participant,session,date,expName,psychopyVersion,OS,frameRate,space_press_continue.keys,space_press_continue.rt,space_press_continue_2.keys,space_press_continue_2.rt,space_press_continue_3.keys,space_press_continue_3.rt,space_press_continue_4.keys,space_press_continue_4.rt,space_press_continue_5.keys,space_press_continue_5.rt,space_press_continue_6.keys,space_press_continue_6.rt,prac_mask_loop_1.thisRepN,prac_mask_loop_1.thisTrialN,prac_mask_loop_1.thisN,prac_mask_loop_1.thisIndex,prac_mask_loop_1.ran,mask_name,prac_mask_loop_2.thisRepN,prac_mask_loop_2.thisTrialN,prac_mask_loop_2.thisN,prac_mask_loop_2.thisIndex,prac_mask_loop_2.ran,mouse_2.x,mouse_2.y,mouse_2.leftButton,mouse_2.midButton,mouse_2.rightButton,mouse_2.clicked_name,similarity,response_time,Pass,mouse_12.x,mouse_12.y,mouse_12.leftButton,mouse_12.midButton,mouse_12.rightButton,mouse_12.clicked_name,prac_loop.thisRepN,prac_loop.thisTrialN,prac_loop.thisN,prac_loop.thisIndex,prac_loop.ran,Pair_type,Image_num,Patch_1_loc,Patch_2_loc,Patch_1_info,Patch_2_info,Patch_1_name,Patch_2_name,mouse_1.x,mouse_1.y,mouse_1.leftButton,mouse_1.midButton,mouse_1.rightButton,mouse_1.time,mouse_1.clicked_name,space_press_continue_7.keys,space_press_continue_7.rt,mask_loop.thisRepN,mask_loop.thisTrialN,mask_loop.thisN,mask_loop.thisIndex,mask_loop.ran,mask_loop_2.thisRepN,mask_loop_2.thisTrialN,mask_loop_2.thisN,mask_loop_2.thisIndex,mask_loop_2.ran,mouse.x,mouse.y,mouse.leftButton,mouse.midButton,mouse.rightButton,mouse.clicked_name,trialNumber,mouse_11.x,mouse_11.y,mouse_11.leftButton,mouse_11.midButton,mouse_11.rightButton,mouse_11.clicked_name,first_pass_loop.thisRepN,first_pass_loop.thisTrialN,first_pass_loop.thisN,first_pass_loop.thisIndex,first_pass_loop.ran,mask_loop_3.thisRepN,mask_loop_3.thisTrialN,mask_loop_3.thisN,mask_loop_3.thisIndex,mask_loop_3.ran,mask_loop_4.thisRepN,mask_loop_4.thisTrialN,mask_loop_4.thisN,mask_loop_4.thisIndex,mask_loop_4.ran,mouse_3.x,mouse_3.y,mouse_3.leftButton,mouse_3.midButton,mouse_3.rightButton,mouse_3.clicked_name,double_pass_loop.thisRepN,double_pass_loop.thisTrialN,double_pass_loop.thisN,double_pass_loop.thisIndex,double_pass_loop.ran,space_exit.keys,space_exit.rt
462101,001,2022-11-13_23h38.54.634,Info_measure_main_exp,2022.2.2,Win32,146.713615,,,,,,,,,,,,,,,,,,,,,,,,,,,,,,,,,,,,,,,,,,,,,,,,,,,,,,,,,,,,,,,,,,,,,,,,,,,,,,,,,,,,,,,,,,,,,,,,,,,,,,,,,,,,,,,
462101,001,2022-11-13_23h38.54.634,Info_measure_main_exp,2022.2.2,Win32,146.713615,,,,,,,,,,,,,,,,,,,,,,,,,,,,,,,,,,,,,,,,,,,,,,,,,,,,,,,,,,,,,,,,,,,,,,,,,,,,,,,,,,,,,,,,,,,,,,,,,,,,,,,,,,,,,,,
462101,001,2022-11-13_23h38.54.634,Info_measure_main_exp,2022.2.2,Win32,146.713615,space,1973.2557,,,,,,,,,,,,,,,,,,,,,,,,,,,,,,,,,,,,,,,,,,,,,,,,,,,,,,,,,,,,,,,,,,,,,,,,,,,,,,,,,,,,,,,,,,,,,,,,,,,,,,,,,,,,,
462101,001,2022-11-13_23h38.54.634,Info_measure_main_exp,2022.2.2,Win32,146.713615,,,space,13.9906,,,,,,,,,,,,,,,,,,,,,,,,,,,,,,,,,,,,,,,,,,,,,,,,,,,,,,,,,,,,,,,,,,,,,,,,,,,,,,,,,,,,,,,,,,,,,,,,,,,,,,,,,,,
462101,001,2022-11-13_23h38.54.634,Info_measure_main_exp,2022.2.2,Win32,146.713615,,,,,space,6.7597,,,,,,,,,,,,,,,,,,,,,,,,,,,,,,,,,,,,,,,,,,,,,,,,,,,,,,,,,,,,,,,,,,,,,,,,,,,,,,,,,,,,,,,,,,,,,,,,,,,,,,,,,
462101,001,2022-11-13_23h38.54.634,Info_measure_main_exp,2022.2.2,Win32,146.713615,,,,,,,space,25.5504,,,,,,,,,,,,,,,,,,,,,,,,,,,,,,,,,,,,,,,,,,,,,,,,,,,,,,,,,,,,,,,,,,,,,,,,,,,,,,,,,,,,,,,,,,,,,,,,,,,,,,,
462101,001,2022-11-13_23h38.54.634,Info_measure_main_exp,2022.2.2,Win32,146.713615,,,,,,,,,space,7.6301,,,,,,,,,,,,,,,,,,,,,,,,,,,,,,,,,,,,,,,,,,,,,,,,,,,,,,,,,,,,,,,,,,,,,,,,,,,,,,,,,,,,,,,,,,,,,,,,,,,,,
462101,001,2022-11-13_23h38.54.634,Info_measure_main_exp,2022.2.2,Win32,146.713615,,,,,,,,,,,space,3.0059,,,,,,,,,,,,,,,,,,,,,,,,,,,,,,,,,,,,,,,,,,,,,,,,,,,,,,,,,,,,,,,,,,,,,,,,,,,,,,,,,,,,,,,,,,,,,,,,,,,
462101,001,2022-11-13_23h38.54.634,Info_measure_main_exp,2022.2.2,Win32,146.713615,,,,,,,,,,,,,0,0,0,1,1,masks/mask_002.jpg,,,,,,,,,,,,,,,,,,,,,,,,,,,,,,,,,,,,,,,,,,,,,,,,,,,,,,,,,,,,,,,,,,,,,,,,,,,,,,,,,,,,,,,,,,,,,
462101,001,2022-11-13_23h38.54.634,Info_measure_main_exp,2022.2.2,Win32,146.713615,,,,,,,,,,,,,0,1,1,2,1,masks/mask_003.jpg,,,,,,,,,,,,,,,,,,,,,,,,,,,,,,,,,,,,,,,,,,,,,,,,,,,,,,,,,,,,,,,,,,,,,,,,,,,,,,,,,,,,,,,,,,,,,
462101,001,2022-11-13_23h38.54.634,Info_measure_main_exp,2022.2.2,Win32,146.713615,,,,,,,,,,,,,0,2,2,0,1,masks/mask_001.jpg,,,,,,,,,,,,,,,,,,,,,,,,,,,,,,,,,,,,,,,,,,,,,,,,,,,,,,,,,,,,,,,,,,,,,,,,,,,,,,,,,,,,,,,,,,,,,
462101,001,2022-11-13_23h38.54.634,Info_measure_main_exp,2022.2.2,Win32,146.713615,,,,,,,,,,,,,0,3,3,4,1,masks/mask_005.jpg,,,,,,,,,,,,,,,,,,,,,,,,,,,,,,,,,,,,,,,,,,,,,,,,,,,,,,,,,,,,,,,,,,,,,,,,,,,,,,,,,,,,,,,,,,,,,
462101,001,2022-11-13_23h38.54.634,Info_measure_main_exp,2022.2.2,Win32,146.713615,,,,,,,,,,,,,0,4,4,3,1,masks/mask_004.jpg,,,,,,,,,,,,,,,,,,,,,,,,,,,,,,,,,,,,,,,,,,,,,,,,,,,,,,,,,,,,,,,,,,,,,,,,,,,,,,,,,,,,,,,,,,,,,
462101,001,2022-11-13_23h38.54.634,Info_measure_main_exp,2022.2.2,Win32,146.713615,,,,,,,,,,,,,,,,,,masks/mask_005.jpg,0,0,0,4,1,,,,,,,,,,,,,,,,,,,,,,,,,,,,,,,,,,,,,,,,,,,,,,,,,,,,,,,,,,,,,,,,,,,,,,,,,,,,,,,,,,,,,,,,
462101,001,2022-11-13_23h38.54.634,Info_measure_main_exp,2022.2.2,Win32,146.713615,,,,,,,,,,,,,,,,,,masks/mask_003.jpg,0,1,1,2,1,,,,,,,,,,,,,,,,,,,,,,,,,,,,,,,,,,,,,,,,,,,,,,,,,,,,,,,,,,,,,,,,,,,,,,,,,,,,,,,,,,,,,,,,
462101,001,2022-11-13_23h38.54.634,Info_measure_main_exp,2022.2.2,Win32,146.713615,,,,,,,,,,,,,,,,,,masks/mask_001.jpg,0,2,2,0,1,,,,,,,,,,,,,,,,,,,,,,,,,,,,,,,,,,,,,,,,,,,,,,,,,,,,,,,,,,,,,,,,,,,,,,,,,,,,,,,,,,,,,,,,
462101,001,2022-11-13_23h38.54.634,Info_measure_main_exp,2022.2.2,Win32,146.713615,,,,,,,,,,,,,,,,,,masks/mask_002.jpg,0,3,3,1,1,,,,,,,,,,,,,,,,,,,,,,,,,,,,,,,,,,,,,,,,,,,,,,,,,,,,,,,,,,,,,,,,,,,,,,,,,,,,,,,,,,,,,,,,
462101,001,2022-11-13_23h38.54.634,Info_measure_main_exp,2022.2.2,Win32,146.713615,,,,,,,,,,,,,,,,,,masks/mask_004.jpg,0,4,4,3,1,,,,,,,,,,,,,,,,,,,,,,,,,,,,,,,,,,,,,,,,,,,,,,,,,,,,,,,,,,,,,,,,,,,,,,,,,,,,,,,,,,,,,,,,
462101,001,2022-11-13_23h38.54.634,Info_measure_main_exp,2022.2.2,Win32,146.713615,,,,,,,,,,,,,,,,,,,,,,,,0.085185228,0.14166666,1,0,0,response1disk,7,2035.9469,1,0.002777806,0.003703683,1,0,0,center_square,0,0,0,0,1,0,131,5,5,2370,2406,prac_patch/patch0002370.jpg,prac_patch/patch0002406.jpg,,,,,,,,,,,,,,,,,,,,,,,,,,,,,,,,,,,,,,,,,,,,,,,,,,,,,,,,,,,,
462101,001,2022-11-13_23h38.54.634,Info_measure_main_exp,2022.2.2,Win32,146.713615,,,,,,,,,,,,,0,0,0,0,1,masks/mask_001.jpg,,,,,,,,,,,,,,,,,,,,,,,,,,,,,,,,,,,,,,,,,,,,,,,,,,,,,,,,,,,,,,,,,,,,,,,,,,,,,,,,,,,,,,,,,,,,,
462101,001,2022-11-13_23h38.54.634,Info_measure_main_exp,2022.2.2,Win32,146.713615,,,,,,,,,,,,,0,1,1,3,1,masks/mask_004.jpg,,,,,,,,,,,,,,,,,,,,,,,,,,,,,,,,,,,,,,,,,,,,,,,,,,,,,,,,,,,,,,,,,,,,,,,,,,,,,,,,,,,,,,,,,,,,,
462101,001,2022-11-13_23h38.54.634,Info_measure_main_exp,2022.2.2,Win32,146.713615,,,,,,,,,,,,,0,2,2,2,1,masks/mask_003.jpg,,,,,,,,,,,,,,,,,,,,,,,,,,,,,,,,,,,,,,,,,,,,,,,,,,,,,,,,,,,,,,,,,,,,,,,,,,,,,,,,,,,,,,,,,,,,,
462101,001,2022-11-13_23h38.54.634,Info_measure_main_exp,2022.2.2,Win32,146.713615,,,,,,,,,,,,,0,3,3,4,1,masks/mask_005.jpg,,,,,,,,,,,,,,,,,,,,,,,,,,,,,,,,,,,,,,,,,,,,,,,,,,,,,,,,,,,,,,,,,,,,,,,,,,,,,,,,,,,,,,,,,,,,,
462101,001,2022-11-13_23h38.54.634,Info_measure_main_exp,2022.2.2,Win32,146.713615,,,,,,,,,,,,,0,4,4,1,1,masks/mask_002.jpg,,,,,,,,,,,,,,,,,,,,,,,,,,,,,,,,,,,,,,,,,,,,,,,,,,,,,,,,,,,,,,,,,,,,,,,,,,,,,,,,,,,,,,,,,,,,,
462101,001,2022-11-13_23h38.54.634,Info_measure_main_exp,2022.2.2,Win32,146.713615,,,,,,,,,,,,,,,,,,masks/mask_003.jpg,0,0,0,2,1,,,,,,,,,,,,,,,,,,,,,,,,,,,,,,,,,,,,,,,,,,,,,,,,,,,,,,,,,,,,,,,,,,,,,,,,,,,,,,,,,,,,,,,,
462101,001,2022-11-13_23h38.54.634,Info_measure_main_exp,2022.2.2,Win32,146.713615,,,,,,,,,,,,,,,,,,masks/mask_004.jpg,0,1,1,3,1,,,,,,,,,,,,,,,,,,,,,,,,,,,,,,,,,,,,,,,,,,,,,,,,,,,,,,,,,,,,,,,,,,,,,,,,,,,,,,,,,,,,,,,,
462101,001,2022-11-13_23h38.54.634,Info_measure_main_exp,2022.2.2,Win32,146.713615,,,,,,,,,,,,,,,,,,masks/mask_005.jpg,0,2,2,4,1,,,,,,,,,,,,,,,,,,,,,,,,,,,,,,,,,,,,,,,,,,,,,,,,,,,,,,,,,,,,,,,,,,,,,,,,,,,,,,,,,,,,,,,,
462101,001,2022-11-13_23h38.54.634,Info_measure_main_exp,2022.2.2,Win32,146.713615,,,,,,,,,,,,,,,,,,masks/mask_002.jpg,0,3,3,1,1,,,,,,,,,,,,,,,,,,,,,,,,,,,,,,,,,,,,,,,,,,,,,,,,,,,,,,,,,,,,,,,,,,,,,,,,,,,,,,,,,,,,,,,,
462101,001,2022-11-13_23h38.54.634,Info_measure_main_exp,2022.2.2,Win32,146.713615,,,,,,,,,,,,,,,,,,masks/mask_001.jpg,0,4,4,0,1,,,,,,,,,,,,,,,,,,,,,,,,,,,,,,,,,,,,,,,,,,,,,,,,,,,,,,,,,,,,,,,,,,,,,,,,,,,,,,,,,,,,,,,,
462101,001,2022-11-13_23h38.54.634,Info_measure_main_exp,2022.2.2,Win32,146.713615,,,,,,,,,,,,,,,,,,,,,,,,-0.069444444,0.154629637,1,0,0,response7disk,0,2047.7523,1,-0.002777735,-0.00462963,1,0,0,center_square,0,1,1,2,1,0,131,5,5,2526,2526,prac_patch/patch0002526.jpg,prac_patch/patch0002526.jpg,,,,,,,,,,,,,,,,,,,,,,,,,,,,,,,,,,,,,,,,,,,,,,,,,,,,,,,,,,,,
462101,001,2022-11-13_23h38.54.634,Info_measure_main_exp,2022.2.2,Win32,146.713615,,,,,,,,,,,,,0,0,0,0,1,masks/mask_001.jpg,,,,,,,,,,,,,,,,,,,,,,,,,,,,,,,,,,,,,,,,,,,,,,,,,,,,,,,,,,,,,,,,,,,,,,,,,,,,,,,,,,,,,,,,,,,,,
462101,001,2022-11-13_23h38.54.634,Info_measure_main_exp,2022.2.2,Win32,146.713615,,,,,,,,,,,,,0,1,1,3,1,masks/mask_004.jpg,,,,,,,,,,,,,,,,,,,,,,,,,,,,,,,,,,,,,,,,,,,,,,,,,,,,,,,,,,,,,,,,,,,,,,,,,,,,,,,,,,,,,,,,,,,,,
462101,001,2022-11-13_23h38.54.634,Info_measure_main_exp,2022.2.2,Win32,146.713615,,,,,,,,,,,,,0,2,2,4,1,masks/mask_005.jpg,,,,,,,,,,,,,,,,,,,,,,,,,,,,,,,,,,,,,,,,,,,,,,,,,,,,,,,,,,,,,,,,,,,,,,,,,,,,,,,,,,,,,,,,,,,,,
462101,001,2022-11-13_23h38.54.634,Info_measure_main_exp,2022.2.2,Win32,146.713615,,,,,,,,,,,,,0,3,3,1,1,masks/mask_002.jpg,,,,,,,,,,,,,,,,,,,,,,,,,,,,,,,,,,,,,,,,,,,,,,,,,,,,,,,,,,,,,,,,,,,,,,,,,,,,,,,,,,,,,,,,,,,,,
462101,001,2022-11-13_23h38.54.634,Info_measure_main_exp,2022.2.2,Win32,146.713615,,,,,,,,,,,,,0,4,4,2,1,masks/mask_003.jpg,,,,,,,,,,,,,,,,,,,,,,,,,,,,,,,,,,,,,,,,,,,,,,,,,,,,,,,,,,,,,,,,,,,,,,,,,,,,,,,,,,,,,,,,,,,,,
462101,001,2022-11-13_23h38.54.634,Info_measure_main_exp,2022.2.2,Win32,146.713615,,,,,,,,,,,,,,,,,,masks/mask_001.jpg,0,0,0,0,1,,,,,,,,,,,,,,,,,,,,,,,,,,,,,,,,,,,,,,,,,,,,,,,,,,,,,,,,,,,,,,,,,,,,,,,,,,,,,,,,,,,,,,,,
462101,001,2022-11-13_23h38.54.634,Info_measure_main_exp,2022.2.2,Win32,146.713615,,,,,,,,,,,,,,,,,,masks/mask_005.jpg,0,1,1,4,1,,,,,,,,,,,,,,,,,,,,,,,,,,,,,,,,,,,,,,,,,,,,,,,,,,,,,,,,,,,,,,,,,,,,,,,,,,,,,,,,,,,,,,,,
462101,001,2022-11-13_23h38.54.634,Info_measure_main_exp,2022.2.2,Win32,146.713615,,,,,,,,,,,,,,,,,,masks/mask_002.jpg,0,2,2,1,1,,,,,,,,,,,,,,,,,,,,,,,,,,,,,,,,,,,,,,,,,,,,,,,,,,,,,,,,,,,,,,,,,,,,,,,,,,,,,,,,,,,,,,,,
462101,001,2022-11-13_23h38.54.634,Info_measure_main_exp,2022.2.2,Win32,146.713615,,,,,,,,,,,,,,,,,,masks/mask_004.jpg,0,3,3,3,1,,,,,,,,,,,,,,,,,,,,,,,,,,,,,,,,,,,,,,,,,,,,,,,,,,,,,,,,,,,,,,,,,,,,,,,,,,,,,,,,,,,,,,,,
462101,001,2022-11-13_23h38.54.634,Info_measure_main_exp,2022.2.2,Win32,146.713615,,,,,,,,,,,,,,,,,,masks/mask_003.jpg,0,4,4,2,1,,,,,,,,,,,,,,,,,,,,,,,,,,,,,,,,,,,,,,,,,,,,,,,,,,,,,,,,,,,,,,,,,,,,,,,,,,,,,,,,,,,,,,,,
462101,001,2022-11-13_23h38.54.634,Info_measure_main_exp,2022.2.2,Win32,146.713615,,,,,,,,,,,,,,,,,,,,,,,,0.146296325,-0.047222243,1,0,0,response3disk,5,2059.5262,1,-0.006481453,-0.009259259,1,0,0,center_square,0,2,2,1,1,0,131,5,5,2514,2490,prac_patch/patch0002514.jpg,prac_patch/patch0002490.jpg,,,,,,,,,,,,,,,,,,,,,,,,,,,,,,,,,,,,,,,,,,,,,,,,,,,,,,,,,,,,
462101,001,2022-11-13_23h38.54.634,Info_measure_main_exp,2022.2.2,Win32,146.713615,,,,,,,,,,,,,,,,,,,,,,,,,,,,,,,,,,,,,,,,,,,,,,,,,,,,,,,,,,,space,2.1717,,,,,,,,,,,,,,,,,,,,,,,,,,,,,,,,,,,,,,,,,,,,,,,,,,,
462101,001,2022-11-13_23h38.54.634,Info_measure_main_exp,2022.2.2,Win32,146.713615,,,,,,,,,,,,,,,,,,masks/mask_005.jpg,,,,,,,,,,,,,,,,,,,,,,,,,,,,,,,,,,,,,,,,,,,0,0,0,4,1,,,,,,,,,,,,,,,,,,,,,,,,,,,,,,,,,,,,,,,,,,,,,,
462101,001,2022-11-13_23h38.54.634,Info_measure_main_exp,2022.2.2,Win32,146.713615,,,,,,,,,,,,,,,,,,masks/mask_001.jpg,,,,,,,,,,,,,,,,,,,,,,,,,,,,,,,,,,,,,,,,,,,0,1,1,0,1,,,,,,,,,,,,,,,,,,,,,,,,,,,,,,,,,,,,,,,,,,,,,,
462101,001,2022-11-13_23h38.54.634,Info_measure_main_exp,2022.2.2,Win32,146.713615,,,,,,,,,,,,,,,,,,masks/mask_003.jpg,,,,,,,,,,,,,,,,,,,,,,,,,,,,,,,,,,,,,,,,,,,0,2,2,2,1,,,,,,,,,,,,,,,,,,,,,,,,,,,,,,,,,,,,,,,,,,,,,,
462101,001,2022-11-13_23h38.54.634,Info_measure_main_exp,2022.2.2,Win32,146.713615,,,,,,,,,,,,,,,,,,masks/mask_002.jpg,,,,,,,,,,,,,,,,,,,,,,,,,,,,,,,,,,,,,,,,,,,0,3,3,1,1,,,,,,,,,,,,,,,,,,,,,,,,,,,,,,,,,,,,,,,,,,,,,,
462101,001,2022-11-13_23h38.54.634,Info_measure_main_exp,2022.2.2,Win32,146.713615,,,,,,,,,,,,,,,,,,masks/mask_004.jpg,,,,,,,,,,,,,,,,,,,,,,,,,,,,,,,,,,,,,,,,,,,0,4,4,3,1,,,,,,,,,,,,,,,,,,,,,,,,,,,,,,,,,,,,,,,,,,,,,,
462101,001,2022-11-13_23h38.54.634,Info_measure_main_exp,2022.2.2,Win32,146.713615,,,,,,,,,,,,,,,,,,masks/mask_005.jpg,,,,,,,,,,,,,,,,,,,,,,,,,,,,,,,,,,,,,,,,,,,,,,,,0,0,0,4,1,,,,,,,,,,,,,,,,,,,,,,,,,,,,,,,,,,,,,,,,,
462101,001,2022-11-13_23h38.54.634,Info_measure_main_exp,2022.2.2,Win32,146.713615,,,,,,,,,,,,,,,,,,masks/mask_002.jpg,,,,,,,,,,,,,,,,,,,,,,,,,,,,,,,,,,,,,,,,,,,,,,,,0,1,1,1,1,,,,,,,,,,,,,,,,,,,,,,,,,,,,,,,,,,,,,,,,,
462101,001,2022-11-13_23h38.54.634,Info_measure_main_exp,2022.2.2,Win32,146.713615,,,,,,,,,,,,,,,,,,masks/mask_001.jpg,,,,,,,,,,,,,,,,,,,,,,,,,,,,,,,,,,,,,,,,,,,,,,,,0,2,2,0,1,,,,,,,,,,,,,,,,,,,,,,,,,,,,,,,,,,,,,,,,,
462101,001,2022-11-13_23h38.54.634,Info_measure_main_exp,2022.2.2,Win32,146.713615,,,,,,,,,,,,,,,,,,masks/mask_004.jpg,,,,,,,,,,,,,,,,,,,,,,,,,,,,,,,,,,,,,,,,,,,,,,,,0,3,3,3,1,,,,,,,,,,,,,,,,,,,,,,,,,,,,,,,,,,,,,,,,,
462101,001,2022-11-13_23h38.54.634,Info_measure_main_exp,2022.2.2,Win32,146.713615,,,,,,,,,,,,,,,,,,masks/mask_003.jpg,,,,,,,,,,,,,,,,,,,,,,,,,,,,,,,,,,,,,,,,,,,,,,,,0,4,4,2,1,,,,,,,,,,,,,,,,,,,,,,,,,,,,,,,,,,,,,,,,,
462101,001,2022-11-13_23h38.54.634,Info_measure_main_exp,2022.2.2,Win32,146.713615,,,,,,,,,,,,,,,,,,,,,,,,,,,,,,6,2.7309,1,,,,,,,,,,,,0,131,5,5,1950,2142,absent_patch/patch0001950.jpg,absent_patch/patch0002142.jpg,,,,,,,,,,,,,,,,,,,,0.071296339,0.030555548,1,0,0,response1disk,1,0.000925912,0.003703683,1,0,0,center_square,0,0,0,83,1,,,,,,,,,,,,,,,,,,,,,,,
462101,001,2022-11-13_23h38.54.634,Info_measure_main_exp,2022.2.2,Win32,146.713615,,,,,,,,,,,,,,,,,,masks/mask_003.jpg,,,,,,,,,,,,,,,,,,,,,,,,,,,,,,,,,,,,,,,,,,,0,0,0,2,1,,,,,,,,,,,,,,,,,,,,,,,,,,,,,,,,,,,,,,,,,,,,,,
462101,001,2022-11-13_23h38.54.634,Info_measure_main_exp,2022.2.2,Win32,146.713615,,,,,,,,,,,,,,,,,,masks/mask_005.jpg,,,,,,,,,,,,,,,,,,,,,,,,,,,,,,,,,,,,,,,,,,,0,1,1,4,1,,,,,,,,,,,,,,,,,,,,,,,,,,,,,,,,,,,,,,,,,,,,,,
462101,001,2022-11-13_23h38.54.634,Info_measure_main_exp,2022.2.2,Win32,146.713615,,,,,,,,,,,,,,,,,,masks/mask_002.jpg,,,,,,,,,,,,,,,,,,,,,,,,,,,,,,,,,,,,,,,,,,,0,2,2,1,1,,,,,,,,,,,,,,,,,,,,,,,,,,,,,,,,,,,,,,,,,,,,,,
462101,001,2022-11-13_23h38.54.634,Info_measure_main_exp,2022.2.2,Win32,146.713615,,,,,,,,,,,,,,,,,,masks/mask_001.jpg,,,,,,,,,,,,,,,,,,,,,,,,,,,,,,,,,,,,,,,,,,,0,3,3,0,1,,,,,,,,,,,,,,,,,,,,,,,,,,,,,,,,,,,,,,,,,,,,,,
462101,001,2022-11-13_23h38.54.634,Info_measure_main_exp,2022.2.2,Win32,146.713615,,,,,,,,,,,,,,,,,,masks/mask_004.jpg,,,,,,,,,,,,,,,,,,,,,,,,,,,,,,,,,,,,,,,,,,,0,4,4,3,1,,,,,,,,,,,,,,,,,,,,,,,,,,,,,,,,,,,,,,,,,,,,,,
462101,001,2022-11-13_23h38.54.634,Info_measure_main_exp,2022.2.2,Win32,146.713615,,,,,,,,,,,,,,,,,,masks/mask_005.jpg,,,,,,,,,,,,,,,,,,,,,,,,,,,,,,,,,,,,,,,,,,,,,,,,0,0,0,4,1,,,,,,,,,,,,,,,,,,,,,,,,,,,,,,,,,,,,,,,,,
462101,001,2022-11-13_23h38.54.634,Info_measure_main_exp,2022.2.2,Win32,146.713615,,,,,,,,,,,,,,,,,,masks/mask_004.jpg,,,,,,,,,,,,,,,,,,,,,,,,,,,,,,,,,,,,,,,,,,,,,,,,0,1,1,3,1,,,,,,,,,,,,,,,,,,,,,,,,,,,,,,,,,,,,,,,,,
462101,001,2022-11-13_23h38.54.634,Info_measure_main_exp,2022.2.2,Win32,146.713615,,,,,,,,,,,,,,,,,,masks/mask_002.jpg,,,,,,,,,,,,,,,,,,,,,,,,,,,,,,,,,,,,,,,,,,,,,,,,0,2,2,1,1,,,,,,,,,,,,,,,,,,,,,,,,,,,,,,,,,,,,,,,,,
462101,001,2022-11-13_23h38.54.634,Info_measure_main_exp,2022.2.2,Win32,146.713615,,,,,,,,,,,,,,,,,,masks/mask_001.jpg,,,,,,,,,,,,,,,,,,,,,,,,,,,,,,,,,,,,,,,,,,,,,,,,0,3,3,0,1,,,,,,,,,,,,,,,,,,,,,,,,,,,,,,,,,,,,,,,,,
462101,001,2022-11-13_23h38.54.634,Info_measure_main_exp,2022.2.2,Win32,146.713615,,,,,,,,,,,,,,,,,,masks/mask_003.jpg,,,,,,,,,,,,,,,,,,,,,,,,,,,,,,,,,,,,,,,,,,,,,,,,0,4,4,2,1,,,,,,,,,,,,,,,,,,,,,,,,,,,,,,,,,,,,,,,,,
462101,001,2022-11-13_23h38.54.634,Info_measure_main_exp,2022.2.2,Win32,146.713615,,,,,,,,,,,,,,,,,,,,,,,,,,,,,,5,1.1806,1,,,,,,,,,,,,0,131,5,5,2298,2190,absent_patch/patch0002298.jpg,absent_patch/patch0002190.jpg,,,,,,,,,,,,,,,,,,,,0.083333333,-0.041666667,1,0,0,response3disk,2,-0.003703718,-0.001851859,1,0,0,center_square,0,1,1,20,1,,,,,,,,,,,,,,,,,,,,,,,
462101,001,2022-11-13_23h38.54.634,Info_measure_main_exp,2022.2.2,Win32,146.713615,,,,,,,,,,,,,,,,,,masks/mask_002.jpg,,,,,,,,,,,,,,,,,,,,,,,,,,,,,,,,,,,,,,,,,,,0,0,0,1,1,,,,,,,,,,,,,,,,,,,,,,,,,,,,,,,,,,,,,,,,,,,,,,
462101,001,2022-11-13_23h38.54.634,Info_measure_main_exp,2022.2.2,Win32,146.713615,,,,,,,,,,,,,,,,,,masks/mask_001.jpg,,,,,,,,,,,,,,,,,,,,,,,,,,,,,,,,,,,,,,,,,,,0,1,1,0,1,,,,,,,,,,,,,,,,,,,,,,,,,,,,,,,,,,,,,,,,,,,,,,
462101,001,2022-11-13_23h38.54.634,Info_measure_main_exp,2022.2.2,Win32,146.713615,,,,,,,,,,,,,,,,,,masks/mask_004.jpg,,,,,,,,,,,,,,,,,,,,,,,,,,,,,,,,,,,,,,,,,,,0,2,2,3,1,,,,,,,,,,,,,,,,,,,,,,,,,,,,,,,,,,,,,,,,,,,,,,
462101,001,2022-11-13_23h38.54.634,Info_measure_main_exp,2022.2.2,Win32,146.713615,,,,,,,,,,,,,,,,,,masks/mask_005.jpg,,,,,,,,,,,,,,,,,,,,,,,,,,,,,,,,,,,,,,,,,,,0,3,3,4,1,,,,,,,,,,,,,,,,,,,,,,,,,,,,,,,,,,,,,,,,,,,,,,
462101,001,2022-11-13_23h38.54.634,Info_measure_main_exp,2022.2.2,Win32,146.713615,,,,,,,,,,,,,,,,,,masks/mask_003.jpg,,,,,,,,,,,,,,,,,,,,,,,,,,,,,,,,,,,,,,,,,,,0,4,4,2,1,,,,,,,,,,,,,,,,,,,,,,,,,,,,,,,,,,,,,,,,,,,,,,
462101,001,2022-11-13_23h38.54.634,Info_measure_main_exp,2022.2.2,Win32,146.713615,,,,,,,,,,,,,,,,,,masks/mask_004.jpg,,,,,,,,,,,,,,,,,,,,,,,,,,,,,,,,,,,,,,,,,,,,,,,,0,0,0,3,1,,,,,,,,,,,,,,,,,,,,,,,,,,,,,,,,,,,,,,,,,
462101,001,2022-11-13_23h38.54.634,Info_measure_main_exp,2022.2.2,Win32,146.713615,,,,,,,,,,,,,,,,,,masks/mask_001.jpg,,,,,,,,,,,,,,,,,,,,,,,,,,,,,,,,,,,,,,,,,,,,,,,,0,1,1,0,1,,,,,,,,,,,,,,,,,,,,,,,,,,,,,,,,,,,,,,,,,
462101,001,2022-11-13_23h38.54.634,Info_measure_main_exp,2022.2.2,Win32,146.713615,,,,,,,,,,,,,,,,,,masks/mask_003.jpg,,,,,,,,,,,,,,,,,,,,,,,,,,,,,,,,,,,,,,,,,,,,,,,,0,2,2,2,1,,,,,,,,,,,,,,,,,,,,,,,,,,,,,,,,,,,,,,,,,
462101,001,2022-11-13_23h38.54.634,Info_measure_main_exp,2022.2.2,Win32,146.713615,,,,,,,,,,,,,,,,,,masks/mask_002.jpg,,,,,,,,,,,,,,,,,,,,,,,,,,,,,,,,,,,,,,,,,,,,,,,,0,3,3,1,1,,,,,,,,,,,,,,,,,,,,,,,,,,,,,,,,,,,,,,,,,
462101,001,2022-11-13_23h38.54.634,Info_measure_main_exp,2022.2.2,Win32,146.713615,,,,,,,,,,,,,,,,,,masks/mask_005.jpg,,,,,,,,,,,,,,,,,,,,,,,,,,,,,,,,,,,,,,,,,,,,,,,,0,4,4,4,1,,,,,,,,,,,,,,,,,,,,,,,,,,,,,,,,,,,,,,,,,
462101,001,2022-11-13_23h38.54.634,Info_measure_main_exp,2022.2.2,Win32,146.713615,,,,,,,,,,,,,,,,,,,,,,,,,,,,,,6,2.0946,1,,,,,,,,,,,,0,131,5,5,2142,2082,absent_patch/patch0002142.jpg,absent_patch/patch0002082.jpg,,,,,,,,,,,,,,,,,,,,0.074999986,0.02407406,1,0,0,response1disk,3,0.005555541,-0.001851859,1,0,0,center_square,0,2,2,88,1,,,,,,,,,,,,,,,,,,,,,,,
462101,001,2022-11-13_23h38.54.634,Info_measure_main_exp,2022.2.2,Win32,146.713615,,,,,,,,,,,,,,,,,,masks/mask_005.jpg,,,,,,,,,,,,,,,,,,,,,,,,,,,,,,,,,,,,,,,,,,,0,0,0,4,1,,,,,,,,,,,,,,,,,,,,,,,,,,,,,,,,,,,,,,,,,,,,,,
462101,001,2022-11-13_23h38.54.634,Info_measure_main_exp,2022.2.2,Win32,146.713615,,,,,,,,,,,,,,,,,,masks/mask_002.jpg,,,,,,,,,,,,,,,,,,,,,,,,,,,,,,,,,,,,,,,,,,,0,1,1,1,1,,,,,,,,,,,,,,,,,,,,,,,,,,,,,,,,,,,,,,,,,,,,,,
462101,001,2022-11-13_23h38.54.634,Info_measure_main_exp,2022.2.2,Win32,146.713615,,,,,,,,,,,,,,,,,,masks/mask_003.jpg,,,,,,,,,,,,,,,,,,,,,,,,,,,,,,,,,,,,,,,,,,,0,2,2,2,1,,,,,,,,,,,,,,,,,,,,,,,,,,,,,,,,,,,,,,,,,,,,,,
462101,001,2022-11-13_23h38.54.634,Info_measure_main_exp,2022.2.2,Win32,146.713615,,,,,,,,,,,,,,,,,,masks/mask_001.jpg,,,,,,,,,,,,,,,,,,,,,,,,,,,,,,,,,,,,,,,,,,,0,3,3,0,1,,,,,,,,,,,,,,,,,,,,,,,,,,,,,,,,,,,,,,,,,,,,,,
462101,001,2022-11-13_23h38.54.634,Info_measure_main_exp,2022.2.2,Win32,146.713615,,,,,,,,,,,,,,,,,,masks/mask_004.jpg,,,,,,,,,,,,,,,,,,,,,,,,,,,,,,,,,,,,,,,,,,,0,4,4,3,1,,,,,,,,,,,,,,,,,,,,,,,,,,,,,,,,,,,,,,,,,,,,,,
462101,001,2022-11-13_23h38.54.634,Info_measure_main_exp,2022.2.2,Win32,146.713615,,,,,,,,,,,,,,,,,,masks/mask_005.jpg,,,,,,,,,,,,,,,,,,,,,,,,,,,,,,,,,,,,,,,,,,,,,,,,0,0,0,4,1,,,,,,,,,,,,,,,,,,,,,,,,,,,,,,,,,,,,,,,,,
462101,001,2022-11-13_23h38.54.634,Info_measure_main_exp,2022.2.2,Win32,146.713615,,,,,,,,,,,,,,,,,,masks/mask_002.jpg,,,,,,,,,,,,,,,,,,,,,,,,,,,,,,,,,,,,,,,,,,,,,,,,0,1,1,1,1,,,,,,,,,,,,,,,,,,,,,,,,,,,,,,,,,,,,,,,,,
462101,001,2022-11-13_23h38.54.634,Info_measure_main_exp,2022.2.2,Win32,146.713615,,,,,,,,,,,,,,,,,,masks/mask_004.jpg,,,,,,,,,,,,,,,,,,,,,,,,,,,,,,,,,,,,,,,,,,,,,,,,0,2,2,3,1,,,,,,,,,,,,,,,,,,,,,,,,,,,,,,,,,,,,,,,,,
462101,001,2022-11-13_23h38.54.634,Info_measure_main_exp,2022.2.2,Win32,146.713615,,,,,,,,,,,,,,,,,,masks/mask_001.jpg,,,,,,,,,,,,,,,,,,,,,,,,,,,,,,,,,,,,,,,,,,,,,,,,0,3,3,0,1,,,,,,,,,,,,,,,,,,,,,,,,,,,,,,,,,,,,,,,,,
462101,001,2022-11-13_23h38.54.634,Info_measure_main_exp,2022.2.2,Win32,146.713615,,,,,,,,,,,,,,,,,,masks/mask_003.jpg,,,,,,,,,,,,,,,,,,,,,,,,,,,,,,,,,,,,,,,,,,,,,,,,0,4,4,2,1,,,,,,,,,,,,,,,,,,,,,,,,,,,,,,,,,,,,,,,,,
462101,001,2022-11-13_23h38.54.634,Info_measure_main_exp,2022.2.2,Win32,146.713615,,,,,,,,,,,,,,,,,,,,,,,,,,,,,,7,0.8771,1,,,,,,,,,,,,1,131,5,5,1,2166,present_patch/cong_131_5_a.jpg,absent_patch/patch0002166.jpg,,,,,,,,,,,,,,,,,,,,0.02870369,0.133333312,1,0,0,response1disk,4,-0.003703718,-0.00462963,1,0,0,center_square,0,3,3,54,1,,,,,,,,,,,,,,,,,,,,,,,
462101,001,2022-11-13_23h38.54.634,Info_measure_main_exp,2022.2.2,Win32,146.713615,,,,,,,,,,,,,,,,,,masks/mask_001.jpg,,,,,,,,,,,,,,,,,,,,,,,,,,,,,,,,,,,,,,,,,,,0,0,0,0,1,,,,,,,,,,,,,,,,,,,,,,,,,,,,,,,,,,,,,,,,,,,,,,
462101,001,2022-11-13_23h38.54.634,Info_measure_main_exp,2022.2.2,Win32,146.713615,,,,,,,,,,,,,,,,,,masks/mask_005.jpg,,,,,,,,,,,,,,,,,,,,,,,,,,,,,,,,,,,,,,,,,,,0,1,1,4,1,,,,,,,,,,,,,,,,,,,,,,,,,,,,,,,,,,,,,,,,,,,,,,
462101,001,2022-11-13_23h38.54.634,Info_measure_main_exp,2022.2.2,Win32,146.713615,,,,,,,,,,,,,,,,,,masks/mask_002.jpg,,,,,,,,,,,,,,,,,,,,,,,,,,,,,,,,,,,,,,,,,,,0,2,2,1,1,,,,,,,,,,,,,,,,,,,,,,,,,,,,,,,,,,,,,,,,,,,,,,
462101,001,2022-11-13_23h38.54.634,Info_measure_main_exp,2022.2.2,Win32,146.713615,,,,,,,,,,,,,,,,,,masks/mask_004.jpg,,,,,,,,,,,,,,,,,,,,,,,,,,,,,,,,,,,,,,,,,,,0,3,3,3,1,,,,,,,,,,,,,,,,,,,,,,,,,,,,,,,,,,,,,,,,,,,,,,
462101,001,2022-11-13_23h38.54.634,Info_measure_main_exp,2022.2.2,Win32,146.713615,,,,,,,,,,,,,,,,,,masks/mask_003.jpg,,,,,,,,,,,,,,,,,,,,,,,,,,,,,,,,,,,,,,,,,,,0,4,4,2,1,,,,,,,,,,,,,,,,,,,,,,,,,,,,,,,,,,,,,,,,,,,,,,
462101,001,2022-11-13_23h38.54.634,Info_measure_main_exp,2022.2.2,Win32,146.713615,,,,,,,,,,,,,,,,,,masks/mask_005.jpg,,,,,,,,,,,,,,,,,,,,,,,,,,,,,,,,,,,,,,,,,,,,,,,,0,0,0,4,1,,,,,,,,,,,,,,,,,,,,,,,,,,,,,,,,,,,,,,,,,
462101,001,2022-11-13_23h38.54.634,Info_measure_main_exp,2022.2.2,Win32,146.713615,,,,,,,,,,,,,,,,,,masks/mask_004.jpg,,,,,,,,,,,,,,,,,,,,,,,,,,,,,,,,,,,,,,,,,,,,,,,,0,1,1,3,1,,,,,,,,,,,,,,,,,,,,,,,,,,,,,,,,,,,,,,,,,
462101,001,2022-11-13_23h38.54.634,Info_measure_main_exp,2022.2.2,Win32,146.713615,,,,,,,,,,,,,,,,,,masks/mask_002.jpg,,,,,,,,,,,,,,,,,,,,,,,,,,,,,,,,,,,,,,,,,,,,,,,,0,2,2,1,1,,,,,,,,,,,,,,,,,,,,,,,,,,,,,,,,,,,,,,,,,
462101,001,2022-11-13_23h38.54.634,Info_measure_main_exp,2022.2.2,Win32,146.713615,,,,,,,,,,,,,,,,,,masks/mask_001.jpg,,,,,,,,,,,,,,,,,,,,,,,,,,,,,,,,,,,,,,,,,,,,,,,,0,3,3,0,1,,,,,,,,,,,,,,,,,,,,,,,,,,,,,,,,,,,,,,,,,
462101,001,2022-11-13_23h38.54.634,Info_measure_main_exp,2022.2.2,Win32,146.713615,,,,,,,,,,,,,,,,,,masks/mask_003.jpg,,,,,,,,,,,,,,,,,,,,,,,,,,,,,,,,,,,,,,,,,,,,,,,,0,4,4,2,1,,,,,,,,,,,,,,,,,,,,,,,,,,,,,,,,,,,,,,,,,
462101,001,2022-11-13_23h38.54.634,Info_measure_main_exp,2022.2.2,Win32,146.713615,,,,,,,,,,,,,,,,,,,,,,,,,,,,,,7,0.8457,1,,,,,,,,,,,,0,131,5,5,1974,2238,absent_patch/patch0001974.jpg,absent_patch/patch0002238.jpg,,,,,,,,,,,,,,,,,,,,0.041666667,0.133333312,1,0,0,response1disk,5,-0.007407365,-0.009259259,1,0,0,center_square,0,4,4,95,1,,,,,,,,,,,,,,,,,,,,,,,
462101,001,2022-11-13_23h38.54.634,Info_measure_main_exp,2022.2.2,Win32,146.713615,,,,,,,,,,,,,,,,,,masks/mask_001.jpg,,,,,,,,,,,,,,,,,,,,,,,,,,,,,,,,,,,,,,,,,,,0,0,0,0,1,,,,,,,,,,,,,,,,,,,,,,,,,,,,,,,,,,,,,,,,,,,,,,
462101,001,2022-11-13_23h38.54.634,Info_measure_main_exp,2022.2.2,Win32,146.713615,,,,,,,,,,,,,,,,,,masks/mask_004.jpg,,,,,,,,,,,,,,,,,,,,,,,,,,,,,,,,,,,,,,,,,,,0,1,1,3,1,,,,,,,,,,,,,,,,,,,,,,,,,,,,,,,,,,,,,,,,,,,,,,
462101,001,2022-11-13_23h38.54.634,Info_measure_main_exp,2022.2.2,Win32,146.713615,,,,,,,,,,,,,,,,,,masks/mask_002.jpg,,,,,,,,,,,,,,,,,,,,,,,,,,,,,,,,,,,,,,,,,,,0,2,2,1,1,,,,,,,,,,,,,,,,,,,,,,,,,,,,,,,,,,,,,,,,,,,,,,
462101,001,2022-11-13_23h38.54.634,Info_measure_main_exp,2022.2.2,Win32,146.713615,,,,,,,,,,,,,,,,,,masks/mask_003.jpg,,,,,,,,,,,,,,,,,,,,,,,,,,,,,,,,,,,,,,,,,,,0,3,3,2,1,,,,,,,,,,,,,,,,,,,,,,,,,,,,,,,,,,,,,,,,,,,,,,
462101,001,2022-11-13_23h38.54.634,Info_measure_main_exp,2022.2.2,Win32,146.713615,,,,,,,,,,,,,,,,,,masks/mask_005.jpg,,,,,,,,,,,,,,,,,,,,,,,,,,,,,,,,,,,,,,,,,,,0,4,4,4,1,,,,,,,,,,,,,,,,,,,,,,,,,,,,,,,,,,,,,,,,,,,,,,
462101,001,2022-11-13_23h38.54.634,Info_measure_main_exp,2022.2.2,Win32,146.713615,,,,,,,,,,,,,,,,,,masks/mask_001.jpg,,,,,,,,,,,,,,,,,,,,,,,,,,,,,,,,,,,,,,,,,,,,,,,,0,0,0,0,1,,,,,,,,,,,,,,,,,,,,,,,,,,,,,,,,,,,,,,,,,
462101,001,2022-11-13_23h38.54.634,Info_measure_main_exp,2022.2.2,Win32,146.713615,,,,,,,,,,,,,,,,,,masks/mask_002.jpg,,,,,,,,,,,,,,,,,,,,,,,,,,,,,,,,,,,,,,,,,,,,,,,,0,1,1,1,1,,,,,,,,,,,,,,,,,,,,,,,,,,,,,,,,,,,,,,,,,
462101,001,2022-11-13_23h38.54.634,Info_measure_main_exp,2022.2.2,Win32,146.713615,,,,,,,,,,,,,,,,,,masks/mask_005.jpg,,,,,,,,,,,,,,,,,,,,,,,,,,,,,,,,,,,,,,,,,,,,,,,,0,2,2,4,1,,,,,,,,,,,,,,,,,,,,,,,,,,,,,,,,,,,,,,,,,
462101,001,2022-11-13_23h38.54.634,Info_measure_main_exp,2022.2.2,Win32,146.713615,,,,,,,,,,,,,,,,,,masks/mask_003.jpg,,,,,,,,,,,,,,,,,,,,,,,,,,,,,,,,,,,,,,,,,,,,,,,,0,3,3,2,1,,,,,,,,,,,,,,,,,,,,,,,,,,,,,,,,,,,,,,,,,
462101,001,2022-11-13_23h38.54.634,Info_measure_main_exp,2022.2.2,Win32,146.713615,,,,,,,,,,,,,,,,,,masks/mask_004.jpg,,,,,,,,,,,,,,,,,,,,,,,,,,,,,,,,,,,,,,,,,,,,,,,,0,4,4,3,1,,,,,,,,,,,,,,,,,,,,,,,,,,,,,,,,,,,,,,,,,
462101,001,2022-11-13_23h38.54.634,Info_measure_main_exp,2022.2.2,Win32,146.713615,,,,,,,,,,,,,,,,,,,,,,,,,,,,,,6,1.0814,1,,,,,,,,,,,,0,131,5,5,2250,2178,absent_patch/patch0002250.jpg,absent_patch/patch0002178.jpg,,,,,,,,,,,,,,,,,,,,0.088888875,0.029629637,1,0,0,response1disk,6,-0.002777735,-0.006481489,1,0,0,center_square,0,5,5,48,1,,,,,,,,,,,,,,,,,,,,,,,
462101,001,2022-11-13_23h38.54.634,Info_measure_main_exp,2022.2.2,Win32,146.713615,,,,,,,,,,,,,,,,,,masks/mask_003.jpg,,,,,,,,,,,,,,,,,,,,,,,,,,,,,,,,,,,,,,,,,,,0,0,0,2,1,,,,,,,,,,,,,,,,,,,,,,,,,,,,,,,,,,,,,,,,,,,,,,
462101,001,2022-11-13_23h38.54.634,Info_measure_main_exp,2022.2.2,Win32,146.713615,,,,,,,,,,,,,,,,,,masks/mask_002.jpg,,,,,,,,,,,,,,,,,,,,,,,,,,,,,,,,,,,,,,,,,,,0,1,1,1,1,,,,,,,,,,,,,,,,,,,,,,,,,,,,,,,,,,,,,,,,,,,,,,
462101,001,2022-11-13_23h38.54.634,Info_measure_main_exp,2022.2.2,Win32,146.713615,,,,,,,,,,,,,,,,,,masks/mask_005.jpg,,,,,,,,,,,,,,,,,,,,,,,,,,,,,,,,,,,,,,,,,,,0,2,2,4,1,,,,,,,,,,,,,,,,,,,,,,,,,,,,,,,,,,,,,,,,,,,,,,
462101,001,2022-11-13_23h38.54.634,Info_measure_main_exp,2022.2.2,Win32,146.713615,,,,,,,,,,,,,,,,,,masks/mask_001.jpg,,,,,,,,,,,,,,,,,,,,,,,,,,,,,,,,,,,,,,,,,,,0,3,3,0,1,,,,,,,,,,,,,,,,,,,,,,,,,,,,,,,,,,,,,,,,,,,,,,
462101,001,2022-11-13_23h38.54.634,Info_measure_main_exp,2022.2.2,Win32,146.713615,,,,,,,,,,,,,,,,,,masks/mask_004.jpg,,,,,,,,,,,,,,,,,,,,,,,,,,,,,,,,,,,,,,,,,,,0,4,4,3,1,,,,,,,,,,,,,,,,,,,,,,,,,,,,,,,,,,,,,,,,,,,,,,
462101,001,2022-11-13_23h38.54.634,Info_measure_main_exp,2022.2.2,Win32,146.713615,,,,,,,,,,,,,,,,,,masks/mask_002.jpg,,,,,,,,,,,,,,,,,,,,,,,,,,,,,,,,,,,,,,,,,,,,,,,,0,0,0,1,1,,,,,,,,,,,,,,,,,,,,,,,,,,,,,,,,,,,,,,,,,
462101,001,2022-11-13_23h38.54.634,Info_measure_main_exp,2022.2.2,Win32,146.713615,,,,,,,,,,,,,,,,,,masks/mask_004.jpg,,,,,,,,,,,,,,,,,,,,,,,,,,,,,,,,,,,,,,,,,,,,,,,,0,1,1,3,1,,,,,,,,,,,,,,,,,,,,,,,,,,,,,,,,,,,,,,,,,
462101,001,2022-11-13_23h38.54.634,Info_measure_main_exp,2022.2.2,Win32,146.713615,,,,,,,,,,,,,,,,,,masks/mask_003.jpg,,,,,,,,,,,,,,,,,,,,,,,,,,,,,,,,,,,,,,,,,,,,,,,,0,2,2,2,1,,,,,,,,,,,,,,,,,,,,,,,,,,,,,,,,,,,,,,,,,
462101,001,2022-11-13_23h38.54.634,Info_measure_main_exp,2022.2.2,Win32,146.713615,,,,,,,,,,,,,,,,,,masks/mask_001.jpg,,,,,,,,,,,,,,,,,,,,,,,,,,,,,,,,,,,,,,,,,,,,,,,,0,3,3,0,1,,,,,,,,,,,,,,,,,,,,,,,,,,,,,,,,,,,,,,,,,
462101,001,2022-11-13_23h38.54.634,Info_measure_main_exp,2022.2.2,Win32,146.713615,,,,,,,,,,,,,,,,,,masks/mask_005.jpg,,,,,,,,,,,,,,,,,,,,,,,,,,,,,,,,,,,,,,,,,,,,,,,,0,4,4,4,1,,,,,,,,,,,,,,,,,,,,,,,,,,,,,,,,,,,,,,,,,
462101,001,2022-11-13_23h38.54.634,Info_measure_main_exp,2022.2.2,Win32,146.713615,,,,,,,,,,,,,,,,,,,,,,,,,,,,,,7,0.7284,1,,,,,,,,,,,,0,131,5,5,2154,1950,absent_patch/patch0002154.jpg,absent_patch/patch0001950.jpg,,,,,,,,,,,,,,,,,,,,0.037037037,0.110185164,1,0,0,response1disk,7,-0.001851824,-0.002777771,1,0,0,center_square,0,6,6,96,1,,,,,,,,,,,,,,,,,,,,,,,
462101,001,2022-11-13_23h38.54.634,Info_measure_main_exp,2022.2.2,Win32,146.713615,,,,,,,,,,,,,,,,,,masks/mask_002.jpg,,,,,,,,,,,,,,,,,,,,,,,,,,,,,,,,,,,,,,,,,,,0,0,0,1,1,,,,,,,,,,,,,,,,,,,,,,,,,,,,,,,,,,,,,,,,,,,,,,
462101,001,2022-11-13_23h38.54.634,Info_measure_main_exp,2022.2.2,Win32,146.713615,,,,,,,,,,,,,,,,,,masks/mask_005.jpg,,,,,,,,,,,,,,,,,,,,,,,,,,,,,,,,,,,,,,,,,,,0,1,1,4,1,,,,,,,,,,,,,,,,,,,,,,,,,,,,,,,,,,,,,,,,,,,,,,
462101,001,2022-11-13_23h38.54.634,Info_measure_main_exp,2022.2.2,Win32,146.713615,,,,,,,,,,,,,,,,,,masks/mask_001.jpg,,,,,,,,,,,,,,,,,,,,,,,,,,,,,,,,,,,,,,,,,,,0,2,2,0,1,,,,,,,,,,,,,,,,,,,,,,,,,,,,,,,,,,,,,,,,,,,,,,
462101,001,2022-11-13_23h38.54.634,Info_measure_main_exp,2022.2.2,Win32,146.713615,,,,,,,,,,,,,,,,,,masks/mask_003.jpg,,,,,,,,,,,,,,,,,,,,,,,,,,,,,,,,,,,,,,,,,,,0,3,3,2,1,,,,,,,,,,,,,,,,,,,,,,,,,,,,,,,,,,,,,,,,,,,,,,
462101,001,2022-11-13_23h38.54.634,Info_measure_main_exp,2022.2.2,Win32,146.713615,,,,,,,,,,,,,,,,,,masks/mask_004.jpg,,,,,,,,,,,,,,,,,,,,,,,,,,,,,,,,,,,,,,,,,,,0,4,4,3,1,,,,,,,,,,,,,,,,,,,,,,,,,,,,,,,,,,,,,,,,,,,,,,
462101,001,2022-11-13_23h38.54.634,Info_measure_main_exp,2022.2.2,Win32,146.713615,,,,,,,,,,,,,,,,,,masks/mask_001.jpg,,,,,,,,,,,,,,,,,,,,,,,,,,,,,,,,,,,,,,,,,,,,,,,,0,0,0,0,1,,,,,,,,,,,,,,,,,,,,,,,,,,,,,,,,,,,,,,,,,
462101,001,2022-11-13_23h38.54.634,Info_measure_main_exp,2022.2.2,Win32,146.713615,,,,,,,,,,,,,,,,,,masks/mask_003.jpg,,,,,,,,,,,,,,,,,,,,,,,,,,,,,,,,,,,,,,,,,,,,,,,,0,1,1,2,1,,,,,,,,,,,,,,,,,,,,,,,,,,,,,,,,,,,,,,,,,
462101,001,2022-11-13_23h38.54.634,Info_measure_main_exp,2022.2.2,Win32,146.713615,,,,,,,,,,,,,,,,,,masks/mask_005.jpg,,,,,,,,,,,,,,,,,,,,,,,,,,,,,,,,,,,,,,,,,,,,,,,,0,2,2,4,1,,,,,,,,,,,,,,,,,,,,,,,,,,,,,,,,,,,,,,,,,
462101,001,2022-11-13_23h38.54.634,Info_measure_main_exp,2022.2.2,Win32,146.713615,,,,,,,,,,,,,,,,,,masks/mask_004.jpg,,,,,,,,,,,,,,,,,,,,,,,,,,,,,,,,,,,,,,,,,,,,,,,,0,3,3,3,1,,,,,,,,,,,,,,,,,,,,,,,,,,,,,,,,,,,,,,,,,
462101,001,2022-11-13_23h38.54.634,Info_measure_main_exp,2022.2.2,Win32,146.713615,,,,,,,,,,,,,,,,,,masks/mask_002.jpg,,,,,,,,,,,,,,,,,,,,,,,,,,,,,,,,,,,,,,,,,,,,,,,,0,4,4,1,1,,,,,,,,,,,,,,,,,,,,,,,,,,,,,,,,,,,,,,,,,
462101,001,2022-11-13_23h38.54.634,Info_measure_main_exp,2022.2.2,Win32,146.713615,,,,,,,,,,,,,,,,,,,,,,,,,,,,,,7,0.9382,1,,,,,,,,,,,,1,131,5,5,2250,1,absent_patch/patch0002250.jpg,present_patch/cong_131_5_a.jpg,,,,,,,,,,,,,,,,,,,,0.05277782,0.121296282,1,0,0,response1disk,8,0,0.010185171,1,0,0,center_square,0,7,7,5,1,,,,,,,,,,,,,,,,,,,,,,,
462101,001,2022-11-13_23h38.54.634,Info_measure_main_exp,2022.2.2,Win32,146.713615,,,,,,,,,,,,,,,,,,masks/mask_005.jpg,,,,,,,,,,,,,,,,,,,,,,,,,,,,,,,,,,,,,,,,,,,0,0,0,4,1,,,,,,,,,,,,,,,,,,,,,,,,,,,,,,,,,,,,,,,,,,,,,,
462101,001,2022-11-13_23h38.54.634,Info_measure_main_exp,2022.2.2,Win32,146.713615,,,,,,,,,,,,,,,,,,masks/mask_001.jpg,,,,,,,,,,,,,,,,,,,,,,,,,,,,,,,,,,,,,,,,,,,0,1,1,0,1,,,,,,,,,,,,,,,,,,,,,,,,,,,,,,,,,,,,,,,,,,,,,,
462101,001,2022-11-13_23h38.54.634,Info_measure_main_exp,2022.2.2,Win32,146.713615,,,,,,,,,,,,,,,,,,masks/mask_002.jpg,,,,,,,,,,,,,,,,,,,,,,,,,,,,,,,,,,,,,,,,,,,0,2,2,1,1,,,,,,,,,,,,,,,,,,,,,,,,,,,,,,,,,,,,,,,,,,,,,,
462101,001,2022-11-13_23h38.54.634,Info_measure_main_exp,2022.2.2,Win32,146.713615,,,,,,,,,,,,,,,,,,masks/mask_004.jpg,,,,,,,,,,,,,,,,,,,,,,,,,,,,,,,,,,,,,,,,,,,0,3,3,3,1,,,,,,,,,,,,,,,,,,,,,,,,,,,,,,,,,,,,,,,,,,,,,,
462101,001,2022-11-13_23h38.54.634,Info_measure_main_exp,2022.2.2,Win32,146.713615,,,,,,,,,,,,,,,,,,masks/mask_003.jpg,,,,,,,,,,,,,,,,,,,,,,,,,,,,,,,,,,,,,,,,,,,0,4,4,2,1,,,,,,,,,,,,,,,,,,,,,,,,,,,,,,,,,,,,,,,,,,,,,,
462101,001,2022-11-13_23h38.54.634,Info_measure_main_exp,2022.2.2,Win32,146.713615,,,,,,,,,,,,,,,,,,masks/mask_003.jpg,,,,,,,,,,,,,,,,,,,,,,,,,,,,,,,,,,,,,,,,,,,,,,,,0,0,0,2,1,,,,,,,,,,,,,,,,,,,,,,,,,,,,,,,,,,,,,,,,,
462101,001,2022-11-13_23h38.54.634,Info_measure_main_exp,2022.2.2,Win32,146.713615,,,,,,,,,,,,,,,,,,masks/mask_002.jpg,,,,,,,,,,,,,,,,,,,,,,,,,,,,,,,,,,,,,,,,,,,,,,,,0,1,1,1,1,,,,,,,,,,,,,,,,,,,,,,,,,,,,,,,,,,,,,,,,,
462101,001,2022-11-13_23h38.54.634,Info_measure_main_exp,2022.2.2,Win32,146.713615,,,,,,,,,,,,,,,,,,masks/mask_004.jpg,,,,,,,,,,,,,,,,,,,,,,,,,,,,,,,,,,,,,,,,,,,,,,,,0,2,2,3,1,,,,,,,,,,,,,,,,,,,,,,,,,,,,,,,,,,,,,,,,,
462101,001,2022-11-13_23h38.54.634,Info_measure_main_exp,2022.2.2,Win32,146.713615,,,,,,,,,,,,,,,,,,masks/mask_001.jpg,,,,,,,,,,,,,,,,,,,,,,,,,,,,,,,,,,,,,,,,,,,,,,,,0,3,3,0,1,,,,,,,,,,,,,,,,,,,,,,,,,,,,,,,,,,,,,,,,,
462101,001,2022-11-13_23h38.54.634,Info_measure_main_exp,2022.2.2,Win32,146.713615,,,,,,,,,,,,,,,,,,masks/mask_005.jpg,,,,,,,,,,,,,,,,,,,,,,,,,,,,,,,,,,,,,,,,,,,,,,,,0,4,4,4,1,,,,,,,,,,,,,,,,,,,,,,,,,,,,,,,,,,,,,,,,,
462101,001,2022-11-13_23h38.54.634,Info_measure_main_exp,2022.2.2,Win32,146.713615,,,,,,,,,,,,,,,,,,,,,,,,,,,,,,6,1.043,1,,,,,,,,,,,,1,131,5,5,1,2142,present_patch/cong_131_5_a.jpg,absent_patch/patch0002142.jpg,,,,,,,,,,,,,,,,,,,,0.112963005,0.03148146,1,0,0,response1disk,9,-0.000925912,-0.00462963,1,0,0,center_square,0,8,8,80,1,,,,,,,,,,,,,,,,,,,,,,,
462101,001,2022-11-13_23h38.54.634,Info_measure_main_exp,2022.2.2,Win32,146.713615,,,,,,,,,,,,,,,,,,masks/mask_002.jpg,,,,,,,,,,,,,,,,,,,,,,,,,,,,,,,,,,,,,,,,,,,0,0,0,1,1,,,,,,,,,,,,,,,,,,,,,,,,,,,,,,,,,,,,,,,,,,,,,,
462101,001,2022-11-13_23h38.54.634,Info_measure_main_exp,2022.2.2,Win32,146.713615,,,,,,,,,,,,,,,,,,masks/mask_003.jpg,,,,,,,,,,,,,,,,,,,,,,,,,,,,,,,,,,,,,,,,,,,0,1,1,2,1,,,,,,,,,,,,,,,,,,,,,,,,,,,,,,,,,,,,,,,,,,,,,,
462101,001,2022-11-13_23h38.54.634,Info_measure_main_exp,2022.2.2,Win32,146.713615,,,,,,,,,,,,,,,,,,masks/mask_005.jpg,,,,,,,,,,,,,,,,,,,,,,,,,,,,,,,,,,,,,,,,,,,0,2,2,4,1,,,,,,,,,,,,,,,,,,,,,,,,,,,,,,,,,,,,,,,,,,,,,,
462101,001,2022-11-13_23h38.54.634,Info_measure_main_exp,2022.2.2,Win32,146.713615,,,,,,,,,,,,,,,,,,masks/mask_001.jpg,,,,,,,,,,,,,,,,,,,,,,,,,,,,,,,,,,,,,,,,,,,0,3,3,0,1,,,,,,,,,,,,,,,,,,,,,,,,,,,,,,,,,,,,,,,,,,,,,,
462101,001,2022-11-13_23h38.54.634,Info_measure_main_exp,2022.2.2,Win32,146.713615,,,,,,,,,,,,,,,,,,masks/mask_004.jpg,,,,,,,,,,,,,,,,,,,,,,,,,,,,,,,,,,,,,,,,,,,0,4,4,3,1,,,,,,,,,,,,,,,,,,,,,,,,,,,,,,,,,,,,,,,,,,,,,,
462101,001,2022-11-13_23h38.54.634,Info_measure_main_exp,2022.2.2,Win32,146.713615,,,,,,,,,,,,,,,,,,masks/mask_005.jpg,,,,,,,,,,,,,,,,,,,,,,,,,,,,,,,,,,,,,,,,,,,,,,,,0,0,0,4,1,,,,,,,,,,,,,,,,,,,,,,,,,,,,,,,,,,,,,,,,,
462101,001,2022-11-13_23h38.54.634,Info_measure_main_exp,2022.2.2,Win32,146.713615,,,,,,,,,,,,,,,,,,masks/mask_004.jpg,,,,,,,,,,,,,,,,,,,,,,,,,,,,,,,,,,,,,,,,,,,,,,,,0,1,1,3,1,,,,,,,,,,,,,,,,,,,,,,,,,,,,,,,,,,,,,,,,,
462101,001,2022-11-13_23h38.54.634,Info_measure_main_exp,2022.2.2,Win32,146.713615,,,,,,,,,,,,,,,,,,masks/mask_003.jpg,,,,,,,,,,,,,,,,,,,,,,,,,,,,,,,,,,,,,,,,,,,,,,,,0,2,2,2,1,,,,,,,,,,,,,,,,,,,,,,,,,,,,,,,,,,,,,,,,,
462101,001,2022-11-13_23h38.54.634,Info_measure_main_exp,2022.2.2,Win32,146.713615,,,,,,,,,,,,,,,,,,masks/mask_001.jpg,,,,,,,,,,,,,,,,,,,,,,,,,,,,,,,,,,,,,,,,,,,,,,,,0,3,3,0,1,,,,,,,,,,,,,,,,,,,,,,,,,,,,,,,,,,,,,,,,,
462101,001,2022-11-13_23h38.54.634,Info_measure_main_exp,2022.2.2,Win32,146.713615,,,,,,,,,,,,,,,,,,masks/mask_002.jpg,,,,,,,,,,,,,,,,,,,,,,,,,,,,,,,,,,,,,,,,,,,,,,,,0,4,4,1,1,,,,,,,,,,,,,,,,,,,,,,,,,,,,,,,,,,,,,,,,,
462101,001,2022-11-13_23h38.54.634,Info_measure_main_exp,2022.2.2,Win32,146.713615,,,,,,,,,,,,,,,,,,,,,,,,,,,,,,7,1.3203,1,,,,,,,,,,,,0,131,5,5,2154,2214,absent_patch/patch0002154.jpg,absent_patch/patch0002214.jpg,,,,,,,,,,,,,,,,,,,,0.080555598,0.150925919,1,0,0,response1disk,10,0.008333347,0.0074074,1,0,0,center_square,0,9,9,67,1,,,,,,,,,,,,,,,,,,,,,,,
462101,001,2022-11-13_23h38.54.634,Info_measure_main_exp,2022.2.2,Win32,146.713615,,,,,,,,,,,,,,,,,,masks/mask_002.jpg,,,,,,,,,,,,,,,,,,,,,,,,,,,,,,,,,,,,,,,,,,,0,0,0,1,1,,,,,,,,,,,,,,,,,,,,,,,,,,,,,,,,,,,,,,,,,,,,,,
462101,001,2022-11-13_23h38.54.634,Info_measure_main_exp,2022.2.2,Win32,146.713615,,,,,,,,,,,,,,,,,,masks/mask_001.jpg,,,,,,,,,,,,,,,,,,,,,,,,,,,,,,,,,,,,,,,,,,,0,1,1,0,1,,,,,,,,,,,,,,,,,,,,,,,,,,,,,,,,,,,,,,,,,,,,,,
462101,001,2022-11-13_23h38.54.634,Info_measure_main_exp,2022.2.2,Win32,146.713615,,,,,,,,,,,,,,,,,,masks/mask_004.jpg,,,,,,,,,,,,,,,,,,,,,,,,,,,,,,,,,,,,,,,,,,,0,2,2,3,1,,,,,,,,,,,,,,,,,,,,,,,,,,,,,,,,,,,,,,,,,,,,,,
462101,001,2022-11-13_23h38.54.634,Info_measure_main_exp,2022.2.2,Win32,146.713615,,,,,,,,,,,,,,,,,,masks/mask_005.jpg,,,,,,,,,,,,,,,,,,,,,,,,,,,,,,,,,,,,,,,,,,,0,3,3,4,1,,,,,,,,,,,,,,,,,,,,,,,,,,,,,,,,,,,,,,,,,,,,,,
462101,001,2022-11-13_23h38.54.634,Info_measure_main_exp,2022.2.2,Win32,146.713615,,,,,,,,,,,,,,,,,,masks/mask_003.jpg,,,,,,,,,,,,,,,,,,,,,,,,,,,,,,,,,,,,,,,,,,,0,4,4,2,1,,,,,,,,,,,,,,,,,,,,,,,,,,,,,,,,,,,,,,,,,,,,,,
462101,001,2022-11-13_23h38.54.634,Info_measure_main_exp,2022.2.2,Win32,146.713615,,,,,,,,,,,,,,,,,,masks/mask_003.jpg,,,,,,,,,,,,,,,,,,,,,,,,,,,,,,,,,,,,,,,,,,,,,,,,0,0,0,2,1,,,,,,,,,,,,,,,,,,,,,,,,,,,,,,,,,,,,,,,,,
462101,001,2022-11-13_23h38.54.634,Info_measure_main_exp,2022.2.2,Win32,146.713615,,,,,,,,,,,,,,,,,,masks/mask_001.jpg,,,,,,,,,,,,,,,,,,,,,,,,,,,,,,,,,,,,,,,,,,,,,,,,0,1,1,0,1,,,,,,,,,,,,,,,,,,,,,,,,,,,,,,,,,,,,,,,,,
462101,001,2022-11-13_23h38.54.634,Info_measure_main_exp,2022.2.2,Win32,146.713615,,,,,,,,,,,,,,,,,,masks/mask_004.jpg,,,,,,,,,,,,,,,,,,,,,,,,,,,,,,,,,,,,,,,,,,,,,,,,0,2,2,3,1,,,,,,,,,,,,,,,,,,,,,,,,,,,,,,,,,,,,,,,,,
462101,001,2022-11-13_23h38.54.634,Info_measure_main_exp,2022.2.2,Win32,146.713615,,,,,,,,,,,,,,,,,,masks/mask_002.jpg,,,,,,,,,,,,,,,,,,,,,,,,,,,,,,,,,,,,,,,,,,,,,,,,0,3,3,1,1,,,,,,,,,,,,,,,,,,,,,,,,,,,,,,,,,,,,,,,,,
462101,001,2022-11-13_23h38.54.634,Info_measure_main_exp,2022.2.2,Win32,146.713615,,,,,,,,,,,,,,,,,,masks/mask_005.jpg,,,,,,,,,,,,,,,,,,,,,,,,,,,,,,,,,,,,,,,,,,,,,,,,0,4,4,4,1,,,,,,,,,,,,,,,,,,,,,,,,,,,,,,,,,,,,,,,,,
462101,001,2022-11-13_23h38.54.634,Info_measure_main_exp,2022.2.2,Win32,146.713615,,,,,,,,,,,,,,,,,,,,,,,,,,,,,,4,1.5523,1,,,,,,,,,,,,0,131,5,5,2274,2238,absent_patch/patch0002274.jpg,absent_patch/patch0002238.jpg,,,,,,,,,,,,,,,,,,,,0.061111097,-0.102777764,1,0,0,response3disk,11,0,0.006481489,1,0,0,center_square,0,10,10,91,1,,,,,,,,,,,,,,,,,,,,,,,
462101,001,2022-11-13_23h38.54.634,Info_measure_main_exp,2022.2.2,Win32,146.713615,,,,,,,,,,,,,,,,,,masks/mask_002.jpg,,,,,,,,,,,,,,,,,,,,,,,,,,,,,,,,,,,,,,,,,,,0,0,0,1,1,,,,,,,,,,,,,,,,,,,,,,,,,,,,,,,,,,,,,,,,,,,,,,
462101,001,2022-11-13_23h38.54.634,Info_measure_main_exp,2022.2.2,Win32,146.713615,,,,,,,,,,,,,,,,,,masks/mask_005.jpg,,,,,,,,,,,,,,,,,,,,,,,,,,,,,,,,,,,,,,,,,,,0,1,1,4,1,,,,,,,,,,,,,,,,,,,,,,,,,,,,,,,,,,,,,,,,,,,,,,
462101,001,2022-11-13_23h38.54.634,Info_measure_main_exp,2022.2.2,Win32,146.713615,,,,,,,,,,,,,,,,,,masks/mask_001.jpg,,,,,,,,,,,,,,,,,,,,,,,,,,,,,,,,,,,,,,,,,,,0,2,2,0,1,,,,,,,,,,,,,,,,,,,,,,,,,,,,,,,,,,,,,,,,,,,,,,
462101,001,2022-11-13_23h38.54.634,Info_measure_main_exp,2022.2.2,Win32,146.713615,,,,,,,,,,,,,,,,,,masks/mask_004.jpg,,,,,,,,,,,,,,,,,,,,,,,,,,,,,,,,,,,,,,,,,,,0,3,3,3,1,,,,,,,,,,,,,,,,,,,,,,,,,,,,,,,,,,,,,,,,,,,,,,
462101,001,2022-11-13_23h38.54.634,Info_measure_main_exp,2022.2.2,Win32,146.713615,,,,,,,,,,,,,,,,,,masks/mask_003.jpg,,,,,,,,,,,,,,,,,,,,,,,,,,,,,,,,,,,,,,,,,,,0,4,4,2,1,,,,,,,,,,,,,,,,,,,,,,,,,,,,,,,,,,,,,,,,,,,,,,
462101,001,2022-11-13_23h38.54.634,Info_measure_main_exp,2022.2.2,Win32,146.713615,,,,,,,,,,,,,,,,,,masks/mask_004.jpg,,,,,,,,,,,,,,,,,,,,,,,,,,,,,,,,,,,,,,,,,,,,,,,,0,0,0,3,1,,,,,,,,,,,,,,,,,,,,,,,,,,,,,,,,,,,,,,,,,
462101,001,2022-11-13_23h38.54.634,Info_measure_main_exp,2022.2.2,Win32,146.713615,,,,,,,,,,,,,,,,,,masks/mask_001.jpg,,,,,,,,,,,,,,,,,,,,,,,,,,,,,,,,,,,,,,,,,,,,,,,,0,1,1,0,1,,,,,,,,,,,,,,,,,,,,,,,,,,,,,,,,,,,,,,,,,
462101,001,2022-11-13_23h38.54.634,Info_measure_main_exp,2022.2.2,Win32,146.713615,,,,,,,,,,,,,,,,,,masks/mask_002.jpg,,,,,,,,,,,,,,,,,,,,,,,,,,,,,,,,,,,,,,,,,,,,,,,,0,2,2,1,1,,,,,,,,,,,,,,,,,,,,,,,,,,,,,,,,,,,,,,,,,
462101,001,2022-11-13_23h38.54.634,Info_measure_main_exp,2022.2.2,Win32,146.713615,,,,,,,,,,,,,,,,,,masks/mask_005.jpg,,,,,,,,,,,,,,,,,,,,,,,,,,,,,,,,,,,,,,,,,,,,,,,,0,3,3,4,1,,,,,,,,,,,,,,,,,,,,,,,,,,,,,,,,,,,,,,,,,
462101,001,2022-11-13_23h38.54.634,Info_measure_main_exp,2022.2.2,Win32,146.713615,,,,,,,,,,,,,,,,,,masks/mask_003.jpg,,,,,,,,,,,,,,,,,,,,,,,,,,,,,,,,,,,,,,,,,,,,,,,,0,4,4,2,1,,,,,,,,,,,,,,,,,,,,,,,,,,,,,,,,,,,,,,,,,
462101,001,2022-11-13_23h38.54.634,Info_measure_main_exp,2022.2.2,Win32,146.713615,,,,,,,,,,,,,,,,,,,,,,,,,,,,,,6,1.9039,1,,,,,,,,,,,,0,131,5,5,2250,2298,absent_patch/patch0002250.jpg,absent_patch/patch0002298.jpg,,,,,,,,,,,,,,,,,,,,0.14444443,0.038888896,1,0,0,response1disk,12,0.005555541,0.005555541,1,0,0,center_square,0,11,11,59,1,,,,,,,,,,,,,,,,,,,,,,,
462101,001,2022-11-13_23h38.54.634,Info_measure_main_exp,2022.2.2,Win32,146.713615,,,,,,,,,,,,,,,,,,masks/mask_004.jpg,,,,,,,,,,,,,,,,,,,,,,,,,,,,,,,,,,,,,,,,,,,0,0,0,3,1,,,,,,,,,,,,,,,,,,,,,,,,,,,,,,,,,,,,,,,,,,,,,,
462101,001,2022-11-13_23h38.54.634,Info_measure_main_exp,2022.2.2,Win32,146.713615,,,,,,,,,,,,,,,,,,masks/mask_003.jpg,,,,,,,,,,,,,,,,,,,,,,,,,,,,,,,,,,,,,,,,,,,0,1,1,2,1,,,,,,,,,,,,,,,,,,,,,,,,,,,,,,,,,,,,,,,,,,,,,,
462101,001,2022-11-13_23h38.54.634,Info_measure_main_exp,2022.2.2,Win32,146.713615,,,,,,,,,,,,,,,,,,masks/mask_001.jpg,,,,,,,,,,,,,,,,,,,,,,,,,,,,,,,,,,,,,,,,,,,0,2,2,0,1,,,,,,,,,,,,,,,,,,,,,,,,,,,,,,,,,,,,,,,,,,,,,,
462101,001,2022-11-13_23h38.54.634,Info_measure_main_exp,2022.2.2,Win32,146.713615,,,,,,,,,,,,,,,,,,masks/mask_002.jpg,,,,,,,,,,,,,,,,,,,,,,,,,,,,,,,,,,,,,,,,,,,0,3,3,1,1,,,,,,,,,,,,,,,,,,,,,,,,,,,,,,,,,,,,,,,,,,,,,,
462101,001,2022-11-13_23h38.54.634,Info_measure_main_exp,2022.2.2,Win32,146.713615,,,,,,,,,,,,,,,,,,masks/mask_005.jpg,,,,,,,,,,,,,,,,,,,,,,,,,,,,,,,,,,,,,,,,,,,0,4,4,4,1,,,,,,,,,,,,,,,,,,,,,,,,,,,,,,,,,,,,,,,,,,,,,,
462101,001,2022-11-13_23h38.54.634,Info_measure_main_exp,2022.2.2,Win32,146.713615,,,,,,,,,,,,,,,,,,masks/mask_002.jpg,,,,,,,,,,,,,,,,,,,,,,,,,,,,,,,,,,,,,,,,,,,,,,,,0,0,0,1,1,,,,,,,,,,,,,,,,,,,,,,,,,,,,,,,,,,,,,,,,,
462101,001,2022-11-13_23h38.54.634,Info_measure_main_exp,2022.2.2,Win32,146.713615,,,,,,,,,,,,,,,,,,masks/mask_005.jpg,,,,,,,,,,,,,,,,,,,,,,,,,,,,,,,,,,,,,,,,,,,,,,,,0,1,1,4,1,,,,,,,,,,,,,,,,,,,,,,,,,,,,,,,,,,,,,,,,,
462101,001,2022-11-13_23h38.54.634,Info_measure_main_exp,2022.2.2,Win32,146.713615,,,,,,,,,,,,,,,,,,masks/mask_004.jpg,,,,,,,,,,,,,,,,,,,,,,,,,,,,,,,,,,,,,,,,,,,,,,,,0,2,2,3,1,,,,,,,,,,,,,,,,,,,,,,,,,,,,,,,,,,,,,,,,,
462101,001,2022-11-13_23h38.54.634,Info_measure_main_exp,2022.2.2,Win32,146.713615,,,,,,,,,,,,,,,,,,masks/mask_001.jpg,,,,,,,,,,,,,,,,,,,,,,,,,,,,,,,,,,,,,,,,,,,,,,,,0,3,3,0,1,,,,,,,,,,,,,,,,,,,,,,,,,,,,,,,,,,,,,,,,,
462101,001,2022-11-13_23h38.54.634,Info_measure_main_exp,2022.2.2,Win32,146.713615,,,,,,,,,,,,,,,,,,masks/mask_003.jpg,,,,,,,,,,,,,,,,,,,,,,,,,,,,,,,,,,,,,,,,,,,,,,,,0,4,4,2,1,,,,,,,,,,,,,,,,,,,,,,,,,,,,,,,,,,,,,,,,,
462101,001,2022-11-13_23h38.54.634,Info_measure_main_exp,2022.2.2,Win32,146.713615,,,,,,,,,,,,,,,,,,,,,,,,,,,,,,6,0.9988,1,,,,,,,,,,,,0,131,5,5,1986,2154,absent_patch/patch0001986.jpg,absent_patch/patch0002154.jpg,,,,,,,,,,,,,,,,,,,,0.111111111,0.03148146,1,0,0,response1disk,13,-0.001851824,0,1,0,0,center_square,0,12,12,36,1,,,,,,,,,,,,,,,,,,,,,,,
462101,001,2022-11-13_23h38.54.634,Info_measure_main_exp,2022.2.2,Win32,146.713615,,,,,,,,,,,,,,,,,,masks/mask_005.jpg,,,,,,,,,,,,,,,,,,,,,,,,,,,,,,,,,,,,,,,,,,,0,0,0,4,1,,,,,,,,,,,,,,,,,,,,,,,,,,,,,,,,,,,,,,,,,,,,,,
462101,001,2022-11-13_23h38.54.634,Info_measure_main_exp,2022.2.2,Win32,146.713615,,,,,,,,,,,,,,,,,,masks/mask_003.jpg,,,,,,,,,,,,,,,,,,,,,,,,,,,,,,,,,,,,,,,,,,,0,1,1,2,1,,,,,,,,,,,,,,,,,,,,,,,,,,,,,,,,,,,,,,,,,,,,,,
462101,001,2022-11-13_23h38.54.634,Info_measure_main_exp,2022.2.2,Win32,146.713615,,,,,,,,,,,,,,,,,,masks/mask_004.jpg,,,,,,,,,,,,,,,,,,,,,,,,,,,,,,,,,,,,,,,,,,,0,2,2,3,1,,,,,,,,,,,,,,,,,,,,,,,,,,,,,,,,,,,,,,,,,,,,,,
462101,001,2022-11-13_23h38.54.634,Info_measure_main_exp,2022.2.2,Win32,146.713615,,,,,,,,,,,,,,,,,,masks/mask_002.jpg,,,,,,,,,,,,,,,,,,,,,,,,,,,,,,,,,,,,,,,,,,,0,3,3,1,1,,,,,,,,,,,,,,,,,,,,,,,,,,,,,,,,,,,,,,,,,,,,,,
462101,001,2022-11-13_23h38.54.634,Info_measure_main_exp,2022.2.2,Win32,146.713615,,,,,,,,,,,,,,,,,,masks/mask_001.jpg,,,,,,,,,,,,,,,,,,,,,,,,,,,,,,,,,,,,,,,,,,,0,4,4,0,1,,,,,,,,,,,,,,,,,,,,,,,,,,,,,,,,,,,,,,,,,,,,,,
462101,001,2022-11-13_23h38.54.634,Info_measure_main_exp,2022.2.2,Win32,146.713615,,,,,,,,,,,,,,,,,,masks/mask_001.jpg,,,,,,,,,,,,,,,,,,,,,,,,,,,,,,,,,,,,,,,,,,,,,,,,0,0,0,0,1,,,,,,,,,,,,,,,,,,,,,,,,,,,,,,,,,,,,,,,,,
462101,001,2022-11-13_23h38.54.634,Info_measure_main_exp,2022.2.2,Win32,146.713615,,,,,,,,,,,,,,,,,,masks/mask_003.jpg,,,,,,,,,,,,,,,,,,,,,,,,,,,,,,,,,,,,,,,,,,,,,,,,0,1,1,2,1,,,,,,,,,,,,,,,,,,,,,,,,,,,,,,,,,,,,,,,,,
462101,001,2022-11-13_23h38.54.634,Info_measure_main_exp,2022.2.2,Win32,146.713615,,,,,,,,,,,,,,,,,,masks/mask_004.jpg,,,,,,,,,,,,,,,,,,,,,,,,,,,,,,,,,,,,,,,,,,,,,,,,0,2,2,3,1,,,,,,,,,,,,,,,,,,,,,,,,,,,,,,,,,,,,,,,,,
462101,001,2022-11-13_23h38.54.634,Info_measure_main_exp,2022.2.2,Win32,146.713615,,,,,,,,,,,,,,,,,,masks/mask_002.jpg,,,,,,,,,,,,,,,,,,,,,,,,,,,,,,,,,,,,,,,,,,,,,,,,0,3,3,1,1,,,,,,,,,,,,,,,,,,,,,,,,,,,,,,,,,,,,,,,,,
462101,001,2022-11-13_23h38.54.634,Info_measure_main_exp,2022.2.2,Win32,146.713615,,,,,,,,,,,,,,,,,,masks/mask_005.jpg,,,,,,,,,,,,,,,,,,,,,,,,,,,,,,,,,,,,,,,,,,,,,,,,0,4,4,4,1,,,,,,,,,,,,,,,,,,,,,,,,,,,,,,,,,,,,,,,,,
462101,001,2022-11-13_23h38.54.634,Info_measure_main_exp,2022.2.2,Win32,146.713615,,,,,,,,,,,,,,,,,,,,,,,,,,,,,,5,2.1537,1,,,,,,,,,,,,0,131,5,5,1950,2178,absent_patch/patch0001950.jpg,absent_patch/patch0002178.jpg,,,,,,,,,,,,,,,,,,,,0.08148151,-0.01203703,1,0,0,response3disk,14,0.003703718,0.005555541,1,0,0,center_square,0,13,13,61,1,,,,,,,,,,,,,,,,,,,,,,,
462101,001,2022-11-13_23h38.54.634,Info_measure_main_exp,2022.2.2,Win32,146.713615,,,,,,,,,,,,,,,,,,masks/mask_001.jpg,,,,,,,,,,,,,,,,,,,,,,,,,,,,,,,,,,,,,,,,,,,0,0,0,0,1,,,,,,,,,,,,,,,,,,,,,,,,,,,,,,,,,,,,,,,,,,,,,,
462101,001,2022-11-13_23h38.54.634,Info_measure_main_exp,2022.2.2,Win32,146.713615,,,,,,,,,,,,,,,,,,masks/mask_005.jpg,,,,,,,,,,,,,,,,,,,,,,,,,,,,,,,,,,,,,,,,,,,0,1,1,4,1,,,,,,,,,,,,,,,,,,,,,,,,,,,,,,,,,,,,,,,,,,,,,,
462101,001,2022-11-13_23h38.54.634,Info_measure_main_exp,2022.2.2,Win32,146.713615,,,,,,,,,,,,,,,,,,masks/mask_002.jpg,,,,,,,,,,,,,,,,,,,,,,,,,,,,,,,,,,,,,,,,,,,0,2,2,1,1,,,,,,,,,,,,,,,,,,,,,,,,,,,,,,,,,,,,,,,,,,,,,,
462101,001,2022-11-13_23h38.54.634,Info_measure_main_exp,2022.2.2,Win32,146.713615,,,,,,,,,,,,,,,,,,masks/mask_004.jpg,,,,,,,,,,,,,,,,,,,,,,,,,,,,,,,,,,,,,,,,,,,0,3,3,3,1,,,,,,,,,,,,,,,,,,,,,,,,,,,,,,,,,,,,,,,,,,,,,,
462101,001,2022-11-13_23h38.54.634,Info_measure_main_exp,2022.2.2,Win32,146.713615,,,,,,,,,,,,,,,,,,masks/mask_003.jpg,,,,,,,,,,,,,,,,,,,,,,,,,,,,,,,,,,,,,,,,,,,0,4,4,2,1,,,,,,,,,,,,,,,,,,,,,,,,,,,,,,,,,,,,,,,,,,,,,,
462101,001,2022-11-13_23h38.54.634,Info_measure_main_exp,2022.2.2,Win32,146.713615,,,,,,,,,,,,,,,,,,masks/mask_005.jpg,,,,,,,,,,,,,,,,,,,,,,,,,,,,,,,,,,,,,,,,,,,,,,,,0,0,0,4,1,,,,,,,,,,,,,,,,,,,,,,,,,,,,,,,,,,,,,,,,,
462101,001,2022-11-13_23h38.54.634,Info_measure_main_exp,2022.2.2,Win32,146.713615,,,,,,,,,,,,,,,,,,masks/mask_002.jpg,,,,,,,,,,,,,,,,,,,,,,,,,,,,,,,,,,,,,,,,,,,,,,,,0,1,1,1,1,,,,,,,,,,,,,,,,,,,,,,,,,,,,,,,,,,,,,,,,,
462101,001,2022-11-13_23h38.54.634,Info_measure_main_exp,2022.2.2,Win32,146.713615,,,,,,,,,,,,,,,,,,masks/mask_004.jpg,,,,,,,,,,,,,,,,,,,,,,,,,,,,,,,,,,,,,,,,,,,,,,,,0,2,2,3,1,,,,,,,,,,,,,,,,,,,,,,,,,,,,,,,,,,,,,,,,,
462101,001,2022-11-13_23h38.54.634,Info_measure_main_exp,2022.2.2,Win32,146.713615,,,,,,,,,,,,,,,,,,masks/mask_003.jpg,,,,,,,,,,,,,,,,,,,,,,,,,,,,,,,,,,,,,,,,,,,,,,,,0,3,3,2,1,,,,,,,,,,,,,,,,,,,,,,,,,,,,,,,,,,,,,,,,,
462101,001,2022-11-13_23h38.54.634,Info_measure_main_exp,2022.2.2,Win32,146.713615,,,,,,,,,,,,,,,,,,masks/mask_001.jpg,,,,,,,,,,,,,,,,,,,,,,,,,,,,,,,,,,,,,,,,,,,,,,,,0,4,4,0,1,,,,,,,,,,,,,,,,,,,,,,,,,,,,,,,,,,,,,,,,,
462101,001,2022-11-13_23h38.54.634,Info_measure_main_exp,2022.2.2,Win32,146.713615,,,,,,,,,,,,,,,,,,,,,,,,,,,,,,6,1.353,1,,,,,,,,,,,,0,131,5,5,2154,2298,absent_patch/patch0002154.jpg,absent_patch/patch0002298.jpg,,,,,,,,,,,,,,,,,,,,0.046296296,0.03148146,1,0,0,response1disk,15,0.002777806,0.000925912,1,0,0,center_square,0,14,14,27,1,,,,,,,,,,,,,,,,,,,,,,,
462101,001,2022-11-13_23h38.54.634,Info_measure_main_exp,2022.2.2,Win32,146.713615,,,,,,,,,,,,,,,,,,masks/mask_001.jpg,,,,,,,,,,,,,,,,,,,,,,,,,,,,,,,,,,,,,,,,,,,0,0,0,0,1,,,,,,,,,,,,,,,,,,,,,,,,,,,,,,,,,,,,,,,,,,,,,,
462101,001,2022-11-13_23h38.54.634,Info_measure_main_exp,2022.2.2,Win32,146.713615,,,,,,,,,,,,,,,,,,masks/mask_002.jpg,,,,,,,,,,,,,,,,,,,,,,,,,,,,,,,,,,,,,,,,,,,0,1,1,1,1,,,,,,,,,,,,,,,,,,,,,,,,,,,,,,,,,,,,,,,,,,,,,,
462101,001,2022-11-13_23h38.54.634,Info_measure_main_exp,2022.2.2,Win32,146.713615,,,,,,,,,,,,,,,,,,masks/mask_004.jpg,,,,,,,,,,,,,,,,,,,,,,,,,,,,,,,,,,,,,,,,,,,0,2,2,3,1,,,,,,,,,,,,,,,,,,,,,,,,,,,,,,,,,,,,,,,,,,,,,,
462101,001,2022-11-13_23h38.54.634,Info_measure_main_exp,2022.2.2,Win32,146.713615,,,,,,,,,,,,,,,,,,masks/mask_003.jpg,,,,,,,,,,,,,,,,,,,,,,,,,,,,,,,,,,,,,,,,,,,0,3,3,2,1,,,,,,,,,,,,,,,,,,,,,,,,,,,,,,,,,,,,,,,,,,,,,,
462101,001,2022-11-13_23h38.54.634,Info_measure_main_exp,2022.2.2,Win32,146.713615,,,,,,,,,,,,,,,,,,masks/mask_005.jpg,,,,,,,,,,,,,,,,,,,,,,,,,,,,,,,,,,,,,,,,,,,0,4,4,4,1,,,,,,,,,,,,,,,,,,,,,,,,,,,,,,,,,,,,,,,,,,,,,,
462101,001,2022-11-13_23h38.54.634,Info_measure_main_exp,2022.2.2,Win32,146.713615,,,,,,,,,,,,,,,,,,masks/mask_003.jpg,,,,,,,,,,,,,,,,,,,,,,,,,,,,,,,,,,,,,,,,,,,,,,,,0,0,0,2,1,,,,,,,,,,,,,,,,,,,,,,,,,,,,,,,,,,,,,,,,,
462101,001,2022-11-13_23h38.54.634,Info_measure_main_exp,2022.2.2,Win32,146.713615,,,,,,,,,,,,,,,,,,masks/mask_002.jpg,,,,,,,,,,,,,,,,,,,,,,,,,,,,,,,,,,,,,,,,,,,,,,,,0,1,1,1,1,,,,,,,,,,,,,,,,,,,,,,,,,,,,,,,,,,,,,,,,,
462101,001,2022-11-13_23h38.54.634,Info_measure_main_exp,2022.2.2,Win32,146.713615,,,,,,,,,,,,,,,,,,masks/mask_001.jpg,,,,,,,,,,,,,,,,,,,,,,,,,,,,,,,,,,,,,,,,,,,,,,,,0,2,2,0,1,,,,,,,,,,,,,,,,,,,,,,,,,,,,,,,,,,,,,,,,,
462101,001,2022-11-13_23h38.54.634,Info_measure_main_exp,2022.2.2,Win32,146.713615,,,,,,,,,,,,,,,,,,masks/mask_004.jpg,,,,,,,,,,,,,,,,,,,,,,,,,,,,,,,,,,,,,,,,,,,,,,,,0,3,3,3,1,,,,,,,,,,,,,,,,,,,,,,,,,,,,,,,,,,,,,,,,,
462101,001,2022-11-13_23h38.54.634,Info_measure_main_exp,2022.2.2,Win32,146.713615,,,,,,,,,,,,,,,,,,masks/mask_005.jpg,,,,,,,,,,,,,,,,,,,,,,,,,,,,,,,,,,,,,,,,,,,,,,,,0,4,4,4,1,,,,,,,,,,,,,,,,,,,,,,,,,,,,,,,,,,,,,,,,,
462101,001,2022-11-13_23h38.54.634,Info_measure_main_exp,2022.2.2,Win32,146.713615,,,,,,,,,,,,,,,,,,,,,,,,,,,,,,5,0.7515,1,,,,,,,,,,,,0,131,5,5,2190,2238,absent_patch/patch0002190.jpg,absent_patch/patch0002238.jpg,,,,,,,,,,,,,,,,,,,,0.090740769,-0.033333355,1,0,0,response3disk,16,0.008333347,-0.00462963,1,0,0,center_square,0,15,15,53,1,,,,,,,,,,,,,,,,,,,,,,,
462101,001,2022-11-13_23h38.54.634,Info_measure_main_exp,2022.2.2,Win32,146.713615,,,,,,,,,,,,,,,,,,masks/mask_003.jpg,,,,,,,,,,,,,,,,,,,,,,,,,,,,,,,,,,,,,,,,,,,0,0,0,2,1,,,,,,,,,,,,,,,,,,,,,,,,,,,,,,,,,,,,,,,,,,,,,,
462101,001,2022-11-13_23h38.54.634,Info_measure_main_exp,2022.2.2,Win32,146.713615,,,,,,,,,,,,,,,,,,masks/mask_004.jpg,,,,,,,,,,,,,,,,,,,,,,,,,,,,,,,,,,,,,,,,,,,0,1,1,3,1,,,,,,,,,,,,,,,,,,,,,,,,,,,,,,,,,,,,,,,,,,,,,,
462101,001,2022-11-13_23h38.54.634,Info_measure_main_exp,2022.2.2,Win32,146.713615,,,,,,,,,,,,,,,,,,masks/mask_001.jpg,,,,,,,,,,,,,,,,,,,,,,,,,,,,,,,,,,,,,,,,,,,0,2,2,0,1,,,,,,,,,,,,,,,,,,,,,,,,,,,,,,,,,,,,,,,,,,,,,,
462101,001,2022-11-13_23h38.54.634,Info_measure_main_exp,2022.2.2,Win32,146.713615,,,,,,,,,,,,,,,,,,masks/mask_005.jpg,,,,,,,,,,,,,,,,,,,,,,,,,,,,,,,,,,,,,,,,,,,0,3,3,4,1,,,,,,,,,,,,,,,,,,,,,,,,,,,,,,,,,,,,,,,,,,,,,,
462101,001,2022-11-13_23h38.54.634,Info_measure_main_exp,2022.2.2,Win32,146.713615,,,,,,,,,,,,,,,,,,masks/mask_002.jpg,,,,,,,,,,,,,,,,,,,,,,,,,,,,,,,,,,,,,,,,,,,0,4,4,1,1,,,,,,,,,,,,,,,,,,,,,,,,,,,,,,,,,,,,,,,,,,,,,,
462101,001,2022-11-13_23h38.54.634,Info_measure_main_exp,2022.2.2,Win32,146.713615,,,,,,,,,,,,,,,,,,masks/mask_003.jpg,,,,,,,,,,,,,,,,,,,,,,,,,,,,,,,,,,,,,,,,,,,,,,,,0,0,0,2,1,,,,,,,,,,,,,,,,,,,,,,,,,,,,,,,,,,,,,,,,,
462101,001,2022-11-13_23h38.54.634,Info_measure_main_exp,2022.2.2,Win32,146.713615,,,,,,,,,,,,,,,,,,masks/mask_001.jpg,,,,,,,,,,,,,,,,,,,,,,,,,,,,,,,,,,,,,,,,,,,,,,,,0,1,1,0,1,,,,,,,,,,,,,,,,,,,,,,,,,,,,,,,,,,,,,,,,,
462101,001,2022-11-13_23h38.54.634,Info_measure_main_exp,2022.2.2,Win32,146.713615,,,,,,,,,,,,,,,,,,masks/mask_002.jpg,,,,,,,,,,,,,,,,,,,,,,,,,,,,,,,,,,,,,,,,,,,,,,,,0,2,2,1,1,,,,,,,,,,,,,,,,,,,,,,,,,,,,,,,,,,,,,,,,,
462101,001,2022-11-13_23h38.54.634,Info_measure_main_exp,2022.2.2,Win32,146.713615,,,,,,,,,,,,,,,,,,masks/mask_005.jpg,,,,,,,,,,,,,,,,,,,,,,,,,,,,,,,,,,,,,,,,,,,,,,,,0,3,3,4,1,,,,,,,,,,,,,,,,,,,,,,,,,,,,,,,,,,,,,,,,,
462101,001,2022-11-13_23h38.54.634,Info_measure_main_exp,2022.2.2,Win32,146.713615,,,,,,,,,,,,,,,,,,masks/mask_004.jpg,,,,,,,,,,,,,,,,,,,,,,,,,,,,,,,,,,,,,,,,,,,,,,,,0,4,4,3,1,,,,,,,,,,,,,,,,,,,,,,,,,,,,,,,,,,,,,,,,,
462101,001,2022-11-13_23h38.54.634,Info_measure_main_exp,2022.2.2,Win32,146.713615,,,,,,,,,,,,,,,,,,,,,,,,,,,,,,6,0.8536,1,,,,,,,,,,,,0,131,5,5,2214,2166,absent_patch/patch0002214.jpg,absent_patch/patch0002166.jpg,,,,,,,,,,,,,,,,,,,,0.084259245,0.037962949,1,0,0,response1disk,17,0.008333347,0.000925912,1,0,0,center_square,0,16,16,109,1,,,,,,,,,,,,,,,,,,,,,,,
462101,001,2022-11-13_23h38.54.634,Info_measure_main_exp,2022.2.2,Win32,146.713615,,,,,,,,,,,,,,,,,,masks/mask_004.jpg,,,,,,,,,,,,,,,,,,,,,,,,,,,,,,,,,,,,,,,,,,,0,0,0,3,1,,,,,,,,,,,,,,,,,,,,,,,,,,,,,,,,,,,,,,,,,,,,,,
462101,001,2022-11-13_23h38.54.634,Info_measure_main_exp,2022.2.2,Win32,146.713615,,,,,,,,,,,,,,,,,,masks/mask_001.jpg,,,,,,,,,,,,,,,,,,,,,,,,,,,,,,,,,,,,,,,,,,,0,1,1,0,1,,,,,,,,,,,,,,,,,,,,,,,,,,,,,,,,,,,,,,,,,,,,,,
462101,001,2022-11-13_23h38.54.634,Info_measure_main_exp,2022.2.2,Win32,146.713615,,,,,,,,,,,,,,,,,,masks/mask_003.jpg,,,,,,,,,,,,,,,,,,,,,,,,,,,,,,,,,,,,,,,,,,,0,2,2,2,1,,,,,,,,,,,,,,,,,,,,,,,,,,,,,,,,,,,,,,,,,,,,,,
462101,001,2022-11-13_23h38.54.634,Info_measure_main_exp,2022.2.2,Win32,146.713615,,,,,,,,,,,,,,,,,,masks/mask_005.jpg,,,,,,,,,,,,,,,,,,,,,,,,,,,,,,,,,,,,,,,,,,,0,3,3,4,1,,,,,,,,,,,,,,,,,,,,,,,,,,,,,,,,,,,,,,,,,,,,,,
462101,001,2022-11-13_23h38.54.634,Info_measure_main_exp,2022.2.2,Win32,146.713615,,,,,,,,,,,,,,,,,,masks/mask_002.jpg,,,,,,,,,,,,,,,,,,,,,,,,,,,,,,,,,,,,,,,,,,,0,4,4,1,1,,,,,,,,,,,,,,,,,,,,,,,,,,,,,,,,,,,,,,,,,,,,,,
462101,001,2022-11-13_23h38.54.634,Info_measure_main_exp,2022.2.2,Win32,146.713615,,,,,,,,,,,,,,,,,,masks/mask_005.jpg,,,,,,,,,,,,,,,,,,,,,,,,,,,,,,,,,,,,,,,,,,,,,,,,0,0,0,4,1,,,,,,,,,,,,,,,,,,,,,,,,,,,,,,,,,,,,,,,,,
462101,001,2022-11-13_23h38.54.634,Info_measure_main_exp,2022.2.2,Win32,146.713615,,,,,,,,,,,,,,,,,,masks/mask_004.jpg,,,,,,,,,,,,,,,,,,,,,,,,,,,,,,,,,,,,,,,,,,,,,,,,0,1,1,3,1,,,,,,,,,,,,,,,,,,,,,,,,,,,,,,,,,,,,,,,,,
462101,001,2022-11-13_23h38.54.634,Info_measure_main_exp,2022.2.2,Win32,146.713615,,,,,,,,,,,,,,,,,,masks/mask_002.jpg,,,,,,,,,,,,,,,,,,,,,,,,,,,,,,,,,,,,,,,,,,,,,,,,0,2,2,1,1,,,,,,,,,,,,,,,,,,,,,,,,,,,,,,,,,,,,,,,,,
462101,001,2022-11-13_23h38.54.634,Info_measure_main_exp,2022.2.2,Win32,146.713615,,,,,,,,,,,,,,,,,,masks/mask_001.jpg,,,,,,,,,,,,,,,,,,,,,,,,,,,,,,,,,,,,,,,,,,,,,,,,0,3,3,0,1,,,,,,,,,,,,,,,,,,,,,,,,,,,,,,,,,,,,,,,,,
462101,001,2022-11-13_23h38.54.634,Info_measure_main_exp,2022.2.2,Win32,146.713615,,,,,,,,,,,,,,,,,,masks/mask_003.jpg,,,,,,,,,,,,,,,,,,,,,,,,,,,,,,,,,,,,,,,,,,,,,,,,0,4,4,2,1,,,,,,,,,,,,,,,,,,,,,,,,,,,,,,,,,,,,,,,,,
462101,001,2022-11-13_23h38.54.634,Info_measure_main_exp,2022.2.2,Win32,146.713615,,,,,,,,,,,,,,,,,,,,,,,,,,,,,,7,1.1955,1,,,,,,,,,,,,1,131,5,5,1,2214,present_patch/cong_131_5_a.jpg,absent_patch/patch0002214.jpg,,,,,,,,,,,,,,,,,,,,0.099074116,0.125,1,0,0,response1disk,18,0.008333347,-0.010185206,1,0,0,center_square,0,17,17,4,1,,,,,,,,,,,,,,,,,,,,,,,
462101,001,2022-11-13_23h38.54.634,Info_measure_main_exp,2022.2.2,Win32,146.713615,,,,,,,,,,,,,,,,,,masks/mask_004.jpg,,,,,,,,,,,,,,,,,,,,,,,,,,,,,,,,,,,,,,,,,,,0,0,0,3,1,,,,,,,,,,,,,,,,,,,,,,,,,,,,,,,,,,,,,,,,,,,,,,
462101,001,2022-11-13_23h38.54.634,Info_measure_main_exp,2022.2.2,Win32,146.713615,,,,,,,,,,,,,,,,,,masks/mask_005.jpg,,,,,,,,,,,,,,,,,,,,,,,,,,,,,,,,,,,,,,,,,,,0,1,1,4,1,,,,,,,,,,,,,,,,,,,,,,,,,,,,,,,,,,,,,,,,,,,,,,
462101,001,2022-11-13_23h38.54.634,Info_measure_main_exp,2022.2.2,Win32,146.713615,,,,,,,,,,,,,,,,,,masks/mask_002.jpg,,,,,,,,,,,,,,,,,,,,,,,,,,,,,,,,,,,,,,,,,,,0,2,2,1,1,,,,,,,,,,,,,,,,,,,,,,,,,,,,,,,,,,,,,,,,,,,,,,
462101,001,2022-11-13_23h38.54.634,Info_measure_main_exp,2022.2.2,Win32,146.713615,,,,,,,,,,,,,,,,,,masks/mask_001.jpg,,,,,,,,,,,,,,,,,,,,,,,,,,,,,,,,,,,,,,,,,,,0,3,3,0,1,,,,,,,,,,,,,,,,,,,,,,,,,,,,,,,,,,,,,,,,,,,,,,
462101,001,2022-11-13_23h38.54.634,Info_measure_main_exp,2022.2.2,Win32,146.713615,,,,,,,,,,,,,,,,,,masks/mask_003.jpg,,,,,,,,,,,,,,,,,,,,,,,,,,,,,,,,,,,,,,,,,,,0,4,4,2,1,,,,,,,,,,,,,,,,,,,,,,,,,,,,,,,,,,,,,,,,,,,,,,
462101,001,2022-11-13_23h38.54.634,Info_measure_main_exp,2022.2.2,Win32,146.713615,,,,,,,,,,,,,,,,,,masks/mask_002.jpg,,,,,,,,,,,,,,,,,,,,,,,,,,,,,,,,,,,,,,,,,,,,,,,,0,0,0,1,1,,,,,,,,,,,,,,,,,,,,,,,,,,,,,,,,,,,,,,,,,
462101,001,2022-11-13_23h38.54.634,Info_measure_main_exp,2022.2.2,Win32,146.713615,,,,,,,,,,,,,,,,,,masks/mask_003.jpg,,,,,,,,,,,,,,,,,,,,,,,,,,,,,,,,,,,,,,,,,,,,,,,,0,1,1,2,1,,,,,,,,,,,,,,,,,,,,,,,,,,,,,,,,,,,,,,,,,
462101,001,2022-11-13_23h38.54.634,Info_measure_main_exp,2022.2.2,Win32,146.713615,,,,,,,,,,,,,,,,,,masks/mask_001.jpg,,,,,,,,,,,,,,,,,,,,,,,,,,,,,,,,,,,,,,,,,,,,,,,,0,2,2,0,1,,,,,,,,,,,,,,,,,,,,,,,,,,,,,,,,,,,,,,,,,
462101,001,2022-11-13_23h38.54.634,Info_measure_main_exp,2022.2.2,Win32,146.713615,,,,,,,,,,,,,,,,,,masks/mask_005.jpg,,,,,,,,,,,,,,,,,,,,,,,,,,,,,,,,,,,,,,,,,,,,,,,,0,3,3,4,1,,,,,,,,,,,,,,,,,,,,,,,,,,,,,,,,,,,,,,,,,
462101,001,2022-11-13_23h38.54.634,Info_measure_main_exp,2022.2.2,Win32,146.713615,,,,,,,,,,,,,,,,,,masks/mask_004.jpg,,,,,,,,,,,,,,,,,,,,,,,,,,,,,,,,,,,,,,,,,,,,,,,,0,4,4,3,1,,,,,,,,,,,,,,,,,,,,,,,,,,,,,,,,,,,,,,,,,
462101,001,2022-11-13_23h38.54.634,Info_measure_main_exp,2022.2.2,Win32,146.713615,,,,,,,,,,,,,,,,,,,,,,,,,,,,,,4,1.1669,1,,,,,,,,,,,,0,131,5,5,2082,1974,absent_patch/patch0002082.jpg,absent_patch/patch0001974.jpg,,,,,,,,,,,,,,,,,,,,0.075925968,-0.090740734,1,0,0,response3disk,19,0,0.010185171,1,0,0,center_square,0,18,18,26,1,,,,,,,,,,,,,,,,,,,,,,,
462101,001,2022-11-13_23h38.54.634,Info_measure_main_exp,2022.2.2,Win32,146.713615,,,,,,,,,,,,,,,,,,masks/mask_003.jpg,,,,,,,,,,,,,,,,,,,,,,,,,,,,,,,,,,,,,,,,,,,0,0,0,2,1,,,,,,,,,,,,,,,,,,,,,,,,,,,,,,,,,,,,,,,,,,,,,,
462101,001,2022-11-13_23h38.54.634,Info_measure_main_exp,2022.2.2,Win32,146.713615,,,,,,,,,,,,,,,,,,masks/mask_004.jpg,,,,,,,,,,,,,,,,,,,,,,,,,,,,,,,,,,,,,,,,,,,0,1,1,3,1,,,,,,,,,,,,,,,,,,,,,,,,,,,,,,,,,,,,,,,,,,,,,,
462101,001,2022-11-13_23h38.54.634,Info_measure_main_exp,2022.2.2,Win32,146.713615,,,,,,,,,,,,,,,,,,masks/mask_001.jpg,,,,,,,,,,,,,,,,,,,,,,,,,,,,,,,,,,,,,,,,,,,0,2,2,0,1,,,,,,,,,,,,,,,,,,,,,,,,,,,,,,,,,,,,,,,,,,,,,,
462101,001,2022-11-13_23h38.54.634,Info_measure_main_exp,2022.2.2,Win32,146.713615,,,,,,,,,,,,,,,,,,masks/mask_005.jpg,,,,,,,,,,,,,,,,,,,,,,,,,,,,,,,,,,,,,,,,,,,0,3,3,4,1,,,,,,,,,,,,,,,,,,,,,,,,,,,,,,,,,,,,,,,,,,,,,,
462101,001,2022-11-13_23h38.54.634,Info_measure_main_exp,2022.2.2,Win32,146.713615,,,,,,,,,,,,,,,,,,masks/mask_002.jpg,,,,,,,,,,,,,,,,,,,,,,,,,,,,,,,,,,,,,,,,,,,0,4,4,1,1,,,,,,,,,,,,,,,,,,,,,,,,,,,,,,,,,,,,,,,,,,,,,,
462101,001,2022-11-13_23h38.54.634,Info_measure_main_exp,2022.2.2,Win32,146.713615,,,,,,,,,,,,,,,,,,masks/mask_003.jpg,,,,,,,,,,,,,,,,,,,,,,,,,,,,,,,,,,,,,,,,,,,,,,,,0,0,0,2,1,,,,,,,,,,,,,,,,,,,,,,,,,,,,,,,,,,,,,,,,,
462101,001,2022-11-13_23h38.54.634,Info_measure_main_exp,2022.2.2,Win32,146.713615,,,,,,,,,,,,,,,,,,masks/mask_005.jpg,,,,,,,,,,,,,,,,,,,,,,,,,,,,,,,,,,,,,,,,,,,,,,,,0,1,1,4,1,,,,,,,,,,,,,,,,,,,,,,,,,,,,,,,,,,,,,,,,,
462101,001,2022-11-13_23h38.54.634,Info_measure_main_exp,2022.2.2,Win32,146.713615,,,,,,,,,,,,,,,,,,masks/mask_004.jpg,,,,,,,,,,,,,,,,,,,,,,,,,,,,,,,,,,,,,,,,,,,,,,,,0,2,2,3,1,,,,,,,,,,,,,,,,,,,,,,,,,,,,,,,,,,,,,,,,,
462101,001,2022-11-13_23h38.54.634,Info_measure_main_exp,2022.2.2,Win32,146.713615,,,,,,,,,,,,,,,,,,masks/mask_001.jpg,,,,,,,,,,,,,,,,,,,,,,,,,,,,,,,,,,,,,,,,,,,,,,,,0,3,3,0,1,,,,,,,,,,,,,,,,,,,,,,,,,,,,,,,,,,,,,,,,,
462101,001,2022-11-13_23h38.54.634,Info_measure_main_exp,2022.2.2,Win32,146.713615,,,,,,,,,,,,,,,,,,masks/mask_002.jpg,,,,,,,,,,,,,,,,,,,,,,,,,,,,,,,,,,,,,,,,,,,,,,,,0,4,4,1,1,,,,,,,,,,,,,,,,,,,,,,,,,,,,,,,,,,,,,,,,,
462101,001,2022-11-13_23h38.54.634,Info_measure_main_exp,2022.2.2,Win32,146.713615,,,,,,,,,,,,,,,,,,,,,,,,,,,,,,6,0.9448,1,,,,,,,,,,,,0,131,5,5,2190,2166,absent_patch/patch0002190.jpg,absent_patch/patch0002166.jpg,,,,,,,,,,,,,,,,,,,,0.059259273,0.014814801,1,0,0,response1disk,20,0.006481524,0,1,0,0,center_square,0,19,19,50,1,,,,,,,,,,,,,,,,,,,,,,,
462101,001,2022-11-13_23h38.54.634,Info_measure_main_exp,2022.2.2,Win32,146.713615,,,,,,,,,,,,,,,,,,masks/mask_001.jpg,,,,,,,,,,,,,,,,,,,,,,,,,,,,,,,,,,,,,,,,,,,0,0,0,0,1,,,,,,,,,,,,,,,,,,,,,,,,,,,,,,,,,,,,,,,,,,,,,,
462101,001,2022-11-13_23h38.54.634,Info_measure_main_exp,2022.2.2,Win32,146.713615,,,,,,,,,,,,,,,,,,masks/mask_003.jpg,,,,,,,,,,,,,,,,,,,,,,,,,,,,,,,,,,,,,,,,,,,0,1,1,2,1,,,,,,,,,,,,,,,,,,,,,,,,,,,,,,,,,,,,,,,,,,,,,,
462101,001,2022-11-13_23h38.54.634,Info_measure_main_exp,2022.2.2,Win32,146.713615,,,,,,,,,,,,,,,,,,masks/mask_005.jpg,,,,,,,,,,,,,,,,,,,,,,,,,,,,,,,,,,,,,,,,,,,0,2,2,4,1,,,,,,,,,,,,,,,,,,,,,,,,,,,,,,,,,,,,,,,,,,,,,,
462101,001,2022-11-13_23h38.54.634,Info_measure_main_exp,2022.2.2,Win32,146.713615,,,,,,,,,,,,,,,,,,masks/mask_004.jpg,,,,,,,,,,,,,,,,,,,,,,,,,,,,,,,,,,,,,,,,,,,0,3,3,3,1,,,,,,,,,,,,,,,,,,,,,,,,,,,,,,,,,,,,,,,,,,,,,,
462101,001,2022-11-13_23h38.54.634,Info_measure_main_exp,2022.2.2,Win32,146.713615,,,,,,,,,,,,,,,,,,masks/mask_002.jpg,,,,,,,,,,,,,,,,,,,,,,,,,,,,,,,,,,,,,,,,,,,0,4,4,1,1,,,,,,,,,,,,,,,,,,,,,,,,,,,,,,,,,,,,,,,,,,,,,,
462101,001,2022-11-13_23h38.54.634,Info_measure_main_exp,2022.2.2,Win32,146.713615,,,,,,,,,,,,,,,,,,masks/mask_003.jpg,,,,,,,,,,,,,,,,,,,,,,,,,,,,,,,,,,,,,,,,,,,,,,,,0,0,0,2,1,,,,,,,,,,,,,,,,,,,,,,,,,,,,,,,,,,,,,,,,,
462101,001,2022-11-13_23h38.54.634,Info_measure_main_exp,2022.2.2,Win32,146.713615,,,,,,,,,,,,,,,,,,masks/mask_004.jpg,,,,,,,,,,,,,,,,,,,,,,,,,,,,,,,,,,,,,,,,,,,,,,,,0,1,1,3,1,,,,,,,,,,,,,,,,,,,,,,,,,,,,,,,,,,,,,,,,,
462101,001,2022-11-13_23h38.54.634,Info_measure_main_exp,2022.2.2,Win32,146.713615,,,,,,,,,,,,,,,,,,masks/mask_005.jpg,,,,,,,,,,,,,,,,,,,,,,,,,,,,,,,,,,,,,,,,,,,,,,,,0,2,2,4,1,,,,,,,,,,,,,,,,,,,,,,,,,,,,,,,,,,,,,,,,,
462101,001,2022-11-13_23h38.54.634,Info_measure_main_exp,2022.2.2,Win32,146.713615,,,,,,,,,,,,,,,,,,masks/mask_002.jpg,,,,,,,,,,,,,,,,,,,,,,,,,,,,,,,,,,,,,,,,,,,,,,,,0,3,3,1,1,,,,,,,,,,,,,,,,,,,,,,,,,,,,,,,,,,,,,,,,,
462101,001,2022-11-13_23h38.54.634,Info_measure_main_exp,2022.2.2,Win32,146.713615,,,,,,,,,,,,,,,,,,masks/mask_001.jpg,,,,,,,,,,,,,,,,,,,,,,,,,,,,,,,,,,,,,,,,,,,,,,,,0,4,4,0,1,,,,,,,,,,,,,,,,,,,,,,,,,,,,,,,,,,,,,,,,,
462101,001,2022-11-13_23h38.54.634,Info_measure_main_exp,2022.2.2,Win32,146.713615,,,,,,,,,,,,,,,,,,,,,,,,,,,,,,5,1.2207,1,,,,,,,,,,,,0,131,5,5,1974,2298,absent_patch/patch0001974.jpg,absent_patch/patch0002298.jpg,,,,,,,,,,,,,,,,,,,,0.097222222,-0.039814808,1,0,0,response3disk,21,0.002777806,0.011111118,1,0,0,center_square,0,20,20,6,1,,,,,,,,,,,,,,,,,,,,,,,
462101,001,2022-11-13_23h38.54.634,Info_measure_main_exp,2022.2.2,Win32,146.713615,,,,,,,,,,,,,,,,,,masks/mask_002.jpg,,,,,,,,,,,,,,,,,,,,,,,,,,,,,,,,,,,,,,,,,,,0,0,0,1,1,,,,,,,,,,,,,,,,,,,,,,,,,,,,,,,,,,,,,,,,,,,,,,
462101,001,2022-11-13_23h38.54.634,Info_measure_main_exp,2022.2.2,Win32,146.713615,,,,,,,,,,,,,,,,,,masks/mask_001.jpg,,,,,,,,,,,,,,,,,,,,,,,,,,,,,,,,,,,,,,,,,,,0,1,1,0,1,,,,,,,,,,,,,,,,,,,,,,,,,,,,,,,,,,,,,,,,,,,,,,
462101,001,2022-11-13_23h38.54.634,Info_measure_main_exp,2022.2.2,Win32,146.713615,,,,,,,,,,,,,,,,,,masks/mask_005.jpg,,,,,,,,,,,,,,,,,,,,,,,,,,,,,,,,,,,,,,,,,,,0,2,2,4,1,,,,,,,,,,,,,,,,,,,,,,,,,,,,,,,,,,,,,,,,,,,,,,
462101,001,2022-11-13_23h38.54.634,Info_measure_main_exp,2022.2.2,Win32,146.713615,,,,,,,,,,,,,,,,,,masks/mask_003.jpg,,,,,,,,,,,,,,,,,,,,,,,,,,,,,,,,,,,,,,,,,,,0,3,3,2,1,,,,,,,,,,,,,,,,,,,,,,,,,,,,,,,,,,,,,,,,,,,,,,
462101,001,2022-11-13_23h38.54.634,Info_measure_main_exp,2022.2.2,Win32,146.713615,,,,,,,,,,,,,,,,,,masks/mask_004.jpg,,,,,,,,,,,,,,,,,,,,,,,,,,,,,,,,,,,,,,,,,,,0,4,4,3,1,,,,,,,,,,,,,,,,,,,,,,,,,,,,,,,,,,,,,,,,,,,,,,
462101,001,2022-11-13_23h38.54.634,Info_measure_main_exp,2022.2.2,Win32,146.713615,,,,,,,,,,,,,,,,,,masks/mask_003.jpg,,,,,,,,,,,,,,,,,,,,,,,,,,,,,,,,,,,,,,,,,,,,,,,,0,0,0,2,1,,,,,,,,,,,,,,,,,,,,,,,,,,,,,,,,,,,,,,,,,
462101,001,2022-11-13_23h38.54.634,Info_measure_main_exp,2022.2.2,Win32,146.713615,,,,,,,,,,,,,,,,,,masks/mask_005.jpg,,,,,,,,,,,,,,,,,,,,,,,,,,,,,,,,,,,,,,,,,,,,,,,,0,1,1,4,1,,,,,,,,,,,,,,,,,,,,,,,,,,,,,,,,,,,,,,,,,
462101,001,2022-11-13_23h38.54.634,Info_measure_main_exp,2022.2.2,Win32,146.713615,,,,,,,,,,,,,,,,,,masks/mask_004.jpg,,,,,,,,,,,,,,,,,,,,,,,,,,,,,,,,,,,,,,,,,,,,,,,,0,2,2,3,1,,,,,,,,,,,,,,,,,,,,,,,,,,,,,,,,,,,,,,,,,
462101,001,2022-11-13_23h38.54.634,Info_measure_main_exp,2022.2.2,Win32,146.713615,,,,,,,,,,,,,,,,,,masks/mask_002.jpg,,,,,,,,,,,,,,,,,,,,,,,,,,,,,,,,,,,,,,,,,,,,,,,,0,3,3,1,1,,,,,,,,,,,,,,,,,,,,,,,,,,,,,,,,,,,,,,,,,
462101,001,2022-11-13_23h38.54.634,Info_measure_main_exp,2022.2.2,Win32,146.713615,,,,,,,,,,,,,,,,,,masks/mask_001.jpg,,,,,,,,,,,,,,,,,,,,,,,,,,,,,,,,,,,,,,,,,,,,,,,,0,4,4,0,1,,,,,,,,,,,,,,,,,,,,,,,,,,,,,,,,,,,,,,,,,
462101,001,2022-11-13_23h38.54.634,Info_measure_main_exp,2022.2.2,Win32,146.713615,,,,,,,,,,,,,,,,,,,,,,,,,,,,,,6,4.7008,1,,,,,,,,,,,,0,131,5,5,2178,2166,absent_patch/patch0002178.jpg,absent_patch/patch0002166.jpg,,,,,,,,,,,,,,,,,,,,0.065740727,0.017592571,1,0,0,response1disk,22,0.003703718,-0.006481489,1,0,0,center_square,0,21,21,72,1,,,,,,,,,,,,,,,,,,,,,,,
462101,001,2022-11-13_23h38.54.634,Info_measure_main_exp,2022.2.2,Win32,146.713615,,,,,,,,,,,,,,,,,,masks/mask_005.jpg,,,,,,,,,,,,,,,,,,,,,,,,,,,,,,,,,,,,,,,,,,,0,0,0,4,1,,,,,,,,,,,,,,,,,,,,,,,,,,,,,,,,,,,,,,,,,,,,,,
462101,001,2022-11-13_23h38.54.634,Info_measure_main_exp,2022.2.2,Win32,146.713615,,,,,,,,,,,,,,,,,,masks/mask_002.jpg,,,,,,,,,,,,,,,,,,,,,,,,,,,,,,,,,,,,,,,,,,,0,1,1,1,1,,,,,,,,,,,,,,,,,,,,,,,,,,,,,,,,,,,,,,,,,,,,,,
462101,001,2022-11-13_23h38.54.634,Info_measure_main_exp,2022.2.2,Win32,146.713615,,,,,,,,,,,,,,,,,,masks/mask_003.jpg,,,,,,,,,,,,,,,,,,,,,,,,,,,,,,,,,,,,,,,,,,,0,2,2,2,1,,,,,,,,,,,,,,,,,,,,,,,,,,,,,,,,,,,,,,,,,,,,,,
462101,001,2022-11-13_23h38.54.634,Info_measure_main_exp,2022.2.2,Win32,146.713615,,,,,,,,,,,,,,,,,,masks/mask_001.jpg,,,,,,,,,,,,,,,,,,,,,,,,,,,,,,,,,,,,,,,,,,,0,3,3,0,1,,,,,,,,,,,,,,,,,,,,,,,,,,,,,,,,,,,,,,,,,,,,,,
462101,001,2022-11-13_23h38.54.634,Info_measure_main_exp,2022.2.2,Win32,146.713615,,,,,,,,,,,,,,,,,,masks/mask_004.jpg,,,,,,,,,,,,,,,,,,,,,,,,,,,,,,,,,,,,,,,,,,,0,4,4,3,1,,,,,,,,,,,,,,,,,,,,,,,,,,,,,,,,,,,,,,,,,,,,,,
462101,001,2022-11-13_23h38.54.634,Info_measure_main_exp,2022.2.2,Win32,146.713615,,,,,,,,,,,,,,,,,,masks/mask_004.jpg,,,,,,,,,,,,,,,,,,,,,,,,,,,,,,,,,,,,,,,,,,,,,,,,0,0,0,3,1,,,,,,,,,,,,,,,,,,,,,,,,,,,,,,,,,,,,,,,,,
462101,001,2022-11-13_23h38.54.634,Info_measure_main_exp,2022.2.2,Win32,146.713615,,,,,,,,,,,,,,,,,,masks/mask_001.jpg,,,,,,,,,,,,,,,,,,,,,,,,,,,,,,,,,,,,,,,,,,,,,,,,0,1,1,0,1,,,,,,,,,,,,,,,,,,,,,,,,,,,,,,,,,,,,,,,,,
462101,001,2022-11-13_23h38.54.634,Info_measure_main_exp,2022.2.2,Win32,146.713615,,,,,,,,,,,,,,,,,,masks/mask_002.jpg,,,,,,,,,,,,,,,,,,,,,,,,,,,,,,,,,,,,,,,,,,,,,,,,0,2,2,1,1,,,,,,,,,,,,,,,,,,,,,,,,,,,,,,,,,,,,,,,,,
462101,001,2022-11-13_23h38.54.634,Info_measure_main_exp,2022.2.2,Win32,146.713615,,,,,,,,,,,,,,,,,,masks/mask_003.jpg,,,,,,,,,,,,,,,,,,,,,,,,,,,,,,,,,,,,,,,,,,,,,,,,0,3,3,2,1,,,,,,,,,,,,,,,,,,,,,,,,,,,,,,,,,,,,,,,,,
462101,001,2022-11-13_23h38.54.634,Info_measure_main_exp,2022.2.2,Win32,146.713615,,,,,,,,,,,,,,,,,,masks/mask_005.jpg,,,,,,,,,,,,,,,,,,,,,,,,,,,,,,,,,,,,,,,,,,,,,,,,0,4,4,4,1,,,,,,,,,,,,,,,,,,,,,,,,,,,,,,,,,,,,,,,,,
462101,001,2022-11-13_23h38.54.634,Info_measure_main_exp,2022.2.2,Win32,146.713615,,,,,,,,,,,,,,,,,,,,,,,,,,,,,,7,0.6517,1,,,,,,,,,,,,0,131,5,5,2250,1986,absent_patch/patch0002250.jpg,absent_patch/patch0001986.jpg,,,,,,,,,,,,,,,,,,,,0.033333319,0.121296282,1,0,0,response1disk,23,-0.003703718,0.0074074,1,0,0,center_square,0,22,22,29,1,,,,,,,,,,,,,,,,,,,,,,,
462101,001,2022-11-13_23h38.54.634,Info_measure_main_exp,2022.2.2,Win32,146.713615,,,,,,,,,,,,,,,,,,masks/mask_002.jpg,,,,,,,,,,,,,,,,,,,,,,,,,,,,,,,,,,,,,,,,,,,0,0,0,1,1,,,,,,,,,,,,,,,,,,,,,,,,,,,,,,,,,,,,,,,,,,,,,,
462101,001,2022-11-13_23h38.54.634,Info_measure_main_exp,2022.2.2,Win32,146.713615,,,,,,,,,,,,,,,,,,masks/mask_003.jpg,,,,,,,,,,,,,,,,,,,,,,,,,,,,,,,,,,,,,,,,,,,0,1,1,2,1,,,,,,,,,,,,,,,,,,,,,,,,,,,,,,,,,,,,,,,,,,,,,,
462101,001,2022-11-13_23h38.54.634,Info_measure_main_exp,2022.2.2,Win32,146.713615,,,,,,,,,,,,,,,,,,masks/mask_005.jpg,,,,,,,,,,,,,,,,,,,,,,,,,,,,,,,,,,,,,,,,,,,0,2,2,4,1,,,,,,,,,,,,,,,,,,,,,,,,,,,,,,,,,,,,,,,,,,,,,,
462101,001,2022-11-13_23h38.54.634,Info_measure_main_exp,2022.2.2,Win32,146.713615,,,,,,,,,,,,,,,,,,masks/mask_001.jpg,,,,,,,,,,,,,,,,,,,,,,,,,,,,,,,,,,,,,,,,,,,0,3,3,0,1,,,,,,,,,,,,,,,,,,,,,,,,,,,,,,,,,,,,,,,,,,,,,,
462101,001,2022-11-13_23h38.54.634,Info_measure_main_exp,2022.2.2,Win32,146.713615,,,,,,,,,,,,,,,,,,masks/mask_004.jpg,,,,,,,,,,,,,,,,,,,,,,,,,,,,,,,,,,,,,,,,,,,0,4,4,3,1,,,,,,,,,,,,,,,,,,,,,,,,,,,,,,,,,,,,,,,,,,,,,,
462101,001,2022-11-13_23h38.54.634,Info_measure_main_exp,2022.2.2,Win32,146.713615,,,,,,,,,,,,,,,,,,masks/mask_003.jpg,,,,,,,,,,,,,,,,,,,,,,,,,,,,,,,,,,,,,,,,,,,,,,,,0,0,0,2,1,,,,,,,,,,,,,,,,,,,,,,,,,,,,,,,,,,,,,,,,,
462101,001,2022-11-13_23h38.54.634,Info_measure_main_exp,2022.2.2,Win32,146.713615,,,,,,,,,,,,,,,,,,masks/mask_002.jpg,,,,,,,,,,,,,,,,,,,,,,,,,,,,,,,,,,,,,,,,,,,,,,,,0,1,1,1,1,,,,,,,,,,,,,,,,,,,,,,,,,,,,,,,,,,,,,,,,,
462101,001,2022-11-13_23h38.54.634,Info_measure_main_exp,2022.2.2,Win32,146.713615,,,,,,,,,,,,,,,,,,masks/mask_004.jpg,,,,,,,,,,,,,,,,,,,,,,,,,,,,,,,,,,,,,,,,,,,,,,,,0,2,2,3,1,,,,,,,,,,,,,,,,,,,,,,,,,,,,,,,,,,,,,,,,,
462101,001,2022-11-13_23h38.54.634,Info_measure_main_exp,2022.2.2,Win32,146.713615,,,,,,,,,,,,,,,,,,masks/mask_005.jpg,,,,,,,,,,,,,,,,,,,,,,,,,,,,,,,,,,,,,,,,,,,,,,,,0,3,3,4,1,,,,,,,,,,,,,,,,,,,,,,,,,,,,,,,,,,,,,,,,,
462101,001,2022-11-13_23h38.54.634,Info_measure_main_exp,2022.2.2,Win32,146.713615,,,,,,,,,,,,,,,,,,masks/mask_001.jpg,,,,,,,,,,,,,,,,,,,,,,,,,,,,,,,,,,,,,,,,,,,,,,,,0,4,4,0,1,,,,,,,,,,,,,,,,,,,,,,,,,,,,,,,,,,,,,,,,,
462101,001,2022-11-13_23h38.54.634,Info_measure_main_exp,2022.2.2,Win32,146.713615,,,,,,,,,,,,,,,,,,,,,,,,,,,,,,0,0.9547,1,,,,,,,,,,,,0,131,5,5,2274,2274,absent_patch/patch0002274.jpg,absent_patch/patch0002274.jpg,,,,,,,,,,,,,,,,,,,,-0.061111097,0.173148155,1,0,0,response7disk,24,0.001851894,0.0074074,1,0,0,center_square,0,23,23,114,1,,,,,,,,,,,,,,,,,,,,,,,
462101,001,2022-11-13_23h38.54.634,Info_measure_main_exp,2022.2.2,Win32,146.713615,,,,,,,,,,,,,,,,,,masks/mask_004.jpg,,,,,,,,,,,,,,,,,,,,,,,,,,,,,,,,,,,,,,,,,,,0,0,0,3,1,,,,,,,,,,,,,,,,,,,,,,,,,,,,,,,,,,,,,,,,,,,,,,
462101,001,2022-11-13_23h38.54.634,Info_measure_main_exp,2022.2.2,Win32,146.713615,,,,,,,,,,,,,,,,,,masks/mask_003.jpg,,,,,,,,,,,,,,,,,,,,,,,,,,,,,,,,,,,,,,,,,,,0,1,1,2,1,,,,,,,,,,,,,,,,,,,,,,,,,,,,,,,,,,,,,,,,,,,,,,
462101,001,2022-11-13_23h38.54.634,Info_measure_main_exp,2022.2.2,Win32,146.713615,,,,,,,,,,,,,,,,,,masks/mask_001.jpg,,,,,,,,,,,,,,,,,,,,,,,,,,,,,,,,,,,,,,,,,,,0,2,2,0,1,,,,,,,,,,,,,,,,,,,,,,,,,,,,,,,,,,,,,,,,,,,,,,
462101,001,2022-11-13_23h38.54.634,Info_measure_main_exp,2022.2.2,Win32,146.713615,,,,,,,,,,,,,,,,,,masks/mask_005.jpg,,,,,,,,,,,,,,,,,,,,,,,,,,,,,,,,,,,,,,,,,,,0,3,3,4,1,,,,,,,,,,,,,,,,,,,,,,,,,,,,,,,,,,,,,,,,,,,,,,
462101,001,2022-11-13_23h38.54.634,Info_measure_main_exp,2022.2.2,Win32,146.713615,,,,,,,,,,,,,,,,,,masks/mask_002.jpg,,,,,,,,,,,,,,,,,,,,,,,,,,,,,,,,,,,,,,,,,,,0,4,4,1,1,,,,,,,,,,,,,,,,,,,,,,,,,,,,,,,,,,,,,,,,,,,,,,
462101,001,2022-11-13_23h38.54.634,Info_measure_main_exp,2022.2.2,Win32,146.713615,,,,,,,,,,,,,,,,,,masks/mask_004.jpg,,,,,,,,,,,,,,,,,,,,,,,,,,,,,,,,,,,,,,,,,,,,,,,,0,0,0,3,1,,,,,,,,,,,,,,,,,,,,,,,,,,,,,,,,,,,,,,,,,
462101,001,2022-11-13_23h38.54.634,Info_measure_main_exp,2022.2.2,Win32,146.713615,,,,,,,,,,,,,,,,,,masks/mask_001.jpg,,,,,,,,,,,,,,,,,,,,,,,,,,,,,,,,,,,,,,,,,,,,,,,,0,1,1,0,1,,,,,,,,,,,,,,,,,,,,,,,,,,,,,,,,,,,,,,,,,
462101,001,2022-11-13_23h38.54.634,Info_measure_main_exp,2022.2.2,Win32,146.713615,,,,,,,,,,,,,,,,,,masks/mask_003.jpg,,,,,,,,,,,,,,,,,,,,,,,,,,,,,,,,,,,,,,,,,,,,,,,,0,2,2,2,1,,,,,,,,,,,,,,,,,,,,,,,,,,,,,,,,,,,,,,,,,
462101,001,2022-11-13_23h38.54.634,Info_measure_main_exp,2022.2.2,Win32,146.713615,,,,,,,,,,,,,,,,,,masks/mask_002.jpg,,,,,,,,,,,,,,,,,,,,,,,,,,,,,,,,,,,,,,,,,,,,,,,,0,3,3,1,1,,,,,,,,,,,,,,,,,,,,,,,,,,,,,,,,,,,,,,,,,
462101,001,2022-11-13_23h38.54.634,Info_measure_main_exp,2022.2.2,Win32,146.713615,,,,,,,,,,,,,,,,,,masks/mask_005.jpg,,,,,,,,,,,,,,,,,,,,,,,,,,,,,,,,,,,,,,,,,,,,,,,,0,4,4,4,1,,,,,,,,,,,,,,,,,,,,,,,,,,,,,,,,,,,,,,,,,
462101,001,2022-11-13_23h38.54.634,Info_measure_main_exp,2022.2.2,Win32,146.713615,,,,,,,,,,,,,,,,,,,,,,,,,,,,,,5,1.1255,1,,,,,,,,,,,,0,131,5,5,2190,1950,absent_patch/patch0002190.jpg,absent_patch/patch0001950.jpg,,,,,,,,,,,,,,,,,,,,0.08148151,-0.050925926,1,0,0,response3disk,25,0.007407436,-0.001851859,1,0,0,center_square,0,24,24,73,1,,,,,,,,,,,,,,,,,,,,,,,
462101,001,2022-11-13_23h38.54.634,Info_measure_main_exp,2022.2.2,Win32,146.713615,,,,,,,,,,,,,,,,,,masks/mask_001.jpg,,,,,,,,,,,,,,,,,,,,,,,,,,,,,,,,,,,,,,,,,,,0,0,0,0,1,,,,,,,,,,,,,,,,,,,,,,,,,,,,,,,,,,,,,,,,,,,,,,
462101,001,2022-11-13_23h38.54.634,Info_measure_main_exp,2022.2.2,Win32,146.713615,,,,,,,,,,,,,,,,,,masks/mask_003.jpg,,,,,,,,,,,,,,,,,,,,,,,,,,,,,,,,,,,,,,,,,,,0,1,1,2,1,,,,,,,,,,,,,,,,,,,,,,,,,,,,,,,,,,,,,,,,,,,,,,
462101,001,2022-11-13_23h38.54.634,Info_measure_main_exp,2022.2.2,Win32,146.713615,,,,,,,,,,,,,,,,,,masks/mask_002.jpg,,,,,,,,,,,,,,,,,,,,,,,,,,,,,,,,,,,,,,,,,,,0,2,2,1,1,,,,,,,,,,,,,,,,,,,,,,,,,,,,,,,,,,,,,,,,,,,,,,
462101,001,2022-11-13_23h38.54.634,Info_measure_main_exp,2022.2.2,Win32,146.713615,,,,,,,,,,,,,,,,,,masks/mask_005.jpg,,,,,,,,,,,,,,,,,,,,,,,,,,,,,,,,,,,,,,,,,,,0,3,3,4,1,,,,,,,,,,,,,,,,,,,,,,,,,,,,,,,,,,,,,,,,,,,,,,
462101,001,2022-11-13_23h38.54.634,Info_measure_main_exp,2022.2.2,Win32,146.713615,,,,,,,,,,,,,,,,,,masks/mask_004.jpg,,,,,,,,,,,,,,,,,,,,,,,,,,,,,,,,,,,,,,,,,,,0,4,4,3,1,,,,,,,,,,,,,,,,,,,,,,,,,,,,,,,,,,,,,,,,,,,,,,
462101,001,2022-11-13_23h38.54.634,Info_measure_main_exp,2022.2.2,Win32,146.713615,,,,,,,,,,,,,,,,,,masks/mask_003.jpg,,,,,,,,,,,,,,,,,,,,,,,,,,,,,,,,,,,,,,,,,,,,,,,,0,0,0,2,1,,,,,,,,,,,,,,,,,,,,,,,,,,,,,,,,,,,,,,,,,
462101,001,2022-11-13_23h38.54.634,Info_measure_main_exp,2022.2.2,Win32,146.713615,,,,,,,,,,,,,,,,,,masks/mask_005.jpg,,,,,,,,,,,,,,,,,,,,,,,,,,,,,,,,,,,,,,,,,,,,,,,,0,1,1,4,1,,,,,,,,,,,,,,,,,,,,,,,,,,,,,,,,,,,,,,,,,
462101,001,2022-11-13_23h38.54.634,Info_measure_main_exp,2022.2.2,Win32,146.713615,,,,,,,,,,,,,,,,,,masks/mask_004.jpg,,,,,,,,,,,,,,,,,,,,,,,,,,,,,,,,,,,,,,,,,,,,,,,,0,2,2,3,1,,,,,,,,,,,,,,,,,,,,,,,,,,,,,,,,,,,,,,,,,
462101,001,2022-11-13_23h38.54.634,Info_measure_main_exp,2022.2.2,Win32,146.713615,,,,,,,,,,,,,,,,,,masks/mask_002.jpg,,,,,,,,,,,,,,,,,,,,,,,,,,,,,,,,,,,,,,,,,,,,,,,,0,3,3,1,1,,,,,,,,,,,,,,,,,,,,,,,,,,,,,,,,,,,,,,,,,
462101,001,2022-11-13_23h38.54.634,Info_measure_main_exp,2022.2.2,Win32,146.713615,,,,,,,,,,,,,,,,,,masks/mask_001.jpg,,,,,,,,,,,,,,,,,,,,,,,,,,,,,,,,,,,,,,,,,,,,,,,,0,4,4,0,1,,,,,,,,,,,,,,,,,,,,,,,,,,,,,,,,,,,,,,,,,
462101,001,2022-11-13_23h38.54.634,Info_measure_main_exp,2022.2.2,Win32,146.713615,,,,,,,,,,,,,,,,,,,,,,,,,,,,,,5,1.1125,1,,,,,,,,,,,,0,131,5,5,2238,2214,absent_patch/patch0002238.jpg,absent_patch/patch0002214.jpg,,,,,,,,,,,,,,,,,,,,0.110185199,-0.020370377,1,0,0,response3disk,26,0.002777806,0,1,0,0,center_square,0,25,25,81,1,,,,,,,,,,,,,,,,,,,,,,,
462101,001,2022-11-13_23h38.54.634,Info_measure_main_exp,2022.2.2,Win32,146.713615,,,,,,,,,,,,,,,,,,masks/mask_002.jpg,,,,,,,,,,,,,,,,,,,,,,,,,,,,,,,,,,,,,,,,,,,0,0,0,1,1,,,,,,,,,,,,,,,,,,,,,,,,,,,,,,,,,,,,,,,,,,,,,,
462101,001,2022-11-13_23h38.54.634,Info_measure_main_exp,2022.2.2,Win32,146.713615,,,,,,,,,,,,,,,,,,masks/mask_001.jpg,,,,,,,,,,,,,,,,,,,,,,,,,,,,,,,,,,,,,,,,,,,0,1,1,0,1,,,,,,,,,,,,,,,,,,,,,,,,,,,,,,,,,,,,,,,,,,,,,,
462101,001,2022-11-13_23h38.54.634,Info_measure_main_exp,2022.2.2,Win32,146.713615,,,,,,,,,,,,,,,,,,masks/mask_005.jpg,,,,,,,,,,,,,,,,,,,,,,,,,,,,,,,,,,,,,,,,,,,0,2,2,4,1,,,,,,,,,,,,,,,,,,,,,,,,,,,,,,,,,,,,,,,,,,,,,,
462101,001,2022-11-13_23h38.54.634,Info_measure_main_exp,2022.2.2,Win32,146.713615,,,,,,,,,,,,,,,,,,masks/mask_003.jpg,,,,,,,,,,,,,,,,,,,,,,,,,,,,,,,,,,,,,,,,,,,0,3,3,2,1,,,,,,,,,,,,,,,,,,,,,,,,,,,,,,,,,,,,,,,,,,,,,,
462101,001,2022-11-13_23h38.54.634,Info_measure_main_exp,2022.2.2,Win32,146.713615,,,,,,,,,,,,,,,,,,masks/mask_004.jpg,,,,,,,,,,,,,,,,,,,,,,,,,,,,,,,,,,,,,,,,,,,0,4,4,3,1,,,,,,,,,,,,,,,,,,,,,,,,,,,,,,,,,,,,,,,,,,,,,,
462101,001,2022-11-13_23h38.54.634,Info_measure_main_exp,2022.2.2,Win32,146.713615,,,,,,,,,,,,,,,,,,masks/mask_002.jpg,,,,,,,,,,,,,,,,,,,,,,,,,,,,,,,,,,,,,,,,,,,,,,,,0,0,0,1,1,,,,,,,,,,,,,,,,,,,,,,,,,,,,,,,,,,,,,,,,,
462101,001,2022-11-13_23h38.54.634,Info_measure_main_exp,2022.2.2,Win32,146.713615,,,,,,,,,,,,,,,,,,masks/mask_004.jpg,,,,,,,,,,,,,,,,,,,,,,,,,,,,,,,,,,,,,,,,,,,,,,,,0,1,1,3,1,,,,,,,,,,,,,,,,,,,,,,,,,,,,,,,,,,,,,,,,,
462101,001,2022-11-13_23h38.54.634,Info_measure_main_exp,2022.2.2,Win32,146.713615,,,,,,,,,,,,,,,,,,masks/mask_005.jpg,,,,,,,,,,,,,,,,,,,,,,,,,,,,,,,,,,,,,,,,,,,,,,,,0,2,2,4,1,,,,,,,,,,,,,,,,,,,,,,,,,,,,,,,,,,,,,,,,,
462101,001,2022-11-13_23h38.54.634,Info_measure_main_exp,2022.2.2,Win32,146.713615,,,,,,,,,,,,,,,,,,masks/mask_003.jpg,,,,,,,,,,,,,,,,,,,,,,,,,,,,,,,,,,,,,,,,,,,,,,,,0,3,3,2,1,,,,,,,,,,,,,,,,,,,,,,,,,,,,,,,,,,,,,,,,,
462101,001,2022-11-13_23h38.54.634,Info_measure_main_exp,2022.2.2,Win32,146.713615,,,,,,,,,,,,,,,,,,masks/mask_001.jpg,,,,,,,,,,,,,,,,,,,,,,,,,,,,,,,,,,,,,,,,,,,,,,,,0,4,4,0,1,,,,,,,,,,,,,,,,,,,,,,,,,,,,,,,,,,,,,,,,,
462101,001,2022-11-13_23h38.54.634,Info_measure_main_exp,2022.2.2,Win32,146.713615,,,,,,,,,,,,,,,,,,,,,,,,,,,,,,6,1.7077,1,,,,,,,,,,,,0,131,5,5,2274,2178,absent_patch/patch0002274.jpg,absent_patch/patch0002178.jpg,,,,,,,,,,,,,,,,,,,,0.091666681,0.052777785,1,0,0,response1disk,27,0.002777806,0,1,0,0,center_square,0,26,26,117,1,,,,,,,,,,,,,,,,,,,,,,,
462101,001,2022-11-13_23h38.54.634,Info_measure_main_exp,2022.2.2,Win32,146.713615,,,,,,,,,,,,,,,,,,masks/mask_001.jpg,,,,,,,,,,,,,,,,,,,,,,,,,,,,,,,,,,,,,,,,,,,0,0,0,0,1,,,,,,,,,,,,,,,,,,,,,,,,,,,,,,,,,,,,,,,,,,,,,,
462101,001,2022-11-13_23h38.54.634,Info_measure_main_exp,2022.2.2,Win32,146.713615,,,,,,,,,,,,,,,,,,masks/mask_002.jpg,,,,,,,,,,,,,,,,,,,,,,,,,,,,,,,,,,,,,,,,,,,0,1,1,1,1,,,,,,,,,,,,,,,,,,,,,,,,,,,,,,,,,,,,,,,,,,,,,,
462101,001,2022-11-13_23h38.54.634,Info_measure_main_exp,2022.2.2,Win32,146.713615,,,,,,,,,,,,,,,,,,masks/mask_005.jpg,,,,,,,,,,,,,,,,,,,,,,,,,,,,,,,,,,,,,,,,,,,0,2,2,4,1,,,,,,,,,,,,,,,,,,,,,,,,,,,,,,,,,,,,,,,,,,,,,,
462101,001,2022-11-13_23h38.54.634,Info_measure_main_exp,2022.2.2,Win32,146.713615,,,,,,,,,,,,,,,,,,masks/mask_004.jpg,,,,,,,,,,,,,,,,,,,,,,,,,,,,,,,,,,,,,,,,,,,0,3,3,3,1,,,,,,,,,,,,,,,,,,,,,,,,,,,,,,,,,,,,,,,,,,,,,,
462101,001,2022-11-13_23h38.54.634,Info_measure_main_exp,2022.2.2,Win32,146.713615,,,,,,,,,,,,,,,,,,masks/mask_003.jpg,,,,,,,,,,,,,,,,,,,,,,,,,,,,,,,,,,,,,,,,,,,0,4,4,2,1,,,,,,,,,,,,,,,,,,,,,,,,,,,,,,,,,,,,,,,,,,,,,,
462101,001,2022-11-13_23h38.54.634,Info_measure_main_exp,2022.2.2,Win32,146.713615,,,,,,,,,,,,,,,,,,masks/mask_005.jpg,,,,,,,,,,,,,,,,,,,,,,,,,,,,,,,,,,,,,,,,,,,,,,,,0,0,0,4,1,,,,,,,,,,,,,,,,,,,,,,,,,,,,,,,,,,,,,,,,,
462101,001,2022-11-13_23h38.54.634,Info_measure_main_exp,2022.2.2,Win32,146.713615,,,,,,,,,,,,,,,,,,masks/mask_001.jpg,,,,,,,,,,,,,,,,,,,,,,,,,,,,,,,,,,,,,,,,,,,,,,,,0,1,1,0,1,,,,,,,,,,,,,,,,,,,,,,,,,,,,,,,,,,,,,,,,,
462101,001,2022-11-13_23h38.54.634,Info_measure_main_exp,2022.2.2,Win32,146.713615,,,,,,,,,,,,,,,,,,masks/mask_003.jpg,,,,,,,,,,,,,,,,,,,,,,,,,,,,,,,,,,,,,,,,,,,,,,,,0,2,2,2,1,,,,,,,,,,,,,,,,,,,,,,,,,,,,,,,,,,,,,,,,,
462101,001,2022-11-13_23h38.54.634,Info_measure_main_exp,2022.2.2,Win32,146.713615,,,,,,,,,,,,,,,,,,masks/mask_002.jpg,,,,,,,,,,,,,,,,,,,,,,,,,,,,,,,,,,,,,,,,,,,,,,,,0,3,3,1,1,,,,,,,,,,,,,,,,,,,,,,,,,,,,,,,,,,,,,,,,,
462101,001,2022-11-13_23h38.54.634,Info_measure_main_exp,2022.2.2,Win32,146.713615,,,,,,,,,,,,,,,,,,masks/mask_004.jpg,,,,,,,,,,,,,,,,,,,,,,,,,,,,,,,,,,,,,,,,,,,,,,,,0,4,4,3,1,,,,,,,,,,,,,,,,,,,,,,,,,,,,,,,,,,,,,,,,,
462101,001,2022-11-13_23h38.54.634,Info_measure_main_exp,2022.2.2,Win32,146.713615,,,,,,,,,,,,,,,,,,,,,,,,,,,,,,0,0.9195,1,,,,,,,,,,,,0,131,5,5,2190,2190,absent_patch/patch0002190.jpg,absent_patch/patch0002190.jpg,,,,,,,,,,,,,,,,,,,,-0.051851838,0.143518519,1,0,0,response7disk,28,0.005555541,0.002777771,1,0,0,center_square,0,27,27,86,1,,,,,,,,,,,,,,,,,,,,,,,
462101,001,2022-11-13_23h38.54.634,Info_measure_main_exp,2022.2.2,Win32,146.713615,,,,,,,,,,,,,,,,,,masks/mask_001.jpg,,,,,,,,,,,,,,,,,,,,,,,,,,,,,,,,,,,,,,,,,,,0,0,0,0,1,,,,,,,,,,,,,,,,,,,,,,,,,,,,,,,,,,,,,,,,,,,,,,
462101,001,2022-11-13_23h38.54.634,Info_measure_main_exp,2022.2.2,Win32,146.713615,,,,,,,,,,,,,,,,,,masks/mask_003.jpg,,,,,,,,,,,,,,,,,,,,,,,,,,,,,,,,,,,,,,,,,,,0,1,1,2,1,,,,,,,,,,,,,,,,,,,,,,,,,,,,,,,,,,,,,,,,,,,,,,
462101,001,2022-11-13_23h38.54.634,Info_measure_main_exp,2022.2.2,Win32,146.713615,,,,,,,,,,,,,,,,,,masks/mask_002.jpg,,,,,,,,,,,,,,,,,,,,,,,,,,,,,,,,,,,,,,,,,,,0,2,2,1,1,,,,,,,,,,,,,,,,,,,,,,,,,,,,,,,,,,,,,,,,,,,,,,
462101,001,2022-11-13_23h38.54.634,Info_measure_main_exp,2022.2.2,Win32,146.713615,,,,,,,,,,,,,,,,,,masks/mask_004.jpg,,,,,,,,,,,,,,,,,,,,,,,,,,,,,,,,,,,,,,,,,,,0,3,3,3,1,,,,,,,,,,,,,,,,,,,,,,,,,,,,,,,,,,,,,,,,,,,,,,
462101,001,2022-11-13_23h38.54.634,Info_measure_main_exp,2022.2.2,Win32,146.713615,,,,,,,,,,,,,,,,,,masks/mask_005.jpg,,,,,,,,,,,,,,,,,,,,,,,,,,,,,,,,,,,,,,,,,,,0,4,4,4,1,,,,,,,,,,,,,,,,,,,,,,,,,,,,,,,,,,,,,,,,,,,,,,
462101,001,2022-11-13_23h38.54.634,Info_measure_main_exp,2022.2.2,Win32,146.713615,,,,,,,,,,,,,,,,,,masks/mask_002.jpg,,,,,,,,,,,,,,,,,,,,,,,,,,,,,,,,,,,,,,,,,,,,,,,,0,0,0,1,1,,,,,,,,,,,,,,,,,,,,,,,,,,,,,,,,,,,,,,,,,
462101,001,2022-11-13_23h38.54.634,Info_measure_main_exp,2022.2.2,Win32,146.713615,,,,,,,,,,,,,,,,,,masks/mask_004.jpg,,,,,,,,,,,,,,,,,,,,,,,,,,,,,,,,,,,,,,,,,,,,,,,,0,1,1,3,1,,,,,,,,,,,,,,,,,,,,,,,,,,,,,,,,,,,,,,,,,
462101,001,2022-11-13_23h38.54.634,Info_measure_main_exp,2022.2.2,Win32,146.713615,,,,,,,,,,,,,,,,,,masks/mask_005.jpg,,,,,,,,,,,,,,,,,,,,,,,,,,,,,,,,,,,,,,,,,,,,,,,,0,2,2,4,1,,,,,,,,,,,,,,,,,,,,,,,,,,,,,,,,,,,,,,,,,
462101,001,2022-11-13_23h38.54.634,Info_measure_main_exp,2022.2.2,Win32,146.713615,,,,,,,,,,,,,,,,,,masks/mask_001.jpg,,,,,,,,,,,,,,,,,,,,,,,,,,,,,,,,,,,,,,,,,,,,,,,,0,3,3,0,1,,,,,,,,,,,,,,,,,,,,,,,,,,,,,,,,,,,,,,,,,
462101,001,2022-11-13_23h38.54.634,Info_measure_main_exp,2022.2.2,Win32,146.713615,,,,,,,,,,,,,,,,,,masks/mask_003.jpg,,,,,,,,,,,,,,,,,,,,,,,,,,,,,,,,,,,,,,,,,,,,,,,,0,4,4,2,1,,,,,,,,,,,,,,,,,,,,,,,,,,,,,,,,,,,,,,,,,
462101,001,2022-11-13_23h38.54.634,Info_measure_main_exp,2022.2.2,Win32,146.713615,,,,,,,,,,,,,,,,,,,,,,,,,,,,,,6,0.7326,1,,,,,,,,,,,,1,131,5,5,1,1974,present_patch/cong_131_5_a.jpg,absent_patch/patch0001974.jpg,,,,,,,,,,,,,,,,,,,,0.077777792,0.01666666,1,0,0,response1disk,29,0.002777806,-0.0074074,1,0,0,center_square,0,28,28,69,1,,,,,,,,,,,,,,,,,,,,,,,
462101,001,2022-11-13_23h38.54.634,Info_measure_main_exp,2022.2.2,Win32,146.713615,,,,,,,,,,,,,,,,,,masks/mask_005.jpg,,,,,,,,,,,,,,,,,,,,,,,,,,,,,,,,,,,,,,,,,,,0,0,0,4,1,,,,,,,,,,,,,,,,,,,,,,,,,,,,,,,,,,,,,,,,,,,,,,
462101,001,2022-11-13_23h38.54.634,Info_measure_main_exp,2022.2.2,Win32,146.713615,,,,,,,,,,,,,,,,,,masks/mask_003.jpg,,,,,,,,,,,,,,,,,,,,,,,,,,,,,,,,,,,,,,,,,,,0,1,1,2,1,,,,,,,,,,,,,,,,,,,,,,,,,,,,,,,,,,,,,,,,,,,,,,
462101,001,2022-11-13_23h38.54.634,Info_measure_main_exp,2022.2.2,Win32,146.713615,,,,,,,,,,,,,,,,,,masks/mask_001.jpg,,,,,,,,,,,,,,,,,,,,,,,,,,,,,,,,,,,,,,,,,,,0,2,2,0,1,,,,,,,,,,,,,,,,,,,,,,,,,,,,,,,,,,,,,,,,,,,,,,
462101,001,2022-11-13_23h38.54.634,Info_measure_main_exp,2022.2.2,Win32,146.713615,,,,,,,,,,,,,,,,,,masks/mask_002.jpg,,,,,,,,,,,,,,,,,,,,,,,,,,,,,,,,,,,,,,,,,,,0,3,3,1,1,,,,,,,,,,,,,,,,,,,,,,,,,,,,,,,,,,,,,,,,,,,,,,
462101,001,2022-11-13_23h38.54.634,Info_measure_main_exp,2022.2.2,Win32,146.713615,,,,,,,,,,,,,,,,,,masks/mask_004.jpg,,,,,,,,,,,,,,,,,,,,,,,,,,,,,,,,,,,,,,,,,,,0,4,4,3,1,,,,,,,,,,,,,,,,,,,,,,,,,,,,,,,,,,,,,,,,,,,,,,
462101,001,2022-11-13_23h38.54.634,Info_measure_main_exp,2022.2.2,Win32,146.713615,,,,,,,,,,,,,,,,,,masks/mask_002.jpg,,,,,,,,,,,,,,,,,,,,,,,,,,,,,,,,,,,,,,,,,,,,,,,,0,0,0,1,1,,,,,,,,,,,,,,,,,,,,,,,,,,,,,,,,,,,,,,,,,
462101,001,2022-11-13_23h38.54.634,Info_measure_main_exp,2022.2.2,Win32,146.713615,,,,,,,,,,,,,,,,,,masks/mask_001.jpg,,,,,,,,,,,,,,,,,,,,,,,,,,,,,,,,,,,,,,,,,,,,,,,,0,1,1,0,1,,,,,,,,,,,,,,,,,,,,,,,,,,,,,,,,,,,,,,,,,
462101,001,2022-11-13_23h38.54.634,Info_measure_main_exp,2022.2.2,Win32,146.713615,,,,,,,,,,,,,,,,,,masks/mask_003.jpg,,,,,,,,,,,,,,,,,,,,,,,,,,,,,,,,,,,,,,,,,,,,,,,,0,2,2,2,1,,,,,,,,,,,,,,,,,,,,,,,,,,,,,,,,,,,,,,,,,
462101,001,2022-11-13_23h38.54.634,Info_measure_main_exp,2022.2.2,Win32,146.713615,,,,,,,,,,,,,,,,,,masks/mask_004.jpg,,,,,,,,,,,,,,,,,,,,,,,,,,,,,,,,,,,,,,,,,,,,,,,,0,3,3,3,1,,,,,,,,,,,,,,,,,,,,,,,,,,,,,,,,,,,,,,,,,
462101,001,2022-11-13_23h38.54.634,Info_measure_main_exp,2022.2.2,Win32,146.713615,,,,,,,,,,,,,,,,,,masks/mask_005.jpg,,,,,,,,,,,,,,,,,,,,,,,,,,,,,,,,,,,,,,,,,,,,,,,,0,4,4,4,1,,,,,,,,,,,,,,,,,,,,,,,,,,,,,,,,,,,,,,,,,
462101,001,2022-11-13_23h38.54.634,Info_measure_main_exp,2022.2.2,Win32,146.713615,,,,,,,,,,,,,,,,,,,,,,,,,,,,,,6,1.2018,1,,,,,,,,,,,,0,131,5,5,2166,2298,absent_patch/patch0002166.jpg,absent_patch/patch0002298.jpg,,,,,,,,,,,,,,,,,,,,0.112037023,0.047222208,1,0,0,response1disk,30,-0.005555541,-0.009259259,1,0,0,center_square,0,29,29,52,1,,,,,,,,,,,,,,,,,,,,,,,
462101,001,2022-11-13_23h38.54.634,Info_measure_main_exp,2022.2.2,Win32,146.713615,,,,,,,,,,,,,,,,,,masks/mask_001.jpg,,,,,,,,,,,,,,,,,,,,,,,,,,,,,,,,,,,,,,,,,,,0,0,0,0,1,,,,,,,,,,,,,,,,,,,,,,,,,,,,,,,,,,,,,,,,,,,,,,
462101,001,2022-11-13_23h38.54.634,Info_measure_main_exp,2022.2.2,Win32,146.713615,,,,,,,,,,,,,,,,,,masks/mask_002.jpg,,,,,,,,,,,,,,,,,,,,,,,,,,,,,,,,,,,,,,,,,,,0,1,1,1,1,,,,,,,,,,,,,,,,,,,,,,,,,,,,,,,,,,,,,,,,,,,,,,
462101,001,2022-11-13_23h38.54.634,Info_measure_main_exp,2022.2.2,Win32,146.713615,,,,,,,,,,,,,,,,,,masks/mask_005.jpg,,,,,,,,,,,,,,,,,,,,,,,,,,,,,,,,,,,,,,,,,,,0,2,2,4,1,,,,,,,,,,,,,,,,,,,,,,,,,,,,,,,,,,,,,,,,,,,,,,
462101,001,2022-11-13_23h38.54.634,Info_measure_main_exp,2022.2.2,Win32,146.713615,,,,,,,,,,,,,,,,,,masks/mask_003.jpg,,,,,,,,,,,,,,,,,,,,,,,,,,,,,,,,,,,,,,,,,,,0,3,3,2,1,,,,,,,,,,,,,,,,,,,,,,,,,,,,,,,,,,,,,,,,,,,,,,
462101,001,2022-11-13_23h38.54.634,Info_measure_main_exp,2022.2.2,Win32,146.713615,,,,,,,,,,,,,,,,,,masks/mask_004.jpg,,,,,,,,,,,,,,,,,,,,,,,,,,,,,,,,,,,,,,,,,,,0,4,4,3,1,,,,,,,,,,,,,,,,,,,,,,,,,,,,,,,,,,,,,,,,,,,,,,
462101,001,2022-11-13_23h38.54.634,Info_measure_main_exp,2022.2.2,Win32,146.713615,,,,,,,,,,,,,,,,,,masks/mask_002.jpg,,,,,,,,,,,,,,,,,,,,,,,,,,,,,,,,,,,,,,,,,,,,,,,,0,0,0,1,1,,,,,,,,,,,,,,,,,,,,,,,,,,,,,,,,,,,,,,,,,
462101,001,2022-11-13_23h38.54.634,Info_measure_main_exp,2022.2.2,Win32,146.713615,,,,,,,,,,,,,,,,,,masks/mask_005.jpg,,,,,,,,,,,,,,,,,,,,,,,,,,,,,,,,,,,,,,,,,,,,,,,,0,1,1,4,1,,,,,,,,,,,,,,,,,,,,,,,,,,,,,,,,,,,,,,,,,
462101,001,2022-11-13_23h38.54.634,Info_measure_main_exp,2022.2.2,Win32,146.713615,,,,,,,,,,,,,,,,,,masks/mask_004.jpg,,,,,,,,,,,,,,,,,,,,,,,,,,,,,,,,,,,,,,,,,,,,,,,,0,2,2,3,1,,,,,,,,,,,,,,,,,,,,,,,,,,,,,,,,,,,,,,,,,
462101,001,2022-11-13_23h38.54.634,Info_measure_main_exp,2022.2.2,Win32,146.713615,,,,,,,,,,,,,,,,,,masks/mask_001.jpg,,,,,,,,,,,,,,,,,,,,,,,,,,,,,,,,,,,,,,,,,,,,,,,,0,3,3,0,1,,,,,,,,,,,,,,,,,,,,,,,,,,,,,,,,,,,,,,,,,
462101,001,2022-11-13_23h38.54.634,Info_measure_main_exp,2022.2.2,Win32,146.713615,,,,,,,,,,,,,,,,,,masks/mask_003.jpg,,,,,,,,,,,,,,,,,,,,,,,,,,,,,,,,,,,,,,,,,,,,,,,,0,4,4,2,1,,,,,,,,,,,,,,,,,,,,,,,,,,,,,,,,,,,,,,,,,
462101,001,2022-11-13_23h38.54.634,Info_measure_main_exp,2022.2.2,Win32,146.713615,,,,,,,,,,,,,,,,,,,,,,,,,,,,,,7,0.5743,1,,,,,,,,,,,,0,131,5,5,2178,2238,absent_patch/patch0002178.jpg,absent_patch/patch0002238.jpg,,,,,,,,,,,,,,,,,,,,0.047222208,0.123148141,1,0,0,response1disk,31,-0.000925912,0.01203703,1,0,0,center_square,0,30,30,57,1,,,,,,,,,,,,,,,,,,,,,,,
462101,001,2022-11-13_23h38.54.634,Info_measure_main_exp,2022.2.2,Win32,146.713615,,,,,,,,,,,,,,,,,,masks/mask_002.jpg,,,,,,,,,,,,,,,,,,,,,,,,,,,,,,,,,,,,,,,,,,,0,0,0,1,1,,,,,,,,,,,,,,,,,,,,,,,,,,,,,,,,,,,,,,,,,,,,,,
462101,001,2022-11-13_23h38.54.634,Info_measure_main_exp,2022.2.2,Win32,146.713615,,,,,,,,,,,,,,,,,,masks/mask_004.jpg,,,,,,,,,,,,,,,,,,,,,,,,,,,,,,,,,,,,,,,,,,,0,1,1,3,1,,,,,,,,,,,,,,,,,,,,,,,,,,,,,,,,,,,,,,,,,,,,,,
462101,001,2022-11-13_23h38.54.634,Info_measure_main_exp,2022.2.2,Win32,146.713615,,,,,,,,,,,,,,,,,,masks/mask_005.jpg,,,,,,,,,,,,,,,,,,,,,,,,,,,,,,,,,,,,,,,,,,,0,2,2,4,1,,,,,,,,,,,,,,,,,,,,,,,,,,,,,,,,,,,,,,,,,,,,,,
462101,001,2022-11-13_23h38.54.634,Info_measure_main_exp,2022.2.2,Win32,146.713615,,,,,,,,,,,,,,,,,,masks/mask_003.jpg,,,,,,,,,,,,,,,,,,,,,,,,,,,,,,,,,,,,,,,,,,,0,3,3,2,1,,,,,,,,,,,,,,,,,,,,,,,,,,,,,,,,,,,,,,,,,,,,,,
462101,001,2022-11-13_23h38.54.634,Info_measure_main_exp,2022.2.2,Win32,146.713615,,,,,,,,,,,,,,,,,,masks/mask_001.jpg,,,,,,,,,,,,,,,,,,,,,,,,,,,,,,,,,,,,,,,,,,,0,4,4,0,1,,,,,,,,,,,,,,,,,,,,,,,,,,,,,,,,,,,,,,,,,,,,,,
462101,001,2022-11-13_23h38.54.634,Info_measure_main_exp,2022.2.2,Win32,146.713615,,,,,,,,,,,,,,,,,,masks/mask_005.jpg,,,,,,,,,,,,,,,,,,,,,,,,,,,,,,,,,,,,,,,,,,,,,,,,0,0,0,4,1,,,,,,,,,,,,,,,,,,,,,,,,,,,,,,,,,,,,,,,,,
462101,001,2022-11-13_23h38.54.634,Info_measure_main_exp,2022.2.2,Win32,146.713615,,,,,,,,,,,,,,,,,,masks/mask_001.jpg,,,,,,,,,,,,,,,,,,,,,,,,,,,,,,,,,,,,,,,,,,,,,,,,0,1,1,0,1,,,,,,,,,,,,,,,,,,,,,,,,,,,,,,,,,,,,,,,,,
462101,001,2022-11-13_23h38.54.634,Info_measure_main_exp,2022.2.2,Win32,146.713615,,,,,,,,,,,,,,,,,,masks/mask_002.jpg,,,,,,,,,,,,,,,,,,,,,,,,,,,,,,,,,,,,,,,,,,,,,,,,0,2,2,1,1,,,,,,,,,,,,,,,,,,,,,,,,,,,,,,,,,,,,,,,,,
462101,001,2022-11-13_23h38.54.634,Info_measure_main_exp,2022.2.2,Win32,146.713615,,,,,,,,,,,,,,,,,,masks/mask_003.jpg,,,,,,,,,,,,,,,,,,,,,,,,,,,,,,,,,,,,,,,,,,,,,,,,0,3,3,2,1,,,,,,,,,,,,,,,,,,,,,,,,,,,,,,,,,,,,,,,,,
462101,001,2022-11-13_23h38.54.634,Info_measure_main_exp,2022.2.2,Win32,146.713615,,,,,,,,,,,,,,,,,,masks/mask_004.jpg,,,,,,,,,,,,,,,,,,,,,,,,,,,,,,,,,,,,,,,,,,,,,,,,0,4,4,3,1,,,,,,,,,,,,,,,,,,,,,,,,,,,,,,,,,,,,,,,,,
462101,001,2022-11-13_23h38.54.634,Info_measure_main_exp,2022.2.2,Win32,146.713615,,,,,,,,,,,,,,,,,,,,,,,,,,,,,,5,0.8378,1,,,,,,,,,,,,0,131,5,5,2298,2214,absent_patch/patch0002298.jpg,absent_patch/patch0002214.jpg,,,,,,,,,,,,,,,,,,,,0.087962963,-0.025925919,1,0,0,response3disk,32,0,-0.002777771,1,0,0,center_square,0,31,31,99,1,,,,,,,,,,,,,,,,,,,,,,,
462101,001,2022-11-13_23h38.54.634,Info_measure_main_exp,2022.2.2,Win32,146.713615,,,,,,,,,,,,,,,,,,masks/mask_003.jpg,,,,,,,,,,,,,,,,,,,,,,,,,,,,,,,,,,,,,,,,,,,0,0,0,2,1,,,,,,,,,,,,,,,,,,,,,,,,,,,,,,,,,,,,,,,,,,,,,,
462101,001,2022-11-13_23h38.54.634,Info_measure_main_exp,2022.2.2,Win32,146.713615,,,,,,,,,,,,,,,,,,masks/mask_002.jpg,,,,,,,,,,,,,,,,,,,,,,,,,,,,,,,,,,,,,,,,,,,0,1,1,1,1,,,,,,,,,,,,,,,,,,,,,,,,,,,,,,,,,,,,,,,,,,,,,,
462101,001,2022-11-13_23h38.54.634,Info_measure_main_exp,2022.2.2,Win32,146.713615,,,,,,,,,,,,,,,,,,masks/mask_004.jpg,,,,,,,,,,,,,,,,,,,,,,,,,,,,,,,,,,,,,,,,,,,0,2,2,3,1,,,,,,,,,,,,,,,,,,,,,,,,,,,,,,,,,,,,,,,,,,,,,,
462101,001,2022-11-13_23h38.54.634,Info_measure_main_exp,2022.2.2,Win32,146.713615,,,,,,,,,,,,,,,,,,masks/mask_001.jpg,,,,,,,,,,,,,,,,,,,,,,,,,,,,,,,,,,,,,,,,,,,0,3,3,0,1,,,,,,,,,,,,,,,,,,,,,,,,,,,,,,,,,,,,,,,,,,,,,,
462101,001,2022-11-13_23h38.54.634,Info_measure_main_exp,2022.2.2,Win32,146.713615,,,,,,,,,,,,,,,,,,masks/mask_005.jpg,,,,,,,,,,,,,,,,,,,,,,,,,,,,,,,,,,,,,,,,,,,0,4,4,4,1,,,,,,,,,,,,,,,,,,,,,,,,,,,,,,,,,,,,,,,,,,,,,,
462101,001,2022-11-13_23h38.54.634,Info_measure_main_exp,2022.2.2,Win32,146.713615,,,,,,,,,,,,,,,,,,masks/mask_001.jpg,,,,,,,,,,,,,,,,,,,,,,,,,,,,,,,,,,,,,,,,,,,,,,,,0,0,0,0,1,,,,,,,,,,,,,,,,,,,,,,,,,,,,,,,,,,,,,,,,,
462101,001,2022-11-13_23h38.54.634,Info_measure_main_exp,2022.2.2,Win32,146.713615,,,,,,,,,,,,,,,,,,masks/mask_002.jpg,,,,,,,,,,,,,,,,,,,,,,,,,,,,,,,,,,,,,,,,,,,,,,,,0,1,1,1,1,,,,,,,,,,,,,,,,,,,,,,,,,,,,,,,,,,,,,,,,,
462101,001,2022-11-13_23h38.54.634,Info_measure_main_exp,2022.2.2,Win32,146.713615,,,,,,,,,,,,,,,,,,masks/mask_004.jpg,,,,,,,,,,,,,,,,,,,,,,,,,,,,,,,,,,,,,,,,,,,,,,,,0,2,2,3,1,,,,,,,,,,,,,,,,,,,,,,,,,,,,,,,,,,,,,,,,,
462101,001,2022-11-13_23h38.54.634,Info_measure_main_exp,2022.2.2,Win32,146.713615,,,,,,,,,,,,,,,,,,masks/mask_005.jpg,,,,,,,,,,,,,,,,,,,,,,,,,,,,,,,,,,,,,,,,,,,,,,,,0,3,3,4,1,,,,,,,,,,,,,,,,,,,,,,,,,,,,,,,,,,,,,,,,,
462101,001,2022-11-13_23h38.54.634,Info_measure_main_exp,2022.2.2,Win32,146.713615,,,,,,,,,,,,,,,,,,masks/mask_003.jpg,,,,,,,,,,,,,,,,,,,,,,,,,,,,,,,,,,,,,,,,,,,,,,,,0,4,4,2,1,,,,,,,,,,,,,,,,,,,,,,,,,,,,,,,,,,,,,,,,,
462101,001,2022-11-13_23h38.54.634,Info_measure_main_exp,2022.2.2,Win32,146.713615,,,,,,,,,,,,,,,,,,,,,,,,,,,,,,6,0.636,1,,,,,,,,,,,,0,131,5,5,2250,2214,absent_patch/patch0002250.jpg,absent_patch/patch0002214.jpg,,,,,,,,,,,,,,,,,,,,0.074999986,0.046296296,1,0,0,response1disk,33,0.012962977,0.00462963,1,0,0,center_square,0,32,32,97,1,,,,,,,,,,,,,,,,,,,,,,,
462101,001,2022-11-13_23h38.54.634,Info_measure_main_exp,2022.2.2,Win32,146.713615,,,,,,,,,,,,,,,,,,masks/mask_001.jpg,,,,,,,,,,,,,,,,,,,,,,,,,,,,,,,,,,,,,,,,,,,0,0,0,0,1,,,,,,,,,,,,,,,,,,,,,,,,,,,,,,,,,,,,,,,,,,,,,,
462101,001,2022-11-13_23h38.54.634,Info_measure_main_exp,2022.2.2,Win32,146.713615,,,,,,,,,,,,,,,,,,masks/mask_004.jpg,,,,,,,,,,,,,,,,,,,,,,,,,,,,,,,,,,,,,,,,,,,0,1,1,3,1,,,,,,,,,,,,,,,,,,,,,,,,,,,,,,,,,,,,,,,,,,,,,,
462101,001,2022-11-13_23h38.54.634,Info_measure_main_exp,2022.2.2,Win32,146.713615,,,,,,,,,,,,,,,,,,masks/mask_005.jpg,,,,,,,,,,,,,,,,,,,,,,,,,,,,,,,,,,,,,,,,,,,0,2,2,4,1,,,,,,,,,,,,,,,,,,,,,,,,,,,,,,,,,,,,,,,,,,,,,,
462101,001,2022-11-13_23h38.54.634,Info_measure_main_exp,2022.2.2,Win32,146.713615,,,,,,,,,,,,,,,,,,masks/mask_002.jpg,,,,,,,,,,,,,,,,,,,,,,,,,,,,,,,,,,,,,,,,,,,0,3,3,1,1,,,,,,,,,,,,,,,,,,,,,,,,,,,,,,,,,,,,,,,,,,,,,,
462101,001,2022-11-13_23h38.54.634,Info_measure_main_exp,2022.2.2,Win32,146.713615,,,,,,,,,,,,,,,,,,masks/mask_003.jpg,,,,,,,,,,,,,,,,,,,,,,,,,,,,,,,,,,,,,,,,,,,0,4,4,2,1,,,,,,,,,,,,,,,,,,,,,,,,,,,,,,,,,,,,,,,,,,,,,,
462101,001,2022-11-13_23h38.54.634,Info_measure_main_exp,2022.2.2,Win32,146.713615,,,,,,,,,,,,,,,,,,masks/mask_003.jpg,,,,,,,,,,,,,,,,,,,,,,,,,,,,,,,,,,,,,,,,,,,,,,,,0,0,0,2,1,,,,,,,,,,,,,,,,,,,,,,,,,,,,,,,,,,,,,,,,,
462101,001,2022-11-13_23h38.54.634,Info_measure_main_exp,2022.2.2,Win32,146.713615,,,,,,,,,,,,,,,,,,masks/mask_005.jpg,,,,,,,,,,,,,,,,,,,,,,,,,,,,,,,,,,,,,,,,,,,,,,,,0,1,1,4,1,,,,,,,,,,,,,,,,,,,,,,,,,,,,,,,,,,,,,,,,,
462101,001,2022-11-13_23h38.54.634,Info_measure_main_exp,2022.2.2,Win32,146.713615,,,,,,,,,,,,,,,,,,masks/mask_001.jpg,,,,,,,,,,,,,,,,,,,,,,,,,,,,,,,,,,,,,,,,,,,,,,,,0,2,2,0,1,,,,,,,,,,,,,,,,,,,,,,,,,,,,,,,,,,,,,,,,,
462101,001,2022-11-13_23h38.54.634,Info_measure_main_exp,2022.2.2,Win32,146.713615,,,,,,,,,,,,,,,,,,masks/mask_004.jpg,,,,,,,,,,,,,,,,,,,,,,,,,,,,,,,,,,,,,,,,,,,,,,,,0,3,3,3,1,,,,,,,,,,,,,,,,,,,,,,,,,,,,,,,,,,,,,,,,,
462101,001,2022-11-13_23h38.54.634,Info_measure_main_exp,2022.2.2,Win32,146.713615,,,,,,,,,,,,,,,,,,masks/mask_002.jpg,,,,,,,,,,,,,,,,,,,,,,,,,,,,,,,,,,,,,,,,,,,,,,,,0,4,4,1,1,,,,,,,,,,,,,,,,,,,,,,,,,,,,,,,,,,,,,,,,,
462101,001,2022-11-13_23h38.54.634,Info_measure_main_exp,2022.2.2,Win32,146.713615,,,,,,,,,,,,,,,,,,,,,,,,,,,,,,6,0.8418,1,,,,,,,,,,,,0,131,5,5,2238,2298,absent_patch/patch0002238.jpg,absent_patch/patch0002298.jpg,,,,,,,,,,,,,,,,,,,,0.069444444,0.03148146,1,0,0,response1disk,34,0.005555541,0,1,0,0,center_square,0,33,33,51,1,,,,,,,,,,,,,,,,,,,,,,,
462101,001,2022-11-13_23h38.54.634,Info_measure_main_exp,2022.2.2,Win32,146.713615,,,,,,,,,,,,,,,,,,masks/mask_002.jpg,,,,,,,,,,,,,,,,,,,,,,,,,,,,,,,,,,,,,,,,,,,0,0,0,1,1,,,,,,,,,,,,,,,,,,,,,,,,,,,,,,,,,,,,,,,,,,,,,,
462101,001,2022-11-13_23h38.54.634,Info_measure_main_exp,2022.2.2,Win32,146.713615,,,,,,,,,,,,,,,,,,masks/mask_003.jpg,,,,,,,,,,,,,,,,,,,,,,,,,,,,,,,,,,,,,,,,,,,0,1,1,2,1,,,,,,,,,,,,,,,,,,,,,,,,,,,,,,,,,,,,,,,,,,,,,,
462101,001,2022-11-13_23h38.54.634,Info_measure_main_exp,2022.2.2,Win32,146.713615,,,,,,,,,,,,,,,,,,masks/mask_005.jpg,,,,,,,,,,,,,,,,,,,,,,,,,,,,,,,,,,,,,,,,,,,0,2,2,4,1,,,,,,,,,,,,,,,,,,,,,,,,,,,,,,,,,,,,,,,,,,,,,,
462101,001,2022-11-13_23h38.54.634,Info_measure_main_exp,2022.2.2,Win32,146.713615,,,,,,,,,,,,,,,,,,masks/mask_004.jpg,,,,,,,,,,,,,,,,,,,,,,,,,,,,,,,,,,,,,,,,,,,0,3,3,3,1,,,,,,,,,,,,,,,,,,,,,,,,,,,,,,,,,,,,,,,,,,,,,,
462101,001,2022-11-13_23h38.54.634,Info_measure_main_exp,2022.2.2,Win32,146.713615,,,,,,,,,,,,,,,,,,masks/mask_001.jpg,,,,,,,,,,,,,,,,,,,,,,,,,,,,,,,,,,,,,,,,,,,0,4,4,0,1,,,,,,,,,,,,,,,,,,,,,,,,,,,,,,,,,,,,,,,,,,,,,,
462101,001,2022-11-13_23h38.54.634,Info_measure_main_exp,2022.2.2,Win32,146.713615,,,,,,,,,,,,,,,,,,masks/mask_003.jpg,,,,,,,,,,,,,,,,,,,,,,,,,,,,,,,,,,,,,,,,,,,,,,,,0,0,0,2,1,,,,,,,,,,,,,,,,,,,,,,,,,,,,,,,,,,,,,,,,,
462101,001,2022-11-13_23h38.54.634,Info_measure_main_exp,2022.2.2,Win32,146.713615,,,,,,,,,,,,,,,,,,masks/mask_005.jpg,,,,,,,,,,,,,,,,,,,,,,,,,,,,,,,,,,,,,,,,,,,,,,,,0,1,1,4,1,,,,,,,,,,,,,,,,,,,,,,,,,,,,,,,,,,,,,,,,,
462101,001,2022-11-13_23h38.54.634,Info_measure_main_exp,2022.2.2,Win32,146.713615,,,,,,,,,,,,,,,,,,masks/mask_004.jpg,,,,,,,,,,,,,,,,,,,,,,,,,,,,,,,,,,,,,,,,,,,,,,,,0,2,2,3,1,,,,,,,,,,,,,,,,,,,,,,,,,,,,,,,,,,,,,,,,,
462101,001,2022-11-13_23h38.54.634,Info_measure_main_exp,2022.2.2,Win32,146.713615,,,,,,,,,,,,,,,,,,masks/mask_002.jpg,,,,,,,,,,,,,,,,,,,,,,,,,,,,,,,,,,,,,,,,,,,,,,,,0,3,3,1,1,,,,,,,,,,,,,,,,,,,,,,,,,,,,,,,,,,,,,,,,,
462101,001,2022-11-13_23h38.54.634,Info_measure_main_exp,2022.2.2,Win32,146.713615,,,,,,,,,,,,,,,,,,masks/mask_001.jpg,,,,,,,,,,,,,,,,,,,,,,,,,,,,,,,,,,,,,,,,,,,,,,,,0,4,4,0,1,,,,,,,,,,,,,,,,,,,,,,,,,,,,,,,,,,,,,,,,,
