participant,session,date,expName,psychopyVersion,OS,frameRate,space_press_continue.keys,space_press_continue.rt,space_press_continue_2.keys,space_press_continue_2.rt,space_press_continue_3.keys,space_press_continue_3.rt,space_press_continue_4.keys,space_press_continue_4.rt,space_press_continue_5.keys,space_press_continue_5.rt,space_press_continue_6.keys,space_press_continue_6.rt,prac_mask_loop_1.thisRepN,prac_mask_loop_1.thisTrialN,prac_mask_loop_1.thisN,prac_mask_loop_1.thisIndex,prac_mask_loop_1.ran,mask_name,prac_mask_loop_2.thisRepN,prac_mask_loop_2.thisTrialN,prac_mask_loop_2.thisN,prac_mask_loop_2.thisIndex,prac_mask_loop_2.ran,mouse_2.x,mouse_2.y,mouse_2.leftButton,mouse_2.midButton,mouse_2.rightButton,mouse_2.clicked_name,similarity,response_time,Pass,mouse_12.x,mouse_12.y,mouse_12.leftButton,mouse_12.midButton,mouse_12.rightButton,mouse_12.clicked_name,prac_loop.thisRepN,prac_loop.thisTrialN,prac_loop.thisN,prac_loop.thisIndex,prac_loop.ran,Pair_type,Image_num,Patch_1_loc,Patch_2_loc,Patch_1_info,Patch_2_info,Patch_1_name,Patch_2_name,mouse_1.x,mouse_1.y,mouse_1.leftButton,mouse_1.midButton,mouse_1.rightButton,mouse_1.time,mouse_1.clicked_name,space_press_continue_7.keys,space_press_continue_7.rt,mask_loop.thisRepN,mask_loop.thisTrialN,mask_loop.thisN,mask_loop.thisIndex,mask_loop.ran,mask_loop_2.thisRepN,mask_loop_2.thisTrialN,mask_loop_2.thisN,mask_loop_2.thisIndex,mask_loop_2.ran,mouse.x,mouse.y,mouse.leftButton,mouse.midButton,mouse.rightButton,mouse.clicked_name,trialNumber,mouse_11.x,mouse_11.y,mouse_11.leftButton,mouse_11.midButton,mouse_11.rightButton,mouse_11.clicked_name,first_pass_loop.thisRepN,first_pass_loop.thisTrialN,first_pass_loop.thisN,first_pass_loop.thisIndex,first_pass_loop.ran,mask_loop_3.thisRepN,mask_loop_3.thisTrialN,mask_loop_3.thisN,mask_loop_3.thisIndex,mask_loop_3.ran,mask_loop_4.thisRepN,mask_loop_4.thisTrialN,mask_loop_4.thisN,mask_loop_4.thisIndex,mask_loop_4.ran,mouse_3.x,mouse_3.y,mouse_3.leftButton,mouse_3.midButton,mouse_3.rightButton,mouse_3.clicked_name,double_pass_loop.thisRepN,double_pass_loop.thisTrialN,double_pass_loop.thisN,double_pass_loop.thisIndex,double_pass_loop.ran,space_exit.keys,space_exit.rt
476547,001,2022-11-21_01h26.10.082,Info_measure_main_exp,2022.2.2,Win32,143.8641922,,,,,,,,,,,,,,,,,,,,,,,,,,,,,,,,,,,,,,,,,,,,,,,,,,,,,,,,,,,,,,,,,,,,,,,,,,,,,,,,,,,,,,,,,,,,,,,,,,,,,,,,,,,,,,,
476547,001,2022-11-21_01h26.10.082,Info_measure_main_exp,2022.2.2,Win32,143.8641922,,,,,,,,,,,,,,,,,,,,,,,,,,,,,,,,,,,,,,,,,,,,,,,,,,,,,,,,,,,,,,,,,,,,,,,,,,,,,,,,,,,,,,,,,,,,,,,,,,,,,,,,,,,,,,,
476547,001,2022-11-21_01h26.10.082,Info_measure_main_exp,2022.2.2,Win32,143.8641922,space,2.3492,,,,,,,,,,,,,,,,,,,,,,,,,,,,,,,,,,,,,,,,,,,,,,,,,,,,,,,,,,,,,,,,,,,,,,,,,,,,,,,,,,,,,,,,,,,,,,,,,,,,,,,,,,,,,
476547,001,2022-11-21_01h26.10.082,Info_measure_main_exp,2022.2.2,Win32,143.8641922,,,space,0.652,,,,,,,,,,,,,,,,,,,,,,,,,,,,,,,,,,,,,,,,,,,,,,,,,,,,,,,,,,,,,,,,,,,,,,,,,,,,,,,,,,,,,,,,,,,,,,,,,,,,,,,,,,,
476547,001,2022-11-21_01h26.10.082,Info_measure_main_exp,2022.2.2,Win32,143.8641922,,,,,space,0.4413,,,,,,,,,,,,,,,,,,,,,,,,,,,,,,,,,,,,,,,,,,,,,,,,,,,,,,,,,,,,,,,,,,,,,,,,,,,,,,,,,,,,,,,,,,,,,,,,,,,,,,,,,
476547,001,2022-11-21_01h26.10.082,Info_measure_main_exp,2022.2.2,Win32,143.8641922,,,,,,,space,0.8724,,,,,,,,,,,,,,,,,,,,,,,,,,,,,,,,,,,,,,,,,,,,,,,,,,,,,,,,,,,,,,,,,,,,,,,,,,,,,,,,,,,,,,,,,,,,,,,,,,,,,,,
476547,001,2022-11-21_01h26.10.082,Info_measure_main_exp,2022.2.2,Win32,143.8641922,,,,,,,,,space,0.5751,,,,,,,,,,,,,,,,,,,,,,,,,,,,,,,,,,,,,,,,,,,,,,,,,,,,,,,,,,,,,,,,,,,,,,,,,,,,,,,,,,,,,,,,,,,,,,,,,,,,,
476547,001,2022-11-21_01h26.10.082,Info_measure_main_exp,2022.2.2,Win32,143.8641922,,,,,,,,,,,space,0.5119,,,,,,,,,,,,,,,,,,,,,,,,,,,,,,,,,,,,,,,,,,,,,,,,,,,,,,,,,,,,,,,,,,,,,,,,,,,,,,,,,,,,,,,,,,,,,,,,,,,
476547,001,2022-11-21_01h26.10.082,Info_measure_main_exp,2022.2.2,Win32,143.8641922,,,,,,,,,,,,,0,0,0,4,1,masks/mask_005.jpg,,,,,,,,,,,,,,,,,,,,,,,,,,,,,,,,,,,,,,,,,,,,,,,,,,,,,,,,,,,,,,,,,,,,,,,,,,,,,,,,,,,,,,,,,,,,,
476547,001,2022-11-21_01h26.10.082,Info_measure_main_exp,2022.2.2,Win32,143.8641922,,,,,,,,,,,,,0,1,1,3,1,masks/mask_004.jpg,,,,,,,,,,,,,,,,,,,,,,,,,,,,,,,,,,,,,,,,,,,,,,,,,,,,,,,,,,,,,,,,,,,,,,,,,,,,,,,,,,,,,,,,,,,,,
476547,001,2022-11-21_01h26.10.082,Info_measure_main_exp,2022.2.2,Win32,143.8641922,,,,,,,,,,,,,0,2,2,0,1,masks/mask_001.jpg,,,,,,,,,,,,,,,,,,,,,,,,,,,,,,,,,,,,,,,,,,,,,,,,,,,,,,,,,,,,,,,,,,,,,,,,,,,,,,,,,,,,,,,,,,,,,
476547,001,2022-11-21_01h26.10.082,Info_measure_main_exp,2022.2.2,Win32,143.8641922,,,,,,,,,,,,,0,3,3,1,1,masks/mask_002.jpg,,,,,,,,,,,,,,,,,,,,,,,,,,,,,,,,,,,,,,,,,,,,,,,,,,,,,,,,,,,,,,,,,,,,,,,,,,,,,,,,,,,,,,,,,,,,,
476547,001,2022-11-21_01h26.10.082,Info_measure_main_exp,2022.2.2,Win32,143.8641922,,,,,,,,,,,,,0,4,4,2,1,masks/mask_003.jpg,,,,,,,,,,,,,,,,,,,,,,,,,,,,,,,,,,,,,,,,,,,,,,,,,,,,,,,,,,,,,,,,,,,,,,,,,,,,,,,,,,,,,,,,,,,,,
476547,001,2022-11-21_01h26.10.082,Info_measure_main_exp,2022.2.2,Win32,143.8641922,,,,,,,,,,,,,,,,,,masks/mask_001.jpg,0,0,0,0,1,,,,,,,,,,,,,,,,,,,,,,,,,,,,,,,,,,,,,,,,,,,,,,,,,,,,,,,,,,,,,,,,,,,,,,,,,,,,,,,,,,,,,,,,
476547,001,2022-11-21_01h26.10.082,Info_measure_main_exp,2022.2.2,Win32,143.8641922,,,,,,,,,,,,,,,,,,masks/mask_004.jpg,0,1,1,3,1,,,,,,,,,,,,,,,,,,,,,,,,,,,,,,,,,,,,,,,,,,,,,,,,,,,,,,,,,,,,,,,,,,,,,,,,,,,,,,,,,,,,,,,,
476547,001,2022-11-21_01h26.10.082,Info_measure_main_exp,2022.2.2,Win32,143.8641922,,,,,,,,,,,,,,,,,,masks/mask_005.jpg,0,2,2,4,1,,,,,,,,,,,,,,,,,,,,,,,,,,,,,,,,,,,,,,,,,,,,,,,,,,,,,,,,,,,,,,,,,,,,,,,,,,,,,,,,,,,,,,,,
476547,001,2022-11-21_01h26.10.082,Info_measure_main_exp,2022.2.2,Win32,143.8641922,,,,,,,,,,,,,,,,,,masks/mask_003.jpg,0,3,3,2,1,,,,,,,,,,,,,,,,,,,,,,,,,,,,,,,,,,,,,,,,,,,,,,,,,,,,,,,,,,,,,,,,,,,,,,,,,,,,,,,,,,,,,,,,
476547,001,2022-11-21_01h26.10.082,Info_measure_main_exp,2022.2.2,Win32,143.8641922,,,,,,,,,,,,,,,,,,masks/mask_002.jpg,0,4,4,1,1,,,,,,,,,,,,,,,,,,,,,,,,,,,,,,,,,,,,,,,,,,,,,,,,,,,,,,,,,,,,,,,,,,,,,,,,,,,,,,,,,,,,,,,,
476547,001,2022-11-21_01h26.10.082,Info_measure_main_exp,2022.2.2,Win32,143.8641922,,,,,,,,,,,,,,,,,,,,,,,,0.087962963,0.173148148,1,0,0,response1disk,7,8.109,1,-0.011111111,-0.006481481,1,0,0,center_square,0,0,0,1,1,0,131,5,5,2514,2490,prac_patch/patch0002514.jpg,prac_patch/patch0002490.jpg,,,,,,,,,,,,,,,,,,,,,,,,,,,,,,,,,,,,,,,,,,,,,,,,,,,,,,,,,,,,
476547,001,2022-11-21_01h26.10.082,Info_measure_main_exp,2022.2.2,Win32,143.8641922,,,,,,,,,,,,,0,0,0,3,1,masks/mask_004.jpg,,,,,,,,,,,,,,,,,,,,,,,,,,,,,,,,,,,,,,,,,,,,,,,,,,,,,,,,,,,,,,,,,,,,,,,,,,,,,,,,,,,,,,,,,,,,,
476547,001,2022-11-21_01h26.10.082,Info_measure_main_exp,2022.2.2,Win32,143.8641922,,,,,,,,,,,,,0,1,1,2,1,masks/mask_003.jpg,,,,,,,,,,,,,,,,,,,,,,,,,,,,,,,,,,,,,,,,,,,,,,,,,,,,,,,,,,,,,,,,,,,,,,,,,,,,,,,,,,,,,,,,,,,,,
476547,001,2022-11-21_01h26.10.082,Info_measure_main_exp,2022.2.2,Win32,143.8641922,,,,,,,,,,,,,0,2,2,1,1,masks/mask_002.jpg,,,,,,,,,,,,,,,,,,,,,,,,,,,,,,,,,,,,,,,,,,,,,,,,,,,,,,,,,,,,,,,,,,,,,,,,,,,,,,,,,,,,,,,,,,,,,
476547,001,2022-11-21_01h26.10.082,Info_measure_main_exp,2022.2.2,Win32,143.8641922,,,,,,,,,,,,,0,3,3,4,1,masks/mask_005.jpg,,,,,,,,,,,,,,,,,,,,,,,,,,,,,,,,,,,,,,,,,,,,,,,,,,,,,,,,,,,,,,,,,,,,,,,,,,,,,,,,,,,,,,,,,,,,,
476547,001,2022-11-21_01h26.10.082,Info_measure_main_exp,2022.2.2,Win32,143.8641922,,,,,,,,,,,,,0,4,4,0,1,masks/mask_001.jpg,,,,,,,,,,,,,,,,,,,,,,,,,,,,,,,,,,,,,,,,,,,,,,,,,,,,,,,,,,,,,,,,,,,,,,,,,,,,,,,,,,,,,,,,,,,,,
476547,001,2022-11-21_01h26.10.082,Info_measure_main_exp,2022.2.2,Win32,143.8641922,,,,,,,,,,,,,,,,,,masks/mask_005.jpg,0,0,0,4,1,,,,,,,,,,,,,,,,,,,,,,,,,,,,,,,,,,,,,,,,,,,,,,,,,,,,,,,,,,,,,,,,,,,,,,,,,,,,,,,,,,,,,,,,
476547,001,2022-11-21_01h26.10.082,Info_measure_main_exp,2022.2.2,Win32,143.8641922,,,,,,,,,,,,,,,,,,masks/mask_003.jpg,0,1,1,2,1,,,,,,,,,,,,,,,,,,,,,,,,,,,,,,,,,,,,,,,,,,,,,,,,,,,,,,,,,,,,,,,,,,,,,,,,,,,,,,,,,,,,,,,,
476547,001,2022-11-21_01h26.10.082,Info_measure_main_exp,2022.2.2,Win32,143.8641922,,,,,,,,,,,,,,,,,,masks/mask_004.jpg,0,2,2,3,1,,,,,,,,,,,,,,,,,,,,,,,,,,,,,,,,,,,,,,,,,,,,,,,,,,,,,,,,,,,,,,,,,,,,,,,,,,,,,,,,,,,,,,,,
476547,001,2022-11-21_01h26.10.082,Info_measure_main_exp,2022.2.2,Win32,143.8641922,,,,,,,,,,,,,,,,,,masks/mask_002.jpg,0,3,3,1,1,,,,,,,,,,,,,,,,,,,,,,,,,,,,,,,,,,,,,,,,,,,,,,,,,,,,,,,,,,,,,,,,,,,,,,,,,,,,,,,,,,,,,,,,
476547,001,2022-11-21_01h26.10.082,Info_measure_main_exp,2022.2.2,Win32,143.8641922,,,,,,,,,,,,,,,,,,masks/mask_001.jpg,0,4,4,0,1,,,,,,,,,,,,,,,,,,,,,,,,,,,,,,,,,,,,,,,,,,,,,,,,,,,,,,,,,,,,,,,,,,,,,,,,,,,,,,,,,,,,,,,,
476547,001,2022-11-21_01h26.10.082,Info_measure_main_exp,2022.2.2,Win32,143.8641922,,,,,,,,,,,,,,,,,,,,,,,,-0.062037037,0.134259259,1,0,0,response7disk,0,15.0324,1,0.011111111,-0.005555556,1,0,0,center_square,0,1,1,2,1,0,131,5,5,2526,2526,prac_patch/patch0002526.jpg,prac_patch/patch0002526.jpg,,,,,,,,,,,,,,,,,,,,,,,,,,,,,,,,,,,,,,,,,,,,,,,,,,,,,,,,,,,,
476547,001,2022-11-21_01h26.10.082,Info_measure_main_exp,2022.2.2,Win32,143.8641922,,,,,,,,,,,,,0,0,0,3,1,masks/mask_004.jpg,,,,,,,,,,,,,,,,,,,,,,,,,,,,,,,,,,,,,,,,,,,,,,,,,,,,,,,,,,,,,,,,,,,,,,,,,,,,,,,,,,,,,,,,,,,,,
476547,001,2022-11-21_01h26.10.082,Info_measure_main_exp,2022.2.2,Win32,143.8641922,,,,,,,,,,,,,0,1,1,0,1,masks/mask_001.jpg,,,,,,,,,,,,,,,,,,,,,,,,,,,,,,,,,,,,,,,,,,,,,,,,,,,,,,,,,,,,,,,,,,,,,,,,,,,,,,,,,,,,,,,,,,,,,
476547,001,2022-11-21_01h26.10.082,Info_measure_main_exp,2022.2.2,Win32,143.8641922,,,,,,,,,,,,,0,2,2,1,1,masks/mask_002.jpg,,,,,,,,,,,,,,,,,,,,,,,,,,,,,,,,,,,,,,,,,,,,,,,,,,,,,,,,,,,,,,,,,,,,,,,,,,,,,,,,,,,,,,,,,,,,,
476547,001,2022-11-21_01h26.10.082,Info_measure_main_exp,2022.2.2,Win32,143.8641922,,,,,,,,,,,,,0,3,3,4,1,masks/mask_005.jpg,,,,,,,,,,,,,,,,,,,,,,,,,,,,,,,,,,,,,,,,,,,,,,,,,,,,,,,,,,,,,,,,,,,,,,,,,,,,,,,,,,,,,,,,,,,,,
476547,001,2022-11-21_01h26.10.082,Info_measure_main_exp,2022.2.2,Win32,143.8641922,,,,,,,,,,,,,0,4,4,2,1,masks/mask_003.jpg,,,,,,,,,,,,,,,,,,,,,,,,,,,,,,,,,,,,,,,,,,,,,,,,,,,,,,,,,,,,,,,,,,,,,,,,,,,,,,,,,,,,,,,,,,,,,
476547,001,2022-11-21_01h26.10.082,Info_measure_main_exp,2022.2.2,Win32,143.8641922,,,,,,,,,,,,,,,,,,masks/mask_003.jpg,0,0,0,2,1,,,,,,,,,,,,,,,,,,,,,,,,,,,,,,,,,,,,,,,,,,,,,,,,,,,,,,,,,,,,,,,,,,,,,,,,,,,,,,,,,,,,,,,,
476547,001,2022-11-21_01h26.10.082,Info_measure_main_exp,2022.2.2,Win32,143.8641922,,,,,,,,,,,,,,,,,,masks/mask_005.jpg,0,1,1,4,1,,,,,,,,,,,,,,,,,,,,,,,,,,,,,,,,,,,,,,,,,,,,,,,,,,,,,,,,,,,,,,,,,,,,,,,,,,,,,,,,,,,,,,,,
476547,001,2022-11-21_01h26.10.082,Info_measure_main_exp,2022.2.2,Win32,143.8641922,,,,,,,,,,,,,,,,,,masks/mask_004.jpg,0,2,2,3,1,,,,,,,,,,,,,,,,,,,,,,,,,,,,,,,,,,,,,,,,,,,,,,,,,,,,,,,,,,,,,,,,,,,,,,,,,,,,,,,,,,,,,,,,
476547,001,2022-11-21_01h26.10.082,Info_measure_main_exp,2022.2.2,Win32,143.8641922,,,,,,,,,,,,,,,,,,masks/mask_001.jpg,0,3,3,0,1,,,,,,,,,,,,,,,,,,,,,,,,,,,,,,,,,,,,,,,,,,,,,,,,,,,,,,,,,,,,,,,,,,,,,,,,,,,,,,,,,,,,,,,,
476547,001,2022-11-21_01h26.10.082,Info_measure_main_exp,2022.2.2,Win32,143.8641922,,,,,,,,,,,,,,,,,,masks/mask_002.jpg,0,4,4,1,1,,,,,,,,,,,,,,,,,,,,,,,,,,,,,,,,,,,,,,,,,,,,,,,,,,,,,,,,,,,,,,,,,,,,,,,,,,,,,,,,,,,,,,,,
476547,001,2022-11-21_01h26.10.082,Info_measure_main_exp,2022.2.2,Win32,143.8641922,,,,,,,,,,,,,,,,,,,,,,,,0.098148148,0.187037037,1,0,0,response1disk,7,21.9281,1,-0.003703704,0.014814815,1,0,0,center_square,0,2,2,0,1,0,131,5,5,2370,2406,prac_patch/patch0002370.jpg,prac_patch/patch0002406.jpg,,,,,,,,,,,,,,,,,,,,,,,,,,,,,,,,,,,,,,,,,,,,,,,,,,,,,,,,,,,,
476547,001,2022-11-21_01h26.10.082,Info_measure_main_exp,2022.2.2,Win32,143.8641922,,,,,,,,,,,,,,,,,,,,,,,,,,,,,,,,,,,,,,,,,,,,,,,,,,,,,,,,,,,space,1.3598,,,,,,,,,,,,,,,,,,,,,,,,,,,,,,,,,,,,,,,,,,,,,,,,,,,
476547,001,2022-11-21_01h26.10.082,Info_measure_main_exp,2022.2.2,Win32,143.8641922,,,,,,,,,,,,,,,,,,masks/mask_001.jpg,,,,,,,,,,,,,,,,,,,,,,,,,,,,,,,,,,,,,,,,,,,0,0,0,0,1,,,,,,,,,,,,,,,,,,,,,,,,,,,,,,,,,,,,,,,,,,,,,,
476547,001,2022-11-21_01h26.10.082,Info_measure_main_exp,2022.2.2,Win32,143.8641922,,,,,,,,,,,,,,,,,,masks/mask_002.jpg,,,,,,,,,,,,,,,,,,,,,,,,,,,,,,,,,,,,,,,,,,,0,1,1,1,1,,,,,,,,,,,,,,,,,,,,,,,,,,,,,,,,,,,,,,,,,,,,,,
476547,001,2022-11-21_01h26.10.082,Info_measure_main_exp,2022.2.2,Win32,143.8641922,,,,,,,,,,,,,,,,,,masks/mask_004.jpg,,,,,,,,,,,,,,,,,,,,,,,,,,,,,,,,,,,,,,,,,,,0,2,2,3,1,,,,,,,,,,,,,,,,,,,,,,,,,,,,,,,,,,,,,,,,,,,,,,
476547,001,2022-11-21_01h26.10.082,Info_measure_main_exp,2022.2.2,Win32,143.8641922,,,,,,,,,,,,,,,,,,masks/mask_003.jpg,,,,,,,,,,,,,,,,,,,,,,,,,,,,,,,,,,,,,,,,,,,0,3,3,2,1,,,,,,,,,,,,,,,,,,,,,,,,,,,,,,,,,,,,,,,,,,,,,,
476547,001,2022-11-21_01h26.10.082,Info_measure_main_exp,2022.2.2,Win32,143.8641922,,,,,,,,,,,,,,,,,,masks/mask_005.jpg,,,,,,,,,,,,,,,,,,,,,,,,,,,,,,,,,,,,,,,,,,,0,4,4,4,1,,,,,,,,,,,,,,,,,,,,,,,,,,,,,,,,,,,,,,,,,,,,,,
476547,001,2022-11-21_01h26.10.082,Info_measure_main_exp,2022.2.2,Win32,143.8641922,,,,,,,,,,,,,,,,,,masks/mask_001.jpg,,,,,,,,,,,,,,,,,,,,,,,,,,,,,,,,,,,,,,,,,,,,,,,,0,0,0,0,1,,,,,,,,,,,,,,,,,,,,,,,,,,,,,,,,,,,,,,,,,
476547,001,2022-11-21_01h26.10.082,Info_measure_main_exp,2022.2.2,Win32,143.8641922,,,,,,,,,,,,,,,,,,masks/mask_005.jpg,,,,,,,,,,,,,,,,,,,,,,,,,,,,,,,,,,,,,,,,,,,,,,,,0,1,1,4,1,,,,,,,,,,,,,,,,,,,,,,,,,,,,,,,,,,,,,,,,,
476547,001,2022-11-21_01h26.10.082,Info_measure_main_exp,2022.2.2,Win32,143.8641922,,,,,,,,,,,,,,,,,,masks/mask_004.jpg,,,,,,,,,,,,,,,,,,,,,,,,,,,,,,,,,,,,,,,,,,,,,,,,0,2,2,3,1,,,,,,,,,,,,,,,,,,,,,,,,,,,,,,,,,,,,,,,,,
476547,001,2022-11-21_01h26.10.082,Info_measure_main_exp,2022.2.2,Win32,143.8641922,,,,,,,,,,,,,,,,,,masks/mask_002.jpg,,,,,,,,,,,,,,,,,,,,,,,,,,,,,,,,,,,,,,,,,,,,,,,,0,3,3,1,1,,,,,,,,,,,,,,,,,,,,,,,,,,,,,,,,,,,,,,,,,
476547,001,2022-11-21_01h26.10.082,Info_measure_main_exp,2022.2.2,Win32,143.8641922,,,,,,,,,,,,,,,,,,masks/mask_003.jpg,,,,,,,,,,,,,,,,,,,,,,,,,,,,,,,,,,,,,,,,,,,,,,,,0,4,4,2,1,,,,,,,,,,,,,,,,,,,,,,,,,,,,,,,,,,,,,,,,,
476547,001,2022-11-21_01h26.10.082,Info_measure_main_exp,2022.2.2,Win32,143.8641922,,,,,,,,,,,,,,,,,,,,,,,,,,,,,,7,0.2568,1,,,,,,,,,,,,0,131,5,5,2250,2238,absent_patch/patch0002250.jpg,absent_patch/patch0002238.jpg,,,,,,,,,,,,,,,,,,,,0.07037037,0.164814815,1,0,0,response1disk,1,0.003703704,0.003703704,1,0,0,center_square,0,0,0,110,1,,,,,,,,,,,,,,,,,,,,,,,
476547,001,2022-11-21_01h26.10.082,Info_measure_main_exp,2022.2.2,Win32,143.8641922,,,,,,,,,,,,,,,,,,masks/mask_004.jpg,,,,,,,,,,,,,,,,,,,,,,,,,,,,,,,,,,,,,,,,,,,0,0,0,3,1,,,,,,,,,,,,,,,,,,,,,,,,,,,,,,,,,,,,,,,,,,,,,,
476547,001,2022-11-21_01h26.10.082,Info_measure_main_exp,2022.2.2,Win32,143.8641922,,,,,,,,,,,,,,,,,,masks/mask_002.jpg,,,,,,,,,,,,,,,,,,,,,,,,,,,,,,,,,,,,,,,,,,,0,1,1,1,1,,,,,,,,,,,,,,,,,,,,,,,,,,,,,,,,,,,,,,,,,,,,,,
476547,001,2022-11-21_01h26.10.082,Info_measure_main_exp,2022.2.2,Win32,143.8641922,,,,,,,,,,,,,,,,,,masks/mask_001.jpg,,,,,,,,,,,,,,,,,,,,,,,,,,,,,,,,,,,,,,,,,,,0,2,2,0,1,,,,,,,,,,,,,,,,,,,,,,,,,,,,,,,,,,,,,,,,,,,,,,
476547,001,2022-11-21_01h26.10.082,Info_measure_main_exp,2022.2.2,Win32,143.8641922,,,,,,,,,,,,,,,,,,masks/mask_003.jpg,,,,,,,,,,,,,,,,,,,,,,,,,,,,,,,,,,,,,,,,,,,0,3,3,2,1,,,,,,,,,,,,,,,,,,,,,,,,,,,,,,,,,,,,,,,,,,,,,,
476547,001,2022-11-21_01h26.10.082,Info_measure_main_exp,2022.2.2,Win32,143.8641922,,,,,,,,,,,,,,,,,,masks/mask_005.jpg,,,,,,,,,,,,,,,,,,,,,,,,,,,,,,,,,,,,,,,,,,,0,4,4,4,1,,,,,,,,,,,,,,,,,,,,,,,,,,,,,,,,,,,,,,,,,,,,,,
476547,001,2022-11-21_01h26.10.082,Info_measure_main_exp,2022.2.2,Win32,143.8641922,,,,,,,,,,,,,,,,,,masks/mask_005.jpg,,,,,,,,,,,,,,,,,,,,,,,,,,,,,,,,,,,,,,,,,,,,,,,,0,0,0,4,1,,,,,,,,,,,,,,,,,,,,,,,,,,,,,,,,,,,,,,,,,
476547,001,2022-11-21_01h26.10.082,Info_measure_main_exp,2022.2.2,Win32,143.8641922,,,,,,,,,,,,,,,,,,masks/mask_002.jpg,,,,,,,,,,,,,,,,,,,,,,,,,,,,,,,,,,,,,,,,,,,,,,,,0,1,1,1,1,,,,,,,,,,,,,,,,,,,,,,,,,,,,,,,,,,,,,,,,,
476547,001,2022-11-21_01h26.10.082,Info_measure_main_exp,2022.2.2,Win32,143.8641922,,,,,,,,,,,,,,,,,,masks/mask_001.jpg,,,,,,,,,,,,,,,,,,,,,,,,,,,,,,,,,,,,,,,,,,,,,,,,0,2,2,0,1,,,,,,,,,,,,,,,,,,,,,,,,,,,,,,,,,,,,,,,,,
476547,001,2022-11-21_01h26.10.082,Info_measure_main_exp,2022.2.2,Win32,143.8641922,,,,,,,,,,,,,,,,,,masks/mask_003.jpg,,,,,,,,,,,,,,,,,,,,,,,,,,,,,,,,,,,,,,,,,,,,,,,,0,3,3,2,1,,,,,,,,,,,,,,,,,,,,,,,,,,,,,,,,,,,,,,,,,
476547,001,2022-11-21_01h26.10.082,Info_measure_main_exp,2022.2.2,Win32,143.8641922,,,,,,,,,,,,,,,,,,masks/mask_004.jpg,,,,,,,,,,,,,,,,,,,,,,,,,,,,,,,,,,,,,,,,,,,,,,,,0,4,4,3,1,,,,,,,,,,,,,,,,,,,,,,,,,,,,,,,,,,,,,,,,,
476547,001,2022-11-21_01h26.10.082,Info_measure_main_exp,2022.2.2,Win32,143.8641922,,,,,,,,,,,,,,,,,,,,,,,,,,,,,,4,1.2014,1,,,,,,,,,,,,0,131,5,5,1974,2178,absent_patch/patch0001974.jpg,absent_patch/patch0002178.jpg,,,,,,,,,,,,,,,,,,,,0.028703704,-0.084259259,1,0,0,response3disk,2,0.010185185,0.001851852,1,0,0,center_square,0,1,1,44,1,,,,,,,,,,,,,,,,,,,,,,,
476547,001,2022-11-21_01h26.10.082,Info_measure_main_exp,2022.2.2,Win32,143.8641922,,,,,,,,,,,,,,,,,,masks/mask_004.jpg,,,,,,,,,,,,,,,,,,,,,,,,,,,,,,,,,,,,,,,,,,,0,0,0,3,1,,,,,,,,,,,,,,,,,,,,,,,,,,,,,,,,,,,,,,,,,,,,,,
476547,001,2022-11-21_01h26.10.082,Info_measure_main_exp,2022.2.2,Win32,143.8641922,,,,,,,,,,,,,,,,,,masks/mask_003.jpg,,,,,,,,,,,,,,,,,,,,,,,,,,,,,,,,,,,,,,,,,,,0,1,1,2,1,,,,,,,,,,,,,,,,,,,,,,,,,,,,,,,,,,,,,,,,,,,,,,
476547,001,2022-11-21_01h26.10.082,Info_measure_main_exp,2022.2.2,Win32,143.8641922,,,,,,,,,,,,,,,,,,masks/mask_001.jpg,,,,,,,,,,,,,,,,,,,,,,,,,,,,,,,,,,,,,,,,,,,0,2,2,0,1,,,,,,,,,,,,,,,,,,,,,,,,,,,,,,,,,,,,,,,,,,,,,,
476547,001,2022-11-21_01h26.10.082,Info_measure_main_exp,2022.2.2,Win32,143.8641922,,,,,,,,,,,,,,,,,,masks/mask_005.jpg,,,,,,,,,,,,,,,,,,,,,,,,,,,,,,,,,,,,,,,,,,,0,3,3,4,1,,,,,,,,,,,,,,,,,,,,,,,,,,,,,,,,,,,,,,,,,,,,,,
476547,001,2022-11-21_01h26.10.082,Info_measure_main_exp,2022.2.2,Win32,143.8641922,,,,,,,,,,,,,,,,,,masks/mask_002.jpg,,,,,,,,,,,,,,,,,,,,,,,,,,,,,,,,,,,,,,,,,,,0,4,4,1,1,,,,,,,,,,,,,,,,,,,,,,,,,,,,,,,,,,,,,,,,,,,,,,
476547,001,2022-11-21_01h26.10.082,Info_measure_main_exp,2022.2.2,Win32,143.8641922,,,,,,,,,,,,,,,,,,masks/mask_001.jpg,,,,,,,,,,,,,,,,,,,,,,,,,,,,,,,,,,,,,,,,,,,,,,,,0,0,0,0,1,,,,,,,,,,,,,,,,,,,,,,,,,,,,,,,,,,,,,,,,,
476547,001,2022-11-21_01h26.10.082,Info_measure_main_exp,2022.2.2,Win32,143.8641922,,,,,,,,,,,,,,,,,,masks/mask_002.jpg,,,,,,,,,,,,,,,,,,,,,,,,,,,,,,,,,,,,,,,,,,,,,,,,0,1,1,1,1,,,,,,,,,,,,,,,,,,,,,,,,,,,,,,,,,,,,,,,,,
476547,001,2022-11-21_01h26.10.082,Info_measure_main_exp,2022.2.2,Win32,143.8641922,,,,,,,,,,,,,,,,,,masks/mask_005.jpg,,,,,,,,,,,,,,,,,,,,,,,,,,,,,,,,,,,,,,,,,,,,,,,,0,2,2,4,1,,,,,,,,,,,,,,,,,,,,,,,,,,,,,,,,,,,,,,,,,
476547,001,2022-11-21_01h26.10.082,Info_measure_main_exp,2022.2.2,Win32,143.8641922,,,,,,,,,,,,,,,,,,masks/mask_004.jpg,,,,,,,,,,,,,,,,,,,,,,,,,,,,,,,,,,,,,,,,,,,,,,,,0,3,3,3,1,,,,,,,,,,,,,,,,,,,,,,,,,,,,,,,,,,,,,,,,,
476547,001,2022-11-21_01h26.10.082,Info_measure_main_exp,2022.2.2,Win32,143.8641922,,,,,,,,,,,,,,,,,,masks/mask_003.jpg,,,,,,,,,,,,,,,,,,,,,,,,,,,,,,,,,,,,,,,,,,,,,,,,0,4,4,2,1,,,,,,,,,,,,,,,,,,,,,,,,,,,,,,,,,,,,,,,,,
476547,001,2022-11-21_01h26.10.082,Info_measure_main_exp,2022.2.2,Win32,143.8641922,,,,,,,,,,,,,,,,,,,,,,,,,,,,,,7,0.4029,1,,,,,,,,,,,,0,131,5,5,2250,1950,absent_patch/patch0002250.jpg,absent_patch/patch0001950.jpg,,,,,,,,,,,,,,,,,,,,0.05462963,0.093518519,1,0,0,response1disk,3,0.007407407,-0.002777778,1,0,0,center_square,0,2,2,16,1,,,,,,,,,,,,,,,,,,,,,,,
476547,001,2022-11-21_01h26.10.082,Info_measure_main_exp,2022.2.2,Win32,143.8641922,,,,,,,,,,,,,,,,,,masks/mask_005.jpg,,,,,,,,,,,,,,,,,,,,,,,,,,,,,,,,,,,,,,,,,,,0,0,0,4,1,,,,,,,,,,,,,,,,,,,,,,,,,,,,,,,,,,,,,,,,,,,,,,
476547,001,2022-11-21_01h26.10.082,Info_measure_main_exp,2022.2.2,Win32,143.8641922,,,,,,,,,,,,,,,,,,masks/mask_002.jpg,,,,,,,,,,,,,,,,,,,,,,,,,,,,,,,,,,,,,,,,,,,0,1,1,1,1,,,,,,,,,,,,,,,,,,,,,,,,,,,,,,,,,,,,,,,,,,,,,,
476547,001,2022-11-21_01h26.10.082,Info_measure_main_exp,2022.2.2,Win32,143.8641922,,,,,,,,,,,,,,,,,,masks/mask_003.jpg,,,,,,,,,,,,,,,,,,,,,,,,,,,,,,,,,,,,,,,,,,,0,2,2,2,1,,,,,,,,,,,,,,,,,,,,,,,,,,,,,,,,,,,,,,,,,,,,,,
476547,001,2022-11-21_01h26.10.082,Info_measure_main_exp,2022.2.2,Win32,143.8641922,,,,,,,,,,,,,,,,,,masks/mask_004.jpg,,,,,,,,,,,,,,,,,,,,,,,,,,,,,,,,,,,,,,,,,,,0,3,3,3,1,,,,,,,,,,,,,,,,,,,,,,,,,,,,,,,,,,,,,,,,,,,,,,
476547,001,2022-11-21_01h26.10.082,Info_measure_main_exp,2022.2.2,Win32,143.8641922,,,,,,,,,,,,,,,,,,masks/mask_001.jpg,,,,,,,,,,,,,,,,,,,,,,,,,,,,,,,,,,,,,,,,,,,0,4,4,0,1,,,,,,,,,,,,,,,,,,,,,,,,,,,,,,,,,,,,,,,,,,,,,,
476547,001,2022-11-21_01h26.10.082,Info_measure_main_exp,2022.2.2,Win32,143.8641922,,,,,,,,,,,,,,,,,,masks/mask_002.jpg,,,,,,,,,,,,,,,,,,,,,,,,,,,,,,,,,,,,,,,,,,,,,,,,0,0,0,1,1,,,,,,,,,,,,,,,,,,,,,,,,,,,,,,,,,,,,,,,,,
476547,001,2022-11-21_01h26.10.082,Info_measure_main_exp,2022.2.2,Win32,143.8641922,,,,,,,,,,,,,,,,,,masks/mask_005.jpg,,,,,,,,,,,,,,,,,,,,,,,,,,,,,,,,,,,,,,,,,,,,,,,,0,1,1,4,1,,,,,,,,,,,,,,,,,,,,,,,,,,,,,,,,,,,,,,,,,
476547,001,2022-11-21_01h26.10.082,Info_measure_main_exp,2022.2.2,Win32,143.8641922,,,,,,,,,,,,,,,,,,masks/mask_004.jpg,,,,,,,,,,,,,,,,,,,,,,,,,,,,,,,,,,,,,,,,,,,,,,,,0,2,2,3,1,,,,,,,,,,,,,,,,,,,,,,,,,,,,,,,,,,,,,,,,,
476547,001,2022-11-21_01h26.10.082,Info_measure_main_exp,2022.2.2,Win32,143.8641922,,,,,,,,,,,,,,,,,,masks/mask_001.jpg,,,,,,,,,,,,,,,,,,,,,,,,,,,,,,,,,,,,,,,,,,,,,,,,0,3,3,0,1,,,,,,,,,,,,,,,,,,,,,,,,,,,,,,,,,,,,,,,,,
476547,001,2022-11-21_01h26.10.082,Info_measure_main_exp,2022.2.2,Win32,143.8641922,,,,,,,,,,,,,,,,,,masks/mask_003.jpg,,,,,,,,,,,,,,,,,,,,,,,,,,,,,,,,,,,,,,,,,,,,,,,,0,4,4,2,1,,,,,,,,,,,,,,,,,,,,,,,,,,,,,,,,,,,,,,,,,
476547,001,2022-11-21_01h26.10.082,Info_measure_main_exp,2022.2.2,Win32,143.8641922,,,,,,,,,,,,,,,,,,,,,,,,,,,,,,7,0.2082,1,,,,,,,,,,,,0,131,5,5,2082,2250,absent_patch/patch0002082.jpg,absent_patch/patch0002250.jpg,,,,,,,,,,,,,,,,,,,,0.059259259,0.140740741,1,0,0,response1disk,4,-0.001851852,-0.012037037,1,0,0,center_square,0,3,3,3,1,,,,,,,,,,,,,,,,,,,,,,,
476547,001,2022-11-21_01h26.10.082,Info_measure_main_exp,2022.2.2,Win32,143.8641922,,,,,,,,,,,,,,,,,,masks/mask_002.jpg,,,,,,,,,,,,,,,,,,,,,,,,,,,,,,,,,,,,,,,,,,,0,0,0,1,1,,,,,,,,,,,,,,,,,,,,,,,,,,,,,,,,,,,,,,,,,,,,,,
476547,001,2022-11-21_01h26.10.082,Info_measure_main_exp,2022.2.2,Win32,143.8641922,,,,,,,,,,,,,,,,,,masks/mask_001.jpg,,,,,,,,,,,,,,,,,,,,,,,,,,,,,,,,,,,,,,,,,,,0,1,1,0,1,,,,,,,,,,,,,,,,,,,,,,,,,,,,,,,,,,,,,,,,,,,,,,
476547,001,2022-11-21_01h26.10.082,Info_measure_main_exp,2022.2.2,Win32,143.8641922,,,,,,,,,,,,,,,,,,masks/mask_004.jpg,,,,,,,,,,,,,,,,,,,,,,,,,,,,,,,,,,,,,,,,,,,0,2,2,3,1,,,,,,,,,,,,,,,,,,,,,,,,,,,,,,,,,,,,,,,,,,,,,,
476547,001,2022-11-21_01h26.10.082,Info_measure_main_exp,2022.2.2,Win32,143.8641922,,,,,,,,,,,,,,,,,,masks/mask_003.jpg,,,,,,,,,,,,,,,,,,,,,,,,,,,,,,,,,,,,,,,,,,,0,3,3,2,1,,,,,,,,,,,,,,,,,,,,,,,,,,,,,,,,,,,,,,,,,,,,,,
476547,001,2022-11-21_01h26.10.082,Info_measure_main_exp,2022.2.2,Win32,143.8641922,,,,,,,,,,,,,,,,,,masks/mask_005.jpg,,,,,,,,,,,,,,,,,,,,,,,,,,,,,,,,,,,,,,,,,,,0,4,4,4,1,,,,,,,,,,,,,,,,,,,,,,,,,,,,,,,,,,,,,,,,,,,,,,
476547,001,2022-11-21_01h26.10.082,Info_measure_main_exp,2022.2.2,Win32,143.8641922,,,,,,,,,,,,,,,,,,masks/mask_005.jpg,,,,,,,,,,,,,,,,,,,,,,,,,,,,,,,,,,,,,,,,,,,,,,,,0,0,0,4,1,,,,,,,,,,,,,,,,,,,,,,,,,,,,,,,,,,,,,,,,,
476547,001,2022-11-21_01h26.10.082,Info_measure_main_exp,2022.2.2,Win32,143.8641922,,,,,,,,,,,,,,,,,,masks/mask_003.jpg,,,,,,,,,,,,,,,,,,,,,,,,,,,,,,,,,,,,,,,,,,,,,,,,0,1,1,2,1,,,,,,,,,,,,,,,,,,,,,,,,,,,,,,,,,,,,,,,,,
476547,001,2022-11-21_01h26.10.082,Info_measure_main_exp,2022.2.2,Win32,143.8641922,,,,,,,,,,,,,,,,,,masks/mask_004.jpg,,,,,,,,,,,,,,,,,,,,,,,,,,,,,,,,,,,,,,,,,,,,,,,,0,2,2,3,1,,,,,,,,,,,,,,,,,,,,,,,,,,,,,,,,,,,,,,,,,
476547,001,2022-11-21_01h26.10.082,Info_measure_main_exp,2022.2.2,Win32,143.8641922,,,,,,,,,,,,,,,,,,masks/mask_002.jpg,,,,,,,,,,,,,,,,,,,,,,,,,,,,,,,,,,,,,,,,,,,,,,,,0,3,3,1,1,,,,,,,,,,,,,,,,,,,,,,,,,,,,,,,,,,,,,,,,,
476547,001,2022-11-21_01h26.10.082,Info_measure_main_exp,2022.2.2,Win32,143.8641922,,,,,,,,,,,,,,,,,,masks/mask_001.jpg,,,,,,,,,,,,,,,,,,,,,,,,,,,,,,,,,,,,,,,,,,,,,,,,0,4,4,0,1,,,,,,,,,,,,,,,,,,,,,,,,,,,,,,,,,,,,,,,,,
476547,001,2022-11-21_01h26.10.082,Info_measure_main_exp,2022.2.2,Win32,143.8641922,,,,,,,,,,,,,,,,,,,,,,,,,,,,,,7,0.2498,1,,,,,,,,,,,,0,131,5,5,2166,2154,absent_patch/patch0002166.jpg,absent_patch/patch0002154.jpg,,,,,,,,,,,,,,,,,,,,0.04537037,0.158333333,1,0,0,response1disk,5,-0.00462963,0.00462963,1,0,0,center_square,0,4,4,79,1,,,,,,,,,,,,,,,,,,,,,,,
476547,001,2022-11-21_01h26.10.082,Info_measure_main_exp,2022.2.2,Win32,143.8641922,,,,,,,,,,,,,,,,,,masks/mask_004.jpg,,,,,,,,,,,,,,,,,,,,,,,,,,,,,,,,,,,,,,,,,,,0,0,0,3,1,,,,,,,,,,,,,,,,,,,,,,,,,,,,,,,,,,,,,,,,,,,,,,
476547,001,2022-11-21_01h26.10.082,Info_measure_main_exp,2022.2.2,Win32,143.8641922,,,,,,,,,,,,,,,,,,masks/mask_005.jpg,,,,,,,,,,,,,,,,,,,,,,,,,,,,,,,,,,,,,,,,,,,0,1,1,4,1,,,,,,,,,,,,,,,,,,,,,,,,,,,,,,,,,,,,,,,,,,,,,,
476547,001,2022-11-21_01h26.10.082,Info_measure_main_exp,2022.2.2,Win32,143.8641922,,,,,,,,,,,,,,,,,,masks/mask_001.jpg,,,,,,,,,,,,,,,,,,,,,,,,,,,,,,,,,,,,,,,,,,,0,2,2,0,1,,,,,,,,,,,,,,,,,,,,,,,,,,,,,,,,,,,,,,,,,,,,,,
476547,001,2022-11-21_01h26.10.082,Info_measure_main_exp,2022.2.2,Win32,143.8641922,,,,,,,,,,,,,,,,,,masks/mask_003.jpg,,,,,,,,,,,,,,,,,,,,,,,,,,,,,,,,,,,,,,,,,,,0,3,3,2,1,,,,,,,,,,,,,,,,,,,,,,,,,,,,,,,,,,,,,,,,,,,,,,
476547,001,2022-11-21_01h26.10.082,Info_measure_main_exp,2022.2.2,Win32,143.8641922,,,,,,,,,,,,,,,,,,masks/mask_002.jpg,,,,,,,,,,,,,,,,,,,,,,,,,,,,,,,,,,,,,,,,,,,0,4,4,1,1,,,,,,,,,,,,,,,,,,,,,,,,,,,,,,,,,,,,,,,,,,,,,,
476547,001,2022-11-21_01h26.10.082,Info_measure_main_exp,2022.2.2,Win32,143.8641922,,,,,,,,,,,,,,,,,,masks/mask_003.jpg,,,,,,,,,,,,,,,,,,,,,,,,,,,,,,,,,,,,,,,,,,,,,,,,0,0,0,2,1,,,,,,,,,,,,,,,,,,,,,,,,,,,,,,,,,,,,,,,,,
476547,001,2022-11-21_01h26.10.082,Info_measure_main_exp,2022.2.2,Win32,143.8641922,,,,,,,,,,,,,,,,,,masks/mask_001.jpg,,,,,,,,,,,,,,,,,,,,,,,,,,,,,,,,,,,,,,,,,,,,,,,,0,1,1,0,1,,,,,,,,,,,,,,,,,,,,,,,,,,,,,,,,,,,,,,,,,
476547,001,2022-11-21_01h26.10.082,Info_measure_main_exp,2022.2.2,Win32,143.8641922,,,,,,,,,,,,,,,,,,masks/mask_002.jpg,,,,,,,,,,,,,,,,,,,,,,,,,,,,,,,,,,,,,,,,,,,,,,,,0,2,2,1,1,,,,,,,,,,,,,,,,,,,,,,,,,,,,,,,,,,,,,,,,,
476547,001,2022-11-21_01h26.10.082,Info_measure_main_exp,2022.2.2,Win32,143.8641922,,,,,,,,,,,,,,,,,,masks/mask_004.jpg,,,,,,,,,,,,,,,,,,,,,,,,,,,,,,,,,,,,,,,,,,,,,,,,0,3,3,3,1,,,,,,,,,,,,,,,,,,,,,,,,,,,,,,,,,,,,,,,,,
476547,001,2022-11-21_01h26.10.082,Info_measure_main_exp,2022.2.2,Win32,143.8641922,,,,,,,,,,,,,,,,,,masks/mask_005.jpg,,,,,,,,,,,,,,,,,,,,,,,,,,,,,,,,,,,,,,,,,,,,,,,,0,4,4,4,1,,,,,,,,,,,,,,,,,,,,,,,,,,,,,,,,,,,,,,,,,
476547,001,2022-11-21_01h26.10.082,Info_measure_main_exp,2022.2.2,Win32,143.8641922,,,,,,,,,,,,,,,,,,,,,,,,,,,,,,7,0.1665,1,,,,,,,,,,,,0,131,5,5,2298,2214,absent_patch/patch0002298.jpg,absent_patch/patch0002214.jpg,,,,,,,,,,,,,,,,,,,,0.077777778,0.124074074,1,0,0,response1disk,6,-0.002777778,0.00462963,1,0,0,center_square,0,5,5,99,1,,,,,,,,,,,,,,,,,,,,,,,
476547,001,2022-11-21_01h26.10.082,Info_measure_main_exp,2022.2.2,Win32,143.8641922,,,,,,,,,,,,,,,,,,masks/mask_003.jpg,,,,,,,,,,,,,,,,,,,,,,,,,,,,,,,,,,,,,,,,,,,0,0,0,2,1,,,,,,,,,,,,,,,,,,,,,,,,,,,,,,,,,,,,,,,,,,,,,,
476547,001,2022-11-21_01h26.10.082,Info_measure_main_exp,2022.2.2,Win32,143.8641922,,,,,,,,,,,,,,,,,,masks/mask_002.jpg,,,,,,,,,,,,,,,,,,,,,,,,,,,,,,,,,,,,,,,,,,,0,1,1,1,1,,,,,,,,,,,,,,,,,,,,,,,,,,,,,,,,,,,,,,,,,,,,,,
476547,001,2022-11-21_01h26.10.082,Info_measure_main_exp,2022.2.2,Win32,143.8641922,,,,,,,,,,,,,,,,,,masks/mask_001.jpg,,,,,,,,,,,,,,,,,,,,,,,,,,,,,,,,,,,,,,,,,,,0,2,2,0,1,,,,,,,,,,,,,,,,,,,,,,,,,,,,,,,,,,,,,,,,,,,,,,
476547,001,2022-11-21_01h26.10.082,Info_measure_main_exp,2022.2.2,Win32,143.8641922,,,,,,,,,,,,,,,,,,masks/mask_004.jpg,,,,,,,,,,,,,,,,,,,,,,,,,,,,,,,,,,,,,,,,,,,0,3,3,3,1,,,,,,,,,,,,,,,,,,,,,,,,,,,,,,,,,,,,,,,,,,,,,,
476547,001,2022-11-21_01h26.10.082,Info_measure_main_exp,2022.2.2,Win32,143.8641922,,,,,,,,,,,,,,,,,,masks/mask_005.jpg,,,,,,,,,,,,,,,,,,,,,,,,,,,,,,,,,,,,,,,,,,,0,4,4,4,1,,,,,,,,,,,,,,,,,,,,,,,,,,,,,,,,,,,,,,,,,,,,,,
476547,001,2022-11-21_01h26.10.082,Info_measure_main_exp,2022.2.2,Win32,143.8641922,,,,,,,,,,,,,,,,,,masks/mask_002.jpg,,,,,,,,,,,,,,,,,,,,,,,,,,,,,,,,,,,,,,,,,,,,,,,,0,0,0,1,1,,,,,,,,,,,,,,,,,,,,,,,,,,,,,,,,,,,,,,,,,
476547,001,2022-11-21_01h26.10.082,Info_measure_main_exp,2022.2.2,Win32,143.8641922,,,,,,,,,,,,,,,,,,masks/mask_004.jpg,,,,,,,,,,,,,,,,,,,,,,,,,,,,,,,,,,,,,,,,,,,,,,,,0,1,1,3,1,,,,,,,,,,,,,,,,,,,,,,,,,,,,,,,,,,,,,,,,,
476547,001,2022-11-21_01h26.10.082,Info_measure_main_exp,2022.2.2,Win32,143.8641922,,,,,,,,,,,,,,,,,,masks/mask_003.jpg,,,,,,,,,,,,,,,,,,,,,,,,,,,,,,,,,,,,,,,,,,,,,,,,0,2,2,2,1,,,,,,,,,,,,,,,,,,,,,,,,,,,,,,,,,,,,,,,,,
476547,001,2022-11-21_01h26.10.082,Info_measure_main_exp,2022.2.2,Win32,143.8641922,,,,,,,,,,,,,,,,,,masks/mask_001.jpg,,,,,,,,,,,,,,,,,,,,,,,,,,,,,,,,,,,,,,,,,,,,,,,,0,3,3,0,1,,,,,,,,,,,,,,,,,,,,,,,,,,,,,,,,,,,,,,,,,
476547,001,2022-11-21_01h26.10.082,Info_measure_main_exp,2022.2.2,Win32,143.8641922,,,,,,,,,,,,,,,,,,masks/mask_005.jpg,,,,,,,,,,,,,,,,,,,,,,,,,,,,,,,,,,,,,,,,,,,,,,,,0,4,4,4,1,,,,,,,,,,,,,,,,,,,,,,,,,,,,,,,,,,,,,,,,,
476547,001,2022-11-21_01h26.10.082,Info_measure_main_exp,2022.2.2,Win32,143.8641922,,,,,,,,,,,,,,,,,,,,,,,,,,,,,,0,0.2289,1,,,,,,,,,,,,0,131,5,5,2298,2298,absent_patch/patch0002298.jpg,absent_patch/patch0002298.jpg,,,,,,,,,,,,,,,,,,,,-0.044444444,0.112962963,1,0,0,response7disk,7,0.007407407,0,1,0,0,center_square,0,6,6,37,1,,,,,,,,,,,,,,,,,,,,,,,
476547,001,2022-11-21_01h26.10.082,Info_measure_main_exp,2022.2.2,Win32,143.8641922,,,,,,,,,,,,,,,,,,masks/mask_002.jpg,,,,,,,,,,,,,,,,,,,,,,,,,,,,,,,,,,,,,,,,,,,0,0,0,1,1,,,,,,,,,,,,,,,,,,,,,,,,,,,,,,,,,,,,,,,,,,,,,,
476547,001,2022-11-21_01h26.10.082,Info_measure_main_exp,2022.2.2,Win32,143.8641922,,,,,,,,,,,,,,,,,,masks/mask_001.jpg,,,,,,,,,,,,,,,,,,,,,,,,,,,,,,,,,,,,,,,,,,,0,1,1,0,1,,,,,,,,,,,,,,,,,,,,,,,,,,,,,,,,,,,,,,,,,,,,,,
476547,001,2022-11-21_01h26.10.082,Info_measure_main_exp,2022.2.2,Win32,143.8641922,,,,,,,,,,,,,,,,,,masks/mask_004.jpg,,,,,,,,,,,,,,,,,,,,,,,,,,,,,,,,,,,,,,,,,,,0,2,2,3,1,,,,,,,,,,,,,,,,,,,,,,,,,,,,,,,,,,,,,,,,,,,,,,
476547,001,2022-11-21_01h26.10.082,Info_measure_main_exp,2022.2.2,Win32,143.8641922,,,,,,,,,,,,,,,,,,masks/mask_003.jpg,,,,,,,,,,,,,,,,,,,,,,,,,,,,,,,,,,,,,,,,,,,0,3,3,2,1,,,,,,,,,,,,,,,,,,,,,,,,,,,,,,,,,,,,,,,,,,,,,,
476547,001,2022-11-21_01h26.10.082,Info_measure_main_exp,2022.2.2,Win32,143.8641922,,,,,,,,,,,,,,,,,,masks/mask_005.jpg,,,,,,,,,,,,,,,,,,,,,,,,,,,,,,,,,,,,,,,,,,,0,4,4,4,1,,,,,,,,,,,,,,,,,,,,,,,,,,,,,,,,,,,,,,,,,,,,,,
476547,001,2022-11-21_01h26.10.082,Info_measure_main_exp,2022.2.2,Win32,143.8641922,,,,,,,,,,,,,,,,,,masks/mask_004.jpg,,,,,,,,,,,,,,,,,,,,,,,,,,,,,,,,,,,,,,,,,,,,,,,,0,0,0,3,1,,,,,,,,,,,,,,,,,,,,,,,,,,,,,,,,,,,,,,,,,
476547,001,2022-11-21_01h26.10.082,Info_measure_main_exp,2022.2.2,Win32,143.8641922,,,,,,,,,,,,,,,,,,masks/mask_003.jpg,,,,,,,,,,,,,,,,,,,,,,,,,,,,,,,,,,,,,,,,,,,,,,,,0,1,1,2,1,,,,,,,,,,,,,,,,,,,,,,,,,,,,,,,,,,,,,,,,,
476547,001,2022-11-21_01h26.10.082,Info_measure_main_exp,2022.2.2,Win32,143.8641922,,,,,,,,,,,,,,,,,,masks/mask_005.jpg,,,,,,,,,,,,,,,,,,,,,,,,,,,,,,,,,,,,,,,,,,,,,,,,0,2,2,4,1,,,,,,,,,,,,,,,,,,,,,,,,,,,,,,,,,,,,,,,,,
476547,001,2022-11-21_01h26.10.082,Info_measure_main_exp,2022.2.2,Win32,143.8641922,,,,,,,,,,,,,,,,,,masks/mask_002.jpg,,,,,,,,,,,,,,,,,,,,,,,,,,,,,,,,,,,,,,,,,,,,,,,,0,3,3,1,1,,,,,,,,,,,,,,,,,,,,,,,,,,,,,,,,,,,,,,,,,
476547,001,2022-11-21_01h26.10.082,Info_measure_main_exp,2022.2.2,Win32,143.8641922,,,,,,,,,,,,,,,,,,masks/mask_001.jpg,,,,,,,,,,,,,,,,,,,,,,,,,,,,,,,,,,,,,,,,,,,,,,,,0,4,4,0,1,,,,,,,,,,,,,,,,,,,,,,,,,,,,,,,,,,,,,,,,,
476547,001,2022-11-21_01h26.10.082,Info_measure_main_exp,2022.2.2,Win32,143.8641922,,,,,,,,,,,,,,,,,,,,,,,,,,,,,,7,0.25,1,,,,,,,,,,,,0,131,5,5,1974,2166,absent_patch/patch0001974.jpg,absent_patch/patch0002166.jpg,,,,,,,,,,,,,,,,,,,,0.057407407,0.107407407,1,0,0,response1disk,8,0.002777778,0.00462963,1,0,0,center_square,0,7,7,77,1,,,,,,,,,,,,,,,,,,,,,,,
476547,001,2022-11-21_01h26.10.082,Info_measure_main_exp,2022.2.2,Win32,143.8641922,,,,,,,,,,,,,,,,,,masks/mask_003.jpg,,,,,,,,,,,,,,,,,,,,,,,,,,,,,,,,,,,,,,,,,,,0,0,0,2,1,,,,,,,,,,,,,,,,,,,,,,,,,,,,,,,,,,,,,,,,,,,,,,
476547,001,2022-11-21_01h26.10.082,Info_measure_main_exp,2022.2.2,Win32,143.8641922,,,,,,,,,,,,,,,,,,masks/mask_004.jpg,,,,,,,,,,,,,,,,,,,,,,,,,,,,,,,,,,,,,,,,,,,0,1,1,3,1,,,,,,,,,,,,,,,,,,,,,,,,,,,,,,,,,,,,,,,,,,,,,,
476547,001,2022-11-21_01h26.10.082,Info_measure_main_exp,2022.2.2,Win32,143.8641922,,,,,,,,,,,,,,,,,,masks/mask_002.jpg,,,,,,,,,,,,,,,,,,,,,,,,,,,,,,,,,,,,,,,,,,,0,2,2,1,1,,,,,,,,,,,,,,,,,,,,,,,,,,,,,,,,,,,,,,,,,,,,,,
476547,001,2022-11-21_01h26.10.082,Info_measure_main_exp,2022.2.2,Win32,143.8641922,,,,,,,,,,,,,,,,,,masks/mask_005.jpg,,,,,,,,,,,,,,,,,,,,,,,,,,,,,,,,,,,,,,,,,,,0,3,3,4,1,,,,,,,,,,,,,,,,,,,,,,,,,,,,,,,,,,,,,,,,,,,,,,
476547,001,2022-11-21_01h26.10.082,Info_measure_main_exp,2022.2.2,Win32,143.8641922,,,,,,,,,,,,,,,,,,masks/mask_001.jpg,,,,,,,,,,,,,,,,,,,,,,,,,,,,,,,,,,,,,,,,,,,0,4,4,0,1,,,,,,,,,,,,,,,,,,,,,,,,,,,,,,,,,,,,,,,,,,,,,,
476547,001,2022-11-21_01h26.10.082,Info_measure_main_exp,2022.2.2,Win32,143.8641922,,,,,,,,,,,,,,,,,,masks/mask_005.jpg,,,,,,,,,,,,,,,,,,,,,,,,,,,,,,,,,,,,,,,,,,,,,,,,0,0,0,4,1,,,,,,,,,,,,,,,,,,,,,,,,,,,,,,,,,,,,,,,,,
476547,001,2022-11-21_01h26.10.082,Info_measure_main_exp,2022.2.2,Win32,143.8641922,,,,,,,,,,,,,,,,,,masks/mask_004.jpg,,,,,,,,,,,,,,,,,,,,,,,,,,,,,,,,,,,,,,,,,,,,,,,,0,1,1,3,1,,,,,,,,,,,,,,,,,,,,,,,,,,,,,,,,,,,,,,,,,
476547,001,2022-11-21_01h26.10.082,Info_measure_main_exp,2022.2.2,Win32,143.8641922,,,,,,,,,,,,,,,,,,masks/mask_001.jpg,,,,,,,,,,,,,,,,,,,,,,,,,,,,,,,,,,,,,,,,,,,,,,,,0,2,2,0,1,,,,,,,,,,,,,,,,,,,,,,,,,,,,,,,,,,,,,,,,,
476547,001,2022-11-21_01h26.10.082,Info_measure_main_exp,2022.2.2,Win32,143.8641922,,,,,,,,,,,,,,,,,,masks/mask_003.jpg,,,,,,,,,,,,,,,,,,,,,,,,,,,,,,,,,,,,,,,,,,,,,,,,0,3,3,2,1,,,,,,,,,,,,,,,,,,,,,,,,,,,,,,,,,,,,,,,,,
476547,001,2022-11-21_01h26.10.082,Info_measure_main_exp,2022.2.2,Win32,143.8641922,,,,,,,,,,,,,,,,,,masks/mask_002.jpg,,,,,,,,,,,,,,,,,,,,,,,,,,,,,,,,,,,,,,,,,,,,,,,,0,4,4,1,1,,,,,,,,,,,,,,,,,,,,,,,,,,,,,,,,,,,,,,,,,
476547,001,2022-11-21_01h26.10.082,Info_measure_main_exp,2022.2.2,Win32,143.8641922,,,,,,,,,,,,,,,,,,,,,,,,,,,,,,7,0.1735,1,,,,,,,,,,,,0,131,5,5,2178,2166,absent_patch/patch0002178.jpg,absent_patch/patch0002166.jpg,,,,,,,,,,,,,,,,,,,,0.032407407,0.123148148,1,0,0,response1disk,9,-0.002777778,-0.006481481,1,0,0,center_square,0,8,8,72,1,,,,,,,,,,,,,,,,,,,,,,,
476547,001,2022-11-21_01h26.10.082,Info_measure_main_exp,2022.2.2,Win32,143.8641922,,,,,,,,,,,,,,,,,,masks/mask_002.jpg,,,,,,,,,,,,,,,,,,,,,,,,,,,,,,,,,,,,,,,,,,,0,0,0,1,1,,,,,,,,,,,,,,,,,,,,,,,,,,,,,,,,,,,,,,,,,,,,,,
476547,001,2022-11-21_01h26.10.082,Info_measure_main_exp,2022.2.2,Win32,143.8641922,,,,,,,,,,,,,,,,,,masks/mask_003.jpg,,,,,,,,,,,,,,,,,,,,,,,,,,,,,,,,,,,,,,,,,,,0,1,1,2,1,,,,,,,,,,,,,,,,,,,,,,,,,,,,,,,,,,,,,,,,,,,,,,
476547,001,2022-11-21_01h26.10.082,Info_measure_main_exp,2022.2.2,Win32,143.8641922,,,,,,,,,,,,,,,,,,masks/mask_004.jpg,,,,,,,,,,,,,,,,,,,,,,,,,,,,,,,,,,,,,,,,,,,0,2,2,3,1,,,,,,,,,,,,,,,,,,,,,,,,,,,,,,,,,,,,,,,,,,,,,,
476547,001,2022-11-21_01h26.10.082,Info_measure_main_exp,2022.2.2,Win32,143.8641922,,,,,,,,,,,,,,,,,,masks/mask_001.jpg,,,,,,,,,,,,,,,,,,,,,,,,,,,,,,,,,,,,,,,,,,,0,3,3,0,1,,,,,,,,,,,,,,,,,,,,,,,,,,,,,,,,,,,,,,,,,,,,,,
476547,001,2022-11-21_01h26.10.082,Info_measure_main_exp,2022.2.2,Win32,143.8641922,,,,,,,,,,,,,,,,,,masks/mask_005.jpg,,,,,,,,,,,,,,,,,,,,,,,,,,,,,,,,,,,,,,,,,,,0,4,4,4,1,,,,,,,,,,,,,,,,,,,,,,,,,,,,,,,,,,,,,,,,,,,,,,
476547,001,2022-11-21_01h26.10.082,Info_measure_main_exp,2022.2.2,Win32,143.8641922,,,,,,,,,,,,,,,,,,masks/mask_002.jpg,,,,,,,,,,,,,,,,,,,,,,,,,,,,,,,,,,,,,,,,,,,,,,,,0,0,0,1,1,,,,,,,,,,,,,,,,,,,,,,,,,,,,,,,,,,,,,,,,,
476547,001,2022-11-21_01h26.10.082,Info_measure_main_exp,2022.2.2,Win32,143.8641922,,,,,,,,,,,,,,,,,,masks/mask_005.jpg,,,,,,,,,,,,,,,,,,,,,,,,,,,,,,,,,,,,,,,,,,,,,,,,0,1,1,4,1,,,,,,,,,,,,,,,,,,,,,,,,,,,,,,,,,,,,,,,,,
476547,001,2022-11-21_01h26.10.082,Info_measure_main_exp,2022.2.2,Win32,143.8641922,,,,,,,,,,,,,,,,,,masks/mask_004.jpg,,,,,,,,,,,,,,,,,,,,,,,,,,,,,,,,,,,,,,,,,,,,,,,,0,2,2,3,1,,,,,,,,,,,,,,,,,,,,,,,,,,,,,,,,,,,,,,,,,
476547,001,2022-11-21_01h26.10.082,Info_measure_main_exp,2022.2.2,Win32,143.8641922,,,,,,,,,,,,,,,,,,masks/mask_001.jpg,,,,,,,,,,,,,,,,,,,,,,,,,,,,,,,,,,,,,,,,,,,,,,,,0,3,3,0,1,,,,,,,,,,,,,,,,,,,,,,,,,,,,,,,,,,,,,,,,,
476547,001,2022-11-21_01h26.10.082,Info_measure_main_exp,2022.2.2,Win32,143.8641922,,,,,,,,,,,,,,,,,,masks/mask_003.jpg,,,,,,,,,,,,,,,,,,,,,,,,,,,,,,,,,,,,,,,,,,,,,,,,0,4,4,2,1,,,,,,,,,,,,,,,,,,,,,,,,,,,,,,,,,,,,,,,,,
476547,001,2022-11-21_01h26.10.082,Info_measure_main_exp,2022.2.2,Win32,143.8641922,,,,,,,,,,,,,,,,,,,,,,,,,,,,,,7,0.2084,1,,,,,,,,,,,,0,131,5,5,2298,1986,absent_patch/patch0002298.jpg,absent_patch/patch0001986.jpg,,,,,,,,,,,,,,,,,,,,0.038888889,0.106481481,1,0,0,response1disk,10,-0.001851852,0.00462963,1,0,0,center_square,0,9,9,32,1,,,,,,,,,,,,,,,,,,,,,,,
476547,001,2022-11-21_01h26.10.082,Info_measure_main_exp,2022.2.2,Win32,143.8641922,,,,,,,,,,,,,,,,,,masks/mask_002.jpg,,,,,,,,,,,,,,,,,,,,,,,,,,,,,,,,,,,,,,,,,,,0,0,0,1,1,,,,,,,,,,,,,,,,,,,,,,,,,,,,,,,,,,,,,,,,,,,,,,
476547,001,2022-11-21_01h26.10.082,Info_measure_main_exp,2022.2.2,Win32,143.8641922,,,,,,,,,,,,,,,,,,masks/mask_003.jpg,,,,,,,,,,,,,,,,,,,,,,,,,,,,,,,,,,,,,,,,,,,0,1,1,2,1,,,,,,,,,,,,,,,,,,,,,,,,,,,,,,,,,,,,,,,,,,,,,,
476547,001,2022-11-21_01h26.10.082,Info_measure_main_exp,2022.2.2,Win32,143.8641922,,,,,,,,,,,,,,,,,,masks/mask_005.jpg,,,,,,,,,,,,,,,,,,,,,,,,,,,,,,,,,,,,,,,,,,,0,2,2,4,1,,,,,,,,,,,,,,,,,,,,,,,,,,,,,,,,,,,,,,,,,,,,,,
476547,001,2022-11-21_01h26.10.082,Info_measure_main_exp,2022.2.2,Win32,143.8641922,,,,,,,,,,,,,,,,,,masks/mask_001.jpg,,,,,,,,,,,,,,,,,,,,,,,,,,,,,,,,,,,,,,,,,,,0,3,3,0,1,,,,,,,,,,,,,,,,,,,,,,,,,,,,,,,,,,,,,,,,,,,,,,
476547,001,2022-11-21_01h26.10.082,Info_measure_main_exp,2022.2.2,Win32,143.8641922,,,,,,,,,,,,,,,,,,masks/mask_004.jpg,,,,,,,,,,,,,,,,,,,,,,,,,,,,,,,,,,,,,,,,,,,0,4,4,3,1,,,,,,,,,,,,,,,,,,,,,,,,,,,,,,,,,,,,,,,,,,,,,,
476547,001,2022-11-21_01h26.10.082,Info_measure_main_exp,2022.2.2,Win32,143.8641922,,,,,,,,,,,,,,,,,,masks/mask_002.jpg,,,,,,,,,,,,,,,,,,,,,,,,,,,,,,,,,,,,,,,,,,,,,,,,0,0,0,1,1,,,,,,,,,,,,,,,,,,,,,,,,,,,,,,,,,,,,,,,,,
476547,001,2022-11-21_01h26.10.082,Info_measure_main_exp,2022.2.2,Win32,143.8641922,,,,,,,,,,,,,,,,,,masks/mask_005.jpg,,,,,,,,,,,,,,,,,,,,,,,,,,,,,,,,,,,,,,,,,,,,,,,,0,1,1,4,1,,,,,,,,,,,,,,,,,,,,,,,,,,,,,,,,,,,,,,,,,
476547,001,2022-11-21_01h26.10.082,Info_measure_main_exp,2022.2.2,Win32,143.8641922,,,,,,,,,,,,,,,,,,masks/mask_001.jpg,,,,,,,,,,,,,,,,,,,,,,,,,,,,,,,,,,,,,,,,,,,,,,,,0,2,2,0,1,,,,,,,,,,,,,,,,,,,,,,,,,,,,,,,,,,,,,,,,,
476547,001,2022-11-21_01h26.10.082,Info_measure_main_exp,2022.2.2,Win32,143.8641922,,,,,,,,,,,,,,,,,,masks/mask_004.jpg,,,,,,,,,,,,,,,,,,,,,,,,,,,,,,,,,,,,,,,,,,,,,,,,0,3,3,3,1,,,,,,,,,,,,,,,,,,,,,,,,,,,,,,,,,,,,,,,,,
476547,001,2022-11-21_01h26.10.082,Info_measure_main_exp,2022.2.2,Win32,143.8641922,,,,,,,,,,,,,,,,,,masks/mask_003.jpg,,,,,,,,,,,,,,,,,,,,,,,,,,,,,,,,,,,,,,,,,,,,,,,,0,4,4,2,1,,,,,,,,,,,,,,,,,,,,,,,,,,,,,,,,,,,,,,,,,
476547,001,2022-11-21_01h26.10.082,Info_measure_main_exp,2022.2.2,Win32,143.8641922,,,,,,,,,,,,,,,,,,,,,,,,,,,,,,7,0.2431,1,,,,,,,,,,,,0,131,5,5,2250,2298,absent_patch/patch0002250.jpg,absent_patch/patch0002298.jpg,,,,,,,,,,,,,,,,,,,,0.046296296,0.141666667,1,0,0,response1disk,11,-0.012962963,0,1,0,0,center_square,0,10,10,59,1,,,,,,,,,,,,,,,,,,,,,,,
476547,001,2022-11-21_01h26.10.082,Info_measure_main_exp,2022.2.2,Win32,143.8641922,,,,,,,,,,,,,,,,,,masks/mask_003.jpg,,,,,,,,,,,,,,,,,,,,,,,,,,,,,,,,,,,,,,,,,,,0,0,0,2,1,,,,,,,,,,,,,,,,,,,,,,,,,,,,,,,,,,,,,,,,,,,,,,
476547,001,2022-11-21_01h26.10.082,Info_measure_main_exp,2022.2.2,Win32,143.8641922,,,,,,,,,,,,,,,,,,masks/mask_002.jpg,,,,,,,,,,,,,,,,,,,,,,,,,,,,,,,,,,,,,,,,,,,0,1,1,1,1,,,,,,,,,,,,,,,,,,,,,,,,,,,,,,,,,,,,,,,,,,,,,,
476547,001,2022-11-21_01h26.10.082,Info_measure_main_exp,2022.2.2,Win32,143.8641922,,,,,,,,,,,,,,,,,,masks/mask_005.jpg,,,,,,,,,,,,,,,,,,,,,,,,,,,,,,,,,,,,,,,,,,,0,2,2,4,1,,,,,,,,,,,,,,,,,,,,,,,,,,,,,,,,,,,,,,,,,,,,,,
476547,001,2022-11-21_01h26.10.082,Info_measure_main_exp,2022.2.2,Win32,143.8641922,,,,,,,,,,,,,,,,,,masks/mask_004.jpg,,,,,,,,,,,,,,,,,,,,,,,,,,,,,,,,,,,,,,,,,,,0,3,3,3,1,,,,,,,,,,,,,,,,,,,,,,,,,,,,,,,,,,,,,,,,,,,,,,
476547,001,2022-11-21_01h26.10.082,Info_measure_main_exp,2022.2.2,Win32,143.8641922,,,,,,,,,,,,,,,,,,masks/mask_001.jpg,,,,,,,,,,,,,,,,,,,,,,,,,,,,,,,,,,,,,,,,,,,0,4,4,0,1,,,,,,,,,,,,,,,,,,,,,,,,,,,,,,,,,,,,,,,,,,,,,,
476547,001,2022-11-21_01h26.10.082,Info_measure_main_exp,2022.2.2,Win32,143.8641922,,,,,,,,,,,,,,,,,,masks/mask_005.jpg,,,,,,,,,,,,,,,,,,,,,,,,,,,,,,,,,,,,,,,,,,,,,,,,0,0,0,4,1,,,,,,,,,,,,,,,,,,,,,,,,,,,,,,,,,,,,,,,,,
476547,001,2022-11-21_01h26.10.082,Info_measure_main_exp,2022.2.2,Win32,143.8641922,,,,,,,,,,,,,,,,,,masks/mask_001.jpg,,,,,,,,,,,,,,,,,,,,,,,,,,,,,,,,,,,,,,,,,,,,,,,,0,1,1,0,1,,,,,,,,,,,,,,,,,,,,,,,,,,,,,,,,,,,,,,,,,
476547,001,2022-11-21_01h26.10.082,Info_measure_main_exp,2022.2.2,Win32,143.8641922,,,,,,,,,,,,,,,,,,masks/mask_004.jpg,,,,,,,,,,,,,,,,,,,,,,,,,,,,,,,,,,,,,,,,,,,,,,,,0,2,2,3,1,,,,,,,,,,,,,,,,,,,,,,,,,,,,,,,,,,,,,,,,,
476547,001,2022-11-21_01h26.10.082,Info_measure_main_exp,2022.2.2,Win32,143.8641922,,,,,,,,,,,,,,,,,,masks/mask_003.jpg,,,,,,,,,,,,,,,,,,,,,,,,,,,,,,,,,,,,,,,,,,,,,,,,0,3,3,2,1,,,,,,,,,,,,,,,,,,,,,,,,,,,,,,,,,,,,,,,,,
476547,001,2022-11-21_01h26.10.082,Info_measure_main_exp,2022.2.2,Win32,143.8641922,,,,,,,,,,,,,,,,,,masks/mask_002.jpg,,,,,,,,,,,,,,,,,,,,,,,,,,,,,,,,,,,,,,,,,,,,,,,,0,4,4,1,1,,,,,,,,,,,,,,,,,,,,,,,,,,,,,,,,,,,,,,,,,
476547,001,2022-11-21_01h26.10.082,Info_measure_main_exp,2022.2.2,Win32,143.8641922,,,,,,,,,,,,,,,,,,,,,,,,,,,,,,0,1.0277,1,,,,,,,,,,,,0,131,5,5,2250,2250,absent_patch/patch0002250.jpg,absent_patch/patch0002250.jpg,,,,,,,,,,,,,,,,,,,,-0.036111111,0.142592593,1,0,0,response7disk,12,0.000925926,-0.005555556,1,0,0,center_square,0,11,11,56,1,,,,,,,,,,,,,,,,,,,,,,,
476547,001,2022-11-21_01h26.10.082,Info_measure_main_exp,2022.2.2,Win32,143.8641922,,,,,,,,,,,,,,,,,,masks/mask_004.jpg,,,,,,,,,,,,,,,,,,,,,,,,,,,,,,,,,,,,,,,,,,,0,0,0,3,1,,,,,,,,,,,,,,,,,,,,,,,,,,,,,,,,,,,,,,,,,,,,,,
476547,001,2022-11-21_01h26.10.082,Info_measure_main_exp,2022.2.2,Win32,143.8641922,,,,,,,,,,,,,,,,,,masks/mask_002.jpg,,,,,,,,,,,,,,,,,,,,,,,,,,,,,,,,,,,,,,,,,,,0,1,1,1,1,,,,,,,,,,,,,,,,,,,,,,,,,,,,,,,,,,,,,,,,,,,,,,
476547,001,2022-11-21_01h26.10.082,Info_measure_main_exp,2022.2.2,Win32,143.8641922,,,,,,,,,,,,,,,,,,masks/mask_001.jpg,,,,,,,,,,,,,,,,,,,,,,,,,,,,,,,,,,,,,,,,,,,0,2,2,0,1,,,,,,,,,,,,,,,,,,,,,,,,,,,,,,,,,,,,,,,,,,,,,,
476547,001,2022-11-21_01h26.10.082,Info_measure_main_exp,2022.2.2,Win32,143.8641922,,,,,,,,,,,,,,,,,,masks/mask_005.jpg,,,,,,,,,,,,,,,,,,,,,,,,,,,,,,,,,,,,,,,,,,,0,3,3,4,1,,,,,,,,,,,,,,,,,,,,,,,,,,,,,,,,,,,,,,,,,,,,,,
476547,001,2022-11-21_01h26.10.082,Info_measure_main_exp,2022.2.2,Win32,143.8641922,,,,,,,,,,,,,,,,,,masks/mask_003.jpg,,,,,,,,,,,,,,,,,,,,,,,,,,,,,,,,,,,,,,,,,,,0,4,4,2,1,,,,,,,,,,,,,,,,,,,,,,,,,,,,,,,,,,,,,,,,,,,,,,
476547,001,2022-11-21_01h26.10.082,Info_measure_main_exp,2022.2.2,Win32,143.8641922,,,,,,,,,,,,,,,,,,masks/mask_001.jpg,,,,,,,,,,,,,,,,,,,,,,,,,,,,,,,,,,,,,,,,,,,,,,,,0,0,0,0,1,,,,,,,,,,,,,,,,,,,,,,,,,,,,,,,,,,,,,,,,,
476547,001,2022-11-21_01h26.10.082,Info_measure_main_exp,2022.2.2,Win32,143.8641922,,,,,,,,,,,,,,,,,,masks/mask_002.jpg,,,,,,,,,,,,,,,,,,,,,,,,,,,,,,,,,,,,,,,,,,,,,,,,0,1,1,1,1,,,,,,,,,,,,,,,,,,,,,,,,,,,,,,,,,,,,,,,,,
476547,001,2022-11-21_01h26.10.082,Info_measure_main_exp,2022.2.2,Win32,143.8641922,,,,,,,,,,,,,,,,,,masks/mask_003.jpg,,,,,,,,,,,,,,,,,,,,,,,,,,,,,,,,,,,,,,,,,,,,,,,,0,2,2,2,1,,,,,,,,,,,,,,,,,,,,,,,,,,,,,,,,,,,,,,,,,
476547,001,2022-11-21_01h26.10.082,Info_measure_main_exp,2022.2.2,Win32,143.8641922,,,,,,,,,,,,,,,,,,masks/mask_005.jpg,,,,,,,,,,,,,,,,,,,,,,,,,,,,,,,,,,,,,,,,,,,,,,,,0,3,3,4,1,,,,,,,,,,,,,,,,,,,,,,,,,,,,,,,,,,,,,,,,,
476547,001,2022-11-21_01h26.10.082,Info_measure_main_exp,2022.2.2,Win32,143.8641922,,,,,,,,,,,,,,,,,,masks/mask_004.jpg,,,,,,,,,,,,,,,,,,,,,,,,,,,,,,,,,,,,,,,,,,,,,,,,0,4,4,3,1,,,,,,,,,,,,,,,,,,,,,,,,,,,,,,,,,,,,,,,,,
476547,001,2022-11-21_01h26.10.082,Info_measure_main_exp,2022.2.2,Win32,143.8641922,,,,,,,,,,,,,,,,,,,,,,,,,,,,,,7,0.382,1,,,,,,,,,,,,0,131,5,5,2154,1950,absent_patch/patch0002154.jpg,absent_patch/patch0001950.jpg,,,,,,,,,,,,,,,,,,,,0.044444444,0.122222222,1,0,0,response1disk,13,0.012962963,-0.005555556,1,0,0,center_square,0,12,12,96,1,,,,,,,,,,,,,,,,,,,,,,,
476547,001,2022-11-21_01h26.10.082,Info_measure_main_exp,2022.2.2,Win32,143.8641922,,,,,,,,,,,,,,,,,,masks/mask_005.jpg,,,,,,,,,,,,,,,,,,,,,,,,,,,,,,,,,,,,,,,,,,,0,0,0,4,1,,,,,,,,,,,,,,,,,,,,,,,,,,,,,,,,,,,,,,,,,,,,,,
476547,001,2022-11-21_01h26.10.082,Info_measure_main_exp,2022.2.2,Win32,143.8641922,,,,,,,,,,,,,,,,,,masks/mask_001.jpg,,,,,,,,,,,,,,,,,,,,,,,,,,,,,,,,,,,,,,,,,,,0,1,1,0,1,,,,,,,,,,,,,,,,,,,,,,,,,,,,,,,,,,,,,,,,,,,,,,
476547,001,2022-11-21_01h26.10.082,Info_measure_main_exp,2022.2.2,Win32,143.8641922,,,,,,,,,,,,,,,,,,masks/mask_003.jpg,,,,,,,,,,,,,,,,,,,,,,,,,,,,,,,,,,,,,,,,,,,0,2,2,2,1,,,,,,,,,,,,,,,,,,,,,,,,,,,,,,,,,,,,,,,,,,,,,,
476547,001,2022-11-21_01h26.10.082,Info_measure_main_exp,2022.2.2,Win32,143.8641922,,,,,,,,,,,,,,,,,,masks/mask_002.jpg,,,,,,,,,,,,,,,,,,,,,,,,,,,,,,,,,,,,,,,,,,,0,3,3,1,1,,,,,,,,,,,,,,,,,,,,,,,,,,,,,,,,,,,,,,,,,,,,,,
476547,001,2022-11-21_01h26.10.082,Info_measure_main_exp,2022.2.2,Win32,143.8641922,,,,,,,,,,,,,,,,,,masks/mask_004.jpg,,,,,,,,,,,,,,,,,,,,,,,,,,,,,,,,,,,,,,,,,,,0,4,4,3,1,,,,,,,,,,,,,,,,,,,,,,,,,,,,,,,,,,,,,,,,,,,,,,
476547,001,2022-11-21_01h26.10.082,Info_measure_main_exp,2022.2.2,Win32,143.8641922,,,,,,,,,,,,,,,,,,masks/mask_002.jpg,,,,,,,,,,,,,,,,,,,,,,,,,,,,,,,,,,,,,,,,,,,,,,,,0,0,0,1,1,,,,,,,,,,,,,,,,,,,,,,,,,,,,,,,,,,,,,,,,,
476547,001,2022-11-21_01h26.10.082,Info_measure_main_exp,2022.2.2,Win32,143.8641922,,,,,,,,,,,,,,,,,,masks/mask_001.jpg,,,,,,,,,,,,,,,,,,,,,,,,,,,,,,,,,,,,,,,,,,,,,,,,0,1,1,0,1,,,,,,,,,,,,,,,,,,,,,,,,,,,,,,,,,,,,,,,,,
476547,001,2022-11-21_01h26.10.082,Info_measure_main_exp,2022.2.2,Win32,143.8641922,,,,,,,,,,,,,,,,,,masks/mask_003.jpg,,,,,,,,,,,,,,,,,,,,,,,,,,,,,,,,,,,,,,,,,,,,,,,,0,2,2,2,1,,,,,,,,,,,,,,,,,,,,,,,,,,,,,,,,,,,,,,,,,
476547,001,2022-11-21_01h26.10.082,Info_measure_main_exp,2022.2.2,Win32,143.8641922,,,,,,,,,,,,,,,,,,masks/mask_004.jpg,,,,,,,,,,,,,,,,,,,,,,,,,,,,,,,,,,,,,,,,,,,,,,,,0,3,3,3,1,,,,,,,,,,,,,,,,,,,,,,,,,,,,,,,,,,,,,,,,,
476547,001,2022-11-21_01h26.10.082,Info_measure_main_exp,2022.2.2,Win32,143.8641922,,,,,,,,,,,,,,,,,,masks/mask_005.jpg,,,,,,,,,,,,,,,,,,,,,,,,,,,,,,,,,,,,,,,,,,,,,,,,0,4,4,4,1,,,,,,,,,,,,,,,,,,,,,,,,,,,,,,,,,,,,,,,,,
476547,001,2022-11-21_01h26.10.082,Info_measure_main_exp,2022.2.2,Win32,143.8641922,,,,,,,,,,,,,,,,,,,,,,,,,,,,,,7,0.2362,1,,,,,,,,,,,,0,131,5,5,2082,2166,absent_patch/patch0002082.jpg,absent_patch/patch0002166.jpg,,,,,,,,,,,,,,,,,,,,0.068518519,0.144444444,1,0,0,response1disk,14,0.003703704,-0.006481481,1,0,0,center_square,0,13,13,43,1,,,,,,,,,,,,,,,,,,,,,,,
476547,001,2022-11-21_01h26.10.082,Info_measure_main_exp,2022.2.2,Win32,143.8641922,,,,,,,,,,,,,,,,,,masks/mask_004.jpg,,,,,,,,,,,,,,,,,,,,,,,,,,,,,,,,,,,,,,,,,,,0,0,0,3,1,,,,,,,,,,,,,,,,,,,,,,,,,,,,,,,,,,,,,,,,,,,,,,
476547,001,2022-11-21_01h26.10.082,Info_measure_main_exp,2022.2.2,Win32,143.8641922,,,,,,,,,,,,,,,,,,masks/mask_005.jpg,,,,,,,,,,,,,,,,,,,,,,,,,,,,,,,,,,,,,,,,,,,0,1,1,4,1,,,,,,,,,,,,,,,,,,,,,,,,,,,,,,,,,,,,,,,,,,,,,,
476547,001,2022-11-21_01h26.10.082,Info_measure_main_exp,2022.2.2,Win32,143.8641922,,,,,,,,,,,,,,,,,,masks/mask_001.jpg,,,,,,,,,,,,,,,,,,,,,,,,,,,,,,,,,,,,,,,,,,,0,2,2,0,1,,,,,,,,,,,,,,,,,,,,,,,,,,,,,,,,,,,,,,,,,,,,,,
476547,001,2022-11-21_01h26.10.082,Info_measure_main_exp,2022.2.2,Win32,143.8641922,,,,,,,,,,,,,,,,,,masks/mask_002.jpg,,,,,,,,,,,,,,,,,,,,,,,,,,,,,,,,,,,,,,,,,,,0,3,3,1,1,,,,,,,,,,,,,,,,,,,,,,,,,,,,,,,,,,,,,,,,,,,,,,
476547,001,2022-11-21_01h26.10.082,Info_measure_main_exp,2022.2.2,Win32,143.8641922,,,,,,,,,,,,,,,,,,masks/mask_003.jpg,,,,,,,,,,,,,,,,,,,,,,,,,,,,,,,,,,,,,,,,,,,0,4,4,2,1,,,,,,,,,,,,,,,,,,,,,,,,,,,,,,,,,,,,,,,,,,,,,,
476547,001,2022-11-21_01h26.10.082,Info_measure_main_exp,2022.2.2,Win32,143.8641922,,,,,,,,,,,,,,,,,,masks/mask_003.jpg,,,,,,,,,,,,,,,,,,,,,,,,,,,,,,,,,,,,,,,,,,,,,,,,0,0,0,2,1,,,,,,,,,,,,,,,,,,,,,,,,,,,,,,,,,,,,,,,,,
476547,001,2022-11-21_01h26.10.082,Info_measure_main_exp,2022.2.2,Win32,143.8641922,,,,,,,,,,,,,,,,,,masks/mask_005.jpg,,,,,,,,,,,,,,,,,,,,,,,,,,,,,,,,,,,,,,,,,,,,,,,,0,1,1,4,1,,,,,,,,,,,,,,,,,,,,,,,,,,,,,,,,,,,,,,,,,
476547,001,2022-11-21_01h26.10.082,Info_measure_main_exp,2022.2.2,Win32,143.8641922,,,,,,,,,,,,,,,,,,masks/mask_001.jpg,,,,,,,,,,,,,,,,,,,,,,,,,,,,,,,,,,,,,,,,,,,,,,,,0,2,2,0,1,,,,,,,,,,,,,,,,,,,,,,,,,,,,,,,,,,,,,,,,,
476547,001,2022-11-21_01h26.10.082,Info_measure_main_exp,2022.2.2,Win32,143.8641922,,,,,,,,,,,,,,,,,,masks/mask_002.jpg,,,,,,,,,,,,,,,,,,,,,,,,,,,,,,,,,,,,,,,,,,,,,,,,0,3,3,1,1,,,,,,,,,,,,,,,,,,,,,,,,,,,,,,,,,,,,,,,,,
476547,001,2022-11-21_01h26.10.082,Info_measure_main_exp,2022.2.2,Win32,143.8641922,,,,,,,,,,,,,,,,,,masks/mask_004.jpg,,,,,,,,,,,,,,,,,,,,,,,,,,,,,,,,,,,,,,,,,,,,,,,,0,4,4,3,1,,,,,,,,,,,,,,,,,,,,,,,,,,,,,,,,,,,,,,,,,
476547,001,2022-11-21_01h26.10.082,Info_measure_main_exp,2022.2.2,Win32,143.8641922,,,,,,,,,,,,,,,,,,,,,,,,,,,,,,7,0.257,1,,,,,,,,,,,,1,131,5,5,1,2214,present_patch/cong_131_5_a.jpg,absent_patch/patch0002214.jpg,,,,,,,,,,,,,,,,,,,,0.050925926,0.12962963,1,0,0,response1disk,15,0.010185185,0.010185185,1,0,0,center_square,0,14,14,4,1,,,,,,,,,,,,,,,,,,,,,,,
476547,001,2022-11-21_01h26.10.082,Info_measure_main_exp,2022.2.2,Win32,143.8641922,,,,,,,,,,,,,,,,,,masks/mask_005.jpg,,,,,,,,,,,,,,,,,,,,,,,,,,,,,,,,,,,,,,,,,,,0,0,0,4,1,,,,,,,,,,,,,,,,,,,,,,,,,,,,,,,,,,,,,,,,,,,,,,
476547,001,2022-11-21_01h26.10.082,Info_measure_main_exp,2022.2.2,Win32,143.8641922,,,,,,,,,,,,,,,,,,masks/mask_002.jpg,,,,,,,,,,,,,,,,,,,,,,,,,,,,,,,,,,,,,,,,,,,0,1,1,1,1,,,,,,,,,,,,,,,,,,,,,,,,,,,,,,,,,,,,,,,,,,,,,,
476547,001,2022-11-21_01h26.10.082,Info_measure_main_exp,2022.2.2,Win32,143.8641922,,,,,,,,,,,,,,,,,,masks/mask_003.jpg,,,,,,,,,,,,,,,,,,,,,,,,,,,,,,,,,,,,,,,,,,,0,2,2,2,1,,,,,,,,,,,,,,,,,,,,,,,,,,,,,,,,,,,,,,,,,,,,,,
476547,001,2022-11-21_01h26.10.082,Info_measure_main_exp,2022.2.2,Win32,143.8641922,,,,,,,,,,,,,,,,,,masks/mask_004.jpg,,,,,,,,,,,,,,,,,,,,,,,,,,,,,,,,,,,,,,,,,,,0,3,3,3,1,,,,,,,,,,,,,,,,,,,,,,,,,,,,,,,,,,,,,,,,,,,,,,
476547,001,2022-11-21_01h26.10.082,Info_measure_main_exp,2022.2.2,Win32,143.8641922,,,,,,,,,,,,,,,,,,masks/mask_001.jpg,,,,,,,,,,,,,,,,,,,,,,,,,,,,,,,,,,,,,,,,,,,0,4,4,0,1,,,,,,,,,,,,,,,,,,,,,,,,,,,,,,,,,,,,,,,,,,,,,,
476547,001,2022-11-21_01h26.10.082,Info_measure_main_exp,2022.2.2,Win32,143.8641922,,,,,,,,,,,,,,,,,,masks/mask_003.jpg,,,,,,,,,,,,,,,,,,,,,,,,,,,,,,,,,,,,,,,,,,,,,,,,0,0,0,2,1,,,,,,,,,,,,,,,,,,,,,,,,,,,,,,,,,,,,,,,,,
476547,001,2022-11-21_01h26.10.082,Info_measure_main_exp,2022.2.2,Win32,143.8641922,,,,,,,,,,,,,,,,,,masks/mask_002.jpg,,,,,,,,,,,,,,,,,,,,,,,,,,,,,,,,,,,,,,,,,,,,,,,,0,1,1,1,1,,,,,,,,,,,,,,,,,,,,,,,,,,,,,,,,,,,,,,,,,
476547,001,2022-11-21_01h26.10.082,Info_measure_main_exp,2022.2.2,Win32,143.8641922,,,,,,,,,,,,,,,,,,masks/mask_005.jpg,,,,,,,,,,,,,,,,,,,,,,,,,,,,,,,,,,,,,,,,,,,,,,,,0,2,2,4,1,,,,,,,,,,,,,,,,,,,,,,,,,,,,,,,,,,,,,,,,,
476547,001,2022-11-21_01h26.10.082,Info_measure_main_exp,2022.2.2,Win32,143.8641922,,,,,,,,,,,,,,,,,,masks/mask_001.jpg,,,,,,,,,,,,,,,,,,,,,,,,,,,,,,,,,,,,,,,,,,,,,,,,0,3,3,0,1,,,,,,,,,,,,,,,,,,,,,,,,,,,,,,,,,,,,,,,,,
476547,001,2022-11-21_01h26.10.082,Info_measure_main_exp,2022.2.2,Win32,143.8641922,,,,,,,,,,,,,,,,,,masks/mask_004.jpg,,,,,,,,,,,,,,,,,,,,,,,,,,,,,,,,,,,,,,,,,,,,,,,,0,4,4,3,1,,,,,,,,,,,,,,,,,,,,,,,,,,,,,,,,,,,,,,,,,
476547,001,2022-11-21_01h26.10.082,Info_measure_main_exp,2022.2.2,Win32,143.8641922,,,,,,,,,,,,,,,,,,,,,,,,,,,,,,7,0.1875,1,,,,,,,,,,,,1,131,5,5,1,1974,present_patch/cong_131_5_a.jpg,absent_patch/patch0001974.jpg,,,,,,,,,,,,,,,,,,,,0.036111111,0.107407407,1,0,0,response1disk,16,0.012962963,0.015740741,1,0,0,center_square,0,15,15,69,1,,,,,,,,,,,,,,,,,,,,,,,
476547,001,2022-11-21_01h26.10.082,Info_measure_main_exp,2022.2.2,Win32,143.8641922,,,,,,,,,,,,,,,,,,masks/mask_001.jpg,,,,,,,,,,,,,,,,,,,,,,,,,,,,,,,,,,,,,,,,,,,0,0,0,0,1,,,,,,,,,,,,,,,,,,,,,,,,,,,,,,,,,,,,,,,,,,,,,,
476547,001,2022-11-21_01h26.10.082,Info_measure_main_exp,2022.2.2,Win32,143.8641922,,,,,,,,,,,,,,,,,,masks/mask_003.jpg,,,,,,,,,,,,,,,,,,,,,,,,,,,,,,,,,,,,,,,,,,,0,1,1,2,1,,,,,,,,,,,,,,,,,,,,,,,,,,,,,,,,,,,,,,,,,,,,,,
476547,001,2022-11-21_01h26.10.082,Info_measure_main_exp,2022.2.2,Win32,143.8641922,,,,,,,,,,,,,,,,,,masks/mask_002.jpg,,,,,,,,,,,,,,,,,,,,,,,,,,,,,,,,,,,,,,,,,,,0,2,2,1,1,,,,,,,,,,,,,,,,,,,,,,,,,,,,,,,,,,,,,,,,,,,,,,
476547,001,2022-11-21_01h26.10.082,Info_measure_main_exp,2022.2.2,Win32,143.8641922,,,,,,,,,,,,,,,,,,masks/mask_005.jpg,,,,,,,,,,,,,,,,,,,,,,,,,,,,,,,,,,,,,,,,,,,0,3,3,4,1,,,,,,,,,,,,,,,,,,,,,,,,,,,,,,,,,,,,,,,,,,,,,,
476547,001,2022-11-21_01h26.10.082,Info_measure_main_exp,2022.2.2,Win32,143.8641922,,,,,,,,,,,,,,,,,,masks/mask_004.jpg,,,,,,,,,,,,,,,,,,,,,,,,,,,,,,,,,,,,,,,,,,,0,4,4,3,1,,,,,,,,,,,,,,,,,,,,,,,,,,,,,,,,,,,,,,,,,,,,,,
476547,001,2022-11-21_01h26.10.082,Info_measure_main_exp,2022.2.2,Win32,143.8641922,,,,,,,,,,,,,,,,,,masks/mask_003.jpg,,,,,,,,,,,,,,,,,,,,,,,,,,,,,,,,,,,,,,,,,,,,,,,,0,0,0,2,1,,,,,,,,,,,,,,,,,,,,,,,,,,,,,,,,,,,,,,,,,
476547,001,2022-11-21_01h26.10.082,Info_measure_main_exp,2022.2.2,Win32,143.8641922,,,,,,,,,,,,,,,,,,masks/mask_001.jpg,,,,,,,,,,,,,,,,,,,,,,,,,,,,,,,,,,,,,,,,,,,,,,,,0,1,1,0,1,,,,,,,,,,,,,,,,,,,,,,,,,,,,,,,,,,,,,,,,,
476547,001,2022-11-21_01h26.10.082,Info_measure_main_exp,2022.2.2,Win32,143.8641922,,,,,,,,,,,,,,,,,,masks/mask_005.jpg,,,,,,,,,,,,,,,,,,,,,,,,,,,,,,,,,,,,,,,,,,,,,,,,0,2,2,4,1,,,,,,,,,,,,,,,,,,,,,,,,,,,,,,,,,,,,,,,,,
476547,001,2022-11-21_01h26.10.082,Info_measure_main_exp,2022.2.2,Win32,143.8641922,,,,,,,,,,,,,,,,,,masks/mask_004.jpg,,,,,,,,,,,,,,,,,,,,,,,,,,,,,,,,,,,,,,,,,,,,,,,,0,3,3,3,1,,,,,,,,,,,,,,,,,,,,,,,,,,,,,,,,,,,,,,,,,
476547,001,2022-11-21_01h26.10.082,Info_measure_main_exp,2022.2.2,Win32,143.8641922,,,,,,,,,,,,,,,,,,masks/mask_002.jpg,,,,,,,,,,,,,,,,,,,,,,,,,,,,,,,,,,,,,,,,,,,,,,,,0,4,4,1,1,,,,,,,,,,,,,,,,,,,,,,,,,,,,,,,,,,,,,,,,,
476547,001,2022-11-21_01h26.10.082,Info_measure_main_exp,2022.2.2,Win32,143.8641922,,,,,,,,,,,,,,,,,,,,,,,,,,,,,,7,0.5348,1,,,,,,,,,,,,0,131,5,5,2142,2190,absent_patch/patch0002142.jpg,absent_patch/patch0002190.jpg,,,,,,,,,,,,,,,,,,,,0.035185185,0.130555556,1,0,0,response1disk,17,-0.00462963,0.007407407,1,0,0,center_square,0,16,16,70,1,,,,,,,,,,,,,,,,,,,,,,,
476547,001,2022-11-21_01h26.10.082,Info_measure_main_exp,2022.2.2,Win32,143.8641922,,,,,,,,,,,,,,,,,,masks/mask_003.jpg,,,,,,,,,,,,,,,,,,,,,,,,,,,,,,,,,,,,,,,,,,,0,0,0,2,1,,,,,,,,,,,,,,,,,,,,,,,,,,,,,,,,,,,,,,,,,,,,,,
476547,001,2022-11-21_01h26.10.082,Info_measure_main_exp,2022.2.2,Win32,143.8641922,,,,,,,,,,,,,,,,,,masks/mask_004.jpg,,,,,,,,,,,,,,,,,,,,,,,,,,,,,,,,,,,,,,,,,,,0,1,1,3,1,,,,,,,,,,,,,,,,,,,,,,,,,,,,,,,,,,,,,,,,,,,,,,
476547,001,2022-11-21_01h26.10.082,Info_measure_main_exp,2022.2.2,Win32,143.8641922,,,,,,,,,,,,,,,,,,masks/mask_005.jpg,,,,,,,,,,,,,,,,,,,,,,,,,,,,,,,,,,,,,,,,,,,0,2,2,4,1,,,,,,,,,,,,,,,,,,,,,,,,,,,,,,,,,,,,,,,,,,,,,,
476547,001,2022-11-21_01h26.10.082,Info_measure_main_exp,2022.2.2,Win32,143.8641922,,,,,,,,,,,,,,,,,,masks/mask_001.jpg,,,,,,,,,,,,,,,,,,,,,,,,,,,,,,,,,,,,,,,,,,,0,3,3,0,1,,,,,,,,,,,,,,,,,,,,,,,,,,,,,,,,,,,,,,,,,,,,,,
476547,001,2022-11-21_01h26.10.082,Info_measure_main_exp,2022.2.2,Win32,143.8641922,,,,,,,,,,,,,,,,,,masks/mask_002.jpg,,,,,,,,,,,,,,,,,,,,,,,,,,,,,,,,,,,,,,,,,,,0,4,4,1,1,,,,,,,,,,,,,,,,,,,,,,,,,,,,,,,,,,,,,,,,,,,,,,
476547,001,2022-11-21_01h26.10.082,Info_measure_main_exp,2022.2.2,Win32,143.8641922,,,,,,,,,,,,,,,,,,masks/mask_002.jpg,,,,,,,,,,,,,,,,,,,,,,,,,,,,,,,,,,,,,,,,,,,,,,,,0,0,0,1,1,,,,,,,,,,,,,,,,,,,,,,,,,,,,,,,,,,,,,,,,,
476547,001,2022-11-21_01h26.10.082,Info_measure_main_exp,2022.2.2,Win32,143.8641922,,,,,,,,,,,,,,,,,,masks/mask_003.jpg,,,,,,,,,,,,,,,,,,,,,,,,,,,,,,,,,,,,,,,,,,,,,,,,0,1,1,2,1,,,,,,,,,,,,,,,,,,,,,,,,,,,,,,,,,,,,,,,,,
476547,001,2022-11-21_01h26.10.082,Info_measure_main_exp,2022.2.2,Win32,143.8641922,,,,,,,,,,,,,,,,,,masks/mask_004.jpg,,,,,,,,,,,,,,,,,,,,,,,,,,,,,,,,,,,,,,,,,,,,,,,,0,2,2,3,1,,,,,,,,,,,,,,,,,,,,,,,,,,,,,,,,,,,,,,,,,
476547,001,2022-11-21_01h26.10.082,Info_measure_main_exp,2022.2.2,Win32,143.8641922,,,,,,,,,,,,,,,,,,masks/mask_001.jpg,,,,,,,,,,,,,,,,,,,,,,,,,,,,,,,,,,,,,,,,,,,,,,,,0,3,3,0,1,,,,,,,,,,,,,,,,,,,,,,,,,,,,,,,,,,,,,,,,,
476547,001,2022-11-21_01h26.10.082,Info_measure_main_exp,2022.2.2,Win32,143.8641922,,,,,,,,,,,,,,,,,,masks/mask_005.jpg,,,,,,,,,,,,,,,,,,,,,,,,,,,,,,,,,,,,,,,,,,,,,,,,0,4,4,4,1,,,,,,,,,,,,,,,,,,,,,,,,,,,,,,,,,,,,,,,,,
476547,001,2022-11-21_01h26.10.082,Info_measure_main_exp,2022.2.2,Win32,143.8641922,,,,,,,,,,,,,,,,,,,,,,,,,,,,,,7,0.2849,1,,,,,,,,,,,,1,131,5,5,2250,1,absent_patch/patch0002250.jpg,present_patch/cong_131_5_a.jpg,,,,,,,,,,,,,,,,,,,,0.05,0.143518519,1,0,0,response1disk,18,0.014814815,-0.00462963,1,0,0,center_square,0,17,17,5,1,,,,,,,,,,,,,,,,,,,,,,,
476547,001,2022-11-21_01h26.10.082,Info_measure_main_exp,2022.2.2,Win32,143.8641922,,,,,,,,,,,,,,,,,,masks/mask_001.jpg,,,,,,,,,,,,,,,,,,,,,,,,,,,,,,,,,,,,,,,,,,,0,0,0,0,1,,,,,,,,,,,,,,,,,,,,,,,,,,,,,,,,,,,,,,,,,,,,,,
476547,001,2022-11-21_01h26.10.082,Info_measure_main_exp,2022.2.2,Win32,143.8641922,,,,,,,,,,,,,,,,,,masks/mask_005.jpg,,,,,,,,,,,,,,,,,,,,,,,,,,,,,,,,,,,,,,,,,,,0,1,1,4,1,,,,,,,,,,,,,,,,,,,,,,,,,,,,,,,,,,,,,,,,,,,,,,
476547,001,2022-11-21_01h26.10.082,Info_measure_main_exp,2022.2.2,Win32,143.8641922,,,,,,,,,,,,,,,,,,masks/mask_003.jpg,,,,,,,,,,,,,,,,,,,,,,,,,,,,,,,,,,,,,,,,,,,0,2,2,2,1,,,,,,,,,,,,,,,,,,,,,,,,,,,,,,,,,,,,,,,,,,,,,,
476547,001,2022-11-21_01h26.10.082,Info_measure_main_exp,2022.2.2,Win32,143.8641922,,,,,,,,,,,,,,,,,,masks/mask_002.jpg,,,,,,,,,,,,,,,,,,,,,,,,,,,,,,,,,,,,,,,,,,,0,3,3,1,1,,,,,,,,,,,,,,,,,,,,,,,,,,,,,,,,,,,,,,,,,,,,,,
476547,001,2022-11-21_01h26.10.082,Info_measure_main_exp,2022.2.2,Win32,143.8641922,,,,,,,,,,,,,,,,,,masks/mask_004.jpg,,,,,,,,,,,,,,,,,,,,,,,,,,,,,,,,,,,,,,,,,,,0,4,4,3,1,,,,,,,,,,,,,,,,,,,,,,,,,,,,,,,,,,,,,,,,,,,,,,
476547,001,2022-11-21_01h26.10.082,Info_measure_main_exp,2022.2.2,Win32,143.8641922,,,,,,,,,,,,,,,,,,masks/mask_004.jpg,,,,,,,,,,,,,,,,,,,,,,,,,,,,,,,,,,,,,,,,,,,,,,,,0,0,0,3,1,,,,,,,,,,,,,,,,,,,,,,,,,,,,,,,,,,,,,,,,,
476547,001,2022-11-21_01h26.10.082,Info_measure_main_exp,2022.2.2,Win32,143.8641922,,,,,,,,,,,,,,,,,,masks/mask_003.jpg,,,,,,,,,,,,,,,,,,,,,,,,,,,,,,,,,,,,,,,,,,,,,,,,0,1,1,2,1,,,,,,,,,,,,,,,,,,,,,,,,,,,,,,,,,,,,,,,,,
476547,001,2022-11-21_01h26.10.082,Info_measure_main_exp,2022.2.2,Win32,143.8641922,,,,,,,,,,,,,,,,,,masks/mask_001.jpg,,,,,,,,,,,,,,,,,,,,,,,,,,,,,,,,,,,,,,,,,,,,,,,,0,2,2,0,1,,,,,,,,,,,,,,,,,,,,,,,,,,,,,,,,,,,,,,,,,
476547,001,2022-11-21_01h26.10.082,Info_measure_main_exp,2022.2.2,Win32,143.8641922,,,,,,,,,,,,,,,,,,masks/mask_005.jpg,,,,,,,,,,,,,,,,,,,,,,,,,,,,,,,,,,,,,,,,,,,,,,,,0,3,3,4,1,,,,,,,,,,,,,,,,,,,,,,,,,,,,,,,,,,,,,,,,,
476547,001,2022-11-21_01h26.10.082,Info_measure_main_exp,2022.2.2,Win32,143.8641922,,,,,,,,,,,,,,,,,,masks/mask_002.jpg,,,,,,,,,,,,,,,,,,,,,,,,,,,,,,,,,,,,,,,,,,,,,,,,0,4,4,1,1,,,,,,,,,,,,,,,,,,,,,,,,,,,,,,,,,,,,,,,,,
476547,001,2022-11-21_01h26.10.082,Info_measure_main_exp,2022.2.2,Win32,143.8641922,,,,,,,,,,,,,,,,,,,,,,,,,,,,,,7,0.215,1,,,,,,,,,,,,0,131,5,5,2214,2142,absent_patch/patch0002214.jpg,absent_patch/patch0002142.jpg,,,,,,,,,,,,,,,,,,,,0.026851852,0.124074074,1,0,0,response1disk,19,0.001851852,0.003703704,1,0,0,center_square,0,18,18,102,1,,,,,,,,,,,,,,,,,,,,,,,
476547,001,2022-11-21_01h26.10.082,Info_measure_main_exp,2022.2.2,Win32,143.8641922,,,,,,,,,,,,,,,,,,masks/mask_003.jpg,,,,,,,,,,,,,,,,,,,,,,,,,,,,,,,,,,,,,,,,,,,0,0,0,2,1,,,,,,,,,,,,,,,,,,,,,,,,,,,,,,,,,,,,,,,,,,,,,,
476547,001,2022-11-21_01h26.10.082,Info_measure_main_exp,2022.2.2,Win32,143.8641922,,,,,,,,,,,,,,,,,,masks/mask_002.jpg,,,,,,,,,,,,,,,,,,,,,,,,,,,,,,,,,,,,,,,,,,,0,1,1,1,1,,,,,,,,,,,,,,,,,,,,,,,,,,,,,,,,,,,,,,,,,,,,,,
476547,001,2022-11-21_01h26.10.082,Info_measure_main_exp,2022.2.2,Win32,143.8641922,,,,,,,,,,,,,,,,,,masks/mask_004.jpg,,,,,,,,,,,,,,,,,,,,,,,,,,,,,,,,,,,,,,,,,,,0,2,2,3,1,,,,,,,,,,,,,,,,,,,,,,,,,,,,,,,,,,,,,,,,,,,,,,
476547,001,2022-11-21_01h26.10.082,Info_measure_main_exp,2022.2.2,Win32,143.8641922,,,,,,,,,,,,,,,,,,masks/mask_005.jpg,,,,,,,,,,,,,,,,,,,,,,,,,,,,,,,,,,,,,,,,,,,0,3,3,4,1,,,,,,,,,,,,,,,,,,,,,,,,,,,,,,,,,,,,,,,,,,,,,,
476547,001,2022-11-21_01h26.10.082,Info_measure_main_exp,2022.2.2,Win32,143.8641922,,,,,,,,,,,,,,,,,,masks/mask_001.jpg,,,,,,,,,,,,,,,,,,,,,,,,,,,,,,,,,,,,,,,,,,,0,4,4,0,1,,,,,,,,,,,,,,,,,,,,,,,,,,,,,,,,,,,,,,,,,,,,,,
476547,001,2022-11-21_01h26.10.082,Info_measure_main_exp,2022.2.2,Win32,143.8641922,,,,,,,,,,,,,,,,,,masks/mask_004.jpg,,,,,,,,,,,,,,,,,,,,,,,,,,,,,,,,,,,,,,,,,,,,,,,,0,0,0,3,1,,,,,,,,,,,,,,,,,,,,,,,,,,,,,,,,,,,,,,,,,
476547,001,2022-11-21_01h26.10.082,Info_measure_main_exp,2022.2.2,Win32,143.8641922,,,,,,,,,,,,,,,,,,masks/mask_003.jpg,,,,,,,,,,,,,,,,,,,,,,,,,,,,,,,,,,,,,,,,,,,,,,,,0,1,1,2,1,,,,,,,,,,,,,,,,,,,,,,,,,,,,,,,,,,,,,,,,,
476547,001,2022-11-21_01h26.10.082,Info_measure_main_exp,2022.2.2,Win32,143.8641922,,,,,,,,,,,,,,,,,,masks/mask_001.jpg,,,,,,,,,,,,,,,,,,,,,,,,,,,,,,,,,,,,,,,,,,,,,,,,0,2,2,0,1,,,,,,,,,,,,,,,,,,,,,,,,,,,,,,,,,,,,,,,,,
476547,001,2022-11-21_01h26.10.082,Info_measure_main_exp,2022.2.2,Win32,143.8641922,,,,,,,,,,,,,,,,,,masks/mask_005.jpg,,,,,,,,,,,,,,,,,,,,,,,,,,,,,,,,,,,,,,,,,,,,,,,,0,3,3,4,1,,,,,,,,,,,,,,,,,,,,,,,,,,,,,,,,,,,,,,,,,
476547,001,2022-11-21_01h26.10.082,Info_measure_main_exp,2022.2.2,Win32,143.8641922,,,,,,,,,,,,,,,,,,masks/mask_002.jpg,,,,,,,,,,,,,,,,,,,,,,,,,,,,,,,,,,,,,,,,,,,,,,,,0,4,4,1,1,,,,,,,,,,,,,,,,,,,,,,,,,,,,,,,,,,,,,,,,,
476547,001,2022-11-21_01h26.10.082,Info_measure_main_exp,2022.2.2,Win32,143.8641922,,,,,,,,,,,,,,,,,,,,,,,,,,,,,,7,0.2779,1,,,,,,,,,,,,0,131,5,5,2190,2214,absent_patch/patch0002190.jpg,absent_patch/patch0002214.jpg,,,,,,,,,,,,,,,,,,,,0.04537037,0.112037037,1,0,0,response1disk,20,0.00462963,0.012037037,1,0,0,center_square,0,19,19,35,1,,,,,,,,,,,,,,,,,,,,,,,
476547,001,2022-11-21_01h26.10.082,Info_measure_main_exp,2022.2.2,Win32,143.8641922,,,,,,,,,,,,,,,,,,masks/mask_003.jpg,,,,,,,,,,,,,,,,,,,,,,,,,,,,,,,,,,,,,,,,,,,0,0,0,2,1,,,,,,,,,,,,,,,,,,,,,,,,,,,,,,,,,,,,,,,,,,,,,,
476547,001,2022-11-21_01h26.10.082,Info_measure_main_exp,2022.2.2,Win32,143.8641922,,,,,,,,,,,,,,,,,,masks/mask_004.jpg,,,,,,,,,,,,,,,,,,,,,,,,,,,,,,,,,,,,,,,,,,,0,1,1,3,1,,,,,,,,,,,,,,,,,,,,,,,,,,,,,,,,,,,,,,,,,,,,,,
476547,001,2022-11-21_01h26.10.082,Info_measure_main_exp,2022.2.2,Win32,143.8641922,,,,,,,,,,,,,,,,,,masks/mask_005.jpg,,,,,,,,,,,,,,,,,,,,,,,,,,,,,,,,,,,,,,,,,,,0,2,2,4,1,,,,,,,,,,,,,,,,,,,,,,,,,,,,,,,,,,,,,,,,,,,,,,
476547,001,2022-11-21_01h26.10.082,Info_measure_main_exp,2022.2.2,Win32,143.8641922,,,,,,,,,,,,,,,,,,masks/mask_001.jpg,,,,,,,,,,,,,,,,,,,,,,,,,,,,,,,,,,,,,,,,,,,0,3,3,0,1,,,,,,,,,,,,,,,,,,,,,,,,,,,,,,,,,,,,,,,,,,,,,,
476547,001,2022-11-21_01h26.10.082,Info_measure_main_exp,2022.2.2,Win32,143.8641922,,,,,,,,,,,,,,,,,,masks/mask_002.jpg,,,,,,,,,,,,,,,,,,,,,,,,,,,,,,,,,,,,,,,,,,,0,4,4,1,1,,,,,,,,,,,,,,,,,,,,,,,,,,,,,,,,,,,,,,,,,,,,,,
476547,001,2022-11-21_01h26.10.082,Info_measure_main_exp,2022.2.2,Win32,143.8641922,,,,,,,,,,,,,,,,,,masks/mask_002.jpg,,,,,,,,,,,,,,,,,,,,,,,,,,,,,,,,,,,,,,,,,,,,,,,,0,0,0,1,1,,,,,,,,,,,,,,,,,,,,,,,,,,,,,,,,,,,,,,,,,
476547,001,2022-11-21_01h26.10.082,Info_measure_main_exp,2022.2.2,Win32,143.8641922,,,,,,,,,,,,,,,,,,masks/mask_005.jpg,,,,,,,,,,,,,,,,,,,,,,,,,,,,,,,,,,,,,,,,,,,,,,,,0,1,1,4,1,,,,,,,,,,,,,,,,,,,,,,,,,,,,,,,,,,,,,,,,,
476547,001,2022-11-21_01h26.10.082,Info_measure_main_exp,2022.2.2,Win32,143.8641922,,,,,,,,,,,,,,,,,,masks/mask_001.jpg,,,,,,,,,,,,,,,,,,,,,,,,,,,,,,,,,,,,,,,,,,,,,,,,0,2,2,0,1,,,,,,,,,,,,,,,,,,,,,,,,,,,,,,,,,,,,,,,,,
476547,001,2022-11-21_01h26.10.082,Info_measure_main_exp,2022.2.2,Win32,143.8641922,,,,,,,,,,,,,,,,,,masks/mask_003.jpg,,,,,,,,,,,,,,,,,,,,,,,,,,,,,,,,,,,,,,,,,,,,,,,,0,3,3,2,1,,,,,,,,,,,,,,,,,,,,,,,,,,,,,,,,,,,,,,,,,
476547,001,2022-11-21_01h26.10.082,Info_measure_main_exp,2022.2.2,Win32,143.8641922,,,,,,,,,,,,,,,,,,masks/mask_004.jpg,,,,,,,,,,,,,,,,,,,,,,,,,,,,,,,,,,,,,,,,,,,,,,,,0,4,4,3,1,,,,,,,,,,,,,,,,,,,,,,,,,,,,,,,,,,,,,,,,,
476547,001,2022-11-21_01h26.10.082,Info_measure_main_exp,2022.2.2,Win32,143.8641922,,,,,,,,,,,,,,,,,,,,,,,,,,,,,,7,0.2013,1,,,,,,,,,,,,0,131,5,5,2250,2166,absent_patch/patch0002250.jpg,absent_patch/patch0002166.jpg,,,,,,,,,,,,,,,,,,,,0.040740741,0.121296296,1,0,0,response1disk,21,-0.002777778,-0.002777778,1,0,0,center_square,0,20,20,60,1,,,,,,,,,,,,,,,,,,,,,,,
476547,001,2022-11-21_01h26.10.082,Info_measure_main_exp,2022.2.2,Win32,143.8641922,,,,,,,,,,,,,,,,,,masks/mask_003.jpg,,,,,,,,,,,,,,,,,,,,,,,,,,,,,,,,,,,,,,,,,,,0,0,0,2,1,,,,,,,,,,,,,,,,,,,,,,,,,,,,,,,,,,,,,,,,,,,,,,
476547,001,2022-11-21_01h26.10.082,Info_measure_main_exp,2022.2.2,Win32,143.8641922,,,,,,,,,,,,,,,,,,masks/mask_004.jpg,,,,,,,,,,,,,,,,,,,,,,,,,,,,,,,,,,,,,,,,,,,0,1,1,3,1,,,,,,,,,,,,,,,,,,,,,,,,,,,,,,,,,,,,,,,,,,,,,,
476547,001,2022-11-21_01h26.10.082,Info_measure_main_exp,2022.2.2,Win32,143.8641922,,,,,,,,,,,,,,,,,,masks/mask_005.jpg,,,,,,,,,,,,,,,,,,,,,,,,,,,,,,,,,,,,,,,,,,,0,2,2,4,1,,,,,,,,,,,,,,,,,,,,,,,,,,,,,,,,,,,,,,,,,,,,,,
476547,001,2022-11-21_01h26.10.082,Info_measure_main_exp,2022.2.2,Win32,143.8641922,,,,,,,,,,,,,,,,,,masks/mask_002.jpg,,,,,,,,,,,,,,,,,,,,,,,,,,,,,,,,,,,,,,,,,,,0,3,3,1,1,,,,,,,,,,,,,,,,,,,,,,,,,,,,,,,,,,,,,,,,,,,,,,
476547,001,2022-11-21_01h26.10.082,Info_measure_main_exp,2022.2.2,Win32,143.8641922,,,,,,,,,,,,,,,,,,masks/mask_001.jpg,,,,,,,,,,,,,,,,,,,,,,,,,,,,,,,,,,,,,,,,,,,0,4,4,0,1,,,,,,,,,,,,,,,,,,,,,,,,,,,,,,,,,,,,,,,,,,,,,,
476547,001,2022-11-21_01h26.10.082,Info_measure_main_exp,2022.2.2,Win32,143.8641922,,,,,,,,,,,,,,,,,,masks/mask_004.jpg,,,,,,,,,,,,,,,,,,,,,,,,,,,,,,,,,,,,,,,,,,,,,,,,0,0,0,3,1,,,,,,,,,,,,,,,,,,,,,,,,,,,,,,,,,,,,,,,,,
476547,001,2022-11-21_01h26.10.082,Info_measure_main_exp,2022.2.2,Win32,143.8641922,,,,,,,,,,,,,,,,,,masks/mask_001.jpg,,,,,,,,,,,,,,,,,,,,,,,,,,,,,,,,,,,,,,,,,,,,,,,,0,1,1,0,1,,,,,,,,,,,,,,,,,,,,,,,,,,,,,,,,,,,,,,,,,
476547,001,2022-11-21_01h26.10.082,Info_measure_main_exp,2022.2.2,Win32,143.8641922,,,,,,,,,,,,,,,,,,masks/mask_002.jpg,,,,,,,,,,,,,,,,,,,,,,,,,,,,,,,,,,,,,,,,,,,,,,,,0,2,2,1,1,,,,,,,,,,,,,,,,,,,,,,,,,,,,,,,,,,,,,,,,,
476547,001,2022-11-21_01h26.10.082,Info_measure_main_exp,2022.2.2,Win32,143.8641922,,,,,,,,,,,,,,,,,,masks/mask_005.jpg,,,,,,,,,,,,,,,,,,,,,,,,,,,,,,,,,,,,,,,,,,,,,,,,0,3,3,4,1,,,,,,,,,,,,,,,,,,,,,,,,,,,,,,,,,,,,,,,,,
476547,001,2022-11-21_01h26.10.082,Info_measure_main_exp,2022.2.2,Win32,143.8641922,,,,,,,,,,,,,,,,,,masks/mask_003.jpg,,,,,,,,,,,,,,,,,,,,,,,,,,,,,,,,,,,,,,,,,,,,,,,,0,4,4,2,1,,,,,,,,,,,,,,,,,,,,,,,,,,,,,,,,,,,,,,,,,
476547,001,2022-11-21_01h26.10.082,Info_measure_main_exp,2022.2.2,Win32,143.8641922,,,,,,,,,,,,,,,,,,,,,,,,,,,,,,7,0.2013,1,,,,,,,,,,,,0,131,5,5,2190,2250,absent_patch/patch0002190.jpg,absent_patch/patch0002250.jpg,,,,,,,,,,,,,,,,,,,,0.015740741,0.100925926,1,0,0,response1disk,22,-0.011111111,0.014814815,1,0,0,center_square,0,21,21,93,1,,,,,,,,,,,,,,,,,,,,,,,
476547,001,2022-11-21_01h26.10.082,Info_measure_main_exp,2022.2.2,Win32,143.8641922,,,,,,,,,,,,,,,,,,masks/mask_005.jpg,,,,,,,,,,,,,,,,,,,,,,,,,,,,,,,,,,,,,,,,,,,0,0,0,4,1,,,,,,,,,,,,,,,,,,,,,,,,,,,,,,,,,,,,,,,,,,,,,,
476547,001,2022-11-21_01h26.10.082,Info_measure_main_exp,2022.2.2,Win32,143.8641922,,,,,,,,,,,,,,,,,,masks/mask_004.jpg,,,,,,,,,,,,,,,,,,,,,,,,,,,,,,,,,,,,,,,,,,,0,1,1,3,1,,,,,,,,,,,,,,,,,,,,,,,,,,,,,,,,,,,,,,,,,,,,,,
476547,001,2022-11-21_01h26.10.082,Info_measure_main_exp,2022.2.2,Win32,143.8641922,,,,,,,,,,,,,,,,,,masks/mask_002.jpg,,,,,,,,,,,,,,,,,,,,,,,,,,,,,,,,,,,,,,,,,,,0,2,2,1,1,,,,,,,,,,,,,,,,,,,,,,,,,,,,,,,,,,,,,,,,,,,,,,
476547,001,2022-11-21_01h26.10.082,Info_measure_main_exp,2022.2.2,Win32,143.8641922,,,,,,,,,,,,,,,,,,masks/mask_003.jpg,,,,,,,,,,,,,,,,,,,,,,,,,,,,,,,,,,,,,,,,,,,0,3,3,2,1,,,,,,,,,,,,,,,,,,,,,,,,,,,,,,,,,,,,,,,,,,,,,,
476547,001,2022-11-21_01h26.10.082,Info_measure_main_exp,2022.2.2,Win32,143.8641922,,,,,,,,,,,,,,,,,,masks/mask_001.jpg,,,,,,,,,,,,,,,,,,,,,,,,,,,,,,,,,,,,,,,,,,,0,4,4,0,1,,,,,,,,,,,,,,,,,,,,,,,,,,,,,,,,,,,,,,,,,,,,,,
476547,001,2022-11-21_01h26.10.082,Info_measure_main_exp,2022.2.2,Win32,143.8641922,,,,,,,,,,,,,,,,,,masks/mask_002.jpg,,,,,,,,,,,,,,,,,,,,,,,,,,,,,,,,,,,,,,,,,,,,,,,,0,0,0,1,1,,,,,,,,,,,,,,,,,,,,,,,,,,,,,,,,,,,,,,,,,
476547,001,2022-11-21_01h26.10.082,Info_measure_main_exp,2022.2.2,Win32,143.8641922,,,,,,,,,,,,,,,,,,masks/mask_005.jpg,,,,,,,,,,,,,,,,,,,,,,,,,,,,,,,,,,,,,,,,,,,,,,,,0,1,1,4,1,,,,,,,,,,,,,,,,,,,,,,,,,,,,,,,,,,,,,,,,,
476547,001,2022-11-21_01h26.10.082,Info_measure_main_exp,2022.2.2,Win32,143.8641922,,,,,,,,,,,,,,,,,,masks/mask_004.jpg,,,,,,,,,,,,,,,,,,,,,,,,,,,,,,,,,,,,,,,,,,,,,,,,0,2,2,3,1,,,,,,,,,,,,,,,,,,,,,,,,,,,,,,,,,,,,,,,,,
476547,001,2022-11-21_01h26.10.082,Info_measure_main_exp,2022.2.2,Win32,143.8641922,,,,,,,,,,,,,,,,,,masks/mask_003.jpg,,,,,,,,,,,,,,,,,,,,,,,,,,,,,,,,,,,,,,,,,,,,,,,,0,3,3,2,1,,,,,,,,,,,,,,,,,,,,,,,,,,,,,,,,,,,,,,,,,
476547,001,2022-11-21_01h26.10.082,Info_measure_main_exp,2022.2.2,Win32,143.8641922,,,,,,,,,,,,,,,,,,masks/mask_001.jpg,,,,,,,,,,,,,,,,,,,,,,,,,,,,,,,,,,,,,,,,,,,,,,,,0,4,4,0,1,,,,,,,,,,,,,,,,,,,,,,,,,,,,,,,,,,,,,,,,,
476547,001,2022-11-21_01h26.10.082,Info_measure_main_exp,2022.2.2,Win32,143.8641922,,,,,,,,,,,,,,,,,,,,,,,,,,,,,,7,0.2848,1,,,,,,,,,,,,1,131,5,5,1,2178,present_patch/cong_131_5_a.jpg,absent_patch/patch0002178.jpg,,,,,,,,,,,,,,,,,,,,0.032407407,0.102777778,1,0,0,response1disk,23,0.015740741,0.008333333,1,0,0,center_square,0,22,22,40,1,,,,,,,,,,,,,,,,,,,,,,,
476547,001,2022-11-21_01h26.10.082,Info_measure_main_exp,2022.2.2,Win32,143.8641922,,,,,,,,,,,,,,,,,,masks/mask_004.jpg,,,,,,,,,,,,,,,,,,,,,,,,,,,,,,,,,,,,,,,,,,,0,0,0,3,1,,,,,,,,,,,,,,,,,,,,,,,,,,,,,,,,,,,,,,,,,,,,,,
476547,001,2022-11-21_01h26.10.082,Info_measure_main_exp,2022.2.2,Win32,143.8641922,,,,,,,,,,,,,,,,,,masks/mask_001.jpg,,,,,,,,,,,,,,,,,,,,,,,,,,,,,,,,,,,,,,,,,,,0,1,1,0,1,,,,,,,,,,,,,,,,,,,,,,,,,,,,,,,,,,,,,,,,,,,,,,
476547,001,2022-11-21_01h26.10.082,Info_measure_main_exp,2022.2.2,Win32,143.8641922,,,,,,,,,,,,,,,,,,masks/mask_003.jpg,,,,,,,,,,,,,,,,,,,,,,,,,,,,,,,,,,,,,,,,,,,0,2,2,2,1,,,,,,,,,,,,,,,,,,,,,,,,,,,,,,,,,,,,,,,,,,,,,,
476547,001,2022-11-21_01h26.10.082,Info_measure_main_exp,2022.2.2,Win32,143.8641922,,,,,,,,,,,,,,,,,,masks/mask_005.jpg,,,,,,,,,,,,,,,,,,,,,,,,,,,,,,,,,,,,,,,,,,,0,3,3,4,1,,,,,,,,,,,,,,,,,,,,,,,,,,,,,,,,,,,,,,,,,,,,,,
476547,001,2022-11-21_01h26.10.082,Info_measure_main_exp,2022.2.2,Win32,143.8641922,,,,,,,,,,,,,,,,,,masks/mask_002.jpg,,,,,,,,,,,,,,,,,,,,,,,,,,,,,,,,,,,,,,,,,,,0,4,4,1,1,,,,,,,,,,,,,,,,,,,,,,,,,,,,,,,,,,,,,,,,,,,,,,
476547,001,2022-11-21_01h26.10.082,Info_measure_main_exp,2022.2.2,Win32,143.8641922,,,,,,,,,,,,,,,,,,masks/mask_003.jpg,,,,,,,,,,,,,,,,,,,,,,,,,,,,,,,,,,,,,,,,,,,,,,,,0,0,0,2,1,,,,,,,,,,,,,,,,,,,,,,,,,,,,,,,,,,,,,,,,,
476547,001,2022-11-21_01h26.10.082,Info_measure_main_exp,2022.2.2,Win32,143.8641922,,,,,,,,,,,,,,,,,,masks/mask_001.jpg,,,,,,,,,,,,,,,,,,,,,,,,,,,,,,,,,,,,,,,,,,,,,,,,0,1,1,0,1,,,,,,,,,,,,,,,,,,,,,,,,,,,,,,,,,,,,,,,,,
476547,001,2022-11-21_01h26.10.082,Info_measure_main_exp,2022.2.2,Win32,143.8641922,,,,,,,,,,,,,,,,,,masks/mask_002.jpg,,,,,,,,,,,,,,,,,,,,,,,,,,,,,,,,,,,,,,,,,,,,,,,,0,2,2,1,1,,,,,,,,,,,,,,,,,,,,,,,,,,,,,,,,,,,,,,,,,
476547,001,2022-11-21_01h26.10.082,Info_measure_main_exp,2022.2.2,Win32,143.8641922,,,,,,,,,,,,,,,,,,masks/mask_005.jpg,,,,,,,,,,,,,,,,,,,,,,,,,,,,,,,,,,,,,,,,,,,,,,,,0,3,3,4,1,,,,,,,,,,,,,,,,,,,,,,,,,,,,,,,,,,,,,,,,,
476547,001,2022-11-21_01h26.10.082,Info_measure_main_exp,2022.2.2,Win32,143.8641922,,,,,,,,,,,,,,,,,,masks/mask_004.jpg,,,,,,,,,,,,,,,,,,,,,,,,,,,,,,,,,,,,,,,,,,,,,,,,0,4,4,3,1,,,,,,,,,,,,,,,,,,,,,,,,,,,,,,,,,,,,,,,,,
476547,001,2022-11-21_01h26.10.082,Info_measure_main_exp,2022.2.2,Win32,143.8641922,,,,,,,,,,,,,,,,,,,,,,,,,,,,,,5,1.0209,1,,,,,,,,,,,,0,131,5,5,2274,2238,absent_patch/patch0002274.jpg,absent_patch/patch0002238.jpg,,,,,,,,,,,,,,,,,,,,0.111111111,-0.026851852,1,0,0,response3disk,24,0.016666667,0.014814815,1,0,0,center_square,0,23,23,91,1,,,,,,,,,,,,,,,,,,,,,,,
476547,001,2022-11-21_01h26.10.082,Info_measure_main_exp,2022.2.2,Win32,143.8641922,,,,,,,,,,,,,,,,,,masks/mask_001.jpg,,,,,,,,,,,,,,,,,,,,,,,,,,,,,,,,,,,,,,,,,,,0,0,0,0,1,,,,,,,,,,,,,,,,,,,,,,,,,,,,,,,,,,,,,,,,,,,,,,
476547,001,2022-11-21_01h26.10.082,Info_measure_main_exp,2022.2.2,Win32,143.8641922,,,,,,,,,,,,,,,,,,masks/mask_003.jpg,,,,,,,,,,,,,,,,,,,,,,,,,,,,,,,,,,,,,,,,,,,0,1,1,2,1,,,,,,,,,,,,,,,,,,,,,,,,,,,,,,,,,,,,,,,,,,,,,,
476547,001,2022-11-21_01h26.10.082,Info_measure_main_exp,2022.2.2,Win32,143.8641922,,,,,,,,,,,,,,,,,,masks/mask_005.jpg,,,,,,,,,,,,,,,,,,,,,,,,,,,,,,,,,,,,,,,,,,,0,2,2,4,1,,,,,,,,,,,,,,,,,,,,,,,,,,,,,,,,,,,,,,,,,,,,,,
476547,001,2022-11-21_01h26.10.082,Info_measure_main_exp,2022.2.2,Win32,143.8641922,,,,,,,,,,,,,,,,,,masks/mask_002.jpg,,,,,,,,,,,,,,,,,,,,,,,,,,,,,,,,,,,,,,,,,,,0,3,3,1,1,,,,,,,,,,,,,,,,,,,,,,,,,,,,,,,,,,,,,,,,,,,,,,
476547,001,2022-11-21_01h26.10.082,Info_measure_main_exp,2022.2.2,Win32,143.8641922,,,,,,,,,,,,,,,,,,masks/mask_004.jpg,,,,,,,,,,,,,,,,,,,,,,,,,,,,,,,,,,,,,,,,,,,0,4,4,3,1,,,,,,,,,,,,,,,,,,,,,,,,,,,,,,,,,,,,,,,,,,,,,,
476547,001,2022-11-21_01h26.10.082,Info_measure_main_exp,2022.2.2,Win32,143.8641922,,,,,,,,,,,,,,,,,,masks/mask_002.jpg,,,,,,,,,,,,,,,,,,,,,,,,,,,,,,,,,,,,,,,,,,,,,,,,0,0,0,1,1,,,,,,,,,,,,,,,,,,,,,,,,,,,,,,,,,,,,,,,,,
476547,001,2022-11-21_01h26.10.082,Info_measure_main_exp,2022.2.2,Win32,143.8641922,,,,,,,,,,,,,,,,,,masks/mask_001.jpg,,,,,,,,,,,,,,,,,,,,,,,,,,,,,,,,,,,,,,,,,,,,,,,,0,1,1,0,1,,,,,,,,,,,,,,,,,,,,,,,,,,,,,,,,,,,,,,,,,
476547,001,2022-11-21_01h26.10.082,Info_measure_main_exp,2022.2.2,Win32,143.8641922,,,,,,,,,,,,,,,,,,masks/mask_003.jpg,,,,,,,,,,,,,,,,,,,,,,,,,,,,,,,,,,,,,,,,,,,,,,,,0,2,2,2,1,,,,,,,,,,,,,,,,,,,,,,,,,,,,,,,,,,,,,,,,,
476547,001,2022-11-21_01h26.10.082,Info_measure_main_exp,2022.2.2,Win32,143.8641922,,,,,,,,,,,,,,,,,,masks/mask_004.jpg,,,,,,,,,,,,,,,,,,,,,,,,,,,,,,,,,,,,,,,,,,,,,,,,0,3,3,3,1,,,,,,,,,,,,,,,,,,,,,,,,,,,,,,,,,,,,,,,,,
476547,001,2022-11-21_01h26.10.082,Info_measure_main_exp,2022.2.2,Win32,143.8641922,,,,,,,,,,,,,,,,,,masks/mask_005.jpg,,,,,,,,,,,,,,,,,,,,,,,,,,,,,,,,,,,,,,,,,,,,,,,,0,4,4,4,1,,,,,,,,,,,,,,,,,,,,,,,,,,,,,,,,,,,,,,,,,
476547,001,2022-11-21_01h26.10.082,Info_measure_main_exp,2022.2.2,Win32,143.8641922,,,,,,,,,,,,,,,,,,,,,,,,,,,,,,0,0.2849,1,,,,,,,,,,,,0,131,5,5,2082,2082,absent_patch/patch0002082.jpg,absent_patch/patch0002082.jpg,,,,,,,,,,,,,,,,,,,,-0.041666667,0.1,1,0,0,response7disk,25,0.009259259,-0.001851852,1,0,0,center_square,0,24,24,74,1,,,,,,,,,,,,,,,,,,,,,,,
476547,001,2022-11-21_01h26.10.082,Info_measure_main_exp,2022.2.2,Win32,143.8641922,,,,,,,,,,,,,,,,,,masks/mask_005.jpg,,,,,,,,,,,,,,,,,,,,,,,,,,,,,,,,,,,,,,,,,,,0,0,0,4,1,,,,,,,,,,,,,,,,,,,,,,,,,,,,,,,,,,,,,,,,,,,,,,
476547,001,2022-11-21_01h26.10.082,Info_measure_main_exp,2022.2.2,Win32,143.8641922,,,,,,,,,,,,,,,,,,masks/mask_003.jpg,,,,,,,,,,,,,,,,,,,,,,,,,,,,,,,,,,,,,,,,,,,0,1,1,2,1,,,,,,,,,,,,,,,,,,,,,,,,,,,,,,,,,,,,,,,,,,,,,,
476547,001,2022-11-21_01h26.10.082,Info_measure_main_exp,2022.2.2,Win32,143.8641922,,,,,,,,,,,,,,,,,,masks/mask_002.jpg,,,,,,,,,,,,,,,,,,,,,,,,,,,,,,,,,,,,,,,,,,,0,2,2,1,1,,,,,,,,,,,,,,,,,,,,,,,,,,,,,,,,,,,,,,,,,,,,,,
476547,001,2022-11-21_01h26.10.082,Info_measure_main_exp,2022.2.2,Win32,143.8641922,,,,,,,,,,,,,,,,,,masks/mask_001.jpg,,,,,,,,,,,,,,,,,,,,,,,,,,,,,,,,,,,,,,,,,,,0,3,3,0,1,,,,,,,,,,,,,,,,,,,,,,,,,,,,,,,,,,,,,,,,,,,,,,
476547,001,2022-11-21_01h26.10.082,Info_measure_main_exp,2022.2.2,Win32,143.8641922,,,,,,,,,,,,,,,,,,masks/mask_004.jpg,,,,,,,,,,,,,,,,,,,,,,,,,,,,,,,,,,,,,,,,,,,0,4,4,3,1,,,,,,,,,,,,,,,,,,,,,,,,,,,,,,,,,,,,,,,,,,,,,,
476547,001,2022-11-21_01h26.10.082,Info_measure_main_exp,2022.2.2,Win32,143.8641922,,,,,,,,,,,,,,,,,,masks/mask_004.jpg,,,,,,,,,,,,,,,,,,,,,,,,,,,,,,,,,,,,,,,,,,,,,,,,0,0,0,3,1,,,,,,,,,,,,,,,,,,,,,,,,,,,,,,,,,,,,,,,,,
476547,001,2022-11-21_01h26.10.082,Info_measure_main_exp,2022.2.2,Win32,143.8641922,,,,,,,,,,,,,,,,,,masks/mask_005.jpg,,,,,,,,,,,,,,,,,,,,,,,,,,,,,,,,,,,,,,,,,,,,,,,,0,1,1,4,1,,,,,,,,,,,,,,,,,,,,,,,,,,,,,,,,,,,,,,,,,
476547,001,2022-11-21_01h26.10.082,Info_measure_main_exp,2022.2.2,Win32,143.8641922,,,,,,,,,,,,,,,,,,masks/mask_001.jpg,,,,,,,,,,,,,,,,,,,,,,,,,,,,,,,,,,,,,,,,,,,,,,,,0,2,2,0,1,,,,,,,,,,,,,,,,,,,,,,,,,,,,,,,,,,,,,,,,,
476547,001,2022-11-21_01h26.10.082,Info_measure_main_exp,2022.2.2,Win32,143.8641922,,,,,,,,,,,,,,,,,,masks/mask_002.jpg,,,,,,,,,,,,,,,,,,,,,,,,,,,,,,,,,,,,,,,,,,,,,,,,0,3,3,1,1,,,,,,,,,,,,,,,,,,,,,,,,,,,,,,,,,,,,,,,,,
476547,001,2022-11-21_01h26.10.082,Info_measure_main_exp,2022.2.2,Win32,143.8641922,,,,,,,,,,,,,,,,,,masks/mask_003.jpg,,,,,,,,,,,,,,,,,,,,,,,,,,,,,,,,,,,,,,,,,,,,,,,,0,4,4,2,1,,,,,,,,,,,,,,,,,,,,,,,,,,,,,,,,,,,,,,,,,
476547,001,2022-11-21_01h26.10.082,Info_measure_main_exp,2022.2.2,Win32,143.8641922,,,,,,,,,,,,,,,,,,,,,,,,,,,,,,0,0.2917,1,,,,,,,,,,,,0,131,5,5,1986,1986,absent_patch/patch0001986.jpg,absent_patch/patch0001986.jpg,,,,,,,,,,,,,,,,,,,,-0.052777778,0.097222222,1,0,0,response7disk,26,0.007407407,0.002777778,1,0,0,center_square,0,25,25,19,1,,,,,,,,,,,,,,,,,,,,,,,
476547,001,2022-11-21_01h26.10.082,Info_measure_main_exp,2022.2.2,Win32,143.8641922,,,,,,,,,,,,,,,,,,masks/mask_005.jpg,,,,,,,,,,,,,,,,,,,,,,,,,,,,,,,,,,,,,,,,,,,0,0,0,4,1,,,,,,,,,,,,,,,,,,,,,,,,,,,,,,,,,,,,,,,,,,,,,,
476547,001,2022-11-21_01h26.10.082,Info_measure_main_exp,2022.2.2,Win32,143.8641922,,,,,,,,,,,,,,,,,,masks/mask_004.jpg,,,,,,,,,,,,,,,,,,,,,,,,,,,,,,,,,,,,,,,,,,,0,1,1,3,1,,,,,,,,,,,,,,,,,,,,,,,,,,,,,,,,,,,,,,,,,,,,,,
476547,001,2022-11-21_01h26.10.082,Info_measure_main_exp,2022.2.2,Win32,143.8641922,,,,,,,,,,,,,,,,,,masks/mask_001.jpg,,,,,,,,,,,,,,,,,,,,,,,,,,,,,,,,,,,,,,,,,,,0,2,2,0,1,,,,,,,,,,,,,,,,,,,,,,,,,,,,,,,,,,,,,,,,,,,,,,
476547,001,2022-11-21_01h26.10.082,Info_measure_main_exp,2022.2.2,Win32,143.8641922,,,,,,,,,,,,,,,,,,masks/mask_002.jpg,,,,,,,,,,,,,,,,,,,,,,,,,,,,,,,,,,,,,,,,,,,0,3,3,1,1,,,,,,,,,,,,,,,,,,,,,,,,,,,,,,,,,,,,,,,,,,,,,,
476547,001,2022-11-21_01h26.10.082,Info_measure_main_exp,2022.2.2,Win32,143.8641922,,,,,,,,,,,,,,,,,,masks/mask_003.jpg,,,,,,,,,,,,,,,,,,,,,,,,,,,,,,,,,,,,,,,,,,,0,4,4,2,1,,,,,,,,,,,,,,,,,,,,,,,,,,,,,,,,,,,,,,,,,,,,,,
476547,001,2022-11-21_01h26.10.082,Info_measure_main_exp,2022.2.2,Win32,143.8641922,,,,,,,,,,,,,,,,,,masks/mask_005.jpg,,,,,,,,,,,,,,,,,,,,,,,,,,,,,,,,,,,,,,,,,,,,,,,,0,0,0,4,1,,,,,,,,,,,,,,,,,,,,,,,,,,,,,,,,,,,,,,,,,
476547,001,2022-11-21_01h26.10.082,Info_measure_main_exp,2022.2.2,Win32,143.8641922,,,,,,,,,,,,,,,,,,masks/mask_004.jpg,,,,,,,,,,,,,,,,,,,,,,,,,,,,,,,,,,,,,,,,,,,,,,,,0,1,1,3,1,,,,,,,,,,,,,,,,,,,,,,,,,,,,,,,,,,,,,,,,,
476547,001,2022-11-21_01h26.10.082,Info_measure_main_exp,2022.2.2,Win32,143.8641922,,,,,,,,,,,,,,,,,,masks/mask_001.jpg,,,,,,,,,,,,,,,,,,,,,,,,,,,,,,,,,,,,,,,,,,,,,,,,0,2,2,0,1,,,,,,,,,,,,,,,,,,,,,,,,,,,,,,,,,,,,,,,,,
476547,001,2022-11-21_01h26.10.082,Info_measure_main_exp,2022.2.2,Win32,143.8641922,,,,,,,,,,,,,,,,,,masks/mask_002.jpg,,,,,,,,,,,,,,,,,,,,,,,,,,,,,,,,,,,,,,,,,,,,,,,,0,3,3,1,1,,,,,,,,,,,,,,,,,,,,,,,,,,,,,,,,,,,,,,,,,
476547,001,2022-11-21_01h26.10.082,Info_measure_main_exp,2022.2.2,Win32,143.8641922,,,,,,,,,,,,,,,,,,masks/mask_003.jpg,,,,,,,,,,,,,,,,,,,,,,,,,,,,,,,,,,,,,,,,,,,,,,,,0,4,4,2,1,,,,,,,,,,,,,,,,,,,,,,,,,,,,,,,,,,,,,,,,,
476547,001,2022-11-21_01h26.10.082,Info_measure_main_exp,2022.2.2,Win32,143.8641922,,,,,,,,,,,,,,,,,,,,,,,,,,,,,,7,1.3262,1,,,,,,,,,,,,0,131,5,5,2250,2178,absent_patch/patch0002250.jpg,absent_patch/patch0002178.jpg,,,,,,,,,,,,,,,,,,,,0.037037037,0.141666667,1,0,0,response1disk,27,0.005555556,0.002777778,1,0,0,center_square,0,26,26,48,1,,,,,,,,,,,,,,,,,,,,,,,
476547,001,2022-11-21_01h26.10.082,Info_measure_main_exp,2022.2.2,Win32,143.8641922,,,,,,,,,,,,,,,,,,masks/mask_002.jpg,,,,,,,,,,,,,,,,,,,,,,,,,,,,,,,,,,,,,,,,,,,0,0,0,1,1,,,,,,,,,,,,,,,,,,,,,,,,,,,,,,,,,,,,,,,,,,,,,,
476547,001,2022-11-21_01h26.10.082,Info_measure_main_exp,2022.2.2,Win32,143.8641922,,,,,,,,,,,,,,,,,,masks/mask_001.jpg,,,,,,,,,,,,,,,,,,,,,,,,,,,,,,,,,,,,,,,,,,,0,1,1,0,1,,,,,,,,,,,,,,,,,,,,,,,,,,,,,,,,,,,,,,,,,,,,,,
476547,001,2022-11-21_01h26.10.082,Info_measure_main_exp,2022.2.2,Win32,143.8641922,,,,,,,,,,,,,,,,,,masks/mask_005.jpg,,,,,,,,,,,,,,,,,,,,,,,,,,,,,,,,,,,,,,,,,,,0,2,2,4,1,,,,,,,,,,,,,,,,,,,,,,,,,,,,,,,,,,,,,,,,,,,,,,
476547,001,2022-11-21_01h26.10.082,Info_measure_main_exp,2022.2.2,Win32,143.8641922,,,,,,,,,,,,,,,,,,masks/mask_004.jpg,,,,,,,,,,,,,,,,,,,,,,,,,,,,,,,,,,,,,,,,,,,0,3,3,3,1,,,,,,,,,,,,,,,,,,,,,,,,,,,,,,,,,,,,,,,,,,,,,,
476547,001,2022-11-21_01h26.10.082,Info_measure_main_exp,2022.2.2,Win32,143.8641922,,,,,,,,,,,,,,,,,,masks/mask_003.jpg,,,,,,,,,,,,,,,,,,,,,,,,,,,,,,,,,,,,,,,,,,,0,4,4,2,1,,,,,,,,,,,,,,,,,,,,,,,,,,,,,,,,,,,,,,,,,,,,,,
476547,001,2022-11-21_01h26.10.082,Info_measure_main_exp,2022.2.2,Win32,143.8641922,,,,,,,,,,,,,,,,,,masks/mask_003.jpg,,,,,,,,,,,,,,,,,,,,,,,,,,,,,,,,,,,,,,,,,,,,,,,,0,0,0,2,1,,,,,,,,,,,,,,,,,,,,,,,,,,,,,,,,,,,,,,,,,
476547,001,2022-11-21_01h26.10.082,Info_measure_main_exp,2022.2.2,Win32,143.8641922,,,,,,,,,,,,,,,,,,masks/mask_004.jpg,,,,,,,,,,,,,,,,,,,,,,,,,,,,,,,,,,,,,,,,,,,,,,,,0,1,1,3,1,,,,,,,,,,,,,,,,,,,,,,,,,,,,,,,,,,,,,,,,,
476547,001,2022-11-21_01h26.10.082,Info_measure_main_exp,2022.2.2,Win32,143.8641922,,,,,,,,,,,,,,,,,,masks/mask_002.jpg,,,,,,,,,,,,,,,,,,,,,,,,,,,,,,,,,,,,,,,,,,,,,,,,0,2,2,1,1,,,,,,,,,,,,,,,,,,,,,,,,,,,,,,,,,,,,,,,,,
476547,001,2022-11-21_01h26.10.082,Info_measure_main_exp,2022.2.2,Win32,143.8641922,,,,,,,,,,,,,,,,,,masks/mask_005.jpg,,,,,,,,,,,,,,,,,,,,,,,,,,,,,,,,,,,,,,,,,,,,,,,,0,3,3,4,1,,,,,,,,,,,,,,,,,,,,,,,,,,,,,,,,,,,,,,,,,
476547,001,2022-11-21_01h26.10.082,Info_measure_main_exp,2022.2.2,Win32,143.8641922,,,,,,,,,,,,,,,,,,masks/mask_001.jpg,,,,,,,,,,,,,,,,,,,,,,,,,,,,,,,,,,,,,,,,,,,,,,,,0,4,4,0,1,,,,,,,,,,,,,,,,,,,,,,,,,,,,,,,,,,,,,,,,,
476547,001,2022-11-21_01h26.10.082,Info_measure_main_exp,2022.2.2,Win32,143.8641922,,,,,,,,,,,,,,,,,,,,,,,,,,,,,,7,0.2637,1,,,,,,,,,,,,0,131,5,5,2178,2154,absent_patch/patch0002178.jpg,absent_patch/patch0002154.jpg,,,,,,,,,,,,,,,,,,,,0.025925926,0.126851852,1,0,0,response1disk,28,0.005555556,0.012037037,1,0,0,center_square,0,27,27,63,1,,,,,,,,,,,,,,,,,,,,,,,
476547,001,2022-11-21_01h26.10.082,Info_measure_main_exp,2022.2.2,Win32,143.8641922,,,,,,,,,,,,,,,,,,masks/mask_001.jpg,,,,,,,,,,,,,,,,,,,,,,,,,,,,,,,,,,,,,,,,,,,0,0,0,0,1,,,,,,,,,,,,,,,,,,,,,,,,,,,,,,,,,,,,,,,,,,,,,,
476547,001,2022-11-21_01h26.10.082,Info_measure_main_exp,2022.2.2,Win32,143.8641922,,,,,,,,,,,,,,,,,,masks/mask_003.jpg,,,,,,,,,,,,,,,,,,,,,,,,,,,,,,,,,,,,,,,,,,,0,1,1,2,1,,,,,,,,,,,,,,,,,,,,,,,,,,,,,,,,,,,,,,,,,,,,,,
476547,001,2022-11-21_01h26.10.082,Info_measure_main_exp,2022.2.2,Win32,143.8641922,,,,,,,,,,,,,,,,,,masks/mask_004.jpg,,,,,,,,,,,,,,,,,,,,,,,,,,,,,,,,,,,,,,,,,,,0,2,2,3,1,,,,,,,,,,,,,,,,,,,,,,,,,,,,,,,,,,,,,,,,,,,,,,
476547,001,2022-11-21_01h26.10.082,Info_measure_main_exp,2022.2.2,Win32,143.8641922,,,,,,,,,,,,,,,,,,masks/mask_002.jpg,,,,,,,,,,,,,,,,,,,,,,,,,,,,,,,,,,,,,,,,,,,0,3,3,1,1,,,,,,,,,,,,,,,,,,,,,,,,,,,,,,,,,,,,,,,,,,,,,,
476547,001,2022-11-21_01h26.10.082,Info_measure_main_exp,2022.2.2,Win32,143.8641922,,,,,,,,,,,,,,,,,,masks/mask_005.jpg,,,,,,,,,,,,,,,,,,,,,,,,,,,,,,,,,,,,,,,,,,,0,4,4,4,1,,,,,,,,,,,,,,,,,,,,,,,,,,,,,,,,,,,,,,,,,,,,,,
476547,001,2022-11-21_01h26.10.082,Info_measure_main_exp,2022.2.2,Win32,143.8641922,,,,,,,,,,,,,,,,,,masks/mask_002.jpg,,,,,,,,,,,,,,,,,,,,,,,,,,,,,,,,,,,,,,,,,,,,,,,,0,0,0,1,1,,,,,,,,,,,,,,,,,,,,,,,,,,,,,,,,,,,,,,,,,
476547,001,2022-11-21_01h26.10.082,Info_measure_main_exp,2022.2.2,Win32,143.8641922,,,,,,,,,,,,,,,,,,masks/mask_003.jpg,,,,,,,,,,,,,,,,,,,,,,,,,,,,,,,,,,,,,,,,,,,,,,,,0,1,1,2,1,,,,,,,,,,,,,,,,,,,,,,,,,,,,,,,,,,,,,,,,,
476547,001,2022-11-21_01h26.10.082,Info_measure_main_exp,2022.2.2,Win32,143.8641922,,,,,,,,,,,,,,,,,,masks/mask_005.jpg,,,,,,,,,,,,,,,,,,,,,,,,,,,,,,,,,,,,,,,,,,,,,,,,0,2,2,4,1,,,,,,,,,,,,,,,,,,,,,,,,,,,,,,,,,,,,,,,,,
476547,001,2022-11-21_01h26.10.082,Info_measure_main_exp,2022.2.2,Win32,143.8641922,,,,,,,,,,,,,,,,,,masks/mask_001.jpg,,,,,,,,,,,,,,,,,,,,,,,,,,,,,,,,,,,,,,,,,,,,,,,,0,3,3,0,1,,,,,,,,,,,,,,,,,,,,,,,,,,,,,,,,,,,,,,,,,
476547,001,2022-11-21_01h26.10.082,Info_measure_main_exp,2022.2.2,Win32,143.8641922,,,,,,,,,,,,,,,,,,masks/mask_004.jpg,,,,,,,,,,,,,,,,,,,,,,,,,,,,,,,,,,,,,,,,,,,,,,,,0,4,4,3,1,,,,,,,,,,,,,,,,,,,,,,,,,,,,,,,,,,,,,,,,,
476547,001,2022-11-21_01h26.10.082,Info_measure_main_exp,2022.2.2,Win32,143.8641922,,,,,,,,,,,,,,,,,,,,,,,,,,,,,,7,0.2499,1,,,,,,,,,,,,0,131,5,5,2082,2178,absent_patch/patch0002082.jpg,absent_patch/patch0002178.jpg,,,,,,,,,,,,,,,,,,,,0.037037037,0.12037037,1,0,0,response1disk,29,0,-0.014814815,1,0,0,center_square,0,28,28,2,1,,,,,,,,,,,,,,,,,,,,,,,
476547,001,2022-11-21_01h26.10.082,Info_measure_main_exp,2022.2.2,Win32,143.8641922,,,,,,,,,,,,,,,,,,masks/mask_005.jpg,,,,,,,,,,,,,,,,,,,,,,,,,,,,,,,,,,,,,,,,,,,0,0,0,4,1,,,,,,,,,,,,,,,,,,,,,,,,,,,,,,,,,,,,,,,,,,,,,,
476547,001,2022-11-21_01h26.10.082,Info_measure_main_exp,2022.2.2,Win32,143.8641922,,,,,,,,,,,,,,,,,,masks/mask_003.jpg,,,,,,,,,,,,,,,,,,,,,,,,,,,,,,,,,,,,,,,,,,,0,1,1,2,1,,,,,,,,,,,,,,,,,,,,,,,,,,,,,,,,,,,,,,,,,,,,,,
476547,001,2022-11-21_01h26.10.082,Info_measure_main_exp,2022.2.2,Win32,143.8641922,,,,,,,,,,,,,,,,,,masks/mask_004.jpg,,,,,,,,,,,,,,,,,,,,,,,,,,,,,,,,,,,,,,,,,,,0,2,2,3,1,,,,,,,,,,,,,,,,,,,,,,,,,,,,,,,,,,,,,,,,,,,,,,
476547,001,2022-11-21_01h26.10.082,Info_measure_main_exp,2022.2.2,Win32,143.8641922,,,,,,,,,,,,,,,,,,masks/mask_002.jpg,,,,,,,,,,,,,,,,,,,,,,,,,,,,,,,,,,,,,,,,,,,0,3,3,1,1,,,,,,,,,,,,,,,,,,,,,,,,,,,,,,,,,,,,,,,,,,,,,,
476547,001,2022-11-21_01h26.10.082,Info_measure_main_exp,2022.2.2,Win32,143.8641922,,,,,,,,,,,,,,,,,,masks/mask_001.jpg,,,,,,,,,,,,,,,,,,,,,,,,,,,,,,,,,,,,,,,,,,,0,4,4,0,1,,,,,,,,,,,,,,,,,,,,,,,,,,,,,,,,,,,,,,,,,,,,,,
476547,001,2022-11-21_01h26.10.082,Info_measure_main_exp,2022.2.2,Win32,143.8641922,,,,,,,,,,,,,,,,,,masks/mask_004.jpg,,,,,,,,,,,,,,,,,,,,,,,,,,,,,,,,,,,,,,,,,,,,,,,,0,0,0,3,1,,,,,,,,,,,,,,,,,,,,,,,,,,,,,,,,,,,,,,,,,
476547,001,2022-11-21_01h26.10.082,Info_measure_main_exp,2022.2.2,Win32,143.8641922,,,,,,,,,,,,,,,,,,masks/mask_002.jpg,,,,,,,,,,,,,,,,,,,,,,,,,,,,,,,,,,,,,,,,,,,,,,,,0,1,1,1,1,,,,,,,,,,,,,,,,,,,,,,,,,,,,,,,,,,,,,,,,,
476547,001,2022-11-21_01h26.10.082,Info_measure_main_exp,2022.2.2,Win32,143.8641922,,,,,,,,,,,,,,,,,,masks/mask_003.jpg,,,,,,,,,,,,,,,,,,,,,,,,,,,,,,,,,,,,,,,,,,,,,,,,0,2,2,2,1,,,,,,,,,,,,,,,,,,,,,,,,,,,,,,,,,,,,,,,,,
476547,001,2022-11-21_01h26.10.082,Info_measure_main_exp,2022.2.2,Win32,143.8641922,,,,,,,,,,,,,,,,,,masks/mask_005.jpg,,,,,,,,,,,,,,,,,,,,,,,,,,,,,,,,,,,,,,,,,,,,,,,,0,3,3,4,1,,,,,,,,,,,,,,,,,,,,,,,,,,,,,,,,,,,,,,,,,
476547,001,2022-11-21_01h26.10.082,Info_measure_main_exp,2022.2.2,Win32,143.8641922,,,,,,,,,,,,,,,,,,masks/mask_001.jpg,,,,,,,,,,,,,,,,,,,,,,,,,,,,,,,,,,,,,,,,,,,,,,,,0,4,4,0,1,,,,,,,,,,,,,,,,,,,,,,,,,,,,,,,,,,,,,,,,,
476547,001,2022-11-21_01h26.10.082,Info_measure_main_exp,2022.2.2,Win32,143.8641922,,,,,,,,,,,,,,,,,,,,,,,,,,,,,,7,0.2637,1,,,,,,,,,,,,0,131,5,5,2190,2178,absent_patch/patch0002190.jpg,absent_patch/patch0002178.jpg,,,,,,,,,,,,,,,,,,,,0.041666667,0.108333333,1,0,0,response1disk,30,-0.006481481,0.007407407,1,0,0,center_square,0,29,29,14,1,,,,,,,,,,,,,,,,,,,,,,,
476547,001,2022-11-21_01h26.10.082,Info_measure_main_exp,2022.2.2,Win32,143.8641922,,,,,,,,,,,,,,,,,,masks/mask_004.jpg,,,,,,,,,,,,,,,,,,,,,,,,,,,,,,,,,,,,,,,,,,,0,0,0,3,1,,,,,,,,,,,,,,,,,,,,,,,,,,,,,,,,,,,,,,,,,,,,,,
476547,001,2022-11-21_01h26.10.082,Info_measure_main_exp,2022.2.2,Win32,143.8641922,,,,,,,,,,,,,,,,,,masks/mask_005.jpg,,,,,,,,,,,,,,,,,,,,,,,,,,,,,,,,,,,,,,,,,,,0,1,1,4,1,,,,,,,,,,,,,,,,,,,,,,,,,,,,,,,,,,,,,,,,,,,,,,
476547,001,2022-11-21_01h26.10.082,Info_measure_main_exp,2022.2.2,Win32,143.8641922,,,,,,,,,,,,,,,,,,masks/mask_003.jpg,,,,,,,,,,,,,,,,,,,,,,,,,,,,,,,,,,,,,,,,,,,0,2,2,2,1,,,,,,,,,,,,,,,,,,,,,,,,,,,,,,,,,,,,,,,,,,,,,,
476547,001,2022-11-21_01h26.10.082,Info_measure_main_exp,2022.2.2,Win32,143.8641922,,,,,,,,,,,,,,,,,,masks/mask_002.jpg,,,,,,,,,,,,,,,,,,,,,,,,,,,,,,,,,,,,,,,,,,,0,3,3,1,1,,,,,,,,,,,,,,,,,,,,,,,,,,,,,,,,,,,,,,,,,,,,,,
476547,001,2022-11-21_01h26.10.082,Info_measure_main_exp,2022.2.2,Win32,143.8641922,,,,,,,,,,,,,,,,,,masks/mask_001.jpg,,,,,,,,,,,,,,,,,,,,,,,,,,,,,,,,,,,,,,,,,,,0,4,4,0,1,,,,,,,,,,,,,,,,,,,,,,,,,,,,,,,,,,,,,,,,,,,,,,
476547,001,2022-11-21_01h26.10.082,Info_measure_main_exp,2022.2.2,Win32,143.8641922,,,,,,,,,,,,,,,,,,masks/mask_002.jpg,,,,,,,,,,,,,,,,,,,,,,,,,,,,,,,,,,,,,,,,,,,,,,,,0,0,0,1,1,,,,,,,,,,,,,,,,,,,,,,,,,,,,,,,,,,,,,,,,,
476547,001,2022-11-21_01h26.10.082,Info_measure_main_exp,2022.2.2,Win32,143.8641922,,,,,,,,,,,,,,,,,,masks/mask_005.jpg,,,,,,,,,,,,,,,,,,,,,,,,,,,,,,,,,,,,,,,,,,,,,,,,0,1,1,4,1,,,,,,,,,,,,,,,,,,,,,,,,,,,,,,,,,,,,,,,,,
476547,001,2022-11-21_01h26.10.082,Info_measure_main_exp,2022.2.2,Win32,143.8641922,,,,,,,,,,,,,,,,,,masks/mask_003.jpg,,,,,,,,,,,,,,,,,,,,,,,,,,,,,,,,,,,,,,,,,,,,,,,,0,2,2,2,1,,,,,,,,,,,,,,,,,,,,,,,,,,,,,,,,,,,,,,,,,
476547,001,2022-11-21_01h26.10.082,Info_measure_main_exp,2022.2.2,Win32,143.8641922,,,,,,,,,,,,,,,,,,masks/mask_004.jpg,,,,,,,,,,,,,,,,,,,,,,,,,,,,,,,,,,,,,,,,,,,,,,,,0,3,3,3,1,,,,,,,,,,,,,,,,,,,,,,,,,,,,,,,,,,,,,,,,,
476547,001,2022-11-21_01h26.10.082,Info_measure_main_exp,2022.2.2,Win32,143.8641922,,,,,,,,,,,,,,,,,,masks/mask_001.jpg,,,,,,,,,,,,,,,,,,,,,,,,,,,,,,,,,,,,,,,,,,,,,,,,0,4,4,0,1,,,,,,,,,,,,,,,,,,,,,,,,,,,,,,,,,,,,,,,,,
476547,001,2022-11-21_01h26.10.082,Info_measure_main_exp,2022.2.2,Win32,143.8641922,,,,,,,,,,,,,,,,,,,,,,,,,,,,,,0,0.2776,1,,,,,,,,,,,,0,131,5,5,2154,2154,absent_patch/patch0002154.jpg,absent_patch/patch0002154.jpg,,,,,,,,,,,,,,,,,,,,-0.065740741,0.166666667,1,0,0,response7disk,31,0.003703704,0.007407407,1,0,0,center_square,0,30,30,89,1,,,,,,,,,,,,,,,,,,,,,,,
476547,001,2022-11-21_01h26.10.082,Info_measure_main_exp,2022.2.2,Win32,143.8641922,,,,,,,,,,,,,,,,,,masks/mask_004.jpg,,,,,,,,,,,,,,,,,,,,,,,,,,,,,,,,,,,,,,,,,,,0,0,0,3,1,,,,,,,,,,,,,,,,,,,,,,,,,,,,,,,,,,,,,,,,,,,,,,
476547,001,2022-11-21_01h26.10.082,Info_measure_main_exp,2022.2.2,Win32,143.8641922,,,,,,,,,,,,,,,,,,masks/mask_001.jpg,,,,,,,,,,,,,,,,,,,,,,,,,,,,,,,,,,,,,,,,,,,0,1,1,0,1,,,,,,,,,,,,,,,,,,,,,,,,,,,,,,,,,,,,,,,,,,,,,,
476547,001,2022-11-21_01h26.10.082,Info_measure_main_exp,2022.2.2,Win32,143.8641922,,,,,,,,,,,,,,,,,,masks/mask_003.jpg,,,,,,,,,,,,,,,,,,,,,,,,,,,,,,,,,,,,,,,,,,,0,2,2,2,1,,,,,,,,,,,,,,,,,,,,,,,,,,,,,,,,,,,,,,,,,,,,,,
476547,001,2022-11-21_01h26.10.082,Info_measure_main_exp,2022.2.2,Win32,143.8641922,,,,,,,,,,,,,,,,,,masks/mask_002.jpg,,,,,,,,,,,,,,,,,,,,,,,,,,,,,,,,,,,,,,,,,,,0,3,3,1,1,,,,,,,,,,,,,,,,,,,,,,,,,,,,,,,,,,,,,,,,,,,,,,
476547,001,2022-11-21_01h26.10.082,Info_measure_main_exp,2022.2.2,Win32,143.8641922,,,,,,,,,,,,,,,,,,masks/mask_005.jpg,,,,,,,,,,,,,,,,,,,,,,,,,,,,,,,,,,,,,,,,,,,0,4,4,4,1,,,,,,,,,,,,,,,,,,,,,,,,,,,,,,,,,,,,,,,,,,,,,,
476547,001,2022-11-21_01h26.10.082,Info_measure_main_exp,2022.2.2,Win32,143.8641922,,,,,,,,,,,,,,,,,,masks/mask_002.jpg,,,,,,,,,,,,,,,,,,,,,,,,,,,,,,,,,,,,,,,,,,,,,,,,0,0,0,1,1,,,,,,,,,,,,,,,,,,,,,,,,,,,,,,,,,,,,,,,,,
476547,001,2022-11-21_01h26.10.082,Info_measure_main_exp,2022.2.2,Win32,143.8641922,,,,,,,,,,,,,,,,,,masks/mask_001.jpg,,,,,,,,,,,,,,,,,,,,,,,,,,,,,,,,,,,,,,,,,,,,,,,,0,1,1,0,1,,,,,,,,,,,,,,,,,,,,,,,,,,,,,,,,,,,,,,,,,
476547,001,2022-11-21_01h26.10.082,Info_measure_main_exp,2022.2.2,Win32,143.8641922,,,,,,,,,,,,,,,,,,masks/mask_003.jpg,,,,,,,,,,,,,,,,,,,,,,,,,,,,,,,,,,,,,,,,,,,,,,,,0,2,2,2,1,,,,,,,,,,,,,,,,,,,,,,,,,,,,,,,,,,,,,,,,,
476547,001,2022-11-21_01h26.10.082,Info_measure_main_exp,2022.2.2,Win32,143.8641922,,,,,,,,,,,,,,,,,,masks/mask_005.jpg,,,,,,,,,,,,,,,,,,,,,,,,,,,,,,,,,,,,,,,,,,,,,,,,0,3,3,4,1,,,,,,,,,,,,,,,,,,,,,,,,,,,,,,,,,,,,,,,,,
476547,001,2022-11-21_01h26.10.082,Info_measure_main_exp,2022.2.2,Win32,143.8641922,,,,,,,,,,,,,,,,,,masks/mask_004.jpg,,,,,,,,,,,,,,,,,,,,,,,,,,,,,,,,,,,,,,,,,,,,,,,,0,4,4,3,1,,,,,,,,,,,,,,,,,,,,,,,,,,,,,,,,,,,,,,,,,
476547,001,2022-11-21_01h26.10.082,Info_measure_main_exp,2022.2.2,Win32,143.8641922,,,,,,,,,,,,,,,,,,,,,,,,,,,,,,7,0.2915,1,,,,,,,,,,,,0,131,5,5,2214,2178,absent_patch/patch0002214.jpg,absent_patch/patch0002178.jpg,,,,,,,,,,,,,,,,,,,,0.047222222,0.115740741,1,0,0,response1disk,32,0.003703704,0.016666667,1,0,0,center_square,0,31,31,62,1,,,,,,,,,,,,,,,,,,,,,,,
476547,001,2022-11-21_01h26.10.082,Info_measure_main_exp,2022.2.2,Win32,143.8641922,,,,,,,,,,,,,,,,,,masks/mask_005.jpg,,,,,,,,,,,,,,,,,,,,,,,,,,,,,,,,,,,,,,,,,,,0,0,0,4,1,,,,,,,,,,,,,,,,,,,,,,,,,,,,,,,,,,,,,,,,,,,,,,
476547,001,2022-11-21_01h26.10.082,Info_measure_main_exp,2022.2.2,Win32,143.8641922,,,,,,,,,,,,,,,,,,masks/mask_004.jpg,,,,,,,,,,,,,,,,,,,,,,,,,,,,,,,,,,,,,,,,,,,0,1,1,3,1,,,,,,,,,,,,,,,,,,,,,,,,,,,,,,,,,,,,,,,,,,,,,,
476547,001,2022-11-21_01h26.10.082,Info_measure_main_exp,2022.2.2,Win32,143.8641922,,,,,,,,,,,,,,,,,,masks/mask_001.jpg,,,,,,,,,,,,,,,,,,,,,,,,,,,,,,,,,,,,,,,,,,,0,2,2,0,1,,,,,,,,,,,,,,,,,,,,,,,,,,,,,,,,,,,,,,,,,,,,,,
476547,001,2022-11-21_01h26.10.082,Info_measure_main_exp,2022.2.2,Win32,143.8641922,,,,,,,,,,,,,,,,,,masks/mask_002.jpg,,,,,,,,,,,,,,,,,,,,,,,,,,,,,,,,,,,,,,,,,,,0,3,3,1,1,,,,,,,,,,,,,,,,,,,,,,,,,,,,,,,,,,,,,,,,,,,,,,
476547,001,2022-11-21_01h26.10.082,Info_measure_main_exp,2022.2.2,Win32,143.8641922,,,,,,,,,,,,,,,,,,masks/mask_003.jpg,,,,,,,,,,,,,,,,,,,,,,,,,,,,,,,,,,,,,,,,,,,0,4,4,2,1,,,,,,,,,,,,,,,,,,,,,,,,,,,,,,,,,,,,,,,,,,,,,,
476547,001,2022-11-21_01h26.10.082,Info_measure_main_exp,2022.2.2,Win32,143.8641922,,,,,,,,,,,,,,,,,,masks/mask_004.jpg,,,,,,,,,,,,,,,,,,,,,,,,,,,,,,,,,,,,,,,,,,,,,,,,0,0,0,3,1,,,,,,,,,,,,,,,,,,,,,,,,,,,,,,,,,,,,,,,,,
476547,001,2022-11-21_01h26.10.082,Info_measure_main_exp,2022.2.2,Win32,143.8641922,,,,,,,,,,,,,,,,,,masks/mask_005.jpg,,,,,,,,,,,,,,,,,,,,,,,,,,,,,,,,,,,,,,,,,,,,,,,,0,1,1,4,1,,,,,,,,,,,,,,,,,,,,,,,,,,,,,,,,,,,,,,,,,
476547,001,2022-11-21_01h26.10.082,Info_measure_main_exp,2022.2.2,Win32,143.8641922,,,,,,,,,,,,,,,,,,masks/mask_002.jpg,,,,,,,,,,,,,,,,,,,,,,,,,,,,,,,,,,,,,,,,,,,,,,,,0,2,2,1,1,,,,,,,,,,,,,,,,,,,,,,,,,,,,,,,,,,,,,,,,,
476547,001,2022-11-21_01h26.10.082,Info_measure_main_exp,2022.2.2,Win32,143.8641922,,,,,,,,,,,,,,,,,,masks/mask_003.jpg,,,,,,,,,,,,,,,,,,,,,,,,,,,,,,,,,,,,,,,,,,,,,,,,0,3,3,2,1,,,,,,,,,,,,,,,,,,,,,,,,,,,,,,,,,,,,,,,,,
476547,001,2022-11-21_01h26.10.082,Info_measure_main_exp,2022.2.2,Win32,143.8641922,,,,,,,,,,,,,,,,,,masks/mask_001.jpg,,,,,,,,,,,,,,,,,,,,,,,,,,,,,,,,,,,,,,,,,,,,,,,,0,4,4,0,1,,,,,,,,,,,,,,,,,,,,,,,,,,,,,,,,,,,,,,,,,
476547,001,2022-11-21_01h26.10.082,Info_measure_main_exp,2022.2.2,Win32,143.8641922,,,,,,,,,,,,,,,,,,,,,,,,,,,,,,7,0.4306,1,,,,,,,,,,,,0,131,5,5,2238,2298,absent_patch/patch0002238.jpg,absent_patch/patch0002298.jpg,,,,,,,,,,,,,,,,,,,,0.043518519,0.10462963,1,0,0,response1disk,33,-0.00462963,-0.00462963,1,0,0,center_square,0,32,32,51,1,,,,,,,,,,,,,,,,,,,,,,,
476547,001,2022-11-21_01h26.10.082,Info_measure_main_exp,2022.2.2,Win32,143.8641922,,,,,,,,,,,,,,,,,,masks/mask_002.jpg,,,,,,,,,,,,,,,,,,,,,,,,,,,,,,,,,,,,,,,,,,,0,0,0,1,1,,,,,,,,,,,,,,,,,,,,,,,,,,,,,,,,,,,,,,,,,,,,,,
476547,001,2022-11-21_01h26.10.082,Info_measure_main_exp,2022.2.2,Win32,143.8641922,,,,,,,,,,,,,,,,,,masks/mask_003.jpg,,,,,,,,,,,,,,,,,,,,,,,,,,,,,,,,,,,,,,,,,,,0,1,1,2,1,,,,,,,,,,,,,,,,,,,,,,,,,,,,,,,,,,,,,,,,,,,,,,
476547,001,2022-11-21_01h26.10.082,Info_measure_main_exp,2022.2.2,Win32,143.8641922,,,,,,,,,,,,,,,,,,masks/mask_005.jpg,,,,,,,,,,,,,,,,,,,,,,,,,,,,,,,,,,,,,,,,,,,0,2,2,4,1,,,,,,,,,,,,,,,,,,,,,,,,,,,,,,,,,,,,,,,,,,,,,,
476547,001,2022-11-21_01h26.10.082,Info_measure_main_exp,2022.2.2,Win32,143.8641922,,,,,,,,,,,,,,,,,,masks/mask_004.jpg,,,,,,,,,,,,,,,,,,,,,,,,,,,,,,,,,,,,,,,,,,,0,3,3,3,1,,,,,,,,,,,,,,,,,,,,,,,,,,,,,,,,,,,,,,,,,,,,,,
476547,001,2022-11-21_01h26.10.082,Info_measure_main_exp,2022.2.2,Win32,143.8641922,,,,,,,,,,,,,,,,,,masks/mask_001.jpg,,,,,,,,,,,,,,,,,,,,,,,,,,,,,,,,,,,,,,,,,,,0,4,4,0,1,,,,,,,,,,,,,,,,,,,,,,,,,,,,,,,,,,,,,,,,,,,,,,
476547,001,2022-11-21_01h26.10.082,Info_measure_main_exp,2022.2.2,Win32,143.8641922,,,,,,,,,,,,,,,,,,masks/mask_002.jpg,,,,,,,,,,,,,,,,,,,,,,,,,,,,,,,,,,,,,,,,,,,,,,,,0,0,0,1,1,,,,,,,,,,,,,,,,,,,,,,,,,,,,,,,,,,,,,,,,,
476547,001,2022-11-21_01h26.10.082,Info_measure_main_exp,2022.2.2,Win32,143.8641922,,,,,,,,,,,,,,,,,,masks/mask_003.jpg,,,,,,,,,,,,,,,,,,,,,,,,,,,,,,,,,,,,,,,,,,,,,,,,0,1,1,2,1,,,,,,,,,,,,,,,,,,,,,,,,,,,,,,,,,,,,,,,,,
476547,001,2022-11-21_01h26.10.082,Info_measure_main_exp,2022.2.2,Win32,143.8641922,,,,,,,,,,,,,,,,,,masks/mask_004.jpg,,,,,,,,,,,,,,,,,,,,,,,,,,,,,,,,,,,,,,,,,,,,,,,,0,2,2,3,1,,,,,,,,,,,,,,,,,,,,,,,,,,,,,,,,,,,,,,,,,
476547,001,2022-11-21_01h26.10.082,Info_measure_main_exp,2022.2.2,Win32,143.8641922,,,,,,,,,,,,,,,,,,masks/mask_005.jpg,,,,,,,,,,,,,,,,,,,,,,,,,,,,,,,,,,,,,,,,,,,,,,,,0,3,3,4,1,,,,,,,,,,,,,,,,,,,,,,,,,,,,,,,,,,,,,,,,,
476547,001,2022-11-21_01h26.10.082,Info_measure_main_exp,2022.2.2,Win32,143.8641922,,,,,,,,,,,,,,,,,,masks/mask_001.jpg,,,,,,,,,,,,,,,,,,,,,,,,,,,,,,,,,,,,,,,,,,,,,,,,0,4,4,0,1,,,,,,,,,,,,,,,,,,,,,,,,,,,,,,,,,,,,,,,,,
476547,001,2022-11-21_01h26.10.082,Info_measure_main_exp,2022.2.2,Win32,143.8641922,,,,,,,,,,,,,,,,,,,,,,,,,,,,,,7,0.396,1,,,,,,,,,,,,1,131,5,5,2190,1,absent_patch/patch0002190.jpg,present_patch/cong_131_5_a.jpg,,,,,,,,,,,,,,,,,,,,0.027777778,0.098148148,1,0,0,response1disk,34,-0.001851852,-0.005555556,1,0,0,center_square,0,33,33,64,1,,,,,,,,,,,,,,,,,,,,,,,
476547,001,2022-11-21_01h26.10.082,Info_measure_main_exp,2022.2.2,Win32,143.8641922,,,,,,,,,,,,,,,,,,masks/mask_004.jpg,,,,,,,,,,,,,,,,,,,,,,,,,,,,,,,,,,,,,,,,,,,0,0,0,3,1,,,,,,,,,,,,,,,,,,,,,,,,,,,,,,,,,,,,,,,,,,,,,,
476547,001,2022-11-21_01h26.10.082,Info_measure_main_exp,2022.2.2,Win32,143.8641922,,,,,,,,,,,,,,,,,,masks/mask_002.jpg,,,,,,,,,,,,,,,,,,,,,,,,,,,,,,,,,,,,,,,,,,,0,1,1,1,1,,,,,,,,,,,,,,,,,,,,,,,,,,,,,,,,,,,,,,,,,,,,,,
476547,001,2022-11-21_01h26.10.082,Info_measure_main_exp,2022.2.2,Win32,143.8641922,,,,,,,,,,,,,,,,,,masks/mask_001.jpg,,,,,,,,,,,,,,,,,,,,,,,,,,,,,,,,,,,,,,,,,,,0,2,2,0,1,,,,,,,,,,,,,,,,,,,,,,,,,,,,,,,,,,,,,,,,,,,,,,
476547,001,2022-11-21_01h26.10.082,Info_measure_main_exp,2022.2.2,Win32,143.8641922,,,,,,,,,,,,,,,,,,masks/mask_003.jpg,,,,,,,,,,,,,,,,,,,,,,,,,,,,,,,,,,,,,,,,,,,0,3,3,2,1,,,,,,,,,,,,,,,,,,,,,,,,,,,,,,,,,,,,,,,,,,,,,,
476547,001,2022-11-21_01h26.10.082,Info_measure_main_exp,2022.2.2,Win32,143.8641922,,,,,,,,,,,,,,,,,,masks/mask_005.jpg,,,,,,,,,,,,,,,,,,,,,,,,,,,,,,,,,,,,,,,,,,,0,4,4,4,1,,,,,,,,,,,,,,,,,,,,,,,,,,,,,,,,,,,,,,,,,,,,,,
476547,001,2022-11-21_01h26.10.082,Info_measure_main_exp,2022.2.2,Win32,143.8641922,,,,,,,,,,,,,,,,,,masks/mask_005.jpg,,,,,,,,,,,,,,,,,,,,,,,,,,,,,,,,,,,,,,,,,,,,,,,,0,0,0,4,1,,,,,,,,,,,,,,,,,,,,,,,,,,,,,,,,,,,,,,,,,
476547,001,2022-11-21_01h26.10.082,Info_measure_main_exp,2022.2.2,Win32,143.8641922,,,,,,,,,,,,,,,,,,masks/mask_004.jpg,,,,,,,,,,,,,,,,,,,,,,,,,,,,,,,,,,,,,,,,,,,,,,,,0,1,1,3,1,,,,,,,,,,,,,,,,,,,,,,,,,,,,,,,,,,,,,,,,,
476547,001,2022-11-21_01h26.10.082,Info_measure_main_exp,2022.2.2,Win32,143.8641922,,,,,,,,,,,,,,,,,,masks/mask_001.jpg,,,,,,,,,,,,,,,,,,,,,,,,,,,,,,,,,,,,,,,,,,,,,,,,0,2,2,0,1,,,,,,,,,,,,,,,,,,,,,,,,,,,,,,,,,,,,,,,,,
476547,001,2022-11-21_01h26.10.082,Info_measure_main_exp,2022.2.2,Win32,143.8641922,,,,,,,,,,,,,,,,,,masks/mask_002.jpg,,,,,,,,,,,,,,,,,,,,,,,,,,,,,,,,,,,,,,,,,,,,,,,,0,3,3,1,1,,,,,,,,,,,,,,,,,,,,,,,,,,,,,,,,,,,,,,,,,
