participant,session,date,expName,psychopyVersion,OS,frameRate,space_press_continue.keys,space_press_continue.rt,space_press_continue_2.keys,space_press_continue_2.rt,space_press_continue_3.keys,space_press_continue_3.rt,space_press_continue_4.keys,space_press_continue_4.rt,space_press_continue_5.keys,space_press_continue_5.rt,space_press_continue_6.keys,space_press_continue_6.rt,prac_mask_loop_1.thisRepN,prac_mask_loop_1.thisTrialN,prac_mask_loop_1.thisN,prac_mask_loop_1.thisIndex,prac_mask_loop_1.ran,mask_name,prac_mask_loop_2.thisRepN,prac_mask_loop_2.thisTrialN,prac_mask_loop_2.thisN,prac_mask_loop_2.thisIndex,prac_mask_loop_2.ran,mouse_2.x,mouse_2.y,mouse_2.leftButton,mouse_2.midButton,mouse_2.rightButton,mouse_2.clicked_name,similarity,response_time,Pass,mouse_12.x,mouse_12.y,mouse_12.leftButton,mouse_12.midButton,mouse_12.rightButton,mouse_12.clicked_name,prac_loop.thisRepN,prac_loop.thisTrialN,prac_loop.thisN,prac_loop.thisIndex,prac_loop.ran,Pair_type,Image_num,Patch_1_loc,Patch_2_loc,Patch_1_info,Patch_2_info,Patch_1_name,Patch_2_name,mouse_1.x,mouse_1.y,mouse_1.leftButton,mouse_1.midButton,mouse_1.rightButton,mouse_1.time,mouse_1.clicked_name,space_press_continue_7.keys,space_press_continue_7.rt,mask_loop.thisRepN,mask_loop.thisTrialN,mask_loop.thisN,mask_loop.thisIndex,mask_loop.ran,mask_loop_2.thisRepN,mask_loop_2.thisTrialN,mask_loop_2.thisN,mask_loop_2.thisIndex,mask_loop_2.ran,mouse.x,mouse.y,mouse.leftButton,mouse.midButton,mouse.rightButton,mouse.clicked_name,trialNumber,mouse_11.x,mouse_11.y,mouse_11.leftButton,mouse_11.midButton,mouse_11.rightButton,mouse_11.clicked_name,first_pass_loop.thisRepN,first_pass_loop.thisTrialN,first_pass_loop.thisN,first_pass_loop.thisIndex,first_pass_loop.ran,mask_loop_3.thisRepN,mask_loop_3.thisTrialN,mask_loop_3.thisN,mask_loop_3.thisIndex,mask_loop_3.ran,mask_loop_4.thisRepN,mask_loop_4.thisTrialN,mask_loop_4.thisN,mask_loop_4.thisIndex,mask_loop_4.ran,mouse_3.x,mouse_3.y,mouse_3.leftButton,mouse_3.midButton,mouse_3.rightButton,mouse_3.clicked_name,double_pass_loop.thisRepN,double_pass_loop.thisTrialN,double_pass_loop.thisN,double_pass_loop.thisIndex,double_pass_loop.ran,space_exit.keys,space_exit.rt
484318,001,2022-11-20_23h49.22.813,Info_measure_main_exp,2022.2.2,Win32,60.02040694,,,,,,,,,,,,,,,,,,,,,,,,,,,,,,,,,,,,,,,,,,,,,,,,,,,,,,,,,,,,,,,,,,,,,,,,,,,,,,,,,,,,,,,,,,,,,,,,,,,,,,,,,,,,,,,
484318,001,2022-11-20_23h49.22.813,Info_measure_main_exp,2022.2.2,Win32,60.02040694,,,,,,,,,,,,,,,,,,,,,,,,,,,,,,,,,,,,,,,,,,,,,,,,,,,,,,,,,,,,,,,,,,,,,,,,,,,,,,,,,,,,,,,,,,,,,,,,,,,,,,,,,,,,,,,
484318,001,2022-11-20_23h49.22.813,Info_measure_main_exp,2022.2.2,Win32,60.02040694,space,13.6201,,,,,,,,,,,,,,,,,,,,,,,,,,,,,,,,,,,,,,,,,,,,,,,,,,,,,,,,,,,,,,,,,,,,,,,,,,,,,,,,,,,,,,,,,,,,,,,,,,,,,,,,,,,,,
484318,001,2022-11-20_23h49.22.813,Info_measure_main_exp,2022.2.2,Win32,60.02040694,,,space,11.1709,,,,,,,,,,,,,,,,,,,,,,,,,,,,,,,,,,,,,,,,,,,,,,,,,,,,,,,,,,,,,,,,,,,,,,,,,,,,,,,,,,,,,,,,,,,,,,,,,,,,,,,,,,,
484318,001,2022-11-20_23h49.22.813,Info_measure_main_exp,2022.2.2,Win32,60.02040694,,,,,space,10.9243,,,,,,,,,,,,,,,,,,,,,,,,,,,,,,,,,,,,,,,,,,,,,,,,,,,,,,,,,,,,,,,,,,,,,,,,,,,,,,,,,,,,,,,,,,,,,,,,,,,,,,,,,
484318,001,2022-11-20_23h49.22.813,Info_measure_main_exp,2022.2.2,Win32,60.02040694,,,,,,,space,23.9855,,,,,,,,,,,,,,,,,,,,,,,,,,,,,,,,,,,,,,,,,,,,,,,,,,,,,,,,,,,,,,,,,,,,,,,,,,,,,,,,,,,,,,,,,,,,,,,,,,,,,,,
484318,001,2022-11-20_23h49.22.813,Info_measure_main_exp,2022.2.2,Win32,60.02040694,,,,,,,,,space,5.596,,,,,,,,,,,,,,,,,,,,,,,,,,,,,,,,,,,,,,,,,,,,,,,,,,,,,,,,,,,,,,,,,,,,,,,,,,,,,,,,,,,,,,,,,,,,,,,,,,,,,
484318,001,2022-11-20_23h49.22.813,Info_measure_main_exp,2022.2.2,Win32,60.02040694,,,,,,,,,,,space,7.3258,,,,,,,,,,,,,,,,,,,,,,,,,,,,,,,,,,,,,,,,,,,,,,,,,,,,,,,,,,,,,,,,,,,,,,,,,,,,,,,,,,,,,,,,,,,,,,,,,,,
484318,001,2022-11-20_23h49.22.813,Info_measure_main_exp,2022.2.2,Win32,60.02040694,,,,,,,,,,,,,0,0,0,0,1,masks/mask_001.jpg,,,,,,,,,,,,,,,,,,,,,,,,,,,,,,,,,,,,,,,,,,,,,,,,,,,,,,,,,,,,,,,,,,,,,,,,,,,,,,,,,,,,,,,,,,,,,
484318,001,2022-11-20_23h49.22.813,Info_measure_main_exp,2022.2.2,Win32,60.02040694,,,,,,,,,,,,,0,1,1,2,1,masks/mask_003.jpg,,,,,,,,,,,,,,,,,,,,,,,,,,,,,,,,,,,,,,,,,,,,,,,,,,,,,,,,,,,,,,,,,,,,,,,,,,,,,,,,,,,,,,,,,,,,,
484318,001,2022-11-20_23h49.22.813,Info_measure_main_exp,2022.2.2,Win32,60.02040694,,,,,,,,,,,,,0,2,2,3,1,masks/mask_004.jpg,,,,,,,,,,,,,,,,,,,,,,,,,,,,,,,,,,,,,,,,,,,,,,,,,,,,,,,,,,,,,,,,,,,,,,,,,,,,,,,,,,,,,,,,,,,,,
484318,001,2022-11-20_23h49.22.813,Info_measure_main_exp,2022.2.2,Win32,60.02040694,,,,,,,,,,,,,0,3,3,1,1,masks/mask_002.jpg,,,,,,,,,,,,,,,,,,,,,,,,,,,,,,,,,,,,,,,,,,,,,,,,,,,,,,,,,,,,,,,,,,,,,,,,,,,,,,,,,,,,,,,,,,,,,
484318,001,2022-11-20_23h49.22.813,Info_measure_main_exp,2022.2.2,Win32,60.02040694,,,,,,,,,,,,,0,4,4,4,1,masks/mask_005.jpg,,,,,,,,,,,,,,,,,,,,,,,,,,,,,,,,,,,,,,,,,,,,,,,,,,,,,,,,,,,,,,,,,,,,,,,,,,,,,,,,,,,,,,,,,,,,,
484318,001,2022-11-20_23h49.22.813,Info_measure_main_exp,2022.2.2,Win32,60.02040694,,,,,,,,,,,,,,,,,,masks/mask_004.jpg,0,0,0,3,1,,,,,,,,,,,,,,,,,,,,,,,,,,,,,,,,,,,,,,,,,,,,,,,,,,,,,,,,,,,,,,,,,,,,,,,,,,,,,,,,,,,,,,,,
484318,001,2022-11-20_23h49.22.813,Info_measure_main_exp,2022.2.2,Win32,60.02040694,,,,,,,,,,,,,,,,,,masks/mask_001.jpg,0,1,1,0,1,,,,,,,,,,,,,,,,,,,,,,,,,,,,,,,,,,,,,,,,,,,,,,,,,,,,,,,,,,,,,,,,,,,,,,,,,,,,,,,,,,,,,,,,
484318,001,2022-11-20_23h49.22.813,Info_measure_main_exp,2022.2.2,Win32,60.02040694,,,,,,,,,,,,,,,,,,masks/mask_005.jpg,0,2,2,4,1,,,,,,,,,,,,,,,,,,,,,,,,,,,,,,,,,,,,,,,,,,,,,,,,,,,,,,,,,,,,,,,,,,,,,,,,,,,,,,,,,,,,,,,,
484318,001,2022-11-20_23h49.22.813,Info_measure_main_exp,2022.2.2,Win32,60.02040694,,,,,,,,,,,,,,,,,,masks/mask_003.jpg,0,3,3,2,1,,,,,,,,,,,,,,,,,,,,,,,,,,,,,,,,,,,,,,,,,,,,,,,,,,,,,,,,,,,,,,,,,,,,,,,,,,,,,,,,,,,,,,,,
484318,001,2022-11-20_23h49.22.813,Info_measure_main_exp,2022.2.2,Win32,60.02040694,,,,,,,,,,,,,,,,,,masks/mask_002.jpg,0,4,4,1,1,,,,,,,,,,,,,,,,,,,,,,,,,,,,,,,,,,,,,,,,,,,,,,,,,,,,,,,,,,,,,,,,,,,,,,,,,,,,,,,,,,,,,,,,
484318,001,2022-11-20_23h49.22.813,Info_measure_main_exp,2022.2.2,Win32,60.02040694,,,,,,,,,,,,,,,,,,,,,,,,0.09765625,0.115885417,1,0,0,response1disk,7,98.084,1,0.005208333,-0.001302083,1,0,0,center_square,0,0,0,2,1,0,131,5,5,2526,2526,prac_patch/patch0002526.jpg,prac_patch/patch0002526.jpg,,,,,,,,,,,,,,,,,,,,,,,,,,,,,,,,,,,,,,,,,,,,,,,,,,,,,,,,,,,,
484318,001,2022-11-20_23h49.22.813,Info_measure_main_exp,2022.2.2,Win32,60.02040694,,,,,,,,,,,,,0,0,0,4,1,masks/mask_005.jpg,,,,,,,,,,,,,,,,,,,,,,,,,,,,,,,,,,,,,,,,,,,,,,,,,,,,,,,,,,,,,,,,,,,,,,,,,,,,,,,,,,,,,,,,,,,,,
484318,001,2022-11-20_23h49.22.813,Info_measure_main_exp,2022.2.2,Win32,60.02040694,,,,,,,,,,,,,0,1,1,0,1,masks/mask_001.jpg,,,,,,,,,,,,,,,,,,,,,,,,,,,,,,,,,,,,,,,,,,,,,,,,,,,,,,,,,,,,,,,,,,,,,,,,,,,,,,,,,,,,,,,,,,,,,
484318,001,2022-11-20_23h49.22.813,Info_measure_main_exp,2022.2.2,Win32,60.02040694,,,,,,,,,,,,,0,2,2,2,1,masks/mask_003.jpg,,,,,,,,,,,,,,,,,,,,,,,,,,,,,,,,,,,,,,,,,,,,,,,,,,,,,,,,,,,,,,,,,,,,,,,,,,,,,,,,,,,,,,,,,,,,,
484318,001,2022-11-20_23h49.22.813,Info_measure_main_exp,2022.2.2,Win32,60.02040694,,,,,,,,,,,,,0,3,3,1,1,masks/mask_002.jpg,,,,,,,,,,,,,,,,,,,,,,,,,,,,,,,,,,,,,,,,,,,,,,,,,,,,,,,,,,,,,,,,,,,,,,,,,,,,,,,,,,,,,,,,,,,,,
484318,001,2022-11-20_23h49.22.813,Info_measure_main_exp,2022.2.2,Win32,60.02040694,,,,,,,,,,,,,0,4,4,3,1,masks/mask_004.jpg,,,,,,,,,,,,,,,,,,,,,,,,,,,,,,,,,,,,,,,,,,,,,,,,,,,,,,,,,,,,,,,,,,,,,,,,,,,,,,,,,,,,,,,,,,,,,
484318,001,2022-11-20_23h49.22.813,Info_measure_main_exp,2022.2.2,Win32,60.02040694,,,,,,,,,,,,,,,,,,masks/mask_004.jpg,0,0,0,3,1,,,,,,,,,,,,,,,,,,,,,,,,,,,,,,,,,,,,,,,,,,,,,,,,,,,,,,,,,,,,,,,,,,,,,,,,,,,,,,,,,,,,,,,,
484318,001,2022-11-20_23h49.22.813,Info_measure_main_exp,2022.2.2,Win32,60.02040694,,,,,,,,,,,,,,,,,,masks/mask_002.jpg,0,1,1,1,1,,,,,,,,,,,,,,,,,,,,,,,,,,,,,,,,,,,,,,,,,,,,,,,,,,,,,,,,,,,,,,,,,,,,,,,,,,,,,,,,,,,,,,,,
484318,001,2022-11-20_23h49.22.813,Info_measure_main_exp,2022.2.2,Win32,60.02040694,,,,,,,,,,,,,,,,,,masks/mask_001.jpg,0,2,2,0,1,,,,,,,,,,,,,,,,,,,,,,,,,,,,,,,,,,,,,,,,,,,,,,,,,,,,,,,,,,,,,,,,,,,,,,,,,,,,,,,,,,,,,,,,
484318,001,2022-11-20_23h49.22.813,Info_measure_main_exp,2022.2.2,Win32,60.02040694,,,,,,,,,,,,,,,,,,masks/mask_003.jpg,0,3,3,2,1,,,,,,,,,,,,,,,,,,,,,,,,,,,,,,,,,,,,,,,,,,,,,,,,,,,,,,,,,,,,,,,,,,,,,,,,,,,,,,,,,,,,,,,,
484318,001,2022-11-20_23h49.22.813,Info_measure_main_exp,2022.2.2,Win32,60.02040694,,,,,,,,,,,,,,,,,,masks/mask_005.jpg,0,4,4,4,1,,,,,,,,,,,,,,,,,,,,,,,,,,,,,,,,,,,,,,,,,,,,,,,,,,,,,,,,,,,,,,,,,,,,,,,,,,,,,,,,,,,,,,,,
484318,001,2022-11-20_23h49.22.813,Info_measure_main_exp,2022.2.2,Win32,60.02040694,,,,,,,,,,,,,,,,,,,,,,,,-0.037760417,-0.114583333,1,0,0,response5disk,3,113.3116,1,-0.0078125,0.005208333,1,0,0,center_square,0,1,1,1,1,0,131,5,5,2514,2490,prac_patch/patch0002514.jpg,prac_patch/patch0002490.jpg,,,,,,,,,,,,,,,,,,,,,,,,,,,,,,,,,,,,,,,,,,,,,,,,,,,,,,,,,,,,
484318,001,2022-11-20_23h49.22.813,Info_measure_main_exp,2022.2.2,Win32,60.02040694,,,,,,,,,,,,,0,0,0,3,1,masks/mask_004.jpg,,,,,,,,,,,,,,,,,,,,,,,,,,,,,,,,,,,,,,,,,,,,,,,,,,,,,,,,,,,,,,,,,,,,,,,,,,,,,,,,,,,,,,,,,,,,,
484318,001,2022-11-20_23h49.22.813,Info_measure_main_exp,2022.2.2,Win32,60.02040694,,,,,,,,,,,,,0,1,1,2,1,masks/mask_003.jpg,,,,,,,,,,,,,,,,,,,,,,,,,,,,,,,,,,,,,,,,,,,,,,,,,,,,,,,,,,,,,,,,,,,,,,,,,,,,,,,,,,,,,,,,,,,,,
484318,001,2022-11-20_23h49.22.813,Info_measure_main_exp,2022.2.2,Win32,60.02040694,,,,,,,,,,,,,0,2,2,1,1,masks/mask_002.jpg,,,,,,,,,,,,,,,,,,,,,,,,,,,,,,,,,,,,,,,,,,,,,,,,,,,,,,,,,,,,,,,,,,,,,,,,,,,,,,,,,,,,,,,,,,,,,
484318,001,2022-11-20_23h49.22.813,Info_measure_main_exp,2022.2.2,Win32,60.02040694,,,,,,,,,,,,,0,3,3,4,1,masks/mask_005.jpg,,,,,,,,,,,,,,,,,,,,,,,,,,,,,,,,,,,,,,,,,,,,,,,,,,,,,,,,,,,,,,,,,,,,,,,,,,,,,,,,,,,,,,,,,,,,,
484318,001,2022-11-20_23h49.22.813,Info_measure_main_exp,2022.2.2,Win32,60.02040694,,,,,,,,,,,,,0,4,4,0,1,masks/mask_001.jpg,,,,,,,,,,,,,,,,,,,,,,,,,,,,,,,,,,,,,,,,,,,,,,,,,,,,,,,,,,,,,,,,,,,,,,,,,,,,,,,,,,,,,,,,,,,,,
484318,001,2022-11-20_23h49.22.813,Info_measure_main_exp,2022.2.2,Win32,60.02040694,,,,,,,,,,,,,,,,,,masks/mask_003.jpg,0,0,0,2,1,,,,,,,,,,,,,,,,,,,,,,,,,,,,,,,,,,,,,,,,,,,,,,,,,,,,,,,,,,,,,,,,,,,,,,,,,,,,,,,,,,,,,,,,
484318,001,2022-11-20_23h49.22.813,Info_measure_main_exp,2022.2.2,Win32,60.02040694,,,,,,,,,,,,,,,,,,masks/mask_004.jpg,0,1,1,3,1,,,,,,,,,,,,,,,,,,,,,,,,,,,,,,,,,,,,,,,,,,,,,,,,,,,,,,,,,,,,,,,,,,,,,,,,,,,,,,,,,,,,,,,,
484318,001,2022-11-20_23h49.22.813,Info_measure_main_exp,2022.2.2,Win32,60.02040694,,,,,,,,,,,,,,,,,,masks/mask_002.jpg,0,2,2,1,1,,,,,,,,,,,,,,,,,,,,,,,,,,,,,,,,,,,,,,,,,,,,,,,,,,,,,,,,,,,,,,,,,,,,,,,,,,,,,,,,,,,,,,,,
484318,001,2022-11-20_23h49.22.813,Info_measure_main_exp,2022.2.2,Win32,60.02040694,,,,,,,,,,,,,,,,,,masks/mask_001.jpg,0,3,3,0,1,,,,,,,,,,,,,,,,,,,,,,,,,,,,,,,,,,,,,,,,,,,,,,,,,,,,,,,,,,,,,,,,,,,,,,,,,,,,,,,,,,,,,,,,
484318,001,2022-11-20_23h49.22.813,Info_measure_main_exp,2022.2.2,Win32,60.02040694,,,,,,,,,,,,,,,,,,masks/mask_005.jpg,0,4,4,4,1,,,,,,,,,,,,,,,,,,,,,,,,,,,,,,,,,,,,,,,,,,,,,,,,,,,,,,,,,,,,,,,,,,,,,,,,,,,,,,,,,,,,,,,,
484318,001,2022-11-20_23h49.22.813,Info_measure_main_exp,2022.2.2,Win32,60.02040694,,,,,,,,,,,,,,,,,,,,,,,,0.088541667,0.044270833,1,0,0,response1disk,6,124.9915,1,-0.002604167,0,1,0,0,center_square,0,2,2,0,1,0,131,5,5,2370,2406,prac_patch/patch0002370.jpg,prac_patch/patch0002406.jpg,,,,,,,,,,,,,,,,,,,,,,,,,,,,,,,,,,,,,,,,,,,,,,,,,,,,,,,,,,,,
484318,001,2022-11-20_23h49.22.813,Info_measure_main_exp,2022.2.2,Win32,60.02040694,,,,,,,,,,,,,,,,,,,,,,,,,,,,,,,,,,,,,,,,,,,,,,,,,,,,,,,,,,,space,3.1308,,,,,,,,,,,,,,,,,,,,,,,,,,,,,,,,,,,,,,,,,,,,,,,,,,,
484318,001,2022-11-20_23h49.22.813,Info_measure_main_exp,2022.2.2,Win32,60.02040694,,,,,,,,,,,,,,,,,,masks/mask_004.jpg,,,,,,,,,,,,,,,,,,,,,,,,,,,,,,,,,,,,,,,,,,,0,0,0,3,1,,,,,,,,,,,,,,,,,,,,,,,,,,,,,,,,,,,,,,,,,,,,,,
484318,001,2022-11-20_23h49.22.813,Info_measure_main_exp,2022.2.2,Win32,60.02040694,,,,,,,,,,,,,,,,,,masks/mask_003.jpg,,,,,,,,,,,,,,,,,,,,,,,,,,,,,,,,,,,,,,,,,,,0,1,1,2,1,,,,,,,,,,,,,,,,,,,,,,,,,,,,,,,,,,,,,,,,,,,,,,
484318,001,2022-11-20_23h49.22.813,Info_measure_main_exp,2022.2.2,Win32,60.02040694,,,,,,,,,,,,,,,,,,masks/mask_002.jpg,,,,,,,,,,,,,,,,,,,,,,,,,,,,,,,,,,,,,,,,,,,0,2,2,1,1,,,,,,,,,,,,,,,,,,,,,,,,,,,,,,,,,,,,,,,,,,,,,,
484318,001,2022-11-20_23h49.22.813,Info_measure_main_exp,2022.2.2,Win32,60.02040694,,,,,,,,,,,,,,,,,,masks/mask_001.jpg,,,,,,,,,,,,,,,,,,,,,,,,,,,,,,,,,,,,,,,,,,,0,3,3,0,1,,,,,,,,,,,,,,,,,,,,,,,,,,,,,,,,,,,,,,,,,,,,,,
484318,001,2022-11-20_23h49.22.813,Info_measure_main_exp,2022.2.2,Win32,60.02040694,,,,,,,,,,,,,,,,,,masks/mask_005.jpg,,,,,,,,,,,,,,,,,,,,,,,,,,,,,,,,,,,,,,,,,,,0,4,4,4,1,,,,,,,,,,,,,,,,,,,,,,,,,,,,,,,,,,,,,,,,,,,,,,
484318,001,2022-11-20_23h49.22.813,Info_measure_main_exp,2022.2.2,Win32,60.02040694,,,,,,,,,,,,,,,,,,masks/mask_001.jpg,,,,,,,,,,,,,,,,,,,,,,,,,,,,,,,,,,,,,,,,,,,,,,,,0,0,0,0,1,,,,,,,,,,,,,,,,,,,,,,,,,,,,,,,,,,,,,,,,,
484318,001,2022-11-20_23h49.22.813,Info_measure_main_exp,2022.2.2,Win32,60.02040694,,,,,,,,,,,,,,,,,,masks/mask_003.jpg,,,,,,,,,,,,,,,,,,,,,,,,,,,,,,,,,,,,,,,,,,,,,,,,0,1,1,2,1,,,,,,,,,,,,,,,,,,,,,,,,,,,,,,,,,,,,,,,,,
484318,001,2022-11-20_23h49.22.813,Info_measure_main_exp,2022.2.2,Win32,60.02040694,,,,,,,,,,,,,,,,,,masks/mask_004.jpg,,,,,,,,,,,,,,,,,,,,,,,,,,,,,,,,,,,,,,,,,,,,,,,,0,2,2,3,1,,,,,,,,,,,,,,,,,,,,,,,,,,,,,,,,,,,,,,,,,
484318,001,2022-11-20_23h49.22.813,Info_measure_main_exp,2022.2.2,Win32,60.02040694,,,,,,,,,,,,,,,,,,masks/mask_005.jpg,,,,,,,,,,,,,,,,,,,,,,,,,,,,,,,,,,,,,,,,,,,,,,,,0,3,3,4,1,,,,,,,,,,,,,,,,,,,,,,,,,,,,,,,,,,,,,,,,,
484318,001,2022-11-20_23h49.22.813,Info_measure_main_exp,2022.2.2,Win32,60.02040694,,,,,,,,,,,,,,,,,,masks/mask_002.jpg,,,,,,,,,,,,,,,,,,,,,,,,,,,,,,,,,,,,,,,,,,,,,,,,0,4,4,1,1,,,,,,,,,,,,,,,,,,,,,,,,,,,,,,,,,,,,,,,,,
484318,001,2022-11-20_23h49.22.813,Info_measure_main_exp,2022.2.2,Win32,60.02040694,,,,,,,,,,,,,,,,,,,,,,,,,,,,,,7,1.1665,1,,,,,,,,,,,,0,131,5,5,2250,1986,absent_patch/patch0002250.jpg,absent_patch/patch0001986.jpg,,,,,,,,,,,,,,,,,,,,0.098958333,0.118489583,1,0,0,response1disk,1,0.00390625,-0.002604167,1,0,0,center_square,0,0,0,29,1,,,,,,,,,,,,,,,,,,,,,,,
484318,001,2022-11-20_23h49.22.813,Info_measure_main_exp,2022.2.2,Win32,60.02040694,,,,,,,,,,,,,,,,,,masks/mask_003.jpg,,,,,,,,,,,,,,,,,,,,,,,,,,,,,,,,,,,,,,,,,,,0,0,0,2,1,,,,,,,,,,,,,,,,,,,,,,,,,,,,,,,,,,,,,,,,,,,,,,
484318,001,2022-11-20_23h49.22.813,Info_measure_main_exp,2022.2.2,Win32,60.02040694,,,,,,,,,,,,,,,,,,masks/mask_001.jpg,,,,,,,,,,,,,,,,,,,,,,,,,,,,,,,,,,,,,,,,,,,0,1,1,0,1,,,,,,,,,,,,,,,,,,,,,,,,,,,,,,,,,,,,,,,,,,,,,,
484318,001,2022-11-20_23h49.22.813,Info_measure_main_exp,2022.2.2,Win32,60.02040694,,,,,,,,,,,,,,,,,,masks/mask_004.jpg,,,,,,,,,,,,,,,,,,,,,,,,,,,,,,,,,,,,,,,,,,,0,2,2,3,1,,,,,,,,,,,,,,,,,,,,,,,,,,,,,,,,,,,,,,,,,,,,,,
484318,001,2022-11-20_23h49.22.813,Info_measure_main_exp,2022.2.2,Win32,60.02040694,,,,,,,,,,,,,,,,,,masks/mask_002.jpg,,,,,,,,,,,,,,,,,,,,,,,,,,,,,,,,,,,,,,,,,,,0,3,3,1,1,,,,,,,,,,,,,,,,,,,,,,,,,,,,,,,,,,,,,,,,,,,,,,
484318,001,2022-11-20_23h49.22.813,Info_measure_main_exp,2022.2.2,Win32,60.02040694,,,,,,,,,,,,,,,,,,masks/mask_005.jpg,,,,,,,,,,,,,,,,,,,,,,,,,,,,,,,,,,,,,,,,,,,0,4,4,4,1,,,,,,,,,,,,,,,,,,,,,,,,,,,,,,,,,,,,,,,,,,,,,,
484318,001,2022-11-20_23h49.22.813,Info_measure_main_exp,2022.2.2,Win32,60.02040694,,,,,,,,,,,,,,,,,,masks/mask_001.jpg,,,,,,,,,,,,,,,,,,,,,,,,,,,,,,,,,,,,,,,,,,,,,,,,0,0,0,0,1,,,,,,,,,,,,,,,,,,,,,,,,,,,,,,,,,,,,,,,,,
484318,001,2022-11-20_23h49.22.813,Info_measure_main_exp,2022.2.2,Win32,60.02040694,,,,,,,,,,,,,,,,,,masks/mask_002.jpg,,,,,,,,,,,,,,,,,,,,,,,,,,,,,,,,,,,,,,,,,,,,,,,,0,1,1,1,1,,,,,,,,,,,,,,,,,,,,,,,,,,,,,,,,,,,,,,,,,
484318,001,2022-11-20_23h49.22.813,Info_measure_main_exp,2022.2.2,Win32,60.02040694,,,,,,,,,,,,,,,,,,masks/mask_004.jpg,,,,,,,,,,,,,,,,,,,,,,,,,,,,,,,,,,,,,,,,,,,,,,,,0,2,2,3,1,,,,,,,,,,,,,,,,,,,,,,,,,,,,,,,,,,,,,,,,,
484318,001,2022-11-20_23h49.22.813,Info_measure_main_exp,2022.2.2,Win32,60.02040694,,,,,,,,,,,,,,,,,,masks/mask_005.jpg,,,,,,,,,,,,,,,,,,,,,,,,,,,,,,,,,,,,,,,,,,,,,,,,0,3,3,4,1,,,,,,,,,,,,,,,,,,,,,,,,,,,,,,,,,,,,,,,,,
484318,001,2022-11-20_23h49.22.813,Info_measure_main_exp,2022.2.2,Win32,60.02040694,,,,,,,,,,,,,,,,,,masks/mask_003.jpg,,,,,,,,,,,,,,,,,,,,,,,,,,,,,,,,,,,,,,,,,,,,,,,,0,4,4,2,1,,,,,,,,,,,,,,,,,,,,,,,,,,,,,,,,,,,,,,,,,
484318,001,2022-11-20_23h49.22.813,Info_measure_main_exp,2022.2.2,Win32,60.02040694,,,,,,,,,,,,,,,,,,,,,,,,,,,,,,7,1.7815,1,,,,,,,,,,,,0,131,5,5,1974,2238,absent_patch/patch0001974.jpg,absent_patch/patch0002238.jpg,,,,,,,,,,,,,,,,,,,,0.072916667,0.1015625,1,0,0,response1disk,2,0.001302083,0,1,0,0,center_square,0,1,1,95,1,,,,,,,,,,,,,,,,,,,,,,,
484318,001,2022-11-20_23h49.22.813,Info_measure_main_exp,2022.2.2,Win32,60.02040694,,,,,,,,,,,,,,,,,,masks/mask_004.jpg,,,,,,,,,,,,,,,,,,,,,,,,,,,,,,,,,,,,,,,,,,,0,0,0,3,1,,,,,,,,,,,,,,,,,,,,,,,,,,,,,,,,,,,,,,,,,,,,,,
484318,001,2022-11-20_23h49.22.813,Info_measure_main_exp,2022.2.2,Win32,60.02040694,,,,,,,,,,,,,,,,,,masks/mask_001.jpg,,,,,,,,,,,,,,,,,,,,,,,,,,,,,,,,,,,,,,,,,,,0,1,1,0,1,,,,,,,,,,,,,,,,,,,,,,,,,,,,,,,,,,,,,,,,,,,,,,
484318,001,2022-11-20_23h49.22.813,Info_measure_main_exp,2022.2.2,Win32,60.02040694,,,,,,,,,,,,,,,,,,masks/mask_002.jpg,,,,,,,,,,,,,,,,,,,,,,,,,,,,,,,,,,,,,,,,,,,0,2,2,1,1,,,,,,,,,,,,,,,,,,,,,,,,,,,,,,,,,,,,,,,,,,,,,,
484318,001,2022-11-20_23h49.22.813,Info_measure_main_exp,2022.2.2,Win32,60.02040694,,,,,,,,,,,,,,,,,,masks/mask_005.jpg,,,,,,,,,,,,,,,,,,,,,,,,,,,,,,,,,,,,,,,,,,,0,3,3,4,1,,,,,,,,,,,,,,,,,,,,,,,,,,,,,,,,,,,,,,,,,,,,,,
484318,001,2022-11-20_23h49.22.813,Info_measure_main_exp,2022.2.2,Win32,60.02040694,,,,,,,,,,,,,,,,,,masks/mask_003.jpg,,,,,,,,,,,,,,,,,,,,,,,,,,,,,,,,,,,,,,,,,,,0,4,4,2,1,,,,,,,,,,,,,,,,,,,,,,,,,,,,,,,,,,,,,,,,,,,,,,
484318,001,2022-11-20_23h49.22.813,Info_measure_main_exp,2022.2.2,Win32,60.02040694,,,,,,,,,,,,,,,,,,masks/mask_004.jpg,,,,,,,,,,,,,,,,,,,,,,,,,,,,,,,,,,,,,,,,,,,,,,,,0,0,0,3,1,,,,,,,,,,,,,,,,,,,,,,,,,,,,,,,,,,,,,,,,,
484318,001,2022-11-20_23h49.22.813,Info_measure_main_exp,2022.2.2,Win32,60.02040694,,,,,,,,,,,,,,,,,,masks/mask_003.jpg,,,,,,,,,,,,,,,,,,,,,,,,,,,,,,,,,,,,,,,,,,,,,,,,0,1,1,2,1,,,,,,,,,,,,,,,,,,,,,,,,,,,,,,,,,,,,,,,,,
484318,001,2022-11-20_23h49.22.813,Info_measure_main_exp,2022.2.2,Win32,60.02040694,,,,,,,,,,,,,,,,,,masks/mask_005.jpg,,,,,,,,,,,,,,,,,,,,,,,,,,,,,,,,,,,,,,,,,,,,,,,,0,2,2,4,1,,,,,,,,,,,,,,,,,,,,,,,,,,,,,,,,,,,,,,,,,
484318,001,2022-11-20_23h49.22.813,Info_measure_main_exp,2022.2.2,Win32,60.02040694,,,,,,,,,,,,,,,,,,masks/mask_002.jpg,,,,,,,,,,,,,,,,,,,,,,,,,,,,,,,,,,,,,,,,,,,,,,,,0,3,3,1,1,,,,,,,,,,,,,,,,,,,,,,,,,,,,,,,,,,,,,,,,,
484318,001,2022-11-20_23h49.22.813,Info_measure_main_exp,2022.2.2,Win32,60.02040694,,,,,,,,,,,,,,,,,,masks/mask_001.jpg,,,,,,,,,,,,,,,,,,,,,,,,,,,,,,,,,,,,,,,,,,,,,,,,0,4,4,0,1,,,,,,,,,,,,,,,,,,,,,,,,,,,,,,,,,,,,,,,,,
484318,001,2022-11-20_23h49.22.813,Info_measure_main_exp,2022.2.2,Win32,60.02040694,,,,,,,,,,,,,,,,,,,,,,,,,,,,,,6,0.8989,1,,,,,,,,,,,,0,131,5,5,2082,2178,absent_patch/patch0002082.jpg,absent_patch/patch0002178.jpg,,,,,,,,,,,,,,,,,,,,0.0703125,0.03515625,1,0,0,response1disk,3,-0.009114583,-0.006510417,1,0,0,center_square,0,2,2,2,1,,,,,,,,,,,,,,,,,,,,,,,
484318,001,2022-11-20_23h49.22.813,Info_measure_main_exp,2022.2.2,Win32,60.02040694,,,,,,,,,,,,,,,,,,masks/mask_004.jpg,,,,,,,,,,,,,,,,,,,,,,,,,,,,,,,,,,,,,,,,,,,0,0,0,3,1,,,,,,,,,,,,,,,,,,,,,,,,,,,,,,,,,,,,,,,,,,,,,,
484318,001,2022-11-20_23h49.22.813,Info_measure_main_exp,2022.2.2,Win32,60.02040694,,,,,,,,,,,,,,,,,,masks/mask_005.jpg,,,,,,,,,,,,,,,,,,,,,,,,,,,,,,,,,,,,,,,,,,,0,1,1,4,1,,,,,,,,,,,,,,,,,,,,,,,,,,,,,,,,,,,,,,,,,,,,,,
484318,001,2022-11-20_23h49.22.813,Info_measure_main_exp,2022.2.2,Win32,60.02040694,,,,,,,,,,,,,,,,,,masks/mask_001.jpg,,,,,,,,,,,,,,,,,,,,,,,,,,,,,,,,,,,,,,,,,,,0,2,2,0,1,,,,,,,,,,,,,,,,,,,,,,,,,,,,,,,,,,,,,,,,,,,,,,
484318,001,2022-11-20_23h49.22.813,Info_measure_main_exp,2022.2.2,Win32,60.02040694,,,,,,,,,,,,,,,,,,masks/mask_003.jpg,,,,,,,,,,,,,,,,,,,,,,,,,,,,,,,,,,,,,,,,,,,0,3,3,2,1,,,,,,,,,,,,,,,,,,,,,,,,,,,,,,,,,,,,,,,,,,,,,,
484318,001,2022-11-20_23h49.22.813,Info_measure_main_exp,2022.2.2,Win32,60.02040694,,,,,,,,,,,,,,,,,,masks/mask_002.jpg,,,,,,,,,,,,,,,,,,,,,,,,,,,,,,,,,,,,,,,,,,,0,4,4,1,1,,,,,,,,,,,,,,,,,,,,,,,,,,,,,,,,,,,,,,,,,,,,,,
484318,001,2022-11-20_23h49.22.813,Info_measure_main_exp,2022.2.2,Win32,60.02040694,,,,,,,,,,,,,,,,,,masks/mask_005.jpg,,,,,,,,,,,,,,,,,,,,,,,,,,,,,,,,,,,,,,,,,,,,,,,,0,0,0,4,1,,,,,,,,,,,,,,,,,,,,,,,,,,,,,,,,,,,,,,,,,
484318,001,2022-11-20_23h49.22.813,Info_measure_main_exp,2022.2.2,Win32,60.02040694,,,,,,,,,,,,,,,,,,masks/mask_003.jpg,,,,,,,,,,,,,,,,,,,,,,,,,,,,,,,,,,,,,,,,,,,,,,,,0,1,1,2,1,,,,,,,,,,,,,,,,,,,,,,,,,,,,,,,,,,,,,,,,,
484318,001,2022-11-20_23h49.22.813,Info_measure_main_exp,2022.2.2,Win32,60.02040694,,,,,,,,,,,,,,,,,,masks/mask_001.jpg,,,,,,,,,,,,,,,,,,,,,,,,,,,,,,,,,,,,,,,,,,,,,,,,0,2,2,0,1,,,,,,,,,,,,,,,,,,,,,,,,,,,,,,,,,,,,,,,,,
484318,001,2022-11-20_23h49.22.813,Info_measure_main_exp,2022.2.2,Win32,60.02040694,,,,,,,,,,,,,,,,,,masks/mask_004.jpg,,,,,,,,,,,,,,,,,,,,,,,,,,,,,,,,,,,,,,,,,,,,,,,,0,3,3,3,1,,,,,,,,,,,,,,,,,,,,,,,,,,,,,,,,,,,,,,,,,
484318,001,2022-11-20_23h49.22.813,Info_measure_main_exp,2022.2.2,Win32,60.02040694,,,,,,,,,,,,,,,,,,masks/mask_002.jpg,,,,,,,,,,,,,,,,,,,,,,,,,,,,,,,,,,,,,,,,,,,,,,,,0,4,4,1,1,,,,,,,,,,,,,,,,,,,,,,,,,,,,,,,,,,,,,,,,,
484318,001,2022-11-20_23h49.22.813,Info_measure_main_exp,2022.2.2,Win32,60.02040694,,,,,,,,,,,,,,,,,,,,,,,,,,,,,,5,0.7494,1,,,,,,,,,,,,0,131,5,5,1950,2142,absent_patch/patch0001950.jpg,absent_patch/patch0002142.jpg,,,,,,,,,,,,,,,,,,,,0.100260417,-0.028645833,1,0,0,response3disk,4,-0.001302083,0,1,0,0,center_square,0,3,3,83,1,,,,,,,,,,,,,,,,,,,,,,,
484318,001,2022-11-20_23h49.22.813,Info_measure_main_exp,2022.2.2,Win32,60.02040694,,,,,,,,,,,,,,,,,,masks/mask_005.jpg,,,,,,,,,,,,,,,,,,,,,,,,,,,,,,,,,,,,,,,,,,,0,0,0,4,1,,,,,,,,,,,,,,,,,,,,,,,,,,,,,,,,,,,,,,,,,,,,,,
484318,001,2022-11-20_23h49.22.813,Info_measure_main_exp,2022.2.2,Win32,60.02040694,,,,,,,,,,,,,,,,,,masks/mask_003.jpg,,,,,,,,,,,,,,,,,,,,,,,,,,,,,,,,,,,,,,,,,,,0,1,1,2,1,,,,,,,,,,,,,,,,,,,,,,,,,,,,,,,,,,,,,,,,,,,,,,
484318,001,2022-11-20_23h49.22.813,Info_measure_main_exp,2022.2.2,Win32,60.02040694,,,,,,,,,,,,,,,,,,masks/mask_004.jpg,,,,,,,,,,,,,,,,,,,,,,,,,,,,,,,,,,,,,,,,,,,0,2,2,3,1,,,,,,,,,,,,,,,,,,,,,,,,,,,,,,,,,,,,,,,,,,,,,,
484318,001,2022-11-20_23h49.22.813,Info_measure_main_exp,2022.2.2,Win32,60.02040694,,,,,,,,,,,,,,,,,,masks/mask_001.jpg,,,,,,,,,,,,,,,,,,,,,,,,,,,,,,,,,,,,,,,,,,,0,3,3,0,1,,,,,,,,,,,,,,,,,,,,,,,,,,,,,,,,,,,,,,,,,,,,,,
484318,001,2022-11-20_23h49.22.813,Info_measure_main_exp,2022.2.2,Win32,60.02040694,,,,,,,,,,,,,,,,,,masks/mask_002.jpg,,,,,,,,,,,,,,,,,,,,,,,,,,,,,,,,,,,,,,,,,,,0,4,4,1,1,,,,,,,,,,,,,,,,,,,,,,,,,,,,,,,,,,,,,,,,,,,,,,
484318,001,2022-11-20_23h49.22.813,Info_measure_main_exp,2022.2.2,Win32,60.02040694,,,,,,,,,,,,,,,,,,masks/mask_003.jpg,,,,,,,,,,,,,,,,,,,,,,,,,,,,,,,,,,,,,,,,,,,,,,,,0,0,0,2,1,,,,,,,,,,,,,,,,,,,,,,,,,,,,,,,,,,,,,,,,,
484318,001,2022-11-20_23h49.22.813,Info_measure_main_exp,2022.2.2,Win32,60.02040694,,,,,,,,,,,,,,,,,,masks/mask_005.jpg,,,,,,,,,,,,,,,,,,,,,,,,,,,,,,,,,,,,,,,,,,,,,,,,0,1,1,4,1,,,,,,,,,,,,,,,,,,,,,,,,,,,,,,,,,,,,,,,,,
484318,001,2022-11-20_23h49.22.813,Info_measure_main_exp,2022.2.2,Win32,60.02040694,,,,,,,,,,,,,,,,,,masks/mask_004.jpg,,,,,,,,,,,,,,,,,,,,,,,,,,,,,,,,,,,,,,,,,,,,,,,,0,2,2,3,1,,,,,,,,,,,,,,,,,,,,,,,,,,,,,,,,,,,,,,,,,
484318,001,2022-11-20_23h49.22.813,Info_measure_main_exp,2022.2.2,Win32,60.02040694,,,,,,,,,,,,,,,,,,masks/mask_002.jpg,,,,,,,,,,,,,,,,,,,,,,,,,,,,,,,,,,,,,,,,,,,,,,,,0,3,3,1,1,,,,,,,,,,,,,,,,,,,,,,,,,,,,,,,,,,,,,,,,,
484318,001,2022-11-20_23h49.22.813,Info_measure_main_exp,2022.2.2,Win32,60.02040694,,,,,,,,,,,,,,,,,,masks/mask_001.jpg,,,,,,,,,,,,,,,,,,,,,,,,,,,,,,,,,,,,,,,,,,,,,,,,0,4,4,0,1,,,,,,,,,,,,,,,,,,,,,,,,,,,,,,,,,,,,,,,,,
484318,001,2022-11-20_23h49.22.813,Info_measure_main_exp,2022.2.2,Win32,60.02040694,,,,,,,,,,,,,,,,,,,,,,,,,,,,,,0,0.7167,1,,,,,,,,,,,,1,131,5,5,1,1,present_patch/cong_131_5_a.jpg,present_patch/cong_131_5_a.jpg,,,,,,,,,,,,,,,,,,,,-0.016927083,0.095052083,1,0,0,response7disk,5,0,-0.009114583,1,0,0,center_square,0,4,4,30,1,,,,,,,,,,,,,,,,,,,,,,,
484318,001,2022-11-20_23h49.22.813,Info_measure_main_exp,2022.2.2,Win32,60.02040694,,,,,,,,,,,,,,,,,,masks/mask_004.jpg,,,,,,,,,,,,,,,,,,,,,,,,,,,,,,,,,,,,,,,,,,,0,0,0,3,1,,,,,,,,,,,,,,,,,,,,,,,,,,,,,,,,,,,,,,,,,,,,,,
484318,001,2022-11-20_23h49.22.813,Info_measure_main_exp,2022.2.2,Win32,60.02040694,,,,,,,,,,,,,,,,,,masks/mask_002.jpg,,,,,,,,,,,,,,,,,,,,,,,,,,,,,,,,,,,,,,,,,,,0,1,1,1,1,,,,,,,,,,,,,,,,,,,,,,,,,,,,,,,,,,,,,,,,,,,,,,
484318,001,2022-11-20_23h49.22.813,Info_measure_main_exp,2022.2.2,Win32,60.02040694,,,,,,,,,,,,,,,,,,masks/mask_001.jpg,,,,,,,,,,,,,,,,,,,,,,,,,,,,,,,,,,,,,,,,,,,0,2,2,0,1,,,,,,,,,,,,,,,,,,,,,,,,,,,,,,,,,,,,,,,,,,,,,,
484318,001,2022-11-20_23h49.22.813,Info_measure_main_exp,2022.2.2,Win32,60.02040694,,,,,,,,,,,,,,,,,,masks/mask_003.jpg,,,,,,,,,,,,,,,,,,,,,,,,,,,,,,,,,,,,,,,,,,,0,3,3,2,1,,,,,,,,,,,,,,,,,,,,,,,,,,,,,,,,,,,,,,,,,,,,,,
484318,001,2022-11-20_23h49.22.813,Info_measure_main_exp,2022.2.2,Win32,60.02040694,,,,,,,,,,,,,,,,,,masks/mask_005.jpg,,,,,,,,,,,,,,,,,,,,,,,,,,,,,,,,,,,,,,,,,,,0,4,4,4,1,,,,,,,,,,,,,,,,,,,,,,,,,,,,,,,,,,,,,,,,,,,,,,
484318,001,2022-11-20_23h49.22.813,Info_measure_main_exp,2022.2.2,Win32,60.02040694,,,,,,,,,,,,,,,,,,masks/mask_005.jpg,,,,,,,,,,,,,,,,,,,,,,,,,,,,,,,,,,,,,,,,,,,,,,,,0,0,0,4,1,,,,,,,,,,,,,,,,,,,,,,,,,,,,,,,,,,,,,,,,,
484318,001,2022-11-20_23h49.22.813,Info_measure_main_exp,2022.2.2,Win32,60.02040694,,,,,,,,,,,,,,,,,,masks/mask_004.jpg,,,,,,,,,,,,,,,,,,,,,,,,,,,,,,,,,,,,,,,,,,,,,,,,0,1,1,3,1,,,,,,,,,,,,,,,,,,,,,,,,,,,,,,,,,,,,,,,,,
484318,001,2022-11-20_23h49.22.813,Info_measure_main_exp,2022.2.2,Win32,60.02040694,,,,,,,,,,,,,,,,,,masks/mask_001.jpg,,,,,,,,,,,,,,,,,,,,,,,,,,,,,,,,,,,,,,,,,,,,,,,,0,2,2,0,1,,,,,,,,,,,,,,,,,,,,,,,,,,,,,,,,,,,,,,,,,
484318,001,2022-11-20_23h49.22.813,Info_measure_main_exp,2022.2.2,Win32,60.02040694,,,,,,,,,,,,,,,,,,masks/mask_003.jpg,,,,,,,,,,,,,,,,,,,,,,,,,,,,,,,,,,,,,,,,,,,,,,,,0,3,3,2,1,,,,,,,,,,,,,,,,,,,,,,,,,,,,,,,,,,,,,,,,,
484318,001,2022-11-20_23h49.22.813,Info_measure_main_exp,2022.2.2,Win32,60.02040694,,,,,,,,,,,,,,,,,,masks/mask_002.jpg,,,,,,,,,,,,,,,,,,,,,,,,,,,,,,,,,,,,,,,,,,,,,,,,0,4,4,1,1,,,,,,,,,,,,,,,,,,,,,,,,,,,,,,,,,,,,,,,,,
484318,001,2022-11-20_23h49.22.813,Info_measure_main_exp,2022.2.2,Win32,60.02040694,,,,,,,,,,,,,,,,,,,,,,,,,,,,,,7,0.7159,1,,,,,,,,,,,,1,131,5,5,1950,1,absent_patch/patch0001950.jpg,present_patch/cong_131_5_a.jpg,,,,,,,,,,,,,,,,,,,,0.0625,0.08984375,1,0,0,response1disk,6,0.005208333,0.001302083,1,0,0,center_square,0,5,5,39,1,,,,,,,,,,,,,,,,,,,,,,,
484318,001,2022-11-20_23h49.22.813,Info_measure_main_exp,2022.2.2,Win32,60.02040694,,,,,,,,,,,,,,,,,,masks/mask_004.jpg,,,,,,,,,,,,,,,,,,,,,,,,,,,,,,,,,,,,,,,,,,,0,0,0,3,1,,,,,,,,,,,,,,,,,,,,,,,,,,,,,,,,,,,,,,,,,,,,,,
484318,001,2022-11-20_23h49.22.813,Info_measure_main_exp,2022.2.2,Win32,60.02040694,,,,,,,,,,,,,,,,,,masks/mask_005.jpg,,,,,,,,,,,,,,,,,,,,,,,,,,,,,,,,,,,,,,,,,,,0,1,1,4,1,,,,,,,,,,,,,,,,,,,,,,,,,,,,,,,,,,,,,,,,,,,,,,
484318,001,2022-11-20_23h49.22.813,Info_measure_main_exp,2022.2.2,Win32,60.02040694,,,,,,,,,,,,,,,,,,masks/mask_001.jpg,,,,,,,,,,,,,,,,,,,,,,,,,,,,,,,,,,,,,,,,,,,0,2,2,0,1,,,,,,,,,,,,,,,,,,,,,,,,,,,,,,,,,,,,,,,,,,,,,,
484318,001,2022-11-20_23h49.22.813,Info_measure_main_exp,2022.2.2,Win32,60.02040694,,,,,,,,,,,,,,,,,,masks/mask_002.jpg,,,,,,,,,,,,,,,,,,,,,,,,,,,,,,,,,,,,,,,,,,,0,3,3,1,1,,,,,,,,,,,,,,,,,,,,,,,,,,,,,,,,,,,,,,,,,,,,,,
484318,001,2022-11-20_23h49.22.813,Info_measure_main_exp,2022.2.2,Win32,60.02040694,,,,,,,,,,,,,,,,,,masks/mask_003.jpg,,,,,,,,,,,,,,,,,,,,,,,,,,,,,,,,,,,,,,,,,,,0,4,4,2,1,,,,,,,,,,,,,,,,,,,,,,,,,,,,,,,,,,,,,,,,,,,,,,
484318,001,2022-11-20_23h49.22.813,Info_measure_main_exp,2022.2.2,Win32,60.02040694,,,,,,,,,,,,,,,,,,masks/mask_005.jpg,,,,,,,,,,,,,,,,,,,,,,,,,,,,,,,,,,,,,,,,,,,,,,,,0,0,0,4,1,,,,,,,,,,,,,,,,,,,,,,,,,,,,,,,,,,,,,,,,,
484318,001,2022-11-20_23h49.22.813,Info_measure_main_exp,2022.2.2,Win32,60.02040694,,,,,,,,,,,,,,,,,,masks/mask_004.jpg,,,,,,,,,,,,,,,,,,,,,,,,,,,,,,,,,,,,,,,,,,,,,,,,0,1,1,3,1,,,,,,,,,,,,,,,,,,,,,,,,,,,,,,,,,,,,,,,,,
484318,001,2022-11-20_23h49.22.813,Info_measure_main_exp,2022.2.2,Win32,60.02040694,,,,,,,,,,,,,,,,,,masks/mask_002.jpg,,,,,,,,,,,,,,,,,,,,,,,,,,,,,,,,,,,,,,,,,,,,,,,,0,2,2,1,1,,,,,,,,,,,,,,,,,,,,,,,,,,,,,,,,,,,,,,,,,
484318,001,2022-11-20_23h49.22.813,Info_measure_main_exp,2022.2.2,Win32,60.02040694,,,,,,,,,,,,,,,,,,masks/mask_003.jpg,,,,,,,,,,,,,,,,,,,,,,,,,,,,,,,,,,,,,,,,,,,,,,,,0,3,3,2,1,,,,,,,,,,,,,,,,,,,,,,,,,,,,,,,,,,,,,,,,,
484318,001,2022-11-20_23h49.22.813,Info_measure_main_exp,2022.2.2,Win32,60.02040694,,,,,,,,,,,,,,,,,,masks/mask_001.jpg,,,,,,,,,,,,,,,,,,,,,,,,,,,,,,,,,,,,,,,,,,,,,,,,0,4,4,0,1,,,,,,,,,,,,,,,,,,,,,,,,,,,,,,,,,,,,,,,,,
484318,001,2022-11-20_23h49.22.813,Info_measure_main_exp,2022.2.2,Win32,60.02040694,,,,,,,,,,,,,,,,,,,,,,,,,,,,,,0,0.7826,1,,,,,,,,,,,,0,131,5,5,2214,2214,absent_patch/patch0002214.jpg,absent_patch/patch0002214.jpg,,,,,,,,,,,,,,,,,,,,-0.032552083,0.127604167,1,0,0,response7disk,7,-0.00390625,-0.006510417,1,0,0,center_square,0,6,6,115,1,,,,,,,,,,,,,,,,,,,,,,,
484318,001,2022-11-20_23h49.22.813,Info_measure_main_exp,2022.2.2,Win32,60.02040694,,,,,,,,,,,,,,,,,,masks/mask_005.jpg,,,,,,,,,,,,,,,,,,,,,,,,,,,,,,,,,,,,,,,,,,,0,0,0,4,1,,,,,,,,,,,,,,,,,,,,,,,,,,,,,,,,,,,,,,,,,,,,,,
484318,001,2022-11-20_23h49.22.813,Info_measure_main_exp,2022.2.2,Win32,60.02040694,,,,,,,,,,,,,,,,,,masks/mask_001.jpg,,,,,,,,,,,,,,,,,,,,,,,,,,,,,,,,,,,,,,,,,,,0,1,1,0,1,,,,,,,,,,,,,,,,,,,,,,,,,,,,,,,,,,,,,,,,,,,,,,
484318,001,2022-11-20_23h49.22.813,Info_measure_main_exp,2022.2.2,Win32,60.02040694,,,,,,,,,,,,,,,,,,masks/mask_004.jpg,,,,,,,,,,,,,,,,,,,,,,,,,,,,,,,,,,,,,,,,,,,0,2,2,3,1,,,,,,,,,,,,,,,,,,,,,,,,,,,,,,,,,,,,,,,,,,,,,,
484318,001,2022-11-20_23h49.22.813,Info_measure_main_exp,2022.2.2,Win32,60.02040694,,,,,,,,,,,,,,,,,,masks/mask_003.jpg,,,,,,,,,,,,,,,,,,,,,,,,,,,,,,,,,,,,,,,,,,,0,3,3,2,1,,,,,,,,,,,,,,,,,,,,,,,,,,,,,,,,,,,,,,,,,,,,,,
484318,001,2022-11-20_23h49.22.813,Info_measure_main_exp,2022.2.2,Win32,60.02040694,,,,,,,,,,,,,,,,,,masks/mask_002.jpg,,,,,,,,,,,,,,,,,,,,,,,,,,,,,,,,,,,,,,,,,,,0,4,4,1,1,,,,,,,,,,,,,,,,,,,,,,,,,,,,,,,,,,,,,,,,,,,,,,
484318,001,2022-11-20_23h49.22.813,Info_measure_main_exp,2022.2.2,Win32,60.02040694,,,,,,,,,,,,,,,,,,masks/mask_001.jpg,,,,,,,,,,,,,,,,,,,,,,,,,,,,,,,,,,,,,,,,,,,,,,,,0,0,0,0,1,,,,,,,,,,,,,,,,,,,,,,,,,,,,,,,,,,,,,,,,,
484318,001,2022-11-20_23h49.22.813,Info_measure_main_exp,2022.2.2,Win32,60.02040694,,,,,,,,,,,,,,,,,,masks/mask_002.jpg,,,,,,,,,,,,,,,,,,,,,,,,,,,,,,,,,,,,,,,,,,,,,,,,0,1,1,1,1,,,,,,,,,,,,,,,,,,,,,,,,,,,,,,,,,,,,,,,,,
484318,001,2022-11-20_23h49.22.813,Info_measure_main_exp,2022.2.2,Win32,60.02040694,,,,,,,,,,,,,,,,,,masks/mask_003.jpg,,,,,,,,,,,,,,,,,,,,,,,,,,,,,,,,,,,,,,,,,,,,,,,,0,2,2,2,1,,,,,,,,,,,,,,,,,,,,,,,,,,,,,,,,,,,,,,,,,
484318,001,2022-11-20_23h49.22.813,Info_measure_main_exp,2022.2.2,Win32,60.02040694,,,,,,,,,,,,,,,,,,masks/mask_004.jpg,,,,,,,,,,,,,,,,,,,,,,,,,,,,,,,,,,,,,,,,,,,,,,,,0,3,3,3,1,,,,,,,,,,,,,,,,,,,,,,,,,,,,,,,,,,,,,,,,,
484318,001,2022-11-20_23h49.22.813,Info_measure_main_exp,2022.2.2,Win32,60.02040694,,,,,,,,,,,,,,,,,,masks/mask_005.jpg,,,,,,,,,,,,,,,,,,,,,,,,,,,,,,,,,,,,,,,,,,,,,,,,0,4,4,4,1,,,,,,,,,,,,,,,,,,,,,,,,,,,,,,,,,,,,,,,,,
484318,001,2022-11-20_23h49.22.813,Info_measure_main_exp,2022.2.2,Win32,60.02040694,,,,,,,,,,,,,,,,,,,,,,,,,,,,,,5,1.8813,1,,,,,,,,,,,,1,131,5,5,1,2178,present_patch/cong_131_5_a.jpg,absent_patch/patch0002178.jpg,,,,,,,,,,,,,,,,,,,,0.07421875,-0.026041667,1,0,0,response3disk,8,0.00390625,-0.002604167,1,0,0,center_square,0,7,7,40,1,,,,,,,,,,,,,,,,,,,,,,,
484318,001,2022-11-20_23h49.22.813,Info_measure_main_exp,2022.2.2,Win32,60.02040694,,,,,,,,,,,,,,,,,,masks/mask_002.jpg,,,,,,,,,,,,,,,,,,,,,,,,,,,,,,,,,,,,,,,,,,,0,0,0,1,1,,,,,,,,,,,,,,,,,,,,,,,,,,,,,,,,,,,,,,,,,,,,,,
484318,001,2022-11-20_23h49.22.813,Info_measure_main_exp,2022.2.2,Win32,60.02040694,,,,,,,,,,,,,,,,,,masks/mask_001.jpg,,,,,,,,,,,,,,,,,,,,,,,,,,,,,,,,,,,,,,,,,,,0,1,1,0,1,,,,,,,,,,,,,,,,,,,,,,,,,,,,,,,,,,,,,,,,,,,,,,
484318,001,2022-11-20_23h49.22.813,Info_measure_main_exp,2022.2.2,Win32,60.02040694,,,,,,,,,,,,,,,,,,masks/mask_004.jpg,,,,,,,,,,,,,,,,,,,,,,,,,,,,,,,,,,,,,,,,,,,0,2,2,3,1,,,,,,,,,,,,,,,,,,,,,,,,,,,,,,,,,,,,,,,,,,,,,,
484318,001,2022-11-20_23h49.22.813,Info_measure_main_exp,2022.2.2,Win32,60.02040694,,,,,,,,,,,,,,,,,,masks/mask_005.jpg,,,,,,,,,,,,,,,,,,,,,,,,,,,,,,,,,,,,,,,,,,,0,3,3,4,1,,,,,,,,,,,,,,,,,,,,,,,,,,,,,,,,,,,,,,,,,,,,,,
484318,001,2022-11-20_23h49.22.813,Info_measure_main_exp,2022.2.2,Win32,60.02040694,,,,,,,,,,,,,,,,,,masks/mask_003.jpg,,,,,,,,,,,,,,,,,,,,,,,,,,,,,,,,,,,,,,,,,,,0,4,4,2,1,,,,,,,,,,,,,,,,,,,,,,,,,,,,,,,,,,,,,,,,,,,,,,
484318,001,2022-11-20_23h49.22.813,Info_measure_main_exp,2022.2.2,Win32,60.02040694,,,,,,,,,,,,,,,,,,masks/mask_001.jpg,,,,,,,,,,,,,,,,,,,,,,,,,,,,,,,,,,,,,,,,,,,,,,,,0,0,0,0,1,,,,,,,,,,,,,,,,,,,,,,,,,,,,,,,,,,,,,,,,,
484318,001,2022-11-20_23h49.22.813,Info_measure_main_exp,2022.2.2,Win32,60.02040694,,,,,,,,,,,,,,,,,,masks/mask_003.jpg,,,,,,,,,,,,,,,,,,,,,,,,,,,,,,,,,,,,,,,,,,,,,,,,0,1,1,2,1,,,,,,,,,,,,,,,,,,,,,,,,,,,,,,,,,,,,,,,,,
484318,001,2022-11-20_23h49.22.813,Info_measure_main_exp,2022.2.2,Win32,60.02040694,,,,,,,,,,,,,,,,,,masks/mask_002.jpg,,,,,,,,,,,,,,,,,,,,,,,,,,,,,,,,,,,,,,,,,,,,,,,,0,2,2,1,1,,,,,,,,,,,,,,,,,,,,,,,,,,,,,,,,,,,,,,,,,
484318,001,2022-11-20_23h49.22.813,Info_measure_main_exp,2022.2.2,Win32,60.02040694,,,,,,,,,,,,,,,,,,masks/mask_004.jpg,,,,,,,,,,,,,,,,,,,,,,,,,,,,,,,,,,,,,,,,,,,,,,,,0,3,3,3,1,,,,,,,,,,,,,,,,,,,,,,,,,,,,,,,,,,,,,,,,,
484318,001,2022-11-20_23h49.22.813,Info_measure_main_exp,2022.2.2,Win32,60.02040694,,,,,,,,,,,,,,,,,,masks/mask_005.jpg,,,,,,,,,,,,,,,,,,,,,,,,,,,,,,,,,,,,,,,,,,,,,,,,0,4,4,4,1,,,,,,,,,,,,,,,,,,,,,,,,,,,,,,,,,,,,,,,,,
484318,001,2022-11-20_23h49.22.813,Info_measure_main_exp,2022.2.2,Win32,60.02040694,,,,,,,,,,,,,,,,,,,,,,,,,,,,,,6,0.7825,1,,,,,,,,,,,,0,131,5,5,2250,2298,absent_patch/patch0002250.jpg,absent_patch/patch0002298.jpg,,,,,,,,,,,,,,,,,,,,0.10546875,0.018229167,1,0,0,response1disk,9,-0.002604167,0.00390625,1,0,0,center_square,0,8,8,59,1,,,,,,,,,,,,,,,,,,,,,,,
484318,001,2022-11-20_23h49.22.813,Info_measure_main_exp,2022.2.2,Win32,60.02040694,,,,,,,,,,,,,,,,,,masks/mask_003.jpg,,,,,,,,,,,,,,,,,,,,,,,,,,,,,,,,,,,,,,,,,,,0,0,0,2,1,,,,,,,,,,,,,,,,,,,,,,,,,,,,,,,,,,,,,,,,,,,,,,
484318,001,2022-11-20_23h49.22.813,Info_measure_main_exp,2022.2.2,Win32,60.02040694,,,,,,,,,,,,,,,,,,masks/mask_005.jpg,,,,,,,,,,,,,,,,,,,,,,,,,,,,,,,,,,,,,,,,,,,0,1,1,4,1,,,,,,,,,,,,,,,,,,,,,,,,,,,,,,,,,,,,,,,,,,,,,,
484318,001,2022-11-20_23h49.22.813,Info_measure_main_exp,2022.2.2,Win32,60.02040694,,,,,,,,,,,,,,,,,,masks/mask_002.jpg,,,,,,,,,,,,,,,,,,,,,,,,,,,,,,,,,,,,,,,,,,,0,2,2,1,1,,,,,,,,,,,,,,,,,,,,,,,,,,,,,,,,,,,,,,,,,,,,,,
484318,001,2022-11-20_23h49.22.813,Info_measure_main_exp,2022.2.2,Win32,60.02040694,,,,,,,,,,,,,,,,,,masks/mask_001.jpg,,,,,,,,,,,,,,,,,,,,,,,,,,,,,,,,,,,,,,,,,,,0,3,3,0,1,,,,,,,,,,,,,,,,,,,,,,,,,,,,,,,,,,,,,,,,,,,,,,
484318,001,2022-11-20_23h49.22.813,Info_measure_main_exp,2022.2.2,Win32,60.02040694,,,,,,,,,,,,,,,,,,masks/mask_004.jpg,,,,,,,,,,,,,,,,,,,,,,,,,,,,,,,,,,,,,,,,,,,0,4,4,3,1,,,,,,,,,,,,,,,,,,,,,,,,,,,,,,,,,,,,,,,,,,,,,,
484318,001,2022-11-20_23h49.22.813,Info_measure_main_exp,2022.2.2,Win32,60.02040694,,,,,,,,,,,,,,,,,,masks/mask_003.jpg,,,,,,,,,,,,,,,,,,,,,,,,,,,,,,,,,,,,,,,,,,,,,,,,0,0,0,2,1,,,,,,,,,,,,,,,,,,,,,,,,,,,,,,,,,,,,,,,,,
484318,001,2022-11-20_23h49.22.813,Info_measure_main_exp,2022.2.2,Win32,60.02040694,,,,,,,,,,,,,,,,,,masks/mask_002.jpg,,,,,,,,,,,,,,,,,,,,,,,,,,,,,,,,,,,,,,,,,,,,,,,,0,1,1,1,1,,,,,,,,,,,,,,,,,,,,,,,,,,,,,,,,,,,,,,,,,
484318,001,2022-11-20_23h49.22.813,Info_measure_main_exp,2022.2.2,Win32,60.02040694,,,,,,,,,,,,,,,,,,masks/mask_001.jpg,,,,,,,,,,,,,,,,,,,,,,,,,,,,,,,,,,,,,,,,,,,,,,,,0,2,2,0,1,,,,,,,,,,,,,,,,,,,,,,,,,,,,,,,,,,,,,,,,,
484318,001,2022-11-20_23h49.22.813,Info_measure_main_exp,2022.2.2,Win32,60.02040694,,,,,,,,,,,,,,,,,,masks/mask_004.jpg,,,,,,,,,,,,,,,,,,,,,,,,,,,,,,,,,,,,,,,,,,,,,,,,0,3,3,3,1,,,,,,,,,,,,,,,,,,,,,,,,,,,,,,,,,,,,,,,,,
484318,001,2022-11-20_23h49.22.813,Info_measure_main_exp,2022.2.2,Win32,60.02040694,,,,,,,,,,,,,,,,,,masks/mask_005.jpg,,,,,,,,,,,,,,,,,,,,,,,,,,,,,,,,,,,,,,,,,,,,,,,,0,4,4,4,1,,,,,,,,,,,,,,,,,,,,,,,,,,,,,,,,,,,,,,,,,
484318,001,2022-11-20_23h49.22.813,Info_measure_main_exp,2022.2.2,Win32,60.02040694,,,,,,,,,,,,,,,,,,,,,,,,,,,,,,6,0.5829,1,,,,,,,,,,,,0,131,5,5,2250,2178,absent_patch/patch0002250.jpg,absent_patch/patch0002178.jpg,,,,,,,,,,,,,,,,,,,,0.10546875,0.018229167,1,0,0,response1disk,10,-0.00390625,0,1,0,0,center_square,0,9,9,48,1,,,,,,,,,,,,,,,,,,,,,,,
484318,001,2022-11-20_23h49.22.813,Info_measure_main_exp,2022.2.2,Win32,60.02040694,,,,,,,,,,,,,,,,,,masks/mask_001.jpg,,,,,,,,,,,,,,,,,,,,,,,,,,,,,,,,,,,,,,,,,,,0,0,0,0,1,,,,,,,,,,,,,,,,,,,,,,,,,,,,,,,,,,,,,,,,,,,,,,
484318,001,2022-11-20_23h49.22.813,Info_measure_main_exp,2022.2.2,Win32,60.02040694,,,,,,,,,,,,,,,,,,masks/mask_002.jpg,,,,,,,,,,,,,,,,,,,,,,,,,,,,,,,,,,,,,,,,,,,0,1,1,1,1,,,,,,,,,,,,,,,,,,,,,,,,,,,,,,,,,,,,,,,,,,,,,,
484318,001,2022-11-20_23h49.22.813,Info_measure_main_exp,2022.2.2,Win32,60.02040694,,,,,,,,,,,,,,,,,,masks/mask_003.jpg,,,,,,,,,,,,,,,,,,,,,,,,,,,,,,,,,,,,,,,,,,,0,2,2,2,1,,,,,,,,,,,,,,,,,,,,,,,,,,,,,,,,,,,,,,,,,,,,,,
484318,001,2022-11-20_23h49.22.813,Info_measure_main_exp,2022.2.2,Win32,60.02040694,,,,,,,,,,,,,,,,,,masks/mask_004.jpg,,,,,,,,,,,,,,,,,,,,,,,,,,,,,,,,,,,,,,,,,,,0,3,3,3,1,,,,,,,,,,,,,,,,,,,,,,,,,,,,,,,,,,,,,,,,,,,,,,
484318,001,2022-11-20_23h49.22.813,Info_measure_main_exp,2022.2.2,Win32,60.02040694,,,,,,,,,,,,,,,,,,masks/mask_005.jpg,,,,,,,,,,,,,,,,,,,,,,,,,,,,,,,,,,,,,,,,,,,0,4,4,4,1,,,,,,,,,,,,,,,,,,,,,,,,,,,,,,,,,,,,,,,,,,,,,,
484318,001,2022-11-20_23h49.22.813,Info_measure_main_exp,2022.2.2,Win32,60.02040694,,,,,,,,,,,,,,,,,,masks/mask_002.jpg,,,,,,,,,,,,,,,,,,,,,,,,,,,,,,,,,,,,,,,,,,,,,,,,0,0,0,1,1,,,,,,,,,,,,,,,,,,,,,,,,,,,,,,,,,,,,,,,,,
484318,001,2022-11-20_23h49.22.813,Info_measure_main_exp,2022.2.2,Win32,60.02040694,,,,,,,,,,,,,,,,,,masks/mask_004.jpg,,,,,,,,,,,,,,,,,,,,,,,,,,,,,,,,,,,,,,,,,,,,,,,,0,1,1,3,1,,,,,,,,,,,,,,,,,,,,,,,,,,,,,,,,,,,,,,,,,
484318,001,2022-11-20_23h49.22.813,Info_measure_main_exp,2022.2.2,Win32,60.02040694,,,,,,,,,,,,,,,,,,masks/mask_003.jpg,,,,,,,,,,,,,,,,,,,,,,,,,,,,,,,,,,,,,,,,,,,,,,,,0,2,2,2,1,,,,,,,,,,,,,,,,,,,,,,,,,,,,,,,,,,,,,,,,,
484318,001,2022-11-20_23h49.22.813,Info_measure_main_exp,2022.2.2,Win32,60.02040694,,,,,,,,,,,,,,,,,,masks/mask_005.jpg,,,,,,,,,,,,,,,,,,,,,,,,,,,,,,,,,,,,,,,,,,,,,,,,0,3,3,4,1,,,,,,,,,,,,,,,,,,,,,,,,,,,,,,,,,,,,,,,,,
484318,001,2022-11-20_23h49.22.813,Info_measure_main_exp,2022.2.2,Win32,60.02040694,,,,,,,,,,,,,,,,,,masks/mask_001.jpg,,,,,,,,,,,,,,,,,,,,,,,,,,,,,,,,,,,,,,,,,,,,,,,,0,4,4,0,1,,,,,,,,,,,,,,,,,,,,,,,,,,,,,,,,,,,,,,,,,
484318,001,2022-11-20_23h49.22.813,Info_measure_main_exp,2022.2.2,Win32,60.02040694,,,,,,,,,,,,,,,,,,,,,,,,,,,,,,6,0.5328,1,,,,,,,,,,,,0,131,5,5,1974,2178,absent_patch/patch0001974.jpg,absent_patch/patch0002178.jpg,,,,,,,,,,,,,,,,,,,,0.083333333,0.0390625,1,0,0,response1disk,11,0.00390625,0.00390625,1,0,0,center_square,0,10,10,44,1,,,,,,,,,,,,,,,,,,,,,,,
484318,001,2022-11-20_23h49.22.813,Info_measure_main_exp,2022.2.2,Win32,60.02040694,,,,,,,,,,,,,,,,,,masks/mask_004.jpg,,,,,,,,,,,,,,,,,,,,,,,,,,,,,,,,,,,,,,,,,,,0,0,0,3,1,,,,,,,,,,,,,,,,,,,,,,,,,,,,,,,,,,,,,,,,,,,,,,
484318,001,2022-11-20_23h49.22.813,Info_measure_main_exp,2022.2.2,Win32,60.02040694,,,,,,,,,,,,,,,,,,masks/mask_005.jpg,,,,,,,,,,,,,,,,,,,,,,,,,,,,,,,,,,,,,,,,,,,0,1,1,4,1,,,,,,,,,,,,,,,,,,,,,,,,,,,,,,,,,,,,,,,,,,,,,,
484318,001,2022-11-20_23h49.22.813,Info_measure_main_exp,2022.2.2,Win32,60.02040694,,,,,,,,,,,,,,,,,,masks/mask_001.jpg,,,,,,,,,,,,,,,,,,,,,,,,,,,,,,,,,,,,,,,,,,,0,2,2,0,1,,,,,,,,,,,,,,,,,,,,,,,,,,,,,,,,,,,,,,,,,,,,,,
484318,001,2022-11-20_23h49.22.813,Info_measure_main_exp,2022.2.2,Win32,60.02040694,,,,,,,,,,,,,,,,,,masks/mask_003.jpg,,,,,,,,,,,,,,,,,,,,,,,,,,,,,,,,,,,,,,,,,,,0,3,3,2,1,,,,,,,,,,,,,,,,,,,,,,,,,,,,,,,,,,,,,,,,,,,,,,
484318,001,2022-11-20_23h49.22.813,Info_measure_main_exp,2022.2.2,Win32,60.02040694,,,,,,,,,,,,,,,,,,masks/mask_002.jpg,,,,,,,,,,,,,,,,,,,,,,,,,,,,,,,,,,,,,,,,,,,0,4,4,1,1,,,,,,,,,,,,,,,,,,,,,,,,,,,,,,,,,,,,,,,,,,,,,,
484318,001,2022-11-20_23h49.22.813,Info_measure_main_exp,2022.2.2,Win32,60.02040694,,,,,,,,,,,,,,,,,,masks/mask_005.jpg,,,,,,,,,,,,,,,,,,,,,,,,,,,,,,,,,,,,,,,,,,,,,,,,0,0,0,4,1,,,,,,,,,,,,,,,,,,,,,,,,,,,,,,,,,,,,,,,,,
484318,001,2022-11-20_23h49.22.813,Info_measure_main_exp,2022.2.2,Win32,60.02040694,,,,,,,,,,,,,,,,,,masks/mask_004.jpg,,,,,,,,,,,,,,,,,,,,,,,,,,,,,,,,,,,,,,,,,,,,,,,,0,1,1,3,1,,,,,,,,,,,,,,,,,,,,,,,,,,,,,,,,,,,,,,,,,
484318,001,2022-11-20_23h49.22.813,Info_measure_main_exp,2022.2.2,Win32,60.02040694,,,,,,,,,,,,,,,,,,masks/mask_002.jpg,,,,,,,,,,,,,,,,,,,,,,,,,,,,,,,,,,,,,,,,,,,,,,,,0,2,2,1,1,,,,,,,,,,,,,,,,,,,,,,,,,,,,,,,,,,,,,,,,,
484318,001,2022-11-20_23h49.22.813,Info_measure_main_exp,2022.2.2,Win32,60.02040694,,,,,,,,,,,,,,,,,,masks/mask_003.jpg,,,,,,,,,,,,,,,,,,,,,,,,,,,,,,,,,,,,,,,,,,,,,,,,0,3,3,2,1,,,,,,,,,,,,,,,,,,,,,,,,,,,,,,,,,,,,,,,,,
484318,001,2022-11-20_23h49.22.813,Info_measure_main_exp,2022.2.2,Win32,60.02040694,,,,,,,,,,,,,,,,,,masks/mask_001.jpg,,,,,,,,,,,,,,,,,,,,,,,,,,,,,,,,,,,,,,,,,,,,,,,,0,4,4,0,1,,,,,,,,,,,,,,,,,,,,,,,,,,,,,,,,,,,,,,,,,
484318,001,2022-11-20_23h49.22.813,Info_measure_main_exp,2022.2.2,Win32,60.02040694,,,,,,,,,,,,,,,,,,,,,,,,,,,,,,6,0.7495,1,,,,,,,,,,,,0,131,5,5,1974,2142,absent_patch/patch0001974.jpg,absent_patch/patch0002142.jpg,,,,,,,,,,,,,,,,,,,,0.045572917,0.018229167,1,0,0,response1disk,12,-0.005208333,-0.002604167,1,0,0,center_square,0,11,11,38,1,,,,,,,,,,,,,,,,,,,,,,,
484318,001,2022-11-20_23h49.22.813,Info_measure_main_exp,2022.2.2,Win32,60.02040694,,,,,,,,,,,,,,,,,,masks/mask_003.jpg,,,,,,,,,,,,,,,,,,,,,,,,,,,,,,,,,,,,,,,,,,,0,0,0,2,1,,,,,,,,,,,,,,,,,,,,,,,,,,,,,,,,,,,,,,,,,,,,,,
484318,001,2022-11-20_23h49.22.813,Info_measure_main_exp,2022.2.2,Win32,60.02040694,,,,,,,,,,,,,,,,,,masks/mask_005.jpg,,,,,,,,,,,,,,,,,,,,,,,,,,,,,,,,,,,,,,,,,,,0,1,1,4,1,,,,,,,,,,,,,,,,,,,,,,,,,,,,,,,,,,,,,,,,,,,,,,
484318,001,2022-11-20_23h49.22.813,Info_measure_main_exp,2022.2.2,Win32,60.02040694,,,,,,,,,,,,,,,,,,masks/mask_001.jpg,,,,,,,,,,,,,,,,,,,,,,,,,,,,,,,,,,,,,,,,,,,0,2,2,0,1,,,,,,,,,,,,,,,,,,,,,,,,,,,,,,,,,,,,,,,,,,,,,,
484318,001,2022-11-20_23h49.22.813,Info_measure_main_exp,2022.2.2,Win32,60.02040694,,,,,,,,,,,,,,,,,,masks/mask_002.jpg,,,,,,,,,,,,,,,,,,,,,,,,,,,,,,,,,,,,,,,,,,,0,3,3,1,1,,,,,,,,,,,,,,,,,,,,,,,,,,,,,,,,,,,,,,,,,,,,,,
484318,001,2022-11-20_23h49.22.813,Info_measure_main_exp,2022.2.2,Win32,60.02040694,,,,,,,,,,,,,,,,,,masks/mask_004.jpg,,,,,,,,,,,,,,,,,,,,,,,,,,,,,,,,,,,,,,,,,,,0,4,4,3,1,,,,,,,,,,,,,,,,,,,,,,,,,,,,,,,,,,,,,,,,,,,,,,
484318,001,2022-11-20_23h49.22.813,Info_measure_main_exp,2022.2.2,Win32,60.02040694,,,,,,,,,,,,,,,,,,masks/mask_001.jpg,,,,,,,,,,,,,,,,,,,,,,,,,,,,,,,,,,,,,,,,,,,,,,,,0,0,0,0,1,,,,,,,,,,,,,,,,,,,,,,,,,,,,,,,,,,,,,,,,,
484318,001,2022-11-20_23h49.22.813,Info_measure_main_exp,2022.2.2,Win32,60.02040694,,,,,,,,,,,,,,,,,,masks/mask_004.jpg,,,,,,,,,,,,,,,,,,,,,,,,,,,,,,,,,,,,,,,,,,,,,,,,0,1,1,3,1,,,,,,,,,,,,,,,,,,,,,,,,,,,,,,,,,,,,,,,,,
484318,001,2022-11-20_23h49.22.813,Info_measure_main_exp,2022.2.2,Win32,60.02040694,,,,,,,,,,,,,,,,,,masks/mask_002.jpg,,,,,,,,,,,,,,,,,,,,,,,,,,,,,,,,,,,,,,,,,,,,,,,,0,2,2,1,1,,,,,,,,,,,,,,,,,,,,,,,,,,,,,,,,,,,,,,,,,
484318,001,2022-11-20_23h49.22.813,Info_measure_main_exp,2022.2.2,Win32,60.02040694,,,,,,,,,,,,,,,,,,masks/mask_003.jpg,,,,,,,,,,,,,,,,,,,,,,,,,,,,,,,,,,,,,,,,,,,,,,,,0,3,3,2,1,,,,,,,,,,,,,,,,,,,,,,,,,,,,,,,,,,,,,,,,,
484318,001,2022-11-20_23h49.22.813,Info_measure_main_exp,2022.2.2,Win32,60.02040694,,,,,,,,,,,,,,,,,,masks/mask_005.jpg,,,,,,,,,,,,,,,,,,,,,,,,,,,,,,,,,,,,,,,,,,,,,,,,0,4,4,4,1,,,,,,,,,,,,,,,,,,,,,,,,,,,,,,,,,,,,,,,,,
484318,001,2022-11-20_23h49.22.813,Info_measure_main_exp,2022.2.2,Win32,60.02040694,,,,,,,,,,,,,,,,,,,,,,,,,,,,,,6,0.7659,1,,,,,,,,,,,,0,131,5,5,1986,1950,absent_patch/patch0001986.jpg,absent_patch/patch0001950.jpg,,,,,,,,,,,,,,,,,,,,0.072916667,0,1,0,0,response1disk,13,0.0078125,0.001302083,1,0,0,center_square,0,12,12,15,1,,,,,,,,,,,,,,,,,,,,,,,
484318,001,2022-11-20_23h49.22.813,Info_measure_main_exp,2022.2.2,Win32,60.02040694,,,,,,,,,,,,,,,,,,masks/mask_004.jpg,,,,,,,,,,,,,,,,,,,,,,,,,,,,,,,,,,,,,,,,,,,0,0,0,3,1,,,,,,,,,,,,,,,,,,,,,,,,,,,,,,,,,,,,,,,,,,,,,,
484318,001,2022-11-20_23h49.22.813,Info_measure_main_exp,2022.2.2,Win32,60.02040694,,,,,,,,,,,,,,,,,,masks/mask_001.jpg,,,,,,,,,,,,,,,,,,,,,,,,,,,,,,,,,,,,,,,,,,,0,1,1,0,1,,,,,,,,,,,,,,,,,,,,,,,,,,,,,,,,,,,,,,,,,,,,,,
484318,001,2022-11-20_23h49.22.813,Info_measure_main_exp,2022.2.2,Win32,60.02040694,,,,,,,,,,,,,,,,,,masks/mask_005.jpg,,,,,,,,,,,,,,,,,,,,,,,,,,,,,,,,,,,,,,,,,,,0,2,2,4,1,,,,,,,,,,,,,,,,,,,,,,,,,,,,,,,,,,,,,,,,,,,,,,
484318,001,2022-11-20_23h49.22.813,Info_measure_main_exp,2022.2.2,Win32,60.02040694,,,,,,,,,,,,,,,,,,masks/mask_003.jpg,,,,,,,,,,,,,,,,,,,,,,,,,,,,,,,,,,,,,,,,,,,0,3,3,2,1,,,,,,,,,,,,,,,,,,,,,,,,,,,,,,,,,,,,,,,,,,,,,,
484318,001,2022-11-20_23h49.22.813,Info_measure_main_exp,2022.2.2,Win32,60.02040694,,,,,,,,,,,,,,,,,,masks/mask_002.jpg,,,,,,,,,,,,,,,,,,,,,,,,,,,,,,,,,,,,,,,,,,,0,4,4,1,1,,,,,,,,,,,,,,,,,,,,,,,,,,,,,,,,,,,,,,,,,,,,,,
484318,001,2022-11-20_23h49.22.813,Info_measure_main_exp,2022.2.2,Win32,60.02040694,,,,,,,,,,,,,,,,,,masks/mask_005.jpg,,,,,,,,,,,,,,,,,,,,,,,,,,,,,,,,,,,,,,,,,,,,,,,,0,0,0,4,1,,,,,,,,,,,,,,,,,,,,,,,,,,,,,,,,,,,,,,,,,
484318,001,2022-11-20_23h49.22.813,Info_measure_main_exp,2022.2.2,Win32,60.02040694,,,,,,,,,,,,,,,,,,masks/mask_001.jpg,,,,,,,,,,,,,,,,,,,,,,,,,,,,,,,,,,,,,,,,,,,,,,,,0,1,1,0,1,,,,,,,,,,,,,,,,,,,,,,,,,,,,,,,,,,,,,,,,,
484318,001,2022-11-20_23h49.22.813,Info_measure_main_exp,2022.2.2,Win32,60.02040694,,,,,,,,,,,,,,,,,,masks/mask_003.jpg,,,,,,,,,,,,,,,,,,,,,,,,,,,,,,,,,,,,,,,,,,,,,,,,0,2,2,2,1,,,,,,,,,,,,,,,,,,,,,,,,,,,,,,,,,,,,,,,,,
484318,001,2022-11-20_23h49.22.813,Info_measure_main_exp,2022.2.2,Win32,60.02040694,,,,,,,,,,,,,,,,,,masks/mask_002.jpg,,,,,,,,,,,,,,,,,,,,,,,,,,,,,,,,,,,,,,,,,,,,,,,,0,3,3,1,1,,,,,,,,,,,,,,,,,,,,,,,,,,,,,,,,,,,,,,,,,
484318,001,2022-11-20_23h49.22.813,Info_measure_main_exp,2022.2.2,Win32,60.02040694,,,,,,,,,,,,,,,,,,masks/mask_004.jpg,,,,,,,,,,,,,,,,,,,,,,,,,,,,,,,,,,,,,,,,,,,,,,,,0,4,4,3,1,,,,,,,,,,,,,,,,,,,,,,,,,,,,,,,,,,,,,,,,,
484318,001,2022-11-20_23h49.22.813,Info_measure_main_exp,2022.2.2,Win32,60.02040694,,,,,,,,,,,,,,,,,,,,,,,,,,,,,,6,0.5328,1,,,,,,,,,,,,0,131,5,5,2274,1950,absent_patch/patch0002274.jpg,absent_patch/patch0001950.jpg,,,,,,,,,,,,,,,,,,,,0.0078125,0.001302083,1,0,0,response1disk,14,0,-0.00390625,1,0,0,center_square,0,13,13,10,1,,,,,,,,,,,,,,,,,,,,,,,
484318,001,2022-11-20_23h49.22.813,Info_measure_main_exp,2022.2.2,Win32,60.02040694,,,,,,,,,,,,,,,,,,masks/mask_004.jpg,,,,,,,,,,,,,,,,,,,,,,,,,,,,,,,,,,,,,,,,,,,0,0,0,3,1,,,,,,,,,,,,,,,,,,,,,,,,,,,,,,,,,,,,,,,,,,,,,,
484318,001,2022-11-20_23h49.22.813,Info_measure_main_exp,2022.2.2,Win32,60.02040694,,,,,,,,,,,,,,,,,,masks/mask_001.jpg,,,,,,,,,,,,,,,,,,,,,,,,,,,,,,,,,,,,,,,,,,,0,1,1,0,1,,,,,,,,,,,,,,,,,,,,,,,,,,,,,,,,,,,,,,,,,,,,,,
484318,001,2022-11-20_23h49.22.813,Info_measure_main_exp,2022.2.2,Win32,60.02040694,,,,,,,,,,,,,,,,,,masks/mask_003.jpg,,,,,,,,,,,,,,,,,,,,,,,,,,,,,,,,,,,,,,,,,,,0,2,2,2,1,,,,,,,,,,,,,,,,,,,,,,,,,,,,,,,,,,,,,,,,,,,,,,
484318,001,2022-11-20_23h49.22.813,Info_measure_main_exp,2022.2.2,Win32,60.02040694,,,,,,,,,,,,,,,,,,masks/mask_002.jpg,,,,,,,,,,,,,,,,,,,,,,,,,,,,,,,,,,,,,,,,,,,0,3,3,1,1,,,,,,,,,,,,,,,,,,,,,,,,,,,,,,,,,,,,,,,,,,,,,,
484318,001,2022-11-20_23h49.22.813,Info_measure_main_exp,2022.2.2,Win32,60.02040694,,,,,,,,,,,,,,,,,,masks/mask_005.jpg,,,,,,,,,,,,,,,,,,,,,,,,,,,,,,,,,,,,,,,,,,,0,4,4,4,1,,,,,,,,,,,,,,,,,,,,,,,,,,,,,,,,,,,,,,,,,,,,,,
484318,001,2022-11-20_23h49.22.813,Info_measure_main_exp,2022.2.2,Win32,60.02040694,,,,,,,,,,,,,,,,,,masks/mask_005.jpg,,,,,,,,,,,,,,,,,,,,,,,,,,,,,,,,,,,,,,,,,,,,,,,,0,0,0,4,1,,,,,,,,,,,,,,,,,,,,,,,,,,,,,,,,,,,,,,,,,
484318,001,2022-11-20_23h49.22.813,Info_measure_main_exp,2022.2.2,Win32,60.02040694,,,,,,,,,,,,,,,,,,masks/mask_002.jpg,,,,,,,,,,,,,,,,,,,,,,,,,,,,,,,,,,,,,,,,,,,,,,,,0,1,1,1,1,,,,,,,,,,,,,,,,,,,,,,,,,,,,,,,,,,,,,,,,,
484318,001,2022-11-20_23h49.22.813,Info_measure_main_exp,2022.2.2,Win32,60.02040694,,,,,,,,,,,,,,,,,,masks/mask_003.jpg,,,,,,,,,,,,,,,,,,,,,,,,,,,,,,,,,,,,,,,,,,,,,,,,0,2,2,2,1,,,,,,,,,,,,,,,,,,,,,,,,,,,,,,,,,,,,,,,,,
484318,001,2022-11-20_23h49.22.813,Info_measure_main_exp,2022.2.2,Win32,60.02040694,,,,,,,,,,,,,,,,,,masks/mask_004.jpg,,,,,,,,,,,,,,,,,,,,,,,,,,,,,,,,,,,,,,,,,,,,,,,,0,3,3,3,1,,,,,,,,,,,,,,,,,,,,,,,,,,,,,,,,,,,,,,,,,
484318,001,2022-11-20_23h49.22.813,Info_measure_main_exp,2022.2.2,Win32,60.02040694,,,,,,,,,,,,,,,,,,masks/mask_001.jpg,,,,,,,,,,,,,,,,,,,,,,,,,,,,,,,,,,,,,,,,,,,,,,,,0,4,4,0,1,,,,,,,,,,,,,,,,,,,,,,,,,,,,,,,,,,,,,,,,,
484318,001,2022-11-20_23h49.22.813,Info_measure_main_exp,2022.2.2,Win32,60.02040694,,,,,,,,,,,,,,,,,,,,,,,,,,,,,,3,1.4484,1,,,,,,,,,,,,0,131,5,5,2082,2298,absent_patch/patch0002082.jpg,absent_patch/patch0002298.jpg,,,,,,,,,,,,,,,,,,,,-0.01953125,-0.057291667,1,0,0,response5disk,15,0.009114583,-0.01171875,1,0,0,center_square,0,14,14,107,1,,,,,,,,,,,,,,,,,,,,,,,
484318,001,2022-11-20_23h49.22.813,Info_measure_main_exp,2022.2.2,Win32,60.02040694,,,,,,,,,,,,,,,,,,masks/mask_001.jpg,,,,,,,,,,,,,,,,,,,,,,,,,,,,,,,,,,,,,,,,,,,0,0,0,0,1,,,,,,,,,,,,,,,,,,,,,,,,,,,,,,,,,,,,,,,,,,,,,,
484318,001,2022-11-20_23h49.22.813,Info_measure_main_exp,2022.2.2,Win32,60.02040694,,,,,,,,,,,,,,,,,,masks/mask_002.jpg,,,,,,,,,,,,,,,,,,,,,,,,,,,,,,,,,,,,,,,,,,,0,1,1,1,1,,,,,,,,,,,,,,,,,,,,,,,,,,,,,,,,,,,,,,,,,,,,,,
484318,001,2022-11-20_23h49.22.813,Info_measure_main_exp,2022.2.2,Win32,60.02040694,,,,,,,,,,,,,,,,,,masks/mask_003.jpg,,,,,,,,,,,,,,,,,,,,,,,,,,,,,,,,,,,,,,,,,,,0,2,2,2,1,,,,,,,,,,,,,,,,,,,,,,,,,,,,,,,,,,,,,,,,,,,,,,
484318,001,2022-11-20_23h49.22.813,Info_measure_main_exp,2022.2.2,Win32,60.02040694,,,,,,,,,,,,,,,,,,masks/mask_004.jpg,,,,,,,,,,,,,,,,,,,,,,,,,,,,,,,,,,,,,,,,,,,0,3,3,3,1,,,,,,,,,,,,,,,,,,,,,,,,,,,,,,,,,,,,,,,,,,,,,,
484318,001,2022-11-20_23h49.22.813,Info_measure_main_exp,2022.2.2,Win32,60.02040694,,,,,,,,,,,,,,,,,,masks/mask_005.jpg,,,,,,,,,,,,,,,,,,,,,,,,,,,,,,,,,,,,,,,,,,,0,4,4,4,1,,,,,,,,,,,,,,,,,,,,,,,,,,,,,,,,,,,,,,,,,,,,,,
484318,001,2022-11-20_23h49.22.813,Info_measure_main_exp,2022.2.2,Win32,60.02040694,,,,,,,,,,,,,,,,,,masks/mask_002.jpg,,,,,,,,,,,,,,,,,,,,,,,,,,,,,,,,,,,,,,,,,,,,,,,,0,0,0,1,1,,,,,,,,,,,,,,,,,,,,,,,,,,,,,,,,,,,,,,,,,
484318,001,2022-11-20_23h49.22.813,Info_measure_main_exp,2022.2.2,Win32,60.02040694,,,,,,,,,,,,,,,,,,masks/mask_005.jpg,,,,,,,,,,,,,,,,,,,,,,,,,,,,,,,,,,,,,,,,,,,,,,,,0,1,1,4,1,,,,,,,,,,,,,,,,,,,,,,,,,,,,,,,,,,,,,,,,,
484318,001,2022-11-20_23h49.22.813,Info_measure_main_exp,2022.2.2,Win32,60.02040694,,,,,,,,,,,,,,,,,,masks/mask_004.jpg,,,,,,,,,,,,,,,,,,,,,,,,,,,,,,,,,,,,,,,,,,,,,,,,0,2,2,3,1,,,,,,,,,,,,,,,,,,,,,,,,,,,,,,,,,,,,,,,,,
484318,001,2022-11-20_23h49.22.813,Info_measure_main_exp,2022.2.2,Win32,60.02040694,,,,,,,,,,,,,,,,,,masks/mask_001.jpg,,,,,,,,,,,,,,,,,,,,,,,,,,,,,,,,,,,,,,,,,,,,,,,,0,3,3,0,1,,,,,,,,,,,,,,,,,,,,,,,,,,,,,,,,,,,,,,,,,
484318,001,2022-11-20_23h49.22.813,Info_measure_main_exp,2022.2.2,Win32,60.02040694,,,,,,,,,,,,,,,,,,masks/mask_003.jpg,,,,,,,,,,,,,,,,,,,,,,,,,,,,,,,,,,,,,,,,,,,,,,,,0,4,4,2,1,,,,,,,,,,,,,,,,,,,,,,,,,,,,,,,,,,,,,,,,,
484318,001,2022-11-20_23h49.22.813,Info_measure_main_exp,2022.2.2,Win32,60.02040694,,,,,,,,,,,,,,,,,,,,,,,,,,,,,,0,0.6993,1,,,,,,,,,,,,0,131,5,5,2166,2166,absent_patch/patch0002166.jpg,absent_patch/patch0002166.jpg,,,,,,,,,,,,,,,,,,,,-0.02734375,0.09765625,1,0,0,response7disk,16,0.00390625,0.00390625,1,0,0,center_square,0,15,15,42,1,,,,,,,,,,,,,,,,,,,,,,,
484318,001,2022-11-20_23h49.22.813,Info_measure_main_exp,2022.2.2,Win32,60.02040694,,,,,,,,,,,,,,,,,,masks/mask_003.jpg,,,,,,,,,,,,,,,,,,,,,,,,,,,,,,,,,,,,,,,,,,,0,0,0,2,1,,,,,,,,,,,,,,,,,,,,,,,,,,,,,,,,,,,,,,,,,,,,,,
484318,001,2022-11-20_23h49.22.813,Info_measure_main_exp,2022.2.2,Win32,60.02040694,,,,,,,,,,,,,,,,,,masks/mask_004.jpg,,,,,,,,,,,,,,,,,,,,,,,,,,,,,,,,,,,,,,,,,,,0,1,1,3,1,,,,,,,,,,,,,,,,,,,,,,,,,,,,,,,,,,,,,,,,,,,,,,
484318,001,2022-11-20_23h49.22.813,Info_measure_main_exp,2022.2.2,Win32,60.02040694,,,,,,,,,,,,,,,,,,masks/mask_002.jpg,,,,,,,,,,,,,,,,,,,,,,,,,,,,,,,,,,,,,,,,,,,0,2,2,1,1,,,,,,,,,,,,,,,,,,,,,,,,,,,,,,,,,,,,,,,,,,,,,,
484318,001,2022-11-20_23h49.22.813,Info_measure_main_exp,2022.2.2,Win32,60.02040694,,,,,,,,,,,,,,,,,,masks/mask_005.jpg,,,,,,,,,,,,,,,,,,,,,,,,,,,,,,,,,,,,,,,,,,,0,3,3,4,1,,,,,,,,,,,,,,,,,,,,,,,,,,,,,,,,,,,,,,,,,,,,,,
484318,001,2022-11-20_23h49.22.813,Info_measure_main_exp,2022.2.2,Win32,60.02040694,,,,,,,,,,,,,,,,,,masks/mask_001.jpg,,,,,,,,,,,,,,,,,,,,,,,,,,,,,,,,,,,,,,,,,,,0,4,4,0,1,,,,,,,,,,,,,,,,,,,,,,,,,,,,,,,,,,,,,,,,,,,,,,
484318,001,2022-11-20_23h49.22.813,Info_measure_main_exp,2022.2.2,Win32,60.02040694,,,,,,,,,,,,,,,,,,masks/mask_005.jpg,,,,,,,,,,,,,,,,,,,,,,,,,,,,,,,,,,,,,,,,,,,,,,,,0,0,0,4,1,,,,,,,,,,,,,,,,,,,,,,,,,,,,,,,,,,,,,,,,,
484318,001,2022-11-20_23h49.22.813,Info_measure_main_exp,2022.2.2,Win32,60.02040694,,,,,,,,,,,,,,,,,,masks/mask_002.jpg,,,,,,,,,,,,,,,,,,,,,,,,,,,,,,,,,,,,,,,,,,,,,,,,0,1,1,1,1,,,,,,,,,,,,,,,,,,,,,,,,,,,,,,,,,,,,,,,,,
484318,001,2022-11-20_23h49.22.813,Info_measure_main_exp,2022.2.2,Win32,60.02040694,,,,,,,,,,,,,,,,,,masks/mask_001.jpg,,,,,,,,,,,,,,,,,,,,,,,,,,,,,,,,,,,,,,,,,,,,,,,,0,2,2,0,1,,,,,,,,,,,,,,,,,,,,,,,,,,,,,,,,,,,,,,,,,
484318,001,2022-11-20_23h49.22.813,Info_measure_main_exp,2022.2.2,Win32,60.02040694,,,,,,,,,,,,,,,,,,masks/mask_004.jpg,,,,,,,,,,,,,,,,,,,,,,,,,,,,,,,,,,,,,,,,,,,,,,,,0,3,3,3,1,,,,,,,,,,,,,,,,,,,,,,,,,,,,,,,,,,,,,,,,,
484318,001,2022-11-20_23h49.22.813,Info_measure_main_exp,2022.2.2,Win32,60.02040694,,,,,,,,,,,,,,,,,,masks/mask_003.jpg,,,,,,,,,,,,,,,,,,,,,,,,,,,,,,,,,,,,,,,,,,,,,,,,0,4,4,2,1,,,,,,,,,,,,,,,,,,,,,,,,,,,,,,,,,,,,,,,,,
484318,001,2022-11-20_23h49.22.813,Info_measure_main_exp,2022.2.2,Win32,60.02040694,,,,,,,,,,,,,,,,,,,,,,,,,,,,,,4,1.2987,1,,,,,,,,,,,,0,131,5,5,2142,2166,absent_patch/patch0002142.jpg,absent_patch/patch0002166.jpg,,,,,,,,,,,,,,,,,,,,0.026041667,-0.055989583,1,0,0,response3disk,17,-0.001302083,0,1,0,0,center_square,0,16,16,66,1,,,,,,,,,,,,,,,,,,,,,,,
484318,001,2022-11-20_23h49.22.813,Info_measure_main_exp,2022.2.2,Win32,60.02040694,,,,,,,,,,,,,,,,,,masks/mask_001.jpg,,,,,,,,,,,,,,,,,,,,,,,,,,,,,,,,,,,,,,,,,,,0,0,0,0,1,,,,,,,,,,,,,,,,,,,,,,,,,,,,,,,,,,,,,,,,,,,,,,
484318,001,2022-11-20_23h49.22.813,Info_measure_main_exp,2022.2.2,Win32,60.02040694,,,,,,,,,,,,,,,,,,masks/mask_002.jpg,,,,,,,,,,,,,,,,,,,,,,,,,,,,,,,,,,,,,,,,,,,0,1,1,1,1,,,,,,,,,,,,,,,,,,,,,,,,,,,,,,,,,,,,,,,,,,,,,,
484318,001,2022-11-20_23h49.22.813,Info_measure_main_exp,2022.2.2,Win32,60.02040694,,,,,,,,,,,,,,,,,,masks/mask_004.jpg,,,,,,,,,,,,,,,,,,,,,,,,,,,,,,,,,,,,,,,,,,,0,2,2,3,1,,,,,,,,,,,,,,,,,,,,,,,,,,,,,,,,,,,,,,,,,,,,,,
484318,001,2022-11-20_23h49.22.813,Info_measure_main_exp,2022.2.2,Win32,60.02040694,,,,,,,,,,,,,,,,,,masks/mask_003.jpg,,,,,,,,,,,,,,,,,,,,,,,,,,,,,,,,,,,,,,,,,,,0,3,3,2,1,,,,,,,,,,,,,,,,,,,,,,,,,,,,,,,,,,,,,,,,,,,,,,
484318,001,2022-11-20_23h49.22.813,Info_measure_main_exp,2022.2.2,Win32,60.02040694,,,,,,,,,,,,,,,,,,masks/mask_005.jpg,,,,,,,,,,,,,,,,,,,,,,,,,,,,,,,,,,,,,,,,,,,0,4,4,4,1,,,,,,,,,,,,,,,,,,,,,,,,,,,,,,,,,,,,,,,,,,,,,,
484318,001,2022-11-20_23h49.22.813,Info_measure_main_exp,2022.2.2,Win32,60.02040694,,,,,,,,,,,,,,,,,,masks/mask_003.jpg,,,,,,,,,,,,,,,,,,,,,,,,,,,,,,,,,,,,,,,,,,,,,,,,0,0,0,2,1,,,,,,,,,,,,,,,,,,,,,,,,,,,,,,,,,,,,,,,,,
484318,001,2022-11-20_23h49.22.813,Info_measure_main_exp,2022.2.2,Win32,60.02040694,,,,,,,,,,,,,,,,,,masks/mask_002.jpg,,,,,,,,,,,,,,,,,,,,,,,,,,,,,,,,,,,,,,,,,,,,,,,,0,1,1,1,1,,,,,,,,,,,,,,,,,,,,,,,,,,,,,,,,,,,,,,,,,
484318,001,2022-11-20_23h49.22.813,Info_measure_main_exp,2022.2.2,Win32,60.02040694,,,,,,,,,,,,,,,,,,masks/mask_001.jpg,,,,,,,,,,,,,,,,,,,,,,,,,,,,,,,,,,,,,,,,,,,,,,,,0,2,2,0,1,,,,,,,,,,,,,,,,,,,,,,,,,,,,,,,,,,,,,,,,,
484318,001,2022-11-20_23h49.22.813,Info_measure_main_exp,2022.2.2,Win32,60.02040694,,,,,,,,,,,,,,,,,,masks/mask_004.jpg,,,,,,,,,,,,,,,,,,,,,,,,,,,,,,,,,,,,,,,,,,,,,,,,0,3,3,3,1,,,,,,,,,,,,,,,,,,,,,,,,,,,,,,,,,,,,,,,,,
484318,001,2022-11-20_23h49.22.813,Info_measure_main_exp,2022.2.2,Win32,60.02040694,,,,,,,,,,,,,,,,,,masks/mask_005.jpg,,,,,,,,,,,,,,,,,,,,,,,,,,,,,,,,,,,,,,,,,,,,,,,,0,4,4,4,1,,,,,,,,,,,,,,,,,,,,,,,,,,,,,,,,,,,,,,,,,
484318,001,2022-11-20_23h49.22.813,Info_measure_main_exp,2022.2.2,Win32,60.02040694,,,,,,,,,,,,,,,,,,,,,,,,,,,,,,6,0.6828,1,,,,,,,,,,,,0,131,5,5,2142,2238,absent_patch/patch0002142.jpg,absent_patch/patch0002238.jpg,,,,,,,,,,,,,,,,,,,,0.095052083,0.016927083,1,0,0,response1disk,18,0.002604167,-0.002604167,1,0,0,center_square,0,17,17,101,1,,,,,,,,,,,,,,,,,,,,,,,
484318,001,2022-11-20_23h49.22.813,Info_measure_main_exp,2022.2.2,Win32,60.02040694,,,,,,,,,,,,,,,,,,masks/mask_002.jpg,,,,,,,,,,,,,,,,,,,,,,,,,,,,,,,,,,,,,,,,,,,0,0,0,1,1,,,,,,,,,,,,,,,,,,,,,,,,,,,,,,,,,,,,,,,,,,,,,,
484318,001,2022-11-20_23h49.22.813,Info_measure_main_exp,2022.2.2,Win32,60.02040694,,,,,,,,,,,,,,,,,,masks/mask_001.jpg,,,,,,,,,,,,,,,,,,,,,,,,,,,,,,,,,,,,,,,,,,,0,1,1,0,1,,,,,,,,,,,,,,,,,,,,,,,,,,,,,,,,,,,,,,,,,,,,,,
484318,001,2022-11-20_23h49.22.813,Info_measure_main_exp,2022.2.2,Win32,60.02040694,,,,,,,,,,,,,,,,,,masks/mask_003.jpg,,,,,,,,,,,,,,,,,,,,,,,,,,,,,,,,,,,,,,,,,,,0,2,2,2,1,,,,,,,,,,,,,,,,,,,,,,,,,,,,,,,,,,,,,,,,,,,,,,
484318,001,2022-11-20_23h49.22.813,Info_measure_main_exp,2022.2.2,Win32,60.02040694,,,,,,,,,,,,,,,,,,masks/mask_005.jpg,,,,,,,,,,,,,,,,,,,,,,,,,,,,,,,,,,,,,,,,,,,0,3,3,4,1,,,,,,,,,,,,,,,,,,,,,,,,,,,,,,,,,,,,,,,,,,,,,,
484318,001,2022-11-20_23h49.22.813,Info_measure_main_exp,2022.2.2,Win32,60.02040694,,,,,,,,,,,,,,,,,,masks/mask_004.jpg,,,,,,,,,,,,,,,,,,,,,,,,,,,,,,,,,,,,,,,,,,,0,4,4,3,1,,,,,,,,,,,,,,,,,,,,,,,,,,,,,,,,,,,,,,,,,,,,,,
484318,001,2022-11-20_23h49.22.813,Info_measure_main_exp,2022.2.2,Win32,60.02040694,,,,,,,,,,,,,,,,,,masks/mask_005.jpg,,,,,,,,,,,,,,,,,,,,,,,,,,,,,,,,,,,,,,,,,,,,,,,,0,0,0,4,1,,,,,,,,,,,,,,,,,,,,,,,,,,,,,,,,,,,,,,,,,
484318,001,2022-11-20_23h49.22.813,Info_measure_main_exp,2022.2.2,Win32,60.02040694,,,,,,,,,,,,,,,,,,masks/mask_004.jpg,,,,,,,,,,,,,,,,,,,,,,,,,,,,,,,,,,,,,,,,,,,,,,,,0,1,1,3,1,,,,,,,,,,,,,,,,,,,,,,,,,,,,,,,,,,,,,,,,,
484318,001,2022-11-20_23h49.22.813,Info_measure_main_exp,2022.2.2,Win32,60.02040694,,,,,,,,,,,,,,,,,,masks/mask_001.jpg,,,,,,,,,,,,,,,,,,,,,,,,,,,,,,,,,,,,,,,,,,,,,,,,0,2,2,0,1,,,,,,,,,,,,,,,,,,,,,,,,,,,,,,,,,,,,,,,,,
484318,001,2022-11-20_23h49.22.813,Info_measure_main_exp,2022.2.2,Win32,60.02040694,,,,,,,,,,,,,,,,,,masks/mask_003.jpg,,,,,,,,,,,,,,,,,,,,,,,,,,,,,,,,,,,,,,,,,,,,,,,,0,3,3,2,1,,,,,,,,,,,,,,,,,,,,,,,,,,,,,,,,,,,,,,,,,
484318,001,2022-11-20_23h49.22.813,Info_measure_main_exp,2022.2.2,Win32,60.02040694,,,,,,,,,,,,,,,,,,masks/mask_002.jpg,,,,,,,,,,,,,,,,,,,,,,,,,,,,,,,,,,,,,,,,,,,,,,,,0,4,4,1,1,,,,,,,,,,,,,,,,,,,,,,,,,,,,,,,,,,,,,,,,,
484318,001,2022-11-20_23h49.22.813,Info_measure_main_exp,2022.2.2,Win32,60.02040694,,,,,,,,,,,,,,,,,,,,,,,,,,,,,,6,0.7826,1,,,,,,,,,,,,0,131,5,5,2082,2166,absent_patch/patch0002082.jpg,absent_patch/patch0002166.jpg,,,,,,,,,,,,,,,,,,,,0.046875,0.009114583,1,0,0,response1disk,19,-0.009114583,-0.010416667,1,0,0,center_square,0,18,18,43,1,,,,,,,,,,,,,,,,,,,,,,,
484318,001,2022-11-20_23h49.22.813,Info_measure_main_exp,2022.2.2,Win32,60.02040694,,,,,,,,,,,,,,,,,,masks/mask_002.jpg,,,,,,,,,,,,,,,,,,,,,,,,,,,,,,,,,,,,,,,,,,,0,0,0,1,1,,,,,,,,,,,,,,,,,,,,,,,,,,,,,,,,,,,,,,,,,,,,,,
484318,001,2022-11-20_23h49.22.813,Info_measure_main_exp,2022.2.2,Win32,60.02040694,,,,,,,,,,,,,,,,,,masks/mask_003.jpg,,,,,,,,,,,,,,,,,,,,,,,,,,,,,,,,,,,,,,,,,,,0,1,1,2,1,,,,,,,,,,,,,,,,,,,,,,,,,,,,,,,,,,,,,,,,,,,,,,
484318,001,2022-11-20_23h49.22.813,Info_measure_main_exp,2022.2.2,Win32,60.02040694,,,,,,,,,,,,,,,,,,masks/mask_005.jpg,,,,,,,,,,,,,,,,,,,,,,,,,,,,,,,,,,,,,,,,,,,0,2,2,4,1,,,,,,,,,,,,,,,,,,,,,,,,,,,,,,,,,,,,,,,,,,,,,,
484318,001,2022-11-20_23h49.22.813,Info_measure_main_exp,2022.2.2,Win32,60.02040694,,,,,,,,,,,,,,,,,,masks/mask_004.jpg,,,,,,,,,,,,,,,,,,,,,,,,,,,,,,,,,,,,,,,,,,,0,3,3,3,1,,,,,,,,,,,,,,,,,,,,,,,,,,,,,,,,,,,,,,,,,,,,,,
484318,001,2022-11-20_23h49.22.813,Info_measure_main_exp,2022.2.2,Win32,60.02040694,,,,,,,,,,,,,,,,,,masks/mask_001.jpg,,,,,,,,,,,,,,,,,,,,,,,,,,,,,,,,,,,,,,,,,,,0,4,4,0,1,,,,,,,,,,,,,,,,,,,,,,,,,,,,,,,,,,,,,,,,,,,,,,
484318,001,2022-11-20_23h49.22.813,Info_measure_main_exp,2022.2.2,Win32,60.02040694,,,,,,,,,,,,,,,,,,masks/mask_003.jpg,,,,,,,,,,,,,,,,,,,,,,,,,,,,,,,,,,,,,,,,,,,,,,,,0,0,0,2,1,,,,,,,,,,,,,,,,,,,,,,,,,,,,,,,,,,,,,,,,,
484318,001,2022-11-20_23h49.22.813,Info_measure_main_exp,2022.2.2,Win32,60.02040694,,,,,,,,,,,,,,,,,,masks/mask_001.jpg,,,,,,,,,,,,,,,,,,,,,,,,,,,,,,,,,,,,,,,,,,,,,,,,0,1,1,0,1,,,,,,,,,,,,,,,,,,,,,,,,,,,,,,,,,,,,,,,,,
484318,001,2022-11-20_23h49.22.813,Info_measure_main_exp,2022.2.2,Win32,60.02040694,,,,,,,,,,,,,,,,,,masks/mask_002.jpg,,,,,,,,,,,,,,,,,,,,,,,,,,,,,,,,,,,,,,,,,,,,,,,,0,2,2,1,1,,,,,,,,,,,,,,,,,,,,,,,,,,,,,,,,,,,,,,,,,
484318,001,2022-11-20_23h49.22.813,Info_measure_main_exp,2022.2.2,Win32,60.02040694,,,,,,,,,,,,,,,,,,masks/mask_005.jpg,,,,,,,,,,,,,,,,,,,,,,,,,,,,,,,,,,,,,,,,,,,,,,,,0,3,3,4,1,,,,,,,,,,,,,,,,,,,,,,,,,,,,,,,,,,,,,,,,,
484318,001,2022-11-20_23h49.22.813,Info_measure_main_exp,2022.2.2,Win32,60.02040694,,,,,,,,,,,,,,,,,,masks/mask_004.jpg,,,,,,,,,,,,,,,,,,,,,,,,,,,,,,,,,,,,,,,,,,,,,,,,0,4,4,3,1,,,,,,,,,,,,,,,,,,,,,,,,,,,,,,,,,,,,,,,,,
484318,001,2022-11-20_23h49.22.813,Info_measure_main_exp,2022.2.2,Win32,60.02040694,,,,,,,,,,,,,,,,,,,,,,,,,,,,,,6,0.6159,1,,,,,,,,,,,,1,131,5,5,2082,1,absent_patch/patch0002082.jpg,present_patch/cong_131_5_a.jpg,,,,,,,,,,,,,,,,,,,,0.087239583,0.018229167,1,0,0,response1disk,20,0.010416667,-0.002604167,1,0,0,center_square,0,19,19,65,1,,,,,,,,,,,,,,,,,,,,,,,
484318,001,2022-11-20_23h49.22.813,Info_measure_main_exp,2022.2.2,Win32,60.02040694,,,,,,,,,,,,,,,,,,masks/mask_002.jpg,,,,,,,,,,,,,,,,,,,,,,,,,,,,,,,,,,,,,,,,,,,0,0,0,1,1,,,,,,,,,,,,,,,,,,,,,,,,,,,,,,,,,,,,,,,,,,,,,,
484318,001,2022-11-20_23h49.22.813,Info_measure_main_exp,2022.2.2,Win32,60.02040694,,,,,,,,,,,,,,,,,,masks/mask_005.jpg,,,,,,,,,,,,,,,,,,,,,,,,,,,,,,,,,,,,,,,,,,,0,1,1,4,1,,,,,,,,,,,,,,,,,,,,,,,,,,,,,,,,,,,,,,,,,,,,,,
484318,001,2022-11-20_23h49.22.813,Info_measure_main_exp,2022.2.2,Win32,60.02040694,,,,,,,,,,,,,,,,,,masks/mask_003.jpg,,,,,,,,,,,,,,,,,,,,,,,,,,,,,,,,,,,,,,,,,,,0,2,2,2,1,,,,,,,,,,,,,,,,,,,,,,,,,,,,,,,,,,,,,,,,,,,,,,
484318,001,2022-11-20_23h49.22.813,Info_measure_main_exp,2022.2.2,Win32,60.02040694,,,,,,,,,,,,,,,,,,masks/mask_001.jpg,,,,,,,,,,,,,,,,,,,,,,,,,,,,,,,,,,,,,,,,,,,0,3,3,0,1,,,,,,,,,,,,,,,,,,,,,,,,,,,,,,,,,,,,,,,,,,,,,,
484318,001,2022-11-20_23h49.22.813,Info_measure_main_exp,2022.2.2,Win32,60.02040694,,,,,,,,,,,,,,,,,,masks/mask_004.jpg,,,,,,,,,,,,,,,,,,,,,,,,,,,,,,,,,,,,,,,,,,,0,4,4,3,1,,,,,,,,,,,,,,,,,,,,,,,,,,,,,,,,,,,,,,,,,,,,,,
484318,001,2022-11-20_23h49.22.813,Info_measure_main_exp,2022.2.2,Win32,60.02040694,,,,,,,,,,,,,,,,,,masks/mask_004.jpg,,,,,,,,,,,,,,,,,,,,,,,,,,,,,,,,,,,,,,,,,,,,,,,,0,0,0,3,1,,,,,,,,,,,,,,,,,,,,,,,,,,,,,,,,,,,,,,,,,
484318,001,2022-11-20_23h49.22.813,Info_measure_main_exp,2022.2.2,Win32,60.02040694,,,,,,,,,,,,,,,,,,masks/mask_005.jpg,,,,,,,,,,,,,,,,,,,,,,,,,,,,,,,,,,,,,,,,,,,,,,,,0,1,1,4,1,,,,,,,,,,,,,,,,,,,,,,,,,,,,,,,,,,,,,,,,,
484318,001,2022-11-20_23h49.22.813,Info_measure_main_exp,2022.2.2,Win32,60.02040694,,,,,,,,,,,,,,,,,,masks/mask_002.jpg,,,,,,,,,,,,,,,,,,,,,,,,,,,,,,,,,,,,,,,,,,,,,,,,0,2,2,1,1,,,,,,,,,,,,,,,,,,,,,,,,,,,,,,,,,,,,,,,,,
484318,001,2022-11-20_23h49.22.813,Info_measure_main_exp,2022.2.2,Win32,60.02040694,,,,,,,,,,,,,,,,,,masks/mask_001.jpg,,,,,,,,,,,,,,,,,,,,,,,,,,,,,,,,,,,,,,,,,,,,,,,,0,3,3,0,1,,,,,,,,,,,,,,,,,,,,,,,,,,,,,,,,,,,,,,,,,
484318,001,2022-11-20_23h49.22.813,Info_measure_main_exp,2022.2.2,Win32,60.02040694,,,,,,,,,,,,,,,,,,masks/mask_003.jpg,,,,,,,,,,,,,,,,,,,,,,,,,,,,,,,,,,,,,,,,,,,,,,,,0,4,4,2,1,,,,,,,,,,,,,,,,,,,,,,,,,,,,,,,,,,,,,,,,,
484318,001,2022-11-20_23h49.22.813,Info_measure_main_exp,2022.2.2,Win32,60.02040694,,,,,,,,,,,,,,,,,,,,,,,,,,,,,,6,0.5499,1,,,,,,,,,,,,0,131,5,5,2274,2142,absent_patch/patch0002274.jpg,absent_patch/patch0002142.jpg,,,,,,,,,,,,,,,,,,,,0.061197917,0.029947917,1,0,0,response1disk,21,0.00390625,0.00390625,1,0,0,center_square,0,20,20,75,1,,,,,,,,,,,,,,,,,,,,,,,
484318,001,2022-11-20_23h49.22.813,Info_measure_main_exp,2022.2.2,Win32,60.02040694,,,,,,,,,,,,,,,,,,masks/mask_004.jpg,,,,,,,,,,,,,,,,,,,,,,,,,,,,,,,,,,,,,,,,,,,0,0,0,3,1,,,,,,,,,,,,,,,,,,,,,,,,,,,,,,,,,,,,,,,,,,,,,,
484318,001,2022-11-20_23h49.22.813,Info_measure_main_exp,2022.2.2,Win32,60.02040694,,,,,,,,,,,,,,,,,,masks/mask_002.jpg,,,,,,,,,,,,,,,,,,,,,,,,,,,,,,,,,,,,,,,,,,,0,1,1,1,1,,,,,,,,,,,,,,,,,,,,,,,,,,,,,,,,,,,,,,,,,,,,,,
484318,001,2022-11-20_23h49.22.813,Info_measure_main_exp,2022.2.2,Win32,60.02040694,,,,,,,,,,,,,,,,,,masks/mask_003.jpg,,,,,,,,,,,,,,,,,,,,,,,,,,,,,,,,,,,,,,,,,,,0,2,2,2,1,,,,,,,,,,,,,,,,,,,,,,,,,,,,,,,,,,,,,,,,,,,,,,
484318,001,2022-11-20_23h49.22.813,Info_measure_main_exp,2022.2.2,Win32,60.02040694,,,,,,,,,,,,,,,,,,masks/mask_001.jpg,,,,,,,,,,,,,,,,,,,,,,,,,,,,,,,,,,,,,,,,,,,0,3,3,0,1,,,,,,,,,,,,,,,,,,,,,,,,,,,,,,,,,,,,,,,,,,,,,,
484318,001,2022-11-20_23h49.22.813,Info_measure_main_exp,2022.2.2,Win32,60.02040694,,,,,,,,,,,,,,,,,,masks/mask_005.jpg,,,,,,,,,,,,,,,,,,,,,,,,,,,,,,,,,,,,,,,,,,,0,4,4,4,1,,,,,,,,,,,,,,,,,,,,,,,,,,,,,,,,,,,,,,,,,,,,,,
484318,001,2022-11-20_23h49.22.813,Info_measure_main_exp,2022.2.2,Win32,60.02040694,,,,,,,,,,,,,,,,,,masks/mask_003.jpg,,,,,,,,,,,,,,,,,,,,,,,,,,,,,,,,,,,,,,,,,,,,,,,,0,0,0,2,1,,,,,,,,,,,,,,,,,,,,,,,,,,,,,,,,,,,,,,,,,
484318,001,2022-11-20_23h49.22.813,Info_measure_main_exp,2022.2.2,Win32,60.02040694,,,,,,,,,,,,,,,,,,masks/mask_001.jpg,,,,,,,,,,,,,,,,,,,,,,,,,,,,,,,,,,,,,,,,,,,,,,,,0,1,1,0,1,,,,,,,,,,,,,,,,,,,,,,,,,,,,,,,,,,,,,,,,,
484318,001,2022-11-20_23h49.22.813,Info_measure_main_exp,2022.2.2,Win32,60.02040694,,,,,,,,,,,,,,,,,,masks/mask_005.jpg,,,,,,,,,,,,,,,,,,,,,,,,,,,,,,,,,,,,,,,,,,,,,,,,0,2,2,4,1,,,,,,,,,,,,,,,,,,,,,,,,,,,,,,,,,,,,,,,,,
484318,001,2022-11-20_23h49.22.813,Info_measure_main_exp,2022.2.2,Win32,60.02040694,,,,,,,,,,,,,,,,,,masks/mask_002.jpg,,,,,,,,,,,,,,,,,,,,,,,,,,,,,,,,,,,,,,,,,,,,,,,,0,3,3,1,1,,,,,,,,,,,,,,,,,,,,,,,,,,,,,,,,,,,,,,,,,
484318,001,2022-11-20_23h49.22.813,Info_measure_main_exp,2022.2.2,Win32,60.02040694,,,,,,,,,,,,,,,,,,masks/mask_004.jpg,,,,,,,,,,,,,,,,,,,,,,,,,,,,,,,,,,,,,,,,,,,,,,,,0,4,4,3,1,,,,,,,,,,,,,,,,,,,,,,,,,,,,,,,,,,,,,,,,,
484318,001,2022-11-20_23h49.22.813,Info_measure_main_exp,2022.2.2,Win32,60.02040694,,,,,,,,,,,,,,,,,,,,,,,,,,,,,,4,1.3816,1,,,,,,,,,,,,0,131,5,5,2190,2214,absent_patch/patch0002190.jpg,absent_patch/patch0002214.jpg,,,,,,,,,,,,,,,,,,,,0.014322917,-0.071614583,1,0,0,response3disk,22,-0.002604167,-0.014322917,1,0,0,center_square,0,21,21,35,1,,,,,,,,,,,,,,,,,,,,,,,
484318,001,2022-11-20_23h49.22.813,Info_measure_main_exp,2022.2.2,Win32,60.02040694,,,,,,,,,,,,,,,,,,masks/mask_003.jpg,,,,,,,,,,,,,,,,,,,,,,,,,,,,,,,,,,,,,,,,,,,0,0,0,2,1,,,,,,,,,,,,,,,,,,,,,,,,,,,,,,,,,,,,,,,,,,,,,,
484318,001,2022-11-20_23h49.22.813,Info_measure_main_exp,2022.2.2,Win32,60.02040694,,,,,,,,,,,,,,,,,,masks/mask_005.jpg,,,,,,,,,,,,,,,,,,,,,,,,,,,,,,,,,,,,,,,,,,,0,1,1,4,1,,,,,,,,,,,,,,,,,,,,,,,,,,,,,,,,,,,,,,,,,,,,,,
484318,001,2022-11-20_23h49.22.813,Info_measure_main_exp,2022.2.2,Win32,60.02040694,,,,,,,,,,,,,,,,,,masks/mask_004.jpg,,,,,,,,,,,,,,,,,,,,,,,,,,,,,,,,,,,,,,,,,,,0,2,2,3,1,,,,,,,,,,,,,,,,,,,,,,,,,,,,,,,,,,,,,,,,,,,,,,
484318,001,2022-11-20_23h49.22.813,Info_measure_main_exp,2022.2.2,Win32,60.02040694,,,,,,,,,,,,,,,,,,masks/mask_002.jpg,,,,,,,,,,,,,,,,,,,,,,,,,,,,,,,,,,,,,,,,,,,0,3,3,1,1,,,,,,,,,,,,,,,,,,,,,,,,,,,,,,,,,,,,,,,,,,,,,,
484318,001,2022-11-20_23h49.22.813,Info_measure_main_exp,2022.2.2,Win32,60.02040694,,,,,,,,,,,,,,,,,,masks/mask_001.jpg,,,,,,,,,,,,,,,,,,,,,,,,,,,,,,,,,,,,,,,,,,,0,4,4,0,1,,,,,,,,,,,,,,,,,,,,,,,,,,,,,,,,,,,,,,,,,,,,,,
484318,001,2022-11-20_23h49.22.813,Info_measure_main_exp,2022.2.2,Win32,60.02040694,,,,,,,,,,,,,,,,,,masks/mask_004.jpg,,,,,,,,,,,,,,,,,,,,,,,,,,,,,,,,,,,,,,,,,,,,,,,,0,0,0,3,1,,,,,,,,,,,,,,,,,,,,,,,,,,,,,,,,,,,,,,,,,
484318,001,2022-11-20_23h49.22.813,Info_measure_main_exp,2022.2.2,Win32,60.02040694,,,,,,,,,,,,,,,,,,masks/mask_001.jpg,,,,,,,,,,,,,,,,,,,,,,,,,,,,,,,,,,,,,,,,,,,,,,,,0,1,1,0,1,,,,,,,,,,,,,,,,,,,,,,,,,,,,,,,,,,,,,,,,,
484318,001,2022-11-20_23h49.22.813,Info_measure_main_exp,2022.2.2,Win32,60.02040694,,,,,,,,,,,,,,,,,,masks/mask_002.jpg,,,,,,,,,,,,,,,,,,,,,,,,,,,,,,,,,,,,,,,,,,,,,,,,0,2,2,1,1,,,,,,,,,,,,,,,,,,,,,,,,,,,,,,,,,,,,,,,,,
484318,001,2022-11-20_23h49.22.813,Info_measure_main_exp,2022.2.2,Win32,60.02040694,,,,,,,,,,,,,,,,,,masks/mask_005.jpg,,,,,,,,,,,,,,,,,,,,,,,,,,,,,,,,,,,,,,,,,,,,,,,,0,3,3,4,1,,,,,,,,,,,,,,,,,,,,,,,,,,,,,,,,,,,,,,,,,
484318,001,2022-11-20_23h49.22.813,Info_measure_main_exp,2022.2.2,Win32,60.02040694,,,,,,,,,,,,,,,,,,masks/mask_003.jpg,,,,,,,,,,,,,,,,,,,,,,,,,,,,,,,,,,,,,,,,,,,,,,,,0,4,4,2,1,,,,,,,,,,,,,,,,,,,,,,,,,,,,,,,,,,,,,,,,,
484318,001,2022-11-20_23h49.22.813,Info_measure_main_exp,2022.2.2,Win32,60.02040694,,,,,,,,,,,,,,,,,,,,,,,,,,,,,,6,1.0825,1,,,,,,,,,,,,1,131,5,5,2190,1,absent_patch/patch0002190.jpg,present_patch/cong_131_5_a.jpg,,,,,,,,,,,,,,,,,,,,0.05859375,0.028645833,1,0,0,response1disk,23,0.005208333,0.001302083,1,0,0,center_square,0,22,22,64,1,,,,,,,,,,,,,,,,,,,,,,,
484318,001,2022-11-20_23h49.22.813,Info_measure_main_exp,2022.2.2,Win32,60.02040694,,,,,,,,,,,,,,,,,,masks/mask_004.jpg,,,,,,,,,,,,,,,,,,,,,,,,,,,,,,,,,,,,,,,,,,,0,0,0,3,1,,,,,,,,,,,,,,,,,,,,,,,,,,,,,,,,,,,,,,,,,,,,,,
484318,001,2022-11-20_23h49.22.813,Info_measure_main_exp,2022.2.2,Win32,60.02040694,,,,,,,,,,,,,,,,,,masks/mask_002.jpg,,,,,,,,,,,,,,,,,,,,,,,,,,,,,,,,,,,,,,,,,,,0,1,1,1,1,,,,,,,,,,,,,,,,,,,,,,,,,,,,,,,,,,,,,,,,,,,,,,
484318,001,2022-11-20_23h49.22.813,Info_measure_main_exp,2022.2.2,Win32,60.02040694,,,,,,,,,,,,,,,,,,masks/mask_005.jpg,,,,,,,,,,,,,,,,,,,,,,,,,,,,,,,,,,,,,,,,,,,0,2,2,4,1,,,,,,,,,,,,,,,,,,,,,,,,,,,,,,,,,,,,,,,,,,,,,,
484318,001,2022-11-20_23h49.22.813,Info_measure_main_exp,2022.2.2,Win32,60.02040694,,,,,,,,,,,,,,,,,,masks/mask_003.jpg,,,,,,,,,,,,,,,,,,,,,,,,,,,,,,,,,,,,,,,,,,,0,3,3,2,1,,,,,,,,,,,,,,,,,,,,,,,,,,,,,,,,,,,,,,,,,,,,,,
484318,001,2022-11-20_23h49.22.813,Info_measure_main_exp,2022.2.2,Win32,60.02040694,,,,,,,,,,,,,,,,,,masks/mask_001.jpg,,,,,,,,,,,,,,,,,,,,,,,,,,,,,,,,,,,,,,,,,,,0,4,4,0,1,,,,,,,,,,,,,,,,,,,,,,,,,,,,,,,,,,,,,,,,,,,,,,
484318,001,2022-11-20_23h49.22.813,Info_measure_main_exp,2022.2.2,Win32,60.02040694,,,,,,,,,,,,,,,,,,masks/mask_001.jpg,,,,,,,,,,,,,,,,,,,,,,,,,,,,,,,,,,,,,,,,,,,,,,,,0,0,0,0,1,,,,,,,,,,,,,,,,,,,,,,,,,,,,,,,,,,,,,,,,,
484318,001,2022-11-20_23h49.22.813,Info_measure_main_exp,2022.2.2,Win32,60.02040694,,,,,,,,,,,,,,,,,,masks/mask_005.jpg,,,,,,,,,,,,,,,,,,,,,,,,,,,,,,,,,,,,,,,,,,,,,,,,0,1,1,4,1,,,,,,,,,,,,,,,,,,,,,,,,,,,,,,,,,,,,,,,,,
484318,001,2022-11-20_23h49.22.813,Info_measure_main_exp,2022.2.2,Win32,60.02040694,,,,,,,,,,,,,,,,,,masks/mask_004.jpg,,,,,,,,,,,,,,,,,,,,,,,,,,,,,,,,,,,,,,,,,,,,,,,,0,2,2,3,1,,,,,,,,,,,,,,,,,,,,,,,,,,,,,,,,,,,,,,,,,
484318,001,2022-11-20_23h49.22.813,Info_measure_main_exp,2022.2.2,Win32,60.02040694,,,,,,,,,,,,,,,,,,masks/mask_003.jpg,,,,,,,,,,,,,,,,,,,,,,,,,,,,,,,,,,,,,,,,,,,,,,,,0,3,3,2,1,,,,,,,,,,,,,,,,,,,,,,,,,,,,,,,,,,,,,,,,,
484318,001,2022-11-20_23h49.22.813,Info_measure_main_exp,2022.2.2,Win32,60.02040694,,,,,,,,,,,,,,,,,,masks/mask_002.jpg,,,,,,,,,,,,,,,,,,,,,,,,,,,,,,,,,,,,,,,,,,,,,,,,0,4,4,1,1,,,,,,,,,,,,,,,,,,,,,,,,,,,,,,,,,,,,,,,,,
484318,001,2022-11-20_23h49.22.813,Info_measure_main_exp,2022.2.2,Win32,60.02040694,,,,,,,,,,,,,,,,,,,,,,,,,,,,,,6,0.9988,1,,,,,,,,,,,,1,131,5,5,1,1974,present_patch/cong_131_5_a.jpg,absent_patch/patch0001974.jpg,,,,,,,,,,,,,,,,,,,,0.036458333,0.009114583,1,0,0,response1disk,24,0.0078125,0.001302083,1,0,0,center_square,0,23,23,69,1,,,,,,,,,,,,,,,,,,,,,,,
484318,001,2022-11-20_23h49.22.813,Info_measure_main_exp,2022.2.2,Win32,60.02040694,,,,,,,,,,,,,,,,,,masks/mask_001.jpg,,,,,,,,,,,,,,,,,,,,,,,,,,,,,,,,,,,,,,,,,,,0,0,0,0,1,,,,,,,,,,,,,,,,,,,,,,,,,,,,,,,,,,,,,,,,,,,,,,
484318,001,2022-11-20_23h49.22.813,Info_measure_main_exp,2022.2.2,Win32,60.02040694,,,,,,,,,,,,,,,,,,masks/mask_004.jpg,,,,,,,,,,,,,,,,,,,,,,,,,,,,,,,,,,,,,,,,,,,0,1,1,3,1,,,,,,,,,,,,,,,,,,,,,,,,,,,,,,,,,,,,,,,,,,,,,,
484318,001,2022-11-20_23h49.22.813,Info_measure_main_exp,2022.2.2,Win32,60.02040694,,,,,,,,,,,,,,,,,,masks/mask_005.jpg,,,,,,,,,,,,,,,,,,,,,,,,,,,,,,,,,,,,,,,,,,,0,2,2,4,1,,,,,,,,,,,,,,,,,,,,,,,,,,,,,,,,,,,,,,,,,,,,,,
484318,001,2022-11-20_23h49.22.813,Info_measure_main_exp,2022.2.2,Win32,60.02040694,,,,,,,,,,,,,,,,,,masks/mask_002.jpg,,,,,,,,,,,,,,,,,,,,,,,,,,,,,,,,,,,,,,,,,,,0,3,3,1,1,,,,,,,,,,,,,,,,,,,,,,,,,,,,,,,,,,,,,,,,,,,,,,
484318,001,2022-11-20_23h49.22.813,Info_measure_main_exp,2022.2.2,Win32,60.02040694,,,,,,,,,,,,,,,,,,masks/mask_003.jpg,,,,,,,,,,,,,,,,,,,,,,,,,,,,,,,,,,,,,,,,,,,0,4,4,2,1,,,,,,,,,,,,,,,,,,,,,,,,,,,,,,,,,,,,,,,,,,,,,,
484318,001,2022-11-20_23h49.22.813,Info_measure_main_exp,2022.2.2,Win32,60.02040694,,,,,,,,,,,,,,,,,,masks/mask_002.jpg,,,,,,,,,,,,,,,,,,,,,,,,,,,,,,,,,,,,,,,,,,,,,,,,0,0,0,1,1,,,,,,,,,,,,,,,,,,,,,,,,,,,,,,,,,,,,,,,,,
484318,001,2022-11-20_23h49.22.813,Info_measure_main_exp,2022.2.2,Win32,60.02040694,,,,,,,,,,,,,,,,,,masks/mask_003.jpg,,,,,,,,,,,,,,,,,,,,,,,,,,,,,,,,,,,,,,,,,,,,,,,,0,1,1,2,1,,,,,,,,,,,,,,,,,,,,,,,,,,,,,,,,,,,,,,,,,
484318,001,2022-11-20_23h49.22.813,Info_measure_main_exp,2022.2.2,Win32,60.02040694,,,,,,,,,,,,,,,,,,masks/mask_005.jpg,,,,,,,,,,,,,,,,,,,,,,,,,,,,,,,,,,,,,,,,,,,,,,,,0,2,2,4,1,,,,,,,,,,,,,,,,,,,,,,,,,,,,,,,,,,,,,,,,,
484318,001,2022-11-20_23h49.22.813,Info_measure_main_exp,2022.2.2,Win32,60.02040694,,,,,,,,,,,,,,,,,,masks/mask_001.jpg,,,,,,,,,,,,,,,,,,,,,,,,,,,,,,,,,,,,,,,,,,,,,,,,0,3,3,0,1,,,,,,,,,,,,,,,,,,,,,,,,,,,,,,,,,,,,,,,,,
484318,001,2022-11-20_23h49.22.813,Info_measure_main_exp,2022.2.2,Win32,60.02040694,,,,,,,,,,,,,,,,,,masks/mask_004.jpg,,,,,,,,,,,,,,,,,,,,,,,,,,,,,,,,,,,,,,,,,,,,,,,,0,4,4,3,1,,,,,,,,,,,,,,,,,,,,,,,,,,,,,,,,,,,,,,,,,
484318,001,2022-11-20_23h49.22.813,Info_measure_main_exp,2022.2.2,Win32,60.02040694,,,,,,,,,,,,,,,,,,,,,,,,,,,,,,6,0.7158,1,,,,,,,,,,,,0,131,5,5,2298,2274,absent_patch/patch0002298.jpg,absent_patch/patch0002274.jpg,,,,,,,,,,,,,,,,,,,,0.0234375,0.0078125,1,0,0,response1disk,25,0.001302083,0.001302083,1,0,0,center_square,0,24,24,1,1,,,,,,,,,,,,,,,,,,,,,,,
484318,001,2022-11-20_23h49.22.813,Info_measure_main_exp,2022.2.2,Win32,60.02040694,,,,,,,,,,,,,,,,,,masks/mask_003.jpg,,,,,,,,,,,,,,,,,,,,,,,,,,,,,,,,,,,,,,,,,,,0,0,0,2,1,,,,,,,,,,,,,,,,,,,,,,,,,,,,,,,,,,,,,,,,,,,,,,
484318,001,2022-11-20_23h49.22.813,Info_measure_main_exp,2022.2.2,Win32,60.02040694,,,,,,,,,,,,,,,,,,masks/mask_002.jpg,,,,,,,,,,,,,,,,,,,,,,,,,,,,,,,,,,,,,,,,,,,0,1,1,1,1,,,,,,,,,,,,,,,,,,,,,,,,,,,,,,,,,,,,,,,,,,,,,,
484318,001,2022-11-20_23h49.22.813,Info_measure_main_exp,2022.2.2,Win32,60.02040694,,,,,,,,,,,,,,,,,,masks/mask_005.jpg,,,,,,,,,,,,,,,,,,,,,,,,,,,,,,,,,,,,,,,,,,,0,2,2,4,1,,,,,,,,,,,,,,,,,,,,,,,,,,,,,,,,,,,,,,,,,,,,,,
484318,001,2022-11-20_23h49.22.813,Info_measure_main_exp,2022.2.2,Win32,60.02040694,,,,,,,,,,,,,,,,,,masks/mask_004.jpg,,,,,,,,,,,,,,,,,,,,,,,,,,,,,,,,,,,,,,,,,,,0,3,3,3,1,,,,,,,,,,,,,,,,,,,,,,,,,,,,,,,,,,,,,,,,,,,,,,
484318,001,2022-11-20_23h49.22.813,Info_measure_main_exp,2022.2.2,Win32,60.02040694,,,,,,,,,,,,,,,,,,masks/mask_001.jpg,,,,,,,,,,,,,,,,,,,,,,,,,,,,,,,,,,,,,,,,,,,0,4,4,0,1,,,,,,,,,,,,,,,,,,,,,,,,,,,,,,,,,,,,,,,,,,,,,,
484318,001,2022-11-20_23h49.22.813,Info_measure_main_exp,2022.2.2,Win32,60.02040694,,,,,,,,,,,,,,,,,,masks/mask_005.jpg,,,,,,,,,,,,,,,,,,,,,,,,,,,,,,,,,,,,,,,,,,,,,,,,0,0,0,4,1,,,,,,,,,,,,,,,,,,,,,,,,,,,,,,,,,,,,,,,,,
484318,001,2022-11-20_23h49.22.813,Info_measure_main_exp,2022.2.2,Win32,60.02040694,,,,,,,,,,,,,,,,,,masks/mask_002.jpg,,,,,,,,,,,,,,,,,,,,,,,,,,,,,,,,,,,,,,,,,,,,,,,,0,1,1,1,1,,,,,,,,,,,,,,,,,,,,,,,,,,,,,,,,,,,,,,,,,
484318,001,2022-11-20_23h49.22.813,Info_measure_main_exp,2022.2.2,Win32,60.02040694,,,,,,,,,,,,,,,,,,masks/mask_003.jpg,,,,,,,,,,,,,,,,,,,,,,,,,,,,,,,,,,,,,,,,,,,,,,,,0,2,2,2,1,,,,,,,,,,,,,,,,,,,,,,,,,,,,,,,,,,,,,,,,,
484318,001,2022-11-20_23h49.22.813,Info_measure_main_exp,2022.2.2,Win32,60.02040694,,,,,,,,,,,,,,,,,,masks/mask_001.jpg,,,,,,,,,,,,,,,,,,,,,,,,,,,,,,,,,,,,,,,,,,,,,,,,0,3,3,0,1,,,,,,,,,,,,,,,,,,,,,,,,,,,,,,,,,,,,,,,,,
484318,001,2022-11-20_23h49.22.813,Info_measure_main_exp,2022.2.2,Win32,60.02040694,,,,,,,,,,,,,,,,,,masks/mask_004.jpg,,,,,,,,,,,,,,,,,,,,,,,,,,,,,,,,,,,,,,,,,,,,,,,,0,4,4,3,1,,,,,,,,,,,,,,,,,,,,,,,,,,,,,,,,,,,,,,,,,
484318,001,2022-11-20_23h49.22.813,Info_measure_main_exp,2022.2.2,Win32,60.02040694,,,,,,,,,,,,,,,,,,,,,,,,,,,,,,3,1.6317,1,,,,,,,,,,,,0,131,5,5,2190,1974,absent_patch/patch0002190.jpg,absent_patch/patch0001974.jpg,,,,,,,,,,,,,,,,,,,,-0.024739583,-0.0625,1,0,0,response5disk,26,0,-0.006510417,1,0,0,center_square,0,25,25,119,1,,,,,,,,,,,,,,,,,,,,,,,
484318,001,2022-11-20_23h49.22.813,Info_measure_main_exp,2022.2.2,Win32,60.02040694,,,,,,,,,,,,,,,,,,masks/mask_005.jpg,,,,,,,,,,,,,,,,,,,,,,,,,,,,,,,,,,,,,,,,,,,0,0,0,4,1,,,,,,,,,,,,,,,,,,,,,,,,,,,,,,,,,,,,,,,,,,,,,,
484318,001,2022-11-20_23h49.22.813,Info_measure_main_exp,2022.2.2,Win32,60.02040694,,,,,,,,,,,,,,,,,,masks/mask_002.jpg,,,,,,,,,,,,,,,,,,,,,,,,,,,,,,,,,,,,,,,,,,,0,1,1,1,1,,,,,,,,,,,,,,,,,,,,,,,,,,,,,,,,,,,,,,,,,,,,,,
484318,001,2022-11-20_23h49.22.813,Info_measure_main_exp,2022.2.2,Win32,60.02040694,,,,,,,,,,,,,,,,,,masks/mask_003.jpg,,,,,,,,,,,,,,,,,,,,,,,,,,,,,,,,,,,,,,,,,,,0,2,2,2,1,,,,,,,,,,,,,,,,,,,,,,,,,,,,,,,,,,,,,,,,,,,,,,
484318,001,2022-11-20_23h49.22.813,Info_measure_main_exp,2022.2.2,Win32,60.02040694,,,,,,,,,,,,,,,,,,masks/mask_004.jpg,,,,,,,,,,,,,,,,,,,,,,,,,,,,,,,,,,,,,,,,,,,0,3,3,3,1,,,,,,,,,,,,,,,,,,,,,,,,,,,,,,,,,,,,,,,,,,,,,,
484318,001,2022-11-20_23h49.22.813,Info_measure_main_exp,2022.2.2,Win32,60.02040694,,,,,,,,,,,,,,,,,,masks/mask_001.jpg,,,,,,,,,,,,,,,,,,,,,,,,,,,,,,,,,,,,,,,,,,,0,4,4,0,1,,,,,,,,,,,,,,,,,,,,,,,,,,,,,,,,,,,,,,,,,,,,,,
484318,001,2022-11-20_23h49.22.813,Info_measure_main_exp,2022.2.2,Win32,60.02040694,,,,,,,,,,,,,,,,,,masks/mask_003.jpg,,,,,,,,,,,,,,,,,,,,,,,,,,,,,,,,,,,,,,,,,,,,,,,,0,0,0,2,1,,,,,,,,,,,,,,,,,,,,,,,,,,,,,,,,,,,,,,,,,
484318,001,2022-11-20_23h49.22.813,Info_measure_main_exp,2022.2.2,Win32,60.02040694,,,,,,,,,,,,,,,,,,masks/mask_004.jpg,,,,,,,,,,,,,,,,,,,,,,,,,,,,,,,,,,,,,,,,,,,,,,,,0,1,1,3,1,,,,,,,,,,,,,,,,,,,,,,,,,,,,,,,,,,,,,,,,,
484318,001,2022-11-20_23h49.22.813,Info_measure_main_exp,2022.2.2,Win32,60.02040694,,,,,,,,,,,,,,,,,,masks/mask_005.jpg,,,,,,,,,,,,,,,,,,,,,,,,,,,,,,,,,,,,,,,,,,,,,,,,0,2,2,4,1,,,,,,,,,,,,,,,,,,,,,,,,,,,,,,,,,,,,,,,,,
484318,001,2022-11-20_23h49.22.813,Info_measure_main_exp,2022.2.2,Win32,60.02040694,,,,,,,,,,,,,,,,,,masks/mask_002.jpg,,,,,,,,,,,,,,,,,,,,,,,,,,,,,,,,,,,,,,,,,,,,,,,,0,3,3,1,1,,,,,,,,,,,,,,,,,,,,,,,,,,,,,,,,,,,,,,,,,
484318,001,2022-11-20_23h49.22.813,Info_measure_main_exp,2022.2.2,Win32,60.02040694,,,,,,,,,,,,,,,,,,masks/mask_001.jpg,,,,,,,,,,,,,,,,,,,,,,,,,,,,,,,,,,,,,,,,,,,,,,,,0,4,4,0,1,,,,,,,,,,,,,,,,,,,,,,,,,,,,,,,,,,,,,,,,,
484318,001,2022-11-20_23h49.22.813,Info_measure_main_exp,2022.2.2,Win32,60.02040694,,,,,,,,,,,,,,,,,,,,,,,,,,,,,,5,0.766,1,,,,,,,,,,,,0,131,5,5,2142,2190,absent_patch/patch0002142.jpg,absent_patch/patch0002190.jpg,,,,,,,,,,,,,,,,,,,,0.033854167,-0.014322917,1,0,0,response3disk,27,-0.005208333,-0.001302083,1,0,0,center_square,0,26,26,70,1,,,,,,,,,,,,,,,,,,,,,,,
484318,001,2022-11-20_23h49.22.813,Info_measure_main_exp,2022.2.2,Win32,60.02040694,,,,,,,,,,,,,,,,,,masks/mask_004.jpg,,,,,,,,,,,,,,,,,,,,,,,,,,,,,,,,,,,,,,,,,,,0,0,0,3,1,,,,,,,,,,,,,,,,,,,,,,,,,,,,,,,,,,,,,,,,,,,,,,
484318,001,2022-11-20_23h49.22.813,Info_measure_main_exp,2022.2.2,Win32,60.02040694,,,,,,,,,,,,,,,,,,masks/mask_002.jpg,,,,,,,,,,,,,,,,,,,,,,,,,,,,,,,,,,,,,,,,,,,0,1,1,1,1,,,,,,,,,,,,,,,,,,,,,,,,,,,,,,,,,,,,,,,,,,,,,,
484318,001,2022-11-20_23h49.22.813,Info_measure_main_exp,2022.2.2,Win32,60.02040694,,,,,,,,,,,,,,,,,,masks/mask_001.jpg,,,,,,,,,,,,,,,,,,,,,,,,,,,,,,,,,,,,,,,,,,,0,2,2,0,1,,,,,,,,,,,,,,,,,,,,,,,,,,,,,,,,,,,,,,,,,,,,,,
484318,001,2022-11-20_23h49.22.813,Info_measure_main_exp,2022.2.2,Win32,60.02040694,,,,,,,,,,,,,,,,,,masks/mask_005.jpg,,,,,,,,,,,,,,,,,,,,,,,,,,,,,,,,,,,,,,,,,,,0,3,3,4,1,,,,,,,,,,,,,,,,,,,,,,,,,,,,,,,,,,,,,,,,,,,,,,
484318,001,2022-11-20_23h49.22.813,Info_measure_main_exp,2022.2.2,Win32,60.02040694,,,,,,,,,,,,,,,,,,masks/mask_003.jpg,,,,,,,,,,,,,,,,,,,,,,,,,,,,,,,,,,,,,,,,,,,0,4,4,2,1,,,,,,,,,,,,,,,,,,,,,,,,,,,,,,,,,,,,,,,,,,,,,,
484318,001,2022-11-20_23h49.22.813,Info_measure_main_exp,2022.2.2,Win32,60.02040694,,,,,,,,,,,,,,,,,,masks/mask_001.jpg,,,,,,,,,,,,,,,,,,,,,,,,,,,,,,,,,,,,,,,,,,,,,,,,0,0,0,0,1,,,,,,,,,,,,,,,,,,,,,,,,,,,,,,,,,,,,,,,,,
484318,001,2022-11-20_23h49.22.813,Info_measure_main_exp,2022.2.2,Win32,60.02040694,,,,,,,,,,,,,,,,,,masks/mask_003.jpg,,,,,,,,,,,,,,,,,,,,,,,,,,,,,,,,,,,,,,,,,,,,,,,,0,1,1,2,1,,,,,,,,,,,,,,,,,,,,,,,,,,,,,,,,,,,,,,,,,
484318,001,2022-11-20_23h49.22.813,Info_measure_main_exp,2022.2.2,Win32,60.02040694,,,,,,,,,,,,,,,,,,masks/mask_002.jpg,,,,,,,,,,,,,,,,,,,,,,,,,,,,,,,,,,,,,,,,,,,,,,,,0,2,2,1,1,,,,,,,,,,,,,,,,,,,,,,,,,,,,,,,,,,,,,,,,,
484318,001,2022-11-20_23h49.22.813,Info_measure_main_exp,2022.2.2,Win32,60.02040694,,,,,,,,,,,,,,,,,,masks/mask_005.jpg,,,,,,,,,,,,,,,,,,,,,,,,,,,,,,,,,,,,,,,,,,,,,,,,0,3,3,4,1,,,,,,,,,,,,,,,,,,,,,,,,,,,,,,,,,,,,,,,,,
484318,001,2022-11-20_23h49.22.813,Info_measure_main_exp,2022.2.2,Win32,60.02040694,,,,,,,,,,,,,,,,,,masks/mask_004.jpg,,,,,,,,,,,,,,,,,,,,,,,,,,,,,,,,,,,,,,,,,,,,,,,,0,4,4,3,1,,,,,,,,,,,,,,,,,,,,,,,,,,,,,,,,,,,,,,,,,
484318,001,2022-11-20_23h49.22.813,Info_measure_main_exp,2022.2.2,Win32,60.02040694,,,,,,,,,,,,,,,,,,,,,,,,,,,,,,5,0.5995,1,,,,,,,,,,,,1,131,5,5,1,2142,present_patch/cong_131_5_a.jpg,absent_patch/patch0002142.jpg,,,,,,,,,,,,,,,,,,,,0.040364583,-0.03125,1,0,0,response3disk,28,0.001302083,-0.001302083,1,0,0,center_square,0,27,27,80,1,,,,,,,,,,,,,,,,,,,,,,,
484318,001,2022-11-20_23h49.22.813,Info_measure_main_exp,2022.2.2,Win32,60.02040694,,,,,,,,,,,,,,,,,,masks/mask_003.jpg,,,,,,,,,,,,,,,,,,,,,,,,,,,,,,,,,,,,,,,,,,,0,0,0,2,1,,,,,,,,,,,,,,,,,,,,,,,,,,,,,,,,,,,,,,,,,,,,,,
484318,001,2022-11-20_23h49.22.813,Info_measure_main_exp,2022.2.2,Win32,60.02040694,,,,,,,,,,,,,,,,,,masks/mask_004.jpg,,,,,,,,,,,,,,,,,,,,,,,,,,,,,,,,,,,,,,,,,,,0,1,1,3,1,,,,,,,,,,,,,,,,,,,,,,,,,,,,,,,,,,,,,,,,,,,,,,
484318,001,2022-11-20_23h49.22.813,Info_measure_main_exp,2022.2.2,Win32,60.02040694,,,,,,,,,,,,,,,,,,masks/mask_005.jpg,,,,,,,,,,,,,,,,,,,,,,,,,,,,,,,,,,,,,,,,,,,0,2,2,4,1,,,,,,,,,,,,,,,,,,,,,,,,,,,,,,,,,,,,,,,,,,,,,,
484318,001,2022-11-20_23h49.22.813,Info_measure_main_exp,2022.2.2,Win32,60.02040694,,,,,,,,,,,,,,,,,,masks/mask_001.jpg,,,,,,,,,,,,,,,,,,,,,,,,,,,,,,,,,,,,,,,,,,,0,3,3,0,1,,,,,,,,,,,,,,,,,,,,,,,,,,,,,,,,,,,,,,,,,,,,,,
484318,001,2022-11-20_23h49.22.813,Info_measure_main_exp,2022.2.2,Win32,60.02040694,,,,,,,,,,,,,,,,,,masks/mask_002.jpg,,,,,,,,,,,,,,,,,,,,,,,,,,,,,,,,,,,,,,,,,,,0,4,4,1,1,,,,,,,,,,,,,,,,,,,,,,,,,,,,,,,,,,,,,,,,,,,,,,
484318,001,2022-11-20_23h49.22.813,Info_measure_main_exp,2022.2.2,Win32,60.02040694,,,,,,,,,,,,,,,,,,masks/mask_001.jpg,,,,,,,,,,,,,,,,,,,,,,,,,,,,,,,,,,,,,,,,,,,,,,,,0,0,0,0,1,,,,,,,,,,,,,,,,,,,,,,,,,,,,,,,,,,,,,,,,,
484318,001,2022-11-20_23h49.22.813,Info_measure_main_exp,2022.2.2,Win32,60.02040694,,,,,,,,,,,,,,,,,,masks/mask_002.jpg,,,,,,,,,,,,,,,,,,,,,,,,,,,,,,,,,,,,,,,,,,,,,,,,0,1,1,1,1,,,,,,,,,,,,,,,,,,,,,,,,,,,,,,,,,,,,,,,,,
484318,001,2022-11-20_23h49.22.813,Info_measure_main_exp,2022.2.2,Win32,60.02040694,,,,,,,,,,,,,,,,,,masks/mask_004.jpg,,,,,,,,,,,,,,,,,,,,,,,,,,,,,,,,,,,,,,,,,,,,,,,,0,2,2,3,1,,,,,,,,,,,,,,,,,,,,,,,,,,,,,,,,,,,,,,,,,
484318,001,2022-11-20_23h49.22.813,Info_measure_main_exp,2022.2.2,Win32,60.02040694,,,,,,,,,,,,,,,,,,masks/mask_005.jpg,,,,,,,,,,,,,,,,,,,,,,,,,,,,,,,,,,,,,,,,,,,,,,,,0,3,3,4,1,,,,,,,,,,,,,,,,,,,,,,,,,,,,,,,,,,,,,,,,,
484318,001,2022-11-20_23h49.22.813,Info_measure_main_exp,2022.2.2,Win32,60.02040694,,,,,,,,,,,,,,,,,,masks/mask_003.jpg,,,,,,,,,,,,,,,,,,,,,,,,,,,,,,,,,,,,,,,,,,,,,,,,0,4,4,2,1,,,,,,,,,,,,,,,,,,,,,,,,,,,,,,,,,,,,,,,,,
484318,001,2022-11-20_23h49.22.813,Info_measure_main_exp,2022.2.2,Win32,60.02040694,,,,,,,,,,,,,,,,,,,,,,,,,,,,,,0,0.4998,1,,,,,,,,,,,,0,131,5,5,1986,1986,absent_patch/patch0001986.jpg,absent_patch/patch0001986.jpg,,,,,,,,,,,,,,,,,,,,-0.033854167,0.087239583,1,0,0,response7disk,29,-0.01171875,-0.002604167,1,0,0,center_square,0,28,28,19,1,,,,,,,,,,,,,,,,,,,,,,,
484318,001,2022-11-20_23h49.22.813,Info_measure_main_exp,2022.2.2,Win32,60.02040694,,,,,,,,,,,,,,,,,,masks/mask_002.jpg,,,,,,,,,,,,,,,,,,,,,,,,,,,,,,,,,,,,,,,,,,,0,0,0,1,1,,,,,,,,,,,,,,,,,,,,,,,,,,,,,,,,,,,,,,,,,,,,,,
484318,001,2022-11-20_23h49.22.813,Info_measure_main_exp,2022.2.2,Win32,60.02040694,,,,,,,,,,,,,,,,,,masks/mask_001.jpg,,,,,,,,,,,,,,,,,,,,,,,,,,,,,,,,,,,,,,,,,,,0,1,1,0,1,,,,,,,,,,,,,,,,,,,,,,,,,,,,,,,,,,,,,,,,,,,,,,
484318,001,2022-11-20_23h49.22.813,Info_measure_main_exp,2022.2.2,Win32,60.02040694,,,,,,,,,,,,,,,,,,masks/mask_005.jpg,,,,,,,,,,,,,,,,,,,,,,,,,,,,,,,,,,,,,,,,,,,0,2,2,4,1,,,,,,,,,,,,,,,,,,,,,,,,,,,,,,,,,,,,,,,,,,,,,,
484318,001,2022-11-20_23h49.22.813,Info_measure_main_exp,2022.2.2,Win32,60.02040694,,,,,,,,,,,,,,,,,,masks/mask_004.jpg,,,,,,,,,,,,,,,,,,,,,,,,,,,,,,,,,,,,,,,,,,,0,3,3,3,1,,,,,,,,,,,,,,,,,,,,,,,,,,,,,,,,,,,,,,,,,,,,,,
484318,001,2022-11-20_23h49.22.813,Info_measure_main_exp,2022.2.2,Win32,60.02040694,,,,,,,,,,,,,,,,,,masks/mask_003.jpg,,,,,,,,,,,,,,,,,,,,,,,,,,,,,,,,,,,,,,,,,,,0,4,4,2,1,,,,,,,,,,,,,,,,,,,,,,,,,,,,,,,,,,,,,,,,,,,,,,
484318,001,2022-11-20_23h49.22.813,Info_measure_main_exp,2022.2.2,Win32,60.02040694,,,,,,,,,,,,,,,,,,masks/mask_001.jpg,,,,,,,,,,,,,,,,,,,,,,,,,,,,,,,,,,,,,,,,,,,,,,,,0,0,0,0,1,,,,,,,,,,,,,,,,,,,,,,,,,,,,,,,,,,,,,,,,,
484318,001,2022-11-20_23h49.22.813,Info_measure_main_exp,2022.2.2,Win32,60.02040694,,,,,,,,,,,,,,,,,,masks/mask_004.jpg,,,,,,,,,,,,,,,,,,,,,,,,,,,,,,,,,,,,,,,,,,,,,,,,0,1,1,3,1,,,,,,,,,,,,,,,,,,,,,,,,,,,,,,,,,,,,,,,,,
484318,001,2022-11-20_23h49.22.813,Info_measure_main_exp,2022.2.2,Win32,60.02040694,,,,,,,,,,,,,,,,,,masks/mask_005.jpg,,,,,,,,,,,,,,,,,,,,,,,,,,,,,,,,,,,,,,,,,,,,,,,,0,2,2,4,1,,,,,,,,,,,,,,,,,,,,,,,,,,,,,,,,,,,,,,,,,
484318,001,2022-11-20_23h49.22.813,Info_measure_main_exp,2022.2.2,Win32,60.02040694,,,,,,,,,,,,,,,,,,masks/mask_002.jpg,,,,,,,,,,,,,,,,,,,,,,,,,,,,,,,,,,,,,,,,,,,,,,,,0,3,3,1,1,,,,,,,,,,,,,,,,,,,,,,,,,,,,,,,,,,,,,,,,,
484318,001,2022-11-20_23h49.22.813,Info_measure_main_exp,2022.2.2,Win32,60.02040694,,,,,,,,,,,,,,,,,,masks/mask_003.jpg,,,,,,,,,,,,,,,,,,,,,,,,,,,,,,,,,,,,,,,,,,,,,,,,0,4,4,2,1,,,,,,,,,,,,,,,,,,,,,,,,,,,,,,,,,,,,,,,,,
484318,001,2022-11-20_23h49.22.813,Info_measure_main_exp,2022.2.2,Win32,60.02040694,,,,,,,,,,,,,,,,,,,,,,,,,,,,,,1,0.8991,1,,,,,,,,,,,,0,131,5,5,1986,2154,absent_patch/patch0001986.jpg,absent_patch/patch0002154.jpg,,,,,,,,,,,,,,,,,,,,-0.063802083,0.033854167,1,0,0,response7disk,30,-0.006510417,-0.002604167,1,0,0,center_square,0,29,29,36,1,,,,,,,,,,,,,,,,,,,,,,,
484318,001,2022-11-20_23h49.22.813,Info_measure_main_exp,2022.2.2,Win32,60.02040694,,,,,,,,,,,,,,,,,,masks/mask_004.jpg,,,,,,,,,,,,,,,,,,,,,,,,,,,,,,,,,,,,,,,,,,,0,0,0,3,1,,,,,,,,,,,,,,,,,,,,,,,,,,,,,,,,,,,,,,,,,,,,,,
484318,001,2022-11-20_23h49.22.813,Info_measure_main_exp,2022.2.2,Win32,60.02040694,,,,,,,,,,,,,,,,,,masks/mask_002.jpg,,,,,,,,,,,,,,,,,,,,,,,,,,,,,,,,,,,,,,,,,,,0,1,1,1,1,,,,,,,,,,,,,,,,,,,,,,,,,,,,,,,,,,,,,,,,,,,,,,
484318,001,2022-11-20_23h49.22.813,Info_measure_main_exp,2022.2.2,Win32,60.02040694,,,,,,,,,,,,,,,,,,masks/mask_003.jpg,,,,,,,,,,,,,,,,,,,,,,,,,,,,,,,,,,,,,,,,,,,0,2,2,2,1,,,,,,,,,,,,,,,,,,,,,,,,,,,,,,,,,,,,,,,,,,,,,,
484318,001,2022-11-20_23h49.22.813,Info_measure_main_exp,2022.2.2,Win32,60.02040694,,,,,,,,,,,,,,,,,,masks/mask_005.jpg,,,,,,,,,,,,,,,,,,,,,,,,,,,,,,,,,,,,,,,,,,,0,3,3,4,1,,,,,,,,,,,,,,,,,,,,,,,,,,,,,,,,,,,,,,,,,,,,,,
484318,001,2022-11-20_23h49.22.813,Info_measure_main_exp,2022.2.2,Win32,60.02040694,,,,,,,,,,,,,,,,,,masks/mask_001.jpg,,,,,,,,,,,,,,,,,,,,,,,,,,,,,,,,,,,,,,,,,,,0,4,4,0,1,,,,,,,,,,,,,,,,,,,,,,,,,,,,,,,,,,,,,,,,,,,,,,
484318,001,2022-11-20_23h49.22.813,Info_measure_main_exp,2022.2.2,Win32,60.02040694,,,,,,,,,,,,,,,,,,masks/mask_004.jpg,,,,,,,,,,,,,,,,,,,,,,,,,,,,,,,,,,,,,,,,,,,,,,,,0,0,0,3,1,,,,,,,,,,,,,,,,,,,,,,,,,,,,,,,,,,,,,,,,,
484318,001,2022-11-20_23h49.22.813,Info_measure_main_exp,2022.2.2,Win32,60.02040694,,,,,,,,,,,,,,,,,,masks/mask_003.jpg,,,,,,,,,,,,,,,,,,,,,,,,,,,,,,,,,,,,,,,,,,,,,,,,0,1,1,2,1,,,,,,,,,,,,,,,,,,,,,,,,,,,,,,,,,,,,,,,,,
484318,001,2022-11-20_23h49.22.813,Info_measure_main_exp,2022.2.2,Win32,60.02040694,,,,,,,,,,,,,,,,,,masks/mask_001.jpg,,,,,,,,,,,,,,,,,,,,,,,,,,,,,,,,,,,,,,,,,,,,,,,,0,2,2,0,1,,,,,,,,,,,,,,,,,,,,,,,,,,,,,,,,,,,,,,,,,
484318,001,2022-11-20_23h49.22.813,Info_measure_main_exp,2022.2.2,Win32,60.02040694,,,,,,,,,,,,,,,,,,masks/mask_005.jpg,,,,,,,,,,,,,,,,,,,,,,,,,,,,,,,,,,,,,,,,,,,,,,,,0,3,3,4,1,,,,,,,,,,,,,,,,,,,,,,,,,,,,,,,,,,,,,,,,,
484318,001,2022-11-20_23h49.22.813,Info_measure_main_exp,2022.2.2,Win32,60.02040694,,,,,,,,,,,,,,,,,,masks/mask_002.jpg,,,,,,,,,,,,,,,,,,,,,,,,,,,,,,,,,,,,,,,,,,,,,,,,0,4,4,1,1,,,,,,,,,,,,,,,,,,,,,,,,,,,,,,,,,,,,,,,,,
484318,001,2022-11-20_23h49.22.813,Info_measure_main_exp,2022.2.2,Win32,60.02040694,,,,,,,,,,,,,,,,,,,,,,,,,,,,,,6,1.0822,1,,,,,,,,,,,,0,131,5,5,2178,2154,absent_patch/patch0002178.jpg,absent_patch/patch0002154.jpg,,,,,,,,,,,,,,,,,,,,0.071614583,0.013020833,1,0,0,response1disk,31,0.002604167,-0.001302083,1,0,0,center_square,0,30,30,63,1,,,,,,,,,,,,,,,,,,,,,,,
484318,001,2022-11-20_23h49.22.813,Info_measure_main_exp,2022.2.2,Win32,60.02040694,,,,,,,,,,,,,,,,,,masks/mask_003.jpg,,,,,,,,,,,,,,,,,,,,,,,,,,,,,,,,,,,,,,,,,,,0,0,0,2,1,,,,,,,,,,,,,,,,,,,,,,,,,,,,,,,,,,,,,,,,,,,,,,
484318,001,2022-11-20_23h49.22.813,Info_measure_main_exp,2022.2.2,Win32,60.02040694,,,,,,,,,,,,,,,,,,masks/mask_001.jpg,,,,,,,,,,,,,,,,,,,,,,,,,,,,,,,,,,,,,,,,,,,0,1,1,0,1,,,,,,,,,,,,,,,,,,,,,,,,,,,,,,,,,,,,,,,,,,,,,,
484318,001,2022-11-20_23h49.22.813,Info_measure_main_exp,2022.2.2,Win32,60.02040694,,,,,,,,,,,,,,,,,,masks/mask_005.jpg,,,,,,,,,,,,,,,,,,,,,,,,,,,,,,,,,,,,,,,,,,,0,2,2,4,1,,,,,,,,,,,,,,,,,,,,,,,,,,,,,,,,,,,,,,,,,,,,,,
484318,001,2022-11-20_23h49.22.813,Info_measure_main_exp,2022.2.2,Win32,60.02040694,,,,,,,,,,,,,,,,,,masks/mask_002.jpg,,,,,,,,,,,,,,,,,,,,,,,,,,,,,,,,,,,,,,,,,,,0,3,3,1,1,,,,,,,,,,,,,,,,,,,,,,,,,,,,,,,,,,,,,,,,,,,,,,
484318,001,2022-11-20_23h49.22.813,Info_measure_main_exp,2022.2.2,Win32,60.02040694,,,,,,,,,,,,,,,,,,masks/mask_004.jpg,,,,,,,,,,,,,,,,,,,,,,,,,,,,,,,,,,,,,,,,,,,0,4,4,3,1,,,,,,,,,,,,,,,,,,,,,,,,,,,,,,,,,,,,,,,,,,,,,,
484318,001,2022-11-20_23h49.22.813,Info_measure_main_exp,2022.2.2,Win32,60.02040694,,,,,,,,,,,,,,,,,,masks/mask_002.jpg,,,,,,,,,,,,,,,,,,,,,,,,,,,,,,,,,,,,,,,,,,,,,,,,0,0,0,1,1,,,,,,,,,,,,,,,,,,,,,,,,,,,,,,,,,,,,,,,,,
484318,001,2022-11-20_23h49.22.813,Info_measure_main_exp,2022.2.2,Win32,60.02040694,,,,,,,,,,,,,,,,,,masks/mask_005.jpg,,,,,,,,,,,,,,,,,,,,,,,,,,,,,,,,,,,,,,,,,,,,,,,,0,1,1,4,1,,,,,,,,,,,,,,,,,,,,,,,,,,,,,,,,,,,,,,,,,
484318,001,2022-11-20_23h49.22.813,Info_measure_main_exp,2022.2.2,Win32,60.02040694,,,,,,,,,,,,,,,,,,masks/mask_001.jpg,,,,,,,,,,,,,,,,,,,,,,,,,,,,,,,,,,,,,,,,,,,,,,,,0,2,2,0,1,,,,,,,,,,,,,,,,,,,,,,,,,,,,,,,,,,,,,,,,,
484318,001,2022-11-20_23h49.22.813,Info_measure_main_exp,2022.2.2,Win32,60.02040694,,,,,,,,,,,,,,,,,,masks/mask_003.jpg,,,,,,,,,,,,,,,,,,,,,,,,,,,,,,,,,,,,,,,,,,,,,,,,0,3,3,2,1,,,,,,,,,,,,,,,,,,,,,,,,,,,,,,,,,,,,,,,,,
484318,001,2022-11-20_23h49.22.813,Info_measure_main_exp,2022.2.2,Win32,60.02040694,,,,,,,,,,,,,,,,,,masks/mask_004.jpg,,,,,,,,,,,,,,,,,,,,,,,,,,,,,,,,,,,,,,,,,,,,,,,,0,4,4,3,1,,,,,,,,,,,,,,,,,,,,,,,,,,,,,,,,,,,,,,,,,
484318,001,2022-11-20_23h49.22.813,Info_measure_main_exp,2022.2.2,Win32,60.02040694,,,,,,,,,,,,,,,,,,,,,,,,,,,,,,5,0.5994,1,,,,,,,,,,,,0,131,5,5,1974,2214,absent_patch/patch0001974.jpg,absent_patch/patch0002214.jpg,,,,,,,,,,,,,,,,,,,,0.05859375,-0.02734375,1,0,0,response3disk,32,-0.005208333,0.009114583,1,0,0,center_square,0,31,31,24,1,,,,,,,,,,,,,,,,,,,,,,,
484318,001,2022-11-20_23h49.22.813,Info_measure_main_exp,2022.2.2,Win32,60.02040694,,,,,,,,,,,,,,,,,,masks/mask_004.jpg,,,,,,,,,,,,,,,,,,,,,,,,,,,,,,,,,,,,,,,,,,,0,0,0,3,1,,,,,,,,,,,,,,,,,,,,,,,,,,,,,,,,,,,,,,,,,,,,,,
484318,001,2022-11-20_23h49.22.813,Info_measure_main_exp,2022.2.2,Win32,60.02040694,,,,,,,,,,,,,,,,,,masks/mask_003.jpg,,,,,,,,,,,,,,,,,,,,,,,,,,,,,,,,,,,,,,,,,,,0,1,1,2,1,,,,,,,,,,,,,,,,,,,,,,,,,,,,,,,,,,,,,,,,,,,,,,
484318,001,2022-11-20_23h49.22.813,Info_measure_main_exp,2022.2.2,Win32,60.02040694,,,,,,,,,,,,,,,,,,masks/mask_002.jpg,,,,,,,,,,,,,,,,,,,,,,,,,,,,,,,,,,,,,,,,,,,0,2,2,1,1,,,,,,,,,,,,,,,,,,,,,,,,,,,,,,,,,,,,,,,,,,,,,,
484318,001,2022-11-20_23h49.22.813,Info_measure_main_exp,2022.2.2,Win32,60.02040694,,,,,,,,,,,,,,,,,,masks/mask_005.jpg,,,,,,,,,,,,,,,,,,,,,,,,,,,,,,,,,,,,,,,,,,,0,3,3,4,1,,,,,,,,,,,,,,,,,,,,,,,,,,,,,,,,,,,,,,,,,,,,,,
484318,001,2022-11-20_23h49.22.813,Info_measure_main_exp,2022.2.2,Win32,60.02040694,,,,,,,,,,,,,,,,,,masks/mask_001.jpg,,,,,,,,,,,,,,,,,,,,,,,,,,,,,,,,,,,,,,,,,,,0,4,4,0,1,,,,,,,,,,,,,,,,,,,,,,,,,,,,,,,,,,,,,,,,,,,,,,
484318,001,2022-11-20_23h49.22.813,Info_measure_main_exp,2022.2.2,Win32,60.02040694,,,,,,,,,,,,,,,,,,masks/mask_004.jpg,,,,,,,,,,,,,,,,,,,,,,,,,,,,,,,,,,,,,,,,,,,,,,,,0,0,0,3,1,,,,,,,,,,,,,,,,,,,,,,,,,,,,,,,,,,,,,,,,,
484318,001,2022-11-20_23h49.22.813,Info_measure_main_exp,2022.2.2,Win32,60.02040694,,,,,,,,,,,,,,,,,,masks/mask_003.jpg,,,,,,,,,,,,,,,,,,,,,,,,,,,,,,,,,,,,,,,,,,,,,,,,0,1,1,2,1,,,,,,,,,,,,,,,,,,,,,,,,,,,,,,,,,,,,,,,,,
484318,001,2022-11-20_23h49.22.813,Info_measure_main_exp,2022.2.2,Win32,60.02040694,,,,,,,,,,,,,,,,,,masks/mask_002.jpg,,,,,,,,,,,,,,,,,,,,,,,,,,,,,,,,,,,,,,,,,,,,,,,,0,2,2,1,1,,,,,,,,,,,,,,,,,,,,,,,,,,,,,,,,,,,,,,,,,
484318,001,2022-11-20_23h49.22.813,Info_measure_main_exp,2022.2.2,Win32,60.02040694,,,,,,,,,,,,,,,,,,masks/mask_005.jpg,,,,,,,,,,,,,,,,,,,,,,,,,,,,,,,,,,,,,,,,,,,,,,,,0,3,3,4,1,,,,,,,,,,,,,,,,,,,,,,,,,,,,,,,,,,,,,,,,,
484318,001,2022-11-20_23h49.22.813,Info_measure_main_exp,2022.2.2,Win32,60.02040694,,,,,,,,,,,,,,,,,,masks/mask_001.jpg,,,,,,,,,,,,,,,,,,,,,,,,,,,,,,,,,,,,,,,,,,,,,,,,0,4,4,0,1,,,,,,,,,,,,,,,,,,,,,,,,,,,,,,,,,,,,,,,,,
484318,001,2022-11-20_23h49.22.813,Info_measure_main_exp,2022.2.2,Win32,60.02040694,,,,,,,,,,,,,,,,,,,,,,,,,,,,,,5,0.566,1,,,,,,,,,,,,0,131,5,5,2190,2166,absent_patch/patch0002190.jpg,absent_patch/patch0002166.jpg,,,,,,,,,,,,,,,,,,,,0.087239583,-0.044270833,1,0,0,response3disk,33,-0.00390625,-0.005208333,1,0,0,center_square,0,32,32,50,1,,,,,,,,,,,,,,,,,,,,,,,
484318,001,2022-11-20_23h49.22.813,Info_measure_main_exp,2022.2.2,Win32,60.02040694,,,,,,,,,,,,,,,,,,masks/mask_001.jpg,,,,,,,,,,,,,,,,,,,,,,,,,,,,,,,,,,,,,,,,,,,0,0,0,0,1,,,,,,,,,,,,,,,,,,,,,,,,,,,,,,,,,,,,,,,,,,,,,,
484318,001,2022-11-20_23h49.22.813,Info_measure_main_exp,2022.2.2,Win32,60.02040694,,,,,,,,,,,,,,,,,,masks/mask_003.jpg,,,,,,,,,,,,,,,,,,,,,,,,,,,,,,,,,,,,,,,,,,,0,1,1,2,1,,,,,,,,,,,,,,,,,,,,,,,,,,,,,,,,,,,,,,,,,,,,,,
484318,001,2022-11-20_23h49.22.813,Info_measure_main_exp,2022.2.2,Win32,60.02040694,,,,,,,,,,,,,,,,,,masks/mask_005.jpg,,,,,,,,,,,,,,,,,,,,,,,,,,,,,,,,,,,,,,,,,,,0,2,2,4,1,,,,,,,,,,,,,,,,,,,,,,,,,,,,,,,,,,,,,,,,,,,,,,
484318,001,2022-11-20_23h49.22.813,Info_measure_main_exp,2022.2.2,Win32,60.02040694,,,,,,,,,,,,,,,,,,masks/mask_002.jpg,,,,,,,,,,,,,,,,,,,,,,,,,,,,,,,,,,,,,,,,,,,0,3,3,1,1,,,,,,,,,,,,,,,,,,,,,,,,,,,,,,,,,,,,,,,,,,,,,,
484318,001,2022-11-20_23h49.22.813,Info_measure_main_exp,2022.2.2,Win32,60.02040694,,,,,,,,,,,,,,,,,,masks/mask_004.jpg,,,,,,,,,,,,,,,,,,,,,,,,,,,,,,,,,,,,,,,,,,,0,4,4,3,1,,,,,,,,,,,,,,,,,,,,,,,,,,,,,,,,,,,,,,,,,,,,,,
484318,001,2022-11-20_23h49.22.813,Info_measure_main_exp,2022.2.2,Win32,60.02040694,,,,,,,,,,,,,,,,,,masks/mask_001.jpg,,,,,,,,,,,,,,,,,,,,,,,,,,,,,,,,,,,,,,,,,,,,,,,,0,0,0,0,1,,,,,,,,,,,,,,,,,,,,,,,,,,,,,,,,,,,,,,,,,
484318,001,2022-11-20_23h49.22.813,Info_measure_main_exp,2022.2.2,Win32,60.02040694,,,,,,,,,,,,,,,,,,masks/mask_004.jpg,,,,,,,,,,,,,,,,,,,,,,,,,,,,,,,,,,,,,,,,,,,,,,,,0,1,1,3,1,,,,,,,,,,,,,,,,,,,,,,,,,,,,,,,,,,,,,,,,,
484318,001,2022-11-20_23h49.22.813,Info_measure_main_exp,2022.2.2,Win32,60.02040694,,,,,,,,,,,,,,,,,,masks/mask_002.jpg,,,,,,,,,,,,,,,,,,,,,,,,,,,,,,,,,,,,,,,,,,,,,,,,0,2,2,1,1,,,,,,,,,,,,,,,,,,,,,,,,,,,,,,,,,,,,,,,,,
484318,001,2022-11-20_23h49.22.813,Info_measure_main_exp,2022.2.2,Win32,60.02040694,,,,,,,,,,,,,,,,,,masks/mask_003.jpg,,,,,,,,,,,,,,,,,,,,,,,,,,,,,,,,,,,,,,,,,,,,,,,,0,3,3,2,1,,,,,,,,,,,,,,,,,,,,,,,,,,,,,,,,,,,,,,,,,
484318,001,2022-11-20_23h49.22.813,Info_measure_main_exp,2022.2.2,Win32,60.02040694,,,,,,,,,,,,,,,,,,masks/mask_005.jpg,,,,,,,,,,,,,,,,,,,,,,,,,,,,,,,,,,,,,,,,,,,,,,,,0,4,4,4,1,,,,,,,,,,,,,,,,,,,,,,,,,,,,,,,,,,,,,,,,,
484318,001,2022-11-20_23h49.22.813,Info_measure_main_exp,2022.2.2,Win32,60.02040694,,,,,,,,,,,,,,,,,,,,,,,,,,,,,,0,0.5995,1,,,,,,,,,,,,0,131,5,5,2190,2190,absent_patch/patch0002190.jpg,absent_patch/patch0002190.jpg,,,,,,,,,,,,,,,,,,,,-0.04296875,0.076822917,1,0,0,response7disk,34,-0.010416667,0.005208333,1,0,0,center_square,0,33,33,86,1,,,,,,,,,,,,,,,,,,,,,,,
484318,001,2022-11-20_23h49.22.813,Info_measure_main_exp,2022.2.2,Win32,60.02040694,,,,,,,,,,,,,,,,,,masks/mask_001.jpg,,,,,,,,,,,,,,,,,,,,,,,,,,,,,,,,,,,,,,,,,,,0,0,0,0,1,,,,,,,,,,,,,,,,,,,,,,,,,,,,,,,,,,,,,,,,,,,,,,
484318,001,2022-11-20_23h49.22.813,Info_measure_main_exp,2022.2.2,Win32,60.02040694,,,,,,,,,,,,,,,,,,masks/mask_005.jpg,,,,,,,,,,,,,,,,,,,,,,,,,,,,,,,,,,,,,,,,,,,0,1,1,4,1,,,,,,,,,,,,,,,,,,,,,,,,,,,,,,,,,,,,,,,,,,,,,,
484318,001,2022-11-20_23h49.22.813,Info_measure_main_exp,2022.2.2,Win32,60.02040694,,,,,,,,,,,,,,,,,,masks/mask_002.jpg,,,,,,,,,,,,,,,,,,,,,,,,,,,,,,,,,,,,,,,,,,,0,2,2,1,1,,,,,,,,,,,,,,,,,,,,,,,,,,,,,,,,,,,,,,,,,,,,,,
484318,001,2022-11-20_23h49.22.813,Info_measure_main_exp,2022.2.2,Win32,60.02040694,,,,,,,,,,,,,,,,,,masks/mask_003.jpg,,,,,,,,,,,,,,,,,,,,,,,,,,,,,,,,,,,,,,,,,,,0,3,3,2,1,,,,,,,,,,,,,,,,,,,,,,,,,,,,,,,,,,,,,,,,,,,,,,
484318,001,2022-11-20_23h49.22.813,Info_measure_main_exp,2022.2.2,Win32,60.02040694,,,,,,,,,,,,,,,,,,masks/mask_004.jpg,,,,,,,,,,,,,,,,,,,,,,,,,,,,,,,,,,,,,,,,,,,0,4,4,3,1,,,,,,,,,,,,,,,,,,,,,,,,,,,,,,,,,,,,,,,,,,,,,,
484318,001,2022-11-20_23h49.22.813,Info_measure_main_exp,2022.2.2,Win32,60.02040694,,,,,,,,,,,,,,,,,,masks/mask_001.jpg,,,,,,,,,,,,,,,,,,,,,,,,,,,,,,,,,,,,,,,,,,,,,,,,0,0,0,0,1,,,,,,,,,,,,,,,,,,,,,,,,,,,,,,,,,,,,,,,,,
484318,001,2022-11-20_23h49.22.813,Info_measure_main_exp,2022.2.2,Win32,60.02040694,,,,,,,,,,,,,,,,,,masks/mask_002.jpg,,,,,,,,,,,,,,,,,,,,,,,,,,,,,,,,,,,,,,,,,,,,,,,,0,1,1,1,1,,,,,,,,,,,,,,,,,,,,,,,,,,,,,,,,,,,,,,,,,
484318,001,2022-11-20_23h49.22.813,Info_measure_main_exp,2022.2.2,Win32,60.02040694,,,,,,,,,,,,,,,,,,masks/mask_003.jpg,,,,,,,,,,,,,,,,,,,,,,,,,,,,,,,,,,,,,,,,,,,,,,,,0,2,2,2,1,,,,,,,,,,,,,,,,,,,,,,,,,,,,,,,,,,,,,,,,,
484318,001,2022-11-20_23h49.22.813,Info_measure_main_exp,2022.2.2,Win32,60.02040694,,,,,,,,,,,,,,,,,,masks/mask_005.jpg,,,,,,,,,,,,,,,,,,,,,,,,,,,,,,,,,,,,,,,,,,,,,,,,0,3,3,4,1,,,,,,,,,,,,,,,,,,,,,,,,,,,,,,,,,,,,,,,,,
