participant,session,date,expName,psychopyVersion,OS,frameRate,space_press_continue.keys,space_press_continue.rt,space_press_continue_2.keys,space_press_continue_2.rt,space_press_continue_3.keys,space_press_continue_3.rt,space_press_continue_4.keys,space_press_continue_4.rt,space_press_continue_5.keys,space_press_continue_5.rt,space_press_continue_6.keys,space_press_continue_6.rt,prac_mask_loop_1.thisRepN,prac_mask_loop_1.thisTrialN,prac_mask_loop_1.thisN,prac_mask_loop_1.thisIndex,prac_mask_loop_1.ran,mask_name,prac_mask_loop_2.thisRepN,prac_mask_loop_2.thisTrialN,prac_mask_loop_2.thisN,prac_mask_loop_2.thisIndex,prac_mask_loop_2.ran,mouse_2.x,mouse_2.y,mouse_2.leftButton,mouse_2.midButton,mouse_2.rightButton,mouse_2.clicked_name,similarity,response_time,Pass,mouse_12.x,mouse_12.y,mouse_12.leftButton,mouse_12.midButton,mouse_12.rightButton,mouse_12.clicked_name,prac_loop.thisRepN,prac_loop.thisTrialN,prac_loop.thisN,prac_loop.thisIndex,prac_loop.ran,Pair_type,Image_num,Patch_1_loc,Patch_2_loc,Patch_1_info,Patch_2_info,Patch_1_name,Patch_2_name,mouse_1.x,mouse_1.y,mouse_1.leftButton,mouse_1.midButton,mouse_1.rightButton,mouse_1.time,mouse_1.clicked_name,space_press_continue_7.keys,space_press_continue_7.rt,mask_loop.thisRepN,mask_loop.thisTrialN,mask_loop.thisN,mask_loop.thisIndex,mask_loop.ran,mask_loop_2.thisRepN,mask_loop_2.thisTrialN,mask_loop_2.thisN,mask_loop_2.thisIndex,mask_loop_2.ran,mouse.x,mouse.y,mouse.leftButton,mouse.midButton,mouse.rightButton,mouse.clicked_name,trialNumber,mouse_11.x,mouse_11.y,mouse_11.leftButton,mouse_11.midButton,mouse_11.rightButton,mouse_11.clicked_name,first_pass_loop.thisRepN,first_pass_loop.thisTrialN,first_pass_loop.thisN,first_pass_loop.thisIndex,first_pass_loop.ran,mask_loop_3.thisRepN,mask_loop_3.thisTrialN,mask_loop_3.thisN,mask_loop_3.thisIndex,mask_loop_3.ran,mask_loop_4.thisRepN,mask_loop_4.thisTrialN,mask_loop_4.thisN,mask_loop_4.thisIndex,mask_loop_4.ran,mouse_3.x,mouse_3.y,mouse_3.leftButton,mouse_3.midButton,mouse_3.rightButton,mouse_3.clicked_name,double_pass_loop.thisRepN,double_pass_loop.thisTrialN,double_pass_loop.thisN,double_pass_loop.thisIndex,double_pass_loop.ran,space_exit.keys,space_exit.rt
490612,001,2022-11-21_24h03.33.563,Info_measure_main_exp,2022.2.2,Linux x86_64,144.2377037,,,,,,,,,,,,,,,,,,,,,,,,,,,,,,,,,,,,,,,,,,,,,,,,,,,,,,,,,,,,,,,,,,,,,,,,,,,,,,,,,,,,,,,,,,,,,,,,,,,,,,,,,,,,,,,
490612,001,2022-11-21_24h03.33.563,Info_measure_main_exp,2022.2.2,Linux x86_64,144.2377037,,,,,,,,,,,,,,,,,,,,,,,,,,,,,,,,,,,,,,,,,,,,,,,,,,,,,,,,,,,,,,,,,,,,,,,,,,,,,,,,,,,,,,,,,,,,,,,,,,,,,,,,,,,,,,,
490612,001,2022-11-21_24h03.33.563,Info_measure_main_exp,2022.2.2,Linux x86_64,144.2377037,space,2.5255,,,,,,,,,,,,,,,,,,,,,,,,,,,,,,,,,,,,,,,,,,,,,,,,,,,,,,,,,,,,,,,,,,,,,,,,,,,,,,,,,,,,,,,,,,,,,,,,,,,,,,,,,,,,,
490612,001,2022-11-21_24h03.33.563,Info_measure_main_exp,2022.2.2,Linux x86_64,144.2377037,,,space,0.7486,,,,,,,,,,,,,,,,,,,,,,,,,,,,,,,,,,,,,,,,,,,,,,,,,,,,,,,,,,,,,,,,,,,,,,,,,,,,,,,,,,,,,,,,,,,,,,,,,,,,,,,,,,,
490612,001,2022-11-21_24h03.33.563,Info_measure_main_exp,2022.2.2,Linux x86_64,144.2377037,,,,,space,0.4334,,,,,,,,,,,,,,,,,,,,,,,,,,,,,,,,,,,,,,,,,,,,,,,,,,,,,,,,,,,,,,,,,,,,,,,,,,,,,,,,,,,,,,,,,,,,,,,,,,,,,,,,,
490612,001,2022-11-21_24h03.33.563,Info_measure_main_exp,2022.2.2,Linux x86_64,144.2377037,,,,,,,space,1.1505,,,,,,,,,,,,,,,,,,,,,,,,,,,,,,,,,,,,,,,,,,,,,,,,,,,,,,,,,,,,,,,,,,,,,,,,,,,,,,,,,,,,,,,,,,,,,,,,,,,,,,,
490612,001,2022-11-21_24h03.33.563,Info_measure_main_exp,2022.2.2,Linux x86_64,144.2377037,,,,,,,,,space,0.3448,,,,,,,,,,,,,,,,,,,,,,,,,,,,,,,,,,,,,,,,,,,,,,,,,,,,,,,,,,,,,,,,,,,,,,,,,,,,,,,,,,,,,,,,,,,,,,,,,,,,,
490612,001,2022-11-21_24h03.33.563,Info_measure_main_exp,2022.2.2,Linux x86_64,144.2377037,,,,,,,,,,,space,0.3806,,,,,,,,,,,,,,,,,,,,,,,,,,,,,,,,,,,,,,,,,,,,,,,,,,,,,,,,,,,,,,,,,,,,,,,,,,,,,,,,,,,,,,,,,,,,,,,,,,,
490612,001,2022-11-21_24h03.33.563,Info_measure_main_exp,2022.2.2,Linux x86_64,144.2377037,,,,,,,,,,,,,0,0,0,0,1,masks/mask_001.jpg,,,,,,,,,,,,,,,,,,,,,,,,,,,,,,,,,,,,,,,,,,,,,,,,,,,,,,,,,,,,,,,,,,,,,,,,,,,,,,,,,,,,,,,,,,,,,
490612,001,2022-11-21_24h03.33.563,Info_measure_main_exp,2022.2.2,Linux x86_64,144.2377037,,,,,,,,,,,,,0,1,1,1,1,masks/mask_002.jpg,,,,,,,,,,,,,,,,,,,,,,,,,,,,,,,,,,,,,,,,,,,,,,,,,,,,,,,,,,,,,,,,,,,,,,,,,,,,,,,,,,,,,,,,,,,,,
490612,001,2022-11-21_24h03.33.563,Info_measure_main_exp,2022.2.2,Linux x86_64,144.2377037,,,,,,,,,,,,,0,2,2,2,1,masks/mask_003.jpg,,,,,,,,,,,,,,,,,,,,,,,,,,,,,,,,,,,,,,,,,,,,,,,,,,,,,,,,,,,,,,,,,,,,,,,,,,,,,,,,,,,,,,,,,,,,,
490612,001,2022-11-21_24h03.33.563,Info_measure_main_exp,2022.2.2,Linux x86_64,144.2377037,,,,,,,,,,,,,0,3,3,4,1,masks/mask_005.jpg,,,,,,,,,,,,,,,,,,,,,,,,,,,,,,,,,,,,,,,,,,,,,,,,,,,,,,,,,,,,,,,,,,,,,,,,,,,,,,,,,,,,,,,,,,,,,
490612,001,2022-11-21_24h03.33.563,Info_measure_main_exp,2022.2.2,Linux x86_64,144.2377037,,,,,,,,,,,,,0,4,4,3,1,masks/mask_004.jpg,,,,,,,,,,,,,,,,,,,,,,,,,,,,,,,,,,,,,,,,,,,,,,,,,,,,,,,,,,,,,,,,,,,,,,,,,,,,,,,,,,,,,,,,,,,,,
490612,001,2022-11-21_24h03.33.563,Info_measure_main_exp,2022.2.2,Linux x86_64,144.2377037,,,,,,,,,,,,,,,,,,masks/mask_003.jpg,0,0,0,2,1,,,,,,,,,,,,,,,,,,,,,,,,,,,,,,,,,,,,,,,,,,,,,,,,,,,,,,,,,,,,,,,,,,,,,,,,,,,,,,,,,,,,,,,,
490612,001,2022-11-21_24h03.33.563,Info_measure_main_exp,2022.2.2,Linux x86_64,144.2377037,,,,,,,,,,,,,,,,,,masks/mask_004.jpg,0,1,1,3,1,,,,,,,,,,,,,,,,,,,,,,,,,,,,,,,,,,,,,,,,,,,,,,,,,,,,,,,,,,,,,,,,,,,,,,,,,,,,,,,,,,,,,,,,
490612,001,2022-11-21_24h03.33.563,Info_measure_main_exp,2022.2.2,Linux x86_64,144.2377037,,,,,,,,,,,,,,,,,,masks/mask_002.jpg,0,2,2,1,1,,,,,,,,,,,,,,,,,,,,,,,,,,,,,,,,,,,,,,,,,,,,,,,,,,,,,,,,,,,,,,,,,,,,,,,,,,,,,,,,,,,,,,,,
490612,001,2022-11-21_24h03.33.563,Info_measure_main_exp,2022.2.2,Linux x86_64,144.2377037,,,,,,,,,,,,,,,,,,masks/mask_005.jpg,0,3,3,4,1,,,,,,,,,,,,,,,,,,,,,,,,,,,,,,,,,,,,,,,,,,,,,,,,,,,,,,,,,,,,,,,,,,,,,,,,,,,,,,,,,,,,,,,,
490612,001,2022-11-21_24h03.33.563,Info_measure_main_exp,2022.2.2,Linux x86_64,144.2377037,,,,,,,,,,,,,,,,,,masks/mask_001.jpg,0,4,4,0,1,,,,,,,,,,,,,,,,,,,,,,,,,,,,,,,,,,,,,,,,,,,,,,,,,,,,,,,,,,,,,,,,,,,,,,,,,,,,,,,,,,,,,,,,
490612,001,2022-11-21_24h03.33.563,Info_measure_main_exp,2022.2.2,Linux x86_64,144.2377037,,,,,,,,,,,,,,,,,,,,,,,,0.042592593,0.10462963,1,0,0,response1disk,7,8.4255,1,0.005555556,0.012037037,1,0,0,center_square,0,0,0,0,1,0,131,5,5,2370,2406,prac_patch/patch0002370.jpg,prac_patch/patch0002406.jpg,,,,,,,,,,,,,,,,,,,,,,,,,,,,,,,,,,,,,,,,,,,,,,,,,,,,,,,,,,,,
490612,001,2022-11-21_24h03.33.563,Info_measure_main_exp,2022.2.2,Linux x86_64,144.2377037,,,,,,,,,,,,,0,0,0,0,1,masks/mask_001.jpg,,,,,,,,,,,,,,,,,,,,,,,,,,,,,,,,,,,,,,,,,,,,,,,,,,,,,,,,,,,,,,,,,,,,,,,,,,,,,,,,,,,,,,,,,,,,,
490612,001,2022-11-21_24h03.33.563,Info_measure_main_exp,2022.2.2,Linux x86_64,144.2377037,,,,,,,,,,,,,0,1,1,3,1,masks/mask_004.jpg,,,,,,,,,,,,,,,,,,,,,,,,,,,,,,,,,,,,,,,,,,,,,,,,,,,,,,,,,,,,,,,,,,,,,,,,,,,,,,,,,,,,,,,,,,,,,
490612,001,2022-11-21_24h03.33.563,Info_measure_main_exp,2022.2.2,Linux x86_64,144.2377037,,,,,,,,,,,,,0,2,2,2,1,masks/mask_003.jpg,,,,,,,,,,,,,,,,,,,,,,,,,,,,,,,,,,,,,,,,,,,,,,,,,,,,,,,,,,,,,,,,,,,,,,,,,,,,,,,,,,,,,,,,,,,,,
490612,001,2022-11-21_24h03.33.563,Info_measure_main_exp,2022.2.2,Linux x86_64,144.2377037,,,,,,,,,,,,,0,3,3,1,1,masks/mask_002.jpg,,,,,,,,,,,,,,,,,,,,,,,,,,,,,,,,,,,,,,,,,,,,,,,,,,,,,,,,,,,,,,,,,,,,,,,,,,,,,,,,,,,,,,,,,,,,,
490612,001,2022-11-21_24h03.33.563,Info_measure_main_exp,2022.2.2,Linux x86_64,144.2377037,,,,,,,,,,,,,0,4,4,4,1,masks/mask_005.jpg,,,,,,,,,,,,,,,,,,,,,,,,,,,,,,,,,,,,,,,,,,,,,,,,,,,,,,,,,,,,,,,,,,,,,,,,,,,,,,,,,,,,,,,,,,,,,
490612,001,2022-11-21_24h03.33.563,Info_measure_main_exp,2022.2.2,Linux x86_64,144.2377037,,,,,,,,,,,,,,,,,,masks/mask_005.jpg,0,0,0,4,1,,,,,,,,,,,,,,,,,,,,,,,,,,,,,,,,,,,,,,,,,,,,,,,,,,,,,,,,,,,,,,,,,,,,,,,,,,,,,,,,,,,,,,,,
490612,001,2022-11-21_24h03.33.563,Info_measure_main_exp,2022.2.2,Linux x86_64,144.2377037,,,,,,,,,,,,,,,,,,masks/mask_002.jpg,0,1,1,1,1,,,,,,,,,,,,,,,,,,,,,,,,,,,,,,,,,,,,,,,,,,,,,,,,,,,,,,,,,,,,,,,,,,,,,,,,,,,,,,,,,,,,,,,,
490612,001,2022-11-21_24h03.33.563,Info_measure_main_exp,2022.2.2,Linux x86_64,144.2377037,,,,,,,,,,,,,,,,,,masks/mask_004.jpg,0,2,2,3,1,,,,,,,,,,,,,,,,,,,,,,,,,,,,,,,,,,,,,,,,,,,,,,,,,,,,,,,,,,,,,,,,,,,,,,,,,,,,,,,,,,,,,,,,
490612,001,2022-11-21_24h03.33.563,Info_measure_main_exp,2022.2.2,Linux x86_64,144.2377037,,,,,,,,,,,,,,,,,,masks/mask_003.jpg,0,3,3,2,1,,,,,,,,,,,,,,,,,,,,,,,,,,,,,,,,,,,,,,,,,,,,,,,,,,,,,,,,,,,,,,,,,,,,,,,,,,,,,,,,,,,,,,,,
490612,001,2022-11-21_24h03.33.563,Info_measure_main_exp,2022.2.2,Linux x86_64,144.2377037,,,,,,,,,,,,,,,,,,masks/mask_001.jpg,0,4,4,0,1,,,,,,,,,,,,,,,,,,,,,,,,,,,,,,,,,,,,,,,,,,,,,,,,,,,,,,,,,,,,,,,,,,,,,,,,,,,,,,,,,,,,,,,,
490612,001,2022-11-21_24h03.33.563,Info_measure_main_exp,2022.2.2,Linux x86_64,144.2377037,,,,,,,,,,,,,,,,,,,,,,,,-0.02962963,0.090740741,1,0,0,response7disk,0,18.7893,1,0.005555556,0.007407407,1,0,0,center_square,0,1,1,2,1,0,131,5,5,2526,2526,prac_patch/patch0002526.jpg,prac_patch/patch0002526.jpg,,,,,,,,,,,,,,,,,,,,,,,,,,,,,,,,,,,,,,,,,,,,,,,,,,,,,,,,,,,,
490612,001,2022-11-21_24h03.33.563,Info_measure_main_exp,2022.2.2,Linux x86_64,144.2377037,,,,,,,,,,,,,0,0,0,4,1,masks/mask_005.jpg,,,,,,,,,,,,,,,,,,,,,,,,,,,,,,,,,,,,,,,,,,,,,,,,,,,,,,,,,,,,,,,,,,,,,,,,,,,,,,,,,,,,,,,,,,,,,
490612,001,2022-11-21_24h03.33.563,Info_measure_main_exp,2022.2.2,Linux x86_64,144.2377037,,,,,,,,,,,,,0,1,1,2,1,masks/mask_003.jpg,,,,,,,,,,,,,,,,,,,,,,,,,,,,,,,,,,,,,,,,,,,,,,,,,,,,,,,,,,,,,,,,,,,,,,,,,,,,,,,,,,,,,,,,,,,,,
490612,001,2022-11-21_24h03.33.563,Info_measure_main_exp,2022.2.2,Linux x86_64,144.2377037,,,,,,,,,,,,,0,2,2,3,1,masks/mask_004.jpg,,,,,,,,,,,,,,,,,,,,,,,,,,,,,,,,,,,,,,,,,,,,,,,,,,,,,,,,,,,,,,,,,,,,,,,,,,,,,,,,,,,,,,,,,,,,,
490612,001,2022-11-21_24h03.33.563,Info_measure_main_exp,2022.2.2,Linux x86_64,144.2377037,,,,,,,,,,,,,0,3,3,1,1,masks/mask_002.jpg,,,,,,,,,,,,,,,,,,,,,,,,,,,,,,,,,,,,,,,,,,,,,,,,,,,,,,,,,,,,,,,,,,,,,,,,,,,,,,,,,,,,,,,,,,,,,
490612,001,2022-11-21_24h03.33.563,Info_measure_main_exp,2022.2.2,Linux x86_64,144.2377037,,,,,,,,,,,,,0,4,4,0,1,masks/mask_001.jpg,,,,,,,,,,,,,,,,,,,,,,,,,,,,,,,,,,,,,,,,,,,,,,,,,,,,,,,,,,,,,,,,,,,,,,,,,,,,,,,,,,,,,,,,,,,,,
490612,001,2022-11-21_24h03.33.563,Info_measure_main_exp,2022.2.2,Linux x86_64,144.2377037,,,,,,,,,,,,,,,,,,masks/mask_003.jpg,0,0,0,2,1,,,,,,,,,,,,,,,,,,,,,,,,,,,,,,,,,,,,,,,,,,,,,,,,,,,,,,,,,,,,,,,,,,,,,,,,,,,,,,,,,,,,,,,,
490612,001,2022-11-21_24h03.33.563,Info_measure_main_exp,2022.2.2,Linux x86_64,144.2377037,,,,,,,,,,,,,,,,,,masks/mask_002.jpg,0,1,1,1,1,,,,,,,,,,,,,,,,,,,,,,,,,,,,,,,,,,,,,,,,,,,,,,,,,,,,,,,,,,,,,,,,,,,,,,,,,,,,,,,,,,,,,,,,
490612,001,2022-11-21_24h03.33.563,Info_measure_main_exp,2022.2.2,Linux x86_64,144.2377037,,,,,,,,,,,,,,,,,,masks/mask_001.jpg,0,2,2,0,1,,,,,,,,,,,,,,,,,,,,,,,,,,,,,,,,,,,,,,,,,,,,,,,,,,,,,,,,,,,,,,,,,,,,,,,,,,,,,,,,,,,,,,,,
490612,001,2022-11-21_24h03.33.563,Info_measure_main_exp,2022.2.2,Linux x86_64,144.2377037,,,,,,,,,,,,,,,,,,masks/mask_004.jpg,0,3,3,3,1,,,,,,,,,,,,,,,,,,,,,,,,,,,,,,,,,,,,,,,,,,,,,,,,,,,,,,,,,,,,,,,,,,,,,,,,,,,,,,,,,,,,,,,,
490612,001,2022-11-21_24h03.33.563,Info_measure_main_exp,2022.2.2,Linux x86_64,144.2377037,,,,,,,,,,,,,,,,,,masks/mask_005.jpg,0,4,4,4,1,,,,,,,,,,,,,,,,,,,,,,,,,,,,,,,,,,,,,,,,,,,,,,,,,,,,,,,,,,,,,,,,,,,,,,,,,,,,,,,,,,,,,,,,
490612,001,2022-11-21_24h03.33.563,Info_measure_main_exp,2022.2.2,Linux x86_64,144.2377037,,,,,,,,,,,,,,,,,,,,,,,,0.026851852,0.055555556,1,0,0,response1disk,7,26.5334,1,-0.009259259,0.010185185,1,0,0,center_square,0,2,2,1,1,0,131,5,5,2514,2490,prac_patch/patch0002514.jpg,prac_patch/patch0002490.jpg,,,,,,,,,,,,,,,,,,,,,,,,,,,,,,,,,,,,,,,,,,,,,,,,,,,,,,,,,,,,
490612,001,2022-11-21_24h03.33.563,Info_measure_main_exp,2022.2.2,Linux x86_64,144.2377037,,,,,,,,,,,,,,,,,,,,,,,,,,,,,,,,,,,,,,,,,,,,,,,,,,,,,,,,,,,space,0.774,,,,,,,,,,,,,,,,,,,,,,,,,,,,,,,,,,,,,,,,,,,,,,,,,,,
490612,001,2022-11-21_24h03.33.563,Info_measure_main_exp,2022.2.2,Linux x86_64,144.2377037,,,,,,,,,,,,,,,,,,masks/mask_002.jpg,,,,,,,,,,,,,,,,,,,,,,,,,,,,,,,,,,,,,,,,,,,0,0,0,1,1,,,,,,,,,,,,,,,,,,,,,,,,,,,,,,,,,,,,,,,,,,,,,,
490612,001,2022-11-21_24h03.33.563,Info_measure_main_exp,2022.2.2,Linux x86_64,144.2377037,,,,,,,,,,,,,,,,,,masks/mask_005.jpg,,,,,,,,,,,,,,,,,,,,,,,,,,,,,,,,,,,,,,,,,,,0,1,1,4,1,,,,,,,,,,,,,,,,,,,,,,,,,,,,,,,,,,,,,,,,,,,,,,
490612,001,2022-11-21_24h03.33.563,Info_measure_main_exp,2022.2.2,Linux x86_64,144.2377037,,,,,,,,,,,,,,,,,,masks/mask_001.jpg,,,,,,,,,,,,,,,,,,,,,,,,,,,,,,,,,,,,,,,,,,,0,2,2,0,1,,,,,,,,,,,,,,,,,,,,,,,,,,,,,,,,,,,,,,,,,,,,,,
490612,001,2022-11-21_24h03.33.563,Info_measure_main_exp,2022.2.2,Linux x86_64,144.2377037,,,,,,,,,,,,,,,,,,masks/mask_003.jpg,,,,,,,,,,,,,,,,,,,,,,,,,,,,,,,,,,,,,,,,,,,0,3,3,2,1,,,,,,,,,,,,,,,,,,,,,,,,,,,,,,,,,,,,,,,,,,,,,,
490612,001,2022-11-21_24h03.33.563,Info_measure_main_exp,2022.2.2,Linux x86_64,144.2377037,,,,,,,,,,,,,,,,,,masks/mask_004.jpg,,,,,,,,,,,,,,,,,,,,,,,,,,,,,,,,,,,,,,,,,,,0,4,4,3,1,,,,,,,,,,,,,,,,,,,,,,,,,,,,,,,,,,,,,,,,,,,,,,
490612,001,2022-11-21_24h03.33.563,Info_measure_main_exp,2022.2.2,Linux x86_64,144.2377037,,,,,,,,,,,,,,,,,,masks/mask_002.jpg,,,,,,,,,,,,,,,,,,,,,,,,,,,,,,,,,,,,,,,,,,,,,,,,0,0,0,1,1,,,,,,,,,,,,,,,,,,,,,,,,,,,,,,,,,,,,,,,,,
490612,001,2022-11-21_24h03.33.563,Info_measure_main_exp,2022.2.2,Linux x86_64,144.2377037,,,,,,,,,,,,,,,,,,masks/mask_003.jpg,,,,,,,,,,,,,,,,,,,,,,,,,,,,,,,,,,,,,,,,,,,,,,,,0,1,1,2,1,,,,,,,,,,,,,,,,,,,,,,,,,,,,,,,,,,,,,,,,,
490612,001,2022-11-21_24h03.33.563,Info_measure_main_exp,2022.2.2,Linux x86_64,144.2377037,,,,,,,,,,,,,,,,,,masks/mask_001.jpg,,,,,,,,,,,,,,,,,,,,,,,,,,,,,,,,,,,,,,,,,,,,,,,,0,2,2,0,1,,,,,,,,,,,,,,,,,,,,,,,,,,,,,,,,,,,,,,,,,
490612,001,2022-11-21_24h03.33.563,Info_measure_main_exp,2022.2.2,Linux x86_64,144.2377037,,,,,,,,,,,,,,,,,,masks/mask_005.jpg,,,,,,,,,,,,,,,,,,,,,,,,,,,,,,,,,,,,,,,,,,,,,,,,0,3,3,4,1,,,,,,,,,,,,,,,,,,,,,,,,,,,,,,,,,,,,,,,,,
490612,001,2022-11-21_24h03.33.563,Info_measure_main_exp,2022.2.2,Linux x86_64,144.2377037,,,,,,,,,,,,,,,,,,masks/mask_004.jpg,,,,,,,,,,,,,,,,,,,,,,,,,,,,,,,,,,,,,,,,,,,,,,,,0,4,4,3,1,,,,,,,,,,,,,,,,,,,,,,,,,,,,,,,,,,,,,,,,,
490612,001,2022-11-21_24h03.33.563,Info_measure_main_exp,2022.2.2,Linux x86_64,144.2377037,,,,,,,,,,,,,,,,,,,,,,,,,,,,,,7,0.7504,1,,,,,,,,,,,,0,131,5,5,1950,2166,absent_patch/patch0001950.jpg,absent_patch/patch0002166.jpg,,,,,,,,,,,,,,,,,,,,0.069444444,0.115740741,1,0,0,response1disk,1,0.009259259,0,1,0,0,center_square,0,0,0,0,1,,,,,,,,,,,,,,,,,,,,,,,
490612,001,2022-11-21_24h03.33.563,Info_measure_main_exp,2022.2.2,Linux x86_64,144.2377037,,,,,,,,,,,,,,,,,,masks/mask_004.jpg,,,,,,,,,,,,,,,,,,,,,,,,,,,,,,,,,,,,,,,,,,,0,0,0,3,1,,,,,,,,,,,,,,,,,,,,,,,,,,,,,,,,,,,,,,,,,,,,,,
490612,001,2022-11-21_24h03.33.563,Info_measure_main_exp,2022.2.2,Linux x86_64,144.2377037,,,,,,,,,,,,,,,,,,masks/mask_001.jpg,,,,,,,,,,,,,,,,,,,,,,,,,,,,,,,,,,,,,,,,,,,0,1,1,0,1,,,,,,,,,,,,,,,,,,,,,,,,,,,,,,,,,,,,,,,,,,,,,,
490612,001,2022-11-21_24h03.33.563,Info_measure_main_exp,2022.2.2,Linux x86_64,144.2377037,,,,,,,,,,,,,,,,,,masks/mask_003.jpg,,,,,,,,,,,,,,,,,,,,,,,,,,,,,,,,,,,,,,,,,,,0,2,2,2,1,,,,,,,,,,,,,,,,,,,,,,,,,,,,,,,,,,,,,,,,,,,,,,
490612,001,2022-11-21_24h03.33.563,Info_measure_main_exp,2022.2.2,Linux x86_64,144.2377037,,,,,,,,,,,,,,,,,,masks/mask_002.jpg,,,,,,,,,,,,,,,,,,,,,,,,,,,,,,,,,,,,,,,,,,,0,3,3,1,1,,,,,,,,,,,,,,,,,,,,,,,,,,,,,,,,,,,,,,,,,,,,,,
490612,001,2022-11-21_24h03.33.563,Info_measure_main_exp,2022.2.2,Linux x86_64,144.2377037,,,,,,,,,,,,,,,,,,masks/mask_005.jpg,,,,,,,,,,,,,,,,,,,,,,,,,,,,,,,,,,,,,,,,,,,0,4,4,4,1,,,,,,,,,,,,,,,,,,,,,,,,,,,,,,,,,,,,,,,,,,,,,,
490612,001,2022-11-21_24h03.33.563,Info_measure_main_exp,2022.2.2,Linux x86_64,144.2377037,,,,,,,,,,,,,,,,,,masks/mask_003.jpg,,,,,,,,,,,,,,,,,,,,,,,,,,,,,,,,,,,,,,,,,,,,,,,,0,0,0,2,1,,,,,,,,,,,,,,,,,,,,,,,,,,,,,,,,,,,,,,,,,
490612,001,2022-11-21_24h03.33.563,Info_measure_main_exp,2022.2.2,Linux x86_64,144.2377037,,,,,,,,,,,,,,,,,,masks/mask_005.jpg,,,,,,,,,,,,,,,,,,,,,,,,,,,,,,,,,,,,,,,,,,,,,,,,0,1,1,4,1,,,,,,,,,,,,,,,,,,,,,,,,,,,,,,,,,,,,,,,,,
490612,001,2022-11-21_24h03.33.563,Info_measure_main_exp,2022.2.2,Linux x86_64,144.2377037,,,,,,,,,,,,,,,,,,masks/mask_002.jpg,,,,,,,,,,,,,,,,,,,,,,,,,,,,,,,,,,,,,,,,,,,,,,,,0,2,2,1,1,,,,,,,,,,,,,,,,,,,,,,,,,,,,,,,,,,,,,,,,,
490612,001,2022-11-21_24h03.33.563,Info_measure_main_exp,2022.2.2,Linux x86_64,144.2377037,,,,,,,,,,,,,,,,,,masks/mask_001.jpg,,,,,,,,,,,,,,,,,,,,,,,,,,,,,,,,,,,,,,,,,,,,,,,,0,3,3,0,1,,,,,,,,,,,,,,,,,,,,,,,,,,,,,,,,,,,,,,,,,
490612,001,2022-11-21_24h03.33.563,Info_measure_main_exp,2022.2.2,Linux x86_64,144.2377037,,,,,,,,,,,,,,,,,,masks/mask_004.jpg,,,,,,,,,,,,,,,,,,,,,,,,,,,,,,,,,,,,,,,,,,,,,,,,0,4,4,3,1,,,,,,,,,,,,,,,,,,,,,,,,,,,,,,,,,,,,,,,,,
490612,001,2022-11-21_24h03.33.563,Info_measure_main_exp,2022.2.2,Linux x86_64,144.2377037,,,,,,,,,,,,,,,,,,,,,,,,,,,,,,7,0.4308,1,,,,,,,,,,,,0,131,5,5,2190,2250,absent_patch/patch0002190.jpg,absent_patch/patch0002250.jpg,,,,,,,,,,,,,,,,,,,,0.019444444,0.044444444,1,0,0,response1disk,2,-0.013888889,-0.001851852,1,0,0,center_square,0,1,1,93,1,,,,,,,,,,,,,,,,,,,,,,,
490612,001,2022-11-21_24h03.33.563,Info_measure_main_exp,2022.2.2,Linux x86_64,144.2377037,,,,,,,,,,,,,,,,,,masks/mask_001.jpg,,,,,,,,,,,,,,,,,,,,,,,,,,,,,,,,,,,,,,,,,,,0,0,0,0,1,,,,,,,,,,,,,,,,,,,,,,,,,,,,,,,,,,,,,,,,,,,,,,
490612,001,2022-11-21_24h03.33.563,Info_measure_main_exp,2022.2.2,Linux x86_64,144.2377037,,,,,,,,,,,,,,,,,,masks/mask_005.jpg,,,,,,,,,,,,,,,,,,,,,,,,,,,,,,,,,,,,,,,,,,,0,1,1,4,1,,,,,,,,,,,,,,,,,,,,,,,,,,,,,,,,,,,,,,,,,,,,,,
490612,001,2022-11-21_24h03.33.563,Info_measure_main_exp,2022.2.2,Linux x86_64,144.2377037,,,,,,,,,,,,,,,,,,masks/mask_002.jpg,,,,,,,,,,,,,,,,,,,,,,,,,,,,,,,,,,,,,,,,,,,0,2,2,1,1,,,,,,,,,,,,,,,,,,,,,,,,,,,,,,,,,,,,,,,,,,,,,,
490612,001,2022-11-21_24h03.33.563,Info_measure_main_exp,2022.2.2,Linux x86_64,144.2377037,,,,,,,,,,,,,,,,,,masks/mask_004.jpg,,,,,,,,,,,,,,,,,,,,,,,,,,,,,,,,,,,,,,,,,,,0,3,3,3,1,,,,,,,,,,,,,,,,,,,,,,,,,,,,,,,,,,,,,,,,,,,,,,
490612,001,2022-11-21_24h03.33.563,Info_measure_main_exp,2022.2.2,Linux x86_64,144.2377037,,,,,,,,,,,,,,,,,,masks/mask_003.jpg,,,,,,,,,,,,,,,,,,,,,,,,,,,,,,,,,,,,,,,,,,,0,4,4,2,1,,,,,,,,,,,,,,,,,,,,,,,,,,,,,,,,,,,,,,,,,,,,,,
490612,001,2022-11-21_24h03.33.563,Info_measure_main_exp,2022.2.2,Linux x86_64,144.2377037,,,,,,,,,,,,,,,,,,masks/mask_004.jpg,,,,,,,,,,,,,,,,,,,,,,,,,,,,,,,,,,,,,,,,,,,,,,,,0,0,0,3,1,,,,,,,,,,,,,,,,,,,,,,,,,,,,,,,,,,,,,,,,,
490612,001,2022-11-21_24h03.33.563,Info_measure_main_exp,2022.2.2,Linux x86_64,144.2377037,,,,,,,,,,,,,,,,,,masks/mask_005.jpg,,,,,,,,,,,,,,,,,,,,,,,,,,,,,,,,,,,,,,,,,,,,,,,,0,1,1,4,1,,,,,,,,,,,,,,,,,,,,,,,,,,,,,,,,,,,,,,,,,
490612,001,2022-11-21_24h03.33.563,Info_measure_main_exp,2022.2.2,Linux x86_64,144.2377037,,,,,,,,,,,,,,,,,,masks/mask_001.jpg,,,,,,,,,,,,,,,,,,,,,,,,,,,,,,,,,,,,,,,,,,,,,,,,0,2,2,0,1,,,,,,,,,,,,,,,,,,,,,,,,,,,,,,,,,,,,,,,,,
490612,001,2022-11-21_24h03.33.563,Info_measure_main_exp,2022.2.2,Linux x86_64,144.2377037,,,,,,,,,,,,,,,,,,masks/mask_002.jpg,,,,,,,,,,,,,,,,,,,,,,,,,,,,,,,,,,,,,,,,,,,,,,,,0,3,3,1,1,,,,,,,,,,,,,,,,,,,,,,,,,,,,,,,,,,,,,,,,,
490612,001,2022-11-21_24h03.33.563,Info_measure_main_exp,2022.2.2,Linux x86_64,144.2377037,,,,,,,,,,,,,,,,,,masks/mask_003.jpg,,,,,,,,,,,,,,,,,,,,,,,,,,,,,,,,,,,,,,,,,,,,,,,,0,4,4,2,1,,,,,,,,,,,,,,,,,,,,,,,,,,,,,,,,,,,,,,,,,
490612,001,2022-11-21_24h03.33.563,Info_measure_main_exp,2022.2.2,Linux x86_64,144.2377037,,,,,,,,,,,,,,,,,,,,,,,,,,,,,,7,0.3656,1,,,,,,,,,,,,0,131,5,5,2166,2298,absent_patch/patch0002166.jpg,absent_patch/patch0002298.jpg,,,,,,,,,,,,,,,,,,,,0.017592593,0.030555556,1,0,0,response1disk,3,0.009259259,0.006481481,1,0,0,center_square,0,2,2,52,1,,,,,,,,,,,,,,,,,,,,,,,
490612,001,2022-11-21_24h03.33.563,Info_measure_main_exp,2022.2.2,Linux x86_64,144.2377037,,,,,,,,,,,,,,,,,,masks/mask_004.jpg,,,,,,,,,,,,,,,,,,,,,,,,,,,,,,,,,,,,,,,,,,,0,0,0,3,1,,,,,,,,,,,,,,,,,,,,,,,,,,,,,,,,,,,,,,,,,,,,,,
490612,001,2022-11-21_24h03.33.563,Info_measure_main_exp,2022.2.2,Linux x86_64,144.2377037,,,,,,,,,,,,,,,,,,masks/mask_003.jpg,,,,,,,,,,,,,,,,,,,,,,,,,,,,,,,,,,,,,,,,,,,0,1,1,2,1,,,,,,,,,,,,,,,,,,,,,,,,,,,,,,,,,,,,,,,,,,,,,,
490612,001,2022-11-21_24h03.33.563,Info_measure_main_exp,2022.2.2,Linux x86_64,144.2377037,,,,,,,,,,,,,,,,,,masks/mask_001.jpg,,,,,,,,,,,,,,,,,,,,,,,,,,,,,,,,,,,,,,,,,,,0,2,2,0,1,,,,,,,,,,,,,,,,,,,,,,,,,,,,,,,,,,,,,,,,,,,,,,
490612,001,2022-11-21_24h03.33.563,Info_measure_main_exp,2022.2.2,Linux x86_64,144.2377037,,,,,,,,,,,,,,,,,,masks/mask_005.jpg,,,,,,,,,,,,,,,,,,,,,,,,,,,,,,,,,,,,,,,,,,,0,3,3,4,1,,,,,,,,,,,,,,,,,,,,,,,,,,,,,,,,,,,,,,,,,,,,,,
490612,001,2022-11-21_24h03.33.563,Info_measure_main_exp,2022.2.2,Linux x86_64,144.2377037,,,,,,,,,,,,,,,,,,masks/mask_002.jpg,,,,,,,,,,,,,,,,,,,,,,,,,,,,,,,,,,,,,,,,,,,0,4,4,1,1,,,,,,,,,,,,,,,,,,,,,,,,,,,,,,,,,,,,,,,,,,,,,,
490612,001,2022-11-21_24h03.33.563,Info_measure_main_exp,2022.2.2,Linux x86_64,144.2377037,,,,,,,,,,,,,,,,,,masks/mask_002.jpg,,,,,,,,,,,,,,,,,,,,,,,,,,,,,,,,,,,,,,,,,,,,,,,,0,0,0,1,1,,,,,,,,,,,,,,,,,,,,,,,,,,,,,,,,,,,,,,,,,
490612,001,2022-11-21_24h03.33.563,Info_measure_main_exp,2022.2.2,Linux x86_64,144.2377037,,,,,,,,,,,,,,,,,,masks/mask_005.jpg,,,,,,,,,,,,,,,,,,,,,,,,,,,,,,,,,,,,,,,,,,,,,,,,0,1,1,4,1,,,,,,,,,,,,,,,,,,,,,,,,,,,,,,,,,,,,,,,,,
490612,001,2022-11-21_24h03.33.563,Info_measure_main_exp,2022.2.2,Linux x86_64,144.2377037,,,,,,,,,,,,,,,,,,masks/mask_001.jpg,,,,,,,,,,,,,,,,,,,,,,,,,,,,,,,,,,,,,,,,,,,,,,,,0,2,2,0,1,,,,,,,,,,,,,,,,,,,,,,,,,,,,,,,,,,,,,,,,,
490612,001,2022-11-21_24h03.33.563,Info_measure_main_exp,2022.2.2,Linux x86_64,144.2377037,,,,,,,,,,,,,,,,,,masks/mask_004.jpg,,,,,,,,,,,,,,,,,,,,,,,,,,,,,,,,,,,,,,,,,,,,,,,,0,3,3,3,1,,,,,,,,,,,,,,,,,,,,,,,,,,,,,,,,,,,,,,,,,
490612,001,2022-11-21_24h03.33.563,Info_measure_main_exp,2022.2.2,Linux x86_64,144.2377037,,,,,,,,,,,,,,,,,,masks/mask_003.jpg,,,,,,,,,,,,,,,,,,,,,,,,,,,,,,,,,,,,,,,,,,,,,,,,0,4,4,2,1,,,,,,,,,,,,,,,,,,,,,,,,,,,,,,,,,,,,,,,,,
490612,001,2022-11-21_24h03.33.563,Info_measure_main_exp,2022.2.2,Linux x86_64,144.2377037,,,,,,,,,,,,,,,,,,,,,,,,,,,,,,7,0.3886,1,,,,,,,,,,,,0,131,5,5,2250,2178,absent_patch/patch0002250.jpg,absent_patch/patch0002178.jpg,,,,,,,,,,,,,,,,,,,,0.015740741,0.024074074,1,0,0,response1disk,4,0.007407407,0.001851852,1,0,0,center_square,0,3,3,48,1,,,,,,,,,,,,,,,,,,,,,,,
490612,001,2022-11-21_24h03.33.563,Info_measure_main_exp,2022.2.2,Linux x86_64,144.2377037,,,,,,,,,,,,,,,,,,masks/mask_003.jpg,,,,,,,,,,,,,,,,,,,,,,,,,,,,,,,,,,,,,,,,,,,0,0,0,2,1,,,,,,,,,,,,,,,,,,,,,,,,,,,,,,,,,,,,,,,,,,,,,,
490612,001,2022-11-21_24h03.33.563,Info_measure_main_exp,2022.2.2,Linux x86_64,144.2377037,,,,,,,,,,,,,,,,,,masks/mask_005.jpg,,,,,,,,,,,,,,,,,,,,,,,,,,,,,,,,,,,,,,,,,,,0,1,1,4,1,,,,,,,,,,,,,,,,,,,,,,,,,,,,,,,,,,,,,,,,,,,,,,
490612,001,2022-11-21_24h03.33.563,Info_measure_main_exp,2022.2.2,Linux x86_64,144.2377037,,,,,,,,,,,,,,,,,,masks/mask_004.jpg,,,,,,,,,,,,,,,,,,,,,,,,,,,,,,,,,,,,,,,,,,,0,2,2,3,1,,,,,,,,,,,,,,,,,,,,,,,,,,,,,,,,,,,,,,,,,,,,,,
490612,001,2022-11-21_24h03.33.563,Info_measure_main_exp,2022.2.2,Linux x86_64,144.2377037,,,,,,,,,,,,,,,,,,masks/mask_002.jpg,,,,,,,,,,,,,,,,,,,,,,,,,,,,,,,,,,,,,,,,,,,0,3,3,1,1,,,,,,,,,,,,,,,,,,,,,,,,,,,,,,,,,,,,,,,,,,,,,,
490612,001,2022-11-21_24h03.33.563,Info_measure_main_exp,2022.2.2,Linux x86_64,144.2377037,,,,,,,,,,,,,,,,,,masks/mask_001.jpg,,,,,,,,,,,,,,,,,,,,,,,,,,,,,,,,,,,,,,,,,,,0,4,4,0,1,,,,,,,,,,,,,,,,,,,,,,,,,,,,,,,,,,,,,,,,,,,,,,
490612,001,2022-11-21_24h03.33.563,Info_measure_main_exp,2022.2.2,Linux x86_64,144.2377037,,,,,,,,,,,,,,,,,,masks/mask_004.jpg,,,,,,,,,,,,,,,,,,,,,,,,,,,,,,,,,,,,,,,,,,,,,,,,0,0,0,3,1,,,,,,,,,,,,,,,,,,,,,,,,,,,,,,,,,,,,,,,,,
490612,001,2022-11-21_24h03.33.563,Info_measure_main_exp,2022.2.2,Linux x86_64,144.2377037,,,,,,,,,,,,,,,,,,masks/mask_003.jpg,,,,,,,,,,,,,,,,,,,,,,,,,,,,,,,,,,,,,,,,,,,,,,,,0,1,1,2,1,,,,,,,,,,,,,,,,,,,,,,,,,,,,,,,,,,,,,,,,,
490612,001,2022-11-21_24h03.33.563,Info_measure_main_exp,2022.2.2,Linux x86_64,144.2377037,,,,,,,,,,,,,,,,,,masks/mask_001.jpg,,,,,,,,,,,,,,,,,,,,,,,,,,,,,,,,,,,,,,,,,,,,,,,,0,2,2,0,1,,,,,,,,,,,,,,,,,,,,,,,,,,,,,,,,,,,,,,,,,
490612,001,2022-11-21_24h03.33.563,Info_measure_main_exp,2022.2.2,Linux x86_64,144.2377037,,,,,,,,,,,,,,,,,,masks/mask_002.jpg,,,,,,,,,,,,,,,,,,,,,,,,,,,,,,,,,,,,,,,,,,,,,,,,0,3,3,1,1,,,,,,,,,,,,,,,,,,,,,,,,,,,,,,,,,,,,,,,,,
490612,001,2022-11-21_24h03.33.563,Info_measure_main_exp,2022.2.2,Linux x86_64,144.2377037,,,,,,,,,,,,,,,,,,masks/mask_005.jpg,,,,,,,,,,,,,,,,,,,,,,,,,,,,,,,,,,,,,,,,,,,,,,,,0,4,4,4,1,,,,,,,,,,,,,,,,,,,,,,,,,,,,,,,,,,,,,,,,,
490612,001,2022-11-21_24h03.33.563,Info_measure_main_exp,2022.2.2,Linux x86_64,144.2377037,,,,,,,,,,,,,,,,,,,,,,,,,,,,,,7,0.8001,1,,,,,,,,,,,,1,131,5,5,1,2214,present_patch/cong_131_5_a.jpg,absent_patch/patch0002214.jpg,,,,,,,,,,,,,,,,,,,,0.011111111,0.028703704,1,0,0,response1disk,5,0.010185185,0.006481481,1,0,0,center_square,0,4,4,4,1,,,,,,,,,,,,,,,,,,,,,,,
490612,001,2022-11-21_24h03.33.563,Info_measure_main_exp,2022.2.2,Linux x86_64,144.2377037,,,,,,,,,,,,,,,,,,masks/mask_002.jpg,,,,,,,,,,,,,,,,,,,,,,,,,,,,,,,,,,,,,,,,,,,0,0,0,1,1,,,,,,,,,,,,,,,,,,,,,,,,,,,,,,,,,,,,,,,,,,,,,,
490612,001,2022-11-21_24h03.33.563,Info_measure_main_exp,2022.2.2,Linux x86_64,144.2377037,,,,,,,,,,,,,,,,,,masks/mask_001.jpg,,,,,,,,,,,,,,,,,,,,,,,,,,,,,,,,,,,,,,,,,,,0,1,1,0,1,,,,,,,,,,,,,,,,,,,,,,,,,,,,,,,,,,,,,,,,,,,,,,
490612,001,2022-11-21_24h03.33.563,Info_measure_main_exp,2022.2.2,Linux x86_64,144.2377037,,,,,,,,,,,,,,,,,,masks/mask_005.jpg,,,,,,,,,,,,,,,,,,,,,,,,,,,,,,,,,,,,,,,,,,,0,2,2,4,1,,,,,,,,,,,,,,,,,,,,,,,,,,,,,,,,,,,,,,,,,,,,,,
490612,001,2022-11-21_24h03.33.563,Info_measure_main_exp,2022.2.2,Linux x86_64,144.2377037,,,,,,,,,,,,,,,,,,masks/mask_003.jpg,,,,,,,,,,,,,,,,,,,,,,,,,,,,,,,,,,,,,,,,,,,0,3,3,2,1,,,,,,,,,,,,,,,,,,,,,,,,,,,,,,,,,,,,,,,,,,,,,,
490612,001,2022-11-21_24h03.33.563,Info_measure_main_exp,2022.2.2,Linux x86_64,144.2377037,,,,,,,,,,,,,,,,,,masks/mask_004.jpg,,,,,,,,,,,,,,,,,,,,,,,,,,,,,,,,,,,,,,,,,,,0,4,4,3,1,,,,,,,,,,,,,,,,,,,,,,,,,,,,,,,,,,,,,,,,,,,,,,
490612,001,2022-11-21_24h03.33.563,Info_measure_main_exp,2022.2.2,Linux x86_64,144.2377037,,,,,,,,,,,,,,,,,,masks/mask_002.jpg,,,,,,,,,,,,,,,,,,,,,,,,,,,,,,,,,,,,,,,,,,,,,,,,0,0,0,1,1,,,,,,,,,,,,,,,,,,,,,,,,,,,,,,,,,,,,,,,,,
490612,001,2022-11-21_24h03.33.563,Info_measure_main_exp,2022.2.2,Linux x86_64,144.2377037,,,,,,,,,,,,,,,,,,masks/mask_005.jpg,,,,,,,,,,,,,,,,,,,,,,,,,,,,,,,,,,,,,,,,,,,,,,,,0,1,1,4,1,,,,,,,,,,,,,,,,,,,,,,,,,,,,,,,,,,,,,,,,,
490612,001,2022-11-21_24h03.33.563,Info_measure_main_exp,2022.2.2,Linux x86_64,144.2377037,,,,,,,,,,,,,,,,,,masks/mask_003.jpg,,,,,,,,,,,,,,,,,,,,,,,,,,,,,,,,,,,,,,,,,,,,,,,,0,2,2,2,1,,,,,,,,,,,,,,,,,,,,,,,,,,,,,,,,,,,,,,,,,
490612,001,2022-11-21_24h03.33.563,Info_measure_main_exp,2022.2.2,Linux x86_64,144.2377037,,,,,,,,,,,,,,,,,,masks/mask_004.jpg,,,,,,,,,,,,,,,,,,,,,,,,,,,,,,,,,,,,,,,,,,,,,,,,0,3,3,3,1,,,,,,,,,,,,,,,,,,,,,,,,,,,,,,,,,,,,,,,,,
490612,001,2022-11-21_24h03.33.563,Info_measure_main_exp,2022.2.2,Linux x86_64,144.2377037,,,,,,,,,,,,,,,,,,masks/mask_001.jpg,,,,,,,,,,,,,,,,,,,,,,,,,,,,,,,,,,,,,,,,,,,,,,,,0,4,4,0,1,,,,,,,,,,,,,,,,,,,,,,,,,,,,,,,,,,,,,,,,,
490612,001,2022-11-21_24h03.33.563,Info_measure_main_exp,2022.2.2,Linux x86_64,144.2377037,,,,,,,,,,,,,,,,,,,,,,,,,,,,,,7,0.5655,1,,,,,,,,,,,,0,131,5,5,2178,1986,absent_patch/patch0002178.jpg,absent_patch/patch0001986.jpg,,,,,,,,,,,,,,,,,,,,0.015740741,0.028703704,1,0,0,response1disk,6,-0.002777778,0.008333333,1,0,0,center_square,0,5,5,46,1,,,,,,,,,,,,,,,,,,,,,,,
490612,001,2022-11-21_24h03.33.563,Info_measure_main_exp,2022.2.2,Linux x86_64,144.2377037,,,,,,,,,,,,,,,,,,masks/mask_002.jpg,,,,,,,,,,,,,,,,,,,,,,,,,,,,,,,,,,,,,,,,,,,0,0,0,1,1,,,,,,,,,,,,,,,,,,,,,,,,,,,,,,,,,,,,,,,,,,,,,,
490612,001,2022-11-21_24h03.33.563,Info_measure_main_exp,2022.2.2,Linux x86_64,144.2377037,,,,,,,,,,,,,,,,,,masks/mask_001.jpg,,,,,,,,,,,,,,,,,,,,,,,,,,,,,,,,,,,,,,,,,,,0,1,1,0,1,,,,,,,,,,,,,,,,,,,,,,,,,,,,,,,,,,,,,,,,,,,,,,
490612,001,2022-11-21_24h03.33.563,Info_measure_main_exp,2022.2.2,Linux x86_64,144.2377037,,,,,,,,,,,,,,,,,,masks/mask_003.jpg,,,,,,,,,,,,,,,,,,,,,,,,,,,,,,,,,,,,,,,,,,,0,2,2,2,1,,,,,,,,,,,,,,,,,,,,,,,,,,,,,,,,,,,,,,,,,,,,,,
490612,001,2022-11-21_24h03.33.563,Info_measure_main_exp,2022.2.2,Linux x86_64,144.2377037,,,,,,,,,,,,,,,,,,masks/mask_004.jpg,,,,,,,,,,,,,,,,,,,,,,,,,,,,,,,,,,,,,,,,,,,0,3,3,3,1,,,,,,,,,,,,,,,,,,,,,,,,,,,,,,,,,,,,,,,,,,,,,,
490612,001,2022-11-21_24h03.33.563,Info_measure_main_exp,2022.2.2,Linux x86_64,144.2377037,,,,,,,,,,,,,,,,,,masks/mask_005.jpg,,,,,,,,,,,,,,,,,,,,,,,,,,,,,,,,,,,,,,,,,,,0,4,4,4,1,,,,,,,,,,,,,,,,,,,,,,,,,,,,,,,,,,,,,,,,,,,,,,
490612,001,2022-11-21_24h03.33.563,Info_measure_main_exp,2022.2.2,Linux x86_64,144.2377037,,,,,,,,,,,,,,,,,,masks/mask_001.jpg,,,,,,,,,,,,,,,,,,,,,,,,,,,,,,,,,,,,,,,,,,,,,,,,0,0,0,0,1,,,,,,,,,,,,,,,,,,,,,,,,,,,,,,,,,,,,,,,,,
490612,001,2022-11-21_24h03.33.563,Info_measure_main_exp,2022.2.2,Linux x86_64,144.2377037,,,,,,,,,,,,,,,,,,masks/mask_005.jpg,,,,,,,,,,,,,,,,,,,,,,,,,,,,,,,,,,,,,,,,,,,,,,,,0,1,1,4,1,,,,,,,,,,,,,,,,,,,,,,,,,,,,,,,,,,,,,,,,,
490612,001,2022-11-21_24h03.33.563,Info_measure_main_exp,2022.2.2,Linux x86_64,144.2377037,,,,,,,,,,,,,,,,,,masks/mask_004.jpg,,,,,,,,,,,,,,,,,,,,,,,,,,,,,,,,,,,,,,,,,,,,,,,,0,2,2,3,1,,,,,,,,,,,,,,,,,,,,,,,,,,,,,,,,,,,,,,,,,
490612,001,2022-11-21_24h03.33.563,Info_measure_main_exp,2022.2.2,Linux x86_64,144.2377037,,,,,,,,,,,,,,,,,,masks/mask_002.jpg,,,,,,,,,,,,,,,,,,,,,,,,,,,,,,,,,,,,,,,,,,,,,,,,0,3,3,1,1,,,,,,,,,,,,,,,,,,,,,,,,,,,,,,,,,,,,,,,,,
490612,001,2022-11-21_24h03.33.563,Info_measure_main_exp,2022.2.2,Linux x86_64,144.2377037,,,,,,,,,,,,,,,,,,masks/mask_003.jpg,,,,,,,,,,,,,,,,,,,,,,,,,,,,,,,,,,,,,,,,,,,,,,,,0,4,4,2,1,,,,,,,,,,,,,,,,,,,,,,,,,,,,,,,,,,,,,,,,,
490612,001,2022-11-21_24h03.33.563,Info_measure_main_exp,2022.2.2,Linux x86_64,144.2377037,,,,,,,,,,,,,,,,,,,,,,,,,,,,,,7,0.5082,1,,,,,,,,,,,,0,131,5,5,1974,2178,absent_patch/patch0001974.jpg,absent_patch/patch0002178.jpg,,,,,,,,,,,,,,,,,,,,0.008333333,0.019444444,1,0,0,response1disk,7,0.006481481,0.012037037,1,0,0,center_square,0,6,6,44,1,,,,,,,,,,,,,,,,,,,,,,,
490612,001,2022-11-21_24h03.33.563,Info_measure_main_exp,2022.2.2,Linux x86_64,144.2377037,,,,,,,,,,,,,,,,,,masks/mask_004.jpg,,,,,,,,,,,,,,,,,,,,,,,,,,,,,,,,,,,,,,,,,,,0,0,0,3,1,,,,,,,,,,,,,,,,,,,,,,,,,,,,,,,,,,,,,,,,,,,,,,
490612,001,2022-11-21_24h03.33.563,Info_measure_main_exp,2022.2.2,Linux x86_64,144.2377037,,,,,,,,,,,,,,,,,,masks/mask_002.jpg,,,,,,,,,,,,,,,,,,,,,,,,,,,,,,,,,,,,,,,,,,,0,1,1,1,1,,,,,,,,,,,,,,,,,,,,,,,,,,,,,,,,,,,,,,,,,,,,,,
490612,001,2022-11-21_24h03.33.563,Info_measure_main_exp,2022.2.2,Linux x86_64,144.2377037,,,,,,,,,,,,,,,,,,masks/mask_003.jpg,,,,,,,,,,,,,,,,,,,,,,,,,,,,,,,,,,,,,,,,,,,0,2,2,2,1,,,,,,,,,,,,,,,,,,,,,,,,,,,,,,,,,,,,,,,,,,,,,,
490612,001,2022-11-21_24h03.33.563,Info_measure_main_exp,2022.2.2,Linux x86_64,144.2377037,,,,,,,,,,,,,,,,,,masks/mask_005.jpg,,,,,,,,,,,,,,,,,,,,,,,,,,,,,,,,,,,,,,,,,,,0,3,3,4,1,,,,,,,,,,,,,,,,,,,,,,,,,,,,,,,,,,,,,,,,,,,,,,
490612,001,2022-11-21_24h03.33.563,Info_measure_main_exp,2022.2.2,Linux x86_64,144.2377037,,,,,,,,,,,,,,,,,,masks/mask_001.jpg,,,,,,,,,,,,,,,,,,,,,,,,,,,,,,,,,,,,,,,,,,,0,4,4,0,1,,,,,,,,,,,,,,,,,,,,,,,,,,,,,,,,,,,,,,,,,,,,,,
490612,001,2022-11-21_24h03.33.563,Info_measure_main_exp,2022.2.2,Linux x86_64,144.2377037,,,,,,,,,,,,,,,,,,masks/mask_005.jpg,,,,,,,,,,,,,,,,,,,,,,,,,,,,,,,,,,,,,,,,,,,,,,,,0,0,0,4,1,,,,,,,,,,,,,,,,,,,,,,,,,,,,,,,,,,,,,,,,,
490612,001,2022-11-21_24h03.33.563,Info_measure_main_exp,2022.2.2,Linux x86_64,144.2377037,,,,,,,,,,,,,,,,,,masks/mask_003.jpg,,,,,,,,,,,,,,,,,,,,,,,,,,,,,,,,,,,,,,,,,,,,,,,,0,1,1,2,1,,,,,,,,,,,,,,,,,,,,,,,,,,,,,,,,,,,,,,,,,
490612,001,2022-11-21_24h03.33.563,Info_measure_main_exp,2022.2.2,Linux x86_64,144.2377037,,,,,,,,,,,,,,,,,,masks/mask_001.jpg,,,,,,,,,,,,,,,,,,,,,,,,,,,,,,,,,,,,,,,,,,,,,,,,0,2,2,0,1,,,,,,,,,,,,,,,,,,,,,,,,,,,,,,,,,,,,,,,,,
490612,001,2022-11-21_24h03.33.563,Info_measure_main_exp,2022.2.2,Linux x86_64,144.2377037,,,,,,,,,,,,,,,,,,masks/mask_002.jpg,,,,,,,,,,,,,,,,,,,,,,,,,,,,,,,,,,,,,,,,,,,,,,,,0,3,3,1,1,,,,,,,,,,,,,,,,,,,,,,,,,,,,,,,,,,,,,,,,,
490612,001,2022-11-21_24h03.33.563,Info_measure_main_exp,2022.2.2,Linux x86_64,144.2377037,,,,,,,,,,,,,,,,,,masks/mask_004.jpg,,,,,,,,,,,,,,,,,,,,,,,,,,,,,,,,,,,,,,,,,,,,,,,,0,4,4,3,1,,,,,,,,,,,,,,,,,,,,,,,,,,,,,,,,,,,,,,,,,
490612,001,2022-11-21_24h03.33.563,Info_measure_main_exp,2022.2.2,Linux x86_64,144.2377037,,,,,,,,,,,,,,,,,,,,,,,,,,,,,,7,0.4088,1,,,,,,,,,,,,0,131,5,5,2298,2178,absent_patch/patch0002298.jpg,absent_patch/patch0002178.jpg,,,,,,,,,,,,,,,,,,,,0.006481481,0.011111111,1,0,0,response1disk,8,0.005555556,0.012037037,1,0,0,center_square,0,7,7,84,1,,,,,,,,,,,,,,,,,,,,,,,
490612,001,2022-11-21_24h03.33.563,Info_measure_main_exp,2022.2.2,Linux x86_64,144.2377037,,,,,,,,,,,,,,,,,,masks/mask_002.jpg,,,,,,,,,,,,,,,,,,,,,,,,,,,,,,,,,,,,,,,,,,,0,0,0,1,1,,,,,,,,,,,,,,,,,,,,,,,,,,,,,,,,,,,,,,,,,,,,,,
490612,001,2022-11-21_24h03.33.563,Info_measure_main_exp,2022.2.2,Linux x86_64,144.2377037,,,,,,,,,,,,,,,,,,masks/mask_001.jpg,,,,,,,,,,,,,,,,,,,,,,,,,,,,,,,,,,,,,,,,,,,0,1,1,0,1,,,,,,,,,,,,,,,,,,,,,,,,,,,,,,,,,,,,,,,,,,,,,,
490612,001,2022-11-21_24h03.33.563,Info_measure_main_exp,2022.2.2,Linux x86_64,144.2377037,,,,,,,,,,,,,,,,,,masks/mask_003.jpg,,,,,,,,,,,,,,,,,,,,,,,,,,,,,,,,,,,,,,,,,,,0,2,2,2,1,,,,,,,,,,,,,,,,,,,,,,,,,,,,,,,,,,,,,,,,,,,,,,
490612,001,2022-11-21_24h03.33.563,Info_measure_main_exp,2022.2.2,Linux x86_64,144.2377037,,,,,,,,,,,,,,,,,,masks/mask_004.jpg,,,,,,,,,,,,,,,,,,,,,,,,,,,,,,,,,,,,,,,,,,,0,3,3,3,1,,,,,,,,,,,,,,,,,,,,,,,,,,,,,,,,,,,,,,,,,,,,,,
490612,001,2022-11-21_24h03.33.563,Info_measure_main_exp,2022.2.2,Linux x86_64,144.2377037,,,,,,,,,,,,,,,,,,masks/mask_005.jpg,,,,,,,,,,,,,,,,,,,,,,,,,,,,,,,,,,,,,,,,,,,0,4,4,4,1,,,,,,,,,,,,,,,,,,,,,,,,,,,,,,,,,,,,,,,,,,,,,,
490612,001,2022-11-21_24h03.33.563,Info_measure_main_exp,2022.2.2,Linux x86_64,144.2377037,,,,,,,,,,,,,,,,,,masks/mask_004.jpg,,,,,,,,,,,,,,,,,,,,,,,,,,,,,,,,,,,,,,,,,,,,,,,,0,0,0,3,1,,,,,,,,,,,,,,,,,,,,,,,,,,,,,,,,,,,,,,,,,
490612,001,2022-11-21_24h03.33.563,Info_measure_main_exp,2022.2.2,Linux x86_64,144.2377037,,,,,,,,,,,,,,,,,,masks/mask_001.jpg,,,,,,,,,,,,,,,,,,,,,,,,,,,,,,,,,,,,,,,,,,,,,,,,0,1,1,0,1,,,,,,,,,,,,,,,,,,,,,,,,,,,,,,,,,,,,,,,,,
490612,001,2022-11-21_24h03.33.563,Info_measure_main_exp,2022.2.2,Linux x86_64,144.2377037,,,,,,,,,,,,,,,,,,masks/mask_002.jpg,,,,,,,,,,,,,,,,,,,,,,,,,,,,,,,,,,,,,,,,,,,,,,,,0,2,2,1,1,,,,,,,,,,,,,,,,,,,,,,,,,,,,,,,,,,,,,,,,,
490612,001,2022-11-21_24h03.33.563,Info_measure_main_exp,2022.2.2,Linux x86_64,144.2377037,,,,,,,,,,,,,,,,,,masks/mask_005.jpg,,,,,,,,,,,,,,,,,,,,,,,,,,,,,,,,,,,,,,,,,,,,,,,,0,3,3,4,1,,,,,,,,,,,,,,,,,,,,,,,,,,,,,,,,,,,,,,,,,
490612,001,2022-11-21_24h03.33.563,Info_measure_main_exp,2022.2.2,Linux x86_64,144.2377037,,,,,,,,,,,,,,,,,,masks/mask_003.jpg,,,,,,,,,,,,,,,,,,,,,,,,,,,,,,,,,,,,,,,,,,,,,,,,0,4,4,2,1,,,,,,,,,,,,,,,,,,,,,,,,,,,,,,,,,,,,,,,,,
490612,001,2022-11-21_24h03.33.563,Info_measure_main_exp,2022.2.2,Linux x86_64,144.2377037,,,,,,,,,,,,,,,,,,,,,,,,,,,,,,7,1.0423,1,,,,,,,,,,,,0,131,5,5,2214,2166,absent_patch/patch0002214.jpg,absent_patch/patch0002166.jpg,,,,,,,,,,,,,,,,,,,,0.006481481,0.018518519,1,0,0,response1disk,9,0.005555556,0.010185185,1,0,0,center_square,0,8,8,109,1,,,,,,,,,,,,,,,,,,,,,,,
490612,001,2022-11-21_24h03.33.563,Info_measure_main_exp,2022.2.2,Linux x86_64,144.2377037,,,,,,,,,,,,,,,,,,masks/mask_002.jpg,,,,,,,,,,,,,,,,,,,,,,,,,,,,,,,,,,,,,,,,,,,0,0,0,1,1,,,,,,,,,,,,,,,,,,,,,,,,,,,,,,,,,,,,,,,,,,,,,,
490612,001,2022-11-21_24h03.33.563,Info_measure_main_exp,2022.2.2,Linux x86_64,144.2377037,,,,,,,,,,,,,,,,,,masks/mask_005.jpg,,,,,,,,,,,,,,,,,,,,,,,,,,,,,,,,,,,,,,,,,,,0,1,1,4,1,,,,,,,,,,,,,,,,,,,,,,,,,,,,,,,,,,,,,,,,,,,,,,
490612,001,2022-11-21_24h03.33.563,Info_measure_main_exp,2022.2.2,Linux x86_64,144.2377037,,,,,,,,,,,,,,,,,,masks/mask_004.jpg,,,,,,,,,,,,,,,,,,,,,,,,,,,,,,,,,,,,,,,,,,,0,2,2,3,1,,,,,,,,,,,,,,,,,,,,,,,,,,,,,,,,,,,,,,,,,,,,,,
490612,001,2022-11-21_24h03.33.563,Info_measure_main_exp,2022.2.2,Linux x86_64,144.2377037,,,,,,,,,,,,,,,,,,masks/mask_001.jpg,,,,,,,,,,,,,,,,,,,,,,,,,,,,,,,,,,,,,,,,,,,0,3,3,0,1,,,,,,,,,,,,,,,,,,,,,,,,,,,,,,,,,,,,,,,,,,,,,,
490612,001,2022-11-21_24h03.33.563,Info_measure_main_exp,2022.2.2,Linux x86_64,144.2377037,,,,,,,,,,,,,,,,,,masks/mask_003.jpg,,,,,,,,,,,,,,,,,,,,,,,,,,,,,,,,,,,,,,,,,,,0,4,4,2,1,,,,,,,,,,,,,,,,,,,,,,,,,,,,,,,,,,,,,,,,,,,,,,
490612,001,2022-11-21_24h03.33.563,Info_measure_main_exp,2022.2.2,Linux x86_64,144.2377037,,,,,,,,,,,,,,,,,,masks/mask_005.jpg,,,,,,,,,,,,,,,,,,,,,,,,,,,,,,,,,,,,,,,,,,,,,,,,0,0,0,4,1,,,,,,,,,,,,,,,,,,,,,,,,,,,,,,,,,,,,,,,,,
490612,001,2022-11-21_24h03.33.563,Info_measure_main_exp,2022.2.2,Linux x86_64,144.2377037,,,,,,,,,,,,,,,,,,masks/mask_002.jpg,,,,,,,,,,,,,,,,,,,,,,,,,,,,,,,,,,,,,,,,,,,,,,,,0,1,1,1,1,,,,,,,,,,,,,,,,,,,,,,,,,,,,,,,,,,,,,,,,,
490612,001,2022-11-21_24h03.33.563,Info_measure_main_exp,2022.2.2,Linux x86_64,144.2377037,,,,,,,,,,,,,,,,,,masks/mask_004.jpg,,,,,,,,,,,,,,,,,,,,,,,,,,,,,,,,,,,,,,,,,,,,,,,,0,2,2,3,1,,,,,,,,,,,,,,,,,,,,,,,,,,,,,,,,,,,,,,,,,
490612,001,2022-11-21_24h03.33.563,Info_measure_main_exp,2022.2.2,Linux x86_64,144.2377037,,,,,,,,,,,,,,,,,,masks/mask_001.jpg,,,,,,,,,,,,,,,,,,,,,,,,,,,,,,,,,,,,,,,,,,,,,,,,0,3,3,0,1,,,,,,,,,,,,,,,,,,,,,,,,,,,,,,,,,,,,,,,,,
490612,001,2022-11-21_24h03.33.563,Info_measure_main_exp,2022.2.2,Linux x86_64,144.2377037,,,,,,,,,,,,,,,,,,masks/mask_003.jpg,,,,,,,,,,,,,,,,,,,,,,,,,,,,,,,,,,,,,,,,,,,,,,,,0,4,4,2,1,,,,,,,,,,,,,,,,,,,,,,,,,,,,,,,,,,,,,,,,,
490612,001,2022-11-21_24h03.33.563,Info_measure_main_exp,2022.2.2,Linux x86_64,144.2377037,,,,,,,,,,,,,,,,,,,,,,,,,,,,,,7,0.5793,1,,,,,,,,,,,,1,131,5,5,1,2166,present_patch/cong_131_5_a.jpg,absent_patch/patch0002166.jpg,,,,,,,,,,,,,,,,,,,,0.012037037,0.026851852,1,0,0,response1disk,10,0.00462963,0.008333333,1,0,0,center_square,0,9,9,54,1,,,,,,,,,,,,,,,,,,,,,,,
490612,001,2022-11-21_24h03.33.563,Info_measure_main_exp,2022.2.2,Linux x86_64,144.2377037,,,,,,,,,,,,,,,,,,masks/mask_005.jpg,,,,,,,,,,,,,,,,,,,,,,,,,,,,,,,,,,,,,,,,,,,0,0,0,4,1,,,,,,,,,,,,,,,,,,,,,,,,,,,,,,,,,,,,,,,,,,,,,,
490612,001,2022-11-21_24h03.33.563,Info_measure_main_exp,2022.2.2,Linux x86_64,144.2377037,,,,,,,,,,,,,,,,,,masks/mask_001.jpg,,,,,,,,,,,,,,,,,,,,,,,,,,,,,,,,,,,,,,,,,,,0,1,1,0,1,,,,,,,,,,,,,,,,,,,,,,,,,,,,,,,,,,,,,,,,,,,,,,
490612,001,2022-11-21_24h03.33.563,Info_measure_main_exp,2022.2.2,Linux x86_64,144.2377037,,,,,,,,,,,,,,,,,,masks/mask_004.jpg,,,,,,,,,,,,,,,,,,,,,,,,,,,,,,,,,,,,,,,,,,,0,2,2,3,1,,,,,,,,,,,,,,,,,,,,,,,,,,,,,,,,,,,,,,,,,,,,,,
490612,001,2022-11-21_24h03.33.563,Info_measure_main_exp,2022.2.2,Linux x86_64,144.2377037,,,,,,,,,,,,,,,,,,masks/mask_003.jpg,,,,,,,,,,,,,,,,,,,,,,,,,,,,,,,,,,,,,,,,,,,0,3,3,2,1,,,,,,,,,,,,,,,,,,,,,,,,,,,,,,,,,,,,,,,,,,,,,,
490612,001,2022-11-21_24h03.33.563,Info_measure_main_exp,2022.2.2,Linux x86_64,144.2377037,,,,,,,,,,,,,,,,,,masks/mask_002.jpg,,,,,,,,,,,,,,,,,,,,,,,,,,,,,,,,,,,,,,,,,,,0,4,4,1,1,,,,,,,,,,,,,,,,,,,,,,,,,,,,,,,,,,,,,,,,,,,,,,
490612,001,2022-11-21_24h03.33.563,Info_measure_main_exp,2022.2.2,Linux x86_64,144.2377037,,,,,,,,,,,,,,,,,,masks/mask_003.jpg,,,,,,,,,,,,,,,,,,,,,,,,,,,,,,,,,,,,,,,,,,,,,,,,0,0,0,2,1,,,,,,,,,,,,,,,,,,,,,,,,,,,,,,,,,,,,,,,,,
490612,001,2022-11-21_24h03.33.563,Info_measure_main_exp,2022.2.2,Linux x86_64,144.2377037,,,,,,,,,,,,,,,,,,masks/mask_001.jpg,,,,,,,,,,,,,,,,,,,,,,,,,,,,,,,,,,,,,,,,,,,,,,,,0,1,1,0,1,,,,,,,,,,,,,,,,,,,,,,,,,,,,,,,,,,,,,,,,,
490612,001,2022-11-21_24h03.33.563,Info_measure_main_exp,2022.2.2,Linux x86_64,144.2377037,,,,,,,,,,,,,,,,,,masks/mask_005.jpg,,,,,,,,,,,,,,,,,,,,,,,,,,,,,,,,,,,,,,,,,,,,,,,,0,2,2,4,1,,,,,,,,,,,,,,,,,,,,,,,,,,,,,,,,,,,,,,,,,
490612,001,2022-11-21_24h03.33.563,Info_measure_main_exp,2022.2.2,Linux x86_64,144.2377037,,,,,,,,,,,,,,,,,,masks/mask_002.jpg,,,,,,,,,,,,,,,,,,,,,,,,,,,,,,,,,,,,,,,,,,,,,,,,0,3,3,1,1,,,,,,,,,,,,,,,,,,,,,,,,,,,,,,,,,,,,,,,,,
490612,001,2022-11-21_24h03.33.563,Info_measure_main_exp,2022.2.2,Linux x86_64,144.2377037,,,,,,,,,,,,,,,,,,masks/mask_004.jpg,,,,,,,,,,,,,,,,,,,,,,,,,,,,,,,,,,,,,,,,,,,,,,,,0,4,4,3,1,,,,,,,,,,,,,,,,,,,,,,,,,,,,,,,,,,,,,,,,,
490612,001,2022-11-21_24h03.33.563,Info_measure_main_exp,2022.2.2,Linux x86_64,144.2377037,,,,,,,,,,,,,,,,,,,,,,,,,,,,,,0,0.49,1,,,,,,,,,,,,0,131,5,5,2238,2238,absent_patch/patch0002238.jpg,absent_patch/patch0002238.jpg,,,,,,,,,,,,,,,,,,,,-0.025,0.051851852,1,0,0,response7disk,11,-0.001851852,0.001851852,1,0,0,center_square,0,10,10,58,1,,,,,,,,,,,,,,,,,,,,,,,
490612,001,2022-11-21_24h03.33.563,Info_measure_main_exp,2022.2.2,Linux x86_64,144.2377037,,,,,,,,,,,,,,,,,,masks/mask_005.jpg,,,,,,,,,,,,,,,,,,,,,,,,,,,,,,,,,,,,,,,,,,,0,0,0,4,1,,,,,,,,,,,,,,,,,,,,,,,,,,,,,,,,,,,,,,,,,,,,,,
490612,001,2022-11-21_24h03.33.563,Info_measure_main_exp,2022.2.2,Linux x86_64,144.2377037,,,,,,,,,,,,,,,,,,masks/mask_002.jpg,,,,,,,,,,,,,,,,,,,,,,,,,,,,,,,,,,,,,,,,,,,0,1,1,1,1,,,,,,,,,,,,,,,,,,,,,,,,,,,,,,,,,,,,,,,,,,,,,,
490612,001,2022-11-21_24h03.33.563,Info_measure_main_exp,2022.2.2,Linux x86_64,144.2377037,,,,,,,,,,,,,,,,,,masks/mask_004.jpg,,,,,,,,,,,,,,,,,,,,,,,,,,,,,,,,,,,,,,,,,,,0,2,2,3,1,,,,,,,,,,,,,,,,,,,,,,,,,,,,,,,,,,,,,,,,,,,,,,
490612,001,2022-11-21_24h03.33.563,Info_measure_main_exp,2022.2.2,Linux x86_64,144.2377037,,,,,,,,,,,,,,,,,,masks/mask_003.jpg,,,,,,,,,,,,,,,,,,,,,,,,,,,,,,,,,,,,,,,,,,,0,3,3,2,1,,,,,,,,,,,,,,,,,,,,,,,,,,,,,,,,,,,,,,,,,,,,,,
490612,001,2022-11-21_24h03.33.563,Info_measure_main_exp,2022.2.2,Linux x86_64,144.2377037,,,,,,,,,,,,,,,,,,masks/mask_001.jpg,,,,,,,,,,,,,,,,,,,,,,,,,,,,,,,,,,,,,,,,,,,0,4,4,0,1,,,,,,,,,,,,,,,,,,,,,,,,,,,,,,,,,,,,,,,,,,,,,,
490612,001,2022-11-21_24h03.33.563,Info_measure_main_exp,2022.2.2,Linux x86_64,144.2377037,,,,,,,,,,,,,,,,,,masks/mask_005.jpg,,,,,,,,,,,,,,,,,,,,,,,,,,,,,,,,,,,,,,,,,,,,,,,,0,0,0,4,1,,,,,,,,,,,,,,,,,,,,,,,,,,,,,,,,,,,,,,,,,
490612,001,2022-11-21_24h03.33.563,Info_measure_main_exp,2022.2.2,Linux x86_64,144.2377037,,,,,,,,,,,,,,,,,,masks/mask_004.jpg,,,,,,,,,,,,,,,,,,,,,,,,,,,,,,,,,,,,,,,,,,,,,,,,0,1,1,3,1,,,,,,,,,,,,,,,,,,,,,,,,,,,,,,,,,,,,,,,,,
490612,001,2022-11-21_24h03.33.563,Info_measure_main_exp,2022.2.2,Linux x86_64,144.2377037,,,,,,,,,,,,,,,,,,masks/mask_001.jpg,,,,,,,,,,,,,,,,,,,,,,,,,,,,,,,,,,,,,,,,,,,,,,,,0,2,2,0,1,,,,,,,,,,,,,,,,,,,,,,,,,,,,,,,,,,,,,,,,,
490612,001,2022-11-21_24h03.33.563,Info_measure_main_exp,2022.2.2,Linux x86_64,144.2377037,,,,,,,,,,,,,,,,,,masks/mask_002.jpg,,,,,,,,,,,,,,,,,,,,,,,,,,,,,,,,,,,,,,,,,,,,,,,,0,3,3,1,1,,,,,,,,,,,,,,,,,,,,,,,,,,,,,,,,,,,,,,,,,
490612,001,2022-11-21_24h03.33.563,Info_measure_main_exp,2022.2.2,Linux x86_64,144.2377037,,,,,,,,,,,,,,,,,,masks/mask_003.jpg,,,,,,,,,,,,,,,,,,,,,,,,,,,,,,,,,,,,,,,,,,,,,,,,0,4,4,2,1,,,,,,,,,,,,,,,,,,,,,,,,,,,,,,,,,,,,,,,,,
490612,001,2022-11-21_24h03.33.563,Info_measure_main_exp,2022.2.2,Linux x86_64,144.2377037,,,,,,,,,,,,,,,,,,,,,,,,,,,,,,7,0.3063,1,,,,,,,,,,,,0,131,5,5,2238,2214,absent_patch/patch0002238.jpg,absent_patch/patch0002214.jpg,,,,,,,,,,,,,,,,,,,,0.012962963,0.037962963,1,0,0,response1disk,12,0.000925926,-0.013888889,1,0,0,center_square,0,11,11,81,1,,,,,,,,,,,,,,,,,,,,,,,
490612,001,2022-11-21_24h03.33.563,Info_measure_main_exp,2022.2.2,Linux x86_64,144.2377037,,,,,,,,,,,,,,,,,,masks/mask_001.jpg,,,,,,,,,,,,,,,,,,,,,,,,,,,,,,,,,,,,,,,,,,,0,0,0,0,1,,,,,,,,,,,,,,,,,,,,,,,,,,,,,,,,,,,,,,,,,,,,,,
490612,001,2022-11-21_24h03.33.563,Info_measure_main_exp,2022.2.2,Linux x86_64,144.2377037,,,,,,,,,,,,,,,,,,masks/mask_003.jpg,,,,,,,,,,,,,,,,,,,,,,,,,,,,,,,,,,,,,,,,,,,0,1,1,2,1,,,,,,,,,,,,,,,,,,,,,,,,,,,,,,,,,,,,,,,,,,,,,,
490612,001,2022-11-21_24h03.33.563,Info_measure_main_exp,2022.2.2,Linux x86_64,144.2377037,,,,,,,,,,,,,,,,,,masks/mask_002.jpg,,,,,,,,,,,,,,,,,,,,,,,,,,,,,,,,,,,,,,,,,,,0,2,2,1,1,,,,,,,,,,,,,,,,,,,,,,,,,,,,,,,,,,,,,,,,,,,,,,
490612,001,2022-11-21_24h03.33.563,Info_measure_main_exp,2022.2.2,Linux x86_64,144.2377037,,,,,,,,,,,,,,,,,,masks/mask_004.jpg,,,,,,,,,,,,,,,,,,,,,,,,,,,,,,,,,,,,,,,,,,,0,3,3,3,1,,,,,,,,,,,,,,,,,,,,,,,,,,,,,,,,,,,,,,,,,,,,,,
490612,001,2022-11-21_24h03.33.563,Info_measure_main_exp,2022.2.2,Linux x86_64,144.2377037,,,,,,,,,,,,,,,,,,masks/mask_005.jpg,,,,,,,,,,,,,,,,,,,,,,,,,,,,,,,,,,,,,,,,,,,0,4,4,4,1,,,,,,,,,,,,,,,,,,,,,,,,,,,,,,,,,,,,,,,,,,,,,,
490612,001,2022-11-21_24h03.33.563,Info_measure_main_exp,2022.2.2,Linux x86_64,144.2377037,,,,,,,,,,,,,,,,,,masks/mask_002.jpg,,,,,,,,,,,,,,,,,,,,,,,,,,,,,,,,,,,,,,,,,,,,,,,,0,0,0,1,1,,,,,,,,,,,,,,,,,,,,,,,,,,,,,,,,,,,,,,,,,
490612,001,2022-11-21_24h03.33.563,Info_measure_main_exp,2022.2.2,Linux x86_64,144.2377037,,,,,,,,,,,,,,,,,,masks/mask_004.jpg,,,,,,,,,,,,,,,,,,,,,,,,,,,,,,,,,,,,,,,,,,,,,,,,0,1,1,3,1,,,,,,,,,,,,,,,,,,,,,,,,,,,,,,,,,,,,,,,,,
490612,001,2022-11-21_24h03.33.563,Info_measure_main_exp,2022.2.2,Linux x86_64,144.2377037,,,,,,,,,,,,,,,,,,masks/mask_005.jpg,,,,,,,,,,,,,,,,,,,,,,,,,,,,,,,,,,,,,,,,,,,,,,,,0,2,2,4,1,,,,,,,,,,,,,,,,,,,,,,,,,,,,,,,,,,,,,,,,,
490612,001,2022-11-21_24h03.33.563,Info_measure_main_exp,2022.2.2,Linux x86_64,144.2377037,,,,,,,,,,,,,,,,,,masks/mask_001.jpg,,,,,,,,,,,,,,,,,,,,,,,,,,,,,,,,,,,,,,,,,,,,,,,,0,3,3,0,1,,,,,,,,,,,,,,,,,,,,,,,,,,,,,,,,,,,,,,,,,
490612,001,2022-11-21_24h03.33.563,Info_measure_main_exp,2022.2.2,Linux x86_64,144.2377037,,,,,,,,,,,,,,,,,,masks/mask_003.jpg,,,,,,,,,,,,,,,,,,,,,,,,,,,,,,,,,,,,,,,,,,,,,,,,0,4,4,2,1,,,,,,,,,,,,,,,,,,,,,,,,,,,,,,,,,,,,,,,,,
490612,001,2022-11-21_24h03.33.563,Info_measure_main_exp,2022.2.2,Linux x86_64,144.2377037,,,,,,,,,,,,,,,,,,,,,,,,,,,,,,7,0.6751,1,,,,,,,,,,,,0,131,5,5,2142,2190,absent_patch/patch0002142.jpg,absent_patch/patch0002190.jpg,,,,,,,,,,,,,,,,,,,,0.010185185,0.027777778,1,0,0,response1disk,13,0.006481481,0.006481481,1,0,0,center_square,0,12,12,70,1,,,,,,,,,,,,,,,,,,,,,,,
490612,001,2022-11-21_24h03.33.563,Info_measure_main_exp,2022.2.2,Linux x86_64,144.2377037,,,,,,,,,,,,,,,,,,masks/mask_001.jpg,,,,,,,,,,,,,,,,,,,,,,,,,,,,,,,,,,,,,,,,,,,0,0,0,0,1,,,,,,,,,,,,,,,,,,,,,,,,,,,,,,,,,,,,,,,,,,,,,,
490612,001,2022-11-21_24h03.33.563,Info_measure_main_exp,2022.2.2,Linux x86_64,144.2377037,,,,,,,,,,,,,,,,,,masks/mask_004.jpg,,,,,,,,,,,,,,,,,,,,,,,,,,,,,,,,,,,,,,,,,,,0,1,1,3,1,,,,,,,,,,,,,,,,,,,,,,,,,,,,,,,,,,,,,,,,,,,,,,
490612,001,2022-11-21_24h03.33.563,Info_measure_main_exp,2022.2.2,Linux x86_64,144.2377037,,,,,,,,,,,,,,,,,,masks/mask_003.jpg,,,,,,,,,,,,,,,,,,,,,,,,,,,,,,,,,,,,,,,,,,,0,2,2,2,1,,,,,,,,,,,,,,,,,,,,,,,,,,,,,,,,,,,,,,,,,,,,,,
490612,001,2022-11-21_24h03.33.563,Info_measure_main_exp,2022.2.2,Linux x86_64,144.2377037,,,,,,,,,,,,,,,,,,masks/mask_005.jpg,,,,,,,,,,,,,,,,,,,,,,,,,,,,,,,,,,,,,,,,,,,0,3,3,4,1,,,,,,,,,,,,,,,,,,,,,,,,,,,,,,,,,,,,,,,,,,,,,,
490612,001,2022-11-21_24h03.33.563,Info_measure_main_exp,2022.2.2,Linux x86_64,144.2377037,,,,,,,,,,,,,,,,,,masks/mask_002.jpg,,,,,,,,,,,,,,,,,,,,,,,,,,,,,,,,,,,,,,,,,,,0,4,4,1,1,,,,,,,,,,,,,,,,,,,,,,,,,,,,,,,,,,,,,,,,,,,,,,
490612,001,2022-11-21_24h03.33.563,Info_measure_main_exp,2022.2.2,Linux x86_64,144.2377037,,,,,,,,,,,,,,,,,,masks/mask_003.jpg,,,,,,,,,,,,,,,,,,,,,,,,,,,,,,,,,,,,,,,,,,,,,,,,0,0,0,2,1,,,,,,,,,,,,,,,,,,,,,,,,,,,,,,,,,,,,,,,,,
490612,001,2022-11-21_24h03.33.563,Info_measure_main_exp,2022.2.2,Linux x86_64,144.2377037,,,,,,,,,,,,,,,,,,masks/mask_004.jpg,,,,,,,,,,,,,,,,,,,,,,,,,,,,,,,,,,,,,,,,,,,,,,,,0,1,1,3,1,,,,,,,,,,,,,,,,,,,,,,,,,,,,,,,,,,,,,,,,,
490612,001,2022-11-21_24h03.33.563,Info_measure_main_exp,2022.2.2,Linux x86_64,144.2377037,,,,,,,,,,,,,,,,,,masks/mask_005.jpg,,,,,,,,,,,,,,,,,,,,,,,,,,,,,,,,,,,,,,,,,,,,,,,,0,2,2,4,1,,,,,,,,,,,,,,,,,,,,,,,,,,,,,,,,,,,,,,,,,
490612,001,2022-11-21_24h03.33.563,Info_measure_main_exp,2022.2.2,Linux x86_64,144.2377037,,,,,,,,,,,,,,,,,,masks/mask_002.jpg,,,,,,,,,,,,,,,,,,,,,,,,,,,,,,,,,,,,,,,,,,,,,,,,0,3,3,1,1,,,,,,,,,,,,,,,,,,,,,,,,,,,,,,,,,,,,,,,,,
490612,001,2022-11-21_24h03.33.563,Info_measure_main_exp,2022.2.2,Linux x86_64,144.2377037,,,,,,,,,,,,,,,,,,masks/mask_001.jpg,,,,,,,,,,,,,,,,,,,,,,,,,,,,,,,,,,,,,,,,,,,,,,,,0,4,4,0,1,,,,,,,,,,,,,,,,,,,,,,,,,,,,,,,,,,,,,,,,,
490612,001,2022-11-21_24h03.33.563,Info_measure_main_exp,2022.2.2,Linux x86_64,144.2377037,,,,,,,,,,,,,,,,,,,,,,,,,,,,,,7,0.4939,1,,,,,,,,,,,,0,131,5,5,2178,2166,absent_patch/patch0002178.jpg,absent_patch/patch0002166.jpg,,,,,,,,,,,,,,,,,,,,0.042592593,0.062962963,1,0,0,response1disk,14,-0.002777778,0.00462963,1,0,0,center_square,0,13,13,72,1,,,,,,,,,,,,,,,,,,,,,,,
490612,001,2022-11-21_24h03.33.563,Info_measure_main_exp,2022.2.2,Linux x86_64,144.2377037,,,,,,,,,,,,,,,,,,masks/mask_004.jpg,,,,,,,,,,,,,,,,,,,,,,,,,,,,,,,,,,,,,,,,,,,0,0,0,3,1,,,,,,,,,,,,,,,,,,,,,,,,,,,,,,,,,,,,,,,,,,,,,,
490612,001,2022-11-21_24h03.33.563,Info_measure_main_exp,2022.2.2,Linux x86_64,144.2377037,,,,,,,,,,,,,,,,,,masks/mask_003.jpg,,,,,,,,,,,,,,,,,,,,,,,,,,,,,,,,,,,,,,,,,,,0,1,1,2,1,,,,,,,,,,,,,,,,,,,,,,,,,,,,,,,,,,,,,,,,,,,,,,
490612,001,2022-11-21_24h03.33.563,Info_measure_main_exp,2022.2.2,Linux x86_64,144.2377037,,,,,,,,,,,,,,,,,,masks/mask_001.jpg,,,,,,,,,,,,,,,,,,,,,,,,,,,,,,,,,,,,,,,,,,,0,2,2,0,1,,,,,,,,,,,,,,,,,,,,,,,,,,,,,,,,,,,,,,,,,,,,,,
490612,001,2022-11-21_24h03.33.563,Info_measure_main_exp,2022.2.2,Linux x86_64,144.2377037,,,,,,,,,,,,,,,,,,masks/mask_002.jpg,,,,,,,,,,,,,,,,,,,,,,,,,,,,,,,,,,,,,,,,,,,0,3,3,1,1,,,,,,,,,,,,,,,,,,,,,,,,,,,,,,,,,,,,,,,,,,,,,,
490612,001,2022-11-21_24h03.33.563,Info_measure_main_exp,2022.2.2,Linux x86_64,144.2377037,,,,,,,,,,,,,,,,,,masks/mask_005.jpg,,,,,,,,,,,,,,,,,,,,,,,,,,,,,,,,,,,,,,,,,,,0,4,4,4,1,,,,,,,,,,,,,,,,,,,,,,,,,,,,,,,,,,,,,,,,,,,,,,
490612,001,2022-11-21_24h03.33.563,Info_measure_main_exp,2022.2.2,Linux x86_64,144.2377037,,,,,,,,,,,,,,,,,,masks/mask_003.jpg,,,,,,,,,,,,,,,,,,,,,,,,,,,,,,,,,,,,,,,,,,,,,,,,0,0,0,2,1,,,,,,,,,,,,,,,,,,,,,,,,,,,,,,,,,,,,,,,,,
490612,001,2022-11-21_24h03.33.563,Info_measure_main_exp,2022.2.2,Linux x86_64,144.2377037,,,,,,,,,,,,,,,,,,masks/mask_002.jpg,,,,,,,,,,,,,,,,,,,,,,,,,,,,,,,,,,,,,,,,,,,,,,,,0,1,1,1,1,,,,,,,,,,,,,,,,,,,,,,,,,,,,,,,,,,,,,,,,,
490612,001,2022-11-21_24h03.33.563,Info_measure_main_exp,2022.2.2,Linux x86_64,144.2377037,,,,,,,,,,,,,,,,,,masks/mask_004.jpg,,,,,,,,,,,,,,,,,,,,,,,,,,,,,,,,,,,,,,,,,,,,,,,,0,2,2,3,1,,,,,,,,,,,,,,,,,,,,,,,,,,,,,,,,,,,,,,,,,
490612,001,2022-11-21_24h03.33.563,Info_measure_main_exp,2022.2.2,Linux x86_64,144.2377037,,,,,,,,,,,,,,,,,,masks/mask_001.jpg,,,,,,,,,,,,,,,,,,,,,,,,,,,,,,,,,,,,,,,,,,,,,,,,0,3,3,0,1,,,,,,,,,,,,,,,,,,,,,,,,,,,,,,,,,,,,,,,,,
490612,001,2022-11-21_24h03.33.563,Info_measure_main_exp,2022.2.2,Linux x86_64,144.2377037,,,,,,,,,,,,,,,,,,masks/mask_005.jpg,,,,,,,,,,,,,,,,,,,,,,,,,,,,,,,,,,,,,,,,,,,,,,,,0,4,4,4,1,,,,,,,,,,,,,,,,,,,,,,,,,,,,,,,,,,,,,,,,,
490612,001,2022-11-21_24h03.33.563,Info_measure_main_exp,2022.2.2,Linux x86_64,144.2377037,,,,,,,,,,,,,,,,,,,,,,,,,,,,,,7,0.3781,1,,,,,,,,,,,,0,131,5,5,2190,1986,absent_patch/patch0002190.jpg,absent_patch/patch0001986.jpg,,,,,,,,,,,,,,,,,,,,0.009259259,0.021296296,1,0,0,response1disk,15,0.002777778,0.000925926,1,0,0,center_square,0,14,14,111,1,,,,,,,,,,,,,,,,,,,,,,,
490612,001,2022-11-21_24h03.33.563,Info_measure_main_exp,2022.2.2,Linux x86_64,144.2377037,,,,,,,,,,,,,,,,,,masks/mask_001.jpg,,,,,,,,,,,,,,,,,,,,,,,,,,,,,,,,,,,,,,,,,,,0,0,0,0,1,,,,,,,,,,,,,,,,,,,,,,,,,,,,,,,,,,,,,,,,,,,,,,
490612,001,2022-11-21_24h03.33.563,Info_measure_main_exp,2022.2.2,Linux x86_64,144.2377037,,,,,,,,,,,,,,,,,,masks/mask_003.jpg,,,,,,,,,,,,,,,,,,,,,,,,,,,,,,,,,,,,,,,,,,,0,1,1,2,1,,,,,,,,,,,,,,,,,,,,,,,,,,,,,,,,,,,,,,,,,,,,,,
490612,001,2022-11-21_24h03.33.563,Info_measure_main_exp,2022.2.2,Linux x86_64,144.2377037,,,,,,,,,,,,,,,,,,masks/mask_004.jpg,,,,,,,,,,,,,,,,,,,,,,,,,,,,,,,,,,,,,,,,,,,0,2,2,3,1,,,,,,,,,,,,,,,,,,,,,,,,,,,,,,,,,,,,,,,,,,,,,,
490612,001,2022-11-21_24h03.33.563,Info_measure_main_exp,2022.2.2,Linux x86_64,144.2377037,,,,,,,,,,,,,,,,,,masks/mask_005.jpg,,,,,,,,,,,,,,,,,,,,,,,,,,,,,,,,,,,,,,,,,,,0,3,3,4,1,,,,,,,,,,,,,,,,,,,,,,,,,,,,,,,,,,,,,,,,,,,,,,
490612,001,2022-11-21_24h03.33.563,Info_measure_main_exp,2022.2.2,Linux x86_64,144.2377037,,,,,,,,,,,,,,,,,,masks/mask_002.jpg,,,,,,,,,,,,,,,,,,,,,,,,,,,,,,,,,,,,,,,,,,,0,4,4,1,1,,,,,,,,,,,,,,,,,,,,,,,,,,,,,,,,,,,,,,,,,,,,,,
490612,001,2022-11-21_24h03.33.563,Info_measure_main_exp,2022.2.2,Linux x86_64,144.2377037,,,,,,,,,,,,,,,,,,masks/mask_003.jpg,,,,,,,,,,,,,,,,,,,,,,,,,,,,,,,,,,,,,,,,,,,,,,,,0,0,0,2,1,,,,,,,,,,,,,,,,,,,,,,,,,,,,,,,,,,,,,,,,,
490612,001,2022-11-21_24h03.33.563,Info_measure_main_exp,2022.2.2,Linux x86_64,144.2377037,,,,,,,,,,,,,,,,,,masks/mask_001.jpg,,,,,,,,,,,,,,,,,,,,,,,,,,,,,,,,,,,,,,,,,,,,,,,,0,1,1,0,1,,,,,,,,,,,,,,,,,,,,,,,,,,,,,,,,,,,,,,,,,
490612,001,2022-11-21_24h03.33.563,Info_measure_main_exp,2022.2.2,Linux x86_64,144.2377037,,,,,,,,,,,,,,,,,,masks/mask_002.jpg,,,,,,,,,,,,,,,,,,,,,,,,,,,,,,,,,,,,,,,,,,,,,,,,0,2,2,1,1,,,,,,,,,,,,,,,,,,,,,,,,,,,,,,,,,,,,,,,,,
490612,001,2022-11-21_24h03.33.563,Info_measure_main_exp,2022.2.2,Linux x86_64,144.2377037,,,,,,,,,,,,,,,,,,masks/mask_004.jpg,,,,,,,,,,,,,,,,,,,,,,,,,,,,,,,,,,,,,,,,,,,,,,,,0,3,3,3,1,,,,,,,,,,,,,,,,,,,,,,,,,,,,,,,,,,,,,,,,,
490612,001,2022-11-21_24h03.33.563,Info_measure_main_exp,2022.2.2,Linux x86_64,144.2377037,,,,,,,,,,,,,,,,,,masks/mask_005.jpg,,,,,,,,,,,,,,,,,,,,,,,,,,,,,,,,,,,,,,,,,,,,,,,,0,4,4,4,1,,,,,,,,,,,,,,,,,,,,,,,,,,,,,,,,,,,,,,,,,
490612,001,2022-11-21_24h03.33.563,Info_measure_main_exp,2022.2.2,Linux x86_64,144.2377037,,,,,,,,,,,,,,,,,,,,,,,,,,,,,,7,0.8962,1,,,,,,,,,,,,0,131,5,5,2142,2166,absent_patch/patch0002142.jpg,absent_patch/patch0002166.jpg,,,,,,,,,,,,,,,,,,,,0.005555556,0.014814815,1,0,0,response1disk,16,0.00462963,0.008333333,1,0,0,center_square,0,15,15,66,1,,,,,,,,,,,,,,,,,,,,,,,
490612,001,2022-11-21_24h03.33.563,Info_measure_main_exp,2022.2.2,Linux x86_64,144.2377037,,,,,,,,,,,,,,,,,,masks/mask_005.jpg,,,,,,,,,,,,,,,,,,,,,,,,,,,,,,,,,,,,,,,,,,,0,0,0,4,1,,,,,,,,,,,,,,,,,,,,,,,,,,,,,,,,,,,,,,,,,,,,,,
490612,001,2022-11-21_24h03.33.563,Info_measure_main_exp,2022.2.2,Linux x86_64,144.2377037,,,,,,,,,,,,,,,,,,masks/mask_003.jpg,,,,,,,,,,,,,,,,,,,,,,,,,,,,,,,,,,,,,,,,,,,0,1,1,2,1,,,,,,,,,,,,,,,,,,,,,,,,,,,,,,,,,,,,,,,,,,,,,,
490612,001,2022-11-21_24h03.33.563,Info_measure_main_exp,2022.2.2,Linux x86_64,144.2377037,,,,,,,,,,,,,,,,,,masks/mask_004.jpg,,,,,,,,,,,,,,,,,,,,,,,,,,,,,,,,,,,,,,,,,,,0,2,2,3,1,,,,,,,,,,,,,,,,,,,,,,,,,,,,,,,,,,,,,,,,,,,,,,
490612,001,2022-11-21_24h03.33.563,Info_measure_main_exp,2022.2.2,Linux x86_64,144.2377037,,,,,,,,,,,,,,,,,,masks/mask_001.jpg,,,,,,,,,,,,,,,,,,,,,,,,,,,,,,,,,,,,,,,,,,,0,3,3,0,1,,,,,,,,,,,,,,,,,,,,,,,,,,,,,,,,,,,,,,,,,,,,,,
490612,001,2022-11-21_24h03.33.563,Info_measure_main_exp,2022.2.2,Linux x86_64,144.2377037,,,,,,,,,,,,,,,,,,masks/mask_002.jpg,,,,,,,,,,,,,,,,,,,,,,,,,,,,,,,,,,,,,,,,,,,0,4,4,1,1,,,,,,,,,,,,,,,,,,,,,,,,,,,,,,,,,,,,,,,,,,,,,,
490612,001,2022-11-21_24h03.33.563,Info_measure_main_exp,2022.2.2,Linux x86_64,144.2377037,,,,,,,,,,,,,,,,,,masks/mask_001.jpg,,,,,,,,,,,,,,,,,,,,,,,,,,,,,,,,,,,,,,,,,,,,,,,,0,0,0,0,1,,,,,,,,,,,,,,,,,,,,,,,,,,,,,,,,,,,,,,,,,
490612,001,2022-11-21_24h03.33.563,Info_measure_main_exp,2022.2.2,Linux x86_64,144.2377037,,,,,,,,,,,,,,,,,,masks/mask_003.jpg,,,,,,,,,,,,,,,,,,,,,,,,,,,,,,,,,,,,,,,,,,,,,,,,0,1,1,2,1,,,,,,,,,,,,,,,,,,,,,,,,,,,,,,,,,,,,,,,,,
490612,001,2022-11-21_24h03.33.563,Info_measure_main_exp,2022.2.2,Linux x86_64,144.2377037,,,,,,,,,,,,,,,,,,masks/mask_005.jpg,,,,,,,,,,,,,,,,,,,,,,,,,,,,,,,,,,,,,,,,,,,,,,,,0,2,2,4,1,,,,,,,,,,,,,,,,,,,,,,,,,,,,,,,,,,,,,,,,,
490612,001,2022-11-21_24h03.33.563,Info_measure_main_exp,2022.2.2,Linux x86_64,144.2377037,,,,,,,,,,,,,,,,,,masks/mask_002.jpg,,,,,,,,,,,,,,,,,,,,,,,,,,,,,,,,,,,,,,,,,,,,,,,,0,3,3,1,1,,,,,,,,,,,,,,,,,,,,,,,,,,,,,,,,,,,,,,,,,
490612,001,2022-11-21_24h03.33.563,Info_measure_main_exp,2022.2.2,Linux x86_64,144.2377037,,,,,,,,,,,,,,,,,,masks/mask_004.jpg,,,,,,,,,,,,,,,,,,,,,,,,,,,,,,,,,,,,,,,,,,,,,,,,0,4,4,3,1,,,,,,,,,,,,,,,,,,,,,,,,,,,,,,,,,,,,,,,,,
490612,001,2022-11-21_24h03.33.563,Info_measure_main_exp,2022.2.2,Linux x86_64,144.2377037,,,,,,,,,,,,,,,,,,,,,,,,,,,,,,7,0.5237,1,,,,,,,,,,,,0,131,5,5,2274,1950,absent_patch/patch0002274.jpg,absent_patch/patch0001950.jpg,,,,,,,,,,,,,,,,,,,,0.009259259,0.017592593,1,0,0,response1disk,17,0.001851852,0.000925926,1,0,0,center_square,0,16,16,10,1,,,,,,,,,,,,,,,,,,,,,,,
490612,001,2022-11-21_24h03.33.563,Info_measure_main_exp,2022.2.2,Linux x86_64,144.2377037,,,,,,,,,,,,,,,,,,masks/mask_003.jpg,,,,,,,,,,,,,,,,,,,,,,,,,,,,,,,,,,,,,,,,,,,0,0,0,2,1,,,,,,,,,,,,,,,,,,,,,,,,,,,,,,,,,,,,,,,,,,,,,,
490612,001,2022-11-21_24h03.33.563,Info_measure_main_exp,2022.2.2,Linux x86_64,144.2377037,,,,,,,,,,,,,,,,,,masks/mask_002.jpg,,,,,,,,,,,,,,,,,,,,,,,,,,,,,,,,,,,,,,,,,,,0,1,1,1,1,,,,,,,,,,,,,,,,,,,,,,,,,,,,,,,,,,,,,,,,,,,,,,
490612,001,2022-11-21_24h03.33.563,Info_measure_main_exp,2022.2.2,Linux x86_64,144.2377037,,,,,,,,,,,,,,,,,,masks/mask_001.jpg,,,,,,,,,,,,,,,,,,,,,,,,,,,,,,,,,,,,,,,,,,,0,2,2,0,1,,,,,,,,,,,,,,,,,,,,,,,,,,,,,,,,,,,,,,,,,,,,,,
490612,001,2022-11-21_24h03.33.563,Info_measure_main_exp,2022.2.2,Linux x86_64,144.2377037,,,,,,,,,,,,,,,,,,masks/mask_005.jpg,,,,,,,,,,,,,,,,,,,,,,,,,,,,,,,,,,,,,,,,,,,0,3,3,4,1,,,,,,,,,,,,,,,,,,,,,,,,,,,,,,,,,,,,,,,,,,,,,,
490612,001,2022-11-21_24h03.33.563,Info_measure_main_exp,2022.2.2,Linux x86_64,144.2377037,,,,,,,,,,,,,,,,,,masks/mask_004.jpg,,,,,,,,,,,,,,,,,,,,,,,,,,,,,,,,,,,,,,,,,,,0,4,4,3,1,,,,,,,,,,,,,,,,,,,,,,,,,,,,,,,,,,,,,,,,,,,,,,
490612,001,2022-11-21_24h03.33.563,Info_measure_main_exp,2022.2.2,Linux x86_64,144.2377037,,,,,,,,,,,,,,,,,,masks/mask_003.jpg,,,,,,,,,,,,,,,,,,,,,,,,,,,,,,,,,,,,,,,,,,,,,,,,0,0,0,2,1,,,,,,,,,,,,,,,,,,,,,,,,,,,,,,,,,,,,,,,,,
490612,001,2022-11-21_24h03.33.563,Info_measure_main_exp,2022.2.2,Linux x86_64,144.2377037,,,,,,,,,,,,,,,,,,masks/mask_004.jpg,,,,,,,,,,,,,,,,,,,,,,,,,,,,,,,,,,,,,,,,,,,,,,,,0,1,1,3,1,,,,,,,,,,,,,,,,,,,,,,,,,,,,,,,,,,,,,,,,,
490612,001,2022-11-21_24h03.33.563,Info_measure_main_exp,2022.2.2,Linux x86_64,144.2377037,,,,,,,,,,,,,,,,,,masks/mask_002.jpg,,,,,,,,,,,,,,,,,,,,,,,,,,,,,,,,,,,,,,,,,,,,,,,,0,2,2,1,1,,,,,,,,,,,,,,,,,,,,,,,,,,,,,,,,,,,,,,,,,
490612,001,2022-11-21_24h03.33.563,Info_measure_main_exp,2022.2.2,Linux x86_64,144.2377037,,,,,,,,,,,,,,,,,,masks/mask_005.jpg,,,,,,,,,,,,,,,,,,,,,,,,,,,,,,,,,,,,,,,,,,,,,,,,0,3,3,4,1,,,,,,,,,,,,,,,,,,,,,,,,,,,,,,,,,,,,,,,,,
490612,001,2022-11-21_24h03.33.563,Info_measure_main_exp,2022.2.2,Linux x86_64,144.2377037,,,,,,,,,,,,,,,,,,masks/mask_001.jpg,,,,,,,,,,,,,,,,,,,,,,,,,,,,,,,,,,,,,,,,,,,,,,,,0,4,4,0,1,,,,,,,,,,,,,,,,,,,,,,,,,,,,,,,,,,,,,,,,,
490612,001,2022-11-21_24h03.33.563,Info_measure_main_exp,2022.2.2,Linux x86_64,144.2377037,,,,,,,,,,,,,,,,,,,,,,,,,,,,,,7,0.9378,1,,,,,,,,,,,,0,131,5,5,1974,2142,absent_patch/patch0001974.jpg,absent_patch/patch0002142.jpg,,,,,,,,,,,,,,,,,,,,0.009259259,0.016666667,1,0,0,response1disk,18,0.005555556,0.010185185,1,0,0,center_square,0,17,17,38,1,,,,,,,,,,,,,,,,,,,,,,,
490612,001,2022-11-21_24h03.33.563,Info_measure_main_exp,2022.2.2,Linux x86_64,144.2377037,,,,,,,,,,,,,,,,,,masks/mask_004.jpg,,,,,,,,,,,,,,,,,,,,,,,,,,,,,,,,,,,,,,,,,,,0,0,0,3,1,,,,,,,,,,,,,,,,,,,,,,,,,,,,,,,,,,,,,,,,,,,,,,
490612,001,2022-11-21_24h03.33.563,Info_measure_main_exp,2022.2.2,Linux x86_64,144.2377037,,,,,,,,,,,,,,,,,,masks/mask_002.jpg,,,,,,,,,,,,,,,,,,,,,,,,,,,,,,,,,,,,,,,,,,,0,1,1,1,1,,,,,,,,,,,,,,,,,,,,,,,,,,,,,,,,,,,,,,,,,,,,,,
490612,001,2022-11-21_24h03.33.563,Info_measure_main_exp,2022.2.2,Linux x86_64,144.2377037,,,,,,,,,,,,,,,,,,masks/mask_003.jpg,,,,,,,,,,,,,,,,,,,,,,,,,,,,,,,,,,,,,,,,,,,0,2,2,2,1,,,,,,,,,,,,,,,,,,,,,,,,,,,,,,,,,,,,,,,,,,,,,,
490612,001,2022-11-21_24h03.33.563,Info_measure_main_exp,2022.2.2,Linux x86_64,144.2377037,,,,,,,,,,,,,,,,,,masks/mask_005.jpg,,,,,,,,,,,,,,,,,,,,,,,,,,,,,,,,,,,,,,,,,,,0,3,3,4,1,,,,,,,,,,,,,,,,,,,,,,,,,,,,,,,,,,,,,,,,,,,,,,
490612,001,2022-11-21_24h03.33.563,Info_measure_main_exp,2022.2.2,Linux x86_64,144.2377037,,,,,,,,,,,,,,,,,,masks/mask_001.jpg,,,,,,,,,,,,,,,,,,,,,,,,,,,,,,,,,,,,,,,,,,,0,4,4,0,1,,,,,,,,,,,,,,,,,,,,,,,,,,,,,,,,,,,,,,,,,,,,,,
490612,001,2022-11-21_24h03.33.563,Info_measure_main_exp,2022.2.2,Linux x86_64,144.2377037,,,,,,,,,,,,,,,,,,masks/mask_003.jpg,,,,,,,,,,,,,,,,,,,,,,,,,,,,,,,,,,,,,,,,,,,,,,,,0,0,0,2,1,,,,,,,,,,,,,,,,,,,,,,,,,,,,,,,,,,,,,,,,,
490612,001,2022-11-21_24h03.33.563,Info_measure_main_exp,2022.2.2,Linux x86_64,144.2377037,,,,,,,,,,,,,,,,,,masks/mask_004.jpg,,,,,,,,,,,,,,,,,,,,,,,,,,,,,,,,,,,,,,,,,,,,,,,,0,1,1,3,1,,,,,,,,,,,,,,,,,,,,,,,,,,,,,,,,,,,,,,,,,
490612,001,2022-11-21_24h03.33.563,Info_measure_main_exp,2022.2.2,Linux x86_64,144.2377037,,,,,,,,,,,,,,,,,,masks/mask_001.jpg,,,,,,,,,,,,,,,,,,,,,,,,,,,,,,,,,,,,,,,,,,,,,,,,0,2,2,0,1,,,,,,,,,,,,,,,,,,,,,,,,,,,,,,,,,,,,,,,,,
490612,001,2022-11-21_24h03.33.563,Info_measure_main_exp,2022.2.2,Linux x86_64,144.2377037,,,,,,,,,,,,,,,,,,masks/mask_005.jpg,,,,,,,,,,,,,,,,,,,,,,,,,,,,,,,,,,,,,,,,,,,,,,,,0,3,3,4,1,,,,,,,,,,,,,,,,,,,,,,,,,,,,,,,,,,,,,,,,,
490612,001,2022-11-21_24h03.33.563,Info_measure_main_exp,2022.2.2,Linux x86_64,144.2377037,,,,,,,,,,,,,,,,,,masks/mask_002.jpg,,,,,,,,,,,,,,,,,,,,,,,,,,,,,,,,,,,,,,,,,,,,,,,,0,4,4,1,1,,,,,,,,,,,,,,,,,,,,,,,,,,,,,,,,,,,,,,,,,
490612,001,2022-11-21_24h03.33.563,Info_measure_main_exp,2022.2.2,Linux x86_64,144.2377037,,,,,,,,,,,,,,,,,,,,,,,,,,,,,,7,0.4777,1,,,,,,,,,,,,0,131,5,5,1950,2142,absent_patch/patch0001950.jpg,absent_patch/patch0002142.jpg,,,,,,,,,,,,,,,,,,,,0.009259259,0.02037037,1,0,0,response1disk,19,0.002777778,0.002777778,1,0,0,center_square,0,18,18,83,1,,,,,,,,,,,,,,,,,,,,,,,
490612,001,2022-11-21_24h03.33.563,Info_measure_main_exp,2022.2.2,Linux x86_64,144.2377037,,,,,,,,,,,,,,,,,,masks/mask_001.jpg,,,,,,,,,,,,,,,,,,,,,,,,,,,,,,,,,,,,,,,,,,,0,0,0,0,1,,,,,,,,,,,,,,,,,,,,,,,,,,,,,,,,,,,,,,,,,,,,,,
490612,001,2022-11-21_24h03.33.563,Info_measure_main_exp,2022.2.2,Linux x86_64,144.2377037,,,,,,,,,,,,,,,,,,masks/mask_004.jpg,,,,,,,,,,,,,,,,,,,,,,,,,,,,,,,,,,,,,,,,,,,0,1,1,3,1,,,,,,,,,,,,,,,,,,,,,,,,,,,,,,,,,,,,,,,,,,,,,,
490612,001,2022-11-21_24h03.33.563,Info_measure_main_exp,2022.2.2,Linux x86_64,144.2377037,,,,,,,,,,,,,,,,,,masks/mask_002.jpg,,,,,,,,,,,,,,,,,,,,,,,,,,,,,,,,,,,,,,,,,,,0,2,2,1,1,,,,,,,,,,,,,,,,,,,,,,,,,,,,,,,,,,,,,,,,,,,,,,
490612,001,2022-11-21_24h03.33.563,Info_measure_main_exp,2022.2.2,Linux x86_64,144.2377037,,,,,,,,,,,,,,,,,,masks/mask_003.jpg,,,,,,,,,,,,,,,,,,,,,,,,,,,,,,,,,,,,,,,,,,,0,3,3,2,1,,,,,,,,,,,,,,,,,,,,,,,,,,,,,,,,,,,,,,,,,,,,,,
490612,001,2022-11-21_24h03.33.563,Info_measure_main_exp,2022.2.2,Linux x86_64,144.2377037,,,,,,,,,,,,,,,,,,masks/mask_005.jpg,,,,,,,,,,,,,,,,,,,,,,,,,,,,,,,,,,,,,,,,,,,0,4,4,4,1,,,,,,,,,,,,,,,,,,,,,,,,,,,,,,,,,,,,,,,,,,,,,,
490612,001,2022-11-21_24h03.33.563,Info_measure_main_exp,2022.2.2,Linux x86_64,144.2377037,,,,,,,,,,,,,,,,,,masks/mask_002.jpg,,,,,,,,,,,,,,,,,,,,,,,,,,,,,,,,,,,,,,,,,,,,,,,,0,0,0,1,1,,,,,,,,,,,,,,,,,,,,,,,,,,,,,,,,,,,,,,,,,
490612,001,2022-11-21_24h03.33.563,Info_measure_main_exp,2022.2.2,Linux x86_64,144.2377037,,,,,,,,,,,,,,,,,,masks/mask_003.jpg,,,,,,,,,,,,,,,,,,,,,,,,,,,,,,,,,,,,,,,,,,,,,,,,0,1,1,2,1,,,,,,,,,,,,,,,,,,,,,,,,,,,,,,,,,,,,,,,,,
490612,001,2022-11-21_24h03.33.563,Info_measure_main_exp,2022.2.2,Linux x86_64,144.2377037,,,,,,,,,,,,,,,,,,masks/mask_005.jpg,,,,,,,,,,,,,,,,,,,,,,,,,,,,,,,,,,,,,,,,,,,,,,,,0,2,2,4,1,,,,,,,,,,,,,,,,,,,,,,,,,,,,,,,,,,,,,,,,,
490612,001,2022-11-21_24h03.33.563,Info_measure_main_exp,2022.2.2,Linux x86_64,144.2377037,,,,,,,,,,,,,,,,,,masks/mask_004.jpg,,,,,,,,,,,,,,,,,,,,,,,,,,,,,,,,,,,,,,,,,,,,,,,,0,3,3,3,1,,,,,,,,,,,,,,,,,,,,,,,,,,,,,,,,,,,,,,,,,
490612,001,2022-11-21_24h03.33.563,Info_measure_main_exp,2022.2.2,Linux x86_64,144.2377037,,,,,,,,,,,,,,,,,,masks/mask_001.jpg,,,,,,,,,,,,,,,,,,,,,,,,,,,,,,,,,,,,,,,,,,,,,,,,0,4,4,0,1,,,,,,,,,,,,,,,,,,,,,,,,,,,,,,,,,,,,,,,,,
490612,001,2022-11-21_24h03.33.563,Info_measure_main_exp,2022.2.2,Linux x86_64,144.2377037,,,,,,,,,,,,,,,,,,,,,,,,,,,,,,7,0.8486,1,,,,,,,,,,,,0,131,5,5,2250,2142,absent_patch/patch0002250.jpg,absent_patch/patch0002142.jpg,,,,,,,,,,,,,,,,,,,,0.007407407,0.012962963,1,0,0,response1disk,20,0.002777778,0.005555556,1,0,0,center_square,0,19,19,71,1,,,,,,,,,,,,,,,,,,,,,,,
490612,001,2022-11-21_24h03.33.563,Info_measure_main_exp,2022.2.2,Linux x86_64,144.2377037,,,,,,,,,,,,,,,,,,masks/mask_001.jpg,,,,,,,,,,,,,,,,,,,,,,,,,,,,,,,,,,,,,,,,,,,0,0,0,0,1,,,,,,,,,,,,,,,,,,,,,,,,,,,,,,,,,,,,,,,,,,,,,,
490612,001,2022-11-21_24h03.33.563,Info_measure_main_exp,2022.2.2,Linux x86_64,144.2377037,,,,,,,,,,,,,,,,,,masks/mask_002.jpg,,,,,,,,,,,,,,,,,,,,,,,,,,,,,,,,,,,,,,,,,,,0,1,1,1,1,,,,,,,,,,,,,,,,,,,,,,,,,,,,,,,,,,,,,,,,,,,,,,
490612,001,2022-11-21_24h03.33.563,Info_measure_main_exp,2022.2.2,Linux x86_64,144.2377037,,,,,,,,,,,,,,,,,,masks/mask_005.jpg,,,,,,,,,,,,,,,,,,,,,,,,,,,,,,,,,,,,,,,,,,,0,2,2,4,1,,,,,,,,,,,,,,,,,,,,,,,,,,,,,,,,,,,,,,,,,,,,,,
490612,001,2022-11-21_24h03.33.563,Info_measure_main_exp,2022.2.2,Linux x86_64,144.2377037,,,,,,,,,,,,,,,,,,masks/mask_003.jpg,,,,,,,,,,,,,,,,,,,,,,,,,,,,,,,,,,,,,,,,,,,0,3,3,2,1,,,,,,,,,,,,,,,,,,,,,,,,,,,,,,,,,,,,,,,,,,,,,,
490612,001,2022-11-21_24h03.33.563,Info_measure_main_exp,2022.2.2,Linux x86_64,144.2377037,,,,,,,,,,,,,,,,,,masks/mask_004.jpg,,,,,,,,,,,,,,,,,,,,,,,,,,,,,,,,,,,,,,,,,,,0,4,4,3,1,,,,,,,,,,,,,,,,,,,,,,,,,,,,,,,,,,,,,,,,,,,,,,
490612,001,2022-11-21_24h03.33.563,Info_measure_main_exp,2022.2.2,Linux x86_64,144.2377037,,,,,,,,,,,,,,,,,,masks/mask_005.jpg,,,,,,,,,,,,,,,,,,,,,,,,,,,,,,,,,,,,,,,,,,,,,,,,0,0,0,4,1,,,,,,,,,,,,,,,,,,,,,,,,,,,,,,,,,,,,,,,,,
490612,001,2022-11-21_24h03.33.563,Info_measure_main_exp,2022.2.2,Linux x86_64,144.2377037,,,,,,,,,,,,,,,,,,masks/mask_003.jpg,,,,,,,,,,,,,,,,,,,,,,,,,,,,,,,,,,,,,,,,,,,,,,,,0,1,1,2,1,,,,,,,,,,,,,,,,,,,,,,,,,,,,,,,,,,,,,,,,,
490612,001,2022-11-21_24h03.33.563,Info_measure_main_exp,2022.2.2,Linux x86_64,144.2377037,,,,,,,,,,,,,,,,,,masks/mask_002.jpg,,,,,,,,,,,,,,,,,,,,,,,,,,,,,,,,,,,,,,,,,,,,,,,,0,2,2,1,1,,,,,,,,,,,,,,,,,,,,,,,,,,,,,,,,,,,,,,,,,
490612,001,2022-11-21_24h03.33.563,Info_measure_main_exp,2022.2.2,Linux x86_64,144.2377037,,,,,,,,,,,,,,,,,,masks/mask_004.jpg,,,,,,,,,,,,,,,,,,,,,,,,,,,,,,,,,,,,,,,,,,,,,,,,0,3,3,3,1,,,,,,,,,,,,,,,,,,,,,,,,,,,,,,,,,,,,,,,,,
490612,001,2022-11-21_24h03.33.563,Info_measure_main_exp,2022.2.2,Linux x86_64,144.2377037,,,,,,,,,,,,,,,,,,masks/mask_001.jpg,,,,,,,,,,,,,,,,,,,,,,,,,,,,,,,,,,,,,,,,,,,,,,,,0,4,4,0,1,,,,,,,,,,,,,,,,,,,,,,,,,,,,,,,,,,,,,,,,,
490612,001,2022-11-21_24h03.33.563,Info_measure_main_exp,2022.2.2,Linux x86_64,144.2377037,,,,,,,,,,,,,,,,,,,,,,,,,,,,,,7,0.37,1,,,,,,,,,,,,0,131,5,5,2214,2142,absent_patch/patch0002214.jpg,absent_patch/patch0002142.jpg,,,,,,,,,,,,,,,,,,,,0.002777778,0.023148148,1,0,0,response1disk,21,0.002777778,0.011111111,1,0,0,center_square,0,20,20,102,1,,,,,,,,,,,,,,,,,,,,,,,
490612,001,2022-11-21_24h03.33.563,Info_measure_main_exp,2022.2.2,Linux x86_64,144.2377037,,,,,,,,,,,,,,,,,,masks/mask_001.jpg,,,,,,,,,,,,,,,,,,,,,,,,,,,,,,,,,,,,,,,,,,,0,0,0,0,1,,,,,,,,,,,,,,,,,,,,,,,,,,,,,,,,,,,,,,,,,,,,,,
490612,001,2022-11-21_24h03.33.563,Info_measure_main_exp,2022.2.2,Linux x86_64,144.2377037,,,,,,,,,,,,,,,,,,masks/mask_003.jpg,,,,,,,,,,,,,,,,,,,,,,,,,,,,,,,,,,,,,,,,,,,0,1,1,2,1,,,,,,,,,,,,,,,,,,,,,,,,,,,,,,,,,,,,,,,,,,,,,,
490612,001,2022-11-21_24h03.33.563,Info_measure_main_exp,2022.2.2,Linux x86_64,144.2377037,,,,,,,,,,,,,,,,,,masks/mask_002.jpg,,,,,,,,,,,,,,,,,,,,,,,,,,,,,,,,,,,,,,,,,,,0,2,2,1,1,,,,,,,,,,,,,,,,,,,,,,,,,,,,,,,,,,,,,,,,,,,,,,
490612,001,2022-11-21_24h03.33.563,Info_measure_main_exp,2022.2.2,Linux x86_64,144.2377037,,,,,,,,,,,,,,,,,,masks/mask_004.jpg,,,,,,,,,,,,,,,,,,,,,,,,,,,,,,,,,,,,,,,,,,,0,3,3,3,1,,,,,,,,,,,,,,,,,,,,,,,,,,,,,,,,,,,,,,,,,,,,,,
490612,001,2022-11-21_24h03.33.563,Info_measure_main_exp,2022.2.2,Linux x86_64,144.2377037,,,,,,,,,,,,,,,,,,masks/mask_005.jpg,,,,,,,,,,,,,,,,,,,,,,,,,,,,,,,,,,,,,,,,,,,0,4,4,4,1,,,,,,,,,,,,,,,,,,,,,,,,,,,,,,,,,,,,,,,,,,,,,,
490612,001,2022-11-21_24h03.33.563,Info_measure_main_exp,2022.2.2,Linux x86_64,144.2377037,,,,,,,,,,,,,,,,,,masks/mask_003.jpg,,,,,,,,,,,,,,,,,,,,,,,,,,,,,,,,,,,,,,,,,,,,,,,,0,0,0,2,1,,,,,,,,,,,,,,,,,,,,,,,,,,,,,,,,,,,,,,,,,
490612,001,2022-11-21_24h03.33.563,Info_measure_main_exp,2022.2.2,Linux x86_64,144.2377037,,,,,,,,,,,,,,,,,,masks/mask_005.jpg,,,,,,,,,,,,,,,,,,,,,,,,,,,,,,,,,,,,,,,,,,,,,,,,0,1,1,4,1,,,,,,,,,,,,,,,,,,,,,,,,,,,,,,,,,,,,,,,,,
490612,001,2022-11-21_24h03.33.563,Info_measure_main_exp,2022.2.2,Linux x86_64,144.2377037,,,,,,,,,,,,,,,,,,masks/mask_001.jpg,,,,,,,,,,,,,,,,,,,,,,,,,,,,,,,,,,,,,,,,,,,,,,,,0,2,2,0,1,,,,,,,,,,,,,,,,,,,,,,,,,,,,,,,,,,,,,,,,,
490612,001,2022-11-21_24h03.33.563,Info_measure_main_exp,2022.2.2,Linux x86_64,144.2377037,,,,,,,,,,,,,,,,,,masks/mask_004.jpg,,,,,,,,,,,,,,,,,,,,,,,,,,,,,,,,,,,,,,,,,,,,,,,,0,3,3,3,1,,,,,,,,,,,,,,,,,,,,,,,,,,,,,,,,,,,,,,,,,
490612,001,2022-11-21_24h03.33.563,Info_measure_main_exp,2022.2.2,Linux x86_64,144.2377037,,,,,,,,,,,,,,,,,,masks/mask_002.jpg,,,,,,,,,,,,,,,,,,,,,,,,,,,,,,,,,,,,,,,,,,,,,,,,0,4,4,1,1,,,,,,,,,,,,,,,,,,,,,,,,,,,,,,,,,,,,,,,,,
490612,001,2022-11-21_24h03.33.563,Info_measure_main_exp,2022.2.2,Linux x86_64,144.2377037,,,,,,,,,,,,,,,,,,,,,,,,,,,,,,7,0.9568,1,,,,,,,,,,,,1,131,5,5,1,2142,present_patch/cong_131_5_a.jpg,absent_patch/patch0002142.jpg,,,,,,,,,,,,,,,,,,,,0.010185185,0.023148148,1,0,0,response1disk,22,0.008333333,0.008333333,1,0,0,center_square,0,21,21,80,1,,,,,,,,,,,,,,,,,,,,,,,
490612,001,2022-11-21_24h03.33.563,Info_measure_main_exp,2022.2.2,Linux x86_64,144.2377037,,,,,,,,,,,,,,,,,,masks/mask_005.jpg,,,,,,,,,,,,,,,,,,,,,,,,,,,,,,,,,,,,,,,,,,,0,0,0,4,1,,,,,,,,,,,,,,,,,,,,,,,,,,,,,,,,,,,,,,,,,,,,,,
490612,001,2022-11-21_24h03.33.563,Info_measure_main_exp,2022.2.2,Linux x86_64,144.2377037,,,,,,,,,,,,,,,,,,masks/mask_002.jpg,,,,,,,,,,,,,,,,,,,,,,,,,,,,,,,,,,,,,,,,,,,0,1,1,1,1,,,,,,,,,,,,,,,,,,,,,,,,,,,,,,,,,,,,,,,,,,,,,,
490612,001,2022-11-21_24h03.33.563,Info_measure_main_exp,2022.2.2,Linux x86_64,144.2377037,,,,,,,,,,,,,,,,,,masks/mask_001.jpg,,,,,,,,,,,,,,,,,,,,,,,,,,,,,,,,,,,,,,,,,,,0,2,2,0,1,,,,,,,,,,,,,,,,,,,,,,,,,,,,,,,,,,,,,,,,,,,,,,
490612,001,2022-11-21_24h03.33.563,Info_measure_main_exp,2022.2.2,Linux x86_64,144.2377037,,,,,,,,,,,,,,,,,,masks/mask_003.jpg,,,,,,,,,,,,,,,,,,,,,,,,,,,,,,,,,,,,,,,,,,,0,3,3,2,1,,,,,,,,,,,,,,,,,,,,,,,,,,,,,,,,,,,,,,,,,,,,,,
490612,001,2022-11-21_24h03.33.563,Info_measure_main_exp,2022.2.2,Linux x86_64,144.2377037,,,,,,,,,,,,,,,,,,masks/mask_004.jpg,,,,,,,,,,,,,,,,,,,,,,,,,,,,,,,,,,,,,,,,,,,0,4,4,3,1,,,,,,,,,,,,,,,,,,,,,,,,,,,,,,,,,,,,,,,,,,,,,,
490612,001,2022-11-21_24h03.33.563,Info_measure_main_exp,2022.2.2,Linux x86_64,144.2377037,,,,,,,,,,,,,,,,,,masks/mask_001.jpg,,,,,,,,,,,,,,,,,,,,,,,,,,,,,,,,,,,,,,,,,,,,,,,,0,0,0,0,1,,,,,,,,,,,,,,,,,,,,,,,,,,,,,,,,,,,,,,,,,
490612,001,2022-11-21_24h03.33.563,Info_measure_main_exp,2022.2.2,Linux x86_64,144.2377037,,,,,,,,,,,,,,,,,,masks/mask_004.jpg,,,,,,,,,,,,,,,,,,,,,,,,,,,,,,,,,,,,,,,,,,,,,,,,0,1,1,3,1,,,,,,,,,,,,,,,,,,,,,,,,,,,,,,,,,,,,,,,,,
490612,001,2022-11-21_24h03.33.563,Info_measure_main_exp,2022.2.2,Linux x86_64,144.2377037,,,,,,,,,,,,,,,,,,masks/mask_003.jpg,,,,,,,,,,,,,,,,,,,,,,,,,,,,,,,,,,,,,,,,,,,,,,,,0,2,2,2,1,,,,,,,,,,,,,,,,,,,,,,,,,,,,,,,,,,,,,,,,,
490612,001,2022-11-21_24h03.33.563,Info_measure_main_exp,2022.2.2,Linux x86_64,144.2377037,,,,,,,,,,,,,,,,,,masks/mask_005.jpg,,,,,,,,,,,,,,,,,,,,,,,,,,,,,,,,,,,,,,,,,,,,,,,,0,3,3,4,1,,,,,,,,,,,,,,,,,,,,,,,,,,,,,,,,,,,,,,,,,
490612,001,2022-11-21_24h03.33.563,Info_measure_main_exp,2022.2.2,Linux x86_64,144.2377037,,,,,,,,,,,,,,,,,,masks/mask_002.jpg,,,,,,,,,,,,,,,,,,,,,,,,,,,,,,,,,,,,,,,,,,,,,,,,0,4,4,1,1,,,,,,,,,,,,,,,,,,,,,,,,,,,,,,,,,,,,,,,,,
490612,001,2022-11-21_24h03.33.563,Info_measure_main_exp,2022.2.2,Linux x86_64,144.2377037,,,,,,,,,,,,,,,,,,,,,,,,,,,,,,0,0.6393,1,,,,,,,,,,,,0,131,5,5,2250,2250,absent_patch/patch0002250.jpg,absent_patch/patch0002250.jpg,,,,,,,,,,,,,,,,,,,,-0.012037037,0.038888889,1,0,0,response7disk,23,-0.005555556,0.009259259,1,0,0,center_square,0,22,22,56,1,,,,,,,,,,,,,,,,,,,,,,,
490612,001,2022-11-21_24h03.33.563,Info_measure_main_exp,2022.2.2,Linux x86_64,144.2377037,,,,,,,,,,,,,,,,,,masks/mask_001.jpg,,,,,,,,,,,,,,,,,,,,,,,,,,,,,,,,,,,,,,,,,,,0,0,0,0,1,,,,,,,,,,,,,,,,,,,,,,,,,,,,,,,,,,,,,,,,,,,,,,
490612,001,2022-11-21_24h03.33.563,Info_measure_main_exp,2022.2.2,Linux x86_64,144.2377037,,,,,,,,,,,,,,,,,,masks/mask_005.jpg,,,,,,,,,,,,,,,,,,,,,,,,,,,,,,,,,,,,,,,,,,,0,1,1,4,1,,,,,,,,,,,,,,,,,,,,,,,,,,,,,,,,,,,,,,,,,,,,,,
490612,001,2022-11-21_24h03.33.563,Info_measure_main_exp,2022.2.2,Linux x86_64,144.2377037,,,,,,,,,,,,,,,,,,masks/mask_002.jpg,,,,,,,,,,,,,,,,,,,,,,,,,,,,,,,,,,,,,,,,,,,0,2,2,1,1,,,,,,,,,,,,,,,,,,,,,,,,,,,,,,,,,,,,,,,,,,,,,,
490612,001,2022-11-21_24h03.33.563,Info_measure_main_exp,2022.2.2,Linux x86_64,144.2377037,,,,,,,,,,,,,,,,,,masks/mask_004.jpg,,,,,,,,,,,,,,,,,,,,,,,,,,,,,,,,,,,,,,,,,,,0,3,3,3,1,,,,,,,,,,,,,,,,,,,,,,,,,,,,,,,,,,,,,,,,,,,,,,
490612,001,2022-11-21_24h03.33.563,Info_measure_main_exp,2022.2.2,Linux x86_64,144.2377037,,,,,,,,,,,,,,,,,,masks/mask_003.jpg,,,,,,,,,,,,,,,,,,,,,,,,,,,,,,,,,,,,,,,,,,,0,4,4,2,1,,,,,,,,,,,,,,,,,,,,,,,,,,,,,,,,,,,,,,,,,,,,,,
490612,001,2022-11-21_24h03.33.563,Info_measure_main_exp,2022.2.2,Linux x86_64,144.2377037,,,,,,,,,,,,,,,,,,masks/mask_002.jpg,,,,,,,,,,,,,,,,,,,,,,,,,,,,,,,,,,,,,,,,,,,,,,,,0,0,0,1,1,,,,,,,,,,,,,,,,,,,,,,,,,,,,,,,,,,,,,,,,,
490612,001,2022-11-21_24h03.33.563,Info_measure_main_exp,2022.2.2,Linux x86_64,144.2377037,,,,,,,,,,,,,,,,,,masks/mask_005.jpg,,,,,,,,,,,,,,,,,,,,,,,,,,,,,,,,,,,,,,,,,,,,,,,,0,1,1,4,1,,,,,,,,,,,,,,,,,,,,,,,,,,,,,,,,,,,,,,,,,
490612,001,2022-11-21_24h03.33.563,Info_measure_main_exp,2022.2.2,Linux x86_64,144.2377037,,,,,,,,,,,,,,,,,,masks/mask_001.jpg,,,,,,,,,,,,,,,,,,,,,,,,,,,,,,,,,,,,,,,,,,,,,,,,0,2,2,0,1,,,,,,,,,,,,,,,,,,,,,,,,,,,,,,,,,,,,,,,,,
490612,001,2022-11-21_24h03.33.563,Info_measure_main_exp,2022.2.2,Linux x86_64,144.2377037,,,,,,,,,,,,,,,,,,masks/mask_003.jpg,,,,,,,,,,,,,,,,,,,,,,,,,,,,,,,,,,,,,,,,,,,,,,,,0,3,3,2,1,,,,,,,,,,,,,,,,,,,,,,,,,,,,,,,,,,,,,,,,,
490612,001,2022-11-21_24h03.33.563,Info_measure_main_exp,2022.2.2,Linux x86_64,144.2377037,,,,,,,,,,,,,,,,,,masks/mask_004.jpg,,,,,,,,,,,,,,,,,,,,,,,,,,,,,,,,,,,,,,,,,,,,,,,,0,4,4,3,1,,,,,,,,,,,,,,,,,,,,,,,,,,,,,,,,,,,,,,,,,
490612,001,2022-11-21_24h03.33.563,Info_measure_main_exp,2022.2.2,Linux x86_64,144.2377037,,,,,,,,,,,,,,,,,,,,,,,,,,,,,,7,0.4467,1,,,,,,,,,,,,0,131,5,5,1950,2082,absent_patch/patch0001950.jpg,absent_patch/patch0002082.jpg,,,,,,,,,,,,,,,,,,,,0.017592593,0.036111111,1,0,0,response1disk,24,0.005555556,0.009259259,1,0,0,center_square,0,23,23,12,1,,,,,,,,,,,,,,,,,,,,,,,
490612,001,2022-11-21_24h03.33.563,Info_measure_main_exp,2022.2.2,Linux x86_64,144.2377037,,,,,,,,,,,,,,,,,,masks/mask_002.jpg,,,,,,,,,,,,,,,,,,,,,,,,,,,,,,,,,,,,,,,,,,,0,0,0,1,1,,,,,,,,,,,,,,,,,,,,,,,,,,,,,,,,,,,,,,,,,,,,,,
490612,001,2022-11-21_24h03.33.563,Info_measure_main_exp,2022.2.2,Linux x86_64,144.2377037,,,,,,,,,,,,,,,,,,masks/mask_004.jpg,,,,,,,,,,,,,,,,,,,,,,,,,,,,,,,,,,,,,,,,,,,0,1,1,3,1,,,,,,,,,,,,,,,,,,,,,,,,,,,,,,,,,,,,,,,,,,,,,,
490612,001,2022-11-21_24h03.33.563,Info_measure_main_exp,2022.2.2,Linux x86_64,144.2377037,,,,,,,,,,,,,,,,,,masks/mask_001.jpg,,,,,,,,,,,,,,,,,,,,,,,,,,,,,,,,,,,,,,,,,,,0,2,2,0,1,,,,,,,,,,,,,,,,,,,,,,,,,,,,,,,,,,,,,,,,,,,,,,
490612,001,2022-11-21_24h03.33.563,Info_measure_main_exp,2022.2.2,Linux x86_64,144.2377037,,,,,,,,,,,,,,,,,,masks/mask_005.jpg,,,,,,,,,,,,,,,,,,,,,,,,,,,,,,,,,,,,,,,,,,,0,3,3,4,1,,,,,,,,,,,,,,,,,,,,,,,,,,,,,,,,,,,,,,,,,,,,,,
490612,001,2022-11-21_24h03.33.563,Info_measure_main_exp,2022.2.2,Linux x86_64,144.2377037,,,,,,,,,,,,,,,,,,masks/mask_003.jpg,,,,,,,,,,,,,,,,,,,,,,,,,,,,,,,,,,,,,,,,,,,0,4,4,2,1,,,,,,,,,,,,,,,,,,,,,,,,,,,,,,,,,,,,,,,,,,,,,,
490612,001,2022-11-21_24h03.33.563,Info_measure_main_exp,2022.2.2,Linux x86_64,144.2377037,,,,,,,,,,,,,,,,,,masks/mask_001.jpg,,,,,,,,,,,,,,,,,,,,,,,,,,,,,,,,,,,,,,,,,,,,,,,,0,0,0,0,1,,,,,,,,,,,,,,,,,,,,,,,,,,,,,,,,,,,,,,,,,
490612,001,2022-11-21_24h03.33.563,Info_measure_main_exp,2022.2.2,Linux x86_64,144.2377037,,,,,,,,,,,,,,,,,,masks/mask_004.jpg,,,,,,,,,,,,,,,,,,,,,,,,,,,,,,,,,,,,,,,,,,,,,,,,0,1,1,3,1,,,,,,,,,,,,,,,,,,,,,,,,,,,,,,,,,,,,,,,,,
490612,001,2022-11-21_24h03.33.563,Info_measure_main_exp,2022.2.2,Linux x86_64,144.2377037,,,,,,,,,,,,,,,,,,masks/mask_003.jpg,,,,,,,,,,,,,,,,,,,,,,,,,,,,,,,,,,,,,,,,,,,,,,,,0,2,2,2,1,,,,,,,,,,,,,,,,,,,,,,,,,,,,,,,,,,,,,,,,,
490612,001,2022-11-21_24h03.33.563,Info_measure_main_exp,2022.2.2,Linux x86_64,144.2377037,,,,,,,,,,,,,,,,,,masks/mask_005.jpg,,,,,,,,,,,,,,,,,,,,,,,,,,,,,,,,,,,,,,,,,,,,,,,,0,3,3,4,1,,,,,,,,,,,,,,,,,,,,,,,,,,,,,,,,,,,,,,,,,
490612,001,2022-11-21_24h03.33.563,Info_measure_main_exp,2022.2.2,Linux x86_64,144.2377037,,,,,,,,,,,,,,,,,,masks/mask_002.jpg,,,,,,,,,,,,,,,,,,,,,,,,,,,,,,,,,,,,,,,,,,,,,,,,0,4,4,1,1,,,,,,,,,,,,,,,,,,,,,,,,,,,,,,,,,,,,,,,,,
490612,001,2022-11-21_24h03.33.563,Info_measure_main_exp,2022.2.2,Linux x86_64,144.2377037,,,,,,,,,,,,,,,,,,,,,,,,,,,,,,7,0.4084,1,,,,,,,,,,,,0,131,5,5,1986,1950,absent_patch/patch0001986.jpg,absent_patch/patch0001950.jpg,,,,,,,,,,,,,,,,,,,,0.018518519,0.033333333,1,0,0,response1disk,25,0.001851852,0.007407407,1,0,0,center_square,0,24,24,15,1,,,,,,,,,,,,,,,,,,,,,,,
490612,001,2022-11-21_24h03.33.563,Info_measure_main_exp,2022.2.2,Linux x86_64,144.2377037,,,,,,,,,,,,,,,,,,masks/mask_003.jpg,,,,,,,,,,,,,,,,,,,,,,,,,,,,,,,,,,,,,,,,,,,0,0,0,2,1,,,,,,,,,,,,,,,,,,,,,,,,,,,,,,,,,,,,,,,,,,,,,,
490612,001,2022-11-21_24h03.33.563,Info_measure_main_exp,2022.2.2,Linux x86_64,144.2377037,,,,,,,,,,,,,,,,,,masks/mask_002.jpg,,,,,,,,,,,,,,,,,,,,,,,,,,,,,,,,,,,,,,,,,,,0,1,1,1,1,,,,,,,,,,,,,,,,,,,,,,,,,,,,,,,,,,,,,,,,,,,,,,
490612,001,2022-11-21_24h03.33.563,Info_measure_main_exp,2022.2.2,Linux x86_64,144.2377037,,,,,,,,,,,,,,,,,,masks/mask_004.jpg,,,,,,,,,,,,,,,,,,,,,,,,,,,,,,,,,,,,,,,,,,,0,2,2,3,1,,,,,,,,,,,,,,,,,,,,,,,,,,,,,,,,,,,,,,,,,,,,,,
490612,001,2022-11-21_24h03.33.563,Info_measure_main_exp,2022.2.2,Linux x86_64,144.2377037,,,,,,,,,,,,,,,,,,masks/mask_001.jpg,,,,,,,,,,,,,,,,,,,,,,,,,,,,,,,,,,,,,,,,,,,0,3,3,0,1,,,,,,,,,,,,,,,,,,,,,,,,,,,,,,,,,,,,,,,,,,,,,,
490612,001,2022-11-21_24h03.33.563,Info_measure_main_exp,2022.2.2,Linux x86_64,144.2377037,,,,,,,,,,,,,,,,,,masks/mask_005.jpg,,,,,,,,,,,,,,,,,,,,,,,,,,,,,,,,,,,,,,,,,,,0,4,4,4,1,,,,,,,,,,,,,,,,,,,,,,,,,,,,,,,,,,,,,,,,,,,,,,
490612,001,2022-11-21_24h03.33.563,Info_measure_main_exp,2022.2.2,Linux x86_64,144.2377037,,,,,,,,,,,,,,,,,,masks/mask_004.jpg,,,,,,,,,,,,,,,,,,,,,,,,,,,,,,,,,,,,,,,,,,,,,,,,0,0,0,3,1,,,,,,,,,,,,,,,,,,,,,,,,,,,,,,,,,,,,,,,,,
490612,001,2022-11-21_24h03.33.563,Info_measure_main_exp,2022.2.2,Linux x86_64,144.2377037,,,,,,,,,,,,,,,,,,masks/mask_005.jpg,,,,,,,,,,,,,,,,,,,,,,,,,,,,,,,,,,,,,,,,,,,,,,,,0,1,1,4,1,,,,,,,,,,,,,,,,,,,,,,,,,,,,,,,,,,,,,,,,,
490612,001,2022-11-21_24h03.33.563,Info_measure_main_exp,2022.2.2,Linux x86_64,144.2377037,,,,,,,,,,,,,,,,,,masks/mask_001.jpg,,,,,,,,,,,,,,,,,,,,,,,,,,,,,,,,,,,,,,,,,,,,,,,,0,2,2,0,1,,,,,,,,,,,,,,,,,,,,,,,,,,,,,,,,,,,,,,,,,
490612,001,2022-11-21_24h03.33.563,Info_measure_main_exp,2022.2.2,Linux x86_64,144.2377037,,,,,,,,,,,,,,,,,,masks/mask_002.jpg,,,,,,,,,,,,,,,,,,,,,,,,,,,,,,,,,,,,,,,,,,,,,,,,0,3,3,1,1,,,,,,,,,,,,,,,,,,,,,,,,,,,,,,,,,,,,,,,,,
490612,001,2022-11-21_24h03.33.563,Info_measure_main_exp,2022.2.2,Linux x86_64,144.2377037,,,,,,,,,,,,,,,,,,masks/mask_003.jpg,,,,,,,,,,,,,,,,,,,,,,,,,,,,,,,,,,,,,,,,,,,,,,,,0,4,4,2,1,,,,,,,,,,,,,,,,,,,,,,,,,,,,,,,,,,,,,,,,,
490612,001,2022-11-21_24h03.33.563,Info_measure_main_exp,2022.2.2,Linux x86_64,144.2377037,,,,,,,,,,,,,,,,,,,,,,,,,,,,,,7,0.5566,1,,,,,,,,,,,,1,131,5,5,1,1986,present_patch/cong_131_5_a.jpg,absent_patch/patch0001986.jpg,,,,,,,,,,,,,,,,,,,,0.006481481,0.02037037,1,0,0,response1disk,26,0.000925926,0.006481481,1,0,0,center_square,0,25,25,106,1,,,,,,,,,,,,,,,,,,,,,,,
490612,001,2022-11-21_24h03.33.563,Info_measure_main_exp,2022.2.2,Linux x86_64,144.2377037,,,,,,,,,,,,,,,,,,masks/mask_002.jpg,,,,,,,,,,,,,,,,,,,,,,,,,,,,,,,,,,,,,,,,,,,0,0,0,1,1,,,,,,,,,,,,,,,,,,,,,,,,,,,,,,,,,,,,,,,,,,,,,,
490612,001,2022-11-21_24h03.33.563,Info_measure_main_exp,2022.2.2,Linux x86_64,144.2377037,,,,,,,,,,,,,,,,,,masks/mask_004.jpg,,,,,,,,,,,,,,,,,,,,,,,,,,,,,,,,,,,,,,,,,,,0,1,1,3,1,,,,,,,,,,,,,,,,,,,,,,,,,,,,,,,,,,,,,,,,,,,,,,
490612,001,2022-11-21_24h03.33.563,Info_measure_main_exp,2022.2.2,Linux x86_64,144.2377037,,,,,,,,,,,,,,,,,,masks/mask_001.jpg,,,,,,,,,,,,,,,,,,,,,,,,,,,,,,,,,,,,,,,,,,,0,2,2,0,1,,,,,,,,,,,,,,,,,,,,,,,,,,,,,,,,,,,,,,,,,,,,,,
490612,001,2022-11-21_24h03.33.563,Info_measure_main_exp,2022.2.2,Linux x86_64,144.2377037,,,,,,,,,,,,,,,,,,masks/mask_003.jpg,,,,,,,,,,,,,,,,,,,,,,,,,,,,,,,,,,,,,,,,,,,0,3,3,2,1,,,,,,,,,,,,,,,,,,,,,,,,,,,,,,,,,,,,,,,,,,,,,,
490612,001,2022-11-21_24h03.33.563,Info_measure_main_exp,2022.2.2,Linux x86_64,144.2377037,,,,,,,,,,,,,,,,,,masks/mask_005.jpg,,,,,,,,,,,,,,,,,,,,,,,,,,,,,,,,,,,,,,,,,,,0,4,4,4,1,,,,,,,,,,,,,,,,,,,,,,,,,,,,,,,,,,,,,,,,,,,,,,
490612,001,2022-11-21_24h03.33.563,Info_measure_main_exp,2022.2.2,Linux x86_64,144.2377037,,,,,,,,,,,,,,,,,,masks/mask_003.jpg,,,,,,,,,,,,,,,,,,,,,,,,,,,,,,,,,,,,,,,,,,,,,,,,0,0,0,2,1,,,,,,,,,,,,,,,,,,,,,,,,,,,,,,,,,,,,,,,,,
490612,001,2022-11-21_24h03.33.563,Info_measure_main_exp,2022.2.2,Linux x86_64,144.2377037,,,,,,,,,,,,,,,,,,masks/mask_004.jpg,,,,,,,,,,,,,,,,,,,,,,,,,,,,,,,,,,,,,,,,,,,,,,,,0,1,1,3,1,,,,,,,,,,,,,,,,,,,,,,,,,,,,,,,,,,,,,,,,,
490612,001,2022-11-21_24h03.33.563,Info_measure_main_exp,2022.2.2,Linux x86_64,144.2377037,,,,,,,,,,,,,,,,,,masks/mask_001.jpg,,,,,,,,,,,,,,,,,,,,,,,,,,,,,,,,,,,,,,,,,,,,,,,,0,2,2,0,1,,,,,,,,,,,,,,,,,,,,,,,,,,,,,,,,,,,,,,,,,
490612,001,2022-11-21_24h03.33.563,Info_measure_main_exp,2022.2.2,Linux x86_64,144.2377037,,,,,,,,,,,,,,,,,,masks/mask_005.jpg,,,,,,,,,,,,,,,,,,,,,,,,,,,,,,,,,,,,,,,,,,,,,,,,0,3,3,4,1,,,,,,,,,,,,,,,,,,,,,,,,,,,,,,,,,,,,,,,,,
490612,001,2022-11-21_24h03.33.563,Info_measure_main_exp,2022.2.2,Linux x86_64,144.2377037,,,,,,,,,,,,,,,,,,masks/mask_002.jpg,,,,,,,,,,,,,,,,,,,,,,,,,,,,,,,,,,,,,,,,,,,,,,,,0,4,4,1,1,,,,,,,,,,,,,,,,,,,,,,,,,,,,,,,,,,,,,,,,,
490612,001,2022-11-21_24h03.33.563,Info_measure_main_exp,2022.2.2,Linux x86_64,144.2377037,,,,,,,,,,,,,,,,,,,,,,,,,,,,,,7,0.4515,1,,,,,,,,,,,,1,131,5,5,1,1974,present_patch/cong_131_5_a.jpg,absent_patch/patch0001974.jpg,,,,,,,,,,,,,,,,,,,,0.019444444,0.049074074,1,0,0,response1disk,27,0.008333333,0.006481481,1,0,0,center_square,0,26,26,69,1,,,,,,,,,,,,,,,,,,,,,,,
490612,001,2022-11-21_24h03.33.563,Info_measure_main_exp,2022.2.2,Linux x86_64,144.2377037,,,,,,,,,,,,,,,,,,masks/mask_004.jpg,,,,,,,,,,,,,,,,,,,,,,,,,,,,,,,,,,,,,,,,,,,0,0,0,3,1,,,,,,,,,,,,,,,,,,,,,,,,,,,,,,,,,,,,,,,,,,,,,,
490612,001,2022-11-21_24h03.33.563,Info_measure_main_exp,2022.2.2,Linux x86_64,144.2377037,,,,,,,,,,,,,,,,,,masks/mask_002.jpg,,,,,,,,,,,,,,,,,,,,,,,,,,,,,,,,,,,,,,,,,,,0,1,1,1,1,,,,,,,,,,,,,,,,,,,,,,,,,,,,,,,,,,,,,,,,,,,,,,
490612,001,2022-11-21_24h03.33.563,Info_measure_main_exp,2022.2.2,Linux x86_64,144.2377037,,,,,,,,,,,,,,,,,,masks/mask_003.jpg,,,,,,,,,,,,,,,,,,,,,,,,,,,,,,,,,,,,,,,,,,,0,2,2,2,1,,,,,,,,,,,,,,,,,,,,,,,,,,,,,,,,,,,,,,,,,,,,,,
490612,001,2022-11-21_24h03.33.563,Info_measure_main_exp,2022.2.2,Linux x86_64,144.2377037,,,,,,,,,,,,,,,,,,masks/mask_005.jpg,,,,,,,,,,,,,,,,,,,,,,,,,,,,,,,,,,,,,,,,,,,0,3,3,4,1,,,,,,,,,,,,,,,,,,,,,,,,,,,,,,,,,,,,,,,,,,,,,,
490612,001,2022-11-21_24h03.33.563,Info_measure_main_exp,2022.2.2,Linux x86_64,144.2377037,,,,,,,,,,,,,,,,,,masks/mask_001.jpg,,,,,,,,,,,,,,,,,,,,,,,,,,,,,,,,,,,,,,,,,,,0,4,4,0,1,,,,,,,,,,,,,,,,,,,,,,,,,,,,,,,,,,,,,,,,,,,,,,
490612,001,2022-11-21_24h03.33.563,Info_measure_main_exp,2022.2.2,Linux x86_64,144.2377037,,,,,,,,,,,,,,,,,,masks/mask_002.jpg,,,,,,,,,,,,,,,,,,,,,,,,,,,,,,,,,,,,,,,,,,,,,,,,0,0,0,1,1,,,,,,,,,,,,,,,,,,,,,,,,,,,,,,,,,,,,,,,,,
490612,001,2022-11-21_24h03.33.563,Info_measure_main_exp,2022.2.2,Linux x86_64,144.2377037,,,,,,,,,,,,,,,,,,masks/mask_001.jpg,,,,,,,,,,,,,,,,,,,,,,,,,,,,,,,,,,,,,,,,,,,,,,,,0,1,1,0,1,,,,,,,,,,,,,,,,,,,,,,,,,,,,,,,,,,,,,,,,,
490612,001,2022-11-21_24h03.33.563,Info_measure_main_exp,2022.2.2,Linux x86_64,144.2377037,,,,,,,,,,,,,,,,,,masks/mask_005.jpg,,,,,,,,,,,,,,,,,,,,,,,,,,,,,,,,,,,,,,,,,,,,,,,,0,2,2,4,1,,,,,,,,,,,,,,,,,,,,,,,,,,,,,,,,,,,,,,,,,
490612,001,2022-11-21_24h03.33.563,Info_measure_main_exp,2022.2.2,Linux x86_64,144.2377037,,,,,,,,,,,,,,,,,,masks/mask_003.jpg,,,,,,,,,,,,,,,,,,,,,,,,,,,,,,,,,,,,,,,,,,,,,,,,0,3,3,2,1,,,,,,,,,,,,,,,,,,,,,,,,,,,,,,,,,,,,,,,,,
490612,001,2022-11-21_24h03.33.563,Info_measure_main_exp,2022.2.2,Linux x86_64,144.2377037,,,,,,,,,,,,,,,,,,masks/mask_004.jpg,,,,,,,,,,,,,,,,,,,,,,,,,,,,,,,,,,,,,,,,,,,,,,,,0,4,4,3,1,,,,,,,,,,,,,,,,,,,,,,,,,,,,,,,,,,,,,,,,,
490612,001,2022-11-21_24h03.33.563,Info_measure_main_exp,2022.2.2,Linux x86_64,144.2377037,,,,,,,,,,,,,,,,,,,,,,,,,,,,,,0,0.6529,1,,,,,,,,,,,,0,131,5,5,2142,2142,absent_patch/patch0002142.jpg,absent_patch/patch0002142.jpg,,,,,,,,,,,,,,,,,,,,-0.012962963,0.022222222,1,0,0,response7disk,28,0.001851852,0.002777778,1,0,0,center_square,0,27,27,13,1,,,,,,,,,,,,,,,,,,,,,,,
490612,001,2022-11-21_24h03.33.563,Info_measure_main_exp,2022.2.2,Linux x86_64,144.2377037,,,,,,,,,,,,,,,,,,masks/mask_004.jpg,,,,,,,,,,,,,,,,,,,,,,,,,,,,,,,,,,,,,,,,,,,0,0,0,3,1,,,,,,,,,,,,,,,,,,,,,,,,,,,,,,,,,,,,,,,,,,,,,,
490612,001,2022-11-21_24h03.33.563,Info_measure_main_exp,2022.2.2,Linux x86_64,144.2377037,,,,,,,,,,,,,,,,,,masks/mask_005.jpg,,,,,,,,,,,,,,,,,,,,,,,,,,,,,,,,,,,,,,,,,,,0,1,1,4,1,,,,,,,,,,,,,,,,,,,,,,,,,,,,,,,,,,,,,,,,,,,,,,
490612,001,2022-11-21_24h03.33.563,Info_measure_main_exp,2022.2.2,Linux x86_64,144.2377037,,,,,,,,,,,,,,,,,,masks/mask_003.jpg,,,,,,,,,,,,,,,,,,,,,,,,,,,,,,,,,,,,,,,,,,,0,2,2,2,1,,,,,,,,,,,,,,,,,,,,,,,,,,,,,,,,,,,,,,,,,,,,,,
490612,001,2022-11-21_24h03.33.563,Info_measure_main_exp,2022.2.2,Linux x86_64,144.2377037,,,,,,,,,,,,,,,,,,masks/mask_001.jpg,,,,,,,,,,,,,,,,,,,,,,,,,,,,,,,,,,,,,,,,,,,0,3,3,0,1,,,,,,,,,,,,,,,,,,,,,,,,,,,,,,,,,,,,,,,,,,,,,,
490612,001,2022-11-21_24h03.33.563,Info_measure_main_exp,2022.2.2,Linux x86_64,144.2377037,,,,,,,,,,,,,,,,,,masks/mask_002.jpg,,,,,,,,,,,,,,,,,,,,,,,,,,,,,,,,,,,,,,,,,,,0,4,4,1,1,,,,,,,,,,,,,,,,,,,,,,,,,,,,,,,,,,,,,,,,,,,,,,
490612,001,2022-11-21_24h03.33.563,Info_measure_main_exp,2022.2.2,Linux x86_64,144.2377037,,,,,,,,,,,,,,,,,,masks/mask_005.jpg,,,,,,,,,,,,,,,,,,,,,,,,,,,,,,,,,,,,,,,,,,,,,,,,0,0,0,4,1,,,,,,,,,,,,,,,,,,,,,,,,,,,,,,,,,,,,,,,,,
490612,001,2022-11-21_24h03.33.563,Info_measure_main_exp,2022.2.2,Linux x86_64,144.2377037,,,,,,,,,,,,,,,,,,masks/mask_002.jpg,,,,,,,,,,,,,,,,,,,,,,,,,,,,,,,,,,,,,,,,,,,,,,,,0,1,1,1,1,,,,,,,,,,,,,,,,,,,,,,,,,,,,,,,,,,,,,,,,,
490612,001,2022-11-21_24h03.33.563,Info_measure_main_exp,2022.2.2,Linux x86_64,144.2377037,,,,,,,,,,,,,,,,,,masks/mask_003.jpg,,,,,,,,,,,,,,,,,,,,,,,,,,,,,,,,,,,,,,,,,,,,,,,,0,2,2,2,1,,,,,,,,,,,,,,,,,,,,,,,,,,,,,,,,,,,,,,,,,
490612,001,2022-11-21_24h03.33.563,Info_measure_main_exp,2022.2.2,Linux x86_64,144.2377037,,,,,,,,,,,,,,,,,,masks/mask_001.jpg,,,,,,,,,,,,,,,,,,,,,,,,,,,,,,,,,,,,,,,,,,,,,,,,0,3,3,0,1,,,,,,,,,,,,,,,,,,,,,,,,,,,,,,,,,,,,,,,,,
490612,001,2022-11-21_24h03.33.563,Info_measure_main_exp,2022.2.2,Linux x86_64,144.2377037,,,,,,,,,,,,,,,,,,masks/mask_004.jpg,,,,,,,,,,,,,,,,,,,,,,,,,,,,,,,,,,,,,,,,,,,,,,,,0,4,4,3,1,,,,,,,,,,,,,,,,,,,,,,,,,,,,,,,,,,,,,,,,,
490612,001,2022-11-21_24h03.33.563,Info_measure_main_exp,2022.2.2,Linux x86_64,144.2377037,,,,,,,,,,,,,,,,,,,,,,,,,,,,,,7,0.9852,1,,,,,,,,,,,,0,131,5,5,2298,2214,absent_patch/patch0002298.jpg,absent_patch/patch0002214.jpg,,,,,,,,,,,,,,,,,,,,0.023148148,0.038888889,1,0,0,response1disk,29,-0.00462963,0.003703704,1,0,0,center_square,0,28,28,99,1,,,,,,,,,,,,,,,,,,,,,,,
490612,001,2022-11-21_24h03.33.563,Info_measure_main_exp,2022.2.2,Linux x86_64,144.2377037,,,,,,,,,,,,,,,,,,masks/mask_005.jpg,,,,,,,,,,,,,,,,,,,,,,,,,,,,,,,,,,,,,,,,,,,0,0,0,4,1,,,,,,,,,,,,,,,,,,,,,,,,,,,,,,,,,,,,,,,,,,,,,,
490612,001,2022-11-21_24h03.33.563,Info_measure_main_exp,2022.2.2,Linux x86_64,144.2377037,,,,,,,,,,,,,,,,,,masks/mask_002.jpg,,,,,,,,,,,,,,,,,,,,,,,,,,,,,,,,,,,,,,,,,,,0,1,1,1,1,,,,,,,,,,,,,,,,,,,,,,,,,,,,,,,,,,,,,,,,,,,,,,
490612,001,2022-11-21_24h03.33.563,Info_measure_main_exp,2022.2.2,Linux x86_64,144.2377037,,,,,,,,,,,,,,,,,,masks/mask_001.jpg,,,,,,,,,,,,,,,,,,,,,,,,,,,,,,,,,,,,,,,,,,,0,2,2,0,1,,,,,,,,,,,,,,,,,,,,,,,,,,,,,,,,,,,,,,,,,,,,,,
490612,001,2022-11-21_24h03.33.563,Info_measure_main_exp,2022.2.2,Linux x86_64,144.2377037,,,,,,,,,,,,,,,,,,masks/mask_004.jpg,,,,,,,,,,,,,,,,,,,,,,,,,,,,,,,,,,,,,,,,,,,0,3,3,3,1,,,,,,,,,,,,,,,,,,,,,,,,,,,,,,,,,,,,,,,,,,,,,,
490612,001,2022-11-21_24h03.33.563,Info_measure_main_exp,2022.2.2,Linux x86_64,144.2377037,,,,,,,,,,,,,,,,,,masks/mask_003.jpg,,,,,,,,,,,,,,,,,,,,,,,,,,,,,,,,,,,,,,,,,,,0,4,4,2,1,,,,,,,,,,,,,,,,,,,,,,,,,,,,,,,,,,,,,,,,,,,,,,
490612,001,2022-11-21_24h03.33.563,Info_measure_main_exp,2022.2.2,Linux x86_64,144.2377037,,,,,,,,,,,,,,,,,,masks/mask_004.jpg,,,,,,,,,,,,,,,,,,,,,,,,,,,,,,,,,,,,,,,,,,,,,,,,0,0,0,3,1,,,,,,,,,,,,,,,,,,,,,,,,,,,,,,,,,,,,,,,,,
490612,001,2022-11-21_24h03.33.563,Info_measure_main_exp,2022.2.2,Linux x86_64,144.2377037,,,,,,,,,,,,,,,,,,masks/mask_001.jpg,,,,,,,,,,,,,,,,,,,,,,,,,,,,,,,,,,,,,,,,,,,,,,,,0,1,1,0,1,,,,,,,,,,,,,,,,,,,,,,,,,,,,,,,,,,,,,,,,,
490612,001,2022-11-21_24h03.33.563,Info_measure_main_exp,2022.2.2,Linux x86_64,144.2377037,,,,,,,,,,,,,,,,,,masks/mask_005.jpg,,,,,,,,,,,,,,,,,,,,,,,,,,,,,,,,,,,,,,,,,,,,,,,,0,2,2,4,1,,,,,,,,,,,,,,,,,,,,,,,,,,,,,,,,,,,,,,,,,
490612,001,2022-11-21_24h03.33.563,Info_measure_main_exp,2022.2.2,Linux x86_64,144.2377037,,,,,,,,,,,,,,,,,,masks/mask_003.jpg,,,,,,,,,,,,,,,,,,,,,,,,,,,,,,,,,,,,,,,,,,,,,,,,0,3,3,2,1,,,,,,,,,,,,,,,,,,,,,,,,,,,,,,,,,,,,,,,,,
490612,001,2022-11-21_24h03.33.563,Info_measure_main_exp,2022.2.2,Linux x86_64,144.2377037,,,,,,,,,,,,,,,,,,masks/mask_002.jpg,,,,,,,,,,,,,,,,,,,,,,,,,,,,,,,,,,,,,,,,,,,,,,,,0,4,4,1,1,,,,,,,,,,,,,,,,,,,,,,,,,,,,,,,,,,,,,,,,,
490612,001,2022-11-21_24h03.33.563,Info_measure_main_exp,2022.2.2,Linux x86_64,144.2377037,,,,,,,,,,,,,,,,,,,,,,,,,,,,,,7,0.5589,1,,,,,,,,,,,,1,131,5,5,2190,1,absent_patch/patch0002190.jpg,present_patch/cong_131_5_a.jpg,,,,,,,,,,,,,,,,,,,,0.014814815,0.039814815,1,0,0,response1disk,30,0.001851852,0.012962963,1,0,0,center_square,0,29,29,64,1,,,,,,,,,,,,,,,,,,,,,,,
490612,001,2022-11-21_24h03.33.563,Info_measure_main_exp,2022.2.2,Linux x86_64,144.2377037,,,,,,,,,,,,,,,,,,masks/mask_005.jpg,,,,,,,,,,,,,,,,,,,,,,,,,,,,,,,,,,,,,,,,,,,0,0,0,4,1,,,,,,,,,,,,,,,,,,,,,,,,,,,,,,,,,,,,,,,,,,,,,,
490612,001,2022-11-21_24h03.33.563,Info_measure_main_exp,2022.2.2,Linux x86_64,144.2377037,,,,,,,,,,,,,,,,,,masks/mask_003.jpg,,,,,,,,,,,,,,,,,,,,,,,,,,,,,,,,,,,,,,,,,,,0,1,1,2,1,,,,,,,,,,,,,,,,,,,,,,,,,,,,,,,,,,,,,,,,,,,,,,
490612,001,2022-11-21_24h03.33.563,Info_measure_main_exp,2022.2.2,Linux x86_64,144.2377037,,,,,,,,,,,,,,,,,,masks/mask_001.jpg,,,,,,,,,,,,,,,,,,,,,,,,,,,,,,,,,,,,,,,,,,,0,2,2,0,1,,,,,,,,,,,,,,,,,,,,,,,,,,,,,,,,,,,,,,,,,,,,,,
490612,001,2022-11-21_24h03.33.563,Info_measure_main_exp,2022.2.2,Linux x86_64,144.2377037,,,,,,,,,,,,,,,,,,masks/mask_004.jpg,,,,,,,,,,,,,,,,,,,,,,,,,,,,,,,,,,,,,,,,,,,0,3,3,3,1,,,,,,,,,,,,,,,,,,,,,,,,,,,,,,,,,,,,,,,,,,,,,,
490612,001,2022-11-21_24h03.33.563,Info_measure_main_exp,2022.2.2,Linux x86_64,144.2377037,,,,,,,,,,,,,,,,,,masks/mask_002.jpg,,,,,,,,,,,,,,,,,,,,,,,,,,,,,,,,,,,,,,,,,,,0,4,4,1,1,,,,,,,,,,,,,,,,,,,,,,,,,,,,,,,,,,,,,,,,,,,,,,
490612,001,2022-11-21_24h03.33.563,Info_measure_main_exp,2022.2.2,Linux x86_64,144.2377037,,,,,,,,,,,,,,,,,,masks/mask_002.jpg,,,,,,,,,,,,,,,,,,,,,,,,,,,,,,,,,,,,,,,,,,,,,,,,0,0,0,1,1,,,,,,,,,,,,,,,,,,,,,,,,,,,,,,,,,,,,,,,,,
490612,001,2022-11-21_24h03.33.563,Info_measure_main_exp,2022.2.2,Linux x86_64,144.2377037,,,,,,,,,,,,,,,,,,masks/mask_005.jpg,,,,,,,,,,,,,,,,,,,,,,,,,,,,,,,,,,,,,,,,,,,,,,,,0,1,1,4,1,,,,,,,,,,,,,,,,,,,,,,,,,,,,,,,,,,,,,,,,,
490612,001,2022-11-21_24h03.33.563,Info_measure_main_exp,2022.2.2,Linux x86_64,144.2377037,,,,,,,,,,,,,,,,,,masks/mask_004.jpg,,,,,,,,,,,,,,,,,,,,,,,,,,,,,,,,,,,,,,,,,,,,,,,,0,2,2,3,1,,,,,,,,,,,,,,,,,,,,,,,,,,,,,,,,,,,,,,,,,
490612,001,2022-11-21_24h03.33.563,Info_measure_main_exp,2022.2.2,Linux x86_64,144.2377037,,,,,,,,,,,,,,,,,,masks/mask_003.jpg,,,,,,,,,,,,,,,,,,,,,,,,,,,,,,,,,,,,,,,,,,,,,,,,0,3,3,2,1,,,,,,,,,,,,,,,,,,,,,,,,,,,,,,,,,,,,,,,,,
490612,001,2022-11-21_24h03.33.563,Info_measure_main_exp,2022.2.2,Linux x86_64,144.2377037,,,,,,,,,,,,,,,,,,masks/mask_001.jpg,,,,,,,,,,,,,,,,,,,,,,,,,,,,,,,,,,,,,,,,,,,,,,,,0,4,4,0,1,,,,,,,,,,,,,,,,,,,,,,,,,,,,,,,,,,,,,,,,,
490612,001,2022-11-21_24h03.33.563,Info_measure_main_exp,2022.2.2,Linux x86_64,144.2377037,,,,,,,,,,,,,,,,,,,,,,,,,,,,,,7,0.6988,1,,,,,,,,,,,,1,131,5,5,1950,1,absent_patch/patch0001950.jpg,present_patch/cong_131_5_a.jpg,,,,,,,,,,,,,,,,,,,,0.008333333,0.016666667,1,0,0,response1disk,31,0.00462963,0.010185185,1,0,0,center_square,0,30,30,39,1,,,,,,,,,,,,,,,,,,,,,,,
490612,001,2022-11-21_24h03.33.563,Info_measure_main_exp,2022.2.2,Linux x86_64,144.2377037,,,,,,,,,,,,,,,,,,masks/mask_004.jpg,,,,,,,,,,,,,,,,,,,,,,,,,,,,,,,,,,,,,,,,,,,0,0,0,3,1,,,,,,,,,,,,,,,,,,,,,,,,,,,,,,,,,,,,,,,,,,,,,,
490612,001,2022-11-21_24h03.33.563,Info_measure_main_exp,2022.2.2,Linux x86_64,144.2377037,,,,,,,,,,,,,,,,,,masks/mask_002.jpg,,,,,,,,,,,,,,,,,,,,,,,,,,,,,,,,,,,,,,,,,,,0,1,1,1,1,,,,,,,,,,,,,,,,,,,,,,,,,,,,,,,,,,,,,,,,,,,,,,
490612,001,2022-11-21_24h03.33.563,Info_measure_main_exp,2022.2.2,Linux x86_64,144.2377037,,,,,,,,,,,,,,,,,,masks/mask_005.jpg,,,,,,,,,,,,,,,,,,,,,,,,,,,,,,,,,,,,,,,,,,,0,2,2,4,1,,,,,,,,,,,,,,,,,,,,,,,,,,,,,,,,,,,,,,,,,,,,,,
490612,001,2022-11-21_24h03.33.563,Info_measure_main_exp,2022.2.2,Linux x86_64,144.2377037,,,,,,,,,,,,,,,,,,masks/mask_001.jpg,,,,,,,,,,,,,,,,,,,,,,,,,,,,,,,,,,,,,,,,,,,0,3,3,0,1,,,,,,,,,,,,,,,,,,,,,,,,,,,,,,,,,,,,,,,,,,,,,,
490612,001,2022-11-21_24h03.33.563,Info_measure_main_exp,2022.2.2,Linux x86_64,144.2377037,,,,,,,,,,,,,,,,,,masks/mask_003.jpg,,,,,,,,,,,,,,,,,,,,,,,,,,,,,,,,,,,,,,,,,,,0,4,4,2,1,,,,,,,,,,,,,,,,,,,,,,,,,,,,,,,,,,,,,,,,,,,,,,
490612,001,2022-11-21_24h03.33.563,Info_measure_main_exp,2022.2.2,Linux x86_64,144.2377037,,,,,,,,,,,,,,,,,,masks/mask_001.jpg,,,,,,,,,,,,,,,,,,,,,,,,,,,,,,,,,,,,,,,,,,,,,,,,0,0,0,0,1,,,,,,,,,,,,,,,,,,,,,,,,,,,,,,,,,,,,,,,,,
490612,001,2022-11-21_24h03.33.563,Info_measure_main_exp,2022.2.2,Linux x86_64,144.2377037,,,,,,,,,,,,,,,,,,masks/mask_002.jpg,,,,,,,,,,,,,,,,,,,,,,,,,,,,,,,,,,,,,,,,,,,,,,,,0,1,1,1,1,,,,,,,,,,,,,,,,,,,,,,,,,,,,,,,,,,,,,,,,,
490612,001,2022-11-21_24h03.33.563,Info_measure_main_exp,2022.2.2,Linux x86_64,144.2377037,,,,,,,,,,,,,,,,,,masks/mask_003.jpg,,,,,,,,,,,,,,,,,,,,,,,,,,,,,,,,,,,,,,,,,,,,,,,,0,2,2,2,1,,,,,,,,,,,,,,,,,,,,,,,,,,,,,,,,,,,,,,,,,
490612,001,2022-11-21_24h03.33.563,Info_measure_main_exp,2022.2.2,Linux x86_64,144.2377037,,,,,,,,,,,,,,,,,,masks/mask_005.jpg,,,,,,,,,,,,,,,,,,,,,,,,,,,,,,,,,,,,,,,,,,,,,,,,0,3,3,4,1,,,,,,,,,,,,,,,,,,,,,,,,,,,,,,,,,,,,,,,,,
490612,001,2022-11-21_24h03.33.563,Info_measure_main_exp,2022.2.2,Linux x86_64,144.2377037,,,,,,,,,,,,,,,,,,masks/mask_004.jpg,,,,,,,,,,,,,,,,,,,,,,,,,,,,,,,,,,,,,,,,,,,,,,,,0,4,4,3,1,,,,,,,,,,,,,,,,,,,,,,,,,,,,,,,,,,,,,,,,,
490612,001,2022-11-21_24h03.33.563,Info_measure_main_exp,2022.2.2,Linux x86_64,144.2377037,,,,,,,,,,,,,,,,,,,,,,,,,,,,,,7,0.403,1,,,,,,,,,,,,0,131,5,5,1974,2166,absent_patch/patch0001974.jpg,absent_patch/patch0002166.jpg,,,,,,,,,,,,,,,,,,,,0.012037037,0.037962963,1,0,0,response1disk,32,0.00462963,0.015740741,1,0,0,center_square,0,31,31,77,1,,,,,,,,,,,,,,,,,,,,,,,
490612,001,2022-11-21_24h03.33.563,Info_measure_main_exp,2022.2.2,Linux x86_64,144.2377037,,,,,,,,,,,,,,,,,,masks/mask_003.jpg,,,,,,,,,,,,,,,,,,,,,,,,,,,,,,,,,,,,,,,,,,,0,0,0,2,1,,,,,,,,,,,,,,,,,,,,,,,,,,,,,,,,,,,,,,,,,,,,,,
490612,001,2022-11-21_24h03.33.563,Info_measure_main_exp,2022.2.2,Linux x86_64,144.2377037,,,,,,,,,,,,,,,,,,masks/mask_004.jpg,,,,,,,,,,,,,,,,,,,,,,,,,,,,,,,,,,,,,,,,,,,0,1,1,3,1,,,,,,,,,,,,,,,,,,,,,,,,,,,,,,,,,,,,,,,,,,,,,,
490612,001,2022-11-21_24h03.33.563,Info_measure_main_exp,2022.2.2,Linux x86_64,144.2377037,,,,,,,,,,,,,,,,,,masks/mask_002.jpg,,,,,,,,,,,,,,,,,,,,,,,,,,,,,,,,,,,,,,,,,,,0,2,2,1,1,,,,,,,,,,,,,,,,,,,,,,,,,,,,,,,,,,,,,,,,,,,,,,
490612,001,2022-11-21_24h03.33.563,Info_measure_main_exp,2022.2.2,Linux x86_64,144.2377037,,,,,,,,,,,,,,,,,,masks/mask_001.jpg,,,,,,,,,,,,,,,,,,,,,,,,,,,,,,,,,,,,,,,,,,,0,3,3,0,1,,,,,,,,,,,,,,,,,,,,,,,,,,,,,,,,,,,,,,,,,,,,,,
490612,001,2022-11-21_24h03.33.563,Info_measure_main_exp,2022.2.2,Linux x86_64,144.2377037,,,,,,,,,,,,,,,,,,masks/mask_005.jpg,,,,,,,,,,,,,,,,,,,,,,,,,,,,,,,,,,,,,,,,,,,0,4,4,4,1,,,,,,,,,,,,,,,,,,,,,,,,,,,,,,,,,,,,,,,,,,,,,,
490612,001,2022-11-21_24h03.33.563,Info_measure_main_exp,2022.2.2,Linux x86_64,144.2377037,,,,,,,,,,,,,,,,,,masks/mask_001.jpg,,,,,,,,,,,,,,,,,,,,,,,,,,,,,,,,,,,,,,,,,,,,,,,,0,0,0,0,1,,,,,,,,,,,,,,,,,,,,,,,,,,,,,,,,,,,,,,,,,
490612,001,2022-11-21_24h03.33.563,Info_measure_main_exp,2022.2.2,Linux x86_64,144.2377037,,,,,,,,,,,,,,,,,,masks/mask_004.jpg,,,,,,,,,,,,,,,,,,,,,,,,,,,,,,,,,,,,,,,,,,,,,,,,0,1,1,3,1,,,,,,,,,,,,,,,,,,,,,,,,,,,,,,,,,,,,,,,,,
490612,001,2022-11-21_24h03.33.563,Info_measure_main_exp,2022.2.2,Linux x86_64,144.2377037,,,,,,,,,,,,,,,,,,masks/mask_005.jpg,,,,,,,,,,,,,,,,,,,,,,,,,,,,,,,,,,,,,,,,,,,,,,,,0,2,2,4,1,,,,,,,,,,,,,,,,,,,,,,,,,,,,,,,,,,,,,,,,,
490612,001,2022-11-21_24h03.33.563,Info_measure_main_exp,2022.2.2,Linux x86_64,144.2377037,,,,,,,,,,,,,,,,,,masks/mask_003.jpg,,,,,,,,,,,,,,,,,,,,,,,,,,,,,,,,,,,,,,,,,,,,,,,,0,3,3,2,1,,,,,,,,,,,,,,,,,,,,,,,,,,,,,,,,,,,,,,,,,
490612,001,2022-11-21_24h03.33.563,Info_measure_main_exp,2022.2.2,Linux x86_64,144.2377037,,,,,,,,,,,,,,,,,,masks/mask_002.jpg,,,,,,,,,,,,,,,,,,,,,,,,,,,,,,,,,,,,,,,,,,,,,,,,0,4,4,1,1,,,,,,,,,,,,,,,,,,,,,,,,,,,,,,,,,,,,,,,,,
490612,001,2022-11-21_24h03.33.563,Info_measure_main_exp,2022.2.2,Linux x86_64,144.2377037,,,,,,,,,,,,,,,,,,,,,,,,,,,,,,7,0.49,1,,,,,,,,,,,,0,131,5,5,2274,2166,absent_patch/patch0002274.jpg,absent_patch/patch0002166.jpg,,,,,,,,,,,,,,,,,,,,0.013888889,0.027777778,1,0,0,response1disk,33,0.002777778,0.007407407,1,0,0,center_square,0,32,32,78,1,,,,,,,,,,,,,,,,,,,,,,,
490612,001,2022-11-21_24h03.33.563,Info_measure_main_exp,2022.2.2,Linux x86_64,144.2377037,,,,,,,,,,,,,,,,,,masks/mask_003.jpg,,,,,,,,,,,,,,,,,,,,,,,,,,,,,,,,,,,,,,,,,,,0,0,0,2,1,,,,,,,,,,,,,,,,,,,,,,,,,,,,,,,,,,,,,,,,,,,,,,
490612,001,2022-11-21_24h03.33.563,Info_measure_main_exp,2022.2.2,Linux x86_64,144.2377037,,,,,,,,,,,,,,,,,,masks/mask_001.jpg,,,,,,,,,,,,,,,,,,,,,,,,,,,,,,,,,,,,,,,,,,,0,1,1,0,1,,,,,,,,,,,,,,,,,,,,,,,,,,,,,,,,,,,,,,,,,,,,,,
490612,001,2022-11-21_24h03.33.563,Info_measure_main_exp,2022.2.2,Linux x86_64,144.2377037,,,,,,,,,,,,,,,,,,masks/mask_005.jpg,,,,,,,,,,,,,,,,,,,,,,,,,,,,,,,,,,,,,,,,,,,0,2,2,4,1,,,,,,,,,,,,,,,,,,,,,,,,,,,,,,,,,,,,,,,,,,,,,,
490612,001,2022-11-21_24h03.33.563,Info_measure_main_exp,2022.2.2,Linux x86_64,144.2377037,,,,,,,,,,,,,,,,,,masks/mask_002.jpg,,,,,,,,,,,,,,,,,,,,,,,,,,,,,,,,,,,,,,,,,,,0,3,3,1,1,,,,,,,,,,,,,,,,,,,,,,,,,,,,,,,,,,,,,,,,,,,,,,
490612,001,2022-11-21_24h03.33.563,Info_measure_main_exp,2022.2.2,Linux x86_64,144.2377037,,,,,,,,,,,,,,,,,,masks/mask_004.jpg,,,,,,,,,,,,,,,,,,,,,,,,,,,,,,,,,,,,,,,,,,,0,4,4,3,1,,,,,,,,,,,,,,,,,,,,,,,,,,,,,,,,,,,,,,,,,,,,,,
490612,001,2022-11-21_24h03.33.563,Info_measure_main_exp,2022.2.2,Linux x86_64,144.2377037,,,,,,,,,,,,,,,,,,masks/mask_003.jpg,,,,,,,,,,,,,,,,,,,,,,,,,,,,,,,,,,,,,,,,,,,,,,,,0,0,0,2,1,,,,,,,,,,,,,,,,,,,,,,,,,,,,,,,,,,,,,,,,,
490612,001,2022-11-21_24h03.33.563,Info_measure_main_exp,2022.2.2,Linux x86_64,144.2377037,,,,,,,,,,,,,,,,,,masks/mask_005.jpg,,,,,,,,,,,,,,,,,,,,,,,,,,,,,,,,,,,,,,,,,,,,,,,,0,1,1,4,1,,,,,,,,,,,,,,,,,,,,,,,,,,,,,,,,,,,,,,,,,
