participant,session,date,expName,psychopyVersion,OS,frameRate,space_press_continue.keys,space_press_continue.rt,space_press_continue_2.keys,space_press_continue_2.rt,space_press_continue_3.keys,space_press_continue_3.rt,space_press_continue_4.keys,space_press_continue_4.rt,space_press_continue_5.keys,space_press_continue_5.rt,space_press_continue_6.keys,space_press_continue_6.rt,prac_mask_loop_1.thisRepN,prac_mask_loop_1.thisTrialN,prac_mask_loop_1.thisN,prac_mask_loop_1.thisIndex,prac_mask_loop_1.ran,mask_name,prac_mask_loop_2.thisRepN,prac_mask_loop_2.thisTrialN,prac_mask_loop_2.thisN,prac_mask_loop_2.thisIndex,prac_mask_loop_2.ran,mouse_2.x,mouse_2.y,mouse_2.leftButton,mouse_2.midButton,mouse_2.rightButton,mouse_2.clicked_name,similarity,response_time,Pass,mouse_12.x,mouse_12.y,mouse_12.leftButton,mouse_12.midButton,mouse_12.rightButton,mouse_12.clicked_name,prac_loop.thisRepN,prac_loop.thisTrialN,prac_loop.thisN,prac_loop.thisIndex,prac_loop.ran,Pair_type,Image_num,Patch_1_loc,Patch_2_loc,Patch_1_info,Patch_2_info,Patch_1_name,Patch_2_name,mouse_1.x,mouse_1.y,mouse_1.leftButton,mouse_1.midButton,mouse_1.rightButton,mouse_1.time,mouse_1.clicked_name,space_press_continue_7.keys,space_press_continue_7.rt,mask_loop.thisRepN,mask_loop.thisTrialN,mask_loop.thisN,mask_loop.thisIndex,mask_loop.ran,mask_loop_2.thisRepN,mask_loop_2.thisTrialN,mask_loop_2.thisN,mask_loop_2.thisIndex,mask_loop_2.ran,mouse.x,mouse.y,mouse.leftButton,mouse.midButton,mouse.rightButton,mouse.clicked_name,trialNumber,mouse_11.x,mouse_11.y,mouse_11.leftButton,mouse_11.midButton,mouse_11.rightButton,mouse_11.clicked_name,first_pass_loop.thisRepN,first_pass_loop.thisTrialN,first_pass_loop.thisN,first_pass_loop.thisIndex,first_pass_loop.ran,mask_loop_3.thisRepN,mask_loop_3.thisTrialN,mask_loop_3.thisN,mask_loop_3.thisIndex,mask_loop_3.ran,mask_loop_4.thisRepN,mask_loop_4.thisTrialN,mask_loop_4.thisN,mask_loop_4.thisIndex,mask_loop_4.ran,mouse_3.x,mouse_3.y,mouse_3.leftButton,mouse_3.midButton,mouse_3.rightButton,mouse_3.clicked_name,double_pass_loop.thisRepN,double_pass_loop.thisTrialN,double_pass_loop.thisN,double_pass_loop.thisIndex,double_pass_loop.ran,space_exit.keys,space_exit.rt
499132,001,2022-11-21_02h04.52.784,Info_measure_main_exp,2022.2.2,Win32,59.96282305,,,,,,,,,,,,,,,,,,,,,,,,,,,,,,,,,,,,,,,,,,,,,,,,,,,,,,,,,,,,,,,,,,,,,,,,,,,,,,,,,,,,,,,,,,,,,,,,,,,,,,,,,,,,,,,
499132,001,2022-11-21_02h04.52.784,Info_measure_main_exp,2022.2.2,Win32,59.96282305,,,,,,,,,,,,,,,,,,,,,,,,,,,,,,,,,,,,,,,,,,,,,,,,,,,,,,,,,,,,,,,,,,,,,,,,,,,,,,,,,,,,,,,,,,,,,,,,,,,,,,,,,,,,,,,
499132,001,2022-11-21_02h04.52.784,Info_measure_main_exp,2022.2.2,Win32,59.96282305,space,34.3925,,,,,,,,,,,,,,,,,,,,,,,,,,,,,,,,,,,,,,,,,,,,,,,,,,,,,,,,,,,,,,,,,,,,,,,,,,,,,,,,,,,,,,,,,,,,,,,,,,,,,,,,,,,,,
499132,001,2022-11-21_02h04.52.784,Info_measure_main_exp,2022.2.2,Win32,59.96282305,,,space,29.2854,,,,,,,,,,,,,,,,,,,,,,,,,,,,,,,,,,,,,,,,,,,,,,,,,,,,,,,,,,,,,,,,,,,,,,,,,,,,,,,,,,,,,,,,,,,,,,,,,,,,,,,,,,,
499132,001,2022-11-21_02h04.52.784,Info_measure_main_exp,2022.2.2,Win32,59.96282305,,,,,space,22.1034,,,,,,,,,,,,,,,,,,,,,,,,,,,,,,,,,,,,,,,,,,,,,,,,,,,,,,,,,,,,,,,,,,,,,,,,,,,,,,,,,,,,,,,,,,,,,,,,,,,,,,,,,
499132,001,2022-11-21_02h04.52.784,Info_measure_main_exp,2022.2.2,Win32,59.96282305,,,,,,,space,49.8104,,,,,,,,,,,,,,,,,,,,,,,,,,,,,,,,,,,,,,,,,,,,,,,,,,,,,,,,,,,,,,,,,,,,,,,,,,,,,,,,,,,,,,,,,,,,,,,,,,,,,,,
499132,001,2022-11-21_02h04.52.784,Info_measure_main_exp,2022.2.2,Win32,59.96282305,,,,,,,,,space,24.7294,,,,,,,,,,,,,,,,,,,,,,,,,,,,,,,,,,,,,,,,,,,,,,,,,,,,,,,,,,,,,,,,,,,,,,,,,,,,,,,,,,,,,,,,,,,,,,,,,,,,,
499132,001,2022-11-21_02h04.52.784,Info_measure_main_exp,2022.2.2,Win32,59.96282305,,,,,,,,,,,space,8.2055,,,,,,,,,,,,,,,,,,,,,,,,,,,,,,,,,,,,,,,,,,,,,,,,,,,,,,,,,,,,,,,,,,,,,,,,,,,,,,,,,,,,,,,,,,,,,,,,,,,
499132,001,2022-11-21_02h04.52.784,Info_measure_main_exp,2022.2.2,Win32,59.96282305,,,,,,,,,,,,,0,0,0,1,1,masks/mask_002.jpg,,,,,,,,,,,,,,,,,,,,,,,,,,,,,,,,,,,,,,,,,,,,,,,,,,,,,,,,,,,,,,,,,,,,,,,,,,,,,,,,,,,,,,,,,,,,,
499132,001,2022-11-21_02h04.52.784,Info_measure_main_exp,2022.2.2,Win32,59.96282305,,,,,,,,,,,,,0,1,1,4,1,masks/mask_005.jpg,,,,,,,,,,,,,,,,,,,,,,,,,,,,,,,,,,,,,,,,,,,,,,,,,,,,,,,,,,,,,,,,,,,,,,,,,,,,,,,,,,,,,,,,,,,,,
499132,001,2022-11-21_02h04.52.784,Info_measure_main_exp,2022.2.2,Win32,59.96282305,,,,,,,,,,,,,0,2,2,2,1,masks/mask_003.jpg,,,,,,,,,,,,,,,,,,,,,,,,,,,,,,,,,,,,,,,,,,,,,,,,,,,,,,,,,,,,,,,,,,,,,,,,,,,,,,,,,,,,,,,,,,,,,
499132,001,2022-11-21_02h04.52.784,Info_measure_main_exp,2022.2.2,Win32,59.96282305,,,,,,,,,,,,,0,3,3,0,1,masks/mask_001.jpg,,,,,,,,,,,,,,,,,,,,,,,,,,,,,,,,,,,,,,,,,,,,,,,,,,,,,,,,,,,,,,,,,,,,,,,,,,,,,,,,,,,,,,,,,,,,,
499132,001,2022-11-21_02h04.52.784,Info_measure_main_exp,2022.2.2,Win32,59.96282305,,,,,,,,,,,,,0,4,4,3,1,masks/mask_004.jpg,,,,,,,,,,,,,,,,,,,,,,,,,,,,,,,,,,,,,,,,,,,,,,,,,,,,,,,,,,,,,,,,,,,,,,,,,,,,,,,,,,,,,,,,,,,,,
499132,001,2022-11-21_02h04.52.784,Info_measure_main_exp,2022.2.2,Win32,59.96282305,,,,,,,,,,,,,,,,,,masks/mask_005.jpg,0,0,0,4,1,,,,,,,,,,,,,,,,,,,,,,,,,,,,,,,,,,,,,,,,,,,,,,,,,,,,,,,,,,,,,,,,,,,,,,,,,,,,,,,,,,,,,,,,
499132,001,2022-11-21_02h04.52.784,Info_measure_main_exp,2022.2.2,Win32,59.96282305,,,,,,,,,,,,,,,,,,masks/mask_002.jpg,0,1,1,1,1,,,,,,,,,,,,,,,,,,,,,,,,,,,,,,,,,,,,,,,,,,,,,,,,,,,,,,,,,,,,,,,,,,,,,,,,,,,,,,,,,,,,,,,,
499132,001,2022-11-21_02h04.52.784,Info_measure_main_exp,2022.2.2,Win32,59.96282305,,,,,,,,,,,,,,,,,,masks/mask_003.jpg,0,2,2,2,1,,,,,,,,,,,,,,,,,,,,,,,,,,,,,,,,,,,,,,,,,,,,,,,,,,,,,,,,,,,,,,,,,,,,,,,,,,,,,,,,,,,,,,,,
499132,001,2022-11-21_02h04.52.784,Info_measure_main_exp,2022.2.2,Win32,59.96282305,,,,,,,,,,,,,,,,,,masks/mask_001.jpg,0,3,3,0,1,,,,,,,,,,,,,,,,,,,,,,,,,,,,,,,,,,,,,,,,,,,,,,,,,,,,,,,,,,,,,,,,,,,,,,,,,,,,,,,,,,,,,,,,
499132,001,2022-11-21_02h04.52.784,Info_measure_main_exp,2022.2.2,Win32,59.96282305,,,,,,,,,,,,,,,,,,masks/mask_004.jpg,0,4,4,3,1,,,,,,,,,,,,,,,,,,,,,,,,,,,,,,,,,,,,,,,,,,,,,,,,,,,,,,,,,,,,,,,,,,,,,,,,,,,,,,,,,,,,,,,,
499132,001,2022-11-21_02h04.52.784,Info_measure_main_exp,2022.2.2,Win32,59.96282305,,,,,,,,,,,,,,,,,,,,,,,,-0.127604167,0.075520833,1,0,0,response7disk,1,176.4113,1,-0.005208333,0.002604167,1,0,0,center_square,0,0,0,1,1,0,131,5,5,2514,2490,prac_patch/patch0002514.jpg,prac_patch/patch0002490.jpg,,,,,,,,,,,,,,,,,,,,,,,,,,,,,,,,,,,,,,,,,,,,,,,,,,,,,,,,,,,,
499132,001,2022-11-21_02h04.52.784,Info_measure_main_exp,2022.2.2,Win32,59.96282305,,,,,,,,,,,,,0,0,0,1,1,masks/mask_002.jpg,,,,,,,,,,,,,,,,,,,,,,,,,,,,,,,,,,,,,,,,,,,,,,,,,,,,,,,,,,,,,,,,,,,,,,,,,,,,,,,,,,,,,,,,,,,,,
499132,001,2022-11-21_02h04.52.784,Info_measure_main_exp,2022.2.2,Win32,59.96282305,,,,,,,,,,,,,0,1,1,3,1,masks/mask_004.jpg,,,,,,,,,,,,,,,,,,,,,,,,,,,,,,,,,,,,,,,,,,,,,,,,,,,,,,,,,,,,,,,,,,,,,,,,,,,,,,,,,,,,,,,,,,,,,
499132,001,2022-11-21_02h04.52.784,Info_measure_main_exp,2022.2.2,Win32,59.96282305,,,,,,,,,,,,,0,2,2,2,1,masks/mask_003.jpg,,,,,,,,,,,,,,,,,,,,,,,,,,,,,,,,,,,,,,,,,,,,,,,,,,,,,,,,,,,,,,,,,,,,,,,,,,,,,,,,,,,,,,,,,,,,,
499132,001,2022-11-21_02h04.52.784,Info_measure_main_exp,2022.2.2,Win32,59.96282305,,,,,,,,,,,,,0,3,3,0,1,masks/mask_001.jpg,,,,,,,,,,,,,,,,,,,,,,,,,,,,,,,,,,,,,,,,,,,,,,,,,,,,,,,,,,,,,,,,,,,,,,,,,,,,,,,,,,,,,,,,,,,,,
499132,001,2022-11-21_02h04.52.784,Info_measure_main_exp,2022.2.2,Win32,59.96282305,,,,,,,,,,,,,0,4,4,4,1,masks/mask_005.jpg,,,,,,,,,,,,,,,,,,,,,,,,,,,,,,,,,,,,,,,,,,,,,,,,,,,,,,,,,,,,,,,,,,,,,,,,,,,,,,,,,,,,,,,,,,,,,
499132,001,2022-11-21_02h04.52.784,Info_measure_main_exp,2022.2.2,Win32,59.96282305,,,,,,,,,,,,,,,,,,masks/mask_004.jpg,0,0,0,3,1,,,,,,,,,,,,,,,,,,,,,,,,,,,,,,,,,,,,,,,,,,,,,,,,,,,,,,,,,,,,,,,,,,,,,,,,,,,,,,,,,,,,,,,,
499132,001,2022-11-21_02h04.52.784,Info_measure_main_exp,2022.2.2,Win32,59.96282305,,,,,,,,,,,,,,,,,,masks/mask_001.jpg,0,1,1,0,1,,,,,,,,,,,,,,,,,,,,,,,,,,,,,,,,,,,,,,,,,,,,,,,,,,,,,,,,,,,,,,,,,,,,,,,,,,,,,,,,,,,,,,,,
499132,001,2022-11-21_02h04.52.784,Info_measure_main_exp,2022.2.2,Win32,59.96282305,,,,,,,,,,,,,,,,,,masks/mask_005.jpg,0,2,2,4,1,,,,,,,,,,,,,,,,,,,,,,,,,,,,,,,,,,,,,,,,,,,,,,,,,,,,,,,,,,,,,,,,,,,,,,,,,,,,,,,,,,,,,,,,
499132,001,2022-11-21_02h04.52.784,Info_measure_main_exp,2022.2.2,Win32,59.96282305,,,,,,,,,,,,,,,,,,masks/mask_002.jpg,0,3,3,1,1,,,,,,,,,,,,,,,,,,,,,,,,,,,,,,,,,,,,,,,,,,,,,,,,,,,,,,,,,,,,,,,,,,,,,,,,,,,,,,,,,,,,,,,,
499132,001,2022-11-21_02h04.52.784,Info_measure_main_exp,2022.2.2,Win32,59.96282305,,,,,,,,,,,,,,,,,,masks/mask_003.jpg,0,4,4,2,1,,,,,,,,,,,,,,,,,,,,,,,,,,,,,,,,,,,,,,,,,,,,,,,,,,,,,,,,,,,,,,,,,,,,,,,,,,,,,,,,,,,,,,,,
499132,001,2022-11-21_02h04.52.784,Info_measure_main_exp,2022.2.2,Win32,59.96282305,,,,,,,,,,,,,,,,,,,,,,,,-0.076822917,0.134114583,1,0,0,response7disk,0,197.5089,1,-0.009114583,0.002604167,1,0,0,center_square,0,1,1,2,1,0,131,5,5,2526,2526,prac_patch/patch0002526.jpg,prac_patch/patch0002526.jpg,,,,,,,,,,,,,,,,,,,,,,,,,,,,,,,,,,,,,,,,,,,,,,,,,,,,,,,,,,,,
499132,001,2022-11-21_02h04.52.784,Info_measure_main_exp,2022.2.2,Win32,59.96282305,,,,,,,,,,,,,0,0,0,2,1,masks/mask_003.jpg,,,,,,,,,,,,,,,,,,,,,,,,,,,,,,,,,,,,,,,,,,,,,,,,,,,,,,,,,,,,,,,,,,,,,,,,,,,,,,,,,,,,,,,,,,,,,
499132,001,2022-11-21_02h04.52.784,Info_measure_main_exp,2022.2.2,Win32,59.96282305,,,,,,,,,,,,,0,1,1,3,1,masks/mask_004.jpg,,,,,,,,,,,,,,,,,,,,,,,,,,,,,,,,,,,,,,,,,,,,,,,,,,,,,,,,,,,,,,,,,,,,,,,,,,,,,,,,,,,,,,,,,,,,,
499132,001,2022-11-21_02h04.52.784,Info_measure_main_exp,2022.2.2,Win32,59.96282305,,,,,,,,,,,,,0,2,2,1,1,masks/mask_002.jpg,,,,,,,,,,,,,,,,,,,,,,,,,,,,,,,,,,,,,,,,,,,,,,,,,,,,,,,,,,,,,,,,,,,,,,,,,,,,,,,,,,,,,,,,,,,,,
499132,001,2022-11-21_02h04.52.784,Info_measure_main_exp,2022.2.2,Win32,59.96282305,,,,,,,,,,,,,0,3,3,4,1,masks/mask_005.jpg,,,,,,,,,,,,,,,,,,,,,,,,,,,,,,,,,,,,,,,,,,,,,,,,,,,,,,,,,,,,,,,,,,,,,,,,,,,,,,,,,,,,,,,,,,,,,
499132,001,2022-11-21_02h04.52.784,Info_measure_main_exp,2022.2.2,Win32,59.96282305,,,,,,,,,,,,,0,4,4,0,1,masks/mask_001.jpg,,,,,,,,,,,,,,,,,,,,,,,,,,,,,,,,,,,,,,,,,,,,,,,,,,,,,,,,,,,,,,,,,,,,,,,,,,,,,,,,,,,,,,,,,,,,,
499132,001,2022-11-21_02h04.52.784,Info_measure_main_exp,2022.2.2,Win32,59.96282305,,,,,,,,,,,,,,,,,,masks/mask_005.jpg,0,0,0,4,1,,,,,,,,,,,,,,,,,,,,,,,,,,,,,,,,,,,,,,,,,,,,,,,,,,,,,,,,,,,,,,,,,,,,,,,,,,,,,,,,,,,,,,,,
499132,001,2022-11-21_02h04.52.784,Info_measure_main_exp,2022.2.2,Win32,59.96282305,,,,,,,,,,,,,,,,,,masks/mask_004.jpg,0,1,1,3,1,,,,,,,,,,,,,,,,,,,,,,,,,,,,,,,,,,,,,,,,,,,,,,,,,,,,,,,,,,,,,,,,,,,,,,,,,,,,,,,,,,,,,,,,
499132,001,2022-11-21_02h04.52.784,Info_measure_main_exp,2022.2.2,Win32,59.96282305,,,,,,,,,,,,,,,,,,masks/mask_001.jpg,0,2,2,0,1,,,,,,,,,,,,,,,,,,,,,,,,,,,,,,,,,,,,,,,,,,,,,,,,,,,,,,,,,,,,,,,,,,,,,,,,,,,,,,,,,,,,,,,,
499132,001,2022-11-21_02h04.52.784,Info_measure_main_exp,2022.2.2,Win32,59.96282305,,,,,,,,,,,,,,,,,,masks/mask_002.jpg,0,3,3,1,1,,,,,,,,,,,,,,,,,,,,,,,,,,,,,,,,,,,,,,,,,,,,,,,,,,,,,,,,,,,,,,,,,,,,,,,,,,,,,,,,,,,,,,,,
499132,001,2022-11-21_02h04.52.784,Info_measure_main_exp,2022.2.2,Win32,59.96282305,,,,,,,,,,,,,,,,,,masks/mask_003.jpg,0,4,4,2,1,,,,,,,,,,,,,,,,,,,,,,,,,,,,,,,,,,,,,,,,,,,,,,,,,,,,,,,,,,,,,,,,,,,,,,,,,,,,,,,,,,,,,,,,
499132,001,2022-11-21_02h04.52.784,Info_measure_main_exp,2022.2.2,Win32,59.96282305,,,,,,,,,,,,,,,,,,,,,,,,0.069010417,0.010416667,1,0,0,response1disk,6,207.2033,1,-0.001302083,0,1,0,0,center_square,0,2,2,0,1,0,131,5,5,2370,2406,prac_patch/patch0002370.jpg,prac_patch/patch0002406.jpg,,,,,,,,,,,,,,,,,,,,,,,,,,,,,,,,,,,,,,,,,,,,,,,,,,,,,,,,,,,,
499132,001,2022-11-21_02h04.52.784,Info_measure_main_exp,2022.2.2,Win32,59.96282305,,,,,,,,,,,,,,,,,,,,,,,,,,,,,,,,,,,,,,,,,,,,,,,,,,,,,,,,,,,space,6.8462,,,,,,,,,,,,,,,,,,,,,,,,,,,,,,,,,,,,,,,,,,,,,,,,,,,
499132,001,2022-11-21_02h04.52.784,Info_measure_main_exp,2022.2.2,Win32,59.96282305,,,,,,,,,,,,,,,,,,masks/mask_001.jpg,,,,,,,,,,,,,,,,,,,,,,,,,,,,,,,,,,,,,,,,,,,0,0,0,0,1,,,,,,,,,,,,,,,,,,,,,,,,,,,,,,,,,,,,,,,,,,,,,,
499132,001,2022-11-21_02h04.52.784,Info_measure_main_exp,2022.2.2,Win32,59.96282305,,,,,,,,,,,,,,,,,,masks/mask_003.jpg,,,,,,,,,,,,,,,,,,,,,,,,,,,,,,,,,,,,,,,,,,,0,1,1,2,1,,,,,,,,,,,,,,,,,,,,,,,,,,,,,,,,,,,,,,,,,,,,,,
499132,001,2022-11-21_02h04.52.784,Info_measure_main_exp,2022.2.2,Win32,59.96282305,,,,,,,,,,,,,,,,,,masks/mask_004.jpg,,,,,,,,,,,,,,,,,,,,,,,,,,,,,,,,,,,,,,,,,,,0,2,2,3,1,,,,,,,,,,,,,,,,,,,,,,,,,,,,,,,,,,,,,,,,,,,,,,
499132,001,2022-11-21_02h04.52.784,Info_measure_main_exp,2022.2.2,Win32,59.96282305,,,,,,,,,,,,,,,,,,masks/mask_002.jpg,,,,,,,,,,,,,,,,,,,,,,,,,,,,,,,,,,,,,,,,,,,0,3,3,1,1,,,,,,,,,,,,,,,,,,,,,,,,,,,,,,,,,,,,,,,,,,,,,,
499132,001,2022-11-21_02h04.52.784,Info_measure_main_exp,2022.2.2,Win32,59.96282305,,,,,,,,,,,,,,,,,,masks/mask_005.jpg,,,,,,,,,,,,,,,,,,,,,,,,,,,,,,,,,,,,,,,,,,,0,4,4,4,1,,,,,,,,,,,,,,,,,,,,,,,,,,,,,,,,,,,,,,,,,,,,,,
499132,001,2022-11-21_02h04.52.784,Info_measure_main_exp,2022.2.2,Win32,59.96282305,,,,,,,,,,,,,,,,,,masks/mask_005.jpg,,,,,,,,,,,,,,,,,,,,,,,,,,,,,,,,,,,,,,,,,,,,,,,,0,0,0,4,1,,,,,,,,,,,,,,,,,,,,,,,,,,,,,,,,,,,,,,,,,
499132,001,2022-11-21_02h04.52.784,Info_measure_main_exp,2022.2.2,Win32,59.96282305,,,,,,,,,,,,,,,,,,masks/mask_003.jpg,,,,,,,,,,,,,,,,,,,,,,,,,,,,,,,,,,,,,,,,,,,,,,,,0,1,1,2,1,,,,,,,,,,,,,,,,,,,,,,,,,,,,,,,,,,,,,,,,,
499132,001,2022-11-21_02h04.52.784,Info_measure_main_exp,2022.2.2,Win32,59.96282305,,,,,,,,,,,,,,,,,,masks/mask_001.jpg,,,,,,,,,,,,,,,,,,,,,,,,,,,,,,,,,,,,,,,,,,,,,,,,0,2,2,0,1,,,,,,,,,,,,,,,,,,,,,,,,,,,,,,,,,,,,,,,,,
499132,001,2022-11-21_02h04.52.784,Info_measure_main_exp,2022.2.2,Win32,59.96282305,,,,,,,,,,,,,,,,,,masks/mask_004.jpg,,,,,,,,,,,,,,,,,,,,,,,,,,,,,,,,,,,,,,,,,,,,,,,,0,3,3,3,1,,,,,,,,,,,,,,,,,,,,,,,,,,,,,,,,,,,,,,,,,
499132,001,2022-11-21_02h04.52.784,Info_measure_main_exp,2022.2.2,Win32,59.96282305,,,,,,,,,,,,,,,,,,masks/mask_002.jpg,,,,,,,,,,,,,,,,,,,,,,,,,,,,,,,,,,,,,,,,,,,,,,,,0,4,4,1,1,,,,,,,,,,,,,,,,,,,,,,,,,,,,,,,,,,,,,,,,,
499132,001,2022-11-21_02h04.52.784,Info_measure_main_exp,2022.2.2,Win32,59.96282305,,,,,,,,,,,,,,,,,,,,,,,,,,,,,,6,2.419,1,,,,,,,,,,,,0,131,5,5,2250,2238,absent_patch/patch0002250.jpg,absent_patch/patch0002238.jpg,,,,,,,,,,,,,,,,,,,,0.110677083,0.091145833,1,0,0,response1disk,1,-0.001302083,-0.001302083,1,0,0,center_square,0,0,0,110,1,,,,,,,,,,,,,,,,,,,,,,,
499132,001,2022-11-21_02h04.52.784,Info_measure_main_exp,2022.2.2,Win32,59.96282305,,,,,,,,,,,,,,,,,,masks/mask_004.jpg,,,,,,,,,,,,,,,,,,,,,,,,,,,,,,,,,,,,,,,,,,,0,0,0,3,1,,,,,,,,,,,,,,,,,,,,,,,,,,,,,,,,,,,,,,,,,,,,,,
499132,001,2022-11-21_02h04.52.784,Info_measure_main_exp,2022.2.2,Win32,59.96282305,,,,,,,,,,,,,,,,,,masks/mask_003.jpg,,,,,,,,,,,,,,,,,,,,,,,,,,,,,,,,,,,,,,,,,,,0,1,1,2,1,,,,,,,,,,,,,,,,,,,,,,,,,,,,,,,,,,,,,,,,,,,,,,
499132,001,2022-11-21_02h04.52.784,Info_measure_main_exp,2022.2.2,Win32,59.96282305,,,,,,,,,,,,,,,,,,masks/mask_005.jpg,,,,,,,,,,,,,,,,,,,,,,,,,,,,,,,,,,,,,,,,,,,0,2,2,4,1,,,,,,,,,,,,,,,,,,,,,,,,,,,,,,,,,,,,,,,,,,,,,,
499132,001,2022-11-21_02h04.52.784,Info_measure_main_exp,2022.2.2,Win32,59.96282305,,,,,,,,,,,,,,,,,,masks/mask_001.jpg,,,,,,,,,,,,,,,,,,,,,,,,,,,,,,,,,,,,,,,,,,,0,3,3,0,1,,,,,,,,,,,,,,,,,,,,,,,,,,,,,,,,,,,,,,,,,,,,,,
499132,001,2022-11-21_02h04.52.784,Info_measure_main_exp,2022.2.2,Win32,59.96282305,,,,,,,,,,,,,,,,,,masks/mask_002.jpg,,,,,,,,,,,,,,,,,,,,,,,,,,,,,,,,,,,,,,,,,,,0,4,4,1,1,,,,,,,,,,,,,,,,,,,,,,,,,,,,,,,,,,,,,,,,,,,,,,
499132,001,2022-11-21_02h04.52.784,Info_measure_main_exp,2022.2.2,Win32,59.96282305,,,,,,,,,,,,,,,,,,masks/mask_004.jpg,,,,,,,,,,,,,,,,,,,,,,,,,,,,,,,,,,,,,,,,,,,,,,,,0,0,0,3,1,,,,,,,,,,,,,,,,,,,,,,,,,,,,,,,,,,,,,,,,,
499132,001,2022-11-21_02h04.52.784,Info_measure_main_exp,2022.2.2,Win32,59.96282305,,,,,,,,,,,,,,,,,,masks/mask_005.jpg,,,,,,,,,,,,,,,,,,,,,,,,,,,,,,,,,,,,,,,,,,,,,,,,0,1,1,4,1,,,,,,,,,,,,,,,,,,,,,,,,,,,,,,,,,,,,,,,,,
499132,001,2022-11-21_02h04.52.784,Info_measure_main_exp,2022.2.2,Win32,59.96282305,,,,,,,,,,,,,,,,,,masks/mask_002.jpg,,,,,,,,,,,,,,,,,,,,,,,,,,,,,,,,,,,,,,,,,,,,,,,,0,2,2,1,1,,,,,,,,,,,,,,,,,,,,,,,,,,,,,,,,,,,,,,,,,
499132,001,2022-11-21_02h04.52.784,Info_measure_main_exp,2022.2.2,Win32,59.96282305,,,,,,,,,,,,,,,,,,masks/mask_001.jpg,,,,,,,,,,,,,,,,,,,,,,,,,,,,,,,,,,,,,,,,,,,,,,,,0,3,3,0,1,,,,,,,,,,,,,,,,,,,,,,,,,,,,,,,,,,,,,,,,,
499132,001,2022-11-21_02h04.52.784,Info_measure_main_exp,2022.2.2,Win32,59.96282305,,,,,,,,,,,,,,,,,,masks/mask_003.jpg,,,,,,,,,,,,,,,,,,,,,,,,,,,,,,,,,,,,,,,,,,,,,,,,0,4,4,2,1,,,,,,,,,,,,,,,,,,,,,,,,,,,,,,,,,,,,,,,,,
499132,001,2022-11-21_02h04.52.784,Info_measure_main_exp,2022.2.2,Win32,59.96282305,,,,,,,,,,,,,,,,,,,,,,,,,,,,,,6,1.4669,1,,,,,,,,,,,,0,131,5,5,2250,2298,absent_patch/patch0002250.jpg,absent_patch/patch0002298.jpg,,,,,,,,,,,,,,,,,,,,0.075520833,0.046875,1,0,0,response1disk,2,-0.002604167,0.002604167,1,0,0,center_square,0,1,1,59,1,,,,,,,,,,,,,,,,,,,,,,,
499132,001,2022-11-21_02h04.52.784,Info_measure_main_exp,2022.2.2,Win32,59.96282305,,,,,,,,,,,,,,,,,,masks/mask_001.jpg,,,,,,,,,,,,,,,,,,,,,,,,,,,,,,,,,,,,,,,,,,,0,0,0,0,1,,,,,,,,,,,,,,,,,,,,,,,,,,,,,,,,,,,,,,,,,,,,,,
499132,001,2022-11-21_02h04.52.784,Info_measure_main_exp,2022.2.2,Win32,59.96282305,,,,,,,,,,,,,,,,,,masks/mask_002.jpg,,,,,,,,,,,,,,,,,,,,,,,,,,,,,,,,,,,,,,,,,,,0,1,1,1,1,,,,,,,,,,,,,,,,,,,,,,,,,,,,,,,,,,,,,,,,,,,,,,
499132,001,2022-11-21_02h04.52.784,Info_measure_main_exp,2022.2.2,Win32,59.96282305,,,,,,,,,,,,,,,,,,masks/mask_004.jpg,,,,,,,,,,,,,,,,,,,,,,,,,,,,,,,,,,,,,,,,,,,0,2,2,3,1,,,,,,,,,,,,,,,,,,,,,,,,,,,,,,,,,,,,,,,,,,,,,,
499132,001,2022-11-21_02h04.52.784,Info_measure_main_exp,2022.2.2,Win32,59.96282305,,,,,,,,,,,,,,,,,,masks/mask_005.jpg,,,,,,,,,,,,,,,,,,,,,,,,,,,,,,,,,,,,,,,,,,,0,3,3,4,1,,,,,,,,,,,,,,,,,,,,,,,,,,,,,,,,,,,,,,,,,,,,,,
499132,001,2022-11-21_02h04.52.784,Info_measure_main_exp,2022.2.2,Win32,59.96282305,,,,,,,,,,,,,,,,,,masks/mask_003.jpg,,,,,,,,,,,,,,,,,,,,,,,,,,,,,,,,,,,,,,,,,,,0,4,4,2,1,,,,,,,,,,,,,,,,,,,,,,,,,,,,,,,,,,,,,,,,,,,,,,
499132,001,2022-11-21_02h04.52.784,Info_measure_main_exp,2022.2.2,Win32,59.96282305,,,,,,,,,,,,,,,,,,masks/mask_002.jpg,,,,,,,,,,,,,,,,,,,,,,,,,,,,,,,,,,,,,,,,,,,,,,,,0,0,0,1,1,,,,,,,,,,,,,,,,,,,,,,,,,,,,,,,,,,,,,,,,,
499132,001,2022-11-21_02h04.52.784,Info_measure_main_exp,2022.2.2,Win32,59.96282305,,,,,,,,,,,,,,,,,,masks/mask_005.jpg,,,,,,,,,,,,,,,,,,,,,,,,,,,,,,,,,,,,,,,,,,,,,,,,0,1,1,4,1,,,,,,,,,,,,,,,,,,,,,,,,,,,,,,,,,,,,,,,,,
499132,001,2022-11-21_02h04.52.784,Info_measure_main_exp,2022.2.2,Win32,59.96282305,,,,,,,,,,,,,,,,,,masks/mask_003.jpg,,,,,,,,,,,,,,,,,,,,,,,,,,,,,,,,,,,,,,,,,,,,,,,,0,2,2,2,1,,,,,,,,,,,,,,,,,,,,,,,,,,,,,,,,,,,,,,,,,
499132,001,2022-11-21_02h04.52.784,Info_measure_main_exp,2022.2.2,Win32,59.96282305,,,,,,,,,,,,,,,,,,masks/mask_001.jpg,,,,,,,,,,,,,,,,,,,,,,,,,,,,,,,,,,,,,,,,,,,,,,,,0,3,3,0,1,,,,,,,,,,,,,,,,,,,,,,,,,,,,,,,,,,,,,,,,,
499132,001,2022-11-21_02h04.52.784,Info_measure_main_exp,2022.2.2,Win32,59.96282305,,,,,,,,,,,,,,,,,,masks/mask_004.jpg,,,,,,,,,,,,,,,,,,,,,,,,,,,,,,,,,,,,,,,,,,,,,,,,0,4,4,3,1,,,,,,,,,,,,,,,,,,,,,,,,,,,,,,,,,,,,,,,,,
499132,001,2022-11-21_02h04.52.784,Info_measure_main_exp,2022.2.2,Win32,59.96282305,,,,,,,,,,,,,,,,,,,,,,,,,,,,,,4,1.9158,1,,,,,,,,,,,,0,131,5,5,2190,2178,absent_patch/patch0002190.jpg,absent_patch/patch0002178.jpg,,,,,,,,,,,,,,,,,,,,0.045572917,-0.118489583,1,0,0,response3disk,3,-0.01171875,0.0078125,1,0,0,center_square,0,2,2,14,1,,,,,,,,,,,,,,,,,,,,,,,
499132,001,2022-11-21_02h04.52.784,Info_measure_main_exp,2022.2.2,Win32,59.96282305,,,,,,,,,,,,,,,,,,masks/mask_001.jpg,,,,,,,,,,,,,,,,,,,,,,,,,,,,,,,,,,,,,,,,,,,0,0,0,0,1,,,,,,,,,,,,,,,,,,,,,,,,,,,,,,,,,,,,,,,,,,,,,,
499132,001,2022-11-21_02h04.52.784,Info_measure_main_exp,2022.2.2,Win32,59.96282305,,,,,,,,,,,,,,,,,,masks/mask_002.jpg,,,,,,,,,,,,,,,,,,,,,,,,,,,,,,,,,,,,,,,,,,,0,1,1,1,1,,,,,,,,,,,,,,,,,,,,,,,,,,,,,,,,,,,,,,,,,,,,,,
499132,001,2022-11-21_02h04.52.784,Info_measure_main_exp,2022.2.2,Win32,59.96282305,,,,,,,,,,,,,,,,,,masks/mask_003.jpg,,,,,,,,,,,,,,,,,,,,,,,,,,,,,,,,,,,,,,,,,,,0,2,2,2,1,,,,,,,,,,,,,,,,,,,,,,,,,,,,,,,,,,,,,,,,,,,,,,
499132,001,2022-11-21_02h04.52.784,Info_measure_main_exp,2022.2.2,Win32,59.96282305,,,,,,,,,,,,,,,,,,masks/mask_004.jpg,,,,,,,,,,,,,,,,,,,,,,,,,,,,,,,,,,,,,,,,,,,0,3,3,3,1,,,,,,,,,,,,,,,,,,,,,,,,,,,,,,,,,,,,,,,,,,,,,,
499132,001,2022-11-21_02h04.52.784,Info_measure_main_exp,2022.2.2,Win32,59.96282305,,,,,,,,,,,,,,,,,,masks/mask_005.jpg,,,,,,,,,,,,,,,,,,,,,,,,,,,,,,,,,,,,,,,,,,,0,4,4,4,1,,,,,,,,,,,,,,,,,,,,,,,,,,,,,,,,,,,,,,,,,,,,,,
499132,001,2022-11-21_02h04.52.784,Info_measure_main_exp,2022.2.2,Win32,59.96282305,,,,,,,,,,,,,,,,,,masks/mask_003.jpg,,,,,,,,,,,,,,,,,,,,,,,,,,,,,,,,,,,,,,,,,,,,,,,,0,0,0,2,1,,,,,,,,,,,,,,,,,,,,,,,,,,,,,,,,,,,,,,,,,
499132,001,2022-11-21_02h04.52.784,Info_measure_main_exp,2022.2.2,Win32,59.96282305,,,,,,,,,,,,,,,,,,masks/mask_002.jpg,,,,,,,,,,,,,,,,,,,,,,,,,,,,,,,,,,,,,,,,,,,,,,,,0,1,1,1,1,,,,,,,,,,,,,,,,,,,,,,,,,,,,,,,,,,,,,,,,,
499132,001,2022-11-21_02h04.52.784,Info_measure_main_exp,2022.2.2,Win32,59.96282305,,,,,,,,,,,,,,,,,,masks/mask_004.jpg,,,,,,,,,,,,,,,,,,,,,,,,,,,,,,,,,,,,,,,,,,,,,,,,0,2,2,3,1,,,,,,,,,,,,,,,,,,,,,,,,,,,,,,,,,,,,,,,,,
499132,001,2022-11-21_02h04.52.784,Info_measure_main_exp,2022.2.2,Win32,59.96282305,,,,,,,,,,,,,,,,,,masks/mask_005.jpg,,,,,,,,,,,,,,,,,,,,,,,,,,,,,,,,,,,,,,,,,,,,,,,,0,3,3,4,1,,,,,,,,,,,,,,,,,,,,,,,,,,,,,,,,,,,,,,,,,
499132,001,2022-11-21_02h04.52.784,Info_measure_main_exp,2022.2.2,Win32,59.96282305,,,,,,,,,,,,,,,,,,masks/mask_001.jpg,,,,,,,,,,,,,,,,,,,,,,,,,,,,,,,,,,,,,,,,,,,,,,,,0,4,4,0,1,,,,,,,,,,,,,,,,,,,,,,,,,,,,,,,,,,,,,,,,,
499132,001,2022-11-21_02h04.52.784,Info_measure_main_exp,2022.2.2,Win32,59.96282305,,,,,,,,,,,,,,,,,,,,,,,,,,,,,,7,1.5502,1,,,,,,,,,,,,0,131,5,5,1986,1974,absent_patch/patch0001986.jpg,absent_patch/patch0001974.jpg,,,,,,,,,,,,,,,,,,,,0.036458333,0.057291667,1,0,0,response1disk,4,-0.010416667,0.014322917,1,0,0,center_square,0,3,3,25,1,,,,,,,,,,,,,,,,,,,,,,,
499132,001,2022-11-21_02h04.52.784,Info_measure_main_exp,2022.2.2,Win32,59.96282305,,,,,,,,,,,,,,,,,,masks/mask_001.jpg,,,,,,,,,,,,,,,,,,,,,,,,,,,,,,,,,,,,,,,,,,,0,0,0,0,1,,,,,,,,,,,,,,,,,,,,,,,,,,,,,,,,,,,,,,,,,,,,,,
499132,001,2022-11-21_02h04.52.784,Info_measure_main_exp,2022.2.2,Win32,59.96282305,,,,,,,,,,,,,,,,,,masks/mask_002.jpg,,,,,,,,,,,,,,,,,,,,,,,,,,,,,,,,,,,,,,,,,,,0,1,1,1,1,,,,,,,,,,,,,,,,,,,,,,,,,,,,,,,,,,,,,,,,,,,,,,
499132,001,2022-11-21_02h04.52.784,Info_measure_main_exp,2022.2.2,Win32,59.96282305,,,,,,,,,,,,,,,,,,masks/mask_004.jpg,,,,,,,,,,,,,,,,,,,,,,,,,,,,,,,,,,,,,,,,,,,0,2,2,3,1,,,,,,,,,,,,,,,,,,,,,,,,,,,,,,,,,,,,,,,,,,,,,,
499132,001,2022-11-21_02h04.52.784,Info_measure_main_exp,2022.2.2,Win32,59.96282305,,,,,,,,,,,,,,,,,,masks/mask_005.jpg,,,,,,,,,,,,,,,,,,,,,,,,,,,,,,,,,,,,,,,,,,,0,3,3,4,1,,,,,,,,,,,,,,,,,,,,,,,,,,,,,,,,,,,,,,,,,,,,,,
499132,001,2022-11-21_02h04.52.784,Info_measure_main_exp,2022.2.2,Win32,59.96282305,,,,,,,,,,,,,,,,,,masks/mask_003.jpg,,,,,,,,,,,,,,,,,,,,,,,,,,,,,,,,,,,,,,,,,,,0,4,4,2,1,,,,,,,,,,,,,,,,,,,,,,,,,,,,,,,,,,,,,,,,,,,,,,
499132,001,2022-11-21_02h04.52.784,Info_measure_main_exp,2022.2.2,Win32,59.96282305,,,,,,,,,,,,,,,,,,masks/mask_004.jpg,,,,,,,,,,,,,,,,,,,,,,,,,,,,,,,,,,,,,,,,,,,,,,,,0,0,0,3,1,,,,,,,,,,,,,,,,,,,,,,,,,,,,,,,,,,,,,,,,,
499132,001,2022-11-21_02h04.52.784,Info_measure_main_exp,2022.2.2,Win32,59.96282305,,,,,,,,,,,,,,,,,,masks/mask_002.jpg,,,,,,,,,,,,,,,,,,,,,,,,,,,,,,,,,,,,,,,,,,,,,,,,0,1,1,1,1,,,,,,,,,,,,,,,,,,,,,,,,,,,,,,,,,,,,,,,,,
499132,001,2022-11-21_02h04.52.784,Info_measure_main_exp,2022.2.2,Win32,59.96282305,,,,,,,,,,,,,,,,,,masks/mask_005.jpg,,,,,,,,,,,,,,,,,,,,,,,,,,,,,,,,,,,,,,,,,,,,,,,,0,2,2,4,1,,,,,,,,,,,,,,,,,,,,,,,,,,,,,,,,,,,,,,,,,
499132,001,2022-11-21_02h04.52.784,Info_measure_main_exp,2022.2.2,Win32,59.96282305,,,,,,,,,,,,,,,,,,masks/mask_003.jpg,,,,,,,,,,,,,,,,,,,,,,,,,,,,,,,,,,,,,,,,,,,,,,,,0,3,3,2,1,,,,,,,,,,,,,,,,,,,,,,,,,,,,,,,,,,,,,,,,,
499132,001,2022-11-21_02h04.52.784,Info_measure_main_exp,2022.2.2,Win32,59.96282305,,,,,,,,,,,,,,,,,,masks/mask_001.jpg,,,,,,,,,,,,,,,,,,,,,,,,,,,,,,,,,,,,,,,,,,,,,,,,0,4,4,0,1,,,,,,,,,,,,,,,,,,,,,,,,,,,,,,,,,,,,,,,,,
499132,001,2022-11-21_02h04.52.784,Info_measure_main_exp,2022.2.2,Win32,59.96282305,,,,,,,,,,,,,,,,,,,,,,,,,,,,,,3,3.3855,1,,,,,,,,,,,,0,131,5,5,2082,2178,absent_patch/patch0002082.jpg,absent_patch/patch0002178.jpg,,,,,,,,,,,,,,,,,,,,-0.10546875,-0.170572917,1,0,0,response5disk,5,0.00390625,0.006510417,1,0,0,center_square,0,4,4,2,1,,,,,,,,,,,,,,,,,,,,,,,
499132,001,2022-11-21_02h04.52.784,Info_measure_main_exp,2022.2.2,Win32,59.96282305,,,,,,,,,,,,,,,,,,masks/mask_005.jpg,,,,,,,,,,,,,,,,,,,,,,,,,,,,,,,,,,,,,,,,,,,0,0,0,4,1,,,,,,,,,,,,,,,,,,,,,,,,,,,,,,,,,,,,,,,,,,,,,,
499132,001,2022-11-21_02h04.52.784,Info_measure_main_exp,2022.2.2,Win32,59.96282305,,,,,,,,,,,,,,,,,,masks/mask_004.jpg,,,,,,,,,,,,,,,,,,,,,,,,,,,,,,,,,,,,,,,,,,,0,1,1,3,1,,,,,,,,,,,,,,,,,,,,,,,,,,,,,,,,,,,,,,,,,,,,,,
499132,001,2022-11-21_02h04.52.784,Info_measure_main_exp,2022.2.2,Win32,59.96282305,,,,,,,,,,,,,,,,,,masks/mask_001.jpg,,,,,,,,,,,,,,,,,,,,,,,,,,,,,,,,,,,,,,,,,,,0,2,2,0,1,,,,,,,,,,,,,,,,,,,,,,,,,,,,,,,,,,,,,,,,,,,,,,
499132,001,2022-11-21_02h04.52.784,Info_measure_main_exp,2022.2.2,Win32,59.96282305,,,,,,,,,,,,,,,,,,masks/mask_003.jpg,,,,,,,,,,,,,,,,,,,,,,,,,,,,,,,,,,,,,,,,,,,0,3,3,2,1,,,,,,,,,,,,,,,,,,,,,,,,,,,,,,,,,,,,,,,,,,,,,,
499132,001,2022-11-21_02h04.52.784,Info_measure_main_exp,2022.2.2,Win32,59.96282305,,,,,,,,,,,,,,,,,,masks/mask_002.jpg,,,,,,,,,,,,,,,,,,,,,,,,,,,,,,,,,,,,,,,,,,,0,4,4,1,1,,,,,,,,,,,,,,,,,,,,,,,,,,,,,,,,,,,,,,,,,,,,,,
499132,001,2022-11-21_02h04.52.784,Info_measure_main_exp,2022.2.2,Win32,59.96282305,,,,,,,,,,,,,,,,,,masks/mask_001.jpg,,,,,,,,,,,,,,,,,,,,,,,,,,,,,,,,,,,,,,,,,,,,,,,,0,0,0,0,1,,,,,,,,,,,,,,,,,,,,,,,,,,,,,,,,,,,,,,,,,
499132,001,2022-11-21_02h04.52.784,Info_measure_main_exp,2022.2.2,Win32,59.96282305,,,,,,,,,,,,,,,,,,masks/mask_002.jpg,,,,,,,,,,,,,,,,,,,,,,,,,,,,,,,,,,,,,,,,,,,,,,,,0,1,1,1,1,,,,,,,,,,,,,,,,,,,,,,,,,,,,,,,,,,,,,,,,,
499132,001,2022-11-21_02h04.52.784,Info_measure_main_exp,2022.2.2,Win32,59.96282305,,,,,,,,,,,,,,,,,,masks/mask_004.jpg,,,,,,,,,,,,,,,,,,,,,,,,,,,,,,,,,,,,,,,,,,,,,,,,0,2,2,3,1,,,,,,,,,,,,,,,,,,,,,,,,,,,,,,,,,,,,,,,,,
499132,001,2022-11-21_02h04.52.784,Info_measure_main_exp,2022.2.2,Win32,59.96282305,,,,,,,,,,,,,,,,,,masks/mask_003.jpg,,,,,,,,,,,,,,,,,,,,,,,,,,,,,,,,,,,,,,,,,,,,,,,,0,3,3,2,1,,,,,,,,,,,,,,,,,,,,,,,,,,,,,,,,,,,,,,,,,
499132,001,2022-11-21_02h04.52.784,Info_measure_main_exp,2022.2.2,Win32,59.96282305,,,,,,,,,,,,,,,,,,masks/mask_005.jpg,,,,,,,,,,,,,,,,,,,,,,,,,,,,,,,,,,,,,,,,,,,,,,,,0,4,4,4,1,,,,,,,,,,,,,,,,,,,,,,,,,,,,,,,,,,,,,,,,,
499132,001,2022-11-21_02h04.52.784,Info_measure_main_exp,2022.2.2,Win32,59.96282305,,,,,,,,,,,,,,,,,,,,,,,,,,,,,,0,1.2848,1,,,,,,,,,,,,0,131,5,5,1950,2238,absent_patch/patch0001950.jpg,absent_patch/patch0002238.jpg,,,,,,,,,,,,,,,,,,,,-0.014322917,0.153645833,1,0,0,response7disk,6,0.0078125,-0.005208333,1,0,0,center_square,0,5,5,8,1,,,,,,,,,,,,,,,,,,,,,,,
499132,001,2022-11-21_02h04.52.784,Info_measure_main_exp,2022.2.2,Win32,59.96282305,,,,,,,,,,,,,,,,,,masks/mask_004.jpg,,,,,,,,,,,,,,,,,,,,,,,,,,,,,,,,,,,,,,,,,,,0,0,0,3,1,,,,,,,,,,,,,,,,,,,,,,,,,,,,,,,,,,,,,,,,,,,,,,
499132,001,2022-11-21_02h04.52.784,Info_measure_main_exp,2022.2.2,Win32,59.96282305,,,,,,,,,,,,,,,,,,masks/mask_005.jpg,,,,,,,,,,,,,,,,,,,,,,,,,,,,,,,,,,,,,,,,,,,0,1,1,4,1,,,,,,,,,,,,,,,,,,,,,,,,,,,,,,,,,,,,,,,,,,,,,,
499132,001,2022-11-21_02h04.52.784,Info_measure_main_exp,2022.2.2,Win32,59.96282305,,,,,,,,,,,,,,,,,,masks/mask_001.jpg,,,,,,,,,,,,,,,,,,,,,,,,,,,,,,,,,,,,,,,,,,,0,2,2,0,1,,,,,,,,,,,,,,,,,,,,,,,,,,,,,,,,,,,,,,,,,,,,,,
499132,001,2022-11-21_02h04.52.784,Info_measure_main_exp,2022.2.2,Win32,59.96282305,,,,,,,,,,,,,,,,,,masks/mask_003.jpg,,,,,,,,,,,,,,,,,,,,,,,,,,,,,,,,,,,,,,,,,,,0,3,3,2,1,,,,,,,,,,,,,,,,,,,,,,,,,,,,,,,,,,,,,,,,,,,,,,
499132,001,2022-11-21_02h04.52.784,Info_measure_main_exp,2022.2.2,Win32,59.96282305,,,,,,,,,,,,,,,,,,masks/mask_002.jpg,,,,,,,,,,,,,,,,,,,,,,,,,,,,,,,,,,,,,,,,,,,0,4,4,1,1,,,,,,,,,,,,,,,,,,,,,,,,,,,,,,,,,,,,,,,,,,,,,,
499132,001,2022-11-21_02h04.52.784,Info_measure_main_exp,2022.2.2,Win32,59.96282305,,,,,,,,,,,,,,,,,,masks/mask_002.jpg,,,,,,,,,,,,,,,,,,,,,,,,,,,,,,,,,,,,,,,,,,,,,,,,0,0,0,1,1,,,,,,,,,,,,,,,,,,,,,,,,,,,,,,,,,,,,,,,,,
499132,001,2022-11-21_02h04.52.784,Info_measure_main_exp,2022.2.2,Win32,59.96282305,,,,,,,,,,,,,,,,,,masks/mask_001.jpg,,,,,,,,,,,,,,,,,,,,,,,,,,,,,,,,,,,,,,,,,,,,,,,,0,1,1,0,1,,,,,,,,,,,,,,,,,,,,,,,,,,,,,,,,,,,,,,,,,
499132,001,2022-11-21_02h04.52.784,Info_measure_main_exp,2022.2.2,Win32,59.96282305,,,,,,,,,,,,,,,,,,masks/mask_005.jpg,,,,,,,,,,,,,,,,,,,,,,,,,,,,,,,,,,,,,,,,,,,,,,,,0,2,2,4,1,,,,,,,,,,,,,,,,,,,,,,,,,,,,,,,,,,,,,,,,,
499132,001,2022-11-21_02h04.52.784,Info_measure_main_exp,2022.2.2,Win32,59.96282305,,,,,,,,,,,,,,,,,,masks/mask_004.jpg,,,,,,,,,,,,,,,,,,,,,,,,,,,,,,,,,,,,,,,,,,,,,,,,0,3,3,3,1,,,,,,,,,,,,,,,,,,,,,,,,,,,,,,,,,,,,,,,,,
499132,001,2022-11-21_02h04.52.784,Info_measure_main_exp,2022.2.2,Win32,59.96282305,,,,,,,,,,,,,,,,,,masks/mask_003.jpg,,,,,,,,,,,,,,,,,,,,,,,,,,,,,,,,,,,,,,,,,,,,,,,,0,4,4,2,1,,,,,,,,,,,,,,,,,,,,,,,,,,,,,,,,,,,,,,,,,
499132,001,2022-11-21_02h04.52.784,Info_measure_main_exp,2022.2.2,Win32,59.96282305,,,,,,,,,,,,,,,,,,,,,,,,,,,,,,7,1.0513,1,,,,,,,,,,,,0,131,5,5,2142,2166,absent_patch/patch0002142.jpg,absent_patch/patch0002166.jpg,,,,,,,,,,,,,,,,,,,,0.033854167,0.106770833,1,0,0,response1disk,7,-0.01171875,-0.00390625,1,0,0,center_square,0,6,6,66,1,,,,,,,,,,,,,,,,,,,,,,,
499132,001,2022-11-21_02h04.52.784,Info_measure_main_exp,2022.2.2,Win32,59.96282305,,,,,,,,,,,,,,,,,,masks/mask_005.jpg,,,,,,,,,,,,,,,,,,,,,,,,,,,,,,,,,,,,,,,,,,,0,0,0,4,1,,,,,,,,,,,,,,,,,,,,,,,,,,,,,,,,,,,,,,,,,,,,,,
499132,001,2022-11-21_02h04.52.784,Info_measure_main_exp,2022.2.2,Win32,59.96282305,,,,,,,,,,,,,,,,,,masks/mask_003.jpg,,,,,,,,,,,,,,,,,,,,,,,,,,,,,,,,,,,,,,,,,,,0,1,1,2,1,,,,,,,,,,,,,,,,,,,,,,,,,,,,,,,,,,,,,,,,,,,,,,
499132,001,2022-11-21_02h04.52.784,Info_measure_main_exp,2022.2.2,Win32,59.96282305,,,,,,,,,,,,,,,,,,masks/mask_001.jpg,,,,,,,,,,,,,,,,,,,,,,,,,,,,,,,,,,,,,,,,,,,0,2,2,0,1,,,,,,,,,,,,,,,,,,,,,,,,,,,,,,,,,,,,,,,,,,,,,,
499132,001,2022-11-21_02h04.52.784,Info_measure_main_exp,2022.2.2,Win32,59.96282305,,,,,,,,,,,,,,,,,,masks/mask_002.jpg,,,,,,,,,,,,,,,,,,,,,,,,,,,,,,,,,,,,,,,,,,,0,3,3,1,1,,,,,,,,,,,,,,,,,,,,,,,,,,,,,,,,,,,,,,,,,,,,,,
499132,001,2022-11-21_02h04.52.784,Info_measure_main_exp,2022.2.2,Win32,59.96282305,,,,,,,,,,,,,,,,,,masks/mask_004.jpg,,,,,,,,,,,,,,,,,,,,,,,,,,,,,,,,,,,,,,,,,,,0,4,4,3,1,,,,,,,,,,,,,,,,,,,,,,,,,,,,,,,,,,,,,,,,,,,,,,
499132,001,2022-11-21_02h04.52.784,Info_measure_main_exp,2022.2.2,Win32,59.96282305,,,,,,,,,,,,,,,,,,masks/mask_002.jpg,,,,,,,,,,,,,,,,,,,,,,,,,,,,,,,,,,,,,,,,,,,,,,,,0,0,0,1,1,,,,,,,,,,,,,,,,,,,,,,,,,,,,,,,,,,,,,,,,,
499132,001,2022-11-21_02h04.52.784,Info_measure_main_exp,2022.2.2,Win32,59.96282305,,,,,,,,,,,,,,,,,,masks/mask_004.jpg,,,,,,,,,,,,,,,,,,,,,,,,,,,,,,,,,,,,,,,,,,,,,,,,0,1,1,3,1,,,,,,,,,,,,,,,,,,,,,,,,,,,,,,,,,,,,,,,,,
499132,001,2022-11-21_02h04.52.784,Info_measure_main_exp,2022.2.2,Win32,59.96282305,,,,,,,,,,,,,,,,,,masks/mask_001.jpg,,,,,,,,,,,,,,,,,,,,,,,,,,,,,,,,,,,,,,,,,,,,,,,,0,2,2,0,1,,,,,,,,,,,,,,,,,,,,,,,,,,,,,,,,,,,,,,,,,
499132,001,2022-11-21_02h04.52.784,Info_measure_main_exp,2022.2.2,Win32,59.96282305,,,,,,,,,,,,,,,,,,masks/mask_005.jpg,,,,,,,,,,,,,,,,,,,,,,,,,,,,,,,,,,,,,,,,,,,,,,,,0,3,3,4,1,,,,,,,,,,,,,,,,,,,,,,,,,,,,,,,,,,,,,,,,,
499132,001,2022-11-21_02h04.52.784,Info_measure_main_exp,2022.2.2,Win32,59.96282305,,,,,,,,,,,,,,,,,,masks/mask_003.jpg,,,,,,,,,,,,,,,,,,,,,,,,,,,,,,,,,,,,,,,,,,,,,,,,0,4,4,2,1,,,,,,,,,,,,,,,,,,,,,,,,,,,,,,,,,,,,,,,,,
499132,001,2022-11-21_02h04.52.784,Info_measure_main_exp,2022.2.2,Win32,59.96282305,,,,,,,,,,,,,,,,,,,,,,,,,,,,,,6,1.5557,1,,,,,,,,,,,,1,131,5,5,1950,1,absent_patch/patch0001950.jpg,present_patch/cong_131_5_a.jpg,,,,,,,,,,,,,,,,,,,,0.0859375,0.048177083,1,0,0,response1disk,8,-0.009114583,0.006510417,1,0,0,center_square,0,7,7,39,1,,,,,,,,,,,,,,,,,,,,,,,
499132,001,2022-11-21_02h04.52.784,Info_measure_main_exp,2022.2.2,Win32,59.96282305,,,,,,,,,,,,,,,,,,masks/mask_004.jpg,,,,,,,,,,,,,,,,,,,,,,,,,,,,,,,,,,,,,,,,,,,0,0,0,3,1,,,,,,,,,,,,,,,,,,,,,,,,,,,,,,,,,,,,,,,,,,,,,,
499132,001,2022-11-21_02h04.52.784,Info_measure_main_exp,2022.2.2,Win32,59.96282305,,,,,,,,,,,,,,,,,,masks/mask_001.jpg,,,,,,,,,,,,,,,,,,,,,,,,,,,,,,,,,,,,,,,,,,,0,1,1,0,1,,,,,,,,,,,,,,,,,,,,,,,,,,,,,,,,,,,,,,,,,,,,,,
499132,001,2022-11-21_02h04.52.784,Info_measure_main_exp,2022.2.2,Win32,59.96282305,,,,,,,,,,,,,,,,,,masks/mask_005.jpg,,,,,,,,,,,,,,,,,,,,,,,,,,,,,,,,,,,,,,,,,,,0,2,2,4,1,,,,,,,,,,,,,,,,,,,,,,,,,,,,,,,,,,,,,,,,,,,,,,
499132,001,2022-11-21_02h04.52.784,Info_measure_main_exp,2022.2.2,Win32,59.96282305,,,,,,,,,,,,,,,,,,masks/mask_003.jpg,,,,,,,,,,,,,,,,,,,,,,,,,,,,,,,,,,,,,,,,,,,0,3,3,2,1,,,,,,,,,,,,,,,,,,,,,,,,,,,,,,,,,,,,,,,,,,,,,,
499132,001,2022-11-21_02h04.52.784,Info_measure_main_exp,2022.2.2,Win32,59.96282305,,,,,,,,,,,,,,,,,,masks/mask_002.jpg,,,,,,,,,,,,,,,,,,,,,,,,,,,,,,,,,,,,,,,,,,,0,4,4,1,1,,,,,,,,,,,,,,,,,,,,,,,,,,,,,,,,,,,,,,,,,,,,,,
499132,001,2022-11-21_02h04.52.784,Info_measure_main_exp,2022.2.2,Win32,59.96282305,,,,,,,,,,,,,,,,,,masks/mask_001.jpg,,,,,,,,,,,,,,,,,,,,,,,,,,,,,,,,,,,,,,,,,,,,,,,,0,0,0,0,1,,,,,,,,,,,,,,,,,,,,,,,,,,,,,,,,,,,,,,,,,
499132,001,2022-11-21_02h04.52.784,Info_measure_main_exp,2022.2.2,Win32,59.96282305,,,,,,,,,,,,,,,,,,masks/mask_002.jpg,,,,,,,,,,,,,,,,,,,,,,,,,,,,,,,,,,,,,,,,,,,,,,,,0,1,1,1,1,,,,,,,,,,,,,,,,,,,,,,,,,,,,,,,,,,,,,,,,,
499132,001,2022-11-21_02h04.52.784,Info_measure_main_exp,2022.2.2,Win32,59.96282305,,,,,,,,,,,,,,,,,,masks/mask_005.jpg,,,,,,,,,,,,,,,,,,,,,,,,,,,,,,,,,,,,,,,,,,,,,,,,0,2,2,4,1,,,,,,,,,,,,,,,,,,,,,,,,,,,,,,,,,,,,,,,,,
499132,001,2022-11-21_02h04.52.784,Info_measure_main_exp,2022.2.2,Win32,59.96282305,,,,,,,,,,,,,,,,,,masks/mask_003.jpg,,,,,,,,,,,,,,,,,,,,,,,,,,,,,,,,,,,,,,,,,,,,,,,,0,3,3,2,1,,,,,,,,,,,,,,,,,,,,,,,,,,,,,,,,,,,,,,,,,
499132,001,2022-11-21_02h04.52.784,Info_measure_main_exp,2022.2.2,Win32,59.96282305,,,,,,,,,,,,,,,,,,masks/mask_004.jpg,,,,,,,,,,,,,,,,,,,,,,,,,,,,,,,,,,,,,,,,,,,,,,,,0,4,4,3,1,,,,,,,,,,,,,,,,,,,,,,,,,,,,,,,,,,,,,,,,,
499132,001,2022-11-21_02h04.52.784,Info_measure_main_exp,2022.2.2,Win32,59.96282305,,,,,,,,,,,,,,,,,,,,,,,,,,,,,,0,1.4017,1,,,,,,,,,,,,0,131,5,5,2178,2178,absent_patch/patch0002178.jpg,absent_patch/patch0002178.jpg,,,,,,,,,,,,,,,,,,,,-0.020833333,0.08203125,1,0,0,response7disk,9,0,0.001302083,1,0,0,center_square,0,8,8,98,1,,,,,,,,,,,,,,,,,,,,,,,
499132,001,2022-11-21_02h04.52.784,Info_measure_main_exp,2022.2.2,Win32,59.96282305,,,,,,,,,,,,,,,,,,masks/mask_002.jpg,,,,,,,,,,,,,,,,,,,,,,,,,,,,,,,,,,,,,,,,,,,0,0,0,1,1,,,,,,,,,,,,,,,,,,,,,,,,,,,,,,,,,,,,,,,,,,,,,,
499132,001,2022-11-21_02h04.52.784,Info_measure_main_exp,2022.2.2,Win32,59.96282305,,,,,,,,,,,,,,,,,,masks/mask_004.jpg,,,,,,,,,,,,,,,,,,,,,,,,,,,,,,,,,,,,,,,,,,,0,1,1,3,1,,,,,,,,,,,,,,,,,,,,,,,,,,,,,,,,,,,,,,,,,,,,,,
499132,001,2022-11-21_02h04.52.784,Info_measure_main_exp,2022.2.2,Win32,59.96282305,,,,,,,,,,,,,,,,,,masks/mask_001.jpg,,,,,,,,,,,,,,,,,,,,,,,,,,,,,,,,,,,,,,,,,,,0,2,2,0,1,,,,,,,,,,,,,,,,,,,,,,,,,,,,,,,,,,,,,,,,,,,,,,
499132,001,2022-11-21_02h04.52.784,Info_measure_main_exp,2022.2.2,Win32,59.96282305,,,,,,,,,,,,,,,,,,masks/mask_003.jpg,,,,,,,,,,,,,,,,,,,,,,,,,,,,,,,,,,,,,,,,,,,0,3,3,2,1,,,,,,,,,,,,,,,,,,,,,,,,,,,,,,,,,,,,,,,,,,,,,,
499132,001,2022-11-21_02h04.52.784,Info_measure_main_exp,2022.2.2,Win32,59.96282305,,,,,,,,,,,,,,,,,,masks/mask_005.jpg,,,,,,,,,,,,,,,,,,,,,,,,,,,,,,,,,,,,,,,,,,,0,4,4,4,1,,,,,,,,,,,,,,,,,,,,,,,,,,,,,,,,,,,,,,,,,,,,,,
499132,001,2022-11-21_02h04.52.784,Info_measure_main_exp,2022.2.2,Win32,59.96282305,,,,,,,,,,,,,,,,,,masks/mask_002.jpg,,,,,,,,,,,,,,,,,,,,,,,,,,,,,,,,,,,,,,,,,,,,,,,,0,0,0,1,1,,,,,,,,,,,,,,,,,,,,,,,,,,,,,,,,,,,,,,,,,
499132,001,2022-11-21_02h04.52.784,Info_measure_main_exp,2022.2.2,Win32,59.96282305,,,,,,,,,,,,,,,,,,masks/mask_001.jpg,,,,,,,,,,,,,,,,,,,,,,,,,,,,,,,,,,,,,,,,,,,,,,,,0,1,1,0,1,,,,,,,,,,,,,,,,,,,,,,,,,,,,,,,,,,,,,,,,,
499132,001,2022-11-21_02h04.52.784,Info_measure_main_exp,2022.2.2,Win32,59.96282305,,,,,,,,,,,,,,,,,,masks/mask_004.jpg,,,,,,,,,,,,,,,,,,,,,,,,,,,,,,,,,,,,,,,,,,,,,,,,0,2,2,3,1,,,,,,,,,,,,,,,,,,,,,,,,,,,,,,,,,,,,,,,,,
499132,001,2022-11-21_02h04.52.784,Info_measure_main_exp,2022.2.2,Win32,59.96282305,,,,,,,,,,,,,,,,,,masks/mask_003.jpg,,,,,,,,,,,,,,,,,,,,,,,,,,,,,,,,,,,,,,,,,,,,,,,,0,3,3,2,1,,,,,,,,,,,,,,,,,,,,,,,,,,,,,,,,,,,,,,,,,
499132,001,2022-11-21_02h04.52.784,Info_measure_main_exp,2022.2.2,Win32,59.96282305,,,,,,,,,,,,,,,,,,masks/mask_005.jpg,,,,,,,,,,,,,,,,,,,,,,,,,,,,,,,,,,,,,,,,,,,,,,,,0,4,4,4,1,,,,,,,,,,,,,,,,,,,,,,,,,,,,,,,,,,,,,,,,,
499132,001,2022-11-21_02h04.52.784,Info_measure_main_exp,2022.2.2,Win32,59.96282305,,,,,,,,,,,,,,,,,,,,,,,,,,,,,,3,3.6669,1,,,,,,,,,,,,0,131,5,5,1950,2142,absent_patch/patch0001950.jpg,absent_patch/patch0002142.jpg,,,,,,,,,,,,,,,,,,,,-0.05859375,-0.143229167,1,0,0,response5disk,10,0.002604167,0.0078125,1,0,0,center_square,0,9,9,83,1,,,,,,,,,,,,,,,,,,,,,,,
499132,001,2022-11-21_02h04.52.784,Info_measure_main_exp,2022.2.2,Win32,59.96282305,,,,,,,,,,,,,,,,,,masks/mask_005.jpg,,,,,,,,,,,,,,,,,,,,,,,,,,,,,,,,,,,,,,,,,,,0,0,0,4,1,,,,,,,,,,,,,,,,,,,,,,,,,,,,,,,,,,,,,,,,,,,,,,
499132,001,2022-11-21_02h04.52.784,Info_measure_main_exp,2022.2.2,Win32,59.96282305,,,,,,,,,,,,,,,,,,masks/mask_002.jpg,,,,,,,,,,,,,,,,,,,,,,,,,,,,,,,,,,,,,,,,,,,0,1,1,1,1,,,,,,,,,,,,,,,,,,,,,,,,,,,,,,,,,,,,,,,,,,,,,,
499132,001,2022-11-21_02h04.52.784,Info_measure_main_exp,2022.2.2,Win32,59.96282305,,,,,,,,,,,,,,,,,,masks/mask_001.jpg,,,,,,,,,,,,,,,,,,,,,,,,,,,,,,,,,,,,,,,,,,,0,2,2,0,1,,,,,,,,,,,,,,,,,,,,,,,,,,,,,,,,,,,,,,,,,,,,,,
499132,001,2022-11-21_02h04.52.784,Info_measure_main_exp,2022.2.2,Win32,59.96282305,,,,,,,,,,,,,,,,,,masks/mask_004.jpg,,,,,,,,,,,,,,,,,,,,,,,,,,,,,,,,,,,,,,,,,,,0,3,3,3,1,,,,,,,,,,,,,,,,,,,,,,,,,,,,,,,,,,,,,,,,,,,,,,
499132,001,2022-11-21_02h04.52.784,Info_measure_main_exp,2022.2.2,Win32,59.96282305,,,,,,,,,,,,,,,,,,masks/mask_003.jpg,,,,,,,,,,,,,,,,,,,,,,,,,,,,,,,,,,,,,,,,,,,0,4,4,2,1,,,,,,,,,,,,,,,,,,,,,,,,,,,,,,,,,,,,,,,,,,,,,,
499132,001,2022-11-21_02h04.52.784,Info_measure_main_exp,2022.2.2,Win32,59.96282305,,,,,,,,,,,,,,,,,,masks/mask_005.jpg,,,,,,,,,,,,,,,,,,,,,,,,,,,,,,,,,,,,,,,,,,,,,,,,0,0,0,4,1,,,,,,,,,,,,,,,,,,,,,,,,,,,,,,,,,,,,,,,,,
499132,001,2022-11-21_02h04.52.784,Info_measure_main_exp,2022.2.2,Win32,59.96282305,,,,,,,,,,,,,,,,,,masks/mask_003.jpg,,,,,,,,,,,,,,,,,,,,,,,,,,,,,,,,,,,,,,,,,,,,,,,,0,1,1,2,1,,,,,,,,,,,,,,,,,,,,,,,,,,,,,,,,,,,,,,,,,
499132,001,2022-11-21_02h04.52.784,Info_measure_main_exp,2022.2.2,Win32,59.96282305,,,,,,,,,,,,,,,,,,masks/mask_004.jpg,,,,,,,,,,,,,,,,,,,,,,,,,,,,,,,,,,,,,,,,,,,,,,,,0,2,2,3,1,,,,,,,,,,,,,,,,,,,,,,,,,,,,,,,,,,,,,,,,,
499132,001,2022-11-21_02h04.52.784,Info_measure_main_exp,2022.2.2,Win32,59.96282305,,,,,,,,,,,,,,,,,,masks/mask_002.jpg,,,,,,,,,,,,,,,,,,,,,,,,,,,,,,,,,,,,,,,,,,,,,,,,0,3,3,1,1,,,,,,,,,,,,,,,,,,,,,,,,,,,,,,,,,,,,,,,,,
499132,001,2022-11-21_02h04.52.784,Info_measure_main_exp,2022.2.2,Win32,59.96282305,,,,,,,,,,,,,,,,,,masks/mask_001.jpg,,,,,,,,,,,,,,,,,,,,,,,,,,,,,,,,,,,,,,,,,,,,,,,,0,4,4,0,1,,,,,,,,,,,,,,,,,,,,,,,,,,,,,,,,,,,,,,,,,
499132,001,2022-11-21_02h04.52.784,Info_measure_main_exp,2022.2.2,Win32,59.96282305,,,,,,,,,,,,,,,,,,,,,,,,,,,,,,4,2.8324,1,,,,,,,,,,,,0,131,5,5,2214,2166,absent_patch/patch0002214.jpg,absent_patch/patch0002166.jpg,,,,,,,,,,,,,,,,,,,,0.100260417,-0.154947917,1,0,0,response3disk,11,-0.00390625,0.002604167,1,0,0,center_square,0,10,10,109,1,,,,,,,,,,,,,,,,,,,,,,,
499132,001,2022-11-21_02h04.52.784,Info_measure_main_exp,2022.2.2,Win32,59.96282305,,,,,,,,,,,,,,,,,,masks/mask_002.jpg,,,,,,,,,,,,,,,,,,,,,,,,,,,,,,,,,,,,,,,,,,,0,0,0,1,1,,,,,,,,,,,,,,,,,,,,,,,,,,,,,,,,,,,,,,,,,,,,,,
499132,001,2022-11-21_02h04.52.784,Info_measure_main_exp,2022.2.2,Win32,59.96282305,,,,,,,,,,,,,,,,,,masks/mask_005.jpg,,,,,,,,,,,,,,,,,,,,,,,,,,,,,,,,,,,,,,,,,,,0,1,1,4,1,,,,,,,,,,,,,,,,,,,,,,,,,,,,,,,,,,,,,,,,,,,,,,
499132,001,2022-11-21_02h04.52.784,Info_measure_main_exp,2022.2.2,Win32,59.96282305,,,,,,,,,,,,,,,,,,masks/mask_001.jpg,,,,,,,,,,,,,,,,,,,,,,,,,,,,,,,,,,,,,,,,,,,0,2,2,0,1,,,,,,,,,,,,,,,,,,,,,,,,,,,,,,,,,,,,,,,,,,,,,,
499132,001,2022-11-21_02h04.52.784,Info_measure_main_exp,2022.2.2,Win32,59.96282305,,,,,,,,,,,,,,,,,,masks/mask_003.jpg,,,,,,,,,,,,,,,,,,,,,,,,,,,,,,,,,,,,,,,,,,,0,3,3,2,1,,,,,,,,,,,,,,,,,,,,,,,,,,,,,,,,,,,,,,,,,,,,,,
499132,001,2022-11-21_02h04.52.784,Info_measure_main_exp,2022.2.2,Win32,59.96282305,,,,,,,,,,,,,,,,,,masks/mask_004.jpg,,,,,,,,,,,,,,,,,,,,,,,,,,,,,,,,,,,,,,,,,,,0,4,4,3,1,,,,,,,,,,,,,,,,,,,,,,,,,,,,,,,,,,,,,,,,,,,,,,
499132,001,2022-11-21_02h04.52.784,Info_measure_main_exp,2022.2.2,Win32,59.96282305,,,,,,,,,,,,,,,,,,masks/mask_002.jpg,,,,,,,,,,,,,,,,,,,,,,,,,,,,,,,,,,,,,,,,,,,,,,,,0,0,0,1,1,,,,,,,,,,,,,,,,,,,,,,,,,,,,,,,,,,,,,,,,,
499132,001,2022-11-21_02h04.52.784,Info_measure_main_exp,2022.2.2,Win32,59.96282305,,,,,,,,,,,,,,,,,,masks/mask_004.jpg,,,,,,,,,,,,,,,,,,,,,,,,,,,,,,,,,,,,,,,,,,,,,,,,0,1,1,3,1,,,,,,,,,,,,,,,,,,,,,,,,,,,,,,,,,,,,,,,,,
499132,001,2022-11-21_02h04.52.784,Info_measure_main_exp,2022.2.2,Win32,59.96282305,,,,,,,,,,,,,,,,,,masks/mask_005.jpg,,,,,,,,,,,,,,,,,,,,,,,,,,,,,,,,,,,,,,,,,,,,,,,,0,2,2,4,1,,,,,,,,,,,,,,,,,,,,,,,,,,,,,,,,,,,,,,,,,
499132,001,2022-11-21_02h04.52.784,Info_measure_main_exp,2022.2.2,Win32,59.96282305,,,,,,,,,,,,,,,,,,masks/mask_003.jpg,,,,,,,,,,,,,,,,,,,,,,,,,,,,,,,,,,,,,,,,,,,,,,,,0,3,3,2,1,,,,,,,,,,,,,,,,,,,,,,,,,,,,,,,,,,,,,,,,,
499132,001,2022-11-21_02h04.52.784,Info_measure_main_exp,2022.2.2,Win32,59.96282305,,,,,,,,,,,,,,,,,,masks/mask_001.jpg,,,,,,,,,,,,,,,,,,,,,,,,,,,,,,,,,,,,,,,,,,,,,,,,0,4,4,0,1,,,,,,,,,,,,,,,,,,,,,,,,,,,,,,,,,,,,,,,,,
499132,001,2022-11-21_02h04.52.784,Info_measure_main_exp,2022.2.2,Win32,59.96282305,,,,,,,,,,,,,,,,,,,,,,,,,,,,,,7,2.3172,1,,,,,,,,,,,,0,131,5,5,1974,2238,absent_patch/patch0001974.jpg,absent_patch/patch0002238.jpg,,,,,,,,,,,,,,,,,,,,0.0234375,0.0546875,1,0,0,response1disk,12,-0.014322917,0.009114583,1,0,0,center_square,0,11,11,95,1,,,,,,,,,,,,,,,,,,,,,,,
499132,001,2022-11-21_02h04.52.784,Info_measure_main_exp,2022.2.2,Win32,59.96282305,,,,,,,,,,,,,,,,,,masks/mask_001.jpg,,,,,,,,,,,,,,,,,,,,,,,,,,,,,,,,,,,,,,,,,,,0,0,0,0,1,,,,,,,,,,,,,,,,,,,,,,,,,,,,,,,,,,,,,,,,,,,,,,
499132,001,2022-11-21_02h04.52.784,Info_measure_main_exp,2022.2.2,Win32,59.96282305,,,,,,,,,,,,,,,,,,masks/mask_002.jpg,,,,,,,,,,,,,,,,,,,,,,,,,,,,,,,,,,,,,,,,,,,0,1,1,1,1,,,,,,,,,,,,,,,,,,,,,,,,,,,,,,,,,,,,,,,,,,,,,,
499132,001,2022-11-21_02h04.52.784,Info_measure_main_exp,2022.2.2,Win32,59.96282305,,,,,,,,,,,,,,,,,,masks/mask_005.jpg,,,,,,,,,,,,,,,,,,,,,,,,,,,,,,,,,,,,,,,,,,,0,2,2,4,1,,,,,,,,,,,,,,,,,,,,,,,,,,,,,,,,,,,,,,,,,,,,,,
499132,001,2022-11-21_02h04.52.784,Info_measure_main_exp,2022.2.2,Win32,59.96282305,,,,,,,,,,,,,,,,,,masks/mask_003.jpg,,,,,,,,,,,,,,,,,,,,,,,,,,,,,,,,,,,,,,,,,,,0,3,3,2,1,,,,,,,,,,,,,,,,,,,,,,,,,,,,,,,,,,,,,,,,,,,,,,
499132,001,2022-11-21_02h04.52.784,Info_measure_main_exp,2022.2.2,Win32,59.96282305,,,,,,,,,,,,,,,,,,masks/mask_004.jpg,,,,,,,,,,,,,,,,,,,,,,,,,,,,,,,,,,,,,,,,,,,0,4,4,3,1,,,,,,,,,,,,,,,,,,,,,,,,,,,,,,,,,,,,,,,,,,,,,,
499132,001,2022-11-21_02h04.52.784,Info_measure_main_exp,2022.2.2,Win32,59.96282305,,,,,,,,,,,,,,,,,,masks/mask_002.jpg,,,,,,,,,,,,,,,,,,,,,,,,,,,,,,,,,,,,,,,,,,,,,,,,0,0,0,1,1,,,,,,,,,,,,,,,,,,,,,,,,,,,,,,,,,,,,,,,,,
499132,001,2022-11-21_02h04.52.784,Info_measure_main_exp,2022.2.2,Win32,59.96282305,,,,,,,,,,,,,,,,,,masks/mask_001.jpg,,,,,,,,,,,,,,,,,,,,,,,,,,,,,,,,,,,,,,,,,,,,,,,,0,1,1,0,1,,,,,,,,,,,,,,,,,,,,,,,,,,,,,,,,,,,,,,,,,
499132,001,2022-11-21_02h04.52.784,Info_measure_main_exp,2022.2.2,Win32,59.96282305,,,,,,,,,,,,,,,,,,masks/mask_003.jpg,,,,,,,,,,,,,,,,,,,,,,,,,,,,,,,,,,,,,,,,,,,,,,,,0,2,2,2,1,,,,,,,,,,,,,,,,,,,,,,,,,,,,,,,,,,,,,,,,,
499132,001,2022-11-21_02h04.52.784,Info_measure_main_exp,2022.2.2,Win32,59.96282305,,,,,,,,,,,,,,,,,,masks/mask_005.jpg,,,,,,,,,,,,,,,,,,,,,,,,,,,,,,,,,,,,,,,,,,,,,,,,0,3,3,4,1,,,,,,,,,,,,,,,,,,,,,,,,,,,,,,,,,,,,,,,,,
499132,001,2022-11-21_02h04.52.784,Info_measure_main_exp,2022.2.2,Win32,59.96282305,,,,,,,,,,,,,,,,,,masks/mask_004.jpg,,,,,,,,,,,,,,,,,,,,,,,,,,,,,,,,,,,,,,,,,,,,,,,,0,4,4,3,1,,,,,,,,,,,,,,,,,,,,,,,,,,,,,,,,,,,,,,,,,
499132,001,2022-11-21_02h04.52.784,Info_measure_main_exp,2022.2.2,Win32,59.96282305,,,,,,,,,,,,,,,,,,,,,,,,,,,,,,3,2.3512,1,,,,,,,,,,,,0,131,5,5,2154,2298,absent_patch/patch0002154.jpg,absent_patch/patch0002298.jpg,,,,,,,,,,,,,,,,,,,,-0.0546875,-0.188802083,1,0,0,response5disk,13,-0.002604167,0.001302083,1,0,0,center_square,0,12,12,27,1,,,,,,,,,,,,,,,,,,,,,,,
499132,001,2022-11-21_02h04.52.784,Info_measure_main_exp,2022.2.2,Win32,59.96282305,,,,,,,,,,,,,,,,,,masks/mask_005.jpg,,,,,,,,,,,,,,,,,,,,,,,,,,,,,,,,,,,,,,,,,,,0,0,0,4,1,,,,,,,,,,,,,,,,,,,,,,,,,,,,,,,,,,,,,,,,,,,,,,
499132,001,2022-11-21_02h04.52.784,Info_measure_main_exp,2022.2.2,Win32,59.96282305,,,,,,,,,,,,,,,,,,masks/mask_002.jpg,,,,,,,,,,,,,,,,,,,,,,,,,,,,,,,,,,,,,,,,,,,0,1,1,1,1,,,,,,,,,,,,,,,,,,,,,,,,,,,,,,,,,,,,,,,,,,,,,,
499132,001,2022-11-21_02h04.52.784,Info_measure_main_exp,2022.2.2,Win32,59.96282305,,,,,,,,,,,,,,,,,,masks/mask_003.jpg,,,,,,,,,,,,,,,,,,,,,,,,,,,,,,,,,,,,,,,,,,,0,2,2,2,1,,,,,,,,,,,,,,,,,,,,,,,,,,,,,,,,,,,,,,,,,,,,,,
499132,001,2022-11-21_02h04.52.784,Info_measure_main_exp,2022.2.2,Win32,59.96282305,,,,,,,,,,,,,,,,,,masks/mask_004.jpg,,,,,,,,,,,,,,,,,,,,,,,,,,,,,,,,,,,,,,,,,,,0,3,3,3,1,,,,,,,,,,,,,,,,,,,,,,,,,,,,,,,,,,,,,,,,,,,,,,
499132,001,2022-11-21_02h04.52.784,Info_measure_main_exp,2022.2.2,Win32,59.96282305,,,,,,,,,,,,,,,,,,masks/mask_001.jpg,,,,,,,,,,,,,,,,,,,,,,,,,,,,,,,,,,,,,,,,,,,0,4,4,0,1,,,,,,,,,,,,,,,,,,,,,,,,,,,,,,,,,,,,,,,,,,,,,,
499132,001,2022-11-21_02h04.52.784,Info_measure_main_exp,2022.2.2,Win32,59.96282305,,,,,,,,,,,,,,,,,,masks/mask_003.jpg,,,,,,,,,,,,,,,,,,,,,,,,,,,,,,,,,,,,,,,,,,,,,,,,0,0,0,2,1,,,,,,,,,,,,,,,,,,,,,,,,,,,,,,,,,,,,,,,,,
499132,001,2022-11-21_02h04.52.784,Info_measure_main_exp,2022.2.2,Win32,59.96282305,,,,,,,,,,,,,,,,,,masks/mask_004.jpg,,,,,,,,,,,,,,,,,,,,,,,,,,,,,,,,,,,,,,,,,,,,,,,,0,1,1,3,1,,,,,,,,,,,,,,,,,,,,,,,,,,,,,,,,,,,,,,,,,
499132,001,2022-11-21_02h04.52.784,Info_measure_main_exp,2022.2.2,Win32,59.96282305,,,,,,,,,,,,,,,,,,masks/mask_005.jpg,,,,,,,,,,,,,,,,,,,,,,,,,,,,,,,,,,,,,,,,,,,,,,,,0,2,2,4,1,,,,,,,,,,,,,,,,,,,,,,,,,,,,,,,,,,,,,,,,,
499132,001,2022-11-21_02h04.52.784,Info_measure_main_exp,2022.2.2,Win32,59.96282305,,,,,,,,,,,,,,,,,,masks/mask_001.jpg,,,,,,,,,,,,,,,,,,,,,,,,,,,,,,,,,,,,,,,,,,,,,,,,0,3,3,0,1,,,,,,,,,,,,,,,,,,,,,,,,,,,,,,,,,,,,,,,,,
499132,001,2022-11-21_02h04.52.784,Info_measure_main_exp,2022.2.2,Win32,59.96282305,,,,,,,,,,,,,,,,,,masks/mask_002.jpg,,,,,,,,,,,,,,,,,,,,,,,,,,,,,,,,,,,,,,,,,,,,,,,,0,4,4,1,1,,,,,,,,,,,,,,,,,,,,,,,,,,,,,,,,,,,,,,,,,
499132,001,2022-11-21_02h04.52.784,Info_measure_main_exp,2022.2.2,Win32,59.96282305,,,,,,,,,,,,,,,,,,,,,,,,,,,,,,5,2.7169,1,,,,,,,,,,,,0,131,5,5,2082,1974,absent_patch/patch0002082.jpg,absent_patch/patch0001974.jpg,,,,,,,,,,,,,,,,,,,,0.065104167,-0.02734375,1,0,0,response3disk,14,0.006510417,0.001302083,1,0,0,center_square,0,13,13,26,1,,,,,,,,,,,,,,,,,,,,,,,
499132,001,2022-11-21_02h04.52.784,Info_measure_main_exp,2022.2.2,Win32,59.96282305,,,,,,,,,,,,,,,,,,masks/mask_002.jpg,,,,,,,,,,,,,,,,,,,,,,,,,,,,,,,,,,,,,,,,,,,0,0,0,1,1,,,,,,,,,,,,,,,,,,,,,,,,,,,,,,,,,,,,,,,,,,,,,,
499132,001,2022-11-21_02h04.52.784,Info_measure_main_exp,2022.2.2,Win32,59.96282305,,,,,,,,,,,,,,,,,,masks/mask_005.jpg,,,,,,,,,,,,,,,,,,,,,,,,,,,,,,,,,,,,,,,,,,,0,1,1,4,1,,,,,,,,,,,,,,,,,,,,,,,,,,,,,,,,,,,,,,,,,,,,,,
499132,001,2022-11-21_02h04.52.784,Info_measure_main_exp,2022.2.2,Win32,59.96282305,,,,,,,,,,,,,,,,,,masks/mask_001.jpg,,,,,,,,,,,,,,,,,,,,,,,,,,,,,,,,,,,,,,,,,,,0,2,2,0,1,,,,,,,,,,,,,,,,,,,,,,,,,,,,,,,,,,,,,,,,,,,,,,
499132,001,2022-11-21_02h04.52.784,Info_measure_main_exp,2022.2.2,Win32,59.96282305,,,,,,,,,,,,,,,,,,masks/mask_004.jpg,,,,,,,,,,,,,,,,,,,,,,,,,,,,,,,,,,,,,,,,,,,0,3,3,3,1,,,,,,,,,,,,,,,,,,,,,,,,,,,,,,,,,,,,,,,,,,,,,,
499132,001,2022-11-21_02h04.52.784,Info_measure_main_exp,2022.2.2,Win32,59.96282305,,,,,,,,,,,,,,,,,,masks/mask_003.jpg,,,,,,,,,,,,,,,,,,,,,,,,,,,,,,,,,,,,,,,,,,,0,4,4,2,1,,,,,,,,,,,,,,,,,,,,,,,,,,,,,,,,,,,,,,,,,,,,,,
499132,001,2022-11-21_02h04.52.784,Info_measure_main_exp,2022.2.2,Win32,59.96282305,,,,,,,,,,,,,,,,,,masks/mask_001.jpg,,,,,,,,,,,,,,,,,,,,,,,,,,,,,,,,,,,,,,,,,,,,,,,,0,0,0,0,1,,,,,,,,,,,,,,,,,,,,,,,,,,,,,,,,,,,,,,,,,
499132,001,2022-11-21_02h04.52.784,Info_measure_main_exp,2022.2.2,Win32,59.96282305,,,,,,,,,,,,,,,,,,masks/mask_002.jpg,,,,,,,,,,,,,,,,,,,,,,,,,,,,,,,,,,,,,,,,,,,,,,,,0,1,1,1,1,,,,,,,,,,,,,,,,,,,,,,,,,,,,,,,,,,,,,,,,,
499132,001,2022-11-21_02h04.52.784,Info_measure_main_exp,2022.2.2,Win32,59.96282305,,,,,,,,,,,,,,,,,,masks/mask_005.jpg,,,,,,,,,,,,,,,,,,,,,,,,,,,,,,,,,,,,,,,,,,,,,,,,0,2,2,4,1,,,,,,,,,,,,,,,,,,,,,,,,,,,,,,,,,,,,,,,,,
499132,001,2022-11-21_02h04.52.784,Info_measure_main_exp,2022.2.2,Win32,59.96282305,,,,,,,,,,,,,,,,,,masks/mask_003.jpg,,,,,,,,,,,,,,,,,,,,,,,,,,,,,,,,,,,,,,,,,,,,,,,,0,3,3,2,1,,,,,,,,,,,,,,,,,,,,,,,,,,,,,,,,,,,,,,,,,
499132,001,2022-11-21_02h04.52.784,Info_measure_main_exp,2022.2.2,Win32,59.96282305,,,,,,,,,,,,,,,,,,masks/mask_004.jpg,,,,,,,,,,,,,,,,,,,,,,,,,,,,,,,,,,,,,,,,,,,,,,,,0,4,4,3,1,,,,,,,,,,,,,,,,,,,,,,,,,,,,,,,,,,,,,,,,,
499132,001,2022-11-21_02h04.52.784,Info_measure_main_exp,2022.2.2,Win32,59.96282305,,,,,,,,,,,,,,,,,,,,,,,,,,,,,,7,1.2904,1,,,,,,,,,,,,0,131,5,5,2298,2142,absent_patch/patch0002298.jpg,absent_patch/patch0002142.jpg,,,,,,,,,,,,,,,,,,,,0.029947917,0.067708333,1,0,0,response1disk,15,0.010416667,-0.002604167,1,0,0,center_square,0,14,14,49,1,,,,,,,,,,,,,,,,,,,,,,,
499132,001,2022-11-21_02h04.52.784,Info_measure_main_exp,2022.2.2,Win32,59.96282305,,,,,,,,,,,,,,,,,,masks/mask_004.jpg,,,,,,,,,,,,,,,,,,,,,,,,,,,,,,,,,,,,,,,,,,,0,0,0,3,1,,,,,,,,,,,,,,,,,,,,,,,,,,,,,,,,,,,,,,,,,,,,,,
499132,001,2022-11-21_02h04.52.784,Info_measure_main_exp,2022.2.2,Win32,59.96282305,,,,,,,,,,,,,,,,,,masks/mask_001.jpg,,,,,,,,,,,,,,,,,,,,,,,,,,,,,,,,,,,,,,,,,,,0,1,1,0,1,,,,,,,,,,,,,,,,,,,,,,,,,,,,,,,,,,,,,,,,,,,,,,
499132,001,2022-11-21_02h04.52.784,Info_measure_main_exp,2022.2.2,Win32,59.96282305,,,,,,,,,,,,,,,,,,masks/mask_003.jpg,,,,,,,,,,,,,,,,,,,,,,,,,,,,,,,,,,,,,,,,,,,0,2,2,2,1,,,,,,,,,,,,,,,,,,,,,,,,,,,,,,,,,,,,,,,,,,,,,,
499132,001,2022-11-21_02h04.52.784,Info_measure_main_exp,2022.2.2,Win32,59.96282305,,,,,,,,,,,,,,,,,,masks/mask_005.jpg,,,,,,,,,,,,,,,,,,,,,,,,,,,,,,,,,,,,,,,,,,,0,3,3,4,1,,,,,,,,,,,,,,,,,,,,,,,,,,,,,,,,,,,,,,,,,,,,,,
499132,001,2022-11-21_02h04.52.784,Info_measure_main_exp,2022.2.2,Win32,59.96282305,,,,,,,,,,,,,,,,,,masks/mask_002.jpg,,,,,,,,,,,,,,,,,,,,,,,,,,,,,,,,,,,,,,,,,,,0,4,4,1,1,,,,,,,,,,,,,,,,,,,,,,,,,,,,,,,,,,,,,,,,,,,,,,
499132,001,2022-11-21_02h04.52.784,Info_measure_main_exp,2022.2.2,Win32,59.96282305,,,,,,,,,,,,,,,,,,masks/mask_002.jpg,,,,,,,,,,,,,,,,,,,,,,,,,,,,,,,,,,,,,,,,,,,,,,,,0,0,0,1,1,,,,,,,,,,,,,,,,,,,,,,,,,,,,,,,,,,,,,,,,,
499132,001,2022-11-21_02h04.52.784,Info_measure_main_exp,2022.2.2,Win32,59.96282305,,,,,,,,,,,,,,,,,,masks/mask_003.jpg,,,,,,,,,,,,,,,,,,,,,,,,,,,,,,,,,,,,,,,,,,,,,,,,0,1,1,2,1,,,,,,,,,,,,,,,,,,,,,,,,,,,,,,,,,,,,,,,,,
499132,001,2022-11-21_02h04.52.784,Info_measure_main_exp,2022.2.2,Win32,59.96282305,,,,,,,,,,,,,,,,,,masks/mask_004.jpg,,,,,,,,,,,,,,,,,,,,,,,,,,,,,,,,,,,,,,,,,,,,,,,,0,2,2,3,1,,,,,,,,,,,,,,,,,,,,,,,,,,,,,,,,,,,,,,,,,
499132,001,2022-11-21_02h04.52.784,Info_measure_main_exp,2022.2.2,Win32,59.96282305,,,,,,,,,,,,,,,,,,masks/mask_005.jpg,,,,,,,,,,,,,,,,,,,,,,,,,,,,,,,,,,,,,,,,,,,,,,,,0,3,3,4,1,,,,,,,,,,,,,,,,,,,,,,,,,,,,,,,,,,,,,,,,,
499132,001,2022-11-21_02h04.52.784,Info_measure_main_exp,2022.2.2,Win32,59.96282305,,,,,,,,,,,,,,,,,,masks/mask_001.jpg,,,,,,,,,,,,,,,,,,,,,,,,,,,,,,,,,,,,,,,,,,,,,,,,0,4,4,0,1,,,,,,,,,,,,,,,,,,,,,,,,,,,,,,,,,,,,,,,,,
499132,001,2022-11-21_02h04.52.784,Info_measure_main_exp,2022.2.2,Win32,59.96282305,,,,,,,,,,,,,,,,,,,,,,,,,,,,,,2,1.7986,1,,,,,,,,,,,,0,131,5,5,1974,1950,absent_patch/patch0001974.jpg,absent_patch/patch0001950.jpg,,,,,,,,,,,,,,,,,,,,-0.123697917,-0.08203125,1,0,0,response5disk,16,-0.010416667,-0.006510417,1,0,0,center_square,0,15,15,17,1,,,,,,,,,,,,,,,,,,,,,,,
499132,001,2022-11-21_02h04.52.784,Info_measure_main_exp,2022.2.2,Win32,59.96282305,,,,,,,,,,,,,,,,,,masks/mask_004.jpg,,,,,,,,,,,,,,,,,,,,,,,,,,,,,,,,,,,,,,,,,,,0,0,0,3,1,,,,,,,,,,,,,,,,,,,,,,,,,,,,,,,,,,,,,,,,,,,,,,
499132,001,2022-11-21_02h04.52.784,Info_measure_main_exp,2022.2.2,Win32,59.96282305,,,,,,,,,,,,,,,,,,masks/mask_002.jpg,,,,,,,,,,,,,,,,,,,,,,,,,,,,,,,,,,,,,,,,,,,0,1,1,1,1,,,,,,,,,,,,,,,,,,,,,,,,,,,,,,,,,,,,,,,,,,,,,,
499132,001,2022-11-21_02h04.52.784,Info_measure_main_exp,2022.2.2,Win32,59.96282305,,,,,,,,,,,,,,,,,,masks/mask_001.jpg,,,,,,,,,,,,,,,,,,,,,,,,,,,,,,,,,,,,,,,,,,,0,2,2,0,1,,,,,,,,,,,,,,,,,,,,,,,,,,,,,,,,,,,,,,,,,,,,,,
499132,001,2022-11-21_02h04.52.784,Info_measure_main_exp,2022.2.2,Win32,59.96282305,,,,,,,,,,,,,,,,,,masks/mask_005.jpg,,,,,,,,,,,,,,,,,,,,,,,,,,,,,,,,,,,,,,,,,,,0,3,3,4,1,,,,,,,,,,,,,,,,,,,,,,,,,,,,,,,,,,,,,,,,,,,,,,
499132,001,2022-11-21_02h04.52.784,Info_measure_main_exp,2022.2.2,Win32,59.96282305,,,,,,,,,,,,,,,,,,masks/mask_003.jpg,,,,,,,,,,,,,,,,,,,,,,,,,,,,,,,,,,,,,,,,,,,0,4,4,2,1,,,,,,,,,,,,,,,,,,,,,,,,,,,,,,,,,,,,,,,,,,,,,,
499132,001,2022-11-21_02h04.52.784,Info_measure_main_exp,2022.2.2,Win32,59.96282305,,,,,,,,,,,,,,,,,,masks/mask_005.jpg,,,,,,,,,,,,,,,,,,,,,,,,,,,,,,,,,,,,,,,,,,,,,,,,0,0,0,4,1,,,,,,,,,,,,,,,,,,,,,,,,,,,,,,,,,,,,,,,,,
499132,001,2022-11-21_02h04.52.784,Info_measure_main_exp,2022.2.2,Win32,59.96282305,,,,,,,,,,,,,,,,,,masks/mask_001.jpg,,,,,,,,,,,,,,,,,,,,,,,,,,,,,,,,,,,,,,,,,,,,,,,,0,1,1,0,1,,,,,,,,,,,,,,,,,,,,,,,,,,,,,,,,,,,,,,,,,
499132,001,2022-11-21_02h04.52.784,Info_measure_main_exp,2022.2.2,Win32,59.96282305,,,,,,,,,,,,,,,,,,masks/mask_002.jpg,,,,,,,,,,,,,,,,,,,,,,,,,,,,,,,,,,,,,,,,,,,,,,,,0,2,2,1,1,,,,,,,,,,,,,,,,,,,,,,,,,,,,,,,,,,,,,,,,,
499132,001,2022-11-21_02h04.52.784,Info_measure_main_exp,2022.2.2,Win32,59.96282305,,,,,,,,,,,,,,,,,,masks/mask_003.jpg,,,,,,,,,,,,,,,,,,,,,,,,,,,,,,,,,,,,,,,,,,,,,,,,0,3,3,2,1,,,,,,,,,,,,,,,,,,,,,,,,,,,,,,,,,,,,,,,,,
499132,001,2022-11-21_02h04.52.784,Info_measure_main_exp,2022.2.2,Win32,59.96282305,,,,,,,,,,,,,,,,,,masks/mask_004.jpg,,,,,,,,,,,,,,,,,,,,,,,,,,,,,,,,,,,,,,,,,,,,,,,,0,4,4,3,1,,,,,,,,,,,,,,,,,,,,,,,,,,,,,,,,,,,,,,,,,
499132,001,2022-11-21_02h04.52.784,Info_measure_main_exp,2022.2.2,Win32,59.96282305,,,,,,,,,,,,,,,,,,,,,,,,,,,,,,7,3.6645,1,,,,,,,,,,,,0,131,5,5,1974,2250,absent_patch/patch0001974.jpg,absent_patch/patch0002250.jpg,,,,,,,,,,,,,,,,,,,,0.083333333,0.119791667,1,0,0,response1disk,17,-0.001302083,-0.001302083,1,0,0,center_square,0,16,16,55,1,,,,,,,,,,,,,,,,,,,,,,,
499132,001,2022-11-21_02h04.52.784,Info_measure_main_exp,2022.2.2,Win32,59.96282305,,,,,,,,,,,,,,,,,,masks/mask_003.jpg,,,,,,,,,,,,,,,,,,,,,,,,,,,,,,,,,,,,,,,,,,,0,0,0,2,1,,,,,,,,,,,,,,,,,,,,,,,,,,,,,,,,,,,,,,,,,,,,,,
499132,001,2022-11-21_02h04.52.784,Info_measure_main_exp,2022.2.2,Win32,59.96282305,,,,,,,,,,,,,,,,,,masks/mask_001.jpg,,,,,,,,,,,,,,,,,,,,,,,,,,,,,,,,,,,,,,,,,,,0,1,1,0,1,,,,,,,,,,,,,,,,,,,,,,,,,,,,,,,,,,,,,,,,,,,,,,
499132,001,2022-11-21_02h04.52.784,Info_measure_main_exp,2022.2.2,Win32,59.96282305,,,,,,,,,,,,,,,,,,masks/mask_002.jpg,,,,,,,,,,,,,,,,,,,,,,,,,,,,,,,,,,,,,,,,,,,0,2,2,1,1,,,,,,,,,,,,,,,,,,,,,,,,,,,,,,,,,,,,,,,,,,,,,,
499132,001,2022-11-21_02h04.52.784,Info_measure_main_exp,2022.2.2,Win32,59.96282305,,,,,,,,,,,,,,,,,,masks/mask_004.jpg,,,,,,,,,,,,,,,,,,,,,,,,,,,,,,,,,,,,,,,,,,,0,3,3,3,1,,,,,,,,,,,,,,,,,,,,,,,,,,,,,,,,,,,,,,,,,,,,,,
499132,001,2022-11-21_02h04.52.784,Info_measure_main_exp,2022.2.2,Win32,59.96282305,,,,,,,,,,,,,,,,,,masks/mask_005.jpg,,,,,,,,,,,,,,,,,,,,,,,,,,,,,,,,,,,,,,,,,,,0,4,4,4,1,,,,,,,,,,,,,,,,,,,,,,,,,,,,,,,,,,,,,,,,,,,,,,
499132,001,2022-11-21_02h04.52.784,Info_measure_main_exp,2022.2.2,Win32,59.96282305,,,,,,,,,,,,,,,,,,masks/mask_001.jpg,,,,,,,,,,,,,,,,,,,,,,,,,,,,,,,,,,,,,,,,,,,,,,,,0,0,0,0,1,,,,,,,,,,,,,,,,,,,,,,,,,,,,,,,,,,,,,,,,,
499132,001,2022-11-21_02h04.52.784,Info_measure_main_exp,2022.2.2,Win32,59.96282305,,,,,,,,,,,,,,,,,,masks/mask_004.jpg,,,,,,,,,,,,,,,,,,,,,,,,,,,,,,,,,,,,,,,,,,,,,,,,0,1,1,3,1,,,,,,,,,,,,,,,,,,,,,,,,,,,,,,,,,,,,,,,,,
499132,001,2022-11-21_02h04.52.784,Info_measure_main_exp,2022.2.2,Win32,59.96282305,,,,,,,,,,,,,,,,,,masks/mask_003.jpg,,,,,,,,,,,,,,,,,,,,,,,,,,,,,,,,,,,,,,,,,,,,,,,,0,2,2,2,1,,,,,,,,,,,,,,,,,,,,,,,,,,,,,,,,,,,,,,,,,
499132,001,2022-11-21_02h04.52.784,Info_measure_main_exp,2022.2.2,Win32,59.96282305,,,,,,,,,,,,,,,,,,masks/mask_002.jpg,,,,,,,,,,,,,,,,,,,,,,,,,,,,,,,,,,,,,,,,,,,,,,,,0,3,3,1,1,,,,,,,,,,,,,,,,,,,,,,,,,,,,,,,,,,,,,,,,,
499132,001,2022-11-21_02h04.52.784,Info_measure_main_exp,2022.2.2,Win32,59.96282305,,,,,,,,,,,,,,,,,,masks/mask_005.jpg,,,,,,,,,,,,,,,,,,,,,,,,,,,,,,,,,,,,,,,,,,,,,,,,0,4,4,4,1,,,,,,,,,,,,,,,,,,,,,,,,,,,,,,,,,,,,,,,,,
499132,001,2022-11-21_02h04.52.784,Info_measure_main_exp,2022.2.2,Win32,59.96282305,,,,,,,,,,,,,,,,,,,,,,,,,,,,,,6,1.6712,1,,,,,,,,,,,,0,131,5,5,2142,2190,absent_patch/patch0002142.jpg,absent_patch/patch0002190.jpg,,,,,,,,,,,,,,,,,,,,0.05859375,0.03515625,1,0,0,response1disk,18,0.001302083,0.013020833,1,0,0,center_square,0,17,17,70,1,,,,,,,,,,,,,,,,,,,,,,,
499132,001,2022-11-21_02h04.52.784,Info_measure_main_exp,2022.2.2,Win32,59.96282305,,,,,,,,,,,,,,,,,,masks/mask_005.jpg,,,,,,,,,,,,,,,,,,,,,,,,,,,,,,,,,,,,,,,,,,,0,0,0,4,1,,,,,,,,,,,,,,,,,,,,,,,,,,,,,,,,,,,,,,,,,,,,,,
499132,001,2022-11-21_02h04.52.784,Info_measure_main_exp,2022.2.2,Win32,59.96282305,,,,,,,,,,,,,,,,,,masks/mask_004.jpg,,,,,,,,,,,,,,,,,,,,,,,,,,,,,,,,,,,,,,,,,,,0,1,1,3,1,,,,,,,,,,,,,,,,,,,,,,,,,,,,,,,,,,,,,,,,,,,,,,
499132,001,2022-11-21_02h04.52.784,Info_measure_main_exp,2022.2.2,Win32,59.96282305,,,,,,,,,,,,,,,,,,masks/mask_003.jpg,,,,,,,,,,,,,,,,,,,,,,,,,,,,,,,,,,,,,,,,,,,0,2,2,2,1,,,,,,,,,,,,,,,,,,,,,,,,,,,,,,,,,,,,,,,,,,,,,,
499132,001,2022-11-21_02h04.52.784,Info_measure_main_exp,2022.2.2,Win32,59.96282305,,,,,,,,,,,,,,,,,,masks/mask_002.jpg,,,,,,,,,,,,,,,,,,,,,,,,,,,,,,,,,,,,,,,,,,,0,3,3,1,1,,,,,,,,,,,,,,,,,,,,,,,,,,,,,,,,,,,,,,,,,,,,,,
499132,001,2022-11-21_02h04.52.784,Info_measure_main_exp,2022.2.2,Win32,59.96282305,,,,,,,,,,,,,,,,,,masks/mask_001.jpg,,,,,,,,,,,,,,,,,,,,,,,,,,,,,,,,,,,,,,,,,,,0,4,4,0,1,,,,,,,,,,,,,,,,,,,,,,,,,,,,,,,,,,,,,,,,,,,,,,
499132,001,2022-11-21_02h04.52.784,Info_measure_main_exp,2022.2.2,Win32,59.96282305,,,,,,,,,,,,,,,,,,masks/mask_004.jpg,,,,,,,,,,,,,,,,,,,,,,,,,,,,,,,,,,,,,,,,,,,,,,,,0,0,0,3,1,,,,,,,,,,,,,,,,,,,,,,,,,,,,,,,,,,,,,,,,,
499132,001,2022-11-21_02h04.52.784,Info_measure_main_exp,2022.2.2,Win32,59.96282305,,,,,,,,,,,,,,,,,,masks/mask_002.jpg,,,,,,,,,,,,,,,,,,,,,,,,,,,,,,,,,,,,,,,,,,,,,,,,0,1,1,1,1,,,,,,,,,,,,,,,,,,,,,,,,,,,,,,,,,,,,,,,,,
499132,001,2022-11-21_02h04.52.784,Info_measure_main_exp,2022.2.2,Win32,59.96282305,,,,,,,,,,,,,,,,,,masks/mask_005.jpg,,,,,,,,,,,,,,,,,,,,,,,,,,,,,,,,,,,,,,,,,,,,,,,,0,2,2,4,1,,,,,,,,,,,,,,,,,,,,,,,,,,,,,,,,,,,,,,,,,
499132,001,2022-11-21_02h04.52.784,Info_measure_main_exp,2022.2.2,Win32,59.96282305,,,,,,,,,,,,,,,,,,masks/mask_001.jpg,,,,,,,,,,,,,,,,,,,,,,,,,,,,,,,,,,,,,,,,,,,,,,,,0,3,3,0,1,,,,,,,,,,,,,,,,,,,,,,,,,,,,,,,,,,,,,,,,,
499132,001,2022-11-21_02h04.52.784,Info_measure_main_exp,2022.2.2,Win32,59.96282305,,,,,,,,,,,,,,,,,,masks/mask_003.jpg,,,,,,,,,,,,,,,,,,,,,,,,,,,,,,,,,,,,,,,,,,,,,,,,0,4,4,2,1,,,,,,,,,,,,,,,,,,,,,,,,,,,,,,,,,,,,,,,,,
499132,001,2022-11-21_02h04.52.784,Info_measure_main_exp,2022.2.2,Win32,59.96282305,,,,,,,,,,,,,,,,,,,,,,,,,,,,,,5,1.6214,1,,,,,,,,,,,,1,131,5,5,2298,1,absent_patch/patch0002298.jpg,present_patch/cong_131_5_a.jpg,,,,,,,,,,,,,,,,,,,,0.055989583,-0.036458333,1,0,0,response3disk,19,0.009114583,0,1,0,0,center_square,0,18,18,45,1,,,,,,,,,,,,,,,,,,,,,,,
499132,001,2022-11-21_02h04.52.784,Info_measure_main_exp,2022.2.2,Win32,59.96282305,,,,,,,,,,,,,,,,,,masks/mask_001.jpg,,,,,,,,,,,,,,,,,,,,,,,,,,,,,,,,,,,,,,,,,,,0,0,0,0,1,,,,,,,,,,,,,,,,,,,,,,,,,,,,,,,,,,,,,,,,,,,,,,
499132,001,2022-11-21_02h04.52.784,Info_measure_main_exp,2022.2.2,Win32,59.96282305,,,,,,,,,,,,,,,,,,masks/mask_002.jpg,,,,,,,,,,,,,,,,,,,,,,,,,,,,,,,,,,,,,,,,,,,0,1,1,1,1,,,,,,,,,,,,,,,,,,,,,,,,,,,,,,,,,,,,,,,,,,,,,,
499132,001,2022-11-21_02h04.52.784,Info_measure_main_exp,2022.2.2,Win32,59.96282305,,,,,,,,,,,,,,,,,,masks/mask_003.jpg,,,,,,,,,,,,,,,,,,,,,,,,,,,,,,,,,,,,,,,,,,,0,2,2,2,1,,,,,,,,,,,,,,,,,,,,,,,,,,,,,,,,,,,,,,,,,,,,,,
499132,001,2022-11-21_02h04.52.784,Info_measure_main_exp,2022.2.2,Win32,59.96282305,,,,,,,,,,,,,,,,,,masks/mask_005.jpg,,,,,,,,,,,,,,,,,,,,,,,,,,,,,,,,,,,,,,,,,,,0,3,3,4,1,,,,,,,,,,,,,,,,,,,,,,,,,,,,,,,,,,,,,,,,,,,,,,
499132,001,2022-11-21_02h04.52.784,Info_measure_main_exp,2022.2.2,Win32,59.96282305,,,,,,,,,,,,,,,,,,masks/mask_004.jpg,,,,,,,,,,,,,,,,,,,,,,,,,,,,,,,,,,,,,,,,,,,0,4,4,3,1,,,,,,,,,,,,,,,,,,,,,,,,,,,,,,,,,,,,,,,,,,,,,,
499132,001,2022-11-21_02h04.52.784,Info_measure_main_exp,2022.2.2,Win32,59.96282305,,,,,,,,,,,,,,,,,,masks/mask_003.jpg,,,,,,,,,,,,,,,,,,,,,,,,,,,,,,,,,,,,,,,,,,,,,,,,0,0,0,2,1,,,,,,,,,,,,,,,,,,,,,,,,,,,,,,,,,,,,,,,,,
499132,001,2022-11-21_02h04.52.784,Info_measure_main_exp,2022.2.2,Win32,59.96282305,,,,,,,,,,,,,,,,,,masks/mask_005.jpg,,,,,,,,,,,,,,,,,,,,,,,,,,,,,,,,,,,,,,,,,,,,,,,,0,1,1,4,1,,,,,,,,,,,,,,,,,,,,,,,,,,,,,,,,,,,,,,,,,
499132,001,2022-11-21_02h04.52.784,Info_measure_main_exp,2022.2.2,Win32,59.96282305,,,,,,,,,,,,,,,,,,masks/mask_002.jpg,,,,,,,,,,,,,,,,,,,,,,,,,,,,,,,,,,,,,,,,,,,,,,,,0,2,2,1,1,,,,,,,,,,,,,,,,,,,,,,,,,,,,,,,,,,,,,,,,,
499132,001,2022-11-21_02h04.52.784,Info_measure_main_exp,2022.2.2,Win32,59.96282305,,,,,,,,,,,,,,,,,,masks/mask_001.jpg,,,,,,,,,,,,,,,,,,,,,,,,,,,,,,,,,,,,,,,,,,,,,,,,0,3,3,0,1,,,,,,,,,,,,,,,,,,,,,,,,,,,,,,,,,,,,,,,,,
499132,001,2022-11-21_02h04.52.784,Info_measure_main_exp,2022.2.2,Win32,59.96282305,,,,,,,,,,,,,,,,,,masks/mask_004.jpg,,,,,,,,,,,,,,,,,,,,,,,,,,,,,,,,,,,,,,,,,,,,,,,,0,4,4,3,1,,,,,,,,,,,,,,,,,,,,,,,,,,,,,,,,,,,,,,,,,
499132,001,2022-11-21_02h04.52.784,Info_measure_main_exp,2022.2.2,Win32,59.96282305,,,,,,,,,,,,,,,,,,,,,,,,,,,,,,4,8.604,1,,,,,,,,,,,,0,131,5,5,2274,2250,absent_patch/patch0002274.jpg,absent_patch/patch0002250.jpg,,,,,,,,,,,,,,,,,,,,0.033854167,-0.045572917,1,0,0,response3disk,20,-0.006510417,-0.005208333,1,0,0,center_square,0,19,19,28,1,,,,,,,,,,,,,,,,,,,,,,,
499132,001,2022-11-21_02h04.52.784,Info_measure_main_exp,2022.2.2,Win32,59.96282305,,,,,,,,,,,,,,,,,,masks/mask_002.jpg,,,,,,,,,,,,,,,,,,,,,,,,,,,,,,,,,,,,,,,,,,,0,0,0,1,1,,,,,,,,,,,,,,,,,,,,,,,,,,,,,,,,,,,,,,,,,,,,,,
499132,001,2022-11-21_02h04.52.784,Info_measure_main_exp,2022.2.2,Win32,59.96282305,,,,,,,,,,,,,,,,,,masks/mask_004.jpg,,,,,,,,,,,,,,,,,,,,,,,,,,,,,,,,,,,,,,,,,,,0,1,1,3,1,,,,,,,,,,,,,,,,,,,,,,,,,,,,,,,,,,,,,,,,,,,,,,
499132,001,2022-11-21_02h04.52.784,Info_measure_main_exp,2022.2.2,Win32,59.96282305,,,,,,,,,,,,,,,,,,masks/mask_005.jpg,,,,,,,,,,,,,,,,,,,,,,,,,,,,,,,,,,,,,,,,,,,0,2,2,4,1,,,,,,,,,,,,,,,,,,,,,,,,,,,,,,,,,,,,,,,,,,,,,,
499132,001,2022-11-21_02h04.52.784,Info_measure_main_exp,2022.2.2,Win32,59.96282305,,,,,,,,,,,,,,,,,,masks/mask_003.jpg,,,,,,,,,,,,,,,,,,,,,,,,,,,,,,,,,,,,,,,,,,,0,3,3,2,1,,,,,,,,,,,,,,,,,,,,,,,,,,,,,,,,,,,,,,,,,,,,,,
499132,001,2022-11-21_02h04.52.784,Info_measure_main_exp,2022.2.2,Win32,59.96282305,,,,,,,,,,,,,,,,,,masks/mask_001.jpg,,,,,,,,,,,,,,,,,,,,,,,,,,,,,,,,,,,,,,,,,,,0,4,4,0,1,,,,,,,,,,,,,,,,,,,,,,,,,,,,,,,,,,,,,,,,,,,,,,
499132,001,2022-11-21_02h04.52.784,Info_measure_main_exp,2022.2.2,Win32,59.96282305,,,,,,,,,,,,,,,,,,masks/mask_004.jpg,,,,,,,,,,,,,,,,,,,,,,,,,,,,,,,,,,,,,,,,,,,,,,,,0,0,0,3,1,,,,,,,,,,,,,,,,,,,,,,,,,,,,,,,,,,,,,,,,,
499132,001,2022-11-21_02h04.52.784,Info_measure_main_exp,2022.2.2,Win32,59.96282305,,,,,,,,,,,,,,,,,,masks/mask_005.jpg,,,,,,,,,,,,,,,,,,,,,,,,,,,,,,,,,,,,,,,,,,,,,,,,0,1,1,4,1,,,,,,,,,,,,,,,,,,,,,,,,,,,,,,,,,,,,,,,,,
499132,001,2022-11-21_02h04.52.784,Info_measure_main_exp,2022.2.2,Win32,59.96282305,,,,,,,,,,,,,,,,,,masks/mask_001.jpg,,,,,,,,,,,,,,,,,,,,,,,,,,,,,,,,,,,,,,,,,,,,,,,,0,2,2,0,1,,,,,,,,,,,,,,,,,,,,,,,,,,,,,,,,,,,,,,,,,
499132,001,2022-11-21_02h04.52.784,Info_measure_main_exp,2022.2.2,Win32,59.96282305,,,,,,,,,,,,,,,,,,masks/mask_003.jpg,,,,,,,,,,,,,,,,,,,,,,,,,,,,,,,,,,,,,,,,,,,,,,,,0,3,3,2,1,,,,,,,,,,,,,,,,,,,,,,,,,,,,,,,,,,,,,,,,,
499132,001,2022-11-21_02h04.52.784,Info_measure_main_exp,2022.2.2,Win32,59.96282305,,,,,,,,,,,,,,,,,,masks/mask_002.jpg,,,,,,,,,,,,,,,,,,,,,,,,,,,,,,,,,,,,,,,,,,,,,,,,0,4,4,1,1,,,,,,,,,,,,,,,,,,,,,,,,,,,,,,,,,,,,,,,,,
499132,001,2022-11-21_02h04.52.784,Info_measure_main_exp,2022.2.2,Win32,59.96282305,,,,,,,,,,,,,,,,,,,,,,,,,,,,,,2,1.8824,1,,,,,,,,,,,,0,131,5,5,2298,1986,absent_patch/patch0002298.jpg,absent_patch/patch0001986.jpg,,,,,,,,,,,,,,,,,,,,-0.118489583,-0.063802083,1,0,0,response5disk,21,0.005208333,-0.001302083,1,0,0,center_square,0,20,20,32,1,,,,,,,,,,,,,,,,,,,,,,,
499132,001,2022-11-21_02h04.52.784,Info_measure_main_exp,2022.2.2,Win32,59.96282305,,,,,,,,,,,,,,,,,,masks/mask_001.jpg,,,,,,,,,,,,,,,,,,,,,,,,,,,,,,,,,,,,,,,,,,,0,0,0,0,1,,,,,,,,,,,,,,,,,,,,,,,,,,,,,,,,,,,,,,,,,,,,,,
499132,001,2022-11-21_02h04.52.784,Info_measure_main_exp,2022.2.2,Win32,59.96282305,,,,,,,,,,,,,,,,,,masks/mask_005.jpg,,,,,,,,,,,,,,,,,,,,,,,,,,,,,,,,,,,,,,,,,,,0,1,1,4,1,,,,,,,,,,,,,,,,,,,,,,,,,,,,,,,,,,,,,,,,,,,,,,
499132,001,2022-11-21_02h04.52.784,Info_measure_main_exp,2022.2.2,Win32,59.96282305,,,,,,,,,,,,,,,,,,masks/mask_003.jpg,,,,,,,,,,,,,,,,,,,,,,,,,,,,,,,,,,,,,,,,,,,0,2,2,2,1,,,,,,,,,,,,,,,,,,,,,,,,,,,,,,,,,,,,,,,,,,,,,,
499132,001,2022-11-21_02h04.52.784,Info_measure_main_exp,2022.2.2,Win32,59.96282305,,,,,,,,,,,,,,,,,,masks/mask_004.jpg,,,,,,,,,,,,,,,,,,,,,,,,,,,,,,,,,,,,,,,,,,,0,3,3,3,1,,,,,,,,,,,,,,,,,,,,,,,,,,,,,,,,,,,,,,,,,,,,,,
499132,001,2022-11-21_02h04.52.784,Info_measure_main_exp,2022.2.2,Win32,59.96282305,,,,,,,,,,,,,,,,,,masks/mask_002.jpg,,,,,,,,,,,,,,,,,,,,,,,,,,,,,,,,,,,,,,,,,,,0,4,4,1,1,,,,,,,,,,,,,,,,,,,,,,,,,,,,,,,,,,,,,,,,,,,,,,
499132,001,2022-11-21_02h04.52.784,Info_measure_main_exp,2022.2.2,Win32,59.96282305,,,,,,,,,,,,,,,,,,masks/mask_004.jpg,,,,,,,,,,,,,,,,,,,,,,,,,,,,,,,,,,,,,,,,,,,,,,,,0,0,0,3,1,,,,,,,,,,,,,,,,,,,,,,,,,,,,,,,,,,,,,,,,,
499132,001,2022-11-21_02h04.52.784,Info_measure_main_exp,2022.2.2,Win32,59.96282305,,,,,,,,,,,,,,,,,,masks/mask_005.jpg,,,,,,,,,,,,,,,,,,,,,,,,,,,,,,,,,,,,,,,,,,,,,,,,0,1,1,4,1,,,,,,,,,,,,,,,,,,,,,,,,,,,,,,,,,,,,,,,,,
499132,001,2022-11-21_02h04.52.784,Info_measure_main_exp,2022.2.2,Win32,59.96282305,,,,,,,,,,,,,,,,,,masks/mask_002.jpg,,,,,,,,,,,,,,,,,,,,,,,,,,,,,,,,,,,,,,,,,,,,,,,,0,2,2,1,1,,,,,,,,,,,,,,,,,,,,,,,,,,,,,,,,,,,,,,,,,
499132,001,2022-11-21_02h04.52.784,Info_measure_main_exp,2022.2.2,Win32,59.96282305,,,,,,,,,,,,,,,,,,masks/mask_003.jpg,,,,,,,,,,,,,,,,,,,,,,,,,,,,,,,,,,,,,,,,,,,,,,,,0,3,3,2,1,,,,,,,,,,,,,,,,,,,,,,,,,,,,,,,,,,,,,,,,,
499132,001,2022-11-21_02h04.52.784,Info_measure_main_exp,2022.2.2,Win32,59.96282305,,,,,,,,,,,,,,,,,,masks/mask_001.jpg,,,,,,,,,,,,,,,,,,,,,,,,,,,,,,,,,,,,,,,,,,,,,,,,0,4,4,0,1,,,,,,,,,,,,,,,,,,,,,,,,,,,,,,,,,,,,,,,,,
499132,001,2022-11-21_02h04.52.784,Info_measure_main_exp,2022.2.2,Win32,59.96282305,,,,,,,,,,,,,,,,,,,,,,,,,,,,,,3,1.7835,1,,,,,,,,,,,,0,131,5,5,2082,2298,absent_patch/patch0002082.jpg,absent_patch/patch0002298.jpg,,,,,,,,,,,,,,,,,,,,-0.0625,-0.134114583,1,0,0,response5disk,22,0.002604167,0.009114583,1,0,0,center_square,0,21,21,107,1,,,,,,,,,,,,,,,,,,,,,,,
499132,001,2022-11-21_02h04.52.784,Info_measure_main_exp,2022.2.2,Win32,59.96282305,,,,,,,,,,,,,,,,,,masks/mask_005.jpg,,,,,,,,,,,,,,,,,,,,,,,,,,,,,,,,,,,,,,,,,,,0,0,0,4,1,,,,,,,,,,,,,,,,,,,,,,,,,,,,,,,,,,,,,,,,,,,,,,
499132,001,2022-11-21_02h04.52.784,Info_measure_main_exp,2022.2.2,Win32,59.96282305,,,,,,,,,,,,,,,,,,masks/mask_002.jpg,,,,,,,,,,,,,,,,,,,,,,,,,,,,,,,,,,,,,,,,,,,0,1,1,1,1,,,,,,,,,,,,,,,,,,,,,,,,,,,,,,,,,,,,,,,,,,,,,,
499132,001,2022-11-21_02h04.52.784,Info_measure_main_exp,2022.2.2,Win32,59.96282305,,,,,,,,,,,,,,,,,,masks/mask_004.jpg,,,,,,,,,,,,,,,,,,,,,,,,,,,,,,,,,,,,,,,,,,,0,2,2,3,1,,,,,,,,,,,,,,,,,,,,,,,,,,,,,,,,,,,,,,,,,,,,,,
499132,001,2022-11-21_02h04.52.784,Info_measure_main_exp,2022.2.2,Win32,59.96282305,,,,,,,,,,,,,,,,,,masks/mask_003.jpg,,,,,,,,,,,,,,,,,,,,,,,,,,,,,,,,,,,,,,,,,,,0,3,3,2,1,,,,,,,,,,,,,,,,,,,,,,,,,,,,,,,,,,,,,,,,,,,,,,
499132,001,2022-11-21_02h04.52.784,Info_measure_main_exp,2022.2.2,Win32,59.96282305,,,,,,,,,,,,,,,,,,masks/mask_001.jpg,,,,,,,,,,,,,,,,,,,,,,,,,,,,,,,,,,,,,,,,,,,0,4,4,0,1,,,,,,,,,,,,,,,,,,,,,,,,,,,,,,,,,,,,,,,,,,,,,,
499132,001,2022-11-21_02h04.52.784,Info_measure_main_exp,2022.2.2,Win32,59.96282305,,,,,,,,,,,,,,,,,,masks/mask_005.jpg,,,,,,,,,,,,,,,,,,,,,,,,,,,,,,,,,,,,,,,,,,,,,,,,0,0,0,4,1,,,,,,,,,,,,,,,,,,,,,,,,,,,,,,,,,,,,,,,,,
499132,001,2022-11-21_02h04.52.784,Info_measure_main_exp,2022.2.2,Win32,59.96282305,,,,,,,,,,,,,,,,,,masks/mask_004.jpg,,,,,,,,,,,,,,,,,,,,,,,,,,,,,,,,,,,,,,,,,,,,,,,,0,1,1,3,1,,,,,,,,,,,,,,,,,,,,,,,,,,,,,,,,,,,,,,,,,
499132,001,2022-11-21_02h04.52.784,Info_measure_main_exp,2022.2.2,Win32,59.96282305,,,,,,,,,,,,,,,,,,masks/mask_003.jpg,,,,,,,,,,,,,,,,,,,,,,,,,,,,,,,,,,,,,,,,,,,,,,,,0,2,2,2,1,,,,,,,,,,,,,,,,,,,,,,,,,,,,,,,,,,,,,,,,,
499132,001,2022-11-21_02h04.52.784,Info_measure_main_exp,2022.2.2,Win32,59.96282305,,,,,,,,,,,,,,,,,,masks/mask_002.jpg,,,,,,,,,,,,,,,,,,,,,,,,,,,,,,,,,,,,,,,,,,,,,,,,0,3,3,1,1,,,,,,,,,,,,,,,,,,,,,,,,,,,,,,,,,,,,,,,,,
499132,001,2022-11-21_02h04.52.784,Info_measure_main_exp,2022.2.2,Win32,59.96282305,,,,,,,,,,,,,,,,,,masks/mask_001.jpg,,,,,,,,,,,,,,,,,,,,,,,,,,,,,,,,,,,,,,,,,,,,,,,,0,4,4,0,1,,,,,,,,,,,,,,,,,,,,,,,,,,,,,,,,,,,,,,,,,
499132,001,2022-11-21_02h04.52.784,Info_measure_main_exp,2022.2.2,Win32,59.96282305,,,,,,,,,,,,,,,,,,,,,,,,,,,,,,0,1.3541,1,,,,,,,,,,,,0,131,5,5,2238,2238,absent_patch/patch0002238.jpg,absent_patch/patch0002238.jpg,,,,,,,,,,,,,,,,,,,,-0.072916667,0.11328125,1,0,0,response7disk,23,-0.006510417,-0.001302083,1,0,0,center_square,0,22,22,58,1,,,,,,,,,,,,,,,,,,,,,,,
499132,001,2022-11-21_02h04.52.784,Info_measure_main_exp,2022.2.2,Win32,59.96282305,,,,,,,,,,,,,,,,,,masks/mask_002.jpg,,,,,,,,,,,,,,,,,,,,,,,,,,,,,,,,,,,,,,,,,,,0,0,0,1,1,,,,,,,,,,,,,,,,,,,,,,,,,,,,,,,,,,,,,,,,,,,,,,
499132,001,2022-11-21_02h04.52.784,Info_measure_main_exp,2022.2.2,Win32,59.96282305,,,,,,,,,,,,,,,,,,masks/mask_001.jpg,,,,,,,,,,,,,,,,,,,,,,,,,,,,,,,,,,,,,,,,,,,0,1,1,0,1,,,,,,,,,,,,,,,,,,,,,,,,,,,,,,,,,,,,,,,,,,,,,,
499132,001,2022-11-21_02h04.52.784,Info_measure_main_exp,2022.2.2,Win32,59.96282305,,,,,,,,,,,,,,,,,,masks/mask_005.jpg,,,,,,,,,,,,,,,,,,,,,,,,,,,,,,,,,,,,,,,,,,,0,2,2,4,1,,,,,,,,,,,,,,,,,,,,,,,,,,,,,,,,,,,,,,,,,,,,,,
499132,001,2022-11-21_02h04.52.784,Info_measure_main_exp,2022.2.2,Win32,59.96282305,,,,,,,,,,,,,,,,,,masks/mask_003.jpg,,,,,,,,,,,,,,,,,,,,,,,,,,,,,,,,,,,,,,,,,,,0,3,3,2,1,,,,,,,,,,,,,,,,,,,,,,,,,,,,,,,,,,,,,,,,,,,,,,
499132,001,2022-11-21_02h04.52.784,Info_measure_main_exp,2022.2.2,Win32,59.96282305,,,,,,,,,,,,,,,,,,masks/mask_004.jpg,,,,,,,,,,,,,,,,,,,,,,,,,,,,,,,,,,,,,,,,,,,0,4,4,3,1,,,,,,,,,,,,,,,,,,,,,,,,,,,,,,,,,,,,,,,,,,,,,,
499132,001,2022-11-21_02h04.52.784,Info_measure_main_exp,2022.2.2,Win32,59.96282305,,,,,,,,,,,,,,,,,,masks/mask_002.jpg,,,,,,,,,,,,,,,,,,,,,,,,,,,,,,,,,,,,,,,,,,,,,,,,0,0,0,1,1,,,,,,,,,,,,,,,,,,,,,,,,,,,,,,,,,,,,,,,,,
499132,001,2022-11-21_02h04.52.784,Info_measure_main_exp,2022.2.2,Win32,59.96282305,,,,,,,,,,,,,,,,,,masks/mask_003.jpg,,,,,,,,,,,,,,,,,,,,,,,,,,,,,,,,,,,,,,,,,,,,,,,,0,1,1,2,1,,,,,,,,,,,,,,,,,,,,,,,,,,,,,,,,,,,,,,,,,
499132,001,2022-11-21_02h04.52.784,Info_measure_main_exp,2022.2.2,Win32,59.96282305,,,,,,,,,,,,,,,,,,masks/mask_005.jpg,,,,,,,,,,,,,,,,,,,,,,,,,,,,,,,,,,,,,,,,,,,,,,,,0,2,2,4,1,,,,,,,,,,,,,,,,,,,,,,,,,,,,,,,,,,,,,,,,,
499132,001,2022-11-21_02h04.52.784,Info_measure_main_exp,2022.2.2,Win32,59.96282305,,,,,,,,,,,,,,,,,,masks/mask_004.jpg,,,,,,,,,,,,,,,,,,,,,,,,,,,,,,,,,,,,,,,,,,,,,,,,0,3,3,3,1,,,,,,,,,,,,,,,,,,,,,,,,,,,,,,,,,,,,,,,,,
499132,001,2022-11-21_02h04.52.784,Info_measure_main_exp,2022.2.2,Win32,59.96282305,,,,,,,,,,,,,,,,,,masks/mask_001.jpg,,,,,,,,,,,,,,,,,,,,,,,,,,,,,,,,,,,,,,,,,,,,,,,,0,4,4,0,1,,,,,,,,,,,,,,,,,,,,,,,,,,,,,,,,,,,,,,,,,
499132,001,2022-11-21_02h04.52.784,Info_measure_main_exp,2022.2.2,Win32,59.96282305,,,,,,,,,,,,,,,,,,,,,,,,,,,,,,3,3.1174,1,,,,,,,,,,,,0,131,5,5,1986,2238,absent_patch/patch0001986.jpg,absent_patch/patch0002238.jpg,,,,,,,,,,,,,,,,,,,,-0.015625,-0.123697917,1,0,0,response5disk,24,-0.005208333,-0.0078125,1,0,0,center_square,0,23,23,31,1,,,,,,,,,,,,,,,,,,,,,,,
499132,001,2022-11-21_02h04.52.784,Info_measure_main_exp,2022.2.2,Win32,59.96282305,,,,,,,,,,,,,,,,,,masks/mask_003.jpg,,,,,,,,,,,,,,,,,,,,,,,,,,,,,,,,,,,,,,,,,,,0,0,0,2,1,,,,,,,,,,,,,,,,,,,,,,,,,,,,,,,,,,,,,,,,,,,,,,
499132,001,2022-11-21_02h04.52.784,Info_measure_main_exp,2022.2.2,Win32,59.96282305,,,,,,,,,,,,,,,,,,masks/mask_005.jpg,,,,,,,,,,,,,,,,,,,,,,,,,,,,,,,,,,,,,,,,,,,0,1,1,4,1,,,,,,,,,,,,,,,,,,,,,,,,,,,,,,,,,,,,,,,,,,,,,,
499132,001,2022-11-21_02h04.52.784,Info_measure_main_exp,2022.2.2,Win32,59.96282305,,,,,,,,,,,,,,,,,,masks/mask_004.jpg,,,,,,,,,,,,,,,,,,,,,,,,,,,,,,,,,,,,,,,,,,,0,2,2,3,1,,,,,,,,,,,,,,,,,,,,,,,,,,,,,,,,,,,,,,,,,,,,,,
499132,001,2022-11-21_02h04.52.784,Info_measure_main_exp,2022.2.2,Win32,59.96282305,,,,,,,,,,,,,,,,,,masks/mask_002.jpg,,,,,,,,,,,,,,,,,,,,,,,,,,,,,,,,,,,,,,,,,,,0,3,3,1,1,,,,,,,,,,,,,,,,,,,,,,,,,,,,,,,,,,,,,,,,,,,,,,
499132,001,2022-11-21_02h04.52.784,Info_measure_main_exp,2022.2.2,Win32,59.96282305,,,,,,,,,,,,,,,,,,masks/mask_001.jpg,,,,,,,,,,,,,,,,,,,,,,,,,,,,,,,,,,,,,,,,,,,0,4,4,0,1,,,,,,,,,,,,,,,,,,,,,,,,,,,,,,,,,,,,,,,,,,,,,,
499132,001,2022-11-21_02h04.52.784,Info_measure_main_exp,2022.2.2,Win32,59.96282305,,,,,,,,,,,,,,,,,,masks/mask_003.jpg,,,,,,,,,,,,,,,,,,,,,,,,,,,,,,,,,,,,,,,,,,,,,,,,0,0,0,2,1,,,,,,,,,,,,,,,,,,,,,,,,,,,,,,,,,,,,,,,,,
499132,001,2022-11-21_02h04.52.784,Info_measure_main_exp,2022.2.2,Win32,59.96282305,,,,,,,,,,,,,,,,,,masks/mask_002.jpg,,,,,,,,,,,,,,,,,,,,,,,,,,,,,,,,,,,,,,,,,,,,,,,,0,1,1,1,1,,,,,,,,,,,,,,,,,,,,,,,,,,,,,,,,,,,,,,,,,
499132,001,2022-11-21_02h04.52.784,Info_measure_main_exp,2022.2.2,Win32,59.96282305,,,,,,,,,,,,,,,,,,masks/mask_004.jpg,,,,,,,,,,,,,,,,,,,,,,,,,,,,,,,,,,,,,,,,,,,,,,,,0,2,2,3,1,,,,,,,,,,,,,,,,,,,,,,,,,,,,,,,,,,,,,,,,,
499132,001,2022-11-21_02h04.52.784,Info_measure_main_exp,2022.2.2,Win32,59.96282305,,,,,,,,,,,,,,,,,,masks/mask_001.jpg,,,,,,,,,,,,,,,,,,,,,,,,,,,,,,,,,,,,,,,,,,,,,,,,0,3,3,0,1,,,,,,,,,,,,,,,,,,,,,,,,,,,,,,,,,,,,,,,,,
499132,001,2022-11-21_02h04.52.784,Info_measure_main_exp,2022.2.2,Win32,59.96282305,,,,,,,,,,,,,,,,,,masks/mask_005.jpg,,,,,,,,,,,,,,,,,,,,,,,,,,,,,,,,,,,,,,,,,,,,,,,,0,4,4,4,1,,,,,,,,,,,,,,,,,,,,,,,,,,,,,,,,,,,,,,,,,
499132,001,2022-11-21_02h04.52.784,Info_measure_main_exp,2022.2.2,Win32,59.96282305,,,,,,,,,,,,,,,,,,,,,,,,,,,,,,1,1.0683,1,,,,,,,,,,,,0,131,5,5,1986,2154,absent_patch/patch0001986.jpg,absent_patch/patch0002154.jpg,,,,,,,,,,,,,,,,,,,,-0.127604167,0.024739583,1,0,0,response7disk,25,-0.009114583,0.006510417,1,0,0,center_square,0,24,24,36,1,,,,,,,,,,,,,,,,,,,,,,,
499132,001,2022-11-21_02h04.52.784,Info_measure_main_exp,2022.2.2,Win32,59.96282305,,,,,,,,,,,,,,,,,,masks/mask_005.jpg,,,,,,,,,,,,,,,,,,,,,,,,,,,,,,,,,,,,,,,,,,,0,0,0,4,1,,,,,,,,,,,,,,,,,,,,,,,,,,,,,,,,,,,,,,,,,,,,,,
499132,001,2022-11-21_02h04.52.784,Info_measure_main_exp,2022.2.2,Win32,59.96282305,,,,,,,,,,,,,,,,,,masks/mask_001.jpg,,,,,,,,,,,,,,,,,,,,,,,,,,,,,,,,,,,,,,,,,,,0,1,1,0,1,,,,,,,,,,,,,,,,,,,,,,,,,,,,,,,,,,,,,,,,,,,,,,
499132,001,2022-11-21_02h04.52.784,Info_measure_main_exp,2022.2.2,Win32,59.96282305,,,,,,,,,,,,,,,,,,masks/mask_004.jpg,,,,,,,,,,,,,,,,,,,,,,,,,,,,,,,,,,,,,,,,,,,0,2,2,3,1,,,,,,,,,,,,,,,,,,,,,,,,,,,,,,,,,,,,,,,,,,,,,,
499132,001,2022-11-21_02h04.52.784,Info_measure_main_exp,2022.2.2,Win32,59.96282305,,,,,,,,,,,,,,,,,,masks/mask_003.jpg,,,,,,,,,,,,,,,,,,,,,,,,,,,,,,,,,,,,,,,,,,,0,3,3,2,1,,,,,,,,,,,,,,,,,,,,,,,,,,,,,,,,,,,,,,,,,,,,,,
499132,001,2022-11-21_02h04.52.784,Info_measure_main_exp,2022.2.2,Win32,59.96282305,,,,,,,,,,,,,,,,,,masks/mask_002.jpg,,,,,,,,,,,,,,,,,,,,,,,,,,,,,,,,,,,,,,,,,,,0,4,4,1,1,,,,,,,,,,,,,,,,,,,,,,,,,,,,,,,,,,,,,,,,,,,,,,
499132,001,2022-11-21_02h04.52.784,Info_measure_main_exp,2022.2.2,Win32,59.96282305,,,,,,,,,,,,,,,,,,masks/mask_001.jpg,,,,,,,,,,,,,,,,,,,,,,,,,,,,,,,,,,,,,,,,,,,,,,,,0,0,0,0,1,,,,,,,,,,,,,,,,,,,,,,,,,,,,,,,,,,,,,,,,,
499132,001,2022-11-21_02h04.52.784,Info_measure_main_exp,2022.2.2,Win32,59.96282305,,,,,,,,,,,,,,,,,,masks/mask_002.jpg,,,,,,,,,,,,,,,,,,,,,,,,,,,,,,,,,,,,,,,,,,,,,,,,0,1,1,1,1,,,,,,,,,,,,,,,,,,,,,,,,,,,,,,,,,,,,,,,,,
499132,001,2022-11-21_02h04.52.784,Info_measure_main_exp,2022.2.2,Win32,59.96282305,,,,,,,,,,,,,,,,,,masks/mask_004.jpg,,,,,,,,,,,,,,,,,,,,,,,,,,,,,,,,,,,,,,,,,,,,,,,,0,2,2,3,1,,,,,,,,,,,,,,,,,,,,,,,,,,,,,,,,,,,,,,,,,
499132,001,2022-11-21_02h04.52.784,Info_measure_main_exp,2022.2.2,Win32,59.96282305,,,,,,,,,,,,,,,,,,masks/mask_005.jpg,,,,,,,,,,,,,,,,,,,,,,,,,,,,,,,,,,,,,,,,,,,,,,,,0,3,3,4,1,,,,,,,,,,,,,,,,,,,,,,,,,,,,,,,,,,,,,,,,,
499132,001,2022-11-21_02h04.52.784,Info_measure_main_exp,2022.2.2,Win32,59.96282305,,,,,,,,,,,,,,,,,,masks/mask_003.jpg,,,,,,,,,,,,,,,,,,,,,,,,,,,,,,,,,,,,,,,,,,,,,,,,0,4,4,2,1,,,,,,,,,,,,,,,,,,,,,,,,,,,,,,,,,,,,,,,,,
499132,001,2022-11-21_02h04.52.784,Info_measure_main_exp,2022.2.2,Win32,59.96282305,,,,,,,,,,,,,,,,,,,,,,,,,,,,,,7,1.35,1,,,,,,,,,,,,0,131,5,5,2274,2190,absent_patch/patch0002274.jpg,absent_patch/patch0002190.jpg,,,,,,,,,,,,,,,,,,,,0.032552083,0.095052083,1,0,0,response1disk,26,-0.014322917,-0.00390625,1,0,0,center_square,0,25,25,116,1,,,,,,,,,,,,,,,,,,,,,,,
499132,001,2022-11-21_02h04.52.784,Info_measure_main_exp,2022.2.2,Win32,59.96282305,,,,,,,,,,,,,,,,,,masks/mask_002.jpg,,,,,,,,,,,,,,,,,,,,,,,,,,,,,,,,,,,,,,,,,,,0,0,0,1,1,,,,,,,,,,,,,,,,,,,,,,,,,,,,,,,,,,,,,,,,,,,,,,
499132,001,2022-11-21_02h04.52.784,Info_measure_main_exp,2022.2.2,Win32,59.96282305,,,,,,,,,,,,,,,,,,masks/mask_005.jpg,,,,,,,,,,,,,,,,,,,,,,,,,,,,,,,,,,,,,,,,,,,0,1,1,4,1,,,,,,,,,,,,,,,,,,,,,,,,,,,,,,,,,,,,,,,,,,,,,,
499132,001,2022-11-21_02h04.52.784,Info_measure_main_exp,2022.2.2,Win32,59.96282305,,,,,,,,,,,,,,,,,,masks/mask_001.jpg,,,,,,,,,,,,,,,,,,,,,,,,,,,,,,,,,,,,,,,,,,,0,2,2,0,1,,,,,,,,,,,,,,,,,,,,,,,,,,,,,,,,,,,,,,,,,,,,,,
499132,001,2022-11-21_02h04.52.784,Info_measure_main_exp,2022.2.2,Win32,59.96282305,,,,,,,,,,,,,,,,,,masks/mask_004.jpg,,,,,,,,,,,,,,,,,,,,,,,,,,,,,,,,,,,,,,,,,,,0,3,3,3,1,,,,,,,,,,,,,,,,,,,,,,,,,,,,,,,,,,,,,,,,,,,,,,
499132,001,2022-11-21_02h04.52.784,Info_measure_main_exp,2022.2.2,Win32,59.96282305,,,,,,,,,,,,,,,,,,masks/mask_003.jpg,,,,,,,,,,,,,,,,,,,,,,,,,,,,,,,,,,,,,,,,,,,0,4,4,2,1,,,,,,,,,,,,,,,,,,,,,,,,,,,,,,,,,,,,,,,,,,,,,,
499132,001,2022-11-21_02h04.52.784,Info_measure_main_exp,2022.2.2,Win32,59.96282305,,,,,,,,,,,,,,,,,,masks/mask_001.jpg,,,,,,,,,,,,,,,,,,,,,,,,,,,,,,,,,,,,,,,,,,,,,,,,0,0,0,0,1,,,,,,,,,,,,,,,,,,,,,,,,,,,,,,,,,,,,,,,,,
499132,001,2022-11-21_02h04.52.784,Info_measure_main_exp,2022.2.2,Win32,59.96282305,,,,,,,,,,,,,,,,,,masks/mask_005.jpg,,,,,,,,,,,,,,,,,,,,,,,,,,,,,,,,,,,,,,,,,,,,,,,,0,1,1,4,1,,,,,,,,,,,,,,,,,,,,,,,,,,,,,,,,,,,,,,,,,
499132,001,2022-11-21_02h04.52.784,Info_measure_main_exp,2022.2.2,Win32,59.96282305,,,,,,,,,,,,,,,,,,masks/mask_004.jpg,,,,,,,,,,,,,,,,,,,,,,,,,,,,,,,,,,,,,,,,,,,,,,,,0,2,2,3,1,,,,,,,,,,,,,,,,,,,,,,,,,,,,,,,,,,,,,,,,,
499132,001,2022-11-21_02h04.52.784,Info_measure_main_exp,2022.2.2,Win32,59.96282305,,,,,,,,,,,,,,,,,,masks/mask_002.jpg,,,,,,,,,,,,,,,,,,,,,,,,,,,,,,,,,,,,,,,,,,,,,,,,0,3,3,1,1,,,,,,,,,,,,,,,,,,,,,,,,,,,,,,,,,,,,,,,,,
499132,001,2022-11-21_02h04.52.784,Info_measure_main_exp,2022.2.2,Win32,59.96282305,,,,,,,,,,,,,,,,,,masks/mask_003.jpg,,,,,,,,,,,,,,,,,,,,,,,,,,,,,,,,,,,,,,,,,,,,,,,,0,4,4,2,1,,,,,,,,,,,,,,,,,,,,,,,,,,,,,,,,,,,,,,,,,
499132,001,2022-11-21_02h04.52.784,Info_measure_main_exp,2022.2.2,Win32,59.96282305,,,,,,,,,,,,,,,,,,,,,,,,,,,,,,0,1.1362,1,,,,,,,,,,,,0,131,5,5,2082,2082,absent_patch/patch0002082.jpg,absent_patch/patch0002082.jpg,,,,,,,,,,,,,,,,,,,,-0.020833333,0.049479167,1,0,0,response7disk,27,-0.006510417,0,1,0,0,center_square,0,26,26,74,1,,,,,,,,,,,,,,,,,,,,,,,
499132,001,2022-11-21_02h04.52.784,Info_measure_main_exp,2022.2.2,Win32,59.96282305,,,,,,,,,,,,,,,,,,masks/mask_001.jpg,,,,,,,,,,,,,,,,,,,,,,,,,,,,,,,,,,,,,,,,,,,0,0,0,0,1,,,,,,,,,,,,,,,,,,,,,,,,,,,,,,,,,,,,,,,,,,,,,,
499132,001,2022-11-21_02h04.52.784,Info_measure_main_exp,2022.2.2,Win32,59.96282305,,,,,,,,,,,,,,,,,,masks/mask_005.jpg,,,,,,,,,,,,,,,,,,,,,,,,,,,,,,,,,,,,,,,,,,,0,1,1,4,1,,,,,,,,,,,,,,,,,,,,,,,,,,,,,,,,,,,,,,,,,,,,,,
499132,001,2022-11-21_02h04.52.784,Info_measure_main_exp,2022.2.2,Win32,59.96282305,,,,,,,,,,,,,,,,,,masks/mask_002.jpg,,,,,,,,,,,,,,,,,,,,,,,,,,,,,,,,,,,,,,,,,,,0,2,2,1,1,,,,,,,,,,,,,,,,,,,,,,,,,,,,,,,,,,,,,,,,,,,,,,
499132,001,2022-11-21_02h04.52.784,Info_measure_main_exp,2022.2.2,Win32,59.96282305,,,,,,,,,,,,,,,,,,masks/mask_003.jpg,,,,,,,,,,,,,,,,,,,,,,,,,,,,,,,,,,,,,,,,,,,0,3,3,2,1,,,,,,,,,,,,,,,,,,,,,,,,,,,,,,,,,,,,,,,,,,,,,,
499132,001,2022-11-21_02h04.52.784,Info_measure_main_exp,2022.2.2,Win32,59.96282305,,,,,,,,,,,,,,,,,,masks/mask_004.jpg,,,,,,,,,,,,,,,,,,,,,,,,,,,,,,,,,,,,,,,,,,,0,4,4,3,1,,,,,,,,,,,,,,,,,,,,,,,,,,,,,,,,,,,,,,,,,,,,,,
499132,001,2022-11-21_02h04.52.784,Info_measure_main_exp,2022.2.2,Win32,59.96282305,,,,,,,,,,,,,,,,,,masks/mask_001.jpg,,,,,,,,,,,,,,,,,,,,,,,,,,,,,,,,,,,,,,,,,,,,,,,,0,0,0,0,1,,,,,,,,,,,,,,,,,,,,,,,,,,,,,,,,,,,,,,,,,
499132,001,2022-11-21_02h04.52.784,Info_measure_main_exp,2022.2.2,Win32,59.96282305,,,,,,,,,,,,,,,,,,masks/mask_004.jpg,,,,,,,,,,,,,,,,,,,,,,,,,,,,,,,,,,,,,,,,,,,,,,,,0,1,1,3,1,,,,,,,,,,,,,,,,,,,,,,,,,,,,,,,,,,,,,,,,,
499132,001,2022-11-21_02h04.52.784,Info_measure_main_exp,2022.2.2,Win32,59.96282305,,,,,,,,,,,,,,,,,,masks/mask_005.jpg,,,,,,,,,,,,,,,,,,,,,,,,,,,,,,,,,,,,,,,,,,,,,,,,0,2,2,4,1,,,,,,,,,,,,,,,,,,,,,,,,,,,,,,,,,,,,,,,,,
499132,001,2022-11-21_02h04.52.784,Info_measure_main_exp,2022.2.2,Win32,59.96282305,,,,,,,,,,,,,,,,,,masks/mask_003.jpg,,,,,,,,,,,,,,,,,,,,,,,,,,,,,,,,,,,,,,,,,,,,,,,,0,3,3,2,1,,,,,,,,,,,,,,,,,,,,,,,,,,,,,,,,,,,,,,,,,
499132,001,2022-11-21_02h04.52.784,Info_measure_main_exp,2022.2.2,Win32,59.96282305,,,,,,,,,,,,,,,,,,masks/mask_002.jpg,,,,,,,,,,,,,,,,,,,,,,,,,,,,,,,,,,,,,,,,,,,,,,,,0,4,4,1,1,,,,,,,,,,,,,,,,,,,,,,,,,,,,,,,,,,,,,,,,,
499132,001,2022-11-21_02h04.52.784,Info_measure_main_exp,2022.2.2,Win32,59.96282305,,,,,,,,,,,,,,,,,,,,,,,,,,,,,,6,1.9709,1,,,,,,,,,,,,0,131,5,5,2178,1986,absent_patch/patch0002178.jpg,absent_patch/patch0001986.jpg,,,,,,,,,,,,,,,,,,,,0.063802083,0.028645833,1,0,0,response1disk,28,-0.00390625,0.00390625,1,0,0,center_square,0,27,27,46,1,,,,,,,,,,,,,,,,,,,,,,,
499132,001,2022-11-21_02h04.52.784,Info_measure_main_exp,2022.2.2,Win32,59.96282305,,,,,,,,,,,,,,,,,,masks/mask_001.jpg,,,,,,,,,,,,,,,,,,,,,,,,,,,,,,,,,,,,,,,,,,,0,0,0,0,1,,,,,,,,,,,,,,,,,,,,,,,,,,,,,,,,,,,,,,,,,,,,,,
499132,001,2022-11-21_02h04.52.784,Info_measure_main_exp,2022.2.2,Win32,59.96282305,,,,,,,,,,,,,,,,,,masks/mask_003.jpg,,,,,,,,,,,,,,,,,,,,,,,,,,,,,,,,,,,,,,,,,,,0,1,1,2,1,,,,,,,,,,,,,,,,,,,,,,,,,,,,,,,,,,,,,,,,,,,,,,
499132,001,2022-11-21_02h04.52.784,Info_measure_main_exp,2022.2.2,Win32,59.96282305,,,,,,,,,,,,,,,,,,masks/mask_004.jpg,,,,,,,,,,,,,,,,,,,,,,,,,,,,,,,,,,,,,,,,,,,0,2,2,3,1,,,,,,,,,,,,,,,,,,,,,,,,,,,,,,,,,,,,,,,,,,,,,,
499132,001,2022-11-21_02h04.52.784,Info_measure_main_exp,2022.2.2,Win32,59.96282305,,,,,,,,,,,,,,,,,,masks/mask_002.jpg,,,,,,,,,,,,,,,,,,,,,,,,,,,,,,,,,,,,,,,,,,,0,3,3,1,1,,,,,,,,,,,,,,,,,,,,,,,,,,,,,,,,,,,,,,,,,,,,,,
499132,001,2022-11-21_02h04.52.784,Info_measure_main_exp,2022.2.2,Win32,59.96282305,,,,,,,,,,,,,,,,,,masks/mask_005.jpg,,,,,,,,,,,,,,,,,,,,,,,,,,,,,,,,,,,,,,,,,,,0,4,4,4,1,,,,,,,,,,,,,,,,,,,,,,,,,,,,,,,,,,,,,,,,,,,,,,
499132,001,2022-11-21_02h04.52.784,Info_measure_main_exp,2022.2.2,Win32,59.96282305,,,,,,,,,,,,,,,,,,masks/mask_003.jpg,,,,,,,,,,,,,,,,,,,,,,,,,,,,,,,,,,,,,,,,,,,,,,,,0,0,0,2,1,,,,,,,,,,,,,,,,,,,,,,,,,,,,,,,,,,,,,,,,,
499132,001,2022-11-21_02h04.52.784,Info_measure_main_exp,2022.2.2,Win32,59.96282305,,,,,,,,,,,,,,,,,,masks/mask_005.jpg,,,,,,,,,,,,,,,,,,,,,,,,,,,,,,,,,,,,,,,,,,,,,,,,0,1,1,4,1,,,,,,,,,,,,,,,,,,,,,,,,,,,,,,,,,,,,,,,,,
499132,001,2022-11-21_02h04.52.784,Info_measure_main_exp,2022.2.2,Win32,59.96282305,,,,,,,,,,,,,,,,,,masks/mask_001.jpg,,,,,,,,,,,,,,,,,,,,,,,,,,,,,,,,,,,,,,,,,,,,,,,,0,2,2,0,1,,,,,,,,,,,,,,,,,,,,,,,,,,,,,,,,,,,,,,,,,
499132,001,2022-11-21_02h04.52.784,Info_measure_main_exp,2022.2.2,Win32,59.96282305,,,,,,,,,,,,,,,,,,masks/mask_004.jpg,,,,,,,,,,,,,,,,,,,,,,,,,,,,,,,,,,,,,,,,,,,,,,,,0,3,3,3,1,,,,,,,,,,,,,,,,,,,,,,,,,,,,,,,,,,,,,,,,,
499132,001,2022-11-21_02h04.52.784,Info_measure_main_exp,2022.2.2,Win32,59.96282305,,,,,,,,,,,,,,,,,,masks/mask_002.jpg,,,,,,,,,,,,,,,,,,,,,,,,,,,,,,,,,,,,,,,,,,,,,,,,0,4,4,1,1,,,,,,,,,,,,,,,,,,,,,,,,,,,,,,,,,,,,,,,,,
499132,001,2022-11-21_02h04.52.784,Info_measure_main_exp,2022.2.2,Win32,59.96282305,,,,,,,,,,,,,,,,,,,,,,,,,,,,,,7,0.9395,1,,,,,,,,,,,,1,131,5,5,2190,1,absent_patch/patch0002190.jpg,present_patch/cong_131_5_a.jpg,,,,,,,,,,,,,,,,,,,,0.015625,0.065104167,1,0,0,response1disk,29,0.009114583,0.00390625,1,0,0,center_square,0,28,28,64,1,,,,,,,,,,,,,,,,,,,,,,,
499132,001,2022-11-21_02h04.52.784,Info_measure_main_exp,2022.2.2,Win32,59.96282305,,,,,,,,,,,,,,,,,,masks/mask_001.jpg,,,,,,,,,,,,,,,,,,,,,,,,,,,,,,,,,,,,,,,,,,,0,0,0,0,1,,,,,,,,,,,,,,,,,,,,,,,,,,,,,,,,,,,,,,,,,,,,,,
499132,001,2022-11-21_02h04.52.784,Info_measure_main_exp,2022.2.2,Win32,59.96282305,,,,,,,,,,,,,,,,,,masks/mask_005.jpg,,,,,,,,,,,,,,,,,,,,,,,,,,,,,,,,,,,,,,,,,,,0,1,1,4,1,,,,,,,,,,,,,,,,,,,,,,,,,,,,,,,,,,,,,,,,,,,,,,
499132,001,2022-11-21_02h04.52.784,Info_measure_main_exp,2022.2.2,Win32,59.96282305,,,,,,,,,,,,,,,,,,masks/mask_003.jpg,,,,,,,,,,,,,,,,,,,,,,,,,,,,,,,,,,,,,,,,,,,0,2,2,2,1,,,,,,,,,,,,,,,,,,,,,,,,,,,,,,,,,,,,,,,,,,,,,,
499132,001,2022-11-21_02h04.52.784,Info_measure_main_exp,2022.2.2,Win32,59.96282305,,,,,,,,,,,,,,,,,,masks/mask_004.jpg,,,,,,,,,,,,,,,,,,,,,,,,,,,,,,,,,,,,,,,,,,,0,3,3,3,1,,,,,,,,,,,,,,,,,,,,,,,,,,,,,,,,,,,,,,,,,,,,,,
499132,001,2022-11-21_02h04.52.784,Info_measure_main_exp,2022.2.2,Win32,59.96282305,,,,,,,,,,,,,,,,,,masks/mask_002.jpg,,,,,,,,,,,,,,,,,,,,,,,,,,,,,,,,,,,,,,,,,,,0,4,4,1,1,,,,,,,,,,,,,,,,,,,,,,,,,,,,,,,,,,,,,,,,,,,,,,
499132,001,2022-11-21_02h04.52.784,Info_measure_main_exp,2022.2.2,Win32,59.96282305,,,,,,,,,,,,,,,,,,masks/mask_003.jpg,,,,,,,,,,,,,,,,,,,,,,,,,,,,,,,,,,,,,,,,,,,,,,,,0,0,0,2,1,,,,,,,,,,,,,,,,,,,,,,,,,,,,,,,,,,,,,,,,,
499132,001,2022-11-21_02h04.52.784,Info_measure_main_exp,2022.2.2,Win32,59.96282305,,,,,,,,,,,,,,,,,,masks/mask_002.jpg,,,,,,,,,,,,,,,,,,,,,,,,,,,,,,,,,,,,,,,,,,,,,,,,0,1,1,1,1,,,,,,,,,,,,,,,,,,,,,,,,,,,,,,,,,,,,,,,,,
499132,001,2022-11-21_02h04.52.784,Info_measure_main_exp,2022.2.2,Win32,59.96282305,,,,,,,,,,,,,,,,,,masks/mask_004.jpg,,,,,,,,,,,,,,,,,,,,,,,,,,,,,,,,,,,,,,,,,,,,,,,,0,2,2,3,1,,,,,,,,,,,,,,,,,,,,,,,,,,,,,,,,,,,,,,,,,
499132,001,2022-11-21_02h04.52.784,Info_measure_main_exp,2022.2.2,Win32,59.96282305,,,,,,,,,,,,,,,,,,masks/mask_001.jpg,,,,,,,,,,,,,,,,,,,,,,,,,,,,,,,,,,,,,,,,,,,,,,,,0,3,3,0,1,,,,,,,,,,,,,,,,,,,,,,,,,,,,,,,,,,,,,,,,,
499132,001,2022-11-21_02h04.52.784,Info_measure_main_exp,2022.2.2,Win32,59.96282305,,,,,,,,,,,,,,,,,,masks/mask_005.jpg,,,,,,,,,,,,,,,,,,,,,,,,,,,,,,,,,,,,,,,,,,,,,,,,0,4,4,4,1,,,,,,,,,,,,,,,,,,,,,,,,,,,,,,,,,,,,,,,,,
499132,001,2022-11-21_02h04.52.784,Info_measure_main_exp,2022.2.2,Win32,59.96282305,,,,,,,,,,,,,,,,,,,,,,,,,,,,,,0,0.9414,1,,,,,,,,,,,,0,131,5,5,2298,2298,absent_patch/patch0002298.jpg,absent_patch/patch0002298.jpg,,,,,,,,,,,,,,,,,,,,-0.029947917,0.0625,1,0,0,response7disk,30,0.01171875,-0.001302083,1,0,0,center_square,0,29,29,37,1,,,,,,,,,,,,,,,,,,,,,,,
499132,001,2022-11-21_02h04.52.784,Info_measure_main_exp,2022.2.2,Win32,59.96282305,,,,,,,,,,,,,,,,,,masks/mask_002.jpg,,,,,,,,,,,,,,,,,,,,,,,,,,,,,,,,,,,,,,,,,,,0,0,0,1,1,,,,,,,,,,,,,,,,,,,,,,,,,,,,,,,,,,,,,,,,,,,,,,
499132,001,2022-11-21_02h04.52.784,Info_measure_main_exp,2022.2.2,Win32,59.96282305,,,,,,,,,,,,,,,,,,masks/mask_004.jpg,,,,,,,,,,,,,,,,,,,,,,,,,,,,,,,,,,,,,,,,,,,0,1,1,3,1,,,,,,,,,,,,,,,,,,,,,,,,,,,,,,,,,,,,,,,,,,,,,,
499132,001,2022-11-21_02h04.52.784,Info_measure_main_exp,2022.2.2,Win32,59.96282305,,,,,,,,,,,,,,,,,,masks/mask_005.jpg,,,,,,,,,,,,,,,,,,,,,,,,,,,,,,,,,,,,,,,,,,,0,2,2,4,1,,,,,,,,,,,,,,,,,,,,,,,,,,,,,,,,,,,,,,,,,,,,,,
499132,001,2022-11-21_02h04.52.784,Info_measure_main_exp,2022.2.2,Win32,59.96282305,,,,,,,,,,,,,,,,,,masks/mask_003.jpg,,,,,,,,,,,,,,,,,,,,,,,,,,,,,,,,,,,,,,,,,,,0,3,3,2,1,,,,,,,,,,,,,,,,,,,,,,,,,,,,,,,,,,,,,,,,,,,,,,
499132,001,2022-11-21_02h04.52.784,Info_measure_main_exp,2022.2.2,Win32,59.96282305,,,,,,,,,,,,,,,,,,masks/mask_001.jpg,,,,,,,,,,,,,,,,,,,,,,,,,,,,,,,,,,,,,,,,,,,0,4,4,0,1,,,,,,,,,,,,,,,,,,,,,,,,,,,,,,,,,,,,,,,,,,,,,,
499132,001,2022-11-21_02h04.52.784,Info_measure_main_exp,2022.2.2,Win32,59.96282305,,,,,,,,,,,,,,,,,,masks/mask_002.jpg,,,,,,,,,,,,,,,,,,,,,,,,,,,,,,,,,,,,,,,,,,,,,,,,0,0,0,1,1,,,,,,,,,,,,,,,,,,,,,,,,,,,,,,,,,,,,,,,,,
499132,001,2022-11-21_02h04.52.784,Info_measure_main_exp,2022.2.2,Win32,59.96282305,,,,,,,,,,,,,,,,,,masks/mask_003.jpg,,,,,,,,,,,,,,,,,,,,,,,,,,,,,,,,,,,,,,,,,,,,,,,,0,1,1,2,1,,,,,,,,,,,,,,,,,,,,,,,,,,,,,,,,,,,,,,,,,
499132,001,2022-11-21_02h04.52.784,Info_measure_main_exp,2022.2.2,Win32,59.96282305,,,,,,,,,,,,,,,,,,masks/mask_004.jpg,,,,,,,,,,,,,,,,,,,,,,,,,,,,,,,,,,,,,,,,,,,,,,,,0,2,2,3,1,,,,,,,,,,,,,,,,,,,,,,,,,,,,,,,,,,,,,,,,,
499132,001,2022-11-21_02h04.52.784,Info_measure_main_exp,2022.2.2,Win32,59.96282305,,,,,,,,,,,,,,,,,,masks/mask_001.jpg,,,,,,,,,,,,,,,,,,,,,,,,,,,,,,,,,,,,,,,,,,,,,,,,0,3,3,0,1,,,,,,,,,,,,,,,,,,,,,,,,,,,,,,,,,,,,,,,,,
499132,001,2022-11-21_02h04.52.784,Info_measure_main_exp,2022.2.2,Win32,59.96282305,,,,,,,,,,,,,,,,,,masks/mask_005.jpg,,,,,,,,,,,,,,,,,,,,,,,,,,,,,,,,,,,,,,,,,,,,,,,,0,4,4,4,1,,,,,,,,,,,,,,,,,,,,,,,,,,,,,,,,,,,,,,,,,
499132,001,2022-11-21_02h04.52.784,Info_measure_main_exp,2022.2.2,Win32,59.96282305,,,,,,,,,,,,,,,,,,,,,,,,,,,,,,7,2.217,1,,,,,,,,,,,,0,131,5,5,2154,2250,absent_patch/patch0002154.jpg,absent_patch/patch0002250.jpg,,,,,,,,,,,,,,,,,,,,0.0078125,0.044270833,1,0,0,response1disk,31,0.001302083,0.001302083,1,0,0,center_square,0,30,30,108,1,,,,,,,,,,,,,,,,,,,,,,,
499132,001,2022-11-21_02h04.52.784,Info_measure_main_exp,2022.2.2,Win32,59.96282305,,,,,,,,,,,,,,,,,,masks/mask_002.jpg,,,,,,,,,,,,,,,,,,,,,,,,,,,,,,,,,,,,,,,,,,,0,0,0,1,1,,,,,,,,,,,,,,,,,,,,,,,,,,,,,,,,,,,,,,,,,,,,,,
499132,001,2022-11-21_02h04.52.784,Info_measure_main_exp,2022.2.2,Win32,59.96282305,,,,,,,,,,,,,,,,,,masks/mask_001.jpg,,,,,,,,,,,,,,,,,,,,,,,,,,,,,,,,,,,,,,,,,,,0,1,1,0,1,,,,,,,,,,,,,,,,,,,,,,,,,,,,,,,,,,,,,,,,,,,,,,
499132,001,2022-11-21_02h04.52.784,Info_measure_main_exp,2022.2.2,Win32,59.96282305,,,,,,,,,,,,,,,,,,masks/mask_005.jpg,,,,,,,,,,,,,,,,,,,,,,,,,,,,,,,,,,,,,,,,,,,0,2,2,4,1,,,,,,,,,,,,,,,,,,,,,,,,,,,,,,,,,,,,,,,,,,,,,,
499132,001,2022-11-21_02h04.52.784,Info_measure_main_exp,2022.2.2,Win32,59.96282305,,,,,,,,,,,,,,,,,,masks/mask_004.jpg,,,,,,,,,,,,,,,,,,,,,,,,,,,,,,,,,,,,,,,,,,,0,3,3,3,1,,,,,,,,,,,,,,,,,,,,,,,,,,,,,,,,,,,,,,,,,,,,,,
499132,001,2022-11-21_02h04.52.784,Info_measure_main_exp,2022.2.2,Win32,59.96282305,,,,,,,,,,,,,,,,,,masks/mask_003.jpg,,,,,,,,,,,,,,,,,,,,,,,,,,,,,,,,,,,,,,,,,,,0,4,4,2,1,,,,,,,,,,,,,,,,,,,,,,,,,,,,,,,,,,,,,,,,,,,,,,
499132,001,2022-11-21_02h04.52.784,Info_measure_main_exp,2022.2.2,Win32,59.96282305,,,,,,,,,,,,,,,,,,masks/mask_003.jpg,,,,,,,,,,,,,,,,,,,,,,,,,,,,,,,,,,,,,,,,,,,,,,,,0,0,0,2,1,,,,,,,,,,,,,,,,,,,,,,,,,,,,,,,,,,,,,,,,,
499132,001,2022-11-21_02h04.52.784,Info_measure_main_exp,2022.2.2,Win32,59.96282305,,,,,,,,,,,,,,,,,,masks/mask_001.jpg,,,,,,,,,,,,,,,,,,,,,,,,,,,,,,,,,,,,,,,,,,,,,,,,0,1,1,0,1,,,,,,,,,,,,,,,,,,,,,,,,,,,,,,,,,,,,,,,,,
499132,001,2022-11-21_02h04.52.784,Info_measure_main_exp,2022.2.2,Win32,59.96282305,,,,,,,,,,,,,,,,,,masks/mask_002.jpg,,,,,,,,,,,,,,,,,,,,,,,,,,,,,,,,,,,,,,,,,,,,,,,,0,2,2,1,1,,,,,,,,,,,,,,,,,,,,,,,,,,,,,,,,,,,,,,,,,
499132,001,2022-11-21_02h04.52.784,Info_measure_main_exp,2022.2.2,Win32,59.96282305,,,,,,,,,,,,,,,,,,masks/mask_004.jpg,,,,,,,,,,,,,,,,,,,,,,,,,,,,,,,,,,,,,,,,,,,,,,,,0,3,3,3,1,,,,,,,,,,,,,,,,,,,,,,,,,,,,,,,,,,,,,,,,,
499132,001,2022-11-21_02h04.52.784,Info_measure_main_exp,2022.2.2,Win32,59.96282305,,,,,,,,,,,,,,,,,,masks/mask_005.jpg,,,,,,,,,,,,,,,,,,,,,,,,,,,,,,,,,,,,,,,,,,,,,,,,0,4,4,4,1,,,,,,,,,,,,,,,,,,,,,,,,,,,,,,,,,,,,,,,,,
499132,001,2022-11-21_02h04.52.784,Info_measure_main_exp,2022.2.2,Win32,59.96282305,,,,,,,,,,,,,,,,,,,,,,,,,,,,,,7,2.204,1,,,,,,,,,,,,0,131,5,5,1950,2082,absent_patch/patch0001950.jpg,absent_patch/patch0002082.jpg,,,,,,,,,,,,,,,,,,,,0.037760417,0.071614583,1,0,0,response1disk,32,-0.005208333,0.002604167,1,0,0,center_square,0,31,31,12,1,,,,,,,,,,,,,,,,,,,,,,,
499132,001,2022-11-21_02h04.52.784,Info_measure_main_exp,2022.2.2,Win32,59.96282305,,,,,,,,,,,,,,,,,,masks/mask_002.jpg,,,,,,,,,,,,,,,,,,,,,,,,,,,,,,,,,,,,,,,,,,,0,0,0,1,1,,,,,,,,,,,,,,,,,,,,,,,,,,,,,,,,,,,,,,,,,,,,,,
499132,001,2022-11-21_02h04.52.784,Info_measure_main_exp,2022.2.2,Win32,59.96282305,,,,,,,,,,,,,,,,,,masks/mask_001.jpg,,,,,,,,,,,,,,,,,,,,,,,,,,,,,,,,,,,,,,,,,,,0,1,1,0,1,,,,,,,,,,,,,,,,,,,,,,,,,,,,,,,,,,,,,,,,,,,,,,
499132,001,2022-11-21_02h04.52.784,Info_measure_main_exp,2022.2.2,Win32,59.96282305,,,,,,,,,,,,,,,,,,masks/mask_005.jpg,,,,,,,,,,,,,,,,,,,,,,,,,,,,,,,,,,,,,,,,,,,0,2,2,4,1,,,,,,,,,,,,,,,,,,,,,,,,,,,,,,,,,,,,,,,,,,,,,,
499132,001,2022-11-21_02h04.52.784,Info_measure_main_exp,2022.2.2,Win32,59.96282305,,,,,,,,,,,,,,,,,,masks/mask_004.jpg,,,,,,,,,,,,,,,,,,,,,,,,,,,,,,,,,,,,,,,,,,,0,3,3,3,1,,,,,,,,,,,,,,,,,,,,,,,,,,,,,,,,,,,,,,,,,,,,,,
499132,001,2022-11-21_02h04.52.784,Info_measure_main_exp,2022.2.2,Win32,59.96282305,,,,,,,,,,,,,,,,,,masks/mask_003.jpg,,,,,,,,,,,,,,,,,,,,,,,,,,,,,,,,,,,,,,,,,,,0,4,4,2,1,,,,,,,,,,,,,,,,,,,,,,,,,,,,,,,,,,,,,,,,,,,,,,
499132,001,2022-11-21_02h04.52.784,Info_measure_main_exp,2022.2.2,Win32,59.96282305,,,,,,,,,,,,,,,,,,masks/mask_002.jpg,,,,,,,,,,,,,,,,,,,,,,,,,,,,,,,,,,,,,,,,,,,,,,,,0,0,0,1,1,,,,,,,,,,,,,,,,,,,,,,,,,,,,,,,,,,,,,,,,,
499132,001,2022-11-21_02h04.52.784,Info_measure_main_exp,2022.2.2,Win32,59.96282305,,,,,,,,,,,,,,,,,,masks/mask_003.jpg,,,,,,,,,,,,,,,,,,,,,,,,,,,,,,,,,,,,,,,,,,,,,,,,0,1,1,2,1,,,,,,,,,,,,,,,,,,,,,,,,,,,,,,,,,,,,,,,,,
499132,001,2022-11-21_02h04.52.784,Info_measure_main_exp,2022.2.2,Win32,59.96282305,,,,,,,,,,,,,,,,,,masks/mask_005.jpg,,,,,,,,,,,,,,,,,,,,,,,,,,,,,,,,,,,,,,,,,,,,,,,,0,2,2,4,1,,,,,,,,,,,,,,,,,,,,,,,,,,,,,,,,,,,,,,,,,
499132,001,2022-11-21_02h04.52.784,Info_measure_main_exp,2022.2.2,Win32,59.96282305,,,,,,,,,,,,,,,,,,masks/mask_001.jpg,,,,,,,,,,,,,,,,,,,,,,,,,,,,,,,,,,,,,,,,,,,,,,,,0,3,3,0,1,,,,,,,,,,,,,,,,,,,,,,,,,,,,,,,,,,,,,,,,,
499132,001,2022-11-21_02h04.52.784,Info_measure_main_exp,2022.2.2,Win32,59.96282305,,,,,,,,,,,,,,,,,,masks/mask_004.jpg,,,,,,,,,,,,,,,,,,,,,,,,,,,,,,,,,,,,,,,,,,,,,,,,0,4,4,3,1,,,,,,,,,,,,,,,,,,,,,,,,,,,,,,,,,,,,,,,,,
499132,001,2022-11-21_02h04.52.784,Info_measure_main_exp,2022.2.2,Win32,59.96282305,,,,,,,,,,,,,,,,,,,,,,,,,,,,,,2,2.3496,1,,,,,,,,,,,,1,131,5,5,1,2274,present_patch/cong_131_5_a.jpg,absent_patch/patch0002274.jpg,,,,,,,,,,,,,,,,,,,,-0.131510417,-0.0859375,1,0,0,response5disk,33,0.01171875,0.0078125,1,0,0,center_square,0,32,32,105,1,,,,,,,,,,,,,,,,,,,,,,,
499132,001,2022-11-21_02h04.52.784,Info_measure_main_exp,2022.2.2,Win32,59.96282305,,,,,,,,,,,,,,,,,,masks/mask_002.jpg,,,,,,,,,,,,,,,,,,,,,,,,,,,,,,,,,,,,,,,,,,,0,0,0,1,1,,,,,,,,,,,,,,,,,,,,,,,,,,,,,,,,,,,,,,,,,,,,,,
499132,001,2022-11-21_02h04.52.784,Info_measure_main_exp,2022.2.2,Win32,59.96282305,,,,,,,,,,,,,,,,,,masks/mask_003.jpg,,,,,,,,,,,,,,,,,,,,,,,,,,,,,,,,,,,,,,,,,,,0,1,1,2,1,,,,,,,,,,,,,,,,,,,,,,,,,,,,,,,,,,,,,,,,,,,,,,
499132,001,2022-11-21_02h04.52.784,Info_measure_main_exp,2022.2.2,Win32,59.96282305,,,,,,,,,,,,,,,,,,masks/mask_001.jpg,,,,,,,,,,,,,,,,,,,,,,,,,,,,,,,,,,,,,,,,,,,0,2,2,0,1,,,,,,,,,,,,,,,,,,,,,,,,,,,,,,,,,,,,,,,,,,,,,,
499132,001,2022-11-21_02h04.52.784,Info_measure_main_exp,2022.2.2,Win32,59.96282305,,,,,,,,,,,,,,,,,,masks/mask_004.jpg,,,,,,,,,,,,,,,,,,,,,,,,,,,,,,,,,,,,,,,,,,,0,3,3,3,1,,,,,,,,,,,,,,,,,,,,,,,,,,,,,,,,,,,,,,,,,,,,,,
499132,001,2022-11-21_02h04.52.784,Info_measure_main_exp,2022.2.2,Win32,59.96282305,,,,,,,,,,,,,,,,,,masks/mask_005.jpg,,,,,,,,,,,,,,,,,,,,,,,,,,,,,,,,,,,,,,,,,,,0,4,4,4,1,,,,,,,,,,,,,,,,,,,,,,,,,,,,,,,,,,,,,,,,,,,,,,
499132,001,2022-11-21_02h04.52.784,Info_measure_main_exp,2022.2.2,Win32,59.96282305,,,,,,,,,,,,,,,,,,masks/mask_001.jpg,,,,,,,,,,,,,,,,,,,,,,,,,,,,,,,,,,,,,,,,,,,,,,,,0,0,0,0,1,,,,,,,,,,,,,,,,,,,,,,,,,,,,,,,,,,,,,,,,,
499132,001,2022-11-21_02h04.52.784,Info_measure_main_exp,2022.2.2,Win32,59.96282305,,,,,,,,,,,,,,,,,,masks/mask_002.jpg,,,,,,,,,,,,,,,,,,,,,,,,,,,,,,,,,,,,,,,,,,,,,,,,0,1,1,1,1,,,,,,,,,,,,,,,,,,,,,,,,,,,,,,,,,,,,,,,,,
499132,001,2022-11-21_02h04.52.784,Info_measure_main_exp,2022.2.2,Win32,59.96282305,,,,,,,,,,,,,,,,,,masks/mask_005.jpg,,,,,,,,,,,,,,,,,,,,,,,,,,,,,,,,,,,,,,,,,,,,,,,,0,2,2,4,1,,,,,,,,,,,,,,,,,,,,,,,,,,,,,,,,,,,,,,,,,
499132,001,2022-11-21_02h04.52.784,Info_measure_main_exp,2022.2.2,Win32,59.96282305,,,,,,,,,,,,,,,,,,masks/mask_004.jpg,,,,,,,,,,,,,,,,,,,,,,,,,,,,,,,,,,,,,,,,,,,,,,,,0,3,3,3,1,,,,,,,,,,,,,,,,,,,,,,,,,,,,,,,,,,,,,,,,,
499132,001,2022-11-21_02h04.52.784,Info_measure_main_exp,2022.2.2,Win32,59.96282305,,,,,,,,,,,,,,,,,,masks/mask_003.jpg,,,,,,,,,,,,,,,,,,,,,,,,,,,,,,,,,,,,,,,,,,,,,,,,0,4,4,2,1,,,,,,,,,,,,,,,,,,,,,,,,,,,,,,,,,,,,,,,,,
499132,001,2022-11-21_02h04.52.784,Info_measure_main_exp,2022.2.2,Win32,59.96282305,,,,,,,,,,,,,,,,,,,,,,,,,,,,,,6,2.4343,1,,,,,,,,,,,,0,131,5,5,1974,2166,absent_patch/patch0001974.jpg,absent_patch/patch0002166.jpg,,,,,,,,,,,,,,,,,,,,0.041666667,0.028645833,1,0,0,response1disk,34,0.001302083,0.001302083,1,0,0,center_square,0,33,33,77,1,,,,,,,,,,,,,,,,,,,,,,,
499132,001,2022-11-21_02h04.52.784,Info_measure_main_exp,2022.2.2,Win32,59.96282305,,,,,,,,,,,,,,,,,,masks/mask_002.jpg,,,,,,,,,,,,,,,,,,,,,,,,,,,,,,,,,,,,,,,,,,,0,0,0,1,1,,,,,,,,,,,,,,,,,,,,,,,,,,,,,,,,,,,,,,,,,,,,,,
499132,001,2022-11-21_02h04.52.784,Info_measure_main_exp,2022.2.2,Win32,59.96282305,,,,,,,,,,,,,,,,,,masks/mask_001.jpg,,,,,,,,,,,,,,,,,,,,,,,,,,,,,,,,,,,,,,,,,,,0,1,1,0,1,,,,,,,,,,,,,,,,,,,,,,,,,,,,,,,,,,,,,,,,,,,,,,
499132,001,2022-11-21_02h04.52.784,Info_measure_main_exp,2022.2.2,Win32,59.96282305,,,,,,,,,,,,,,,,,,masks/mask_004.jpg,,,,,,,,,,,,,,,,,,,,,,,,,,,,,,,,,,,,,,,,,,,0,2,2,3,1,,,,,,,,,,,,,,,,,,,,,,,,,,,,,,,,,,,,,,,,,,,,,,
499132,001,2022-11-21_02h04.52.784,Info_measure_main_exp,2022.2.2,Win32,59.96282305,,,,,,,,,,,,,,,,,,masks/mask_003.jpg,,,,,,,,,,,,,,,,,,,,,,,,,,,,,,,,,,,,,,,,,,,0,3,3,2,1,,,,,,,,,,,,,,,,,,,,,,,,,,,,,,,,,,,,,,,,,,,,,,
499132,001,2022-11-21_02h04.52.784,Info_measure_main_exp,2022.2.2,Win32,59.96282305,,,,,,,,,,,,,,,,,,masks/mask_005.jpg,,,,,,,,,,,,,,,,,,,,,,,,,,,,,,,,,,,,,,,,,,,0,4,4,4,1,,,,,,,,,,,,,,,,,,,,,,,,,,,,,,,,,,,,,,,,,,,,,,
499132,001,2022-11-21_02h04.52.784,Info_measure_main_exp,2022.2.2,Win32,59.96282305,,,,,,,,,,,,,,,,,,masks/mask_003.jpg,,,,,,,,,,,,,,,,,,,,,,,,,,,,,,,,,,,,,,,,,,,,,,,,0,0,0,2,1,,,,,,,,,,,,,,,,,,,,,,,,,,,,,,,,,,,,,,,,,
499132,001,2022-11-21_02h04.52.784,Info_measure_main_exp,2022.2.2,Win32,59.96282305,,,,,,,,,,,,,,,,,,masks/mask_002.jpg,,,,,,,,,,,,,,,,,,,,,,,,,,,,,,,,,,,,,,,,,,,,,,,,0,1,1,1,1,,,,,,,,,,,,,,,,,,,,,,,,,,,,,,,,,,,,,,,,,
499132,001,2022-11-21_02h04.52.784,Info_measure_main_exp,2022.2.2,Win32,59.96282305,,,,,,,,,,,,,,,,,,masks/mask_001.jpg,,,,,,,,,,,,,,,,,,,,,,,,,,,,,,,,,,,,,,,,,,,,,,,,0,2,2,0,1,,,,,,,,,,,,,,,,,,,,,,,,,,,,,,,,,,,,,,,,,
499132,001,2022-11-21_02h04.52.784,Info_measure_main_exp,2022.2.2,Win32,59.96282305,,,,,,,,,,,,,,,,,,masks/mask_004.jpg,,,,,,,,,,,,,,,,,,,,,,,,,,,,,,,,,,,,,,,,,,,,,,,,0,3,3,3,1,,,,,,,,,,,,,,,,,,,,,,,,,,,,,,,,,,,,,,,,,
