participant,session,date,expName,psychopyVersion,OS,frameRate,space_press_continue.keys,space_press_continue.rt,space_press_continue_2.keys,space_press_continue_2.rt,space_press_continue_3.keys,space_press_continue_3.rt,space_press_continue_4.keys,space_press_continue_4.rt,space_press_continue_5.keys,space_press_continue_5.rt,space_press_continue_6.keys,space_press_continue_6.rt,prac_mask_loop_1.thisRepN,prac_mask_loop_1.thisTrialN,prac_mask_loop_1.thisN,prac_mask_loop_1.thisIndex,prac_mask_loop_1.ran,mask_name,prac_mask_loop_2.thisRepN,prac_mask_loop_2.thisTrialN,prac_mask_loop_2.thisN,prac_mask_loop_2.thisIndex,prac_mask_loop_2.ran,mouse_2.x,mouse_2.y,mouse_2.leftButton,mouse_2.midButton,mouse_2.rightButton,mouse_2.clicked_name,similarity,response_time,Pass,mouse_12.x,mouse_12.y,mouse_12.leftButton,mouse_12.midButton,mouse_12.rightButton,mouse_12.clicked_name,prac_loop.thisRepN,prac_loop.thisTrialN,prac_loop.thisN,prac_loop.thisIndex,prac_loop.ran,Pair_type,Image_num,Patch_1_loc,Patch_2_loc,Patch_1_info,Patch_2_info,Patch_1_name,Patch_2_name,mouse_1.x,mouse_1.y,mouse_1.leftButton,mouse_1.midButton,mouse_1.rightButton,mouse_1.time,mouse_1.clicked_name,space_press_continue_7.keys,space_press_continue_7.rt,mask_loop.thisRepN,mask_loop.thisTrialN,mask_loop.thisN,mask_loop.thisIndex,mask_loop.ran,mask_loop_2.thisRepN,mask_loop_2.thisTrialN,mask_loop_2.thisN,mask_loop_2.thisIndex,mask_loop_2.ran,mouse.x,mouse.y,mouse.leftButton,mouse.midButton,mouse.rightButton,mouse.clicked_name,trialNumber,mouse_11.x,mouse_11.y,mouse_11.leftButton,mouse_11.midButton,mouse_11.rightButton,mouse_11.clicked_name,first_pass_loop.thisRepN,first_pass_loop.thisTrialN,first_pass_loop.thisN,first_pass_loop.thisIndex,first_pass_loop.ran,mask_loop_3.thisRepN,mask_loop_3.thisTrialN,mask_loop_3.thisN,mask_loop_3.thisIndex,mask_loop_3.ran,mask_loop_4.thisRepN,mask_loop_4.thisTrialN,mask_loop_4.thisN,mask_loop_4.thisIndex,mask_loop_4.ran,mouse_3.x,mouse_3.y,mouse_3.leftButton,mouse_3.midButton,mouse_3.rightButton,mouse_3.clicked_name,double_pass_loop.thisRepN,double_pass_loop.thisTrialN,double_pass_loop.thisN,double_pass_loop.thisIndex,double_pass_loop.ran,space_exit.keys,space_exit.rt
501087,001,2022-11-20_20h51.42.759,Info_measure_main_exp,2022.2.2,Win32,14.98127341,,,,,,,,,,,,,,,,,,,,,,,,,,,,,,,,,,,,,,,,,,,,,,,,,,,,,,,,,,,,,,,,,,,,,,,,,,,,,,,,,,,,,,,,,,,,,,,,,,,,,,,,,,,,,,,
501087,001,2022-11-20_20h51.42.759,Info_measure_main_exp,2022.2.2,Win32,14.98127341,,,,,,,,,,,,,,,,,,,,,,,,,,,,,,,,,,,,,,,,,,,,,,,,,,,,,,,,,,,,,,,,,,,,,,,,,,,,,,,,,,,,,,,,,,,,,,,,,,,,,,,,,,,,,,,
501087,001,2022-11-20_20h51.42.759,Info_measure_main_exp,2022.2.2,Win32,14.98127341,space,6.2217,,,,,,,,,,,,,,,,,,,,,,,,,,,,,,,,,,,,,,,,,,,,,,,,,,,,,,,,,,,,,,,,,,,,,,,,,,,,,,,,,,,,,,,,,,,,,,,,,,,,,,,,,,,,,
501087,001,2022-11-20_20h51.42.759,Info_measure_main_exp,2022.2.2,Win32,14.98127341,,,space,10.8721,,,,,,,,,,,,,,,,,,,,,,,,,,,,,,,,,,,,,,,,,,,,,,,,,,,,,,,,,,,,,,,,,,,,,,,,,,,,,,,,,,,,,,,,,,,,,,,,,,,,,,,,,,,
501087,001,2022-11-20_20h51.42.759,Info_measure_main_exp,2022.2.2,Win32,14.98127341,,,,,space,4.6656,,,,,,,,,,,,,,,,,,,,,,,,,,,,,,,,,,,,,,,,,,,,,,,,,,,,,,,,,,,,,,,,,,,,,,,,,,,,,,,,,,,,,,,,,,,,,,,,,,,,,,,,,
501087,001,2022-11-20_20h51.42.759,Info_measure_main_exp,2022.2.2,Win32,14.98127341,,,,,,,space,30.7378,,,,,,,,,,,,,,,,,,,,,,,,,,,,,,,,,,,,,,,,,,,,,,,,,,,,,,,,,,,,,,,,,,,,,,,,,,,,,,,,,,,,,,,,,,,,,,,,,,,,,,,
501087,001,2022-11-20_20h51.42.759,Info_measure_main_exp,2022.2.2,Win32,14.98127341,,,,,,,,,space,15.8181,,,,,,,,,,,,,,,,,,,,,,,,,,,,,,,,,,,,,,,,,,,,,,,,,,,,,,,,,,,,,,,,,,,,,,,,,,,,,,,,,,,,,,,,,,,,,,,,,,,,,
501087,001,2022-11-20_20h51.42.759,Info_measure_main_exp,2022.2.2,Win32,14.98127341,,,,,,,,,,,space,3.1865,,,,,,,,,,,,,,,,,,,,,,,,,,,,,,,,,,,,,,,,,,,,,,,,,,,,,,,,,,,,,,,,,,,,,,,,,,,,,,,,,,,,,,,,,,,,,,,,,,,
501087,001,2022-11-20_20h51.42.759,Info_measure_main_exp,2022.2.2,Win32,14.98127341,,,,,,,,,,,,,0,0,0,2,1,masks/mask_003.jpg,,,,,,,,,,,,,,,,,,,,,,,,,,,,,,,,,,,,,,,,,,,,,,,,,,,,,,,,,,,,,,,,,,,,,,,,,,,,,,,,,,,,,,,,,,,,,
501087,001,2022-11-20_20h51.42.759,Info_measure_main_exp,2022.2.2,Win32,14.98127341,,,,,,,,,,,,,0,1,1,4,1,masks/mask_005.jpg,,,,,,,,,,,,,,,,,,,,,,,,,,,,,,,,,,,,,,,,,,,,,,,,,,,,,,,,,,,,,,,,,,,,,,,,,,,,,,,,,,,,,,,,,,,,,
501087,001,2022-11-20_20h51.42.759,Info_measure_main_exp,2022.2.2,Win32,14.98127341,,,,,,,,,,,,,0,2,2,0,1,masks/mask_001.jpg,,,,,,,,,,,,,,,,,,,,,,,,,,,,,,,,,,,,,,,,,,,,,,,,,,,,,,,,,,,,,,,,,,,,,,,,,,,,,,,,,,,,,,,,,,,,,
501087,001,2022-11-20_20h51.42.759,Info_measure_main_exp,2022.2.2,Win32,14.98127341,,,,,,,,,,,,,0,3,3,1,1,masks/mask_002.jpg,,,,,,,,,,,,,,,,,,,,,,,,,,,,,,,,,,,,,,,,,,,,,,,,,,,,,,,,,,,,,,,,,,,,,,,,,,,,,,,,,,,,,,,,,,,,,
501087,001,2022-11-20_20h51.42.759,Info_measure_main_exp,2022.2.2,Win32,14.98127341,,,,,,,,,,,,,0,4,4,3,1,masks/mask_004.jpg,,,,,,,,,,,,,,,,,,,,,,,,,,,,,,,,,,,,,,,,,,,,,,,,,,,,,,,,,,,,,,,,,,,,,,,,,,,,,,,,,,,,,,,,,,,,,
501087,001,2022-11-20_20h51.42.759,Info_measure_main_exp,2022.2.2,Win32,14.98127341,,,,,,,,,,,,,,,,,,masks/mask_005.jpg,0,0,0,4,1,,,,,,,,,,,,,,,,,,,,,,,,,,,,,,,,,,,,,,,,,,,,,,,,,,,,,,,,,,,,,,,,,,,,,,,,,,,,,,,,,,,,,,,,
501087,001,2022-11-20_20h51.42.759,Info_measure_main_exp,2022.2.2,Win32,14.98127341,,,,,,,,,,,,,,,,,,masks/mask_002.jpg,0,1,1,1,1,,,,,,,,,,,,,,,,,,,,,,,,,,,,,,,,,,,,,,,,,,,,,,,,,,,,,,,,,,,,,,,,,,,,,,,,,,,,,,,,,,,,,,,,
501087,001,2022-11-20_20h51.42.759,Info_measure_main_exp,2022.2.2,Win32,14.98127341,,,,,,,,,,,,,,,,,,masks/mask_004.jpg,0,2,2,3,1,,,,,,,,,,,,,,,,,,,,,,,,,,,,,,,,,,,,,,,,,,,,,,,,,,,,,,,,,,,,,,,,,,,,,,,,,,,,,,,,,,,,,,,,
501087,001,2022-11-20_20h51.42.759,Info_measure_main_exp,2022.2.2,Win32,14.98127341,,,,,,,,,,,,,,,,,,masks/mask_003.jpg,0,3,3,2,1,,,,,,,,,,,,,,,,,,,,,,,,,,,,,,,,,,,,,,,,,,,,,,,,,,,,,,,,,,,,,,,,,,,,,,,,,,,,,,,,,,,,,,,,
501087,001,2022-11-20_20h51.42.759,Info_measure_main_exp,2022.2.2,Win32,14.98127341,,,,,,,,,,,,,,,,,,masks/mask_001.jpg,0,4,4,0,1,,,,,,,,,,,,,,,,,,,,,,,,,,,,,,,,,,,,,,,,,,,,,,,,,,,,,,,,,,,,,,,,,,,,,,,,,,,,,,,,,,,,,,,,
501087,001,2022-11-20_20h51.42.759,Info_measure_main_exp,2022.2.2,Win32,14.98127341,,,,,,,,,,,,,,,,,,,,,,,,0.134259259,0.059259259,1,0,0,response1disk,6,80.1061,1,-0.003703704,0.002777778,1,0,0,center_square,0,0,0,0,1,0,131,5,5,2370,2406,prac_patch/patch0002370.jpg,prac_patch/patch0002406.jpg,,,,,,,,,,,,,,,,,,,,,,,,,,,,,,,,,,,,,,,,,,,,,,,,,,,,,,,,,,,,
501087,001,2022-11-20_20h51.42.759,Info_measure_main_exp,2022.2.2,Win32,14.98127341,,,,,,,,,,,,,0,0,0,3,1,masks/mask_004.jpg,,,,,,,,,,,,,,,,,,,,,,,,,,,,,,,,,,,,,,,,,,,,,,,,,,,,,,,,,,,,,,,,,,,,,,,,,,,,,,,,,,,,,,,,,,,,,
501087,001,2022-11-20_20h51.42.759,Info_measure_main_exp,2022.2.2,Win32,14.98127341,,,,,,,,,,,,,0,1,1,4,1,masks/mask_005.jpg,,,,,,,,,,,,,,,,,,,,,,,,,,,,,,,,,,,,,,,,,,,,,,,,,,,,,,,,,,,,,,,,,,,,,,,,,,,,,,,,,,,,,,,,,,,,,
501087,001,2022-11-20_20h51.42.759,Info_measure_main_exp,2022.2.2,Win32,14.98127341,,,,,,,,,,,,,0,2,2,2,1,masks/mask_003.jpg,,,,,,,,,,,,,,,,,,,,,,,,,,,,,,,,,,,,,,,,,,,,,,,,,,,,,,,,,,,,,,,,,,,,,,,,,,,,,,,,,,,,,,,,,,,,,
501087,001,2022-11-20_20h51.42.759,Info_measure_main_exp,2022.2.2,Win32,14.98127341,,,,,,,,,,,,,0,3,3,0,1,masks/mask_001.jpg,,,,,,,,,,,,,,,,,,,,,,,,,,,,,,,,,,,,,,,,,,,,,,,,,,,,,,,,,,,,,,,,,,,,,,,,,,,,,,,,,,,,,,,,,,,,,
501087,001,2022-11-20_20h51.42.759,Info_measure_main_exp,2022.2.2,Win32,14.98127341,,,,,,,,,,,,,0,4,4,1,1,masks/mask_002.jpg,,,,,,,,,,,,,,,,,,,,,,,,,,,,,,,,,,,,,,,,,,,,,,,,,,,,,,,,,,,,,,,,,,,,,,,,,,,,,,,,,,,,,,,,,,,,,
501087,001,2022-11-20_20h51.42.759,Info_measure_main_exp,2022.2.2,Win32,14.98127341,,,,,,,,,,,,,,,,,,masks/mask_002.jpg,0,0,0,1,1,,,,,,,,,,,,,,,,,,,,,,,,,,,,,,,,,,,,,,,,,,,,,,,,,,,,,,,,,,,,,,,,,,,,,,,,,,,,,,,,,,,,,,,,
501087,001,2022-11-20_20h51.42.759,Info_measure_main_exp,2022.2.2,Win32,14.98127341,,,,,,,,,,,,,,,,,,masks/mask_004.jpg,0,1,1,3,1,,,,,,,,,,,,,,,,,,,,,,,,,,,,,,,,,,,,,,,,,,,,,,,,,,,,,,,,,,,,,,,,,,,,,,,,,,,,,,,,,,,,,,,,
501087,001,2022-11-20_20h51.42.759,Info_measure_main_exp,2022.2.2,Win32,14.98127341,,,,,,,,,,,,,,,,,,masks/mask_001.jpg,0,2,2,0,1,,,,,,,,,,,,,,,,,,,,,,,,,,,,,,,,,,,,,,,,,,,,,,,,,,,,,,,,,,,,,,,,,,,,,,,,,,,,,,,,,,,,,,,,
501087,001,2022-11-20_20h51.42.759,Info_measure_main_exp,2022.2.2,Win32,14.98127341,,,,,,,,,,,,,,,,,,masks/mask_003.jpg,0,3,3,2,1,,,,,,,,,,,,,,,,,,,,,,,,,,,,,,,,,,,,,,,,,,,,,,,,,,,,,,,,,,,,,,,,,,,,,,,,,,,,,,,,,,,,,,,,
501087,001,2022-11-20_20h51.42.759,Info_measure_main_exp,2022.2.2,Win32,14.98127341,,,,,,,,,,,,,,,,,,masks/mask_005.jpg,0,4,4,4,1,,,,,,,,,,,,,,,,,,,,,,,,,,,,,,,,,,,,,,,,,,,,,,,,,,,,,,,,,,,,,,,,,,,,,,,,,,,,,,,,,,,,,,,,
501087,001,2022-11-20_20h51.42.759,Info_measure_main_exp,2022.2.2,Win32,14.98127341,,,,,,,,,,,,,,,,,,,,,,,,-0.046296296,0.115740741,1,0,0,response7disk,0,91.5373,1,-0.002777778,0.00462963,1,0,0,center_square,0,1,1,2,1,0,131,5,5,2526,2526,prac_patch/patch0002526.jpg,prac_patch/patch0002526.jpg,,,,,,,,,,,,,,,,,,,,,,,,,,,,,,,,,,,,,,,,,,,,,,,,,,,,,,,,,,,,
501087,001,2022-11-20_20h51.42.759,Info_measure_main_exp,2022.2.2,Win32,14.98127341,,,,,,,,,,,,,0,0,0,0,1,masks/mask_001.jpg,,,,,,,,,,,,,,,,,,,,,,,,,,,,,,,,,,,,,,,,,,,,,,,,,,,,,,,,,,,,,,,,,,,,,,,,,,,,,,,,,,,,,,,,,,,,,
501087,001,2022-11-20_20h51.42.759,Info_measure_main_exp,2022.2.2,Win32,14.98127341,,,,,,,,,,,,,0,1,1,1,1,masks/mask_002.jpg,,,,,,,,,,,,,,,,,,,,,,,,,,,,,,,,,,,,,,,,,,,,,,,,,,,,,,,,,,,,,,,,,,,,,,,,,,,,,,,,,,,,,,,,,,,,,
501087,001,2022-11-20_20h51.42.759,Info_measure_main_exp,2022.2.2,Win32,14.98127341,,,,,,,,,,,,,0,2,2,4,1,masks/mask_005.jpg,,,,,,,,,,,,,,,,,,,,,,,,,,,,,,,,,,,,,,,,,,,,,,,,,,,,,,,,,,,,,,,,,,,,,,,,,,,,,,,,,,,,,,,,,,,,,
501087,001,2022-11-20_20h51.42.759,Info_measure_main_exp,2022.2.2,Win32,14.98127341,,,,,,,,,,,,,0,3,3,2,1,masks/mask_003.jpg,,,,,,,,,,,,,,,,,,,,,,,,,,,,,,,,,,,,,,,,,,,,,,,,,,,,,,,,,,,,,,,,,,,,,,,,,,,,,,,,,,,,,,,,,,,,,
501087,001,2022-11-20_20h51.42.759,Info_measure_main_exp,2022.2.2,Win32,14.98127341,,,,,,,,,,,,,0,4,4,3,1,masks/mask_004.jpg,,,,,,,,,,,,,,,,,,,,,,,,,,,,,,,,,,,,,,,,,,,,,,,,,,,,,,,,,,,,,,,,,,,,,,,,,,,,,,,,,,,,,,,,,,,,,
501087,001,2022-11-20_20h51.42.759,Info_measure_main_exp,2022.2.2,Win32,14.98127341,,,,,,,,,,,,,,,,,,masks/mask_004.jpg,0,0,0,3,1,,,,,,,,,,,,,,,,,,,,,,,,,,,,,,,,,,,,,,,,,,,,,,,,,,,,,,,,,,,,,,,,,,,,,,,,,,,,,,,,,,,,,,,,
501087,001,2022-11-20_20h51.42.759,Info_measure_main_exp,2022.2.2,Win32,14.98127341,,,,,,,,,,,,,,,,,,masks/mask_002.jpg,0,1,1,1,1,,,,,,,,,,,,,,,,,,,,,,,,,,,,,,,,,,,,,,,,,,,,,,,,,,,,,,,,,,,,,,,,,,,,,,,,,,,,,,,,,,,,,,,,
501087,001,2022-11-20_20h51.42.759,Info_measure_main_exp,2022.2.2,Win32,14.98127341,,,,,,,,,,,,,,,,,,masks/mask_003.jpg,0,2,2,2,1,,,,,,,,,,,,,,,,,,,,,,,,,,,,,,,,,,,,,,,,,,,,,,,,,,,,,,,,,,,,,,,,,,,,,,,,,,,,,,,,,,,,,,,,
501087,001,2022-11-20_20h51.42.759,Info_measure_main_exp,2022.2.2,Win32,14.98127341,,,,,,,,,,,,,,,,,,masks/mask_001.jpg,0,3,3,0,1,,,,,,,,,,,,,,,,,,,,,,,,,,,,,,,,,,,,,,,,,,,,,,,,,,,,,,,,,,,,,,,,,,,,,,,,,,,,,,,,,,,,,,,,
501087,001,2022-11-20_20h51.42.759,Info_measure_main_exp,2022.2.2,Win32,14.98127341,,,,,,,,,,,,,,,,,,masks/mask_005.jpg,0,4,4,4,1,,,,,,,,,,,,,,,,,,,,,,,,,,,,,,,,,,,,,,,,,,,,,,,,,,,,,,,,,,,,,,,,,,,,,,,,,,,,,,,,,,,,,,,,
501087,001,2022-11-20_20h51.42.759,Info_measure_main_exp,2022.2.2,Win32,14.98127341,,,,,,,,,,,,,,,,,,,,,,,,0.034259259,-0.077777778,1,0,0,response3disk,4,101.3393,1,0.003703704,-0.003703704,1,0,0,center_square,0,2,2,1,1,0,131,5,5,2514,2490,prac_patch/patch0002514.jpg,prac_patch/patch0002490.jpg,,,,,,,,,,,,,,,,,,,,,,,,,,,,,,,,,,,,,,,,,,,,,,,,,,,,,,,,,,,,
501087,001,2022-11-20_20h51.42.759,Info_measure_main_exp,2022.2.2,Win32,14.98127341,,,,,,,,,,,,,,,,,,,,,,,,,,,,,,,,,,,,,,,,,,,,,,,,,,,,,,,,,,,space,6.5488,,,,,,,,,,,,,,,,,,,,,,,,,,,,,,,,,,,,,,,,,,,,,,,,,,,
501087,001,2022-11-20_20h51.42.759,Info_measure_main_exp,2022.2.2,Win32,14.98127341,,,,,,,,,,,,,,,,,,masks/mask_001.jpg,,,,,,,,,,,,,,,,,,,,,,,,,,,,,,,,,,,,,,,,,,,0,0,0,0,1,,,,,,,,,,,,,,,,,,,,,,,,,,,,,,,,,,,,,,,,,,,,,,
501087,001,2022-11-20_20h51.42.759,Info_measure_main_exp,2022.2.2,Win32,14.98127341,,,,,,,,,,,,,,,,,,masks/mask_002.jpg,,,,,,,,,,,,,,,,,,,,,,,,,,,,,,,,,,,,,,,,,,,0,1,1,1,1,,,,,,,,,,,,,,,,,,,,,,,,,,,,,,,,,,,,,,,,,,,,,,
501087,001,2022-11-20_20h51.42.759,Info_measure_main_exp,2022.2.2,Win32,14.98127341,,,,,,,,,,,,,,,,,,masks/mask_004.jpg,,,,,,,,,,,,,,,,,,,,,,,,,,,,,,,,,,,,,,,,,,,0,2,2,3,1,,,,,,,,,,,,,,,,,,,,,,,,,,,,,,,,,,,,,,,,,,,,,,
501087,001,2022-11-20_20h51.42.759,Info_measure_main_exp,2022.2.2,Win32,14.98127341,,,,,,,,,,,,,,,,,,masks/mask_005.jpg,,,,,,,,,,,,,,,,,,,,,,,,,,,,,,,,,,,,,,,,,,,0,3,3,4,1,,,,,,,,,,,,,,,,,,,,,,,,,,,,,,,,,,,,,,,,,,,,,,
501087,001,2022-11-20_20h51.42.759,Info_measure_main_exp,2022.2.2,Win32,14.98127341,,,,,,,,,,,,,,,,,,masks/mask_003.jpg,,,,,,,,,,,,,,,,,,,,,,,,,,,,,,,,,,,,,,,,,,,0,4,4,2,1,,,,,,,,,,,,,,,,,,,,,,,,,,,,,,,,,,,,,,,,,,,,,,
501087,001,2022-11-20_20h51.42.759,Info_measure_main_exp,2022.2.2,Win32,14.98127341,,,,,,,,,,,,,,,,,,masks/mask_003.jpg,,,,,,,,,,,,,,,,,,,,,,,,,,,,,,,,,,,,,,,,,,,,,,,,0,0,0,2,1,,,,,,,,,,,,,,,,,,,,,,,,,,,,,,,,,,,,,,,,,
501087,001,2022-11-20_20h51.42.759,Info_measure_main_exp,2022.2.2,Win32,14.98127341,,,,,,,,,,,,,,,,,,masks/mask_005.jpg,,,,,,,,,,,,,,,,,,,,,,,,,,,,,,,,,,,,,,,,,,,,,,,,0,1,1,4,1,,,,,,,,,,,,,,,,,,,,,,,,,,,,,,,,,,,,,,,,,
501087,001,2022-11-20_20h51.42.759,Info_measure_main_exp,2022.2.2,Win32,14.98127341,,,,,,,,,,,,,,,,,,masks/mask_004.jpg,,,,,,,,,,,,,,,,,,,,,,,,,,,,,,,,,,,,,,,,,,,,,,,,0,2,2,3,1,,,,,,,,,,,,,,,,,,,,,,,,,,,,,,,,,,,,,,,,,
501087,001,2022-11-20_20h51.42.759,Info_measure_main_exp,2022.2.2,Win32,14.98127341,,,,,,,,,,,,,,,,,,masks/mask_002.jpg,,,,,,,,,,,,,,,,,,,,,,,,,,,,,,,,,,,,,,,,,,,,,,,,0,3,3,1,1,,,,,,,,,,,,,,,,,,,,,,,,,,,,,,,,,,,,,,,,,
501087,001,2022-11-20_20h51.42.759,Info_measure_main_exp,2022.2.2,Win32,14.98127341,,,,,,,,,,,,,,,,,,masks/mask_001.jpg,,,,,,,,,,,,,,,,,,,,,,,,,,,,,,,,,,,,,,,,,,,,,,,,0,4,4,0,1,,,,,,,,,,,,,,,,,,,,,,,,,,,,,,,,,,,,,,,,,
501087,001,2022-11-20_20h51.42.759,Info_measure_main_exp,2022.2.2,Win32,14.98127341,,,,,,,,,,,,,,,,,,,,,,,,,,,,,,0,1.8595,1,,,,,,,,,,,,0,131,5,5,2190,2190,absent_patch/patch0002190.jpg,absent_patch/patch0002190.jpg,,,,,,,,,,,,,,,,,,,,-0.046296296,0.117592593,1,0,0,response7disk,1,-0.002777778,0.007407407,1,0,0,center_square,0,0,0,86,1,,,,,,,,,,,,,,,,,,,,,,,
501087,001,2022-11-20_20h51.42.759,Info_measure_main_exp,2022.2.2,Win32,14.98127341,,,,,,,,,,,,,,,,,,masks/mask_005.jpg,,,,,,,,,,,,,,,,,,,,,,,,,,,,,,,,,,,,,,,,,,,0,0,0,4,1,,,,,,,,,,,,,,,,,,,,,,,,,,,,,,,,,,,,,,,,,,,,,,
501087,001,2022-11-20_20h51.42.759,Info_measure_main_exp,2022.2.2,Win32,14.98127341,,,,,,,,,,,,,,,,,,masks/mask_003.jpg,,,,,,,,,,,,,,,,,,,,,,,,,,,,,,,,,,,,,,,,,,,0,1,1,2,1,,,,,,,,,,,,,,,,,,,,,,,,,,,,,,,,,,,,,,,,,,,,,,
501087,001,2022-11-20_20h51.42.759,Info_measure_main_exp,2022.2.2,Win32,14.98127341,,,,,,,,,,,,,,,,,,masks/mask_004.jpg,,,,,,,,,,,,,,,,,,,,,,,,,,,,,,,,,,,,,,,,,,,0,2,2,3,1,,,,,,,,,,,,,,,,,,,,,,,,,,,,,,,,,,,,,,,,,,,,,,
501087,001,2022-11-20_20h51.42.759,Info_measure_main_exp,2022.2.2,Win32,14.98127341,,,,,,,,,,,,,,,,,,masks/mask_001.jpg,,,,,,,,,,,,,,,,,,,,,,,,,,,,,,,,,,,,,,,,,,,0,3,3,0,1,,,,,,,,,,,,,,,,,,,,,,,,,,,,,,,,,,,,,,,,,,,,,,
501087,001,2022-11-20_20h51.42.759,Info_measure_main_exp,2022.2.2,Win32,14.98127341,,,,,,,,,,,,,,,,,,masks/mask_002.jpg,,,,,,,,,,,,,,,,,,,,,,,,,,,,,,,,,,,,,,,,,,,0,4,4,1,1,,,,,,,,,,,,,,,,,,,,,,,,,,,,,,,,,,,,,,,,,,,,,,
501087,001,2022-11-20_20h51.42.759,Info_measure_main_exp,2022.2.2,Win32,14.98127341,,,,,,,,,,,,,,,,,,masks/mask_005.jpg,,,,,,,,,,,,,,,,,,,,,,,,,,,,,,,,,,,,,,,,,,,,,,,,0,0,0,4,1,,,,,,,,,,,,,,,,,,,,,,,,,,,,,,,,,,,,,,,,,
501087,001,2022-11-20_20h51.42.759,Info_measure_main_exp,2022.2.2,Win32,14.98127341,,,,,,,,,,,,,,,,,,masks/mask_002.jpg,,,,,,,,,,,,,,,,,,,,,,,,,,,,,,,,,,,,,,,,,,,,,,,,0,1,1,1,1,,,,,,,,,,,,,,,,,,,,,,,,,,,,,,,,,,,,,,,,,
501087,001,2022-11-20_20h51.42.759,Info_measure_main_exp,2022.2.2,Win32,14.98127341,,,,,,,,,,,,,,,,,,masks/mask_001.jpg,,,,,,,,,,,,,,,,,,,,,,,,,,,,,,,,,,,,,,,,,,,,,,,,0,2,2,0,1,,,,,,,,,,,,,,,,,,,,,,,,,,,,,,,,,,,,,,,,,
501087,001,2022-11-20_20h51.42.759,Info_measure_main_exp,2022.2.2,Win32,14.98127341,,,,,,,,,,,,,,,,,,masks/mask_004.jpg,,,,,,,,,,,,,,,,,,,,,,,,,,,,,,,,,,,,,,,,,,,,,,,,0,3,3,3,1,,,,,,,,,,,,,,,,,,,,,,,,,,,,,,,,,,,,,,,,,
501087,001,2022-11-20_20h51.42.759,Info_measure_main_exp,2022.2.2,Win32,14.98127341,,,,,,,,,,,,,,,,,,masks/mask_003.jpg,,,,,,,,,,,,,,,,,,,,,,,,,,,,,,,,,,,,,,,,,,,,,,,,0,4,4,2,1,,,,,,,,,,,,,,,,,,,,,,,,,,,,,,,,,,,,,,,,,
501087,001,2022-11-20_20h51.42.759,Info_measure_main_exp,2022.2.2,Win32,14.98127341,,,,,,,,,,,,,,,,,,,,,,,,,,,,,,7,1.7329,1,,,,,,,,,,,,0,131,5,5,1950,2238,absent_patch/patch0001950.jpg,absent_patch/patch0002238.jpg,,,,,,,,,,,,,,,,,,,,0.036111111,0.091666667,1,0,0,response1disk,2,0.001851852,0.002777778,1,0,0,center_square,0,1,1,8,1,,,,,,,,,,,,,,,,,,,,,,,
501087,001,2022-11-20_20h51.42.759,Info_measure_main_exp,2022.2.2,Win32,14.98127341,,,,,,,,,,,,,,,,,,masks/mask_003.jpg,,,,,,,,,,,,,,,,,,,,,,,,,,,,,,,,,,,,,,,,,,,0,0,0,2,1,,,,,,,,,,,,,,,,,,,,,,,,,,,,,,,,,,,,,,,,,,,,,,
501087,001,2022-11-20_20h51.42.759,Info_measure_main_exp,2022.2.2,Win32,14.98127341,,,,,,,,,,,,,,,,,,masks/mask_002.jpg,,,,,,,,,,,,,,,,,,,,,,,,,,,,,,,,,,,,,,,,,,,0,1,1,1,1,,,,,,,,,,,,,,,,,,,,,,,,,,,,,,,,,,,,,,,,,,,,,,
501087,001,2022-11-20_20h51.42.759,Info_measure_main_exp,2022.2.2,Win32,14.98127341,,,,,,,,,,,,,,,,,,masks/mask_004.jpg,,,,,,,,,,,,,,,,,,,,,,,,,,,,,,,,,,,,,,,,,,,0,2,2,3,1,,,,,,,,,,,,,,,,,,,,,,,,,,,,,,,,,,,,,,,,,,,,,,
501087,001,2022-11-20_20h51.42.759,Info_measure_main_exp,2022.2.2,Win32,14.98127341,,,,,,,,,,,,,,,,,,masks/mask_005.jpg,,,,,,,,,,,,,,,,,,,,,,,,,,,,,,,,,,,,,,,,,,,0,3,3,4,1,,,,,,,,,,,,,,,,,,,,,,,,,,,,,,,,,,,,,,,,,,,,,,
501087,001,2022-11-20_20h51.42.759,Info_measure_main_exp,2022.2.2,Win32,14.98127341,,,,,,,,,,,,,,,,,,masks/mask_001.jpg,,,,,,,,,,,,,,,,,,,,,,,,,,,,,,,,,,,,,,,,,,,0,4,4,0,1,,,,,,,,,,,,,,,,,,,,,,,,,,,,,,,,,,,,,,,,,,,,,,
501087,001,2022-11-20_20h51.42.759,Info_measure_main_exp,2022.2.2,Win32,14.98127341,,,,,,,,,,,,,,,,,,masks/mask_005.jpg,,,,,,,,,,,,,,,,,,,,,,,,,,,,,,,,,,,,,,,,,,,,,,,,0,0,0,4,1,,,,,,,,,,,,,,,,,,,,,,,,,,,,,,,,,,,,,,,,,
501087,001,2022-11-20_20h51.42.759,Info_measure_main_exp,2022.2.2,Win32,14.98127341,,,,,,,,,,,,,,,,,,masks/mask_004.jpg,,,,,,,,,,,,,,,,,,,,,,,,,,,,,,,,,,,,,,,,,,,,,,,,0,1,1,3,1,,,,,,,,,,,,,,,,,,,,,,,,,,,,,,,,,,,,,,,,,
501087,001,2022-11-20_20h51.42.759,Info_measure_main_exp,2022.2.2,Win32,14.98127341,,,,,,,,,,,,,,,,,,masks/mask_002.jpg,,,,,,,,,,,,,,,,,,,,,,,,,,,,,,,,,,,,,,,,,,,,,,,,0,2,2,1,1,,,,,,,,,,,,,,,,,,,,,,,,,,,,,,,,,,,,,,,,,
501087,001,2022-11-20_20h51.42.759,Info_measure_main_exp,2022.2.2,Win32,14.98127341,,,,,,,,,,,,,,,,,,masks/mask_003.jpg,,,,,,,,,,,,,,,,,,,,,,,,,,,,,,,,,,,,,,,,,,,,,,,,0,3,3,2,1,,,,,,,,,,,,,,,,,,,,,,,,,,,,,,,,,,,,,,,,,
501087,001,2022-11-20_20h51.42.759,Info_measure_main_exp,2022.2.2,Win32,14.98127341,,,,,,,,,,,,,,,,,,masks/mask_001.jpg,,,,,,,,,,,,,,,,,,,,,,,,,,,,,,,,,,,,,,,,,,,,,,,,0,4,4,0,1,,,,,,,,,,,,,,,,,,,,,,,,,,,,,,,,,,,,,,,,,
501087,001,2022-11-20_20h51.42.759,Info_measure_main_exp,2022.2.2,Win32,14.98127341,,,,,,,,,,,,,,,,,,,,,,,,,,,,,,7,3.2257,1,,,,,,,,,,,,0,131,5,5,2154,2250,absent_patch/patch0002154.jpg,absent_patch/patch0002250.jpg,,,,,,,,,,,,,,,,,,,,0.02962963,0.05,1,0,0,response1disk,3,0.006481481,-0.000925926,1,0,0,center_square,0,2,2,108,1,,,,,,,,,,,,,,,,,,,,,,,
501087,001,2022-11-20_20h51.42.759,Info_measure_main_exp,2022.2.2,Win32,14.98127341,,,,,,,,,,,,,,,,,,masks/mask_005.jpg,,,,,,,,,,,,,,,,,,,,,,,,,,,,,,,,,,,,,,,,,,,0,0,0,4,1,,,,,,,,,,,,,,,,,,,,,,,,,,,,,,,,,,,,,,,,,,,,,,
501087,001,2022-11-20_20h51.42.759,Info_measure_main_exp,2022.2.2,Win32,14.98127341,,,,,,,,,,,,,,,,,,masks/mask_003.jpg,,,,,,,,,,,,,,,,,,,,,,,,,,,,,,,,,,,,,,,,,,,0,1,1,2,1,,,,,,,,,,,,,,,,,,,,,,,,,,,,,,,,,,,,,,,,,,,,,,
501087,001,2022-11-20_20h51.42.759,Info_measure_main_exp,2022.2.2,Win32,14.98127341,,,,,,,,,,,,,,,,,,masks/mask_001.jpg,,,,,,,,,,,,,,,,,,,,,,,,,,,,,,,,,,,,,,,,,,,0,2,2,0,1,,,,,,,,,,,,,,,,,,,,,,,,,,,,,,,,,,,,,,,,,,,,,,
501087,001,2022-11-20_20h51.42.759,Info_measure_main_exp,2022.2.2,Win32,14.98127341,,,,,,,,,,,,,,,,,,masks/mask_004.jpg,,,,,,,,,,,,,,,,,,,,,,,,,,,,,,,,,,,,,,,,,,,0,3,3,3,1,,,,,,,,,,,,,,,,,,,,,,,,,,,,,,,,,,,,,,,,,,,,,,
501087,001,2022-11-20_20h51.42.759,Info_measure_main_exp,2022.2.2,Win32,14.98127341,,,,,,,,,,,,,,,,,,masks/mask_002.jpg,,,,,,,,,,,,,,,,,,,,,,,,,,,,,,,,,,,,,,,,,,,0,4,4,1,1,,,,,,,,,,,,,,,,,,,,,,,,,,,,,,,,,,,,,,,,,,,,,,
501087,001,2022-11-20_20h51.42.759,Info_measure_main_exp,2022.2.2,Win32,14.98127341,,,,,,,,,,,,,,,,,,masks/mask_005.jpg,,,,,,,,,,,,,,,,,,,,,,,,,,,,,,,,,,,,,,,,,,,,,,,,0,0,0,4,1,,,,,,,,,,,,,,,,,,,,,,,,,,,,,,,,,,,,,,,,,
501087,001,2022-11-20_20h51.42.759,Info_measure_main_exp,2022.2.2,Win32,14.98127341,,,,,,,,,,,,,,,,,,masks/mask_003.jpg,,,,,,,,,,,,,,,,,,,,,,,,,,,,,,,,,,,,,,,,,,,,,,,,0,1,1,2,1,,,,,,,,,,,,,,,,,,,,,,,,,,,,,,,,,,,,,,,,,
501087,001,2022-11-20_20h51.42.759,Info_measure_main_exp,2022.2.2,Win32,14.98127341,,,,,,,,,,,,,,,,,,masks/mask_004.jpg,,,,,,,,,,,,,,,,,,,,,,,,,,,,,,,,,,,,,,,,,,,,,,,,0,2,2,3,1,,,,,,,,,,,,,,,,,,,,,,,,,,,,,,,,,,,,,,,,,
501087,001,2022-11-20_20h51.42.759,Info_measure_main_exp,2022.2.2,Win32,14.98127341,,,,,,,,,,,,,,,,,,masks/mask_002.jpg,,,,,,,,,,,,,,,,,,,,,,,,,,,,,,,,,,,,,,,,,,,,,,,,0,3,3,1,1,,,,,,,,,,,,,,,,,,,,,,,,,,,,,,,,,,,,,,,,,
501087,001,2022-11-20_20h51.42.759,Info_measure_main_exp,2022.2.2,Win32,14.98127341,,,,,,,,,,,,,,,,,,masks/mask_001.jpg,,,,,,,,,,,,,,,,,,,,,,,,,,,,,,,,,,,,,,,,,,,,,,,,0,4,4,0,1,,,,,,,,,,,,,,,,,,,,,,,,,,,,,,,,,,,,,,,,,
501087,001,2022-11-20_20h51.42.759,Info_measure_main_exp,2022.2.2,Win32,14.98127341,,,,,,,,,,,,,,,,,,,,,,,,,,,,,,5,2.0626,1,,,,,,,,,,,,0,131,5,5,1974,2178,absent_patch/patch0001974.jpg,absent_patch/patch0002178.jpg,,,,,,,,,,,,,,,,,,,,0.041666667,-0.027777778,1,0,0,response3disk,4,-0.012962963,0.00462963,1,0,0,center_square,0,3,3,44,1,,,,,,,,,,,,,,,,,,,,,,,
501087,001,2022-11-20_20h51.42.759,Info_measure_main_exp,2022.2.2,Win32,14.98127341,,,,,,,,,,,,,,,,,,masks/mask_002.jpg,,,,,,,,,,,,,,,,,,,,,,,,,,,,,,,,,,,,,,,,,,,0,0,0,1,1,,,,,,,,,,,,,,,,,,,,,,,,,,,,,,,,,,,,,,,,,,,,,,
501087,001,2022-11-20_20h51.42.759,Info_measure_main_exp,2022.2.2,Win32,14.98127341,,,,,,,,,,,,,,,,,,masks/mask_005.jpg,,,,,,,,,,,,,,,,,,,,,,,,,,,,,,,,,,,,,,,,,,,0,1,1,4,1,,,,,,,,,,,,,,,,,,,,,,,,,,,,,,,,,,,,,,,,,,,,,,
501087,001,2022-11-20_20h51.42.759,Info_measure_main_exp,2022.2.2,Win32,14.98127341,,,,,,,,,,,,,,,,,,masks/mask_004.jpg,,,,,,,,,,,,,,,,,,,,,,,,,,,,,,,,,,,,,,,,,,,0,2,2,3,1,,,,,,,,,,,,,,,,,,,,,,,,,,,,,,,,,,,,,,,,,,,,,,
501087,001,2022-11-20_20h51.42.759,Info_measure_main_exp,2022.2.2,Win32,14.98127341,,,,,,,,,,,,,,,,,,masks/mask_003.jpg,,,,,,,,,,,,,,,,,,,,,,,,,,,,,,,,,,,,,,,,,,,0,3,3,2,1,,,,,,,,,,,,,,,,,,,,,,,,,,,,,,,,,,,,,,,,,,,,,,
501087,001,2022-11-20_20h51.42.759,Info_measure_main_exp,2022.2.2,Win32,14.98127341,,,,,,,,,,,,,,,,,,masks/mask_001.jpg,,,,,,,,,,,,,,,,,,,,,,,,,,,,,,,,,,,,,,,,,,,0,4,4,0,1,,,,,,,,,,,,,,,,,,,,,,,,,,,,,,,,,,,,,,,,,,,,,,
501087,001,2022-11-20_20h51.42.759,Info_measure_main_exp,2022.2.2,Win32,14.98127341,,,,,,,,,,,,,,,,,,masks/mask_005.jpg,,,,,,,,,,,,,,,,,,,,,,,,,,,,,,,,,,,,,,,,,,,,,,,,0,0,0,4,1,,,,,,,,,,,,,,,,,,,,,,,,,,,,,,,,,,,,,,,,,
501087,001,2022-11-20_20h51.42.759,Info_measure_main_exp,2022.2.2,Win32,14.98127341,,,,,,,,,,,,,,,,,,masks/mask_004.jpg,,,,,,,,,,,,,,,,,,,,,,,,,,,,,,,,,,,,,,,,,,,,,,,,0,1,1,3,1,,,,,,,,,,,,,,,,,,,,,,,,,,,,,,,,,,,,,,,,,
501087,001,2022-11-20_20h51.42.759,Info_measure_main_exp,2022.2.2,Win32,14.98127341,,,,,,,,,,,,,,,,,,masks/mask_003.jpg,,,,,,,,,,,,,,,,,,,,,,,,,,,,,,,,,,,,,,,,,,,,,,,,0,2,2,2,1,,,,,,,,,,,,,,,,,,,,,,,,,,,,,,,,,,,,,,,,,
501087,001,2022-11-20_20h51.42.759,Info_measure_main_exp,2022.2.2,Win32,14.98127341,,,,,,,,,,,,,,,,,,masks/mask_001.jpg,,,,,,,,,,,,,,,,,,,,,,,,,,,,,,,,,,,,,,,,,,,,,,,,0,3,3,0,1,,,,,,,,,,,,,,,,,,,,,,,,,,,,,,,,,,,,,,,,,
501087,001,2022-11-20_20h51.42.759,Info_measure_main_exp,2022.2.2,Win32,14.98127341,,,,,,,,,,,,,,,,,,masks/mask_002.jpg,,,,,,,,,,,,,,,,,,,,,,,,,,,,,,,,,,,,,,,,,,,,,,,,0,4,4,1,1,,,,,,,,,,,,,,,,,,,,,,,,,,,,,,,,,,,,,,,,,
501087,001,2022-11-20_20h51.42.759,Info_measure_main_exp,2022.2.2,Win32,14.98127341,,,,,,,,,,,,,,,,,,,,,,,,,,,,,,7,2.3232,1,,,,,,,,,,,,0,131,5,5,2190,2166,absent_patch/patch0002190.jpg,absent_patch/patch0002166.jpg,,,,,,,,,,,,,,,,,,,,0.04537037,0.105555556,1,0,0,response1disk,5,0.001851852,-0.003703704,1,0,0,center_square,0,4,4,50,1,,,,,,,,,,,,,,,,,,,,,,,
501087,001,2022-11-20_20h51.42.759,Info_measure_main_exp,2022.2.2,Win32,14.98127341,,,,,,,,,,,,,,,,,,masks/mask_005.jpg,,,,,,,,,,,,,,,,,,,,,,,,,,,,,,,,,,,,,,,,,,,0,0,0,4,1,,,,,,,,,,,,,,,,,,,,,,,,,,,,,,,,,,,,,,,,,,,,,,
501087,001,2022-11-20_20h51.42.759,Info_measure_main_exp,2022.2.2,Win32,14.98127341,,,,,,,,,,,,,,,,,,masks/mask_004.jpg,,,,,,,,,,,,,,,,,,,,,,,,,,,,,,,,,,,,,,,,,,,0,1,1,3,1,,,,,,,,,,,,,,,,,,,,,,,,,,,,,,,,,,,,,,,,,,,,,,
501087,001,2022-11-20_20h51.42.759,Info_measure_main_exp,2022.2.2,Win32,14.98127341,,,,,,,,,,,,,,,,,,masks/mask_003.jpg,,,,,,,,,,,,,,,,,,,,,,,,,,,,,,,,,,,,,,,,,,,0,2,2,2,1,,,,,,,,,,,,,,,,,,,,,,,,,,,,,,,,,,,,,,,,,,,,,,
501087,001,2022-11-20_20h51.42.759,Info_measure_main_exp,2022.2.2,Win32,14.98127341,,,,,,,,,,,,,,,,,,masks/mask_002.jpg,,,,,,,,,,,,,,,,,,,,,,,,,,,,,,,,,,,,,,,,,,,0,3,3,1,1,,,,,,,,,,,,,,,,,,,,,,,,,,,,,,,,,,,,,,,,,,,,,,
501087,001,2022-11-20_20h51.42.759,Info_measure_main_exp,2022.2.2,Win32,14.98127341,,,,,,,,,,,,,,,,,,masks/mask_001.jpg,,,,,,,,,,,,,,,,,,,,,,,,,,,,,,,,,,,,,,,,,,,0,4,4,0,1,,,,,,,,,,,,,,,,,,,,,,,,,,,,,,,,,,,,,,,,,,,,,,
501087,001,2022-11-20_20h51.42.759,Info_measure_main_exp,2022.2.2,Win32,14.98127341,,,,,,,,,,,,,,,,,,masks/mask_004.jpg,,,,,,,,,,,,,,,,,,,,,,,,,,,,,,,,,,,,,,,,,,,,,,,,0,0,0,3,1,,,,,,,,,,,,,,,,,,,,,,,,,,,,,,,,,,,,,,,,,
501087,001,2022-11-20_20h51.42.759,Info_measure_main_exp,2022.2.2,Win32,14.98127341,,,,,,,,,,,,,,,,,,masks/mask_003.jpg,,,,,,,,,,,,,,,,,,,,,,,,,,,,,,,,,,,,,,,,,,,,,,,,0,1,1,2,1,,,,,,,,,,,,,,,,,,,,,,,,,,,,,,,,,,,,,,,,,
501087,001,2022-11-20_20h51.42.759,Info_measure_main_exp,2022.2.2,Win32,14.98127341,,,,,,,,,,,,,,,,,,masks/mask_002.jpg,,,,,,,,,,,,,,,,,,,,,,,,,,,,,,,,,,,,,,,,,,,,,,,,0,2,2,1,1,,,,,,,,,,,,,,,,,,,,,,,,,,,,,,,,,,,,,,,,,
501087,001,2022-11-20_20h51.42.759,Info_measure_main_exp,2022.2.2,Win32,14.98127341,,,,,,,,,,,,,,,,,,masks/mask_005.jpg,,,,,,,,,,,,,,,,,,,,,,,,,,,,,,,,,,,,,,,,,,,,,,,,0,3,3,4,1,,,,,,,,,,,,,,,,,,,,,,,,,,,,,,,,,,,,,,,,,
501087,001,2022-11-20_20h51.42.759,Info_measure_main_exp,2022.2.2,Win32,14.98127341,,,,,,,,,,,,,,,,,,masks/mask_001.jpg,,,,,,,,,,,,,,,,,,,,,,,,,,,,,,,,,,,,,,,,,,,,,,,,0,4,4,0,1,,,,,,,,,,,,,,,,,,,,,,,,,,,,,,,,,,,,,,,,,
501087,001,2022-11-20_20h51.42.759,Info_measure_main_exp,2022.2.2,Win32,14.98127341,,,,,,,,,,,,,,,,,,,,,,,,,,,,,,7,2.2964,1,,,,,,,,,,,,1,131,5,5,1950,1,absent_patch/patch0001950.jpg,present_patch/cong_131_5_a.jpg,,,,,,,,,,,,,,,,,,,,0.028703704,0.083333333,1,0,0,response1disk,6,0.005555556,0.003703704,1,0,0,center_square,0,5,5,39,1,,,,,,,,,,,,,,,,,,,,,,,
501087,001,2022-11-20_20h51.42.759,Info_measure_main_exp,2022.2.2,Win32,14.98127341,,,,,,,,,,,,,,,,,,masks/mask_004.jpg,,,,,,,,,,,,,,,,,,,,,,,,,,,,,,,,,,,,,,,,,,,0,0,0,3,1,,,,,,,,,,,,,,,,,,,,,,,,,,,,,,,,,,,,,,,,,,,,,,
501087,001,2022-11-20_20h51.42.759,Info_measure_main_exp,2022.2.2,Win32,14.98127341,,,,,,,,,,,,,,,,,,masks/mask_003.jpg,,,,,,,,,,,,,,,,,,,,,,,,,,,,,,,,,,,,,,,,,,,0,1,1,2,1,,,,,,,,,,,,,,,,,,,,,,,,,,,,,,,,,,,,,,,,,,,,,,
501087,001,2022-11-20_20h51.42.759,Info_measure_main_exp,2022.2.2,Win32,14.98127341,,,,,,,,,,,,,,,,,,masks/mask_001.jpg,,,,,,,,,,,,,,,,,,,,,,,,,,,,,,,,,,,,,,,,,,,0,2,2,0,1,,,,,,,,,,,,,,,,,,,,,,,,,,,,,,,,,,,,,,,,,,,,,,
501087,001,2022-11-20_20h51.42.759,Info_measure_main_exp,2022.2.2,Win32,14.98127341,,,,,,,,,,,,,,,,,,masks/mask_005.jpg,,,,,,,,,,,,,,,,,,,,,,,,,,,,,,,,,,,,,,,,,,,0,3,3,4,1,,,,,,,,,,,,,,,,,,,,,,,,,,,,,,,,,,,,,,,,,,,,,,
501087,001,2022-11-20_20h51.42.759,Info_measure_main_exp,2022.2.2,Win32,14.98127341,,,,,,,,,,,,,,,,,,masks/mask_002.jpg,,,,,,,,,,,,,,,,,,,,,,,,,,,,,,,,,,,,,,,,,,,0,4,4,1,1,,,,,,,,,,,,,,,,,,,,,,,,,,,,,,,,,,,,,,,,,,,,,,
501087,001,2022-11-20_20h51.42.759,Info_measure_main_exp,2022.2.2,Win32,14.98127341,,,,,,,,,,,,,,,,,,masks/mask_003.jpg,,,,,,,,,,,,,,,,,,,,,,,,,,,,,,,,,,,,,,,,,,,,,,,,0,0,0,2,1,,,,,,,,,,,,,,,,,,,,,,,,,,,,,,,,,,,,,,,,,
501087,001,2022-11-20_20h51.42.759,Info_measure_main_exp,2022.2.2,Win32,14.98127341,,,,,,,,,,,,,,,,,,masks/mask_004.jpg,,,,,,,,,,,,,,,,,,,,,,,,,,,,,,,,,,,,,,,,,,,,,,,,0,1,1,3,1,,,,,,,,,,,,,,,,,,,,,,,,,,,,,,,,,,,,,,,,,
501087,001,2022-11-20_20h51.42.759,Info_measure_main_exp,2022.2.2,Win32,14.98127341,,,,,,,,,,,,,,,,,,masks/mask_002.jpg,,,,,,,,,,,,,,,,,,,,,,,,,,,,,,,,,,,,,,,,,,,,,,,,0,2,2,1,1,,,,,,,,,,,,,,,,,,,,,,,,,,,,,,,,,,,,,,,,,
501087,001,2022-11-20_20h51.42.759,Info_measure_main_exp,2022.2.2,Win32,14.98127341,,,,,,,,,,,,,,,,,,masks/mask_001.jpg,,,,,,,,,,,,,,,,,,,,,,,,,,,,,,,,,,,,,,,,,,,,,,,,0,3,3,0,1,,,,,,,,,,,,,,,,,,,,,,,,,,,,,,,,,,,,,,,,,
501087,001,2022-11-20_20h51.42.759,Info_measure_main_exp,2022.2.2,Win32,14.98127341,,,,,,,,,,,,,,,,,,masks/mask_005.jpg,,,,,,,,,,,,,,,,,,,,,,,,,,,,,,,,,,,,,,,,,,,,,,,,0,4,4,4,1,,,,,,,,,,,,,,,,,,,,,,,,,,,,,,,,,,,,,,,,,
501087,001,2022-11-20_20h51.42.759,Info_measure_main_exp,2022.2.2,Win32,14.98127341,,,,,,,,,,,,,,,,,,,,,,,,,,,,,,6,4.1335,1,,,,,,,,,,,,0,131,5,5,2250,1950,absent_patch/patch0002250.jpg,absent_patch/patch0001950.jpg,,,,,,,,,,,,,,,,,,,,0.094444444,0.048148148,1,0,0,response1disk,7,-0.000925926,0.00462963,1,0,0,center_square,0,6,6,16,1,,,,,,,,,,,,,,,,,,,,,,,
501087,001,2022-11-20_20h51.42.759,Info_measure_main_exp,2022.2.2,Win32,14.98127341,,,,,,,,,,,,,,,,,,masks/mask_003.jpg,,,,,,,,,,,,,,,,,,,,,,,,,,,,,,,,,,,,,,,,,,,0,0,0,2,1,,,,,,,,,,,,,,,,,,,,,,,,,,,,,,,,,,,,,,,,,,,,,,
501087,001,2022-11-20_20h51.42.759,Info_measure_main_exp,2022.2.2,Win32,14.98127341,,,,,,,,,,,,,,,,,,masks/mask_004.jpg,,,,,,,,,,,,,,,,,,,,,,,,,,,,,,,,,,,,,,,,,,,0,1,1,3,1,,,,,,,,,,,,,,,,,,,,,,,,,,,,,,,,,,,,,,,,,,,,,,
501087,001,2022-11-20_20h51.42.759,Info_measure_main_exp,2022.2.2,Win32,14.98127341,,,,,,,,,,,,,,,,,,masks/mask_005.jpg,,,,,,,,,,,,,,,,,,,,,,,,,,,,,,,,,,,,,,,,,,,0,2,2,4,1,,,,,,,,,,,,,,,,,,,,,,,,,,,,,,,,,,,,,,,,,,,,,,
501087,001,2022-11-20_20h51.42.759,Info_measure_main_exp,2022.2.2,Win32,14.98127341,,,,,,,,,,,,,,,,,,masks/mask_001.jpg,,,,,,,,,,,,,,,,,,,,,,,,,,,,,,,,,,,,,,,,,,,0,3,3,0,1,,,,,,,,,,,,,,,,,,,,,,,,,,,,,,,,,,,,,,,,,,,,,,
501087,001,2022-11-20_20h51.42.759,Info_measure_main_exp,2022.2.2,Win32,14.98127341,,,,,,,,,,,,,,,,,,masks/mask_002.jpg,,,,,,,,,,,,,,,,,,,,,,,,,,,,,,,,,,,,,,,,,,,0,4,4,1,1,,,,,,,,,,,,,,,,,,,,,,,,,,,,,,,,,,,,,,,,,,,,,,
501087,001,2022-11-20_20h51.42.759,Info_measure_main_exp,2022.2.2,Win32,14.98127341,,,,,,,,,,,,,,,,,,masks/mask_005.jpg,,,,,,,,,,,,,,,,,,,,,,,,,,,,,,,,,,,,,,,,,,,,,,,,0,0,0,4,1,,,,,,,,,,,,,,,,,,,,,,,,,,,,,,,,,,,,,,,,,
501087,001,2022-11-20_20h51.42.759,Info_measure_main_exp,2022.2.2,Win32,14.98127341,,,,,,,,,,,,,,,,,,masks/mask_004.jpg,,,,,,,,,,,,,,,,,,,,,,,,,,,,,,,,,,,,,,,,,,,,,,,,0,1,1,3,1,,,,,,,,,,,,,,,,,,,,,,,,,,,,,,,,,,,,,,,,,
501087,001,2022-11-20_20h51.42.759,Info_measure_main_exp,2022.2.2,Win32,14.98127341,,,,,,,,,,,,,,,,,,masks/mask_002.jpg,,,,,,,,,,,,,,,,,,,,,,,,,,,,,,,,,,,,,,,,,,,,,,,,0,2,2,1,1,,,,,,,,,,,,,,,,,,,,,,,,,,,,,,,,,,,,,,,,,
501087,001,2022-11-20_20h51.42.759,Info_measure_main_exp,2022.2.2,Win32,14.98127341,,,,,,,,,,,,,,,,,,masks/mask_003.jpg,,,,,,,,,,,,,,,,,,,,,,,,,,,,,,,,,,,,,,,,,,,,,,,,0,3,3,2,1,,,,,,,,,,,,,,,,,,,,,,,,,,,,,,,,,,,,,,,,,
501087,001,2022-11-20_20h51.42.759,Info_measure_main_exp,2022.2.2,Win32,14.98127341,,,,,,,,,,,,,,,,,,masks/mask_001.jpg,,,,,,,,,,,,,,,,,,,,,,,,,,,,,,,,,,,,,,,,,,,,,,,,0,4,4,0,1,,,,,,,,,,,,,,,,,,,,,,,,,,,,,,,,,,,,,,,,,
501087,001,2022-11-20_20h51.42.759,Info_measure_main_exp,2022.2.2,Win32,14.98127341,,,,,,,,,,,,,,,,,,,,,,,,,,,,,,0,1.1604,1,,,,,,,,,,,,0,131,5,5,2178,2178,absent_patch/patch0002178.jpg,absent_patch/patch0002178.jpg,,,,,,,,,,,,,,,,,,,,-0.046296296,0.149074074,1,0,0,response7disk,8,0.002777778,-0.001851852,1,0,0,center_square,0,7,7,98,1,,,,,,,,,,,,,,,,,,,,,,,
501087,001,2022-11-20_20h51.42.759,Info_measure_main_exp,2022.2.2,Win32,14.98127341,,,,,,,,,,,,,,,,,,masks/mask_003.jpg,,,,,,,,,,,,,,,,,,,,,,,,,,,,,,,,,,,,,,,,,,,0,0,0,2,1,,,,,,,,,,,,,,,,,,,,,,,,,,,,,,,,,,,,,,,,,,,,,,
501087,001,2022-11-20_20h51.42.759,Info_measure_main_exp,2022.2.2,Win32,14.98127341,,,,,,,,,,,,,,,,,,masks/mask_005.jpg,,,,,,,,,,,,,,,,,,,,,,,,,,,,,,,,,,,,,,,,,,,0,1,1,4,1,,,,,,,,,,,,,,,,,,,,,,,,,,,,,,,,,,,,,,,,,,,,,,
501087,001,2022-11-20_20h51.42.759,Info_measure_main_exp,2022.2.2,Win32,14.98127341,,,,,,,,,,,,,,,,,,masks/mask_002.jpg,,,,,,,,,,,,,,,,,,,,,,,,,,,,,,,,,,,,,,,,,,,0,2,2,1,1,,,,,,,,,,,,,,,,,,,,,,,,,,,,,,,,,,,,,,,,,,,,,,
501087,001,2022-11-20_20h51.42.759,Info_measure_main_exp,2022.2.2,Win32,14.98127341,,,,,,,,,,,,,,,,,,masks/mask_001.jpg,,,,,,,,,,,,,,,,,,,,,,,,,,,,,,,,,,,,,,,,,,,0,3,3,0,1,,,,,,,,,,,,,,,,,,,,,,,,,,,,,,,,,,,,,,,,,,,,,,
501087,001,2022-11-20_20h51.42.759,Info_measure_main_exp,2022.2.2,Win32,14.98127341,,,,,,,,,,,,,,,,,,masks/mask_004.jpg,,,,,,,,,,,,,,,,,,,,,,,,,,,,,,,,,,,,,,,,,,,0,4,4,3,1,,,,,,,,,,,,,,,,,,,,,,,,,,,,,,,,,,,,,,,,,,,,,,
501087,001,2022-11-20_20h51.42.759,Info_measure_main_exp,2022.2.2,Win32,14.98127341,,,,,,,,,,,,,,,,,,masks/mask_002.jpg,,,,,,,,,,,,,,,,,,,,,,,,,,,,,,,,,,,,,,,,,,,,,,,,0,0,0,1,1,,,,,,,,,,,,,,,,,,,,,,,,,,,,,,,,,,,,,,,,,
501087,001,2022-11-20_20h51.42.759,Info_measure_main_exp,2022.2.2,Win32,14.98127341,,,,,,,,,,,,,,,,,,masks/mask_003.jpg,,,,,,,,,,,,,,,,,,,,,,,,,,,,,,,,,,,,,,,,,,,,,,,,0,1,1,2,1,,,,,,,,,,,,,,,,,,,,,,,,,,,,,,,,,,,,,,,,,
501087,001,2022-11-20_20h51.42.759,Info_measure_main_exp,2022.2.2,Win32,14.98127341,,,,,,,,,,,,,,,,,,masks/mask_004.jpg,,,,,,,,,,,,,,,,,,,,,,,,,,,,,,,,,,,,,,,,,,,,,,,,0,2,2,3,1,,,,,,,,,,,,,,,,,,,,,,,,,,,,,,,,,,,,,,,,,
501087,001,2022-11-20_20h51.42.759,Info_measure_main_exp,2022.2.2,Win32,14.98127341,,,,,,,,,,,,,,,,,,masks/mask_005.jpg,,,,,,,,,,,,,,,,,,,,,,,,,,,,,,,,,,,,,,,,,,,,,,,,0,3,3,4,1,,,,,,,,,,,,,,,,,,,,,,,,,,,,,,,,,,,,,,,,,
501087,001,2022-11-20_20h51.42.759,Info_measure_main_exp,2022.2.2,Win32,14.98127341,,,,,,,,,,,,,,,,,,masks/mask_001.jpg,,,,,,,,,,,,,,,,,,,,,,,,,,,,,,,,,,,,,,,,,,,,,,,,0,4,4,0,1,,,,,,,,,,,,,,,,,,,,,,,,,,,,,,,,,,,,,,,,,
501087,001,2022-11-20_20h51.42.759,Info_measure_main_exp,2022.2.2,Win32,14.98127341,,,,,,,,,,,,,,,,,,,,,,,,,,,,,,2,4.1716,1,,,,,,,,,,,,1,131,5,5,1,2154,present_patch/cong_131_5_a.jpg,absent_patch/patch0002154.jpg,,,,,,,,,,,,,,,,,,,,-0.148148148,-0.04537037,1,0,0,response5disk,9,0.000925926,0.001851852,1,0,0,center_square,0,8,8,87,1,,,,,,,,,,,,,,,,,,,,,,,
501087,001,2022-11-20_20h51.42.759,Info_measure_main_exp,2022.2.2,Win32,14.98127341,,,,,,,,,,,,,,,,,,masks/mask_003.jpg,,,,,,,,,,,,,,,,,,,,,,,,,,,,,,,,,,,,,,,,,,,0,0,0,2,1,,,,,,,,,,,,,,,,,,,,,,,,,,,,,,,,,,,,,,,,,,,,,,
501087,001,2022-11-20_20h51.42.759,Info_measure_main_exp,2022.2.2,Win32,14.98127341,,,,,,,,,,,,,,,,,,masks/mask_001.jpg,,,,,,,,,,,,,,,,,,,,,,,,,,,,,,,,,,,,,,,,,,,0,1,1,0,1,,,,,,,,,,,,,,,,,,,,,,,,,,,,,,,,,,,,,,,,,,,,,,
501087,001,2022-11-20_20h51.42.759,Info_measure_main_exp,2022.2.2,Win32,14.98127341,,,,,,,,,,,,,,,,,,masks/mask_005.jpg,,,,,,,,,,,,,,,,,,,,,,,,,,,,,,,,,,,,,,,,,,,0,2,2,4,1,,,,,,,,,,,,,,,,,,,,,,,,,,,,,,,,,,,,,,,,,,,,,,
501087,001,2022-11-20_20h51.42.759,Info_measure_main_exp,2022.2.2,Win32,14.98127341,,,,,,,,,,,,,,,,,,masks/mask_004.jpg,,,,,,,,,,,,,,,,,,,,,,,,,,,,,,,,,,,,,,,,,,,0,3,3,3,1,,,,,,,,,,,,,,,,,,,,,,,,,,,,,,,,,,,,,,,,,,,,,,
501087,001,2022-11-20_20h51.42.759,Info_measure_main_exp,2022.2.2,Win32,14.98127341,,,,,,,,,,,,,,,,,,masks/mask_002.jpg,,,,,,,,,,,,,,,,,,,,,,,,,,,,,,,,,,,,,,,,,,,0,4,4,1,1,,,,,,,,,,,,,,,,,,,,,,,,,,,,,,,,,,,,,,,,,,,,,,
501087,001,2022-11-20_20h51.42.759,Info_measure_main_exp,2022.2.2,Win32,14.98127341,,,,,,,,,,,,,,,,,,masks/mask_003.jpg,,,,,,,,,,,,,,,,,,,,,,,,,,,,,,,,,,,,,,,,,,,,,,,,0,0,0,2,1,,,,,,,,,,,,,,,,,,,,,,,,,,,,,,,,,,,,,,,,,
501087,001,2022-11-20_20h51.42.759,Info_measure_main_exp,2022.2.2,Win32,14.98127341,,,,,,,,,,,,,,,,,,masks/mask_002.jpg,,,,,,,,,,,,,,,,,,,,,,,,,,,,,,,,,,,,,,,,,,,,,,,,0,1,1,1,1,,,,,,,,,,,,,,,,,,,,,,,,,,,,,,,,,,,,,,,,,
501087,001,2022-11-20_20h51.42.759,Info_measure_main_exp,2022.2.2,Win32,14.98127341,,,,,,,,,,,,,,,,,,masks/mask_004.jpg,,,,,,,,,,,,,,,,,,,,,,,,,,,,,,,,,,,,,,,,,,,,,,,,0,2,2,3,1,,,,,,,,,,,,,,,,,,,,,,,,,,,,,,,,,,,,,,,,,
501087,001,2022-11-20_20h51.42.759,Info_measure_main_exp,2022.2.2,Win32,14.98127341,,,,,,,,,,,,,,,,,,masks/mask_005.jpg,,,,,,,,,,,,,,,,,,,,,,,,,,,,,,,,,,,,,,,,,,,,,,,,0,3,3,4,1,,,,,,,,,,,,,,,,,,,,,,,,,,,,,,,,,,,,,,,,,
501087,001,2022-11-20_20h51.42.759,Info_measure_main_exp,2022.2.2,Win32,14.98127341,,,,,,,,,,,,,,,,,,masks/mask_001.jpg,,,,,,,,,,,,,,,,,,,,,,,,,,,,,,,,,,,,,,,,,,,,,,,,0,4,4,0,1,,,,,,,,,,,,,,,,,,,,,,,,,,,,,,,,,,,,,,,,,
501087,001,2022-11-20_20h51.42.759,Info_measure_main_exp,2022.2.2,Win32,14.98127341,,,,,,,,,,,,,,,,,,,,,,,,,,,,,,7,2.2514,1,,,,,,,,,,,,0,131,5,5,2250,2214,absent_patch/patch0002250.jpg,absent_patch/patch0002214.jpg,,,,,,,,,,,,,,,,,,,,0.028703704,0.113888889,1,0,0,response1disk,10,0.005555556,-0.00462963,1,0,0,center_square,0,9,9,97,1,,,,,,,,,,,,,,,,,,,,,,,
501087,001,2022-11-20_20h51.42.759,Info_measure_main_exp,2022.2.2,Win32,14.98127341,,,,,,,,,,,,,,,,,,masks/mask_004.jpg,,,,,,,,,,,,,,,,,,,,,,,,,,,,,,,,,,,,,,,,,,,0,0,0,3,1,,,,,,,,,,,,,,,,,,,,,,,,,,,,,,,,,,,,,,,,,,,,,,
501087,001,2022-11-20_20h51.42.759,Info_measure_main_exp,2022.2.2,Win32,14.98127341,,,,,,,,,,,,,,,,,,masks/mask_005.jpg,,,,,,,,,,,,,,,,,,,,,,,,,,,,,,,,,,,,,,,,,,,0,1,1,4,1,,,,,,,,,,,,,,,,,,,,,,,,,,,,,,,,,,,,,,,,,,,,,,
501087,001,2022-11-20_20h51.42.759,Info_measure_main_exp,2022.2.2,Win32,14.98127341,,,,,,,,,,,,,,,,,,masks/mask_003.jpg,,,,,,,,,,,,,,,,,,,,,,,,,,,,,,,,,,,,,,,,,,,0,2,2,2,1,,,,,,,,,,,,,,,,,,,,,,,,,,,,,,,,,,,,,,,,,,,,,,
501087,001,2022-11-20_20h51.42.759,Info_measure_main_exp,2022.2.2,Win32,14.98127341,,,,,,,,,,,,,,,,,,masks/mask_001.jpg,,,,,,,,,,,,,,,,,,,,,,,,,,,,,,,,,,,,,,,,,,,0,3,3,0,1,,,,,,,,,,,,,,,,,,,,,,,,,,,,,,,,,,,,,,,,,,,,,,
501087,001,2022-11-20_20h51.42.759,Info_measure_main_exp,2022.2.2,Win32,14.98127341,,,,,,,,,,,,,,,,,,masks/mask_002.jpg,,,,,,,,,,,,,,,,,,,,,,,,,,,,,,,,,,,,,,,,,,,0,4,4,1,1,,,,,,,,,,,,,,,,,,,,,,,,,,,,,,,,,,,,,,,,,,,,,,
501087,001,2022-11-20_20h51.42.759,Info_measure_main_exp,2022.2.2,Win32,14.98127341,,,,,,,,,,,,,,,,,,masks/mask_004.jpg,,,,,,,,,,,,,,,,,,,,,,,,,,,,,,,,,,,,,,,,,,,,,,,,0,0,0,3,1,,,,,,,,,,,,,,,,,,,,,,,,,,,,,,,,,,,,,,,,,
501087,001,2022-11-20_20h51.42.759,Info_measure_main_exp,2022.2.2,Win32,14.98127341,,,,,,,,,,,,,,,,,,masks/mask_003.jpg,,,,,,,,,,,,,,,,,,,,,,,,,,,,,,,,,,,,,,,,,,,,,,,,0,1,1,2,1,,,,,,,,,,,,,,,,,,,,,,,,,,,,,,,,,,,,,,,,,
501087,001,2022-11-20_20h51.42.759,Info_measure_main_exp,2022.2.2,Win32,14.98127341,,,,,,,,,,,,,,,,,,masks/mask_005.jpg,,,,,,,,,,,,,,,,,,,,,,,,,,,,,,,,,,,,,,,,,,,,,,,,0,2,2,4,1,,,,,,,,,,,,,,,,,,,,,,,,,,,,,,,,,,,,,,,,,
501087,001,2022-11-20_20h51.42.759,Info_measure_main_exp,2022.2.2,Win32,14.98127341,,,,,,,,,,,,,,,,,,masks/mask_002.jpg,,,,,,,,,,,,,,,,,,,,,,,,,,,,,,,,,,,,,,,,,,,,,,,,0,3,3,1,1,,,,,,,,,,,,,,,,,,,,,,,,,,,,,,,,,,,,,,,,,
501087,001,2022-11-20_20h51.42.759,Info_measure_main_exp,2022.2.2,Win32,14.98127341,,,,,,,,,,,,,,,,,,masks/mask_001.jpg,,,,,,,,,,,,,,,,,,,,,,,,,,,,,,,,,,,,,,,,,,,,,,,,0,4,4,0,1,,,,,,,,,,,,,,,,,,,,,,,,,,,,,,,,,,,,,,,,,
501087,001,2022-11-20_20h51.42.759,Info_measure_main_exp,2022.2.2,Win32,14.98127341,,,,,,,,,,,,,,,,,,,,,,,,,,,,,,1,2.0034,1,,,,,,,,,,,,0,131,5,5,1974,1974,absent_patch/patch0001974.jpg,absent_patch/patch0001974.jpg,,,,,,,,,,,,,,,,,,,,-0.147222222,0.087037037,1,0,0,response7disk,11,-0.005555556,0.00462963,1,0,0,center_square,0,10,10,113,1,,,,,,,,,,,,,,,,,,,,,,,
501087,001,2022-11-20_20h51.42.759,Info_measure_main_exp,2022.2.2,Win32,14.98127341,,,,,,,,,,,,,,,,,,masks/mask_002.jpg,,,,,,,,,,,,,,,,,,,,,,,,,,,,,,,,,,,,,,,,,,,0,0,0,1,1,,,,,,,,,,,,,,,,,,,,,,,,,,,,,,,,,,,,,,,,,,,,,,
501087,001,2022-11-20_20h51.42.759,Info_measure_main_exp,2022.2.2,Win32,14.98127341,,,,,,,,,,,,,,,,,,masks/mask_005.jpg,,,,,,,,,,,,,,,,,,,,,,,,,,,,,,,,,,,,,,,,,,,0,1,1,4,1,,,,,,,,,,,,,,,,,,,,,,,,,,,,,,,,,,,,,,,,,,,,,,
501087,001,2022-11-20_20h51.42.759,Info_measure_main_exp,2022.2.2,Win32,14.98127341,,,,,,,,,,,,,,,,,,masks/mask_003.jpg,,,,,,,,,,,,,,,,,,,,,,,,,,,,,,,,,,,,,,,,,,,0,2,2,2,1,,,,,,,,,,,,,,,,,,,,,,,,,,,,,,,,,,,,,,,,,,,,,,
501087,001,2022-11-20_20h51.42.759,Info_measure_main_exp,2022.2.2,Win32,14.98127341,,,,,,,,,,,,,,,,,,masks/mask_004.jpg,,,,,,,,,,,,,,,,,,,,,,,,,,,,,,,,,,,,,,,,,,,0,3,3,3,1,,,,,,,,,,,,,,,,,,,,,,,,,,,,,,,,,,,,,,,,,,,,,,
501087,001,2022-11-20_20h51.42.759,Info_measure_main_exp,2022.2.2,Win32,14.98127341,,,,,,,,,,,,,,,,,,masks/mask_001.jpg,,,,,,,,,,,,,,,,,,,,,,,,,,,,,,,,,,,,,,,,,,,0,4,4,0,1,,,,,,,,,,,,,,,,,,,,,,,,,,,,,,,,,,,,,,,,,,,,,,
501087,001,2022-11-20_20h51.42.759,Info_measure_main_exp,2022.2.2,Win32,14.98127341,,,,,,,,,,,,,,,,,,masks/mask_005.jpg,,,,,,,,,,,,,,,,,,,,,,,,,,,,,,,,,,,,,,,,,,,,,,,,0,0,0,4,1,,,,,,,,,,,,,,,,,,,,,,,,,,,,,,,,,,,,,,,,,
501087,001,2022-11-20_20h51.42.759,Info_measure_main_exp,2022.2.2,Win32,14.98127341,,,,,,,,,,,,,,,,,,masks/mask_004.jpg,,,,,,,,,,,,,,,,,,,,,,,,,,,,,,,,,,,,,,,,,,,,,,,,0,1,1,3,1,,,,,,,,,,,,,,,,,,,,,,,,,,,,,,,,,,,,,,,,,
501087,001,2022-11-20_20h51.42.759,Info_measure_main_exp,2022.2.2,Win32,14.98127341,,,,,,,,,,,,,,,,,,masks/mask_003.jpg,,,,,,,,,,,,,,,,,,,,,,,,,,,,,,,,,,,,,,,,,,,,,,,,0,2,2,2,1,,,,,,,,,,,,,,,,,,,,,,,,,,,,,,,,,,,,,,,,,
501087,001,2022-11-20_20h51.42.759,Info_measure_main_exp,2022.2.2,Win32,14.98127341,,,,,,,,,,,,,,,,,,masks/mask_002.jpg,,,,,,,,,,,,,,,,,,,,,,,,,,,,,,,,,,,,,,,,,,,,,,,,0,3,3,1,1,,,,,,,,,,,,,,,,,,,,,,,,,,,,,,,,,,,,,,,,,
501087,001,2022-11-20_20h51.42.759,Info_measure_main_exp,2022.2.2,Win32,14.98127341,,,,,,,,,,,,,,,,,,masks/mask_001.jpg,,,,,,,,,,,,,,,,,,,,,,,,,,,,,,,,,,,,,,,,,,,,,,,,0,4,4,0,1,,,,,,,,,,,,,,,,,,,,,,,,,,,,,,,,,,,,,,,,,
501087,001,2022-11-20_20h51.42.759,Info_measure_main_exp,2022.2.2,Win32,14.98127341,,,,,,,,,,,,,,,,,,,,,,,,,,,,,,0,1.691,1,,,,,,,,,,,,0,131,5,5,1950,1950,absent_patch/patch0001950.jpg,absent_patch/patch0001950.jpg,,,,,,,,,,,,,,,,,,,,-0.060185185,0.171296296,1,0,0,response7disk,12,-0.000925926,-0.001851852,1,0,0,center_square,0,11,11,92,1,,,,,,,,,,,,,,,,,,,,,,,
501087,001,2022-11-20_20h51.42.759,Info_measure_main_exp,2022.2.2,Win32,14.98127341,,,,,,,,,,,,,,,,,,masks/mask_003.jpg,,,,,,,,,,,,,,,,,,,,,,,,,,,,,,,,,,,,,,,,,,,0,0,0,2,1,,,,,,,,,,,,,,,,,,,,,,,,,,,,,,,,,,,,,,,,,,,,,,
501087,001,2022-11-20_20h51.42.759,Info_measure_main_exp,2022.2.2,Win32,14.98127341,,,,,,,,,,,,,,,,,,masks/mask_001.jpg,,,,,,,,,,,,,,,,,,,,,,,,,,,,,,,,,,,,,,,,,,,0,1,1,0,1,,,,,,,,,,,,,,,,,,,,,,,,,,,,,,,,,,,,,,,,,,,,,,
501087,001,2022-11-20_20h51.42.759,Info_measure_main_exp,2022.2.2,Win32,14.98127341,,,,,,,,,,,,,,,,,,masks/mask_005.jpg,,,,,,,,,,,,,,,,,,,,,,,,,,,,,,,,,,,,,,,,,,,0,2,2,4,1,,,,,,,,,,,,,,,,,,,,,,,,,,,,,,,,,,,,,,,,,,,,,,
501087,001,2022-11-20_20h51.42.759,Info_measure_main_exp,2022.2.2,Win32,14.98127341,,,,,,,,,,,,,,,,,,masks/mask_004.jpg,,,,,,,,,,,,,,,,,,,,,,,,,,,,,,,,,,,,,,,,,,,0,3,3,3,1,,,,,,,,,,,,,,,,,,,,,,,,,,,,,,,,,,,,,,,,,,,,,,
501087,001,2022-11-20_20h51.42.759,Info_measure_main_exp,2022.2.2,Win32,14.98127341,,,,,,,,,,,,,,,,,,masks/mask_002.jpg,,,,,,,,,,,,,,,,,,,,,,,,,,,,,,,,,,,,,,,,,,,0,4,4,1,1,,,,,,,,,,,,,,,,,,,,,,,,,,,,,,,,,,,,,,,,,,,,,,
501087,001,2022-11-20_20h51.42.759,Info_measure_main_exp,2022.2.2,Win32,14.98127341,,,,,,,,,,,,,,,,,,masks/mask_005.jpg,,,,,,,,,,,,,,,,,,,,,,,,,,,,,,,,,,,,,,,,,,,,,,,,0,0,0,4,1,,,,,,,,,,,,,,,,,,,,,,,,,,,,,,,,,,,,,,,,,
501087,001,2022-11-20_20h51.42.759,Info_measure_main_exp,2022.2.2,Win32,14.98127341,,,,,,,,,,,,,,,,,,masks/mask_001.jpg,,,,,,,,,,,,,,,,,,,,,,,,,,,,,,,,,,,,,,,,,,,,,,,,0,1,1,0,1,,,,,,,,,,,,,,,,,,,,,,,,,,,,,,,,,,,,,,,,,
501087,001,2022-11-20_20h51.42.759,Info_measure_main_exp,2022.2.2,Win32,14.98127341,,,,,,,,,,,,,,,,,,masks/mask_004.jpg,,,,,,,,,,,,,,,,,,,,,,,,,,,,,,,,,,,,,,,,,,,,,,,,0,2,2,3,1,,,,,,,,,,,,,,,,,,,,,,,,,,,,,,,,,,,,,,,,,
501087,001,2022-11-20_20h51.42.759,Info_measure_main_exp,2022.2.2,Win32,14.98127341,,,,,,,,,,,,,,,,,,masks/mask_002.jpg,,,,,,,,,,,,,,,,,,,,,,,,,,,,,,,,,,,,,,,,,,,,,,,,0,3,3,1,1,,,,,,,,,,,,,,,,,,,,,,,,,,,,,,,,,,,,,,,,,
501087,001,2022-11-20_20h51.42.759,Info_measure_main_exp,2022.2.2,Win32,14.98127341,,,,,,,,,,,,,,,,,,masks/mask_003.jpg,,,,,,,,,,,,,,,,,,,,,,,,,,,,,,,,,,,,,,,,,,,,,,,,0,4,4,2,1,,,,,,,,,,,,,,,,,,,,,,,,,,,,,,,,,,,,,,,,,
501087,001,2022-11-20_20h51.42.759,Info_measure_main_exp,2022.2.2,Win32,14.98127341,,,,,,,,,,,,,,,,,,,,,,,,,,,,,,1,2.1493,1,,,,,,,,,,,,0,131,5,5,2082,2082,absent_patch/patch0002082.jpg,absent_patch/patch0002082.jpg,,,,,,,,,,,,,,,,,,,,-0.113888889,0.052777778,1,0,0,response7disk,13,-0.005555556,0.00462963,1,0,0,center_square,0,12,12,74,1,,,,,,,,,,,,,,,,,,,,,,,
501087,001,2022-11-20_20h51.42.759,Info_measure_main_exp,2022.2.2,Win32,14.98127341,,,,,,,,,,,,,,,,,,masks/mask_002.jpg,,,,,,,,,,,,,,,,,,,,,,,,,,,,,,,,,,,,,,,,,,,0,0,0,1,1,,,,,,,,,,,,,,,,,,,,,,,,,,,,,,,,,,,,,,,,,,,,,,
501087,001,2022-11-20_20h51.42.759,Info_measure_main_exp,2022.2.2,Win32,14.98127341,,,,,,,,,,,,,,,,,,masks/mask_003.jpg,,,,,,,,,,,,,,,,,,,,,,,,,,,,,,,,,,,,,,,,,,,0,1,1,2,1,,,,,,,,,,,,,,,,,,,,,,,,,,,,,,,,,,,,,,,,,,,,,,
501087,001,2022-11-20_20h51.42.759,Info_measure_main_exp,2022.2.2,Win32,14.98127341,,,,,,,,,,,,,,,,,,masks/mask_004.jpg,,,,,,,,,,,,,,,,,,,,,,,,,,,,,,,,,,,,,,,,,,,0,2,2,3,1,,,,,,,,,,,,,,,,,,,,,,,,,,,,,,,,,,,,,,,,,,,,,,
501087,001,2022-11-20_20h51.42.759,Info_measure_main_exp,2022.2.2,Win32,14.98127341,,,,,,,,,,,,,,,,,,masks/mask_005.jpg,,,,,,,,,,,,,,,,,,,,,,,,,,,,,,,,,,,,,,,,,,,0,3,3,4,1,,,,,,,,,,,,,,,,,,,,,,,,,,,,,,,,,,,,,,,,,,,,,,
501087,001,2022-11-20_20h51.42.759,Info_measure_main_exp,2022.2.2,Win32,14.98127341,,,,,,,,,,,,,,,,,,masks/mask_001.jpg,,,,,,,,,,,,,,,,,,,,,,,,,,,,,,,,,,,,,,,,,,,0,4,4,0,1,,,,,,,,,,,,,,,,,,,,,,,,,,,,,,,,,,,,,,,,,,,,,,
501087,001,2022-11-20_20h51.42.759,Info_measure_main_exp,2022.2.2,Win32,14.98127341,,,,,,,,,,,,,,,,,,masks/mask_002.jpg,,,,,,,,,,,,,,,,,,,,,,,,,,,,,,,,,,,,,,,,,,,,,,,,0,0,0,1,1,,,,,,,,,,,,,,,,,,,,,,,,,,,,,,,,,,,,,,,,,
501087,001,2022-11-20_20h51.42.759,Info_measure_main_exp,2022.2.2,Win32,14.98127341,,,,,,,,,,,,,,,,,,masks/mask_004.jpg,,,,,,,,,,,,,,,,,,,,,,,,,,,,,,,,,,,,,,,,,,,,,,,,0,1,1,3,1,,,,,,,,,,,,,,,,,,,,,,,,,,,,,,,,,,,,,,,,,
501087,001,2022-11-20_20h51.42.759,Info_measure_main_exp,2022.2.2,Win32,14.98127341,,,,,,,,,,,,,,,,,,masks/mask_003.jpg,,,,,,,,,,,,,,,,,,,,,,,,,,,,,,,,,,,,,,,,,,,,,,,,0,2,2,2,1,,,,,,,,,,,,,,,,,,,,,,,,,,,,,,,,,,,,,,,,,
501087,001,2022-11-20_20h51.42.759,Info_measure_main_exp,2022.2.2,Win32,14.98127341,,,,,,,,,,,,,,,,,,masks/mask_005.jpg,,,,,,,,,,,,,,,,,,,,,,,,,,,,,,,,,,,,,,,,,,,,,,,,0,3,3,4,1,,,,,,,,,,,,,,,,,,,,,,,,,,,,,,,,,,,,,,,,,
501087,001,2022-11-20_20h51.42.759,Info_measure_main_exp,2022.2.2,Win32,14.98127341,,,,,,,,,,,,,,,,,,masks/mask_001.jpg,,,,,,,,,,,,,,,,,,,,,,,,,,,,,,,,,,,,,,,,,,,,,,,,0,4,4,0,1,,,,,,,,,,,,,,,,,,,,,,,,,,,,,,,,,,,,,,,,,
501087,001,2022-11-20_20h51.42.759,Info_measure_main_exp,2022.2.2,Win32,14.98127341,,,,,,,,,,,,,,,,,,,,,,,,,,,,,,5,3.1347,1,,,,,,,,,,,,0,131,5,5,2250,2178,absent_patch/patch0002250.jpg,absent_patch/patch0002178.jpg,,,,,,,,,,,,,,,,,,,,0.062037037,-0.034259259,1,0,0,response3disk,14,-0.008333333,0.003703704,1,0,0,center_square,0,13,13,48,1,,,,,,,,,,,,,,,,,,,,,,,
501087,001,2022-11-20_20h51.42.759,Info_measure_main_exp,2022.2.2,Win32,14.98127341,,,,,,,,,,,,,,,,,,masks/mask_002.jpg,,,,,,,,,,,,,,,,,,,,,,,,,,,,,,,,,,,,,,,,,,,0,0,0,1,1,,,,,,,,,,,,,,,,,,,,,,,,,,,,,,,,,,,,,,,,,,,,,,
501087,001,2022-11-20_20h51.42.759,Info_measure_main_exp,2022.2.2,Win32,14.98127341,,,,,,,,,,,,,,,,,,masks/mask_003.jpg,,,,,,,,,,,,,,,,,,,,,,,,,,,,,,,,,,,,,,,,,,,0,1,1,2,1,,,,,,,,,,,,,,,,,,,,,,,,,,,,,,,,,,,,,,,,,,,,,,
501087,001,2022-11-20_20h51.42.759,Info_measure_main_exp,2022.2.2,Win32,14.98127341,,,,,,,,,,,,,,,,,,masks/mask_004.jpg,,,,,,,,,,,,,,,,,,,,,,,,,,,,,,,,,,,,,,,,,,,0,2,2,3,1,,,,,,,,,,,,,,,,,,,,,,,,,,,,,,,,,,,,,,,,,,,,,,
501087,001,2022-11-20_20h51.42.759,Info_measure_main_exp,2022.2.2,Win32,14.98127341,,,,,,,,,,,,,,,,,,masks/mask_005.jpg,,,,,,,,,,,,,,,,,,,,,,,,,,,,,,,,,,,,,,,,,,,0,3,3,4,1,,,,,,,,,,,,,,,,,,,,,,,,,,,,,,,,,,,,,,,,,,,,,,
501087,001,2022-11-20_20h51.42.759,Info_measure_main_exp,2022.2.2,Win32,14.98127341,,,,,,,,,,,,,,,,,,masks/mask_001.jpg,,,,,,,,,,,,,,,,,,,,,,,,,,,,,,,,,,,,,,,,,,,0,4,4,0,1,,,,,,,,,,,,,,,,,,,,,,,,,,,,,,,,,,,,,,,,,,,,,,
501087,001,2022-11-20_20h51.42.759,Info_measure_main_exp,2022.2.2,Win32,14.98127341,,,,,,,,,,,,,,,,,,masks/mask_001.jpg,,,,,,,,,,,,,,,,,,,,,,,,,,,,,,,,,,,,,,,,,,,,,,,,0,0,0,0,1,,,,,,,,,,,,,,,,,,,,,,,,,,,,,,,,,,,,,,,,,
501087,001,2022-11-20_20h51.42.759,Info_measure_main_exp,2022.2.2,Win32,14.98127341,,,,,,,,,,,,,,,,,,masks/mask_003.jpg,,,,,,,,,,,,,,,,,,,,,,,,,,,,,,,,,,,,,,,,,,,,,,,,0,1,1,2,1,,,,,,,,,,,,,,,,,,,,,,,,,,,,,,,,,,,,,,,,,
501087,001,2022-11-20_20h51.42.759,Info_measure_main_exp,2022.2.2,Win32,14.98127341,,,,,,,,,,,,,,,,,,masks/mask_004.jpg,,,,,,,,,,,,,,,,,,,,,,,,,,,,,,,,,,,,,,,,,,,,,,,,0,2,2,3,1,,,,,,,,,,,,,,,,,,,,,,,,,,,,,,,,,,,,,,,,,
501087,001,2022-11-20_20h51.42.759,Info_measure_main_exp,2022.2.2,Win32,14.98127341,,,,,,,,,,,,,,,,,,masks/mask_002.jpg,,,,,,,,,,,,,,,,,,,,,,,,,,,,,,,,,,,,,,,,,,,,,,,,0,3,3,1,1,,,,,,,,,,,,,,,,,,,,,,,,,,,,,,,,,,,,,,,,,
501087,001,2022-11-20_20h51.42.759,Info_measure_main_exp,2022.2.2,Win32,14.98127341,,,,,,,,,,,,,,,,,,masks/mask_005.jpg,,,,,,,,,,,,,,,,,,,,,,,,,,,,,,,,,,,,,,,,,,,,,,,,0,4,4,4,1,,,,,,,,,,,,,,,,,,,,,,,,,,,,,,,,,,,,,,,,,
501087,001,2022-11-20_20h51.42.759,Info_measure_main_exp,2022.2.2,Win32,14.98127341,,,,,,,,,,,,,,,,,,,,,,,,,,,,,,6,1.9726,1,,,,,,,,,,,,1,131,5,5,2298,1,absent_patch/patch0002298.jpg,present_patch/cong_131_5_a.jpg,,,,,,,,,,,,,,,,,,,,0.118518519,0.082407407,1,0,0,response1disk,15,0.006481481,-0.002777778,1,0,0,center_square,0,14,14,45,1,,,,,,,,,,,,,,,,,,,,,,,
501087,001,2022-11-20_20h51.42.759,Info_measure_main_exp,2022.2.2,Win32,14.98127341,,,,,,,,,,,,,,,,,,masks/mask_002.jpg,,,,,,,,,,,,,,,,,,,,,,,,,,,,,,,,,,,,,,,,,,,0,0,0,1,1,,,,,,,,,,,,,,,,,,,,,,,,,,,,,,,,,,,,,,,,,,,,,,
501087,001,2022-11-20_20h51.42.759,Info_measure_main_exp,2022.2.2,Win32,14.98127341,,,,,,,,,,,,,,,,,,masks/mask_004.jpg,,,,,,,,,,,,,,,,,,,,,,,,,,,,,,,,,,,,,,,,,,,0,1,1,3,1,,,,,,,,,,,,,,,,,,,,,,,,,,,,,,,,,,,,,,,,,,,,,,
501087,001,2022-11-20_20h51.42.759,Info_measure_main_exp,2022.2.2,Win32,14.98127341,,,,,,,,,,,,,,,,,,masks/mask_003.jpg,,,,,,,,,,,,,,,,,,,,,,,,,,,,,,,,,,,,,,,,,,,0,2,2,2,1,,,,,,,,,,,,,,,,,,,,,,,,,,,,,,,,,,,,,,,,,,,,,,
501087,001,2022-11-20_20h51.42.759,Info_measure_main_exp,2022.2.2,Win32,14.98127341,,,,,,,,,,,,,,,,,,masks/mask_005.jpg,,,,,,,,,,,,,,,,,,,,,,,,,,,,,,,,,,,,,,,,,,,0,3,3,4,1,,,,,,,,,,,,,,,,,,,,,,,,,,,,,,,,,,,,,,,,,,,,,,
501087,001,2022-11-20_20h51.42.759,Info_measure_main_exp,2022.2.2,Win32,14.98127341,,,,,,,,,,,,,,,,,,masks/mask_001.jpg,,,,,,,,,,,,,,,,,,,,,,,,,,,,,,,,,,,,,,,,,,,0,4,4,0,1,,,,,,,,,,,,,,,,,,,,,,,,,,,,,,,,,,,,,,,,,,,,,,
501087,001,2022-11-20_20h51.42.759,Info_measure_main_exp,2022.2.2,Win32,14.98127341,,,,,,,,,,,,,,,,,,masks/mask_002.jpg,,,,,,,,,,,,,,,,,,,,,,,,,,,,,,,,,,,,,,,,,,,,,,,,0,0,0,1,1,,,,,,,,,,,,,,,,,,,,,,,,,,,,,,,,,,,,,,,,,
501087,001,2022-11-20_20h51.42.759,Info_measure_main_exp,2022.2.2,Win32,14.98127341,,,,,,,,,,,,,,,,,,masks/mask_003.jpg,,,,,,,,,,,,,,,,,,,,,,,,,,,,,,,,,,,,,,,,,,,,,,,,0,1,1,2,1,,,,,,,,,,,,,,,,,,,,,,,,,,,,,,,,,,,,,,,,,
501087,001,2022-11-20_20h51.42.759,Info_measure_main_exp,2022.2.2,Win32,14.98127341,,,,,,,,,,,,,,,,,,masks/mask_005.jpg,,,,,,,,,,,,,,,,,,,,,,,,,,,,,,,,,,,,,,,,,,,,,,,,0,2,2,4,1,,,,,,,,,,,,,,,,,,,,,,,,,,,,,,,,,,,,,,,,,
501087,001,2022-11-20_20h51.42.759,Info_measure_main_exp,2022.2.2,Win32,14.98127341,,,,,,,,,,,,,,,,,,masks/mask_001.jpg,,,,,,,,,,,,,,,,,,,,,,,,,,,,,,,,,,,,,,,,,,,,,,,,0,3,3,0,1,,,,,,,,,,,,,,,,,,,,,,,,,,,,,,,,,,,,,,,,,
501087,001,2022-11-20_20h51.42.759,Info_measure_main_exp,2022.2.2,Win32,14.98127341,,,,,,,,,,,,,,,,,,masks/mask_004.jpg,,,,,,,,,,,,,,,,,,,,,,,,,,,,,,,,,,,,,,,,,,,,,,,,0,4,4,3,1,,,,,,,,,,,,,,,,,,,,,,,,,,,,,,,,,,,,,,,,,
501087,001,2022-11-20_20h51.42.759,Info_measure_main_exp,2022.2.2,Win32,14.98127341,,,,,,,,,,,,,,,,,,,,,,,,,,,,,,7,3.2364,1,,,,,,,,,,,,0,131,5,5,2154,2190,absent_patch/patch0002154.jpg,absent_patch/patch0002190.jpg,,,,,,,,,,,,,,,,,,,,0.025,0.102777778,1,0,0,response1disk,16,0.003703704,-0.000925926,1,0,0,center_square,0,15,15,68,1,,,,,,,,,,,,,,,,,,,,,,,
501087,001,2022-11-20_20h51.42.759,Info_measure_main_exp,2022.2.2,Win32,14.98127341,,,,,,,,,,,,,,,,,,masks/mask_003.jpg,,,,,,,,,,,,,,,,,,,,,,,,,,,,,,,,,,,,,,,,,,,0,0,0,2,1,,,,,,,,,,,,,,,,,,,,,,,,,,,,,,,,,,,,,,,,,,,,,,
501087,001,2022-11-20_20h51.42.759,Info_measure_main_exp,2022.2.2,Win32,14.98127341,,,,,,,,,,,,,,,,,,masks/mask_002.jpg,,,,,,,,,,,,,,,,,,,,,,,,,,,,,,,,,,,,,,,,,,,0,1,1,1,1,,,,,,,,,,,,,,,,,,,,,,,,,,,,,,,,,,,,,,,,,,,,,,
501087,001,2022-11-20_20h51.42.759,Info_measure_main_exp,2022.2.2,Win32,14.98127341,,,,,,,,,,,,,,,,,,masks/mask_005.jpg,,,,,,,,,,,,,,,,,,,,,,,,,,,,,,,,,,,,,,,,,,,0,2,2,4,1,,,,,,,,,,,,,,,,,,,,,,,,,,,,,,,,,,,,,,,,,,,,,,
501087,001,2022-11-20_20h51.42.759,Info_measure_main_exp,2022.2.2,Win32,14.98127341,,,,,,,,,,,,,,,,,,masks/mask_004.jpg,,,,,,,,,,,,,,,,,,,,,,,,,,,,,,,,,,,,,,,,,,,0,3,3,3,1,,,,,,,,,,,,,,,,,,,,,,,,,,,,,,,,,,,,,,,,,,,,,,
501087,001,2022-11-20_20h51.42.759,Info_measure_main_exp,2022.2.2,Win32,14.98127341,,,,,,,,,,,,,,,,,,masks/mask_001.jpg,,,,,,,,,,,,,,,,,,,,,,,,,,,,,,,,,,,,,,,,,,,0,4,4,0,1,,,,,,,,,,,,,,,,,,,,,,,,,,,,,,,,,,,,,,,,,,,,,,
501087,001,2022-11-20_20h51.42.759,Info_measure_main_exp,2022.2.2,Win32,14.98127341,,,,,,,,,,,,,,,,,,masks/mask_005.jpg,,,,,,,,,,,,,,,,,,,,,,,,,,,,,,,,,,,,,,,,,,,,,,,,0,0,0,4,1,,,,,,,,,,,,,,,,,,,,,,,,,,,,,,,,,,,,,,,,,
501087,001,2022-11-20_20h51.42.759,Info_measure_main_exp,2022.2.2,Win32,14.98127341,,,,,,,,,,,,,,,,,,masks/mask_004.jpg,,,,,,,,,,,,,,,,,,,,,,,,,,,,,,,,,,,,,,,,,,,,,,,,0,1,1,3,1,,,,,,,,,,,,,,,,,,,,,,,,,,,,,,,,,,,,,,,,,
501087,001,2022-11-20_20h51.42.759,Info_measure_main_exp,2022.2.2,Win32,14.98127341,,,,,,,,,,,,,,,,,,masks/mask_002.jpg,,,,,,,,,,,,,,,,,,,,,,,,,,,,,,,,,,,,,,,,,,,,,,,,0,2,2,1,1,,,,,,,,,,,,,,,,,,,,,,,,,,,,,,,,,,,,,,,,,
501087,001,2022-11-20_20h51.42.759,Info_measure_main_exp,2022.2.2,Win32,14.98127341,,,,,,,,,,,,,,,,,,masks/mask_001.jpg,,,,,,,,,,,,,,,,,,,,,,,,,,,,,,,,,,,,,,,,,,,,,,,,0,3,3,0,1,,,,,,,,,,,,,,,,,,,,,,,,,,,,,,,,,,,,,,,,,
501087,001,2022-11-20_20h51.42.759,Info_measure_main_exp,2022.2.2,Win32,14.98127341,,,,,,,,,,,,,,,,,,masks/mask_003.jpg,,,,,,,,,,,,,,,,,,,,,,,,,,,,,,,,,,,,,,,,,,,,,,,,0,4,4,2,1,,,,,,,,,,,,,,,,,,,,,,,,,,,,,,,,,,,,,,,,,
501087,001,2022-11-20_20h51.42.759,Info_measure_main_exp,2022.2.2,Win32,14.98127341,,,,,,,,,,,,,,,,,,,,,,,,,,,,,,2,6.2252,1,,,,,,,,,,,,0,131,5,5,2166,1986,absent_patch/patch0002166.jpg,absent_patch/patch0001986.jpg,,,,,,,,,,,,,,,,,,,,-0.137037037,-0.034259259,1,0,0,response5disk,17,-0.007407407,0.005555556,1,0,0,center_square,0,16,16,47,1,,,,,,,,,,,,,,,,,,,,,,,
501087,001,2022-11-20_20h51.42.759,Info_measure_main_exp,2022.2.2,Win32,14.98127341,,,,,,,,,,,,,,,,,,masks/mask_001.jpg,,,,,,,,,,,,,,,,,,,,,,,,,,,,,,,,,,,,,,,,,,,0,0,0,0,1,,,,,,,,,,,,,,,,,,,,,,,,,,,,,,,,,,,,,,,,,,,,,,
501087,001,2022-11-20_20h51.42.759,Info_measure_main_exp,2022.2.2,Win32,14.98127341,,,,,,,,,,,,,,,,,,masks/mask_005.jpg,,,,,,,,,,,,,,,,,,,,,,,,,,,,,,,,,,,,,,,,,,,0,1,1,4,1,,,,,,,,,,,,,,,,,,,,,,,,,,,,,,,,,,,,,,,,,,,,,,
501087,001,2022-11-20_20h51.42.759,Info_measure_main_exp,2022.2.2,Win32,14.98127341,,,,,,,,,,,,,,,,,,masks/mask_003.jpg,,,,,,,,,,,,,,,,,,,,,,,,,,,,,,,,,,,,,,,,,,,0,2,2,2,1,,,,,,,,,,,,,,,,,,,,,,,,,,,,,,,,,,,,,,,,,,,,,,
501087,001,2022-11-20_20h51.42.759,Info_measure_main_exp,2022.2.2,Win32,14.98127341,,,,,,,,,,,,,,,,,,masks/mask_004.jpg,,,,,,,,,,,,,,,,,,,,,,,,,,,,,,,,,,,,,,,,,,,0,3,3,3,1,,,,,,,,,,,,,,,,,,,,,,,,,,,,,,,,,,,,,,,,,,,,,,
501087,001,2022-11-20_20h51.42.759,Info_measure_main_exp,2022.2.2,Win32,14.98127341,,,,,,,,,,,,,,,,,,masks/mask_002.jpg,,,,,,,,,,,,,,,,,,,,,,,,,,,,,,,,,,,,,,,,,,,0,4,4,1,1,,,,,,,,,,,,,,,,,,,,,,,,,,,,,,,,,,,,,,,,,,,,,,
501087,001,2022-11-20_20h51.42.759,Info_measure_main_exp,2022.2.2,Win32,14.98127341,,,,,,,,,,,,,,,,,,masks/mask_001.jpg,,,,,,,,,,,,,,,,,,,,,,,,,,,,,,,,,,,,,,,,,,,,,,,,0,0,0,0,1,,,,,,,,,,,,,,,,,,,,,,,,,,,,,,,,,,,,,,,,,
501087,001,2022-11-20_20h51.42.759,Info_measure_main_exp,2022.2.2,Win32,14.98127341,,,,,,,,,,,,,,,,,,masks/mask_005.jpg,,,,,,,,,,,,,,,,,,,,,,,,,,,,,,,,,,,,,,,,,,,,,,,,0,1,1,4,1,,,,,,,,,,,,,,,,,,,,,,,,,,,,,,,,,,,,,,,,,
501087,001,2022-11-20_20h51.42.759,Info_measure_main_exp,2022.2.2,Win32,14.98127341,,,,,,,,,,,,,,,,,,masks/mask_003.jpg,,,,,,,,,,,,,,,,,,,,,,,,,,,,,,,,,,,,,,,,,,,,,,,,0,2,2,2,1,,,,,,,,,,,,,,,,,,,,,,,,,,,,,,,,,,,,,,,,,
501087,001,2022-11-20_20h51.42.759,Info_measure_main_exp,2022.2.2,Win32,14.98127341,,,,,,,,,,,,,,,,,,masks/mask_004.jpg,,,,,,,,,,,,,,,,,,,,,,,,,,,,,,,,,,,,,,,,,,,,,,,,0,3,3,3,1,,,,,,,,,,,,,,,,,,,,,,,,,,,,,,,,,,,,,,,,,
501087,001,2022-11-20_20h51.42.759,Info_measure_main_exp,2022.2.2,Win32,14.98127341,,,,,,,,,,,,,,,,,,masks/mask_002.jpg,,,,,,,,,,,,,,,,,,,,,,,,,,,,,,,,,,,,,,,,,,,,,,,,0,4,4,1,1,,,,,,,,,,,,,,,,,,,,,,,,,,,,,,,,,,,,,,,,,
501087,001,2022-11-20_20h51.42.759,Info_measure_main_exp,2022.2.2,Win32,14.98127341,,,,,,,,,,,,,,,,,,,,,,,,,,,,,,1,1.4519,1,,,,,,,,,,,,0,131,5,5,1986,2154,absent_patch/patch0001986.jpg,absent_patch/patch0002154.jpg,,,,,,,,,,,,,,,,,,,,-0.140740741,0.073148148,1,0,0,response7disk,18,-0.002777778,0.002777778,1,0,0,center_square,0,17,17,36,1,,,,,,,,,,,,,,,,,,,,,,,
501087,001,2022-11-20_20h51.42.759,Info_measure_main_exp,2022.2.2,Win32,14.98127341,,,,,,,,,,,,,,,,,,masks/mask_004.jpg,,,,,,,,,,,,,,,,,,,,,,,,,,,,,,,,,,,,,,,,,,,0,0,0,3,1,,,,,,,,,,,,,,,,,,,,,,,,,,,,,,,,,,,,,,,,,,,,,,
501087,001,2022-11-20_20h51.42.759,Info_measure_main_exp,2022.2.2,Win32,14.98127341,,,,,,,,,,,,,,,,,,masks/mask_002.jpg,,,,,,,,,,,,,,,,,,,,,,,,,,,,,,,,,,,,,,,,,,,0,1,1,1,1,,,,,,,,,,,,,,,,,,,,,,,,,,,,,,,,,,,,,,,,,,,,,,
501087,001,2022-11-20_20h51.42.759,Info_measure_main_exp,2022.2.2,Win32,14.98127341,,,,,,,,,,,,,,,,,,masks/mask_003.jpg,,,,,,,,,,,,,,,,,,,,,,,,,,,,,,,,,,,,,,,,,,,0,2,2,2,1,,,,,,,,,,,,,,,,,,,,,,,,,,,,,,,,,,,,,,,,,,,,,,
501087,001,2022-11-20_20h51.42.759,Info_measure_main_exp,2022.2.2,Win32,14.98127341,,,,,,,,,,,,,,,,,,masks/mask_005.jpg,,,,,,,,,,,,,,,,,,,,,,,,,,,,,,,,,,,,,,,,,,,0,3,3,4,1,,,,,,,,,,,,,,,,,,,,,,,,,,,,,,,,,,,,,,,,,,,,,,
501087,001,2022-11-20_20h51.42.759,Info_measure_main_exp,2022.2.2,Win32,14.98127341,,,,,,,,,,,,,,,,,,masks/mask_001.jpg,,,,,,,,,,,,,,,,,,,,,,,,,,,,,,,,,,,,,,,,,,,0,4,4,0,1,,,,,,,,,,,,,,,,,,,,,,,,,,,,,,,,,,,,,,,,,,,,,,
501087,001,2022-11-20_20h51.42.759,Info_measure_main_exp,2022.2.2,Win32,14.98127341,,,,,,,,,,,,,,,,,,masks/mask_001.jpg,,,,,,,,,,,,,,,,,,,,,,,,,,,,,,,,,,,,,,,,,,,,,,,,0,0,0,0,1,,,,,,,,,,,,,,,,,,,,,,,,,,,,,,,,,,,,,,,,,
501087,001,2022-11-20_20h51.42.759,Info_measure_main_exp,2022.2.2,Win32,14.98127341,,,,,,,,,,,,,,,,,,masks/mask_004.jpg,,,,,,,,,,,,,,,,,,,,,,,,,,,,,,,,,,,,,,,,,,,,,,,,0,1,1,3,1,,,,,,,,,,,,,,,,,,,,,,,,,,,,,,,,,,,,,,,,,
501087,001,2022-11-20_20h51.42.759,Info_measure_main_exp,2022.2.2,Win32,14.98127341,,,,,,,,,,,,,,,,,,masks/mask_002.jpg,,,,,,,,,,,,,,,,,,,,,,,,,,,,,,,,,,,,,,,,,,,,,,,,0,2,2,1,1,,,,,,,,,,,,,,,,,,,,,,,,,,,,,,,,,,,,,,,,,
501087,001,2022-11-20_20h51.42.759,Info_measure_main_exp,2022.2.2,Win32,14.98127341,,,,,,,,,,,,,,,,,,masks/mask_003.jpg,,,,,,,,,,,,,,,,,,,,,,,,,,,,,,,,,,,,,,,,,,,,,,,,0,3,3,2,1,,,,,,,,,,,,,,,,,,,,,,,,,,,,,,,,,,,,,,,,,
501087,001,2022-11-20_20h51.42.759,Info_measure_main_exp,2022.2.2,Win32,14.98127341,,,,,,,,,,,,,,,,,,masks/mask_005.jpg,,,,,,,,,,,,,,,,,,,,,,,,,,,,,,,,,,,,,,,,,,,,,,,,0,4,4,4,1,,,,,,,,,,,,,,,,,,,,,,,,,,,,,,,,,,,,,,,,,
501087,001,2022-11-20_20h51.42.759,Info_measure_main_exp,2022.2.2,Win32,14.98127341,,,,,,,,,,,,,,,,,,,,,,,,,,,,,,4,1.4636,1,,,,,,,,,,,,0,131,5,5,2214,2082,absent_patch/patch0002214.jpg,absent_patch/patch0002082.jpg,,,,,,,,,,,,,,,,,,,,0.021296296,-0.064814815,1,0,0,response3disk,19,0.002777778,0,1,0,0,center_square,0,18,18,103,1,,,,,,,,,,,,,,,,,,,,,,,
501087,001,2022-11-20_20h51.42.759,Info_measure_main_exp,2022.2.2,Win32,14.98127341,,,,,,,,,,,,,,,,,,masks/mask_005.jpg,,,,,,,,,,,,,,,,,,,,,,,,,,,,,,,,,,,,,,,,,,,0,0,0,4,1,,,,,,,,,,,,,,,,,,,,,,,,,,,,,,,,,,,,,,,,,,,,,,
501087,001,2022-11-20_20h51.42.759,Info_measure_main_exp,2022.2.2,Win32,14.98127341,,,,,,,,,,,,,,,,,,masks/mask_002.jpg,,,,,,,,,,,,,,,,,,,,,,,,,,,,,,,,,,,,,,,,,,,0,1,1,1,1,,,,,,,,,,,,,,,,,,,,,,,,,,,,,,,,,,,,,,,,,,,,,,
501087,001,2022-11-20_20h51.42.759,Info_measure_main_exp,2022.2.2,Win32,14.98127341,,,,,,,,,,,,,,,,,,masks/mask_004.jpg,,,,,,,,,,,,,,,,,,,,,,,,,,,,,,,,,,,,,,,,,,,0,2,2,3,1,,,,,,,,,,,,,,,,,,,,,,,,,,,,,,,,,,,,,,,,,,,,,,
501087,001,2022-11-20_20h51.42.759,Info_measure_main_exp,2022.2.2,Win32,14.98127341,,,,,,,,,,,,,,,,,,masks/mask_001.jpg,,,,,,,,,,,,,,,,,,,,,,,,,,,,,,,,,,,,,,,,,,,0,3,3,0,1,,,,,,,,,,,,,,,,,,,,,,,,,,,,,,,,,,,,,,,,,,,,,,
501087,001,2022-11-20_20h51.42.759,Info_measure_main_exp,2022.2.2,Win32,14.98127341,,,,,,,,,,,,,,,,,,masks/mask_003.jpg,,,,,,,,,,,,,,,,,,,,,,,,,,,,,,,,,,,,,,,,,,,0,4,4,2,1,,,,,,,,,,,,,,,,,,,,,,,,,,,,,,,,,,,,,,,,,,,,,,
501087,001,2022-11-20_20h51.42.759,Info_measure_main_exp,2022.2.2,Win32,14.98127341,,,,,,,,,,,,,,,,,,masks/mask_002.jpg,,,,,,,,,,,,,,,,,,,,,,,,,,,,,,,,,,,,,,,,,,,,,,,,0,0,0,1,1,,,,,,,,,,,,,,,,,,,,,,,,,,,,,,,,,,,,,,,,,
501087,001,2022-11-20_20h51.42.759,Info_measure_main_exp,2022.2.2,Win32,14.98127341,,,,,,,,,,,,,,,,,,masks/mask_001.jpg,,,,,,,,,,,,,,,,,,,,,,,,,,,,,,,,,,,,,,,,,,,,,,,,0,1,1,0,1,,,,,,,,,,,,,,,,,,,,,,,,,,,,,,,,,,,,,,,,,
501087,001,2022-11-20_20h51.42.759,Info_measure_main_exp,2022.2.2,Win32,14.98127341,,,,,,,,,,,,,,,,,,masks/mask_005.jpg,,,,,,,,,,,,,,,,,,,,,,,,,,,,,,,,,,,,,,,,,,,,,,,,0,2,2,4,1,,,,,,,,,,,,,,,,,,,,,,,,,,,,,,,,,,,,,,,,,
501087,001,2022-11-20_20h51.42.759,Info_measure_main_exp,2022.2.2,Win32,14.98127341,,,,,,,,,,,,,,,,,,masks/mask_003.jpg,,,,,,,,,,,,,,,,,,,,,,,,,,,,,,,,,,,,,,,,,,,,,,,,0,3,3,2,1,,,,,,,,,,,,,,,,,,,,,,,,,,,,,,,,,,,,,,,,,
501087,001,2022-11-20_20h51.42.759,Info_measure_main_exp,2022.2.2,Win32,14.98127341,,,,,,,,,,,,,,,,,,masks/mask_004.jpg,,,,,,,,,,,,,,,,,,,,,,,,,,,,,,,,,,,,,,,,,,,,,,,,0,4,4,3,1,,,,,,,,,,,,,,,,,,,,,,,,,,,,,,,,,,,,,,,,,
501087,001,2022-11-20_20h51.42.759,Info_measure_main_exp,2022.2.2,Win32,14.98127341,,,,,,,,,,,,,,,,,,,,,,,,,,,,,,7,1.3257,1,,,,,,,,,,,,0,131,5,5,2082,1986,absent_patch/patch0002082.jpg,absent_patch/patch0001986.jpg,,,,,,,,,,,,,,,,,,,,0.060185185,0.128703704,1,0,0,response1disk,20,0.006481481,-0.008333333,1,0,0,center_square,0,19,19,94,1,,,,,,,,,,,,,,,,,,,,,,,
501087,001,2022-11-20_20h51.42.759,Info_measure_main_exp,2022.2.2,Win32,14.98127341,,,,,,,,,,,,,,,,,,masks/mask_002.jpg,,,,,,,,,,,,,,,,,,,,,,,,,,,,,,,,,,,,,,,,,,,0,0,0,1,1,,,,,,,,,,,,,,,,,,,,,,,,,,,,,,,,,,,,,,,,,,,,,,
501087,001,2022-11-20_20h51.42.759,Info_measure_main_exp,2022.2.2,Win32,14.98127341,,,,,,,,,,,,,,,,,,masks/mask_005.jpg,,,,,,,,,,,,,,,,,,,,,,,,,,,,,,,,,,,,,,,,,,,0,1,1,4,1,,,,,,,,,,,,,,,,,,,,,,,,,,,,,,,,,,,,,,,,,,,,,,
501087,001,2022-11-20_20h51.42.759,Info_measure_main_exp,2022.2.2,Win32,14.98127341,,,,,,,,,,,,,,,,,,masks/mask_001.jpg,,,,,,,,,,,,,,,,,,,,,,,,,,,,,,,,,,,,,,,,,,,0,2,2,0,1,,,,,,,,,,,,,,,,,,,,,,,,,,,,,,,,,,,,,,,,,,,,,,
501087,001,2022-11-20_20h51.42.759,Info_measure_main_exp,2022.2.2,Win32,14.98127341,,,,,,,,,,,,,,,,,,masks/mask_003.jpg,,,,,,,,,,,,,,,,,,,,,,,,,,,,,,,,,,,,,,,,,,,0,3,3,2,1,,,,,,,,,,,,,,,,,,,,,,,,,,,,,,,,,,,,,,,,,,,,,,
501087,001,2022-11-20_20h51.42.759,Info_measure_main_exp,2022.2.2,Win32,14.98127341,,,,,,,,,,,,,,,,,,masks/mask_004.jpg,,,,,,,,,,,,,,,,,,,,,,,,,,,,,,,,,,,,,,,,,,,0,4,4,3,1,,,,,,,,,,,,,,,,,,,,,,,,,,,,,,,,,,,,,,,,,,,,,,
501087,001,2022-11-20_20h51.42.759,Info_measure_main_exp,2022.2.2,Win32,14.98127341,,,,,,,,,,,,,,,,,,masks/mask_003.jpg,,,,,,,,,,,,,,,,,,,,,,,,,,,,,,,,,,,,,,,,,,,,,,,,0,0,0,2,1,,,,,,,,,,,,,,,,,,,,,,,,,,,,,,,,,,,,,,,,,
501087,001,2022-11-20_20h51.42.759,Info_measure_main_exp,2022.2.2,Win32,14.98127341,,,,,,,,,,,,,,,,,,masks/mask_002.jpg,,,,,,,,,,,,,,,,,,,,,,,,,,,,,,,,,,,,,,,,,,,,,,,,0,1,1,1,1,,,,,,,,,,,,,,,,,,,,,,,,,,,,,,,,,,,,,,,,,
501087,001,2022-11-20_20h51.42.759,Info_measure_main_exp,2022.2.2,Win32,14.98127341,,,,,,,,,,,,,,,,,,masks/mask_001.jpg,,,,,,,,,,,,,,,,,,,,,,,,,,,,,,,,,,,,,,,,,,,,,,,,0,2,2,0,1,,,,,,,,,,,,,,,,,,,,,,,,,,,,,,,,,,,,,,,,,
501087,001,2022-11-20_20h51.42.759,Info_measure_main_exp,2022.2.2,Win32,14.98127341,,,,,,,,,,,,,,,,,,masks/mask_005.jpg,,,,,,,,,,,,,,,,,,,,,,,,,,,,,,,,,,,,,,,,,,,,,,,,0,3,3,4,1,,,,,,,,,,,,,,,,,,,,,,,,,,,,,,,,,,,,,,,,,
501087,001,2022-11-20_20h51.42.759,Info_measure_main_exp,2022.2.2,Win32,14.98127341,,,,,,,,,,,,,,,,,,masks/mask_004.jpg,,,,,,,,,,,,,,,,,,,,,,,,,,,,,,,,,,,,,,,,,,,,,,,,0,4,4,3,1,,,,,,,,,,,,,,,,,,,,,,,,,,,,,,,,,,,,,,,,,
501087,001,2022-11-20_20h51.42.759,Info_measure_main_exp,2022.2.2,Win32,14.98127341,,,,,,,,,,,,,,,,,,,,,,,,,,,,,,7,1.2918,1,,,,,,,,,,,,0,131,5,5,2082,2166,absent_patch/patch0002082.jpg,absent_patch/patch0002166.jpg,,,,,,,,,,,,,,,,,,,,0.048148148,0.110185185,1,0,0,response1disk,21,0.003703704,0.006481481,1,0,0,center_square,0,20,20,43,1,,,,,,,,,,,,,,,,,,,,,,,
501087,001,2022-11-20_20h51.42.759,Info_measure_main_exp,2022.2.2,Win32,14.98127341,,,,,,,,,,,,,,,,,,masks/mask_003.jpg,,,,,,,,,,,,,,,,,,,,,,,,,,,,,,,,,,,,,,,,,,,0,0,0,2,1,,,,,,,,,,,,,,,,,,,,,,,,,,,,,,,,,,,,,,,,,,,,,,
501087,001,2022-11-20_20h51.42.759,Info_measure_main_exp,2022.2.2,Win32,14.98127341,,,,,,,,,,,,,,,,,,masks/mask_002.jpg,,,,,,,,,,,,,,,,,,,,,,,,,,,,,,,,,,,,,,,,,,,0,1,1,1,1,,,,,,,,,,,,,,,,,,,,,,,,,,,,,,,,,,,,,,,,,,,,,,
501087,001,2022-11-20_20h51.42.759,Info_measure_main_exp,2022.2.2,Win32,14.98127341,,,,,,,,,,,,,,,,,,masks/mask_005.jpg,,,,,,,,,,,,,,,,,,,,,,,,,,,,,,,,,,,,,,,,,,,0,2,2,4,1,,,,,,,,,,,,,,,,,,,,,,,,,,,,,,,,,,,,,,,,,,,,,,
501087,001,2022-11-20_20h51.42.759,Info_measure_main_exp,2022.2.2,Win32,14.98127341,,,,,,,,,,,,,,,,,,masks/mask_004.jpg,,,,,,,,,,,,,,,,,,,,,,,,,,,,,,,,,,,,,,,,,,,0,3,3,3,1,,,,,,,,,,,,,,,,,,,,,,,,,,,,,,,,,,,,,,,,,,,,,,
501087,001,2022-11-20_20h51.42.759,Info_measure_main_exp,2022.2.2,Win32,14.98127341,,,,,,,,,,,,,,,,,,masks/mask_001.jpg,,,,,,,,,,,,,,,,,,,,,,,,,,,,,,,,,,,,,,,,,,,0,4,4,0,1,,,,,,,,,,,,,,,,,,,,,,,,,,,,,,,,,,,,,,,,,,,,,,
501087,001,2022-11-20_20h51.42.759,Info_measure_main_exp,2022.2.2,Win32,14.98127341,,,,,,,,,,,,,,,,,,masks/mask_005.jpg,,,,,,,,,,,,,,,,,,,,,,,,,,,,,,,,,,,,,,,,,,,,,,,,0,0,0,4,1,,,,,,,,,,,,,,,,,,,,,,,,,,,,,,,,,,,,,,,,,
501087,001,2022-11-20_20h51.42.759,Info_measure_main_exp,2022.2.2,Win32,14.98127341,,,,,,,,,,,,,,,,,,masks/mask_004.jpg,,,,,,,,,,,,,,,,,,,,,,,,,,,,,,,,,,,,,,,,,,,,,,,,0,1,1,3,1,,,,,,,,,,,,,,,,,,,,,,,,,,,,,,,,,,,,,,,,,
501087,001,2022-11-20_20h51.42.759,Info_measure_main_exp,2022.2.2,Win32,14.98127341,,,,,,,,,,,,,,,,,,masks/mask_001.jpg,,,,,,,,,,,,,,,,,,,,,,,,,,,,,,,,,,,,,,,,,,,,,,,,0,2,2,0,1,,,,,,,,,,,,,,,,,,,,,,,,,,,,,,,,,,,,,,,,,
501087,001,2022-11-20_20h51.42.759,Info_measure_main_exp,2022.2.2,Win32,14.98127341,,,,,,,,,,,,,,,,,,masks/mask_003.jpg,,,,,,,,,,,,,,,,,,,,,,,,,,,,,,,,,,,,,,,,,,,,,,,,0,3,3,2,1,,,,,,,,,,,,,,,,,,,,,,,,,,,,,,,,,,,,,,,,,
501087,001,2022-11-20_20h51.42.759,Info_measure_main_exp,2022.2.2,Win32,14.98127341,,,,,,,,,,,,,,,,,,masks/mask_002.jpg,,,,,,,,,,,,,,,,,,,,,,,,,,,,,,,,,,,,,,,,,,,,,,,,0,4,4,1,1,,,,,,,,,,,,,,,,,,,,,,,,,,,,,,,,,,,,,,,,,
501087,001,2022-11-20_20h51.42.759,Info_measure_main_exp,2022.2.2,Win32,14.98127341,,,,,,,,,,,,,,,,,,,,,,,,,,,,,,7,2.1499,1,,,,,,,,,,,,0,131,5,5,2238,2298,absent_patch/patch0002238.jpg,absent_patch/patch0002298.jpg,,,,,,,,,,,,,,,,,,,,0.030555556,0.067592593,1,0,0,response1disk,22,0.002777778,0.005555556,1,0,0,center_square,0,21,21,51,1,,,,,,,,,,,,,,,,,,,,,,,
501087,001,2022-11-20_20h51.42.759,Info_measure_main_exp,2022.2.2,Win32,14.98127341,,,,,,,,,,,,,,,,,,masks/mask_005.jpg,,,,,,,,,,,,,,,,,,,,,,,,,,,,,,,,,,,,,,,,,,,0,0,0,4,1,,,,,,,,,,,,,,,,,,,,,,,,,,,,,,,,,,,,,,,,,,,,,,
501087,001,2022-11-20_20h51.42.759,Info_measure_main_exp,2022.2.2,Win32,14.98127341,,,,,,,,,,,,,,,,,,masks/mask_004.jpg,,,,,,,,,,,,,,,,,,,,,,,,,,,,,,,,,,,,,,,,,,,0,1,1,3,1,,,,,,,,,,,,,,,,,,,,,,,,,,,,,,,,,,,,,,,,,,,,,,
501087,001,2022-11-20_20h51.42.759,Info_measure_main_exp,2022.2.2,Win32,14.98127341,,,,,,,,,,,,,,,,,,masks/mask_001.jpg,,,,,,,,,,,,,,,,,,,,,,,,,,,,,,,,,,,,,,,,,,,0,2,2,0,1,,,,,,,,,,,,,,,,,,,,,,,,,,,,,,,,,,,,,,,,,,,,,,
501087,001,2022-11-20_20h51.42.759,Info_measure_main_exp,2022.2.2,Win32,14.98127341,,,,,,,,,,,,,,,,,,masks/mask_002.jpg,,,,,,,,,,,,,,,,,,,,,,,,,,,,,,,,,,,,,,,,,,,0,3,3,1,1,,,,,,,,,,,,,,,,,,,,,,,,,,,,,,,,,,,,,,,,,,,,,,
501087,001,2022-11-20_20h51.42.759,Info_measure_main_exp,2022.2.2,Win32,14.98127341,,,,,,,,,,,,,,,,,,masks/mask_003.jpg,,,,,,,,,,,,,,,,,,,,,,,,,,,,,,,,,,,,,,,,,,,0,4,4,2,1,,,,,,,,,,,,,,,,,,,,,,,,,,,,,,,,,,,,,,,,,,,,,,
501087,001,2022-11-20_20h51.42.759,Info_measure_main_exp,2022.2.2,Win32,14.98127341,,,,,,,,,,,,,,,,,,masks/mask_001.jpg,,,,,,,,,,,,,,,,,,,,,,,,,,,,,,,,,,,,,,,,,,,,,,,,0,0,0,0,1,,,,,,,,,,,,,,,,,,,,,,,,,,,,,,,,,,,,,,,,,
501087,001,2022-11-20_20h51.42.759,Info_measure_main_exp,2022.2.2,Win32,14.98127341,,,,,,,,,,,,,,,,,,masks/mask_004.jpg,,,,,,,,,,,,,,,,,,,,,,,,,,,,,,,,,,,,,,,,,,,,,,,,0,1,1,3,1,,,,,,,,,,,,,,,,,,,,,,,,,,,,,,,,,,,,,,,,,
501087,001,2022-11-20_20h51.42.759,Info_measure_main_exp,2022.2.2,Win32,14.98127341,,,,,,,,,,,,,,,,,,masks/mask_003.jpg,,,,,,,,,,,,,,,,,,,,,,,,,,,,,,,,,,,,,,,,,,,,,,,,0,2,2,2,1,,,,,,,,,,,,,,,,,,,,,,,,,,,,,,,,,,,,,,,,,
501087,001,2022-11-20_20h51.42.759,Info_measure_main_exp,2022.2.2,Win32,14.98127341,,,,,,,,,,,,,,,,,,masks/mask_005.jpg,,,,,,,,,,,,,,,,,,,,,,,,,,,,,,,,,,,,,,,,,,,,,,,,0,3,3,4,1,,,,,,,,,,,,,,,,,,,,,,,,,,,,,,,,,,,,,,,,,
501087,001,2022-11-20_20h51.42.759,Info_measure_main_exp,2022.2.2,Win32,14.98127341,,,,,,,,,,,,,,,,,,masks/mask_002.jpg,,,,,,,,,,,,,,,,,,,,,,,,,,,,,,,,,,,,,,,,,,,,,,,,0,4,4,1,1,,,,,,,,,,,,,,,,,,,,,,,,,,,,,,,,,,,,,,,,,
501087,001,2022-11-20_20h51.42.759,Info_measure_main_exp,2022.2.2,Win32,14.98127341,,,,,,,,,,,,,,,,,,,,,,,,,,,,,,7,1.3367,1,,,,,,,,,,,,0,131,5,5,1986,1950,absent_patch/patch0001986.jpg,absent_patch/patch0001950.jpg,,,,,,,,,,,,,,,,,,,,0.055555556,0.122222222,1,0,0,response1disk,23,0.002777778,0.001851852,1,0,0,center_square,0,22,22,15,1,,,,,,,,,,,,,,,,,,,,,,,
501087,001,2022-11-20_20h51.42.759,Info_measure_main_exp,2022.2.2,Win32,14.98127341,,,,,,,,,,,,,,,,,,masks/mask_005.jpg,,,,,,,,,,,,,,,,,,,,,,,,,,,,,,,,,,,,,,,,,,,0,0,0,4,1,,,,,,,,,,,,,,,,,,,,,,,,,,,,,,,,,,,,,,,,,,,,,,
501087,001,2022-11-20_20h51.42.759,Info_measure_main_exp,2022.2.2,Win32,14.98127341,,,,,,,,,,,,,,,,,,masks/mask_003.jpg,,,,,,,,,,,,,,,,,,,,,,,,,,,,,,,,,,,,,,,,,,,0,1,1,2,1,,,,,,,,,,,,,,,,,,,,,,,,,,,,,,,,,,,,,,,,,,,,,,
501087,001,2022-11-20_20h51.42.759,Info_measure_main_exp,2022.2.2,Win32,14.98127341,,,,,,,,,,,,,,,,,,masks/mask_002.jpg,,,,,,,,,,,,,,,,,,,,,,,,,,,,,,,,,,,,,,,,,,,0,2,2,1,1,,,,,,,,,,,,,,,,,,,,,,,,,,,,,,,,,,,,,,,,,,,,,,
501087,001,2022-11-20_20h51.42.759,Info_measure_main_exp,2022.2.2,Win32,14.98127341,,,,,,,,,,,,,,,,,,masks/mask_004.jpg,,,,,,,,,,,,,,,,,,,,,,,,,,,,,,,,,,,,,,,,,,,0,3,3,3,1,,,,,,,,,,,,,,,,,,,,,,,,,,,,,,,,,,,,,,,,,,,,,,
501087,001,2022-11-20_20h51.42.759,Info_measure_main_exp,2022.2.2,Win32,14.98127341,,,,,,,,,,,,,,,,,,masks/mask_001.jpg,,,,,,,,,,,,,,,,,,,,,,,,,,,,,,,,,,,,,,,,,,,0,4,4,0,1,,,,,,,,,,,,,,,,,,,,,,,,,,,,,,,,,,,,,,,,,,,,,,
501087,001,2022-11-20_20h51.42.759,Info_measure_main_exp,2022.2.2,Win32,14.98127341,,,,,,,,,,,,,,,,,,masks/mask_001.jpg,,,,,,,,,,,,,,,,,,,,,,,,,,,,,,,,,,,,,,,,,,,,,,,,0,0,0,0,1,,,,,,,,,,,,,,,,,,,,,,,,,,,,,,,,,,,,,,,,,
501087,001,2022-11-20_20h51.42.759,Info_measure_main_exp,2022.2.2,Win32,14.98127341,,,,,,,,,,,,,,,,,,masks/mask_004.jpg,,,,,,,,,,,,,,,,,,,,,,,,,,,,,,,,,,,,,,,,,,,,,,,,0,1,1,3,1,,,,,,,,,,,,,,,,,,,,,,,,,,,,,,,,,,,,,,,,,
501087,001,2022-11-20_20h51.42.759,Info_measure_main_exp,2022.2.2,Win32,14.98127341,,,,,,,,,,,,,,,,,,masks/mask_003.jpg,,,,,,,,,,,,,,,,,,,,,,,,,,,,,,,,,,,,,,,,,,,,,,,,0,2,2,2,1,,,,,,,,,,,,,,,,,,,,,,,,,,,,,,,,,,,,,,,,,
501087,001,2022-11-20_20h51.42.759,Info_measure_main_exp,2022.2.2,Win32,14.98127341,,,,,,,,,,,,,,,,,,masks/mask_005.jpg,,,,,,,,,,,,,,,,,,,,,,,,,,,,,,,,,,,,,,,,,,,,,,,,0,3,3,4,1,,,,,,,,,,,,,,,,,,,,,,,,,,,,,,,,,,,,,,,,,
501087,001,2022-11-20_20h51.42.759,Info_measure_main_exp,2022.2.2,Win32,14.98127341,,,,,,,,,,,,,,,,,,masks/mask_002.jpg,,,,,,,,,,,,,,,,,,,,,,,,,,,,,,,,,,,,,,,,,,,,,,,,0,4,4,1,1,,,,,,,,,,,,,,,,,,,,,,,,,,,,,,,,,,,,,,,,,
501087,001,2022-11-20_20h51.42.759,Info_measure_main_exp,2022.2.2,Win32,14.98127341,,,,,,,,,,,,,,,,,,,,,,,,,,,,,,7,0.9227,1,,,,,,,,,,,,0,131,5,5,2082,2238,absent_patch/patch0002082.jpg,absent_patch/patch0002238.jpg,,,,,,,,,,,,,,,,,,,,0.044444444,0.121296296,1,0,0,response1disk,24,0.002777778,0,1,0,0,center_square,0,23,23,22,1,,,,,,,,,,,,,,,,,,,,,,,
501087,001,2022-11-20_20h51.42.759,Info_measure_main_exp,2022.2.2,Win32,14.98127341,,,,,,,,,,,,,,,,,,masks/mask_001.jpg,,,,,,,,,,,,,,,,,,,,,,,,,,,,,,,,,,,,,,,,,,,0,0,0,0,1,,,,,,,,,,,,,,,,,,,,,,,,,,,,,,,,,,,,,,,,,,,,,,
501087,001,2022-11-20_20h51.42.759,Info_measure_main_exp,2022.2.2,Win32,14.98127341,,,,,,,,,,,,,,,,,,masks/mask_002.jpg,,,,,,,,,,,,,,,,,,,,,,,,,,,,,,,,,,,,,,,,,,,0,1,1,1,1,,,,,,,,,,,,,,,,,,,,,,,,,,,,,,,,,,,,,,,,,,,,,,
501087,001,2022-11-20_20h51.42.759,Info_measure_main_exp,2022.2.2,Win32,14.98127341,,,,,,,,,,,,,,,,,,masks/mask_003.jpg,,,,,,,,,,,,,,,,,,,,,,,,,,,,,,,,,,,,,,,,,,,0,2,2,2,1,,,,,,,,,,,,,,,,,,,,,,,,,,,,,,,,,,,,,,,,,,,,,,
501087,001,2022-11-20_20h51.42.759,Info_measure_main_exp,2022.2.2,Win32,14.98127341,,,,,,,,,,,,,,,,,,masks/mask_004.jpg,,,,,,,,,,,,,,,,,,,,,,,,,,,,,,,,,,,,,,,,,,,0,3,3,3,1,,,,,,,,,,,,,,,,,,,,,,,,,,,,,,,,,,,,,,,,,,,,,,
501087,001,2022-11-20_20h51.42.759,Info_measure_main_exp,2022.2.2,Win32,14.98127341,,,,,,,,,,,,,,,,,,masks/mask_005.jpg,,,,,,,,,,,,,,,,,,,,,,,,,,,,,,,,,,,,,,,,,,,0,4,4,4,1,,,,,,,,,,,,,,,,,,,,,,,,,,,,,,,,,,,,,,,,,,,,,,
501087,001,2022-11-20_20h51.42.759,Info_measure_main_exp,2022.2.2,Win32,14.98127341,,,,,,,,,,,,,,,,,,masks/mask_002.jpg,,,,,,,,,,,,,,,,,,,,,,,,,,,,,,,,,,,,,,,,,,,,,,,,0,0,0,1,1,,,,,,,,,,,,,,,,,,,,,,,,,,,,,,,,,,,,,,,,,
501087,001,2022-11-20_20h51.42.759,Info_measure_main_exp,2022.2.2,Win32,14.98127341,,,,,,,,,,,,,,,,,,masks/mask_003.jpg,,,,,,,,,,,,,,,,,,,,,,,,,,,,,,,,,,,,,,,,,,,,,,,,0,1,1,2,1,,,,,,,,,,,,,,,,,,,,,,,,,,,,,,,,,,,,,,,,,
501087,001,2022-11-20_20h51.42.759,Info_measure_main_exp,2022.2.2,Win32,14.98127341,,,,,,,,,,,,,,,,,,masks/mask_001.jpg,,,,,,,,,,,,,,,,,,,,,,,,,,,,,,,,,,,,,,,,,,,,,,,,0,2,2,0,1,,,,,,,,,,,,,,,,,,,,,,,,,,,,,,,,,,,,,,,,,
501087,001,2022-11-20_20h51.42.759,Info_measure_main_exp,2022.2.2,Win32,14.98127341,,,,,,,,,,,,,,,,,,masks/mask_004.jpg,,,,,,,,,,,,,,,,,,,,,,,,,,,,,,,,,,,,,,,,,,,,,,,,0,3,3,3,1,,,,,,,,,,,,,,,,,,,,,,,,,,,,,,,,,,,,,,,,,
501087,001,2022-11-20_20h51.42.759,Info_measure_main_exp,2022.2.2,Win32,14.98127341,,,,,,,,,,,,,,,,,,masks/mask_005.jpg,,,,,,,,,,,,,,,,,,,,,,,,,,,,,,,,,,,,,,,,,,,,,,,,0,4,4,4,1,,,,,,,,,,,,,,,,,,,,,,,,,,,,,,,,,,,,,,,,,
501087,001,2022-11-20_20h51.42.759,Info_measure_main_exp,2022.2.2,Win32,14.98127341,,,,,,,,,,,,,,,,,,,,,,,,,,,,,,5,2.5147,1,,,,,,,,,,,,0,131,5,5,2082,2178,absent_patch/patch0002082.jpg,absent_patch/patch0002178.jpg,,,,,,,,,,,,,,,,,,,,0.10462963,-0.028703704,1,0,0,response3disk,25,0.003703704,0.002777778,1,0,0,center_square,0,24,24,2,1,,,,,,,,,,,,,,,,,,,,,,,
501087,001,2022-11-20_20h51.42.759,Info_measure_main_exp,2022.2.2,Win32,14.98127341,,,,,,,,,,,,,,,,,,masks/mask_003.jpg,,,,,,,,,,,,,,,,,,,,,,,,,,,,,,,,,,,,,,,,,,,0,0,0,2,1,,,,,,,,,,,,,,,,,,,,,,,,,,,,,,,,,,,,,,,,,,,,,,
501087,001,2022-11-20_20h51.42.759,Info_measure_main_exp,2022.2.2,Win32,14.98127341,,,,,,,,,,,,,,,,,,masks/mask_001.jpg,,,,,,,,,,,,,,,,,,,,,,,,,,,,,,,,,,,,,,,,,,,0,1,1,0,1,,,,,,,,,,,,,,,,,,,,,,,,,,,,,,,,,,,,,,,,,,,,,,
501087,001,2022-11-20_20h51.42.759,Info_measure_main_exp,2022.2.2,Win32,14.98127341,,,,,,,,,,,,,,,,,,masks/mask_005.jpg,,,,,,,,,,,,,,,,,,,,,,,,,,,,,,,,,,,,,,,,,,,0,2,2,4,1,,,,,,,,,,,,,,,,,,,,,,,,,,,,,,,,,,,,,,,,,,,,,,
501087,001,2022-11-20_20h51.42.759,Info_measure_main_exp,2022.2.2,Win32,14.98127341,,,,,,,,,,,,,,,,,,masks/mask_002.jpg,,,,,,,,,,,,,,,,,,,,,,,,,,,,,,,,,,,,,,,,,,,0,3,3,1,1,,,,,,,,,,,,,,,,,,,,,,,,,,,,,,,,,,,,,,,,,,,,,,
501087,001,2022-11-20_20h51.42.759,Info_measure_main_exp,2022.2.2,Win32,14.98127341,,,,,,,,,,,,,,,,,,masks/mask_004.jpg,,,,,,,,,,,,,,,,,,,,,,,,,,,,,,,,,,,,,,,,,,,0,4,4,3,1,,,,,,,,,,,,,,,,,,,,,,,,,,,,,,,,,,,,,,,,,,,,,,
501087,001,2022-11-20_20h51.42.759,Info_measure_main_exp,2022.2.2,Win32,14.98127341,,,,,,,,,,,,,,,,,,masks/mask_002.jpg,,,,,,,,,,,,,,,,,,,,,,,,,,,,,,,,,,,,,,,,,,,,,,,,0,0,0,1,1,,,,,,,,,,,,,,,,,,,,,,,,,,,,,,,,,,,,,,,,,
501087,001,2022-11-20_20h51.42.759,Info_measure_main_exp,2022.2.2,Win32,14.98127341,,,,,,,,,,,,,,,,,,masks/mask_003.jpg,,,,,,,,,,,,,,,,,,,,,,,,,,,,,,,,,,,,,,,,,,,,,,,,0,1,1,2,1,,,,,,,,,,,,,,,,,,,,,,,,,,,,,,,,,,,,,,,,,
501087,001,2022-11-20_20h51.42.759,Info_measure_main_exp,2022.2.2,Win32,14.98127341,,,,,,,,,,,,,,,,,,masks/mask_004.jpg,,,,,,,,,,,,,,,,,,,,,,,,,,,,,,,,,,,,,,,,,,,,,,,,0,2,2,3,1,,,,,,,,,,,,,,,,,,,,,,,,,,,,,,,,,,,,,,,,,
501087,001,2022-11-20_20h51.42.759,Info_measure_main_exp,2022.2.2,Win32,14.98127341,,,,,,,,,,,,,,,,,,masks/mask_005.jpg,,,,,,,,,,,,,,,,,,,,,,,,,,,,,,,,,,,,,,,,,,,,,,,,0,3,3,4,1,,,,,,,,,,,,,,,,,,,,,,,,,,,,,,,,,,,,,,,,,
501087,001,2022-11-20_20h51.42.759,Info_measure_main_exp,2022.2.2,Win32,14.98127341,,,,,,,,,,,,,,,,,,masks/mask_001.jpg,,,,,,,,,,,,,,,,,,,,,,,,,,,,,,,,,,,,,,,,,,,,,,,,0,4,4,0,1,,,,,,,,,,,,,,,,,,,,,,,,,,,,,,,,,,,,,,,,,
501087,001,2022-11-20_20h51.42.759,Info_measure_main_exp,2022.2.2,Win32,14.98127341,,,,,,,,,,,,,,,,,,,,,,,,,,,,,,7,1.9463,1,,,,,,,,,,,,0,131,5,5,2190,2238,absent_patch/patch0002190.jpg,absent_patch/patch0002238.jpg,,,,,,,,,,,,,,,,,,,,0.075,0.125,1,0,0,response1disk,26,0.007407407,0,1,0,0,center_square,0,25,25,53,1,,,,,,,,,,,,,,,,,,,,,,,
501087,001,2022-11-20_20h51.42.759,Info_measure_main_exp,2022.2.2,Win32,14.98127341,,,,,,,,,,,,,,,,,,masks/mask_005.jpg,,,,,,,,,,,,,,,,,,,,,,,,,,,,,,,,,,,,,,,,,,,0,0,0,4,1,,,,,,,,,,,,,,,,,,,,,,,,,,,,,,,,,,,,,,,,,,,,,,
501087,001,2022-11-20_20h51.42.759,Info_measure_main_exp,2022.2.2,Win32,14.98127341,,,,,,,,,,,,,,,,,,masks/mask_004.jpg,,,,,,,,,,,,,,,,,,,,,,,,,,,,,,,,,,,,,,,,,,,0,1,1,3,1,,,,,,,,,,,,,,,,,,,,,,,,,,,,,,,,,,,,,,,,,,,,,,
501087,001,2022-11-20_20h51.42.759,Info_measure_main_exp,2022.2.2,Win32,14.98127341,,,,,,,,,,,,,,,,,,masks/mask_002.jpg,,,,,,,,,,,,,,,,,,,,,,,,,,,,,,,,,,,,,,,,,,,0,2,2,1,1,,,,,,,,,,,,,,,,,,,,,,,,,,,,,,,,,,,,,,,,,,,,,,
501087,001,2022-11-20_20h51.42.759,Info_measure_main_exp,2022.2.2,Win32,14.98127341,,,,,,,,,,,,,,,,,,masks/mask_003.jpg,,,,,,,,,,,,,,,,,,,,,,,,,,,,,,,,,,,,,,,,,,,0,3,3,2,1,,,,,,,,,,,,,,,,,,,,,,,,,,,,,,,,,,,,,,,,,,,,,,
501087,001,2022-11-20_20h51.42.759,Info_measure_main_exp,2022.2.2,Win32,14.98127341,,,,,,,,,,,,,,,,,,masks/mask_001.jpg,,,,,,,,,,,,,,,,,,,,,,,,,,,,,,,,,,,,,,,,,,,0,4,4,0,1,,,,,,,,,,,,,,,,,,,,,,,,,,,,,,,,,,,,,,,,,,,,,,
501087,001,2022-11-20_20h51.42.759,Info_measure_main_exp,2022.2.2,Win32,14.98127341,,,,,,,,,,,,,,,,,,masks/mask_004.jpg,,,,,,,,,,,,,,,,,,,,,,,,,,,,,,,,,,,,,,,,,,,,,,,,0,0,0,3,1,,,,,,,,,,,,,,,,,,,,,,,,,,,,,,,,,,,,,,,,,
501087,001,2022-11-20_20h51.42.759,Info_measure_main_exp,2022.2.2,Win32,14.98127341,,,,,,,,,,,,,,,,,,masks/mask_003.jpg,,,,,,,,,,,,,,,,,,,,,,,,,,,,,,,,,,,,,,,,,,,,,,,,0,1,1,2,1,,,,,,,,,,,,,,,,,,,,,,,,,,,,,,,,,,,,,,,,,
501087,001,2022-11-20_20h51.42.759,Info_measure_main_exp,2022.2.2,Win32,14.98127341,,,,,,,,,,,,,,,,,,masks/mask_001.jpg,,,,,,,,,,,,,,,,,,,,,,,,,,,,,,,,,,,,,,,,,,,,,,,,0,2,2,0,1,,,,,,,,,,,,,,,,,,,,,,,,,,,,,,,,,,,,,,,,,
501087,001,2022-11-20_20h51.42.759,Info_measure_main_exp,2022.2.2,Win32,14.98127341,,,,,,,,,,,,,,,,,,masks/mask_005.jpg,,,,,,,,,,,,,,,,,,,,,,,,,,,,,,,,,,,,,,,,,,,,,,,,0,3,3,4,1,,,,,,,,,,,,,,,,,,,,,,,,,,,,,,,,,,,,,,,,,
501087,001,2022-11-20_20h51.42.759,Info_measure_main_exp,2022.2.2,Win32,14.98127341,,,,,,,,,,,,,,,,,,masks/mask_002.jpg,,,,,,,,,,,,,,,,,,,,,,,,,,,,,,,,,,,,,,,,,,,,,,,,0,4,4,1,1,,,,,,,,,,,,,,,,,,,,,,,,,,,,,,,,,,,,,,,,,
501087,001,2022-11-20_20h51.42.759,Info_measure_main_exp,2022.2.2,Win32,14.98127341,,,,,,,,,,,,,,,,,,,,,,,,,,,,,,7,1.5491,1,,,,,,,,,,,,0,131,5,5,2274,2190,absent_patch/patch0002274.jpg,absent_patch/patch0002190.jpg,,,,,,,,,,,,,,,,,,,,0.015740741,0.037037037,1,0,0,response1disk,27,0.002777778,0.006481481,1,0,0,center_square,0,26,26,116,1,,,,,,,,,,,,,,,,,,,,,,,
501087,001,2022-11-20_20h51.42.759,Info_measure_main_exp,2022.2.2,Win32,14.98127341,,,,,,,,,,,,,,,,,,masks/mask_003.jpg,,,,,,,,,,,,,,,,,,,,,,,,,,,,,,,,,,,,,,,,,,,0,0,0,2,1,,,,,,,,,,,,,,,,,,,,,,,,,,,,,,,,,,,,,,,,,,,,,,
501087,001,2022-11-20_20h51.42.759,Info_measure_main_exp,2022.2.2,Win32,14.98127341,,,,,,,,,,,,,,,,,,masks/mask_004.jpg,,,,,,,,,,,,,,,,,,,,,,,,,,,,,,,,,,,,,,,,,,,0,1,1,3,1,,,,,,,,,,,,,,,,,,,,,,,,,,,,,,,,,,,,,,,,,,,,,,
501087,001,2022-11-20_20h51.42.759,Info_measure_main_exp,2022.2.2,Win32,14.98127341,,,,,,,,,,,,,,,,,,masks/mask_001.jpg,,,,,,,,,,,,,,,,,,,,,,,,,,,,,,,,,,,,,,,,,,,0,2,2,0,1,,,,,,,,,,,,,,,,,,,,,,,,,,,,,,,,,,,,,,,,,,,,,,
501087,001,2022-11-20_20h51.42.759,Info_measure_main_exp,2022.2.2,Win32,14.98127341,,,,,,,,,,,,,,,,,,masks/mask_002.jpg,,,,,,,,,,,,,,,,,,,,,,,,,,,,,,,,,,,,,,,,,,,0,3,3,1,1,,,,,,,,,,,,,,,,,,,,,,,,,,,,,,,,,,,,,,,,,,,,,,
501087,001,2022-11-20_20h51.42.759,Info_measure_main_exp,2022.2.2,Win32,14.98127341,,,,,,,,,,,,,,,,,,masks/mask_005.jpg,,,,,,,,,,,,,,,,,,,,,,,,,,,,,,,,,,,,,,,,,,,0,4,4,4,1,,,,,,,,,,,,,,,,,,,,,,,,,,,,,,,,,,,,,,,,,,,,,,
501087,001,2022-11-20_20h51.42.759,Info_measure_main_exp,2022.2.2,Win32,14.98127341,,,,,,,,,,,,,,,,,,masks/mask_001.jpg,,,,,,,,,,,,,,,,,,,,,,,,,,,,,,,,,,,,,,,,,,,,,,,,0,0,0,0,1,,,,,,,,,,,,,,,,,,,,,,,,,,,,,,,,,,,,,,,,,
501087,001,2022-11-20_20h51.42.759,Info_measure_main_exp,2022.2.2,Win32,14.98127341,,,,,,,,,,,,,,,,,,masks/mask_002.jpg,,,,,,,,,,,,,,,,,,,,,,,,,,,,,,,,,,,,,,,,,,,,,,,,0,1,1,1,1,,,,,,,,,,,,,,,,,,,,,,,,,,,,,,,,,,,,,,,,,
501087,001,2022-11-20_20h51.42.759,Info_measure_main_exp,2022.2.2,Win32,14.98127341,,,,,,,,,,,,,,,,,,masks/mask_003.jpg,,,,,,,,,,,,,,,,,,,,,,,,,,,,,,,,,,,,,,,,,,,,,,,,0,2,2,2,1,,,,,,,,,,,,,,,,,,,,,,,,,,,,,,,,,,,,,,,,,
501087,001,2022-11-20_20h51.42.759,Info_measure_main_exp,2022.2.2,Win32,14.98127341,,,,,,,,,,,,,,,,,,masks/mask_004.jpg,,,,,,,,,,,,,,,,,,,,,,,,,,,,,,,,,,,,,,,,,,,,,,,,0,3,3,3,1,,,,,,,,,,,,,,,,,,,,,,,,,,,,,,,,,,,,,,,,,
501087,001,2022-11-20_20h51.42.759,Info_measure_main_exp,2022.2.2,Win32,14.98127341,,,,,,,,,,,,,,,,,,masks/mask_005.jpg,,,,,,,,,,,,,,,,,,,,,,,,,,,,,,,,,,,,,,,,,,,,,,,,0,4,4,4,1,,,,,,,,,,,,,,,,,,,,,,,,,,,,,,,,,,,,,,,,,
501087,001,2022-11-20_20h51.42.759,Info_measure_main_exp,2022.2.2,Win32,14.98127341,,,,,,,,,,,,,,,,,,,,,,,,,,,,,,7,2.3573,1,,,,,,,,,,,,0,131,5,5,2214,2178,absent_patch/patch0002214.jpg,absent_patch/patch0002178.jpg,,,,,,,,,,,,,,,,,,,,0.042592593,0.119444444,1,0,0,response1disk,28,0.001851852,0.005555556,1,0,0,center_square,0,27,27,62,1,,,,,,,,,,,,,,,,,,,,,,,
501087,001,2022-11-20_20h51.42.759,Info_measure_main_exp,2022.2.2,Win32,14.98127341,,,,,,,,,,,,,,,,,,masks/mask_003.jpg,,,,,,,,,,,,,,,,,,,,,,,,,,,,,,,,,,,,,,,,,,,0,0,0,2,1,,,,,,,,,,,,,,,,,,,,,,,,,,,,,,,,,,,,,,,,,,,,,,
501087,001,2022-11-20_20h51.42.759,Info_measure_main_exp,2022.2.2,Win32,14.98127341,,,,,,,,,,,,,,,,,,masks/mask_004.jpg,,,,,,,,,,,,,,,,,,,,,,,,,,,,,,,,,,,,,,,,,,,0,1,1,3,1,,,,,,,,,,,,,,,,,,,,,,,,,,,,,,,,,,,,,,,,,,,,,,
501087,001,2022-11-20_20h51.42.759,Info_measure_main_exp,2022.2.2,Win32,14.98127341,,,,,,,,,,,,,,,,,,masks/mask_001.jpg,,,,,,,,,,,,,,,,,,,,,,,,,,,,,,,,,,,,,,,,,,,0,2,2,0,1,,,,,,,,,,,,,,,,,,,,,,,,,,,,,,,,,,,,,,,,,,,,,,
501087,001,2022-11-20_20h51.42.759,Info_measure_main_exp,2022.2.2,Win32,14.98127341,,,,,,,,,,,,,,,,,,masks/mask_005.jpg,,,,,,,,,,,,,,,,,,,,,,,,,,,,,,,,,,,,,,,,,,,0,3,3,4,1,,,,,,,,,,,,,,,,,,,,,,,,,,,,,,,,,,,,,,,,,,,,,,
501087,001,2022-11-20_20h51.42.759,Info_measure_main_exp,2022.2.2,Win32,14.98127341,,,,,,,,,,,,,,,,,,masks/mask_002.jpg,,,,,,,,,,,,,,,,,,,,,,,,,,,,,,,,,,,,,,,,,,,0,4,4,1,1,,,,,,,,,,,,,,,,,,,,,,,,,,,,,,,,,,,,,,,,,,,,,,
501087,001,2022-11-20_20h51.42.759,Info_measure_main_exp,2022.2.2,Win32,14.98127341,,,,,,,,,,,,,,,,,,masks/mask_005.jpg,,,,,,,,,,,,,,,,,,,,,,,,,,,,,,,,,,,,,,,,,,,,,,,,0,0,0,4,1,,,,,,,,,,,,,,,,,,,,,,,,,,,,,,,,,,,,,,,,,
501087,001,2022-11-20_20h51.42.759,Info_measure_main_exp,2022.2.2,Win32,14.98127341,,,,,,,,,,,,,,,,,,masks/mask_001.jpg,,,,,,,,,,,,,,,,,,,,,,,,,,,,,,,,,,,,,,,,,,,,,,,,0,1,1,0,1,,,,,,,,,,,,,,,,,,,,,,,,,,,,,,,,,,,,,,,,,
501087,001,2022-11-20_20h51.42.759,Info_measure_main_exp,2022.2.2,Win32,14.98127341,,,,,,,,,,,,,,,,,,masks/mask_003.jpg,,,,,,,,,,,,,,,,,,,,,,,,,,,,,,,,,,,,,,,,,,,,,,,,0,2,2,2,1,,,,,,,,,,,,,,,,,,,,,,,,,,,,,,,,,,,,,,,,,
501087,001,2022-11-20_20h51.42.759,Info_measure_main_exp,2022.2.2,Win32,14.98127341,,,,,,,,,,,,,,,,,,masks/mask_004.jpg,,,,,,,,,,,,,,,,,,,,,,,,,,,,,,,,,,,,,,,,,,,,,,,,0,3,3,3,1,,,,,,,,,,,,,,,,,,,,,,,,,,,,,,,,,,,,,,,,,
501087,001,2022-11-20_20h51.42.759,Info_measure_main_exp,2022.2.2,Win32,14.98127341,,,,,,,,,,,,,,,,,,masks/mask_002.jpg,,,,,,,,,,,,,,,,,,,,,,,,,,,,,,,,,,,,,,,,,,,,,,,,0,4,4,1,1,,,,,,,,,,,,,,,,,,,,,,,,,,,,,,,,,,,,,,,,,
501087,001,2022-11-20_20h51.42.759,Info_measure_main_exp,2022.2.2,Win32,14.98127341,,,,,,,,,,,,,,,,,,,,,,,,,,,,,,3,2.5381,1,,,,,,,,,,,,1,131,5,5,2238,1,absent_patch/patch0002238.jpg,present_patch/cong_131_5_a.jpg,,,,,,,,,,,,,,,,,,,,-0.059259259,-0.114814815,1,0,0,response5disk,29,0.001851852,0.003703704,1,0,0,center_square,0,28,28,104,1,,,,,,,,,,,,,,,,,,,,,,,
501087,001,2022-11-20_20h51.42.759,Info_measure_main_exp,2022.2.2,Win32,14.98127341,,,,,,,,,,,,,,,,,,masks/mask_004.jpg,,,,,,,,,,,,,,,,,,,,,,,,,,,,,,,,,,,,,,,,,,,0,0,0,3,1,,,,,,,,,,,,,,,,,,,,,,,,,,,,,,,,,,,,,,,,,,,,,,
501087,001,2022-11-20_20h51.42.759,Info_measure_main_exp,2022.2.2,Win32,14.98127341,,,,,,,,,,,,,,,,,,masks/mask_002.jpg,,,,,,,,,,,,,,,,,,,,,,,,,,,,,,,,,,,,,,,,,,,0,1,1,1,1,,,,,,,,,,,,,,,,,,,,,,,,,,,,,,,,,,,,,,,,,,,,,,
501087,001,2022-11-20_20h51.42.759,Info_measure_main_exp,2022.2.2,Win32,14.98127341,,,,,,,,,,,,,,,,,,masks/mask_001.jpg,,,,,,,,,,,,,,,,,,,,,,,,,,,,,,,,,,,,,,,,,,,0,2,2,0,1,,,,,,,,,,,,,,,,,,,,,,,,,,,,,,,,,,,,,,,,,,,,,,
501087,001,2022-11-20_20h51.42.759,Info_measure_main_exp,2022.2.2,Win32,14.98127341,,,,,,,,,,,,,,,,,,masks/mask_005.jpg,,,,,,,,,,,,,,,,,,,,,,,,,,,,,,,,,,,,,,,,,,,0,3,3,4,1,,,,,,,,,,,,,,,,,,,,,,,,,,,,,,,,,,,,,,,,,,,,,,
501087,001,2022-11-20_20h51.42.759,Info_measure_main_exp,2022.2.2,Win32,14.98127341,,,,,,,,,,,,,,,,,,masks/mask_003.jpg,,,,,,,,,,,,,,,,,,,,,,,,,,,,,,,,,,,,,,,,,,,0,4,4,2,1,,,,,,,,,,,,,,,,,,,,,,,,,,,,,,,,,,,,,,,,,,,,,,
501087,001,2022-11-20_20h51.42.759,Info_measure_main_exp,2022.2.2,Win32,14.98127341,,,,,,,,,,,,,,,,,,masks/mask_005.jpg,,,,,,,,,,,,,,,,,,,,,,,,,,,,,,,,,,,,,,,,,,,,,,,,0,0,0,4,1,,,,,,,,,,,,,,,,,,,,,,,,,,,,,,,,,,,,,,,,,
501087,001,2022-11-20_20h51.42.759,Info_measure_main_exp,2022.2.2,Win32,14.98127341,,,,,,,,,,,,,,,,,,masks/mask_002.jpg,,,,,,,,,,,,,,,,,,,,,,,,,,,,,,,,,,,,,,,,,,,,,,,,0,1,1,1,1,,,,,,,,,,,,,,,,,,,,,,,,,,,,,,,,,,,,,,,,,
501087,001,2022-11-20_20h51.42.759,Info_measure_main_exp,2022.2.2,Win32,14.98127341,,,,,,,,,,,,,,,,,,masks/mask_001.jpg,,,,,,,,,,,,,,,,,,,,,,,,,,,,,,,,,,,,,,,,,,,,,,,,0,2,2,0,1,,,,,,,,,,,,,,,,,,,,,,,,,,,,,,,,,,,,,,,,,
501087,001,2022-11-20_20h51.42.759,Info_measure_main_exp,2022.2.2,Win32,14.98127341,,,,,,,,,,,,,,,,,,masks/mask_004.jpg,,,,,,,,,,,,,,,,,,,,,,,,,,,,,,,,,,,,,,,,,,,,,,,,0,3,3,3,1,,,,,,,,,,,,,,,,,,,,,,,,,,,,,,,,,,,,,,,,,
501087,001,2022-11-20_20h51.42.759,Info_measure_main_exp,2022.2.2,Win32,14.98127341,,,,,,,,,,,,,,,,,,masks/mask_003.jpg,,,,,,,,,,,,,,,,,,,,,,,,,,,,,,,,,,,,,,,,,,,,,,,,0,4,4,2,1,,,,,,,,,,,,,,,,,,,,,,,,,,,,,,,,,,,,,,,,,
501087,001,2022-11-20_20h51.42.759,Info_measure_main_exp,2022.2.2,Win32,14.98127341,,,,,,,,,,,,,,,,,,,,,,,,,,,,,,0,1.1881,1,,,,,,,,,,,,0,131,5,5,2166,2166,absent_patch/patch0002166.jpg,absent_patch/patch0002166.jpg,,,,,,,,,,,,,,,,,,,,-0.043518519,0.189814815,1,0,0,response7disk,30,-0.000925926,-0.000925926,1,0,0,center_square,0,29,29,42,1,,,,,,,,,,,,,,,,,,,,,,,
501087,001,2022-11-20_20h51.42.759,Info_measure_main_exp,2022.2.2,Win32,14.98127341,,,,,,,,,,,,,,,,,,masks/mask_001.jpg,,,,,,,,,,,,,,,,,,,,,,,,,,,,,,,,,,,,,,,,,,,0,0,0,0,1,,,,,,,,,,,,,,,,,,,,,,,,,,,,,,,,,,,,,,,,,,,,,,
501087,001,2022-11-20_20h51.42.759,Info_measure_main_exp,2022.2.2,Win32,14.98127341,,,,,,,,,,,,,,,,,,masks/mask_003.jpg,,,,,,,,,,,,,,,,,,,,,,,,,,,,,,,,,,,,,,,,,,,0,1,1,2,1,,,,,,,,,,,,,,,,,,,,,,,,,,,,,,,,,,,,,,,,,,,,,,
501087,001,2022-11-20_20h51.42.759,Info_measure_main_exp,2022.2.2,Win32,14.98127341,,,,,,,,,,,,,,,,,,masks/mask_005.jpg,,,,,,,,,,,,,,,,,,,,,,,,,,,,,,,,,,,,,,,,,,,0,2,2,4,1,,,,,,,,,,,,,,,,,,,,,,,,,,,,,,,,,,,,,,,,,,,,,,
501087,001,2022-11-20_20h51.42.759,Info_measure_main_exp,2022.2.2,Win32,14.98127341,,,,,,,,,,,,,,,,,,masks/mask_004.jpg,,,,,,,,,,,,,,,,,,,,,,,,,,,,,,,,,,,,,,,,,,,0,3,3,3,1,,,,,,,,,,,,,,,,,,,,,,,,,,,,,,,,,,,,,,,,,,,,,,
501087,001,2022-11-20_20h51.42.759,Info_measure_main_exp,2022.2.2,Win32,14.98127341,,,,,,,,,,,,,,,,,,masks/mask_002.jpg,,,,,,,,,,,,,,,,,,,,,,,,,,,,,,,,,,,,,,,,,,,0,4,4,1,1,,,,,,,,,,,,,,,,,,,,,,,,,,,,,,,,,,,,,,,,,,,,,,
501087,001,2022-11-20_20h51.42.759,Info_measure_main_exp,2022.2.2,Win32,14.98127341,,,,,,,,,,,,,,,,,,masks/mask_002.jpg,,,,,,,,,,,,,,,,,,,,,,,,,,,,,,,,,,,,,,,,,,,,,,,,0,0,0,1,1,,,,,,,,,,,,,,,,,,,,,,,,,,,,,,,,,,,,,,,,,
501087,001,2022-11-20_20h51.42.759,Info_measure_main_exp,2022.2.2,Win32,14.98127341,,,,,,,,,,,,,,,,,,masks/mask_004.jpg,,,,,,,,,,,,,,,,,,,,,,,,,,,,,,,,,,,,,,,,,,,,,,,,0,1,1,3,1,,,,,,,,,,,,,,,,,,,,,,,,,,,,,,,,,,,,,,,,,
501087,001,2022-11-20_20h51.42.759,Info_measure_main_exp,2022.2.2,Win32,14.98127341,,,,,,,,,,,,,,,,,,masks/mask_001.jpg,,,,,,,,,,,,,,,,,,,,,,,,,,,,,,,,,,,,,,,,,,,,,,,,0,2,2,0,1,,,,,,,,,,,,,,,,,,,,,,,,,,,,,,,,,,,,,,,,,
501087,001,2022-11-20_20h51.42.759,Info_measure_main_exp,2022.2.2,Win32,14.98127341,,,,,,,,,,,,,,,,,,masks/mask_005.jpg,,,,,,,,,,,,,,,,,,,,,,,,,,,,,,,,,,,,,,,,,,,,,,,,0,3,3,4,1,,,,,,,,,,,,,,,,,,,,,,,,,,,,,,,,,,,,,,,,,
501087,001,2022-11-20_20h51.42.759,Info_measure_main_exp,2022.2.2,Win32,14.98127341,,,,,,,,,,,,,,,,,,masks/mask_003.jpg,,,,,,,,,,,,,,,,,,,,,,,,,,,,,,,,,,,,,,,,,,,,,,,,0,4,4,2,1,,,,,,,,,,,,,,,,,,,,,,,,,,,,,,,,,,,,,,,,,
501087,001,2022-11-20_20h51.42.759,Info_measure_main_exp,2022.2.2,Win32,14.98127341,,,,,,,,,,,,,,,,,,,,,,,,,,,,,,2,3.7084,1,,,,,,,,,,,,0,131,5,5,2238,2166,absent_patch/patch0002238.jpg,absent_patch/patch0002166.jpg,,,,,,,,,,,,,,,,,,,,-0.1,-0.039814815,1,0,0,response5disk,31,0.007407407,0.007407407,1,0,0,center_square,0,30,30,118,1,,,,,,,,,,,,,,,,,,,,,,,
501087,001,2022-11-20_20h51.42.759,Info_measure_main_exp,2022.2.2,Win32,14.98127341,,,,,,,,,,,,,,,,,,masks/mask_001.jpg,,,,,,,,,,,,,,,,,,,,,,,,,,,,,,,,,,,,,,,,,,,0,0,0,0,1,,,,,,,,,,,,,,,,,,,,,,,,,,,,,,,,,,,,,,,,,,,,,,
501087,001,2022-11-20_20h51.42.759,Info_measure_main_exp,2022.2.2,Win32,14.98127341,,,,,,,,,,,,,,,,,,masks/mask_004.jpg,,,,,,,,,,,,,,,,,,,,,,,,,,,,,,,,,,,,,,,,,,,0,1,1,3,1,,,,,,,,,,,,,,,,,,,,,,,,,,,,,,,,,,,,,,,,,,,,,,
501087,001,2022-11-20_20h51.42.759,Info_measure_main_exp,2022.2.2,Win32,14.98127341,,,,,,,,,,,,,,,,,,masks/mask_005.jpg,,,,,,,,,,,,,,,,,,,,,,,,,,,,,,,,,,,,,,,,,,,0,2,2,4,1,,,,,,,,,,,,,,,,,,,,,,,,,,,,,,,,,,,,,,,,,,,,,,
501087,001,2022-11-20_20h51.42.759,Info_measure_main_exp,2022.2.2,Win32,14.98127341,,,,,,,,,,,,,,,,,,masks/mask_003.jpg,,,,,,,,,,,,,,,,,,,,,,,,,,,,,,,,,,,,,,,,,,,0,3,3,2,1,,,,,,,,,,,,,,,,,,,,,,,,,,,,,,,,,,,,,,,,,,,,,,
501087,001,2022-11-20_20h51.42.759,Info_measure_main_exp,2022.2.2,Win32,14.98127341,,,,,,,,,,,,,,,,,,masks/mask_002.jpg,,,,,,,,,,,,,,,,,,,,,,,,,,,,,,,,,,,,,,,,,,,0,4,4,1,1,,,,,,,,,,,,,,,,,,,,,,,,,,,,,,,,,,,,,,,,,,,,,,
501087,001,2022-11-20_20h51.42.759,Info_measure_main_exp,2022.2.2,Win32,14.98127341,,,,,,,,,,,,,,,,,,masks/mask_005.jpg,,,,,,,,,,,,,,,,,,,,,,,,,,,,,,,,,,,,,,,,,,,,,,,,0,0,0,4,1,,,,,,,,,,,,,,,,,,,,,,,,,,,,,,,,,,,,,,,,,
501087,001,2022-11-20_20h51.42.759,Info_measure_main_exp,2022.2.2,Win32,14.98127341,,,,,,,,,,,,,,,,,,masks/mask_004.jpg,,,,,,,,,,,,,,,,,,,,,,,,,,,,,,,,,,,,,,,,,,,,,,,,0,1,1,3,1,,,,,,,,,,,,,,,,,,,,,,,,,,,,,,,,,,,,,,,,,
501087,001,2022-11-20_20h51.42.759,Info_measure_main_exp,2022.2.2,Win32,14.98127341,,,,,,,,,,,,,,,,,,masks/mask_002.jpg,,,,,,,,,,,,,,,,,,,,,,,,,,,,,,,,,,,,,,,,,,,,,,,,0,2,2,1,1,,,,,,,,,,,,,,,,,,,,,,,,,,,,,,,,,,,,,,,,,
501087,001,2022-11-20_20h51.42.759,Info_measure_main_exp,2022.2.2,Win32,14.98127341,,,,,,,,,,,,,,,,,,masks/mask_001.jpg,,,,,,,,,,,,,,,,,,,,,,,,,,,,,,,,,,,,,,,,,,,,,,,,0,3,3,0,1,,,,,,,,,,,,,,,,,,,,,,,,,,,,,,,,,,,,,,,,,
501087,001,2022-11-20_20h51.42.759,Info_measure_main_exp,2022.2.2,Win32,14.98127341,,,,,,,,,,,,,,,,,,masks/mask_003.jpg,,,,,,,,,,,,,,,,,,,,,,,,,,,,,,,,,,,,,,,,,,,,,,,,0,4,4,2,1,,,,,,,,,,,,,,,,,,,,,,,,,,,,,,,,,,,,,,,,,
501087,001,2022-11-20_20h51.42.759,Info_measure_main_exp,2022.2.2,Win32,14.98127341,,,,,,,,,,,,,,,,,,,,,,,,,,,,,,7,2.2003,1,,,,,,,,,,,,0,131,5,5,1950,2166,absent_patch/patch0001950.jpg,absent_patch/patch0002166.jpg,,,,,,,,,,,,,,,,,,,,0.055555556,0.088888889,1,0,0,response1disk,32,0.00462963,-0.00462963,1,0,0,center_square,0,31,31,0,1,,,,,,,,,,,,,,,,,,,,,,,
501087,001,2022-11-20_20h51.42.759,Info_measure_main_exp,2022.2.2,Win32,14.98127341,,,,,,,,,,,,,,,,,,masks/mask_004.jpg,,,,,,,,,,,,,,,,,,,,,,,,,,,,,,,,,,,,,,,,,,,0,0,0,3,1,,,,,,,,,,,,,,,,,,,,,,,,,,,,,,,,,,,,,,,,,,,,,,
501087,001,2022-11-20_20h51.42.759,Info_measure_main_exp,2022.2.2,Win32,14.98127341,,,,,,,,,,,,,,,,,,masks/mask_002.jpg,,,,,,,,,,,,,,,,,,,,,,,,,,,,,,,,,,,,,,,,,,,0,1,1,1,1,,,,,,,,,,,,,,,,,,,,,,,,,,,,,,,,,,,,,,,,,,,,,,
501087,001,2022-11-20_20h51.42.759,Info_measure_main_exp,2022.2.2,Win32,14.98127341,,,,,,,,,,,,,,,,,,masks/mask_003.jpg,,,,,,,,,,,,,,,,,,,,,,,,,,,,,,,,,,,,,,,,,,,0,2,2,2,1,,,,,,,,,,,,,,,,,,,,,,,,,,,,,,,,,,,,,,,,,,,,,,
501087,001,2022-11-20_20h51.42.759,Info_measure_main_exp,2022.2.2,Win32,14.98127341,,,,,,,,,,,,,,,,,,masks/mask_001.jpg,,,,,,,,,,,,,,,,,,,,,,,,,,,,,,,,,,,,,,,,,,,0,3,3,0,1,,,,,,,,,,,,,,,,,,,,,,,,,,,,,,,,,,,,,,,,,,,,,,
501087,001,2022-11-20_20h51.42.759,Info_measure_main_exp,2022.2.2,Win32,14.98127341,,,,,,,,,,,,,,,,,,masks/mask_005.jpg,,,,,,,,,,,,,,,,,,,,,,,,,,,,,,,,,,,,,,,,,,,0,4,4,4,1,,,,,,,,,,,,,,,,,,,,,,,,,,,,,,,,,,,,,,,,,,,,,,
501087,001,2022-11-20_20h51.42.759,Info_measure_main_exp,2022.2.2,Win32,14.98127341,,,,,,,,,,,,,,,,,,masks/mask_001.jpg,,,,,,,,,,,,,,,,,,,,,,,,,,,,,,,,,,,,,,,,,,,,,,,,0,0,0,0,1,,,,,,,,,,,,,,,,,,,,,,,,,,,,,,,,,,,,,,,,,
501087,001,2022-11-20_20h51.42.759,Info_measure_main_exp,2022.2.2,Win32,14.98127341,,,,,,,,,,,,,,,,,,masks/mask_004.jpg,,,,,,,,,,,,,,,,,,,,,,,,,,,,,,,,,,,,,,,,,,,,,,,,0,1,1,3,1,,,,,,,,,,,,,,,,,,,,,,,,,,,,,,,,,,,,,,,,,
501087,001,2022-11-20_20h51.42.759,Info_measure_main_exp,2022.2.2,Win32,14.98127341,,,,,,,,,,,,,,,,,,masks/mask_003.jpg,,,,,,,,,,,,,,,,,,,,,,,,,,,,,,,,,,,,,,,,,,,,,,,,0,2,2,2,1,,,,,,,,,,,,,,,,,,,,,,,,,,,,,,,,,,,,,,,,,
501087,001,2022-11-20_20h51.42.759,Info_measure_main_exp,2022.2.2,Win32,14.98127341,,,,,,,,,,,,,,,,,,masks/mask_002.jpg,,,,,,,,,,,,,,,,,,,,,,,,,,,,,,,,,,,,,,,,,,,,,,,,0,3,3,1,1,,,,,,,,,,,,,,,,,,,,,,,,,,,,,,,,,,,,,,,,,
501087,001,2022-11-20_20h51.42.759,Info_measure_main_exp,2022.2.2,Win32,14.98127341,,,,,,,,,,,,,,,,,,masks/mask_005.jpg,,,,,,,,,,,,,,,,,,,,,,,,,,,,,,,,,,,,,,,,,,,,,,,,0,4,4,4,1,,,,,,,,,,,,,,,,,,,,,,,,,,,,,,,,,,,,,,,,,
501087,001,2022-11-20_20h51.42.759,Info_measure_main_exp,2022.2.2,Win32,14.98127341,,,,,,,,,,,,,,,,,,,,,,,,,,,,,,4,2.3291,1,,,,,,,,,,,,0,131,5,5,1950,2082,absent_patch/patch0001950.jpg,absent_patch/patch0002082.jpg,,,,,,,,,,,,,,,,,,,,0.065740741,-0.12962963,1,0,0,response3disk,33,0.003703704,0.005555556,1,0,0,center_square,0,32,32,12,1,,,,,,,,,,,,,,,,,,,,,,,
501087,001,2022-11-20_20h51.42.759,Info_measure_main_exp,2022.2.2,Win32,14.98127341,,,,,,,,,,,,,,,,,,masks/mask_005.jpg,,,,,,,,,,,,,,,,,,,,,,,,,,,,,,,,,,,,,,,,,,,0,0,0,4,1,,,,,,,,,,,,,,,,,,,,,,,,,,,,,,,,,,,,,,,,,,,,,,
501087,001,2022-11-20_20h51.42.759,Info_measure_main_exp,2022.2.2,Win32,14.98127341,,,,,,,,,,,,,,,,,,masks/mask_004.jpg,,,,,,,,,,,,,,,,,,,,,,,,,,,,,,,,,,,,,,,,,,,0,1,1,3,1,,,,,,,,,,,,,,,,,,,,,,,,,,,,,,,,,,,,,,,,,,,,,,
501087,001,2022-11-20_20h51.42.759,Info_measure_main_exp,2022.2.2,Win32,14.98127341,,,,,,,,,,,,,,,,,,masks/mask_003.jpg,,,,,,,,,,,,,,,,,,,,,,,,,,,,,,,,,,,,,,,,,,,0,2,2,2,1,,,,,,,,,,,,,,,,,,,,,,,,,,,,,,,,,,,,,,,,,,,,,,
501087,001,2022-11-20_20h51.42.759,Info_measure_main_exp,2022.2.2,Win32,14.98127341,,,,,,,,,,,,,,,,,,masks/mask_001.jpg,,,,,,,,,,,,,,,,,,,,,,,,,,,,,,,,,,,,,,,,,,,0,3,3,0,1,,,,,,,,,,,,,,,,,,,,,,,,,,,,,,,,,,,,,,,,,,,,,,
501087,001,2022-11-20_20h51.42.759,Info_measure_main_exp,2022.2.2,Win32,14.98127341,,,,,,,,,,,,,,,,,,masks/mask_002.jpg,,,,,,,,,,,,,,,,,,,,,,,,,,,,,,,,,,,,,,,,,,,0,4,4,1,1,,,,,,,,,,,,,,,,,,,,,,,,,,,,,,,,,,,,,,,,,,,,,,
501087,001,2022-11-20_20h51.42.759,Info_measure_main_exp,2022.2.2,Win32,14.98127341,,,,,,,,,,,,,,,,,,masks/mask_005.jpg,,,,,,,,,,,,,,,,,,,,,,,,,,,,,,,,,,,,,,,,,,,,,,,,0,0,0,4,1,,,,,,,,,,,,,,,,,,,,,,,,,,,,,,,,,,,,,,,,,
501087,001,2022-11-20_20h51.42.759,Info_measure_main_exp,2022.2.2,Win32,14.98127341,,,,,,,,,,,,,,,,,,masks/mask_001.jpg,,,,,,,,,,,,,,,,,,,,,,,,,,,,,,,,,,,,,,,,,,,,,,,,0,1,1,0,1,,,,,,,,,,,,,,,,,,,,,,,,,,,,,,,,,,,,,,,,,
501087,001,2022-11-20_20h51.42.759,Info_measure_main_exp,2022.2.2,Win32,14.98127341,,,,,,,,,,,,,,,,,,masks/mask_004.jpg,,,,,,,,,,,,,,,,,,,,,,,,,,,,,,,,,,,,,,,,,,,,,,,,0,2,2,3,1,,,,,,,,,,,,,,,,,,,,,,,,,,,,,,,,,,,,,,,,,
501087,001,2022-11-20_20h51.42.759,Info_measure_main_exp,2022.2.2,Win32,14.98127341,,,,,,,,,,,,,,,,,,masks/mask_002.jpg,,,,,,,,,,,,,,,,,,,,,,,,,,,,,,,,,,,,,,,,,,,,,,,,0,3,3,1,1,,,,,,,,,,,,,,,,,,,,,,,,,,,,,,,,,,,,,,,,,
501087,001,2022-11-20_20h51.42.759,Info_measure_main_exp,2022.2.2,Win32,14.98127341,,,,,,,,,,,,,,,,,,masks/mask_003.jpg,,,,,,,,,,,,,,,,,,,,,,,,,,,,,,,,,,,,,,,,,,,,,,,,0,4,4,2,1,,,,,,,,,,,,,,,,,,,,,,,,,,,,,,,,,,,,,,,,,
501087,001,2022-11-20_20h51.42.759,Info_measure_main_exp,2022.2.2,Win32,14.98127341,,,,,,,,,,,,,,,,,,,,,,,,,,,,,,7,1.1535,1,,,,,,,,,,,,0,131,5,5,2238,2214,absent_patch/patch0002238.jpg,absent_patch/patch0002214.jpg,,,,,,,,,,,,,,,,,,,,0.048148148,0.103703704,1,0,0,response1disk,34,-0.00462963,-0.001851852,1,0,0,center_square,0,33,33,81,1,,,,,,,,,,,,,,,,,,,,,,,
501087,001,2022-11-20_20h51.42.759,Info_measure_main_exp,2022.2.2,Win32,14.98127341,,,,,,,,,,,,,,,,,,masks/mask_002.jpg,,,,,,,,,,,,,,,,,,,,,,,,,,,,,,,,,,,,,,,,,,,0,0,0,1,1,,,,,,,,,,,,,,,,,,,,,,,,,,,,,,,,,,,,,,,,,,,,,,
501087,001,2022-11-20_20h51.42.759,Info_measure_main_exp,2022.2.2,Win32,14.98127341,,,,,,,,,,,,,,,,,,masks/mask_004.jpg,,,,,,,,,,,,,,,,,,,,,,,,,,,,,,,,,,,,,,,,,,,0,1,1,3,1,,,,,,,,,,,,,,,,,,,,,,,,,,,,,,,,,,,,,,,,,,,,,,
501087,001,2022-11-20_20h51.42.759,Info_measure_main_exp,2022.2.2,Win32,14.98127341,,,,,,,,,,,,,,,,,,masks/mask_001.jpg,,,,,,,,,,,,,,,,,,,,,,,,,,,,,,,,,,,,,,,,,,,0,2,2,0,1,,,,,,,,,,,,,,,,,,,,,,,,,,,,,,,,,,,,,,,,,,,,,,
501087,001,2022-11-20_20h51.42.759,Info_measure_main_exp,2022.2.2,Win32,14.98127341,,,,,,,,,,,,,,,,,,masks/mask_003.jpg,,,,,,,,,,,,,,,,,,,,,,,,,,,,,,,,,,,,,,,,,,,0,3,3,2,1,,,,,,,,,,,,,,,,,,,,,,,,,,,,,,,,,,,,,,,,,,,,,,
501087,001,2022-11-20_20h51.42.759,Info_measure_main_exp,2022.2.2,Win32,14.98127341,,,,,,,,,,,,,,,,,,masks/mask_005.jpg,,,,,,,,,,,,,,,,,,,,,,,,,,,,,,,,,,,,,,,,,,,0,4,4,4,1,,,,,,,,,,,,,,,,,,,,,,,,,,,,,,,,,,,,,,,,,,,,,,
501087,001,2022-11-20_20h51.42.759,Info_measure_main_exp,2022.2.2,Win32,14.98127341,,,,,,,,,,,,,,,,,,masks/mask_003.jpg,,,,,,,,,,,,,,,,,,,,,,,,,,,,,,,,,,,,,,,,,,,,,,,,0,0,0,2,1,,,,,,,,,,,,,,,,,,,,,,,,,,,,,,,,,,,,,,,,,
501087,001,2022-11-20_20h51.42.759,Info_measure_main_exp,2022.2.2,Win32,14.98127341,,,,,,,,,,,,,,,,,,masks/mask_004.jpg,,,,,,,,,,,,,,,,,,,,,,,,,,,,,,,,,,,,,,,,,,,,,,,,0,1,1,3,1,,,,,,,,,,,,,,,,,,,,,,,,,,,,,,,,,,,,,,,,,
501087,001,2022-11-20_20h51.42.759,Info_measure_main_exp,2022.2.2,Win32,14.98127341,,,,,,,,,,,,,,,,,,masks/mask_005.jpg,,,,,,,,,,,,,,,,,,,,,,,,,,,,,,,,,,,,,,,,,,,,,,,,0,2,2,4,1,,,,,,,,,,,,,,,,,,,,,,,,,,,,,,,,,,,,,,,,,
501087,001,2022-11-20_20h51.42.759,Info_measure_main_exp,2022.2.2,Win32,14.98127341,,,,,,,,,,,,,,,,,,masks/mask_002.jpg,,,,,,,,,,,,,,,,,,,,,,,,,,,,,,,,,,,,,,,,,,,,,,,,0,3,3,1,1,,,,,,,,,,,,,,,,,,,,,,,,,,,,,,,,,,,,,,,,,
