participant,session,date,expName,psychopyVersion,OS,frameRate,space_press_continue.keys,space_press_continue.rt,space_press_continue_2.keys,space_press_continue_2.rt,space_press_continue_3.keys,space_press_continue_3.rt,space_press_continue_4.keys,space_press_continue_4.rt,space_press_continue_5.keys,space_press_continue_5.rt,space_press_continue_6.keys,space_press_continue_6.rt,prac_mask_loop_1.thisRepN,prac_mask_loop_1.thisTrialN,prac_mask_loop_1.thisN,prac_mask_loop_1.thisIndex,prac_mask_loop_1.ran,mask_name,prac_mask_loop_2.thisRepN,prac_mask_loop_2.thisTrialN,prac_mask_loop_2.thisN,prac_mask_loop_2.thisIndex,prac_mask_loop_2.ran,mouse_2.x,mouse_2.y,mouse_2.leftButton,mouse_2.midButton,mouse_2.rightButton,mouse_2.clicked_name,similarity,response_time,Pass,mouse_12.x,mouse_12.y,mouse_12.leftButton,mouse_12.midButton,mouse_12.rightButton,mouse_12.clicked_name,prac_loop.thisRepN,prac_loop.thisTrialN,prac_loop.thisN,prac_loop.thisIndex,prac_loop.ran,Pair_type,Image_num,Patch_1_loc,Patch_2_loc,Patch_1_info,Patch_2_info,Patch_1_name,Patch_2_name,mouse_1.x,mouse_1.y,mouse_1.leftButton,mouse_1.midButton,mouse_1.rightButton,mouse_1.time,mouse_1.clicked_name,space_press_continue_7.keys,space_press_continue_7.rt,mask_loop.thisRepN,mask_loop.thisTrialN,mask_loop.thisN,mask_loop.thisIndex,mask_loop.ran,mask_loop_2.thisRepN,mask_loop_2.thisTrialN,mask_loop_2.thisN,mask_loop_2.thisIndex,mask_loop_2.ran,mouse.x,mouse.y,mouse.leftButton,mouse.midButton,mouse.rightButton,mouse.clicked_name,trialNumber,mouse_11.x,mouse_11.y,mouse_11.leftButton,mouse_11.midButton,mouse_11.rightButton,mouse_11.clicked_name,first_pass_loop.thisRepN,first_pass_loop.thisTrialN,first_pass_loop.thisN,first_pass_loop.thisIndex,first_pass_loop.ran,mask_loop_3.thisRepN,mask_loop_3.thisTrialN,mask_loop_3.thisN,mask_loop_3.thisIndex,mask_loop_3.ran,mask_loop_4.thisRepN,mask_loop_4.thisTrialN,mask_loop_4.thisN,mask_loop_4.thisIndex,mask_loop_4.ran,mouse_3.x,mouse_3.y,mouse_3.leftButton,mouse_3.midButton,mouse_3.rightButton,mouse_3.clicked_name,double_pass_loop.thisRepN,double_pass_loop.thisTrialN,double_pass_loop.thisN,double_pass_loop.thisIndex,double_pass_loop.ran,space_exit.keys,space_exit.rt
509275,001,2022-11-21_24h53.24.788,Info_measure_main_exp,2022.2.2,Win32,11.9988961,,,,,,,,,,,,,,,,,,,,,,,,,,,,,,,,,,,,,,,,,,,,,,,,,,,,,,,,,,,,,,,,,,,,,,,,,,,,,,,,,,,,,,,,,,,,,,,,,,,,,,,,,,,,,,,
509275,001,2022-11-21_24h53.24.788,Info_measure_main_exp,2022.2.2,Win32,11.9988961,,,,,,,,,,,,,,,,,,,,,,,,,,,,,,,,,,,,,,,,,,,,,,,,,,,,,,,,,,,,,,,,,,,,,,,,,,,,,,,,,,,,,,,,,,,,,,,,,,,,,,,,,,,,,,,
509275,001,2022-11-21_24h53.24.788,Info_measure_main_exp,2022.2.2,Win32,11.9988961,space,10.2295,,,,,,,,,,,,,,,,,,,,,,,,,,,,,,,,,,,,,,,,,,,,,,,,,,,,,,,,,,,,,,,,,,,,,,,,,,,,,,,,,,,,,,,,,,,,,,,,,,,,,,,,,,,,,
509275,001,2022-11-21_24h53.24.788,Info_measure_main_exp,2022.2.2,Win32,11.9988961,,,space,21.8004,,,,,,,,,,,,,,,,,,,,,,,,,,,,,,,,,,,,,,,,,,,,,,,,,,,,,,,,,,,,,,,,,,,,,,,,,,,,,,,,,,,,,,,,,,,,,,,,,,,,,,,,,,,
509275,001,2022-11-21_24h53.24.788,Info_measure_main_exp,2022.2.2,Win32,11.9988961,,,,,space,11.4186,,,,,,,,,,,,,,,,,,,,,,,,,,,,,,,,,,,,,,,,,,,,,,,,,,,,,,,,,,,,,,,,,,,,,,,,,,,,,,,,,,,,,,,,,,,,,,,,,,,,,,,,,
509275,001,2022-11-21_24h53.24.788,Info_measure_main_exp,2022.2.2,Win32,11.9988961,,,,,,,space,20.6949,,,,,,,,,,,,,,,,,,,,,,,,,,,,,,,,,,,,,,,,,,,,,,,,,,,,,,,,,,,,,,,,,,,,,,,,,,,,,,,,,,,,,,,,,,,,,,,,,,,,,,,
509275,001,2022-11-21_24h53.24.788,Info_measure_main_exp,2022.2.2,Win32,11.9988961,,,,,,,,,space,7.7802,,,,,,,,,,,,,,,,,,,,,,,,,,,,,,,,,,,,,,,,,,,,,,,,,,,,,,,,,,,,,,,,,,,,,,,,,,,,,,,,,,,,,,,,,,,,,,,,,,,,,
509275,001,2022-11-21_24h53.24.788,Info_measure_main_exp,2022.2.2,Win32,11.9988961,,,,,,,,,,,space,4.9132,,,,,,,,,,,,,,,,,,,,,,,,,,,,,,,,,,,,,,,,,,,,,,,,,,,,,,,,,,,,,,,,,,,,,,,,,,,,,,,,,,,,,,,,,,,,,,,,,,,
509275,001,2022-11-21_24h53.24.788,Info_measure_main_exp,2022.2.2,Win32,11.9988961,,,,,,,,,,,,,0,0,0,0,1,masks/mask_001.jpg,,,,,,,,,,,,,,,,,,,,,,,,,,,,,,,,,,,,,,,,,,,,,,,,,,,,,,,,,,,,,,,,,,,,,,,,,,,,,,,,,,,,,,,,,,,,,
509275,001,2022-11-21_24h53.24.788,Info_measure_main_exp,2022.2.2,Win32,11.9988961,,,,,,,,,,,,,0,1,1,3,1,masks/mask_004.jpg,,,,,,,,,,,,,,,,,,,,,,,,,,,,,,,,,,,,,,,,,,,,,,,,,,,,,,,,,,,,,,,,,,,,,,,,,,,,,,,,,,,,,,,,,,,,,
509275,001,2022-11-21_24h53.24.788,Info_measure_main_exp,2022.2.2,Win32,11.9988961,,,,,,,,,,,,,0,2,2,2,1,masks/mask_003.jpg,,,,,,,,,,,,,,,,,,,,,,,,,,,,,,,,,,,,,,,,,,,,,,,,,,,,,,,,,,,,,,,,,,,,,,,,,,,,,,,,,,,,,,,,,,,,,
509275,001,2022-11-21_24h53.24.788,Info_measure_main_exp,2022.2.2,Win32,11.9988961,,,,,,,,,,,,,0,3,3,1,1,masks/mask_002.jpg,,,,,,,,,,,,,,,,,,,,,,,,,,,,,,,,,,,,,,,,,,,,,,,,,,,,,,,,,,,,,,,,,,,,,,,,,,,,,,,,,,,,,,,,,,,,,
509275,001,2022-11-21_24h53.24.788,Info_measure_main_exp,2022.2.2,Win32,11.9988961,,,,,,,,,,,,,0,4,4,4,1,masks/mask_005.jpg,,,,,,,,,,,,,,,,,,,,,,,,,,,,,,,,,,,,,,,,,,,,,,,,,,,,,,,,,,,,,,,,,,,,,,,,,,,,,,,,,,,,,,,,,,,,,
509275,001,2022-11-21_24h53.24.788,Info_measure_main_exp,2022.2.2,Win32,11.9988961,,,,,,,,,,,,,,,,,,masks/mask_003.jpg,0,0,0,2,1,,,,,,,,,,,,,,,,,,,,,,,,,,,,,,,,,,,,,,,,,,,,,,,,,,,,,,,,,,,,,,,,,,,,,,,,,,,,,,,,,,,,,,,,
509275,001,2022-11-21_24h53.24.788,Info_measure_main_exp,2022.2.2,Win32,11.9988961,,,,,,,,,,,,,,,,,,masks/mask_001.jpg,0,1,1,0,1,,,,,,,,,,,,,,,,,,,,,,,,,,,,,,,,,,,,,,,,,,,,,,,,,,,,,,,,,,,,,,,,,,,,,,,,,,,,,,,,,,,,,,,,
509275,001,2022-11-21_24h53.24.788,Info_measure_main_exp,2022.2.2,Win32,11.9988961,,,,,,,,,,,,,,,,,,masks/mask_005.jpg,0,2,2,4,1,,,,,,,,,,,,,,,,,,,,,,,,,,,,,,,,,,,,,,,,,,,,,,,,,,,,,,,,,,,,,,,,,,,,,,,,,,,,,,,,,,,,,,,,
509275,001,2022-11-21_24h53.24.788,Info_measure_main_exp,2022.2.2,Win32,11.9988961,,,,,,,,,,,,,,,,,,masks/mask_002.jpg,0,3,3,1,1,,,,,,,,,,,,,,,,,,,,,,,,,,,,,,,,,,,,,,,,,,,,,,,,,,,,,,,,,,,,,,,,,,,,,,,,,,,,,,,,,,,,,,,,
509275,001,2022-11-21_24h53.24.788,Info_measure_main_exp,2022.2.2,Win32,11.9988961,,,,,,,,,,,,,,,,,,masks/mask_004.jpg,0,4,4,3,1,,,,,,,,,,,,,,,,,,,,,,,,,,,,,,,,,,,,,,,,,,,,,,,,,,,,,,,,,,,,,,,,,,,,,,,,,,,,,,,,,,,,,,,,
509275,001,2022-11-21_24h53.24.788,Info_measure_main_exp,2022.2.2,Win32,11.9988961,,,,,,,,,,,,,,,,,,,,,,,,0.137037037,0.081481481,1,0,0,response1disk,6,82.4997,1,-0.000925926,-0.000925926,1,0,0,center_square,0,0,0,0,1,0,131,5,5,2370,2406,prac_patch/patch0002370.jpg,prac_patch/patch0002406.jpg,,,,,,,,,,,,,,,,,,,,,,,,,,,,,,,,,,,,,,,,,,,,,,,,,,,,,,,,,,,,
509275,001,2022-11-21_24h53.24.788,Info_measure_main_exp,2022.2.2,Win32,11.9988961,,,,,,,,,,,,,0,0,0,3,1,masks/mask_004.jpg,,,,,,,,,,,,,,,,,,,,,,,,,,,,,,,,,,,,,,,,,,,,,,,,,,,,,,,,,,,,,,,,,,,,,,,,,,,,,,,,,,,,,,,,,,,,,
509275,001,2022-11-21_24h53.24.788,Info_measure_main_exp,2022.2.2,Win32,11.9988961,,,,,,,,,,,,,0,1,1,4,1,masks/mask_005.jpg,,,,,,,,,,,,,,,,,,,,,,,,,,,,,,,,,,,,,,,,,,,,,,,,,,,,,,,,,,,,,,,,,,,,,,,,,,,,,,,,,,,,,,,,,,,,,
509275,001,2022-11-21_24h53.24.788,Info_measure_main_exp,2022.2.2,Win32,11.9988961,,,,,,,,,,,,,0,2,2,0,1,masks/mask_001.jpg,,,,,,,,,,,,,,,,,,,,,,,,,,,,,,,,,,,,,,,,,,,,,,,,,,,,,,,,,,,,,,,,,,,,,,,,,,,,,,,,,,,,,,,,,,,,,
509275,001,2022-11-21_24h53.24.788,Info_measure_main_exp,2022.2.2,Win32,11.9988961,,,,,,,,,,,,,0,3,3,1,1,masks/mask_002.jpg,,,,,,,,,,,,,,,,,,,,,,,,,,,,,,,,,,,,,,,,,,,,,,,,,,,,,,,,,,,,,,,,,,,,,,,,,,,,,,,,,,,,,,,,,,,,,
509275,001,2022-11-21_24h53.24.788,Info_measure_main_exp,2022.2.2,Win32,11.9988961,,,,,,,,,,,,,0,4,4,2,1,masks/mask_003.jpg,,,,,,,,,,,,,,,,,,,,,,,,,,,,,,,,,,,,,,,,,,,,,,,,,,,,,,,,,,,,,,,,,,,,,,,,,,,,,,,,,,,,,,,,,,,,,
509275,001,2022-11-21_24h53.24.788,Info_measure_main_exp,2022.2.2,Win32,11.9988961,,,,,,,,,,,,,,,,,,masks/mask_005.jpg,0,0,0,4,1,,,,,,,,,,,,,,,,,,,,,,,,,,,,,,,,,,,,,,,,,,,,,,,,,,,,,,,,,,,,,,,,,,,,,,,,,,,,,,,,,,,,,,,,
509275,001,2022-11-21_24h53.24.788,Info_measure_main_exp,2022.2.2,Win32,11.9988961,,,,,,,,,,,,,,,,,,masks/mask_001.jpg,0,1,1,0,1,,,,,,,,,,,,,,,,,,,,,,,,,,,,,,,,,,,,,,,,,,,,,,,,,,,,,,,,,,,,,,,,,,,,,,,,,,,,,,,,,,,,,,,,
509275,001,2022-11-21_24h53.24.788,Info_measure_main_exp,2022.2.2,Win32,11.9988961,,,,,,,,,,,,,,,,,,masks/mask_004.jpg,0,2,2,3,1,,,,,,,,,,,,,,,,,,,,,,,,,,,,,,,,,,,,,,,,,,,,,,,,,,,,,,,,,,,,,,,,,,,,,,,,,,,,,,,,,,,,,,,,
509275,001,2022-11-21_24h53.24.788,Info_measure_main_exp,2022.2.2,Win32,11.9988961,,,,,,,,,,,,,,,,,,masks/mask_002.jpg,0,3,3,1,1,,,,,,,,,,,,,,,,,,,,,,,,,,,,,,,,,,,,,,,,,,,,,,,,,,,,,,,,,,,,,,,,,,,,,,,,,,,,,,,,,,,,,,,,
509275,001,2022-11-21_24h53.24.788,Info_measure_main_exp,2022.2.2,Win32,11.9988961,,,,,,,,,,,,,,,,,,masks/mask_003.jpg,0,4,4,2,1,,,,,,,,,,,,,,,,,,,,,,,,,,,,,,,,,,,,,,,,,,,,,,,,,,,,,,,,,,,,,,,,,,,,,,,,,,,,,,,,,,,,,,,,
509275,001,2022-11-21_24h53.24.788,Info_measure_main_exp,2022.2.2,Win32,11.9988961,,,,,,,,,,,,,,,,,,,,,,,,0.028703704,0.111111111,1,0,0,response1disk,7,93.7651,1,0.007407407,0.003703704,1,0,0,center_square,0,1,1,1,1,0,131,5,5,2514,2490,prac_patch/patch0002514.jpg,prac_patch/patch0002490.jpg,,,,,,,,,,,,,,,,,,,,,,,,,,,,,,,,,,,,,,,,,,,,,,,,,,,,,,,,,,,,
509275,001,2022-11-21_24h53.24.788,Info_measure_main_exp,2022.2.2,Win32,11.9988961,,,,,,,,,,,,,0,0,0,4,1,masks/mask_005.jpg,,,,,,,,,,,,,,,,,,,,,,,,,,,,,,,,,,,,,,,,,,,,,,,,,,,,,,,,,,,,,,,,,,,,,,,,,,,,,,,,,,,,,,,,,,,,,
509275,001,2022-11-21_24h53.24.788,Info_measure_main_exp,2022.2.2,Win32,11.9988961,,,,,,,,,,,,,0,1,1,3,1,masks/mask_004.jpg,,,,,,,,,,,,,,,,,,,,,,,,,,,,,,,,,,,,,,,,,,,,,,,,,,,,,,,,,,,,,,,,,,,,,,,,,,,,,,,,,,,,,,,,,,,,,
509275,001,2022-11-21_24h53.24.788,Info_measure_main_exp,2022.2.2,Win32,11.9988961,,,,,,,,,,,,,0,2,2,0,1,masks/mask_001.jpg,,,,,,,,,,,,,,,,,,,,,,,,,,,,,,,,,,,,,,,,,,,,,,,,,,,,,,,,,,,,,,,,,,,,,,,,,,,,,,,,,,,,,,,,,,,,,
509275,001,2022-11-21_24h53.24.788,Info_measure_main_exp,2022.2.2,Win32,11.9988961,,,,,,,,,,,,,0,3,3,2,1,masks/mask_003.jpg,,,,,,,,,,,,,,,,,,,,,,,,,,,,,,,,,,,,,,,,,,,,,,,,,,,,,,,,,,,,,,,,,,,,,,,,,,,,,,,,,,,,,,,,,,,,,
509275,001,2022-11-21_24h53.24.788,Info_measure_main_exp,2022.2.2,Win32,11.9988961,,,,,,,,,,,,,0,4,4,1,1,masks/mask_002.jpg,,,,,,,,,,,,,,,,,,,,,,,,,,,,,,,,,,,,,,,,,,,,,,,,,,,,,,,,,,,,,,,,,,,,,,,,,,,,,,,,,,,,,,,,,,,,,
509275,001,2022-11-21_24h53.24.788,Info_measure_main_exp,2022.2.2,Win32,11.9988961,,,,,,,,,,,,,,,,,,masks/mask_001.jpg,0,0,0,0,1,,,,,,,,,,,,,,,,,,,,,,,,,,,,,,,,,,,,,,,,,,,,,,,,,,,,,,,,,,,,,,,,,,,,,,,,,,,,,,,,,,,,,,,,
509275,001,2022-11-21_24h53.24.788,Info_measure_main_exp,2022.2.2,Win32,11.9988961,,,,,,,,,,,,,,,,,,masks/mask_005.jpg,0,1,1,4,1,,,,,,,,,,,,,,,,,,,,,,,,,,,,,,,,,,,,,,,,,,,,,,,,,,,,,,,,,,,,,,,,,,,,,,,,,,,,,,,,,,,,,,,,
509275,001,2022-11-21_24h53.24.788,Info_measure_main_exp,2022.2.2,Win32,11.9988961,,,,,,,,,,,,,,,,,,masks/mask_003.jpg,0,2,2,2,1,,,,,,,,,,,,,,,,,,,,,,,,,,,,,,,,,,,,,,,,,,,,,,,,,,,,,,,,,,,,,,,,,,,,,,,,,,,,,,,,,,,,,,,,
509275,001,2022-11-21_24h53.24.788,Info_measure_main_exp,2022.2.2,Win32,11.9988961,,,,,,,,,,,,,,,,,,masks/mask_002.jpg,0,3,3,1,1,,,,,,,,,,,,,,,,,,,,,,,,,,,,,,,,,,,,,,,,,,,,,,,,,,,,,,,,,,,,,,,,,,,,,,,,,,,,,,,,,,,,,,,,
509275,001,2022-11-21_24h53.24.788,Info_measure_main_exp,2022.2.2,Win32,11.9988961,,,,,,,,,,,,,,,,,,masks/mask_004.jpg,0,4,4,3,1,,,,,,,,,,,,,,,,,,,,,,,,,,,,,,,,,,,,,,,,,,,,,,,,,,,,,,,,,,,,,,,,,,,,,,,,,,,,,,,,,,,,,,,,
509275,001,2022-11-21_24h53.24.788,Info_measure_main_exp,2022.2.2,Win32,11.9988961,,,,,,,,,,,,,,,,,,,,,,,,-0.056481481,0.133333333,1,0,0,response7disk,0,101.878,1,-0.00462963,-0.001851852,1,0,0,center_square,0,2,2,2,1,0,131,5,5,2526,2526,prac_patch/patch0002526.jpg,prac_patch/patch0002526.jpg,,,,,,,,,,,,,,,,,,,,,,,,,,,,,,,,,,,,,,,,,,,,,,,,,,,,,,,,,,,,
509275,001,2022-11-21_24h53.24.788,Info_measure_main_exp,2022.2.2,Win32,11.9988961,,,,,,,,,,,,,,,,,,,,,,,,,,,,,,,,,,,,,,,,,,,,,,,,,,,,,,,,,,,space,2.617,,,,,,,,,,,,,,,,,,,,,,,,,,,,,,,,,,,,,,,,,,,,,,,,,,,
509275,001,2022-11-21_24h53.24.788,Info_measure_main_exp,2022.2.2,Win32,11.9988961,,,,,,,,,,,,,,,,,,masks/mask_004.jpg,,,,,,,,,,,,,,,,,,,,,,,,,,,,,,,,,,,,,,,,,,,0,0,0,3,1,,,,,,,,,,,,,,,,,,,,,,,,,,,,,,,,,,,,,,,,,,,,,,
509275,001,2022-11-21_24h53.24.788,Info_measure_main_exp,2022.2.2,Win32,11.9988961,,,,,,,,,,,,,,,,,,masks/mask_003.jpg,,,,,,,,,,,,,,,,,,,,,,,,,,,,,,,,,,,,,,,,,,,0,1,1,2,1,,,,,,,,,,,,,,,,,,,,,,,,,,,,,,,,,,,,,,,,,,,,,,
509275,001,2022-11-21_24h53.24.788,Info_measure_main_exp,2022.2.2,Win32,11.9988961,,,,,,,,,,,,,,,,,,masks/mask_002.jpg,,,,,,,,,,,,,,,,,,,,,,,,,,,,,,,,,,,,,,,,,,,0,2,2,1,1,,,,,,,,,,,,,,,,,,,,,,,,,,,,,,,,,,,,,,,,,,,,,,
509275,001,2022-11-21_24h53.24.788,Info_measure_main_exp,2022.2.2,Win32,11.9988961,,,,,,,,,,,,,,,,,,masks/mask_001.jpg,,,,,,,,,,,,,,,,,,,,,,,,,,,,,,,,,,,,,,,,,,,0,3,3,0,1,,,,,,,,,,,,,,,,,,,,,,,,,,,,,,,,,,,,,,,,,,,,,,
509275,001,2022-11-21_24h53.24.788,Info_measure_main_exp,2022.2.2,Win32,11.9988961,,,,,,,,,,,,,,,,,,masks/mask_005.jpg,,,,,,,,,,,,,,,,,,,,,,,,,,,,,,,,,,,,,,,,,,,0,4,4,4,1,,,,,,,,,,,,,,,,,,,,,,,,,,,,,,,,,,,,,,,,,,,,,,
509275,001,2022-11-21_24h53.24.788,Info_measure_main_exp,2022.2.2,Win32,11.9988961,,,,,,,,,,,,,,,,,,masks/mask_001.jpg,,,,,,,,,,,,,,,,,,,,,,,,,,,,,,,,,,,,,,,,,,,,,,,,0,0,0,0,1,,,,,,,,,,,,,,,,,,,,,,,,,,,,,,,,,,,,,,,,,
509275,001,2022-11-21_24h53.24.788,Info_measure_main_exp,2022.2.2,Win32,11.9988961,,,,,,,,,,,,,,,,,,masks/mask_002.jpg,,,,,,,,,,,,,,,,,,,,,,,,,,,,,,,,,,,,,,,,,,,,,,,,0,1,1,1,1,,,,,,,,,,,,,,,,,,,,,,,,,,,,,,,,,,,,,,,,,
509275,001,2022-11-21_24h53.24.788,Info_measure_main_exp,2022.2.2,Win32,11.9988961,,,,,,,,,,,,,,,,,,masks/mask_005.jpg,,,,,,,,,,,,,,,,,,,,,,,,,,,,,,,,,,,,,,,,,,,,,,,,0,2,2,4,1,,,,,,,,,,,,,,,,,,,,,,,,,,,,,,,,,,,,,,,,,
509275,001,2022-11-21_24h53.24.788,Info_measure_main_exp,2022.2.2,Win32,11.9988961,,,,,,,,,,,,,,,,,,masks/mask_003.jpg,,,,,,,,,,,,,,,,,,,,,,,,,,,,,,,,,,,,,,,,,,,,,,,,0,3,3,2,1,,,,,,,,,,,,,,,,,,,,,,,,,,,,,,,,,,,,,,,,,
509275,001,2022-11-21_24h53.24.788,Info_measure_main_exp,2022.2.2,Win32,11.9988961,,,,,,,,,,,,,,,,,,masks/mask_004.jpg,,,,,,,,,,,,,,,,,,,,,,,,,,,,,,,,,,,,,,,,,,,,,,,,0,4,4,3,1,,,,,,,,,,,,,,,,,,,,,,,,,,,,,,,,,,,,,,,,,
509275,001,2022-11-21_24h53.24.788,Info_measure_main_exp,2022.2.2,Win32,11.9988961,,,,,,,,,,,,,,,,,,,,,,,,,,,,,,4,6.4988,1,,,,,,,,,,,,0,131,5,5,2214,1986,absent_patch/patch0002214.jpg,absent_patch/patch0001986.jpg,,,,,,,,,,,,,,,,,,,,0.022222222,-0.118518519,1,0,0,response3disk,1,-0.012037037,0.005555556,1,0,0,center_square,0,0,0,34,1,,,,,,,,,,,,,,,,,,,,,,,
509275,001,2022-11-21_24h53.24.788,Info_measure_main_exp,2022.2.2,Win32,11.9988961,,,,,,,,,,,,,,,,,,masks/mask_004.jpg,,,,,,,,,,,,,,,,,,,,,,,,,,,,,,,,,,,,,,,,,,,0,0,0,3,1,,,,,,,,,,,,,,,,,,,,,,,,,,,,,,,,,,,,,,,,,,,,,,
509275,001,2022-11-21_24h53.24.788,Info_measure_main_exp,2022.2.2,Win32,11.9988961,,,,,,,,,,,,,,,,,,masks/mask_003.jpg,,,,,,,,,,,,,,,,,,,,,,,,,,,,,,,,,,,,,,,,,,,0,1,1,2,1,,,,,,,,,,,,,,,,,,,,,,,,,,,,,,,,,,,,,,,,,,,,,,
509275,001,2022-11-21_24h53.24.788,Info_measure_main_exp,2022.2.2,Win32,11.9988961,,,,,,,,,,,,,,,,,,masks/mask_002.jpg,,,,,,,,,,,,,,,,,,,,,,,,,,,,,,,,,,,,,,,,,,,0,2,2,1,1,,,,,,,,,,,,,,,,,,,,,,,,,,,,,,,,,,,,,,,,,,,,,,
509275,001,2022-11-21_24h53.24.788,Info_measure_main_exp,2022.2.2,Win32,11.9988961,,,,,,,,,,,,,,,,,,masks/mask_005.jpg,,,,,,,,,,,,,,,,,,,,,,,,,,,,,,,,,,,,,,,,,,,0,3,3,4,1,,,,,,,,,,,,,,,,,,,,,,,,,,,,,,,,,,,,,,,,,,,,,,
509275,001,2022-11-21_24h53.24.788,Info_measure_main_exp,2022.2.2,Win32,11.9988961,,,,,,,,,,,,,,,,,,masks/mask_001.jpg,,,,,,,,,,,,,,,,,,,,,,,,,,,,,,,,,,,,,,,,,,,0,4,4,0,1,,,,,,,,,,,,,,,,,,,,,,,,,,,,,,,,,,,,,,,,,,,,,,
509275,001,2022-11-21_24h53.24.788,Info_measure_main_exp,2022.2.2,Win32,11.9988961,,,,,,,,,,,,,,,,,,masks/mask_005.jpg,,,,,,,,,,,,,,,,,,,,,,,,,,,,,,,,,,,,,,,,,,,,,,,,0,0,0,4,1,,,,,,,,,,,,,,,,,,,,,,,,,,,,,,,,,,,,,,,,,
509275,001,2022-11-21_24h53.24.788,Info_measure_main_exp,2022.2.2,Win32,11.9988961,,,,,,,,,,,,,,,,,,masks/mask_002.jpg,,,,,,,,,,,,,,,,,,,,,,,,,,,,,,,,,,,,,,,,,,,,,,,,0,1,1,1,1,,,,,,,,,,,,,,,,,,,,,,,,,,,,,,,,,,,,,,,,,
509275,001,2022-11-21_24h53.24.788,Info_measure_main_exp,2022.2.2,Win32,11.9988961,,,,,,,,,,,,,,,,,,masks/mask_003.jpg,,,,,,,,,,,,,,,,,,,,,,,,,,,,,,,,,,,,,,,,,,,,,,,,0,2,2,2,1,,,,,,,,,,,,,,,,,,,,,,,,,,,,,,,,,,,,,,,,,
509275,001,2022-11-21_24h53.24.788,Info_measure_main_exp,2022.2.2,Win32,11.9988961,,,,,,,,,,,,,,,,,,masks/mask_004.jpg,,,,,,,,,,,,,,,,,,,,,,,,,,,,,,,,,,,,,,,,,,,,,,,,0,3,3,3,1,,,,,,,,,,,,,,,,,,,,,,,,,,,,,,,,,,,,,,,,,
509275,001,2022-11-21_24h53.24.788,Info_measure_main_exp,2022.2.2,Win32,11.9988961,,,,,,,,,,,,,,,,,,masks/mask_001.jpg,,,,,,,,,,,,,,,,,,,,,,,,,,,,,,,,,,,,,,,,,,,,,,,,0,4,4,0,1,,,,,,,,,,,,,,,,,,,,,,,,,,,,,,,,,,,,,,,,,
509275,001,2022-11-21_24h53.24.788,Info_measure_main_exp,2022.2.2,Win32,11.9988961,,,,,,,,,,,,,,,,,,,,,,,,,,,,,,7,2.1576,1,,,,,,,,,,,,0,131,5,5,2298,2178,absent_patch/patch0002298.jpg,absent_patch/patch0002178.jpg,,,,,,,,,,,,,,,,,,,,0.047222222,0.085185185,1,0,0,response1disk,2,0.00462963,0.003703704,1,0,0,center_square,0,1,1,84,1,,,,,,,,,,,,,,,,,,,,,,,
509275,001,2022-11-21_24h53.24.788,Info_measure_main_exp,2022.2.2,Win32,11.9988961,,,,,,,,,,,,,,,,,,masks/mask_003.jpg,,,,,,,,,,,,,,,,,,,,,,,,,,,,,,,,,,,,,,,,,,,0,0,0,2,1,,,,,,,,,,,,,,,,,,,,,,,,,,,,,,,,,,,,,,,,,,,,,,
509275,001,2022-11-21_24h53.24.788,Info_measure_main_exp,2022.2.2,Win32,11.9988961,,,,,,,,,,,,,,,,,,masks/mask_002.jpg,,,,,,,,,,,,,,,,,,,,,,,,,,,,,,,,,,,,,,,,,,,0,1,1,1,1,,,,,,,,,,,,,,,,,,,,,,,,,,,,,,,,,,,,,,,,,,,,,,
509275,001,2022-11-21_24h53.24.788,Info_measure_main_exp,2022.2.2,Win32,11.9988961,,,,,,,,,,,,,,,,,,masks/mask_001.jpg,,,,,,,,,,,,,,,,,,,,,,,,,,,,,,,,,,,,,,,,,,,0,2,2,0,1,,,,,,,,,,,,,,,,,,,,,,,,,,,,,,,,,,,,,,,,,,,,,,
509275,001,2022-11-21_24h53.24.788,Info_measure_main_exp,2022.2.2,Win32,11.9988961,,,,,,,,,,,,,,,,,,masks/mask_004.jpg,,,,,,,,,,,,,,,,,,,,,,,,,,,,,,,,,,,,,,,,,,,0,3,3,3,1,,,,,,,,,,,,,,,,,,,,,,,,,,,,,,,,,,,,,,,,,,,,,,
509275,001,2022-11-21_24h53.24.788,Info_measure_main_exp,2022.2.2,Win32,11.9988961,,,,,,,,,,,,,,,,,,masks/mask_005.jpg,,,,,,,,,,,,,,,,,,,,,,,,,,,,,,,,,,,,,,,,,,,0,4,4,4,1,,,,,,,,,,,,,,,,,,,,,,,,,,,,,,,,,,,,,,,,,,,,,,
509275,001,2022-11-21_24h53.24.788,Info_measure_main_exp,2022.2.2,Win32,11.9988961,,,,,,,,,,,,,,,,,,masks/mask_004.jpg,,,,,,,,,,,,,,,,,,,,,,,,,,,,,,,,,,,,,,,,,,,,,,,,0,0,0,3,1,,,,,,,,,,,,,,,,,,,,,,,,,,,,,,,,,,,,,,,,,
509275,001,2022-11-21_24h53.24.788,Info_measure_main_exp,2022.2.2,Win32,11.9988961,,,,,,,,,,,,,,,,,,masks/mask_001.jpg,,,,,,,,,,,,,,,,,,,,,,,,,,,,,,,,,,,,,,,,,,,,,,,,0,1,1,0,1,,,,,,,,,,,,,,,,,,,,,,,,,,,,,,,,,,,,,,,,,
509275,001,2022-11-21_24h53.24.788,Info_measure_main_exp,2022.2.2,Win32,11.9988961,,,,,,,,,,,,,,,,,,masks/mask_005.jpg,,,,,,,,,,,,,,,,,,,,,,,,,,,,,,,,,,,,,,,,,,,,,,,,0,2,2,4,1,,,,,,,,,,,,,,,,,,,,,,,,,,,,,,,,,,,,,,,,,
509275,001,2022-11-21_24h53.24.788,Info_measure_main_exp,2022.2.2,Win32,11.9988961,,,,,,,,,,,,,,,,,,masks/mask_003.jpg,,,,,,,,,,,,,,,,,,,,,,,,,,,,,,,,,,,,,,,,,,,,,,,,0,3,3,2,1,,,,,,,,,,,,,,,,,,,,,,,,,,,,,,,,,,,,,,,,,
509275,001,2022-11-21_24h53.24.788,Info_measure_main_exp,2022.2.2,Win32,11.9988961,,,,,,,,,,,,,,,,,,masks/mask_002.jpg,,,,,,,,,,,,,,,,,,,,,,,,,,,,,,,,,,,,,,,,,,,,,,,,0,4,4,1,1,,,,,,,,,,,,,,,,,,,,,,,,,,,,,,,,,,,,,,,,,
509275,001,2022-11-21_24h53.24.788,Info_measure_main_exp,2022.2.2,Win32,11.9988961,,,,,,,,,,,,,,,,,,,,,,,,,,,,,,3,3.6955,1,,,,,,,,,,,,0,131,5,5,2154,2190,absent_patch/patch0002154.jpg,absent_patch/patch0002190.jpg,,,,,,,,,,,,,,,,,,,,-0.024074074,-0.089814815,1,0,0,response5disk,3,-0.006481481,0.000925926,1,0,0,center_square,0,2,2,68,1,,,,,,,,,,,,,,,,,,,,,,,
509275,001,2022-11-21_24h53.24.788,Info_measure_main_exp,2022.2.2,Win32,11.9988961,,,,,,,,,,,,,,,,,,masks/mask_005.jpg,,,,,,,,,,,,,,,,,,,,,,,,,,,,,,,,,,,,,,,,,,,0,0,0,4,1,,,,,,,,,,,,,,,,,,,,,,,,,,,,,,,,,,,,,,,,,,,,,,
509275,001,2022-11-21_24h53.24.788,Info_measure_main_exp,2022.2.2,Win32,11.9988961,,,,,,,,,,,,,,,,,,masks/mask_003.jpg,,,,,,,,,,,,,,,,,,,,,,,,,,,,,,,,,,,,,,,,,,,0,1,1,2,1,,,,,,,,,,,,,,,,,,,,,,,,,,,,,,,,,,,,,,,,,,,,,,
509275,001,2022-11-21_24h53.24.788,Info_measure_main_exp,2022.2.2,Win32,11.9988961,,,,,,,,,,,,,,,,,,masks/mask_002.jpg,,,,,,,,,,,,,,,,,,,,,,,,,,,,,,,,,,,,,,,,,,,0,2,2,1,1,,,,,,,,,,,,,,,,,,,,,,,,,,,,,,,,,,,,,,,,,,,,,,
509275,001,2022-11-21_24h53.24.788,Info_measure_main_exp,2022.2.2,Win32,11.9988961,,,,,,,,,,,,,,,,,,masks/mask_004.jpg,,,,,,,,,,,,,,,,,,,,,,,,,,,,,,,,,,,,,,,,,,,0,3,3,3,1,,,,,,,,,,,,,,,,,,,,,,,,,,,,,,,,,,,,,,,,,,,,,,
509275,001,2022-11-21_24h53.24.788,Info_measure_main_exp,2022.2.2,Win32,11.9988961,,,,,,,,,,,,,,,,,,masks/mask_001.jpg,,,,,,,,,,,,,,,,,,,,,,,,,,,,,,,,,,,,,,,,,,,0,4,4,0,1,,,,,,,,,,,,,,,,,,,,,,,,,,,,,,,,,,,,,,,,,,,,,,
509275,001,2022-11-21_24h53.24.788,Info_measure_main_exp,2022.2.2,Win32,11.9988961,,,,,,,,,,,,,,,,,,masks/mask_001.jpg,,,,,,,,,,,,,,,,,,,,,,,,,,,,,,,,,,,,,,,,,,,,,,,,0,0,0,0,1,,,,,,,,,,,,,,,,,,,,,,,,,,,,,,,,,,,,,,,,,
509275,001,2022-11-21_24h53.24.788,Info_measure_main_exp,2022.2.2,Win32,11.9988961,,,,,,,,,,,,,,,,,,masks/mask_005.jpg,,,,,,,,,,,,,,,,,,,,,,,,,,,,,,,,,,,,,,,,,,,,,,,,0,1,1,4,1,,,,,,,,,,,,,,,,,,,,,,,,,,,,,,,,,,,,,,,,,
509275,001,2022-11-21_24h53.24.788,Info_measure_main_exp,2022.2.2,Win32,11.9988961,,,,,,,,,,,,,,,,,,masks/mask_003.jpg,,,,,,,,,,,,,,,,,,,,,,,,,,,,,,,,,,,,,,,,,,,,,,,,0,2,2,2,1,,,,,,,,,,,,,,,,,,,,,,,,,,,,,,,,,,,,,,,,,
509275,001,2022-11-21_24h53.24.788,Info_measure_main_exp,2022.2.2,Win32,11.9988961,,,,,,,,,,,,,,,,,,masks/mask_004.jpg,,,,,,,,,,,,,,,,,,,,,,,,,,,,,,,,,,,,,,,,,,,,,,,,0,3,3,3,1,,,,,,,,,,,,,,,,,,,,,,,,,,,,,,,,,,,,,,,,,
509275,001,2022-11-21_24h53.24.788,Info_measure_main_exp,2022.2.2,Win32,11.9988961,,,,,,,,,,,,,,,,,,masks/mask_002.jpg,,,,,,,,,,,,,,,,,,,,,,,,,,,,,,,,,,,,,,,,,,,,,,,,0,4,4,1,1,,,,,,,,,,,,,,,,,,,,,,,,,,,,,,,,,,,,,,,,,
509275,001,2022-11-21_24h53.24.788,Info_measure_main_exp,2022.2.2,Win32,11.9988961,,,,,,,,,,,,,,,,,,,,,,,,,,,,,,4,4.4092,1,,,,,,,,,,,,0,131,5,5,1974,2250,absent_patch/patch0001974.jpg,absent_patch/patch0002250.jpg,,,,,,,,,,,,,,,,,,,,0.019444444,-0.116666667,1,0,0,response3disk,4,0.003703704,0,1,0,0,center_square,0,3,3,55,1,,,,,,,,,,,,,,,,,,,,,,,
509275,001,2022-11-21_24h53.24.788,Info_measure_main_exp,2022.2.2,Win32,11.9988961,,,,,,,,,,,,,,,,,,masks/mask_002.jpg,,,,,,,,,,,,,,,,,,,,,,,,,,,,,,,,,,,,,,,,,,,0,0,0,1,1,,,,,,,,,,,,,,,,,,,,,,,,,,,,,,,,,,,,,,,,,,,,,,
509275,001,2022-11-21_24h53.24.788,Info_measure_main_exp,2022.2.2,Win32,11.9988961,,,,,,,,,,,,,,,,,,masks/mask_004.jpg,,,,,,,,,,,,,,,,,,,,,,,,,,,,,,,,,,,,,,,,,,,0,1,1,3,1,,,,,,,,,,,,,,,,,,,,,,,,,,,,,,,,,,,,,,,,,,,,,,
509275,001,2022-11-21_24h53.24.788,Info_measure_main_exp,2022.2.2,Win32,11.9988961,,,,,,,,,,,,,,,,,,masks/mask_003.jpg,,,,,,,,,,,,,,,,,,,,,,,,,,,,,,,,,,,,,,,,,,,0,2,2,2,1,,,,,,,,,,,,,,,,,,,,,,,,,,,,,,,,,,,,,,,,,,,,,,
509275,001,2022-11-21_24h53.24.788,Info_measure_main_exp,2022.2.2,Win32,11.9988961,,,,,,,,,,,,,,,,,,masks/mask_001.jpg,,,,,,,,,,,,,,,,,,,,,,,,,,,,,,,,,,,,,,,,,,,0,3,3,0,1,,,,,,,,,,,,,,,,,,,,,,,,,,,,,,,,,,,,,,,,,,,,,,
509275,001,2022-11-21_24h53.24.788,Info_measure_main_exp,2022.2.2,Win32,11.9988961,,,,,,,,,,,,,,,,,,masks/mask_005.jpg,,,,,,,,,,,,,,,,,,,,,,,,,,,,,,,,,,,,,,,,,,,0,4,4,4,1,,,,,,,,,,,,,,,,,,,,,,,,,,,,,,,,,,,,,,,,,,,,,,
509275,001,2022-11-21_24h53.24.788,Info_measure_main_exp,2022.2.2,Win32,11.9988961,,,,,,,,,,,,,,,,,,masks/mask_004.jpg,,,,,,,,,,,,,,,,,,,,,,,,,,,,,,,,,,,,,,,,,,,,,,,,0,0,0,3,1,,,,,,,,,,,,,,,,,,,,,,,,,,,,,,,,,,,,,,,,,
509275,001,2022-11-21_24h53.24.788,Info_measure_main_exp,2022.2.2,Win32,11.9988961,,,,,,,,,,,,,,,,,,masks/mask_003.jpg,,,,,,,,,,,,,,,,,,,,,,,,,,,,,,,,,,,,,,,,,,,,,,,,0,1,1,2,1,,,,,,,,,,,,,,,,,,,,,,,,,,,,,,,,,,,,,,,,,
509275,001,2022-11-21_24h53.24.788,Info_measure_main_exp,2022.2.2,Win32,11.9988961,,,,,,,,,,,,,,,,,,masks/mask_002.jpg,,,,,,,,,,,,,,,,,,,,,,,,,,,,,,,,,,,,,,,,,,,,,,,,0,2,2,1,1,,,,,,,,,,,,,,,,,,,,,,,,,,,,,,,,,,,,,,,,,
509275,001,2022-11-21_24h53.24.788,Info_measure_main_exp,2022.2.2,Win32,11.9988961,,,,,,,,,,,,,,,,,,masks/mask_005.jpg,,,,,,,,,,,,,,,,,,,,,,,,,,,,,,,,,,,,,,,,,,,,,,,,0,3,3,4,1,,,,,,,,,,,,,,,,,,,,,,,,,,,,,,,,,,,,,,,,,
509275,001,2022-11-21_24h53.24.788,Info_measure_main_exp,2022.2.2,Win32,11.9988961,,,,,,,,,,,,,,,,,,masks/mask_001.jpg,,,,,,,,,,,,,,,,,,,,,,,,,,,,,,,,,,,,,,,,,,,,,,,,0,4,4,0,1,,,,,,,,,,,,,,,,,,,,,,,,,,,,,,,,,,,,,,,,,
509275,001,2022-11-21_24h53.24.788,Info_measure_main_exp,2022.2.2,Win32,11.9988961,,,,,,,,,,,,,,,,,,,,,,,,,,,,,,7,2.1455,1,,,,,,,,,,,,0,131,5,5,2178,2238,absent_patch/patch0002178.jpg,absent_patch/patch0002238.jpg,,,,,,,,,,,,,,,,,,,,0.05,0.116666667,1,0,0,response1disk,5,0.003703704,-0.003703704,1,0,0,center_square,0,4,4,57,1,,,,,,,,,,,,,,,,,,,,,,,
509275,001,2022-11-21_24h53.24.788,Info_measure_main_exp,2022.2.2,Win32,11.9988961,,,,,,,,,,,,,,,,,,masks/mask_004.jpg,,,,,,,,,,,,,,,,,,,,,,,,,,,,,,,,,,,,,,,,,,,0,0,0,3,1,,,,,,,,,,,,,,,,,,,,,,,,,,,,,,,,,,,,,,,,,,,,,,
509275,001,2022-11-21_24h53.24.788,Info_measure_main_exp,2022.2.2,Win32,11.9988961,,,,,,,,,,,,,,,,,,masks/mask_002.jpg,,,,,,,,,,,,,,,,,,,,,,,,,,,,,,,,,,,,,,,,,,,0,1,1,1,1,,,,,,,,,,,,,,,,,,,,,,,,,,,,,,,,,,,,,,,,,,,,,,
509275,001,2022-11-21_24h53.24.788,Info_measure_main_exp,2022.2.2,Win32,11.9988961,,,,,,,,,,,,,,,,,,masks/mask_003.jpg,,,,,,,,,,,,,,,,,,,,,,,,,,,,,,,,,,,,,,,,,,,0,2,2,2,1,,,,,,,,,,,,,,,,,,,,,,,,,,,,,,,,,,,,,,,,,,,,,,
509275,001,2022-11-21_24h53.24.788,Info_measure_main_exp,2022.2.2,Win32,11.9988961,,,,,,,,,,,,,,,,,,masks/mask_005.jpg,,,,,,,,,,,,,,,,,,,,,,,,,,,,,,,,,,,,,,,,,,,0,3,3,4,1,,,,,,,,,,,,,,,,,,,,,,,,,,,,,,,,,,,,,,,,,,,,,,
509275,001,2022-11-21_24h53.24.788,Info_measure_main_exp,2022.2.2,Win32,11.9988961,,,,,,,,,,,,,,,,,,masks/mask_001.jpg,,,,,,,,,,,,,,,,,,,,,,,,,,,,,,,,,,,,,,,,,,,0,4,4,0,1,,,,,,,,,,,,,,,,,,,,,,,,,,,,,,,,,,,,,,,,,,,,,,
509275,001,2022-11-21_24h53.24.788,Info_measure_main_exp,2022.2.2,Win32,11.9988961,,,,,,,,,,,,,,,,,,masks/mask_005.jpg,,,,,,,,,,,,,,,,,,,,,,,,,,,,,,,,,,,,,,,,,,,,,,,,0,0,0,4,1,,,,,,,,,,,,,,,,,,,,,,,,,,,,,,,,,,,,,,,,,
509275,001,2022-11-21_24h53.24.788,Info_measure_main_exp,2022.2.2,Win32,11.9988961,,,,,,,,,,,,,,,,,,masks/mask_004.jpg,,,,,,,,,,,,,,,,,,,,,,,,,,,,,,,,,,,,,,,,,,,,,,,,0,1,1,3,1,,,,,,,,,,,,,,,,,,,,,,,,,,,,,,,,,,,,,,,,,
509275,001,2022-11-21_24h53.24.788,Info_measure_main_exp,2022.2.2,Win32,11.9988961,,,,,,,,,,,,,,,,,,masks/mask_003.jpg,,,,,,,,,,,,,,,,,,,,,,,,,,,,,,,,,,,,,,,,,,,,,,,,0,2,2,2,1,,,,,,,,,,,,,,,,,,,,,,,,,,,,,,,,,,,,,,,,,
509275,001,2022-11-21_24h53.24.788,Info_measure_main_exp,2022.2.2,Win32,11.9988961,,,,,,,,,,,,,,,,,,masks/mask_001.jpg,,,,,,,,,,,,,,,,,,,,,,,,,,,,,,,,,,,,,,,,,,,,,,,,0,3,3,0,1,,,,,,,,,,,,,,,,,,,,,,,,,,,,,,,,,,,,,,,,,
509275,001,2022-11-21_24h53.24.788,Info_measure_main_exp,2022.2.2,Win32,11.9988961,,,,,,,,,,,,,,,,,,masks/mask_002.jpg,,,,,,,,,,,,,,,,,,,,,,,,,,,,,,,,,,,,,,,,,,,,,,,,0,4,4,1,1,,,,,,,,,,,,,,,,,,,,,,,,,,,,,,,,,,,,,,,,,
509275,001,2022-11-21_24h53.24.788,Info_measure_main_exp,2022.2.2,Win32,11.9988961,,,,,,,,,,,,,,,,,,,,,,,,,,,,,,0,2.789,1,,,,,,,,,,,,0,131,5,5,2154,2154,absent_patch/patch0002154.jpg,absent_patch/patch0002154.jpg,,,,,,,,,,,,,,,,,,,,-0.050925926,0.118518519,1,0,0,response7disk,6,-0.00462963,0.010185185,1,0,0,center_square,0,5,5,89,1,,,,,,,,,,,,,,,,,,,,,,,
509275,001,2022-11-21_24h53.24.788,Info_measure_main_exp,2022.2.2,Win32,11.9988961,,,,,,,,,,,,,,,,,,masks/mask_001.jpg,,,,,,,,,,,,,,,,,,,,,,,,,,,,,,,,,,,,,,,,,,,0,0,0,0,1,,,,,,,,,,,,,,,,,,,,,,,,,,,,,,,,,,,,,,,,,,,,,,
509275,001,2022-11-21_24h53.24.788,Info_measure_main_exp,2022.2.2,Win32,11.9988961,,,,,,,,,,,,,,,,,,masks/mask_004.jpg,,,,,,,,,,,,,,,,,,,,,,,,,,,,,,,,,,,,,,,,,,,0,1,1,3,1,,,,,,,,,,,,,,,,,,,,,,,,,,,,,,,,,,,,,,,,,,,,,,
509275,001,2022-11-21_24h53.24.788,Info_measure_main_exp,2022.2.2,Win32,11.9988961,,,,,,,,,,,,,,,,,,masks/mask_002.jpg,,,,,,,,,,,,,,,,,,,,,,,,,,,,,,,,,,,,,,,,,,,0,2,2,1,1,,,,,,,,,,,,,,,,,,,,,,,,,,,,,,,,,,,,,,,,,,,,,,
509275,001,2022-11-21_24h53.24.788,Info_measure_main_exp,2022.2.2,Win32,11.9988961,,,,,,,,,,,,,,,,,,masks/mask_003.jpg,,,,,,,,,,,,,,,,,,,,,,,,,,,,,,,,,,,,,,,,,,,0,3,3,2,1,,,,,,,,,,,,,,,,,,,,,,,,,,,,,,,,,,,,,,,,,,,,,,
509275,001,2022-11-21_24h53.24.788,Info_measure_main_exp,2022.2.2,Win32,11.9988961,,,,,,,,,,,,,,,,,,masks/mask_005.jpg,,,,,,,,,,,,,,,,,,,,,,,,,,,,,,,,,,,,,,,,,,,0,4,4,4,1,,,,,,,,,,,,,,,,,,,,,,,,,,,,,,,,,,,,,,,,,,,,,,
509275,001,2022-11-21_24h53.24.788,Info_measure_main_exp,2022.2.2,Win32,11.9988961,,,,,,,,,,,,,,,,,,masks/mask_003.jpg,,,,,,,,,,,,,,,,,,,,,,,,,,,,,,,,,,,,,,,,,,,,,,,,0,0,0,2,1,,,,,,,,,,,,,,,,,,,,,,,,,,,,,,,,,,,,,,,,,
509275,001,2022-11-21_24h53.24.788,Info_measure_main_exp,2022.2.2,Win32,11.9988961,,,,,,,,,,,,,,,,,,masks/mask_005.jpg,,,,,,,,,,,,,,,,,,,,,,,,,,,,,,,,,,,,,,,,,,,,,,,,0,1,1,4,1,,,,,,,,,,,,,,,,,,,,,,,,,,,,,,,,,,,,,,,,,
509275,001,2022-11-21_24h53.24.788,Info_measure_main_exp,2022.2.2,Win32,11.9988961,,,,,,,,,,,,,,,,,,masks/mask_004.jpg,,,,,,,,,,,,,,,,,,,,,,,,,,,,,,,,,,,,,,,,,,,,,,,,0,2,2,3,1,,,,,,,,,,,,,,,,,,,,,,,,,,,,,,,,,,,,,,,,,
509275,001,2022-11-21_24h53.24.788,Info_measure_main_exp,2022.2.2,Win32,11.9988961,,,,,,,,,,,,,,,,,,masks/mask_002.jpg,,,,,,,,,,,,,,,,,,,,,,,,,,,,,,,,,,,,,,,,,,,,,,,,0,3,3,1,1,,,,,,,,,,,,,,,,,,,,,,,,,,,,,,,,,,,,,,,,,
509275,001,2022-11-21_24h53.24.788,Info_measure_main_exp,2022.2.2,Win32,11.9988961,,,,,,,,,,,,,,,,,,masks/mask_001.jpg,,,,,,,,,,,,,,,,,,,,,,,,,,,,,,,,,,,,,,,,,,,,,,,,0,4,4,0,1,,,,,,,,,,,,,,,,,,,,,,,,,,,,,,,,,,,,,,,,,
509275,001,2022-11-21_24h53.24.788,Info_measure_main_exp,2022.2.2,Win32,11.9988961,,,,,,,,,,,,,,,,,,,,,,,,,,,,,,4,4.2326,1,,,,,,,,,,,,0,131,5,5,2166,2154,absent_patch/patch0002166.jpg,absent_patch/patch0002154.jpg,,,,,,,,,,,,,,,,,,,,0.02962963,-0.146296296,1,0,0,response3disk,7,0.001851852,0.00462963,1,0,0,center_square,0,6,6,79,1,,,,,,,,,,,,,,,,,,,,,,,
509275,001,2022-11-21_24h53.24.788,Info_measure_main_exp,2022.2.2,Win32,11.9988961,,,,,,,,,,,,,,,,,,masks/mask_001.jpg,,,,,,,,,,,,,,,,,,,,,,,,,,,,,,,,,,,,,,,,,,,0,0,0,0,1,,,,,,,,,,,,,,,,,,,,,,,,,,,,,,,,,,,,,,,,,,,,,,
509275,001,2022-11-21_24h53.24.788,Info_measure_main_exp,2022.2.2,Win32,11.9988961,,,,,,,,,,,,,,,,,,masks/mask_005.jpg,,,,,,,,,,,,,,,,,,,,,,,,,,,,,,,,,,,,,,,,,,,0,1,1,4,1,,,,,,,,,,,,,,,,,,,,,,,,,,,,,,,,,,,,,,,,,,,,,,
509275,001,2022-11-21_24h53.24.788,Info_measure_main_exp,2022.2.2,Win32,11.9988961,,,,,,,,,,,,,,,,,,masks/mask_004.jpg,,,,,,,,,,,,,,,,,,,,,,,,,,,,,,,,,,,,,,,,,,,0,2,2,3,1,,,,,,,,,,,,,,,,,,,,,,,,,,,,,,,,,,,,,,,,,,,,,,
509275,001,2022-11-21_24h53.24.788,Info_measure_main_exp,2022.2.2,Win32,11.9988961,,,,,,,,,,,,,,,,,,masks/mask_002.jpg,,,,,,,,,,,,,,,,,,,,,,,,,,,,,,,,,,,,,,,,,,,0,3,3,1,1,,,,,,,,,,,,,,,,,,,,,,,,,,,,,,,,,,,,,,,,,,,,,,
509275,001,2022-11-21_24h53.24.788,Info_measure_main_exp,2022.2.2,Win32,11.9988961,,,,,,,,,,,,,,,,,,masks/mask_003.jpg,,,,,,,,,,,,,,,,,,,,,,,,,,,,,,,,,,,,,,,,,,,0,4,4,2,1,,,,,,,,,,,,,,,,,,,,,,,,,,,,,,,,,,,,,,,,,,,,,,
509275,001,2022-11-21_24h53.24.788,Info_measure_main_exp,2022.2.2,Win32,11.9988961,,,,,,,,,,,,,,,,,,masks/mask_001.jpg,,,,,,,,,,,,,,,,,,,,,,,,,,,,,,,,,,,,,,,,,,,,,,,,0,0,0,0,1,,,,,,,,,,,,,,,,,,,,,,,,,,,,,,,,,,,,,,,,,
509275,001,2022-11-21_24h53.24.788,Info_measure_main_exp,2022.2.2,Win32,11.9988961,,,,,,,,,,,,,,,,,,masks/mask_004.jpg,,,,,,,,,,,,,,,,,,,,,,,,,,,,,,,,,,,,,,,,,,,,,,,,0,1,1,3,1,,,,,,,,,,,,,,,,,,,,,,,,,,,,,,,,,,,,,,,,,
509275,001,2022-11-21_24h53.24.788,Info_measure_main_exp,2022.2.2,Win32,11.9988961,,,,,,,,,,,,,,,,,,masks/mask_005.jpg,,,,,,,,,,,,,,,,,,,,,,,,,,,,,,,,,,,,,,,,,,,,,,,,0,2,2,4,1,,,,,,,,,,,,,,,,,,,,,,,,,,,,,,,,,,,,,,,,,
509275,001,2022-11-21_24h53.24.788,Info_measure_main_exp,2022.2.2,Win32,11.9988961,,,,,,,,,,,,,,,,,,masks/mask_003.jpg,,,,,,,,,,,,,,,,,,,,,,,,,,,,,,,,,,,,,,,,,,,,,,,,0,3,3,2,1,,,,,,,,,,,,,,,,,,,,,,,,,,,,,,,,,,,,,,,,,
509275,001,2022-11-21_24h53.24.788,Info_measure_main_exp,2022.2.2,Win32,11.9988961,,,,,,,,,,,,,,,,,,masks/mask_002.jpg,,,,,,,,,,,,,,,,,,,,,,,,,,,,,,,,,,,,,,,,,,,,,,,,0,4,4,1,1,,,,,,,,,,,,,,,,,,,,,,,,,,,,,,,,,,,,,,,,,
509275,001,2022-11-21_24h53.24.788,Info_measure_main_exp,2022.2.2,Win32,11.9988961,,,,,,,,,,,,,,,,,,,,,,,,,,,,,,7,2.7694,1,,,,,,,,,,,,0,131,5,5,2250,2238,absent_patch/patch0002250.jpg,absent_patch/patch0002238.jpg,,,,,,,,,,,,,,,,,,,,0.056481481,0.102777778,1,0,0,response1disk,8,0.008333333,0.006481481,1,0,0,center_square,0,7,7,110,1,,,,,,,,,,,,,,,,,,,,,,,
509275,001,2022-11-21_24h53.24.788,Info_measure_main_exp,2022.2.2,Win32,11.9988961,,,,,,,,,,,,,,,,,,masks/mask_004.jpg,,,,,,,,,,,,,,,,,,,,,,,,,,,,,,,,,,,,,,,,,,,0,0,0,3,1,,,,,,,,,,,,,,,,,,,,,,,,,,,,,,,,,,,,,,,,,,,,,,
509275,001,2022-11-21_24h53.24.788,Info_measure_main_exp,2022.2.2,Win32,11.9988961,,,,,,,,,,,,,,,,,,masks/mask_003.jpg,,,,,,,,,,,,,,,,,,,,,,,,,,,,,,,,,,,,,,,,,,,0,1,1,2,1,,,,,,,,,,,,,,,,,,,,,,,,,,,,,,,,,,,,,,,,,,,,,,
509275,001,2022-11-21_24h53.24.788,Info_measure_main_exp,2022.2.2,Win32,11.9988961,,,,,,,,,,,,,,,,,,masks/mask_005.jpg,,,,,,,,,,,,,,,,,,,,,,,,,,,,,,,,,,,,,,,,,,,0,2,2,4,1,,,,,,,,,,,,,,,,,,,,,,,,,,,,,,,,,,,,,,,,,,,,,,
509275,001,2022-11-21_24h53.24.788,Info_measure_main_exp,2022.2.2,Win32,11.9988961,,,,,,,,,,,,,,,,,,masks/mask_001.jpg,,,,,,,,,,,,,,,,,,,,,,,,,,,,,,,,,,,,,,,,,,,0,3,3,0,1,,,,,,,,,,,,,,,,,,,,,,,,,,,,,,,,,,,,,,,,,,,,,,
509275,001,2022-11-21_24h53.24.788,Info_measure_main_exp,2022.2.2,Win32,11.9988961,,,,,,,,,,,,,,,,,,masks/mask_002.jpg,,,,,,,,,,,,,,,,,,,,,,,,,,,,,,,,,,,,,,,,,,,0,4,4,1,1,,,,,,,,,,,,,,,,,,,,,,,,,,,,,,,,,,,,,,,,,,,,,,
509275,001,2022-11-21_24h53.24.788,Info_measure_main_exp,2022.2.2,Win32,11.9988961,,,,,,,,,,,,,,,,,,masks/mask_004.jpg,,,,,,,,,,,,,,,,,,,,,,,,,,,,,,,,,,,,,,,,,,,,,,,,0,0,0,3,1,,,,,,,,,,,,,,,,,,,,,,,,,,,,,,,,,,,,,,,,,
509275,001,2022-11-21_24h53.24.788,Info_measure_main_exp,2022.2.2,Win32,11.9988961,,,,,,,,,,,,,,,,,,masks/mask_005.jpg,,,,,,,,,,,,,,,,,,,,,,,,,,,,,,,,,,,,,,,,,,,,,,,,0,1,1,4,1,,,,,,,,,,,,,,,,,,,,,,,,,,,,,,,,,,,,,,,,,
509275,001,2022-11-21_24h53.24.788,Info_measure_main_exp,2022.2.2,Win32,11.9988961,,,,,,,,,,,,,,,,,,masks/mask_002.jpg,,,,,,,,,,,,,,,,,,,,,,,,,,,,,,,,,,,,,,,,,,,,,,,,0,2,2,1,1,,,,,,,,,,,,,,,,,,,,,,,,,,,,,,,,,,,,,,,,,
509275,001,2022-11-21_24h53.24.788,Info_measure_main_exp,2022.2.2,Win32,11.9988961,,,,,,,,,,,,,,,,,,masks/mask_001.jpg,,,,,,,,,,,,,,,,,,,,,,,,,,,,,,,,,,,,,,,,,,,,,,,,0,3,3,0,1,,,,,,,,,,,,,,,,,,,,,,,,,,,,,,,,,,,,,,,,,
509275,001,2022-11-21_24h53.24.788,Info_measure_main_exp,2022.2.2,Win32,11.9988961,,,,,,,,,,,,,,,,,,masks/mask_003.jpg,,,,,,,,,,,,,,,,,,,,,,,,,,,,,,,,,,,,,,,,,,,,,,,,0,4,4,2,1,,,,,,,,,,,,,,,,,,,,,,,,,,,,,,,,,,,,,,,,,
509275,001,2022-11-21_24h53.24.788,Info_measure_main_exp,2022.2.2,Win32,11.9988961,,,,,,,,,,,,,,,,,,,,,,,,,,,,,,6,4.7798,1,,,,,,,,,,,,0,131,5,5,2274,2238,absent_patch/patch0002274.jpg,absent_patch/patch0002238.jpg,,,,,,,,,,,,,,,,,,,,0.137037037,0.051851852,1,0,0,response1disk,9,-0.003703704,0.000925926,1,0,0,center_square,0,8,8,91,1,,,,,,,,,,,,,,,,,,,,,,,
509275,001,2022-11-21_24h53.24.788,Info_measure_main_exp,2022.2.2,Win32,11.9988961,,,,,,,,,,,,,,,,,,masks/mask_003.jpg,,,,,,,,,,,,,,,,,,,,,,,,,,,,,,,,,,,,,,,,,,,0,0,0,2,1,,,,,,,,,,,,,,,,,,,,,,,,,,,,,,,,,,,,,,,,,,,,,,
509275,001,2022-11-21_24h53.24.788,Info_measure_main_exp,2022.2.2,Win32,11.9988961,,,,,,,,,,,,,,,,,,masks/mask_005.jpg,,,,,,,,,,,,,,,,,,,,,,,,,,,,,,,,,,,,,,,,,,,0,1,1,4,1,,,,,,,,,,,,,,,,,,,,,,,,,,,,,,,,,,,,,,,,,,,,,,
509275,001,2022-11-21_24h53.24.788,Info_measure_main_exp,2022.2.2,Win32,11.9988961,,,,,,,,,,,,,,,,,,masks/mask_001.jpg,,,,,,,,,,,,,,,,,,,,,,,,,,,,,,,,,,,,,,,,,,,0,2,2,0,1,,,,,,,,,,,,,,,,,,,,,,,,,,,,,,,,,,,,,,,,,,,,,,
509275,001,2022-11-21_24h53.24.788,Info_measure_main_exp,2022.2.2,Win32,11.9988961,,,,,,,,,,,,,,,,,,masks/mask_002.jpg,,,,,,,,,,,,,,,,,,,,,,,,,,,,,,,,,,,,,,,,,,,0,3,3,1,1,,,,,,,,,,,,,,,,,,,,,,,,,,,,,,,,,,,,,,,,,,,,,,
509275,001,2022-11-21_24h53.24.788,Info_measure_main_exp,2022.2.2,Win32,11.9988961,,,,,,,,,,,,,,,,,,masks/mask_004.jpg,,,,,,,,,,,,,,,,,,,,,,,,,,,,,,,,,,,,,,,,,,,0,4,4,3,1,,,,,,,,,,,,,,,,,,,,,,,,,,,,,,,,,,,,,,,,,,,,,,
509275,001,2022-11-21_24h53.24.788,Info_measure_main_exp,2022.2.2,Win32,11.9988961,,,,,,,,,,,,,,,,,,masks/mask_005.jpg,,,,,,,,,,,,,,,,,,,,,,,,,,,,,,,,,,,,,,,,,,,,,,,,0,0,0,4,1,,,,,,,,,,,,,,,,,,,,,,,,,,,,,,,,,,,,,,,,,
509275,001,2022-11-21_24h53.24.788,Info_measure_main_exp,2022.2.2,Win32,11.9988961,,,,,,,,,,,,,,,,,,masks/mask_001.jpg,,,,,,,,,,,,,,,,,,,,,,,,,,,,,,,,,,,,,,,,,,,,,,,,0,1,1,0,1,,,,,,,,,,,,,,,,,,,,,,,,,,,,,,,,,,,,,,,,,
509275,001,2022-11-21_24h53.24.788,Info_measure_main_exp,2022.2.2,Win32,11.9988961,,,,,,,,,,,,,,,,,,masks/mask_003.jpg,,,,,,,,,,,,,,,,,,,,,,,,,,,,,,,,,,,,,,,,,,,,,,,,0,2,2,2,1,,,,,,,,,,,,,,,,,,,,,,,,,,,,,,,,,,,,,,,,,
509275,001,2022-11-21_24h53.24.788,Info_measure_main_exp,2022.2.2,Win32,11.9988961,,,,,,,,,,,,,,,,,,masks/mask_004.jpg,,,,,,,,,,,,,,,,,,,,,,,,,,,,,,,,,,,,,,,,,,,,,,,,0,3,3,3,1,,,,,,,,,,,,,,,,,,,,,,,,,,,,,,,,,,,,,,,,,
509275,001,2022-11-21_24h53.24.788,Info_measure_main_exp,2022.2.2,Win32,11.9988961,,,,,,,,,,,,,,,,,,masks/mask_002.jpg,,,,,,,,,,,,,,,,,,,,,,,,,,,,,,,,,,,,,,,,,,,,,,,,0,4,4,1,1,,,,,,,,,,,,,,,,,,,,,,,,,,,,,,,,,,,,,,,,,
509275,001,2022-11-21_24h53.24.788,Info_measure_main_exp,2022.2.2,Win32,11.9988961,,,,,,,,,,,,,,,,,,,,,,,,,,,,,,4,2.2839,1,,,,,,,,,,,,0,131,5,5,1974,2178,absent_patch/patch0001974.jpg,absent_patch/patch0002178.jpg,,,,,,,,,,,,,,,,,,,,0.042592593,-0.096296296,1,0,0,response3disk,10,0.001851852,-0.000925926,1,0,0,center_square,0,9,9,44,1,,,,,,,,,,,,,,,,,,,,,,,
509275,001,2022-11-21_24h53.24.788,Info_measure_main_exp,2022.2.2,Win32,11.9988961,,,,,,,,,,,,,,,,,,masks/mask_002.jpg,,,,,,,,,,,,,,,,,,,,,,,,,,,,,,,,,,,,,,,,,,,0,0,0,1,1,,,,,,,,,,,,,,,,,,,,,,,,,,,,,,,,,,,,,,,,,,,,,,
509275,001,2022-11-21_24h53.24.788,Info_measure_main_exp,2022.2.2,Win32,11.9988961,,,,,,,,,,,,,,,,,,masks/mask_004.jpg,,,,,,,,,,,,,,,,,,,,,,,,,,,,,,,,,,,,,,,,,,,0,1,1,3,1,,,,,,,,,,,,,,,,,,,,,,,,,,,,,,,,,,,,,,,,,,,,,,
509275,001,2022-11-21_24h53.24.788,Info_measure_main_exp,2022.2.2,Win32,11.9988961,,,,,,,,,,,,,,,,,,masks/mask_003.jpg,,,,,,,,,,,,,,,,,,,,,,,,,,,,,,,,,,,,,,,,,,,0,2,2,2,1,,,,,,,,,,,,,,,,,,,,,,,,,,,,,,,,,,,,,,,,,,,,,,
509275,001,2022-11-21_24h53.24.788,Info_measure_main_exp,2022.2.2,Win32,11.9988961,,,,,,,,,,,,,,,,,,masks/mask_005.jpg,,,,,,,,,,,,,,,,,,,,,,,,,,,,,,,,,,,,,,,,,,,0,3,3,4,1,,,,,,,,,,,,,,,,,,,,,,,,,,,,,,,,,,,,,,,,,,,,,,
509275,001,2022-11-21_24h53.24.788,Info_measure_main_exp,2022.2.2,Win32,11.9988961,,,,,,,,,,,,,,,,,,masks/mask_001.jpg,,,,,,,,,,,,,,,,,,,,,,,,,,,,,,,,,,,,,,,,,,,0,4,4,0,1,,,,,,,,,,,,,,,,,,,,,,,,,,,,,,,,,,,,,,,,,,,,,,
509275,001,2022-11-21_24h53.24.788,Info_measure_main_exp,2022.2.2,Win32,11.9988961,,,,,,,,,,,,,,,,,,masks/mask_004.jpg,,,,,,,,,,,,,,,,,,,,,,,,,,,,,,,,,,,,,,,,,,,,,,,,0,0,0,3,1,,,,,,,,,,,,,,,,,,,,,,,,,,,,,,,,,,,,,,,,,
509275,001,2022-11-21_24h53.24.788,Info_measure_main_exp,2022.2.2,Win32,11.9988961,,,,,,,,,,,,,,,,,,masks/mask_003.jpg,,,,,,,,,,,,,,,,,,,,,,,,,,,,,,,,,,,,,,,,,,,,,,,,0,1,1,2,1,,,,,,,,,,,,,,,,,,,,,,,,,,,,,,,,,,,,,,,,,
509275,001,2022-11-21_24h53.24.788,Info_measure_main_exp,2022.2.2,Win32,11.9988961,,,,,,,,,,,,,,,,,,masks/mask_005.jpg,,,,,,,,,,,,,,,,,,,,,,,,,,,,,,,,,,,,,,,,,,,,,,,,0,2,2,4,1,,,,,,,,,,,,,,,,,,,,,,,,,,,,,,,,,,,,,,,,,
509275,001,2022-11-21_24h53.24.788,Info_measure_main_exp,2022.2.2,Win32,11.9988961,,,,,,,,,,,,,,,,,,masks/mask_001.jpg,,,,,,,,,,,,,,,,,,,,,,,,,,,,,,,,,,,,,,,,,,,,,,,,0,3,3,0,1,,,,,,,,,,,,,,,,,,,,,,,,,,,,,,,,,,,,,,,,,
509275,001,2022-11-21_24h53.24.788,Info_measure_main_exp,2022.2.2,Win32,11.9988961,,,,,,,,,,,,,,,,,,masks/mask_002.jpg,,,,,,,,,,,,,,,,,,,,,,,,,,,,,,,,,,,,,,,,,,,,,,,,0,4,4,1,1,,,,,,,,,,,,,,,,,,,,,,,,,,,,,,,,,,,,,,,,,
509275,001,2022-11-21_24h53.24.788,Info_measure_main_exp,2022.2.2,Win32,11.9988961,,,,,,,,,,,,,,,,,,,,,,,,,,,,,,7,4.1696,1,,,,,,,,,,,,0,131,5,5,2178,2166,absent_patch/patch0002178.jpg,absent_patch/patch0002166.jpg,,,,,,,,,,,,,,,,,,,,0.059259259,0.107407407,1,0,0,response1disk,11,0.002777778,-0.000925926,1,0,0,center_square,0,10,10,72,1,,,,,,,,,,,,,,,,,,,,,,,
509275,001,2022-11-21_24h53.24.788,Info_measure_main_exp,2022.2.2,Win32,11.9988961,,,,,,,,,,,,,,,,,,masks/mask_004.jpg,,,,,,,,,,,,,,,,,,,,,,,,,,,,,,,,,,,,,,,,,,,0,0,0,3,1,,,,,,,,,,,,,,,,,,,,,,,,,,,,,,,,,,,,,,,,,,,,,,
509275,001,2022-11-21_24h53.24.788,Info_measure_main_exp,2022.2.2,Win32,11.9988961,,,,,,,,,,,,,,,,,,masks/mask_001.jpg,,,,,,,,,,,,,,,,,,,,,,,,,,,,,,,,,,,,,,,,,,,0,1,1,0,1,,,,,,,,,,,,,,,,,,,,,,,,,,,,,,,,,,,,,,,,,,,,,,
509275,001,2022-11-21_24h53.24.788,Info_measure_main_exp,2022.2.2,Win32,11.9988961,,,,,,,,,,,,,,,,,,masks/mask_005.jpg,,,,,,,,,,,,,,,,,,,,,,,,,,,,,,,,,,,,,,,,,,,0,2,2,4,1,,,,,,,,,,,,,,,,,,,,,,,,,,,,,,,,,,,,,,,,,,,,,,
509275,001,2022-11-21_24h53.24.788,Info_measure_main_exp,2022.2.2,Win32,11.9988961,,,,,,,,,,,,,,,,,,masks/mask_002.jpg,,,,,,,,,,,,,,,,,,,,,,,,,,,,,,,,,,,,,,,,,,,0,3,3,1,1,,,,,,,,,,,,,,,,,,,,,,,,,,,,,,,,,,,,,,,,,,,,,,
509275,001,2022-11-21_24h53.24.788,Info_measure_main_exp,2022.2.2,Win32,11.9988961,,,,,,,,,,,,,,,,,,masks/mask_003.jpg,,,,,,,,,,,,,,,,,,,,,,,,,,,,,,,,,,,,,,,,,,,0,4,4,2,1,,,,,,,,,,,,,,,,,,,,,,,,,,,,,,,,,,,,,,,,,,,,,,
509275,001,2022-11-21_24h53.24.788,Info_measure_main_exp,2022.2.2,Win32,11.9988961,,,,,,,,,,,,,,,,,,masks/mask_003.jpg,,,,,,,,,,,,,,,,,,,,,,,,,,,,,,,,,,,,,,,,,,,,,,,,0,0,0,2,1,,,,,,,,,,,,,,,,,,,,,,,,,,,,,,,,,,,,,,,,,
509275,001,2022-11-21_24h53.24.788,Info_measure_main_exp,2022.2.2,Win32,11.9988961,,,,,,,,,,,,,,,,,,masks/mask_004.jpg,,,,,,,,,,,,,,,,,,,,,,,,,,,,,,,,,,,,,,,,,,,,,,,,0,1,1,3,1,,,,,,,,,,,,,,,,,,,,,,,,,,,,,,,,,,,,,,,,,
509275,001,2022-11-21_24h53.24.788,Info_measure_main_exp,2022.2.2,Win32,11.9988961,,,,,,,,,,,,,,,,,,masks/mask_001.jpg,,,,,,,,,,,,,,,,,,,,,,,,,,,,,,,,,,,,,,,,,,,,,,,,0,2,2,0,1,,,,,,,,,,,,,,,,,,,,,,,,,,,,,,,,,,,,,,,,,
509275,001,2022-11-21_24h53.24.788,Info_measure_main_exp,2022.2.2,Win32,11.9988961,,,,,,,,,,,,,,,,,,masks/mask_002.jpg,,,,,,,,,,,,,,,,,,,,,,,,,,,,,,,,,,,,,,,,,,,,,,,,0,3,3,1,1,,,,,,,,,,,,,,,,,,,,,,,,,,,,,,,,,,,,,,,,,
509275,001,2022-11-21_24h53.24.788,Info_measure_main_exp,2022.2.2,Win32,11.9988961,,,,,,,,,,,,,,,,,,masks/mask_005.jpg,,,,,,,,,,,,,,,,,,,,,,,,,,,,,,,,,,,,,,,,,,,,,,,,0,4,4,4,1,,,,,,,,,,,,,,,,,,,,,,,,,,,,,,,,,,,,,,,,,
509275,001,2022-11-21_24h53.24.788,Info_measure_main_exp,2022.2.2,Win32,11.9988961,,,,,,,,,,,,,,,,,,,,,,,,,,,,,,5,3.1005,1,,,,,,,,,,,,1,131,5,5,1,2166,present_patch/cong_131_5_a.jpg,absent_patch/patch0002166.jpg,,,,,,,,,,,,,,,,,,,,0.096296296,-0.048148148,1,0,0,response3disk,12,0.000925926,-0.000925926,1,0,0,center_square,0,11,11,54,1,,,,,,,,,,,,,,,,,,,,,,,
509275,001,2022-11-21_24h53.24.788,Info_measure_main_exp,2022.2.2,Win32,11.9988961,,,,,,,,,,,,,,,,,,masks/mask_004.jpg,,,,,,,,,,,,,,,,,,,,,,,,,,,,,,,,,,,,,,,,,,,0,0,0,3,1,,,,,,,,,,,,,,,,,,,,,,,,,,,,,,,,,,,,,,,,,,,,,,
509275,001,2022-11-21_24h53.24.788,Info_measure_main_exp,2022.2.2,Win32,11.9988961,,,,,,,,,,,,,,,,,,masks/mask_002.jpg,,,,,,,,,,,,,,,,,,,,,,,,,,,,,,,,,,,,,,,,,,,0,1,1,1,1,,,,,,,,,,,,,,,,,,,,,,,,,,,,,,,,,,,,,,,,,,,,,,
509275,001,2022-11-21_24h53.24.788,Info_measure_main_exp,2022.2.2,Win32,11.9988961,,,,,,,,,,,,,,,,,,masks/mask_001.jpg,,,,,,,,,,,,,,,,,,,,,,,,,,,,,,,,,,,,,,,,,,,0,2,2,0,1,,,,,,,,,,,,,,,,,,,,,,,,,,,,,,,,,,,,,,,,,,,,,,
509275,001,2022-11-21_24h53.24.788,Info_measure_main_exp,2022.2.2,Win32,11.9988961,,,,,,,,,,,,,,,,,,masks/mask_005.jpg,,,,,,,,,,,,,,,,,,,,,,,,,,,,,,,,,,,,,,,,,,,0,3,3,4,1,,,,,,,,,,,,,,,,,,,,,,,,,,,,,,,,,,,,,,,,,,,,,,
509275,001,2022-11-21_24h53.24.788,Info_measure_main_exp,2022.2.2,Win32,11.9988961,,,,,,,,,,,,,,,,,,masks/mask_003.jpg,,,,,,,,,,,,,,,,,,,,,,,,,,,,,,,,,,,,,,,,,,,0,4,4,2,1,,,,,,,,,,,,,,,,,,,,,,,,,,,,,,,,,,,,,,,,,,,,,,
509275,001,2022-11-21_24h53.24.788,Info_measure_main_exp,2022.2.2,Win32,11.9988961,,,,,,,,,,,,,,,,,,masks/mask_002.jpg,,,,,,,,,,,,,,,,,,,,,,,,,,,,,,,,,,,,,,,,,,,,,,,,0,0,0,1,1,,,,,,,,,,,,,,,,,,,,,,,,,,,,,,,,,,,,,,,,,
509275,001,2022-11-21_24h53.24.788,Info_measure_main_exp,2022.2.2,Win32,11.9988961,,,,,,,,,,,,,,,,,,masks/mask_005.jpg,,,,,,,,,,,,,,,,,,,,,,,,,,,,,,,,,,,,,,,,,,,,,,,,0,1,1,4,1,,,,,,,,,,,,,,,,,,,,,,,,,,,,,,,,,,,,,,,,,
509275,001,2022-11-21_24h53.24.788,Info_measure_main_exp,2022.2.2,Win32,11.9988961,,,,,,,,,,,,,,,,,,masks/mask_004.jpg,,,,,,,,,,,,,,,,,,,,,,,,,,,,,,,,,,,,,,,,,,,,,,,,0,2,2,3,1,,,,,,,,,,,,,,,,,,,,,,,,,,,,,,,,,,,,,,,,,
509275,001,2022-11-21_24h53.24.788,Info_measure_main_exp,2022.2.2,Win32,11.9988961,,,,,,,,,,,,,,,,,,masks/mask_001.jpg,,,,,,,,,,,,,,,,,,,,,,,,,,,,,,,,,,,,,,,,,,,,,,,,0,3,3,0,1,,,,,,,,,,,,,,,,,,,,,,,,,,,,,,,,,,,,,,,,,
509275,001,2022-11-21_24h53.24.788,Info_measure_main_exp,2022.2.2,Win32,11.9988961,,,,,,,,,,,,,,,,,,masks/mask_003.jpg,,,,,,,,,,,,,,,,,,,,,,,,,,,,,,,,,,,,,,,,,,,,,,,,0,4,4,2,1,,,,,,,,,,,,,,,,,,,,,,,,,,,,,,,,,,,,,,,,,
509275,001,2022-11-21_24h53.24.788,Info_measure_main_exp,2022.2.2,Win32,11.9988961,,,,,,,,,,,,,,,,,,,,,,,,,,,,,,5,2.21,1,,,,,,,,,,,,0,131,5,5,2214,2166,absent_patch/patch0002214.jpg,absent_patch/patch0002166.jpg,,,,,,,,,,,,,,,,,,,,0.089814815,-0.034259259,1,0,0,response3disk,13,0.002777778,0.000925926,1,0,0,center_square,0,12,12,109,1,,,,,,,,,,,,,,,,,,,,,,,
509275,001,2022-11-21_24h53.24.788,Info_measure_main_exp,2022.2.2,Win32,11.9988961,,,,,,,,,,,,,,,,,,masks/mask_004.jpg,,,,,,,,,,,,,,,,,,,,,,,,,,,,,,,,,,,,,,,,,,,0,0,0,3,1,,,,,,,,,,,,,,,,,,,,,,,,,,,,,,,,,,,,,,,,,,,,,,
509275,001,2022-11-21_24h53.24.788,Info_measure_main_exp,2022.2.2,Win32,11.9988961,,,,,,,,,,,,,,,,,,masks/mask_005.jpg,,,,,,,,,,,,,,,,,,,,,,,,,,,,,,,,,,,,,,,,,,,0,1,1,4,1,,,,,,,,,,,,,,,,,,,,,,,,,,,,,,,,,,,,,,,,,,,,,,
509275,001,2022-11-21_24h53.24.788,Info_measure_main_exp,2022.2.2,Win32,11.9988961,,,,,,,,,,,,,,,,,,masks/mask_002.jpg,,,,,,,,,,,,,,,,,,,,,,,,,,,,,,,,,,,,,,,,,,,0,2,2,1,1,,,,,,,,,,,,,,,,,,,,,,,,,,,,,,,,,,,,,,,,,,,,,,
509275,001,2022-11-21_24h53.24.788,Info_measure_main_exp,2022.2.2,Win32,11.9988961,,,,,,,,,,,,,,,,,,masks/mask_001.jpg,,,,,,,,,,,,,,,,,,,,,,,,,,,,,,,,,,,,,,,,,,,0,3,3,0,1,,,,,,,,,,,,,,,,,,,,,,,,,,,,,,,,,,,,,,,,,,,,,,
509275,001,2022-11-21_24h53.24.788,Info_measure_main_exp,2022.2.2,Win32,11.9988961,,,,,,,,,,,,,,,,,,masks/mask_003.jpg,,,,,,,,,,,,,,,,,,,,,,,,,,,,,,,,,,,,,,,,,,,0,4,4,2,1,,,,,,,,,,,,,,,,,,,,,,,,,,,,,,,,,,,,,,,,,,,,,,
509275,001,2022-11-21_24h53.24.788,Info_measure_main_exp,2022.2.2,Win32,11.9988961,,,,,,,,,,,,,,,,,,masks/mask_005.jpg,,,,,,,,,,,,,,,,,,,,,,,,,,,,,,,,,,,,,,,,,,,,,,,,0,0,0,4,1,,,,,,,,,,,,,,,,,,,,,,,,,,,,,,,,,,,,,,,,,
509275,001,2022-11-21_24h53.24.788,Info_measure_main_exp,2022.2.2,Win32,11.9988961,,,,,,,,,,,,,,,,,,masks/mask_004.jpg,,,,,,,,,,,,,,,,,,,,,,,,,,,,,,,,,,,,,,,,,,,,,,,,0,1,1,3,1,,,,,,,,,,,,,,,,,,,,,,,,,,,,,,,,,,,,,,,,,
509275,001,2022-11-21_24h53.24.788,Info_measure_main_exp,2022.2.2,Win32,11.9988961,,,,,,,,,,,,,,,,,,masks/mask_001.jpg,,,,,,,,,,,,,,,,,,,,,,,,,,,,,,,,,,,,,,,,,,,,,,,,0,2,2,0,1,,,,,,,,,,,,,,,,,,,,,,,,,,,,,,,,,,,,,,,,,
509275,001,2022-11-21_24h53.24.788,Info_measure_main_exp,2022.2.2,Win32,11.9988961,,,,,,,,,,,,,,,,,,masks/mask_002.jpg,,,,,,,,,,,,,,,,,,,,,,,,,,,,,,,,,,,,,,,,,,,,,,,,0,3,3,1,1,,,,,,,,,,,,,,,,,,,,,,,,,,,,,,,,,,,,,,,,,
509275,001,2022-11-21_24h53.24.788,Info_measure_main_exp,2022.2.2,Win32,11.9988961,,,,,,,,,,,,,,,,,,masks/mask_003.jpg,,,,,,,,,,,,,,,,,,,,,,,,,,,,,,,,,,,,,,,,,,,,,,,,0,4,4,2,1,,,,,,,,,,,,,,,,,,,,,,,,,,,,,,,,,,,,,,,,,
509275,001,2022-11-21_24h53.24.788,Info_measure_main_exp,2022.2.2,Win32,11.9988961,,,,,,,,,,,,,,,,,,,,,,,,,,,,,,6,2.2882,1,,,,,,,,,,,,0,131,5,5,2190,2214,absent_patch/patch0002190.jpg,absent_patch/patch0002214.jpg,,,,,,,,,,,,,,,,,,,,0.098148148,0.072222222,1,0,0,response1disk,14,0.003703704,0,1,0,0,center_square,0,13,13,35,1,,,,,,,,,,,,,,,,,,,,,,,
509275,001,2022-11-21_24h53.24.788,Info_measure_main_exp,2022.2.2,Win32,11.9988961,,,,,,,,,,,,,,,,,,masks/mask_002.jpg,,,,,,,,,,,,,,,,,,,,,,,,,,,,,,,,,,,,,,,,,,,0,0,0,1,1,,,,,,,,,,,,,,,,,,,,,,,,,,,,,,,,,,,,,,,,,,,,,,
509275,001,2022-11-21_24h53.24.788,Info_measure_main_exp,2022.2.2,Win32,11.9988961,,,,,,,,,,,,,,,,,,masks/mask_001.jpg,,,,,,,,,,,,,,,,,,,,,,,,,,,,,,,,,,,,,,,,,,,0,1,1,0,1,,,,,,,,,,,,,,,,,,,,,,,,,,,,,,,,,,,,,,,,,,,,,,
509275,001,2022-11-21_24h53.24.788,Info_measure_main_exp,2022.2.2,Win32,11.9988961,,,,,,,,,,,,,,,,,,masks/mask_005.jpg,,,,,,,,,,,,,,,,,,,,,,,,,,,,,,,,,,,,,,,,,,,0,2,2,4,1,,,,,,,,,,,,,,,,,,,,,,,,,,,,,,,,,,,,,,,,,,,,,,
509275,001,2022-11-21_24h53.24.788,Info_measure_main_exp,2022.2.2,Win32,11.9988961,,,,,,,,,,,,,,,,,,masks/mask_004.jpg,,,,,,,,,,,,,,,,,,,,,,,,,,,,,,,,,,,,,,,,,,,0,3,3,3,1,,,,,,,,,,,,,,,,,,,,,,,,,,,,,,,,,,,,,,,,,,,,,,
509275,001,2022-11-21_24h53.24.788,Info_measure_main_exp,2022.2.2,Win32,11.9988961,,,,,,,,,,,,,,,,,,masks/mask_003.jpg,,,,,,,,,,,,,,,,,,,,,,,,,,,,,,,,,,,,,,,,,,,0,4,4,2,1,,,,,,,,,,,,,,,,,,,,,,,,,,,,,,,,,,,,,,,,,,,,,,
509275,001,2022-11-21_24h53.24.788,Info_measure_main_exp,2022.2.2,Win32,11.9988961,,,,,,,,,,,,,,,,,,masks/mask_001.jpg,,,,,,,,,,,,,,,,,,,,,,,,,,,,,,,,,,,,,,,,,,,,,,,,0,0,0,0,1,,,,,,,,,,,,,,,,,,,,,,,,,,,,,,,,,,,,,,,,,
509275,001,2022-11-21_24h53.24.788,Info_measure_main_exp,2022.2.2,Win32,11.9988961,,,,,,,,,,,,,,,,,,masks/mask_003.jpg,,,,,,,,,,,,,,,,,,,,,,,,,,,,,,,,,,,,,,,,,,,,,,,,0,1,1,2,1,,,,,,,,,,,,,,,,,,,,,,,,,,,,,,,,,,,,,,,,,
509275,001,2022-11-21_24h53.24.788,Info_measure_main_exp,2022.2.2,Win32,11.9988961,,,,,,,,,,,,,,,,,,masks/mask_004.jpg,,,,,,,,,,,,,,,,,,,,,,,,,,,,,,,,,,,,,,,,,,,,,,,,0,2,2,3,1,,,,,,,,,,,,,,,,,,,,,,,,,,,,,,,,,,,,,,,,,
509275,001,2022-11-21_24h53.24.788,Info_measure_main_exp,2022.2.2,Win32,11.9988961,,,,,,,,,,,,,,,,,,masks/mask_002.jpg,,,,,,,,,,,,,,,,,,,,,,,,,,,,,,,,,,,,,,,,,,,,,,,,0,3,3,1,1,,,,,,,,,,,,,,,,,,,,,,,,,,,,,,,,,,,,,,,,,
509275,001,2022-11-21_24h53.24.788,Info_measure_main_exp,2022.2.2,Win32,11.9988961,,,,,,,,,,,,,,,,,,masks/mask_005.jpg,,,,,,,,,,,,,,,,,,,,,,,,,,,,,,,,,,,,,,,,,,,,,,,,0,4,4,4,1,,,,,,,,,,,,,,,,,,,,,,,,,,,,,,,,,,,,,,,,,
509275,001,2022-11-21_24h53.24.788,Info_measure_main_exp,2022.2.2,Win32,11.9988961,,,,,,,,,,,,,,,,,,,,,,,,,,,,,,6,2.8557,1,,,,,,,,,,,,0,131,5,5,2142,2238,absent_patch/patch0002142.jpg,absent_patch/patch0002238.jpg,,,,,,,,,,,,,,,,,,,,0.101851852,0.023148148,1,0,0,response1disk,15,0.005555556,0,1,0,0,center_square,0,14,14,101,1,,,,,,,,,,,,,,,,,,,,,,,
509275,001,2022-11-21_24h53.24.788,Info_measure_main_exp,2022.2.2,Win32,11.9988961,,,,,,,,,,,,,,,,,,masks/mask_004.jpg,,,,,,,,,,,,,,,,,,,,,,,,,,,,,,,,,,,,,,,,,,,0,0,0,3,1,,,,,,,,,,,,,,,,,,,,,,,,,,,,,,,,,,,,,,,,,,,,,,
509275,001,2022-11-21_24h53.24.788,Info_measure_main_exp,2022.2.2,Win32,11.9988961,,,,,,,,,,,,,,,,,,masks/mask_001.jpg,,,,,,,,,,,,,,,,,,,,,,,,,,,,,,,,,,,,,,,,,,,0,1,1,0,1,,,,,,,,,,,,,,,,,,,,,,,,,,,,,,,,,,,,,,,,,,,,,,
509275,001,2022-11-21_24h53.24.788,Info_measure_main_exp,2022.2.2,Win32,11.9988961,,,,,,,,,,,,,,,,,,masks/mask_005.jpg,,,,,,,,,,,,,,,,,,,,,,,,,,,,,,,,,,,,,,,,,,,0,2,2,4,1,,,,,,,,,,,,,,,,,,,,,,,,,,,,,,,,,,,,,,,,,,,,,,
509275,001,2022-11-21_24h53.24.788,Info_measure_main_exp,2022.2.2,Win32,11.9988961,,,,,,,,,,,,,,,,,,masks/mask_003.jpg,,,,,,,,,,,,,,,,,,,,,,,,,,,,,,,,,,,,,,,,,,,0,3,3,2,1,,,,,,,,,,,,,,,,,,,,,,,,,,,,,,,,,,,,,,,,,,,,,,
509275,001,2022-11-21_24h53.24.788,Info_measure_main_exp,2022.2.2,Win32,11.9988961,,,,,,,,,,,,,,,,,,masks/mask_002.jpg,,,,,,,,,,,,,,,,,,,,,,,,,,,,,,,,,,,,,,,,,,,0,4,4,1,1,,,,,,,,,,,,,,,,,,,,,,,,,,,,,,,,,,,,,,,,,,,,,,
509275,001,2022-11-21_24h53.24.788,Info_measure_main_exp,2022.2.2,Win32,11.9988961,,,,,,,,,,,,,,,,,,masks/mask_002.jpg,,,,,,,,,,,,,,,,,,,,,,,,,,,,,,,,,,,,,,,,,,,,,,,,0,0,0,1,1,,,,,,,,,,,,,,,,,,,,,,,,,,,,,,,,,,,,,,,,,
509275,001,2022-11-21_24h53.24.788,Info_measure_main_exp,2022.2.2,Win32,11.9988961,,,,,,,,,,,,,,,,,,masks/mask_001.jpg,,,,,,,,,,,,,,,,,,,,,,,,,,,,,,,,,,,,,,,,,,,,,,,,0,1,1,0,1,,,,,,,,,,,,,,,,,,,,,,,,,,,,,,,,,,,,,,,,,
509275,001,2022-11-21_24h53.24.788,Info_measure_main_exp,2022.2.2,Win32,11.9988961,,,,,,,,,,,,,,,,,,masks/mask_005.jpg,,,,,,,,,,,,,,,,,,,,,,,,,,,,,,,,,,,,,,,,,,,,,,,,0,2,2,4,1,,,,,,,,,,,,,,,,,,,,,,,,,,,,,,,,,,,,,,,,,
509275,001,2022-11-21_24h53.24.788,Info_measure_main_exp,2022.2.2,Win32,11.9988961,,,,,,,,,,,,,,,,,,masks/mask_003.jpg,,,,,,,,,,,,,,,,,,,,,,,,,,,,,,,,,,,,,,,,,,,,,,,,0,3,3,2,1,,,,,,,,,,,,,,,,,,,,,,,,,,,,,,,,,,,,,,,,,
509275,001,2022-11-21_24h53.24.788,Info_measure_main_exp,2022.2.2,Win32,11.9988961,,,,,,,,,,,,,,,,,,masks/mask_004.jpg,,,,,,,,,,,,,,,,,,,,,,,,,,,,,,,,,,,,,,,,,,,,,,,,0,4,4,3,1,,,,,,,,,,,,,,,,,,,,,,,,,,,,,,,,,,,,,,,,,
509275,001,2022-11-21_24h53.24.788,Info_measure_main_exp,2022.2.2,Win32,11.9988961,,,,,,,,,,,,,,,,,,,,,,,,,,,,,,3,2.9812,1,,,,,,,,,,,,0,131,5,5,2250,2178,absent_patch/patch0002250.jpg,absent_patch/patch0002178.jpg,,,,,,,,,,,,,,,,,,,,-0.018518519,-0.114814815,1,0,0,response5disk,16,0.00462963,-0.000925926,1,0,0,center_square,0,15,15,48,1,,,,,,,,,,,,,,,,,,,,,,,
509275,001,2022-11-21_24h53.24.788,Info_measure_main_exp,2022.2.2,Win32,11.9988961,,,,,,,,,,,,,,,,,,masks/mask_002.jpg,,,,,,,,,,,,,,,,,,,,,,,,,,,,,,,,,,,,,,,,,,,0,0,0,1,1,,,,,,,,,,,,,,,,,,,,,,,,,,,,,,,,,,,,,,,,,,,,,,
509275,001,2022-11-21_24h53.24.788,Info_measure_main_exp,2022.2.2,Win32,11.9988961,,,,,,,,,,,,,,,,,,masks/mask_001.jpg,,,,,,,,,,,,,,,,,,,,,,,,,,,,,,,,,,,,,,,,,,,0,1,1,0,1,,,,,,,,,,,,,,,,,,,,,,,,,,,,,,,,,,,,,,,,,,,,,,
509275,001,2022-11-21_24h53.24.788,Info_measure_main_exp,2022.2.2,Win32,11.9988961,,,,,,,,,,,,,,,,,,masks/mask_005.jpg,,,,,,,,,,,,,,,,,,,,,,,,,,,,,,,,,,,,,,,,,,,0,2,2,4,1,,,,,,,,,,,,,,,,,,,,,,,,,,,,,,,,,,,,,,,,,,,,,,
509275,001,2022-11-21_24h53.24.788,Info_measure_main_exp,2022.2.2,Win32,11.9988961,,,,,,,,,,,,,,,,,,masks/mask_003.jpg,,,,,,,,,,,,,,,,,,,,,,,,,,,,,,,,,,,,,,,,,,,0,3,3,2,1,,,,,,,,,,,,,,,,,,,,,,,,,,,,,,,,,,,,,,,,,,,,,,
509275,001,2022-11-21_24h53.24.788,Info_measure_main_exp,2022.2.2,Win32,11.9988961,,,,,,,,,,,,,,,,,,masks/mask_004.jpg,,,,,,,,,,,,,,,,,,,,,,,,,,,,,,,,,,,,,,,,,,,0,4,4,3,1,,,,,,,,,,,,,,,,,,,,,,,,,,,,,,,,,,,,,,,,,,,,,,
509275,001,2022-11-21_24h53.24.788,Info_measure_main_exp,2022.2.2,Win32,11.9988961,,,,,,,,,,,,,,,,,,masks/mask_002.jpg,,,,,,,,,,,,,,,,,,,,,,,,,,,,,,,,,,,,,,,,,,,,,,,,0,0,0,1,1,,,,,,,,,,,,,,,,,,,,,,,,,,,,,,,,,,,,,,,,,
509275,001,2022-11-21_24h53.24.788,Info_measure_main_exp,2022.2.2,Win32,11.9988961,,,,,,,,,,,,,,,,,,masks/mask_001.jpg,,,,,,,,,,,,,,,,,,,,,,,,,,,,,,,,,,,,,,,,,,,,,,,,0,1,1,0,1,,,,,,,,,,,,,,,,,,,,,,,,,,,,,,,,,,,,,,,,,
509275,001,2022-11-21_24h53.24.788,Info_measure_main_exp,2022.2.2,Win32,11.9988961,,,,,,,,,,,,,,,,,,masks/mask_005.jpg,,,,,,,,,,,,,,,,,,,,,,,,,,,,,,,,,,,,,,,,,,,,,,,,0,2,2,4,1,,,,,,,,,,,,,,,,,,,,,,,,,,,,,,,,,,,,,,,,,
509275,001,2022-11-21_24h53.24.788,Info_measure_main_exp,2022.2.2,Win32,11.9988961,,,,,,,,,,,,,,,,,,masks/mask_003.jpg,,,,,,,,,,,,,,,,,,,,,,,,,,,,,,,,,,,,,,,,,,,,,,,,0,3,3,2,1,,,,,,,,,,,,,,,,,,,,,,,,,,,,,,,,,,,,,,,,,
509275,001,2022-11-21_24h53.24.788,Info_measure_main_exp,2022.2.2,Win32,11.9988961,,,,,,,,,,,,,,,,,,masks/mask_004.jpg,,,,,,,,,,,,,,,,,,,,,,,,,,,,,,,,,,,,,,,,,,,,,,,,0,4,4,3,1,,,,,,,,,,,,,,,,,,,,,,,,,,,,,,,,,,,,,,,,,
509275,001,2022-11-21_24h53.24.788,Info_measure_main_exp,2022.2.2,Win32,11.9988961,,,,,,,,,,,,,,,,,,,,,,,,,,,,,,5,3.9343,1,,,,,,,,,,,,0,131,5,5,2250,1950,absent_patch/patch0002250.jpg,absent_patch/patch0001950.jpg,,,,,,,,,,,,,,,,,,,,0.102777778,-0.014814815,1,0,0,response3disk,17,0.010185185,-0.005555556,1,0,0,center_square,0,16,16,16,1,,,,,,,,,,,,,,,,,,,,,,,
509275,001,2022-11-21_24h53.24.788,Info_measure_main_exp,2022.2.2,Win32,11.9988961,,,,,,,,,,,,,,,,,,masks/mask_005.jpg,,,,,,,,,,,,,,,,,,,,,,,,,,,,,,,,,,,,,,,,,,,0,0,0,4,1,,,,,,,,,,,,,,,,,,,,,,,,,,,,,,,,,,,,,,,,,,,,,,
509275,001,2022-11-21_24h53.24.788,Info_measure_main_exp,2022.2.2,Win32,11.9988961,,,,,,,,,,,,,,,,,,masks/mask_004.jpg,,,,,,,,,,,,,,,,,,,,,,,,,,,,,,,,,,,,,,,,,,,0,1,1,3,1,,,,,,,,,,,,,,,,,,,,,,,,,,,,,,,,,,,,,,,,,,,,,,
509275,001,2022-11-21_24h53.24.788,Info_measure_main_exp,2022.2.2,Win32,11.9988961,,,,,,,,,,,,,,,,,,masks/mask_003.jpg,,,,,,,,,,,,,,,,,,,,,,,,,,,,,,,,,,,,,,,,,,,0,2,2,2,1,,,,,,,,,,,,,,,,,,,,,,,,,,,,,,,,,,,,,,,,,,,,,,
509275,001,2022-11-21_24h53.24.788,Info_measure_main_exp,2022.2.2,Win32,11.9988961,,,,,,,,,,,,,,,,,,masks/mask_002.jpg,,,,,,,,,,,,,,,,,,,,,,,,,,,,,,,,,,,,,,,,,,,0,3,3,1,1,,,,,,,,,,,,,,,,,,,,,,,,,,,,,,,,,,,,,,,,,,,,,,
509275,001,2022-11-21_24h53.24.788,Info_measure_main_exp,2022.2.2,Win32,11.9988961,,,,,,,,,,,,,,,,,,masks/mask_001.jpg,,,,,,,,,,,,,,,,,,,,,,,,,,,,,,,,,,,,,,,,,,,0,4,4,0,1,,,,,,,,,,,,,,,,,,,,,,,,,,,,,,,,,,,,,,,,,,,,,,
509275,001,2022-11-21_24h53.24.788,Info_measure_main_exp,2022.2.2,Win32,11.9988961,,,,,,,,,,,,,,,,,,masks/mask_004.jpg,,,,,,,,,,,,,,,,,,,,,,,,,,,,,,,,,,,,,,,,,,,,,,,,0,0,0,3,1,,,,,,,,,,,,,,,,,,,,,,,,,,,,,,,,,,,,,,,,,
509275,001,2022-11-21_24h53.24.788,Info_measure_main_exp,2022.2.2,Win32,11.9988961,,,,,,,,,,,,,,,,,,masks/mask_002.jpg,,,,,,,,,,,,,,,,,,,,,,,,,,,,,,,,,,,,,,,,,,,,,,,,0,1,1,1,1,,,,,,,,,,,,,,,,,,,,,,,,,,,,,,,,,,,,,,,,,
509275,001,2022-11-21_24h53.24.788,Info_measure_main_exp,2022.2.2,Win32,11.9988961,,,,,,,,,,,,,,,,,,masks/mask_005.jpg,,,,,,,,,,,,,,,,,,,,,,,,,,,,,,,,,,,,,,,,,,,,,,,,0,2,2,4,1,,,,,,,,,,,,,,,,,,,,,,,,,,,,,,,,,,,,,,,,,
509275,001,2022-11-21_24h53.24.788,Info_measure_main_exp,2022.2.2,Win32,11.9988961,,,,,,,,,,,,,,,,,,masks/mask_003.jpg,,,,,,,,,,,,,,,,,,,,,,,,,,,,,,,,,,,,,,,,,,,,,,,,0,3,3,2,1,,,,,,,,,,,,,,,,,,,,,,,,,,,,,,,,,,,,,,,,,
509275,001,2022-11-21_24h53.24.788,Info_measure_main_exp,2022.2.2,Win32,11.9988961,,,,,,,,,,,,,,,,,,masks/mask_001.jpg,,,,,,,,,,,,,,,,,,,,,,,,,,,,,,,,,,,,,,,,,,,,,,,,0,4,4,0,1,,,,,,,,,,,,,,,,,,,,,,,,,,,,,,,,,,,,,,,,,
509275,001,2022-11-21_24h53.24.788,Info_measure_main_exp,2022.2.2,Win32,11.9988961,,,,,,,,,,,,,,,,,,,,,,,,,,,,,,6,1.6477,1,,,,,,,,,,,,1,131,5,5,2082,1,absent_patch/patch0002082.jpg,present_patch/cong_131_5_a.jpg,,,,,,,,,,,,,,,,,,,,0.103703704,0.030555556,1,0,0,response1disk,18,0.005555556,-0.000925926,1,0,0,center_square,0,17,17,65,1,,,,,,,,,,,,,,,,,,,,,,,
509275,001,2022-11-21_24h53.24.788,Info_measure_main_exp,2022.2.2,Win32,11.9988961,,,,,,,,,,,,,,,,,,masks/mask_003.jpg,,,,,,,,,,,,,,,,,,,,,,,,,,,,,,,,,,,,,,,,,,,0,0,0,2,1,,,,,,,,,,,,,,,,,,,,,,,,,,,,,,,,,,,,,,,,,,,,,,
509275,001,2022-11-21_24h53.24.788,Info_measure_main_exp,2022.2.2,Win32,11.9988961,,,,,,,,,,,,,,,,,,masks/mask_001.jpg,,,,,,,,,,,,,,,,,,,,,,,,,,,,,,,,,,,,,,,,,,,0,1,1,0,1,,,,,,,,,,,,,,,,,,,,,,,,,,,,,,,,,,,,,,,,,,,,,,
509275,001,2022-11-21_24h53.24.788,Info_measure_main_exp,2022.2.2,Win32,11.9988961,,,,,,,,,,,,,,,,,,masks/mask_002.jpg,,,,,,,,,,,,,,,,,,,,,,,,,,,,,,,,,,,,,,,,,,,0,2,2,1,1,,,,,,,,,,,,,,,,,,,,,,,,,,,,,,,,,,,,,,,,,,,,,,
509275,001,2022-11-21_24h53.24.788,Info_measure_main_exp,2022.2.2,Win32,11.9988961,,,,,,,,,,,,,,,,,,masks/mask_005.jpg,,,,,,,,,,,,,,,,,,,,,,,,,,,,,,,,,,,,,,,,,,,0,3,3,4,1,,,,,,,,,,,,,,,,,,,,,,,,,,,,,,,,,,,,,,,,,,,,,,
509275,001,2022-11-21_24h53.24.788,Info_measure_main_exp,2022.2.2,Win32,11.9988961,,,,,,,,,,,,,,,,,,masks/mask_004.jpg,,,,,,,,,,,,,,,,,,,,,,,,,,,,,,,,,,,,,,,,,,,0,4,4,3,1,,,,,,,,,,,,,,,,,,,,,,,,,,,,,,,,,,,,,,,,,,,,,,
509275,001,2022-11-21_24h53.24.788,Info_measure_main_exp,2022.2.2,Win32,11.9988961,,,,,,,,,,,,,,,,,,masks/mask_004.jpg,,,,,,,,,,,,,,,,,,,,,,,,,,,,,,,,,,,,,,,,,,,,,,,,0,0,0,3,1,,,,,,,,,,,,,,,,,,,,,,,,,,,,,,,,,,,,,,,,,
509275,001,2022-11-21_24h53.24.788,Info_measure_main_exp,2022.2.2,Win32,11.9988961,,,,,,,,,,,,,,,,,,masks/mask_001.jpg,,,,,,,,,,,,,,,,,,,,,,,,,,,,,,,,,,,,,,,,,,,,,,,,0,1,1,0,1,,,,,,,,,,,,,,,,,,,,,,,,,,,,,,,,,,,,,,,,,
509275,001,2022-11-21_24h53.24.788,Info_measure_main_exp,2022.2.2,Win32,11.9988961,,,,,,,,,,,,,,,,,,masks/mask_005.jpg,,,,,,,,,,,,,,,,,,,,,,,,,,,,,,,,,,,,,,,,,,,,,,,,0,2,2,4,1,,,,,,,,,,,,,,,,,,,,,,,,,,,,,,,,,,,,,,,,,
509275,001,2022-11-21_24h53.24.788,Info_measure_main_exp,2022.2.2,Win32,11.9988961,,,,,,,,,,,,,,,,,,masks/mask_002.jpg,,,,,,,,,,,,,,,,,,,,,,,,,,,,,,,,,,,,,,,,,,,,,,,,0,3,3,1,1,,,,,,,,,,,,,,,,,,,,,,,,,,,,,,,,,,,,,,,,,
509275,001,2022-11-21_24h53.24.788,Info_measure_main_exp,2022.2.2,Win32,11.9988961,,,,,,,,,,,,,,,,,,masks/mask_003.jpg,,,,,,,,,,,,,,,,,,,,,,,,,,,,,,,,,,,,,,,,,,,,,,,,0,4,4,2,1,,,,,,,,,,,,,,,,,,,,,,,,,,,,,,,,,,,,,,,,,
509275,001,2022-11-21_24h53.24.788,Info_measure_main_exp,2022.2.2,Win32,11.9988961,,,,,,,,,,,,,,,,,,,,,,,,,,,,,,7,1.5365,1,,,,,,,,,,,,1,131,5,5,2298,1,absent_patch/patch0002298.jpg,present_patch/cong_131_5_a.jpg,,,,,,,,,,,,,,,,,,,,0.049074074,0.085185185,1,0,0,response1disk,19,0.012037037,0.007407407,1,0,0,center_square,0,18,18,45,1,,,,,,,,,,,,,,,,,,,,,,,
509275,001,2022-11-21_24h53.24.788,Info_measure_main_exp,2022.2.2,Win32,11.9988961,,,,,,,,,,,,,,,,,,masks/mask_002.jpg,,,,,,,,,,,,,,,,,,,,,,,,,,,,,,,,,,,,,,,,,,,0,0,0,1,1,,,,,,,,,,,,,,,,,,,,,,,,,,,,,,,,,,,,,,,,,,,,,,
509275,001,2022-11-21_24h53.24.788,Info_measure_main_exp,2022.2.2,Win32,11.9988961,,,,,,,,,,,,,,,,,,masks/mask_003.jpg,,,,,,,,,,,,,,,,,,,,,,,,,,,,,,,,,,,,,,,,,,,0,1,1,2,1,,,,,,,,,,,,,,,,,,,,,,,,,,,,,,,,,,,,,,,,,,,,,,
509275,001,2022-11-21_24h53.24.788,Info_measure_main_exp,2022.2.2,Win32,11.9988961,,,,,,,,,,,,,,,,,,masks/mask_001.jpg,,,,,,,,,,,,,,,,,,,,,,,,,,,,,,,,,,,,,,,,,,,0,2,2,0,1,,,,,,,,,,,,,,,,,,,,,,,,,,,,,,,,,,,,,,,,,,,,,,
509275,001,2022-11-21_24h53.24.788,Info_measure_main_exp,2022.2.2,Win32,11.9988961,,,,,,,,,,,,,,,,,,masks/mask_005.jpg,,,,,,,,,,,,,,,,,,,,,,,,,,,,,,,,,,,,,,,,,,,0,3,3,4,1,,,,,,,,,,,,,,,,,,,,,,,,,,,,,,,,,,,,,,,,,,,,,,
509275,001,2022-11-21_24h53.24.788,Info_measure_main_exp,2022.2.2,Win32,11.9988961,,,,,,,,,,,,,,,,,,masks/mask_004.jpg,,,,,,,,,,,,,,,,,,,,,,,,,,,,,,,,,,,,,,,,,,,0,4,4,3,1,,,,,,,,,,,,,,,,,,,,,,,,,,,,,,,,,,,,,,,,,,,,,,
509275,001,2022-11-21_24h53.24.788,Info_measure_main_exp,2022.2.2,Win32,11.9988961,,,,,,,,,,,,,,,,,,masks/mask_005.jpg,,,,,,,,,,,,,,,,,,,,,,,,,,,,,,,,,,,,,,,,,,,,,,,,0,0,0,4,1,,,,,,,,,,,,,,,,,,,,,,,,,,,,,,,,,,,,,,,,,
509275,001,2022-11-21_24h53.24.788,Info_measure_main_exp,2022.2.2,Win32,11.9988961,,,,,,,,,,,,,,,,,,masks/mask_003.jpg,,,,,,,,,,,,,,,,,,,,,,,,,,,,,,,,,,,,,,,,,,,,,,,,0,1,1,2,1,,,,,,,,,,,,,,,,,,,,,,,,,,,,,,,,,,,,,,,,,
509275,001,2022-11-21_24h53.24.788,Info_measure_main_exp,2022.2.2,Win32,11.9988961,,,,,,,,,,,,,,,,,,masks/mask_004.jpg,,,,,,,,,,,,,,,,,,,,,,,,,,,,,,,,,,,,,,,,,,,,,,,,0,2,2,3,1,,,,,,,,,,,,,,,,,,,,,,,,,,,,,,,,,,,,,,,,,
509275,001,2022-11-21_24h53.24.788,Info_measure_main_exp,2022.2.2,Win32,11.9988961,,,,,,,,,,,,,,,,,,masks/mask_001.jpg,,,,,,,,,,,,,,,,,,,,,,,,,,,,,,,,,,,,,,,,,,,,,,,,0,3,3,0,1,,,,,,,,,,,,,,,,,,,,,,,,,,,,,,,,,,,,,,,,,
509275,001,2022-11-21_24h53.24.788,Info_measure_main_exp,2022.2.2,Win32,11.9988961,,,,,,,,,,,,,,,,,,masks/mask_002.jpg,,,,,,,,,,,,,,,,,,,,,,,,,,,,,,,,,,,,,,,,,,,,,,,,0,4,4,1,1,,,,,,,,,,,,,,,,,,,,,,,,,,,,,,,,,,,,,,,,,
509275,001,2022-11-21_24h53.24.788,Info_measure_main_exp,2022.2.2,Win32,11.9988961,,,,,,,,,,,,,,,,,,,,,,,,,,,,,,4,1.5662,1,,,,,,,,,,,,0,131,5,5,2190,1986,absent_patch/patch0002190.jpg,absent_patch/patch0001986.jpg,,,,,,,,,,,,,,,,,,,,0.017592593,-0.041666667,1,0,0,response3disk,20,-0.001851852,-0.000925926,1,0,0,center_square,0,19,19,111,1,,,,,,,,,,,,,,,,,,,,,,,
509275,001,2022-11-21_24h53.24.788,Info_measure_main_exp,2022.2.2,Win32,11.9988961,,,,,,,,,,,,,,,,,,masks/mask_002.jpg,,,,,,,,,,,,,,,,,,,,,,,,,,,,,,,,,,,,,,,,,,,0,0,0,1,1,,,,,,,,,,,,,,,,,,,,,,,,,,,,,,,,,,,,,,,,,,,,,,
509275,001,2022-11-21_24h53.24.788,Info_measure_main_exp,2022.2.2,Win32,11.9988961,,,,,,,,,,,,,,,,,,masks/mask_003.jpg,,,,,,,,,,,,,,,,,,,,,,,,,,,,,,,,,,,,,,,,,,,0,1,1,2,1,,,,,,,,,,,,,,,,,,,,,,,,,,,,,,,,,,,,,,,,,,,,,,
509275,001,2022-11-21_24h53.24.788,Info_measure_main_exp,2022.2.2,Win32,11.9988961,,,,,,,,,,,,,,,,,,masks/mask_001.jpg,,,,,,,,,,,,,,,,,,,,,,,,,,,,,,,,,,,,,,,,,,,0,2,2,0,1,,,,,,,,,,,,,,,,,,,,,,,,,,,,,,,,,,,,,,,,,,,,,,
509275,001,2022-11-21_24h53.24.788,Info_measure_main_exp,2022.2.2,Win32,11.9988961,,,,,,,,,,,,,,,,,,masks/mask_004.jpg,,,,,,,,,,,,,,,,,,,,,,,,,,,,,,,,,,,,,,,,,,,0,3,3,3,1,,,,,,,,,,,,,,,,,,,,,,,,,,,,,,,,,,,,,,,,,,,,,,
509275,001,2022-11-21_24h53.24.788,Info_measure_main_exp,2022.2.2,Win32,11.9988961,,,,,,,,,,,,,,,,,,masks/mask_005.jpg,,,,,,,,,,,,,,,,,,,,,,,,,,,,,,,,,,,,,,,,,,,0,4,4,4,1,,,,,,,,,,,,,,,,,,,,,,,,,,,,,,,,,,,,,,,,,,,,,,
509275,001,2022-11-21_24h53.24.788,Info_measure_main_exp,2022.2.2,Win32,11.9988961,,,,,,,,,,,,,,,,,,masks/mask_003.jpg,,,,,,,,,,,,,,,,,,,,,,,,,,,,,,,,,,,,,,,,,,,,,,,,0,0,0,2,1,,,,,,,,,,,,,,,,,,,,,,,,,,,,,,,,,,,,,,,,,
509275,001,2022-11-21_24h53.24.788,Info_measure_main_exp,2022.2.2,Win32,11.9988961,,,,,,,,,,,,,,,,,,masks/mask_002.jpg,,,,,,,,,,,,,,,,,,,,,,,,,,,,,,,,,,,,,,,,,,,,,,,,0,1,1,1,1,,,,,,,,,,,,,,,,,,,,,,,,,,,,,,,,,,,,,,,,,
509275,001,2022-11-21_24h53.24.788,Info_measure_main_exp,2022.2.2,Win32,11.9988961,,,,,,,,,,,,,,,,,,masks/mask_005.jpg,,,,,,,,,,,,,,,,,,,,,,,,,,,,,,,,,,,,,,,,,,,,,,,,0,2,2,4,1,,,,,,,,,,,,,,,,,,,,,,,,,,,,,,,,,,,,,,,,,
509275,001,2022-11-21_24h53.24.788,Info_measure_main_exp,2022.2.2,Win32,11.9988961,,,,,,,,,,,,,,,,,,masks/mask_004.jpg,,,,,,,,,,,,,,,,,,,,,,,,,,,,,,,,,,,,,,,,,,,,,,,,0,3,3,3,1,,,,,,,,,,,,,,,,,,,,,,,,,,,,,,,,,,,,,,,,,
509275,001,2022-11-21_24h53.24.788,Info_measure_main_exp,2022.2.2,Win32,11.9988961,,,,,,,,,,,,,,,,,,masks/mask_001.jpg,,,,,,,,,,,,,,,,,,,,,,,,,,,,,,,,,,,,,,,,,,,,,,,,0,4,4,0,1,,,,,,,,,,,,,,,,,,,,,,,,,,,,,,,,,,,,,,,,,
509275,001,2022-11-21_24h53.24.788,Info_measure_main_exp,2022.2.2,Win32,11.9988961,,,,,,,,,,,,,,,,,,,,,,,,,,,,,,4,2.3635,1,,,,,,,,,,,,0,131,5,5,2082,2178,absent_patch/patch0002082.jpg,absent_patch/patch0002178.jpg,,,,,,,,,,,,,,,,,,,,0.022222222,-0.056481481,1,0,0,response3disk,21,0.008333333,-0.000925926,1,0,0,center_square,0,20,20,2,1,,,,,,,,,,,,,,,,,,,,,,,
509275,001,2022-11-21_24h53.24.788,Info_measure_main_exp,2022.2.2,Win32,11.9988961,,,,,,,,,,,,,,,,,,masks/mask_003.jpg,,,,,,,,,,,,,,,,,,,,,,,,,,,,,,,,,,,,,,,,,,,0,0,0,2,1,,,,,,,,,,,,,,,,,,,,,,,,,,,,,,,,,,,,,,,,,,,,,,
509275,001,2022-11-21_24h53.24.788,Info_measure_main_exp,2022.2.2,Win32,11.9988961,,,,,,,,,,,,,,,,,,masks/mask_002.jpg,,,,,,,,,,,,,,,,,,,,,,,,,,,,,,,,,,,,,,,,,,,0,1,1,1,1,,,,,,,,,,,,,,,,,,,,,,,,,,,,,,,,,,,,,,,,,,,,,,
509275,001,2022-11-21_24h53.24.788,Info_measure_main_exp,2022.2.2,Win32,11.9988961,,,,,,,,,,,,,,,,,,masks/mask_001.jpg,,,,,,,,,,,,,,,,,,,,,,,,,,,,,,,,,,,,,,,,,,,0,2,2,0,1,,,,,,,,,,,,,,,,,,,,,,,,,,,,,,,,,,,,,,,,,,,,,,
509275,001,2022-11-21_24h53.24.788,Info_measure_main_exp,2022.2.2,Win32,11.9988961,,,,,,,,,,,,,,,,,,masks/mask_005.jpg,,,,,,,,,,,,,,,,,,,,,,,,,,,,,,,,,,,,,,,,,,,0,3,3,4,1,,,,,,,,,,,,,,,,,,,,,,,,,,,,,,,,,,,,,,,,,,,,,,
509275,001,2022-11-21_24h53.24.788,Info_measure_main_exp,2022.2.2,Win32,11.9988961,,,,,,,,,,,,,,,,,,masks/mask_004.jpg,,,,,,,,,,,,,,,,,,,,,,,,,,,,,,,,,,,,,,,,,,,0,4,4,3,1,,,,,,,,,,,,,,,,,,,,,,,,,,,,,,,,,,,,,,,,,,,,,,
509275,001,2022-11-21_24h53.24.788,Info_measure_main_exp,2022.2.2,Win32,11.9988961,,,,,,,,,,,,,,,,,,masks/mask_001.jpg,,,,,,,,,,,,,,,,,,,,,,,,,,,,,,,,,,,,,,,,,,,,,,,,0,0,0,0,1,,,,,,,,,,,,,,,,,,,,,,,,,,,,,,,,,,,,,,,,,
509275,001,2022-11-21_24h53.24.788,Info_measure_main_exp,2022.2.2,Win32,11.9988961,,,,,,,,,,,,,,,,,,masks/mask_005.jpg,,,,,,,,,,,,,,,,,,,,,,,,,,,,,,,,,,,,,,,,,,,,,,,,0,1,1,4,1,,,,,,,,,,,,,,,,,,,,,,,,,,,,,,,,,,,,,,,,,
509275,001,2022-11-21_24h53.24.788,Info_measure_main_exp,2022.2.2,Win32,11.9988961,,,,,,,,,,,,,,,,,,masks/mask_003.jpg,,,,,,,,,,,,,,,,,,,,,,,,,,,,,,,,,,,,,,,,,,,,,,,,0,2,2,2,1,,,,,,,,,,,,,,,,,,,,,,,,,,,,,,,,,,,,,,,,,
509275,001,2022-11-21_24h53.24.788,Info_measure_main_exp,2022.2.2,Win32,11.9988961,,,,,,,,,,,,,,,,,,masks/mask_002.jpg,,,,,,,,,,,,,,,,,,,,,,,,,,,,,,,,,,,,,,,,,,,,,,,,0,3,3,1,1,,,,,,,,,,,,,,,,,,,,,,,,,,,,,,,,,,,,,,,,,
509275,001,2022-11-21_24h53.24.788,Info_measure_main_exp,2022.2.2,Win32,11.9988961,,,,,,,,,,,,,,,,,,masks/mask_004.jpg,,,,,,,,,,,,,,,,,,,,,,,,,,,,,,,,,,,,,,,,,,,,,,,,0,4,4,3,1,,,,,,,,,,,,,,,,,,,,,,,,,,,,,,,,,,,,,,,,,
509275,001,2022-11-21_24h53.24.788,Info_measure_main_exp,2022.2.2,Win32,11.9988961,,,,,,,,,,,,,,,,,,,,,,,,,,,,,,6,5.4338,1,,,,,,,,,,,,0,131,5,5,1986,2142,absent_patch/patch0001986.jpg,absent_patch/patch0002142.jpg,,,,,,,,,,,,,,,,,,,,0.123148148,0.07962963,1,0,0,response1disk,22,0.005555556,0.002777778,1,0,0,center_square,0,21,21,76,1,,,,,,,,,,,,,,,,,,,,,,,
509275,001,2022-11-21_24h53.24.788,Info_measure_main_exp,2022.2.2,Win32,11.9988961,,,,,,,,,,,,,,,,,,masks/mask_004.jpg,,,,,,,,,,,,,,,,,,,,,,,,,,,,,,,,,,,,,,,,,,,0,0,0,3,1,,,,,,,,,,,,,,,,,,,,,,,,,,,,,,,,,,,,,,,,,,,,,,
509275,001,2022-11-21_24h53.24.788,Info_measure_main_exp,2022.2.2,Win32,11.9988961,,,,,,,,,,,,,,,,,,masks/mask_002.jpg,,,,,,,,,,,,,,,,,,,,,,,,,,,,,,,,,,,,,,,,,,,0,1,1,1,1,,,,,,,,,,,,,,,,,,,,,,,,,,,,,,,,,,,,,,,,,,,,,,
509275,001,2022-11-21_24h53.24.788,Info_measure_main_exp,2022.2.2,Win32,11.9988961,,,,,,,,,,,,,,,,,,masks/mask_005.jpg,,,,,,,,,,,,,,,,,,,,,,,,,,,,,,,,,,,,,,,,,,,0,2,2,4,1,,,,,,,,,,,,,,,,,,,,,,,,,,,,,,,,,,,,,,,,,,,,,,
509275,001,2022-11-21_24h53.24.788,Info_measure_main_exp,2022.2.2,Win32,11.9988961,,,,,,,,,,,,,,,,,,masks/mask_001.jpg,,,,,,,,,,,,,,,,,,,,,,,,,,,,,,,,,,,,,,,,,,,0,3,3,0,1,,,,,,,,,,,,,,,,,,,,,,,,,,,,,,,,,,,,,,,,,,,,,,
509275,001,2022-11-21_24h53.24.788,Info_measure_main_exp,2022.2.2,Win32,11.9988961,,,,,,,,,,,,,,,,,,masks/mask_003.jpg,,,,,,,,,,,,,,,,,,,,,,,,,,,,,,,,,,,,,,,,,,,0,4,4,2,1,,,,,,,,,,,,,,,,,,,,,,,,,,,,,,,,,,,,,,,,,,,,,,
509275,001,2022-11-21_24h53.24.788,Info_measure_main_exp,2022.2.2,Win32,11.9988961,,,,,,,,,,,,,,,,,,masks/mask_005.jpg,,,,,,,,,,,,,,,,,,,,,,,,,,,,,,,,,,,,,,,,,,,,,,,,0,0,0,4,1,,,,,,,,,,,,,,,,,,,,,,,,,,,,,,,,,,,,,,,,,
509275,001,2022-11-21_24h53.24.788,Info_measure_main_exp,2022.2.2,Win32,11.9988961,,,,,,,,,,,,,,,,,,masks/mask_002.jpg,,,,,,,,,,,,,,,,,,,,,,,,,,,,,,,,,,,,,,,,,,,,,,,,0,1,1,1,1,,,,,,,,,,,,,,,,,,,,,,,,,,,,,,,,,,,,,,,,,
509275,001,2022-11-21_24h53.24.788,Info_measure_main_exp,2022.2.2,Win32,11.9988961,,,,,,,,,,,,,,,,,,masks/mask_003.jpg,,,,,,,,,,,,,,,,,,,,,,,,,,,,,,,,,,,,,,,,,,,,,,,,0,2,2,2,1,,,,,,,,,,,,,,,,,,,,,,,,,,,,,,,,,,,,,,,,,
509275,001,2022-11-21_24h53.24.788,Info_measure_main_exp,2022.2.2,Win32,11.9988961,,,,,,,,,,,,,,,,,,masks/mask_004.jpg,,,,,,,,,,,,,,,,,,,,,,,,,,,,,,,,,,,,,,,,,,,,,,,,0,3,3,3,1,,,,,,,,,,,,,,,,,,,,,,,,,,,,,,,,,,,,,,,,,
509275,001,2022-11-21_24h53.24.788,Info_measure_main_exp,2022.2.2,Win32,11.9988961,,,,,,,,,,,,,,,,,,masks/mask_001.jpg,,,,,,,,,,,,,,,,,,,,,,,,,,,,,,,,,,,,,,,,,,,,,,,,0,4,4,0,1,,,,,,,,,,,,,,,,,,,,,,,,,,,,,,,,,,,,,,,,,
509275,001,2022-11-21_24h53.24.788,Info_measure_main_exp,2022.2.2,Win32,11.9988961,,,,,,,,,,,,,,,,,,,,,,,,,,,,,,7,1.433,1,,,,,,,,,,,,1,131,5,5,2250,1,absent_patch/patch0002250.jpg,present_patch/cong_131_5_a.jpg,,,,,,,,,,,,,,,,,,,,0.034259259,0.078703704,1,0,0,response1disk,23,0.007407407,0.001851852,1,0,0,center_square,0,22,22,5,1,,,,,,,,,,,,,,,,,,,,,,,
509275,001,2022-11-21_24h53.24.788,Info_measure_main_exp,2022.2.2,Win32,11.9988961,,,,,,,,,,,,,,,,,,masks/mask_003.jpg,,,,,,,,,,,,,,,,,,,,,,,,,,,,,,,,,,,,,,,,,,,0,0,0,2,1,,,,,,,,,,,,,,,,,,,,,,,,,,,,,,,,,,,,,,,,,,,,,,
509275,001,2022-11-21_24h53.24.788,Info_measure_main_exp,2022.2.2,Win32,11.9988961,,,,,,,,,,,,,,,,,,masks/mask_001.jpg,,,,,,,,,,,,,,,,,,,,,,,,,,,,,,,,,,,,,,,,,,,0,1,1,0,1,,,,,,,,,,,,,,,,,,,,,,,,,,,,,,,,,,,,,,,,,,,,,,
509275,001,2022-11-21_24h53.24.788,Info_measure_main_exp,2022.2.2,Win32,11.9988961,,,,,,,,,,,,,,,,,,masks/mask_004.jpg,,,,,,,,,,,,,,,,,,,,,,,,,,,,,,,,,,,,,,,,,,,0,2,2,3,1,,,,,,,,,,,,,,,,,,,,,,,,,,,,,,,,,,,,,,,,,,,,,,
509275,001,2022-11-21_24h53.24.788,Info_measure_main_exp,2022.2.2,Win32,11.9988961,,,,,,,,,,,,,,,,,,masks/mask_005.jpg,,,,,,,,,,,,,,,,,,,,,,,,,,,,,,,,,,,,,,,,,,,0,3,3,4,1,,,,,,,,,,,,,,,,,,,,,,,,,,,,,,,,,,,,,,,,,,,,,,
509275,001,2022-11-21_24h53.24.788,Info_measure_main_exp,2022.2.2,Win32,11.9988961,,,,,,,,,,,,,,,,,,masks/mask_002.jpg,,,,,,,,,,,,,,,,,,,,,,,,,,,,,,,,,,,,,,,,,,,0,4,4,1,1,,,,,,,,,,,,,,,,,,,,,,,,,,,,,,,,,,,,,,,,,,,,,,
509275,001,2022-11-21_24h53.24.788,Info_measure_main_exp,2022.2.2,Win32,11.9988961,,,,,,,,,,,,,,,,,,masks/mask_004.jpg,,,,,,,,,,,,,,,,,,,,,,,,,,,,,,,,,,,,,,,,,,,,,,,,0,0,0,3,1,,,,,,,,,,,,,,,,,,,,,,,,,,,,,,,,,,,,,,,,,
509275,001,2022-11-21_24h53.24.788,Info_measure_main_exp,2022.2.2,Win32,11.9988961,,,,,,,,,,,,,,,,,,masks/mask_001.jpg,,,,,,,,,,,,,,,,,,,,,,,,,,,,,,,,,,,,,,,,,,,,,,,,0,1,1,0,1,,,,,,,,,,,,,,,,,,,,,,,,,,,,,,,,,,,,,,,,,
509275,001,2022-11-21_24h53.24.788,Info_measure_main_exp,2022.2.2,Win32,11.9988961,,,,,,,,,,,,,,,,,,masks/mask_003.jpg,,,,,,,,,,,,,,,,,,,,,,,,,,,,,,,,,,,,,,,,,,,,,,,,0,2,2,2,1,,,,,,,,,,,,,,,,,,,,,,,,,,,,,,,,,,,,,,,,,
509275,001,2022-11-21_24h53.24.788,Info_measure_main_exp,2022.2.2,Win32,11.9988961,,,,,,,,,,,,,,,,,,masks/mask_002.jpg,,,,,,,,,,,,,,,,,,,,,,,,,,,,,,,,,,,,,,,,,,,,,,,,0,3,3,1,1,,,,,,,,,,,,,,,,,,,,,,,,,,,,,,,,,,,,,,,,,
509275,001,2022-11-21_24h53.24.788,Info_measure_main_exp,2022.2.2,Win32,11.9988961,,,,,,,,,,,,,,,,,,masks/mask_005.jpg,,,,,,,,,,,,,,,,,,,,,,,,,,,,,,,,,,,,,,,,,,,,,,,,0,4,4,4,1,,,,,,,,,,,,,,,,,,,,,,,,,,,,,,,,,,,,,,,,,
509275,001,2022-11-21_24h53.24.788,Info_measure_main_exp,2022.2.2,Win32,11.9988961,,,,,,,,,,,,,,,,,,,,,,,,,,,,,,7,2.9635,1,,,,,,,,,,,,0,131,5,5,2250,1986,absent_patch/patch0002250.jpg,absent_patch/patch0001986.jpg,,,,,,,,,,,,,,,,,,,,0.048148148,0.107407407,1,0,0,response1disk,24,0.012962963,0.000925926,1,0,0,center_square,0,23,23,29,1,,,,,,,,,,,,,,,,,,,,,,,
509275,001,2022-11-21_24h53.24.788,Info_measure_main_exp,2022.2.2,Win32,11.9988961,,,,,,,,,,,,,,,,,,masks/mask_003.jpg,,,,,,,,,,,,,,,,,,,,,,,,,,,,,,,,,,,,,,,,,,,0,0,0,2,1,,,,,,,,,,,,,,,,,,,,,,,,,,,,,,,,,,,,,,,,,,,,,,
509275,001,2022-11-21_24h53.24.788,Info_measure_main_exp,2022.2.2,Win32,11.9988961,,,,,,,,,,,,,,,,,,masks/mask_005.jpg,,,,,,,,,,,,,,,,,,,,,,,,,,,,,,,,,,,,,,,,,,,0,1,1,4,1,,,,,,,,,,,,,,,,,,,,,,,,,,,,,,,,,,,,,,,,,,,,,,
509275,001,2022-11-21_24h53.24.788,Info_measure_main_exp,2022.2.2,Win32,11.9988961,,,,,,,,,,,,,,,,,,masks/mask_002.jpg,,,,,,,,,,,,,,,,,,,,,,,,,,,,,,,,,,,,,,,,,,,0,2,2,1,1,,,,,,,,,,,,,,,,,,,,,,,,,,,,,,,,,,,,,,,,,,,,,,
509275,001,2022-11-21_24h53.24.788,Info_measure_main_exp,2022.2.2,Win32,11.9988961,,,,,,,,,,,,,,,,,,masks/mask_001.jpg,,,,,,,,,,,,,,,,,,,,,,,,,,,,,,,,,,,,,,,,,,,0,3,3,0,1,,,,,,,,,,,,,,,,,,,,,,,,,,,,,,,,,,,,,,,,,,,,,,
509275,001,2022-11-21_24h53.24.788,Info_measure_main_exp,2022.2.2,Win32,11.9988961,,,,,,,,,,,,,,,,,,masks/mask_004.jpg,,,,,,,,,,,,,,,,,,,,,,,,,,,,,,,,,,,,,,,,,,,0,4,4,3,1,,,,,,,,,,,,,,,,,,,,,,,,,,,,,,,,,,,,,,,,,,,,,,
509275,001,2022-11-21_24h53.24.788,Info_measure_main_exp,2022.2.2,Win32,11.9988961,,,,,,,,,,,,,,,,,,masks/mask_002.jpg,,,,,,,,,,,,,,,,,,,,,,,,,,,,,,,,,,,,,,,,,,,,,,,,0,0,0,1,1,,,,,,,,,,,,,,,,,,,,,,,,,,,,,,,,,,,,,,,,,
509275,001,2022-11-21_24h53.24.788,Info_measure_main_exp,2022.2.2,Win32,11.9988961,,,,,,,,,,,,,,,,,,masks/mask_001.jpg,,,,,,,,,,,,,,,,,,,,,,,,,,,,,,,,,,,,,,,,,,,,,,,,0,1,1,0,1,,,,,,,,,,,,,,,,,,,,,,,,,,,,,,,,,,,,,,,,,
509275,001,2022-11-21_24h53.24.788,Info_measure_main_exp,2022.2.2,Win32,11.9988961,,,,,,,,,,,,,,,,,,masks/mask_005.jpg,,,,,,,,,,,,,,,,,,,,,,,,,,,,,,,,,,,,,,,,,,,,,,,,0,2,2,4,1,,,,,,,,,,,,,,,,,,,,,,,,,,,,,,,,,,,,,,,,,
509275,001,2022-11-21_24h53.24.788,Info_measure_main_exp,2022.2.2,Win32,11.9988961,,,,,,,,,,,,,,,,,,masks/mask_003.jpg,,,,,,,,,,,,,,,,,,,,,,,,,,,,,,,,,,,,,,,,,,,,,,,,0,3,3,2,1,,,,,,,,,,,,,,,,,,,,,,,,,,,,,,,,,,,,,,,,,
509275,001,2022-11-21_24h53.24.788,Info_measure_main_exp,2022.2.2,Win32,11.9988961,,,,,,,,,,,,,,,,,,masks/mask_004.jpg,,,,,,,,,,,,,,,,,,,,,,,,,,,,,,,,,,,,,,,,,,,,,,,,0,4,4,3,1,,,,,,,,,,,,,,,,,,,,,,,,,,,,,,,,,,,,,,,,,
509275,001,2022-11-21_24h53.24.788,Info_measure_main_exp,2022.2.2,Win32,11.9988961,,,,,,,,,,,,,,,,,,,,,,,,,,,,,,5,2.8387,1,,,,,,,,,,,,1,131,5,5,1,2214,present_patch/cong_131_5_a.jpg,absent_patch/patch0002214.jpg,,,,,,,,,,,,,,,,,,,,0.072222222,-0.016666667,1,0,0,response3disk,25,0.011111111,-0.008333333,1,0,0,center_square,0,24,24,4,1,,,,,,,,,,,,,,,,,,,,,,,
509275,001,2022-11-21_24h53.24.788,Info_measure_main_exp,2022.2.2,Win32,11.9988961,,,,,,,,,,,,,,,,,,masks/mask_005.jpg,,,,,,,,,,,,,,,,,,,,,,,,,,,,,,,,,,,,,,,,,,,0,0,0,4,1,,,,,,,,,,,,,,,,,,,,,,,,,,,,,,,,,,,,,,,,,,,,,,
509275,001,2022-11-21_24h53.24.788,Info_measure_main_exp,2022.2.2,Win32,11.9988961,,,,,,,,,,,,,,,,,,masks/mask_004.jpg,,,,,,,,,,,,,,,,,,,,,,,,,,,,,,,,,,,,,,,,,,,0,1,1,3,1,,,,,,,,,,,,,,,,,,,,,,,,,,,,,,,,,,,,,,,,,,,,,,
509275,001,2022-11-21_24h53.24.788,Info_measure_main_exp,2022.2.2,Win32,11.9988961,,,,,,,,,,,,,,,,,,masks/mask_001.jpg,,,,,,,,,,,,,,,,,,,,,,,,,,,,,,,,,,,,,,,,,,,0,2,2,0,1,,,,,,,,,,,,,,,,,,,,,,,,,,,,,,,,,,,,,,,,,,,,,,
509275,001,2022-11-21_24h53.24.788,Info_measure_main_exp,2022.2.2,Win32,11.9988961,,,,,,,,,,,,,,,,,,masks/mask_003.jpg,,,,,,,,,,,,,,,,,,,,,,,,,,,,,,,,,,,,,,,,,,,0,3,3,2,1,,,,,,,,,,,,,,,,,,,,,,,,,,,,,,,,,,,,,,,,,,,,,,
509275,001,2022-11-21_24h53.24.788,Info_measure_main_exp,2022.2.2,Win32,11.9988961,,,,,,,,,,,,,,,,,,masks/mask_002.jpg,,,,,,,,,,,,,,,,,,,,,,,,,,,,,,,,,,,,,,,,,,,0,4,4,1,1,,,,,,,,,,,,,,,,,,,,,,,,,,,,,,,,,,,,,,,,,,,,,,
509275,001,2022-11-21_24h53.24.788,Info_measure_main_exp,2022.2.2,Win32,11.9988961,,,,,,,,,,,,,,,,,,masks/mask_001.jpg,,,,,,,,,,,,,,,,,,,,,,,,,,,,,,,,,,,,,,,,,,,,,,,,0,0,0,0,1,,,,,,,,,,,,,,,,,,,,,,,,,,,,,,,,,,,,,,,,,
509275,001,2022-11-21_24h53.24.788,Info_measure_main_exp,2022.2.2,Win32,11.9988961,,,,,,,,,,,,,,,,,,masks/mask_003.jpg,,,,,,,,,,,,,,,,,,,,,,,,,,,,,,,,,,,,,,,,,,,,,,,,0,1,1,2,1,,,,,,,,,,,,,,,,,,,,,,,,,,,,,,,,,,,,,,,,,
509275,001,2022-11-21_24h53.24.788,Info_measure_main_exp,2022.2.2,Win32,11.9988961,,,,,,,,,,,,,,,,,,masks/mask_004.jpg,,,,,,,,,,,,,,,,,,,,,,,,,,,,,,,,,,,,,,,,,,,,,,,,0,2,2,3,1,,,,,,,,,,,,,,,,,,,,,,,,,,,,,,,,,,,,,,,,,
509275,001,2022-11-21_24h53.24.788,Info_measure_main_exp,2022.2.2,Win32,11.9988961,,,,,,,,,,,,,,,,,,masks/mask_002.jpg,,,,,,,,,,,,,,,,,,,,,,,,,,,,,,,,,,,,,,,,,,,,,,,,0,3,3,1,1,,,,,,,,,,,,,,,,,,,,,,,,,,,,,,,,,,,,,,,,,
509275,001,2022-11-21_24h53.24.788,Info_measure_main_exp,2022.2.2,Win32,11.9988961,,,,,,,,,,,,,,,,,,masks/mask_005.jpg,,,,,,,,,,,,,,,,,,,,,,,,,,,,,,,,,,,,,,,,,,,,,,,,0,4,4,4,1,,,,,,,,,,,,,,,,,,,,,,,,,,,,,,,,,,,,,,,,,
509275,001,2022-11-21_24h53.24.788,Info_measure_main_exp,2022.2.2,Win32,11.9988961,,,,,,,,,,,,,,,,,,,,,,,,,,,,,,4,3.5194,1,,,,,,,,,,,,0,131,5,5,2082,2298,absent_patch/patch0002082.jpg,absent_patch/patch0002298.jpg,,,,,,,,,,,,,,,,,,,,0.021296296,-0.057407407,1,0,0,response3disk,26,-0.001851852,0.003703704,1,0,0,center_square,0,25,25,107,1,,,,,,,,,,,,,,,,,,,,,,,
509275,001,2022-11-21_24h53.24.788,Info_measure_main_exp,2022.2.2,Win32,11.9988961,,,,,,,,,,,,,,,,,,masks/mask_002.jpg,,,,,,,,,,,,,,,,,,,,,,,,,,,,,,,,,,,,,,,,,,,0,0,0,1,1,,,,,,,,,,,,,,,,,,,,,,,,,,,,,,,,,,,,,,,,,,,,,,
509275,001,2022-11-21_24h53.24.788,Info_measure_main_exp,2022.2.2,Win32,11.9988961,,,,,,,,,,,,,,,,,,masks/mask_005.jpg,,,,,,,,,,,,,,,,,,,,,,,,,,,,,,,,,,,,,,,,,,,0,1,1,4,1,,,,,,,,,,,,,,,,,,,,,,,,,,,,,,,,,,,,,,,,,,,,,,
509275,001,2022-11-21_24h53.24.788,Info_measure_main_exp,2022.2.2,Win32,11.9988961,,,,,,,,,,,,,,,,,,masks/mask_003.jpg,,,,,,,,,,,,,,,,,,,,,,,,,,,,,,,,,,,,,,,,,,,0,2,2,2,1,,,,,,,,,,,,,,,,,,,,,,,,,,,,,,,,,,,,,,,,,,,,,,
509275,001,2022-11-21_24h53.24.788,Info_measure_main_exp,2022.2.2,Win32,11.9988961,,,,,,,,,,,,,,,,,,masks/mask_004.jpg,,,,,,,,,,,,,,,,,,,,,,,,,,,,,,,,,,,,,,,,,,,0,3,3,3,1,,,,,,,,,,,,,,,,,,,,,,,,,,,,,,,,,,,,,,,,,,,,,,
509275,001,2022-11-21_24h53.24.788,Info_measure_main_exp,2022.2.2,Win32,11.9988961,,,,,,,,,,,,,,,,,,masks/mask_001.jpg,,,,,,,,,,,,,,,,,,,,,,,,,,,,,,,,,,,,,,,,,,,0,4,4,0,1,,,,,,,,,,,,,,,,,,,,,,,,,,,,,,,,,,,,,,,,,,,,,,
509275,001,2022-11-21_24h53.24.788,Info_measure_main_exp,2022.2.2,Win32,11.9988961,,,,,,,,,,,,,,,,,,masks/mask_004.jpg,,,,,,,,,,,,,,,,,,,,,,,,,,,,,,,,,,,,,,,,,,,,,,,,0,0,0,3,1,,,,,,,,,,,,,,,,,,,,,,,,,,,,,,,,,,,,,,,,,
509275,001,2022-11-21_24h53.24.788,Info_measure_main_exp,2022.2.2,Win32,11.9988961,,,,,,,,,,,,,,,,,,masks/mask_002.jpg,,,,,,,,,,,,,,,,,,,,,,,,,,,,,,,,,,,,,,,,,,,,,,,,0,1,1,1,1,,,,,,,,,,,,,,,,,,,,,,,,,,,,,,,,,,,,,,,,,
509275,001,2022-11-21_24h53.24.788,Info_measure_main_exp,2022.2.2,Win32,11.9988961,,,,,,,,,,,,,,,,,,masks/mask_003.jpg,,,,,,,,,,,,,,,,,,,,,,,,,,,,,,,,,,,,,,,,,,,,,,,,0,2,2,2,1,,,,,,,,,,,,,,,,,,,,,,,,,,,,,,,,,,,,,,,,,
509275,001,2022-11-21_24h53.24.788,Info_measure_main_exp,2022.2.2,Win32,11.9988961,,,,,,,,,,,,,,,,,,masks/mask_001.jpg,,,,,,,,,,,,,,,,,,,,,,,,,,,,,,,,,,,,,,,,,,,,,,,,0,3,3,0,1,,,,,,,,,,,,,,,,,,,,,,,,,,,,,,,,,,,,,,,,,
509275,001,2022-11-21_24h53.24.788,Info_measure_main_exp,2022.2.2,Win32,11.9988961,,,,,,,,,,,,,,,,,,masks/mask_005.jpg,,,,,,,,,,,,,,,,,,,,,,,,,,,,,,,,,,,,,,,,,,,,,,,,0,4,4,4,1,,,,,,,,,,,,,,,,,,,,,,,,,,,,,,,,,,,,,,,,,
509275,001,2022-11-21_24h53.24.788,Info_measure_main_exp,2022.2.2,Win32,11.9988961,,,,,,,,,,,,,,,,,,,,,,,,,,,,,,3,7.2824,1,,,,,,,,,,,,0,131,5,5,2142,2154,absent_patch/patch0002142.jpg,absent_patch/patch0002154.jpg,,,,,,,,,,,,,,,,,,,,-0.025,-0.064814815,1,0,0,response5disk,27,-0.005555556,-0.007407407,1,0,0,center_square,0,26,26,9,1,,,,,,,,,,,,,,,,,,,,,,,
509275,001,2022-11-21_24h53.24.788,Info_measure_main_exp,2022.2.2,Win32,11.9988961,,,,,,,,,,,,,,,,,,masks/mask_003.jpg,,,,,,,,,,,,,,,,,,,,,,,,,,,,,,,,,,,,,,,,,,,0,0,0,2,1,,,,,,,,,,,,,,,,,,,,,,,,,,,,,,,,,,,,,,,,,,,,,,
509275,001,2022-11-21_24h53.24.788,Info_measure_main_exp,2022.2.2,Win32,11.9988961,,,,,,,,,,,,,,,,,,masks/mask_002.jpg,,,,,,,,,,,,,,,,,,,,,,,,,,,,,,,,,,,,,,,,,,,0,1,1,1,1,,,,,,,,,,,,,,,,,,,,,,,,,,,,,,,,,,,,,,,,,,,,,,
509275,001,2022-11-21_24h53.24.788,Info_measure_main_exp,2022.2.2,Win32,11.9988961,,,,,,,,,,,,,,,,,,masks/mask_005.jpg,,,,,,,,,,,,,,,,,,,,,,,,,,,,,,,,,,,,,,,,,,,0,2,2,4,1,,,,,,,,,,,,,,,,,,,,,,,,,,,,,,,,,,,,,,,,,,,,,,
509275,001,2022-11-21_24h53.24.788,Info_measure_main_exp,2022.2.2,Win32,11.9988961,,,,,,,,,,,,,,,,,,masks/mask_004.jpg,,,,,,,,,,,,,,,,,,,,,,,,,,,,,,,,,,,,,,,,,,,0,3,3,3,1,,,,,,,,,,,,,,,,,,,,,,,,,,,,,,,,,,,,,,,,,,,,,,
509275,001,2022-11-21_24h53.24.788,Info_measure_main_exp,2022.2.2,Win32,11.9988961,,,,,,,,,,,,,,,,,,masks/mask_001.jpg,,,,,,,,,,,,,,,,,,,,,,,,,,,,,,,,,,,,,,,,,,,0,4,4,0,1,,,,,,,,,,,,,,,,,,,,,,,,,,,,,,,,,,,,,,,,,,,,,,
509275,001,2022-11-21_24h53.24.788,Info_measure_main_exp,2022.2.2,Win32,11.9988961,,,,,,,,,,,,,,,,,,masks/mask_001.jpg,,,,,,,,,,,,,,,,,,,,,,,,,,,,,,,,,,,,,,,,,,,,,,,,0,0,0,0,1,,,,,,,,,,,,,,,,,,,,,,,,,,,,,,,,,,,,,,,,,
509275,001,2022-11-21_24h53.24.788,Info_measure_main_exp,2022.2.2,Win32,11.9988961,,,,,,,,,,,,,,,,,,masks/mask_002.jpg,,,,,,,,,,,,,,,,,,,,,,,,,,,,,,,,,,,,,,,,,,,,,,,,0,1,1,1,1,,,,,,,,,,,,,,,,,,,,,,,,,,,,,,,,,,,,,,,,,
509275,001,2022-11-21_24h53.24.788,Info_measure_main_exp,2022.2.2,Win32,11.9988961,,,,,,,,,,,,,,,,,,masks/mask_004.jpg,,,,,,,,,,,,,,,,,,,,,,,,,,,,,,,,,,,,,,,,,,,,,,,,0,2,2,3,1,,,,,,,,,,,,,,,,,,,,,,,,,,,,,,,,,,,,,,,,,
509275,001,2022-11-21_24h53.24.788,Info_measure_main_exp,2022.2.2,Win32,11.9988961,,,,,,,,,,,,,,,,,,masks/mask_005.jpg,,,,,,,,,,,,,,,,,,,,,,,,,,,,,,,,,,,,,,,,,,,,,,,,0,3,3,4,1,,,,,,,,,,,,,,,,,,,,,,,,,,,,,,,,,,,,,,,,,
509275,001,2022-11-21_24h53.24.788,Info_measure_main_exp,2022.2.2,Win32,11.9988961,,,,,,,,,,,,,,,,,,masks/mask_003.jpg,,,,,,,,,,,,,,,,,,,,,,,,,,,,,,,,,,,,,,,,,,,,,,,,0,4,4,2,1,,,,,,,,,,,,,,,,,,,,,,,,,,,,,,,,,,,,,,,,,
509275,001,2022-11-21_24h53.24.788,Info_measure_main_exp,2022.2.2,Win32,11.9988961,,,,,,,,,,,,,,,,,,,,,,,,,,,,,,0,1.4445,1,,,,,,,,,,,,0,131,5,5,2190,2190,absent_patch/patch0002190.jpg,absent_patch/patch0002190.jpg,,,,,,,,,,,,,,,,,,,,-0.046296296,0.098148148,1,0,0,response7disk,28,0,0.000925926,1,0,0,center_square,0,27,27,86,1,,,,,,,,,,,,,,,,,,,,,,,
509275,001,2022-11-21_24h53.24.788,Info_measure_main_exp,2022.2.2,Win32,11.9988961,,,,,,,,,,,,,,,,,,masks/mask_001.jpg,,,,,,,,,,,,,,,,,,,,,,,,,,,,,,,,,,,,,,,,,,,0,0,0,0,1,,,,,,,,,,,,,,,,,,,,,,,,,,,,,,,,,,,,,,,,,,,,,,
509275,001,2022-11-21_24h53.24.788,Info_measure_main_exp,2022.2.2,Win32,11.9988961,,,,,,,,,,,,,,,,,,masks/mask_002.jpg,,,,,,,,,,,,,,,,,,,,,,,,,,,,,,,,,,,,,,,,,,,0,1,1,1,1,,,,,,,,,,,,,,,,,,,,,,,,,,,,,,,,,,,,,,,,,,,,,,
509275,001,2022-11-21_24h53.24.788,Info_measure_main_exp,2022.2.2,Win32,11.9988961,,,,,,,,,,,,,,,,,,masks/mask_004.jpg,,,,,,,,,,,,,,,,,,,,,,,,,,,,,,,,,,,,,,,,,,,0,2,2,3,1,,,,,,,,,,,,,,,,,,,,,,,,,,,,,,,,,,,,,,,,,,,,,,
509275,001,2022-11-21_24h53.24.788,Info_measure_main_exp,2022.2.2,Win32,11.9988961,,,,,,,,,,,,,,,,,,masks/mask_005.jpg,,,,,,,,,,,,,,,,,,,,,,,,,,,,,,,,,,,,,,,,,,,0,3,3,4,1,,,,,,,,,,,,,,,,,,,,,,,,,,,,,,,,,,,,,,,,,,,,,,
509275,001,2022-11-21_24h53.24.788,Info_measure_main_exp,2022.2.2,Win32,11.9988961,,,,,,,,,,,,,,,,,,masks/mask_003.jpg,,,,,,,,,,,,,,,,,,,,,,,,,,,,,,,,,,,,,,,,,,,0,4,4,2,1,,,,,,,,,,,,,,,,,,,,,,,,,,,,,,,,,,,,,,,,,,,,,,
509275,001,2022-11-21_24h53.24.788,Info_measure_main_exp,2022.2.2,Win32,11.9988961,,,,,,,,,,,,,,,,,,masks/mask_005.jpg,,,,,,,,,,,,,,,,,,,,,,,,,,,,,,,,,,,,,,,,,,,,,,,,0,0,0,4,1,,,,,,,,,,,,,,,,,,,,,,,,,,,,,,,,,,,,,,,,,
509275,001,2022-11-21_24h53.24.788,Info_measure_main_exp,2022.2.2,Win32,11.9988961,,,,,,,,,,,,,,,,,,masks/mask_004.jpg,,,,,,,,,,,,,,,,,,,,,,,,,,,,,,,,,,,,,,,,,,,,,,,,0,1,1,3,1,,,,,,,,,,,,,,,,,,,,,,,,,,,,,,,,,,,,,,,,,
509275,001,2022-11-21_24h53.24.788,Info_measure_main_exp,2022.2.2,Win32,11.9988961,,,,,,,,,,,,,,,,,,masks/mask_001.jpg,,,,,,,,,,,,,,,,,,,,,,,,,,,,,,,,,,,,,,,,,,,,,,,,0,2,2,0,1,,,,,,,,,,,,,,,,,,,,,,,,,,,,,,,,,,,,,,,,,
509275,001,2022-11-21_24h53.24.788,Info_measure_main_exp,2022.2.2,Win32,11.9988961,,,,,,,,,,,,,,,,,,masks/mask_002.jpg,,,,,,,,,,,,,,,,,,,,,,,,,,,,,,,,,,,,,,,,,,,,,,,,0,3,3,1,1,,,,,,,,,,,,,,,,,,,,,,,,,,,,,,,,,,,,,,,,,
509275,001,2022-11-21_24h53.24.788,Info_measure_main_exp,2022.2.2,Win32,11.9988961,,,,,,,,,,,,,,,,,,masks/mask_003.jpg,,,,,,,,,,,,,,,,,,,,,,,,,,,,,,,,,,,,,,,,,,,,,,,,0,4,4,2,1,,,,,,,,,,,,,,,,,,,,,,,,,,,,,,,,,,,,,,,,,
509275,001,2022-11-21_24h53.24.788,Info_measure_main_exp,2022.2.2,Win32,11.9988961,,,,,,,,,,,,,,,,,,,,,,,,,,,,,,5,3.4702,1,,,,,,,,,,,,0,131,5,5,2190,1950,absent_patch/patch0002190.jpg,absent_patch/patch0001950.jpg,,,,,,,,,,,,,,,,,,,,0.12037037,-0.056481481,1,0,0,response3disk,29,0.005555556,-0.006481481,1,0,0,center_square,0,28,28,73,1,,,,,,,,,,,,,,,,,,,,,,,
509275,001,2022-11-21_24h53.24.788,Info_measure_main_exp,2022.2.2,Win32,11.9988961,,,,,,,,,,,,,,,,,,masks/mask_001.jpg,,,,,,,,,,,,,,,,,,,,,,,,,,,,,,,,,,,,,,,,,,,0,0,0,0,1,,,,,,,,,,,,,,,,,,,,,,,,,,,,,,,,,,,,,,,,,,,,,,
509275,001,2022-11-21_24h53.24.788,Info_measure_main_exp,2022.2.2,Win32,11.9988961,,,,,,,,,,,,,,,,,,masks/mask_005.jpg,,,,,,,,,,,,,,,,,,,,,,,,,,,,,,,,,,,,,,,,,,,0,1,1,4,1,,,,,,,,,,,,,,,,,,,,,,,,,,,,,,,,,,,,,,,,,,,,,,
509275,001,2022-11-21_24h53.24.788,Info_measure_main_exp,2022.2.2,Win32,11.9988961,,,,,,,,,,,,,,,,,,masks/mask_003.jpg,,,,,,,,,,,,,,,,,,,,,,,,,,,,,,,,,,,,,,,,,,,0,2,2,2,1,,,,,,,,,,,,,,,,,,,,,,,,,,,,,,,,,,,,,,,,,,,,,,
509275,001,2022-11-21_24h53.24.788,Info_measure_main_exp,2022.2.2,Win32,11.9988961,,,,,,,,,,,,,,,,,,masks/mask_004.jpg,,,,,,,,,,,,,,,,,,,,,,,,,,,,,,,,,,,,,,,,,,,0,3,3,3,1,,,,,,,,,,,,,,,,,,,,,,,,,,,,,,,,,,,,,,,,,,,,,,
509275,001,2022-11-21_24h53.24.788,Info_measure_main_exp,2022.2.2,Win32,11.9988961,,,,,,,,,,,,,,,,,,masks/mask_002.jpg,,,,,,,,,,,,,,,,,,,,,,,,,,,,,,,,,,,,,,,,,,,0,4,4,1,1,,,,,,,,,,,,,,,,,,,,,,,,,,,,,,,,,,,,,,,,,,,,,,
509275,001,2022-11-21_24h53.24.788,Info_measure_main_exp,2022.2.2,Win32,11.9988961,,,,,,,,,,,,,,,,,,masks/mask_001.jpg,,,,,,,,,,,,,,,,,,,,,,,,,,,,,,,,,,,,,,,,,,,,,,,,0,0,0,0,1,,,,,,,,,,,,,,,,,,,,,,,,,,,,,,,,,,,,,,,,,
509275,001,2022-11-21_24h53.24.788,Info_measure_main_exp,2022.2.2,Win32,11.9988961,,,,,,,,,,,,,,,,,,masks/mask_004.jpg,,,,,,,,,,,,,,,,,,,,,,,,,,,,,,,,,,,,,,,,,,,,,,,,0,1,1,3,1,,,,,,,,,,,,,,,,,,,,,,,,,,,,,,,,,,,,,,,,,
509275,001,2022-11-21_24h53.24.788,Info_measure_main_exp,2022.2.2,Win32,11.9988961,,,,,,,,,,,,,,,,,,masks/mask_005.jpg,,,,,,,,,,,,,,,,,,,,,,,,,,,,,,,,,,,,,,,,,,,,,,,,0,2,2,4,1,,,,,,,,,,,,,,,,,,,,,,,,,,,,,,,,,,,,,,,,,
509275,001,2022-11-21_24h53.24.788,Info_measure_main_exp,2022.2.2,Win32,11.9988961,,,,,,,,,,,,,,,,,,masks/mask_002.jpg,,,,,,,,,,,,,,,,,,,,,,,,,,,,,,,,,,,,,,,,,,,,,,,,0,3,3,1,1,,,,,,,,,,,,,,,,,,,,,,,,,,,,,,,,,,,,,,,,,
509275,001,2022-11-21_24h53.24.788,Info_measure_main_exp,2022.2.2,Win32,11.9988961,,,,,,,,,,,,,,,,,,masks/mask_003.jpg,,,,,,,,,,,,,,,,,,,,,,,,,,,,,,,,,,,,,,,,,,,,,,,,0,4,4,2,1,,,,,,,,,,,,,,,,,,,,,,,,,,,,,,,,,,,,,,,,,
509275,001,2022-11-21_24h53.24.788,Info_measure_main_exp,2022.2.2,Win32,11.9988961,,,,,,,,,,,,,,,,,,,,,,,,,,,,,,0,2.4623,1,,,,,,,,,,,,0,131,5,5,1986,2238,absent_patch/patch0001986.jpg,absent_patch/patch0002238.jpg,,,,,,,,,,,,,,,,,,,,-0.025,0.051851852,1,0,0,response7disk,30,0,-0.001851852,1,0,0,center_square,0,29,29,31,1,,,,,,,,,,,,,,,,,,,,,,,
509275,001,2022-11-21_24h53.24.788,Info_measure_main_exp,2022.2.2,Win32,11.9988961,,,,,,,,,,,,,,,,,,masks/mask_001.jpg,,,,,,,,,,,,,,,,,,,,,,,,,,,,,,,,,,,,,,,,,,,0,0,0,0,1,,,,,,,,,,,,,,,,,,,,,,,,,,,,,,,,,,,,,,,,,,,,,,
509275,001,2022-11-21_24h53.24.788,Info_measure_main_exp,2022.2.2,Win32,11.9988961,,,,,,,,,,,,,,,,,,masks/mask_005.jpg,,,,,,,,,,,,,,,,,,,,,,,,,,,,,,,,,,,,,,,,,,,0,1,1,4,1,,,,,,,,,,,,,,,,,,,,,,,,,,,,,,,,,,,,,,,,,,,,,,
509275,001,2022-11-21_24h53.24.788,Info_measure_main_exp,2022.2.2,Win32,11.9988961,,,,,,,,,,,,,,,,,,masks/mask_004.jpg,,,,,,,,,,,,,,,,,,,,,,,,,,,,,,,,,,,,,,,,,,,0,2,2,3,1,,,,,,,,,,,,,,,,,,,,,,,,,,,,,,,,,,,,,,,,,,,,,,
509275,001,2022-11-21_24h53.24.788,Info_measure_main_exp,2022.2.2,Win32,11.9988961,,,,,,,,,,,,,,,,,,masks/mask_003.jpg,,,,,,,,,,,,,,,,,,,,,,,,,,,,,,,,,,,,,,,,,,,0,3,3,2,1,,,,,,,,,,,,,,,,,,,,,,,,,,,,,,,,,,,,,,,,,,,,,,
509275,001,2022-11-21_24h53.24.788,Info_measure_main_exp,2022.2.2,Win32,11.9988961,,,,,,,,,,,,,,,,,,masks/mask_002.jpg,,,,,,,,,,,,,,,,,,,,,,,,,,,,,,,,,,,,,,,,,,,0,4,4,1,1,,,,,,,,,,,,,,,,,,,,,,,,,,,,,,,,,,,,,,,,,,,,,,
509275,001,2022-11-21_24h53.24.788,Info_measure_main_exp,2022.2.2,Win32,11.9988961,,,,,,,,,,,,,,,,,,masks/mask_002.jpg,,,,,,,,,,,,,,,,,,,,,,,,,,,,,,,,,,,,,,,,,,,,,,,,0,0,0,1,1,,,,,,,,,,,,,,,,,,,,,,,,,,,,,,,,,,,,,,,,,
509275,001,2022-11-21_24h53.24.788,Info_measure_main_exp,2022.2.2,Win32,11.9988961,,,,,,,,,,,,,,,,,,masks/mask_005.jpg,,,,,,,,,,,,,,,,,,,,,,,,,,,,,,,,,,,,,,,,,,,,,,,,0,1,1,4,1,,,,,,,,,,,,,,,,,,,,,,,,,,,,,,,,,,,,,,,,,
509275,001,2022-11-21_24h53.24.788,Info_measure_main_exp,2022.2.2,Win32,11.9988961,,,,,,,,,,,,,,,,,,masks/mask_004.jpg,,,,,,,,,,,,,,,,,,,,,,,,,,,,,,,,,,,,,,,,,,,,,,,,0,2,2,3,1,,,,,,,,,,,,,,,,,,,,,,,,,,,,,,,,,,,,,,,,,
509275,001,2022-11-21_24h53.24.788,Info_measure_main_exp,2022.2.2,Win32,11.9988961,,,,,,,,,,,,,,,,,,masks/mask_001.jpg,,,,,,,,,,,,,,,,,,,,,,,,,,,,,,,,,,,,,,,,,,,,,,,,0,3,3,0,1,,,,,,,,,,,,,,,,,,,,,,,,,,,,,,,,,,,,,,,,,
509275,001,2022-11-21_24h53.24.788,Info_measure_main_exp,2022.2.2,Win32,11.9988961,,,,,,,,,,,,,,,,,,masks/mask_003.jpg,,,,,,,,,,,,,,,,,,,,,,,,,,,,,,,,,,,,,,,,,,,,,,,,0,4,4,2,1,,,,,,,,,,,,,,,,,,,,,,,,,,,,,,,,,,,,,,,,,
509275,001,2022-11-21_24h53.24.788,Info_measure_main_exp,2022.2.2,Win32,11.9988961,,,,,,,,,,,,,,,,,,,,,,,,,,,,,,4,4.1609,1,,,,,,,,,,,,1,131,5,5,1950,1,absent_patch/patch0001950.jpg,present_patch/cong_131_5_a.jpg,,,,,,,,,,,,,,,,,,,,0.025925926,-0.068518519,1,0,0,response3disk,31,0.001851852,-0.011111111,1,0,0,center_square,0,30,30,39,1,,,,,,,,,,,,,,,,,,,,,,,
509275,001,2022-11-21_24h53.24.788,Info_measure_main_exp,2022.2.2,Win32,11.9988961,,,,,,,,,,,,,,,,,,masks/mask_003.jpg,,,,,,,,,,,,,,,,,,,,,,,,,,,,,,,,,,,,,,,,,,,0,0,0,2,1,,,,,,,,,,,,,,,,,,,,,,,,,,,,,,,,,,,,,,,,,,,,,,
509275,001,2022-11-21_24h53.24.788,Info_measure_main_exp,2022.2.2,Win32,11.9988961,,,,,,,,,,,,,,,,,,masks/mask_002.jpg,,,,,,,,,,,,,,,,,,,,,,,,,,,,,,,,,,,,,,,,,,,0,1,1,1,1,,,,,,,,,,,,,,,,,,,,,,,,,,,,,,,,,,,,,,,,,,,,,,
509275,001,2022-11-21_24h53.24.788,Info_measure_main_exp,2022.2.2,Win32,11.9988961,,,,,,,,,,,,,,,,,,masks/mask_005.jpg,,,,,,,,,,,,,,,,,,,,,,,,,,,,,,,,,,,,,,,,,,,0,2,2,4,1,,,,,,,,,,,,,,,,,,,,,,,,,,,,,,,,,,,,,,,,,,,,,,
509275,001,2022-11-21_24h53.24.788,Info_measure_main_exp,2022.2.2,Win32,11.9988961,,,,,,,,,,,,,,,,,,masks/mask_004.jpg,,,,,,,,,,,,,,,,,,,,,,,,,,,,,,,,,,,,,,,,,,,0,3,3,3,1,,,,,,,,,,,,,,,,,,,,,,,,,,,,,,,,,,,,,,,,,,,,,,
509275,001,2022-11-21_24h53.24.788,Info_measure_main_exp,2022.2.2,Win32,11.9988961,,,,,,,,,,,,,,,,,,masks/mask_001.jpg,,,,,,,,,,,,,,,,,,,,,,,,,,,,,,,,,,,,,,,,,,,0,4,4,0,1,,,,,,,,,,,,,,,,,,,,,,,,,,,,,,,,,,,,,,,,,,,,,,
509275,001,2022-11-21_24h53.24.788,Info_measure_main_exp,2022.2.2,Win32,11.9988961,,,,,,,,,,,,,,,,,,masks/mask_002.jpg,,,,,,,,,,,,,,,,,,,,,,,,,,,,,,,,,,,,,,,,,,,,,,,,0,0,0,1,1,,,,,,,,,,,,,,,,,,,,,,,,,,,,,,,,,,,,,,,,,
509275,001,2022-11-21_24h53.24.788,Info_measure_main_exp,2022.2.2,Win32,11.9988961,,,,,,,,,,,,,,,,,,masks/mask_001.jpg,,,,,,,,,,,,,,,,,,,,,,,,,,,,,,,,,,,,,,,,,,,,,,,,0,1,1,0,1,,,,,,,,,,,,,,,,,,,,,,,,,,,,,,,,,,,,,,,,,
509275,001,2022-11-21_24h53.24.788,Info_measure_main_exp,2022.2.2,Win32,11.9988961,,,,,,,,,,,,,,,,,,masks/mask_003.jpg,,,,,,,,,,,,,,,,,,,,,,,,,,,,,,,,,,,,,,,,,,,,,,,,0,2,2,2,1,,,,,,,,,,,,,,,,,,,,,,,,,,,,,,,,,,,,,,,,,
509275,001,2022-11-21_24h53.24.788,Info_measure_main_exp,2022.2.2,Win32,11.9988961,,,,,,,,,,,,,,,,,,masks/mask_004.jpg,,,,,,,,,,,,,,,,,,,,,,,,,,,,,,,,,,,,,,,,,,,,,,,,0,3,3,3,1,,,,,,,,,,,,,,,,,,,,,,,,,,,,,,,,,,,,,,,,,
509275,001,2022-11-21_24h53.24.788,Info_measure_main_exp,2022.2.2,Win32,11.9988961,,,,,,,,,,,,,,,,,,masks/mask_005.jpg,,,,,,,,,,,,,,,,,,,,,,,,,,,,,,,,,,,,,,,,,,,,,,,,0,4,4,4,1,,,,,,,,,,,,,,,,,,,,,,,,,,,,,,,,,,,,,,,,,
509275,001,2022-11-21_24h53.24.788,Info_measure_main_exp,2022.2.2,Win32,11.9988961,,,,,,,,,,,,,,,,,,,,,,,,,,,,,,4,3.1031,1,,,,,,,,,,,,0,131,5,5,2154,2250,absent_patch/patch0002154.jpg,absent_patch/patch0002250.jpg,,,,,,,,,,,,,,,,,,,,0.038888889,-0.078703704,1,0,0,response3disk,32,0,-0.002777778,1,0,0,center_square,0,31,31,108,1,,,,,,,,,,,,,,,,,,,,,,,
509275,001,2022-11-21_24h53.24.788,Info_measure_main_exp,2022.2.2,Win32,11.9988961,,,,,,,,,,,,,,,,,,masks/mask_004.jpg,,,,,,,,,,,,,,,,,,,,,,,,,,,,,,,,,,,,,,,,,,,0,0,0,3,1,,,,,,,,,,,,,,,,,,,,,,,,,,,,,,,,,,,,,,,,,,,,,,
509275,001,2022-11-21_24h53.24.788,Info_measure_main_exp,2022.2.2,Win32,11.9988961,,,,,,,,,,,,,,,,,,masks/mask_001.jpg,,,,,,,,,,,,,,,,,,,,,,,,,,,,,,,,,,,,,,,,,,,0,1,1,0,1,,,,,,,,,,,,,,,,,,,,,,,,,,,,,,,,,,,,,,,,,,,,,,
509275,001,2022-11-21_24h53.24.788,Info_measure_main_exp,2022.2.2,Win32,11.9988961,,,,,,,,,,,,,,,,,,masks/mask_005.jpg,,,,,,,,,,,,,,,,,,,,,,,,,,,,,,,,,,,,,,,,,,,0,2,2,4,1,,,,,,,,,,,,,,,,,,,,,,,,,,,,,,,,,,,,,,,,,,,,,,
509275,001,2022-11-21_24h53.24.788,Info_measure_main_exp,2022.2.2,Win32,11.9988961,,,,,,,,,,,,,,,,,,masks/mask_003.jpg,,,,,,,,,,,,,,,,,,,,,,,,,,,,,,,,,,,,,,,,,,,0,3,3,2,1,,,,,,,,,,,,,,,,,,,,,,,,,,,,,,,,,,,,,,,,,,,,,,
509275,001,2022-11-21_24h53.24.788,Info_measure_main_exp,2022.2.2,Win32,11.9988961,,,,,,,,,,,,,,,,,,masks/mask_002.jpg,,,,,,,,,,,,,,,,,,,,,,,,,,,,,,,,,,,,,,,,,,,0,4,4,1,1,,,,,,,,,,,,,,,,,,,,,,,,,,,,,,,,,,,,,,,,,,,,,,
509275,001,2022-11-21_24h53.24.788,Info_measure_main_exp,2022.2.2,Win32,11.9988961,,,,,,,,,,,,,,,,,,masks/mask_004.jpg,,,,,,,,,,,,,,,,,,,,,,,,,,,,,,,,,,,,,,,,,,,,,,,,0,0,0,3,1,,,,,,,,,,,,,,,,,,,,,,,,,,,,,,,,,,,,,,,,,
509275,001,2022-11-21_24h53.24.788,Info_measure_main_exp,2022.2.2,Win32,11.9988961,,,,,,,,,,,,,,,,,,masks/mask_003.jpg,,,,,,,,,,,,,,,,,,,,,,,,,,,,,,,,,,,,,,,,,,,,,,,,0,1,1,2,1,,,,,,,,,,,,,,,,,,,,,,,,,,,,,,,,,,,,,,,,,
509275,001,2022-11-21_24h53.24.788,Info_measure_main_exp,2022.2.2,Win32,11.9988961,,,,,,,,,,,,,,,,,,masks/mask_001.jpg,,,,,,,,,,,,,,,,,,,,,,,,,,,,,,,,,,,,,,,,,,,,,,,,0,2,2,0,1,,,,,,,,,,,,,,,,,,,,,,,,,,,,,,,,,,,,,,,,,
509275,001,2022-11-21_24h53.24.788,Info_measure_main_exp,2022.2.2,Win32,11.9988961,,,,,,,,,,,,,,,,,,masks/mask_005.jpg,,,,,,,,,,,,,,,,,,,,,,,,,,,,,,,,,,,,,,,,,,,,,,,,0,3,3,4,1,,,,,,,,,,,,,,,,,,,,,,,,,,,,,,,,,,,,,,,,,
509275,001,2022-11-21_24h53.24.788,Info_measure_main_exp,2022.2.2,Win32,11.9988961,,,,,,,,,,,,,,,,,,masks/mask_002.jpg,,,,,,,,,,,,,,,,,,,,,,,,,,,,,,,,,,,,,,,,,,,,,,,,0,4,4,1,1,,,,,,,,,,,,,,,,,,,,,,,,,,,,,,,,,,,,,,,,,
509275,001,2022-11-21_24h53.24.788,Info_measure_main_exp,2022.2.2,Win32,11.9988961,,,,,,,,,,,,,,,,,,,,,,,,,,,,,,0,1.0962,1,,,,,,,,,,,,0,131,5,5,1974,1950,absent_patch/patch0001974.jpg,absent_patch/patch0001950.jpg,,,,,,,,,,,,,,,,,,,,-0.041666667,0.123148148,1,0,0,response7disk,33,-0.000925926,-0.00462963,1,0,0,center_square,0,32,32,17,1,,,,,,,,,,,,,,,,,,,,,,,
509275,001,2022-11-21_24h53.24.788,Info_measure_main_exp,2022.2.2,Win32,11.9988961,,,,,,,,,,,,,,,,,,masks/mask_002.jpg,,,,,,,,,,,,,,,,,,,,,,,,,,,,,,,,,,,,,,,,,,,0,0,0,1,1,,,,,,,,,,,,,,,,,,,,,,,,,,,,,,,,,,,,,,,,,,,,,,
509275,001,2022-11-21_24h53.24.788,Info_measure_main_exp,2022.2.2,Win32,11.9988961,,,,,,,,,,,,,,,,,,masks/mask_003.jpg,,,,,,,,,,,,,,,,,,,,,,,,,,,,,,,,,,,,,,,,,,,0,1,1,2,1,,,,,,,,,,,,,,,,,,,,,,,,,,,,,,,,,,,,,,,,,,,,,,
509275,001,2022-11-21_24h53.24.788,Info_measure_main_exp,2022.2.2,Win32,11.9988961,,,,,,,,,,,,,,,,,,masks/mask_005.jpg,,,,,,,,,,,,,,,,,,,,,,,,,,,,,,,,,,,,,,,,,,,0,2,2,4,1,,,,,,,,,,,,,,,,,,,,,,,,,,,,,,,,,,,,,,,,,,,,,,
509275,001,2022-11-21_24h53.24.788,Info_measure_main_exp,2022.2.2,Win32,11.9988961,,,,,,,,,,,,,,,,,,masks/mask_001.jpg,,,,,,,,,,,,,,,,,,,,,,,,,,,,,,,,,,,,,,,,,,,0,3,3,0,1,,,,,,,,,,,,,,,,,,,,,,,,,,,,,,,,,,,,,,,,,,,,,,
509275,001,2022-11-21_24h53.24.788,Info_measure_main_exp,2022.2.2,Win32,11.9988961,,,,,,,,,,,,,,,,,,masks/mask_004.jpg,,,,,,,,,,,,,,,,,,,,,,,,,,,,,,,,,,,,,,,,,,,0,4,4,3,1,,,,,,,,,,,,,,,,,,,,,,,,,,,,,,,,,,,,,,,,,,,,,,
509275,001,2022-11-21_24h53.24.788,Info_measure_main_exp,2022.2.2,Win32,11.9988961,,,,,,,,,,,,,,,,,,masks/mask_003.jpg,,,,,,,,,,,,,,,,,,,,,,,,,,,,,,,,,,,,,,,,,,,,,,,,0,0,0,2,1,,,,,,,,,,,,,,,,,,,,,,,,,,,,,,,,,,,,,,,,,
509275,001,2022-11-21_24h53.24.788,Info_measure_main_exp,2022.2.2,Win32,11.9988961,,,,,,,,,,,,,,,,,,masks/mask_005.jpg,,,,,,,,,,,,,,,,,,,,,,,,,,,,,,,,,,,,,,,,,,,,,,,,0,1,1,4,1,,,,,,,,,,,,,,,,,,,,,,,,,,,,,,,,,,,,,,,,,
509275,001,2022-11-21_24h53.24.788,Info_measure_main_exp,2022.2.2,Win32,11.9988961,,,,,,,,,,,,,,,,,,masks/mask_002.jpg,,,,,,,,,,,,,,,,,,,,,,,,,,,,,,,,,,,,,,,,,,,,,,,,0,2,2,1,1,,,,,,,,,,,,,,,,,,,,,,,,,,,,,,,,,,,,,,,,,
509275,001,2022-11-21_24h53.24.788,Info_measure_main_exp,2022.2.2,Win32,11.9988961,,,,,,,,,,,,,,,,,,masks/mask_001.jpg,,,,,,,,,,,,,,,,,,,,,,,,,,,,,,,,,,,,,,,,,,,,,,,,0,3,3,0,1,,,,,,,,,,,,,,,,,,,,,,,,,,,,,,,,,,,,,,,,,
509275,001,2022-11-21_24h53.24.788,Info_measure_main_exp,2022.2.2,Win32,11.9988961,,,,,,,,,,,,,,,,,,masks/mask_004.jpg,,,,,,,,,,,,,,,,,,,,,,,,,,,,,,,,,,,,,,,,,,,,,,,,0,4,4,3,1,,,,,,,,,,,,,,,,,,,,,,,,,,,,,,,,,,,,,,,,,
509275,001,2022-11-21_24h53.24.788,Info_measure_main_exp,2022.2.2,Win32,11.9988961,,,,,,,,,,,,,,,,,,,,,,,,,,,,,,6,3.1644,1,,,,,,,,,,,,0,131,5,5,2274,2178,absent_patch/patch0002274.jpg,absent_patch/patch0002178.jpg,,,,,,,,,,,,,,,,,,,,0.07962963,0.033333333,1,0,0,response1disk,34,0.008333333,0.005555556,1,0,0,center_square,0,33,33,117,1,,,,,,,,,,,,,,,,,,,,,,,
509275,001,2022-11-21_24h53.24.788,Info_measure_main_exp,2022.2.2,Win32,11.9988961,,,,,,,,,,,,,,,,,,masks/mask_001.jpg,,,,,,,,,,,,,,,,,,,,,,,,,,,,,,,,,,,,,,,,,,,0,0,0,0,1,,,,,,,,,,,,,,,,,,,,,,,,,,,,,,,,,,,,,,,,,,,,,,
509275,001,2022-11-21_24h53.24.788,Info_measure_main_exp,2022.2.2,Win32,11.9988961,,,,,,,,,,,,,,,,,,masks/mask_003.jpg,,,,,,,,,,,,,,,,,,,,,,,,,,,,,,,,,,,,,,,,,,,0,1,1,2,1,,,,,,,,,,,,,,,,,,,,,,,,,,,,,,,,,,,,,,,,,,,,,,
509275,001,2022-11-21_24h53.24.788,Info_measure_main_exp,2022.2.2,Win32,11.9988961,,,,,,,,,,,,,,,,,,masks/mask_005.jpg,,,,,,,,,,,,,,,,,,,,,,,,,,,,,,,,,,,,,,,,,,,0,2,2,4,1,,,,,,,,,,,,,,,,,,,,,,,,,,,,,,,,,,,,,,,,,,,,,,
509275,001,2022-11-21_24h53.24.788,Info_measure_main_exp,2022.2.2,Win32,11.9988961,,,,,,,,,,,,,,,,,,masks/mask_004.jpg,,,,,,,,,,,,,,,,,,,,,,,,,,,,,,,,,,,,,,,,,,,0,3,3,3,1,,,,,,,,,,,,,,,,,,,,,,,,,,,,,,,,,,,,,,,,,,,,,,
509275,001,2022-11-21_24h53.24.788,Info_measure_main_exp,2022.2.2,Win32,11.9988961,,,,,,,,,,,,,,,,,,masks/mask_002.jpg,,,,,,,,,,,,,,,,,,,,,,,,,,,,,,,,,,,,,,,,,,,0,4,4,1,1,,,,,,,,,,,,,,,,,,,,,,,,,,,,,,,,,,,,,,,,,,,,,,
509275,001,2022-11-21_24h53.24.788,Info_measure_main_exp,2022.2.2,Win32,11.9988961,,,,,,,,,,,,,,,,,,masks/mask_004.jpg,,,,,,,,,,,,,,,,,,,,,,,,,,,,,,,,,,,,,,,,,,,,,,,,0,0,0,3,1,,,,,,,,,,,,,,,,,,,,,,,,,,,,,,,,,,,,,,,,,
509275,001,2022-11-21_24h53.24.788,Info_measure_main_exp,2022.2.2,Win32,11.9988961,,,,,,,,,,,,,,,,,,masks/mask_002.jpg,,,,,,,,,,,,,,,,,,,,,,,,,,,,,,,,,,,,,,,,,,,,,,,,0,1,1,1,1,,,,,,,,,,,,,,,,,,,,,,,,,,,,,,,,,,,,,,,,,
509275,001,2022-11-21_24h53.24.788,Info_measure_main_exp,2022.2.2,Win32,11.9988961,,,,,,,,,,,,,,,,,,masks/mask_001.jpg,,,,,,,,,,,,,,,,,,,,,,,,,,,,,,,,,,,,,,,,,,,,,,,,0,2,2,0,1,,,,,,,,,,,,,,,,,,,,,,,,,,,,,,,,,,,,,,,,,
509275,001,2022-11-21_24h53.24.788,Info_measure_main_exp,2022.2.2,Win32,11.9988961,,,,,,,,,,,,,,,,,,masks/mask_005.jpg,,,,,,,,,,,,,,,,,,,,,,,,,,,,,,,,,,,,,,,,,,,,,,,,0,3,3,4,1,,,,,,,,,,,,,,,,,,,,,,,,,,,,,,,,,,,,,,,,,
509275,001,2022-11-21_24h53.24.788,Info_measure_main_exp,2022.2.2,Win32,11.9988961,,,,,,,,,,,,,,,,,,masks/mask_003.jpg,,,,,,,,,,,,,,,,,,,,,,,,,,,,,,,,,,,,,,,,,,,,,,,,0,4,4,2,1,,,,,,,,,,,,,,,,,,,,,,,,,,,,,,,,,,,,,,,,,
