participant,session,date,expName,psychopyVersion,OS,frameRate,space_press_continue.keys,space_press_continue.rt,space_press_continue_2.keys,space_press_continue_2.rt,space_press_continue_3.keys,space_press_continue_3.rt,space_press_continue_4.keys,space_press_continue_4.rt,space_press_continue_5.keys,space_press_continue_5.rt,space_press_continue_6.keys,space_press_continue_6.rt,prac_mask_loop_1.thisRepN,prac_mask_loop_1.thisTrialN,prac_mask_loop_1.thisN,prac_mask_loop_1.thisIndex,prac_mask_loop_1.ran,mask_name,prac_mask_loop_2.thisRepN,prac_mask_loop_2.thisTrialN,prac_mask_loop_2.thisN,prac_mask_loop_2.thisIndex,prac_mask_loop_2.ran,mouse_2.x,mouse_2.y,mouse_2.leftButton,mouse_2.midButton,mouse_2.rightButton,mouse_2.clicked_name,similarity,response_time,Pass,mouse_12.x,mouse_12.y,mouse_12.leftButton,mouse_12.midButton,mouse_12.rightButton,mouse_12.clicked_name,prac_loop.thisRepN,prac_loop.thisTrialN,prac_loop.thisN,prac_loop.thisIndex,prac_loop.ran,Pair_type,Image_num,Patch_1_loc,Patch_2_loc,Patch_1_info,Patch_2_info,Patch_1_name,Patch_2_name,mouse_1.x,mouse_1.y,mouse_1.leftButton,mouse_1.midButton,mouse_1.rightButton,mouse_1.time,mouse_1.clicked_name,space_press_continue_7.keys,space_press_continue_7.rt,mask_loop.thisRepN,mask_loop.thisTrialN,mask_loop.thisN,mask_loop.thisIndex,mask_loop.ran,mask_loop_2.thisRepN,mask_loop_2.thisTrialN,mask_loop_2.thisN,mask_loop_2.thisIndex,mask_loop_2.ran,mouse.x,mouse.y,mouse.leftButton,mouse.midButton,mouse.rightButton,mouse.clicked_name,trialNumber,mouse_11.x,mouse_11.y,mouse_11.leftButton,mouse_11.midButton,mouse_11.rightButton,mouse_11.clicked_name,first_pass_loop.thisRepN,first_pass_loop.thisTrialN,first_pass_loop.thisN,first_pass_loop.thisIndex,first_pass_loop.ran,mask_loop_3.thisRepN,mask_loop_3.thisTrialN,mask_loop_3.thisN,mask_loop_3.thisIndex,mask_loop_3.ran,mask_loop_4.thisRepN,mask_loop_4.thisTrialN,mask_loop_4.thisN,mask_loop_4.thisIndex,mask_loop_4.ran,mouse_3.x,mouse_3.y,mouse_3.leftButton,mouse_3.midButton,mouse_3.rightButton,mouse_3.clicked_name,double_pass_loop.thisRepN,double_pass_loop.thisTrialN,double_pass_loop.thisN,double_pass_loop.thisIndex,double_pass_loop.ran,space_exit.keys,space_exit.rt
525080,001,2022-11-21_24h52.02.331,Info_measure_main_exp,2022.2.2,Win32,120.1345507,,,,,,,,,,,,,,,,,,,,,,,,,,,,,,,,,,,,,,,,,,,,,,,,,,,,,,,,,,,,,,,,,,,,,,,,,,,,,,,,,,,,,,,,,,,,,,,,,,,,,,,,,,,,,,,
525080,001,2022-11-21_24h52.02.331,Info_measure_main_exp,2022.2.2,Win32,120.1345507,,,,,,,,,,,,,,,,,,,,,,,,,,,,,,,,,,,,,,,,,,,,,,,,,,,,,,,,,,,,,,,,,,,,,,,,,,,,,,,,,,,,,,,,,,,,,,,,,,,,,,,,,,,,,,,
525080,001,2022-11-21_24h52.02.331,Info_measure_main_exp,2022.2.2,Win32,120.1345507,space,8.2354,,,,,,,,,,,,,,,,,,,,,,,,,,,,,,,,,,,,,,,,,,,,,,,,,,,,,,,,,,,,,,,,,,,,,,,,,,,,,,,,,,,,,,,,,,,,,,,,,,,,,,,,,,,,,
525080,001,2022-11-21_24h52.02.331,Info_measure_main_exp,2022.2.2,Win32,120.1345507,,,space,12.9365,,,,,,,,,,,,,,,,,,,,,,,,,,,,,,,,,,,,,,,,,,,,,,,,,,,,,,,,,,,,,,,,,,,,,,,,,,,,,,,,,,,,,,,,,,,,,,,,,,,,,,,,,,,
525080,001,2022-11-21_24h52.02.331,Info_measure_main_exp,2022.2.2,Win32,120.1345507,,,,,space,7.638,,,,,,,,,,,,,,,,,,,,,,,,,,,,,,,,,,,,,,,,,,,,,,,,,,,,,,,,,,,,,,,,,,,,,,,,,,,,,,,,,,,,,,,,,,,,,,,,,,,,,,,,,
525080,001,2022-11-21_24h52.02.331,Info_measure_main_exp,2022.2.2,Win32,120.1345507,,,,,,,space,19.0053,,,,,,,,,,,,,,,,,,,,,,,,,,,,,,,,,,,,,,,,,,,,,,,,,,,,,,,,,,,,,,,,,,,,,,,,,,,,,,,,,,,,,,,,,,,,,,,,,,,,,,,
525080,001,2022-11-21_24h52.02.331,Info_measure_main_exp,2022.2.2,Win32,120.1345507,,,,,,,,,space,6.2054,,,,,,,,,,,,,,,,,,,,,,,,,,,,,,,,,,,,,,,,,,,,,,,,,,,,,,,,,,,,,,,,,,,,,,,,,,,,,,,,,,,,,,,,,,,,,,,,,,,,,
525080,001,2022-11-21_24h52.02.331,Info_measure_main_exp,2022.2.2,Win32,120.1345507,,,,,,,,,,,space,4.7968,,,,,,,,,,,,,,,,,,,,,,,,,,,,,,,,,,,,,,,,,,,,,,,,,,,,,,,,,,,,,,,,,,,,,,,,,,,,,,,,,,,,,,,,,,,,,,,,,,,
525080,001,2022-11-21_24h52.02.331,Info_measure_main_exp,2022.2.2,Win32,120.1345507,,,,,,,,,,,,,0,0,0,0,1,masks/mask_001.jpg,,,,,,,,,,,,,,,,,,,,,,,,,,,,,,,,,,,,,,,,,,,,,,,,,,,,,,,,,,,,,,,,,,,,,,,,,,,,,,,,,,,,,,,,,,,,,
525080,001,2022-11-21_24h52.02.331,Info_measure_main_exp,2022.2.2,Win32,120.1345507,,,,,,,,,,,,,0,1,1,3,1,masks/mask_004.jpg,,,,,,,,,,,,,,,,,,,,,,,,,,,,,,,,,,,,,,,,,,,,,,,,,,,,,,,,,,,,,,,,,,,,,,,,,,,,,,,,,,,,,,,,,,,,,
525080,001,2022-11-21_24h52.02.331,Info_measure_main_exp,2022.2.2,Win32,120.1345507,,,,,,,,,,,,,0,2,2,1,1,masks/mask_002.jpg,,,,,,,,,,,,,,,,,,,,,,,,,,,,,,,,,,,,,,,,,,,,,,,,,,,,,,,,,,,,,,,,,,,,,,,,,,,,,,,,,,,,,,,,,,,,,
525080,001,2022-11-21_24h52.02.331,Info_measure_main_exp,2022.2.2,Win32,120.1345507,,,,,,,,,,,,,0,3,3,4,1,masks/mask_005.jpg,,,,,,,,,,,,,,,,,,,,,,,,,,,,,,,,,,,,,,,,,,,,,,,,,,,,,,,,,,,,,,,,,,,,,,,,,,,,,,,,,,,,,,,,,,,,,
525080,001,2022-11-21_24h52.02.331,Info_measure_main_exp,2022.2.2,Win32,120.1345507,,,,,,,,,,,,,0,4,4,2,1,masks/mask_003.jpg,,,,,,,,,,,,,,,,,,,,,,,,,,,,,,,,,,,,,,,,,,,,,,,,,,,,,,,,,,,,,,,,,,,,,,,,,,,,,,,,,,,,,,,,,,,,,
525080,001,2022-11-21_24h52.02.331,Info_measure_main_exp,2022.2.2,Win32,120.1345507,,,,,,,,,,,,,,,,,,masks/mask_003.jpg,0,0,0,2,1,,,,,,,,,,,,,,,,,,,,,,,,,,,,,,,,,,,,,,,,,,,,,,,,,,,,,,,,,,,,,,,,,,,,,,,,,,,,,,,,,,,,,,,,
525080,001,2022-11-21_24h52.02.331,Info_measure_main_exp,2022.2.2,Win32,120.1345507,,,,,,,,,,,,,,,,,,masks/mask_004.jpg,0,1,1,3,1,,,,,,,,,,,,,,,,,,,,,,,,,,,,,,,,,,,,,,,,,,,,,,,,,,,,,,,,,,,,,,,,,,,,,,,,,,,,,,,,,,,,,,,,
525080,001,2022-11-21_24h52.02.331,Info_measure_main_exp,2022.2.2,Win32,120.1345507,,,,,,,,,,,,,,,,,,masks/mask_005.jpg,0,2,2,4,1,,,,,,,,,,,,,,,,,,,,,,,,,,,,,,,,,,,,,,,,,,,,,,,,,,,,,,,,,,,,,,,,,,,,,,,,,,,,,,,,,,,,,,,,
525080,001,2022-11-21_24h52.02.331,Info_measure_main_exp,2022.2.2,Win32,120.1345507,,,,,,,,,,,,,,,,,,masks/mask_002.jpg,0,3,3,1,1,,,,,,,,,,,,,,,,,,,,,,,,,,,,,,,,,,,,,,,,,,,,,,,,,,,,,,,,,,,,,,,,,,,,,,,,,,,,,,,,,,,,,,,,
525080,001,2022-11-21_24h52.02.331,Info_measure_main_exp,2022.2.2,Win32,120.1345507,,,,,,,,,,,,,,,,,,masks/mask_001.jpg,0,4,4,0,1,,,,,,,,,,,,,,,,,,,,,,,,,,,,,,,,,,,,,,,,,,,,,,,,,,,,,,,,,,,,,,,,,,,,,,,,,,,,,,,,,,,,,,,,
525080,001,2022-11-21_24h52.02.331,Info_measure_main_exp,2022.2.2,Win32,120.1345507,,,,,,,,,,,,,,,,,,,,,,,,-0.075925926,0.112962963,1,0,0,response7disk,0,70.6159,1,0.006481481,0.002777778,1,0,0,center_square,0,0,0,2,1,0,131,5,5,2526,2526,prac_patch/patch0002526.jpg,prac_patch/patch0002526.jpg,,,,,,,,,,,,,,,,,,,,,,,,,,,,,,,,,,,,,,,,,,,,,,,,,,,,,,,,,,,,
525080,001,2022-11-21_24h52.02.331,Info_measure_main_exp,2022.2.2,Win32,120.1345507,,,,,,,,,,,,,0,0,0,2,1,masks/mask_003.jpg,,,,,,,,,,,,,,,,,,,,,,,,,,,,,,,,,,,,,,,,,,,,,,,,,,,,,,,,,,,,,,,,,,,,,,,,,,,,,,,,,,,,,,,,,,,,,
525080,001,2022-11-21_24h52.02.331,Info_measure_main_exp,2022.2.2,Win32,120.1345507,,,,,,,,,,,,,0,1,1,1,1,masks/mask_002.jpg,,,,,,,,,,,,,,,,,,,,,,,,,,,,,,,,,,,,,,,,,,,,,,,,,,,,,,,,,,,,,,,,,,,,,,,,,,,,,,,,,,,,,,,,,,,,,
525080,001,2022-11-21_24h52.02.331,Info_measure_main_exp,2022.2.2,Win32,120.1345507,,,,,,,,,,,,,0,2,2,3,1,masks/mask_004.jpg,,,,,,,,,,,,,,,,,,,,,,,,,,,,,,,,,,,,,,,,,,,,,,,,,,,,,,,,,,,,,,,,,,,,,,,,,,,,,,,,,,,,,,,,,,,,,
525080,001,2022-11-21_24h52.02.331,Info_measure_main_exp,2022.2.2,Win32,120.1345507,,,,,,,,,,,,,0,3,3,4,1,masks/mask_005.jpg,,,,,,,,,,,,,,,,,,,,,,,,,,,,,,,,,,,,,,,,,,,,,,,,,,,,,,,,,,,,,,,,,,,,,,,,,,,,,,,,,,,,,,,,,,,,,
525080,001,2022-11-21_24h52.02.331,Info_measure_main_exp,2022.2.2,Win32,120.1345507,,,,,,,,,,,,,0,4,4,0,1,masks/mask_001.jpg,,,,,,,,,,,,,,,,,,,,,,,,,,,,,,,,,,,,,,,,,,,,,,,,,,,,,,,,,,,,,,,,,,,,,,,,,,,,,,,,,,,,,,,,,,,,,
525080,001,2022-11-21_24h52.02.331,Info_measure_main_exp,2022.2.2,Win32,120.1345507,,,,,,,,,,,,,,,,,,masks/mask_001.jpg,0,0,0,0,1,,,,,,,,,,,,,,,,,,,,,,,,,,,,,,,,,,,,,,,,,,,,,,,,,,,,,,,,,,,,,,,,,,,,,,,,,,,,,,,,,,,,,,,,
525080,001,2022-11-21_24h52.02.331,Info_measure_main_exp,2022.2.2,Win32,120.1345507,,,,,,,,,,,,,,,,,,masks/mask_002.jpg,0,1,1,1,1,,,,,,,,,,,,,,,,,,,,,,,,,,,,,,,,,,,,,,,,,,,,,,,,,,,,,,,,,,,,,,,,,,,,,,,,,,,,,,,,,,,,,,,,
525080,001,2022-11-21_24h52.02.331,Info_measure_main_exp,2022.2.2,Win32,120.1345507,,,,,,,,,,,,,,,,,,masks/mask_004.jpg,0,2,2,3,1,,,,,,,,,,,,,,,,,,,,,,,,,,,,,,,,,,,,,,,,,,,,,,,,,,,,,,,,,,,,,,,,,,,,,,,,,,,,,,,,,,,,,,,,
525080,001,2022-11-21_24h52.02.331,Info_measure_main_exp,2022.2.2,Win32,120.1345507,,,,,,,,,,,,,,,,,,masks/mask_005.jpg,0,3,3,4,1,,,,,,,,,,,,,,,,,,,,,,,,,,,,,,,,,,,,,,,,,,,,,,,,,,,,,,,,,,,,,,,,,,,,,,,,,,,,,,,,,,,,,,,,
525080,001,2022-11-21_24h52.02.331,Info_measure_main_exp,2022.2.2,Win32,120.1345507,,,,,,,,,,,,,,,,,,masks/mask_003.jpg,0,4,4,2,1,,,,,,,,,,,,,,,,,,,,,,,,,,,,,,,,,,,,,,,,,,,,,,,,,,,,,,,,,,,,,,,,,,,,,,,,,,,,,,,,,,,,,,,,
525080,001,2022-11-21_24h52.02.331,Info_measure_main_exp,2022.2.2,Win32,120.1345507,,,,,,,,,,,,,,,,,,,,,,,,-0.034259259,-0.132407407,1,0,0,response5disk,3,82.3506,1,-0.003703704,-0.008333333,1,0,0,center_square,0,1,1,1,1,0,131,5,5,2514,2490,prac_patch/patch0002514.jpg,prac_patch/patch0002490.jpg,,,,,,,,,,,,,,,,,,,,,,,,,,,,,,,,,,,,,,,,,,,,,,,,,,,,,,,,,,,,
525080,001,2022-11-21_24h52.02.331,Info_measure_main_exp,2022.2.2,Win32,120.1345507,,,,,,,,,,,,,0,0,0,2,1,masks/mask_003.jpg,,,,,,,,,,,,,,,,,,,,,,,,,,,,,,,,,,,,,,,,,,,,,,,,,,,,,,,,,,,,,,,,,,,,,,,,,,,,,,,,,,,,,,,,,,,,,
525080,001,2022-11-21_24h52.02.331,Info_measure_main_exp,2022.2.2,Win32,120.1345507,,,,,,,,,,,,,0,1,1,1,1,masks/mask_002.jpg,,,,,,,,,,,,,,,,,,,,,,,,,,,,,,,,,,,,,,,,,,,,,,,,,,,,,,,,,,,,,,,,,,,,,,,,,,,,,,,,,,,,,,,,,,,,,
525080,001,2022-11-21_24h52.02.331,Info_measure_main_exp,2022.2.2,Win32,120.1345507,,,,,,,,,,,,,0,2,2,0,1,masks/mask_001.jpg,,,,,,,,,,,,,,,,,,,,,,,,,,,,,,,,,,,,,,,,,,,,,,,,,,,,,,,,,,,,,,,,,,,,,,,,,,,,,,,,,,,,,,,,,,,,,
525080,001,2022-11-21_24h52.02.331,Info_measure_main_exp,2022.2.2,Win32,120.1345507,,,,,,,,,,,,,0,3,3,3,1,masks/mask_004.jpg,,,,,,,,,,,,,,,,,,,,,,,,,,,,,,,,,,,,,,,,,,,,,,,,,,,,,,,,,,,,,,,,,,,,,,,,,,,,,,,,,,,,,,,,,,,,,
525080,001,2022-11-21_24h52.02.331,Info_measure_main_exp,2022.2.2,Win32,120.1345507,,,,,,,,,,,,,0,4,4,4,1,masks/mask_005.jpg,,,,,,,,,,,,,,,,,,,,,,,,,,,,,,,,,,,,,,,,,,,,,,,,,,,,,,,,,,,,,,,,,,,,,,,,,,,,,,,,,,,,,,,,,,,,,
525080,001,2022-11-21_24h52.02.331,Info_measure_main_exp,2022.2.2,Win32,120.1345507,,,,,,,,,,,,,,,,,,masks/mask_003.jpg,0,0,0,2,1,,,,,,,,,,,,,,,,,,,,,,,,,,,,,,,,,,,,,,,,,,,,,,,,,,,,,,,,,,,,,,,,,,,,,,,,,,,,,,,,,,,,,,,,
525080,001,2022-11-21_24h52.02.331,Info_measure_main_exp,2022.2.2,Win32,120.1345507,,,,,,,,,,,,,,,,,,masks/mask_001.jpg,0,1,1,0,1,,,,,,,,,,,,,,,,,,,,,,,,,,,,,,,,,,,,,,,,,,,,,,,,,,,,,,,,,,,,,,,,,,,,,,,,,,,,,,,,,,,,,,,,
525080,001,2022-11-21_24h52.02.331,Info_measure_main_exp,2022.2.2,Win32,120.1345507,,,,,,,,,,,,,,,,,,masks/mask_002.jpg,0,2,2,1,1,,,,,,,,,,,,,,,,,,,,,,,,,,,,,,,,,,,,,,,,,,,,,,,,,,,,,,,,,,,,,,,,,,,,,,,,,,,,,,,,,,,,,,,,
525080,001,2022-11-21_24h52.02.331,Info_measure_main_exp,2022.2.2,Win32,120.1345507,,,,,,,,,,,,,,,,,,masks/mask_005.jpg,0,3,3,4,1,,,,,,,,,,,,,,,,,,,,,,,,,,,,,,,,,,,,,,,,,,,,,,,,,,,,,,,,,,,,,,,,,,,,,,,,,,,,,,,,,,,,,,,,
525080,001,2022-11-21_24h52.02.331,Info_measure_main_exp,2022.2.2,Win32,120.1345507,,,,,,,,,,,,,,,,,,masks/mask_004.jpg,0,4,4,3,1,,,,,,,,,,,,,,,,,,,,,,,,,,,,,,,,,,,,,,,,,,,,,,,,,,,,,,,,,,,,,,,,,,,,,,,,,,,,,,,,,,,,,,,,
525080,001,2022-11-21_24h52.02.331,Info_measure_main_exp,2022.2.2,Win32,120.1345507,,,,,,,,,,,,,,,,,,,,,,,,0.140740741,0.075,1,0,0,response1disk,6,93.764,1,-0.003703704,-0.012962963,1,0,0,center_square,0,2,2,0,1,0,131,5,5,2370,2406,prac_patch/patch0002370.jpg,prac_patch/patch0002406.jpg,,,,,,,,,,,,,,,,,,,,,,,,,,,,,,,,,,,,,,,,,,,,,,,,,,,,,,,,,,,,
525080,001,2022-11-21_24h52.02.331,Info_measure_main_exp,2022.2.2,Win32,120.1345507,,,,,,,,,,,,,,,,,,,,,,,,,,,,,,,,,,,,,,,,,,,,,,,,,,,,,,,,,,,space,5.2,,,,,,,,,,,,,,,,,,,,,,,,,,,,,,,,,,,,,,,,,,,,,,,,,,,
525080,001,2022-11-21_24h52.02.331,Info_measure_main_exp,2022.2.2,Win32,120.1345507,,,,,,,,,,,,,,,,,,masks/mask_002.jpg,,,,,,,,,,,,,,,,,,,,,,,,,,,,,,,,,,,,,,,,,,,0,0,0,1,1,,,,,,,,,,,,,,,,,,,,,,,,,,,,,,,,,,,,,,,,,,,,,,
525080,001,2022-11-21_24h52.02.331,Info_measure_main_exp,2022.2.2,Win32,120.1345507,,,,,,,,,,,,,,,,,,masks/mask_003.jpg,,,,,,,,,,,,,,,,,,,,,,,,,,,,,,,,,,,,,,,,,,,0,1,1,2,1,,,,,,,,,,,,,,,,,,,,,,,,,,,,,,,,,,,,,,,,,,,,,,
525080,001,2022-11-21_24h52.02.331,Info_measure_main_exp,2022.2.2,Win32,120.1345507,,,,,,,,,,,,,,,,,,masks/mask_005.jpg,,,,,,,,,,,,,,,,,,,,,,,,,,,,,,,,,,,,,,,,,,,0,2,2,4,1,,,,,,,,,,,,,,,,,,,,,,,,,,,,,,,,,,,,,,,,,,,,,,
525080,001,2022-11-21_24h52.02.331,Info_measure_main_exp,2022.2.2,Win32,120.1345507,,,,,,,,,,,,,,,,,,masks/mask_004.jpg,,,,,,,,,,,,,,,,,,,,,,,,,,,,,,,,,,,,,,,,,,,0,3,3,3,1,,,,,,,,,,,,,,,,,,,,,,,,,,,,,,,,,,,,,,,,,,,,,,
525080,001,2022-11-21_24h52.02.331,Info_measure_main_exp,2022.2.2,Win32,120.1345507,,,,,,,,,,,,,,,,,,masks/mask_001.jpg,,,,,,,,,,,,,,,,,,,,,,,,,,,,,,,,,,,,,,,,,,,0,4,4,0,1,,,,,,,,,,,,,,,,,,,,,,,,,,,,,,,,,,,,,,,,,,,,,,
525080,001,2022-11-21_24h52.02.331,Info_measure_main_exp,2022.2.2,Win32,120.1345507,,,,,,,,,,,,,,,,,,masks/mask_003.jpg,,,,,,,,,,,,,,,,,,,,,,,,,,,,,,,,,,,,,,,,,,,,,,,,0,0,0,2,1,,,,,,,,,,,,,,,,,,,,,,,,,,,,,,,,,,,,,,,,,
525080,001,2022-11-21_24h52.02.331,Info_measure_main_exp,2022.2.2,Win32,120.1345507,,,,,,,,,,,,,,,,,,masks/mask_001.jpg,,,,,,,,,,,,,,,,,,,,,,,,,,,,,,,,,,,,,,,,,,,,,,,,0,1,1,0,1,,,,,,,,,,,,,,,,,,,,,,,,,,,,,,,,,,,,,,,,,
525080,001,2022-11-21_24h52.02.331,Info_measure_main_exp,2022.2.2,Win32,120.1345507,,,,,,,,,,,,,,,,,,masks/mask_005.jpg,,,,,,,,,,,,,,,,,,,,,,,,,,,,,,,,,,,,,,,,,,,,,,,,0,2,2,4,1,,,,,,,,,,,,,,,,,,,,,,,,,,,,,,,,,,,,,,,,,
525080,001,2022-11-21_24h52.02.331,Info_measure_main_exp,2022.2.2,Win32,120.1345507,,,,,,,,,,,,,,,,,,masks/mask_004.jpg,,,,,,,,,,,,,,,,,,,,,,,,,,,,,,,,,,,,,,,,,,,,,,,,0,3,3,3,1,,,,,,,,,,,,,,,,,,,,,,,,,,,,,,,,,,,,,,,,,
525080,001,2022-11-21_24h52.02.331,Info_measure_main_exp,2022.2.2,Win32,120.1345507,,,,,,,,,,,,,,,,,,masks/mask_002.jpg,,,,,,,,,,,,,,,,,,,,,,,,,,,,,,,,,,,,,,,,,,,,,,,,0,4,4,1,1,,,,,,,,,,,,,,,,,,,,,,,,,,,,,,,,,,,,,,,,,
525080,001,2022-11-21_24h52.02.331,Info_measure_main_exp,2022.2.2,Win32,120.1345507,,,,,,,,,,,,,,,,,,,,,,,,,,,,,,7,1.3083,1,,,,,,,,,,,,0,131,5,5,2082,2250,absent_patch/patch0002082.jpg,absent_patch/patch0002250.jpg,,,,,,,,,,,,,,,,,,,,0.042592593,0.085185185,1,0,0,response1disk,1,-0.00462963,0.003703704,1,0,0,center_square,0,0,0,3,1,,,,,,,,,,,,,,,,,,,,,,,
525080,001,2022-11-21_24h52.02.331,Info_measure_main_exp,2022.2.2,Win32,120.1345507,,,,,,,,,,,,,,,,,,masks/mask_004.jpg,,,,,,,,,,,,,,,,,,,,,,,,,,,,,,,,,,,,,,,,,,,0,0,0,3,1,,,,,,,,,,,,,,,,,,,,,,,,,,,,,,,,,,,,,,,,,,,,,,
525080,001,2022-11-21_24h52.02.331,Info_measure_main_exp,2022.2.2,Win32,120.1345507,,,,,,,,,,,,,,,,,,masks/mask_003.jpg,,,,,,,,,,,,,,,,,,,,,,,,,,,,,,,,,,,,,,,,,,,0,1,1,2,1,,,,,,,,,,,,,,,,,,,,,,,,,,,,,,,,,,,,,,,,,,,,,,
525080,001,2022-11-21_24h52.02.331,Info_measure_main_exp,2022.2.2,Win32,120.1345507,,,,,,,,,,,,,,,,,,masks/mask_002.jpg,,,,,,,,,,,,,,,,,,,,,,,,,,,,,,,,,,,,,,,,,,,0,2,2,1,1,,,,,,,,,,,,,,,,,,,,,,,,,,,,,,,,,,,,,,,,,,,,,,
525080,001,2022-11-21_24h52.02.331,Info_measure_main_exp,2022.2.2,Win32,120.1345507,,,,,,,,,,,,,,,,,,masks/mask_001.jpg,,,,,,,,,,,,,,,,,,,,,,,,,,,,,,,,,,,,,,,,,,,0,3,3,0,1,,,,,,,,,,,,,,,,,,,,,,,,,,,,,,,,,,,,,,,,,,,,,,
525080,001,2022-11-21_24h52.02.331,Info_measure_main_exp,2022.2.2,Win32,120.1345507,,,,,,,,,,,,,,,,,,masks/mask_005.jpg,,,,,,,,,,,,,,,,,,,,,,,,,,,,,,,,,,,,,,,,,,,0,4,4,4,1,,,,,,,,,,,,,,,,,,,,,,,,,,,,,,,,,,,,,,,,,,,,,,
525080,001,2022-11-21_24h52.02.331,Info_measure_main_exp,2022.2.2,Win32,120.1345507,,,,,,,,,,,,,,,,,,masks/mask_005.jpg,,,,,,,,,,,,,,,,,,,,,,,,,,,,,,,,,,,,,,,,,,,,,,,,0,0,0,4,1,,,,,,,,,,,,,,,,,,,,,,,,,,,,,,,,,,,,,,,,,
525080,001,2022-11-21_24h52.02.331,Info_measure_main_exp,2022.2.2,Win32,120.1345507,,,,,,,,,,,,,,,,,,masks/mask_003.jpg,,,,,,,,,,,,,,,,,,,,,,,,,,,,,,,,,,,,,,,,,,,,,,,,0,1,1,2,1,,,,,,,,,,,,,,,,,,,,,,,,,,,,,,,,,,,,,,,,,
525080,001,2022-11-21_24h52.02.331,Info_measure_main_exp,2022.2.2,Win32,120.1345507,,,,,,,,,,,,,,,,,,masks/mask_002.jpg,,,,,,,,,,,,,,,,,,,,,,,,,,,,,,,,,,,,,,,,,,,,,,,,0,2,2,1,1,,,,,,,,,,,,,,,,,,,,,,,,,,,,,,,,,,,,,,,,,
525080,001,2022-11-21_24h52.02.331,Info_measure_main_exp,2022.2.2,Win32,120.1345507,,,,,,,,,,,,,,,,,,masks/mask_001.jpg,,,,,,,,,,,,,,,,,,,,,,,,,,,,,,,,,,,,,,,,,,,,,,,,0,3,3,0,1,,,,,,,,,,,,,,,,,,,,,,,,,,,,,,,,,,,,,,,,,
525080,001,2022-11-21_24h52.02.331,Info_measure_main_exp,2022.2.2,Win32,120.1345507,,,,,,,,,,,,,,,,,,masks/mask_004.jpg,,,,,,,,,,,,,,,,,,,,,,,,,,,,,,,,,,,,,,,,,,,,,,,,0,4,4,3,1,,,,,,,,,,,,,,,,,,,,,,,,,,,,,,,,,,,,,,,,,
525080,001,2022-11-21_24h52.02.331,Info_measure_main_exp,2022.2.2,Win32,120.1345507,,,,,,,,,,,,,,,,,,,,,,,,,,,,,,7,0.6914,1,,,,,,,,,,,,1,131,5,5,2250,1,absent_patch/patch0002250.jpg,present_patch/cong_131_5_a.jpg,,,,,,,,,,,,,,,,,,,,0.071296296,0.193518519,1,0,0,response1disk,2,0.009259259,0.006481481,1,0,0,center_square,0,1,1,5,1,,,,,,,,,,,,,,,,,,,,,,,
525080,001,2022-11-21_24h52.02.331,Info_measure_main_exp,2022.2.2,Win32,120.1345507,,,,,,,,,,,,,,,,,,masks/mask_005.jpg,,,,,,,,,,,,,,,,,,,,,,,,,,,,,,,,,,,,,,,,,,,0,0,0,4,1,,,,,,,,,,,,,,,,,,,,,,,,,,,,,,,,,,,,,,,,,,,,,,
525080,001,2022-11-21_24h52.02.331,Info_measure_main_exp,2022.2.2,Win32,120.1345507,,,,,,,,,,,,,,,,,,masks/mask_001.jpg,,,,,,,,,,,,,,,,,,,,,,,,,,,,,,,,,,,,,,,,,,,0,1,1,0,1,,,,,,,,,,,,,,,,,,,,,,,,,,,,,,,,,,,,,,,,,,,,,,
525080,001,2022-11-21_24h52.02.331,Info_measure_main_exp,2022.2.2,Win32,120.1345507,,,,,,,,,,,,,,,,,,masks/mask_003.jpg,,,,,,,,,,,,,,,,,,,,,,,,,,,,,,,,,,,,,,,,,,,0,2,2,2,1,,,,,,,,,,,,,,,,,,,,,,,,,,,,,,,,,,,,,,,,,,,,,,
525080,001,2022-11-21_24h52.02.331,Info_measure_main_exp,2022.2.2,Win32,120.1345507,,,,,,,,,,,,,,,,,,masks/mask_004.jpg,,,,,,,,,,,,,,,,,,,,,,,,,,,,,,,,,,,,,,,,,,,0,3,3,3,1,,,,,,,,,,,,,,,,,,,,,,,,,,,,,,,,,,,,,,,,,,,,,,
525080,001,2022-11-21_24h52.02.331,Info_measure_main_exp,2022.2.2,Win32,120.1345507,,,,,,,,,,,,,,,,,,masks/mask_002.jpg,,,,,,,,,,,,,,,,,,,,,,,,,,,,,,,,,,,,,,,,,,,0,4,4,1,1,,,,,,,,,,,,,,,,,,,,,,,,,,,,,,,,,,,,,,,,,,,,,,
525080,001,2022-11-21_24h52.02.331,Info_measure_main_exp,2022.2.2,Win32,120.1345507,,,,,,,,,,,,,,,,,,masks/mask_002.jpg,,,,,,,,,,,,,,,,,,,,,,,,,,,,,,,,,,,,,,,,,,,,,,,,0,0,0,1,1,,,,,,,,,,,,,,,,,,,,,,,,,,,,,,,,,,,,,,,,,
525080,001,2022-11-21_24h52.02.331,Info_measure_main_exp,2022.2.2,Win32,120.1345507,,,,,,,,,,,,,,,,,,masks/mask_004.jpg,,,,,,,,,,,,,,,,,,,,,,,,,,,,,,,,,,,,,,,,,,,,,,,,0,1,1,3,1,,,,,,,,,,,,,,,,,,,,,,,,,,,,,,,,,,,,,,,,,
525080,001,2022-11-21_24h52.02.331,Info_measure_main_exp,2022.2.2,Win32,120.1345507,,,,,,,,,,,,,,,,,,masks/mask_003.jpg,,,,,,,,,,,,,,,,,,,,,,,,,,,,,,,,,,,,,,,,,,,,,,,,0,2,2,2,1,,,,,,,,,,,,,,,,,,,,,,,,,,,,,,,,,,,,,,,,,
525080,001,2022-11-21_24h52.02.331,Info_measure_main_exp,2022.2.2,Win32,120.1345507,,,,,,,,,,,,,,,,,,masks/mask_005.jpg,,,,,,,,,,,,,,,,,,,,,,,,,,,,,,,,,,,,,,,,,,,,,,,,0,3,3,4,1,,,,,,,,,,,,,,,,,,,,,,,,,,,,,,,,,,,,,,,,,
525080,001,2022-11-21_24h52.02.331,Info_measure_main_exp,2022.2.2,Win32,120.1345507,,,,,,,,,,,,,,,,,,masks/mask_001.jpg,,,,,,,,,,,,,,,,,,,,,,,,,,,,,,,,,,,,,,,,,,,,,,,,0,4,4,0,1,,,,,,,,,,,,,,,,,,,,,,,,,,,,,,,,,,,,,,,,,
525080,001,2022-11-21_24h52.02.331,Info_measure_main_exp,2022.2.2,Win32,120.1345507,,,,,,,,,,,,,,,,,,,,,,,,,,,,,,0,0.5332,1,,,,,,,,,,,,0,131,5,5,2190,2166,absent_patch/patch0002190.jpg,absent_patch/patch0002166.jpg,,,,,,,,,,,,,,,,,,,,-0.000925926,0.134259259,1,0,0,response7disk,3,0.016666667,0.007407407,1,0,0,center_square,0,2,2,50,1,,,,,,,,,,,,,,,,,,,,,,,
525080,001,2022-11-21_24h52.02.331,Info_measure_main_exp,2022.2.2,Win32,120.1345507,,,,,,,,,,,,,,,,,,masks/mask_002.jpg,,,,,,,,,,,,,,,,,,,,,,,,,,,,,,,,,,,,,,,,,,,0,0,0,1,1,,,,,,,,,,,,,,,,,,,,,,,,,,,,,,,,,,,,,,,,,,,,,,
525080,001,2022-11-21_24h52.02.331,Info_measure_main_exp,2022.2.2,Win32,120.1345507,,,,,,,,,,,,,,,,,,masks/mask_001.jpg,,,,,,,,,,,,,,,,,,,,,,,,,,,,,,,,,,,,,,,,,,,0,1,1,0,1,,,,,,,,,,,,,,,,,,,,,,,,,,,,,,,,,,,,,,,,,,,,,,
525080,001,2022-11-21_24h52.02.331,Info_measure_main_exp,2022.2.2,Win32,120.1345507,,,,,,,,,,,,,,,,,,masks/mask_003.jpg,,,,,,,,,,,,,,,,,,,,,,,,,,,,,,,,,,,,,,,,,,,0,2,2,2,1,,,,,,,,,,,,,,,,,,,,,,,,,,,,,,,,,,,,,,,,,,,,,,
525080,001,2022-11-21_24h52.02.331,Info_measure_main_exp,2022.2.2,Win32,120.1345507,,,,,,,,,,,,,,,,,,masks/mask_004.jpg,,,,,,,,,,,,,,,,,,,,,,,,,,,,,,,,,,,,,,,,,,,0,3,3,3,1,,,,,,,,,,,,,,,,,,,,,,,,,,,,,,,,,,,,,,,,,,,,,,
525080,001,2022-11-21_24h52.02.331,Info_measure_main_exp,2022.2.2,Win32,120.1345507,,,,,,,,,,,,,,,,,,masks/mask_005.jpg,,,,,,,,,,,,,,,,,,,,,,,,,,,,,,,,,,,,,,,,,,,0,4,4,4,1,,,,,,,,,,,,,,,,,,,,,,,,,,,,,,,,,,,,,,,,,,,,,,
525080,001,2022-11-21_24h52.02.331,Info_measure_main_exp,2022.2.2,Win32,120.1345507,,,,,,,,,,,,,,,,,,masks/mask_004.jpg,,,,,,,,,,,,,,,,,,,,,,,,,,,,,,,,,,,,,,,,,,,,,,,,0,0,0,3,1,,,,,,,,,,,,,,,,,,,,,,,,,,,,,,,,,,,,,,,,,
525080,001,2022-11-21_24h52.02.331,Info_measure_main_exp,2022.2.2,Win32,120.1345507,,,,,,,,,,,,,,,,,,masks/mask_001.jpg,,,,,,,,,,,,,,,,,,,,,,,,,,,,,,,,,,,,,,,,,,,,,,,,0,1,1,0,1,,,,,,,,,,,,,,,,,,,,,,,,,,,,,,,,,,,,,,,,,
525080,001,2022-11-21_24h52.02.331,Info_measure_main_exp,2022.2.2,Win32,120.1345507,,,,,,,,,,,,,,,,,,masks/mask_003.jpg,,,,,,,,,,,,,,,,,,,,,,,,,,,,,,,,,,,,,,,,,,,,,,,,0,2,2,2,1,,,,,,,,,,,,,,,,,,,,,,,,,,,,,,,,,,,,,,,,,
525080,001,2022-11-21_24h52.02.331,Info_measure_main_exp,2022.2.2,Win32,120.1345507,,,,,,,,,,,,,,,,,,masks/mask_005.jpg,,,,,,,,,,,,,,,,,,,,,,,,,,,,,,,,,,,,,,,,,,,,,,,,0,3,3,4,1,,,,,,,,,,,,,,,,,,,,,,,,,,,,,,,,,,,,,,,,,
525080,001,2022-11-21_24h52.02.331,Info_measure_main_exp,2022.2.2,Win32,120.1345507,,,,,,,,,,,,,,,,,,masks/mask_002.jpg,,,,,,,,,,,,,,,,,,,,,,,,,,,,,,,,,,,,,,,,,,,,,,,,0,4,4,1,1,,,,,,,,,,,,,,,,,,,,,,,,,,,,,,,,,,,,,,,,,
525080,001,2022-11-21_24h52.02.331,Info_measure_main_exp,2022.2.2,Win32,120.1345507,,,,,,,,,,,,,,,,,,,,,,,,,,,,,,1,1.7603,1,,,,,,,,,,,,1,131,5,5,1,1986,present_patch/cong_131_5_a.jpg,absent_patch/patch0001986.jpg,,,,,,,,,,,,,,,,,,,,-0.146296296,0.055555556,1,0,0,response7disk,4,0.005555556,-0.012962963,1,0,0,center_square,0,3,3,106,1,,,,,,,,,,,,,,,,,,,,,,,
525080,001,2022-11-21_24h52.02.331,Info_measure_main_exp,2022.2.2,Win32,120.1345507,,,,,,,,,,,,,,,,,,masks/mask_002.jpg,,,,,,,,,,,,,,,,,,,,,,,,,,,,,,,,,,,,,,,,,,,0,0,0,1,1,,,,,,,,,,,,,,,,,,,,,,,,,,,,,,,,,,,,,,,,,,,,,,
525080,001,2022-11-21_24h52.02.331,Info_measure_main_exp,2022.2.2,Win32,120.1345507,,,,,,,,,,,,,,,,,,masks/mask_005.jpg,,,,,,,,,,,,,,,,,,,,,,,,,,,,,,,,,,,,,,,,,,,0,1,1,4,1,,,,,,,,,,,,,,,,,,,,,,,,,,,,,,,,,,,,,,,,,,,,,,
525080,001,2022-11-21_24h52.02.331,Info_measure_main_exp,2022.2.2,Win32,120.1345507,,,,,,,,,,,,,,,,,,masks/mask_001.jpg,,,,,,,,,,,,,,,,,,,,,,,,,,,,,,,,,,,,,,,,,,,0,2,2,0,1,,,,,,,,,,,,,,,,,,,,,,,,,,,,,,,,,,,,,,,,,,,,,,
525080,001,2022-11-21_24h52.02.331,Info_measure_main_exp,2022.2.2,Win32,120.1345507,,,,,,,,,,,,,,,,,,masks/mask_004.jpg,,,,,,,,,,,,,,,,,,,,,,,,,,,,,,,,,,,,,,,,,,,0,3,3,3,1,,,,,,,,,,,,,,,,,,,,,,,,,,,,,,,,,,,,,,,,,,,,,,
525080,001,2022-11-21_24h52.02.331,Info_measure_main_exp,2022.2.2,Win32,120.1345507,,,,,,,,,,,,,,,,,,masks/mask_003.jpg,,,,,,,,,,,,,,,,,,,,,,,,,,,,,,,,,,,,,,,,,,,0,4,4,2,1,,,,,,,,,,,,,,,,,,,,,,,,,,,,,,,,,,,,,,,,,,,,,,
525080,001,2022-11-21_24h52.02.331,Info_measure_main_exp,2022.2.2,Win32,120.1345507,,,,,,,,,,,,,,,,,,masks/mask_002.jpg,,,,,,,,,,,,,,,,,,,,,,,,,,,,,,,,,,,,,,,,,,,,,,,,0,0,0,1,1,,,,,,,,,,,,,,,,,,,,,,,,,,,,,,,,,,,,,,,,,
525080,001,2022-11-21_24h52.02.331,Info_measure_main_exp,2022.2.2,Win32,120.1345507,,,,,,,,,,,,,,,,,,masks/mask_003.jpg,,,,,,,,,,,,,,,,,,,,,,,,,,,,,,,,,,,,,,,,,,,,,,,,0,1,1,2,1,,,,,,,,,,,,,,,,,,,,,,,,,,,,,,,,,,,,,,,,,
525080,001,2022-11-21_24h52.02.331,Info_measure_main_exp,2022.2.2,Win32,120.1345507,,,,,,,,,,,,,,,,,,masks/mask_005.jpg,,,,,,,,,,,,,,,,,,,,,,,,,,,,,,,,,,,,,,,,,,,,,,,,0,2,2,4,1,,,,,,,,,,,,,,,,,,,,,,,,,,,,,,,,,,,,,,,,,
525080,001,2022-11-21_24h52.02.331,Info_measure_main_exp,2022.2.2,Win32,120.1345507,,,,,,,,,,,,,,,,,,masks/mask_001.jpg,,,,,,,,,,,,,,,,,,,,,,,,,,,,,,,,,,,,,,,,,,,,,,,,0,3,3,0,1,,,,,,,,,,,,,,,,,,,,,,,,,,,,,,,,,,,,,,,,,
525080,001,2022-11-21_24h52.02.331,Info_measure_main_exp,2022.2.2,Win32,120.1345507,,,,,,,,,,,,,,,,,,masks/mask_004.jpg,,,,,,,,,,,,,,,,,,,,,,,,,,,,,,,,,,,,,,,,,,,,,,,,0,4,4,3,1,,,,,,,,,,,,,,,,,,,,,,,,,,,,,,,,,,,,,,,,,
525080,001,2022-11-21_24h52.02.331,Info_measure_main_exp,2022.2.2,Win32,120.1345507,,,,,,,,,,,,,,,,,,,,,,,,,,,,,,7,0.5906,1,,,,,,,,,,,,1,131,5,5,2298,1,absent_patch/patch0002298.jpg,present_patch/cong_131_5_a.jpg,,,,,,,,,,,,,,,,,,,,0.040740741,0.089814815,1,0,0,response1disk,5,0.002777778,-0.006481481,1,0,0,center_square,0,4,4,45,1,,,,,,,,,,,,,,,,,,,,,,,
525080,001,2022-11-21_24h52.02.331,Info_measure_main_exp,2022.2.2,Win32,120.1345507,,,,,,,,,,,,,,,,,,masks/mask_001.jpg,,,,,,,,,,,,,,,,,,,,,,,,,,,,,,,,,,,,,,,,,,,0,0,0,0,1,,,,,,,,,,,,,,,,,,,,,,,,,,,,,,,,,,,,,,,,,,,,,,
525080,001,2022-11-21_24h52.02.331,Info_measure_main_exp,2022.2.2,Win32,120.1345507,,,,,,,,,,,,,,,,,,masks/mask_003.jpg,,,,,,,,,,,,,,,,,,,,,,,,,,,,,,,,,,,,,,,,,,,0,1,1,2,1,,,,,,,,,,,,,,,,,,,,,,,,,,,,,,,,,,,,,,,,,,,,,,
525080,001,2022-11-21_24h52.02.331,Info_measure_main_exp,2022.2.2,Win32,120.1345507,,,,,,,,,,,,,,,,,,masks/mask_005.jpg,,,,,,,,,,,,,,,,,,,,,,,,,,,,,,,,,,,,,,,,,,,0,2,2,4,1,,,,,,,,,,,,,,,,,,,,,,,,,,,,,,,,,,,,,,,,,,,,,,
525080,001,2022-11-21_24h52.02.331,Info_measure_main_exp,2022.2.2,Win32,120.1345507,,,,,,,,,,,,,,,,,,masks/mask_002.jpg,,,,,,,,,,,,,,,,,,,,,,,,,,,,,,,,,,,,,,,,,,,0,3,3,1,1,,,,,,,,,,,,,,,,,,,,,,,,,,,,,,,,,,,,,,,,,,,,,,
525080,001,2022-11-21_24h52.02.331,Info_measure_main_exp,2022.2.2,Win32,120.1345507,,,,,,,,,,,,,,,,,,masks/mask_004.jpg,,,,,,,,,,,,,,,,,,,,,,,,,,,,,,,,,,,,,,,,,,,0,4,4,3,1,,,,,,,,,,,,,,,,,,,,,,,,,,,,,,,,,,,,,,,,,,,,,,
525080,001,2022-11-21_24h52.02.331,Info_measure_main_exp,2022.2.2,Win32,120.1345507,,,,,,,,,,,,,,,,,,masks/mask_005.jpg,,,,,,,,,,,,,,,,,,,,,,,,,,,,,,,,,,,,,,,,,,,,,,,,0,0,0,4,1,,,,,,,,,,,,,,,,,,,,,,,,,,,,,,,,,,,,,,,,,
525080,001,2022-11-21_24h52.02.331,Info_measure_main_exp,2022.2.2,Win32,120.1345507,,,,,,,,,,,,,,,,,,masks/mask_001.jpg,,,,,,,,,,,,,,,,,,,,,,,,,,,,,,,,,,,,,,,,,,,,,,,,0,1,1,0,1,,,,,,,,,,,,,,,,,,,,,,,,,,,,,,,,,,,,,,,,,
525080,001,2022-11-21_24h52.02.331,Info_measure_main_exp,2022.2.2,Win32,120.1345507,,,,,,,,,,,,,,,,,,masks/mask_004.jpg,,,,,,,,,,,,,,,,,,,,,,,,,,,,,,,,,,,,,,,,,,,,,,,,0,2,2,3,1,,,,,,,,,,,,,,,,,,,,,,,,,,,,,,,,,,,,,,,,,
525080,001,2022-11-21_24h52.02.331,Info_measure_main_exp,2022.2.2,Win32,120.1345507,,,,,,,,,,,,,,,,,,masks/mask_003.jpg,,,,,,,,,,,,,,,,,,,,,,,,,,,,,,,,,,,,,,,,,,,,,,,,0,3,3,2,1,,,,,,,,,,,,,,,,,,,,,,,,,,,,,,,,,,,,,,,,,
525080,001,2022-11-21_24h52.02.331,Info_measure_main_exp,2022.2.2,Win32,120.1345507,,,,,,,,,,,,,,,,,,masks/mask_002.jpg,,,,,,,,,,,,,,,,,,,,,,,,,,,,,,,,,,,,,,,,,,,,,,,,0,4,4,1,1,,,,,,,,,,,,,,,,,,,,,,,,,,,,,,,,,,,,,,,,,
525080,001,2022-11-21_24h52.02.331,Info_measure_main_exp,2022.2.2,Win32,120.1345507,,,,,,,,,,,,,,,,,,,,,,,,,,,,,,6,1.0098,1,,,,,,,,,,,,0,131,5,5,2190,2214,absent_patch/patch0002190.jpg,absent_patch/patch0002214.jpg,,,,,,,,,,,,,,,,,,,,0.1,0.060185185,1,0,0,response1disk,6,0.003703704,0.003703704,1,0,0,center_square,0,5,5,35,1,,,,,,,,,,,,,,,,,,,,,,,
525080,001,2022-11-21_24h52.02.331,Info_measure_main_exp,2022.2.2,Win32,120.1345507,,,,,,,,,,,,,,,,,,masks/mask_003.jpg,,,,,,,,,,,,,,,,,,,,,,,,,,,,,,,,,,,,,,,,,,,0,0,0,2,1,,,,,,,,,,,,,,,,,,,,,,,,,,,,,,,,,,,,,,,,,,,,,,
525080,001,2022-11-21_24h52.02.331,Info_measure_main_exp,2022.2.2,Win32,120.1345507,,,,,,,,,,,,,,,,,,masks/mask_001.jpg,,,,,,,,,,,,,,,,,,,,,,,,,,,,,,,,,,,,,,,,,,,0,1,1,0,1,,,,,,,,,,,,,,,,,,,,,,,,,,,,,,,,,,,,,,,,,,,,,,
525080,001,2022-11-21_24h52.02.331,Info_measure_main_exp,2022.2.2,Win32,120.1345507,,,,,,,,,,,,,,,,,,masks/mask_004.jpg,,,,,,,,,,,,,,,,,,,,,,,,,,,,,,,,,,,,,,,,,,,0,2,2,3,1,,,,,,,,,,,,,,,,,,,,,,,,,,,,,,,,,,,,,,,,,,,,,,
525080,001,2022-11-21_24h52.02.331,Info_measure_main_exp,2022.2.2,Win32,120.1345507,,,,,,,,,,,,,,,,,,masks/mask_005.jpg,,,,,,,,,,,,,,,,,,,,,,,,,,,,,,,,,,,,,,,,,,,0,3,3,4,1,,,,,,,,,,,,,,,,,,,,,,,,,,,,,,,,,,,,,,,,,,,,,,
525080,001,2022-11-21_24h52.02.331,Info_measure_main_exp,2022.2.2,Win32,120.1345507,,,,,,,,,,,,,,,,,,masks/mask_002.jpg,,,,,,,,,,,,,,,,,,,,,,,,,,,,,,,,,,,,,,,,,,,0,4,4,1,1,,,,,,,,,,,,,,,,,,,,,,,,,,,,,,,,,,,,,,,,,,,,,,
525080,001,2022-11-21_24h52.02.331,Info_measure_main_exp,2022.2.2,Win32,120.1345507,,,,,,,,,,,,,,,,,,masks/mask_005.jpg,,,,,,,,,,,,,,,,,,,,,,,,,,,,,,,,,,,,,,,,,,,,,,,,0,0,0,4,1,,,,,,,,,,,,,,,,,,,,,,,,,,,,,,,,,,,,,,,,,
525080,001,2022-11-21_24h52.02.331,Info_measure_main_exp,2022.2.2,Win32,120.1345507,,,,,,,,,,,,,,,,,,masks/mask_002.jpg,,,,,,,,,,,,,,,,,,,,,,,,,,,,,,,,,,,,,,,,,,,,,,,,0,1,1,1,1,,,,,,,,,,,,,,,,,,,,,,,,,,,,,,,,,,,,,,,,,
525080,001,2022-11-21_24h52.02.331,Info_measure_main_exp,2022.2.2,Win32,120.1345507,,,,,,,,,,,,,,,,,,masks/mask_001.jpg,,,,,,,,,,,,,,,,,,,,,,,,,,,,,,,,,,,,,,,,,,,,,,,,0,2,2,0,1,,,,,,,,,,,,,,,,,,,,,,,,,,,,,,,,,,,,,,,,,
525080,001,2022-11-21_24h52.02.331,Info_measure_main_exp,2022.2.2,Win32,120.1345507,,,,,,,,,,,,,,,,,,masks/mask_004.jpg,,,,,,,,,,,,,,,,,,,,,,,,,,,,,,,,,,,,,,,,,,,,,,,,0,3,3,3,1,,,,,,,,,,,,,,,,,,,,,,,,,,,,,,,,,,,,,,,,,
525080,001,2022-11-21_24h52.02.331,Info_measure_main_exp,2022.2.2,Win32,120.1345507,,,,,,,,,,,,,,,,,,masks/mask_003.jpg,,,,,,,,,,,,,,,,,,,,,,,,,,,,,,,,,,,,,,,,,,,,,,,,0,4,4,2,1,,,,,,,,,,,,,,,,,,,,,,,,,,,,,,,,,,,,,,,,,
525080,001,2022-11-21_24h52.02.331,Info_measure_main_exp,2022.2.2,Win32,120.1345507,,,,,,,,,,,,,,,,,,,,,,,,,,,,,,0,0.7785,1,,,,,,,,,,,,0,131,5,5,2178,2178,absent_patch/patch0002178.jpg,absent_patch/patch0002178.jpg,,,,,,,,,,,,,,,,,,,,-0.035185185,0.15462963,1,0,0,response7disk,7,0,0,1,0,0,center_square,0,6,6,98,1,,,,,,,,,,,,,,,,,,,,,,,
525080,001,2022-11-21_24h52.02.331,Info_measure_main_exp,2022.2.2,Win32,120.1345507,,,,,,,,,,,,,,,,,,masks/mask_003.jpg,,,,,,,,,,,,,,,,,,,,,,,,,,,,,,,,,,,,,,,,,,,0,0,0,2,1,,,,,,,,,,,,,,,,,,,,,,,,,,,,,,,,,,,,,,,,,,,,,,
525080,001,2022-11-21_24h52.02.331,Info_measure_main_exp,2022.2.2,Win32,120.1345507,,,,,,,,,,,,,,,,,,masks/mask_002.jpg,,,,,,,,,,,,,,,,,,,,,,,,,,,,,,,,,,,,,,,,,,,0,1,1,1,1,,,,,,,,,,,,,,,,,,,,,,,,,,,,,,,,,,,,,,,,,,,,,,
525080,001,2022-11-21_24h52.02.331,Info_measure_main_exp,2022.2.2,Win32,120.1345507,,,,,,,,,,,,,,,,,,masks/mask_005.jpg,,,,,,,,,,,,,,,,,,,,,,,,,,,,,,,,,,,,,,,,,,,0,2,2,4,1,,,,,,,,,,,,,,,,,,,,,,,,,,,,,,,,,,,,,,,,,,,,,,
525080,001,2022-11-21_24h52.02.331,Info_measure_main_exp,2022.2.2,Win32,120.1345507,,,,,,,,,,,,,,,,,,masks/mask_004.jpg,,,,,,,,,,,,,,,,,,,,,,,,,,,,,,,,,,,,,,,,,,,0,3,3,3,1,,,,,,,,,,,,,,,,,,,,,,,,,,,,,,,,,,,,,,,,,,,,,,
525080,001,2022-11-21_24h52.02.331,Info_measure_main_exp,2022.2.2,Win32,120.1345507,,,,,,,,,,,,,,,,,,masks/mask_001.jpg,,,,,,,,,,,,,,,,,,,,,,,,,,,,,,,,,,,,,,,,,,,0,4,4,0,1,,,,,,,,,,,,,,,,,,,,,,,,,,,,,,,,,,,,,,,,,,,,,,
525080,001,2022-11-21_24h52.02.331,Info_measure_main_exp,2022.2.2,Win32,120.1345507,,,,,,,,,,,,,,,,,,masks/mask_002.jpg,,,,,,,,,,,,,,,,,,,,,,,,,,,,,,,,,,,,,,,,,,,,,,,,0,0,0,1,1,,,,,,,,,,,,,,,,,,,,,,,,,,,,,,,,,,,,,,,,,
525080,001,2022-11-21_24h52.02.331,Info_measure_main_exp,2022.2.2,Win32,120.1345507,,,,,,,,,,,,,,,,,,masks/mask_005.jpg,,,,,,,,,,,,,,,,,,,,,,,,,,,,,,,,,,,,,,,,,,,,,,,,0,1,1,4,1,,,,,,,,,,,,,,,,,,,,,,,,,,,,,,,,,,,,,,,,,
525080,001,2022-11-21_24h52.02.331,Info_measure_main_exp,2022.2.2,Win32,120.1345507,,,,,,,,,,,,,,,,,,masks/mask_001.jpg,,,,,,,,,,,,,,,,,,,,,,,,,,,,,,,,,,,,,,,,,,,,,,,,0,2,2,0,1,,,,,,,,,,,,,,,,,,,,,,,,,,,,,,,,,,,,,,,,,
525080,001,2022-11-21_24h52.02.331,Info_measure_main_exp,2022.2.2,Win32,120.1345507,,,,,,,,,,,,,,,,,,masks/mask_004.jpg,,,,,,,,,,,,,,,,,,,,,,,,,,,,,,,,,,,,,,,,,,,,,,,,0,3,3,3,1,,,,,,,,,,,,,,,,,,,,,,,,,,,,,,,,,,,,,,,,,
525080,001,2022-11-21_24h52.02.331,Info_measure_main_exp,2022.2.2,Win32,120.1345507,,,,,,,,,,,,,,,,,,masks/mask_003.jpg,,,,,,,,,,,,,,,,,,,,,,,,,,,,,,,,,,,,,,,,,,,,,,,,0,4,4,2,1,,,,,,,,,,,,,,,,,,,,,,,,,,,,,,,,,,,,,,,,,
525080,001,2022-11-21_24h52.02.331,Info_measure_main_exp,2022.2.2,Win32,120.1345507,,,,,,,,,,,,,,,,,,,,,,,,,,,,,,7,0.5583,1,,,,,,,,,,,,0,131,5,5,1974,2250,absent_patch/patch0001974.jpg,absent_patch/patch0002250.jpg,,,,,,,,,,,,,,,,,,,,0.051851852,0.099074074,1,0,0,response1disk,8,-0.010185185,-0.008333333,1,0,0,center_square,0,7,7,55,1,,,,,,,,,,,,,,,,,,,,,,,
525080,001,2022-11-21_24h52.02.331,Info_measure_main_exp,2022.2.2,Win32,120.1345507,,,,,,,,,,,,,,,,,,masks/mask_005.jpg,,,,,,,,,,,,,,,,,,,,,,,,,,,,,,,,,,,,,,,,,,,0,0,0,4,1,,,,,,,,,,,,,,,,,,,,,,,,,,,,,,,,,,,,,,,,,,,,,,
525080,001,2022-11-21_24h52.02.331,Info_measure_main_exp,2022.2.2,Win32,120.1345507,,,,,,,,,,,,,,,,,,masks/mask_004.jpg,,,,,,,,,,,,,,,,,,,,,,,,,,,,,,,,,,,,,,,,,,,0,1,1,3,1,,,,,,,,,,,,,,,,,,,,,,,,,,,,,,,,,,,,,,,,,,,,,,
525080,001,2022-11-21_24h52.02.331,Info_measure_main_exp,2022.2.2,Win32,120.1345507,,,,,,,,,,,,,,,,,,masks/mask_003.jpg,,,,,,,,,,,,,,,,,,,,,,,,,,,,,,,,,,,,,,,,,,,0,2,2,2,1,,,,,,,,,,,,,,,,,,,,,,,,,,,,,,,,,,,,,,,,,,,,,,
525080,001,2022-11-21_24h52.02.331,Info_measure_main_exp,2022.2.2,Win32,120.1345507,,,,,,,,,,,,,,,,,,masks/mask_001.jpg,,,,,,,,,,,,,,,,,,,,,,,,,,,,,,,,,,,,,,,,,,,0,3,3,0,1,,,,,,,,,,,,,,,,,,,,,,,,,,,,,,,,,,,,,,,,,,,,,,
525080,001,2022-11-21_24h52.02.331,Info_measure_main_exp,2022.2.2,Win32,120.1345507,,,,,,,,,,,,,,,,,,masks/mask_002.jpg,,,,,,,,,,,,,,,,,,,,,,,,,,,,,,,,,,,,,,,,,,,0,4,4,1,1,,,,,,,,,,,,,,,,,,,,,,,,,,,,,,,,,,,,,,,,,,,,,,
525080,001,2022-11-21_24h52.02.331,Info_measure_main_exp,2022.2.2,Win32,120.1345507,,,,,,,,,,,,,,,,,,masks/mask_001.jpg,,,,,,,,,,,,,,,,,,,,,,,,,,,,,,,,,,,,,,,,,,,,,,,,0,0,0,0,1,,,,,,,,,,,,,,,,,,,,,,,,,,,,,,,,,,,,,,,,,
525080,001,2022-11-21_24h52.02.331,Info_measure_main_exp,2022.2.2,Win32,120.1345507,,,,,,,,,,,,,,,,,,masks/mask_003.jpg,,,,,,,,,,,,,,,,,,,,,,,,,,,,,,,,,,,,,,,,,,,,,,,,0,1,1,2,1,,,,,,,,,,,,,,,,,,,,,,,,,,,,,,,,,,,,,,,,,
525080,001,2022-11-21_24h52.02.331,Info_measure_main_exp,2022.2.2,Win32,120.1345507,,,,,,,,,,,,,,,,,,masks/mask_004.jpg,,,,,,,,,,,,,,,,,,,,,,,,,,,,,,,,,,,,,,,,,,,,,,,,0,2,2,3,1,,,,,,,,,,,,,,,,,,,,,,,,,,,,,,,,,,,,,,,,,
525080,001,2022-11-21_24h52.02.331,Info_measure_main_exp,2022.2.2,Win32,120.1345507,,,,,,,,,,,,,,,,,,masks/mask_005.jpg,,,,,,,,,,,,,,,,,,,,,,,,,,,,,,,,,,,,,,,,,,,,,,,,0,3,3,4,1,,,,,,,,,,,,,,,,,,,,,,,,,,,,,,,,,,,,,,,,,
525080,001,2022-11-21_24h52.02.331,Info_measure_main_exp,2022.2.2,Win32,120.1345507,,,,,,,,,,,,,,,,,,masks/mask_002.jpg,,,,,,,,,,,,,,,,,,,,,,,,,,,,,,,,,,,,,,,,,,,,,,,,0,4,4,1,1,,,,,,,,,,,,,,,,,,,,,,,,,,,,,,,,,,,,,,,,,
525080,001,2022-11-21_24h52.02.331,Info_measure_main_exp,2022.2.2,Win32,120.1345507,,,,,,,,,,,,,,,,,,,,,,,,,,,,,,0,0.6165,1,,,,,,,,,,,,0,131,5,5,2082,2238,absent_patch/patch0002082.jpg,absent_patch/patch0002238.jpg,,,,,,,,,,,,,,,,,,,,-0.019444444,0.042592593,1,0,0,response7disk,9,-0.003703704,-0.010185185,1,0,0,center_square,0,8,8,22,1,,,,,,,,,,,,,,,,,,,,,,,
525080,001,2022-11-21_24h52.02.331,Info_measure_main_exp,2022.2.2,Win32,120.1345507,,,,,,,,,,,,,,,,,,masks/mask_001.jpg,,,,,,,,,,,,,,,,,,,,,,,,,,,,,,,,,,,,,,,,,,,0,0,0,0,1,,,,,,,,,,,,,,,,,,,,,,,,,,,,,,,,,,,,,,,,,,,,,,
525080,001,2022-11-21_24h52.02.331,Info_measure_main_exp,2022.2.2,Win32,120.1345507,,,,,,,,,,,,,,,,,,masks/mask_004.jpg,,,,,,,,,,,,,,,,,,,,,,,,,,,,,,,,,,,,,,,,,,,0,1,1,3,1,,,,,,,,,,,,,,,,,,,,,,,,,,,,,,,,,,,,,,,,,,,,,,
525080,001,2022-11-21_24h52.02.331,Info_measure_main_exp,2022.2.2,Win32,120.1345507,,,,,,,,,,,,,,,,,,masks/mask_002.jpg,,,,,,,,,,,,,,,,,,,,,,,,,,,,,,,,,,,,,,,,,,,0,2,2,1,1,,,,,,,,,,,,,,,,,,,,,,,,,,,,,,,,,,,,,,,,,,,,,,
525080,001,2022-11-21_24h52.02.331,Info_measure_main_exp,2022.2.2,Win32,120.1345507,,,,,,,,,,,,,,,,,,masks/mask_003.jpg,,,,,,,,,,,,,,,,,,,,,,,,,,,,,,,,,,,,,,,,,,,0,3,3,2,1,,,,,,,,,,,,,,,,,,,,,,,,,,,,,,,,,,,,,,,,,,,,,,
525080,001,2022-11-21_24h52.02.331,Info_measure_main_exp,2022.2.2,Win32,120.1345507,,,,,,,,,,,,,,,,,,masks/mask_005.jpg,,,,,,,,,,,,,,,,,,,,,,,,,,,,,,,,,,,,,,,,,,,0,4,4,4,1,,,,,,,,,,,,,,,,,,,,,,,,,,,,,,,,,,,,,,,,,,,,,,
525080,001,2022-11-21_24h52.02.331,Info_measure_main_exp,2022.2.2,Win32,120.1345507,,,,,,,,,,,,,,,,,,masks/mask_002.jpg,,,,,,,,,,,,,,,,,,,,,,,,,,,,,,,,,,,,,,,,,,,,,,,,0,0,0,1,1,,,,,,,,,,,,,,,,,,,,,,,,,,,,,,,,,,,,,,,,,
525080,001,2022-11-21_24h52.02.331,Info_measure_main_exp,2022.2.2,Win32,120.1345507,,,,,,,,,,,,,,,,,,masks/mask_003.jpg,,,,,,,,,,,,,,,,,,,,,,,,,,,,,,,,,,,,,,,,,,,,,,,,0,1,1,2,1,,,,,,,,,,,,,,,,,,,,,,,,,,,,,,,,,,,,,,,,,
525080,001,2022-11-21_24h52.02.331,Info_measure_main_exp,2022.2.2,Win32,120.1345507,,,,,,,,,,,,,,,,,,masks/mask_001.jpg,,,,,,,,,,,,,,,,,,,,,,,,,,,,,,,,,,,,,,,,,,,,,,,,0,2,2,0,1,,,,,,,,,,,,,,,,,,,,,,,,,,,,,,,,,,,,,,,,,
525080,001,2022-11-21_24h52.02.331,Info_measure_main_exp,2022.2.2,Win32,120.1345507,,,,,,,,,,,,,,,,,,masks/mask_004.jpg,,,,,,,,,,,,,,,,,,,,,,,,,,,,,,,,,,,,,,,,,,,,,,,,0,3,3,3,1,,,,,,,,,,,,,,,,,,,,,,,,,,,,,,,,,,,,,,,,,
525080,001,2022-11-21_24h52.02.331,Info_measure_main_exp,2022.2.2,Win32,120.1345507,,,,,,,,,,,,,,,,,,masks/mask_005.jpg,,,,,,,,,,,,,,,,,,,,,,,,,,,,,,,,,,,,,,,,,,,,,,,,0,4,4,4,1,,,,,,,,,,,,,,,,,,,,,,,,,,,,,,,,,,,,,,,,,
525080,001,2022-11-21_24h52.02.331,Info_measure_main_exp,2022.2.2,Win32,120.1345507,,,,,,,,,,,,,,,,,,,,,,,,,,,,,,7,26.4325,1,,,,,,,,,,,,0,131,5,5,2082,2154,absent_patch/patch0002082.jpg,absent_patch/patch0002154.jpg,,,,,,,,,,,,,,,,,,,,0.09537037,0.123148148,1,0,0,response1disk,10,-0.009259259,-0.010185185,1,0,0,center_square,0,9,9,33,1,,,,,,,,,,,,,,,,,,,,,,,
525080,001,2022-11-21_24h52.02.331,Info_measure_main_exp,2022.2.2,Win32,120.1345507,,,,,,,,,,,,,,,,,,masks/mask_001.jpg,,,,,,,,,,,,,,,,,,,,,,,,,,,,,,,,,,,,,,,,,,,0,0,0,0,1,,,,,,,,,,,,,,,,,,,,,,,,,,,,,,,,,,,,,,,,,,,,,,
525080,001,2022-11-21_24h52.02.331,Info_measure_main_exp,2022.2.2,Win32,120.1345507,,,,,,,,,,,,,,,,,,masks/mask_003.jpg,,,,,,,,,,,,,,,,,,,,,,,,,,,,,,,,,,,,,,,,,,,0,1,1,2,1,,,,,,,,,,,,,,,,,,,,,,,,,,,,,,,,,,,,,,,,,,,,,,
525080,001,2022-11-21_24h52.02.331,Info_measure_main_exp,2022.2.2,Win32,120.1345507,,,,,,,,,,,,,,,,,,masks/mask_004.jpg,,,,,,,,,,,,,,,,,,,,,,,,,,,,,,,,,,,,,,,,,,,0,2,2,3,1,,,,,,,,,,,,,,,,,,,,,,,,,,,,,,,,,,,,,,,,,,,,,,
525080,001,2022-11-21_24h52.02.331,Info_measure_main_exp,2022.2.2,Win32,120.1345507,,,,,,,,,,,,,,,,,,masks/mask_002.jpg,,,,,,,,,,,,,,,,,,,,,,,,,,,,,,,,,,,,,,,,,,,0,3,3,1,1,,,,,,,,,,,,,,,,,,,,,,,,,,,,,,,,,,,,,,,,,,,,,,
525080,001,2022-11-21_24h52.02.331,Info_measure_main_exp,2022.2.2,Win32,120.1345507,,,,,,,,,,,,,,,,,,masks/mask_005.jpg,,,,,,,,,,,,,,,,,,,,,,,,,,,,,,,,,,,,,,,,,,,0,4,4,4,1,,,,,,,,,,,,,,,,,,,,,,,,,,,,,,,,,,,,,,,,,,,,,,
525080,001,2022-11-21_24h52.02.331,Info_measure_main_exp,2022.2.2,Win32,120.1345507,,,,,,,,,,,,,,,,,,masks/mask_005.jpg,,,,,,,,,,,,,,,,,,,,,,,,,,,,,,,,,,,,,,,,,,,,,,,,0,0,0,4,1,,,,,,,,,,,,,,,,,,,,,,,,,,,,,,,,,,,,,,,,,
525080,001,2022-11-21_24h52.02.331,Info_measure_main_exp,2022.2.2,Win32,120.1345507,,,,,,,,,,,,,,,,,,masks/mask_002.jpg,,,,,,,,,,,,,,,,,,,,,,,,,,,,,,,,,,,,,,,,,,,,,,,,0,1,1,1,1,,,,,,,,,,,,,,,,,,,,,,,,,,,,,,,,,,,,,,,,,
525080,001,2022-11-21_24h52.02.331,Info_measure_main_exp,2022.2.2,Win32,120.1345507,,,,,,,,,,,,,,,,,,masks/mask_001.jpg,,,,,,,,,,,,,,,,,,,,,,,,,,,,,,,,,,,,,,,,,,,,,,,,0,2,2,0,1,,,,,,,,,,,,,,,,,,,,,,,,,,,,,,,,,,,,,,,,,
525080,001,2022-11-21_24h52.02.331,Info_measure_main_exp,2022.2.2,Win32,120.1345507,,,,,,,,,,,,,,,,,,masks/mask_003.jpg,,,,,,,,,,,,,,,,,,,,,,,,,,,,,,,,,,,,,,,,,,,,,,,,0,3,3,2,1,,,,,,,,,,,,,,,,,,,,,,,,,,,,,,,,,,,,,,,,,
525080,001,2022-11-21_24h52.02.331,Info_measure_main_exp,2022.2.2,Win32,120.1345507,,,,,,,,,,,,,,,,,,masks/mask_004.jpg,,,,,,,,,,,,,,,,,,,,,,,,,,,,,,,,,,,,,,,,,,,,,,,,0,4,4,3,1,,,,,,,,,,,,,,,,,,,,,,,,,,,,,,,,,,,,,,,,,
525080,001,2022-11-21_24h52.02.331,Info_measure_main_exp,2022.2.2,Win32,120.1345507,,,,,,,,,,,,,,,,,,,,,,,,,,,,,,2,3.2629,1,,,,,,,,,,,,0,131,5,5,2274,2154,absent_patch/patch0002274.jpg,absent_patch/patch0002154.jpg,,,,,,,,,,,,,,,,,,,,-0.152777778,-0.051851852,1,0,0,response5disk,11,0.003703704,-0.000925926,1,0,0,center_square,0,10,10,23,1,,,,,,,,,,,,,,,,,,,,,,,
525080,001,2022-11-21_24h52.02.331,Info_measure_main_exp,2022.2.2,Win32,120.1345507,,,,,,,,,,,,,,,,,,masks/mask_005.jpg,,,,,,,,,,,,,,,,,,,,,,,,,,,,,,,,,,,,,,,,,,,0,0,0,4,1,,,,,,,,,,,,,,,,,,,,,,,,,,,,,,,,,,,,,,,,,,,,,,
525080,001,2022-11-21_24h52.02.331,Info_measure_main_exp,2022.2.2,Win32,120.1345507,,,,,,,,,,,,,,,,,,masks/mask_002.jpg,,,,,,,,,,,,,,,,,,,,,,,,,,,,,,,,,,,,,,,,,,,0,1,1,1,1,,,,,,,,,,,,,,,,,,,,,,,,,,,,,,,,,,,,,,,,,,,,,,
525080,001,2022-11-21_24h52.02.331,Info_measure_main_exp,2022.2.2,Win32,120.1345507,,,,,,,,,,,,,,,,,,masks/mask_001.jpg,,,,,,,,,,,,,,,,,,,,,,,,,,,,,,,,,,,,,,,,,,,0,2,2,0,1,,,,,,,,,,,,,,,,,,,,,,,,,,,,,,,,,,,,,,,,,,,,,,
525080,001,2022-11-21_24h52.02.331,Info_measure_main_exp,2022.2.2,Win32,120.1345507,,,,,,,,,,,,,,,,,,masks/mask_003.jpg,,,,,,,,,,,,,,,,,,,,,,,,,,,,,,,,,,,,,,,,,,,0,3,3,2,1,,,,,,,,,,,,,,,,,,,,,,,,,,,,,,,,,,,,,,,,,,,,,,
525080,001,2022-11-21_24h52.02.331,Info_measure_main_exp,2022.2.2,Win32,120.1345507,,,,,,,,,,,,,,,,,,masks/mask_004.jpg,,,,,,,,,,,,,,,,,,,,,,,,,,,,,,,,,,,,,,,,,,,0,4,4,3,1,,,,,,,,,,,,,,,,,,,,,,,,,,,,,,,,,,,,,,,,,,,,,,
525080,001,2022-11-21_24h52.02.331,Info_measure_main_exp,2022.2.2,Win32,120.1345507,,,,,,,,,,,,,,,,,,masks/mask_003.jpg,,,,,,,,,,,,,,,,,,,,,,,,,,,,,,,,,,,,,,,,,,,,,,,,0,0,0,2,1,,,,,,,,,,,,,,,,,,,,,,,,,,,,,,,,,,,,,,,,,
525080,001,2022-11-21_24h52.02.331,Info_measure_main_exp,2022.2.2,Win32,120.1345507,,,,,,,,,,,,,,,,,,masks/mask_005.jpg,,,,,,,,,,,,,,,,,,,,,,,,,,,,,,,,,,,,,,,,,,,,,,,,0,1,1,4,1,,,,,,,,,,,,,,,,,,,,,,,,,,,,,,,,,,,,,,,,,
525080,001,2022-11-21_24h52.02.331,Info_measure_main_exp,2022.2.2,Win32,120.1345507,,,,,,,,,,,,,,,,,,masks/mask_002.jpg,,,,,,,,,,,,,,,,,,,,,,,,,,,,,,,,,,,,,,,,,,,,,,,,0,2,2,1,1,,,,,,,,,,,,,,,,,,,,,,,,,,,,,,,,,,,,,,,,,
525080,001,2022-11-21_24h52.02.331,Info_measure_main_exp,2022.2.2,Win32,120.1345507,,,,,,,,,,,,,,,,,,masks/mask_001.jpg,,,,,,,,,,,,,,,,,,,,,,,,,,,,,,,,,,,,,,,,,,,,,,,,0,3,3,0,1,,,,,,,,,,,,,,,,,,,,,,,,,,,,,,,,,,,,,,,,,
525080,001,2022-11-21_24h52.02.331,Info_measure_main_exp,2022.2.2,Win32,120.1345507,,,,,,,,,,,,,,,,,,masks/mask_004.jpg,,,,,,,,,,,,,,,,,,,,,,,,,,,,,,,,,,,,,,,,,,,,,,,,0,4,4,3,1,,,,,,,,,,,,,,,,,,,,,,,,,,,,,,,,,,,,,,,,,
525080,001,2022-11-21_24h52.02.331,Info_measure_main_exp,2022.2.2,Win32,120.1345507,,,,,,,,,,,,,,,,,,,,,,,,,,,,,,5,2.4914,1,,,,,,,,,,,,0,131,5,5,2082,2298,absent_patch/patch0002082.jpg,absent_patch/patch0002298.jpg,,,,,,,,,,,,,,,,,,,,0.127777778,-0.052777778,1,0,0,response3disk,12,0,0.006481481,1,0,0,center_square,0,11,11,107,1,,,,,,,,,,,,,,,,,,,,,,,
525080,001,2022-11-21_24h52.02.331,Info_measure_main_exp,2022.2.2,Win32,120.1345507,,,,,,,,,,,,,,,,,,masks/mask_003.jpg,,,,,,,,,,,,,,,,,,,,,,,,,,,,,,,,,,,,,,,,,,,0,0,0,2,1,,,,,,,,,,,,,,,,,,,,,,,,,,,,,,,,,,,,,,,,,,,,,,
525080,001,2022-11-21_24h52.02.331,Info_measure_main_exp,2022.2.2,Win32,120.1345507,,,,,,,,,,,,,,,,,,masks/mask_005.jpg,,,,,,,,,,,,,,,,,,,,,,,,,,,,,,,,,,,,,,,,,,,0,1,1,4,1,,,,,,,,,,,,,,,,,,,,,,,,,,,,,,,,,,,,,,,,,,,,,,
525080,001,2022-11-21_24h52.02.331,Info_measure_main_exp,2022.2.2,Win32,120.1345507,,,,,,,,,,,,,,,,,,masks/mask_001.jpg,,,,,,,,,,,,,,,,,,,,,,,,,,,,,,,,,,,,,,,,,,,0,2,2,0,1,,,,,,,,,,,,,,,,,,,,,,,,,,,,,,,,,,,,,,,,,,,,,,
525080,001,2022-11-21_24h52.02.331,Info_measure_main_exp,2022.2.2,Win32,120.1345507,,,,,,,,,,,,,,,,,,masks/mask_004.jpg,,,,,,,,,,,,,,,,,,,,,,,,,,,,,,,,,,,,,,,,,,,0,3,3,3,1,,,,,,,,,,,,,,,,,,,,,,,,,,,,,,,,,,,,,,,,,,,,,,
525080,001,2022-11-21_24h52.02.331,Info_measure_main_exp,2022.2.2,Win32,120.1345507,,,,,,,,,,,,,,,,,,masks/mask_002.jpg,,,,,,,,,,,,,,,,,,,,,,,,,,,,,,,,,,,,,,,,,,,0,4,4,1,1,,,,,,,,,,,,,,,,,,,,,,,,,,,,,,,,,,,,,,,,,,,,,,
525080,001,2022-11-21_24h52.02.331,Info_measure_main_exp,2022.2.2,Win32,120.1345507,,,,,,,,,,,,,,,,,,masks/mask_005.jpg,,,,,,,,,,,,,,,,,,,,,,,,,,,,,,,,,,,,,,,,,,,,,,,,0,0,0,4,1,,,,,,,,,,,,,,,,,,,,,,,,,,,,,,,,,,,,,,,,,
525080,001,2022-11-21_24h52.02.331,Info_measure_main_exp,2022.2.2,Win32,120.1345507,,,,,,,,,,,,,,,,,,masks/mask_004.jpg,,,,,,,,,,,,,,,,,,,,,,,,,,,,,,,,,,,,,,,,,,,,,,,,0,1,1,3,1,,,,,,,,,,,,,,,,,,,,,,,,,,,,,,,,,,,,,,,,,
525080,001,2022-11-21_24h52.02.331,Info_measure_main_exp,2022.2.2,Win32,120.1345507,,,,,,,,,,,,,,,,,,masks/mask_003.jpg,,,,,,,,,,,,,,,,,,,,,,,,,,,,,,,,,,,,,,,,,,,,,,,,0,2,2,2,1,,,,,,,,,,,,,,,,,,,,,,,,,,,,,,,,,,,,,,,,,
525080,001,2022-11-21_24h52.02.331,Info_measure_main_exp,2022.2.2,Win32,120.1345507,,,,,,,,,,,,,,,,,,masks/mask_001.jpg,,,,,,,,,,,,,,,,,,,,,,,,,,,,,,,,,,,,,,,,,,,,,,,,0,3,3,0,1,,,,,,,,,,,,,,,,,,,,,,,,,,,,,,,,,,,,,,,,,
525080,001,2022-11-21_24h52.02.331,Info_measure_main_exp,2022.2.2,Win32,120.1345507,,,,,,,,,,,,,,,,,,masks/mask_002.jpg,,,,,,,,,,,,,,,,,,,,,,,,,,,,,,,,,,,,,,,,,,,,,,,,0,4,4,1,1,,,,,,,,,,,,,,,,,,,,,,,,,,,,,,,,,,,,,,,,,
525080,001,2022-11-21_24h52.02.331,Info_measure_main_exp,2022.2.2,Win32,120.1345507,,,,,,,,,,,,,,,,,,,,,,,,,,,,,,1,3.2945,1,,,,,,,,,,,,0,131,5,5,2274,2166,absent_patch/patch0002274.jpg,absent_patch/patch0002166.jpg,,,,,,,,,,,,,,,,,,,,-0.123148148,0.068518519,1,0,0,response7disk,13,-0.001851852,-0.002777778,1,0,0,center_square,0,12,12,78,1,,,,,,,,,,,,,,,,,,,,,,,
525080,001,2022-11-21_24h52.02.331,Info_measure_main_exp,2022.2.2,Win32,120.1345507,,,,,,,,,,,,,,,,,,masks/mask_004.jpg,,,,,,,,,,,,,,,,,,,,,,,,,,,,,,,,,,,,,,,,,,,0,0,0,3,1,,,,,,,,,,,,,,,,,,,,,,,,,,,,,,,,,,,,,,,,,,,,,,
525080,001,2022-11-21_24h52.02.331,Info_measure_main_exp,2022.2.2,Win32,120.1345507,,,,,,,,,,,,,,,,,,masks/mask_002.jpg,,,,,,,,,,,,,,,,,,,,,,,,,,,,,,,,,,,,,,,,,,,0,1,1,1,1,,,,,,,,,,,,,,,,,,,,,,,,,,,,,,,,,,,,,,,,,,,,,,
525080,001,2022-11-21_24h52.02.331,Info_measure_main_exp,2022.2.2,Win32,120.1345507,,,,,,,,,,,,,,,,,,masks/mask_003.jpg,,,,,,,,,,,,,,,,,,,,,,,,,,,,,,,,,,,,,,,,,,,0,2,2,2,1,,,,,,,,,,,,,,,,,,,,,,,,,,,,,,,,,,,,,,,,,,,,,,
525080,001,2022-11-21_24h52.02.331,Info_measure_main_exp,2022.2.2,Win32,120.1345507,,,,,,,,,,,,,,,,,,masks/mask_005.jpg,,,,,,,,,,,,,,,,,,,,,,,,,,,,,,,,,,,,,,,,,,,0,3,3,4,1,,,,,,,,,,,,,,,,,,,,,,,,,,,,,,,,,,,,,,,,,,,,,,
525080,001,2022-11-21_24h52.02.331,Info_measure_main_exp,2022.2.2,Win32,120.1345507,,,,,,,,,,,,,,,,,,masks/mask_001.jpg,,,,,,,,,,,,,,,,,,,,,,,,,,,,,,,,,,,,,,,,,,,0,4,4,0,1,,,,,,,,,,,,,,,,,,,,,,,,,,,,,,,,,,,,,,,,,,,,,,
525080,001,2022-11-21_24h52.02.331,Info_measure_main_exp,2022.2.2,Win32,120.1345507,,,,,,,,,,,,,,,,,,masks/mask_001.jpg,,,,,,,,,,,,,,,,,,,,,,,,,,,,,,,,,,,,,,,,,,,,,,,,0,0,0,0,1,,,,,,,,,,,,,,,,,,,,,,,,,,,,,,,,,,,,,,,,,
525080,001,2022-11-21_24h52.02.331,Info_measure_main_exp,2022.2.2,Win32,120.1345507,,,,,,,,,,,,,,,,,,masks/mask_002.jpg,,,,,,,,,,,,,,,,,,,,,,,,,,,,,,,,,,,,,,,,,,,,,,,,0,1,1,1,1,,,,,,,,,,,,,,,,,,,,,,,,,,,,,,,,,,,,,,,,,
525080,001,2022-11-21_24h52.02.331,Info_measure_main_exp,2022.2.2,Win32,120.1345507,,,,,,,,,,,,,,,,,,masks/mask_004.jpg,,,,,,,,,,,,,,,,,,,,,,,,,,,,,,,,,,,,,,,,,,,,,,,,0,2,2,3,1,,,,,,,,,,,,,,,,,,,,,,,,,,,,,,,,,,,,,,,,,
525080,001,2022-11-21_24h52.02.331,Info_measure_main_exp,2022.2.2,Win32,120.1345507,,,,,,,,,,,,,,,,,,masks/mask_005.jpg,,,,,,,,,,,,,,,,,,,,,,,,,,,,,,,,,,,,,,,,,,,,,,,,0,3,3,4,1,,,,,,,,,,,,,,,,,,,,,,,,,,,,,,,,,,,,,,,,,
525080,001,2022-11-21_24h52.02.331,Info_measure_main_exp,2022.2.2,Win32,120.1345507,,,,,,,,,,,,,,,,,,masks/mask_003.jpg,,,,,,,,,,,,,,,,,,,,,,,,,,,,,,,,,,,,,,,,,,,,,,,,0,4,4,2,1,,,,,,,,,,,,,,,,,,,,,,,,,,,,,,,,,,,,,,,,,
525080,001,2022-11-21_24h52.02.331,Info_measure_main_exp,2022.2.2,Win32,120.1345507,,,,,,,,,,,,,,,,,,,,,,,,,,,,,,7,0.6806,1,,,,,,,,,,,,0,131,5,5,2274,1950,absent_patch/patch0002274.jpg,absent_patch/patch0001950.jpg,,,,,,,,,,,,,,,,,,,,0.044444444,0.109259259,1,0,0,response1disk,14,0.003703704,-0.003703704,1,0,0,center_square,0,13,13,10,1,,,,,,,,,,,,,,,,,,,,,,,
525080,001,2022-11-21_24h52.02.331,Info_measure_main_exp,2022.2.2,Win32,120.1345507,,,,,,,,,,,,,,,,,,masks/mask_002.jpg,,,,,,,,,,,,,,,,,,,,,,,,,,,,,,,,,,,,,,,,,,,0,0,0,1,1,,,,,,,,,,,,,,,,,,,,,,,,,,,,,,,,,,,,,,,,,,,,,,
525080,001,2022-11-21_24h52.02.331,Info_measure_main_exp,2022.2.2,Win32,120.1345507,,,,,,,,,,,,,,,,,,masks/mask_004.jpg,,,,,,,,,,,,,,,,,,,,,,,,,,,,,,,,,,,,,,,,,,,0,1,1,3,1,,,,,,,,,,,,,,,,,,,,,,,,,,,,,,,,,,,,,,,,,,,,,,
525080,001,2022-11-21_24h52.02.331,Info_measure_main_exp,2022.2.2,Win32,120.1345507,,,,,,,,,,,,,,,,,,masks/mask_005.jpg,,,,,,,,,,,,,,,,,,,,,,,,,,,,,,,,,,,,,,,,,,,0,2,2,4,1,,,,,,,,,,,,,,,,,,,,,,,,,,,,,,,,,,,,,,,,,,,,,,
525080,001,2022-11-21_24h52.02.331,Info_measure_main_exp,2022.2.2,Win32,120.1345507,,,,,,,,,,,,,,,,,,masks/mask_001.jpg,,,,,,,,,,,,,,,,,,,,,,,,,,,,,,,,,,,,,,,,,,,0,3,3,0,1,,,,,,,,,,,,,,,,,,,,,,,,,,,,,,,,,,,,,,,,,,,,,,
525080,001,2022-11-21_24h52.02.331,Info_measure_main_exp,2022.2.2,Win32,120.1345507,,,,,,,,,,,,,,,,,,masks/mask_003.jpg,,,,,,,,,,,,,,,,,,,,,,,,,,,,,,,,,,,,,,,,,,,0,4,4,2,1,,,,,,,,,,,,,,,,,,,,,,,,,,,,,,,,,,,,,,,,,,,,,,
525080,001,2022-11-21_24h52.02.331,Info_measure_main_exp,2022.2.2,Win32,120.1345507,,,,,,,,,,,,,,,,,,masks/mask_001.jpg,,,,,,,,,,,,,,,,,,,,,,,,,,,,,,,,,,,,,,,,,,,,,,,,0,0,0,0,1,,,,,,,,,,,,,,,,,,,,,,,,,,,,,,,,,,,,,,,,,
525080,001,2022-11-21_24h52.02.331,Info_measure_main_exp,2022.2.2,Win32,120.1345507,,,,,,,,,,,,,,,,,,masks/mask_004.jpg,,,,,,,,,,,,,,,,,,,,,,,,,,,,,,,,,,,,,,,,,,,,,,,,0,1,1,3,1,,,,,,,,,,,,,,,,,,,,,,,,,,,,,,,,,,,,,,,,,
525080,001,2022-11-21_24h52.02.331,Info_measure_main_exp,2022.2.2,Win32,120.1345507,,,,,,,,,,,,,,,,,,masks/mask_002.jpg,,,,,,,,,,,,,,,,,,,,,,,,,,,,,,,,,,,,,,,,,,,,,,,,0,2,2,1,1,,,,,,,,,,,,,,,,,,,,,,,,,,,,,,,,,,,,,,,,,
525080,001,2022-11-21_24h52.02.331,Info_measure_main_exp,2022.2.2,Win32,120.1345507,,,,,,,,,,,,,,,,,,masks/mask_005.jpg,,,,,,,,,,,,,,,,,,,,,,,,,,,,,,,,,,,,,,,,,,,,,,,,0,3,3,4,1,,,,,,,,,,,,,,,,,,,,,,,,,,,,,,,,,,,,,,,,,
525080,001,2022-11-21_24h52.02.331,Info_measure_main_exp,2022.2.2,Win32,120.1345507,,,,,,,,,,,,,,,,,,masks/mask_003.jpg,,,,,,,,,,,,,,,,,,,,,,,,,,,,,,,,,,,,,,,,,,,,,,,,0,4,4,2,1,,,,,,,,,,,,,,,,,,,,,,,,,,,,,,,,,,,,,,,,,
525080,001,2022-11-21_24h52.02.331,Info_measure_main_exp,2022.2.2,Win32,120.1345507,,,,,,,,,,,,,,,,,,,,,,,,,,,,,,5,1.9246,1,,,,,,,,,,,,0,131,5,5,1986,2142,absent_patch/patch0001986.jpg,absent_patch/patch0002142.jpg,,,,,,,,,,,,,,,,,,,,0.115740741,-0.030555556,1,0,0,response3disk,15,0.005555556,0.016666667,1,0,0,center_square,0,14,14,76,1,,,,,,,,,,,,,,,,,,,,,,,
525080,001,2022-11-21_24h52.02.331,Info_measure_main_exp,2022.2.2,Win32,120.1345507,,,,,,,,,,,,,,,,,,masks/mask_003.jpg,,,,,,,,,,,,,,,,,,,,,,,,,,,,,,,,,,,,,,,,,,,0,0,0,2,1,,,,,,,,,,,,,,,,,,,,,,,,,,,,,,,,,,,,,,,,,,,,,,
525080,001,2022-11-21_24h52.02.331,Info_measure_main_exp,2022.2.2,Win32,120.1345507,,,,,,,,,,,,,,,,,,masks/mask_004.jpg,,,,,,,,,,,,,,,,,,,,,,,,,,,,,,,,,,,,,,,,,,,0,1,1,3,1,,,,,,,,,,,,,,,,,,,,,,,,,,,,,,,,,,,,,,,,,,,,,,
525080,001,2022-11-21_24h52.02.331,Info_measure_main_exp,2022.2.2,Win32,120.1345507,,,,,,,,,,,,,,,,,,masks/mask_002.jpg,,,,,,,,,,,,,,,,,,,,,,,,,,,,,,,,,,,,,,,,,,,0,2,2,1,1,,,,,,,,,,,,,,,,,,,,,,,,,,,,,,,,,,,,,,,,,,,,,,
525080,001,2022-11-21_24h52.02.331,Info_measure_main_exp,2022.2.2,Win32,120.1345507,,,,,,,,,,,,,,,,,,masks/mask_005.jpg,,,,,,,,,,,,,,,,,,,,,,,,,,,,,,,,,,,,,,,,,,,0,3,3,4,1,,,,,,,,,,,,,,,,,,,,,,,,,,,,,,,,,,,,,,,,,,,,,,
525080,001,2022-11-21_24h52.02.331,Info_measure_main_exp,2022.2.2,Win32,120.1345507,,,,,,,,,,,,,,,,,,masks/mask_001.jpg,,,,,,,,,,,,,,,,,,,,,,,,,,,,,,,,,,,,,,,,,,,0,4,4,0,1,,,,,,,,,,,,,,,,,,,,,,,,,,,,,,,,,,,,,,,,,,,,,,
525080,001,2022-11-21_24h52.02.331,Info_measure_main_exp,2022.2.2,Win32,120.1345507,,,,,,,,,,,,,,,,,,masks/mask_005.jpg,,,,,,,,,,,,,,,,,,,,,,,,,,,,,,,,,,,,,,,,,,,,,,,,0,0,0,4,1,,,,,,,,,,,,,,,,,,,,,,,,,,,,,,,,,,,,,,,,,
525080,001,2022-11-21_24h52.02.331,Info_measure_main_exp,2022.2.2,Win32,120.1345507,,,,,,,,,,,,,,,,,,masks/mask_003.jpg,,,,,,,,,,,,,,,,,,,,,,,,,,,,,,,,,,,,,,,,,,,,,,,,0,1,1,2,1,,,,,,,,,,,,,,,,,,,,,,,,,,,,,,,,,,,,,,,,,
525080,001,2022-11-21_24h52.02.331,Info_measure_main_exp,2022.2.2,Win32,120.1345507,,,,,,,,,,,,,,,,,,masks/mask_004.jpg,,,,,,,,,,,,,,,,,,,,,,,,,,,,,,,,,,,,,,,,,,,,,,,,0,2,2,3,1,,,,,,,,,,,,,,,,,,,,,,,,,,,,,,,,,,,,,,,,,
525080,001,2022-11-21_24h52.02.331,Info_measure_main_exp,2022.2.2,Win32,120.1345507,,,,,,,,,,,,,,,,,,masks/mask_001.jpg,,,,,,,,,,,,,,,,,,,,,,,,,,,,,,,,,,,,,,,,,,,,,,,,0,3,3,0,1,,,,,,,,,,,,,,,,,,,,,,,,,,,,,,,,,,,,,,,,,
525080,001,2022-11-21_24h52.02.331,Info_measure_main_exp,2022.2.2,Win32,120.1345507,,,,,,,,,,,,,,,,,,masks/mask_002.jpg,,,,,,,,,,,,,,,,,,,,,,,,,,,,,,,,,,,,,,,,,,,,,,,,0,4,4,1,1,,,,,,,,,,,,,,,,,,,,,,,,,,,,,,,,,,,,,,,,,
525080,001,2022-11-21_24h52.02.331,Info_measure_main_exp,2022.2.2,Win32,120.1345507,,,,,,,,,,,,,,,,,,,,,,,,,,,,,,7,1.1244,1,,,,,,,,,,,,0,131,5,5,2298,2274,absent_patch/patch0002298.jpg,absent_patch/patch0002274.jpg,,,,,,,,,,,,,,,,,,,,0.090740741,0.178703704,1,0,0,response1disk,16,0.003703704,0.008333333,1,0,0,center_square,0,15,15,1,1,,,,,,,,,,,,,,,,,,,,,,,
525080,001,2022-11-21_24h52.02.331,Info_measure_main_exp,2022.2.2,Win32,120.1345507,,,,,,,,,,,,,,,,,,masks/mask_003.jpg,,,,,,,,,,,,,,,,,,,,,,,,,,,,,,,,,,,,,,,,,,,0,0,0,2,1,,,,,,,,,,,,,,,,,,,,,,,,,,,,,,,,,,,,,,,,,,,,,,
525080,001,2022-11-21_24h52.02.331,Info_measure_main_exp,2022.2.2,Win32,120.1345507,,,,,,,,,,,,,,,,,,masks/mask_004.jpg,,,,,,,,,,,,,,,,,,,,,,,,,,,,,,,,,,,,,,,,,,,0,1,1,3,1,,,,,,,,,,,,,,,,,,,,,,,,,,,,,,,,,,,,,,,,,,,,,,
525080,001,2022-11-21_24h52.02.331,Info_measure_main_exp,2022.2.2,Win32,120.1345507,,,,,,,,,,,,,,,,,,masks/mask_005.jpg,,,,,,,,,,,,,,,,,,,,,,,,,,,,,,,,,,,,,,,,,,,0,2,2,4,1,,,,,,,,,,,,,,,,,,,,,,,,,,,,,,,,,,,,,,,,,,,,,,
525080,001,2022-11-21_24h52.02.331,Info_measure_main_exp,2022.2.2,Win32,120.1345507,,,,,,,,,,,,,,,,,,masks/mask_002.jpg,,,,,,,,,,,,,,,,,,,,,,,,,,,,,,,,,,,,,,,,,,,0,3,3,1,1,,,,,,,,,,,,,,,,,,,,,,,,,,,,,,,,,,,,,,,,,,,,,,
525080,001,2022-11-21_24h52.02.331,Info_measure_main_exp,2022.2.2,Win32,120.1345507,,,,,,,,,,,,,,,,,,masks/mask_001.jpg,,,,,,,,,,,,,,,,,,,,,,,,,,,,,,,,,,,,,,,,,,,0,4,4,0,1,,,,,,,,,,,,,,,,,,,,,,,,,,,,,,,,,,,,,,,,,,,,,,
525080,001,2022-11-21_24h52.02.331,Info_measure_main_exp,2022.2.2,Win32,120.1345507,,,,,,,,,,,,,,,,,,masks/mask_002.jpg,,,,,,,,,,,,,,,,,,,,,,,,,,,,,,,,,,,,,,,,,,,,,,,,0,0,0,1,1,,,,,,,,,,,,,,,,,,,,,,,,,,,,,,,,,,,,,,,,,
525080,001,2022-11-21_24h52.02.331,Info_measure_main_exp,2022.2.2,Win32,120.1345507,,,,,,,,,,,,,,,,,,masks/mask_001.jpg,,,,,,,,,,,,,,,,,,,,,,,,,,,,,,,,,,,,,,,,,,,,,,,,0,1,1,0,1,,,,,,,,,,,,,,,,,,,,,,,,,,,,,,,,,,,,,,,,,
525080,001,2022-11-21_24h52.02.331,Info_measure_main_exp,2022.2.2,Win32,120.1345507,,,,,,,,,,,,,,,,,,masks/mask_005.jpg,,,,,,,,,,,,,,,,,,,,,,,,,,,,,,,,,,,,,,,,,,,,,,,,0,2,2,4,1,,,,,,,,,,,,,,,,,,,,,,,,,,,,,,,,,,,,,,,,,
525080,001,2022-11-21_24h52.02.331,Info_measure_main_exp,2022.2.2,Win32,120.1345507,,,,,,,,,,,,,,,,,,masks/mask_003.jpg,,,,,,,,,,,,,,,,,,,,,,,,,,,,,,,,,,,,,,,,,,,,,,,,0,3,3,2,1,,,,,,,,,,,,,,,,,,,,,,,,,,,,,,,,,,,,,,,,,
525080,001,2022-11-21_24h52.02.331,Info_measure_main_exp,2022.2.2,Win32,120.1345507,,,,,,,,,,,,,,,,,,masks/mask_004.jpg,,,,,,,,,,,,,,,,,,,,,,,,,,,,,,,,,,,,,,,,,,,,,,,,0,4,4,3,1,,,,,,,,,,,,,,,,,,,,,,,,,,,,,,,,,,,,,,,,,
525080,001,2022-11-21_24h52.02.331,Info_measure_main_exp,2022.2.2,Win32,120.1345507,,,,,,,,,,,,,,,,,,,,,,,,,,,,,,7,0.7915,1,,,,,,,,,,,,0,131,5,5,1986,1950,absent_patch/patch0001986.jpg,absent_patch/patch0001950.jpg,,,,,,,,,,,,,,,,,,,,0.052777778,0.152777778,1,0,0,response1disk,17,0.00462963,0.00462963,1,0,0,center_square,0,16,16,15,1,,,,,,,,,,,,,,,,,,,,,,,
525080,001,2022-11-21_24h52.02.331,Info_measure_main_exp,2022.2.2,Win32,120.1345507,,,,,,,,,,,,,,,,,,masks/mask_003.jpg,,,,,,,,,,,,,,,,,,,,,,,,,,,,,,,,,,,,,,,,,,,0,0,0,2,1,,,,,,,,,,,,,,,,,,,,,,,,,,,,,,,,,,,,,,,,,,,,,,
525080,001,2022-11-21_24h52.02.331,Info_measure_main_exp,2022.2.2,Win32,120.1345507,,,,,,,,,,,,,,,,,,masks/mask_002.jpg,,,,,,,,,,,,,,,,,,,,,,,,,,,,,,,,,,,,,,,,,,,0,1,1,1,1,,,,,,,,,,,,,,,,,,,,,,,,,,,,,,,,,,,,,,,,,,,,,,
525080,001,2022-11-21_24h52.02.331,Info_measure_main_exp,2022.2.2,Win32,120.1345507,,,,,,,,,,,,,,,,,,masks/mask_001.jpg,,,,,,,,,,,,,,,,,,,,,,,,,,,,,,,,,,,,,,,,,,,0,2,2,0,1,,,,,,,,,,,,,,,,,,,,,,,,,,,,,,,,,,,,,,,,,,,,,,
525080,001,2022-11-21_24h52.02.331,Info_measure_main_exp,2022.2.2,Win32,120.1345507,,,,,,,,,,,,,,,,,,masks/mask_004.jpg,,,,,,,,,,,,,,,,,,,,,,,,,,,,,,,,,,,,,,,,,,,0,3,3,3,1,,,,,,,,,,,,,,,,,,,,,,,,,,,,,,,,,,,,,,,,,,,,,,
525080,001,2022-11-21_24h52.02.331,Info_measure_main_exp,2022.2.2,Win32,120.1345507,,,,,,,,,,,,,,,,,,masks/mask_005.jpg,,,,,,,,,,,,,,,,,,,,,,,,,,,,,,,,,,,,,,,,,,,0,4,4,4,1,,,,,,,,,,,,,,,,,,,,,,,,,,,,,,,,,,,,,,,,,,,,,,
525080,001,2022-11-21_24h52.02.331,Info_measure_main_exp,2022.2.2,Win32,120.1345507,,,,,,,,,,,,,,,,,,masks/mask_001.jpg,,,,,,,,,,,,,,,,,,,,,,,,,,,,,,,,,,,,,,,,,,,,,,,,0,0,0,0,1,,,,,,,,,,,,,,,,,,,,,,,,,,,,,,,,,,,,,,,,,
525080,001,2022-11-21_24h52.02.331,Info_measure_main_exp,2022.2.2,Win32,120.1345507,,,,,,,,,,,,,,,,,,masks/mask_003.jpg,,,,,,,,,,,,,,,,,,,,,,,,,,,,,,,,,,,,,,,,,,,,,,,,0,1,1,2,1,,,,,,,,,,,,,,,,,,,,,,,,,,,,,,,,,,,,,,,,,
525080,001,2022-11-21_24h52.02.331,Info_measure_main_exp,2022.2.2,Win32,120.1345507,,,,,,,,,,,,,,,,,,masks/mask_005.jpg,,,,,,,,,,,,,,,,,,,,,,,,,,,,,,,,,,,,,,,,,,,,,,,,0,2,2,4,1,,,,,,,,,,,,,,,,,,,,,,,,,,,,,,,,,,,,,,,,,
525080,001,2022-11-21_24h52.02.331,Info_measure_main_exp,2022.2.2,Win32,120.1345507,,,,,,,,,,,,,,,,,,masks/mask_002.jpg,,,,,,,,,,,,,,,,,,,,,,,,,,,,,,,,,,,,,,,,,,,,,,,,0,3,3,1,1,,,,,,,,,,,,,,,,,,,,,,,,,,,,,,,,,,,,,,,,,
525080,001,2022-11-21_24h52.02.331,Info_measure_main_exp,2022.2.2,Win32,120.1345507,,,,,,,,,,,,,,,,,,masks/mask_004.jpg,,,,,,,,,,,,,,,,,,,,,,,,,,,,,,,,,,,,,,,,,,,,,,,,0,4,4,3,1,,,,,,,,,,,,,,,,,,,,,,,,,,,,,,,,,,,,,,,,,
525080,001,2022-11-21_24h52.02.331,Info_measure_main_exp,2022.2.2,Win32,120.1345507,,,,,,,,,,,,,,,,,,,,,,,,,,,,,,7,0.7498,1,,,,,,,,,,,,0,131,5,5,1950,2298,absent_patch/patch0001950.jpg,absent_patch/patch0002298.jpg,,,,,,,,,,,,,,,,,,,,0.101851852,0.137037037,1,0,0,response1disk,18,0,0.002777778,1,0,0,center_square,0,17,17,18,1,,,,,,,,,,,,,,,,,,,,,,,
525080,001,2022-11-21_24h52.02.331,Info_measure_main_exp,2022.2.2,Win32,120.1345507,,,,,,,,,,,,,,,,,,masks/mask_004.jpg,,,,,,,,,,,,,,,,,,,,,,,,,,,,,,,,,,,,,,,,,,,0,0,0,3,1,,,,,,,,,,,,,,,,,,,,,,,,,,,,,,,,,,,,,,,,,,,,,,
525080,001,2022-11-21_24h52.02.331,Info_measure_main_exp,2022.2.2,Win32,120.1345507,,,,,,,,,,,,,,,,,,masks/mask_002.jpg,,,,,,,,,,,,,,,,,,,,,,,,,,,,,,,,,,,,,,,,,,,0,1,1,1,1,,,,,,,,,,,,,,,,,,,,,,,,,,,,,,,,,,,,,,,,,,,,,,
525080,001,2022-11-21_24h52.02.331,Info_measure_main_exp,2022.2.2,Win32,120.1345507,,,,,,,,,,,,,,,,,,masks/mask_003.jpg,,,,,,,,,,,,,,,,,,,,,,,,,,,,,,,,,,,,,,,,,,,0,2,2,2,1,,,,,,,,,,,,,,,,,,,,,,,,,,,,,,,,,,,,,,,,,,,,,,
525080,001,2022-11-21_24h52.02.331,Info_measure_main_exp,2022.2.2,Win32,120.1345507,,,,,,,,,,,,,,,,,,masks/mask_001.jpg,,,,,,,,,,,,,,,,,,,,,,,,,,,,,,,,,,,,,,,,,,,0,3,3,0,1,,,,,,,,,,,,,,,,,,,,,,,,,,,,,,,,,,,,,,,,,,,,,,
525080,001,2022-11-21_24h52.02.331,Info_measure_main_exp,2022.2.2,Win32,120.1345507,,,,,,,,,,,,,,,,,,masks/mask_005.jpg,,,,,,,,,,,,,,,,,,,,,,,,,,,,,,,,,,,,,,,,,,,0,4,4,4,1,,,,,,,,,,,,,,,,,,,,,,,,,,,,,,,,,,,,,,,,,,,,,,
525080,001,2022-11-21_24h52.02.331,Info_measure_main_exp,2022.2.2,Win32,120.1345507,,,,,,,,,,,,,,,,,,masks/mask_004.jpg,,,,,,,,,,,,,,,,,,,,,,,,,,,,,,,,,,,,,,,,,,,,,,,,0,0,0,3,1,,,,,,,,,,,,,,,,,,,,,,,,,,,,,,,,,,,,,,,,,
525080,001,2022-11-21_24h52.02.331,Info_measure_main_exp,2022.2.2,Win32,120.1345507,,,,,,,,,,,,,,,,,,masks/mask_003.jpg,,,,,,,,,,,,,,,,,,,,,,,,,,,,,,,,,,,,,,,,,,,,,,,,0,1,1,2,1,,,,,,,,,,,,,,,,,,,,,,,,,,,,,,,,,,,,,,,,,
525080,001,2022-11-21_24h52.02.331,Info_measure_main_exp,2022.2.2,Win32,120.1345507,,,,,,,,,,,,,,,,,,masks/mask_002.jpg,,,,,,,,,,,,,,,,,,,,,,,,,,,,,,,,,,,,,,,,,,,,,,,,0,2,2,1,1,,,,,,,,,,,,,,,,,,,,,,,,,,,,,,,,,,,,,,,,,
525080,001,2022-11-21_24h52.02.331,Info_measure_main_exp,2022.2.2,Win32,120.1345507,,,,,,,,,,,,,,,,,,masks/mask_005.jpg,,,,,,,,,,,,,,,,,,,,,,,,,,,,,,,,,,,,,,,,,,,,,,,,0,3,3,4,1,,,,,,,,,,,,,,,,,,,,,,,,,,,,,,,,,,,,,,,,,
525080,001,2022-11-21_24h52.02.331,Info_measure_main_exp,2022.2.2,Win32,120.1345507,,,,,,,,,,,,,,,,,,masks/mask_001.jpg,,,,,,,,,,,,,,,,,,,,,,,,,,,,,,,,,,,,,,,,,,,,,,,,0,4,4,0,1,,,,,,,,,,,,,,,,,,,,,,,,,,,,,,,,,,,,,,,,,
525080,001,2022-11-21_24h52.02.331,Info_measure_main_exp,2022.2.2,Win32,120.1345507,,,,,,,,,,,,,,,,,,,,,,,,,,,,,,7,0.8331,1,,,,,,,,,,,,0,131,5,5,2274,2142,absent_patch/patch0002274.jpg,absent_patch/patch0002142.jpg,,,,,,,,,,,,,,,,,,,,0.051851852,0.077777778,1,0,0,response1disk,19,0,-0.010185185,1,0,0,center_square,0,18,18,75,1,,,,,,,,,,,,,,,,,,,,,,,
525080,001,2022-11-21_24h52.02.331,Info_measure_main_exp,2022.2.2,Win32,120.1345507,,,,,,,,,,,,,,,,,,masks/mask_005.jpg,,,,,,,,,,,,,,,,,,,,,,,,,,,,,,,,,,,,,,,,,,,0,0,0,4,1,,,,,,,,,,,,,,,,,,,,,,,,,,,,,,,,,,,,,,,,,,,,,,
525080,001,2022-11-21_24h52.02.331,Info_measure_main_exp,2022.2.2,Win32,120.1345507,,,,,,,,,,,,,,,,,,masks/mask_001.jpg,,,,,,,,,,,,,,,,,,,,,,,,,,,,,,,,,,,,,,,,,,,0,1,1,0,1,,,,,,,,,,,,,,,,,,,,,,,,,,,,,,,,,,,,,,,,,,,,,,
525080,001,2022-11-21_24h52.02.331,Info_measure_main_exp,2022.2.2,Win32,120.1345507,,,,,,,,,,,,,,,,,,masks/mask_003.jpg,,,,,,,,,,,,,,,,,,,,,,,,,,,,,,,,,,,,,,,,,,,0,2,2,2,1,,,,,,,,,,,,,,,,,,,,,,,,,,,,,,,,,,,,,,,,,,,,,,
525080,001,2022-11-21_24h52.02.331,Info_measure_main_exp,2022.2.2,Win32,120.1345507,,,,,,,,,,,,,,,,,,masks/mask_002.jpg,,,,,,,,,,,,,,,,,,,,,,,,,,,,,,,,,,,,,,,,,,,0,3,3,1,1,,,,,,,,,,,,,,,,,,,,,,,,,,,,,,,,,,,,,,,,,,,,,,
525080,001,2022-11-21_24h52.02.331,Info_measure_main_exp,2022.2.2,Win32,120.1345507,,,,,,,,,,,,,,,,,,masks/mask_004.jpg,,,,,,,,,,,,,,,,,,,,,,,,,,,,,,,,,,,,,,,,,,,0,4,4,3,1,,,,,,,,,,,,,,,,,,,,,,,,,,,,,,,,,,,,,,,,,,,,,,
525080,001,2022-11-21_24h52.02.331,Info_measure_main_exp,2022.2.2,Win32,120.1345507,,,,,,,,,,,,,,,,,,masks/mask_005.jpg,,,,,,,,,,,,,,,,,,,,,,,,,,,,,,,,,,,,,,,,,,,,,,,,0,0,0,4,1,,,,,,,,,,,,,,,,,,,,,,,,,,,,,,,,,,,,,,,,,
525080,001,2022-11-21_24h52.02.331,Info_measure_main_exp,2022.2.2,Win32,120.1345507,,,,,,,,,,,,,,,,,,masks/mask_001.jpg,,,,,,,,,,,,,,,,,,,,,,,,,,,,,,,,,,,,,,,,,,,,,,,,0,1,1,0,1,,,,,,,,,,,,,,,,,,,,,,,,,,,,,,,,,,,,,,,,,
525080,001,2022-11-21_24h52.02.331,Info_measure_main_exp,2022.2.2,Win32,120.1345507,,,,,,,,,,,,,,,,,,masks/mask_003.jpg,,,,,,,,,,,,,,,,,,,,,,,,,,,,,,,,,,,,,,,,,,,,,,,,0,2,2,2,1,,,,,,,,,,,,,,,,,,,,,,,,,,,,,,,,,,,,,,,,,
525080,001,2022-11-21_24h52.02.331,Info_measure_main_exp,2022.2.2,Win32,120.1345507,,,,,,,,,,,,,,,,,,masks/mask_002.jpg,,,,,,,,,,,,,,,,,,,,,,,,,,,,,,,,,,,,,,,,,,,,,,,,0,3,3,1,1,,,,,,,,,,,,,,,,,,,,,,,,,,,,,,,,,,,,,,,,,
525080,001,2022-11-21_24h52.02.331,Info_measure_main_exp,2022.2.2,Win32,120.1345507,,,,,,,,,,,,,,,,,,masks/mask_004.jpg,,,,,,,,,,,,,,,,,,,,,,,,,,,,,,,,,,,,,,,,,,,,,,,,0,4,4,3,1,,,,,,,,,,,,,,,,,,,,,,,,,,,,,,,,,,,,,,,,,
525080,001,2022-11-21_24h52.02.331,Info_measure_main_exp,2022.2.2,Win32,120.1345507,,,,,,,,,,,,,,,,,,,,,,,,,,,,,,7,0.5915,1,,,,,,,,,,,,0,131,5,5,2190,2178,absent_patch/patch0002190.jpg,absent_patch/patch0002178.jpg,,,,,,,,,,,,,,,,,,,,0.039814815,0.101851852,1,0,0,response1disk,20,0.001851852,0.00462963,1,0,0,center_square,0,19,19,14,1,,,,,,,,,,,,,,,,,,,,,,,
525080,001,2022-11-21_24h52.02.331,Info_measure_main_exp,2022.2.2,Win32,120.1345507,,,,,,,,,,,,,,,,,,masks/mask_001.jpg,,,,,,,,,,,,,,,,,,,,,,,,,,,,,,,,,,,,,,,,,,,0,0,0,0,1,,,,,,,,,,,,,,,,,,,,,,,,,,,,,,,,,,,,,,,,,,,,,,
525080,001,2022-11-21_24h52.02.331,Info_measure_main_exp,2022.2.2,Win32,120.1345507,,,,,,,,,,,,,,,,,,masks/mask_003.jpg,,,,,,,,,,,,,,,,,,,,,,,,,,,,,,,,,,,,,,,,,,,0,1,1,2,1,,,,,,,,,,,,,,,,,,,,,,,,,,,,,,,,,,,,,,,,,,,,,,
525080,001,2022-11-21_24h52.02.331,Info_measure_main_exp,2022.2.2,Win32,120.1345507,,,,,,,,,,,,,,,,,,masks/mask_005.jpg,,,,,,,,,,,,,,,,,,,,,,,,,,,,,,,,,,,,,,,,,,,0,2,2,4,1,,,,,,,,,,,,,,,,,,,,,,,,,,,,,,,,,,,,,,,,,,,,,,
525080,001,2022-11-21_24h52.02.331,Info_measure_main_exp,2022.2.2,Win32,120.1345507,,,,,,,,,,,,,,,,,,masks/mask_002.jpg,,,,,,,,,,,,,,,,,,,,,,,,,,,,,,,,,,,,,,,,,,,0,3,3,1,1,,,,,,,,,,,,,,,,,,,,,,,,,,,,,,,,,,,,,,,,,,,,,,
525080,001,2022-11-21_24h52.02.331,Info_measure_main_exp,2022.2.2,Win32,120.1345507,,,,,,,,,,,,,,,,,,masks/mask_004.jpg,,,,,,,,,,,,,,,,,,,,,,,,,,,,,,,,,,,,,,,,,,,0,4,4,3,1,,,,,,,,,,,,,,,,,,,,,,,,,,,,,,,,,,,,,,,,,,,,,,
525080,001,2022-11-21_24h52.02.331,Info_measure_main_exp,2022.2.2,Win32,120.1345507,,,,,,,,,,,,,,,,,,masks/mask_005.jpg,,,,,,,,,,,,,,,,,,,,,,,,,,,,,,,,,,,,,,,,,,,,,,,,0,0,0,4,1,,,,,,,,,,,,,,,,,,,,,,,,,,,,,,,,,,,,,,,,,
525080,001,2022-11-21_24h52.02.331,Info_measure_main_exp,2022.2.2,Win32,120.1345507,,,,,,,,,,,,,,,,,,masks/mask_002.jpg,,,,,,,,,,,,,,,,,,,,,,,,,,,,,,,,,,,,,,,,,,,,,,,,0,1,1,1,1,,,,,,,,,,,,,,,,,,,,,,,,,,,,,,,,,,,,,,,,,
525080,001,2022-11-21_24h52.02.331,Info_measure_main_exp,2022.2.2,Win32,120.1345507,,,,,,,,,,,,,,,,,,masks/mask_004.jpg,,,,,,,,,,,,,,,,,,,,,,,,,,,,,,,,,,,,,,,,,,,,,,,,0,2,2,3,1,,,,,,,,,,,,,,,,,,,,,,,,,,,,,,,,,,,,,,,,,
525080,001,2022-11-21_24h52.02.331,Info_measure_main_exp,2022.2.2,Win32,120.1345507,,,,,,,,,,,,,,,,,,masks/mask_001.jpg,,,,,,,,,,,,,,,,,,,,,,,,,,,,,,,,,,,,,,,,,,,,,,,,0,3,3,0,1,,,,,,,,,,,,,,,,,,,,,,,,,,,,,,,,,,,,,,,,,
525080,001,2022-11-21_24h52.02.331,Info_measure_main_exp,2022.2.2,Win32,120.1345507,,,,,,,,,,,,,,,,,,masks/mask_003.jpg,,,,,,,,,,,,,,,,,,,,,,,,,,,,,,,,,,,,,,,,,,,,,,,,0,4,4,2,1,,,,,,,,,,,,,,,,,,,,,,,,,,,,,,,,,,,,,,,,,
525080,001,2022-11-21_24h52.02.331,Info_measure_main_exp,2022.2.2,Win32,120.1345507,,,,,,,,,,,,,,,,,,,,,,,,,,,,,,7,0.4748,1,,,,,,,,,,,,0,131,5,5,2298,2178,absent_patch/patch0002298.jpg,absent_patch/patch0002178.jpg,,,,,,,,,,,,,,,,,,,,0.04537037,0.109259259,1,0,0,response1disk,21,0,0.006481481,1,0,0,center_square,0,20,20,84,1,,,,,,,,,,,,,,,,,,,,,,,
525080,001,2022-11-21_24h52.02.331,Info_measure_main_exp,2022.2.2,Win32,120.1345507,,,,,,,,,,,,,,,,,,masks/mask_005.jpg,,,,,,,,,,,,,,,,,,,,,,,,,,,,,,,,,,,,,,,,,,,0,0,0,4,1,,,,,,,,,,,,,,,,,,,,,,,,,,,,,,,,,,,,,,,,,,,,,,
525080,001,2022-11-21_24h52.02.331,Info_measure_main_exp,2022.2.2,Win32,120.1345507,,,,,,,,,,,,,,,,,,masks/mask_004.jpg,,,,,,,,,,,,,,,,,,,,,,,,,,,,,,,,,,,,,,,,,,,0,1,1,3,1,,,,,,,,,,,,,,,,,,,,,,,,,,,,,,,,,,,,,,,,,,,,,,
525080,001,2022-11-21_24h52.02.331,Info_measure_main_exp,2022.2.2,Win32,120.1345507,,,,,,,,,,,,,,,,,,masks/mask_001.jpg,,,,,,,,,,,,,,,,,,,,,,,,,,,,,,,,,,,,,,,,,,,0,2,2,0,1,,,,,,,,,,,,,,,,,,,,,,,,,,,,,,,,,,,,,,,,,,,,,,
525080,001,2022-11-21_24h52.02.331,Info_measure_main_exp,2022.2.2,Win32,120.1345507,,,,,,,,,,,,,,,,,,masks/mask_003.jpg,,,,,,,,,,,,,,,,,,,,,,,,,,,,,,,,,,,,,,,,,,,0,3,3,2,1,,,,,,,,,,,,,,,,,,,,,,,,,,,,,,,,,,,,,,,,,,,,,,
525080,001,2022-11-21_24h52.02.331,Info_measure_main_exp,2022.2.2,Win32,120.1345507,,,,,,,,,,,,,,,,,,masks/mask_002.jpg,,,,,,,,,,,,,,,,,,,,,,,,,,,,,,,,,,,,,,,,,,,0,4,4,1,1,,,,,,,,,,,,,,,,,,,,,,,,,,,,,,,,,,,,,,,,,,,,,,
525080,001,2022-11-21_24h52.02.331,Info_measure_main_exp,2022.2.2,Win32,120.1345507,,,,,,,,,,,,,,,,,,masks/mask_005.jpg,,,,,,,,,,,,,,,,,,,,,,,,,,,,,,,,,,,,,,,,,,,,,,,,0,0,0,4,1,,,,,,,,,,,,,,,,,,,,,,,,,,,,,,,,,,,,,,,,,
525080,001,2022-11-21_24h52.02.331,Info_measure_main_exp,2022.2.2,Win32,120.1345507,,,,,,,,,,,,,,,,,,masks/mask_002.jpg,,,,,,,,,,,,,,,,,,,,,,,,,,,,,,,,,,,,,,,,,,,,,,,,0,1,1,1,1,,,,,,,,,,,,,,,,,,,,,,,,,,,,,,,,,,,,,,,,,
525080,001,2022-11-21_24h52.02.331,Info_measure_main_exp,2022.2.2,Win32,120.1345507,,,,,,,,,,,,,,,,,,masks/mask_001.jpg,,,,,,,,,,,,,,,,,,,,,,,,,,,,,,,,,,,,,,,,,,,,,,,,0,2,2,0,1,,,,,,,,,,,,,,,,,,,,,,,,,,,,,,,,,,,,,,,,,
525080,001,2022-11-21_24h52.02.331,Info_measure_main_exp,2022.2.2,Win32,120.1345507,,,,,,,,,,,,,,,,,,masks/mask_004.jpg,,,,,,,,,,,,,,,,,,,,,,,,,,,,,,,,,,,,,,,,,,,,,,,,0,3,3,3,1,,,,,,,,,,,,,,,,,,,,,,,,,,,,,,,,,,,,,,,,,
525080,001,2022-11-21_24h52.02.331,Info_measure_main_exp,2022.2.2,Win32,120.1345507,,,,,,,,,,,,,,,,,,masks/mask_003.jpg,,,,,,,,,,,,,,,,,,,,,,,,,,,,,,,,,,,,,,,,,,,,,,,,0,4,4,2,1,,,,,,,,,,,,,,,,,,,,,,,,,,,,,,,,,,,,,,,,,
525080,001,2022-11-21_24h52.02.331,Info_measure_main_exp,2022.2.2,Win32,120.1345507,,,,,,,,,,,,,,,,,,,,,,,,,,,,,,0,0.6247,1,,,,,,,,,,,,0,131,5,5,2154,2154,absent_patch/patch0002154.jpg,absent_patch/patch0002154.jpg,,,,,,,,,,,,,,,,,,,,-0.063888889,0.189814815,1,0,0,response7disk,22,0.009259259,-0.001851852,1,0,0,center_square,0,21,21,89,1,,,,,,,,,,,,,,,,,,,,,,,
525080,001,2022-11-21_24h52.02.331,Info_measure_main_exp,2022.2.2,Win32,120.1345507,,,,,,,,,,,,,,,,,,masks/mask_001.jpg,,,,,,,,,,,,,,,,,,,,,,,,,,,,,,,,,,,,,,,,,,,0,0,0,0,1,,,,,,,,,,,,,,,,,,,,,,,,,,,,,,,,,,,,,,,,,,,,,,
525080,001,2022-11-21_24h52.02.331,Info_measure_main_exp,2022.2.2,Win32,120.1345507,,,,,,,,,,,,,,,,,,masks/mask_005.jpg,,,,,,,,,,,,,,,,,,,,,,,,,,,,,,,,,,,,,,,,,,,0,1,1,4,1,,,,,,,,,,,,,,,,,,,,,,,,,,,,,,,,,,,,,,,,,,,,,,
525080,001,2022-11-21_24h52.02.331,Info_measure_main_exp,2022.2.2,Win32,120.1345507,,,,,,,,,,,,,,,,,,masks/mask_004.jpg,,,,,,,,,,,,,,,,,,,,,,,,,,,,,,,,,,,,,,,,,,,0,2,2,3,1,,,,,,,,,,,,,,,,,,,,,,,,,,,,,,,,,,,,,,,,,,,,,,
525080,001,2022-11-21_24h52.02.331,Info_measure_main_exp,2022.2.2,Win32,120.1345507,,,,,,,,,,,,,,,,,,masks/mask_002.jpg,,,,,,,,,,,,,,,,,,,,,,,,,,,,,,,,,,,,,,,,,,,0,3,3,1,1,,,,,,,,,,,,,,,,,,,,,,,,,,,,,,,,,,,,,,,,,,,,,,
525080,001,2022-11-21_24h52.02.331,Info_measure_main_exp,2022.2.2,Win32,120.1345507,,,,,,,,,,,,,,,,,,masks/mask_003.jpg,,,,,,,,,,,,,,,,,,,,,,,,,,,,,,,,,,,,,,,,,,,0,4,4,2,1,,,,,,,,,,,,,,,,,,,,,,,,,,,,,,,,,,,,,,,,,,,,,,
525080,001,2022-11-21_24h52.02.331,Info_measure_main_exp,2022.2.2,Win32,120.1345507,,,,,,,,,,,,,,,,,,masks/mask_003.jpg,,,,,,,,,,,,,,,,,,,,,,,,,,,,,,,,,,,,,,,,,,,,,,,,0,0,0,2,1,,,,,,,,,,,,,,,,,,,,,,,,,,,,,,,,,,,,,,,,,
525080,001,2022-11-21_24h52.02.331,Info_measure_main_exp,2022.2.2,Win32,120.1345507,,,,,,,,,,,,,,,,,,masks/mask_004.jpg,,,,,,,,,,,,,,,,,,,,,,,,,,,,,,,,,,,,,,,,,,,,,,,,0,1,1,3,1,,,,,,,,,,,,,,,,,,,,,,,,,,,,,,,,,,,,,,,,,
525080,001,2022-11-21_24h52.02.331,Info_measure_main_exp,2022.2.2,Win32,120.1345507,,,,,,,,,,,,,,,,,,masks/mask_002.jpg,,,,,,,,,,,,,,,,,,,,,,,,,,,,,,,,,,,,,,,,,,,,,,,,0,2,2,1,1,,,,,,,,,,,,,,,,,,,,,,,,,,,,,,,,,,,,,,,,,
525080,001,2022-11-21_24h52.02.331,Info_measure_main_exp,2022.2.2,Win32,120.1345507,,,,,,,,,,,,,,,,,,masks/mask_001.jpg,,,,,,,,,,,,,,,,,,,,,,,,,,,,,,,,,,,,,,,,,,,,,,,,0,3,3,0,1,,,,,,,,,,,,,,,,,,,,,,,,,,,,,,,,,,,,,,,,,
525080,001,2022-11-21_24h52.02.331,Info_measure_main_exp,2022.2.2,Win32,120.1345507,,,,,,,,,,,,,,,,,,masks/mask_005.jpg,,,,,,,,,,,,,,,,,,,,,,,,,,,,,,,,,,,,,,,,,,,,,,,,0,4,4,4,1,,,,,,,,,,,,,,,,,,,,,,,,,,,,,,,,,,,,,,,,,
525080,001,2022-11-21_24h52.02.331,Info_measure_main_exp,2022.2.2,Win32,120.1345507,,,,,,,,,,,,,,,,,,,,,,,,,,,,,,7,0.5192,1,,,,,,,,,,,,0,131,5,5,1974,2166,absent_patch/patch0001974.jpg,absent_patch/patch0002166.jpg,,,,,,,,,,,,,,,,,,,,0.02962963,0.072222222,1,0,0,response1disk,23,-0.008333333,-0.002777778,1,0,0,center_square,0,22,22,77,1,,,,,,,,,,,,,,,,,,,,,,,
525080,001,2022-11-21_24h52.02.331,Info_measure_main_exp,2022.2.2,Win32,120.1345507,,,,,,,,,,,,,,,,,,masks/mask_001.jpg,,,,,,,,,,,,,,,,,,,,,,,,,,,,,,,,,,,,,,,,,,,0,0,0,0,1,,,,,,,,,,,,,,,,,,,,,,,,,,,,,,,,,,,,,,,,,,,,,,
525080,001,2022-11-21_24h52.02.331,Info_measure_main_exp,2022.2.2,Win32,120.1345507,,,,,,,,,,,,,,,,,,masks/mask_004.jpg,,,,,,,,,,,,,,,,,,,,,,,,,,,,,,,,,,,,,,,,,,,0,1,1,3,1,,,,,,,,,,,,,,,,,,,,,,,,,,,,,,,,,,,,,,,,,,,,,,
525080,001,2022-11-21_24h52.02.331,Info_measure_main_exp,2022.2.2,Win32,120.1345507,,,,,,,,,,,,,,,,,,masks/mask_005.jpg,,,,,,,,,,,,,,,,,,,,,,,,,,,,,,,,,,,,,,,,,,,0,2,2,4,1,,,,,,,,,,,,,,,,,,,,,,,,,,,,,,,,,,,,,,,,,,,,,,
525080,001,2022-11-21_24h52.02.331,Info_measure_main_exp,2022.2.2,Win32,120.1345507,,,,,,,,,,,,,,,,,,masks/mask_003.jpg,,,,,,,,,,,,,,,,,,,,,,,,,,,,,,,,,,,,,,,,,,,0,3,3,2,1,,,,,,,,,,,,,,,,,,,,,,,,,,,,,,,,,,,,,,,,,,,,,,
525080,001,2022-11-21_24h52.02.331,Info_measure_main_exp,2022.2.2,Win32,120.1345507,,,,,,,,,,,,,,,,,,masks/mask_002.jpg,,,,,,,,,,,,,,,,,,,,,,,,,,,,,,,,,,,,,,,,,,,0,4,4,1,1,,,,,,,,,,,,,,,,,,,,,,,,,,,,,,,,,,,,,,,,,,,,,,
525080,001,2022-11-21_24h52.02.331,Info_measure_main_exp,2022.2.2,Win32,120.1345507,,,,,,,,,,,,,,,,,,masks/mask_004.jpg,,,,,,,,,,,,,,,,,,,,,,,,,,,,,,,,,,,,,,,,,,,,,,,,0,0,0,3,1,,,,,,,,,,,,,,,,,,,,,,,,,,,,,,,,,,,,,,,,,
525080,001,2022-11-21_24h52.02.331,Info_measure_main_exp,2022.2.2,Win32,120.1345507,,,,,,,,,,,,,,,,,,masks/mask_005.jpg,,,,,,,,,,,,,,,,,,,,,,,,,,,,,,,,,,,,,,,,,,,,,,,,0,1,1,4,1,,,,,,,,,,,,,,,,,,,,,,,,,,,,,,,,,,,,,,,,,
525080,001,2022-11-21_24h52.02.331,Info_measure_main_exp,2022.2.2,Win32,120.1345507,,,,,,,,,,,,,,,,,,masks/mask_001.jpg,,,,,,,,,,,,,,,,,,,,,,,,,,,,,,,,,,,,,,,,,,,,,,,,0,2,2,0,1,,,,,,,,,,,,,,,,,,,,,,,,,,,,,,,,,,,,,,,,,
525080,001,2022-11-21_24h52.02.331,Info_measure_main_exp,2022.2.2,Win32,120.1345507,,,,,,,,,,,,,,,,,,masks/mask_002.jpg,,,,,,,,,,,,,,,,,,,,,,,,,,,,,,,,,,,,,,,,,,,,,,,,0,3,3,1,1,,,,,,,,,,,,,,,,,,,,,,,,,,,,,,,,,,,,,,,,,
525080,001,2022-11-21_24h52.02.331,Info_measure_main_exp,2022.2.2,Win32,120.1345507,,,,,,,,,,,,,,,,,,masks/mask_003.jpg,,,,,,,,,,,,,,,,,,,,,,,,,,,,,,,,,,,,,,,,,,,,,,,,0,4,4,2,1,,,,,,,,,,,,,,,,,,,,,,,,,,,,,,,,,,,,,,,,,
525080,001,2022-11-21_24h52.02.331,Info_measure_main_exp,2022.2.2,Win32,120.1345507,,,,,,,,,,,,,,,,,,,,,,,,,,,,,,7,0.483,1,,,,,,,,,,,,0,131,5,5,1950,2142,absent_patch/patch0001950.jpg,absent_patch/patch0002142.jpg,,,,,,,,,,,,,,,,,,,,0.051851852,0.089814815,1,0,0,response1disk,24,0.007407407,-0.007407407,1,0,0,center_square,0,23,23,83,1,,,,,,,,,,,,,,,,,,,,,,,
525080,001,2022-11-21_24h52.02.331,Info_measure_main_exp,2022.2.2,Win32,120.1345507,,,,,,,,,,,,,,,,,,masks/mask_002.jpg,,,,,,,,,,,,,,,,,,,,,,,,,,,,,,,,,,,,,,,,,,,0,0,0,1,1,,,,,,,,,,,,,,,,,,,,,,,,,,,,,,,,,,,,,,,,,,,,,,
525080,001,2022-11-21_24h52.02.331,Info_measure_main_exp,2022.2.2,Win32,120.1345507,,,,,,,,,,,,,,,,,,masks/mask_001.jpg,,,,,,,,,,,,,,,,,,,,,,,,,,,,,,,,,,,,,,,,,,,0,1,1,0,1,,,,,,,,,,,,,,,,,,,,,,,,,,,,,,,,,,,,,,,,,,,,,,
525080,001,2022-11-21_24h52.02.331,Info_measure_main_exp,2022.2.2,Win32,120.1345507,,,,,,,,,,,,,,,,,,masks/mask_003.jpg,,,,,,,,,,,,,,,,,,,,,,,,,,,,,,,,,,,,,,,,,,,0,2,2,2,1,,,,,,,,,,,,,,,,,,,,,,,,,,,,,,,,,,,,,,,,,,,,,,
525080,001,2022-11-21_24h52.02.331,Info_measure_main_exp,2022.2.2,Win32,120.1345507,,,,,,,,,,,,,,,,,,masks/mask_005.jpg,,,,,,,,,,,,,,,,,,,,,,,,,,,,,,,,,,,,,,,,,,,0,3,3,4,1,,,,,,,,,,,,,,,,,,,,,,,,,,,,,,,,,,,,,,,,,,,,,,
525080,001,2022-11-21_24h52.02.331,Info_measure_main_exp,2022.2.2,Win32,120.1345507,,,,,,,,,,,,,,,,,,masks/mask_004.jpg,,,,,,,,,,,,,,,,,,,,,,,,,,,,,,,,,,,,,,,,,,,0,4,4,3,1,,,,,,,,,,,,,,,,,,,,,,,,,,,,,,,,,,,,,,,,,,,,,,
525080,001,2022-11-21_24h52.02.331,Info_measure_main_exp,2022.2.2,Win32,120.1345507,,,,,,,,,,,,,,,,,,masks/mask_002.jpg,,,,,,,,,,,,,,,,,,,,,,,,,,,,,,,,,,,,,,,,,,,,,,,,0,0,0,1,1,,,,,,,,,,,,,,,,,,,,,,,,,,,,,,,,,,,,,,,,,
525080,001,2022-11-21_24h52.02.331,Info_measure_main_exp,2022.2.2,Win32,120.1345507,,,,,,,,,,,,,,,,,,masks/mask_004.jpg,,,,,,,,,,,,,,,,,,,,,,,,,,,,,,,,,,,,,,,,,,,,,,,,0,1,1,3,1,,,,,,,,,,,,,,,,,,,,,,,,,,,,,,,,,,,,,,,,,
525080,001,2022-11-21_24h52.02.331,Info_measure_main_exp,2022.2.2,Win32,120.1345507,,,,,,,,,,,,,,,,,,masks/mask_005.jpg,,,,,,,,,,,,,,,,,,,,,,,,,,,,,,,,,,,,,,,,,,,,,,,,0,2,2,4,1,,,,,,,,,,,,,,,,,,,,,,,,,,,,,,,,,,,,,,,,,
525080,001,2022-11-21_24h52.02.331,Info_measure_main_exp,2022.2.2,Win32,120.1345507,,,,,,,,,,,,,,,,,,masks/mask_003.jpg,,,,,,,,,,,,,,,,,,,,,,,,,,,,,,,,,,,,,,,,,,,,,,,,0,3,3,2,1,,,,,,,,,,,,,,,,,,,,,,,,,,,,,,,,,,,,,,,,,
525080,001,2022-11-21_24h52.02.331,Info_measure_main_exp,2022.2.2,Win32,120.1345507,,,,,,,,,,,,,,,,,,masks/mask_001.jpg,,,,,,,,,,,,,,,,,,,,,,,,,,,,,,,,,,,,,,,,,,,,,,,,0,4,4,0,1,,,,,,,,,,,,,,,,,,,,,,,,,,,,,,,,,,,,,,,,,
525080,001,2022-11-21_24h52.02.331,Info_measure_main_exp,2022.2.2,Win32,120.1345507,,,,,,,,,,,,,,,,,,,,,,,,,,,,,,7,1.1862,1,,,,,,,,,,,,0,131,5,5,2214,1986,absent_patch/patch0002214.jpg,absent_patch/patch0001986.jpg,,,,,,,,,,,,,,,,,,,,0.065740741,0.130555556,1,0,0,response1disk,25,-0.009259259,0.009259259,1,0,0,center_square,0,24,24,34,1,,,,,,,,,,,,,,,,,,,,,,,
525080,001,2022-11-21_24h52.02.331,Info_measure_main_exp,2022.2.2,Win32,120.1345507,,,,,,,,,,,,,,,,,,masks/mask_005.jpg,,,,,,,,,,,,,,,,,,,,,,,,,,,,,,,,,,,,,,,,,,,0,0,0,4,1,,,,,,,,,,,,,,,,,,,,,,,,,,,,,,,,,,,,,,,,,,,,,,
525080,001,2022-11-21_24h52.02.331,Info_measure_main_exp,2022.2.2,Win32,120.1345507,,,,,,,,,,,,,,,,,,masks/mask_003.jpg,,,,,,,,,,,,,,,,,,,,,,,,,,,,,,,,,,,,,,,,,,,0,1,1,2,1,,,,,,,,,,,,,,,,,,,,,,,,,,,,,,,,,,,,,,,,,,,,,,
525080,001,2022-11-21_24h52.02.331,Info_measure_main_exp,2022.2.2,Win32,120.1345507,,,,,,,,,,,,,,,,,,masks/mask_002.jpg,,,,,,,,,,,,,,,,,,,,,,,,,,,,,,,,,,,,,,,,,,,0,2,2,1,1,,,,,,,,,,,,,,,,,,,,,,,,,,,,,,,,,,,,,,,,,,,,,,
525080,001,2022-11-21_24h52.02.331,Info_measure_main_exp,2022.2.2,Win32,120.1345507,,,,,,,,,,,,,,,,,,masks/mask_001.jpg,,,,,,,,,,,,,,,,,,,,,,,,,,,,,,,,,,,,,,,,,,,0,3,3,0,1,,,,,,,,,,,,,,,,,,,,,,,,,,,,,,,,,,,,,,,,,,,,,,
525080,001,2022-11-21_24h52.02.331,Info_measure_main_exp,2022.2.2,Win32,120.1345507,,,,,,,,,,,,,,,,,,masks/mask_004.jpg,,,,,,,,,,,,,,,,,,,,,,,,,,,,,,,,,,,,,,,,,,,0,4,4,3,1,,,,,,,,,,,,,,,,,,,,,,,,,,,,,,,,,,,,,,,,,,,,,,
525080,001,2022-11-21_24h52.02.331,Info_measure_main_exp,2022.2.2,Win32,120.1345507,,,,,,,,,,,,,,,,,,masks/mask_002.jpg,,,,,,,,,,,,,,,,,,,,,,,,,,,,,,,,,,,,,,,,,,,,,,,,0,0,0,1,1,,,,,,,,,,,,,,,,,,,,,,,,,,,,,,,,,,,,,,,,,
525080,001,2022-11-21_24h52.02.331,Info_measure_main_exp,2022.2.2,Win32,120.1345507,,,,,,,,,,,,,,,,,,masks/mask_004.jpg,,,,,,,,,,,,,,,,,,,,,,,,,,,,,,,,,,,,,,,,,,,,,,,,0,1,1,3,1,,,,,,,,,,,,,,,,,,,,,,,,,,,,,,,,,,,,,,,,,
525080,001,2022-11-21_24h52.02.331,Info_measure_main_exp,2022.2.2,Win32,120.1345507,,,,,,,,,,,,,,,,,,masks/mask_003.jpg,,,,,,,,,,,,,,,,,,,,,,,,,,,,,,,,,,,,,,,,,,,,,,,,0,2,2,2,1,,,,,,,,,,,,,,,,,,,,,,,,,,,,,,,,,,,,,,,,,
525080,001,2022-11-21_24h52.02.331,Info_measure_main_exp,2022.2.2,Win32,120.1345507,,,,,,,,,,,,,,,,,,masks/mask_001.jpg,,,,,,,,,,,,,,,,,,,,,,,,,,,,,,,,,,,,,,,,,,,,,,,,0,3,3,0,1,,,,,,,,,,,,,,,,,,,,,,,,,,,,,,,,,,,,,,,,,
525080,001,2022-11-21_24h52.02.331,Info_measure_main_exp,2022.2.2,Win32,120.1345507,,,,,,,,,,,,,,,,,,masks/mask_005.jpg,,,,,,,,,,,,,,,,,,,,,,,,,,,,,,,,,,,,,,,,,,,,,,,,0,4,4,4,1,,,,,,,,,,,,,,,,,,,,,,,,,,,,,,,,,,,,,,,,,
525080,001,2022-11-21_24h52.02.331,Info_measure_main_exp,2022.2.2,Win32,120.1345507,,,,,,,,,,,,,,,,,,,,,,,,,,,,,,7,0.8382,1,,,,,,,,,,,,0,131,5,5,2142,2238,absent_patch/patch0002142.jpg,absent_patch/patch0002238.jpg,,,,,,,,,,,,,,,,,,,,0.057407407,0.106481481,1,0,0,response1disk,26,-0.001851852,0.001851852,1,0,0,center_square,0,25,25,101,1,,,,,,,,,,,,,,,,,,,,,,,
525080,001,2022-11-21_24h52.02.331,Info_measure_main_exp,2022.2.2,Win32,120.1345507,,,,,,,,,,,,,,,,,,masks/mask_001.jpg,,,,,,,,,,,,,,,,,,,,,,,,,,,,,,,,,,,,,,,,,,,0,0,0,0,1,,,,,,,,,,,,,,,,,,,,,,,,,,,,,,,,,,,,,,,,,,,,,,
525080,001,2022-11-21_24h52.02.331,Info_measure_main_exp,2022.2.2,Win32,120.1345507,,,,,,,,,,,,,,,,,,masks/mask_002.jpg,,,,,,,,,,,,,,,,,,,,,,,,,,,,,,,,,,,,,,,,,,,0,1,1,1,1,,,,,,,,,,,,,,,,,,,,,,,,,,,,,,,,,,,,,,,,,,,,,,
525080,001,2022-11-21_24h52.02.331,Info_measure_main_exp,2022.2.2,Win32,120.1345507,,,,,,,,,,,,,,,,,,masks/mask_003.jpg,,,,,,,,,,,,,,,,,,,,,,,,,,,,,,,,,,,,,,,,,,,0,2,2,2,1,,,,,,,,,,,,,,,,,,,,,,,,,,,,,,,,,,,,,,,,,,,,,,
525080,001,2022-11-21_24h52.02.331,Info_measure_main_exp,2022.2.2,Win32,120.1345507,,,,,,,,,,,,,,,,,,masks/mask_004.jpg,,,,,,,,,,,,,,,,,,,,,,,,,,,,,,,,,,,,,,,,,,,0,3,3,3,1,,,,,,,,,,,,,,,,,,,,,,,,,,,,,,,,,,,,,,,,,,,,,,
525080,001,2022-11-21_24h52.02.331,Info_measure_main_exp,2022.2.2,Win32,120.1345507,,,,,,,,,,,,,,,,,,masks/mask_005.jpg,,,,,,,,,,,,,,,,,,,,,,,,,,,,,,,,,,,,,,,,,,,0,4,4,4,1,,,,,,,,,,,,,,,,,,,,,,,,,,,,,,,,,,,,,,,,,,,,,,
525080,001,2022-11-21_24h52.02.331,Info_measure_main_exp,2022.2.2,Win32,120.1345507,,,,,,,,,,,,,,,,,,masks/mask_002.jpg,,,,,,,,,,,,,,,,,,,,,,,,,,,,,,,,,,,,,,,,,,,,,,,,0,0,0,1,1,,,,,,,,,,,,,,,,,,,,,,,,,,,,,,,,,,,,,,,,,
525080,001,2022-11-21_24h52.02.331,Info_measure_main_exp,2022.2.2,Win32,120.1345507,,,,,,,,,,,,,,,,,,masks/mask_003.jpg,,,,,,,,,,,,,,,,,,,,,,,,,,,,,,,,,,,,,,,,,,,,,,,,0,1,1,2,1,,,,,,,,,,,,,,,,,,,,,,,,,,,,,,,,,,,,,,,,,
525080,001,2022-11-21_24h52.02.331,Info_measure_main_exp,2022.2.2,Win32,120.1345507,,,,,,,,,,,,,,,,,,masks/mask_004.jpg,,,,,,,,,,,,,,,,,,,,,,,,,,,,,,,,,,,,,,,,,,,,,,,,0,2,2,3,1,,,,,,,,,,,,,,,,,,,,,,,,,,,,,,,,,,,,,,,,,
525080,001,2022-11-21_24h52.02.331,Info_measure_main_exp,2022.2.2,Win32,120.1345507,,,,,,,,,,,,,,,,,,masks/mask_005.jpg,,,,,,,,,,,,,,,,,,,,,,,,,,,,,,,,,,,,,,,,,,,,,,,,0,3,3,4,1,,,,,,,,,,,,,,,,,,,,,,,,,,,,,,,,,,,,,,,,,
525080,001,2022-11-21_24h52.02.331,Info_measure_main_exp,2022.2.2,Win32,120.1345507,,,,,,,,,,,,,,,,,,masks/mask_001.jpg,,,,,,,,,,,,,,,,,,,,,,,,,,,,,,,,,,,,,,,,,,,,,,,,0,4,4,0,1,,,,,,,,,,,,,,,,,,,,,,,,,,,,,,,,,,,,,,,,,
525080,001,2022-11-21_24h52.02.331,Info_measure_main_exp,2022.2.2,Win32,120.1345507,,,,,,,,,,,,,,,,,,,,,,,,,,,,,,3,1.8499,1,,,,,,,,,,,,0,131,5,5,1986,2274,absent_patch/patch0001986.jpg,absent_patch/patch0002274.jpg,,,,,,,,,,,,,,,,,,,,-0.052777778,-0.174074074,1,0,0,response5disk,27,0.002777778,0.014814815,1,0,0,center_square,0,26,26,7,1,,,,,,,,,,,,,,,,,,,,,,,
525080,001,2022-11-21_24h52.02.331,Info_measure_main_exp,2022.2.2,Win32,120.1345507,,,,,,,,,,,,,,,,,,masks/mask_003.jpg,,,,,,,,,,,,,,,,,,,,,,,,,,,,,,,,,,,,,,,,,,,0,0,0,2,1,,,,,,,,,,,,,,,,,,,,,,,,,,,,,,,,,,,,,,,,,,,,,,
525080,001,2022-11-21_24h52.02.331,Info_measure_main_exp,2022.2.2,Win32,120.1345507,,,,,,,,,,,,,,,,,,masks/mask_005.jpg,,,,,,,,,,,,,,,,,,,,,,,,,,,,,,,,,,,,,,,,,,,0,1,1,4,1,,,,,,,,,,,,,,,,,,,,,,,,,,,,,,,,,,,,,,,,,,,,,,
525080,001,2022-11-21_24h52.02.331,Info_measure_main_exp,2022.2.2,Win32,120.1345507,,,,,,,,,,,,,,,,,,masks/mask_004.jpg,,,,,,,,,,,,,,,,,,,,,,,,,,,,,,,,,,,,,,,,,,,0,2,2,3,1,,,,,,,,,,,,,,,,,,,,,,,,,,,,,,,,,,,,,,,,,,,,,,
525080,001,2022-11-21_24h52.02.331,Info_measure_main_exp,2022.2.2,Win32,120.1345507,,,,,,,,,,,,,,,,,,masks/mask_002.jpg,,,,,,,,,,,,,,,,,,,,,,,,,,,,,,,,,,,,,,,,,,,0,3,3,1,1,,,,,,,,,,,,,,,,,,,,,,,,,,,,,,,,,,,,,,,,,,,,,,
525080,001,2022-11-21_24h52.02.331,Info_measure_main_exp,2022.2.2,Win32,120.1345507,,,,,,,,,,,,,,,,,,masks/mask_001.jpg,,,,,,,,,,,,,,,,,,,,,,,,,,,,,,,,,,,,,,,,,,,0,4,4,0,1,,,,,,,,,,,,,,,,,,,,,,,,,,,,,,,,,,,,,,,,,,,,,,
525080,001,2022-11-21_24h52.02.331,Info_measure_main_exp,2022.2.2,Win32,120.1345507,,,,,,,,,,,,,,,,,,masks/mask_005.jpg,,,,,,,,,,,,,,,,,,,,,,,,,,,,,,,,,,,,,,,,,,,,,,,,0,0,0,4,1,,,,,,,,,,,,,,,,,,,,,,,,,,,,,,,,,,,,,,,,,
525080,001,2022-11-21_24h52.02.331,Info_measure_main_exp,2022.2.2,Win32,120.1345507,,,,,,,,,,,,,,,,,,masks/mask_002.jpg,,,,,,,,,,,,,,,,,,,,,,,,,,,,,,,,,,,,,,,,,,,,,,,,0,1,1,1,1,,,,,,,,,,,,,,,,,,,,,,,,,,,,,,,,,,,,,,,,,
525080,001,2022-11-21_24h52.02.331,Info_measure_main_exp,2022.2.2,Win32,120.1345507,,,,,,,,,,,,,,,,,,masks/mask_001.jpg,,,,,,,,,,,,,,,,,,,,,,,,,,,,,,,,,,,,,,,,,,,,,,,,0,2,2,0,1,,,,,,,,,,,,,,,,,,,,,,,,,,,,,,,,,,,,,,,,,
525080,001,2022-11-21_24h52.02.331,Info_measure_main_exp,2022.2.2,Win32,120.1345507,,,,,,,,,,,,,,,,,,masks/mask_003.jpg,,,,,,,,,,,,,,,,,,,,,,,,,,,,,,,,,,,,,,,,,,,,,,,,0,3,3,2,1,,,,,,,,,,,,,,,,,,,,,,,,,,,,,,,,,,,,,,,,,
525080,001,2022-11-21_24h52.02.331,Info_measure_main_exp,2022.2.2,Win32,120.1345507,,,,,,,,,,,,,,,,,,masks/mask_004.jpg,,,,,,,,,,,,,,,,,,,,,,,,,,,,,,,,,,,,,,,,,,,,,,,,0,4,4,3,1,,,,,,,,,,,,,,,,,,,,,,,,,,,,,,,,,,,,,,,,,
525080,001,2022-11-21_24h52.02.331,Info_measure_main_exp,2022.2.2,Win32,120.1345507,,,,,,,,,,,,,,,,,,,,,,,,,,,,,,0,0.5832,1,,,,,,,,,,,,0,131,5,5,2250,2250,absent_patch/patch0002250.jpg,absent_patch/patch0002250.jpg,,,,,,,,,,,,,,,,,,,,-0.076851852,0.086111111,1,0,0,response7disk,28,-0.014814815,0.002777778,1,0,0,center_square,0,27,27,56,1,,,,,,,,,,,,,,,,,,,,,,,
525080,001,2022-11-21_24h52.02.331,Info_measure_main_exp,2022.2.2,Win32,120.1345507,,,,,,,,,,,,,,,,,,masks/mask_005.jpg,,,,,,,,,,,,,,,,,,,,,,,,,,,,,,,,,,,,,,,,,,,0,0,0,4,1,,,,,,,,,,,,,,,,,,,,,,,,,,,,,,,,,,,,,,,,,,,,,,
525080,001,2022-11-21_24h52.02.331,Info_measure_main_exp,2022.2.2,Win32,120.1345507,,,,,,,,,,,,,,,,,,masks/mask_003.jpg,,,,,,,,,,,,,,,,,,,,,,,,,,,,,,,,,,,,,,,,,,,0,1,1,2,1,,,,,,,,,,,,,,,,,,,,,,,,,,,,,,,,,,,,,,,,,,,,,,
525080,001,2022-11-21_24h52.02.331,Info_measure_main_exp,2022.2.2,Win32,120.1345507,,,,,,,,,,,,,,,,,,masks/mask_004.jpg,,,,,,,,,,,,,,,,,,,,,,,,,,,,,,,,,,,,,,,,,,,0,2,2,3,1,,,,,,,,,,,,,,,,,,,,,,,,,,,,,,,,,,,,,,,,,,,,,,
525080,001,2022-11-21_24h52.02.331,Info_measure_main_exp,2022.2.2,Win32,120.1345507,,,,,,,,,,,,,,,,,,masks/mask_002.jpg,,,,,,,,,,,,,,,,,,,,,,,,,,,,,,,,,,,,,,,,,,,0,3,3,1,1,,,,,,,,,,,,,,,,,,,,,,,,,,,,,,,,,,,,,,,,,,,,,,
525080,001,2022-11-21_24h52.02.331,Info_measure_main_exp,2022.2.2,Win32,120.1345507,,,,,,,,,,,,,,,,,,masks/mask_001.jpg,,,,,,,,,,,,,,,,,,,,,,,,,,,,,,,,,,,,,,,,,,,0,4,4,0,1,,,,,,,,,,,,,,,,,,,,,,,,,,,,,,,,,,,,,,,,,,,,,,
525080,001,2022-11-21_24h52.02.331,Info_measure_main_exp,2022.2.2,Win32,120.1345507,,,,,,,,,,,,,,,,,,masks/mask_002.jpg,,,,,,,,,,,,,,,,,,,,,,,,,,,,,,,,,,,,,,,,,,,,,,,,0,0,0,1,1,,,,,,,,,,,,,,,,,,,,,,,,,,,,,,,,,,,,,,,,,
525080,001,2022-11-21_24h52.02.331,Info_measure_main_exp,2022.2.2,Win32,120.1345507,,,,,,,,,,,,,,,,,,masks/mask_005.jpg,,,,,,,,,,,,,,,,,,,,,,,,,,,,,,,,,,,,,,,,,,,,,,,,0,1,1,4,1,,,,,,,,,,,,,,,,,,,,,,,,,,,,,,,,,,,,,,,,,
525080,001,2022-11-21_24h52.02.331,Info_measure_main_exp,2022.2.2,Win32,120.1345507,,,,,,,,,,,,,,,,,,masks/mask_003.jpg,,,,,,,,,,,,,,,,,,,,,,,,,,,,,,,,,,,,,,,,,,,,,,,,0,2,2,2,1,,,,,,,,,,,,,,,,,,,,,,,,,,,,,,,,,,,,,,,,,
525080,001,2022-11-21_24h52.02.331,Info_measure_main_exp,2022.2.2,Win32,120.1345507,,,,,,,,,,,,,,,,,,masks/mask_001.jpg,,,,,,,,,,,,,,,,,,,,,,,,,,,,,,,,,,,,,,,,,,,,,,,,0,3,3,0,1,,,,,,,,,,,,,,,,,,,,,,,,,,,,,,,,,,,,,,,,,
525080,001,2022-11-21_24h52.02.331,Info_measure_main_exp,2022.2.2,Win32,120.1345507,,,,,,,,,,,,,,,,,,masks/mask_004.jpg,,,,,,,,,,,,,,,,,,,,,,,,,,,,,,,,,,,,,,,,,,,,,,,,0,4,4,3,1,,,,,,,,,,,,,,,,,,,,,,,,,,,,,,,,,,,,,,,,,
525080,001,2022-11-21_24h52.02.331,Info_measure_main_exp,2022.2.2,Win32,120.1345507,,,,,,,,,,,,,,,,,,,,,,,,,,,,,,7,0.5415,1,,,,,,,,,,,,0,131,5,5,2178,2166,absent_patch/patch0002178.jpg,absent_patch/patch0002166.jpg,,,,,,,,,,,,,,,,,,,,0.034259259,0.109259259,1,0,0,response1disk,29,0.003703704,0.012962963,1,0,0,center_square,0,28,28,72,1,,,,,,,,,,,,,,,,,,,,,,,
525080,001,2022-11-21_24h52.02.331,Info_measure_main_exp,2022.2.2,Win32,120.1345507,,,,,,,,,,,,,,,,,,masks/mask_003.jpg,,,,,,,,,,,,,,,,,,,,,,,,,,,,,,,,,,,,,,,,,,,0,0,0,2,1,,,,,,,,,,,,,,,,,,,,,,,,,,,,,,,,,,,,,,,,,,,,,,
525080,001,2022-11-21_24h52.02.331,Info_measure_main_exp,2022.2.2,Win32,120.1345507,,,,,,,,,,,,,,,,,,masks/mask_005.jpg,,,,,,,,,,,,,,,,,,,,,,,,,,,,,,,,,,,,,,,,,,,0,1,1,4,1,,,,,,,,,,,,,,,,,,,,,,,,,,,,,,,,,,,,,,,,,,,,,,
525080,001,2022-11-21_24h52.02.331,Info_measure_main_exp,2022.2.2,Win32,120.1345507,,,,,,,,,,,,,,,,,,masks/mask_001.jpg,,,,,,,,,,,,,,,,,,,,,,,,,,,,,,,,,,,,,,,,,,,0,2,2,0,1,,,,,,,,,,,,,,,,,,,,,,,,,,,,,,,,,,,,,,,,,,,,,,
525080,001,2022-11-21_24h52.02.331,Info_measure_main_exp,2022.2.2,Win32,120.1345507,,,,,,,,,,,,,,,,,,masks/mask_004.jpg,,,,,,,,,,,,,,,,,,,,,,,,,,,,,,,,,,,,,,,,,,,0,3,3,3,1,,,,,,,,,,,,,,,,,,,,,,,,,,,,,,,,,,,,,,,,,,,,,,
525080,001,2022-11-21_24h52.02.331,Info_measure_main_exp,2022.2.2,Win32,120.1345507,,,,,,,,,,,,,,,,,,masks/mask_002.jpg,,,,,,,,,,,,,,,,,,,,,,,,,,,,,,,,,,,,,,,,,,,0,4,4,1,1,,,,,,,,,,,,,,,,,,,,,,,,,,,,,,,,,,,,,,,,,,,,,,
525080,001,2022-11-21_24h52.02.331,Info_measure_main_exp,2022.2.2,Win32,120.1345507,,,,,,,,,,,,,,,,,,masks/mask_003.jpg,,,,,,,,,,,,,,,,,,,,,,,,,,,,,,,,,,,,,,,,,,,,,,,,0,0,0,2,1,,,,,,,,,,,,,,,,,,,,,,,,,,,,,,,,,,,,,,,,,
525080,001,2022-11-21_24h52.02.331,Info_measure_main_exp,2022.2.2,Win32,120.1345507,,,,,,,,,,,,,,,,,,masks/mask_002.jpg,,,,,,,,,,,,,,,,,,,,,,,,,,,,,,,,,,,,,,,,,,,,,,,,0,1,1,1,1,,,,,,,,,,,,,,,,,,,,,,,,,,,,,,,,,,,,,,,,,
525080,001,2022-11-21_24h52.02.331,Info_measure_main_exp,2022.2.2,Win32,120.1345507,,,,,,,,,,,,,,,,,,masks/mask_004.jpg,,,,,,,,,,,,,,,,,,,,,,,,,,,,,,,,,,,,,,,,,,,,,,,,0,2,2,3,1,,,,,,,,,,,,,,,,,,,,,,,,,,,,,,,,,,,,,,,,,
525080,001,2022-11-21_24h52.02.331,Info_measure_main_exp,2022.2.2,Win32,120.1345507,,,,,,,,,,,,,,,,,,masks/mask_005.jpg,,,,,,,,,,,,,,,,,,,,,,,,,,,,,,,,,,,,,,,,,,,,,,,,0,3,3,4,1,,,,,,,,,,,,,,,,,,,,,,,,,,,,,,,,,,,,,,,,,
525080,001,2022-11-21_24h52.02.331,Info_measure_main_exp,2022.2.2,Win32,120.1345507,,,,,,,,,,,,,,,,,,masks/mask_001.jpg,,,,,,,,,,,,,,,,,,,,,,,,,,,,,,,,,,,,,,,,,,,,,,,,0,4,4,0,1,,,,,,,,,,,,,,,,,,,,,,,,,,,,,,,,,,,,,,,,,
525080,001,2022-11-21_24h52.02.331,Info_measure_main_exp,2022.2.2,Win32,120.1345507,,,,,,,,,,,,,,,,,,,,,,,,,,,,,,7,0.5915,1,,,,,,,,,,,,0,131,5,5,1974,2214,absent_patch/patch0001974.jpg,absent_patch/patch0002214.jpg,,,,,,,,,,,,,,,,,,,,0.008333333,0.055555556,1,0,0,response1disk,30,0.010185185,0.011111111,1,0,0,center_square,0,29,29,24,1,,,,,,,,,,,,,,,,,,,,,,,
525080,001,2022-11-21_24h52.02.331,Info_measure_main_exp,2022.2.2,Win32,120.1345507,,,,,,,,,,,,,,,,,,masks/mask_002.jpg,,,,,,,,,,,,,,,,,,,,,,,,,,,,,,,,,,,,,,,,,,,0,0,0,1,1,,,,,,,,,,,,,,,,,,,,,,,,,,,,,,,,,,,,,,,,,,,,,,
525080,001,2022-11-21_24h52.02.331,Info_measure_main_exp,2022.2.2,Win32,120.1345507,,,,,,,,,,,,,,,,,,masks/mask_005.jpg,,,,,,,,,,,,,,,,,,,,,,,,,,,,,,,,,,,,,,,,,,,0,1,1,4,1,,,,,,,,,,,,,,,,,,,,,,,,,,,,,,,,,,,,,,,,,,,,,,
525080,001,2022-11-21_24h52.02.331,Info_measure_main_exp,2022.2.2,Win32,120.1345507,,,,,,,,,,,,,,,,,,masks/mask_001.jpg,,,,,,,,,,,,,,,,,,,,,,,,,,,,,,,,,,,,,,,,,,,0,2,2,0,1,,,,,,,,,,,,,,,,,,,,,,,,,,,,,,,,,,,,,,,,,,,,,,
525080,001,2022-11-21_24h52.02.331,Info_measure_main_exp,2022.2.2,Win32,120.1345507,,,,,,,,,,,,,,,,,,masks/mask_003.jpg,,,,,,,,,,,,,,,,,,,,,,,,,,,,,,,,,,,,,,,,,,,0,3,3,2,1,,,,,,,,,,,,,,,,,,,,,,,,,,,,,,,,,,,,,,,,,,,,,,
525080,001,2022-11-21_24h52.02.331,Info_measure_main_exp,2022.2.2,Win32,120.1345507,,,,,,,,,,,,,,,,,,masks/mask_004.jpg,,,,,,,,,,,,,,,,,,,,,,,,,,,,,,,,,,,,,,,,,,,0,4,4,3,1,,,,,,,,,,,,,,,,,,,,,,,,,,,,,,,,,,,,,,,,,,,,,,
525080,001,2022-11-21_24h52.02.331,Info_measure_main_exp,2022.2.2,Win32,120.1345507,,,,,,,,,,,,,,,,,,masks/mask_004.jpg,,,,,,,,,,,,,,,,,,,,,,,,,,,,,,,,,,,,,,,,,,,,,,,,0,0,0,3,1,,,,,,,,,,,,,,,,,,,,,,,,,,,,,,,,,,,,,,,,,
525080,001,2022-11-21_24h52.02.331,Info_measure_main_exp,2022.2.2,Win32,120.1345507,,,,,,,,,,,,,,,,,,masks/mask_005.jpg,,,,,,,,,,,,,,,,,,,,,,,,,,,,,,,,,,,,,,,,,,,,,,,,0,1,1,4,1,,,,,,,,,,,,,,,,,,,,,,,,,,,,,,,,,,,,,,,,,
525080,001,2022-11-21_24h52.02.331,Info_measure_main_exp,2022.2.2,Win32,120.1345507,,,,,,,,,,,,,,,,,,masks/mask_001.jpg,,,,,,,,,,,,,,,,,,,,,,,,,,,,,,,,,,,,,,,,,,,,,,,,0,2,2,0,1,,,,,,,,,,,,,,,,,,,,,,,,,,,,,,,,,,,,,,,,,
525080,001,2022-11-21_24h52.02.331,Info_measure_main_exp,2022.2.2,Win32,120.1345507,,,,,,,,,,,,,,,,,,masks/mask_002.jpg,,,,,,,,,,,,,,,,,,,,,,,,,,,,,,,,,,,,,,,,,,,,,,,,0,3,3,1,1,,,,,,,,,,,,,,,,,,,,,,,,,,,,,,,,,,,,,,,,,
525080,001,2022-11-21_24h52.02.331,Info_measure_main_exp,2022.2.2,Win32,120.1345507,,,,,,,,,,,,,,,,,,masks/mask_003.jpg,,,,,,,,,,,,,,,,,,,,,,,,,,,,,,,,,,,,,,,,,,,,,,,,0,4,4,2,1,,,,,,,,,,,,,,,,,,,,,,,,,,,,,,,,,,,,,,,,,
525080,001,2022-11-21_24h52.02.331,Info_measure_main_exp,2022.2.2,Win32,120.1345507,,,,,,,,,,,,,,,,,,,,,,,,,,,,,,7,1.0748,1,,,,,,,,,,,,0,131,5,5,2274,2250,absent_patch/patch0002274.jpg,absent_patch/patch0002250.jpg,,,,,,,,,,,,,,,,,,,,0.017592593,0.087962963,1,0,0,response1disk,31,-0.003703704,0.007407407,1,0,0,center_square,0,30,30,28,1,,,,,,,,,,,,,,,,,,,,,,,
525080,001,2022-11-21_24h52.02.331,Info_measure_main_exp,2022.2.2,Win32,120.1345507,,,,,,,,,,,,,,,,,,masks/mask_005.jpg,,,,,,,,,,,,,,,,,,,,,,,,,,,,,,,,,,,,,,,,,,,0,0,0,4,1,,,,,,,,,,,,,,,,,,,,,,,,,,,,,,,,,,,,,,,,,,,,,,
525080,001,2022-11-21_24h52.02.331,Info_measure_main_exp,2022.2.2,Win32,120.1345507,,,,,,,,,,,,,,,,,,masks/mask_003.jpg,,,,,,,,,,,,,,,,,,,,,,,,,,,,,,,,,,,,,,,,,,,0,1,1,2,1,,,,,,,,,,,,,,,,,,,,,,,,,,,,,,,,,,,,,,,,,,,,,,
525080,001,2022-11-21_24h52.02.331,Info_measure_main_exp,2022.2.2,Win32,120.1345507,,,,,,,,,,,,,,,,,,masks/mask_004.jpg,,,,,,,,,,,,,,,,,,,,,,,,,,,,,,,,,,,,,,,,,,,0,2,2,3,1,,,,,,,,,,,,,,,,,,,,,,,,,,,,,,,,,,,,,,,,,,,,,,
525080,001,2022-11-21_24h52.02.331,Info_measure_main_exp,2022.2.2,Win32,120.1345507,,,,,,,,,,,,,,,,,,masks/mask_001.jpg,,,,,,,,,,,,,,,,,,,,,,,,,,,,,,,,,,,,,,,,,,,0,3,3,0,1,,,,,,,,,,,,,,,,,,,,,,,,,,,,,,,,,,,,,,,,,,,,,,
525080,001,2022-11-21_24h52.02.331,Info_measure_main_exp,2022.2.2,Win32,120.1345507,,,,,,,,,,,,,,,,,,masks/mask_002.jpg,,,,,,,,,,,,,,,,,,,,,,,,,,,,,,,,,,,,,,,,,,,0,4,4,1,1,,,,,,,,,,,,,,,,,,,,,,,,,,,,,,,,,,,,,,,,,,,,,,
525080,001,2022-11-21_24h52.02.331,Info_measure_main_exp,2022.2.2,Win32,120.1345507,,,,,,,,,,,,,,,,,,masks/mask_004.jpg,,,,,,,,,,,,,,,,,,,,,,,,,,,,,,,,,,,,,,,,,,,,,,,,0,0,0,3,1,,,,,,,,,,,,,,,,,,,,,,,,,,,,,,,,,,,,,,,,,
525080,001,2022-11-21_24h52.02.331,Info_measure_main_exp,2022.2.2,Win32,120.1345507,,,,,,,,,,,,,,,,,,masks/mask_003.jpg,,,,,,,,,,,,,,,,,,,,,,,,,,,,,,,,,,,,,,,,,,,,,,,,0,1,1,2,1,,,,,,,,,,,,,,,,,,,,,,,,,,,,,,,,,,,,,,,,,
525080,001,2022-11-21_24h52.02.331,Info_measure_main_exp,2022.2.2,Win32,120.1345507,,,,,,,,,,,,,,,,,,masks/mask_002.jpg,,,,,,,,,,,,,,,,,,,,,,,,,,,,,,,,,,,,,,,,,,,,,,,,0,2,2,1,1,,,,,,,,,,,,,,,,,,,,,,,,,,,,,,,,,,,,,,,,,
525080,001,2022-11-21_24h52.02.331,Info_measure_main_exp,2022.2.2,Win32,120.1345507,,,,,,,,,,,,,,,,,,masks/mask_001.jpg,,,,,,,,,,,,,,,,,,,,,,,,,,,,,,,,,,,,,,,,,,,,,,,,0,3,3,0,1,,,,,,,,,,,,,,,,,,,,,,,,,,,,,,,,,,,,,,,,,
525080,001,2022-11-21_24h52.02.331,Info_measure_main_exp,2022.2.2,Win32,120.1345507,,,,,,,,,,,,,,,,,,masks/mask_005.jpg,,,,,,,,,,,,,,,,,,,,,,,,,,,,,,,,,,,,,,,,,,,,,,,,0,4,4,4,1,,,,,,,,,,,,,,,,,,,,,,,,,,,,,,,,,,,,,,,,,
525080,001,2022-11-21_24h52.02.331,Info_measure_main_exp,2022.2.2,Win32,120.1345507,,,,,,,,,,,,,,,,,,,,,,,,,,,,,,7,0.4655,1,,,,,,,,,,,,0,131,5,5,2178,2238,absent_patch/patch0002178.jpg,absent_patch/patch0002238.jpg,,,,,,,,,,,,,,,,,,,,0.037037037,0.109259259,1,0,0,response1disk,32,-0.007407407,0,1,0,0,center_square,0,31,31,57,1,,,,,,,,,,,,,,,,,,,,,,,
525080,001,2022-11-21_24h52.02.331,Info_measure_main_exp,2022.2.2,Win32,120.1345507,,,,,,,,,,,,,,,,,,masks/mask_003.jpg,,,,,,,,,,,,,,,,,,,,,,,,,,,,,,,,,,,,,,,,,,,0,0,0,2,1,,,,,,,,,,,,,,,,,,,,,,,,,,,,,,,,,,,,,,,,,,,,,,
525080,001,2022-11-21_24h52.02.331,Info_measure_main_exp,2022.2.2,Win32,120.1345507,,,,,,,,,,,,,,,,,,masks/mask_001.jpg,,,,,,,,,,,,,,,,,,,,,,,,,,,,,,,,,,,,,,,,,,,0,1,1,0,1,,,,,,,,,,,,,,,,,,,,,,,,,,,,,,,,,,,,,,,,,,,,,,
525080,001,2022-11-21_24h52.02.331,Info_measure_main_exp,2022.2.2,Win32,120.1345507,,,,,,,,,,,,,,,,,,masks/mask_004.jpg,,,,,,,,,,,,,,,,,,,,,,,,,,,,,,,,,,,,,,,,,,,0,2,2,3,1,,,,,,,,,,,,,,,,,,,,,,,,,,,,,,,,,,,,,,,,,,,,,,
525080,001,2022-11-21_24h52.02.331,Info_measure_main_exp,2022.2.2,Win32,120.1345507,,,,,,,,,,,,,,,,,,masks/mask_005.jpg,,,,,,,,,,,,,,,,,,,,,,,,,,,,,,,,,,,,,,,,,,,0,3,3,4,1,,,,,,,,,,,,,,,,,,,,,,,,,,,,,,,,,,,,,,,,,,,,,,
525080,001,2022-11-21_24h52.02.331,Info_measure_main_exp,2022.2.2,Win32,120.1345507,,,,,,,,,,,,,,,,,,masks/mask_002.jpg,,,,,,,,,,,,,,,,,,,,,,,,,,,,,,,,,,,,,,,,,,,0,4,4,1,1,,,,,,,,,,,,,,,,,,,,,,,,,,,,,,,,,,,,,,,,,,,,,,
525080,001,2022-11-21_24h52.02.331,Info_measure_main_exp,2022.2.2,Win32,120.1345507,,,,,,,,,,,,,,,,,,masks/mask_005.jpg,,,,,,,,,,,,,,,,,,,,,,,,,,,,,,,,,,,,,,,,,,,,,,,,0,0,0,4,1,,,,,,,,,,,,,,,,,,,,,,,,,,,,,,,,,,,,,,,,,
525080,001,2022-11-21_24h52.02.331,Info_measure_main_exp,2022.2.2,Win32,120.1345507,,,,,,,,,,,,,,,,,,masks/mask_002.jpg,,,,,,,,,,,,,,,,,,,,,,,,,,,,,,,,,,,,,,,,,,,,,,,,0,1,1,1,1,,,,,,,,,,,,,,,,,,,,,,,,,,,,,,,,,,,,,,,,,
525080,001,2022-11-21_24h52.02.331,Info_measure_main_exp,2022.2.2,Win32,120.1345507,,,,,,,,,,,,,,,,,,masks/mask_001.jpg,,,,,,,,,,,,,,,,,,,,,,,,,,,,,,,,,,,,,,,,,,,,,,,,0,2,2,0,1,,,,,,,,,,,,,,,,,,,,,,,,,,,,,,,,,,,,,,,,,
525080,001,2022-11-21_24h52.02.331,Info_measure_main_exp,2022.2.2,Win32,120.1345507,,,,,,,,,,,,,,,,,,masks/mask_003.jpg,,,,,,,,,,,,,,,,,,,,,,,,,,,,,,,,,,,,,,,,,,,,,,,,0,3,3,2,1,,,,,,,,,,,,,,,,,,,,,,,,,,,,,,,,,,,,,,,,,
525080,001,2022-11-21_24h52.02.331,Info_measure_main_exp,2022.2.2,Win32,120.1345507,,,,,,,,,,,,,,,,,,masks/mask_004.jpg,,,,,,,,,,,,,,,,,,,,,,,,,,,,,,,,,,,,,,,,,,,,,,,,0,4,4,3,1,,,,,,,,,,,,,,,,,,,,,,,,,,,,,,,,,,,,,,,,,
525080,001,2022-11-21_24h52.02.331,Info_measure_main_exp,2022.2.2,Win32,120.1345507,,,,,,,,,,,,,,,,,,,,,,,,,,,,,,2,1.9637,1,,,,,,,,,,,,0,131,5,5,1950,2082,absent_patch/patch0001950.jpg,absent_patch/patch0002082.jpg,,,,,,,,,,,,,,,,,,,,-0.140740741,-0.040740741,1,0,0,response5disk,33,-0.016666667,0.000925926,1,0,0,center_square,0,32,32,12,1,,,,,,,,,,,,,,,,,,,,,,,
525080,001,2022-11-21_24h52.02.331,Info_measure_main_exp,2022.2.2,Win32,120.1345507,,,,,,,,,,,,,,,,,,masks/mask_005.jpg,,,,,,,,,,,,,,,,,,,,,,,,,,,,,,,,,,,,,,,,,,,0,0,0,4,1,,,,,,,,,,,,,,,,,,,,,,,,,,,,,,,,,,,,,,,,,,,,,,
525080,001,2022-11-21_24h52.02.331,Info_measure_main_exp,2022.2.2,Win32,120.1345507,,,,,,,,,,,,,,,,,,masks/mask_004.jpg,,,,,,,,,,,,,,,,,,,,,,,,,,,,,,,,,,,,,,,,,,,0,1,1,3,1,,,,,,,,,,,,,,,,,,,,,,,,,,,,,,,,,,,,,,,,,,,,,,
525080,001,2022-11-21_24h52.02.331,Info_measure_main_exp,2022.2.2,Win32,120.1345507,,,,,,,,,,,,,,,,,,masks/mask_003.jpg,,,,,,,,,,,,,,,,,,,,,,,,,,,,,,,,,,,,,,,,,,,0,2,2,2,1,,,,,,,,,,,,,,,,,,,,,,,,,,,,,,,,,,,,,,,,,,,,,,
525080,001,2022-11-21_24h52.02.331,Info_measure_main_exp,2022.2.2,Win32,120.1345507,,,,,,,,,,,,,,,,,,masks/mask_002.jpg,,,,,,,,,,,,,,,,,,,,,,,,,,,,,,,,,,,,,,,,,,,0,3,3,1,1,,,,,,,,,,,,,,,,,,,,,,,,,,,,,,,,,,,,,,,,,,,,,,
525080,001,2022-11-21_24h52.02.331,Info_measure_main_exp,2022.2.2,Win32,120.1345507,,,,,,,,,,,,,,,,,,masks/mask_001.jpg,,,,,,,,,,,,,,,,,,,,,,,,,,,,,,,,,,,,,,,,,,,0,4,4,0,1,,,,,,,,,,,,,,,,,,,,,,,,,,,,,,,,,,,,,,,,,,,,,,
525080,001,2022-11-21_24h52.02.331,Info_measure_main_exp,2022.2.2,Win32,120.1345507,,,,,,,,,,,,,,,,,,masks/mask_005.jpg,,,,,,,,,,,,,,,,,,,,,,,,,,,,,,,,,,,,,,,,,,,,,,,,0,0,0,4,1,,,,,,,,,,,,,,,,,,,,,,,,,,,,,,,,,,,,,,,,,
525080,001,2022-11-21_24h52.02.331,Info_measure_main_exp,2022.2.2,Win32,120.1345507,,,,,,,,,,,,,,,,,,masks/mask_001.jpg,,,,,,,,,,,,,,,,,,,,,,,,,,,,,,,,,,,,,,,,,,,,,,,,0,1,1,0,1,,,,,,,,,,,,,,,,,,,,,,,,,,,,,,,,,,,,,,,,,
525080,001,2022-11-21_24h52.02.331,Info_measure_main_exp,2022.2.2,Win32,120.1345507,,,,,,,,,,,,,,,,,,masks/mask_003.jpg,,,,,,,,,,,,,,,,,,,,,,,,,,,,,,,,,,,,,,,,,,,,,,,,0,2,2,2,1,,,,,,,,,,,,,,,,,,,,,,,,,,,,,,,,,,,,,,,,,
525080,001,2022-11-21_24h52.02.331,Info_measure_main_exp,2022.2.2,Win32,120.1345507,,,,,,,,,,,,,,,,,,masks/mask_002.jpg,,,,,,,,,,,,,,,,,,,,,,,,,,,,,,,,,,,,,,,,,,,,,,,,0,3,3,1,1,,,,,,,,,,,,,,,,,,,,,,,,,,,,,,,,,,,,,,,,,
525080,001,2022-11-21_24h52.02.331,Info_measure_main_exp,2022.2.2,Win32,120.1345507,,,,,,,,,,,,,,,,,,masks/mask_004.jpg,,,,,,,,,,,,,,,,,,,,,,,,,,,,,,,,,,,,,,,,,,,,,,,,0,4,4,3,1,,,,,,,,,,,,,,,,,,,,,,,,,,,,,,,,,,,,,,,,,
525080,001,2022-11-21_24h52.02.331,Info_measure_main_exp,2022.2.2,Win32,120.1345507,,,,,,,,,,,,,,,,,,,,,,,,,,,,,,7,0.6063,1,,,,,,,,,,,,0,131,5,5,1950,2238,absent_patch/patch0001950.jpg,absent_patch/patch0002238.jpg,,,,,,,,,,,,,,,,,,,,0.033333333,0.068518519,1,0,0,response1disk,34,-0.010185185,-0.011111111,1,0,0,center_square,0,33,33,8,1,,,,,,,,,,,,,,,,,,,,,,,
525080,001,2022-11-21_24h52.02.331,Info_measure_main_exp,2022.2.2,Win32,120.1345507,,,,,,,,,,,,,,,,,,masks/mask_001.jpg,,,,,,,,,,,,,,,,,,,,,,,,,,,,,,,,,,,,,,,,,,,0,0,0,0,1,,,,,,,,,,,,,,,,,,,,,,,,,,,,,,,,,,,,,,,,,,,,,,
525080,001,2022-11-21_24h52.02.331,Info_measure_main_exp,2022.2.2,Win32,120.1345507,,,,,,,,,,,,,,,,,,masks/mask_002.jpg,,,,,,,,,,,,,,,,,,,,,,,,,,,,,,,,,,,,,,,,,,,0,1,1,1,1,,,,,,,,,,,,,,,,,,,,,,,,,,,,,,,,,,,,,,,,,,,,,,
525080,001,2022-11-21_24h52.02.331,Info_measure_main_exp,2022.2.2,Win32,120.1345507,,,,,,,,,,,,,,,,,,masks/mask_003.jpg,,,,,,,,,,,,,,,,,,,,,,,,,,,,,,,,,,,,,,,,,,,0,2,2,2,1,,,,,,,,,,,,,,,,,,,,,,,,,,,,,,,,,,,,,,,,,,,,,,
525080,001,2022-11-21_24h52.02.331,Info_measure_main_exp,2022.2.2,Win32,120.1345507,,,,,,,,,,,,,,,,,,masks/mask_005.jpg,,,,,,,,,,,,,,,,,,,,,,,,,,,,,,,,,,,,,,,,,,,0,3,3,4,1,,,,,,,,,,,,,,,,,,,,,,,,,,,,,,,,,,,,,,,,,,,,,,
525080,001,2022-11-21_24h52.02.331,Info_measure_main_exp,2022.2.2,Win32,120.1345507,,,,,,,,,,,,,,,,,,masks/mask_004.jpg,,,,,,,,,,,,,,,,,,,,,,,,,,,,,,,,,,,,,,,,,,,0,4,4,3,1,,,,,,,,,,,,,,,,,,,,,,,,,,,,,,,,,,,,,,,,,,,,,,
525080,001,2022-11-21_24h52.02.331,Info_measure_main_exp,2022.2.2,Win32,120.1345507,,,,,,,,,,,,,,,,,,masks/mask_002.jpg,,,,,,,,,,,,,,,,,,,,,,,,,,,,,,,,,,,,,,,,,,,,,,,,0,0,0,1,1,,,,,,,,,,,,,,,,,,,,,,,,,,,,,,,,,,,,,,,,,
525080,001,2022-11-21_24h52.02.331,Info_measure_main_exp,2022.2.2,Win32,120.1345507,,,,,,,,,,,,,,,,,,masks/mask_004.jpg,,,,,,,,,,,,,,,,,,,,,,,,,,,,,,,,,,,,,,,,,,,,,,,,0,1,1,3,1,,,,,,,,,,,,,,,,,,,,,,,,,,,,,,,,,,,,,,,,,
525080,001,2022-11-21_24h52.02.331,Info_measure_main_exp,2022.2.2,Win32,120.1345507,,,,,,,,,,,,,,,,,,masks/mask_005.jpg,,,,,,,,,,,,,,,,,,,,,,,,,,,,,,,,,,,,,,,,,,,,,,,,0,2,2,4,1,,,,,,,,,,,,,,,,,,,,,,,,,,,,,,,,,,,,,,,,,
525080,001,2022-11-21_24h52.02.331,Info_measure_main_exp,2022.2.2,Win32,120.1345507,,,,,,,,,,,,,,,,,,masks/mask_001.jpg,,,,,,,,,,,,,,,,,,,,,,,,,,,,,,,,,,,,,,,,,,,,,,,,0,3,3,0,1,,,,,,,,,,,,,,,,,,,,,,,,,,,,,,,,,,,,,,,,,
