participant,session,date,expName,psychopyVersion,OS,frameRate,space_press_continue.keys,space_press_continue.rt,space_press_continue_2.keys,space_press_continue_2.rt,space_press_continue_3.keys,space_press_continue_3.rt,space_press_continue_4.keys,space_press_continue_4.rt,space_press_continue_5.keys,space_press_continue_5.rt,space_press_continue_6.keys,space_press_continue_6.rt,prac_mask_loop_1.thisRepN,prac_mask_loop_1.thisTrialN,prac_mask_loop_1.thisN,prac_mask_loop_1.thisIndex,prac_mask_loop_1.ran,mask_name,prac_mask_loop_2.thisRepN,prac_mask_loop_2.thisTrialN,prac_mask_loop_2.thisN,prac_mask_loop_2.thisIndex,prac_mask_loop_2.ran,mouse_2.x,mouse_2.y,mouse_2.leftButton,mouse_2.midButton,mouse_2.rightButton,mouse_2.clicked_name,similarity,response_time,Pass,mouse_12.x,mouse_12.y,mouse_12.leftButton,mouse_12.midButton,mouse_12.rightButton,mouse_12.clicked_name,prac_loop.thisRepN,prac_loop.thisTrialN,prac_loop.thisN,prac_loop.thisIndex,prac_loop.ran,Pair_type,Image_num,Patch_1_loc,Patch_2_loc,Patch_1_info,Patch_2_info,Patch_1_name,Patch_2_name,mouse_1.x,mouse_1.y,mouse_1.leftButton,mouse_1.midButton,mouse_1.rightButton,mouse_1.time,mouse_1.clicked_name,space_press_continue_7.keys,space_press_continue_7.rt,mask_loop.thisRepN,mask_loop.thisTrialN,mask_loop.thisN,mask_loop.thisIndex,mask_loop.ran,mask_loop_2.thisRepN,mask_loop_2.thisTrialN,mask_loop_2.thisN,mask_loop_2.thisIndex,mask_loop_2.ran,mouse.x,mouse.y,mouse.leftButton,mouse.midButton,mouse.rightButton,mouse.clicked_name,trialNumber,mouse_11.x,mouse_11.y,mouse_11.leftButton,mouse_11.midButton,mouse_11.rightButton,mouse_11.clicked_name,first_pass_loop.thisRepN,first_pass_loop.thisTrialN,first_pass_loop.thisN,first_pass_loop.thisIndex,first_pass_loop.ran,mask_loop_3.thisRepN,mask_loop_3.thisTrialN,mask_loop_3.thisN,mask_loop_3.thisIndex,mask_loop_3.ran,mask_loop_4.thisRepN,mask_loop_4.thisTrialN,mask_loop_4.thisN,mask_loop_4.thisIndex,mask_loop_4.ran,mouse_3.x,mouse_3.y,mouse_3.leftButton,mouse_3.midButton,mouse_3.rightButton,mouse_3.clicked_name,double_pass_loop.thisRepN,double_pass_loop.thisTrialN,double_pass_loop.thisN,double_pass_loop.thisIndex,double_pass_loop.ran,space_exit.keys,space_exit.rt
531052,001,2022-11-21_24h49.57.356,Info_measure_main_exp,2022.2.2,Win32,59.77643613,,,,,,,,,,,,,,,,,,,,,,,,,,,,,,,,,,,,,,,,,,,,,,,,,,,,,,,,,,,,,,,,,,,,,,,,,,,,,,,,,,,,,,,,,,,,,,,,,,,,,,,,,,,,,,,
531052,001,2022-11-21_24h49.57.356,Info_measure_main_exp,2022.2.2,Win32,59.77643613,,,,,,,,,,,,,,,,,,,,,,,,,,,,,,,,,,,,,,,,,,,,,,,,,,,,,,,,,,,,,,,,,,,,,,,,,,,,,,,,,,,,,,,,,,,,,,,,,,,,,,,,,,,,,,,
531052,001,2022-11-21_24h49.57.356,Info_measure_main_exp,2022.2.2,Win32,59.77643613,space,30.7054,,,,,,,,,,,,,,,,,,,,,,,,,,,,,,,,,,,,,,,,,,,,,,,,,,,,,,,,,,,,,,,,,,,,,,,,,,,,,,,,,,,,,,,,,,,,,,,,,,,,,,,,,,,,,
531052,001,2022-11-21_24h49.57.356,Info_measure_main_exp,2022.2.2,Win32,59.77643613,,,space,20.101,,,,,,,,,,,,,,,,,,,,,,,,,,,,,,,,,,,,,,,,,,,,,,,,,,,,,,,,,,,,,,,,,,,,,,,,,,,,,,,,,,,,,,,,,,,,,,,,,,,,,,,,,,,
531052,001,2022-11-21_24h49.57.356,Info_measure_main_exp,2022.2.2,Win32,59.77643613,,,,,space,11.6314,,,,,,,,,,,,,,,,,,,,,,,,,,,,,,,,,,,,,,,,,,,,,,,,,,,,,,,,,,,,,,,,,,,,,,,,,,,,,,,,,,,,,,,,,,,,,,,,,,,,,,,,,
531052,001,2022-11-21_24h49.57.356,Info_measure_main_exp,2022.2.2,Win32,59.77643613,,,,,,,space,88.6847,,,,,,,,,,,,,,,,,,,,,,,,,,,,,,,,,,,,,,,,,,,,,,,,,,,,,,,,,,,,,,,,,,,,,,,,,,,,,,,,,,,,,,,,,,,,,,,,,,,,,,,
531052,001,2022-11-21_24h49.57.356,Info_measure_main_exp,2022.2.2,Win32,59.77643613,,,,,,,,,space,9.7782,,,,,,,,,,,,,,,,,,,,,,,,,,,,,,,,,,,,,,,,,,,,,,,,,,,,,,,,,,,,,,,,,,,,,,,,,,,,,,,,,,,,,,,,,,,,,,,,,,,,,
531052,001,2022-11-21_24h49.57.356,Info_measure_main_exp,2022.2.2,Win32,59.77643613,,,,,,,,,,,space,9.4654,,,,,,,,,,,,,,,,,,,,,,,,,,,,,,,,,,,,,,,,,,,,,,,,,,,,,,,,,,,,,,,,,,,,,,,,,,,,,,,,,,,,,,,,,,,,,,,,,,,
531052,001,2022-11-21_24h49.57.356,Info_measure_main_exp,2022.2.2,Win32,59.77643613,,,,,,,,,,,,,0,0,0,0,1,masks/mask_001.jpg,,,,,,,,,,,,,,,,,,,,,,,,,,,,,,,,,,,,,,,,,,,,,,,,,,,,,,,,,,,,,,,,,,,,,,,,,,,,,,,,,,,,,,,,,,,,,
531052,001,2022-11-21_24h49.57.356,Info_measure_main_exp,2022.2.2,Win32,59.77643613,,,,,,,,,,,,,0,1,1,1,1,masks/mask_002.jpg,,,,,,,,,,,,,,,,,,,,,,,,,,,,,,,,,,,,,,,,,,,,,,,,,,,,,,,,,,,,,,,,,,,,,,,,,,,,,,,,,,,,,,,,,,,,,
531052,001,2022-11-21_24h49.57.356,Info_measure_main_exp,2022.2.2,Win32,59.77643613,,,,,,,,,,,,,0,2,2,3,1,masks/mask_004.jpg,,,,,,,,,,,,,,,,,,,,,,,,,,,,,,,,,,,,,,,,,,,,,,,,,,,,,,,,,,,,,,,,,,,,,,,,,,,,,,,,,,,,,,,,,,,,,
531052,001,2022-11-21_24h49.57.356,Info_measure_main_exp,2022.2.2,Win32,59.77643613,,,,,,,,,,,,,0,3,3,2,1,masks/mask_003.jpg,,,,,,,,,,,,,,,,,,,,,,,,,,,,,,,,,,,,,,,,,,,,,,,,,,,,,,,,,,,,,,,,,,,,,,,,,,,,,,,,,,,,,,,,,,,,,
531052,001,2022-11-21_24h49.57.356,Info_measure_main_exp,2022.2.2,Win32,59.77643613,,,,,,,,,,,,,0,4,4,4,1,masks/mask_005.jpg,,,,,,,,,,,,,,,,,,,,,,,,,,,,,,,,,,,,,,,,,,,,,,,,,,,,,,,,,,,,,,,,,,,,,,,,,,,,,,,,,,,,,,,,,,,,,
531052,001,2022-11-21_24h49.57.356,Info_measure_main_exp,2022.2.2,Win32,59.77643613,,,,,,,,,,,,,,,,,,masks/mask_001.jpg,0,0,0,0,1,,,,,,,,,,,,,,,,,,,,,,,,,,,,,,,,,,,,,,,,,,,,,,,,,,,,,,,,,,,,,,,,,,,,,,,,,,,,,,,,,,,,,,,,
531052,001,2022-11-21_24h49.57.356,Info_measure_main_exp,2022.2.2,Win32,59.77643613,,,,,,,,,,,,,,,,,,masks/mask_005.jpg,0,1,1,4,1,,,,,,,,,,,,,,,,,,,,,,,,,,,,,,,,,,,,,,,,,,,,,,,,,,,,,,,,,,,,,,,,,,,,,,,,,,,,,,,,,,,,,,,,
531052,001,2022-11-21_24h49.57.356,Info_measure_main_exp,2022.2.2,Win32,59.77643613,,,,,,,,,,,,,,,,,,masks/mask_003.jpg,0,2,2,2,1,,,,,,,,,,,,,,,,,,,,,,,,,,,,,,,,,,,,,,,,,,,,,,,,,,,,,,,,,,,,,,,,,,,,,,,,,,,,,,,,,,,,,,,,
531052,001,2022-11-21_24h49.57.356,Info_measure_main_exp,2022.2.2,Win32,59.77643613,,,,,,,,,,,,,,,,,,masks/mask_004.jpg,0,3,3,3,1,,,,,,,,,,,,,,,,,,,,,,,,,,,,,,,,,,,,,,,,,,,,,,,,,,,,,,,,,,,,,,,,,,,,,,,,,,,,,,,,,,,,,,,,
531052,001,2022-11-21_24h49.57.356,Info_measure_main_exp,2022.2.2,Win32,59.77643613,,,,,,,,,,,,,,,,,,masks/mask_002.jpg,0,4,4,1,1,,,,,,,,,,,,,,,,,,,,,,,,,,,,,,,,,,,,,,,,,,,,,,,,,,,,,,,,,,,,,,,,,,,,,,,,,,,,,,,,,,,,,,,,
531052,001,2022-11-21_24h49.57.356,Info_measure_main_exp,2022.2.2,Win32,59.77643613,,,,,,,,,,,,,,,,,,,,,,,,0.15625,0.026041667,1,0,0,response1disk,6,181.2412,1,0.001302083,-0.001302083,1,0,0,center_square,0,0,0,0,1,0,131,5,5,2370,2406,prac_patch/patch0002370.jpg,prac_patch/patch0002406.jpg,,,,,,,,,,,,,,,,,,,,,,,,,,,,,,,,,,,,,,,,,,,,,,,,,,,,,,,,,,,,
531052,001,2022-11-21_24h49.57.356,Info_measure_main_exp,2022.2.2,Win32,59.77643613,,,,,,,,,,,,,0,0,0,0,1,masks/mask_001.jpg,,,,,,,,,,,,,,,,,,,,,,,,,,,,,,,,,,,,,,,,,,,,,,,,,,,,,,,,,,,,,,,,,,,,,,,,,,,,,,,,,,,,,,,,,,,,,
531052,001,2022-11-21_24h49.57.356,Info_measure_main_exp,2022.2.2,Win32,59.77643613,,,,,,,,,,,,,0,1,1,3,1,masks/mask_004.jpg,,,,,,,,,,,,,,,,,,,,,,,,,,,,,,,,,,,,,,,,,,,,,,,,,,,,,,,,,,,,,,,,,,,,,,,,,,,,,,,,,,,,,,,,,,,,,
531052,001,2022-11-21_24h49.57.356,Info_measure_main_exp,2022.2.2,Win32,59.77643613,,,,,,,,,,,,,0,2,2,4,1,masks/mask_005.jpg,,,,,,,,,,,,,,,,,,,,,,,,,,,,,,,,,,,,,,,,,,,,,,,,,,,,,,,,,,,,,,,,,,,,,,,,,,,,,,,,,,,,,,,,,,,,,
531052,001,2022-11-21_24h49.57.356,Info_measure_main_exp,2022.2.2,Win32,59.77643613,,,,,,,,,,,,,0,3,3,2,1,masks/mask_003.jpg,,,,,,,,,,,,,,,,,,,,,,,,,,,,,,,,,,,,,,,,,,,,,,,,,,,,,,,,,,,,,,,,,,,,,,,,,,,,,,,,,,,,,,,,,,,,,
531052,001,2022-11-21_24h49.57.356,Info_measure_main_exp,2022.2.2,Win32,59.77643613,,,,,,,,,,,,,0,4,4,1,1,masks/mask_002.jpg,,,,,,,,,,,,,,,,,,,,,,,,,,,,,,,,,,,,,,,,,,,,,,,,,,,,,,,,,,,,,,,,,,,,,,,,,,,,,,,,,,,,,,,,,,,,,
531052,001,2022-11-21_24h49.57.356,Info_measure_main_exp,2022.2.2,Win32,59.77643613,,,,,,,,,,,,,,,,,,masks/mask_001.jpg,0,0,0,0,1,,,,,,,,,,,,,,,,,,,,,,,,,,,,,,,,,,,,,,,,,,,,,,,,,,,,,,,,,,,,,,,,,,,,,,,,,,,,,,,,,,,,,,,,
531052,001,2022-11-21_24h49.57.356,Info_measure_main_exp,2022.2.2,Win32,59.77643613,,,,,,,,,,,,,,,,,,masks/mask_003.jpg,0,1,1,2,1,,,,,,,,,,,,,,,,,,,,,,,,,,,,,,,,,,,,,,,,,,,,,,,,,,,,,,,,,,,,,,,,,,,,,,,,,,,,,,,,,,,,,,,,
531052,001,2022-11-21_24h49.57.356,Info_measure_main_exp,2022.2.2,Win32,59.77643613,,,,,,,,,,,,,,,,,,masks/mask_005.jpg,0,2,2,4,1,,,,,,,,,,,,,,,,,,,,,,,,,,,,,,,,,,,,,,,,,,,,,,,,,,,,,,,,,,,,,,,,,,,,,,,,,,,,,,,,,,,,,,,,
531052,001,2022-11-21_24h49.57.356,Info_measure_main_exp,2022.2.2,Win32,59.77643613,,,,,,,,,,,,,,,,,,masks/mask_004.jpg,0,3,3,3,1,,,,,,,,,,,,,,,,,,,,,,,,,,,,,,,,,,,,,,,,,,,,,,,,,,,,,,,,,,,,,,,,,,,,,,,,,,,,,,,,,,,,,,,,
531052,001,2022-11-21_24h49.57.356,Info_measure_main_exp,2022.2.2,Win32,59.77643613,,,,,,,,,,,,,,,,,,masks/mask_002.jpg,0,4,4,1,1,,,,,,,,,,,,,,,,,,,,,,,,,,,,,,,,,,,,,,,,,,,,,,,,,,,,,,,,,,,,,,,,,,,,,,,,,,,,,,,,,,,,,,,,
531052,001,2022-11-21_24h49.57.356,Info_measure_main_exp,2022.2.2,Win32,59.77643613,,,,,,,,,,,,,,,,,,,,,,,,0.115885417,-0.049479167,1,0,0,response3disk,5,199.059,1,0.001302083,-0.006510417,1,0,0,center_square,0,1,1,1,1,0,131,5,5,2514,2490,prac_patch/patch0002514.jpg,prac_patch/patch0002490.jpg,,,,,,,,,,,,,,,,,,,,,,,,,,,,,,,,,,,,,,,,,,,,,,,,,,,,,,,,,,,,
531052,001,2022-11-21_24h49.57.356,Info_measure_main_exp,2022.2.2,Win32,59.77643613,,,,,,,,,,,,,0,0,0,3,1,masks/mask_004.jpg,,,,,,,,,,,,,,,,,,,,,,,,,,,,,,,,,,,,,,,,,,,,,,,,,,,,,,,,,,,,,,,,,,,,,,,,,,,,,,,,,,,,,,,,,,,,,
531052,001,2022-11-21_24h49.57.356,Info_measure_main_exp,2022.2.2,Win32,59.77643613,,,,,,,,,,,,,0,1,1,0,1,masks/mask_001.jpg,,,,,,,,,,,,,,,,,,,,,,,,,,,,,,,,,,,,,,,,,,,,,,,,,,,,,,,,,,,,,,,,,,,,,,,,,,,,,,,,,,,,,,,,,,,,,
531052,001,2022-11-21_24h49.57.356,Info_measure_main_exp,2022.2.2,Win32,59.77643613,,,,,,,,,,,,,0,2,2,1,1,masks/mask_002.jpg,,,,,,,,,,,,,,,,,,,,,,,,,,,,,,,,,,,,,,,,,,,,,,,,,,,,,,,,,,,,,,,,,,,,,,,,,,,,,,,,,,,,,,,,,,,,,
531052,001,2022-11-21_24h49.57.356,Info_measure_main_exp,2022.2.2,Win32,59.77643613,,,,,,,,,,,,,0,3,3,2,1,masks/mask_003.jpg,,,,,,,,,,,,,,,,,,,,,,,,,,,,,,,,,,,,,,,,,,,,,,,,,,,,,,,,,,,,,,,,,,,,,,,,,,,,,,,,,,,,,,,,,,,,,
531052,001,2022-11-21_24h49.57.356,Info_measure_main_exp,2022.2.2,Win32,59.77643613,,,,,,,,,,,,,0,4,4,4,1,masks/mask_005.jpg,,,,,,,,,,,,,,,,,,,,,,,,,,,,,,,,,,,,,,,,,,,,,,,,,,,,,,,,,,,,,,,,,,,,,,,,,,,,,,,,,,,,,,,,,,,,,
531052,001,2022-11-21_24h49.57.356,Info_measure_main_exp,2022.2.2,Win32,59.77643613,,,,,,,,,,,,,,,,,,masks/mask_005.jpg,0,0,0,4,1,,,,,,,,,,,,,,,,,,,,,,,,,,,,,,,,,,,,,,,,,,,,,,,,,,,,,,,,,,,,,,,,,,,,,,,,,,,,,,,,,,,,,,,,
531052,001,2022-11-21_24h49.57.356,Info_measure_main_exp,2022.2.2,Win32,59.77643613,,,,,,,,,,,,,,,,,,masks/mask_001.jpg,0,1,1,0,1,,,,,,,,,,,,,,,,,,,,,,,,,,,,,,,,,,,,,,,,,,,,,,,,,,,,,,,,,,,,,,,,,,,,,,,,,,,,,,,,,,,,,,,,
531052,001,2022-11-21_24h49.57.356,Info_measure_main_exp,2022.2.2,Win32,59.77643613,,,,,,,,,,,,,,,,,,masks/mask_003.jpg,0,2,2,2,1,,,,,,,,,,,,,,,,,,,,,,,,,,,,,,,,,,,,,,,,,,,,,,,,,,,,,,,,,,,,,,,,,,,,,,,,,,,,,,,,,,,,,,,,
531052,001,2022-11-21_24h49.57.356,Info_measure_main_exp,2022.2.2,Win32,59.77643613,,,,,,,,,,,,,,,,,,masks/mask_004.jpg,0,3,3,3,1,,,,,,,,,,,,,,,,,,,,,,,,,,,,,,,,,,,,,,,,,,,,,,,,,,,,,,,,,,,,,,,,,,,,,,,,,,,,,,,,,,,,,,,,
531052,001,2022-11-21_24h49.57.356,Info_measure_main_exp,2022.2.2,Win32,59.77643613,,,,,,,,,,,,,,,,,,masks/mask_002.jpg,0,4,4,1,1,,,,,,,,,,,,,,,,,,,,,,,,,,,,,,,,,,,,,,,,,,,,,,,,,,,,,,,,,,,,,,,,,,,,,,,,,,,,,,,,,,,,,,,,
531052,001,2022-11-21_24h49.57.356,Info_measure_main_exp,2022.2.2,Win32,59.77643613,,,,,,,,,,,,,,,,,,,,,,,,-0.052083333,0.1484375,1,0,0,response7disk,0,207.7132,1,0.005208333,0.002604167,1,0,0,center_square,0,2,2,2,1,0,131,5,5,2526,2526,prac_patch/patch0002526.jpg,prac_patch/patch0002526.jpg,,,,,,,,,,,,,,,,,,,,,,,,,,,,,,,,,,,,,,,,,,,,,,,,,,,,,,,,,,,,
531052,001,2022-11-21_24h49.57.356,Info_measure_main_exp,2022.2.2,Win32,59.77643613,,,,,,,,,,,,,,,,,,,,,,,,,,,,,,,,,,,,,,,,,,,,,,,,,,,,,,,,,,,space,2.2721,,,,,,,,,,,,,,,,,,,,,,,,,,,,,,,,,,,,,,,,,,,,,,,,,,,
531052,001,2022-11-21_24h49.57.356,Info_measure_main_exp,2022.2.2,Win32,59.77643613,,,,,,,,,,,,,,,,,,masks/mask_003.jpg,,,,,,,,,,,,,,,,,,,,,,,,,,,,,,,,,,,,,,,,,,,0,0,0,2,1,,,,,,,,,,,,,,,,,,,,,,,,,,,,,,,,,,,,,,,,,,,,,,
531052,001,2022-11-21_24h49.57.356,Info_measure_main_exp,2022.2.2,Win32,59.77643613,,,,,,,,,,,,,,,,,,masks/mask_004.jpg,,,,,,,,,,,,,,,,,,,,,,,,,,,,,,,,,,,,,,,,,,,0,1,1,3,1,,,,,,,,,,,,,,,,,,,,,,,,,,,,,,,,,,,,,,,,,,,,,,
531052,001,2022-11-21_24h49.57.356,Info_measure_main_exp,2022.2.2,Win32,59.77643613,,,,,,,,,,,,,,,,,,masks/mask_002.jpg,,,,,,,,,,,,,,,,,,,,,,,,,,,,,,,,,,,,,,,,,,,0,2,2,1,1,,,,,,,,,,,,,,,,,,,,,,,,,,,,,,,,,,,,,,,,,,,,,,
531052,001,2022-11-21_24h49.57.356,Info_measure_main_exp,2022.2.2,Win32,59.77643613,,,,,,,,,,,,,,,,,,masks/mask_001.jpg,,,,,,,,,,,,,,,,,,,,,,,,,,,,,,,,,,,,,,,,,,,0,3,3,0,1,,,,,,,,,,,,,,,,,,,,,,,,,,,,,,,,,,,,,,,,,,,,,,
531052,001,2022-11-21_24h49.57.356,Info_measure_main_exp,2022.2.2,Win32,59.77643613,,,,,,,,,,,,,,,,,,masks/mask_005.jpg,,,,,,,,,,,,,,,,,,,,,,,,,,,,,,,,,,,,,,,,,,,0,4,4,4,1,,,,,,,,,,,,,,,,,,,,,,,,,,,,,,,,,,,,,,,,,,,,,,
531052,001,2022-11-21_24h49.57.356,Info_measure_main_exp,2022.2.2,Win32,59.77643613,,,,,,,,,,,,,,,,,,masks/mask_005.jpg,,,,,,,,,,,,,,,,,,,,,,,,,,,,,,,,,,,,,,,,,,,,,,,,0,0,0,4,1,,,,,,,,,,,,,,,,,,,,,,,,,,,,,,,,,,,,,,,,,
531052,001,2022-11-21_24h49.57.356,Info_measure_main_exp,2022.2.2,Win32,59.77643613,,,,,,,,,,,,,,,,,,masks/mask_002.jpg,,,,,,,,,,,,,,,,,,,,,,,,,,,,,,,,,,,,,,,,,,,,,,,,0,1,1,1,1,,,,,,,,,,,,,,,,,,,,,,,,,,,,,,,,,,,,,,,,,
531052,001,2022-11-21_24h49.57.356,Info_measure_main_exp,2022.2.2,Win32,59.77643613,,,,,,,,,,,,,,,,,,masks/mask_001.jpg,,,,,,,,,,,,,,,,,,,,,,,,,,,,,,,,,,,,,,,,,,,,,,,,0,2,2,0,1,,,,,,,,,,,,,,,,,,,,,,,,,,,,,,,,,,,,,,,,,
531052,001,2022-11-21_24h49.57.356,Info_measure_main_exp,2022.2.2,Win32,59.77643613,,,,,,,,,,,,,,,,,,masks/mask_004.jpg,,,,,,,,,,,,,,,,,,,,,,,,,,,,,,,,,,,,,,,,,,,,,,,,0,3,3,3,1,,,,,,,,,,,,,,,,,,,,,,,,,,,,,,,,,,,,,,,,,
531052,001,2022-11-21_24h49.57.356,Info_measure_main_exp,2022.2.2,Win32,59.77643613,,,,,,,,,,,,,,,,,,masks/mask_003.jpg,,,,,,,,,,,,,,,,,,,,,,,,,,,,,,,,,,,,,,,,,,,,,,,,0,4,4,2,1,,,,,,,,,,,,,,,,,,,,,,,,,,,,,,,,,,,,,,,,,
531052,001,2022-11-21_24h49.57.356,Info_measure_main_exp,2022.2.2,Win32,59.77643613,,,,,,,,,,,,,,,,,,,,,,,,,,,,,,6,3.6473,1,,,,,,,,,,,,0,131,5,5,2298,2178,absent_patch/patch0002298.jpg,absent_patch/patch0002178.jpg,,,,,,,,,,,,,,,,,,,,0.138020833,0.048177083,1,0,0,response1disk,1,-0.00390625,-0.002604167,1,0,0,center_square,0,0,0,84,1,,,,,,,,,,,,,,,,,,,,,,,
531052,001,2022-11-21_24h49.57.356,Info_measure_main_exp,2022.2.2,Win32,59.77643613,,,,,,,,,,,,,,,,,,masks/mask_005.jpg,,,,,,,,,,,,,,,,,,,,,,,,,,,,,,,,,,,,,,,,,,,0,0,0,4,1,,,,,,,,,,,,,,,,,,,,,,,,,,,,,,,,,,,,,,,,,,,,,,
531052,001,2022-11-21_24h49.57.356,Info_measure_main_exp,2022.2.2,Win32,59.77643613,,,,,,,,,,,,,,,,,,masks/mask_001.jpg,,,,,,,,,,,,,,,,,,,,,,,,,,,,,,,,,,,,,,,,,,,0,1,1,0,1,,,,,,,,,,,,,,,,,,,,,,,,,,,,,,,,,,,,,,,,,,,,,,
531052,001,2022-11-21_24h49.57.356,Info_measure_main_exp,2022.2.2,Win32,59.77643613,,,,,,,,,,,,,,,,,,masks/mask_004.jpg,,,,,,,,,,,,,,,,,,,,,,,,,,,,,,,,,,,,,,,,,,,0,2,2,3,1,,,,,,,,,,,,,,,,,,,,,,,,,,,,,,,,,,,,,,,,,,,,,,
531052,001,2022-11-21_24h49.57.356,Info_measure_main_exp,2022.2.2,Win32,59.77643613,,,,,,,,,,,,,,,,,,masks/mask_002.jpg,,,,,,,,,,,,,,,,,,,,,,,,,,,,,,,,,,,,,,,,,,,0,3,3,1,1,,,,,,,,,,,,,,,,,,,,,,,,,,,,,,,,,,,,,,,,,,,,,,
531052,001,2022-11-21_24h49.57.356,Info_measure_main_exp,2022.2.2,Win32,59.77643613,,,,,,,,,,,,,,,,,,masks/mask_003.jpg,,,,,,,,,,,,,,,,,,,,,,,,,,,,,,,,,,,,,,,,,,,0,4,4,2,1,,,,,,,,,,,,,,,,,,,,,,,,,,,,,,,,,,,,,,,,,,,,,,
531052,001,2022-11-21_24h49.57.356,Info_measure_main_exp,2022.2.2,Win32,59.77643613,,,,,,,,,,,,,,,,,,masks/mask_004.jpg,,,,,,,,,,,,,,,,,,,,,,,,,,,,,,,,,,,,,,,,,,,,,,,,0,0,0,3,1,,,,,,,,,,,,,,,,,,,,,,,,,,,,,,,,,,,,,,,,,
531052,001,2022-11-21_24h49.57.356,Info_measure_main_exp,2022.2.2,Win32,59.77643613,,,,,,,,,,,,,,,,,,masks/mask_005.jpg,,,,,,,,,,,,,,,,,,,,,,,,,,,,,,,,,,,,,,,,,,,,,,,,0,1,1,4,1,,,,,,,,,,,,,,,,,,,,,,,,,,,,,,,,,,,,,,,,,
531052,001,2022-11-21_24h49.57.356,Info_measure_main_exp,2022.2.2,Win32,59.77643613,,,,,,,,,,,,,,,,,,masks/mask_002.jpg,,,,,,,,,,,,,,,,,,,,,,,,,,,,,,,,,,,,,,,,,,,,,,,,0,2,2,1,1,,,,,,,,,,,,,,,,,,,,,,,,,,,,,,,,,,,,,,,,,
531052,001,2022-11-21_24h49.57.356,Info_measure_main_exp,2022.2.2,Win32,59.77643613,,,,,,,,,,,,,,,,,,masks/mask_001.jpg,,,,,,,,,,,,,,,,,,,,,,,,,,,,,,,,,,,,,,,,,,,,,,,,0,3,3,0,1,,,,,,,,,,,,,,,,,,,,,,,,,,,,,,,,,,,,,,,,,
531052,001,2022-11-21_24h49.57.356,Info_measure_main_exp,2022.2.2,Win32,59.77643613,,,,,,,,,,,,,,,,,,masks/mask_003.jpg,,,,,,,,,,,,,,,,,,,,,,,,,,,,,,,,,,,,,,,,,,,,,,,,0,4,4,2,1,,,,,,,,,,,,,,,,,,,,,,,,,,,,,,,,,,,,,,,,,
531052,001,2022-11-21_24h49.57.356,Info_measure_main_exp,2022.2.2,Win32,59.77643613,,,,,,,,,,,,,,,,,,,,,,,,,,,,,,6,1.2896,1,,,,,,,,,,,,0,131,5,5,2154,2190,absent_patch/patch0002154.jpg,absent_patch/patch0002190.jpg,,,,,,,,,,,,,,,,,,,,0.091145833,0.04296875,1,0,0,response1disk,2,0.001302083,0.001302083,1,0,0,center_square,0,1,1,68,1,,,,,,,,,,,,,,,,,,,,,,,
531052,001,2022-11-21_24h49.57.356,Info_measure_main_exp,2022.2.2,Win32,59.77643613,,,,,,,,,,,,,,,,,,masks/mask_003.jpg,,,,,,,,,,,,,,,,,,,,,,,,,,,,,,,,,,,,,,,,,,,0,0,0,2,1,,,,,,,,,,,,,,,,,,,,,,,,,,,,,,,,,,,,,,,,,,,,,,
531052,001,2022-11-21_24h49.57.356,Info_measure_main_exp,2022.2.2,Win32,59.77643613,,,,,,,,,,,,,,,,,,masks/mask_005.jpg,,,,,,,,,,,,,,,,,,,,,,,,,,,,,,,,,,,,,,,,,,,0,1,1,4,1,,,,,,,,,,,,,,,,,,,,,,,,,,,,,,,,,,,,,,,,,,,,,,
531052,001,2022-11-21_24h49.57.356,Info_measure_main_exp,2022.2.2,Win32,59.77643613,,,,,,,,,,,,,,,,,,masks/mask_004.jpg,,,,,,,,,,,,,,,,,,,,,,,,,,,,,,,,,,,,,,,,,,,0,2,2,3,1,,,,,,,,,,,,,,,,,,,,,,,,,,,,,,,,,,,,,,,,,,,,,,
531052,001,2022-11-21_24h49.57.356,Info_measure_main_exp,2022.2.2,Win32,59.77643613,,,,,,,,,,,,,,,,,,masks/mask_001.jpg,,,,,,,,,,,,,,,,,,,,,,,,,,,,,,,,,,,,,,,,,,,0,3,3,0,1,,,,,,,,,,,,,,,,,,,,,,,,,,,,,,,,,,,,,,,,,,,,,,
531052,001,2022-11-21_24h49.57.356,Info_measure_main_exp,2022.2.2,Win32,59.77643613,,,,,,,,,,,,,,,,,,masks/mask_002.jpg,,,,,,,,,,,,,,,,,,,,,,,,,,,,,,,,,,,,,,,,,,,0,4,4,1,1,,,,,,,,,,,,,,,,,,,,,,,,,,,,,,,,,,,,,,,,,,,,,,
531052,001,2022-11-21_24h49.57.356,Info_measure_main_exp,2022.2.2,Win32,59.77643613,,,,,,,,,,,,,,,,,,masks/mask_005.jpg,,,,,,,,,,,,,,,,,,,,,,,,,,,,,,,,,,,,,,,,,,,,,,,,0,0,0,4,1,,,,,,,,,,,,,,,,,,,,,,,,,,,,,,,,,,,,,,,,,
531052,001,2022-11-21_24h49.57.356,Info_measure_main_exp,2022.2.2,Win32,59.77643613,,,,,,,,,,,,,,,,,,masks/mask_004.jpg,,,,,,,,,,,,,,,,,,,,,,,,,,,,,,,,,,,,,,,,,,,,,,,,0,1,1,3,1,,,,,,,,,,,,,,,,,,,,,,,,,,,,,,,,,,,,,,,,,
531052,001,2022-11-21_24h49.57.356,Info_measure_main_exp,2022.2.2,Win32,59.77643613,,,,,,,,,,,,,,,,,,masks/mask_002.jpg,,,,,,,,,,,,,,,,,,,,,,,,,,,,,,,,,,,,,,,,,,,,,,,,0,2,2,1,1,,,,,,,,,,,,,,,,,,,,,,,,,,,,,,,,,,,,,,,,,
531052,001,2022-11-21_24h49.57.356,Info_measure_main_exp,2022.2.2,Win32,59.77643613,,,,,,,,,,,,,,,,,,masks/mask_003.jpg,,,,,,,,,,,,,,,,,,,,,,,,,,,,,,,,,,,,,,,,,,,,,,,,0,3,3,2,1,,,,,,,,,,,,,,,,,,,,,,,,,,,,,,,,,,,,,,,,,
531052,001,2022-11-21_24h49.57.356,Info_measure_main_exp,2022.2.2,Win32,59.77643613,,,,,,,,,,,,,,,,,,masks/mask_001.jpg,,,,,,,,,,,,,,,,,,,,,,,,,,,,,,,,,,,,,,,,,,,,,,,,0,4,4,0,1,,,,,,,,,,,,,,,,,,,,,,,,,,,,,,,,,,,,,,,,,
531052,001,2022-11-21_24h49.57.356,Info_measure_main_exp,2022.2.2,Win32,59.77643613,,,,,,,,,,,,,,,,,,,,,,,,,,,,,,6,1.8329,1,,,,,,,,,,,,0,131,5,5,1950,2142,absent_patch/patch0001950.jpg,absent_patch/patch0002142.jpg,,,,,,,,,,,,,,,,,,,,0.072916667,0.061197917,1,0,0,response1disk,3,0.015625,0.001302083,1,0,0,center_square,0,2,2,83,1,,,,,,,,,,,,,,,,,,,,,,,
531052,001,2022-11-21_24h49.57.356,Info_measure_main_exp,2022.2.2,Win32,59.77643613,,,,,,,,,,,,,,,,,,masks/mask_003.jpg,,,,,,,,,,,,,,,,,,,,,,,,,,,,,,,,,,,,,,,,,,,0,0,0,2,1,,,,,,,,,,,,,,,,,,,,,,,,,,,,,,,,,,,,,,,,,,,,,,
531052,001,2022-11-21_24h49.57.356,Info_measure_main_exp,2022.2.2,Win32,59.77643613,,,,,,,,,,,,,,,,,,masks/mask_001.jpg,,,,,,,,,,,,,,,,,,,,,,,,,,,,,,,,,,,,,,,,,,,0,1,1,0,1,,,,,,,,,,,,,,,,,,,,,,,,,,,,,,,,,,,,,,,,,,,,,,
531052,001,2022-11-21_24h49.57.356,Info_measure_main_exp,2022.2.2,Win32,59.77643613,,,,,,,,,,,,,,,,,,masks/mask_005.jpg,,,,,,,,,,,,,,,,,,,,,,,,,,,,,,,,,,,,,,,,,,,0,2,2,4,1,,,,,,,,,,,,,,,,,,,,,,,,,,,,,,,,,,,,,,,,,,,,,,
531052,001,2022-11-21_24h49.57.356,Info_measure_main_exp,2022.2.2,Win32,59.77643613,,,,,,,,,,,,,,,,,,masks/mask_002.jpg,,,,,,,,,,,,,,,,,,,,,,,,,,,,,,,,,,,,,,,,,,,0,3,3,1,1,,,,,,,,,,,,,,,,,,,,,,,,,,,,,,,,,,,,,,,,,,,,,,
531052,001,2022-11-21_24h49.57.356,Info_measure_main_exp,2022.2.2,Win32,59.77643613,,,,,,,,,,,,,,,,,,masks/mask_004.jpg,,,,,,,,,,,,,,,,,,,,,,,,,,,,,,,,,,,,,,,,,,,0,4,4,3,1,,,,,,,,,,,,,,,,,,,,,,,,,,,,,,,,,,,,,,,,,,,,,,
531052,001,2022-11-21_24h49.57.356,Info_measure_main_exp,2022.2.2,Win32,59.77643613,,,,,,,,,,,,,,,,,,masks/mask_002.jpg,,,,,,,,,,,,,,,,,,,,,,,,,,,,,,,,,,,,,,,,,,,,,,,,0,0,0,1,1,,,,,,,,,,,,,,,,,,,,,,,,,,,,,,,,,,,,,,,,,
531052,001,2022-11-21_24h49.57.356,Info_measure_main_exp,2022.2.2,Win32,59.77643613,,,,,,,,,,,,,,,,,,masks/mask_004.jpg,,,,,,,,,,,,,,,,,,,,,,,,,,,,,,,,,,,,,,,,,,,,,,,,0,1,1,3,1,,,,,,,,,,,,,,,,,,,,,,,,,,,,,,,,,,,,,,,,,
531052,001,2022-11-21_24h49.57.356,Info_measure_main_exp,2022.2.2,Win32,59.77643613,,,,,,,,,,,,,,,,,,masks/mask_005.jpg,,,,,,,,,,,,,,,,,,,,,,,,,,,,,,,,,,,,,,,,,,,,,,,,0,2,2,4,1,,,,,,,,,,,,,,,,,,,,,,,,,,,,,,,,,,,,,,,,,
531052,001,2022-11-21_24h49.57.356,Info_measure_main_exp,2022.2.2,Win32,59.77643613,,,,,,,,,,,,,,,,,,masks/mask_003.jpg,,,,,,,,,,,,,,,,,,,,,,,,,,,,,,,,,,,,,,,,,,,,,,,,0,3,3,2,1,,,,,,,,,,,,,,,,,,,,,,,,,,,,,,,,,,,,,,,,,
531052,001,2022-11-21_24h49.57.356,Info_measure_main_exp,2022.2.2,Win32,59.77643613,,,,,,,,,,,,,,,,,,masks/mask_001.jpg,,,,,,,,,,,,,,,,,,,,,,,,,,,,,,,,,,,,,,,,,,,,,,,,0,4,4,0,1,,,,,,,,,,,,,,,,,,,,,,,,,,,,,,,,,,,,,,,,,
531052,001,2022-11-21_24h49.57.356,Info_measure_main_exp,2022.2.2,Win32,59.77643613,,,,,,,,,,,,,,,,,,,,,,,,,,,,,,7,1.1552,1,,,,,,,,,,,,0,131,5,5,2190,2238,absent_patch/patch0002190.jpg,absent_patch/patch0002238.jpg,,,,,,,,,,,,,,,,,,,,0.010416667,0.127604167,1,0,0,response1disk,4,0.002604167,0,1,0,0,center_square,0,3,3,53,1,,,,,,,,,,,,,,,,,,,,,,,
531052,001,2022-11-21_24h49.57.356,Info_measure_main_exp,2022.2.2,Win32,59.77643613,,,,,,,,,,,,,,,,,,masks/mask_003.jpg,,,,,,,,,,,,,,,,,,,,,,,,,,,,,,,,,,,,,,,,,,,0,0,0,2,1,,,,,,,,,,,,,,,,,,,,,,,,,,,,,,,,,,,,,,,,,,,,,,
531052,001,2022-11-21_24h49.57.356,Info_measure_main_exp,2022.2.2,Win32,59.77643613,,,,,,,,,,,,,,,,,,masks/mask_002.jpg,,,,,,,,,,,,,,,,,,,,,,,,,,,,,,,,,,,,,,,,,,,0,1,1,1,1,,,,,,,,,,,,,,,,,,,,,,,,,,,,,,,,,,,,,,,,,,,,,,
531052,001,2022-11-21_24h49.57.356,Info_measure_main_exp,2022.2.2,Win32,59.77643613,,,,,,,,,,,,,,,,,,masks/mask_001.jpg,,,,,,,,,,,,,,,,,,,,,,,,,,,,,,,,,,,,,,,,,,,0,2,2,0,1,,,,,,,,,,,,,,,,,,,,,,,,,,,,,,,,,,,,,,,,,,,,,,
531052,001,2022-11-21_24h49.57.356,Info_measure_main_exp,2022.2.2,Win32,59.77643613,,,,,,,,,,,,,,,,,,masks/mask_005.jpg,,,,,,,,,,,,,,,,,,,,,,,,,,,,,,,,,,,,,,,,,,,0,3,3,4,1,,,,,,,,,,,,,,,,,,,,,,,,,,,,,,,,,,,,,,,,,,,,,,
531052,001,2022-11-21_24h49.57.356,Info_measure_main_exp,2022.2.2,Win32,59.77643613,,,,,,,,,,,,,,,,,,masks/mask_004.jpg,,,,,,,,,,,,,,,,,,,,,,,,,,,,,,,,,,,,,,,,,,,0,4,4,3,1,,,,,,,,,,,,,,,,,,,,,,,,,,,,,,,,,,,,,,,,,,,,,,
531052,001,2022-11-21_24h49.57.356,Info_measure_main_exp,2022.2.2,Win32,59.77643613,,,,,,,,,,,,,,,,,,masks/mask_004.jpg,,,,,,,,,,,,,,,,,,,,,,,,,,,,,,,,,,,,,,,,,,,,,,,,0,0,0,3,1,,,,,,,,,,,,,,,,,,,,,,,,,,,,,,,,,,,,,,,,,
531052,001,2022-11-21_24h49.57.356,Info_measure_main_exp,2022.2.2,Win32,59.77643613,,,,,,,,,,,,,,,,,,masks/mask_002.jpg,,,,,,,,,,,,,,,,,,,,,,,,,,,,,,,,,,,,,,,,,,,,,,,,0,1,1,1,1,,,,,,,,,,,,,,,,,,,,,,,,,,,,,,,,,,,,,,,,,
531052,001,2022-11-21_24h49.57.356,Info_measure_main_exp,2022.2.2,Win32,59.77643613,,,,,,,,,,,,,,,,,,masks/mask_001.jpg,,,,,,,,,,,,,,,,,,,,,,,,,,,,,,,,,,,,,,,,,,,,,,,,0,2,2,0,1,,,,,,,,,,,,,,,,,,,,,,,,,,,,,,,,,,,,,,,,,
531052,001,2022-11-21_24h49.57.356,Info_measure_main_exp,2022.2.2,Win32,59.77643613,,,,,,,,,,,,,,,,,,masks/mask_003.jpg,,,,,,,,,,,,,,,,,,,,,,,,,,,,,,,,,,,,,,,,,,,,,,,,0,3,3,2,1,,,,,,,,,,,,,,,,,,,,,,,,,,,,,,,,,,,,,,,,,
531052,001,2022-11-21_24h49.57.356,Info_measure_main_exp,2022.2.2,Win32,59.77643613,,,,,,,,,,,,,,,,,,masks/mask_005.jpg,,,,,,,,,,,,,,,,,,,,,,,,,,,,,,,,,,,,,,,,,,,,,,,,0,4,4,4,1,,,,,,,,,,,,,,,,,,,,,,,,,,,,,,,,,,,,,,,,,
531052,001,2022-11-21_24h49.57.356,Info_measure_main_exp,2022.2.2,Win32,59.77643613,,,,,,,,,,,,,,,,,,,,,,,,,,,,,,7,2.732,1,,,,,,,,,,,,0,131,5,5,2274,1950,absent_patch/patch0002274.jpg,absent_patch/patch0001950.jpg,,,,,,,,,,,,,,,,,,,,0.024739583,0.122395833,1,0,0,response1disk,5,0,-0.0078125,1,0,0,center_square,0,4,4,10,1,,,,,,,,,,,,,,,,,,,,,,,
531052,001,2022-11-21_24h49.57.356,Info_measure_main_exp,2022.2.2,Win32,59.77643613,,,,,,,,,,,,,,,,,,masks/mask_002.jpg,,,,,,,,,,,,,,,,,,,,,,,,,,,,,,,,,,,,,,,,,,,0,0,0,1,1,,,,,,,,,,,,,,,,,,,,,,,,,,,,,,,,,,,,,,,,,,,,,,
531052,001,2022-11-21_24h49.57.356,Info_measure_main_exp,2022.2.2,Win32,59.77643613,,,,,,,,,,,,,,,,,,masks/mask_004.jpg,,,,,,,,,,,,,,,,,,,,,,,,,,,,,,,,,,,,,,,,,,,0,1,1,3,1,,,,,,,,,,,,,,,,,,,,,,,,,,,,,,,,,,,,,,,,,,,,,,
531052,001,2022-11-21_24h49.57.356,Info_measure_main_exp,2022.2.2,Win32,59.77643613,,,,,,,,,,,,,,,,,,masks/mask_005.jpg,,,,,,,,,,,,,,,,,,,,,,,,,,,,,,,,,,,,,,,,,,,0,2,2,4,1,,,,,,,,,,,,,,,,,,,,,,,,,,,,,,,,,,,,,,,,,,,,,,
531052,001,2022-11-21_24h49.57.356,Info_measure_main_exp,2022.2.2,Win32,59.77643613,,,,,,,,,,,,,,,,,,masks/mask_001.jpg,,,,,,,,,,,,,,,,,,,,,,,,,,,,,,,,,,,,,,,,,,,0,3,3,0,1,,,,,,,,,,,,,,,,,,,,,,,,,,,,,,,,,,,,,,,,,,,,,,
531052,001,2022-11-21_24h49.57.356,Info_measure_main_exp,2022.2.2,Win32,59.77643613,,,,,,,,,,,,,,,,,,masks/mask_003.jpg,,,,,,,,,,,,,,,,,,,,,,,,,,,,,,,,,,,,,,,,,,,0,4,4,2,1,,,,,,,,,,,,,,,,,,,,,,,,,,,,,,,,,,,,,,,,,,,,,,
531052,001,2022-11-21_24h49.57.356,Info_measure_main_exp,2022.2.2,Win32,59.77643613,,,,,,,,,,,,,,,,,,masks/mask_002.jpg,,,,,,,,,,,,,,,,,,,,,,,,,,,,,,,,,,,,,,,,,,,,,,,,0,0,0,1,1,,,,,,,,,,,,,,,,,,,,,,,,,,,,,,,,,,,,,,,,,
531052,001,2022-11-21_24h49.57.356,Info_measure_main_exp,2022.2.2,Win32,59.77643613,,,,,,,,,,,,,,,,,,masks/mask_005.jpg,,,,,,,,,,,,,,,,,,,,,,,,,,,,,,,,,,,,,,,,,,,,,,,,0,1,1,4,1,,,,,,,,,,,,,,,,,,,,,,,,,,,,,,,,,,,,,,,,,
531052,001,2022-11-21_24h49.57.356,Info_measure_main_exp,2022.2.2,Win32,59.77643613,,,,,,,,,,,,,,,,,,masks/mask_003.jpg,,,,,,,,,,,,,,,,,,,,,,,,,,,,,,,,,,,,,,,,,,,,,,,,0,2,2,2,1,,,,,,,,,,,,,,,,,,,,,,,,,,,,,,,,,,,,,,,,,
531052,001,2022-11-21_24h49.57.356,Info_measure_main_exp,2022.2.2,Win32,59.77643613,,,,,,,,,,,,,,,,,,masks/mask_004.jpg,,,,,,,,,,,,,,,,,,,,,,,,,,,,,,,,,,,,,,,,,,,,,,,,0,3,3,3,1,,,,,,,,,,,,,,,,,,,,,,,,,,,,,,,,,,,,,,,,,
531052,001,2022-11-21_24h49.57.356,Info_measure_main_exp,2022.2.2,Win32,59.77643613,,,,,,,,,,,,,,,,,,masks/mask_001.jpg,,,,,,,,,,,,,,,,,,,,,,,,,,,,,,,,,,,,,,,,,,,,,,,,0,4,4,0,1,,,,,,,,,,,,,,,,,,,,,,,,,,,,,,,,,,,,,,,,,
531052,001,2022-11-21_24h49.57.356,Info_measure_main_exp,2022.2.2,Win32,59.77643613,,,,,,,,,,,,,,,,,,,,,,,,,,,,,,7,1.2938,1,,,,,,,,,,,,0,131,5,5,2274,2178,absent_patch/patch0002274.jpg,absent_patch/patch0002178.jpg,,,,,,,,,,,,,,,,,,,,0.016927083,0.061197917,1,0,0,response1disk,6,0.001302083,-0.001302083,1,0,0,center_square,0,5,5,117,1,,,,,,,,,,,,,,,,,,,,,,,
531052,001,2022-11-21_24h49.57.356,Info_measure_main_exp,2022.2.2,Win32,59.77643613,,,,,,,,,,,,,,,,,,masks/mask_003.jpg,,,,,,,,,,,,,,,,,,,,,,,,,,,,,,,,,,,,,,,,,,,0,0,0,2,1,,,,,,,,,,,,,,,,,,,,,,,,,,,,,,,,,,,,,,,,,,,,,,
531052,001,2022-11-21_24h49.57.356,Info_measure_main_exp,2022.2.2,Win32,59.77643613,,,,,,,,,,,,,,,,,,masks/mask_004.jpg,,,,,,,,,,,,,,,,,,,,,,,,,,,,,,,,,,,,,,,,,,,0,1,1,3,1,,,,,,,,,,,,,,,,,,,,,,,,,,,,,,,,,,,,,,,,,,,,,,
531052,001,2022-11-21_24h49.57.356,Info_measure_main_exp,2022.2.2,Win32,59.77643613,,,,,,,,,,,,,,,,,,masks/mask_002.jpg,,,,,,,,,,,,,,,,,,,,,,,,,,,,,,,,,,,,,,,,,,,0,2,2,1,1,,,,,,,,,,,,,,,,,,,,,,,,,,,,,,,,,,,,,,,,,,,,,,
531052,001,2022-11-21_24h49.57.356,Info_measure_main_exp,2022.2.2,Win32,59.77643613,,,,,,,,,,,,,,,,,,masks/mask_005.jpg,,,,,,,,,,,,,,,,,,,,,,,,,,,,,,,,,,,,,,,,,,,0,3,3,4,1,,,,,,,,,,,,,,,,,,,,,,,,,,,,,,,,,,,,,,,,,,,,,,
531052,001,2022-11-21_24h49.57.356,Info_measure_main_exp,2022.2.2,Win32,59.77643613,,,,,,,,,,,,,,,,,,masks/mask_001.jpg,,,,,,,,,,,,,,,,,,,,,,,,,,,,,,,,,,,,,,,,,,,0,4,4,0,1,,,,,,,,,,,,,,,,,,,,,,,,,,,,,,,,,,,,,,,,,,,,,,
531052,001,2022-11-21_24h49.57.356,Info_measure_main_exp,2022.2.2,Win32,59.77643613,,,,,,,,,,,,,,,,,,masks/mask_002.jpg,,,,,,,,,,,,,,,,,,,,,,,,,,,,,,,,,,,,,,,,,,,,,,,,0,0,0,1,1,,,,,,,,,,,,,,,,,,,,,,,,,,,,,,,,,,,,,,,,,
531052,001,2022-11-21_24h49.57.356,Info_measure_main_exp,2022.2.2,Win32,59.77643613,,,,,,,,,,,,,,,,,,masks/mask_003.jpg,,,,,,,,,,,,,,,,,,,,,,,,,,,,,,,,,,,,,,,,,,,,,,,,0,1,1,2,1,,,,,,,,,,,,,,,,,,,,,,,,,,,,,,,,,,,,,,,,,
531052,001,2022-11-21_24h49.57.356,Info_measure_main_exp,2022.2.2,Win32,59.77643613,,,,,,,,,,,,,,,,,,masks/mask_001.jpg,,,,,,,,,,,,,,,,,,,,,,,,,,,,,,,,,,,,,,,,,,,,,,,,0,2,2,0,1,,,,,,,,,,,,,,,,,,,,,,,,,,,,,,,,,,,,,,,,,
531052,001,2022-11-21_24h49.57.356,Info_measure_main_exp,2022.2.2,Win32,59.77643613,,,,,,,,,,,,,,,,,,masks/mask_004.jpg,,,,,,,,,,,,,,,,,,,,,,,,,,,,,,,,,,,,,,,,,,,,,,,,0,3,3,3,1,,,,,,,,,,,,,,,,,,,,,,,,,,,,,,,,,,,,,,,,,
531052,001,2022-11-21_24h49.57.356,Info_measure_main_exp,2022.2.2,Win32,59.77643613,,,,,,,,,,,,,,,,,,masks/mask_005.jpg,,,,,,,,,,,,,,,,,,,,,,,,,,,,,,,,,,,,,,,,,,,,,,,,0,4,4,4,1,,,,,,,,,,,,,,,,,,,,,,,,,,,,,,,,,,,,,,,,,
531052,001,2022-11-21_24h49.57.356,Info_measure_main_exp,2022.2.2,Win32,59.77643613,,,,,,,,,,,,,,,,,,,,,,,,,,,,,,7,1.4115,1,,,,,,,,,,,,0,131,5,5,2238,2214,absent_patch/patch0002238.jpg,absent_patch/patch0002214.jpg,,,,,,,,,,,,,,,,,,,,0.032552083,0.12109375,1,0,0,response1disk,7,0.006510417,0.001302083,1,0,0,center_square,0,6,6,81,1,,,,,,,,,,,,,,,,,,,,,,,
531052,001,2022-11-21_24h49.57.356,Info_measure_main_exp,2022.2.2,Win32,59.77643613,,,,,,,,,,,,,,,,,,masks/mask_004.jpg,,,,,,,,,,,,,,,,,,,,,,,,,,,,,,,,,,,,,,,,,,,0,0,0,3,1,,,,,,,,,,,,,,,,,,,,,,,,,,,,,,,,,,,,,,,,,,,,,,
531052,001,2022-11-21_24h49.57.356,Info_measure_main_exp,2022.2.2,Win32,59.77643613,,,,,,,,,,,,,,,,,,masks/mask_003.jpg,,,,,,,,,,,,,,,,,,,,,,,,,,,,,,,,,,,,,,,,,,,0,1,1,2,1,,,,,,,,,,,,,,,,,,,,,,,,,,,,,,,,,,,,,,,,,,,,,,
531052,001,2022-11-21_24h49.57.356,Info_measure_main_exp,2022.2.2,Win32,59.77643613,,,,,,,,,,,,,,,,,,masks/mask_001.jpg,,,,,,,,,,,,,,,,,,,,,,,,,,,,,,,,,,,,,,,,,,,0,2,2,0,1,,,,,,,,,,,,,,,,,,,,,,,,,,,,,,,,,,,,,,,,,,,,,,
531052,001,2022-11-21_24h49.57.356,Info_measure_main_exp,2022.2.2,Win32,59.77643613,,,,,,,,,,,,,,,,,,masks/mask_005.jpg,,,,,,,,,,,,,,,,,,,,,,,,,,,,,,,,,,,,,,,,,,,0,3,3,4,1,,,,,,,,,,,,,,,,,,,,,,,,,,,,,,,,,,,,,,,,,,,,,,
531052,001,2022-11-21_24h49.57.356,Info_measure_main_exp,2022.2.2,Win32,59.77643613,,,,,,,,,,,,,,,,,,masks/mask_002.jpg,,,,,,,,,,,,,,,,,,,,,,,,,,,,,,,,,,,,,,,,,,,0,4,4,1,1,,,,,,,,,,,,,,,,,,,,,,,,,,,,,,,,,,,,,,,,,,,,,,
531052,001,2022-11-21_24h49.57.356,Info_measure_main_exp,2022.2.2,Win32,59.77643613,,,,,,,,,,,,,,,,,,masks/mask_004.jpg,,,,,,,,,,,,,,,,,,,,,,,,,,,,,,,,,,,,,,,,,,,,,,,,0,0,0,3,1,,,,,,,,,,,,,,,,,,,,,,,,,,,,,,,,,,,,,,,,,
531052,001,2022-11-21_24h49.57.356,Info_measure_main_exp,2022.2.2,Win32,59.77643613,,,,,,,,,,,,,,,,,,masks/mask_003.jpg,,,,,,,,,,,,,,,,,,,,,,,,,,,,,,,,,,,,,,,,,,,,,,,,0,1,1,2,1,,,,,,,,,,,,,,,,,,,,,,,,,,,,,,,,,,,,,,,,,
531052,001,2022-11-21_24h49.57.356,Info_measure_main_exp,2022.2.2,Win32,59.77643613,,,,,,,,,,,,,,,,,,masks/mask_001.jpg,,,,,,,,,,,,,,,,,,,,,,,,,,,,,,,,,,,,,,,,,,,,,,,,0,2,2,0,1,,,,,,,,,,,,,,,,,,,,,,,,,,,,,,,,,,,,,,,,,
531052,001,2022-11-21_24h49.57.356,Info_measure_main_exp,2022.2.2,Win32,59.77643613,,,,,,,,,,,,,,,,,,masks/mask_005.jpg,,,,,,,,,,,,,,,,,,,,,,,,,,,,,,,,,,,,,,,,,,,,,,,,0,3,3,4,1,,,,,,,,,,,,,,,,,,,,,,,,,,,,,,,,,,,,,,,,,
531052,001,2022-11-21_24h49.57.356,Info_measure_main_exp,2022.2.2,Win32,59.77643613,,,,,,,,,,,,,,,,,,masks/mask_002.jpg,,,,,,,,,,,,,,,,,,,,,,,,,,,,,,,,,,,,,,,,,,,,,,,,0,4,4,1,1,,,,,,,,,,,,,,,,,,,,,,,,,,,,,,,,,,,,,,,,,
531052,001,2022-11-21_24h49.57.356,Info_measure_main_exp,2022.2.2,Win32,59.77643613,,,,,,,,,,,,,,,,,,,,,,,,,,,,,,0,0.9386,1,,,,,,,,,,,,0,131,5,5,2166,2166,absent_patch/patch0002166.jpg,absent_patch/patch0002166.jpg,,,,,,,,,,,,,,,,,,,,-0.069010417,0.12890625,1,0,0,response7disk,8,0.001302083,0.002604167,1,0,0,center_square,0,7,7,42,1,,,,,,,,,,,,,,,,,,,,,,,
531052,001,2022-11-21_24h49.57.356,Info_measure_main_exp,2022.2.2,Win32,59.77643613,,,,,,,,,,,,,,,,,,masks/mask_004.jpg,,,,,,,,,,,,,,,,,,,,,,,,,,,,,,,,,,,,,,,,,,,0,0,0,3,1,,,,,,,,,,,,,,,,,,,,,,,,,,,,,,,,,,,,,,,,,,,,,,
531052,001,2022-11-21_24h49.57.356,Info_measure_main_exp,2022.2.2,Win32,59.77643613,,,,,,,,,,,,,,,,,,masks/mask_003.jpg,,,,,,,,,,,,,,,,,,,,,,,,,,,,,,,,,,,,,,,,,,,0,1,1,2,1,,,,,,,,,,,,,,,,,,,,,,,,,,,,,,,,,,,,,,,,,,,,,,
531052,001,2022-11-21_24h49.57.356,Info_measure_main_exp,2022.2.2,Win32,59.77643613,,,,,,,,,,,,,,,,,,masks/mask_002.jpg,,,,,,,,,,,,,,,,,,,,,,,,,,,,,,,,,,,,,,,,,,,0,2,2,1,1,,,,,,,,,,,,,,,,,,,,,,,,,,,,,,,,,,,,,,,,,,,,,,
531052,001,2022-11-21_24h49.57.356,Info_measure_main_exp,2022.2.2,Win32,59.77643613,,,,,,,,,,,,,,,,,,masks/mask_001.jpg,,,,,,,,,,,,,,,,,,,,,,,,,,,,,,,,,,,,,,,,,,,0,3,3,0,1,,,,,,,,,,,,,,,,,,,,,,,,,,,,,,,,,,,,,,,,,,,,,,
531052,001,2022-11-21_24h49.57.356,Info_measure_main_exp,2022.2.2,Win32,59.77643613,,,,,,,,,,,,,,,,,,masks/mask_005.jpg,,,,,,,,,,,,,,,,,,,,,,,,,,,,,,,,,,,,,,,,,,,0,4,4,4,1,,,,,,,,,,,,,,,,,,,,,,,,,,,,,,,,,,,,,,,,,,,,,,
531052,001,2022-11-21_24h49.57.356,Info_measure_main_exp,2022.2.2,Win32,59.77643613,,,,,,,,,,,,,,,,,,masks/mask_005.jpg,,,,,,,,,,,,,,,,,,,,,,,,,,,,,,,,,,,,,,,,,,,,,,,,0,0,0,4,1,,,,,,,,,,,,,,,,,,,,,,,,,,,,,,,,,,,,,,,,,
531052,001,2022-11-21_24h49.57.356,Info_measure_main_exp,2022.2.2,Win32,59.77643613,,,,,,,,,,,,,,,,,,masks/mask_004.jpg,,,,,,,,,,,,,,,,,,,,,,,,,,,,,,,,,,,,,,,,,,,,,,,,0,1,1,3,1,,,,,,,,,,,,,,,,,,,,,,,,,,,,,,,,,,,,,,,,,
531052,001,2022-11-21_24h49.57.356,Info_measure_main_exp,2022.2.2,Win32,59.77643613,,,,,,,,,,,,,,,,,,masks/mask_001.jpg,,,,,,,,,,,,,,,,,,,,,,,,,,,,,,,,,,,,,,,,,,,,,,,,0,2,2,0,1,,,,,,,,,,,,,,,,,,,,,,,,,,,,,,,,,,,,,,,,,
531052,001,2022-11-21_24h49.57.356,Info_measure_main_exp,2022.2.2,Win32,59.77643613,,,,,,,,,,,,,,,,,,masks/mask_002.jpg,,,,,,,,,,,,,,,,,,,,,,,,,,,,,,,,,,,,,,,,,,,,,,,,0,3,3,1,1,,,,,,,,,,,,,,,,,,,,,,,,,,,,,,,,,,,,,,,,,
531052,001,2022-11-21_24h49.57.356,Info_measure_main_exp,2022.2.2,Win32,59.77643613,,,,,,,,,,,,,,,,,,masks/mask_003.jpg,,,,,,,,,,,,,,,,,,,,,,,,,,,,,,,,,,,,,,,,,,,,,,,,0,4,4,2,1,,,,,,,,,,,,,,,,,,,,,,,,,,,,,,,,,,,,,,,,,
531052,001,2022-11-21_24h49.57.356,Info_measure_main_exp,2022.2.2,Win32,59.77643613,,,,,,,,,,,,,,,,,,,,,,,,,,,,,,0,0.8432,1,,,,,,,,,,,,0,131,5,5,2178,2178,absent_patch/patch0002178.jpg,absent_patch/patch0002178.jpg,,,,,,,,,,,,,,,,,,,,-0.0703125,0.1875,1,0,0,response7disk,9,-0.001302083,-0.00390625,1,0,0,center_square,0,8,8,98,1,,,,,,,,,,,,,,,,,,,,,,,
531052,001,2022-11-21_24h49.57.356,Info_measure_main_exp,2022.2.2,Win32,59.77643613,,,,,,,,,,,,,,,,,,masks/mask_001.jpg,,,,,,,,,,,,,,,,,,,,,,,,,,,,,,,,,,,,,,,,,,,0,0,0,0,1,,,,,,,,,,,,,,,,,,,,,,,,,,,,,,,,,,,,,,,,,,,,,,
531052,001,2022-11-21_24h49.57.356,Info_measure_main_exp,2022.2.2,Win32,59.77643613,,,,,,,,,,,,,,,,,,masks/mask_004.jpg,,,,,,,,,,,,,,,,,,,,,,,,,,,,,,,,,,,,,,,,,,,0,1,1,3,1,,,,,,,,,,,,,,,,,,,,,,,,,,,,,,,,,,,,,,,,,,,,,,
531052,001,2022-11-21_24h49.57.356,Info_measure_main_exp,2022.2.2,Win32,59.77643613,,,,,,,,,,,,,,,,,,masks/mask_002.jpg,,,,,,,,,,,,,,,,,,,,,,,,,,,,,,,,,,,,,,,,,,,0,2,2,1,1,,,,,,,,,,,,,,,,,,,,,,,,,,,,,,,,,,,,,,,,,,,,,,
531052,001,2022-11-21_24h49.57.356,Info_measure_main_exp,2022.2.2,Win32,59.77643613,,,,,,,,,,,,,,,,,,masks/mask_003.jpg,,,,,,,,,,,,,,,,,,,,,,,,,,,,,,,,,,,,,,,,,,,0,3,3,2,1,,,,,,,,,,,,,,,,,,,,,,,,,,,,,,,,,,,,,,,,,,,,,,
531052,001,2022-11-21_24h49.57.356,Info_measure_main_exp,2022.2.2,Win32,59.77643613,,,,,,,,,,,,,,,,,,masks/mask_005.jpg,,,,,,,,,,,,,,,,,,,,,,,,,,,,,,,,,,,,,,,,,,,0,4,4,4,1,,,,,,,,,,,,,,,,,,,,,,,,,,,,,,,,,,,,,,,,,,,,,,
531052,001,2022-11-21_24h49.57.356,Info_measure_main_exp,2022.2.2,Win32,59.77643613,,,,,,,,,,,,,,,,,,masks/mask_004.jpg,,,,,,,,,,,,,,,,,,,,,,,,,,,,,,,,,,,,,,,,,,,,,,,,0,0,0,3,1,,,,,,,,,,,,,,,,,,,,,,,,,,,,,,,,,,,,,,,,,
531052,001,2022-11-21_24h49.57.356,Info_measure_main_exp,2022.2.2,Win32,59.77643613,,,,,,,,,,,,,,,,,,masks/mask_002.jpg,,,,,,,,,,,,,,,,,,,,,,,,,,,,,,,,,,,,,,,,,,,,,,,,0,1,1,1,1,,,,,,,,,,,,,,,,,,,,,,,,,,,,,,,,,,,,,,,,,
531052,001,2022-11-21_24h49.57.356,Info_measure_main_exp,2022.2.2,Win32,59.77643613,,,,,,,,,,,,,,,,,,masks/mask_001.jpg,,,,,,,,,,,,,,,,,,,,,,,,,,,,,,,,,,,,,,,,,,,,,,,,0,2,2,0,1,,,,,,,,,,,,,,,,,,,,,,,,,,,,,,,,,,,,,,,,,
531052,001,2022-11-21_24h49.57.356,Info_measure_main_exp,2022.2.2,Win32,59.77643613,,,,,,,,,,,,,,,,,,masks/mask_005.jpg,,,,,,,,,,,,,,,,,,,,,,,,,,,,,,,,,,,,,,,,,,,,,,,,0,3,3,4,1,,,,,,,,,,,,,,,,,,,,,,,,,,,,,,,,,,,,,,,,,
531052,001,2022-11-21_24h49.57.356,Info_measure_main_exp,2022.2.2,Win32,59.77643613,,,,,,,,,,,,,,,,,,masks/mask_003.jpg,,,,,,,,,,,,,,,,,,,,,,,,,,,,,,,,,,,,,,,,,,,,,,,,0,4,4,2,1,,,,,,,,,,,,,,,,,,,,,,,,,,,,,,,,,,,,,,,,,
531052,001,2022-11-21_24h49.57.356,Info_measure_main_exp,2022.2.2,Win32,59.77643613,,,,,,,,,,,,,,,,,,,,,,,,,,,,,,5,2.5667,1,,,,,,,,,,,,0,131,5,5,2082,2250,absent_patch/patch0002082.jpg,absent_patch/patch0002250.jpg,,,,,,,,,,,,,,,,,,,,0.115885417,-0.01953125,1,0,0,response3disk,10,0,0.001302083,1,0,0,center_square,0,9,9,3,1,,,,,,,,,,,,,,,,,,,,,,,
531052,001,2022-11-21_24h49.57.356,Info_measure_main_exp,2022.2.2,Win32,59.77643613,,,,,,,,,,,,,,,,,,masks/mask_001.jpg,,,,,,,,,,,,,,,,,,,,,,,,,,,,,,,,,,,,,,,,,,,0,0,0,0,1,,,,,,,,,,,,,,,,,,,,,,,,,,,,,,,,,,,,,,,,,,,,,,
531052,001,2022-11-21_24h49.57.356,Info_measure_main_exp,2022.2.2,Win32,59.77643613,,,,,,,,,,,,,,,,,,masks/mask_004.jpg,,,,,,,,,,,,,,,,,,,,,,,,,,,,,,,,,,,,,,,,,,,0,1,1,3,1,,,,,,,,,,,,,,,,,,,,,,,,,,,,,,,,,,,,,,,,,,,,,,
531052,001,2022-11-21_24h49.57.356,Info_measure_main_exp,2022.2.2,Win32,59.77643613,,,,,,,,,,,,,,,,,,masks/mask_005.jpg,,,,,,,,,,,,,,,,,,,,,,,,,,,,,,,,,,,,,,,,,,,0,2,2,4,1,,,,,,,,,,,,,,,,,,,,,,,,,,,,,,,,,,,,,,,,,,,,,,
531052,001,2022-11-21_24h49.57.356,Info_measure_main_exp,2022.2.2,Win32,59.77643613,,,,,,,,,,,,,,,,,,masks/mask_002.jpg,,,,,,,,,,,,,,,,,,,,,,,,,,,,,,,,,,,,,,,,,,,0,3,3,1,1,,,,,,,,,,,,,,,,,,,,,,,,,,,,,,,,,,,,,,,,,,,,,,
531052,001,2022-11-21_24h49.57.356,Info_measure_main_exp,2022.2.2,Win32,59.77643613,,,,,,,,,,,,,,,,,,masks/mask_003.jpg,,,,,,,,,,,,,,,,,,,,,,,,,,,,,,,,,,,,,,,,,,,0,4,4,2,1,,,,,,,,,,,,,,,,,,,,,,,,,,,,,,,,,,,,,,,,,,,,,,
531052,001,2022-11-21_24h49.57.356,Info_measure_main_exp,2022.2.2,Win32,59.77643613,,,,,,,,,,,,,,,,,,masks/mask_004.jpg,,,,,,,,,,,,,,,,,,,,,,,,,,,,,,,,,,,,,,,,,,,,,,,,0,0,0,3,1,,,,,,,,,,,,,,,,,,,,,,,,,,,,,,,,,,,,,,,,,
531052,001,2022-11-21_24h49.57.356,Info_measure_main_exp,2022.2.2,Win32,59.77643613,,,,,,,,,,,,,,,,,,masks/mask_001.jpg,,,,,,,,,,,,,,,,,,,,,,,,,,,,,,,,,,,,,,,,,,,,,,,,0,1,1,0,1,,,,,,,,,,,,,,,,,,,,,,,,,,,,,,,,,,,,,,,,,
531052,001,2022-11-21_24h49.57.356,Info_measure_main_exp,2022.2.2,Win32,59.77643613,,,,,,,,,,,,,,,,,,masks/mask_002.jpg,,,,,,,,,,,,,,,,,,,,,,,,,,,,,,,,,,,,,,,,,,,,,,,,0,2,2,1,1,,,,,,,,,,,,,,,,,,,,,,,,,,,,,,,,,,,,,,,,,
531052,001,2022-11-21_24h49.57.356,Info_measure_main_exp,2022.2.2,Win32,59.77643613,,,,,,,,,,,,,,,,,,masks/mask_003.jpg,,,,,,,,,,,,,,,,,,,,,,,,,,,,,,,,,,,,,,,,,,,,,,,,0,3,3,2,1,,,,,,,,,,,,,,,,,,,,,,,,,,,,,,,,,,,,,,,,,
531052,001,2022-11-21_24h49.57.356,Info_measure_main_exp,2022.2.2,Win32,59.77643613,,,,,,,,,,,,,,,,,,masks/mask_005.jpg,,,,,,,,,,,,,,,,,,,,,,,,,,,,,,,,,,,,,,,,,,,,,,,,0,4,4,4,1,,,,,,,,,,,,,,,,,,,,,,,,,,,,,,,,,,,,,,,,,
531052,001,2022-11-21_24h49.57.356,Info_measure_main_exp,2022.2.2,Win32,59.77643613,,,,,,,,,,,,,,,,,,,,,,,,,,,,,,7,1.0629,1,,,,,,,,,,,,0,131,5,5,1974,2238,absent_patch/patch0001974.jpg,absent_patch/patch0002238.jpg,,,,,,,,,,,,,,,,,,,,0.018229167,0.0703125,1,0,0,response1disk,11,-0.002604167,-0.0078125,1,0,0,center_square,0,10,10,95,1,,,,,,,,,,,,,,,,,,,,,,,
531052,001,2022-11-21_24h49.57.356,Info_measure_main_exp,2022.2.2,Win32,59.77643613,,,,,,,,,,,,,,,,,,masks/mask_001.jpg,,,,,,,,,,,,,,,,,,,,,,,,,,,,,,,,,,,,,,,,,,,0,0,0,0,1,,,,,,,,,,,,,,,,,,,,,,,,,,,,,,,,,,,,,,,,,,,,,,
531052,001,2022-11-21_24h49.57.356,Info_measure_main_exp,2022.2.2,Win32,59.77643613,,,,,,,,,,,,,,,,,,masks/mask_005.jpg,,,,,,,,,,,,,,,,,,,,,,,,,,,,,,,,,,,,,,,,,,,0,1,1,4,1,,,,,,,,,,,,,,,,,,,,,,,,,,,,,,,,,,,,,,,,,,,,,,
531052,001,2022-11-21_24h49.57.356,Info_measure_main_exp,2022.2.2,Win32,59.77643613,,,,,,,,,,,,,,,,,,masks/mask_004.jpg,,,,,,,,,,,,,,,,,,,,,,,,,,,,,,,,,,,,,,,,,,,0,2,2,3,1,,,,,,,,,,,,,,,,,,,,,,,,,,,,,,,,,,,,,,,,,,,,,,
531052,001,2022-11-21_24h49.57.356,Info_measure_main_exp,2022.2.2,Win32,59.77643613,,,,,,,,,,,,,,,,,,masks/mask_002.jpg,,,,,,,,,,,,,,,,,,,,,,,,,,,,,,,,,,,,,,,,,,,0,3,3,1,1,,,,,,,,,,,,,,,,,,,,,,,,,,,,,,,,,,,,,,,,,,,,,,
531052,001,2022-11-21_24h49.57.356,Info_measure_main_exp,2022.2.2,Win32,59.77643613,,,,,,,,,,,,,,,,,,masks/mask_003.jpg,,,,,,,,,,,,,,,,,,,,,,,,,,,,,,,,,,,,,,,,,,,0,4,4,2,1,,,,,,,,,,,,,,,,,,,,,,,,,,,,,,,,,,,,,,,,,,,,,,
531052,001,2022-11-21_24h49.57.356,Info_measure_main_exp,2022.2.2,Win32,59.77643613,,,,,,,,,,,,,,,,,,masks/mask_004.jpg,,,,,,,,,,,,,,,,,,,,,,,,,,,,,,,,,,,,,,,,,,,,,,,,0,0,0,3,1,,,,,,,,,,,,,,,,,,,,,,,,,,,,,,,,,,,,,,,,,
531052,001,2022-11-21_24h49.57.356,Info_measure_main_exp,2022.2.2,Win32,59.77643613,,,,,,,,,,,,,,,,,,masks/mask_002.jpg,,,,,,,,,,,,,,,,,,,,,,,,,,,,,,,,,,,,,,,,,,,,,,,,0,1,1,1,1,,,,,,,,,,,,,,,,,,,,,,,,,,,,,,,,,,,,,,,,,
531052,001,2022-11-21_24h49.57.356,Info_measure_main_exp,2022.2.2,Win32,59.77643613,,,,,,,,,,,,,,,,,,masks/mask_003.jpg,,,,,,,,,,,,,,,,,,,,,,,,,,,,,,,,,,,,,,,,,,,,,,,,0,2,2,2,1,,,,,,,,,,,,,,,,,,,,,,,,,,,,,,,,,,,,,,,,,
531052,001,2022-11-21_24h49.57.356,Info_measure_main_exp,2022.2.2,Win32,59.77643613,,,,,,,,,,,,,,,,,,masks/mask_001.jpg,,,,,,,,,,,,,,,,,,,,,,,,,,,,,,,,,,,,,,,,,,,,,,,,0,3,3,0,1,,,,,,,,,,,,,,,,,,,,,,,,,,,,,,,,,,,,,,,,,
531052,001,2022-11-21_24h49.57.356,Info_measure_main_exp,2022.2.2,Win32,59.77643613,,,,,,,,,,,,,,,,,,masks/mask_005.jpg,,,,,,,,,,,,,,,,,,,,,,,,,,,,,,,,,,,,,,,,,,,,,,,,0,4,4,4,1,,,,,,,,,,,,,,,,,,,,,,,,,,,,,,,,,,,,,,,,,
531052,001,2022-11-21_24h49.57.356,Info_measure_main_exp,2022.2.2,Win32,59.77643613,,,,,,,,,,,,,,,,,,,,,,,,,,,,,,6,0.8039,1,,,,,,,,,,,,0,131,5,5,2250,1950,absent_patch/patch0002250.jpg,absent_patch/patch0001950.jpg,,,,,,,,,,,,,,,,,,,,0.087239583,0.037760417,1,0,0,response1disk,12,0.00390625,-0.002604167,1,0,0,center_square,0,11,11,16,1,,,,,,,,,,,,,,,,,,,,,,,
531052,001,2022-11-21_24h49.57.356,Info_measure_main_exp,2022.2.2,Win32,59.77643613,,,,,,,,,,,,,,,,,,masks/mask_001.jpg,,,,,,,,,,,,,,,,,,,,,,,,,,,,,,,,,,,,,,,,,,,0,0,0,0,1,,,,,,,,,,,,,,,,,,,,,,,,,,,,,,,,,,,,,,,,,,,,,,
531052,001,2022-11-21_24h49.57.356,Info_measure_main_exp,2022.2.2,Win32,59.77643613,,,,,,,,,,,,,,,,,,masks/mask_005.jpg,,,,,,,,,,,,,,,,,,,,,,,,,,,,,,,,,,,,,,,,,,,0,1,1,4,1,,,,,,,,,,,,,,,,,,,,,,,,,,,,,,,,,,,,,,,,,,,,,,
531052,001,2022-11-21_24h49.57.356,Info_measure_main_exp,2022.2.2,Win32,59.77643613,,,,,,,,,,,,,,,,,,masks/mask_003.jpg,,,,,,,,,,,,,,,,,,,,,,,,,,,,,,,,,,,,,,,,,,,0,2,2,2,1,,,,,,,,,,,,,,,,,,,,,,,,,,,,,,,,,,,,,,,,,,,,,,
531052,001,2022-11-21_24h49.57.356,Info_measure_main_exp,2022.2.2,Win32,59.77643613,,,,,,,,,,,,,,,,,,masks/mask_004.jpg,,,,,,,,,,,,,,,,,,,,,,,,,,,,,,,,,,,,,,,,,,,0,3,3,3,1,,,,,,,,,,,,,,,,,,,,,,,,,,,,,,,,,,,,,,,,,,,,,,
531052,001,2022-11-21_24h49.57.356,Info_measure_main_exp,2022.2.2,Win32,59.77643613,,,,,,,,,,,,,,,,,,masks/mask_002.jpg,,,,,,,,,,,,,,,,,,,,,,,,,,,,,,,,,,,,,,,,,,,0,4,4,1,1,,,,,,,,,,,,,,,,,,,,,,,,,,,,,,,,,,,,,,,,,,,,,,
531052,001,2022-11-21_24h49.57.356,Info_measure_main_exp,2022.2.2,Win32,59.77643613,,,,,,,,,,,,,,,,,,masks/mask_003.jpg,,,,,,,,,,,,,,,,,,,,,,,,,,,,,,,,,,,,,,,,,,,,,,,,0,0,0,2,1,,,,,,,,,,,,,,,,,,,,,,,,,,,,,,,,,,,,,,,,,
531052,001,2022-11-21_24h49.57.356,Info_measure_main_exp,2022.2.2,Win32,59.77643613,,,,,,,,,,,,,,,,,,masks/mask_002.jpg,,,,,,,,,,,,,,,,,,,,,,,,,,,,,,,,,,,,,,,,,,,,,,,,0,1,1,1,1,,,,,,,,,,,,,,,,,,,,,,,,,,,,,,,,,,,,,,,,,
531052,001,2022-11-21_24h49.57.356,Info_measure_main_exp,2022.2.2,Win32,59.77643613,,,,,,,,,,,,,,,,,,masks/mask_004.jpg,,,,,,,,,,,,,,,,,,,,,,,,,,,,,,,,,,,,,,,,,,,,,,,,0,2,2,3,1,,,,,,,,,,,,,,,,,,,,,,,,,,,,,,,,,,,,,,,,,
531052,001,2022-11-21_24h49.57.356,Info_measure_main_exp,2022.2.2,Win32,59.77643613,,,,,,,,,,,,,,,,,,masks/mask_001.jpg,,,,,,,,,,,,,,,,,,,,,,,,,,,,,,,,,,,,,,,,,,,,,,,,0,3,3,0,1,,,,,,,,,,,,,,,,,,,,,,,,,,,,,,,,,,,,,,,,,
531052,001,2022-11-21_24h49.57.356,Info_measure_main_exp,2022.2.2,Win32,59.77643613,,,,,,,,,,,,,,,,,,masks/mask_005.jpg,,,,,,,,,,,,,,,,,,,,,,,,,,,,,,,,,,,,,,,,,,,,,,,,0,4,4,4,1,,,,,,,,,,,,,,,,,,,,,,,,,,,,,,,,,,,,,,,,,
531052,001,2022-11-21_24h49.57.356,Info_measure_main_exp,2022.2.2,Win32,59.77643613,,,,,,,,,,,,,,,,,,,,,,,,,,,,,,6,1.0877,1,,,,,,,,,,,,0,131,5,5,2142,2166,absent_patch/patch0002142.jpg,absent_patch/patch0002166.jpg,,,,,,,,,,,,,,,,,,,,0.076822917,0.03515625,1,0,0,response1disk,13,0,0.0078125,1,0,0,center_square,0,12,12,66,1,,,,,,,,,,,,,,,,,,,,,,,
531052,001,2022-11-21_24h49.57.356,Info_measure_main_exp,2022.2.2,Win32,59.77643613,,,,,,,,,,,,,,,,,,masks/mask_005.jpg,,,,,,,,,,,,,,,,,,,,,,,,,,,,,,,,,,,,,,,,,,,0,0,0,4,1,,,,,,,,,,,,,,,,,,,,,,,,,,,,,,,,,,,,,,,,,,,,,,
531052,001,2022-11-21_24h49.57.356,Info_measure_main_exp,2022.2.2,Win32,59.77643613,,,,,,,,,,,,,,,,,,masks/mask_001.jpg,,,,,,,,,,,,,,,,,,,,,,,,,,,,,,,,,,,,,,,,,,,0,1,1,0,1,,,,,,,,,,,,,,,,,,,,,,,,,,,,,,,,,,,,,,,,,,,,,,
531052,001,2022-11-21_24h49.57.356,Info_measure_main_exp,2022.2.2,Win32,59.77643613,,,,,,,,,,,,,,,,,,masks/mask_002.jpg,,,,,,,,,,,,,,,,,,,,,,,,,,,,,,,,,,,,,,,,,,,0,2,2,1,1,,,,,,,,,,,,,,,,,,,,,,,,,,,,,,,,,,,,,,,,,,,,,,
531052,001,2022-11-21_24h49.57.356,Info_measure_main_exp,2022.2.2,Win32,59.77643613,,,,,,,,,,,,,,,,,,masks/mask_004.jpg,,,,,,,,,,,,,,,,,,,,,,,,,,,,,,,,,,,,,,,,,,,0,3,3,3,1,,,,,,,,,,,,,,,,,,,,,,,,,,,,,,,,,,,,,,,,,,,,,,
531052,001,2022-11-21_24h49.57.356,Info_measure_main_exp,2022.2.2,Win32,59.77643613,,,,,,,,,,,,,,,,,,masks/mask_003.jpg,,,,,,,,,,,,,,,,,,,,,,,,,,,,,,,,,,,,,,,,,,,0,4,4,2,1,,,,,,,,,,,,,,,,,,,,,,,,,,,,,,,,,,,,,,,,,,,,,,
531052,001,2022-11-21_24h49.57.356,Info_measure_main_exp,2022.2.2,Win32,59.77643613,,,,,,,,,,,,,,,,,,masks/mask_002.jpg,,,,,,,,,,,,,,,,,,,,,,,,,,,,,,,,,,,,,,,,,,,,,,,,0,0,0,1,1,,,,,,,,,,,,,,,,,,,,,,,,,,,,,,,,,,,,,,,,,
531052,001,2022-11-21_24h49.57.356,Info_measure_main_exp,2022.2.2,Win32,59.77643613,,,,,,,,,,,,,,,,,,masks/mask_004.jpg,,,,,,,,,,,,,,,,,,,,,,,,,,,,,,,,,,,,,,,,,,,,,,,,0,1,1,3,1,,,,,,,,,,,,,,,,,,,,,,,,,,,,,,,,,,,,,,,,,
531052,001,2022-11-21_24h49.57.356,Info_measure_main_exp,2022.2.2,Win32,59.77643613,,,,,,,,,,,,,,,,,,masks/mask_005.jpg,,,,,,,,,,,,,,,,,,,,,,,,,,,,,,,,,,,,,,,,,,,,,,,,0,2,2,4,1,,,,,,,,,,,,,,,,,,,,,,,,,,,,,,,,,,,,,,,,,
531052,001,2022-11-21_24h49.57.356,Info_measure_main_exp,2022.2.2,Win32,59.77643613,,,,,,,,,,,,,,,,,,masks/mask_001.jpg,,,,,,,,,,,,,,,,,,,,,,,,,,,,,,,,,,,,,,,,,,,,,,,,0,3,3,0,1,,,,,,,,,,,,,,,,,,,,,,,,,,,,,,,,,,,,,,,,,
531052,001,2022-11-21_24h49.57.356,Info_measure_main_exp,2022.2.2,Win32,59.77643613,,,,,,,,,,,,,,,,,,masks/mask_003.jpg,,,,,,,,,,,,,,,,,,,,,,,,,,,,,,,,,,,,,,,,,,,,,,,,0,4,4,2,1,,,,,,,,,,,,,,,,,,,,,,,,,,,,,,,,,,,,,,,,,
531052,001,2022-11-21_24h49.57.356,Info_measure_main_exp,2022.2.2,Win32,59.77643613,,,,,,,,,,,,,,,,,,,,,,,,,,,,,,5,3.4387,1,,,,,,,,,,,,1,131,5,5,1,2154,present_patch/cong_131_5_a.jpg,absent_patch/patch0002154.jpg,,,,,,,,,,,,,,,,,,,,0.069010417,-0.052083333,1,0,0,response3disk,14,0.00390625,0.002604167,1,0,0,center_square,0,13,13,87,1,,,,,,,,,,,,,,,,,,,,,,,
531052,001,2022-11-21_24h49.57.356,Info_measure_main_exp,2022.2.2,Win32,59.77643613,,,,,,,,,,,,,,,,,,masks/mask_002.jpg,,,,,,,,,,,,,,,,,,,,,,,,,,,,,,,,,,,,,,,,,,,0,0,0,1,1,,,,,,,,,,,,,,,,,,,,,,,,,,,,,,,,,,,,,,,,,,,,,,
531052,001,2022-11-21_24h49.57.356,Info_measure_main_exp,2022.2.2,Win32,59.77643613,,,,,,,,,,,,,,,,,,masks/mask_004.jpg,,,,,,,,,,,,,,,,,,,,,,,,,,,,,,,,,,,,,,,,,,,0,1,1,3,1,,,,,,,,,,,,,,,,,,,,,,,,,,,,,,,,,,,,,,,,,,,,,,
531052,001,2022-11-21_24h49.57.356,Info_measure_main_exp,2022.2.2,Win32,59.77643613,,,,,,,,,,,,,,,,,,masks/mask_005.jpg,,,,,,,,,,,,,,,,,,,,,,,,,,,,,,,,,,,,,,,,,,,0,2,2,4,1,,,,,,,,,,,,,,,,,,,,,,,,,,,,,,,,,,,,,,,,,,,,,,
531052,001,2022-11-21_24h49.57.356,Info_measure_main_exp,2022.2.2,Win32,59.77643613,,,,,,,,,,,,,,,,,,masks/mask_003.jpg,,,,,,,,,,,,,,,,,,,,,,,,,,,,,,,,,,,,,,,,,,,0,3,3,2,1,,,,,,,,,,,,,,,,,,,,,,,,,,,,,,,,,,,,,,,,,,,,,,
531052,001,2022-11-21_24h49.57.356,Info_measure_main_exp,2022.2.2,Win32,59.77643613,,,,,,,,,,,,,,,,,,masks/mask_001.jpg,,,,,,,,,,,,,,,,,,,,,,,,,,,,,,,,,,,,,,,,,,,0,4,4,0,1,,,,,,,,,,,,,,,,,,,,,,,,,,,,,,,,,,,,,,,,,,,,,,
531052,001,2022-11-21_24h49.57.356,Info_measure_main_exp,2022.2.2,Win32,59.77643613,,,,,,,,,,,,,,,,,,masks/mask_003.jpg,,,,,,,,,,,,,,,,,,,,,,,,,,,,,,,,,,,,,,,,,,,,,,,,0,0,0,2,1,,,,,,,,,,,,,,,,,,,,,,,,,,,,,,,,,,,,,,,,,
531052,001,2022-11-21_24h49.57.356,Info_measure_main_exp,2022.2.2,Win32,59.77643613,,,,,,,,,,,,,,,,,,masks/mask_002.jpg,,,,,,,,,,,,,,,,,,,,,,,,,,,,,,,,,,,,,,,,,,,,,,,,0,1,1,1,1,,,,,,,,,,,,,,,,,,,,,,,,,,,,,,,,,,,,,,,,,
531052,001,2022-11-21_24h49.57.356,Info_measure_main_exp,2022.2.2,Win32,59.77643613,,,,,,,,,,,,,,,,,,masks/mask_005.jpg,,,,,,,,,,,,,,,,,,,,,,,,,,,,,,,,,,,,,,,,,,,,,,,,0,2,2,4,1,,,,,,,,,,,,,,,,,,,,,,,,,,,,,,,,,,,,,,,,,
531052,001,2022-11-21_24h49.57.356,Info_measure_main_exp,2022.2.2,Win32,59.77643613,,,,,,,,,,,,,,,,,,masks/mask_004.jpg,,,,,,,,,,,,,,,,,,,,,,,,,,,,,,,,,,,,,,,,,,,,,,,,0,3,3,3,1,,,,,,,,,,,,,,,,,,,,,,,,,,,,,,,,,,,,,,,,,
531052,001,2022-11-21_24h49.57.356,Info_measure_main_exp,2022.2.2,Win32,59.77643613,,,,,,,,,,,,,,,,,,masks/mask_001.jpg,,,,,,,,,,,,,,,,,,,,,,,,,,,,,,,,,,,,,,,,,,,,,,,,0,4,4,0,1,,,,,,,,,,,,,,,,,,,,,,,,,,,,,,,,,,,,,,,,,
531052,001,2022-11-21_24h49.57.356,Info_measure_main_exp,2022.2.2,Win32,59.77643613,,,,,,,,,,,,,,,,,,,,,,,,,,,,,,6,1.6851,1,,,,,,,,,,,,0,131,5,5,1974,2298,absent_patch/patch0001974.jpg,absent_patch/patch0002298.jpg,,,,,,,,,,,,,,,,,,,,0.0703125,0.02734375,1,0,0,response1disk,15,-0.002604167,0.0078125,1,0,0,center_square,0,14,14,6,1,,,,,,,,,,,,,,,,,,,,,,,
531052,001,2022-11-21_24h49.57.356,Info_measure_main_exp,2022.2.2,Win32,59.77643613,,,,,,,,,,,,,,,,,,masks/mask_002.jpg,,,,,,,,,,,,,,,,,,,,,,,,,,,,,,,,,,,,,,,,,,,0,0,0,1,1,,,,,,,,,,,,,,,,,,,,,,,,,,,,,,,,,,,,,,,,,,,,,,
531052,001,2022-11-21_24h49.57.356,Info_measure_main_exp,2022.2.2,Win32,59.77643613,,,,,,,,,,,,,,,,,,masks/mask_003.jpg,,,,,,,,,,,,,,,,,,,,,,,,,,,,,,,,,,,,,,,,,,,0,1,1,2,1,,,,,,,,,,,,,,,,,,,,,,,,,,,,,,,,,,,,,,,,,,,,,,
531052,001,2022-11-21_24h49.57.356,Info_measure_main_exp,2022.2.2,Win32,59.77643613,,,,,,,,,,,,,,,,,,masks/mask_005.jpg,,,,,,,,,,,,,,,,,,,,,,,,,,,,,,,,,,,,,,,,,,,0,2,2,4,1,,,,,,,,,,,,,,,,,,,,,,,,,,,,,,,,,,,,,,,,,,,,,,
531052,001,2022-11-21_24h49.57.356,Info_measure_main_exp,2022.2.2,Win32,59.77643613,,,,,,,,,,,,,,,,,,masks/mask_001.jpg,,,,,,,,,,,,,,,,,,,,,,,,,,,,,,,,,,,,,,,,,,,0,3,3,0,1,,,,,,,,,,,,,,,,,,,,,,,,,,,,,,,,,,,,,,,,,,,,,,
531052,001,2022-11-21_24h49.57.356,Info_measure_main_exp,2022.2.2,Win32,59.77643613,,,,,,,,,,,,,,,,,,masks/mask_004.jpg,,,,,,,,,,,,,,,,,,,,,,,,,,,,,,,,,,,,,,,,,,,0,4,4,3,1,,,,,,,,,,,,,,,,,,,,,,,,,,,,,,,,,,,,,,,,,,,,,,
531052,001,2022-11-21_24h49.57.356,Info_measure_main_exp,2022.2.2,Win32,59.77643613,,,,,,,,,,,,,,,,,,masks/mask_001.jpg,,,,,,,,,,,,,,,,,,,,,,,,,,,,,,,,,,,,,,,,,,,,,,,,0,0,0,0,1,,,,,,,,,,,,,,,,,,,,,,,,,,,,,,,,,,,,,,,,,
531052,001,2022-11-21_24h49.57.356,Info_measure_main_exp,2022.2.2,Win32,59.77643613,,,,,,,,,,,,,,,,,,masks/mask_003.jpg,,,,,,,,,,,,,,,,,,,,,,,,,,,,,,,,,,,,,,,,,,,,,,,,0,1,1,2,1,,,,,,,,,,,,,,,,,,,,,,,,,,,,,,,,,,,,,,,,,
531052,001,2022-11-21_24h49.57.356,Info_measure_main_exp,2022.2.2,Win32,59.77643613,,,,,,,,,,,,,,,,,,masks/mask_002.jpg,,,,,,,,,,,,,,,,,,,,,,,,,,,,,,,,,,,,,,,,,,,,,,,,0,2,2,1,1,,,,,,,,,,,,,,,,,,,,,,,,,,,,,,,,,,,,,,,,,
531052,001,2022-11-21_24h49.57.356,Info_measure_main_exp,2022.2.2,Win32,59.77643613,,,,,,,,,,,,,,,,,,masks/mask_005.jpg,,,,,,,,,,,,,,,,,,,,,,,,,,,,,,,,,,,,,,,,,,,,,,,,0,3,3,4,1,,,,,,,,,,,,,,,,,,,,,,,,,,,,,,,,,,,,,,,,,
531052,001,2022-11-21_24h49.57.356,Info_measure_main_exp,2022.2.2,Win32,59.77643613,,,,,,,,,,,,,,,,,,masks/mask_004.jpg,,,,,,,,,,,,,,,,,,,,,,,,,,,,,,,,,,,,,,,,,,,,,,,,0,4,4,3,1,,,,,,,,,,,,,,,,,,,,,,,,,,,,,,,,,,,,,,,,,
531052,001,2022-11-21_24h49.57.356,Info_measure_main_exp,2022.2.2,Win32,59.77643613,,,,,,,,,,,,,,,,,,,,,,,,,,,,,,7,2.2013,1,,,,,,,,,,,,0,131,5,5,2214,2178,absent_patch/patch0002214.jpg,absent_patch/patch0002178.jpg,,,,,,,,,,,,,,,,,,,,0.05859375,0.087239583,1,0,0,response1disk,16,-0.006510417,0.005208333,1,0,0,center_square,0,15,15,62,1,,,,,,,,,,,,,,,,,,,,,,,
531052,001,2022-11-21_24h49.57.356,Info_measure_main_exp,2022.2.2,Win32,59.77643613,,,,,,,,,,,,,,,,,,masks/mask_005.jpg,,,,,,,,,,,,,,,,,,,,,,,,,,,,,,,,,,,,,,,,,,,0,0,0,4,1,,,,,,,,,,,,,,,,,,,,,,,,,,,,,,,,,,,,,,,,,,,,,,
531052,001,2022-11-21_24h49.57.356,Info_measure_main_exp,2022.2.2,Win32,59.77643613,,,,,,,,,,,,,,,,,,masks/mask_003.jpg,,,,,,,,,,,,,,,,,,,,,,,,,,,,,,,,,,,,,,,,,,,0,1,1,2,1,,,,,,,,,,,,,,,,,,,,,,,,,,,,,,,,,,,,,,,,,,,,,,
531052,001,2022-11-21_24h49.57.356,Info_measure_main_exp,2022.2.2,Win32,59.77643613,,,,,,,,,,,,,,,,,,masks/mask_001.jpg,,,,,,,,,,,,,,,,,,,,,,,,,,,,,,,,,,,,,,,,,,,0,2,2,0,1,,,,,,,,,,,,,,,,,,,,,,,,,,,,,,,,,,,,,,,,,,,,,,
531052,001,2022-11-21_24h49.57.356,Info_measure_main_exp,2022.2.2,Win32,59.77643613,,,,,,,,,,,,,,,,,,masks/mask_002.jpg,,,,,,,,,,,,,,,,,,,,,,,,,,,,,,,,,,,,,,,,,,,0,3,3,1,1,,,,,,,,,,,,,,,,,,,,,,,,,,,,,,,,,,,,,,,,,,,,,,
531052,001,2022-11-21_24h49.57.356,Info_measure_main_exp,2022.2.2,Win32,59.77643613,,,,,,,,,,,,,,,,,,masks/mask_004.jpg,,,,,,,,,,,,,,,,,,,,,,,,,,,,,,,,,,,,,,,,,,,0,4,4,3,1,,,,,,,,,,,,,,,,,,,,,,,,,,,,,,,,,,,,,,,,,,,,,,
531052,001,2022-11-21_24h49.57.356,Info_measure_main_exp,2022.2.2,Win32,59.77643613,,,,,,,,,,,,,,,,,,masks/mask_003.jpg,,,,,,,,,,,,,,,,,,,,,,,,,,,,,,,,,,,,,,,,,,,,,,,,0,0,0,2,1,,,,,,,,,,,,,,,,,,,,,,,,,,,,,,,,,,,,,,,,,
531052,001,2022-11-21_24h49.57.356,Info_measure_main_exp,2022.2.2,Win32,59.77643613,,,,,,,,,,,,,,,,,,masks/mask_001.jpg,,,,,,,,,,,,,,,,,,,,,,,,,,,,,,,,,,,,,,,,,,,,,,,,0,1,1,0,1,,,,,,,,,,,,,,,,,,,,,,,,,,,,,,,,,,,,,,,,,
531052,001,2022-11-21_24h49.57.356,Info_measure_main_exp,2022.2.2,Win32,59.77643613,,,,,,,,,,,,,,,,,,masks/mask_002.jpg,,,,,,,,,,,,,,,,,,,,,,,,,,,,,,,,,,,,,,,,,,,,,,,,0,2,2,1,1,,,,,,,,,,,,,,,,,,,,,,,,,,,,,,,,,,,,,,,,,
531052,001,2022-11-21_24h49.57.356,Info_measure_main_exp,2022.2.2,Win32,59.77643613,,,,,,,,,,,,,,,,,,masks/mask_004.jpg,,,,,,,,,,,,,,,,,,,,,,,,,,,,,,,,,,,,,,,,,,,,,,,,0,3,3,3,1,,,,,,,,,,,,,,,,,,,,,,,,,,,,,,,,,,,,,,,,,
531052,001,2022-11-21_24h49.57.356,Info_measure_main_exp,2022.2.2,Win32,59.77643613,,,,,,,,,,,,,,,,,,masks/mask_005.jpg,,,,,,,,,,,,,,,,,,,,,,,,,,,,,,,,,,,,,,,,,,,,,,,,0,4,4,4,1,,,,,,,,,,,,,,,,,,,,,,,,,,,,,,,,,,,,,,,,,
531052,001,2022-11-21_24h49.57.356,Info_measure_main_exp,2022.2.2,Win32,59.77643613,,,,,,,,,,,,,,,,,,,,,,,,,,,,,,7,0.9873,1,,,,,,,,,,,,0,131,5,5,2250,2238,absent_patch/patch0002250.jpg,absent_patch/patch0002238.jpg,,,,,,,,,,,,,,,,,,,,0.036458333,0.110677083,1,0,0,response1disk,17,0.009114583,0,1,0,0,center_square,0,16,16,110,1,,,,,,,,,,,,,,,,,,,,,,,
531052,001,2022-11-21_24h49.57.356,Info_measure_main_exp,2022.2.2,Win32,59.77643613,,,,,,,,,,,,,,,,,,masks/mask_005.jpg,,,,,,,,,,,,,,,,,,,,,,,,,,,,,,,,,,,,,,,,,,,0,0,0,4,1,,,,,,,,,,,,,,,,,,,,,,,,,,,,,,,,,,,,,,,,,,,,,,
531052,001,2022-11-21_24h49.57.356,Info_measure_main_exp,2022.2.2,Win32,59.77643613,,,,,,,,,,,,,,,,,,masks/mask_003.jpg,,,,,,,,,,,,,,,,,,,,,,,,,,,,,,,,,,,,,,,,,,,0,1,1,2,1,,,,,,,,,,,,,,,,,,,,,,,,,,,,,,,,,,,,,,,,,,,,,,
531052,001,2022-11-21_24h49.57.356,Info_measure_main_exp,2022.2.2,Win32,59.77643613,,,,,,,,,,,,,,,,,,masks/mask_002.jpg,,,,,,,,,,,,,,,,,,,,,,,,,,,,,,,,,,,,,,,,,,,0,2,2,1,1,,,,,,,,,,,,,,,,,,,,,,,,,,,,,,,,,,,,,,,,,,,,,,
531052,001,2022-11-21_24h49.57.356,Info_measure_main_exp,2022.2.2,Win32,59.77643613,,,,,,,,,,,,,,,,,,masks/mask_004.jpg,,,,,,,,,,,,,,,,,,,,,,,,,,,,,,,,,,,,,,,,,,,0,3,3,3,1,,,,,,,,,,,,,,,,,,,,,,,,,,,,,,,,,,,,,,,,,,,,,,
531052,001,2022-11-21_24h49.57.356,Info_measure_main_exp,2022.2.2,Win32,59.77643613,,,,,,,,,,,,,,,,,,masks/mask_001.jpg,,,,,,,,,,,,,,,,,,,,,,,,,,,,,,,,,,,,,,,,,,,0,4,4,0,1,,,,,,,,,,,,,,,,,,,,,,,,,,,,,,,,,,,,,,,,,,,,,,
531052,001,2022-11-21_24h49.57.356,Info_measure_main_exp,2022.2.2,Win32,59.77643613,,,,,,,,,,,,,,,,,,masks/mask_003.jpg,,,,,,,,,,,,,,,,,,,,,,,,,,,,,,,,,,,,,,,,,,,,,,,,0,0,0,2,1,,,,,,,,,,,,,,,,,,,,,,,,,,,,,,,,,,,,,,,,,
531052,001,2022-11-21_24h49.57.356,Info_measure_main_exp,2022.2.2,Win32,59.77643613,,,,,,,,,,,,,,,,,,masks/mask_001.jpg,,,,,,,,,,,,,,,,,,,,,,,,,,,,,,,,,,,,,,,,,,,,,,,,0,1,1,0,1,,,,,,,,,,,,,,,,,,,,,,,,,,,,,,,,,,,,,,,,,
531052,001,2022-11-21_24h49.57.356,Info_measure_main_exp,2022.2.2,Win32,59.77643613,,,,,,,,,,,,,,,,,,masks/mask_002.jpg,,,,,,,,,,,,,,,,,,,,,,,,,,,,,,,,,,,,,,,,,,,,,,,,0,2,2,1,1,,,,,,,,,,,,,,,,,,,,,,,,,,,,,,,,,,,,,,,,,
531052,001,2022-11-21_24h49.57.356,Info_measure_main_exp,2022.2.2,Win32,59.77643613,,,,,,,,,,,,,,,,,,masks/mask_005.jpg,,,,,,,,,,,,,,,,,,,,,,,,,,,,,,,,,,,,,,,,,,,,,,,,0,3,3,4,1,,,,,,,,,,,,,,,,,,,,,,,,,,,,,,,,,,,,,,,,,
531052,001,2022-11-21_24h49.57.356,Info_measure_main_exp,2022.2.2,Win32,59.77643613,,,,,,,,,,,,,,,,,,masks/mask_004.jpg,,,,,,,,,,,,,,,,,,,,,,,,,,,,,,,,,,,,,,,,,,,,,,,,0,4,4,3,1,,,,,,,,,,,,,,,,,,,,,,,,,,,,,,,,,,,,,,,,,
531052,001,2022-11-21_24h49.57.356,Info_measure_main_exp,2022.2.2,Win32,59.77643613,,,,,,,,,,,,,,,,,,,,,,,,,,,,,,7,1.1705,1,,,,,,,,,,,,0,131,5,5,2274,1974,absent_patch/patch0002274.jpg,absent_patch/patch0001974.jpg,,,,,,,,,,,,,,,,,,,,0.03125,0.131510417,1,0,0,response1disk,18,0.01171875,0.006510417,1,0,0,center_square,0,17,17,90,1,,,,,,,,,,,,,,,,,,,,,,,
531052,001,2022-11-21_24h49.57.356,Info_measure_main_exp,2022.2.2,Win32,59.77643613,,,,,,,,,,,,,,,,,,masks/mask_003.jpg,,,,,,,,,,,,,,,,,,,,,,,,,,,,,,,,,,,,,,,,,,,0,0,0,2,1,,,,,,,,,,,,,,,,,,,,,,,,,,,,,,,,,,,,,,,,,,,,,,
531052,001,2022-11-21_24h49.57.356,Info_measure_main_exp,2022.2.2,Win32,59.77643613,,,,,,,,,,,,,,,,,,masks/mask_004.jpg,,,,,,,,,,,,,,,,,,,,,,,,,,,,,,,,,,,,,,,,,,,0,1,1,3,1,,,,,,,,,,,,,,,,,,,,,,,,,,,,,,,,,,,,,,,,,,,,,,
531052,001,2022-11-21_24h49.57.356,Info_measure_main_exp,2022.2.2,Win32,59.77643613,,,,,,,,,,,,,,,,,,masks/mask_001.jpg,,,,,,,,,,,,,,,,,,,,,,,,,,,,,,,,,,,,,,,,,,,0,2,2,0,1,,,,,,,,,,,,,,,,,,,,,,,,,,,,,,,,,,,,,,,,,,,,,,
531052,001,2022-11-21_24h49.57.356,Info_measure_main_exp,2022.2.2,Win32,59.77643613,,,,,,,,,,,,,,,,,,masks/mask_002.jpg,,,,,,,,,,,,,,,,,,,,,,,,,,,,,,,,,,,,,,,,,,,0,3,3,1,1,,,,,,,,,,,,,,,,,,,,,,,,,,,,,,,,,,,,,,,,,,,,,,
531052,001,2022-11-21_24h49.57.356,Info_measure_main_exp,2022.2.2,Win32,59.77643613,,,,,,,,,,,,,,,,,,masks/mask_005.jpg,,,,,,,,,,,,,,,,,,,,,,,,,,,,,,,,,,,,,,,,,,,0,4,4,4,1,,,,,,,,,,,,,,,,,,,,,,,,,,,,,,,,,,,,,,,,,,,,,,
531052,001,2022-11-21_24h49.57.356,Info_measure_main_exp,2022.2.2,Win32,59.77643613,,,,,,,,,,,,,,,,,,masks/mask_001.jpg,,,,,,,,,,,,,,,,,,,,,,,,,,,,,,,,,,,,,,,,,,,,,,,,0,0,0,0,1,,,,,,,,,,,,,,,,,,,,,,,,,,,,,,,,,,,,,,,,,
531052,001,2022-11-21_24h49.57.356,Info_measure_main_exp,2022.2.2,Win32,59.77643613,,,,,,,,,,,,,,,,,,masks/mask_004.jpg,,,,,,,,,,,,,,,,,,,,,,,,,,,,,,,,,,,,,,,,,,,,,,,,0,1,1,3,1,,,,,,,,,,,,,,,,,,,,,,,,,,,,,,,,,,,,,,,,,
531052,001,2022-11-21_24h49.57.356,Info_measure_main_exp,2022.2.2,Win32,59.77643613,,,,,,,,,,,,,,,,,,masks/mask_005.jpg,,,,,,,,,,,,,,,,,,,,,,,,,,,,,,,,,,,,,,,,,,,,,,,,0,2,2,4,1,,,,,,,,,,,,,,,,,,,,,,,,,,,,,,,,,,,,,,,,,
531052,001,2022-11-21_24h49.57.356,Info_measure_main_exp,2022.2.2,Win32,59.77643613,,,,,,,,,,,,,,,,,,masks/mask_003.jpg,,,,,,,,,,,,,,,,,,,,,,,,,,,,,,,,,,,,,,,,,,,,,,,,0,3,3,2,1,,,,,,,,,,,,,,,,,,,,,,,,,,,,,,,,,,,,,,,,,
531052,001,2022-11-21_24h49.57.356,Info_measure_main_exp,2022.2.2,Win32,59.77643613,,,,,,,,,,,,,,,,,,masks/mask_002.jpg,,,,,,,,,,,,,,,,,,,,,,,,,,,,,,,,,,,,,,,,,,,,,,,,0,4,4,1,1,,,,,,,,,,,,,,,,,,,,,,,,,,,,,,,,,,,,,,,,,
531052,001,2022-11-21_24h49.57.356,Info_measure_main_exp,2022.2.2,Win32,59.77643613,,,,,,,,,,,,,,,,,,,,,,,,,,,,,,7,1.3486,1,,,,,,,,,,,,0,131,5,5,2250,2298,absent_patch/patch0002250.jpg,absent_patch/patch0002298.jpg,,,,,,,,,,,,,,,,,,,,0.045572917,0.12109375,1,0,0,response1disk,19,-0.0078125,0.009114583,1,0,0,center_square,0,18,18,59,1,,,,,,,,,,,,,,,,,,,,,,,
531052,001,2022-11-21_24h49.57.356,Info_measure_main_exp,2022.2.2,Win32,59.77643613,,,,,,,,,,,,,,,,,,masks/mask_002.jpg,,,,,,,,,,,,,,,,,,,,,,,,,,,,,,,,,,,,,,,,,,,0,0,0,1,1,,,,,,,,,,,,,,,,,,,,,,,,,,,,,,,,,,,,,,,,,,,,,,
531052,001,2022-11-21_24h49.57.356,Info_measure_main_exp,2022.2.2,Win32,59.77643613,,,,,,,,,,,,,,,,,,masks/mask_005.jpg,,,,,,,,,,,,,,,,,,,,,,,,,,,,,,,,,,,,,,,,,,,0,1,1,4,1,,,,,,,,,,,,,,,,,,,,,,,,,,,,,,,,,,,,,,,,,,,,,,
531052,001,2022-11-21_24h49.57.356,Info_measure_main_exp,2022.2.2,Win32,59.77643613,,,,,,,,,,,,,,,,,,masks/mask_003.jpg,,,,,,,,,,,,,,,,,,,,,,,,,,,,,,,,,,,,,,,,,,,0,2,2,2,1,,,,,,,,,,,,,,,,,,,,,,,,,,,,,,,,,,,,,,,,,,,,,,
531052,001,2022-11-21_24h49.57.356,Info_measure_main_exp,2022.2.2,Win32,59.77643613,,,,,,,,,,,,,,,,,,masks/mask_001.jpg,,,,,,,,,,,,,,,,,,,,,,,,,,,,,,,,,,,,,,,,,,,0,3,3,0,1,,,,,,,,,,,,,,,,,,,,,,,,,,,,,,,,,,,,,,,,,,,,,,
531052,001,2022-11-21_24h49.57.356,Info_measure_main_exp,2022.2.2,Win32,59.77643613,,,,,,,,,,,,,,,,,,masks/mask_004.jpg,,,,,,,,,,,,,,,,,,,,,,,,,,,,,,,,,,,,,,,,,,,0,4,4,3,1,,,,,,,,,,,,,,,,,,,,,,,,,,,,,,,,,,,,,,,,,,,,,,
531052,001,2022-11-21_24h49.57.356,Info_measure_main_exp,2022.2.2,Win32,59.77643613,,,,,,,,,,,,,,,,,,masks/mask_003.jpg,,,,,,,,,,,,,,,,,,,,,,,,,,,,,,,,,,,,,,,,,,,,,,,,0,0,0,2,1,,,,,,,,,,,,,,,,,,,,,,,,,,,,,,,,,,,,,,,,,
531052,001,2022-11-21_24h49.57.356,Info_measure_main_exp,2022.2.2,Win32,59.77643613,,,,,,,,,,,,,,,,,,masks/mask_004.jpg,,,,,,,,,,,,,,,,,,,,,,,,,,,,,,,,,,,,,,,,,,,,,,,,0,1,1,3,1,,,,,,,,,,,,,,,,,,,,,,,,,,,,,,,,,,,,,,,,,
531052,001,2022-11-21_24h49.57.356,Info_measure_main_exp,2022.2.2,Win32,59.77643613,,,,,,,,,,,,,,,,,,masks/mask_001.jpg,,,,,,,,,,,,,,,,,,,,,,,,,,,,,,,,,,,,,,,,,,,,,,,,0,2,2,0,1,,,,,,,,,,,,,,,,,,,,,,,,,,,,,,,,,,,,,,,,,
531052,001,2022-11-21_24h49.57.356,Info_measure_main_exp,2022.2.2,Win32,59.77643613,,,,,,,,,,,,,,,,,,masks/mask_002.jpg,,,,,,,,,,,,,,,,,,,,,,,,,,,,,,,,,,,,,,,,,,,,,,,,0,3,3,1,1,,,,,,,,,,,,,,,,,,,,,,,,,,,,,,,,,,,,,,,,,
531052,001,2022-11-21_24h49.57.356,Info_measure_main_exp,2022.2.2,Win32,59.77643613,,,,,,,,,,,,,,,,,,masks/mask_005.jpg,,,,,,,,,,,,,,,,,,,,,,,,,,,,,,,,,,,,,,,,,,,,,,,,0,4,4,4,1,,,,,,,,,,,,,,,,,,,,,,,,,,,,,,,,,,,,,,,,,
531052,001,2022-11-21_24h49.57.356,Info_measure_main_exp,2022.2.2,Win32,59.77643613,,,,,,,,,,,,,,,,,,,,,,,,,,,,,,7,1.2225,1,,,,,,,,,,,,0,131,5,5,1950,2082,absent_patch/patch0001950.jpg,absent_patch/patch0002082.jpg,,,,,,,,,,,,,,,,,,,,0.0390625,0.110677083,1,0,0,response1disk,20,-0.00390625,-0.00390625,1,0,0,center_square,0,19,19,12,1,,,,,,,,,,,,,,,,,,,,,,,
531052,001,2022-11-21_24h49.57.356,Info_measure_main_exp,2022.2.2,Win32,59.77643613,,,,,,,,,,,,,,,,,,masks/mask_003.jpg,,,,,,,,,,,,,,,,,,,,,,,,,,,,,,,,,,,,,,,,,,,0,0,0,2,1,,,,,,,,,,,,,,,,,,,,,,,,,,,,,,,,,,,,,,,,,,,,,,
531052,001,2022-11-21_24h49.57.356,Info_measure_main_exp,2022.2.2,Win32,59.77643613,,,,,,,,,,,,,,,,,,masks/mask_002.jpg,,,,,,,,,,,,,,,,,,,,,,,,,,,,,,,,,,,,,,,,,,,0,1,1,1,1,,,,,,,,,,,,,,,,,,,,,,,,,,,,,,,,,,,,,,,,,,,,,,
531052,001,2022-11-21_24h49.57.356,Info_measure_main_exp,2022.2.2,Win32,59.77643613,,,,,,,,,,,,,,,,,,masks/mask_001.jpg,,,,,,,,,,,,,,,,,,,,,,,,,,,,,,,,,,,,,,,,,,,0,2,2,0,1,,,,,,,,,,,,,,,,,,,,,,,,,,,,,,,,,,,,,,,,,,,,,,
531052,001,2022-11-21_24h49.57.356,Info_measure_main_exp,2022.2.2,Win32,59.77643613,,,,,,,,,,,,,,,,,,masks/mask_005.jpg,,,,,,,,,,,,,,,,,,,,,,,,,,,,,,,,,,,,,,,,,,,0,3,3,4,1,,,,,,,,,,,,,,,,,,,,,,,,,,,,,,,,,,,,,,,,,,,,,,
531052,001,2022-11-21_24h49.57.356,Info_measure_main_exp,2022.2.2,Win32,59.77643613,,,,,,,,,,,,,,,,,,masks/mask_004.jpg,,,,,,,,,,,,,,,,,,,,,,,,,,,,,,,,,,,,,,,,,,,0,4,4,3,1,,,,,,,,,,,,,,,,,,,,,,,,,,,,,,,,,,,,,,,,,,,,,,
531052,001,2022-11-21_24h49.57.356,Info_measure_main_exp,2022.2.2,Win32,59.77643613,,,,,,,,,,,,,,,,,,masks/mask_001.jpg,,,,,,,,,,,,,,,,,,,,,,,,,,,,,,,,,,,,,,,,,,,,,,,,0,0,0,0,1,,,,,,,,,,,,,,,,,,,,,,,,,,,,,,,,,,,,,,,,,
531052,001,2022-11-21_24h49.57.356,Info_measure_main_exp,2022.2.2,Win32,59.77643613,,,,,,,,,,,,,,,,,,masks/mask_005.jpg,,,,,,,,,,,,,,,,,,,,,,,,,,,,,,,,,,,,,,,,,,,,,,,,0,1,1,4,1,,,,,,,,,,,,,,,,,,,,,,,,,,,,,,,,,,,,,,,,,
531052,001,2022-11-21_24h49.57.356,Info_measure_main_exp,2022.2.2,Win32,59.77643613,,,,,,,,,,,,,,,,,,masks/mask_002.jpg,,,,,,,,,,,,,,,,,,,,,,,,,,,,,,,,,,,,,,,,,,,,,,,,0,2,2,1,1,,,,,,,,,,,,,,,,,,,,,,,,,,,,,,,,,,,,,,,,,
531052,001,2022-11-21_24h49.57.356,Info_measure_main_exp,2022.2.2,Win32,59.77643613,,,,,,,,,,,,,,,,,,masks/mask_004.jpg,,,,,,,,,,,,,,,,,,,,,,,,,,,,,,,,,,,,,,,,,,,,,,,,0,3,3,3,1,,,,,,,,,,,,,,,,,,,,,,,,,,,,,,,,,,,,,,,,,
531052,001,2022-11-21_24h49.57.356,Info_measure_main_exp,2022.2.2,Win32,59.77643613,,,,,,,,,,,,,,,,,,masks/mask_003.jpg,,,,,,,,,,,,,,,,,,,,,,,,,,,,,,,,,,,,,,,,,,,,,,,,0,4,4,2,1,,,,,,,,,,,,,,,,,,,,,,,,,,,,,,,,,,,,,,,,,
531052,001,2022-11-21_24h49.57.356,Info_measure_main_exp,2022.2.2,Win32,59.77643613,,,,,,,,,,,,,,,,,,,,,,,,,,,,,,6,2.0001,1,,,,,,,,,,,,0,131,5,5,2190,1974,absent_patch/patch0002190.jpg,absent_patch/patch0001974.jpg,,,,,,,,,,,,,,,,,,,,0.045572917,0.014322917,1,0,0,response1disk,21,0.005208333,0.005208333,1,0,0,center_square,0,20,20,119,1,,,,,,,,,,,,,,,,,,,,,,,
531052,001,2022-11-21_24h49.57.356,Info_measure_main_exp,2022.2.2,Win32,59.77643613,,,,,,,,,,,,,,,,,,masks/mask_005.jpg,,,,,,,,,,,,,,,,,,,,,,,,,,,,,,,,,,,,,,,,,,,0,0,0,4,1,,,,,,,,,,,,,,,,,,,,,,,,,,,,,,,,,,,,,,,,,,,,,,
531052,001,2022-11-21_24h49.57.356,Info_measure_main_exp,2022.2.2,Win32,59.77643613,,,,,,,,,,,,,,,,,,masks/mask_003.jpg,,,,,,,,,,,,,,,,,,,,,,,,,,,,,,,,,,,,,,,,,,,0,1,1,2,1,,,,,,,,,,,,,,,,,,,,,,,,,,,,,,,,,,,,,,,,,,,,,,
531052,001,2022-11-21_24h49.57.356,Info_measure_main_exp,2022.2.2,Win32,59.77643613,,,,,,,,,,,,,,,,,,masks/mask_001.jpg,,,,,,,,,,,,,,,,,,,,,,,,,,,,,,,,,,,,,,,,,,,0,2,2,0,1,,,,,,,,,,,,,,,,,,,,,,,,,,,,,,,,,,,,,,,,,,,,,,
531052,001,2022-11-21_24h49.57.356,Info_measure_main_exp,2022.2.2,Win32,59.77643613,,,,,,,,,,,,,,,,,,masks/mask_004.jpg,,,,,,,,,,,,,,,,,,,,,,,,,,,,,,,,,,,,,,,,,,,0,3,3,3,1,,,,,,,,,,,,,,,,,,,,,,,,,,,,,,,,,,,,,,,,,,,,,,
531052,001,2022-11-21_24h49.57.356,Info_measure_main_exp,2022.2.2,Win32,59.77643613,,,,,,,,,,,,,,,,,,masks/mask_002.jpg,,,,,,,,,,,,,,,,,,,,,,,,,,,,,,,,,,,,,,,,,,,0,4,4,1,1,,,,,,,,,,,,,,,,,,,,,,,,,,,,,,,,,,,,,,,,,,,,,,
531052,001,2022-11-21_24h49.57.356,Info_measure_main_exp,2022.2.2,Win32,59.77643613,,,,,,,,,,,,,,,,,,masks/mask_001.jpg,,,,,,,,,,,,,,,,,,,,,,,,,,,,,,,,,,,,,,,,,,,,,,,,0,0,0,0,1,,,,,,,,,,,,,,,,,,,,,,,,,,,,,,,,,,,,,,,,,
531052,001,2022-11-21_24h49.57.356,Info_measure_main_exp,2022.2.2,Win32,59.77643613,,,,,,,,,,,,,,,,,,masks/mask_003.jpg,,,,,,,,,,,,,,,,,,,,,,,,,,,,,,,,,,,,,,,,,,,,,,,,0,1,1,2,1,,,,,,,,,,,,,,,,,,,,,,,,,,,,,,,,,,,,,,,,,
531052,001,2022-11-21_24h49.57.356,Info_measure_main_exp,2022.2.2,Win32,59.77643613,,,,,,,,,,,,,,,,,,masks/mask_004.jpg,,,,,,,,,,,,,,,,,,,,,,,,,,,,,,,,,,,,,,,,,,,,,,,,0,2,2,3,1,,,,,,,,,,,,,,,,,,,,,,,,,,,,,,,,,,,,,,,,,
531052,001,2022-11-21_24h49.57.356,Info_measure_main_exp,2022.2.2,Win32,59.77643613,,,,,,,,,,,,,,,,,,masks/mask_005.jpg,,,,,,,,,,,,,,,,,,,,,,,,,,,,,,,,,,,,,,,,,,,,,,,,0,3,3,4,1,,,,,,,,,,,,,,,,,,,,,,,,,,,,,,,,,,,,,,,,,
531052,001,2022-11-21_24h49.57.356,Info_measure_main_exp,2022.2.2,Win32,59.77643613,,,,,,,,,,,,,,,,,,masks/mask_002.jpg,,,,,,,,,,,,,,,,,,,,,,,,,,,,,,,,,,,,,,,,,,,,,,,,0,4,4,1,1,,,,,,,,,,,,,,,,,,,,,,,,,,,,,,,,,,,,,,,,,
531052,001,2022-11-21_24h49.57.356,Info_measure_main_exp,2022.2.2,Win32,59.77643613,,,,,,,,,,,,,,,,,,,,,,,,,,,,,,6,3.2222,1,,,,,,,,,,,,0,131,5,5,2298,1986,absent_patch/patch0002298.jpg,absent_patch/patch0001986.jpg,,,,,,,,,,,,,,,,,,,,0.080729167,0.044270833,1,0,0,response1disk,22,0.01171875,0.001302083,1,0,0,center_square,0,21,21,32,1,,,,,,,,,,,,,,,,,,,,,,,
531052,001,2022-11-21_24h49.57.356,Info_measure_main_exp,2022.2.2,Win32,59.77643613,,,,,,,,,,,,,,,,,,masks/mask_005.jpg,,,,,,,,,,,,,,,,,,,,,,,,,,,,,,,,,,,,,,,,,,,0,0,0,4,1,,,,,,,,,,,,,,,,,,,,,,,,,,,,,,,,,,,,,,,,,,,,,,
531052,001,2022-11-21_24h49.57.356,Info_measure_main_exp,2022.2.2,Win32,59.77643613,,,,,,,,,,,,,,,,,,masks/mask_004.jpg,,,,,,,,,,,,,,,,,,,,,,,,,,,,,,,,,,,,,,,,,,,0,1,1,3,1,,,,,,,,,,,,,,,,,,,,,,,,,,,,,,,,,,,,,,,,,,,,,,
531052,001,2022-11-21_24h49.57.356,Info_measure_main_exp,2022.2.2,Win32,59.77643613,,,,,,,,,,,,,,,,,,masks/mask_001.jpg,,,,,,,,,,,,,,,,,,,,,,,,,,,,,,,,,,,,,,,,,,,0,2,2,0,1,,,,,,,,,,,,,,,,,,,,,,,,,,,,,,,,,,,,,,,,,,,,,,
531052,001,2022-11-21_24h49.57.356,Info_measure_main_exp,2022.2.2,Win32,59.77643613,,,,,,,,,,,,,,,,,,masks/mask_002.jpg,,,,,,,,,,,,,,,,,,,,,,,,,,,,,,,,,,,,,,,,,,,0,3,3,1,1,,,,,,,,,,,,,,,,,,,,,,,,,,,,,,,,,,,,,,,,,,,,,,
531052,001,2022-11-21_24h49.57.356,Info_measure_main_exp,2022.2.2,Win32,59.77643613,,,,,,,,,,,,,,,,,,masks/mask_003.jpg,,,,,,,,,,,,,,,,,,,,,,,,,,,,,,,,,,,,,,,,,,,0,4,4,2,1,,,,,,,,,,,,,,,,,,,,,,,,,,,,,,,,,,,,,,,,,,,,,,
531052,001,2022-11-21_24h49.57.356,Info_measure_main_exp,2022.2.2,Win32,59.77643613,,,,,,,,,,,,,,,,,,masks/mask_001.jpg,,,,,,,,,,,,,,,,,,,,,,,,,,,,,,,,,,,,,,,,,,,,,,,,0,0,0,0,1,,,,,,,,,,,,,,,,,,,,,,,,,,,,,,,,,,,,,,,,,
531052,001,2022-11-21_24h49.57.356,Info_measure_main_exp,2022.2.2,Win32,59.77643613,,,,,,,,,,,,,,,,,,masks/mask_005.jpg,,,,,,,,,,,,,,,,,,,,,,,,,,,,,,,,,,,,,,,,,,,,,,,,0,1,1,4,1,,,,,,,,,,,,,,,,,,,,,,,,,,,,,,,,,,,,,,,,,
531052,001,2022-11-21_24h49.57.356,Info_measure_main_exp,2022.2.2,Win32,59.77643613,,,,,,,,,,,,,,,,,,masks/mask_004.jpg,,,,,,,,,,,,,,,,,,,,,,,,,,,,,,,,,,,,,,,,,,,,,,,,0,2,2,3,1,,,,,,,,,,,,,,,,,,,,,,,,,,,,,,,,,,,,,,,,,
531052,001,2022-11-21_24h49.57.356,Info_measure_main_exp,2022.2.2,Win32,59.77643613,,,,,,,,,,,,,,,,,,masks/mask_002.jpg,,,,,,,,,,,,,,,,,,,,,,,,,,,,,,,,,,,,,,,,,,,,,,,,0,3,3,1,1,,,,,,,,,,,,,,,,,,,,,,,,,,,,,,,,,,,,,,,,,
531052,001,2022-11-21_24h49.57.356,Info_measure_main_exp,2022.2.2,Win32,59.77643613,,,,,,,,,,,,,,,,,,masks/mask_003.jpg,,,,,,,,,,,,,,,,,,,,,,,,,,,,,,,,,,,,,,,,,,,,,,,,0,4,4,2,1,,,,,,,,,,,,,,,,,,,,,,,,,,,,,,,,,,,,,,,,,
531052,001,2022-11-21_24h49.57.356,Info_measure_main_exp,2022.2.2,Win32,59.77643613,,,,,,,,,,,,,,,,,,,,,,,,,,,,,,5,2.4108,1,,,,,,,,,,,,0,131,5,5,1986,2154,absent_patch/patch0001986.jpg,absent_patch/patch0002154.jpg,,,,,,,,,,,,,,,,,,,,0.061197917,-0.015625,1,0,0,response3disk,23,-0.010416667,0.005208333,1,0,0,center_square,0,22,22,36,1,,,,,,,,,,,,,,,,,,,,,,,
531052,001,2022-11-21_24h49.57.356,Info_measure_main_exp,2022.2.2,Win32,59.77643613,,,,,,,,,,,,,,,,,,masks/mask_004.jpg,,,,,,,,,,,,,,,,,,,,,,,,,,,,,,,,,,,,,,,,,,,0,0,0,3,1,,,,,,,,,,,,,,,,,,,,,,,,,,,,,,,,,,,,,,,,,,,,,,
531052,001,2022-11-21_24h49.57.356,Info_measure_main_exp,2022.2.2,Win32,59.77643613,,,,,,,,,,,,,,,,,,masks/mask_001.jpg,,,,,,,,,,,,,,,,,,,,,,,,,,,,,,,,,,,,,,,,,,,0,1,1,0,1,,,,,,,,,,,,,,,,,,,,,,,,,,,,,,,,,,,,,,,,,,,,,,
531052,001,2022-11-21_24h49.57.356,Info_measure_main_exp,2022.2.2,Win32,59.77643613,,,,,,,,,,,,,,,,,,masks/mask_003.jpg,,,,,,,,,,,,,,,,,,,,,,,,,,,,,,,,,,,,,,,,,,,0,2,2,2,1,,,,,,,,,,,,,,,,,,,,,,,,,,,,,,,,,,,,,,,,,,,,,,
531052,001,2022-11-21_24h49.57.356,Info_measure_main_exp,2022.2.2,Win32,59.77643613,,,,,,,,,,,,,,,,,,masks/mask_005.jpg,,,,,,,,,,,,,,,,,,,,,,,,,,,,,,,,,,,,,,,,,,,0,3,3,4,1,,,,,,,,,,,,,,,,,,,,,,,,,,,,,,,,,,,,,,,,,,,,,,
531052,001,2022-11-21_24h49.57.356,Info_measure_main_exp,2022.2.2,Win32,59.77643613,,,,,,,,,,,,,,,,,,masks/mask_002.jpg,,,,,,,,,,,,,,,,,,,,,,,,,,,,,,,,,,,,,,,,,,,0,4,4,1,1,,,,,,,,,,,,,,,,,,,,,,,,,,,,,,,,,,,,,,,,,,,,,,
531052,001,2022-11-21_24h49.57.356,Info_measure_main_exp,2022.2.2,Win32,59.77643613,,,,,,,,,,,,,,,,,,masks/mask_001.jpg,,,,,,,,,,,,,,,,,,,,,,,,,,,,,,,,,,,,,,,,,,,,,,,,0,0,0,0,1,,,,,,,,,,,,,,,,,,,,,,,,,,,,,,,,,,,,,,,,,
531052,001,2022-11-21_24h49.57.356,Info_measure_main_exp,2022.2.2,Win32,59.77643613,,,,,,,,,,,,,,,,,,masks/mask_005.jpg,,,,,,,,,,,,,,,,,,,,,,,,,,,,,,,,,,,,,,,,,,,,,,,,0,1,1,4,1,,,,,,,,,,,,,,,,,,,,,,,,,,,,,,,,,,,,,,,,,
531052,001,2022-11-21_24h49.57.356,Info_measure_main_exp,2022.2.2,Win32,59.77643613,,,,,,,,,,,,,,,,,,masks/mask_004.jpg,,,,,,,,,,,,,,,,,,,,,,,,,,,,,,,,,,,,,,,,,,,,,,,,0,2,2,3,1,,,,,,,,,,,,,,,,,,,,,,,,,,,,,,,,,,,,,,,,,
531052,001,2022-11-21_24h49.57.356,Info_measure_main_exp,2022.2.2,Win32,59.77643613,,,,,,,,,,,,,,,,,,masks/mask_003.jpg,,,,,,,,,,,,,,,,,,,,,,,,,,,,,,,,,,,,,,,,,,,,,,,,0,3,3,2,1,,,,,,,,,,,,,,,,,,,,,,,,,,,,,,,,,,,,,,,,,
531052,001,2022-11-21_24h49.57.356,Info_measure_main_exp,2022.2.2,Win32,59.77643613,,,,,,,,,,,,,,,,,,masks/mask_002.jpg,,,,,,,,,,,,,,,,,,,,,,,,,,,,,,,,,,,,,,,,,,,,,,,,0,4,4,1,1,,,,,,,,,,,,,,,,,,,,,,,,,,,,,,,,,,,,,,,,,
531052,001,2022-11-21_24h49.57.356,Info_measure_main_exp,2022.2.2,Win32,59.77643613,,,,,,,,,,,,,,,,,,,,,,,,,,,,,,5,2.3196,1,,,,,,,,,,,,1,131,5,5,2298,1,absent_patch/patch0002298.jpg,present_patch/cong_131_5_a.jpg,,,,,,,,,,,,,,,,,,,,0.059895833,-0.02734375,1,0,0,response3disk,24,-0.006510417,0,1,0,0,center_square,0,23,23,45,1,,,,,,,,,,,,,,,,,,,,,,,
531052,001,2022-11-21_24h49.57.356,Info_measure_main_exp,2022.2.2,Win32,59.77643613,,,,,,,,,,,,,,,,,,masks/mask_002.jpg,,,,,,,,,,,,,,,,,,,,,,,,,,,,,,,,,,,,,,,,,,,0,0,0,1,1,,,,,,,,,,,,,,,,,,,,,,,,,,,,,,,,,,,,,,,,,,,,,,
531052,001,2022-11-21_24h49.57.356,Info_measure_main_exp,2022.2.2,Win32,59.77643613,,,,,,,,,,,,,,,,,,masks/mask_005.jpg,,,,,,,,,,,,,,,,,,,,,,,,,,,,,,,,,,,,,,,,,,,0,1,1,4,1,,,,,,,,,,,,,,,,,,,,,,,,,,,,,,,,,,,,,,,,,,,,,,
531052,001,2022-11-21_24h49.57.356,Info_measure_main_exp,2022.2.2,Win32,59.77643613,,,,,,,,,,,,,,,,,,masks/mask_001.jpg,,,,,,,,,,,,,,,,,,,,,,,,,,,,,,,,,,,,,,,,,,,0,2,2,0,1,,,,,,,,,,,,,,,,,,,,,,,,,,,,,,,,,,,,,,,,,,,,,,
531052,001,2022-11-21_24h49.57.356,Info_measure_main_exp,2022.2.2,Win32,59.77643613,,,,,,,,,,,,,,,,,,masks/mask_004.jpg,,,,,,,,,,,,,,,,,,,,,,,,,,,,,,,,,,,,,,,,,,,0,3,3,3,1,,,,,,,,,,,,,,,,,,,,,,,,,,,,,,,,,,,,,,,,,,,,,,
531052,001,2022-11-21_24h49.57.356,Info_measure_main_exp,2022.2.2,Win32,59.77643613,,,,,,,,,,,,,,,,,,masks/mask_003.jpg,,,,,,,,,,,,,,,,,,,,,,,,,,,,,,,,,,,,,,,,,,,0,4,4,2,1,,,,,,,,,,,,,,,,,,,,,,,,,,,,,,,,,,,,,,,,,,,,,,
531052,001,2022-11-21_24h49.57.356,Info_measure_main_exp,2022.2.2,Win32,59.77643613,,,,,,,,,,,,,,,,,,masks/mask_004.jpg,,,,,,,,,,,,,,,,,,,,,,,,,,,,,,,,,,,,,,,,,,,,,,,,0,0,0,3,1,,,,,,,,,,,,,,,,,,,,,,,,,,,,,,,,,,,,,,,,,
531052,001,2022-11-21_24h49.57.356,Info_measure_main_exp,2022.2.2,Win32,59.77643613,,,,,,,,,,,,,,,,,,masks/mask_002.jpg,,,,,,,,,,,,,,,,,,,,,,,,,,,,,,,,,,,,,,,,,,,,,,,,0,1,1,1,1,,,,,,,,,,,,,,,,,,,,,,,,,,,,,,,,,,,,,,,,,
531052,001,2022-11-21_24h49.57.356,Info_measure_main_exp,2022.2.2,Win32,59.77643613,,,,,,,,,,,,,,,,,,masks/mask_003.jpg,,,,,,,,,,,,,,,,,,,,,,,,,,,,,,,,,,,,,,,,,,,,,,,,0,2,2,2,1,,,,,,,,,,,,,,,,,,,,,,,,,,,,,,,,,,,,,,,,,
531052,001,2022-11-21_24h49.57.356,Info_measure_main_exp,2022.2.2,Win32,59.77643613,,,,,,,,,,,,,,,,,,masks/mask_005.jpg,,,,,,,,,,,,,,,,,,,,,,,,,,,,,,,,,,,,,,,,,,,,,,,,0,3,3,4,1,,,,,,,,,,,,,,,,,,,,,,,,,,,,,,,,,,,,,,,,,
531052,001,2022-11-21_24h49.57.356,Info_measure_main_exp,2022.2.2,Win32,59.77643613,,,,,,,,,,,,,,,,,,masks/mask_001.jpg,,,,,,,,,,,,,,,,,,,,,,,,,,,,,,,,,,,,,,,,,,,,,,,,0,4,4,0,1,,,,,,,,,,,,,,,,,,,,,,,,,,,,,,,,,,,,,,,,,
531052,001,2022-11-21_24h49.57.356,Info_measure_main_exp,2022.2.2,Win32,59.77643613,,,,,,,,,,,,,,,,,,,,,,,,,,,,,,7,1.2026,1,,,,,,,,,,,,0,131,5,5,2154,2298,absent_patch/patch0002154.jpg,absent_patch/patch0002298.jpg,,,,,,,,,,,,,,,,,,,,0.041666667,0.114583333,1,0,0,response1disk,25,0.010416667,-0.002604167,1,0,0,center_square,0,24,24,27,1,,,,,,,,,,,,,,,,,,,,,,,
531052,001,2022-11-21_24h49.57.356,Info_measure_main_exp,2022.2.2,Win32,59.77643613,,,,,,,,,,,,,,,,,,masks/mask_002.jpg,,,,,,,,,,,,,,,,,,,,,,,,,,,,,,,,,,,,,,,,,,,0,0,0,1,1,,,,,,,,,,,,,,,,,,,,,,,,,,,,,,,,,,,,,,,,,,,,,,
531052,001,2022-11-21_24h49.57.356,Info_measure_main_exp,2022.2.2,Win32,59.77643613,,,,,,,,,,,,,,,,,,masks/mask_001.jpg,,,,,,,,,,,,,,,,,,,,,,,,,,,,,,,,,,,,,,,,,,,0,1,1,0,1,,,,,,,,,,,,,,,,,,,,,,,,,,,,,,,,,,,,,,,,,,,,,,
531052,001,2022-11-21_24h49.57.356,Info_measure_main_exp,2022.2.2,Win32,59.77643613,,,,,,,,,,,,,,,,,,masks/mask_005.jpg,,,,,,,,,,,,,,,,,,,,,,,,,,,,,,,,,,,,,,,,,,,0,2,2,4,1,,,,,,,,,,,,,,,,,,,,,,,,,,,,,,,,,,,,,,,,,,,,,,
531052,001,2022-11-21_24h49.57.356,Info_measure_main_exp,2022.2.2,Win32,59.77643613,,,,,,,,,,,,,,,,,,masks/mask_004.jpg,,,,,,,,,,,,,,,,,,,,,,,,,,,,,,,,,,,,,,,,,,,0,3,3,3,1,,,,,,,,,,,,,,,,,,,,,,,,,,,,,,,,,,,,,,,,,,,,,,
531052,001,2022-11-21_24h49.57.356,Info_measure_main_exp,2022.2.2,Win32,59.77643613,,,,,,,,,,,,,,,,,,masks/mask_003.jpg,,,,,,,,,,,,,,,,,,,,,,,,,,,,,,,,,,,,,,,,,,,0,4,4,2,1,,,,,,,,,,,,,,,,,,,,,,,,,,,,,,,,,,,,,,,,,,,,,,
531052,001,2022-11-21_24h49.57.356,Info_measure_main_exp,2022.2.2,Win32,59.77643613,,,,,,,,,,,,,,,,,,masks/mask_003.jpg,,,,,,,,,,,,,,,,,,,,,,,,,,,,,,,,,,,,,,,,,,,,,,,,0,0,0,2,1,,,,,,,,,,,,,,,,,,,,,,,,,,,,,,,,,,,,,,,,,
531052,001,2022-11-21_24h49.57.356,Info_measure_main_exp,2022.2.2,Win32,59.77643613,,,,,,,,,,,,,,,,,,masks/mask_005.jpg,,,,,,,,,,,,,,,,,,,,,,,,,,,,,,,,,,,,,,,,,,,,,,,,0,1,1,4,1,,,,,,,,,,,,,,,,,,,,,,,,,,,,,,,,,,,,,,,,,
531052,001,2022-11-21_24h49.57.356,Info_measure_main_exp,2022.2.2,Win32,59.77643613,,,,,,,,,,,,,,,,,,masks/mask_002.jpg,,,,,,,,,,,,,,,,,,,,,,,,,,,,,,,,,,,,,,,,,,,,,,,,0,2,2,1,1,,,,,,,,,,,,,,,,,,,,,,,,,,,,,,,,,,,,,,,,,
531052,001,2022-11-21_24h49.57.356,Info_measure_main_exp,2022.2.2,Win32,59.77643613,,,,,,,,,,,,,,,,,,masks/mask_004.jpg,,,,,,,,,,,,,,,,,,,,,,,,,,,,,,,,,,,,,,,,,,,,,,,,0,3,3,3,1,,,,,,,,,,,,,,,,,,,,,,,,,,,,,,,,,,,,,,,,,
531052,001,2022-11-21_24h49.57.356,Info_measure_main_exp,2022.2.2,Win32,59.77643613,,,,,,,,,,,,,,,,,,masks/mask_001.jpg,,,,,,,,,,,,,,,,,,,,,,,,,,,,,,,,,,,,,,,,,,,,,,,,0,4,4,0,1,,,,,,,,,,,,,,,,,,,,,,,,,,,,,,,,,,,,,,,,,
531052,001,2022-11-21_24h49.57.356,Info_measure_main_exp,2022.2.2,Win32,59.77643613,,,,,,,,,,,,,,,,,,,,,,,,,,,,,,5,1.3017,1,,,,,,,,,,,,0,131,5,5,2142,2082,absent_patch/patch0002142.jpg,absent_patch/patch0002082.jpg,,,,,,,,,,,,,,,,,,,,0.0546875,-0.026041667,1,0,0,response3disk,26,0,0,1,0,0,center_square,0,25,25,88,1,,,,,,,,,,,,,,,,,,,,,,,
531052,001,2022-11-21_24h49.57.356,Info_measure_main_exp,2022.2.2,Win32,59.77643613,,,,,,,,,,,,,,,,,,masks/mask_005.jpg,,,,,,,,,,,,,,,,,,,,,,,,,,,,,,,,,,,,,,,,,,,0,0,0,4,1,,,,,,,,,,,,,,,,,,,,,,,,,,,,,,,,,,,,,,,,,,,,,,
531052,001,2022-11-21_24h49.57.356,Info_measure_main_exp,2022.2.2,Win32,59.77643613,,,,,,,,,,,,,,,,,,masks/mask_004.jpg,,,,,,,,,,,,,,,,,,,,,,,,,,,,,,,,,,,,,,,,,,,0,1,1,3,1,,,,,,,,,,,,,,,,,,,,,,,,,,,,,,,,,,,,,,,,,,,,,,
531052,001,2022-11-21_24h49.57.356,Info_measure_main_exp,2022.2.2,Win32,59.77643613,,,,,,,,,,,,,,,,,,masks/mask_002.jpg,,,,,,,,,,,,,,,,,,,,,,,,,,,,,,,,,,,,,,,,,,,0,2,2,1,1,,,,,,,,,,,,,,,,,,,,,,,,,,,,,,,,,,,,,,,,,,,,,,
531052,001,2022-11-21_24h49.57.356,Info_measure_main_exp,2022.2.2,Win32,59.77643613,,,,,,,,,,,,,,,,,,masks/mask_003.jpg,,,,,,,,,,,,,,,,,,,,,,,,,,,,,,,,,,,,,,,,,,,0,3,3,2,1,,,,,,,,,,,,,,,,,,,,,,,,,,,,,,,,,,,,,,,,,,,,,,
531052,001,2022-11-21_24h49.57.356,Info_measure_main_exp,2022.2.2,Win32,59.77643613,,,,,,,,,,,,,,,,,,masks/mask_001.jpg,,,,,,,,,,,,,,,,,,,,,,,,,,,,,,,,,,,,,,,,,,,0,4,4,0,1,,,,,,,,,,,,,,,,,,,,,,,,,,,,,,,,,,,,,,,,,,,,,,
531052,001,2022-11-21_24h49.57.356,Info_measure_main_exp,2022.2.2,Win32,59.77643613,,,,,,,,,,,,,,,,,,masks/mask_002.jpg,,,,,,,,,,,,,,,,,,,,,,,,,,,,,,,,,,,,,,,,,,,,,,,,0,0,0,1,1,,,,,,,,,,,,,,,,,,,,,,,,,,,,,,,,,,,,,,,,,
531052,001,2022-11-21_24h49.57.356,Info_measure_main_exp,2022.2.2,Win32,59.77643613,,,,,,,,,,,,,,,,,,masks/mask_005.jpg,,,,,,,,,,,,,,,,,,,,,,,,,,,,,,,,,,,,,,,,,,,,,,,,0,1,1,4,1,,,,,,,,,,,,,,,,,,,,,,,,,,,,,,,,,,,,,,,,,
531052,001,2022-11-21_24h49.57.356,Info_measure_main_exp,2022.2.2,Win32,59.77643613,,,,,,,,,,,,,,,,,,masks/mask_001.jpg,,,,,,,,,,,,,,,,,,,,,,,,,,,,,,,,,,,,,,,,,,,,,,,,0,2,2,0,1,,,,,,,,,,,,,,,,,,,,,,,,,,,,,,,,,,,,,,,,,
531052,001,2022-11-21_24h49.57.356,Info_measure_main_exp,2022.2.2,Win32,59.77643613,,,,,,,,,,,,,,,,,,masks/mask_004.jpg,,,,,,,,,,,,,,,,,,,,,,,,,,,,,,,,,,,,,,,,,,,,,,,,0,3,3,3,1,,,,,,,,,,,,,,,,,,,,,,,,,,,,,,,,,,,,,,,,,
531052,001,2022-11-21_24h49.57.356,Info_measure_main_exp,2022.2.2,Win32,59.77643613,,,,,,,,,,,,,,,,,,masks/mask_003.jpg,,,,,,,,,,,,,,,,,,,,,,,,,,,,,,,,,,,,,,,,,,,,,,,,0,4,4,2,1,,,,,,,,,,,,,,,,,,,,,,,,,,,,,,,,,,,,,,,,,
531052,001,2022-11-21_24h49.57.356,Info_measure_main_exp,2022.2.2,Win32,59.77643613,,,,,,,,,,,,,,,,,,,,,,,,,,,,,,5,0.8698,1,,,,,,,,,,,,1,131,5,5,1,1986,present_patch/cong_131_5_a.jpg,absent_patch/patch0001986.jpg,,,,,,,,,,,,,,,,,,,,0.069010417,-0.0234375,1,0,0,response3disk,27,-0.010416667,0,1,0,0,center_square,0,26,26,106,1,,,,,,,,,,,,,,,,,,,,,,,
531052,001,2022-11-21_24h49.57.356,Info_measure_main_exp,2022.2.2,Win32,59.77643613,,,,,,,,,,,,,,,,,,masks/mask_003.jpg,,,,,,,,,,,,,,,,,,,,,,,,,,,,,,,,,,,,,,,,,,,0,0,0,2,1,,,,,,,,,,,,,,,,,,,,,,,,,,,,,,,,,,,,,,,,,,,,,,
531052,001,2022-11-21_24h49.57.356,Info_measure_main_exp,2022.2.2,Win32,59.77643613,,,,,,,,,,,,,,,,,,masks/mask_005.jpg,,,,,,,,,,,,,,,,,,,,,,,,,,,,,,,,,,,,,,,,,,,0,1,1,4,1,,,,,,,,,,,,,,,,,,,,,,,,,,,,,,,,,,,,,,,,,,,,,,
531052,001,2022-11-21_24h49.57.356,Info_measure_main_exp,2022.2.2,Win32,59.77643613,,,,,,,,,,,,,,,,,,masks/mask_002.jpg,,,,,,,,,,,,,,,,,,,,,,,,,,,,,,,,,,,,,,,,,,,0,2,2,1,1,,,,,,,,,,,,,,,,,,,,,,,,,,,,,,,,,,,,,,,,,,,,,,
531052,001,2022-11-21_24h49.57.356,Info_measure_main_exp,2022.2.2,Win32,59.77643613,,,,,,,,,,,,,,,,,,masks/mask_001.jpg,,,,,,,,,,,,,,,,,,,,,,,,,,,,,,,,,,,,,,,,,,,0,3,3,0,1,,,,,,,,,,,,,,,,,,,,,,,,,,,,,,,,,,,,,,,,,,,,,,
531052,001,2022-11-21_24h49.57.356,Info_measure_main_exp,2022.2.2,Win32,59.77643613,,,,,,,,,,,,,,,,,,masks/mask_004.jpg,,,,,,,,,,,,,,,,,,,,,,,,,,,,,,,,,,,,,,,,,,,0,4,4,3,1,,,,,,,,,,,,,,,,,,,,,,,,,,,,,,,,,,,,,,,,,,,,,,
531052,001,2022-11-21_24h49.57.356,Info_measure_main_exp,2022.2.2,Win32,59.77643613,,,,,,,,,,,,,,,,,,masks/mask_002.jpg,,,,,,,,,,,,,,,,,,,,,,,,,,,,,,,,,,,,,,,,,,,,,,,,0,0,0,1,1,,,,,,,,,,,,,,,,,,,,,,,,,,,,,,,,,,,,,,,,,
531052,001,2022-11-21_24h49.57.356,Info_measure_main_exp,2022.2.2,Win32,59.77643613,,,,,,,,,,,,,,,,,,masks/mask_004.jpg,,,,,,,,,,,,,,,,,,,,,,,,,,,,,,,,,,,,,,,,,,,,,,,,0,1,1,3,1,,,,,,,,,,,,,,,,,,,,,,,,,,,,,,,,,,,,,,,,,
531052,001,2022-11-21_24h49.57.356,Info_measure_main_exp,2022.2.2,Win32,59.77643613,,,,,,,,,,,,,,,,,,masks/mask_003.jpg,,,,,,,,,,,,,,,,,,,,,,,,,,,,,,,,,,,,,,,,,,,,,,,,0,2,2,2,1,,,,,,,,,,,,,,,,,,,,,,,,,,,,,,,,,,,,,,,,,
531052,001,2022-11-21_24h49.57.356,Info_measure_main_exp,2022.2.2,Win32,59.77643613,,,,,,,,,,,,,,,,,,masks/mask_005.jpg,,,,,,,,,,,,,,,,,,,,,,,,,,,,,,,,,,,,,,,,,,,,,,,,0,3,3,4,1,,,,,,,,,,,,,,,,,,,,,,,,,,,,,,,,,,,,,,,,,
531052,001,2022-11-21_24h49.57.356,Info_measure_main_exp,2022.2.2,Win32,59.77643613,,,,,,,,,,,,,,,,,,masks/mask_001.jpg,,,,,,,,,,,,,,,,,,,,,,,,,,,,,,,,,,,,,,,,,,,,,,,,0,4,4,0,1,,,,,,,,,,,,,,,,,,,,,,,,,,,,,,,,,,,,,,,,,
531052,001,2022-11-21_24h49.57.356,Info_measure_main_exp,2022.2.2,Win32,59.77643613,,,,,,,,,,,,,,,,,,,,,,,,,,,,,,7,1.241,1,,,,,,,,,,,,0,131,5,5,2166,2298,absent_patch/patch0002166.jpg,absent_patch/patch0002298.jpg,,,,,,,,,,,,,,,,,,,,0.03515625,0.071614583,1,0,0,response1disk,28,0.00390625,-0.00390625,1,0,0,center_square,0,27,27,52,1,,,,,,,,,,,,,,,,,,,,,,,
531052,001,2022-11-21_24h49.57.356,Info_measure_main_exp,2022.2.2,Win32,59.77643613,,,,,,,,,,,,,,,,,,masks/mask_001.jpg,,,,,,,,,,,,,,,,,,,,,,,,,,,,,,,,,,,,,,,,,,,0,0,0,0,1,,,,,,,,,,,,,,,,,,,,,,,,,,,,,,,,,,,,,,,,,,,,,,
531052,001,2022-11-21_24h49.57.356,Info_measure_main_exp,2022.2.2,Win32,59.77643613,,,,,,,,,,,,,,,,,,masks/mask_004.jpg,,,,,,,,,,,,,,,,,,,,,,,,,,,,,,,,,,,,,,,,,,,0,1,1,3,1,,,,,,,,,,,,,,,,,,,,,,,,,,,,,,,,,,,,,,,,,,,,,,
531052,001,2022-11-21_24h49.57.356,Info_measure_main_exp,2022.2.2,Win32,59.77643613,,,,,,,,,,,,,,,,,,masks/mask_002.jpg,,,,,,,,,,,,,,,,,,,,,,,,,,,,,,,,,,,,,,,,,,,0,2,2,1,1,,,,,,,,,,,,,,,,,,,,,,,,,,,,,,,,,,,,,,,,,,,,,,
531052,001,2022-11-21_24h49.57.356,Info_measure_main_exp,2022.2.2,Win32,59.77643613,,,,,,,,,,,,,,,,,,masks/mask_003.jpg,,,,,,,,,,,,,,,,,,,,,,,,,,,,,,,,,,,,,,,,,,,0,3,3,2,1,,,,,,,,,,,,,,,,,,,,,,,,,,,,,,,,,,,,,,,,,,,,,,
531052,001,2022-11-21_24h49.57.356,Info_measure_main_exp,2022.2.2,Win32,59.77643613,,,,,,,,,,,,,,,,,,masks/mask_005.jpg,,,,,,,,,,,,,,,,,,,,,,,,,,,,,,,,,,,,,,,,,,,0,4,4,4,1,,,,,,,,,,,,,,,,,,,,,,,,,,,,,,,,,,,,,,,,,,,,,,
531052,001,2022-11-21_24h49.57.356,Info_measure_main_exp,2022.2.2,Win32,59.77643613,,,,,,,,,,,,,,,,,,masks/mask_005.jpg,,,,,,,,,,,,,,,,,,,,,,,,,,,,,,,,,,,,,,,,,,,,,,,,0,0,0,4,1,,,,,,,,,,,,,,,,,,,,,,,,,,,,,,,,,,,,,,,,,
531052,001,2022-11-21_24h49.57.356,Info_measure_main_exp,2022.2.2,Win32,59.77643613,,,,,,,,,,,,,,,,,,masks/mask_004.jpg,,,,,,,,,,,,,,,,,,,,,,,,,,,,,,,,,,,,,,,,,,,,,,,,0,1,1,3,1,,,,,,,,,,,,,,,,,,,,,,,,,,,,,,,,,,,,,,,,,
531052,001,2022-11-21_24h49.57.356,Info_measure_main_exp,2022.2.2,Win32,59.77643613,,,,,,,,,,,,,,,,,,masks/mask_002.jpg,,,,,,,,,,,,,,,,,,,,,,,,,,,,,,,,,,,,,,,,,,,,,,,,0,2,2,1,1,,,,,,,,,,,,,,,,,,,,,,,,,,,,,,,,,,,,,,,,,
531052,001,2022-11-21_24h49.57.356,Info_measure_main_exp,2022.2.2,Win32,59.77643613,,,,,,,,,,,,,,,,,,masks/mask_001.jpg,,,,,,,,,,,,,,,,,,,,,,,,,,,,,,,,,,,,,,,,,,,,,,,,0,3,3,0,1,,,,,,,,,,,,,,,,,,,,,,,,,,,,,,,,,,,,,,,,,
531052,001,2022-11-21_24h49.57.356,Info_measure_main_exp,2022.2.2,Win32,59.77643613,,,,,,,,,,,,,,,,,,masks/mask_003.jpg,,,,,,,,,,,,,,,,,,,,,,,,,,,,,,,,,,,,,,,,,,,,,,,,0,4,4,2,1,,,,,,,,,,,,,,,,,,,,,,,,,,,,,,,,,,,,,,,,,
531052,001,2022-11-21_24h49.57.356,Info_measure_main_exp,2022.2.2,Win32,59.77643613,,,,,,,,,,,,,,,,,,,,,,,,,,,,,,7,0.9368,1,,,,,,,,,,,,0,131,5,5,2238,2298,absent_patch/patch0002238.jpg,absent_patch/patch0002298.jpg,,,,,,,,,,,,,,,,,,,,0.0234375,0.091145833,1,0,0,response1disk,29,0.001302083,-0.010416667,1,0,0,center_square,0,28,28,51,1,,,,,,,,,,,,,,,,,,,,,,,
531052,001,2022-11-21_24h49.57.356,Info_measure_main_exp,2022.2.2,Win32,59.77643613,,,,,,,,,,,,,,,,,,masks/mask_003.jpg,,,,,,,,,,,,,,,,,,,,,,,,,,,,,,,,,,,,,,,,,,,0,0,0,2,1,,,,,,,,,,,,,,,,,,,,,,,,,,,,,,,,,,,,,,,,,,,,,,
531052,001,2022-11-21_24h49.57.356,Info_measure_main_exp,2022.2.2,Win32,59.77643613,,,,,,,,,,,,,,,,,,masks/mask_002.jpg,,,,,,,,,,,,,,,,,,,,,,,,,,,,,,,,,,,,,,,,,,,0,1,1,1,1,,,,,,,,,,,,,,,,,,,,,,,,,,,,,,,,,,,,,,,,,,,,,,
531052,001,2022-11-21_24h49.57.356,Info_measure_main_exp,2022.2.2,Win32,59.77643613,,,,,,,,,,,,,,,,,,masks/mask_001.jpg,,,,,,,,,,,,,,,,,,,,,,,,,,,,,,,,,,,,,,,,,,,0,2,2,0,1,,,,,,,,,,,,,,,,,,,,,,,,,,,,,,,,,,,,,,,,,,,,,,
531052,001,2022-11-21_24h49.57.356,Info_measure_main_exp,2022.2.2,Win32,59.77643613,,,,,,,,,,,,,,,,,,masks/mask_004.jpg,,,,,,,,,,,,,,,,,,,,,,,,,,,,,,,,,,,,,,,,,,,0,3,3,3,1,,,,,,,,,,,,,,,,,,,,,,,,,,,,,,,,,,,,,,,,,,,,,,
531052,001,2022-11-21_24h49.57.356,Info_measure_main_exp,2022.2.2,Win32,59.77643613,,,,,,,,,,,,,,,,,,masks/mask_005.jpg,,,,,,,,,,,,,,,,,,,,,,,,,,,,,,,,,,,,,,,,,,,0,4,4,4,1,,,,,,,,,,,,,,,,,,,,,,,,,,,,,,,,,,,,,,,,,,,,,,
531052,001,2022-11-21_24h49.57.356,Info_measure_main_exp,2022.2.2,Win32,59.77643613,,,,,,,,,,,,,,,,,,masks/mask_002.jpg,,,,,,,,,,,,,,,,,,,,,,,,,,,,,,,,,,,,,,,,,,,,,,,,0,0,0,1,1,,,,,,,,,,,,,,,,,,,,,,,,,,,,,,,,,,,,,,,,,
531052,001,2022-11-21_24h49.57.356,Info_measure_main_exp,2022.2.2,Win32,59.77643613,,,,,,,,,,,,,,,,,,masks/mask_005.jpg,,,,,,,,,,,,,,,,,,,,,,,,,,,,,,,,,,,,,,,,,,,,,,,,0,1,1,4,1,,,,,,,,,,,,,,,,,,,,,,,,,,,,,,,,,,,,,,,,,
531052,001,2022-11-21_24h49.57.356,Info_measure_main_exp,2022.2.2,Win32,59.77643613,,,,,,,,,,,,,,,,,,masks/mask_001.jpg,,,,,,,,,,,,,,,,,,,,,,,,,,,,,,,,,,,,,,,,,,,,,,,,0,2,2,0,1,,,,,,,,,,,,,,,,,,,,,,,,,,,,,,,,,,,,,,,,,
531052,001,2022-11-21_24h49.57.356,Info_measure_main_exp,2022.2.2,Win32,59.77643613,,,,,,,,,,,,,,,,,,masks/mask_004.jpg,,,,,,,,,,,,,,,,,,,,,,,,,,,,,,,,,,,,,,,,,,,,,,,,0,3,3,3,1,,,,,,,,,,,,,,,,,,,,,,,,,,,,,,,,,,,,,,,,,
531052,001,2022-11-21_24h49.57.356,Info_measure_main_exp,2022.2.2,Win32,59.77643613,,,,,,,,,,,,,,,,,,masks/mask_003.jpg,,,,,,,,,,,,,,,,,,,,,,,,,,,,,,,,,,,,,,,,,,,,,,,,0,4,4,2,1,,,,,,,,,,,,,,,,,,,,,,,,,,,,,,,,,,,,,,,,,
531052,001,2022-11-21_24h49.57.356,Info_measure_main_exp,2022.2.2,Win32,59.77643613,,,,,,,,,,,,,,,,,,,,,,,,,,,,,,7,0.7235,1,,,,,,,,,,,,0,131,5,5,2250,2178,absent_patch/patch0002250.jpg,absent_patch/patch0002178.jpg,,,,,,,,,,,,,,,,,,,,0.0234375,0.079427083,1,0,0,response1disk,30,0.006510417,0,1,0,0,center_square,0,29,29,48,1,,,,,,,,,,,,,,,,,,,,,,,
531052,001,2022-11-21_24h49.57.356,Info_measure_main_exp,2022.2.2,Win32,59.77643613,,,,,,,,,,,,,,,,,,masks/mask_005.jpg,,,,,,,,,,,,,,,,,,,,,,,,,,,,,,,,,,,,,,,,,,,0,0,0,4,1,,,,,,,,,,,,,,,,,,,,,,,,,,,,,,,,,,,,,,,,,,,,,,
531052,001,2022-11-21_24h49.57.356,Info_measure_main_exp,2022.2.2,Win32,59.77643613,,,,,,,,,,,,,,,,,,masks/mask_004.jpg,,,,,,,,,,,,,,,,,,,,,,,,,,,,,,,,,,,,,,,,,,,0,1,1,3,1,,,,,,,,,,,,,,,,,,,,,,,,,,,,,,,,,,,,,,,,,,,,,,
531052,001,2022-11-21_24h49.57.356,Info_measure_main_exp,2022.2.2,Win32,59.77643613,,,,,,,,,,,,,,,,,,masks/mask_003.jpg,,,,,,,,,,,,,,,,,,,,,,,,,,,,,,,,,,,,,,,,,,,0,2,2,2,1,,,,,,,,,,,,,,,,,,,,,,,,,,,,,,,,,,,,,,,,,,,,,,
531052,001,2022-11-21_24h49.57.356,Info_measure_main_exp,2022.2.2,Win32,59.77643613,,,,,,,,,,,,,,,,,,masks/mask_001.jpg,,,,,,,,,,,,,,,,,,,,,,,,,,,,,,,,,,,,,,,,,,,0,3,3,0,1,,,,,,,,,,,,,,,,,,,,,,,,,,,,,,,,,,,,,,,,,,,,,,
531052,001,2022-11-21_24h49.57.356,Info_measure_main_exp,2022.2.2,Win32,59.77643613,,,,,,,,,,,,,,,,,,masks/mask_002.jpg,,,,,,,,,,,,,,,,,,,,,,,,,,,,,,,,,,,,,,,,,,,0,4,4,1,1,,,,,,,,,,,,,,,,,,,,,,,,,,,,,,,,,,,,,,,,,,,,,,
531052,001,2022-11-21_24h49.57.356,Info_measure_main_exp,2022.2.2,Win32,59.77643613,,,,,,,,,,,,,,,,,,masks/mask_005.jpg,,,,,,,,,,,,,,,,,,,,,,,,,,,,,,,,,,,,,,,,,,,,,,,,0,0,0,4,1,,,,,,,,,,,,,,,,,,,,,,,,,,,,,,,,,,,,,,,,,
531052,001,2022-11-21_24h49.57.356,Info_measure_main_exp,2022.2.2,Win32,59.77643613,,,,,,,,,,,,,,,,,,masks/mask_004.jpg,,,,,,,,,,,,,,,,,,,,,,,,,,,,,,,,,,,,,,,,,,,,,,,,0,1,1,3,1,,,,,,,,,,,,,,,,,,,,,,,,,,,,,,,,,,,,,,,,,
531052,001,2022-11-21_24h49.57.356,Info_measure_main_exp,2022.2.2,Win32,59.77643613,,,,,,,,,,,,,,,,,,masks/mask_002.jpg,,,,,,,,,,,,,,,,,,,,,,,,,,,,,,,,,,,,,,,,,,,,,,,,0,2,2,1,1,,,,,,,,,,,,,,,,,,,,,,,,,,,,,,,,,,,,,,,,,
531052,001,2022-11-21_24h49.57.356,Info_measure_main_exp,2022.2.2,Win32,59.77643613,,,,,,,,,,,,,,,,,,masks/mask_001.jpg,,,,,,,,,,,,,,,,,,,,,,,,,,,,,,,,,,,,,,,,,,,,,,,,0,3,3,0,1,,,,,,,,,,,,,,,,,,,,,,,,,,,,,,,,,,,,,,,,,
531052,001,2022-11-21_24h49.57.356,Info_measure_main_exp,2022.2.2,Win32,59.77643613,,,,,,,,,,,,,,,,,,masks/mask_003.jpg,,,,,,,,,,,,,,,,,,,,,,,,,,,,,,,,,,,,,,,,,,,,,,,,0,4,4,2,1,,,,,,,,,,,,,,,,,,,,,,,,,,,,,,,,,,,,,,,,,
531052,001,2022-11-21_24h49.57.356,Info_measure_main_exp,2022.2.2,Win32,59.77643613,,,,,,,,,,,,,,,,,,,,,,,,,,,,,,0,0.8194,1,,,,,,,,,,,,0,131,5,5,2274,2274,absent_patch/patch0002274.jpg,absent_patch/patch0002274.jpg,,,,,,,,,,,,,,,,,,,,-0.052083333,0.123697917,1,0,0,response7disk,31,0.0078125,-0.00390625,1,0,0,center_square,0,30,30,114,1,,,,,,,,,,,,,,,,,,,,,,,
531052,001,2022-11-21_24h49.57.356,Info_measure_main_exp,2022.2.2,Win32,59.77643613,,,,,,,,,,,,,,,,,,masks/mask_002.jpg,,,,,,,,,,,,,,,,,,,,,,,,,,,,,,,,,,,,,,,,,,,0,0,0,1,1,,,,,,,,,,,,,,,,,,,,,,,,,,,,,,,,,,,,,,,,,,,,,,
531052,001,2022-11-21_24h49.57.356,Info_measure_main_exp,2022.2.2,Win32,59.77643613,,,,,,,,,,,,,,,,,,masks/mask_004.jpg,,,,,,,,,,,,,,,,,,,,,,,,,,,,,,,,,,,,,,,,,,,0,1,1,3,1,,,,,,,,,,,,,,,,,,,,,,,,,,,,,,,,,,,,,,,,,,,,,,
531052,001,2022-11-21_24h49.57.356,Info_measure_main_exp,2022.2.2,Win32,59.77643613,,,,,,,,,,,,,,,,,,masks/mask_001.jpg,,,,,,,,,,,,,,,,,,,,,,,,,,,,,,,,,,,,,,,,,,,0,2,2,0,1,,,,,,,,,,,,,,,,,,,,,,,,,,,,,,,,,,,,,,,,,,,,,,
531052,001,2022-11-21_24h49.57.356,Info_measure_main_exp,2022.2.2,Win32,59.77643613,,,,,,,,,,,,,,,,,,masks/mask_003.jpg,,,,,,,,,,,,,,,,,,,,,,,,,,,,,,,,,,,,,,,,,,,0,3,3,2,1,,,,,,,,,,,,,,,,,,,,,,,,,,,,,,,,,,,,,,,,,,,,,,
531052,001,2022-11-21_24h49.57.356,Info_measure_main_exp,2022.2.2,Win32,59.77643613,,,,,,,,,,,,,,,,,,masks/mask_005.jpg,,,,,,,,,,,,,,,,,,,,,,,,,,,,,,,,,,,,,,,,,,,0,4,4,4,1,,,,,,,,,,,,,,,,,,,,,,,,,,,,,,,,,,,,,,,,,,,,,,
531052,001,2022-11-21_24h49.57.356,Info_measure_main_exp,2022.2.2,Win32,59.77643613,,,,,,,,,,,,,,,,,,masks/mask_003.jpg,,,,,,,,,,,,,,,,,,,,,,,,,,,,,,,,,,,,,,,,,,,,,,,,0,0,0,2,1,,,,,,,,,,,,,,,,,,,,,,,,,,,,,,,,,,,,,,,,,
531052,001,2022-11-21_24h49.57.356,Info_measure_main_exp,2022.2.2,Win32,59.77643613,,,,,,,,,,,,,,,,,,masks/mask_002.jpg,,,,,,,,,,,,,,,,,,,,,,,,,,,,,,,,,,,,,,,,,,,,,,,,0,1,1,1,1,,,,,,,,,,,,,,,,,,,,,,,,,,,,,,,,,,,,,,,,,
531052,001,2022-11-21_24h49.57.356,Info_measure_main_exp,2022.2.2,Win32,59.77643613,,,,,,,,,,,,,,,,,,masks/mask_005.jpg,,,,,,,,,,,,,,,,,,,,,,,,,,,,,,,,,,,,,,,,,,,,,,,,0,2,2,4,1,,,,,,,,,,,,,,,,,,,,,,,,,,,,,,,,,,,,,,,,,
531052,001,2022-11-21_24h49.57.356,Info_measure_main_exp,2022.2.2,Win32,59.77643613,,,,,,,,,,,,,,,,,,masks/mask_004.jpg,,,,,,,,,,,,,,,,,,,,,,,,,,,,,,,,,,,,,,,,,,,,,,,,0,3,3,3,1,,,,,,,,,,,,,,,,,,,,,,,,,,,,,,,,,,,,,,,,,
531052,001,2022-11-21_24h49.57.356,Info_measure_main_exp,2022.2.2,Win32,59.77643613,,,,,,,,,,,,,,,,,,masks/mask_001.jpg,,,,,,,,,,,,,,,,,,,,,,,,,,,,,,,,,,,,,,,,,,,,,,,,0,4,4,0,1,,,,,,,,,,,,,,,,,,,,,,,,,,,,,,,,,,,,,,,,,
531052,001,2022-11-21_24h49.57.356,Info_measure_main_exp,2022.2.2,Win32,59.77643613,,,,,,,,,,,,,,,,,,,,,,,,,,,,,,6,0.8878,1,,,,,,,,,,,,0,131,5,5,2190,2250,absent_patch/patch0002190.jpg,absent_patch/patch0002250.jpg,,,,,,,,,,,,,,,,,,,,0.102864583,0.014322917,1,0,0,response1disk,32,0.005208333,-0.005208333,1,0,0,center_square,0,31,31,93,1,,,,,,,,,,,,,,,,,,,,,,,
531052,001,2022-11-21_24h49.57.356,Info_measure_main_exp,2022.2.2,Win32,59.77643613,,,,,,,,,,,,,,,,,,masks/mask_004.jpg,,,,,,,,,,,,,,,,,,,,,,,,,,,,,,,,,,,,,,,,,,,0,0,0,3,1,,,,,,,,,,,,,,,,,,,,,,,,,,,,,,,,,,,,,,,,,,,,,,
531052,001,2022-11-21_24h49.57.356,Info_measure_main_exp,2022.2.2,Win32,59.77643613,,,,,,,,,,,,,,,,,,masks/mask_001.jpg,,,,,,,,,,,,,,,,,,,,,,,,,,,,,,,,,,,,,,,,,,,0,1,1,0,1,,,,,,,,,,,,,,,,,,,,,,,,,,,,,,,,,,,,,,,,,,,,,,
531052,001,2022-11-21_24h49.57.356,Info_measure_main_exp,2022.2.2,Win32,59.77643613,,,,,,,,,,,,,,,,,,masks/mask_002.jpg,,,,,,,,,,,,,,,,,,,,,,,,,,,,,,,,,,,,,,,,,,,0,2,2,1,1,,,,,,,,,,,,,,,,,,,,,,,,,,,,,,,,,,,,,,,,,,,,,,
531052,001,2022-11-21_24h49.57.356,Info_measure_main_exp,2022.2.2,Win32,59.77643613,,,,,,,,,,,,,,,,,,masks/mask_005.jpg,,,,,,,,,,,,,,,,,,,,,,,,,,,,,,,,,,,,,,,,,,,0,3,3,4,1,,,,,,,,,,,,,,,,,,,,,,,,,,,,,,,,,,,,,,,,,,,,,,
531052,001,2022-11-21_24h49.57.356,Info_measure_main_exp,2022.2.2,Win32,59.77643613,,,,,,,,,,,,,,,,,,masks/mask_003.jpg,,,,,,,,,,,,,,,,,,,,,,,,,,,,,,,,,,,,,,,,,,,0,4,4,2,1,,,,,,,,,,,,,,,,,,,,,,,,,,,,,,,,,,,,,,,,,,,,,,
531052,001,2022-11-21_24h49.57.356,Info_measure_main_exp,2022.2.2,Win32,59.77643613,,,,,,,,,,,,,,,,,,masks/mask_005.jpg,,,,,,,,,,,,,,,,,,,,,,,,,,,,,,,,,,,,,,,,,,,,,,,,0,0,0,4,1,,,,,,,,,,,,,,,,,,,,,,,,,,,,,,,,,,,,,,,,,
531052,001,2022-11-21_24h49.57.356,Info_measure_main_exp,2022.2.2,Win32,59.77643613,,,,,,,,,,,,,,,,,,masks/mask_001.jpg,,,,,,,,,,,,,,,,,,,,,,,,,,,,,,,,,,,,,,,,,,,,,,,,0,1,1,0,1,,,,,,,,,,,,,,,,,,,,,,,,,,,,,,,,,,,,,,,,,
531052,001,2022-11-21_24h49.57.356,Info_measure_main_exp,2022.2.2,Win32,59.77643613,,,,,,,,,,,,,,,,,,masks/mask_002.jpg,,,,,,,,,,,,,,,,,,,,,,,,,,,,,,,,,,,,,,,,,,,,,,,,0,2,2,1,1,,,,,,,,,,,,,,,,,,,,,,,,,,,,,,,,,,,,,,,,,
531052,001,2022-11-21_24h49.57.356,Info_measure_main_exp,2022.2.2,Win32,59.77643613,,,,,,,,,,,,,,,,,,masks/mask_004.jpg,,,,,,,,,,,,,,,,,,,,,,,,,,,,,,,,,,,,,,,,,,,,,,,,0,3,3,3,1,,,,,,,,,,,,,,,,,,,,,,,,,,,,,,,,,,,,,,,,,
531052,001,2022-11-21_24h49.57.356,Info_measure_main_exp,2022.2.2,Win32,59.77643613,,,,,,,,,,,,,,,,,,masks/mask_003.jpg,,,,,,,,,,,,,,,,,,,,,,,,,,,,,,,,,,,,,,,,,,,,,,,,0,4,4,2,1,,,,,,,,,,,,,,,,,,,,,,,,,,,,,,,,,,,,,,,,,
531052,001,2022-11-21_24h49.57.356,Info_measure_main_exp,2022.2.2,Win32,59.77643613,,,,,,,,,,,,,,,,,,,,,,,,,,,,,,0,0.8956,1,,,,,,,,,,,,0,131,5,5,2298,2298,absent_patch/patch0002298.jpg,absent_patch/patch0002298.jpg,,,,,,,,,,,,,,,,,,,,-0.059895833,0.12109375,1,0,0,response7disk,33,-0.005208333,0.0078125,1,0,0,center_square,0,32,32,37,1,,,,,,,,,,,,,,,,,,,,,,,
531052,001,2022-11-21_24h49.57.356,Info_measure_main_exp,2022.2.2,Win32,59.77643613,,,,,,,,,,,,,,,,,,masks/mask_004.jpg,,,,,,,,,,,,,,,,,,,,,,,,,,,,,,,,,,,,,,,,,,,0,0,0,3,1,,,,,,,,,,,,,,,,,,,,,,,,,,,,,,,,,,,,,,,,,,,,,,
531052,001,2022-11-21_24h49.57.356,Info_measure_main_exp,2022.2.2,Win32,59.77643613,,,,,,,,,,,,,,,,,,masks/mask_003.jpg,,,,,,,,,,,,,,,,,,,,,,,,,,,,,,,,,,,,,,,,,,,0,1,1,2,1,,,,,,,,,,,,,,,,,,,,,,,,,,,,,,,,,,,,,,,,,,,,,,
531052,001,2022-11-21_24h49.57.356,Info_measure_main_exp,2022.2.2,Win32,59.77643613,,,,,,,,,,,,,,,,,,masks/mask_001.jpg,,,,,,,,,,,,,,,,,,,,,,,,,,,,,,,,,,,,,,,,,,,0,2,2,0,1,,,,,,,,,,,,,,,,,,,,,,,,,,,,,,,,,,,,,,,,,,,,,,
531052,001,2022-11-21_24h49.57.356,Info_measure_main_exp,2022.2.2,Win32,59.77643613,,,,,,,,,,,,,,,,,,masks/mask_002.jpg,,,,,,,,,,,,,,,,,,,,,,,,,,,,,,,,,,,,,,,,,,,0,3,3,1,1,,,,,,,,,,,,,,,,,,,,,,,,,,,,,,,,,,,,,,,,,,,,,,
531052,001,2022-11-21_24h49.57.356,Info_measure_main_exp,2022.2.2,Win32,59.77643613,,,,,,,,,,,,,,,,,,masks/mask_005.jpg,,,,,,,,,,,,,,,,,,,,,,,,,,,,,,,,,,,,,,,,,,,0,4,4,4,1,,,,,,,,,,,,,,,,,,,,,,,,,,,,,,,,,,,,,,,,,,,,,,
531052,001,2022-11-21_24h49.57.356,Info_measure_main_exp,2022.2.2,Win32,59.77643613,,,,,,,,,,,,,,,,,,masks/mask_005.jpg,,,,,,,,,,,,,,,,,,,,,,,,,,,,,,,,,,,,,,,,,,,,,,,,0,0,0,4,1,,,,,,,,,,,,,,,,,,,,,,,,,,,,,,,,,,,,,,,,,
531052,001,2022-11-21_24h49.57.356,Info_measure_main_exp,2022.2.2,Win32,59.77643613,,,,,,,,,,,,,,,,,,masks/mask_002.jpg,,,,,,,,,,,,,,,,,,,,,,,,,,,,,,,,,,,,,,,,,,,,,,,,0,1,1,1,1,,,,,,,,,,,,,,,,,,,,,,,,,,,,,,,,,,,,,,,,,
531052,001,2022-11-21_24h49.57.356,Info_measure_main_exp,2022.2.2,Win32,59.77643613,,,,,,,,,,,,,,,,,,masks/mask_003.jpg,,,,,,,,,,,,,,,,,,,,,,,,,,,,,,,,,,,,,,,,,,,,,,,,0,2,2,2,1,,,,,,,,,,,,,,,,,,,,,,,,,,,,,,,,,,,,,,,,,
531052,001,2022-11-21_24h49.57.356,Info_measure_main_exp,2022.2.2,Win32,59.77643613,,,,,,,,,,,,,,,,,,masks/mask_001.jpg,,,,,,,,,,,,,,,,,,,,,,,,,,,,,,,,,,,,,,,,,,,,,,,,0,3,3,0,1,,,,,,,,,,,,,,,,,,,,,,,,,,,,,,,,,,,,,,,,,
531052,001,2022-11-21_24h49.57.356,Info_measure_main_exp,2022.2.2,Win32,59.77643613,,,,,,,,,,,,,,,,,,masks/mask_004.jpg,,,,,,,,,,,,,,,,,,,,,,,,,,,,,,,,,,,,,,,,,,,,,,,,0,4,4,3,1,,,,,,,,,,,,,,,,,,,,,,,,,,,,,,,,,,,,,,,,,
531052,001,2022-11-21_24h49.57.356,Info_measure_main_exp,2022.2.2,Win32,59.77643613,,,,,,,,,,,,,,,,,,,,,,,,,,,,,,7,1.5249,1,,,,,,,,,,,,0,131,5,5,1950,2238,absent_patch/patch0001950.jpg,absent_patch/patch0002238.jpg,,,,,,,,,,,,,,,,,,,,0.045572917,0.07421875,1,0,0,response1disk,34,0.001302083,0.00390625,1,0,0,center_square,0,33,33,8,1,,,,,,,,,,,,,,,,,,,,,,,
531052,001,2022-11-21_24h49.57.356,Info_measure_main_exp,2022.2.2,Win32,59.77643613,,,,,,,,,,,,,,,,,,masks/mask_002.jpg,,,,,,,,,,,,,,,,,,,,,,,,,,,,,,,,,,,,,,,,,,,0,0,0,1,1,,,,,,,,,,,,,,,,,,,,,,,,,,,,,,,,,,,,,,,,,,,,,,
531052,001,2022-11-21_24h49.57.356,Info_measure_main_exp,2022.2.2,Win32,59.77643613,,,,,,,,,,,,,,,,,,masks/mask_001.jpg,,,,,,,,,,,,,,,,,,,,,,,,,,,,,,,,,,,,,,,,,,,0,1,1,0,1,,,,,,,,,,,,,,,,,,,,,,,,,,,,,,,,,,,,,,,,,,,,,,
531052,001,2022-11-21_24h49.57.356,Info_measure_main_exp,2022.2.2,Win32,59.77643613,,,,,,,,,,,,,,,,,,masks/mask_003.jpg,,,,,,,,,,,,,,,,,,,,,,,,,,,,,,,,,,,,,,,,,,,0,2,2,2,1,,,,,,,,,,,,,,,,,,,,,,,,,,,,,,,,,,,,,,,,,,,,,,
531052,001,2022-11-21_24h49.57.356,Info_measure_main_exp,2022.2.2,Win32,59.77643613,,,,,,,,,,,,,,,,,,masks/mask_005.jpg,,,,,,,,,,,,,,,,,,,,,,,,,,,,,,,,,,,,,,,,,,,0,3,3,4,1,,,,,,,,,,,,,,,,,,,,,,,,,,,,,,,,,,,,,,,,,,,,,,
531052,001,2022-11-21_24h49.57.356,Info_measure_main_exp,2022.2.2,Win32,59.77643613,,,,,,,,,,,,,,,,,,masks/mask_004.jpg,,,,,,,,,,,,,,,,,,,,,,,,,,,,,,,,,,,,,,,,,,,0,4,4,3,1,,,,,,,,,,,,,,,,,,,,,,,,,,,,,,,,,,,,,,,,,,,,,,
531052,001,2022-11-21_24h49.57.356,Info_measure_main_exp,2022.2.2,Win32,59.77643613,,,,,,,,,,,,,,,,,,masks/mask_003.jpg,,,,,,,,,,,,,,,,,,,,,,,,,,,,,,,,,,,,,,,,,,,,,,,,0,0,0,2,1,,,,,,,,,,,,,,,,,,,,,,,,,,,,,,,,,,,,,,,,,
531052,001,2022-11-21_24h49.57.356,Info_measure_main_exp,2022.2.2,Win32,59.77643613,,,,,,,,,,,,,,,,,,masks/mask_005.jpg,,,,,,,,,,,,,,,,,,,,,,,,,,,,,,,,,,,,,,,,,,,,,,,,0,1,1,4,1,,,,,,,,,,,,,,,,,,,,,,,,,,,,,,,,,,,,,,,,,
531052,001,2022-11-21_24h49.57.356,Info_measure_main_exp,2022.2.2,Win32,59.77643613,,,,,,,,,,,,,,,,,,masks/mask_002.jpg,,,,,,,,,,,,,,,,,,,,,,,,,,,,,,,,,,,,,,,,,,,,,,,,0,2,2,1,1,,,,,,,,,,,,,,,,,,,,,,,,,,,,,,,,,,,,,,,,,
531052,001,2022-11-21_24h49.57.356,Info_measure_main_exp,2022.2.2,Win32,59.77643613,,,,,,,,,,,,,,,,,,masks/mask_004.jpg,,,,,,,,,,,,,,,,,,,,,,,,,,,,,,,,,,,,,,,,,,,,,,,,0,3,3,3,1,,,,,,,,,,,,,,,,,,,,,,,,,,,,,,,,,,,,,,,,,
