participant,session,date,expName,psychopyVersion,OS,frameRate,space_press_continue.keys,space_press_continue.rt,space_press_continue_2.keys,space_press_continue_2.rt,space_press_continue_3.keys,space_press_continue_3.rt,space_press_continue_4.keys,space_press_continue_4.rt,space_press_continue_5.keys,space_press_continue_5.rt,space_press_continue_6.keys,space_press_continue_6.rt,prac_mask_loop_1.thisRepN,prac_mask_loop_1.thisTrialN,prac_mask_loop_1.thisN,prac_mask_loop_1.thisIndex,prac_mask_loop_1.ran,mask_name,prac_mask_loop_2.thisRepN,prac_mask_loop_2.thisTrialN,prac_mask_loop_2.thisN,prac_mask_loop_2.thisIndex,prac_mask_loop_2.ran,mouse_2.x,mouse_2.y,mouse_2.leftButton,mouse_2.midButton,mouse_2.rightButton,mouse_2.clicked_name,similarity,response_time,Pass,mouse_12.x,mouse_12.y,mouse_12.leftButton,mouse_12.midButton,mouse_12.rightButton,mouse_12.clicked_name,prac_loop.thisRepN,prac_loop.thisTrialN,prac_loop.thisN,prac_loop.thisIndex,prac_loop.ran,Pair_type,Image_num,Patch_1_loc,Patch_2_loc,Patch_1_info,Patch_2_info,Patch_1_name,Patch_2_name,mouse_1.x,mouse_1.y,mouse_1.leftButton,mouse_1.midButton,mouse_1.rightButton,mouse_1.time,mouse_1.clicked_name,space_press_continue_7.keys,space_press_continue_7.rt,mask_loop.thisRepN,mask_loop.thisTrialN,mask_loop.thisN,mask_loop.thisIndex,mask_loop.ran,mask_loop_2.thisRepN,mask_loop_2.thisTrialN,mask_loop_2.thisN,mask_loop_2.thisIndex,mask_loop_2.ran,mouse.x,mouse.y,mouse.leftButton,mouse.midButton,mouse.rightButton,mouse.clicked_name,trialNumber,mouse_11.x,mouse_11.y,mouse_11.leftButton,mouse_11.midButton,mouse_11.rightButton,mouse_11.clicked_name,first_pass_loop.thisRepN,first_pass_loop.thisTrialN,first_pass_loop.thisN,first_pass_loop.thisIndex,first_pass_loop.ran,mask_loop_3.thisRepN,mask_loop_3.thisTrialN,mask_loop_3.thisN,mask_loop_3.thisIndex,mask_loop_3.ran,mask_loop_4.thisRepN,mask_loop_4.thisTrialN,mask_loop_4.thisN,mask_loop_4.thisIndex,mask_loop_4.ran,mouse_3.x,mouse_3.y,mouse_3.leftButton,mouse_3.midButton,mouse_3.rightButton,mouse_3.clicked_name,double_pass_loop.thisRepN,double_pass_loop.thisTrialN,double_pass_loop.thisN,double_pass_loop.thisIndex,double_pass_loop.ran,space_exit.keys,space_exit.rt
532559,001,2022-11-21_24h55.56.398,Info_measure_main_exp,2022.2.2,Win32,59.90893841,,,,,,,,,,,,,,,,,,,,,,,,,,,,,,,,,,,,,,,,,,,,,,,,,,,,,,,,,,,,,,,,,,,,,,,,,,,,,,,,,,,,,,,,,,,,,,,,,,,,,,,,,,,,,,,
532559,001,2022-11-21_24h55.56.398,Info_measure_main_exp,2022.2.2,Win32,59.90893841,,,,,,,,,,,,,,,,,,,,,,,,,,,,,,,,,,,,,,,,,,,,,,,,,,,,,,,,,,,,,,,,,,,,,,,,,,,,,,,,,,,,,,,,,,,,,,,,,,,,,,,,,,,,,,,
532559,001,2022-11-21_24h55.56.398,Info_measure_main_exp,2022.2.2,Win32,59.90893841,space,10.8179,,,,,,,,,,,,,,,,,,,,,,,,,,,,,,,,,,,,,,,,,,,,,,,,,,,,,,,,,,,,,,,,,,,,,,,,,,,,,,,,,,,,,,,,,,,,,,,,,,,,,,,,,,,,,
532559,001,2022-11-21_24h55.56.398,Info_measure_main_exp,2022.2.2,Win32,59.90893841,,,space,25.0006,,,,,,,,,,,,,,,,,,,,,,,,,,,,,,,,,,,,,,,,,,,,,,,,,,,,,,,,,,,,,,,,,,,,,,,,,,,,,,,,,,,,,,,,,,,,,,,,,,,,,,,,,,,
532559,001,2022-11-21_24h55.56.398,Info_measure_main_exp,2022.2.2,Win32,59.90893841,,,,,space,6.236,,,,,,,,,,,,,,,,,,,,,,,,,,,,,,,,,,,,,,,,,,,,,,,,,,,,,,,,,,,,,,,,,,,,,,,,,,,,,,,,,,,,,,,,,,,,,,,,,,,,,,,,,
532559,001,2022-11-21_24h55.56.398,Info_measure_main_exp,2022.2.2,Win32,59.90893841,,,,,,,space,24.2023,,,,,,,,,,,,,,,,,,,,,,,,,,,,,,,,,,,,,,,,,,,,,,,,,,,,,,,,,,,,,,,,,,,,,,,,,,,,,,,,,,,,,,,,,,,,,,,,,,,,,,,
532559,001,2022-11-21_24h55.56.398,Info_measure_main_exp,2022.2.2,Win32,59.90893841,,,,,,,,,space,16.6061,,,,,,,,,,,,,,,,,,,,,,,,,,,,,,,,,,,,,,,,,,,,,,,,,,,,,,,,,,,,,,,,,,,,,,,,,,,,,,,,,,,,,,,,,,,,,,,,,,,,,
532559,001,2022-11-21_24h55.56.398,Info_measure_main_exp,2022.2.2,Win32,59.90893841,,,,,,,,,,,space,4.0656,,,,,,,,,,,,,,,,,,,,,,,,,,,,,,,,,,,,,,,,,,,,,,,,,,,,,,,,,,,,,,,,,,,,,,,,,,,,,,,,,,,,,,,,,,,,,,,,,,,
532559,001,2022-11-21_24h55.56.398,Info_measure_main_exp,2022.2.2,Win32,59.90893841,,,,,,,,,,,,,0,0,0,4,1,masks/mask_005.jpg,,,,,,,,,,,,,,,,,,,,,,,,,,,,,,,,,,,,,,,,,,,,,,,,,,,,,,,,,,,,,,,,,,,,,,,,,,,,,,,,,,,,,,,,,,,,,
532559,001,2022-11-21_24h55.56.398,Info_measure_main_exp,2022.2.2,Win32,59.90893841,,,,,,,,,,,,,0,1,1,1,1,masks/mask_002.jpg,,,,,,,,,,,,,,,,,,,,,,,,,,,,,,,,,,,,,,,,,,,,,,,,,,,,,,,,,,,,,,,,,,,,,,,,,,,,,,,,,,,,,,,,,,,,,
532559,001,2022-11-21_24h55.56.398,Info_measure_main_exp,2022.2.2,Win32,59.90893841,,,,,,,,,,,,,0,2,2,0,1,masks/mask_001.jpg,,,,,,,,,,,,,,,,,,,,,,,,,,,,,,,,,,,,,,,,,,,,,,,,,,,,,,,,,,,,,,,,,,,,,,,,,,,,,,,,,,,,,,,,,,,,,
532559,001,2022-11-21_24h55.56.398,Info_measure_main_exp,2022.2.2,Win32,59.90893841,,,,,,,,,,,,,0,3,3,3,1,masks/mask_004.jpg,,,,,,,,,,,,,,,,,,,,,,,,,,,,,,,,,,,,,,,,,,,,,,,,,,,,,,,,,,,,,,,,,,,,,,,,,,,,,,,,,,,,,,,,,,,,,
532559,001,2022-11-21_24h55.56.398,Info_measure_main_exp,2022.2.2,Win32,59.90893841,,,,,,,,,,,,,0,4,4,2,1,masks/mask_003.jpg,,,,,,,,,,,,,,,,,,,,,,,,,,,,,,,,,,,,,,,,,,,,,,,,,,,,,,,,,,,,,,,,,,,,,,,,,,,,,,,,,,,,,,,,,,,,,
532559,001,2022-11-21_24h55.56.398,Info_measure_main_exp,2022.2.2,Win32,59.90893841,,,,,,,,,,,,,,,,,,masks/mask_002.jpg,0,0,0,1,1,,,,,,,,,,,,,,,,,,,,,,,,,,,,,,,,,,,,,,,,,,,,,,,,,,,,,,,,,,,,,,,,,,,,,,,,,,,,,,,,,,,,,,,,
532559,001,2022-11-21_24h55.56.398,Info_measure_main_exp,2022.2.2,Win32,59.90893841,,,,,,,,,,,,,,,,,,masks/mask_004.jpg,0,1,1,3,1,,,,,,,,,,,,,,,,,,,,,,,,,,,,,,,,,,,,,,,,,,,,,,,,,,,,,,,,,,,,,,,,,,,,,,,,,,,,,,,,,,,,,,,,
532559,001,2022-11-21_24h55.56.398,Info_measure_main_exp,2022.2.2,Win32,59.90893841,,,,,,,,,,,,,,,,,,masks/mask_005.jpg,0,2,2,4,1,,,,,,,,,,,,,,,,,,,,,,,,,,,,,,,,,,,,,,,,,,,,,,,,,,,,,,,,,,,,,,,,,,,,,,,,,,,,,,,,,,,,,,,,
532559,001,2022-11-21_24h55.56.398,Info_measure_main_exp,2022.2.2,Win32,59.90893841,,,,,,,,,,,,,,,,,,masks/mask_003.jpg,0,3,3,2,1,,,,,,,,,,,,,,,,,,,,,,,,,,,,,,,,,,,,,,,,,,,,,,,,,,,,,,,,,,,,,,,,,,,,,,,,,,,,,,,,,,,,,,,,
532559,001,2022-11-21_24h55.56.398,Info_measure_main_exp,2022.2.2,Win32,59.90893841,,,,,,,,,,,,,,,,,,masks/mask_001.jpg,0,4,4,0,1,,,,,,,,,,,,,,,,,,,,,,,,,,,,,,,,,,,,,,,,,,,,,,,,,,,,,,,,,,,,,,,,,,,,,,,,,,,,,,,,,,,,,,,,
532559,001,2022-11-21_24h55.56.398,Info_measure_main_exp,2022.2.2,Win32,59.90893841,,,,,,,,,,,,,,,,,,,,,,,,-0.029947917,-0.122395833,1,0,0,response5disk,3,91.2728,1,-0.002604167,-0.002604167,1,0,0,center_square,0,0,0,1,1,0,131,5,5,2514,2490,prac_patch/patch0002514.jpg,prac_patch/patch0002490.jpg,,,,,,,,,,,,,,,,,,,,,,,,,,,,,,,,,,,,,,,,,,,,,,,,,,,,,,,,,,,,
532559,001,2022-11-21_24h55.56.398,Info_measure_main_exp,2022.2.2,Win32,59.90893841,,,,,,,,,,,,,0,0,0,3,1,masks/mask_004.jpg,,,,,,,,,,,,,,,,,,,,,,,,,,,,,,,,,,,,,,,,,,,,,,,,,,,,,,,,,,,,,,,,,,,,,,,,,,,,,,,,,,,,,,,,,,,,,
532559,001,2022-11-21_24h55.56.398,Info_measure_main_exp,2022.2.2,Win32,59.90893841,,,,,,,,,,,,,0,1,1,1,1,masks/mask_002.jpg,,,,,,,,,,,,,,,,,,,,,,,,,,,,,,,,,,,,,,,,,,,,,,,,,,,,,,,,,,,,,,,,,,,,,,,,,,,,,,,,,,,,,,,,,,,,,
532559,001,2022-11-21_24h55.56.398,Info_measure_main_exp,2022.2.2,Win32,59.90893841,,,,,,,,,,,,,0,2,2,2,1,masks/mask_003.jpg,,,,,,,,,,,,,,,,,,,,,,,,,,,,,,,,,,,,,,,,,,,,,,,,,,,,,,,,,,,,,,,,,,,,,,,,,,,,,,,,,,,,,,,,,,,,,
532559,001,2022-11-21_24h55.56.398,Info_measure_main_exp,2022.2.2,Win32,59.90893841,,,,,,,,,,,,,0,3,3,4,1,masks/mask_005.jpg,,,,,,,,,,,,,,,,,,,,,,,,,,,,,,,,,,,,,,,,,,,,,,,,,,,,,,,,,,,,,,,,,,,,,,,,,,,,,,,,,,,,,,,,,,,,,
532559,001,2022-11-21_24h55.56.398,Info_measure_main_exp,2022.2.2,Win32,59.90893841,,,,,,,,,,,,,0,4,4,0,1,masks/mask_001.jpg,,,,,,,,,,,,,,,,,,,,,,,,,,,,,,,,,,,,,,,,,,,,,,,,,,,,,,,,,,,,,,,,,,,,,,,,,,,,,,,,,,,,,,,,,,,,,
532559,001,2022-11-21_24h55.56.398,Info_measure_main_exp,2022.2.2,Win32,59.90893841,,,,,,,,,,,,,,,,,,masks/mask_003.jpg,0,0,0,2,1,,,,,,,,,,,,,,,,,,,,,,,,,,,,,,,,,,,,,,,,,,,,,,,,,,,,,,,,,,,,,,,,,,,,,,,,,,,,,,,,,,,,,,,,
532559,001,2022-11-21_24h55.56.398,Info_measure_main_exp,2022.2.2,Win32,59.90893841,,,,,,,,,,,,,,,,,,masks/mask_005.jpg,0,1,1,4,1,,,,,,,,,,,,,,,,,,,,,,,,,,,,,,,,,,,,,,,,,,,,,,,,,,,,,,,,,,,,,,,,,,,,,,,,,,,,,,,,,,,,,,,,
532559,001,2022-11-21_24h55.56.398,Info_measure_main_exp,2022.2.2,Win32,59.90893841,,,,,,,,,,,,,,,,,,masks/mask_004.jpg,0,2,2,3,1,,,,,,,,,,,,,,,,,,,,,,,,,,,,,,,,,,,,,,,,,,,,,,,,,,,,,,,,,,,,,,,,,,,,,,,,,,,,,,,,,,,,,,,,
532559,001,2022-11-21_24h55.56.398,Info_measure_main_exp,2022.2.2,Win32,59.90893841,,,,,,,,,,,,,,,,,,masks/mask_001.jpg,0,3,3,0,1,,,,,,,,,,,,,,,,,,,,,,,,,,,,,,,,,,,,,,,,,,,,,,,,,,,,,,,,,,,,,,,,,,,,,,,,,,,,,,,,,,,,,,,,
532559,001,2022-11-21_24h55.56.398,Info_measure_main_exp,2022.2.2,Win32,59.90893841,,,,,,,,,,,,,,,,,,masks/mask_002.jpg,0,4,4,1,1,,,,,,,,,,,,,,,,,,,,,,,,,,,,,,,,,,,,,,,,,,,,,,,,,,,,,,,,,,,,,,,,,,,,,,,,,,,,,,,,,,,,,,,,
532559,001,2022-11-21_24h55.56.398,Info_measure_main_exp,2022.2.2,Win32,59.90893841,,,,,,,,,,,,,,,,,,,,,,,,-0.020833333,0.1171875,1,0,0,response7disk,0,101.9012,1,0.002604167,0.006510417,1,0,0,center_square,0,1,1,0,1,0,131,5,5,2370,2406,prac_patch/patch0002370.jpg,prac_patch/patch0002406.jpg,,,,,,,,,,,,,,,,,,,,,,,,,,,,,,,,,,,,,,,,,,,,,,,,,,,,,,,,,,,,
532559,001,2022-11-21_24h55.56.398,Info_measure_main_exp,2022.2.2,Win32,59.90893841,,,,,,,,,,,,,0,0,0,1,1,masks/mask_002.jpg,,,,,,,,,,,,,,,,,,,,,,,,,,,,,,,,,,,,,,,,,,,,,,,,,,,,,,,,,,,,,,,,,,,,,,,,,,,,,,,,,,,,,,,,,,,,,
532559,001,2022-11-21_24h55.56.398,Info_measure_main_exp,2022.2.2,Win32,59.90893841,,,,,,,,,,,,,0,1,1,2,1,masks/mask_003.jpg,,,,,,,,,,,,,,,,,,,,,,,,,,,,,,,,,,,,,,,,,,,,,,,,,,,,,,,,,,,,,,,,,,,,,,,,,,,,,,,,,,,,,,,,,,,,,
532559,001,2022-11-21_24h55.56.398,Info_measure_main_exp,2022.2.2,Win32,59.90893841,,,,,,,,,,,,,0,2,2,3,1,masks/mask_004.jpg,,,,,,,,,,,,,,,,,,,,,,,,,,,,,,,,,,,,,,,,,,,,,,,,,,,,,,,,,,,,,,,,,,,,,,,,,,,,,,,,,,,,,,,,,,,,,
532559,001,2022-11-21_24h55.56.398,Info_measure_main_exp,2022.2.2,Win32,59.90893841,,,,,,,,,,,,,0,3,3,0,1,masks/mask_001.jpg,,,,,,,,,,,,,,,,,,,,,,,,,,,,,,,,,,,,,,,,,,,,,,,,,,,,,,,,,,,,,,,,,,,,,,,,,,,,,,,,,,,,,,,,,,,,,
532559,001,2022-11-21_24h55.56.398,Info_measure_main_exp,2022.2.2,Win32,59.90893841,,,,,,,,,,,,,0,4,4,4,1,masks/mask_005.jpg,,,,,,,,,,,,,,,,,,,,,,,,,,,,,,,,,,,,,,,,,,,,,,,,,,,,,,,,,,,,,,,,,,,,,,,,,,,,,,,,,,,,,,,,,,,,,
532559,001,2022-11-21_24h55.56.398,Info_measure_main_exp,2022.2.2,Win32,59.90893841,,,,,,,,,,,,,,,,,,masks/mask_005.jpg,0,0,0,4,1,,,,,,,,,,,,,,,,,,,,,,,,,,,,,,,,,,,,,,,,,,,,,,,,,,,,,,,,,,,,,,,,,,,,,,,,,,,,,,,,,,,,,,,,
532559,001,2022-11-21_24h55.56.398,Info_measure_main_exp,2022.2.2,Win32,59.90893841,,,,,,,,,,,,,,,,,,masks/mask_001.jpg,0,1,1,0,1,,,,,,,,,,,,,,,,,,,,,,,,,,,,,,,,,,,,,,,,,,,,,,,,,,,,,,,,,,,,,,,,,,,,,,,,,,,,,,,,,,,,,,,,
532559,001,2022-11-21_24h55.56.398,Info_measure_main_exp,2022.2.2,Win32,59.90893841,,,,,,,,,,,,,,,,,,masks/mask_003.jpg,0,2,2,2,1,,,,,,,,,,,,,,,,,,,,,,,,,,,,,,,,,,,,,,,,,,,,,,,,,,,,,,,,,,,,,,,,,,,,,,,,,,,,,,,,,,,,,,,,
532559,001,2022-11-21_24h55.56.398,Info_measure_main_exp,2022.2.2,Win32,59.90893841,,,,,,,,,,,,,,,,,,masks/mask_004.jpg,0,3,3,3,1,,,,,,,,,,,,,,,,,,,,,,,,,,,,,,,,,,,,,,,,,,,,,,,,,,,,,,,,,,,,,,,,,,,,,,,,,,,,,,,,,,,,,,,,
532559,001,2022-11-21_24h55.56.398,Info_measure_main_exp,2022.2.2,Win32,59.90893841,,,,,,,,,,,,,,,,,,masks/mask_002.jpg,0,4,4,1,1,,,,,,,,,,,,,,,,,,,,,,,,,,,,,,,,,,,,,,,,,,,,,,,,,,,,,,,,,,,,,,,,,,,,,,,,,,,,,,,,,,,,,,,,
532559,001,2022-11-21_24h55.56.398,Info_measure_main_exp,2022.2.2,Win32,59.90893841,,,,,,,,,,,,,,,,,,,,,,,,0.104166667,-0.046875,1,0,0,response3disk,5,112.5368,1,-0.006510417,-0.00390625,1,0,0,center_square,0,2,2,2,1,0,131,5,5,2526,2526,prac_patch/patch0002526.jpg,prac_patch/patch0002526.jpg,,,,,,,,,,,,,,,,,,,,,,,,,,,,,,,,,,,,,,,,,,,,,,,,,,,,,,,,,,,,
532559,001,2022-11-21_24h55.56.398,Info_measure_main_exp,2022.2.2,Win32,59.90893841,,,,,,,,,,,,,,,,,,,,,,,,,,,,,,,,,,,,,,,,,,,,,,,,,,,,,,,,,,,space,2.1043,,,,,,,,,,,,,,,,,,,,,,,,,,,,,,,,,,,,,,,,,,,,,,,,,,,
532559,001,2022-11-21_24h55.56.398,Info_measure_main_exp,2022.2.2,Win32,59.90893841,,,,,,,,,,,,,,,,,,masks/mask_004.jpg,,,,,,,,,,,,,,,,,,,,,,,,,,,,,,,,,,,,,,,,,,,0,0,0,3,1,,,,,,,,,,,,,,,,,,,,,,,,,,,,,,,,,,,,,,,,,,,,,,
532559,001,2022-11-21_24h55.56.398,Info_measure_main_exp,2022.2.2,Win32,59.90893841,,,,,,,,,,,,,,,,,,masks/mask_001.jpg,,,,,,,,,,,,,,,,,,,,,,,,,,,,,,,,,,,,,,,,,,,0,1,1,0,1,,,,,,,,,,,,,,,,,,,,,,,,,,,,,,,,,,,,,,,,,,,,,,
532559,001,2022-11-21_24h55.56.398,Info_measure_main_exp,2022.2.2,Win32,59.90893841,,,,,,,,,,,,,,,,,,masks/mask_003.jpg,,,,,,,,,,,,,,,,,,,,,,,,,,,,,,,,,,,,,,,,,,,0,2,2,2,1,,,,,,,,,,,,,,,,,,,,,,,,,,,,,,,,,,,,,,,,,,,,,,
532559,001,2022-11-21_24h55.56.398,Info_measure_main_exp,2022.2.2,Win32,59.90893841,,,,,,,,,,,,,,,,,,masks/mask_002.jpg,,,,,,,,,,,,,,,,,,,,,,,,,,,,,,,,,,,,,,,,,,,0,3,3,1,1,,,,,,,,,,,,,,,,,,,,,,,,,,,,,,,,,,,,,,,,,,,,,,
532559,001,2022-11-21_24h55.56.398,Info_measure_main_exp,2022.2.2,Win32,59.90893841,,,,,,,,,,,,,,,,,,masks/mask_005.jpg,,,,,,,,,,,,,,,,,,,,,,,,,,,,,,,,,,,,,,,,,,,0,4,4,4,1,,,,,,,,,,,,,,,,,,,,,,,,,,,,,,,,,,,,,,,,,,,,,,
532559,001,2022-11-21_24h55.56.398,Info_measure_main_exp,2022.2.2,Win32,59.90893841,,,,,,,,,,,,,,,,,,masks/mask_004.jpg,,,,,,,,,,,,,,,,,,,,,,,,,,,,,,,,,,,,,,,,,,,,,,,,0,0,0,3,1,,,,,,,,,,,,,,,,,,,,,,,,,,,,,,,,,,,,,,,,,
532559,001,2022-11-21_24h55.56.398,Info_measure_main_exp,2022.2.2,Win32,59.90893841,,,,,,,,,,,,,,,,,,masks/mask_003.jpg,,,,,,,,,,,,,,,,,,,,,,,,,,,,,,,,,,,,,,,,,,,,,,,,0,1,1,2,1,,,,,,,,,,,,,,,,,,,,,,,,,,,,,,,,,,,,,,,,,
532559,001,2022-11-21_24h55.56.398,Info_measure_main_exp,2022.2.2,Win32,59.90893841,,,,,,,,,,,,,,,,,,masks/mask_005.jpg,,,,,,,,,,,,,,,,,,,,,,,,,,,,,,,,,,,,,,,,,,,,,,,,0,2,2,4,1,,,,,,,,,,,,,,,,,,,,,,,,,,,,,,,,,,,,,,,,,
532559,001,2022-11-21_24h55.56.398,Info_measure_main_exp,2022.2.2,Win32,59.90893841,,,,,,,,,,,,,,,,,,masks/mask_001.jpg,,,,,,,,,,,,,,,,,,,,,,,,,,,,,,,,,,,,,,,,,,,,,,,,0,3,3,0,1,,,,,,,,,,,,,,,,,,,,,,,,,,,,,,,,,,,,,,,,,
532559,001,2022-11-21_24h55.56.398,Info_measure_main_exp,2022.2.2,Win32,59.90893841,,,,,,,,,,,,,,,,,,masks/mask_002.jpg,,,,,,,,,,,,,,,,,,,,,,,,,,,,,,,,,,,,,,,,,,,,,,,,0,4,4,1,1,,,,,,,,,,,,,,,,,,,,,,,,,,,,,,,,,,,,,,,,,
532559,001,2022-11-21_24h55.56.398,Info_measure_main_exp,2022.2.2,Win32,59.90893841,,,,,,,,,,,,,,,,,,,,,,,,,,,,,,5,2.4828,1,,,,,,,,,,,,0,131,5,5,2142,2190,absent_patch/patch0002142.jpg,absent_patch/patch0002190.jpg,,,,,,,,,,,,,,,,,,,,0.109375,-0.05078125,1,0,0,response3disk,1,0.013020833,0.002604167,1,0,0,center_square,0,0,0,70,1,,,,,,,,,,,,,,,,,,,,,,,
532559,001,2022-11-21_24h55.56.398,Info_measure_main_exp,2022.2.2,Win32,59.90893841,,,,,,,,,,,,,,,,,,masks/mask_004.jpg,,,,,,,,,,,,,,,,,,,,,,,,,,,,,,,,,,,,,,,,,,,0,0,0,3,1,,,,,,,,,,,,,,,,,,,,,,,,,,,,,,,,,,,,,,,,,,,,,,
532559,001,2022-11-21_24h55.56.398,Info_measure_main_exp,2022.2.2,Win32,59.90893841,,,,,,,,,,,,,,,,,,masks/mask_005.jpg,,,,,,,,,,,,,,,,,,,,,,,,,,,,,,,,,,,,,,,,,,,0,1,1,4,1,,,,,,,,,,,,,,,,,,,,,,,,,,,,,,,,,,,,,,,,,,,,,,
532559,001,2022-11-21_24h55.56.398,Info_measure_main_exp,2022.2.2,Win32,59.90893841,,,,,,,,,,,,,,,,,,masks/mask_003.jpg,,,,,,,,,,,,,,,,,,,,,,,,,,,,,,,,,,,,,,,,,,,0,2,2,2,1,,,,,,,,,,,,,,,,,,,,,,,,,,,,,,,,,,,,,,,,,,,,,,
532559,001,2022-11-21_24h55.56.398,Info_measure_main_exp,2022.2.2,Win32,59.90893841,,,,,,,,,,,,,,,,,,masks/mask_002.jpg,,,,,,,,,,,,,,,,,,,,,,,,,,,,,,,,,,,,,,,,,,,0,3,3,1,1,,,,,,,,,,,,,,,,,,,,,,,,,,,,,,,,,,,,,,,,,,,,,,
532559,001,2022-11-21_24h55.56.398,Info_measure_main_exp,2022.2.2,Win32,59.90893841,,,,,,,,,,,,,,,,,,masks/mask_001.jpg,,,,,,,,,,,,,,,,,,,,,,,,,,,,,,,,,,,,,,,,,,,0,4,4,0,1,,,,,,,,,,,,,,,,,,,,,,,,,,,,,,,,,,,,,,,,,,,,,,
532559,001,2022-11-21_24h55.56.398,Info_measure_main_exp,2022.2.2,Win32,59.90893841,,,,,,,,,,,,,,,,,,masks/mask_002.jpg,,,,,,,,,,,,,,,,,,,,,,,,,,,,,,,,,,,,,,,,,,,,,,,,0,0,0,1,1,,,,,,,,,,,,,,,,,,,,,,,,,,,,,,,,,,,,,,,,,
532559,001,2022-11-21_24h55.56.398,Info_measure_main_exp,2022.2.2,Win32,59.90893841,,,,,,,,,,,,,,,,,,masks/mask_005.jpg,,,,,,,,,,,,,,,,,,,,,,,,,,,,,,,,,,,,,,,,,,,,,,,,0,1,1,4,1,,,,,,,,,,,,,,,,,,,,,,,,,,,,,,,,,,,,,,,,,
532559,001,2022-11-21_24h55.56.398,Info_measure_main_exp,2022.2.2,Win32,59.90893841,,,,,,,,,,,,,,,,,,masks/mask_004.jpg,,,,,,,,,,,,,,,,,,,,,,,,,,,,,,,,,,,,,,,,,,,,,,,,0,2,2,3,1,,,,,,,,,,,,,,,,,,,,,,,,,,,,,,,,,,,,,,,,,
532559,001,2022-11-21_24h55.56.398,Info_measure_main_exp,2022.2.2,Win32,59.90893841,,,,,,,,,,,,,,,,,,masks/mask_003.jpg,,,,,,,,,,,,,,,,,,,,,,,,,,,,,,,,,,,,,,,,,,,,,,,,0,3,3,2,1,,,,,,,,,,,,,,,,,,,,,,,,,,,,,,,,,,,,,,,,,
532559,001,2022-11-21_24h55.56.398,Info_measure_main_exp,2022.2.2,Win32,59.90893841,,,,,,,,,,,,,,,,,,masks/mask_001.jpg,,,,,,,,,,,,,,,,,,,,,,,,,,,,,,,,,,,,,,,,,,,,,,,,0,4,4,0,1,,,,,,,,,,,,,,,,,,,,,,,,,,,,,,,,,,,,,,,,,
532559,001,2022-11-21_24h55.56.398,Info_measure_main_exp,2022.2.2,Win32,59.90893841,,,,,,,,,,,,,,,,,,,,,,,,,,,,,,7,2.6158,1,,,,,,,,,,,,0,131,5,5,2214,2178,absent_patch/patch0002214.jpg,absent_patch/patch0002178.jpg,,,,,,,,,,,,,,,,,,,,0.072916667,0.1328125,1,0,0,response1disk,2,0.005208333,-0.002604167,1,0,0,center_square,0,1,1,62,1,,,,,,,,,,,,,,,,,,,,,,,
532559,001,2022-11-21_24h55.56.398,Info_measure_main_exp,2022.2.2,Win32,59.90893841,,,,,,,,,,,,,,,,,,masks/mask_001.jpg,,,,,,,,,,,,,,,,,,,,,,,,,,,,,,,,,,,,,,,,,,,0,0,0,0,1,,,,,,,,,,,,,,,,,,,,,,,,,,,,,,,,,,,,,,,,,,,,,,
532559,001,2022-11-21_24h55.56.398,Info_measure_main_exp,2022.2.2,Win32,59.90893841,,,,,,,,,,,,,,,,,,masks/mask_003.jpg,,,,,,,,,,,,,,,,,,,,,,,,,,,,,,,,,,,,,,,,,,,0,1,1,2,1,,,,,,,,,,,,,,,,,,,,,,,,,,,,,,,,,,,,,,,,,,,,,,
532559,001,2022-11-21_24h55.56.398,Info_measure_main_exp,2022.2.2,Win32,59.90893841,,,,,,,,,,,,,,,,,,masks/mask_004.jpg,,,,,,,,,,,,,,,,,,,,,,,,,,,,,,,,,,,,,,,,,,,0,2,2,3,1,,,,,,,,,,,,,,,,,,,,,,,,,,,,,,,,,,,,,,,,,,,,,,
532559,001,2022-11-21_24h55.56.398,Info_measure_main_exp,2022.2.2,Win32,59.90893841,,,,,,,,,,,,,,,,,,masks/mask_005.jpg,,,,,,,,,,,,,,,,,,,,,,,,,,,,,,,,,,,,,,,,,,,0,3,3,4,1,,,,,,,,,,,,,,,,,,,,,,,,,,,,,,,,,,,,,,,,,,,,,,
532559,001,2022-11-21_24h55.56.398,Info_measure_main_exp,2022.2.2,Win32,59.90893841,,,,,,,,,,,,,,,,,,masks/mask_002.jpg,,,,,,,,,,,,,,,,,,,,,,,,,,,,,,,,,,,,,,,,,,,0,4,4,1,1,,,,,,,,,,,,,,,,,,,,,,,,,,,,,,,,,,,,,,,,,,,,,,
532559,001,2022-11-21_24h55.56.398,Info_measure_main_exp,2022.2.2,Win32,59.90893841,,,,,,,,,,,,,,,,,,masks/mask_004.jpg,,,,,,,,,,,,,,,,,,,,,,,,,,,,,,,,,,,,,,,,,,,,,,,,0,0,0,3,1,,,,,,,,,,,,,,,,,,,,,,,,,,,,,,,,,,,,,,,,,
532559,001,2022-11-21_24h55.56.398,Info_measure_main_exp,2022.2.2,Win32,59.90893841,,,,,,,,,,,,,,,,,,masks/mask_001.jpg,,,,,,,,,,,,,,,,,,,,,,,,,,,,,,,,,,,,,,,,,,,,,,,,0,1,1,0,1,,,,,,,,,,,,,,,,,,,,,,,,,,,,,,,,,,,,,,,,,
532559,001,2022-11-21_24h55.56.398,Info_measure_main_exp,2022.2.2,Win32,59.90893841,,,,,,,,,,,,,,,,,,masks/mask_005.jpg,,,,,,,,,,,,,,,,,,,,,,,,,,,,,,,,,,,,,,,,,,,,,,,,0,2,2,4,1,,,,,,,,,,,,,,,,,,,,,,,,,,,,,,,,,,,,,,,,,
532559,001,2022-11-21_24h55.56.398,Info_measure_main_exp,2022.2.2,Win32,59.90893841,,,,,,,,,,,,,,,,,,masks/mask_002.jpg,,,,,,,,,,,,,,,,,,,,,,,,,,,,,,,,,,,,,,,,,,,,,,,,0,3,3,1,1,,,,,,,,,,,,,,,,,,,,,,,,,,,,,,,,,,,,,,,,,
532559,001,2022-11-21_24h55.56.398,Info_measure_main_exp,2022.2.2,Win32,59.90893841,,,,,,,,,,,,,,,,,,masks/mask_003.jpg,,,,,,,,,,,,,,,,,,,,,,,,,,,,,,,,,,,,,,,,,,,,,,,,0,4,4,2,1,,,,,,,,,,,,,,,,,,,,,,,,,,,,,,,,,,,,,,,,,
532559,001,2022-11-21_24h55.56.398,Info_measure_main_exp,2022.2.2,Win32,59.90893841,,,,,,,,,,,,,,,,,,,,,,,,,,,,,,0,1.8326,1,,,,,,,,,,,,0,131,5,5,2142,2142,absent_patch/patch0002142.jpg,absent_patch/patch0002142.jpg,,,,,,,,,,,,,,,,,,,,-0.048177083,0.108072917,1,0,0,response7disk,3,0.001302083,0.00390625,1,0,0,center_square,0,2,2,13,1,,,,,,,,,,,,,,,,,,,,,,,
532559,001,2022-11-21_24h55.56.398,Info_measure_main_exp,2022.2.2,Win32,59.90893841,,,,,,,,,,,,,,,,,,masks/mask_004.jpg,,,,,,,,,,,,,,,,,,,,,,,,,,,,,,,,,,,,,,,,,,,0,0,0,3,1,,,,,,,,,,,,,,,,,,,,,,,,,,,,,,,,,,,,,,,,,,,,,,
532559,001,2022-11-21_24h55.56.398,Info_measure_main_exp,2022.2.2,Win32,59.90893841,,,,,,,,,,,,,,,,,,masks/mask_002.jpg,,,,,,,,,,,,,,,,,,,,,,,,,,,,,,,,,,,,,,,,,,,0,1,1,1,1,,,,,,,,,,,,,,,,,,,,,,,,,,,,,,,,,,,,,,,,,,,,,,
532559,001,2022-11-21_24h55.56.398,Info_measure_main_exp,2022.2.2,Win32,59.90893841,,,,,,,,,,,,,,,,,,masks/mask_003.jpg,,,,,,,,,,,,,,,,,,,,,,,,,,,,,,,,,,,,,,,,,,,0,2,2,2,1,,,,,,,,,,,,,,,,,,,,,,,,,,,,,,,,,,,,,,,,,,,,,,
532559,001,2022-11-21_24h55.56.398,Info_measure_main_exp,2022.2.2,Win32,59.90893841,,,,,,,,,,,,,,,,,,masks/mask_001.jpg,,,,,,,,,,,,,,,,,,,,,,,,,,,,,,,,,,,,,,,,,,,0,3,3,0,1,,,,,,,,,,,,,,,,,,,,,,,,,,,,,,,,,,,,,,,,,,,,,,
532559,001,2022-11-21_24h55.56.398,Info_measure_main_exp,2022.2.2,Win32,59.90893841,,,,,,,,,,,,,,,,,,masks/mask_005.jpg,,,,,,,,,,,,,,,,,,,,,,,,,,,,,,,,,,,,,,,,,,,0,4,4,4,1,,,,,,,,,,,,,,,,,,,,,,,,,,,,,,,,,,,,,,,,,,,,,,
532559,001,2022-11-21_24h55.56.398,Info_measure_main_exp,2022.2.2,Win32,59.90893841,,,,,,,,,,,,,,,,,,masks/mask_005.jpg,,,,,,,,,,,,,,,,,,,,,,,,,,,,,,,,,,,,,,,,,,,,,,,,0,0,0,4,1,,,,,,,,,,,,,,,,,,,,,,,,,,,,,,,,,,,,,,,,,
532559,001,2022-11-21_24h55.56.398,Info_measure_main_exp,2022.2.2,Win32,59.90893841,,,,,,,,,,,,,,,,,,masks/mask_002.jpg,,,,,,,,,,,,,,,,,,,,,,,,,,,,,,,,,,,,,,,,,,,,,,,,0,1,1,1,1,,,,,,,,,,,,,,,,,,,,,,,,,,,,,,,,,,,,,,,,,
532559,001,2022-11-21_24h55.56.398,Info_measure_main_exp,2022.2.2,Win32,59.90893841,,,,,,,,,,,,,,,,,,masks/mask_001.jpg,,,,,,,,,,,,,,,,,,,,,,,,,,,,,,,,,,,,,,,,,,,,,,,,0,2,2,0,1,,,,,,,,,,,,,,,,,,,,,,,,,,,,,,,,,,,,,,,,,
532559,001,2022-11-21_24h55.56.398,Info_measure_main_exp,2022.2.2,Win32,59.90893841,,,,,,,,,,,,,,,,,,masks/mask_003.jpg,,,,,,,,,,,,,,,,,,,,,,,,,,,,,,,,,,,,,,,,,,,,,,,,0,3,3,2,1,,,,,,,,,,,,,,,,,,,,,,,,,,,,,,,,,,,,,,,,,
532559,001,2022-11-21_24h55.56.398,Info_measure_main_exp,2022.2.2,Win32,59.90893841,,,,,,,,,,,,,,,,,,masks/mask_004.jpg,,,,,,,,,,,,,,,,,,,,,,,,,,,,,,,,,,,,,,,,,,,,,,,,0,4,4,3,1,,,,,,,,,,,,,,,,,,,,,,,,,,,,,,,,,,,,,,,,,
532559,001,2022-11-21_24h55.56.398,Info_measure_main_exp,2022.2.2,Win32,59.90893841,,,,,,,,,,,,,,,,,,,,,,,,,,,,,,6,1.3995,1,,,,,,,,,,,,1,131,5,5,1,2166,present_patch/cong_131_5_a.jpg,absent_patch/patch0002166.jpg,,,,,,,,,,,,,,,,,,,,0.111979167,0.0625,1,0,0,response1disk,4,0.013020833,0.002604167,1,0,0,center_square,0,3,3,54,1,,,,,,,,,,,,,,,,,,,,,,,
532559,001,2022-11-21_24h55.56.398,Info_measure_main_exp,2022.2.2,Win32,59.90893841,,,,,,,,,,,,,,,,,,masks/mask_003.jpg,,,,,,,,,,,,,,,,,,,,,,,,,,,,,,,,,,,,,,,,,,,0,0,0,2,1,,,,,,,,,,,,,,,,,,,,,,,,,,,,,,,,,,,,,,,,,,,,,,
532559,001,2022-11-21_24h55.56.398,Info_measure_main_exp,2022.2.2,Win32,59.90893841,,,,,,,,,,,,,,,,,,masks/mask_005.jpg,,,,,,,,,,,,,,,,,,,,,,,,,,,,,,,,,,,,,,,,,,,0,1,1,4,1,,,,,,,,,,,,,,,,,,,,,,,,,,,,,,,,,,,,,,,,,,,,,,
532559,001,2022-11-21_24h55.56.398,Info_measure_main_exp,2022.2.2,Win32,59.90893841,,,,,,,,,,,,,,,,,,masks/mask_002.jpg,,,,,,,,,,,,,,,,,,,,,,,,,,,,,,,,,,,,,,,,,,,0,2,2,1,1,,,,,,,,,,,,,,,,,,,,,,,,,,,,,,,,,,,,,,,,,,,,,,
532559,001,2022-11-21_24h55.56.398,Info_measure_main_exp,2022.2.2,Win32,59.90893841,,,,,,,,,,,,,,,,,,masks/mask_004.jpg,,,,,,,,,,,,,,,,,,,,,,,,,,,,,,,,,,,,,,,,,,,0,3,3,3,1,,,,,,,,,,,,,,,,,,,,,,,,,,,,,,,,,,,,,,,,,,,,,,
532559,001,2022-11-21_24h55.56.398,Info_measure_main_exp,2022.2.2,Win32,59.90893841,,,,,,,,,,,,,,,,,,masks/mask_001.jpg,,,,,,,,,,,,,,,,,,,,,,,,,,,,,,,,,,,,,,,,,,,0,4,4,0,1,,,,,,,,,,,,,,,,,,,,,,,,,,,,,,,,,,,,,,,,,,,,,,
532559,001,2022-11-21_24h55.56.398,Info_measure_main_exp,2022.2.2,Win32,59.90893841,,,,,,,,,,,,,,,,,,masks/mask_001.jpg,,,,,,,,,,,,,,,,,,,,,,,,,,,,,,,,,,,,,,,,,,,,,,,,0,0,0,0,1,,,,,,,,,,,,,,,,,,,,,,,,,,,,,,,,,,,,,,,,,
532559,001,2022-11-21_24h55.56.398,Info_measure_main_exp,2022.2.2,Win32,59.90893841,,,,,,,,,,,,,,,,,,masks/mask_003.jpg,,,,,,,,,,,,,,,,,,,,,,,,,,,,,,,,,,,,,,,,,,,,,,,,0,1,1,2,1,,,,,,,,,,,,,,,,,,,,,,,,,,,,,,,,,,,,,,,,,
532559,001,2022-11-21_24h55.56.398,Info_measure_main_exp,2022.2.2,Win32,59.90893841,,,,,,,,,,,,,,,,,,masks/mask_005.jpg,,,,,,,,,,,,,,,,,,,,,,,,,,,,,,,,,,,,,,,,,,,,,,,,0,2,2,4,1,,,,,,,,,,,,,,,,,,,,,,,,,,,,,,,,,,,,,,,,,
532559,001,2022-11-21_24h55.56.398,Info_measure_main_exp,2022.2.2,Win32,59.90893841,,,,,,,,,,,,,,,,,,masks/mask_002.jpg,,,,,,,,,,,,,,,,,,,,,,,,,,,,,,,,,,,,,,,,,,,,,,,,0,3,3,1,1,,,,,,,,,,,,,,,,,,,,,,,,,,,,,,,,,,,,,,,,,
532559,001,2022-11-21_24h55.56.398,Info_measure_main_exp,2022.2.2,Win32,59.90893841,,,,,,,,,,,,,,,,,,masks/mask_004.jpg,,,,,,,,,,,,,,,,,,,,,,,,,,,,,,,,,,,,,,,,,,,,,,,,0,4,4,3,1,,,,,,,,,,,,,,,,,,,,,,,,,,,,,,,,,,,,,,,,,
532559,001,2022-11-21_24h55.56.398,Info_measure_main_exp,2022.2.2,Win32,59.90893841,,,,,,,,,,,,,,,,,,,,,,,,,,,,,,6,1.7823,1,,,,,,,,,,,,0,131,5,5,2154,2298,absent_patch/patch0002154.jpg,absent_patch/patch0002298.jpg,,,,,,,,,,,,,,,,,,,,0.100260417,0.024739583,1,0,0,response1disk,5,0.005208333,0.002604167,1,0,0,center_square,0,4,4,27,1,,,,,,,,,,,,,,,,,,,,,,,
532559,001,2022-11-21_24h55.56.398,Info_measure_main_exp,2022.2.2,Win32,59.90893841,,,,,,,,,,,,,,,,,,masks/mask_002.jpg,,,,,,,,,,,,,,,,,,,,,,,,,,,,,,,,,,,,,,,,,,,0,0,0,1,1,,,,,,,,,,,,,,,,,,,,,,,,,,,,,,,,,,,,,,,,,,,,,,
532559,001,2022-11-21_24h55.56.398,Info_measure_main_exp,2022.2.2,Win32,59.90893841,,,,,,,,,,,,,,,,,,masks/mask_003.jpg,,,,,,,,,,,,,,,,,,,,,,,,,,,,,,,,,,,,,,,,,,,0,1,1,2,1,,,,,,,,,,,,,,,,,,,,,,,,,,,,,,,,,,,,,,,,,,,,,,
532559,001,2022-11-21_24h55.56.398,Info_measure_main_exp,2022.2.2,Win32,59.90893841,,,,,,,,,,,,,,,,,,masks/mask_005.jpg,,,,,,,,,,,,,,,,,,,,,,,,,,,,,,,,,,,,,,,,,,,0,2,2,4,1,,,,,,,,,,,,,,,,,,,,,,,,,,,,,,,,,,,,,,,,,,,,,,
532559,001,2022-11-21_24h55.56.398,Info_measure_main_exp,2022.2.2,Win32,59.90893841,,,,,,,,,,,,,,,,,,masks/mask_001.jpg,,,,,,,,,,,,,,,,,,,,,,,,,,,,,,,,,,,,,,,,,,,0,3,3,0,1,,,,,,,,,,,,,,,,,,,,,,,,,,,,,,,,,,,,,,,,,,,,,,
532559,001,2022-11-21_24h55.56.398,Info_measure_main_exp,2022.2.2,Win32,59.90893841,,,,,,,,,,,,,,,,,,masks/mask_004.jpg,,,,,,,,,,,,,,,,,,,,,,,,,,,,,,,,,,,,,,,,,,,0,4,4,3,1,,,,,,,,,,,,,,,,,,,,,,,,,,,,,,,,,,,,,,,,,,,,,,
532559,001,2022-11-21_24h55.56.398,Info_measure_main_exp,2022.2.2,Win32,59.90893841,,,,,,,,,,,,,,,,,,masks/mask_005.jpg,,,,,,,,,,,,,,,,,,,,,,,,,,,,,,,,,,,,,,,,,,,,,,,,0,0,0,4,1,,,,,,,,,,,,,,,,,,,,,,,,,,,,,,,,,,,,,,,,,
532559,001,2022-11-21_24h55.56.398,Info_measure_main_exp,2022.2.2,Win32,59.90893841,,,,,,,,,,,,,,,,,,masks/mask_004.jpg,,,,,,,,,,,,,,,,,,,,,,,,,,,,,,,,,,,,,,,,,,,,,,,,0,1,1,3,1,,,,,,,,,,,,,,,,,,,,,,,,,,,,,,,,,,,,,,,,,
532559,001,2022-11-21_24h55.56.398,Info_measure_main_exp,2022.2.2,Win32,59.90893841,,,,,,,,,,,,,,,,,,masks/mask_001.jpg,,,,,,,,,,,,,,,,,,,,,,,,,,,,,,,,,,,,,,,,,,,,,,,,0,2,2,0,1,,,,,,,,,,,,,,,,,,,,,,,,,,,,,,,,,,,,,,,,,
532559,001,2022-11-21_24h55.56.398,Info_measure_main_exp,2022.2.2,Win32,59.90893841,,,,,,,,,,,,,,,,,,masks/mask_002.jpg,,,,,,,,,,,,,,,,,,,,,,,,,,,,,,,,,,,,,,,,,,,,,,,,0,3,3,1,1,,,,,,,,,,,,,,,,,,,,,,,,,,,,,,,,,,,,,,,,,
532559,001,2022-11-21_24h55.56.398,Info_measure_main_exp,2022.2.2,Win32,59.90893841,,,,,,,,,,,,,,,,,,masks/mask_003.jpg,,,,,,,,,,,,,,,,,,,,,,,,,,,,,,,,,,,,,,,,,,,,,,,,0,4,4,2,1,,,,,,,,,,,,,,,,,,,,,,,,,,,,,,,,,,,,,,,,,
532559,001,2022-11-21_24h55.56.398,Info_measure_main_exp,2022.2.2,Win32,59.90893841,,,,,,,,,,,,,,,,,,,,,,,,,,,,,,6,1.0664,1,,,,,,,,,,,,1,131,5,5,1950,1,absent_patch/patch0001950.jpg,present_patch/cong_131_5_a.jpg,,,,,,,,,,,,,,,,,,,,0.109375,0.024739583,1,0,0,response1disk,6,-0.001302083,0.006510417,1,0,0,center_square,0,5,5,39,1,,,,,,,,,,,,,,,,,,,,,,,
532559,001,2022-11-21_24h55.56.398,Info_measure_main_exp,2022.2.2,Win32,59.90893841,,,,,,,,,,,,,,,,,,masks/mask_001.jpg,,,,,,,,,,,,,,,,,,,,,,,,,,,,,,,,,,,,,,,,,,,0,0,0,0,1,,,,,,,,,,,,,,,,,,,,,,,,,,,,,,,,,,,,,,,,,,,,,,
532559,001,2022-11-21_24h55.56.398,Info_measure_main_exp,2022.2.2,Win32,59.90893841,,,,,,,,,,,,,,,,,,masks/mask_002.jpg,,,,,,,,,,,,,,,,,,,,,,,,,,,,,,,,,,,,,,,,,,,0,1,1,1,1,,,,,,,,,,,,,,,,,,,,,,,,,,,,,,,,,,,,,,,,,,,,,,
532559,001,2022-11-21_24h55.56.398,Info_measure_main_exp,2022.2.2,Win32,59.90893841,,,,,,,,,,,,,,,,,,masks/mask_004.jpg,,,,,,,,,,,,,,,,,,,,,,,,,,,,,,,,,,,,,,,,,,,0,2,2,3,1,,,,,,,,,,,,,,,,,,,,,,,,,,,,,,,,,,,,,,,,,,,,,,
532559,001,2022-11-21_24h55.56.398,Info_measure_main_exp,2022.2.2,Win32,59.90893841,,,,,,,,,,,,,,,,,,masks/mask_003.jpg,,,,,,,,,,,,,,,,,,,,,,,,,,,,,,,,,,,,,,,,,,,0,3,3,2,1,,,,,,,,,,,,,,,,,,,,,,,,,,,,,,,,,,,,,,,,,,,,,,
532559,001,2022-11-21_24h55.56.398,Info_measure_main_exp,2022.2.2,Win32,59.90893841,,,,,,,,,,,,,,,,,,masks/mask_005.jpg,,,,,,,,,,,,,,,,,,,,,,,,,,,,,,,,,,,,,,,,,,,0,4,4,4,1,,,,,,,,,,,,,,,,,,,,,,,,,,,,,,,,,,,,,,,,,,,,,,
532559,001,2022-11-21_24h55.56.398,Info_measure_main_exp,2022.2.2,Win32,59.90893841,,,,,,,,,,,,,,,,,,masks/mask_001.jpg,,,,,,,,,,,,,,,,,,,,,,,,,,,,,,,,,,,,,,,,,,,,,,,,0,0,0,0,1,,,,,,,,,,,,,,,,,,,,,,,,,,,,,,,,,,,,,,,,,
532559,001,2022-11-21_24h55.56.398,Info_measure_main_exp,2022.2.2,Win32,59.90893841,,,,,,,,,,,,,,,,,,masks/mask_005.jpg,,,,,,,,,,,,,,,,,,,,,,,,,,,,,,,,,,,,,,,,,,,,,,,,0,1,1,4,1,,,,,,,,,,,,,,,,,,,,,,,,,,,,,,,,,,,,,,,,,
532559,001,2022-11-21_24h55.56.398,Info_measure_main_exp,2022.2.2,Win32,59.90893841,,,,,,,,,,,,,,,,,,masks/mask_003.jpg,,,,,,,,,,,,,,,,,,,,,,,,,,,,,,,,,,,,,,,,,,,,,,,,0,2,2,2,1,,,,,,,,,,,,,,,,,,,,,,,,,,,,,,,,,,,,,,,,,
532559,001,2022-11-21_24h55.56.398,Info_measure_main_exp,2022.2.2,Win32,59.90893841,,,,,,,,,,,,,,,,,,masks/mask_004.jpg,,,,,,,,,,,,,,,,,,,,,,,,,,,,,,,,,,,,,,,,,,,,,,,,0,3,3,3,1,,,,,,,,,,,,,,,,,,,,,,,,,,,,,,,,,,,,,,,,,
532559,001,2022-11-21_24h55.56.398,Info_measure_main_exp,2022.2.2,Win32,59.90893841,,,,,,,,,,,,,,,,,,masks/mask_002.jpg,,,,,,,,,,,,,,,,,,,,,,,,,,,,,,,,,,,,,,,,,,,,,,,,0,4,4,1,1,,,,,,,,,,,,,,,,,,,,,,,,,,,,,,,,,,,,,,,,,
532559,001,2022-11-21_24h55.56.398,Info_measure_main_exp,2022.2.2,Win32,59.90893841,,,,,,,,,,,,,,,,,,,,,,,,,,,,,,5,1.9996,1,,,,,,,,,,,,0,131,5,5,2082,1974,absent_patch/patch0002082.jpg,absent_patch/patch0001974.jpg,,,,,,,,,,,,,,,,,,,,0.104166667,-0.045572917,1,0,0,response3disk,7,0.009114583,0.001302083,1,0,0,center_square,0,6,6,26,1,,,,,,,,,,,,,,,,,,,,,,,
532559,001,2022-11-21_24h55.56.398,Info_measure_main_exp,2022.2.2,Win32,59.90893841,,,,,,,,,,,,,,,,,,masks/mask_001.jpg,,,,,,,,,,,,,,,,,,,,,,,,,,,,,,,,,,,,,,,,,,,0,0,0,0,1,,,,,,,,,,,,,,,,,,,,,,,,,,,,,,,,,,,,,,,,,,,,,,
532559,001,2022-11-21_24h55.56.398,Info_measure_main_exp,2022.2.2,Win32,59.90893841,,,,,,,,,,,,,,,,,,masks/mask_004.jpg,,,,,,,,,,,,,,,,,,,,,,,,,,,,,,,,,,,,,,,,,,,0,1,1,3,1,,,,,,,,,,,,,,,,,,,,,,,,,,,,,,,,,,,,,,,,,,,,,,
532559,001,2022-11-21_24h55.56.398,Info_measure_main_exp,2022.2.2,Win32,59.90893841,,,,,,,,,,,,,,,,,,masks/mask_002.jpg,,,,,,,,,,,,,,,,,,,,,,,,,,,,,,,,,,,,,,,,,,,0,2,2,1,1,,,,,,,,,,,,,,,,,,,,,,,,,,,,,,,,,,,,,,,,,,,,,,
532559,001,2022-11-21_24h55.56.398,Info_measure_main_exp,2022.2.2,Win32,59.90893841,,,,,,,,,,,,,,,,,,masks/mask_003.jpg,,,,,,,,,,,,,,,,,,,,,,,,,,,,,,,,,,,,,,,,,,,0,3,3,2,1,,,,,,,,,,,,,,,,,,,,,,,,,,,,,,,,,,,,,,,,,,,,,,
532559,001,2022-11-21_24h55.56.398,Info_measure_main_exp,2022.2.2,Win32,59.90893841,,,,,,,,,,,,,,,,,,masks/mask_005.jpg,,,,,,,,,,,,,,,,,,,,,,,,,,,,,,,,,,,,,,,,,,,0,4,4,4,1,,,,,,,,,,,,,,,,,,,,,,,,,,,,,,,,,,,,,,,,,,,,,,
532559,001,2022-11-21_24h55.56.398,Info_measure_main_exp,2022.2.2,Win32,59.90893841,,,,,,,,,,,,,,,,,,masks/mask_003.jpg,,,,,,,,,,,,,,,,,,,,,,,,,,,,,,,,,,,,,,,,,,,,,,,,0,0,0,2,1,,,,,,,,,,,,,,,,,,,,,,,,,,,,,,,,,,,,,,,,,
532559,001,2022-11-21_24h55.56.398,Info_measure_main_exp,2022.2.2,Win32,59.90893841,,,,,,,,,,,,,,,,,,masks/mask_005.jpg,,,,,,,,,,,,,,,,,,,,,,,,,,,,,,,,,,,,,,,,,,,,,,,,0,1,1,4,1,,,,,,,,,,,,,,,,,,,,,,,,,,,,,,,,,,,,,,,,,
532559,001,2022-11-21_24h55.56.398,Info_measure_main_exp,2022.2.2,Win32,59.90893841,,,,,,,,,,,,,,,,,,masks/mask_001.jpg,,,,,,,,,,,,,,,,,,,,,,,,,,,,,,,,,,,,,,,,,,,,,,,,0,2,2,0,1,,,,,,,,,,,,,,,,,,,,,,,,,,,,,,,,,,,,,,,,,
532559,001,2022-11-21_24h55.56.398,Info_measure_main_exp,2022.2.2,Win32,59.90893841,,,,,,,,,,,,,,,,,,masks/mask_002.jpg,,,,,,,,,,,,,,,,,,,,,,,,,,,,,,,,,,,,,,,,,,,,,,,,0,3,3,1,1,,,,,,,,,,,,,,,,,,,,,,,,,,,,,,,,,,,,,,,,,
532559,001,2022-11-21_24h55.56.398,Info_measure_main_exp,2022.2.2,Win32,59.90893841,,,,,,,,,,,,,,,,,,masks/mask_004.jpg,,,,,,,,,,,,,,,,,,,,,,,,,,,,,,,,,,,,,,,,,,,,,,,,0,4,4,3,1,,,,,,,,,,,,,,,,,,,,,,,,,,,,,,,,,,,,,,,,,
532559,001,2022-11-21_24h55.56.398,Info_measure_main_exp,2022.2.2,Win32,59.90893841,,,,,,,,,,,,,,,,,,,,,,,,,,,,,,5,1.4828,1,,,,,,,,,,,,0,131,5,5,2298,1986,absent_patch/patch0002298.jpg,absent_patch/patch0001986.jpg,,,,,,,,,,,,,,,,,,,,0.10546875,-0.033854167,1,0,0,response3disk,8,0.005208333,0.00390625,1,0,0,center_square,0,7,7,32,1,,,,,,,,,,,,,,,,,,,,,,,
532559,001,2022-11-21_24h55.56.398,Info_measure_main_exp,2022.2.2,Win32,59.90893841,,,,,,,,,,,,,,,,,,masks/mask_002.jpg,,,,,,,,,,,,,,,,,,,,,,,,,,,,,,,,,,,,,,,,,,,0,0,0,1,1,,,,,,,,,,,,,,,,,,,,,,,,,,,,,,,,,,,,,,,,,,,,,,
532559,001,2022-11-21_24h55.56.398,Info_measure_main_exp,2022.2.2,Win32,59.90893841,,,,,,,,,,,,,,,,,,masks/mask_001.jpg,,,,,,,,,,,,,,,,,,,,,,,,,,,,,,,,,,,,,,,,,,,0,1,1,0,1,,,,,,,,,,,,,,,,,,,,,,,,,,,,,,,,,,,,,,,,,,,,,,
532559,001,2022-11-21_24h55.56.398,Info_measure_main_exp,2022.2.2,Win32,59.90893841,,,,,,,,,,,,,,,,,,masks/mask_003.jpg,,,,,,,,,,,,,,,,,,,,,,,,,,,,,,,,,,,,,,,,,,,0,2,2,2,1,,,,,,,,,,,,,,,,,,,,,,,,,,,,,,,,,,,,,,,,,,,,,,
532559,001,2022-11-21_24h55.56.398,Info_measure_main_exp,2022.2.2,Win32,59.90893841,,,,,,,,,,,,,,,,,,masks/mask_005.jpg,,,,,,,,,,,,,,,,,,,,,,,,,,,,,,,,,,,,,,,,,,,0,3,3,4,1,,,,,,,,,,,,,,,,,,,,,,,,,,,,,,,,,,,,,,,,,,,,,,
532559,001,2022-11-21_24h55.56.398,Info_measure_main_exp,2022.2.2,Win32,59.90893841,,,,,,,,,,,,,,,,,,masks/mask_004.jpg,,,,,,,,,,,,,,,,,,,,,,,,,,,,,,,,,,,,,,,,,,,0,4,4,3,1,,,,,,,,,,,,,,,,,,,,,,,,,,,,,,,,,,,,,,,,,,,,,,
532559,001,2022-11-21_24h55.56.398,Info_measure_main_exp,2022.2.2,Win32,59.90893841,,,,,,,,,,,,,,,,,,masks/mask_001.jpg,,,,,,,,,,,,,,,,,,,,,,,,,,,,,,,,,,,,,,,,,,,,,,,,0,0,0,0,1,,,,,,,,,,,,,,,,,,,,,,,,,,,,,,,,,,,,,,,,,
532559,001,2022-11-21_24h55.56.398,Info_measure_main_exp,2022.2.2,Win32,59.90893841,,,,,,,,,,,,,,,,,,masks/mask_002.jpg,,,,,,,,,,,,,,,,,,,,,,,,,,,,,,,,,,,,,,,,,,,,,,,,0,1,1,1,1,,,,,,,,,,,,,,,,,,,,,,,,,,,,,,,,,,,,,,,,,
532559,001,2022-11-21_24h55.56.398,Info_measure_main_exp,2022.2.2,Win32,59.90893841,,,,,,,,,,,,,,,,,,masks/mask_004.jpg,,,,,,,,,,,,,,,,,,,,,,,,,,,,,,,,,,,,,,,,,,,,,,,,0,2,2,3,1,,,,,,,,,,,,,,,,,,,,,,,,,,,,,,,,,,,,,,,,,
532559,001,2022-11-21_24h55.56.398,Info_measure_main_exp,2022.2.2,Win32,59.90893841,,,,,,,,,,,,,,,,,,masks/mask_003.jpg,,,,,,,,,,,,,,,,,,,,,,,,,,,,,,,,,,,,,,,,,,,,,,,,0,3,3,2,1,,,,,,,,,,,,,,,,,,,,,,,,,,,,,,,,,,,,,,,,,
532559,001,2022-11-21_24h55.56.398,Info_measure_main_exp,2022.2.2,Win32,59.90893841,,,,,,,,,,,,,,,,,,masks/mask_005.jpg,,,,,,,,,,,,,,,,,,,,,,,,,,,,,,,,,,,,,,,,,,,,,,,,0,4,4,4,1,,,,,,,,,,,,,,,,,,,,,,,,,,,,,,,,,,,,,,,,,
532559,001,2022-11-21_24h55.56.398,Info_measure_main_exp,2022.2.2,Win32,59.90893841,,,,,,,,,,,,,,,,,,,,,,,,,,,,,,6,1.8329,1,,,,,,,,,,,,0,131,5,5,2250,2142,absent_patch/patch0002250.jpg,absent_patch/patch0002142.jpg,,,,,,,,,,,,,,,,,,,,0.092447917,0.018229167,1,0,0,response1disk,9,0.014322917,-0.001302083,1,0,0,center_square,0,8,8,71,1,,,,,,,,,,,,,,,,,,,,,,,
532559,001,2022-11-21_24h55.56.398,Info_measure_main_exp,2022.2.2,Win32,59.90893841,,,,,,,,,,,,,,,,,,masks/mask_005.jpg,,,,,,,,,,,,,,,,,,,,,,,,,,,,,,,,,,,,,,,,,,,0,0,0,4,1,,,,,,,,,,,,,,,,,,,,,,,,,,,,,,,,,,,,,,,,,,,,,,
532559,001,2022-11-21_24h55.56.398,Info_measure_main_exp,2022.2.2,Win32,59.90893841,,,,,,,,,,,,,,,,,,masks/mask_004.jpg,,,,,,,,,,,,,,,,,,,,,,,,,,,,,,,,,,,,,,,,,,,0,1,1,3,1,,,,,,,,,,,,,,,,,,,,,,,,,,,,,,,,,,,,,,,,,,,,,,
532559,001,2022-11-21_24h55.56.398,Info_measure_main_exp,2022.2.2,Win32,59.90893841,,,,,,,,,,,,,,,,,,masks/mask_001.jpg,,,,,,,,,,,,,,,,,,,,,,,,,,,,,,,,,,,,,,,,,,,0,2,2,0,1,,,,,,,,,,,,,,,,,,,,,,,,,,,,,,,,,,,,,,,,,,,,,,
532559,001,2022-11-21_24h55.56.398,Info_measure_main_exp,2022.2.2,Win32,59.90893841,,,,,,,,,,,,,,,,,,masks/mask_002.jpg,,,,,,,,,,,,,,,,,,,,,,,,,,,,,,,,,,,,,,,,,,,0,3,3,1,1,,,,,,,,,,,,,,,,,,,,,,,,,,,,,,,,,,,,,,,,,,,,,,
532559,001,2022-11-21_24h55.56.398,Info_measure_main_exp,2022.2.2,Win32,59.90893841,,,,,,,,,,,,,,,,,,masks/mask_003.jpg,,,,,,,,,,,,,,,,,,,,,,,,,,,,,,,,,,,,,,,,,,,0,4,4,2,1,,,,,,,,,,,,,,,,,,,,,,,,,,,,,,,,,,,,,,,,,,,,,,
532559,001,2022-11-21_24h55.56.398,Info_measure_main_exp,2022.2.2,Win32,59.90893841,,,,,,,,,,,,,,,,,,masks/mask_005.jpg,,,,,,,,,,,,,,,,,,,,,,,,,,,,,,,,,,,,,,,,,,,,,,,,0,0,0,4,1,,,,,,,,,,,,,,,,,,,,,,,,,,,,,,,,,,,,,,,,,
532559,001,2022-11-21_24h55.56.398,Info_measure_main_exp,2022.2.2,Win32,59.90893841,,,,,,,,,,,,,,,,,,masks/mask_004.jpg,,,,,,,,,,,,,,,,,,,,,,,,,,,,,,,,,,,,,,,,,,,,,,,,0,1,1,3,1,,,,,,,,,,,,,,,,,,,,,,,,,,,,,,,,,,,,,,,,,
532559,001,2022-11-21_24h55.56.398,Info_measure_main_exp,2022.2.2,Win32,59.90893841,,,,,,,,,,,,,,,,,,masks/mask_003.jpg,,,,,,,,,,,,,,,,,,,,,,,,,,,,,,,,,,,,,,,,,,,,,,,,0,2,2,2,1,,,,,,,,,,,,,,,,,,,,,,,,,,,,,,,,,,,,,,,,,
532559,001,2022-11-21_24h55.56.398,Info_measure_main_exp,2022.2.2,Win32,59.90893841,,,,,,,,,,,,,,,,,,masks/mask_001.jpg,,,,,,,,,,,,,,,,,,,,,,,,,,,,,,,,,,,,,,,,,,,,,,,,0,3,3,0,1,,,,,,,,,,,,,,,,,,,,,,,,,,,,,,,,,,,,,,,,,
532559,001,2022-11-21_24h55.56.398,Info_measure_main_exp,2022.2.2,Win32,59.90893841,,,,,,,,,,,,,,,,,,masks/mask_002.jpg,,,,,,,,,,,,,,,,,,,,,,,,,,,,,,,,,,,,,,,,,,,,,,,,0,4,4,1,1,,,,,,,,,,,,,,,,,,,,,,,,,,,,,,,,,,,,,,,,,
532559,001,2022-11-21_24h55.56.398,Info_measure_main_exp,2022.2.2,Win32,59.90893841,,,,,,,,,,,,,,,,,,,,,,,,,,,,,,7,2.1661,1,,,,,,,,,,,,0,131,5,5,2142,2238,absent_patch/patch0002142.jpg,absent_patch/patch0002238.jpg,,,,,,,,,,,,,,,,,,,,0.0546875,0.079427083,1,0,0,response1disk,10,0.005208333,0.009114583,1,0,0,center_square,0,9,9,101,1,,,,,,,,,,,,,,,,,,,,,,,
532559,001,2022-11-21_24h55.56.398,Info_measure_main_exp,2022.2.2,Win32,59.90893841,,,,,,,,,,,,,,,,,,masks/mask_002.jpg,,,,,,,,,,,,,,,,,,,,,,,,,,,,,,,,,,,,,,,,,,,0,0,0,1,1,,,,,,,,,,,,,,,,,,,,,,,,,,,,,,,,,,,,,,,,,,,,,,
532559,001,2022-11-21_24h55.56.398,Info_measure_main_exp,2022.2.2,Win32,59.90893841,,,,,,,,,,,,,,,,,,masks/mask_003.jpg,,,,,,,,,,,,,,,,,,,,,,,,,,,,,,,,,,,,,,,,,,,0,1,1,2,1,,,,,,,,,,,,,,,,,,,,,,,,,,,,,,,,,,,,,,,,,,,,,,
532559,001,2022-11-21_24h55.56.398,Info_measure_main_exp,2022.2.2,Win32,59.90893841,,,,,,,,,,,,,,,,,,masks/mask_001.jpg,,,,,,,,,,,,,,,,,,,,,,,,,,,,,,,,,,,,,,,,,,,0,2,2,0,1,,,,,,,,,,,,,,,,,,,,,,,,,,,,,,,,,,,,,,,,,,,,,,
532559,001,2022-11-21_24h55.56.398,Info_measure_main_exp,2022.2.2,Win32,59.90893841,,,,,,,,,,,,,,,,,,masks/mask_004.jpg,,,,,,,,,,,,,,,,,,,,,,,,,,,,,,,,,,,,,,,,,,,0,3,3,3,1,,,,,,,,,,,,,,,,,,,,,,,,,,,,,,,,,,,,,,,,,,,,,,
532559,001,2022-11-21_24h55.56.398,Info_measure_main_exp,2022.2.2,Win32,59.90893841,,,,,,,,,,,,,,,,,,masks/mask_005.jpg,,,,,,,,,,,,,,,,,,,,,,,,,,,,,,,,,,,,,,,,,,,0,4,4,4,1,,,,,,,,,,,,,,,,,,,,,,,,,,,,,,,,,,,,,,,,,,,,,,
532559,001,2022-11-21_24h55.56.398,Info_measure_main_exp,2022.2.2,Win32,59.90893841,,,,,,,,,,,,,,,,,,masks/mask_001.jpg,,,,,,,,,,,,,,,,,,,,,,,,,,,,,,,,,,,,,,,,,,,,,,,,0,0,0,0,1,,,,,,,,,,,,,,,,,,,,,,,,,,,,,,,,,,,,,,,,,
532559,001,2022-11-21_24h55.56.398,Info_measure_main_exp,2022.2.2,Win32,59.90893841,,,,,,,,,,,,,,,,,,masks/mask_003.jpg,,,,,,,,,,,,,,,,,,,,,,,,,,,,,,,,,,,,,,,,,,,,,,,,0,1,1,2,1,,,,,,,,,,,,,,,,,,,,,,,,,,,,,,,,,,,,,,,,,
532559,001,2022-11-21_24h55.56.398,Info_measure_main_exp,2022.2.2,Win32,59.90893841,,,,,,,,,,,,,,,,,,masks/mask_004.jpg,,,,,,,,,,,,,,,,,,,,,,,,,,,,,,,,,,,,,,,,,,,,,,,,0,2,2,3,1,,,,,,,,,,,,,,,,,,,,,,,,,,,,,,,,,,,,,,,,,
532559,001,2022-11-21_24h55.56.398,Info_measure_main_exp,2022.2.2,Win32,59.90893841,,,,,,,,,,,,,,,,,,masks/mask_002.jpg,,,,,,,,,,,,,,,,,,,,,,,,,,,,,,,,,,,,,,,,,,,,,,,,0,3,3,1,1,,,,,,,,,,,,,,,,,,,,,,,,,,,,,,,,,,,,,,,,,
532559,001,2022-11-21_24h55.56.398,Info_measure_main_exp,2022.2.2,Win32,59.90893841,,,,,,,,,,,,,,,,,,masks/mask_005.jpg,,,,,,,,,,,,,,,,,,,,,,,,,,,,,,,,,,,,,,,,,,,,,,,,0,4,4,4,1,,,,,,,,,,,,,,,,,,,,,,,,,,,,,,,,,,,,,,,,,
532559,001,2022-11-21_24h55.56.398,Info_measure_main_exp,2022.2.2,Win32,59.90893841,,,,,,,,,,,,,,,,,,,,,,,,,,,,,,5,1.2664,1,,,,,,,,,,,,0,131,5,5,2190,2166,absent_patch/patch0002190.jpg,absent_patch/patch0002166.jpg,,,,,,,,,,,,,,,,,,,,0.1171875,-0.020833333,1,0,0,response3disk,11,-0.01171875,0.01171875,1,0,0,center_square,0,10,10,50,1,,,,,,,,,,,,,,,,,,,,,,,
532559,001,2022-11-21_24h55.56.398,Info_measure_main_exp,2022.2.2,Win32,59.90893841,,,,,,,,,,,,,,,,,,masks/mask_004.jpg,,,,,,,,,,,,,,,,,,,,,,,,,,,,,,,,,,,,,,,,,,,0,0,0,3,1,,,,,,,,,,,,,,,,,,,,,,,,,,,,,,,,,,,,,,,,,,,,,,
532559,001,2022-11-21_24h55.56.398,Info_measure_main_exp,2022.2.2,Win32,59.90893841,,,,,,,,,,,,,,,,,,masks/mask_002.jpg,,,,,,,,,,,,,,,,,,,,,,,,,,,,,,,,,,,,,,,,,,,0,1,1,1,1,,,,,,,,,,,,,,,,,,,,,,,,,,,,,,,,,,,,,,,,,,,,,,
532559,001,2022-11-21_24h55.56.398,Info_measure_main_exp,2022.2.2,Win32,59.90893841,,,,,,,,,,,,,,,,,,masks/mask_005.jpg,,,,,,,,,,,,,,,,,,,,,,,,,,,,,,,,,,,,,,,,,,,0,2,2,4,1,,,,,,,,,,,,,,,,,,,,,,,,,,,,,,,,,,,,,,,,,,,,,,
532559,001,2022-11-21_24h55.56.398,Info_measure_main_exp,2022.2.2,Win32,59.90893841,,,,,,,,,,,,,,,,,,masks/mask_001.jpg,,,,,,,,,,,,,,,,,,,,,,,,,,,,,,,,,,,,,,,,,,,0,3,3,0,1,,,,,,,,,,,,,,,,,,,,,,,,,,,,,,,,,,,,,,,,,,,,,,
532559,001,2022-11-21_24h55.56.398,Info_measure_main_exp,2022.2.2,Win32,59.90893841,,,,,,,,,,,,,,,,,,masks/mask_003.jpg,,,,,,,,,,,,,,,,,,,,,,,,,,,,,,,,,,,,,,,,,,,0,4,4,2,1,,,,,,,,,,,,,,,,,,,,,,,,,,,,,,,,,,,,,,,,,,,,,,
532559,001,2022-11-21_24h55.56.398,Info_measure_main_exp,2022.2.2,Win32,59.90893841,,,,,,,,,,,,,,,,,,masks/mask_003.jpg,,,,,,,,,,,,,,,,,,,,,,,,,,,,,,,,,,,,,,,,,,,,,,,,0,0,0,2,1,,,,,,,,,,,,,,,,,,,,,,,,,,,,,,,,,,,,,,,,,
532559,001,2022-11-21_24h55.56.398,Info_measure_main_exp,2022.2.2,Win32,59.90893841,,,,,,,,,,,,,,,,,,masks/mask_004.jpg,,,,,,,,,,,,,,,,,,,,,,,,,,,,,,,,,,,,,,,,,,,,,,,,0,1,1,3,1,,,,,,,,,,,,,,,,,,,,,,,,,,,,,,,,,,,,,,,,,
532559,001,2022-11-21_24h55.56.398,Info_measure_main_exp,2022.2.2,Win32,59.90893841,,,,,,,,,,,,,,,,,,masks/mask_001.jpg,,,,,,,,,,,,,,,,,,,,,,,,,,,,,,,,,,,,,,,,,,,,,,,,0,2,2,0,1,,,,,,,,,,,,,,,,,,,,,,,,,,,,,,,,,,,,,,,,,
532559,001,2022-11-21_24h55.56.398,Info_measure_main_exp,2022.2.2,Win32,59.90893841,,,,,,,,,,,,,,,,,,masks/mask_002.jpg,,,,,,,,,,,,,,,,,,,,,,,,,,,,,,,,,,,,,,,,,,,,,,,,0,3,3,1,1,,,,,,,,,,,,,,,,,,,,,,,,,,,,,,,,,,,,,,,,,
532559,001,2022-11-21_24h55.56.398,Info_measure_main_exp,2022.2.2,Win32,59.90893841,,,,,,,,,,,,,,,,,,masks/mask_005.jpg,,,,,,,,,,,,,,,,,,,,,,,,,,,,,,,,,,,,,,,,,,,,,,,,0,4,4,4,1,,,,,,,,,,,,,,,,,,,,,,,,,,,,,,,,,,,,,,,,,
532559,001,2022-11-21_24h55.56.398,Info_measure_main_exp,2022.2.2,Win32,59.90893841,,,,,,,,,,,,,,,,,,,,,,,,,,,,,,5,1.7495,1,,,,,,,,,,,,1,131,5,5,2238,1,absent_patch/patch0002238.jpg,present_patch/cong_131_5_a.jpg,,,,,,,,,,,,,,,,,,,,0.098958333,-0.020833333,1,0,0,response3disk,12,0.002604167,0.005208333,1,0,0,center_square,0,11,11,104,1,,,,,,,,,,,,,,,,,,,,,,,
532559,001,2022-11-21_24h55.56.398,Info_measure_main_exp,2022.2.2,Win32,59.90893841,,,,,,,,,,,,,,,,,,masks/mask_004.jpg,,,,,,,,,,,,,,,,,,,,,,,,,,,,,,,,,,,,,,,,,,,0,0,0,3,1,,,,,,,,,,,,,,,,,,,,,,,,,,,,,,,,,,,,,,,,,,,,,,
532559,001,2022-11-21_24h55.56.398,Info_measure_main_exp,2022.2.2,Win32,59.90893841,,,,,,,,,,,,,,,,,,masks/mask_003.jpg,,,,,,,,,,,,,,,,,,,,,,,,,,,,,,,,,,,,,,,,,,,0,1,1,2,1,,,,,,,,,,,,,,,,,,,,,,,,,,,,,,,,,,,,,,,,,,,,,,
532559,001,2022-11-21_24h55.56.398,Info_measure_main_exp,2022.2.2,Win32,59.90893841,,,,,,,,,,,,,,,,,,masks/mask_005.jpg,,,,,,,,,,,,,,,,,,,,,,,,,,,,,,,,,,,,,,,,,,,0,2,2,4,1,,,,,,,,,,,,,,,,,,,,,,,,,,,,,,,,,,,,,,,,,,,,,,
532559,001,2022-11-21_24h55.56.398,Info_measure_main_exp,2022.2.2,Win32,59.90893841,,,,,,,,,,,,,,,,,,masks/mask_001.jpg,,,,,,,,,,,,,,,,,,,,,,,,,,,,,,,,,,,,,,,,,,,0,3,3,0,1,,,,,,,,,,,,,,,,,,,,,,,,,,,,,,,,,,,,,,,,,,,,,,
532559,001,2022-11-21_24h55.56.398,Info_measure_main_exp,2022.2.2,Win32,59.90893841,,,,,,,,,,,,,,,,,,masks/mask_002.jpg,,,,,,,,,,,,,,,,,,,,,,,,,,,,,,,,,,,,,,,,,,,0,4,4,1,1,,,,,,,,,,,,,,,,,,,,,,,,,,,,,,,,,,,,,,,,,,,,,,
532559,001,2022-11-21_24h55.56.398,Info_measure_main_exp,2022.2.2,Win32,59.90893841,,,,,,,,,,,,,,,,,,masks/mask_003.jpg,,,,,,,,,,,,,,,,,,,,,,,,,,,,,,,,,,,,,,,,,,,,,,,,0,0,0,2,1,,,,,,,,,,,,,,,,,,,,,,,,,,,,,,,,,,,,,,,,,
532559,001,2022-11-21_24h55.56.398,Info_measure_main_exp,2022.2.2,Win32,59.90893841,,,,,,,,,,,,,,,,,,masks/mask_004.jpg,,,,,,,,,,,,,,,,,,,,,,,,,,,,,,,,,,,,,,,,,,,,,,,,0,1,1,3,1,,,,,,,,,,,,,,,,,,,,,,,,,,,,,,,,,,,,,,,,,
532559,001,2022-11-21_24h55.56.398,Info_measure_main_exp,2022.2.2,Win32,59.90893841,,,,,,,,,,,,,,,,,,masks/mask_002.jpg,,,,,,,,,,,,,,,,,,,,,,,,,,,,,,,,,,,,,,,,,,,,,,,,0,2,2,1,1,,,,,,,,,,,,,,,,,,,,,,,,,,,,,,,,,,,,,,,,,
532559,001,2022-11-21_24h55.56.398,Info_measure_main_exp,2022.2.2,Win32,59.90893841,,,,,,,,,,,,,,,,,,masks/mask_001.jpg,,,,,,,,,,,,,,,,,,,,,,,,,,,,,,,,,,,,,,,,,,,,,,,,0,3,3,0,1,,,,,,,,,,,,,,,,,,,,,,,,,,,,,,,,,,,,,,,,,
532559,001,2022-11-21_24h55.56.398,Info_measure_main_exp,2022.2.2,Win32,59.90893841,,,,,,,,,,,,,,,,,,masks/mask_005.jpg,,,,,,,,,,,,,,,,,,,,,,,,,,,,,,,,,,,,,,,,,,,,,,,,0,4,4,4,1,,,,,,,,,,,,,,,,,,,,,,,,,,,,,,,,,,,,,,,,,
532559,001,2022-11-21_24h55.56.398,Info_measure_main_exp,2022.2.2,Win32,59.90893841,,,,,,,,,,,,,,,,,,,,,,,,,,,,,,5,2.149,1,,,,,,,,,,,,0,131,5,5,2274,2166,absent_patch/patch0002274.jpg,absent_patch/patch0002166.jpg,,,,,,,,,,,,,,,,,,,,0.098958333,-0.040364583,1,0,0,response3disk,13,0.009114583,0.00390625,1,0,0,center_square,0,12,12,78,1,,,,,,,,,,,,,,,,,,,,,,,
532559,001,2022-11-21_24h55.56.398,Info_measure_main_exp,2022.2.2,Win32,59.90893841,,,,,,,,,,,,,,,,,,masks/mask_001.jpg,,,,,,,,,,,,,,,,,,,,,,,,,,,,,,,,,,,,,,,,,,,0,0,0,0,1,,,,,,,,,,,,,,,,,,,,,,,,,,,,,,,,,,,,,,,,,,,,,,
532559,001,2022-11-21_24h55.56.398,Info_measure_main_exp,2022.2.2,Win32,59.90893841,,,,,,,,,,,,,,,,,,masks/mask_003.jpg,,,,,,,,,,,,,,,,,,,,,,,,,,,,,,,,,,,,,,,,,,,0,1,1,2,1,,,,,,,,,,,,,,,,,,,,,,,,,,,,,,,,,,,,,,,,,,,,,,
532559,001,2022-11-21_24h55.56.398,Info_measure_main_exp,2022.2.2,Win32,59.90893841,,,,,,,,,,,,,,,,,,masks/mask_004.jpg,,,,,,,,,,,,,,,,,,,,,,,,,,,,,,,,,,,,,,,,,,,0,2,2,3,1,,,,,,,,,,,,,,,,,,,,,,,,,,,,,,,,,,,,,,,,,,,,,,
532559,001,2022-11-21_24h55.56.398,Info_measure_main_exp,2022.2.2,Win32,59.90893841,,,,,,,,,,,,,,,,,,masks/mask_005.jpg,,,,,,,,,,,,,,,,,,,,,,,,,,,,,,,,,,,,,,,,,,,0,3,3,4,1,,,,,,,,,,,,,,,,,,,,,,,,,,,,,,,,,,,,,,,,,,,,,,
532559,001,2022-11-21_24h55.56.398,Info_measure_main_exp,2022.2.2,Win32,59.90893841,,,,,,,,,,,,,,,,,,masks/mask_002.jpg,,,,,,,,,,,,,,,,,,,,,,,,,,,,,,,,,,,,,,,,,,,0,4,4,1,1,,,,,,,,,,,,,,,,,,,,,,,,,,,,,,,,,,,,,,,,,,,,,,
532559,001,2022-11-21_24h55.56.398,Info_measure_main_exp,2022.2.2,Win32,59.90893841,,,,,,,,,,,,,,,,,,masks/mask_002.jpg,,,,,,,,,,,,,,,,,,,,,,,,,,,,,,,,,,,,,,,,,,,,,,,,0,0,0,1,1,,,,,,,,,,,,,,,,,,,,,,,,,,,,,,,,,,,,,,,,,
532559,001,2022-11-21_24h55.56.398,Info_measure_main_exp,2022.2.2,Win32,59.90893841,,,,,,,,,,,,,,,,,,masks/mask_003.jpg,,,,,,,,,,,,,,,,,,,,,,,,,,,,,,,,,,,,,,,,,,,,,,,,0,1,1,2,1,,,,,,,,,,,,,,,,,,,,,,,,,,,,,,,,,,,,,,,,,
532559,001,2022-11-21_24h55.56.398,Info_measure_main_exp,2022.2.2,Win32,59.90893841,,,,,,,,,,,,,,,,,,masks/mask_005.jpg,,,,,,,,,,,,,,,,,,,,,,,,,,,,,,,,,,,,,,,,,,,,,,,,0,2,2,4,1,,,,,,,,,,,,,,,,,,,,,,,,,,,,,,,,,,,,,,,,,
532559,001,2022-11-21_24h55.56.398,Info_measure_main_exp,2022.2.2,Win32,59.90893841,,,,,,,,,,,,,,,,,,masks/mask_004.jpg,,,,,,,,,,,,,,,,,,,,,,,,,,,,,,,,,,,,,,,,,,,,,,,,0,3,3,3,1,,,,,,,,,,,,,,,,,,,,,,,,,,,,,,,,,,,,,,,,,
532559,001,2022-11-21_24h55.56.398,Info_measure_main_exp,2022.2.2,Win32,59.90893841,,,,,,,,,,,,,,,,,,masks/mask_001.jpg,,,,,,,,,,,,,,,,,,,,,,,,,,,,,,,,,,,,,,,,,,,,,,,,0,4,4,0,1,,,,,,,,,,,,,,,,,,,,,,,,,,,,,,,,,,,,,,,,,
532559,001,2022-11-21_24h55.56.398,Info_measure_main_exp,2022.2.2,Win32,59.90893841,,,,,,,,,,,,,,,,,,,,,,,,,,,,,,6,1.6161,1,,,,,,,,,,,,0,131,5,5,2154,2190,absent_patch/patch0002154.jpg,absent_patch/patch0002190.jpg,,,,,,,,,,,,,,,,,,,,0.091145833,0.040364583,1,0,0,response1disk,14,-0.010416667,-0.006510417,1,0,0,center_square,0,13,13,68,1,,,,,,,,,,,,,,,,,,,,,,,
532559,001,2022-11-21_24h55.56.398,Info_measure_main_exp,2022.2.2,Win32,59.90893841,,,,,,,,,,,,,,,,,,masks/mask_004.jpg,,,,,,,,,,,,,,,,,,,,,,,,,,,,,,,,,,,,,,,,,,,0,0,0,3,1,,,,,,,,,,,,,,,,,,,,,,,,,,,,,,,,,,,,,,,,,,,,,,
532559,001,2022-11-21_24h55.56.398,Info_measure_main_exp,2022.2.2,Win32,59.90893841,,,,,,,,,,,,,,,,,,masks/mask_001.jpg,,,,,,,,,,,,,,,,,,,,,,,,,,,,,,,,,,,,,,,,,,,0,1,1,0,1,,,,,,,,,,,,,,,,,,,,,,,,,,,,,,,,,,,,,,,,,,,,,,
532559,001,2022-11-21_24h55.56.398,Info_measure_main_exp,2022.2.2,Win32,59.90893841,,,,,,,,,,,,,,,,,,masks/mask_003.jpg,,,,,,,,,,,,,,,,,,,,,,,,,,,,,,,,,,,,,,,,,,,0,2,2,2,1,,,,,,,,,,,,,,,,,,,,,,,,,,,,,,,,,,,,,,,,,,,,,,
532559,001,2022-11-21_24h55.56.398,Info_measure_main_exp,2022.2.2,Win32,59.90893841,,,,,,,,,,,,,,,,,,masks/mask_002.jpg,,,,,,,,,,,,,,,,,,,,,,,,,,,,,,,,,,,,,,,,,,,0,3,3,1,1,,,,,,,,,,,,,,,,,,,,,,,,,,,,,,,,,,,,,,,,,,,,,,
532559,001,2022-11-21_24h55.56.398,Info_measure_main_exp,2022.2.2,Win32,59.90893841,,,,,,,,,,,,,,,,,,masks/mask_005.jpg,,,,,,,,,,,,,,,,,,,,,,,,,,,,,,,,,,,,,,,,,,,0,4,4,4,1,,,,,,,,,,,,,,,,,,,,,,,,,,,,,,,,,,,,,,,,,,,,,,
532559,001,2022-11-21_24h55.56.398,Info_measure_main_exp,2022.2.2,Win32,59.90893841,,,,,,,,,,,,,,,,,,masks/mask_005.jpg,,,,,,,,,,,,,,,,,,,,,,,,,,,,,,,,,,,,,,,,,,,,,,,,0,0,0,4,1,,,,,,,,,,,,,,,,,,,,,,,,,,,,,,,,,,,,,,,,,
532559,001,2022-11-21_24h55.56.398,Info_measure_main_exp,2022.2.2,Win32,59.90893841,,,,,,,,,,,,,,,,,,masks/mask_002.jpg,,,,,,,,,,,,,,,,,,,,,,,,,,,,,,,,,,,,,,,,,,,,,,,,0,1,1,1,1,,,,,,,,,,,,,,,,,,,,,,,,,,,,,,,,,,,,,,,,,
532559,001,2022-11-21_24h55.56.398,Info_measure_main_exp,2022.2.2,Win32,59.90893841,,,,,,,,,,,,,,,,,,masks/mask_003.jpg,,,,,,,,,,,,,,,,,,,,,,,,,,,,,,,,,,,,,,,,,,,,,,,,0,2,2,2,1,,,,,,,,,,,,,,,,,,,,,,,,,,,,,,,,,,,,,,,,,
532559,001,2022-11-21_24h55.56.398,Info_measure_main_exp,2022.2.2,Win32,59.90893841,,,,,,,,,,,,,,,,,,masks/mask_001.jpg,,,,,,,,,,,,,,,,,,,,,,,,,,,,,,,,,,,,,,,,,,,,,,,,0,3,3,0,1,,,,,,,,,,,,,,,,,,,,,,,,,,,,,,,,,,,,,,,,,
532559,001,2022-11-21_24h55.56.398,Info_measure_main_exp,2022.2.2,Win32,59.90893841,,,,,,,,,,,,,,,,,,masks/mask_004.jpg,,,,,,,,,,,,,,,,,,,,,,,,,,,,,,,,,,,,,,,,,,,,,,,,0,4,4,3,1,,,,,,,,,,,,,,,,,,,,,,,,,,,,,,,,,,,,,,,,,
532559,001,2022-11-21_24h55.56.398,Info_measure_main_exp,2022.2.2,Win32,59.90893841,,,,,,,,,,,,,,,,,,,,,,,,,,,,,,7,0.9827,1,,,,,,,,,,,,0,131,5,5,2298,2178,absent_patch/patch0002298.jpg,absent_patch/patch0002178.jpg,,,,,,,,,,,,,,,,,,,,0.044270833,0.06640625,1,0,0,response1disk,15,0.006510417,0.0078125,1,0,0,center_square,0,14,14,84,1,,,,,,,,,,,,,,,,,,,,,,,
532559,001,2022-11-21_24h55.56.398,Info_measure_main_exp,2022.2.2,Win32,59.90893841,,,,,,,,,,,,,,,,,,masks/mask_001.jpg,,,,,,,,,,,,,,,,,,,,,,,,,,,,,,,,,,,,,,,,,,,0,0,0,0,1,,,,,,,,,,,,,,,,,,,,,,,,,,,,,,,,,,,,,,,,,,,,,,
532559,001,2022-11-21_24h55.56.398,Info_measure_main_exp,2022.2.2,Win32,59.90893841,,,,,,,,,,,,,,,,,,masks/mask_002.jpg,,,,,,,,,,,,,,,,,,,,,,,,,,,,,,,,,,,,,,,,,,,0,1,1,1,1,,,,,,,,,,,,,,,,,,,,,,,,,,,,,,,,,,,,,,,,,,,,,,
532559,001,2022-11-21_24h55.56.398,Info_measure_main_exp,2022.2.2,Win32,59.90893841,,,,,,,,,,,,,,,,,,masks/mask_003.jpg,,,,,,,,,,,,,,,,,,,,,,,,,,,,,,,,,,,,,,,,,,,0,2,2,2,1,,,,,,,,,,,,,,,,,,,,,,,,,,,,,,,,,,,,,,,,,,,,,,
532559,001,2022-11-21_24h55.56.398,Info_measure_main_exp,2022.2.2,Win32,59.90893841,,,,,,,,,,,,,,,,,,masks/mask_004.jpg,,,,,,,,,,,,,,,,,,,,,,,,,,,,,,,,,,,,,,,,,,,0,3,3,3,1,,,,,,,,,,,,,,,,,,,,,,,,,,,,,,,,,,,,,,,,,,,,,,
532559,001,2022-11-21_24h55.56.398,Info_measure_main_exp,2022.2.2,Win32,59.90893841,,,,,,,,,,,,,,,,,,masks/mask_005.jpg,,,,,,,,,,,,,,,,,,,,,,,,,,,,,,,,,,,,,,,,,,,0,4,4,4,1,,,,,,,,,,,,,,,,,,,,,,,,,,,,,,,,,,,,,,,,,,,,,,
532559,001,2022-11-21_24h55.56.398,Info_measure_main_exp,2022.2.2,Win32,59.90893841,,,,,,,,,,,,,,,,,,masks/mask_003.jpg,,,,,,,,,,,,,,,,,,,,,,,,,,,,,,,,,,,,,,,,,,,,,,,,0,0,0,2,1,,,,,,,,,,,,,,,,,,,,,,,,,,,,,,,,,,,,,,,,,
532559,001,2022-11-21_24h55.56.398,Info_measure_main_exp,2022.2.2,Win32,59.90893841,,,,,,,,,,,,,,,,,,masks/mask_005.jpg,,,,,,,,,,,,,,,,,,,,,,,,,,,,,,,,,,,,,,,,,,,,,,,,0,1,1,4,1,,,,,,,,,,,,,,,,,,,,,,,,,,,,,,,,,,,,,,,,,
532559,001,2022-11-21_24h55.56.398,Info_measure_main_exp,2022.2.2,Win32,59.90893841,,,,,,,,,,,,,,,,,,masks/mask_002.jpg,,,,,,,,,,,,,,,,,,,,,,,,,,,,,,,,,,,,,,,,,,,,,,,,0,2,2,1,1,,,,,,,,,,,,,,,,,,,,,,,,,,,,,,,,,,,,,,,,,
532559,001,2022-11-21_24h55.56.398,Info_measure_main_exp,2022.2.2,Win32,59.90893841,,,,,,,,,,,,,,,,,,masks/mask_004.jpg,,,,,,,,,,,,,,,,,,,,,,,,,,,,,,,,,,,,,,,,,,,,,,,,0,3,3,3,1,,,,,,,,,,,,,,,,,,,,,,,,,,,,,,,,,,,,,,,,,
532559,001,2022-11-21_24h55.56.398,Info_measure_main_exp,2022.2.2,Win32,59.90893841,,,,,,,,,,,,,,,,,,masks/mask_001.jpg,,,,,,,,,,,,,,,,,,,,,,,,,,,,,,,,,,,,,,,,,,,,,,,,0,4,4,0,1,,,,,,,,,,,,,,,,,,,,,,,,,,,,,,,,,,,,,,,,,
532559,001,2022-11-21_24h55.56.398,Info_measure_main_exp,2022.2.2,Win32,59.90893841,,,,,,,,,,,,,,,,,,,,,,,,,,,,,,0,1.2323,1,,,,,,,,,,,,0,131,5,5,1950,1950,absent_patch/patch0001950.jpg,absent_patch/patch0001950.jpg,,,,,,,,,,,,,,,,,,,,-0.045572917,0.08203125,1,0,0,response7disk,16,0.0078125,-0.006510417,1,0,0,center_square,0,15,15,92,1,,,,,,,,,,,,,,,,,,,,,,,
532559,001,2022-11-21_24h55.56.398,Info_measure_main_exp,2022.2.2,Win32,59.90893841,,,,,,,,,,,,,,,,,,masks/mask_005.jpg,,,,,,,,,,,,,,,,,,,,,,,,,,,,,,,,,,,,,,,,,,,0,0,0,4,1,,,,,,,,,,,,,,,,,,,,,,,,,,,,,,,,,,,,,,,,,,,,,,
532559,001,2022-11-21_24h55.56.398,Info_measure_main_exp,2022.2.2,Win32,59.90893841,,,,,,,,,,,,,,,,,,masks/mask_003.jpg,,,,,,,,,,,,,,,,,,,,,,,,,,,,,,,,,,,,,,,,,,,0,1,1,2,1,,,,,,,,,,,,,,,,,,,,,,,,,,,,,,,,,,,,,,,,,,,,,,
532559,001,2022-11-21_24h55.56.398,Info_measure_main_exp,2022.2.2,Win32,59.90893841,,,,,,,,,,,,,,,,,,masks/mask_002.jpg,,,,,,,,,,,,,,,,,,,,,,,,,,,,,,,,,,,,,,,,,,,0,2,2,1,1,,,,,,,,,,,,,,,,,,,,,,,,,,,,,,,,,,,,,,,,,,,,,,
532559,001,2022-11-21_24h55.56.398,Info_measure_main_exp,2022.2.2,Win32,59.90893841,,,,,,,,,,,,,,,,,,masks/mask_004.jpg,,,,,,,,,,,,,,,,,,,,,,,,,,,,,,,,,,,,,,,,,,,0,3,3,3,1,,,,,,,,,,,,,,,,,,,,,,,,,,,,,,,,,,,,,,,,,,,,,,
532559,001,2022-11-21_24h55.56.398,Info_measure_main_exp,2022.2.2,Win32,59.90893841,,,,,,,,,,,,,,,,,,masks/mask_001.jpg,,,,,,,,,,,,,,,,,,,,,,,,,,,,,,,,,,,,,,,,,,,0,4,4,0,1,,,,,,,,,,,,,,,,,,,,,,,,,,,,,,,,,,,,,,,,,,,,,,
532559,001,2022-11-21_24h55.56.398,Info_measure_main_exp,2022.2.2,Win32,59.90893841,,,,,,,,,,,,,,,,,,masks/mask_002.jpg,,,,,,,,,,,,,,,,,,,,,,,,,,,,,,,,,,,,,,,,,,,,,,,,0,0,0,1,1,,,,,,,,,,,,,,,,,,,,,,,,,,,,,,,,,,,,,,,,,
532559,001,2022-11-21_24h55.56.398,Info_measure_main_exp,2022.2.2,Win32,59.90893841,,,,,,,,,,,,,,,,,,masks/mask_004.jpg,,,,,,,,,,,,,,,,,,,,,,,,,,,,,,,,,,,,,,,,,,,,,,,,0,1,1,3,1,,,,,,,,,,,,,,,,,,,,,,,,,,,,,,,,,,,,,,,,,
532559,001,2022-11-21_24h55.56.398,Info_measure_main_exp,2022.2.2,Win32,59.90893841,,,,,,,,,,,,,,,,,,masks/mask_001.jpg,,,,,,,,,,,,,,,,,,,,,,,,,,,,,,,,,,,,,,,,,,,,,,,,0,2,2,0,1,,,,,,,,,,,,,,,,,,,,,,,,,,,,,,,,,,,,,,,,,
532559,001,2022-11-21_24h55.56.398,Info_measure_main_exp,2022.2.2,Win32,59.90893841,,,,,,,,,,,,,,,,,,masks/mask_003.jpg,,,,,,,,,,,,,,,,,,,,,,,,,,,,,,,,,,,,,,,,,,,,,,,,0,3,3,2,1,,,,,,,,,,,,,,,,,,,,,,,,,,,,,,,,,,,,,,,,,
532559,001,2022-11-21_24h55.56.398,Info_measure_main_exp,2022.2.2,Win32,59.90893841,,,,,,,,,,,,,,,,,,masks/mask_005.jpg,,,,,,,,,,,,,,,,,,,,,,,,,,,,,,,,,,,,,,,,,,,,,,,,0,4,4,4,1,,,,,,,,,,,,,,,,,,,,,,,,,,,,,,,,,,,,,,,,,
532559,001,2022-11-21_24h55.56.398,Info_measure_main_exp,2022.2.2,Win32,59.90893841,,,,,,,,,,,,,,,,,,,,,,,,,,,,,,7,1.8161,1,,,,,,,,,,,,0,131,5,5,2274,1974,absent_patch/patch0002274.jpg,absent_patch/patch0001974.jpg,,,,,,,,,,,,,,,,,,,,0.057291667,0.083333333,1,0,0,response1disk,17,0.0078125,0.009114583,1,0,0,center_square,0,16,16,90,1,,,,,,,,,,,,,,,,,,,,,,,
532559,001,2022-11-21_24h55.56.398,Info_measure_main_exp,2022.2.2,Win32,59.90893841,,,,,,,,,,,,,,,,,,masks/mask_003.jpg,,,,,,,,,,,,,,,,,,,,,,,,,,,,,,,,,,,,,,,,,,,0,0,0,2,1,,,,,,,,,,,,,,,,,,,,,,,,,,,,,,,,,,,,,,,,,,,,,,
532559,001,2022-11-21_24h55.56.398,Info_measure_main_exp,2022.2.2,Win32,59.90893841,,,,,,,,,,,,,,,,,,masks/mask_005.jpg,,,,,,,,,,,,,,,,,,,,,,,,,,,,,,,,,,,,,,,,,,,0,1,1,4,1,,,,,,,,,,,,,,,,,,,,,,,,,,,,,,,,,,,,,,,,,,,,,,
532559,001,2022-11-21_24h55.56.398,Info_measure_main_exp,2022.2.2,Win32,59.90893841,,,,,,,,,,,,,,,,,,masks/mask_002.jpg,,,,,,,,,,,,,,,,,,,,,,,,,,,,,,,,,,,,,,,,,,,0,2,2,1,1,,,,,,,,,,,,,,,,,,,,,,,,,,,,,,,,,,,,,,,,,,,,,,
532559,001,2022-11-21_24h55.56.398,Info_measure_main_exp,2022.2.2,Win32,59.90893841,,,,,,,,,,,,,,,,,,masks/mask_004.jpg,,,,,,,,,,,,,,,,,,,,,,,,,,,,,,,,,,,,,,,,,,,0,3,3,3,1,,,,,,,,,,,,,,,,,,,,,,,,,,,,,,,,,,,,,,,,,,,,,,
532559,001,2022-11-21_24h55.56.398,Info_measure_main_exp,2022.2.2,Win32,59.90893841,,,,,,,,,,,,,,,,,,masks/mask_001.jpg,,,,,,,,,,,,,,,,,,,,,,,,,,,,,,,,,,,,,,,,,,,0,4,4,0,1,,,,,,,,,,,,,,,,,,,,,,,,,,,,,,,,,,,,,,,,,,,,,,
532559,001,2022-11-21_24h55.56.398,Info_measure_main_exp,2022.2.2,Win32,59.90893841,,,,,,,,,,,,,,,,,,masks/mask_001.jpg,,,,,,,,,,,,,,,,,,,,,,,,,,,,,,,,,,,,,,,,,,,,,,,,0,0,0,0,1,,,,,,,,,,,,,,,,,,,,,,,,,,,,,,,,,,,,,,,,,
532559,001,2022-11-21_24h55.56.398,Info_measure_main_exp,2022.2.2,Win32,59.90893841,,,,,,,,,,,,,,,,,,masks/mask_003.jpg,,,,,,,,,,,,,,,,,,,,,,,,,,,,,,,,,,,,,,,,,,,,,,,,0,1,1,2,1,,,,,,,,,,,,,,,,,,,,,,,,,,,,,,,,,,,,,,,,,
532559,001,2022-11-21_24h55.56.398,Info_measure_main_exp,2022.2.2,Win32,59.90893841,,,,,,,,,,,,,,,,,,masks/mask_005.jpg,,,,,,,,,,,,,,,,,,,,,,,,,,,,,,,,,,,,,,,,,,,,,,,,0,2,2,4,1,,,,,,,,,,,,,,,,,,,,,,,,,,,,,,,,,,,,,,,,,
532559,001,2022-11-21_24h55.56.398,Info_measure_main_exp,2022.2.2,Win32,59.90893841,,,,,,,,,,,,,,,,,,masks/mask_004.jpg,,,,,,,,,,,,,,,,,,,,,,,,,,,,,,,,,,,,,,,,,,,,,,,,0,3,3,3,1,,,,,,,,,,,,,,,,,,,,,,,,,,,,,,,,,,,,,,,,,
532559,001,2022-11-21_24h55.56.398,Info_measure_main_exp,2022.2.2,Win32,59.90893841,,,,,,,,,,,,,,,,,,masks/mask_002.jpg,,,,,,,,,,,,,,,,,,,,,,,,,,,,,,,,,,,,,,,,,,,,,,,,0,4,4,1,1,,,,,,,,,,,,,,,,,,,,,,,,,,,,,,,,,,,,,,,,,
532559,001,2022-11-21_24h55.56.398,Info_measure_main_exp,2022.2.2,Win32,59.90893841,,,,,,,,,,,,,,,,,,,,,,,,,,,,,,0,0.8328,1,,,,,,,,,,,,0,131,5,5,2190,2190,absent_patch/patch0002190.jpg,absent_patch/patch0002190.jpg,,,,,,,,,,,,,,,,,,,,-0.020833333,0.084635417,1,0,0,response7disk,18,0.009114583,0.006510417,1,0,0,center_square,0,17,17,86,1,,,,,,,,,,,,,,,,,,,,,,,
532559,001,2022-11-21_24h55.56.398,Info_measure_main_exp,2022.2.2,Win32,59.90893841,,,,,,,,,,,,,,,,,,masks/mask_005.jpg,,,,,,,,,,,,,,,,,,,,,,,,,,,,,,,,,,,,,,,,,,,0,0,0,4,1,,,,,,,,,,,,,,,,,,,,,,,,,,,,,,,,,,,,,,,,,,,,,,
532559,001,2022-11-21_24h55.56.398,Info_measure_main_exp,2022.2.2,Win32,59.90893841,,,,,,,,,,,,,,,,,,masks/mask_004.jpg,,,,,,,,,,,,,,,,,,,,,,,,,,,,,,,,,,,,,,,,,,,0,1,1,3,1,,,,,,,,,,,,,,,,,,,,,,,,,,,,,,,,,,,,,,,,,,,,,,
532559,001,2022-11-21_24h55.56.398,Info_measure_main_exp,2022.2.2,Win32,59.90893841,,,,,,,,,,,,,,,,,,masks/mask_001.jpg,,,,,,,,,,,,,,,,,,,,,,,,,,,,,,,,,,,,,,,,,,,0,2,2,0,1,,,,,,,,,,,,,,,,,,,,,,,,,,,,,,,,,,,,,,,,,,,,,,
532559,001,2022-11-21_24h55.56.398,Info_measure_main_exp,2022.2.2,Win32,59.90893841,,,,,,,,,,,,,,,,,,masks/mask_002.jpg,,,,,,,,,,,,,,,,,,,,,,,,,,,,,,,,,,,,,,,,,,,0,3,3,1,1,,,,,,,,,,,,,,,,,,,,,,,,,,,,,,,,,,,,,,,,,,,,,,
532559,001,2022-11-21_24h55.56.398,Info_measure_main_exp,2022.2.2,Win32,59.90893841,,,,,,,,,,,,,,,,,,masks/mask_003.jpg,,,,,,,,,,,,,,,,,,,,,,,,,,,,,,,,,,,,,,,,,,,0,4,4,2,1,,,,,,,,,,,,,,,,,,,,,,,,,,,,,,,,,,,,,,,,,,,,,,
532559,001,2022-11-21_24h55.56.398,Info_measure_main_exp,2022.2.2,Win32,59.90893841,,,,,,,,,,,,,,,,,,masks/mask_001.jpg,,,,,,,,,,,,,,,,,,,,,,,,,,,,,,,,,,,,,,,,,,,,,,,,0,0,0,0,1,,,,,,,,,,,,,,,,,,,,,,,,,,,,,,,,,,,,,,,,,
532559,001,2022-11-21_24h55.56.398,Info_measure_main_exp,2022.2.2,Win32,59.90893841,,,,,,,,,,,,,,,,,,masks/mask_004.jpg,,,,,,,,,,,,,,,,,,,,,,,,,,,,,,,,,,,,,,,,,,,,,,,,0,1,1,3,1,,,,,,,,,,,,,,,,,,,,,,,,,,,,,,,,,,,,,,,,,
532559,001,2022-11-21_24h55.56.398,Info_measure_main_exp,2022.2.2,Win32,59.90893841,,,,,,,,,,,,,,,,,,masks/mask_005.jpg,,,,,,,,,,,,,,,,,,,,,,,,,,,,,,,,,,,,,,,,,,,,,,,,0,2,2,4,1,,,,,,,,,,,,,,,,,,,,,,,,,,,,,,,,,,,,,,,,,
532559,001,2022-11-21_24h55.56.398,Info_measure_main_exp,2022.2.2,Win32,59.90893841,,,,,,,,,,,,,,,,,,masks/mask_003.jpg,,,,,,,,,,,,,,,,,,,,,,,,,,,,,,,,,,,,,,,,,,,,,,,,0,3,3,2,1,,,,,,,,,,,,,,,,,,,,,,,,,,,,,,,,,,,,,,,,,
532559,001,2022-11-21_24h55.56.398,Info_measure_main_exp,2022.2.2,Win32,59.90893841,,,,,,,,,,,,,,,,,,masks/mask_002.jpg,,,,,,,,,,,,,,,,,,,,,,,,,,,,,,,,,,,,,,,,,,,,,,,,0,4,4,1,1,,,,,,,,,,,,,,,,,,,,,,,,,,,,,,,,,,,,,,,,,
532559,001,2022-11-21_24h55.56.398,Info_measure_main_exp,2022.2.2,Win32,59.90893841,,,,,,,,,,,,,,,,,,,,,,,,,,,,,,0,0.5662,1,,,,,,,,,,,,0,131,5,5,2274,2274,absent_patch/patch0002274.jpg,absent_patch/patch0002274.jpg,,,,,,,,,,,,,,,,,,,,-0.033854167,0.092447917,1,0,0,response7disk,19,-0.001302083,0.013020833,1,0,0,center_square,0,18,18,114,1,,,,,,,,,,,,,,,,,,,,,,,
532559,001,2022-11-21_24h55.56.398,Info_measure_main_exp,2022.2.2,Win32,59.90893841,,,,,,,,,,,,,,,,,,masks/mask_004.jpg,,,,,,,,,,,,,,,,,,,,,,,,,,,,,,,,,,,,,,,,,,,0,0,0,3,1,,,,,,,,,,,,,,,,,,,,,,,,,,,,,,,,,,,,,,,,,,,,,,
532559,001,2022-11-21_24h55.56.398,Info_measure_main_exp,2022.2.2,Win32,59.90893841,,,,,,,,,,,,,,,,,,masks/mask_001.jpg,,,,,,,,,,,,,,,,,,,,,,,,,,,,,,,,,,,,,,,,,,,0,1,1,0,1,,,,,,,,,,,,,,,,,,,,,,,,,,,,,,,,,,,,,,,,,,,,,,
532559,001,2022-11-21_24h55.56.398,Info_measure_main_exp,2022.2.2,Win32,59.90893841,,,,,,,,,,,,,,,,,,masks/mask_003.jpg,,,,,,,,,,,,,,,,,,,,,,,,,,,,,,,,,,,,,,,,,,,0,2,2,2,1,,,,,,,,,,,,,,,,,,,,,,,,,,,,,,,,,,,,,,,,,,,,,,
532559,001,2022-11-21_24h55.56.398,Info_measure_main_exp,2022.2.2,Win32,59.90893841,,,,,,,,,,,,,,,,,,masks/mask_005.jpg,,,,,,,,,,,,,,,,,,,,,,,,,,,,,,,,,,,,,,,,,,,0,3,3,4,1,,,,,,,,,,,,,,,,,,,,,,,,,,,,,,,,,,,,,,,,,,,,,,
532559,001,2022-11-21_24h55.56.398,Info_measure_main_exp,2022.2.2,Win32,59.90893841,,,,,,,,,,,,,,,,,,masks/mask_002.jpg,,,,,,,,,,,,,,,,,,,,,,,,,,,,,,,,,,,,,,,,,,,0,4,4,1,1,,,,,,,,,,,,,,,,,,,,,,,,,,,,,,,,,,,,,,,,,,,,,,
532559,001,2022-11-21_24h55.56.398,Info_measure_main_exp,2022.2.2,Win32,59.90893841,,,,,,,,,,,,,,,,,,masks/mask_003.jpg,,,,,,,,,,,,,,,,,,,,,,,,,,,,,,,,,,,,,,,,,,,,,,,,0,0,0,2,1,,,,,,,,,,,,,,,,,,,,,,,,,,,,,,,,,,,,,,,,,
532559,001,2022-11-21_24h55.56.398,Info_measure_main_exp,2022.2.2,Win32,59.90893841,,,,,,,,,,,,,,,,,,masks/mask_005.jpg,,,,,,,,,,,,,,,,,,,,,,,,,,,,,,,,,,,,,,,,,,,,,,,,0,1,1,4,1,,,,,,,,,,,,,,,,,,,,,,,,,,,,,,,,,,,,,,,,,
532559,001,2022-11-21_24h55.56.398,Info_measure_main_exp,2022.2.2,Win32,59.90893841,,,,,,,,,,,,,,,,,,masks/mask_001.jpg,,,,,,,,,,,,,,,,,,,,,,,,,,,,,,,,,,,,,,,,,,,,,,,,0,2,2,0,1,,,,,,,,,,,,,,,,,,,,,,,,,,,,,,,,,,,,,,,,,
532559,001,2022-11-21_24h55.56.398,Info_measure_main_exp,2022.2.2,Win32,59.90893841,,,,,,,,,,,,,,,,,,masks/mask_002.jpg,,,,,,,,,,,,,,,,,,,,,,,,,,,,,,,,,,,,,,,,,,,,,,,,0,3,3,1,1,,,,,,,,,,,,,,,,,,,,,,,,,,,,,,,,,,,,,,,,,
532559,001,2022-11-21_24h55.56.398,Info_measure_main_exp,2022.2.2,Win32,59.90893841,,,,,,,,,,,,,,,,,,masks/mask_004.jpg,,,,,,,,,,,,,,,,,,,,,,,,,,,,,,,,,,,,,,,,,,,,,,,,0,4,4,3,1,,,,,,,,,,,,,,,,,,,,,,,,,,,,,,,,,,,,,,,,,
532559,001,2022-11-21_24h55.56.398,Info_measure_main_exp,2022.2.2,Win32,59.90893841,,,,,,,,,,,,,,,,,,,,,,,,,,,,,,6,1.15,1,,,,,,,,,,,,0,131,5,5,2274,2190,absent_patch/patch0002274.jpg,absent_patch/patch0002190.jpg,,,,,,,,,,,,,,,,,,,,0.0703125,0.040364583,1,0,0,response1disk,20,0.005208333,0.013020833,1,0,0,center_square,0,19,19,116,1,,,,,,,,,,,,,,,,,,,,,,,
532559,001,2022-11-21_24h55.56.398,Info_measure_main_exp,2022.2.2,Win32,59.90893841,,,,,,,,,,,,,,,,,,masks/mask_002.jpg,,,,,,,,,,,,,,,,,,,,,,,,,,,,,,,,,,,,,,,,,,,0,0,0,1,1,,,,,,,,,,,,,,,,,,,,,,,,,,,,,,,,,,,,,,,,,,,,,,
532559,001,2022-11-21_24h55.56.398,Info_measure_main_exp,2022.2.2,Win32,59.90893841,,,,,,,,,,,,,,,,,,masks/mask_005.jpg,,,,,,,,,,,,,,,,,,,,,,,,,,,,,,,,,,,,,,,,,,,0,1,1,4,1,,,,,,,,,,,,,,,,,,,,,,,,,,,,,,,,,,,,,,,,,,,,,,
532559,001,2022-11-21_24h55.56.398,Info_measure_main_exp,2022.2.2,Win32,59.90893841,,,,,,,,,,,,,,,,,,masks/mask_003.jpg,,,,,,,,,,,,,,,,,,,,,,,,,,,,,,,,,,,,,,,,,,,0,2,2,2,1,,,,,,,,,,,,,,,,,,,,,,,,,,,,,,,,,,,,,,,,,,,,,,
532559,001,2022-11-21_24h55.56.398,Info_measure_main_exp,2022.2.2,Win32,59.90893841,,,,,,,,,,,,,,,,,,masks/mask_001.jpg,,,,,,,,,,,,,,,,,,,,,,,,,,,,,,,,,,,,,,,,,,,0,3,3,0,1,,,,,,,,,,,,,,,,,,,,,,,,,,,,,,,,,,,,,,,,,,,,,,
532559,001,2022-11-21_24h55.56.398,Info_measure_main_exp,2022.2.2,Win32,59.90893841,,,,,,,,,,,,,,,,,,masks/mask_004.jpg,,,,,,,,,,,,,,,,,,,,,,,,,,,,,,,,,,,,,,,,,,,0,4,4,3,1,,,,,,,,,,,,,,,,,,,,,,,,,,,,,,,,,,,,,,,,,,,,,,
532559,001,2022-11-21_24h55.56.398,Info_measure_main_exp,2022.2.2,Win32,59.90893841,,,,,,,,,,,,,,,,,,masks/mask_002.jpg,,,,,,,,,,,,,,,,,,,,,,,,,,,,,,,,,,,,,,,,,,,,,,,,0,0,0,1,1,,,,,,,,,,,,,,,,,,,,,,,,,,,,,,,,,,,,,,,,,
532559,001,2022-11-21_24h55.56.398,Info_measure_main_exp,2022.2.2,Win32,59.90893841,,,,,,,,,,,,,,,,,,masks/mask_003.jpg,,,,,,,,,,,,,,,,,,,,,,,,,,,,,,,,,,,,,,,,,,,,,,,,0,1,1,2,1,,,,,,,,,,,,,,,,,,,,,,,,,,,,,,,,,,,,,,,,,
532559,001,2022-11-21_24h55.56.398,Info_measure_main_exp,2022.2.2,Win32,59.90893841,,,,,,,,,,,,,,,,,,masks/mask_005.jpg,,,,,,,,,,,,,,,,,,,,,,,,,,,,,,,,,,,,,,,,,,,,,,,,0,2,2,4,1,,,,,,,,,,,,,,,,,,,,,,,,,,,,,,,,,,,,,,,,,
532559,001,2022-11-21_24h55.56.398,Info_measure_main_exp,2022.2.2,Win32,59.90893841,,,,,,,,,,,,,,,,,,masks/mask_004.jpg,,,,,,,,,,,,,,,,,,,,,,,,,,,,,,,,,,,,,,,,,,,,,,,,0,3,3,3,1,,,,,,,,,,,,,,,,,,,,,,,,,,,,,,,,,,,,,,,,,
532559,001,2022-11-21_24h55.56.398,Info_measure_main_exp,2022.2.2,Win32,59.90893841,,,,,,,,,,,,,,,,,,masks/mask_001.jpg,,,,,,,,,,,,,,,,,,,,,,,,,,,,,,,,,,,,,,,,,,,,,,,,0,4,4,0,1,,,,,,,,,,,,,,,,,,,,,,,,,,,,,,,,,,,,,,,,,
532559,001,2022-11-21_24h55.56.398,Info_measure_main_exp,2022.2.2,Win32,59.90893841,,,,,,,,,,,,,,,,,,,,,,,,,,,,,,7,2.166,1,,,,,,,,,,,,0,131,5,5,2178,2238,absent_patch/patch0002178.jpg,absent_patch/patch0002238.jpg,,,,,,,,,,,,,,,,,,,,0.055989583,0.08203125,1,0,0,response1disk,21,-0.0078125,0.010416667,1,0,0,center_square,0,20,20,57,1,,,,,,,,,,,,,,,,,,,,,,,
532559,001,2022-11-21_24h55.56.398,Info_measure_main_exp,2022.2.2,Win32,59.90893841,,,,,,,,,,,,,,,,,,masks/mask_004.jpg,,,,,,,,,,,,,,,,,,,,,,,,,,,,,,,,,,,,,,,,,,,0,0,0,3,1,,,,,,,,,,,,,,,,,,,,,,,,,,,,,,,,,,,,,,,,,,,,,,
532559,001,2022-11-21_24h55.56.398,Info_measure_main_exp,2022.2.2,Win32,59.90893841,,,,,,,,,,,,,,,,,,masks/mask_005.jpg,,,,,,,,,,,,,,,,,,,,,,,,,,,,,,,,,,,,,,,,,,,0,1,1,4,1,,,,,,,,,,,,,,,,,,,,,,,,,,,,,,,,,,,,,,,,,,,,,,
532559,001,2022-11-21_24h55.56.398,Info_measure_main_exp,2022.2.2,Win32,59.90893841,,,,,,,,,,,,,,,,,,masks/mask_002.jpg,,,,,,,,,,,,,,,,,,,,,,,,,,,,,,,,,,,,,,,,,,,0,2,2,1,1,,,,,,,,,,,,,,,,,,,,,,,,,,,,,,,,,,,,,,,,,,,,,,
532559,001,2022-11-21_24h55.56.398,Info_measure_main_exp,2022.2.2,Win32,59.90893841,,,,,,,,,,,,,,,,,,masks/mask_001.jpg,,,,,,,,,,,,,,,,,,,,,,,,,,,,,,,,,,,,,,,,,,,0,3,3,0,1,,,,,,,,,,,,,,,,,,,,,,,,,,,,,,,,,,,,,,,,,,,,,,
532559,001,2022-11-21_24h55.56.398,Info_measure_main_exp,2022.2.2,Win32,59.90893841,,,,,,,,,,,,,,,,,,masks/mask_003.jpg,,,,,,,,,,,,,,,,,,,,,,,,,,,,,,,,,,,,,,,,,,,0,4,4,2,1,,,,,,,,,,,,,,,,,,,,,,,,,,,,,,,,,,,,,,,,,,,,,,
532559,001,2022-11-21_24h55.56.398,Info_measure_main_exp,2022.2.2,Win32,59.90893841,,,,,,,,,,,,,,,,,,masks/mask_003.jpg,,,,,,,,,,,,,,,,,,,,,,,,,,,,,,,,,,,,,,,,,,,,,,,,0,0,0,2,1,,,,,,,,,,,,,,,,,,,,,,,,,,,,,,,,,,,,,,,,,
532559,001,2022-11-21_24h55.56.398,Info_measure_main_exp,2022.2.2,Win32,59.90893841,,,,,,,,,,,,,,,,,,masks/mask_001.jpg,,,,,,,,,,,,,,,,,,,,,,,,,,,,,,,,,,,,,,,,,,,,,,,,0,1,1,0,1,,,,,,,,,,,,,,,,,,,,,,,,,,,,,,,,,,,,,,,,,
532559,001,2022-11-21_24h55.56.398,Info_measure_main_exp,2022.2.2,Win32,59.90893841,,,,,,,,,,,,,,,,,,masks/mask_002.jpg,,,,,,,,,,,,,,,,,,,,,,,,,,,,,,,,,,,,,,,,,,,,,,,,0,2,2,1,1,,,,,,,,,,,,,,,,,,,,,,,,,,,,,,,,,,,,,,,,,
532559,001,2022-11-21_24h55.56.398,Info_measure_main_exp,2022.2.2,Win32,59.90893841,,,,,,,,,,,,,,,,,,masks/mask_005.jpg,,,,,,,,,,,,,,,,,,,,,,,,,,,,,,,,,,,,,,,,,,,,,,,,0,3,3,4,1,,,,,,,,,,,,,,,,,,,,,,,,,,,,,,,,,,,,,,,,,
532559,001,2022-11-21_24h55.56.398,Info_measure_main_exp,2022.2.2,Win32,59.90893841,,,,,,,,,,,,,,,,,,masks/mask_004.jpg,,,,,,,,,,,,,,,,,,,,,,,,,,,,,,,,,,,,,,,,,,,,,,,,0,4,4,3,1,,,,,,,,,,,,,,,,,,,,,,,,,,,,,,,,,,,,,,,,,
532559,001,2022-11-21_24h55.56.398,Info_measure_main_exp,2022.2.2,Win32,59.90893841,,,,,,,,,,,,,,,,,,,,,,,,,,,,,,6,0.8009,1,,,,,,,,,,,,0,131,5,5,2190,2178,absent_patch/patch0002190.jpg,absent_patch/patch0002178.jpg,,,,,,,,,,,,,,,,,,,,0.104166667,0.059895833,1,0,0,response1disk,22,0.0078125,0.014322917,1,0,0,center_square,0,21,21,14,1,,,,,,,,,,,,,,,,,,,,,,,
532559,001,2022-11-21_24h55.56.398,Info_measure_main_exp,2022.2.2,Win32,59.90893841,,,,,,,,,,,,,,,,,,masks/mask_004.jpg,,,,,,,,,,,,,,,,,,,,,,,,,,,,,,,,,,,,,,,,,,,0,0,0,3,1,,,,,,,,,,,,,,,,,,,,,,,,,,,,,,,,,,,,,,,,,,,,,,
532559,001,2022-11-21_24h55.56.398,Info_measure_main_exp,2022.2.2,Win32,59.90893841,,,,,,,,,,,,,,,,,,masks/mask_001.jpg,,,,,,,,,,,,,,,,,,,,,,,,,,,,,,,,,,,,,,,,,,,0,1,1,0,1,,,,,,,,,,,,,,,,,,,,,,,,,,,,,,,,,,,,,,,,,,,,,,
532559,001,2022-11-21_24h55.56.398,Info_measure_main_exp,2022.2.2,Win32,59.90893841,,,,,,,,,,,,,,,,,,masks/mask_003.jpg,,,,,,,,,,,,,,,,,,,,,,,,,,,,,,,,,,,,,,,,,,,0,2,2,2,1,,,,,,,,,,,,,,,,,,,,,,,,,,,,,,,,,,,,,,,,,,,,,,
532559,001,2022-11-21_24h55.56.398,Info_measure_main_exp,2022.2.2,Win32,59.90893841,,,,,,,,,,,,,,,,,,masks/mask_005.jpg,,,,,,,,,,,,,,,,,,,,,,,,,,,,,,,,,,,,,,,,,,,0,3,3,4,1,,,,,,,,,,,,,,,,,,,,,,,,,,,,,,,,,,,,,,,,,,,,,,
532559,001,2022-11-21_24h55.56.398,Info_measure_main_exp,2022.2.2,Win32,59.90893841,,,,,,,,,,,,,,,,,,masks/mask_002.jpg,,,,,,,,,,,,,,,,,,,,,,,,,,,,,,,,,,,,,,,,,,,0,4,4,1,1,,,,,,,,,,,,,,,,,,,,,,,,,,,,,,,,,,,,,,,,,,,,,,
532559,001,2022-11-21_24h55.56.398,Info_measure_main_exp,2022.2.2,Win32,59.90893841,,,,,,,,,,,,,,,,,,masks/mask_001.jpg,,,,,,,,,,,,,,,,,,,,,,,,,,,,,,,,,,,,,,,,,,,,,,,,0,0,0,0,1,,,,,,,,,,,,,,,,,,,,,,,,,,,,,,,,,,,,,,,,,
532559,001,2022-11-21_24h55.56.398,Info_measure_main_exp,2022.2.2,Win32,59.90893841,,,,,,,,,,,,,,,,,,masks/mask_004.jpg,,,,,,,,,,,,,,,,,,,,,,,,,,,,,,,,,,,,,,,,,,,,,,,,0,1,1,3,1,,,,,,,,,,,,,,,,,,,,,,,,,,,,,,,,,,,,,,,,,
532559,001,2022-11-21_24h55.56.398,Info_measure_main_exp,2022.2.2,Win32,59.90893841,,,,,,,,,,,,,,,,,,masks/mask_005.jpg,,,,,,,,,,,,,,,,,,,,,,,,,,,,,,,,,,,,,,,,,,,,,,,,0,2,2,4,1,,,,,,,,,,,,,,,,,,,,,,,,,,,,,,,,,,,,,,,,,
532559,001,2022-11-21_24h55.56.398,Info_measure_main_exp,2022.2.2,Win32,59.90893841,,,,,,,,,,,,,,,,,,masks/mask_003.jpg,,,,,,,,,,,,,,,,,,,,,,,,,,,,,,,,,,,,,,,,,,,,,,,,0,3,3,2,1,,,,,,,,,,,,,,,,,,,,,,,,,,,,,,,,,,,,,,,,,
532559,001,2022-11-21_24h55.56.398,Info_measure_main_exp,2022.2.2,Win32,59.90893841,,,,,,,,,,,,,,,,,,masks/mask_002.jpg,,,,,,,,,,,,,,,,,,,,,,,,,,,,,,,,,,,,,,,,,,,,,,,,0,4,4,1,1,,,,,,,,,,,,,,,,,,,,,,,,,,,,,,,,,,,,,,,,,
532559,001,2022-11-21_24h55.56.398,Info_measure_main_exp,2022.2.2,Win32,59.90893841,,,,,,,,,,,,,,,,,,,,,,,,,,,,,,0,0.4334,1,,,,,,,,,,,,0,131,5,5,2154,2154,absent_patch/patch0002154.jpg,absent_patch/patch0002154.jpg,,,,,,,,,,,,,,,,,,,,-0.063802083,0.108072917,1,0,0,response7disk,23,-0.00390625,0.001302083,1,0,0,center_square,0,22,22,89,1,,,,,,,,,,,,,,,,,,,,,,,
532559,001,2022-11-21_24h55.56.398,Info_measure_main_exp,2022.2.2,Win32,59.90893841,,,,,,,,,,,,,,,,,,masks/mask_002.jpg,,,,,,,,,,,,,,,,,,,,,,,,,,,,,,,,,,,,,,,,,,,0,0,0,1,1,,,,,,,,,,,,,,,,,,,,,,,,,,,,,,,,,,,,,,,,,,,,,,
532559,001,2022-11-21_24h55.56.398,Info_measure_main_exp,2022.2.2,Win32,59.90893841,,,,,,,,,,,,,,,,,,masks/mask_001.jpg,,,,,,,,,,,,,,,,,,,,,,,,,,,,,,,,,,,,,,,,,,,0,1,1,0,1,,,,,,,,,,,,,,,,,,,,,,,,,,,,,,,,,,,,,,,,,,,,,,
532559,001,2022-11-21_24h55.56.398,Info_measure_main_exp,2022.2.2,Win32,59.90893841,,,,,,,,,,,,,,,,,,masks/mask_003.jpg,,,,,,,,,,,,,,,,,,,,,,,,,,,,,,,,,,,,,,,,,,,0,2,2,2,1,,,,,,,,,,,,,,,,,,,,,,,,,,,,,,,,,,,,,,,,,,,,,,
532559,001,2022-11-21_24h55.56.398,Info_measure_main_exp,2022.2.2,Win32,59.90893841,,,,,,,,,,,,,,,,,,masks/mask_005.jpg,,,,,,,,,,,,,,,,,,,,,,,,,,,,,,,,,,,,,,,,,,,0,3,3,4,1,,,,,,,,,,,,,,,,,,,,,,,,,,,,,,,,,,,,,,,,,,,,,,
532559,001,2022-11-21_24h55.56.398,Info_measure_main_exp,2022.2.2,Win32,59.90893841,,,,,,,,,,,,,,,,,,masks/mask_004.jpg,,,,,,,,,,,,,,,,,,,,,,,,,,,,,,,,,,,,,,,,,,,0,4,4,3,1,,,,,,,,,,,,,,,,,,,,,,,,,,,,,,,,,,,,,,,,,,,,,,
532559,001,2022-11-21_24h55.56.398,Info_measure_main_exp,2022.2.2,Win32,59.90893841,,,,,,,,,,,,,,,,,,masks/mask_003.jpg,,,,,,,,,,,,,,,,,,,,,,,,,,,,,,,,,,,,,,,,,,,,,,,,0,0,0,2,1,,,,,,,,,,,,,,,,,,,,,,,,,,,,,,,,,,,,,,,,,
532559,001,2022-11-21_24h55.56.398,Info_measure_main_exp,2022.2.2,Win32,59.90893841,,,,,,,,,,,,,,,,,,masks/mask_001.jpg,,,,,,,,,,,,,,,,,,,,,,,,,,,,,,,,,,,,,,,,,,,,,,,,0,1,1,0,1,,,,,,,,,,,,,,,,,,,,,,,,,,,,,,,,,,,,,,,,,
532559,001,2022-11-21_24h55.56.398,Info_measure_main_exp,2022.2.2,Win32,59.90893841,,,,,,,,,,,,,,,,,,masks/mask_004.jpg,,,,,,,,,,,,,,,,,,,,,,,,,,,,,,,,,,,,,,,,,,,,,,,,0,2,2,3,1,,,,,,,,,,,,,,,,,,,,,,,,,,,,,,,,,,,,,,,,,
532559,001,2022-11-21_24h55.56.398,Info_measure_main_exp,2022.2.2,Win32,59.90893841,,,,,,,,,,,,,,,,,,masks/mask_005.jpg,,,,,,,,,,,,,,,,,,,,,,,,,,,,,,,,,,,,,,,,,,,,,,,,0,3,3,4,1,,,,,,,,,,,,,,,,,,,,,,,,,,,,,,,,,,,,,,,,,
532559,001,2022-11-21_24h55.56.398,Info_measure_main_exp,2022.2.2,Win32,59.90893841,,,,,,,,,,,,,,,,,,masks/mask_002.jpg,,,,,,,,,,,,,,,,,,,,,,,,,,,,,,,,,,,,,,,,,,,,,,,,0,4,4,1,1,,,,,,,,,,,,,,,,,,,,,,,,,,,,,,,,,,,,,,,,,
532559,001,2022-11-21_24h55.56.398,Info_measure_main_exp,2022.2.2,Win32,59.90893841,,,,,,,,,,,,,,,,,,,,,,,,,,,,,,3,2.1828,1,,,,,,,,,,,,0,131,5,5,1986,2154,absent_patch/patch0001986.jpg,absent_patch/patch0002154.jpg,,,,,,,,,,,,,,,,,,,,-0.018229167,-0.12890625,1,0,0,response5disk,24,0.0078125,-0.01171875,1,0,0,center_square,0,23,23,36,1,,,,,,,,,,,,,,,,,,,,,,,
532559,001,2022-11-21_24h55.56.398,Info_measure_main_exp,2022.2.2,Win32,59.90893841,,,,,,,,,,,,,,,,,,masks/mask_001.jpg,,,,,,,,,,,,,,,,,,,,,,,,,,,,,,,,,,,,,,,,,,,0,0,0,0,1,,,,,,,,,,,,,,,,,,,,,,,,,,,,,,,,,,,,,,,,,,,,,,
532559,001,2022-11-21_24h55.56.398,Info_measure_main_exp,2022.2.2,Win32,59.90893841,,,,,,,,,,,,,,,,,,masks/mask_004.jpg,,,,,,,,,,,,,,,,,,,,,,,,,,,,,,,,,,,,,,,,,,,0,1,1,3,1,,,,,,,,,,,,,,,,,,,,,,,,,,,,,,,,,,,,,,,,,,,,,,
532559,001,2022-11-21_24h55.56.398,Info_measure_main_exp,2022.2.2,Win32,59.90893841,,,,,,,,,,,,,,,,,,masks/mask_005.jpg,,,,,,,,,,,,,,,,,,,,,,,,,,,,,,,,,,,,,,,,,,,0,2,2,4,1,,,,,,,,,,,,,,,,,,,,,,,,,,,,,,,,,,,,,,,,,,,,,,
532559,001,2022-11-21_24h55.56.398,Info_measure_main_exp,2022.2.2,Win32,59.90893841,,,,,,,,,,,,,,,,,,masks/mask_002.jpg,,,,,,,,,,,,,,,,,,,,,,,,,,,,,,,,,,,,,,,,,,,0,3,3,1,1,,,,,,,,,,,,,,,,,,,,,,,,,,,,,,,,,,,,,,,,,,,,,,
532559,001,2022-11-21_24h55.56.398,Info_measure_main_exp,2022.2.2,Win32,59.90893841,,,,,,,,,,,,,,,,,,masks/mask_003.jpg,,,,,,,,,,,,,,,,,,,,,,,,,,,,,,,,,,,,,,,,,,,0,4,4,2,1,,,,,,,,,,,,,,,,,,,,,,,,,,,,,,,,,,,,,,,,,,,,,,
532559,001,2022-11-21_24h55.56.398,Info_measure_main_exp,2022.2.2,Win32,59.90893841,,,,,,,,,,,,,,,,,,masks/mask_003.jpg,,,,,,,,,,,,,,,,,,,,,,,,,,,,,,,,,,,,,,,,,,,,,,,,0,0,0,2,1,,,,,,,,,,,,,,,,,,,,,,,,,,,,,,,,,,,,,,,,,
532559,001,2022-11-21_24h55.56.398,Info_measure_main_exp,2022.2.2,Win32,59.90893841,,,,,,,,,,,,,,,,,,masks/mask_004.jpg,,,,,,,,,,,,,,,,,,,,,,,,,,,,,,,,,,,,,,,,,,,,,,,,0,1,1,3,1,,,,,,,,,,,,,,,,,,,,,,,,,,,,,,,,,,,,,,,,,
532559,001,2022-11-21_24h55.56.398,Info_measure_main_exp,2022.2.2,Win32,59.90893841,,,,,,,,,,,,,,,,,,masks/mask_001.jpg,,,,,,,,,,,,,,,,,,,,,,,,,,,,,,,,,,,,,,,,,,,,,,,,0,2,2,0,1,,,,,,,,,,,,,,,,,,,,,,,,,,,,,,,,,,,,,,,,,
532559,001,2022-11-21_24h55.56.398,Info_measure_main_exp,2022.2.2,Win32,59.90893841,,,,,,,,,,,,,,,,,,masks/mask_002.jpg,,,,,,,,,,,,,,,,,,,,,,,,,,,,,,,,,,,,,,,,,,,,,,,,0,3,3,1,1,,,,,,,,,,,,,,,,,,,,,,,,,,,,,,,,,,,,,,,,,
532559,001,2022-11-21_24h55.56.398,Info_measure_main_exp,2022.2.2,Win32,59.90893841,,,,,,,,,,,,,,,,,,masks/mask_005.jpg,,,,,,,,,,,,,,,,,,,,,,,,,,,,,,,,,,,,,,,,,,,,,,,,0,4,4,4,1,,,,,,,,,,,,,,,,,,,,,,,,,,,,,,,,,,,,,,,,,
532559,001,2022-11-21_24h55.56.398,Info_measure_main_exp,2022.2.2,Win32,59.90893841,,,,,,,,,,,,,,,,,,,,,,,,,,,,,,6,0.9827,1,,,,,,,,,,,,0,131,5,5,2154,1950,absent_patch/patch0002154.jpg,absent_patch/patch0001950.jpg,,,,,,,,,,,,,,,,,,,,0.114583333,0.037760417,1,0,0,response1disk,25,0.01171875,0.010416667,1,0,0,center_square,0,24,24,96,1,,,,,,,,,,,,,,,,,,,,,,,
532559,001,2022-11-21_24h55.56.398,Info_measure_main_exp,2022.2.2,Win32,59.90893841,,,,,,,,,,,,,,,,,,masks/mask_002.jpg,,,,,,,,,,,,,,,,,,,,,,,,,,,,,,,,,,,,,,,,,,,0,0,0,1,1,,,,,,,,,,,,,,,,,,,,,,,,,,,,,,,,,,,,,,,,,,,,,,
532559,001,2022-11-21_24h55.56.398,Info_measure_main_exp,2022.2.2,Win32,59.90893841,,,,,,,,,,,,,,,,,,masks/mask_003.jpg,,,,,,,,,,,,,,,,,,,,,,,,,,,,,,,,,,,,,,,,,,,0,1,1,2,1,,,,,,,,,,,,,,,,,,,,,,,,,,,,,,,,,,,,,,,,,,,,,,
532559,001,2022-11-21_24h55.56.398,Info_measure_main_exp,2022.2.2,Win32,59.90893841,,,,,,,,,,,,,,,,,,masks/mask_001.jpg,,,,,,,,,,,,,,,,,,,,,,,,,,,,,,,,,,,,,,,,,,,0,2,2,0,1,,,,,,,,,,,,,,,,,,,,,,,,,,,,,,,,,,,,,,,,,,,,,,
532559,001,2022-11-21_24h55.56.398,Info_measure_main_exp,2022.2.2,Win32,59.90893841,,,,,,,,,,,,,,,,,,masks/mask_005.jpg,,,,,,,,,,,,,,,,,,,,,,,,,,,,,,,,,,,,,,,,,,,0,3,3,4,1,,,,,,,,,,,,,,,,,,,,,,,,,,,,,,,,,,,,,,,,,,,,,,
532559,001,2022-11-21_24h55.56.398,Info_measure_main_exp,2022.2.2,Win32,59.90893841,,,,,,,,,,,,,,,,,,masks/mask_004.jpg,,,,,,,,,,,,,,,,,,,,,,,,,,,,,,,,,,,,,,,,,,,0,4,4,3,1,,,,,,,,,,,,,,,,,,,,,,,,,,,,,,,,,,,,,,,,,,,,,,
532559,001,2022-11-21_24h55.56.398,Info_measure_main_exp,2022.2.2,Win32,59.90893841,,,,,,,,,,,,,,,,,,masks/mask_003.jpg,,,,,,,,,,,,,,,,,,,,,,,,,,,,,,,,,,,,,,,,,,,,,,,,0,0,0,2,1,,,,,,,,,,,,,,,,,,,,,,,,,,,,,,,,,,,,,,,,,
532559,001,2022-11-21_24h55.56.398,Info_measure_main_exp,2022.2.2,Win32,59.90893841,,,,,,,,,,,,,,,,,,masks/mask_002.jpg,,,,,,,,,,,,,,,,,,,,,,,,,,,,,,,,,,,,,,,,,,,,,,,,0,1,1,1,1,,,,,,,,,,,,,,,,,,,,,,,,,,,,,,,,,,,,,,,,,
532559,001,2022-11-21_24h55.56.398,Info_measure_main_exp,2022.2.2,Win32,59.90893841,,,,,,,,,,,,,,,,,,masks/mask_001.jpg,,,,,,,,,,,,,,,,,,,,,,,,,,,,,,,,,,,,,,,,,,,,,,,,0,2,2,0,1,,,,,,,,,,,,,,,,,,,,,,,,,,,,,,,,,,,,,,,,,
532559,001,2022-11-21_24h55.56.398,Info_measure_main_exp,2022.2.2,Win32,59.90893841,,,,,,,,,,,,,,,,,,masks/mask_004.jpg,,,,,,,,,,,,,,,,,,,,,,,,,,,,,,,,,,,,,,,,,,,,,,,,0,3,3,3,1,,,,,,,,,,,,,,,,,,,,,,,,,,,,,,,,,,,,,,,,,
532559,001,2022-11-21_24h55.56.398,Info_measure_main_exp,2022.2.2,Win32,59.90893841,,,,,,,,,,,,,,,,,,masks/mask_005.jpg,,,,,,,,,,,,,,,,,,,,,,,,,,,,,,,,,,,,,,,,,,,,,,,,0,4,4,4,1,,,,,,,,,,,,,,,,,,,,,,,,,,,,,,,,,,,,,,,,,
532559,001,2022-11-21_24h55.56.398,Info_measure_main_exp,2022.2.2,Win32,59.90893841,,,,,,,,,,,,,,,,,,,,,,,,,,,,,,7,0.9827,1,,,,,,,,,,,,0,131,5,5,2250,2178,absent_patch/patch0002250.jpg,absent_patch/patch0002178.jpg,,,,,,,,,,,,,,,,,,,,0.026041667,0.065104167,1,0,0,response1disk,26,-0.005208333,-0.002604167,1,0,0,center_square,0,25,25,48,1,,,,,,,,,,,,,,,,,,,,,,,
532559,001,2022-11-21_24h55.56.398,Info_measure_main_exp,2022.2.2,Win32,59.90893841,,,,,,,,,,,,,,,,,,masks/mask_001.jpg,,,,,,,,,,,,,,,,,,,,,,,,,,,,,,,,,,,,,,,,,,,0,0,0,0,1,,,,,,,,,,,,,,,,,,,,,,,,,,,,,,,,,,,,,,,,,,,,,,
532559,001,2022-11-21_24h55.56.398,Info_measure_main_exp,2022.2.2,Win32,59.90893841,,,,,,,,,,,,,,,,,,masks/mask_002.jpg,,,,,,,,,,,,,,,,,,,,,,,,,,,,,,,,,,,,,,,,,,,0,1,1,1,1,,,,,,,,,,,,,,,,,,,,,,,,,,,,,,,,,,,,,,,,,,,,,,
532559,001,2022-11-21_24h55.56.398,Info_measure_main_exp,2022.2.2,Win32,59.90893841,,,,,,,,,,,,,,,,,,masks/mask_005.jpg,,,,,,,,,,,,,,,,,,,,,,,,,,,,,,,,,,,,,,,,,,,0,2,2,4,1,,,,,,,,,,,,,,,,,,,,,,,,,,,,,,,,,,,,,,,,,,,,,,
532559,001,2022-11-21_24h55.56.398,Info_measure_main_exp,2022.2.2,Win32,59.90893841,,,,,,,,,,,,,,,,,,masks/mask_004.jpg,,,,,,,,,,,,,,,,,,,,,,,,,,,,,,,,,,,,,,,,,,,0,3,3,3,1,,,,,,,,,,,,,,,,,,,,,,,,,,,,,,,,,,,,,,,,,,,,,,
532559,001,2022-11-21_24h55.56.398,Info_measure_main_exp,2022.2.2,Win32,59.90893841,,,,,,,,,,,,,,,,,,masks/mask_003.jpg,,,,,,,,,,,,,,,,,,,,,,,,,,,,,,,,,,,,,,,,,,,0,4,4,2,1,,,,,,,,,,,,,,,,,,,,,,,,,,,,,,,,,,,,,,,,,,,,,,
532559,001,2022-11-21_24h55.56.398,Info_measure_main_exp,2022.2.2,Win32,59.90893841,,,,,,,,,,,,,,,,,,masks/mask_003.jpg,,,,,,,,,,,,,,,,,,,,,,,,,,,,,,,,,,,,,,,,,,,,,,,,0,0,0,2,1,,,,,,,,,,,,,,,,,,,,,,,,,,,,,,,,,,,,,,,,,
532559,001,2022-11-21_24h55.56.398,Info_measure_main_exp,2022.2.2,Win32,59.90893841,,,,,,,,,,,,,,,,,,masks/mask_005.jpg,,,,,,,,,,,,,,,,,,,,,,,,,,,,,,,,,,,,,,,,,,,,,,,,0,1,1,4,1,,,,,,,,,,,,,,,,,,,,,,,,,,,,,,,,,,,,,,,,,
532559,001,2022-11-21_24h55.56.398,Info_measure_main_exp,2022.2.2,Win32,59.90893841,,,,,,,,,,,,,,,,,,masks/mask_001.jpg,,,,,,,,,,,,,,,,,,,,,,,,,,,,,,,,,,,,,,,,,,,,,,,,0,2,2,0,1,,,,,,,,,,,,,,,,,,,,,,,,,,,,,,,,,,,,,,,,,
532559,001,2022-11-21_24h55.56.398,Info_measure_main_exp,2022.2.2,Win32,59.90893841,,,,,,,,,,,,,,,,,,masks/mask_002.jpg,,,,,,,,,,,,,,,,,,,,,,,,,,,,,,,,,,,,,,,,,,,,,,,,0,3,3,1,1,,,,,,,,,,,,,,,,,,,,,,,,,,,,,,,,,,,,,,,,,
532559,001,2022-11-21_24h55.56.398,Info_measure_main_exp,2022.2.2,Win32,59.90893841,,,,,,,,,,,,,,,,,,masks/mask_004.jpg,,,,,,,,,,,,,,,,,,,,,,,,,,,,,,,,,,,,,,,,,,,,,,,,0,4,4,3,1,,,,,,,,,,,,,,,,,,,,,,,,,,,,,,,,,,,,,,,,,
532559,001,2022-11-21_24h55.56.398,Info_measure_main_exp,2022.2.2,Win32,59.90893841,,,,,,,,,,,,,,,,,,,,,,,,,,,,,,7,1.433,1,,,,,,,,,,,,0,131,5,5,2250,2298,absent_patch/patch0002250.jpg,absent_patch/patch0002298.jpg,,,,,,,,,,,,,,,,,,,,0.065104167,0.075520833,1,0,0,response1disk,27,-0.005208333,0.006510417,1,0,0,center_square,0,26,26,59,1,,,,,,,,,,,,,,,,,,,,,,,
532559,001,2022-11-21_24h55.56.398,Info_measure_main_exp,2022.2.2,Win32,59.90893841,,,,,,,,,,,,,,,,,,masks/mask_002.jpg,,,,,,,,,,,,,,,,,,,,,,,,,,,,,,,,,,,,,,,,,,,0,0,0,1,1,,,,,,,,,,,,,,,,,,,,,,,,,,,,,,,,,,,,,,,,,,,,,,
532559,001,2022-11-21_24h55.56.398,Info_measure_main_exp,2022.2.2,Win32,59.90893841,,,,,,,,,,,,,,,,,,masks/mask_005.jpg,,,,,,,,,,,,,,,,,,,,,,,,,,,,,,,,,,,,,,,,,,,0,1,1,4,1,,,,,,,,,,,,,,,,,,,,,,,,,,,,,,,,,,,,,,,,,,,,,,
532559,001,2022-11-21_24h55.56.398,Info_measure_main_exp,2022.2.2,Win32,59.90893841,,,,,,,,,,,,,,,,,,masks/mask_001.jpg,,,,,,,,,,,,,,,,,,,,,,,,,,,,,,,,,,,,,,,,,,,0,2,2,0,1,,,,,,,,,,,,,,,,,,,,,,,,,,,,,,,,,,,,,,,,,,,,,,
532559,001,2022-11-21_24h55.56.398,Info_measure_main_exp,2022.2.2,Win32,59.90893841,,,,,,,,,,,,,,,,,,masks/mask_003.jpg,,,,,,,,,,,,,,,,,,,,,,,,,,,,,,,,,,,,,,,,,,,0,3,3,2,1,,,,,,,,,,,,,,,,,,,,,,,,,,,,,,,,,,,,,,,,,,,,,,
532559,001,2022-11-21_24h55.56.398,Info_measure_main_exp,2022.2.2,Win32,59.90893841,,,,,,,,,,,,,,,,,,masks/mask_004.jpg,,,,,,,,,,,,,,,,,,,,,,,,,,,,,,,,,,,,,,,,,,,0,4,4,3,1,,,,,,,,,,,,,,,,,,,,,,,,,,,,,,,,,,,,,,,,,,,,,,
532559,001,2022-11-21_24h55.56.398,Info_measure_main_exp,2022.2.2,Win32,59.90893841,,,,,,,,,,,,,,,,,,masks/mask_001.jpg,,,,,,,,,,,,,,,,,,,,,,,,,,,,,,,,,,,,,,,,,,,,,,,,0,0,0,0,1,,,,,,,,,,,,,,,,,,,,,,,,,,,,,,,,,,,,,,,,,
532559,001,2022-11-21_24h55.56.398,Info_measure_main_exp,2022.2.2,Win32,59.90893841,,,,,,,,,,,,,,,,,,masks/mask_005.jpg,,,,,,,,,,,,,,,,,,,,,,,,,,,,,,,,,,,,,,,,,,,,,,,,0,1,1,4,1,,,,,,,,,,,,,,,,,,,,,,,,,,,,,,,,,,,,,,,,,
532559,001,2022-11-21_24h55.56.398,Info_measure_main_exp,2022.2.2,Win32,59.90893841,,,,,,,,,,,,,,,,,,masks/mask_003.jpg,,,,,,,,,,,,,,,,,,,,,,,,,,,,,,,,,,,,,,,,,,,,,,,,0,2,2,2,1,,,,,,,,,,,,,,,,,,,,,,,,,,,,,,,,,,,,,,,,,
532559,001,2022-11-21_24h55.56.398,Info_measure_main_exp,2022.2.2,Win32,59.90893841,,,,,,,,,,,,,,,,,,masks/mask_002.jpg,,,,,,,,,,,,,,,,,,,,,,,,,,,,,,,,,,,,,,,,,,,,,,,,0,3,3,1,1,,,,,,,,,,,,,,,,,,,,,,,,,,,,,,,,,,,,,,,,,
532559,001,2022-11-21_24h55.56.398,Info_measure_main_exp,2022.2.2,Win32,59.90893841,,,,,,,,,,,,,,,,,,masks/mask_004.jpg,,,,,,,,,,,,,,,,,,,,,,,,,,,,,,,,,,,,,,,,,,,,,,,,0,4,4,3,1,,,,,,,,,,,,,,,,,,,,,,,,,,,,,,,,,,,,,,,,,
532559,001,2022-11-21_24h55.56.398,Info_measure_main_exp,2022.2.2,Win32,59.90893841,,,,,,,,,,,,,,,,,,,,,,,,,,,,,,7,1.4325,1,,,,,,,,,,,,1,131,5,5,1,1974,present_patch/cong_131_5_a.jpg,absent_patch/patch0001974.jpg,,,,,,,,,,,,,,,,,,,,0.044270833,0.10546875,1,0,0,response1disk,28,0.006510417,-0.009114583,1,0,0,center_square,0,27,27,69,1,,,,,,,,,,,,,,,,,,,,,,,
532559,001,2022-11-21_24h55.56.398,Info_measure_main_exp,2022.2.2,Win32,59.90893841,,,,,,,,,,,,,,,,,,masks/mask_005.jpg,,,,,,,,,,,,,,,,,,,,,,,,,,,,,,,,,,,,,,,,,,,0,0,0,4,1,,,,,,,,,,,,,,,,,,,,,,,,,,,,,,,,,,,,,,,,,,,,,,
532559,001,2022-11-21_24h55.56.398,Info_measure_main_exp,2022.2.2,Win32,59.90893841,,,,,,,,,,,,,,,,,,masks/mask_004.jpg,,,,,,,,,,,,,,,,,,,,,,,,,,,,,,,,,,,,,,,,,,,0,1,1,3,1,,,,,,,,,,,,,,,,,,,,,,,,,,,,,,,,,,,,,,,,,,,,,,
532559,001,2022-11-21_24h55.56.398,Info_measure_main_exp,2022.2.2,Win32,59.90893841,,,,,,,,,,,,,,,,,,masks/mask_001.jpg,,,,,,,,,,,,,,,,,,,,,,,,,,,,,,,,,,,,,,,,,,,0,2,2,0,1,,,,,,,,,,,,,,,,,,,,,,,,,,,,,,,,,,,,,,,,,,,,,,
532559,001,2022-11-21_24h55.56.398,Info_measure_main_exp,2022.2.2,Win32,59.90893841,,,,,,,,,,,,,,,,,,masks/mask_002.jpg,,,,,,,,,,,,,,,,,,,,,,,,,,,,,,,,,,,,,,,,,,,0,3,3,1,1,,,,,,,,,,,,,,,,,,,,,,,,,,,,,,,,,,,,,,,,,,,,,,
532559,001,2022-11-21_24h55.56.398,Info_measure_main_exp,2022.2.2,Win32,59.90893841,,,,,,,,,,,,,,,,,,masks/mask_003.jpg,,,,,,,,,,,,,,,,,,,,,,,,,,,,,,,,,,,,,,,,,,,0,4,4,2,1,,,,,,,,,,,,,,,,,,,,,,,,,,,,,,,,,,,,,,,,,,,,,,
532559,001,2022-11-21_24h55.56.398,Info_measure_main_exp,2022.2.2,Win32,59.90893841,,,,,,,,,,,,,,,,,,masks/mask_001.jpg,,,,,,,,,,,,,,,,,,,,,,,,,,,,,,,,,,,,,,,,,,,,,,,,0,0,0,0,1,,,,,,,,,,,,,,,,,,,,,,,,,,,,,,,,,,,,,,,,,
532559,001,2022-11-21_24h55.56.398,Info_measure_main_exp,2022.2.2,Win32,59.90893841,,,,,,,,,,,,,,,,,,masks/mask_002.jpg,,,,,,,,,,,,,,,,,,,,,,,,,,,,,,,,,,,,,,,,,,,,,,,,0,1,1,1,1,,,,,,,,,,,,,,,,,,,,,,,,,,,,,,,,,,,,,,,,,
532559,001,2022-11-21_24h55.56.398,Info_measure_main_exp,2022.2.2,Win32,59.90893841,,,,,,,,,,,,,,,,,,masks/mask_004.jpg,,,,,,,,,,,,,,,,,,,,,,,,,,,,,,,,,,,,,,,,,,,,,,,,0,2,2,3,1,,,,,,,,,,,,,,,,,,,,,,,,,,,,,,,,,,,,,,,,,
532559,001,2022-11-21_24h55.56.398,Info_measure_main_exp,2022.2.2,Win32,59.90893841,,,,,,,,,,,,,,,,,,masks/mask_005.jpg,,,,,,,,,,,,,,,,,,,,,,,,,,,,,,,,,,,,,,,,,,,,,,,,0,3,3,4,1,,,,,,,,,,,,,,,,,,,,,,,,,,,,,,,,,,,,,,,,,
532559,001,2022-11-21_24h55.56.398,Info_measure_main_exp,2022.2.2,Win32,59.90893841,,,,,,,,,,,,,,,,,,masks/mask_003.jpg,,,,,,,,,,,,,,,,,,,,,,,,,,,,,,,,,,,,,,,,,,,,,,,,0,4,4,2,1,,,,,,,,,,,,,,,,,,,,,,,,,,,,,,,,,,,,,,,,,
532559,001,2022-11-21_24h55.56.398,Info_measure_main_exp,2022.2.2,Win32,59.90893841,,,,,,,,,,,,,,,,,,,,,,,,,,,,,,3,2.5816,1,,,,,,,,,,,,1,131,5,5,1,1986,present_patch/cong_131_5_a.jpg,absent_patch/patch0001986.jpg,,,,,,,,,,,,,,,,,,,,-0.001302083,-0.119791667,1,0,0,response5disk,29,0.002604167,-0.001302083,1,0,0,center_square,0,28,28,106,1,,,,,,,,,,,,,,,,,,,,,,,
532559,001,2022-11-21_24h55.56.398,Info_measure_main_exp,2022.2.2,Win32,59.90893841,,,,,,,,,,,,,,,,,,masks/mask_002.jpg,,,,,,,,,,,,,,,,,,,,,,,,,,,,,,,,,,,,,,,,,,,0,0,0,1,1,,,,,,,,,,,,,,,,,,,,,,,,,,,,,,,,,,,,,,,,,,,,,,
532559,001,2022-11-21_24h55.56.398,Info_measure_main_exp,2022.2.2,Win32,59.90893841,,,,,,,,,,,,,,,,,,masks/mask_004.jpg,,,,,,,,,,,,,,,,,,,,,,,,,,,,,,,,,,,,,,,,,,,0,1,1,3,1,,,,,,,,,,,,,,,,,,,,,,,,,,,,,,,,,,,,,,,,,,,,,,
532559,001,2022-11-21_24h55.56.398,Info_measure_main_exp,2022.2.2,Win32,59.90893841,,,,,,,,,,,,,,,,,,masks/mask_003.jpg,,,,,,,,,,,,,,,,,,,,,,,,,,,,,,,,,,,,,,,,,,,0,2,2,2,1,,,,,,,,,,,,,,,,,,,,,,,,,,,,,,,,,,,,,,,,,,,,,,
532559,001,2022-11-21_24h55.56.398,Info_measure_main_exp,2022.2.2,Win32,59.90893841,,,,,,,,,,,,,,,,,,masks/mask_001.jpg,,,,,,,,,,,,,,,,,,,,,,,,,,,,,,,,,,,,,,,,,,,0,3,3,0,1,,,,,,,,,,,,,,,,,,,,,,,,,,,,,,,,,,,,,,,,,,,,,,
532559,001,2022-11-21_24h55.56.398,Info_measure_main_exp,2022.2.2,Win32,59.90893841,,,,,,,,,,,,,,,,,,masks/mask_005.jpg,,,,,,,,,,,,,,,,,,,,,,,,,,,,,,,,,,,,,,,,,,,0,4,4,4,1,,,,,,,,,,,,,,,,,,,,,,,,,,,,,,,,,,,,,,,,,,,,,,
532559,001,2022-11-21_24h55.56.398,Info_measure_main_exp,2022.2.2,Win32,59.90893841,,,,,,,,,,,,,,,,,,masks/mask_004.jpg,,,,,,,,,,,,,,,,,,,,,,,,,,,,,,,,,,,,,,,,,,,,,,,,0,0,0,3,1,,,,,,,,,,,,,,,,,,,,,,,,,,,,,,,,,,,,,,,,,
532559,001,2022-11-21_24h55.56.398,Info_measure_main_exp,2022.2.2,Win32,59.90893841,,,,,,,,,,,,,,,,,,masks/mask_005.jpg,,,,,,,,,,,,,,,,,,,,,,,,,,,,,,,,,,,,,,,,,,,,,,,,0,1,1,4,1,,,,,,,,,,,,,,,,,,,,,,,,,,,,,,,,,,,,,,,,,
532559,001,2022-11-21_24h55.56.398,Info_measure_main_exp,2022.2.2,Win32,59.90893841,,,,,,,,,,,,,,,,,,masks/mask_003.jpg,,,,,,,,,,,,,,,,,,,,,,,,,,,,,,,,,,,,,,,,,,,,,,,,0,2,2,2,1,,,,,,,,,,,,,,,,,,,,,,,,,,,,,,,,,,,,,,,,,
532559,001,2022-11-21_24h55.56.398,Info_measure_main_exp,2022.2.2,Win32,59.90893841,,,,,,,,,,,,,,,,,,masks/mask_002.jpg,,,,,,,,,,,,,,,,,,,,,,,,,,,,,,,,,,,,,,,,,,,,,,,,0,3,3,1,1,,,,,,,,,,,,,,,,,,,,,,,,,,,,,,,,,,,,,,,,,
532559,001,2022-11-21_24h55.56.398,Info_measure_main_exp,2022.2.2,Win32,59.90893841,,,,,,,,,,,,,,,,,,masks/mask_001.jpg,,,,,,,,,,,,,,,,,,,,,,,,,,,,,,,,,,,,,,,,,,,,,,,,0,4,4,0,1,,,,,,,,,,,,,,,,,,,,,,,,,,,,,,,,,,,,,,,,,
532559,001,2022-11-21_24h55.56.398,Info_measure_main_exp,2022.2.2,Win32,59.90893841,,,,,,,,,,,,,,,,,,,,,,,,,,,,,,6,1.0007,1,,,,,,,,,,,,0,131,5,5,2082,2154,absent_patch/patch0002082.jpg,absent_patch/patch0002154.jpg,,,,,,,,,,,,,,,,,,,,0.065104167,0.02734375,1,0,0,response1disk,30,0.002604167,0.013020833,1,0,0,center_square,0,29,29,33,1,,,,,,,,,,,,,,,,,,,,,,,
532559,001,2022-11-21_24h55.56.398,Info_measure_main_exp,2022.2.2,Win32,59.90893841,,,,,,,,,,,,,,,,,,masks/mask_005.jpg,,,,,,,,,,,,,,,,,,,,,,,,,,,,,,,,,,,,,,,,,,,0,0,0,4,1,,,,,,,,,,,,,,,,,,,,,,,,,,,,,,,,,,,,,,,,,,,,,,
532559,001,2022-11-21_24h55.56.398,Info_measure_main_exp,2022.2.2,Win32,59.90893841,,,,,,,,,,,,,,,,,,masks/mask_002.jpg,,,,,,,,,,,,,,,,,,,,,,,,,,,,,,,,,,,,,,,,,,,0,1,1,1,1,,,,,,,,,,,,,,,,,,,,,,,,,,,,,,,,,,,,,,,,,,,,,,
532559,001,2022-11-21_24h55.56.398,Info_measure_main_exp,2022.2.2,Win32,59.90893841,,,,,,,,,,,,,,,,,,masks/mask_001.jpg,,,,,,,,,,,,,,,,,,,,,,,,,,,,,,,,,,,,,,,,,,,0,2,2,0,1,,,,,,,,,,,,,,,,,,,,,,,,,,,,,,,,,,,,,,,,,,,,,,
532559,001,2022-11-21_24h55.56.398,Info_measure_main_exp,2022.2.2,Win32,59.90893841,,,,,,,,,,,,,,,,,,masks/mask_004.jpg,,,,,,,,,,,,,,,,,,,,,,,,,,,,,,,,,,,,,,,,,,,0,3,3,3,1,,,,,,,,,,,,,,,,,,,,,,,,,,,,,,,,,,,,,,,,,,,,,,
532559,001,2022-11-21_24h55.56.398,Info_measure_main_exp,2022.2.2,Win32,59.90893841,,,,,,,,,,,,,,,,,,masks/mask_003.jpg,,,,,,,,,,,,,,,,,,,,,,,,,,,,,,,,,,,,,,,,,,,0,4,4,2,1,,,,,,,,,,,,,,,,,,,,,,,,,,,,,,,,,,,,,,,,,,,,,,
532559,001,2022-11-21_24h55.56.398,Info_measure_main_exp,2022.2.2,Win32,59.90893841,,,,,,,,,,,,,,,,,,masks/mask_004.jpg,,,,,,,,,,,,,,,,,,,,,,,,,,,,,,,,,,,,,,,,,,,,,,,,0,0,0,3,1,,,,,,,,,,,,,,,,,,,,,,,,,,,,,,,,,,,,,,,,,
532559,001,2022-11-21_24h55.56.398,Info_measure_main_exp,2022.2.2,Win32,59.90893841,,,,,,,,,,,,,,,,,,masks/mask_001.jpg,,,,,,,,,,,,,,,,,,,,,,,,,,,,,,,,,,,,,,,,,,,,,,,,0,1,1,0,1,,,,,,,,,,,,,,,,,,,,,,,,,,,,,,,,,,,,,,,,,
532559,001,2022-11-21_24h55.56.398,Info_measure_main_exp,2022.2.2,Win32,59.90893841,,,,,,,,,,,,,,,,,,masks/mask_002.jpg,,,,,,,,,,,,,,,,,,,,,,,,,,,,,,,,,,,,,,,,,,,,,,,,0,2,2,1,1,,,,,,,,,,,,,,,,,,,,,,,,,,,,,,,,,,,,,,,,,
532559,001,2022-11-21_24h55.56.398,Info_measure_main_exp,2022.2.2,Win32,59.90893841,,,,,,,,,,,,,,,,,,masks/mask_005.jpg,,,,,,,,,,,,,,,,,,,,,,,,,,,,,,,,,,,,,,,,,,,,,,,,0,3,3,4,1,,,,,,,,,,,,,,,,,,,,,,,,,,,,,,,,,,,,,,,,,
532559,001,2022-11-21_24h55.56.398,Info_measure_main_exp,2022.2.2,Win32,59.90893841,,,,,,,,,,,,,,,,,,masks/mask_003.jpg,,,,,,,,,,,,,,,,,,,,,,,,,,,,,,,,,,,,,,,,,,,,,,,,0,4,4,2,1,,,,,,,,,,,,,,,,,,,,,,,,,,,,,,,,,,,,,,,,,
532559,001,2022-11-21_24h55.56.398,Info_measure_main_exp,2022.2.2,Win32,59.90893841,,,,,,,,,,,,,,,,,,,,,,,,,,,,,,7,0.9332,1,,,,,,,,,,,,0,131,5,5,1950,2238,absent_patch/patch0001950.jpg,absent_patch/patch0002238.jpg,,,,,,,,,,,,,,,,,,,,0.029947917,0.052083333,1,0,0,response1disk,31,-0.001302083,0.00390625,1,0,0,center_square,0,30,30,8,1,,,,,,,,,,,,,,,,,,,,,,,
532559,001,2022-11-21_24h55.56.398,Info_measure_main_exp,2022.2.2,Win32,59.90893841,,,,,,,,,,,,,,,,,,masks/mask_004.jpg,,,,,,,,,,,,,,,,,,,,,,,,,,,,,,,,,,,,,,,,,,,0,0,0,3,1,,,,,,,,,,,,,,,,,,,,,,,,,,,,,,,,,,,,,,,,,,,,,,
532559,001,2022-11-21_24h55.56.398,Info_measure_main_exp,2022.2.2,Win32,59.90893841,,,,,,,,,,,,,,,,,,masks/mask_003.jpg,,,,,,,,,,,,,,,,,,,,,,,,,,,,,,,,,,,,,,,,,,,0,1,1,2,1,,,,,,,,,,,,,,,,,,,,,,,,,,,,,,,,,,,,,,,,,,,,,,
532559,001,2022-11-21_24h55.56.398,Info_measure_main_exp,2022.2.2,Win32,59.90893841,,,,,,,,,,,,,,,,,,masks/mask_002.jpg,,,,,,,,,,,,,,,,,,,,,,,,,,,,,,,,,,,,,,,,,,,0,2,2,1,1,,,,,,,,,,,,,,,,,,,,,,,,,,,,,,,,,,,,,,,,,,,,,,
532559,001,2022-11-21_24h55.56.398,Info_measure_main_exp,2022.2.2,Win32,59.90893841,,,,,,,,,,,,,,,,,,masks/mask_005.jpg,,,,,,,,,,,,,,,,,,,,,,,,,,,,,,,,,,,,,,,,,,,0,3,3,4,1,,,,,,,,,,,,,,,,,,,,,,,,,,,,,,,,,,,,,,,,,,,,,,
532559,001,2022-11-21_24h55.56.398,Info_measure_main_exp,2022.2.2,Win32,59.90893841,,,,,,,,,,,,,,,,,,masks/mask_001.jpg,,,,,,,,,,,,,,,,,,,,,,,,,,,,,,,,,,,,,,,,,,,0,4,4,0,1,,,,,,,,,,,,,,,,,,,,,,,,,,,,,,,,,,,,,,,,,,,,,,
532559,001,2022-11-21_24h55.56.398,Info_measure_main_exp,2022.2.2,Win32,59.90893841,,,,,,,,,,,,,,,,,,masks/mask_003.jpg,,,,,,,,,,,,,,,,,,,,,,,,,,,,,,,,,,,,,,,,,,,,,,,,0,0,0,2,1,,,,,,,,,,,,,,,,,,,,,,,,,,,,,,,,,,,,,,,,,
532559,001,2022-11-21_24h55.56.398,Info_measure_main_exp,2022.2.2,Win32,59.90893841,,,,,,,,,,,,,,,,,,masks/mask_004.jpg,,,,,,,,,,,,,,,,,,,,,,,,,,,,,,,,,,,,,,,,,,,,,,,,0,1,1,3,1,,,,,,,,,,,,,,,,,,,,,,,,,,,,,,,,,,,,,,,,,
532559,001,2022-11-21_24h55.56.398,Info_measure_main_exp,2022.2.2,Win32,59.90893841,,,,,,,,,,,,,,,,,,masks/mask_002.jpg,,,,,,,,,,,,,,,,,,,,,,,,,,,,,,,,,,,,,,,,,,,,,,,,0,2,2,1,1,,,,,,,,,,,,,,,,,,,,,,,,,,,,,,,,,,,,,,,,,
532559,001,2022-11-21_24h55.56.398,Info_measure_main_exp,2022.2.2,Win32,59.90893841,,,,,,,,,,,,,,,,,,masks/mask_001.jpg,,,,,,,,,,,,,,,,,,,,,,,,,,,,,,,,,,,,,,,,,,,,,,,,0,3,3,0,1,,,,,,,,,,,,,,,,,,,,,,,,,,,,,,,,,,,,,,,,,
532559,001,2022-11-21_24h55.56.398,Info_measure_main_exp,2022.2.2,Win32,59.90893841,,,,,,,,,,,,,,,,,,masks/mask_005.jpg,,,,,,,,,,,,,,,,,,,,,,,,,,,,,,,,,,,,,,,,,,,,,,,,0,4,4,4,1,,,,,,,,,,,,,,,,,,,,,,,,,,,,,,,,,,,,,,,,,
532559,001,2022-11-21_24h55.56.398,Info_measure_main_exp,2022.2.2,Win32,59.90893841,,,,,,,,,,,,,,,,,,,,,,,,,,,,,,7,0.6836,1,,,,,,,,,,,,1,131,5,5,1,2214,present_patch/cong_131_5_a.jpg,absent_patch/patch0002214.jpg,,,,,,,,,,,,,,,,,,,,0.028645833,0.061197917,1,0,0,response1disk,32,-0.00390625,-0.00390625,1,0,0,center_square,0,31,31,4,1,,,,,,,,,,,,,,,,,,,,,,,
532559,001,2022-11-21_24h55.56.398,Info_measure_main_exp,2022.2.2,Win32,59.90893841,,,,,,,,,,,,,,,,,,masks/mask_001.jpg,,,,,,,,,,,,,,,,,,,,,,,,,,,,,,,,,,,,,,,,,,,0,0,0,0,1,,,,,,,,,,,,,,,,,,,,,,,,,,,,,,,,,,,,,,,,,,,,,,
532559,001,2022-11-21_24h55.56.398,Info_measure_main_exp,2022.2.2,Win32,59.90893841,,,,,,,,,,,,,,,,,,masks/mask_002.jpg,,,,,,,,,,,,,,,,,,,,,,,,,,,,,,,,,,,,,,,,,,,0,1,1,1,1,,,,,,,,,,,,,,,,,,,,,,,,,,,,,,,,,,,,,,,,,,,,,,
532559,001,2022-11-21_24h55.56.398,Info_measure_main_exp,2022.2.2,Win32,59.90893841,,,,,,,,,,,,,,,,,,masks/mask_003.jpg,,,,,,,,,,,,,,,,,,,,,,,,,,,,,,,,,,,,,,,,,,,0,2,2,2,1,,,,,,,,,,,,,,,,,,,,,,,,,,,,,,,,,,,,,,,,,,,,,,
532559,001,2022-11-21_24h55.56.398,Info_measure_main_exp,2022.2.2,Win32,59.90893841,,,,,,,,,,,,,,,,,,masks/mask_004.jpg,,,,,,,,,,,,,,,,,,,,,,,,,,,,,,,,,,,,,,,,,,,0,3,3,3,1,,,,,,,,,,,,,,,,,,,,,,,,,,,,,,,,,,,,,,,,,,,,,,
532559,001,2022-11-21_24h55.56.398,Info_measure_main_exp,2022.2.2,Win32,59.90893841,,,,,,,,,,,,,,,,,,masks/mask_005.jpg,,,,,,,,,,,,,,,,,,,,,,,,,,,,,,,,,,,,,,,,,,,0,4,4,4,1,,,,,,,,,,,,,,,,,,,,,,,,,,,,,,,,,,,,,,,,,,,,,,
532559,001,2022-11-21_24h55.56.398,Info_measure_main_exp,2022.2.2,Win32,59.90893841,,,,,,,,,,,,,,,,,,masks/mask_001.jpg,,,,,,,,,,,,,,,,,,,,,,,,,,,,,,,,,,,,,,,,,,,,,,,,0,0,0,0,1,,,,,,,,,,,,,,,,,,,,,,,,,,,,,,,,,,,,,,,,,
532559,001,2022-11-21_24h55.56.398,Info_measure_main_exp,2022.2.2,Win32,59.90893841,,,,,,,,,,,,,,,,,,masks/mask_005.jpg,,,,,,,,,,,,,,,,,,,,,,,,,,,,,,,,,,,,,,,,,,,,,,,,0,1,1,4,1,,,,,,,,,,,,,,,,,,,,,,,,,,,,,,,,,,,,,,,,,
532559,001,2022-11-21_24h55.56.398,Info_measure_main_exp,2022.2.2,Win32,59.90893841,,,,,,,,,,,,,,,,,,masks/mask_003.jpg,,,,,,,,,,,,,,,,,,,,,,,,,,,,,,,,,,,,,,,,,,,,,,,,0,2,2,2,1,,,,,,,,,,,,,,,,,,,,,,,,,,,,,,,,,,,,,,,,,
532559,001,2022-11-21_24h55.56.398,Info_measure_main_exp,2022.2.2,Win32,59.90893841,,,,,,,,,,,,,,,,,,masks/mask_004.jpg,,,,,,,,,,,,,,,,,,,,,,,,,,,,,,,,,,,,,,,,,,,,,,,,0,3,3,3,1,,,,,,,,,,,,,,,,,,,,,,,,,,,,,,,,,,,,,,,,,
532559,001,2022-11-21_24h55.56.398,Info_measure_main_exp,2022.2.2,Win32,59.90893841,,,,,,,,,,,,,,,,,,masks/mask_002.jpg,,,,,,,,,,,,,,,,,,,,,,,,,,,,,,,,,,,,,,,,,,,,,,,,0,4,4,1,1,,,,,,,,,,,,,,,,,,,,,,,,,,,,,,,,,,,,,,,,,
532559,001,2022-11-21_24h55.56.398,Info_measure_main_exp,2022.2.2,Win32,59.90893841,,,,,,,,,,,,,,,,,,,,,,,,,,,,,,0,0.5198,1,,,,,,,,,,,,0,131,5,5,2238,2238,absent_patch/patch0002238.jpg,absent_patch/patch0002238.jpg,,,,,,,,,,,,,,,,,,,,-0.0390625,0.087239583,1,0,0,response7disk,33,-0.0078125,0.009114583,1,0,0,center_square,0,32,32,58,1,,,,,,,,,,,,,,,,,,,,,,,
532559,001,2022-11-21_24h55.56.398,Info_measure_main_exp,2022.2.2,Win32,59.90893841,,,,,,,,,,,,,,,,,,masks/mask_002.jpg,,,,,,,,,,,,,,,,,,,,,,,,,,,,,,,,,,,,,,,,,,,0,0,0,1,1,,,,,,,,,,,,,,,,,,,,,,,,,,,,,,,,,,,,,,,,,,,,,,
532559,001,2022-11-21_24h55.56.398,Info_measure_main_exp,2022.2.2,Win32,59.90893841,,,,,,,,,,,,,,,,,,masks/mask_004.jpg,,,,,,,,,,,,,,,,,,,,,,,,,,,,,,,,,,,,,,,,,,,0,1,1,3,1,,,,,,,,,,,,,,,,,,,,,,,,,,,,,,,,,,,,,,,,,,,,,,
532559,001,2022-11-21_24h55.56.398,Info_measure_main_exp,2022.2.2,Win32,59.90893841,,,,,,,,,,,,,,,,,,masks/mask_005.jpg,,,,,,,,,,,,,,,,,,,,,,,,,,,,,,,,,,,,,,,,,,,0,2,2,4,1,,,,,,,,,,,,,,,,,,,,,,,,,,,,,,,,,,,,,,,,,,,,,,
532559,001,2022-11-21_24h55.56.398,Info_measure_main_exp,2022.2.2,Win32,59.90893841,,,,,,,,,,,,,,,,,,masks/mask_001.jpg,,,,,,,,,,,,,,,,,,,,,,,,,,,,,,,,,,,,,,,,,,,0,3,3,0,1,,,,,,,,,,,,,,,,,,,,,,,,,,,,,,,,,,,,,,,,,,,,,,
532559,001,2022-11-21_24h55.56.398,Info_measure_main_exp,2022.2.2,Win32,59.90893841,,,,,,,,,,,,,,,,,,masks/mask_003.jpg,,,,,,,,,,,,,,,,,,,,,,,,,,,,,,,,,,,,,,,,,,,0,4,4,2,1,,,,,,,,,,,,,,,,,,,,,,,,,,,,,,,,,,,,,,,,,,,,,,
532559,001,2022-11-21_24h55.56.398,Info_measure_main_exp,2022.2.2,Win32,59.90893841,,,,,,,,,,,,,,,,,,masks/mask_001.jpg,,,,,,,,,,,,,,,,,,,,,,,,,,,,,,,,,,,,,,,,,,,,,,,,0,0,0,0,1,,,,,,,,,,,,,,,,,,,,,,,,,,,,,,,,,,,,,,,,,
532559,001,2022-11-21_24h55.56.398,Info_measure_main_exp,2022.2.2,Win32,59.90893841,,,,,,,,,,,,,,,,,,masks/mask_005.jpg,,,,,,,,,,,,,,,,,,,,,,,,,,,,,,,,,,,,,,,,,,,,,,,,0,1,1,4,1,,,,,,,,,,,,,,,,,,,,,,,,,,,,,,,,,,,,,,,,,
532559,001,2022-11-21_24h55.56.398,Info_measure_main_exp,2022.2.2,Win32,59.90893841,,,,,,,,,,,,,,,,,,masks/mask_002.jpg,,,,,,,,,,,,,,,,,,,,,,,,,,,,,,,,,,,,,,,,,,,,,,,,0,2,2,1,1,,,,,,,,,,,,,,,,,,,,,,,,,,,,,,,,,,,,,,,,,
532559,001,2022-11-21_24h55.56.398,Info_measure_main_exp,2022.2.2,Win32,59.90893841,,,,,,,,,,,,,,,,,,masks/mask_004.jpg,,,,,,,,,,,,,,,,,,,,,,,,,,,,,,,,,,,,,,,,,,,,,,,,0,3,3,3,1,,,,,,,,,,,,,,,,,,,,,,,,,,,,,,,,,,,,,,,,,
532559,001,2022-11-21_24h55.56.398,Info_measure_main_exp,2022.2.2,Win32,59.90893841,,,,,,,,,,,,,,,,,,masks/mask_003.jpg,,,,,,,,,,,,,,,,,,,,,,,,,,,,,,,,,,,,,,,,,,,,,,,,0,4,4,2,1,,,,,,,,,,,,,,,,,,,,,,,,,,,,,,,,,,,,,,,,,
532559,001,2022-11-21_24h55.56.398,Info_measure_main_exp,2022.2.2,Win32,59.90893841,,,,,,,,,,,,,,,,,,,,,,,,,,,,,,6,0.8164,1,,,,,,,,,,,,0,131,5,5,2142,2154,absent_patch/patch0002142.jpg,absent_patch/patch0002154.jpg,,,,,,,,,,,,,,,,,,,,0.059895833,0.014322917,1,0,0,response1disk,34,0,0.002604167,1,0,0,center_square,0,33,33,9,1,,,,,,,,,,,,,,,,,,,,,,,
532559,001,2022-11-21_24h55.56.398,Info_measure_main_exp,2022.2.2,Win32,59.90893841,,,,,,,,,,,,,,,,,,masks/mask_004.jpg,,,,,,,,,,,,,,,,,,,,,,,,,,,,,,,,,,,,,,,,,,,0,0,0,3,1,,,,,,,,,,,,,,,,,,,,,,,,,,,,,,,,,,,,,,,,,,,,,,
532559,001,2022-11-21_24h55.56.398,Info_measure_main_exp,2022.2.2,Win32,59.90893841,,,,,,,,,,,,,,,,,,masks/mask_002.jpg,,,,,,,,,,,,,,,,,,,,,,,,,,,,,,,,,,,,,,,,,,,0,1,1,1,1,,,,,,,,,,,,,,,,,,,,,,,,,,,,,,,,,,,,,,,,,,,,,,
532559,001,2022-11-21_24h55.56.398,Info_measure_main_exp,2022.2.2,Win32,59.90893841,,,,,,,,,,,,,,,,,,masks/mask_005.jpg,,,,,,,,,,,,,,,,,,,,,,,,,,,,,,,,,,,,,,,,,,,0,2,2,4,1,,,,,,,,,,,,,,,,,,,,,,,,,,,,,,,,,,,,,,,,,,,,,,
532559,001,2022-11-21_24h55.56.398,Info_measure_main_exp,2022.2.2,Win32,59.90893841,,,,,,,,,,,,,,,,,,masks/mask_003.jpg,,,,,,,,,,,,,,,,,,,,,,,,,,,,,,,,,,,,,,,,,,,0,3,3,2,1,,,,,,,,,,,,,,,,,,,,,,,,,,,,,,,,,,,,,,,,,,,,,,
532559,001,2022-11-21_24h55.56.398,Info_measure_main_exp,2022.2.2,Win32,59.90893841,,,,,,,,,,,,,,,,,,masks/mask_001.jpg,,,,,,,,,,,,,,,,,,,,,,,,,,,,,,,,,,,,,,,,,,,0,4,4,0,1,,,,,,,,,,,,,,,,,,,,,,,,,,,,,,,,,,,,,,,,,,,,,,
532559,001,2022-11-21_24h55.56.398,Info_measure_main_exp,2022.2.2,Win32,59.90893841,,,,,,,,,,,,,,,,,,masks/mask_003.jpg,,,,,,,,,,,,,,,,,,,,,,,,,,,,,,,,,,,,,,,,,,,,,,,,0,0,0,2,1,,,,,,,,,,,,,,,,,,,,,,,,,,,,,,,,,,,,,,,,,
532559,001,2022-11-21_24h55.56.398,Info_measure_main_exp,2022.2.2,Win32,59.90893841,,,,,,,,,,,,,,,,,,masks/mask_005.jpg,,,,,,,,,,,,,,,,,,,,,,,,,,,,,,,,,,,,,,,,,,,,,,,,0,1,1,4,1,,,,,,,,,,,,,,,,,,,,,,,,,,,,,,,,,,,,,,,,,
532559,001,2022-11-21_24h55.56.398,Info_measure_main_exp,2022.2.2,Win32,59.90893841,,,,,,,,,,,,,,,,,,masks/mask_004.jpg,,,,,,,,,,,,,,,,,,,,,,,,,,,,,,,,,,,,,,,,,,,,,,,,0,2,2,3,1,,,,,,,,,,,,,,,,,,,,,,,,,,,,,,,,,,,,,,,,,
532559,001,2022-11-21_24h55.56.398,Info_measure_main_exp,2022.2.2,Win32,59.90893841,,,,,,,,,,,,,,,,,,masks/mask_001.jpg,,,,,,,,,,,,,,,,,,,,,,,,,,,,,,,,,,,,,,,,,,,,,,,,0,3,3,0,1,,,,,,,,,,,,,,,,,,,,,,,,,,,,,,,,,,,,,,,,,
