participant,session,date,expName,psychopyVersion,OS,frameRate,space_press_continue.keys,space_press_continue.rt,space_press_continue_2.keys,space_press_continue_2.rt,space_press_continue_3.keys,space_press_continue_3.rt,space_press_continue_4.keys,space_press_continue_4.rt,space_press_continue_5.keys,space_press_continue_5.rt,space_press_continue_6.keys,space_press_continue_6.rt,prac_mask_loop_1.thisRepN,prac_mask_loop_1.thisTrialN,prac_mask_loop_1.thisN,prac_mask_loop_1.thisIndex,prac_mask_loop_1.ran,mask_name,prac_mask_loop_2.thisRepN,prac_mask_loop_2.thisTrialN,prac_mask_loop_2.thisN,prac_mask_loop_2.thisIndex,prac_mask_loop_2.ran,mouse_2.x,mouse_2.y,mouse_2.leftButton,mouse_2.midButton,mouse_2.rightButton,mouse_2.clicked_name,similarity,response_time,Pass,mouse_12.x,mouse_12.y,mouse_12.leftButton,mouse_12.midButton,mouse_12.rightButton,mouse_12.clicked_name,prac_loop.thisRepN,prac_loop.thisTrialN,prac_loop.thisN,prac_loop.thisIndex,prac_loop.ran,Pair_type,Image_num,Patch_1_loc,Patch_2_loc,Patch_1_info,Patch_2_info,Patch_1_name,Patch_2_name,mouse_1.x,mouse_1.y,mouse_1.leftButton,mouse_1.midButton,mouse_1.rightButton,mouse_1.time,mouse_1.clicked_name,space_press_continue_7.keys,space_press_continue_7.rt,mask_loop.thisRepN,mask_loop.thisTrialN,mask_loop.thisN,mask_loop.thisIndex,mask_loop.ran,mask_loop_2.thisRepN,mask_loop_2.thisTrialN,mask_loop_2.thisN,mask_loop_2.thisIndex,mask_loop_2.ran,mouse.x,mouse.y,mouse.leftButton,mouse.midButton,mouse.rightButton,mouse.clicked_name,trialNumber,mouse_11.x,mouse_11.y,mouse_11.leftButton,mouse_11.midButton,mouse_11.rightButton,mouse_11.clicked_name,first_pass_loop.thisRepN,first_pass_loop.thisTrialN,first_pass_loop.thisN,first_pass_loop.thisIndex,first_pass_loop.ran,mask_loop_3.thisRepN,mask_loop_3.thisTrialN,mask_loop_3.thisN,mask_loop_3.thisIndex,mask_loop_3.ran,mask_loop_4.thisRepN,mask_loop_4.thisTrialN,mask_loop_4.thisN,mask_loop_4.thisIndex,mask_loop_4.ran,mouse_3.x,mouse_3.y,mouse_3.leftButton,mouse_3.midButton,mouse_3.rightButton,mouse_3.clicked_name,double_pass_loop.thisRepN,double_pass_loop.thisTrialN,double_pass_loop.thisN,double_pass_loop.thisIndex,double_pass_loop.ran,space_exit.keys,space_exit.rt
533200,001,2022-11-21_24h11.54.197,Info_measure_main_exp,2022.2.2,Win32,57.93742758,,,,,,,,,,,,,,,,,,,,,,,,,,,,,,,,,,,,,,,,,,,,,,,,,,,,,,,,,,,,,,,,,,,,,,,,,,,,,,,,,,,,,,,,,,,,,,,,,,,,,,,,,,,,,,,
533200,001,2022-11-21_24h11.54.197,Info_measure_main_exp,2022.2.2,Win32,57.93742758,,,,,,,,,,,,,,,,,,,,,,,,,,,,,,,,,,,,,,,,,,,,,,,,,,,,,,,,,,,,,,,,,,,,,,,,,,,,,,,,,,,,,,,,,,,,,,,,,,,,,,,,,,,,,,,
533200,001,2022-11-21_24h11.54.197,Info_measure_main_exp,2022.2.2,Win32,57.93742758,space,6.332,,,,,,,,,,,,,,,,,,,,,,,,,,,,,,,,,,,,,,,,,,,,,,,,,,,,,,,,,,,,,,,,,,,,,,,,,,,,,,,,,,,,,,,,,,,,,,,,,,,,,,,,,,,,,
533200,001,2022-11-21_24h11.54.197,Info_measure_main_exp,2022.2.2,Win32,57.93742758,,,space,22.5686,,,,,,,,,,,,,,,,,,,,,,,,,,,,,,,,,,,,,,,,,,,,,,,,,,,,,,,,,,,,,,,,,,,,,,,,,,,,,,,,,,,,,,,,,,,,,,,,,,,,,,,,,,,
533200,001,2022-11-21_24h11.54.197,Info_measure_main_exp,2022.2.2,Win32,57.93742758,,,,,space,8.7327,,,,,,,,,,,,,,,,,,,,,,,,,,,,,,,,,,,,,,,,,,,,,,,,,,,,,,,,,,,,,,,,,,,,,,,,,,,,,,,,,,,,,,,,,,,,,,,,,,,,,,,,,
533200,001,2022-11-21_24h11.54.197,Info_measure_main_exp,2022.2.2,Win32,57.93742758,,,,,,,space,23.7354,,,,,,,,,,,,,,,,,,,,,,,,,,,,,,,,,,,,,,,,,,,,,,,,,,,,,,,,,,,,,,,,,,,,,,,,,,,,,,,,,,,,,,,,,,,,,,,,,,,,,,,
533200,001,2022-11-21_24h11.54.197,Info_measure_main_exp,2022.2.2,Win32,57.93742758,,,,,,,,,space,13.2914,,,,,,,,,,,,,,,,,,,,,,,,,,,,,,,,,,,,,,,,,,,,,,,,,,,,,,,,,,,,,,,,,,,,,,,,,,,,,,,,,,,,,,,,,,,,,,,,,,,,,
533200,001,2022-11-21_24h11.54.197,Info_measure_main_exp,2022.2.2,Win32,57.93742758,,,,,,,,,,,space,6.0085,,,,,,,,,,,,,,,,,,,,,,,,,,,,,,,,,,,,,,,,,,,,,,,,,,,,,,,,,,,,,,,,,,,,,,,,,,,,,,,,,,,,,,,,,,,,,,,,,,,
533200,001,2022-11-21_24h11.54.197,Info_measure_main_exp,2022.2.2,Win32,57.93742758,,,,,,,,,,,,,0,0,0,1,1,masks/mask_002.jpg,,,,,,,,,,,,,,,,,,,,,,,,,,,,,,,,,,,,,,,,,,,,,,,,,,,,,,,,,,,,,,,,,,,,,,,,,,,,,,,,,,,,,,,,,,,,,
533200,001,2022-11-21_24h11.54.197,Info_measure_main_exp,2022.2.2,Win32,57.93742758,,,,,,,,,,,,,0,1,1,0,1,masks/mask_001.jpg,,,,,,,,,,,,,,,,,,,,,,,,,,,,,,,,,,,,,,,,,,,,,,,,,,,,,,,,,,,,,,,,,,,,,,,,,,,,,,,,,,,,,,,,,,,,,
533200,001,2022-11-21_24h11.54.197,Info_measure_main_exp,2022.2.2,Win32,57.93742758,,,,,,,,,,,,,0,2,2,3,1,masks/mask_004.jpg,,,,,,,,,,,,,,,,,,,,,,,,,,,,,,,,,,,,,,,,,,,,,,,,,,,,,,,,,,,,,,,,,,,,,,,,,,,,,,,,,,,,,,,,,,,,,
533200,001,2022-11-21_24h11.54.197,Info_measure_main_exp,2022.2.2,Win32,57.93742758,,,,,,,,,,,,,0,3,3,2,1,masks/mask_003.jpg,,,,,,,,,,,,,,,,,,,,,,,,,,,,,,,,,,,,,,,,,,,,,,,,,,,,,,,,,,,,,,,,,,,,,,,,,,,,,,,,,,,,,,,,,,,,,
533200,001,2022-11-21_24h11.54.197,Info_measure_main_exp,2022.2.2,Win32,57.93742758,,,,,,,,,,,,,0,4,4,4,1,masks/mask_005.jpg,,,,,,,,,,,,,,,,,,,,,,,,,,,,,,,,,,,,,,,,,,,,,,,,,,,,,,,,,,,,,,,,,,,,,,,,,,,,,,,,,,,,,,,,,,,,,
533200,001,2022-11-21_24h11.54.197,Info_measure_main_exp,2022.2.2,Win32,57.93742758,,,,,,,,,,,,,,,,,,masks/mask_004.jpg,0,0,0,3,1,,,,,,,,,,,,,,,,,,,,,,,,,,,,,,,,,,,,,,,,,,,,,,,,,,,,,,,,,,,,,,,,,,,,,,,,,,,,,,,,,,,,,,,,
533200,001,2022-11-21_24h11.54.197,Info_measure_main_exp,2022.2.2,Win32,57.93742758,,,,,,,,,,,,,,,,,,masks/mask_001.jpg,0,1,1,0,1,,,,,,,,,,,,,,,,,,,,,,,,,,,,,,,,,,,,,,,,,,,,,,,,,,,,,,,,,,,,,,,,,,,,,,,,,,,,,,,,,,,,,,,,
533200,001,2022-11-21_24h11.54.197,Info_measure_main_exp,2022.2.2,Win32,57.93742758,,,,,,,,,,,,,,,,,,masks/mask_002.jpg,0,2,2,1,1,,,,,,,,,,,,,,,,,,,,,,,,,,,,,,,,,,,,,,,,,,,,,,,,,,,,,,,,,,,,,,,,,,,,,,,,,,,,,,,,,,,,,,,,
533200,001,2022-11-21_24h11.54.197,Info_measure_main_exp,2022.2.2,Win32,57.93742758,,,,,,,,,,,,,,,,,,masks/mask_003.jpg,0,3,3,2,1,,,,,,,,,,,,,,,,,,,,,,,,,,,,,,,,,,,,,,,,,,,,,,,,,,,,,,,,,,,,,,,,,,,,,,,,,,,,,,,,,,,,,,,,
533200,001,2022-11-21_24h11.54.197,Info_measure_main_exp,2022.2.2,Win32,57.93742758,,,,,,,,,,,,,,,,,,masks/mask_005.jpg,0,4,4,4,1,,,,,,,,,,,,,,,,,,,,,,,,,,,,,,,,,,,,,,,,,,,,,,,,,,,,,,,,,,,,,,,,,,,,,,,,,,,,,,,,,,,,,,,,
533200,001,2022-11-21_24h11.54.197,Info_measure_main_exp,2022.2.2,Win32,57.93742758,,,,,,,,,,,,,,,,,,,,,,,,0.127604167,0.059895833,1,0,0,response1disk,6,89.7823,1,-0.006510417,0.002604167,1,0,0,center_square,0,0,0,2,1,0,131,5,5,2526,2526,prac_patch/patch0002526.jpg,prac_patch/patch0002526.jpg,,,,,,,,,,,,,,,,,,,,,,,,,,,,,,,,,,,,,,,,,,,,,,,,,,,,,,,,,,,,
533200,001,2022-11-21_24h11.54.197,Info_measure_main_exp,2022.2.2,Win32,57.93742758,,,,,,,,,,,,,0,0,0,2,1,masks/mask_003.jpg,,,,,,,,,,,,,,,,,,,,,,,,,,,,,,,,,,,,,,,,,,,,,,,,,,,,,,,,,,,,,,,,,,,,,,,,,,,,,,,,,,,,,,,,,,,,,
533200,001,2022-11-21_24h11.54.197,Info_measure_main_exp,2022.2.2,Win32,57.93742758,,,,,,,,,,,,,0,1,1,4,1,masks/mask_005.jpg,,,,,,,,,,,,,,,,,,,,,,,,,,,,,,,,,,,,,,,,,,,,,,,,,,,,,,,,,,,,,,,,,,,,,,,,,,,,,,,,,,,,,,,,,,,,,
533200,001,2022-11-21_24h11.54.197,Info_measure_main_exp,2022.2.2,Win32,57.93742758,,,,,,,,,,,,,0,2,2,3,1,masks/mask_004.jpg,,,,,,,,,,,,,,,,,,,,,,,,,,,,,,,,,,,,,,,,,,,,,,,,,,,,,,,,,,,,,,,,,,,,,,,,,,,,,,,,,,,,,,,,,,,,,
533200,001,2022-11-21_24h11.54.197,Info_measure_main_exp,2022.2.2,Win32,57.93742758,,,,,,,,,,,,,0,3,3,1,1,masks/mask_002.jpg,,,,,,,,,,,,,,,,,,,,,,,,,,,,,,,,,,,,,,,,,,,,,,,,,,,,,,,,,,,,,,,,,,,,,,,,,,,,,,,,,,,,,,,,,,,,,
533200,001,2022-11-21_24h11.54.197,Info_measure_main_exp,2022.2.2,Win32,57.93742758,,,,,,,,,,,,,0,4,4,0,1,masks/mask_001.jpg,,,,,,,,,,,,,,,,,,,,,,,,,,,,,,,,,,,,,,,,,,,,,,,,,,,,,,,,,,,,,,,,,,,,,,,,,,,,,,,,,,,,,,,,,,,,,
533200,001,2022-11-21_24h11.54.197,Info_measure_main_exp,2022.2.2,Win32,57.93742758,,,,,,,,,,,,,,,,,,masks/mask_002.jpg,0,0,0,1,1,,,,,,,,,,,,,,,,,,,,,,,,,,,,,,,,,,,,,,,,,,,,,,,,,,,,,,,,,,,,,,,,,,,,,,,,,,,,,,,,,,,,,,,,
533200,001,2022-11-21_24h11.54.197,Info_measure_main_exp,2022.2.2,Win32,57.93742758,,,,,,,,,,,,,,,,,,masks/mask_005.jpg,0,1,1,4,1,,,,,,,,,,,,,,,,,,,,,,,,,,,,,,,,,,,,,,,,,,,,,,,,,,,,,,,,,,,,,,,,,,,,,,,,,,,,,,,,,,,,,,,,
533200,001,2022-11-21_24h11.54.197,Info_measure_main_exp,2022.2.2,Win32,57.93742758,,,,,,,,,,,,,,,,,,masks/mask_003.jpg,0,2,2,2,1,,,,,,,,,,,,,,,,,,,,,,,,,,,,,,,,,,,,,,,,,,,,,,,,,,,,,,,,,,,,,,,,,,,,,,,,,,,,,,,,,,,,,,,,
533200,001,2022-11-21_24h11.54.197,Info_measure_main_exp,2022.2.2,Win32,57.93742758,,,,,,,,,,,,,,,,,,masks/mask_004.jpg,0,3,3,3,1,,,,,,,,,,,,,,,,,,,,,,,,,,,,,,,,,,,,,,,,,,,,,,,,,,,,,,,,,,,,,,,,,,,,,,,,,,,,,,,,,,,,,,,,
533200,001,2022-11-21_24h11.54.197,Info_measure_main_exp,2022.2.2,Win32,57.93742758,,,,,,,,,,,,,,,,,,masks/mask_001.jpg,0,4,4,0,1,,,,,,,,,,,,,,,,,,,,,,,,,,,,,,,,,,,,,,,,,,,,,,,,,,,,,,,,,,,,,,,,,,,,,,,,,,,,,,,,,,,,,,,,
533200,001,2022-11-21_24h11.54.197,Info_measure_main_exp,2022.2.2,Win32,57.93742758,,,,,,,,,,,,,,,,,,,,,,,,0.053385417,-0.108072917,1,0,0,response3disk,4,103.4905,1,0.002604167,-0.00390625,1,0,0,center_square,0,1,1,0,1,0,131,5,5,2370,2406,prac_patch/patch0002370.jpg,prac_patch/patch0002406.jpg,,,,,,,,,,,,,,,,,,,,,,,,,,,,,,,,,,,,,,,,,,,,,,,,,,,,,,,,,,,,
533200,001,2022-11-21_24h11.54.197,Info_measure_main_exp,2022.2.2,Win32,57.93742758,,,,,,,,,,,,,0,0,0,3,1,masks/mask_004.jpg,,,,,,,,,,,,,,,,,,,,,,,,,,,,,,,,,,,,,,,,,,,,,,,,,,,,,,,,,,,,,,,,,,,,,,,,,,,,,,,,,,,,,,,,,,,,,
533200,001,2022-11-21_24h11.54.197,Info_measure_main_exp,2022.2.2,Win32,57.93742758,,,,,,,,,,,,,0,1,1,0,1,masks/mask_001.jpg,,,,,,,,,,,,,,,,,,,,,,,,,,,,,,,,,,,,,,,,,,,,,,,,,,,,,,,,,,,,,,,,,,,,,,,,,,,,,,,,,,,,,,,,,,,,,
533200,001,2022-11-21_24h11.54.197,Info_measure_main_exp,2022.2.2,Win32,57.93742758,,,,,,,,,,,,,0,2,2,4,1,masks/mask_005.jpg,,,,,,,,,,,,,,,,,,,,,,,,,,,,,,,,,,,,,,,,,,,,,,,,,,,,,,,,,,,,,,,,,,,,,,,,,,,,,,,,,,,,,,,,,,,,,
533200,001,2022-11-21_24h11.54.197,Info_measure_main_exp,2022.2.2,Win32,57.93742758,,,,,,,,,,,,,0,3,3,2,1,masks/mask_003.jpg,,,,,,,,,,,,,,,,,,,,,,,,,,,,,,,,,,,,,,,,,,,,,,,,,,,,,,,,,,,,,,,,,,,,,,,,,,,,,,,,,,,,,,,,,,,,,
533200,001,2022-11-21_24h11.54.197,Info_measure_main_exp,2022.2.2,Win32,57.93742758,,,,,,,,,,,,,0,4,4,1,1,masks/mask_002.jpg,,,,,,,,,,,,,,,,,,,,,,,,,,,,,,,,,,,,,,,,,,,,,,,,,,,,,,,,,,,,,,,,,,,,,,,,,,,,,,,,,,,,,,,,,,,,,
533200,001,2022-11-21_24h11.54.197,Info_measure_main_exp,2022.2.2,Win32,57.93742758,,,,,,,,,,,,,,,,,,masks/mask_004.jpg,0,0,0,3,1,,,,,,,,,,,,,,,,,,,,,,,,,,,,,,,,,,,,,,,,,,,,,,,,,,,,,,,,,,,,,,,,,,,,,,,,,,,,,,,,,,,,,,,,
533200,001,2022-11-21_24h11.54.197,Info_measure_main_exp,2022.2.2,Win32,57.93742758,,,,,,,,,,,,,,,,,,masks/mask_003.jpg,0,1,1,2,1,,,,,,,,,,,,,,,,,,,,,,,,,,,,,,,,,,,,,,,,,,,,,,,,,,,,,,,,,,,,,,,,,,,,,,,,,,,,,,,,,,,,,,,,
533200,001,2022-11-21_24h11.54.197,Info_measure_main_exp,2022.2.2,Win32,57.93742758,,,,,,,,,,,,,,,,,,masks/mask_002.jpg,0,2,2,1,1,,,,,,,,,,,,,,,,,,,,,,,,,,,,,,,,,,,,,,,,,,,,,,,,,,,,,,,,,,,,,,,,,,,,,,,,,,,,,,,,,,,,,,,,
533200,001,2022-11-21_24h11.54.197,Info_measure_main_exp,2022.2.2,Win32,57.93742758,,,,,,,,,,,,,,,,,,masks/mask_001.jpg,0,3,3,0,1,,,,,,,,,,,,,,,,,,,,,,,,,,,,,,,,,,,,,,,,,,,,,,,,,,,,,,,,,,,,,,,,,,,,,,,,,,,,,,,,,,,,,,,,
533200,001,2022-11-21_24h11.54.197,Info_measure_main_exp,2022.2.2,Win32,57.93742758,,,,,,,,,,,,,,,,,,masks/mask_005.jpg,0,4,4,4,1,,,,,,,,,,,,,,,,,,,,,,,,,,,,,,,,,,,,,,,,,,,,,,,,,,,,,,,,,,,,,,,,,,,,,,,,,,,,,,,,,,,,,,,,
533200,001,2022-11-21_24h11.54.197,Info_measure_main_exp,2022.2.2,Win32,57.93742758,,,,,,,,,,,,,,,,,,,,,,,,-0.032552083,-0.071614583,1,0,0,response5disk,3,112.3261,1,0.00390625,-0.00390625,1,0,0,center_square,0,2,2,1,1,0,131,5,5,2514,2490,prac_patch/patch0002514.jpg,prac_patch/patch0002490.jpg,,,,,,,,,,,,,,,,,,,,,,,,,,,,,,,,,,,,,,,,,,,,,,,,,,,,,,,,,,,,
533200,001,2022-11-21_24h11.54.197,Info_measure_main_exp,2022.2.2,Win32,57.93742758,,,,,,,,,,,,,,,,,,,,,,,,,,,,,,,,,,,,,,,,,,,,,,,,,,,,,,,,,,,space,3.511,,,,,,,,,,,,,,,,,,,,,,,,,,,,,,,,,,,,,,,,,,,,,,,,,,,
533200,001,2022-11-21_24h11.54.197,Info_measure_main_exp,2022.2.2,Win32,57.93742758,,,,,,,,,,,,,,,,,,masks/mask_003.jpg,,,,,,,,,,,,,,,,,,,,,,,,,,,,,,,,,,,,,,,,,,,0,0,0,2,1,,,,,,,,,,,,,,,,,,,,,,,,,,,,,,,,,,,,,,,,,,,,,,
533200,001,2022-11-21_24h11.54.197,Info_measure_main_exp,2022.2.2,Win32,57.93742758,,,,,,,,,,,,,,,,,,masks/mask_002.jpg,,,,,,,,,,,,,,,,,,,,,,,,,,,,,,,,,,,,,,,,,,,0,1,1,1,1,,,,,,,,,,,,,,,,,,,,,,,,,,,,,,,,,,,,,,,,,,,,,,
533200,001,2022-11-21_24h11.54.197,Info_measure_main_exp,2022.2.2,Win32,57.93742758,,,,,,,,,,,,,,,,,,masks/mask_001.jpg,,,,,,,,,,,,,,,,,,,,,,,,,,,,,,,,,,,,,,,,,,,0,2,2,0,1,,,,,,,,,,,,,,,,,,,,,,,,,,,,,,,,,,,,,,,,,,,,,,
533200,001,2022-11-21_24h11.54.197,Info_measure_main_exp,2022.2.2,Win32,57.93742758,,,,,,,,,,,,,,,,,,masks/mask_005.jpg,,,,,,,,,,,,,,,,,,,,,,,,,,,,,,,,,,,,,,,,,,,0,3,3,4,1,,,,,,,,,,,,,,,,,,,,,,,,,,,,,,,,,,,,,,,,,,,,,,
533200,001,2022-11-21_24h11.54.197,Info_measure_main_exp,2022.2.2,Win32,57.93742758,,,,,,,,,,,,,,,,,,masks/mask_004.jpg,,,,,,,,,,,,,,,,,,,,,,,,,,,,,,,,,,,,,,,,,,,0,4,4,3,1,,,,,,,,,,,,,,,,,,,,,,,,,,,,,,,,,,,,,,,,,,,,,,
533200,001,2022-11-21_24h11.54.197,Info_measure_main_exp,2022.2.2,Win32,57.93742758,,,,,,,,,,,,,,,,,,masks/mask_001.jpg,,,,,,,,,,,,,,,,,,,,,,,,,,,,,,,,,,,,,,,,,,,,,,,,0,0,0,0,1,,,,,,,,,,,,,,,,,,,,,,,,,,,,,,,,,,,,,,,,,
533200,001,2022-11-21_24h11.54.197,Info_measure_main_exp,2022.2.2,Win32,57.93742758,,,,,,,,,,,,,,,,,,masks/mask_002.jpg,,,,,,,,,,,,,,,,,,,,,,,,,,,,,,,,,,,,,,,,,,,,,,,,0,1,1,1,1,,,,,,,,,,,,,,,,,,,,,,,,,,,,,,,,,,,,,,,,,
533200,001,2022-11-21_24h11.54.197,Info_measure_main_exp,2022.2.2,Win32,57.93742758,,,,,,,,,,,,,,,,,,masks/mask_003.jpg,,,,,,,,,,,,,,,,,,,,,,,,,,,,,,,,,,,,,,,,,,,,,,,,0,2,2,2,1,,,,,,,,,,,,,,,,,,,,,,,,,,,,,,,,,,,,,,,,,
533200,001,2022-11-21_24h11.54.197,Info_measure_main_exp,2022.2.2,Win32,57.93742758,,,,,,,,,,,,,,,,,,masks/mask_004.jpg,,,,,,,,,,,,,,,,,,,,,,,,,,,,,,,,,,,,,,,,,,,,,,,,0,3,3,3,1,,,,,,,,,,,,,,,,,,,,,,,,,,,,,,,,,,,,,,,,,
533200,001,2022-11-21_24h11.54.197,Info_measure_main_exp,2022.2.2,Win32,57.93742758,,,,,,,,,,,,,,,,,,masks/mask_005.jpg,,,,,,,,,,,,,,,,,,,,,,,,,,,,,,,,,,,,,,,,,,,,,,,,0,4,4,4,1,,,,,,,,,,,,,,,,,,,,,,,,,,,,,,,,,,,,,,,,,
533200,001,2022-11-21_24h11.54.197,Info_measure_main_exp,2022.2.2,Win32,57.93742758,,,,,,,,,,,,,,,,,,,,,,,,,,,,,,0,1.8347,1,,,,,,,,,,,,1,131,5,5,1,1,present_patch/cong_131_5_a.jpg,present_patch/cong_131_5_a.jpg,,,,,,,,,,,,,,,,,,,,-0.033854167,0.1015625,1,0,0,response7disk,1,-0.009114583,-0.001302083,1,0,0,center_square,0,0,0,30,1,,,,,,,,,,,,,,,,,,,,,,,
533200,001,2022-11-21_24h11.54.197,Info_measure_main_exp,2022.2.2,Win32,57.93742758,,,,,,,,,,,,,,,,,,masks/mask_005.jpg,,,,,,,,,,,,,,,,,,,,,,,,,,,,,,,,,,,,,,,,,,,0,0,0,4,1,,,,,,,,,,,,,,,,,,,,,,,,,,,,,,,,,,,,,,,,,,,,,,
533200,001,2022-11-21_24h11.54.197,Info_measure_main_exp,2022.2.2,Win32,57.93742758,,,,,,,,,,,,,,,,,,masks/mask_003.jpg,,,,,,,,,,,,,,,,,,,,,,,,,,,,,,,,,,,,,,,,,,,0,1,1,2,1,,,,,,,,,,,,,,,,,,,,,,,,,,,,,,,,,,,,,,,,,,,,,,
533200,001,2022-11-21_24h11.54.197,Info_measure_main_exp,2022.2.2,Win32,57.93742758,,,,,,,,,,,,,,,,,,masks/mask_001.jpg,,,,,,,,,,,,,,,,,,,,,,,,,,,,,,,,,,,,,,,,,,,0,2,2,0,1,,,,,,,,,,,,,,,,,,,,,,,,,,,,,,,,,,,,,,,,,,,,,,
533200,001,2022-11-21_24h11.54.197,Info_measure_main_exp,2022.2.2,Win32,57.93742758,,,,,,,,,,,,,,,,,,masks/mask_002.jpg,,,,,,,,,,,,,,,,,,,,,,,,,,,,,,,,,,,,,,,,,,,0,3,3,1,1,,,,,,,,,,,,,,,,,,,,,,,,,,,,,,,,,,,,,,,,,,,,,,
533200,001,2022-11-21_24h11.54.197,Info_measure_main_exp,2022.2.2,Win32,57.93742758,,,,,,,,,,,,,,,,,,masks/mask_004.jpg,,,,,,,,,,,,,,,,,,,,,,,,,,,,,,,,,,,,,,,,,,,0,4,4,3,1,,,,,,,,,,,,,,,,,,,,,,,,,,,,,,,,,,,,,,,,,,,,,,
533200,001,2022-11-21_24h11.54.197,Info_measure_main_exp,2022.2.2,Win32,57.93742758,,,,,,,,,,,,,,,,,,masks/mask_003.jpg,,,,,,,,,,,,,,,,,,,,,,,,,,,,,,,,,,,,,,,,,,,,,,,,0,0,0,2,1,,,,,,,,,,,,,,,,,,,,,,,,,,,,,,,,,,,,,,,,,
533200,001,2022-11-21_24h11.54.197,Info_measure_main_exp,2022.2.2,Win32,57.93742758,,,,,,,,,,,,,,,,,,masks/mask_001.jpg,,,,,,,,,,,,,,,,,,,,,,,,,,,,,,,,,,,,,,,,,,,,,,,,0,1,1,0,1,,,,,,,,,,,,,,,,,,,,,,,,,,,,,,,,,,,,,,,,,
533200,001,2022-11-21_24h11.54.197,Info_measure_main_exp,2022.2.2,Win32,57.93742758,,,,,,,,,,,,,,,,,,masks/mask_002.jpg,,,,,,,,,,,,,,,,,,,,,,,,,,,,,,,,,,,,,,,,,,,,,,,,0,2,2,1,1,,,,,,,,,,,,,,,,,,,,,,,,,,,,,,,,,,,,,,,,,
533200,001,2022-11-21_24h11.54.197,Info_measure_main_exp,2022.2.2,Win32,57.93742758,,,,,,,,,,,,,,,,,,masks/mask_005.jpg,,,,,,,,,,,,,,,,,,,,,,,,,,,,,,,,,,,,,,,,,,,,,,,,0,3,3,4,1,,,,,,,,,,,,,,,,,,,,,,,,,,,,,,,,,,,,,,,,,
533200,001,2022-11-21_24h11.54.197,Info_measure_main_exp,2022.2.2,Win32,57.93742758,,,,,,,,,,,,,,,,,,masks/mask_004.jpg,,,,,,,,,,,,,,,,,,,,,,,,,,,,,,,,,,,,,,,,,,,,,,,,0,4,4,3,1,,,,,,,,,,,,,,,,,,,,,,,,,,,,,,,,,,,,,,,,,
533200,001,2022-11-21_24h11.54.197,Info_measure_main_exp,2022.2.2,Win32,57.93742758,,,,,,,,,,,,,,,,,,,,,,,,,,,,,,5,1.8195,1,,,,,,,,,,,,0,131,5,5,1950,2142,absent_patch/patch0001950.jpg,absent_patch/patch0002142.jpg,,,,,,,,,,,,,,,,,,,,0.11328125,-0.048177083,1,0,0,response3disk,2,0.001302083,0.005208333,1,0,0,center_square,0,1,1,83,1,,,,,,,,,,,,,,,,,,,,,,,
533200,001,2022-11-21_24h11.54.197,Info_measure_main_exp,2022.2.2,Win32,57.93742758,,,,,,,,,,,,,,,,,,masks/mask_002.jpg,,,,,,,,,,,,,,,,,,,,,,,,,,,,,,,,,,,,,,,,,,,0,0,0,1,1,,,,,,,,,,,,,,,,,,,,,,,,,,,,,,,,,,,,,,,,,,,,,,
533200,001,2022-11-21_24h11.54.197,Info_measure_main_exp,2022.2.2,Win32,57.93742758,,,,,,,,,,,,,,,,,,masks/mask_001.jpg,,,,,,,,,,,,,,,,,,,,,,,,,,,,,,,,,,,,,,,,,,,0,1,1,0,1,,,,,,,,,,,,,,,,,,,,,,,,,,,,,,,,,,,,,,,,,,,,,,
533200,001,2022-11-21_24h11.54.197,Info_measure_main_exp,2022.2.2,Win32,57.93742758,,,,,,,,,,,,,,,,,,masks/mask_005.jpg,,,,,,,,,,,,,,,,,,,,,,,,,,,,,,,,,,,,,,,,,,,0,2,2,4,1,,,,,,,,,,,,,,,,,,,,,,,,,,,,,,,,,,,,,,,,,,,,,,
533200,001,2022-11-21_24h11.54.197,Info_measure_main_exp,2022.2.2,Win32,57.93742758,,,,,,,,,,,,,,,,,,masks/mask_004.jpg,,,,,,,,,,,,,,,,,,,,,,,,,,,,,,,,,,,,,,,,,,,0,3,3,3,1,,,,,,,,,,,,,,,,,,,,,,,,,,,,,,,,,,,,,,,,,,,,,,
533200,001,2022-11-21_24h11.54.197,Info_measure_main_exp,2022.2.2,Win32,57.93742758,,,,,,,,,,,,,,,,,,masks/mask_003.jpg,,,,,,,,,,,,,,,,,,,,,,,,,,,,,,,,,,,,,,,,,,,0,4,4,2,1,,,,,,,,,,,,,,,,,,,,,,,,,,,,,,,,,,,,,,,,,,,,,,
533200,001,2022-11-21_24h11.54.197,Info_measure_main_exp,2022.2.2,Win32,57.93742758,,,,,,,,,,,,,,,,,,masks/mask_003.jpg,,,,,,,,,,,,,,,,,,,,,,,,,,,,,,,,,,,,,,,,,,,,,,,,0,0,0,2,1,,,,,,,,,,,,,,,,,,,,,,,,,,,,,,,,,,,,,,,,,
533200,001,2022-11-21_24h11.54.197,Info_measure_main_exp,2022.2.2,Win32,57.93742758,,,,,,,,,,,,,,,,,,masks/mask_001.jpg,,,,,,,,,,,,,,,,,,,,,,,,,,,,,,,,,,,,,,,,,,,,,,,,0,1,1,0,1,,,,,,,,,,,,,,,,,,,,,,,,,,,,,,,,,,,,,,,,,
533200,001,2022-11-21_24h11.54.197,Info_measure_main_exp,2022.2.2,Win32,57.93742758,,,,,,,,,,,,,,,,,,masks/mask_005.jpg,,,,,,,,,,,,,,,,,,,,,,,,,,,,,,,,,,,,,,,,,,,,,,,,0,2,2,4,1,,,,,,,,,,,,,,,,,,,,,,,,,,,,,,,,,,,,,,,,,
533200,001,2022-11-21_24h11.54.197,Info_measure_main_exp,2022.2.2,Win32,57.93742758,,,,,,,,,,,,,,,,,,masks/mask_004.jpg,,,,,,,,,,,,,,,,,,,,,,,,,,,,,,,,,,,,,,,,,,,,,,,,0,3,3,3,1,,,,,,,,,,,,,,,,,,,,,,,,,,,,,,,,,,,,,,,,,
533200,001,2022-11-21_24h11.54.197,Info_measure_main_exp,2022.2.2,Win32,57.93742758,,,,,,,,,,,,,,,,,,masks/mask_002.jpg,,,,,,,,,,,,,,,,,,,,,,,,,,,,,,,,,,,,,,,,,,,,,,,,0,4,4,1,1,,,,,,,,,,,,,,,,,,,,,,,,,,,,,,,,,,,,,,,,,
533200,001,2022-11-21_24h11.54.197,Info_measure_main_exp,2022.2.2,Win32,57.93742758,,,,,,,,,,,,,,,,,,,,,,,,,,,,,,7,1.2523,1,,,,,,,,,,,,0,131,5,5,2082,2238,absent_patch/patch0002082.jpg,absent_patch/patch0002238.jpg,,,,,,,,,,,,,,,,,,,,0.03515625,0.106770833,1,0,0,response1disk,3,-0.00390625,0.002604167,1,0,0,center_square,0,2,2,22,1,,,,,,,,,,,,,,,,,,,,,,,
533200,001,2022-11-21_24h11.54.197,Info_measure_main_exp,2022.2.2,Win32,57.93742758,,,,,,,,,,,,,,,,,,masks/mask_002.jpg,,,,,,,,,,,,,,,,,,,,,,,,,,,,,,,,,,,,,,,,,,,0,0,0,1,1,,,,,,,,,,,,,,,,,,,,,,,,,,,,,,,,,,,,,,,,,,,,,,
533200,001,2022-11-21_24h11.54.197,Info_measure_main_exp,2022.2.2,Win32,57.93742758,,,,,,,,,,,,,,,,,,masks/mask_004.jpg,,,,,,,,,,,,,,,,,,,,,,,,,,,,,,,,,,,,,,,,,,,0,1,1,3,1,,,,,,,,,,,,,,,,,,,,,,,,,,,,,,,,,,,,,,,,,,,,,,
533200,001,2022-11-21_24h11.54.197,Info_measure_main_exp,2022.2.2,Win32,57.93742758,,,,,,,,,,,,,,,,,,masks/mask_005.jpg,,,,,,,,,,,,,,,,,,,,,,,,,,,,,,,,,,,,,,,,,,,0,2,2,4,1,,,,,,,,,,,,,,,,,,,,,,,,,,,,,,,,,,,,,,,,,,,,,,
533200,001,2022-11-21_24h11.54.197,Info_measure_main_exp,2022.2.2,Win32,57.93742758,,,,,,,,,,,,,,,,,,masks/mask_001.jpg,,,,,,,,,,,,,,,,,,,,,,,,,,,,,,,,,,,,,,,,,,,0,3,3,0,1,,,,,,,,,,,,,,,,,,,,,,,,,,,,,,,,,,,,,,,,,,,,,,
533200,001,2022-11-21_24h11.54.197,Info_measure_main_exp,2022.2.2,Win32,57.93742758,,,,,,,,,,,,,,,,,,masks/mask_003.jpg,,,,,,,,,,,,,,,,,,,,,,,,,,,,,,,,,,,,,,,,,,,0,4,4,2,1,,,,,,,,,,,,,,,,,,,,,,,,,,,,,,,,,,,,,,,,,,,,,,
533200,001,2022-11-21_24h11.54.197,Info_measure_main_exp,2022.2.2,Win32,57.93742758,,,,,,,,,,,,,,,,,,masks/mask_003.jpg,,,,,,,,,,,,,,,,,,,,,,,,,,,,,,,,,,,,,,,,,,,,,,,,0,0,0,2,1,,,,,,,,,,,,,,,,,,,,,,,,,,,,,,,,,,,,,,,,,
533200,001,2022-11-21_24h11.54.197,Info_measure_main_exp,2022.2.2,Win32,57.93742758,,,,,,,,,,,,,,,,,,masks/mask_004.jpg,,,,,,,,,,,,,,,,,,,,,,,,,,,,,,,,,,,,,,,,,,,,,,,,0,1,1,3,1,,,,,,,,,,,,,,,,,,,,,,,,,,,,,,,,,,,,,,,,,
533200,001,2022-11-21_24h11.54.197,Info_measure_main_exp,2022.2.2,Win32,57.93742758,,,,,,,,,,,,,,,,,,masks/mask_002.jpg,,,,,,,,,,,,,,,,,,,,,,,,,,,,,,,,,,,,,,,,,,,,,,,,0,2,2,1,1,,,,,,,,,,,,,,,,,,,,,,,,,,,,,,,,,,,,,,,,,
533200,001,2022-11-21_24h11.54.197,Info_measure_main_exp,2022.2.2,Win32,57.93742758,,,,,,,,,,,,,,,,,,masks/mask_005.jpg,,,,,,,,,,,,,,,,,,,,,,,,,,,,,,,,,,,,,,,,,,,,,,,,0,3,3,4,1,,,,,,,,,,,,,,,,,,,,,,,,,,,,,,,,,,,,,,,,,
533200,001,2022-11-21_24h11.54.197,Info_measure_main_exp,2022.2.2,Win32,57.93742758,,,,,,,,,,,,,,,,,,masks/mask_001.jpg,,,,,,,,,,,,,,,,,,,,,,,,,,,,,,,,,,,,,,,,,,,,,,,,0,4,4,0,1,,,,,,,,,,,,,,,,,,,,,,,,,,,,,,,,,,,,,,,,,
533200,001,2022-11-21_24h11.54.197,Info_measure_main_exp,2022.2.2,Win32,57.93742758,,,,,,,,,,,,,,,,,,,,,,,,,,,,,,6,2.0258,1,,,,,,,,,,,,0,131,5,5,2214,1986,absent_patch/patch0002214.jpg,absent_patch/patch0001986.jpg,,,,,,,,,,,,,,,,,,,,0.087239583,0.049479167,1,0,0,response1disk,4,-0.0078125,-0.0078125,1,0,0,center_square,0,3,3,34,1,,,,,,,,,,,,,,,,,,,,,,,
533200,001,2022-11-21_24h11.54.197,Info_measure_main_exp,2022.2.2,Win32,57.93742758,,,,,,,,,,,,,,,,,,masks/mask_002.jpg,,,,,,,,,,,,,,,,,,,,,,,,,,,,,,,,,,,,,,,,,,,0,0,0,1,1,,,,,,,,,,,,,,,,,,,,,,,,,,,,,,,,,,,,,,,,,,,,,,
533200,001,2022-11-21_24h11.54.197,Info_measure_main_exp,2022.2.2,Win32,57.93742758,,,,,,,,,,,,,,,,,,masks/mask_003.jpg,,,,,,,,,,,,,,,,,,,,,,,,,,,,,,,,,,,,,,,,,,,0,1,1,2,1,,,,,,,,,,,,,,,,,,,,,,,,,,,,,,,,,,,,,,,,,,,,,,
533200,001,2022-11-21_24h11.54.197,Info_measure_main_exp,2022.2.2,Win32,57.93742758,,,,,,,,,,,,,,,,,,masks/mask_004.jpg,,,,,,,,,,,,,,,,,,,,,,,,,,,,,,,,,,,,,,,,,,,0,2,2,3,1,,,,,,,,,,,,,,,,,,,,,,,,,,,,,,,,,,,,,,,,,,,,,,
533200,001,2022-11-21_24h11.54.197,Info_measure_main_exp,2022.2.2,Win32,57.93742758,,,,,,,,,,,,,,,,,,masks/mask_005.jpg,,,,,,,,,,,,,,,,,,,,,,,,,,,,,,,,,,,,,,,,,,,0,3,3,4,1,,,,,,,,,,,,,,,,,,,,,,,,,,,,,,,,,,,,,,,,,,,,,,
533200,001,2022-11-21_24h11.54.197,Info_measure_main_exp,2022.2.2,Win32,57.93742758,,,,,,,,,,,,,,,,,,masks/mask_001.jpg,,,,,,,,,,,,,,,,,,,,,,,,,,,,,,,,,,,,,,,,,,,0,4,4,0,1,,,,,,,,,,,,,,,,,,,,,,,,,,,,,,,,,,,,,,,,,,,,,,
533200,001,2022-11-21_24h11.54.197,Info_measure_main_exp,2022.2.2,Win32,57.93742758,,,,,,,,,,,,,,,,,,masks/mask_003.jpg,,,,,,,,,,,,,,,,,,,,,,,,,,,,,,,,,,,,,,,,,,,,,,,,0,0,0,2,1,,,,,,,,,,,,,,,,,,,,,,,,,,,,,,,,,,,,,,,,,
533200,001,2022-11-21_24h11.54.197,Info_measure_main_exp,2022.2.2,Win32,57.93742758,,,,,,,,,,,,,,,,,,masks/mask_002.jpg,,,,,,,,,,,,,,,,,,,,,,,,,,,,,,,,,,,,,,,,,,,,,,,,0,1,1,1,1,,,,,,,,,,,,,,,,,,,,,,,,,,,,,,,,,,,,,,,,,
533200,001,2022-11-21_24h11.54.197,Info_measure_main_exp,2022.2.2,Win32,57.93742758,,,,,,,,,,,,,,,,,,masks/mask_001.jpg,,,,,,,,,,,,,,,,,,,,,,,,,,,,,,,,,,,,,,,,,,,,,,,,0,2,2,0,1,,,,,,,,,,,,,,,,,,,,,,,,,,,,,,,,,,,,,,,,,
533200,001,2022-11-21_24h11.54.197,Info_measure_main_exp,2022.2.2,Win32,57.93742758,,,,,,,,,,,,,,,,,,masks/mask_004.jpg,,,,,,,,,,,,,,,,,,,,,,,,,,,,,,,,,,,,,,,,,,,,,,,,0,3,3,3,1,,,,,,,,,,,,,,,,,,,,,,,,,,,,,,,,,,,,,,,,,
533200,001,2022-11-21_24h11.54.197,Info_measure_main_exp,2022.2.2,Win32,57.93742758,,,,,,,,,,,,,,,,,,masks/mask_005.jpg,,,,,,,,,,,,,,,,,,,,,,,,,,,,,,,,,,,,,,,,,,,,,,,,0,4,4,4,1,,,,,,,,,,,,,,,,,,,,,,,,,,,,,,,,,,,,,,,,,
533200,001,2022-11-21_24h11.54.197,Info_measure_main_exp,2022.2.2,Win32,57.93742758,,,,,,,,,,,,,,,,,,,,,,,,,,,,,,6,0.9922,1,,,,,,,,,,,,0,131,5,5,2274,1950,absent_patch/patch0002274.jpg,absent_patch/patch0001950.jpg,,,,,,,,,,,,,,,,,,,,0.087239583,0.046875,1,0,0,response1disk,5,-0.001302083,0,1,0,0,center_square,0,4,4,10,1,,,,,,,,,,,,,,,,,,,,,,,
533200,001,2022-11-21_24h11.54.197,Info_measure_main_exp,2022.2.2,Win32,57.93742758,,,,,,,,,,,,,,,,,,masks/mask_003.jpg,,,,,,,,,,,,,,,,,,,,,,,,,,,,,,,,,,,,,,,,,,,0,0,0,2,1,,,,,,,,,,,,,,,,,,,,,,,,,,,,,,,,,,,,,,,,,,,,,,
533200,001,2022-11-21_24h11.54.197,Info_measure_main_exp,2022.2.2,Win32,57.93742758,,,,,,,,,,,,,,,,,,masks/mask_002.jpg,,,,,,,,,,,,,,,,,,,,,,,,,,,,,,,,,,,,,,,,,,,0,1,1,1,1,,,,,,,,,,,,,,,,,,,,,,,,,,,,,,,,,,,,,,,,,,,,,,
533200,001,2022-11-21_24h11.54.197,Info_measure_main_exp,2022.2.2,Win32,57.93742758,,,,,,,,,,,,,,,,,,masks/mask_004.jpg,,,,,,,,,,,,,,,,,,,,,,,,,,,,,,,,,,,,,,,,,,,0,2,2,3,1,,,,,,,,,,,,,,,,,,,,,,,,,,,,,,,,,,,,,,,,,,,,,,
533200,001,2022-11-21_24h11.54.197,Info_measure_main_exp,2022.2.2,Win32,57.93742758,,,,,,,,,,,,,,,,,,masks/mask_001.jpg,,,,,,,,,,,,,,,,,,,,,,,,,,,,,,,,,,,,,,,,,,,0,3,3,0,1,,,,,,,,,,,,,,,,,,,,,,,,,,,,,,,,,,,,,,,,,,,,,,
533200,001,2022-11-21_24h11.54.197,Info_measure_main_exp,2022.2.2,Win32,57.93742758,,,,,,,,,,,,,,,,,,masks/mask_005.jpg,,,,,,,,,,,,,,,,,,,,,,,,,,,,,,,,,,,,,,,,,,,0,4,4,4,1,,,,,,,,,,,,,,,,,,,,,,,,,,,,,,,,,,,,,,,,,,,,,,
533200,001,2022-11-21_24h11.54.197,Info_measure_main_exp,2022.2.2,Win32,57.93742758,,,,,,,,,,,,,,,,,,masks/mask_003.jpg,,,,,,,,,,,,,,,,,,,,,,,,,,,,,,,,,,,,,,,,,,,,,,,,0,0,0,2,1,,,,,,,,,,,,,,,,,,,,,,,,,,,,,,,,,,,,,,,,,
533200,001,2022-11-21_24h11.54.197,Info_measure_main_exp,2022.2.2,Win32,57.93742758,,,,,,,,,,,,,,,,,,masks/mask_005.jpg,,,,,,,,,,,,,,,,,,,,,,,,,,,,,,,,,,,,,,,,,,,,,,,,0,1,1,4,1,,,,,,,,,,,,,,,,,,,,,,,,,,,,,,,,,,,,,,,,,
533200,001,2022-11-21_24h11.54.197,Info_measure_main_exp,2022.2.2,Win32,57.93742758,,,,,,,,,,,,,,,,,,masks/mask_004.jpg,,,,,,,,,,,,,,,,,,,,,,,,,,,,,,,,,,,,,,,,,,,,,,,,0,2,2,3,1,,,,,,,,,,,,,,,,,,,,,,,,,,,,,,,,,,,,,,,,,
533200,001,2022-11-21_24h11.54.197,Info_measure_main_exp,2022.2.2,Win32,57.93742758,,,,,,,,,,,,,,,,,,masks/mask_001.jpg,,,,,,,,,,,,,,,,,,,,,,,,,,,,,,,,,,,,,,,,,,,,,,,,0,3,3,0,1,,,,,,,,,,,,,,,,,,,,,,,,,,,,,,,,,,,,,,,,,
533200,001,2022-11-21_24h11.54.197,Info_measure_main_exp,2022.2.2,Win32,57.93742758,,,,,,,,,,,,,,,,,,masks/mask_002.jpg,,,,,,,,,,,,,,,,,,,,,,,,,,,,,,,,,,,,,,,,,,,,,,,,0,4,4,1,1,,,,,,,,,,,,,,,,,,,,,,,,,,,,,,,,,,,,,,,,,
533200,001,2022-11-21_24h11.54.197,Info_measure_main_exp,2022.2.2,Win32,57.93742758,,,,,,,,,,,,,,,,,,,,,,,,,,,,,,3,1.4357,1,,,,,,,,,,,,1,131,5,5,1,1974,present_patch/cong_131_5_a.jpg,absent_patch/patch0001974.jpg,,,,,,,,,,,,,,,,,,,,-0.016927083,-0.059895833,1,0,0,response5disk,6,0.00390625,0.001302083,1,0,0,center_square,0,5,5,69,1,,,,,,,,,,,,,,,,,,,,,,,
533200,001,2022-11-21_24h11.54.197,Info_measure_main_exp,2022.2.2,Win32,57.93742758,,,,,,,,,,,,,,,,,,masks/mask_001.jpg,,,,,,,,,,,,,,,,,,,,,,,,,,,,,,,,,,,,,,,,,,,0,0,0,0,1,,,,,,,,,,,,,,,,,,,,,,,,,,,,,,,,,,,,,,,,,,,,,,
533200,001,2022-11-21_24h11.54.197,Info_measure_main_exp,2022.2.2,Win32,57.93742758,,,,,,,,,,,,,,,,,,masks/mask_005.jpg,,,,,,,,,,,,,,,,,,,,,,,,,,,,,,,,,,,,,,,,,,,0,1,1,4,1,,,,,,,,,,,,,,,,,,,,,,,,,,,,,,,,,,,,,,,,,,,,,,
533200,001,2022-11-21_24h11.54.197,Info_measure_main_exp,2022.2.2,Win32,57.93742758,,,,,,,,,,,,,,,,,,masks/mask_003.jpg,,,,,,,,,,,,,,,,,,,,,,,,,,,,,,,,,,,,,,,,,,,0,2,2,2,1,,,,,,,,,,,,,,,,,,,,,,,,,,,,,,,,,,,,,,,,,,,,,,
533200,001,2022-11-21_24h11.54.197,Info_measure_main_exp,2022.2.2,Win32,57.93742758,,,,,,,,,,,,,,,,,,masks/mask_004.jpg,,,,,,,,,,,,,,,,,,,,,,,,,,,,,,,,,,,,,,,,,,,0,3,3,3,1,,,,,,,,,,,,,,,,,,,,,,,,,,,,,,,,,,,,,,,,,,,,,,
533200,001,2022-11-21_24h11.54.197,Info_measure_main_exp,2022.2.2,Win32,57.93742758,,,,,,,,,,,,,,,,,,masks/mask_002.jpg,,,,,,,,,,,,,,,,,,,,,,,,,,,,,,,,,,,,,,,,,,,0,4,4,1,1,,,,,,,,,,,,,,,,,,,,,,,,,,,,,,,,,,,,,,,,,,,,,,
533200,001,2022-11-21_24h11.54.197,Info_measure_main_exp,2022.2.2,Win32,57.93742758,,,,,,,,,,,,,,,,,,masks/mask_005.jpg,,,,,,,,,,,,,,,,,,,,,,,,,,,,,,,,,,,,,,,,,,,,,,,,0,0,0,4,1,,,,,,,,,,,,,,,,,,,,,,,,,,,,,,,,,,,,,,,,,
533200,001,2022-11-21_24h11.54.197,Info_measure_main_exp,2022.2.2,Win32,57.93742758,,,,,,,,,,,,,,,,,,masks/mask_002.jpg,,,,,,,,,,,,,,,,,,,,,,,,,,,,,,,,,,,,,,,,,,,,,,,,0,1,1,1,1,,,,,,,,,,,,,,,,,,,,,,,,,,,,,,,,,,,,,,,,,
533200,001,2022-11-21_24h11.54.197,Info_measure_main_exp,2022.2.2,Win32,57.93742758,,,,,,,,,,,,,,,,,,masks/mask_004.jpg,,,,,,,,,,,,,,,,,,,,,,,,,,,,,,,,,,,,,,,,,,,,,,,,0,2,2,3,1,,,,,,,,,,,,,,,,,,,,,,,,,,,,,,,,,,,,,,,,,
533200,001,2022-11-21_24h11.54.197,Info_measure_main_exp,2022.2.2,Win32,57.93742758,,,,,,,,,,,,,,,,,,masks/mask_003.jpg,,,,,,,,,,,,,,,,,,,,,,,,,,,,,,,,,,,,,,,,,,,,,,,,0,3,3,2,1,,,,,,,,,,,,,,,,,,,,,,,,,,,,,,,,,,,,,,,,,
533200,001,2022-11-21_24h11.54.197,Info_measure_main_exp,2022.2.2,Win32,57.93742758,,,,,,,,,,,,,,,,,,masks/mask_001.jpg,,,,,,,,,,,,,,,,,,,,,,,,,,,,,,,,,,,,,,,,,,,,,,,,0,4,4,0,1,,,,,,,,,,,,,,,,,,,,,,,,,,,,,,,,,,,,,,,,,
533200,001,2022-11-21_24h11.54.197,Info_measure_main_exp,2022.2.2,Win32,57.93742758,,,,,,,,,,,,,,,,,,,,,,,,,,,,,,3,2.3679,1,,,,,,,,,,,,0,131,5,5,2190,1974,absent_patch/patch0002190.jpg,absent_patch/patch0001974.jpg,,,,,,,,,,,,,,,,,,,,-0.032552083,-0.10546875,1,0,0,response5disk,7,0,0,1,0,0,center_square,0,6,6,119,1,,,,,,,,,,,,,,,,,,,,,,,
533200,001,2022-11-21_24h11.54.197,Info_measure_main_exp,2022.2.2,Win32,57.93742758,,,,,,,,,,,,,,,,,,masks/mask_004.jpg,,,,,,,,,,,,,,,,,,,,,,,,,,,,,,,,,,,,,,,,,,,0,0,0,3,1,,,,,,,,,,,,,,,,,,,,,,,,,,,,,,,,,,,,,,,,,,,,,,
533200,001,2022-11-21_24h11.54.197,Info_measure_main_exp,2022.2.2,Win32,57.93742758,,,,,,,,,,,,,,,,,,masks/mask_002.jpg,,,,,,,,,,,,,,,,,,,,,,,,,,,,,,,,,,,,,,,,,,,0,1,1,1,1,,,,,,,,,,,,,,,,,,,,,,,,,,,,,,,,,,,,,,,,,,,,,,
533200,001,2022-11-21_24h11.54.197,Info_measure_main_exp,2022.2.2,Win32,57.93742758,,,,,,,,,,,,,,,,,,masks/mask_005.jpg,,,,,,,,,,,,,,,,,,,,,,,,,,,,,,,,,,,,,,,,,,,0,2,2,4,1,,,,,,,,,,,,,,,,,,,,,,,,,,,,,,,,,,,,,,,,,,,,,,
533200,001,2022-11-21_24h11.54.197,Info_measure_main_exp,2022.2.2,Win32,57.93742758,,,,,,,,,,,,,,,,,,masks/mask_003.jpg,,,,,,,,,,,,,,,,,,,,,,,,,,,,,,,,,,,,,,,,,,,0,3,3,2,1,,,,,,,,,,,,,,,,,,,,,,,,,,,,,,,,,,,,,,,,,,,,,,
533200,001,2022-11-21_24h11.54.197,Info_measure_main_exp,2022.2.2,Win32,57.93742758,,,,,,,,,,,,,,,,,,masks/mask_001.jpg,,,,,,,,,,,,,,,,,,,,,,,,,,,,,,,,,,,,,,,,,,,0,4,4,0,1,,,,,,,,,,,,,,,,,,,,,,,,,,,,,,,,,,,,,,,,,,,,,,
533200,001,2022-11-21_24h11.54.197,Info_measure_main_exp,2022.2.2,Win32,57.93742758,,,,,,,,,,,,,,,,,,masks/mask_005.jpg,,,,,,,,,,,,,,,,,,,,,,,,,,,,,,,,,,,,,,,,,,,,,,,,0,0,0,4,1,,,,,,,,,,,,,,,,,,,,,,,,,,,,,,,,,,,,,,,,,
533200,001,2022-11-21_24h11.54.197,Info_measure_main_exp,2022.2.2,Win32,57.93742758,,,,,,,,,,,,,,,,,,masks/mask_001.jpg,,,,,,,,,,,,,,,,,,,,,,,,,,,,,,,,,,,,,,,,,,,,,,,,0,1,1,0,1,,,,,,,,,,,,,,,,,,,,,,,,,,,,,,,,,,,,,,,,,
533200,001,2022-11-21_24h11.54.197,Info_measure_main_exp,2022.2.2,Win32,57.93742758,,,,,,,,,,,,,,,,,,masks/mask_002.jpg,,,,,,,,,,,,,,,,,,,,,,,,,,,,,,,,,,,,,,,,,,,,,,,,0,2,2,1,1,,,,,,,,,,,,,,,,,,,,,,,,,,,,,,,,,,,,,,,,,
533200,001,2022-11-21_24h11.54.197,Info_measure_main_exp,2022.2.2,Win32,57.93742758,,,,,,,,,,,,,,,,,,masks/mask_003.jpg,,,,,,,,,,,,,,,,,,,,,,,,,,,,,,,,,,,,,,,,,,,,,,,,0,3,3,2,1,,,,,,,,,,,,,,,,,,,,,,,,,,,,,,,,,,,,,,,,,
533200,001,2022-11-21_24h11.54.197,Info_measure_main_exp,2022.2.2,Win32,57.93742758,,,,,,,,,,,,,,,,,,masks/mask_004.jpg,,,,,,,,,,,,,,,,,,,,,,,,,,,,,,,,,,,,,,,,,,,,,,,,0,4,4,3,1,,,,,,,,,,,,,,,,,,,,,,,,,,,,,,,,,,,,,,,,,
533200,001,2022-11-21_24h11.54.197,Info_measure_main_exp,2022.2.2,Win32,57.93742758,,,,,,,,,,,,,,,,,,,,,,,,,,,,,,5,1.6626,1,,,,,,,,,,,,0,131,5,5,2250,1950,absent_patch/patch0002250.jpg,absent_patch/patch0001950.jpg,,,,,,,,,,,,,,,,,,,,0.05078125,-0.022135417,1,0,0,response3disk,8,0.005208333,0.001302083,1,0,0,center_square,0,7,7,16,1,,,,,,,,,,,,,,,,,,,,,,,
533200,001,2022-11-21_24h11.54.197,Info_measure_main_exp,2022.2.2,Win32,57.93742758,,,,,,,,,,,,,,,,,,masks/mask_005.jpg,,,,,,,,,,,,,,,,,,,,,,,,,,,,,,,,,,,,,,,,,,,0,0,0,4,1,,,,,,,,,,,,,,,,,,,,,,,,,,,,,,,,,,,,,,,,,,,,,,
533200,001,2022-11-21_24h11.54.197,Info_measure_main_exp,2022.2.2,Win32,57.93742758,,,,,,,,,,,,,,,,,,masks/mask_002.jpg,,,,,,,,,,,,,,,,,,,,,,,,,,,,,,,,,,,,,,,,,,,0,1,1,1,1,,,,,,,,,,,,,,,,,,,,,,,,,,,,,,,,,,,,,,,,,,,,,,
533200,001,2022-11-21_24h11.54.197,Info_measure_main_exp,2022.2.2,Win32,57.93742758,,,,,,,,,,,,,,,,,,masks/mask_004.jpg,,,,,,,,,,,,,,,,,,,,,,,,,,,,,,,,,,,,,,,,,,,0,2,2,3,1,,,,,,,,,,,,,,,,,,,,,,,,,,,,,,,,,,,,,,,,,,,,,,
533200,001,2022-11-21_24h11.54.197,Info_measure_main_exp,2022.2.2,Win32,57.93742758,,,,,,,,,,,,,,,,,,masks/mask_001.jpg,,,,,,,,,,,,,,,,,,,,,,,,,,,,,,,,,,,,,,,,,,,0,3,3,0,1,,,,,,,,,,,,,,,,,,,,,,,,,,,,,,,,,,,,,,,,,,,,,,
533200,001,2022-11-21_24h11.54.197,Info_measure_main_exp,2022.2.2,Win32,57.93742758,,,,,,,,,,,,,,,,,,masks/mask_003.jpg,,,,,,,,,,,,,,,,,,,,,,,,,,,,,,,,,,,,,,,,,,,0,4,4,2,1,,,,,,,,,,,,,,,,,,,,,,,,,,,,,,,,,,,,,,,,,,,,,,
533200,001,2022-11-21_24h11.54.197,Info_measure_main_exp,2022.2.2,Win32,57.93742758,,,,,,,,,,,,,,,,,,masks/mask_003.jpg,,,,,,,,,,,,,,,,,,,,,,,,,,,,,,,,,,,,,,,,,,,,,,,,0,0,0,2,1,,,,,,,,,,,,,,,,,,,,,,,,,,,,,,,,,,,,,,,,,
533200,001,2022-11-21_24h11.54.197,Info_measure_main_exp,2022.2.2,Win32,57.93742758,,,,,,,,,,,,,,,,,,masks/mask_005.jpg,,,,,,,,,,,,,,,,,,,,,,,,,,,,,,,,,,,,,,,,,,,,,,,,0,1,1,4,1,,,,,,,,,,,,,,,,,,,,,,,,,,,,,,,,,,,,,,,,,
533200,001,2022-11-21_24h11.54.197,Info_measure_main_exp,2022.2.2,Win32,57.93742758,,,,,,,,,,,,,,,,,,masks/mask_002.jpg,,,,,,,,,,,,,,,,,,,,,,,,,,,,,,,,,,,,,,,,,,,,,,,,0,2,2,1,1,,,,,,,,,,,,,,,,,,,,,,,,,,,,,,,,,,,,,,,,,
533200,001,2022-11-21_24h11.54.197,Info_measure_main_exp,2022.2.2,Win32,57.93742758,,,,,,,,,,,,,,,,,,masks/mask_004.jpg,,,,,,,,,,,,,,,,,,,,,,,,,,,,,,,,,,,,,,,,,,,,,,,,0,3,3,3,1,,,,,,,,,,,,,,,,,,,,,,,,,,,,,,,,,,,,,,,,,
533200,001,2022-11-21_24h11.54.197,Info_measure_main_exp,2022.2.2,Win32,57.93742758,,,,,,,,,,,,,,,,,,masks/mask_001.jpg,,,,,,,,,,,,,,,,,,,,,,,,,,,,,,,,,,,,,,,,,,,,,,,,0,4,4,0,1,,,,,,,,,,,,,,,,,,,,,,,,,,,,,,,,,,,,,,,,,
533200,001,2022-11-21_24h11.54.197,Info_measure_main_exp,2022.2.2,Win32,57.93742758,,,,,,,,,,,,,,,,,,,,,,,,,,,,,,6,2.2257,1,,,,,,,,,,,,0,131,5,5,1986,1950,absent_patch/patch0001986.jpg,absent_patch/patch0001950.jpg,,,,,,,,,,,,,,,,,,,,0.095052083,0.015625,1,0,0,response1disk,9,-0.00390625,-0.001302083,1,0,0,center_square,0,8,8,15,1,,,,,,,,,,,,,,,,,,,,,,,
533200,001,2022-11-21_24h11.54.197,Info_measure_main_exp,2022.2.2,Win32,57.93742758,,,,,,,,,,,,,,,,,,masks/mask_003.jpg,,,,,,,,,,,,,,,,,,,,,,,,,,,,,,,,,,,,,,,,,,,0,0,0,2,1,,,,,,,,,,,,,,,,,,,,,,,,,,,,,,,,,,,,,,,,,,,,,,
533200,001,2022-11-21_24h11.54.197,Info_measure_main_exp,2022.2.2,Win32,57.93742758,,,,,,,,,,,,,,,,,,masks/mask_002.jpg,,,,,,,,,,,,,,,,,,,,,,,,,,,,,,,,,,,,,,,,,,,0,1,1,1,1,,,,,,,,,,,,,,,,,,,,,,,,,,,,,,,,,,,,,,,,,,,,,,
533200,001,2022-11-21_24h11.54.197,Info_measure_main_exp,2022.2.2,Win32,57.93742758,,,,,,,,,,,,,,,,,,masks/mask_005.jpg,,,,,,,,,,,,,,,,,,,,,,,,,,,,,,,,,,,,,,,,,,,0,2,2,4,1,,,,,,,,,,,,,,,,,,,,,,,,,,,,,,,,,,,,,,,,,,,,,,
533200,001,2022-11-21_24h11.54.197,Info_measure_main_exp,2022.2.2,Win32,57.93742758,,,,,,,,,,,,,,,,,,masks/mask_001.jpg,,,,,,,,,,,,,,,,,,,,,,,,,,,,,,,,,,,,,,,,,,,0,3,3,0,1,,,,,,,,,,,,,,,,,,,,,,,,,,,,,,,,,,,,,,,,,,,,,,
533200,001,2022-11-21_24h11.54.197,Info_measure_main_exp,2022.2.2,Win32,57.93742758,,,,,,,,,,,,,,,,,,masks/mask_004.jpg,,,,,,,,,,,,,,,,,,,,,,,,,,,,,,,,,,,,,,,,,,,0,4,4,3,1,,,,,,,,,,,,,,,,,,,,,,,,,,,,,,,,,,,,,,,,,,,,,,
533200,001,2022-11-21_24h11.54.197,Info_measure_main_exp,2022.2.2,Win32,57.93742758,,,,,,,,,,,,,,,,,,masks/mask_003.jpg,,,,,,,,,,,,,,,,,,,,,,,,,,,,,,,,,,,,,,,,,,,,,,,,0,0,0,2,1,,,,,,,,,,,,,,,,,,,,,,,,,,,,,,,,,,,,,,,,,
533200,001,2022-11-21_24h11.54.197,Info_measure_main_exp,2022.2.2,Win32,57.93742758,,,,,,,,,,,,,,,,,,masks/mask_002.jpg,,,,,,,,,,,,,,,,,,,,,,,,,,,,,,,,,,,,,,,,,,,,,,,,0,1,1,1,1,,,,,,,,,,,,,,,,,,,,,,,,,,,,,,,,,,,,,,,,,
533200,001,2022-11-21_24h11.54.197,Info_measure_main_exp,2022.2.2,Win32,57.93742758,,,,,,,,,,,,,,,,,,masks/mask_005.jpg,,,,,,,,,,,,,,,,,,,,,,,,,,,,,,,,,,,,,,,,,,,,,,,,0,2,2,4,1,,,,,,,,,,,,,,,,,,,,,,,,,,,,,,,,,,,,,,,,,
533200,001,2022-11-21_24h11.54.197,Info_measure_main_exp,2022.2.2,Win32,57.93742758,,,,,,,,,,,,,,,,,,masks/mask_001.jpg,,,,,,,,,,,,,,,,,,,,,,,,,,,,,,,,,,,,,,,,,,,,,,,,0,3,3,0,1,,,,,,,,,,,,,,,,,,,,,,,,,,,,,,,,,,,,,,,,,
533200,001,2022-11-21_24h11.54.197,Info_measure_main_exp,2022.2.2,Win32,57.93742758,,,,,,,,,,,,,,,,,,masks/mask_004.jpg,,,,,,,,,,,,,,,,,,,,,,,,,,,,,,,,,,,,,,,,,,,,,,,,0,4,4,3,1,,,,,,,,,,,,,,,,,,,,,,,,,,,,,,,,,,,,,,,,,
533200,001,2022-11-21_24h11.54.197,Info_measure_main_exp,2022.2.2,Win32,57.93742758,,,,,,,,,,,,,,,,,,,,,,,,,,,,,,3,1.1954,1,,,,,,,,,,,,0,131,5,5,1950,2082,absent_patch/patch0001950.jpg,absent_patch/patch0002082.jpg,,,,,,,,,,,,,,,,,,,,-0.052083333,-0.072916667,1,0,0,response5disk,10,-0.002604167,-0.002604167,1,0,0,center_square,0,9,9,12,1,,,,,,,,,,,,,,,,,,,,,,,
533200,001,2022-11-21_24h11.54.197,Info_measure_main_exp,2022.2.2,Win32,57.93742758,,,,,,,,,,,,,,,,,,masks/mask_003.jpg,,,,,,,,,,,,,,,,,,,,,,,,,,,,,,,,,,,,,,,,,,,0,0,0,2,1,,,,,,,,,,,,,,,,,,,,,,,,,,,,,,,,,,,,,,,,,,,,,,
533200,001,2022-11-21_24h11.54.197,Info_measure_main_exp,2022.2.2,Win32,57.93742758,,,,,,,,,,,,,,,,,,masks/mask_004.jpg,,,,,,,,,,,,,,,,,,,,,,,,,,,,,,,,,,,,,,,,,,,0,1,1,3,1,,,,,,,,,,,,,,,,,,,,,,,,,,,,,,,,,,,,,,,,,,,,,,
533200,001,2022-11-21_24h11.54.197,Info_measure_main_exp,2022.2.2,Win32,57.93742758,,,,,,,,,,,,,,,,,,masks/mask_005.jpg,,,,,,,,,,,,,,,,,,,,,,,,,,,,,,,,,,,,,,,,,,,0,2,2,4,1,,,,,,,,,,,,,,,,,,,,,,,,,,,,,,,,,,,,,,,,,,,,,,
533200,001,2022-11-21_24h11.54.197,Info_measure_main_exp,2022.2.2,Win32,57.93742758,,,,,,,,,,,,,,,,,,masks/mask_001.jpg,,,,,,,,,,,,,,,,,,,,,,,,,,,,,,,,,,,,,,,,,,,0,3,3,0,1,,,,,,,,,,,,,,,,,,,,,,,,,,,,,,,,,,,,,,,,,,,,,,
533200,001,2022-11-21_24h11.54.197,Info_measure_main_exp,2022.2.2,Win32,57.93742758,,,,,,,,,,,,,,,,,,masks/mask_002.jpg,,,,,,,,,,,,,,,,,,,,,,,,,,,,,,,,,,,,,,,,,,,0,4,4,1,1,,,,,,,,,,,,,,,,,,,,,,,,,,,,,,,,,,,,,,,,,,,,,,
533200,001,2022-11-21_24h11.54.197,Info_measure_main_exp,2022.2.2,Win32,57.93742758,,,,,,,,,,,,,,,,,,masks/mask_002.jpg,,,,,,,,,,,,,,,,,,,,,,,,,,,,,,,,,,,,,,,,,,,,,,,,0,0,0,1,1,,,,,,,,,,,,,,,,,,,,,,,,,,,,,,,,,,,,,,,,,
533200,001,2022-11-21_24h11.54.197,Info_measure_main_exp,2022.2.2,Win32,57.93742758,,,,,,,,,,,,,,,,,,masks/mask_003.jpg,,,,,,,,,,,,,,,,,,,,,,,,,,,,,,,,,,,,,,,,,,,,,,,,0,1,1,2,1,,,,,,,,,,,,,,,,,,,,,,,,,,,,,,,,,,,,,,,,,
533200,001,2022-11-21_24h11.54.197,Info_measure_main_exp,2022.2.2,Win32,57.93742758,,,,,,,,,,,,,,,,,,masks/mask_001.jpg,,,,,,,,,,,,,,,,,,,,,,,,,,,,,,,,,,,,,,,,,,,,,,,,0,2,2,0,1,,,,,,,,,,,,,,,,,,,,,,,,,,,,,,,,,,,,,,,,,
533200,001,2022-11-21_24h11.54.197,Info_measure_main_exp,2022.2.2,Win32,57.93742758,,,,,,,,,,,,,,,,,,masks/mask_004.jpg,,,,,,,,,,,,,,,,,,,,,,,,,,,,,,,,,,,,,,,,,,,,,,,,0,3,3,3,1,,,,,,,,,,,,,,,,,,,,,,,,,,,,,,,,,,,,,,,,,
533200,001,2022-11-21_24h11.54.197,Info_measure_main_exp,2022.2.2,Win32,57.93742758,,,,,,,,,,,,,,,,,,masks/mask_005.jpg,,,,,,,,,,,,,,,,,,,,,,,,,,,,,,,,,,,,,,,,,,,,,,,,0,4,4,4,1,,,,,,,,,,,,,,,,,,,,,,,,,,,,,,,,,,,,,,,,,
533200,001,2022-11-21_24h11.54.197,Info_measure_main_exp,2022.2.2,Win32,57.93742758,,,,,,,,,,,,,,,,,,,,,,,,,,,,,,5,1.8709,1,,,,,,,,,,,,0,131,5,5,1986,2142,absent_patch/patch0001986.jpg,absent_patch/patch0002142.jpg,,,,,,,,,,,,,,,,,,,,0.0859375,-0.045572917,1,0,0,response3disk,11,-0.0078125,-0.001302083,1,0,0,center_square,0,10,10,76,1,,,,,,,,,,,,,,,,,,,,,,,
533200,001,2022-11-21_24h11.54.197,Info_measure_main_exp,2022.2.2,Win32,57.93742758,,,,,,,,,,,,,,,,,,masks/mask_001.jpg,,,,,,,,,,,,,,,,,,,,,,,,,,,,,,,,,,,,,,,,,,,0,0,0,0,1,,,,,,,,,,,,,,,,,,,,,,,,,,,,,,,,,,,,,,,,,,,,,,
533200,001,2022-11-21_24h11.54.197,Info_measure_main_exp,2022.2.2,Win32,57.93742758,,,,,,,,,,,,,,,,,,masks/mask_005.jpg,,,,,,,,,,,,,,,,,,,,,,,,,,,,,,,,,,,,,,,,,,,0,1,1,4,1,,,,,,,,,,,,,,,,,,,,,,,,,,,,,,,,,,,,,,,,,,,,,,
533200,001,2022-11-21_24h11.54.197,Info_measure_main_exp,2022.2.2,Win32,57.93742758,,,,,,,,,,,,,,,,,,masks/mask_003.jpg,,,,,,,,,,,,,,,,,,,,,,,,,,,,,,,,,,,,,,,,,,,0,2,2,2,1,,,,,,,,,,,,,,,,,,,,,,,,,,,,,,,,,,,,,,,,,,,,,,
533200,001,2022-11-21_24h11.54.197,Info_measure_main_exp,2022.2.2,Win32,57.93742758,,,,,,,,,,,,,,,,,,masks/mask_004.jpg,,,,,,,,,,,,,,,,,,,,,,,,,,,,,,,,,,,,,,,,,,,0,3,3,3,1,,,,,,,,,,,,,,,,,,,,,,,,,,,,,,,,,,,,,,,,,,,,,,
533200,001,2022-11-21_24h11.54.197,Info_measure_main_exp,2022.2.2,Win32,57.93742758,,,,,,,,,,,,,,,,,,masks/mask_002.jpg,,,,,,,,,,,,,,,,,,,,,,,,,,,,,,,,,,,,,,,,,,,0,4,4,1,1,,,,,,,,,,,,,,,,,,,,,,,,,,,,,,,,,,,,,,,,,,,,,,
533200,001,2022-11-21_24h11.54.197,Info_measure_main_exp,2022.2.2,Win32,57.93742758,,,,,,,,,,,,,,,,,,masks/mask_005.jpg,,,,,,,,,,,,,,,,,,,,,,,,,,,,,,,,,,,,,,,,,,,,,,,,0,0,0,4,1,,,,,,,,,,,,,,,,,,,,,,,,,,,,,,,,,,,,,,,,,
533200,001,2022-11-21_24h11.54.197,Info_measure_main_exp,2022.2.2,Win32,57.93742758,,,,,,,,,,,,,,,,,,masks/mask_003.jpg,,,,,,,,,,,,,,,,,,,,,,,,,,,,,,,,,,,,,,,,,,,,,,,,0,1,1,2,1,,,,,,,,,,,,,,,,,,,,,,,,,,,,,,,,,,,,,,,,,
533200,001,2022-11-21_24h11.54.197,Info_measure_main_exp,2022.2.2,Win32,57.93742758,,,,,,,,,,,,,,,,,,masks/mask_002.jpg,,,,,,,,,,,,,,,,,,,,,,,,,,,,,,,,,,,,,,,,,,,,,,,,0,2,2,1,1,,,,,,,,,,,,,,,,,,,,,,,,,,,,,,,,,,,,,,,,,
533200,001,2022-11-21_24h11.54.197,Info_measure_main_exp,2022.2.2,Win32,57.93742758,,,,,,,,,,,,,,,,,,masks/mask_001.jpg,,,,,,,,,,,,,,,,,,,,,,,,,,,,,,,,,,,,,,,,,,,,,,,,0,3,3,0,1,,,,,,,,,,,,,,,,,,,,,,,,,,,,,,,,,,,,,,,,,
533200,001,2022-11-21_24h11.54.197,Info_measure_main_exp,2022.2.2,Win32,57.93742758,,,,,,,,,,,,,,,,,,masks/mask_004.jpg,,,,,,,,,,,,,,,,,,,,,,,,,,,,,,,,,,,,,,,,,,,,,,,,0,4,4,3,1,,,,,,,,,,,,,,,,,,,,,,,,,,,,,,,,,,,,,,,,,
533200,001,2022-11-21_24h11.54.197,Info_measure_main_exp,2022.2.2,Win32,57.93742758,,,,,,,,,,,,,,,,,,,,,,,,,,,,,,4,1.3563,1,,,,,,,,,,,,0,131,5,5,1974,2238,absent_patch/patch0001974.jpg,absent_patch/patch0002238.jpg,,,,,,,,,,,,,,,,,,,,0.032552083,-0.079427083,1,0,0,response3disk,12,0.002604167,-0.005208333,1,0,0,center_square,0,11,11,95,1,,,,,,,,,,,,,,,,,,,,,,,
533200,001,2022-11-21_24h11.54.197,Info_measure_main_exp,2022.2.2,Win32,57.93742758,,,,,,,,,,,,,,,,,,masks/mask_003.jpg,,,,,,,,,,,,,,,,,,,,,,,,,,,,,,,,,,,,,,,,,,,0,0,0,2,1,,,,,,,,,,,,,,,,,,,,,,,,,,,,,,,,,,,,,,,,,,,,,,
533200,001,2022-11-21_24h11.54.197,Info_measure_main_exp,2022.2.2,Win32,57.93742758,,,,,,,,,,,,,,,,,,masks/mask_002.jpg,,,,,,,,,,,,,,,,,,,,,,,,,,,,,,,,,,,,,,,,,,,0,1,1,1,1,,,,,,,,,,,,,,,,,,,,,,,,,,,,,,,,,,,,,,,,,,,,,,
533200,001,2022-11-21_24h11.54.197,Info_measure_main_exp,2022.2.2,Win32,57.93742758,,,,,,,,,,,,,,,,,,masks/mask_005.jpg,,,,,,,,,,,,,,,,,,,,,,,,,,,,,,,,,,,,,,,,,,,0,2,2,4,1,,,,,,,,,,,,,,,,,,,,,,,,,,,,,,,,,,,,,,,,,,,,,,
533200,001,2022-11-21_24h11.54.197,Info_measure_main_exp,2022.2.2,Win32,57.93742758,,,,,,,,,,,,,,,,,,masks/mask_001.jpg,,,,,,,,,,,,,,,,,,,,,,,,,,,,,,,,,,,,,,,,,,,0,3,3,0,1,,,,,,,,,,,,,,,,,,,,,,,,,,,,,,,,,,,,,,,,,,,,,,
533200,001,2022-11-21_24h11.54.197,Info_measure_main_exp,2022.2.2,Win32,57.93742758,,,,,,,,,,,,,,,,,,masks/mask_004.jpg,,,,,,,,,,,,,,,,,,,,,,,,,,,,,,,,,,,,,,,,,,,0,4,4,3,1,,,,,,,,,,,,,,,,,,,,,,,,,,,,,,,,,,,,,,,,,,,,,,
533200,001,2022-11-21_24h11.54.197,Info_measure_main_exp,2022.2.2,Win32,57.93742758,,,,,,,,,,,,,,,,,,masks/mask_004.jpg,,,,,,,,,,,,,,,,,,,,,,,,,,,,,,,,,,,,,,,,,,,,,,,,0,0,0,3,1,,,,,,,,,,,,,,,,,,,,,,,,,,,,,,,,,,,,,,,,,
533200,001,2022-11-21_24h11.54.197,Info_measure_main_exp,2022.2.2,Win32,57.93742758,,,,,,,,,,,,,,,,,,masks/mask_005.jpg,,,,,,,,,,,,,,,,,,,,,,,,,,,,,,,,,,,,,,,,,,,,,,,,0,1,1,4,1,,,,,,,,,,,,,,,,,,,,,,,,,,,,,,,,,,,,,,,,,
533200,001,2022-11-21_24h11.54.197,Info_measure_main_exp,2022.2.2,Win32,57.93742758,,,,,,,,,,,,,,,,,,masks/mask_002.jpg,,,,,,,,,,,,,,,,,,,,,,,,,,,,,,,,,,,,,,,,,,,,,,,,0,2,2,1,1,,,,,,,,,,,,,,,,,,,,,,,,,,,,,,,,,,,,,,,,,
533200,001,2022-11-21_24h11.54.197,Info_measure_main_exp,2022.2.2,Win32,57.93742758,,,,,,,,,,,,,,,,,,masks/mask_003.jpg,,,,,,,,,,,,,,,,,,,,,,,,,,,,,,,,,,,,,,,,,,,,,,,,0,3,3,2,1,,,,,,,,,,,,,,,,,,,,,,,,,,,,,,,,,,,,,,,,,
533200,001,2022-11-21_24h11.54.197,Info_measure_main_exp,2022.2.2,Win32,57.93742758,,,,,,,,,,,,,,,,,,masks/mask_001.jpg,,,,,,,,,,,,,,,,,,,,,,,,,,,,,,,,,,,,,,,,,,,,,,,,0,4,4,0,1,,,,,,,,,,,,,,,,,,,,,,,,,,,,,,,,,,,,,,,,,
533200,001,2022-11-21_24h11.54.197,Info_measure_main_exp,2022.2.2,Win32,57.93742758,,,,,,,,,,,,,,,,,,,,,,,,,,,,,,5,1.1377,1,,,,,,,,,,,,0,131,5,5,2082,2250,absent_patch/patch0002082.jpg,absent_patch/patch0002250.jpg,,,,,,,,,,,,,,,,,,,,0.063802083,-0.01953125,1,0,0,response3disk,13,-0.002604167,-0.002604167,1,0,0,center_square,0,12,12,3,1,,,,,,,,,,,,,,,,,,,,,,,
533200,001,2022-11-21_24h11.54.197,Info_measure_main_exp,2022.2.2,Win32,57.93742758,,,,,,,,,,,,,,,,,,masks/mask_005.jpg,,,,,,,,,,,,,,,,,,,,,,,,,,,,,,,,,,,,,,,,,,,0,0,0,4,1,,,,,,,,,,,,,,,,,,,,,,,,,,,,,,,,,,,,,,,,,,,,,,
533200,001,2022-11-21_24h11.54.197,Info_measure_main_exp,2022.2.2,Win32,57.93742758,,,,,,,,,,,,,,,,,,masks/mask_001.jpg,,,,,,,,,,,,,,,,,,,,,,,,,,,,,,,,,,,,,,,,,,,0,1,1,0,1,,,,,,,,,,,,,,,,,,,,,,,,,,,,,,,,,,,,,,,,,,,,,,
533200,001,2022-11-21_24h11.54.197,Info_measure_main_exp,2022.2.2,Win32,57.93742758,,,,,,,,,,,,,,,,,,masks/mask_002.jpg,,,,,,,,,,,,,,,,,,,,,,,,,,,,,,,,,,,,,,,,,,,0,2,2,1,1,,,,,,,,,,,,,,,,,,,,,,,,,,,,,,,,,,,,,,,,,,,,,,
533200,001,2022-11-21_24h11.54.197,Info_measure_main_exp,2022.2.2,Win32,57.93742758,,,,,,,,,,,,,,,,,,masks/mask_004.jpg,,,,,,,,,,,,,,,,,,,,,,,,,,,,,,,,,,,,,,,,,,,0,3,3,3,1,,,,,,,,,,,,,,,,,,,,,,,,,,,,,,,,,,,,,,,,,,,,,,
533200,001,2022-11-21_24h11.54.197,Info_measure_main_exp,2022.2.2,Win32,57.93742758,,,,,,,,,,,,,,,,,,masks/mask_003.jpg,,,,,,,,,,,,,,,,,,,,,,,,,,,,,,,,,,,,,,,,,,,0,4,4,2,1,,,,,,,,,,,,,,,,,,,,,,,,,,,,,,,,,,,,,,,,,,,,,,
533200,001,2022-11-21_24h11.54.197,Info_measure_main_exp,2022.2.2,Win32,57.93742758,,,,,,,,,,,,,,,,,,masks/mask_004.jpg,,,,,,,,,,,,,,,,,,,,,,,,,,,,,,,,,,,,,,,,,,,,,,,,0,0,0,3,1,,,,,,,,,,,,,,,,,,,,,,,,,,,,,,,,,,,,,,,,,
533200,001,2022-11-21_24h11.54.197,Info_measure_main_exp,2022.2.2,Win32,57.93742758,,,,,,,,,,,,,,,,,,masks/mask_005.jpg,,,,,,,,,,,,,,,,,,,,,,,,,,,,,,,,,,,,,,,,,,,,,,,,0,1,1,4,1,,,,,,,,,,,,,,,,,,,,,,,,,,,,,,,,,,,,,,,,,
533200,001,2022-11-21_24h11.54.197,Info_measure_main_exp,2022.2.2,Win32,57.93742758,,,,,,,,,,,,,,,,,,masks/mask_002.jpg,,,,,,,,,,,,,,,,,,,,,,,,,,,,,,,,,,,,,,,,,,,,,,,,0,2,2,1,1,,,,,,,,,,,,,,,,,,,,,,,,,,,,,,,,,,,,,,,,,
533200,001,2022-11-21_24h11.54.197,Info_measure_main_exp,2022.2.2,Win32,57.93742758,,,,,,,,,,,,,,,,,,masks/mask_003.jpg,,,,,,,,,,,,,,,,,,,,,,,,,,,,,,,,,,,,,,,,,,,,,,,,0,3,3,2,1,,,,,,,,,,,,,,,,,,,,,,,,,,,,,,,,,,,,,,,,,
533200,001,2022-11-21_24h11.54.197,Info_measure_main_exp,2022.2.2,Win32,57.93742758,,,,,,,,,,,,,,,,,,masks/mask_001.jpg,,,,,,,,,,,,,,,,,,,,,,,,,,,,,,,,,,,,,,,,,,,,,,,,0,4,4,0,1,,,,,,,,,,,,,,,,,,,,,,,,,,,,,,,,,,,,,,,,,
533200,001,2022-11-21_24h11.54.197,Info_measure_main_exp,2022.2.2,Win32,57.93742758,,,,,,,,,,,,,,,,,,,,,,,,,,,,,,3,1.0644,1,,,,,,,,,,,,0,131,5,5,2298,2274,absent_patch/patch0002298.jpg,absent_patch/patch0002274.jpg,,,,,,,,,,,,,,,,,,,,-0.033854167,-0.075520833,1,0,0,response5disk,14,0.00390625,-0.009114583,1,0,0,center_square,0,13,13,1,1,,,,,,,,,,,,,,,,,,,,,,,
533200,001,2022-11-21_24h11.54.197,Info_measure_main_exp,2022.2.2,Win32,57.93742758,,,,,,,,,,,,,,,,,,masks/mask_004.jpg,,,,,,,,,,,,,,,,,,,,,,,,,,,,,,,,,,,,,,,,,,,0,0,0,3,1,,,,,,,,,,,,,,,,,,,,,,,,,,,,,,,,,,,,,,,,,,,,,,
533200,001,2022-11-21_24h11.54.197,Info_measure_main_exp,2022.2.2,Win32,57.93742758,,,,,,,,,,,,,,,,,,masks/mask_002.jpg,,,,,,,,,,,,,,,,,,,,,,,,,,,,,,,,,,,,,,,,,,,0,1,1,1,1,,,,,,,,,,,,,,,,,,,,,,,,,,,,,,,,,,,,,,,,,,,,,,
533200,001,2022-11-21_24h11.54.197,Info_measure_main_exp,2022.2.2,Win32,57.93742758,,,,,,,,,,,,,,,,,,masks/mask_005.jpg,,,,,,,,,,,,,,,,,,,,,,,,,,,,,,,,,,,,,,,,,,,0,2,2,4,1,,,,,,,,,,,,,,,,,,,,,,,,,,,,,,,,,,,,,,,,,,,,,,
533200,001,2022-11-21_24h11.54.197,Info_measure_main_exp,2022.2.2,Win32,57.93742758,,,,,,,,,,,,,,,,,,masks/mask_001.jpg,,,,,,,,,,,,,,,,,,,,,,,,,,,,,,,,,,,,,,,,,,,0,3,3,0,1,,,,,,,,,,,,,,,,,,,,,,,,,,,,,,,,,,,,,,,,,,,,,,
533200,001,2022-11-21_24h11.54.197,Info_measure_main_exp,2022.2.2,Win32,57.93742758,,,,,,,,,,,,,,,,,,masks/mask_003.jpg,,,,,,,,,,,,,,,,,,,,,,,,,,,,,,,,,,,,,,,,,,,0,4,4,2,1,,,,,,,,,,,,,,,,,,,,,,,,,,,,,,,,,,,,,,,,,,,,,,
533200,001,2022-11-21_24h11.54.197,Info_measure_main_exp,2022.2.2,Win32,57.93742758,,,,,,,,,,,,,,,,,,masks/mask_004.jpg,,,,,,,,,,,,,,,,,,,,,,,,,,,,,,,,,,,,,,,,,,,,,,,,0,0,0,3,1,,,,,,,,,,,,,,,,,,,,,,,,,,,,,,,,,,,,,,,,,
533200,001,2022-11-21_24h11.54.197,Info_measure_main_exp,2022.2.2,Win32,57.93742758,,,,,,,,,,,,,,,,,,masks/mask_003.jpg,,,,,,,,,,,,,,,,,,,,,,,,,,,,,,,,,,,,,,,,,,,,,,,,0,1,1,2,1,,,,,,,,,,,,,,,,,,,,,,,,,,,,,,,,,,,,,,,,,
533200,001,2022-11-21_24h11.54.197,Info_measure_main_exp,2022.2.2,Win32,57.93742758,,,,,,,,,,,,,,,,,,masks/mask_002.jpg,,,,,,,,,,,,,,,,,,,,,,,,,,,,,,,,,,,,,,,,,,,,,,,,0,2,2,1,1,,,,,,,,,,,,,,,,,,,,,,,,,,,,,,,,,,,,,,,,,
533200,001,2022-11-21_24h11.54.197,Info_measure_main_exp,2022.2.2,Win32,57.93742758,,,,,,,,,,,,,,,,,,masks/mask_005.jpg,,,,,,,,,,,,,,,,,,,,,,,,,,,,,,,,,,,,,,,,,,,,,,,,0,3,3,4,1,,,,,,,,,,,,,,,,,,,,,,,,,,,,,,,,,,,,,,,,,
533200,001,2022-11-21_24h11.54.197,Info_measure_main_exp,2022.2.2,Win32,57.93742758,,,,,,,,,,,,,,,,,,masks/mask_001.jpg,,,,,,,,,,,,,,,,,,,,,,,,,,,,,,,,,,,,,,,,,,,,,,,,0,4,4,0,1,,,,,,,,,,,,,,,,,,,,,,,,,,,,,,,,,,,,,,,,,
533200,001,2022-11-21_24h11.54.197,Info_measure_main_exp,2022.2.2,Win32,57.93742758,,,,,,,,,,,,,,,,,,,,,,,,,,,,,,4,1.9151,1,,,,,,,,,,,,0,131,5,5,1974,2298,absent_patch/patch0001974.jpg,absent_patch/patch0002298.jpg,,,,,,,,,,,,,,,,,,,,0.04296875,-0.078125,1,0,0,response3disk,15,0.001302083,0.001302083,1,0,0,center_square,0,14,14,6,1,,,,,,,,,,,,,,,,,,,,,,,
533200,001,2022-11-21_24h11.54.197,Info_measure_main_exp,2022.2.2,Win32,57.93742758,,,,,,,,,,,,,,,,,,masks/mask_005.jpg,,,,,,,,,,,,,,,,,,,,,,,,,,,,,,,,,,,,,,,,,,,0,0,0,4,1,,,,,,,,,,,,,,,,,,,,,,,,,,,,,,,,,,,,,,,,,,,,,,
533200,001,2022-11-21_24h11.54.197,Info_measure_main_exp,2022.2.2,Win32,57.93742758,,,,,,,,,,,,,,,,,,masks/mask_001.jpg,,,,,,,,,,,,,,,,,,,,,,,,,,,,,,,,,,,,,,,,,,,0,1,1,0,1,,,,,,,,,,,,,,,,,,,,,,,,,,,,,,,,,,,,,,,,,,,,,,
533200,001,2022-11-21_24h11.54.197,Info_measure_main_exp,2022.2.2,Win32,57.93742758,,,,,,,,,,,,,,,,,,masks/mask_003.jpg,,,,,,,,,,,,,,,,,,,,,,,,,,,,,,,,,,,,,,,,,,,0,2,2,2,1,,,,,,,,,,,,,,,,,,,,,,,,,,,,,,,,,,,,,,,,,,,,,,
533200,001,2022-11-21_24h11.54.197,Info_measure_main_exp,2022.2.2,Win32,57.93742758,,,,,,,,,,,,,,,,,,masks/mask_002.jpg,,,,,,,,,,,,,,,,,,,,,,,,,,,,,,,,,,,,,,,,,,,0,3,3,1,1,,,,,,,,,,,,,,,,,,,,,,,,,,,,,,,,,,,,,,,,,,,,,,
533200,001,2022-11-21_24h11.54.197,Info_measure_main_exp,2022.2.2,Win32,57.93742758,,,,,,,,,,,,,,,,,,masks/mask_004.jpg,,,,,,,,,,,,,,,,,,,,,,,,,,,,,,,,,,,,,,,,,,,0,4,4,3,1,,,,,,,,,,,,,,,,,,,,,,,,,,,,,,,,,,,,,,,,,,,,,,
533200,001,2022-11-21_24h11.54.197,Info_measure_main_exp,2022.2.2,Win32,57.93742758,,,,,,,,,,,,,,,,,,masks/mask_003.jpg,,,,,,,,,,,,,,,,,,,,,,,,,,,,,,,,,,,,,,,,,,,,,,,,0,0,0,2,1,,,,,,,,,,,,,,,,,,,,,,,,,,,,,,,,,,,,,,,,,
533200,001,2022-11-21_24h11.54.197,Info_measure_main_exp,2022.2.2,Win32,57.93742758,,,,,,,,,,,,,,,,,,masks/mask_004.jpg,,,,,,,,,,,,,,,,,,,,,,,,,,,,,,,,,,,,,,,,,,,,,,,,0,1,1,3,1,,,,,,,,,,,,,,,,,,,,,,,,,,,,,,,,,,,,,,,,,
533200,001,2022-11-21_24h11.54.197,Info_measure_main_exp,2022.2.2,Win32,57.93742758,,,,,,,,,,,,,,,,,,masks/mask_005.jpg,,,,,,,,,,,,,,,,,,,,,,,,,,,,,,,,,,,,,,,,,,,,,,,,0,2,2,4,1,,,,,,,,,,,,,,,,,,,,,,,,,,,,,,,,,,,,,,,,,
533200,001,2022-11-21_24h11.54.197,Info_measure_main_exp,2022.2.2,Win32,57.93742758,,,,,,,,,,,,,,,,,,masks/mask_002.jpg,,,,,,,,,,,,,,,,,,,,,,,,,,,,,,,,,,,,,,,,,,,,,,,,0,3,3,1,1,,,,,,,,,,,,,,,,,,,,,,,,,,,,,,,,,,,,,,,,,
533200,001,2022-11-21_24h11.54.197,Info_measure_main_exp,2022.2.2,Win32,57.93742758,,,,,,,,,,,,,,,,,,masks/mask_001.jpg,,,,,,,,,,,,,,,,,,,,,,,,,,,,,,,,,,,,,,,,,,,,,,,,0,4,4,0,1,,,,,,,,,,,,,,,,,,,,,,,,,,,,,,,,,,,,,,,,,
533200,001,2022-11-21_24h11.54.197,Info_measure_main_exp,2022.2.2,Win32,57.93742758,,,,,,,,,,,,,,,,,,,,,,,,,,,,,,2,2.0979,1,,,,,,,,,,,,1,131,5,5,1,2178,present_patch/cong_131_5_a.jpg,absent_patch/patch0002178.jpg,,,,,,,,,,,,,,,,,,,,-0.135416667,-0.05859375,1,0,0,response5disk,16,-0.005208333,0.001302083,1,0,0,center_square,0,15,15,40,1,,,,,,,,,,,,,,,,,,,,,,,
533200,001,2022-11-21_24h11.54.197,Info_measure_main_exp,2022.2.2,Win32,57.93742758,,,,,,,,,,,,,,,,,,masks/mask_001.jpg,,,,,,,,,,,,,,,,,,,,,,,,,,,,,,,,,,,,,,,,,,,0,0,0,0,1,,,,,,,,,,,,,,,,,,,,,,,,,,,,,,,,,,,,,,,,,,,,,,
533200,001,2022-11-21_24h11.54.197,Info_measure_main_exp,2022.2.2,Win32,57.93742758,,,,,,,,,,,,,,,,,,masks/mask_002.jpg,,,,,,,,,,,,,,,,,,,,,,,,,,,,,,,,,,,,,,,,,,,0,1,1,1,1,,,,,,,,,,,,,,,,,,,,,,,,,,,,,,,,,,,,,,,,,,,,,,
533200,001,2022-11-21_24h11.54.197,Info_measure_main_exp,2022.2.2,Win32,57.93742758,,,,,,,,,,,,,,,,,,masks/mask_004.jpg,,,,,,,,,,,,,,,,,,,,,,,,,,,,,,,,,,,,,,,,,,,0,2,2,3,1,,,,,,,,,,,,,,,,,,,,,,,,,,,,,,,,,,,,,,,,,,,,,,
533200,001,2022-11-21_24h11.54.197,Info_measure_main_exp,2022.2.2,Win32,57.93742758,,,,,,,,,,,,,,,,,,masks/mask_005.jpg,,,,,,,,,,,,,,,,,,,,,,,,,,,,,,,,,,,,,,,,,,,0,3,3,4,1,,,,,,,,,,,,,,,,,,,,,,,,,,,,,,,,,,,,,,,,,,,,,,
533200,001,2022-11-21_24h11.54.197,Info_measure_main_exp,2022.2.2,Win32,57.93742758,,,,,,,,,,,,,,,,,,masks/mask_003.jpg,,,,,,,,,,,,,,,,,,,,,,,,,,,,,,,,,,,,,,,,,,,0,4,4,2,1,,,,,,,,,,,,,,,,,,,,,,,,,,,,,,,,,,,,,,,,,,,,,,
533200,001,2022-11-21_24h11.54.197,Info_measure_main_exp,2022.2.2,Win32,57.93742758,,,,,,,,,,,,,,,,,,masks/mask_001.jpg,,,,,,,,,,,,,,,,,,,,,,,,,,,,,,,,,,,,,,,,,,,,,,,,0,0,0,0,1,,,,,,,,,,,,,,,,,,,,,,,,,,,,,,,,,,,,,,,,,
533200,001,2022-11-21_24h11.54.197,Info_measure_main_exp,2022.2.2,Win32,57.93742758,,,,,,,,,,,,,,,,,,masks/mask_004.jpg,,,,,,,,,,,,,,,,,,,,,,,,,,,,,,,,,,,,,,,,,,,,,,,,0,1,1,3,1,,,,,,,,,,,,,,,,,,,,,,,,,,,,,,,,,,,,,,,,,
533200,001,2022-11-21_24h11.54.197,Info_measure_main_exp,2022.2.2,Win32,57.93742758,,,,,,,,,,,,,,,,,,masks/mask_003.jpg,,,,,,,,,,,,,,,,,,,,,,,,,,,,,,,,,,,,,,,,,,,,,,,,0,2,2,2,1,,,,,,,,,,,,,,,,,,,,,,,,,,,,,,,,,,,,,,,,,
533200,001,2022-11-21_24h11.54.197,Info_measure_main_exp,2022.2.2,Win32,57.93742758,,,,,,,,,,,,,,,,,,masks/mask_002.jpg,,,,,,,,,,,,,,,,,,,,,,,,,,,,,,,,,,,,,,,,,,,,,,,,0,3,3,1,1,,,,,,,,,,,,,,,,,,,,,,,,,,,,,,,,,,,,,,,,,
533200,001,2022-11-21_24h11.54.197,Info_measure_main_exp,2022.2.2,Win32,57.93742758,,,,,,,,,,,,,,,,,,masks/mask_005.jpg,,,,,,,,,,,,,,,,,,,,,,,,,,,,,,,,,,,,,,,,,,,,,,,,0,4,4,4,1,,,,,,,,,,,,,,,,,,,,,,,,,,,,,,,,,,,,,,,,,
533200,001,2022-11-21_24h11.54.197,Info_measure_main_exp,2022.2.2,Win32,57.93742758,,,,,,,,,,,,,,,,,,,,,,,,,,,,,,0,1.3768,1,,,,,,,,,,,,0,131,5,5,1974,1974,absent_patch/patch0001974.jpg,absent_patch/patch0001974.jpg,,,,,,,,,,,,,,,,,,,,-0.044270833,0.088541667,1,0,0,response7disk,17,-0.006510417,0.006510417,1,0,0,center_square,0,16,16,113,1,,,,,,,,,,,,,,,,,,,,,,,
533200,001,2022-11-21_24h11.54.197,Info_measure_main_exp,2022.2.2,Win32,57.93742758,,,,,,,,,,,,,,,,,,masks/mask_003.jpg,,,,,,,,,,,,,,,,,,,,,,,,,,,,,,,,,,,,,,,,,,,0,0,0,2,1,,,,,,,,,,,,,,,,,,,,,,,,,,,,,,,,,,,,,,,,,,,,,,
533200,001,2022-11-21_24h11.54.197,Info_measure_main_exp,2022.2.2,Win32,57.93742758,,,,,,,,,,,,,,,,,,masks/mask_001.jpg,,,,,,,,,,,,,,,,,,,,,,,,,,,,,,,,,,,,,,,,,,,0,1,1,0,1,,,,,,,,,,,,,,,,,,,,,,,,,,,,,,,,,,,,,,,,,,,,,,
533200,001,2022-11-21_24h11.54.197,Info_measure_main_exp,2022.2.2,Win32,57.93742758,,,,,,,,,,,,,,,,,,masks/mask_004.jpg,,,,,,,,,,,,,,,,,,,,,,,,,,,,,,,,,,,,,,,,,,,0,2,2,3,1,,,,,,,,,,,,,,,,,,,,,,,,,,,,,,,,,,,,,,,,,,,,,,
533200,001,2022-11-21_24h11.54.197,Info_measure_main_exp,2022.2.2,Win32,57.93742758,,,,,,,,,,,,,,,,,,masks/mask_002.jpg,,,,,,,,,,,,,,,,,,,,,,,,,,,,,,,,,,,,,,,,,,,0,3,3,1,1,,,,,,,,,,,,,,,,,,,,,,,,,,,,,,,,,,,,,,,,,,,,,,
533200,001,2022-11-21_24h11.54.197,Info_measure_main_exp,2022.2.2,Win32,57.93742758,,,,,,,,,,,,,,,,,,masks/mask_005.jpg,,,,,,,,,,,,,,,,,,,,,,,,,,,,,,,,,,,,,,,,,,,0,4,4,4,1,,,,,,,,,,,,,,,,,,,,,,,,,,,,,,,,,,,,,,,,,,,,,,
533200,001,2022-11-21_24h11.54.197,Info_measure_main_exp,2022.2.2,Win32,57.93742758,,,,,,,,,,,,,,,,,,masks/mask_003.jpg,,,,,,,,,,,,,,,,,,,,,,,,,,,,,,,,,,,,,,,,,,,,,,,,0,0,0,2,1,,,,,,,,,,,,,,,,,,,,,,,,,,,,,,,,,,,,,,,,,
533200,001,2022-11-21_24h11.54.197,Info_measure_main_exp,2022.2.2,Win32,57.93742758,,,,,,,,,,,,,,,,,,masks/mask_001.jpg,,,,,,,,,,,,,,,,,,,,,,,,,,,,,,,,,,,,,,,,,,,,,,,,0,1,1,0,1,,,,,,,,,,,,,,,,,,,,,,,,,,,,,,,,,,,,,,,,,
533200,001,2022-11-21_24h11.54.197,Info_measure_main_exp,2022.2.2,Win32,57.93742758,,,,,,,,,,,,,,,,,,masks/mask_004.jpg,,,,,,,,,,,,,,,,,,,,,,,,,,,,,,,,,,,,,,,,,,,,,,,,0,2,2,3,1,,,,,,,,,,,,,,,,,,,,,,,,,,,,,,,,,,,,,,,,,
533200,001,2022-11-21_24h11.54.197,Info_measure_main_exp,2022.2.2,Win32,57.93742758,,,,,,,,,,,,,,,,,,masks/mask_002.jpg,,,,,,,,,,,,,,,,,,,,,,,,,,,,,,,,,,,,,,,,,,,,,,,,0,3,3,1,1,,,,,,,,,,,,,,,,,,,,,,,,,,,,,,,,,,,,,,,,,
533200,001,2022-11-21_24h11.54.197,Info_measure_main_exp,2022.2.2,Win32,57.93742758,,,,,,,,,,,,,,,,,,masks/mask_005.jpg,,,,,,,,,,,,,,,,,,,,,,,,,,,,,,,,,,,,,,,,,,,,,,,,0,4,4,4,1,,,,,,,,,,,,,,,,,,,,,,,,,,,,,,,,,,,,,,,,,
533200,001,2022-11-21_24h11.54.197,Info_measure_main_exp,2022.2.2,Win32,57.93742758,,,,,,,,,,,,,,,,,,,,,,,,,,,,,,3,1.3752,1,,,,,,,,,,,,0,131,5,5,2190,2178,absent_patch/patch0002190.jpg,absent_patch/patch0002178.jpg,,,,,,,,,,,,,,,,,,,,-0.022135417,-0.083333333,1,0,0,response5disk,18,-0.0078125,-0.005208333,1,0,0,center_square,0,17,17,14,1,,,,,,,,,,,,,,,,,,,,,,,
533200,001,2022-11-21_24h11.54.197,Info_measure_main_exp,2022.2.2,Win32,57.93742758,,,,,,,,,,,,,,,,,,masks/mask_001.jpg,,,,,,,,,,,,,,,,,,,,,,,,,,,,,,,,,,,,,,,,,,,0,0,0,0,1,,,,,,,,,,,,,,,,,,,,,,,,,,,,,,,,,,,,,,,,,,,,,,
533200,001,2022-11-21_24h11.54.197,Info_measure_main_exp,2022.2.2,Win32,57.93742758,,,,,,,,,,,,,,,,,,masks/mask_002.jpg,,,,,,,,,,,,,,,,,,,,,,,,,,,,,,,,,,,,,,,,,,,0,1,1,1,1,,,,,,,,,,,,,,,,,,,,,,,,,,,,,,,,,,,,,,,,,,,,,,
533200,001,2022-11-21_24h11.54.197,Info_measure_main_exp,2022.2.2,Win32,57.93742758,,,,,,,,,,,,,,,,,,masks/mask_005.jpg,,,,,,,,,,,,,,,,,,,,,,,,,,,,,,,,,,,,,,,,,,,0,2,2,4,1,,,,,,,,,,,,,,,,,,,,,,,,,,,,,,,,,,,,,,,,,,,,,,
533200,001,2022-11-21_24h11.54.197,Info_measure_main_exp,2022.2.2,Win32,57.93742758,,,,,,,,,,,,,,,,,,masks/mask_004.jpg,,,,,,,,,,,,,,,,,,,,,,,,,,,,,,,,,,,,,,,,,,,0,3,3,3,1,,,,,,,,,,,,,,,,,,,,,,,,,,,,,,,,,,,,,,,,,,,,,,
533200,001,2022-11-21_24h11.54.197,Info_measure_main_exp,2022.2.2,Win32,57.93742758,,,,,,,,,,,,,,,,,,masks/mask_003.jpg,,,,,,,,,,,,,,,,,,,,,,,,,,,,,,,,,,,,,,,,,,,0,4,4,2,1,,,,,,,,,,,,,,,,,,,,,,,,,,,,,,,,,,,,,,,,,,,,,,
533200,001,2022-11-21_24h11.54.197,Info_measure_main_exp,2022.2.2,Win32,57.93742758,,,,,,,,,,,,,,,,,,masks/mask_001.jpg,,,,,,,,,,,,,,,,,,,,,,,,,,,,,,,,,,,,,,,,,,,,,,,,0,0,0,0,1,,,,,,,,,,,,,,,,,,,,,,,,,,,,,,,,,,,,,,,,,
533200,001,2022-11-21_24h11.54.197,Info_measure_main_exp,2022.2.2,Win32,57.93742758,,,,,,,,,,,,,,,,,,masks/mask_005.jpg,,,,,,,,,,,,,,,,,,,,,,,,,,,,,,,,,,,,,,,,,,,,,,,,0,1,1,4,1,,,,,,,,,,,,,,,,,,,,,,,,,,,,,,,,,,,,,,,,,
533200,001,2022-11-21_24h11.54.197,Info_measure_main_exp,2022.2.2,Win32,57.93742758,,,,,,,,,,,,,,,,,,masks/mask_004.jpg,,,,,,,,,,,,,,,,,,,,,,,,,,,,,,,,,,,,,,,,,,,,,,,,0,2,2,3,1,,,,,,,,,,,,,,,,,,,,,,,,,,,,,,,,,,,,,,,,,
533200,001,2022-11-21_24h11.54.197,Info_measure_main_exp,2022.2.2,Win32,57.93742758,,,,,,,,,,,,,,,,,,masks/mask_003.jpg,,,,,,,,,,,,,,,,,,,,,,,,,,,,,,,,,,,,,,,,,,,,,,,,0,3,3,2,1,,,,,,,,,,,,,,,,,,,,,,,,,,,,,,,,,,,,,,,,,
533200,001,2022-11-21_24h11.54.197,Info_measure_main_exp,2022.2.2,Win32,57.93742758,,,,,,,,,,,,,,,,,,masks/mask_002.jpg,,,,,,,,,,,,,,,,,,,,,,,,,,,,,,,,,,,,,,,,,,,,,,,,0,4,4,1,1,,,,,,,,,,,,,,,,,,,,,,,,,,,,,,,,,,,,,,,,,
533200,001,2022-11-21_24h11.54.197,Info_measure_main_exp,2022.2.2,Win32,57.93742758,,,,,,,,,,,,,,,,,,,,,,,,,,,,,,4,1.4097,1,,,,,,,,,,,,0,131,5,5,2250,2142,absent_patch/patch0002250.jpg,absent_patch/patch0002142.jpg,,,,,,,,,,,,,,,,,,,,0.033854167,-0.07421875,1,0,0,response3disk,19,0.006510417,-0.015625,1,0,0,center_square,0,18,18,71,1,,,,,,,,,,,,,,,,,,,,,,,
533200,001,2022-11-21_24h11.54.197,Info_measure_main_exp,2022.2.2,Win32,57.93742758,,,,,,,,,,,,,,,,,,masks/mask_005.jpg,,,,,,,,,,,,,,,,,,,,,,,,,,,,,,,,,,,,,,,,,,,0,0,0,4,1,,,,,,,,,,,,,,,,,,,,,,,,,,,,,,,,,,,,,,,,,,,,,,
533200,001,2022-11-21_24h11.54.197,Info_measure_main_exp,2022.2.2,Win32,57.93742758,,,,,,,,,,,,,,,,,,masks/mask_004.jpg,,,,,,,,,,,,,,,,,,,,,,,,,,,,,,,,,,,,,,,,,,,0,1,1,3,1,,,,,,,,,,,,,,,,,,,,,,,,,,,,,,,,,,,,,,,,,,,,,,
533200,001,2022-11-21_24h11.54.197,Info_measure_main_exp,2022.2.2,Win32,57.93742758,,,,,,,,,,,,,,,,,,masks/mask_001.jpg,,,,,,,,,,,,,,,,,,,,,,,,,,,,,,,,,,,,,,,,,,,0,2,2,0,1,,,,,,,,,,,,,,,,,,,,,,,,,,,,,,,,,,,,,,,,,,,,,,
533200,001,2022-11-21_24h11.54.197,Info_measure_main_exp,2022.2.2,Win32,57.93742758,,,,,,,,,,,,,,,,,,masks/mask_003.jpg,,,,,,,,,,,,,,,,,,,,,,,,,,,,,,,,,,,,,,,,,,,0,3,3,2,1,,,,,,,,,,,,,,,,,,,,,,,,,,,,,,,,,,,,,,,,,,,,,,
533200,001,2022-11-21_24h11.54.197,Info_measure_main_exp,2022.2.2,Win32,57.93742758,,,,,,,,,,,,,,,,,,masks/mask_002.jpg,,,,,,,,,,,,,,,,,,,,,,,,,,,,,,,,,,,,,,,,,,,0,4,4,1,1,,,,,,,,,,,,,,,,,,,,,,,,,,,,,,,,,,,,,,,,,,,,,,
533200,001,2022-11-21_24h11.54.197,Info_measure_main_exp,2022.2.2,Win32,57.93742758,,,,,,,,,,,,,,,,,,masks/mask_002.jpg,,,,,,,,,,,,,,,,,,,,,,,,,,,,,,,,,,,,,,,,,,,,,,,,0,0,0,1,1,,,,,,,,,,,,,,,,,,,,,,,,,,,,,,,,,,,,,,,,,
533200,001,2022-11-21_24h11.54.197,Info_measure_main_exp,2022.2.2,Win32,57.93742758,,,,,,,,,,,,,,,,,,masks/mask_005.jpg,,,,,,,,,,,,,,,,,,,,,,,,,,,,,,,,,,,,,,,,,,,,,,,,0,1,1,4,1,,,,,,,,,,,,,,,,,,,,,,,,,,,,,,,,,,,,,,,,,
533200,001,2022-11-21_24h11.54.197,Info_measure_main_exp,2022.2.2,Win32,57.93742758,,,,,,,,,,,,,,,,,,masks/mask_003.jpg,,,,,,,,,,,,,,,,,,,,,,,,,,,,,,,,,,,,,,,,,,,,,,,,0,2,2,2,1,,,,,,,,,,,,,,,,,,,,,,,,,,,,,,,,,,,,,,,,,
533200,001,2022-11-21_24h11.54.197,Info_measure_main_exp,2022.2.2,Win32,57.93742758,,,,,,,,,,,,,,,,,,masks/mask_004.jpg,,,,,,,,,,,,,,,,,,,,,,,,,,,,,,,,,,,,,,,,,,,,,,,,0,3,3,3,1,,,,,,,,,,,,,,,,,,,,,,,,,,,,,,,,,,,,,,,,,
533200,001,2022-11-21_24h11.54.197,Info_measure_main_exp,2022.2.2,Win32,57.93742758,,,,,,,,,,,,,,,,,,masks/mask_001.jpg,,,,,,,,,,,,,,,,,,,,,,,,,,,,,,,,,,,,,,,,,,,,,,,,0,4,4,0,1,,,,,,,,,,,,,,,,,,,,,,,,,,,,,,,,,,,,,,,,,
533200,001,2022-11-21_24h11.54.197,Info_measure_main_exp,2022.2.2,Win32,57.93742758,,,,,,,,,,,,,,,,,,,,,,,,,,,,,,6,1.4166,1,,,,,,,,,,,,0,131,5,5,1986,2154,absent_patch/patch0001986.jpg,absent_patch/patch0002154.jpg,,,,,,,,,,,,,,,,,,,,0.102864583,0.065104167,1,0,0,response1disk,20,0.005208333,0.005208333,1,0,0,center_square,0,19,19,36,1,,,,,,,,,,,,,,,,,,,,,,,
533200,001,2022-11-21_24h11.54.197,Info_measure_main_exp,2022.2.2,Win32,57.93742758,,,,,,,,,,,,,,,,,,masks/mask_005.jpg,,,,,,,,,,,,,,,,,,,,,,,,,,,,,,,,,,,,,,,,,,,0,0,0,4,1,,,,,,,,,,,,,,,,,,,,,,,,,,,,,,,,,,,,,,,,,,,,,,
533200,001,2022-11-21_24h11.54.197,Info_measure_main_exp,2022.2.2,Win32,57.93742758,,,,,,,,,,,,,,,,,,masks/mask_003.jpg,,,,,,,,,,,,,,,,,,,,,,,,,,,,,,,,,,,,,,,,,,,0,1,1,2,1,,,,,,,,,,,,,,,,,,,,,,,,,,,,,,,,,,,,,,,,,,,,,,
533200,001,2022-11-21_24h11.54.197,Info_measure_main_exp,2022.2.2,Win32,57.93742758,,,,,,,,,,,,,,,,,,masks/mask_004.jpg,,,,,,,,,,,,,,,,,,,,,,,,,,,,,,,,,,,,,,,,,,,0,2,2,3,1,,,,,,,,,,,,,,,,,,,,,,,,,,,,,,,,,,,,,,,,,,,,,,
533200,001,2022-11-21_24h11.54.197,Info_measure_main_exp,2022.2.2,Win32,57.93742758,,,,,,,,,,,,,,,,,,masks/mask_002.jpg,,,,,,,,,,,,,,,,,,,,,,,,,,,,,,,,,,,,,,,,,,,0,3,3,1,1,,,,,,,,,,,,,,,,,,,,,,,,,,,,,,,,,,,,,,,,,,,,,,
533200,001,2022-11-21_24h11.54.197,Info_measure_main_exp,2022.2.2,Win32,57.93742758,,,,,,,,,,,,,,,,,,masks/mask_001.jpg,,,,,,,,,,,,,,,,,,,,,,,,,,,,,,,,,,,,,,,,,,,0,4,4,0,1,,,,,,,,,,,,,,,,,,,,,,,,,,,,,,,,,,,,,,,,,,,,,,
533200,001,2022-11-21_24h11.54.197,Info_measure_main_exp,2022.2.2,Win32,57.93742758,,,,,,,,,,,,,,,,,,masks/mask_003.jpg,,,,,,,,,,,,,,,,,,,,,,,,,,,,,,,,,,,,,,,,,,,,,,,,0,0,0,2,1,,,,,,,,,,,,,,,,,,,,,,,,,,,,,,,,,,,,,,,,,
533200,001,2022-11-21_24h11.54.197,Info_measure_main_exp,2022.2.2,Win32,57.93742758,,,,,,,,,,,,,,,,,,masks/mask_005.jpg,,,,,,,,,,,,,,,,,,,,,,,,,,,,,,,,,,,,,,,,,,,,,,,,0,1,1,4,1,,,,,,,,,,,,,,,,,,,,,,,,,,,,,,,,,,,,,,,,,
533200,001,2022-11-21_24h11.54.197,Info_measure_main_exp,2022.2.2,Win32,57.93742758,,,,,,,,,,,,,,,,,,masks/mask_004.jpg,,,,,,,,,,,,,,,,,,,,,,,,,,,,,,,,,,,,,,,,,,,,,,,,0,2,2,3,1,,,,,,,,,,,,,,,,,,,,,,,,,,,,,,,,,,,,,,,,,
533200,001,2022-11-21_24h11.54.197,Info_measure_main_exp,2022.2.2,Win32,57.93742758,,,,,,,,,,,,,,,,,,masks/mask_002.jpg,,,,,,,,,,,,,,,,,,,,,,,,,,,,,,,,,,,,,,,,,,,,,,,,0,3,3,1,1,,,,,,,,,,,,,,,,,,,,,,,,,,,,,,,,,,,,,,,,,
533200,001,2022-11-21_24h11.54.197,Info_measure_main_exp,2022.2.2,Win32,57.93742758,,,,,,,,,,,,,,,,,,masks/mask_001.jpg,,,,,,,,,,,,,,,,,,,,,,,,,,,,,,,,,,,,,,,,,,,,,,,,0,4,4,0,1,,,,,,,,,,,,,,,,,,,,,,,,,,,,,,,,,,,,,,,,,
533200,001,2022-11-21_24h11.54.197,Info_measure_main_exp,2022.2.2,Win32,57.93742758,,,,,,,,,,,,,,,,,,,,,,,,,,,,,,7,0.9948,1,,,,,,,,,,,,0,131,5,5,2142,2154,absent_patch/patch0002142.jpg,absent_patch/patch0002154.jpg,,,,,,,,,,,,,,,,,,,,0.0234375,0.078125,1,0,0,response1disk,21,0.006510417,0.010416667,1,0,0,center_square,0,20,20,9,1,,,,,,,,,,,,,,,,,,,,,,,
533200,001,2022-11-21_24h11.54.197,Info_measure_main_exp,2022.2.2,Win32,57.93742758,,,,,,,,,,,,,,,,,,masks/mask_005.jpg,,,,,,,,,,,,,,,,,,,,,,,,,,,,,,,,,,,,,,,,,,,0,0,0,4,1,,,,,,,,,,,,,,,,,,,,,,,,,,,,,,,,,,,,,,,,,,,,,,
533200,001,2022-11-21_24h11.54.197,Info_measure_main_exp,2022.2.2,Win32,57.93742758,,,,,,,,,,,,,,,,,,masks/mask_003.jpg,,,,,,,,,,,,,,,,,,,,,,,,,,,,,,,,,,,,,,,,,,,0,1,1,2,1,,,,,,,,,,,,,,,,,,,,,,,,,,,,,,,,,,,,,,,,,,,,,,
533200,001,2022-11-21_24h11.54.197,Info_measure_main_exp,2022.2.2,Win32,57.93742758,,,,,,,,,,,,,,,,,,masks/mask_001.jpg,,,,,,,,,,,,,,,,,,,,,,,,,,,,,,,,,,,,,,,,,,,0,2,2,0,1,,,,,,,,,,,,,,,,,,,,,,,,,,,,,,,,,,,,,,,,,,,,,,
533200,001,2022-11-21_24h11.54.197,Info_measure_main_exp,2022.2.2,Win32,57.93742758,,,,,,,,,,,,,,,,,,masks/mask_002.jpg,,,,,,,,,,,,,,,,,,,,,,,,,,,,,,,,,,,,,,,,,,,0,3,3,1,1,,,,,,,,,,,,,,,,,,,,,,,,,,,,,,,,,,,,,,,,,,,,,,
533200,001,2022-11-21_24h11.54.197,Info_measure_main_exp,2022.2.2,Win32,57.93742758,,,,,,,,,,,,,,,,,,masks/mask_004.jpg,,,,,,,,,,,,,,,,,,,,,,,,,,,,,,,,,,,,,,,,,,,0,4,4,3,1,,,,,,,,,,,,,,,,,,,,,,,,,,,,,,,,,,,,,,,,,,,,,,
533200,001,2022-11-21_24h11.54.197,Info_measure_main_exp,2022.2.2,Win32,57.93742758,,,,,,,,,,,,,,,,,,masks/mask_005.jpg,,,,,,,,,,,,,,,,,,,,,,,,,,,,,,,,,,,,,,,,,,,,,,,,0,0,0,4,1,,,,,,,,,,,,,,,,,,,,,,,,,,,,,,,,,,,,,,,,,
533200,001,2022-11-21_24h11.54.197,Info_measure_main_exp,2022.2.2,Win32,57.93742758,,,,,,,,,,,,,,,,,,masks/mask_003.jpg,,,,,,,,,,,,,,,,,,,,,,,,,,,,,,,,,,,,,,,,,,,,,,,,0,1,1,2,1,,,,,,,,,,,,,,,,,,,,,,,,,,,,,,,,,,,,,,,,,
533200,001,2022-11-21_24h11.54.197,Info_measure_main_exp,2022.2.2,Win32,57.93742758,,,,,,,,,,,,,,,,,,masks/mask_002.jpg,,,,,,,,,,,,,,,,,,,,,,,,,,,,,,,,,,,,,,,,,,,,,,,,0,2,2,1,1,,,,,,,,,,,,,,,,,,,,,,,,,,,,,,,,,,,,,,,,,
533200,001,2022-11-21_24h11.54.197,Info_measure_main_exp,2022.2.2,Win32,57.93742758,,,,,,,,,,,,,,,,,,masks/mask_001.jpg,,,,,,,,,,,,,,,,,,,,,,,,,,,,,,,,,,,,,,,,,,,,,,,,0,3,3,0,1,,,,,,,,,,,,,,,,,,,,,,,,,,,,,,,,,,,,,,,,,
533200,001,2022-11-21_24h11.54.197,Info_measure_main_exp,2022.2.2,Win32,57.93742758,,,,,,,,,,,,,,,,,,masks/mask_004.jpg,,,,,,,,,,,,,,,,,,,,,,,,,,,,,,,,,,,,,,,,,,,,,,,,0,4,4,3,1,,,,,,,,,,,,,,,,,,,,,,,,,,,,,,,,,,,,,,,,,
533200,001,2022-11-21_24h11.54.197,Info_measure_main_exp,2022.2.2,Win32,57.93742758,,,,,,,,,,,,,,,,,,,,,,,,,,,,,,0,0.7735,1,,,,,,,,,,,,0,131,5,5,2274,2274,absent_patch/patch0002274.jpg,absent_patch/patch0002274.jpg,,,,,,,,,,,,,,,,,,,,-0.048177083,0.084635417,1,0,0,response7disk,22,-0.006510417,0.006510417,1,0,0,center_square,0,21,21,114,1,,,,,,,,,,,,,,,,,,,,,,,
533200,001,2022-11-21_24h11.54.197,Info_measure_main_exp,2022.2.2,Win32,57.93742758,,,,,,,,,,,,,,,,,,masks/mask_002.jpg,,,,,,,,,,,,,,,,,,,,,,,,,,,,,,,,,,,,,,,,,,,0,0,0,1,1,,,,,,,,,,,,,,,,,,,,,,,,,,,,,,,,,,,,,,,,,,,,,,
533200,001,2022-11-21_24h11.54.197,Info_measure_main_exp,2022.2.2,Win32,57.93742758,,,,,,,,,,,,,,,,,,masks/mask_005.jpg,,,,,,,,,,,,,,,,,,,,,,,,,,,,,,,,,,,,,,,,,,,0,1,1,4,1,,,,,,,,,,,,,,,,,,,,,,,,,,,,,,,,,,,,,,,,,,,,,,
533200,001,2022-11-21_24h11.54.197,Info_measure_main_exp,2022.2.2,Win32,57.93742758,,,,,,,,,,,,,,,,,,masks/mask_003.jpg,,,,,,,,,,,,,,,,,,,,,,,,,,,,,,,,,,,,,,,,,,,0,2,2,2,1,,,,,,,,,,,,,,,,,,,,,,,,,,,,,,,,,,,,,,,,,,,,,,
533200,001,2022-11-21_24h11.54.197,Info_measure_main_exp,2022.2.2,Win32,57.93742758,,,,,,,,,,,,,,,,,,masks/mask_004.jpg,,,,,,,,,,,,,,,,,,,,,,,,,,,,,,,,,,,,,,,,,,,0,3,3,3,1,,,,,,,,,,,,,,,,,,,,,,,,,,,,,,,,,,,,,,,,,,,,,,
533200,001,2022-11-21_24h11.54.197,Info_measure_main_exp,2022.2.2,Win32,57.93742758,,,,,,,,,,,,,,,,,,masks/mask_001.jpg,,,,,,,,,,,,,,,,,,,,,,,,,,,,,,,,,,,,,,,,,,,0,4,4,0,1,,,,,,,,,,,,,,,,,,,,,,,,,,,,,,,,,,,,,,,,,,,,,,
533200,001,2022-11-21_24h11.54.197,Info_measure_main_exp,2022.2.2,Win32,57.93742758,,,,,,,,,,,,,,,,,,masks/mask_001.jpg,,,,,,,,,,,,,,,,,,,,,,,,,,,,,,,,,,,,,,,,,,,,,,,,0,0,0,0,1,,,,,,,,,,,,,,,,,,,,,,,,,,,,,,,,,,,,,,,,,
533200,001,2022-11-21_24h11.54.197,Info_measure_main_exp,2022.2.2,Win32,57.93742758,,,,,,,,,,,,,,,,,,masks/mask_002.jpg,,,,,,,,,,,,,,,,,,,,,,,,,,,,,,,,,,,,,,,,,,,,,,,,0,1,1,1,1,,,,,,,,,,,,,,,,,,,,,,,,,,,,,,,,,,,,,,,,,
533200,001,2022-11-21_24h11.54.197,Info_measure_main_exp,2022.2.2,Win32,57.93742758,,,,,,,,,,,,,,,,,,masks/mask_004.jpg,,,,,,,,,,,,,,,,,,,,,,,,,,,,,,,,,,,,,,,,,,,,,,,,0,2,2,3,1,,,,,,,,,,,,,,,,,,,,,,,,,,,,,,,,,,,,,,,,,
533200,001,2022-11-21_24h11.54.197,Info_measure_main_exp,2022.2.2,Win32,57.93742758,,,,,,,,,,,,,,,,,,masks/mask_005.jpg,,,,,,,,,,,,,,,,,,,,,,,,,,,,,,,,,,,,,,,,,,,,,,,,0,3,3,4,1,,,,,,,,,,,,,,,,,,,,,,,,,,,,,,,,,,,,,,,,,
533200,001,2022-11-21_24h11.54.197,Info_measure_main_exp,2022.2.2,Win32,57.93742758,,,,,,,,,,,,,,,,,,masks/mask_003.jpg,,,,,,,,,,,,,,,,,,,,,,,,,,,,,,,,,,,,,,,,,,,,,,,,0,4,4,2,1,,,,,,,,,,,,,,,,,,,,,,,,,,,,,,,,,,,,,,,,,
533200,001,2022-11-21_24h11.54.197,Info_measure_main_exp,2022.2.2,Win32,57.93742758,,,,,,,,,,,,,,,,,,,,,,,,,,,,,,7,1.3202,1,,,,,,,,,,,,0,131,5,5,1950,2214,absent_patch/patch0001950.jpg,absent_patch/patch0002214.jpg,,,,,,,,,,,,,,,,,,,,0.05078125,0.111979167,1,0,0,response1disk,23,0.0078125,0.0078125,1,0,0,center_square,0,22,22,85,1,,,,,,,,,,,,,,,,,,,,,,,
533200,001,2022-11-21_24h11.54.197,Info_measure_main_exp,2022.2.2,Win32,57.93742758,,,,,,,,,,,,,,,,,,masks/mask_001.jpg,,,,,,,,,,,,,,,,,,,,,,,,,,,,,,,,,,,,,,,,,,,0,0,0,0,1,,,,,,,,,,,,,,,,,,,,,,,,,,,,,,,,,,,,,,,,,,,,,,
533200,001,2022-11-21_24h11.54.197,Info_measure_main_exp,2022.2.2,Win32,57.93742758,,,,,,,,,,,,,,,,,,masks/mask_004.jpg,,,,,,,,,,,,,,,,,,,,,,,,,,,,,,,,,,,,,,,,,,,0,1,1,3,1,,,,,,,,,,,,,,,,,,,,,,,,,,,,,,,,,,,,,,,,,,,,,,
533200,001,2022-11-21_24h11.54.197,Info_measure_main_exp,2022.2.2,Win32,57.93742758,,,,,,,,,,,,,,,,,,masks/mask_002.jpg,,,,,,,,,,,,,,,,,,,,,,,,,,,,,,,,,,,,,,,,,,,0,2,2,1,1,,,,,,,,,,,,,,,,,,,,,,,,,,,,,,,,,,,,,,,,,,,,,,
533200,001,2022-11-21_24h11.54.197,Info_measure_main_exp,2022.2.2,Win32,57.93742758,,,,,,,,,,,,,,,,,,masks/mask_003.jpg,,,,,,,,,,,,,,,,,,,,,,,,,,,,,,,,,,,,,,,,,,,0,3,3,2,1,,,,,,,,,,,,,,,,,,,,,,,,,,,,,,,,,,,,,,,,,,,,,,
533200,001,2022-11-21_24h11.54.197,Info_measure_main_exp,2022.2.2,Win32,57.93742758,,,,,,,,,,,,,,,,,,masks/mask_005.jpg,,,,,,,,,,,,,,,,,,,,,,,,,,,,,,,,,,,,,,,,,,,0,4,4,4,1,,,,,,,,,,,,,,,,,,,,,,,,,,,,,,,,,,,,,,,,,,,,,,
533200,001,2022-11-21_24h11.54.197,Info_measure_main_exp,2022.2.2,Win32,57.93742758,,,,,,,,,,,,,,,,,,masks/mask_005.jpg,,,,,,,,,,,,,,,,,,,,,,,,,,,,,,,,,,,,,,,,,,,,,,,,0,0,0,4,1,,,,,,,,,,,,,,,,,,,,,,,,,,,,,,,,,,,,,,,,,
533200,001,2022-11-21_24h11.54.197,Info_measure_main_exp,2022.2.2,Win32,57.93742758,,,,,,,,,,,,,,,,,,masks/mask_001.jpg,,,,,,,,,,,,,,,,,,,,,,,,,,,,,,,,,,,,,,,,,,,,,,,,0,1,1,0,1,,,,,,,,,,,,,,,,,,,,,,,,,,,,,,,,,,,,,,,,,
533200,001,2022-11-21_24h11.54.197,Info_measure_main_exp,2022.2.2,Win32,57.93742758,,,,,,,,,,,,,,,,,,masks/mask_002.jpg,,,,,,,,,,,,,,,,,,,,,,,,,,,,,,,,,,,,,,,,,,,,,,,,0,2,2,1,1,,,,,,,,,,,,,,,,,,,,,,,,,,,,,,,,,,,,,,,,,
533200,001,2022-11-21_24h11.54.197,Info_measure_main_exp,2022.2.2,Win32,57.93742758,,,,,,,,,,,,,,,,,,masks/mask_003.jpg,,,,,,,,,,,,,,,,,,,,,,,,,,,,,,,,,,,,,,,,,,,,,,,,0,3,3,2,1,,,,,,,,,,,,,,,,,,,,,,,,,,,,,,,,,,,,,,,,,
533200,001,2022-11-21_24h11.54.197,Info_measure_main_exp,2022.2.2,Win32,57.93742758,,,,,,,,,,,,,,,,,,masks/mask_004.jpg,,,,,,,,,,,,,,,,,,,,,,,,,,,,,,,,,,,,,,,,,,,,,,,,0,4,4,3,1,,,,,,,,,,,,,,,,,,,,,,,,,,,,,,,,,,,,,,,,,
533200,001,2022-11-21_24h11.54.197,Info_measure_main_exp,2022.2.2,Win32,57.93742758,,,,,,,,,,,,,,,,,,,,,,,,,,,,,,6,1.1149,1,,,,,,,,,,,,0,131,5,5,2214,2178,absent_patch/patch0002214.jpg,absent_patch/patch0002178.jpg,,,,,,,,,,,,,,,,,,,,0.061197917,0.036458333,1,0,0,response1disk,24,0.005208333,0.006510417,1,0,0,center_square,0,23,23,62,1,,,,,,,,,,,,,,,,,,,,,,,
533200,001,2022-11-21_24h11.54.197,Info_measure_main_exp,2022.2.2,Win32,57.93742758,,,,,,,,,,,,,,,,,,masks/mask_001.jpg,,,,,,,,,,,,,,,,,,,,,,,,,,,,,,,,,,,,,,,,,,,0,0,0,0,1,,,,,,,,,,,,,,,,,,,,,,,,,,,,,,,,,,,,,,,,,,,,,,
533200,001,2022-11-21_24h11.54.197,Info_measure_main_exp,2022.2.2,Win32,57.93742758,,,,,,,,,,,,,,,,,,masks/mask_005.jpg,,,,,,,,,,,,,,,,,,,,,,,,,,,,,,,,,,,,,,,,,,,0,1,1,4,1,,,,,,,,,,,,,,,,,,,,,,,,,,,,,,,,,,,,,,,,,,,,,,
533200,001,2022-11-21_24h11.54.197,Info_measure_main_exp,2022.2.2,Win32,57.93742758,,,,,,,,,,,,,,,,,,masks/mask_004.jpg,,,,,,,,,,,,,,,,,,,,,,,,,,,,,,,,,,,,,,,,,,,0,2,2,3,1,,,,,,,,,,,,,,,,,,,,,,,,,,,,,,,,,,,,,,,,,,,,,,
533200,001,2022-11-21_24h11.54.197,Info_measure_main_exp,2022.2.2,Win32,57.93742758,,,,,,,,,,,,,,,,,,masks/mask_002.jpg,,,,,,,,,,,,,,,,,,,,,,,,,,,,,,,,,,,,,,,,,,,0,3,3,1,1,,,,,,,,,,,,,,,,,,,,,,,,,,,,,,,,,,,,,,,,,,,,,,
533200,001,2022-11-21_24h11.54.197,Info_measure_main_exp,2022.2.2,Win32,57.93742758,,,,,,,,,,,,,,,,,,masks/mask_003.jpg,,,,,,,,,,,,,,,,,,,,,,,,,,,,,,,,,,,,,,,,,,,0,4,4,2,1,,,,,,,,,,,,,,,,,,,,,,,,,,,,,,,,,,,,,,,,,,,,,,
533200,001,2022-11-21_24h11.54.197,Info_measure_main_exp,2022.2.2,Win32,57.93742758,,,,,,,,,,,,,,,,,,masks/mask_005.jpg,,,,,,,,,,,,,,,,,,,,,,,,,,,,,,,,,,,,,,,,,,,,,,,,0,0,0,4,1,,,,,,,,,,,,,,,,,,,,,,,,,,,,,,,,,,,,,,,,,
533200,001,2022-11-21_24h11.54.197,Info_measure_main_exp,2022.2.2,Win32,57.93742758,,,,,,,,,,,,,,,,,,masks/mask_004.jpg,,,,,,,,,,,,,,,,,,,,,,,,,,,,,,,,,,,,,,,,,,,,,,,,0,1,1,3,1,,,,,,,,,,,,,,,,,,,,,,,,,,,,,,,,,,,,,,,,,
533200,001,2022-11-21_24h11.54.197,Info_measure_main_exp,2022.2.2,Win32,57.93742758,,,,,,,,,,,,,,,,,,masks/mask_003.jpg,,,,,,,,,,,,,,,,,,,,,,,,,,,,,,,,,,,,,,,,,,,,,,,,0,2,2,2,1,,,,,,,,,,,,,,,,,,,,,,,,,,,,,,,,,,,,,,,,,
533200,001,2022-11-21_24h11.54.197,Info_measure_main_exp,2022.2.2,Win32,57.93742758,,,,,,,,,,,,,,,,,,masks/mask_002.jpg,,,,,,,,,,,,,,,,,,,,,,,,,,,,,,,,,,,,,,,,,,,,,,,,0,3,3,1,1,,,,,,,,,,,,,,,,,,,,,,,,,,,,,,,,,,,,,,,,,
533200,001,2022-11-21_24h11.54.197,Info_measure_main_exp,2022.2.2,Win32,57.93742758,,,,,,,,,,,,,,,,,,masks/mask_001.jpg,,,,,,,,,,,,,,,,,,,,,,,,,,,,,,,,,,,,,,,,,,,,,,,,0,4,4,0,1,,,,,,,,,,,,,,,,,,,,,,,,,,,,,,,,,,,,,,,,,
533200,001,2022-11-21_24h11.54.197,Info_measure_main_exp,2022.2.2,Win32,57.93742758,,,,,,,,,,,,,,,,,,,,,,,,,,,,,,4,1.4994,1,,,,,,,,,,,,1,131,5,5,1,1986,present_patch/cong_131_5_a.jpg,absent_patch/patch0001986.jpg,,,,,,,,,,,,,,,,,,,,0.029947917,-0.065104167,1,0,0,response3disk,25,0.002604167,0,1,0,0,center_square,0,24,24,106,1,,,,,,,,,,,,,,,,,,,,,,,
533200,001,2022-11-21_24h11.54.197,Info_measure_main_exp,2022.2.2,Win32,57.93742758,,,,,,,,,,,,,,,,,,masks/mask_003.jpg,,,,,,,,,,,,,,,,,,,,,,,,,,,,,,,,,,,,,,,,,,,0,0,0,2,1,,,,,,,,,,,,,,,,,,,,,,,,,,,,,,,,,,,,,,,,,,,,,,
533200,001,2022-11-21_24h11.54.197,Info_measure_main_exp,2022.2.2,Win32,57.93742758,,,,,,,,,,,,,,,,,,masks/mask_004.jpg,,,,,,,,,,,,,,,,,,,,,,,,,,,,,,,,,,,,,,,,,,,0,1,1,3,1,,,,,,,,,,,,,,,,,,,,,,,,,,,,,,,,,,,,,,,,,,,,,,
533200,001,2022-11-21_24h11.54.197,Info_measure_main_exp,2022.2.2,Win32,57.93742758,,,,,,,,,,,,,,,,,,masks/mask_002.jpg,,,,,,,,,,,,,,,,,,,,,,,,,,,,,,,,,,,,,,,,,,,0,2,2,1,1,,,,,,,,,,,,,,,,,,,,,,,,,,,,,,,,,,,,,,,,,,,,,,
533200,001,2022-11-21_24h11.54.197,Info_measure_main_exp,2022.2.2,Win32,57.93742758,,,,,,,,,,,,,,,,,,masks/mask_001.jpg,,,,,,,,,,,,,,,,,,,,,,,,,,,,,,,,,,,,,,,,,,,0,3,3,0,1,,,,,,,,,,,,,,,,,,,,,,,,,,,,,,,,,,,,,,,,,,,,,,
533200,001,2022-11-21_24h11.54.197,Info_measure_main_exp,2022.2.2,Win32,57.93742758,,,,,,,,,,,,,,,,,,masks/mask_005.jpg,,,,,,,,,,,,,,,,,,,,,,,,,,,,,,,,,,,,,,,,,,,0,4,4,4,1,,,,,,,,,,,,,,,,,,,,,,,,,,,,,,,,,,,,,,,,,,,,,,
533200,001,2022-11-21_24h11.54.197,Info_measure_main_exp,2022.2.2,Win32,57.93742758,,,,,,,,,,,,,,,,,,masks/mask_004.jpg,,,,,,,,,,,,,,,,,,,,,,,,,,,,,,,,,,,,,,,,,,,,,,,,0,0,0,3,1,,,,,,,,,,,,,,,,,,,,,,,,,,,,,,,,,,,,,,,,,
533200,001,2022-11-21_24h11.54.197,Info_measure_main_exp,2022.2.2,Win32,57.93742758,,,,,,,,,,,,,,,,,,masks/mask_003.jpg,,,,,,,,,,,,,,,,,,,,,,,,,,,,,,,,,,,,,,,,,,,,,,,,0,1,1,2,1,,,,,,,,,,,,,,,,,,,,,,,,,,,,,,,,,,,,,,,,,
533200,001,2022-11-21_24h11.54.197,Info_measure_main_exp,2022.2.2,Win32,57.93742758,,,,,,,,,,,,,,,,,,masks/mask_001.jpg,,,,,,,,,,,,,,,,,,,,,,,,,,,,,,,,,,,,,,,,,,,,,,,,0,2,2,0,1,,,,,,,,,,,,,,,,,,,,,,,,,,,,,,,,,,,,,,,,,
533200,001,2022-11-21_24h11.54.197,Info_measure_main_exp,2022.2.2,Win32,57.93742758,,,,,,,,,,,,,,,,,,masks/mask_002.jpg,,,,,,,,,,,,,,,,,,,,,,,,,,,,,,,,,,,,,,,,,,,,,,,,0,3,3,1,1,,,,,,,,,,,,,,,,,,,,,,,,,,,,,,,,,,,,,,,,,
533200,001,2022-11-21_24h11.54.197,Info_measure_main_exp,2022.2.2,Win32,57.93742758,,,,,,,,,,,,,,,,,,masks/mask_005.jpg,,,,,,,,,,,,,,,,,,,,,,,,,,,,,,,,,,,,,,,,,,,,,,,,0,4,4,4,1,,,,,,,,,,,,,,,,,,,,,,,,,,,,,,,,,,,,,,,,,
533200,001,2022-11-21_24h11.54.197,Info_measure_main_exp,2022.2.2,Win32,57.93742758,,,,,,,,,,,,,,,,,,,,,,,,,,,,,,5,1.7539,1,,,,,,,,,,,,0,131,5,5,2274,2178,absent_patch/patch0002274.jpg,absent_patch/patch0002178.jpg,,,,,,,,,,,,,,,,,,,,0.084635417,-0.036458333,1,0,0,response3disk,26,0.009114583,-0.006510417,1,0,0,center_square,0,25,25,117,1,,,,,,,,,,,,,,,,,,,,,,,
533200,001,2022-11-21_24h11.54.197,Info_measure_main_exp,2022.2.2,Win32,57.93742758,,,,,,,,,,,,,,,,,,masks/mask_005.jpg,,,,,,,,,,,,,,,,,,,,,,,,,,,,,,,,,,,,,,,,,,,0,0,0,4,1,,,,,,,,,,,,,,,,,,,,,,,,,,,,,,,,,,,,,,,,,,,,,,
533200,001,2022-11-21_24h11.54.197,Info_measure_main_exp,2022.2.2,Win32,57.93742758,,,,,,,,,,,,,,,,,,masks/mask_003.jpg,,,,,,,,,,,,,,,,,,,,,,,,,,,,,,,,,,,,,,,,,,,0,1,1,2,1,,,,,,,,,,,,,,,,,,,,,,,,,,,,,,,,,,,,,,,,,,,,,,
533200,001,2022-11-21_24h11.54.197,Info_measure_main_exp,2022.2.2,Win32,57.93742758,,,,,,,,,,,,,,,,,,masks/mask_004.jpg,,,,,,,,,,,,,,,,,,,,,,,,,,,,,,,,,,,,,,,,,,,0,2,2,3,1,,,,,,,,,,,,,,,,,,,,,,,,,,,,,,,,,,,,,,,,,,,,,,
533200,001,2022-11-21_24h11.54.197,Info_measure_main_exp,2022.2.2,Win32,57.93742758,,,,,,,,,,,,,,,,,,masks/mask_001.jpg,,,,,,,,,,,,,,,,,,,,,,,,,,,,,,,,,,,,,,,,,,,0,3,3,0,1,,,,,,,,,,,,,,,,,,,,,,,,,,,,,,,,,,,,,,,,,,,,,,
533200,001,2022-11-21_24h11.54.197,Info_measure_main_exp,2022.2.2,Win32,57.93742758,,,,,,,,,,,,,,,,,,masks/mask_002.jpg,,,,,,,,,,,,,,,,,,,,,,,,,,,,,,,,,,,,,,,,,,,0,4,4,1,1,,,,,,,,,,,,,,,,,,,,,,,,,,,,,,,,,,,,,,,,,,,,,,
533200,001,2022-11-21_24h11.54.197,Info_measure_main_exp,2022.2.2,Win32,57.93742758,,,,,,,,,,,,,,,,,,masks/mask_003.jpg,,,,,,,,,,,,,,,,,,,,,,,,,,,,,,,,,,,,,,,,,,,,,,,,0,0,0,2,1,,,,,,,,,,,,,,,,,,,,,,,,,,,,,,,,,,,,,,,,,
533200,001,2022-11-21_24h11.54.197,Info_measure_main_exp,2022.2.2,Win32,57.93742758,,,,,,,,,,,,,,,,,,masks/mask_005.jpg,,,,,,,,,,,,,,,,,,,,,,,,,,,,,,,,,,,,,,,,,,,,,,,,0,1,1,4,1,,,,,,,,,,,,,,,,,,,,,,,,,,,,,,,,,,,,,,,,,
533200,001,2022-11-21_24h11.54.197,Info_measure_main_exp,2022.2.2,Win32,57.93742758,,,,,,,,,,,,,,,,,,masks/mask_002.jpg,,,,,,,,,,,,,,,,,,,,,,,,,,,,,,,,,,,,,,,,,,,,,,,,0,2,2,1,1,,,,,,,,,,,,,,,,,,,,,,,,,,,,,,,,,,,,,,,,,
533200,001,2022-11-21_24h11.54.197,Info_measure_main_exp,2022.2.2,Win32,57.93742758,,,,,,,,,,,,,,,,,,masks/mask_004.jpg,,,,,,,,,,,,,,,,,,,,,,,,,,,,,,,,,,,,,,,,,,,,,,,,0,3,3,3,1,,,,,,,,,,,,,,,,,,,,,,,,,,,,,,,,,,,,,,,,,
533200,001,2022-11-21_24h11.54.197,Info_measure_main_exp,2022.2.2,Win32,57.93742758,,,,,,,,,,,,,,,,,,masks/mask_001.jpg,,,,,,,,,,,,,,,,,,,,,,,,,,,,,,,,,,,,,,,,,,,,,,,,0,4,4,0,1,,,,,,,,,,,,,,,,,,,,,,,,,,,,,,,,,,,,,,,,,
533200,001,2022-11-21_24h11.54.197,Info_measure_main_exp,2022.2.2,Win32,57.93742758,,,,,,,,,,,,,,,,,,,,,,,,,,,,,,2,2.1878,1,,,,,,,,,,,,0,131,5,5,1950,2178,absent_patch/patch0001950.jpg,absent_patch/patch0002178.jpg,,,,,,,,,,,,,,,,,,,,-0.110677083,-0.063802083,1,0,0,response5disk,27,-0.014322917,0,1,0,0,center_square,0,26,26,61,1,,,,,,,,,,,,,,,,,,,,,,,
533200,001,2022-11-21_24h11.54.197,Info_measure_main_exp,2022.2.2,Win32,57.93742758,,,,,,,,,,,,,,,,,,masks/mask_004.jpg,,,,,,,,,,,,,,,,,,,,,,,,,,,,,,,,,,,,,,,,,,,0,0,0,3,1,,,,,,,,,,,,,,,,,,,,,,,,,,,,,,,,,,,,,,,,,,,,,,
533200,001,2022-11-21_24h11.54.197,Info_measure_main_exp,2022.2.2,Win32,57.93742758,,,,,,,,,,,,,,,,,,masks/mask_001.jpg,,,,,,,,,,,,,,,,,,,,,,,,,,,,,,,,,,,,,,,,,,,0,1,1,0,1,,,,,,,,,,,,,,,,,,,,,,,,,,,,,,,,,,,,,,,,,,,,,,
533200,001,2022-11-21_24h11.54.197,Info_measure_main_exp,2022.2.2,Win32,57.93742758,,,,,,,,,,,,,,,,,,masks/mask_002.jpg,,,,,,,,,,,,,,,,,,,,,,,,,,,,,,,,,,,,,,,,,,,0,2,2,1,1,,,,,,,,,,,,,,,,,,,,,,,,,,,,,,,,,,,,,,,,,,,,,,
533200,001,2022-11-21_24h11.54.197,Info_measure_main_exp,2022.2.2,Win32,57.93742758,,,,,,,,,,,,,,,,,,masks/mask_003.jpg,,,,,,,,,,,,,,,,,,,,,,,,,,,,,,,,,,,,,,,,,,,0,3,3,2,1,,,,,,,,,,,,,,,,,,,,,,,,,,,,,,,,,,,,,,,,,,,,,,
533200,001,2022-11-21_24h11.54.197,Info_measure_main_exp,2022.2.2,Win32,57.93742758,,,,,,,,,,,,,,,,,,masks/mask_005.jpg,,,,,,,,,,,,,,,,,,,,,,,,,,,,,,,,,,,,,,,,,,,0,4,4,4,1,,,,,,,,,,,,,,,,,,,,,,,,,,,,,,,,,,,,,,,,,,,,,,
533200,001,2022-11-21_24h11.54.197,Info_measure_main_exp,2022.2.2,Win32,57.93742758,,,,,,,,,,,,,,,,,,masks/mask_003.jpg,,,,,,,,,,,,,,,,,,,,,,,,,,,,,,,,,,,,,,,,,,,,,,,,0,0,0,2,1,,,,,,,,,,,,,,,,,,,,,,,,,,,,,,,,,,,,,,,,,
533200,001,2022-11-21_24h11.54.197,Info_measure_main_exp,2022.2.2,Win32,57.93742758,,,,,,,,,,,,,,,,,,masks/mask_002.jpg,,,,,,,,,,,,,,,,,,,,,,,,,,,,,,,,,,,,,,,,,,,,,,,,0,1,1,1,1,,,,,,,,,,,,,,,,,,,,,,,,,,,,,,,,,,,,,,,,,
533200,001,2022-11-21_24h11.54.197,Info_measure_main_exp,2022.2.2,Win32,57.93742758,,,,,,,,,,,,,,,,,,masks/mask_001.jpg,,,,,,,,,,,,,,,,,,,,,,,,,,,,,,,,,,,,,,,,,,,,,,,,0,2,2,0,1,,,,,,,,,,,,,,,,,,,,,,,,,,,,,,,,,,,,,,,,,
533200,001,2022-11-21_24h11.54.197,Info_measure_main_exp,2022.2.2,Win32,57.93742758,,,,,,,,,,,,,,,,,,masks/mask_005.jpg,,,,,,,,,,,,,,,,,,,,,,,,,,,,,,,,,,,,,,,,,,,,,,,,0,3,3,4,1,,,,,,,,,,,,,,,,,,,,,,,,,,,,,,,,,,,,,,,,,
533200,001,2022-11-21_24h11.54.197,Info_measure_main_exp,2022.2.2,Win32,57.93742758,,,,,,,,,,,,,,,,,,masks/mask_004.jpg,,,,,,,,,,,,,,,,,,,,,,,,,,,,,,,,,,,,,,,,,,,,,,,,0,4,4,3,1,,,,,,,,,,,,,,,,,,,,,,,,,,,,,,,,,,,,,,,,,
533200,001,2022-11-21_24h11.54.197,Info_measure_main_exp,2022.2.2,Win32,57.93742758,,,,,,,,,,,,,,,,,,,,,,,,,,,,,,2,1.1609,1,,,,,,,,,,,,0,131,5,5,2250,2166,absent_patch/patch0002250.jpg,absent_patch/patch0002166.jpg,,,,,,,,,,,,,,,,,,,,-0.126302083,-0.028645833,1,0,0,response5disk,28,-0.002604167,-0.002604167,1,0,0,center_square,0,27,27,60,1,,,,,,,,,,,,,,,,,,,,,,,
533200,001,2022-11-21_24h11.54.197,Info_measure_main_exp,2022.2.2,Win32,57.93742758,,,,,,,,,,,,,,,,,,masks/mask_001.jpg,,,,,,,,,,,,,,,,,,,,,,,,,,,,,,,,,,,,,,,,,,,0,0,0,0,1,,,,,,,,,,,,,,,,,,,,,,,,,,,,,,,,,,,,,,,,,,,,,,
533200,001,2022-11-21_24h11.54.197,Info_measure_main_exp,2022.2.2,Win32,57.93742758,,,,,,,,,,,,,,,,,,masks/mask_002.jpg,,,,,,,,,,,,,,,,,,,,,,,,,,,,,,,,,,,,,,,,,,,0,1,1,1,1,,,,,,,,,,,,,,,,,,,,,,,,,,,,,,,,,,,,,,,,,,,,,,
533200,001,2022-11-21_24h11.54.197,Info_measure_main_exp,2022.2.2,Win32,57.93742758,,,,,,,,,,,,,,,,,,masks/mask_004.jpg,,,,,,,,,,,,,,,,,,,,,,,,,,,,,,,,,,,,,,,,,,,0,2,2,3,1,,,,,,,,,,,,,,,,,,,,,,,,,,,,,,,,,,,,,,,,,,,,,,
533200,001,2022-11-21_24h11.54.197,Info_measure_main_exp,2022.2.2,Win32,57.93742758,,,,,,,,,,,,,,,,,,masks/mask_005.jpg,,,,,,,,,,,,,,,,,,,,,,,,,,,,,,,,,,,,,,,,,,,0,3,3,4,1,,,,,,,,,,,,,,,,,,,,,,,,,,,,,,,,,,,,,,,,,,,,,,
533200,001,2022-11-21_24h11.54.197,Info_measure_main_exp,2022.2.2,Win32,57.93742758,,,,,,,,,,,,,,,,,,masks/mask_003.jpg,,,,,,,,,,,,,,,,,,,,,,,,,,,,,,,,,,,,,,,,,,,0,4,4,2,1,,,,,,,,,,,,,,,,,,,,,,,,,,,,,,,,,,,,,,,,,,,,,,
533200,001,2022-11-21_24h11.54.197,Info_measure_main_exp,2022.2.2,Win32,57.93742758,,,,,,,,,,,,,,,,,,masks/mask_001.jpg,,,,,,,,,,,,,,,,,,,,,,,,,,,,,,,,,,,,,,,,,,,,,,,,0,0,0,0,1,,,,,,,,,,,,,,,,,,,,,,,,,,,,,,,,,,,,,,,,,
533200,001,2022-11-21_24h11.54.197,Info_measure_main_exp,2022.2.2,Win32,57.93742758,,,,,,,,,,,,,,,,,,masks/mask_003.jpg,,,,,,,,,,,,,,,,,,,,,,,,,,,,,,,,,,,,,,,,,,,,,,,,0,1,1,2,1,,,,,,,,,,,,,,,,,,,,,,,,,,,,,,,,,,,,,,,,,
533200,001,2022-11-21_24h11.54.197,Info_measure_main_exp,2022.2.2,Win32,57.93742758,,,,,,,,,,,,,,,,,,masks/mask_002.jpg,,,,,,,,,,,,,,,,,,,,,,,,,,,,,,,,,,,,,,,,,,,,,,,,0,2,2,1,1,,,,,,,,,,,,,,,,,,,,,,,,,,,,,,,,,,,,,,,,,
533200,001,2022-11-21_24h11.54.197,Info_measure_main_exp,2022.2.2,Win32,57.93742758,,,,,,,,,,,,,,,,,,masks/mask_005.jpg,,,,,,,,,,,,,,,,,,,,,,,,,,,,,,,,,,,,,,,,,,,,,,,,0,3,3,4,1,,,,,,,,,,,,,,,,,,,,,,,,,,,,,,,,,,,,,,,,,
533200,001,2022-11-21_24h11.54.197,Info_measure_main_exp,2022.2.2,Win32,57.93742758,,,,,,,,,,,,,,,,,,masks/mask_004.jpg,,,,,,,,,,,,,,,,,,,,,,,,,,,,,,,,,,,,,,,,,,,,,,,,0,4,4,3,1,,,,,,,,,,,,,,,,,,,,,,,,,,,,,,,,,,,,,,,,,
533200,001,2022-11-21_24h11.54.197,Info_measure_main_exp,2022.2.2,Win32,57.93742758,,,,,,,,,,,,,,,,,,,,,,,,,,,,,,5,1.5795,1,,,,,,,,,,,,0,131,5,5,2274,2190,absent_patch/patch0002274.jpg,absent_patch/patch0002190.jpg,,,,,,,,,,,,,,,,,,,,0.1015625,-0.036458333,1,0,0,response3disk,29,-0.001302083,0.001302083,1,0,0,center_square,0,28,28,116,1,,,,,,,,,,,,,,,,,,,,,,,
533200,001,2022-11-21_24h11.54.197,Info_measure_main_exp,2022.2.2,Win32,57.93742758,,,,,,,,,,,,,,,,,,masks/mask_005.jpg,,,,,,,,,,,,,,,,,,,,,,,,,,,,,,,,,,,,,,,,,,,0,0,0,4,1,,,,,,,,,,,,,,,,,,,,,,,,,,,,,,,,,,,,,,,,,,,,,,
533200,001,2022-11-21_24h11.54.197,Info_measure_main_exp,2022.2.2,Win32,57.93742758,,,,,,,,,,,,,,,,,,masks/mask_002.jpg,,,,,,,,,,,,,,,,,,,,,,,,,,,,,,,,,,,,,,,,,,,0,1,1,1,1,,,,,,,,,,,,,,,,,,,,,,,,,,,,,,,,,,,,,,,,,,,,,,
533200,001,2022-11-21_24h11.54.197,Info_measure_main_exp,2022.2.2,Win32,57.93742758,,,,,,,,,,,,,,,,,,masks/mask_003.jpg,,,,,,,,,,,,,,,,,,,,,,,,,,,,,,,,,,,,,,,,,,,0,2,2,2,1,,,,,,,,,,,,,,,,,,,,,,,,,,,,,,,,,,,,,,,,,,,,,,
533200,001,2022-11-21_24h11.54.197,Info_measure_main_exp,2022.2.2,Win32,57.93742758,,,,,,,,,,,,,,,,,,masks/mask_004.jpg,,,,,,,,,,,,,,,,,,,,,,,,,,,,,,,,,,,,,,,,,,,0,3,3,3,1,,,,,,,,,,,,,,,,,,,,,,,,,,,,,,,,,,,,,,,,,,,,,,
533200,001,2022-11-21_24h11.54.197,Info_measure_main_exp,2022.2.2,Win32,57.93742758,,,,,,,,,,,,,,,,,,masks/mask_001.jpg,,,,,,,,,,,,,,,,,,,,,,,,,,,,,,,,,,,,,,,,,,,0,4,4,0,1,,,,,,,,,,,,,,,,,,,,,,,,,,,,,,,,,,,,,,,,,,,,,,
533200,001,2022-11-21_24h11.54.197,Info_measure_main_exp,2022.2.2,Win32,57.93742758,,,,,,,,,,,,,,,,,,masks/mask_005.jpg,,,,,,,,,,,,,,,,,,,,,,,,,,,,,,,,,,,,,,,,,,,,,,,,0,0,0,4,1,,,,,,,,,,,,,,,,,,,,,,,,,,,,,,,,,,,,,,,,,
533200,001,2022-11-21_24h11.54.197,Info_measure_main_exp,2022.2.2,Win32,57.93742758,,,,,,,,,,,,,,,,,,masks/mask_001.jpg,,,,,,,,,,,,,,,,,,,,,,,,,,,,,,,,,,,,,,,,,,,,,,,,0,1,1,0,1,,,,,,,,,,,,,,,,,,,,,,,,,,,,,,,,,,,,,,,,,
533200,001,2022-11-21_24h11.54.197,Info_measure_main_exp,2022.2.2,Win32,57.93742758,,,,,,,,,,,,,,,,,,masks/mask_003.jpg,,,,,,,,,,,,,,,,,,,,,,,,,,,,,,,,,,,,,,,,,,,,,,,,0,2,2,2,1,,,,,,,,,,,,,,,,,,,,,,,,,,,,,,,,,,,,,,,,,
533200,001,2022-11-21_24h11.54.197,Info_measure_main_exp,2022.2.2,Win32,57.93742758,,,,,,,,,,,,,,,,,,masks/mask_004.jpg,,,,,,,,,,,,,,,,,,,,,,,,,,,,,,,,,,,,,,,,,,,,,,,,0,3,3,3,1,,,,,,,,,,,,,,,,,,,,,,,,,,,,,,,,,,,,,,,,,
533200,001,2022-11-21_24h11.54.197,Info_measure_main_exp,2022.2.2,Win32,57.93742758,,,,,,,,,,,,,,,,,,masks/mask_002.jpg,,,,,,,,,,,,,,,,,,,,,,,,,,,,,,,,,,,,,,,,,,,,,,,,0,4,4,1,1,,,,,,,,,,,,,,,,,,,,,,,,,,,,,,,,,,,,,,,,,
533200,001,2022-11-21_24h11.54.197,Info_measure_main_exp,2022.2.2,Win32,57.93742758,,,,,,,,,,,,,,,,,,,,,,,,,,,,,,0,0.829,1,,,,,,,,,,,,0,131,5,5,1950,1950,absent_patch/patch0001950.jpg,absent_patch/patch0001950.jpg,,,,,,,,,,,,,,,,,,,,-0.029947917,0.096354167,1,0,0,response7disk,30,0.00390625,-0.01171875,1,0,0,center_square,0,29,29,92,1,,,,,,,,,,,,,,,,,,,,,,,
533200,001,2022-11-21_24h11.54.197,Info_measure_main_exp,2022.2.2,Win32,57.93742758,,,,,,,,,,,,,,,,,,masks/mask_001.jpg,,,,,,,,,,,,,,,,,,,,,,,,,,,,,,,,,,,,,,,,,,,0,0,0,0,1,,,,,,,,,,,,,,,,,,,,,,,,,,,,,,,,,,,,,,,,,,,,,,
533200,001,2022-11-21_24h11.54.197,Info_measure_main_exp,2022.2.2,Win32,57.93742758,,,,,,,,,,,,,,,,,,masks/mask_002.jpg,,,,,,,,,,,,,,,,,,,,,,,,,,,,,,,,,,,,,,,,,,,0,1,1,1,1,,,,,,,,,,,,,,,,,,,,,,,,,,,,,,,,,,,,,,,,,,,,,,
533200,001,2022-11-21_24h11.54.197,Info_measure_main_exp,2022.2.2,Win32,57.93742758,,,,,,,,,,,,,,,,,,masks/mask_004.jpg,,,,,,,,,,,,,,,,,,,,,,,,,,,,,,,,,,,,,,,,,,,0,2,2,3,1,,,,,,,,,,,,,,,,,,,,,,,,,,,,,,,,,,,,,,,,,,,,,,
533200,001,2022-11-21_24h11.54.197,Info_measure_main_exp,2022.2.2,Win32,57.93742758,,,,,,,,,,,,,,,,,,masks/mask_003.jpg,,,,,,,,,,,,,,,,,,,,,,,,,,,,,,,,,,,,,,,,,,,0,3,3,2,1,,,,,,,,,,,,,,,,,,,,,,,,,,,,,,,,,,,,,,,,,,,,,,
533200,001,2022-11-21_24h11.54.197,Info_measure_main_exp,2022.2.2,Win32,57.93742758,,,,,,,,,,,,,,,,,,masks/mask_005.jpg,,,,,,,,,,,,,,,,,,,,,,,,,,,,,,,,,,,,,,,,,,,0,4,4,4,1,,,,,,,,,,,,,,,,,,,,,,,,,,,,,,,,,,,,,,,,,,,,,,
533200,001,2022-11-21_24h11.54.197,Info_measure_main_exp,2022.2.2,Win32,57.93742758,,,,,,,,,,,,,,,,,,masks/mask_004.jpg,,,,,,,,,,,,,,,,,,,,,,,,,,,,,,,,,,,,,,,,,,,,,,,,0,0,0,3,1,,,,,,,,,,,,,,,,,,,,,,,,,,,,,,,,,,,,,,,,,
533200,001,2022-11-21_24h11.54.197,Info_measure_main_exp,2022.2.2,Win32,57.93742758,,,,,,,,,,,,,,,,,,masks/mask_003.jpg,,,,,,,,,,,,,,,,,,,,,,,,,,,,,,,,,,,,,,,,,,,,,,,,0,1,1,2,1,,,,,,,,,,,,,,,,,,,,,,,,,,,,,,,,,,,,,,,,,
533200,001,2022-11-21_24h11.54.197,Info_measure_main_exp,2022.2.2,Win32,57.93742758,,,,,,,,,,,,,,,,,,masks/mask_005.jpg,,,,,,,,,,,,,,,,,,,,,,,,,,,,,,,,,,,,,,,,,,,,,,,,0,2,2,4,1,,,,,,,,,,,,,,,,,,,,,,,,,,,,,,,,,,,,,,,,,
533200,001,2022-11-21_24h11.54.197,Info_measure_main_exp,2022.2.2,Win32,57.93742758,,,,,,,,,,,,,,,,,,masks/mask_002.jpg,,,,,,,,,,,,,,,,,,,,,,,,,,,,,,,,,,,,,,,,,,,,,,,,0,3,3,1,1,,,,,,,,,,,,,,,,,,,,,,,,,,,,,,,,,,,,,,,,,
533200,001,2022-11-21_24h11.54.197,Info_measure_main_exp,2022.2.2,Win32,57.93742758,,,,,,,,,,,,,,,,,,masks/mask_001.jpg,,,,,,,,,,,,,,,,,,,,,,,,,,,,,,,,,,,,,,,,,,,,,,,,0,4,4,0,1,,,,,,,,,,,,,,,,,,,,,,,,,,,,,,,,,,,,,,,,,
533200,001,2022-11-21_24h11.54.197,Info_measure_main_exp,2022.2.2,Win32,57.93742758,,,,,,,,,,,,,,,,,,,,,,,,,,,,,,3,2.1993,1,,,,,,,,,,,,0,131,5,5,2082,1974,absent_patch/patch0002082.jpg,absent_patch/patch0001974.jpg,,,,,,,,,,,,,,,,,,,,-0.020833333,-0.11328125,1,0,0,response5disk,31,0.010416667,0.0078125,1,0,0,center_square,0,30,30,26,1,,,,,,,,,,,,,,,,,,,,,,,
533200,001,2022-11-21_24h11.54.197,Info_measure_main_exp,2022.2.2,Win32,57.93742758,,,,,,,,,,,,,,,,,,masks/mask_001.jpg,,,,,,,,,,,,,,,,,,,,,,,,,,,,,,,,,,,,,,,,,,,0,0,0,0,1,,,,,,,,,,,,,,,,,,,,,,,,,,,,,,,,,,,,,,,,,,,,,,
533200,001,2022-11-21_24h11.54.197,Info_measure_main_exp,2022.2.2,Win32,57.93742758,,,,,,,,,,,,,,,,,,masks/mask_003.jpg,,,,,,,,,,,,,,,,,,,,,,,,,,,,,,,,,,,,,,,,,,,0,1,1,2,1,,,,,,,,,,,,,,,,,,,,,,,,,,,,,,,,,,,,,,,,,,,,,,
533200,001,2022-11-21_24h11.54.197,Info_measure_main_exp,2022.2.2,Win32,57.93742758,,,,,,,,,,,,,,,,,,masks/mask_005.jpg,,,,,,,,,,,,,,,,,,,,,,,,,,,,,,,,,,,,,,,,,,,0,2,2,4,1,,,,,,,,,,,,,,,,,,,,,,,,,,,,,,,,,,,,,,,,,,,,,,
533200,001,2022-11-21_24h11.54.197,Info_measure_main_exp,2022.2.2,Win32,57.93742758,,,,,,,,,,,,,,,,,,masks/mask_004.jpg,,,,,,,,,,,,,,,,,,,,,,,,,,,,,,,,,,,,,,,,,,,0,3,3,3,1,,,,,,,,,,,,,,,,,,,,,,,,,,,,,,,,,,,,,,,,,,,,,,
533200,001,2022-11-21_24h11.54.197,Info_measure_main_exp,2022.2.2,Win32,57.93742758,,,,,,,,,,,,,,,,,,masks/mask_002.jpg,,,,,,,,,,,,,,,,,,,,,,,,,,,,,,,,,,,,,,,,,,,0,4,4,1,1,,,,,,,,,,,,,,,,,,,,,,,,,,,,,,,,,,,,,,,,,,,,,,
533200,001,2022-11-21_24h11.54.197,Info_measure_main_exp,2022.2.2,Win32,57.93742758,,,,,,,,,,,,,,,,,,masks/mask_005.jpg,,,,,,,,,,,,,,,,,,,,,,,,,,,,,,,,,,,,,,,,,,,,,,,,0,0,0,4,1,,,,,,,,,,,,,,,,,,,,,,,,,,,,,,,,,,,,,,,,,
533200,001,2022-11-21_24h11.54.197,Info_measure_main_exp,2022.2.2,Win32,57.93742758,,,,,,,,,,,,,,,,,,masks/mask_001.jpg,,,,,,,,,,,,,,,,,,,,,,,,,,,,,,,,,,,,,,,,,,,,,,,,0,1,1,0,1,,,,,,,,,,,,,,,,,,,,,,,,,,,,,,,,,,,,,,,,,
533200,001,2022-11-21_24h11.54.197,Info_measure_main_exp,2022.2.2,Win32,57.93742758,,,,,,,,,,,,,,,,,,masks/mask_004.jpg,,,,,,,,,,,,,,,,,,,,,,,,,,,,,,,,,,,,,,,,,,,,,,,,0,2,2,3,1,,,,,,,,,,,,,,,,,,,,,,,,,,,,,,,,,,,,,,,,,
533200,001,2022-11-21_24h11.54.197,Info_measure_main_exp,2022.2.2,Win32,57.93742758,,,,,,,,,,,,,,,,,,masks/mask_003.jpg,,,,,,,,,,,,,,,,,,,,,,,,,,,,,,,,,,,,,,,,,,,,,,,,0,3,3,2,1,,,,,,,,,,,,,,,,,,,,,,,,,,,,,,,,,,,,,,,,,
533200,001,2022-11-21_24h11.54.197,Info_measure_main_exp,2022.2.2,Win32,57.93742758,,,,,,,,,,,,,,,,,,masks/mask_002.jpg,,,,,,,,,,,,,,,,,,,,,,,,,,,,,,,,,,,,,,,,,,,,,,,,0,4,4,1,1,,,,,,,,,,,,,,,,,,,,,,,,,,,,,,,,,,,,,,,,,
533200,001,2022-11-21_24h11.54.197,Info_measure_main_exp,2022.2.2,Win32,57.93742758,,,,,,,,,,,,,,,,,,,,,,,,,,,,,,7,1.332,1,,,,,,,,,,,,0,131,5,5,2166,2154,absent_patch/patch0002166.jpg,absent_patch/patch0002154.jpg,,,,,,,,,,,,,,,,,,,,0.0625,0.1328125,1,0,0,response1disk,32,0.0078125,-0.002604167,1,0,0,center_square,0,31,31,79,1,,,,,,,,,,,,,,,,,,,,,,,
533200,001,2022-11-21_24h11.54.197,Info_measure_main_exp,2022.2.2,Win32,57.93742758,,,,,,,,,,,,,,,,,,masks/mask_003.jpg,,,,,,,,,,,,,,,,,,,,,,,,,,,,,,,,,,,,,,,,,,,0,0,0,2,1,,,,,,,,,,,,,,,,,,,,,,,,,,,,,,,,,,,,,,,,,,,,,,
533200,001,2022-11-21_24h11.54.197,Info_measure_main_exp,2022.2.2,Win32,57.93742758,,,,,,,,,,,,,,,,,,masks/mask_004.jpg,,,,,,,,,,,,,,,,,,,,,,,,,,,,,,,,,,,,,,,,,,,0,1,1,3,1,,,,,,,,,,,,,,,,,,,,,,,,,,,,,,,,,,,,,,,,,,,,,,
533200,001,2022-11-21_24h11.54.197,Info_measure_main_exp,2022.2.2,Win32,57.93742758,,,,,,,,,,,,,,,,,,masks/mask_001.jpg,,,,,,,,,,,,,,,,,,,,,,,,,,,,,,,,,,,,,,,,,,,0,2,2,0,1,,,,,,,,,,,,,,,,,,,,,,,,,,,,,,,,,,,,,,,,,,,,,,
533200,001,2022-11-21_24h11.54.197,Info_measure_main_exp,2022.2.2,Win32,57.93742758,,,,,,,,,,,,,,,,,,masks/mask_005.jpg,,,,,,,,,,,,,,,,,,,,,,,,,,,,,,,,,,,,,,,,,,,0,3,3,4,1,,,,,,,,,,,,,,,,,,,,,,,,,,,,,,,,,,,,,,,,,,,,,,
533200,001,2022-11-21_24h11.54.197,Info_measure_main_exp,2022.2.2,Win32,57.93742758,,,,,,,,,,,,,,,,,,masks/mask_002.jpg,,,,,,,,,,,,,,,,,,,,,,,,,,,,,,,,,,,,,,,,,,,0,4,4,1,1,,,,,,,,,,,,,,,,,,,,,,,,,,,,,,,,,,,,,,,,,,,,,,
533200,001,2022-11-21_24h11.54.197,Info_measure_main_exp,2022.2.2,Win32,57.93742758,,,,,,,,,,,,,,,,,,masks/mask_002.jpg,,,,,,,,,,,,,,,,,,,,,,,,,,,,,,,,,,,,,,,,,,,,,,,,0,0,0,1,1,,,,,,,,,,,,,,,,,,,,,,,,,,,,,,,,,,,,,,,,,
533200,001,2022-11-21_24h11.54.197,Info_measure_main_exp,2022.2.2,Win32,57.93742758,,,,,,,,,,,,,,,,,,masks/mask_004.jpg,,,,,,,,,,,,,,,,,,,,,,,,,,,,,,,,,,,,,,,,,,,,,,,,0,1,1,3,1,,,,,,,,,,,,,,,,,,,,,,,,,,,,,,,,,,,,,,,,,
533200,001,2022-11-21_24h11.54.197,Info_measure_main_exp,2022.2.2,Win32,57.93742758,,,,,,,,,,,,,,,,,,masks/mask_005.jpg,,,,,,,,,,,,,,,,,,,,,,,,,,,,,,,,,,,,,,,,,,,,,,,,0,2,2,4,1,,,,,,,,,,,,,,,,,,,,,,,,,,,,,,,,,,,,,,,,,
533200,001,2022-11-21_24h11.54.197,Info_measure_main_exp,2022.2.2,Win32,57.93742758,,,,,,,,,,,,,,,,,,masks/mask_001.jpg,,,,,,,,,,,,,,,,,,,,,,,,,,,,,,,,,,,,,,,,,,,,,,,,0,3,3,0,1,,,,,,,,,,,,,,,,,,,,,,,,,,,,,,,,,,,,,,,,,
533200,001,2022-11-21_24h11.54.197,Info_measure_main_exp,2022.2.2,Win32,57.93742758,,,,,,,,,,,,,,,,,,masks/mask_003.jpg,,,,,,,,,,,,,,,,,,,,,,,,,,,,,,,,,,,,,,,,,,,,,,,,0,4,4,2,1,,,,,,,,,,,,,,,,,,,,,,,,,,,,,,,,,,,,,,,,,
533200,001,2022-11-21_24h11.54.197,Info_measure_main_exp,2022.2.2,Win32,57.93742758,,,,,,,,,,,,,,,,,,,,,,,,,,,,,,5,1.559,1,,,,,,,,,,,,1,131,5,5,1,2166,present_patch/cong_131_5_a.jpg,absent_patch/patch0002166.jpg,,,,,,,,,,,,,,,,,,,,0.0703125,-0.061197917,1,0,0,response3disk,33,-0.002604167,0.010416667,1,0,0,center_square,0,32,32,54,1,,,,,,,,,,,,,,,,,,,,,,,
533200,001,2022-11-21_24h11.54.197,Info_measure_main_exp,2022.2.2,Win32,57.93742758,,,,,,,,,,,,,,,,,,masks/mask_001.jpg,,,,,,,,,,,,,,,,,,,,,,,,,,,,,,,,,,,,,,,,,,,0,0,0,0,1,,,,,,,,,,,,,,,,,,,,,,,,,,,,,,,,,,,,,,,,,,,,,,
533200,001,2022-11-21_24h11.54.197,Info_measure_main_exp,2022.2.2,Win32,57.93742758,,,,,,,,,,,,,,,,,,masks/mask_003.jpg,,,,,,,,,,,,,,,,,,,,,,,,,,,,,,,,,,,,,,,,,,,0,1,1,2,1,,,,,,,,,,,,,,,,,,,,,,,,,,,,,,,,,,,,,,,,,,,,,,
533200,001,2022-11-21_24h11.54.197,Info_measure_main_exp,2022.2.2,Win32,57.93742758,,,,,,,,,,,,,,,,,,masks/mask_004.jpg,,,,,,,,,,,,,,,,,,,,,,,,,,,,,,,,,,,,,,,,,,,0,2,2,3,1,,,,,,,,,,,,,,,,,,,,,,,,,,,,,,,,,,,,,,,,,,,,,,
533200,001,2022-11-21_24h11.54.197,Info_measure_main_exp,2022.2.2,Win32,57.93742758,,,,,,,,,,,,,,,,,,masks/mask_005.jpg,,,,,,,,,,,,,,,,,,,,,,,,,,,,,,,,,,,,,,,,,,,0,3,3,4,1,,,,,,,,,,,,,,,,,,,,,,,,,,,,,,,,,,,,,,,,,,,,,,
533200,001,2022-11-21_24h11.54.197,Info_measure_main_exp,2022.2.2,Win32,57.93742758,,,,,,,,,,,,,,,,,,masks/mask_002.jpg,,,,,,,,,,,,,,,,,,,,,,,,,,,,,,,,,,,,,,,,,,,0,4,4,1,1,,,,,,,,,,,,,,,,,,,,,,,,,,,,,,,,,,,,,,,,,,,,,,
533200,001,2022-11-21_24h11.54.197,Info_measure_main_exp,2022.2.2,Win32,57.93742758,,,,,,,,,,,,,,,,,,masks/mask_002.jpg,,,,,,,,,,,,,,,,,,,,,,,,,,,,,,,,,,,,,,,,,,,,,,,,0,0,0,1,1,,,,,,,,,,,,,,,,,,,,,,,,,,,,,,,,,,,,,,,,,
533200,001,2022-11-21_24h11.54.197,Info_measure_main_exp,2022.2.2,Win32,57.93742758,,,,,,,,,,,,,,,,,,masks/mask_003.jpg,,,,,,,,,,,,,,,,,,,,,,,,,,,,,,,,,,,,,,,,,,,,,,,,0,1,1,2,1,,,,,,,,,,,,,,,,,,,,,,,,,,,,,,,,,,,,,,,,,
533200,001,2022-11-21_24h11.54.197,Info_measure_main_exp,2022.2.2,Win32,57.93742758,,,,,,,,,,,,,,,,,,masks/mask_005.jpg,,,,,,,,,,,,,,,,,,,,,,,,,,,,,,,,,,,,,,,,,,,,,,,,0,2,2,4,1,,,,,,,,,,,,,,,,,,,,,,,,,,,,,,,,,,,,,,,,,
533200,001,2022-11-21_24h11.54.197,Info_measure_main_exp,2022.2.2,Win32,57.93742758,,,,,,,,,,,,,,,,,,masks/mask_004.jpg,,,,,,,,,,,,,,,,,,,,,,,,,,,,,,,,,,,,,,,,,,,,,,,,0,3,3,3,1,,,,,,,,,,,,,,,,,,,,,,,,,,,,,,,,,,,,,,,,,
533200,001,2022-11-21_24h11.54.197,Info_measure_main_exp,2022.2.2,Win32,57.93742758,,,,,,,,,,,,,,,,,,masks/mask_001.jpg,,,,,,,,,,,,,,,,,,,,,,,,,,,,,,,,,,,,,,,,,,,,,,,,0,4,4,0,1,,,,,,,,,,,,,,,,,,,,,,,,,,,,,,,,,,,,,,,,,
533200,001,2022-11-21_24h11.54.197,Info_measure_main_exp,2022.2.2,Win32,57.93742758,,,,,,,,,,,,,,,,,,,,,,,,,,,,,,4,1.1416,1,,,,,,,,,,,,0,131,5,5,2154,2238,absent_patch/patch0002154.jpg,absent_patch/patch0002238.jpg,,,,,,,,,,,,,,,,,,,,0.053385417,-0.075520833,1,0,0,response3disk,34,0.009114583,0.006510417,1,0,0,center_square,0,33,33,21,1,,,,,,,,,,,,,,,,,,,,,,,
533200,001,2022-11-21_24h11.54.197,Info_measure_main_exp,2022.2.2,Win32,57.93742758,,,,,,,,,,,,,,,,,,masks/mask_003.jpg,,,,,,,,,,,,,,,,,,,,,,,,,,,,,,,,,,,,,,,,,,,0,0,0,2,1,,,,,,,,,,,,,,,,,,,,,,,,,,,,,,,,,,,,,,,,,,,,,,
533200,001,2022-11-21_24h11.54.197,Info_measure_main_exp,2022.2.2,Win32,57.93742758,,,,,,,,,,,,,,,,,,masks/mask_004.jpg,,,,,,,,,,,,,,,,,,,,,,,,,,,,,,,,,,,,,,,,,,,0,1,1,3,1,,,,,,,,,,,,,,,,,,,,,,,,,,,,,,,,,,,,,,,,,,,,,,
533200,001,2022-11-21_24h11.54.197,Info_measure_main_exp,2022.2.2,Win32,57.93742758,,,,,,,,,,,,,,,,,,masks/mask_005.jpg,,,,,,,,,,,,,,,,,,,,,,,,,,,,,,,,,,,,,,,,,,,0,2,2,4,1,,,,,,,,,,,,,,,,,,,,,,,,,,,,,,,,,,,,,,,,,,,,,,
533200,001,2022-11-21_24h11.54.197,Info_measure_main_exp,2022.2.2,Win32,57.93742758,,,,,,,,,,,,,,,,,,masks/mask_001.jpg,,,,,,,,,,,,,,,,,,,,,,,,,,,,,,,,,,,,,,,,,,,0,3,3,0,1,,,,,,,,,,,,,,,,,,,,,,,,,,,,,,,,,,,,,,,,,,,,,,
533200,001,2022-11-21_24h11.54.197,Info_measure_main_exp,2022.2.2,Win32,57.93742758,,,,,,,,,,,,,,,,,,masks/mask_002.jpg,,,,,,,,,,,,,,,,,,,,,,,,,,,,,,,,,,,,,,,,,,,0,4,4,1,1,,,,,,,,,,,,,,,,,,,,,,,,,,,,,,,,,,,,,,,,,,,,,,
533200,001,2022-11-21_24h11.54.197,Info_measure_main_exp,2022.2.2,Win32,57.93742758,,,,,,,,,,,,,,,,,,masks/mask_004.jpg,,,,,,,,,,,,,,,,,,,,,,,,,,,,,,,,,,,,,,,,,,,,,,,,0,0,0,3,1,,,,,,,,,,,,,,,,,,,,,,,,,,,,,,,,,,,,,,,,,
533200,001,2022-11-21_24h11.54.197,Info_measure_main_exp,2022.2.2,Win32,57.93742758,,,,,,,,,,,,,,,,,,masks/mask_001.jpg,,,,,,,,,,,,,,,,,,,,,,,,,,,,,,,,,,,,,,,,,,,,,,,,0,1,1,0,1,,,,,,,,,,,,,,,,,,,,,,,,,,,,,,,,,,,,,,,,,
533200,001,2022-11-21_24h11.54.197,Info_measure_main_exp,2022.2.2,Win32,57.93742758,,,,,,,,,,,,,,,,,,masks/mask_003.jpg,,,,,,,,,,,,,,,,,,,,,,,,,,,,,,,,,,,,,,,,,,,,,,,,0,2,2,2,1,,,,,,,,,,,,,,,,,,,,,,,,,,,,,,,,,,,,,,,,,
533200,001,2022-11-21_24h11.54.197,Info_measure_main_exp,2022.2.2,Win32,57.93742758,,,,,,,,,,,,,,,,,,masks/mask_005.jpg,,,,,,,,,,,,,,,,,,,,,,,,,,,,,,,,,,,,,,,,,,,,,,,,0,3,3,4,1,,,,,,,,,,,,,,,,,,,,,,,,,,,,,,,,,,,,,,,,,
