participant,session,date,expName,psychopyVersion,OS,frameRate,space_press_continue.keys,space_press_continue.rt,space_press_continue_2.keys,space_press_continue_2.rt,space_press_continue_3.keys,space_press_continue_3.rt,space_press_continue_4.keys,space_press_continue_4.rt,space_press_continue_5.keys,space_press_continue_5.rt,space_press_continue_6.keys,space_press_continue_6.rt,prac_mask_loop_1.thisRepN,prac_mask_loop_1.thisTrialN,prac_mask_loop_1.thisN,prac_mask_loop_1.thisIndex,prac_mask_loop_1.ran,mask_name,prac_mask_loop_2.thisRepN,prac_mask_loop_2.thisTrialN,prac_mask_loop_2.thisN,prac_mask_loop_2.thisIndex,prac_mask_loop_2.ran,mouse_2.x,mouse_2.y,mouse_2.leftButton,mouse_2.midButton,mouse_2.rightButton,mouse_2.clicked_name,similarity,response_time,Pass,mouse_12.x,mouse_12.y,mouse_12.leftButton,mouse_12.midButton,mouse_12.rightButton,mouse_12.clicked_name,prac_loop.thisRepN,prac_loop.thisTrialN,prac_loop.thisN,prac_loop.thisIndex,prac_loop.ran,Pair_type,Image_num,Patch_1_loc,Patch_2_loc,Patch_1_info,Patch_2_info,Patch_1_name,Patch_2_name,mouse_1.x,mouse_1.y,mouse_1.leftButton,mouse_1.midButton,mouse_1.rightButton,mouse_1.time,mouse_1.clicked_name,space_press_continue_7.keys,space_press_continue_7.rt,mask_loop.thisRepN,mask_loop.thisTrialN,mask_loop.thisN,mask_loop.thisIndex,mask_loop.ran,mask_loop_2.thisRepN,mask_loop_2.thisTrialN,mask_loop_2.thisN,mask_loop_2.thisIndex,mask_loop_2.ran,mouse.x,mouse.y,mouse.leftButton,mouse.midButton,mouse.rightButton,mouse.clicked_name,trialNumber,mouse_11.x,mouse_11.y,mouse_11.leftButton,mouse_11.midButton,mouse_11.rightButton,mouse_11.clicked_name,first_pass_loop.thisRepN,first_pass_loop.thisTrialN,first_pass_loop.thisN,first_pass_loop.thisIndex,first_pass_loop.ran,mask_loop_3.thisRepN,mask_loop_3.thisTrialN,mask_loop_3.thisN,mask_loop_3.thisIndex,mask_loop_3.ran,mask_loop_4.thisRepN,mask_loop_4.thisTrialN,mask_loop_4.thisN,mask_loop_4.thisIndex,mask_loop_4.ran,mouse_3.x,mouse_3.y,mouse_3.leftButton,mouse_3.midButton,mouse_3.rightButton,mouse_3.clicked_name,double_pass_loop.thisRepN,double_pass_loop.thisTrialN,double_pass_loop.thisN,double_pass_loop.thisIndex,double_pass_loop.ran,space_exit.keys,space_exit.rt
538182,001,2022-11-21_01h05.03.584,Info_measure_main_exp,2022.2.2,Win32,74.92881762,,,,,,,,,,,,,,,,,,,,,,,,,,,,,,,,,,,,,,,,,,,,,,,,,,,,,,,,,,,,,,,,,,,,,,,,,,,,,,,,,,,,,,,,,,,,,,,,,,,,,,,,,,,,,,,
538182,001,2022-11-21_01h05.03.584,Info_measure_main_exp,2022.2.2,Win32,74.92881762,,,,,,,,,,,,,,,,,,,,,,,,,,,,,,,,,,,,,,,,,,,,,,,,,,,,,,,,,,,,,,,,,,,,,,,,,,,,,,,,,,,,,,,,,,,,,,,,,,,,,,,,,,,,,,,
538182,001,2022-11-21_01h05.03.584,Info_measure_main_exp,2022.2.2,Win32,74.92881762,space,7.2533,,,,,,,,,,,,,,,,,,,,,,,,,,,,,,,,,,,,,,,,,,,,,,,,,,,,,,,,,,,,,,,,,,,,,,,,,,,,,,,,,,,,,,,,,,,,,,,,,,,,,,,,,,,,,
538182,001,2022-11-21_01h05.03.584,Info_measure_main_exp,2022.2.2,Win32,74.92881762,,,space,9.8725,,,,,,,,,,,,,,,,,,,,,,,,,,,,,,,,,,,,,,,,,,,,,,,,,,,,,,,,,,,,,,,,,,,,,,,,,,,,,,,,,,,,,,,,,,,,,,,,,,,,,,,,,,,
538182,001,2022-11-21_01h05.03.584,Info_measure_main_exp,2022.2.2,Win32,74.92881762,,,,,space,6.1202,,,,,,,,,,,,,,,,,,,,,,,,,,,,,,,,,,,,,,,,,,,,,,,,,,,,,,,,,,,,,,,,,,,,,,,,,,,,,,,,,,,,,,,,,,,,,,,,,,,,,,,,,
538182,001,2022-11-21_01h05.03.584,Info_measure_main_exp,2022.2.2,Win32,74.92881762,,,,,,,space,17.7269,,,,,,,,,,,,,,,,,,,,,,,,,,,,,,,,,,,,,,,,,,,,,,,,,,,,,,,,,,,,,,,,,,,,,,,,,,,,,,,,,,,,,,,,,,,,,,,,,,,,,,,
538182,001,2022-11-21_01h05.03.584,Info_measure_main_exp,2022.2.2,Win32,74.92881762,,,,,,,,,space,9.6022,,,,,,,,,,,,,,,,,,,,,,,,,,,,,,,,,,,,,,,,,,,,,,,,,,,,,,,,,,,,,,,,,,,,,,,,,,,,,,,,,,,,,,,,,,,,,,,,,,,,,
538182,001,2022-11-21_01h05.03.584,Info_measure_main_exp,2022.2.2,Win32,74.92881762,,,,,,,,,,,space,7.0239,,,,,,,,,,,,,,,,,,,,,,,,,,,,,,,,,,,,,,,,,,,,,,,,,,,,,,,,,,,,,,,,,,,,,,,,,,,,,,,,,,,,,,,,,,,,,,,,,,,
538182,001,2022-11-21_01h05.03.584,Info_measure_main_exp,2022.2.2,Win32,74.92881762,,,,,,,,,,,,,0,0,0,3,1,masks/mask_004.jpg,,,,,,,,,,,,,,,,,,,,,,,,,,,,,,,,,,,,,,,,,,,,,,,,,,,,,,,,,,,,,,,,,,,,,,,,,,,,,,,,,,,,,,,,,,,,,
538182,001,2022-11-21_01h05.03.584,Info_measure_main_exp,2022.2.2,Win32,74.92881762,,,,,,,,,,,,,0,1,1,1,1,masks/mask_002.jpg,,,,,,,,,,,,,,,,,,,,,,,,,,,,,,,,,,,,,,,,,,,,,,,,,,,,,,,,,,,,,,,,,,,,,,,,,,,,,,,,,,,,,,,,,,,,,
538182,001,2022-11-21_01h05.03.584,Info_measure_main_exp,2022.2.2,Win32,74.92881762,,,,,,,,,,,,,0,2,2,4,1,masks/mask_005.jpg,,,,,,,,,,,,,,,,,,,,,,,,,,,,,,,,,,,,,,,,,,,,,,,,,,,,,,,,,,,,,,,,,,,,,,,,,,,,,,,,,,,,,,,,,,,,,
538182,001,2022-11-21_01h05.03.584,Info_measure_main_exp,2022.2.2,Win32,74.92881762,,,,,,,,,,,,,0,3,3,2,1,masks/mask_003.jpg,,,,,,,,,,,,,,,,,,,,,,,,,,,,,,,,,,,,,,,,,,,,,,,,,,,,,,,,,,,,,,,,,,,,,,,,,,,,,,,,,,,,,,,,,,,,,
538182,001,2022-11-21_01h05.03.584,Info_measure_main_exp,2022.2.2,Win32,74.92881762,,,,,,,,,,,,,0,4,4,0,1,masks/mask_001.jpg,,,,,,,,,,,,,,,,,,,,,,,,,,,,,,,,,,,,,,,,,,,,,,,,,,,,,,,,,,,,,,,,,,,,,,,,,,,,,,,,,,,,,,,,,,,,,
538182,001,2022-11-21_01h05.03.584,Info_measure_main_exp,2022.2.2,Win32,74.92881762,,,,,,,,,,,,,,,,,,masks/mask_005.jpg,0,0,0,4,1,,,,,,,,,,,,,,,,,,,,,,,,,,,,,,,,,,,,,,,,,,,,,,,,,,,,,,,,,,,,,,,,,,,,,,,,,,,,,,,,,,,,,,,,
538182,001,2022-11-21_01h05.03.584,Info_measure_main_exp,2022.2.2,Win32,74.92881762,,,,,,,,,,,,,,,,,,masks/mask_003.jpg,0,1,1,2,1,,,,,,,,,,,,,,,,,,,,,,,,,,,,,,,,,,,,,,,,,,,,,,,,,,,,,,,,,,,,,,,,,,,,,,,,,,,,,,,,,,,,,,,,
538182,001,2022-11-21_01h05.03.584,Info_measure_main_exp,2022.2.2,Win32,74.92881762,,,,,,,,,,,,,,,,,,masks/mask_001.jpg,0,2,2,0,1,,,,,,,,,,,,,,,,,,,,,,,,,,,,,,,,,,,,,,,,,,,,,,,,,,,,,,,,,,,,,,,,,,,,,,,,,,,,,,,,,,,,,,,,
538182,001,2022-11-21_01h05.03.584,Info_measure_main_exp,2022.2.2,Win32,74.92881762,,,,,,,,,,,,,,,,,,masks/mask_004.jpg,0,3,3,3,1,,,,,,,,,,,,,,,,,,,,,,,,,,,,,,,,,,,,,,,,,,,,,,,,,,,,,,,,,,,,,,,,,,,,,,,,,,,,,,,,,,,,,,,,
538182,001,2022-11-21_01h05.03.584,Info_measure_main_exp,2022.2.2,Win32,74.92881762,,,,,,,,,,,,,,,,,,masks/mask_002.jpg,0,4,4,1,1,,,,,,,,,,,,,,,,,,,,,,,,,,,,,,,,,,,,,,,,,,,,,,,,,,,,,,,,,,,,,,,,,,,,,,,,,,,,,,,,,,,,,,,,
538182,001,2022-11-21_01h05.03.584,Info_measure_main_exp,2022.2.2,Win32,74.92881762,,,,,,,,,,,,,,,,,,,,,,,,-0.063888889,0.037037037,1,0,0,response7disk,1,69.0193,1,-0.002777778,0.000925926,1,0,0,center_square,0,0,0,2,1,0,131,5,5,2526,2526,prac_patch/patch0002526.jpg,prac_patch/patch0002526.jpg,,,,,,,,,,,,,,,,,,,,,,,,,,,,,,,,,,,,,,,,,,,,,,,,,,,,,,,,,,,,
538182,001,2022-11-21_01h05.03.584,Info_measure_main_exp,2022.2.2,Win32,74.92881762,,,,,,,,,,,,,0,0,0,3,1,masks/mask_004.jpg,,,,,,,,,,,,,,,,,,,,,,,,,,,,,,,,,,,,,,,,,,,,,,,,,,,,,,,,,,,,,,,,,,,,,,,,,,,,,,,,,,,,,,,,,,,,,
538182,001,2022-11-21_01h05.03.584,Info_measure_main_exp,2022.2.2,Win32,74.92881762,,,,,,,,,,,,,0,1,1,0,1,masks/mask_001.jpg,,,,,,,,,,,,,,,,,,,,,,,,,,,,,,,,,,,,,,,,,,,,,,,,,,,,,,,,,,,,,,,,,,,,,,,,,,,,,,,,,,,,,,,,,,,,,
538182,001,2022-11-21_01h05.03.584,Info_measure_main_exp,2022.2.2,Win32,74.92881762,,,,,,,,,,,,,0,2,2,2,1,masks/mask_003.jpg,,,,,,,,,,,,,,,,,,,,,,,,,,,,,,,,,,,,,,,,,,,,,,,,,,,,,,,,,,,,,,,,,,,,,,,,,,,,,,,,,,,,,,,,,,,,,
538182,001,2022-11-21_01h05.03.584,Info_measure_main_exp,2022.2.2,Win32,74.92881762,,,,,,,,,,,,,0,3,3,1,1,masks/mask_002.jpg,,,,,,,,,,,,,,,,,,,,,,,,,,,,,,,,,,,,,,,,,,,,,,,,,,,,,,,,,,,,,,,,,,,,,,,,,,,,,,,,,,,,,,,,,,,,,
538182,001,2022-11-21_01h05.03.584,Info_measure_main_exp,2022.2.2,Win32,74.92881762,,,,,,,,,,,,,0,4,4,4,1,masks/mask_005.jpg,,,,,,,,,,,,,,,,,,,,,,,,,,,,,,,,,,,,,,,,,,,,,,,,,,,,,,,,,,,,,,,,,,,,,,,,,,,,,,,,,,,,,,,,,,,,,
538182,001,2022-11-21_01h05.03.584,Info_measure_main_exp,2022.2.2,Win32,74.92881762,,,,,,,,,,,,,,,,,,masks/mask_003.jpg,0,0,0,2,1,,,,,,,,,,,,,,,,,,,,,,,,,,,,,,,,,,,,,,,,,,,,,,,,,,,,,,,,,,,,,,,,,,,,,,,,,,,,,,,,,,,,,,,,
538182,001,2022-11-21_01h05.03.584,Info_measure_main_exp,2022.2.2,Win32,74.92881762,,,,,,,,,,,,,,,,,,masks/mask_005.jpg,0,1,1,4,1,,,,,,,,,,,,,,,,,,,,,,,,,,,,,,,,,,,,,,,,,,,,,,,,,,,,,,,,,,,,,,,,,,,,,,,,,,,,,,,,,,,,,,,,
538182,001,2022-11-21_01h05.03.584,Info_measure_main_exp,2022.2.2,Win32,74.92881762,,,,,,,,,,,,,,,,,,masks/mask_001.jpg,0,2,2,0,1,,,,,,,,,,,,,,,,,,,,,,,,,,,,,,,,,,,,,,,,,,,,,,,,,,,,,,,,,,,,,,,,,,,,,,,,,,,,,,,,,,,,,,,,
538182,001,2022-11-21_01h05.03.584,Info_measure_main_exp,2022.2.2,Win32,74.92881762,,,,,,,,,,,,,,,,,,masks/mask_004.jpg,0,3,3,3,1,,,,,,,,,,,,,,,,,,,,,,,,,,,,,,,,,,,,,,,,,,,,,,,,,,,,,,,,,,,,,,,,,,,,,,,,,,,,,,,,,,,,,,,,
538182,001,2022-11-21_01h05.03.584,Info_measure_main_exp,2022.2.2,Win32,74.92881762,,,,,,,,,,,,,,,,,,masks/mask_002.jpg,0,4,4,1,1,,,,,,,,,,,,,,,,,,,,,,,,,,,,,,,,,,,,,,,,,,,,,,,,,,,,,,,,,,,,,,,,,,,,,,,,,,,,,,,,,,,,,,,,
538182,001,2022-11-21_01h05.03.584,Info_measure_main_exp,2022.2.2,Win32,74.92881762,,,,,,,,,,,,,,,,,,,,,,,,0.09537037,-0.038888889,1,0,0,response3disk,5,82.3915,1,-0.001851852,-0.002777778,1,0,0,center_square,0,1,1,1,1,0,131,5,5,2514,2490,prac_patch/patch0002514.jpg,prac_patch/patch0002490.jpg,,,,,,,,,,,,,,,,,,,,,,,,,,,,,,,,,,,,,,,,,,,,,,,,,,,,,,,,,,,,
538182,001,2022-11-21_01h05.03.584,Info_measure_main_exp,2022.2.2,Win32,74.92881762,,,,,,,,,,,,,0,0,0,3,1,masks/mask_004.jpg,,,,,,,,,,,,,,,,,,,,,,,,,,,,,,,,,,,,,,,,,,,,,,,,,,,,,,,,,,,,,,,,,,,,,,,,,,,,,,,,,,,,,,,,,,,,,
538182,001,2022-11-21_01h05.03.584,Info_measure_main_exp,2022.2.2,Win32,74.92881762,,,,,,,,,,,,,0,1,1,4,1,masks/mask_005.jpg,,,,,,,,,,,,,,,,,,,,,,,,,,,,,,,,,,,,,,,,,,,,,,,,,,,,,,,,,,,,,,,,,,,,,,,,,,,,,,,,,,,,,,,,,,,,,
538182,001,2022-11-21_01h05.03.584,Info_measure_main_exp,2022.2.2,Win32,74.92881762,,,,,,,,,,,,,0,2,2,2,1,masks/mask_003.jpg,,,,,,,,,,,,,,,,,,,,,,,,,,,,,,,,,,,,,,,,,,,,,,,,,,,,,,,,,,,,,,,,,,,,,,,,,,,,,,,,,,,,,,,,,,,,,
538182,001,2022-11-21_01h05.03.584,Info_measure_main_exp,2022.2.2,Win32,74.92881762,,,,,,,,,,,,,0,3,3,0,1,masks/mask_001.jpg,,,,,,,,,,,,,,,,,,,,,,,,,,,,,,,,,,,,,,,,,,,,,,,,,,,,,,,,,,,,,,,,,,,,,,,,,,,,,,,,,,,,,,,,,,,,,
538182,001,2022-11-21_01h05.03.584,Info_measure_main_exp,2022.2.2,Win32,74.92881762,,,,,,,,,,,,,0,4,4,1,1,masks/mask_002.jpg,,,,,,,,,,,,,,,,,,,,,,,,,,,,,,,,,,,,,,,,,,,,,,,,,,,,,,,,,,,,,,,,,,,,,,,,,,,,,,,,,,,,,,,,,,,,,
538182,001,2022-11-21_01h05.03.584,Info_measure_main_exp,2022.2.2,Win32,74.92881762,,,,,,,,,,,,,,,,,,masks/mask_002.jpg,0,0,0,1,1,,,,,,,,,,,,,,,,,,,,,,,,,,,,,,,,,,,,,,,,,,,,,,,,,,,,,,,,,,,,,,,,,,,,,,,,,,,,,,,,,,,,,,,,
538182,001,2022-11-21_01h05.03.584,Info_measure_main_exp,2022.2.2,Win32,74.92881762,,,,,,,,,,,,,,,,,,masks/mask_004.jpg,0,1,1,3,1,,,,,,,,,,,,,,,,,,,,,,,,,,,,,,,,,,,,,,,,,,,,,,,,,,,,,,,,,,,,,,,,,,,,,,,,,,,,,,,,,,,,,,,,
538182,001,2022-11-21_01h05.03.584,Info_measure_main_exp,2022.2.2,Win32,74.92881762,,,,,,,,,,,,,,,,,,masks/mask_003.jpg,0,2,2,2,1,,,,,,,,,,,,,,,,,,,,,,,,,,,,,,,,,,,,,,,,,,,,,,,,,,,,,,,,,,,,,,,,,,,,,,,,,,,,,,,,,,,,,,,,
538182,001,2022-11-21_01h05.03.584,Info_measure_main_exp,2022.2.2,Win32,74.92881762,,,,,,,,,,,,,,,,,,masks/mask_001.jpg,0,3,3,0,1,,,,,,,,,,,,,,,,,,,,,,,,,,,,,,,,,,,,,,,,,,,,,,,,,,,,,,,,,,,,,,,,,,,,,,,,,,,,,,,,,,,,,,,,
538182,001,2022-11-21_01h05.03.584,Info_measure_main_exp,2022.2.2,Win32,74.92881762,,,,,,,,,,,,,,,,,,masks/mask_005.jpg,0,4,4,4,1,,,,,,,,,,,,,,,,,,,,,,,,,,,,,,,,,,,,,,,,,,,,,,,,,,,,,,,,,,,,,,,,,,,,,,,,,,,,,,,,,,,,,,,,
538182,001,2022-11-21_01h05.03.584,Info_measure_main_exp,2022.2.2,Win32,74.92881762,,,,,,,,,,,,,,,,,,,,,,,,0.130555556,-0.05462963,1,0,0,response3disk,5,91.4883,1,-0.001851852,-0.010185185,1,0,0,center_square,0,2,2,0,1,0,131,5,5,2370,2406,prac_patch/patch0002370.jpg,prac_patch/patch0002406.jpg,,,,,,,,,,,,,,,,,,,,,,,,,,,,,,,,,,,,,,,,,,,,,,,,,,,,,,,,,,,,
538182,001,2022-11-21_01h05.03.584,Info_measure_main_exp,2022.2.2,Win32,74.92881762,,,,,,,,,,,,,,,,,,,,,,,,,,,,,,,,,,,,,,,,,,,,,,,,,,,,,,,,,,,space,1.9997,,,,,,,,,,,,,,,,,,,,,,,,,,,,,,,,,,,,,,,,,,,,,,,,,,,
538182,001,2022-11-21_01h05.03.584,Info_measure_main_exp,2022.2.2,Win32,74.92881762,,,,,,,,,,,,,,,,,,masks/mask_001.jpg,,,,,,,,,,,,,,,,,,,,,,,,,,,,,,,,,,,,,,,,,,,0,0,0,0,1,,,,,,,,,,,,,,,,,,,,,,,,,,,,,,,,,,,,,,,,,,,,,,
538182,001,2022-11-21_01h05.03.584,Info_measure_main_exp,2022.2.2,Win32,74.92881762,,,,,,,,,,,,,,,,,,masks/mask_004.jpg,,,,,,,,,,,,,,,,,,,,,,,,,,,,,,,,,,,,,,,,,,,0,1,1,3,1,,,,,,,,,,,,,,,,,,,,,,,,,,,,,,,,,,,,,,,,,,,,,,
538182,001,2022-11-21_01h05.03.584,Info_measure_main_exp,2022.2.2,Win32,74.92881762,,,,,,,,,,,,,,,,,,masks/mask_005.jpg,,,,,,,,,,,,,,,,,,,,,,,,,,,,,,,,,,,,,,,,,,,0,2,2,4,1,,,,,,,,,,,,,,,,,,,,,,,,,,,,,,,,,,,,,,,,,,,,,,
538182,001,2022-11-21_01h05.03.584,Info_measure_main_exp,2022.2.2,Win32,74.92881762,,,,,,,,,,,,,,,,,,masks/mask_002.jpg,,,,,,,,,,,,,,,,,,,,,,,,,,,,,,,,,,,,,,,,,,,0,3,3,1,1,,,,,,,,,,,,,,,,,,,,,,,,,,,,,,,,,,,,,,,,,,,,,,
538182,001,2022-11-21_01h05.03.584,Info_measure_main_exp,2022.2.2,Win32,74.92881762,,,,,,,,,,,,,,,,,,masks/mask_003.jpg,,,,,,,,,,,,,,,,,,,,,,,,,,,,,,,,,,,,,,,,,,,0,4,4,2,1,,,,,,,,,,,,,,,,,,,,,,,,,,,,,,,,,,,,,,,,,,,,,,
538182,001,2022-11-21_01h05.03.584,Info_measure_main_exp,2022.2.2,Win32,74.92881762,,,,,,,,,,,,,,,,,,masks/mask_003.jpg,,,,,,,,,,,,,,,,,,,,,,,,,,,,,,,,,,,,,,,,,,,,,,,,0,0,0,2,1,,,,,,,,,,,,,,,,,,,,,,,,,,,,,,,,,,,,,,,,,
538182,001,2022-11-21_01h05.03.584,Info_measure_main_exp,2022.2.2,Win32,74.92881762,,,,,,,,,,,,,,,,,,masks/mask_005.jpg,,,,,,,,,,,,,,,,,,,,,,,,,,,,,,,,,,,,,,,,,,,,,,,,0,1,1,4,1,,,,,,,,,,,,,,,,,,,,,,,,,,,,,,,,,,,,,,,,,
538182,001,2022-11-21_01h05.03.584,Info_measure_main_exp,2022.2.2,Win32,74.92881762,,,,,,,,,,,,,,,,,,masks/mask_001.jpg,,,,,,,,,,,,,,,,,,,,,,,,,,,,,,,,,,,,,,,,,,,,,,,,0,2,2,0,1,,,,,,,,,,,,,,,,,,,,,,,,,,,,,,,,,,,,,,,,,
538182,001,2022-11-21_01h05.03.584,Info_measure_main_exp,2022.2.2,Win32,74.92881762,,,,,,,,,,,,,,,,,,masks/mask_004.jpg,,,,,,,,,,,,,,,,,,,,,,,,,,,,,,,,,,,,,,,,,,,,,,,,0,3,3,3,1,,,,,,,,,,,,,,,,,,,,,,,,,,,,,,,,,,,,,,,,,
538182,001,2022-11-21_01h05.03.584,Info_measure_main_exp,2022.2.2,Win32,74.92881762,,,,,,,,,,,,,,,,,,masks/mask_002.jpg,,,,,,,,,,,,,,,,,,,,,,,,,,,,,,,,,,,,,,,,,,,,,,,,0,4,4,1,1,,,,,,,,,,,,,,,,,,,,,,,,,,,,,,,,,,,,,,,,,
538182,001,2022-11-21_01h05.03.584,Info_measure_main_exp,2022.2.2,Win32,74.92881762,,,,,,,,,,,,,,,,,,,,,,,,,,,,,,6,0.8536,1,,,,,,,,,,,,0,131,5,5,2154,2250,absent_patch/patch0002154.jpg,absent_patch/patch0002250.jpg,,,,,,,,,,,,,,,,,,,,0.086111111,0.04537037,1,0,0,response1disk,1,-0.005555556,-0.002777778,1,0,0,center_square,0,0,0,108,1,,,,,,,,,,,,,,,,,,,,,,,
538182,001,2022-11-21_01h05.03.584,Info_measure_main_exp,2022.2.2,Win32,74.92881762,,,,,,,,,,,,,,,,,,masks/mask_001.jpg,,,,,,,,,,,,,,,,,,,,,,,,,,,,,,,,,,,,,,,,,,,0,0,0,0,1,,,,,,,,,,,,,,,,,,,,,,,,,,,,,,,,,,,,,,,,,,,,,,
538182,001,2022-11-21_01h05.03.584,Info_measure_main_exp,2022.2.2,Win32,74.92881762,,,,,,,,,,,,,,,,,,masks/mask_003.jpg,,,,,,,,,,,,,,,,,,,,,,,,,,,,,,,,,,,,,,,,,,,0,1,1,2,1,,,,,,,,,,,,,,,,,,,,,,,,,,,,,,,,,,,,,,,,,,,,,,
538182,001,2022-11-21_01h05.03.584,Info_measure_main_exp,2022.2.2,Win32,74.92881762,,,,,,,,,,,,,,,,,,masks/mask_004.jpg,,,,,,,,,,,,,,,,,,,,,,,,,,,,,,,,,,,,,,,,,,,0,2,2,3,1,,,,,,,,,,,,,,,,,,,,,,,,,,,,,,,,,,,,,,,,,,,,,,
538182,001,2022-11-21_01h05.03.584,Info_measure_main_exp,2022.2.2,Win32,74.92881762,,,,,,,,,,,,,,,,,,masks/mask_002.jpg,,,,,,,,,,,,,,,,,,,,,,,,,,,,,,,,,,,,,,,,,,,0,3,3,1,1,,,,,,,,,,,,,,,,,,,,,,,,,,,,,,,,,,,,,,,,,,,,,,
538182,001,2022-11-21_01h05.03.584,Info_measure_main_exp,2022.2.2,Win32,74.92881762,,,,,,,,,,,,,,,,,,masks/mask_005.jpg,,,,,,,,,,,,,,,,,,,,,,,,,,,,,,,,,,,,,,,,,,,0,4,4,4,1,,,,,,,,,,,,,,,,,,,,,,,,,,,,,,,,,,,,,,,,,,,,,,
538182,001,2022-11-21_01h05.03.584,Info_measure_main_exp,2022.2.2,Win32,74.92881762,,,,,,,,,,,,,,,,,,masks/mask_001.jpg,,,,,,,,,,,,,,,,,,,,,,,,,,,,,,,,,,,,,,,,,,,,,,,,0,0,0,0,1,,,,,,,,,,,,,,,,,,,,,,,,,,,,,,,,,,,,,,,,,
538182,001,2022-11-21_01h05.03.584,Info_measure_main_exp,2022.2.2,Win32,74.92881762,,,,,,,,,,,,,,,,,,masks/mask_003.jpg,,,,,,,,,,,,,,,,,,,,,,,,,,,,,,,,,,,,,,,,,,,,,,,,0,1,1,2,1,,,,,,,,,,,,,,,,,,,,,,,,,,,,,,,,,,,,,,,,,
538182,001,2022-11-21_01h05.03.584,Info_measure_main_exp,2022.2.2,Win32,74.92881762,,,,,,,,,,,,,,,,,,masks/mask_005.jpg,,,,,,,,,,,,,,,,,,,,,,,,,,,,,,,,,,,,,,,,,,,,,,,,0,2,2,4,1,,,,,,,,,,,,,,,,,,,,,,,,,,,,,,,,,,,,,,,,,
538182,001,2022-11-21_01h05.03.584,Info_measure_main_exp,2022.2.2,Win32,74.92881762,,,,,,,,,,,,,,,,,,masks/mask_002.jpg,,,,,,,,,,,,,,,,,,,,,,,,,,,,,,,,,,,,,,,,,,,,,,,,0,3,3,1,1,,,,,,,,,,,,,,,,,,,,,,,,,,,,,,,,,,,,,,,,,
538182,001,2022-11-21_01h05.03.584,Info_measure_main_exp,2022.2.2,Win32,74.92881762,,,,,,,,,,,,,,,,,,masks/mask_004.jpg,,,,,,,,,,,,,,,,,,,,,,,,,,,,,,,,,,,,,,,,,,,,,,,,0,4,4,3,1,,,,,,,,,,,,,,,,,,,,,,,,,,,,,,,,,,,,,,,,,
538182,001,2022-11-21_01h05.03.584,Info_measure_main_exp,2022.2.2,Win32,74.92881762,,,,,,,,,,,,,,,,,,,,,,,,,,,,,,7,0.8801,1,,,,,,,,,,,,0,131,5,5,2274,2178,absent_patch/patch0002274.jpg,absent_patch/patch0002178.jpg,,,,,,,,,,,,,,,,,,,,0.048148148,0.100925926,1,0,0,response1disk,2,0.002777778,-0.000925926,1,0,0,center_square,0,1,1,117,1,,,,,,,,,,,,,,,,,,,,,,,
538182,001,2022-11-21_01h05.03.584,Info_measure_main_exp,2022.2.2,Win32,74.92881762,,,,,,,,,,,,,,,,,,masks/mask_001.jpg,,,,,,,,,,,,,,,,,,,,,,,,,,,,,,,,,,,,,,,,,,,0,0,0,0,1,,,,,,,,,,,,,,,,,,,,,,,,,,,,,,,,,,,,,,,,,,,,,,
538182,001,2022-11-21_01h05.03.584,Info_measure_main_exp,2022.2.2,Win32,74.92881762,,,,,,,,,,,,,,,,,,masks/mask_004.jpg,,,,,,,,,,,,,,,,,,,,,,,,,,,,,,,,,,,,,,,,,,,0,1,1,3,1,,,,,,,,,,,,,,,,,,,,,,,,,,,,,,,,,,,,,,,,,,,,,,
538182,001,2022-11-21_01h05.03.584,Info_measure_main_exp,2022.2.2,Win32,74.92881762,,,,,,,,,,,,,,,,,,masks/mask_005.jpg,,,,,,,,,,,,,,,,,,,,,,,,,,,,,,,,,,,,,,,,,,,0,2,2,4,1,,,,,,,,,,,,,,,,,,,,,,,,,,,,,,,,,,,,,,,,,,,,,,
538182,001,2022-11-21_01h05.03.584,Info_measure_main_exp,2022.2.2,Win32,74.92881762,,,,,,,,,,,,,,,,,,masks/mask_003.jpg,,,,,,,,,,,,,,,,,,,,,,,,,,,,,,,,,,,,,,,,,,,0,3,3,2,1,,,,,,,,,,,,,,,,,,,,,,,,,,,,,,,,,,,,,,,,,,,,,,
538182,001,2022-11-21_01h05.03.584,Info_measure_main_exp,2022.2.2,Win32,74.92881762,,,,,,,,,,,,,,,,,,masks/mask_002.jpg,,,,,,,,,,,,,,,,,,,,,,,,,,,,,,,,,,,,,,,,,,,0,4,4,1,1,,,,,,,,,,,,,,,,,,,,,,,,,,,,,,,,,,,,,,,,,,,,,,
538182,001,2022-11-21_01h05.03.584,Info_measure_main_exp,2022.2.2,Win32,74.92881762,,,,,,,,,,,,,,,,,,masks/mask_001.jpg,,,,,,,,,,,,,,,,,,,,,,,,,,,,,,,,,,,,,,,,,,,,,,,,0,0,0,0,1,,,,,,,,,,,,,,,,,,,,,,,,,,,,,,,,,,,,,,,,,
538182,001,2022-11-21_01h05.03.584,Info_measure_main_exp,2022.2.2,Win32,74.92881762,,,,,,,,,,,,,,,,,,masks/mask_004.jpg,,,,,,,,,,,,,,,,,,,,,,,,,,,,,,,,,,,,,,,,,,,,,,,,0,1,1,3,1,,,,,,,,,,,,,,,,,,,,,,,,,,,,,,,,,,,,,,,,,
538182,001,2022-11-21_01h05.03.584,Info_measure_main_exp,2022.2.2,Win32,74.92881762,,,,,,,,,,,,,,,,,,masks/mask_003.jpg,,,,,,,,,,,,,,,,,,,,,,,,,,,,,,,,,,,,,,,,,,,,,,,,0,2,2,2,1,,,,,,,,,,,,,,,,,,,,,,,,,,,,,,,,,,,,,,,,,
538182,001,2022-11-21_01h05.03.584,Info_measure_main_exp,2022.2.2,Win32,74.92881762,,,,,,,,,,,,,,,,,,masks/mask_005.jpg,,,,,,,,,,,,,,,,,,,,,,,,,,,,,,,,,,,,,,,,,,,,,,,,0,3,3,4,1,,,,,,,,,,,,,,,,,,,,,,,,,,,,,,,,,,,,,,,,,
538182,001,2022-11-21_01h05.03.584,Info_measure_main_exp,2022.2.2,Win32,74.92881762,,,,,,,,,,,,,,,,,,masks/mask_002.jpg,,,,,,,,,,,,,,,,,,,,,,,,,,,,,,,,,,,,,,,,,,,,,,,,0,4,4,1,1,,,,,,,,,,,,,,,,,,,,,,,,,,,,,,,,,,,,,,,,,
538182,001,2022-11-21_01h05.03.584,Info_measure_main_exp,2022.2.2,Win32,74.92881762,,,,,,,,,,,,,,,,,,,,,,,,,,,,,,7,1.3605,1,,,,,,,,,,,,0,131,5,5,2274,2082,absent_patch/patch0002274.jpg,absent_patch/patch0002082.jpg,,,,,,,,,,,,,,,,,,,,0.057407407,0.112962963,1,0,0,response1disk,3,0.00462963,0.008333333,1,0,0,center_square,0,2,2,100,1,,,,,,,,,,,,,,,,,,,,,,,
538182,001,2022-11-21_01h05.03.584,Info_measure_main_exp,2022.2.2,Win32,74.92881762,,,,,,,,,,,,,,,,,,masks/mask_003.jpg,,,,,,,,,,,,,,,,,,,,,,,,,,,,,,,,,,,,,,,,,,,0,0,0,2,1,,,,,,,,,,,,,,,,,,,,,,,,,,,,,,,,,,,,,,,,,,,,,,
538182,001,2022-11-21_01h05.03.584,Info_measure_main_exp,2022.2.2,Win32,74.92881762,,,,,,,,,,,,,,,,,,masks/mask_001.jpg,,,,,,,,,,,,,,,,,,,,,,,,,,,,,,,,,,,,,,,,,,,0,1,1,0,1,,,,,,,,,,,,,,,,,,,,,,,,,,,,,,,,,,,,,,,,,,,,,,
538182,001,2022-11-21_01h05.03.584,Info_measure_main_exp,2022.2.2,Win32,74.92881762,,,,,,,,,,,,,,,,,,masks/mask_004.jpg,,,,,,,,,,,,,,,,,,,,,,,,,,,,,,,,,,,,,,,,,,,0,2,2,3,1,,,,,,,,,,,,,,,,,,,,,,,,,,,,,,,,,,,,,,,,,,,,,,
538182,001,2022-11-21_01h05.03.584,Info_measure_main_exp,2022.2.2,Win32,74.92881762,,,,,,,,,,,,,,,,,,masks/mask_005.jpg,,,,,,,,,,,,,,,,,,,,,,,,,,,,,,,,,,,,,,,,,,,0,3,3,4,1,,,,,,,,,,,,,,,,,,,,,,,,,,,,,,,,,,,,,,,,,,,,,,
538182,001,2022-11-21_01h05.03.584,Info_measure_main_exp,2022.2.2,Win32,74.92881762,,,,,,,,,,,,,,,,,,masks/mask_002.jpg,,,,,,,,,,,,,,,,,,,,,,,,,,,,,,,,,,,,,,,,,,,0,4,4,1,1,,,,,,,,,,,,,,,,,,,,,,,,,,,,,,,,,,,,,,,,,,,,,,
538182,001,2022-11-21_01h05.03.584,Info_measure_main_exp,2022.2.2,Win32,74.92881762,,,,,,,,,,,,,,,,,,masks/mask_005.jpg,,,,,,,,,,,,,,,,,,,,,,,,,,,,,,,,,,,,,,,,,,,,,,,,0,0,0,4,1,,,,,,,,,,,,,,,,,,,,,,,,,,,,,,,,,,,,,,,,,
538182,001,2022-11-21_01h05.03.584,Info_measure_main_exp,2022.2.2,Win32,74.92881762,,,,,,,,,,,,,,,,,,masks/mask_001.jpg,,,,,,,,,,,,,,,,,,,,,,,,,,,,,,,,,,,,,,,,,,,,,,,,0,1,1,0,1,,,,,,,,,,,,,,,,,,,,,,,,,,,,,,,,,,,,,,,,,
538182,001,2022-11-21_01h05.03.584,Info_measure_main_exp,2022.2.2,Win32,74.92881762,,,,,,,,,,,,,,,,,,masks/mask_002.jpg,,,,,,,,,,,,,,,,,,,,,,,,,,,,,,,,,,,,,,,,,,,,,,,,0,2,2,1,1,,,,,,,,,,,,,,,,,,,,,,,,,,,,,,,,,,,,,,,,,
538182,001,2022-11-21_01h05.03.584,Info_measure_main_exp,2022.2.2,Win32,74.92881762,,,,,,,,,,,,,,,,,,masks/mask_004.jpg,,,,,,,,,,,,,,,,,,,,,,,,,,,,,,,,,,,,,,,,,,,,,,,,0,3,3,3,1,,,,,,,,,,,,,,,,,,,,,,,,,,,,,,,,,,,,,,,,,
538182,001,2022-11-21_01h05.03.584,Info_measure_main_exp,2022.2.2,Win32,74.92881762,,,,,,,,,,,,,,,,,,masks/mask_003.jpg,,,,,,,,,,,,,,,,,,,,,,,,,,,,,,,,,,,,,,,,,,,,,,,,0,4,4,2,1,,,,,,,,,,,,,,,,,,,,,,,,,,,,,,,,,,,,,,,,,
538182,001,2022-11-21_01h05.03.584,Info_measure_main_exp,2022.2.2,Win32,74.92881762,,,,,,,,,,,,,,,,,,,,,,,,,,,,,,7,1.4672,1,,,,,,,,,,,,0,131,5,5,2214,1986,absent_patch/patch0002214.jpg,absent_patch/patch0001986.jpg,,,,,,,,,,,,,,,,,,,,0.066666667,0.121296296,1,0,0,response1disk,4,0.006481481,0.008333333,1,0,0,center_square,0,3,3,34,1,,,,,,,,,,,,,,,,,,,,,,,
538182,001,2022-11-21_01h05.03.584,Info_measure_main_exp,2022.2.2,Win32,74.92881762,,,,,,,,,,,,,,,,,,masks/mask_002.jpg,,,,,,,,,,,,,,,,,,,,,,,,,,,,,,,,,,,,,,,,,,,0,0,0,1,1,,,,,,,,,,,,,,,,,,,,,,,,,,,,,,,,,,,,,,,,,,,,,,
538182,001,2022-11-21_01h05.03.584,Info_measure_main_exp,2022.2.2,Win32,74.92881762,,,,,,,,,,,,,,,,,,masks/mask_005.jpg,,,,,,,,,,,,,,,,,,,,,,,,,,,,,,,,,,,,,,,,,,,0,1,1,4,1,,,,,,,,,,,,,,,,,,,,,,,,,,,,,,,,,,,,,,,,,,,,,,
538182,001,2022-11-21_01h05.03.584,Info_measure_main_exp,2022.2.2,Win32,74.92881762,,,,,,,,,,,,,,,,,,masks/mask_001.jpg,,,,,,,,,,,,,,,,,,,,,,,,,,,,,,,,,,,,,,,,,,,0,2,2,0,1,,,,,,,,,,,,,,,,,,,,,,,,,,,,,,,,,,,,,,,,,,,,,,
538182,001,2022-11-21_01h05.03.584,Info_measure_main_exp,2022.2.2,Win32,74.92881762,,,,,,,,,,,,,,,,,,masks/mask_003.jpg,,,,,,,,,,,,,,,,,,,,,,,,,,,,,,,,,,,,,,,,,,,0,3,3,2,1,,,,,,,,,,,,,,,,,,,,,,,,,,,,,,,,,,,,,,,,,,,,,,
538182,001,2022-11-21_01h05.03.584,Info_measure_main_exp,2022.2.2,Win32,74.92881762,,,,,,,,,,,,,,,,,,masks/mask_004.jpg,,,,,,,,,,,,,,,,,,,,,,,,,,,,,,,,,,,,,,,,,,,0,4,4,3,1,,,,,,,,,,,,,,,,,,,,,,,,,,,,,,,,,,,,,,,,,,,,,,
538182,001,2022-11-21_01h05.03.584,Info_measure_main_exp,2022.2.2,Win32,74.92881762,,,,,,,,,,,,,,,,,,masks/mask_005.jpg,,,,,,,,,,,,,,,,,,,,,,,,,,,,,,,,,,,,,,,,,,,,,,,,0,0,0,4,1,,,,,,,,,,,,,,,,,,,,,,,,,,,,,,,,,,,,,,,,,
538182,001,2022-11-21_01h05.03.584,Info_measure_main_exp,2022.2.2,Win32,74.92881762,,,,,,,,,,,,,,,,,,masks/mask_003.jpg,,,,,,,,,,,,,,,,,,,,,,,,,,,,,,,,,,,,,,,,,,,,,,,,0,1,1,2,1,,,,,,,,,,,,,,,,,,,,,,,,,,,,,,,,,,,,,,,,,
538182,001,2022-11-21_01h05.03.584,Info_measure_main_exp,2022.2.2,Win32,74.92881762,,,,,,,,,,,,,,,,,,masks/mask_001.jpg,,,,,,,,,,,,,,,,,,,,,,,,,,,,,,,,,,,,,,,,,,,,,,,,0,2,2,0,1,,,,,,,,,,,,,,,,,,,,,,,,,,,,,,,,,,,,,,,,,
538182,001,2022-11-21_01h05.03.584,Info_measure_main_exp,2022.2.2,Win32,74.92881762,,,,,,,,,,,,,,,,,,masks/mask_004.jpg,,,,,,,,,,,,,,,,,,,,,,,,,,,,,,,,,,,,,,,,,,,,,,,,0,3,3,3,1,,,,,,,,,,,,,,,,,,,,,,,,,,,,,,,,,,,,,,,,,
538182,001,2022-11-21_01h05.03.584,Info_measure_main_exp,2022.2.2,Win32,74.92881762,,,,,,,,,,,,,,,,,,masks/mask_002.jpg,,,,,,,,,,,,,,,,,,,,,,,,,,,,,,,,,,,,,,,,,,,,,,,,0,4,4,1,1,,,,,,,,,,,,,,,,,,,,,,,,,,,,,,,,,,,,,,,,,
538182,001,2022-11-21_01h05.03.584,Info_measure_main_exp,2022.2.2,Win32,74.92881762,,,,,,,,,,,,,,,,,,,,,,,,,,,,,,4,1.0403,1,,,,,,,,,,,,0,131,5,5,2250,2298,absent_patch/patch0002250.jpg,absent_patch/patch0002298.jpg,,,,,,,,,,,,,,,,,,,,0.047222222,-0.099074074,1,0,0,response3disk,5,0.001851852,-0.003703704,1,0,0,center_square,0,4,4,59,1,,,,,,,,,,,,,,,,,,,,,,,
538182,001,2022-11-21_01h05.03.584,Info_measure_main_exp,2022.2.2,Win32,74.92881762,,,,,,,,,,,,,,,,,,masks/mask_002.jpg,,,,,,,,,,,,,,,,,,,,,,,,,,,,,,,,,,,,,,,,,,,0,0,0,1,1,,,,,,,,,,,,,,,,,,,,,,,,,,,,,,,,,,,,,,,,,,,,,,
538182,001,2022-11-21_01h05.03.584,Info_measure_main_exp,2022.2.2,Win32,74.92881762,,,,,,,,,,,,,,,,,,masks/mask_001.jpg,,,,,,,,,,,,,,,,,,,,,,,,,,,,,,,,,,,,,,,,,,,0,1,1,0,1,,,,,,,,,,,,,,,,,,,,,,,,,,,,,,,,,,,,,,,,,,,,,,
538182,001,2022-11-21_01h05.03.584,Info_measure_main_exp,2022.2.2,Win32,74.92881762,,,,,,,,,,,,,,,,,,masks/mask_005.jpg,,,,,,,,,,,,,,,,,,,,,,,,,,,,,,,,,,,,,,,,,,,0,2,2,4,1,,,,,,,,,,,,,,,,,,,,,,,,,,,,,,,,,,,,,,,,,,,,,,
538182,001,2022-11-21_01h05.03.584,Info_measure_main_exp,2022.2.2,Win32,74.92881762,,,,,,,,,,,,,,,,,,masks/mask_003.jpg,,,,,,,,,,,,,,,,,,,,,,,,,,,,,,,,,,,,,,,,,,,0,3,3,2,1,,,,,,,,,,,,,,,,,,,,,,,,,,,,,,,,,,,,,,,,,,,,,,
538182,001,2022-11-21_01h05.03.584,Info_measure_main_exp,2022.2.2,Win32,74.92881762,,,,,,,,,,,,,,,,,,masks/mask_004.jpg,,,,,,,,,,,,,,,,,,,,,,,,,,,,,,,,,,,,,,,,,,,0,4,4,3,1,,,,,,,,,,,,,,,,,,,,,,,,,,,,,,,,,,,,,,,,,,,,,,
538182,001,2022-11-21_01h05.03.584,Info_measure_main_exp,2022.2.2,Win32,74.92881762,,,,,,,,,,,,,,,,,,masks/mask_001.jpg,,,,,,,,,,,,,,,,,,,,,,,,,,,,,,,,,,,,,,,,,,,,,,,,0,0,0,0,1,,,,,,,,,,,,,,,,,,,,,,,,,,,,,,,,,,,,,,,,,
538182,001,2022-11-21_01h05.03.584,Info_measure_main_exp,2022.2.2,Win32,74.92881762,,,,,,,,,,,,,,,,,,masks/mask_005.jpg,,,,,,,,,,,,,,,,,,,,,,,,,,,,,,,,,,,,,,,,,,,,,,,,0,1,1,4,1,,,,,,,,,,,,,,,,,,,,,,,,,,,,,,,,,,,,,,,,,
538182,001,2022-11-21_01h05.03.584,Info_measure_main_exp,2022.2.2,Win32,74.92881762,,,,,,,,,,,,,,,,,,masks/mask_002.jpg,,,,,,,,,,,,,,,,,,,,,,,,,,,,,,,,,,,,,,,,,,,,,,,,0,2,2,1,1,,,,,,,,,,,,,,,,,,,,,,,,,,,,,,,,,,,,,,,,,
538182,001,2022-11-21_01h05.03.584,Info_measure_main_exp,2022.2.2,Win32,74.92881762,,,,,,,,,,,,,,,,,,masks/mask_003.jpg,,,,,,,,,,,,,,,,,,,,,,,,,,,,,,,,,,,,,,,,,,,,,,,,0,3,3,2,1,,,,,,,,,,,,,,,,,,,,,,,,,,,,,,,,,,,,,,,,,
538182,001,2022-11-21_01h05.03.584,Info_measure_main_exp,2022.2.2,Win32,74.92881762,,,,,,,,,,,,,,,,,,masks/mask_004.jpg,,,,,,,,,,,,,,,,,,,,,,,,,,,,,,,,,,,,,,,,,,,,,,,,0,4,4,3,1,,,,,,,,,,,,,,,,,,,,,,,,,,,,,,,,,,,,,,,,,
538182,001,2022-11-21_01h05.03.584,Info_measure_main_exp,2022.2.2,Win32,74.92881762,,,,,,,,,,,,,,,,,,,,,,,,,,,,,,2,1.0537,1,,,,,,,,,,,,0,131,5,5,2082,1974,absent_patch/patch0002082.jpg,absent_patch/patch0001974.jpg,,,,,,,,,,,,,,,,,,,,-0.102777778,-0.037962963,1,0,0,response5disk,6,0.011111111,-0.002777778,1,0,0,center_square,0,5,5,26,1,,,,,,,,,,,,,,,,,,,,,,,
538182,001,2022-11-21_01h05.03.584,Info_measure_main_exp,2022.2.2,Win32,74.92881762,,,,,,,,,,,,,,,,,,masks/mask_001.jpg,,,,,,,,,,,,,,,,,,,,,,,,,,,,,,,,,,,,,,,,,,,0,0,0,0,1,,,,,,,,,,,,,,,,,,,,,,,,,,,,,,,,,,,,,,,,,,,,,,
538182,001,2022-11-21_01h05.03.584,Info_measure_main_exp,2022.2.2,Win32,74.92881762,,,,,,,,,,,,,,,,,,masks/mask_005.jpg,,,,,,,,,,,,,,,,,,,,,,,,,,,,,,,,,,,,,,,,,,,0,1,1,4,1,,,,,,,,,,,,,,,,,,,,,,,,,,,,,,,,,,,,,,,,,,,,,,
538182,001,2022-11-21_01h05.03.584,Info_measure_main_exp,2022.2.2,Win32,74.92881762,,,,,,,,,,,,,,,,,,masks/mask_002.jpg,,,,,,,,,,,,,,,,,,,,,,,,,,,,,,,,,,,,,,,,,,,0,2,2,1,1,,,,,,,,,,,,,,,,,,,,,,,,,,,,,,,,,,,,,,,,,,,,,,
538182,001,2022-11-21_01h05.03.584,Info_measure_main_exp,2022.2.2,Win32,74.92881762,,,,,,,,,,,,,,,,,,masks/mask_004.jpg,,,,,,,,,,,,,,,,,,,,,,,,,,,,,,,,,,,,,,,,,,,0,3,3,3,1,,,,,,,,,,,,,,,,,,,,,,,,,,,,,,,,,,,,,,,,,,,,,,
538182,001,2022-11-21_01h05.03.584,Info_measure_main_exp,2022.2.2,Win32,74.92881762,,,,,,,,,,,,,,,,,,masks/mask_003.jpg,,,,,,,,,,,,,,,,,,,,,,,,,,,,,,,,,,,,,,,,,,,0,4,4,2,1,,,,,,,,,,,,,,,,,,,,,,,,,,,,,,,,,,,,,,,,,,,,,,
538182,001,2022-11-21_01h05.03.584,Info_measure_main_exp,2022.2.2,Win32,74.92881762,,,,,,,,,,,,,,,,,,masks/mask_001.jpg,,,,,,,,,,,,,,,,,,,,,,,,,,,,,,,,,,,,,,,,,,,,,,,,0,0,0,0,1,,,,,,,,,,,,,,,,,,,,,,,,,,,,,,,,,,,,,,,,,
538182,001,2022-11-21_01h05.03.584,Info_measure_main_exp,2022.2.2,Win32,74.92881762,,,,,,,,,,,,,,,,,,masks/mask_003.jpg,,,,,,,,,,,,,,,,,,,,,,,,,,,,,,,,,,,,,,,,,,,,,,,,0,1,1,2,1,,,,,,,,,,,,,,,,,,,,,,,,,,,,,,,,,,,,,,,,,
538182,001,2022-11-21_01h05.03.584,Info_measure_main_exp,2022.2.2,Win32,74.92881762,,,,,,,,,,,,,,,,,,masks/mask_004.jpg,,,,,,,,,,,,,,,,,,,,,,,,,,,,,,,,,,,,,,,,,,,,,,,,0,2,2,3,1,,,,,,,,,,,,,,,,,,,,,,,,,,,,,,,,,,,,,,,,,
538182,001,2022-11-21_01h05.03.584,Info_measure_main_exp,2022.2.2,Win32,74.92881762,,,,,,,,,,,,,,,,,,masks/mask_005.jpg,,,,,,,,,,,,,,,,,,,,,,,,,,,,,,,,,,,,,,,,,,,,,,,,0,3,3,4,1,,,,,,,,,,,,,,,,,,,,,,,,,,,,,,,,,,,,,,,,,
538182,001,2022-11-21_01h05.03.584,Info_measure_main_exp,2022.2.2,Win32,74.92881762,,,,,,,,,,,,,,,,,,masks/mask_002.jpg,,,,,,,,,,,,,,,,,,,,,,,,,,,,,,,,,,,,,,,,,,,,,,,,0,4,4,1,1,,,,,,,,,,,,,,,,,,,,,,,,,,,,,,,,,,,,,,,,,
538182,001,2022-11-21_01h05.03.584,Info_measure_main_exp,2022.2.2,Win32,74.92881762,,,,,,,,,,,,,,,,,,,,,,,,,,,,,,6,1.7473,1,,,,,,,,,,,,0,131,5,5,2154,2214,absent_patch/patch0002154.jpg,absent_patch/patch0002214.jpg,,,,,,,,,,,,,,,,,,,,0.097222222,0.056481481,1,0,0,response1disk,7,0.013888889,0.00462963,1,0,0,center_square,0,6,6,67,1,,,,,,,,,,,,,,,,,,,,,,,
538182,001,2022-11-21_01h05.03.584,Info_measure_main_exp,2022.2.2,Win32,74.92881762,,,,,,,,,,,,,,,,,,masks/mask_004.jpg,,,,,,,,,,,,,,,,,,,,,,,,,,,,,,,,,,,,,,,,,,,0,0,0,3,1,,,,,,,,,,,,,,,,,,,,,,,,,,,,,,,,,,,,,,,,,,,,,,
538182,001,2022-11-21_01h05.03.584,Info_measure_main_exp,2022.2.2,Win32,74.92881762,,,,,,,,,,,,,,,,,,masks/mask_002.jpg,,,,,,,,,,,,,,,,,,,,,,,,,,,,,,,,,,,,,,,,,,,0,1,1,1,1,,,,,,,,,,,,,,,,,,,,,,,,,,,,,,,,,,,,,,,,,,,,,,
538182,001,2022-11-21_01h05.03.584,Info_measure_main_exp,2022.2.2,Win32,74.92881762,,,,,,,,,,,,,,,,,,masks/mask_001.jpg,,,,,,,,,,,,,,,,,,,,,,,,,,,,,,,,,,,,,,,,,,,0,2,2,0,1,,,,,,,,,,,,,,,,,,,,,,,,,,,,,,,,,,,,,,,,,,,,,,
538182,001,2022-11-21_01h05.03.584,Info_measure_main_exp,2022.2.2,Win32,74.92881762,,,,,,,,,,,,,,,,,,masks/mask_003.jpg,,,,,,,,,,,,,,,,,,,,,,,,,,,,,,,,,,,,,,,,,,,0,3,3,2,1,,,,,,,,,,,,,,,,,,,,,,,,,,,,,,,,,,,,,,,,,,,,,,
538182,001,2022-11-21_01h05.03.584,Info_measure_main_exp,2022.2.2,Win32,74.92881762,,,,,,,,,,,,,,,,,,masks/mask_005.jpg,,,,,,,,,,,,,,,,,,,,,,,,,,,,,,,,,,,,,,,,,,,0,4,4,4,1,,,,,,,,,,,,,,,,,,,,,,,,,,,,,,,,,,,,,,,,,,,,,,
538182,001,2022-11-21_01h05.03.584,Info_measure_main_exp,2022.2.2,Win32,74.92881762,,,,,,,,,,,,,,,,,,masks/mask_001.jpg,,,,,,,,,,,,,,,,,,,,,,,,,,,,,,,,,,,,,,,,,,,,,,,,0,0,0,0,1,,,,,,,,,,,,,,,,,,,,,,,,,,,,,,,,,,,,,,,,,
538182,001,2022-11-21_01h05.03.584,Info_measure_main_exp,2022.2.2,Win32,74.92881762,,,,,,,,,,,,,,,,,,masks/mask_004.jpg,,,,,,,,,,,,,,,,,,,,,,,,,,,,,,,,,,,,,,,,,,,,,,,,0,1,1,3,1,,,,,,,,,,,,,,,,,,,,,,,,,,,,,,,,,,,,,,,,,
538182,001,2022-11-21_01h05.03.584,Info_measure_main_exp,2022.2.2,Win32,74.92881762,,,,,,,,,,,,,,,,,,masks/mask_005.jpg,,,,,,,,,,,,,,,,,,,,,,,,,,,,,,,,,,,,,,,,,,,,,,,,0,2,2,4,1,,,,,,,,,,,,,,,,,,,,,,,,,,,,,,,,,,,,,,,,,
538182,001,2022-11-21_01h05.03.584,Info_measure_main_exp,2022.2.2,Win32,74.92881762,,,,,,,,,,,,,,,,,,masks/mask_003.jpg,,,,,,,,,,,,,,,,,,,,,,,,,,,,,,,,,,,,,,,,,,,,,,,,0,3,3,2,1,,,,,,,,,,,,,,,,,,,,,,,,,,,,,,,,,,,,,,,,,
538182,001,2022-11-21_01h05.03.584,Info_measure_main_exp,2022.2.2,Win32,74.92881762,,,,,,,,,,,,,,,,,,masks/mask_002.jpg,,,,,,,,,,,,,,,,,,,,,,,,,,,,,,,,,,,,,,,,,,,,,,,,0,4,4,1,1,,,,,,,,,,,,,,,,,,,,,,,,,,,,,,,,,,,,,,,,,
538182,001,2022-11-21_01h05.03.584,Info_measure_main_exp,2022.2.2,Win32,74.92881762,,,,,,,,,,,,,,,,,,,,,,,,,,,,,,7,3.908,1,,,,,,,,,,,,1,131,5,5,1,1974,present_patch/cong_131_5_a.jpg,absent_patch/patch0001974.jpg,,,,,,,,,,,,,,,,,,,,0.04537037,0.084259259,1,0,0,response1disk,8,-0.010185185,0.003703704,1,0,0,center_square,0,7,7,69,1,,,,,,,,,,,,,,,,,,,,,,,
538182,001,2022-11-21_01h05.03.584,Info_measure_main_exp,2022.2.2,Win32,74.92881762,,,,,,,,,,,,,,,,,,masks/mask_003.jpg,,,,,,,,,,,,,,,,,,,,,,,,,,,,,,,,,,,,,,,,,,,0,0,0,2,1,,,,,,,,,,,,,,,,,,,,,,,,,,,,,,,,,,,,,,,,,,,,,,
538182,001,2022-11-21_01h05.03.584,Info_measure_main_exp,2022.2.2,Win32,74.92881762,,,,,,,,,,,,,,,,,,masks/mask_004.jpg,,,,,,,,,,,,,,,,,,,,,,,,,,,,,,,,,,,,,,,,,,,0,1,1,3,1,,,,,,,,,,,,,,,,,,,,,,,,,,,,,,,,,,,,,,,,,,,,,,
538182,001,2022-11-21_01h05.03.584,Info_measure_main_exp,2022.2.2,Win32,74.92881762,,,,,,,,,,,,,,,,,,masks/mask_005.jpg,,,,,,,,,,,,,,,,,,,,,,,,,,,,,,,,,,,,,,,,,,,0,2,2,4,1,,,,,,,,,,,,,,,,,,,,,,,,,,,,,,,,,,,,,,,,,,,,,,
538182,001,2022-11-21_01h05.03.584,Info_measure_main_exp,2022.2.2,Win32,74.92881762,,,,,,,,,,,,,,,,,,masks/mask_001.jpg,,,,,,,,,,,,,,,,,,,,,,,,,,,,,,,,,,,,,,,,,,,0,3,3,0,1,,,,,,,,,,,,,,,,,,,,,,,,,,,,,,,,,,,,,,,,,,,,,,
538182,001,2022-11-21_01h05.03.584,Info_measure_main_exp,2022.2.2,Win32,74.92881762,,,,,,,,,,,,,,,,,,masks/mask_002.jpg,,,,,,,,,,,,,,,,,,,,,,,,,,,,,,,,,,,,,,,,,,,0,4,4,1,1,,,,,,,,,,,,,,,,,,,,,,,,,,,,,,,,,,,,,,,,,,,,,,
538182,001,2022-11-21_01h05.03.584,Info_measure_main_exp,2022.2.2,Win32,74.92881762,,,,,,,,,,,,,,,,,,masks/mask_002.jpg,,,,,,,,,,,,,,,,,,,,,,,,,,,,,,,,,,,,,,,,,,,,,,,,0,0,0,1,1,,,,,,,,,,,,,,,,,,,,,,,,,,,,,,,,,,,,,,,,,
538182,001,2022-11-21_01h05.03.584,Info_measure_main_exp,2022.2.2,Win32,74.92881762,,,,,,,,,,,,,,,,,,masks/mask_005.jpg,,,,,,,,,,,,,,,,,,,,,,,,,,,,,,,,,,,,,,,,,,,,,,,,0,1,1,4,1,,,,,,,,,,,,,,,,,,,,,,,,,,,,,,,,,,,,,,,,,
538182,001,2022-11-21_01h05.03.584,Info_measure_main_exp,2022.2.2,Win32,74.92881762,,,,,,,,,,,,,,,,,,masks/mask_003.jpg,,,,,,,,,,,,,,,,,,,,,,,,,,,,,,,,,,,,,,,,,,,,,,,,0,2,2,2,1,,,,,,,,,,,,,,,,,,,,,,,,,,,,,,,,,,,,,,,,,
538182,001,2022-11-21_01h05.03.584,Info_measure_main_exp,2022.2.2,Win32,74.92881762,,,,,,,,,,,,,,,,,,masks/mask_001.jpg,,,,,,,,,,,,,,,,,,,,,,,,,,,,,,,,,,,,,,,,,,,,,,,,0,3,3,0,1,,,,,,,,,,,,,,,,,,,,,,,,,,,,,,,,,,,,,,,,,
538182,001,2022-11-21_01h05.03.584,Info_measure_main_exp,2022.2.2,Win32,74.92881762,,,,,,,,,,,,,,,,,,masks/mask_004.jpg,,,,,,,,,,,,,,,,,,,,,,,,,,,,,,,,,,,,,,,,,,,,,,,,0,4,4,3,1,,,,,,,,,,,,,,,,,,,,,,,,,,,,,,,,,,,,,,,,,
538182,001,2022-11-21_01h05.03.584,Info_measure_main_exp,2022.2.2,Win32,74.92881762,,,,,,,,,,,,,,,,,,,,,,,,,,,,,,3,2.4675,1,,,,,,,,,,,,1,131,5,5,1,1986,present_patch/cong_131_5_a.jpg,absent_patch/patch0001986.jpg,,,,,,,,,,,,,,,,,,,,-0.059259259,-0.125925926,1,0,0,response5disk,9,-0.006481481,-0.000925926,1,0,0,center_square,0,8,8,106,1,,,,,,,,,,,,,,,,,,,,,,,
538182,001,2022-11-21_01h05.03.584,Info_measure_main_exp,2022.2.2,Win32,74.92881762,,,,,,,,,,,,,,,,,,masks/mask_002.jpg,,,,,,,,,,,,,,,,,,,,,,,,,,,,,,,,,,,,,,,,,,,0,0,0,1,1,,,,,,,,,,,,,,,,,,,,,,,,,,,,,,,,,,,,,,,,,,,,,,
538182,001,2022-11-21_01h05.03.584,Info_measure_main_exp,2022.2.2,Win32,74.92881762,,,,,,,,,,,,,,,,,,masks/mask_005.jpg,,,,,,,,,,,,,,,,,,,,,,,,,,,,,,,,,,,,,,,,,,,0,1,1,4,1,,,,,,,,,,,,,,,,,,,,,,,,,,,,,,,,,,,,,,,,,,,,,,
538182,001,2022-11-21_01h05.03.584,Info_measure_main_exp,2022.2.2,Win32,74.92881762,,,,,,,,,,,,,,,,,,masks/mask_004.jpg,,,,,,,,,,,,,,,,,,,,,,,,,,,,,,,,,,,,,,,,,,,0,2,2,3,1,,,,,,,,,,,,,,,,,,,,,,,,,,,,,,,,,,,,,,,,,,,,,,
538182,001,2022-11-21_01h05.03.584,Info_measure_main_exp,2022.2.2,Win32,74.92881762,,,,,,,,,,,,,,,,,,masks/mask_003.jpg,,,,,,,,,,,,,,,,,,,,,,,,,,,,,,,,,,,,,,,,,,,0,3,3,2,1,,,,,,,,,,,,,,,,,,,,,,,,,,,,,,,,,,,,,,,,,,,,,,
538182,001,2022-11-21_01h05.03.584,Info_measure_main_exp,2022.2.2,Win32,74.92881762,,,,,,,,,,,,,,,,,,masks/mask_001.jpg,,,,,,,,,,,,,,,,,,,,,,,,,,,,,,,,,,,,,,,,,,,0,4,4,0,1,,,,,,,,,,,,,,,,,,,,,,,,,,,,,,,,,,,,,,,,,,,,,,
538182,001,2022-11-21_01h05.03.584,Info_measure_main_exp,2022.2.2,Win32,74.92881762,,,,,,,,,,,,,,,,,,masks/mask_003.jpg,,,,,,,,,,,,,,,,,,,,,,,,,,,,,,,,,,,,,,,,,,,,,,,,0,0,0,2,1,,,,,,,,,,,,,,,,,,,,,,,,,,,,,,,,,,,,,,,,,
538182,001,2022-11-21_01h05.03.584,Info_measure_main_exp,2022.2.2,Win32,74.92881762,,,,,,,,,,,,,,,,,,masks/mask_002.jpg,,,,,,,,,,,,,,,,,,,,,,,,,,,,,,,,,,,,,,,,,,,,,,,,0,1,1,1,1,,,,,,,,,,,,,,,,,,,,,,,,,,,,,,,,,,,,,,,,,
538182,001,2022-11-21_01h05.03.584,Info_measure_main_exp,2022.2.2,Win32,74.92881762,,,,,,,,,,,,,,,,,,masks/mask_001.jpg,,,,,,,,,,,,,,,,,,,,,,,,,,,,,,,,,,,,,,,,,,,,,,,,0,2,2,0,1,,,,,,,,,,,,,,,,,,,,,,,,,,,,,,,,,,,,,,,,,
538182,001,2022-11-21_01h05.03.584,Info_measure_main_exp,2022.2.2,Win32,74.92881762,,,,,,,,,,,,,,,,,,masks/mask_004.jpg,,,,,,,,,,,,,,,,,,,,,,,,,,,,,,,,,,,,,,,,,,,,,,,,0,3,3,3,1,,,,,,,,,,,,,,,,,,,,,,,,,,,,,,,,,,,,,,,,,
538182,001,2022-11-21_01h05.03.584,Info_measure_main_exp,2022.2.2,Win32,74.92881762,,,,,,,,,,,,,,,,,,masks/mask_005.jpg,,,,,,,,,,,,,,,,,,,,,,,,,,,,,,,,,,,,,,,,,,,,,,,,0,4,4,4,1,,,,,,,,,,,,,,,,,,,,,,,,,,,,,,,,,,,,,,,,,
538182,001,2022-11-21_01h05.03.584,Info_measure_main_exp,2022.2.2,Win32,74.92881762,,,,,,,,,,,,,,,,,,,,,,,,,,,,,,4,1.3072,1,,,,,,,,,,,,0,131,5,5,2214,2082,absent_patch/patch0002214.jpg,absent_patch/patch0002082.jpg,,,,,,,,,,,,,,,,,,,,0.053703704,-0.130555556,1,0,0,response3disk,10,0.002777778,0.002777778,1,0,0,center_square,0,9,9,103,1,,,,,,,,,,,,,,,,,,,,,,,
538182,001,2022-11-21_01h05.03.584,Info_measure_main_exp,2022.2.2,Win32,74.92881762,,,,,,,,,,,,,,,,,,masks/mask_002.jpg,,,,,,,,,,,,,,,,,,,,,,,,,,,,,,,,,,,,,,,,,,,0,0,0,1,1,,,,,,,,,,,,,,,,,,,,,,,,,,,,,,,,,,,,,,,,,,,,,,
538182,001,2022-11-21_01h05.03.584,Info_measure_main_exp,2022.2.2,Win32,74.92881762,,,,,,,,,,,,,,,,,,masks/mask_003.jpg,,,,,,,,,,,,,,,,,,,,,,,,,,,,,,,,,,,,,,,,,,,0,1,1,2,1,,,,,,,,,,,,,,,,,,,,,,,,,,,,,,,,,,,,,,,,,,,,,,
538182,001,2022-11-21_01h05.03.584,Info_measure_main_exp,2022.2.2,Win32,74.92881762,,,,,,,,,,,,,,,,,,masks/mask_004.jpg,,,,,,,,,,,,,,,,,,,,,,,,,,,,,,,,,,,,,,,,,,,0,2,2,3,1,,,,,,,,,,,,,,,,,,,,,,,,,,,,,,,,,,,,,,,,,,,,,,
538182,001,2022-11-21_01h05.03.584,Info_measure_main_exp,2022.2.2,Win32,74.92881762,,,,,,,,,,,,,,,,,,masks/mask_005.jpg,,,,,,,,,,,,,,,,,,,,,,,,,,,,,,,,,,,,,,,,,,,0,3,3,4,1,,,,,,,,,,,,,,,,,,,,,,,,,,,,,,,,,,,,,,,,,,,,,,
538182,001,2022-11-21_01h05.03.584,Info_measure_main_exp,2022.2.2,Win32,74.92881762,,,,,,,,,,,,,,,,,,masks/mask_001.jpg,,,,,,,,,,,,,,,,,,,,,,,,,,,,,,,,,,,,,,,,,,,0,4,4,0,1,,,,,,,,,,,,,,,,,,,,,,,,,,,,,,,,,,,,,,,,,,,,,,
538182,001,2022-11-21_01h05.03.584,Info_measure_main_exp,2022.2.2,Win32,74.92881762,,,,,,,,,,,,,,,,,,masks/mask_003.jpg,,,,,,,,,,,,,,,,,,,,,,,,,,,,,,,,,,,,,,,,,,,,,,,,0,0,0,2,1,,,,,,,,,,,,,,,,,,,,,,,,,,,,,,,,,,,,,,,,,
538182,001,2022-11-21_01h05.03.584,Info_measure_main_exp,2022.2.2,Win32,74.92881762,,,,,,,,,,,,,,,,,,masks/mask_004.jpg,,,,,,,,,,,,,,,,,,,,,,,,,,,,,,,,,,,,,,,,,,,,,,,,0,1,1,3,1,,,,,,,,,,,,,,,,,,,,,,,,,,,,,,,,,,,,,,,,,
538182,001,2022-11-21_01h05.03.584,Info_measure_main_exp,2022.2.2,Win32,74.92881762,,,,,,,,,,,,,,,,,,masks/mask_005.jpg,,,,,,,,,,,,,,,,,,,,,,,,,,,,,,,,,,,,,,,,,,,,,,,,0,2,2,4,1,,,,,,,,,,,,,,,,,,,,,,,,,,,,,,,,,,,,,,,,,
538182,001,2022-11-21_01h05.03.584,Info_measure_main_exp,2022.2.2,Win32,74.92881762,,,,,,,,,,,,,,,,,,masks/mask_002.jpg,,,,,,,,,,,,,,,,,,,,,,,,,,,,,,,,,,,,,,,,,,,,,,,,0,3,3,1,1,,,,,,,,,,,,,,,,,,,,,,,,,,,,,,,,,,,,,,,,,
538182,001,2022-11-21_01h05.03.584,Info_measure_main_exp,2022.2.2,Win32,74.92881762,,,,,,,,,,,,,,,,,,masks/mask_001.jpg,,,,,,,,,,,,,,,,,,,,,,,,,,,,,,,,,,,,,,,,,,,,,,,,0,4,4,0,1,,,,,,,,,,,,,,,,,,,,,,,,,,,,,,,,,,,,,,,,,
538182,001,2022-11-21_01h05.03.584,Info_measure_main_exp,2022.2.2,Win32,74.92881762,,,,,,,,,,,,,,,,,,,,,,,,,,,,,,1,1.7072,1,,,,,,,,,,,,0,131,5,5,2298,2142,absent_patch/patch0002298.jpg,absent_patch/patch0002142.jpg,,,,,,,,,,,,,,,,,,,,-0.118518519,0.033333333,1,0,0,response7disk,11,-0.007407407,0.002777778,1,0,0,center_square,0,10,10,49,1,,,,,,,,,,,,,,,,,,,,,,,
538182,001,2022-11-21_01h05.03.584,Info_measure_main_exp,2022.2.2,Win32,74.92881762,,,,,,,,,,,,,,,,,,masks/mask_004.jpg,,,,,,,,,,,,,,,,,,,,,,,,,,,,,,,,,,,,,,,,,,,0,0,0,3,1,,,,,,,,,,,,,,,,,,,,,,,,,,,,,,,,,,,,,,,,,,,,,,
538182,001,2022-11-21_01h05.03.584,Info_measure_main_exp,2022.2.2,Win32,74.92881762,,,,,,,,,,,,,,,,,,masks/mask_002.jpg,,,,,,,,,,,,,,,,,,,,,,,,,,,,,,,,,,,,,,,,,,,0,1,1,1,1,,,,,,,,,,,,,,,,,,,,,,,,,,,,,,,,,,,,,,,,,,,,,,
538182,001,2022-11-21_01h05.03.584,Info_measure_main_exp,2022.2.2,Win32,74.92881762,,,,,,,,,,,,,,,,,,masks/mask_003.jpg,,,,,,,,,,,,,,,,,,,,,,,,,,,,,,,,,,,,,,,,,,,0,2,2,2,1,,,,,,,,,,,,,,,,,,,,,,,,,,,,,,,,,,,,,,,,,,,,,,
538182,001,2022-11-21_01h05.03.584,Info_measure_main_exp,2022.2.2,Win32,74.92881762,,,,,,,,,,,,,,,,,,masks/mask_005.jpg,,,,,,,,,,,,,,,,,,,,,,,,,,,,,,,,,,,,,,,,,,,0,3,3,4,1,,,,,,,,,,,,,,,,,,,,,,,,,,,,,,,,,,,,,,,,,,,,,,
538182,001,2022-11-21_01h05.03.584,Info_measure_main_exp,2022.2.2,Win32,74.92881762,,,,,,,,,,,,,,,,,,masks/mask_001.jpg,,,,,,,,,,,,,,,,,,,,,,,,,,,,,,,,,,,,,,,,,,,0,4,4,0,1,,,,,,,,,,,,,,,,,,,,,,,,,,,,,,,,,,,,,,,,,,,,,,
538182,001,2022-11-21_01h05.03.584,Info_measure_main_exp,2022.2.2,Win32,74.92881762,,,,,,,,,,,,,,,,,,masks/mask_004.jpg,,,,,,,,,,,,,,,,,,,,,,,,,,,,,,,,,,,,,,,,,,,,,,,,0,0,0,3,1,,,,,,,,,,,,,,,,,,,,,,,,,,,,,,,,,,,,,,,,,
538182,001,2022-11-21_01h05.03.584,Info_measure_main_exp,2022.2.2,Win32,74.92881762,,,,,,,,,,,,,,,,,,masks/mask_002.jpg,,,,,,,,,,,,,,,,,,,,,,,,,,,,,,,,,,,,,,,,,,,,,,,,0,1,1,1,1,,,,,,,,,,,,,,,,,,,,,,,,,,,,,,,,,,,,,,,,,
538182,001,2022-11-21_01h05.03.584,Info_measure_main_exp,2022.2.2,Win32,74.92881762,,,,,,,,,,,,,,,,,,masks/mask_001.jpg,,,,,,,,,,,,,,,,,,,,,,,,,,,,,,,,,,,,,,,,,,,,,,,,0,2,2,0,1,,,,,,,,,,,,,,,,,,,,,,,,,,,,,,,,,,,,,,,,,
538182,001,2022-11-21_01h05.03.584,Info_measure_main_exp,2022.2.2,Win32,74.92881762,,,,,,,,,,,,,,,,,,masks/mask_005.jpg,,,,,,,,,,,,,,,,,,,,,,,,,,,,,,,,,,,,,,,,,,,,,,,,0,3,3,4,1,,,,,,,,,,,,,,,,,,,,,,,,,,,,,,,,,,,,,,,,,
538182,001,2022-11-21_01h05.03.584,Info_measure_main_exp,2022.2.2,Win32,74.92881762,,,,,,,,,,,,,,,,,,masks/mask_003.jpg,,,,,,,,,,,,,,,,,,,,,,,,,,,,,,,,,,,,,,,,,,,,,,,,0,4,4,2,1,,,,,,,,,,,,,,,,,,,,,,,,,,,,,,,,,,,,,,,,,
538182,001,2022-11-21_01h05.03.584,Info_measure_main_exp,2022.2.2,Win32,74.92881762,,,,,,,,,,,,,,,,,,,,,,,,,,,,,,4,2.4009,1,,,,,,,,,,,,0,131,5,5,2274,2238,absent_patch/patch0002274.jpg,absent_patch/patch0002238.jpg,,,,,,,,,,,,,,,,,,,,0.084259259,-0.181481481,1,0,0,response3disk,12,0.00462963,0.000925926,1,0,0,center_square,0,11,11,91,1,,,,,,,,,,,,,,,,,,,,,,,
538182,001,2022-11-21_01h05.03.584,Info_measure_main_exp,2022.2.2,Win32,74.92881762,,,,,,,,,,,,,,,,,,masks/mask_001.jpg,,,,,,,,,,,,,,,,,,,,,,,,,,,,,,,,,,,,,,,,,,,0,0,0,0,1,,,,,,,,,,,,,,,,,,,,,,,,,,,,,,,,,,,,,,,,,,,,,,
538182,001,2022-11-21_01h05.03.584,Info_measure_main_exp,2022.2.2,Win32,74.92881762,,,,,,,,,,,,,,,,,,masks/mask_002.jpg,,,,,,,,,,,,,,,,,,,,,,,,,,,,,,,,,,,,,,,,,,,0,1,1,1,1,,,,,,,,,,,,,,,,,,,,,,,,,,,,,,,,,,,,,,,,,,,,,,
538182,001,2022-11-21_01h05.03.584,Info_measure_main_exp,2022.2.2,Win32,74.92881762,,,,,,,,,,,,,,,,,,masks/mask_005.jpg,,,,,,,,,,,,,,,,,,,,,,,,,,,,,,,,,,,,,,,,,,,0,2,2,4,1,,,,,,,,,,,,,,,,,,,,,,,,,,,,,,,,,,,,,,,,,,,,,,
538182,001,2022-11-21_01h05.03.584,Info_measure_main_exp,2022.2.2,Win32,74.92881762,,,,,,,,,,,,,,,,,,masks/mask_003.jpg,,,,,,,,,,,,,,,,,,,,,,,,,,,,,,,,,,,,,,,,,,,0,3,3,2,1,,,,,,,,,,,,,,,,,,,,,,,,,,,,,,,,,,,,,,,,,,,,,,
538182,001,2022-11-21_01h05.03.584,Info_measure_main_exp,2022.2.2,Win32,74.92881762,,,,,,,,,,,,,,,,,,masks/mask_004.jpg,,,,,,,,,,,,,,,,,,,,,,,,,,,,,,,,,,,,,,,,,,,0,4,4,3,1,,,,,,,,,,,,,,,,,,,,,,,,,,,,,,,,,,,,,,,,,,,,,,
538182,001,2022-11-21_01h05.03.584,Info_measure_main_exp,2022.2.2,Win32,74.92881762,,,,,,,,,,,,,,,,,,masks/mask_004.jpg,,,,,,,,,,,,,,,,,,,,,,,,,,,,,,,,,,,,,,,,,,,,,,,,0,0,0,3,1,,,,,,,,,,,,,,,,,,,,,,,,,,,,,,,,,,,,,,,,,
538182,001,2022-11-21_01h05.03.584,Info_measure_main_exp,2022.2.2,Win32,74.92881762,,,,,,,,,,,,,,,,,,masks/mask_005.jpg,,,,,,,,,,,,,,,,,,,,,,,,,,,,,,,,,,,,,,,,,,,,,,,,0,1,1,4,1,,,,,,,,,,,,,,,,,,,,,,,,,,,,,,,,,,,,,,,,,
538182,001,2022-11-21_01h05.03.584,Info_measure_main_exp,2022.2.2,Win32,74.92881762,,,,,,,,,,,,,,,,,,masks/mask_003.jpg,,,,,,,,,,,,,,,,,,,,,,,,,,,,,,,,,,,,,,,,,,,,,,,,0,2,2,2,1,,,,,,,,,,,,,,,,,,,,,,,,,,,,,,,,,,,,,,,,,
538182,001,2022-11-21_01h05.03.584,Info_measure_main_exp,2022.2.2,Win32,74.92881762,,,,,,,,,,,,,,,,,,masks/mask_002.jpg,,,,,,,,,,,,,,,,,,,,,,,,,,,,,,,,,,,,,,,,,,,,,,,,0,3,3,1,1,,,,,,,,,,,,,,,,,,,,,,,,,,,,,,,,,,,,,,,,,
538182,001,2022-11-21_01h05.03.584,Info_measure_main_exp,2022.2.2,Win32,74.92881762,,,,,,,,,,,,,,,,,,masks/mask_001.jpg,,,,,,,,,,,,,,,,,,,,,,,,,,,,,,,,,,,,,,,,,,,,,,,,0,4,4,0,1,,,,,,,,,,,,,,,,,,,,,,,,,,,,,,,,,,,,,,,,,
538182,001,2022-11-21_01h05.03.584,Info_measure_main_exp,2022.2.2,Win32,74.92881762,,,,,,,,,,,,,,,,,,,,,,,,,,,,,,5,1.3339,1,,,,,,,,,,,,0,131,5,5,2190,1950,absent_patch/patch0002190.jpg,absent_patch/patch0001950.jpg,,,,,,,,,,,,,,,,,,,,0.103703704,-0.02037037,1,0,0,response3disk,13,0.005555556,-0.002777778,1,0,0,center_square,0,12,12,73,1,,,,,,,,,,,,,,,,,,,,,,,
538182,001,2022-11-21_01h05.03.584,Info_measure_main_exp,2022.2.2,Win32,74.92881762,,,,,,,,,,,,,,,,,,masks/mask_003.jpg,,,,,,,,,,,,,,,,,,,,,,,,,,,,,,,,,,,,,,,,,,,0,0,0,2,1,,,,,,,,,,,,,,,,,,,,,,,,,,,,,,,,,,,,,,,,,,,,,,
538182,001,2022-11-21_01h05.03.584,Info_measure_main_exp,2022.2.2,Win32,74.92881762,,,,,,,,,,,,,,,,,,masks/mask_004.jpg,,,,,,,,,,,,,,,,,,,,,,,,,,,,,,,,,,,,,,,,,,,0,1,1,3,1,,,,,,,,,,,,,,,,,,,,,,,,,,,,,,,,,,,,,,,,,,,,,,
538182,001,2022-11-21_01h05.03.584,Info_measure_main_exp,2022.2.2,Win32,74.92881762,,,,,,,,,,,,,,,,,,masks/mask_001.jpg,,,,,,,,,,,,,,,,,,,,,,,,,,,,,,,,,,,,,,,,,,,0,2,2,0,1,,,,,,,,,,,,,,,,,,,,,,,,,,,,,,,,,,,,,,,,,,,,,,
538182,001,2022-11-21_01h05.03.584,Info_measure_main_exp,2022.2.2,Win32,74.92881762,,,,,,,,,,,,,,,,,,masks/mask_005.jpg,,,,,,,,,,,,,,,,,,,,,,,,,,,,,,,,,,,,,,,,,,,0,3,3,4,1,,,,,,,,,,,,,,,,,,,,,,,,,,,,,,,,,,,,,,,,,,,,,,
538182,001,2022-11-21_01h05.03.584,Info_measure_main_exp,2022.2.2,Win32,74.92881762,,,,,,,,,,,,,,,,,,masks/mask_002.jpg,,,,,,,,,,,,,,,,,,,,,,,,,,,,,,,,,,,,,,,,,,,0,4,4,1,1,,,,,,,,,,,,,,,,,,,,,,,,,,,,,,,,,,,,,,,,,,,,,,
538182,001,2022-11-21_01h05.03.584,Info_measure_main_exp,2022.2.2,Win32,74.92881762,,,,,,,,,,,,,,,,,,masks/mask_004.jpg,,,,,,,,,,,,,,,,,,,,,,,,,,,,,,,,,,,,,,,,,,,,,,,,0,0,0,3,1,,,,,,,,,,,,,,,,,,,,,,,,,,,,,,,,,,,,,,,,,
538182,001,2022-11-21_01h05.03.584,Info_measure_main_exp,2022.2.2,Win32,74.92881762,,,,,,,,,,,,,,,,,,masks/mask_005.jpg,,,,,,,,,,,,,,,,,,,,,,,,,,,,,,,,,,,,,,,,,,,,,,,,0,1,1,4,1,,,,,,,,,,,,,,,,,,,,,,,,,,,,,,,,,,,,,,,,,
538182,001,2022-11-21_01h05.03.584,Info_measure_main_exp,2022.2.2,Win32,74.92881762,,,,,,,,,,,,,,,,,,masks/mask_003.jpg,,,,,,,,,,,,,,,,,,,,,,,,,,,,,,,,,,,,,,,,,,,,,,,,0,2,2,2,1,,,,,,,,,,,,,,,,,,,,,,,,,,,,,,,,,,,,,,,,,
538182,001,2022-11-21_01h05.03.584,Info_measure_main_exp,2022.2.2,Win32,74.92881762,,,,,,,,,,,,,,,,,,masks/mask_001.jpg,,,,,,,,,,,,,,,,,,,,,,,,,,,,,,,,,,,,,,,,,,,,,,,,0,3,3,0,1,,,,,,,,,,,,,,,,,,,,,,,,,,,,,,,,,,,,,,,,,
538182,001,2022-11-21_01h05.03.584,Info_measure_main_exp,2022.2.2,Win32,74.92881762,,,,,,,,,,,,,,,,,,masks/mask_002.jpg,,,,,,,,,,,,,,,,,,,,,,,,,,,,,,,,,,,,,,,,,,,,,,,,0,4,4,1,1,,,,,,,,,,,,,,,,,,,,,,,,,,,,,,,,,,,,,,,,,
538182,001,2022-11-21_01h05.03.584,Info_measure_main_exp,2022.2.2,Win32,74.92881762,,,,,,,,,,,,,,,,,,,,,,,,,,,,,,0,2.4276,1,,,,,,,,,,,,0,131,5,5,2250,2250,absent_patch/patch0002250.jpg,absent_patch/patch0002250.jpg,,,,,,,,,,,,,,,,,,,,-0.062037037,0.15,1,0,0,response7disk,14,-0.00462963,0.005555556,1,0,0,center_square,0,13,13,56,1,,,,,,,,,,,,,,,,,,,,,,,
538182,001,2022-11-21_01h05.03.584,Info_measure_main_exp,2022.2.2,Win32,74.92881762,,,,,,,,,,,,,,,,,,masks/mask_001.jpg,,,,,,,,,,,,,,,,,,,,,,,,,,,,,,,,,,,,,,,,,,,0,0,0,0,1,,,,,,,,,,,,,,,,,,,,,,,,,,,,,,,,,,,,,,,,,,,,,,
538182,001,2022-11-21_01h05.03.584,Info_measure_main_exp,2022.2.2,Win32,74.92881762,,,,,,,,,,,,,,,,,,masks/mask_003.jpg,,,,,,,,,,,,,,,,,,,,,,,,,,,,,,,,,,,,,,,,,,,0,1,1,2,1,,,,,,,,,,,,,,,,,,,,,,,,,,,,,,,,,,,,,,,,,,,,,,
538182,001,2022-11-21_01h05.03.584,Info_measure_main_exp,2022.2.2,Win32,74.92881762,,,,,,,,,,,,,,,,,,masks/mask_005.jpg,,,,,,,,,,,,,,,,,,,,,,,,,,,,,,,,,,,,,,,,,,,0,2,2,4,1,,,,,,,,,,,,,,,,,,,,,,,,,,,,,,,,,,,,,,,,,,,,,,
538182,001,2022-11-21_01h05.03.584,Info_measure_main_exp,2022.2.2,Win32,74.92881762,,,,,,,,,,,,,,,,,,masks/mask_002.jpg,,,,,,,,,,,,,,,,,,,,,,,,,,,,,,,,,,,,,,,,,,,0,3,3,1,1,,,,,,,,,,,,,,,,,,,,,,,,,,,,,,,,,,,,,,,,,,,,,,
538182,001,2022-11-21_01h05.03.584,Info_measure_main_exp,2022.2.2,Win32,74.92881762,,,,,,,,,,,,,,,,,,masks/mask_004.jpg,,,,,,,,,,,,,,,,,,,,,,,,,,,,,,,,,,,,,,,,,,,0,4,4,3,1,,,,,,,,,,,,,,,,,,,,,,,,,,,,,,,,,,,,,,,,,,,,,,
538182,001,2022-11-21_01h05.03.584,Info_measure_main_exp,2022.2.2,Win32,74.92881762,,,,,,,,,,,,,,,,,,masks/mask_004.jpg,,,,,,,,,,,,,,,,,,,,,,,,,,,,,,,,,,,,,,,,,,,,,,,,0,0,0,3,1,,,,,,,,,,,,,,,,,,,,,,,,,,,,,,,,,,,,,,,,,
538182,001,2022-11-21_01h05.03.584,Info_measure_main_exp,2022.2.2,Win32,74.92881762,,,,,,,,,,,,,,,,,,masks/mask_003.jpg,,,,,,,,,,,,,,,,,,,,,,,,,,,,,,,,,,,,,,,,,,,,,,,,0,1,1,2,1,,,,,,,,,,,,,,,,,,,,,,,,,,,,,,,,,,,,,,,,,
538182,001,2022-11-21_01h05.03.584,Info_measure_main_exp,2022.2.2,Win32,74.92881762,,,,,,,,,,,,,,,,,,masks/mask_005.jpg,,,,,,,,,,,,,,,,,,,,,,,,,,,,,,,,,,,,,,,,,,,,,,,,0,2,2,4,1,,,,,,,,,,,,,,,,,,,,,,,,,,,,,,,,,,,,,,,,,
538182,001,2022-11-21_01h05.03.584,Info_measure_main_exp,2022.2.2,Win32,74.92881762,,,,,,,,,,,,,,,,,,masks/mask_001.jpg,,,,,,,,,,,,,,,,,,,,,,,,,,,,,,,,,,,,,,,,,,,,,,,,0,3,3,0,1,,,,,,,,,,,,,,,,,,,,,,,,,,,,,,,,,,,,,,,,,
538182,001,2022-11-21_01h05.03.584,Info_measure_main_exp,2022.2.2,Win32,74.92881762,,,,,,,,,,,,,,,,,,masks/mask_002.jpg,,,,,,,,,,,,,,,,,,,,,,,,,,,,,,,,,,,,,,,,,,,,,,,,0,4,4,1,1,,,,,,,,,,,,,,,,,,,,,,,,,,,,,,,,,,,,,,,,,
538182,001,2022-11-21_01h05.03.584,Info_measure_main_exp,2022.2.2,Win32,74.92881762,,,,,,,,,,,,,,,,,,,,,,,,,,,,,,0,0.4403,1,,,,,,,,,,,,1,131,5,5,1,1,present_patch/cong_131_5_a.jpg,present_patch/cong_131_5_a.jpg,,,,,,,,,,,,,,,,,,,,-0.043518519,0.126851852,1,0,0,response7disk,15,-0.000925926,-0.000925926,1,0,0,center_square,0,14,14,30,1,,,,,,,,,,,,,,,,,,,,,,,
538182,001,2022-11-21_01h05.03.584,Info_measure_main_exp,2022.2.2,Win32,74.92881762,,,,,,,,,,,,,,,,,,masks/mask_002.jpg,,,,,,,,,,,,,,,,,,,,,,,,,,,,,,,,,,,,,,,,,,,0,0,0,1,1,,,,,,,,,,,,,,,,,,,,,,,,,,,,,,,,,,,,,,,,,,,,,,
538182,001,2022-11-21_01h05.03.584,Info_measure_main_exp,2022.2.2,Win32,74.92881762,,,,,,,,,,,,,,,,,,masks/mask_005.jpg,,,,,,,,,,,,,,,,,,,,,,,,,,,,,,,,,,,,,,,,,,,0,1,1,4,1,,,,,,,,,,,,,,,,,,,,,,,,,,,,,,,,,,,,,,,,,,,,,,
538182,001,2022-11-21_01h05.03.584,Info_measure_main_exp,2022.2.2,Win32,74.92881762,,,,,,,,,,,,,,,,,,masks/mask_001.jpg,,,,,,,,,,,,,,,,,,,,,,,,,,,,,,,,,,,,,,,,,,,0,2,2,0,1,,,,,,,,,,,,,,,,,,,,,,,,,,,,,,,,,,,,,,,,,,,,,,
538182,001,2022-11-21_01h05.03.584,Info_measure_main_exp,2022.2.2,Win32,74.92881762,,,,,,,,,,,,,,,,,,masks/mask_003.jpg,,,,,,,,,,,,,,,,,,,,,,,,,,,,,,,,,,,,,,,,,,,0,3,3,2,1,,,,,,,,,,,,,,,,,,,,,,,,,,,,,,,,,,,,,,,,,,,,,,
538182,001,2022-11-21_01h05.03.584,Info_measure_main_exp,2022.2.2,Win32,74.92881762,,,,,,,,,,,,,,,,,,masks/mask_004.jpg,,,,,,,,,,,,,,,,,,,,,,,,,,,,,,,,,,,,,,,,,,,0,4,4,3,1,,,,,,,,,,,,,,,,,,,,,,,,,,,,,,,,,,,,,,,,,,,,,,
538182,001,2022-11-21_01h05.03.584,Info_measure_main_exp,2022.2.2,Win32,74.92881762,,,,,,,,,,,,,,,,,,masks/mask_001.jpg,,,,,,,,,,,,,,,,,,,,,,,,,,,,,,,,,,,,,,,,,,,,,,,,0,0,0,0,1,,,,,,,,,,,,,,,,,,,,,,,,,,,,,,,,,,,,,,,,,
538182,001,2022-11-21_01h05.03.584,Info_measure_main_exp,2022.2.2,Win32,74.92881762,,,,,,,,,,,,,,,,,,masks/mask_005.jpg,,,,,,,,,,,,,,,,,,,,,,,,,,,,,,,,,,,,,,,,,,,,,,,,0,1,1,4,1,,,,,,,,,,,,,,,,,,,,,,,,,,,,,,,,,,,,,,,,,
538182,001,2022-11-21_01h05.03.584,Info_measure_main_exp,2022.2.2,Win32,74.92881762,,,,,,,,,,,,,,,,,,masks/mask_004.jpg,,,,,,,,,,,,,,,,,,,,,,,,,,,,,,,,,,,,,,,,,,,,,,,,0,2,2,3,1,,,,,,,,,,,,,,,,,,,,,,,,,,,,,,,,,,,,,,,,,
538182,001,2022-11-21_01h05.03.584,Info_measure_main_exp,2022.2.2,Win32,74.92881762,,,,,,,,,,,,,,,,,,masks/mask_002.jpg,,,,,,,,,,,,,,,,,,,,,,,,,,,,,,,,,,,,,,,,,,,,,,,,0,3,3,1,1,,,,,,,,,,,,,,,,,,,,,,,,,,,,,,,,,,,,,,,,,
538182,001,2022-11-21_01h05.03.584,Info_measure_main_exp,2022.2.2,Win32,74.92881762,,,,,,,,,,,,,,,,,,masks/mask_003.jpg,,,,,,,,,,,,,,,,,,,,,,,,,,,,,,,,,,,,,,,,,,,,,,,,0,4,4,2,1,,,,,,,,,,,,,,,,,,,,,,,,,,,,,,,,,,,,,,,,,
538182,001,2022-11-21_01h05.03.584,Info_measure_main_exp,2022.2.2,Win32,74.92881762,,,,,,,,,,,,,,,,,,,,,,,,,,,,,,5,4.7884,1,,,,,,,,,,,,0,131,5,5,1986,1950,absent_patch/patch0001986.jpg,absent_patch/patch0001950.jpg,,,,,,,,,,,,,,,,,,,,0.134259259,-0.074074074,1,0,0,response3disk,16,0.008333333,-0.011111111,1,0,0,center_square,0,15,15,15,1,,,,,,,,,,,,,,,,,,,,,,,
538182,001,2022-11-21_01h05.03.584,Info_measure_main_exp,2022.2.2,Win32,74.92881762,,,,,,,,,,,,,,,,,,masks/mask_004.jpg,,,,,,,,,,,,,,,,,,,,,,,,,,,,,,,,,,,,,,,,,,,0,0,0,3,1,,,,,,,,,,,,,,,,,,,,,,,,,,,,,,,,,,,,,,,,,,,,,,
538182,001,2022-11-21_01h05.03.584,Info_measure_main_exp,2022.2.2,Win32,74.92881762,,,,,,,,,,,,,,,,,,masks/mask_003.jpg,,,,,,,,,,,,,,,,,,,,,,,,,,,,,,,,,,,,,,,,,,,0,1,1,2,1,,,,,,,,,,,,,,,,,,,,,,,,,,,,,,,,,,,,,,,,,,,,,,
538182,001,2022-11-21_01h05.03.584,Info_measure_main_exp,2022.2.2,Win32,74.92881762,,,,,,,,,,,,,,,,,,masks/mask_001.jpg,,,,,,,,,,,,,,,,,,,,,,,,,,,,,,,,,,,,,,,,,,,0,2,2,0,1,,,,,,,,,,,,,,,,,,,,,,,,,,,,,,,,,,,,,,,,,,,,,,
538182,001,2022-11-21_01h05.03.584,Info_measure_main_exp,2022.2.2,Win32,74.92881762,,,,,,,,,,,,,,,,,,masks/mask_005.jpg,,,,,,,,,,,,,,,,,,,,,,,,,,,,,,,,,,,,,,,,,,,0,3,3,4,1,,,,,,,,,,,,,,,,,,,,,,,,,,,,,,,,,,,,,,,,,,,,,,
538182,001,2022-11-21_01h05.03.584,Info_measure_main_exp,2022.2.2,Win32,74.92881762,,,,,,,,,,,,,,,,,,masks/mask_002.jpg,,,,,,,,,,,,,,,,,,,,,,,,,,,,,,,,,,,,,,,,,,,0,4,4,1,1,,,,,,,,,,,,,,,,,,,,,,,,,,,,,,,,,,,,,,,,,,,,,,
538182,001,2022-11-21_01h05.03.584,Info_measure_main_exp,2022.2.2,Win32,74.92881762,,,,,,,,,,,,,,,,,,masks/mask_004.jpg,,,,,,,,,,,,,,,,,,,,,,,,,,,,,,,,,,,,,,,,,,,,,,,,0,0,0,3,1,,,,,,,,,,,,,,,,,,,,,,,,,,,,,,,,,,,,,,,,,
538182,001,2022-11-21_01h05.03.584,Info_measure_main_exp,2022.2.2,Win32,74.92881762,,,,,,,,,,,,,,,,,,masks/mask_003.jpg,,,,,,,,,,,,,,,,,,,,,,,,,,,,,,,,,,,,,,,,,,,,,,,,0,1,1,2,1,,,,,,,,,,,,,,,,,,,,,,,,,,,,,,,,,,,,,,,,,
538182,001,2022-11-21_01h05.03.584,Info_measure_main_exp,2022.2.2,Win32,74.92881762,,,,,,,,,,,,,,,,,,masks/mask_005.jpg,,,,,,,,,,,,,,,,,,,,,,,,,,,,,,,,,,,,,,,,,,,,,,,,0,2,2,4,1,,,,,,,,,,,,,,,,,,,,,,,,,,,,,,,,,,,,,,,,,
538182,001,2022-11-21_01h05.03.584,Info_measure_main_exp,2022.2.2,Win32,74.92881762,,,,,,,,,,,,,,,,,,masks/mask_002.jpg,,,,,,,,,,,,,,,,,,,,,,,,,,,,,,,,,,,,,,,,,,,,,,,,0,3,3,1,1,,,,,,,,,,,,,,,,,,,,,,,,,,,,,,,,,,,,,,,,,
538182,001,2022-11-21_01h05.03.584,Info_measure_main_exp,2022.2.2,Win32,74.92881762,,,,,,,,,,,,,,,,,,masks/mask_001.jpg,,,,,,,,,,,,,,,,,,,,,,,,,,,,,,,,,,,,,,,,,,,,,,,,0,4,4,0,1,,,,,,,,,,,,,,,,,,,,,,,,,,,,,,,,,,,,,,,,,
538182,001,2022-11-21_01h05.03.584,Info_measure_main_exp,2022.2.2,Win32,74.92881762,,,,,,,,,,,,,,,,,,,,,,,,,,,,,,5,8.283,1,,,,,,,,,,,,0,131,5,5,2274,2190,absent_patch/patch0002274.jpg,absent_patch/patch0002190.jpg,,,,,,,,,,,,,,,,,,,,0.112962963,-0.050925926,1,0,0,response3disk,17,-0.011111111,0.007407407,1,0,0,center_square,0,16,16,116,1,,,,,,,,,,,,,,,,,,,,,,,
538182,001,2022-11-21_01h05.03.584,Info_measure_main_exp,2022.2.2,Win32,74.92881762,,,,,,,,,,,,,,,,,,masks/mask_002.jpg,,,,,,,,,,,,,,,,,,,,,,,,,,,,,,,,,,,,,,,,,,,0,0,0,1,1,,,,,,,,,,,,,,,,,,,,,,,,,,,,,,,,,,,,,,,,,,,,,,
538182,001,2022-11-21_01h05.03.584,Info_measure_main_exp,2022.2.2,Win32,74.92881762,,,,,,,,,,,,,,,,,,masks/mask_005.jpg,,,,,,,,,,,,,,,,,,,,,,,,,,,,,,,,,,,,,,,,,,,0,1,1,4,1,,,,,,,,,,,,,,,,,,,,,,,,,,,,,,,,,,,,,,,,,,,,,,
538182,001,2022-11-21_01h05.03.584,Info_measure_main_exp,2022.2.2,Win32,74.92881762,,,,,,,,,,,,,,,,,,masks/mask_001.jpg,,,,,,,,,,,,,,,,,,,,,,,,,,,,,,,,,,,,,,,,,,,0,2,2,0,1,,,,,,,,,,,,,,,,,,,,,,,,,,,,,,,,,,,,,,,,,,,,,,
538182,001,2022-11-21_01h05.03.584,Info_measure_main_exp,2022.2.2,Win32,74.92881762,,,,,,,,,,,,,,,,,,masks/mask_003.jpg,,,,,,,,,,,,,,,,,,,,,,,,,,,,,,,,,,,,,,,,,,,0,3,3,2,1,,,,,,,,,,,,,,,,,,,,,,,,,,,,,,,,,,,,,,,,,,,,,,
538182,001,2022-11-21_01h05.03.584,Info_measure_main_exp,2022.2.2,Win32,74.92881762,,,,,,,,,,,,,,,,,,masks/mask_004.jpg,,,,,,,,,,,,,,,,,,,,,,,,,,,,,,,,,,,,,,,,,,,0,4,4,3,1,,,,,,,,,,,,,,,,,,,,,,,,,,,,,,,,,,,,,,,,,,,,,,
538182,001,2022-11-21_01h05.03.584,Info_measure_main_exp,2022.2.2,Win32,74.92881762,,,,,,,,,,,,,,,,,,masks/mask_001.jpg,,,,,,,,,,,,,,,,,,,,,,,,,,,,,,,,,,,,,,,,,,,,,,,,0,0,0,0,1,,,,,,,,,,,,,,,,,,,,,,,,,,,,,,,,,,,,,,,,,
538182,001,2022-11-21_01h05.03.584,Info_measure_main_exp,2022.2.2,Win32,74.92881762,,,,,,,,,,,,,,,,,,masks/mask_005.jpg,,,,,,,,,,,,,,,,,,,,,,,,,,,,,,,,,,,,,,,,,,,,,,,,0,1,1,4,1,,,,,,,,,,,,,,,,,,,,,,,,,,,,,,,,,,,,,,,,,
538182,001,2022-11-21_01h05.03.584,Info_measure_main_exp,2022.2.2,Win32,74.92881762,,,,,,,,,,,,,,,,,,masks/mask_003.jpg,,,,,,,,,,,,,,,,,,,,,,,,,,,,,,,,,,,,,,,,,,,,,,,,0,2,2,2,1,,,,,,,,,,,,,,,,,,,,,,,,,,,,,,,,,,,,,,,,,
538182,001,2022-11-21_01h05.03.584,Info_measure_main_exp,2022.2.2,Win32,74.92881762,,,,,,,,,,,,,,,,,,masks/mask_002.jpg,,,,,,,,,,,,,,,,,,,,,,,,,,,,,,,,,,,,,,,,,,,,,,,,0,3,3,1,1,,,,,,,,,,,,,,,,,,,,,,,,,,,,,,,,,,,,,,,,,
538182,001,2022-11-21_01h05.03.584,Info_measure_main_exp,2022.2.2,Win32,74.92881762,,,,,,,,,,,,,,,,,,masks/mask_004.jpg,,,,,,,,,,,,,,,,,,,,,,,,,,,,,,,,,,,,,,,,,,,,,,,,0,4,4,3,1,,,,,,,,,,,,,,,,,,,,,,,,,,,,,,,,,,,,,,,,,
538182,001,2022-11-21_01h05.03.584,Info_measure_main_exp,2022.2.2,Win32,74.92881762,,,,,,,,,,,,,,,,,,,,,,,,,,,,,,3,1.027,1,,,,,,,,,,,,0,131,5,5,2250,2142,absent_patch/patch0002250.jpg,absent_patch/patch0002142.jpg,,,,,,,,,,,,,,,,,,,,-0.050925926,-0.114814815,1,0,0,response5disk,18,0.008333333,0.001851852,1,0,0,center_square,0,17,17,71,1,,,,,,,,,,,,,,,,,,,,,,,
538182,001,2022-11-21_01h05.03.584,Info_measure_main_exp,2022.2.2,Win32,74.92881762,,,,,,,,,,,,,,,,,,masks/mask_001.jpg,,,,,,,,,,,,,,,,,,,,,,,,,,,,,,,,,,,,,,,,,,,0,0,0,0,1,,,,,,,,,,,,,,,,,,,,,,,,,,,,,,,,,,,,,,,,,,,,,,
538182,001,2022-11-21_01h05.03.584,Info_measure_main_exp,2022.2.2,Win32,74.92881762,,,,,,,,,,,,,,,,,,masks/mask_005.jpg,,,,,,,,,,,,,,,,,,,,,,,,,,,,,,,,,,,,,,,,,,,0,1,1,4,1,,,,,,,,,,,,,,,,,,,,,,,,,,,,,,,,,,,,,,,,,,,,,,
538182,001,2022-11-21_01h05.03.584,Info_measure_main_exp,2022.2.2,Win32,74.92881762,,,,,,,,,,,,,,,,,,masks/mask_002.jpg,,,,,,,,,,,,,,,,,,,,,,,,,,,,,,,,,,,,,,,,,,,0,2,2,1,1,,,,,,,,,,,,,,,,,,,,,,,,,,,,,,,,,,,,,,,,,,,,,,
538182,001,2022-11-21_01h05.03.584,Info_measure_main_exp,2022.2.2,Win32,74.92881762,,,,,,,,,,,,,,,,,,masks/mask_004.jpg,,,,,,,,,,,,,,,,,,,,,,,,,,,,,,,,,,,,,,,,,,,0,3,3,3,1,,,,,,,,,,,,,,,,,,,,,,,,,,,,,,,,,,,,,,,,,,,,,,
538182,001,2022-11-21_01h05.03.584,Info_measure_main_exp,2022.2.2,Win32,74.92881762,,,,,,,,,,,,,,,,,,masks/mask_003.jpg,,,,,,,,,,,,,,,,,,,,,,,,,,,,,,,,,,,,,,,,,,,0,4,4,2,1,,,,,,,,,,,,,,,,,,,,,,,,,,,,,,,,,,,,,,,,,,,,,,
538182,001,2022-11-21_01h05.03.584,Info_measure_main_exp,2022.2.2,Win32,74.92881762,,,,,,,,,,,,,,,,,,masks/mask_005.jpg,,,,,,,,,,,,,,,,,,,,,,,,,,,,,,,,,,,,,,,,,,,,,,,,0,0,0,4,1,,,,,,,,,,,,,,,,,,,,,,,,,,,,,,,,,,,,,,,,,
538182,001,2022-11-21_01h05.03.584,Info_measure_main_exp,2022.2.2,Win32,74.92881762,,,,,,,,,,,,,,,,,,masks/mask_001.jpg,,,,,,,,,,,,,,,,,,,,,,,,,,,,,,,,,,,,,,,,,,,,,,,,0,1,1,0,1,,,,,,,,,,,,,,,,,,,,,,,,,,,,,,,,,,,,,,,,,
538182,001,2022-11-21_01h05.03.584,Info_measure_main_exp,2022.2.2,Win32,74.92881762,,,,,,,,,,,,,,,,,,masks/mask_003.jpg,,,,,,,,,,,,,,,,,,,,,,,,,,,,,,,,,,,,,,,,,,,,,,,,0,2,2,2,1,,,,,,,,,,,,,,,,,,,,,,,,,,,,,,,,,,,,,,,,,
538182,001,2022-11-21_01h05.03.584,Info_measure_main_exp,2022.2.2,Win32,74.92881762,,,,,,,,,,,,,,,,,,masks/mask_004.jpg,,,,,,,,,,,,,,,,,,,,,,,,,,,,,,,,,,,,,,,,,,,,,,,,0,3,3,3,1,,,,,,,,,,,,,,,,,,,,,,,,,,,,,,,,,,,,,,,,,
538182,001,2022-11-21_01h05.03.584,Info_measure_main_exp,2022.2.2,Win32,74.92881762,,,,,,,,,,,,,,,,,,masks/mask_002.jpg,,,,,,,,,,,,,,,,,,,,,,,,,,,,,,,,,,,,,,,,,,,,,,,,0,4,4,1,1,,,,,,,,,,,,,,,,,,,,,,,,,,,,,,,,,,,,,,,,,
538182,001,2022-11-21_01h05.03.584,Info_measure_main_exp,2022.2.2,Win32,74.92881762,,,,,,,,,,,,,,,,,,,,,,,,,,,,,,5,1.0537,1,,,,,,,,,,,,0,131,5,5,2274,1974,absent_patch/patch0002274.jpg,absent_patch/patch0001974.jpg,,,,,,,,,,,,,,,,,,,,0.081481481,-0.047222222,1,0,0,response3disk,19,0.005555556,0,1,0,0,center_square,0,18,18,90,1,,,,,,,,,,,,,,,,,,,,,,,
538182,001,2022-11-21_01h05.03.584,Info_measure_main_exp,2022.2.2,Win32,74.92881762,,,,,,,,,,,,,,,,,,masks/mask_003.jpg,,,,,,,,,,,,,,,,,,,,,,,,,,,,,,,,,,,,,,,,,,,0,0,0,2,1,,,,,,,,,,,,,,,,,,,,,,,,,,,,,,,,,,,,,,,,,,,,,,
538182,001,2022-11-21_01h05.03.584,Info_measure_main_exp,2022.2.2,Win32,74.92881762,,,,,,,,,,,,,,,,,,masks/mask_001.jpg,,,,,,,,,,,,,,,,,,,,,,,,,,,,,,,,,,,,,,,,,,,0,1,1,0,1,,,,,,,,,,,,,,,,,,,,,,,,,,,,,,,,,,,,,,,,,,,,,,
538182,001,2022-11-21_01h05.03.584,Info_measure_main_exp,2022.2.2,Win32,74.92881762,,,,,,,,,,,,,,,,,,masks/mask_002.jpg,,,,,,,,,,,,,,,,,,,,,,,,,,,,,,,,,,,,,,,,,,,0,2,2,1,1,,,,,,,,,,,,,,,,,,,,,,,,,,,,,,,,,,,,,,,,,,,,,,
538182,001,2022-11-21_01h05.03.584,Info_measure_main_exp,2022.2.2,Win32,74.92881762,,,,,,,,,,,,,,,,,,masks/mask_004.jpg,,,,,,,,,,,,,,,,,,,,,,,,,,,,,,,,,,,,,,,,,,,0,3,3,3,1,,,,,,,,,,,,,,,,,,,,,,,,,,,,,,,,,,,,,,,,,,,,,,
538182,001,2022-11-21_01h05.03.584,Info_measure_main_exp,2022.2.2,Win32,74.92881762,,,,,,,,,,,,,,,,,,masks/mask_005.jpg,,,,,,,,,,,,,,,,,,,,,,,,,,,,,,,,,,,,,,,,,,,0,4,4,4,1,,,,,,,,,,,,,,,,,,,,,,,,,,,,,,,,,,,,,,,,,,,,,,
538182,001,2022-11-21_01h05.03.584,Info_measure_main_exp,2022.2.2,Win32,74.92881762,,,,,,,,,,,,,,,,,,masks/mask_005.jpg,,,,,,,,,,,,,,,,,,,,,,,,,,,,,,,,,,,,,,,,,,,,,,,,0,0,0,4,1,,,,,,,,,,,,,,,,,,,,,,,,,,,,,,,,,,,,,,,,,
538182,001,2022-11-21_01h05.03.584,Info_measure_main_exp,2022.2.2,Win32,74.92881762,,,,,,,,,,,,,,,,,,masks/mask_001.jpg,,,,,,,,,,,,,,,,,,,,,,,,,,,,,,,,,,,,,,,,,,,,,,,,0,1,1,0,1,,,,,,,,,,,,,,,,,,,,,,,,,,,,,,,,,,,,,,,,,
538182,001,2022-11-21_01h05.03.584,Info_measure_main_exp,2022.2.2,Win32,74.92881762,,,,,,,,,,,,,,,,,,masks/mask_003.jpg,,,,,,,,,,,,,,,,,,,,,,,,,,,,,,,,,,,,,,,,,,,,,,,,0,2,2,2,1,,,,,,,,,,,,,,,,,,,,,,,,,,,,,,,,,,,,,,,,,
538182,001,2022-11-21_01h05.03.584,Info_measure_main_exp,2022.2.2,Win32,74.92881762,,,,,,,,,,,,,,,,,,masks/mask_002.jpg,,,,,,,,,,,,,,,,,,,,,,,,,,,,,,,,,,,,,,,,,,,,,,,,0,3,3,1,1,,,,,,,,,,,,,,,,,,,,,,,,,,,,,,,,,,,,,,,,,
538182,001,2022-11-21_01h05.03.584,Info_measure_main_exp,2022.2.2,Win32,74.92881762,,,,,,,,,,,,,,,,,,masks/mask_004.jpg,,,,,,,,,,,,,,,,,,,,,,,,,,,,,,,,,,,,,,,,,,,,,,,,0,4,4,3,1,,,,,,,,,,,,,,,,,,,,,,,,,,,,,,,,,,,,,,,,,
538182,001,2022-11-21_01h05.03.584,Info_measure_main_exp,2022.2.2,Win32,74.92881762,,,,,,,,,,,,,,,,,,,,,,,,,,,,,,5,1.5206,1,,,,,,,,,,,,0,131,5,5,2298,2274,absent_patch/patch0002298.jpg,absent_patch/patch0002274.jpg,,,,,,,,,,,,,,,,,,,,0.093518519,-0.063888889,1,0,0,response3disk,20,-0.012962963,-0.003703704,1,0,0,center_square,0,19,19,1,1,,,,,,,,,,,,,,,,,,,,,,,
538182,001,2022-11-21_01h05.03.584,Info_measure_main_exp,2022.2.2,Win32,74.92881762,,,,,,,,,,,,,,,,,,masks/mask_002.jpg,,,,,,,,,,,,,,,,,,,,,,,,,,,,,,,,,,,,,,,,,,,0,0,0,1,1,,,,,,,,,,,,,,,,,,,,,,,,,,,,,,,,,,,,,,,,,,,,,,
538182,001,2022-11-21_01h05.03.584,Info_measure_main_exp,2022.2.2,Win32,74.92881762,,,,,,,,,,,,,,,,,,masks/mask_005.jpg,,,,,,,,,,,,,,,,,,,,,,,,,,,,,,,,,,,,,,,,,,,0,1,1,4,1,,,,,,,,,,,,,,,,,,,,,,,,,,,,,,,,,,,,,,,,,,,,,,
538182,001,2022-11-21_01h05.03.584,Info_measure_main_exp,2022.2.2,Win32,74.92881762,,,,,,,,,,,,,,,,,,masks/mask_001.jpg,,,,,,,,,,,,,,,,,,,,,,,,,,,,,,,,,,,,,,,,,,,0,2,2,0,1,,,,,,,,,,,,,,,,,,,,,,,,,,,,,,,,,,,,,,,,,,,,,,
538182,001,2022-11-21_01h05.03.584,Info_measure_main_exp,2022.2.2,Win32,74.92881762,,,,,,,,,,,,,,,,,,masks/mask_003.jpg,,,,,,,,,,,,,,,,,,,,,,,,,,,,,,,,,,,,,,,,,,,0,3,3,2,1,,,,,,,,,,,,,,,,,,,,,,,,,,,,,,,,,,,,,,,,,,,,,,
538182,001,2022-11-21_01h05.03.584,Info_measure_main_exp,2022.2.2,Win32,74.92881762,,,,,,,,,,,,,,,,,,masks/mask_004.jpg,,,,,,,,,,,,,,,,,,,,,,,,,,,,,,,,,,,,,,,,,,,0,4,4,3,1,,,,,,,,,,,,,,,,,,,,,,,,,,,,,,,,,,,,,,,,,,,,,,
538182,001,2022-11-21_01h05.03.584,Info_measure_main_exp,2022.2.2,Win32,74.92881762,,,,,,,,,,,,,,,,,,masks/mask_002.jpg,,,,,,,,,,,,,,,,,,,,,,,,,,,,,,,,,,,,,,,,,,,,,,,,0,0,0,1,1,,,,,,,,,,,,,,,,,,,,,,,,,,,,,,,,,,,,,,,,,
538182,001,2022-11-21_01h05.03.584,Info_measure_main_exp,2022.2.2,Win32,74.92881762,,,,,,,,,,,,,,,,,,masks/mask_005.jpg,,,,,,,,,,,,,,,,,,,,,,,,,,,,,,,,,,,,,,,,,,,,,,,,0,1,1,4,1,,,,,,,,,,,,,,,,,,,,,,,,,,,,,,,,,,,,,,,,,
538182,001,2022-11-21_01h05.03.584,Info_measure_main_exp,2022.2.2,Win32,74.92881762,,,,,,,,,,,,,,,,,,masks/mask_003.jpg,,,,,,,,,,,,,,,,,,,,,,,,,,,,,,,,,,,,,,,,,,,,,,,,0,2,2,2,1,,,,,,,,,,,,,,,,,,,,,,,,,,,,,,,,,,,,,,,,,
538182,001,2022-11-21_01h05.03.584,Info_measure_main_exp,2022.2.2,Win32,74.92881762,,,,,,,,,,,,,,,,,,masks/mask_004.jpg,,,,,,,,,,,,,,,,,,,,,,,,,,,,,,,,,,,,,,,,,,,,,,,,0,3,3,3,1,,,,,,,,,,,,,,,,,,,,,,,,,,,,,,,,,,,,,,,,,
538182,001,2022-11-21_01h05.03.584,Info_measure_main_exp,2022.2.2,Win32,74.92881762,,,,,,,,,,,,,,,,,,masks/mask_001.jpg,,,,,,,,,,,,,,,,,,,,,,,,,,,,,,,,,,,,,,,,,,,,,,,,0,4,4,0,1,,,,,,,,,,,,,,,,,,,,,,,,,,,,,,,,,,,,,,,,,
538182,001,2022-11-21_01h05.03.584,Info_measure_main_exp,2022.2.2,Win32,74.92881762,,,,,,,,,,,,,,,,,,,,,,,,,,,,,,4,0.9071,1,,,,,,,,,,,,0,131,5,5,1974,2142,absent_patch/patch0001974.jpg,absent_patch/patch0002142.jpg,,,,,,,,,,,,,,,,,,,,0.036111111,-0.105555556,1,0,0,response3disk,21,-0.012962963,-0.005555556,1,0,0,center_square,0,20,20,38,1,,,,,,,,,,,,,,,,,,,,,,,
538182,001,2022-11-21_01h05.03.584,Info_measure_main_exp,2022.2.2,Win32,74.92881762,,,,,,,,,,,,,,,,,,masks/mask_001.jpg,,,,,,,,,,,,,,,,,,,,,,,,,,,,,,,,,,,,,,,,,,,0,0,0,0,1,,,,,,,,,,,,,,,,,,,,,,,,,,,,,,,,,,,,,,,,,,,,,,
538182,001,2022-11-21_01h05.03.584,Info_measure_main_exp,2022.2.2,Win32,74.92881762,,,,,,,,,,,,,,,,,,masks/mask_005.jpg,,,,,,,,,,,,,,,,,,,,,,,,,,,,,,,,,,,,,,,,,,,0,1,1,4,1,,,,,,,,,,,,,,,,,,,,,,,,,,,,,,,,,,,,,,,,,,,,,,
538182,001,2022-11-21_01h05.03.584,Info_measure_main_exp,2022.2.2,Win32,74.92881762,,,,,,,,,,,,,,,,,,masks/mask_002.jpg,,,,,,,,,,,,,,,,,,,,,,,,,,,,,,,,,,,,,,,,,,,0,2,2,1,1,,,,,,,,,,,,,,,,,,,,,,,,,,,,,,,,,,,,,,,,,,,,,,
538182,001,2022-11-21_01h05.03.584,Info_measure_main_exp,2022.2.2,Win32,74.92881762,,,,,,,,,,,,,,,,,,masks/mask_003.jpg,,,,,,,,,,,,,,,,,,,,,,,,,,,,,,,,,,,,,,,,,,,0,3,3,2,1,,,,,,,,,,,,,,,,,,,,,,,,,,,,,,,,,,,,,,,,,,,,,,
538182,001,2022-11-21_01h05.03.584,Info_measure_main_exp,2022.2.2,Win32,74.92881762,,,,,,,,,,,,,,,,,,masks/mask_004.jpg,,,,,,,,,,,,,,,,,,,,,,,,,,,,,,,,,,,,,,,,,,,0,4,4,3,1,,,,,,,,,,,,,,,,,,,,,,,,,,,,,,,,,,,,,,,,,,,,,,
538182,001,2022-11-21_01h05.03.584,Info_measure_main_exp,2022.2.2,Win32,74.92881762,,,,,,,,,,,,,,,,,,masks/mask_002.jpg,,,,,,,,,,,,,,,,,,,,,,,,,,,,,,,,,,,,,,,,,,,,,,,,0,0,0,1,1,,,,,,,,,,,,,,,,,,,,,,,,,,,,,,,,,,,,,,,,,
538182,001,2022-11-21_01h05.03.584,Info_measure_main_exp,2022.2.2,Win32,74.92881762,,,,,,,,,,,,,,,,,,masks/mask_004.jpg,,,,,,,,,,,,,,,,,,,,,,,,,,,,,,,,,,,,,,,,,,,,,,,,0,1,1,3,1,,,,,,,,,,,,,,,,,,,,,,,,,,,,,,,,,,,,,,,,,
538182,001,2022-11-21_01h05.03.584,Info_measure_main_exp,2022.2.2,Win32,74.92881762,,,,,,,,,,,,,,,,,,masks/mask_005.jpg,,,,,,,,,,,,,,,,,,,,,,,,,,,,,,,,,,,,,,,,,,,,,,,,0,2,2,4,1,,,,,,,,,,,,,,,,,,,,,,,,,,,,,,,,,,,,,,,,,
538182,001,2022-11-21_01h05.03.584,Info_measure_main_exp,2022.2.2,Win32,74.92881762,,,,,,,,,,,,,,,,,,masks/mask_003.jpg,,,,,,,,,,,,,,,,,,,,,,,,,,,,,,,,,,,,,,,,,,,,,,,,0,3,3,2,1,,,,,,,,,,,,,,,,,,,,,,,,,,,,,,,,,,,,,,,,,
538182,001,2022-11-21_01h05.03.584,Info_measure_main_exp,2022.2.2,Win32,74.92881762,,,,,,,,,,,,,,,,,,masks/mask_001.jpg,,,,,,,,,,,,,,,,,,,,,,,,,,,,,,,,,,,,,,,,,,,,,,,,0,4,4,0,1,,,,,,,,,,,,,,,,,,,,,,,,,,,,,,,,,,,,,,,,,
538182,001,2022-11-21_01h05.03.584,Info_measure_main_exp,2022.2.2,Win32,74.92881762,,,,,,,,,,,,,,,,,,,,,,,,,,,,,,2,1.3071,1,,,,,,,,,,,,0,131,5,5,2250,2178,absent_patch/patch0002250.jpg,absent_patch/patch0002178.jpg,,,,,,,,,,,,,,,,,,,,-0.068518519,-0.044444444,1,0,0,response5disk,22,0.009259259,-0.002777778,1,0,0,center_square,0,21,21,48,1,,,,,,,,,,,,,,,,,,,,,,,
538182,001,2022-11-21_01h05.03.584,Info_measure_main_exp,2022.2.2,Win32,74.92881762,,,,,,,,,,,,,,,,,,masks/mask_003.jpg,,,,,,,,,,,,,,,,,,,,,,,,,,,,,,,,,,,,,,,,,,,0,0,0,2,1,,,,,,,,,,,,,,,,,,,,,,,,,,,,,,,,,,,,,,,,,,,,,,
538182,001,2022-11-21_01h05.03.584,Info_measure_main_exp,2022.2.2,Win32,74.92881762,,,,,,,,,,,,,,,,,,masks/mask_002.jpg,,,,,,,,,,,,,,,,,,,,,,,,,,,,,,,,,,,,,,,,,,,0,1,1,1,1,,,,,,,,,,,,,,,,,,,,,,,,,,,,,,,,,,,,,,,,,,,,,,
538182,001,2022-11-21_01h05.03.584,Info_measure_main_exp,2022.2.2,Win32,74.92881762,,,,,,,,,,,,,,,,,,masks/mask_004.jpg,,,,,,,,,,,,,,,,,,,,,,,,,,,,,,,,,,,,,,,,,,,0,2,2,3,1,,,,,,,,,,,,,,,,,,,,,,,,,,,,,,,,,,,,,,,,,,,,,,
538182,001,2022-11-21_01h05.03.584,Info_measure_main_exp,2022.2.2,Win32,74.92881762,,,,,,,,,,,,,,,,,,masks/mask_001.jpg,,,,,,,,,,,,,,,,,,,,,,,,,,,,,,,,,,,,,,,,,,,0,3,3,0,1,,,,,,,,,,,,,,,,,,,,,,,,,,,,,,,,,,,,,,,,,,,,,,
538182,001,2022-11-21_01h05.03.584,Info_measure_main_exp,2022.2.2,Win32,74.92881762,,,,,,,,,,,,,,,,,,masks/mask_005.jpg,,,,,,,,,,,,,,,,,,,,,,,,,,,,,,,,,,,,,,,,,,,0,4,4,4,1,,,,,,,,,,,,,,,,,,,,,,,,,,,,,,,,,,,,,,,,,,,,,,
538182,001,2022-11-21_01h05.03.584,Info_measure_main_exp,2022.2.2,Win32,74.92881762,,,,,,,,,,,,,,,,,,masks/mask_002.jpg,,,,,,,,,,,,,,,,,,,,,,,,,,,,,,,,,,,,,,,,,,,,,,,,0,0,0,1,1,,,,,,,,,,,,,,,,,,,,,,,,,,,,,,,,,,,,,,,,,
538182,001,2022-11-21_01h05.03.584,Info_measure_main_exp,2022.2.2,Win32,74.92881762,,,,,,,,,,,,,,,,,,masks/mask_003.jpg,,,,,,,,,,,,,,,,,,,,,,,,,,,,,,,,,,,,,,,,,,,,,,,,0,1,1,2,1,,,,,,,,,,,,,,,,,,,,,,,,,,,,,,,,,,,,,,,,,
538182,001,2022-11-21_01h05.03.584,Info_measure_main_exp,2022.2.2,Win32,74.92881762,,,,,,,,,,,,,,,,,,masks/mask_005.jpg,,,,,,,,,,,,,,,,,,,,,,,,,,,,,,,,,,,,,,,,,,,,,,,,0,2,2,4,1,,,,,,,,,,,,,,,,,,,,,,,,,,,,,,,,,,,,,,,,,
538182,001,2022-11-21_01h05.03.584,Info_measure_main_exp,2022.2.2,Win32,74.92881762,,,,,,,,,,,,,,,,,,masks/mask_001.jpg,,,,,,,,,,,,,,,,,,,,,,,,,,,,,,,,,,,,,,,,,,,,,,,,0,3,3,0,1,,,,,,,,,,,,,,,,,,,,,,,,,,,,,,,,,,,,,,,,,
538182,001,2022-11-21_01h05.03.584,Info_measure_main_exp,2022.2.2,Win32,74.92881762,,,,,,,,,,,,,,,,,,masks/mask_004.jpg,,,,,,,,,,,,,,,,,,,,,,,,,,,,,,,,,,,,,,,,,,,,,,,,0,4,4,3,1,,,,,,,,,,,,,,,,,,,,,,,,,,,,,,,,,,,,,,,,,
538182,001,2022-11-21_01h05.03.584,Info_measure_main_exp,2022.2.2,Win32,74.92881762,,,,,,,,,,,,,,,,,,,,,,,,,,,,,,3,1.9207,1,,,,,,,,,,,,1,131,5,5,2250,1,absent_patch/patch0002250.jpg,present_patch/cong_131_5_a.jpg,,,,,,,,,,,,,,,,,,,,-0.047222222,-0.12037037,1,0,0,response5disk,23,0.009259259,-0.00462963,1,0,0,center_square,0,22,22,5,1,,,,,,,,,,,,,,,,,,,,,,,
538182,001,2022-11-21_01h05.03.584,Info_measure_main_exp,2022.2.2,Win32,74.92881762,,,,,,,,,,,,,,,,,,masks/mask_001.jpg,,,,,,,,,,,,,,,,,,,,,,,,,,,,,,,,,,,,,,,,,,,0,0,0,0,1,,,,,,,,,,,,,,,,,,,,,,,,,,,,,,,,,,,,,,,,,,,,,,
538182,001,2022-11-21_01h05.03.584,Info_measure_main_exp,2022.2.2,Win32,74.92881762,,,,,,,,,,,,,,,,,,masks/mask_002.jpg,,,,,,,,,,,,,,,,,,,,,,,,,,,,,,,,,,,,,,,,,,,0,1,1,1,1,,,,,,,,,,,,,,,,,,,,,,,,,,,,,,,,,,,,,,,,,,,,,,
538182,001,2022-11-21_01h05.03.584,Info_measure_main_exp,2022.2.2,Win32,74.92881762,,,,,,,,,,,,,,,,,,masks/mask_004.jpg,,,,,,,,,,,,,,,,,,,,,,,,,,,,,,,,,,,,,,,,,,,0,2,2,3,1,,,,,,,,,,,,,,,,,,,,,,,,,,,,,,,,,,,,,,,,,,,,,,
538182,001,2022-11-21_01h05.03.584,Info_measure_main_exp,2022.2.2,Win32,74.92881762,,,,,,,,,,,,,,,,,,masks/mask_005.jpg,,,,,,,,,,,,,,,,,,,,,,,,,,,,,,,,,,,,,,,,,,,0,3,3,4,1,,,,,,,,,,,,,,,,,,,,,,,,,,,,,,,,,,,,,,,,,,,,,,
538182,001,2022-11-21_01h05.03.584,Info_measure_main_exp,2022.2.2,Win32,74.92881762,,,,,,,,,,,,,,,,,,masks/mask_003.jpg,,,,,,,,,,,,,,,,,,,,,,,,,,,,,,,,,,,,,,,,,,,0,4,4,2,1,,,,,,,,,,,,,,,,,,,,,,,,,,,,,,,,,,,,,,,,,,,,,,
538182,001,2022-11-21_01h05.03.584,Info_measure_main_exp,2022.2.2,Win32,74.92881762,,,,,,,,,,,,,,,,,,masks/mask_002.jpg,,,,,,,,,,,,,,,,,,,,,,,,,,,,,,,,,,,,,,,,,,,,,,,,0,0,0,1,1,,,,,,,,,,,,,,,,,,,,,,,,,,,,,,,,,,,,,,,,,
538182,001,2022-11-21_01h05.03.584,Info_measure_main_exp,2022.2.2,Win32,74.92881762,,,,,,,,,,,,,,,,,,masks/mask_001.jpg,,,,,,,,,,,,,,,,,,,,,,,,,,,,,,,,,,,,,,,,,,,,,,,,0,1,1,0,1,,,,,,,,,,,,,,,,,,,,,,,,,,,,,,,,,,,,,,,,,
538182,001,2022-11-21_01h05.03.584,Info_measure_main_exp,2022.2.2,Win32,74.92881762,,,,,,,,,,,,,,,,,,masks/mask_003.jpg,,,,,,,,,,,,,,,,,,,,,,,,,,,,,,,,,,,,,,,,,,,,,,,,0,2,2,2,1,,,,,,,,,,,,,,,,,,,,,,,,,,,,,,,,,,,,,,,,,
538182,001,2022-11-21_01h05.03.584,Info_measure_main_exp,2022.2.2,Win32,74.92881762,,,,,,,,,,,,,,,,,,masks/mask_005.jpg,,,,,,,,,,,,,,,,,,,,,,,,,,,,,,,,,,,,,,,,,,,,,,,,0,3,3,4,1,,,,,,,,,,,,,,,,,,,,,,,,,,,,,,,,,,,,,,,,,
538182,001,2022-11-21_01h05.03.584,Info_measure_main_exp,2022.2.2,Win32,74.92881762,,,,,,,,,,,,,,,,,,masks/mask_004.jpg,,,,,,,,,,,,,,,,,,,,,,,,,,,,,,,,,,,,,,,,,,,,,,,,0,4,4,3,1,,,,,,,,,,,,,,,,,,,,,,,,,,,,,,,,,,,,,,,,,
538182,001,2022-11-21_01h05.03.584,Info_measure_main_exp,2022.2.2,Win32,74.92881762,,,,,,,,,,,,,,,,,,,,,,,,,,,,,,5,1.5339,1,,,,,,,,,,,,0,131,5,5,1950,2238,absent_patch/patch0001950.jpg,absent_patch/patch0002238.jpg,,,,,,,,,,,,,,,,,,,,0.12037037,-0.059259259,1,0,0,response3disk,24,0.015740741,0.010185185,1,0,0,center_square,0,23,23,8,1,,,,,,,,,,,,,,,,,,,,,,,
538182,001,2022-11-21_01h05.03.584,Info_measure_main_exp,2022.2.2,Win32,74.92881762,,,,,,,,,,,,,,,,,,masks/mask_003.jpg,,,,,,,,,,,,,,,,,,,,,,,,,,,,,,,,,,,,,,,,,,,0,0,0,2,1,,,,,,,,,,,,,,,,,,,,,,,,,,,,,,,,,,,,,,,,,,,,,,
538182,001,2022-11-21_01h05.03.584,Info_measure_main_exp,2022.2.2,Win32,74.92881762,,,,,,,,,,,,,,,,,,masks/mask_001.jpg,,,,,,,,,,,,,,,,,,,,,,,,,,,,,,,,,,,,,,,,,,,0,1,1,0,1,,,,,,,,,,,,,,,,,,,,,,,,,,,,,,,,,,,,,,,,,,,,,,
538182,001,2022-11-21_01h05.03.584,Info_measure_main_exp,2022.2.2,Win32,74.92881762,,,,,,,,,,,,,,,,,,masks/mask_005.jpg,,,,,,,,,,,,,,,,,,,,,,,,,,,,,,,,,,,,,,,,,,,0,2,2,4,1,,,,,,,,,,,,,,,,,,,,,,,,,,,,,,,,,,,,,,,,,,,,,,
538182,001,2022-11-21_01h05.03.584,Info_measure_main_exp,2022.2.2,Win32,74.92881762,,,,,,,,,,,,,,,,,,masks/mask_004.jpg,,,,,,,,,,,,,,,,,,,,,,,,,,,,,,,,,,,,,,,,,,,0,3,3,3,1,,,,,,,,,,,,,,,,,,,,,,,,,,,,,,,,,,,,,,,,,,,,,,
538182,001,2022-11-21_01h05.03.584,Info_measure_main_exp,2022.2.2,Win32,74.92881762,,,,,,,,,,,,,,,,,,masks/mask_002.jpg,,,,,,,,,,,,,,,,,,,,,,,,,,,,,,,,,,,,,,,,,,,0,4,4,1,1,,,,,,,,,,,,,,,,,,,,,,,,,,,,,,,,,,,,,,,,,,,,,,
538182,001,2022-11-21_01h05.03.584,Info_measure_main_exp,2022.2.2,Win32,74.92881762,,,,,,,,,,,,,,,,,,masks/mask_004.jpg,,,,,,,,,,,,,,,,,,,,,,,,,,,,,,,,,,,,,,,,,,,,,,,,0,0,0,3,1,,,,,,,,,,,,,,,,,,,,,,,,,,,,,,,,,,,,,,,,,
538182,001,2022-11-21_01h05.03.584,Info_measure_main_exp,2022.2.2,Win32,74.92881762,,,,,,,,,,,,,,,,,,masks/mask_002.jpg,,,,,,,,,,,,,,,,,,,,,,,,,,,,,,,,,,,,,,,,,,,,,,,,0,1,1,1,1,,,,,,,,,,,,,,,,,,,,,,,,,,,,,,,,,,,,,,,,,
538182,001,2022-11-21_01h05.03.584,Info_measure_main_exp,2022.2.2,Win32,74.92881762,,,,,,,,,,,,,,,,,,masks/mask_003.jpg,,,,,,,,,,,,,,,,,,,,,,,,,,,,,,,,,,,,,,,,,,,,,,,,0,2,2,2,1,,,,,,,,,,,,,,,,,,,,,,,,,,,,,,,,,,,,,,,,,
538182,001,2022-11-21_01h05.03.584,Info_measure_main_exp,2022.2.2,Win32,74.92881762,,,,,,,,,,,,,,,,,,masks/mask_001.jpg,,,,,,,,,,,,,,,,,,,,,,,,,,,,,,,,,,,,,,,,,,,,,,,,0,3,3,0,1,,,,,,,,,,,,,,,,,,,,,,,,,,,,,,,,,,,,,,,,,
538182,001,2022-11-21_01h05.03.584,Info_measure_main_exp,2022.2.2,Win32,74.92881762,,,,,,,,,,,,,,,,,,masks/mask_005.jpg,,,,,,,,,,,,,,,,,,,,,,,,,,,,,,,,,,,,,,,,,,,,,,,,0,4,4,4,1,,,,,,,,,,,,,,,,,,,,,,,,,,,,,,,,,,,,,,,,,
538182,001,2022-11-21_01h05.03.584,Info_measure_main_exp,2022.2.2,Win32,74.92881762,,,,,,,,,,,,,,,,,,,,,,,,,,,,,,4,0.8937,1,,,,,,,,,,,,0,131,5,5,1986,2142,absent_patch/patch0001986.jpg,absent_patch/patch0002142.jpg,,,,,,,,,,,,,,,,,,,,0.027777778,-0.117592593,1,0,0,response3disk,25,-0.008333333,-0.011111111,1,0,0,center_square,0,24,24,76,1,,,,,,,,,,,,,,,,,,,,,,,
538182,001,2022-11-21_01h05.03.584,Info_measure_main_exp,2022.2.2,Win32,74.92881762,,,,,,,,,,,,,,,,,,masks/mask_001.jpg,,,,,,,,,,,,,,,,,,,,,,,,,,,,,,,,,,,,,,,,,,,0,0,0,0,1,,,,,,,,,,,,,,,,,,,,,,,,,,,,,,,,,,,,,,,,,,,,,,
538182,001,2022-11-21_01h05.03.584,Info_measure_main_exp,2022.2.2,Win32,74.92881762,,,,,,,,,,,,,,,,,,masks/mask_002.jpg,,,,,,,,,,,,,,,,,,,,,,,,,,,,,,,,,,,,,,,,,,,0,1,1,1,1,,,,,,,,,,,,,,,,,,,,,,,,,,,,,,,,,,,,,,,,,,,,,,
538182,001,2022-11-21_01h05.03.584,Info_measure_main_exp,2022.2.2,Win32,74.92881762,,,,,,,,,,,,,,,,,,masks/mask_003.jpg,,,,,,,,,,,,,,,,,,,,,,,,,,,,,,,,,,,,,,,,,,,0,2,2,2,1,,,,,,,,,,,,,,,,,,,,,,,,,,,,,,,,,,,,,,,,,,,,,,
538182,001,2022-11-21_01h05.03.584,Info_measure_main_exp,2022.2.2,Win32,74.92881762,,,,,,,,,,,,,,,,,,masks/mask_005.jpg,,,,,,,,,,,,,,,,,,,,,,,,,,,,,,,,,,,,,,,,,,,0,3,3,4,1,,,,,,,,,,,,,,,,,,,,,,,,,,,,,,,,,,,,,,,,,,,,,,
538182,001,2022-11-21_01h05.03.584,Info_measure_main_exp,2022.2.2,Win32,74.92881762,,,,,,,,,,,,,,,,,,masks/mask_004.jpg,,,,,,,,,,,,,,,,,,,,,,,,,,,,,,,,,,,,,,,,,,,0,4,4,3,1,,,,,,,,,,,,,,,,,,,,,,,,,,,,,,,,,,,,,,,,,,,,,,
538182,001,2022-11-21_01h05.03.584,Info_measure_main_exp,2022.2.2,Win32,74.92881762,,,,,,,,,,,,,,,,,,masks/mask_005.jpg,,,,,,,,,,,,,,,,,,,,,,,,,,,,,,,,,,,,,,,,,,,,,,,,0,0,0,4,1,,,,,,,,,,,,,,,,,,,,,,,,,,,,,,,,,,,,,,,,,
538182,001,2022-11-21_01h05.03.584,Info_measure_main_exp,2022.2.2,Win32,74.92881762,,,,,,,,,,,,,,,,,,masks/mask_003.jpg,,,,,,,,,,,,,,,,,,,,,,,,,,,,,,,,,,,,,,,,,,,,,,,,0,1,1,2,1,,,,,,,,,,,,,,,,,,,,,,,,,,,,,,,,,,,,,,,,,
538182,001,2022-11-21_01h05.03.584,Info_measure_main_exp,2022.2.2,Win32,74.92881762,,,,,,,,,,,,,,,,,,masks/mask_001.jpg,,,,,,,,,,,,,,,,,,,,,,,,,,,,,,,,,,,,,,,,,,,,,,,,0,2,2,0,1,,,,,,,,,,,,,,,,,,,,,,,,,,,,,,,,,,,,,,,,,
538182,001,2022-11-21_01h05.03.584,Info_measure_main_exp,2022.2.2,Win32,74.92881762,,,,,,,,,,,,,,,,,,masks/mask_004.jpg,,,,,,,,,,,,,,,,,,,,,,,,,,,,,,,,,,,,,,,,,,,,,,,,0,3,3,3,1,,,,,,,,,,,,,,,,,,,,,,,,,,,,,,,,,,,,,,,,,
538182,001,2022-11-21_01h05.03.584,Info_measure_main_exp,2022.2.2,Win32,74.92881762,,,,,,,,,,,,,,,,,,masks/mask_002.jpg,,,,,,,,,,,,,,,,,,,,,,,,,,,,,,,,,,,,,,,,,,,,,,,,0,4,4,1,1,,,,,,,,,,,,,,,,,,,,,,,,,,,,,,,,,,,,,,,,,
538182,001,2022-11-21_01h05.03.584,Info_measure_main_exp,2022.2.2,Win32,74.92881762,,,,,,,,,,,,,,,,,,,,,,,,,,,,,,0,0.4936,1,,,,,,,,,,,,0,131,5,5,1986,1986,absent_patch/patch0001986.jpg,absent_patch/patch0001986.jpg,,,,,,,,,,,,,,,,,,,,-0.026851852,0.130555556,1,0,0,response7disk,26,0.010185185,0.012962963,1,0,0,center_square,0,25,25,19,1,,,,,,,,,,,,,,,,,,,,,,,
538182,001,2022-11-21_01h05.03.584,Info_measure_main_exp,2022.2.2,Win32,74.92881762,,,,,,,,,,,,,,,,,,masks/mask_001.jpg,,,,,,,,,,,,,,,,,,,,,,,,,,,,,,,,,,,,,,,,,,,0,0,0,0,1,,,,,,,,,,,,,,,,,,,,,,,,,,,,,,,,,,,,,,,,,,,,,,
538182,001,2022-11-21_01h05.03.584,Info_measure_main_exp,2022.2.2,Win32,74.92881762,,,,,,,,,,,,,,,,,,masks/mask_002.jpg,,,,,,,,,,,,,,,,,,,,,,,,,,,,,,,,,,,,,,,,,,,0,1,1,1,1,,,,,,,,,,,,,,,,,,,,,,,,,,,,,,,,,,,,,,,,,,,,,,
538182,001,2022-11-21_01h05.03.584,Info_measure_main_exp,2022.2.2,Win32,74.92881762,,,,,,,,,,,,,,,,,,masks/mask_003.jpg,,,,,,,,,,,,,,,,,,,,,,,,,,,,,,,,,,,,,,,,,,,0,2,2,2,1,,,,,,,,,,,,,,,,,,,,,,,,,,,,,,,,,,,,,,,,,,,,,,
538182,001,2022-11-21_01h05.03.584,Info_measure_main_exp,2022.2.2,Win32,74.92881762,,,,,,,,,,,,,,,,,,masks/mask_004.jpg,,,,,,,,,,,,,,,,,,,,,,,,,,,,,,,,,,,,,,,,,,,0,3,3,3,1,,,,,,,,,,,,,,,,,,,,,,,,,,,,,,,,,,,,,,,,,,,,,,
538182,001,2022-11-21_01h05.03.584,Info_measure_main_exp,2022.2.2,Win32,74.92881762,,,,,,,,,,,,,,,,,,masks/mask_005.jpg,,,,,,,,,,,,,,,,,,,,,,,,,,,,,,,,,,,,,,,,,,,0,4,4,4,1,,,,,,,,,,,,,,,,,,,,,,,,,,,,,,,,,,,,,,,,,,,,,,
538182,001,2022-11-21_01h05.03.584,Info_measure_main_exp,2022.2.2,Win32,74.92881762,,,,,,,,,,,,,,,,,,masks/mask_005.jpg,,,,,,,,,,,,,,,,,,,,,,,,,,,,,,,,,,,,,,,,,,,,,,,,0,0,0,4,1,,,,,,,,,,,,,,,,,,,,,,,,,,,,,,,,,,,,,,,,,
538182,001,2022-11-21_01h05.03.584,Info_measure_main_exp,2022.2.2,Win32,74.92881762,,,,,,,,,,,,,,,,,,masks/mask_004.jpg,,,,,,,,,,,,,,,,,,,,,,,,,,,,,,,,,,,,,,,,,,,,,,,,0,1,1,3,1,,,,,,,,,,,,,,,,,,,,,,,,,,,,,,,,,,,,,,,,,
538182,001,2022-11-21_01h05.03.584,Info_measure_main_exp,2022.2.2,Win32,74.92881762,,,,,,,,,,,,,,,,,,masks/mask_002.jpg,,,,,,,,,,,,,,,,,,,,,,,,,,,,,,,,,,,,,,,,,,,,,,,,0,2,2,1,1,,,,,,,,,,,,,,,,,,,,,,,,,,,,,,,,,,,,,,,,,
538182,001,2022-11-21_01h05.03.584,Info_measure_main_exp,2022.2.2,Win32,74.92881762,,,,,,,,,,,,,,,,,,masks/mask_003.jpg,,,,,,,,,,,,,,,,,,,,,,,,,,,,,,,,,,,,,,,,,,,,,,,,0,3,3,2,1,,,,,,,,,,,,,,,,,,,,,,,,,,,,,,,,,,,,,,,,,
538182,001,2022-11-21_01h05.03.584,Info_measure_main_exp,2022.2.2,Win32,74.92881762,,,,,,,,,,,,,,,,,,masks/mask_001.jpg,,,,,,,,,,,,,,,,,,,,,,,,,,,,,,,,,,,,,,,,,,,,,,,,0,4,4,0,1,,,,,,,,,,,,,,,,,,,,,,,,,,,,,,,,,,,,,,,,,
538182,001,2022-11-21_01h05.03.584,Info_measure_main_exp,2022.2.2,Win32,74.92881762,,,,,,,,,,,,,,,,,,,,,,,,,,,,,,5,1.6407,1,,,,,,,,,,,,0,131,5,5,2274,2142,absent_patch/patch0002274.jpg,absent_patch/patch0002142.jpg,,,,,,,,,,,,,,,,,,,,0.106481481,-0.085185185,1,0,0,response3disk,27,0.00462963,-0.001851852,1,0,0,center_square,0,26,26,75,1,,,,,,,,,,,,,,,,,,,,,,,
538182,001,2022-11-21_01h05.03.584,Info_measure_main_exp,2022.2.2,Win32,74.92881762,,,,,,,,,,,,,,,,,,masks/mask_002.jpg,,,,,,,,,,,,,,,,,,,,,,,,,,,,,,,,,,,,,,,,,,,0,0,0,1,1,,,,,,,,,,,,,,,,,,,,,,,,,,,,,,,,,,,,,,,,,,,,,,
538182,001,2022-11-21_01h05.03.584,Info_measure_main_exp,2022.2.2,Win32,74.92881762,,,,,,,,,,,,,,,,,,masks/mask_005.jpg,,,,,,,,,,,,,,,,,,,,,,,,,,,,,,,,,,,,,,,,,,,0,1,1,4,1,,,,,,,,,,,,,,,,,,,,,,,,,,,,,,,,,,,,,,,,,,,,,,
538182,001,2022-11-21_01h05.03.584,Info_measure_main_exp,2022.2.2,Win32,74.92881762,,,,,,,,,,,,,,,,,,masks/mask_004.jpg,,,,,,,,,,,,,,,,,,,,,,,,,,,,,,,,,,,,,,,,,,,0,2,2,3,1,,,,,,,,,,,,,,,,,,,,,,,,,,,,,,,,,,,,,,,,,,,,,,
538182,001,2022-11-21_01h05.03.584,Info_measure_main_exp,2022.2.2,Win32,74.92881762,,,,,,,,,,,,,,,,,,masks/mask_003.jpg,,,,,,,,,,,,,,,,,,,,,,,,,,,,,,,,,,,,,,,,,,,0,3,3,2,1,,,,,,,,,,,,,,,,,,,,,,,,,,,,,,,,,,,,,,,,,,,,,,
538182,001,2022-11-21_01h05.03.584,Info_measure_main_exp,2022.2.2,Win32,74.92881762,,,,,,,,,,,,,,,,,,masks/mask_001.jpg,,,,,,,,,,,,,,,,,,,,,,,,,,,,,,,,,,,,,,,,,,,0,4,4,0,1,,,,,,,,,,,,,,,,,,,,,,,,,,,,,,,,,,,,,,,,,,,,,,
538182,001,2022-11-21_01h05.03.584,Info_measure_main_exp,2022.2.2,Win32,74.92881762,,,,,,,,,,,,,,,,,,masks/mask_001.jpg,,,,,,,,,,,,,,,,,,,,,,,,,,,,,,,,,,,,,,,,,,,,,,,,0,0,0,0,1,,,,,,,,,,,,,,,,,,,,,,,,,,,,,,,,,,,,,,,,,
538182,001,2022-11-21_01h05.03.584,Info_measure_main_exp,2022.2.2,Win32,74.92881762,,,,,,,,,,,,,,,,,,masks/mask_005.jpg,,,,,,,,,,,,,,,,,,,,,,,,,,,,,,,,,,,,,,,,,,,,,,,,0,1,1,4,1,,,,,,,,,,,,,,,,,,,,,,,,,,,,,,,,,,,,,,,,,
538182,001,2022-11-21_01h05.03.584,Info_measure_main_exp,2022.2.2,Win32,74.92881762,,,,,,,,,,,,,,,,,,masks/mask_002.jpg,,,,,,,,,,,,,,,,,,,,,,,,,,,,,,,,,,,,,,,,,,,,,,,,0,2,2,1,1,,,,,,,,,,,,,,,,,,,,,,,,,,,,,,,,,,,,,,,,,
538182,001,2022-11-21_01h05.03.584,Info_measure_main_exp,2022.2.2,Win32,74.92881762,,,,,,,,,,,,,,,,,,masks/mask_004.jpg,,,,,,,,,,,,,,,,,,,,,,,,,,,,,,,,,,,,,,,,,,,,,,,,0,3,3,3,1,,,,,,,,,,,,,,,,,,,,,,,,,,,,,,,,,,,,,,,,,
538182,001,2022-11-21_01h05.03.584,Info_measure_main_exp,2022.2.2,Win32,74.92881762,,,,,,,,,,,,,,,,,,masks/mask_003.jpg,,,,,,,,,,,,,,,,,,,,,,,,,,,,,,,,,,,,,,,,,,,,,,,,0,4,4,2,1,,,,,,,,,,,,,,,,,,,,,,,,,,,,,,,,,,,,,,,,,
538182,001,2022-11-21_01h05.03.584,Info_measure_main_exp,2022.2.2,Win32,74.92881762,,,,,,,,,,,,,,,,,,,,,,,,,,,,,,0,0.6003,1,,,,,,,,,,,,0,131,5,5,2082,2082,absent_patch/patch0002082.jpg,absent_patch/patch0002082.jpg,,,,,,,,,,,,,,,,,,,,-0.062962963,0.136111111,1,0,0,response7disk,28,0.001851852,-0.007407407,1,0,0,center_square,0,27,27,74,1,,,,,,,,,,,,,,,,,,,,,,,
538182,001,2022-11-21_01h05.03.584,Info_measure_main_exp,2022.2.2,Win32,74.92881762,,,,,,,,,,,,,,,,,,masks/mask_001.jpg,,,,,,,,,,,,,,,,,,,,,,,,,,,,,,,,,,,,,,,,,,,0,0,0,0,1,,,,,,,,,,,,,,,,,,,,,,,,,,,,,,,,,,,,,,,,,,,,,,
538182,001,2022-11-21_01h05.03.584,Info_measure_main_exp,2022.2.2,Win32,74.92881762,,,,,,,,,,,,,,,,,,masks/mask_004.jpg,,,,,,,,,,,,,,,,,,,,,,,,,,,,,,,,,,,,,,,,,,,0,1,1,3,1,,,,,,,,,,,,,,,,,,,,,,,,,,,,,,,,,,,,,,,,,,,,,,
538182,001,2022-11-21_01h05.03.584,Info_measure_main_exp,2022.2.2,Win32,74.92881762,,,,,,,,,,,,,,,,,,masks/mask_003.jpg,,,,,,,,,,,,,,,,,,,,,,,,,,,,,,,,,,,,,,,,,,,0,2,2,2,1,,,,,,,,,,,,,,,,,,,,,,,,,,,,,,,,,,,,,,,,,,,,,,
538182,001,2022-11-21_01h05.03.584,Info_measure_main_exp,2022.2.2,Win32,74.92881762,,,,,,,,,,,,,,,,,,masks/mask_005.jpg,,,,,,,,,,,,,,,,,,,,,,,,,,,,,,,,,,,,,,,,,,,0,3,3,4,1,,,,,,,,,,,,,,,,,,,,,,,,,,,,,,,,,,,,,,,,,,,,,,
538182,001,2022-11-21_01h05.03.584,Info_measure_main_exp,2022.2.2,Win32,74.92881762,,,,,,,,,,,,,,,,,,masks/mask_002.jpg,,,,,,,,,,,,,,,,,,,,,,,,,,,,,,,,,,,,,,,,,,,0,4,4,1,1,,,,,,,,,,,,,,,,,,,,,,,,,,,,,,,,,,,,,,,,,,,,,,
538182,001,2022-11-21_01h05.03.584,Info_measure_main_exp,2022.2.2,Win32,74.92881762,,,,,,,,,,,,,,,,,,masks/mask_003.jpg,,,,,,,,,,,,,,,,,,,,,,,,,,,,,,,,,,,,,,,,,,,,,,,,0,0,0,2,1,,,,,,,,,,,,,,,,,,,,,,,,,,,,,,,,,,,,,,,,,
538182,001,2022-11-21_01h05.03.584,Info_measure_main_exp,2022.2.2,Win32,74.92881762,,,,,,,,,,,,,,,,,,masks/mask_005.jpg,,,,,,,,,,,,,,,,,,,,,,,,,,,,,,,,,,,,,,,,,,,,,,,,0,1,1,4,1,,,,,,,,,,,,,,,,,,,,,,,,,,,,,,,,,,,,,,,,,
538182,001,2022-11-21_01h05.03.584,Info_measure_main_exp,2022.2.2,Win32,74.92881762,,,,,,,,,,,,,,,,,,masks/mask_004.jpg,,,,,,,,,,,,,,,,,,,,,,,,,,,,,,,,,,,,,,,,,,,,,,,,0,2,2,3,1,,,,,,,,,,,,,,,,,,,,,,,,,,,,,,,,,,,,,,,,,
538182,001,2022-11-21_01h05.03.584,Info_measure_main_exp,2022.2.2,Win32,74.92881762,,,,,,,,,,,,,,,,,,masks/mask_001.jpg,,,,,,,,,,,,,,,,,,,,,,,,,,,,,,,,,,,,,,,,,,,,,,,,0,3,3,0,1,,,,,,,,,,,,,,,,,,,,,,,,,,,,,,,,,,,,,,,,,
538182,001,2022-11-21_01h05.03.584,Info_measure_main_exp,2022.2.2,Win32,74.92881762,,,,,,,,,,,,,,,,,,masks/mask_002.jpg,,,,,,,,,,,,,,,,,,,,,,,,,,,,,,,,,,,,,,,,,,,,,,,,0,4,4,1,1,,,,,,,,,,,,,,,,,,,,,,,,,,,,,,,,,,,,,,,,,
538182,001,2022-11-21_01h05.03.584,Info_measure_main_exp,2022.2.2,Win32,74.92881762,,,,,,,,,,,,,,,,,,,,,,,,,,,,,,7,0.5601,1,,,,,,,,,,,,0,131,5,5,2190,2178,absent_patch/patch0002190.jpg,absent_patch/patch0002178.jpg,,,,,,,,,,,,,,,,,,,,0.038888889,0.107407407,1,0,0,response1disk,29,-0.008333333,0,1,0,0,center_square,0,28,28,14,1,,,,,,,,,,,,,,,,,,,,,,,
538182,001,2022-11-21_01h05.03.584,Info_measure_main_exp,2022.2.2,Win32,74.92881762,,,,,,,,,,,,,,,,,,masks/mask_003.jpg,,,,,,,,,,,,,,,,,,,,,,,,,,,,,,,,,,,,,,,,,,,0,0,0,2,1,,,,,,,,,,,,,,,,,,,,,,,,,,,,,,,,,,,,,,,,,,,,,,
538182,001,2022-11-21_01h05.03.584,Info_measure_main_exp,2022.2.2,Win32,74.92881762,,,,,,,,,,,,,,,,,,masks/mask_004.jpg,,,,,,,,,,,,,,,,,,,,,,,,,,,,,,,,,,,,,,,,,,,0,1,1,3,1,,,,,,,,,,,,,,,,,,,,,,,,,,,,,,,,,,,,,,,,,,,,,,
538182,001,2022-11-21_01h05.03.584,Info_measure_main_exp,2022.2.2,Win32,74.92881762,,,,,,,,,,,,,,,,,,masks/mask_002.jpg,,,,,,,,,,,,,,,,,,,,,,,,,,,,,,,,,,,,,,,,,,,0,2,2,1,1,,,,,,,,,,,,,,,,,,,,,,,,,,,,,,,,,,,,,,,,,,,,,,
538182,001,2022-11-21_01h05.03.584,Info_measure_main_exp,2022.2.2,Win32,74.92881762,,,,,,,,,,,,,,,,,,masks/mask_005.jpg,,,,,,,,,,,,,,,,,,,,,,,,,,,,,,,,,,,,,,,,,,,0,3,3,4,1,,,,,,,,,,,,,,,,,,,,,,,,,,,,,,,,,,,,,,,,,,,,,,
538182,001,2022-11-21_01h05.03.584,Info_measure_main_exp,2022.2.2,Win32,74.92881762,,,,,,,,,,,,,,,,,,masks/mask_001.jpg,,,,,,,,,,,,,,,,,,,,,,,,,,,,,,,,,,,,,,,,,,,0,4,4,0,1,,,,,,,,,,,,,,,,,,,,,,,,,,,,,,,,,,,,,,,,,,,,,,
538182,001,2022-11-21_01h05.03.584,Info_measure_main_exp,2022.2.2,Win32,74.92881762,,,,,,,,,,,,,,,,,,masks/mask_005.jpg,,,,,,,,,,,,,,,,,,,,,,,,,,,,,,,,,,,,,,,,,,,,,,,,0,0,0,4,1,,,,,,,,,,,,,,,,,,,,,,,,,,,,,,,,,,,,,,,,,
538182,001,2022-11-21_01h05.03.584,Info_measure_main_exp,2022.2.2,Win32,74.92881762,,,,,,,,,,,,,,,,,,masks/mask_002.jpg,,,,,,,,,,,,,,,,,,,,,,,,,,,,,,,,,,,,,,,,,,,,,,,,0,1,1,1,1,,,,,,,,,,,,,,,,,,,,,,,,,,,,,,,,,,,,,,,,,
538182,001,2022-11-21_01h05.03.584,Info_measure_main_exp,2022.2.2,Win32,74.92881762,,,,,,,,,,,,,,,,,,masks/mask_003.jpg,,,,,,,,,,,,,,,,,,,,,,,,,,,,,,,,,,,,,,,,,,,,,,,,0,2,2,2,1,,,,,,,,,,,,,,,,,,,,,,,,,,,,,,,,,,,,,,,,,
538182,001,2022-11-21_01h05.03.584,Info_measure_main_exp,2022.2.2,Win32,74.92881762,,,,,,,,,,,,,,,,,,masks/mask_001.jpg,,,,,,,,,,,,,,,,,,,,,,,,,,,,,,,,,,,,,,,,,,,,,,,,0,3,3,0,1,,,,,,,,,,,,,,,,,,,,,,,,,,,,,,,,,,,,,,,,,
538182,001,2022-11-21_01h05.03.584,Info_measure_main_exp,2022.2.2,Win32,74.92881762,,,,,,,,,,,,,,,,,,masks/mask_004.jpg,,,,,,,,,,,,,,,,,,,,,,,,,,,,,,,,,,,,,,,,,,,,,,,,0,4,4,3,1,,,,,,,,,,,,,,,,,,,,,,,,,,,,,,,,,,,,,,,,,
538182,001,2022-11-21_01h05.03.584,Info_measure_main_exp,2022.2.2,Win32,74.92881762,,,,,,,,,,,,,,,,,,,,,,,,,,,,,,3,1.2805,1,,,,,,,,,,,,0,131,5,5,1950,2298,absent_patch/patch0001950.jpg,absent_patch/patch0002298.jpg,,,,,,,,,,,,,,,,,,,,-0.068518519,-0.146296296,1,0,0,response5disk,30,-0.006481481,0,1,0,0,center_square,0,29,29,18,1,,,,,,,,,,,,,,,,,,,,,,,
538182,001,2022-11-21_01h05.03.584,Info_measure_main_exp,2022.2.2,Win32,74.92881762,,,,,,,,,,,,,,,,,,masks/mask_005.jpg,,,,,,,,,,,,,,,,,,,,,,,,,,,,,,,,,,,,,,,,,,,0,0,0,4,1,,,,,,,,,,,,,,,,,,,,,,,,,,,,,,,,,,,,,,,,,,,,,,
538182,001,2022-11-21_01h05.03.584,Info_measure_main_exp,2022.2.2,Win32,74.92881762,,,,,,,,,,,,,,,,,,masks/mask_003.jpg,,,,,,,,,,,,,,,,,,,,,,,,,,,,,,,,,,,,,,,,,,,0,1,1,2,1,,,,,,,,,,,,,,,,,,,,,,,,,,,,,,,,,,,,,,,,,,,,,,
538182,001,2022-11-21_01h05.03.584,Info_measure_main_exp,2022.2.2,Win32,74.92881762,,,,,,,,,,,,,,,,,,masks/mask_001.jpg,,,,,,,,,,,,,,,,,,,,,,,,,,,,,,,,,,,,,,,,,,,0,2,2,0,1,,,,,,,,,,,,,,,,,,,,,,,,,,,,,,,,,,,,,,,,,,,,,,
538182,001,2022-11-21_01h05.03.584,Info_measure_main_exp,2022.2.2,Win32,74.92881762,,,,,,,,,,,,,,,,,,masks/mask_004.jpg,,,,,,,,,,,,,,,,,,,,,,,,,,,,,,,,,,,,,,,,,,,0,3,3,3,1,,,,,,,,,,,,,,,,,,,,,,,,,,,,,,,,,,,,,,,,,,,,,,
538182,001,2022-11-21_01h05.03.584,Info_measure_main_exp,2022.2.2,Win32,74.92881762,,,,,,,,,,,,,,,,,,masks/mask_002.jpg,,,,,,,,,,,,,,,,,,,,,,,,,,,,,,,,,,,,,,,,,,,0,4,4,1,1,,,,,,,,,,,,,,,,,,,,,,,,,,,,,,,,,,,,,,,,,,,,,,
538182,001,2022-11-21_01h05.03.584,Info_measure_main_exp,2022.2.2,Win32,74.92881762,,,,,,,,,,,,,,,,,,masks/mask_004.jpg,,,,,,,,,,,,,,,,,,,,,,,,,,,,,,,,,,,,,,,,,,,,,,,,0,0,0,3,1,,,,,,,,,,,,,,,,,,,,,,,,,,,,,,,,,,,,,,,,,
538182,001,2022-11-21_01h05.03.584,Info_measure_main_exp,2022.2.2,Win32,74.92881762,,,,,,,,,,,,,,,,,,masks/mask_005.jpg,,,,,,,,,,,,,,,,,,,,,,,,,,,,,,,,,,,,,,,,,,,,,,,,0,1,1,4,1,,,,,,,,,,,,,,,,,,,,,,,,,,,,,,,,,,,,,,,,,
538182,001,2022-11-21_01h05.03.584,Info_measure_main_exp,2022.2.2,Win32,74.92881762,,,,,,,,,,,,,,,,,,masks/mask_002.jpg,,,,,,,,,,,,,,,,,,,,,,,,,,,,,,,,,,,,,,,,,,,,,,,,0,2,2,1,1,,,,,,,,,,,,,,,,,,,,,,,,,,,,,,,,,,,,,,,,,
538182,001,2022-11-21_01h05.03.584,Info_measure_main_exp,2022.2.2,Win32,74.92881762,,,,,,,,,,,,,,,,,,masks/mask_003.jpg,,,,,,,,,,,,,,,,,,,,,,,,,,,,,,,,,,,,,,,,,,,,,,,,0,3,3,2,1,,,,,,,,,,,,,,,,,,,,,,,,,,,,,,,,,,,,,,,,,
538182,001,2022-11-21_01h05.03.584,Info_measure_main_exp,2022.2.2,Win32,74.92881762,,,,,,,,,,,,,,,,,,masks/mask_001.jpg,,,,,,,,,,,,,,,,,,,,,,,,,,,,,,,,,,,,,,,,,,,,,,,,0,4,4,0,1,,,,,,,,,,,,,,,,,,,,,,,,,,,,,,,,,,,,,,,,,
538182,001,2022-11-21_01h05.03.584,Info_measure_main_exp,2022.2.2,Win32,74.92881762,,,,,,,,,,,,,,,,,,,,,,,,,,,,,,6,0.9337,1,,,,,,,,,,,,0,131,5,5,2082,1986,absent_patch/patch0002082.jpg,absent_patch/patch0001986.jpg,,,,,,,,,,,,,,,,,,,,0.183333333,0.041666667,1,0,0,response1disk,31,0.011111111,0.008333333,1,0,0,center_square,0,30,30,94,1,,,,,,,,,,,,,,,,,,,,,,,
538182,001,2022-11-21_01h05.03.584,Info_measure_main_exp,2022.2.2,Win32,74.92881762,,,,,,,,,,,,,,,,,,masks/mask_002.jpg,,,,,,,,,,,,,,,,,,,,,,,,,,,,,,,,,,,,,,,,,,,0,0,0,1,1,,,,,,,,,,,,,,,,,,,,,,,,,,,,,,,,,,,,,,,,,,,,,,
538182,001,2022-11-21_01h05.03.584,Info_measure_main_exp,2022.2.2,Win32,74.92881762,,,,,,,,,,,,,,,,,,masks/mask_004.jpg,,,,,,,,,,,,,,,,,,,,,,,,,,,,,,,,,,,,,,,,,,,0,1,1,3,1,,,,,,,,,,,,,,,,,,,,,,,,,,,,,,,,,,,,,,,,,,,,,,
538182,001,2022-11-21_01h05.03.584,Info_measure_main_exp,2022.2.2,Win32,74.92881762,,,,,,,,,,,,,,,,,,masks/mask_001.jpg,,,,,,,,,,,,,,,,,,,,,,,,,,,,,,,,,,,,,,,,,,,0,2,2,0,1,,,,,,,,,,,,,,,,,,,,,,,,,,,,,,,,,,,,,,,,,,,,,,
538182,001,2022-11-21_01h05.03.584,Info_measure_main_exp,2022.2.2,Win32,74.92881762,,,,,,,,,,,,,,,,,,masks/mask_003.jpg,,,,,,,,,,,,,,,,,,,,,,,,,,,,,,,,,,,,,,,,,,,0,3,3,2,1,,,,,,,,,,,,,,,,,,,,,,,,,,,,,,,,,,,,,,,,,,,,,,
538182,001,2022-11-21_01h05.03.584,Info_measure_main_exp,2022.2.2,Win32,74.92881762,,,,,,,,,,,,,,,,,,masks/mask_005.jpg,,,,,,,,,,,,,,,,,,,,,,,,,,,,,,,,,,,,,,,,,,,0,4,4,4,1,,,,,,,,,,,,,,,,,,,,,,,,,,,,,,,,,,,,,,,,,,,,,,
538182,001,2022-11-21_01h05.03.584,Info_measure_main_exp,2022.2.2,Win32,74.92881762,,,,,,,,,,,,,,,,,,masks/mask_002.jpg,,,,,,,,,,,,,,,,,,,,,,,,,,,,,,,,,,,,,,,,,,,,,,,,0,0,0,1,1,,,,,,,,,,,,,,,,,,,,,,,,,,,,,,,,,,,,,,,,,
538182,001,2022-11-21_01h05.03.584,Info_measure_main_exp,2022.2.2,Win32,74.92881762,,,,,,,,,,,,,,,,,,masks/mask_005.jpg,,,,,,,,,,,,,,,,,,,,,,,,,,,,,,,,,,,,,,,,,,,,,,,,0,1,1,4,1,,,,,,,,,,,,,,,,,,,,,,,,,,,,,,,,,,,,,,,,,
538182,001,2022-11-21_01h05.03.584,Info_measure_main_exp,2022.2.2,Win32,74.92881762,,,,,,,,,,,,,,,,,,masks/mask_004.jpg,,,,,,,,,,,,,,,,,,,,,,,,,,,,,,,,,,,,,,,,,,,,,,,,0,2,2,3,1,,,,,,,,,,,,,,,,,,,,,,,,,,,,,,,,,,,,,,,,,
538182,001,2022-11-21_01h05.03.584,Info_measure_main_exp,2022.2.2,Win32,74.92881762,,,,,,,,,,,,,,,,,,masks/mask_001.jpg,,,,,,,,,,,,,,,,,,,,,,,,,,,,,,,,,,,,,,,,,,,,,,,,0,3,3,0,1,,,,,,,,,,,,,,,,,,,,,,,,,,,,,,,,,,,,,,,,,
538182,001,2022-11-21_01h05.03.584,Info_measure_main_exp,2022.2.2,Win32,74.92881762,,,,,,,,,,,,,,,,,,masks/mask_003.jpg,,,,,,,,,,,,,,,,,,,,,,,,,,,,,,,,,,,,,,,,,,,,,,,,0,4,4,2,1,,,,,,,,,,,,,,,,,,,,,,,,,,,,,,,,,,,,,,,,,
538182,001,2022-11-21_01h05.03.584,Info_measure_main_exp,2022.2.2,Win32,74.92881762,,,,,,,,,,,,,,,,,,,,,,,,,,,,,,2,0.6136,1,,,,,,,,,,,,0,131,5,5,1974,2298,absent_patch/patch0001974.jpg,absent_patch/patch0002298.jpg,,,,,,,,,,,,,,,,,,,,-0.075,-0.037037037,1,0,0,response5disk,32,0.012037037,0.003703704,1,0,0,center_square,0,31,31,6,1,,,,,,,,,,,,,,,,,,,,,,,
538182,001,2022-11-21_01h05.03.584,Info_measure_main_exp,2022.2.2,Win32,74.92881762,,,,,,,,,,,,,,,,,,masks/mask_003.jpg,,,,,,,,,,,,,,,,,,,,,,,,,,,,,,,,,,,,,,,,,,,0,0,0,2,1,,,,,,,,,,,,,,,,,,,,,,,,,,,,,,,,,,,,,,,,,,,,,,
538182,001,2022-11-21_01h05.03.584,Info_measure_main_exp,2022.2.2,Win32,74.92881762,,,,,,,,,,,,,,,,,,masks/mask_001.jpg,,,,,,,,,,,,,,,,,,,,,,,,,,,,,,,,,,,,,,,,,,,0,1,1,0,1,,,,,,,,,,,,,,,,,,,,,,,,,,,,,,,,,,,,,,,,,,,,,,
538182,001,2022-11-21_01h05.03.584,Info_measure_main_exp,2022.2.2,Win32,74.92881762,,,,,,,,,,,,,,,,,,masks/mask_004.jpg,,,,,,,,,,,,,,,,,,,,,,,,,,,,,,,,,,,,,,,,,,,0,2,2,3,1,,,,,,,,,,,,,,,,,,,,,,,,,,,,,,,,,,,,,,,,,,,,,,
538182,001,2022-11-21_01h05.03.584,Info_measure_main_exp,2022.2.2,Win32,74.92881762,,,,,,,,,,,,,,,,,,masks/mask_002.jpg,,,,,,,,,,,,,,,,,,,,,,,,,,,,,,,,,,,,,,,,,,,0,3,3,1,1,,,,,,,,,,,,,,,,,,,,,,,,,,,,,,,,,,,,,,,,,,,,,,
538182,001,2022-11-21_01h05.03.584,Info_measure_main_exp,2022.2.2,Win32,74.92881762,,,,,,,,,,,,,,,,,,masks/mask_005.jpg,,,,,,,,,,,,,,,,,,,,,,,,,,,,,,,,,,,,,,,,,,,0,4,4,4,1,,,,,,,,,,,,,,,,,,,,,,,,,,,,,,,,,,,,,,,,,,,,,,
538182,001,2022-11-21_01h05.03.584,Info_measure_main_exp,2022.2.2,Win32,74.92881762,,,,,,,,,,,,,,,,,,masks/mask_005.jpg,,,,,,,,,,,,,,,,,,,,,,,,,,,,,,,,,,,,,,,,,,,,,,,,0,0,0,4,1,,,,,,,,,,,,,,,,,,,,,,,,,,,,,,,,,,,,,,,,,
538182,001,2022-11-21_01h05.03.584,Info_measure_main_exp,2022.2.2,Win32,74.92881762,,,,,,,,,,,,,,,,,,masks/mask_003.jpg,,,,,,,,,,,,,,,,,,,,,,,,,,,,,,,,,,,,,,,,,,,,,,,,0,1,1,2,1,,,,,,,,,,,,,,,,,,,,,,,,,,,,,,,,,,,,,,,,,
538182,001,2022-11-21_01h05.03.584,Info_measure_main_exp,2022.2.2,Win32,74.92881762,,,,,,,,,,,,,,,,,,masks/mask_004.jpg,,,,,,,,,,,,,,,,,,,,,,,,,,,,,,,,,,,,,,,,,,,,,,,,0,2,2,3,1,,,,,,,,,,,,,,,,,,,,,,,,,,,,,,,,,,,,,,,,,
538182,001,2022-11-21_01h05.03.584,Info_measure_main_exp,2022.2.2,Win32,74.92881762,,,,,,,,,,,,,,,,,,masks/mask_002.jpg,,,,,,,,,,,,,,,,,,,,,,,,,,,,,,,,,,,,,,,,,,,,,,,,0,3,3,1,1,,,,,,,,,,,,,,,,,,,,,,,,,,,,,,,,,,,,,,,,,
538182,001,2022-11-21_01h05.03.584,Info_measure_main_exp,2022.2.2,Win32,74.92881762,,,,,,,,,,,,,,,,,,masks/mask_001.jpg,,,,,,,,,,,,,,,,,,,,,,,,,,,,,,,,,,,,,,,,,,,,,,,,0,4,4,0,1,,,,,,,,,,,,,,,,,,,,,,,,,,,,,,,,,,,,,,,,,
538182,001,2022-11-21_01h05.03.584,Info_measure_main_exp,2022.2.2,Win32,74.92881762,,,,,,,,,,,,,,,,,,,,,,,,,,,,,,0,0.4401,1,,,,,,,,,,,,0,131,5,5,2274,2274,absent_patch/patch0002274.jpg,absent_patch/patch0002274.jpg,,,,,,,,,,,,,,,,,,,,-0.05,0.124074074,1,0,0,response7disk,33,-0.000925926,0.011111111,1,0,0,center_square,0,32,32,114,1,,,,,,,,,,,,,,,,,,,,,,,
538182,001,2022-11-21_01h05.03.584,Info_measure_main_exp,2022.2.2,Win32,74.92881762,,,,,,,,,,,,,,,,,,masks/mask_003.jpg,,,,,,,,,,,,,,,,,,,,,,,,,,,,,,,,,,,,,,,,,,,0,0,0,2,1,,,,,,,,,,,,,,,,,,,,,,,,,,,,,,,,,,,,,,,,,,,,,,
538182,001,2022-11-21_01h05.03.584,Info_measure_main_exp,2022.2.2,Win32,74.92881762,,,,,,,,,,,,,,,,,,masks/mask_005.jpg,,,,,,,,,,,,,,,,,,,,,,,,,,,,,,,,,,,,,,,,,,,0,1,1,4,1,,,,,,,,,,,,,,,,,,,,,,,,,,,,,,,,,,,,,,,,,,,,,,
538182,001,2022-11-21_01h05.03.584,Info_measure_main_exp,2022.2.2,Win32,74.92881762,,,,,,,,,,,,,,,,,,masks/mask_001.jpg,,,,,,,,,,,,,,,,,,,,,,,,,,,,,,,,,,,,,,,,,,,0,2,2,0,1,,,,,,,,,,,,,,,,,,,,,,,,,,,,,,,,,,,,,,,,,,,,,,
538182,001,2022-11-21_01h05.03.584,Info_measure_main_exp,2022.2.2,Win32,74.92881762,,,,,,,,,,,,,,,,,,masks/mask_004.jpg,,,,,,,,,,,,,,,,,,,,,,,,,,,,,,,,,,,,,,,,,,,0,3,3,3,1,,,,,,,,,,,,,,,,,,,,,,,,,,,,,,,,,,,,,,,,,,,,,,
538182,001,2022-11-21_01h05.03.584,Info_measure_main_exp,2022.2.2,Win32,74.92881762,,,,,,,,,,,,,,,,,,masks/mask_002.jpg,,,,,,,,,,,,,,,,,,,,,,,,,,,,,,,,,,,,,,,,,,,0,4,4,1,1,,,,,,,,,,,,,,,,,,,,,,,,,,,,,,,,,,,,,,,,,,,,,,
538182,001,2022-11-21_01h05.03.584,Info_measure_main_exp,2022.2.2,Win32,74.92881762,,,,,,,,,,,,,,,,,,masks/mask_002.jpg,,,,,,,,,,,,,,,,,,,,,,,,,,,,,,,,,,,,,,,,,,,,,,,,0,0,0,1,1,,,,,,,,,,,,,,,,,,,,,,,,,,,,,,,,,,,,,,,,,
538182,001,2022-11-21_01h05.03.584,Info_measure_main_exp,2022.2.2,Win32,74.92881762,,,,,,,,,,,,,,,,,,masks/mask_003.jpg,,,,,,,,,,,,,,,,,,,,,,,,,,,,,,,,,,,,,,,,,,,,,,,,0,1,1,2,1,,,,,,,,,,,,,,,,,,,,,,,,,,,,,,,,,,,,,,,,,
538182,001,2022-11-21_01h05.03.584,Info_measure_main_exp,2022.2.2,Win32,74.92881762,,,,,,,,,,,,,,,,,,masks/mask_001.jpg,,,,,,,,,,,,,,,,,,,,,,,,,,,,,,,,,,,,,,,,,,,,,,,,0,2,2,0,1,,,,,,,,,,,,,,,,,,,,,,,,,,,,,,,,,,,,,,,,,
538182,001,2022-11-21_01h05.03.584,Info_measure_main_exp,2022.2.2,Win32,74.92881762,,,,,,,,,,,,,,,,,,masks/mask_004.jpg,,,,,,,,,,,,,,,,,,,,,,,,,,,,,,,,,,,,,,,,,,,,,,,,0,3,3,3,1,,,,,,,,,,,,,,,,,,,,,,,,,,,,,,,,,,,,,,,,,
538182,001,2022-11-21_01h05.03.584,Info_measure_main_exp,2022.2.2,Win32,74.92881762,,,,,,,,,,,,,,,,,,masks/mask_005.jpg,,,,,,,,,,,,,,,,,,,,,,,,,,,,,,,,,,,,,,,,,,,,,,,,0,4,4,4,1,,,,,,,,,,,,,,,,,,,,,,,,,,,,,,,,,,,,,,,,,
538182,001,2022-11-21_01h05.03.584,Info_measure_main_exp,2022.2.2,Win32,74.92881762,,,,,,,,,,,,,,,,,,,,,,,,,,,,,,3,1.2406,1,,,,,,,,,,,,1,131,5,5,2238,1,absent_patch/patch0002238.jpg,present_patch/cong_131_5_a.jpg,,,,,,,,,,,,,,,,,,,,-0.040740741,-0.118518519,1,0,0,response5disk,34,0.005555556,-0.005555556,1,0,0,center_square,0,33,33,104,1,,,,,,,,,,,,,,,,,,,,,,,
538182,001,2022-11-21_01h05.03.584,Info_measure_main_exp,2022.2.2,Win32,74.92881762,,,,,,,,,,,,,,,,,,masks/mask_002.jpg,,,,,,,,,,,,,,,,,,,,,,,,,,,,,,,,,,,,,,,,,,,0,0,0,1,1,,,,,,,,,,,,,,,,,,,,,,,,,,,,,,,,,,,,,,,,,,,,,,
538182,001,2022-11-21_01h05.03.584,Info_measure_main_exp,2022.2.2,Win32,74.92881762,,,,,,,,,,,,,,,,,,masks/mask_003.jpg,,,,,,,,,,,,,,,,,,,,,,,,,,,,,,,,,,,,,,,,,,,0,1,1,2,1,,,,,,,,,,,,,,,,,,,,,,,,,,,,,,,,,,,,,,,,,,,,,,
538182,001,2022-11-21_01h05.03.584,Info_measure_main_exp,2022.2.2,Win32,74.92881762,,,,,,,,,,,,,,,,,,masks/mask_005.jpg,,,,,,,,,,,,,,,,,,,,,,,,,,,,,,,,,,,,,,,,,,,0,2,2,4,1,,,,,,,,,,,,,,,,,,,,,,,,,,,,,,,,,,,,,,,,,,,,,,
538182,001,2022-11-21_01h05.03.584,Info_measure_main_exp,2022.2.2,Win32,74.92881762,,,,,,,,,,,,,,,,,,masks/mask_001.jpg,,,,,,,,,,,,,,,,,,,,,,,,,,,,,,,,,,,,,,,,,,,0,3,3,0,1,,,,,,,,,,,,,,,,,,,,,,,,,,,,,,,,,,,,,,,,,,,,,,
538182,001,2022-11-21_01h05.03.584,Info_measure_main_exp,2022.2.2,Win32,74.92881762,,,,,,,,,,,,,,,,,,masks/mask_004.jpg,,,,,,,,,,,,,,,,,,,,,,,,,,,,,,,,,,,,,,,,,,,0,4,4,3,1,,,,,,,,,,,,,,,,,,,,,,,,,,,,,,,,,,,,,,,,,,,,,,
538182,001,2022-11-21_01h05.03.584,Info_measure_main_exp,2022.2.2,Win32,74.92881762,,,,,,,,,,,,,,,,,,masks/mask_001.jpg,,,,,,,,,,,,,,,,,,,,,,,,,,,,,,,,,,,,,,,,,,,,,,,,0,0,0,0,1,,,,,,,,,,,,,,,,,,,,,,,,,,,,,,,,,,,,,,,,,
538182,001,2022-11-21_01h05.03.584,Info_measure_main_exp,2022.2.2,Win32,74.92881762,,,,,,,,,,,,,,,,,,masks/mask_005.jpg,,,,,,,,,,,,,,,,,,,,,,,,,,,,,,,,,,,,,,,,,,,,,,,,0,1,1,4,1,,,,,,,,,,,,,,,,,,,,,,,,,,,,,,,,,,,,,,,,,
538182,001,2022-11-21_01h05.03.584,Info_measure_main_exp,2022.2.2,Win32,74.92881762,,,,,,,,,,,,,,,,,,masks/mask_003.jpg,,,,,,,,,,,,,,,,,,,,,,,,,,,,,,,,,,,,,,,,,,,,,,,,0,2,2,2,1,,,,,,,,,,,,,,,,,,,,,,,,,,,,,,,,,,,,,,,,,
538182,001,2022-11-21_01h05.03.584,Info_measure_main_exp,2022.2.2,Win32,74.92881762,,,,,,,,,,,,,,,,,,masks/mask_004.jpg,,,,,,,,,,,,,,,,,,,,,,,,,,,,,,,,,,,,,,,,,,,,,,,,0,3,3,3,1,,,,,,,,,,,,,,,,,,,,,,,,,,,,,,,,,,,,,,,,,
