participant,session,date,expName,psychopyVersion,OS,frameRate,space_press_continue.keys,space_press_continue.rt,space_press_continue_2.keys,space_press_continue_2.rt,space_press_continue_3.keys,space_press_continue_3.rt,space_press_continue_4.keys,space_press_continue_4.rt,space_press_continue_5.keys,space_press_continue_5.rt,space_press_continue_6.keys,space_press_continue_6.rt,prac_mask_loop_1.thisRepN,prac_mask_loop_1.thisTrialN,prac_mask_loop_1.thisN,prac_mask_loop_1.thisIndex,prac_mask_loop_1.ran,mask_name,prac_mask_loop_2.thisRepN,prac_mask_loop_2.thisTrialN,prac_mask_loop_2.thisN,prac_mask_loop_2.thisIndex,prac_mask_loop_2.ran,mouse_2.x,mouse_2.y,mouse_2.leftButton,mouse_2.midButton,mouse_2.rightButton,mouse_2.clicked_name,similarity,response_time,Pass,mouse_12.x,mouse_12.y,mouse_12.leftButton,mouse_12.midButton,mouse_12.rightButton,mouse_12.clicked_name,prac_loop.thisRepN,prac_loop.thisTrialN,prac_loop.thisN,prac_loop.thisIndex,prac_loop.ran,Pair_type,Image_num,Patch_1_loc,Patch_2_loc,Patch_1_info,Patch_2_info,Patch_1_name,Patch_2_name,mouse_1.x,mouse_1.y,mouse_1.leftButton,mouse_1.midButton,mouse_1.rightButton,mouse_1.time,mouse_1.clicked_name,space_press_continue_7.keys,space_press_continue_7.rt,mask_loop.thisRepN,mask_loop.thisTrialN,mask_loop.thisN,mask_loop.thisIndex,mask_loop.ran,mask_loop_2.thisRepN,mask_loop_2.thisTrialN,mask_loop_2.thisN,mask_loop_2.thisIndex,mask_loop_2.ran,mouse.x,mouse.y,mouse.leftButton,mouse.midButton,mouse.rightButton,mouse.clicked_name,trialNumber,mouse_11.x,mouse_11.y,mouse_11.leftButton,mouse_11.midButton,mouse_11.rightButton,mouse_11.clicked_name,first_pass_loop.thisRepN,first_pass_loop.thisTrialN,first_pass_loop.thisN,first_pass_loop.thisIndex,first_pass_loop.ran,mask_loop_3.thisRepN,mask_loop_3.thisTrialN,mask_loop_3.thisN,mask_loop_3.thisIndex,mask_loop_3.ran,mask_loop_4.thisRepN,mask_loop_4.thisTrialN,mask_loop_4.thisN,mask_loop_4.thisIndex,mask_loop_4.ran,mouse_3.x,mouse_3.y,mouse_3.leftButton,mouse_3.midButton,mouse_3.rightButton,mouse_3.clicked_name,double_pass_loop.thisRepN,double_pass_loop.thisTrialN,double_pass_loop.thisN,double_pass_loop.thisIndex,double_pass_loop.ran,space_exit.keys,space_exit.rt
550901,001,2022-11-20_20h59.04.885,Info_measure_main_exp,2022.2.2,Win32,59.96641881,,,,,,,,,,,,,,,,,,,,,,,,,,,,,,,,,,,,,,,,,,,,,,,,,,,,,,,,,,,,,,,,,,,,,,,,,,,,,,,,,,,,,,,,,,,,,,,,,,,,,,,,,,,,,,,
550901,001,2022-11-20_20h59.04.885,Info_measure_main_exp,2022.2.2,Win32,59.96641881,,,,,,,,,,,,,,,,,,,,,,,,,,,,,,,,,,,,,,,,,,,,,,,,,,,,,,,,,,,,,,,,,,,,,,,,,,,,,,,,,,,,,,,,,,,,,,,,,,,,,,,,,,,,,,,
550901,001,2022-11-20_20h59.04.885,Info_measure_main_exp,2022.2.2,Win32,59.96641881,space,4.9272,,,,,,,,,,,,,,,,,,,,,,,,,,,,,,,,,,,,,,,,,,,,,,,,,,,,,,,,,,,,,,,,,,,,,,,,,,,,,,,,,,,,,,,,,,,,,,,,,,,,,,,,,,,,,
550901,001,2022-11-20_20h59.04.885,Info_measure_main_exp,2022.2.2,Win32,59.96641881,,,space,11.0952,,,,,,,,,,,,,,,,,,,,,,,,,,,,,,,,,,,,,,,,,,,,,,,,,,,,,,,,,,,,,,,,,,,,,,,,,,,,,,,,,,,,,,,,,,,,,,,,,,,,,,,,,,,
550901,001,2022-11-20_20h59.04.885,Info_measure_main_exp,2022.2.2,Win32,59.96641881,,,,,space,10.4219,,,,,,,,,,,,,,,,,,,,,,,,,,,,,,,,,,,,,,,,,,,,,,,,,,,,,,,,,,,,,,,,,,,,,,,,,,,,,,,,,,,,,,,,,,,,,,,,,,,,,,,,,
550901,001,2022-11-20_20h59.04.885,Info_measure_main_exp,2022.2.2,Win32,59.96641881,,,,,,,space,10.0009,,,,,,,,,,,,,,,,,,,,,,,,,,,,,,,,,,,,,,,,,,,,,,,,,,,,,,,,,,,,,,,,,,,,,,,,,,,,,,,,,,,,,,,,,,,,,,,,,,,,,,,
550901,001,2022-11-20_20h59.04.885,Info_measure_main_exp,2022.2.2,Win32,59.96641881,,,,,,,,,space,8.9229,,,,,,,,,,,,,,,,,,,,,,,,,,,,,,,,,,,,,,,,,,,,,,,,,,,,,,,,,,,,,,,,,,,,,,,,,,,,,,,,,,,,,,,,,,,,,,,,,,,,,
550901,001,2022-11-20_20h59.04.885,Info_measure_main_exp,2022.2.2,Win32,59.96641881,,,,,,,,,,,space,3.0184,,,,,,,,,,,,,,,,,,,,,,,,,,,,,,,,,,,,,,,,,,,,,,,,,,,,,,,,,,,,,,,,,,,,,,,,,,,,,,,,,,,,,,,,,,,,,,,,,,,
550901,001,2022-11-20_20h59.04.885,Info_measure_main_exp,2022.2.2,Win32,59.96641881,,,,,,,,,,,,,0,0,0,0,1,masks/mask_001.jpg,,,,,,,,,,,,,,,,,,,,,,,,,,,,,,,,,,,,,,,,,,,,,,,,,,,,,,,,,,,,,,,,,,,,,,,,,,,,,,,,,,,,,,,,,,,,,
550901,001,2022-11-20_20h59.04.885,Info_measure_main_exp,2022.2.2,Win32,59.96641881,,,,,,,,,,,,,0,1,1,4,1,masks/mask_005.jpg,,,,,,,,,,,,,,,,,,,,,,,,,,,,,,,,,,,,,,,,,,,,,,,,,,,,,,,,,,,,,,,,,,,,,,,,,,,,,,,,,,,,,,,,,,,,,
550901,001,2022-11-20_20h59.04.885,Info_measure_main_exp,2022.2.2,Win32,59.96641881,,,,,,,,,,,,,0,2,2,3,1,masks/mask_004.jpg,,,,,,,,,,,,,,,,,,,,,,,,,,,,,,,,,,,,,,,,,,,,,,,,,,,,,,,,,,,,,,,,,,,,,,,,,,,,,,,,,,,,,,,,,,,,,
550901,001,2022-11-20_20h59.04.885,Info_measure_main_exp,2022.2.2,Win32,59.96641881,,,,,,,,,,,,,0,3,3,1,1,masks/mask_002.jpg,,,,,,,,,,,,,,,,,,,,,,,,,,,,,,,,,,,,,,,,,,,,,,,,,,,,,,,,,,,,,,,,,,,,,,,,,,,,,,,,,,,,,,,,,,,,,
550901,001,2022-11-20_20h59.04.885,Info_measure_main_exp,2022.2.2,Win32,59.96641881,,,,,,,,,,,,,0,4,4,2,1,masks/mask_003.jpg,,,,,,,,,,,,,,,,,,,,,,,,,,,,,,,,,,,,,,,,,,,,,,,,,,,,,,,,,,,,,,,,,,,,,,,,,,,,,,,,,,,,,,,,,,,,,
550901,001,2022-11-20_20h59.04.885,Info_measure_main_exp,2022.2.2,Win32,59.96641881,,,,,,,,,,,,,,,,,,masks/mask_001.jpg,0,0,0,0,1,,,,,,,,,,,,,,,,,,,,,,,,,,,,,,,,,,,,,,,,,,,,,,,,,,,,,,,,,,,,,,,,,,,,,,,,,,,,,,,,,,,,,,,,
550901,001,2022-11-20_20h59.04.885,Info_measure_main_exp,2022.2.2,Win32,59.96641881,,,,,,,,,,,,,,,,,,masks/mask_003.jpg,0,1,1,2,1,,,,,,,,,,,,,,,,,,,,,,,,,,,,,,,,,,,,,,,,,,,,,,,,,,,,,,,,,,,,,,,,,,,,,,,,,,,,,,,,,,,,,,,,
550901,001,2022-11-20_20h59.04.885,Info_measure_main_exp,2022.2.2,Win32,59.96641881,,,,,,,,,,,,,,,,,,masks/mask_005.jpg,0,2,2,4,1,,,,,,,,,,,,,,,,,,,,,,,,,,,,,,,,,,,,,,,,,,,,,,,,,,,,,,,,,,,,,,,,,,,,,,,,,,,,,,,,,,,,,,,,
550901,001,2022-11-20_20h59.04.885,Info_measure_main_exp,2022.2.2,Win32,59.96641881,,,,,,,,,,,,,,,,,,masks/mask_002.jpg,0,3,3,1,1,,,,,,,,,,,,,,,,,,,,,,,,,,,,,,,,,,,,,,,,,,,,,,,,,,,,,,,,,,,,,,,,,,,,,,,,,,,,,,,,,,,,,,,,
550901,001,2022-11-20_20h59.04.885,Info_measure_main_exp,2022.2.2,Win32,59.96641881,,,,,,,,,,,,,,,,,,masks/mask_004.jpg,0,4,4,3,1,,,,,,,,,,,,,,,,,,,,,,,,,,,,,,,,,,,,,,,,,,,,,,,,,,,,,,,,,,,,,,,,,,,,,,,,,,,,,,,,,,,,,,,,
550901,001,2022-11-20_20h59.04.885,Info_measure_main_exp,2022.2.2,Win32,59.96641881,,,,,,,,,,,,,,,,,,,,,,,,0.0390625,-0.080729167,1,0,0,response3disk,4,53.2686,1,-0.001302083,0.0078125,1,0,0,center_square,0,0,0,0,1,0,131,5,5,2370,2406,prac_patch/patch0002370.jpg,prac_patch/patch0002406.jpg,,,,,,,,,,,,,,,,,,,,,,,,,,,,,,,,,,,,,,,,,,,,,,,,,,,,,,,,,,,,
550901,001,2022-11-20_20h59.04.885,Info_measure_main_exp,2022.2.2,Win32,59.96641881,,,,,,,,,,,,,0,0,0,3,1,masks/mask_004.jpg,,,,,,,,,,,,,,,,,,,,,,,,,,,,,,,,,,,,,,,,,,,,,,,,,,,,,,,,,,,,,,,,,,,,,,,,,,,,,,,,,,,,,,,,,,,,,
550901,001,2022-11-20_20h59.04.885,Info_measure_main_exp,2022.2.2,Win32,59.96641881,,,,,,,,,,,,,0,1,1,1,1,masks/mask_002.jpg,,,,,,,,,,,,,,,,,,,,,,,,,,,,,,,,,,,,,,,,,,,,,,,,,,,,,,,,,,,,,,,,,,,,,,,,,,,,,,,,,,,,,,,,,,,,,
550901,001,2022-11-20_20h59.04.885,Info_measure_main_exp,2022.2.2,Win32,59.96641881,,,,,,,,,,,,,0,2,2,2,1,masks/mask_003.jpg,,,,,,,,,,,,,,,,,,,,,,,,,,,,,,,,,,,,,,,,,,,,,,,,,,,,,,,,,,,,,,,,,,,,,,,,,,,,,,,,,,,,,,,,,,,,,
550901,001,2022-11-20_20h59.04.885,Info_measure_main_exp,2022.2.2,Win32,59.96641881,,,,,,,,,,,,,0,3,3,4,1,masks/mask_005.jpg,,,,,,,,,,,,,,,,,,,,,,,,,,,,,,,,,,,,,,,,,,,,,,,,,,,,,,,,,,,,,,,,,,,,,,,,,,,,,,,,,,,,,,,,,,,,,
550901,001,2022-11-20_20h59.04.885,Info_measure_main_exp,2022.2.2,Win32,59.96641881,,,,,,,,,,,,,0,4,4,0,1,masks/mask_001.jpg,,,,,,,,,,,,,,,,,,,,,,,,,,,,,,,,,,,,,,,,,,,,,,,,,,,,,,,,,,,,,,,,,,,,,,,,,,,,,,,,,,,,,,,,,,,,,
550901,001,2022-11-20_20h59.04.885,Info_measure_main_exp,2022.2.2,Win32,59.96641881,,,,,,,,,,,,,,,,,,masks/mask_005.jpg,0,0,0,4,1,,,,,,,,,,,,,,,,,,,,,,,,,,,,,,,,,,,,,,,,,,,,,,,,,,,,,,,,,,,,,,,,,,,,,,,,,,,,,,,,,,,,,,,,
550901,001,2022-11-20_20h59.04.885,Info_measure_main_exp,2022.2.2,Win32,59.96641881,,,,,,,,,,,,,,,,,,masks/mask_002.jpg,0,1,1,1,1,,,,,,,,,,,,,,,,,,,,,,,,,,,,,,,,,,,,,,,,,,,,,,,,,,,,,,,,,,,,,,,,,,,,,,,,,,,,,,,,,,,,,,,,
550901,001,2022-11-20_20h59.04.885,Info_measure_main_exp,2022.2.2,Win32,59.96641881,,,,,,,,,,,,,,,,,,masks/mask_003.jpg,0,2,2,2,1,,,,,,,,,,,,,,,,,,,,,,,,,,,,,,,,,,,,,,,,,,,,,,,,,,,,,,,,,,,,,,,,,,,,,,,,,,,,,,,,,,,,,,,,
550901,001,2022-11-20_20h59.04.885,Info_measure_main_exp,2022.2.2,Win32,59.96641881,,,,,,,,,,,,,,,,,,masks/mask_001.jpg,0,3,3,0,1,,,,,,,,,,,,,,,,,,,,,,,,,,,,,,,,,,,,,,,,,,,,,,,,,,,,,,,,,,,,,,,,,,,,,,,,,,,,,,,,,,,,,,,,
550901,001,2022-11-20_20h59.04.885,Info_measure_main_exp,2022.2.2,Win32,59.96641881,,,,,,,,,,,,,,,,,,masks/mask_004.jpg,0,4,4,3,1,,,,,,,,,,,,,,,,,,,,,,,,,,,,,,,,,,,,,,,,,,,,,,,,,,,,,,,,,,,,,,,,,,,,,,,,,,,,,,,,,,,,,,,,
550901,001,2022-11-20_20h59.04.885,Info_measure_main_exp,2022.2.2,Win32,59.96641881,,,,,,,,,,,,,,,,,,,,,,,,-0.122395833,0.06640625,1,0,0,response7disk,1,67.9269,1,-0.009114583,0.001302083,1,0,0,center_square,0,1,1,2,1,0,131,5,5,2526,2526,prac_patch/patch0002526.jpg,prac_patch/patch0002526.jpg,,,,,,,,,,,,,,,,,,,,,,,,,,,,,,,,,,,,,,,,,,,,,,,,,,,,,,,,,,,,
550901,001,2022-11-20_20h59.04.885,Info_measure_main_exp,2022.2.2,Win32,59.96641881,,,,,,,,,,,,,0,0,0,0,1,masks/mask_001.jpg,,,,,,,,,,,,,,,,,,,,,,,,,,,,,,,,,,,,,,,,,,,,,,,,,,,,,,,,,,,,,,,,,,,,,,,,,,,,,,,,,,,,,,,,,,,,,
550901,001,2022-11-20_20h59.04.885,Info_measure_main_exp,2022.2.2,Win32,59.96641881,,,,,,,,,,,,,0,1,1,3,1,masks/mask_004.jpg,,,,,,,,,,,,,,,,,,,,,,,,,,,,,,,,,,,,,,,,,,,,,,,,,,,,,,,,,,,,,,,,,,,,,,,,,,,,,,,,,,,,,,,,,,,,,
550901,001,2022-11-20_20h59.04.885,Info_measure_main_exp,2022.2.2,Win32,59.96641881,,,,,,,,,,,,,0,2,2,1,1,masks/mask_002.jpg,,,,,,,,,,,,,,,,,,,,,,,,,,,,,,,,,,,,,,,,,,,,,,,,,,,,,,,,,,,,,,,,,,,,,,,,,,,,,,,,,,,,,,,,,,,,,
550901,001,2022-11-20_20h59.04.885,Info_measure_main_exp,2022.2.2,Win32,59.96641881,,,,,,,,,,,,,0,3,3,4,1,masks/mask_005.jpg,,,,,,,,,,,,,,,,,,,,,,,,,,,,,,,,,,,,,,,,,,,,,,,,,,,,,,,,,,,,,,,,,,,,,,,,,,,,,,,,,,,,,,,,,,,,,
550901,001,2022-11-20_20h59.04.885,Info_measure_main_exp,2022.2.2,Win32,59.96641881,,,,,,,,,,,,,0,4,4,2,1,masks/mask_003.jpg,,,,,,,,,,,,,,,,,,,,,,,,,,,,,,,,,,,,,,,,,,,,,,,,,,,,,,,,,,,,,,,,,,,,,,,,,,,,,,,,,,,,,,,,,,,,,
550901,001,2022-11-20_20h59.04.885,Info_measure_main_exp,2022.2.2,Win32,59.96641881,,,,,,,,,,,,,,,,,,masks/mask_003.jpg,0,0,0,2,1,,,,,,,,,,,,,,,,,,,,,,,,,,,,,,,,,,,,,,,,,,,,,,,,,,,,,,,,,,,,,,,,,,,,,,,,,,,,,,,,,,,,,,,,
550901,001,2022-11-20_20h59.04.885,Info_measure_main_exp,2022.2.2,Win32,59.96641881,,,,,,,,,,,,,,,,,,masks/mask_001.jpg,0,1,1,0,1,,,,,,,,,,,,,,,,,,,,,,,,,,,,,,,,,,,,,,,,,,,,,,,,,,,,,,,,,,,,,,,,,,,,,,,,,,,,,,,,,,,,,,,,
550901,001,2022-11-20_20h59.04.885,Info_measure_main_exp,2022.2.2,Win32,59.96641881,,,,,,,,,,,,,,,,,,masks/mask_005.jpg,0,2,2,4,1,,,,,,,,,,,,,,,,,,,,,,,,,,,,,,,,,,,,,,,,,,,,,,,,,,,,,,,,,,,,,,,,,,,,,,,,,,,,,,,,,,,,,,,,
550901,001,2022-11-20_20h59.04.885,Info_measure_main_exp,2022.2.2,Win32,59.96641881,,,,,,,,,,,,,,,,,,masks/mask_002.jpg,0,3,3,1,1,,,,,,,,,,,,,,,,,,,,,,,,,,,,,,,,,,,,,,,,,,,,,,,,,,,,,,,,,,,,,,,,,,,,,,,,,,,,,,,,,,,,,,,,
550901,001,2022-11-20_20h59.04.885,Info_measure_main_exp,2022.2.2,Win32,59.96641881,,,,,,,,,,,,,,,,,,masks/mask_004.jpg,0,4,4,3,1,,,,,,,,,,,,,,,,,,,,,,,,,,,,,,,,,,,,,,,,,,,,,,,,,,,,,,,,,,,,,,,,,,,,,,,,,,,,,,,,,,,,,,,,
550901,001,2022-11-20_20h59.04.885,Info_measure_main_exp,2022.2.2,Win32,59.96641881,,,,,,,,,,,,,,,,,,,,,,,,0.022135417,-0.102864583,1,0,0,response3disk,4,77.7271,1,0,0.001302083,1,0,0,center_square,0,2,2,1,1,0,131,5,5,2514,2490,prac_patch/patch0002514.jpg,prac_patch/patch0002490.jpg,,,,,,,,,,,,,,,,,,,,,,,,,,,,,,,,,,,,,,,,,,,,,,,,,,,,,,,,,,,,
550901,001,2022-11-20_20h59.04.885,Info_measure_main_exp,2022.2.2,Win32,59.96641881,,,,,,,,,,,,,,,,,,,,,,,,,,,,,,,,,,,,,,,,,,,,,,,,,,,,,,,,,,,space,2.6879,,,,,,,,,,,,,,,,,,,,,,,,,,,,,,,,,,,,,,,,,,,,,,,,,,,
550901,001,2022-11-20_20h59.04.885,Info_measure_main_exp,2022.2.2,Win32,59.96641881,,,,,,,,,,,,,,,,,,masks/mask_003.jpg,,,,,,,,,,,,,,,,,,,,,,,,,,,,,,,,,,,,,,,,,,,0,0,0,2,1,,,,,,,,,,,,,,,,,,,,,,,,,,,,,,,,,,,,,,,,,,,,,,
550901,001,2022-11-20_20h59.04.885,Info_measure_main_exp,2022.2.2,Win32,59.96641881,,,,,,,,,,,,,,,,,,masks/mask_004.jpg,,,,,,,,,,,,,,,,,,,,,,,,,,,,,,,,,,,,,,,,,,,0,1,1,3,1,,,,,,,,,,,,,,,,,,,,,,,,,,,,,,,,,,,,,,,,,,,,,,
550901,001,2022-11-20_20h59.04.885,Info_measure_main_exp,2022.2.2,Win32,59.96641881,,,,,,,,,,,,,,,,,,masks/mask_001.jpg,,,,,,,,,,,,,,,,,,,,,,,,,,,,,,,,,,,,,,,,,,,0,2,2,0,1,,,,,,,,,,,,,,,,,,,,,,,,,,,,,,,,,,,,,,,,,,,,,,
550901,001,2022-11-20_20h59.04.885,Info_measure_main_exp,2022.2.2,Win32,59.96641881,,,,,,,,,,,,,,,,,,masks/mask_005.jpg,,,,,,,,,,,,,,,,,,,,,,,,,,,,,,,,,,,,,,,,,,,0,3,3,4,1,,,,,,,,,,,,,,,,,,,,,,,,,,,,,,,,,,,,,,,,,,,,,,
550901,001,2022-11-20_20h59.04.885,Info_measure_main_exp,2022.2.2,Win32,59.96641881,,,,,,,,,,,,,,,,,,masks/mask_002.jpg,,,,,,,,,,,,,,,,,,,,,,,,,,,,,,,,,,,,,,,,,,,0,4,4,1,1,,,,,,,,,,,,,,,,,,,,,,,,,,,,,,,,,,,,,,,,,,,,,,
550901,001,2022-11-20_20h59.04.885,Info_measure_main_exp,2022.2.2,Win32,59.96641881,,,,,,,,,,,,,,,,,,masks/mask_003.jpg,,,,,,,,,,,,,,,,,,,,,,,,,,,,,,,,,,,,,,,,,,,,,,,,0,0,0,2,1,,,,,,,,,,,,,,,,,,,,,,,,,,,,,,,,,,,,,,,,,
550901,001,2022-11-20_20h59.04.885,Info_measure_main_exp,2022.2.2,Win32,59.96641881,,,,,,,,,,,,,,,,,,masks/mask_005.jpg,,,,,,,,,,,,,,,,,,,,,,,,,,,,,,,,,,,,,,,,,,,,,,,,0,1,1,4,1,,,,,,,,,,,,,,,,,,,,,,,,,,,,,,,,,,,,,,,,,
550901,001,2022-11-20_20h59.04.885,Info_measure_main_exp,2022.2.2,Win32,59.96641881,,,,,,,,,,,,,,,,,,masks/mask_001.jpg,,,,,,,,,,,,,,,,,,,,,,,,,,,,,,,,,,,,,,,,,,,,,,,,0,2,2,0,1,,,,,,,,,,,,,,,,,,,,,,,,,,,,,,,,,,,,,,,,,
550901,001,2022-11-20_20h59.04.885,Info_measure_main_exp,2022.2.2,Win32,59.96641881,,,,,,,,,,,,,,,,,,masks/mask_002.jpg,,,,,,,,,,,,,,,,,,,,,,,,,,,,,,,,,,,,,,,,,,,,,,,,0,3,3,1,1,,,,,,,,,,,,,,,,,,,,,,,,,,,,,,,,,,,,,,,,,
550901,001,2022-11-20_20h59.04.885,Info_measure_main_exp,2022.2.2,Win32,59.96641881,,,,,,,,,,,,,,,,,,masks/mask_004.jpg,,,,,,,,,,,,,,,,,,,,,,,,,,,,,,,,,,,,,,,,,,,,,,,,0,4,4,3,1,,,,,,,,,,,,,,,,,,,,,,,,,,,,,,,,,,,,,,,,,
550901,001,2022-11-20_20h59.04.885,Info_measure_main_exp,2022.2.2,Win32,59.96641881,,,,,,,,,,,,,,,,,,,,,,,,,,,,,,2,1.3973,1,,,,,,,,,,,,0,131,5,5,2082,2298,absent_patch/patch0002082.jpg,absent_patch/patch0002298.jpg,,,,,,,,,,,,,,,,,,,,-0.12890625,-0.022135417,1,0,0,response5disk,1,-0.001302083,-0.00390625,1,0,0,center_square,0,0,0,107,1,,,,,,,,,,,,,,,,,,,,,,,
550901,001,2022-11-20_20h59.04.885,Info_measure_main_exp,2022.2.2,Win32,59.96641881,,,,,,,,,,,,,,,,,,masks/mask_003.jpg,,,,,,,,,,,,,,,,,,,,,,,,,,,,,,,,,,,,,,,,,,,0,0,0,2,1,,,,,,,,,,,,,,,,,,,,,,,,,,,,,,,,,,,,,,,,,,,,,,
550901,001,2022-11-20_20h59.04.885,Info_measure_main_exp,2022.2.2,Win32,59.96641881,,,,,,,,,,,,,,,,,,masks/mask_004.jpg,,,,,,,,,,,,,,,,,,,,,,,,,,,,,,,,,,,,,,,,,,,0,1,1,3,1,,,,,,,,,,,,,,,,,,,,,,,,,,,,,,,,,,,,,,,,,,,,,,
550901,001,2022-11-20_20h59.04.885,Info_measure_main_exp,2022.2.2,Win32,59.96641881,,,,,,,,,,,,,,,,,,masks/mask_005.jpg,,,,,,,,,,,,,,,,,,,,,,,,,,,,,,,,,,,,,,,,,,,0,2,2,4,1,,,,,,,,,,,,,,,,,,,,,,,,,,,,,,,,,,,,,,,,,,,,,,
550901,001,2022-11-20_20h59.04.885,Info_measure_main_exp,2022.2.2,Win32,59.96641881,,,,,,,,,,,,,,,,,,masks/mask_001.jpg,,,,,,,,,,,,,,,,,,,,,,,,,,,,,,,,,,,,,,,,,,,0,3,3,0,1,,,,,,,,,,,,,,,,,,,,,,,,,,,,,,,,,,,,,,,,,,,,,,
550901,001,2022-11-20_20h59.04.885,Info_measure_main_exp,2022.2.2,Win32,59.96641881,,,,,,,,,,,,,,,,,,masks/mask_002.jpg,,,,,,,,,,,,,,,,,,,,,,,,,,,,,,,,,,,,,,,,,,,0,4,4,1,1,,,,,,,,,,,,,,,,,,,,,,,,,,,,,,,,,,,,,,,,,,,,,,
550901,001,2022-11-20_20h59.04.885,Info_measure_main_exp,2022.2.2,Win32,59.96641881,,,,,,,,,,,,,,,,,,masks/mask_002.jpg,,,,,,,,,,,,,,,,,,,,,,,,,,,,,,,,,,,,,,,,,,,,,,,,0,0,0,1,1,,,,,,,,,,,,,,,,,,,,,,,,,,,,,,,,,,,,,,,,,
550901,001,2022-11-20_20h59.04.885,Info_measure_main_exp,2022.2.2,Win32,59.96641881,,,,,,,,,,,,,,,,,,masks/mask_003.jpg,,,,,,,,,,,,,,,,,,,,,,,,,,,,,,,,,,,,,,,,,,,,,,,,0,1,1,2,1,,,,,,,,,,,,,,,,,,,,,,,,,,,,,,,,,,,,,,,,,
550901,001,2022-11-20_20h59.04.885,Info_measure_main_exp,2022.2.2,Win32,59.96641881,,,,,,,,,,,,,,,,,,masks/mask_004.jpg,,,,,,,,,,,,,,,,,,,,,,,,,,,,,,,,,,,,,,,,,,,,,,,,0,2,2,3,1,,,,,,,,,,,,,,,,,,,,,,,,,,,,,,,,,,,,,,,,,
550901,001,2022-11-20_20h59.04.885,Info_measure_main_exp,2022.2.2,Win32,59.96641881,,,,,,,,,,,,,,,,,,masks/mask_005.jpg,,,,,,,,,,,,,,,,,,,,,,,,,,,,,,,,,,,,,,,,,,,,,,,,0,3,3,4,1,,,,,,,,,,,,,,,,,,,,,,,,,,,,,,,,,,,,,,,,,
550901,001,2022-11-20_20h59.04.885,Info_measure_main_exp,2022.2.2,Win32,59.96641881,,,,,,,,,,,,,,,,,,masks/mask_001.jpg,,,,,,,,,,,,,,,,,,,,,,,,,,,,,,,,,,,,,,,,,,,,,,,,0,4,4,0,1,,,,,,,,,,,,,,,,,,,,,,,,,,,,,,,,,,,,,,,,,
550901,001,2022-11-20_20h59.04.885,Info_measure_main_exp,2022.2.2,Win32,59.96641881,,,,,,,,,,,,,,,,,,,,,,,,,,,,,,4,1.6631,1,,,,,,,,,,,,0,131,5,5,2250,2178,absent_patch/patch0002250.jpg,absent_patch/patch0002178.jpg,,,,,,,,,,,,,,,,,,,,0.00390625,-0.0859375,1,0,0,response3disk,2,0.0078125,-0.002604167,1,0,0,center_square,0,1,1,48,1,,,,,,,,,,,,,,,,,,,,,,,
550901,001,2022-11-20_20h59.04.885,Info_measure_main_exp,2022.2.2,Win32,59.96641881,,,,,,,,,,,,,,,,,,masks/mask_003.jpg,,,,,,,,,,,,,,,,,,,,,,,,,,,,,,,,,,,,,,,,,,,0,0,0,2,1,,,,,,,,,,,,,,,,,,,,,,,,,,,,,,,,,,,,,,,,,,,,,,
550901,001,2022-11-20_20h59.04.885,Info_measure_main_exp,2022.2.2,Win32,59.96641881,,,,,,,,,,,,,,,,,,masks/mask_002.jpg,,,,,,,,,,,,,,,,,,,,,,,,,,,,,,,,,,,,,,,,,,,0,1,1,1,1,,,,,,,,,,,,,,,,,,,,,,,,,,,,,,,,,,,,,,,,,,,,,,
550901,001,2022-11-20_20h59.04.885,Info_measure_main_exp,2022.2.2,Win32,59.96641881,,,,,,,,,,,,,,,,,,masks/mask_001.jpg,,,,,,,,,,,,,,,,,,,,,,,,,,,,,,,,,,,,,,,,,,,0,2,2,0,1,,,,,,,,,,,,,,,,,,,,,,,,,,,,,,,,,,,,,,,,,,,,,,
550901,001,2022-11-20_20h59.04.885,Info_measure_main_exp,2022.2.2,Win32,59.96641881,,,,,,,,,,,,,,,,,,masks/mask_005.jpg,,,,,,,,,,,,,,,,,,,,,,,,,,,,,,,,,,,,,,,,,,,0,3,3,4,1,,,,,,,,,,,,,,,,,,,,,,,,,,,,,,,,,,,,,,,,,,,,,,
550901,001,2022-11-20_20h59.04.885,Info_measure_main_exp,2022.2.2,Win32,59.96641881,,,,,,,,,,,,,,,,,,masks/mask_004.jpg,,,,,,,,,,,,,,,,,,,,,,,,,,,,,,,,,,,,,,,,,,,0,4,4,3,1,,,,,,,,,,,,,,,,,,,,,,,,,,,,,,,,,,,,,,,,,,,,,,
550901,001,2022-11-20_20h59.04.885,Info_measure_main_exp,2022.2.2,Win32,59.96641881,,,,,,,,,,,,,,,,,,masks/mask_003.jpg,,,,,,,,,,,,,,,,,,,,,,,,,,,,,,,,,,,,,,,,,,,,,,,,0,0,0,2,1,,,,,,,,,,,,,,,,,,,,,,,,,,,,,,,,,,,,,,,,,
550901,001,2022-11-20_20h59.04.885,Info_measure_main_exp,2022.2.2,Win32,59.96641881,,,,,,,,,,,,,,,,,,masks/mask_002.jpg,,,,,,,,,,,,,,,,,,,,,,,,,,,,,,,,,,,,,,,,,,,,,,,,0,1,1,1,1,,,,,,,,,,,,,,,,,,,,,,,,,,,,,,,,,,,,,,,,,
550901,001,2022-11-20_20h59.04.885,Info_measure_main_exp,2022.2.2,Win32,59.96641881,,,,,,,,,,,,,,,,,,masks/mask_004.jpg,,,,,,,,,,,,,,,,,,,,,,,,,,,,,,,,,,,,,,,,,,,,,,,,0,2,2,3,1,,,,,,,,,,,,,,,,,,,,,,,,,,,,,,,,,,,,,,,,,
550901,001,2022-11-20_20h59.04.885,Info_measure_main_exp,2022.2.2,Win32,59.96641881,,,,,,,,,,,,,,,,,,masks/mask_001.jpg,,,,,,,,,,,,,,,,,,,,,,,,,,,,,,,,,,,,,,,,,,,,,,,,0,3,3,0,1,,,,,,,,,,,,,,,,,,,,,,,,,,,,,,,,,,,,,,,,,
550901,001,2022-11-20_20h59.04.885,Info_measure_main_exp,2022.2.2,Win32,59.96641881,,,,,,,,,,,,,,,,,,masks/mask_005.jpg,,,,,,,,,,,,,,,,,,,,,,,,,,,,,,,,,,,,,,,,,,,,,,,,0,4,4,4,1,,,,,,,,,,,,,,,,,,,,,,,,,,,,,,,,,,,,,,,,,
550901,001,2022-11-20_20h59.04.885,Info_measure_main_exp,2022.2.2,Win32,59.96641881,,,,,,,,,,,,,,,,,,,,,,,,,,,,,,2,1.7097,1,,,,,,,,,,,,1,131,5,5,1,1986,present_patch/cong_131_5_a.jpg,absent_patch/patch0001986.jpg,,,,,,,,,,,,,,,,,,,,-0.100260417,-0.0390625,1,0,0,response5disk,3,0.001302083,-0.006510417,1,0,0,center_square,0,2,2,106,1,,,,,,,,,,,,,,,,,,,,,,,
550901,001,2022-11-20_20h59.04.885,Info_measure_main_exp,2022.2.2,Win32,59.96641881,,,,,,,,,,,,,,,,,,masks/mask_001.jpg,,,,,,,,,,,,,,,,,,,,,,,,,,,,,,,,,,,,,,,,,,,0,0,0,0,1,,,,,,,,,,,,,,,,,,,,,,,,,,,,,,,,,,,,,,,,,,,,,,
550901,001,2022-11-20_20h59.04.885,Info_measure_main_exp,2022.2.2,Win32,59.96641881,,,,,,,,,,,,,,,,,,masks/mask_004.jpg,,,,,,,,,,,,,,,,,,,,,,,,,,,,,,,,,,,,,,,,,,,0,1,1,3,1,,,,,,,,,,,,,,,,,,,,,,,,,,,,,,,,,,,,,,,,,,,,,,
550901,001,2022-11-20_20h59.04.885,Info_measure_main_exp,2022.2.2,Win32,59.96641881,,,,,,,,,,,,,,,,,,masks/mask_002.jpg,,,,,,,,,,,,,,,,,,,,,,,,,,,,,,,,,,,,,,,,,,,0,2,2,1,1,,,,,,,,,,,,,,,,,,,,,,,,,,,,,,,,,,,,,,,,,,,,,,
550901,001,2022-11-20_20h59.04.885,Info_measure_main_exp,2022.2.2,Win32,59.96641881,,,,,,,,,,,,,,,,,,masks/mask_003.jpg,,,,,,,,,,,,,,,,,,,,,,,,,,,,,,,,,,,,,,,,,,,0,3,3,2,1,,,,,,,,,,,,,,,,,,,,,,,,,,,,,,,,,,,,,,,,,,,,,,
550901,001,2022-11-20_20h59.04.885,Info_measure_main_exp,2022.2.2,Win32,59.96641881,,,,,,,,,,,,,,,,,,masks/mask_005.jpg,,,,,,,,,,,,,,,,,,,,,,,,,,,,,,,,,,,,,,,,,,,0,4,4,4,1,,,,,,,,,,,,,,,,,,,,,,,,,,,,,,,,,,,,,,,,,,,,,,
550901,001,2022-11-20_20h59.04.885,Info_measure_main_exp,2022.2.2,Win32,59.96641881,,,,,,,,,,,,,,,,,,masks/mask_001.jpg,,,,,,,,,,,,,,,,,,,,,,,,,,,,,,,,,,,,,,,,,,,,,,,,0,0,0,0,1,,,,,,,,,,,,,,,,,,,,,,,,,,,,,,,,,,,,,,,,,
550901,001,2022-11-20_20h59.04.885,Info_measure_main_exp,2022.2.2,Win32,59.96641881,,,,,,,,,,,,,,,,,,masks/mask_005.jpg,,,,,,,,,,,,,,,,,,,,,,,,,,,,,,,,,,,,,,,,,,,,,,,,0,1,1,4,1,,,,,,,,,,,,,,,,,,,,,,,,,,,,,,,,,,,,,,,,,
550901,001,2022-11-20_20h59.04.885,Info_measure_main_exp,2022.2.2,Win32,59.96641881,,,,,,,,,,,,,,,,,,masks/mask_003.jpg,,,,,,,,,,,,,,,,,,,,,,,,,,,,,,,,,,,,,,,,,,,,,,,,0,2,2,2,1,,,,,,,,,,,,,,,,,,,,,,,,,,,,,,,,,,,,,,,,,
550901,001,2022-11-20_20h59.04.885,Info_measure_main_exp,2022.2.2,Win32,59.96641881,,,,,,,,,,,,,,,,,,masks/mask_002.jpg,,,,,,,,,,,,,,,,,,,,,,,,,,,,,,,,,,,,,,,,,,,,,,,,0,3,3,1,1,,,,,,,,,,,,,,,,,,,,,,,,,,,,,,,,,,,,,,,,,
550901,001,2022-11-20_20h59.04.885,Info_measure_main_exp,2022.2.2,Win32,59.96641881,,,,,,,,,,,,,,,,,,masks/mask_004.jpg,,,,,,,,,,,,,,,,,,,,,,,,,,,,,,,,,,,,,,,,,,,,,,,,0,4,4,3,1,,,,,,,,,,,,,,,,,,,,,,,,,,,,,,,,,,,,,,,,,
550901,001,2022-11-20_20h59.04.885,Info_measure_main_exp,2022.2.2,Win32,59.96641881,,,,,,,,,,,,,,,,,,,,,,,,,,,,,,6,1.7175,1,,,,,,,,,,,,0,131,5,5,2250,1986,absent_patch/patch0002250.jpg,absent_patch/patch0001986.jpg,,,,,,,,,,,,,,,,,,,,0.139322917,0.0234375,1,0,0,response1disk,4,0.00390625,0.005208333,1,0,0,center_square,0,3,3,29,1,,,,,,,,,,,,,,,,,,,,,,,
550901,001,2022-11-20_20h59.04.885,Info_measure_main_exp,2022.2.2,Win32,59.96641881,,,,,,,,,,,,,,,,,,masks/mask_002.jpg,,,,,,,,,,,,,,,,,,,,,,,,,,,,,,,,,,,,,,,,,,,0,0,0,1,1,,,,,,,,,,,,,,,,,,,,,,,,,,,,,,,,,,,,,,,,,,,,,,
550901,001,2022-11-20_20h59.04.885,Info_measure_main_exp,2022.2.2,Win32,59.96641881,,,,,,,,,,,,,,,,,,masks/mask_004.jpg,,,,,,,,,,,,,,,,,,,,,,,,,,,,,,,,,,,,,,,,,,,0,1,1,3,1,,,,,,,,,,,,,,,,,,,,,,,,,,,,,,,,,,,,,,,,,,,,,,
550901,001,2022-11-20_20h59.04.885,Info_measure_main_exp,2022.2.2,Win32,59.96641881,,,,,,,,,,,,,,,,,,masks/mask_001.jpg,,,,,,,,,,,,,,,,,,,,,,,,,,,,,,,,,,,,,,,,,,,0,2,2,0,1,,,,,,,,,,,,,,,,,,,,,,,,,,,,,,,,,,,,,,,,,,,,,,
550901,001,2022-11-20_20h59.04.885,Info_measure_main_exp,2022.2.2,Win32,59.96641881,,,,,,,,,,,,,,,,,,masks/mask_003.jpg,,,,,,,,,,,,,,,,,,,,,,,,,,,,,,,,,,,,,,,,,,,0,3,3,2,1,,,,,,,,,,,,,,,,,,,,,,,,,,,,,,,,,,,,,,,,,,,,,,
550901,001,2022-11-20_20h59.04.885,Info_measure_main_exp,2022.2.2,Win32,59.96641881,,,,,,,,,,,,,,,,,,masks/mask_005.jpg,,,,,,,,,,,,,,,,,,,,,,,,,,,,,,,,,,,,,,,,,,,0,4,4,4,1,,,,,,,,,,,,,,,,,,,,,,,,,,,,,,,,,,,,,,,,,,,,,,
550901,001,2022-11-20_20h59.04.885,Info_measure_main_exp,2022.2.2,Win32,59.96641881,,,,,,,,,,,,,,,,,,masks/mask_004.jpg,,,,,,,,,,,,,,,,,,,,,,,,,,,,,,,,,,,,,,,,,,,,,,,,0,0,0,3,1,,,,,,,,,,,,,,,,,,,,,,,,,,,,,,,,,,,,,,,,,
550901,001,2022-11-20_20h59.04.885,Info_measure_main_exp,2022.2.2,Win32,59.96641881,,,,,,,,,,,,,,,,,,masks/mask_001.jpg,,,,,,,,,,,,,,,,,,,,,,,,,,,,,,,,,,,,,,,,,,,,,,,,0,1,1,0,1,,,,,,,,,,,,,,,,,,,,,,,,,,,,,,,,,,,,,,,,,
550901,001,2022-11-20_20h59.04.885,Info_measure_main_exp,2022.2.2,Win32,59.96641881,,,,,,,,,,,,,,,,,,masks/mask_005.jpg,,,,,,,,,,,,,,,,,,,,,,,,,,,,,,,,,,,,,,,,,,,,,,,,0,2,2,4,1,,,,,,,,,,,,,,,,,,,,,,,,,,,,,,,,,,,,,,,,,
550901,001,2022-11-20_20h59.04.885,Info_measure_main_exp,2022.2.2,Win32,59.96641881,,,,,,,,,,,,,,,,,,masks/mask_002.jpg,,,,,,,,,,,,,,,,,,,,,,,,,,,,,,,,,,,,,,,,,,,,,,,,0,3,3,1,1,,,,,,,,,,,,,,,,,,,,,,,,,,,,,,,,,,,,,,,,,
550901,001,2022-11-20_20h59.04.885,Info_measure_main_exp,2022.2.2,Win32,59.96641881,,,,,,,,,,,,,,,,,,masks/mask_003.jpg,,,,,,,,,,,,,,,,,,,,,,,,,,,,,,,,,,,,,,,,,,,,,,,,0,4,4,2,1,,,,,,,,,,,,,,,,,,,,,,,,,,,,,,,,,,,,,,,,,
550901,001,2022-11-20_20h59.04.885,Info_measure_main_exp,2022.2.2,Win32,59.96641881,,,,,,,,,,,,,,,,,,,,,,,,,,,,,,7,0.9032,1,,,,,,,,,,,,0,131,5,5,2142,2154,absent_patch/patch0002142.jpg,absent_patch/patch0002154.jpg,,,,,,,,,,,,,,,,,,,,0.065104167,0.126302083,1,0,0,response1disk,5,0.00390625,-0.01171875,1,0,0,center_square,0,4,4,9,1,,,,,,,,,,,,,,,,,,,,,,,
550901,001,2022-11-20_20h59.04.885,Info_measure_main_exp,2022.2.2,Win32,59.96641881,,,,,,,,,,,,,,,,,,masks/mask_004.jpg,,,,,,,,,,,,,,,,,,,,,,,,,,,,,,,,,,,,,,,,,,,0,0,0,3,1,,,,,,,,,,,,,,,,,,,,,,,,,,,,,,,,,,,,,,,,,,,,,,
550901,001,2022-11-20_20h59.04.885,Info_measure_main_exp,2022.2.2,Win32,59.96641881,,,,,,,,,,,,,,,,,,masks/mask_002.jpg,,,,,,,,,,,,,,,,,,,,,,,,,,,,,,,,,,,,,,,,,,,0,1,1,1,1,,,,,,,,,,,,,,,,,,,,,,,,,,,,,,,,,,,,,,,,,,,,,,
550901,001,2022-11-20_20h59.04.885,Info_measure_main_exp,2022.2.2,Win32,59.96641881,,,,,,,,,,,,,,,,,,masks/mask_003.jpg,,,,,,,,,,,,,,,,,,,,,,,,,,,,,,,,,,,,,,,,,,,0,2,2,2,1,,,,,,,,,,,,,,,,,,,,,,,,,,,,,,,,,,,,,,,,,,,,,,
550901,001,2022-11-20_20h59.04.885,Info_measure_main_exp,2022.2.2,Win32,59.96641881,,,,,,,,,,,,,,,,,,masks/mask_001.jpg,,,,,,,,,,,,,,,,,,,,,,,,,,,,,,,,,,,,,,,,,,,0,3,3,0,1,,,,,,,,,,,,,,,,,,,,,,,,,,,,,,,,,,,,,,,,,,,,,,
550901,001,2022-11-20_20h59.04.885,Info_measure_main_exp,2022.2.2,Win32,59.96641881,,,,,,,,,,,,,,,,,,masks/mask_005.jpg,,,,,,,,,,,,,,,,,,,,,,,,,,,,,,,,,,,,,,,,,,,0,4,4,4,1,,,,,,,,,,,,,,,,,,,,,,,,,,,,,,,,,,,,,,,,,,,,,,
550901,001,2022-11-20_20h59.04.885,Info_measure_main_exp,2022.2.2,Win32,59.96641881,,,,,,,,,,,,,,,,,,masks/mask_001.jpg,,,,,,,,,,,,,,,,,,,,,,,,,,,,,,,,,,,,,,,,,,,,,,,,0,0,0,0,1,,,,,,,,,,,,,,,,,,,,,,,,,,,,,,,,,,,,,,,,,
550901,001,2022-11-20_20h59.04.885,Info_measure_main_exp,2022.2.2,Win32,59.96641881,,,,,,,,,,,,,,,,,,masks/mask_002.jpg,,,,,,,,,,,,,,,,,,,,,,,,,,,,,,,,,,,,,,,,,,,,,,,,0,1,1,1,1,,,,,,,,,,,,,,,,,,,,,,,,,,,,,,,,,,,,,,,,,
550901,001,2022-11-20_20h59.04.885,Info_measure_main_exp,2022.2.2,Win32,59.96641881,,,,,,,,,,,,,,,,,,masks/mask_003.jpg,,,,,,,,,,,,,,,,,,,,,,,,,,,,,,,,,,,,,,,,,,,,,,,,0,2,2,2,1,,,,,,,,,,,,,,,,,,,,,,,,,,,,,,,,,,,,,,,,,
550901,001,2022-11-20_20h59.04.885,Info_measure_main_exp,2022.2.2,Win32,59.96641881,,,,,,,,,,,,,,,,,,masks/mask_004.jpg,,,,,,,,,,,,,,,,,,,,,,,,,,,,,,,,,,,,,,,,,,,,,,,,0,3,3,3,1,,,,,,,,,,,,,,,,,,,,,,,,,,,,,,,,,,,,,,,,,
550901,001,2022-11-20_20h59.04.885,Info_measure_main_exp,2022.2.2,Win32,59.96641881,,,,,,,,,,,,,,,,,,masks/mask_005.jpg,,,,,,,,,,,,,,,,,,,,,,,,,,,,,,,,,,,,,,,,,,,,,,,,0,4,4,4,1,,,,,,,,,,,,,,,,,,,,,,,,,,,,,,,,,,,,,,,,,
550901,001,2022-11-20_20h59.04.885,Info_measure_main_exp,2022.2.2,Win32,59.96641881,,,,,,,,,,,,,,,,,,,,,,,,,,,,,,6,1.8135,1,,,,,,,,,,,,0,131,5,5,1986,1974,absent_patch/patch0001986.jpg,absent_patch/patch0001974.jpg,,,,,,,,,,,,,,,,,,,,0.084635417,0.048177083,1,0,0,response1disk,6,0.005208333,-0.001302083,1,0,0,center_square,0,5,5,25,1,,,,,,,,,,,,,,,,,,,,,,,
550901,001,2022-11-20_20h59.04.885,Info_measure_main_exp,2022.2.2,Win32,59.96641881,,,,,,,,,,,,,,,,,,masks/mask_003.jpg,,,,,,,,,,,,,,,,,,,,,,,,,,,,,,,,,,,,,,,,,,,0,0,0,2,1,,,,,,,,,,,,,,,,,,,,,,,,,,,,,,,,,,,,,,,,,,,,,,
550901,001,2022-11-20_20h59.04.885,Info_measure_main_exp,2022.2.2,Win32,59.96641881,,,,,,,,,,,,,,,,,,masks/mask_001.jpg,,,,,,,,,,,,,,,,,,,,,,,,,,,,,,,,,,,,,,,,,,,0,1,1,0,1,,,,,,,,,,,,,,,,,,,,,,,,,,,,,,,,,,,,,,,,,,,,,,
550901,001,2022-11-20_20h59.04.885,Info_measure_main_exp,2022.2.2,Win32,59.96641881,,,,,,,,,,,,,,,,,,masks/mask_005.jpg,,,,,,,,,,,,,,,,,,,,,,,,,,,,,,,,,,,,,,,,,,,0,2,2,4,1,,,,,,,,,,,,,,,,,,,,,,,,,,,,,,,,,,,,,,,,,,,,,,
550901,001,2022-11-20_20h59.04.885,Info_measure_main_exp,2022.2.2,Win32,59.96641881,,,,,,,,,,,,,,,,,,masks/mask_004.jpg,,,,,,,,,,,,,,,,,,,,,,,,,,,,,,,,,,,,,,,,,,,0,3,3,3,1,,,,,,,,,,,,,,,,,,,,,,,,,,,,,,,,,,,,,,,,,,,,,,
550901,001,2022-11-20_20h59.04.885,Info_measure_main_exp,2022.2.2,Win32,59.96641881,,,,,,,,,,,,,,,,,,masks/mask_002.jpg,,,,,,,,,,,,,,,,,,,,,,,,,,,,,,,,,,,,,,,,,,,0,4,4,1,1,,,,,,,,,,,,,,,,,,,,,,,,,,,,,,,,,,,,,,,,,,,,,,
550901,001,2022-11-20_20h59.04.885,Info_measure_main_exp,2022.2.2,Win32,59.96641881,,,,,,,,,,,,,,,,,,masks/mask_003.jpg,,,,,,,,,,,,,,,,,,,,,,,,,,,,,,,,,,,,,,,,,,,,,,,,0,0,0,2,1,,,,,,,,,,,,,,,,,,,,,,,,,,,,,,,,,,,,,,,,,
550901,001,2022-11-20_20h59.04.885,Info_measure_main_exp,2022.2.2,Win32,59.96641881,,,,,,,,,,,,,,,,,,masks/mask_002.jpg,,,,,,,,,,,,,,,,,,,,,,,,,,,,,,,,,,,,,,,,,,,,,,,,0,1,1,1,1,,,,,,,,,,,,,,,,,,,,,,,,,,,,,,,,,,,,,,,,,
550901,001,2022-11-20_20h59.04.885,Info_measure_main_exp,2022.2.2,Win32,59.96641881,,,,,,,,,,,,,,,,,,masks/mask_005.jpg,,,,,,,,,,,,,,,,,,,,,,,,,,,,,,,,,,,,,,,,,,,,,,,,0,2,2,4,1,,,,,,,,,,,,,,,,,,,,,,,,,,,,,,,,,,,,,,,,,
550901,001,2022-11-20_20h59.04.885,Info_measure_main_exp,2022.2.2,Win32,59.96641881,,,,,,,,,,,,,,,,,,masks/mask_004.jpg,,,,,,,,,,,,,,,,,,,,,,,,,,,,,,,,,,,,,,,,,,,,,,,,0,3,3,3,1,,,,,,,,,,,,,,,,,,,,,,,,,,,,,,,,,,,,,,,,,
550901,001,2022-11-20_20h59.04.885,Info_measure_main_exp,2022.2.2,Win32,59.96641881,,,,,,,,,,,,,,,,,,masks/mask_001.jpg,,,,,,,,,,,,,,,,,,,,,,,,,,,,,,,,,,,,,,,,,,,,,,,,0,4,4,0,1,,,,,,,,,,,,,,,,,,,,,,,,,,,,,,,,,,,,,,,,,
550901,001,2022-11-20_20h59.04.885,Info_measure_main_exp,2022.2.2,Win32,59.96641881,,,,,,,,,,,,,,,,,,,,,,,,,,,,,,4,1.7356,1,,,,,,,,,,,,0,131,5,5,2082,2178,absent_patch/patch0002082.jpg,absent_patch/patch0002178.jpg,,,,,,,,,,,,,,,,,,,,0.022135417,-0.079427083,1,0,0,response3disk,7,-0.001302083,0.0078125,1,0,0,center_square,0,6,6,2,1,,,,,,,,,,,,,,,,,,,,,,,
550901,001,2022-11-20_20h59.04.885,Info_measure_main_exp,2022.2.2,Win32,59.96641881,,,,,,,,,,,,,,,,,,masks/mask_005.jpg,,,,,,,,,,,,,,,,,,,,,,,,,,,,,,,,,,,,,,,,,,,0,0,0,4,1,,,,,,,,,,,,,,,,,,,,,,,,,,,,,,,,,,,,,,,,,,,,,,
550901,001,2022-11-20_20h59.04.885,Info_measure_main_exp,2022.2.2,Win32,59.96641881,,,,,,,,,,,,,,,,,,masks/mask_002.jpg,,,,,,,,,,,,,,,,,,,,,,,,,,,,,,,,,,,,,,,,,,,0,1,1,1,1,,,,,,,,,,,,,,,,,,,,,,,,,,,,,,,,,,,,,,,,,,,,,,
550901,001,2022-11-20_20h59.04.885,Info_measure_main_exp,2022.2.2,Win32,59.96641881,,,,,,,,,,,,,,,,,,masks/mask_003.jpg,,,,,,,,,,,,,,,,,,,,,,,,,,,,,,,,,,,,,,,,,,,0,2,2,2,1,,,,,,,,,,,,,,,,,,,,,,,,,,,,,,,,,,,,,,,,,,,,,,
550901,001,2022-11-20_20h59.04.885,Info_measure_main_exp,2022.2.2,Win32,59.96641881,,,,,,,,,,,,,,,,,,masks/mask_004.jpg,,,,,,,,,,,,,,,,,,,,,,,,,,,,,,,,,,,,,,,,,,,0,3,3,3,1,,,,,,,,,,,,,,,,,,,,,,,,,,,,,,,,,,,,,,,,,,,,,,
550901,001,2022-11-20_20h59.04.885,Info_measure_main_exp,2022.2.2,Win32,59.96641881,,,,,,,,,,,,,,,,,,masks/mask_001.jpg,,,,,,,,,,,,,,,,,,,,,,,,,,,,,,,,,,,,,,,,,,,0,4,4,0,1,,,,,,,,,,,,,,,,,,,,,,,,,,,,,,,,,,,,,,,,,,,,,,
550901,001,2022-11-20_20h59.04.885,Info_measure_main_exp,2022.2.2,Win32,59.96641881,,,,,,,,,,,,,,,,,,masks/mask_005.jpg,,,,,,,,,,,,,,,,,,,,,,,,,,,,,,,,,,,,,,,,,,,,,,,,0,0,0,4,1,,,,,,,,,,,,,,,,,,,,,,,,,,,,,,,,,,,,,,,,,
550901,001,2022-11-20_20h59.04.885,Info_measure_main_exp,2022.2.2,Win32,59.96641881,,,,,,,,,,,,,,,,,,masks/mask_002.jpg,,,,,,,,,,,,,,,,,,,,,,,,,,,,,,,,,,,,,,,,,,,,,,,,0,1,1,1,1,,,,,,,,,,,,,,,,,,,,,,,,,,,,,,,,,,,,,,,,,
550901,001,2022-11-20_20h59.04.885,Info_measure_main_exp,2022.2.2,Win32,59.96641881,,,,,,,,,,,,,,,,,,masks/mask_004.jpg,,,,,,,,,,,,,,,,,,,,,,,,,,,,,,,,,,,,,,,,,,,,,,,,0,2,2,3,1,,,,,,,,,,,,,,,,,,,,,,,,,,,,,,,,,,,,,,,,,
550901,001,2022-11-20_20h59.04.885,Info_measure_main_exp,2022.2.2,Win32,59.96641881,,,,,,,,,,,,,,,,,,masks/mask_003.jpg,,,,,,,,,,,,,,,,,,,,,,,,,,,,,,,,,,,,,,,,,,,,,,,,0,3,3,2,1,,,,,,,,,,,,,,,,,,,,,,,,,,,,,,,,,,,,,,,,,
550901,001,2022-11-20_20h59.04.885,Info_measure_main_exp,2022.2.2,Win32,59.96641881,,,,,,,,,,,,,,,,,,masks/mask_001.jpg,,,,,,,,,,,,,,,,,,,,,,,,,,,,,,,,,,,,,,,,,,,,,,,,0,4,4,0,1,,,,,,,,,,,,,,,,,,,,,,,,,,,,,,,,,,,,,,,,,
550901,001,2022-11-20_20h59.04.885,Info_measure_main_exp,2022.2.2,Win32,59.96641881,,,,,,,,,,,,,,,,,,,,,,,,,,,,,,3,1.6983,1,,,,,,,,,,,,0,131,5,5,2178,2142,absent_patch/patch0002178.jpg,absent_patch/patch0002142.jpg,,,,,,,,,,,,,,,,,,,,-0.045572917,-0.078125,1,0,0,response5disk,8,0.0078125,0.005208333,1,0,0,center_square,0,7,7,41,1,,,,,,,,,,,,,,,,,,,,,,,
550901,001,2022-11-20_20h59.04.885,Info_measure_main_exp,2022.2.2,Win32,59.96641881,,,,,,,,,,,,,,,,,,masks/mask_003.jpg,,,,,,,,,,,,,,,,,,,,,,,,,,,,,,,,,,,,,,,,,,,0,0,0,2,1,,,,,,,,,,,,,,,,,,,,,,,,,,,,,,,,,,,,,,,,,,,,,,
550901,001,2022-11-20_20h59.04.885,Info_measure_main_exp,2022.2.2,Win32,59.96641881,,,,,,,,,,,,,,,,,,masks/mask_005.jpg,,,,,,,,,,,,,,,,,,,,,,,,,,,,,,,,,,,,,,,,,,,0,1,1,4,1,,,,,,,,,,,,,,,,,,,,,,,,,,,,,,,,,,,,,,,,,,,,,,
550901,001,2022-11-20_20h59.04.885,Info_measure_main_exp,2022.2.2,Win32,59.96641881,,,,,,,,,,,,,,,,,,masks/mask_002.jpg,,,,,,,,,,,,,,,,,,,,,,,,,,,,,,,,,,,,,,,,,,,0,2,2,1,1,,,,,,,,,,,,,,,,,,,,,,,,,,,,,,,,,,,,,,,,,,,,,,
550901,001,2022-11-20_20h59.04.885,Info_measure_main_exp,2022.2.2,Win32,59.96641881,,,,,,,,,,,,,,,,,,masks/mask_001.jpg,,,,,,,,,,,,,,,,,,,,,,,,,,,,,,,,,,,,,,,,,,,0,3,3,0,1,,,,,,,,,,,,,,,,,,,,,,,,,,,,,,,,,,,,,,,,,,,,,,
550901,001,2022-11-20_20h59.04.885,Info_measure_main_exp,2022.2.2,Win32,59.96641881,,,,,,,,,,,,,,,,,,masks/mask_004.jpg,,,,,,,,,,,,,,,,,,,,,,,,,,,,,,,,,,,,,,,,,,,0,4,4,3,1,,,,,,,,,,,,,,,,,,,,,,,,,,,,,,,,,,,,,,,,,,,,,,
550901,001,2022-11-20_20h59.04.885,Info_measure_main_exp,2022.2.2,Win32,59.96641881,,,,,,,,,,,,,,,,,,masks/mask_003.jpg,,,,,,,,,,,,,,,,,,,,,,,,,,,,,,,,,,,,,,,,,,,,,,,,0,0,0,2,1,,,,,,,,,,,,,,,,,,,,,,,,,,,,,,,,,,,,,,,,,
550901,001,2022-11-20_20h59.04.885,Info_measure_main_exp,2022.2.2,Win32,59.96641881,,,,,,,,,,,,,,,,,,masks/mask_002.jpg,,,,,,,,,,,,,,,,,,,,,,,,,,,,,,,,,,,,,,,,,,,,,,,,0,1,1,1,1,,,,,,,,,,,,,,,,,,,,,,,,,,,,,,,,,,,,,,,,,
550901,001,2022-11-20_20h59.04.885,Info_measure_main_exp,2022.2.2,Win32,59.96641881,,,,,,,,,,,,,,,,,,masks/mask_001.jpg,,,,,,,,,,,,,,,,,,,,,,,,,,,,,,,,,,,,,,,,,,,,,,,,0,2,2,0,1,,,,,,,,,,,,,,,,,,,,,,,,,,,,,,,,,,,,,,,,,
550901,001,2022-11-20_20h59.04.885,Info_measure_main_exp,2022.2.2,Win32,59.96641881,,,,,,,,,,,,,,,,,,masks/mask_005.jpg,,,,,,,,,,,,,,,,,,,,,,,,,,,,,,,,,,,,,,,,,,,,,,,,0,3,3,4,1,,,,,,,,,,,,,,,,,,,,,,,,,,,,,,,,,,,,,,,,,
550901,001,2022-11-20_20h59.04.885,Info_measure_main_exp,2022.2.2,Win32,59.96641881,,,,,,,,,,,,,,,,,,masks/mask_004.jpg,,,,,,,,,,,,,,,,,,,,,,,,,,,,,,,,,,,,,,,,,,,,,,,,0,4,4,3,1,,,,,,,,,,,,,,,,,,,,,,,,,,,,,,,,,,,,,,,,,
550901,001,2022-11-20_20h59.04.885,Info_measure_main_exp,2022.2.2,Win32,59.96641881,,,,,,,,,,,,,,,,,,,,,,,,,,,,,,3,2.2673,1,,,,,,,,,,,,0,131,5,5,2250,2298,absent_patch/patch0002250.jpg,absent_patch/patch0002298.jpg,,,,,,,,,,,,,,,,,,,,-0.049479167,-0.076822917,1,0,0,response5disk,9,-0.009114583,-0.002604167,1,0,0,center_square,0,8,8,59,1,,,,,,,,,,,,,,,,,,,,,,,
550901,001,2022-11-20_20h59.04.885,Info_measure_main_exp,2022.2.2,Win32,59.96641881,,,,,,,,,,,,,,,,,,masks/mask_002.jpg,,,,,,,,,,,,,,,,,,,,,,,,,,,,,,,,,,,,,,,,,,,0,0,0,1,1,,,,,,,,,,,,,,,,,,,,,,,,,,,,,,,,,,,,,,,,,,,,,,
550901,001,2022-11-20_20h59.04.885,Info_measure_main_exp,2022.2.2,Win32,59.96641881,,,,,,,,,,,,,,,,,,masks/mask_003.jpg,,,,,,,,,,,,,,,,,,,,,,,,,,,,,,,,,,,,,,,,,,,0,1,1,2,1,,,,,,,,,,,,,,,,,,,,,,,,,,,,,,,,,,,,,,,,,,,,,,
550901,001,2022-11-20_20h59.04.885,Info_measure_main_exp,2022.2.2,Win32,59.96641881,,,,,,,,,,,,,,,,,,masks/mask_005.jpg,,,,,,,,,,,,,,,,,,,,,,,,,,,,,,,,,,,,,,,,,,,0,2,2,4,1,,,,,,,,,,,,,,,,,,,,,,,,,,,,,,,,,,,,,,,,,,,,,,
550901,001,2022-11-20_20h59.04.885,Info_measure_main_exp,2022.2.2,Win32,59.96641881,,,,,,,,,,,,,,,,,,masks/mask_001.jpg,,,,,,,,,,,,,,,,,,,,,,,,,,,,,,,,,,,,,,,,,,,0,3,3,0,1,,,,,,,,,,,,,,,,,,,,,,,,,,,,,,,,,,,,,,,,,,,,,,
550901,001,2022-11-20_20h59.04.885,Info_measure_main_exp,2022.2.2,Win32,59.96641881,,,,,,,,,,,,,,,,,,masks/mask_004.jpg,,,,,,,,,,,,,,,,,,,,,,,,,,,,,,,,,,,,,,,,,,,0,4,4,3,1,,,,,,,,,,,,,,,,,,,,,,,,,,,,,,,,,,,,,,,,,,,,,,
550901,001,2022-11-20_20h59.04.885,Info_measure_main_exp,2022.2.2,Win32,59.96641881,,,,,,,,,,,,,,,,,,masks/mask_003.jpg,,,,,,,,,,,,,,,,,,,,,,,,,,,,,,,,,,,,,,,,,,,,,,,,0,0,0,2,1,,,,,,,,,,,,,,,,,,,,,,,,,,,,,,,,,,,,,,,,,
550901,001,2022-11-20_20h59.04.885,Info_measure_main_exp,2022.2.2,Win32,59.96641881,,,,,,,,,,,,,,,,,,masks/mask_004.jpg,,,,,,,,,,,,,,,,,,,,,,,,,,,,,,,,,,,,,,,,,,,,,,,,0,1,1,3,1,,,,,,,,,,,,,,,,,,,,,,,,,,,,,,,,,,,,,,,,,
550901,001,2022-11-20_20h59.04.885,Info_measure_main_exp,2022.2.2,Win32,59.96641881,,,,,,,,,,,,,,,,,,masks/mask_005.jpg,,,,,,,,,,,,,,,,,,,,,,,,,,,,,,,,,,,,,,,,,,,,,,,,0,2,2,4,1,,,,,,,,,,,,,,,,,,,,,,,,,,,,,,,,,,,,,,,,,
550901,001,2022-11-20_20h59.04.885,Info_measure_main_exp,2022.2.2,Win32,59.96641881,,,,,,,,,,,,,,,,,,masks/mask_002.jpg,,,,,,,,,,,,,,,,,,,,,,,,,,,,,,,,,,,,,,,,,,,,,,,,0,3,3,1,1,,,,,,,,,,,,,,,,,,,,,,,,,,,,,,,,,,,,,,,,,
550901,001,2022-11-20_20h59.04.885,Info_measure_main_exp,2022.2.2,Win32,59.96641881,,,,,,,,,,,,,,,,,,masks/mask_001.jpg,,,,,,,,,,,,,,,,,,,,,,,,,,,,,,,,,,,,,,,,,,,,,,,,0,4,4,0,1,,,,,,,,,,,,,,,,,,,,,,,,,,,,,,,,,,,,,,,,,
550901,001,2022-11-20_20h59.04.885,Info_measure_main_exp,2022.2.2,Win32,59.96641881,,,,,,,,,,,,,,,,,,,,,,,,,,,,,,2,2.7604,1,,,,,,,,,,,,1,131,5,5,2238,1,absent_patch/patch0002238.jpg,present_patch/cong_131_5_a.jpg,,,,,,,,,,,,,,,,,,,,-0.095052083,-0.028645833,1,0,0,response5disk,10,-0.0078125,0.001302083,1,0,0,center_square,0,9,9,104,1,,,,,,,,,,,,,,,,,,,,,,,
550901,001,2022-11-20_20h59.04.885,Info_measure_main_exp,2022.2.2,Win32,59.96641881,,,,,,,,,,,,,,,,,,masks/mask_005.jpg,,,,,,,,,,,,,,,,,,,,,,,,,,,,,,,,,,,,,,,,,,,0,0,0,4,1,,,,,,,,,,,,,,,,,,,,,,,,,,,,,,,,,,,,,,,,,,,,,,
550901,001,2022-11-20_20h59.04.885,Info_measure_main_exp,2022.2.2,Win32,59.96641881,,,,,,,,,,,,,,,,,,masks/mask_004.jpg,,,,,,,,,,,,,,,,,,,,,,,,,,,,,,,,,,,,,,,,,,,0,1,1,3,1,,,,,,,,,,,,,,,,,,,,,,,,,,,,,,,,,,,,,,,,,,,,,,
550901,001,2022-11-20_20h59.04.885,Info_measure_main_exp,2022.2.2,Win32,59.96641881,,,,,,,,,,,,,,,,,,masks/mask_001.jpg,,,,,,,,,,,,,,,,,,,,,,,,,,,,,,,,,,,,,,,,,,,0,2,2,0,1,,,,,,,,,,,,,,,,,,,,,,,,,,,,,,,,,,,,,,,,,,,,,,
550901,001,2022-11-20_20h59.04.885,Info_measure_main_exp,2022.2.2,Win32,59.96641881,,,,,,,,,,,,,,,,,,masks/mask_003.jpg,,,,,,,,,,,,,,,,,,,,,,,,,,,,,,,,,,,,,,,,,,,0,3,3,2,1,,,,,,,,,,,,,,,,,,,,,,,,,,,,,,,,,,,,,,,,,,,,,,
550901,001,2022-11-20_20h59.04.885,Info_measure_main_exp,2022.2.2,Win32,59.96641881,,,,,,,,,,,,,,,,,,masks/mask_002.jpg,,,,,,,,,,,,,,,,,,,,,,,,,,,,,,,,,,,,,,,,,,,0,4,4,1,1,,,,,,,,,,,,,,,,,,,,,,,,,,,,,,,,,,,,,,,,,,,,,,
550901,001,2022-11-20_20h59.04.885,Info_measure_main_exp,2022.2.2,Win32,59.96641881,,,,,,,,,,,,,,,,,,masks/mask_001.jpg,,,,,,,,,,,,,,,,,,,,,,,,,,,,,,,,,,,,,,,,,,,,,,,,0,0,0,0,1,,,,,,,,,,,,,,,,,,,,,,,,,,,,,,,,,,,,,,,,,
550901,001,2022-11-20_20h59.04.885,Info_measure_main_exp,2022.2.2,Win32,59.96641881,,,,,,,,,,,,,,,,,,masks/mask_004.jpg,,,,,,,,,,,,,,,,,,,,,,,,,,,,,,,,,,,,,,,,,,,,,,,,0,1,1,3,1,,,,,,,,,,,,,,,,,,,,,,,,,,,,,,,,,,,,,,,,,
550901,001,2022-11-20_20h59.04.885,Info_measure_main_exp,2022.2.2,Win32,59.96641881,,,,,,,,,,,,,,,,,,masks/mask_003.jpg,,,,,,,,,,,,,,,,,,,,,,,,,,,,,,,,,,,,,,,,,,,,,,,,0,2,2,2,1,,,,,,,,,,,,,,,,,,,,,,,,,,,,,,,,,,,,,,,,,
550901,001,2022-11-20_20h59.04.885,Info_measure_main_exp,2022.2.2,Win32,59.96641881,,,,,,,,,,,,,,,,,,masks/mask_002.jpg,,,,,,,,,,,,,,,,,,,,,,,,,,,,,,,,,,,,,,,,,,,,,,,,0,3,3,1,1,,,,,,,,,,,,,,,,,,,,,,,,,,,,,,,,,,,,,,,,,
550901,001,2022-11-20_20h59.04.885,Info_measure_main_exp,2022.2.2,Win32,59.96641881,,,,,,,,,,,,,,,,,,masks/mask_005.jpg,,,,,,,,,,,,,,,,,,,,,,,,,,,,,,,,,,,,,,,,,,,,,,,,0,4,4,4,1,,,,,,,,,,,,,,,,,,,,,,,,,,,,,,,,,,,,,,,,,
550901,001,2022-11-20_20h59.04.885,Info_measure_main_exp,2022.2.2,Win32,59.96641881,,,,,,,,,,,,,,,,,,,,,,,,,,,,,,6,1.0503,1,,,,,,,,,,,,0,131,5,5,2298,2142,absent_patch/patch0002298.jpg,absent_patch/patch0002142.jpg,,,,,,,,,,,,,,,,,,,,0.15234375,0.045572917,1,0,0,response1disk,11,0.00390625,0.006510417,1,0,0,center_square,0,10,10,49,1,,,,,,,,,,,,,,,,,,,,,,,
550901,001,2022-11-20_20h59.04.885,Info_measure_main_exp,2022.2.2,Win32,59.96641881,,,,,,,,,,,,,,,,,,masks/mask_005.jpg,,,,,,,,,,,,,,,,,,,,,,,,,,,,,,,,,,,,,,,,,,,0,0,0,4,1,,,,,,,,,,,,,,,,,,,,,,,,,,,,,,,,,,,,,,,,,,,,,,
550901,001,2022-11-20_20h59.04.885,Info_measure_main_exp,2022.2.2,Win32,59.96641881,,,,,,,,,,,,,,,,,,masks/mask_003.jpg,,,,,,,,,,,,,,,,,,,,,,,,,,,,,,,,,,,,,,,,,,,0,1,1,2,1,,,,,,,,,,,,,,,,,,,,,,,,,,,,,,,,,,,,,,,,,,,,,,
550901,001,2022-11-20_20h59.04.885,Info_measure_main_exp,2022.2.2,Win32,59.96641881,,,,,,,,,,,,,,,,,,masks/mask_004.jpg,,,,,,,,,,,,,,,,,,,,,,,,,,,,,,,,,,,,,,,,,,,0,2,2,3,1,,,,,,,,,,,,,,,,,,,,,,,,,,,,,,,,,,,,,,,,,,,,,,
550901,001,2022-11-20_20h59.04.885,Info_measure_main_exp,2022.2.2,Win32,59.96641881,,,,,,,,,,,,,,,,,,masks/mask_001.jpg,,,,,,,,,,,,,,,,,,,,,,,,,,,,,,,,,,,,,,,,,,,0,3,3,0,1,,,,,,,,,,,,,,,,,,,,,,,,,,,,,,,,,,,,,,,,,,,,,,
550901,001,2022-11-20_20h59.04.885,Info_measure_main_exp,2022.2.2,Win32,59.96641881,,,,,,,,,,,,,,,,,,masks/mask_002.jpg,,,,,,,,,,,,,,,,,,,,,,,,,,,,,,,,,,,,,,,,,,,0,4,4,1,1,,,,,,,,,,,,,,,,,,,,,,,,,,,,,,,,,,,,,,,,,,,,,,
550901,001,2022-11-20_20h59.04.885,Info_measure_main_exp,2022.2.2,Win32,59.96641881,,,,,,,,,,,,,,,,,,masks/mask_002.jpg,,,,,,,,,,,,,,,,,,,,,,,,,,,,,,,,,,,,,,,,,,,,,,,,0,0,0,1,1,,,,,,,,,,,,,,,,,,,,,,,,,,,,,,,,,,,,,,,,,
550901,001,2022-11-20_20h59.04.885,Info_measure_main_exp,2022.2.2,Win32,59.96641881,,,,,,,,,,,,,,,,,,masks/mask_003.jpg,,,,,,,,,,,,,,,,,,,,,,,,,,,,,,,,,,,,,,,,,,,,,,,,0,1,1,2,1,,,,,,,,,,,,,,,,,,,,,,,,,,,,,,,,,,,,,,,,,
550901,001,2022-11-20_20h59.04.885,Info_measure_main_exp,2022.2.2,Win32,59.96641881,,,,,,,,,,,,,,,,,,masks/mask_001.jpg,,,,,,,,,,,,,,,,,,,,,,,,,,,,,,,,,,,,,,,,,,,,,,,,0,2,2,0,1,,,,,,,,,,,,,,,,,,,,,,,,,,,,,,,,,,,,,,,,,
550901,001,2022-11-20_20h59.04.885,Info_measure_main_exp,2022.2.2,Win32,59.96641881,,,,,,,,,,,,,,,,,,masks/mask_005.jpg,,,,,,,,,,,,,,,,,,,,,,,,,,,,,,,,,,,,,,,,,,,,,,,,0,3,3,4,1,,,,,,,,,,,,,,,,,,,,,,,,,,,,,,,,,,,,,,,,,
550901,001,2022-11-20_20h59.04.885,Info_measure_main_exp,2022.2.2,Win32,59.96641881,,,,,,,,,,,,,,,,,,masks/mask_004.jpg,,,,,,,,,,,,,,,,,,,,,,,,,,,,,,,,,,,,,,,,,,,,,,,,0,4,4,3,1,,,,,,,,,,,,,,,,,,,,,,,,,,,,,,,,,,,,,,,,,
550901,001,2022-11-20_20h59.04.885,Info_measure_main_exp,2022.2.2,Win32,59.96641881,,,,,,,,,,,,,,,,,,,,,,,,,,,,,,6,0.8159,1,,,,,,,,,,,,0,131,5,5,2190,2250,absent_patch/patch0002190.jpg,absent_patch/patch0002250.jpg,,,,,,,,,,,,,,,,,,,,0.119791667,0.044270833,1,0,0,response1disk,12,0.002604167,0,1,0,0,center_square,0,11,11,93,1,,,,,,,,,,,,,,,,,,,,,,,
550901,001,2022-11-20_20h59.04.885,Info_measure_main_exp,2022.2.2,Win32,59.96641881,,,,,,,,,,,,,,,,,,masks/mask_002.jpg,,,,,,,,,,,,,,,,,,,,,,,,,,,,,,,,,,,,,,,,,,,0,0,0,1,1,,,,,,,,,,,,,,,,,,,,,,,,,,,,,,,,,,,,,,,,,,,,,,
550901,001,2022-11-20_20h59.04.885,Info_measure_main_exp,2022.2.2,Win32,59.96641881,,,,,,,,,,,,,,,,,,masks/mask_005.jpg,,,,,,,,,,,,,,,,,,,,,,,,,,,,,,,,,,,,,,,,,,,0,1,1,4,1,,,,,,,,,,,,,,,,,,,,,,,,,,,,,,,,,,,,,,,,,,,,,,
550901,001,2022-11-20_20h59.04.885,Info_measure_main_exp,2022.2.2,Win32,59.96641881,,,,,,,,,,,,,,,,,,masks/mask_001.jpg,,,,,,,,,,,,,,,,,,,,,,,,,,,,,,,,,,,,,,,,,,,0,2,2,0,1,,,,,,,,,,,,,,,,,,,,,,,,,,,,,,,,,,,,,,,,,,,,,,
550901,001,2022-11-20_20h59.04.885,Info_measure_main_exp,2022.2.2,Win32,59.96641881,,,,,,,,,,,,,,,,,,masks/mask_004.jpg,,,,,,,,,,,,,,,,,,,,,,,,,,,,,,,,,,,,,,,,,,,0,3,3,3,1,,,,,,,,,,,,,,,,,,,,,,,,,,,,,,,,,,,,,,,,,,,,,,
550901,001,2022-11-20_20h59.04.885,Info_measure_main_exp,2022.2.2,Win32,59.96641881,,,,,,,,,,,,,,,,,,masks/mask_003.jpg,,,,,,,,,,,,,,,,,,,,,,,,,,,,,,,,,,,,,,,,,,,0,4,4,2,1,,,,,,,,,,,,,,,,,,,,,,,,,,,,,,,,,,,,,,,,,,,,,,
550901,001,2022-11-20_20h59.04.885,Info_measure_main_exp,2022.2.2,Win32,59.96641881,,,,,,,,,,,,,,,,,,masks/mask_004.jpg,,,,,,,,,,,,,,,,,,,,,,,,,,,,,,,,,,,,,,,,,,,,,,,,0,0,0,3,1,,,,,,,,,,,,,,,,,,,,,,,,,,,,,,,,,,,,,,,,,
550901,001,2022-11-20_20h59.04.885,Info_measure_main_exp,2022.2.2,Win32,59.96641881,,,,,,,,,,,,,,,,,,masks/mask_002.jpg,,,,,,,,,,,,,,,,,,,,,,,,,,,,,,,,,,,,,,,,,,,,,,,,0,1,1,1,1,,,,,,,,,,,,,,,,,,,,,,,,,,,,,,,,,,,,,,,,,
550901,001,2022-11-20_20h59.04.885,Info_measure_main_exp,2022.2.2,Win32,59.96641881,,,,,,,,,,,,,,,,,,masks/mask_003.jpg,,,,,,,,,,,,,,,,,,,,,,,,,,,,,,,,,,,,,,,,,,,,,,,,0,2,2,2,1,,,,,,,,,,,,,,,,,,,,,,,,,,,,,,,,,,,,,,,,,
550901,001,2022-11-20_20h59.04.885,Info_measure_main_exp,2022.2.2,Win32,59.96641881,,,,,,,,,,,,,,,,,,masks/mask_005.jpg,,,,,,,,,,,,,,,,,,,,,,,,,,,,,,,,,,,,,,,,,,,,,,,,0,3,3,4,1,,,,,,,,,,,,,,,,,,,,,,,,,,,,,,,,,,,,,,,,,
550901,001,2022-11-20_20h59.04.885,Info_measure_main_exp,2022.2.2,Win32,59.96641881,,,,,,,,,,,,,,,,,,masks/mask_001.jpg,,,,,,,,,,,,,,,,,,,,,,,,,,,,,,,,,,,,,,,,,,,,,,,,0,4,4,0,1,,,,,,,,,,,,,,,,,,,,,,,,,,,,,,,,,,,,,,,,,
550901,001,2022-11-20_20h59.04.885,Info_measure_main_exp,2022.2.2,Win32,59.96641881,,,,,,,,,,,,,,,,,,,,,,,,,,,,,,6,0.6704,1,,,,,,,,,,,,0,131,5,5,2082,1986,absent_patch/patch0002082.jpg,absent_patch/patch0001986.jpg,,,,,,,,,,,,,,,,,,,,0.06640625,0.032552083,1,0,0,response1disk,13,-0.002604167,0.002604167,1,0,0,center_square,0,12,12,94,1,,,,,,,,,,,,,,,,,,,,,,,
550901,001,2022-11-20_20h59.04.885,Info_measure_main_exp,2022.2.2,Win32,59.96641881,,,,,,,,,,,,,,,,,,masks/mask_005.jpg,,,,,,,,,,,,,,,,,,,,,,,,,,,,,,,,,,,,,,,,,,,0,0,0,4,1,,,,,,,,,,,,,,,,,,,,,,,,,,,,,,,,,,,,,,,,,,,,,,
550901,001,2022-11-20_20h59.04.885,Info_measure_main_exp,2022.2.2,Win32,59.96641881,,,,,,,,,,,,,,,,,,masks/mask_004.jpg,,,,,,,,,,,,,,,,,,,,,,,,,,,,,,,,,,,,,,,,,,,0,1,1,3,1,,,,,,,,,,,,,,,,,,,,,,,,,,,,,,,,,,,,,,,,,,,,,,
550901,001,2022-11-20_20h59.04.885,Info_measure_main_exp,2022.2.2,Win32,59.96641881,,,,,,,,,,,,,,,,,,masks/mask_002.jpg,,,,,,,,,,,,,,,,,,,,,,,,,,,,,,,,,,,,,,,,,,,0,2,2,1,1,,,,,,,,,,,,,,,,,,,,,,,,,,,,,,,,,,,,,,,,,,,,,,
550901,001,2022-11-20_20h59.04.885,Info_measure_main_exp,2022.2.2,Win32,59.96641881,,,,,,,,,,,,,,,,,,masks/mask_003.jpg,,,,,,,,,,,,,,,,,,,,,,,,,,,,,,,,,,,,,,,,,,,0,3,3,2,1,,,,,,,,,,,,,,,,,,,,,,,,,,,,,,,,,,,,,,,,,,,,,,
550901,001,2022-11-20_20h59.04.885,Info_measure_main_exp,2022.2.2,Win32,59.96641881,,,,,,,,,,,,,,,,,,masks/mask_001.jpg,,,,,,,,,,,,,,,,,,,,,,,,,,,,,,,,,,,,,,,,,,,0,4,4,0,1,,,,,,,,,,,,,,,,,,,,,,,,,,,,,,,,,,,,,,,,,,,,,,
550901,001,2022-11-20_20h59.04.885,Info_measure_main_exp,2022.2.2,Win32,59.96641881,,,,,,,,,,,,,,,,,,masks/mask_001.jpg,,,,,,,,,,,,,,,,,,,,,,,,,,,,,,,,,,,,,,,,,,,,,,,,0,0,0,0,1,,,,,,,,,,,,,,,,,,,,,,,,,,,,,,,,,,,,,,,,,
550901,001,2022-11-20_20h59.04.885,Info_measure_main_exp,2022.2.2,Win32,59.96641881,,,,,,,,,,,,,,,,,,masks/mask_004.jpg,,,,,,,,,,,,,,,,,,,,,,,,,,,,,,,,,,,,,,,,,,,,,,,,0,1,1,3,1,,,,,,,,,,,,,,,,,,,,,,,,,,,,,,,,,,,,,,,,,
550901,001,2022-11-20_20h59.04.885,Info_measure_main_exp,2022.2.2,Win32,59.96641881,,,,,,,,,,,,,,,,,,masks/mask_005.jpg,,,,,,,,,,,,,,,,,,,,,,,,,,,,,,,,,,,,,,,,,,,,,,,,0,2,2,4,1,,,,,,,,,,,,,,,,,,,,,,,,,,,,,,,,,,,,,,,,,
550901,001,2022-11-20_20h59.04.885,Info_measure_main_exp,2022.2.2,Win32,59.96641881,,,,,,,,,,,,,,,,,,masks/mask_003.jpg,,,,,,,,,,,,,,,,,,,,,,,,,,,,,,,,,,,,,,,,,,,,,,,,0,3,3,2,1,,,,,,,,,,,,,,,,,,,,,,,,,,,,,,,,,,,,,,,,,
550901,001,2022-11-20_20h59.04.885,Info_measure_main_exp,2022.2.2,Win32,59.96641881,,,,,,,,,,,,,,,,,,masks/mask_002.jpg,,,,,,,,,,,,,,,,,,,,,,,,,,,,,,,,,,,,,,,,,,,,,,,,0,4,4,1,1,,,,,,,,,,,,,,,,,,,,,,,,,,,,,,,,,,,,,,,,,
550901,001,2022-11-20_20h59.04.885,Info_measure_main_exp,2022.2.2,Win32,59.96641881,,,,,,,,,,,,,,,,,,,,,,,,,,,,,,1,0.7347,1,,,,,,,,,,,,1,131,5,5,1,2154,present_patch/cong_131_5_a.jpg,absent_patch/patch0002154.jpg,,,,,,,,,,,,,,,,,,,,-0.108072917,0.065104167,1,0,0,response7disk,14,-0.005208333,-0.005208333,1,0,0,center_square,0,13,13,87,1,,,,,,,,,,,,,,,,,,,,,,,
550901,001,2022-11-20_20h59.04.885,Info_measure_main_exp,2022.2.2,Win32,59.96641881,,,,,,,,,,,,,,,,,,masks/mask_002.jpg,,,,,,,,,,,,,,,,,,,,,,,,,,,,,,,,,,,,,,,,,,,0,0,0,1,1,,,,,,,,,,,,,,,,,,,,,,,,,,,,,,,,,,,,,,,,,,,,,,
550901,001,2022-11-20_20h59.04.885,Info_measure_main_exp,2022.2.2,Win32,59.96641881,,,,,,,,,,,,,,,,,,masks/mask_001.jpg,,,,,,,,,,,,,,,,,,,,,,,,,,,,,,,,,,,,,,,,,,,0,1,1,0,1,,,,,,,,,,,,,,,,,,,,,,,,,,,,,,,,,,,,,,,,,,,,,,
550901,001,2022-11-20_20h59.04.885,Info_measure_main_exp,2022.2.2,Win32,59.96641881,,,,,,,,,,,,,,,,,,masks/mask_005.jpg,,,,,,,,,,,,,,,,,,,,,,,,,,,,,,,,,,,,,,,,,,,0,2,2,4,1,,,,,,,,,,,,,,,,,,,,,,,,,,,,,,,,,,,,,,,,,,,,,,
550901,001,2022-11-20_20h59.04.885,Info_measure_main_exp,2022.2.2,Win32,59.96641881,,,,,,,,,,,,,,,,,,masks/mask_004.jpg,,,,,,,,,,,,,,,,,,,,,,,,,,,,,,,,,,,,,,,,,,,0,3,3,3,1,,,,,,,,,,,,,,,,,,,,,,,,,,,,,,,,,,,,,,,,,,,,,,
550901,001,2022-11-20_20h59.04.885,Info_measure_main_exp,2022.2.2,Win32,59.96641881,,,,,,,,,,,,,,,,,,masks/mask_003.jpg,,,,,,,,,,,,,,,,,,,,,,,,,,,,,,,,,,,,,,,,,,,0,4,4,2,1,,,,,,,,,,,,,,,,,,,,,,,,,,,,,,,,,,,,,,,,,,,,,,
550901,001,2022-11-20_20h59.04.885,Info_measure_main_exp,2022.2.2,Win32,59.96641881,,,,,,,,,,,,,,,,,,masks/mask_004.jpg,,,,,,,,,,,,,,,,,,,,,,,,,,,,,,,,,,,,,,,,,,,,,,,,0,0,0,3,1,,,,,,,,,,,,,,,,,,,,,,,,,,,,,,,,,,,,,,,,,
550901,001,2022-11-20_20h59.04.885,Info_measure_main_exp,2022.2.2,Win32,59.96641881,,,,,,,,,,,,,,,,,,masks/mask_005.jpg,,,,,,,,,,,,,,,,,,,,,,,,,,,,,,,,,,,,,,,,,,,,,,,,0,1,1,4,1,,,,,,,,,,,,,,,,,,,,,,,,,,,,,,,,,,,,,,,,,
550901,001,2022-11-20_20h59.04.885,Info_measure_main_exp,2022.2.2,Win32,59.96641881,,,,,,,,,,,,,,,,,,masks/mask_002.jpg,,,,,,,,,,,,,,,,,,,,,,,,,,,,,,,,,,,,,,,,,,,,,,,,0,2,2,1,1,,,,,,,,,,,,,,,,,,,,,,,,,,,,,,,,,,,,,,,,,
550901,001,2022-11-20_20h59.04.885,Info_measure_main_exp,2022.2.2,Win32,59.96641881,,,,,,,,,,,,,,,,,,masks/mask_003.jpg,,,,,,,,,,,,,,,,,,,,,,,,,,,,,,,,,,,,,,,,,,,,,,,,0,3,3,2,1,,,,,,,,,,,,,,,,,,,,,,,,,,,,,,,,,,,,,,,,,
550901,001,2022-11-20_20h59.04.885,Info_measure_main_exp,2022.2.2,Win32,59.96641881,,,,,,,,,,,,,,,,,,masks/mask_001.jpg,,,,,,,,,,,,,,,,,,,,,,,,,,,,,,,,,,,,,,,,,,,,,,,,0,4,4,0,1,,,,,,,,,,,,,,,,,,,,,,,,,,,,,,,,,,,,,,,,,
550901,001,2022-11-20_20h59.04.885,Info_measure_main_exp,2022.2.2,Win32,59.96641881,,,,,,,,,,,,,,,,,,,,,,,,,,,,,,3,1.6013,1,,,,,,,,,,,,0,131,5,5,2178,2154,absent_patch/patch0002178.jpg,absent_patch/patch0002154.jpg,,,,,,,,,,,,,,,,,,,,-0.0234375,-0.063802083,1,0,0,response5disk,15,-0.005208333,-0.002604167,1,0,0,center_square,0,14,14,63,1,,,,,,,,,,,,,,,,,,,,,,,
550901,001,2022-11-20_20h59.04.885,Info_measure_main_exp,2022.2.2,Win32,59.96641881,,,,,,,,,,,,,,,,,,masks/mask_002.jpg,,,,,,,,,,,,,,,,,,,,,,,,,,,,,,,,,,,,,,,,,,,0,0,0,1,1,,,,,,,,,,,,,,,,,,,,,,,,,,,,,,,,,,,,,,,,,,,,,,
550901,001,2022-11-20_20h59.04.885,Info_measure_main_exp,2022.2.2,Win32,59.96641881,,,,,,,,,,,,,,,,,,masks/mask_003.jpg,,,,,,,,,,,,,,,,,,,,,,,,,,,,,,,,,,,,,,,,,,,0,1,1,2,1,,,,,,,,,,,,,,,,,,,,,,,,,,,,,,,,,,,,,,,,,,,,,,
550901,001,2022-11-20_20h59.04.885,Info_measure_main_exp,2022.2.2,Win32,59.96641881,,,,,,,,,,,,,,,,,,masks/mask_005.jpg,,,,,,,,,,,,,,,,,,,,,,,,,,,,,,,,,,,,,,,,,,,0,2,2,4,1,,,,,,,,,,,,,,,,,,,,,,,,,,,,,,,,,,,,,,,,,,,,,,
550901,001,2022-11-20_20h59.04.885,Info_measure_main_exp,2022.2.2,Win32,59.96641881,,,,,,,,,,,,,,,,,,masks/mask_001.jpg,,,,,,,,,,,,,,,,,,,,,,,,,,,,,,,,,,,,,,,,,,,0,3,3,0,1,,,,,,,,,,,,,,,,,,,,,,,,,,,,,,,,,,,,,,,,,,,,,,
550901,001,2022-11-20_20h59.04.885,Info_measure_main_exp,2022.2.2,Win32,59.96641881,,,,,,,,,,,,,,,,,,masks/mask_004.jpg,,,,,,,,,,,,,,,,,,,,,,,,,,,,,,,,,,,,,,,,,,,0,4,4,3,1,,,,,,,,,,,,,,,,,,,,,,,,,,,,,,,,,,,,,,,,,,,,,,
550901,001,2022-11-20_20h59.04.885,Info_measure_main_exp,2022.2.2,Win32,59.96641881,,,,,,,,,,,,,,,,,,masks/mask_003.jpg,,,,,,,,,,,,,,,,,,,,,,,,,,,,,,,,,,,,,,,,,,,,,,,,0,0,0,2,1,,,,,,,,,,,,,,,,,,,,,,,,,,,,,,,,,,,,,,,,,
550901,001,2022-11-20_20h59.04.885,Info_measure_main_exp,2022.2.2,Win32,59.96641881,,,,,,,,,,,,,,,,,,masks/mask_005.jpg,,,,,,,,,,,,,,,,,,,,,,,,,,,,,,,,,,,,,,,,,,,,,,,,0,1,1,4,1,,,,,,,,,,,,,,,,,,,,,,,,,,,,,,,,,,,,,,,,,
550901,001,2022-11-20_20h59.04.885,Info_measure_main_exp,2022.2.2,Win32,59.96641881,,,,,,,,,,,,,,,,,,masks/mask_002.jpg,,,,,,,,,,,,,,,,,,,,,,,,,,,,,,,,,,,,,,,,,,,,,,,,0,2,2,1,1,,,,,,,,,,,,,,,,,,,,,,,,,,,,,,,,,,,,,,,,,
550901,001,2022-11-20_20h59.04.885,Info_measure_main_exp,2022.2.2,Win32,59.96641881,,,,,,,,,,,,,,,,,,masks/mask_004.jpg,,,,,,,,,,,,,,,,,,,,,,,,,,,,,,,,,,,,,,,,,,,,,,,,0,3,3,3,1,,,,,,,,,,,,,,,,,,,,,,,,,,,,,,,,,,,,,,,,,
550901,001,2022-11-20_20h59.04.885,Info_measure_main_exp,2022.2.2,Win32,59.96641881,,,,,,,,,,,,,,,,,,masks/mask_001.jpg,,,,,,,,,,,,,,,,,,,,,,,,,,,,,,,,,,,,,,,,,,,,,,,,0,4,4,0,1,,,,,,,,,,,,,,,,,,,,,,,,,,,,,,,,,,,,,,,,,
550901,001,2022-11-20_20h59.04.885,Info_measure_main_exp,2022.2.2,Win32,59.96641881,,,,,,,,,,,,,,,,,,,,,,,,,,,,,,4,1.1682,1,,,,,,,,,,,,0,131,5,5,2250,1950,absent_patch/patch0002250.jpg,absent_patch/patch0001950.jpg,,,,,,,,,,,,,,,,,,,,0.010416667,-0.08203125,1,0,0,response3disk,16,0.005208333,-0.005208333,1,0,0,center_square,0,15,15,16,1,,,,,,,,,,,,,,,,,,,,,,,
550901,001,2022-11-20_20h59.04.885,Info_measure_main_exp,2022.2.2,Win32,59.96641881,,,,,,,,,,,,,,,,,,masks/mask_005.jpg,,,,,,,,,,,,,,,,,,,,,,,,,,,,,,,,,,,,,,,,,,,0,0,0,4,1,,,,,,,,,,,,,,,,,,,,,,,,,,,,,,,,,,,,,,,,,,,,,,
550901,001,2022-11-20_20h59.04.885,Info_measure_main_exp,2022.2.2,Win32,59.96641881,,,,,,,,,,,,,,,,,,masks/mask_003.jpg,,,,,,,,,,,,,,,,,,,,,,,,,,,,,,,,,,,,,,,,,,,0,1,1,2,1,,,,,,,,,,,,,,,,,,,,,,,,,,,,,,,,,,,,,,,,,,,,,,
550901,001,2022-11-20_20h59.04.885,Info_measure_main_exp,2022.2.2,Win32,59.96641881,,,,,,,,,,,,,,,,,,masks/mask_002.jpg,,,,,,,,,,,,,,,,,,,,,,,,,,,,,,,,,,,,,,,,,,,0,2,2,1,1,,,,,,,,,,,,,,,,,,,,,,,,,,,,,,,,,,,,,,,,,,,,,,
550901,001,2022-11-20_20h59.04.885,Info_measure_main_exp,2022.2.2,Win32,59.96641881,,,,,,,,,,,,,,,,,,masks/mask_001.jpg,,,,,,,,,,,,,,,,,,,,,,,,,,,,,,,,,,,,,,,,,,,0,3,3,0,1,,,,,,,,,,,,,,,,,,,,,,,,,,,,,,,,,,,,,,,,,,,,,,
550901,001,2022-11-20_20h59.04.885,Info_measure_main_exp,2022.2.2,Win32,59.96641881,,,,,,,,,,,,,,,,,,masks/mask_004.jpg,,,,,,,,,,,,,,,,,,,,,,,,,,,,,,,,,,,,,,,,,,,0,4,4,3,1,,,,,,,,,,,,,,,,,,,,,,,,,,,,,,,,,,,,,,,,,,,,,,
550901,001,2022-11-20_20h59.04.885,Info_measure_main_exp,2022.2.2,Win32,59.96641881,,,,,,,,,,,,,,,,,,masks/mask_005.jpg,,,,,,,,,,,,,,,,,,,,,,,,,,,,,,,,,,,,,,,,,,,,,,,,0,0,0,4,1,,,,,,,,,,,,,,,,,,,,,,,,,,,,,,,,,,,,,,,,,
550901,001,2022-11-20_20h59.04.885,Info_measure_main_exp,2022.2.2,Win32,59.96641881,,,,,,,,,,,,,,,,,,masks/mask_001.jpg,,,,,,,,,,,,,,,,,,,,,,,,,,,,,,,,,,,,,,,,,,,,,,,,0,1,1,0,1,,,,,,,,,,,,,,,,,,,,,,,,,,,,,,,,,,,,,,,,,
550901,001,2022-11-20_20h59.04.885,Info_measure_main_exp,2022.2.2,Win32,59.96641881,,,,,,,,,,,,,,,,,,masks/mask_002.jpg,,,,,,,,,,,,,,,,,,,,,,,,,,,,,,,,,,,,,,,,,,,,,,,,0,2,2,1,1,,,,,,,,,,,,,,,,,,,,,,,,,,,,,,,,,,,,,,,,,
550901,001,2022-11-20_20h59.04.885,Info_measure_main_exp,2022.2.2,Win32,59.96641881,,,,,,,,,,,,,,,,,,masks/mask_004.jpg,,,,,,,,,,,,,,,,,,,,,,,,,,,,,,,,,,,,,,,,,,,,,,,,0,3,3,3,1,,,,,,,,,,,,,,,,,,,,,,,,,,,,,,,,,,,,,,,,,
550901,001,2022-11-20_20h59.04.885,Info_measure_main_exp,2022.2.2,Win32,59.96641881,,,,,,,,,,,,,,,,,,masks/mask_003.jpg,,,,,,,,,,,,,,,,,,,,,,,,,,,,,,,,,,,,,,,,,,,,,,,,0,4,4,2,1,,,,,,,,,,,,,,,,,,,,,,,,,,,,,,,,,,,,,,,,,
550901,001,2022-11-20_20h59.04.885,Info_measure_main_exp,2022.2.2,Win32,59.96641881,,,,,,,,,,,,,,,,,,,,,,,,,,,,,,4,0.7692,1,,,,,,,,,,,,0,131,5,5,1986,1950,absent_patch/patch0001986.jpg,absent_patch/patch0001950.jpg,,,,,,,,,,,,,,,,,,,,0.020833333,-0.075520833,1,0,0,response3disk,17,0.001302083,-0.009114583,1,0,0,center_square,0,16,16,15,1,,,,,,,,,,,,,,,,,,,,,,,
550901,001,2022-11-20_20h59.04.885,Info_measure_main_exp,2022.2.2,Win32,59.96641881,,,,,,,,,,,,,,,,,,masks/mask_005.jpg,,,,,,,,,,,,,,,,,,,,,,,,,,,,,,,,,,,,,,,,,,,0,0,0,4,1,,,,,,,,,,,,,,,,,,,,,,,,,,,,,,,,,,,,,,,,,,,,,,
550901,001,2022-11-20_20h59.04.885,Info_measure_main_exp,2022.2.2,Win32,59.96641881,,,,,,,,,,,,,,,,,,masks/mask_004.jpg,,,,,,,,,,,,,,,,,,,,,,,,,,,,,,,,,,,,,,,,,,,0,1,1,3,1,,,,,,,,,,,,,,,,,,,,,,,,,,,,,,,,,,,,,,,,,,,,,,
550901,001,2022-11-20_20h59.04.885,Info_measure_main_exp,2022.2.2,Win32,59.96641881,,,,,,,,,,,,,,,,,,masks/mask_003.jpg,,,,,,,,,,,,,,,,,,,,,,,,,,,,,,,,,,,,,,,,,,,0,2,2,2,1,,,,,,,,,,,,,,,,,,,,,,,,,,,,,,,,,,,,,,,,,,,,,,
550901,001,2022-11-20_20h59.04.885,Info_measure_main_exp,2022.2.2,Win32,59.96641881,,,,,,,,,,,,,,,,,,masks/mask_001.jpg,,,,,,,,,,,,,,,,,,,,,,,,,,,,,,,,,,,,,,,,,,,0,3,3,0,1,,,,,,,,,,,,,,,,,,,,,,,,,,,,,,,,,,,,,,,,,,,,,,
550901,001,2022-11-20_20h59.04.885,Info_measure_main_exp,2022.2.2,Win32,59.96641881,,,,,,,,,,,,,,,,,,masks/mask_002.jpg,,,,,,,,,,,,,,,,,,,,,,,,,,,,,,,,,,,,,,,,,,,0,4,4,1,1,,,,,,,,,,,,,,,,,,,,,,,,,,,,,,,,,,,,,,,,,,,,,,
550901,001,2022-11-20_20h59.04.885,Info_measure_main_exp,2022.2.2,Win32,59.96641881,,,,,,,,,,,,,,,,,,masks/mask_003.jpg,,,,,,,,,,,,,,,,,,,,,,,,,,,,,,,,,,,,,,,,,,,,,,,,0,0,0,2,1,,,,,,,,,,,,,,,,,,,,,,,,,,,,,,,,,,,,,,,,,
550901,001,2022-11-20_20h59.04.885,Info_measure_main_exp,2022.2.2,Win32,59.96641881,,,,,,,,,,,,,,,,,,masks/mask_004.jpg,,,,,,,,,,,,,,,,,,,,,,,,,,,,,,,,,,,,,,,,,,,,,,,,0,1,1,3,1,,,,,,,,,,,,,,,,,,,,,,,,,,,,,,,,,,,,,,,,,
550901,001,2022-11-20_20h59.04.885,Info_measure_main_exp,2022.2.2,Win32,59.96641881,,,,,,,,,,,,,,,,,,masks/mask_001.jpg,,,,,,,,,,,,,,,,,,,,,,,,,,,,,,,,,,,,,,,,,,,,,,,,0,2,2,0,1,,,,,,,,,,,,,,,,,,,,,,,,,,,,,,,,,,,,,,,,,
550901,001,2022-11-20_20h59.04.885,Info_measure_main_exp,2022.2.2,Win32,59.96641881,,,,,,,,,,,,,,,,,,masks/mask_005.jpg,,,,,,,,,,,,,,,,,,,,,,,,,,,,,,,,,,,,,,,,,,,,,,,,0,3,3,4,1,,,,,,,,,,,,,,,,,,,,,,,,,,,,,,,,,,,,,,,,,
550901,001,2022-11-20_20h59.04.885,Info_measure_main_exp,2022.2.2,Win32,59.96641881,,,,,,,,,,,,,,,,,,masks/mask_002.jpg,,,,,,,,,,,,,,,,,,,,,,,,,,,,,,,,,,,,,,,,,,,,,,,,0,4,4,1,1,,,,,,,,,,,,,,,,,,,,,,,,,,,,,,,,,,,,,,,,,
550901,001,2022-11-20_20h59.04.885,Info_measure_main_exp,2022.2.2,Win32,59.96641881,,,,,,,,,,,,,,,,,,,,,,,,,,,,,,6,0.7162,1,,,,,,,,,,,,0,131,5,5,1950,2166,absent_patch/patch0001950.jpg,absent_patch/patch0002166.jpg,,,,,,,,,,,,,,,,,,,,0.09765625,0.028645833,1,0,0,response1disk,18,0.001302083,0.006510417,1,0,0,center_square,0,17,17,0,1,,,,,,,,,,,,,,,,,,,,,,,
550901,001,2022-11-20_20h59.04.885,Info_measure_main_exp,2022.2.2,Win32,59.96641881,,,,,,,,,,,,,,,,,,masks/mask_001.jpg,,,,,,,,,,,,,,,,,,,,,,,,,,,,,,,,,,,,,,,,,,,0,0,0,0,1,,,,,,,,,,,,,,,,,,,,,,,,,,,,,,,,,,,,,,,,,,,,,,
550901,001,2022-11-20_20h59.04.885,Info_measure_main_exp,2022.2.2,Win32,59.96641881,,,,,,,,,,,,,,,,,,masks/mask_005.jpg,,,,,,,,,,,,,,,,,,,,,,,,,,,,,,,,,,,,,,,,,,,0,1,1,4,1,,,,,,,,,,,,,,,,,,,,,,,,,,,,,,,,,,,,,,,,,,,,,,
550901,001,2022-11-20_20h59.04.885,Info_measure_main_exp,2022.2.2,Win32,59.96641881,,,,,,,,,,,,,,,,,,masks/mask_003.jpg,,,,,,,,,,,,,,,,,,,,,,,,,,,,,,,,,,,,,,,,,,,0,2,2,2,1,,,,,,,,,,,,,,,,,,,,,,,,,,,,,,,,,,,,,,,,,,,,,,
550901,001,2022-11-20_20h59.04.885,Info_measure_main_exp,2022.2.2,Win32,59.96641881,,,,,,,,,,,,,,,,,,masks/mask_002.jpg,,,,,,,,,,,,,,,,,,,,,,,,,,,,,,,,,,,,,,,,,,,0,3,3,1,1,,,,,,,,,,,,,,,,,,,,,,,,,,,,,,,,,,,,,,,,,,,,,,
550901,001,2022-11-20_20h59.04.885,Info_measure_main_exp,2022.2.2,Win32,59.96641881,,,,,,,,,,,,,,,,,,masks/mask_004.jpg,,,,,,,,,,,,,,,,,,,,,,,,,,,,,,,,,,,,,,,,,,,0,4,4,3,1,,,,,,,,,,,,,,,,,,,,,,,,,,,,,,,,,,,,,,,,,,,,,,
550901,001,2022-11-20_20h59.04.885,Info_measure_main_exp,2022.2.2,Win32,59.96641881,,,,,,,,,,,,,,,,,,masks/mask_001.jpg,,,,,,,,,,,,,,,,,,,,,,,,,,,,,,,,,,,,,,,,,,,,,,,,0,0,0,0,1,,,,,,,,,,,,,,,,,,,,,,,,,,,,,,,,,,,,,,,,,
550901,001,2022-11-20_20h59.04.885,Info_measure_main_exp,2022.2.2,Win32,59.96641881,,,,,,,,,,,,,,,,,,masks/mask_003.jpg,,,,,,,,,,,,,,,,,,,,,,,,,,,,,,,,,,,,,,,,,,,,,,,,0,1,1,2,1,,,,,,,,,,,,,,,,,,,,,,,,,,,,,,,,,,,,,,,,,
550901,001,2022-11-20_20h59.04.885,Info_measure_main_exp,2022.2.2,Win32,59.96641881,,,,,,,,,,,,,,,,,,masks/mask_002.jpg,,,,,,,,,,,,,,,,,,,,,,,,,,,,,,,,,,,,,,,,,,,,,,,,0,2,2,1,1,,,,,,,,,,,,,,,,,,,,,,,,,,,,,,,,,,,,,,,,,
550901,001,2022-11-20_20h59.04.885,Info_measure_main_exp,2022.2.2,Win32,59.96641881,,,,,,,,,,,,,,,,,,masks/mask_005.jpg,,,,,,,,,,,,,,,,,,,,,,,,,,,,,,,,,,,,,,,,,,,,,,,,0,3,3,4,1,,,,,,,,,,,,,,,,,,,,,,,,,,,,,,,,,,,,,,,,,
550901,001,2022-11-20_20h59.04.885,Info_measure_main_exp,2022.2.2,Win32,59.96641881,,,,,,,,,,,,,,,,,,masks/mask_004.jpg,,,,,,,,,,,,,,,,,,,,,,,,,,,,,,,,,,,,,,,,,,,,,,,,0,4,4,3,1,,,,,,,,,,,,,,,,,,,,,,,,,,,,,,,,,,,,,,,,,
550901,001,2022-11-20_20h59.04.885,Info_measure_main_exp,2022.2.2,Win32,59.96641881,,,,,,,,,,,,,,,,,,,,,,,,,,,,,,7,1.0197,1,,,,,,,,,,,,0,131,5,5,1950,2298,absent_patch/patch0001950.jpg,absent_patch/patch0002298.jpg,,,,,,,,,,,,,,,,,,,,0.053385417,0.140625,1,0,0,response1disk,19,0.002604167,-0.00390625,1,0,0,center_square,0,18,18,18,1,,,,,,,,,,,,,,,,,,,,,,,
550901,001,2022-11-20_20h59.04.885,Info_measure_main_exp,2022.2.2,Win32,59.96641881,,,,,,,,,,,,,,,,,,masks/mask_005.jpg,,,,,,,,,,,,,,,,,,,,,,,,,,,,,,,,,,,,,,,,,,,0,0,0,4,1,,,,,,,,,,,,,,,,,,,,,,,,,,,,,,,,,,,,,,,,,,,,,,
550901,001,2022-11-20_20h59.04.885,Info_measure_main_exp,2022.2.2,Win32,59.96641881,,,,,,,,,,,,,,,,,,masks/mask_003.jpg,,,,,,,,,,,,,,,,,,,,,,,,,,,,,,,,,,,,,,,,,,,0,1,1,2,1,,,,,,,,,,,,,,,,,,,,,,,,,,,,,,,,,,,,,,,,,,,,,,
550901,001,2022-11-20_20h59.04.885,Info_measure_main_exp,2022.2.2,Win32,59.96641881,,,,,,,,,,,,,,,,,,masks/mask_004.jpg,,,,,,,,,,,,,,,,,,,,,,,,,,,,,,,,,,,,,,,,,,,0,2,2,3,1,,,,,,,,,,,,,,,,,,,,,,,,,,,,,,,,,,,,,,,,,,,,,,
550901,001,2022-11-20_20h59.04.885,Info_measure_main_exp,2022.2.2,Win32,59.96641881,,,,,,,,,,,,,,,,,,masks/mask_001.jpg,,,,,,,,,,,,,,,,,,,,,,,,,,,,,,,,,,,,,,,,,,,0,3,3,0,1,,,,,,,,,,,,,,,,,,,,,,,,,,,,,,,,,,,,,,,,,,,,,,
550901,001,2022-11-20_20h59.04.885,Info_measure_main_exp,2022.2.2,Win32,59.96641881,,,,,,,,,,,,,,,,,,masks/mask_002.jpg,,,,,,,,,,,,,,,,,,,,,,,,,,,,,,,,,,,,,,,,,,,0,4,4,1,1,,,,,,,,,,,,,,,,,,,,,,,,,,,,,,,,,,,,,,,,,,,,,,
550901,001,2022-11-20_20h59.04.885,Info_measure_main_exp,2022.2.2,Win32,59.96641881,,,,,,,,,,,,,,,,,,masks/mask_001.jpg,,,,,,,,,,,,,,,,,,,,,,,,,,,,,,,,,,,,,,,,,,,,,,,,0,0,0,0,1,,,,,,,,,,,,,,,,,,,,,,,,,,,,,,,,,,,,,,,,,
550901,001,2022-11-20_20h59.04.885,Info_measure_main_exp,2022.2.2,Win32,59.96641881,,,,,,,,,,,,,,,,,,masks/mask_005.jpg,,,,,,,,,,,,,,,,,,,,,,,,,,,,,,,,,,,,,,,,,,,,,,,,0,1,1,4,1,,,,,,,,,,,,,,,,,,,,,,,,,,,,,,,,,,,,,,,,,
550901,001,2022-11-20_20h59.04.885,Info_measure_main_exp,2022.2.2,Win32,59.96641881,,,,,,,,,,,,,,,,,,masks/mask_002.jpg,,,,,,,,,,,,,,,,,,,,,,,,,,,,,,,,,,,,,,,,,,,,,,,,0,2,2,1,1,,,,,,,,,,,,,,,,,,,,,,,,,,,,,,,,,,,,,,,,,
550901,001,2022-11-20_20h59.04.885,Info_measure_main_exp,2022.2.2,Win32,59.96641881,,,,,,,,,,,,,,,,,,masks/mask_003.jpg,,,,,,,,,,,,,,,,,,,,,,,,,,,,,,,,,,,,,,,,,,,,,,,,0,3,3,2,1,,,,,,,,,,,,,,,,,,,,,,,,,,,,,,,,,,,,,,,,,
550901,001,2022-11-20_20h59.04.885,Info_measure_main_exp,2022.2.2,Win32,59.96641881,,,,,,,,,,,,,,,,,,masks/mask_004.jpg,,,,,,,,,,,,,,,,,,,,,,,,,,,,,,,,,,,,,,,,,,,,,,,,0,4,4,3,1,,,,,,,,,,,,,,,,,,,,,,,,,,,,,,,,,,,,,,,,,
550901,001,2022-11-20_20h59.04.885,Info_measure_main_exp,2022.2.2,Win32,59.96641881,,,,,,,,,,,,,,,,,,,,,,,,,,,,,,2,1.0859,1,,,,,,,,,,,,0,131,5,5,2190,2214,absent_patch/patch0002190.jpg,absent_patch/patch0002214.jpg,,,,,,,,,,,,,,,,,,,,-0.065104167,-0.02734375,1,0,0,response5disk,20,0.009114583,0,1,0,0,center_square,0,19,19,35,1,,,,,,,,,,,,,,,,,,,,,,,
550901,001,2022-11-20_20h59.04.885,Info_measure_main_exp,2022.2.2,Win32,59.96641881,,,,,,,,,,,,,,,,,,masks/mask_001.jpg,,,,,,,,,,,,,,,,,,,,,,,,,,,,,,,,,,,,,,,,,,,0,0,0,0,1,,,,,,,,,,,,,,,,,,,,,,,,,,,,,,,,,,,,,,,,,,,,,,
550901,001,2022-11-20_20h59.04.885,Info_measure_main_exp,2022.2.2,Win32,59.96641881,,,,,,,,,,,,,,,,,,masks/mask_002.jpg,,,,,,,,,,,,,,,,,,,,,,,,,,,,,,,,,,,,,,,,,,,0,1,1,1,1,,,,,,,,,,,,,,,,,,,,,,,,,,,,,,,,,,,,,,,,,,,,,,
550901,001,2022-11-20_20h59.04.885,Info_measure_main_exp,2022.2.2,Win32,59.96641881,,,,,,,,,,,,,,,,,,masks/mask_005.jpg,,,,,,,,,,,,,,,,,,,,,,,,,,,,,,,,,,,,,,,,,,,0,2,2,4,1,,,,,,,,,,,,,,,,,,,,,,,,,,,,,,,,,,,,,,,,,,,,,,
550901,001,2022-11-20_20h59.04.885,Info_measure_main_exp,2022.2.2,Win32,59.96641881,,,,,,,,,,,,,,,,,,masks/mask_004.jpg,,,,,,,,,,,,,,,,,,,,,,,,,,,,,,,,,,,,,,,,,,,0,3,3,3,1,,,,,,,,,,,,,,,,,,,,,,,,,,,,,,,,,,,,,,,,,,,,,,
550901,001,2022-11-20_20h59.04.885,Info_measure_main_exp,2022.2.2,Win32,59.96641881,,,,,,,,,,,,,,,,,,masks/mask_003.jpg,,,,,,,,,,,,,,,,,,,,,,,,,,,,,,,,,,,,,,,,,,,0,4,4,2,1,,,,,,,,,,,,,,,,,,,,,,,,,,,,,,,,,,,,,,,,,,,,,,
550901,001,2022-11-20_20h59.04.885,Info_measure_main_exp,2022.2.2,Win32,59.96641881,,,,,,,,,,,,,,,,,,masks/mask_004.jpg,,,,,,,,,,,,,,,,,,,,,,,,,,,,,,,,,,,,,,,,,,,,,,,,0,0,0,3,1,,,,,,,,,,,,,,,,,,,,,,,,,,,,,,,,,,,,,,,,,
550901,001,2022-11-20_20h59.04.885,Info_measure_main_exp,2022.2.2,Win32,59.96641881,,,,,,,,,,,,,,,,,,masks/mask_001.jpg,,,,,,,,,,,,,,,,,,,,,,,,,,,,,,,,,,,,,,,,,,,,,,,,0,1,1,0,1,,,,,,,,,,,,,,,,,,,,,,,,,,,,,,,,,,,,,,,,,
550901,001,2022-11-20_20h59.04.885,Info_measure_main_exp,2022.2.2,Win32,59.96641881,,,,,,,,,,,,,,,,,,masks/mask_002.jpg,,,,,,,,,,,,,,,,,,,,,,,,,,,,,,,,,,,,,,,,,,,,,,,,0,2,2,1,1,,,,,,,,,,,,,,,,,,,,,,,,,,,,,,,,,,,,,,,,,
550901,001,2022-11-20_20h59.04.885,Info_measure_main_exp,2022.2.2,Win32,59.96641881,,,,,,,,,,,,,,,,,,masks/mask_003.jpg,,,,,,,,,,,,,,,,,,,,,,,,,,,,,,,,,,,,,,,,,,,,,,,,0,3,3,2,1,,,,,,,,,,,,,,,,,,,,,,,,,,,,,,,,,,,,,,,,,
550901,001,2022-11-20_20h59.04.885,Info_measure_main_exp,2022.2.2,Win32,59.96641881,,,,,,,,,,,,,,,,,,masks/mask_005.jpg,,,,,,,,,,,,,,,,,,,,,,,,,,,,,,,,,,,,,,,,,,,,,,,,0,4,4,4,1,,,,,,,,,,,,,,,,,,,,,,,,,,,,,,,,,,,,,,,,,
550901,001,2022-11-20_20h59.04.885,Info_measure_main_exp,2022.2.2,Win32,59.96641881,,,,,,,,,,,,,,,,,,,,,,,,,,,,,,5,1.1649,1,,,,,,,,,,,,0,131,5,5,2190,2178,absent_patch/patch0002190.jpg,absent_patch/patch0002178.jpg,,,,,,,,,,,,,,,,,,,,0.08203125,-0.032552083,1,0,0,response3disk,21,-0.013020833,-0.005208333,1,0,0,center_square,0,20,20,14,1,,,,,,,,,,,,,,,,,,,,,,,
550901,001,2022-11-20_20h59.04.885,Info_measure_main_exp,2022.2.2,Win32,59.96641881,,,,,,,,,,,,,,,,,,masks/mask_004.jpg,,,,,,,,,,,,,,,,,,,,,,,,,,,,,,,,,,,,,,,,,,,0,0,0,3,1,,,,,,,,,,,,,,,,,,,,,,,,,,,,,,,,,,,,,,,,,,,,,,
550901,001,2022-11-20_20h59.04.885,Info_measure_main_exp,2022.2.2,Win32,59.96641881,,,,,,,,,,,,,,,,,,masks/mask_003.jpg,,,,,,,,,,,,,,,,,,,,,,,,,,,,,,,,,,,,,,,,,,,0,1,1,2,1,,,,,,,,,,,,,,,,,,,,,,,,,,,,,,,,,,,,,,,,,,,,,,
550901,001,2022-11-20_20h59.04.885,Info_measure_main_exp,2022.2.2,Win32,59.96641881,,,,,,,,,,,,,,,,,,masks/mask_005.jpg,,,,,,,,,,,,,,,,,,,,,,,,,,,,,,,,,,,,,,,,,,,0,2,2,4,1,,,,,,,,,,,,,,,,,,,,,,,,,,,,,,,,,,,,,,,,,,,,,,
550901,001,2022-11-20_20h59.04.885,Info_measure_main_exp,2022.2.2,Win32,59.96641881,,,,,,,,,,,,,,,,,,masks/mask_002.jpg,,,,,,,,,,,,,,,,,,,,,,,,,,,,,,,,,,,,,,,,,,,0,3,3,1,1,,,,,,,,,,,,,,,,,,,,,,,,,,,,,,,,,,,,,,,,,,,,,,
550901,001,2022-11-20_20h59.04.885,Info_measure_main_exp,2022.2.2,Win32,59.96641881,,,,,,,,,,,,,,,,,,masks/mask_001.jpg,,,,,,,,,,,,,,,,,,,,,,,,,,,,,,,,,,,,,,,,,,,0,4,4,0,1,,,,,,,,,,,,,,,,,,,,,,,,,,,,,,,,,,,,,,,,,,,,,,
550901,001,2022-11-20_20h59.04.885,Info_measure_main_exp,2022.2.2,Win32,59.96641881,,,,,,,,,,,,,,,,,,masks/mask_005.jpg,,,,,,,,,,,,,,,,,,,,,,,,,,,,,,,,,,,,,,,,,,,,,,,,0,0,0,4,1,,,,,,,,,,,,,,,,,,,,,,,,,,,,,,,,,,,,,,,,,
550901,001,2022-11-20_20h59.04.885,Info_measure_main_exp,2022.2.2,Win32,59.96641881,,,,,,,,,,,,,,,,,,masks/mask_002.jpg,,,,,,,,,,,,,,,,,,,,,,,,,,,,,,,,,,,,,,,,,,,,,,,,0,1,1,1,1,,,,,,,,,,,,,,,,,,,,,,,,,,,,,,,,,,,,,,,,,
550901,001,2022-11-20_20h59.04.885,Info_measure_main_exp,2022.2.2,Win32,59.96641881,,,,,,,,,,,,,,,,,,masks/mask_004.jpg,,,,,,,,,,,,,,,,,,,,,,,,,,,,,,,,,,,,,,,,,,,,,,,,0,2,2,3,1,,,,,,,,,,,,,,,,,,,,,,,,,,,,,,,,,,,,,,,,,
550901,001,2022-11-20_20h59.04.885,Info_measure_main_exp,2022.2.2,Win32,59.96641881,,,,,,,,,,,,,,,,,,masks/mask_001.jpg,,,,,,,,,,,,,,,,,,,,,,,,,,,,,,,,,,,,,,,,,,,,,,,,0,3,3,0,1,,,,,,,,,,,,,,,,,,,,,,,,,,,,,,,,,,,,,,,,,
550901,001,2022-11-20_20h59.04.885,Info_measure_main_exp,2022.2.2,Win32,59.96641881,,,,,,,,,,,,,,,,,,masks/mask_003.jpg,,,,,,,,,,,,,,,,,,,,,,,,,,,,,,,,,,,,,,,,,,,,,,,,0,4,4,2,1,,,,,,,,,,,,,,,,,,,,,,,,,,,,,,,,,,,,,,,,,
550901,001,2022-11-20_20h59.04.885,Info_measure_main_exp,2022.2.2,Win32,59.96641881,,,,,,,,,,,,,,,,,,,,,,,,,,,,,,6,2.1125,1,,,,,,,,,,,,0,131,5,5,2298,1986,absent_patch/patch0002298.jpg,absent_patch/patch0001986.jpg,,,,,,,,,,,,,,,,,,,,0.071614583,0.033854167,1,0,0,response1disk,22,0.010416667,0.002604167,1,0,0,center_square,0,21,21,32,1,,,,,,,,,,,,,,,,,,,,,,,
550901,001,2022-11-20_20h59.04.885,Info_measure_main_exp,2022.2.2,Win32,59.96641881,,,,,,,,,,,,,,,,,,masks/mask_005.jpg,,,,,,,,,,,,,,,,,,,,,,,,,,,,,,,,,,,,,,,,,,,0,0,0,4,1,,,,,,,,,,,,,,,,,,,,,,,,,,,,,,,,,,,,,,,,,,,,,,
550901,001,2022-11-20_20h59.04.885,Info_measure_main_exp,2022.2.2,Win32,59.96641881,,,,,,,,,,,,,,,,,,masks/mask_001.jpg,,,,,,,,,,,,,,,,,,,,,,,,,,,,,,,,,,,,,,,,,,,0,1,1,0,1,,,,,,,,,,,,,,,,,,,,,,,,,,,,,,,,,,,,,,,,,,,,,,
550901,001,2022-11-20_20h59.04.885,Info_measure_main_exp,2022.2.2,Win32,59.96641881,,,,,,,,,,,,,,,,,,masks/mask_002.jpg,,,,,,,,,,,,,,,,,,,,,,,,,,,,,,,,,,,,,,,,,,,0,2,2,1,1,,,,,,,,,,,,,,,,,,,,,,,,,,,,,,,,,,,,,,,,,,,,,,
550901,001,2022-11-20_20h59.04.885,Info_measure_main_exp,2022.2.2,Win32,59.96641881,,,,,,,,,,,,,,,,,,masks/mask_003.jpg,,,,,,,,,,,,,,,,,,,,,,,,,,,,,,,,,,,,,,,,,,,0,3,3,2,1,,,,,,,,,,,,,,,,,,,,,,,,,,,,,,,,,,,,,,,,,,,,,,
550901,001,2022-11-20_20h59.04.885,Info_measure_main_exp,2022.2.2,Win32,59.96641881,,,,,,,,,,,,,,,,,,masks/mask_004.jpg,,,,,,,,,,,,,,,,,,,,,,,,,,,,,,,,,,,,,,,,,,,0,4,4,3,1,,,,,,,,,,,,,,,,,,,,,,,,,,,,,,,,,,,,,,,,,,,,,,
550901,001,2022-11-20_20h59.04.885,Info_measure_main_exp,2022.2.2,Win32,59.96641881,,,,,,,,,,,,,,,,,,masks/mask_003.jpg,,,,,,,,,,,,,,,,,,,,,,,,,,,,,,,,,,,,,,,,,,,,,,,,0,0,0,2,1,,,,,,,,,,,,,,,,,,,,,,,,,,,,,,,,,,,,,,,,,
550901,001,2022-11-20_20h59.04.885,Info_measure_main_exp,2022.2.2,Win32,59.96641881,,,,,,,,,,,,,,,,,,masks/mask_002.jpg,,,,,,,,,,,,,,,,,,,,,,,,,,,,,,,,,,,,,,,,,,,,,,,,0,1,1,1,1,,,,,,,,,,,,,,,,,,,,,,,,,,,,,,,,,,,,,,,,,
550901,001,2022-11-20_20h59.04.885,Info_measure_main_exp,2022.2.2,Win32,59.96641881,,,,,,,,,,,,,,,,,,masks/mask_004.jpg,,,,,,,,,,,,,,,,,,,,,,,,,,,,,,,,,,,,,,,,,,,,,,,,0,2,2,3,1,,,,,,,,,,,,,,,,,,,,,,,,,,,,,,,,,,,,,,,,,
550901,001,2022-11-20_20h59.04.885,Info_measure_main_exp,2022.2.2,Win32,59.96641881,,,,,,,,,,,,,,,,,,masks/mask_005.jpg,,,,,,,,,,,,,,,,,,,,,,,,,,,,,,,,,,,,,,,,,,,,,,,,0,3,3,4,1,,,,,,,,,,,,,,,,,,,,,,,,,,,,,,,,,,,,,,,,,
550901,001,2022-11-20_20h59.04.885,Info_measure_main_exp,2022.2.2,Win32,59.96641881,,,,,,,,,,,,,,,,,,masks/mask_001.jpg,,,,,,,,,,,,,,,,,,,,,,,,,,,,,,,,,,,,,,,,,,,,,,,,0,4,4,0,1,,,,,,,,,,,,,,,,,,,,,,,,,,,,,,,,,,,,,,,,,
550901,001,2022-11-20_20h59.04.885,Info_measure_main_exp,2022.2.2,Win32,59.96641881,,,,,,,,,,,,,,,,,,,,,,,,,,,,,,0,2.2506,1,,,,,,,,,,,,0,131,5,5,2154,2154,absent_patch/patch0002154.jpg,absent_patch/patch0002154.jpg,,,,,,,,,,,,,,,,,,,,-0.053385417,0.114583333,1,0,0,response7disk,23,-0.005208333,0.013020833,1,0,0,center_square,0,22,22,89,1,,,,,,,,,,,,,,,,,,,,,,,
550901,001,2022-11-20_20h59.04.885,Info_measure_main_exp,2022.2.2,Win32,59.96641881,,,,,,,,,,,,,,,,,,masks/mask_003.jpg,,,,,,,,,,,,,,,,,,,,,,,,,,,,,,,,,,,,,,,,,,,0,0,0,2,1,,,,,,,,,,,,,,,,,,,,,,,,,,,,,,,,,,,,,,,,,,,,,,
550901,001,2022-11-20_20h59.04.885,Info_measure_main_exp,2022.2.2,Win32,59.96641881,,,,,,,,,,,,,,,,,,masks/mask_004.jpg,,,,,,,,,,,,,,,,,,,,,,,,,,,,,,,,,,,,,,,,,,,0,1,1,3,1,,,,,,,,,,,,,,,,,,,,,,,,,,,,,,,,,,,,,,,,,,,,,,
550901,001,2022-11-20_20h59.04.885,Info_measure_main_exp,2022.2.2,Win32,59.96641881,,,,,,,,,,,,,,,,,,masks/mask_005.jpg,,,,,,,,,,,,,,,,,,,,,,,,,,,,,,,,,,,,,,,,,,,0,2,2,4,1,,,,,,,,,,,,,,,,,,,,,,,,,,,,,,,,,,,,,,,,,,,,,,
550901,001,2022-11-20_20h59.04.885,Info_measure_main_exp,2022.2.2,Win32,59.96641881,,,,,,,,,,,,,,,,,,masks/mask_001.jpg,,,,,,,,,,,,,,,,,,,,,,,,,,,,,,,,,,,,,,,,,,,0,3,3,0,1,,,,,,,,,,,,,,,,,,,,,,,,,,,,,,,,,,,,,,,,,,,,,,
550901,001,2022-11-20_20h59.04.885,Info_measure_main_exp,2022.2.2,Win32,59.96641881,,,,,,,,,,,,,,,,,,masks/mask_002.jpg,,,,,,,,,,,,,,,,,,,,,,,,,,,,,,,,,,,,,,,,,,,0,4,4,1,1,,,,,,,,,,,,,,,,,,,,,,,,,,,,,,,,,,,,,,,,,,,,,,
550901,001,2022-11-20_20h59.04.885,Info_measure_main_exp,2022.2.2,Win32,59.96641881,,,,,,,,,,,,,,,,,,masks/mask_005.jpg,,,,,,,,,,,,,,,,,,,,,,,,,,,,,,,,,,,,,,,,,,,,,,,,0,0,0,4,1,,,,,,,,,,,,,,,,,,,,,,,,,,,,,,,,,,,,,,,,,
550901,001,2022-11-20_20h59.04.885,Info_measure_main_exp,2022.2.2,Win32,59.96641881,,,,,,,,,,,,,,,,,,masks/mask_002.jpg,,,,,,,,,,,,,,,,,,,,,,,,,,,,,,,,,,,,,,,,,,,,,,,,0,1,1,1,1,,,,,,,,,,,,,,,,,,,,,,,,,,,,,,,,,,,,,,,,,
550901,001,2022-11-20_20h59.04.885,Info_measure_main_exp,2022.2.2,Win32,59.96641881,,,,,,,,,,,,,,,,,,masks/mask_003.jpg,,,,,,,,,,,,,,,,,,,,,,,,,,,,,,,,,,,,,,,,,,,,,,,,0,2,2,2,1,,,,,,,,,,,,,,,,,,,,,,,,,,,,,,,,,,,,,,,,,
550901,001,2022-11-20_20h59.04.885,Info_measure_main_exp,2022.2.2,Win32,59.96641881,,,,,,,,,,,,,,,,,,masks/mask_001.jpg,,,,,,,,,,,,,,,,,,,,,,,,,,,,,,,,,,,,,,,,,,,,,,,,0,3,3,0,1,,,,,,,,,,,,,,,,,,,,,,,,,,,,,,,,,,,,,,,,,
550901,001,2022-11-20_20h59.04.885,Info_measure_main_exp,2022.2.2,Win32,59.96641881,,,,,,,,,,,,,,,,,,masks/mask_004.jpg,,,,,,,,,,,,,,,,,,,,,,,,,,,,,,,,,,,,,,,,,,,,,,,,0,4,4,3,1,,,,,,,,,,,,,,,,,,,,,,,,,,,,,,,,,,,,,,,,,
550901,001,2022-11-20_20h59.04.885,Info_measure_main_exp,2022.2.2,Win32,59.96641881,,,,,,,,,,,,,,,,,,,,,,,,,,,,,,6,1.0126,1,,,,,,,,,,,,0,131,5,5,2142,2190,absent_patch/patch0002142.jpg,absent_patch/patch0002190.jpg,,,,,,,,,,,,,,,,,,,,0.138020833,0.118489583,1,0,0,response1disk,24,0.013020833,0.001302083,1,0,0,center_square,0,23,23,70,1,,,,,,,,,,,,,,,,,,,,,,,
550901,001,2022-11-20_20h59.04.885,Info_measure_main_exp,2022.2.2,Win32,59.96641881,,,,,,,,,,,,,,,,,,masks/mask_001.jpg,,,,,,,,,,,,,,,,,,,,,,,,,,,,,,,,,,,,,,,,,,,0,0,0,0,1,,,,,,,,,,,,,,,,,,,,,,,,,,,,,,,,,,,,,,,,,,,,,,
550901,001,2022-11-20_20h59.04.885,Info_measure_main_exp,2022.2.2,Win32,59.96641881,,,,,,,,,,,,,,,,,,masks/mask_003.jpg,,,,,,,,,,,,,,,,,,,,,,,,,,,,,,,,,,,,,,,,,,,0,1,1,2,1,,,,,,,,,,,,,,,,,,,,,,,,,,,,,,,,,,,,,,,,,,,,,,
550901,001,2022-11-20_20h59.04.885,Info_measure_main_exp,2022.2.2,Win32,59.96641881,,,,,,,,,,,,,,,,,,masks/mask_005.jpg,,,,,,,,,,,,,,,,,,,,,,,,,,,,,,,,,,,,,,,,,,,0,2,2,4,1,,,,,,,,,,,,,,,,,,,,,,,,,,,,,,,,,,,,,,,,,,,,,,
550901,001,2022-11-20_20h59.04.885,Info_measure_main_exp,2022.2.2,Win32,59.96641881,,,,,,,,,,,,,,,,,,masks/mask_002.jpg,,,,,,,,,,,,,,,,,,,,,,,,,,,,,,,,,,,,,,,,,,,0,3,3,1,1,,,,,,,,,,,,,,,,,,,,,,,,,,,,,,,,,,,,,,,,,,,,,,
550901,001,2022-11-20_20h59.04.885,Info_measure_main_exp,2022.2.2,Win32,59.96641881,,,,,,,,,,,,,,,,,,masks/mask_004.jpg,,,,,,,,,,,,,,,,,,,,,,,,,,,,,,,,,,,,,,,,,,,0,4,4,3,1,,,,,,,,,,,,,,,,,,,,,,,,,,,,,,,,,,,,,,,,,,,,,,
550901,001,2022-11-20_20h59.04.885,Info_measure_main_exp,2022.2.2,Win32,59.96641881,,,,,,,,,,,,,,,,,,masks/mask_001.jpg,,,,,,,,,,,,,,,,,,,,,,,,,,,,,,,,,,,,,,,,,,,,,,,,0,0,0,0,1,,,,,,,,,,,,,,,,,,,,,,,,,,,,,,,,,,,,,,,,,
550901,001,2022-11-20_20h59.04.885,Info_measure_main_exp,2022.2.2,Win32,59.96641881,,,,,,,,,,,,,,,,,,masks/mask_005.jpg,,,,,,,,,,,,,,,,,,,,,,,,,,,,,,,,,,,,,,,,,,,,,,,,0,1,1,4,1,,,,,,,,,,,,,,,,,,,,,,,,,,,,,,,,,,,,,,,,,
550901,001,2022-11-20_20h59.04.885,Info_measure_main_exp,2022.2.2,Win32,59.96641881,,,,,,,,,,,,,,,,,,masks/mask_002.jpg,,,,,,,,,,,,,,,,,,,,,,,,,,,,,,,,,,,,,,,,,,,,,,,,0,2,2,1,1,,,,,,,,,,,,,,,,,,,,,,,,,,,,,,,,,,,,,,,,,
550901,001,2022-11-20_20h59.04.885,Info_measure_main_exp,2022.2.2,Win32,59.96641881,,,,,,,,,,,,,,,,,,masks/mask_003.jpg,,,,,,,,,,,,,,,,,,,,,,,,,,,,,,,,,,,,,,,,,,,,,,,,0,3,3,2,1,,,,,,,,,,,,,,,,,,,,,,,,,,,,,,,,,,,,,,,,,
550901,001,2022-11-20_20h59.04.885,Info_measure_main_exp,2022.2.2,Win32,59.96641881,,,,,,,,,,,,,,,,,,masks/mask_004.jpg,,,,,,,,,,,,,,,,,,,,,,,,,,,,,,,,,,,,,,,,,,,,,,,,0,4,4,3,1,,,,,,,,,,,,,,,,,,,,,,,,,,,,,,,,,,,,,,,,,
550901,001,2022-11-20_20h59.04.885,Info_measure_main_exp,2022.2.2,Win32,59.96641881,,,,,,,,,,,,,,,,,,,,,,,,,,,,,,7,0.9107,1,,,,,,,,,,,,0,131,5,5,2214,2082,absent_patch/patch0002214.jpg,absent_patch/patch0002082.jpg,,,,,,,,,,,,,,,,,,,,0.061197917,0.108072917,1,0,0,response1disk,25,0.005208333,-0.014322917,1,0,0,center_square,0,24,24,103,1,,,,,,,,,,,,,,,,,,,,,,,
550901,001,2022-11-20_20h59.04.885,Info_measure_main_exp,2022.2.2,Win32,59.96641881,,,,,,,,,,,,,,,,,,masks/mask_004.jpg,,,,,,,,,,,,,,,,,,,,,,,,,,,,,,,,,,,,,,,,,,,0,0,0,3,1,,,,,,,,,,,,,,,,,,,,,,,,,,,,,,,,,,,,,,,,,,,,,,
550901,001,2022-11-20_20h59.04.885,Info_measure_main_exp,2022.2.2,Win32,59.96641881,,,,,,,,,,,,,,,,,,masks/mask_005.jpg,,,,,,,,,,,,,,,,,,,,,,,,,,,,,,,,,,,,,,,,,,,0,1,1,4,1,,,,,,,,,,,,,,,,,,,,,,,,,,,,,,,,,,,,,,,,,,,,,,
550901,001,2022-11-20_20h59.04.885,Info_measure_main_exp,2022.2.2,Win32,59.96641881,,,,,,,,,,,,,,,,,,masks/mask_001.jpg,,,,,,,,,,,,,,,,,,,,,,,,,,,,,,,,,,,,,,,,,,,0,2,2,0,1,,,,,,,,,,,,,,,,,,,,,,,,,,,,,,,,,,,,,,,,,,,,,,
550901,001,2022-11-20_20h59.04.885,Info_measure_main_exp,2022.2.2,Win32,59.96641881,,,,,,,,,,,,,,,,,,masks/mask_003.jpg,,,,,,,,,,,,,,,,,,,,,,,,,,,,,,,,,,,,,,,,,,,0,3,3,2,1,,,,,,,,,,,,,,,,,,,,,,,,,,,,,,,,,,,,,,,,,,,,,,
550901,001,2022-11-20_20h59.04.885,Info_measure_main_exp,2022.2.2,Win32,59.96641881,,,,,,,,,,,,,,,,,,masks/mask_002.jpg,,,,,,,,,,,,,,,,,,,,,,,,,,,,,,,,,,,,,,,,,,,0,4,4,1,1,,,,,,,,,,,,,,,,,,,,,,,,,,,,,,,,,,,,,,,,,,,,,,
550901,001,2022-11-20_20h59.04.885,Info_measure_main_exp,2022.2.2,Win32,59.96641881,,,,,,,,,,,,,,,,,,masks/mask_002.jpg,,,,,,,,,,,,,,,,,,,,,,,,,,,,,,,,,,,,,,,,,,,,,,,,0,0,0,1,1,,,,,,,,,,,,,,,,,,,,,,,,,,,,,,,,,,,,,,,,,
550901,001,2022-11-20_20h59.04.885,Info_measure_main_exp,2022.2.2,Win32,59.96641881,,,,,,,,,,,,,,,,,,masks/mask_003.jpg,,,,,,,,,,,,,,,,,,,,,,,,,,,,,,,,,,,,,,,,,,,,,,,,0,1,1,2,1,,,,,,,,,,,,,,,,,,,,,,,,,,,,,,,,,,,,,,,,,
550901,001,2022-11-20_20h59.04.885,Info_measure_main_exp,2022.2.2,Win32,59.96641881,,,,,,,,,,,,,,,,,,masks/mask_004.jpg,,,,,,,,,,,,,,,,,,,,,,,,,,,,,,,,,,,,,,,,,,,,,,,,0,2,2,3,1,,,,,,,,,,,,,,,,,,,,,,,,,,,,,,,,,,,,,,,,,
550901,001,2022-11-20_20h59.04.885,Info_measure_main_exp,2022.2.2,Win32,59.96641881,,,,,,,,,,,,,,,,,,masks/mask_001.jpg,,,,,,,,,,,,,,,,,,,,,,,,,,,,,,,,,,,,,,,,,,,,,,,,0,3,3,0,1,,,,,,,,,,,,,,,,,,,,,,,,,,,,,,,,,,,,,,,,,
550901,001,2022-11-20_20h59.04.885,Info_measure_main_exp,2022.2.2,Win32,59.96641881,,,,,,,,,,,,,,,,,,masks/mask_005.jpg,,,,,,,,,,,,,,,,,,,,,,,,,,,,,,,,,,,,,,,,,,,,,,,,0,4,4,4,1,,,,,,,,,,,,,,,,,,,,,,,,,,,,,,,,,,,,,,,,,
550901,001,2022-11-20_20h59.04.885,Info_measure_main_exp,2022.2.2,Win32,59.96641881,,,,,,,,,,,,,,,,,,,,,,,,,,,,,,0,0.8173,1,,,,,,,,,,,,0,131,5,5,1986,1986,absent_patch/patch0001986.jpg,absent_patch/patch0001986.jpg,,,,,,,,,,,,,,,,,,,,-0.048177083,0.140625,1,0,0,response7disk,26,0,-0.002604167,1,0,0,center_square,0,25,25,19,1,,,,,,,,,,,,,,,,,,,,,,,
550901,001,2022-11-20_20h59.04.885,Info_measure_main_exp,2022.2.2,Win32,59.96641881,,,,,,,,,,,,,,,,,,masks/mask_001.jpg,,,,,,,,,,,,,,,,,,,,,,,,,,,,,,,,,,,,,,,,,,,0,0,0,0,1,,,,,,,,,,,,,,,,,,,,,,,,,,,,,,,,,,,,,,,,,,,,,,
550901,001,2022-11-20_20h59.04.885,Info_measure_main_exp,2022.2.2,Win32,59.96641881,,,,,,,,,,,,,,,,,,masks/mask_005.jpg,,,,,,,,,,,,,,,,,,,,,,,,,,,,,,,,,,,,,,,,,,,0,1,1,4,1,,,,,,,,,,,,,,,,,,,,,,,,,,,,,,,,,,,,,,,,,,,,,,
550901,001,2022-11-20_20h59.04.885,Info_measure_main_exp,2022.2.2,Win32,59.96641881,,,,,,,,,,,,,,,,,,masks/mask_003.jpg,,,,,,,,,,,,,,,,,,,,,,,,,,,,,,,,,,,,,,,,,,,0,2,2,2,1,,,,,,,,,,,,,,,,,,,,,,,,,,,,,,,,,,,,,,,,,,,,,,
550901,001,2022-11-20_20h59.04.885,Info_measure_main_exp,2022.2.2,Win32,59.96641881,,,,,,,,,,,,,,,,,,masks/mask_004.jpg,,,,,,,,,,,,,,,,,,,,,,,,,,,,,,,,,,,,,,,,,,,0,3,3,3,1,,,,,,,,,,,,,,,,,,,,,,,,,,,,,,,,,,,,,,,,,,,,,,
550901,001,2022-11-20_20h59.04.885,Info_measure_main_exp,2022.2.2,Win32,59.96641881,,,,,,,,,,,,,,,,,,masks/mask_002.jpg,,,,,,,,,,,,,,,,,,,,,,,,,,,,,,,,,,,,,,,,,,,0,4,4,1,1,,,,,,,,,,,,,,,,,,,,,,,,,,,,,,,,,,,,,,,,,,,,,,
550901,001,2022-11-20_20h59.04.885,Info_measure_main_exp,2022.2.2,Win32,59.96641881,,,,,,,,,,,,,,,,,,masks/mask_003.jpg,,,,,,,,,,,,,,,,,,,,,,,,,,,,,,,,,,,,,,,,,,,,,,,,0,0,0,2,1,,,,,,,,,,,,,,,,,,,,,,,,,,,,,,,,,,,,,,,,,
550901,001,2022-11-20_20h59.04.885,Info_measure_main_exp,2022.2.2,Win32,59.96641881,,,,,,,,,,,,,,,,,,masks/mask_002.jpg,,,,,,,,,,,,,,,,,,,,,,,,,,,,,,,,,,,,,,,,,,,,,,,,0,1,1,1,1,,,,,,,,,,,,,,,,,,,,,,,,,,,,,,,,,,,,,,,,,
550901,001,2022-11-20_20h59.04.885,Info_measure_main_exp,2022.2.2,Win32,59.96641881,,,,,,,,,,,,,,,,,,masks/mask_005.jpg,,,,,,,,,,,,,,,,,,,,,,,,,,,,,,,,,,,,,,,,,,,,,,,,0,2,2,4,1,,,,,,,,,,,,,,,,,,,,,,,,,,,,,,,,,,,,,,,,,
550901,001,2022-11-20_20h59.04.885,Info_measure_main_exp,2022.2.2,Win32,59.96641881,,,,,,,,,,,,,,,,,,masks/mask_001.jpg,,,,,,,,,,,,,,,,,,,,,,,,,,,,,,,,,,,,,,,,,,,,,,,,0,3,3,0,1,,,,,,,,,,,,,,,,,,,,,,,,,,,,,,,,,,,,,,,,,
550901,001,2022-11-20_20h59.04.885,Info_measure_main_exp,2022.2.2,Win32,59.96641881,,,,,,,,,,,,,,,,,,masks/mask_004.jpg,,,,,,,,,,,,,,,,,,,,,,,,,,,,,,,,,,,,,,,,,,,,,,,,0,4,4,3,1,,,,,,,,,,,,,,,,,,,,,,,,,,,,,,,,,,,,,,,,,
550901,001,2022-11-20_20h59.04.885,Info_measure_main_exp,2022.2.2,Win32,59.96641881,,,,,,,,,,,,,,,,,,,,,,,,,,,,,,6,0.6504,1,,,,,,,,,,,,0,131,5,5,2238,2298,absent_patch/patch0002238.jpg,absent_patch/patch0002298.jpg,,,,,,,,,,,,,,,,,,,,0.102864583,0.05859375,1,0,0,response1disk,27,0.009114583,0.0078125,1,0,0,center_square,0,26,26,51,1,,,,,,,,,,,,,,,,,,,,,,,
550901,001,2022-11-20_20h59.04.885,Info_measure_main_exp,2022.2.2,Win32,59.96641881,,,,,,,,,,,,,,,,,,masks/mask_005.jpg,,,,,,,,,,,,,,,,,,,,,,,,,,,,,,,,,,,,,,,,,,,0,0,0,4,1,,,,,,,,,,,,,,,,,,,,,,,,,,,,,,,,,,,,,,,,,,,,,,
550901,001,2022-11-20_20h59.04.885,Info_measure_main_exp,2022.2.2,Win32,59.96641881,,,,,,,,,,,,,,,,,,masks/mask_004.jpg,,,,,,,,,,,,,,,,,,,,,,,,,,,,,,,,,,,,,,,,,,,0,1,1,3,1,,,,,,,,,,,,,,,,,,,,,,,,,,,,,,,,,,,,,,,,,,,,,,
550901,001,2022-11-20_20h59.04.885,Info_measure_main_exp,2022.2.2,Win32,59.96641881,,,,,,,,,,,,,,,,,,masks/mask_002.jpg,,,,,,,,,,,,,,,,,,,,,,,,,,,,,,,,,,,,,,,,,,,0,2,2,1,1,,,,,,,,,,,,,,,,,,,,,,,,,,,,,,,,,,,,,,,,,,,,,,
550901,001,2022-11-20_20h59.04.885,Info_measure_main_exp,2022.2.2,Win32,59.96641881,,,,,,,,,,,,,,,,,,masks/mask_003.jpg,,,,,,,,,,,,,,,,,,,,,,,,,,,,,,,,,,,,,,,,,,,0,3,3,2,1,,,,,,,,,,,,,,,,,,,,,,,,,,,,,,,,,,,,,,,,,,,,,,
550901,001,2022-11-20_20h59.04.885,Info_measure_main_exp,2022.2.2,Win32,59.96641881,,,,,,,,,,,,,,,,,,masks/mask_001.jpg,,,,,,,,,,,,,,,,,,,,,,,,,,,,,,,,,,,,,,,,,,,0,4,4,0,1,,,,,,,,,,,,,,,,,,,,,,,,,,,,,,,,,,,,,,,,,,,,,,
550901,001,2022-11-20_20h59.04.885,Info_measure_main_exp,2022.2.2,Win32,59.96641881,,,,,,,,,,,,,,,,,,masks/mask_004.jpg,,,,,,,,,,,,,,,,,,,,,,,,,,,,,,,,,,,,,,,,,,,,,,,,0,0,0,3,1,,,,,,,,,,,,,,,,,,,,,,,,,,,,,,,,,,,,,,,,,
550901,001,2022-11-20_20h59.04.885,Info_measure_main_exp,2022.2.2,Win32,59.96641881,,,,,,,,,,,,,,,,,,masks/mask_002.jpg,,,,,,,,,,,,,,,,,,,,,,,,,,,,,,,,,,,,,,,,,,,,,,,,0,1,1,1,1,,,,,,,,,,,,,,,,,,,,,,,,,,,,,,,,,,,,,,,,,
550901,001,2022-11-20_20h59.04.885,Info_measure_main_exp,2022.2.2,Win32,59.96641881,,,,,,,,,,,,,,,,,,masks/mask_003.jpg,,,,,,,,,,,,,,,,,,,,,,,,,,,,,,,,,,,,,,,,,,,,,,,,0,2,2,2,1,,,,,,,,,,,,,,,,,,,,,,,,,,,,,,,,,,,,,,,,,
550901,001,2022-11-20_20h59.04.885,Info_measure_main_exp,2022.2.2,Win32,59.96641881,,,,,,,,,,,,,,,,,,masks/mask_005.jpg,,,,,,,,,,,,,,,,,,,,,,,,,,,,,,,,,,,,,,,,,,,,,,,,0,3,3,4,1,,,,,,,,,,,,,,,,,,,,,,,,,,,,,,,,,,,,,,,,,
550901,001,2022-11-20_20h59.04.885,Info_measure_main_exp,2022.2.2,Win32,59.96641881,,,,,,,,,,,,,,,,,,masks/mask_001.jpg,,,,,,,,,,,,,,,,,,,,,,,,,,,,,,,,,,,,,,,,,,,,,,,,0,4,4,0,1,,,,,,,,,,,,,,,,,,,,,,,,,,,,,,,,,,,,,,,,,
550901,001,2022-11-20_20h59.04.885,Info_measure_main_exp,2022.2.2,Win32,59.96641881,,,,,,,,,,,,,,,,,,,,,,,,,,,,,,6,0.6494,1,,,,,,,,,,,,1,131,5,5,2082,1,absent_patch/patch0002082.jpg,present_patch/cong_131_5_a.jpg,,,,,,,,,,,,,,,,,,,,0.09375,0.08203125,1,0,0,response1disk,28,0.001302083,0.002604167,1,0,0,center_square,0,27,27,65,1,,,,,,,,,,,,,,,,,,,,,,,
550901,001,2022-11-20_20h59.04.885,Info_measure_main_exp,2022.2.2,Win32,59.96641881,,,,,,,,,,,,,,,,,,masks/mask_003.jpg,,,,,,,,,,,,,,,,,,,,,,,,,,,,,,,,,,,,,,,,,,,0,0,0,2,1,,,,,,,,,,,,,,,,,,,,,,,,,,,,,,,,,,,,,,,,,,,,,,
550901,001,2022-11-20_20h59.04.885,Info_measure_main_exp,2022.2.2,Win32,59.96641881,,,,,,,,,,,,,,,,,,masks/mask_002.jpg,,,,,,,,,,,,,,,,,,,,,,,,,,,,,,,,,,,,,,,,,,,0,1,1,1,1,,,,,,,,,,,,,,,,,,,,,,,,,,,,,,,,,,,,,,,,,,,,,,
550901,001,2022-11-20_20h59.04.885,Info_measure_main_exp,2022.2.2,Win32,59.96641881,,,,,,,,,,,,,,,,,,masks/mask_004.jpg,,,,,,,,,,,,,,,,,,,,,,,,,,,,,,,,,,,,,,,,,,,0,2,2,3,1,,,,,,,,,,,,,,,,,,,,,,,,,,,,,,,,,,,,,,,,,,,,,,
550901,001,2022-11-20_20h59.04.885,Info_measure_main_exp,2022.2.2,Win32,59.96641881,,,,,,,,,,,,,,,,,,masks/mask_005.jpg,,,,,,,,,,,,,,,,,,,,,,,,,,,,,,,,,,,,,,,,,,,0,3,3,4,1,,,,,,,,,,,,,,,,,,,,,,,,,,,,,,,,,,,,,,,,,,,,,,
550901,001,2022-11-20_20h59.04.885,Info_measure_main_exp,2022.2.2,Win32,59.96641881,,,,,,,,,,,,,,,,,,masks/mask_001.jpg,,,,,,,,,,,,,,,,,,,,,,,,,,,,,,,,,,,,,,,,,,,0,4,4,0,1,,,,,,,,,,,,,,,,,,,,,,,,,,,,,,,,,,,,,,,,,,,,,,
550901,001,2022-11-20_20h59.04.885,Info_measure_main_exp,2022.2.2,Win32,59.96641881,,,,,,,,,,,,,,,,,,masks/mask_001.jpg,,,,,,,,,,,,,,,,,,,,,,,,,,,,,,,,,,,,,,,,,,,,,,,,0,0,0,0,1,,,,,,,,,,,,,,,,,,,,,,,,,,,,,,,,,,,,,,,,,
550901,001,2022-11-20_20h59.04.885,Info_measure_main_exp,2022.2.2,Win32,59.96641881,,,,,,,,,,,,,,,,,,masks/mask_005.jpg,,,,,,,,,,,,,,,,,,,,,,,,,,,,,,,,,,,,,,,,,,,,,,,,0,1,1,4,1,,,,,,,,,,,,,,,,,,,,,,,,,,,,,,,,,,,,,,,,,
550901,001,2022-11-20_20h59.04.885,Info_measure_main_exp,2022.2.2,Win32,59.96641881,,,,,,,,,,,,,,,,,,masks/mask_002.jpg,,,,,,,,,,,,,,,,,,,,,,,,,,,,,,,,,,,,,,,,,,,,,,,,0,2,2,1,1,,,,,,,,,,,,,,,,,,,,,,,,,,,,,,,,,,,,,,,,,
550901,001,2022-11-20_20h59.04.885,Info_measure_main_exp,2022.2.2,Win32,59.96641881,,,,,,,,,,,,,,,,,,masks/mask_004.jpg,,,,,,,,,,,,,,,,,,,,,,,,,,,,,,,,,,,,,,,,,,,,,,,,0,3,3,3,1,,,,,,,,,,,,,,,,,,,,,,,,,,,,,,,,,,,,,,,,,
550901,001,2022-11-20_20h59.04.885,Info_measure_main_exp,2022.2.2,Win32,59.96641881,,,,,,,,,,,,,,,,,,masks/mask_003.jpg,,,,,,,,,,,,,,,,,,,,,,,,,,,,,,,,,,,,,,,,,,,,,,,,0,4,4,2,1,,,,,,,,,,,,,,,,,,,,,,,,,,,,,,,,,,,,,,,,,
550901,001,2022-11-20_20h59.04.885,Info_measure_main_exp,2022.2.2,Win32,59.96641881,,,,,,,,,,,,,,,,,,,,,,,,,,,,,,6,0.5361,1,,,,,,,,,,,,0,131,5,5,2154,2214,absent_patch/patch0002154.jpg,absent_patch/patch0002214.jpg,,,,,,,,,,,,,,,,,,,,0.079427083,0.06640625,1,0,0,response1disk,29,0.001302083,0.0078125,1,0,0,center_square,0,28,28,67,1,,,,,,,,,,,,,,,,,,,,,,,
550901,001,2022-11-20_20h59.04.885,Info_measure_main_exp,2022.2.2,Win32,59.96641881,,,,,,,,,,,,,,,,,,masks/mask_005.jpg,,,,,,,,,,,,,,,,,,,,,,,,,,,,,,,,,,,,,,,,,,,0,0,0,4,1,,,,,,,,,,,,,,,,,,,,,,,,,,,,,,,,,,,,,,,,,,,,,,
550901,001,2022-11-20_20h59.04.885,Info_measure_main_exp,2022.2.2,Win32,59.96641881,,,,,,,,,,,,,,,,,,masks/mask_001.jpg,,,,,,,,,,,,,,,,,,,,,,,,,,,,,,,,,,,,,,,,,,,0,1,1,0,1,,,,,,,,,,,,,,,,,,,,,,,,,,,,,,,,,,,,,,,,,,,,,,
550901,001,2022-11-20_20h59.04.885,Info_measure_main_exp,2022.2.2,Win32,59.96641881,,,,,,,,,,,,,,,,,,masks/mask_002.jpg,,,,,,,,,,,,,,,,,,,,,,,,,,,,,,,,,,,,,,,,,,,0,2,2,1,1,,,,,,,,,,,,,,,,,,,,,,,,,,,,,,,,,,,,,,,,,,,,,,
550901,001,2022-11-20_20h59.04.885,Info_measure_main_exp,2022.2.2,Win32,59.96641881,,,,,,,,,,,,,,,,,,masks/mask_004.jpg,,,,,,,,,,,,,,,,,,,,,,,,,,,,,,,,,,,,,,,,,,,0,3,3,3,1,,,,,,,,,,,,,,,,,,,,,,,,,,,,,,,,,,,,,,,,,,,,,,
550901,001,2022-11-20_20h59.04.885,Info_measure_main_exp,2022.2.2,Win32,59.96641881,,,,,,,,,,,,,,,,,,masks/mask_003.jpg,,,,,,,,,,,,,,,,,,,,,,,,,,,,,,,,,,,,,,,,,,,0,4,4,2,1,,,,,,,,,,,,,,,,,,,,,,,,,,,,,,,,,,,,,,,,,,,,,,
550901,001,2022-11-20_20h59.04.885,Info_measure_main_exp,2022.2.2,Win32,59.96641881,,,,,,,,,,,,,,,,,,masks/mask_002.jpg,,,,,,,,,,,,,,,,,,,,,,,,,,,,,,,,,,,,,,,,,,,,,,,,0,0,0,1,1,,,,,,,,,,,,,,,,,,,,,,,,,,,,,,,,,,,,,,,,,
550901,001,2022-11-20_20h59.04.885,Info_measure_main_exp,2022.2.2,Win32,59.96641881,,,,,,,,,,,,,,,,,,masks/mask_004.jpg,,,,,,,,,,,,,,,,,,,,,,,,,,,,,,,,,,,,,,,,,,,,,,,,0,1,1,3,1,,,,,,,,,,,,,,,,,,,,,,,,,,,,,,,,,,,,,,,,,
550901,001,2022-11-20_20h59.04.885,Info_measure_main_exp,2022.2.2,Win32,59.96641881,,,,,,,,,,,,,,,,,,masks/mask_003.jpg,,,,,,,,,,,,,,,,,,,,,,,,,,,,,,,,,,,,,,,,,,,,,,,,0,2,2,2,1,,,,,,,,,,,,,,,,,,,,,,,,,,,,,,,,,,,,,,,,,
550901,001,2022-11-20_20h59.04.885,Info_measure_main_exp,2022.2.2,Win32,59.96641881,,,,,,,,,,,,,,,,,,masks/mask_005.jpg,,,,,,,,,,,,,,,,,,,,,,,,,,,,,,,,,,,,,,,,,,,,,,,,0,3,3,4,1,,,,,,,,,,,,,,,,,,,,,,,,,,,,,,,,,,,,,,,,,
550901,001,2022-11-20_20h59.04.885,Info_measure_main_exp,2022.2.2,Win32,59.96641881,,,,,,,,,,,,,,,,,,masks/mask_001.jpg,,,,,,,,,,,,,,,,,,,,,,,,,,,,,,,,,,,,,,,,,,,,,,,,0,4,4,0,1,,,,,,,,,,,,,,,,,,,,,,,,,,,,,,,,,,,,,,,,,
550901,001,2022-11-20_20h59.04.885,Info_measure_main_exp,2022.2.2,Win32,59.96641881,,,,,,,,,,,,,,,,,,,,,,,,,,,,,,6,0.7341,1,,,,,,,,,,,,0,131,5,5,1986,2142,absent_patch/patch0001986.jpg,absent_patch/patch0002142.jpg,,,,,,,,,,,,,,,,,,,,0.125,0.069010417,1,0,0,response1disk,30,0.010416667,0.010416667,1,0,0,center_square,0,29,29,76,1,,,,,,,,,,,,,,,,,,,,,,,
550901,001,2022-11-20_20h59.04.885,Info_measure_main_exp,2022.2.2,Win32,59.96641881,,,,,,,,,,,,,,,,,,masks/mask_003.jpg,,,,,,,,,,,,,,,,,,,,,,,,,,,,,,,,,,,,,,,,,,,0,0,0,2,1,,,,,,,,,,,,,,,,,,,,,,,,,,,,,,,,,,,,,,,,,,,,,,
550901,001,2022-11-20_20h59.04.885,Info_measure_main_exp,2022.2.2,Win32,59.96641881,,,,,,,,,,,,,,,,,,masks/mask_001.jpg,,,,,,,,,,,,,,,,,,,,,,,,,,,,,,,,,,,,,,,,,,,0,1,1,0,1,,,,,,,,,,,,,,,,,,,,,,,,,,,,,,,,,,,,,,,,,,,,,,
550901,001,2022-11-20_20h59.04.885,Info_measure_main_exp,2022.2.2,Win32,59.96641881,,,,,,,,,,,,,,,,,,masks/mask_005.jpg,,,,,,,,,,,,,,,,,,,,,,,,,,,,,,,,,,,,,,,,,,,0,2,2,4,1,,,,,,,,,,,,,,,,,,,,,,,,,,,,,,,,,,,,,,,,,,,,,,
550901,001,2022-11-20_20h59.04.885,Info_measure_main_exp,2022.2.2,Win32,59.96641881,,,,,,,,,,,,,,,,,,masks/mask_004.jpg,,,,,,,,,,,,,,,,,,,,,,,,,,,,,,,,,,,,,,,,,,,0,3,3,3,1,,,,,,,,,,,,,,,,,,,,,,,,,,,,,,,,,,,,,,,,,,,,,,
550901,001,2022-11-20_20h59.04.885,Info_measure_main_exp,2022.2.2,Win32,59.96641881,,,,,,,,,,,,,,,,,,masks/mask_002.jpg,,,,,,,,,,,,,,,,,,,,,,,,,,,,,,,,,,,,,,,,,,,0,4,4,1,1,,,,,,,,,,,,,,,,,,,,,,,,,,,,,,,,,,,,,,,,,,,,,,
550901,001,2022-11-20_20h59.04.885,Info_measure_main_exp,2022.2.2,Win32,59.96641881,,,,,,,,,,,,,,,,,,masks/mask_003.jpg,,,,,,,,,,,,,,,,,,,,,,,,,,,,,,,,,,,,,,,,,,,,,,,,0,0,0,2,1,,,,,,,,,,,,,,,,,,,,,,,,,,,,,,,,,,,,,,,,,
550901,001,2022-11-20_20h59.04.885,Info_measure_main_exp,2022.2.2,Win32,59.96641881,,,,,,,,,,,,,,,,,,masks/mask_001.jpg,,,,,,,,,,,,,,,,,,,,,,,,,,,,,,,,,,,,,,,,,,,,,,,,0,1,1,0,1,,,,,,,,,,,,,,,,,,,,,,,,,,,,,,,,,,,,,,,,,
550901,001,2022-11-20_20h59.04.885,Info_measure_main_exp,2022.2.2,Win32,59.96641881,,,,,,,,,,,,,,,,,,masks/mask_004.jpg,,,,,,,,,,,,,,,,,,,,,,,,,,,,,,,,,,,,,,,,,,,,,,,,0,2,2,3,1,,,,,,,,,,,,,,,,,,,,,,,,,,,,,,,,,,,,,,,,,
550901,001,2022-11-20_20h59.04.885,Info_measure_main_exp,2022.2.2,Win32,59.96641881,,,,,,,,,,,,,,,,,,masks/mask_002.jpg,,,,,,,,,,,,,,,,,,,,,,,,,,,,,,,,,,,,,,,,,,,,,,,,0,3,3,1,1,,,,,,,,,,,,,,,,,,,,,,,,,,,,,,,,,,,,,,,,,
550901,001,2022-11-20_20h59.04.885,Info_measure_main_exp,2022.2.2,Win32,59.96641881,,,,,,,,,,,,,,,,,,masks/mask_005.jpg,,,,,,,,,,,,,,,,,,,,,,,,,,,,,,,,,,,,,,,,,,,,,,,,0,4,4,4,1,,,,,,,,,,,,,,,,,,,,,,,,,,,,,,,,,,,,,,,,,
550901,001,2022-11-20_20h59.04.885,Info_measure_main_exp,2022.2.2,Win32,59.96641881,,,,,,,,,,,,,,,,,,,,,,,,,,,,,,6,0.4452,1,,,,,,,,,,,,0,131,5,5,2082,2250,absent_patch/patch0002082.jpg,absent_patch/patch0002250.jpg,,,,,,,,,,,,,,,,,,,,0.138020833,0.1171875,1,0,0,response1disk,31,0,0.005208333,1,0,0,center_square,0,30,30,3,1,,,,,,,,,,,,,,,,,,,,,,,
550901,001,2022-11-20_20h59.04.885,Info_measure_main_exp,2022.2.2,Win32,59.96641881,,,,,,,,,,,,,,,,,,masks/mask_001.jpg,,,,,,,,,,,,,,,,,,,,,,,,,,,,,,,,,,,,,,,,,,,0,0,0,0,1,,,,,,,,,,,,,,,,,,,,,,,,,,,,,,,,,,,,,,,,,,,,,,
550901,001,2022-11-20_20h59.04.885,Info_measure_main_exp,2022.2.2,Win32,59.96641881,,,,,,,,,,,,,,,,,,masks/mask_003.jpg,,,,,,,,,,,,,,,,,,,,,,,,,,,,,,,,,,,,,,,,,,,0,1,1,2,1,,,,,,,,,,,,,,,,,,,,,,,,,,,,,,,,,,,,,,,,,,,,,,
550901,001,2022-11-20_20h59.04.885,Info_measure_main_exp,2022.2.2,Win32,59.96641881,,,,,,,,,,,,,,,,,,masks/mask_004.jpg,,,,,,,,,,,,,,,,,,,,,,,,,,,,,,,,,,,,,,,,,,,0,2,2,3,1,,,,,,,,,,,,,,,,,,,,,,,,,,,,,,,,,,,,,,,,,,,,,,
550901,001,2022-11-20_20h59.04.885,Info_measure_main_exp,2022.2.2,Win32,59.96641881,,,,,,,,,,,,,,,,,,masks/mask_005.jpg,,,,,,,,,,,,,,,,,,,,,,,,,,,,,,,,,,,,,,,,,,,0,3,3,4,1,,,,,,,,,,,,,,,,,,,,,,,,,,,,,,,,,,,,,,,,,,,,,,
550901,001,2022-11-20_20h59.04.885,Info_measure_main_exp,2022.2.2,Win32,59.96641881,,,,,,,,,,,,,,,,,,masks/mask_002.jpg,,,,,,,,,,,,,,,,,,,,,,,,,,,,,,,,,,,,,,,,,,,0,4,4,1,1,,,,,,,,,,,,,,,,,,,,,,,,,,,,,,,,,,,,,,,,,,,,,,
550901,001,2022-11-20_20h59.04.885,Info_measure_main_exp,2022.2.2,Win32,59.96641881,,,,,,,,,,,,,,,,,,masks/mask_003.jpg,,,,,,,,,,,,,,,,,,,,,,,,,,,,,,,,,,,,,,,,,,,,,,,,0,0,0,2,1,,,,,,,,,,,,,,,,,,,,,,,,,,,,,,,,,,,,,,,,,
550901,001,2022-11-20_20h59.04.885,Info_measure_main_exp,2022.2.2,Win32,59.96641881,,,,,,,,,,,,,,,,,,masks/mask_004.jpg,,,,,,,,,,,,,,,,,,,,,,,,,,,,,,,,,,,,,,,,,,,,,,,,0,1,1,3,1,,,,,,,,,,,,,,,,,,,,,,,,,,,,,,,,,,,,,,,,,
550901,001,2022-11-20_20h59.04.885,Info_measure_main_exp,2022.2.2,Win32,59.96641881,,,,,,,,,,,,,,,,,,masks/mask_005.jpg,,,,,,,,,,,,,,,,,,,,,,,,,,,,,,,,,,,,,,,,,,,,,,,,0,2,2,4,1,,,,,,,,,,,,,,,,,,,,,,,,,,,,,,,,,,,,,,,,,
550901,001,2022-11-20_20h59.04.885,Info_measure_main_exp,2022.2.2,Win32,59.96641881,,,,,,,,,,,,,,,,,,masks/mask_002.jpg,,,,,,,,,,,,,,,,,,,,,,,,,,,,,,,,,,,,,,,,,,,,,,,,0,3,3,1,1,,,,,,,,,,,,,,,,,,,,,,,,,,,,,,,,,,,,,,,,,
550901,001,2022-11-20_20h59.04.885,Info_measure_main_exp,2022.2.2,Win32,59.96641881,,,,,,,,,,,,,,,,,,masks/mask_001.jpg,,,,,,,,,,,,,,,,,,,,,,,,,,,,,,,,,,,,,,,,,,,,,,,,0,4,4,0,1,,,,,,,,,,,,,,,,,,,,,,,,,,,,,,,,,,,,,,,,,
550901,001,2022-11-20_20h59.04.885,Info_measure_main_exp,2022.2.2,Win32,59.96641881,,,,,,,,,,,,,,,,,,,,,,,,,,,,,,0,0.5201,1,,,,,,,,,,,,0,131,5,5,2166,2166,absent_patch/patch0002166.jpg,absent_patch/patch0002166.jpg,,,,,,,,,,,,,,,,,,,,-0.053385417,0.140625,1,0,0,response7disk,32,0.001302083,0.001302083,1,0,0,center_square,0,31,31,42,1,,,,,,,,,,,,,,,,,,,,,,,
550901,001,2022-11-20_20h59.04.885,Info_measure_main_exp,2022.2.2,Win32,59.96641881,,,,,,,,,,,,,,,,,,masks/mask_005.jpg,,,,,,,,,,,,,,,,,,,,,,,,,,,,,,,,,,,,,,,,,,,0,0,0,4,1,,,,,,,,,,,,,,,,,,,,,,,,,,,,,,,,,,,,,,,,,,,,,,
550901,001,2022-11-20_20h59.04.885,Info_measure_main_exp,2022.2.2,Win32,59.96641881,,,,,,,,,,,,,,,,,,masks/mask_001.jpg,,,,,,,,,,,,,,,,,,,,,,,,,,,,,,,,,,,,,,,,,,,0,1,1,0,1,,,,,,,,,,,,,,,,,,,,,,,,,,,,,,,,,,,,,,,,,,,,,,
550901,001,2022-11-20_20h59.04.885,Info_measure_main_exp,2022.2.2,Win32,59.96641881,,,,,,,,,,,,,,,,,,masks/mask_004.jpg,,,,,,,,,,,,,,,,,,,,,,,,,,,,,,,,,,,,,,,,,,,0,2,2,3,1,,,,,,,,,,,,,,,,,,,,,,,,,,,,,,,,,,,,,,,,,,,,,,
550901,001,2022-11-20_20h59.04.885,Info_measure_main_exp,2022.2.2,Win32,59.96641881,,,,,,,,,,,,,,,,,,masks/mask_002.jpg,,,,,,,,,,,,,,,,,,,,,,,,,,,,,,,,,,,,,,,,,,,0,3,3,1,1,,,,,,,,,,,,,,,,,,,,,,,,,,,,,,,,,,,,,,,,,,,,,,
550901,001,2022-11-20_20h59.04.885,Info_measure_main_exp,2022.2.2,Win32,59.96641881,,,,,,,,,,,,,,,,,,masks/mask_003.jpg,,,,,,,,,,,,,,,,,,,,,,,,,,,,,,,,,,,,,,,,,,,0,4,4,2,1,,,,,,,,,,,,,,,,,,,,,,,,,,,,,,,,,,,,,,,,,,,,,,
550901,001,2022-11-20_20h59.04.885,Info_measure_main_exp,2022.2.2,Win32,59.96641881,,,,,,,,,,,,,,,,,,masks/mask_004.jpg,,,,,,,,,,,,,,,,,,,,,,,,,,,,,,,,,,,,,,,,,,,,,,,,0,0,0,3,1,,,,,,,,,,,,,,,,,,,,,,,,,,,,,,,,,,,,,,,,,
550901,001,2022-11-20_20h59.04.885,Info_measure_main_exp,2022.2.2,Win32,59.96641881,,,,,,,,,,,,,,,,,,masks/mask_002.jpg,,,,,,,,,,,,,,,,,,,,,,,,,,,,,,,,,,,,,,,,,,,,,,,,0,1,1,1,1,,,,,,,,,,,,,,,,,,,,,,,,,,,,,,,,,,,,,,,,,
550901,001,2022-11-20_20h59.04.885,Info_measure_main_exp,2022.2.2,Win32,59.96641881,,,,,,,,,,,,,,,,,,masks/mask_001.jpg,,,,,,,,,,,,,,,,,,,,,,,,,,,,,,,,,,,,,,,,,,,,,,,,0,2,2,0,1,,,,,,,,,,,,,,,,,,,,,,,,,,,,,,,,,,,,,,,,,
550901,001,2022-11-20_20h59.04.885,Info_measure_main_exp,2022.2.2,Win32,59.96641881,,,,,,,,,,,,,,,,,,masks/mask_005.jpg,,,,,,,,,,,,,,,,,,,,,,,,,,,,,,,,,,,,,,,,,,,,,,,,0,3,3,4,1,,,,,,,,,,,,,,,,,,,,,,,,,,,,,,,,,,,,,,,,,
550901,001,2022-11-20_20h59.04.885,Info_measure_main_exp,2022.2.2,Win32,59.96641881,,,,,,,,,,,,,,,,,,masks/mask_003.jpg,,,,,,,,,,,,,,,,,,,,,,,,,,,,,,,,,,,,,,,,,,,,,,,,0,4,4,2,1,,,,,,,,,,,,,,,,,,,,,,,,,,,,,,,,,,,,,,,,,
550901,001,2022-11-20_20h59.04.885,Info_measure_main_exp,2022.2.2,Win32,59.96641881,,,,,,,,,,,,,,,,,,,,,,,,,,,,,,0,0.4987,1,,,,,,,,,,,,0,131,5,5,2142,2142,absent_patch/patch0002142.jpg,absent_patch/patch0002142.jpg,,,,,,,,,,,,,,,,,,,,-0.041666667,0.151041667,1,0,0,response7disk,33,-0.006510417,0.002604167,1,0,0,center_square,0,32,32,13,1,,,,,,,,,,,,,,,,,,,,,,,
550901,001,2022-11-20_20h59.04.885,Info_measure_main_exp,2022.2.2,Win32,59.96641881,,,,,,,,,,,,,,,,,,masks/mask_005.jpg,,,,,,,,,,,,,,,,,,,,,,,,,,,,,,,,,,,,,,,,,,,0,0,0,4,1,,,,,,,,,,,,,,,,,,,,,,,,,,,,,,,,,,,,,,,,,,,,,,
550901,001,2022-11-20_20h59.04.885,Info_measure_main_exp,2022.2.2,Win32,59.96641881,,,,,,,,,,,,,,,,,,masks/mask_004.jpg,,,,,,,,,,,,,,,,,,,,,,,,,,,,,,,,,,,,,,,,,,,0,1,1,3,1,,,,,,,,,,,,,,,,,,,,,,,,,,,,,,,,,,,,,,,,,,,,,,
550901,001,2022-11-20_20h59.04.885,Info_measure_main_exp,2022.2.2,Win32,59.96641881,,,,,,,,,,,,,,,,,,masks/mask_001.jpg,,,,,,,,,,,,,,,,,,,,,,,,,,,,,,,,,,,,,,,,,,,0,2,2,0,1,,,,,,,,,,,,,,,,,,,,,,,,,,,,,,,,,,,,,,,,,,,,,,
550901,001,2022-11-20_20h59.04.885,Info_measure_main_exp,2022.2.2,Win32,59.96641881,,,,,,,,,,,,,,,,,,masks/mask_002.jpg,,,,,,,,,,,,,,,,,,,,,,,,,,,,,,,,,,,,,,,,,,,0,3,3,1,1,,,,,,,,,,,,,,,,,,,,,,,,,,,,,,,,,,,,,,,,,,,,,,
550901,001,2022-11-20_20h59.04.885,Info_measure_main_exp,2022.2.2,Win32,59.96641881,,,,,,,,,,,,,,,,,,masks/mask_003.jpg,,,,,,,,,,,,,,,,,,,,,,,,,,,,,,,,,,,,,,,,,,,0,4,4,2,1,,,,,,,,,,,,,,,,,,,,,,,,,,,,,,,,,,,,,,,,,,,,,,
550901,001,2022-11-20_20h59.04.885,Info_measure_main_exp,2022.2.2,Win32,59.96641881,,,,,,,,,,,,,,,,,,masks/mask_004.jpg,,,,,,,,,,,,,,,,,,,,,,,,,,,,,,,,,,,,,,,,,,,,,,,,0,0,0,3,1,,,,,,,,,,,,,,,,,,,,,,,,,,,,,,,,,,,,,,,,,
550901,001,2022-11-20_20h59.04.885,Info_measure_main_exp,2022.2.2,Win32,59.96641881,,,,,,,,,,,,,,,,,,masks/mask_001.jpg,,,,,,,,,,,,,,,,,,,,,,,,,,,,,,,,,,,,,,,,,,,,,,,,0,1,1,0,1,,,,,,,,,,,,,,,,,,,,,,,,,,,,,,,,,,,,,,,,,
550901,001,2022-11-20_20h59.04.885,Info_measure_main_exp,2022.2.2,Win32,59.96641881,,,,,,,,,,,,,,,,,,masks/mask_003.jpg,,,,,,,,,,,,,,,,,,,,,,,,,,,,,,,,,,,,,,,,,,,,,,,,0,2,2,2,1,,,,,,,,,,,,,,,,,,,,,,,,,,,,,,,,,,,,,,,,,
550901,001,2022-11-20_20h59.04.885,Info_measure_main_exp,2022.2.2,Win32,59.96641881,,,,,,,,,,,,,,,,,,masks/mask_002.jpg,,,,,,,,,,,,,,,,,,,,,,,,,,,,,,,,,,,,,,,,,,,,,,,,0,3,3,1,1,,,,,,,,,,,,,,,,,,,,,,,,,,,,,,,,,,,,,,,,,
550901,001,2022-11-20_20h59.04.885,Info_measure_main_exp,2022.2.2,Win32,59.96641881,,,,,,,,,,,,,,,,,,masks/mask_005.jpg,,,,,,,,,,,,,,,,,,,,,,,,,,,,,,,,,,,,,,,,,,,,,,,,0,4,4,4,1,,,,,,,,,,,,,,,,,,,,,,,,,,,,,,,,,,,,,,,,,
550901,001,2022-11-20_20h59.04.885,Info_measure_main_exp,2022.2.2,Win32,59.96641881,,,,,,,,,,,,,,,,,,,,,,,,,,,,,,7,1.4315,1,,,,,,,,,,,,0,131,5,5,2250,2238,absent_patch/patch0002250.jpg,absent_patch/patch0002238.jpg,,,,,,,,,,,,,,,,,,,,0.088541667,0.119791667,1,0,0,response1disk,34,0.009114583,-0.006510417,1,0,0,center_square,0,33,33,110,1,,,,,,,,,,,,,,,,,,,,,,,
550901,001,2022-11-20_20h59.04.885,Info_measure_main_exp,2022.2.2,Win32,59.96641881,,,,,,,,,,,,,,,,,,masks/mask_004.jpg,,,,,,,,,,,,,,,,,,,,,,,,,,,,,,,,,,,,,,,,,,,0,0,0,3,1,,,,,,,,,,,,,,,,,,,,,,,,,,,,,,,,,,,,,,,,,,,,,,
550901,001,2022-11-20_20h59.04.885,Info_measure_main_exp,2022.2.2,Win32,59.96641881,,,,,,,,,,,,,,,,,,masks/mask_002.jpg,,,,,,,,,,,,,,,,,,,,,,,,,,,,,,,,,,,,,,,,,,,0,1,1,1,1,,,,,,,,,,,,,,,,,,,,,,,,,,,,,,,,,,,,,,,,,,,,,,
550901,001,2022-11-20_20h59.04.885,Info_measure_main_exp,2022.2.2,Win32,59.96641881,,,,,,,,,,,,,,,,,,masks/mask_005.jpg,,,,,,,,,,,,,,,,,,,,,,,,,,,,,,,,,,,,,,,,,,,0,2,2,4,1,,,,,,,,,,,,,,,,,,,,,,,,,,,,,,,,,,,,,,,,,,,,,,
550901,001,2022-11-20_20h59.04.885,Info_measure_main_exp,2022.2.2,Win32,59.96641881,,,,,,,,,,,,,,,,,,masks/mask_003.jpg,,,,,,,,,,,,,,,,,,,,,,,,,,,,,,,,,,,,,,,,,,,0,3,3,2,1,,,,,,,,,,,,,,,,,,,,,,,,,,,,,,,,,,,,,,,,,,,,,,
550901,001,2022-11-20_20h59.04.885,Info_measure_main_exp,2022.2.2,Win32,59.96641881,,,,,,,,,,,,,,,,,,masks/mask_001.jpg,,,,,,,,,,,,,,,,,,,,,,,,,,,,,,,,,,,,,,,,,,,0,4,4,0,1,,,,,,,,,,,,,,,,,,,,,,,,,,,,,,,,,,,,,,,,,,,,,,
550901,001,2022-11-20_20h59.04.885,Info_measure_main_exp,2022.2.2,Win32,59.96641881,,,,,,,,,,,,,,,,,,masks/mask_004.jpg,,,,,,,,,,,,,,,,,,,,,,,,,,,,,,,,,,,,,,,,,,,,,,,,0,0,0,3,1,,,,,,,,,,,,,,,,,,,,,,,,,,,,,,,,,,,,,,,,,
550901,001,2022-11-20_20h59.04.885,Info_measure_main_exp,2022.2.2,Win32,59.96641881,,,,,,,,,,,,,,,,,,masks/mask_005.jpg,,,,,,,,,,,,,,,,,,,,,,,,,,,,,,,,,,,,,,,,,,,,,,,,0,1,1,4,1,,,,,,,,,,,,,,,,,,,,,,,,,,,,,,,,,,,,,,,,,
550901,001,2022-11-20_20h59.04.885,Info_measure_main_exp,2022.2.2,Win32,59.96641881,,,,,,,,,,,,,,,,,,masks/mask_002.jpg,,,,,,,,,,,,,,,,,,,,,,,,,,,,,,,,,,,,,,,,,,,,,,,,0,2,2,1,1,,,,,,,,,,,,,,,,,,,,,,,,,,,,,,,,,,,,,,,,,
550901,001,2022-11-20_20h59.04.885,Info_measure_main_exp,2022.2.2,Win32,59.96641881,,,,,,,,,,,,,,,,,,masks/mask_003.jpg,,,,,,,,,,,,,,,,,,,,,,,,,,,,,,,,,,,,,,,,,,,,,,,,0,3,3,2,1,,,,,,,,,,,,,,,,,,,,,,,,,,,,,,,,,,,,,,,,,
