participant,session,date,expName,psychopyVersion,OS,frameRate,space_press_continue.keys,space_press_continue.rt,space_press_continue_2.keys,space_press_continue_2.rt,space_press_continue_3.keys,space_press_continue_3.rt,space_press_continue_4.keys,space_press_continue_4.rt,space_press_continue_5.keys,space_press_continue_5.rt,space_press_continue_6.keys,space_press_continue_6.rt,prac_mask_loop_1.thisRepN,prac_mask_loop_1.thisTrialN,prac_mask_loop_1.thisN,prac_mask_loop_1.thisIndex,prac_mask_loop_1.ran,mask_name,prac_mask_loop_2.thisRepN,prac_mask_loop_2.thisTrialN,prac_mask_loop_2.thisN,prac_mask_loop_2.thisIndex,prac_mask_loop_2.ran,mouse_2.x,mouse_2.y,mouse_2.leftButton,mouse_2.midButton,mouse_2.rightButton,mouse_2.clicked_name,similarity,response_time,Pass,mouse_12.x,mouse_12.y,mouse_12.leftButton,mouse_12.midButton,mouse_12.rightButton,mouse_12.clicked_name,prac_loop.thisRepN,prac_loop.thisTrialN,prac_loop.thisN,prac_loop.thisIndex,prac_loop.ran,Pair_type,Image_num,Patch_1_loc,Patch_2_loc,Patch_1_info,Patch_2_info,Patch_1_name,Patch_2_name,mouse_1.x,mouse_1.y,mouse_1.leftButton,mouse_1.midButton,mouse_1.rightButton,mouse_1.time,mouse_1.clicked_name,space_press_continue_7.keys,space_press_continue_7.rt,mask_loop.thisRepN,mask_loop.thisTrialN,mask_loop.thisN,mask_loop.thisIndex,mask_loop.ran,mask_loop_2.thisRepN,mask_loop_2.thisTrialN,mask_loop_2.thisN,mask_loop_2.thisIndex,mask_loop_2.ran,mouse.x,mouse.y,mouse.leftButton,mouse.midButton,mouse.rightButton,mouse.clicked_name,trialNumber,mouse_11.x,mouse_11.y,mouse_11.leftButton,mouse_11.midButton,mouse_11.rightButton,mouse_11.clicked_name,first_pass_loop.thisRepN,first_pass_loop.thisTrialN,first_pass_loop.thisN,first_pass_loop.thisIndex,first_pass_loop.ran,mask_loop_3.thisRepN,mask_loop_3.thisTrialN,mask_loop_3.thisN,mask_loop_3.thisIndex,mask_loop_3.ran,mask_loop_4.thisRepN,mask_loop_4.thisTrialN,mask_loop_4.thisN,mask_loop_4.thisIndex,mask_loop_4.ran,mouse_3.x,mouse_3.y,mouse_3.leftButton,mouse_3.midButton,mouse_3.rightButton,mouse_3.clicked_name,double_pass_loop.thisRepN,double_pass_loop.thisTrialN,double_pass_loop.thisN,double_pass_loop.thisIndex,double_pass_loop.ran,space_exit.keys,space_exit.rt
552641,001,2022-11-21_24h55.24.343,Info_measure_main_exp,2022.2.2,Win32,60.05645307,,,,,,,,,,,,,,,,,,,,,,,,,,,,,,,,,,,,,,,,,,,,,,,,,,,,,,,,,,,,,,,,,,,,,,,,,,,,,,,,,,,,,,,,,,,,,,,,,,,,,,,,,,,,,,,
552641,001,2022-11-21_24h55.24.343,Info_measure_main_exp,2022.2.2,Win32,60.05645307,,,,,,,,,,,,,,,,,,,,,,,,,,,,,,,,,,,,,,,,,,,,,,,,,,,,,,,,,,,,,,,,,,,,,,,,,,,,,,,,,,,,,,,,,,,,,,,,,,,,,,,,,,,,,,,
552641,001,2022-11-21_24h55.24.343,Info_measure_main_exp,2022.2.2,Win32,60.05645307,space,8.5063,,,,,,,,,,,,,,,,,,,,,,,,,,,,,,,,,,,,,,,,,,,,,,,,,,,,,,,,,,,,,,,,,,,,,,,,,,,,,,,,,,,,,,,,,,,,,,,,,,,,,,,,,,,,,
552641,001,2022-11-21_24h55.24.343,Info_measure_main_exp,2022.2.2,Win32,60.05645307,,,space,17.6974,,,,,,,,,,,,,,,,,,,,,,,,,,,,,,,,,,,,,,,,,,,,,,,,,,,,,,,,,,,,,,,,,,,,,,,,,,,,,,,,,,,,,,,,,,,,,,,,,,,,,,,,,,,
552641,001,2022-11-21_24h55.24.343,Info_measure_main_exp,2022.2.2,Win32,60.05645307,,,,,space,17.6547,,,,,,,,,,,,,,,,,,,,,,,,,,,,,,,,,,,,,,,,,,,,,,,,,,,,,,,,,,,,,,,,,,,,,,,,,,,,,,,,,,,,,,,,,,,,,,,,,,,,,,,,,
552641,001,2022-11-21_24h55.24.343,Info_measure_main_exp,2022.2.2,Win32,60.05645307,,,,,,,space,28.4757,,,,,,,,,,,,,,,,,,,,,,,,,,,,,,,,,,,,,,,,,,,,,,,,,,,,,,,,,,,,,,,,,,,,,,,,,,,,,,,,,,,,,,,,,,,,,,,,,,,,,,,
552641,001,2022-11-21_24h55.24.343,Info_measure_main_exp,2022.2.2,Win32,60.05645307,,,,,,,,,space,8.7034,,,,,,,,,,,,,,,,,,,,,,,,,,,,,,,,,,,,,,,,,,,,,,,,,,,,,,,,,,,,,,,,,,,,,,,,,,,,,,,,,,,,,,,,,,,,,,,,,,,,,
552641,001,2022-11-21_24h55.24.343,Info_measure_main_exp,2022.2.2,Win32,60.05645307,,,,,,,,,,,space,4.1046,,,,,,,,,,,,,,,,,,,,,,,,,,,,,,,,,,,,,,,,,,,,,,,,,,,,,,,,,,,,,,,,,,,,,,,,,,,,,,,,,,,,,,,,,,,,,,,,,,,
552641,001,2022-11-21_24h55.24.343,Info_measure_main_exp,2022.2.2,Win32,60.05645307,,,,,,,,,,,,,0,0,0,4,1,masks/mask_005.jpg,,,,,,,,,,,,,,,,,,,,,,,,,,,,,,,,,,,,,,,,,,,,,,,,,,,,,,,,,,,,,,,,,,,,,,,,,,,,,,,,,,,,,,,,,,,,,
552641,001,2022-11-21_24h55.24.343,Info_measure_main_exp,2022.2.2,Win32,60.05645307,,,,,,,,,,,,,0,1,1,1,1,masks/mask_002.jpg,,,,,,,,,,,,,,,,,,,,,,,,,,,,,,,,,,,,,,,,,,,,,,,,,,,,,,,,,,,,,,,,,,,,,,,,,,,,,,,,,,,,,,,,,,,,,
552641,001,2022-11-21_24h55.24.343,Info_measure_main_exp,2022.2.2,Win32,60.05645307,,,,,,,,,,,,,0,2,2,3,1,masks/mask_004.jpg,,,,,,,,,,,,,,,,,,,,,,,,,,,,,,,,,,,,,,,,,,,,,,,,,,,,,,,,,,,,,,,,,,,,,,,,,,,,,,,,,,,,,,,,,,,,,
552641,001,2022-11-21_24h55.24.343,Info_measure_main_exp,2022.2.2,Win32,60.05645307,,,,,,,,,,,,,0,3,3,2,1,masks/mask_003.jpg,,,,,,,,,,,,,,,,,,,,,,,,,,,,,,,,,,,,,,,,,,,,,,,,,,,,,,,,,,,,,,,,,,,,,,,,,,,,,,,,,,,,,,,,,,,,,
552641,001,2022-11-21_24h55.24.343,Info_measure_main_exp,2022.2.2,Win32,60.05645307,,,,,,,,,,,,,0,4,4,0,1,masks/mask_001.jpg,,,,,,,,,,,,,,,,,,,,,,,,,,,,,,,,,,,,,,,,,,,,,,,,,,,,,,,,,,,,,,,,,,,,,,,,,,,,,,,,,,,,,,,,,,,,,
552641,001,2022-11-21_24h55.24.343,Info_measure_main_exp,2022.2.2,Win32,60.05645307,,,,,,,,,,,,,,,,,,masks/mask_004.jpg,0,0,0,3,1,,,,,,,,,,,,,,,,,,,,,,,,,,,,,,,,,,,,,,,,,,,,,,,,,,,,,,,,,,,,,,,,,,,,,,,,,,,,,,,,,,,,,,,,
552641,001,2022-11-21_24h55.24.343,Info_measure_main_exp,2022.2.2,Win32,60.05645307,,,,,,,,,,,,,,,,,,masks/mask_001.jpg,0,1,1,0,1,,,,,,,,,,,,,,,,,,,,,,,,,,,,,,,,,,,,,,,,,,,,,,,,,,,,,,,,,,,,,,,,,,,,,,,,,,,,,,,,,,,,,,,,
552641,001,2022-11-21_24h55.24.343,Info_measure_main_exp,2022.2.2,Win32,60.05645307,,,,,,,,,,,,,,,,,,masks/mask_005.jpg,0,2,2,4,1,,,,,,,,,,,,,,,,,,,,,,,,,,,,,,,,,,,,,,,,,,,,,,,,,,,,,,,,,,,,,,,,,,,,,,,,,,,,,,,,,,,,,,,,
552641,001,2022-11-21_24h55.24.343,Info_measure_main_exp,2022.2.2,Win32,60.05645307,,,,,,,,,,,,,,,,,,masks/mask_003.jpg,0,3,3,2,1,,,,,,,,,,,,,,,,,,,,,,,,,,,,,,,,,,,,,,,,,,,,,,,,,,,,,,,,,,,,,,,,,,,,,,,,,,,,,,,,,,,,,,,,
552641,001,2022-11-21_24h55.24.343,Info_measure_main_exp,2022.2.2,Win32,60.05645307,,,,,,,,,,,,,,,,,,masks/mask_002.jpg,0,4,4,1,1,,,,,,,,,,,,,,,,,,,,,,,,,,,,,,,,,,,,,,,,,,,,,,,,,,,,,,,,,,,,,,,,,,,,,,,,,,,,,,,,,,,,,,,,
552641,001,2022-11-21_24h55.24.343,Info_measure_main_exp,2022.2.2,Win32,60.05645307,,,,,,,,,,,,,,,,,,,,,,,,-0.067592593,0.161111111,1,0,0,response7disk,0,90.1521,1,-0.002777778,0.007407407,1,0,0,center_square,0,0,0,2,1,0,131,5,5,2526,2526,prac_patch/patch0002526.jpg,prac_patch/patch0002526.jpg,,,,,,,,,,,,,,,,,,,,,,,,,,,,,,,,,,,,,,,,,,,,,,,,,,,,,,,,,,,,
552641,001,2022-11-21_24h55.24.343,Info_measure_main_exp,2022.2.2,Win32,60.05645307,,,,,,,,,,,,,0,0,0,4,1,masks/mask_005.jpg,,,,,,,,,,,,,,,,,,,,,,,,,,,,,,,,,,,,,,,,,,,,,,,,,,,,,,,,,,,,,,,,,,,,,,,,,,,,,,,,,,,,,,,,,,,,,
552641,001,2022-11-21_24h55.24.343,Info_measure_main_exp,2022.2.2,Win32,60.05645307,,,,,,,,,,,,,0,1,1,2,1,masks/mask_003.jpg,,,,,,,,,,,,,,,,,,,,,,,,,,,,,,,,,,,,,,,,,,,,,,,,,,,,,,,,,,,,,,,,,,,,,,,,,,,,,,,,,,,,,,,,,,,,,
552641,001,2022-11-21_24h55.24.343,Info_measure_main_exp,2022.2.2,Win32,60.05645307,,,,,,,,,,,,,0,2,2,3,1,masks/mask_004.jpg,,,,,,,,,,,,,,,,,,,,,,,,,,,,,,,,,,,,,,,,,,,,,,,,,,,,,,,,,,,,,,,,,,,,,,,,,,,,,,,,,,,,,,,,,,,,,
552641,001,2022-11-21_24h55.24.343,Info_measure_main_exp,2022.2.2,Win32,60.05645307,,,,,,,,,,,,,0,3,3,1,1,masks/mask_002.jpg,,,,,,,,,,,,,,,,,,,,,,,,,,,,,,,,,,,,,,,,,,,,,,,,,,,,,,,,,,,,,,,,,,,,,,,,,,,,,,,,,,,,,,,,,,,,,
552641,001,2022-11-21_24h55.24.343,Info_measure_main_exp,2022.2.2,Win32,60.05645307,,,,,,,,,,,,,0,4,4,0,1,masks/mask_001.jpg,,,,,,,,,,,,,,,,,,,,,,,,,,,,,,,,,,,,,,,,,,,,,,,,,,,,,,,,,,,,,,,,,,,,,,,,,,,,,,,,,,,,,,,,,,,,,
552641,001,2022-11-21_24h55.24.343,Info_measure_main_exp,2022.2.2,Win32,60.05645307,,,,,,,,,,,,,,,,,,masks/mask_002.jpg,0,0,0,1,1,,,,,,,,,,,,,,,,,,,,,,,,,,,,,,,,,,,,,,,,,,,,,,,,,,,,,,,,,,,,,,,,,,,,,,,,,,,,,,,,,,,,,,,,
552641,001,2022-11-21_24h55.24.343,Info_measure_main_exp,2022.2.2,Win32,60.05645307,,,,,,,,,,,,,,,,,,masks/mask_004.jpg,0,1,1,3,1,,,,,,,,,,,,,,,,,,,,,,,,,,,,,,,,,,,,,,,,,,,,,,,,,,,,,,,,,,,,,,,,,,,,,,,,,,,,,,,,,,,,,,,,
552641,001,2022-11-21_24h55.24.343,Info_measure_main_exp,2022.2.2,Win32,60.05645307,,,,,,,,,,,,,,,,,,masks/mask_001.jpg,0,2,2,0,1,,,,,,,,,,,,,,,,,,,,,,,,,,,,,,,,,,,,,,,,,,,,,,,,,,,,,,,,,,,,,,,,,,,,,,,,,,,,,,,,,,,,,,,,
552641,001,2022-11-21_24h55.24.343,Info_measure_main_exp,2022.2.2,Win32,60.05645307,,,,,,,,,,,,,,,,,,masks/mask_005.jpg,0,3,3,4,1,,,,,,,,,,,,,,,,,,,,,,,,,,,,,,,,,,,,,,,,,,,,,,,,,,,,,,,,,,,,,,,,,,,,,,,,,,,,,,,,,,,,,,,,
552641,001,2022-11-21_24h55.24.343,Info_measure_main_exp,2022.2.2,Win32,60.05645307,,,,,,,,,,,,,,,,,,masks/mask_003.jpg,0,4,4,2,1,,,,,,,,,,,,,,,,,,,,,,,,,,,,,,,,,,,,,,,,,,,,,,,,,,,,,,,,,,,,,,,,,,,,,,,,,,,,,,,,,,,,,,,,
552641,001,2022-11-21_24h55.24.343,Info_measure_main_exp,2022.2.2,Win32,60.05645307,,,,,,,,,,,,,,,,,,,,,,,,-0.008333333,-0.024074074,1,0,0,response5disk,3,101.4022,1,0,0.006481481,1,0,0,center_square,0,1,1,0,1,0,131,5,5,2370,2406,prac_patch/patch0002370.jpg,prac_patch/patch0002406.jpg,,,,,,,,,,,,,,,,,,,,,,,,,,,,,,,,,,,,,,,,,,,,,,,,,,,,,,,,,,,,
552641,001,2022-11-21_24h55.24.343,Info_measure_main_exp,2022.2.2,Win32,60.05645307,,,,,,,,,,,,,0,0,0,0,1,masks/mask_001.jpg,,,,,,,,,,,,,,,,,,,,,,,,,,,,,,,,,,,,,,,,,,,,,,,,,,,,,,,,,,,,,,,,,,,,,,,,,,,,,,,,,,,,,,,,,,,,,
552641,001,2022-11-21_24h55.24.343,Info_measure_main_exp,2022.2.2,Win32,60.05645307,,,,,,,,,,,,,0,1,1,1,1,masks/mask_002.jpg,,,,,,,,,,,,,,,,,,,,,,,,,,,,,,,,,,,,,,,,,,,,,,,,,,,,,,,,,,,,,,,,,,,,,,,,,,,,,,,,,,,,,,,,,,,,,
552641,001,2022-11-21_24h55.24.343,Info_measure_main_exp,2022.2.2,Win32,60.05645307,,,,,,,,,,,,,0,2,2,3,1,masks/mask_004.jpg,,,,,,,,,,,,,,,,,,,,,,,,,,,,,,,,,,,,,,,,,,,,,,,,,,,,,,,,,,,,,,,,,,,,,,,,,,,,,,,,,,,,,,,,,,,,,
552641,001,2022-11-21_24h55.24.343,Info_measure_main_exp,2022.2.2,Win32,60.05645307,,,,,,,,,,,,,0,3,3,4,1,masks/mask_005.jpg,,,,,,,,,,,,,,,,,,,,,,,,,,,,,,,,,,,,,,,,,,,,,,,,,,,,,,,,,,,,,,,,,,,,,,,,,,,,,,,,,,,,,,,,,,,,,
552641,001,2022-11-21_24h55.24.343,Info_measure_main_exp,2022.2.2,Win32,60.05645307,,,,,,,,,,,,,0,4,4,2,1,masks/mask_003.jpg,,,,,,,,,,,,,,,,,,,,,,,,,,,,,,,,,,,,,,,,,,,,,,,,,,,,,,,,,,,,,,,,,,,,,,,,,,,,,,,,,,,,,,,,,,,,,
552641,001,2022-11-21_24h55.24.343,Info_measure_main_exp,2022.2.2,Win32,60.05645307,,,,,,,,,,,,,,,,,,masks/mask_002.jpg,0,0,0,1,1,,,,,,,,,,,,,,,,,,,,,,,,,,,,,,,,,,,,,,,,,,,,,,,,,,,,,,,,,,,,,,,,,,,,,,,,,,,,,,,,,,,,,,,,
552641,001,2022-11-21_24h55.24.343,Info_measure_main_exp,2022.2.2,Win32,60.05645307,,,,,,,,,,,,,,,,,,masks/mask_004.jpg,0,1,1,3,1,,,,,,,,,,,,,,,,,,,,,,,,,,,,,,,,,,,,,,,,,,,,,,,,,,,,,,,,,,,,,,,,,,,,,,,,,,,,,,,,,,,,,,,,
552641,001,2022-11-21_24h55.24.343,Info_measure_main_exp,2022.2.2,Win32,60.05645307,,,,,,,,,,,,,,,,,,masks/mask_003.jpg,0,2,2,2,1,,,,,,,,,,,,,,,,,,,,,,,,,,,,,,,,,,,,,,,,,,,,,,,,,,,,,,,,,,,,,,,,,,,,,,,,,,,,,,,,,,,,,,,,
552641,001,2022-11-21_24h55.24.343,Info_measure_main_exp,2022.2.2,Win32,60.05645307,,,,,,,,,,,,,,,,,,masks/mask_005.jpg,0,3,3,4,1,,,,,,,,,,,,,,,,,,,,,,,,,,,,,,,,,,,,,,,,,,,,,,,,,,,,,,,,,,,,,,,,,,,,,,,,,,,,,,,,,,,,,,,,
552641,001,2022-11-21_24h55.24.343,Info_measure_main_exp,2022.2.2,Win32,60.05645307,,,,,,,,,,,,,,,,,,masks/mask_001.jpg,0,4,4,0,1,,,,,,,,,,,,,,,,,,,,,,,,,,,,,,,,,,,,,,,,,,,,,,,,,,,,,,,,,,,,,,,,,,,,,,,,,,,,,,,,,,,,,,,,
552641,001,2022-11-21_24h55.24.343,Info_measure_main_exp,2022.2.2,Win32,60.05645307,,,,,,,,,,,,,,,,,,,,,,,,0.025925926,0.04537037,1,0,0,response1disk,7,109.5582,1,-0.009259259,0.000925926,1,0,0,center_square,0,2,2,1,1,0,131,5,5,2514,2490,prac_patch/patch0002514.jpg,prac_patch/patch0002490.jpg,,,,,,,,,,,,,,,,,,,,,,,,,,,,,,,,,,,,,,,,,,,,,,,,,,,,,,,,,,,,
552641,001,2022-11-21_24h55.24.343,Info_measure_main_exp,2022.2.2,Win32,60.05645307,,,,,,,,,,,,,,,,,,,,,,,,,,,,,,,,,,,,,,,,,,,,,,,,,,,,,,,,,,,space,3.0757,,,,,,,,,,,,,,,,,,,,,,,,,,,,,,,,,,,,,,,,,,,,,,,,,,,
552641,001,2022-11-21_24h55.24.343,Info_measure_main_exp,2022.2.2,Win32,60.05645307,,,,,,,,,,,,,,,,,,masks/mask_002.jpg,,,,,,,,,,,,,,,,,,,,,,,,,,,,,,,,,,,,,,,,,,,0,0,0,1,1,,,,,,,,,,,,,,,,,,,,,,,,,,,,,,,,,,,,,,,,,,,,,,
552641,001,2022-11-21_24h55.24.343,Info_measure_main_exp,2022.2.2,Win32,60.05645307,,,,,,,,,,,,,,,,,,masks/mask_004.jpg,,,,,,,,,,,,,,,,,,,,,,,,,,,,,,,,,,,,,,,,,,,0,1,1,3,1,,,,,,,,,,,,,,,,,,,,,,,,,,,,,,,,,,,,,,,,,,,,,,
552641,001,2022-11-21_24h55.24.343,Info_measure_main_exp,2022.2.2,Win32,60.05645307,,,,,,,,,,,,,,,,,,masks/mask_001.jpg,,,,,,,,,,,,,,,,,,,,,,,,,,,,,,,,,,,,,,,,,,,0,2,2,0,1,,,,,,,,,,,,,,,,,,,,,,,,,,,,,,,,,,,,,,,,,,,,,,
552641,001,2022-11-21_24h55.24.343,Info_measure_main_exp,2022.2.2,Win32,60.05645307,,,,,,,,,,,,,,,,,,masks/mask_005.jpg,,,,,,,,,,,,,,,,,,,,,,,,,,,,,,,,,,,,,,,,,,,0,3,3,4,1,,,,,,,,,,,,,,,,,,,,,,,,,,,,,,,,,,,,,,,,,,,,,,
552641,001,2022-11-21_24h55.24.343,Info_measure_main_exp,2022.2.2,Win32,60.05645307,,,,,,,,,,,,,,,,,,masks/mask_003.jpg,,,,,,,,,,,,,,,,,,,,,,,,,,,,,,,,,,,,,,,,,,,0,4,4,2,1,,,,,,,,,,,,,,,,,,,,,,,,,,,,,,,,,,,,,,,,,,,,,,
552641,001,2022-11-21_24h55.24.343,Info_measure_main_exp,2022.2.2,Win32,60.05645307,,,,,,,,,,,,,,,,,,masks/mask_005.jpg,,,,,,,,,,,,,,,,,,,,,,,,,,,,,,,,,,,,,,,,,,,,,,,,0,0,0,4,1,,,,,,,,,,,,,,,,,,,,,,,,,,,,,,,,,,,,,,,,,
552641,001,2022-11-21_24h55.24.343,Info_measure_main_exp,2022.2.2,Win32,60.05645307,,,,,,,,,,,,,,,,,,masks/mask_003.jpg,,,,,,,,,,,,,,,,,,,,,,,,,,,,,,,,,,,,,,,,,,,,,,,,0,1,1,2,1,,,,,,,,,,,,,,,,,,,,,,,,,,,,,,,,,,,,,,,,,
552641,001,2022-11-21_24h55.24.343,Info_measure_main_exp,2022.2.2,Win32,60.05645307,,,,,,,,,,,,,,,,,,masks/mask_002.jpg,,,,,,,,,,,,,,,,,,,,,,,,,,,,,,,,,,,,,,,,,,,,,,,,0,2,2,1,1,,,,,,,,,,,,,,,,,,,,,,,,,,,,,,,,,,,,,,,,,
552641,001,2022-11-21_24h55.24.343,Info_measure_main_exp,2022.2.2,Win32,60.05645307,,,,,,,,,,,,,,,,,,masks/mask_001.jpg,,,,,,,,,,,,,,,,,,,,,,,,,,,,,,,,,,,,,,,,,,,,,,,,0,3,3,0,1,,,,,,,,,,,,,,,,,,,,,,,,,,,,,,,,,,,,,,,,,
552641,001,2022-11-21_24h55.24.343,Info_measure_main_exp,2022.2.2,Win32,60.05645307,,,,,,,,,,,,,,,,,,masks/mask_004.jpg,,,,,,,,,,,,,,,,,,,,,,,,,,,,,,,,,,,,,,,,,,,,,,,,0,4,4,3,1,,,,,,,,,,,,,,,,,,,,,,,,,,,,,,,,,,,,,,,,,
552641,001,2022-11-21_24h55.24.343,Info_measure_main_exp,2022.2.2,Win32,60.05645307,,,,,,,,,,,,,,,,,,,,,,,,,,,,,,0,1.4168,1,,,,,,,,,,,,0,131,5,5,2250,2250,absent_patch/patch0002250.jpg,absent_patch/patch0002250.jpg,,,,,,,,,,,,,,,,,,,,-0.022222222,0.041666667,1,0,0,response7disk,1,-0.000925926,0.006481481,1,0,0,center_square,0,0,0,56,1,,,,,,,,,,,,,,,,,,,,,,,
552641,001,2022-11-21_24h55.24.343,Info_measure_main_exp,2022.2.2,Win32,60.05645307,,,,,,,,,,,,,,,,,,masks/mask_003.jpg,,,,,,,,,,,,,,,,,,,,,,,,,,,,,,,,,,,,,,,,,,,0,0,0,2,1,,,,,,,,,,,,,,,,,,,,,,,,,,,,,,,,,,,,,,,,,,,,,,
552641,001,2022-11-21_24h55.24.343,Info_measure_main_exp,2022.2.2,Win32,60.05645307,,,,,,,,,,,,,,,,,,masks/mask_002.jpg,,,,,,,,,,,,,,,,,,,,,,,,,,,,,,,,,,,,,,,,,,,0,1,1,1,1,,,,,,,,,,,,,,,,,,,,,,,,,,,,,,,,,,,,,,,,,,,,,,
552641,001,2022-11-21_24h55.24.343,Info_measure_main_exp,2022.2.2,Win32,60.05645307,,,,,,,,,,,,,,,,,,masks/mask_005.jpg,,,,,,,,,,,,,,,,,,,,,,,,,,,,,,,,,,,,,,,,,,,0,2,2,4,1,,,,,,,,,,,,,,,,,,,,,,,,,,,,,,,,,,,,,,,,,,,,,,
552641,001,2022-11-21_24h55.24.343,Info_measure_main_exp,2022.2.2,Win32,60.05645307,,,,,,,,,,,,,,,,,,masks/mask_001.jpg,,,,,,,,,,,,,,,,,,,,,,,,,,,,,,,,,,,,,,,,,,,0,3,3,0,1,,,,,,,,,,,,,,,,,,,,,,,,,,,,,,,,,,,,,,,,,,,,,,
552641,001,2022-11-21_24h55.24.343,Info_measure_main_exp,2022.2.2,Win32,60.05645307,,,,,,,,,,,,,,,,,,masks/mask_004.jpg,,,,,,,,,,,,,,,,,,,,,,,,,,,,,,,,,,,,,,,,,,,0,4,4,3,1,,,,,,,,,,,,,,,,,,,,,,,,,,,,,,,,,,,,,,,,,,,,,,
552641,001,2022-11-21_24h55.24.343,Info_measure_main_exp,2022.2.2,Win32,60.05645307,,,,,,,,,,,,,,,,,,masks/mask_001.jpg,,,,,,,,,,,,,,,,,,,,,,,,,,,,,,,,,,,,,,,,,,,,,,,,0,0,0,0,1,,,,,,,,,,,,,,,,,,,,,,,,,,,,,,,,,,,,,,,,,
552641,001,2022-11-21_24h55.24.343,Info_measure_main_exp,2022.2.2,Win32,60.05645307,,,,,,,,,,,,,,,,,,masks/mask_004.jpg,,,,,,,,,,,,,,,,,,,,,,,,,,,,,,,,,,,,,,,,,,,,,,,,0,1,1,3,1,,,,,,,,,,,,,,,,,,,,,,,,,,,,,,,,,,,,,,,,,
552641,001,2022-11-21_24h55.24.343,Info_measure_main_exp,2022.2.2,Win32,60.05645307,,,,,,,,,,,,,,,,,,masks/mask_003.jpg,,,,,,,,,,,,,,,,,,,,,,,,,,,,,,,,,,,,,,,,,,,,,,,,0,2,2,2,1,,,,,,,,,,,,,,,,,,,,,,,,,,,,,,,,,,,,,,,,,
552641,001,2022-11-21_24h55.24.343,Info_measure_main_exp,2022.2.2,Win32,60.05645307,,,,,,,,,,,,,,,,,,masks/mask_005.jpg,,,,,,,,,,,,,,,,,,,,,,,,,,,,,,,,,,,,,,,,,,,,,,,,0,3,3,4,1,,,,,,,,,,,,,,,,,,,,,,,,,,,,,,,,,,,,,,,,,
552641,001,2022-11-21_24h55.24.343,Info_measure_main_exp,2022.2.2,Win32,60.05645307,,,,,,,,,,,,,,,,,,masks/mask_002.jpg,,,,,,,,,,,,,,,,,,,,,,,,,,,,,,,,,,,,,,,,,,,,,,,,0,4,4,1,1,,,,,,,,,,,,,,,,,,,,,,,,,,,,,,,,,,,,,,,,,
552641,001,2022-11-21_24h55.24.343,Info_measure_main_exp,2022.2.2,Win32,60.05645307,,,,,,,,,,,,,,,,,,,,,,,,,,,,,,4,1.1203,1,,,,,,,,,,,,0,131,5,5,1950,2082,absent_patch/patch0001950.jpg,absent_patch/patch0002082.jpg,,,,,,,,,,,,,,,,,,,,0.025,-0.031481481,1,0,0,response3disk,2,0.000925926,-0.000925926,1,0,0,center_square,0,1,1,12,1,,,,,,,,,,,,,,,,,,,,,,,
552641,001,2022-11-21_24h55.24.343,Info_measure_main_exp,2022.2.2,Win32,60.05645307,,,,,,,,,,,,,,,,,,masks/mask_004.jpg,,,,,,,,,,,,,,,,,,,,,,,,,,,,,,,,,,,,,,,,,,,0,0,0,3,1,,,,,,,,,,,,,,,,,,,,,,,,,,,,,,,,,,,,,,,,,,,,,,
552641,001,2022-11-21_24h55.24.343,Info_measure_main_exp,2022.2.2,Win32,60.05645307,,,,,,,,,,,,,,,,,,masks/mask_005.jpg,,,,,,,,,,,,,,,,,,,,,,,,,,,,,,,,,,,,,,,,,,,0,1,1,4,1,,,,,,,,,,,,,,,,,,,,,,,,,,,,,,,,,,,,,,,,,,,,,,
552641,001,2022-11-21_24h55.24.343,Info_measure_main_exp,2022.2.2,Win32,60.05645307,,,,,,,,,,,,,,,,,,masks/mask_002.jpg,,,,,,,,,,,,,,,,,,,,,,,,,,,,,,,,,,,,,,,,,,,0,2,2,1,1,,,,,,,,,,,,,,,,,,,,,,,,,,,,,,,,,,,,,,,,,,,,,,
552641,001,2022-11-21_24h55.24.343,Info_measure_main_exp,2022.2.2,Win32,60.05645307,,,,,,,,,,,,,,,,,,masks/mask_001.jpg,,,,,,,,,,,,,,,,,,,,,,,,,,,,,,,,,,,,,,,,,,,0,3,3,0,1,,,,,,,,,,,,,,,,,,,,,,,,,,,,,,,,,,,,,,,,,,,,,,
552641,001,2022-11-21_24h55.24.343,Info_measure_main_exp,2022.2.2,Win32,60.05645307,,,,,,,,,,,,,,,,,,masks/mask_003.jpg,,,,,,,,,,,,,,,,,,,,,,,,,,,,,,,,,,,,,,,,,,,0,4,4,2,1,,,,,,,,,,,,,,,,,,,,,,,,,,,,,,,,,,,,,,,,,,,,,,
552641,001,2022-11-21_24h55.24.343,Info_measure_main_exp,2022.2.2,Win32,60.05645307,,,,,,,,,,,,,,,,,,masks/mask_001.jpg,,,,,,,,,,,,,,,,,,,,,,,,,,,,,,,,,,,,,,,,,,,,,,,,0,0,0,0,1,,,,,,,,,,,,,,,,,,,,,,,,,,,,,,,,,,,,,,,,,
552641,001,2022-11-21_24h55.24.343,Info_measure_main_exp,2022.2.2,Win32,60.05645307,,,,,,,,,,,,,,,,,,masks/mask_003.jpg,,,,,,,,,,,,,,,,,,,,,,,,,,,,,,,,,,,,,,,,,,,,,,,,0,1,1,2,1,,,,,,,,,,,,,,,,,,,,,,,,,,,,,,,,,,,,,,,,,
552641,001,2022-11-21_24h55.24.343,Info_measure_main_exp,2022.2.2,Win32,60.05645307,,,,,,,,,,,,,,,,,,masks/mask_002.jpg,,,,,,,,,,,,,,,,,,,,,,,,,,,,,,,,,,,,,,,,,,,,,,,,0,2,2,1,1,,,,,,,,,,,,,,,,,,,,,,,,,,,,,,,,,,,,,,,,,
552641,001,2022-11-21_24h55.24.343,Info_measure_main_exp,2022.2.2,Win32,60.05645307,,,,,,,,,,,,,,,,,,masks/mask_004.jpg,,,,,,,,,,,,,,,,,,,,,,,,,,,,,,,,,,,,,,,,,,,,,,,,0,3,3,3,1,,,,,,,,,,,,,,,,,,,,,,,,,,,,,,,,,,,,,,,,,
552641,001,2022-11-21_24h55.24.343,Info_measure_main_exp,2022.2.2,Win32,60.05645307,,,,,,,,,,,,,,,,,,masks/mask_005.jpg,,,,,,,,,,,,,,,,,,,,,,,,,,,,,,,,,,,,,,,,,,,,,,,,0,4,4,4,1,,,,,,,,,,,,,,,,,,,,,,,,,,,,,,,,,,,,,,,,,
552641,001,2022-11-21_24h55.24.343,Info_measure_main_exp,2022.2.2,Win32,60.05645307,,,,,,,,,,,,,,,,,,,,,,,,,,,,,,7,0.9502,1,,,,,,,,,,,,0,131,5,5,2154,2214,absent_patch/patch0002154.jpg,absent_patch/patch0002214.jpg,,,,,,,,,,,,,,,,,,,,0.040740741,0.059259259,1,0,0,response1disk,3,0.001851852,0.00462963,1,0,0,center_square,0,2,2,67,1,,,,,,,,,,,,,,,,,,,,,,,
552641,001,2022-11-21_24h55.24.343,Info_measure_main_exp,2022.2.2,Win32,60.05645307,,,,,,,,,,,,,,,,,,masks/mask_001.jpg,,,,,,,,,,,,,,,,,,,,,,,,,,,,,,,,,,,,,,,,,,,0,0,0,0,1,,,,,,,,,,,,,,,,,,,,,,,,,,,,,,,,,,,,,,,,,,,,,,
552641,001,2022-11-21_24h55.24.343,Info_measure_main_exp,2022.2.2,Win32,60.05645307,,,,,,,,,,,,,,,,,,masks/mask_005.jpg,,,,,,,,,,,,,,,,,,,,,,,,,,,,,,,,,,,,,,,,,,,0,1,1,4,1,,,,,,,,,,,,,,,,,,,,,,,,,,,,,,,,,,,,,,,,,,,,,,
552641,001,2022-11-21_24h55.24.343,Info_measure_main_exp,2022.2.2,Win32,60.05645307,,,,,,,,,,,,,,,,,,masks/mask_004.jpg,,,,,,,,,,,,,,,,,,,,,,,,,,,,,,,,,,,,,,,,,,,0,2,2,3,1,,,,,,,,,,,,,,,,,,,,,,,,,,,,,,,,,,,,,,,,,,,,,,
552641,001,2022-11-21_24h55.24.343,Info_measure_main_exp,2022.2.2,Win32,60.05645307,,,,,,,,,,,,,,,,,,masks/mask_002.jpg,,,,,,,,,,,,,,,,,,,,,,,,,,,,,,,,,,,,,,,,,,,0,3,3,1,1,,,,,,,,,,,,,,,,,,,,,,,,,,,,,,,,,,,,,,,,,,,,,,
552641,001,2022-11-21_24h55.24.343,Info_measure_main_exp,2022.2.2,Win32,60.05645307,,,,,,,,,,,,,,,,,,masks/mask_003.jpg,,,,,,,,,,,,,,,,,,,,,,,,,,,,,,,,,,,,,,,,,,,0,4,4,2,1,,,,,,,,,,,,,,,,,,,,,,,,,,,,,,,,,,,,,,,,,,,,,,
552641,001,2022-11-21_24h55.24.343,Info_measure_main_exp,2022.2.2,Win32,60.05645307,,,,,,,,,,,,,,,,,,masks/mask_001.jpg,,,,,,,,,,,,,,,,,,,,,,,,,,,,,,,,,,,,,,,,,,,,,,,,0,0,0,0,1,,,,,,,,,,,,,,,,,,,,,,,,,,,,,,,,,,,,,,,,,
552641,001,2022-11-21_24h55.24.343,Info_measure_main_exp,2022.2.2,Win32,60.05645307,,,,,,,,,,,,,,,,,,masks/mask_004.jpg,,,,,,,,,,,,,,,,,,,,,,,,,,,,,,,,,,,,,,,,,,,,,,,,0,1,1,3,1,,,,,,,,,,,,,,,,,,,,,,,,,,,,,,,,,,,,,,,,,
552641,001,2022-11-21_24h55.24.343,Info_measure_main_exp,2022.2.2,Win32,60.05645307,,,,,,,,,,,,,,,,,,masks/mask_003.jpg,,,,,,,,,,,,,,,,,,,,,,,,,,,,,,,,,,,,,,,,,,,,,,,,0,2,2,2,1,,,,,,,,,,,,,,,,,,,,,,,,,,,,,,,,,,,,,,,,,
552641,001,2022-11-21_24h55.24.343,Info_measure_main_exp,2022.2.2,Win32,60.05645307,,,,,,,,,,,,,,,,,,masks/mask_005.jpg,,,,,,,,,,,,,,,,,,,,,,,,,,,,,,,,,,,,,,,,,,,,,,,,0,3,3,4,1,,,,,,,,,,,,,,,,,,,,,,,,,,,,,,,,,,,,,,,,,
552641,001,2022-11-21_24h55.24.343,Info_measure_main_exp,2022.2.2,Win32,60.05645307,,,,,,,,,,,,,,,,,,masks/mask_002.jpg,,,,,,,,,,,,,,,,,,,,,,,,,,,,,,,,,,,,,,,,,,,,,,,,0,4,4,1,1,,,,,,,,,,,,,,,,,,,,,,,,,,,,,,,,,,,,,,,,,
552641,001,2022-11-21_24h55.24.343,Info_measure_main_exp,2022.2.2,Win32,60.05645307,,,,,,,,,,,,,,,,,,,,,,,,,,,,,,7,0.9169,1,,,,,,,,,,,,1,131,5,5,2238,1,absent_patch/patch0002238.jpg,present_patch/cong_131_5_a.jpg,,,,,,,,,,,,,,,,,,,,0.001851852,0.011111111,1,0,0,response1disk,4,0.003703704,0.014814815,1,0,0,center_square,0,3,3,104,1,,,,,,,,,,,,,,,,,,,,,,,
552641,001,2022-11-21_24h55.24.343,Info_measure_main_exp,2022.2.2,Win32,60.05645307,,,,,,,,,,,,,,,,,,masks/mask_002.jpg,,,,,,,,,,,,,,,,,,,,,,,,,,,,,,,,,,,,,,,,,,,0,0,0,1,1,,,,,,,,,,,,,,,,,,,,,,,,,,,,,,,,,,,,,,,,,,,,,,
552641,001,2022-11-21_24h55.24.343,Info_measure_main_exp,2022.2.2,Win32,60.05645307,,,,,,,,,,,,,,,,,,masks/mask_004.jpg,,,,,,,,,,,,,,,,,,,,,,,,,,,,,,,,,,,,,,,,,,,0,1,1,3,1,,,,,,,,,,,,,,,,,,,,,,,,,,,,,,,,,,,,,,,,,,,,,,
552641,001,2022-11-21_24h55.24.343,Info_measure_main_exp,2022.2.2,Win32,60.05645307,,,,,,,,,,,,,,,,,,masks/mask_003.jpg,,,,,,,,,,,,,,,,,,,,,,,,,,,,,,,,,,,,,,,,,,,0,2,2,2,1,,,,,,,,,,,,,,,,,,,,,,,,,,,,,,,,,,,,,,,,,,,,,,
552641,001,2022-11-21_24h55.24.343,Info_measure_main_exp,2022.2.2,Win32,60.05645307,,,,,,,,,,,,,,,,,,masks/mask_005.jpg,,,,,,,,,,,,,,,,,,,,,,,,,,,,,,,,,,,,,,,,,,,0,3,3,4,1,,,,,,,,,,,,,,,,,,,,,,,,,,,,,,,,,,,,,,,,,,,,,,
552641,001,2022-11-21_24h55.24.343,Info_measure_main_exp,2022.2.2,Win32,60.05645307,,,,,,,,,,,,,,,,,,masks/mask_001.jpg,,,,,,,,,,,,,,,,,,,,,,,,,,,,,,,,,,,,,,,,,,,0,4,4,0,1,,,,,,,,,,,,,,,,,,,,,,,,,,,,,,,,,,,,,,,,,,,,,,
552641,001,2022-11-21_24h55.24.343,Info_measure_main_exp,2022.2.2,Win32,60.05645307,,,,,,,,,,,,,,,,,,masks/mask_001.jpg,,,,,,,,,,,,,,,,,,,,,,,,,,,,,,,,,,,,,,,,,,,,,,,,0,0,0,0,1,,,,,,,,,,,,,,,,,,,,,,,,,,,,,,,,,,,,,,,,,
552641,001,2022-11-21_24h55.24.343,Info_measure_main_exp,2022.2.2,Win32,60.05645307,,,,,,,,,,,,,,,,,,masks/mask_003.jpg,,,,,,,,,,,,,,,,,,,,,,,,,,,,,,,,,,,,,,,,,,,,,,,,0,1,1,2,1,,,,,,,,,,,,,,,,,,,,,,,,,,,,,,,,,,,,,,,,,
552641,001,2022-11-21_24h55.24.343,Info_measure_main_exp,2022.2.2,Win32,60.05645307,,,,,,,,,,,,,,,,,,masks/mask_004.jpg,,,,,,,,,,,,,,,,,,,,,,,,,,,,,,,,,,,,,,,,,,,,,,,,0,2,2,3,1,,,,,,,,,,,,,,,,,,,,,,,,,,,,,,,,,,,,,,,,,
552641,001,2022-11-21_24h55.24.343,Info_measure_main_exp,2022.2.2,Win32,60.05645307,,,,,,,,,,,,,,,,,,masks/mask_005.jpg,,,,,,,,,,,,,,,,,,,,,,,,,,,,,,,,,,,,,,,,,,,,,,,,0,3,3,4,1,,,,,,,,,,,,,,,,,,,,,,,,,,,,,,,,,,,,,,,,,
552641,001,2022-11-21_24h55.24.343,Info_measure_main_exp,2022.2.2,Win32,60.05645307,,,,,,,,,,,,,,,,,,masks/mask_002.jpg,,,,,,,,,,,,,,,,,,,,,,,,,,,,,,,,,,,,,,,,,,,,,,,,0,4,4,1,1,,,,,,,,,,,,,,,,,,,,,,,,,,,,,,,,,,,,,,,,,
552641,001,2022-11-21_24h55.24.343,Info_measure_main_exp,2022.2.2,Win32,60.05645307,,,,,,,,,,,,,,,,,,,,,,,,,,,,,,7,0.5835,1,,,,,,,,,,,,0,131,5,5,2274,2142,absent_patch/patch0002274.jpg,absent_patch/patch0002142.jpg,,,,,,,,,,,,,,,,,,,,0.012962963,0.024074074,1,0,0,response1disk,5,0.003703704,0.008333333,1,0,0,center_square,0,4,4,75,1,,,,,,,,,,,,,,,,,,,,,,,
552641,001,2022-11-21_24h55.24.343,Info_measure_main_exp,2022.2.2,Win32,60.05645307,,,,,,,,,,,,,,,,,,masks/mask_005.jpg,,,,,,,,,,,,,,,,,,,,,,,,,,,,,,,,,,,,,,,,,,,0,0,0,4,1,,,,,,,,,,,,,,,,,,,,,,,,,,,,,,,,,,,,,,,,,,,,,,
552641,001,2022-11-21_24h55.24.343,Info_measure_main_exp,2022.2.2,Win32,60.05645307,,,,,,,,,,,,,,,,,,masks/mask_002.jpg,,,,,,,,,,,,,,,,,,,,,,,,,,,,,,,,,,,,,,,,,,,0,1,1,1,1,,,,,,,,,,,,,,,,,,,,,,,,,,,,,,,,,,,,,,,,,,,,,,
552641,001,2022-11-21_24h55.24.343,Info_measure_main_exp,2022.2.2,Win32,60.05645307,,,,,,,,,,,,,,,,,,masks/mask_001.jpg,,,,,,,,,,,,,,,,,,,,,,,,,,,,,,,,,,,,,,,,,,,0,2,2,0,1,,,,,,,,,,,,,,,,,,,,,,,,,,,,,,,,,,,,,,,,,,,,,,
552641,001,2022-11-21_24h55.24.343,Info_measure_main_exp,2022.2.2,Win32,60.05645307,,,,,,,,,,,,,,,,,,masks/mask_004.jpg,,,,,,,,,,,,,,,,,,,,,,,,,,,,,,,,,,,,,,,,,,,0,3,3,3,1,,,,,,,,,,,,,,,,,,,,,,,,,,,,,,,,,,,,,,,,,,,,,,
552641,001,2022-11-21_24h55.24.343,Info_measure_main_exp,2022.2.2,Win32,60.05645307,,,,,,,,,,,,,,,,,,masks/mask_003.jpg,,,,,,,,,,,,,,,,,,,,,,,,,,,,,,,,,,,,,,,,,,,0,4,4,2,1,,,,,,,,,,,,,,,,,,,,,,,,,,,,,,,,,,,,,,,,,,,,,,
552641,001,2022-11-21_24h55.24.343,Info_measure_main_exp,2022.2.2,Win32,60.05645307,,,,,,,,,,,,,,,,,,masks/mask_005.jpg,,,,,,,,,,,,,,,,,,,,,,,,,,,,,,,,,,,,,,,,,,,,,,,,0,0,0,4,1,,,,,,,,,,,,,,,,,,,,,,,,,,,,,,,,,,,,,,,,,
552641,001,2022-11-21_24h55.24.343,Info_measure_main_exp,2022.2.2,Win32,60.05645307,,,,,,,,,,,,,,,,,,masks/mask_002.jpg,,,,,,,,,,,,,,,,,,,,,,,,,,,,,,,,,,,,,,,,,,,,,,,,0,1,1,1,1,,,,,,,,,,,,,,,,,,,,,,,,,,,,,,,,,,,,,,,,,
552641,001,2022-11-21_24h55.24.343,Info_measure_main_exp,2022.2.2,Win32,60.05645307,,,,,,,,,,,,,,,,,,masks/mask_001.jpg,,,,,,,,,,,,,,,,,,,,,,,,,,,,,,,,,,,,,,,,,,,,,,,,0,2,2,0,1,,,,,,,,,,,,,,,,,,,,,,,,,,,,,,,,,,,,,,,,,
552641,001,2022-11-21_24h55.24.343,Info_measure_main_exp,2022.2.2,Win32,60.05645307,,,,,,,,,,,,,,,,,,masks/mask_004.jpg,,,,,,,,,,,,,,,,,,,,,,,,,,,,,,,,,,,,,,,,,,,,,,,,0,3,3,3,1,,,,,,,,,,,,,,,,,,,,,,,,,,,,,,,,,,,,,,,,,
552641,001,2022-11-21_24h55.24.343,Info_measure_main_exp,2022.2.2,Win32,60.05645307,,,,,,,,,,,,,,,,,,masks/mask_003.jpg,,,,,,,,,,,,,,,,,,,,,,,,,,,,,,,,,,,,,,,,,,,,,,,,0,4,4,2,1,,,,,,,,,,,,,,,,,,,,,,,,,,,,,,,,,,,,,,,,,
552641,001,2022-11-21_24h55.24.343,Info_measure_main_exp,2022.2.2,Win32,60.05645307,,,,,,,,,,,,,,,,,,,,,,,,,,,,,,7,0.695,1,,,,,,,,,,,,0,131,5,5,2250,2178,absent_patch/patch0002250.jpg,absent_patch/patch0002178.jpg,,,,,,,,,,,,,,,,,,,,0.019444444,0.038888889,1,0,0,response1disk,6,0.002777778,0.009259259,1,0,0,center_square,0,5,5,48,1,,,,,,,,,,,,,,,,,,,,,,,
552641,001,2022-11-21_24h55.24.343,Info_measure_main_exp,2022.2.2,Win32,60.05645307,,,,,,,,,,,,,,,,,,masks/mask_005.jpg,,,,,,,,,,,,,,,,,,,,,,,,,,,,,,,,,,,,,,,,,,,0,0,0,4,1,,,,,,,,,,,,,,,,,,,,,,,,,,,,,,,,,,,,,,,,,,,,,,
552641,001,2022-11-21_24h55.24.343,Info_measure_main_exp,2022.2.2,Win32,60.05645307,,,,,,,,,,,,,,,,,,masks/mask_002.jpg,,,,,,,,,,,,,,,,,,,,,,,,,,,,,,,,,,,,,,,,,,,0,1,1,1,1,,,,,,,,,,,,,,,,,,,,,,,,,,,,,,,,,,,,,,,,,,,,,,
552641,001,2022-11-21_24h55.24.343,Info_measure_main_exp,2022.2.2,Win32,60.05645307,,,,,,,,,,,,,,,,,,masks/mask_001.jpg,,,,,,,,,,,,,,,,,,,,,,,,,,,,,,,,,,,,,,,,,,,0,2,2,0,1,,,,,,,,,,,,,,,,,,,,,,,,,,,,,,,,,,,,,,,,,,,,,,
552641,001,2022-11-21_24h55.24.343,Info_measure_main_exp,2022.2.2,Win32,60.05645307,,,,,,,,,,,,,,,,,,masks/mask_004.jpg,,,,,,,,,,,,,,,,,,,,,,,,,,,,,,,,,,,,,,,,,,,0,3,3,3,1,,,,,,,,,,,,,,,,,,,,,,,,,,,,,,,,,,,,,,,,,,,,,,
552641,001,2022-11-21_24h55.24.343,Info_measure_main_exp,2022.2.2,Win32,60.05645307,,,,,,,,,,,,,,,,,,masks/mask_003.jpg,,,,,,,,,,,,,,,,,,,,,,,,,,,,,,,,,,,,,,,,,,,0,4,4,2,1,,,,,,,,,,,,,,,,,,,,,,,,,,,,,,,,,,,,,,,,,,,,,,
552641,001,2022-11-21_24h55.24.343,Info_measure_main_exp,2022.2.2,Win32,60.05645307,,,,,,,,,,,,,,,,,,masks/mask_003.jpg,,,,,,,,,,,,,,,,,,,,,,,,,,,,,,,,,,,,,,,,,,,,,,,,0,0,0,2,1,,,,,,,,,,,,,,,,,,,,,,,,,,,,,,,,,,,,,,,,,
552641,001,2022-11-21_24h55.24.343,Info_measure_main_exp,2022.2.2,Win32,60.05645307,,,,,,,,,,,,,,,,,,masks/mask_004.jpg,,,,,,,,,,,,,,,,,,,,,,,,,,,,,,,,,,,,,,,,,,,,,,,,0,1,1,3,1,,,,,,,,,,,,,,,,,,,,,,,,,,,,,,,,,,,,,,,,,
552641,001,2022-11-21_24h55.24.343,Info_measure_main_exp,2022.2.2,Win32,60.05645307,,,,,,,,,,,,,,,,,,masks/mask_001.jpg,,,,,,,,,,,,,,,,,,,,,,,,,,,,,,,,,,,,,,,,,,,,,,,,0,2,2,0,1,,,,,,,,,,,,,,,,,,,,,,,,,,,,,,,,,,,,,,,,,
552641,001,2022-11-21_24h55.24.343,Info_measure_main_exp,2022.2.2,Win32,60.05645307,,,,,,,,,,,,,,,,,,masks/mask_002.jpg,,,,,,,,,,,,,,,,,,,,,,,,,,,,,,,,,,,,,,,,,,,,,,,,0,3,3,1,1,,,,,,,,,,,,,,,,,,,,,,,,,,,,,,,,,,,,,,,,,
552641,001,2022-11-21_24h55.24.343,Info_measure_main_exp,2022.2.2,Win32,60.05645307,,,,,,,,,,,,,,,,,,masks/mask_005.jpg,,,,,,,,,,,,,,,,,,,,,,,,,,,,,,,,,,,,,,,,,,,,,,,,0,4,4,4,1,,,,,,,,,,,,,,,,,,,,,,,,,,,,,,,,,,,,,,,,,
552641,001,2022-11-21_24h55.24.343,Info_measure_main_exp,2022.2.2,Win32,60.05645307,,,,,,,,,,,,,,,,,,,,,,,,,,,,,,7,0.6389,1,,,,,,,,,,,,0,131,5,5,2214,1986,absent_patch/patch0002214.jpg,absent_patch/patch0001986.jpg,,,,,,,,,,,,,,,,,,,,0.012962963,0.040740741,1,0,0,response1disk,7,-0.009259259,-0.000925926,1,0,0,center_square,0,6,6,34,1,,,,,,,,,,,,,,,,,,,,,,,
552641,001,2022-11-21_24h55.24.343,Info_measure_main_exp,2022.2.2,Win32,60.05645307,,,,,,,,,,,,,,,,,,masks/mask_005.jpg,,,,,,,,,,,,,,,,,,,,,,,,,,,,,,,,,,,,,,,,,,,0,0,0,4,1,,,,,,,,,,,,,,,,,,,,,,,,,,,,,,,,,,,,,,,,,,,,,,
552641,001,2022-11-21_24h55.24.343,Info_measure_main_exp,2022.2.2,Win32,60.05645307,,,,,,,,,,,,,,,,,,masks/mask_001.jpg,,,,,,,,,,,,,,,,,,,,,,,,,,,,,,,,,,,,,,,,,,,0,1,1,0,1,,,,,,,,,,,,,,,,,,,,,,,,,,,,,,,,,,,,,,,,,,,,,,
552641,001,2022-11-21_24h55.24.343,Info_measure_main_exp,2022.2.2,Win32,60.05645307,,,,,,,,,,,,,,,,,,masks/mask_003.jpg,,,,,,,,,,,,,,,,,,,,,,,,,,,,,,,,,,,,,,,,,,,0,2,2,2,1,,,,,,,,,,,,,,,,,,,,,,,,,,,,,,,,,,,,,,,,,,,,,,
552641,001,2022-11-21_24h55.24.343,Info_measure_main_exp,2022.2.2,Win32,60.05645307,,,,,,,,,,,,,,,,,,masks/mask_004.jpg,,,,,,,,,,,,,,,,,,,,,,,,,,,,,,,,,,,,,,,,,,,0,3,3,3,1,,,,,,,,,,,,,,,,,,,,,,,,,,,,,,,,,,,,,,,,,,,,,,
552641,001,2022-11-21_24h55.24.343,Info_measure_main_exp,2022.2.2,Win32,60.05645307,,,,,,,,,,,,,,,,,,masks/mask_002.jpg,,,,,,,,,,,,,,,,,,,,,,,,,,,,,,,,,,,,,,,,,,,0,4,4,1,1,,,,,,,,,,,,,,,,,,,,,,,,,,,,,,,,,,,,,,,,,,,,,,
552641,001,2022-11-21_24h55.24.343,Info_measure_main_exp,2022.2.2,Win32,60.05645307,,,,,,,,,,,,,,,,,,masks/mask_002.jpg,,,,,,,,,,,,,,,,,,,,,,,,,,,,,,,,,,,,,,,,,,,,,,,,0,0,0,1,1,,,,,,,,,,,,,,,,,,,,,,,,,,,,,,,,,,,,,,,,,
552641,001,2022-11-21_24h55.24.343,Info_measure_main_exp,2022.2.2,Win32,60.05645307,,,,,,,,,,,,,,,,,,masks/mask_005.jpg,,,,,,,,,,,,,,,,,,,,,,,,,,,,,,,,,,,,,,,,,,,,,,,,0,1,1,4,1,,,,,,,,,,,,,,,,,,,,,,,,,,,,,,,,,,,,,,,,,
552641,001,2022-11-21_24h55.24.343,Info_measure_main_exp,2022.2.2,Win32,60.05645307,,,,,,,,,,,,,,,,,,masks/mask_001.jpg,,,,,,,,,,,,,,,,,,,,,,,,,,,,,,,,,,,,,,,,,,,,,,,,0,2,2,0,1,,,,,,,,,,,,,,,,,,,,,,,,,,,,,,,,,,,,,,,,,
552641,001,2022-11-21_24h55.24.343,Info_measure_main_exp,2022.2.2,Win32,60.05645307,,,,,,,,,,,,,,,,,,masks/mask_004.jpg,,,,,,,,,,,,,,,,,,,,,,,,,,,,,,,,,,,,,,,,,,,,,,,,0,3,3,3,1,,,,,,,,,,,,,,,,,,,,,,,,,,,,,,,,,,,,,,,,,
552641,001,2022-11-21_24h55.24.343,Info_measure_main_exp,2022.2.2,Win32,60.05645307,,,,,,,,,,,,,,,,,,masks/mask_003.jpg,,,,,,,,,,,,,,,,,,,,,,,,,,,,,,,,,,,,,,,,,,,,,,,,0,4,4,2,1,,,,,,,,,,,,,,,,,,,,,,,,,,,,,,,,,,,,,,,,,
552641,001,2022-11-21_24h55.24.343,Info_measure_main_exp,2022.2.2,Win32,60.05645307,,,,,,,,,,,,,,,,,,,,,,,,,,,,,,6,0.8836,1,,,,,,,,,,,,0,131,5,5,2274,2082,absent_patch/patch0002274.jpg,absent_patch/patch0002082.jpg,,,,,,,,,,,,,,,,,,,,0.061111111,0.017592593,1,0,0,response1disk,8,0.008333333,-0.005555556,1,0,0,center_square,0,7,7,100,1,,,,,,,,,,,,,,,,,,,,,,,
552641,001,2022-11-21_24h55.24.343,Info_measure_main_exp,2022.2.2,Win32,60.05645307,,,,,,,,,,,,,,,,,,masks/mask_002.jpg,,,,,,,,,,,,,,,,,,,,,,,,,,,,,,,,,,,,,,,,,,,0,0,0,1,1,,,,,,,,,,,,,,,,,,,,,,,,,,,,,,,,,,,,,,,,,,,,,,
552641,001,2022-11-21_24h55.24.343,Info_measure_main_exp,2022.2.2,Win32,60.05645307,,,,,,,,,,,,,,,,,,masks/mask_001.jpg,,,,,,,,,,,,,,,,,,,,,,,,,,,,,,,,,,,,,,,,,,,0,1,1,0,1,,,,,,,,,,,,,,,,,,,,,,,,,,,,,,,,,,,,,,,,,,,,,,
552641,001,2022-11-21_24h55.24.343,Info_measure_main_exp,2022.2.2,Win32,60.05645307,,,,,,,,,,,,,,,,,,masks/mask_005.jpg,,,,,,,,,,,,,,,,,,,,,,,,,,,,,,,,,,,,,,,,,,,0,2,2,4,1,,,,,,,,,,,,,,,,,,,,,,,,,,,,,,,,,,,,,,,,,,,,,,
552641,001,2022-11-21_24h55.24.343,Info_measure_main_exp,2022.2.2,Win32,60.05645307,,,,,,,,,,,,,,,,,,masks/mask_004.jpg,,,,,,,,,,,,,,,,,,,,,,,,,,,,,,,,,,,,,,,,,,,0,3,3,3,1,,,,,,,,,,,,,,,,,,,,,,,,,,,,,,,,,,,,,,,,,,,,,,
552641,001,2022-11-21_24h55.24.343,Info_measure_main_exp,2022.2.2,Win32,60.05645307,,,,,,,,,,,,,,,,,,masks/mask_003.jpg,,,,,,,,,,,,,,,,,,,,,,,,,,,,,,,,,,,,,,,,,,,0,4,4,2,1,,,,,,,,,,,,,,,,,,,,,,,,,,,,,,,,,,,,,,,,,,,,,,
552641,001,2022-11-21_24h55.24.343,Info_measure_main_exp,2022.2.2,Win32,60.05645307,,,,,,,,,,,,,,,,,,masks/mask_004.jpg,,,,,,,,,,,,,,,,,,,,,,,,,,,,,,,,,,,,,,,,,,,,,,,,0,0,0,3,1,,,,,,,,,,,,,,,,,,,,,,,,,,,,,,,,,,,,,,,,,
552641,001,2022-11-21_24h55.24.343,Info_measure_main_exp,2022.2.2,Win32,60.05645307,,,,,,,,,,,,,,,,,,masks/mask_002.jpg,,,,,,,,,,,,,,,,,,,,,,,,,,,,,,,,,,,,,,,,,,,,,,,,0,1,1,1,1,,,,,,,,,,,,,,,,,,,,,,,,,,,,,,,,,,,,,,,,,
552641,001,2022-11-21_24h55.24.343,Info_measure_main_exp,2022.2.2,Win32,60.05645307,,,,,,,,,,,,,,,,,,masks/mask_001.jpg,,,,,,,,,,,,,,,,,,,,,,,,,,,,,,,,,,,,,,,,,,,,,,,,0,2,2,0,1,,,,,,,,,,,,,,,,,,,,,,,,,,,,,,,,,,,,,,,,,
552641,001,2022-11-21_24h55.24.343,Info_measure_main_exp,2022.2.2,Win32,60.05645307,,,,,,,,,,,,,,,,,,masks/mask_005.jpg,,,,,,,,,,,,,,,,,,,,,,,,,,,,,,,,,,,,,,,,,,,,,,,,0,3,3,4,1,,,,,,,,,,,,,,,,,,,,,,,,,,,,,,,,,,,,,,,,,
552641,001,2022-11-21_24h55.24.343,Info_measure_main_exp,2022.2.2,Win32,60.05645307,,,,,,,,,,,,,,,,,,masks/mask_003.jpg,,,,,,,,,,,,,,,,,,,,,,,,,,,,,,,,,,,,,,,,,,,,,,,,0,4,4,2,1,,,,,,,,,,,,,,,,,,,,,,,,,,,,,,,,,,,,,,,,,
552641,001,2022-11-21_24h55.24.343,Info_measure_main_exp,2022.2.2,Win32,60.05645307,,,,,,,,,,,,,,,,,,,,,,,,,,,,,,7,0.5835,1,,,,,,,,,,,,0,131,5,5,2082,2178,absent_patch/patch0002082.jpg,absent_patch/patch0002178.jpg,,,,,,,,,,,,,,,,,,,,0.009259259,0.04537037,1,0,0,response1disk,9,-0.00462963,-0.003703704,1,0,0,center_square,0,8,8,2,1,,,,,,,,,,,,,,,,,,,,,,,
552641,001,2022-11-21_24h55.24.343,Info_measure_main_exp,2022.2.2,Win32,60.05645307,,,,,,,,,,,,,,,,,,masks/mask_001.jpg,,,,,,,,,,,,,,,,,,,,,,,,,,,,,,,,,,,,,,,,,,,0,0,0,0,1,,,,,,,,,,,,,,,,,,,,,,,,,,,,,,,,,,,,,,,,,,,,,,
552641,001,2022-11-21_24h55.24.343,Info_measure_main_exp,2022.2.2,Win32,60.05645307,,,,,,,,,,,,,,,,,,masks/mask_005.jpg,,,,,,,,,,,,,,,,,,,,,,,,,,,,,,,,,,,,,,,,,,,0,1,1,4,1,,,,,,,,,,,,,,,,,,,,,,,,,,,,,,,,,,,,,,,,,,,,,,
552641,001,2022-11-21_24h55.24.343,Info_measure_main_exp,2022.2.2,Win32,60.05645307,,,,,,,,,,,,,,,,,,masks/mask_004.jpg,,,,,,,,,,,,,,,,,,,,,,,,,,,,,,,,,,,,,,,,,,,0,2,2,3,1,,,,,,,,,,,,,,,,,,,,,,,,,,,,,,,,,,,,,,,,,,,,,,
552641,001,2022-11-21_24h55.24.343,Info_measure_main_exp,2022.2.2,Win32,60.05645307,,,,,,,,,,,,,,,,,,masks/mask_003.jpg,,,,,,,,,,,,,,,,,,,,,,,,,,,,,,,,,,,,,,,,,,,0,3,3,2,1,,,,,,,,,,,,,,,,,,,,,,,,,,,,,,,,,,,,,,,,,,,,,,
552641,001,2022-11-21_24h55.24.343,Info_measure_main_exp,2022.2.2,Win32,60.05645307,,,,,,,,,,,,,,,,,,masks/mask_002.jpg,,,,,,,,,,,,,,,,,,,,,,,,,,,,,,,,,,,,,,,,,,,0,4,4,1,1,,,,,,,,,,,,,,,,,,,,,,,,,,,,,,,,,,,,,,,,,,,,,,
552641,001,2022-11-21_24h55.24.343,Info_measure_main_exp,2022.2.2,Win32,60.05645307,,,,,,,,,,,,,,,,,,masks/mask_003.jpg,,,,,,,,,,,,,,,,,,,,,,,,,,,,,,,,,,,,,,,,,,,,,,,,0,0,0,2,1,,,,,,,,,,,,,,,,,,,,,,,,,,,,,,,,,,,,,,,,,
552641,001,2022-11-21_24h55.24.343,Info_measure_main_exp,2022.2.2,Win32,60.05645307,,,,,,,,,,,,,,,,,,masks/mask_004.jpg,,,,,,,,,,,,,,,,,,,,,,,,,,,,,,,,,,,,,,,,,,,,,,,,0,1,1,3,1,,,,,,,,,,,,,,,,,,,,,,,,,,,,,,,,,,,,,,,,,
552641,001,2022-11-21_24h55.24.343,Info_measure_main_exp,2022.2.2,Win32,60.05645307,,,,,,,,,,,,,,,,,,masks/mask_001.jpg,,,,,,,,,,,,,,,,,,,,,,,,,,,,,,,,,,,,,,,,,,,,,,,,0,2,2,0,1,,,,,,,,,,,,,,,,,,,,,,,,,,,,,,,,,,,,,,,,,
552641,001,2022-11-21_24h55.24.343,Info_measure_main_exp,2022.2.2,Win32,60.05645307,,,,,,,,,,,,,,,,,,masks/mask_005.jpg,,,,,,,,,,,,,,,,,,,,,,,,,,,,,,,,,,,,,,,,,,,,,,,,0,3,3,4,1,,,,,,,,,,,,,,,,,,,,,,,,,,,,,,,,,,,,,,,,,
552641,001,2022-11-21_24h55.24.343,Info_measure_main_exp,2022.2.2,Win32,60.05645307,,,,,,,,,,,,,,,,,,masks/mask_002.jpg,,,,,,,,,,,,,,,,,,,,,,,,,,,,,,,,,,,,,,,,,,,,,,,,0,4,4,1,1,,,,,,,,,,,,,,,,,,,,,,,,,,,,,,,,,,,,,,,,,
552641,001,2022-11-21_24h55.24.343,Info_measure_main_exp,2022.2.2,Win32,60.05645307,,,,,,,,,,,,,,,,,,,,,,,,,,,,,,3,1.1821,1,,,,,,,,,,,,1,131,5,5,1,2154,present_patch/cong_131_5_a.jpg,absent_patch/patch0002154.jpg,,,,,,,,,,,,,,,,,,,,-0.024074074,-0.038888889,1,0,0,response5disk,10,-0.001851852,0.005555556,1,0,0,center_square,0,9,9,87,1,,,,,,,,,,,,,,,,,,,,,,,
552641,001,2022-11-21_24h55.24.343,Info_measure_main_exp,2022.2.2,Win32,60.05645307,,,,,,,,,,,,,,,,,,masks/mask_005.jpg,,,,,,,,,,,,,,,,,,,,,,,,,,,,,,,,,,,,,,,,,,,0,0,0,4,1,,,,,,,,,,,,,,,,,,,,,,,,,,,,,,,,,,,,,,,,,,,,,,
552641,001,2022-11-21_24h55.24.343,Info_measure_main_exp,2022.2.2,Win32,60.05645307,,,,,,,,,,,,,,,,,,masks/mask_003.jpg,,,,,,,,,,,,,,,,,,,,,,,,,,,,,,,,,,,,,,,,,,,0,1,1,2,1,,,,,,,,,,,,,,,,,,,,,,,,,,,,,,,,,,,,,,,,,,,,,,
552641,001,2022-11-21_24h55.24.343,Info_measure_main_exp,2022.2.2,Win32,60.05645307,,,,,,,,,,,,,,,,,,masks/mask_001.jpg,,,,,,,,,,,,,,,,,,,,,,,,,,,,,,,,,,,,,,,,,,,0,2,2,0,1,,,,,,,,,,,,,,,,,,,,,,,,,,,,,,,,,,,,,,,,,,,,,,
552641,001,2022-11-21_24h55.24.343,Info_measure_main_exp,2022.2.2,Win32,60.05645307,,,,,,,,,,,,,,,,,,masks/mask_004.jpg,,,,,,,,,,,,,,,,,,,,,,,,,,,,,,,,,,,,,,,,,,,0,3,3,3,1,,,,,,,,,,,,,,,,,,,,,,,,,,,,,,,,,,,,,,,,,,,,,,
552641,001,2022-11-21_24h55.24.343,Info_measure_main_exp,2022.2.2,Win32,60.05645307,,,,,,,,,,,,,,,,,,masks/mask_002.jpg,,,,,,,,,,,,,,,,,,,,,,,,,,,,,,,,,,,,,,,,,,,0,4,4,1,1,,,,,,,,,,,,,,,,,,,,,,,,,,,,,,,,,,,,,,,,,,,,,,
552641,001,2022-11-21_24h55.24.343,Info_measure_main_exp,2022.2.2,Win32,60.05645307,,,,,,,,,,,,,,,,,,masks/mask_002.jpg,,,,,,,,,,,,,,,,,,,,,,,,,,,,,,,,,,,,,,,,,,,,,,,,0,0,0,1,1,,,,,,,,,,,,,,,,,,,,,,,,,,,,,,,,,,,,,,,,,
552641,001,2022-11-21_24h55.24.343,Info_measure_main_exp,2022.2.2,Win32,60.05645307,,,,,,,,,,,,,,,,,,masks/mask_003.jpg,,,,,,,,,,,,,,,,,,,,,,,,,,,,,,,,,,,,,,,,,,,,,,,,0,1,1,2,1,,,,,,,,,,,,,,,,,,,,,,,,,,,,,,,,,,,,,,,,,
552641,001,2022-11-21_24h55.24.343,Info_measure_main_exp,2022.2.2,Win32,60.05645307,,,,,,,,,,,,,,,,,,masks/mask_001.jpg,,,,,,,,,,,,,,,,,,,,,,,,,,,,,,,,,,,,,,,,,,,,,,,,0,2,2,0,1,,,,,,,,,,,,,,,,,,,,,,,,,,,,,,,,,,,,,,,,,
552641,001,2022-11-21_24h55.24.343,Info_measure_main_exp,2022.2.2,Win32,60.05645307,,,,,,,,,,,,,,,,,,masks/mask_005.jpg,,,,,,,,,,,,,,,,,,,,,,,,,,,,,,,,,,,,,,,,,,,,,,,,0,3,3,4,1,,,,,,,,,,,,,,,,,,,,,,,,,,,,,,,,,,,,,,,,,
552641,001,2022-11-21_24h55.24.343,Info_measure_main_exp,2022.2.2,Win32,60.05645307,,,,,,,,,,,,,,,,,,masks/mask_004.jpg,,,,,,,,,,,,,,,,,,,,,,,,,,,,,,,,,,,,,,,,,,,,,,,,0,4,4,3,1,,,,,,,,,,,,,,,,,,,,,,,,,,,,,,,,,,,,,,,,,
552641,001,2022-11-21_24h55.24.343,Info_measure_main_exp,2022.2.2,Win32,60.05645307,,,,,,,,,,,,,,,,,,,,,,,,,,,,,,7,2.3668,1,,,,,,,,,,,,0,131,5,5,2082,2166,absent_patch/patch0002082.jpg,absent_patch/patch0002166.jpg,,,,,,,,,,,,,,,,,,,,0.017592593,0.032407407,1,0,0,response1disk,11,-0.008333333,0,1,0,0,center_square,0,10,10,43,1,,,,,,,,,,,,,,,,,,,,,,,
552641,001,2022-11-21_24h55.24.343,Info_measure_main_exp,2022.2.2,Win32,60.05645307,,,,,,,,,,,,,,,,,,masks/mask_005.jpg,,,,,,,,,,,,,,,,,,,,,,,,,,,,,,,,,,,,,,,,,,,0,0,0,4,1,,,,,,,,,,,,,,,,,,,,,,,,,,,,,,,,,,,,,,,,,,,,,,
552641,001,2022-11-21_24h55.24.343,Info_measure_main_exp,2022.2.2,Win32,60.05645307,,,,,,,,,,,,,,,,,,masks/mask_003.jpg,,,,,,,,,,,,,,,,,,,,,,,,,,,,,,,,,,,,,,,,,,,0,1,1,2,1,,,,,,,,,,,,,,,,,,,,,,,,,,,,,,,,,,,,,,,,,,,,,,
552641,001,2022-11-21_24h55.24.343,Info_measure_main_exp,2022.2.2,Win32,60.05645307,,,,,,,,,,,,,,,,,,masks/mask_004.jpg,,,,,,,,,,,,,,,,,,,,,,,,,,,,,,,,,,,,,,,,,,,0,2,2,3,1,,,,,,,,,,,,,,,,,,,,,,,,,,,,,,,,,,,,,,,,,,,,,,
552641,001,2022-11-21_24h55.24.343,Info_measure_main_exp,2022.2.2,Win32,60.05645307,,,,,,,,,,,,,,,,,,masks/mask_002.jpg,,,,,,,,,,,,,,,,,,,,,,,,,,,,,,,,,,,,,,,,,,,0,3,3,1,1,,,,,,,,,,,,,,,,,,,,,,,,,,,,,,,,,,,,,,,,,,,,,,
552641,001,2022-11-21_24h55.24.343,Info_measure_main_exp,2022.2.2,Win32,60.05645307,,,,,,,,,,,,,,,,,,masks/mask_001.jpg,,,,,,,,,,,,,,,,,,,,,,,,,,,,,,,,,,,,,,,,,,,0,4,4,0,1,,,,,,,,,,,,,,,,,,,,,,,,,,,,,,,,,,,,,,,,,,,,,,
552641,001,2022-11-21_24h55.24.343,Info_measure_main_exp,2022.2.2,Win32,60.05645307,,,,,,,,,,,,,,,,,,masks/mask_001.jpg,,,,,,,,,,,,,,,,,,,,,,,,,,,,,,,,,,,,,,,,,,,,,,,,0,0,0,0,1,,,,,,,,,,,,,,,,,,,,,,,,,,,,,,,,,,,,,,,,,
552641,001,2022-11-21_24h55.24.343,Info_measure_main_exp,2022.2.2,Win32,60.05645307,,,,,,,,,,,,,,,,,,masks/mask_004.jpg,,,,,,,,,,,,,,,,,,,,,,,,,,,,,,,,,,,,,,,,,,,,,,,,0,1,1,3,1,,,,,,,,,,,,,,,,,,,,,,,,,,,,,,,,,,,,,,,,,
552641,001,2022-11-21_24h55.24.343,Info_measure_main_exp,2022.2.2,Win32,60.05645307,,,,,,,,,,,,,,,,,,masks/mask_002.jpg,,,,,,,,,,,,,,,,,,,,,,,,,,,,,,,,,,,,,,,,,,,,,,,,0,2,2,1,1,,,,,,,,,,,,,,,,,,,,,,,,,,,,,,,,,,,,,,,,,
552641,001,2022-11-21_24h55.24.343,Info_measure_main_exp,2022.2.2,Win32,60.05645307,,,,,,,,,,,,,,,,,,masks/mask_005.jpg,,,,,,,,,,,,,,,,,,,,,,,,,,,,,,,,,,,,,,,,,,,,,,,,0,3,3,4,1,,,,,,,,,,,,,,,,,,,,,,,,,,,,,,,,,,,,,,,,,
552641,001,2022-11-21_24h55.24.343,Info_measure_main_exp,2022.2.2,Win32,60.05645307,,,,,,,,,,,,,,,,,,masks/mask_003.jpg,,,,,,,,,,,,,,,,,,,,,,,,,,,,,,,,,,,,,,,,,,,,,,,,0,4,4,2,1,,,,,,,,,,,,,,,,,,,,,,,,,,,,,,,,,,,,,,,,,
552641,001,2022-11-21_24h55.24.343,Info_measure_main_exp,2022.2.2,Win32,60.05645307,,,,,,,,,,,,,,,,,,,,,,,,,,,,,,6,1.0668,1,,,,,,,,,,,,0,131,5,5,1974,2238,absent_patch/patch0001974.jpg,absent_patch/patch0002238.jpg,,,,,,,,,,,,,,,,,,,,0.023148148,0.008333333,1,0,0,response1disk,12,0.005555556,0,1,0,0,center_square,0,11,11,95,1,,,,,,,,,,,,,,,,,,,,,,,
552641,001,2022-11-21_24h55.24.343,Info_measure_main_exp,2022.2.2,Win32,60.05645307,,,,,,,,,,,,,,,,,,masks/mask_003.jpg,,,,,,,,,,,,,,,,,,,,,,,,,,,,,,,,,,,,,,,,,,,0,0,0,2,1,,,,,,,,,,,,,,,,,,,,,,,,,,,,,,,,,,,,,,,,,,,,,,
552641,001,2022-11-21_24h55.24.343,Info_measure_main_exp,2022.2.2,Win32,60.05645307,,,,,,,,,,,,,,,,,,masks/mask_002.jpg,,,,,,,,,,,,,,,,,,,,,,,,,,,,,,,,,,,,,,,,,,,0,1,1,1,1,,,,,,,,,,,,,,,,,,,,,,,,,,,,,,,,,,,,,,,,,,,,,,
552641,001,2022-11-21_24h55.24.343,Info_measure_main_exp,2022.2.2,Win32,60.05645307,,,,,,,,,,,,,,,,,,masks/mask_004.jpg,,,,,,,,,,,,,,,,,,,,,,,,,,,,,,,,,,,,,,,,,,,0,2,2,3,1,,,,,,,,,,,,,,,,,,,,,,,,,,,,,,,,,,,,,,,,,,,,,,
552641,001,2022-11-21_24h55.24.343,Info_measure_main_exp,2022.2.2,Win32,60.05645307,,,,,,,,,,,,,,,,,,masks/mask_005.jpg,,,,,,,,,,,,,,,,,,,,,,,,,,,,,,,,,,,,,,,,,,,0,3,3,4,1,,,,,,,,,,,,,,,,,,,,,,,,,,,,,,,,,,,,,,,,,,,,,,
552641,001,2022-11-21_24h55.24.343,Info_measure_main_exp,2022.2.2,Win32,60.05645307,,,,,,,,,,,,,,,,,,masks/mask_001.jpg,,,,,,,,,,,,,,,,,,,,,,,,,,,,,,,,,,,,,,,,,,,0,4,4,0,1,,,,,,,,,,,,,,,,,,,,,,,,,,,,,,,,,,,,,,,,,,,,,,
552641,001,2022-11-21_24h55.24.343,Info_measure_main_exp,2022.2.2,Win32,60.05645307,,,,,,,,,,,,,,,,,,masks/mask_002.jpg,,,,,,,,,,,,,,,,,,,,,,,,,,,,,,,,,,,,,,,,,,,,,,,,0,0,0,1,1,,,,,,,,,,,,,,,,,,,,,,,,,,,,,,,,,,,,,,,,,
552641,001,2022-11-21_24h55.24.343,Info_measure_main_exp,2022.2.2,Win32,60.05645307,,,,,,,,,,,,,,,,,,masks/mask_001.jpg,,,,,,,,,,,,,,,,,,,,,,,,,,,,,,,,,,,,,,,,,,,,,,,,0,1,1,0,1,,,,,,,,,,,,,,,,,,,,,,,,,,,,,,,,,,,,,,,,,
552641,001,2022-11-21_24h55.24.343,Info_measure_main_exp,2022.2.2,Win32,60.05645307,,,,,,,,,,,,,,,,,,masks/mask_005.jpg,,,,,,,,,,,,,,,,,,,,,,,,,,,,,,,,,,,,,,,,,,,,,,,,0,2,2,4,1,,,,,,,,,,,,,,,,,,,,,,,,,,,,,,,,,,,,,,,,,
552641,001,2022-11-21_24h55.24.343,Info_measure_main_exp,2022.2.2,Win32,60.05645307,,,,,,,,,,,,,,,,,,masks/mask_003.jpg,,,,,,,,,,,,,,,,,,,,,,,,,,,,,,,,,,,,,,,,,,,,,,,,0,3,3,2,1,,,,,,,,,,,,,,,,,,,,,,,,,,,,,,,,,,,,,,,,,
552641,001,2022-11-21_24h55.24.343,Info_measure_main_exp,2022.2.2,Win32,60.05645307,,,,,,,,,,,,,,,,,,masks/mask_004.jpg,,,,,,,,,,,,,,,,,,,,,,,,,,,,,,,,,,,,,,,,,,,,,,,,0,4,4,3,1,,,,,,,,,,,,,,,,,,,,,,,,,,,,,,,,,,,,,,,,,
552641,001,2022-11-21_24h55.24.343,Info_measure_main_exp,2022.2.2,Win32,60.05645307,,,,,,,,,,,,,,,,,,,,,,,,,,,,,,2,2.1892,1,,,,,,,,,,,,0,131,5,5,1950,2298,absent_patch/patch0001950.jpg,absent_patch/patch0002298.jpg,,,,,,,,,,,,,,,,,,,,-0.036111111,-0.009259259,1,0,0,response5disk,13,-0.010185185,-0.001851852,1,0,0,center_square,0,12,12,18,1,,,,,,,,,,,,,,,,,,,,,,,
552641,001,2022-11-21_24h55.24.343,Info_measure_main_exp,2022.2.2,Win32,60.05645307,,,,,,,,,,,,,,,,,,masks/mask_001.jpg,,,,,,,,,,,,,,,,,,,,,,,,,,,,,,,,,,,,,,,,,,,0,0,0,0,1,,,,,,,,,,,,,,,,,,,,,,,,,,,,,,,,,,,,,,,,,,,,,,
552641,001,2022-11-21_24h55.24.343,Info_measure_main_exp,2022.2.2,Win32,60.05645307,,,,,,,,,,,,,,,,,,masks/mask_004.jpg,,,,,,,,,,,,,,,,,,,,,,,,,,,,,,,,,,,,,,,,,,,0,1,1,3,1,,,,,,,,,,,,,,,,,,,,,,,,,,,,,,,,,,,,,,,,,,,,,,
552641,001,2022-11-21_24h55.24.343,Info_measure_main_exp,2022.2.2,Win32,60.05645307,,,,,,,,,,,,,,,,,,masks/mask_002.jpg,,,,,,,,,,,,,,,,,,,,,,,,,,,,,,,,,,,,,,,,,,,0,2,2,1,1,,,,,,,,,,,,,,,,,,,,,,,,,,,,,,,,,,,,,,,,,,,,,,
552641,001,2022-11-21_24h55.24.343,Info_measure_main_exp,2022.2.2,Win32,60.05645307,,,,,,,,,,,,,,,,,,masks/mask_003.jpg,,,,,,,,,,,,,,,,,,,,,,,,,,,,,,,,,,,,,,,,,,,0,3,3,2,1,,,,,,,,,,,,,,,,,,,,,,,,,,,,,,,,,,,,,,,,,,,,,,
552641,001,2022-11-21_24h55.24.343,Info_measure_main_exp,2022.2.2,Win32,60.05645307,,,,,,,,,,,,,,,,,,masks/mask_005.jpg,,,,,,,,,,,,,,,,,,,,,,,,,,,,,,,,,,,,,,,,,,,0,4,4,4,1,,,,,,,,,,,,,,,,,,,,,,,,,,,,,,,,,,,,,,,,,,,,,,
552641,001,2022-11-21_24h55.24.343,Info_measure_main_exp,2022.2.2,Win32,60.05645307,,,,,,,,,,,,,,,,,,masks/mask_003.jpg,,,,,,,,,,,,,,,,,,,,,,,,,,,,,,,,,,,,,,,,,,,,,,,,0,0,0,2,1,,,,,,,,,,,,,,,,,,,,,,,,,,,,,,,,,,,,,,,,,
552641,001,2022-11-21_24h55.24.343,Info_measure_main_exp,2022.2.2,Win32,60.05645307,,,,,,,,,,,,,,,,,,masks/mask_004.jpg,,,,,,,,,,,,,,,,,,,,,,,,,,,,,,,,,,,,,,,,,,,,,,,,0,1,1,3,1,,,,,,,,,,,,,,,,,,,,,,,,,,,,,,,,,,,,,,,,,
552641,001,2022-11-21_24h55.24.343,Info_measure_main_exp,2022.2.2,Win32,60.05645307,,,,,,,,,,,,,,,,,,masks/mask_002.jpg,,,,,,,,,,,,,,,,,,,,,,,,,,,,,,,,,,,,,,,,,,,,,,,,0,2,2,1,1,,,,,,,,,,,,,,,,,,,,,,,,,,,,,,,,,,,,,,,,,
552641,001,2022-11-21_24h55.24.343,Info_measure_main_exp,2022.2.2,Win32,60.05645307,,,,,,,,,,,,,,,,,,masks/mask_005.jpg,,,,,,,,,,,,,,,,,,,,,,,,,,,,,,,,,,,,,,,,,,,,,,,,0,3,3,4,1,,,,,,,,,,,,,,,,,,,,,,,,,,,,,,,,,,,,,,,,,
552641,001,2022-11-21_24h55.24.343,Info_measure_main_exp,2022.2.2,Win32,60.05645307,,,,,,,,,,,,,,,,,,masks/mask_001.jpg,,,,,,,,,,,,,,,,,,,,,,,,,,,,,,,,,,,,,,,,,,,,,,,,0,4,4,0,1,,,,,,,,,,,,,,,,,,,,,,,,,,,,,,,,,,,,,,,,,
552641,001,2022-11-21_24h55.24.343,Info_measure_main_exp,2022.2.2,Win32,60.05645307,,,,,,,,,,,,,,,,,,,,,,,,,,,,,,0,0.7835,1,,,,,,,,,,,,0,131,5,5,2142,2142,absent_patch/patch0002142.jpg,absent_patch/patch0002142.jpg,,,,,,,,,,,,,,,,,,,,-0.016666667,0.043518519,1,0,0,response7disk,14,-0.008333333,0.00462963,1,0,0,center_square,0,13,13,13,1,,,,,,,,,,,,,,,,,,,,,,,
552641,001,2022-11-21_24h55.24.343,Info_measure_main_exp,2022.2.2,Win32,60.05645307,,,,,,,,,,,,,,,,,,masks/mask_005.jpg,,,,,,,,,,,,,,,,,,,,,,,,,,,,,,,,,,,,,,,,,,,0,0,0,4,1,,,,,,,,,,,,,,,,,,,,,,,,,,,,,,,,,,,,,,,,,,,,,,
552641,001,2022-11-21_24h55.24.343,Info_measure_main_exp,2022.2.2,Win32,60.05645307,,,,,,,,,,,,,,,,,,masks/mask_002.jpg,,,,,,,,,,,,,,,,,,,,,,,,,,,,,,,,,,,,,,,,,,,0,1,1,1,1,,,,,,,,,,,,,,,,,,,,,,,,,,,,,,,,,,,,,,,,,,,,,,
552641,001,2022-11-21_24h55.24.343,Info_measure_main_exp,2022.2.2,Win32,60.05645307,,,,,,,,,,,,,,,,,,masks/mask_001.jpg,,,,,,,,,,,,,,,,,,,,,,,,,,,,,,,,,,,,,,,,,,,0,2,2,0,1,,,,,,,,,,,,,,,,,,,,,,,,,,,,,,,,,,,,,,,,,,,,,,
552641,001,2022-11-21_24h55.24.343,Info_measure_main_exp,2022.2.2,Win32,60.05645307,,,,,,,,,,,,,,,,,,masks/mask_004.jpg,,,,,,,,,,,,,,,,,,,,,,,,,,,,,,,,,,,,,,,,,,,0,3,3,3,1,,,,,,,,,,,,,,,,,,,,,,,,,,,,,,,,,,,,,,,,,,,,,,
552641,001,2022-11-21_24h55.24.343,Info_measure_main_exp,2022.2.2,Win32,60.05645307,,,,,,,,,,,,,,,,,,masks/mask_003.jpg,,,,,,,,,,,,,,,,,,,,,,,,,,,,,,,,,,,,,,,,,,,0,4,4,2,1,,,,,,,,,,,,,,,,,,,,,,,,,,,,,,,,,,,,,,,,,,,,,,
552641,001,2022-11-21_24h55.24.343,Info_measure_main_exp,2022.2.2,Win32,60.05645307,,,,,,,,,,,,,,,,,,masks/mask_001.jpg,,,,,,,,,,,,,,,,,,,,,,,,,,,,,,,,,,,,,,,,,,,,,,,,0,0,0,0,1,,,,,,,,,,,,,,,,,,,,,,,,,,,,,,,,,,,,,,,,,
552641,001,2022-11-21_24h55.24.343,Info_measure_main_exp,2022.2.2,Win32,60.05645307,,,,,,,,,,,,,,,,,,masks/mask_004.jpg,,,,,,,,,,,,,,,,,,,,,,,,,,,,,,,,,,,,,,,,,,,,,,,,0,1,1,3,1,,,,,,,,,,,,,,,,,,,,,,,,,,,,,,,,,,,,,,,,,
552641,001,2022-11-21_24h55.24.343,Info_measure_main_exp,2022.2.2,Win32,60.05645307,,,,,,,,,,,,,,,,,,masks/mask_003.jpg,,,,,,,,,,,,,,,,,,,,,,,,,,,,,,,,,,,,,,,,,,,,,,,,0,2,2,2,1,,,,,,,,,,,,,,,,,,,,,,,,,,,,,,,,,,,,,,,,,
552641,001,2022-11-21_24h55.24.343,Info_measure_main_exp,2022.2.2,Win32,60.05645307,,,,,,,,,,,,,,,,,,masks/mask_005.jpg,,,,,,,,,,,,,,,,,,,,,,,,,,,,,,,,,,,,,,,,,,,,,,,,0,3,3,4,1,,,,,,,,,,,,,,,,,,,,,,,,,,,,,,,,,,,,,,,,,
552641,001,2022-11-21_24h55.24.343,Info_measure_main_exp,2022.2.2,Win32,60.05645307,,,,,,,,,,,,,,,,,,masks/mask_002.jpg,,,,,,,,,,,,,,,,,,,,,,,,,,,,,,,,,,,,,,,,,,,,,,,,0,4,4,1,1,,,,,,,,,,,,,,,,,,,,,,,,,,,,,,,,,,,,,,,,,
552641,001,2022-11-21_24h55.24.343,Info_measure_main_exp,2022.2.2,Win32,60.05645307,,,,,,,,,,,,,,,,,,,,,,,,,,,,,,0,0.5501,1,,,,,,,,,,,,0,131,5,5,2214,2214,absent_patch/patch0002214.jpg,absent_patch/patch0002214.jpg,,,,,,,,,,,,,,,,,,,,-0.013888889,0.028703704,1,0,0,response7disk,15,-0.001851852,-0.002777778,1,0,0,center_square,0,14,14,115,1,,,,,,,,,,,,,,,,,,,,,,,
552641,001,2022-11-21_24h55.24.343,Info_measure_main_exp,2022.2.2,Win32,60.05645307,,,,,,,,,,,,,,,,,,masks/mask_005.jpg,,,,,,,,,,,,,,,,,,,,,,,,,,,,,,,,,,,,,,,,,,,0,0,0,4,1,,,,,,,,,,,,,,,,,,,,,,,,,,,,,,,,,,,,,,,,,,,,,,
552641,001,2022-11-21_24h55.24.343,Info_measure_main_exp,2022.2.2,Win32,60.05645307,,,,,,,,,,,,,,,,,,masks/mask_002.jpg,,,,,,,,,,,,,,,,,,,,,,,,,,,,,,,,,,,,,,,,,,,0,1,1,1,1,,,,,,,,,,,,,,,,,,,,,,,,,,,,,,,,,,,,,,,,,,,,,,
552641,001,2022-11-21_24h55.24.343,Info_measure_main_exp,2022.2.2,Win32,60.05645307,,,,,,,,,,,,,,,,,,masks/mask_003.jpg,,,,,,,,,,,,,,,,,,,,,,,,,,,,,,,,,,,,,,,,,,,0,2,2,2,1,,,,,,,,,,,,,,,,,,,,,,,,,,,,,,,,,,,,,,,,,,,,,,
552641,001,2022-11-21_24h55.24.343,Info_measure_main_exp,2022.2.2,Win32,60.05645307,,,,,,,,,,,,,,,,,,masks/mask_001.jpg,,,,,,,,,,,,,,,,,,,,,,,,,,,,,,,,,,,,,,,,,,,0,3,3,0,1,,,,,,,,,,,,,,,,,,,,,,,,,,,,,,,,,,,,,,,,,,,,,,
552641,001,2022-11-21_24h55.24.343,Info_measure_main_exp,2022.2.2,Win32,60.05645307,,,,,,,,,,,,,,,,,,masks/mask_004.jpg,,,,,,,,,,,,,,,,,,,,,,,,,,,,,,,,,,,,,,,,,,,0,4,4,3,1,,,,,,,,,,,,,,,,,,,,,,,,,,,,,,,,,,,,,,,,,,,,,,
552641,001,2022-11-21_24h55.24.343,Info_measure_main_exp,2022.2.2,Win32,60.05645307,,,,,,,,,,,,,,,,,,masks/mask_005.jpg,,,,,,,,,,,,,,,,,,,,,,,,,,,,,,,,,,,,,,,,,,,,,,,,0,0,0,4,1,,,,,,,,,,,,,,,,,,,,,,,,,,,,,,,,,,,,,,,,,
552641,001,2022-11-21_24h55.24.343,Info_measure_main_exp,2022.2.2,Win32,60.05645307,,,,,,,,,,,,,,,,,,masks/mask_003.jpg,,,,,,,,,,,,,,,,,,,,,,,,,,,,,,,,,,,,,,,,,,,,,,,,0,1,1,2,1,,,,,,,,,,,,,,,,,,,,,,,,,,,,,,,,,,,,,,,,,
552641,001,2022-11-21_24h55.24.343,Info_measure_main_exp,2022.2.2,Win32,60.05645307,,,,,,,,,,,,,,,,,,masks/mask_002.jpg,,,,,,,,,,,,,,,,,,,,,,,,,,,,,,,,,,,,,,,,,,,,,,,,0,2,2,1,1,,,,,,,,,,,,,,,,,,,,,,,,,,,,,,,,,,,,,,,,,
552641,001,2022-11-21_24h55.24.343,Info_measure_main_exp,2022.2.2,Win32,60.05645307,,,,,,,,,,,,,,,,,,masks/mask_004.jpg,,,,,,,,,,,,,,,,,,,,,,,,,,,,,,,,,,,,,,,,,,,,,,,,0,3,3,3,1,,,,,,,,,,,,,,,,,,,,,,,,,,,,,,,,,,,,,,,,,
552641,001,2022-11-21_24h55.24.343,Info_measure_main_exp,2022.2.2,Win32,60.05645307,,,,,,,,,,,,,,,,,,masks/mask_001.jpg,,,,,,,,,,,,,,,,,,,,,,,,,,,,,,,,,,,,,,,,,,,,,,,,0,4,4,0,1,,,,,,,,,,,,,,,,,,,,,,,,,,,,,,,,,,,,,,,,,
552641,001,2022-11-21_24h55.24.343,Info_measure_main_exp,2022.2.2,Win32,60.05645307,,,,,,,,,,,,,,,,,,,,,,,,,,,,,,4,0.9334,1,,,,,,,,,,,,0,131,5,5,2238,2298,absent_patch/patch0002238.jpg,absent_patch/patch0002298.jpg,,,,,,,,,,,,,,,,,,,,0.009259259,-0.021296296,1,0,0,response3disk,16,0.003703704,-0.009259259,1,0,0,center_square,0,15,15,51,1,,,,,,,,,,,,,,,,,,,,,,,
552641,001,2022-11-21_24h55.24.343,Info_measure_main_exp,2022.2.2,Win32,60.05645307,,,,,,,,,,,,,,,,,,masks/mask_002.jpg,,,,,,,,,,,,,,,,,,,,,,,,,,,,,,,,,,,,,,,,,,,0,0,0,1,1,,,,,,,,,,,,,,,,,,,,,,,,,,,,,,,,,,,,,,,,,,,,,,
552641,001,2022-11-21_24h55.24.343,Info_measure_main_exp,2022.2.2,Win32,60.05645307,,,,,,,,,,,,,,,,,,masks/mask_004.jpg,,,,,,,,,,,,,,,,,,,,,,,,,,,,,,,,,,,,,,,,,,,0,1,1,3,1,,,,,,,,,,,,,,,,,,,,,,,,,,,,,,,,,,,,,,,,,,,,,,
552641,001,2022-11-21_24h55.24.343,Info_measure_main_exp,2022.2.2,Win32,60.05645307,,,,,,,,,,,,,,,,,,masks/mask_005.jpg,,,,,,,,,,,,,,,,,,,,,,,,,,,,,,,,,,,,,,,,,,,0,2,2,4,1,,,,,,,,,,,,,,,,,,,,,,,,,,,,,,,,,,,,,,,,,,,,,,
552641,001,2022-11-21_24h55.24.343,Info_measure_main_exp,2022.2.2,Win32,60.05645307,,,,,,,,,,,,,,,,,,masks/mask_001.jpg,,,,,,,,,,,,,,,,,,,,,,,,,,,,,,,,,,,,,,,,,,,0,3,3,0,1,,,,,,,,,,,,,,,,,,,,,,,,,,,,,,,,,,,,,,,,,,,,,,
552641,001,2022-11-21_24h55.24.343,Info_measure_main_exp,2022.2.2,Win32,60.05645307,,,,,,,,,,,,,,,,,,masks/mask_003.jpg,,,,,,,,,,,,,,,,,,,,,,,,,,,,,,,,,,,,,,,,,,,0,4,4,2,1,,,,,,,,,,,,,,,,,,,,,,,,,,,,,,,,,,,,,,,,,,,,,,
552641,001,2022-11-21_24h55.24.343,Info_measure_main_exp,2022.2.2,Win32,60.05645307,,,,,,,,,,,,,,,,,,masks/mask_001.jpg,,,,,,,,,,,,,,,,,,,,,,,,,,,,,,,,,,,,,,,,,,,,,,,,0,0,0,0,1,,,,,,,,,,,,,,,,,,,,,,,,,,,,,,,,,,,,,,,,,
552641,001,2022-11-21_24h55.24.343,Info_measure_main_exp,2022.2.2,Win32,60.05645307,,,,,,,,,,,,,,,,,,masks/mask_003.jpg,,,,,,,,,,,,,,,,,,,,,,,,,,,,,,,,,,,,,,,,,,,,,,,,0,1,1,2,1,,,,,,,,,,,,,,,,,,,,,,,,,,,,,,,,,,,,,,,,,
552641,001,2022-11-21_24h55.24.343,Info_measure_main_exp,2022.2.2,Win32,60.05645307,,,,,,,,,,,,,,,,,,masks/mask_004.jpg,,,,,,,,,,,,,,,,,,,,,,,,,,,,,,,,,,,,,,,,,,,,,,,,0,2,2,3,1,,,,,,,,,,,,,,,,,,,,,,,,,,,,,,,,,,,,,,,,,
552641,001,2022-11-21_24h55.24.343,Info_measure_main_exp,2022.2.2,Win32,60.05645307,,,,,,,,,,,,,,,,,,masks/mask_002.jpg,,,,,,,,,,,,,,,,,,,,,,,,,,,,,,,,,,,,,,,,,,,,,,,,0,3,3,1,1,,,,,,,,,,,,,,,,,,,,,,,,,,,,,,,,,,,,,,,,,
552641,001,2022-11-21_24h55.24.343,Info_measure_main_exp,2022.2.2,Win32,60.05645307,,,,,,,,,,,,,,,,,,masks/mask_005.jpg,,,,,,,,,,,,,,,,,,,,,,,,,,,,,,,,,,,,,,,,,,,,,,,,0,4,4,4,1,,,,,,,,,,,,,,,,,,,,,,,,,,,,,,,,,,,,,,,,,
552641,001,2022-11-21_24h55.24.343,Info_measure_main_exp,2022.2.2,Win32,60.05645307,,,,,,,,,,,,,,,,,,,,,,,,,,,,,,7,0.6667,1,,,,,,,,,,,,0,131,5,5,2082,2238,absent_patch/patch0002082.jpg,absent_patch/patch0002238.jpg,,,,,,,,,,,,,,,,,,,,0.028703704,0.052777778,1,0,0,response1disk,17,0.007407407,0.008333333,1,0,0,center_square,0,16,16,22,1,,,,,,,,,,,,,,,,,,,,,,,
552641,001,2022-11-21_24h55.24.343,Info_measure_main_exp,2022.2.2,Win32,60.05645307,,,,,,,,,,,,,,,,,,masks/mask_004.jpg,,,,,,,,,,,,,,,,,,,,,,,,,,,,,,,,,,,,,,,,,,,0,0,0,3,1,,,,,,,,,,,,,,,,,,,,,,,,,,,,,,,,,,,,,,,,,,,,,,
552641,001,2022-11-21_24h55.24.343,Info_measure_main_exp,2022.2.2,Win32,60.05645307,,,,,,,,,,,,,,,,,,masks/mask_005.jpg,,,,,,,,,,,,,,,,,,,,,,,,,,,,,,,,,,,,,,,,,,,0,1,1,4,1,,,,,,,,,,,,,,,,,,,,,,,,,,,,,,,,,,,,,,,,,,,,,,
552641,001,2022-11-21_24h55.24.343,Info_measure_main_exp,2022.2.2,Win32,60.05645307,,,,,,,,,,,,,,,,,,masks/mask_001.jpg,,,,,,,,,,,,,,,,,,,,,,,,,,,,,,,,,,,,,,,,,,,0,2,2,0,1,,,,,,,,,,,,,,,,,,,,,,,,,,,,,,,,,,,,,,,,,,,,,,
552641,001,2022-11-21_24h55.24.343,Info_measure_main_exp,2022.2.2,Win32,60.05645307,,,,,,,,,,,,,,,,,,masks/mask_003.jpg,,,,,,,,,,,,,,,,,,,,,,,,,,,,,,,,,,,,,,,,,,,0,3,3,2,1,,,,,,,,,,,,,,,,,,,,,,,,,,,,,,,,,,,,,,,,,,,,,,
552641,001,2022-11-21_24h55.24.343,Info_measure_main_exp,2022.2.2,Win32,60.05645307,,,,,,,,,,,,,,,,,,masks/mask_002.jpg,,,,,,,,,,,,,,,,,,,,,,,,,,,,,,,,,,,,,,,,,,,0,4,4,1,1,,,,,,,,,,,,,,,,,,,,,,,,,,,,,,,,,,,,,,,,,,,,,,
552641,001,2022-11-21_24h55.24.343,Info_measure_main_exp,2022.2.2,Win32,60.05645307,,,,,,,,,,,,,,,,,,masks/mask_002.jpg,,,,,,,,,,,,,,,,,,,,,,,,,,,,,,,,,,,,,,,,,,,,,,,,0,0,0,1,1,,,,,,,,,,,,,,,,,,,,,,,,,,,,,,,,,,,,,,,,,
552641,001,2022-11-21_24h55.24.343,Info_measure_main_exp,2022.2.2,Win32,60.05645307,,,,,,,,,,,,,,,,,,masks/mask_004.jpg,,,,,,,,,,,,,,,,,,,,,,,,,,,,,,,,,,,,,,,,,,,,,,,,0,1,1,3,1,,,,,,,,,,,,,,,,,,,,,,,,,,,,,,,,,,,,,,,,,
552641,001,2022-11-21_24h55.24.343,Info_measure_main_exp,2022.2.2,Win32,60.05645307,,,,,,,,,,,,,,,,,,masks/mask_003.jpg,,,,,,,,,,,,,,,,,,,,,,,,,,,,,,,,,,,,,,,,,,,,,,,,0,2,2,2,1,,,,,,,,,,,,,,,,,,,,,,,,,,,,,,,,,,,,,,,,,
552641,001,2022-11-21_24h55.24.343,Info_measure_main_exp,2022.2.2,Win32,60.05645307,,,,,,,,,,,,,,,,,,masks/mask_005.jpg,,,,,,,,,,,,,,,,,,,,,,,,,,,,,,,,,,,,,,,,,,,,,,,,0,3,3,4,1,,,,,,,,,,,,,,,,,,,,,,,,,,,,,,,,,,,,,,,,,
552641,001,2022-11-21_24h55.24.343,Info_measure_main_exp,2022.2.2,Win32,60.05645307,,,,,,,,,,,,,,,,,,masks/mask_001.jpg,,,,,,,,,,,,,,,,,,,,,,,,,,,,,,,,,,,,,,,,,,,,,,,,0,4,4,0,1,,,,,,,,,,,,,,,,,,,,,,,,,,,,,,,,,,,,,,,,,
552641,001,2022-11-21_24h55.24.343,Info_measure_main_exp,2022.2.2,Win32,60.05645307,,,,,,,,,,,,,,,,,,,,,,,,,,,,,,7,0.4835,1,,,,,,,,,,,,1,131,5,5,1,2142,present_patch/cong_131_5_a.jpg,absent_patch/patch0002142.jpg,,,,,,,,,,,,,,,,,,,,0.011111111,0.038888889,1,0,0,response1disk,18,-0.003703704,0.007407407,1,0,0,center_square,0,17,17,80,1,,,,,,,,,,,,,,,,,,,,,,,
552641,001,2022-11-21_24h55.24.343,Info_measure_main_exp,2022.2.2,Win32,60.05645307,,,,,,,,,,,,,,,,,,masks/mask_004.jpg,,,,,,,,,,,,,,,,,,,,,,,,,,,,,,,,,,,,,,,,,,,0,0,0,3,1,,,,,,,,,,,,,,,,,,,,,,,,,,,,,,,,,,,,,,,,,,,,,,
552641,001,2022-11-21_24h55.24.343,Info_measure_main_exp,2022.2.2,Win32,60.05645307,,,,,,,,,,,,,,,,,,masks/mask_005.jpg,,,,,,,,,,,,,,,,,,,,,,,,,,,,,,,,,,,,,,,,,,,0,1,1,4,1,,,,,,,,,,,,,,,,,,,,,,,,,,,,,,,,,,,,,,,,,,,,,,
552641,001,2022-11-21_24h55.24.343,Info_measure_main_exp,2022.2.2,Win32,60.05645307,,,,,,,,,,,,,,,,,,masks/mask_003.jpg,,,,,,,,,,,,,,,,,,,,,,,,,,,,,,,,,,,,,,,,,,,0,2,2,2,1,,,,,,,,,,,,,,,,,,,,,,,,,,,,,,,,,,,,,,,,,,,,,,
552641,001,2022-11-21_24h55.24.343,Info_measure_main_exp,2022.2.2,Win32,60.05645307,,,,,,,,,,,,,,,,,,masks/mask_001.jpg,,,,,,,,,,,,,,,,,,,,,,,,,,,,,,,,,,,,,,,,,,,0,3,3,0,1,,,,,,,,,,,,,,,,,,,,,,,,,,,,,,,,,,,,,,,,,,,,,,
552641,001,2022-11-21_24h55.24.343,Info_measure_main_exp,2022.2.2,Win32,60.05645307,,,,,,,,,,,,,,,,,,masks/mask_002.jpg,,,,,,,,,,,,,,,,,,,,,,,,,,,,,,,,,,,,,,,,,,,0,4,4,1,1,,,,,,,,,,,,,,,,,,,,,,,,,,,,,,,,,,,,,,,,,,,,,,
552641,001,2022-11-21_24h55.24.343,Info_measure_main_exp,2022.2.2,Win32,60.05645307,,,,,,,,,,,,,,,,,,masks/mask_002.jpg,,,,,,,,,,,,,,,,,,,,,,,,,,,,,,,,,,,,,,,,,,,,,,,,0,0,0,1,1,,,,,,,,,,,,,,,,,,,,,,,,,,,,,,,,,,,,,,,,,
552641,001,2022-11-21_24h55.24.343,Info_measure_main_exp,2022.2.2,Win32,60.05645307,,,,,,,,,,,,,,,,,,masks/mask_003.jpg,,,,,,,,,,,,,,,,,,,,,,,,,,,,,,,,,,,,,,,,,,,,,,,,0,1,1,2,1,,,,,,,,,,,,,,,,,,,,,,,,,,,,,,,,,,,,,,,,,
552641,001,2022-11-21_24h55.24.343,Info_measure_main_exp,2022.2.2,Win32,60.05645307,,,,,,,,,,,,,,,,,,masks/mask_005.jpg,,,,,,,,,,,,,,,,,,,,,,,,,,,,,,,,,,,,,,,,,,,,,,,,0,2,2,4,1,,,,,,,,,,,,,,,,,,,,,,,,,,,,,,,,,,,,,,,,,
552641,001,2022-11-21_24h55.24.343,Info_measure_main_exp,2022.2.2,Win32,60.05645307,,,,,,,,,,,,,,,,,,masks/mask_004.jpg,,,,,,,,,,,,,,,,,,,,,,,,,,,,,,,,,,,,,,,,,,,,,,,,0,3,3,3,1,,,,,,,,,,,,,,,,,,,,,,,,,,,,,,,,,,,,,,,,,
552641,001,2022-11-21_24h55.24.343,Info_measure_main_exp,2022.2.2,Win32,60.05645307,,,,,,,,,,,,,,,,,,masks/mask_001.jpg,,,,,,,,,,,,,,,,,,,,,,,,,,,,,,,,,,,,,,,,,,,,,,,,0,4,4,0,1,,,,,,,,,,,,,,,,,,,,,,,,,,,,,,,,,,,,,,,,,
552641,001,2022-11-21_24h55.24.343,Info_measure_main_exp,2022.2.2,Win32,60.05645307,,,,,,,,,,,,,,,,,,,,,,,,,,,,,,3,0.9336,1,,,,,,,,,,,,0,131,5,5,2154,1950,absent_patch/patch0002154.jpg,absent_patch/patch0001950.jpg,,,,,,,,,,,,,,,,,,,,-0.013888889,-0.022222222,1,0,0,response5disk,19,0.003703704,0.003703704,1,0,0,center_square,0,18,18,96,1,,,,,,,,,,,,,,,,,,,,,,,
552641,001,2022-11-21_24h55.24.343,Info_measure_main_exp,2022.2.2,Win32,60.05645307,,,,,,,,,,,,,,,,,,masks/mask_005.jpg,,,,,,,,,,,,,,,,,,,,,,,,,,,,,,,,,,,,,,,,,,,0,0,0,4,1,,,,,,,,,,,,,,,,,,,,,,,,,,,,,,,,,,,,,,,,,,,,,,
552641,001,2022-11-21_24h55.24.343,Info_measure_main_exp,2022.2.2,Win32,60.05645307,,,,,,,,,,,,,,,,,,masks/mask_003.jpg,,,,,,,,,,,,,,,,,,,,,,,,,,,,,,,,,,,,,,,,,,,0,1,1,2,1,,,,,,,,,,,,,,,,,,,,,,,,,,,,,,,,,,,,,,,,,,,,,,
552641,001,2022-11-21_24h55.24.343,Info_measure_main_exp,2022.2.2,Win32,60.05645307,,,,,,,,,,,,,,,,,,masks/mask_002.jpg,,,,,,,,,,,,,,,,,,,,,,,,,,,,,,,,,,,,,,,,,,,0,2,2,1,1,,,,,,,,,,,,,,,,,,,,,,,,,,,,,,,,,,,,,,,,,,,,,,
552641,001,2022-11-21_24h55.24.343,Info_measure_main_exp,2022.2.2,Win32,60.05645307,,,,,,,,,,,,,,,,,,masks/mask_004.jpg,,,,,,,,,,,,,,,,,,,,,,,,,,,,,,,,,,,,,,,,,,,0,3,3,3,1,,,,,,,,,,,,,,,,,,,,,,,,,,,,,,,,,,,,,,,,,,,,,,
552641,001,2022-11-21_24h55.24.343,Info_measure_main_exp,2022.2.2,Win32,60.05645307,,,,,,,,,,,,,,,,,,masks/mask_001.jpg,,,,,,,,,,,,,,,,,,,,,,,,,,,,,,,,,,,,,,,,,,,0,4,4,0,1,,,,,,,,,,,,,,,,,,,,,,,,,,,,,,,,,,,,,,,,,,,,,,
552641,001,2022-11-21_24h55.24.343,Info_measure_main_exp,2022.2.2,Win32,60.05645307,,,,,,,,,,,,,,,,,,masks/mask_004.jpg,,,,,,,,,,,,,,,,,,,,,,,,,,,,,,,,,,,,,,,,,,,,,,,,0,0,0,3,1,,,,,,,,,,,,,,,,,,,,,,,,,,,,,,,,,,,,,,,,,
552641,001,2022-11-21_24h55.24.343,Info_measure_main_exp,2022.2.2,Win32,60.05645307,,,,,,,,,,,,,,,,,,masks/mask_005.jpg,,,,,,,,,,,,,,,,,,,,,,,,,,,,,,,,,,,,,,,,,,,,,,,,0,1,1,4,1,,,,,,,,,,,,,,,,,,,,,,,,,,,,,,,,,,,,,,,,,
552641,001,2022-11-21_24h55.24.343,Info_measure_main_exp,2022.2.2,Win32,60.05645307,,,,,,,,,,,,,,,,,,masks/mask_002.jpg,,,,,,,,,,,,,,,,,,,,,,,,,,,,,,,,,,,,,,,,,,,,,,,,0,2,2,1,1,,,,,,,,,,,,,,,,,,,,,,,,,,,,,,,,,,,,,,,,,
552641,001,2022-11-21_24h55.24.343,Info_measure_main_exp,2022.2.2,Win32,60.05645307,,,,,,,,,,,,,,,,,,masks/mask_001.jpg,,,,,,,,,,,,,,,,,,,,,,,,,,,,,,,,,,,,,,,,,,,,,,,,0,3,3,0,1,,,,,,,,,,,,,,,,,,,,,,,,,,,,,,,,,,,,,,,,,
552641,001,2022-11-21_24h55.24.343,Info_measure_main_exp,2022.2.2,Win32,60.05645307,,,,,,,,,,,,,,,,,,masks/mask_003.jpg,,,,,,,,,,,,,,,,,,,,,,,,,,,,,,,,,,,,,,,,,,,,,,,,0,4,4,2,1,,,,,,,,,,,,,,,,,,,,,,,,,,,,,,,,,,,,,,,,,
552641,001,2022-11-21_24h55.24.343,Info_measure_main_exp,2022.2.2,Win32,60.05645307,,,,,,,,,,,,,,,,,,,,,,,,,,,,,,0,0.4501,1,,,,,,,,,,,,0,131,5,5,1974,1974,absent_patch/patch0001974.jpg,absent_patch/patch0001974.jpg,,,,,,,,,,,,,,,,,,,,-0.025,0.030555556,1,0,0,response7disk,20,0,0.002777778,1,0,0,center_square,0,19,19,113,1,,,,,,,,,,,,,,,,,,,,,,,
552641,001,2022-11-21_24h55.24.343,Info_measure_main_exp,2022.2.2,Win32,60.05645307,,,,,,,,,,,,,,,,,,masks/mask_003.jpg,,,,,,,,,,,,,,,,,,,,,,,,,,,,,,,,,,,,,,,,,,,0,0,0,2,1,,,,,,,,,,,,,,,,,,,,,,,,,,,,,,,,,,,,,,,,,,,,,,
552641,001,2022-11-21_24h55.24.343,Info_measure_main_exp,2022.2.2,Win32,60.05645307,,,,,,,,,,,,,,,,,,masks/mask_002.jpg,,,,,,,,,,,,,,,,,,,,,,,,,,,,,,,,,,,,,,,,,,,0,1,1,1,1,,,,,,,,,,,,,,,,,,,,,,,,,,,,,,,,,,,,,,,,,,,,,,
552641,001,2022-11-21_24h55.24.343,Info_measure_main_exp,2022.2.2,Win32,60.05645307,,,,,,,,,,,,,,,,,,masks/mask_005.jpg,,,,,,,,,,,,,,,,,,,,,,,,,,,,,,,,,,,,,,,,,,,0,2,2,4,1,,,,,,,,,,,,,,,,,,,,,,,,,,,,,,,,,,,,,,,,,,,,,,
552641,001,2022-11-21_24h55.24.343,Info_measure_main_exp,2022.2.2,Win32,60.05645307,,,,,,,,,,,,,,,,,,masks/mask_004.jpg,,,,,,,,,,,,,,,,,,,,,,,,,,,,,,,,,,,,,,,,,,,0,3,3,3,1,,,,,,,,,,,,,,,,,,,,,,,,,,,,,,,,,,,,,,,,,,,,,,
552641,001,2022-11-21_24h55.24.343,Info_measure_main_exp,2022.2.2,Win32,60.05645307,,,,,,,,,,,,,,,,,,masks/mask_001.jpg,,,,,,,,,,,,,,,,,,,,,,,,,,,,,,,,,,,,,,,,,,,0,4,4,0,1,,,,,,,,,,,,,,,,,,,,,,,,,,,,,,,,,,,,,,,,,,,,,,
552641,001,2022-11-21_24h55.24.343,Info_measure_main_exp,2022.2.2,Win32,60.05645307,,,,,,,,,,,,,,,,,,masks/mask_001.jpg,,,,,,,,,,,,,,,,,,,,,,,,,,,,,,,,,,,,,,,,,,,,,,,,0,0,0,0,1,,,,,,,,,,,,,,,,,,,,,,,,,,,,,,,,,,,,,,,,,
552641,001,2022-11-21_24h55.24.343,Info_measure_main_exp,2022.2.2,Win32,60.05645307,,,,,,,,,,,,,,,,,,masks/mask_005.jpg,,,,,,,,,,,,,,,,,,,,,,,,,,,,,,,,,,,,,,,,,,,,,,,,0,1,1,4,1,,,,,,,,,,,,,,,,,,,,,,,,,,,,,,,,,,,,,,,,,
552641,001,2022-11-21_24h55.24.343,Info_measure_main_exp,2022.2.2,Win32,60.05645307,,,,,,,,,,,,,,,,,,masks/mask_003.jpg,,,,,,,,,,,,,,,,,,,,,,,,,,,,,,,,,,,,,,,,,,,,,,,,0,2,2,2,1,,,,,,,,,,,,,,,,,,,,,,,,,,,,,,,,,,,,,,,,,
552641,001,2022-11-21_24h55.24.343,Info_measure_main_exp,2022.2.2,Win32,60.05645307,,,,,,,,,,,,,,,,,,masks/mask_002.jpg,,,,,,,,,,,,,,,,,,,,,,,,,,,,,,,,,,,,,,,,,,,,,,,,0,3,3,1,1,,,,,,,,,,,,,,,,,,,,,,,,,,,,,,,,,,,,,,,,,
552641,001,2022-11-21_24h55.24.343,Info_measure_main_exp,2022.2.2,Win32,60.05645307,,,,,,,,,,,,,,,,,,masks/mask_004.jpg,,,,,,,,,,,,,,,,,,,,,,,,,,,,,,,,,,,,,,,,,,,,,,,,0,4,4,3,1,,,,,,,,,,,,,,,,,,,,,,,,,,,,,,,,,,,,,,,,,
552641,001,2022-11-21_24h55.24.343,Info_measure_main_exp,2022.2.2,Win32,60.05645307,,,,,,,,,,,,,,,,,,,,,,,,,,,,,,2,0.8335,1,,,,,,,,,,,,0,131,5,5,1986,1950,absent_patch/patch0001986.jpg,absent_patch/patch0001950.jpg,,,,,,,,,,,,,,,,,,,,-0.025,-0.005555556,1,0,0,response5disk,21,-0.002777778,-0.001851852,1,0,0,center_square,0,20,20,15,1,,,,,,,,,,,,,,,,,,,,,,,
552641,001,2022-11-21_24h55.24.343,Info_measure_main_exp,2022.2.2,Win32,60.05645307,,,,,,,,,,,,,,,,,,masks/mask_003.jpg,,,,,,,,,,,,,,,,,,,,,,,,,,,,,,,,,,,,,,,,,,,0,0,0,2,1,,,,,,,,,,,,,,,,,,,,,,,,,,,,,,,,,,,,,,,,,,,,,,
552641,001,2022-11-21_24h55.24.343,Info_measure_main_exp,2022.2.2,Win32,60.05645307,,,,,,,,,,,,,,,,,,masks/mask_004.jpg,,,,,,,,,,,,,,,,,,,,,,,,,,,,,,,,,,,,,,,,,,,0,1,1,3,1,,,,,,,,,,,,,,,,,,,,,,,,,,,,,,,,,,,,,,,,,,,,,,
552641,001,2022-11-21_24h55.24.343,Info_measure_main_exp,2022.2.2,Win32,60.05645307,,,,,,,,,,,,,,,,,,masks/mask_001.jpg,,,,,,,,,,,,,,,,,,,,,,,,,,,,,,,,,,,,,,,,,,,0,2,2,0,1,,,,,,,,,,,,,,,,,,,,,,,,,,,,,,,,,,,,,,,,,,,,,,
552641,001,2022-11-21_24h55.24.343,Info_measure_main_exp,2022.2.2,Win32,60.05645307,,,,,,,,,,,,,,,,,,masks/mask_005.jpg,,,,,,,,,,,,,,,,,,,,,,,,,,,,,,,,,,,,,,,,,,,0,3,3,4,1,,,,,,,,,,,,,,,,,,,,,,,,,,,,,,,,,,,,,,,,,,,,,,
552641,001,2022-11-21_24h55.24.343,Info_measure_main_exp,2022.2.2,Win32,60.05645307,,,,,,,,,,,,,,,,,,masks/mask_002.jpg,,,,,,,,,,,,,,,,,,,,,,,,,,,,,,,,,,,,,,,,,,,0,4,4,1,1,,,,,,,,,,,,,,,,,,,,,,,,,,,,,,,,,,,,,,,,,,,,,,
552641,001,2022-11-21_24h55.24.343,Info_measure_main_exp,2022.2.2,Win32,60.05645307,,,,,,,,,,,,,,,,,,masks/mask_005.jpg,,,,,,,,,,,,,,,,,,,,,,,,,,,,,,,,,,,,,,,,,,,,,,,,0,0,0,4,1,,,,,,,,,,,,,,,,,,,,,,,,,,,,,,,,,,,,,,,,,
552641,001,2022-11-21_24h55.24.343,Info_measure_main_exp,2022.2.2,Win32,60.05645307,,,,,,,,,,,,,,,,,,masks/mask_003.jpg,,,,,,,,,,,,,,,,,,,,,,,,,,,,,,,,,,,,,,,,,,,,,,,,0,1,1,2,1,,,,,,,,,,,,,,,,,,,,,,,,,,,,,,,,,,,,,,,,,
552641,001,2022-11-21_24h55.24.343,Info_measure_main_exp,2022.2.2,Win32,60.05645307,,,,,,,,,,,,,,,,,,masks/mask_002.jpg,,,,,,,,,,,,,,,,,,,,,,,,,,,,,,,,,,,,,,,,,,,,,,,,0,2,2,1,1,,,,,,,,,,,,,,,,,,,,,,,,,,,,,,,,,,,,,,,,,
552641,001,2022-11-21_24h55.24.343,Info_measure_main_exp,2022.2.2,Win32,60.05645307,,,,,,,,,,,,,,,,,,masks/mask_004.jpg,,,,,,,,,,,,,,,,,,,,,,,,,,,,,,,,,,,,,,,,,,,,,,,,0,3,3,3,1,,,,,,,,,,,,,,,,,,,,,,,,,,,,,,,,,,,,,,,,,
552641,001,2022-11-21_24h55.24.343,Info_measure_main_exp,2022.2.2,Win32,60.05645307,,,,,,,,,,,,,,,,,,masks/mask_001.jpg,,,,,,,,,,,,,,,,,,,,,,,,,,,,,,,,,,,,,,,,,,,,,,,,0,4,4,0,1,,,,,,,,,,,,,,,,,,,,,,,,,,,,,,,,,,,,,,,,,
552641,001,2022-11-21_24h55.24.343,Info_measure_main_exp,2022.2.2,Win32,60.05645307,,,,,,,,,,,,,,,,,,,,,,,,,,,,,,1,1.4502,1,,,,,,,,,,,,0,131,5,5,2298,2190,absent_patch/patch0002298.jpg,absent_patch/patch0002190.jpg,,,,,,,,,,,,,,,,,,,,-0.034259259,0.007407407,1,0,0,response7disk,22,-0.011111111,0.001851852,1,0,0,center_square,0,21,21,20,1,,,,,,,,,,,,,,,,,,,,,,,
552641,001,2022-11-21_24h55.24.343,Info_measure_main_exp,2022.2.2,Win32,60.05645307,,,,,,,,,,,,,,,,,,masks/mask_004.jpg,,,,,,,,,,,,,,,,,,,,,,,,,,,,,,,,,,,,,,,,,,,0,0,0,3,1,,,,,,,,,,,,,,,,,,,,,,,,,,,,,,,,,,,,,,,,,,,,,,
552641,001,2022-11-21_24h55.24.343,Info_measure_main_exp,2022.2.2,Win32,60.05645307,,,,,,,,,,,,,,,,,,masks/mask_001.jpg,,,,,,,,,,,,,,,,,,,,,,,,,,,,,,,,,,,,,,,,,,,0,1,1,0,1,,,,,,,,,,,,,,,,,,,,,,,,,,,,,,,,,,,,,,,,,,,,,,
552641,001,2022-11-21_24h55.24.343,Info_measure_main_exp,2022.2.2,Win32,60.05645307,,,,,,,,,,,,,,,,,,masks/mask_003.jpg,,,,,,,,,,,,,,,,,,,,,,,,,,,,,,,,,,,,,,,,,,,0,2,2,2,1,,,,,,,,,,,,,,,,,,,,,,,,,,,,,,,,,,,,,,,,,,,,,,
552641,001,2022-11-21_24h55.24.343,Info_measure_main_exp,2022.2.2,Win32,60.05645307,,,,,,,,,,,,,,,,,,masks/mask_005.jpg,,,,,,,,,,,,,,,,,,,,,,,,,,,,,,,,,,,,,,,,,,,0,3,3,4,1,,,,,,,,,,,,,,,,,,,,,,,,,,,,,,,,,,,,,,,,,,,,,,
552641,001,2022-11-21_24h55.24.343,Info_measure_main_exp,2022.2.2,Win32,60.05645307,,,,,,,,,,,,,,,,,,masks/mask_002.jpg,,,,,,,,,,,,,,,,,,,,,,,,,,,,,,,,,,,,,,,,,,,0,4,4,1,1,,,,,,,,,,,,,,,,,,,,,,,,,,,,,,,,,,,,,,,,,,,,,,
552641,001,2022-11-21_24h55.24.343,Info_measure_main_exp,2022.2.2,Win32,60.05645307,,,,,,,,,,,,,,,,,,masks/mask_003.jpg,,,,,,,,,,,,,,,,,,,,,,,,,,,,,,,,,,,,,,,,,,,,,,,,0,0,0,2,1,,,,,,,,,,,,,,,,,,,,,,,,,,,,,,,,,,,,,,,,,
552641,001,2022-11-21_24h55.24.343,Info_measure_main_exp,2022.2.2,Win32,60.05645307,,,,,,,,,,,,,,,,,,masks/mask_002.jpg,,,,,,,,,,,,,,,,,,,,,,,,,,,,,,,,,,,,,,,,,,,,,,,,0,1,1,1,1,,,,,,,,,,,,,,,,,,,,,,,,,,,,,,,,,,,,,,,,,
552641,001,2022-11-21_24h55.24.343,Info_measure_main_exp,2022.2.2,Win32,60.05645307,,,,,,,,,,,,,,,,,,masks/mask_004.jpg,,,,,,,,,,,,,,,,,,,,,,,,,,,,,,,,,,,,,,,,,,,,,,,,0,2,2,3,1,,,,,,,,,,,,,,,,,,,,,,,,,,,,,,,,,,,,,,,,,
552641,001,2022-11-21_24h55.24.343,Info_measure_main_exp,2022.2.2,Win32,60.05645307,,,,,,,,,,,,,,,,,,masks/mask_001.jpg,,,,,,,,,,,,,,,,,,,,,,,,,,,,,,,,,,,,,,,,,,,,,,,,0,3,3,0,1,,,,,,,,,,,,,,,,,,,,,,,,,,,,,,,,,,,,,,,,,
552641,001,2022-11-21_24h55.24.343,Info_measure_main_exp,2022.2.2,Win32,60.05645307,,,,,,,,,,,,,,,,,,masks/mask_005.jpg,,,,,,,,,,,,,,,,,,,,,,,,,,,,,,,,,,,,,,,,,,,,,,,,0,4,4,4,1,,,,,,,,,,,,,,,,,,,,,,,,,,,,,,,,,,,,,,,,,
552641,001,2022-11-21_24h55.24.343,Info_measure_main_exp,2022.2.2,Win32,60.05645307,,,,,,,,,,,,,,,,,,,,,,,,,,,,,,3,1.0169,1,,,,,,,,,,,,0,131,5,5,2142,2166,absent_patch/patch0002142.jpg,absent_patch/patch0002166.jpg,,,,,,,,,,,,,,,,,,,,-0.010185185,-0.023148148,1,0,0,response5disk,23,0.008333333,0.005555556,1,0,0,center_square,0,22,22,66,1,,,,,,,,,,,,,,,,,,,,,,,
552641,001,2022-11-21_24h55.24.343,Info_measure_main_exp,2022.2.2,Win32,60.05645307,,,,,,,,,,,,,,,,,,masks/mask_005.jpg,,,,,,,,,,,,,,,,,,,,,,,,,,,,,,,,,,,,,,,,,,,0,0,0,4,1,,,,,,,,,,,,,,,,,,,,,,,,,,,,,,,,,,,,,,,,,,,,,,
552641,001,2022-11-21_24h55.24.343,Info_measure_main_exp,2022.2.2,Win32,60.05645307,,,,,,,,,,,,,,,,,,masks/mask_001.jpg,,,,,,,,,,,,,,,,,,,,,,,,,,,,,,,,,,,,,,,,,,,0,1,1,0,1,,,,,,,,,,,,,,,,,,,,,,,,,,,,,,,,,,,,,,,,,,,,,,
552641,001,2022-11-21_24h55.24.343,Info_measure_main_exp,2022.2.2,Win32,60.05645307,,,,,,,,,,,,,,,,,,masks/mask_004.jpg,,,,,,,,,,,,,,,,,,,,,,,,,,,,,,,,,,,,,,,,,,,0,2,2,3,1,,,,,,,,,,,,,,,,,,,,,,,,,,,,,,,,,,,,,,,,,,,,,,
552641,001,2022-11-21_24h55.24.343,Info_measure_main_exp,2022.2.2,Win32,60.05645307,,,,,,,,,,,,,,,,,,masks/mask_003.jpg,,,,,,,,,,,,,,,,,,,,,,,,,,,,,,,,,,,,,,,,,,,0,3,3,2,1,,,,,,,,,,,,,,,,,,,,,,,,,,,,,,,,,,,,,,,,,,,,,,
552641,001,2022-11-21_24h55.24.343,Info_measure_main_exp,2022.2.2,Win32,60.05645307,,,,,,,,,,,,,,,,,,masks/mask_002.jpg,,,,,,,,,,,,,,,,,,,,,,,,,,,,,,,,,,,,,,,,,,,0,4,4,1,1,,,,,,,,,,,,,,,,,,,,,,,,,,,,,,,,,,,,,,,,,,,,,,
552641,001,2022-11-21_24h55.24.343,Info_measure_main_exp,2022.2.2,Win32,60.05645307,,,,,,,,,,,,,,,,,,masks/mask_001.jpg,,,,,,,,,,,,,,,,,,,,,,,,,,,,,,,,,,,,,,,,,,,,,,,,0,0,0,0,1,,,,,,,,,,,,,,,,,,,,,,,,,,,,,,,,,,,,,,,,,
552641,001,2022-11-21_24h55.24.343,Info_measure_main_exp,2022.2.2,Win32,60.05645307,,,,,,,,,,,,,,,,,,masks/mask_002.jpg,,,,,,,,,,,,,,,,,,,,,,,,,,,,,,,,,,,,,,,,,,,,,,,,0,1,1,1,1,,,,,,,,,,,,,,,,,,,,,,,,,,,,,,,,,,,,,,,,,
552641,001,2022-11-21_24h55.24.343,Info_measure_main_exp,2022.2.2,Win32,60.05645307,,,,,,,,,,,,,,,,,,masks/mask_003.jpg,,,,,,,,,,,,,,,,,,,,,,,,,,,,,,,,,,,,,,,,,,,,,,,,0,2,2,2,1,,,,,,,,,,,,,,,,,,,,,,,,,,,,,,,,,,,,,,,,,
552641,001,2022-11-21_24h55.24.343,Info_measure_main_exp,2022.2.2,Win32,60.05645307,,,,,,,,,,,,,,,,,,masks/mask_004.jpg,,,,,,,,,,,,,,,,,,,,,,,,,,,,,,,,,,,,,,,,,,,,,,,,0,3,3,3,1,,,,,,,,,,,,,,,,,,,,,,,,,,,,,,,,,,,,,,,,,
552641,001,2022-11-21_24h55.24.343,Info_measure_main_exp,2022.2.2,Win32,60.05645307,,,,,,,,,,,,,,,,,,masks/mask_005.jpg,,,,,,,,,,,,,,,,,,,,,,,,,,,,,,,,,,,,,,,,,,,,,,,,0,4,4,4,1,,,,,,,,,,,,,,,,,,,,,,,,,,,,,,,,,,,,,,,,,
552641,001,2022-11-21_24h55.24.343,Info_measure_main_exp,2022.2.2,Win32,60.05645307,,,,,,,,,,,,,,,,,,,,,,,,,,,,,,2,0.9,1,,,,,,,,,,,,0,131,5,5,2250,2298,absent_patch/patch0002250.jpg,absent_patch/patch0002298.jpg,,,,,,,,,,,,,,,,,,,,-0.018518519,-0.002777778,1,0,0,response5disk,24,-0.003703704,0.002777778,1,0,0,center_square,0,23,23,59,1,,,,,,,,,,,,,,,,,,,,,,,
552641,001,2022-11-21_24h55.24.343,Info_measure_main_exp,2022.2.2,Win32,60.05645307,,,,,,,,,,,,,,,,,,masks/mask_001.jpg,,,,,,,,,,,,,,,,,,,,,,,,,,,,,,,,,,,,,,,,,,,0,0,0,0,1,,,,,,,,,,,,,,,,,,,,,,,,,,,,,,,,,,,,,,,,,,,,,,
552641,001,2022-11-21_24h55.24.343,Info_measure_main_exp,2022.2.2,Win32,60.05645307,,,,,,,,,,,,,,,,,,masks/mask_003.jpg,,,,,,,,,,,,,,,,,,,,,,,,,,,,,,,,,,,,,,,,,,,0,1,1,2,1,,,,,,,,,,,,,,,,,,,,,,,,,,,,,,,,,,,,,,,,,,,,,,
552641,001,2022-11-21_24h55.24.343,Info_measure_main_exp,2022.2.2,Win32,60.05645307,,,,,,,,,,,,,,,,,,masks/mask_002.jpg,,,,,,,,,,,,,,,,,,,,,,,,,,,,,,,,,,,,,,,,,,,0,2,2,1,1,,,,,,,,,,,,,,,,,,,,,,,,,,,,,,,,,,,,,,,,,,,,,,
552641,001,2022-11-21_24h55.24.343,Info_measure_main_exp,2022.2.2,Win32,60.05645307,,,,,,,,,,,,,,,,,,masks/mask_004.jpg,,,,,,,,,,,,,,,,,,,,,,,,,,,,,,,,,,,,,,,,,,,0,3,3,3,1,,,,,,,,,,,,,,,,,,,,,,,,,,,,,,,,,,,,,,,,,,,,,,
552641,001,2022-11-21_24h55.24.343,Info_measure_main_exp,2022.2.2,Win32,60.05645307,,,,,,,,,,,,,,,,,,masks/mask_005.jpg,,,,,,,,,,,,,,,,,,,,,,,,,,,,,,,,,,,,,,,,,,,0,4,4,4,1,,,,,,,,,,,,,,,,,,,,,,,,,,,,,,,,,,,,,,,,,,,,,,
552641,001,2022-11-21_24h55.24.343,Info_measure_main_exp,2022.2.2,Win32,60.05645307,,,,,,,,,,,,,,,,,,masks/mask_002.jpg,,,,,,,,,,,,,,,,,,,,,,,,,,,,,,,,,,,,,,,,,,,,,,,,0,0,0,1,1,,,,,,,,,,,,,,,,,,,,,,,,,,,,,,,,,,,,,,,,,
552641,001,2022-11-21_24h55.24.343,Info_measure_main_exp,2022.2.2,Win32,60.05645307,,,,,,,,,,,,,,,,,,masks/mask_004.jpg,,,,,,,,,,,,,,,,,,,,,,,,,,,,,,,,,,,,,,,,,,,,,,,,0,1,1,3,1,,,,,,,,,,,,,,,,,,,,,,,,,,,,,,,,,,,,,,,,,
552641,001,2022-11-21_24h55.24.343,Info_measure_main_exp,2022.2.2,Win32,60.05645307,,,,,,,,,,,,,,,,,,masks/mask_005.jpg,,,,,,,,,,,,,,,,,,,,,,,,,,,,,,,,,,,,,,,,,,,,,,,,0,2,2,4,1,,,,,,,,,,,,,,,,,,,,,,,,,,,,,,,,,,,,,,,,,
552641,001,2022-11-21_24h55.24.343,Info_measure_main_exp,2022.2.2,Win32,60.05645307,,,,,,,,,,,,,,,,,,masks/mask_003.jpg,,,,,,,,,,,,,,,,,,,,,,,,,,,,,,,,,,,,,,,,,,,,,,,,0,3,3,2,1,,,,,,,,,,,,,,,,,,,,,,,,,,,,,,,,,,,,,,,,,
552641,001,2022-11-21_24h55.24.343,Info_measure_main_exp,2022.2.2,Win32,60.05645307,,,,,,,,,,,,,,,,,,masks/mask_001.jpg,,,,,,,,,,,,,,,,,,,,,,,,,,,,,,,,,,,,,,,,,,,,,,,,0,4,4,0,1,,,,,,,,,,,,,,,,,,,,,,,,,,,,,,,,,,,,,,,,,
552641,001,2022-11-21_24h55.24.343,Info_measure_main_exp,2022.2.2,Win32,60.05645307,,,,,,,,,,,,,,,,,,,,,,,,,,,,,,1,1.4503,1,,,,,,,,,,,,0,131,5,5,2190,2082,absent_patch/patch0002190.jpg,absent_patch/patch0002082.jpg,,,,,,,,,,,,,,,,,,,,-0.019444444,0.00462963,1,0,0,response7disk,25,0.002777778,-0.000925926,1,0,0,center_square,0,24,24,112,1,,,,,,,,,,,,,,,,,,,,,,,
552641,001,2022-11-21_24h55.24.343,Info_measure_main_exp,2022.2.2,Win32,60.05645307,,,,,,,,,,,,,,,,,,masks/mask_002.jpg,,,,,,,,,,,,,,,,,,,,,,,,,,,,,,,,,,,,,,,,,,,0,0,0,1,1,,,,,,,,,,,,,,,,,,,,,,,,,,,,,,,,,,,,,,,,,,,,,,
552641,001,2022-11-21_24h55.24.343,Info_measure_main_exp,2022.2.2,Win32,60.05645307,,,,,,,,,,,,,,,,,,masks/mask_001.jpg,,,,,,,,,,,,,,,,,,,,,,,,,,,,,,,,,,,,,,,,,,,0,1,1,0,1,,,,,,,,,,,,,,,,,,,,,,,,,,,,,,,,,,,,,,,,,,,,,,
552641,001,2022-11-21_24h55.24.343,Info_measure_main_exp,2022.2.2,Win32,60.05645307,,,,,,,,,,,,,,,,,,masks/mask_003.jpg,,,,,,,,,,,,,,,,,,,,,,,,,,,,,,,,,,,,,,,,,,,0,2,2,2,1,,,,,,,,,,,,,,,,,,,,,,,,,,,,,,,,,,,,,,,,,,,,,,
552641,001,2022-11-21_24h55.24.343,Info_measure_main_exp,2022.2.2,Win32,60.05645307,,,,,,,,,,,,,,,,,,masks/mask_004.jpg,,,,,,,,,,,,,,,,,,,,,,,,,,,,,,,,,,,,,,,,,,,0,3,3,3,1,,,,,,,,,,,,,,,,,,,,,,,,,,,,,,,,,,,,,,,,,,,,,,
552641,001,2022-11-21_24h55.24.343,Info_measure_main_exp,2022.2.2,Win32,60.05645307,,,,,,,,,,,,,,,,,,masks/mask_005.jpg,,,,,,,,,,,,,,,,,,,,,,,,,,,,,,,,,,,,,,,,,,,0,4,4,4,1,,,,,,,,,,,,,,,,,,,,,,,,,,,,,,,,,,,,,,,,,,,,,,
552641,001,2022-11-21_24h55.24.343,Info_measure_main_exp,2022.2.2,Win32,60.05645307,,,,,,,,,,,,,,,,,,masks/mask_004.jpg,,,,,,,,,,,,,,,,,,,,,,,,,,,,,,,,,,,,,,,,,,,,,,,,0,0,0,3,1,,,,,,,,,,,,,,,,,,,,,,,,,,,,,,,,,,,,,,,,,
552641,001,2022-11-21_24h55.24.343,Info_measure_main_exp,2022.2.2,Win32,60.05645307,,,,,,,,,,,,,,,,,,masks/mask_005.jpg,,,,,,,,,,,,,,,,,,,,,,,,,,,,,,,,,,,,,,,,,,,,,,,,0,1,1,4,1,,,,,,,,,,,,,,,,,,,,,,,,,,,,,,,,,,,,,,,,,
552641,001,2022-11-21_24h55.24.343,Info_measure_main_exp,2022.2.2,Win32,60.05645307,,,,,,,,,,,,,,,,,,masks/mask_001.jpg,,,,,,,,,,,,,,,,,,,,,,,,,,,,,,,,,,,,,,,,,,,,,,,,0,2,2,0,1,,,,,,,,,,,,,,,,,,,,,,,,,,,,,,,,,,,,,,,,,
552641,001,2022-11-21_24h55.24.343,Info_measure_main_exp,2022.2.2,Win32,60.05645307,,,,,,,,,,,,,,,,,,masks/mask_002.jpg,,,,,,,,,,,,,,,,,,,,,,,,,,,,,,,,,,,,,,,,,,,,,,,,0,3,3,1,1,,,,,,,,,,,,,,,,,,,,,,,,,,,,,,,,,,,,,,,,,
552641,001,2022-11-21_24h55.24.343,Info_measure_main_exp,2022.2.2,Win32,60.05645307,,,,,,,,,,,,,,,,,,masks/mask_003.jpg,,,,,,,,,,,,,,,,,,,,,,,,,,,,,,,,,,,,,,,,,,,,,,,,0,4,4,2,1,,,,,,,,,,,,,,,,,,,,,,,,,,,,,,,,,,,,,,,,,
552641,001,2022-11-21_24h55.24.343,Info_measure_main_exp,2022.2.2,Win32,60.05645307,,,,,,,,,,,,,,,,,,,,,,,,,,,,,,6,0.8834,1,,,,,,,,,,,,0,131,5,5,2142,2154,absent_patch/patch0002142.jpg,absent_patch/patch0002154.jpg,,,,,,,,,,,,,,,,,,,,0.010185185,0.006481481,1,0,0,response1disk,26,-0.006481481,0.006481481,1,0,0,center_square,0,25,25,9,1,,,,,,,,,,,,,,,,,,,,,,,
552641,001,2022-11-21_24h55.24.343,Info_measure_main_exp,2022.2.2,Win32,60.05645307,,,,,,,,,,,,,,,,,,masks/mask_005.jpg,,,,,,,,,,,,,,,,,,,,,,,,,,,,,,,,,,,,,,,,,,,0,0,0,4,1,,,,,,,,,,,,,,,,,,,,,,,,,,,,,,,,,,,,,,,,,,,,,,
552641,001,2022-11-21_24h55.24.343,Info_measure_main_exp,2022.2.2,Win32,60.05645307,,,,,,,,,,,,,,,,,,masks/mask_002.jpg,,,,,,,,,,,,,,,,,,,,,,,,,,,,,,,,,,,,,,,,,,,0,1,1,1,1,,,,,,,,,,,,,,,,,,,,,,,,,,,,,,,,,,,,,,,,,,,,,,
552641,001,2022-11-21_24h55.24.343,Info_measure_main_exp,2022.2.2,Win32,60.05645307,,,,,,,,,,,,,,,,,,masks/mask_001.jpg,,,,,,,,,,,,,,,,,,,,,,,,,,,,,,,,,,,,,,,,,,,0,2,2,0,1,,,,,,,,,,,,,,,,,,,,,,,,,,,,,,,,,,,,,,,,,,,,,,
552641,001,2022-11-21_24h55.24.343,Info_measure_main_exp,2022.2.2,Win32,60.05645307,,,,,,,,,,,,,,,,,,masks/mask_004.jpg,,,,,,,,,,,,,,,,,,,,,,,,,,,,,,,,,,,,,,,,,,,0,3,3,3,1,,,,,,,,,,,,,,,,,,,,,,,,,,,,,,,,,,,,,,,,,,,,,,
552641,001,2022-11-21_24h55.24.343,Info_measure_main_exp,2022.2.2,Win32,60.05645307,,,,,,,,,,,,,,,,,,masks/mask_003.jpg,,,,,,,,,,,,,,,,,,,,,,,,,,,,,,,,,,,,,,,,,,,0,4,4,2,1,,,,,,,,,,,,,,,,,,,,,,,,,,,,,,,,,,,,,,,,,,,,,,
552641,001,2022-11-21_24h55.24.343,Info_measure_main_exp,2022.2.2,Win32,60.05645307,,,,,,,,,,,,,,,,,,masks/mask_005.jpg,,,,,,,,,,,,,,,,,,,,,,,,,,,,,,,,,,,,,,,,,,,,,,,,0,0,0,4,1,,,,,,,,,,,,,,,,,,,,,,,,,,,,,,,,,,,,,,,,,
552641,001,2022-11-21_24h55.24.343,Info_measure_main_exp,2022.2.2,Win32,60.05645307,,,,,,,,,,,,,,,,,,masks/mask_001.jpg,,,,,,,,,,,,,,,,,,,,,,,,,,,,,,,,,,,,,,,,,,,,,,,,0,1,1,0,1,,,,,,,,,,,,,,,,,,,,,,,,,,,,,,,,,,,,,,,,,
552641,001,2022-11-21_24h55.24.343,Info_measure_main_exp,2022.2.2,Win32,60.05645307,,,,,,,,,,,,,,,,,,masks/mask_002.jpg,,,,,,,,,,,,,,,,,,,,,,,,,,,,,,,,,,,,,,,,,,,,,,,,0,2,2,1,1,,,,,,,,,,,,,,,,,,,,,,,,,,,,,,,,,,,,,,,,,
552641,001,2022-11-21_24h55.24.343,Info_measure_main_exp,2022.2.2,Win32,60.05645307,,,,,,,,,,,,,,,,,,masks/mask_003.jpg,,,,,,,,,,,,,,,,,,,,,,,,,,,,,,,,,,,,,,,,,,,,,,,,0,3,3,2,1,,,,,,,,,,,,,,,,,,,,,,,,,,,,,,,,,,,,,,,,,
552641,001,2022-11-21_24h55.24.343,Info_measure_main_exp,2022.2.2,Win32,60.05645307,,,,,,,,,,,,,,,,,,masks/mask_004.jpg,,,,,,,,,,,,,,,,,,,,,,,,,,,,,,,,,,,,,,,,,,,,,,,,0,4,4,3,1,,,,,,,,,,,,,,,,,,,,,,,,,,,,,,,,,,,,,,,,,
552641,001,2022-11-21_24h55.24.343,Info_measure_main_exp,2022.2.2,Win32,60.05645307,,,,,,,,,,,,,,,,,,,,,,,,,,,,,,7,0.7001,1,,,,,,,,,,,,0,131,5,5,2274,1950,absent_patch/patch0002274.jpg,absent_patch/patch0001950.jpg,,,,,,,,,,,,,,,,,,,,0.012962963,0.036111111,1,0,0,response1disk,27,0.003703704,0.010185185,1,0,0,center_square,0,26,26,10,1,,,,,,,,,,,,,,,,,,,,,,,
552641,001,2022-11-21_24h55.24.343,Info_measure_main_exp,2022.2.2,Win32,60.05645307,,,,,,,,,,,,,,,,,,masks/mask_004.jpg,,,,,,,,,,,,,,,,,,,,,,,,,,,,,,,,,,,,,,,,,,,0,0,0,3,1,,,,,,,,,,,,,,,,,,,,,,,,,,,,,,,,,,,,,,,,,,,,,,
552641,001,2022-11-21_24h55.24.343,Info_measure_main_exp,2022.2.2,Win32,60.05645307,,,,,,,,,,,,,,,,,,masks/mask_002.jpg,,,,,,,,,,,,,,,,,,,,,,,,,,,,,,,,,,,,,,,,,,,0,1,1,1,1,,,,,,,,,,,,,,,,,,,,,,,,,,,,,,,,,,,,,,,,,,,,,,
552641,001,2022-11-21_24h55.24.343,Info_measure_main_exp,2022.2.2,Win32,60.05645307,,,,,,,,,,,,,,,,,,masks/mask_003.jpg,,,,,,,,,,,,,,,,,,,,,,,,,,,,,,,,,,,,,,,,,,,0,2,2,2,1,,,,,,,,,,,,,,,,,,,,,,,,,,,,,,,,,,,,,,,,,,,,,,
552641,001,2022-11-21_24h55.24.343,Info_measure_main_exp,2022.2.2,Win32,60.05645307,,,,,,,,,,,,,,,,,,masks/mask_005.jpg,,,,,,,,,,,,,,,,,,,,,,,,,,,,,,,,,,,,,,,,,,,0,3,3,4,1,,,,,,,,,,,,,,,,,,,,,,,,,,,,,,,,,,,,,,,,,,,,,,
552641,001,2022-11-21_24h55.24.343,Info_measure_main_exp,2022.2.2,Win32,60.05645307,,,,,,,,,,,,,,,,,,masks/mask_001.jpg,,,,,,,,,,,,,,,,,,,,,,,,,,,,,,,,,,,,,,,,,,,0,4,4,0,1,,,,,,,,,,,,,,,,,,,,,,,,,,,,,,,,,,,,,,,,,,,,,,
552641,001,2022-11-21_24h55.24.343,Info_measure_main_exp,2022.2.2,Win32,60.05645307,,,,,,,,,,,,,,,,,,masks/mask_001.jpg,,,,,,,,,,,,,,,,,,,,,,,,,,,,,,,,,,,,,,,,,,,,,,,,0,0,0,0,1,,,,,,,,,,,,,,,,,,,,,,,,,,,,,,,,,,,,,,,,,
552641,001,2022-11-21_24h55.24.343,Info_measure_main_exp,2022.2.2,Win32,60.05645307,,,,,,,,,,,,,,,,,,masks/mask_005.jpg,,,,,,,,,,,,,,,,,,,,,,,,,,,,,,,,,,,,,,,,,,,,,,,,0,1,1,4,1,,,,,,,,,,,,,,,,,,,,,,,,,,,,,,,,,,,,,,,,,
552641,001,2022-11-21_24h55.24.343,Info_measure_main_exp,2022.2.2,Win32,60.05645307,,,,,,,,,,,,,,,,,,masks/mask_002.jpg,,,,,,,,,,,,,,,,,,,,,,,,,,,,,,,,,,,,,,,,,,,,,,,,0,2,2,1,1,,,,,,,,,,,,,,,,,,,,,,,,,,,,,,,,,,,,,,,,,
552641,001,2022-11-21_24h55.24.343,Info_measure_main_exp,2022.2.2,Win32,60.05645307,,,,,,,,,,,,,,,,,,masks/mask_003.jpg,,,,,,,,,,,,,,,,,,,,,,,,,,,,,,,,,,,,,,,,,,,,,,,,0,3,3,2,1,,,,,,,,,,,,,,,,,,,,,,,,,,,,,,,,,,,,,,,,,
552641,001,2022-11-21_24h55.24.343,Info_measure_main_exp,2022.2.2,Win32,60.05645307,,,,,,,,,,,,,,,,,,masks/mask_004.jpg,,,,,,,,,,,,,,,,,,,,,,,,,,,,,,,,,,,,,,,,,,,,,,,,0,4,4,3,1,,,,,,,,,,,,,,,,,,,,,,,,,,,,,,,,,,,,,,,,,
552641,001,2022-11-21_24h55.24.343,Info_measure_main_exp,2022.2.2,Win32,60.05645307,,,,,,,,,,,,,,,,,,,,,,,,,,,,,,0,0.5501,1,,,,,,,,,,,,0,131,5,5,2082,2082,absent_patch/patch0002082.jpg,absent_patch/patch0002082.jpg,,,,,,,,,,,,,,,,,,,,-0.015740741,0.039814815,1,0,0,response7disk,28,-0.006481481,-0.005555556,1,0,0,center_square,0,27,27,74,1,,,,,,,,,,,,,,,,,,,,,,,
552641,001,2022-11-21_24h55.24.343,Info_measure_main_exp,2022.2.2,Win32,60.05645307,,,,,,,,,,,,,,,,,,masks/mask_002.jpg,,,,,,,,,,,,,,,,,,,,,,,,,,,,,,,,,,,,,,,,,,,0,0,0,1,1,,,,,,,,,,,,,,,,,,,,,,,,,,,,,,,,,,,,,,,,,,,,,,
552641,001,2022-11-21_24h55.24.343,Info_measure_main_exp,2022.2.2,Win32,60.05645307,,,,,,,,,,,,,,,,,,masks/mask_003.jpg,,,,,,,,,,,,,,,,,,,,,,,,,,,,,,,,,,,,,,,,,,,0,1,1,2,1,,,,,,,,,,,,,,,,,,,,,,,,,,,,,,,,,,,,,,,,,,,,,,
552641,001,2022-11-21_24h55.24.343,Info_measure_main_exp,2022.2.2,Win32,60.05645307,,,,,,,,,,,,,,,,,,masks/mask_005.jpg,,,,,,,,,,,,,,,,,,,,,,,,,,,,,,,,,,,,,,,,,,,0,2,2,4,1,,,,,,,,,,,,,,,,,,,,,,,,,,,,,,,,,,,,,,,,,,,,,,
552641,001,2022-11-21_24h55.24.343,Info_measure_main_exp,2022.2.2,Win32,60.05645307,,,,,,,,,,,,,,,,,,masks/mask_001.jpg,,,,,,,,,,,,,,,,,,,,,,,,,,,,,,,,,,,,,,,,,,,0,3,3,0,1,,,,,,,,,,,,,,,,,,,,,,,,,,,,,,,,,,,,,,,,,,,,,,
552641,001,2022-11-21_24h55.24.343,Info_measure_main_exp,2022.2.2,Win32,60.05645307,,,,,,,,,,,,,,,,,,masks/mask_004.jpg,,,,,,,,,,,,,,,,,,,,,,,,,,,,,,,,,,,,,,,,,,,0,4,4,3,1,,,,,,,,,,,,,,,,,,,,,,,,,,,,,,,,,,,,,,,,,,,,,,
552641,001,2022-11-21_24h55.24.343,Info_measure_main_exp,2022.2.2,Win32,60.05645307,,,,,,,,,,,,,,,,,,masks/mask_004.jpg,,,,,,,,,,,,,,,,,,,,,,,,,,,,,,,,,,,,,,,,,,,,,,,,0,0,0,3,1,,,,,,,,,,,,,,,,,,,,,,,,,,,,,,,,,,,,,,,,,
552641,001,2022-11-21_24h55.24.343,Info_measure_main_exp,2022.2.2,Win32,60.05645307,,,,,,,,,,,,,,,,,,masks/mask_002.jpg,,,,,,,,,,,,,,,,,,,,,,,,,,,,,,,,,,,,,,,,,,,,,,,,0,1,1,1,1,,,,,,,,,,,,,,,,,,,,,,,,,,,,,,,,,,,,,,,,,
552641,001,2022-11-21_24h55.24.343,Info_measure_main_exp,2022.2.2,Win32,60.05645307,,,,,,,,,,,,,,,,,,masks/mask_003.jpg,,,,,,,,,,,,,,,,,,,,,,,,,,,,,,,,,,,,,,,,,,,,,,,,0,2,2,2,1,,,,,,,,,,,,,,,,,,,,,,,,,,,,,,,,,,,,,,,,,
552641,001,2022-11-21_24h55.24.343,Info_measure_main_exp,2022.2.2,Win32,60.05645307,,,,,,,,,,,,,,,,,,masks/mask_001.jpg,,,,,,,,,,,,,,,,,,,,,,,,,,,,,,,,,,,,,,,,,,,,,,,,0,3,3,0,1,,,,,,,,,,,,,,,,,,,,,,,,,,,,,,,,,,,,,,,,,
552641,001,2022-11-21_24h55.24.343,Info_measure_main_exp,2022.2.2,Win32,60.05645307,,,,,,,,,,,,,,,,,,masks/mask_005.jpg,,,,,,,,,,,,,,,,,,,,,,,,,,,,,,,,,,,,,,,,,,,,,,,,0,4,4,4,1,,,,,,,,,,,,,,,,,,,,,,,,,,,,,,,,,,,,,,,,,
552641,001,2022-11-21_24h55.24.343,Info_measure_main_exp,2022.2.2,Win32,60.05645307,,,,,,,,,,,,,,,,,,,,,,,,,,,,,,3,0.8668,1,,,,,,,,,,,,1,131,5,5,1,2214,present_patch/cong_131_5_a.jpg,absent_patch/patch0002214.jpg,,,,,,,,,,,,,,,,,,,,-0.017592593,-0.030555556,1,0,0,response5disk,29,-0.002777778,-0.006481481,1,0,0,center_square,0,28,28,4,1,,,,,,,,,,,,,,,,,,,,,,,
552641,001,2022-11-21_24h55.24.343,Info_measure_main_exp,2022.2.2,Win32,60.05645307,,,,,,,,,,,,,,,,,,masks/mask_004.jpg,,,,,,,,,,,,,,,,,,,,,,,,,,,,,,,,,,,,,,,,,,,0,0,0,3,1,,,,,,,,,,,,,,,,,,,,,,,,,,,,,,,,,,,,,,,,,,,,,,
552641,001,2022-11-21_24h55.24.343,Info_measure_main_exp,2022.2.2,Win32,60.05645307,,,,,,,,,,,,,,,,,,masks/mask_002.jpg,,,,,,,,,,,,,,,,,,,,,,,,,,,,,,,,,,,,,,,,,,,0,1,1,1,1,,,,,,,,,,,,,,,,,,,,,,,,,,,,,,,,,,,,,,,,,,,,,,
552641,001,2022-11-21_24h55.24.343,Info_measure_main_exp,2022.2.2,Win32,60.05645307,,,,,,,,,,,,,,,,,,masks/mask_001.jpg,,,,,,,,,,,,,,,,,,,,,,,,,,,,,,,,,,,,,,,,,,,0,2,2,0,1,,,,,,,,,,,,,,,,,,,,,,,,,,,,,,,,,,,,,,,,,,,,,,
552641,001,2022-11-21_24h55.24.343,Info_measure_main_exp,2022.2.2,Win32,60.05645307,,,,,,,,,,,,,,,,,,masks/mask_003.jpg,,,,,,,,,,,,,,,,,,,,,,,,,,,,,,,,,,,,,,,,,,,0,3,3,2,1,,,,,,,,,,,,,,,,,,,,,,,,,,,,,,,,,,,,,,,,,,,,,,
552641,001,2022-11-21_24h55.24.343,Info_measure_main_exp,2022.2.2,Win32,60.05645307,,,,,,,,,,,,,,,,,,masks/mask_005.jpg,,,,,,,,,,,,,,,,,,,,,,,,,,,,,,,,,,,,,,,,,,,0,4,4,4,1,,,,,,,,,,,,,,,,,,,,,,,,,,,,,,,,,,,,,,,,,,,,,,
552641,001,2022-11-21_24h55.24.343,Info_measure_main_exp,2022.2.2,Win32,60.05645307,,,,,,,,,,,,,,,,,,masks/mask_003.jpg,,,,,,,,,,,,,,,,,,,,,,,,,,,,,,,,,,,,,,,,,,,,,,,,0,0,0,2,1,,,,,,,,,,,,,,,,,,,,,,,,,,,,,,,,,,,,,,,,,
552641,001,2022-11-21_24h55.24.343,Info_measure_main_exp,2022.2.2,Win32,60.05645307,,,,,,,,,,,,,,,,,,masks/mask_004.jpg,,,,,,,,,,,,,,,,,,,,,,,,,,,,,,,,,,,,,,,,,,,,,,,,0,1,1,3,1,,,,,,,,,,,,,,,,,,,,,,,,,,,,,,,,,,,,,,,,,
552641,001,2022-11-21_24h55.24.343,Info_measure_main_exp,2022.2.2,Win32,60.05645307,,,,,,,,,,,,,,,,,,masks/mask_001.jpg,,,,,,,,,,,,,,,,,,,,,,,,,,,,,,,,,,,,,,,,,,,,,,,,0,2,2,0,1,,,,,,,,,,,,,,,,,,,,,,,,,,,,,,,,,,,,,,,,,
552641,001,2022-11-21_24h55.24.343,Info_measure_main_exp,2022.2.2,Win32,60.05645307,,,,,,,,,,,,,,,,,,masks/mask_005.jpg,,,,,,,,,,,,,,,,,,,,,,,,,,,,,,,,,,,,,,,,,,,,,,,,0,3,3,4,1,,,,,,,,,,,,,,,,,,,,,,,,,,,,,,,,,,,,,,,,,
552641,001,2022-11-21_24h55.24.343,Info_measure_main_exp,2022.2.2,Win32,60.05645307,,,,,,,,,,,,,,,,,,masks/mask_002.jpg,,,,,,,,,,,,,,,,,,,,,,,,,,,,,,,,,,,,,,,,,,,,,,,,0,4,4,1,1,,,,,,,,,,,,,,,,,,,,,,,,,,,,,,,,,,,,,,,,,
552641,001,2022-11-21_24h55.24.343,Info_measure_main_exp,2022.2.2,Win32,60.05645307,,,,,,,,,,,,,,,,,,,,,,,,,,,,,,0,0.9835,1,,,,,,,,,,,,0,131,5,5,2214,2082,absent_patch/patch0002214.jpg,absent_patch/patch0002082.jpg,,,,,,,,,,,,,,,,,,,,-0.008333333,0.02037037,1,0,0,response7disk,30,0,-0.009259259,1,0,0,center_square,0,29,29,103,1,,,,,,,,,,,,,,,,,,,,,,,
552641,001,2022-11-21_24h55.24.343,Info_measure_main_exp,2022.2.2,Win32,60.05645307,,,,,,,,,,,,,,,,,,masks/mask_001.jpg,,,,,,,,,,,,,,,,,,,,,,,,,,,,,,,,,,,,,,,,,,,0,0,0,0,1,,,,,,,,,,,,,,,,,,,,,,,,,,,,,,,,,,,,,,,,,,,,,,
552641,001,2022-11-21_24h55.24.343,Info_measure_main_exp,2022.2.2,Win32,60.05645307,,,,,,,,,,,,,,,,,,masks/mask_004.jpg,,,,,,,,,,,,,,,,,,,,,,,,,,,,,,,,,,,,,,,,,,,0,1,1,3,1,,,,,,,,,,,,,,,,,,,,,,,,,,,,,,,,,,,,,,,,,,,,,,
552641,001,2022-11-21_24h55.24.343,Info_measure_main_exp,2022.2.2,Win32,60.05645307,,,,,,,,,,,,,,,,,,masks/mask_002.jpg,,,,,,,,,,,,,,,,,,,,,,,,,,,,,,,,,,,,,,,,,,,0,2,2,1,1,,,,,,,,,,,,,,,,,,,,,,,,,,,,,,,,,,,,,,,,,,,,,,
552641,001,2022-11-21_24h55.24.343,Info_measure_main_exp,2022.2.2,Win32,60.05645307,,,,,,,,,,,,,,,,,,masks/mask_005.jpg,,,,,,,,,,,,,,,,,,,,,,,,,,,,,,,,,,,,,,,,,,,0,3,3,4,1,,,,,,,,,,,,,,,,,,,,,,,,,,,,,,,,,,,,,,,,,,,,,,
552641,001,2022-11-21_24h55.24.343,Info_measure_main_exp,2022.2.2,Win32,60.05645307,,,,,,,,,,,,,,,,,,masks/mask_003.jpg,,,,,,,,,,,,,,,,,,,,,,,,,,,,,,,,,,,,,,,,,,,0,4,4,2,1,,,,,,,,,,,,,,,,,,,,,,,,,,,,,,,,,,,,,,,,,,,,,,
552641,001,2022-11-21_24h55.24.343,Info_measure_main_exp,2022.2.2,Win32,60.05645307,,,,,,,,,,,,,,,,,,masks/mask_002.jpg,,,,,,,,,,,,,,,,,,,,,,,,,,,,,,,,,,,,,,,,,,,,,,,,0,0,0,1,1,,,,,,,,,,,,,,,,,,,,,,,,,,,,,,,,,,,,,,,,,
552641,001,2022-11-21_24h55.24.343,Info_measure_main_exp,2022.2.2,Win32,60.05645307,,,,,,,,,,,,,,,,,,masks/mask_005.jpg,,,,,,,,,,,,,,,,,,,,,,,,,,,,,,,,,,,,,,,,,,,,,,,,0,1,1,4,1,,,,,,,,,,,,,,,,,,,,,,,,,,,,,,,,,,,,,,,,,
552641,001,2022-11-21_24h55.24.343,Info_measure_main_exp,2022.2.2,Win32,60.05645307,,,,,,,,,,,,,,,,,,masks/mask_001.jpg,,,,,,,,,,,,,,,,,,,,,,,,,,,,,,,,,,,,,,,,,,,,,,,,0,2,2,0,1,,,,,,,,,,,,,,,,,,,,,,,,,,,,,,,,,,,,,,,,,
552641,001,2022-11-21_24h55.24.343,Info_measure_main_exp,2022.2.2,Win32,60.05645307,,,,,,,,,,,,,,,,,,masks/mask_003.jpg,,,,,,,,,,,,,,,,,,,,,,,,,,,,,,,,,,,,,,,,,,,,,,,,0,3,3,2,1,,,,,,,,,,,,,,,,,,,,,,,,,,,,,,,,,,,,,,,,,
552641,001,2022-11-21_24h55.24.343,Info_measure_main_exp,2022.2.2,Win32,60.05645307,,,,,,,,,,,,,,,,,,masks/mask_004.jpg,,,,,,,,,,,,,,,,,,,,,,,,,,,,,,,,,,,,,,,,,,,,,,,,0,4,4,3,1,,,,,,,,,,,,,,,,,,,,,,,,,,,,,,,,,,,,,,,,,
552641,001,2022-11-21_24h55.24.343,Info_measure_main_exp,2022.2.2,Win32,60.05645307,,,,,,,,,,,,,,,,,,,,,,,,,,,,,,6,0.4835,1,,,,,,,,,,,,0,131,5,5,2082,2250,absent_patch/patch0002082.jpg,absent_patch/patch0002250.jpg,,,,,,,,,,,,,,,,,,,,0.032407407,0.018518519,1,0,0,response1disk,31,0.00462963,-0.006481481,1,0,0,center_square,0,30,30,3,1,,,,,,,,,,,,,,,,,,,,,,,
552641,001,2022-11-21_24h55.24.343,Info_measure_main_exp,2022.2.2,Win32,60.05645307,,,,,,,,,,,,,,,,,,masks/mask_003.jpg,,,,,,,,,,,,,,,,,,,,,,,,,,,,,,,,,,,,,,,,,,,0,0,0,2,1,,,,,,,,,,,,,,,,,,,,,,,,,,,,,,,,,,,,,,,,,,,,,,
552641,001,2022-11-21_24h55.24.343,Info_measure_main_exp,2022.2.2,Win32,60.05645307,,,,,,,,,,,,,,,,,,masks/mask_005.jpg,,,,,,,,,,,,,,,,,,,,,,,,,,,,,,,,,,,,,,,,,,,0,1,1,4,1,,,,,,,,,,,,,,,,,,,,,,,,,,,,,,,,,,,,,,,,,,,,,,
552641,001,2022-11-21_24h55.24.343,Info_measure_main_exp,2022.2.2,Win32,60.05645307,,,,,,,,,,,,,,,,,,masks/mask_001.jpg,,,,,,,,,,,,,,,,,,,,,,,,,,,,,,,,,,,,,,,,,,,0,2,2,0,1,,,,,,,,,,,,,,,,,,,,,,,,,,,,,,,,,,,,,,,,,,,,,,
552641,001,2022-11-21_24h55.24.343,Info_measure_main_exp,2022.2.2,Win32,60.05645307,,,,,,,,,,,,,,,,,,masks/mask_002.jpg,,,,,,,,,,,,,,,,,,,,,,,,,,,,,,,,,,,,,,,,,,,0,3,3,1,1,,,,,,,,,,,,,,,,,,,,,,,,,,,,,,,,,,,,,,,,,,,,,,
552641,001,2022-11-21_24h55.24.343,Info_measure_main_exp,2022.2.2,Win32,60.05645307,,,,,,,,,,,,,,,,,,masks/mask_004.jpg,,,,,,,,,,,,,,,,,,,,,,,,,,,,,,,,,,,,,,,,,,,0,4,4,3,1,,,,,,,,,,,,,,,,,,,,,,,,,,,,,,,,,,,,,,,,,,,,,,
552641,001,2022-11-21_24h55.24.343,Info_measure_main_exp,2022.2.2,Win32,60.05645307,,,,,,,,,,,,,,,,,,masks/mask_002.jpg,,,,,,,,,,,,,,,,,,,,,,,,,,,,,,,,,,,,,,,,,,,,,,,,0,0,0,1,1,,,,,,,,,,,,,,,,,,,,,,,,,,,,,,,,,,,,,,,,,
552641,001,2022-11-21_24h55.24.343,Info_measure_main_exp,2022.2.2,Win32,60.05645307,,,,,,,,,,,,,,,,,,masks/mask_005.jpg,,,,,,,,,,,,,,,,,,,,,,,,,,,,,,,,,,,,,,,,,,,,,,,,0,1,1,4,1,,,,,,,,,,,,,,,,,,,,,,,,,,,,,,,,,,,,,,,,,
552641,001,2022-11-21_24h55.24.343,Info_measure_main_exp,2022.2.2,Win32,60.05645307,,,,,,,,,,,,,,,,,,masks/mask_004.jpg,,,,,,,,,,,,,,,,,,,,,,,,,,,,,,,,,,,,,,,,,,,,,,,,0,2,2,3,1,,,,,,,,,,,,,,,,,,,,,,,,,,,,,,,,,,,,,,,,,
552641,001,2022-11-21_24h55.24.343,Info_measure_main_exp,2022.2.2,Win32,60.05645307,,,,,,,,,,,,,,,,,,masks/mask_003.jpg,,,,,,,,,,,,,,,,,,,,,,,,,,,,,,,,,,,,,,,,,,,,,,,,0,3,3,2,1,,,,,,,,,,,,,,,,,,,,,,,,,,,,,,,,,,,,,,,,,
552641,001,2022-11-21_24h55.24.343,Info_measure_main_exp,2022.2.2,Win32,60.05645307,,,,,,,,,,,,,,,,,,masks/mask_001.jpg,,,,,,,,,,,,,,,,,,,,,,,,,,,,,,,,,,,,,,,,,,,,,,,,0,4,4,0,1,,,,,,,,,,,,,,,,,,,,,,,,,,,,,,,,,,,,,,,,,
552641,001,2022-11-21_24h55.24.343,Info_measure_main_exp,2022.2.2,Win32,60.05645307,,,,,,,,,,,,,,,,,,,,,,,,,,,,,,7,1.4836,1,,,,,,,,,,,,0,131,5,5,2190,2214,absent_patch/patch0002190.jpg,absent_patch/patch0002214.jpg,,,,,,,,,,,,,,,,,,,,0.009259259,0.022222222,1,0,0,response1disk,32,0.00462963,0.003703704,1,0,0,center_square,0,31,31,35,1,,,,,,,,,,,,,,,,,,,,,,,
552641,001,2022-11-21_24h55.24.343,Info_measure_main_exp,2022.2.2,Win32,60.05645307,,,,,,,,,,,,,,,,,,masks/mask_001.jpg,,,,,,,,,,,,,,,,,,,,,,,,,,,,,,,,,,,,,,,,,,,0,0,0,0,1,,,,,,,,,,,,,,,,,,,,,,,,,,,,,,,,,,,,,,,,,,,,,,
552641,001,2022-11-21_24h55.24.343,Info_measure_main_exp,2022.2.2,Win32,60.05645307,,,,,,,,,,,,,,,,,,masks/mask_004.jpg,,,,,,,,,,,,,,,,,,,,,,,,,,,,,,,,,,,,,,,,,,,0,1,1,3,1,,,,,,,,,,,,,,,,,,,,,,,,,,,,,,,,,,,,,,,,,,,,,,
552641,001,2022-11-21_24h55.24.343,Info_measure_main_exp,2022.2.2,Win32,60.05645307,,,,,,,,,,,,,,,,,,masks/mask_003.jpg,,,,,,,,,,,,,,,,,,,,,,,,,,,,,,,,,,,,,,,,,,,0,2,2,2,1,,,,,,,,,,,,,,,,,,,,,,,,,,,,,,,,,,,,,,,,,,,,,,
552641,001,2022-11-21_24h55.24.343,Info_measure_main_exp,2022.2.2,Win32,60.05645307,,,,,,,,,,,,,,,,,,masks/mask_002.jpg,,,,,,,,,,,,,,,,,,,,,,,,,,,,,,,,,,,,,,,,,,,0,3,3,1,1,,,,,,,,,,,,,,,,,,,,,,,,,,,,,,,,,,,,,,,,,,,,,,
552641,001,2022-11-21_24h55.24.343,Info_measure_main_exp,2022.2.2,Win32,60.05645307,,,,,,,,,,,,,,,,,,masks/mask_005.jpg,,,,,,,,,,,,,,,,,,,,,,,,,,,,,,,,,,,,,,,,,,,0,4,4,4,1,,,,,,,,,,,,,,,,,,,,,,,,,,,,,,,,,,,,,,,,,,,,,,
552641,001,2022-11-21_24h55.24.343,Info_measure_main_exp,2022.2.2,Win32,60.05645307,,,,,,,,,,,,,,,,,,masks/mask_001.jpg,,,,,,,,,,,,,,,,,,,,,,,,,,,,,,,,,,,,,,,,,,,,,,,,0,0,0,0,1,,,,,,,,,,,,,,,,,,,,,,,,,,,,,,,,,,,,,,,,,
552641,001,2022-11-21_24h55.24.343,Info_measure_main_exp,2022.2.2,Win32,60.05645307,,,,,,,,,,,,,,,,,,masks/mask_002.jpg,,,,,,,,,,,,,,,,,,,,,,,,,,,,,,,,,,,,,,,,,,,,,,,,0,1,1,1,1,,,,,,,,,,,,,,,,,,,,,,,,,,,,,,,,,,,,,,,,,
552641,001,2022-11-21_24h55.24.343,Info_measure_main_exp,2022.2.2,Win32,60.05645307,,,,,,,,,,,,,,,,,,masks/mask_004.jpg,,,,,,,,,,,,,,,,,,,,,,,,,,,,,,,,,,,,,,,,,,,,,,,,0,2,2,3,1,,,,,,,,,,,,,,,,,,,,,,,,,,,,,,,,,,,,,,,,,
552641,001,2022-11-21_24h55.24.343,Info_measure_main_exp,2022.2.2,Win32,60.05645307,,,,,,,,,,,,,,,,,,masks/mask_005.jpg,,,,,,,,,,,,,,,,,,,,,,,,,,,,,,,,,,,,,,,,,,,,,,,,0,3,3,4,1,,,,,,,,,,,,,,,,,,,,,,,,,,,,,,,,,,,,,,,,,
552641,001,2022-11-21_24h55.24.343,Info_measure_main_exp,2022.2.2,Win32,60.05645307,,,,,,,,,,,,,,,,,,masks/mask_003.jpg,,,,,,,,,,,,,,,,,,,,,,,,,,,,,,,,,,,,,,,,,,,,,,,,0,4,4,2,1,,,,,,,,,,,,,,,,,,,,,,,,,,,,,,,,,,,,,,,,,
552641,001,2022-11-21_24h55.24.343,Info_measure_main_exp,2022.2.2,Win32,60.05645307,,,,,,,,,,,,,,,,,,,,,,,,,,,,,,2,0.7534,1,,,,,,,,,,,,0,131,5,5,2274,2166,absent_patch/patch0002274.jpg,absent_patch/patch0002166.jpg,,,,,,,,,,,,,,,,,,,,-0.046296296,-0.010185185,1,0,0,response5disk,33,-0.002777778,0.005555556,1,0,0,center_square,0,32,32,78,1,,,,,,,,,,,,,,,,,,,,,,,
552641,001,2022-11-21_24h55.24.343,Info_measure_main_exp,2022.2.2,Win32,60.05645307,,,,,,,,,,,,,,,,,,masks/mask_003.jpg,,,,,,,,,,,,,,,,,,,,,,,,,,,,,,,,,,,,,,,,,,,0,0,0,2,1,,,,,,,,,,,,,,,,,,,,,,,,,,,,,,,,,,,,,,,,,,,,,,
552641,001,2022-11-21_24h55.24.343,Info_measure_main_exp,2022.2.2,Win32,60.05645307,,,,,,,,,,,,,,,,,,masks/mask_005.jpg,,,,,,,,,,,,,,,,,,,,,,,,,,,,,,,,,,,,,,,,,,,0,1,1,4,1,,,,,,,,,,,,,,,,,,,,,,,,,,,,,,,,,,,,,,,,,,,,,,
552641,001,2022-11-21_24h55.24.343,Info_measure_main_exp,2022.2.2,Win32,60.05645307,,,,,,,,,,,,,,,,,,masks/mask_004.jpg,,,,,,,,,,,,,,,,,,,,,,,,,,,,,,,,,,,,,,,,,,,0,2,2,3,1,,,,,,,,,,,,,,,,,,,,,,,,,,,,,,,,,,,,,,,,,,,,,,
552641,001,2022-11-21_24h55.24.343,Info_measure_main_exp,2022.2.2,Win32,60.05645307,,,,,,,,,,,,,,,,,,masks/mask_001.jpg,,,,,,,,,,,,,,,,,,,,,,,,,,,,,,,,,,,,,,,,,,,0,3,3,0,1,,,,,,,,,,,,,,,,,,,,,,,,,,,,,,,,,,,,,,,,,,,,,,
552641,001,2022-11-21_24h55.24.343,Info_measure_main_exp,2022.2.2,Win32,60.05645307,,,,,,,,,,,,,,,,,,masks/mask_002.jpg,,,,,,,,,,,,,,,,,,,,,,,,,,,,,,,,,,,,,,,,,,,0,4,4,1,1,,,,,,,,,,,,,,,,,,,,,,,,,,,,,,,,,,,,,,,,,,,,,,
552641,001,2022-11-21_24h55.24.343,Info_measure_main_exp,2022.2.2,Win32,60.05645307,,,,,,,,,,,,,,,,,,masks/mask_005.jpg,,,,,,,,,,,,,,,,,,,,,,,,,,,,,,,,,,,,,,,,,,,,,,,,0,0,0,4,1,,,,,,,,,,,,,,,,,,,,,,,,,,,,,,,,,,,,,,,,,
552641,001,2022-11-21_24h55.24.343,Info_measure_main_exp,2022.2.2,Win32,60.05645307,,,,,,,,,,,,,,,,,,masks/mask_001.jpg,,,,,,,,,,,,,,,,,,,,,,,,,,,,,,,,,,,,,,,,,,,,,,,,0,1,1,0,1,,,,,,,,,,,,,,,,,,,,,,,,,,,,,,,,,,,,,,,,,
552641,001,2022-11-21_24h55.24.343,Info_measure_main_exp,2022.2.2,Win32,60.05645307,,,,,,,,,,,,,,,,,,masks/mask_002.jpg,,,,,,,,,,,,,,,,,,,,,,,,,,,,,,,,,,,,,,,,,,,,,,,,0,2,2,1,1,,,,,,,,,,,,,,,,,,,,,,,,,,,,,,,,,,,,,,,,,
552641,001,2022-11-21_24h55.24.343,Info_measure_main_exp,2022.2.2,Win32,60.05645307,,,,,,,,,,,,,,,,,,masks/mask_004.jpg,,,,,,,,,,,,,,,,,,,,,,,,,,,,,,,,,,,,,,,,,,,,,,,,0,3,3,3,1,,,,,,,,,,,,,,,,,,,,,,,,,,,,,,,,,,,,,,,,,
552641,001,2022-11-21_24h55.24.343,Info_measure_main_exp,2022.2.2,Win32,60.05645307,,,,,,,,,,,,,,,,,,masks/mask_003.jpg,,,,,,,,,,,,,,,,,,,,,,,,,,,,,,,,,,,,,,,,,,,,,,,,0,4,4,2,1,,,,,,,,,,,,,,,,,,,,,,,,,,,,,,,,,,,,,,,,,
552641,001,2022-11-21_24h55.24.343,Info_measure_main_exp,2022.2.2,Win32,60.05645307,,,,,,,,,,,,,,,,,,,,,,,,,,,,,,2,0.7835,1,,,,,,,,,,,,0,131,5,5,2238,2166,absent_patch/patch0002238.jpg,absent_patch/patch0002166.jpg,,,,,,,,,,,,,,,,,,,,-0.025925926,-0.012037037,1,0,0,response5disk,34,-0.015740741,0.003703704,1,0,0,center_square,0,33,33,118,1,,,,,,,,,,,,,,,,,,,,,,,
552641,001,2022-11-21_24h55.24.343,Info_measure_main_exp,2022.2.2,Win32,60.05645307,,,,,,,,,,,,,,,,,,masks/mask_003.jpg,,,,,,,,,,,,,,,,,,,,,,,,,,,,,,,,,,,,,,,,,,,0,0,0,2,1,,,,,,,,,,,,,,,,,,,,,,,,,,,,,,,,,,,,,,,,,,,,,,
552641,001,2022-11-21_24h55.24.343,Info_measure_main_exp,2022.2.2,Win32,60.05645307,,,,,,,,,,,,,,,,,,masks/mask_004.jpg,,,,,,,,,,,,,,,,,,,,,,,,,,,,,,,,,,,,,,,,,,,0,1,1,3,1,,,,,,,,,,,,,,,,,,,,,,,,,,,,,,,,,,,,,,,,,,,,,,
552641,001,2022-11-21_24h55.24.343,Info_measure_main_exp,2022.2.2,Win32,60.05645307,,,,,,,,,,,,,,,,,,masks/mask_002.jpg,,,,,,,,,,,,,,,,,,,,,,,,,,,,,,,,,,,,,,,,,,,0,2,2,1,1,,,,,,,,,,,,,,,,,,,,,,,,,,,,,,,,,,,,,,,,,,,,,,
552641,001,2022-11-21_24h55.24.343,Info_measure_main_exp,2022.2.2,Win32,60.05645307,,,,,,,,,,,,,,,,,,masks/mask_001.jpg,,,,,,,,,,,,,,,,,,,,,,,,,,,,,,,,,,,,,,,,,,,0,3,3,0,1,,,,,,,,,,,,,,,,,,,,,,,,,,,,,,,,,,,,,,,,,,,,,,
552641,001,2022-11-21_24h55.24.343,Info_measure_main_exp,2022.2.2,Win32,60.05645307,,,,,,,,,,,,,,,,,,masks/mask_005.jpg,,,,,,,,,,,,,,,,,,,,,,,,,,,,,,,,,,,,,,,,,,,0,4,4,4,1,,,,,,,,,,,,,,,,,,,,,,,,,,,,,,,,,,,,,,,,,,,,,,
552641,001,2022-11-21_24h55.24.343,Info_measure_main_exp,2022.2.2,Win32,60.05645307,,,,,,,,,,,,,,,,,,masks/mask_002.jpg,,,,,,,,,,,,,,,,,,,,,,,,,,,,,,,,,,,,,,,,,,,,,,,,0,0,0,1,1,,,,,,,,,,,,,,,,,,,,,,,,,,,,,,,,,,,,,,,,,
552641,001,2022-11-21_24h55.24.343,Info_measure_main_exp,2022.2.2,Win32,60.05645307,,,,,,,,,,,,,,,,,,masks/mask_005.jpg,,,,,,,,,,,,,,,,,,,,,,,,,,,,,,,,,,,,,,,,,,,,,,,,0,1,1,4,1,,,,,,,,,,,,,,,,,,,,,,,,,,,,,,,,,,,,,,,,,
552641,001,2022-11-21_24h55.24.343,Info_measure_main_exp,2022.2.2,Win32,60.05645307,,,,,,,,,,,,,,,,,,masks/mask_001.jpg,,,,,,,,,,,,,,,,,,,,,,,,,,,,,,,,,,,,,,,,,,,,,,,,0,2,2,0,1,,,,,,,,,,,,,,,,,,,,,,,,,,,,,,,,,,,,,,,,,
552641,001,2022-11-21_24h55.24.343,Info_measure_main_exp,2022.2.2,Win32,60.05645307,,,,,,,,,,,,,,,,,,masks/mask_004.jpg,,,,,,,,,,,,,,,,,,,,,,,,,,,,,,,,,,,,,,,,,,,,,,,,0,3,3,3,1,,,,,,,,,,,,,,,,,,,,,,,,,,,,,,,,,,,,,,,,,
