participant,session,date,expName,psychopyVersion,OS,frameRate,space_press_continue.keys,space_press_continue.rt,space_press_continue_2.keys,space_press_continue_2.rt,space_press_continue_3.keys,space_press_continue_3.rt,space_press_continue_4.keys,space_press_continue_4.rt,space_press_continue_5.keys,space_press_continue_5.rt,space_press_continue_6.keys,space_press_continue_6.rt,prac_mask_loop_1.thisRepN,prac_mask_loop_1.thisTrialN,prac_mask_loop_1.thisN,prac_mask_loop_1.thisIndex,prac_mask_loop_1.ran,mask_name,prac_mask_loop_2.thisRepN,prac_mask_loop_2.thisTrialN,prac_mask_loop_2.thisN,prac_mask_loop_2.thisIndex,prac_mask_loop_2.ran,mouse_2.x,mouse_2.y,mouse_2.leftButton,mouse_2.midButton,mouse_2.rightButton,mouse_2.clicked_name,similarity,response_time,Pass,mouse_12.x,mouse_12.y,mouse_12.leftButton,mouse_12.midButton,mouse_12.rightButton,mouse_12.clicked_name,prac_loop.thisRepN,prac_loop.thisTrialN,prac_loop.thisN,prac_loop.thisIndex,prac_loop.ran,Pair_type,Image_num,Patch_1_loc,Patch_2_loc,Patch_1_info,Patch_2_info,Patch_1_name,Patch_2_name,mouse_1.x,mouse_1.y,mouse_1.leftButton,mouse_1.midButton,mouse_1.rightButton,mouse_1.time,mouse_1.clicked_name,space_press_continue_7.keys,space_press_continue_7.rt,mask_loop.thisRepN,mask_loop.thisTrialN,mask_loop.thisN,mask_loop.thisIndex,mask_loop.ran,mask_loop_2.thisRepN,mask_loop_2.thisTrialN,mask_loop_2.thisN,mask_loop_2.thisIndex,mask_loop_2.ran,mouse.x,mouse.y,mouse.leftButton,mouse.midButton,mouse.rightButton,mouse.clicked_name,trialNumber,mouse_11.x,mouse_11.y,mouse_11.leftButton,mouse_11.midButton,mouse_11.rightButton,mouse_11.clicked_name,first_pass_loop.thisRepN,first_pass_loop.thisTrialN,first_pass_loop.thisN,first_pass_loop.thisIndex,first_pass_loop.ran,mask_loop_3.thisRepN,mask_loop_3.thisTrialN,mask_loop_3.thisN,mask_loop_3.thisIndex,mask_loop_3.ran,mask_loop_4.thisRepN,mask_loop_4.thisTrialN,mask_loop_4.thisN,mask_loop_4.thisIndex,mask_loop_4.ran,mouse_3.x,mouse_3.y,mouse_3.leftButton,mouse_3.midButton,mouse_3.rightButton,mouse_3.clicked_name,double_pass_loop.thisRepN,double_pass_loop.thisTrialN,double_pass_loop.thisN,double_pass_loop.thisIndex,double_pass_loop.ran,space_exit.keys,space_exit.rt
568321,001,2022-11-20_23h59.43.936,Info_measure_main_exp,2022.2.2,Win32,60.07449237,,,,,,,,,,,,,,,,,,,,,,,,,,,,,,,,,,,,,,,,,,,,,,,,,,,,,,,,,,,,,,,,,,,,,,,,,,,,,,,,,,,,,,,,,,,,,,,,,,,,,,,,,,,,,,,
568321,001,2022-11-20_23h59.43.936,Info_measure_main_exp,2022.2.2,Win32,60.07449237,,,,,,,,,,,,,,,,,,,,,,,,,,,,,,,,,,,,,,,,,,,,,,,,,,,,,,,,,,,,,,,,,,,,,,,,,,,,,,,,,,,,,,,,,,,,,,,,,,,,,,,,,,,,,,,
568321,001,2022-11-20_23h59.43.936,Info_measure_main_exp,2022.2.2,Win32,60.07449237,space,7.3642,,,,,,,,,,,,,,,,,,,,,,,,,,,,,,,,,,,,,,,,,,,,,,,,,,,,,,,,,,,,,,,,,,,,,,,,,,,,,,,,,,,,,,,,,,,,,,,,,,,,,,,,,,,,,
568321,001,2022-11-20_23h59.43.936,Info_measure_main_exp,2022.2.2,Win32,60.07449237,,,space,13.9062,,,,,,,,,,,,,,,,,,,,,,,,,,,,,,,,,,,,,,,,,,,,,,,,,,,,,,,,,,,,,,,,,,,,,,,,,,,,,,,,,,,,,,,,,,,,,,,,,,,,,,,,,,,
568321,001,2022-11-20_23h59.43.936,Info_measure_main_exp,2022.2.2,Win32,60.07449237,,,,,space,8.3707,,,,,,,,,,,,,,,,,,,,,,,,,,,,,,,,,,,,,,,,,,,,,,,,,,,,,,,,,,,,,,,,,,,,,,,,,,,,,,,,,,,,,,,,,,,,,,,,,,,,,,,,,
568321,001,2022-11-20_23h59.43.936,Info_measure_main_exp,2022.2.2,Win32,60.07449237,,,,,,,space,45.9062,,,,,,,,,,,,,,,,,,,,,,,,,,,,,,,,,,,,,,,,,,,,,,,,,,,,,,,,,,,,,,,,,,,,,,,,,,,,,,,,,,,,,,,,,,,,,,,,,,,,,,,
568321,001,2022-11-20_23h59.43.936,Info_measure_main_exp,2022.2.2,Win32,60.07449237,,,,,,,,,space,6.9746,,,,,,,,,,,,,,,,,,,,,,,,,,,,,,,,,,,,,,,,,,,,,,,,,,,,,,,,,,,,,,,,,,,,,,,,,,,,,,,,,,,,,,,,,,,,,,,,,,,,,
568321,001,2022-11-20_23h59.43.936,Info_measure_main_exp,2022.2.2,Win32,60.07449237,,,,,,,,,,,space,3.826,,,,,,,,,,,,,,,,,,,,,,,,,,,,,,,,,,,,,,,,,,,,,,,,,,,,,,,,,,,,,,,,,,,,,,,,,,,,,,,,,,,,,,,,,,,,,,,,,,,
568321,001,2022-11-20_23h59.43.936,Info_measure_main_exp,2022.2.2,Win32,60.07449237,,,,,,,,,,,,,0,0,0,1,1,masks/mask_002.jpg,,,,,,,,,,,,,,,,,,,,,,,,,,,,,,,,,,,,,,,,,,,,,,,,,,,,,,,,,,,,,,,,,,,,,,,,,,,,,,,,,,,,,,,,,,,,,
568321,001,2022-11-20_23h59.43.936,Info_measure_main_exp,2022.2.2,Win32,60.07449237,,,,,,,,,,,,,0,1,1,0,1,masks/mask_001.jpg,,,,,,,,,,,,,,,,,,,,,,,,,,,,,,,,,,,,,,,,,,,,,,,,,,,,,,,,,,,,,,,,,,,,,,,,,,,,,,,,,,,,,,,,,,,,,
568321,001,2022-11-20_23h59.43.936,Info_measure_main_exp,2022.2.2,Win32,60.07449237,,,,,,,,,,,,,0,2,2,2,1,masks/mask_003.jpg,,,,,,,,,,,,,,,,,,,,,,,,,,,,,,,,,,,,,,,,,,,,,,,,,,,,,,,,,,,,,,,,,,,,,,,,,,,,,,,,,,,,,,,,,,,,,
568321,001,2022-11-20_23h59.43.936,Info_measure_main_exp,2022.2.2,Win32,60.07449237,,,,,,,,,,,,,0,3,3,3,1,masks/mask_004.jpg,,,,,,,,,,,,,,,,,,,,,,,,,,,,,,,,,,,,,,,,,,,,,,,,,,,,,,,,,,,,,,,,,,,,,,,,,,,,,,,,,,,,,,,,,,,,,
568321,001,2022-11-20_23h59.43.936,Info_measure_main_exp,2022.2.2,Win32,60.07449237,,,,,,,,,,,,,0,4,4,4,1,masks/mask_005.jpg,,,,,,,,,,,,,,,,,,,,,,,,,,,,,,,,,,,,,,,,,,,,,,,,,,,,,,,,,,,,,,,,,,,,,,,,,,,,,,,,,,,,,,,,,,,,,
568321,001,2022-11-20_23h59.43.936,Info_measure_main_exp,2022.2.2,Win32,60.07449237,,,,,,,,,,,,,,,,,,masks/mask_004.jpg,0,0,0,3,1,,,,,,,,,,,,,,,,,,,,,,,,,,,,,,,,,,,,,,,,,,,,,,,,,,,,,,,,,,,,,,,,,,,,,,,,,,,,,,,,,,,,,,,,
568321,001,2022-11-20_23h59.43.936,Info_measure_main_exp,2022.2.2,Win32,60.07449237,,,,,,,,,,,,,,,,,,masks/mask_005.jpg,0,1,1,4,1,,,,,,,,,,,,,,,,,,,,,,,,,,,,,,,,,,,,,,,,,,,,,,,,,,,,,,,,,,,,,,,,,,,,,,,,,,,,,,,,,,,,,,,,
568321,001,2022-11-20_23h59.43.936,Info_measure_main_exp,2022.2.2,Win32,60.07449237,,,,,,,,,,,,,,,,,,masks/mask_002.jpg,0,2,2,1,1,,,,,,,,,,,,,,,,,,,,,,,,,,,,,,,,,,,,,,,,,,,,,,,,,,,,,,,,,,,,,,,,,,,,,,,,,,,,,,,,,,,,,,,,
568321,001,2022-11-20_23h59.43.936,Info_measure_main_exp,2022.2.2,Win32,60.07449237,,,,,,,,,,,,,,,,,,masks/mask_003.jpg,0,3,3,2,1,,,,,,,,,,,,,,,,,,,,,,,,,,,,,,,,,,,,,,,,,,,,,,,,,,,,,,,,,,,,,,,,,,,,,,,,,,,,,,,,,,,,,,,,
568321,001,2022-11-20_23h59.43.936,Info_measure_main_exp,2022.2.2,Win32,60.07449237,,,,,,,,,,,,,,,,,,masks/mask_001.jpg,0,4,4,0,1,,,,,,,,,,,,,,,,,,,,,,,,,,,,,,,,,,,,,,,,,,,,,,,,,,,,,,,,,,,,,,,,,,,,,,,,,,,,,,,,,,,,,,,,
568321,001,2022-11-20_23h59.43.936,Info_measure_main_exp,2022.2.2,Win32,60.07449237,,,,,,,,,,,,,,,,,,,,,,,,0.017592607,-0.09629631,1,0,0,response3disk,4,97.5854,1,-0.006481453,-0.000925947,1,0,0,center_square,0,0,0,0,1,0,131,5,5,2370,2406,prac_patch/patch0002370.jpg,prac_patch/patch0002406.jpg,,,,,,,,,,,,,,,,,,,,,,,,,,,,,,,,,,,,,,,,,,,,,,,,,,,,,,,,,,,,
568321,001,2022-11-20_23h59.43.936,Info_measure_main_exp,2022.2.2,Win32,60.07449237,,,,,,,,,,,,,0,0,0,4,1,masks/mask_005.jpg,,,,,,,,,,,,,,,,,,,,,,,,,,,,,,,,,,,,,,,,,,,,,,,,,,,,,,,,,,,,,,,,,,,,,,,,,,,,,,,,,,,,,,,,,,,,,
568321,001,2022-11-20_23h59.43.936,Info_measure_main_exp,2022.2.2,Win32,60.07449237,,,,,,,,,,,,,0,1,1,3,1,masks/mask_004.jpg,,,,,,,,,,,,,,,,,,,,,,,,,,,,,,,,,,,,,,,,,,,,,,,,,,,,,,,,,,,,,,,,,,,,,,,,,,,,,,,,,,,,,,,,,,,,,
568321,001,2022-11-20_23h59.43.936,Info_measure_main_exp,2022.2.2,Win32,60.07449237,,,,,,,,,,,,,0,2,2,0,1,masks/mask_001.jpg,,,,,,,,,,,,,,,,,,,,,,,,,,,,,,,,,,,,,,,,,,,,,,,,,,,,,,,,,,,,,,,,,,,,,,,,,,,,,,,,,,,,,,,,,,,,,
568321,001,2022-11-20_23h59.43.936,Info_measure_main_exp,2022.2.2,Win32,60.07449237,,,,,,,,,,,,,0,3,3,1,1,masks/mask_002.jpg,,,,,,,,,,,,,,,,,,,,,,,,,,,,,,,,,,,,,,,,,,,,,,,,,,,,,,,,,,,,,,,,,,,,,,,,,,,,,,,,,,,,,,,,,,,,,
568321,001,2022-11-20_23h59.43.936,Info_measure_main_exp,2022.2.2,Win32,60.07449237,,,,,,,,,,,,,0,4,4,2,1,masks/mask_003.jpg,,,,,,,,,,,,,,,,,,,,,,,,,,,,,,,,,,,,,,,,,,,,,,,,,,,,,,,,,,,,,,,,,,,,,,,,,,,,,,,,,,,,,,,,,,,,,
568321,001,2022-11-20_23h59.43.936,Info_measure_main_exp,2022.2.2,Win32,60.07449237,,,,,,,,,,,,,,,,,,masks/mask_004.jpg,0,0,0,3,1,,,,,,,,,,,,,,,,,,,,,,,,,,,,,,,,,,,,,,,,,,,,,,,,,,,,,,,,,,,,,,,,,,,,,,,,,,,,,,,,,,,,,,,,
568321,001,2022-11-20_23h59.43.936,Info_measure_main_exp,2022.2.2,Win32,60.07449237,,,,,,,,,,,,,,,,,,masks/mask_005.jpg,0,1,1,4,1,,,,,,,,,,,,,,,,,,,,,,,,,,,,,,,,,,,,,,,,,,,,,,,,,,,,,,,,,,,,,,,,,,,,,,,,,,,,,,,,,,,,,,,,
568321,001,2022-11-20_23h59.43.936,Info_measure_main_exp,2022.2.2,Win32,60.07449237,,,,,,,,,,,,,,,,,,masks/mask_002.jpg,0,2,2,1,1,,,,,,,,,,,,,,,,,,,,,,,,,,,,,,,,,,,,,,,,,,,,,,,,,,,,,,,,,,,,,,,,,,,,,,,,,,,,,,,,,,,,,,,,
568321,001,2022-11-20_23h59.43.936,Info_measure_main_exp,2022.2.2,Win32,60.07449237,,,,,,,,,,,,,,,,,,masks/mask_001.jpg,0,3,3,0,1,,,,,,,,,,,,,,,,,,,,,,,,,,,,,,,,,,,,,,,,,,,,,,,,,,,,,,,,,,,,,,,,,,,,,,,,,,,,,,,,,,,,,,,,
568321,001,2022-11-20_23h59.43.936,Info_measure_main_exp,2022.2.2,Win32,60.07449237,,,,,,,,,,,,,,,,,,masks/mask_003.jpg,0,4,4,2,1,,,,,,,,,,,,,,,,,,,,,,,,,,,,,,,,,,,,,,,,,,,,,,,,,,,,,,,,,,,,,,,,,,,,,,,,,,,,,,,,,,,,,,,,
568321,001,2022-11-20_23h59.43.936,Info_measure_main_exp,2022.2.2,Win32,60.07449237,,,,,,,,,,,,,,,,,,,,,,,,0.089814857,-0.061111132,1,0,0,response3disk,5,108.4109,1,0.007407436,0.000925912,1,0,0,center_square,0,1,1,1,1,0,131,5,5,2514,2490,prac_patch/patch0002514.jpg,prac_patch/patch0002490.jpg,,,,,,,,,,,,,,,,,,,,,,,,,,,,,,,,,,,,,,,,,,,,,,,,,,,,,,,,,,,,
568321,001,2022-11-20_23h59.43.936,Info_measure_main_exp,2022.2.2,Win32,60.07449237,,,,,,,,,,,,,0,0,0,3,1,masks/mask_004.jpg,,,,,,,,,,,,,,,,,,,,,,,,,,,,,,,,,,,,,,,,,,,,,,,,,,,,,,,,,,,,,,,,,,,,,,,,,,,,,,,,,,,,,,,,,,,,,
568321,001,2022-11-20_23h59.43.936,Info_measure_main_exp,2022.2.2,Win32,60.07449237,,,,,,,,,,,,,0,1,1,4,1,masks/mask_005.jpg,,,,,,,,,,,,,,,,,,,,,,,,,,,,,,,,,,,,,,,,,,,,,,,,,,,,,,,,,,,,,,,,,,,,,,,,,,,,,,,,,,,,,,,,,,,,,
568321,001,2022-11-20_23h59.43.936,Info_measure_main_exp,2022.2.2,Win32,60.07449237,,,,,,,,,,,,,0,2,2,1,1,masks/mask_002.jpg,,,,,,,,,,,,,,,,,,,,,,,,,,,,,,,,,,,,,,,,,,,,,,,,,,,,,,,,,,,,,,,,,,,,,,,,,,,,,,,,,,,,,,,,,,,,,
568321,001,2022-11-20_23h59.43.936,Info_measure_main_exp,2022.2.2,Win32,60.07449237,,,,,,,,,,,,,0,3,3,0,1,masks/mask_001.jpg,,,,,,,,,,,,,,,,,,,,,,,,,,,,,,,,,,,,,,,,,,,,,,,,,,,,,,,,,,,,,,,,,,,,,,,,,,,,,,,,,,,,,,,,,,,,,
568321,001,2022-11-20_23h59.43.936,Info_measure_main_exp,2022.2.2,Win32,60.07449237,,,,,,,,,,,,,0,4,4,2,1,masks/mask_003.jpg,,,,,,,,,,,,,,,,,,,,,,,,,,,,,,,,,,,,,,,,,,,,,,,,,,,,,,,,,,,,,,,,,,,,,,,,,,,,,,,,,,,,,,,,,,,,,
568321,001,2022-11-20_23h59.43.936,Info_measure_main_exp,2022.2.2,Win32,60.07449237,,,,,,,,,,,,,,,,,,masks/mask_002.jpg,0,0,0,1,1,,,,,,,,,,,,,,,,,,,,,,,,,,,,,,,,,,,,,,,,,,,,,,,,,,,,,,,,,,,,,,,,,,,,,,,,,,,,,,,,,,,,,,,,
568321,001,2022-11-20_23h59.43.936,Info_measure_main_exp,2022.2.2,Win32,60.07449237,,,,,,,,,,,,,,,,,,masks/mask_003.jpg,0,1,1,2,1,,,,,,,,,,,,,,,,,,,,,,,,,,,,,,,,,,,,,,,,,,,,,,,,,,,,,,,,,,,,,,,,,,,,,,,,,,,,,,,,,,,,,,,,
568321,001,2022-11-20_23h59.43.936,Info_measure_main_exp,2022.2.2,Win32,60.07449237,,,,,,,,,,,,,,,,,,masks/mask_004.jpg,0,2,2,3,1,,,,,,,,,,,,,,,,,,,,,,,,,,,,,,,,,,,,,,,,,,,,,,,,,,,,,,,,,,,,,,,,,,,,,,,,,,,,,,,,,,,,,,,,
568321,001,2022-11-20_23h59.43.936,Info_measure_main_exp,2022.2.2,Win32,60.07449237,,,,,,,,,,,,,,,,,,masks/mask_005.jpg,0,3,3,4,1,,,,,,,,,,,,,,,,,,,,,,,,,,,,,,,,,,,,,,,,,,,,,,,,,,,,,,,,,,,,,,,,,,,,,,,,,,,,,,,,,,,,,,,,
568321,001,2022-11-20_23h59.43.936,Info_measure_main_exp,2022.2.2,Win32,60.07449237,,,,,,,,,,,,,,,,,,masks/mask_001.jpg,0,4,4,0,1,,,,,,,,,,,,,,,,,,,,,,,,,,,,,,,,,,,,,,,,,,,,,,,,,,,,,,,,,,,,,,,,,,,,,,,,,,,,,,,,,,,,,,,,
568321,001,2022-11-20_23h59.43.936,Info_measure_main_exp,2022.2.2,Win32,60.07449237,,,,,,,,,,,,,,,,,,,,,,,,-0.062037009,0.154629637,1,0,0,response7disk,0,118.0109,1,0.011111153,0.001851859,1,0,0,center_square,0,2,2,2,1,0,131,5,5,2526,2526,prac_patch/patch0002526.jpg,prac_patch/patch0002526.jpg,,,,,,,,,,,,,,,,,,,,,,,,,,,,,,,,,,,,,,,,,,,,,,,,,,,,,,,,,,,,
568321,001,2022-11-20_23h59.43.936,Info_measure_main_exp,2022.2.2,Win32,60.07449237,,,,,,,,,,,,,,,,,,,,,,,,,,,,,,,,,,,,,,,,,,,,,,,,,,,,,,,,,,,space,3.3592,,,,,,,,,,,,,,,,,,,,,,,,,,,,,,,,,,,,,,,,,,,,,,,,,,,
568321,001,2022-11-20_23h59.43.936,Info_measure_main_exp,2022.2.2,Win32,60.07449237,,,,,,,,,,,,,,,,,,masks/mask_001.jpg,,,,,,,,,,,,,,,,,,,,,,,,,,,,,,,,,,,,,,,,,,,0,0,0,0,1,,,,,,,,,,,,,,,,,,,,,,,,,,,,,,,,,,,,,,,,,,,,,,
568321,001,2022-11-20_23h59.43.936,Info_measure_main_exp,2022.2.2,Win32,60.07449237,,,,,,,,,,,,,,,,,,masks/mask_005.jpg,,,,,,,,,,,,,,,,,,,,,,,,,,,,,,,,,,,,,,,,,,,0,1,1,4,1,,,,,,,,,,,,,,,,,,,,,,,,,,,,,,,,,,,,,,,,,,,,,,
568321,001,2022-11-20_23h59.43.936,Info_measure_main_exp,2022.2.2,Win32,60.07449237,,,,,,,,,,,,,,,,,,masks/mask_003.jpg,,,,,,,,,,,,,,,,,,,,,,,,,,,,,,,,,,,,,,,,,,,0,2,2,2,1,,,,,,,,,,,,,,,,,,,,,,,,,,,,,,,,,,,,,,,,,,,,,,
568321,001,2022-11-20_23h59.43.936,Info_measure_main_exp,2022.2.2,Win32,60.07449237,,,,,,,,,,,,,,,,,,masks/mask_004.jpg,,,,,,,,,,,,,,,,,,,,,,,,,,,,,,,,,,,,,,,,,,,0,3,3,3,1,,,,,,,,,,,,,,,,,,,,,,,,,,,,,,,,,,,,,,,,,,,,,,
568321,001,2022-11-20_23h59.43.936,Info_measure_main_exp,2022.2.2,Win32,60.07449237,,,,,,,,,,,,,,,,,,masks/mask_002.jpg,,,,,,,,,,,,,,,,,,,,,,,,,,,,,,,,,,,,,,,,,,,0,4,4,1,1,,,,,,,,,,,,,,,,,,,,,,,,,,,,,,,,,,,,,,,,,,,,,,
568321,001,2022-11-20_23h59.43.936,Info_measure_main_exp,2022.2.2,Win32,60.07449237,,,,,,,,,,,,,,,,,,masks/mask_002.jpg,,,,,,,,,,,,,,,,,,,,,,,,,,,,,,,,,,,,,,,,,,,,,,,,0,0,0,1,1,,,,,,,,,,,,,,,,,,,,,,,,,,,,,,,,,,,,,,,,,
568321,001,2022-11-20_23h59.43.936,Info_measure_main_exp,2022.2.2,Win32,60.07449237,,,,,,,,,,,,,,,,,,masks/mask_004.jpg,,,,,,,,,,,,,,,,,,,,,,,,,,,,,,,,,,,,,,,,,,,,,,,,0,1,1,3,1,,,,,,,,,,,,,,,,,,,,,,,,,,,,,,,,,,,,,,,,,
568321,001,2022-11-20_23h59.43.936,Info_measure_main_exp,2022.2.2,Win32,60.07449237,,,,,,,,,,,,,,,,,,masks/mask_003.jpg,,,,,,,,,,,,,,,,,,,,,,,,,,,,,,,,,,,,,,,,,,,,,,,,0,2,2,2,1,,,,,,,,,,,,,,,,,,,,,,,,,,,,,,,,,,,,,,,,,
568321,001,2022-11-20_23h59.43.936,Info_measure_main_exp,2022.2.2,Win32,60.07449237,,,,,,,,,,,,,,,,,,masks/mask_005.jpg,,,,,,,,,,,,,,,,,,,,,,,,,,,,,,,,,,,,,,,,,,,,,,,,0,3,3,4,1,,,,,,,,,,,,,,,,,,,,,,,,,,,,,,,,,,,,,,,,,
568321,001,2022-11-20_23h59.43.936,Info_measure_main_exp,2022.2.2,Win32,60.07449237,,,,,,,,,,,,,,,,,,masks/mask_001.jpg,,,,,,,,,,,,,,,,,,,,,,,,,,,,,,,,,,,,,,,,,,,,,,,,0,4,4,0,1,,,,,,,,,,,,,,,,,,,,,,,,,,,,,,,,,,,,,,,,,
568321,001,2022-11-20_23h59.43.936,Info_measure_main_exp,2022.2.2,Win32,60.07449237,,,,,,,,,,,,,,,,,,,,,,,,,,,,,,4,3.1125,1,,,,,,,,,,,,1,131,5,5,1,2166,present_patch/cong_131_5_a.jpg,absent_patch/patch0002166.jpg,,,,,,,,,,,,,,,,,,,,0.047222208,-0.094444487,1,0,0,response3disk,1,0,0.00462963,1,0,0,center_square,0,0,0,54,1,,,,,,,,,,,,,,,,,,,,,,,
568321,001,2022-11-20_23h59.43.936,Info_measure_main_exp,2022.2.2,Win32,60.07449237,,,,,,,,,,,,,,,,,,masks/mask_003.jpg,,,,,,,,,,,,,,,,,,,,,,,,,,,,,,,,,,,,,,,,,,,0,0,0,2,1,,,,,,,,,,,,,,,,,,,,,,,,,,,,,,,,,,,,,,,,,,,,,,
568321,001,2022-11-20_23h59.43.936,Info_measure_main_exp,2022.2.2,Win32,60.07449237,,,,,,,,,,,,,,,,,,masks/mask_005.jpg,,,,,,,,,,,,,,,,,,,,,,,,,,,,,,,,,,,,,,,,,,,0,1,1,4,1,,,,,,,,,,,,,,,,,,,,,,,,,,,,,,,,,,,,,,,,,,,,,,
568321,001,2022-11-20_23h59.43.936,Info_measure_main_exp,2022.2.2,Win32,60.07449237,,,,,,,,,,,,,,,,,,masks/mask_001.jpg,,,,,,,,,,,,,,,,,,,,,,,,,,,,,,,,,,,,,,,,,,,0,2,2,0,1,,,,,,,,,,,,,,,,,,,,,,,,,,,,,,,,,,,,,,,,,,,,,,
568321,001,2022-11-20_23h59.43.936,Info_measure_main_exp,2022.2.2,Win32,60.07449237,,,,,,,,,,,,,,,,,,masks/mask_002.jpg,,,,,,,,,,,,,,,,,,,,,,,,,,,,,,,,,,,,,,,,,,,0,3,3,1,1,,,,,,,,,,,,,,,,,,,,,,,,,,,,,,,,,,,,,,,,,,,,,,
568321,001,2022-11-20_23h59.43.936,Info_measure_main_exp,2022.2.2,Win32,60.07449237,,,,,,,,,,,,,,,,,,masks/mask_004.jpg,,,,,,,,,,,,,,,,,,,,,,,,,,,,,,,,,,,,,,,,,,,0,4,4,3,1,,,,,,,,,,,,,,,,,,,,,,,,,,,,,,,,,,,,,,,,,,,,,,
568321,001,2022-11-20_23h59.43.936,Info_measure_main_exp,2022.2.2,Win32,60.07449237,,,,,,,,,,,,,,,,,,masks/mask_005.jpg,,,,,,,,,,,,,,,,,,,,,,,,,,,,,,,,,,,,,,,,,,,,,,,,0,0,0,4,1,,,,,,,,,,,,,,,,,,,,,,,,,,,,,,,,,,,,,,,,,
568321,001,2022-11-20_23h59.43.936,Info_measure_main_exp,2022.2.2,Win32,60.07449237,,,,,,,,,,,,,,,,,,masks/mask_002.jpg,,,,,,,,,,,,,,,,,,,,,,,,,,,,,,,,,,,,,,,,,,,,,,,,0,1,1,1,1,,,,,,,,,,,,,,,,,,,,,,,,,,,,,,,,,,,,,,,,,
568321,001,2022-11-20_23h59.43.936,Info_measure_main_exp,2022.2.2,Win32,60.07449237,,,,,,,,,,,,,,,,,,masks/mask_004.jpg,,,,,,,,,,,,,,,,,,,,,,,,,,,,,,,,,,,,,,,,,,,,,,,,0,2,2,3,1,,,,,,,,,,,,,,,,,,,,,,,,,,,,,,,,,,,,,,,,,
568321,001,2022-11-20_23h59.43.936,Info_measure_main_exp,2022.2.2,Win32,60.07449237,,,,,,,,,,,,,,,,,,masks/mask_001.jpg,,,,,,,,,,,,,,,,,,,,,,,,,,,,,,,,,,,,,,,,,,,,,,,,0,3,3,0,1,,,,,,,,,,,,,,,,,,,,,,,,,,,,,,,,,,,,,,,,,
568321,001,2022-11-20_23h59.43.936,Info_measure_main_exp,2022.2.2,Win32,60.07449237,,,,,,,,,,,,,,,,,,masks/mask_003.jpg,,,,,,,,,,,,,,,,,,,,,,,,,,,,,,,,,,,,,,,,,,,,,,,,0,4,4,2,1,,,,,,,,,,,,,,,,,,,,,,,,,,,,,,,,,,,,,,,,,
568321,001,2022-11-20_23h59.43.936,Info_measure_main_exp,2022.2.2,Win32,60.07449237,,,,,,,,,,,,,,,,,,,,,,,,,,,,,,5,1.45,1,,,,,,,,,,,,0,131,5,5,2250,2238,absent_patch/patch0002250.jpg,absent_patch/patch0002238.jpg,,,,,,,,,,,,,,,,,,,,0.104629658,-0.024074095,1,0,0,response3disk,2,0.002777806,-0.001851859,1,0,0,center_square,0,1,1,110,1,,,,,,,,,,,,,,,,,,,,,,,
568321,001,2022-11-20_23h59.43.936,Info_measure_main_exp,2022.2.2,Win32,60.07449237,,,,,,,,,,,,,,,,,,masks/mask_001.jpg,,,,,,,,,,,,,,,,,,,,,,,,,,,,,,,,,,,,,,,,,,,0,0,0,0,1,,,,,,,,,,,,,,,,,,,,,,,,,,,,,,,,,,,,,,,,,,,,,,
568321,001,2022-11-20_23h59.43.936,Info_measure_main_exp,2022.2.2,Win32,60.07449237,,,,,,,,,,,,,,,,,,masks/mask_003.jpg,,,,,,,,,,,,,,,,,,,,,,,,,,,,,,,,,,,,,,,,,,,0,1,1,2,1,,,,,,,,,,,,,,,,,,,,,,,,,,,,,,,,,,,,,,,,,,,,,,
568321,001,2022-11-20_23h59.43.936,Info_measure_main_exp,2022.2.2,Win32,60.07449237,,,,,,,,,,,,,,,,,,masks/mask_004.jpg,,,,,,,,,,,,,,,,,,,,,,,,,,,,,,,,,,,,,,,,,,,0,2,2,3,1,,,,,,,,,,,,,,,,,,,,,,,,,,,,,,,,,,,,,,,,,,,,,,
568321,001,2022-11-20_23h59.43.936,Info_measure_main_exp,2022.2.2,Win32,60.07449237,,,,,,,,,,,,,,,,,,masks/mask_005.jpg,,,,,,,,,,,,,,,,,,,,,,,,,,,,,,,,,,,,,,,,,,,0,3,3,4,1,,,,,,,,,,,,,,,,,,,,,,,,,,,,,,,,,,,,,,,,,,,,,,
568321,001,2022-11-20_23h59.43.936,Info_measure_main_exp,2022.2.2,Win32,60.07449237,,,,,,,,,,,,,,,,,,masks/mask_002.jpg,,,,,,,,,,,,,,,,,,,,,,,,,,,,,,,,,,,,,,,,,,,0,4,4,1,1,,,,,,,,,,,,,,,,,,,,,,,,,,,,,,,,,,,,,,,,,,,,,,
568321,001,2022-11-20_23h59.43.936,Info_measure_main_exp,2022.2.2,Win32,60.07449237,,,,,,,,,,,,,,,,,,masks/mask_005.jpg,,,,,,,,,,,,,,,,,,,,,,,,,,,,,,,,,,,,,,,,,,,,,,,,0,0,0,4,1,,,,,,,,,,,,,,,,,,,,,,,,,,,,,,,,,,,,,,,,,
568321,001,2022-11-20_23h59.43.936,Info_measure_main_exp,2022.2.2,Win32,60.07449237,,,,,,,,,,,,,,,,,,masks/mask_002.jpg,,,,,,,,,,,,,,,,,,,,,,,,,,,,,,,,,,,,,,,,,,,,,,,,0,1,1,1,1,,,,,,,,,,,,,,,,,,,,,,,,,,,,,,,,,,,,,,,,,
568321,001,2022-11-20_23h59.43.936,Info_measure_main_exp,2022.2.2,Win32,60.07449237,,,,,,,,,,,,,,,,,,masks/mask_001.jpg,,,,,,,,,,,,,,,,,,,,,,,,,,,,,,,,,,,,,,,,,,,,,,,,0,2,2,0,1,,,,,,,,,,,,,,,,,,,,,,,,,,,,,,,,,,,,,,,,,
568321,001,2022-11-20_23h59.43.936,Info_measure_main_exp,2022.2.2,Win32,60.07449237,,,,,,,,,,,,,,,,,,masks/mask_003.jpg,,,,,,,,,,,,,,,,,,,,,,,,,,,,,,,,,,,,,,,,,,,,,,,,0,3,3,2,1,,,,,,,,,,,,,,,,,,,,,,,,,,,,,,,,,,,,,,,,,
568321,001,2022-11-20_23h59.43.936,Info_measure_main_exp,2022.2.2,Win32,60.07449237,,,,,,,,,,,,,,,,,,masks/mask_004.jpg,,,,,,,,,,,,,,,,,,,,,,,,,,,,,,,,,,,,,,,,,,,,,,,,0,4,4,3,1,,,,,,,,,,,,,,,,,,,,,,,,,,,,,,,,,,,,,,,,,
568321,001,2022-11-20_23h59.43.936,Info_measure_main_exp,2022.2.2,Win32,60.07449237,,,,,,,,,,,,,,,,,,,,,,,,,,,,,,3,0.9999,1,,,,,,,,,,,,0,131,5,5,2274,2214,absent_patch/patch0002274.jpg,absent_patch/patch0002214.jpg,,,,,,,,,,,,,,,,,,,,-0.037962949,-0.094444487,1,0,0,response5disk,3,0.00462963,-0.0074074,1,0,0,center_square,0,2,2,11,1,,,,,,,,,,,,,,,,,,,,,,,
568321,001,2022-11-20_23h59.43.936,Info_measure_main_exp,2022.2.2,Win32,60.07449237,,,,,,,,,,,,,,,,,,masks/mask_002.jpg,,,,,,,,,,,,,,,,,,,,,,,,,,,,,,,,,,,,,,,,,,,0,0,0,1,1,,,,,,,,,,,,,,,,,,,,,,,,,,,,,,,,,,,,,,,,,,,,,,
568321,001,2022-11-20_23h59.43.936,Info_measure_main_exp,2022.2.2,Win32,60.07449237,,,,,,,,,,,,,,,,,,masks/mask_005.jpg,,,,,,,,,,,,,,,,,,,,,,,,,,,,,,,,,,,,,,,,,,,0,1,1,4,1,,,,,,,,,,,,,,,,,,,,,,,,,,,,,,,,,,,,,,,,,,,,,,
568321,001,2022-11-20_23h59.43.936,Info_measure_main_exp,2022.2.2,Win32,60.07449237,,,,,,,,,,,,,,,,,,masks/mask_003.jpg,,,,,,,,,,,,,,,,,,,,,,,,,,,,,,,,,,,,,,,,,,,0,2,2,2,1,,,,,,,,,,,,,,,,,,,,,,,,,,,,,,,,,,,,,,,,,,,,,,
568321,001,2022-11-20_23h59.43.936,Info_measure_main_exp,2022.2.2,Win32,60.07449237,,,,,,,,,,,,,,,,,,masks/mask_001.jpg,,,,,,,,,,,,,,,,,,,,,,,,,,,,,,,,,,,,,,,,,,,0,3,3,0,1,,,,,,,,,,,,,,,,,,,,,,,,,,,,,,,,,,,,,,,,,,,,,,
568321,001,2022-11-20_23h59.43.936,Info_measure_main_exp,2022.2.2,Win32,60.07449237,,,,,,,,,,,,,,,,,,masks/mask_004.jpg,,,,,,,,,,,,,,,,,,,,,,,,,,,,,,,,,,,,,,,,,,,0,4,4,3,1,,,,,,,,,,,,,,,,,,,,,,,,,,,,,,,,,,,,,,,,,,,,,,
568321,001,2022-11-20_23h59.43.936,Info_measure_main_exp,2022.2.2,Win32,60.07449237,,,,,,,,,,,,,,,,,,masks/mask_005.jpg,,,,,,,,,,,,,,,,,,,,,,,,,,,,,,,,,,,,,,,,,,,,,,,,0,0,0,4,1,,,,,,,,,,,,,,,,,,,,,,,,,,,,,,,,,,,,,,,,,
568321,001,2022-11-20_23h59.43.936,Info_measure_main_exp,2022.2.2,Win32,60.07449237,,,,,,,,,,,,,,,,,,masks/mask_001.jpg,,,,,,,,,,,,,,,,,,,,,,,,,,,,,,,,,,,,,,,,,,,,,,,,0,1,1,0,1,,,,,,,,,,,,,,,,,,,,,,,,,,,,,,,,,,,,,,,,,
568321,001,2022-11-20_23h59.43.936,Info_measure_main_exp,2022.2.2,Win32,60.07449237,,,,,,,,,,,,,,,,,,masks/mask_004.jpg,,,,,,,,,,,,,,,,,,,,,,,,,,,,,,,,,,,,,,,,,,,,,,,,0,2,2,3,1,,,,,,,,,,,,,,,,,,,,,,,,,,,,,,,,,,,,,,,,,
568321,001,2022-11-20_23h59.43.936,Info_measure_main_exp,2022.2.2,Win32,60.07449237,,,,,,,,,,,,,,,,,,masks/mask_002.jpg,,,,,,,,,,,,,,,,,,,,,,,,,,,,,,,,,,,,,,,,,,,,,,,,0,3,3,1,1,,,,,,,,,,,,,,,,,,,,,,,,,,,,,,,,,,,,,,,,,
568321,001,2022-11-20_23h59.43.936,Info_measure_main_exp,2022.2.2,Win32,60.07449237,,,,,,,,,,,,,,,,,,masks/mask_003.jpg,,,,,,,,,,,,,,,,,,,,,,,,,,,,,,,,,,,,,,,,,,,,,,,,0,4,4,2,1,,,,,,,,,,,,,,,,,,,,,,,,,,,,,,,,,,,,,,,,,
568321,001,2022-11-20_23h59.43.936,Info_measure_main_exp,2022.2.2,Win32,60.07449237,,,,,,,,,,,,,,,,,,,,,,,,,,,,,,6,1.0833,1,,,,,,,,,,,,1,131,5,5,2082,1,absent_patch/patch0002082.jpg,present_patch/cong_131_5_a.jpg,,,,,,,,,,,,,,,,,,,,0.101851852,0.04074072,1,0,0,response1disk,4,0.005555541,0.006481489,1,0,0,center_square,0,3,3,65,1,,,,,,,,,,,,,,,,,,,,,,,
568321,001,2022-11-20_23h59.43.936,Info_measure_main_exp,2022.2.2,Win32,60.07449237,,,,,,,,,,,,,,,,,,masks/mask_004.jpg,,,,,,,,,,,,,,,,,,,,,,,,,,,,,,,,,,,,,,,,,,,0,0,0,3,1,,,,,,,,,,,,,,,,,,,,,,,,,,,,,,,,,,,,,,,,,,,,,,
568321,001,2022-11-20_23h59.43.936,Info_measure_main_exp,2022.2.2,Win32,60.07449237,,,,,,,,,,,,,,,,,,masks/mask_005.jpg,,,,,,,,,,,,,,,,,,,,,,,,,,,,,,,,,,,,,,,,,,,0,1,1,4,1,,,,,,,,,,,,,,,,,,,,,,,,,,,,,,,,,,,,,,,,,,,,,,
568321,001,2022-11-20_23h59.43.936,Info_measure_main_exp,2022.2.2,Win32,60.07449237,,,,,,,,,,,,,,,,,,masks/mask_003.jpg,,,,,,,,,,,,,,,,,,,,,,,,,,,,,,,,,,,,,,,,,,,0,2,2,2,1,,,,,,,,,,,,,,,,,,,,,,,,,,,,,,,,,,,,,,,,,,,,,,
568321,001,2022-11-20_23h59.43.936,Info_measure_main_exp,2022.2.2,Win32,60.07449237,,,,,,,,,,,,,,,,,,masks/mask_002.jpg,,,,,,,,,,,,,,,,,,,,,,,,,,,,,,,,,,,,,,,,,,,0,3,3,1,1,,,,,,,,,,,,,,,,,,,,,,,,,,,,,,,,,,,,,,,,,,,,,,
568321,001,2022-11-20_23h59.43.936,Info_measure_main_exp,2022.2.2,Win32,60.07449237,,,,,,,,,,,,,,,,,,masks/mask_001.jpg,,,,,,,,,,,,,,,,,,,,,,,,,,,,,,,,,,,,,,,,,,,0,4,4,0,1,,,,,,,,,,,,,,,,,,,,,,,,,,,,,,,,,,,,,,,,,,,,,,
568321,001,2022-11-20_23h59.43.936,Info_measure_main_exp,2022.2.2,Win32,60.07449237,,,,,,,,,,,,,,,,,,masks/mask_002.jpg,,,,,,,,,,,,,,,,,,,,,,,,,,,,,,,,,,,,,,,,,,,,,,,,0,0,0,1,1,,,,,,,,,,,,,,,,,,,,,,,,,,,,,,,,,,,,,,,,,
568321,001,2022-11-20_23h59.43.936,Info_measure_main_exp,2022.2.2,Win32,60.07449237,,,,,,,,,,,,,,,,,,masks/mask_001.jpg,,,,,,,,,,,,,,,,,,,,,,,,,,,,,,,,,,,,,,,,,,,,,,,,0,1,1,0,1,,,,,,,,,,,,,,,,,,,,,,,,,,,,,,,,,,,,,,,,,
568321,001,2022-11-20_23h59.43.936,Info_measure_main_exp,2022.2.2,Win32,60.07449237,,,,,,,,,,,,,,,,,,masks/mask_005.jpg,,,,,,,,,,,,,,,,,,,,,,,,,,,,,,,,,,,,,,,,,,,,,,,,0,2,2,4,1,,,,,,,,,,,,,,,,,,,,,,,,,,,,,,,,,,,,,,,,,
568321,001,2022-11-20_23h59.43.936,Info_measure_main_exp,2022.2.2,Win32,60.07449237,,,,,,,,,,,,,,,,,,masks/mask_004.jpg,,,,,,,,,,,,,,,,,,,,,,,,,,,,,,,,,,,,,,,,,,,,,,,,0,3,3,3,1,,,,,,,,,,,,,,,,,,,,,,,,,,,,,,,,,,,,,,,,,
568321,001,2022-11-20_23h59.43.936,Info_measure_main_exp,2022.2.2,Win32,60.07449237,,,,,,,,,,,,,,,,,,masks/mask_003.jpg,,,,,,,,,,,,,,,,,,,,,,,,,,,,,,,,,,,,,,,,,,,,,,,,0,4,4,2,1,,,,,,,,,,,,,,,,,,,,,,,,,,,,,,,,,,,,,,,,,
568321,001,2022-11-20_23h59.43.936,Info_measure_main_exp,2022.2.2,Win32,60.07449237,,,,,,,,,,,,,,,,,,,,,,,,,,,,,,0,1.4497,1,,,,,,,,,,,,0,131,5,5,2166,2166,absent_patch/patch0002166.jpg,absent_patch/patch0002166.jpg,,,,,,,,,,,,,,,,,,,,-0.051851838,0.104629623,1,0,0,response7disk,5,-0.005555541,0.0074074,1,0,0,center_square,0,4,4,42,1,,,,,,,,,,,,,,,,,,,,,,,
568321,001,2022-11-20_23h59.43.936,Info_measure_main_exp,2022.2.2,Win32,60.07449237,,,,,,,,,,,,,,,,,,masks/mask_001.jpg,,,,,,,,,,,,,,,,,,,,,,,,,,,,,,,,,,,,,,,,,,,0,0,0,0,1,,,,,,,,,,,,,,,,,,,,,,,,,,,,,,,,,,,,,,,,,,,,,,
568321,001,2022-11-20_23h59.43.936,Info_measure_main_exp,2022.2.2,Win32,60.07449237,,,,,,,,,,,,,,,,,,masks/mask_002.jpg,,,,,,,,,,,,,,,,,,,,,,,,,,,,,,,,,,,,,,,,,,,0,1,1,1,1,,,,,,,,,,,,,,,,,,,,,,,,,,,,,,,,,,,,,,,,,,,,,,
568321,001,2022-11-20_23h59.43.936,Info_measure_main_exp,2022.2.2,Win32,60.07449237,,,,,,,,,,,,,,,,,,masks/mask_005.jpg,,,,,,,,,,,,,,,,,,,,,,,,,,,,,,,,,,,,,,,,,,,0,2,2,4,1,,,,,,,,,,,,,,,,,,,,,,,,,,,,,,,,,,,,,,,,,,,,,,
568321,001,2022-11-20_23h59.43.936,Info_measure_main_exp,2022.2.2,Win32,60.07449237,,,,,,,,,,,,,,,,,,masks/mask_004.jpg,,,,,,,,,,,,,,,,,,,,,,,,,,,,,,,,,,,,,,,,,,,0,3,3,3,1,,,,,,,,,,,,,,,,,,,,,,,,,,,,,,,,,,,,,,,,,,,,,,
568321,001,2022-11-20_23h59.43.936,Info_measure_main_exp,2022.2.2,Win32,60.07449237,,,,,,,,,,,,,,,,,,masks/mask_003.jpg,,,,,,,,,,,,,,,,,,,,,,,,,,,,,,,,,,,,,,,,,,,0,4,4,2,1,,,,,,,,,,,,,,,,,,,,,,,,,,,,,,,,,,,,,,,,,,,,,,
568321,001,2022-11-20_23h59.43.936,Info_measure_main_exp,2022.2.2,Win32,60.07449237,,,,,,,,,,,,,,,,,,masks/mask_001.jpg,,,,,,,,,,,,,,,,,,,,,,,,,,,,,,,,,,,,,,,,,,,,,,,,0,0,0,0,1,,,,,,,,,,,,,,,,,,,,,,,,,,,,,,,,,,,,,,,,,
568321,001,2022-11-20_23h59.43.936,Info_measure_main_exp,2022.2.2,Win32,60.07449237,,,,,,,,,,,,,,,,,,masks/mask_004.jpg,,,,,,,,,,,,,,,,,,,,,,,,,,,,,,,,,,,,,,,,,,,,,,,,0,1,1,3,1,,,,,,,,,,,,,,,,,,,,,,,,,,,,,,,,,,,,,,,,,
568321,001,2022-11-20_23h59.43.936,Info_measure_main_exp,2022.2.2,Win32,60.07449237,,,,,,,,,,,,,,,,,,masks/mask_005.jpg,,,,,,,,,,,,,,,,,,,,,,,,,,,,,,,,,,,,,,,,,,,,,,,,0,2,2,4,1,,,,,,,,,,,,,,,,,,,,,,,,,,,,,,,,,,,,,,,,,
568321,001,2022-11-20_23h59.43.936,Info_measure_main_exp,2022.2.2,Win32,60.07449237,,,,,,,,,,,,,,,,,,masks/mask_002.jpg,,,,,,,,,,,,,,,,,,,,,,,,,,,,,,,,,,,,,,,,,,,,,,,,0,3,3,1,1,,,,,,,,,,,,,,,,,,,,,,,,,,,,,,,,,,,,,,,,,
568321,001,2022-11-20_23h59.43.936,Info_measure_main_exp,2022.2.2,Win32,60.07449237,,,,,,,,,,,,,,,,,,masks/mask_003.jpg,,,,,,,,,,,,,,,,,,,,,,,,,,,,,,,,,,,,,,,,,,,,,,,,0,4,4,2,1,,,,,,,,,,,,,,,,,,,,,,,,,,,,,,,,,,,,,,,,,
568321,001,2022-11-20_23h59.43.936,Info_measure_main_exp,2022.2.2,Win32,60.07449237,,,,,,,,,,,,,,,,,,,,,,,,,,,,,,4,1.7501,1,,,,,,,,,,,,0,131,5,5,2298,1986,absent_patch/patch0002298.jpg,absent_patch/patch0001986.jpg,,,,,,,,,,,,,,,,,,,,0.021296325,-0.10092594,1,0,0,response3disk,6,0.012037065,0.000925912,1,0,0,center_square,0,5,5,32,1,,,,,,,,,,,,,,,,,,,,,,,
568321,001,2022-11-20_23h59.43.936,Info_measure_main_exp,2022.2.2,Win32,60.07449237,,,,,,,,,,,,,,,,,,masks/mask_002.jpg,,,,,,,,,,,,,,,,,,,,,,,,,,,,,,,,,,,,,,,,,,,0,0,0,1,1,,,,,,,,,,,,,,,,,,,,,,,,,,,,,,,,,,,,,,,,,,,,,,
568321,001,2022-11-20_23h59.43.936,Info_measure_main_exp,2022.2.2,Win32,60.07449237,,,,,,,,,,,,,,,,,,masks/mask_001.jpg,,,,,,,,,,,,,,,,,,,,,,,,,,,,,,,,,,,,,,,,,,,0,1,1,0,1,,,,,,,,,,,,,,,,,,,,,,,,,,,,,,,,,,,,,,,,,,,,,,
568321,001,2022-11-20_23h59.43.936,Info_measure_main_exp,2022.2.2,Win32,60.07449237,,,,,,,,,,,,,,,,,,masks/mask_004.jpg,,,,,,,,,,,,,,,,,,,,,,,,,,,,,,,,,,,,,,,,,,,0,2,2,3,1,,,,,,,,,,,,,,,,,,,,,,,,,,,,,,,,,,,,,,,,,,,,,,
568321,001,2022-11-20_23h59.43.936,Info_measure_main_exp,2022.2.2,Win32,60.07449237,,,,,,,,,,,,,,,,,,masks/mask_003.jpg,,,,,,,,,,,,,,,,,,,,,,,,,,,,,,,,,,,,,,,,,,,0,3,3,2,1,,,,,,,,,,,,,,,,,,,,,,,,,,,,,,,,,,,,,,,,,,,,,,
568321,001,2022-11-20_23h59.43.936,Info_measure_main_exp,2022.2.2,Win32,60.07449237,,,,,,,,,,,,,,,,,,masks/mask_005.jpg,,,,,,,,,,,,,,,,,,,,,,,,,,,,,,,,,,,,,,,,,,,0,4,4,4,1,,,,,,,,,,,,,,,,,,,,,,,,,,,,,,,,,,,,,,,,,,,,,,
568321,001,2022-11-20_23h59.43.936,Info_measure_main_exp,2022.2.2,Win32,60.07449237,,,,,,,,,,,,,,,,,,masks/mask_001.jpg,,,,,,,,,,,,,,,,,,,,,,,,,,,,,,,,,,,,,,,,,,,,,,,,0,0,0,0,1,,,,,,,,,,,,,,,,,,,,,,,,,,,,,,,,,,,,,,,,,
568321,001,2022-11-20_23h59.43.936,Info_measure_main_exp,2022.2.2,Win32,60.07449237,,,,,,,,,,,,,,,,,,masks/mask_004.jpg,,,,,,,,,,,,,,,,,,,,,,,,,,,,,,,,,,,,,,,,,,,,,,,,0,1,1,3,1,,,,,,,,,,,,,,,,,,,,,,,,,,,,,,,,,,,,,,,,,
568321,001,2022-11-20_23h59.43.936,Info_measure_main_exp,2022.2.2,Win32,60.07449237,,,,,,,,,,,,,,,,,,masks/mask_005.jpg,,,,,,,,,,,,,,,,,,,,,,,,,,,,,,,,,,,,,,,,,,,,,,,,0,2,2,4,1,,,,,,,,,,,,,,,,,,,,,,,,,,,,,,,,,,,,,,,,,
568321,001,2022-11-20_23h59.43.936,Info_measure_main_exp,2022.2.2,Win32,60.07449237,,,,,,,,,,,,,,,,,,masks/mask_003.jpg,,,,,,,,,,,,,,,,,,,,,,,,,,,,,,,,,,,,,,,,,,,,,,,,0,3,3,2,1,,,,,,,,,,,,,,,,,,,,,,,,,,,,,,,,,,,,,,,,,
568321,001,2022-11-20_23h59.43.936,Info_measure_main_exp,2022.2.2,Win32,60.07449237,,,,,,,,,,,,,,,,,,masks/mask_002.jpg,,,,,,,,,,,,,,,,,,,,,,,,,,,,,,,,,,,,,,,,,,,,,,,,0,4,4,1,1,,,,,,,,,,,,,,,,,,,,,,,,,,,,,,,,,,,,,,,,,
568321,001,2022-11-20_23h59.43.936,Info_measure_main_exp,2022.2.2,Win32,60.07449237,,,,,,,,,,,,,,,,,,,,,,,,,,,,,,1,1.6664,1,,,,,,,,,,,,0,131,5,5,1986,2154,absent_patch/patch0001986.jpg,absent_patch/patch0002154.jpg,,,,,,,,,,,,,,,,,,,,-0.074074074,0.038888896,1,0,0,response7disk,7,0.010185171,-0.008333347,1,0,0,center_square,0,6,6,36,1,,,,,,,,,,,,,,,,,,,,,,,
568321,001,2022-11-20_23h59.43.936,Info_measure_main_exp,2022.2.2,Win32,60.07449237,,,,,,,,,,,,,,,,,,masks/mask_001.jpg,,,,,,,,,,,,,,,,,,,,,,,,,,,,,,,,,,,,,,,,,,,0,0,0,0,1,,,,,,,,,,,,,,,,,,,,,,,,,,,,,,,,,,,,,,,,,,,,,,
568321,001,2022-11-20_23h59.43.936,Info_measure_main_exp,2022.2.2,Win32,60.07449237,,,,,,,,,,,,,,,,,,masks/mask_002.jpg,,,,,,,,,,,,,,,,,,,,,,,,,,,,,,,,,,,,,,,,,,,0,1,1,1,1,,,,,,,,,,,,,,,,,,,,,,,,,,,,,,,,,,,,,,,,,,,,,,
568321,001,2022-11-20_23h59.43.936,Info_measure_main_exp,2022.2.2,Win32,60.07449237,,,,,,,,,,,,,,,,,,masks/mask_005.jpg,,,,,,,,,,,,,,,,,,,,,,,,,,,,,,,,,,,,,,,,,,,0,2,2,4,1,,,,,,,,,,,,,,,,,,,,,,,,,,,,,,,,,,,,,,,,,,,,,,
568321,001,2022-11-20_23h59.43.936,Info_measure_main_exp,2022.2.2,Win32,60.07449237,,,,,,,,,,,,,,,,,,masks/mask_003.jpg,,,,,,,,,,,,,,,,,,,,,,,,,,,,,,,,,,,,,,,,,,,0,3,3,2,1,,,,,,,,,,,,,,,,,,,,,,,,,,,,,,,,,,,,,,,,,,,,,,
568321,001,2022-11-20_23h59.43.936,Info_measure_main_exp,2022.2.2,Win32,60.07449237,,,,,,,,,,,,,,,,,,masks/mask_004.jpg,,,,,,,,,,,,,,,,,,,,,,,,,,,,,,,,,,,,,,,,,,,0,4,4,3,1,,,,,,,,,,,,,,,,,,,,,,,,,,,,,,,,,,,,,,,,,,,,,,
568321,001,2022-11-20_23h59.43.936,Info_measure_main_exp,2022.2.2,Win32,60.07449237,,,,,,,,,,,,,,,,,,masks/mask_001.jpg,,,,,,,,,,,,,,,,,,,,,,,,,,,,,,,,,,,,,,,,,,,,,,,,0,0,0,0,1,,,,,,,,,,,,,,,,,,,,,,,,,,,,,,,,,,,,,,,,,
568321,001,2022-11-20_23h59.43.936,Info_measure_main_exp,2022.2.2,Win32,60.07449237,,,,,,,,,,,,,,,,,,masks/mask_002.jpg,,,,,,,,,,,,,,,,,,,,,,,,,,,,,,,,,,,,,,,,,,,,,,,,0,1,1,1,1,,,,,,,,,,,,,,,,,,,,,,,,,,,,,,,,,,,,,,,,,
568321,001,2022-11-20_23h59.43.936,Info_measure_main_exp,2022.2.2,Win32,60.07449237,,,,,,,,,,,,,,,,,,masks/mask_003.jpg,,,,,,,,,,,,,,,,,,,,,,,,,,,,,,,,,,,,,,,,,,,,,,,,0,2,2,2,1,,,,,,,,,,,,,,,,,,,,,,,,,,,,,,,,,,,,,,,,,
568321,001,2022-11-20_23h59.43.936,Info_measure_main_exp,2022.2.2,Win32,60.07449237,,,,,,,,,,,,,,,,,,masks/mask_004.jpg,,,,,,,,,,,,,,,,,,,,,,,,,,,,,,,,,,,,,,,,,,,,,,,,0,3,3,3,1,,,,,,,,,,,,,,,,,,,,,,,,,,,,,,,,,,,,,,,,,
568321,001,2022-11-20_23h59.43.936,Info_measure_main_exp,2022.2.2,Win32,60.07449237,,,,,,,,,,,,,,,,,,masks/mask_005.jpg,,,,,,,,,,,,,,,,,,,,,,,,,,,,,,,,,,,,,,,,,,,,,,,,0,4,4,4,1,,,,,,,,,,,,,,,,,,,,,,,,,,,,,,,,,,,,,,,,,
568321,001,2022-11-20_23h59.43.936,Info_measure_main_exp,2022.2.2,Win32,60.07449237,,,,,,,,,,,,,,,,,,,,,,,,,,,,,,3,2.8669,1,,,,,,,,,,,,0,131,5,5,2274,2166,absent_patch/patch0002274.jpg,absent_patch/patch0002166.jpg,,,,,,,,,,,,,,,,,,,,-0.057407379,-0.141666695,1,0,0,response5disk,8,-0.00462963,-0.006481489,1,0,0,center_square,0,7,7,78,1,,,,,,,,,,,,,,,,,,,,,,,
568321,001,2022-11-20_23h59.43.936,Info_measure_main_exp,2022.2.2,Win32,60.07449237,,,,,,,,,,,,,,,,,,masks/mask_001.jpg,,,,,,,,,,,,,,,,,,,,,,,,,,,,,,,,,,,,,,,,,,,0,0,0,0,1,,,,,,,,,,,,,,,,,,,,,,,,,,,,,,,,,,,,,,,,,,,,,,
568321,001,2022-11-20_23h59.43.936,Info_measure_main_exp,2022.2.2,Win32,60.07449237,,,,,,,,,,,,,,,,,,masks/mask_005.jpg,,,,,,,,,,,,,,,,,,,,,,,,,,,,,,,,,,,,,,,,,,,0,1,1,4,1,,,,,,,,,,,,,,,,,,,,,,,,,,,,,,,,,,,,,,,,,,,,,,
568321,001,2022-11-20_23h59.43.936,Info_measure_main_exp,2022.2.2,Win32,60.07449237,,,,,,,,,,,,,,,,,,masks/mask_003.jpg,,,,,,,,,,,,,,,,,,,,,,,,,,,,,,,,,,,,,,,,,,,0,2,2,2,1,,,,,,,,,,,,,,,,,,,,,,,,,,,,,,,,,,,,,,,,,,,,,,
568321,001,2022-11-20_23h59.43.936,Info_measure_main_exp,2022.2.2,Win32,60.07449237,,,,,,,,,,,,,,,,,,masks/mask_004.jpg,,,,,,,,,,,,,,,,,,,,,,,,,,,,,,,,,,,,,,,,,,,0,3,3,3,1,,,,,,,,,,,,,,,,,,,,,,,,,,,,,,,,,,,,,,,,,,,,,,
568321,001,2022-11-20_23h59.43.936,Info_measure_main_exp,2022.2.2,Win32,60.07449237,,,,,,,,,,,,,,,,,,masks/mask_002.jpg,,,,,,,,,,,,,,,,,,,,,,,,,,,,,,,,,,,,,,,,,,,0,4,4,1,1,,,,,,,,,,,,,,,,,,,,,,,,,,,,,,,,,,,,,,,,,,,,,,
568321,001,2022-11-20_23h59.43.936,Info_measure_main_exp,2022.2.2,Win32,60.07449237,,,,,,,,,,,,,,,,,,masks/mask_005.jpg,,,,,,,,,,,,,,,,,,,,,,,,,,,,,,,,,,,,,,,,,,,,,,,,0,0,0,4,1,,,,,,,,,,,,,,,,,,,,,,,,,,,,,,,,,,,,,,,,,
568321,001,2022-11-20_23h59.43.936,Info_measure_main_exp,2022.2.2,Win32,60.07449237,,,,,,,,,,,,,,,,,,masks/mask_001.jpg,,,,,,,,,,,,,,,,,,,,,,,,,,,,,,,,,,,,,,,,,,,,,,,,0,1,1,0,1,,,,,,,,,,,,,,,,,,,,,,,,,,,,,,,,,,,,,,,,,
568321,001,2022-11-20_23h59.43.936,Info_measure_main_exp,2022.2.2,Win32,60.07449237,,,,,,,,,,,,,,,,,,masks/mask_004.jpg,,,,,,,,,,,,,,,,,,,,,,,,,,,,,,,,,,,,,,,,,,,,,,,,0,2,2,3,1,,,,,,,,,,,,,,,,,,,,,,,,,,,,,,,,,,,,,,,,,
568321,001,2022-11-20_23h59.43.936,Info_measure_main_exp,2022.2.2,Win32,60.07449237,,,,,,,,,,,,,,,,,,masks/mask_003.jpg,,,,,,,,,,,,,,,,,,,,,,,,,,,,,,,,,,,,,,,,,,,,,,,,0,3,3,2,1,,,,,,,,,,,,,,,,,,,,,,,,,,,,,,,,,,,,,,,,,
568321,001,2022-11-20_23h59.43.936,Info_measure_main_exp,2022.2.2,Win32,60.07449237,,,,,,,,,,,,,,,,,,masks/mask_002.jpg,,,,,,,,,,,,,,,,,,,,,,,,,,,,,,,,,,,,,,,,,,,,,,,,0,4,4,1,1,,,,,,,,,,,,,,,,,,,,,,,,,,,,,,,,,,,,,,,,,
568321,001,2022-11-20_23h59.43.936,Info_measure_main_exp,2022.2.2,Win32,60.07449237,,,,,,,,,,,,,,,,,,,,,,,,,,,,,,7,1.8336,1,,,,,,,,,,,,0,131,5,5,1950,2238,absent_patch/patch0001950.jpg,absent_patch/patch0002238.jpg,,,,,,,,,,,,,,,,,,,,0.075925968,0.116666653,1,0,0,response1disk,9,-0.001851824,-0.003703718,1,0,0,center_square,0,8,8,8,1,,,,,,,,,,,,,,,,,,,,,,,
568321,001,2022-11-20_23h59.43.936,Info_measure_main_exp,2022.2.2,Win32,60.07449237,,,,,,,,,,,,,,,,,,masks/mask_001.jpg,,,,,,,,,,,,,,,,,,,,,,,,,,,,,,,,,,,,,,,,,,,0,0,0,0,1,,,,,,,,,,,,,,,,,,,,,,,,,,,,,,,,,,,,,,,,,,,,,,
568321,001,2022-11-20_23h59.43.936,Info_measure_main_exp,2022.2.2,Win32,60.07449237,,,,,,,,,,,,,,,,,,masks/mask_005.jpg,,,,,,,,,,,,,,,,,,,,,,,,,,,,,,,,,,,,,,,,,,,0,1,1,4,1,,,,,,,,,,,,,,,,,,,,,,,,,,,,,,,,,,,,,,,,,,,,,,
568321,001,2022-11-20_23h59.43.936,Info_measure_main_exp,2022.2.2,Win32,60.07449237,,,,,,,,,,,,,,,,,,masks/mask_003.jpg,,,,,,,,,,,,,,,,,,,,,,,,,,,,,,,,,,,,,,,,,,,0,2,2,2,1,,,,,,,,,,,,,,,,,,,,,,,,,,,,,,,,,,,,,,,,,,,,,,
568321,001,2022-11-20_23h59.43.936,Info_measure_main_exp,2022.2.2,Win32,60.07449237,,,,,,,,,,,,,,,,,,masks/mask_002.jpg,,,,,,,,,,,,,,,,,,,,,,,,,,,,,,,,,,,,,,,,,,,0,3,3,1,1,,,,,,,,,,,,,,,,,,,,,,,,,,,,,,,,,,,,,,,,,,,,,,
568321,001,2022-11-20_23h59.43.936,Info_measure_main_exp,2022.2.2,Win32,60.07449237,,,,,,,,,,,,,,,,,,masks/mask_004.jpg,,,,,,,,,,,,,,,,,,,,,,,,,,,,,,,,,,,,,,,,,,,0,4,4,3,1,,,,,,,,,,,,,,,,,,,,,,,,,,,,,,,,,,,,,,,,,,,,,,
568321,001,2022-11-20_23h59.43.936,Info_measure_main_exp,2022.2.2,Win32,60.07449237,,,,,,,,,,,,,,,,,,masks/mask_003.jpg,,,,,,,,,,,,,,,,,,,,,,,,,,,,,,,,,,,,,,,,,,,,,,,,0,0,0,2,1,,,,,,,,,,,,,,,,,,,,,,,,,,,,,,,,,,,,,,,,,
568321,001,2022-11-20_23h59.43.936,Info_measure_main_exp,2022.2.2,Win32,60.07449237,,,,,,,,,,,,,,,,,,masks/mask_004.jpg,,,,,,,,,,,,,,,,,,,,,,,,,,,,,,,,,,,,,,,,,,,,,,,,0,1,1,3,1,,,,,,,,,,,,,,,,,,,,,,,,,,,,,,,,,,,,,,,,,
568321,001,2022-11-20_23h59.43.936,Info_measure_main_exp,2022.2.2,Win32,60.07449237,,,,,,,,,,,,,,,,,,masks/mask_002.jpg,,,,,,,,,,,,,,,,,,,,,,,,,,,,,,,,,,,,,,,,,,,,,,,,0,2,2,1,1,,,,,,,,,,,,,,,,,,,,,,,,,,,,,,,,,,,,,,,,,
568321,001,2022-11-20_23h59.43.936,Info_measure_main_exp,2022.2.2,Win32,60.07449237,,,,,,,,,,,,,,,,,,masks/mask_005.jpg,,,,,,,,,,,,,,,,,,,,,,,,,,,,,,,,,,,,,,,,,,,,,,,,0,3,3,4,1,,,,,,,,,,,,,,,,,,,,,,,,,,,,,,,,,,,,,,,,,
568321,001,2022-11-20_23h59.43.936,Info_measure_main_exp,2022.2.2,Win32,60.07449237,,,,,,,,,,,,,,,,,,masks/mask_001.jpg,,,,,,,,,,,,,,,,,,,,,,,,,,,,,,,,,,,,,,,,,,,,,,,,0,4,4,0,1,,,,,,,,,,,,,,,,,,,,,,,,,,,,,,,,,,,,,,,,,
568321,001,2022-11-20_23h59.43.936,Info_measure_main_exp,2022.2.2,Win32,60.07449237,,,,,,,,,,,,,,,,,,,,,,,,,,,,,,0,0.8666,1,,,,,,,,,,,,0,131,5,5,2154,2154,absent_patch/patch0002154.jpg,absent_patch/patch0002154.jpg,,,,,,,,,,,,,,,,,,,,-0.047222208,0.109259252,1,0,0,response7disk,10,0.00462963,-0.006481489,1,0,0,center_square,0,9,9,89,1,,,,,,,,,,,,,,,,,,,,,,,
568321,001,2022-11-20_23h59.43.936,Info_measure_main_exp,2022.2.2,Win32,60.07449237,,,,,,,,,,,,,,,,,,masks/mask_003.jpg,,,,,,,,,,,,,,,,,,,,,,,,,,,,,,,,,,,,,,,,,,,0,0,0,2,1,,,,,,,,,,,,,,,,,,,,,,,,,,,,,,,,,,,,,,,,,,,,,,
568321,001,2022-11-20_23h59.43.936,Info_measure_main_exp,2022.2.2,Win32,60.07449237,,,,,,,,,,,,,,,,,,masks/mask_005.jpg,,,,,,,,,,,,,,,,,,,,,,,,,,,,,,,,,,,,,,,,,,,0,1,1,4,1,,,,,,,,,,,,,,,,,,,,,,,,,,,,,,,,,,,,,,,,,,,,,,
568321,001,2022-11-20_23h59.43.936,Info_measure_main_exp,2022.2.2,Win32,60.07449237,,,,,,,,,,,,,,,,,,masks/mask_001.jpg,,,,,,,,,,,,,,,,,,,,,,,,,,,,,,,,,,,,,,,,,,,0,2,2,0,1,,,,,,,,,,,,,,,,,,,,,,,,,,,,,,,,,,,,,,,,,,,,,,
568321,001,2022-11-20_23h59.43.936,Info_measure_main_exp,2022.2.2,Win32,60.07449237,,,,,,,,,,,,,,,,,,masks/mask_002.jpg,,,,,,,,,,,,,,,,,,,,,,,,,,,,,,,,,,,,,,,,,,,0,3,3,1,1,,,,,,,,,,,,,,,,,,,,,,,,,,,,,,,,,,,,,,,,,,,,,,
568321,001,2022-11-20_23h59.43.936,Info_measure_main_exp,2022.2.2,Win32,60.07449237,,,,,,,,,,,,,,,,,,masks/mask_004.jpg,,,,,,,,,,,,,,,,,,,,,,,,,,,,,,,,,,,,,,,,,,,0,4,4,3,1,,,,,,,,,,,,,,,,,,,,,,,,,,,,,,,,,,,,,,,,,,,,,,
568321,001,2022-11-20_23h59.43.936,Info_measure_main_exp,2022.2.2,Win32,60.07449237,,,,,,,,,,,,,,,,,,masks/mask_004.jpg,,,,,,,,,,,,,,,,,,,,,,,,,,,,,,,,,,,,,,,,,,,,,,,,0,0,0,3,1,,,,,,,,,,,,,,,,,,,,,,,,,,,,,,,,,,,,,,,,,
568321,001,2022-11-20_23h59.43.936,Info_measure_main_exp,2022.2.2,Win32,60.07449237,,,,,,,,,,,,,,,,,,masks/mask_002.jpg,,,,,,,,,,,,,,,,,,,,,,,,,,,,,,,,,,,,,,,,,,,,,,,,0,1,1,1,1,,,,,,,,,,,,,,,,,,,,,,,,,,,,,,,,,,,,,,,,,
568321,001,2022-11-20_23h59.43.936,Info_measure_main_exp,2022.2.2,Win32,60.07449237,,,,,,,,,,,,,,,,,,masks/mask_003.jpg,,,,,,,,,,,,,,,,,,,,,,,,,,,,,,,,,,,,,,,,,,,,,,,,0,2,2,2,1,,,,,,,,,,,,,,,,,,,,,,,,,,,,,,,,,,,,,,,,,
568321,001,2022-11-20_23h59.43.936,Info_measure_main_exp,2022.2.2,Win32,60.07449237,,,,,,,,,,,,,,,,,,masks/mask_001.jpg,,,,,,,,,,,,,,,,,,,,,,,,,,,,,,,,,,,,,,,,,,,,,,,,0,3,3,0,1,,,,,,,,,,,,,,,,,,,,,,,,,,,,,,,,,,,,,,,,,
568321,001,2022-11-20_23h59.43.936,Info_measure_main_exp,2022.2.2,Win32,60.07449237,,,,,,,,,,,,,,,,,,masks/mask_005.jpg,,,,,,,,,,,,,,,,,,,,,,,,,,,,,,,,,,,,,,,,,,,,,,,,0,4,4,4,1,,,,,,,,,,,,,,,,,,,,,,,,,,,,,,,,,,,,,,,,,
568321,001,2022-11-20_23h59.43.936,Info_measure_main_exp,2022.2.2,Win32,60.07449237,,,,,,,,,,,,,,,,,,,,,,,,,,,,,,5,2.0502,1,,,,,,,,,,,,0,131,5,5,2250,2166,absent_patch/patch0002250.jpg,absent_patch/patch0002166.jpg,,,,,,,,,,,,,,,,,,,,0.065740727,-0.025925919,1,0,0,response3disk,11,0.002777806,0,1,0,0,center_square,0,10,10,60,1,,,,,,,,,,,,,,,,,,,,,,,
568321,001,2022-11-20_23h59.43.936,Info_measure_main_exp,2022.2.2,Win32,60.07449237,,,,,,,,,,,,,,,,,,masks/mask_005.jpg,,,,,,,,,,,,,,,,,,,,,,,,,,,,,,,,,,,,,,,,,,,0,0,0,4,1,,,,,,,,,,,,,,,,,,,,,,,,,,,,,,,,,,,,,,,,,,,,,,
568321,001,2022-11-20_23h59.43.936,Info_measure_main_exp,2022.2.2,Win32,60.07449237,,,,,,,,,,,,,,,,,,masks/mask_004.jpg,,,,,,,,,,,,,,,,,,,,,,,,,,,,,,,,,,,,,,,,,,,0,1,1,3,1,,,,,,,,,,,,,,,,,,,,,,,,,,,,,,,,,,,,,,,,,,,,,,
568321,001,2022-11-20_23h59.43.936,Info_measure_main_exp,2022.2.2,Win32,60.07449237,,,,,,,,,,,,,,,,,,masks/mask_003.jpg,,,,,,,,,,,,,,,,,,,,,,,,,,,,,,,,,,,,,,,,,,,0,2,2,2,1,,,,,,,,,,,,,,,,,,,,,,,,,,,,,,,,,,,,,,,,,,,,,,
568321,001,2022-11-20_23h59.43.936,Info_measure_main_exp,2022.2.2,Win32,60.07449237,,,,,,,,,,,,,,,,,,masks/mask_002.jpg,,,,,,,,,,,,,,,,,,,,,,,,,,,,,,,,,,,,,,,,,,,0,3,3,1,1,,,,,,,,,,,,,,,,,,,,,,,,,,,,,,,,,,,,,,,,,,,,,,
568321,001,2022-11-20_23h59.43.936,Info_measure_main_exp,2022.2.2,Win32,60.07449237,,,,,,,,,,,,,,,,,,masks/mask_001.jpg,,,,,,,,,,,,,,,,,,,,,,,,,,,,,,,,,,,,,,,,,,,0,4,4,0,1,,,,,,,,,,,,,,,,,,,,,,,,,,,,,,,,,,,,,,,,,,,,,,
568321,001,2022-11-20_23h59.43.936,Info_measure_main_exp,2022.2.2,Win32,60.07449237,,,,,,,,,,,,,,,,,,masks/mask_002.jpg,,,,,,,,,,,,,,,,,,,,,,,,,,,,,,,,,,,,,,,,,,,,,,,,0,0,0,1,1,,,,,,,,,,,,,,,,,,,,,,,,,,,,,,,,,,,,,,,,,
568321,001,2022-11-20_23h59.43.936,Info_measure_main_exp,2022.2.2,Win32,60.07449237,,,,,,,,,,,,,,,,,,masks/mask_001.jpg,,,,,,,,,,,,,,,,,,,,,,,,,,,,,,,,,,,,,,,,,,,,,,,,0,1,1,0,1,,,,,,,,,,,,,,,,,,,,,,,,,,,,,,,,,,,,,,,,,
568321,001,2022-11-20_23h59.43.936,Info_measure_main_exp,2022.2.2,Win32,60.07449237,,,,,,,,,,,,,,,,,,masks/mask_003.jpg,,,,,,,,,,,,,,,,,,,,,,,,,,,,,,,,,,,,,,,,,,,,,,,,0,2,2,2,1,,,,,,,,,,,,,,,,,,,,,,,,,,,,,,,,,,,,,,,,,
568321,001,2022-11-20_23h59.43.936,Info_measure_main_exp,2022.2.2,Win32,60.07449237,,,,,,,,,,,,,,,,,,masks/mask_004.jpg,,,,,,,,,,,,,,,,,,,,,,,,,,,,,,,,,,,,,,,,,,,,,,,,0,3,3,3,1,,,,,,,,,,,,,,,,,,,,,,,,,,,,,,,,,,,,,,,,,
568321,001,2022-11-20_23h59.43.936,Info_measure_main_exp,2022.2.2,Win32,60.07449237,,,,,,,,,,,,,,,,,,masks/mask_005.jpg,,,,,,,,,,,,,,,,,,,,,,,,,,,,,,,,,,,,,,,,,,,,,,,,0,4,4,4,1,,,,,,,,,,,,,,,,,,,,,,,,,,,,,,,,,,,,,,,,,
568321,001,2022-11-20_23h59.43.936,Info_measure_main_exp,2022.2.2,Win32,60.07449237,,,,,,,,,,,,,,,,,,,,,,,,,,,,,,5,1.4833,1,,,,,,,,,,,,0,131,5,5,2298,2274,absent_patch/patch0002298.jpg,absent_patch/patch0002274.jpg,,,,,,,,,,,,,,,,,,,,0.086111139,-0.023148148,1,0,0,response3disk,12,0.012962977,0.005555541,1,0,0,center_square,0,11,11,1,1,,,,,,,,,,,,,,,,,,,,,,,
568321,001,2022-11-20_23h59.43.936,Info_measure_main_exp,2022.2.2,Win32,60.07449237,,,,,,,,,,,,,,,,,,masks/mask_004.jpg,,,,,,,,,,,,,,,,,,,,,,,,,,,,,,,,,,,,,,,,,,,0,0,0,3,1,,,,,,,,,,,,,,,,,,,,,,,,,,,,,,,,,,,,,,,,,,,,,,
568321,001,2022-11-20_23h59.43.936,Info_measure_main_exp,2022.2.2,Win32,60.07449237,,,,,,,,,,,,,,,,,,masks/mask_002.jpg,,,,,,,,,,,,,,,,,,,,,,,,,,,,,,,,,,,,,,,,,,,0,1,1,1,1,,,,,,,,,,,,,,,,,,,,,,,,,,,,,,,,,,,,,,,,,,,,,,
568321,001,2022-11-20_23h59.43.936,Info_measure_main_exp,2022.2.2,Win32,60.07449237,,,,,,,,,,,,,,,,,,masks/mask_001.jpg,,,,,,,,,,,,,,,,,,,,,,,,,,,,,,,,,,,,,,,,,,,0,2,2,0,1,,,,,,,,,,,,,,,,,,,,,,,,,,,,,,,,,,,,,,,,,,,,,,
568321,001,2022-11-20_23h59.43.936,Info_measure_main_exp,2022.2.2,Win32,60.07449237,,,,,,,,,,,,,,,,,,masks/mask_005.jpg,,,,,,,,,,,,,,,,,,,,,,,,,,,,,,,,,,,,,,,,,,,0,3,3,4,1,,,,,,,,,,,,,,,,,,,,,,,,,,,,,,,,,,,,,,,,,,,,,,
568321,001,2022-11-20_23h59.43.936,Info_measure_main_exp,2022.2.2,Win32,60.07449237,,,,,,,,,,,,,,,,,,masks/mask_003.jpg,,,,,,,,,,,,,,,,,,,,,,,,,,,,,,,,,,,,,,,,,,,0,4,4,2,1,,,,,,,,,,,,,,,,,,,,,,,,,,,,,,,,,,,,,,,,,,,,,,
568321,001,2022-11-20_23h59.43.936,Info_measure_main_exp,2022.2.2,Win32,60.07449237,,,,,,,,,,,,,,,,,,masks/mask_002.jpg,,,,,,,,,,,,,,,,,,,,,,,,,,,,,,,,,,,,,,,,,,,,,,,,0,0,0,1,1,,,,,,,,,,,,,,,,,,,,,,,,,,,,,,,,,,,,,,,,,
568321,001,2022-11-20_23h59.43.936,Info_measure_main_exp,2022.2.2,Win32,60.07449237,,,,,,,,,,,,,,,,,,masks/mask_001.jpg,,,,,,,,,,,,,,,,,,,,,,,,,,,,,,,,,,,,,,,,,,,,,,,,0,1,1,0,1,,,,,,,,,,,,,,,,,,,,,,,,,,,,,,,,,,,,,,,,,
568321,001,2022-11-20_23h59.43.936,Info_measure_main_exp,2022.2.2,Win32,60.07449237,,,,,,,,,,,,,,,,,,masks/mask_005.jpg,,,,,,,,,,,,,,,,,,,,,,,,,,,,,,,,,,,,,,,,,,,,,,,,0,2,2,4,1,,,,,,,,,,,,,,,,,,,,,,,,,,,,,,,,,,,,,,,,,
568321,001,2022-11-20_23h59.43.936,Info_measure_main_exp,2022.2.2,Win32,60.07449237,,,,,,,,,,,,,,,,,,masks/mask_004.jpg,,,,,,,,,,,,,,,,,,,,,,,,,,,,,,,,,,,,,,,,,,,,,,,,0,3,3,3,1,,,,,,,,,,,,,,,,,,,,,,,,,,,,,,,,,,,,,,,,,
568321,001,2022-11-20_23h59.43.936,Info_measure_main_exp,2022.2.2,Win32,60.07449237,,,,,,,,,,,,,,,,,,masks/mask_003.jpg,,,,,,,,,,,,,,,,,,,,,,,,,,,,,,,,,,,,,,,,,,,,,,,,0,4,4,2,1,,,,,,,,,,,,,,,,,,,,,,,,,,,,,,,,,,,,,,,,,
568321,001,2022-11-20_23h59.43.936,Info_measure_main_exp,2022.2.2,Win32,60.07449237,,,,,,,,,,,,,,,,,,,,,,,,,,,,,,3,1.1167,1,,,,,,,,,,,,0,131,5,5,2214,1986,absent_patch/patch0002214.jpg,absent_patch/patch0001986.jpg,,,,,,,,,,,,,,,,,,,,-0.041666667,-0.102777764,1,0,0,response5disk,13,0.006481524,0.001851859,1,0,0,center_square,0,12,12,34,1,,,,,,,,,,,,,,,,,,,,,,,
568321,001,2022-11-20_23h59.43.936,Info_measure_main_exp,2022.2.2,Win32,60.07449237,,,,,,,,,,,,,,,,,,masks/mask_003.jpg,,,,,,,,,,,,,,,,,,,,,,,,,,,,,,,,,,,,,,,,,,,0,0,0,2,1,,,,,,,,,,,,,,,,,,,,,,,,,,,,,,,,,,,,,,,,,,,,,,
568321,001,2022-11-20_23h59.43.936,Info_measure_main_exp,2022.2.2,Win32,60.07449237,,,,,,,,,,,,,,,,,,masks/mask_001.jpg,,,,,,,,,,,,,,,,,,,,,,,,,,,,,,,,,,,,,,,,,,,0,1,1,0,1,,,,,,,,,,,,,,,,,,,,,,,,,,,,,,,,,,,,,,,,,,,,,,
568321,001,2022-11-20_23h59.43.936,Info_measure_main_exp,2022.2.2,Win32,60.07449237,,,,,,,,,,,,,,,,,,masks/mask_004.jpg,,,,,,,,,,,,,,,,,,,,,,,,,,,,,,,,,,,,,,,,,,,0,2,2,3,1,,,,,,,,,,,,,,,,,,,,,,,,,,,,,,,,,,,,,,,,,,,,,,
568321,001,2022-11-20_23h59.43.936,Info_measure_main_exp,2022.2.2,Win32,60.07449237,,,,,,,,,,,,,,,,,,masks/mask_005.jpg,,,,,,,,,,,,,,,,,,,,,,,,,,,,,,,,,,,,,,,,,,,0,3,3,4,1,,,,,,,,,,,,,,,,,,,,,,,,,,,,,,,,,,,,,,,,,,,,,,
568321,001,2022-11-20_23h59.43.936,Info_measure_main_exp,2022.2.2,Win32,60.07449237,,,,,,,,,,,,,,,,,,masks/mask_002.jpg,,,,,,,,,,,,,,,,,,,,,,,,,,,,,,,,,,,,,,,,,,,0,4,4,1,1,,,,,,,,,,,,,,,,,,,,,,,,,,,,,,,,,,,,,,,,,,,,,,
568321,001,2022-11-20_23h59.43.936,Info_measure_main_exp,2022.2.2,Win32,60.07449237,,,,,,,,,,,,,,,,,,masks/mask_003.jpg,,,,,,,,,,,,,,,,,,,,,,,,,,,,,,,,,,,,,,,,,,,,,,,,0,0,0,2,1,,,,,,,,,,,,,,,,,,,,,,,,,,,,,,,,,,,,,,,,,
568321,001,2022-11-20_23h59.43.936,Info_measure_main_exp,2022.2.2,Win32,60.07449237,,,,,,,,,,,,,,,,,,masks/mask_004.jpg,,,,,,,,,,,,,,,,,,,,,,,,,,,,,,,,,,,,,,,,,,,,,,,,0,1,1,3,1,,,,,,,,,,,,,,,,,,,,,,,,,,,,,,,,,,,,,,,,,
568321,001,2022-11-20_23h59.43.936,Info_measure_main_exp,2022.2.2,Win32,60.07449237,,,,,,,,,,,,,,,,,,masks/mask_002.jpg,,,,,,,,,,,,,,,,,,,,,,,,,,,,,,,,,,,,,,,,,,,,,,,,0,2,2,1,1,,,,,,,,,,,,,,,,,,,,,,,,,,,,,,,,,,,,,,,,,
568321,001,2022-11-20_23h59.43.936,Info_measure_main_exp,2022.2.2,Win32,60.07449237,,,,,,,,,,,,,,,,,,masks/mask_001.jpg,,,,,,,,,,,,,,,,,,,,,,,,,,,,,,,,,,,,,,,,,,,,,,,,0,3,3,0,1,,,,,,,,,,,,,,,,,,,,,,,,,,,,,,,,,,,,,,,,,
568321,001,2022-11-20_23h59.43.936,Info_measure_main_exp,2022.2.2,Win32,60.07449237,,,,,,,,,,,,,,,,,,masks/mask_005.jpg,,,,,,,,,,,,,,,,,,,,,,,,,,,,,,,,,,,,,,,,,,,,,,,,0,4,4,4,1,,,,,,,,,,,,,,,,,,,,,,,,,,,,,,,,,,,,,,,,,
568321,001,2022-11-20_23h59.43.936,Info_measure_main_exp,2022.2.2,Win32,60.07449237,,,,,,,,,,,,,,,,,,,,,,,,,,,,,,5,1.517,1,,,,,,,,,,,,0,131,5,5,2178,2166,absent_patch/patch0002178.jpg,absent_patch/patch0002166.jpg,,,,,,,,,,,,,,,,,,,,0.058333362,-0.046296296,1,0,0,response3disk,14,-0.001851824,-0.002777771,1,0,0,center_square,0,13,13,72,1,,,,,,,,,,,,,,,,,,,,,,,
568321,001,2022-11-20_23h59.43.936,Info_measure_main_exp,2022.2.2,Win32,60.07449237,,,,,,,,,,,,,,,,,,masks/mask_001.jpg,,,,,,,,,,,,,,,,,,,,,,,,,,,,,,,,,,,,,,,,,,,0,0,0,0,1,,,,,,,,,,,,,,,,,,,,,,,,,,,,,,,,,,,,,,,,,,,,,,
568321,001,2022-11-20_23h59.43.936,Info_measure_main_exp,2022.2.2,Win32,60.07449237,,,,,,,,,,,,,,,,,,masks/mask_002.jpg,,,,,,,,,,,,,,,,,,,,,,,,,,,,,,,,,,,,,,,,,,,0,1,1,1,1,,,,,,,,,,,,,,,,,,,,,,,,,,,,,,,,,,,,,,,,,,,,,,
568321,001,2022-11-20_23h59.43.936,Info_measure_main_exp,2022.2.2,Win32,60.07449237,,,,,,,,,,,,,,,,,,masks/mask_005.jpg,,,,,,,,,,,,,,,,,,,,,,,,,,,,,,,,,,,,,,,,,,,0,2,2,4,1,,,,,,,,,,,,,,,,,,,,,,,,,,,,,,,,,,,,,,,,,,,,,,
568321,001,2022-11-20_23h59.43.936,Info_measure_main_exp,2022.2.2,Win32,60.07449237,,,,,,,,,,,,,,,,,,masks/mask_004.jpg,,,,,,,,,,,,,,,,,,,,,,,,,,,,,,,,,,,,,,,,,,,0,3,3,3,1,,,,,,,,,,,,,,,,,,,,,,,,,,,,,,,,,,,,,,,,,,,,,,
568321,001,2022-11-20_23h59.43.936,Info_measure_main_exp,2022.2.2,Win32,60.07449237,,,,,,,,,,,,,,,,,,masks/mask_003.jpg,,,,,,,,,,,,,,,,,,,,,,,,,,,,,,,,,,,,,,,,,,,0,4,4,2,1,,,,,,,,,,,,,,,,,,,,,,,,,,,,,,,,,,,,,,,,,,,,,,
568321,001,2022-11-20_23h59.43.936,Info_measure_main_exp,2022.2.2,Win32,60.07449237,,,,,,,,,,,,,,,,,,masks/mask_001.jpg,,,,,,,,,,,,,,,,,,,,,,,,,,,,,,,,,,,,,,,,,,,,,,,,0,0,0,0,1,,,,,,,,,,,,,,,,,,,,,,,,,,,,,,,,,,,,,,,,,
568321,001,2022-11-20_23h59.43.936,Info_measure_main_exp,2022.2.2,Win32,60.07449237,,,,,,,,,,,,,,,,,,masks/mask_005.jpg,,,,,,,,,,,,,,,,,,,,,,,,,,,,,,,,,,,,,,,,,,,,,,,,0,1,1,4,1,,,,,,,,,,,,,,,,,,,,,,,,,,,,,,,,,,,,,,,,,
568321,001,2022-11-20_23h59.43.936,Info_measure_main_exp,2022.2.2,Win32,60.07449237,,,,,,,,,,,,,,,,,,masks/mask_002.jpg,,,,,,,,,,,,,,,,,,,,,,,,,,,,,,,,,,,,,,,,,,,,,,,,0,2,2,1,1,,,,,,,,,,,,,,,,,,,,,,,,,,,,,,,,,,,,,,,,,
568321,001,2022-11-20_23h59.43.936,Info_measure_main_exp,2022.2.2,Win32,60.07449237,,,,,,,,,,,,,,,,,,masks/mask_003.jpg,,,,,,,,,,,,,,,,,,,,,,,,,,,,,,,,,,,,,,,,,,,,,,,,0,3,3,2,1,,,,,,,,,,,,,,,,,,,,,,,,,,,,,,,,,,,,,,,,,
568321,001,2022-11-20_23h59.43.936,Info_measure_main_exp,2022.2.2,Win32,60.07449237,,,,,,,,,,,,,,,,,,masks/mask_004.jpg,,,,,,,,,,,,,,,,,,,,,,,,,,,,,,,,,,,,,,,,,,,,,,,,0,4,4,3,1,,,,,,,,,,,,,,,,,,,,,,,,,,,,,,,,,,,,,,,,,
568321,001,2022-11-20_23h59.43.936,Info_measure_main_exp,2022.2.2,Win32,60.07449237,,,,,,,,,,,,,,,,,,,,,,,,,,,,,,7,1.0171,1,,,,,,,,,,,,0,131,5,5,2154,1974,absent_patch/patch0002154.jpg,absent_patch/patch0001974.jpg,,,,,,,,,,,,,,,,,,,,0.062962991,0.097222222,1,0,0,response1disk,15,-0.005555541,0,1,0,0,center_square,0,14,14,82,1,,,,,,,,,,,,,,,,,,,,,,,
568321,001,2022-11-20_23h59.43.936,Info_measure_main_exp,2022.2.2,Win32,60.07449237,,,,,,,,,,,,,,,,,,masks/mask_004.jpg,,,,,,,,,,,,,,,,,,,,,,,,,,,,,,,,,,,,,,,,,,,0,0,0,3,1,,,,,,,,,,,,,,,,,,,,,,,,,,,,,,,,,,,,,,,,,,,,,,
568321,001,2022-11-20_23h59.43.936,Info_measure_main_exp,2022.2.2,Win32,60.07449237,,,,,,,,,,,,,,,,,,masks/mask_003.jpg,,,,,,,,,,,,,,,,,,,,,,,,,,,,,,,,,,,,,,,,,,,0,1,1,2,1,,,,,,,,,,,,,,,,,,,,,,,,,,,,,,,,,,,,,,,,,,,,,,
568321,001,2022-11-20_23h59.43.936,Info_measure_main_exp,2022.2.2,Win32,60.07449237,,,,,,,,,,,,,,,,,,masks/mask_001.jpg,,,,,,,,,,,,,,,,,,,,,,,,,,,,,,,,,,,,,,,,,,,0,2,2,0,1,,,,,,,,,,,,,,,,,,,,,,,,,,,,,,,,,,,,,,,,,,,,,,
568321,001,2022-11-20_23h59.43.936,Info_measure_main_exp,2022.2.2,Win32,60.07449237,,,,,,,,,,,,,,,,,,masks/mask_005.jpg,,,,,,,,,,,,,,,,,,,,,,,,,,,,,,,,,,,,,,,,,,,0,3,3,4,1,,,,,,,,,,,,,,,,,,,,,,,,,,,,,,,,,,,,,,,,,,,,,,
568321,001,2022-11-20_23h59.43.936,Info_measure_main_exp,2022.2.2,Win32,60.07449237,,,,,,,,,,,,,,,,,,masks/mask_002.jpg,,,,,,,,,,,,,,,,,,,,,,,,,,,,,,,,,,,,,,,,,,,0,4,4,1,1,,,,,,,,,,,,,,,,,,,,,,,,,,,,,,,,,,,,,,,,,,,,,,
568321,001,2022-11-20_23h59.43.936,Info_measure_main_exp,2022.2.2,Win32,60.07449237,,,,,,,,,,,,,,,,,,masks/mask_003.jpg,,,,,,,,,,,,,,,,,,,,,,,,,,,,,,,,,,,,,,,,,,,,,,,,0,0,0,2,1,,,,,,,,,,,,,,,,,,,,,,,,,,,,,,,,,,,,,,,,,
568321,001,2022-11-20_23h59.43.936,Info_measure_main_exp,2022.2.2,Win32,60.07449237,,,,,,,,,,,,,,,,,,masks/mask_004.jpg,,,,,,,,,,,,,,,,,,,,,,,,,,,,,,,,,,,,,,,,,,,,,,,,0,1,1,3,1,,,,,,,,,,,,,,,,,,,,,,,,,,,,,,,,,,,,,,,,,
568321,001,2022-11-20_23h59.43.936,Info_measure_main_exp,2022.2.2,Win32,60.07449237,,,,,,,,,,,,,,,,,,masks/mask_005.jpg,,,,,,,,,,,,,,,,,,,,,,,,,,,,,,,,,,,,,,,,,,,,,,,,0,2,2,4,1,,,,,,,,,,,,,,,,,,,,,,,,,,,,,,,,,,,,,,,,,
568321,001,2022-11-20_23h59.43.936,Info_measure_main_exp,2022.2.2,Win32,60.07449237,,,,,,,,,,,,,,,,,,masks/mask_002.jpg,,,,,,,,,,,,,,,,,,,,,,,,,,,,,,,,,,,,,,,,,,,,,,,,0,3,3,1,1,,,,,,,,,,,,,,,,,,,,,,,,,,,,,,,,,,,,,,,,,
568321,001,2022-11-20_23h59.43.936,Info_measure_main_exp,2022.2.2,Win32,60.07449237,,,,,,,,,,,,,,,,,,masks/mask_001.jpg,,,,,,,,,,,,,,,,,,,,,,,,,,,,,,,,,,,,,,,,,,,,,,,,0,4,4,0,1,,,,,,,,,,,,,,,,,,,,,,,,,,,,,,,,,,,,,,,,,
568321,001,2022-11-20_23h59.43.936,Info_measure_main_exp,2022.2.2,Win32,60.07449237,,,,,,,,,,,,,,,,,,,,,,,,,,,,,,1,2.3336,1,,,,,,,,,,,,0,131,5,5,1974,1950,absent_patch/patch0001974.jpg,absent_patch/patch0001950.jpg,,,,,,,,,,,,,,,,,,,,-0.118518476,0.045370349,1,0,0,response7disk,16,-0.009259259,0,1,0,0,center_square,0,15,15,17,1,,,,,,,,,,,,,,,,,,,,,,,
568321,001,2022-11-20_23h59.43.936,Info_measure_main_exp,2022.2.2,Win32,60.07449237,,,,,,,,,,,,,,,,,,masks/mask_002.jpg,,,,,,,,,,,,,,,,,,,,,,,,,,,,,,,,,,,,,,,,,,,0,0,0,1,1,,,,,,,,,,,,,,,,,,,,,,,,,,,,,,,,,,,,,,,,,,,,,,
568321,001,2022-11-20_23h59.43.936,Info_measure_main_exp,2022.2.2,Win32,60.07449237,,,,,,,,,,,,,,,,,,masks/mask_001.jpg,,,,,,,,,,,,,,,,,,,,,,,,,,,,,,,,,,,,,,,,,,,0,1,1,0,1,,,,,,,,,,,,,,,,,,,,,,,,,,,,,,,,,,,,,,,,,,,,,,
568321,001,2022-11-20_23h59.43.936,Info_measure_main_exp,2022.2.2,Win32,60.07449237,,,,,,,,,,,,,,,,,,masks/mask_004.jpg,,,,,,,,,,,,,,,,,,,,,,,,,,,,,,,,,,,,,,,,,,,0,2,2,3,1,,,,,,,,,,,,,,,,,,,,,,,,,,,,,,,,,,,,,,,,,,,,,,
568321,001,2022-11-20_23h59.43.936,Info_measure_main_exp,2022.2.2,Win32,60.07449237,,,,,,,,,,,,,,,,,,masks/mask_005.jpg,,,,,,,,,,,,,,,,,,,,,,,,,,,,,,,,,,,,,,,,,,,0,3,3,4,1,,,,,,,,,,,,,,,,,,,,,,,,,,,,,,,,,,,,,,,,,,,,,,
568321,001,2022-11-20_23h59.43.936,Info_measure_main_exp,2022.2.2,Win32,60.07449237,,,,,,,,,,,,,,,,,,masks/mask_003.jpg,,,,,,,,,,,,,,,,,,,,,,,,,,,,,,,,,,,,,,,,,,,0,4,4,2,1,,,,,,,,,,,,,,,,,,,,,,,,,,,,,,,,,,,,,,,,,,,,,,
568321,001,2022-11-20_23h59.43.936,Info_measure_main_exp,2022.2.2,Win32,60.07449237,,,,,,,,,,,,,,,,,,masks/mask_001.jpg,,,,,,,,,,,,,,,,,,,,,,,,,,,,,,,,,,,,,,,,,,,,,,,,0,0,0,0,1,,,,,,,,,,,,,,,,,,,,,,,,,,,,,,,,,,,,,,,,,
568321,001,2022-11-20_23h59.43.936,Info_measure_main_exp,2022.2.2,Win32,60.07449237,,,,,,,,,,,,,,,,,,masks/mask_003.jpg,,,,,,,,,,,,,,,,,,,,,,,,,,,,,,,,,,,,,,,,,,,,,,,,0,1,1,2,1,,,,,,,,,,,,,,,,,,,,,,,,,,,,,,,,,,,,,,,,,
568321,001,2022-11-20_23h59.43.936,Info_measure_main_exp,2022.2.2,Win32,60.07449237,,,,,,,,,,,,,,,,,,masks/mask_002.jpg,,,,,,,,,,,,,,,,,,,,,,,,,,,,,,,,,,,,,,,,,,,,,,,,0,2,2,1,1,,,,,,,,,,,,,,,,,,,,,,,,,,,,,,,,,,,,,,,,,
568321,001,2022-11-20_23h59.43.936,Info_measure_main_exp,2022.2.2,Win32,60.07449237,,,,,,,,,,,,,,,,,,masks/mask_005.jpg,,,,,,,,,,,,,,,,,,,,,,,,,,,,,,,,,,,,,,,,,,,,,,,,0,3,3,4,1,,,,,,,,,,,,,,,,,,,,,,,,,,,,,,,,,,,,,,,,,
568321,001,2022-11-20_23h59.43.936,Info_measure_main_exp,2022.2.2,Win32,60.07449237,,,,,,,,,,,,,,,,,,masks/mask_004.jpg,,,,,,,,,,,,,,,,,,,,,,,,,,,,,,,,,,,,,,,,,,,,,,,,0,4,4,3,1,,,,,,,,,,,,,,,,,,,,,,,,,,,,,,,,,,,,,,,,,
568321,001,2022-11-20_23h59.43.936,Info_measure_main_exp,2022.2.2,Win32,60.07449237,,,,,,,,,,,,,,,,,,,,,,,,,,,,,,3,1.2508,1,,,,,,,,,,,,0,131,5,5,2190,2082,absent_patch/patch0002190.jpg,absent_patch/patch0002082.jpg,,,,,,,,,,,,,,,,,,,,-0.02870369,-0.08888891,1,0,0,response5disk,17,0.008333347,-0.001851859,1,0,0,center_square,0,16,16,112,1,,,,,,,,,,,,,,,,,,,,,,,
568321,001,2022-11-20_23h59.43.936,Info_measure_main_exp,2022.2.2,Win32,60.07449237,,,,,,,,,,,,,,,,,,masks/mask_005.jpg,,,,,,,,,,,,,,,,,,,,,,,,,,,,,,,,,,,,,,,,,,,0,0,0,4,1,,,,,,,,,,,,,,,,,,,,,,,,,,,,,,,,,,,,,,,,,,,,,,
568321,001,2022-11-20_23h59.43.936,Info_measure_main_exp,2022.2.2,Win32,60.07449237,,,,,,,,,,,,,,,,,,masks/mask_004.jpg,,,,,,,,,,,,,,,,,,,,,,,,,,,,,,,,,,,,,,,,,,,0,1,1,3,1,,,,,,,,,,,,,,,,,,,,,,,,,,,,,,,,,,,,,,,,,,,,,,
568321,001,2022-11-20_23h59.43.936,Info_measure_main_exp,2022.2.2,Win32,60.07449237,,,,,,,,,,,,,,,,,,masks/mask_003.jpg,,,,,,,,,,,,,,,,,,,,,,,,,,,,,,,,,,,,,,,,,,,0,2,2,2,1,,,,,,,,,,,,,,,,,,,,,,,,,,,,,,,,,,,,,,,,,,,,,,
568321,001,2022-11-20_23h59.43.936,Info_measure_main_exp,2022.2.2,Win32,60.07449237,,,,,,,,,,,,,,,,,,masks/mask_001.jpg,,,,,,,,,,,,,,,,,,,,,,,,,,,,,,,,,,,,,,,,,,,0,3,3,0,1,,,,,,,,,,,,,,,,,,,,,,,,,,,,,,,,,,,,,,,,,,,,,,
568321,001,2022-11-20_23h59.43.936,Info_measure_main_exp,2022.2.2,Win32,60.07449237,,,,,,,,,,,,,,,,,,masks/mask_002.jpg,,,,,,,,,,,,,,,,,,,,,,,,,,,,,,,,,,,,,,,,,,,0,4,4,1,1,,,,,,,,,,,,,,,,,,,,,,,,,,,,,,,,,,,,,,,,,,,,,,
568321,001,2022-11-20_23h59.43.936,Info_measure_main_exp,2022.2.2,Win32,60.07449237,,,,,,,,,,,,,,,,,,masks/mask_004.jpg,,,,,,,,,,,,,,,,,,,,,,,,,,,,,,,,,,,,,,,,,,,,,,,,0,0,0,3,1,,,,,,,,,,,,,,,,,,,,,,,,,,,,,,,,,,,,,,,,,
568321,001,2022-11-20_23h59.43.936,Info_measure_main_exp,2022.2.2,Win32,60.07449237,,,,,,,,,,,,,,,,,,masks/mask_005.jpg,,,,,,,,,,,,,,,,,,,,,,,,,,,,,,,,,,,,,,,,,,,,,,,,0,1,1,4,1,,,,,,,,,,,,,,,,,,,,,,,,,,,,,,,,,,,,,,,,,
568321,001,2022-11-20_23h59.43.936,Info_measure_main_exp,2022.2.2,Win32,60.07449237,,,,,,,,,,,,,,,,,,masks/mask_003.jpg,,,,,,,,,,,,,,,,,,,,,,,,,,,,,,,,,,,,,,,,,,,,,,,,0,2,2,2,1,,,,,,,,,,,,,,,,,,,,,,,,,,,,,,,,,,,,,,,,,
568321,001,2022-11-20_23h59.43.936,Info_measure_main_exp,2022.2.2,Win32,60.07449237,,,,,,,,,,,,,,,,,,masks/mask_002.jpg,,,,,,,,,,,,,,,,,,,,,,,,,,,,,,,,,,,,,,,,,,,,,,,,0,3,3,1,1,,,,,,,,,,,,,,,,,,,,,,,,,,,,,,,,,,,,,,,,,
568321,001,2022-11-20_23h59.43.936,Info_measure_main_exp,2022.2.2,Win32,60.07449237,,,,,,,,,,,,,,,,,,masks/mask_001.jpg,,,,,,,,,,,,,,,,,,,,,,,,,,,,,,,,,,,,,,,,,,,,,,,,0,4,4,0,1,,,,,,,,,,,,,,,,,,,,,,,,,,,,,,,,,,,,,,,,,
568321,001,2022-11-20_23h59.43.936,Info_measure_main_exp,2022.2.2,Win32,60.07449237,,,,,,,,,,,,,,,,,,,,,,,,,,,,,,0,0.8341,1,,,,,,,,,,,,0,131,5,5,2250,2250,absent_patch/patch0002250.jpg,absent_patch/patch0002250.jpg,,,,,,,,,,,,,,,,,,,,-0.054629644,0.111111111,1,0,0,response7disk,18,-0.002777735,0.009259259,1,0,0,center_square,0,17,17,56,1,,,,,,,,,,,,,,,,,,,,,,,
568321,001,2022-11-20_23h59.43.936,Info_measure_main_exp,2022.2.2,Win32,60.07449237,,,,,,,,,,,,,,,,,,masks/mask_003.jpg,,,,,,,,,,,,,,,,,,,,,,,,,,,,,,,,,,,,,,,,,,,0,0,0,2,1,,,,,,,,,,,,,,,,,,,,,,,,,,,,,,,,,,,,,,,,,,,,,,
568321,001,2022-11-20_23h59.43.936,Info_measure_main_exp,2022.2.2,Win32,60.07449237,,,,,,,,,,,,,,,,,,masks/mask_001.jpg,,,,,,,,,,,,,,,,,,,,,,,,,,,,,,,,,,,,,,,,,,,0,1,1,0,1,,,,,,,,,,,,,,,,,,,,,,,,,,,,,,,,,,,,,,,,,,,,,,
568321,001,2022-11-20_23h59.43.936,Info_measure_main_exp,2022.2.2,Win32,60.07449237,,,,,,,,,,,,,,,,,,masks/mask_004.jpg,,,,,,,,,,,,,,,,,,,,,,,,,,,,,,,,,,,,,,,,,,,0,2,2,3,1,,,,,,,,,,,,,,,,,,,,,,,,,,,,,,,,,,,,,,,,,,,,,,
568321,001,2022-11-20_23h59.43.936,Info_measure_main_exp,2022.2.2,Win32,60.07449237,,,,,,,,,,,,,,,,,,masks/mask_002.jpg,,,,,,,,,,,,,,,,,,,,,,,,,,,,,,,,,,,,,,,,,,,0,3,3,1,1,,,,,,,,,,,,,,,,,,,,,,,,,,,,,,,,,,,,,,,,,,,,,,
568321,001,2022-11-20_23h59.43.936,Info_measure_main_exp,2022.2.2,Win32,60.07449237,,,,,,,,,,,,,,,,,,masks/mask_005.jpg,,,,,,,,,,,,,,,,,,,,,,,,,,,,,,,,,,,,,,,,,,,0,4,4,4,1,,,,,,,,,,,,,,,,,,,,,,,,,,,,,,,,,,,,,,,,,,,,,,
568321,001,2022-11-20_23h59.43.936,Info_measure_main_exp,2022.2.2,Win32,60.07449237,,,,,,,,,,,,,,,,,,masks/mask_003.jpg,,,,,,,,,,,,,,,,,,,,,,,,,,,,,,,,,,,,,,,,,,,,,,,,0,0,0,2,1,,,,,,,,,,,,,,,,,,,,,,,,,,,,,,,,,,,,,,,,,
568321,001,2022-11-20_23h59.43.936,Info_measure_main_exp,2022.2.2,Win32,60.07449237,,,,,,,,,,,,,,,,,,masks/mask_004.jpg,,,,,,,,,,,,,,,,,,,,,,,,,,,,,,,,,,,,,,,,,,,,,,,,0,1,1,3,1,,,,,,,,,,,,,,,,,,,,,,,,,,,,,,,,,,,,,,,,,
568321,001,2022-11-20_23h59.43.936,Info_measure_main_exp,2022.2.2,Win32,60.07449237,,,,,,,,,,,,,,,,,,masks/mask_005.jpg,,,,,,,,,,,,,,,,,,,,,,,,,,,,,,,,,,,,,,,,,,,,,,,,0,2,2,4,1,,,,,,,,,,,,,,,,,,,,,,,,,,,,,,,,,,,,,,,,,
568321,001,2022-11-20_23h59.43.936,Info_measure_main_exp,2022.2.2,Win32,60.07449237,,,,,,,,,,,,,,,,,,masks/mask_002.jpg,,,,,,,,,,,,,,,,,,,,,,,,,,,,,,,,,,,,,,,,,,,,,,,,0,3,3,1,1,,,,,,,,,,,,,,,,,,,,,,,,,,,,,,,,,,,,,,,,,
568321,001,2022-11-20_23h59.43.936,Info_measure_main_exp,2022.2.2,Win32,60.07449237,,,,,,,,,,,,,,,,,,masks/mask_001.jpg,,,,,,,,,,,,,,,,,,,,,,,,,,,,,,,,,,,,,,,,,,,,,,,,0,4,4,0,1,,,,,,,,,,,,,,,,,,,,,,,,,,,,,,,,,,,,,,,,,
568321,001,2022-11-20_23h59.43.936,Info_measure_main_exp,2022.2.2,Win32,60.07449237,,,,,,,,,,,,,,,,,,,,,,,,,,,,,,0,0.606,1,,,,,,,,,,,,0,131,5,5,1986,1986,absent_patch/patch0001986.jpg,absent_patch/patch0001986.jpg,,,,,,,,,,,,,,,,,,,,-0.044444402,0.111111111,1,0,0,response7disk,19,-0.002777735,-0.003703718,1,0,0,center_square,0,18,18,19,1,,,,,,,,,,,,,,,,,,,,,,,
568321,001,2022-11-20_23h59.43.936,Info_measure_main_exp,2022.2.2,Win32,60.07449237,,,,,,,,,,,,,,,,,,masks/mask_003.jpg,,,,,,,,,,,,,,,,,,,,,,,,,,,,,,,,,,,,,,,,,,,0,0,0,2,1,,,,,,,,,,,,,,,,,,,,,,,,,,,,,,,,,,,,,,,,,,,,,,
568321,001,2022-11-20_23h59.43.936,Info_measure_main_exp,2022.2.2,Win32,60.07449237,,,,,,,,,,,,,,,,,,masks/mask_002.jpg,,,,,,,,,,,,,,,,,,,,,,,,,,,,,,,,,,,,,,,,,,,0,1,1,1,1,,,,,,,,,,,,,,,,,,,,,,,,,,,,,,,,,,,,,,,,,,,,,,
568321,001,2022-11-20_23h59.43.936,Info_measure_main_exp,2022.2.2,Win32,60.07449237,,,,,,,,,,,,,,,,,,masks/mask_005.jpg,,,,,,,,,,,,,,,,,,,,,,,,,,,,,,,,,,,,,,,,,,,0,2,2,4,1,,,,,,,,,,,,,,,,,,,,,,,,,,,,,,,,,,,,,,,,,,,,,,
568321,001,2022-11-20_23h59.43.936,Info_measure_main_exp,2022.2.2,Win32,60.07449237,,,,,,,,,,,,,,,,,,masks/mask_001.jpg,,,,,,,,,,,,,,,,,,,,,,,,,,,,,,,,,,,,,,,,,,,0,3,3,0,1,,,,,,,,,,,,,,,,,,,,,,,,,,,,,,,,,,,,,,,,,,,,,,
568321,001,2022-11-20_23h59.43.936,Info_measure_main_exp,2022.2.2,Win32,60.07449237,,,,,,,,,,,,,,,,,,masks/mask_004.jpg,,,,,,,,,,,,,,,,,,,,,,,,,,,,,,,,,,,,,,,,,,,0,4,4,3,1,,,,,,,,,,,,,,,,,,,,,,,,,,,,,,,,,,,,,,,,,,,,,,
568321,001,2022-11-20_23h59.43.936,Info_measure_main_exp,2022.2.2,Win32,60.07449237,,,,,,,,,,,,,,,,,,masks/mask_003.jpg,,,,,,,,,,,,,,,,,,,,,,,,,,,,,,,,,,,,,,,,,,,,,,,,0,0,0,2,1,,,,,,,,,,,,,,,,,,,,,,,,,,,,,,,,,,,,,,,,,
568321,001,2022-11-20_23h59.43.936,Info_measure_main_exp,2022.2.2,Win32,60.07449237,,,,,,,,,,,,,,,,,,masks/mask_001.jpg,,,,,,,,,,,,,,,,,,,,,,,,,,,,,,,,,,,,,,,,,,,,,,,,0,1,1,0,1,,,,,,,,,,,,,,,,,,,,,,,,,,,,,,,,,,,,,,,,,
568321,001,2022-11-20_23h59.43.936,Info_measure_main_exp,2022.2.2,Win32,60.07449237,,,,,,,,,,,,,,,,,,masks/mask_005.jpg,,,,,,,,,,,,,,,,,,,,,,,,,,,,,,,,,,,,,,,,,,,,,,,,0,2,2,4,1,,,,,,,,,,,,,,,,,,,,,,,,,,,,,,,,,,,,,,,,,
568321,001,2022-11-20_23h59.43.936,Info_measure_main_exp,2022.2.2,Win32,60.07449237,,,,,,,,,,,,,,,,,,masks/mask_004.jpg,,,,,,,,,,,,,,,,,,,,,,,,,,,,,,,,,,,,,,,,,,,,,,,,0,3,3,3,1,,,,,,,,,,,,,,,,,,,,,,,,,,,,,,,,,,,,,,,,,
568321,001,2022-11-20_23h59.43.936,Info_measure_main_exp,2022.2.2,Win32,60.07449237,,,,,,,,,,,,,,,,,,masks/mask_002.jpg,,,,,,,,,,,,,,,,,,,,,,,,,,,,,,,,,,,,,,,,,,,,,,,,0,4,4,1,1,,,,,,,,,,,,,,,,,,,,,,,,,,,,,,,,,,,,,,,,,
568321,001,2022-11-20_23h59.43.936,Info_measure_main_exp,2022.2.2,Win32,60.07449237,,,,,,,,,,,,,,,,,,,,,,,,,,,,,,6,1.4662,1,,,,,,,,,,,,0,131,5,5,2238,2166,absent_patch/patch0002238.jpg,absent_patch/patch0002166.jpg,,,,,,,,,,,,,,,,,,,,0.090740769,0.015740748,1,0,0,response1disk,20,0.011111153,0.00462963,1,0,0,center_square,0,19,19,118,1,,,,,,,,,,,,,,,,,,,,,,,
568321,001,2022-11-20_23h59.43.936,Info_measure_main_exp,2022.2.2,Win32,60.07449237,,,,,,,,,,,,,,,,,,masks/mask_003.jpg,,,,,,,,,,,,,,,,,,,,,,,,,,,,,,,,,,,,,,,,,,,0,0,0,2,1,,,,,,,,,,,,,,,,,,,,,,,,,,,,,,,,,,,,,,,,,,,,,,
568321,001,2022-11-20_23h59.43.936,Info_measure_main_exp,2022.2.2,Win32,60.07449237,,,,,,,,,,,,,,,,,,masks/mask_004.jpg,,,,,,,,,,,,,,,,,,,,,,,,,,,,,,,,,,,,,,,,,,,0,1,1,3,1,,,,,,,,,,,,,,,,,,,,,,,,,,,,,,,,,,,,,,,,,,,,,,
568321,001,2022-11-20_23h59.43.936,Info_measure_main_exp,2022.2.2,Win32,60.07449237,,,,,,,,,,,,,,,,,,masks/mask_001.jpg,,,,,,,,,,,,,,,,,,,,,,,,,,,,,,,,,,,,,,,,,,,0,2,2,0,1,,,,,,,,,,,,,,,,,,,,,,,,,,,,,,,,,,,,,,,,,,,,,,
568321,001,2022-11-20_23h59.43.936,Info_measure_main_exp,2022.2.2,Win32,60.07449237,,,,,,,,,,,,,,,,,,masks/mask_005.jpg,,,,,,,,,,,,,,,,,,,,,,,,,,,,,,,,,,,,,,,,,,,0,3,3,4,1,,,,,,,,,,,,,,,,,,,,,,,,,,,,,,,,,,,,,,,,,,,,,,
568321,001,2022-11-20_23h59.43.936,Info_measure_main_exp,2022.2.2,Win32,60.07449237,,,,,,,,,,,,,,,,,,masks/mask_002.jpg,,,,,,,,,,,,,,,,,,,,,,,,,,,,,,,,,,,,,,,,,,,0,4,4,1,1,,,,,,,,,,,,,,,,,,,,,,,,,,,,,,,,,,,,,,,,,,,,,,
568321,001,2022-11-20_23h59.43.936,Info_measure_main_exp,2022.2.2,Win32,60.07449237,,,,,,,,,,,,,,,,,,masks/mask_003.jpg,,,,,,,,,,,,,,,,,,,,,,,,,,,,,,,,,,,,,,,,,,,,,,,,0,0,0,2,1,,,,,,,,,,,,,,,,,,,,,,,,,,,,,,,,,,,,,,,,,
568321,001,2022-11-20_23h59.43.936,Info_measure_main_exp,2022.2.2,Win32,60.07449237,,,,,,,,,,,,,,,,,,masks/mask_004.jpg,,,,,,,,,,,,,,,,,,,,,,,,,,,,,,,,,,,,,,,,,,,,,,,,0,1,1,3,1,,,,,,,,,,,,,,,,,,,,,,,,,,,,,,,,,,,,,,,,,
568321,001,2022-11-20_23h59.43.936,Info_measure_main_exp,2022.2.2,Win32,60.07449237,,,,,,,,,,,,,,,,,,masks/mask_001.jpg,,,,,,,,,,,,,,,,,,,,,,,,,,,,,,,,,,,,,,,,,,,,,,,,0,2,2,0,1,,,,,,,,,,,,,,,,,,,,,,,,,,,,,,,,,,,,,,,,,
568321,001,2022-11-20_23h59.43.936,Info_measure_main_exp,2022.2.2,Win32,60.07449237,,,,,,,,,,,,,,,,,,masks/mask_002.jpg,,,,,,,,,,,,,,,,,,,,,,,,,,,,,,,,,,,,,,,,,,,,,,,,0,3,3,1,1,,,,,,,,,,,,,,,,,,,,,,,,,,,,,,,,,,,,,,,,,
568321,001,2022-11-20_23h59.43.936,Info_measure_main_exp,2022.2.2,Win32,60.07449237,,,,,,,,,,,,,,,,,,masks/mask_005.jpg,,,,,,,,,,,,,,,,,,,,,,,,,,,,,,,,,,,,,,,,,,,,,,,,0,4,4,4,1,,,,,,,,,,,,,,,,,,,,,,,,,,,,,,,,,,,,,,,,,
568321,001,2022-11-20_23h59.43.936,Info_measure_main_exp,2022.2.2,Win32,60.07449237,,,,,,,,,,,,,,,,,,,,,,,,,,,,,,5,0.7838,1,,,,,,,,,,,,1,131,5,5,2250,1,absent_patch/patch0002250.jpg,present_patch/cong_131_5_a.jpg,,,,,,,,,,,,,,,,,,,,0.037962949,-0.035185178,1,0,0,response3disk,21,-0.001851824,0.01203703,1,0,0,center_square,0,20,20,5,1,,,,,,,,,,,,,,,,,,,,,,,
568321,001,2022-11-20_23h59.43.936,Info_measure_main_exp,2022.2.2,Win32,60.07449237,,,,,,,,,,,,,,,,,,masks/mask_002.jpg,,,,,,,,,,,,,,,,,,,,,,,,,,,,,,,,,,,,,,,,,,,0,0,0,1,1,,,,,,,,,,,,,,,,,,,,,,,,,,,,,,,,,,,,,,,,,,,,,,
568321,001,2022-11-20_23h59.43.936,Info_measure_main_exp,2022.2.2,Win32,60.07449237,,,,,,,,,,,,,,,,,,masks/mask_004.jpg,,,,,,,,,,,,,,,,,,,,,,,,,,,,,,,,,,,,,,,,,,,0,1,1,3,1,,,,,,,,,,,,,,,,,,,,,,,,,,,,,,,,,,,,,,,,,,,,,,
568321,001,2022-11-20_23h59.43.936,Info_measure_main_exp,2022.2.2,Win32,60.07449237,,,,,,,,,,,,,,,,,,masks/mask_005.jpg,,,,,,,,,,,,,,,,,,,,,,,,,,,,,,,,,,,,,,,,,,,0,2,2,4,1,,,,,,,,,,,,,,,,,,,,,,,,,,,,,,,,,,,,,,,,,,,,,,
568321,001,2022-11-20_23h59.43.936,Info_measure_main_exp,2022.2.2,Win32,60.07449237,,,,,,,,,,,,,,,,,,masks/mask_003.jpg,,,,,,,,,,,,,,,,,,,,,,,,,,,,,,,,,,,,,,,,,,,0,3,3,2,1,,,,,,,,,,,,,,,,,,,,,,,,,,,,,,,,,,,,,,,,,,,,,,
568321,001,2022-11-20_23h59.43.936,Info_measure_main_exp,2022.2.2,Win32,60.07449237,,,,,,,,,,,,,,,,,,masks/mask_001.jpg,,,,,,,,,,,,,,,,,,,,,,,,,,,,,,,,,,,,,,,,,,,0,4,4,0,1,,,,,,,,,,,,,,,,,,,,,,,,,,,,,,,,,,,,,,,,,,,,,,
568321,001,2022-11-20_23h59.43.936,Info_measure_main_exp,2022.2.2,Win32,60.07449237,,,,,,,,,,,,,,,,,,masks/mask_001.jpg,,,,,,,,,,,,,,,,,,,,,,,,,,,,,,,,,,,,,,,,,,,,,,,,0,0,0,0,1,,,,,,,,,,,,,,,,,,,,,,,,,,,,,,,,,,,,,,,,,
568321,001,2022-11-20_23h59.43.936,Info_measure_main_exp,2022.2.2,Win32,60.07449237,,,,,,,,,,,,,,,,,,masks/mask_004.jpg,,,,,,,,,,,,,,,,,,,,,,,,,,,,,,,,,,,,,,,,,,,,,,,,0,1,1,3,1,,,,,,,,,,,,,,,,,,,,,,,,,,,,,,,,,,,,,,,,,
568321,001,2022-11-20_23h59.43.936,Info_measure_main_exp,2022.2.2,Win32,60.07449237,,,,,,,,,,,,,,,,,,masks/mask_003.jpg,,,,,,,,,,,,,,,,,,,,,,,,,,,,,,,,,,,,,,,,,,,,,,,,0,2,2,2,1,,,,,,,,,,,,,,,,,,,,,,,,,,,,,,,,,,,,,,,,,
568321,001,2022-11-20_23h59.43.936,Info_measure_main_exp,2022.2.2,Win32,60.07449237,,,,,,,,,,,,,,,,,,masks/mask_005.jpg,,,,,,,,,,,,,,,,,,,,,,,,,,,,,,,,,,,,,,,,,,,,,,,,0,3,3,4,1,,,,,,,,,,,,,,,,,,,,,,,,,,,,,,,,,,,,,,,,,
568321,001,2022-11-20_23h59.43.936,Info_measure_main_exp,2022.2.2,Win32,60.07449237,,,,,,,,,,,,,,,,,,masks/mask_002.jpg,,,,,,,,,,,,,,,,,,,,,,,,,,,,,,,,,,,,,,,,,,,,,,,,0,4,4,1,1,,,,,,,,,,,,,,,,,,,,,,,,,,,,,,,,,,,,,,,,,
568321,001,2022-11-20_23h59.43.936,Info_measure_main_exp,2022.2.2,Win32,60.07449237,,,,,,,,,,,,,,,,,,,,,,,,,,,,,,3,2.0999,1,,,,,,,,,,,,1,131,5,5,1,2274,present_patch/cong_131_5_a.jpg,absent_patch/patch0002274.jpg,,,,,,,,,,,,,,,,,,,,-0.037962949,-0.082407422,1,0,0,response5disk,22,0.001851894,0.002777771,1,0,0,center_square,0,21,21,105,1,,,,,,,,,,,,,,,,,,,,,,,
568321,001,2022-11-20_23h59.43.936,Info_measure_main_exp,2022.2.2,Win32,60.07449237,,,,,,,,,,,,,,,,,,masks/mask_003.jpg,,,,,,,,,,,,,,,,,,,,,,,,,,,,,,,,,,,,,,,,,,,0,0,0,2,1,,,,,,,,,,,,,,,,,,,,,,,,,,,,,,,,,,,,,,,,,,,,,,
568321,001,2022-11-20_23h59.43.936,Info_measure_main_exp,2022.2.2,Win32,60.07449237,,,,,,,,,,,,,,,,,,masks/mask_005.jpg,,,,,,,,,,,,,,,,,,,,,,,,,,,,,,,,,,,,,,,,,,,0,1,1,4,1,,,,,,,,,,,,,,,,,,,,,,,,,,,,,,,,,,,,,,,,,,,,,,
568321,001,2022-11-20_23h59.43.936,Info_measure_main_exp,2022.2.2,Win32,60.07449237,,,,,,,,,,,,,,,,,,masks/mask_001.jpg,,,,,,,,,,,,,,,,,,,,,,,,,,,,,,,,,,,,,,,,,,,0,2,2,0,1,,,,,,,,,,,,,,,,,,,,,,,,,,,,,,,,,,,,,,,,,,,,,,
568321,001,2022-11-20_23h59.43.936,Info_measure_main_exp,2022.2.2,Win32,60.07449237,,,,,,,,,,,,,,,,,,masks/mask_002.jpg,,,,,,,,,,,,,,,,,,,,,,,,,,,,,,,,,,,,,,,,,,,0,3,3,1,1,,,,,,,,,,,,,,,,,,,,,,,,,,,,,,,,,,,,,,,,,,,,,,
568321,001,2022-11-20_23h59.43.936,Info_measure_main_exp,2022.2.2,Win32,60.07449237,,,,,,,,,,,,,,,,,,masks/mask_004.jpg,,,,,,,,,,,,,,,,,,,,,,,,,,,,,,,,,,,,,,,,,,,0,4,4,3,1,,,,,,,,,,,,,,,,,,,,,,,,,,,,,,,,,,,,,,,,,,,,,,
568321,001,2022-11-20_23h59.43.936,Info_measure_main_exp,2022.2.2,Win32,60.07449237,,,,,,,,,,,,,,,,,,masks/mask_001.jpg,,,,,,,,,,,,,,,,,,,,,,,,,,,,,,,,,,,,,,,,,,,,,,,,0,0,0,0,1,,,,,,,,,,,,,,,,,,,,,,,,,,,,,,,,,,,,,,,,,
568321,001,2022-11-20_23h59.43.936,Info_measure_main_exp,2022.2.2,Win32,60.07449237,,,,,,,,,,,,,,,,,,masks/mask_003.jpg,,,,,,,,,,,,,,,,,,,,,,,,,,,,,,,,,,,,,,,,,,,,,,,,0,1,1,2,1,,,,,,,,,,,,,,,,,,,,,,,,,,,,,,,,,,,,,,,,,
568321,001,2022-11-20_23h59.43.936,Info_measure_main_exp,2022.2.2,Win32,60.07449237,,,,,,,,,,,,,,,,,,masks/mask_005.jpg,,,,,,,,,,,,,,,,,,,,,,,,,,,,,,,,,,,,,,,,,,,,,,,,0,2,2,4,1,,,,,,,,,,,,,,,,,,,,,,,,,,,,,,,,,,,,,,,,,
568321,001,2022-11-20_23h59.43.936,Info_measure_main_exp,2022.2.2,Win32,60.07449237,,,,,,,,,,,,,,,,,,masks/mask_004.jpg,,,,,,,,,,,,,,,,,,,,,,,,,,,,,,,,,,,,,,,,,,,,,,,,0,3,3,3,1,,,,,,,,,,,,,,,,,,,,,,,,,,,,,,,,,,,,,,,,,
568321,001,2022-11-20_23h59.43.936,Info_measure_main_exp,2022.2.2,Win32,60.07449237,,,,,,,,,,,,,,,,,,masks/mask_002.jpg,,,,,,,,,,,,,,,,,,,,,,,,,,,,,,,,,,,,,,,,,,,,,,,,0,4,4,1,1,,,,,,,,,,,,,,,,,,,,,,,,,,,,,,,,,,,,,,,,,
568321,001,2022-11-20_23h59.43.936,Info_measure_main_exp,2022.2.2,Win32,60.07449237,,,,,,,,,,,,,,,,,,,,,,,,,,,,,,1,1.2171,1,,,,,,,,,,,,0,131,5,5,1974,2178,absent_patch/patch0001974.jpg,absent_patch/patch0002178.jpg,,,,,,,,,,,,,,,,,,,,-0.054629644,0.026851831,1,0,0,response7disk,23,0.009259259,-0.006481489,1,0,0,center_square,0,22,22,44,1,,,,,,,,,,,,,,,,,,,,,,,
568321,001,2022-11-20_23h59.43.936,Info_measure_main_exp,2022.2.2,Win32,60.07449237,,,,,,,,,,,,,,,,,,masks/mask_004.jpg,,,,,,,,,,,,,,,,,,,,,,,,,,,,,,,,,,,,,,,,,,,0,0,0,3,1,,,,,,,,,,,,,,,,,,,,,,,,,,,,,,,,,,,,,,,,,,,,,,
568321,001,2022-11-20_23h59.43.936,Info_measure_main_exp,2022.2.2,Win32,60.07449237,,,,,,,,,,,,,,,,,,masks/mask_005.jpg,,,,,,,,,,,,,,,,,,,,,,,,,,,,,,,,,,,,,,,,,,,0,1,1,4,1,,,,,,,,,,,,,,,,,,,,,,,,,,,,,,,,,,,,,,,,,,,,,,
568321,001,2022-11-20_23h59.43.936,Info_measure_main_exp,2022.2.2,Win32,60.07449237,,,,,,,,,,,,,,,,,,masks/mask_003.jpg,,,,,,,,,,,,,,,,,,,,,,,,,,,,,,,,,,,,,,,,,,,0,2,2,2,1,,,,,,,,,,,,,,,,,,,,,,,,,,,,,,,,,,,,,,,,,,,,,,
568321,001,2022-11-20_23h59.43.936,Info_measure_main_exp,2022.2.2,Win32,60.07449237,,,,,,,,,,,,,,,,,,masks/mask_002.jpg,,,,,,,,,,,,,,,,,,,,,,,,,,,,,,,,,,,,,,,,,,,0,3,3,1,1,,,,,,,,,,,,,,,,,,,,,,,,,,,,,,,,,,,,,,,,,,,,,,
568321,001,2022-11-20_23h59.43.936,Info_measure_main_exp,2022.2.2,Win32,60.07449237,,,,,,,,,,,,,,,,,,masks/mask_001.jpg,,,,,,,,,,,,,,,,,,,,,,,,,,,,,,,,,,,,,,,,,,,0,4,4,0,1,,,,,,,,,,,,,,,,,,,,,,,,,,,,,,,,,,,,,,,,,,,,,,
568321,001,2022-11-20_23h59.43.936,Info_measure_main_exp,2022.2.2,Win32,60.07449237,,,,,,,,,,,,,,,,,,masks/mask_005.jpg,,,,,,,,,,,,,,,,,,,,,,,,,,,,,,,,,,,,,,,,,,,,,,,,0,0,0,4,1,,,,,,,,,,,,,,,,,,,,,,,,,,,,,,,,,,,,,,,,,
568321,001,2022-11-20_23h59.43.936,Info_measure_main_exp,2022.2.2,Win32,60.07449237,,,,,,,,,,,,,,,,,,masks/mask_003.jpg,,,,,,,,,,,,,,,,,,,,,,,,,,,,,,,,,,,,,,,,,,,,,,,,0,1,1,2,1,,,,,,,,,,,,,,,,,,,,,,,,,,,,,,,,,,,,,,,,,
568321,001,2022-11-20_23h59.43.936,Info_measure_main_exp,2022.2.2,Win32,60.07449237,,,,,,,,,,,,,,,,,,masks/mask_002.jpg,,,,,,,,,,,,,,,,,,,,,,,,,,,,,,,,,,,,,,,,,,,,,,,,0,2,2,1,1,,,,,,,,,,,,,,,,,,,,,,,,,,,,,,,,,,,,,,,,,
568321,001,2022-11-20_23h59.43.936,Info_measure_main_exp,2022.2.2,Win32,60.07449237,,,,,,,,,,,,,,,,,,masks/mask_004.jpg,,,,,,,,,,,,,,,,,,,,,,,,,,,,,,,,,,,,,,,,,,,,,,,,0,3,3,3,1,,,,,,,,,,,,,,,,,,,,,,,,,,,,,,,,,,,,,,,,,
568321,001,2022-11-20_23h59.43.936,Info_measure_main_exp,2022.2.2,Win32,60.07449237,,,,,,,,,,,,,,,,,,masks/mask_001.jpg,,,,,,,,,,,,,,,,,,,,,,,,,,,,,,,,,,,,,,,,,,,,,,,,0,4,4,0,1,,,,,,,,,,,,,,,,,,,,,,,,,,,,,,,,,,,,,,,,,
568321,001,2022-11-20_23h59.43.936,Info_measure_main_exp,2022.2.2,Win32,60.07449237,,,,,,,,,,,,,,,,,,,,,,,,,,,,,,5,1.3166,1,,,,,,,,,,,,0,131,5,5,2154,2298,absent_patch/patch0002154.jpg,absent_patch/patch0002298.jpg,,,,,,,,,,,,,,,,,,,,0.082407422,-0.003703718,1,0,0,response3disk,24,-0.003703718,-0.000925947,1,0,0,center_square,0,23,23,27,1,,,,,,,,,,,,,,,,,,,,,,,
568321,001,2022-11-20_23h59.43.936,Info_measure_main_exp,2022.2.2,Win32,60.07449237,,,,,,,,,,,,,,,,,,masks/mask_004.jpg,,,,,,,,,,,,,,,,,,,,,,,,,,,,,,,,,,,,,,,,,,,0,0,0,3,1,,,,,,,,,,,,,,,,,,,,,,,,,,,,,,,,,,,,,,,,,,,,,,
568321,001,2022-11-20_23h59.43.936,Info_measure_main_exp,2022.2.2,Win32,60.07449237,,,,,,,,,,,,,,,,,,masks/mask_003.jpg,,,,,,,,,,,,,,,,,,,,,,,,,,,,,,,,,,,,,,,,,,,0,1,1,2,1,,,,,,,,,,,,,,,,,,,,,,,,,,,,,,,,,,,,,,,,,,,,,,
568321,001,2022-11-20_23h59.43.936,Info_measure_main_exp,2022.2.2,Win32,60.07449237,,,,,,,,,,,,,,,,,,masks/mask_001.jpg,,,,,,,,,,,,,,,,,,,,,,,,,,,,,,,,,,,,,,,,,,,0,2,2,0,1,,,,,,,,,,,,,,,,,,,,,,,,,,,,,,,,,,,,,,,,,,,,,,
568321,001,2022-11-20_23h59.43.936,Info_measure_main_exp,2022.2.2,Win32,60.07449237,,,,,,,,,,,,,,,,,,masks/mask_005.jpg,,,,,,,,,,,,,,,,,,,,,,,,,,,,,,,,,,,,,,,,,,,0,3,3,4,1,,,,,,,,,,,,,,,,,,,,,,,,,,,,,,,,,,,,,,,,,,,,,,
568321,001,2022-11-20_23h59.43.936,Info_measure_main_exp,2022.2.2,Win32,60.07449237,,,,,,,,,,,,,,,,,,masks/mask_002.jpg,,,,,,,,,,,,,,,,,,,,,,,,,,,,,,,,,,,,,,,,,,,0,4,4,1,1,,,,,,,,,,,,,,,,,,,,,,,,,,,,,,,,,,,,,,,,,,,,,,
568321,001,2022-11-20_23h59.43.936,Info_measure_main_exp,2022.2.2,Win32,60.07449237,,,,,,,,,,,,,,,,,,masks/mask_004.jpg,,,,,,,,,,,,,,,,,,,,,,,,,,,,,,,,,,,,,,,,,,,,,,,,0,0,0,3,1,,,,,,,,,,,,,,,,,,,,,,,,,,,,,,,,,,,,,,,,,
568321,001,2022-11-20_23h59.43.936,Info_measure_main_exp,2022.2.2,Win32,60.07449237,,,,,,,,,,,,,,,,,,masks/mask_005.jpg,,,,,,,,,,,,,,,,,,,,,,,,,,,,,,,,,,,,,,,,,,,,,,,,0,1,1,4,1,,,,,,,,,,,,,,,,,,,,,,,,,,,,,,,,,,,,,,,,,
568321,001,2022-11-20_23h59.43.936,Info_measure_main_exp,2022.2.2,Win32,60.07449237,,,,,,,,,,,,,,,,,,masks/mask_001.jpg,,,,,,,,,,,,,,,,,,,,,,,,,,,,,,,,,,,,,,,,,,,,,,,,0,2,2,0,1,,,,,,,,,,,,,,,,,,,,,,,,,,,,,,,,,,,,,,,,,
568321,001,2022-11-20_23h59.43.936,Info_measure_main_exp,2022.2.2,Win32,60.07449237,,,,,,,,,,,,,,,,,,masks/mask_003.jpg,,,,,,,,,,,,,,,,,,,,,,,,,,,,,,,,,,,,,,,,,,,,,,,,0,3,3,2,1,,,,,,,,,,,,,,,,,,,,,,,,,,,,,,,,,,,,,,,,,
568321,001,2022-11-20_23h59.43.936,Info_measure_main_exp,2022.2.2,Win32,60.07449237,,,,,,,,,,,,,,,,,,masks/mask_002.jpg,,,,,,,,,,,,,,,,,,,,,,,,,,,,,,,,,,,,,,,,,,,,,,,,0,4,4,1,1,,,,,,,,,,,,,,,,,,,,,,,,,,,,,,,,,,,,,,,,,
568321,001,2022-11-20_23h59.43.936,Info_measure_main_exp,2022.2.2,Win32,60.07449237,,,,,,,,,,,,,,,,,,,,,,,,,,,,,,0,0.6892,1,,,,,,,,,,,,0,131,5,5,1974,1974,absent_patch/patch0001974.jpg,absent_patch/patch0001974.jpg,,,,,,,,,,,,,,,,,,,,-0.031481496,0.088888875,1,0,0,response7disk,25,-0.007407365,0.002777771,1,0,0,center_square,0,24,24,113,1,,,,,,,,,,,,,,,,,,,,,,,
568321,001,2022-11-20_23h59.43.936,Info_measure_main_exp,2022.2.2,Win32,60.07449237,,,,,,,,,,,,,,,,,,masks/mask_003.jpg,,,,,,,,,,,,,,,,,,,,,,,,,,,,,,,,,,,,,,,,,,,0,0,0,2,1,,,,,,,,,,,,,,,,,,,,,,,,,,,,,,,,,,,,,,,,,,,,,,
568321,001,2022-11-20_23h59.43.936,Info_measure_main_exp,2022.2.2,Win32,60.07449237,,,,,,,,,,,,,,,,,,masks/mask_005.jpg,,,,,,,,,,,,,,,,,,,,,,,,,,,,,,,,,,,,,,,,,,,0,1,1,4,1,,,,,,,,,,,,,,,,,,,,,,,,,,,,,,,,,,,,,,,,,,,,,,
568321,001,2022-11-20_23h59.43.936,Info_measure_main_exp,2022.2.2,Win32,60.07449237,,,,,,,,,,,,,,,,,,masks/mask_001.jpg,,,,,,,,,,,,,,,,,,,,,,,,,,,,,,,,,,,,,,,,,,,0,2,2,0,1,,,,,,,,,,,,,,,,,,,,,,,,,,,,,,,,,,,,,,,,,,,,,,
568321,001,2022-11-20_23h59.43.936,Info_measure_main_exp,2022.2.2,Win32,60.07449237,,,,,,,,,,,,,,,,,,masks/mask_002.jpg,,,,,,,,,,,,,,,,,,,,,,,,,,,,,,,,,,,,,,,,,,,0,3,3,1,1,,,,,,,,,,,,,,,,,,,,,,,,,,,,,,,,,,,,,,,,,,,,,,
568321,001,2022-11-20_23h59.43.936,Info_measure_main_exp,2022.2.2,Win32,60.07449237,,,,,,,,,,,,,,,,,,masks/mask_004.jpg,,,,,,,,,,,,,,,,,,,,,,,,,,,,,,,,,,,,,,,,,,,0,4,4,3,1,,,,,,,,,,,,,,,,,,,,,,,,,,,,,,,,,,,,,,,,,,,,,,
568321,001,2022-11-20_23h59.43.936,Info_measure_main_exp,2022.2.2,Win32,60.07449237,,,,,,,,,,,,,,,,,,masks/mask_004.jpg,,,,,,,,,,,,,,,,,,,,,,,,,,,,,,,,,,,,,,,,,,,,,,,,0,0,0,3,1,,,,,,,,,,,,,,,,,,,,,,,,,,,,,,,,,,,,,,,,,
568321,001,2022-11-20_23h59.43.936,Info_measure_main_exp,2022.2.2,Win32,60.07449237,,,,,,,,,,,,,,,,,,masks/mask_002.jpg,,,,,,,,,,,,,,,,,,,,,,,,,,,,,,,,,,,,,,,,,,,,,,,,0,1,1,1,1,,,,,,,,,,,,,,,,,,,,,,,,,,,,,,,,,,,,,,,,,
568321,001,2022-11-20_23h59.43.936,Info_measure_main_exp,2022.2.2,Win32,60.07449237,,,,,,,,,,,,,,,,,,masks/mask_005.jpg,,,,,,,,,,,,,,,,,,,,,,,,,,,,,,,,,,,,,,,,,,,,,,,,0,2,2,4,1,,,,,,,,,,,,,,,,,,,,,,,,,,,,,,,,,,,,,,,,,
568321,001,2022-11-20_23h59.43.936,Info_measure_main_exp,2022.2.2,Win32,60.07449237,,,,,,,,,,,,,,,,,,masks/mask_001.jpg,,,,,,,,,,,,,,,,,,,,,,,,,,,,,,,,,,,,,,,,,,,,,,,,0,3,3,0,1,,,,,,,,,,,,,,,,,,,,,,,,,,,,,,,,,,,,,,,,,
568321,001,2022-11-20_23h59.43.936,Info_measure_main_exp,2022.2.2,Win32,60.07449237,,,,,,,,,,,,,,,,,,masks/mask_003.jpg,,,,,,,,,,,,,,,,,,,,,,,,,,,,,,,,,,,,,,,,,,,,,,,,0,4,4,2,1,,,,,,,,,,,,,,,,,,,,,,,,,,,,,,,,,,,,,,,,,
568321,001,2022-11-20_23h59.43.936,Info_measure_main_exp,2022.2.2,Win32,60.07449237,,,,,,,,,,,,,,,,,,,,,,,,,,,,,,2,1.0002,1,,,,,,,,,,,,0,131,5,5,2082,2298,absent_patch/patch0002082.jpg,absent_patch/patch0002298.jpg,,,,,,,,,,,,,,,,,,,,-0.074999986,-0.026851866,1,0,0,response5disk,26,0.010185171,0.005555541,1,0,0,center_square,0,25,25,107,1,,,,,,,,,,,,,,,,,,,,,,,
568321,001,2022-11-20_23h59.43.936,Info_measure_main_exp,2022.2.2,Win32,60.07449237,,,,,,,,,,,,,,,,,,masks/mask_005.jpg,,,,,,,,,,,,,,,,,,,,,,,,,,,,,,,,,,,,,,,,,,,0,0,0,4,1,,,,,,,,,,,,,,,,,,,,,,,,,,,,,,,,,,,,,,,,,,,,,,
568321,001,2022-11-20_23h59.43.936,Info_measure_main_exp,2022.2.2,Win32,60.07449237,,,,,,,,,,,,,,,,,,masks/mask_001.jpg,,,,,,,,,,,,,,,,,,,,,,,,,,,,,,,,,,,,,,,,,,,0,1,1,0,1,,,,,,,,,,,,,,,,,,,,,,,,,,,,,,,,,,,,,,,,,,,,,,
568321,001,2022-11-20_23h59.43.936,Info_measure_main_exp,2022.2.2,Win32,60.07449237,,,,,,,,,,,,,,,,,,masks/mask_002.jpg,,,,,,,,,,,,,,,,,,,,,,,,,,,,,,,,,,,,,,,,,,,0,2,2,1,1,,,,,,,,,,,,,,,,,,,,,,,,,,,,,,,,,,,,,,,,,,,,,,
568321,001,2022-11-20_23h59.43.936,Info_measure_main_exp,2022.2.2,Win32,60.07449237,,,,,,,,,,,,,,,,,,masks/mask_004.jpg,,,,,,,,,,,,,,,,,,,,,,,,,,,,,,,,,,,,,,,,,,,0,3,3,3,1,,,,,,,,,,,,,,,,,,,,,,,,,,,,,,,,,,,,,,,,,,,,,,
568321,001,2022-11-20_23h59.43.936,Info_measure_main_exp,2022.2.2,Win32,60.07449237,,,,,,,,,,,,,,,,,,masks/mask_003.jpg,,,,,,,,,,,,,,,,,,,,,,,,,,,,,,,,,,,,,,,,,,,0,4,4,2,1,,,,,,,,,,,,,,,,,,,,,,,,,,,,,,,,,,,,,,,,,,,,,,
568321,001,2022-11-20_23h59.43.936,Info_measure_main_exp,2022.2.2,Win32,60.07449237,,,,,,,,,,,,,,,,,,masks/mask_001.jpg,,,,,,,,,,,,,,,,,,,,,,,,,,,,,,,,,,,,,,,,,,,,,,,,0,0,0,0,1,,,,,,,,,,,,,,,,,,,,,,,,,,,,,,,,,,,,,,,,,
568321,001,2022-11-20_23h59.43.936,Info_measure_main_exp,2022.2.2,Win32,60.07449237,,,,,,,,,,,,,,,,,,masks/mask_003.jpg,,,,,,,,,,,,,,,,,,,,,,,,,,,,,,,,,,,,,,,,,,,,,,,,0,1,1,2,1,,,,,,,,,,,,,,,,,,,,,,,,,,,,,,,,,,,,,,,,,
568321,001,2022-11-20_23h59.43.936,Info_measure_main_exp,2022.2.2,Win32,60.07449237,,,,,,,,,,,,,,,,,,masks/mask_002.jpg,,,,,,,,,,,,,,,,,,,,,,,,,,,,,,,,,,,,,,,,,,,,,,,,0,2,2,1,1,,,,,,,,,,,,,,,,,,,,,,,,,,,,,,,,,,,,,,,,,
568321,001,2022-11-20_23h59.43.936,Info_measure_main_exp,2022.2.2,Win32,60.07449237,,,,,,,,,,,,,,,,,,masks/mask_005.jpg,,,,,,,,,,,,,,,,,,,,,,,,,,,,,,,,,,,,,,,,,,,,,,,,0,3,3,4,1,,,,,,,,,,,,,,,,,,,,,,,,,,,,,,,,,,,,,,,,,
568321,001,2022-11-20_23h59.43.936,Info_measure_main_exp,2022.2.2,Win32,60.07449237,,,,,,,,,,,,,,,,,,masks/mask_004.jpg,,,,,,,,,,,,,,,,,,,,,,,,,,,,,,,,,,,,,,,,,,,,,,,,0,4,4,3,1,,,,,,,,,,,,,,,,,,,,,,,,,,,,,,,,,,,,,,,,,
568321,001,2022-11-20_23h59.43.936,Info_measure_main_exp,2022.2.2,Win32,60.07449237,,,,,,,,,,,,,,,,,,,,,,,,,,,,,,2,0.9831,1,,,,,,,,,,,,0,131,5,5,2190,2214,absent_patch/patch0002190.jpg,absent_patch/patch0002214.jpg,,,,,,,,,,,,,,,,,,,,-0.066666638,-0.046296296,1,0,0,response5disk,27,0.008333347,-0.002777771,1,0,0,center_square,0,26,26,35,1,,,,,,,,,,,,,,,,,,,,,,,
568321,001,2022-11-20_23h59.43.936,Info_measure_main_exp,2022.2.2,Win32,60.07449237,,,,,,,,,,,,,,,,,,masks/mask_003.jpg,,,,,,,,,,,,,,,,,,,,,,,,,,,,,,,,,,,,,,,,,,,0,0,0,2,1,,,,,,,,,,,,,,,,,,,,,,,,,,,,,,,,,,,,,,,,,,,,,,
568321,001,2022-11-20_23h59.43.936,Info_measure_main_exp,2022.2.2,Win32,60.07449237,,,,,,,,,,,,,,,,,,masks/mask_004.jpg,,,,,,,,,,,,,,,,,,,,,,,,,,,,,,,,,,,,,,,,,,,0,1,1,3,1,,,,,,,,,,,,,,,,,,,,,,,,,,,,,,,,,,,,,,,,,,,,,,
568321,001,2022-11-20_23h59.43.936,Info_measure_main_exp,2022.2.2,Win32,60.07449237,,,,,,,,,,,,,,,,,,masks/mask_002.jpg,,,,,,,,,,,,,,,,,,,,,,,,,,,,,,,,,,,,,,,,,,,0,2,2,1,1,,,,,,,,,,,,,,,,,,,,,,,,,,,,,,,,,,,,,,,,,,,,,,
568321,001,2022-11-20_23h59.43.936,Info_measure_main_exp,2022.2.2,Win32,60.07449237,,,,,,,,,,,,,,,,,,masks/mask_001.jpg,,,,,,,,,,,,,,,,,,,,,,,,,,,,,,,,,,,,,,,,,,,0,3,3,0,1,,,,,,,,,,,,,,,,,,,,,,,,,,,,,,,,,,,,,,,,,,,,,,
568321,001,2022-11-20_23h59.43.936,Info_measure_main_exp,2022.2.2,Win32,60.07449237,,,,,,,,,,,,,,,,,,masks/mask_005.jpg,,,,,,,,,,,,,,,,,,,,,,,,,,,,,,,,,,,,,,,,,,,0,4,4,4,1,,,,,,,,,,,,,,,,,,,,,,,,,,,,,,,,,,,,,,,,,,,,,,
568321,001,2022-11-20_23h59.43.936,Info_measure_main_exp,2022.2.2,Win32,60.07449237,,,,,,,,,,,,,,,,,,masks/mask_001.jpg,,,,,,,,,,,,,,,,,,,,,,,,,,,,,,,,,,,,,,,,,,,,,,,,0,0,0,0,1,,,,,,,,,,,,,,,,,,,,,,,,,,,,,,,,,,,,,,,,,
568321,001,2022-11-20_23h59.43.936,Info_measure_main_exp,2022.2.2,Win32,60.07449237,,,,,,,,,,,,,,,,,,masks/mask_005.jpg,,,,,,,,,,,,,,,,,,,,,,,,,,,,,,,,,,,,,,,,,,,,,,,,0,1,1,4,1,,,,,,,,,,,,,,,,,,,,,,,,,,,,,,,,,,,,,,,,,
568321,001,2022-11-20_23h59.43.936,Info_measure_main_exp,2022.2.2,Win32,60.07449237,,,,,,,,,,,,,,,,,,masks/mask_002.jpg,,,,,,,,,,,,,,,,,,,,,,,,,,,,,,,,,,,,,,,,,,,,,,,,0,2,2,1,1,,,,,,,,,,,,,,,,,,,,,,,,,,,,,,,,,,,,,,,,,
568321,001,2022-11-20_23h59.43.936,Info_measure_main_exp,2022.2.2,Win32,60.07449237,,,,,,,,,,,,,,,,,,masks/mask_004.jpg,,,,,,,,,,,,,,,,,,,,,,,,,,,,,,,,,,,,,,,,,,,,,,,,0,3,3,3,1,,,,,,,,,,,,,,,,,,,,,,,,,,,,,,,,,,,,,,,,,
568321,001,2022-11-20_23h59.43.936,Info_measure_main_exp,2022.2.2,Win32,60.07449237,,,,,,,,,,,,,,,,,,masks/mask_003.jpg,,,,,,,,,,,,,,,,,,,,,,,,,,,,,,,,,,,,,,,,,,,,,,,,0,4,4,2,1,,,,,,,,,,,,,,,,,,,,,,,,,,,,,,,,,,,,,,,,,
568321,001,2022-11-20_23h59.43.936,Info_measure_main_exp,2022.2.2,Win32,60.07449237,,,,,,,,,,,,,,,,,,,,,,,,,,,,,,0,0.7059,1,,,,,,,,,,,,0,131,5,5,2082,2082,absent_patch/patch0002082.jpg,absent_patch/patch0002082.jpg,,,,,,,,,,,,,,,,,,,,-0.041666667,0.110185164,1,0,0,response7disk,28,-0.006481453,-0.002777771,1,0,0,center_square,0,27,27,74,1,,,,,,,,,,,,,,,,,,,,,,,
568321,001,2022-11-20_23h59.43.936,Info_measure_main_exp,2022.2.2,Win32,60.07449237,,,,,,,,,,,,,,,,,,masks/mask_001.jpg,,,,,,,,,,,,,,,,,,,,,,,,,,,,,,,,,,,,,,,,,,,0,0,0,0,1,,,,,,,,,,,,,,,,,,,,,,,,,,,,,,,,,,,,,,,,,,,,,,
568321,001,2022-11-20_23h59.43.936,Info_measure_main_exp,2022.2.2,Win32,60.07449237,,,,,,,,,,,,,,,,,,masks/mask_004.jpg,,,,,,,,,,,,,,,,,,,,,,,,,,,,,,,,,,,,,,,,,,,0,1,1,3,1,,,,,,,,,,,,,,,,,,,,,,,,,,,,,,,,,,,,,,,,,,,,,,
568321,001,2022-11-20_23h59.43.936,Info_measure_main_exp,2022.2.2,Win32,60.07449237,,,,,,,,,,,,,,,,,,masks/mask_005.jpg,,,,,,,,,,,,,,,,,,,,,,,,,,,,,,,,,,,,,,,,,,,0,2,2,4,1,,,,,,,,,,,,,,,,,,,,,,,,,,,,,,,,,,,,,,,,,,,,,,
568321,001,2022-11-20_23h59.43.936,Info_measure_main_exp,2022.2.2,Win32,60.07449237,,,,,,,,,,,,,,,,,,masks/mask_002.jpg,,,,,,,,,,,,,,,,,,,,,,,,,,,,,,,,,,,,,,,,,,,0,3,3,1,1,,,,,,,,,,,,,,,,,,,,,,,,,,,,,,,,,,,,,,,,,,,,,,
568321,001,2022-11-20_23h59.43.936,Info_measure_main_exp,2022.2.2,Win32,60.07449237,,,,,,,,,,,,,,,,,,masks/mask_003.jpg,,,,,,,,,,,,,,,,,,,,,,,,,,,,,,,,,,,,,,,,,,,0,4,4,2,1,,,,,,,,,,,,,,,,,,,,,,,,,,,,,,,,,,,,,,,,,,,,,,
568321,001,2022-11-20_23h59.43.936,Info_measure_main_exp,2022.2.2,Win32,60.07449237,,,,,,,,,,,,,,,,,,masks/mask_005.jpg,,,,,,,,,,,,,,,,,,,,,,,,,,,,,,,,,,,,,,,,,,,,,,,,0,0,0,4,1,,,,,,,,,,,,,,,,,,,,,,,,,,,,,,,,,,,,,,,,,
568321,001,2022-11-20_23h59.43.936,Info_measure_main_exp,2022.2.2,Win32,60.07449237,,,,,,,,,,,,,,,,,,masks/mask_004.jpg,,,,,,,,,,,,,,,,,,,,,,,,,,,,,,,,,,,,,,,,,,,,,,,,0,1,1,3,1,,,,,,,,,,,,,,,,,,,,,,,,,,,,,,,,,,,,,,,,,
568321,001,2022-11-20_23h59.43.936,Info_measure_main_exp,2022.2.2,Win32,60.07449237,,,,,,,,,,,,,,,,,,masks/mask_001.jpg,,,,,,,,,,,,,,,,,,,,,,,,,,,,,,,,,,,,,,,,,,,,,,,,0,2,2,0,1,,,,,,,,,,,,,,,,,,,,,,,,,,,,,,,,,,,,,,,,,
568321,001,2022-11-20_23h59.43.936,Info_measure_main_exp,2022.2.2,Win32,60.07449237,,,,,,,,,,,,,,,,,,masks/mask_003.jpg,,,,,,,,,,,,,,,,,,,,,,,,,,,,,,,,,,,,,,,,,,,,,,,,0,3,3,2,1,,,,,,,,,,,,,,,,,,,,,,,,,,,,,,,,,,,,,,,,,
568321,001,2022-11-20_23h59.43.936,Info_measure_main_exp,2022.2.2,Win32,60.07449237,,,,,,,,,,,,,,,,,,masks/mask_002.jpg,,,,,,,,,,,,,,,,,,,,,,,,,,,,,,,,,,,,,,,,,,,,,,,,0,4,4,1,1,,,,,,,,,,,,,,,,,,,,,,,,,,,,,,,,,,,,,,,,,
568321,001,2022-11-20_23h59.43.936,Info_measure_main_exp,2022.2.2,Win32,60.07449237,,,,,,,,,,,,,,,,,,,,,,,,,,,,,,2,0.729,1,,,,,,,,,,,,1,131,5,5,1,2178,present_patch/cong_131_5_a.jpg,absent_patch/patch0002178.jpg,,,,,,,,,,,,,,,,,,,,-0.074074074,-0.049074067,1,0,0,response5disk,29,0.008333347,-0.000925947,1,0,0,center_square,0,28,28,40,1,,,,,,,,,,,,,,,,,,,,,,,
568321,001,2022-11-20_23h59.43.936,Info_measure_main_exp,2022.2.2,Win32,60.07449237,,,,,,,,,,,,,,,,,,masks/mask_003.jpg,,,,,,,,,,,,,,,,,,,,,,,,,,,,,,,,,,,,,,,,,,,0,0,0,2,1,,,,,,,,,,,,,,,,,,,,,,,,,,,,,,,,,,,,,,,,,,,,,,
568321,001,2022-11-20_23h59.43.936,Info_measure_main_exp,2022.2.2,Win32,60.07449237,,,,,,,,,,,,,,,,,,masks/mask_004.jpg,,,,,,,,,,,,,,,,,,,,,,,,,,,,,,,,,,,,,,,,,,,0,1,1,3,1,,,,,,,,,,,,,,,,,,,,,,,,,,,,,,,,,,,,,,,,,,,,,,
568321,001,2022-11-20_23h59.43.936,Info_measure_main_exp,2022.2.2,Win32,60.07449237,,,,,,,,,,,,,,,,,,masks/mask_002.jpg,,,,,,,,,,,,,,,,,,,,,,,,,,,,,,,,,,,,,,,,,,,0,2,2,1,1,,,,,,,,,,,,,,,,,,,,,,,,,,,,,,,,,,,,,,,,,,,,,,
568321,001,2022-11-20_23h59.43.936,Info_measure_main_exp,2022.2.2,Win32,60.07449237,,,,,,,,,,,,,,,,,,masks/mask_005.jpg,,,,,,,,,,,,,,,,,,,,,,,,,,,,,,,,,,,,,,,,,,,0,3,3,4,1,,,,,,,,,,,,,,,,,,,,,,,,,,,,,,,,,,,,,,,,,,,,,,
568321,001,2022-11-20_23h59.43.936,Info_measure_main_exp,2022.2.2,Win32,60.07449237,,,,,,,,,,,,,,,,,,masks/mask_001.jpg,,,,,,,,,,,,,,,,,,,,,,,,,,,,,,,,,,,,,,,,,,,0,4,4,0,1,,,,,,,,,,,,,,,,,,,,,,,,,,,,,,,,,,,,,,,,,,,,,,
568321,001,2022-11-20_23h59.43.936,Info_measure_main_exp,2022.2.2,Win32,60.07449237,,,,,,,,,,,,,,,,,,masks/mask_004.jpg,,,,,,,,,,,,,,,,,,,,,,,,,,,,,,,,,,,,,,,,,,,,,,,,0,0,0,3,1,,,,,,,,,,,,,,,,,,,,,,,,,,,,,,,,,,,,,,,,,
568321,001,2022-11-20_23h59.43.936,Info_measure_main_exp,2022.2.2,Win32,60.07449237,,,,,,,,,,,,,,,,,,masks/mask_001.jpg,,,,,,,,,,,,,,,,,,,,,,,,,,,,,,,,,,,,,,,,,,,,,,,,0,1,1,0,1,,,,,,,,,,,,,,,,,,,,,,,,,,,,,,,,,,,,,,,,,
568321,001,2022-11-20_23h59.43.936,Info_measure_main_exp,2022.2.2,Win32,60.07449237,,,,,,,,,,,,,,,,,,masks/mask_005.jpg,,,,,,,,,,,,,,,,,,,,,,,,,,,,,,,,,,,,,,,,,,,,,,,,0,2,2,4,1,,,,,,,,,,,,,,,,,,,,,,,,,,,,,,,,,,,,,,,,,
568321,001,2022-11-20_23h59.43.936,Info_measure_main_exp,2022.2.2,Win32,60.07449237,,,,,,,,,,,,,,,,,,masks/mask_003.jpg,,,,,,,,,,,,,,,,,,,,,,,,,,,,,,,,,,,,,,,,,,,,,,,,0,3,3,2,1,,,,,,,,,,,,,,,,,,,,,,,,,,,,,,,,,,,,,,,,,
568321,001,2022-11-20_23h59.43.936,Info_measure_main_exp,2022.2.2,Win32,60.07449237,,,,,,,,,,,,,,,,,,masks/mask_002.jpg,,,,,,,,,,,,,,,,,,,,,,,,,,,,,,,,,,,,,,,,,,,,,,,,0,4,4,1,1,,,,,,,,,,,,,,,,,,,,,,,,,,,,,,,,,,,,,,,,,
568321,001,2022-11-20_23h59.43.936,Info_measure_main_exp,2022.2.2,Win32,60.07449237,,,,,,,,,,,,,,,,,,,,,,,,,,,,,,6,1.2165,1,,,,,,,,,,,,0,131,5,5,2082,2238,absent_patch/patch0002082.jpg,absent_patch/patch0002238.jpg,,,,,,,,,,,,,,,,,,,,0.150000042,0.04074072,1,0,0,response1disk,30,-0.010185171,-0.001851859,1,0,0,center_square,0,29,29,22,1,,,,,,,,,,,,,,,,,,,,,,,
568321,001,2022-11-20_23h59.43.936,Info_measure_main_exp,2022.2.2,Win32,60.07449237,,,,,,,,,,,,,,,,,,masks/mask_005.jpg,,,,,,,,,,,,,,,,,,,,,,,,,,,,,,,,,,,,,,,,,,,0,0,0,4,1,,,,,,,,,,,,,,,,,,,,,,,,,,,,,,,,,,,,,,,,,,,,,,
568321,001,2022-11-20_23h59.43.936,Info_measure_main_exp,2022.2.2,Win32,60.07449237,,,,,,,,,,,,,,,,,,masks/mask_001.jpg,,,,,,,,,,,,,,,,,,,,,,,,,,,,,,,,,,,,,,,,,,,0,1,1,0,1,,,,,,,,,,,,,,,,,,,,,,,,,,,,,,,,,,,,,,,,,,,,,,
568321,001,2022-11-20_23h59.43.936,Info_measure_main_exp,2022.2.2,Win32,60.07449237,,,,,,,,,,,,,,,,,,masks/mask_002.jpg,,,,,,,,,,,,,,,,,,,,,,,,,,,,,,,,,,,,,,,,,,,0,2,2,1,1,,,,,,,,,,,,,,,,,,,,,,,,,,,,,,,,,,,,,,,,,,,,,,
568321,001,2022-11-20_23h59.43.936,Info_measure_main_exp,2022.2.2,Win32,60.07449237,,,,,,,,,,,,,,,,,,masks/mask_004.jpg,,,,,,,,,,,,,,,,,,,,,,,,,,,,,,,,,,,,,,,,,,,0,3,3,3,1,,,,,,,,,,,,,,,,,,,,,,,,,,,,,,,,,,,,,,,,,,,,,,
568321,001,2022-11-20_23h59.43.936,Info_measure_main_exp,2022.2.2,Win32,60.07449237,,,,,,,,,,,,,,,,,,masks/mask_003.jpg,,,,,,,,,,,,,,,,,,,,,,,,,,,,,,,,,,,,,,,,,,,0,4,4,2,1,,,,,,,,,,,,,,,,,,,,,,,,,,,,,,,,,,,,,,,,,,,,,,
568321,001,2022-11-20_23h59.43.936,Info_measure_main_exp,2022.2.2,Win32,60.07449237,,,,,,,,,,,,,,,,,,masks/mask_005.jpg,,,,,,,,,,,,,,,,,,,,,,,,,,,,,,,,,,,,,,,,,,,,,,,,0,0,0,4,1,,,,,,,,,,,,,,,,,,,,,,,,,,,,,,,,,,,,,,,,,
568321,001,2022-11-20_23h59.43.936,Info_measure_main_exp,2022.2.2,Win32,60.07449237,,,,,,,,,,,,,,,,,,masks/mask_004.jpg,,,,,,,,,,,,,,,,,,,,,,,,,,,,,,,,,,,,,,,,,,,,,,,,0,1,1,3,1,,,,,,,,,,,,,,,,,,,,,,,,,,,,,,,,,,,,,,,,,
568321,001,2022-11-20_23h59.43.936,Info_measure_main_exp,2022.2.2,Win32,60.07449237,,,,,,,,,,,,,,,,,,masks/mask_003.jpg,,,,,,,,,,,,,,,,,,,,,,,,,,,,,,,,,,,,,,,,,,,,,,,,0,2,2,2,1,,,,,,,,,,,,,,,,,,,,,,,,,,,,,,,,,,,,,,,,,
568321,001,2022-11-20_23h59.43.936,Info_measure_main_exp,2022.2.2,Win32,60.07449237,,,,,,,,,,,,,,,,,,masks/mask_001.jpg,,,,,,,,,,,,,,,,,,,,,,,,,,,,,,,,,,,,,,,,,,,,,,,,0,3,3,0,1,,,,,,,,,,,,,,,,,,,,,,,,,,,,,,,,,,,,,,,,,
568321,001,2022-11-20_23h59.43.936,Info_measure_main_exp,2022.2.2,Win32,60.07449237,,,,,,,,,,,,,,,,,,masks/mask_002.jpg,,,,,,,,,,,,,,,,,,,,,,,,,,,,,,,,,,,,,,,,,,,,,,,,0,4,4,1,1,,,,,,,,,,,,,,,,,,,,,,,,,,,,,,,,,,,,,,,,,
568321,001,2022-11-20_23h59.43.936,Info_measure_main_exp,2022.2.2,Win32,60.07449237,,,,,,,,,,,,,,,,,,,,,,,,,,,,,,4,0.6885,1,,,,,,,,,,,,0,131,5,5,2214,2142,absent_patch/patch0002214.jpg,absent_patch/patch0002142.jpg,,,,,,,,,,,,,,,,,,,,0.043518561,-0.098148134,1,0,0,response3disk,31,-0.001851824,-0.002777771,1,0,0,center_square,0,30,30,102,1,,,,,,,,,,,,,,,,,,,,,,,
568321,001,2022-11-20_23h59.43.936,Info_measure_main_exp,2022.2.2,Win32,60.07449237,,,,,,,,,,,,,,,,,,masks/mask_001.jpg,,,,,,,,,,,,,,,,,,,,,,,,,,,,,,,,,,,,,,,,,,,0,0,0,0,1,,,,,,,,,,,,,,,,,,,,,,,,,,,,,,,,,,,,,,,,,,,,,,
568321,001,2022-11-20_23h59.43.936,Info_measure_main_exp,2022.2.2,Win32,60.07449237,,,,,,,,,,,,,,,,,,masks/mask_002.jpg,,,,,,,,,,,,,,,,,,,,,,,,,,,,,,,,,,,,,,,,,,,0,1,1,1,1,,,,,,,,,,,,,,,,,,,,,,,,,,,,,,,,,,,,,,,,,,,,,,
568321,001,2022-11-20_23h59.43.936,Info_measure_main_exp,2022.2.2,Win32,60.07449237,,,,,,,,,,,,,,,,,,masks/mask_004.jpg,,,,,,,,,,,,,,,,,,,,,,,,,,,,,,,,,,,,,,,,,,,0,2,2,3,1,,,,,,,,,,,,,,,,,,,,,,,,,,,,,,,,,,,,,,,,,,,,,,
568321,001,2022-11-20_23h59.43.936,Info_measure_main_exp,2022.2.2,Win32,60.07449237,,,,,,,,,,,,,,,,,,masks/mask_003.jpg,,,,,,,,,,,,,,,,,,,,,,,,,,,,,,,,,,,,,,,,,,,0,3,3,2,1,,,,,,,,,,,,,,,,,,,,,,,,,,,,,,,,,,,,,,,,,,,,,,
568321,001,2022-11-20_23h59.43.936,Info_measure_main_exp,2022.2.2,Win32,60.07449237,,,,,,,,,,,,,,,,,,masks/mask_005.jpg,,,,,,,,,,,,,,,,,,,,,,,,,,,,,,,,,,,,,,,,,,,0,4,4,4,1,,,,,,,,,,,,,,,,,,,,,,,,,,,,,,,,,,,,,,,,,,,,,,
568321,001,2022-11-20_23h59.43.936,Info_measure_main_exp,2022.2.2,Win32,60.07449237,,,,,,,,,,,,,,,,,,masks/mask_005.jpg,,,,,,,,,,,,,,,,,,,,,,,,,,,,,,,,,,,,,,,,,,,,,,,,0,0,0,4,1,,,,,,,,,,,,,,,,,,,,,,,,,,,,,,,,,,,,,,,,,
568321,001,2022-11-20_23h59.43.936,Info_measure_main_exp,2022.2.2,Win32,60.07449237,,,,,,,,,,,,,,,,,,masks/mask_002.jpg,,,,,,,,,,,,,,,,,,,,,,,,,,,,,,,,,,,,,,,,,,,,,,,,0,1,1,1,1,,,,,,,,,,,,,,,,,,,,,,,,,,,,,,,,,,,,,,,,,
568321,001,2022-11-20_23h59.43.936,Info_measure_main_exp,2022.2.2,Win32,60.07449237,,,,,,,,,,,,,,,,,,masks/mask_004.jpg,,,,,,,,,,,,,,,,,,,,,,,,,,,,,,,,,,,,,,,,,,,,,,,,0,2,2,3,1,,,,,,,,,,,,,,,,,,,,,,,,,,,,,,,,,,,,,,,,,
568321,001,2022-11-20_23h59.43.936,Info_measure_main_exp,2022.2.2,Win32,60.07449237,,,,,,,,,,,,,,,,,,masks/mask_001.jpg,,,,,,,,,,,,,,,,,,,,,,,,,,,,,,,,,,,,,,,,,,,,,,,,0,3,3,0,1,,,,,,,,,,,,,,,,,,,,,,,,,,,,,,,,,,,,,,,,,
568321,001,2022-11-20_23h59.43.936,Info_measure_main_exp,2022.2.2,Win32,60.07449237,,,,,,,,,,,,,,,,,,masks/mask_003.jpg,,,,,,,,,,,,,,,,,,,,,,,,,,,,,,,,,,,,,,,,,,,,,,,,0,4,4,2,1,,,,,,,,,,,,,,,,,,,,,,,,,,,,,,,,,,,,,,,,,
568321,001,2022-11-20_23h59.43.936,Info_measure_main_exp,2022.2.2,Win32,60.07449237,,,,,,,,,,,,,,,,,,,,,,,,,,,,,,3,1.5714,1,,,,,,,,,,,,0,131,5,5,1950,2082,absent_patch/patch0001950.jpg,absent_patch/patch0002082.jpg,,,,,,,,,,,,,,,,,,,,-0.051851838,-0.106481481,1,0,0,response5disk,32,-0.002777735,-0.008333347,1,0,0,center_square,0,31,31,12,1,,,,,,,,,,,,,,,,,,,,,,,
568321,001,2022-11-20_23h59.43.936,Info_measure_main_exp,2022.2.2,Win32,60.07449237,,,,,,,,,,,,,,,,,,masks/mask_005.jpg,,,,,,,,,,,,,,,,,,,,,,,,,,,,,,,,,,,,,,,,,,,0,0,0,4,1,,,,,,,,,,,,,,,,,,,,,,,,,,,,,,,,,,,,,,,,,,,,,,
568321,001,2022-11-20_23h59.43.936,Info_measure_main_exp,2022.2.2,Win32,60.07449237,,,,,,,,,,,,,,,,,,masks/mask_001.jpg,,,,,,,,,,,,,,,,,,,,,,,,,,,,,,,,,,,,,,,,,,,0,1,1,0,1,,,,,,,,,,,,,,,,,,,,,,,,,,,,,,,,,,,,,,,,,,,,,,
568321,001,2022-11-20_23h59.43.936,Info_measure_main_exp,2022.2.2,Win32,60.07449237,,,,,,,,,,,,,,,,,,masks/mask_003.jpg,,,,,,,,,,,,,,,,,,,,,,,,,,,,,,,,,,,,,,,,,,,0,2,2,2,1,,,,,,,,,,,,,,,,,,,,,,,,,,,,,,,,,,,,,,,,,,,,,,
568321,001,2022-11-20_23h59.43.936,Info_measure_main_exp,2022.2.2,Win32,60.07449237,,,,,,,,,,,,,,,,,,masks/mask_002.jpg,,,,,,,,,,,,,,,,,,,,,,,,,,,,,,,,,,,,,,,,,,,0,3,3,1,1,,,,,,,,,,,,,,,,,,,,,,,,,,,,,,,,,,,,,,,,,,,,,,
568321,001,2022-11-20_23h59.43.936,Info_measure_main_exp,2022.2.2,Win32,60.07449237,,,,,,,,,,,,,,,,,,masks/mask_004.jpg,,,,,,,,,,,,,,,,,,,,,,,,,,,,,,,,,,,,,,,,,,,0,4,4,3,1,,,,,,,,,,,,,,,,,,,,,,,,,,,,,,,,,,,,,,,,,,,,,,
568321,001,2022-11-20_23h59.43.936,Info_measure_main_exp,2022.2.2,Win32,60.07449237,,,,,,,,,,,,,,,,,,masks/mask_003.jpg,,,,,,,,,,,,,,,,,,,,,,,,,,,,,,,,,,,,,,,,,,,,,,,,0,0,0,2,1,,,,,,,,,,,,,,,,,,,,,,,,,,,,,,,,,,,,,,,,,
568321,001,2022-11-20_23h59.43.936,Info_measure_main_exp,2022.2.2,Win32,60.07449237,,,,,,,,,,,,,,,,,,masks/mask_005.jpg,,,,,,,,,,,,,,,,,,,,,,,,,,,,,,,,,,,,,,,,,,,,,,,,0,1,1,4,1,,,,,,,,,,,,,,,,,,,,,,,,,,,,,,,,,,,,,,,,,
568321,001,2022-11-20_23h59.43.936,Info_measure_main_exp,2022.2.2,Win32,60.07449237,,,,,,,,,,,,,,,,,,masks/mask_004.jpg,,,,,,,,,,,,,,,,,,,,,,,,,,,,,,,,,,,,,,,,,,,,,,,,0,2,2,3,1,,,,,,,,,,,,,,,,,,,,,,,,,,,,,,,,,,,,,,,,,
568321,001,2022-11-20_23h59.43.936,Info_measure_main_exp,2022.2.2,Win32,60.07449237,,,,,,,,,,,,,,,,,,masks/mask_001.jpg,,,,,,,,,,,,,,,,,,,,,,,,,,,,,,,,,,,,,,,,,,,,,,,,0,3,3,0,1,,,,,,,,,,,,,,,,,,,,,,,,,,,,,,,,,,,,,,,,,
568321,001,2022-11-20_23h59.43.936,Info_measure_main_exp,2022.2.2,Win32,60.07449237,,,,,,,,,,,,,,,,,,masks/mask_002.jpg,,,,,,,,,,,,,,,,,,,,,,,,,,,,,,,,,,,,,,,,,,,,,,,,0,4,4,1,1,,,,,,,,,,,,,,,,,,,,,,,,,,,,,,,,,,,,,,,,,
568321,001,2022-11-20_23h59.43.936,Info_measure_main_exp,2022.2.2,Win32,60.07449237,,,,,,,,,,,,,,,,,,,,,,,,,,,,,,4,0.7125,1,,,,,,,,,,,,0,131,5,5,1974,2298,absent_patch/patch0001974.jpg,absent_patch/patch0002298.jpg,,,,,,,,,,,,,,,,,,,,0.027777778,-0.086111104,1,0,0,response3disk,33,0.00462963,-0.001851859,1,0,0,center_square,0,32,32,6,1,,,,,,,,,,,,,,,,,,,,,,,
568321,001,2022-11-20_23h59.43.936,Info_measure_main_exp,2022.2.2,Win32,60.07449237,,,,,,,,,,,,,,,,,,masks/mask_003.jpg,,,,,,,,,,,,,,,,,,,,,,,,,,,,,,,,,,,,,,,,,,,0,0,0,2,1,,,,,,,,,,,,,,,,,,,,,,,,,,,,,,,,,,,,,,,,,,,,,,
568321,001,2022-11-20_23h59.43.936,Info_measure_main_exp,2022.2.2,Win32,60.07449237,,,,,,,,,,,,,,,,,,masks/mask_001.jpg,,,,,,,,,,,,,,,,,,,,,,,,,,,,,,,,,,,,,,,,,,,0,1,1,0,1,,,,,,,,,,,,,,,,,,,,,,,,,,,,,,,,,,,,,,,,,,,,,,
568321,001,2022-11-20_23h59.43.936,Info_measure_main_exp,2022.2.2,Win32,60.07449237,,,,,,,,,,,,,,,,,,masks/mask_004.jpg,,,,,,,,,,,,,,,,,,,,,,,,,,,,,,,,,,,,,,,,,,,0,2,2,3,1,,,,,,,,,,,,,,,,,,,,,,,,,,,,,,,,,,,,,,,,,,,,,,
568321,001,2022-11-20_23h59.43.936,Info_measure_main_exp,2022.2.2,Win32,60.07449237,,,,,,,,,,,,,,,,,,masks/mask_002.jpg,,,,,,,,,,,,,,,,,,,,,,,,,,,,,,,,,,,,,,,,,,,0,3,3,1,1,,,,,,,,,,,,,,,,,,,,,,,,,,,,,,,,,,,,,,,,,,,,,,
568321,001,2022-11-20_23h59.43.936,Info_measure_main_exp,2022.2.2,Win32,60.07449237,,,,,,,,,,,,,,,,,,masks/mask_005.jpg,,,,,,,,,,,,,,,,,,,,,,,,,,,,,,,,,,,,,,,,,,,0,4,4,4,1,,,,,,,,,,,,,,,,,,,,,,,,,,,,,,,,,,,,,,,,,,,,,,
568321,001,2022-11-20_23h59.43.936,Info_measure_main_exp,2022.2.2,Win32,60.07449237,,,,,,,,,,,,,,,,,,masks/mask_004.jpg,,,,,,,,,,,,,,,,,,,,,,,,,,,,,,,,,,,,,,,,,,,,,,,,0,0,0,3,1,,,,,,,,,,,,,,,,,,,,,,,,,,,,,,,,,,,,,,,,,
568321,001,2022-11-20_23h59.43.936,Info_measure_main_exp,2022.2.2,Win32,60.07449237,,,,,,,,,,,,,,,,,,masks/mask_002.jpg,,,,,,,,,,,,,,,,,,,,,,,,,,,,,,,,,,,,,,,,,,,,,,,,0,1,1,1,1,,,,,,,,,,,,,,,,,,,,,,,,,,,,,,,,,,,,,,,,,
568321,001,2022-11-20_23h59.43.936,Info_measure_main_exp,2022.2.2,Win32,60.07449237,,,,,,,,,,,,,,,,,,masks/mask_001.jpg,,,,,,,,,,,,,,,,,,,,,,,,,,,,,,,,,,,,,,,,,,,,,,,,0,2,2,0,1,,,,,,,,,,,,,,,,,,,,,,,,,,,,,,,,,,,,,,,,,
568321,001,2022-11-20_23h59.43.936,Info_measure_main_exp,2022.2.2,Win32,60.07449237,,,,,,,,,,,,,,,,,,masks/mask_005.jpg,,,,,,,,,,,,,,,,,,,,,,,,,,,,,,,,,,,,,,,,,,,,,,,,0,3,3,4,1,,,,,,,,,,,,,,,,,,,,,,,,,,,,,,,,,,,,,,,,,
568321,001,2022-11-20_23h59.43.936,Info_measure_main_exp,2022.2.2,Win32,60.07449237,,,,,,,,,,,,,,,,,,masks/mask_003.jpg,,,,,,,,,,,,,,,,,,,,,,,,,,,,,,,,,,,,,,,,,,,,,,,,0,4,4,2,1,,,,,,,,,,,,,,,,,,,,,,,,,,,,,,,,,,,,,,,,,
568321,001,2022-11-20_23h59.43.936,Info_measure_main_exp,2022.2.2,Win32,60.07449237,,,,,,,,,,,,,,,,,,,,,,,,,,,,,,5,0.9168,1,,,,,,,,,,,,0,131,5,5,2166,2154,absent_patch/patch0002166.jpg,absent_patch/patch0002154.jpg,,,,,,,,,,,,,,,,,,,,0.071296339,-0.030555548,1,0,0,response3disk,34,-0.000925912,0.000925912,1,0,0,center_square,0,33,33,79,1,,,,,,,,,,,,,,,,,,,,,,,
568321,001,2022-11-20_23h59.43.936,Info_measure_main_exp,2022.2.2,Win32,60.07449237,,,,,,,,,,,,,,,,,,masks/mask_004.jpg,,,,,,,,,,,,,,,,,,,,,,,,,,,,,,,,,,,,,,,,,,,0,0,0,3,1,,,,,,,,,,,,,,,,,,,,,,,,,,,,,,,,,,,,,,,,,,,,,,
568321,001,2022-11-20_23h59.43.936,Info_measure_main_exp,2022.2.2,Win32,60.07449237,,,,,,,,,,,,,,,,,,masks/mask_001.jpg,,,,,,,,,,,,,,,,,,,,,,,,,,,,,,,,,,,,,,,,,,,0,1,1,0,1,,,,,,,,,,,,,,,,,,,,,,,,,,,,,,,,,,,,,,,,,,,,,,
568321,001,2022-11-20_23h59.43.936,Info_measure_main_exp,2022.2.2,Win32,60.07449237,,,,,,,,,,,,,,,,,,masks/mask_002.jpg,,,,,,,,,,,,,,,,,,,,,,,,,,,,,,,,,,,,,,,,,,,0,2,2,1,1,,,,,,,,,,,,,,,,,,,,,,,,,,,,,,,,,,,,,,,,,,,,,,
568321,001,2022-11-20_23h59.43.936,Info_measure_main_exp,2022.2.2,Win32,60.07449237,,,,,,,,,,,,,,,,,,masks/mask_003.jpg,,,,,,,,,,,,,,,,,,,,,,,,,,,,,,,,,,,,,,,,,,,0,3,3,2,1,,,,,,,,,,,,,,,,,,,,,,,,,,,,,,,,,,,,,,,,,,,,,,
568321,001,2022-11-20_23h59.43.936,Info_measure_main_exp,2022.2.2,Win32,60.07449237,,,,,,,,,,,,,,,,,,masks/mask_005.jpg,,,,,,,,,,,,,,,,,,,,,,,,,,,,,,,,,,,,,,,,,,,0,4,4,4,1,,,,,,,,,,,,,,,,,,,,,,,,,,,,,,,,,,,,,,,,,,,,,,
568321,001,2022-11-20_23h59.43.936,Info_measure_main_exp,2022.2.2,Win32,60.07449237,,,,,,,,,,,,,,,,,,masks/mask_002.jpg,,,,,,,,,,,,,,,,,,,,,,,,,,,,,,,,,,,,,,,,,,,,,,,,0,0,0,1,1,,,,,,,,,,,,,,,,,,,,,,,,,,,,,,,,,,,,,,,,,
568321,001,2022-11-20_23h59.43.936,Info_measure_main_exp,2022.2.2,Win32,60.07449237,,,,,,,,,,,,,,,,,,masks/mask_003.jpg,,,,,,,,,,,,,,,,,,,,,,,,,,,,,,,,,,,,,,,,,,,,,,,,0,1,1,2,1,,,,,,,,,,,,,,,,,,,,,,,,,,,,,,,,,,,,,,,,,
568321,001,2022-11-20_23h59.43.936,Info_measure_main_exp,2022.2.2,Win32,60.07449237,,,,,,,,,,,,,,,,,,masks/mask_004.jpg,,,,,,,,,,,,,,,,,,,,,,,,,,,,,,,,,,,,,,,,,,,,,,,,0,2,2,3,1,,,,,,,,,,,,,,,,,,,,,,,,,,,,,,,,,,,,,,,,,
568321,001,2022-11-20_23h59.43.936,Info_measure_main_exp,2022.2.2,Win32,60.07449237,,,,,,,,,,,,,,,,,,masks/mask_001.jpg,,,,,,,,,,,,,,,,,,,,,,,,,,,,,,,,,,,,,,,,,,,,,,,,0,3,3,0,1,,,,,,,,,,,,,,,,,,,,,,,,,,,,,,,,,,,,,,,,,
