participant,session,date,expName,psychopyVersion,OS,frameRate,space_press_continue.keys,space_press_continue.rt,space_press_continue_2.keys,space_press_continue_2.rt,space_press_continue_3.keys,space_press_continue_3.rt,space_press_continue_4.keys,space_press_continue_4.rt,space_press_continue_5.keys,space_press_continue_5.rt,space_press_continue_6.keys,space_press_continue_6.rt,prac_mask_loop_1.thisRepN,prac_mask_loop_1.thisTrialN,prac_mask_loop_1.thisN,prac_mask_loop_1.thisIndex,prac_mask_loop_1.ran,mask_name,prac_mask_loop_2.thisRepN,prac_mask_loop_2.thisTrialN,prac_mask_loop_2.thisN,prac_mask_loop_2.thisIndex,prac_mask_loop_2.ran,mouse_2.x,mouse_2.y,mouse_2.leftButton,mouse_2.midButton,mouse_2.rightButton,mouse_2.clicked_name,similarity,response_time,Pass,mouse_12.x,mouse_12.y,mouse_12.leftButton,mouse_12.midButton,mouse_12.rightButton,mouse_12.clicked_name,prac_loop.thisRepN,prac_loop.thisTrialN,prac_loop.thisN,prac_loop.thisIndex,prac_loop.ran,Pair_type,Image_num,Patch_1_loc,Patch_2_loc,Patch_1_info,Patch_2_info,Patch_1_name,Patch_2_name,mouse_1.x,mouse_1.y,mouse_1.leftButton,mouse_1.midButton,mouse_1.rightButton,mouse_1.time,mouse_1.clicked_name,space_press_continue_7.keys,space_press_continue_7.rt,mask_loop.thisRepN,mask_loop.thisTrialN,mask_loop.thisN,mask_loop.thisIndex,mask_loop.ran,mask_loop_2.thisRepN,mask_loop_2.thisTrialN,mask_loop_2.thisN,mask_loop_2.thisIndex,mask_loop_2.ran,mouse.x,mouse.y,mouse.leftButton,mouse.midButton,mouse.rightButton,mouse.clicked_name,trialNumber,mouse_11.x,mouse_11.y,mouse_11.leftButton,mouse_11.midButton,mouse_11.rightButton,mouse_11.clicked_name,first_pass_loop.thisRepN,first_pass_loop.thisTrialN,first_pass_loop.thisN,first_pass_loop.thisIndex,first_pass_loop.ran,mask_loop_3.thisRepN,mask_loop_3.thisTrialN,mask_loop_3.thisN,mask_loop_3.thisIndex,mask_loop_3.ran,mask_loop_4.thisRepN,mask_loop_4.thisTrialN,mask_loop_4.thisN,mask_loop_4.thisIndex,mask_loop_4.ran,mouse_3.x,mouse_3.y,mouse_3.leftButton,mouse_3.midButton,mouse_3.rightButton,mouse_3.clicked_name,double_pass_loop.thisRepN,double_pass_loop.thisTrialN,double_pass_loop.thisN,double_pass_loop.thisIndex,double_pass_loop.ran,space_exit.keys,space_exit.rt
569683,001,2022-11-13_20h36.08.572,Info_measure_main_exp,2022.2.2,Win32,60.53635208,,,,,,,,,,,,,,,,,,,,,,,,,,,,,,,,,,,,,,,,,,,,,,,,,,,,,,,,,,,,,,,,,,,,,,,,,,,,,,,,,,,,,,,,,,,,,,,,,,,,,,,,,,,,,,,
569683,001,2022-11-13_20h36.08.572,Info_measure_main_exp,2022.2.2,Win32,60.53635208,,,,,,,,,,,,,,,,,,,,,,,,,,,,,,,,,,,,,,,,,,,,,,,,,,,,,,,,,,,,,,,,,,,,,,,,,,,,,,,,,,,,,,,,,,,,,,,,,,,,,,,,,,,,,,,
569683,001,2022-11-13_20h36.08.572,Info_measure_main_exp,2022.2.2,Win32,60.53635208,space,7.0026,,,,,,,,,,,,,,,,,,,,,,,,,,,,,,,,,,,,,,,,,,,,,,,,,,,,,,,,,,,,,,,,,,,,,,,,,,,,,,,,,,,,,,,,,,,,,,,,,,,,,,,,,,,,,
569683,001,2022-11-13_20h36.08.572,Info_measure_main_exp,2022.2.2,Win32,60.53635208,,,space,18.3386,,,,,,,,,,,,,,,,,,,,,,,,,,,,,,,,,,,,,,,,,,,,,,,,,,,,,,,,,,,,,,,,,,,,,,,,,,,,,,,,,,,,,,,,,,,,,,,,,,,,,,,,,,,
569683,001,2022-11-13_20h36.08.572,Info_measure_main_exp,2022.2.2,Win32,60.53635208,,,,,space,7.6962,,,,,,,,,,,,,,,,,,,,,,,,,,,,,,,,,,,,,,,,,,,,,,,,,,,,,,,,,,,,,,,,,,,,,,,,,,,,,,,,,,,,,,,,,,,,,,,,,,,,,,,,,
569683,001,2022-11-13_20h36.08.572,Info_measure_main_exp,2022.2.2,Win32,60.53635208,,,,,,,space,14.1471,,,,,,,,,,,,,,,,,,,,,,,,,,,,,,,,,,,,,,,,,,,,,,,,,,,,,,,,,,,,,,,,,,,,,,,,,,,,,,,,,,,,,,,,,,,,,,,,,,,,,,,
569683,001,2022-11-13_20h36.08.572,Info_measure_main_exp,2022.2.2,Win32,60.53635208,,,,,,,,,space,8.2815,,,,,,,,,,,,,,,,,,,,,,,,,,,,,,,,,,,,,,,,,,,,,,,,,,,,,,,,,,,,,,,,,,,,,,,,,,,,,,,,,,,,,,,,,,,,,,,,,,,,,
569683,001,2022-11-13_20h36.08.572,Info_measure_main_exp,2022.2.2,Win32,60.53635208,,,,,,,,,,,space,6.7908,,,,,,,,,,,,,,,,,,,,,,,,,,,,,,,,,,,,,,,,,,,,,,,,,,,,,,,,,,,,,,,,,,,,,,,,,,,,,,,,,,,,,,,,,,,,,,,,,,,
569683,001,2022-11-13_20h36.08.572,Info_measure_main_exp,2022.2.2,Win32,60.53635208,,,,,,,,,,,,,0,0,0,3,1,masks/mask_004.jpg,,,,,,,,,,,,,,,,,,,,,,,,,,,,,,,,,,,,,,,,,,,,,,,,,,,,,,,,,,,,,,,,,,,,,,,,,,,,,,,,,,,,,,,,,,,,,
569683,001,2022-11-13_20h36.08.572,Info_measure_main_exp,2022.2.2,Win32,60.53635208,,,,,,,,,,,,,0,1,1,4,1,masks/mask_005.jpg,,,,,,,,,,,,,,,,,,,,,,,,,,,,,,,,,,,,,,,,,,,,,,,,,,,,,,,,,,,,,,,,,,,,,,,,,,,,,,,,,,,,,,,,,,,,,
569683,001,2022-11-13_20h36.08.572,Info_measure_main_exp,2022.2.2,Win32,60.53635208,,,,,,,,,,,,,0,2,2,1,1,masks/mask_002.jpg,,,,,,,,,,,,,,,,,,,,,,,,,,,,,,,,,,,,,,,,,,,,,,,,,,,,,,,,,,,,,,,,,,,,,,,,,,,,,,,,,,,,,,,,,,,,,
569683,001,2022-11-13_20h36.08.572,Info_measure_main_exp,2022.2.2,Win32,60.53635208,,,,,,,,,,,,,0,3,3,2,1,masks/mask_003.jpg,,,,,,,,,,,,,,,,,,,,,,,,,,,,,,,,,,,,,,,,,,,,,,,,,,,,,,,,,,,,,,,,,,,,,,,,,,,,,,,,,,,,,,,,,,,,,
569683,001,2022-11-13_20h36.08.572,Info_measure_main_exp,2022.2.2,Win32,60.53635208,,,,,,,,,,,,,0,4,4,0,1,masks/mask_001.jpg,,,,,,,,,,,,,,,,,,,,,,,,,,,,,,,,,,,,,,,,,,,,,,,,,,,,,,,,,,,,,,,,,,,,,,,,,,,,,,,,,,,,,,,,,,,,,
569683,001,2022-11-13_20h36.08.572,Info_measure_main_exp,2022.2.2,Win32,60.53635208,,,,,,,,,,,,,,,,,,masks/mask_004.jpg,0,0,0,3,1,,,,,,,,,,,,,,,,,,,,,,,,,,,,,,,,,,,,,,,,,,,,,,,,,,,,,,,,,,,,,,,,,,,,,,,,,,,,,,,,,,,,,,,,
569683,001,2022-11-13_20h36.08.572,Info_measure_main_exp,2022.2.2,Win32,60.53635208,,,,,,,,,,,,,,,,,,masks/mask_002.jpg,0,1,1,1,1,,,,,,,,,,,,,,,,,,,,,,,,,,,,,,,,,,,,,,,,,,,,,,,,,,,,,,,,,,,,,,,,,,,,,,,,,,,,,,,,,,,,,,,,
569683,001,2022-11-13_20h36.08.572,Info_measure_main_exp,2022.2.2,Win32,60.53635208,,,,,,,,,,,,,,,,,,masks/mask_003.jpg,0,2,2,2,1,,,,,,,,,,,,,,,,,,,,,,,,,,,,,,,,,,,,,,,,,,,,,,,,,,,,,,,,,,,,,,,,,,,,,,,,,,,,,,,,,,,,,,,,
569683,001,2022-11-13_20h36.08.572,Info_measure_main_exp,2022.2.2,Win32,60.53635208,,,,,,,,,,,,,,,,,,masks/mask_001.jpg,0,3,3,0,1,,,,,,,,,,,,,,,,,,,,,,,,,,,,,,,,,,,,,,,,,,,,,,,,,,,,,,,,,,,,,,,,,,,,,,,,,,,,,,,,,,,,,,,,
569683,001,2022-11-13_20h36.08.572,Info_measure_main_exp,2022.2.2,Win32,60.53635208,,,,,,,,,,,,,,,,,,masks/mask_005.jpg,0,4,4,4,1,,,,,,,,,,,,,,,,,,,,,,,,,,,,,,,,,,,,,,,,,,,,,,,,,,,,,,,,,,,,,,,,,,,,,,,,,,,,,,,,,,,,,,,,
569683,001,2022-11-13_20h36.08.572,Info_measure_main_exp,2022.2.2,Win32,60.53635208,,,,,,,,,,,,,,,,,,,,,,,,0.143333333,-0.046666667,1,0,0,response3disk,5,76.3868,1,-0.006666667,0,1,0,0,center_square,0,0,0,1,1,0,131,5,5,2514,2490,prac_patch/patch0002514.jpg,prac_patch/patch0002490.jpg,,,,,,,,,,,,,,,,,,,,,,,,,,,,,,,,,,,,,,,,,,,,,,,,,,,,,,,,,,,,
569683,001,2022-11-13_20h36.08.572,Info_measure_main_exp,2022.2.2,Win32,60.53635208,,,,,,,,,,,,,0,0,0,0,1,masks/mask_001.jpg,,,,,,,,,,,,,,,,,,,,,,,,,,,,,,,,,,,,,,,,,,,,,,,,,,,,,,,,,,,,,,,,,,,,,,,,,,,,,,,,,,,,,,,,,,,,,
569683,001,2022-11-13_20h36.08.572,Info_measure_main_exp,2022.2.2,Win32,60.53635208,,,,,,,,,,,,,0,1,1,1,1,masks/mask_002.jpg,,,,,,,,,,,,,,,,,,,,,,,,,,,,,,,,,,,,,,,,,,,,,,,,,,,,,,,,,,,,,,,,,,,,,,,,,,,,,,,,,,,,,,,,,,,,,
569683,001,2022-11-13_20h36.08.572,Info_measure_main_exp,2022.2.2,Win32,60.53635208,,,,,,,,,,,,,0,2,2,3,1,masks/mask_004.jpg,,,,,,,,,,,,,,,,,,,,,,,,,,,,,,,,,,,,,,,,,,,,,,,,,,,,,,,,,,,,,,,,,,,,,,,,,,,,,,,,,,,,,,,,,,,,,
569683,001,2022-11-13_20h36.08.572,Info_measure_main_exp,2022.2.2,Win32,60.53635208,,,,,,,,,,,,,0,3,3,2,1,masks/mask_003.jpg,,,,,,,,,,,,,,,,,,,,,,,,,,,,,,,,,,,,,,,,,,,,,,,,,,,,,,,,,,,,,,,,,,,,,,,,,,,,,,,,,,,,,,,,,,,,,
569683,001,2022-11-13_20h36.08.572,Info_measure_main_exp,2022.2.2,Win32,60.53635208,,,,,,,,,,,,,0,4,4,4,1,masks/mask_005.jpg,,,,,,,,,,,,,,,,,,,,,,,,,,,,,,,,,,,,,,,,,,,,,,,,,,,,,,,,,,,,,,,,,,,,,,,,,,,,,,,,,,,,,,,,,,,,,
569683,001,2022-11-13_20h36.08.572,Info_measure_main_exp,2022.2.2,Win32,60.53635208,,,,,,,,,,,,,,,,,,masks/mask_002.jpg,0,0,0,1,1,,,,,,,,,,,,,,,,,,,,,,,,,,,,,,,,,,,,,,,,,,,,,,,,,,,,,,,,,,,,,,,,,,,,,,,,,,,,,,,,,,,,,,,,
569683,001,2022-11-13_20h36.08.572,Info_measure_main_exp,2022.2.2,Win32,60.53635208,,,,,,,,,,,,,,,,,,masks/mask_003.jpg,0,1,1,2,1,,,,,,,,,,,,,,,,,,,,,,,,,,,,,,,,,,,,,,,,,,,,,,,,,,,,,,,,,,,,,,,,,,,,,,,,,,,,,,,,,,,,,,,,
569683,001,2022-11-13_20h36.08.572,Info_measure_main_exp,2022.2.2,Win32,60.53635208,,,,,,,,,,,,,,,,,,masks/mask_004.jpg,0,2,2,3,1,,,,,,,,,,,,,,,,,,,,,,,,,,,,,,,,,,,,,,,,,,,,,,,,,,,,,,,,,,,,,,,,,,,,,,,,,,,,,,,,,,,,,,,,
569683,001,2022-11-13_20h36.08.572,Info_measure_main_exp,2022.2.2,Win32,60.53635208,,,,,,,,,,,,,,,,,,masks/mask_001.jpg,0,3,3,0,1,,,,,,,,,,,,,,,,,,,,,,,,,,,,,,,,,,,,,,,,,,,,,,,,,,,,,,,,,,,,,,,,,,,,,,,,,,,,,,,,,,,,,,,,
569683,001,2022-11-13_20h36.08.572,Info_measure_main_exp,2022.2.2,Win32,60.53635208,,,,,,,,,,,,,,,,,,masks/mask_005.jpg,0,4,4,4,1,,,,,,,,,,,,,,,,,,,,,,,,,,,,,,,,,,,,,,,,,,,,,,,,,,,,,,,,,,,,,,,,,,,,,,,,,,,,,,,,,,,,,,,,
569683,001,2022-11-13_20h36.08.572,Info_measure_main_exp,2022.2.2,Win32,60.53635208,,,,,,,,,,,,,,,,,,,,,,,,0.056666667,0.146666667,1,0,0,response1disk,7,90.4535,1,0.012222222,0.013333333,1,0,0,center_square,0,1,1,0,1,0,131,5,5,2370,2406,prac_patch/patch0002370.jpg,prac_patch/patch0002406.jpg,,,,,,,,,,,,,,,,,,,,,,,,,,,,,,,,,,,,,,,,,,,,,,,,,,,,,,,,,,,,
569683,001,2022-11-13_20h36.08.572,Info_measure_main_exp,2022.2.2,Win32,60.53635208,,,,,,,,,,,,,0,0,0,1,1,masks/mask_002.jpg,,,,,,,,,,,,,,,,,,,,,,,,,,,,,,,,,,,,,,,,,,,,,,,,,,,,,,,,,,,,,,,,,,,,,,,,,,,,,,,,,,,,,,,,,,,,,
569683,001,2022-11-13_20h36.08.572,Info_measure_main_exp,2022.2.2,Win32,60.53635208,,,,,,,,,,,,,0,1,1,3,1,masks/mask_004.jpg,,,,,,,,,,,,,,,,,,,,,,,,,,,,,,,,,,,,,,,,,,,,,,,,,,,,,,,,,,,,,,,,,,,,,,,,,,,,,,,,,,,,,,,,,,,,,
569683,001,2022-11-13_20h36.08.572,Info_measure_main_exp,2022.2.2,Win32,60.53635208,,,,,,,,,,,,,0,2,2,4,1,masks/mask_005.jpg,,,,,,,,,,,,,,,,,,,,,,,,,,,,,,,,,,,,,,,,,,,,,,,,,,,,,,,,,,,,,,,,,,,,,,,,,,,,,,,,,,,,,,,,,,,,,
569683,001,2022-11-13_20h36.08.572,Info_measure_main_exp,2022.2.2,Win32,60.53635208,,,,,,,,,,,,,0,3,3,2,1,masks/mask_003.jpg,,,,,,,,,,,,,,,,,,,,,,,,,,,,,,,,,,,,,,,,,,,,,,,,,,,,,,,,,,,,,,,,,,,,,,,,,,,,,,,,,,,,,,,,,,,,,
569683,001,2022-11-13_20h36.08.572,Info_measure_main_exp,2022.2.2,Win32,60.53635208,,,,,,,,,,,,,0,4,4,0,1,masks/mask_001.jpg,,,,,,,,,,,,,,,,,,,,,,,,,,,,,,,,,,,,,,,,,,,,,,,,,,,,,,,,,,,,,,,,,,,,,,,,,,,,,,,,,,,,,,,,,,,,,
569683,001,2022-11-13_20h36.08.572,Info_measure_main_exp,2022.2.2,Win32,60.53635208,,,,,,,,,,,,,,,,,,masks/mask_001.jpg,0,0,0,0,1,,,,,,,,,,,,,,,,,,,,,,,,,,,,,,,,,,,,,,,,,,,,,,,,,,,,,,,,,,,,,,,,,,,,,,,,,,,,,,,,,,,,,,,,
569683,001,2022-11-13_20h36.08.572,Info_measure_main_exp,2022.2.2,Win32,60.53635208,,,,,,,,,,,,,,,,,,masks/mask_004.jpg,0,1,1,3,1,,,,,,,,,,,,,,,,,,,,,,,,,,,,,,,,,,,,,,,,,,,,,,,,,,,,,,,,,,,,,,,,,,,,,,,,,,,,,,,,,,,,,,,,
569683,001,2022-11-13_20h36.08.572,Info_measure_main_exp,2022.2.2,Win32,60.53635208,,,,,,,,,,,,,,,,,,masks/mask_003.jpg,0,2,2,2,1,,,,,,,,,,,,,,,,,,,,,,,,,,,,,,,,,,,,,,,,,,,,,,,,,,,,,,,,,,,,,,,,,,,,,,,,,,,,,,,,,,,,,,,,
569683,001,2022-11-13_20h36.08.572,Info_measure_main_exp,2022.2.2,Win32,60.53635208,,,,,,,,,,,,,,,,,,masks/mask_002.jpg,0,3,3,1,1,,,,,,,,,,,,,,,,,,,,,,,,,,,,,,,,,,,,,,,,,,,,,,,,,,,,,,,,,,,,,,,,,,,,,,,,,,,,,,,,,,,,,,,,
569683,001,2022-11-13_20h36.08.572,Info_measure_main_exp,2022.2.2,Win32,60.53635208,,,,,,,,,,,,,,,,,,masks/mask_005.jpg,0,4,4,4,1,,,,,,,,,,,,,,,,,,,,,,,,,,,,,,,,,,,,,,,,,,,,,,,,,,,,,,,,,,,,,,,,,,,,,,,,,,,,,,,,,,,,,,,,
569683,001,2022-11-13_20h36.08.572,Info_measure_main_exp,2022.2.2,Win32,60.53635208,,,,,,,,,,,,,,,,,,,,,,,,-0.116666667,0.151111111,1,0,0,response7disk,0,100.3791,1,-0.006666667,0.014444444,1,0,0,center_square,0,2,2,2,1,0,131,5,5,2526,2526,prac_patch/patch0002526.jpg,prac_patch/patch0002526.jpg,,,,,,,,,,,,,,,,,,,,,,,,,,,,,,,,,,,,,,,,,,,,,,,,,,,,,,,,,,,,
569683,001,2022-11-13_20h36.08.572,Info_measure_main_exp,2022.2.2,Win32,60.53635208,,,,,,,,,,,,,,,,,,,,,,,,,,,,,,,,,,,,,,,,,,,,,,,,,,,,,,,,,,,space,3.1945,,,,,,,,,,,,,,,,,,,,,,,,,,,,,,,,,,,,,,,,,,,,,,,,,,,
569683,001,2022-11-13_20h36.08.572,Info_measure_main_exp,2022.2.2,Win32,60.53635208,,,,,,,,,,,,,,,,,,masks/mask_004.jpg,,,,,,,,,,,,,,,,,,,,,,,,,,,,,,,,,,,,,,,,,,,0,0,0,3,1,,,,,,,,,,,,,,,,,,,,,,,,,,,,,,,,,,,,,,,,,,,,,,
569683,001,2022-11-13_20h36.08.572,Info_measure_main_exp,2022.2.2,Win32,60.53635208,,,,,,,,,,,,,,,,,,masks/mask_003.jpg,,,,,,,,,,,,,,,,,,,,,,,,,,,,,,,,,,,,,,,,,,,0,1,1,2,1,,,,,,,,,,,,,,,,,,,,,,,,,,,,,,,,,,,,,,,,,,,,,,
569683,001,2022-11-13_20h36.08.572,Info_measure_main_exp,2022.2.2,Win32,60.53635208,,,,,,,,,,,,,,,,,,masks/mask_005.jpg,,,,,,,,,,,,,,,,,,,,,,,,,,,,,,,,,,,,,,,,,,,0,2,2,4,1,,,,,,,,,,,,,,,,,,,,,,,,,,,,,,,,,,,,,,,,,,,,,,
569683,001,2022-11-13_20h36.08.572,Info_measure_main_exp,2022.2.2,Win32,60.53635208,,,,,,,,,,,,,,,,,,masks/mask_002.jpg,,,,,,,,,,,,,,,,,,,,,,,,,,,,,,,,,,,,,,,,,,,0,3,3,1,1,,,,,,,,,,,,,,,,,,,,,,,,,,,,,,,,,,,,,,,,,,,,,,
569683,001,2022-11-13_20h36.08.572,Info_measure_main_exp,2022.2.2,Win32,60.53635208,,,,,,,,,,,,,,,,,,masks/mask_001.jpg,,,,,,,,,,,,,,,,,,,,,,,,,,,,,,,,,,,,,,,,,,,0,4,4,0,1,,,,,,,,,,,,,,,,,,,,,,,,,,,,,,,,,,,,,,,,,,,,,,
569683,001,2022-11-13_20h36.08.572,Info_measure_main_exp,2022.2.2,Win32,60.53635208,,,,,,,,,,,,,,,,,,masks/mask_001.jpg,,,,,,,,,,,,,,,,,,,,,,,,,,,,,,,,,,,,,,,,,,,,,,,,0,0,0,0,1,,,,,,,,,,,,,,,,,,,,,,,,,,,,,,,,,,,,,,,,,
569683,001,2022-11-13_20h36.08.572,Info_measure_main_exp,2022.2.2,Win32,60.53635208,,,,,,,,,,,,,,,,,,masks/mask_003.jpg,,,,,,,,,,,,,,,,,,,,,,,,,,,,,,,,,,,,,,,,,,,,,,,,0,1,1,2,1,,,,,,,,,,,,,,,,,,,,,,,,,,,,,,,,,,,,,,,,,
569683,001,2022-11-13_20h36.08.572,Info_measure_main_exp,2022.2.2,Win32,60.53635208,,,,,,,,,,,,,,,,,,masks/mask_005.jpg,,,,,,,,,,,,,,,,,,,,,,,,,,,,,,,,,,,,,,,,,,,,,,,,0,2,2,4,1,,,,,,,,,,,,,,,,,,,,,,,,,,,,,,,,,,,,,,,,,
569683,001,2022-11-13_20h36.08.572,Info_measure_main_exp,2022.2.2,Win32,60.53635208,,,,,,,,,,,,,,,,,,masks/mask_002.jpg,,,,,,,,,,,,,,,,,,,,,,,,,,,,,,,,,,,,,,,,,,,,,,,,0,3,3,1,1,,,,,,,,,,,,,,,,,,,,,,,,,,,,,,,,,,,,,,,,,
569683,001,2022-11-13_20h36.08.572,Info_measure_main_exp,2022.2.2,Win32,60.53635208,,,,,,,,,,,,,,,,,,masks/mask_004.jpg,,,,,,,,,,,,,,,,,,,,,,,,,,,,,,,,,,,,,,,,,,,,,,,,0,4,4,3,1,,,,,,,,,,,,,,,,,,,,,,,,,,,,,,,,,,,,,,,,,
569683,001,2022-11-13_20h36.08.572,Info_measure_main_exp,2022.2.2,Win32,60.53635208,,,,,,,,,,,,,,,,,,,,,,,,,,,,,,7,2.4951,1,,,,,,,,,,,,0,131,5,5,2190,2166,absent_patch/patch0002190.jpg,absent_patch/patch0002166.jpg,,,,,,,,,,,,,,,,,,,,0.101111111,0.183333333,1,0,0,response1disk,1,-0.002222222,0.003333333,1,0,0,center_square,0,0,0,50,1,,,,,,,,,,,,,,,,,,,,,,,
569683,001,2022-11-13_20h36.08.572,Info_measure_main_exp,2022.2.2,Win32,60.53635208,,,,,,,,,,,,,,,,,,masks/mask_004.jpg,,,,,,,,,,,,,,,,,,,,,,,,,,,,,,,,,,,,,,,,,,,0,0,0,3,1,,,,,,,,,,,,,,,,,,,,,,,,,,,,,,,,,,,,,,,,,,,,,,
569683,001,2022-11-13_20h36.08.572,Info_measure_main_exp,2022.2.2,Win32,60.53635208,,,,,,,,,,,,,,,,,,masks/mask_003.jpg,,,,,,,,,,,,,,,,,,,,,,,,,,,,,,,,,,,,,,,,,,,0,1,1,2,1,,,,,,,,,,,,,,,,,,,,,,,,,,,,,,,,,,,,,,,,,,,,,,
569683,001,2022-11-13_20h36.08.572,Info_measure_main_exp,2022.2.2,Win32,60.53635208,,,,,,,,,,,,,,,,,,masks/mask_001.jpg,,,,,,,,,,,,,,,,,,,,,,,,,,,,,,,,,,,,,,,,,,,0,2,2,0,1,,,,,,,,,,,,,,,,,,,,,,,,,,,,,,,,,,,,,,,,,,,,,,
569683,001,2022-11-13_20h36.08.572,Info_measure_main_exp,2022.2.2,Win32,60.53635208,,,,,,,,,,,,,,,,,,masks/mask_002.jpg,,,,,,,,,,,,,,,,,,,,,,,,,,,,,,,,,,,,,,,,,,,0,3,3,1,1,,,,,,,,,,,,,,,,,,,,,,,,,,,,,,,,,,,,,,,,,,,,,,
569683,001,2022-11-13_20h36.08.572,Info_measure_main_exp,2022.2.2,Win32,60.53635208,,,,,,,,,,,,,,,,,,masks/mask_005.jpg,,,,,,,,,,,,,,,,,,,,,,,,,,,,,,,,,,,,,,,,,,,0,4,4,4,1,,,,,,,,,,,,,,,,,,,,,,,,,,,,,,,,,,,,,,,,,,,,,,
569683,001,2022-11-13_20h36.08.572,Info_measure_main_exp,2022.2.2,Win32,60.53635208,,,,,,,,,,,,,,,,,,masks/mask_005.jpg,,,,,,,,,,,,,,,,,,,,,,,,,,,,,,,,,,,,,,,,,,,,,,,,0,0,0,4,1,,,,,,,,,,,,,,,,,,,,,,,,,,,,,,,,,,,,,,,,,
569683,001,2022-11-13_20h36.08.572,Info_measure_main_exp,2022.2.2,Win32,60.53635208,,,,,,,,,,,,,,,,,,masks/mask_003.jpg,,,,,,,,,,,,,,,,,,,,,,,,,,,,,,,,,,,,,,,,,,,,,,,,0,1,1,2,1,,,,,,,,,,,,,,,,,,,,,,,,,,,,,,,,,,,,,,,,,
569683,001,2022-11-13_20h36.08.572,Info_measure_main_exp,2022.2.2,Win32,60.53635208,,,,,,,,,,,,,,,,,,masks/mask_002.jpg,,,,,,,,,,,,,,,,,,,,,,,,,,,,,,,,,,,,,,,,,,,,,,,,0,2,2,1,1,,,,,,,,,,,,,,,,,,,,,,,,,,,,,,,,,,,,,,,,,
569683,001,2022-11-13_20h36.08.572,Info_measure_main_exp,2022.2.2,Win32,60.53635208,,,,,,,,,,,,,,,,,,masks/mask_004.jpg,,,,,,,,,,,,,,,,,,,,,,,,,,,,,,,,,,,,,,,,,,,,,,,,0,3,3,3,1,,,,,,,,,,,,,,,,,,,,,,,,,,,,,,,,,,,,,,,,,
569683,001,2022-11-13_20h36.08.572,Info_measure_main_exp,2022.2.2,Win32,60.53635208,,,,,,,,,,,,,,,,,,masks/mask_001.jpg,,,,,,,,,,,,,,,,,,,,,,,,,,,,,,,,,,,,,,,,,,,,,,,,0,4,4,0,1,,,,,,,,,,,,,,,,,,,,,,,,,,,,,,,,,,,,,,,,,
569683,001,2022-11-13_20h36.08.572,Info_measure_main_exp,2022.2.2,Win32,60.53635208,,,,,,,,,,,,,,,,,,,,,,,,,,,,,,7,0.9805,1,,,,,,,,,,,,0,131,5,5,2178,2166,absent_patch/patch0002178.jpg,absent_patch/patch0002166.jpg,,,,,,,,,,,,,,,,,,,,0.111111111,0.153333333,1,0,0,response1disk,2,0.002222222,-0.001111111,1,0,0,center_square,0,1,1,72,1,,,,,,,,,,,,,,,,,,,,,,,
569683,001,2022-11-13_20h36.08.572,Info_measure_main_exp,2022.2.2,Win32,60.53635208,,,,,,,,,,,,,,,,,,masks/mask_001.jpg,,,,,,,,,,,,,,,,,,,,,,,,,,,,,,,,,,,,,,,,,,,0,0,0,0,1,,,,,,,,,,,,,,,,,,,,,,,,,,,,,,,,,,,,,,,,,,,,,,
569683,001,2022-11-13_20h36.08.572,Info_measure_main_exp,2022.2.2,Win32,60.53635208,,,,,,,,,,,,,,,,,,masks/mask_002.jpg,,,,,,,,,,,,,,,,,,,,,,,,,,,,,,,,,,,,,,,,,,,0,1,1,1,1,,,,,,,,,,,,,,,,,,,,,,,,,,,,,,,,,,,,,,,,,,,,,,
569683,001,2022-11-13_20h36.08.572,Info_measure_main_exp,2022.2.2,Win32,60.53635208,,,,,,,,,,,,,,,,,,masks/mask_004.jpg,,,,,,,,,,,,,,,,,,,,,,,,,,,,,,,,,,,,,,,,,,,0,2,2,3,1,,,,,,,,,,,,,,,,,,,,,,,,,,,,,,,,,,,,,,,,,,,,,,
569683,001,2022-11-13_20h36.08.572,Info_measure_main_exp,2022.2.2,Win32,60.53635208,,,,,,,,,,,,,,,,,,masks/mask_003.jpg,,,,,,,,,,,,,,,,,,,,,,,,,,,,,,,,,,,,,,,,,,,0,3,3,2,1,,,,,,,,,,,,,,,,,,,,,,,,,,,,,,,,,,,,,,,,,,,,,,
569683,001,2022-11-13_20h36.08.572,Info_measure_main_exp,2022.2.2,Win32,60.53635208,,,,,,,,,,,,,,,,,,masks/mask_005.jpg,,,,,,,,,,,,,,,,,,,,,,,,,,,,,,,,,,,,,,,,,,,0,4,4,4,1,,,,,,,,,,,,,,,,,,,,,,,,,,,,,,,,,,,,,,,,,,,,,,
569683,001,2022-11-13_20h36.08.572,Info_measure_main_exp,2022.2.2,Win32,60.53635208,,,,,,,,,,,,,,,,,,masks/mask_003.jpg,,,,,,,,,,,,,,,,,,,,,,,,,,,,,,,,,,,,,,,,,,,,,,,,0,0,0,2,1,,,,,,,,,,,,,,,,,,,,,,,,,,,,,,,,,,,,,,,,,
569683,001,2022-11-13_20h36.08.572,Info_measure_main_exp,2022.2.2,Win32,60.53635208,,,,,,,,,,,,,,,,,,masks/mask_002.jpg,,,,,,,,,,,,,,,,,,,,,,,,,,,,,,,,,,,,,,,,,,,,,,,,0,1,1,1,1,,,,,,,,,,,,,,,,,,,,,,,,,,,,,,,,,,,,,,,,,
569683,001,2022-11-13_20h36.08.572,Info_measure_main_exp,2022.2.2,Win32,60.53635208,,,,,,,,,,,,,,,,,,masks/mask_005.jpg,,,,,,,,,,,,,,,,,,,,,,,,,,,,,,,,,,,,,,,,,,,,,,,,0,2,2,4,1,,,,,,,,,,,,,,,,,,,,,,,,,,,,,,,,,,,,,,,,,
569683,001,2022-11-13_20h36.08.572,Info_measure_main_exp,2022.2.2,Win32,60.53635208,,,,,,,,,,,,,,,,,,masks/mask_001.jpg,,,,,,,,,,,,,,,,,,,,,,,,,,,,,,,,,,,,,,,,,,,,,,,,0,3,3,0,1,,,,,,,,,,,,,,,,,,,,,,,,,,,,,,,,,,,,,,,,,
569683,001,2022-11-13_20h36.08.572,Info_measure_main_exp,2022.2.2,Win32,60.53635208,,,,,,,,,,,,,,,,,,masks/mask_004.jpg,,,,,,,,,,,,,,,,,,,,,,,,,,,,,,,,,,,,,,,,,,,,,,,,0,4,4,3,1,,,,,,,,,,,,,,,,,,,,,,,,,,,,,,,,,,,,,,,,,
569683,001,2022-11-13_20h36.08.572,Info_measure_main_exp,2022.2.2,Win32,60.53635208,,,,,,,,,,,,,,,,,,,,,,,,,,,,,,7,0.9322,1,,,,,,,,,,,,0,131,5,5,2142,2190,absent_patch/patch0002142.jpg,absent_patch/patch0002190.jpg,,,,,,,,,,,,,,,,,,,,0.106666667,0.172222222,1,0,0,response1disk,3,0.003333333,0.013333333,1,0,0,center_square,0,2,2,70,1,,,,,,,,,,,,,,,,,,,,,,,
569683,001,2022-11-13_20h36.08.572,Info_measure_main_exp,2022.2.2,Win32,60.53635208,,,,,,,,,,,,,,,,,,masks/mask_005.jpg,,,,,,,,,,,,,,,,,,,,,,,,,,,,,,,,,,,,,,,,,,,0,0,0,4,1,,,,,,,,,,,,,,,,,,,,,,,,,,,,,,,,,,,,,,,,,,,,,,
569683,001,2022-11-13_20h36.08.572,Info_measure_main_exp,2022.2.2,Win32,60.53635208,,,,,,,,,,,,,,,,,,masks/mask_004.jpg,,,,,,,,,,,,,,,,,,,,,,,,,,,,,,,,,,,,,,,,,,,0,1,1,3,1,,,,,,,,,,,,,,,,,,,,,,,,,,,,,,,,,,,,,,,,,,,,,,
569683,001,2022-11-13_20h36.08.572,Info_measure_main_exp,2022.2.2,Win32,60.53635208,,,,,,,,,,,,,,,,,,masks/mask_001.jpg,,,,,,,,,,,,,,,,,,,,,,,,,,,,,,,,,,,,,,,,,,,0,2,2,0,1,,,,,,,,,,,,,,,,,,,,,,,,,,,,,,,,,,,,,,,,,,,,,,
569683,001,2022-11-13_20h36.08.572,Info_measure_main_exp,2022.2.2,Win32,60.53635208,,,,,,,,,,,,,,,,,,masks/mask_003.jpg,,,,,,,,,,,,,,,,,,,,,,,,,,,,,,,,,,,,,,,,,,,0,3,3,2,1,,,,,,,,,,,,,,,,,,,,,,,,,,,,,,,,,,,,,,,,,,,,,,
569683,001,2022-11-13_20h36.08.572,Info_measure_main_exp,2022.2.2,Win32,60.53635208,,,,,,,,,,,,,,,,,,masks/mask_002.jpg,,,,,,,,,,,,,,,,,,,,,,,,,,,,,,,,,,,,,,,,,,,0,4,4,1,1,,,,,,,,,,,,,,,,,,,,,,,,,,,,,,,,,,,,,,,,,,,,,,
569683,001,2022-11-13_20h36.08.572,Info_measure_main_exp,2022.2.2,Win32,60.53635208,,,,,,,,,,,,,,,,,,masks/mask_003.jpg,,,,,,,,,,,,,,,,,,,,,,,,,,,,,,,,,,,,,,,,,,,,,,,,0,0,0,2,1,,,,,,,,,,,,,,,,,,,,,,,,,,,,,,,,,,,,,,,,,
569683,001,2022-11-13_20h36.08.572,Info_measure_main_exp,2022.2.2,Win32,60.53635208,,,,,,,,,,,,,,,,,,masks/mask_002.jpg,,,,,,,,,,,,,,,,,,,,,,,,,,,,,,,,,,,,,,,,,,,,,,,,0,1,1,1,1,,,,,,,,,,,,,,,,,,,,,,,,,,,,,,,,,,,,,,,,,
569683,001,2022-11-13_20h36.08.572,Info_measure_main_exp,2022.2.2,Win32,60.53635208,,,,,,,,,,,,,,,,,,masks/mask_004.jpg,,,,,,,,,,,,,,,,,,,,,,,,,,,,,,,,,,,,,,,,,,,,,,,,0,2,2,3,1,,,,,,,,,,,,,,,,,,,,,,,,,,,,,,,,,,,,,,,,,
569683,001,2022-11-13_20h36.08.572,Info_measure_main_exp,2022.2.2,Win32,60.53635208,,,,,,,,,,,,,,,,,,masks/mask_001.jpg,,,,,,,,,,,,,,,,,,,,,,,,,,,,,,,,,,,,,,,,,,,,,,,,0,3,3,0,1,,,,,,,,,,,,,,,,,,,,,,,,,,,,,,,,,,,,,,,,,
569683,001,2022-11-13_20h36.08.572,Info_measure_main_exp,2022.2.2,Win32,60.53635208,,,,,,,,,,,,,,,,,,masks/mask_005.jpg,,,,,,,,,,,,,,,,,,,,,,,,,,,,,,,,,,,,,,,,,,,,,,,,0,4,4,4,1,,,,,,,,,,,,,,,,,,,,,,,,,,,,,,,,,,,,,,,,,
569683,001,2022-11-13_20h36.08.572,Info_measure_main_exp,2022.2.2,Win32,60.53635208,,,,,,,,,,,,,,,,,,,,,,,,,,,,,,7,0.698,1,,,,,,,,,,,,0,131,5,5,2154,2238,absent_patch/patch0002154.jpg,absent_patch/patch0002238.jpg,,,,,,,,,,,,,,,,,,,,0.075555556,0.167777778,1,0,0,response1disk,4,0.001111111,-0.003333333,1,0,0,center_square,0,3,3,21,1,,,,,,,,,,,,,,,,,,,,,,,
569683,001,2022-11-13_20h36.08.572,Info_measure_main_exp,2022.2.2,Win32,60.53635208,,,,,,,,,,,,,,,,,,masks/mask_002.jpg,,,,,,,,,,,,,,,,,,,,,,,,,,,,,,,,,,,,,,,,,,,0,0,0,1,1,,,,,,,,,,,,,,,,,,,,,,,,,,,,,,,,,,,,,,,,,,,,,,
569683,001,2022-11-13_20h36.08.572,Info_measure_main_exp,2022.2.2,Win32,60.53635208,,,,,,,,,,,,,,,,,,masks/mask_001.jpg,,,,,,,,,,,,,,,,,,,,,,,,,,,,,,,,,,,,,,,,,,,0,1,1,0,1,,,,,,,,,,,,,,,,,,,,,,,,,,,,,,,,,,,,,,,,,,,,,,
569683,001,2022-11-13_20h36.08.572,Info_measure_main_exp,2022.2.2,Win32,60.53635208,,,,,,,,,,,,,,,,,,masks/mask_004.jpg,,,,,,,,,,,,,,,,,,,,,,,,,,,,,,,,,,,,,,,,,,,0,2,2,3,1,,,,,,,,,,,,,,,,,,,,,,,,,,,,,,,,,,,,,,,,,,,,,,
569683,001,2022-11-13_20h36.08.572,Info_measure_main_exp,2022.2.2,Win32,60.53635208,,,,,,,,,,,,,,,,,,masks/mask_005.jpg,,,,,,,,,,,,,,,,,,,,,,,,,,,,,,,,,,,,,,,,,,,0,3,3,4,1,,,,,,,,,,,,,,,,,,,,,,,,,,,,,,,,,,,,,,,,,,,,,,
569683,001,2022-11-13_20h36.08.572,Info_measure_main_exp,2022.2.2,Win32,60.53635208,,,,,,,,,,,,,,,,,,masks/mask_003.jpg,,,,,,,,,,,,,,,,,,,,,,,,,,,,,,,,,,,,,,,,,,,0,4,4,2,1,,,,,,,,,,,,,,,,,,,,,,,,,,,,,,,,,,,,,,,,,,,,,,
569683,001,2022-11-13_20h36.08.572,Info_measure_main_exp,2022.2.2,Win32,60.53635208,,,,,,,,,,,,,,,,,,masks/mask_002.jpg,,,,,,,,,,,,,,,,,,,,,,,,,,,,,,,,,,,,,,,,,,,,,,,,0,0,0,1,1,,,,,,,,,,,,,,,,,,,,,,,,,,,,,,,,,,,,,,,,,
569683,001,2022-11-13_20h36.08.572,Info_measure_main_exp,2022.2.2,Win32,60.53635208,,,,,,,,,,,,,,,,,,masks/mask_003.jpg,,,,,,,,,,,,,,,,,,,,,,,,,,,,,,,,,,,,,,,,,,,,,,,,0,1,1,2,1,,,,,,,,,,,,,,,,,,,,,,,,,,,,,,,,,,,,,,,,,
569683,001,2022-11-13_20h36.08.572,Info_measure_main_exp,2022.2.2,Win32,60.53635208,,,,,,,,,,,,,,,,,,masks/mask_005.jpg,,,,,,,,,,,,,,,,,,,,,,,,,,,,,,,,,,,,,,,,,,,,,,,,0,2,2,4,1,,,,,,,,,,,,,,,,,,,,,,,,,,,,,,,,,,,,,,,,,
569683,001,2022-11-13_20h36.08.572,Info_measure_main_exp,2022.2.2,Win32,60.53635208,,,,,,,,,,,,,,,,,,masks/mask_001.jpg,,,,,,,,,,,,,,,,,,,,,,,,,,,,,,,,,,,,,,,,,,,,,,,,0,3,3,0,1,,,,,,,,,,,,,,,,,,,,,,,,,,,,,,,,,,,,,,,,,
569683,001,2022-11-13_20h36.08.572,Info_measure_main_exp,2022.2.2,Win32,60.53635208,,,,,,,,,,,,,,,,,,masks/mask_004.jpg,,,,,,,,,,,,,,,,,,,,,,,,,,,,,,,,,,,,,,,,,,,,,,,,0,4,4,3,1,,,,,,,,,,,,,,,,,,,,,,,,,,,,,,,,,,,,,,,,,
569683,001,2022-11-13_20h36.08.572,Info_measure_main_exp,2022.2.2,Win32,60.53635208,,,,,,,,,,,,,,,,,,,,,,,,,,,,,,7,0.5656,1,,,,,,,,,,,,0,131,5,5,2274,2250,absent_patch/patch0002274.jpg,absent_patch/patch0002250.jpg,,,,,,,,,,,,,,,,,,,,0.067777778,0.145555556,1,0,0,response1disk,5,-0.001111111,0.003333333,1,0,0,center_square,0,4,4,28,1,,,,,,,,,,,,,,,,,,,,,,,
569683,001,2022-11-13_20h36.08.572,Info_measure_main_exp,2022.2.2,Win32,60.53635208,,,,,,,,,,,,,,,,,,masks/mask_005.jpg,,,,,,,,,,,,,,,,,,,,,,,,,,,,,,,,,,,,,,,,,,,0,0,0,4,1,,,,,,,,,,,,,,,,,,,,,,,,,,,,,,,,,,,,,,,,,,,,,,
569683,001,2022-11-13_20h36.08.572,Info_measure_main_exp,2022.2.2,Win32,60.53635208,,,,,,,,,,,,,,,,,,masks/mask_001.jpg,,,,,,,,,,,,,,,,,,,,,,,,,,,,,,,,,,,,,,,,,,,0,1,1,0,1,,,,,,,,,,,,,,,,,,,,,,,,,,,,,,,,,,,,,,,,,,,,,,
569683,001,2022-11-13_20h36.08.572,Info_measure_main_exp,2022.2.2,Win32,60.53635208,,,,,,,,,,,,,,,,,,masks/mask_004.jpg,,,,,,,,,,,,,,,,,,,,,,,,,,,,,,,,,,,,,,,,,,,0,2,2,3,1,,,,,,,,,,,,,,,,,,,,,,,,,,,,,,,,,,,,,,,,,,,,,,
569683,001,2022-11-13_20h36.08.572,Info_measure_main_exp,2022.2.2,Win32,60.53635208,,,,,,,,,,,,,,,,,,masks/mask_002.jpg,,,,,,,,,,,,,,,,,,,,,,,,,,,,,,,,,,,,,,,,,,,0,3,3,1,1,,,,,,,,,,,,,,,,,,,,,,,,,,,,,,,,,,,,,,,,,,,,,,
569683,001,2022-11-13_20h36.08.572,Info_measure_main_exp,2022.2.2,Win32,60.53635208,,,,,,,,,,,,,,,,,,masks/mask_003.jpg,,,,,,,,,,,,,,,,,,,,,,,,,,,,,,,,,,,,,,,,,,,0,4,4,2,1,,,,,,,,,,,,,,,,,,,,,,,,,,,,,,,,,,,,,,,,,,,,,,
569683,001,2022-11-13_20h36.08.572,Info_measure_main_exp,2022.2.2,Win32,60.53635208,,,,,,,,,,,,,,,,,,masks/mask_004.jpg,,,,,,,,,,,,,,,,,,,,,,,,,,,,,,,,,,,,,,,,,,,,,,,,0,0,0,3,1,,,,,,,,,,,,,,,,,,,,,,,,,,,,,,,,,,,,,,,,,
569683,001,2022-11-13_20h36.08.572,Info_measure_main_exp,2022.2.2,Win32,60.53635208,,,,,,,,,,,,,,,,,,masks/mask_003.jpg,,,,,,,,,,,,,,,,,,,,,,,,,,,,,,,,,,,,,,,,,,,,,,,,0,1,1,2,1,,,,,,,,,,,,,,,,,,,,,,,,,,,,,,,,,,,,,,,,,
569683,001,2022-11-13_20h36.08.572,Info_measure_main_exp,2022.2.2,Win32,60.53635208,,,,,,,,,,,,,,,,,,masks/mask_001.jpg,,,,,,,,,,,,,,,,,,,,,,,,,,,,,,,,,,,,,,,,,,,,,,,,0,2,2,0,1,,,,,,,,,,,,,,,,,,,,,,,,,,,,,,,,,,,,,,,,,
569683,001,2022-11-13_20h36.08.572,Info_measure_main_exp,2022.2.2,Win32,60.53635208,,,,,,,,,,,,,,,,,,masks/mask_002.jpg,,,,,,,,,,,,,,,,,,,,,,,,,,,,,,,,,,,,,,,,,,,,,,,,0,3,3,1,1,,,,,,,,,,,,,,,,,,,,,,,,,,,,,,,,,,,,,,,,,
569683,001,2022-11-13_20h36.08.572,Info_measure_main_exp,2022.2.2,Win32,60.53635208,,,,,,,,,,,,,,,,,,masks/mask_005.jpg,,,,,,,,,,,,,,,,,,,,,,,,,,,,,,,,,,,,,,,,,,,,,,,,0,4,4,4,1,,,,,,,,,,,,,,,,,,,,,,,,,,,,,,,,,,,,,,,,,
569683,001,2022-11-13_20h36.08.572,Info_measure_main_exp,2022.2.2,Win32,60.53635208,,,,,,,,,,,,,,,,,,,,,,,,,,,,,,0,0.7061,1,,,,,,,,,,,,0,131,5,5,2190,2190,absent_patch/patch0002190.jpg,absent_patch/patch0002190.jpg,,,,,,,,,,,,,,,,,,,,-0.075555556,0.152222222,1,0,0,response7disk,6,-0.005555556,0.011111111,1,0,0,center_square,0,5,5,86,1,,,,,,,,,,,,,,,,,,,,,,,
569683,001,2022-11-13_20h36.08.572,Info_measure_main_exp,2022.2.2,Win32,60.53635208,,,,,,,,,,,,,,,,,,masks/mask_002.jpg,,,,,,,,,,,,,,,,,,,,,,,,,,,,,,,,,,,,,,,,,,,0,0,0,1,1,,,,,,,,,,,,,,,,,,,,,,,,,,,,,,,,,,,,,,,,,,,,,,
569683,001,2022-11-13_20h36.08.572,Info_measure_main_exp,2022.2.2,Win32,60.53635208,,,,,,,,,,,,,,,,,,masks/mask_005.jpg,,,,,,,,,,,,,,,,,,,,,,,,,,,,,,,,,,,,,,,,,,,0,1,1,4,1,,,,,,,,,,,,,,,,,,,,,,,,,,,,,,,,,,,,,,,,,,,,,,
569683,001,2022-11-13_20h36.08.572,Info_measure_main_exp,2022.2.2,Win32,60.53635208,,,,,,,,,,,,,,,,,,masks/mask_003.jpg,,,,,,,,,,,,,,,,,,,,,,,,,,,,,,,,,,,,,,,,,,,0,2,2,2,1,,,,,,,,,,,,,,,,,,,,,,,,,,,,,,,,,,,,,,,,,,,,,,
569683,001,2022-11-13_20h36.08.572,Info_measure_main_exp,2022.2.2,Win32,60.53635208,,,,,,,,,,,,,,,,,,masks/mask_001.jpg,,,,,,,,,,,,,,,,,,,,,,,,,,,,,,,,,,,,,,,,,,,0,3,3,0,1,,,,,,,,,,,,,,,,,,,,,,,,,,,,,,,,,,,,,,,,,,,,,,
569683,001,2022-11-13_20h36.08.572,Info_measure_main_exp,2022.2.2,Win32,60.53635208,,,,,,,,,,,,,,,,,,masks/mask_004.jpg,,,,,,,,,,,,,,,,,,,,,,,,,,,,,,,,,,,,,,,,,,,0,4,4,3,1,,,,,,,,,,,,,,,,,,,,,,,,,,,,,,,,,,,,,,,,,,,,,,
569683,001,2022-11-13_20h36.08.572,Info_measure_main_exp,2022.2.2,Win32,60.53635208,,,,,,,,,,,,,,,,,,masks/mask_002.jpg,,,,,,,,,,,,,,,,,,,,,,,,,,,,,,,,,,,,,,,,,,,,,,,,0,0,0,1,1,,,,,,,,,,,,,,,,,,,,,,,,,,,,,,,,,,,,,,,,,
569683,001,2022-11-13_20h36.08.572,Info_measure_main_exp,2022.2.2,Win32,60.53635208,,,,,,,,,,,,,,,,,,masks/mask_001.jpg,,,,,,,,,,,,,,,,,,,,,,,,,,,,,,,,,,,,,,,,,,,,,,,,0,1,1,0,1,,,,,,,,,,,,,,,,,,,,,,,,,,,,,,,,,,,,,,,,,
569683,001,2022-11-13_20h36.08.572,Info_measure_main_exp,2022.2.2,Win32,60.53635208,,,,,,,,,,,,,,,,,,masks/mask_004.jpg,,,,,,,,,,,,,,,,,,,,,,,,,,,,,,,,,,,,,,,,,,,,,,,,0,2,2,3,1,,,,,,,,,,,,,,,,,,,,,,,,,,,,,,,,,,,,,,,,,
569683,001,2022-11-13_20h36.08.572,Info_measure_main_exp,2022.2.2,Win32,60.53635208,,,,,,,,,,,,,,,,,,masks/mask_005.jpg,,,,,,,,,,,,,,,,,,,,,,,,,,,,,,,,,,,,,,,,,,,,,,,,0,3,3,4,1,,,,,,,,,,,,,,,,,,,,,,,,,,,,,,,,,,,,,,,,,
569683,001,2022-11-13_20h36.08.572,Info_measure_main_exp,2022.2.2,Win32,60.53635208,,,,,,,,,,,,,,,,,,masks/mask_003.jpg,,,,,,,,,,,,,,,,,,,,,,,,,,,,,,,,,,,,,,,,,,,,,,,,0,4,4,2,1,,,,,,,,,,,,,,,,,,,,,,,,,,,,,,,,,,,,,,,,,
569683,001,2022-11-13_20h36.08.572,Info_measure_main_exp,2022.2.2,Win32,60.53635208,,,,,,,,,,,,,,,,,,,,,,,,,,,,,,7,0.8905,1,,,,,,,,,,,,1,131,5,5,2250,1,absent_patch/patch0002250.jpg,present_patch/cong_131_5_a.jpg,,,,,,,,,,,,,,,,,,,,0.082222222,0.166666667,1,0,0,response1disk,7,0.001111111,-0.006666667,1,0,0,center_square,0,6,6,5,1,,,,,,,,,,,,,,,,,,,,,,,
569683,001,2022-11-13_20h36.08.572,Info_measure_main_exp,2022.2.2,Win32,60.53635208,,,,,,,,,,,,,,,,,,masks/mask_001.jpg,,,,,,,,,,,,,,,,,,,,,,,,,,,,,,,,,,,,,,,,,,,0,0,0,0,1,,,,,,,,,,,,,,,,,,,,,,,,,,,,,,,,,,,,,,,,,,,,,,
569683,001,2022-11-13_20h36.08.572,Info_measure_main_exp,2022.2.2,Win32,60.53635208,,,,,,,,,,,,,,,,,,masks/mask_002.jpg,,,,,,,,,,,,,,,,,,,,,,,,,,,,,,,,,,,,,,,,,,,0,1,1,1,1,,,,,,,,,,,,,,,,,,,,,,,,,,,,,,,,,,,,,,,,,,,,,,
569683,001,2022-11-13_20h36.08.572,Info_measure_main_exp,2022.2.2,Win32,60.53635208,,,,,,,,,,,,,,,,,,masks/mask_005.jpg,,,,,,,,,,,,,,,,,,,,,,,,,,,,,,,,,,,,,,,,,,,0,2,2,4,1,,,,,,,,,,,,,,,,,,,,,,,,,,,,,,,,,,,,,,,,,,,,,,
569683,001,2022-11-13_20h36.08.572,Info_measure_main_exp,2022.2.2,Win32,60.53635208,,,,,,,,,,,,,,,,,,masks/mask_003.jpg,,,,,,,,,,,,,,,,,,,,,,,,,,,,,,,,,,,,,,,,,,,0,3,3,2,1,,,,,,,,,,,,,,,,,,,,,,,,,,,,,,,,,,,,,,,,,,,,,,
569683,001,2022-11-13_20h36.08.572,Info_measure_main_exp,2022.2.2,Win32,60.53635208,,,,,,,,,,,,,,,,,,masks/mask_004.jpg,,,,,,,,,,,,,,,,,,,,,,,,,,,,,,,,,,,,,,,,,,,0,4,4,3,1,,,,,,,,,,,,,,,,,,,,,,,,,,,,,,,,,,,,,,,,,,,,,,
569683,001,2022-11-13_20h36.08.572,Info_measure_main_exp,2022.2.2,Win32,60.53635208,,,,,,,,,,,,,,,,,,masks/mask_005.jpg,,,,,,,,,,,,,,,,,,,,,,,,,,,,,,,,,,,,,,,,,,,,,,,,0,0,0,4,1,,,,,,,,,,,,,,,,,,,,,,,,,,,,,,,,,,,,,,,,,
569683,001,2022-11-13_20h36.08.572,Info_measure_main_exp,2022.2.2,Win32,60.53635208,,,,,,,,,,,,,,,,,,masks/mask_002.jpg,,,,,,,,,,,,,,,,,,,,,,,,,,,,,,,,,,,,,,,,,,,,,,,,0,1,1,1,1,,,,,,,,,,,,,,,,,,,,,,,,,,,,,,,,,,,,,,,,,
569683,001,2022-11-13_20h36.08.572,Info_measure_main_exp,2022.2.2,Win32,60.53635208,,,,,,,,,,,,,,,,,,masks/mask_003.jpg,,,,,,,,,,,,,,,,,,,,,,,,,,,,,,,,,,,,,,,,,,,,,,,,0,2,2,2,1,,,,,,,,,,,,,,,,,,,,,,,,,,,,,,,,,,,,,,,,,
569683,001,2022-11-13_20h36.08.572,Info_measure_main_exp,2022.2.2,Win32,60.53635208,,,,,,,,,,,,,,,,,,masks/mask_004.jpg,,,,,,,,,,,,,,,,,,,,,,,,,,,,,,,,,,,,,,,,,,,,,,,,0,3,3,3,1,,,,,,,,,,,,,,,,,,,,,,,,,,,,,,,,,,,,,,,,,
569683,001,2022-11-13_20h36.08.572,Info_measure_main_exp,2022.2.2,Win32,60.53635208,,,,,,,,,,,,,,,,,,masks/mask_001.jpg,,,,,,,,,,,,,,,,,,,,,,,,,,,,,,,,,,,,,,,,,,,,,,,,0,4,4,0,1,,,,,,,,,,,,,,,,,,,,,,,,,,,,,,,,,,,,,,,,,
569683,001,2022-11-13_20h36.08.572,Info_measure_main_exp,2022.2.2,Win32,60.53635208,,,,,,,,,,,,,,,,,,,,,,,,,,,,,,7,0.7166,1,,,,,,,,,,,,0,131,5,5,2274,2214,absent_patch/patch0002274.jpg,absent_patch/patch0002214.jpg,,,,,,,,,,,,,,,,,,,,0.083333333,0.168888889,1,0,0,response1disk,8,-0.004444444,-0.003333333,1,0,0,center_square,0,7,7,11,1,,,,,,,,,,,,,,,,,,,,,,,
569683,001,2022-11-13_20h36.08.572,Info_measure_main_exp,2022.2.2,Win32,60.53635208,,,,,,,,,,,,,,,,,,masks/mask_003.jpg,,,,,,,,,,,,,,,,,,,,,,,,,,,,,,,,,,,,,,,,,,,0,0,0,2,1,,,,,,,,,,,,,,,,,,,,,,,,,,,,,,,,,,,,,,,,,,,,,,
569683,001,2022-11-13_20h36.08.572,Info_measure_main_exp,2022.2.2,Win32,60.53635208,,,,,,,,,,,,,,,,,,masks/mask_004.jpg,,,,,,,,,,,,,,,,,,,,,,,,,,,,,,,,,,,,,,,,,,,0,1,1,3,1,,,,,,,,,,,,,,,,,,,,,,,,,,,,,,,,,,,,,,,,,,,,,,
569683,001,2022-11-13_20h36.08.572,Info_measure_main_exp,2022.2.2,Win32,60.53635208,,,,,,,,,,,,,,,,,,masks/mask_005.jpg,,,,,,,,,,,,,,,,,,,,,,,,,,,,,,,,,,,,,,,,,,,0,2,2,4,1,,,,,,,,,,,,,,,,,,,,,,,,,,,,,,,,,,,,,,,,,,,,,,
569683,001,2022-11-13_20h36.08.572,Info_measure_main_exp,2022.2.2,Win32,60.53635208,,,,,,,,,,,,,,,,,,masks/mask_002.jpg,,,,,,,,,,,,,,,,,,,,,,,,,,,,,,,,,,,,,,,,,,,0,3,3,1,1,,,,,,,,,,,,,,,,,,,,,,,,,,,,,,,,,,,,,,,,,,,,,,
569683,001,2022-11-13_20h36.08.572,Info_measure_main_exp,2022.2.2,Win32,60.53635208,,,,,,,,,,,,,,,,,,masks/mask_001.jpg,,,,,,,,,,,,,,,,,,,,,,,,,,,,,,,,,,,,,,,,,,,0,4,4,0,1,,,,,,,,,,,,,,,,,,,,,,,,,,,,,,,,,,,,,,,,,,,,,,
569683,001,2022-11-13_20h36.08.572,Info_measure_main_exp,2022.2.2,Win32,60.53635208,,,,,,,,,,,,,,,,,,masks/mask_005.jpg,,,,,,,,,,,,,,,,,,,,,,,,,,,,,,,,,,,,,,,,,,,,,,,,0,0,0,4,1,,,,,,,,,,,,,,,,,,,,,,,,,,,,,,,,,,,,,,,,,
569683,001,2022-11-13_20h36.08.572,Info_measure_main_exp,2022.2.2,Win32,60.53635208,,,,,,,,,,,,,,,,,,masks/mask_003.jpg,,,,,,,,,,,,,,,,,,,,,,,,,,,,,,,,,,,,,,,,,,,,,,,,0,1,1,2,1,,,,,,,,,,,,,,,,,,,,,,,,,,,,,,,,,,,,,,,,,
569683,001,2022-11-13_20h36.08.572,Info_measure_main_exp,2022.2.2,Win32,60.53635208,,,,,,,,,,,,,,,,,,masks/mask_001.jpg,,,,,,,,,,,,,,,,,,,,,,,,,,,,,,,,,,,,,,,,,,,,,,,,0,2,2,0,1,,,,,,,,,,,,,,,,,,,,,,,,,,,,,,,,,,,,,,,,,
569683,001,2022-11-13_20h36.08.572,Info_measure_main_exp,2022.2.2,Win32,60.53635208,,,,,,,,,,,,,,,,,,masks/mask_004.jpg,,,,,,,,,,,,,,,,,,,,,,,,,,,,,,,,,,,,,,,,,,,,,,,,0,3,3,3,1,,,,,,,,,,,,,,,,,,,,,,,,,,,,,,,,,,,,,,,,,
569683,001,2022-11-13_20h36.08.572,Info_measure_main_exp,2022.2.2,Win32,60.53635208,,,,,,,,,,,,,,,,,,masks/mask_002.jpg,,,,,,,,,,,,,,,,,,,,,,,,,,,,,,,,,,,,,,,,,,,,,,,,0,4,4,1,1,,,,,,,,,,,,,,,,,,,,,,,,,,,,,,,,,,,,,,,,,
569683,001,2022-11-13_20h36.08.572,Info_measure_main_exp,2022.2.2,Win32,60.53635208,,,,,,,,,,,,,,,,,,,,,,,,,,,,,,7,0.9892,1,,,,,,,,,,,,0,131,5,5,2298,1986,absent_patch/patch0002298.jpg,absent_patch/patch0001986.jpg,,,,,,,,,,,,,,,,,,,,0.085555556,0.125555556,1,0,0,response1disk,9,0.001111111,0.007777778,1,0,0,center_square,0,8,8,32,1,,,,,,,,,,,,,,,,,,,,,,,
569683,001,2022-11-13_20h36.08.572,Info_measure_main_exp,2022.2.2,Win32,60.53635208,,,,,,,,,,,,,,,,,,masks/mask_004.jpg,,,,,,,,,,,,,,,,,,,,,,,,,,,,,,,,,,,,,,,,,,,0,0,0,3,1,,,,,,,,,,,,,,,,,,,,,,,,,,,,,,,,,,,,,,,,,,,,,,
569683,001,2022-11-13_20h36.08.572,Info_measure_main_exp,2022.2.2,Win32,60.53635208,,,,,,,,,,,,,,,,,,masks/mask_002.jpg,,,,,,,,,,,,,,,,,,,,,,,,,,,,,,,,,,,,,,,,,,,0,1,1,1,1,,,,,,,,,,,,,,,,,,,,,,,,,,,,,,,,,,,,,,,,,,,,,,
569683,001,2022-11-13_20h36.08.572,Info_measure_main_exp,2022.2.2,Win32,60.53635208,,,,,,,,,,,,,,,,,,masks/mask_005.jpg,,,,,,,,,,,,,,,,,,,,,,,,,,,,,,,,,,,,,,,,,,,0,2,2,4,1,,,,,,,,,,,,,,,,,,,,,,,,,,,,,,,,,,,,,,,,,,,,,,
569683,001,2022-11-13_20h36.08.572,Info_measure_main_exp,2022.2.2,Win32,60.53635208,,,,,,,,,,,,,,,,,,masks/mask_003.jpg,,,,,,,,,,,,,,,,,,,,,,,,,,,,,,,,,,,,,,,,,,,0,3,3,2,1,,,,,,,,,,,,,,,,,,,,,,,,,,,,,,,,,,,,,,,,,,,,,,
569683,001,2022-11-13_20h36.08.572,Info_measure_main_exp,2022.2.2,Win32,60.53635208,,,,,,,,,,,,,,,,,,masks/mask_001.jpg,,,,,,,,,,,,,,,,,,,,,,,,,,,,,,,,,,,,,,,,,,,0,4,4,0,1,,,,,,,,,,,,,,,,,,,,,,,,,,,,,,,,,,,,,,,,,,,,,,
569683,001,2022-11-13_20h36.08.572,Info_measure_main_exp,2022.2.2,Win32,60.53635208,,,,,,,,,,,,,,,,,,masks/mask_001.jpg,,,,,,,,,,,,,,,,,,,,,,,,,,,,,,,,,,,,,,,,,,,,,,,,0,0,0,0,1,,,,,,,,,,,,,,,,,,,,,,,,,,,,,,,,,,,,,,,,,
569683,001,2022-11-13_20h36.08.572,Info_measure_main_exp,2022.2.2,Win32,60.53635208,,,,,,,,,,,,,,,,,,masks/mask_002.jpg,,,,,,,,,,,,,,,,,,,,,,,,,,,,,,,,,,,,,,,,,,,,,,,,0,1,1,1,1,,,,,,,,,,,,,,,,,,,,,,,,,,,,,,,,,,,,,,,,,
569683,001,2022-11-13_20h36.08.572,Info_measure_main_exp,2022.2.2,Win32,60.53635208,,,,,,,,,,,,,,,,,,masks/mask_004.jpg,,,,,,,,,,,,,,,,,,,,,,,,,,,,,,,,,,,,,,,,,,,,,,,,0,2,2,3,1,,,,,,,,,,,,,,,,,,,,,,,,,,,,,,,,,,,,,,,,,
569683,001,2022-11-13_20h36.08.572,Info_measure_main_exp,2022.2.2,Win32,60.53635208,,,,,,,,,,,,,,,,,,masks/mask_003.jpg,,,,,,,,,,,,,,,,,,,,,,,,,,,,,,,,,,,,,,,,,,,,,,,,0,3,3,2,1,,,,,,,,,,,,,,,,,,,,,,,,,,,,,,,,,,,,,,,,,
569683,001,2022-11-13_20h36.08.572,Info_measure_main_exp,2022.2.2,Win32,60.53635208,,,,,,,,,,,,,,,,,,masks/mask_005.jpg,,,,,,,,,,,,,,,,,,,,,,,,,,,,,,,,,,,,,,,,,,,,,,,,0,4,4,4,1,,,,,,,,,,,,,,,,,,,,,,,,,,,,,,,,,,,,,,,,,
569683,001,2022-11-13_20h36.08.572,Info_measure_main_exp,2022.2.2,Win32,60.53635208,,,,,,,,,,,,,,,,,,,,,,,,,,,,,,7,0.8819,1,,,,,,,,,,,,0,131,5,5,2082,2166,absent_patch/patch0002082.jpg,absent_patch/patch0002166.jpg,,,,,,,,,,,,,,,,,,,,0.063333333,0.166666667,1,0,0,response1disk,10,0,-0.003333333,1,0,0,center_square,0,9,9,43,1,,,,,,,,,,,,,,,,,,,,,,,
569683,001,2022-11-13_20h36.08.572,Info_measure_main_exp,2022.2.2,Win32,60.53635208,,,,,,,,,,,,,,,,,,masks/mask_005.jpg,,,,,,,,,,,,,,,,,,,,,,,,,,,,,,,,,,,,,,,,,,,0,0,0,4,1,,,,,,,,,,,,,,,,,,,,,,,,,,,,,,,,,,,,,,,,,,,,,,
569683,001,2022-11-13_20h36.08.572,Info_measure_main_exp,2022.2.2,Win32,60.53635208,,,,,,,,,,,,,,,,,,masks/mask_001.jpg,,,,,,,,,,,,,,,,,,,,,,,,,,,,,,,,,,,,,,,,,,,0,1,1,0,1,,,,,,,,,,,,,,,,,,,,,,,,,,,,,,,,,,,,,,,,,,,,,,
569683,001,2022-11-13_20h36.08.572,Info_measure_main_exp,2022.2.2,Win32,60.53635208,,,,,,,,,,,,,,,,,,masks/mask_002.jpg,,,,,,,,,,,,,,,,,,,,,,,,,,,,,,,,,,,,,,,,,,,0,2,2,1,1,,,,,,,,,,,,,,,,,,,,,,,,,,,,,,,,,,,,,,,,,,,,,,
569683,001,2022-11-13_20h36.08.572,Info_measure_main_exp,2022.2.2,Win32,60.53635208,,,,,,,,,,,,,,,,,,masks/mask_003.jpg,,,,,,,,,,,,,,,,,,,,,,,,,,,,,,,,,,,,,,,,,,,0,3,3,2,1,,,,,,,,,,,,,,,,,,,,,,,,,,,,,,,,,,,,,,,,,,,,,,
569683,001,2022-11-13_20h36.08.572,Info_measure_main_exp,2022.2.2,Win32,60.53635208,,,,,,,,,,,,,,,,,,masks/mask_004.jpg,,,,,,,,,,,,,,,,,,,,,,,,,,,,,,,,,,,,,,,,,,,0,4,4,3,1,,,,,,,,,,,,,,,,,,,,,,,,,,,,,,,,,,,,,,,,,,,,,,
569683,001,2022-11-13_20h36.08.572,Info_measure_main_exp,2022.2.2,Win32,60.53635208,,,,,,,,,,,,,,,,,,masks/mask_001.jpg,,,,,,,,,,,,,,,,,,,,,,,,,,,,,,,,,,,,,,,,,,,,,,,,0,0,0,0,1,,,,,,,,,,,,,,,,,,,,,,,,,,,,,,,,,,,,,,,,,
569683,001,2022-11-13_20h36.08.572,Info_measure_main_exp,2022.2.2,Win32,60.53635208,,,,,,,,,,,,,,,,,,masks/mask_003.jpg,,,,,,,,,,,,,,,,,,,,,,,,,,,,,,,,,,,,,,,,,,,,,,,,0,1,1,2,1,,,,,,,,,,,,,,,,,,,,,,,,,,,,,,,,,,,,,,,,,
569683,001,2022-11-13_20h36.08.572,Info_measure_main_exp,2022.2.2,Win32,60.53635208,,,,,,,,,,,,,,,,,,masks/mask_002.jpg,,,,,,,,,,,,,,,,,,,,,,,,,,,,,,,,,,,,,,,,,,,,,,,,0,2,2,1,1,,,,,,,,,,,,,,,,,,,,,,,,,,,,,,,,,,,,,,,,,
569683,001,2022-11-13_20h36.08.572,Info_measure_main_exp,2022.2.2,Win32,60.53635208,,,,,,,,,,,,,,,,,,masks/mask_005.jpg,,,,,,,,,,,,,,,,,,,,,,,,,,,,,,,,,,,,,,,,,,,,,,,,0,3,3,4,1,,,,,,,,,,,,,,,,,,,,,,,,,,,,,,,,,,,,,,,,,
569683,001,2022-11-13_20h36.08.572,Info_measure_main_exp,2022.2.2,Win32,60.53635208,,,,,,,,,,,,,,,,,,masks/mask_004.jpg,,,,,,,,,,,,,,,,,,,,,,,,,,,,,,,,,,,,,,,,,,,,,,,,0,4,4,3,1,,,,,,,,,,,,,,,,,,,,,,,,,,,,,,,,,,,,,,,,,
569683,001,2022-11-13_20h36.08.572,Info_measure_main_exp,2022.2.2,Win32,60.53635208,,,,,,,,,,,,,,,,,,,,,,,,,,,,,,7,0.5668,1,,,,,,,,,,,,0,131,5,5,2154,1974,absent_patch/patch0002154.jpg,absent_patch/patch0001974.jpg,,,,,,,,,,,,,,,,,,,,0.042222222,0.138888889,1,0,0,response1disk,11,0,0.01,1,0,0,center_square,0,10,10,82,1,,,,,,,,,,,,,,,,,,,,,,,
569683,001,2022-11-13_20h36.08.572,Info_measure_main_exp,2022.2.2,Win32,60.53635208,,,,,,,,,,,,,,,,,,masks/mask_002.jpg,,,,,,,,,,,,,,,,,,,,,,,,,,,,,,,,,,,,,,,,,,,0,0,0,1,1,,,,,,,,,,,,,,,,,,,,,,,,,,,,,,,,,,,,,,,,,,,,,,
569683,001,2022-11-13_20h36.08.572,Info_measure_main_exp,2022.2.2,Win32,60.53635208,,,,,,,,,,,,,,,,,,masks/mask_004.jpg,,,,,,,,,,,,,,,,,,,,,,,,,,,,,,,,,,,,,,,,,,,0,1,1,3,1,,,,,,,,,,,,,,,,,,,,,,,,,,,,,,,,,,,,,,,,,,,,,,
569683,001,2022-11-13_20h36.08.572,Info_measure_main_exp,2022.2.2,Win32,60.53635208,,,,,,,,,,,,,,,,,,masks/mask_005.jpg,,,,,,,,,,,,,,,,,,,,,,,,,,,,,,,,,,,,,,,,,,,0,2,2,4,1,,,,,,,,,,,,,,,,,,,,,,,,,,,,,,,,,,,,,,,,,,,,,,
569683,001,2022-11-13_20h36.08.572,Info_measure_main_exp,2022.2.2,Win32,60.53635208,,,,,,,,,,,,,,,,,,masks/mask_001.jpg,,,,,,,,,,,,,,,,,,,,,,,,,,,,,,,,,,,,,,,,,,,0,3,3,0,1,,,,,,,,,,,,,,,,,,,,,,,,,,,,,,,,,,,,,,,,,,,,,,
569683,001,2022-11-13_20h36.08.572,Info_measure_main_exp,2022.2.2,Win32,60.53635208,,,,,,,,,,,,,,,,,,masks/mask_003.jpg,,,,,,,,,,,,,,,,,,,,,,,,,,,,,,,,,,,,,,,,,,,0,4,4,2,1,,,,,,,,,,,,,,,,,,,,,,,,,,,,,,,,,,,,,,,,,,,,,,
569683,001,2022-11-13_20h36.08.572,Info_measure_main_exp,2022.2.2,Win32,60.53635208,,,,,,,,,,,,,,,,,,masks/mask_005.jpg,,,,,,,,,,,,,,,,,,,,,,,,,,,,,,,,,,,,,,,,,,,,,,,,0,0,0,4,1,,,,,,,,,,,,,,,,,,,,,,,,,,,,,,,,,,,,,,,,,
569683,001,2022-11-13_20h36.08.572,Info_measure_main_exp,2022.2.2,Win32,60.53635208,,,,,,,,,,,,,,,,,,masks/mask_003.jpg,,,,,,,,,,,,,,,,,,,,,,,,,,,,,,,,,,,,,,,,,,,,,,,,0,1,1,2,1,,,,,,,,,,,,,,,,,,,,,,,,,,,,,,,,,,,,,,,,,
569683,001,2022-11-13_20h36.08.572,Info_measure_main_exp,2022.2.2,Win32,60.53635208,,,,,,,,,,,,,,,,,,masks/mask_004.jpg,,,,,,,,,,,,,,,,,,,,,,,,,,,,,,,,,,,,,,,,,,,,,,,,0,2,2,3,1,,,,,,,,,,,,,,,,,,,,,,,,,,,,,,,,,,,,,,,,,
569683,001,2022-11-13_20h36.08.572,Info_measure_main_exp,2022.2.2,Win32,60.53635208,,,,,,,,,,,,,,,,,,masks/mask_001.jpg,,,,,,,,,,,,,,,,,,,,,,,,,,,,,,,,,,,,,,,,,,,,,,,,0,3,3,0,1,,,,,,,,,,,,,,,,,,,,,,,,,,,,,,,,,,,,,,,,,
569683,001,2022-11-13_20h36.08.572,Info_measure_main_exp,2022.2.2,Win32,60.53635208,,,,,,,,,,,,,,,,,,masks/mask_002.jpg,,,,,,,,,,,,,,,,,,,,,,,,,,,,,,,,,,,,,,,,,,,,,,,,0,4,4,1,1,,,,,,,,,,,,,,,,,,,,,,,,,,,,,,,,,,,,,,,,,
569683,001,2022-11-13_20h36.08.572,Info_measure_main_exp,2022.2.2,Win32,60.53635208,,,,,,,,,,,,,,,,,,,,,,,,,,,,,,7,0.4728,1,,,,,,,,,,,,0,131,5,5,2154,1950,absent_patch/patch0002154.jpg,absent_patch/patch0001950.jpg,,,,,,,,,,,,,,,,,,,,0.071111111,0.133333333,1,0,0,response1disk,12,0.008888889,0.012222222,1,0,0,center_square,0,11,11,96,1,,,,,,,,,,,,,,,,,,,,,,,
569683,001,2022-11-13_20h36.08.572,Info_measure_main_exp,2022.2.2,Win32,60.53635208,,,,,,,,,,,,,,,,,,masks/mask_003.jpg,,,,,,,,,,,,,,,,,,,,,,,,,,,,,,,,,,,,,,,,,,,0,0,0,2,1,,,,,,,,,,,,,,,,,,,,,,,,,,,,,,,,,,,,,,,,,,,,,,
569683,001,2022-11-13_20h36.08.572,Info_measure_main_exp,2022.2.2,Win32,60.53635208,,,,,,,,,,,,,,,,,,masks/mask_002.jpg,,,,,,,,,,,,,,,,,,,,,,,,,,,,,,,,,,,,,,,,,,,0,1,1,1,1,,,,,,,,,,,,,,,,,,,,,,,,,,,,,,,,,,,,,,,,,,,,,,
569683,001,2022-11-13_20h36.08.572,Info_measure_main_exp,2022.2.2,Win32,60.53635208,,,,,,,,,,,,,,,,,,masks/mask_004.jpg,,,,,,,,,,,,,,,,,,,,,,,,,,,,,,,,,,,,,,,,,,,0,2,2,3,1,,,,,,,,,,,,,,,,,,,,,,,,,,,,,,,,,,,,,,,,,,,,,,
569683,001,2022-11-13_20h36.08.572,Info_measure_main_exp,2022.2.2,Win32,60.53635208,,,,,,,,,,,,,,,,,,masks/mask_001.jpg,,,,,,,,,,,,,,,,,,,,,,,,,,,,,,,,,,,,,,,,,,,0,3,3,0,1,,,,,,,,,,,,,,,,,,,,,,,,,,,,,,,,,,,,,,,,,,,,,,
569683,001,2022-11-13_20h36.08.572,Info_measure_main_exp,2022.2.2,Win32,60.53635208,,,,,,,,,,,,,,,,,,masks/mask_005.jpg,,,,,,,,,,,,,,,,,,,,,,,,,,,,,,,,,,,,,,,,,,,0,4,4,4,1,,,,,,,,,,,,,,,,,,,,,,,,,,,,,,,,,,,,,,,,,,,,,,
569683,001,2022-11-13_20h36.08.572,Info_measure_main_exp,2022.2.2,Win32,60.53635208,,,,,,,,,,,,,,,,,,masks/mask_004.jpg,,,,,,,,,,,,,,,,,,,,,,,,,,,,,,,,,,,,,,,,,,,,,,,,0,0,0,3,1,,,,,,,,,,,,,,,,,,,,,,,,,,,,,,,,,,,,,,,,,
569683,001,2022-11-13_20h36.08.572,Info_measure_main_exp,2022.2.2,Win32,60.53635208,,,,,,,,,,,,,,,,,,masks/mask_001.jpg,,,,,,,,,,,,,,,,,,,,,,,,,,,,,,,,,,,,,,,,,,,,,,,,0,1,1,0,1,,,,,,,,,,,,,,,,,,,,,,,,,,,,,,,,,,,,,,,,,
569683,001,2022-11-13_20h36.08.572,Info_measure_main_exp,2022.2.2,Win32,60.53635208,,,,,,,,,,,,,,,,,,masks/mask_005.jpg,,,,,,,,,,,,,,,,,,,,,,,,,,,,,,,,,,,,,,,,,,,,,,,,0,2,2,4,1,,,,,,,,,,,,,,,,,,,,,,,,,,,,,,,,,,,,,,,,,
569683,001,2022-11-13_20h36.08.572,Info_measure_main_exp,2022.2.2,Win32,60.53635208,,,,,,,,,,,,,,,,,,masks/mask_002.jpg,,,,,,,,,,,,,,,,,,,,,,,,,,,,,,,,,,,,,,,,,,,,,,,,0,3,3,1,1,,,,,,,,,,,,,,,,,,,,,,,,,,,,,,,,,,,,,,,,,
569683,001,2022-11-13_20h36.08.572,Info_measure_main_exp,2022.2.2,Win32,60.53635208,,,,,,,,,,,,,,,,,,masks/mask_003.jpg,,,,,,,,,,,,,,,,,,,,,,,,,,,,,,,,,,,,,,,,,,,,,,,,0,4,4,2,1,,,,,,,,,,,,,,,,,,,,,,,,,,,,,,,,,,,,,,,,,
569683,001,2022-11-13_20h36.08.572,Info_measure_main_exp,2022.2.2,Win32,60.53635208,,,,,,,,,,,,,,,,,,,,,,,,,,,,,,7,0.7402,1,,,,,,,,,,,,0,131,5,5,2178,2142,absent_patch/patch0002178.jpg,absent_patch/patch0002142.jpg,,,,,,,,,,,,,,,,,,,,0.067777778,0.136666667,1,0,0,response1disk,13,0.006666667,0.011111111,1,0,0,center_square,0,12,12,41,1,,,,,,,,,,,,,,,,,,,,,,,
569683,001,2022-11-13_20h36.08.572,Info_measure_main_exp,2022.2.2,Win32,60.53635208,,,,,,,,,,,,,,,,,,masks/mask_003.jpg,,,,,,,,,,,,,,,,,,,,,,,,,,,,,,,,,,,,,,,,,,,0,0,0,2,1,,,,,,,,,,,,,,,,,,,,,,,,,,,,,,,,,,,,,,,,,,,,,,
569683,001,2022-11-13_20h36.08.572,Info_measure_main_exp,2022.2.2,Win32,60.53635208,,,,,,,,,,,,,,,,,,masks/mask_001.jpg,,,,,,,,,,,,,,,,,,,,,,,,,,,,,,,,,,,,,,,,,,,0,1,1,0,1,,,,,,,,,,,,,,,,,,,,,,,,,,,,,,,,,,,,,,,,,,,,,,
569683,001,2022-11-13_20h36.08.572,Info_measure_main_exp,2022.2.2,Win32,60.53635208,,,,,,,,,,,,,,,,,,masks/mask_002.jpg,,,,,,,,,,,,,,,,,,,,,,,,,,,,,,,,,,,,,,,,,,,0,2,2,1,1,,,,,,,,,,,,,,,,,,,,,,,,,,,,,,,,,,,,,,,,,,,,,,
569683,001,2022-11-13_20h36.08.572,Info_measure_main_exp,2022.2.2,Win32,60.53635208,,,,,,,,,,,,,,,,,,masks/mask_004.jpg,,,,,,,,,,,,,,,,,,,,,,,,,,,,,,,,,,,,,,,,,,,0,3,3,3,1,,,,,,,,,,,,,,,,,,,,,,,,,,,,,,,,,,,,,,,,,,,,,,
569683,001,2022-11-13_20h36.08.572,Info_measure_main_exp,2022.2.2,Win32,60.53635208,,,,,,,,,,,,,,,,,,masks/mask_005.jpg,,,,,,,,,,,,,,,,,,,,,,,,,,,,,,,,,,,,,,,,,,,0,4,4,4,1,,,,,,,,,,,,,,,,,,,,,,,,,,,,,,,,,,,,,,,,,,,,,,
569683,001,2022-11-13_20h36.08.572,Info_measure_main_exp,2022.2.2,Win32,60.53635208,,,,,,,,,,,,,,,,,,masks/mask_005.jpg,,,,,,,,,,,,,,,,,,,,,,,,,,,,,,,,,,,,,,,,,,,,,,,,0,0,0,4,1,,,,,,,,,,,,,,,,,,,,,,,,,,,,,,,,,,,,,,,,,
569683,001,2022-11-13_20h36.08.572,Info_measure_main_exp,2022.2.2,Win32,60.53635208,,,,,,,,,,,,,,,,,,masks/mask_003.jpg,,,,,,,,,,,,,,,,,,,,,,,,,,,,,,,,,,,,,,,,,,,,,,,,0,1,1,2,1,,,,,,,,,,,,,,,,,,,,,,,,,,,,,,,,,,,,,,,,,
569683,001,2022-11-13_20h36.08.572,Info_measure_main_exp,2022.2.2,Win32,60.53635208,,,,,,,,,,,,,,,,,,masks/mask_002.jpg,,,,,,,,,,,,,,,,,,,,,,,,,,,,,,,,,,,,,,,,,,,,,,,,0,2,2,1,1,,,,,,,,,,,,,,,,,,,,,,,,,,,,,,,,,,,,,,,,,
569683,001,2022-11-13_20h36.08.572,Info_measure_main_exp,2022.2.2,Win32,60.53635208,,,,,,,,,,,,,,,,,,masks/mask_001.jpg,,,,,,,,,,,,,,,,,,,,,,,,,,,,,,,,,,,,,,,,,,,,,,,,0,3,3,0,1,,,,,,,,,,,,,,,,,,,,,,,,,,,,,,,,,,,,,,,,,
569683,001,2022-11-13_20h36.08.572,Info_measure_main_exp,2022.2.2,Win32,60.53635208,,,,,,,,,,,,,,,,,,masks/mask_004.jpg,,,,,,,,,,,,,,,,,,,,,,,,,,,,,,,,,,,,,,,,,,,,,,,,0,4,4,3,1,,,,,,,,,,,,,,,,,,,,,,,,,,,,,,,,,,,,,,,,,
569683,001,2022-11-13_20h36.08.572,Info_measure_main_exp,2022.2.2,Win32,60.53635208,,,,,,,,,,,,,,,,,,,,,,,,,,,,,,0,0.7323,1,,,,,,,,,,,,0,131,5,5,1986,1986,absent_patch/patch0001986.jpg,absent_patch/patch0001986.jpg,,,,,,,,,,,,,,,,,,,,-0.044444444,0.114444444,1,0,0,response7disk,14,-0.014444444,-0.004444444,1,0,0,center_square,0,13,13,19,1,,,,,,,,,,,,,,,,,,,,,,,
569683,001,2022-11-13_20h36.08.572,Info_measure_main_exp,2022.2.2,Win32,60.53635208,,,,,,,,,,,,,,,,,,masks/mask_004.jpg,,,,,,,,,,,,,,,,,,,,,,,,,,,,,,,,,,,,,,,,,,,0,0,0,3,1,,,,,,,,,,,,,,,,,,,,,,,,,,,,,,,,,,,,,,,,,,,,,,
569683,001,2022-11-13_20h36.08.572,Info_measure_main_exp,2022.2.2,Win32,60.53635208,,,,,,,,,,,,,,,,,,masks/mask_003.jpg,,,,,,,,,,,,,,,,,,,,,,,,,,,,,,,,,,,,,,,,,,,0,1,1,2,1,,,,,,,,,,,,,,,,,,,,,,,,,,,,,,,,,,,,,,,,,,,,,,
569683,001,2022-11-13_20h36.08.572,Info_measure_main_exp,2022.2.2,Win32,60.53635208,,,,,,,,,,,,,,,,,,masks/mask_002.jpg,,,,,,,,,,,,,,,,,,,,,,,,,,,,,,,,,,,,,,,,,,,0,2,2,1,1,,,,,,,,,,,,,,,,,,,,,,,,,,,,,,,,,,,,,,,,,,,,,,
569683,001,2022-11-13_20h36.08.572,Info_measure_main_exp,2022.2.2,Win32,60.53635208,,,,,,,,,,,,,,,,,,masks/mask_005.jpg,,,,,,,,,,,,,,,,,,,,,,,,,,,,,,,,,,,,,,,,,,,0,3,3,4,1,,,,,,,,,,,,,,,,,,,,,,,,,,,,,,,,,,,,,,,,,,,,,,
569683,001,2022-11-13_20h36.08.572,Info_measure_main_exp,2022.2.2,Win32,60.53635208,,,,,,,,,,,,,,,,,,masks/mask_001.jpg,,,,,,,,,,,,,,,,,,,,,,,,,,,,,,,,,,,,,,,,,,,0,4,4,0,1,,,,,,,,,,,,,,,,,,,,,,,,,,,,,,,,,,,,,,,,,,,,,,
569683,001,2022-11-13_20h36.08.572,Info_measure_main_exp,2022.2.2,Win32,60.53635208,,,,,,,,,,,,,,,,,,masks/mask_002.jpg,,,,,,,,,,,,,,,,,,,,,,,,,,,,,,,,,,,,,,,,,,,,,,,,0,0,0,1,1,,,,,,,,,,,,,,,,,,,,,,,,,,,,,,,,,,,,,,,,,
569683,001,2022-11-13_20h36.08.572,Info_measure_main_exp,2022.2.2,Win32,60.53635208,,,,,,,,,,,,,,,,,,masks/mask_005.jpg,,,,,,,,,,,,,,,,,,,,,,,,,,,,,,,,,,,,,,,,,,,,,,,,0,1,1,4,1,,,,,,,,,,,,,,,,,,,,,,,,,,,,,,,,,,,,,,,,,
569683,001,2022-11-13_20h36.08.572,Info_measure_main_exp,2022.2.2,Win32,60.53635208,,,,,,,,,,,,,,,,,,masks/mask_004.jpg,,,,,,,,,,,,,,,,,,,,,,,,,,,,,,,,,,,,,,,,,,,,,,,,0,2,2,3,1,,,,,,,,,,,,,,,,,,,,,,,,,,,,,,,,,,,,,,,,,
569683,001,2022-11-13_20h36.08.572,Info_measure_main_exp,2022.2.2,Win32,60.53635208,,,,,,,,,,,,,,,,,,masks/mask_001.jpg,,,,,,,,,,,,,,,,,,,,,,,,,,,,,,,,,,,,,,,,,,,,,,,,0,3,3,0,1,,,,,,,,,,,,,,,,,,,,,,,,,,,,,,,,,,,,,,,,,
569683,001,2022-11-13_20h36.08.572,Info_measure_main_exp,2022.2.2,Win32,60.53635208,,,,,,,,,,,,,,,,,,masks/mask_003.jpg,,,,,,,,,,,,,,,,,,,,,,,,,,,,,,,,,,,,,,,,,,,,,,,,0,4,4,2,1,,,,,,,,,,,,,,,,,,,,,,,,,,,,,,,,,,,,,,,,,
569683,001,2022-11-13_20h36.08.572,Info_measure_main_exp,2022.2.2,Win32,60.53635208,,,,,,,,,,,,,,,,,,,,,,,,,,,,,,0,0.9488,1,,,,,,,,,,,,0,131,5,5,1974,1974,absent_patch/patch0001974.jpg,absent_patch/patch0001974.jpg,,,,,,,,,,,,,,,,,,,,-0.048888889,0.146666667,1,0,0,response7disk,15,-0.001111111,0.001111111,1,0,0,center_square,0,14,14,113,1,,,,,,,,,,,,,,,,,,,,,,,
569683,001,2022-11-13_20h36.08.572,Info_measure_main_exp,2022.2.2,Win32,60.53635208,,,,,,,,,,,,,,,,,,masks/mask_001.jpg,,,,,,,,,,,,,,,,,,,,,,,,,,,,,,,,,,,,,,,,,,,0,0,0,0,1,,,,,,,,,,,,,,,,,,,,,,,,,,,,,,,,,,,,,,,,,,,,,,
569683,001,2022-11-13_20h36.08.572,Info_measure_main_exp,2022.2.2,Win32,60.53635208,,,,,,,,,,,,,,,,,,masks/mask_005.jpg,,,,,,,,,,,,,,,,,,,,,,,,,,,,,,,,,,,,,,,,,,,0,1,1,4,1,,,,,,,,,,,,,,,,,,,,,,,,,,,,,,,,,,,,,,,,,,,,,,
569683,001,2022-11-13_20h36.08.572,Info_measure_main_exp,2022.2.2,Win32,60.53635208,,,,,,,,,,,,,,,,,,masks/mask_004.jpg,,,,,,,,,,,,,,,,,,,,,,,,,,,,,,,,,,,,,,,,,,,0,2,2,3,1,,,,,,,,,,,,,,,,,,,,,,,,,,,,,,,,,,,,,,,,,,,,,,
569683,001,2022-11-13_20h36.08.572,Info_measure_main_exp,2022.2.2,Win32,60.53635208,,,,,,,,,,,,,,,,,,masks/mask_003.jpg,,,,,,,,,,,,,,,,,,,,,,,,,,,,,,,,,,,,,,,,,,,0,3,3,2,1,,,,,,,,,,,,,,,,,,,,,,,,,,,,,,,,,,,,,,,,,,,,,,
569683,001,2022-11-13_20h36.08.572,Info_measure_main_exp,2022.2.2,Win32,60.53635208,,,,,,,,,,,,,,,,,,masks/mask_002.jpg,,,,,,,,,,,,,,,,,,,,,,,,,,,,,,,,,,,,,,,,,,,0,4,4,1,1,,,,,,,,,,,,,,,,,,,,,,,,,,,,,,,,,,,,,,,,,,,,,,
569683,001,2022-11-13_20h36.08.572,Info_measure_main_exp,2022.2.2,Win32,60.53635208,,,,,,,,,,,,,,,,,,masks/mask_003.jpg,,,,,,,,,,,,,,,,,,,,,,,,,,,,,,,,,,,,,,,,,,,,,,,,0,0,0,2,1,,,,,,,,,,,,,,,,,,,,,,,,,,,,,,,,,,,,,,,,,
569683,001,2022-11-13_20h36.08.572,Info_measure_main_exp,2022.2.2,Win32,60.53635208,,,,,,,,,,,,,,,,,,masks/mask_001.jpg,,,,,,,,,,,,,,,,,,,,,,,,,,,,,,,,,,,,,,,,,,,,,,,,0,1,1,0,1,,,,,,,,,,,,,,,,,,,,,,,,,,,,,,,,,,,,,,,,,
569683,001,2022-11-13_20h36.08.572,Info_measure_main_exp,2022.2.2,Win32,60.53635208,,,,,,,,,,,,,,,,,,masks/mask_004.jpg,,,,,,,,,,,,,,,,,,,,,,,,,,,,,,,,,,,,,,,,,,,,,,,,0,2,2,3,1,,,,,,,,,,,,,,,,,,,,,,,,,,,,,,,,,,,,,,,,,
569683,001,2022-11-13_20h36.08.572,Info_measure_main_exp,2022.2.2,Win32,60.53635208,,,,,,,,,,,,,,,,,,masks/mask_005.jpg,,,,,,,,,,,,,,,,,,,,,,,,,,,,,,,,,,,,,,,,,,,,,,,,0,3,3,4,1,,,,,,,,,,,,,,,,,,,,,,,,,,,,,,,,,,,,,,,,,
569683,001,2022-11-13_20h36.08.572,Info_measure_main_exp,2022.2.2,Win32,60.53635208,,,,,,,,,,,,,,,,,,masks/mask_002.jpg,,,,,,,,,,,,,,,,,,,,,,,,,,,,,,,,,,,,,,,,,,,,,,,,0,4,4,1,1,,,,,,,,,,,,,,,,,,,,,,,,,,,,,,,,,,,,,,,,,
569683,001,2022-11-13_20h36.08.572,Info_measure_main_exp,2022.2.2,Win32,60.53635208,,,,,,,,,,,,,,,,,,,,,,,,,,,,,,7,0.5236,1,,,,,,,,,,,,0,131,5,5,1950,2142,absent_patch/patch0001950.jpg,absent_patch/patch0002142.jpg,,,,,,,,,,,,,,,,,,,,0.083333333,0.105555556,1,0,0,response1disk,16,-0.007777778,-0.011111111,1,0,0,center_square,0,15,15,83,1,,,,,,,,,,,,,,,,,,,,,,,
569683,001,2022-11-13_20h36.08.572,Info_measure_main_exp,2022.2.2,Win32,60.53635208,,,,,,,,,,,,,,,,,,masks/mask_002.jpg,,,,,,,,,,,,,,,,,,,,,,,,,,,,,,,,,,,,,,,,,,,0,0,0,1,1,,,,,,,,,,,,,,,,,,,,,,,,,,,,,,,,,,,,,,,,,,,,,,
569683,001,2022-11-13_20h36.08.572,Info_measure_main_exp,2022.2.2,Win32,60.53635208,,,,,,,,,,,,,,,,,,masks/mask_001.jpg,,,,,,,,,,,,,,,,,,,,,,,,,,,,,,,,,,,,,,,,,,,0,1,1,0,1,,,,,,,,,,,,,,,,,,,,,,,,,,,,,,,,,,,,,,,,,,,,,,
569683,001,2022-11-13_20h36.08.572,Info_measure_main_exp,2022.2.2,Win32,60.53635208,,,,,,,,,,,,,,,,,,masks/mask_004.jpg,,,,,,,,,,,,,,,,,,,,,,,,,,,,,,,,,,,,,,,,,,,0,2,2,3,1,,,,,,,,,,,,,,,,,,,,,,,,,,,,,,,,,,,,,,,,,,,,,,
569683,001,2022-11-13_20h36.08.572,Info_measure_main_exp,2022.2.2,Win32,60.53635208,,,,,,,,,,,,,,,,,,masks/mask_003.jpg,,,,,,,,,,,,,,,,,,,,,,,,,,,,,,,,,,,,,,,,,,,0,3,3,2,1,,,,,,,,,,,,,,,,,,,,,,,,,,,,,,,,,,,,,,,,,,,,,,
569683,001,2022-11-13_20h36.08.572,Info_measure_main_exp,2022.2.2,Win32,60.53635208,,,,,,,,,,,,,,,,,,masks/mask_005.jpg,,,,,,,,,,,,,,,,,,,,,,,,,,,,,,,,,,,,,,,,,,,0,4,4,4,1,,,,,,,,,,,,,,,,,,,,,,,,,,,,,,,,,,,,,,,,,,,,,,
569683,001,2022-11-13_20h36.08.572,Info_measure_main_exp,2022.2.2,Win32,60.53635208,,,,,,,,,,,,,,,,,,masks/mask_001.jpg,,,,,,,,,,,,,,,,,,,,,,,,,,,,,,,,,,,,,,,,,,,,,,,,0,0,0,0,1,,,,,,,,,,,,,,,,,,,,,,,,,,,,,,,,,,,,,,,,,
569683,001,2022-11-13_20h36.08.572,Info_measure_main_exp,2022.2.2,Win32,60.53635208,,,,,,,,,,,,,,,,,,masks/mask_004.jpg,,,,,,,,,,,,,,,,,,,,,,,,,,,,,,,,,,,,,,,,,,,,,,,,0,1,1,3,1,,,,,,,,,,,,,,,,,,,,,,,,,,,,,,,,,,,,,,,,,
569683,001,2022-11-13_20h36.08.572,Info_measure_main_exp,2022.2.2,Win32,60.53635208,,,,,,,,,,,,,,,,,,masks/mask_003.jpg,,,,,,,,,,,,,,,,,,,,,,,,,,,,,,,,,,,,,,,,,,,,,,,,0,2,2,2,1,,,,,,,,,,,,,,,,,,,,,,,,,,,,,,,,,,,,,,,,,
569683,001,2022-11-13_20h36.08.572,Info_measure_main_exp,2022.2.2,Win32,60.53635208,,,,,,,,,,,,,,,,,,masks/mask_005.jpg,,,,,,,,,,,,,,,,,,,,,,,,,,,,,,,,,,,,,,,,,,,,,,,,0,3,3,4,1,,,,,,,,,,,,,,,,,,,,,,,,,,,,,,,,,,,,,,,,,
569683,001,2022-11-13_20h36.08.572,Info_measure_main_exp,2022.2.2,Win32,60.53635208,,,,,,,,,,,,,,,,,,masks/mask_002.jpg,,,,,,,,,,,,,,,,,,,,,,,,,,,,,,,,,,,,,,,,,,,,,,,,0,4,4,1,1,,,,,,,,,,,,,,,,,,,,,,,,,,,,,,,,,,,,,,,,,
569683,001,2022-11-13_20h36.08.572,Info_measure_main_exp,2022.2.2,Win32,60.53635208,,,,,,,,,,,,,,,,,,,,,,,,,,,,,,7,0.799,1,,,,,,,,,,,,0,131,5,5,2250,1986,absent_patch/patch0002250.jpg,absent_patch/patch0001986.jpg,,,,,,,,,,,,,,,,,,,,0.061111111,0.151111111,1,0,0,response1disk,17,0.005555556,-0.005555556,1,0,0,center_square,0,16,16,29,1,,,,,,,,,,,,,,,,,,,,,,,
569683,001,2022-11-13_20h36.08.572,Info_measure_main_exp,2022.2.2,Win32,60.53635208,,,,,,,,,,,,,,,,,,masks/mask_003.jpg,,,,,,,,,,,,,,,,,,,,,,,,,,,,,,,,,,,,,,,,,,,0,0,0,2,1,,,,,,,,,,,,,,,,,,,,,,,,,,,,,,,,,,,,,,,,,,,,,,
569683,001,2022-11-13_20h36.08.572,Info_measure_main_exp,2022.2.2,Win32,60.53635208,,,,,,,,,,,,,,,,,,masks/mask_005.jpg,,,,,,,,,,,,,,,,,,,,,,,,,,,,,,,,,,,,,,,,,,,0,1,1,4,1,,,,,,,,,,,,,,,,,,,,,,,,,,,,,,,,,,,,,,,,,,,,,,
569683,001,2022-11-13_20h36.08.572,Info_measure_main_exp,2022.2.2,Win32,60.53635208,,,,,,,,,,,,,,,,,,masks/mask_002.jpg,,,,,,,,,,,,,,,,,,,,,,,,,,,,,,,,,,,,,,,,,,,0,2,2,1,1,,,,,,,,,,,,,,,,,,,,,,,,,,,,,,,,,,,,,,,,,,,,,,
569683,001,2022-11-13_20h36.08.572,Info_measure_main_exp,2022.2.2,Win32,60.53635208,,,,,,,,,,,,,,,,,,masks/mask_004.jpg,,,,,,,,,,,,,,,,,,,,,,,,,,,,,,,,,,,,,,,,,,,0,3,3,3,1,,,,,,,,,,,,,,,,,,,,,,,,,,,,,,,,,,,,,,,,,,,,,,
569683,001,2022-11-13_20h36.08.572,Info_measure_main_exp,2022.2.2,Win32,60.53635208,,,,,,,,,,,,,,,,,,masks/mask_001.jpg,,,,,,,,,,,,,,,,,,,,,,,,,,,,,,,,,,,,,,,,,,,0,4,4,0,1,,,,,,,,,,,,,,,,,,,,,,,,,,,,,,,,,,,,,,,,,,,,,,
569683,001,2022-11-13_20h36.08.572,Info_measure_main_exp,2022.2.2,Win32,60.53635208,,,,,,,,,,,,,,,,,,masks/mask_003.jpg,,,,,,,,,,,,,,,,,,,,,,,,,,,,,,,,,,,,,,,,,,,,,,,,0,0,0,2,1,,,,,,,,,,,,,,,,,,,,,,,,,,,,,,,,,,,,,,,,,
569683,001,2022-11-13_20h36.08.572,Info_measure_main_exp,2022.2.2,Win32,60.53635208,,,,,,,,,,,,,,,,,,masks/mask_004.jpg,,,,,,,,,,,,,,,,,,,,,,,,,,,,,,,,,,,,,,,,,,,,,,,,0,1,1,3,1,,,,,,,,,,,,,,,,,,,,,,,,,,,,,,,,,,,,,,,,,
569683,001,2022-11-13_20h36.08.572,Info_measure_main_exp,2022.2.2,Win32,60.53635208,,,,,,,,,,,,,,,,,,masks/mask_005.jpg,,,,,,,,,,,,,,,,,,,,,,,,,,,,,,,,,,,,,,,,,,,,,,,,0,2,2,4,1,,,,,,,,,,,,,,,,,,,,,,,,,,,,,,,,,,,,,,,,,
569683,001,2022-11-13_20h36.08.572,Info_measure_main_exp,2022.2.2,Win32,60.53635208,,,,,,,,,,,,,,,,,,masks/mask_001.jpg,,,,,,,,,,,,,,,,,,,,,,,,,,,,,,,,,,,,,,,,,,,,,,,,0,3,3,0,1,,,,,,,,,,,,,,,,,,,,,,,,,,,,,,,,,,,,,,,,,
569683,001,2022-11-13_20h36.08.572,Info_measure_main_exp,2022.2.2,Win32,60.53635208,,,,,,,,,,,,,,,,,,masks/mask_002.jpg,,,,,,,,,,,,,,,,,,,,,,,,,,,,,,,,,,,,,,,,,,,,,,,,0,4,4,1,1,,,,,,,,,,,,,,,,,,,,,,,,,,,,,,,,,,,,,,,,,
569683,001,2022-11-13_20h36.08.572,Info_measure_main_exp,2022.2.2,Win32,60.53635208,,,,,,,,,,,,,,,,,,,,,,,,,,,,,,7,0.5646,1,,,,,,,,,,,,0,131,5,5,2154,2298,absent_patch/patch0002154.jpg,absent_patch/patch0002298.jpg,,,,,,,,,,,,,,,,,,,,0.036666667,0.138888889,1,0,0,response1disk,18,-0.007777778,-0.008888889,1,0,0,center_square,0,17,17,27,1,,,,,,,,,,,,,,,,,,,,,,,
569683,001,2022-11-13_20h36.08.572,Info_measure_main_exp,2022.2.2,Win32,60.53635208,,,,,,,,,,,,,,,,,,masks/mask_005.jpg,,,,,,,,,,,,,,,,,,,,,,,,,,,,,,,,,,,,,,,,,,,0,0,0,4,1,,,,,,,,,,,,,,,,,,,,,,,,,,,,,,,,,,,,,,,,,,,,,,
569683,001,2022-11-13_20h36.08.572,Info_measure_main_exp,2022.2.2,Win32,60.53635208,,,,,,,,,,,,,,,,,,masks/mask_003.jpg,,,,,,,,,,,,,,,,,,,,,,,,,,,,,,,,,,,,,,,,,,,0,1,1,2,1,,,,,,,,,,,,,,,,,,,,,,,,,,,,,,,,,,,,,,,,,,,,,,
569683,001,2022-11-13_20h36.08.572,Info_measure_main_exp,2022.2.2,Win32,60.53635208,,,,,,,,,,,,,,,,,,masks/mask_004.jpg,,,,,,,,,,,,,,,,,,,,,,,,,,,,,,,,,,,,,,,,,,,0,2,2,3,1,,,,,,,,,,,,,,,,,,,,,,,,,,,,,,,,,,,,,,,,,,,,,,
569683,001,2022-11-13_20h36.08.572,Info_measure_main_exp,2022.2.2,Win32,60.53635208,,,,,,,,,,,,,,,,,,masks/mask_001.jpg,,,,,,,,,,,,,,,,,,,,,,,,,,,,,,,,,,,,,,,,,,,0,3,3,0,1,,,,,,,,,,,,,,,,,,,,,,,,,,,,,,,,,,,,,,,,,,,,,,
569683,001,2022-11-13_20h36.08.572,Info_measure_main_exp,2022.2.2,Win32,60.53635208,,,,,,,,,,,,,,,,,,masks/mask_002.jpg,,,,,,,,,,,,,,,,,,,,,,,,,,,,,,,,,,,,,,,,,,,0,4,4,1,1,,,,,,,,,,,,,,,,,,,,,,,,,,,,,,,,,,,,,,,,,,,,,,
569683,001,2022-11-13_20h36.08.572,Info_measure_main_exp,2022.2.2,Win32,60.53635208,,,,,,,,,,,,,,,,,,masks/mask_001.jpg,,,,,,,,,,,,,,,,,,,,,,,,,,,,,,,,,,,,,,,,,,,,,,,,0,0,0,0,1,,,,,,,,,,,,,,,,,,,,,,,,,,,,,,,,,,,,,,,,,
569683,001,2022-11-13_20h36.08.572,Info_measure_main_exp,2022.2.2,Win32,60.53635208,,,,,,,,,,,,,,,,,,masks/mask_002.jpg,,,,,,,,,,,,,,,,,,,,,,,,,,,,,,,,,,,,,,,,,,,,,,,,0,1,1,1,1,,,,,,,,,,,,,,,,,,,,,,,,,,,,,,,,,,,,,,,,,
569683,001,2022-11-13_20h36.08.572,Info_measure_main_exp,2022.2.2,Win32,60.53635208,,,,,,,,,,,,,,,,,,masks/mask_005.jpg,,,,,,,,,,,,,,,,,,,,,,,,,,,,,,,,,,,,,,,,,,,,,,,,0,2,2,4,1,,,,,,,,,,,,,,,,,,,,,,,,,,,,,,,,,,,,,,,,,
569683,001,2022-11-13_20h36.08.572,Info_measure_main_exp,2022.2.2,Win32,60.53635208,,,,,,,,,,,,,,,,,,masks/mask_004.jpg,,,,,,,,,,,,,,,,,,,,,,,,,,,,,,,,,,,,,,,,,,,,,,,,0,3,3,3,1,,,,,,,,,,,,,,,,,,,,,,,,,,,,,,,,,,,,,,,,,
569683,001,2022-11-13_20h36.08.572,Info_measure_main_exp,2022.2.2,Win32,60.53635208,,,,,,,,,,,,,,,,,,masks/mask_003.jpg,,,,,,,,,,,,,,,,,,,,,,,,,,,,,,,,,,,,,,,,,,,,,,,,0,4,4,2,1,,,,,,,,,,,,,,,,,,,,,,,,,,,,,,,,,,,,,,,,,
569683,001,2022-11-13_20h36.08.572,Info_measure_main_exp,2022.2.2,Win32,60.53635208,,,,,,,,,,,,,,,,,,,,,,,,,,,,,,7,0.7125,1,,,,,,,,,,,,1,131,5,5,1,2142,present_patch/cong_131_5_a.jpg,absent_patch/patch0002142.jpg,,,,,,,,,,,,,,,,,,,,0.061111111,0.14,1,0,0,response1disk,19,-0.003333333,-0.001111111,1,0,0,center_square,0,18,18,80,1,,,,,,,,,,,,,,,,,,,,,,,
569683,001,2022-11-13_20h36.08.572,Info_measure_main_exp,2022.2.2,Win32,60.53635208,,,,,,,,,,,,,,,,,,masks/mask_002.jpg,,,,,,,,,,,,,,,,,,,,,,,,,,,,,,,,,,,,,,,,,,,0,0,0,1,1,,,,,,,,,,,,,,,,,,,,,,,,,,,,,,,,,,,,,,,,,,,,,,
569683,001,2022-11-13_20h36.08.572,Info_measure_main_exp,2022.2.2,Win32,60.53635208,,,,,,,,,,,,,,,,,,masks/mask_001.jpg,,,,,,,,,,,,,,,,,,,,,,,,,,,,,,,,,,,,,,,,,,,0,1,1,0,1,,,,,,,,,,,,,,,,,,,,,,,,,,,,,,,,,,,,,,,,,,,,,,
569683,001,2022-11-13_20h36.08.572,Info_measure_main_exp,2022.2.2,Win32,60.53635208,,,,,,,,,,,,,,,,,,masks/mask_005.jpg,,,,,,,,,,,,,,,,,,,,,,,,,,,,,,,,,,,,,,,,,,,0,2,2,4,1,,,,,,,,,,,,,,,,,,,,,,,,,,,,,,,,,,,,,,,,,,,,,,
569683,001,2022-11-13_20h36.08.572,Info_measure_main_exp,2022.2.2,Win32,60.53635208,,,,,,,,,,,,,,,,,,masks/mask_003.jpg,,,,,,,,,,,,,,,,,,,,,,,,,,,,,,,,,,,,,,,,,,,0,3,3,2,1,,,,,,,,,,,,,,,,,,,,,,,,,,,,,,,,,,,,,,,,,,,,,,
569683,001,2022-11-13_20h36.08.572,Info_measure_main_exp,2022.2.2,Win32,60.53635208,,,,,,,,,,,,,,,,,,masks/mask_004.jpg,,,,,,,,,,,,,,,,,,,,,,,,,,,,,,,,,,,,,,,,,,,0,4,4,3,1,,,,,,,,,,,,,,,,,,,,,,,,,,,,,,,,,,,,,,,,,,,,,,
569683,001,2022-11-13_20h36.08.572,Info_measure_main_exp,2022.2.2,Win32,60.53635208,,,,,,,,,,,,,,,,,,masks/mask_001.jpg,,,,,,,,,,,,,,,,,,,,,,,,,,,,,,,,,,,,,,,,,,,,,,,,0,0,0,0,1,,,,,,,,,,,,,,,,,,,,,,,,,,,,,,,,,,,,,,,,,
569683,001,2022-11-13_20h36.08.572,Info_measure_main_exp,2022.2.2,Win32,60.53635208,,,,,,,,,,,,,,,,,,masks/mask_004.jpg,,,,,,,,,,,,,,,,,,,,,,,,,,,,,,,,,,,,,,,,,,,,,,,,0,1,1,3,1,,,,,,,,,,,,,,,,,,,,,,,,,,,,,,,,,,,,,,,,,
569683,001,2022-11-13_20h36.08.572,Info_measure_main_exp,2022.2.2,Win32,60.53635208,,,,,,,,,,,,,,,,,,masks/mask_003.jpg,,,,,,,,,,,,,,,,,,,,,,,,,,,,,,,,,,,,,,,,,,,,,,,,0,2,2,2,1,,,,,,,,,,,,,,,,,,,,,,,,,,,,,,,,,,,,,,,,,
569683,001,2022-11-13_20h36.08.572,Info_measure_main_exp,2022.2.2,Win32,60.53635208,,,,,,,,,,,,,,,,,,masks/mask_005.jpg,,,,,,,,,,,,,,,,,,,,,,,,,,,,,,,,,,,,,,,,,,,,,,,,0,3,3,4,1,,,,,,,,,,,,,,,,,,,,,,,,,,,,,,,,,,,,,,,,,
569683,001,2022-11-13_20h36.08.572,Info_measure_main_exp,2022.2.2,Win32,60.53635208,,,,,,,,,,,,,,,,,,masks/mask_002.jpg,,,,,,,,,,,,,,,,,,,,,,,,,,,,,,,,,,,,,,,,,,,,,,,,0,4,4,1,1,,,,,,,,,,,,,,,,,,,,,,,,,,,,,,,,,,,,,,,,,
569683,001,2022-11-13_20h36.08.572,Info_measure_main_exp,2022.2.2,Win32,60.53635208,,,,,,,,,,,,,,,,,,,,,,,,,,,,,,7,0.5599,1,,,,,,,,,,,,0,131,5,5,2154,2250,absent_patch/patch0002154.jpg,absent_patch/patch0002250.jpg,,,,,,,,,,,,,,,,,,,,0.081111111,0.163333333,1,0,0,response1disk,20,0.005555556,0.001111111,1,0,0,center_square,0,19,19,108,1,,,,,,,,,,,,,,,,,,,,,,,
569683,001,2022-11-13_20h36.08.572,Info_measure_main_exp,2022.2.2,Win32,60.53635208,,,,,,,,,,,,,,,,,,masks/mask_004.jpg,,,,,,,,,,,,,,,,,,,,,,,,,,,,,,,,,,,,,,,,,,,0,0,0,3,1,,,,,,,,,,,,,,,,,,,,,,,,,,,,,,,,,,,,,,,,,,,,,,
569683,001,2022-11-13_20h36.08.572,Info_measure_main_exp,2022.2.2,Win32,60.53635208,,,,,,,,,,,,,,,,,,masks/mask_001.jpg,,,,,,,,,,,,,,,,,,,,,,,,,,,,,,,,,,,,,,,,,,,0,1,1,0,1,,,,,,,,,,,,,,,,,,,,,,,,,,,,,,,,,,,,,,,,,,,,,,
569683,001,2022-11-13_20h36.08.572,Info_measure_main_exp,2022.2.2,Win32,60.53635208,,,,,,,,,,,,,,,,,,masks/mask_005.jpg,,,,,,,,,,,,,,,,,,,,,,,,,,,,,,,,,,,,,,,,,,,0,2,2,4,1,,,,,,,,,,,,,,,,,,,,,,,,,,,,,,,,,,,,,,,,,,,,,,
569683,001,2022-11-13_20h36.08.572,Info_measure_main_exp,2022.2.2,Win32,60.53635208,,,,,,,,,,,,,,,,,,masks/mask_003.jpg,,,,,,,,,,,,,,,,,,,,,,,,,,,,,,,,,,,,,,,,,,,0,3,3,2,1,,,,,,,,,,,,,,,,,,,,,,,,,,,,,,,,,,,,,,,,,,,,,,
569683,001,2022-11-13_20h36.08.572,Info_measure_main_exp,2022.2.2,Win32,60.53635208,,,,,,,,,,,,,,,,,,masks/mask_002.jpg,,,,,,,,,,,,,,,,,,,,,,,,,,,,,,,,,,,,,,,,,,,0,4,4,1,1,,,,,,,,,,,,,,,,,,,,,,,,,,,,,,,,,,,,,,,,,,,,,,
569683,001,2022-11-13_20h36.08.572,Info_measure_main_exp,2022.2.2,Win32,60.53635208,,,,,,,,,,,,,,,,,,masks/mask_003.jpg,,,,,,,,,,,,,,,,,,,,,,,,,,,,,,,,,,,,,,,,,,,,,,,,0,0,0,2,1,,,,,,,,,,,,,,,,,,,,,,,,,,,,,,,,,,,,,,,,,
569683,001,2022-11-13_20h36.08.572,Info_measure_main_exp,2022.2.2,Win32,60.53635208,,,,,,,,,,,,,,,,,,masks/mask_001.jpg,,,,,,,,,,,,,,,,,,,,,,,,,,,,,,,,,,,,,,,,,,,,,,,,0,1,1,0,1,,,,,,,,,,,,,,,,,,,,,,,,,,,,,,,,,,,,,,,,,
569683,001,2022-11-13_20h36.08.572,Info_measure_main_exp,2022.2.2,Win32,60.53635208,,,,,,,,,,,,,,,,,,masks/mask_005.jpg,,,,,,,,,,,,,,,,,,,,,,,,,,,,,,,,,,,,,,,,,,,,,,,,0,2,2,4,1,,,,,,,,,,,,,,,,,,,,,,,,,,,,,,,,,,,,,,,,,
569683,001,2022-11-13_20h36.08.572,Info_measure_main_exp,2022.2.2,Win32,60.53635208,,,,,,,,,,,,,,,,,,masks/mask_002.jpg,,,,,,,,,,,,,,,,,,,,,,,,,,,,,,,,,,,,,,,,,,,,,,,,0,3,3,1,1,,,,,,,,,,,,,,,,,,,,,,,,,,,,,,,,,,,,,,,,,
569683,001,2022-11-13_20h36.08.572,Info_measure_main_exp,2022.2.2,Win32,60.53635208,,,,,,,,,,,,,,,,,,masks/mask_004.jpg,,,,,,,,,,,,,,,,,,,,,,,,,,,,,,,,,,,,,,,,,,,,,,,,0,4,4,3,1,,,,,,,,,,,,,,,,,,,,,,,,,,,,,,,,,,,,,,,,,
569683,001,2022-11-13_20h36.08.572,Info_measure_main_exp,2022.2.2,Win32,60.53635208,,,,,,,,,,,,,,,,,,,,,,,,,,,,,,7,0.7069,1,,,,,,,,,,,,0,131,5,5,2190,2250,absent_patch/patch0002190.jpg,absent_patch/patch0002250.jpg,,,,,,,,,,,,,,,,,,,,0.046666667,0.172222222,1,0,0,response1disk,21,0.012222222,0.003333333,1,0,0,center_square,0,20,20,93,1,,,,,,,,,,,,,,,,,,,,,,,
569683,001,2022-11-13_20h36.08.572,Info_measure_main_exp,2022.2.2,Win32,60.53635208,,,,,,,,,,,,,,,,,,masks/mask_001.jpg,,,,,,,,,,,,,,,,,,,,,,,,,,,,,,,,,,,,,,,,,,,0,0,0,0,1,,,,,,,,,,,,,,,,,,,,,,,,,,,,,,,,,,,,,,,,,,,,,,
569683,001,2022-11-13_20h36.08.572,Info_measure_main_exp,2022.2.2,Win32,60.53635208,,,,,,,,,,,,,,,,,,masks/mask_002.jpg,,,,,,,,,,,,,,,,,,,,,,,,,,,,,,,,,,,,,,,,,,,0,1,1,1,1,,,,,,,,,,,,,,,,,,,,,,,,,,,,,,,,,,,,,,,,,,,,,,
569683,001,2022-11-13_20h36.08.572,Info_measure_main_exp,2022.2.2,Win32,60.53635208,,,,,,,,,,,,,,,,,,masks/mask_004.jpg,,,,,,,,,,,,,,,,,,,,,,,,,,,,,,,,,,,,,,,,,,,0,2,2,3,1,,,,,,,,,,,,,,,,,,,,,,,,,,,,,,,,,,,,,,,,,,,,,,
569683,001,2022-11-13_20h36.08.572,Info_measure_main_exp,2022.2.2,Win32,60.53635208,,,,,,,,,,,,,,,,,,masks/mask_005.jpg,,,,,,,,,,,,,,,,,,,,,,,,,,,,,,,,,,,,,,,,,,,0,3,3,4,1,,,,,,,,,,,,,,,,,,,,,,,,,,,,,,,,,,,,,,,,,,,,,,
569683,001,2022-11-13_20h36.08.572,Info_measure_main_exp,2022.2.2,Win32,60.53635208,,,,,,,,,,,,,,,,,,masks/mask_003.jpg,,,,,,,,,,,,,,,,,,,,,,,,,,,,,,,,,,,,,,,,,,,0,4,4,2,1,,,,,,,,,,,,,,,,,,,,,,,,,,,,,,,,,,,,,,,,,,,,,,
569683,001,2022-11-13_20h36.08.572,Info_measure_main_exp,2022.2.2,Win32,60.53635208,,,,,,,,,,,,,,,,,,masks/mask_005.jpg,,,,,,,,,,,,,,,,,,,,,,,,,,,,,,,,,,,,,,,,,,,,,,,,0,0,0,4,1,,,,,,,,,,,,,,,,,,,,,,,,,,,,,,,,,,,,,,,,,
569683,001,2022-11-13_20h36.08.572,Info_measure_main_exp,2022.2.2,Win32,60.53635208,,,,,,,,,,,,,,,,,,masks/mask_004.jpg,,,,,,,,,,,,,,,,,,,,,,,,,,,,,,,,,,,,,,,,,,,,,,,,0,1,1,3,1,,,,,,,,,,,,,,,,,,,,,,,,,,,,,,,,,,,,,,,,,
569683,001,2022-11-13_20h36.08.572,Info_measure_main_exp,2022.2.2,Win32,60.53635208,,,,,,,,,,,,,,,,,,masks/mask_001.jpg,,,,,,,,,,,,,,,,,,,,,,,,,,,,,,,,,,,,,,,,,,,,,,,,0,2,2,0,1,,,,,,,,,,,,,,,,,,,,,,,,,,,,,,,,,,,,,,,,,
569683,001,2022-11-13_20h36.08.572,Info_measure_main_exp,2022.2.2,Win32,60.53635208,,,,,,,,,,,,,,,,,,masks/mask_002.jpg,,,,,,,,,,,,,,,,,,,,,,,,,,,,,,,,,,,,,,,,,,,,,,,,0,3,3,1,1,,,,,,,,,,,,,,,,,,,,,,,,,,,,,,,,,,,,,,,,,
569683,001,2022-11-13_20h36.08.572,Info_measure_main_exp,2022.2.2,Win32,60.53635208,,,,,,,,,,,,,,,,,,masks/mask_003.jpg,,,,,,,,,,,,,,,,,,,,,,,,,,,,,,,,,,,,,,,,,,,,,,,,0,4,4,2,1,,,,,,,,,,,,,,,,,,,,,,,,,,,,,,,,,,,,,,,,,
569683,001,2022-11-13_20h36.08.572,Info_measure_main_exp,2022.2.2,Win32,60.53635208,,,,,,,,,,,,,,,,,,,,,,,,,,,,,,7,0.6981,1,,,,,,,,,,,,0,131,5,5,2238,2166,absent_patch/patch0002238.jpg,absent_patch/patch0002166.jpg,,,,,,,,,,,,,,,,,,,,0.057777778,0.148888889,1,0,0,response1disk,22,-0.005555556,0.012222222,1,0,0,center_square,0,21,21,118,1,,,,,,,,,,,,,,,,,,,,,,,
569683,001,2022-11-13_20h36.08.572,Info_measure_main_exp,2022.2.2,Win32,60.53635208,,,,,,,,,,,,,,,,,,masks/mask_003.jpg,,,,,,,,,,,,,,,,,,,,,,,,,,,,,,,,,,,,,,,,,,,0,0,0,2,1,,,,,,,,,,,,,,,,,,,,,,,,,,,,,,,,,,,,,,,,,,,,,,
569683,001,2022-11-13_20h36.08.572,Info_measure_main_exp,2022.2.2,Win32,60.53635208,,,,,,,,,,,,,,,,,,masks/mask_002.jpg,,,,,,,,,,,,,,,,,,,,,,,,,,,,,,,,,,,,,,,,,,,0,1,1,1,1,,,,,,,,,,,,,,,,,,,,,,,,,,,,,,,,,,,,,,,,,,,,,,
569683,001,2022-11-13_20h36.08.572,Info_measure_main_exp,2022.2.2,Win32,60.53635208,,,,,,,,,,,,,,,,,,masks/mask_005.jpg,,,,,,,,,,,,,,,,,,,,,,,,,,,,,,,,,,,,,,,,,,,0,2,2,4,1,,,,,,,,,,,,,,,,,,,,,,,,,,,,,,,,,,,,,,,,,,,,,,
569683,001,2022-11-13_20h36.08.572,Info_measure_main_exp,2022.2.2,Win32,60.53635208,,,,,,,,,,,,,,,,,,masks/mask_004.jpg,,,,,,,,,,,,,,,,,,,,,,,,,,,,,,,,,,,,,,,,,,,0,3,3,3,1,,,,,,,,,,,,,,,,,,,,,,,,,,,,,,,,,,,,,,,,,,,,,,
569683,001,2022-11-13_20h36.08.572,Info_measure_main_exp,2022.2.2,Win32,60.53635208,,,,,,,,,,,,,,,,,,masks/mask_001.jpg,,,,,,,,,,,,,,,,,,,,,,,,,,,,,,,,,,,,,,,,,,,0,4,4,0,1,,,,,,,,,,,,,,,,,,,,,,,,,,,,,,,,,,,,,,,,,,,,,,
569683,001,2022-11-13_20h36.08.572,Info_measure_main_exp,2022.2.2,Win32,60.53635208,,,,,,,,,,,,,,,,,,masks/mask_005.jpg,,,,,,,,,,,,,,,,,,,,,,,,,,,,,,,,,,,,,,,,,,,,,,,,0,0,0,4,1,,,,,,,,,,,,,,,,,,,,,,,,,,,,,,,,,,,,,,,,,
569683,001,2022-11-13_20h36.08.572,Info_measure_main_exp,2022.2.2,Win32,60.53635208,,,,,,,,,,,,,,,,,,masks/mask_001.jpg,,,,,,,,,,,,,,,,,,,,,,,,,,,,,,,,,,,,,,,,,,,,,,,,0,1,1,0,1,,,,,,,,,,,,,,,,,,,,,,,,,,,,,,,,,,,,,,,,,
569683,001,2022-11-13_20h36.08.572,Info_measure_main_exp,2022.2.2,Win32,60.53635208,,,,,,,,,,,,,,,,,,masks/mask_004.jpg,,,,,,,,,,,,,,,,,,,,,,,,,,,,,,,,,,,,,,,,,,,,,,,,0,2,2,3,1,,,,,,,,,,,,,,,,,,,,,,,,,,,,,,,,,,,,,,,,,
569683,001,2022-11-13_20h36.08.572,Info_measure_main_exp,2022.2.2,Win32,60.53635208,,,,,,,,,,,,,,,,,,masks/mask_002.jpg,,,,,,,,,,,,,,,,,,,,,,,,,,,,,,,,,,,,,,,,,,,,,,,,0,3,3,1,1,,,,,,,,,,,,,,,,,,,,,,,,,,,,,,,,,,,,,,,,,
569683,001,2022-11-13_20h36.08.572,Info_measure_main_exp,2022.2.2,Win32,60.53635208,,,,,,,,,,,,,,,,,,masks/mask_003.jpg,,,,,,,,,,,,,,,,,,,,,,,,,,,,,,,,,,,,,,,,,,,,,,,,0,4,4,2,1,,,,,,,,,,,,,,,,,,,,,,,,,,,,,,,,,,,,,,,,,
569683,001,2022-11-13_20h36.08.572,Info_measure_main_exp,2022.2.2,Win32,60.53635208,,,,,,,,,,,,,,,,,,,,,,,,,,,,,,6,0.816,1,,,,,,,,,,,,0,131,5,5,2142,2082,absent_patch/patch0002142.jpg,absent_patch/patch0002082.jpg,,,,,,,,,,,,,,,,,,,,0.15,0.025555556,1,0,0,response1disk,23,-0.002222222,-0.007777778,1,0,0,center_square,0,22,22,88,1,,,,,,,,,,,,,,,,,,,,,,,
569683,001,2022-11-13_20h36.08.572,Info_measure_main_exp,2022.2.2,Win32,60.53635208,,,,,,,,,,,,,,,,,,masks/mask_005.jpg,,,,,,,,,,,,,,,,,,,,,,,,,,,,,,,,,,,,,,,,,,,0,0,0,4,1,,,,,,,,,,,,,,,,,,,,,,,,,,,,,,,,,,,,,,,,,,,,,,
569683,001,2022-11-13_20h36.08.572,Info_measure_main_exp,2022.2.2,Win32,60.53635208,,,,,,,,,,,,,,,,,,masks/mask_001.jpg,,,,,,,,,,,,,,,,,,,,,,,,,,,,,,,,,,,,,,,,,,,0,1,1,0,1,,,,,,,,,,,,,,,,,,,,,,,,,,,,,,,,,,,,,,,,,,,,,,
569683,001,2022-11-13_20h36.08.572,Info_measure_main_exp,2022.2.2,Win32,60.53635208,,,,,,,,,,,,,,,,,,masks/mask_004.jpg,,,,,,,,,,,,,,,,,,,,,,,,,,,,,,,,,,,,,,,,,,,0,2,2,3,1,,,,,,,,,,,,,,,,,,,,,,,,,,,,,,,,,,,,,,,,,,,,,,
569683,001,2022-11-13_20h36.08.572,Info_measure_main_exp,2022.2.2,Win32,60.53635208,,,,,,,,,,,,,,,,,,masks/mask_003.jpg,,,,,,,,,,,,,,,,,,,,,,,,,,,,,,,,,,,,,,,,,,,0,3,3,2,1,,,,,,,,,,,,,,,,,,,,,,,,,,,,,,,,,,,,,,,,,,,,,,
569683,001,2022-11-13_20h36.08.572,Info_measure_main_exp,2022.2.2,Win32,60.53635208,,,,,,,,,,,,,,,,,,masks/mask_002.jpg,,,,,,,,,,,,,,,,,,,,,,,,,,,,,,,,,,,,,,,,,,,0,4,4,1,1,,,,,,,,,,,,,,,,,,,,,,,,,,,,,,,,,,,,,,,,,,,,,,
569683,001,2022-11-13_20h36.08.572,Info_measure_main_exp,2022.2.2,Win32,60.53635208,,,,,,,,,,,,,,,,,,masks/mask_004.jpg,,,,,,,,,,,,,,,,,,,,,,,,,,,,,,,,,,,,,,,,,,,,,,,,0,0,0,3,1,,,,,,,,,,,,,,,,,,,,,,,,,,,,,,,,,,,,,,,,,
569683,001,2022-11-13_20h36.08.572,Info_measure_main_exp,2022.2.2,Win32,60.53635208,,,,,,,,,,,,,,,,,,masks/mask_001.jpg,,,,,,,,,,,,,,,,,,,,,,,,,,,,,,,,,,,,,,,,,,,,,,,,0,1,1,0,1,,,,,,,,,,,,,,,,,,,,,,,,,,,,,,,,,,,,,,,,,
569683,001,2022-11-13_20h36.08.572,Info_measure_main_exp,2022.2.2,Win32,60.53635208,,,,,,,,,,,,,,,,,,masks/mask_003.jpg,,,,,,,,,,,,,,,,,,,,,,,,,,,,,,,,,,,,,,,,,,,,,,,,0,2,2,2,1,,,,,,,,,,,,,,,,,,,,,,,,,,,,,,,,,,,,,,,,,
569683,001,2022-11-13_20h36.08.572,Info_measure_main_exp,2022.2.2,Win32,60.53635208,,,,,,,,,,,,,,,,,,masks/mask_005.jpg,,,,,,,,,,,,,,,,,,,,,,,,,,,,,,,,,,,,,,,,,,,,,,,,0,3,3,4,1,,,,,,,,,,,,,,,,,,,,,,,,,,,,,,,,,,,,,,,,,
569683,001,2022-11-13_20h36.08.572,Info_measure_main_exp,2022.2.2,Win32,60.53635208,,,,,,,,,,,,,,,,,,masks/mask_002.jpg,,,,,,,,,,,,,,,,,,,,,,,,,,,,,,,,,,,,,,,,,,,,,,,,0,4,4,1,1,,,,,,,,,,,,,,,,,,,,,,,,,,,,,,,,,,,,,,,,,
569683,001,2022-11-13_20h36.08.572,Info_measure_main_exp,2022.2.2,Win32,60.53635208,,,,,,,,,,,,,,,,,,,,,,,,,,,,,,7,0.4997,1,,,,,,,,,,,,0,131,5,5,1986,1974,absent_patch/patch0001986.jpg,absent_patch/patch0001974.jpg,,,,,,,,,,,,,,,,,,,,0.082222222,0.166666667,1,0,0,response1disk,24,-0.012222222,0.002222222,1,0,0,center_square,0,23,23,25,1,,,,,,,,,,,,,,,,,,,,,,,
569683,001,2022-11-13_20h36.08.572,Info_measure_main_exp,2022.2.2,Win32,60.53635208,,,,,,,,,,,,,,,,,,masks/mask_004.jpg,,,,,,,,,,,,,,,,,,,,,,,,,,,,,,,,,,,,,,,,,,,0,0,0,3,1,,,,,,,,,,,,,,,,,,,,,,,,,,,,,,,,,,,,,,,,,,,,,,
569683,001,2022-11-13_20h36.08.572,Info_measure_main_exp,2022.2.2,Win32,60.53635208,,,,,,,,,,,,,,,,,,masks/mask_001.jpg,,,,,,,,,,,,,,,,,,,,,,,,,,,,,,,,,,,,,,,,,,,0,1,1,0,1,,,,,,,,,,,,,,,,,,,,,,,,,,,,,,,,,,,,,,,,,,,,,,
569683,001,2022-11-13_20h36.08.572,Info_measure_main_exp,2022.2.2,Win32,60.53635208,,,,,,,,,,,,,,,,,,masks/mask_002.jpg,,,,,,,,,,,,,,,,,,,,,,,,,,,,,,,,,,,,,,,,,,,0,2,2,1,1,,,,,,,,,,,,,,,,,,,,,,,,,,,,,,,,,,,,,,,,,,,,,,
569683,001,2022-11-13_20h36.08.572,Info_measure_main_exp,2022.2.2,Win32,60.53635208,,,,,,,,,,,,,,,,,,masks/mask_003.jpg,,,,,,,,,,,,,,,,,,,,,,,,,,,,,,,,,,,,,,,,,,,0,3,3,2,1,,,,,,,,,,,,,,,,,,,,,,,,,,,,,,,,,,,,,,,,,,,,,,
569683,001,2022-11-13_20h36.08.572,Info_measure_main_exp,2022.2.2,Win32,60.53635208,,,,,,,,,,,,,,,,,,masks/mask_005.jpg,,,,,,,,,,,,,,,,,,,,,,,,,,,,,,,,,,,,,,,,,,,0,4,4,4,1,,,,,,,,,,,,,,,,,,,,,,,,,,,,,,,,,,,,,,,,,,,,,,
569683,001,2022-11-13_20h36.08.572,Info_measure_main_exp,2022.2.2,Win32,60.53635208,,,,,,,,,,,,,,,,,,masks/mask_004.jpg,,,,,,,,,,,,,,,,,,,,,,,,,,,,,,,,,,,,,,,,,,,,,,,,0,0,0,3,1,,,,,,,,,,,,,,,,,,,,,,,,,,,,,,,,,,,,,,,,,
569683,001,2022-11-13_20h36.08.572,Info_measure_main_exp,2022.2.2,Win32,60.53635208,,,,,,,,,,,,,,,,,,masks/mask_003.jpg,,,,,,,,,,,,,,,,,,,,,,,,,,,,,,,,,,,,,,,,,,,,,,,,0,1,1,2,1,,,,,,,,,,,,,,,,,,,,,,,,,,,,,,,,,,,,,,,,,
569683,001,2022-11-13_20h36.08.572,Info_measure_main_exp,2022.2.2,Win32,60.53635208,,,,,,,,,,,,,,,,,,masks/mask_001.jpg,,,,,,,,,,,,,,,,,,,,,,,,,,,,,,,,,,,,,,,,,,,,,,,,0,2,2,0,1,,,,,,,,,,,,,,,,,,,,,,,,,,,,,,,,,,,,,,,,,
569683,001,2022-11-13_20h36.08.572,Info_measure_main_exp,2022.2.2,Win32,60.53635208,,,,,,,,,,,,,,,,,,masks/mask_002.jpg,,,,,,,,,,,,,,,,,,,,,,,,,,,,,,,,,,,,,,,,,,,,,,,,0,3,3,1,1,,,,,,,,,,,,,,,,,,,,,,,,,,,,,,,,,,,,,,,,,
569683,001,2022-11-13_20h36.08.572,Info_measure_main_exp,2022.2.2,Win32,60.53635208,,,,,,,,,,,,,,,,,,masks/mask_005.jpg,,,,,,,,,,,,,,,,,,,,,,,,,,,,,,,,,,,,,,,,,,,,,,,,0,4,4,4,1,,,,,,,,,,,,,,,,,,,,,,,,,,,,,,,,,,,,,,,,,
569683,001,2022-11-13_20h36.08.572,Info_measure_main_exp,2022.2.2,Win32,60.53635208,,,,,,,,,,,,,,,,,,,,,,,,,,,,,,7,0.5975,1,,,,,,,,,,,,0,131,5,5,2166,2154,absent_patch/patch0002166.jpg,absent_patch/patch0002154.jpg,,,,,,,,,,,,,,,,,,,,0.003333333,0.172222222,1,0,0,response1disk,25,0.003333333,0.008888889,1,0,0,center_square,0,24,24,79,1,,,,,,,,,,,,,,,,,,,,,,,
569683,001,2022-11-13_20h36.08.572,Info_measure_main_exp,2022.2.2,Win32,60.53635208,,,,,,,,,,,,,,,,,,masks/mask_002.jpg,,,,,,,,,,,,,,,,,,,,,,,,,,,,,,,,,,,,,,,,,,,0,0,0,1,1,,,,,,,,,,,,,,,,,,,,,,,,,,,,,,,,,,,,,,,,,,,,,,
569683,001,2022-11-13_20h36.08.572,Info_measure_main_exp,2022.2.2,Win32,60.53635208,,,,,,,,,,,,,,,,,,masks/mask_005.jpg,,,,,,,,,,,,,,,,,,,,,,,,,,,,,,,,,,,,,,,,,,,0,1,1,4,1,,,,,,,,,,,,,,,,,,,,,,,,,,,,,,,,,,,,,,,,,,,,,,
569683,001,2022-11-13_20h36.08.572,Info_measure_main_exp,2022.2.2,Win32,60.53635208,,,,,,,,,,,,,,,,,,masks/mask_001.jpg,,,,,,,,,,,,,,,,,,,,,,,,,,,,,,,,,,,,,,,,,,,0,2,2,0,1,,,,,,,,,,,,,,,,,,,,,,,,,,,,,,,,,,,,,,,,,,,,,,
569683,001,2022-11-13_20h36.08.572,Info_measure_main_exp,2022.2.2,Win32,60.53635208,,,,,,,,,,,,,,,,,,masks/mask_004.jpg,,,,,,,,,,,,,,,,,,,,,,,,,,,,,,,,,,,,,,,,,,,0,3,3,3,1,,,,,,,,,,,,,,,,,,,,,,,,,,,,,,,,,,,,,,,,,,,,,,
569683,001,2022-11-13_20h36.08.572,Info_measure_main_exp,2022.2.2,Win32,60.53635208,,,,,,,,,,,,,,,,,,masks/mask_003.jpg,,,,,,,,,,,,,,,,,,,,,,,,,,,,,,,,,,,,,,,,,,,0,4,4,2,1,,,,,,,,,,,,,,,,,,,,,,,,,,,,,,,,,,,,,,,,,,,,,,
569683,001,2022-11-13_20h36.08.572,Info_measure_main_exp,2022.2.2,Win32,60.53635208,,,,,,,,,,,,,,,,,,masks/mask_001.jpg,,,,,,,,,,,,,,,,,,,,,,,,,,,,,,,,,,,,,,,,,,,,,,,,0,0,0,0,1,,,,,,,,,,,,,,,,,,,,,,,,,,,,,,,,,,,,,,,,,
569683,001,2022-11-13_20h36.08.572,Info_measure_main_exp,2022.2.2,Win32,60.53635208,,,,,,,,,,,,,,,,,,masks/mask_002.jpg,,,,,,,,,,,,,,,,,,,,,,,,,,,,,,,,,,,,,,,,,,,,,,,,0,1,1,1,1,,,,,,,,,,,,,,,,,,,,,,,,,,,,,,,,,,,,,,,,,
569683,001,2022-11-13_20h36.08.572,Info_measure_main_exp,2022.2.2,Win32,60.53635208,,,,,,,,,,,,,,,,,,masks/mask_003.jpg,,,,,,,,,,,,,,,,,,,,,,,,,,,,,,,,,,,,,,,,,,,,,,,,0,2,2,2,1,,,,,,,,,,,,,,,,,,,,,,,,,,,,,,,,,,,,,,,,,
569683,001,2022-11-13_20h36.08.572,Info_measure_main_exp,2022.2.2,Win32,60.53635208,,,,,,,,,,,,,,,,,,masks/mask_005.jpg,,,,,,,,,,,,,,,,,,,,,,,,,,,,,,,,,,,,,,,,,,,,,,,,0,3,3,4,1,,,,,,,,,,,,,,,,,,,,,,,,,,,,,,,,,,,,,,,,,
569683,001,2022-11-13_20h36.08.572,Info_measure_main_exp,2022.2.2,Win32,60.53635208,,,,,,,,,,,,,,,,,,masks/mask_004.jpg,,,,,,,,,,,,,,,,,,,,,,,,,,,,,,,,,,,,,,,,,,,,,,,,0,4,4,3,1,,,,,,,,,,,,,,,,,,,,,,,,,,,,,,,,,,,,,,,,,
569683,001,2022-11-13_20h36.08.572,Info_measure_main_exp,2022.2.2,Win32,60.53635208,,,,,,,,,,,,,,,,,,,,,,,,,,,,,,7,0.6822,1,,,,,,,,,,,,0,131,5,5,2190,2082,absent_patch/patch0002190.jpg,absent_patch/patch0002082.jpg,,,,,,,,,,,,,,,,,,,,0.063333333,0.136666667,1,0,0,response1disk,26,-0.004444444,0.012222222,1,0,0,center_square,0,25,25,112,1,,,,,,,,,,,,,,,,,,,,,,,
569683,001,2022-11-13_20h36.08.572,Info_measure_main_exp,2022.2.2,Win32,60.53635208,,,,,,,,,,,,,,,,,,masks/mask_002.jpg,,,,,,,,,,,,,,,,,,,,,,,,,,,,,,,,,,,,,,,,,,,0,0,0,1,1,,,,,,,,,,,,,,,,,,,,,,,,,,,,,,,,,,,,,,,,,,,,,,
569683,001,2022-11-13_20h36.08.572,Info_measure_main_exp,2022.2.2,Win32,60.53635208,,,,,,,,,,,,,,,,,,masks/mask_004.jpg,,,,,,,,,,,,,,,,,,,,,,,,,,,,,,,,,,,,,,,,,,,0,1,1,3,1,,,,,,,,,,,,,,,,,,,,,,,,,,,,,,,,,,,,,,,,,,,,,,
569683,001,2022-11-13_20h36.08.572,Info_measure_main_exp,2022.2.2,Win32,60.53635208,,,,,,,,,,,,,,,,,,masks/mask_003.jpg,,,,,,,,,,,,,,,,,,,,,,,,,,,,,,,,,,,,,,,,,,,0,2,2,2,1,,,,,,,,,,,,,,,,,,,,,,,,,,,,,,,,,,,,,,,,,,,,,,
569683,001,2022-11-13_20h36.08.572,Info_measure_main_exp,2022.2.2,Win32,60.53635208,,,,,,,,,,,,,,,,,,masks/mask_005.jpg,,,,,,,,,,,,,,,,,,,,,,,,,,,,,,,,,,,,,,,,,,,0,3,3,4,1,,,,,,,,,,,,,,,,,,,,,,,,,,,,,,,,,,,,,,,,,,,,,,
569683,001,2022-11-13_20h36.08.572,Info_measure_main_exp,2022.2.2,Win32,60.53635208,,,,,,,,,,,,,,,,,,masks/mask_001.jpg,,,,,,,,,,,,,,,,,,,,,,,,,,,,,,,,,,,,,,,,,,,0,4,4,0,1,,,,,,,,,,,,,,,,,,,,,,,,,,,,,,,,,,,,,,,,,,,,,,
569683,001,2022-11-13_20h36.08.572,Info_measure_main_exp,2022.2.2,Win32,60.53635208,,,,,,,,,,,,,,,,,,masks/mask_004.jpg,,,,,,,,,,,,,,,,,,,,,,,,,,,,,,,,,,,,,,,,,,,,,,,,0,0,0,3,1,,,,,,,,,,,,,,,,,,,,,,,,,,,,,,,,,,,,,,,,,
569683,001,2022-11-13_20h36.08.572,Info_measure_main_exp,2022.2.2,Win32,60.53635208,,,,,,,,,,,,,,,,,,masks/mask_003.jpg,,,,,,,,,,,,,,,,,,,,,,,,,,,,,,,,,,,,,,,,,,,,,,,,0,1,1,2,1,,,,,,,,,,,,,,,,,,,,,,,,,,,,,,,,,,,,,,,,,
569683,001,2022-11-13_20h36.08.572,Info_measure_main_exp,2022.2.2,Win32,60.53635208,,,,,,,,,,,,,,,,,,masks/mask_005.jpg,,,,,,,,,,,,,,,,,,,,,,,,,,,,,,,,,,,,,,,,,,,,,,,,0,2,2,4,1,,,,,,,,,,,,,,,,,,,,,,,,,,,,,,,,,,,,,,,,,
569683,001,2022-11-13_20h36.08.572,Info_measure_main_exp,2022.2.2,Win32,60.53635208,,,,,,,,,,,,,,,,,,masks/mask_001.jpg,,,,,,,,,,,,,,,,,,,,,,,,,,,,,,,,,,,,,,,,,,,,,,,,0,3,3,0,1,,,,,,,,,,,,,,,,,,,,,,,,,,,,,,,,,,,,,,,,,
569683,001,2022-11-13_20h36.08.572,Info_measure_main_exp,2022.2.2,Win32,60.53635208,,,,,,,,,,,,,,,,,,masks/mask_002.jpg,,,,,,,,,,,,,,,,,,,,,,,,,,,,,,,,,,,,,,,,,,,,,,,,0,4,4,1,1,,,,,,,,,,,,,,,,,,,,,,,,,,,,,,,,,,,,,,,,,
569683,001,2022-11-13_20h36.08.572,Info_measure_main_exp,2022.2.2,Win32,60.53635208,,,,,,,,,,,,,,,,,,,,,,,,,,,,,,7,1.7567,1,,,,,,,,,,,,1,131,5,5,1,2154,present_patch/cong_131_5_a.jpg,absent_patch/patch0002154.jpg,,,,,,,,,,,,,,,,,,,,0.064444444,0.136666667,1,0,0,response1disk,27,-0.008888889,0.003333333,1,0,0,center_square,0,26,26,87,1,,,,,,,,,,,,,,,,,,,,,,,
569683,001,2022-11-13_20h36.08.572,Info_measure_main_exp,2022.2.2,Win32,60.53635208,,,,,,,,,,,,,,,,,,masks/mask_003.jpg,,,,,,,,,,,,,,,,,,,,,,,,,,,,,,,,,,,,,,,,,,,0,0,0,2,1,,,,,,,,,,,,,,,,,,,,,,,,,,,,,,,,,,,,,,,,,,,,,,
569683,001,2022-11-13_20h36.08.572,Info_measure_main_exp,2022.2.2,Win32,60.53635208,,,,,,,,,,,,,,,,,,masks/mask_001.jpg,,,,,,,,,,,,,,,,,,,,,,,,,,,,,,,,,,,,,,,,,,,0,1,1,0,1,,,,,,,,,,,,,,,,,,,,,,,,,,,,,,,,,,,,,,,,,,,,,,
569683,001,2022-11-13_20h36.08.572,Info_measure_main_exp,2022.2.2,Win32,60.53635208,,,,,,,,,,,,,,,,,,masks/mask_004.jpg,,,,,,,,,,,,,,,,,,,,,,,,,,,,,,,,,,,,,,,,,,,0,2,2,3,1,,,,,,,,,,,,,,,,,,,,,,,,,,,,,,,,,,,,,,,,,,,,,,
569683,001,2022-11-13_20h36.08.572,Info_measure_main_exp,2022.2.2,Win32,60.53635208,,,,,,,,,,,,,,,,,,masks/mask_005.jpg,,,,,,,,,,,,,,,,,,,,,,,,,,,,,,,,,,,,,,,,,,,0,3,3,4,1,,,,,,,,,,,,,,,,,,,,,,,,,,,,,,,,,,,,,,,,,,,,,,
569683,001,2022-11-13_20h36.08.572,Info_measure_main_exp,2022.2.2,Win32,60.53635208,,,,,,,,,,,,,,,,,,masks/mask_002.jpg,,,,,,,,,,,,,,,,,,,,,,,,,,,,,,,,,,,,,,,,,,,0,4,4,1,1,,,,,,,,,,,,,,,,,,,,,,,,,,,,,,,,,,,,,,,,,,,,,,
569683,001,2022-11-13_20h36.08.572,Info_measure_main_exp,2022.2.2,Win32,60.53635208,,,,,,,,,,,,,,,,,,masks/mask_004.jpg,,,,,,,,,,,,,,,,,,,,,,,,,,,,,,,,,,,,,,,,,,,,,,,,0,0,0,3,1,,,,,,,,,,,,,,,,,,,,,,,,,,,,,,,,,,,,,,,,,
569683,001,2022-11-13_20h36.08.572,Info_measure_main_exp,2022.2.2,Win32,60.53635208,,,,,,,,,,,,,,,,,,masks/mask_005.jpg,,,,,,,,,,,,,,,,,,,,,,,,,,,,,,,,,,,,,,,,,,,,,,,,0,1,1,4,1,,,,,,,,,,,,,,,,,,,,,,,,,,,,,,,,,,,,,,,,,
569683,001,2022-11-13_20h36.08.572,Info_measure_main_exp,2022.2.2,Win32,60.53635208,,,,,,,,,,,,,,,,,,masks/mask_002.jpg,,,,,,,,,,,,,,,,,,,,,,,,,,,,,,,,,,,,,,,,,,,,,,,,0,2,2,1,1,,,,,,,,,,,,,,,,,,,,,,,,,,,,,,,,,,,,,,,,,
569683,001,2022-11-13_20h36.08.572,Info_measure_main_exp,2022.2.2,Win32,60.53635208,,,,,,,,,,,,,,,,,,masks/mask_001.jpg,,,,,,,,,,,,,,,,,,,,,,,,,,,,,,,,,,,,,,,,,,,,,,,,0,3,3,0,1,,,,,,,,,,,,,,,,,,,,,,,,,,,,,,,,,,,,,,,,,
569683,001,2022-11-13_20h36.08.572,Info_measure_main_exp,2022.2.2,Win32,60.53635208,,,,,,,,,,,,,,,,,,masks/mask_003.jpg,,,,,,,,,,,,,,,,,,,,,,,,,,,,,,,,,,,,,,,,,,,,,,,,0,4,4,2,1,,,,,,,,,,,,,,,,,,,,,,,,,,,,,,,,,,,,,,,,,
569683,001,2022-11-13_20h36.08.572,Info_measure_main_exp,2022.2.2,Win32,60.53635208,,,,,,,,,,,,,,,,,,,,,,,,,,,,,,0,0.9061,1,,,,,,,,,,,,0,131,5,5,2142,2142,absent_patch/patch0002142.jpg,absent_patch/patch0002142.jpg,,,,,,,,,,,,,,,,,,,,-0.078888889,0.172222222,1,0,0,response7disk,28,0.001111111,-0.003333333,1,0,0,center_square,0,27,27,13,1,,,,,,,,,,,,,,,,,,,,,,,
569683,001,2022-11-13_20h36.08.572,Info_measure_main_exp,2022.2.2,Win32,60.53635208,,,,,,,,,,,,,,,,,,masks/mask_002.jpg,,,,,,,,,,,,,,,,,,,,,,,,,,,,,,,,,,,,,,,,,,,0,0,0,1,1,,,,,,,,,,,,,,,,,,,,,,,,,,,,,,,,,,,,,,,,,,,,,,
569683,001,2022-11-13_20h36.08.572,Info_measure_main_exp,2022.2.2,Win32,60.53635208,,,,,,,,,,,,,,,,,,masks/mask_003.jpg,,,,,,,,,,,,,,,,,,,,,,,,,,,,,,,,,,,,,,,,,,,0,1,1,2,1,,,,,,,,,,,,,,,,,,,,,,,,,,,,,,,,,,,,,,,,,,,,,,
569683,001,2022-11-13_20h36.08.572,Info_measure_main_exp,2022.2.2,Win32,60.53635208,,,,,,,,,,,,,,,,,,masks/mask_005.jpg,,,,,,,,,,,,,,,,,,,,,,,,,,,,,,,,,,,,,,,,,,,0,2,2,4,1,,,,,,,,,,,,,,,,,,,,,,,,,,,,,,,,,,,,,,,,,,,,,,
569683,001,2022-11-13_20h36.08.572,Info_measure_main_exp,2022.2.2,Win32,60.53635208,,,,,,,,,,,,,,,,,,masks/mask_001.jpg,,,,,,,,,,,,,,,,,,,,,,,,,,,,,,,,,,,,,,,,,,,0,3,3,0,1,,,,,,,,,,,,,,,,,,,,,,,,,,,,,,,,,,,,,,,,,,,,,,
569683,001,2022-11-13_20h36.08.572,Info_measure_main_exp,2022.2.2,Win32,60.53635208,,,,,,,,,,,,,,,,,,masks/mask_004.jpg,,,,,,,,,,,,,,,,,,,,,,,,,,,,,,,,,,,,,,,,,,,0,4,4,3,1,,,,,,,,,,,,,,,,,,,,,,,,,,,,,,,,,,,,,,,,,,,,,,
569683,001,2022-11-13_20h36.08.572,Info_measure_main_exp,2022.2.2,Win32,60.53635208,,,,,,,,,,,,,,,,,,masks/mask_004.jpg,,,,,,,,,,,,,,,,,,,,,,,,,,,,,,,,,,,,,,,,,,,,,,,,0,0,0,3,1,,,,,,,,,,,,,,,,,,,,,,,,,,,,,,,,,,,,,,,,,
569683,001,2022-11-13_20h36.08.572,Info_measure_main_exp,2022.2.2,Win32,60.53635208,,,,,,,,,,,,,,,,,,masks/mask_001.jpg,,,,,,,,,,,,,,,,,,,,,,,,,,,,,,,,,,,,,,,,,,,,,,,,0,1,1,0,1,,,,,,,,,,,,,,,,,,,,,,,,,,,,,,,,,,,,,,,,,
569683,001,2022-11-13_20h36.08.572,Info_measure_main_exp,2022.2.2,Win32,60.53635208,,,,,,,,,,,,,,,,,,masks/mask_002.jpg,,,,,,,,,,,,,,,,,,,,,,,,,,,,,,,,,,,,,,,,,,,,,,,,0,2,2,1,1,,,,,,,,,,,,,,,,,,,,,,,,,,,,,,,,,,,,,,,,,
569683,001,2022-11-13_20h36.08.572,Info_measure_main_exp,2022.2.2,Win32,60.53635208,,,,,,,,,,,,,,,,,,masks/mask_005.jpg,,,,,,,,,,,,,,,,,,,,,,,,,,,,,,,,,,,,,,,,,,,,,,,,0,3,3,4,1,,,,,,,,,,,,,,,,,,,,,,,,,,,,,,,,,,,,,,,,,
569683,001,2022-11-13_20h36.08.572,Info_measure_main_exp,2022.2.2,Win32,60.53635208,,,,,,,,,,,,,,,,,,masks/mask_003.jpg,,,,,,,,,,,,,,,,,,,,,,,,,,,,,,,,,,,,,,,,,,,,,,,,0,4,4,2,1,,,,,,,,,,,,,,,,,,,,,,,,,,,,,,,,,,,,,,,,,
569683,001,2022-11-13_20h36.08.572,Info_measure_main_exp,2022.2.2,Win32,60.53635208,,,,,,,,,,,,,,,,,,,,,,,,,,,,,,7,0.7394,1,,,,,,,,,,,,0,131,5,5,2274,1974,absent_patch/patch0002274.jpg,absent_patch/patch0001974.jpg,,,,,,,,,,,,,,,,,,,,0.085555556,0.191111111,1,0,0,response1disk,29,-0.004444444,0.001111111,1,0,0,center_square,0,28,28,90,1,,,,,,,,,,,,,,,,,,,,,,,
569683,001,2022-11-13_20h36.08.572,Info_measure_main_exp,2022.2.2,Win32,60.53635208,,,,,,,,,,,,,,,,,,masks/mask_004.jpg,,,,,,,,,,,,,,,,,,,,,,,,,,,,,,,,,,,,,,,,,,,0,0,0,3,1,,,,,,,,,,,,,,,,,,,,,,,,,,,,,,,,,,,,,,,,,,,,,,
569683,001,2022-11-13_20h36.08.572,Info_measure_main_exp,2022.2.2,Win32,60.53635208,,,,,,,,,,,,,,,,,,masks/mask_003.jpg,,,,,,,,,,,,,,,,,,,,,,,,,,,,,,,,,,,,,,,,,,,0,1,1,2,1,,,,,,,,,,,,,,,,,,,,,,,,,,,,,,,,,,,,,,,,,,,,,,
569683,001,2022-11-13_20h36.08.572,Info_measure_main_exp,2022.2.2,Win32,60.53635208,,,,,,,,,,,,,,,,,,masks/mask_002.jpg,,,,,,,,,,,,,,,,,,,,,,,,,,,,,,,,,,,,,,,,,,,0,2,2,1,1,,,,,,,,,,,,,,,,,,,,,,,,,,,,,,,,,,,,,,,,,,,,,,
569683,001,2022-11-13_20h36.08.572,Info_measure_main_exp,2022.2.2,Win32,60.53635208,,,,,,,,,,,,,,,,,,masks/mask_001.jpg,,,,,,,,,,,,,,,,,,,,,,,,,,,,,,,,,,,,,,,,,,,0,3,3,0,1,,,,,,,,,,,,,,,,,,,,,,,,,,,,,,,,,,,,,,,,,,,,,,
569683,001,2022-11-13_20h36.08.572,Info_measure_main_exp,2022.2.2,Win32,60.53635208,,,,,,,,,,,,,,,,,,masks/mask_005.jpg,,,,,,,,,,,,,,,,,,,,,,,,,,,,,,,,,,,,,,,,,,,0,4,4,4,1,,,,,,,,,,,,,,,,,,,,,,,,,,,,,,,,,,,,,,,,,,,,,,
569683,001,2022-11-13_20h36.08.572,Info_measure_main_exp,2022.2.2,Win32,60.53635208,,,,,,,,,,,,,,,,,,masks/mask_004.jpg,,,,,,,,,,,,,,,,,,,,,,,,,,,,,,,,,,,,,,,,,,,,,,,,0,0,0,3,1,,,,,,,,,,,,,,,,,,,,,,,,,,,,,,,,,,,,,,,,,
569683,001,2022-11-13_20h36.08.572,Info_measure_main_exp,2022.2.2,Win32,60.53635208,,,,,,,,,,,,,,,,,,masks/mask_003.jpg,,,,,,,,,,,,,,,,,,,,,,,,,,,,,,,,,,,,,,,,,,,,,,,,0,1,1,2,1,,,,,,,,,,,,,,,,,,,,,,,,,,,,,,,,,,,,,,,,,
569683,001,2022-11-13_20h36.08.572,Info_measure_main_exp,2022.2.2,Win32,60.53635208,,,,,,,,,,,,,,,,,,masks/mask_002.jpg,,,,,,,,,,,,,,,,,,,,,,,,,,,,,,,,,,,,,,,,,,,,,,,,0,2,2,1,1,,,,,,,,,,,,,,,,,,,,,,,,,,,,,,,,,,,,,,,,,
569683,001,2022-11-13_20h36.08.572,Info_measure_main_exp,2022.2.2,Win32,60.53635208,,,,,,,,,,,,,,,,,,masks/mask_005.jpg,,,,,,,,,,,,,,,,,,,,,,,,,,,,,,,,,,,,,,,,,,,,,,,,0,3,3,4,1,,,,,,,,,,,,,,,,,,,,,,,,,,,,,,,,,,,,,,,,,
569683,001,2022-11-13_20h36.08.572,Info_measure_main_exp,2022.2.2,Win32,60.53635208,,,,,,,,,,,,,,,,,,masks/mask_001.jpg,,,,,,,,,,,,,,,,,,,,,,,,,,,,,,,,,,,,,,,,,,,,,,,,0,4,4,0,1,,,,,,,,,,,,,,,,,,,,,,,,,,,,,,,,,,,,,,,,,
569683,001,2022-11-13_20h36.08.572,Info_measure_main_exp,2022.2.2,Win32,60.53635208,,,,,,,,,,,,,,,,,,,,,,,,,,,,,,5,1.1982,1,,,,,,,,,,,,0,131,5,5,2082,1974,absent_patch/patch0002082.jpg,absent_patch/patch0001974.jpg,,,,,,,,,,,,,,,,,,,,0.146666667,-0.068888889,1,0,0,response3disk,30,0.004444444,0.003333333,1,0,0,center_square,0,29,29,26,1,,,,,,,,,,,,,,,,,,,,,,,
569683,001,2022-11-13_20h36.08.572,Info_measure_main_exp,2022.2.2,Win32,60.53635208,,,,,,,,,,,,,,,,,,masks/mask_001.jpg,,,,,,,,,,,,,,,,,,,,,,,,,,,,,,,,,,,,,,,,,,,0,0,0,0,1,,,,,,,,,,,,,,,,,,,,,,,,,,,,,,,,,,,,,,,,,,,,,,
569683,001,2022-11-13_20h36.08.572,Info_measure_main_exp,2022.2.2,Win32,60.53635208,,,,,,,,,,,,,,,,,,masks/mask_003.jpg,,,,,,,,,,,,,,,,,,,,,,,,,,,,,,,,,,,,,,,,,,,0,1,1,2,1,,,,,,,,,,,,,,,,,,,,,,,,,,,,,,,,,,,,,,,,,,,,,,
569683,001,2022-11-13_20h36.08.572,Info_measure_main_exp,2022.2.2,Win32,60.53635208,,,,,,,,,,,,,,,,,,masks/mask_002.jpg,,,,,,,,,,,,,,,,,,,,,,,,,,,,,,,,,,,,,,,,,,,0,2,2,1,1,,,,,,,,,,,,,,,,,,,,,,,,,,,,,,,,,,,,,,,,,,,,,,
569683,001,2022-11-13_20h36.08.572,Info_measure_main_exp,2022.2.2,Win32,60.53635208,,,,,,,,,,,,,,,,,,masks/mask_005.jpg,,,,,,,,,,,,,,,,,,,,,,,,,,,,,,,,,,,,,,,,,,,0,3,3,4,1,,,,,,,,,,,,,,,,,,,,,,,,,,,,,,,,,,,,,,,,,,,,,,
569683,001,2022-11-13_20h36.08.572,Info_measure_main_exp,2022.2.2,Win32,60.53635208,,,,,,,,,,,,,,,,,,masks/mask_004.jpg,,,,,,,,,,,,,,,,,,,,,,,,,,,,,,,,,,,,,,,,,,,0,4,4,3,1,,,,,,,,,,,,,,,,,,,,,,,,,,,,,,,,,,,,,,,,,,,,,,
569683,001,2022-11-13_20h36.08.572,Info_measure_main_exp,2022.2.2,Win32,60.53635208,,,,,,,,,,,,,,,,,,masks/mask_002.jpg,,,,,,,,,,,,,,,,,,,,,,,,,,,,,,,,,,,,,,,,,,,,,,,,0,0,0,1,1,,,,,,,,,,,,,,,,,,,,,,,,,,,,,,,,,,,,,,,,,
569683,001,2022-11-13_20h36.08.572,Info_measure_main_exp,2022.2.2,Win32,60.53635208,,,,,,,,,,,,,,,,,,masks/mask_003.jpg,,,,,,,,,,,,,,,,,,,,,,,,,,,,,,,,,,,,,,,,,,,,,,,,0,1,1,2,1,,,,,,,,,,,,,,,,,,,,,,,,,,,,,,,,,,,,,,,,,
569683,001,2022-11-13_20h36.08.572,Info_measure_main_exp,2022.2.2,Win32,60.53635208,,,,,,,,,,,,,,,,,,masks/mask_001.jpg,,,,,,,,,,,,,,,,,,,,,,,,,,,,,,,,,,,,,,,,,,,,,,,,0,2,2,0,1,,,,,,,,,,,,,,,,,,,,,,,,,,,,,,,,,,,,,,,,,
569683,001,2022-11-13_20h36.08.572,Info_measure_main_exp,2022.2.2,Win32,60.53635208,,,,,,,,,,,,,,,,,,masks/mask_004.jpg,,,,,,,,,,,,,,,,,,,,,,,,,,,,,,,,,,,,,,,,,,,,,,,,0,3,3,3,1,,,,,,,,,,,,,,,,,,,,,,,,,,,,,,,,,,,,,,,,,
569683,001,2022-11-13_20h36.08.572,Info_measure_main_exp,2022.2.2,Win32,60.53635208,,,,,,,,,,,,,,,,,,masks/mask_005.jpg,,,,,,,,,,,,,,,,,,,,,,,,,,,,,,,,,,,,,,,,,,,,,,,,0,4,4,4,1,,,,,,,,,,,,,,,,,,,,,,,,,,,,,,,,,,,,,,,,,
569683,001,2022-11-13_20h36.08.572,Info_measure_main_exp,2022.2.2,Win32,60.53635208,,,,,,,,,,,,,,,,,,,,,,,,,,,,,,7,1.2483,1,,,,,,,,,,,,0,131,5,5,2154,2190,absent_patch/patch0002154.jpg,absent_patch/patch0002190.jpg,,,,,,,,,,,,,,,,,,,,0.06,0.181111111,1,0,0,response1disk,31,0.01,0.004444444,1,0,0,center_square,0,30,30,68,1,,,,,,,,,,,,,,,,,,,,,,,
569683,001,2022-11-13_20h36.08.572,Info_measure_main_exp,2022.2.2,Win32,60.53635208,,,,,,,,,,,,,,,,,,masks/mask_001.jpg,,,,,,,,,,,,,,,,,,,,,,,,,,,,,,,,,,,,,,,,,,,0,0,0,0,1,,,,,,,,,,,,,,,,,,,,,,,,,,,,,,,,,,,,,,,,,,,,,,
569683,001,2022-11-13_20h36.08.572,Info_measure_main_exp,2022.2.2,Win32,60.53635208,,,,,,,,,,,,,,,,,,masks/mask_002.jpg,,,,,,,,,,,,,,,,,,,,,,,,,,,,,,,,,,,,,,,,,,,0,1,1,1,1,,,,,,,,,,,,,,,,,,,,,,,,,,,,,,,,,,,,,,,,,,,,,,
569683,001,2022-11-13_20h36.08.572,Info_measure_main_exp,2022.2.2,Win32,60.53635208,,,,,,,,,,,,,,,,,,masks/mask_005.jpg,,,,,,,,,,,,,,,,,,,,,,,,,,,,,,,,,,,,,,,,,,,0,2,2,4,1,,,,,,,,,,,,,,,,,,,,,,,,,,,,,,,,,,,,,,,,,,,,,,
569683,001,2022-11-13_20h36.08.572,Info_measure_main_exp,2022.2.2,Win32,60.53635208,,,,,,,,,,,,,,,,,,masks/mask_003.jpg,,,,,,,,,,,,,,,,,,,,,,,,,,,,,,,,,,,,,,,,,,,0,3,3,2,1,,,,,,,,,,,,,,,,,,,,,,,,,,,,,,,,,,,,,,,,,,,,,,
569683,001,2022-11-13_20h36.08.572,Info_measure_main_exp,2022.2.2,Win32,60.53635208,,,,,,,,,,,,,,,,,,masks/mask_004.jpg,,,,,,,,,,,,,,,,,,,,,,,,,,,,,,,,,,,,,,,,,,,0,4,4,3,1,,,,,,,,,,,,,,,,,,,,,,,,,,,,,,,,,,,,,,,,,,,,,,
569683,001,2022-11-13_20h36.08.572,Info_measure_main_exp,2022.2.2,Win32,60.53635208,,,,,,,,,,,,,,,,,,masks/mask_003.jpg,,,,,,,,,,,,,,,,,,,,,,,,,,,,,,,,,,,,,,,,,,,,,,,,0,0,0,2,1,,,,,,,,,,,,,,,,,,,,,,,,,,,,,,,,,,,,,,,,,
569683,001,2022-11-13_20h36.08.572,Info_measure_main_exp,2022.2.2,Win32,60.53635208,,,,,,,,,,,,,,,,,,masks/mask_002.jpg,,,,,,,,,,,,,,,,,,,,,,,,,,,,,,,,,,,,,,,,,,,,,,,,0,1,1,1,1,,,,,,,,,,,,,,,,,,,,,,,,,,,,,,,,,,,,,,,,,
569683,001,2022-11-13_20h36.08.572,Info_measure_main_exp,2022.2.2,Win32,60.53635208,,,,,,,,,,,,,,,,,,masks/mask_001.jpg,,,,,,,,,,,,,,,,,,,,,,,,,,,,,,,,,,,,,,,,,,,,,,,,0,2,2,0,1,,,,,,,,,,,,,,,,,,,,,,,,,,,,,,,,,,,,,,,,,
569683,001,2022-11-13_20h36.08.572,Info_measure_main_exp,2022.2.2,Win32,60.53635208,,,,,,,,,,,,,,,,,,masks/mask_004.jpg,,,,,,,,,,,,,,,,,,,,,,,,,,,,,,,,,,,,,,,,,,,,,,,,0,3,3,3,1,,,,,,,,,,,,,,,,,,,,,,,,,,,,,,,,,,,,,,,,,
569683,001,2022-11-13_20h36.08.572,Info_measure_main_exp,2022.2.2,Win32,60.53635208,,,,,,,,,,,,,,,,,,masks/mask_005.jpg,,,,,,,,,,,,,,,,,,,,,,,,,,,,,,,,,,,,,,,,,,,,,,,,0,4,4,4,1,,,,,,,,,,,,,,,,,,,,,,,,,,,,,,,,,,,,,,,,,
569683,001,2022-11-13_20h36.08.572,Info_measure_main_exp,2022.2.2,Win32,60.53635208,,,,,,,,,,,,,,,,,,,,,,,,,,,,,,1,1.5841,1,,,,,,,,,,,,0,131,5,5,1950,1950,absent_patch/patch0001950.jpg,absent_patch/patch0001950.jpg,,,,,,,,,,,,,,,,,,,,-0.184444444,0.05,1,0,0,response7disk,32,-0.005555556,-0.003333333,1,0,0,center_square,0,31,31,92,1,,,,,,,,,,,,,,,,,,,,,,,
569683,001,2022-11-13_20h36.08.572,Info_measure_main_exp,2022.2.2,Win32,60.53635208,,,,,,,,,,,,,,,,,,masks/mask_001.jpg,,,,,,,,,,,,,,,,,,,,,,,,,,,,,,,,,,,,,,,,,,,0,0,0,0,1,,,,,,,,,,,,,,,,,,,,,,,,,,,,,,,,,,,,,,,,,,,,,,
569683,001,2022-11-13_20h36.08.572,Info_measure_main_exp,2022.2.2,Win32,60.53635208,,,,,,,,,,,,,,,,,,masks/mask_005.jpg,,,,,,,,,,,,,,,,,,,,,,,,,,,,,,,,,,,,,,,,,,,0,1,1,4,1,,,,,,,,,,,,,,,,,,,,,,,,,,,,,,,,,,,,,,,,,,,,,,
569683,001,2022-11-13_20h36.08.572,Info_measure_main_exp,2022.2.2,Win32,60.53635208,,,,,,,,,,,,,,,,,,masks/mask_003.jpg,,,,,,,,,,,,,,,,,,,,,,,,,,,,,,,,,,,,,,,,,,,0,2,2,2,1,,,,,,,,,,,,,,,,,,,,,,,,,,,,,,,,,,,,,,,,,,,,,,
569683,001,2022-11-13_20h36.08.572,Info_measure_main_exp,2022.2.2,Win32,60.53635208,,,,,,,,,,,,,,,,,,masks/mask_004.jpg,,,,,,,,,,,,,,,,,,,,,,,,,,,,,,,,,,,,,,,,,,,0,3,3,3,1,,,,,,,,,,,,,,,,,,,,,,,,,,,,,,,,,,,,,,,,,,,,,,
569683,001,2022-11-13_20h36.08.572,Info_measure_main_exp,2022.2.2,Win32,60.53635208,,,,,,,,,,,,,,,,,,masks/mask_002.jpg,,,,,,,,,,,,,,,,,,,,,,,,,,,,,,,,,,,,,,,,,,,0,4,4,1,1,,,,,,,,,,,,,,,,,,,,,,,,,,,,,,,,,,,,,,,,,,,,,,
569683,001,2022-11-13_20h36.08.572,Info_measure_main_exp,2022.2.2,Win32,60.53635208,,,,,,,,,,,,,,,,,,masks/mask_004.jpg,,,,,,,,,,,,,,,,,,,,,,,,,,,,,,,,,,,,,,,,,,,,,,,,0,0,0,3,1,,,,,,,,,,,,,,,,,,,,,,,,,,,,,,,,,,,,,,,,,
569683,001,2022-11-13_20h36.08.572,Info_measure_main_exp,2022.2.2,Win32,60.53635208,,,,,,,,,,,,,,,,,,masks/mask_001.jpg,,,,,,,,,,,,,,,,,,,,,,,,,,,,,,,,,,,,,,,,,,,,,,,,0,1,1,0,1,,,,,,,,,,,,,,,,,,,,,,,,,,,,,,,,,,,,,,,,,
569683,001,2022-11-13_20h36.08.572,Info_measure_main_exp,2022.2.2,Win32,60.53635208,,,,,,,,,,,,,,,,,,masks/mask_005.jpg,,,,,,,,,,,,,,,,,,,,,,,,,,,,,,,,,,,,,,,,,,,,,,,,0,2,2,4,1,,,,,,,,,,,,,,,,,,,,,,,,,,,,,,,,,,,,,,,,,
569683,001,2022-11-13_20h36.08.572,Info_measure_main_exp,2022.2.2,Win32,60.53635208,,,,,,,,,,,,,,,,,,masks/mask_003.jpg,,,,,,,,,,,,,,,,,,,,,,,,,,,,,,,,,,,,,,,,,,,,,,,,0,3,3,2,1,,,,,,,,,,,,,,,,,,,,,,,,,,,,,,,,,,,,,,,,,
569683,001,2022-11-13_20h36.08.572,Info_measure_main_exp,2022.2.2,Win32,60.53635208,,,,,,,,,,,,,,,,,,masks/mask_002.jpg,,,,,,,,,,,,,,,,,,,,,,,,,,,,,,,,,,,,,,,,,,,,,,,,0,4,4,1,1,,,,,,,,,,,,,,,,,,,,,,,,,,,,,,,,,,,,,,,,,
569683,001,2022-11-13_20h36.08.572,Info_measure_main_exp,2022.2.2,Win32,60.53635208,,,,,,,,,,,,,,,,,,,,,,,,,,,,,,7,0.715,1,,,,,,,,,,,,0,131,5,5,2190,1986,absent_patch/patch0002190.jpg,absent_patch/patch0001986.jpg,,,,,,,,,,,,,,,,,,,,0.094444444,0.186666667,1,0,0,response1disk,33,0.012222222,0.013333333,1,0,0,center_square,0,32,32,111,1,,,,,,,,,,,,,,,,,,,,,,,
569683,001,2022-11-13_20h36.08.572,Info_measure_main_exp,2022.2.2,Win32,60.53635208,,,,,,,,,,,,,,,,,,masks/mask_001.jpg,,,,,,,,,,,,,,,,,,,,,,,,,,,,,,,,,,,,,,,,,,,0,0,0,0,1,,,,,,,,,,,,,,,,,,,,,,,,,,,,,,,,,,,,,,,,,,,,,,
569683,001,2022-11-13_20h36.08.572,Info_measure_main_exp,2022.2.2,Win32,60.53635208,,,,,,,,,,,,,,,,,,masks/mask_002.jpg,,,,,,,,,,,,,,,,,,,,,,,,,,,,,,,,,,,,,,,,,,,0,1,1,1,1,,,,,,,,,,,,,,,,,,,,,,,,,,,,,,,,,,,,,,,,,,,,,,
569683,001,2022-11-13_20h36.08.572,Info_measure_main_exp,2022.2.2,Win32,60.53635208,,,,,,,,,,,,,,,,,,masks/mask_005.jpg,,,,,,,,,,,,,,,,,,,,,,,,,,,,,,,,,,,,,,,,,,,0,2,2,4,1,,,,,,,,,,,,,,,,,,,,,,,,,,,,,,,,,,,,,,,,,,,,,,
569683,001,2022-11-13_20h36.08.572,Info_measure_main_exp,2022.2.2,Win32,60.53635208,,,,,,,,,,,,,,,,,,masks/mask_003.jpg,,,,,,,,,,,,,,,,,,,,,,,,,,,,,,,,,,,,,,,,,,,0,3,3,2,1,,,,,,,,,,,,,,,,,,,,,,,,,,,,,,,,,,,,,,,,,,,,,,
569683,001,2022-11-13_20h36.08.572,Info_measure_main_exp,2022.2.2,Win32,60.53635208,,,,,,,,,,,,,,,,,,masks/mask_004.jpg,,,,,,,,,,,,,,,,,,,,,,,,,,,,,,,,,,,,,,,,,,,0,4,4,3,1,,,,,,,,,,,,,,,,,,,,,,,,,,,,,,,,,,,,,,,,,,,,,,
569683,001,2022-11-13_20h36.08.572,Info_measure_main_exp,2022.2.2,Win32,60.53635208,,,,,,,,,,,,,,,,,,masks/mask_005.jpg,,,,,,,,,,,,,,,,,,,,,,,,,,,,,,,,,,,,,,,,,,,,,,,,0,0,0,4,1,,,,,,,,,,,,,,,,,,,,,,,,,,,,,,,,,,,,,,,,,
569683,001,2022-11-13_20h36.08.572,Info_measure_main_exp,2022.2.2,Win32,60.53635208,,,,,,,,,,,,,,,,,,masks/mask_004.jpg,,,,,,,,,,,,,,,,,,,,,,,,,,,,,,,,,,,,,,,,,,,,,,,,0,1,1,3,1,,,,,,,,,,,,,,,,,,,,,,,,,,,,,,,,,,,,,,,,,
569683,001,2022-11-13_20h36.08.572,Info_measure_main_exp,2022.2.2,Win32,60.53635208,,,,,,,,,,,,,,,,,,masks/mask_002.jpg,,,,,,,,,,,,,,,,,,,,,,,,,,,,,,,,,,,,,,,,,,,,,,,,0,2,2,1,1,,,,,,,,,,,,,,,,,,,,,,,,,,,,,,,,,,,,,,,,,
569683,001,2022-11-13_20h36.08.572,Info_measure_main_exp,2022.2.2,Win32,60.53635208,,,,,,,,,,,,,,,,,,masks/mask_003.jpg,,,,,,,,,,,,,,,,,,,,,,,,,,,,,,,,,,,,,,,,,,,,,,,,0,3,3,2,1,,,,,,,,,,,,,,,,,,,,,,,,,,,,,,,,,,,,,,,,,
569683,001,2022-11-13_20h36.08.572,Info_measure_main_exp,2022.2.2,Win32,60.53635208,,,,,,,,,,,,,,,,,,masks/mask_001.jpg,,,,,,,,,,,,,,,,,,,,,,,,,,,,,,,,,,,,,,,,,,,,,,,,0,4,4,0,1,,,,,,,,,,,,,,,,,,,,,,,,,,,,,,,,,,,,,,,,,
569683,001,2022-11-13_20h36.08.572,Info_measure_main_exp,2022.2.2,Win32,60.53635208,,,,,,,,,,,,,,,,,,,,,,,,,,,,,,0,1.0638,1,,,,,,,,,,,,0,131,5,5,2298,2298,absent_patch/patch0002298.jpg,absent_patch/patch0002298.jpg,,,,,,,,,,,,,,,,,,,,-0.083333333,0.158888889,1,0,0,response7disk,34,-0.002222222,-0.007777778,1,0,0,center_square,0,33,33,37,1,,,,,,,,,,,,,,,,,,,,,,,
569683,001,2022-11-13_20h36.08.572,Info_measure_main_exp,2022.2.2,Win32,60.53635208,,,,,,,,,,,,,,,,,,masks/mask_002.jpg,,,,,,,,,,,,,,,,,,,,,,,,,,,,,,,,,,,,,,,,,,,0,0,0,1,1,,,,,,,,,,,,,,,,,,,,,,,,,,,,,,,,,,,,,,,,,,,,,,
569683,001,2022-11-13_20h36.08.572,Info_measure_main_exp,2022.2.2,Win32,60.53635208,,,,,,,,,,,,,,,,,,masks/mask_004.jpg,,,,,,,,,,,,,,,,,,,,,,,,,,,,,,,,,,,,,,,,,,,0,1,1,3,1,,,,,,,,,,,,,,,,,,,,,,,,,,,,,,,,,,,,,,,,,,,,,,
569683,001,2022-11-13_20h36.08.572,Info_measure_main_exp,2022.2.2,Win32,60.53635208,,,,,,,,,,,,,,,,,,masks/mask_003.jpg,,,,,,,,,,,,,,,,,,,,,,,,,,,,,,,,,,,,,,,,,,,0,2,2,2,1,,,,,,,,,,,,,,,,,,,,,,,,,,,,,,,,,,,,,,,,,,,,,,
569683,001,2022-11-13_20h36.08.572,Info_measure_main_exp,2022.2.2,Win32,60.53635208,,,,,,,,,,,,,,,,,,masks/mask_001.jpg,,,,,,,,,,,,,,,,,,,,,,,,,,,,,,,,,,,,,,,,,,,0,3,3,0,1,,,,,,,,,,,,,,,,,,,,,,,,,,,,,,,,,,,,,,,,,,,,,,
569683,001,2022-11-13_20h36.08.572,Info_measure_main_exp,2022.2.2,Win32,60.53635208,,,,,,,,,,,,,,,,,,masks/mask_005.jpg,,,,,,,,,,,,,,,,,,,,,,,,,,,,,,,,,,,,,,,,,,,0,4,4,4,1,,,,,,,,,,,,,,,,,,,,,,,,,,,,,,,,,,,,,,,,,,,,,,
569683,001,2022-11-13_20h36.08.572,Info_measure_main_exp,2022.2.2,Win32,60.53635208,,,,,,,,,,,,,,,,,,masks/mask_003.jpg,,,,,,,,,,,,,,,,,,,,,,,,,,,,,,,,,,,,,,,,,,,,,,,,0,0,0,2,1,,,,,,,,,,,,,,,,,,,,,,,,,,,,,,,,,,,,,,,,,
569683,001,2022-11-13_20h36.08.572,Info_measure_main_exp,2022.2.2,Win32,60.53635208,,,,,,,,,,,,,,,,,,masks/mask_005.jpg,,,,,,,,,,,,,,,,,,,,,,,,,,,,,,,,,,,,,,,,,,,,,,,,0,1,1,4,1,,,,,,,,,,,,,,,,,,,,,,,,,,,,,,,,,,,,,,,,,
569683,001,2022-11-13_20h36.08.572,Info_measure_main_exp,2022.2.2,Win32,60.53635208,,,,,,,,,,,,,,,,,,masks/mask_002.jpg,,,,,,,,,,,,,,,,,,,,,,,,,,,,,,,,,,,,,,,,,,,,,,,,0,2,2,1,1,,,,,,,,,,,,,,,,,,,,,,,,,,,,,,,,,,,,,,,,,
569683,001,2022-11-13_20h36.08.572,Info_measure_main_exp,2022.2.2,Win32,60.53635208,,,,,,,,,,,,,,,,,,masks/mask_004.jpg,,,,,,,,,,,,,,,,,,,,,,,,,,,,,,,,,,,,,,,,,,,,,,,,0,3,3,3,1,,,,,,,,,,,,,,,,,,,,,,,,,,,,,,,,,,,,,,,,,
