participant,session,date,expName,psychopyVersion,OS,frameRate,space_press_continue.keys,space_press_continue.rt,space_press_continue_2.keys,space_press_continue_2.rt,space_press_continue_3.keys,space_press_continue_3.rt,space_press_continue_4.keys,space_press_continue_4.rt,space_press_continue_5.keys,space_press_continue_5.rt,space_press_continue_6.keys,space_press_continue_6.rt,prac_mask_loop_1.thisRepN,prac_mask_loop_1.thisTrialN,prac_mask_loop_1.thisN,prac_mask_loop_1.thisIndex,prac_mask_loop_1.ran,mask_name,prac_mask_loop_2.thisRepN,prac_mask_loop_2.thisTrialN,prac_mask_loop_2.thisN,prac_mask_loop_2.thisIndex,prac_mask_loop_2.ran,mouse_2.x,mouse_2.y,mouse_2.leftButton,mouse_2.midButton,mouse_2.rightButton,mouse_2.clicked_name,similarity,response_time,Pass,mouse_12.x,mouse_12.y,mouse_12.leftButton,mouse_12.midButton,mouse_12.rightButton,mouse_12.clicked_name,prac_loop.thisRepN,prac_loop.thisTrialN,prac_loop.thisN,prac_loop.thisIndex,prac_loop.ran,Pair_type,Image_num,Patch_1_loc,Patch_2_loc,Patch_1_info,Patch_2_info,Patch_1_name,Patch_2_name,mouse_1.x,mouse_1.y,mouse_1.leftButton,mouse_1.midButton,mouse_1.rightButton,mouse_1.time,mouse_1.clicked_name,space_press_continue_7.keys,space_press_continue_7.rt,mask_loop.thisRepN,mask_loop.thisTrialN,mask_loop.thisN,mask_loop.thisIndex,mask_loop.ran,mask_loop_2.thisRepN,mask_loop_2.thisTrialN,mask_loop_2.thisN,mask_loop_2.thisIndex,mask_loop_2.ran,mouse.x,mouse.y,mouse.leftButton,mouse.midButton,mouse.rightButton,mouse.clicked_name,trialNumber,mouse_11.x,mouse_11.y,mouse_11.leftButton,mouse_11.midButton,mouse_11.rightButton,mouse_11.clicked_name,first_pass_loop.thisRepN,first_pass_loop.thisTrialN,first_pass_loop.thisN,first_pass_loop.thisIndex,first_pass_loop.ran,mask_loop_3.thisRepN,mask_loop_3.thisTrialN,mask_loop_3.thisN,mask_loop_3.thisIndex,mask_loop_3.ran,mask_loop_4.thisRepN,mask_loop_4.thisTrialN,mask_loop_4.thisN,mask_loop_4.thisIndex,mask_loop_4.ran,mouse_3.x,mouse_3.y,mouse_3.leftButton,mouse_3.midButton,mouse_3.rightButton,mouse_3.clicked_name,double_pass_loop.thisRepN,double_pass_loop.thisTrialN,double_pass_loop.thisN,double_pass_loop.thisIndex,double_pass_loop.ran,space_exit.keys,space_exit.rt
576318,001,2022-11-21_24h56.25.540,Info_measure_main_exp,2022.2.2,Win32,144.1129846,,,,,,,,,,,,,,,,,,,,,,,,,,,,,,,,,,,,,,,,,,,,,,,,,,,,,,,,,,,,,,,,,,,,,,,,,,,,,,,,,,,,,,,,,,,,,,,,,,,,,,,,,,,,,,,
576318,001,2022-11-21_24h56.25.540,Info_measure_main_exp,2022.2.2,Win32,144.1129846,,,,,,,,,,,,,,,,,,,,,,,,,,,,,,,,,,,,,,,,,,,,,,,,,,,,,,,,,,,,,,,,,,,,,,,,,,,,,,,,,,,,,,,,,,,,,,,,,,,,,,,,,,,,,,,
576318,001,2022-11-21_24h56.25.540,Info_measure_main_exp,2022.2.2,Win32,144.1129846,space,5.9674,,,,,,,,,,,,,,,,,,,,,,,,,,,,,,,,,,,,,,,,,,,,,,,,,,,,,,,,,,,,,,,,,,,,,,,,,,,,,,,,,,,,,,,,,,,,,,,,,,,,,,,,,,,,,
576318,001,2022-11-21_24h56.25.540,Info_measure_main_exp,2022.2.2,Win32,144.1129846,,,space,59.5089,,,,,,,,,,,,,,,,,,,,,,,,,,,,,,,,,,,,,,,,,,,,,,,,,,,,,,,,,,,,,,,,,,,,,,,,,,,,,,,,,,,,,,,,,,,,,,,,,,,,,,,,,,,
576318,001,2022-11-21_24h56.25.540,Info_measure_main_exp,2022.2.2,Win32,144.1129846,,,,,space,6.6786,,,,,,,,,,,,,,,,,,,,,,,,,,,,,,,,,,,,,,,,,,,,,,,,,,,,,,,,,,,,,,,,,,,,,,,,,,,,,,,,,,,,,,,,,,,,,,,,,,,,,,,,,
576318,001,2022-11-21_24h56.25.540,Info_measure_main_exp,2022.2.2,Win32,144.1129846,,,,,,,space,37.3962,,,,,,,,,,,,,,,,,,,,,,,,,,,,,,,,,,,,,,,,,,,,,,,,,,,,,,,,,,,,,,,,,,,,,,,,,,,,,,,,,,,,,,,,,,,,,,,,,,,,,,,
576318,001,2022-11-21_24h56.25.540,Info_measure_main_exp,2022.2.2,Win32,144.1129846,,,,,,,,,space,8.3384,,,,,,,,,,,,,,,,,,,,,,,,,,,,,,,,,,,,,,,,,,,,,,,,,,,,,,,,,,,,,,,,,,,,,,,,,,,,,,,,,,,,,,,,,,,,,,,,,,,,,
576318,001,2022-11-21_24h56.25.540,Info_measure_main_exp,2022.2.2,Win32,144.1129846,,,,,,,,,,,space,4.3987,,,,,,,,,,,,,,,,,,,,,,,,,,,,,,,,,,,,,,,,,,,,,,,,,,,,,,,,,,,,,,,,,,,,,,,,,,,,,,,,,,,,,,,,,,,,,,,,,,,
576318,001,2022-11-21_24h56.25.540,Info_measure_main_exp,2022.2.2,Win32,144.1129846,,,,,,,,,,,,,0,0,0,3,1,masks/mask_004.jpg,,,,,,,,,,,,,,,,,,,,,,,,,,,,,,,,,,,,,,,,,,,,,,,,,,,,,,,,,,,,,,,,,,,,,,,,,,,,,,,,,,,,,,,,,,,,,
576318,001,2022-11-21_24h56.25.540,Info_measure_main_exp,2022.2.2,Win32,144.1129846,,,,,,,,,,,,,0,1,1,1,1,masks/mask_002.jpg,,,,,,,,,,,,,,,,,,,,,,,,,,,,,,,,,,,,,,,,,,,,,,,,,,,,,,,,,,,,,,,,,,,,,,,,,,,,,,,,,,,,,,,,,,,,,
576318,001,2022-11-21_24h56.25.540,Info_measure_main_exp,2022.2.2,Win32,144.1129846,,,,,,,,,,,,,0,2,2,0,1,masks/mask_001.jpg,,,,,,,,,,,,,,,,,,,,,,,,,,,,,,,,,,,,,,,,,,,,,,,,,,,,,,,,,,,,,,,,,,,,,,,,,,,,,,,,,,,,,,,,,,,,,
576318,001,2022-11-21_24h56.25.540,Info_measure_main_exp,2022.2.2,Win32,144.1129846,,,,,,,,,,,,,0,3,3,2,1,masks/mask_003.jpg,,,,,,,,,,,,,,,,,,,,,,,,,,,,,,,,,,,,,,,,,,,,,,,,,,,,,,,,,,,,,,,,,,,,,,,,,,,,,,,,,,,,,,,,,,,,,
576318,001,2022-11-21_24h56.25.540,Info_measure_main_exp,2022.2.2,Win32,144.1129846,,,,,,,,,,,,,0,4,4,4,1,masks/mask_005.jpg,,,,,,,,,,,,,,,,,,,,,,,,,,,,,,,,,,,,,,,,,,,,,,,,,,,,,,,,,,,,,,,,,,,,,,,,,,,,,,,,,,,,,,,,,,,,,
576318,001,2022-11-21_24h56.25.540,Info_measure_main_exp,2022.2.2,Win32,144.1129846,,,,,,,,,,,,,,,,,,masks/mask_004.jpg,0,0,0,3,1,,,,,,,,,,,,,,,,,,,,,,,,,,,,,,,,,,,,,,,,,,,,,,,,,,,,,,,,,,,,,,,,,,,,,,,,,,,,,,,,,,,,,,,,
576318,001,2022-11-21_24h56.25.540,Info_measure_main_exp,2022.2.2,Win32,144.1129846,,,,,,,,,,,,,,,,,,masks/mask_002.jpg,0,1,1,1,1,,,,,,,,,,,,,,,,,,,,,,,,,,,,,,,,,,,,,,,,,,,,,,,,,,,,,,,,,,,,,,,,,,,,,,,,,,,,,,,,,,,,,,,,
576318,001,2022-11-21_24h56.25.540,Info_measure_main_exp,2022.2.2,Win32,144.1129846,,,,,,,,,,,,,,,,,,masks/mask_003.jpg,0,2,2,2,1,,,,,,,,,,,,,,,,,,,,,,,,,,,,,,,,,,,,,,,,,,,,,,,,,,,,,,,,,,,,,,,,,,,,,,,,,,,,,,,,,,,,,,,,
576318,001,2022-11-21_24h56.25.540,Info_measure_main_exp,2022.2.2,Win32,144.1129846,,,,,,,,,,,,,,,,,,masks/mask_005.jpg,0,3,3,4,1,,,,,,,,,,,,,,,,,,,,,,,,,,,,,,,,,,,,,,,,,,,,,,,,,,,,,,,,,,,,,,,,,,,,,,,,,,,,,,,,,,,,,,,,
576318,001,2022-11-21_24h56.25.540,Info_measure_main_exp,2022.2.2,Win32,144.1129846,,,,,,,,,,,,,,,,,,masks/mask_001.jpg,0,4,4,0,1,,,,,,,,,,,,,,,,,,,,,,,,,,,,,,,,,,,,,,,,,,,,,,,,,,,,,,,,,,,,,,,,,,,,,,,,,,,,,,,,,,,,,,,,
576318,001,2022-11-21_24h56.25.540,Info_measure_main_exp,2022.2.2,Win32,144.1129846,,,,,,,,,,,,,,,,,,,,,,,,-0.041666667,0.132407407,1,0,0,response7disk,0,130.4454,1,-0.000925926,0.002777778,1,0,0,center_square,0,0,0,1,1,0,131,5,5,2514,2490,prac_patch/patch0002514.jpg,prac_patch/patch0002490.jpg,,,,,,,,,,,,,,,,,,,,,,,,,,,,,,,,,,,,,,,,,,,,,,,,,,,,,,,,,,,,
576318,001,2022-11-21_24h56.25.540,Info_measure_main_exp,2022.2.2,Win32,144.1129846,,,,,,,,,,,,,0,0,0,2,1,masks/mask_003.jpg,,,,,,,,,,,,,,,,,,,,,,,,,,,,,,,,,,,,,,,,,,,,,,,,,,,,,,,,,,,,,,,,,,,,,,,,,,,,,,,,,,,,,,,,,,,,,
576318,001,2022-11-21_24h56.25.540,Info_measure_main_exp,2022.2.2,Win32,144.1129846,,,,,,,,,,,,,0,1,1,4,1,masks/mask_005.jpg,,,,,,,,,,,,,,,,,,,,,,,,,,,,,,,,,,,,,,,,,,,,,,,,,,,,,,,,,,,,,,,,,,,,,,,,,,,,,,,,,,,,,,,,,,,,,
576318,001,2022-11-21_24h56.25.540,Info_measure_main_exp,2022.2.2,Win32,144.1129846,,,,,,,,,,,,,0,2,2,0,1,masks/mask_001.jpg,,,,,,,,,,,,,,,,,,,,,,,,,,,,,,,,,,,,,,,,,,,,,,,,,,,,,,,,,,,,,,,,,,,,,,,,,,,,,,,,,,,,,,,,,,,,,
576318,001,2022-11-21_24h56.25.540,Info_measure_main_exp,2022.2.2,Win32,144.1129846,,,,,,,,,,,,,0,3,3,3,1,masks/mask_004.jpg,,,,,,,,,,,,,,,,,,,,,,,,,,,,,,,,,,,,,,,,,,,,,,,,,,,,,,,,,,,,,,,,,,,,,,,,,,,,,,,,,,,,,,,,,,,,,
576318,001,2022-11-21_24h56.25.540,Info_measure_main_exp,2022.2.2,Win32,144.1129846,,,,,,,,,,,,,0,4,4,1,1,masks/mask_002.jpg,,,,,,,,,,,,,,,,,,,,,,,,,,,,,,,,,,,,,,,,,,,,,,,,,,,,,,,,,,,,,,,,,,,,,,,,,,,,,,,,,,,,,,,,,,,,,
576318,001,2022-11-21_24h56.25.540,Info_measure_main_exp,2022.2.2,Win32,144.1129846,,,,,,,,,,,,,,,,,,masks/mask_003.jpg,0,0,0,2,1,,,,,,,,,,,,,,,,,,,,,,,,,,,,,,,,,,,,,,,,,,,,,,,,,,,,,,,,,,,,,,,,,,,,,,,,,,,,,,,,,,,,,,,,
576318,001,2022-11-21_24h56.25.540,Info_measure_main_exp,2022.2.2,Win32,144.1129846,,,,,,,,,,,,,,,,,,masks/mask_004.jpg,0,1,1,3,1,,,,,,,,,,,,,,,,,,,,,,,,,,,,,,,,,,,,,,,,,,,,,,,,,,,,,,,,,,,,,,,,,,,,,,,,,,,,,,,,,,,,,,,,
576318,001,2022-11-21_24h56.25.540,Info_measure_main_exp,2022.2.2,Win32,144.1129846,,,,,,,,,,,,,,,,,,masks/mask_005.jpg,0,2,2,4,1,,,,,,,,,,,,,,,,,,,,,,,,,,,,,,,,,,,,,,,,,,,,,,,,,,,,,,,,,,,,,,,,,,,,,,,,,,,,,,,,,,,,,,,,
576318,001,2022-11-21_24h56.25.540,Info_measure_main_exp,2022.2.2,Win32,144.1129846,,,,,,,,,,,,,,,,,,masks/mask_002.jpg,0,3,3,1,1,,,,,,,,,,,,,,,,,,,,,,,,,,,,,,,,,,,,,,,,,,,,,,,,,,,,,,,,,,,,,,,,,,,,,,,,,,,,,,,,,,,,,,,,
576318,001,2022-11-21_24h56.25.540,Info_measure_main_exp,2022.2.2,Win32,144.1129846,,,,,,,,,,,,,,,,,,masks/mask_001.jpg,0,4,4,0,1,,,,,,,,,,,,,,,,,,,,,,,,,,,,,,,,,,,,,,,,,,,,,,,,,,,,,,,,,,,,,,,,,,,,,,,,,,,,,,,,,,,,,,,,
576318,001,2022-11-21_24h56.25.540,Info_measure_main_exp,2022.2.2,Win32,144.1129846,,,,,,,,,,,,,,,,,,,,,,,,0.14537037,-0.055555556,1,0,0,response3disk,5,144.1908,1,0.00462963,-0.00462963,1,0,0,center_square,0,1,1,0,1,0,131,5,5,2370,2406,prac_patch/patch0002370.jpg,prac_patch/patch0002406.jpg,,,,,,,,,,,,,,,,,,,,,,,,,,,,,,,,,,,,,,,,,,,,,,,,,,,,,,,,,,,,
576318,001,2022-11-21_24h56.25.540,Info_measure_main_exp,2022.2.2,Win32,144.1129846,,,,,,,,,,,,,0,0,0,2,1,masks/mask_003.jpg,,,,,,,,,,,,,,,,,,,,,,,,,,,,,,,,,,,,,,,,,,,,,,,,,,,,,,,,,,,,,,,,,,,,,,,,,,,,,,,,,,,,,,,,,,,,,
576318,001,2022-11-21_24h56.25.540,Info_measure_main_exp,2022.2.2,Win32,144.1129846,,,,,,,,,,,,,0,1,1,4,1,masks/mask_005.jpg,,,,,,,,,,,,,,,,,,,,,,,,,,,,,,,,,,,,,,,,,,,,,,,,,,,,,,,,,,,,,,,,,,,,,,,,,,,,,,,,,,,,,,,,,,,,,
576318,001,2022-11-21_24h56.25.540,Info_measure_main_exp,2022.2.2,Win32,144.1129846,,,,,,,,,,,,,0,2,2,1,1,masks/mask_002.jpg,,,,,,,,,,,,,,,,,,,,,,,,,,,,,,,,,,,,,,,,,,,,,,,,,,,,,,,,,,,,,,,,,,,,,,,,,,,,,,,,,,,,,,,,,,,,,
576318,001,2022-11-21_24h56.25.540,Info_measure_main_exp,2022.2.2,Win32,144.1129846,,,,,,,,,,,,,0,3,3,3,1,masks/mask_004.jpg,,,,,,,,,,,,,,,,,,,,,,,,,,,,,,,,,,,,,,,,,,,,,,,,,,,,,,,,,,,,,,,,,,,,,,,,,,,,,,,,,,,,,,,,,,,,,
576318,001,2022-11-21_24h56.25.540,Info_measure_main_exp,2022.2.2,Win32,144.1129846,,,,,,,,,,,,,0,4,4,0,1,masks/mask_001.jpg,,,,,,,,,,,,,,,,,,,,,,,,,,,,,,,,,,,,,,,,,,,,,,,,,,,,,,,,,,,,,,,,,,,,,,,,,,,,,,,,,,,,,,,,,,,,,
576318,001,2022-11-21_24h56.25.540,Info_measure_main_exp,2022.2.2,Win32,144.1129846,,,,,,,,,,,,,,,,,,masks/mask_002.jpg,0,0,0,1,1,,,,,,,,,,,,,,,,,,,,,,,,,,,,,,,,,,,,,,,,,,,,,,,,,,,,,,,,,,,,,,,,,,,,,,,,,,,,,,,,,,,,,,,,
576318,001,2022-11-21_24h56.25.540,Info_measure_main_exp,2022.2.2,Win32,144.1129846,,,,,,,,,,,,,,,,,,masks/mask_004.jpg,0,1,1,3,1,,,,,,,,,,,,,,,,,,,,,,,,,,,,,,,,,,,,,,,,,,,,,,,,,,,,,,,,,,,,,,,,,,,,,,,,,,,,,,,,,,,,,,,,
576318,001,2022-11-21_24h56.25.540,Info_measure_main_exp,2022.2.2,Win32,144.1129846,,,,,,,,,,,,,,,,,,masks/mask_005.jpg,0,2,2,4,1,,,,,,,,,,,,,,,,,,,,,,,,,,,,,,,,,,,,,,,,,,,,,,,,,,,,,,,,,,,,,,,,,,,,,,,,,,,,,,,,,,,,,,,,
576318,001,2022-11-21_24h56.25.540,Info_measure_main_exp,2022.2.2,Win32,144.1129846,,,,,,,,,,,,,,,,,,masks/mask_001.jpg,0,3,3,0,1,,,,,,,,,,,,,,,,,,,,,,,,,,,,,,,,,,,,,,,,,,,,,,,,,,,,,,,,,,,,,,,,,,,,,,,,,,,,,,,,,,,,,,,,
576318,001,2022-11-21_24h56.25.540,Info_measure_main_exp,2022.2.2,Win32,144.1129846,,,,,,,,,,,,,,,,,,masks/mask_003.jpg,0,4,4,2,1,,,,,,,,,,,,,,,,,,,,,,,,,,,,,,,,,,,,,,,,,,,,,,,,,,,,,,,,,,,,,,,,,,,,,,,,,,,,,,,,,,,,,,,,
576318,001,2022-11-21_24h56.25.540,Info_measure_main_exp,2022.2.2,Win32,144.1129846,,,,,,,,,,,,,,,,,,,,,,,,-0.037037037,0.12962963,1,0,0,response7disk,0,159.2264,1,0.000925926,-0.005555556,1,0,0,center_square,0,2,2,2,1,0,131,5,5,2526,2526,prac_patch/patch0002526.jpg,prac_patch/patch0002526.jpg,,,,,,,,,,,,,,,,,,,,,,,,,,,,,,,,,,,,,,,,,,,,,,,,,,,,,,,,,,,,
576318,001,2022-11-21_24h56.25.540,Info_measure_main_exp,2022.2.2,Win32,144.1129846,,,,,,,,,,,,,,,,,,,,,,,,,,,,,,,,,,,,,,,,,,,,,,,,,,,,,,,,,,,space,1.8177,,,,,,,,,,,,,,,,,,,,,,,,,,,,,,,,,,,,,,,,,,,,,,,,,,,
576318,001,2022-11-21_24h56.25.540,Info_measure_main_exp,2022.2.2,Win32,144.1129846,,,,,,,,,,,,,,,,,,masks/mask_005.jpg,,,,,,,,,,,,,,,,,,,,,,,,,,,,,,,,,,,,,,,,,,,0,0,0,4,1,,,,,,,,,,,,,,,,,,,,,,,,,,,,,,,,,,,,,,,,,,,,,,
576318,001,2022-11-21_24h56.25.540,Info_measure_main_exp,2022.2.2,Win32,144.1129846,,,,,,,,,,,,,,,,,,masks/mask_004.jpg,,,,,,,,,,,,,,,,,,,,,,,,,,,,,,,,,,,,,,,,,,,0,1,1,3,1,,,,,,,,,,,,,,,,,,,,,,,,,,,,,,,,,,,,,,,,,,,,,,
576318,001,2022-11-21_24h56.25.540,Info_measure_main_exp,2022.2.2,Win32,144.1129846,,,,,,,,,,,,,,,,,,masks/mask_002.jpg,,,,,,,,,,,,,,,,,,,,,,,,,,,,,,,,,,,,,,,,,,,0,2,2,1,1,,,,,,,,,,,,,,,,,,,,,,,,,,,,,,,,,,,,,,,,,,,,,,
576318,001,2022-11-21_24h56.25.540,Info_measure_main_exp,2022.2.2,Win32,144.1129846,,,,,,,,,,,,,,,,,,masks/mask_001.jpg,,,,,,,,,,,,,,,,,,,,,,,,,,,,,,,,,,,,,,,,,,,0,3,3,0,1,,,,,,,,,,,,,,,,,,,,,,,,,,,,,,,,,,,,,,,,,,,,,,
576318,001,2022-11-21_24h56.25.540,Info_measure_main_exp,2022.2.2,Win32,144.1129846,,,,,,,,,,,,,,,,,,masks/mask_003.jpg,,,,,,,,,,,,,,,,,,,,,,,,,,,,,,,,,,,,,,,,,,,0,4,4,2,1,,,,,,,,,,,,,,,,,,,,,,,,,,,,,,,,,,,,,,,,,,,,,,
576318,001,2022-11-21_24h56.25.540,Info_measure_main_exp,2022.2.2,Win32,144.1129846,,,,,,,,,,,,,,,,,,masks/mask_002.jpg,,,,,,,,,,,,,,,,,,,,,,,,,,,,,,,,,,,,,,,,,,,,,,,,0,0,0,1,1,,,,,,,,,,,,,,,,,,,,,,,,,,,,,,,,,,,,,,,,,
576318,001,2022-11-21_24h56.25.540,Info_measure_main_exp,2022.2.2,Win32,144.1129846,,,,,,,,,,,,,,,,,,masks/mask_003.jpg,,,,,,,,,,,,,,,,,,,,,,,,,,,,,,,,,,,,,,,,,,,,,,,,0,1,1,2,1,,,,,,,,,,,,,,,,,,,,,,,,,,,,,,,,,,,,,,,,,
576318,001,2022-11-21_24h56.25.540,Info_measure_main_exp,2022.2.2,Win32,144.1129846,,,,,,,,,,,,,,,,,,masks/mask_001.jpg,,,,,,,,,,,,,,,,,,,,,,,,,,,,,,,,,,,,,,,,,,,,,,,,0,2,2,0,1,,,,,,,,,,,,,,,,,,,,,,,,,,,,,,,,,,,,,,,,,
576318,001,2022-11-21_24h56.25.540,Info_measure_main_exp,2022.2.2,Win32,144.1129846,,,,,,,,,,,,,,,,,,masks/mask_004.jpg,,,,,,,,,,,,,,,,,,,,,,,,,,,,,,,,,,,,,,,,,,,,,,,,0,3,3,3,1,,,,,,,,,,,,,,,,,,,,,,,,,,,,,,,,,,,,,,,,,
576318,001,2022-11-21_24h56.25.540,Info_measure_main_exp,2022.2.2,Win32,144.1129846,,,,,,,,,,,,,,,,,,masks/mask_005.jpg,,,,,,,,,,,,,,,,,,,,,,,,,,,,,,,,,,,,,,,,,,,,,,,,0,4,4,4,1,,,,,,,,,,,,,,,,,,,,,,,,,,,,,,,,,,,,,,,,,
576318,001,2022-11-21_24h56.25.540,Info_measure_main_exp,2022.2.2,Win32,144.1129846,,,,,,,,,,,,,,,,,,,,,,,,,,,,,,7,1.146,1,,,,,,,,,,,,0,131,5,5,2274,2178,absent_patch/patch0002274.jpg,absent_patch/patch0002178.jpg,,,,,,,,,,,,,,,,,,,,0.031481481,0.146296296,1,0,0,response1disk,1,-0.000925926,0.002777778,1,0,0,center_square,0,0,0,117,1,,,,,,,,,,,,,,,,,,,,,,,
576318,001,2022-11-21_24h56.25.540,Info_measure_main_exp,2022.2.2,Win32,144.1129846,,,,,,,,,,,,,,,,,,masks/mask_005.jpg,,,,,,,,,,,,,,,,,,,,,,,,,,,,,,,,,,,,,,,,,,,0,0,0,4,1,,,,,,,,,,,,,,,,,,,,,,,,,,,,,,,,,,,,,,,,,,,,,,
576318,001,2022-11-21_24h56.25.540,Info_measure_main_exp,2022.2.2,Win32,144.1129846,,,,,,,,,,,,,,,,,,masks/mask_004.jpg,,,,,,,,,,,,,,,,,,,,,,,,,,,,,,,,,,,,,,,,,,,0,1,1,3,1,,,,,,,,,,,,,,,,,,,,,,,,,,,,,,,,,,,,,,,,,,,,,,
576318,001,2022-11-21_24h56.25.540,Info_measure_main_exp,2022.2.2,Win32,144.1129846,,,,,,,,,,,,,,,,,,masks/mask_003.jpg,,,,,,,,,,,,,,,,,,,,,,,,,,,,,,,,,,,,,,,,,,,0,2,2,2,1,,,,,,,,,,,,,,,,,,,,,,,,,,,,,,,,,,,,,,,,,,,,,,
576318,001,2022-11-21_24h56.25.540,Info_measure_main_exp,2022.2.2,Win32,144.1129846,,,,,,,,,,,,,,,,,,masks/mask_001.jpg,,,,,,,,,,,,,,,,,,,,,,,,,,,,,,,,,,,,,,,,,,,0,3,3,0,1,,,,,,,,,,,,,,,,,,,,,,,,,,,,,,,,,,,,,,,,,,,,,,
576318,001,2022-11-21_24h56.25.540,Info_measure_main_exp,2022.2.2,Win32,144.1129846,,,,,,,,,,,,,,,,,,masks/mask_002.jpg,,,,,,,,,,,,,,,,,,,,,,,,,,,,,,,,,,,,,,,,,,,0,4,4,1,1,,,,,,,,,,,,,,,,,,,,,,,,,,,,,,,,,,,,,,,,,,,,,,
576318,001,2022-11-21_24h56.25.540,Info_measure_main_exp,2022.2.2,Win32,144.1129846,,,,,,,,,,,,,,,,,,masks/mask_002.jpg,,,,,,,,,,,,,,,,,,,,,,,,,,,,,,,,,,,,,,,,,,,,,,,,0,0,0,1,1,,,,,,,,,,,,,,,,,,,,,,,,,,,,,,,,,,,,,,,,,
576318,001,2022-11-21_24h56.25.540,Info_measure_main_exp,2022.2.2,Win32,144.1129846,,,,,,,,,,,,,,,,,,masks/mask_003.jpg,,,,,,,,,,,,,,,,,,,,,,,,,,,,,,,,,,,,,,,,,,,,,,,,0,1,1,2,1,,,,,,,,,,,,,,,,,,,,,,,,,,,,,,,,,,,,,,,,,
576318,001,2022-11-21_24h56.25.540,Info_measure_main_exp,2022.2.2,Win32,144.1129846,,,,,,,,,,,,,,,,,,masks/mask_001.jpg,,,,,,,,,,,,,,,,,,,,,,,,,,,,,,,,,,,,,,,,,,,,,,,,0,2,2,0,1,,,,,,,,,,,,,,,,,,,,,,,,,,,,,,,,,,,,,,,,,
576318,001,2022-11-21_24h56.25.540,Info_measure_main_exp,2022.2.2,Win32,144.1129846,,,,,,,,,,,,,,,,,,masks/mask_004.jpg,,,,,,,,,,,,,,,,,,,,,,,,,,,,,,,,,,,,,,,,,,,,,,,,0,3,3,3,1,,,,,,,,,,,,,,,,,,,,,,,,,,,,,,,,,,,,,,,,,
576318,001,2022-11-21_24h56.25.540,Info_measure_main_exp,2022.2.2,Win32,144.1129846,,,,,,,,,,,,,,,,,,masks/mask_005.jpg,,,,,,,,,,,,,,,,,,,,,,,,,,,,,,,,,,,,,,,,,,,,,,,,0,4,4,4,1,,,,,,,,,,,,,,,,,,,,,,,,,,,,,,,,,,,,,,,,,
576318,001,2022-11-21_24h56.25.540,Info_measure_main_exp,2022.2.2,Win32,144.1129846,,,,,,,,,,,,,,,,,,,,,,,,,,,,,,0,0.9375,1,,,,,,,,,,,,0,131,5,5,2298,2298,absent_patch/patch0002298.jpg,absent_patch/patch0002298.jpg,,,,,,,,,,,,,,,,,,,,-0.043518519,0.118518519,1,0,0,response7disk,2,0.012037037,-0.00462963,1,0,0,center_square,0,1,1,37,1,,,,,,,,,,,,,,,,,,,,,,,
576318,001,2022-11-21_24h56.25.540,Info_measure_main_exp,2022.2.2,Win32,144.1129846,,,,,,,,,,,,,,,,,,masks/mask_003.jpg,,,,,,,,,,,,,,,,,,,,,,,,,,,,,,,,,,,,,,,,,,,0,0,0,2,1,,,,,,,,,,,,,,,,,,,,,,,,,,,,,,,,,,,,,,,,,,,,,,
576318,001,2022-11-21_24h56.25.540,Info_measure_main_exp,2022.2.2,Win32,144.1129846,,,,,,,,,,,,,,,,,,masks/mask_002.jpg,,,,,,,,,,,,,,,,,,,,,,,,,,,,,,,,,,,,,,,,,,,0,1,1,1,1,,,,,,,,,,,,,,,,,,,,,,,,,,,,,,,,,,,,,,,,,,,,,,
576318,001,2022-11-21_24h56.25.540,Info_measure_main_exp,2022.2.2,Win32,144.1129846,,,,,,,,,,,,,,,,,,masks/mask_004.jpg,,,,,,,,,,,,,,,,,,,,,,,,,,,,,,,,,,,,,,,,,,,0,2,2,3,1,,,,,,,,,,,,,,,,,,,,,,,,,,,,,,,,,,,,,,,,,,,,,,
576318,001,2022-11-21_24h56.25.540,Info_measure_main_exp,2022.2.2,Win32,144.1129846,,,,,,,,,,,,,,,,,,masks/mask_001.jpg,,,,,,,,,,,,,,,,,,,,,,,,,,,,,,,,,,,,,,,,,,,0,3,3,0,1,,,,,,,,,,,,,,,,,,,,,,,,,,,,,,,,,,,,,,,,,,,,,,
576318,001,2022-11-21_24h56.25.540,Info_measure_main_exp,2022.2.2,Win32,144.1129846,,,,,,,,,,,,,,,,,,masks/mask_005.jpg,,,,,,,,,,,,,,,,,,,,,,,,,,,,,,,,,,,,,,,,,,,0,4,4,4,1,,,,,,,,,,,,,,,,,,,,,,,,,,,,,,,,,,,,,,,,,,,,,,
576318,001,2022-11-21_24h56.25.540,Info_measure_main_exp,2022.2.2,Win32,144.1129846,,,,,,,,,,,,,,,,,,masks/mask_002.jpg,,,,,,,,,,,,,,,,,,,,,,,,,,,,,,,,,,,,,,,,,,,,,,,,0,0,0,1,1,,,,,,,,,,,,,,,,,,,,,,,,,,,,,,,,,,,,,,,,,
576318,001,2022-11-21_24h56.25.540,Info_measure_main_exp,2022.2.2,Win32,144.1129846,,,,,,,,,,,,,,,,,,masks/mask_005.jpg,,,,,,,,,,,,,,,,,,,,,,,,,,,,,,,,,,,,,,,,,,,,,,,,0,1,1,4,1,,,,,,,,,,,,,,,,,,,,,,,,,,,,,,,,,,,,,,,,,
576318,001,2022-11-21_24h56.25.540,Info_measure_main_exp,2022.2.2,Win32,144.1129846,,,,,,,,,,,,,,,,,,masks/mask_001.jpg,,,,,,,,,,,,,,,,,,,,,,,,,,,,,,,,,,,,,,,,,,,,,,,,0,2,2,0,1,,,,,,,,,,,,,,,,,,,,,,,,,,,,,,,,,,,,,,,,,
576318,001,2022-11-21_24h56.25.540,Info_measure_main_exp,2022.2.2,Win32,144.1129846,,,,,,,,,,,,,,,,,,masks/mask_003.jpg,,,,,,,,,,,,,,,,,,,,,,,,,,,,,,,,,,,,,,,,,,,,,,,,0,3,3,2,1,,,,,,,,,,,,,,,,,,,,,,,,,,,,,,,,,,,,,,,,,
576318,001,2022-11-21_24h56.25.540,Info_measure_main_exp,2022.2.2,Win32,144.1129846,,,,,,,,,,,,,,,,,,masks/mask_004.jpg,,,,,,,,,,,,,,,,,,,,,,,,,,,,,,,,,,,,,,,,,,,,,,,,0,4,4,3,1,,,,,,,,,,,,,,,,,,,,,,,,,,,,,,,,,,,,,,,,,
576318,001,2022-11-21_24h56.25.540,Info_measure_main_exp,2022.2.2,Win32,144.1129846,,,,,,,,,,,,,,,,,,,,,,,,,,,,,,7,0.7501,1,,,,,,,,,,,,1,131,5,5,1,2214,present_patch/cong_131_5_a.jpg,absent_patch/patch0002214.jpg,,,,,,,,,,,,,,,,,,,,0.065740741,0.119444444,1,0,0,response1disk,3,-0.009259259,0.00462963,1,0,0,center_square,0,2,2,4,1,,,,,,,,,,,,,,,,,,,,,,,
576318,001,2022-11-21_24h56.25.540,Info_measure_main_exp,2022.2.2,Win32,144.1129846,,,,,,,,,,,,,,,,,,masks/mask_004.jpg,,,,,,,,,,,,,,,,,,,,,,,,,,,,,,,,,,,,,,,,,,,0,0,0,3,1,,,,,,,,,,,,,,,,,,,,,,,,,,,,,,,,,,,,,,,,,,,,,,
576318,001,2022-11-21_24h56.25.540,Info_measure_main_exp,2022.2.2,Win32,144.1129846,,,,,,,,,,,,,,,,,,masks/mask_005.jpg,,,,,,,,,,,,,,,,,,,,,,,,,,,,,,,,,,,,,,,,,,,0,1,1,4,1,,,,,,,,,,,,,,,,,,,,,,,,,,,,,,,,,,,,,,,,,,,,,,
576318,001,2022-11-21_24h56.25.540,Info_measure_main_exp,2022.2.2,Win32,144.1129846,,,,,,,,,,,,,,,,,,masks/mask_001.jpg,,,,,,,,,,,,,,,,,,,,,,,,,,,,,,,,,,,,,,,,,,,0,2,2,0,1,,,,,,,,,,,,,,,,,,,,,,,,,,,,,,,,,,,,,,,,,,,,,,
576318,001,2022-11-21_24h56.25.540,Info_measure_main_exp,2022.2.2,Win32,144.1129846,,,,,,,,,,,,,,,,,,masks/mask_003.jpg,,,,,,,,,,,,,,,,,,,,,,,,,,,,,,,,,,,,,,,,,,,0,3,3,2,1,,,,,,,,,,,,,,,,,,,,,,,,,,,,,,,,,,,,,,,,,,,,,,
576318,001,2022-11-21_24h56.25.540,Info_measure_main_exp,2022.2.2,Win32,144.1129846,,,,,,,,,,,,,,,,,,masks/mask_002.jpg,,,,,,,,,,,,,,,,,,,,,,,,,,,,,,,,,,,,,,,,,,,0,4,4,1,1,,,,,,,,,,,,,,,,,,,,,,,,,,,,,,,,,,,,,,,,,,,,,,
576318,001,2022-11-21_24h56.25.540,Info_measure_main_exp,2022.2.2,Win32,144.1129846,,,,,,,,,,,,,,,,,,masks/mask_002.jpg,,,,,,,,,,,,,,,,,,,,,,,,,,,,,,,,,,,,,,,,,,,,,,,,0,0,0,1,1,,,,,,,,,,,,,,,,,,,,,,,,,,,,,,,,,,,,,,,,,
576318,001,2022-11-21_24h56.25.540,Info_measure_main_exp,2022.2.2,Win32,144.1129846,,,,,,,,,,,,,,,,,,masks/mask_003.jpg,,,,,,,,,,,,,,,,,,,,,,,,,,,,,,,,,,,,,,,,,,,,,,,,0,1,1,2,1,,,,,,,,,,,,,,,,,,,,,,,,,,,,,,,,,,,,,,,,,
576318,001,2022-11-21_24h56.25.540,Info_measure_main_exp,2022.2.2,Win32,144.1129846,,,,,,,,,,,,,,,,,,masks/mask_001.jpg,,,,,,,,,,,,,,,,,,,,,,,,,,,,,,,,,,,,,,,,,,,,,,,,0,2,2,0,1,,,,,,,,,,,,,,,,,,,,,,,,,,,,,,,,,,,,,,,,,
576318,001,2022-11-21_24h56.25.540,Info_measure_main_exp,2022.2.2,Win32,144.1129846,,,,,,,,,,,,,,,,,,masks/mask_004.jpg,,,,,,,,,,,,,,,,,,,,,,,,,,,,,,,,,,,,,,,,,,,,,,,,0,3,3,3,1,,,,,,,,,,,,,,,,,,,,,,,,,,,,,,,,,,,,,,,,,
576318,001,2022-11-21_24h56.25.540,Info_measure_main_exp,2022.2.2,Win32,144.1129846,,,,,,,,,,,,,,,,,,masks/mask_005.jpg,,,,,,,,,,,,,,,,,,,,,,,,,,,,,,,,,,,,,,,,,,,,,,,,0,4,4,4,1,,,,,,,,,,,,,,,,,,,,,,,,,,,,,,,,,,,,,,,,,
576318,001,2022-11-21_24h56.25.540,Info_measure_main_exp,2022.2.2,Win32,144.1129846,,,,,,,,,,,,,,,,,,,,,,,,,,,,,,3,1.653,1,,,,,,,,,,,,0,131,5,5,1974,2250,absent_patch/patch0001974.jpg,absent_patch/patch0002250.jpg,,,,,,,,,,,,,,,,,,,,-0.026851852,-0.131481481,1,0,0,response5disk,4,0.00462963,-0.000925926,1,0,0,center_square,0,3,3,55,1,,,,,,,,,,,,,,,,,,,,,,,
576318,001,2022-11-21_24h56.25.540,Info_measure_main_exp,2022.2.2,Win32,144.1129846,,,,,,,,,,,,,,,,,,masks/mask_001.jpg,,,,,,,,,,,,,,,,,,,,,,,,,,,,,,,,,,,,,,,,,,,0,0,0,0,1,,,,,,,,,,,,,,,,,,,,,,,,,,,,,,,,,,,,,,,,,,,,,,
576318,001,2022-11-21_24h56.25.540,Info_measure_main_exp,2022.2.2,Win32,144.1129846,,,,,,,,,,,,,,,,,,masks/mask_002.jpg,,,,,,,,,,,,,,,,,,,,,,,,,,,,,,,,,,,,,,,,,,,0,1,1,1,1,,,,,,,,,,,,,,,,,,,,,,,,,,,,,,,,,,,,,,,,,,,,,,
576318,001,2022-11-21_24h56.25.540,Info_measure_main_exp,2022.2.2,Win32,144.1129846,,,,,,,,,,,,,,,,,,masks/mask_004.jpg,,,,,,,,,,,,,,,,,,,,,,,,,,,,,,,,,,,,,,,,,,,0,2,2,3,1,,,,,,,,,,,,,,,,,,,,,,,,,,,,,,,,,,,,,,,,,,,,,,
576318,001,2022-11-21_24h56.25.540,Info_measure_main_exp,2022.2.2,Win32,144.1129846,,,,,,,,,,,,,,,,,,masks/mask_003.jpg,,,,,,,,,,,,,,,,,,,,,,,,,,,,,,,,,,,,,,,,,,,0,3,3,2,1,,,,,,,,,,,,,,,,,,,,,,,,,,,,,,,,,,,,,,,,,,,,,,
576318,001,2022-11-21_24h56.25.540,Info_measure_main_exp,2022.2.2,Win32,144.1129846,,,,,,,,,,,,,,,,,,masks/mask_005.jpg,,,,,,,,,,,,,,,,,,,,,,,,,,,,,,,,,,,,,,,,,,,0,4,4,4,1,,,,,,,,,,,,,,,,,,,,,,,,,,,,,,,,,,,,,,,,,,,,,,
576318,001,2022-11-21_24h56.25.540,Info_measure_main_exp,2022.2.2,Win32,144.1129846,,,,,,,,,,,,,,,,,,masks/mask_001.jpg,,,,,,,,,,,,,,,,,,,,,,,,,,,,,,,,,,,,,,,,,,,,,,,,0,0,0,0,1,,,,,,,,,,,,,,,,,,,,,,,,,,,,,,,,,,,,,,,,,
576318,001,2022-11-21_24h56.25.540,Info_measure_main_exp,2022.2.2,Win32,144.1129846,,,,,,,,,,,,,,,,,,masks/mask_004.jpg,,,,,,,,,,,,,,,,,,,,,,,,,,,,,,,,,,,,,,,,,,,,,,,,0,1,1,3,1,,,,,,,,,,,,,,,,,,,,,,,,,,,,,,,,,,,,,,,,,
576318,001,2022-11-21_24h56.25.540,Info_measure_main_exp,2022.2.2,Win32,144.1129846,,,,,,,,,,,,,,,,,,masks/mask_005.jpg,,,,,,,,,,,,,,,,,,,,,,,,,,,,,,,,,,,,,,,,,,,,,,,,0,2,2,4,1,,,,,,,,,,,,,,,,,,,,,,,,,,,,,,,,,,,,,,,,,
576318,001,2022-11-21_24h56.25.540,Info_measure_main_exp,2022.2.2,Win32,144.1129846,,,,,,,,,,,,,,,,,,masks/mask_002.jpg,,,,,,,,,,,,,,,,,,,,,,,,,,,,,,,,,,,,,,,,,,,,,,,,0,3,3,1,1,,,,,,,,,,,,,,,,,,,,,,,,,,,,,,,,,,,,,,,,,
576318,001,2022-11-21_24h56.25.540,Info_measure_main_exp,2022.2.2,Win32,144.1129846,,,,,,,,,,,,,,,,,,masks/mask_003.jpg,,,,,,,,,,,,,,,,,,,,,,,,,,,,,,,,,,,,,,,,,,,,,,,,0,4,4,2,1,,,,,,,,,,,,,,,,,,,,,,,,,,,,,,,,,,,,,,,,,
576318,001,2022-11-21_24h56.25.540,Info_measure_main_exp,2022.2.2,Win32,144.1129846,,,,,,,,,,,,,,,,,,,,,,,,,,,,,,5,1.1812,1,,,,,,,,,,,,0,131,5,5,2142,2190,absent_patch/patch0002142.jpg,absent_patch/patch0002190.jpg,,,,,,,,,,,,,,,,,,,,0.091666667,-0.032407407,1,0,0,response3disk,5,-0.003703704,-0.014814815,1,0,0,center_square,0,4,4,70,1,,,,,,,,,,,,,,,,,,,,,,,
576318,001,2022-11-21_24h56.25.540,Info_measure_main_exp,2022.2.2,Win32,144.1129846,,,,,,,,,,,,,,,,,,masks/mask_001.jpg,,,,,,,,,,,,,,,,,,,,,,,,,,,,,,,,,,,,,,,,,,,0,0,0,0,1,,,,,,,,,,,,,,,,,,,,,,,,,,,,,,,,,,,,,,,,,,,,,,
576318,001,2022-11-21_24h56.25.540,Info_measure_main_exp,2022.2.2,Win32,144.1129846,,,,,,,,,,,,,,,,,,masks/mask_003.jpg,,,,,,,,,,,,,,,,,,,,,,,,,,,,,,,,,,,,,,,,,,,0,1,1,2,1,,,,,,,,,,,,,,,,,,,,,,,,,,,,,,,,,,,,,,,,,,,,,,
576318,001,2022-11-21_24h56.25.540,Info_measure_main_exp,2022.2.2,Win32,144.1129846,,,,,,,,,,,,,,,,,,masks/mask_002.jpg,,,,,,,,,,,,,,,,,,,,,,,,,,,,,,,,,,,,,,,,,,,0,2,2,1,1,,,,,,,,,,,,,,,,,,,,,,,,,,,,,,,,,,,,,,,,,,,,,,
576318,001,2022-11-21_24h56.25.540,Info_measure_main_exp,2022.2.2,Win32,144.1129846,,,,,,,,,,,,,,,,,,masks/mask_004.jpg,,,,,,,,,,,,,,,,,,,,,,,,,,,,,,,,,,,,,,,,,,,0,3,3,3,1,,,,,,,,,,,,,,,,,,,,,,,,,,,,,,,,,,,,,,,,,,,,,,
576318,001,2022-11-21_24h56.25.540,Info_measure_main_exp,2022.2.2,Win32,144.1129846,,,,,,,,,,,,,,,,,,masks/mask_005.jpg,,,,,,,,,,,,,,,,,,,,,,,,,,,,,,,,,,,,,,,,,,,0,4,4,4,1,,,,,,,,,,,,,,,,,,,,,,,,,,,,,,,,,,,,,,,,,,,,,,
576318,001,2022-11-21_24h56.25.540,Info_measure_main_exp,2022.2.2,Win32,144.1129846,,,,,,,,,,,,,,,,,,masks/mask_004.jpg,,,,,,,,,,,,,,,,,,,,,,,,,,,,,,,,,,,,,,,,,,,,,,,,0,0,0,3,1,,,,,,,,,,,,,,,,,,,,,,,,,,,,,,,,,,,,,,,,,
576318,001,2022-11-21_24h56.25.540,Info_measure_main_exp,2022.2.2,Win32,144.1129846,,,,,,,,,,,,,,,,,,masks/mask_001.jpg,,,,,,,,,,,,,,,,,,,,,,,,,,,,,,,,,,,,,,,,,,,,,,,,0,1,1,0,1,,,,,,,,,,,,,,,,,,,,,,,,,,,,,,,,,,,,,,,,,
576318,001,2022-11-21_24h56.25.540,Info_measure_main_exp,2022.2.2,Win32,144.1129846,,,,,,,,,,,,,,,,,,masks/mask_005.jpg,,,,,,,,,,,,,,,,,,,,,,,,,,,,,,,,,,,,,,,,,,,,,,,,0,2,2,4,1,,,,,,,,,,,,,,,,,,,,,,,,,,,,,,,,,,,,,,,,,
576318,001,2022-11-21_24h56.25.540,Info_measure_main_exp,2022.2.2,Win32,144.1129846,,,,,,,,,,,,,,,,,,masks/mask_003.jpg,,,,,,,,,,,,,,,,,,,,,,,,,,,,,,,,,,,,,,,,,,,,,,,,0,3,3,2,1,,,,,,,,,,,,,,,,,,,,,,,,,,,,,,,,,,,,,,,,,
576318,001,2022-11-21_24h56.25.540,Info_measure_main_exp,2022.2.2,Win32,144.1129846,,,,,,,,,,,,,,,,,,masks/mask_002.jpg,,,,,,,,,,,,,,,,,,,,,,,,,,,,,,,,,,,,,,,,,,,,,,,,0,4,4,1,1,,,,,,,,,,,,,,,,,,,,,,,,,,,,,,,,,,,,,,,,,
576318,001,2022-11-21_24h56.25.540,Info_measure_main_exp,2022.2.2,Win32,144.1129846,,,,,,,,,,,,,,,,,,,,,,,,,,,,,,7,0.7844,1,,,,,,,,,,,,0,131,5,5,2142,2166,absent_patch/patch0002142.jpg,absent_patch/patch0002166.jpg,,,,,,,,,,,,,,,,,,,,0.059259259,0.103703704,1,0,0,response1disk,6,0.000925926,-0.001851852,1,0,0,center_square,0,5,5,66,1,,,,,,,,,,,,,,,,,,,,,,,
576318,001,2022-11-21_24h56.25.540,Info_measure_main_exp,2022.2.2,Win32,144.1129846,,,,,,,,,,,,,,,,,,masks/mask_001.jpg,,,,,,,,,,,,,,,,,,,,,,,,,,,,,,,,,,,,,,,,,,,0,0,0,0,1,,,,,,,,,,,,,,,,,,,,,,,,,,,,,,,,,,,,,,,,,,,,,,
576318,001,2022-11-21_24h56.25.540,Info_measure_main_exp,2022.2.2,Win32,144.1129846,,,,,,,,,,,,,,,,,,masks/mask_002.jpg,,,,,,,,,,,,,,,,,,,,,,,,,,,,,,,,,,,,,,,,,,,0,1,1,1,1,,,,,,,,,,,,,,,,,,,,,,,,,,,,,,,,,,,,,,,,,,,,,,
576318,001,2022-11-21_24h56.25.540,Info_measure_main_exp,2022.2.2,Win32,144.1129846,,,,,,,,,,,,,,,,,,masks/mask_005.jpg,,,,,,,,,,,,,,,,,,,,,,,,,,,,,,,,,,,,,,,,,,,0,2,2,4,1,,,,,,,,,,,,,,,,,,,,,,,,,,,,,,,,,,,,,,,,,,,,,,
576318,001,2022-11-21_24h56.25.540,Info_measure_main_exp,2022.2.2,Win32,144.1129846,,,,,,,,,,,,,,,,,,masks/mask_004.jpg,,,,,,,,,,,,,,,,,,,,,,,,,,,,,,,,,,,,,,,,,,,0,3,3,3,1,,,,,,,,,,,,,,,,,,,,,,,,,,,,,,,,,,,,,,,,,,,,,,
576318,001,2022-11-21_24h56.25.540,Info_measure_main_exp,2022.2.2,Win32,144.1129846,,,,,,,,,,,,,,,,,,masks/mask_003.jpg,,,,,,,,,,,,,,,,,,,,,,,,,,,,,,,,,,,,,,,,,,,0,4,4,2,1,,,,,,,,,,,,,,,,,,,,,,,,,,,,,,,,,,,,,,,,,,,,,,
576318,001,2022-11-21_24h56.25.540,Info_measure_main_exp,2022.2.2,Win32,144.1129846,,,,,,,,,,,,,,,,,,masks/mask_003.jpg,,,,,,,,,,,,,,,,,,,,,,,,,,,,,,,,,,,,,,,,,,,,,,,,0,0,0,2,1,,,,,,,,,,,,,,,,,,,,,,,,,,,,,,,,,,,,,,,,,
576318,001,2022-11-21_24h56.25.540,Info_measure_main_exp,2022.2.2,Win32,144.1129846,,,,,,,,,,,,,,,,,,masks/mask_002.jpg,,,,,,,,,,,,,,,,,,,,,,,,,,,,,,,,,,,,,,,,,,,,,,,,0,1,1,1,1,,,,,,,,,,,,,,,,,,,,,,,,,,,,,,,,,,,,,,,,,
576318,001,2022-11-21_24h56.25.540,Info_measure_main_exp,2022.2.2,Win32,144.1129846,,,,,,,,,,,,,,,,,,masks/mask_004.jpg,,,,,,,,,,,,,,,,,,,,,,,,,,,,,,,,,,,,,,,,,,,,,,,,0,2,2,3,1,,,,,,,,,,,,,,,,,,,,,,,,,,,,,,,,,,,,,,,,,
576318,001,2022-11-21_24h56.25.540,Info_measure_main_exp,2022.2.2,Win32,144.1129846,,,,,,,,,,,,,,,,,,masks/mask_001.jpg,,,,,,,,,,,,,,,,,,,,,,,,,,,,,,,,,,,,,,,,,,,,,,,,0,3,3,0,1,,,,,,,,,,,,,,,,,,,,,,,,,,,,,,,,,,,,,,,,,
576318,001,2022-11-21_24h56.25.540,Info_measure_main_exp,2022.2.2,Win32,144.1129846,,,,,,,,,,,,,,,,,,masks/mask_005.jpg,,,,,,,,,,,,,,,,,,,,,,,,,,,,,,,,,,,,,,,,,,,,,,,,0,4,4,4,1,,,,,,,,,,,,,,,,,,,,,,,,,,,,,,,,,,,,,,,,,
576318,001,2022-11-21_24h56.25.540,Info_measure_main_exp,2022.2.2,Win32,144.1129846,,,,,,,,,,,,,,,,,,,,,,,,,,,,,,5,2.0563,1,,,,,,,,,,,,0,131,5,5,1986,1974,absent_patch/patch0001986.jpg,absent_patch/patch0001974.jpg,,,,,,,,,,,,,,,,,,,,0.113888889,-0.033333333,1,0,0,response3disk,7,-0.002777778,0.014814815,1,0,0,center_square,0,6,6,25,1,,,,,,,,,,,,,,,,,,,,,,,
576318,001,2022-11-21_24h56.25.540,Info_measure_main_exp,2022.2.2,Win32,144.1129846,,,,,,,,,,,,,,,,,,masks/mask_003.jpg,,,,,,,,,,,,,,,,,,,,,,,,,,,,,,,,,,,,,,,,,,,0,0,0,2,1,,,,,,,,,,,,,,,,,,,,,,,,,,,,,,,,,,,,,,,,,,,,,,
576318,001,2022-11-21_24h56.25.540,Info_measure_main_exp,2022.2.2,Win32,144.1129846,,,,,,,,,,,,,,,,,,masks/mask_002.jpg,,,,,,,,,,,,,,,,,,,,,,,,,,,,,,,,,,,,,,,,,,,0,1,1,1,1,,,,,,,,,,,,,,,,,,,,,,,,,,,,,,,,,,,,,,,,,,,,,,
576318,001,2022-11-21_24h56.25.540,Info_measure_main_exp,2022.2.2,Win32,144.1129846,,,,,,,,,,,,,,,,,,masks/mask_001.jpg,,,,,,,,,,,,,,,,,,,,,,,,,,,,,,,,,,,,,,,,,,,0,2,2,0,1,,,,,,,,,,,,,,,,,,,,,,,,,,,,,,,,,,,,,,,,,,,,,,
576318,001,2022-11-21_24h56.25.540,Info_measure_main_exp,2022.2.2,Win32,144.1129846,,,,,,,,,,,,,,,,,,masks/mask_005.jpg,,,,,,,,,,,,,,,,,,,,,,,,,,,,,,,,,,,,,,,,,,,0,3,3,4,1,,,,,,,,,,,,,,,,,,,,,,,,,,,,,,,,,,,,,,,,,,,,,,
576318,001,2022-11-21_24h56.25.540,Info_measure_main_exp,2022.2.2,Win32,144.1129846,,,,,,,,,,,,,,,,,,masks/mask_004.jpg,,,,,,,,,,,,,,,,,,,,,,,,,,,,,,,,,,,,,,,,,,,0,4,4,3,1,,,,,,,,,,,,,,,,,,,,,,,,,,,,,,,,,,,,,,,,,,,,,,
576318,001,2022-11-21_24h56.25.540,Info_measure_main_exp,2022.2.2,Win32,144.1129846,,,,,,,,,,,,,,,,,,masks/mask_001.jpg,,,,,,,,,,,,,,,,,,,,,,,,,,,,,,,,,,,,,,,,,,,,,,,,0,0,0,0,1,,,,,,,,,,,,,,,,,,,,,,,,,,,,,,,,,,,,,,,,,
576318,001,2022-11-21_24h56.25.540,Info_measure_main_exp,2022.2.2,Win32,144.1129846,,,,,,,,,,,,,,,,,,masks/mask_003.jpg,,,,,,,,,,,,,,,,,,,,,,,,,,,,,,,,,,,,,,,,,,,,,,,,0,1,1,2,1,,,,,,,,,,,,,,,,,,,,,,,,,,,,,,,,,,,,,,,,,
576318,001,2022-11-21_24h56.25.540,Info_measure_main_exp,2022.2.2,Win32,144.1129846,,,,,,,,,,,,,,,,,,masks/mask_002.jpg,,,,,,,,,,,,,,,,,,,,,,,,,,,,,,,,,,,,,,,,,,,,,,,,0,2,2,1,1,,,,,,,,,,,,,,,,,,,,,,,,,,,,,,,,,,,,,,,,,
576318,001,2022-11-21_24h56.25.540,Info_measure_main_exp,2022.2.2,Win32,144.1129846,,,,,,,,,,,,,,,,,,masks/mask_004.jpg,,,,,,,,,,,,,,,,,,,,,,,,,,,,,,,,,,,,,,,,,,,,,,,,0,3,3,3,1,,,,,,,,,,,,,,,,,,,,,,,,,,,,,,,,,,,,,,,,,
576318,001,2022-11-21_24h56.25.540,Info_measure_main_exp,2022.2.2,Win32,144.1129846,,,,,,,,,,,,,,,,,,masks/mask_005.jpg,,,,,,,,,,,,,,,,,,,,,,,,,,,,,,,,,,,,,,,,,,,,,,,,0,4,4,4,1,,,,,,,,,,,,,,,,,,,,,,,,,,,,,,,,,,,,,,,,,
576318,001,2022-11-21_24h56.25.540,Info_measure_main_exp,2022.2.2,Win32,144.1129846,,,,,,,,,,,,,,,,,,,,,,,,,,,,,,7,0.8265,1,,,,,,,,,,,,1,131,5,5,2238,1,absent_patch/patch0002238.jpg,present_patch/cong_131_5_a.jpg,,,,,,,,,,,,,,,,,,,,0.043518519,0.123148148,1,0,0,response1disk,8,0,-0.001851852,1,0,0,center_square,0,7,7,104,1,,,,,,,,,,,,,,,,,,,,,,,
576318,001,2022-11-21_24h56.25.540,Info_measure_main_exp,2022.2.2,Win32,144.1129846,,,,,,,,,,,,,,,,,,masks/mask_003.jpg,,,,,,,,,,,,,,,,,,,,,,,,,,,,,,,,,,,,,,,,,,,0,0,0,2,1,,,,,,,,,,,,,,,,,,,,,,,,,,,,,,,,,,,,,,,,,,,,,,
576318,001,2022-11-21_24h56.25.540,Info_measure_main_exp,2022.2.2,Win32,144.1129846,,,,,,,,,,,,,,,,,,masks/mask_004.jpg,,,,,,,,,,,,,,,,,,,,,,,,,,,,,,,,,,,,,,,,,,,0,1,1,3,1,,,,,,,,,,,,,,,,,,,,,,,,,,,,,,,,,,,,,,,,,,,,,,
576318,001,2022-11-21_24h56.25.540,Info_measure_main_exp,2022.2.2,Win32,144.1129846,,,,,,,,,,,,,,,,,,masks/mask_002.jpg,,,,,,,,,,,,,,,,,,,,,,,,,,,,,,,,,,,,,,,,,,,0,2,2,1,1,,,,,,,,,,,,,,,,,,,,,,,,,,,,,,,,,,,,,,,,,,,,,,
576318,001,2022-11-21_24h56.25.540,Info_measure_main_exp,2022.2.2,Win32,144.1129846,,,,,,,,,,,,,,,,,,masks/mask_001.jpg,,,,,,,,,,,,,,,,,,,,,,,,,,,,,,,,,,,,,,,,,,,0,3,3,0,1,,,,,,,,,,,,,,,,,,,,,,,,,,,,,,,,,,,,,,,,,,,,,,
576318,001,2022-11-21_24h56.25.540,Info_measure_main_exp,2022.2.2,Win32,144.1129846,,,,,,,,,,,,,,,,,,masks/mask_005.jpg,,,,,,,,,,,,,,,,,,,,,,,,,,,,,,,,,,,,,,,,,,,0,4,4,4,1,,,,,,,,,,,,,,,,,,,,,,,,,,,,,,,,,,,,,,,,,,,,,,
576318,001,2022-11-21_24h56.25.540,Info_measure_main_exp,2022.2.2,Win32,144.1129846,,,,,,,,,,,,,,,,,,masks/mask_002.jpg,,,,,,,,,,,,,,,,,,,,,,,,,,,,,,,,,,,,,,,,,,,,,,,,0,0,0,1,1,,,,,,,,,,,,,,,,,,,,,,,,,,,,,,,,,,,,,,,,,
576318,001,2022-11-21_24h56.25.540,Info_measure_main_exp,2022.2.2,Win32,144.1129846,,,,,,,,,,,,,,,,,,masks/mask_004.jpg,,,,,,,,,,,,,,,,,,,,,,,,,,,,,,,,,,,,,,,,,,,,,,,,0,1,1,3,1,,,,,,,,,,,,,,,,,,,,,,,,,,,,,,,,,,,,,,,,,
576318,001,2022-11-21_24h56.25.540,Info_measure_main_exp,2022.2.2,Win32,144.1129846,,,,,,,,,,,,,,,,,,masks/mask_005.jpg,,,,,,,,,,,,,,,,,,,,,,,,,,,,,,,,,,,,,,,,,,,,,,,,0,2,2,4,1,,,,,,,,,,,,,,,,,,,,,,,,,,,,,,,,,,,,,,,,,
576318,001,2022-11-21_24h56.25.540,Info_measure_main_exp,2022.2.2,Win32,144.1129846,,,,,,,,,,,,,,,,,,masks/mask_001.jpg,,,,,,,,,,,,,,,,,,,,,,,,,,,,,,,,,,,,,,,,,,,,,,,,0,3,3,0,1,,,,,,,,,,,,,,,,,,,,,,,,,,,,,,,,,,,,,,,,,
576318,001,2022-11-21_24h56.25.540,Info_measure_main_exp,2022.2.2,Win32,144.1129846,,,,,,,,,,,,,,,,,,masks/mask_003.jpg,,,,,,,,,,,,,,,,,,,,,,,,,,,,,,,,,,,,,,,,,,,,,,,,0,4,4,2,1,,,,,,,,,,,,,,,,,,,,,,,,,,,,,,,,,,,,,,,,,
576318,001,2022-11-21_24h56.25.540,Info_measure_main_exp,2022.2.2,Win32,144.1129846,,,,,,,,,,,,,,,,,,,,,,,,,,,,,,7,0.5832,1,,,,,,,,,,,,0,131,5,5,2178,1986,absent_patch/patch0002178.jpg,absent_patch/patch0001986.jpg,,,,,,,,,,,,,,,,,,,,0.031481481,0.10462963,1,0,0,response1disk,9,-0.002777778,-0.003703704,1,0,0,center_square,0,8,8,46,1,,,,,,,,,,,,,,,,,,,,,,,
576318,001,2022-11-21_24h56.25.540,Info_measure_main_exp,2022.2.2,Win32,144.1129846,,,,,,,,,,,,,,,,,,masks/mask_003.jpg,,,,,,,,,,,,,,,,,,,,,,,,,,,,,,,,,,,,,,,,,,,0,0,0,2,1,,,,,,,,,,,,,,,,,,,,,,,,,,,,,,,,,,,,,,,,,,,,,,
576318,001,2022-11-21_24h56.25.540,Info_measure_main_exp,2022.2.2,Win32,144.1129846,,,,,,,,,,,,,,,,,,masks/mask_004.jpg,,,,,,,,,,,,,,,,,,,,,,,,,,,,,,,,,,,,,,,,,,,0,1,1,3,1,,,,,,,,,,,,,,,,,,,,,,,,,,,,,,,,,,,,,,,,,,,,,,
576318,001,2022-11-21_24h56.25.540,Info_measure_main_exp,2022.2.2,Win32,144.1129846,,,,,,,,,,,,,,,,,,masks/mask_005.jpg,,,,,,,,,,,,,,,,,,,,,,,,,,,,,,,,,,,,,,,,,,,0,2,2,4,1,,,,,,,,,,,,,,,,,,,,,,,,,,,,,,,,,,,,,,,,,,,,,,
576318,001,2022-11-21_24h56.25.540,Info_measure_main_exp,2022.2.2,Win32,144.1129846,,,,,,,,,,,,,,,,,,masks/mask_001.jpg,,,,,,,,,,,,,,,,,,,,,,,,,,,,,,,,,,,,,,,,,,,0,3,3,0,1,,,,,,,,,,,,,,,,,,,,,,,,,,,,,,,,,,,,,,,,,,,,,,
576318,001,2022-11-21_24h56.25.540,Info_measure_main_exp,2022.2.2,Win32,144.1129846,,,,,,,,,,,,,,,,,,masks/mask_002.jpg,,,,,,,,,,,,,,,,,,,,,,,,,,,,,,,,,,,,,,,,,,,0,4,4,1,1,,,,,,,,,,,,,,,,,,,,,,,,,,,,,,,,,,,,,,,,,,,,,,
576318,001,2022-11-21_24h56.25.540,Info_measure_main_exp,2022.2.2,Win32,144.1129846,,,,,,,,,,,,,,,,,,masks/mask_003.jpg,,,,,,,,,,,,,,,,,,,,,,,,,,,,,,,,,,,,,,,,,,,,,,,,0,0,0,2,1,,,,,,,,,,,,,,,,,,,,,,,,,,,,,,,,,,,,,,,,,
576318,001,2022-11-21_24h56.25.540,Info_measure_main_exp,2022.2.2,Win32,144.1129846,,,,,,,,,,,,,,,,,,masks/mask_001.jpg,,,,,,,,,,,,,,,,,,,,,,,,,,,,,,,,,,,,,,,,,,,,,,,,0,1,1,0,1,,,,,,,,,,,,,,,,,,,,,,,,,,,,,,,,,,,,,,,,,
576318,001,2022-11-21_24h56.25.540,Info_measure_main_exp,2022.2.2,Win32,144.1129846,,,,,,,,,,,,,,,,,,masks/mask_004.jpg,,,,,,,,,,,,,,,,,,,,,,,,,,,,,,,,,,,,,,,,,,,,,,,,0,2,2,3,1,,,,,,,,,,,,,,,,,,,,,,,,,,,,,,,,,,,,,,,,,
576318,001,2022-11-21_24h56.25.540,Info_measure_main_exp,2022.2.2,Win32,144.1129846,,,,,,,,,,,,,,,,,,masks/mask_005.jpg,,,,,,,,,,,,,,,,,,,,,,,,,,,,,,,,,,,,,,,,,,,,,,,,0,3,3,4,1,,,,,,,,,,,,,,,,,,,,,,,,,,,,,,,,,,,,,,,,,
576318,001,2022-11-21_24h56.25.540,Info_measure_main_exp,2022.2.2,Win32,144.1129846,,,,,,,,,,,,,,,,,,masks/mask_002.jpg,,,,,,,,,,,,,,,,,,,,,,,,,,,,,,,,,,,,,,,,,,,,,,,,0,4,4,1,1,,,,,,,,,,,,,,,,,,,,,,,,,,,,,,,,,,,,,,,,,
576318,001,2022-11-21_24h56.25.540,Info_measure_main_exp,2022.2.2,Win32,144.1129846,,,,,,,,,,,,,,,,,,,,,,,,,,,,,,7,0.459,1,,,,,,,,,,,,0,131,5,5,2214,2142,absent_patch/patch0002214.jpg,absent_patch/patch0002142.jpg,,,,,,,,,,,,,,,,,,,,0.074074074,0.113888889,1,0,0,response1disk,10,-0.007407407,-0.002777778,1,0,0,center_square,0,9,9,102,1,,,,,,,,,,,,,,,,,,,,,,,
576318,001,2022-11-21_24h56.25.540,Info_measure_main_exp,2022.2.2,Win32,144.1129846,,,,,,,,,,,,,,,,,,masks/mask_005.jpg,,,,,,,,,,,,,,,,,,,,,,,,,,,,,,,,,,,,,,,,,,,0,0,0,4,1,,,,,,,,,,,,,,,,,,,,,,,,,,,,,,,,,,,,,,,,,,,,,,
576318,001,2022-11-21_24h56.25.540,Info_measure_main_exp,2022.2.2,Win32,144.1129846,,,,,,,,,,,,,,,,,,masks/mask_002.jpg,,,,,,,,,,,,,,,,,,,,,,,,,,,,,,,,,,,,,,,,,,,0,1,1,1,1,,,,,,,,,,,,,,,,,,,,,,,,,,,,,,,,,,,,,,,,,,,,,,
576318,001,2022-11-21_24h56.25.540,Info_measure_main_exp,2022.2.2,Win32,144.1129846,,,,,,,,,,,,,,,,,,masks/mask_004.jpg,,,,,,,,,,,,,,,,,,,,,,,,,,,,,,,,,,,,,,,,,,,0,2,2,3,1,,,,,,,,,,,,,,,,,,,,,,,,,,,,,,,,,,,,,,,,,,,,,,
576318,001,2022-11-21_24h56.25.540,Info_measure_main_exp,2022.2.2,Win32,144.1129846,,,,,,,,,,,,,,,,,,masks/mask_001.jpg,,,,,,,,,,,,,,,,,,,,,,,,,,,,,,,,,,,,,,,,,,,0,3,3,0,1,,,,,,,,,,,,,,,,,,,,,,,,,,,,,,,,,,,,,,,,,,,,,,
576318,001,2022-11-21_24h56.25.540,Info_measure_main_exp,2022.2.2,Win32,144.1129846,,,,,,,,,,,,,,,,,,masks/mask_003.jpg,,,,,,,,,,,,,,,,,,,,,,,,,,,,,,,,,,,,,,,,,,,0,4,4,2,1,,,,,,,,,,,,,,,,,,,,,,,,,,,,,,,,,,,,,,,,,,,,,,
576318,001,2022-11-21_24h56.25.540,Info_measure_main_exp,2022.2.2,Win32,144.1129846,,,,,,,,,,,,,,,,,,masks/mask_003.jpg,,,,,,,,,,,,,,,,,,,,,,,,,,,,,,,,,,,,,,,,,,,,,,,,0,0,0,2,1,,,,,,,,,,,,,,,,,,,,,,,,,,,,,,,,,,,,,,,,,
576318,001,2022-11-21_24h56.25.540,Info_measure_main_exp,2022.2.2,Win32,144.1129846,,,,,,,,,,,,,,,,,,masks/mask_002.jpg,,,,,,,,,,,,,,,,,,,,,,,,,,,,,,,,,,,,,,,,,,,,,,,,0,1,1,1,1,,,,,,,,,,,,,,,,,,,,,,,,,,,,,,,,,,,,,,,,,
576318,001,2022-11-21_24h56.25.540,Info_measure_main_exp,2022.2.2,Win32,144.1129846,,,,,,,,,,,,,,,,,,masks/mask_001.jpg,,,,,,,,,,,,,,,,,,,,,,,,,,,,,,,,,,,,,,,,,,,,,,,,0,2,2,0,1,,,,,,,,,,,,,,,,,,,,,,,,,,,,,,,,,,,,,,,,,
576318,001,2022-11-21_24h56.25.540,Info_measure_main_exp,2022.2.2,Win32,144.1129846,,,,,,,,,,,,,,,,,,masks/mask_005.jpg,,,,,,,,,,,,,,,,,,,,,,,,,,,,,,,,,,,,,,,,,,,,,,,,0,3,3,4,1,,,,,,,,,,,,,,,,,,,,,,,,,,,,,,,,,,,,,,,,,
576318,001,2022-11-21_24h56.25.540,Info_measure_main_exp,2022.2.2,Win32,144.1129846,,,,,,,,,,,,,,,,,,masks/mask_004.jpg,,,,,,,,,,,,,,,,,,,,,,,,,,,,,,,,,,,,,,,,,,,,,,,,0,4,4,3,1,,,,,,,,,,,,,,,,,,,,,,,,,,,,,,,,,,,,,,,,,
576318,001,2022-11-21_24h56.25.540,Info_measure_main_exp,2022.2.2,Win32,144.1129846,,,,,,,,,,,,,,,,,,,,,,,,,,,,,,7,0.4375,1,,,,,,,,,,,,0,131,5,5,2082,2166,absent_patch/patch0002082.jpg,absent_patch/patch0002166.jpg,,,,,,,,,,,,,,,,,,,,0.033333333,0.071296296,1,0,0,response1disk,11,0.000925926,-0.009259259,1,0,0,center_square,0,10,10,43,1,,,,,,,,,,,,,,,,,,,,,,,
576318,001,2022-11-21_24h56.25.540,Info_measure_main_exp,2022.2.2,Win32,144.1129846,,,,,,,,,,,,,,,,,,masks/mask_004.jpg,,,,,,,,,,,,,,,,,,,,,,,,,,,,,,,,,,,,,,,,,,,0,0,0,3,1,,,,,,,,,,,,,,,,,,,,,,,,,,,,,,,,,,,,,,,,,,,,,,
576318,001,2022-11-21_24h56.25.540,Info_measure_main_exp,2022.2.2,Win32,144.1129846,,,,,,,,,,,,,,,,,,masks/mask_003.jpg,,,,,,,,,,,,,,,,,,,,,,,,,,,,,,,,,,,,,,,,,,,0,1,1,2,1,,,,,,,,,,,,,,,,,,,,,,,,,,,,,,,,,,,,,,,,,,,,,,
576318,001,2022-11-21_24h56.25.540,Info_measure_main_exp,2022.2.2,Win32,144.1129846,,,,,,,,,,,,,,,,,,masks/mask_005.jpg,,,,,,,,,,,,,,,,,,,,,,,,,,,,,,,,,,,,,,,,,,,0,2,2,4,1,,,,,,,,,,,,,,,,,,,,,,,,,,,,,,,,,,,,,,,,,,,,,,
576318,001,2022-11-21_24h56.25.540,Info_measure_main_exp,2022.2.2,Win32,144.1129846,,,,,,,,,,,,,,,,,,masks/mask_002.jpg,,,,,,,,,,,,,,,,,,,,,,,,,,,,,,,,,,,,,,,,,,,0,3,3,1,1,,,,,,,,,,,,,,,,,,,,,,,,,,,,,,,,,,,,,,,,,,,,,,
576318,001,2022-11-21_24h56.25.540,Info_measure_main_exp,2022.2.2,Win32,144.1129846,,,,,,,,,,,,,,,,,,masks/mask_001.jpg,,,,,,,,,,,,,,,,,,,,,,,,,,,,,,,,,,,,,,,,,,,0,4,4,0,1,,,,,,,,,,,,,,,,,,,,,,,,,,,,,,,,,,,,,,,,,,,,,,
576318,001,2022-11-21_24h56.25.540,Info_measure_main_exp,2022.2.2,Win32,144.1129846,,,,,,,,,,,,,,,,,,masks/mask_004.jpg,,,,,,,,,,,,,,,,,,,,,,,,,,,,,,,,,,,,,,,,,,,,,,,,0,0,0,3,1,,,,,,,,,,,,,,,,,,,,,,,,,,,,,,,,,,,,,,,,,
576318,001,2022-11-21_24h56.25.540,Info_measure_main_exp,2022.2.2,Win32,144.1129846,,,,,,,,,,,,,,,,,,masks/mask_005.jpg,,,,,,,,,,,,,,,,,,,,,,,,,,,,,,,,,,,,,,,,,,,,,,,,0,1,1,4,1,,,,,,,,,,,,,,,,,,,,,,,,,,,,,,,,,,,,,,,,,
576318,001,2022-11-21_24h56.25.540,Info_measure_main_exp,2022.2.2,Win32,144.1129846,,,,,,,,,,,,,,,,,,masks/mask_003.jpg,,,,,,,,,,,,,,,,,,,,,,,,,,,,,,,,,,,,,,,,,,,,,,,,0,2,2,2,1,,,,,,,,,,,,,,,,,,,,,,,,,,,,,,,,,,,,,,,,,
576318,001,2022-11-21_24h56.25.540,Info_measure_main_exp,2022.2.2,Win32,144.1129846,,,,,,,,,,,,,,,,,,masks/mask_001.jpg,,,,,,,,,,,,,,,,,,,,,,,,,,,,,,,,,,,,,,,,,,,,,,,,0,3,3,0,1,,,,,,,,,,,,,,,,,,,,,,,,,,,,,,,,,,,,,,,,,
576318,001,2022-11-21_24h56.25.540,Info_measure_main_exp,2022.2.2,Win32,144.1129846,,,,,,,,,,,,,,,,,,masks/mask_002.jpg,,,,,,,,,,,,,,,,,,,,,,,,,,,,,,,,,,,,,,,,,,,,,,,,0,4,4,1,1,,,,,,,,,,,,,,,,,,,,,,,,,,,,,,,,,,,,,,,,,
576318,001,2022-11-21_24h56.25.540,Info_measure_main_exp,2022.2.2,Win32,144.1129846,,,,,,,,,,,,,,,,,,,,,,,,,,,,,,7,2.2015,1,,,,,,,,,,,,0,131,5,5,2178,2238,absent_patch/patch0002178.jpg,absent_patch/patch0002238.jpg,,,,,,,,,,,,,,,,,,,,0.028703704,0.10462963,1,0,0,response1disk,12,0.000925926,0.002777778,1,0,0,center_square,0,11,11,57,1,,,,,,,,,,,,,,,,,,,,,,,
576318,001,2022-11-21_24h56.25.540,Info_measure_main_exp,2022.2.2,Win32,144.1129846,,,,,,,,,,,,,,,,,,masks/mask_005.jpg,,,,,,,,,,,,,,,,,,,,,,,,,,,,,,,,,,,,,,,,,,,0,0,0,4,1,,,,,,,,,,,,,,,,,,,,,,,,,,,,,,,,,,,,,,,,,,,,,,
576318,001,2022-11-21_24h56.25.540,Info_measure_main_exp,2022.2.2,Win32,144.1129846,,,,,,,,,,,,,,,,,,masks/mask_001.jpg,,,,,,,,,,,,,,,,,,,,,,,,,,,,,,,,,,,,,,,,,,,0,1,1,0,1,,,,,,,,,,,,,,,,,,,,,,,,,,,,,,,,,,,,,,,,,,,,,,
576318,001,2022-11-21_24h56.25.540,Info_measure_main_exp,2022.2.2,Win32,144.1129846,,,,,,,,,,,,,,,,,,masks/mask_004.jpg,,,,,,,,,,,,,,,,,,,,,,,,,,,,,,,,,,,,,,,,,,,0,2,2,3,1,,,,,,,,,,,,,,,,,,,,,,,,,,,,,,,,,,,,,,,,,,,,,,
576318,001,2022-11-21_24h56.25.540,Info_measure_main_exp,2022.2.2,Win32,144.1129846,,,,,,,,,,,,,,,,,,masks/mask_003.jpg,,,,,,,,,,,,,,,,,,,,,,,,,,,,,,,,,,,,,,,,,,,0,3,3,2,1,,,,,,,,,,,,,,,,,,,,,,,,,,,,,,,,,,,,,,,,,,,,,,
576318,001,2022-11-21_24h56.25.540,Info_measure_main_exp,2022.2.2,Win32,144.1129846,,,,,,,,,,,,,,,,,,masks/mask_002.jpg,,,,,,,,,,,,,,,,,,,,,,,,,,,,,,,,,,,,,,,,,,,0,4,4,1,1,,,,,,,,,,,,,,,,,,,,,,,,,,,,,,,,,,,,,,,,,,,,,,
576318,001,2022-11-21_24h56.25.540,Info_measure_main_exp,2022.2.2,Win32,144.1129846,,,,,,,,,,,,,,,,,,masks/mask_005.jpg,,,,,,,,,,,,,,,,,,,,,,,,,,,,,,,,,,,,,,,,,,,,,,,,0,0,0,4,1,,,,,,,,,,,,,,,,,,,,,,,,,,,,,,,,,,,,,,,,,
576318,001,2022-11-21_24h56.25.540,Info_measure_main_exp,2022.2.2,Win32,144.1129846,,,,,,,,,,,,,,,,,,masks/mask_002.jpg,,,,,,,,,,,,,,,,,,,,,,,,,,,,,,,,,,,,,,,,,,,,,,,,0,1,1,1,1,,,,,,,,,,,,,,,,,,,,,,,,,,,,,,,,,,,,,,,,,
576318,001,2022-11-21_24h56.25.540,Info_measure_main_exp,2022.2.2,Win32,144.1129846,,,,,,,,,,,,,,,,,,masks/mask_004.jpg,,,,,,,,,,,,,,,,,,,,,,,,,,,,,,,,,,,,,,,,,,,,,,,,0,2,2,3,1,,,,,,,,,,,,,,,,,,,,,,,,,,,,,,,,,,,,,,,,,
576318,001,2022-11-21_24h56.25.540,Info_measure_main_exp,2022.2.2,Win32,144.1129846,,,,,,,,,,,,,,,,,,masks/mask_003.jpg,,,,,,,,,,,,,,,,,,,,,,,,,,,,,,,,,,,,,,,,,,,,,,,,0,3,3,2,1,,,,,,,,,,,,,,,,,,,,,,,,,,,,,,,,,,,,,,,,,
576318,001,2022-11-21_24h56.25.540,Info_measure_main_exp,2022.2.2,Win32,144.1129846,,,,,,,,,,,,,,,,,,masks/mask_001.jpg,,,,,,,,,,,,,,,,,,,,,,,,,,,,,,,,,,,,,,,,,,,,,,,,0,4,4,0,1,,,,,,,,,,,,,,,,,,,,,,,,,,,,,,,,,,,,,,,,,
576318,001,2022-11-21_24h56.25.540,Info_measure_main_exp,2022.2.2,Win32,144.1129846,,,,,,,,,,,,,,,,,,,,,,,,,,,,,,7,0.4454,1,,,,,,,,,,,,1,131,5,5,2190,1,absent_patch/patch0002190.jpg,present_patch/cong_131_5_a.jpg,,,,,,,,,,,,,,,,,,,,0.021296296,0.100925926,1,0,0,response1disk,13,-0.005555556,0.00462963,1,0,0,center_square,0,12,12,64,1,,,,,,,,,,,,,,,,,,,,,,,
576318,001,2022-11-21_24h56.25.540,Info_measure_main_exp,2022.2.2,Win32,144.1129846,,,,,,,,,,,,,,,,,,masks/mask_004.jpg,,,,,,,,,,,,,,,,,,,,,,,,,,,,,,,,,,,,,,,,,,,0,0,0,3,1,,,,,,,,,,,,,,,,,,,,,,,,,,,,,,,,,,,,,,,,,,,,,,
576318,001,2022-11-21_24h56.25.540,Info_measure_main_exp,2022.2.2,Win32,144.1129846,,,,,,,,,,,,,,,,,,masks/mask_005.jpg,,,,,,,,,,,,,,,,,,,,,,,,,,,,,,,,,,,,,,,,,,,0,1,1,4,1,,,,,,,,,,,,,,,,,,,,,,,,,,,,,,,,,,,,,,,,,,,,,,
576318,001,2022-11-21_24h56.25.540,Info_measure_main_exp,2022.2.2,Win32,144.1129846,,,,,,,,,,,,,,,,,,masks/mask_002.jpg,,,,,,,,,,,,,,,,,,,,,,,,,,,,,,,,,,,,,,,,,,,0,2,2,1,1,,,,,,,,,,,,,,,,,,,,,,,,,,,,,,,,,,,,,,,,,,,,,,
576318,001,2022-11-21_24h56.25.540,Info_measure_main_exp,2022.2.2,Win32,144.1129846,,,,,,,,,,,,,,,,,,masks/mask_001.jpg,,,,,,,,,,,,,,,,,,,,,,,,,,,,,,,,,,,,,,,,,,,0,3,3,0,1,,,,,,,,,,,,,,,,,,,,,,,,,,,,,,,,,,,,,,,,,,,,,,
576318,001,2022-11-21_24h56.25.540,Info_measure_main_exp,2022.2.2,Win32,144.1129846,,,,,,,,,,,,,,,,,,masks/mask_003.jpg,,,,,,,,,,,,,,,,,,,,,,,,,,,,,,,,,,,,,,,,,,,0,4,4,2,1,,,,,,,,,,,,,,,,,,,,,,,,,,,,,,,,,,,,,,,,,,,,,,
576318,001,2022-11-21_24h56.25.540,Info_measure_main_exp,2022.2.2,Win32,144.1129846,,,,,,,,,,,,,,,,,,masks/mask_003.jpg,,,,,,,,,,,,,,,,,,,,,,,,,,,,,,,,,,,,,,,,,,,,,,,,0,0,0,2,1,,,,,,,,,,,,,,,,,,,,,,,,,,,,,,,,,,,,,,,,,
576318,001,2022-11-21_24h56.25.540,Info_measure_main_exp,2022.2.2,Win32,144.1129846,,,,,,,,,,,,,,,,,,masks/mask_004.jpg,,,,,,,,,,,,,,,,,,,,,,,,,,,,,,,,,,,,,,,,,,,,,,,,0,1,1,3,1,,,,,,,,,,,,,,,,,,,,,,,,,,,,,,,,,,,,,,,,,
576318,001,2022-11-21_24h56.25.540,Info_measure_main_exp,2022.2.2,Win32,144.1129846,,,,,,,,,,,,,,,,,,masks/mask_001.jpg,,,,,,,,,,,,,,,,,,,,,,,,,,,,,,,,,,,,,,,,,,,,,,,,0,2,2,0,1,,,,,,,,,,,,,,,,,,,,,,,,,,,,,,,,,,,,,,,,,
576318,001,2022-11-21_24h56.25.540,Info_measure_main_exp,2022.2.2,Win32,144.1129846,,,,,,,,,,,,,,,,,,masks/mask_002.jpg,,,,,,,,,,,,,,,,,,,,,,,,,,,,,,,,,,,,,,,,,,,,,,,,0,3,3,1,1,,,,,,,,,,,,,,,,,,,,,,,,,,,,,,,,,,,,,,,,,
576318,001,2022-11-21_24h56.25.540,Info_measure_main_exp,2022.2.2,Win32,144.1129846,,,,,,,,,,,,,,,,,,masks/mask_005.jpg,,,,,,,,,,,,,,,,,,,,,,,,,,,,,,,,,,,,,,,,,,,,,,,,0,4,4,4,1,,,,,,,,,,,,,,,,,,,,,,,,,,,,,,,,,,,,,,,,,
576318,001,2022-11-21_24h56.25.540,Info_measure_main_exp,2022.2.2,Win32,144.1129846,,,,,,,,,,,,,,,,,,,,,,,,,,,,,,7,0.4999,1,,,,,,,,,,,,0,131,5,5,2154,2190,absent_patch/patch0002154.jpg,absent_patch/patch0002190.jpg,,,,,,,,,,,,,,,,,,,,0.036111111,0.091666667,1,0,0,response1disk,14,-0.000925926,0.000925926,1,0,0,center_square,0,13,13,68,1,,,,,,,,,,,,,,,,,,,,,,,
576318,001,2022-11-21_24h56.25.540,Info_measure_main_exp,2022.2.2,Win32,144.1129846,,,,,,,,,,,,,,,,,,masks/mask_003.jpg,,,,,,,,,,,,,,,,,,,,,,,,,,,,,,,,,,,,,,,,,,,0,0,0,2,1,,,,,,,,,,,,,,,,,,,,,,,,,,,,,,,,,,,,,,,,,,,,,,
576318,001,2022-11-21_24h56.25.540,Info_measure_main_exp,2022.2.2,Win32,144.1129846,,,,,,,,,,,,,,,,,,masks/mask_004.jpg,,,,,,,,,,,,,,,,,,,,,,,,,,,,,,,,,,,,,,,,,,,0,1,1,3,1,,,,,,,,,,,,,,,,,,,,,,,,,,,,,,,,,,,,,,,,,,,,,,
576318,001,2022-11-21_24h56.25.540,Info_measure_main_exp,2022.2.2,Win32,144.1129846,,,,,,,,,,,,,,,,,,masks/mask_001.jpg,,,,,,,,,,,,,,,,,,,,,,,,,,,,,,,,,,,,,,,,,,,0,2,2,0,1,,,,,,,,,,,,,,,,,,,,,,,,,,,,,,,,,,,,,,,,,,,,,,
576318,001,2022-11-21_24h56.25.540,Info_measure_main_exp,2022.2.2,Win32,144.1129846,,,,,,,,,,,,,,,,,,masks/mask_005.jpg,,,,,,,,,,,,,,,,,,,,,,,,,,,,,,,,,,,,,,,,,,,0,3,3,4,1,,,,,,,,,,,,,,,,,,,,,,,,,,,,,,,,,,,,,,,,,,,,,,
576318,001,2022-11-21_24h56.25.540,Info_measure_main_exp,2022.2.2,Win32,144.1129846,,,,,,,,,,,,,,,,,,masks/mask_002.jpg,,,,,,,,,,,,,,,,,,,,,,,,,,,,,,,,,,,,,,,,,,,0,4,4,1,1,,,,,,,,,,,,,,,,,,,,,,,,,,,,,,,,,,,,,,,,,,,,,,
576318,001,2022-11-21_24h56.25.540,Info_measure_main_exp,2022.2.2,Win32,144.1129846,,,,,,,,,,,,,,,,,,masks/mask_003.jpg,,,,,,,,,,,,,,,,,,,,,,,,,,,,,,,,,,,,,,,,,,,,,,,,0,0,0,2,1,,,,,,,,,,,,,,,,,,,,,,,,,,,,,,,,,,,,,,,,,
576318,001,2022-11-21_24h56.25.540,Info_measure_main_exp,2022.2.2,Win32,144.1129846,,,,,,,,,,,,,,,,,,masks/mask_002.jpg,,,,,,,,,,,,,,,,,,,,,,,,,,,,,,,,,,,,,,,,,,,,,,,,0,1,1,1,1,,,,,,,,,,,,,,,,,,,,,,,,,,,,,,,,,,,,,,,,,
576318,001,2022-11-21_24h56.25.540,Info_measure_main_exp,2022.2.2,Win32,144.1129846,,,,,,,,,,,,,,,,,,masks/mask_001.jpg,,,,,,,,,,,,,,,,,,,,,,,,,,,,,,,,,,,,,,,,,,,,,,,,0,2,2,0,1,,,,,,,,,,,,,,,,,,,,,,,,,,,,,,,,,,,,,,,,,
576318,001,2022-11-21_24h56.25.540,Info_measure_main_exp,2022.2.2,Win32,144.1129846,,,,,,,,,,,,,,,,,,masks/mask_004.jpg,,,,,,,,,,,,,,,,,,,,,,,,,,,,,,,,,,,,,,,,,,,,,,,,0,3,3,3,1,,,,,,,,,,,,,,,,,,,,,,,,,,,,,,,,,,,,,,,,,
576318,001,2022-11-21_24h56.25.540,Info_measure_main_exp,2022.2.2,Win32,144.1129846,,,,,,,,,,,,,,,,,,masks/mask_005.jpg,,,,,,,,,,,,,,,,,,,,,,,,,,,,,,,,,,,,,,,,,,,,,,,,0,4,4,4,1,,,,,,,,,,,,,,,,,,,,,,,,,,,,,,,,,,,,,,,,,
576318,001,2022-11-21_24h56.25.540,Info_measure_main_exp,2022.2.2,Win32,144.1129846,,,,,,,,,,,,,,,,,,,,,,,,,,,,,,7,0.5487,1,,,,,,,,,,,,0,131,5,5,2250,2142,absent_patch/patch0002250.jpg,absent_patch/patch0002142.jpg,,,,,,,,,,,,,,,,,,,,0.023148148,0.075,1,0,0,response1disk,15,-0.000925926,-0.011111111,1,0,0,center_square,0,14,14,71,1,,,,,,,,,,,,,,,,,,,,,,,
576318,001,2022-11-21_24h56.25.540,Info_measure_main_exp,2022.2.2,Win32,144.1129846,,,,,,,,,,,,,,,,,,masks/mask_003.jpg,,,,,,,,,,,,,,,,,,,,,,,,,,,,,,,,,,,,,,,,,,,0,0,0,2,1,,,,,,,,,,,,,,,,,,,,,,,,,,,,,,,,,,,,,,,,,,,,,,
576318,001,2022-11-21_24h56.25.540,Info_measure_main_exp,2022.2.2,Win32,144.1129846,,,,,,,,,,,,,,,,,,masks/mask_002.jpg,,,,,,,,,,,,,,,,,,,,,,,,,,,,,,,,,,,,,,,,,,,0,1,1,1,1,,,,,,,,,,,,,,,,,,,,,,,,,,,,,,,,,,,,,,,,,,,,,,
576318,001,2022-11-21_24h56.25.540,Info_measure_main_exp,2022.2.2,Win32,144.1129846,,,,,,,,,,,,,,,,,,masks/mask_001.jpg,,,,,,,,,,,,,,,,,,,,,,,,,,,,,,,,,,,,,,,,,,,0,2,2,0,1,,,,,,,,,,,,,,,,,,,,,,,,,,,,,,,,,,,,,,,,,,,,,,
576318,001,2022-11-21_24h56.25.540,Info_measure_main_exp,2022.2.2,Win32,144.1129846,,,,,,,,,,,,,,,,,,masks/mask_004.jpg,,,,,,,,,,,,,,,,,,,,,,,,,,,,,,,,,,,,,,,,,,,0,3,3,3,1,,,,,,,,,,,,,,,,,,,,,,,,,,,,,,,,,,,,,,,,,,,,,,
576318,001,2022-11-21_24h56.25.540,Info_measure_main_exp,2022.2.2,Win32,144.1129846,,,,,,,,,,,,,,,,,,masks/mask_005.jpg,,,,,,,,,,,,,,,,,,,,,,,,,,,,,,,,,,,,,,,,,,,0,4,4,4,1,,,,,,,,,,,,,,,,,,,,,,,,,,,,,,,,,,,,,,,,,,,,,,
576318,001,2022-11-21_24h56.25.540,Info_measure_main_exp,2022.2.2,Win32,144.1129846,,,,,,,,,,,,,,,,,,masks/mask_001.jpg,,,,,,,,,,,,,,,,,,,,,,,,,,,,,,,,,,,,,,,,,,,,,,,,0,0,0,0,1,,,,,,,,,,,,,,,,,,,,,,,,,,,,,,,,,,,,,,,,,
576318,001,2022-11-21_24h56.25.540,Info_measure_main_exp,2022.2.2,Win32,144.1129846,,,,,,,,,,,,,,,,,,masks/mask_003.jpg,,,,,,,,,,,,,,,,,,,,,,,,,,,,,,,,,,,,,,,,,,,,,,,,0,1,1,2,1,,,,,,,,,,,,,,,,,,,,,,,,,,,,,,,,,,,,,,,,,
576318,001,2022-11-21_24h56.25.540,Info_measure_main_exp,2022.2.2,Win32,144.1129846,,,,,,,,,,,,,,,,,,masks/mask_002.jpg,,,,,,,,,,,,,,,,,,,,,,,,,,,,,,,,,,,,,,,,,,,,,,,,0,2,2,1,1,,,,,,,,,,,,,,,,,,,,,,,,,,,,,,,,,,,,,,,,,
576318,001,2022-11-21_24h56.25.540,Info_measure_main_exp,2022.2.2,Win32,144.1129846,,,,,,,,,,,,,,,,,,masks/mask_005.jpg,,,,,,,,,,,,,,,,,,,,,,,,,,,,,,,,,,,,,,,,,,,,,,,,0,3,3,4,1,,,,,,,,,,,,,,,,,,,,,,,,,,,,,,,,,,,,,,,,,
576318,001,2022-11-21_24h56.25.540,Info_measure_main_exp,2022.2.2,Win32,144.1129846,,,,,,,,,,,,,,,,,,masks/mask_004.jpg,,,,,,,,,,,,,,,,,,,,,,,,,,,,,,,,,,,,,,,,,,,,,,,,0,4,4,3,1,,,,,,,,,,,,,,,,,,,,,,,,,,,,,,,,,,,,,,,,,
576318,001,2022-11-21_24h56.25.540,Info_measure_main_exp,2022.2.2,Win32,144.1129846,,,,,,,,,,,,,,,,,,,,,,,,,,,,,,7,0.4653,1,,,,,,,,,,,,0,131,5,5,2298,2274,absent_patch/patch0002298.jpg,absent_patch/patch0002274.jpg,,,,,,,,,,,,,,,,,,,,0.023148148,0.057407407,1,0,0,response1disk,16,0.011111111,0.005555556,1,0,0,center_square,0,15,15,1,1,,,,,,,,,,,,,,,,,,,,,,,
576318,001,2022-11-21_24h56.25.540,Info_measure_main_exp,2022.2.2,Win32,144.1129846,,,,,,,,,,,,,,,,,,masks/mask_003.jpg,,,,,,,,,,,,,,,,,,,,,,,,,,,,,,,,,,,,,,,,,,,0,0,0,2,1,,,,,,,,,,,,,,,,,,,,,,,,,,,,,,,,,,,,,,,,,,,,,,
576318,001,2022-11-21_24h56.25.540,Info_measure_main_exp,2022.2.2,Win32,144.1129846,,,,,,,,,,,,,,,,,,masks/mask_004.jpg,,,,,,,,,,,,,,,,,,,,,,,,,,,,,,,,,,,,,,,,,,,0,1,1,3,1,,,,,,,,,,,,,,,,,,,,,,,,,,,,,,,,,,,,,,,,,,,,,,
576318,001,2022-11-21_24h56.25.540,Info_measure_main_exp,2022.2.2,Win32,144.1129846,,,,,,,,,,,,,,,,,,masks/mask_005.jpg,,,,,,,,,,,,,,,,,,,,,,,,,,,,,,,,,,,,,,,,,,,0,2,2,4,1,,,,,,,,,,,,,,,,,,,,,,,,,,,,,,,,,,,,,,,,,,,,,,
576318,001,2022-11-21_24h56.25.540,Info_measure_main_exp,2022.2.2,Win32,144.1129846,,,,,,,,,,,,,,,,,,masks/mask_001.jpg,,,,,,,,,,,,,,,,,,,,,,,,,,,,,,,,,,,,,,,,,,,0,3,3,0,1,,,,,,,,,,,,,,,,,,,,,,,,,,,,,,,,,,,,,,,,,,,,,,
576318,001,2022-11-21_24h56.25.540,Info_measure_main_exp,2022.2.2,Win32,144.1129846,,,,,,,,,,,,,,,,,,masks/mask_002.jpg,,,,,,,,,,,,,,,,,,,,,,,,,,,,,,,,,,,,,,,,,,,0,4,4,1,1,,,,,,,,,,,,,,,,,,,,,,,,,,,,,,,,,,,,,,,,,,,,,,
576318,001,2022-11-21_24h56.25.540,Info_measure_main_exp,2022.2.2,Win32,144.1129846,,,,,,,,,,,,,,,,,,masks/mask_001.jpg,,,,,,,,,,,,,,,,,,,,,,,,,,,,,,,,,,,,,,,,,,,,,,,,0,0,0,0,1,,,,,,,,,,,,,,,,,,,,,,,,,,,,,,,,,,,,,,,,,
576318,001,2022-11-21_24h56.25.540,Info_measure_main_exp,2022.2.2,Win32,144.1129846,,,,,,,,,,,,,,,,,,masks/mask_003.jpg,,,,,,,,,,,,,,,,,,,,,,,,,,,,,,,,,,,,,,,,,,,,,,,,0,1,1,2,1,,,,,,,,,,,,,,,,,,,,,,,,,,,,,,,,,,,,,,,,,
576318,001,2022-11-21_24h56.25.540,Info_measure_main_exp,2022.2.2,Win32,144.1129846,,,,,,,,,,,,,,,,,,masks/mask_004.jpg,,,,,,,,,,,,,,,,,,,,,,,,,,,,,,,,,,,,,,,,,,,,,,,,0,2,2,3,1,,,,,,,,,,,,,,,,,,,,,,,,,,,,,,,,,,,,,,,,,
576318,001,2022-11-21_24h56.25.540,Info_measure_main_exp,2022.2.2,Win32,144.1129846,,,,,,,,,,,,,,,,,,masks/mask_002.jpg,,,,,,,,,,,,,,,,,,,,,,,,,,,,,,,,,,,,,,,,,,,,,,,,0,3,3,1,1,,,,,,,,,,,,,,,,,,,,,,,,,,,,,,,,,,,,,,,,,
576318,001,2022-11-21_24h56.25.540,Info_measure_main_exp,2022.2.2,Win32,144.1129846,,,,,,,,,,,,,,,,,,masks/mask_005.jpg,,,,,,,,,,,,,,,,,,,,,,,,,,,,,,,,,,,,,,,,,,,,,,,,0,4,4,4,1,,,,,,,,,,,,,,,,,,,,,,,,,,,,,,,,,,,,,,,,,
576318,001,2022-11-21_24h56.25.540,Info_measure_main_exp,2022.2.2,Win32,144.1129846,,,,,,,,,,,,,,,,,,,,,,,,,,,,,,7,0.5138,1,,,,,,,,,,,,0,131,5,5,1986,2274,absent_patch/patch0001986.jpg,absent_patch/patch0002274.jpg,,,,,,,,,,,,,,,,,,,,0.027777778,0.080555556,1,0,0,response1disk,17,-0.001851852,-0.003703704,1,0,0,center_square,0,16,16,7,1,,,,,,,,,,,,,,,,,,,,,,,
576318,001,2022-11-21_24h56.25.540,Info_measure_main_exp,2022.2.2,Win32,144.1129846,,,,,,,,,,,,,,,,,,masks/mask_001.jpg,,,,,,,,,,,,,,,,,,,,,,,,,,,,,,,,,,,,,,,,,,,0,0,0,0,1,,,,,,,,,,,,,,,,,,,,,,,,,,,,,,,,,,,,,,,,,,,,,,
576318,001,2022-11-21_24h56.25.540,Info_measure_main_exp,2022.2.2,Win32,144.1129846,,,,,,,,,,,,,,,,,,masks/mask_004.jpg,,,,,,,,,,,,,,,,,,,,,,,,,,,,,,,,,,,,,,,,,,,0,1,1,3,1,,,,,,,,,,,,,,,,,,,,,,,,,,,,,,,,,,,,,,,,,,,,,,
576318,001,2022-11-21_24h56.25.540,Info_measure_main_exp,2022.2.2,Win32,144.1129846,,,,,,,,,,,,,,,,,,masks/mask_003.jpg,,,,,,,,,,,,,,,,,,,,,,,,,,,,,,,,,,,,,,,,,,,0,2,2,2,1,,,,,,,,,,,,,,,,,,,,,,,,,,,,,,,,,,,,,,,,,,,,,,
576318,001,2022-11-21_24h56.25.540,Info_measure_main_exp,2022.2.2,Win32,144.1129846,,,,,,,,,,,,,,,,,,masks/mask_005.jpg,,,,,,,,,,,,,,,,,,,,,,,,,,,,,,,,,,,,,,,,,,,0,3,3,4,1,,,,,,,,,,,,,,,,,,,,,,,,,,,,,,,,,,,,,,,,,,,,,,
576318,001,2022-11-21_24h56.25.540,Info_measure_main_exp,2022.2.2,Win32,144.1129846,,,,,,,,,,,,,,,,,,masks/mask_002.jpg,,,,,,,,,,,,,,,,,,,,,,,,,,,,,,,,,,,,,,,,,,,0,4,4,1,1,,,,,,,,,,,,,,,,,,,,,,,,,,,,,,,,,,,,,,,,,,,,,,
576318,001,2022-11-21_24h56.25.540,Info_measure_main_exp,2022.2.2,Win32,144.1129846,,,,,,,,,,,,,,,,,,masks/mask_004.jpg,,,,,,,,,,,,,,,,,,,,,,,,,,,,,,,,,,,,,,,,,,,,,,,,0,0,0,3,1,,,,,,,,,,,,,,,,,,,,,,,,,,,,,,,,,,,,,,,,,
576318,001,2022-11-21_24h56.25.540,Info_measure_main_exp,2022.2.2,Win32,144.1129846,,,,,,,,,,,,,,,,,,masks/mask_003.jpg,,,,,,,,,,,,,,,,,,,,,,,,,,,,,,,,,,,,,,,,,,,,,,,,0,1,1,2,1,,,,,,,,,,,,,,,,,,,,,,,,,,,,,,,,,,,,,,,,,
576318,001,2022-11-21_24h56.25.540,Info_measure_main_exp,2022.2.2,Win32,144.1129846,,,,,,,,,,,,,,,,,,masks/mask_002.jpg,,,,,,,,,,,,,,,,,,,,,,,,,,,,,,,,,,,,,,,,,,,,,,,,0,2,2,1,1,,,,,,,,,,,,,,,,,,,,,,,,,,,,,,,,,,,,,,,,,
576318,001,2022-11-21_24h56.25.540,Info_measure_main_exp,2022.2.2,Win32,144.1129846,,,,,,,,,,,,,,,,,,masks/mask_005.jpg,,,,,,,,,,,,,,,,,,,,,,,,,,,,,,,,,,,,,,,,,,,,,,,,0,3,3,4,1,,,,,,,,,,,,,,,,,,,,,,,,,,,,,,,,,,,,,,,,,
576318,001,2022-11-21_24h56.25.540,Info_measure_main_exp,2022.2.2,Win32,144.1129846,,,,,,,,,,,,,,,,,,masks/mask_001.jpg,,,,,,,,,,,,,,,,,,,,,,,,,,,,,,,,,,,,,,,,,,,,,,,,0,4,4,0,1,,,,,,,,,,,,,,,,,,,,,,,,,,,,,,,,,,,,,,,,,
576318,001,2022-11-21_24h56.25.540,Info_measure_main_exp,2022.2.2,Win32,144.1129846,,,,,,,,,,,,,,,,,,,,,,,,,,,,,,7,0.6457,1,,,,,,,,,,,,0,131,5,5,2214,2166,absent_patch/patch0002214.jpg,absent_patch/patch0002166.jpg,,,,,,,,,,,,,,,,,,,,0.023148148,0.085185185,1,0,0,response1disk,18,0,0.008333333,1,0,0,center_square,0,17,17,109,1,,,,,,,,,,,,,,,,,,,,,,,
576318,001,2022-11-21_24h56.25.540,Info_measure_main_exp,2022.2.2,Win32,144.1129846,,,,,,,,,,,,,,,,,,masks/mask_005.jpg,,,,,,,,,,,,,,,,,,,,,,,,,,,,,,,,,,,,,,,,,,,0,0,0,4,1,,,,,,,,,,,,,,,,,,,,,,,,,,,,,,,,,,,,,,,,,,,,,,
576318,001,2022-11-21_24h56.25.540,Info_measure_main_exp,2022.2.2,Win32,144.1129846,,,,,,,,,,,,,,,,,,masks/mask_002.jpg,,,,,,,,,,,,,,,,,,,,,,,,,,,,,,,,,,,,,,,,,,,0,1,1,1,1,,,,,,,,,,,,,,,,,,,,,,,,,,,,,,,,,,,,,,,,,,,,,,
576318,001,2022-11-21_24h56.25.540,Info_measure_main_exp,2022.2.2,Win32,144.1129846,,,,,,,,,,,,,,,,,,masks/mask_004.jpg,,,,,,,,,,,,,,,,,,,,,,,,,,,,,,,,,,,,,,,,,,,0,2,2,3,1,,,,,,,,,,,,,,,,,,,,,,,,,,,,,,,,,,,,,,,,,,,,,,
576318,001,2022-11-21_24h56.25.540,Info_measure_main_exp,2022.2.2,Win32,144.1129846,,,,,,,,,,,,,,,,,,masks/mask_001.jpg,,,,,,,,,,,,,,,,,,,,,,,,,,,,,,,,,,,,,,,,,,,0,3,3,0,1,,,,,,,,,,,,,,,,,,,,,,,,,,,,,,,,,,,,,,,,,,,,,,
576318,001,2022-11-21_24h56.25.540,Info_measure_main_exp,2022.2.2,Win32,144.1129846,,,,,,,,,,,,,,,,,,masks/mask_003.jpg,,,,,,,,,,,,,,,,,,,,,,,,,,,,,,,,,,,,,,,,,,,0,4,4,2,1,,,,,,,,,,,,,,,,,,,,,,,,,,,,,,,,,,,,,,,,,,,,,,
576318,001,2022-11-21_24h56.25.540,Info_measure_main_exp,2022.2.2,Win32,144.1129846,,,,,,,,,,,,,,,,,,masks/mask_002.jpg,,,,,,,,,,,,,,,,,,,,,,,,,,,,,,,,,,,,,,,,,,,,,,,,0,0,0,1,1,,,,,,,,,,,,,,,,,,,,,,,,,,,,,,,,,,,,,,,,,
576318,001,2022-11-21_24h56.25.540,Info_measure_main_exp,2022.2.2,Win32,144.1129846,,,,,,,,,,,,,,,,,,masks/mask_004.jpg,,,,,,,,,,,,,,,,,,,,,,,,,,,,,,,,,,,,,,,,,,,,,,,,0,1,1,3,1,,,,,,,,,,,,,,,,,,,,,,,,,,,,,,,,,,,,,,,,,
576318,001,2022-11-21_24h56.25.540,Info_measure_main_exp,2022.2.2,Win32,144.1129846,,,,,,,,,,,,,,,,,,masks/mask_003.jpg,,,,,,,,,,,,,,,,,,,,,,,,,,,,,,,,,,,,,,,,,,,,,,,,0,2,2,2,1,,,,,,,,,,,,,,,,,,,,,,,,,,,,,,,,,,,,,,,,,
576318,001,2022-11-21_24h56.25.540,Info_measure_main_exp,2022.2.2,Win32,144.1129846,,,,,,,,,,,,,,,,,,masks/mask_005.jpg,,,,,,,,,,,,,,,,,,,,,,,,,,,,,,,,,,,,,,,,,,,,,,,,0,3,3,4,1,,,,,,,,,,,,,,,,,,,,,,,,,,,,,,,,,,,,,,,,,
576318,001,2022-11-21_24h56.25.540,Info_measure_main_exp,2022.2.2,Win32,144.1129846,,,,,,,,,,,,,,,,,,masks/mask_001.jpg,,,,,,,,,,,,,,,,,,,,,,,,,,,,,,,,,,,,,,,,,,,,,,,,0,4,4,0,1,,,,,,,,,,,,,,,,,,,,,,,,,,,,,,,,,,,,,,,,,
576318,001,2022-11-21_24h56.25.540,Info_measure_main_exp,2022.2.2,Win32,144.1129846,,,,,,,,,,,,,,,,,,,,,,,,,,,,,,7,0.3688,1,,,,,,,,,,,,0,131,5,5,2190,2082,absent_patch/patch0002190.jpg,absent_patch/patch0002082.jpg,,,,,,,,,,,,,,,,,,,,0.050925926,0.092592593,1,0,0,response1disk,19,0.00462963,0.011111111,1,0,0,center_square,0,18,18,112,1,,,,,,,,,,,,,,,,,,,,,,,
576318,001,2022-11-21_24h56.25.540,Info_measure_main_exp,2022.2.2,Win32,144.1129846,,,,,,,,,,,,,,,,,,masks/mask_004.jpg,,,,,,,,,,,,,,,,,,,,,,,,,,,,,,,,,,,,,,,,,,,0,0,0,3,1,,,,,,,,,,,,,,,,,,,,,,,,,,,,,,,,,,,,,,,,,,,,,,
576318,001,2022-11-21_24h56.25.540,Info_measure_main_exp,2022.2.2,Win32,144.1129846,,,,,,,,,,,,,,,,,,masks/mask_001.jpg,,,,,,,,,,,,,,,,,,,,,,,,,,,,,,,,,,,,,,,,,,,0,1,1,0,1,,,,,,,,,,,,,,,,,,,,,,,,,,,,,,,,,,,,,,,,,,,,,,
576318,001,2022-11-21_24h56.25.540,Info_measure_main_exp,2022.2.2,Win32,144.1129846,,,,,,,,,,,,,,,,,,masks/mask_005.jpg,,,,,,,,,,,,,,,,,,,,,,,,,,,,,,,,,,,,,,,,,,,0,2,2,4,1,,,,,,,,,,,,,,,,,,,,,,,,,,,,,,,,,,,,,,,,,,,,,,
576318,001,2022-11-21_24h56.25.540,Info_measure_main_exp,2022.2.2,Win32,144.1129846,,,,,,,,,,,,,,,,,,masks/mask_003.jpg,,,,,,,,,,,,,,,,,,,,,,,,,,,,,,,,,,,,,,,,,,,0,3,3,2,1,,,,,,,,,,,,,,,,,,,,,,,,,,,,,,,,,,,,,,,,,,,,,,
576318,001,2022-11-21_24h56.25.540,Info_measure_main_exp,2022.2.2,Win32,144.1129846,,,,,,,,,,,,,,,,,,masks/mask_002.jpg,,,,,,,,,,,,,,,,,,,,,,,,,,,,,,,,,,,,,,,,,,,0,4,4,1,1,,,,,,,,,,,,,,,,,,,,,,,,,,,,,,,,,,,,,,,,,,,,,,
576318,001,2022-11-21_24h56.25.540,Info_measure_main_exp,2022.2.2,Win32,144.1129846,,,,,,,,,,,,,,,,,,masks/mask_003.jpg,,,,,,,,,,,,,,,,,,,,,,,,,,,,,,,,,,,,,,,,,,,,,,,,0,0,0,2,1,,,,,,,,,,,,,,,,,,,,,,,,,,,,,,,,,,,,,,,,,
576318,001,2022-11-21_24h56.25.540,Info_measure_main_exp,2022.2.2,Win32,144.1129846,,,,,,,,,,,,,,,,,,masks/mask_001.jpg,,,,,,,,,,,,,,,,,,,,,,,,,,,,,,,,,,,,,,,,,,,,,,,,0,1,1,0,1,,,,,,,,,,,,,,,,,,,,,,,,,,,,,,,,,,,,,,,,,
576318,001,2022-11-21_24h56.25.540,Info_measure_main_exp,2022.2.2,Win32,144.1129846,,,,,,,,,,,,,,,,,,masks/mask_004.jpg,,,,,,,,,,,,,,,,,,,,,,,,,,,,,,,,,,,,,,,,,,,,,,,,0,2,2,3,1,,,,,,,,,,,,,,,,,,,,,,,,,,,,,,,,,,,,,,,,,
576318,001,2022-11-21_24h56.25.540,Info_measure_main_exp,2022.2.2,Win32,144.1129846,,,,,,,,,,,,,,,,,,masks/mask_002.jpg,,,,,,,,,,,,,,,,,,,,,,,,,,,,,,,,,,,,,,,,,,,,,,,,0,3,3,1,1,,,,,,,,,,,,,,,,,,,,,,,,,,,,,,,,,,,,,,,,,
576318,001,2022-11-21_24h56.25.540,Info_measure_main_exp,2022.2.2,Win32,144.1129846,,,,,,,,,,,,,,,,,,masks/mask_005.jpg,,,,,,,,,,,,,,,,,,,,,,,,,,,,,,,,,,,,,,,,,,,,,,,,0,4,4,4,1,,,,,,,,,,,,,,,,,,,,,,,,,,,,,,,,,,,,,,,,,
576318,001,2022-11-21_24h56.25.540,Info_measure_main_exp,2022.2.2,Win32,144.1129846,,,,,,,,,,,,,,,,,,,,,,,,,,,,,,7,0.3611,1,,,,,,,,,,,,0,131,5,5,1986,2238,absent_patch/patch0001986.jpg,absent_patch/patch0002238.jpg,,,,,,,,,,,,,,,,,,,,0.042592593,0.089814815,1,0,0,response1disk,20,-0.000925926,0.010185185,1,0,0,center_square,0,19,19,31,1,,,,,,,,,,,,,,,,,,,,,,,
576318,001,2022-11-21_24h56.25.540,Info_measure_main_exp,2022.2.2,Win32,144.1129846,,,,,,,,,,,,,,,,,,masks/mask_001.jpg,,,,,,,,,,,,,,,,,,,,,,,,,,,,,,,,,,,,,,,,,,,0,0,0,0,1,,,,,,,,,,,,,,,,,,,,,,,,,,,,,,,,,,,,,,,,,,,,,,
576318,001,2022-11-21_24h56.25.540,Info_measure_main_exp,2022.2.2,Win32,144.1129846,,,,,,,,,,,,,,,,,,masks/mask_004.jpg,,,,,,,,,,,,,,,,,,,,,,,,,,,,,,,,,,,,,,,,,,,0,1,1,3,1,,,,,,,,,,,,,,,,,,,,,,,,,,,,,,,,,,,,,,,,,,,,,,
576318,001,2022-11-21_24h56.25.540,Info_measure_main_exp,2022.2.2,Win32,144.1129846,,,,,,,,,,,,,,,,,,masks/mask_002.jpg,,,,,,,,,,,,,,,,,,,,,,,,,,,,,,,,,,,,,,,,,,,0,2,2,1,1,,,,,,,,,,,,,,,,,,,,,,,,,,,,,,,,,,,,,,,,,,,,,,
576318,001,2022-11-21_24h56.25.540,Info_measure_main_exp,2022.2.2,Win32,144.1129846,,,,,,,,,,,,,,,,,,masks/mask_003.jpg,,,,,,,,,,,,,,,,,,,,,,,,,,,,,,,,,,,,,,,,,,,0,3,3,2,1,,,,,,,,,,,,,,,,,,,,,,,,,,,,,,,,,,,,,,,,,,,,,,
576318,001,2022-11-21_24h56.25.540,Info_measure_main_exp,2022.2.2,Win32,144.1129846,,,,,,,,,,,,,,,,,,masks/mask_005.jpg,,,,,,,,,,,,,,,,,,,,,,,,,,,,,,,,,,,,,,,,,,,0,4,4,4,1,,,,,,,,,,,,,,,,,,,,,,,,,,,,,,,,,,,,,,,,,,,,,,
576318,001,2022-11-21_24h56.25.540,Info_measure_main_exp,2022.2.2,Win32,144.1129846,,,,,,,,,,,,,,,,,,masks/mask_005.jpg,,,,,,,,,,,,,,,,,,,,,,,,,,,,,,,,,,,,,,,,,,,,,,,,0,0,0,4,1,,,,,,,,,,,,,,,,,,,,,,,,,,,,,,,,,,,,,,,,,
576318,001,2022-11-21_24h56.25.540,Info_measure_main_exp,2022.2.2,Win32,144.1129846,,,,,,,,,,,,,,,,,,masks/mask_002.jpg,,,,,,,,,,,,,,,,,,,,,,,,,,,,,,,,,,,,,,,,,,,,,,,,0,1,1,1,1,,,,,,,,,,,,,,,,,,,,,,,,,,,,,,,,,,,,,,,,,
576318,001,2022-11-21_24h56.25.540,Info_measure_main_exp,2022.2.2,Win32,144.1129846,,,,,,,,,,,,,,,,,,masks/mask_003.jpg,,,,,,,,,,,,,,,,,,,,,,,,,,,,,,,,,,,,,,,,,,,,,,,,0,2,2,2,1,,,,,,,,,,,,,,,,,,,,,,,,,,,,,,,,,,,,,,,,,
576318,001,2022-11-21_24h56.25.540,Info_measure_main_exp,2022.2.2,Win32,144.1129846,,,,,,,,,,,,,,,,,,masks/mask_004.jpg,,,,,,,,,,,,,,,,,,,,,,,,,,,,,,,,,,,,,,,,,,,,,,,,0,3,3,3,1,,,,,,,,,,,,,,,,,,,,,,,,,,,,,,,,,,,,,,,,,
576318,001,2022-11-21_24h56.25.540,Info_measure_main_exp,2022.2.2,Win32,144.1129846,,,,,,,,,,,,,,,,,,masks/mask_001.jpg,,,,,,,,,,,,,,,,,,,,,,,,,,,,,,,,,,,,,,,,,,,,,,,,0,4,4,0,1,,,,,,,,,,,,,,,,,,,,,,,,,,,,,,,,,,,,,,,,,
576318,001,2022-11-21_24h56.25.540,Info_measure_main_exp,2022.2.2,Win32,144.1129846,,,,,,,,,,,,,,,,,,,,,,,,,,,,,,7,0.4927,1,,,,,,,,,,,,0,131,5,5,2154,2238,absent_patch/patch0002154.jpg,absent_patch/patch0002238.jpg,,,,,,,,,,,,,,,,,,,,0.033333333,0.075925926,1,0,0,response1disk,21,-0.003703704,0.00462963,1,0,0,center_square,0,20,20,21,1,,,,,,,,,,,,,,,,,,,,,,,
576318,001,2022-11-21_24h56.25.540,Info_measure_main_exp,2022.2.2,Win32,144.1129846,,,,,,,,,,,,,,,,,,masks/mask_002.jpg,,,,,,,,,,,,,,,,,,,,,,,,,,,,,,,,,,,,,,,,,,,0,0,0,1,1,,,,,,,,,,,,,,,,,,,,,,,,,,,,,,,,,,,,,,,,,,,,,,
576318,001,2022-11-21_24h56.25.540,Info_measure_main_exp,2022.2.2,Win32,144.1129846,,,,,,,,,,,,,,,,,,masks/mask_005.jpg,,,,,,,,,,,,,,,,,,,,,,,,,,,,,,,,,,,,,,,,,,,0,1,1,4,1,,,,,,,,,,,,,,,,,,,,,,,,,,,,,,,,,,,,,,,,,,,,,,
576318,001,2022-11-21_24h56.25.540,Info_measure_main_exp,2022.2.2,Win32,144.1129846,,,,,,,,,,,,,,,,,,masks/mask_003.jpg,,,,,,,,,,,,,,,,,,,,,,,,,,,,,,,,,,,,,,,,,,,0,2,2,2,1,,,,,,,,,,,,,,,,,,,,,,,,,,,,,,,,,,,,,,,,,,,,,,
576318,001,2022-11-21_24h56.25.540,Info_measure_main_exp,2022.2.2,Win32,144.1129846,,,,,,,,,,,,,,,,,,masks/mask_004.jpg,,,,,,,,,,,,,,,,,,,,,,,,,,,,,,,,,,,,,,,,,,,0,3,3,3,1,,,,,,,,,,,,,,,,,,,,,,,,,,,,,,,,,,,,,,,,,,,,,,
576318,001,2022-11-21_24h56.25.540,Info_measure_main_exp,2022.2.2,Win32,144.1129846,,,,,,,,,,,,,,,,,,masks/mask_001.jpg,,,,,,,,,,,,,,,,,,,,,,,,,,,,,,,,,,,,,,,,,,,0,4,4,0,1,,,,,,,,,,,,,,,,,,,,,,,,,,,,,,,,,,,,,,,,,,,,,,
576318,001,2022-11-21_24h56.25.540,Info_measure_main_exp,2022.2.2,Win32,144.1129846,,,,,,,,,,,,,,,,,,masks/mask_005.jpg,,,,,,,,,,,,,,,,,,,,,,,,,,,,,,,,,,,,,,,,,,,,,,,,0,0,0,4,1,,,,,,,,,,,,,,,,,,,,,,,,,,,,,,,,,,,,,,,,,
576318,001,2022-11-21_24h56.25.540,Info_measure_main_exp,2022.2.2,Win32,144.1129846,,,,,,,,,,,,,,,,,,masks/mask_002.jpg,,,,,,,,,,,,,,,,,,,,,,,,,,,,,,,,,,,,,,,,,,,,,,,,0,1,1,1,1,,,,,,,,,,,,,,,,,,,,,,,,,,,,,,,,,,,,,,,,,
576318,001,2022-11-21_24h56.25.540,Info_measure_main_exp,2022.2.2,Win32,144.1129846,,,,,,,,,,,,,,,,,,masks/mask_003.jpg,,,,,,,,,,,,,,,,,,,,,,,,,,,,,,,,,,,,,,,,,,,,,,,,0,2,2,2,1,,,,,,,,,,,,,,,,,,,,,,,,,,,,,,,,,,,,,,,,,
576318,001,2022-11-21_24h56.25.540,Info_measure_main_exp,2022.2.2,Win32,144.1129846,,,,,,,,,,,,,,,,,,masks/mask_001.jpg,,,,,,,,,,,,,,,,,,,,,,,,,,,,,,,,,,,,,,,,,,,,,,,,0,3,3,0,1,,,,,,,,,,,,,,,,,,,,,,,,,,,,,,,,,,,,,,,,,
576318,001,2022-11-21_24h56.25.540,Info_measure_main_exp,2022.2.2,Win32,144.1129846,,,,,,,,,,,,,,,,,,masks/mask_004.jpg,,,,,,,,,,,,,,,,,,,,,,,,,,,,,,,,,,,,,,,,,,,,,,,,0,4,4,3,1,,,,,,,,,,,,,,,,,,,,,,,,,,,,,,,,,,,,,,,,,
576318,001,2022-11-21_24h56.25.540,Info_measure_main_exp,2022.2.2,Win32,144.1129846,,,,,,,,,,,,,,,,,,,,,,,,,,,,,,7,0.5839,1,,,,,,,,,,,,0,131,5,5,2190,2166,absent_patch/patch0002190.jpg,absent_patch/patch0002166.jpg,,,,,,,,,,,,,,,,,,,,0.010185185,0.051851852,1,0,0,response1disk,22,0,0.002777778,1,0,0,center_square,0,21,21,50,1,,,,,,,,,,,,,,,,,,,,,,,
576318,001,2022-11-21_24h56.25.540,Info_measure_main_exp,2022.2.2,Win32,144.1129846,,,,,,,,,,,,,,,,,,masks/mask_001.jpg,,,,,,,,,,,,,,,,,,,,,,,,,,,,,,,,,,,,,,,,,,,0,0,0,0,1,,,,,,,,,,,,,,,,,,,,,,,,,,,,,,,,,,,,,,,,,,,,,,
576318,001,2022-11-21_24h56.25.540,Info_measure_main_exp,2022.2.2,Win32,144.1129846,,,,,,,,,,,,,,,,,,masks/mask_004.jpg,,,,,,,,,,,,,,,,,,,,,,,,,,,,,,,,,,,,,,,,,,,0,1,1,3,1,,,,,,,,,,,,,,,,,,,,,,,,,,,,,,,,,,,,,,,,,,,,,,
576318,001,2022-11-21_24h56.25.540,Info_measure_main_exp,2022.2.2,Win32,144.1129846,,,,,,,,,,,,,,,,,,masks/mask_005.jpg,,,,,,,,,,,,,,,,,,,,,,,,,,,,,,,,,,,,,,,,,,,0,2,2,4,1,,,,,,,,,,,,,,,,,,,,,,,,,,,,,,,,,,,,,,,,,,,,,,
576318,001,2022-11-21_24h56.25.540,Info_measure_main_exp,2022.2.2,Win32,144.1129846,,,,,,,,,,,,,,,,,,masks/mask_003.jpg,,,,,,,,,,,,,,,,,,,,,,,,,,,,,,,,,,,,,,,,,,,0,3,3,2,1,,,,,,,,,,,,,,,,,,,,,,,,,,,,,,,,,,,,,,,,,,,,,,
576318,001,2022-11-21_24h56.25.540,Info_measure_main_exp,2022.2.2,Win32,144.1129846,,,,,,,,,,,,,,,,,,masks/mask_002.jpg,,,,,,,,,,,,,,,,,,,,,,,,,,,,,,,,,,,,,,,,,,,0,4,4,1,1,,,,,,,,,,,,,,,,,,,,,,,,,,,,,,,,,,,,,,,,,,,,,,
576318,001,2022-11-21_24h56.25.540,Info_measure_main_exp,2022.2.2,Win32,144.1129846,,,,,,,,,,,,,,,,,,masks/mask_005.jpg,,,,,,,,,,,,,,,,,,,,,,,,,,,,,,,,,,,,,,,,,,,,,,,,0,0,0,4,1,,,,,,,,,,,,,,,,,,,,,,,,,,,,,,,,,,,,,,,,,
576318,001,2022-11-21_24h56.25.540,Info_measure_main_exp,2022.2.2,Win32,144.1129846,,,,,,,,,,,,,,,,,,masks/mask_002.jpg,,,,,,,,,,,,,,,,,,,,,,,,,,,,,,,,,,,,,,,,,,,,,,,,0,1,1,1,1,,,,,,,,,,,,,,,,,,,,,,,,,,,,,,,,,,,,,,,,,
576318,001,2022-11-21_24h56.25.540,Info_measure_main_exp,2022.2.2,Win32,144.1129846,,,,,,,,,,,,,,,,,,masks/mask_003.jpg,,,,,,,,,,,,,,,,,,,,,,,,,,,,,,,,,,,,,,,,,,,,,,,,0,2,2,2,1,,,,,,,,,,,,,,,,,,,,,,,,,,,,,,,,,,,,,,,,,
576318,001,2022-11-21_24h56.25.540,Info_measure_main_exp,2022.2.2,Win32,144.1129846,,,,,,,,,,,,,,,,,,masks/mask_001.jpg,,,,,,,,,,,,,,,,,,,,,,,,,,,,,,,,,,,,,,,,,,,,,,,,0,3,3,0,1,,,,,,,,,,,,,,,,,,,,,,,,,,,,,,,,,,,,,,,,,
576318,001,2022-11-21_24h56.25.540,Info_measure_main_exp,2022.2.2,Win32,144.1129846,,,,,,,,,,,,,,,,,,masks/mask_004.jpg,,,,,,,,,,,,,,,,,,,,,,,,,,,,,,,,,,,,,,,,,,,,,,,,0,4,4,3,1,,,,,,,,,,,,,,,,,,,,,,,,,,,,,,,,,,,,,,,,,
576318,001,2022-11-21_24h56.25.540,Info_measure_main_exp,2022.2.2,Win32,144.1129846,,,,,,,,,,,,,,,,,,,,,,,,,,,,,,7,0.8056,1,,,,,,,,,,,,0,131,5,5,2190,2178,absent_patch/patch0002190.jpg,absent_patch/patch0002178.jpg,,,,,,,,,,,,,,,,,,,,0.025925926,0.064814815,1,0,0,response1disk,23,-0.006481481,0,1,0,0,center_square,0,22,22,14,1,,,,,,,,,,,,,,,,,,,,,,,
576318,001,2022-11-21_24h56.25.540,Info_measure_main_exp,2022.2.2,Win32,144.1129846,,,,,,,,,,,,,,,,,,masks/mask_001.jpg,,,,,,,,,,,,,,,,,,,,,,,,,,,,,,,,,,,,,,,,,,,0,0,0,0,1,,,,,,,,,,,,,,,,,,,,,,,,,,,,,,,,,,,,,,,,,,,,,,
576318,001,2022-11-21_24h56.25.540,Info_measure_main_exp,2022.2.2,Win32,144.1129846,,,,,,,,,,,,,,,,,,masks/mask_005.jpg,,,,,,,,,,,,,,,,,,,,,,,,,,,,,,,,,,,,,,,,,,,0,1,1,4,1,,,,,,,,,,,,,,,,,,,,,,,,,,,,,,,,,,,,,,,,,,,,,,
576318,001,2022-11-21_24h56.25.540,Info_measure_main_exp,2022.2.2,Win32,144.1129846,,,,,,,,,,,,,,,,,,masks/mask_004.jpg,,,,,,,,,,,,,,,,,,,,,,,,,,,,,,,,,,,,,,,,,,,0,2,2,3,1,,,,,,,,,,,,,,,,,,,,,,,,,,,,,,,,,,,,,,,,,,,,,,
576318,001,2022-11-21_24h56.25.540,Info_measure_main_exp,2022.2.2,Win32,144.1129846,,,,,,,,,,,,,,,,,,masks/mask_002.jpg,,,,,,,,,,,,,,,,,,,,,,,,,,,,,,,,,,,,,,,,,,,0,3,3,1,1,,,,,,,,,,,,,,,,,,,,,,,,,,,,,,,,,,,,,,,,,,,,,,
576318,001,2022-11-21_24h56.25.540,Info_measure_main_exp,2022.2.2,Win32,144.1129846,,,,,,,,,,,,,,,,,,masks/mask_003.jpg,,,,,,,,,,,,,,,,,,,,,,,,,,,,,,,,,,,,,,,,,,,0,4,4,2,1,,,,,,,,,,,,,,,,,,,,,,,,,,,,,,,,,,,,,,,,,,,,,,
576318,001,2022-11-21_24h56.25.540,Info_measure_main_exp,2022.2.2,Win32,144.1129846,,,,,,,,,,,,,,,,,,masks/mask_005.jpg,,,,,,,,,,,,,,,,,,,,,,,,,,,,,,,,,,,,,,,,,,,,,,,,0,0,0,4,1,,,,,,,,,,,,,,,,,,,,,,,,,,,,,,,,,,,,,,,,,
576318,001,2022-11-21_24h56.25.540,Info_measure_main_exp,2022.2.2,Win32,144.1129846,,,,,,,,,,,,,,,,,,masks/mask_001.jpg,,,,,,,,,,,,,,,,,,,,,,,,,,,,,,,,,,,,,,,,,,,,,,,,0,1,1,0,1,,,,,,,,,,,,,,,,,,,,,,,,,,,,,,,,,,,,,,,,,
576318,001,2022-11-21_24h56.25.540,Info_measure_main_exp,2022.2.2,Win32,144.1129846,,,,,,,,,,,,,,,,,,masks/mask_004.jpg,,,,,,,,,,,,,,,,,,,,,,,,,,,,,,,,,,,,,,,,,,,,,,,,0,2,2,3,1,,,,,,,,,,,,,,,,,,,,,,,,,,,,,,,,,,,,,,,,,
576318,001,2022-11-21_24h56.25.540,Info_measure_main_exp,2022.2.2,Win32,144.1129846,,,,,,,,,,,,,,,,,,masks/mask_003.jpg,,,,,,,,,,,,,,,,,,,,,,,,,,,,,,,,,,,,,,,,,,,,,,,,0,3,3,2,1,,,,,,,,,,,,,,,,,,,,,,,,,,,,,,,,,,,,,,,,,
576318,001,2022-11-21_24h56.25.540,Info_measure_main_exp,2022.2.2,Win32,144.1129846,,,,,,,,,,,,,,,,,,masks/mask_002.jpg,,,,,,,,,,,,,,,,,,,,,,,,,,,,,,,,,,,,,,,,,,,,,,,,0,4,4,1,1,,,,,,,,,,,,,,,,,,,,,,,,,,,,,,,,,,,,,,,,,
576318,001,2022-11-21_24h56.25.540,Info_measure_main_exp,2022.2.2,Win32,144.1129846,,,,,,,,,,,,,,,,,,,,,,,,,,,,,,7,0.3882,1,,,,,,,,,,,,0,131,5,5,2274,2166,absent_patch/patch0002274.jpg,absent_patch/patch0002166.jpg,,,,,,,,,,,,,,,,,,,,0.021296296,0.07037037,1,0,0,response1disk,24,-0.001851852,0.015740741,1,0,0,center_square,0,23,23,78,1,,,,,,,,,,,,,,,,,,,,,,,
576318,001,2022-11-21_24h56.25.540,Info_measure_main_exp,2022.2.2,Win32,144.1129846,,,,,,,,,,,,,,,,,,masks/mask_002.jpg,,,,,,,,,,,,,,,,,,,,,,,,,,,,,,,,,,,,,,,,,,,0,0,0,1,1,,,,,,,,,,,,,,,,,,,,,,,,,,,,,,,,,,,,,,,,,,,,,,
576318,001,2022-11-21_24h56.25.540,Info_measure_main_exp,2022.2.2,Win32,144.1129846,,,,,,,,,,,,,,,,,,masks/mask_005.jpg,,,,,,,,,,,,,,,,,,,,,,,,,,,,,,,,,,,,,,,,,,,0,1,1,4,1,,,,,,,,,,,,,,,,,,,,,,,,,,,,,,,,,,,,,,,,,,,,,,
576318,001,2022-11-21_24h56.25.540,Info_measure_main_exp,2022.2.2,Win32,144.1129846,,,,,,,,,,,,,,,,,,masks/mask_003.jpg,,,,,,,,,,,,,,,,,,,,,,,,,,,,,,,,,,,,,,,,,,,0,2,2,2,1,,,,,,,,,,,,,,,,,,,,,,,,,,,,,,,,,,,,,,,,,,,,,,
576318,001,2022-11-21_24h56.25.540,Info_measure_main_exp,2022.2.2,Win32,144.1129846,,,,,,,,,,,,,,,,,,masks/mask_001.jpg,,,,,,,,,,,,,,,,,,,,,,,,,,,,,,,,,,,,,,,,,,,0,3,3,0,1,,,,,,,,,,,,,,,,,,,,,,,,,,,,,,,,,,,,,,,,,,,,,,
576318,001,2022-11-21_24h56.25.540,Info_measure_main_exp,2022.2.2,Win32,144.1129846,,,,,,,,,,,,,,,,,,masks/mask_004.jpg,,,,,,,,,,,,,,,,,,,,,,,,,,,,,,,,,,,,,,,,,,,0,4,4,3,1,,,,,,,,,,,,,,,,,,,,,,,,,,,,,,,,,,,,,,,,,,,,,,
576318,001,2022-11-21_24h56.25.540,Info_measure_main_exp,2022.2.2,Win32,144.1129846,,,,,,,,,,,,,,,,,,masks/mask_003.jpg,,,,,,,,,,,,,,,,,,,,,,,,,,,,,,,,,,,,,,,,,,,,,,,,0,0,0,2,1,,,,,,,,,,,,,,,,,,,,,,,,,,,,,,,,,,,,,,,,,
576318,001,2022-11-21_24h56.25.540,Info_measure_main_exp,2022.2.2,Win32,144.1129846,,,,,,,,,,,,,,,,,,masks/mask_004.jpg,,,,,,,,,,,,,,,,,,,,,,,,,,,,,,,,,,,,,,,,,,,,,,,,0,1,1,3,1,,,,,,,,,,,,,,,,,,,,,,,,,,,,,,,,,,,,,,,,,
576318,001,2022-11-21_24h56.25.540,Info_measure_main_exp,2022.2.2,Win32,144.1129846,,,,,,,,,,,,,,,,,,masks/mask_002.jpg,,,,,,,,,,,,,,,,,,,,,,,,,,,,,,,,,,,,,,,,,,,,,,,,0,2,2,1,1,,,,,,,,,,,,,,,,,,,,,,,,,,,,,,,,,,,,,,,,,
576318,001,2022-11-21_24h56.25.540,Info_measure_main_exp,2022.2.2,Win32,144.1129846,,,,,,,,,,,,,,,,,,masks/mask_005.jpg,,,,,,,,,,,,,,,,,,,,,,,,,,,,,,,,,,,,,,,,,,,,,,,,0,3,3,4,1,,,,,,,,,,,,,,,,,,,,,,,,,,,,,,,,,,,,,,,,,
576318,001,2022-11-21_24h56.25.540,Info_measure_main_exp,2022.2.2,Win32,144.1129846,,,,,,,,,,,,,,,,,,masks/mask_001.jpg,,,,,,,,,,,,,,,,,,,,,,,,,,,,,,,,,,,,,,,,,,,,,,,,0,4,4,0,1,,,,,,,,,,,,,,,,,,,,,,,,,,,,,,,,,,,,,,,,,
576318,001,2022-11-21_24h56.25.540,Info_measure_main_exp,2022.2.2,Win32,144.1129846,,,,,,,,,,,,,,,,,,,,,,,,,,,,,,7,0.4026,1,,,,,,,,,,,,0,131,5,5,2082,1986,absent_patch/patch0002082.jpg,absent_patch/patch0001986.jpg,,,,,,,,,,,,,,,,,,,,0.02962963,0.076851852,1,0,0,response1disk,25,0.001851852,0.010185185,1,0,0,center_square,0,24,24,94,1,,,,,,,,,,,,,,,,,,,,,,,
576318,001,2022-11-21_24h56.25.540,Info_measure_main_exp,2022.2.2,Win32,144.1129846,,,,,,,,,,,,,,,,,,masks/mask_003.jpg,,,,,,,,,,,,,,,,,,,,,,,,,,,,,,,,,,,,,,,,,,,0,0,0,2,1,,,,,,,,,,,,,,,,,,,,,,,,,,,,,,,,,,,,,,,,,,,,,,
576318,001,2022-11-21_24h56.25.540,Info_measure_main_exp,2022.2.2,Win32,144.1129846,,,,,,,,,,,,,,,,,,masks/mask_002.jpg,,,,,,,,,,,,,,,,,,,,,,,,,,,,,,,,,,,,,,,,,,,0,1,1,1,1,,,,,,,,,,,,,,,,,,,,,,,,,,,,,,,,,,,,,,,,,,,,,,
576318,001,2022-11-21_24h56.25.540,Info_measure_main_exp,2022.2.2,Win32,144.1129846,,,,,,,,,,,,,,,,,,masks/mask_001.jpg,,,,,,,,,,,,,,,,,,,,,,,,,,,,,,,,,,,,,,,,,,,0,2,2,0,1,,,,,,,,,,,,,,,,,,,,,,,,,,,,,,,,,,,,,,,,,,,,,,
576318,001,2022-11-21_24h56.25.540,Info_measure_main_exp,2022.2.2,Win32,144.1129846,,,,,,,,,,,,,,,,,,masks/mask_004.jpg,,,,,,,,,,,,,,,,,,,,,,,,,,,,,,,,,,,,,,,,,,,0,3,3,3,1,,,,,,,,,,,,,,,,,,,,,,,,,,,,,,,,,,,,,,,,,,,,,,
576318,001,2022-11-21_24h56.25.540,Info_measure_main_exp,2022.2.2,Win32,144.1129846,,,,,,,,,,,,,,,,,,masks/mask_005.jpg,,,,,,,,,,,,,,,,,,,,,,,,,,,,,,,,,,,,,,,,,,,0,4,4,4,1,,,,,,,,,,,,,,,,,,,,,,,,,,,,,,,,,,,,,,,,,,,,,,
576318,001,2022-11-21_24h56.25.540,Info_measure_main_exp,2022.2.2,Win32,144.1129846,,,,,,,,,,,,,,,,,,masks/mask_005.jpg,,,,,,,,,,,,,,,,,,,,,,,,,,,,,,,,,,,,,,,,,,,,,,,,0,0,0,4,1,,,,,,,,,,,,,,,,,,,,,,,,,,,,,,,,,,,,,,,,,
576318,001,2022-11-21_24h56.25.540,Info_measure_main_exp,2022.2.2,Win32,144.1129846,,,,,,,,,,,,,,,,,,masks/mask_001.jpg,,,,,,,,,,,,,,,,,,,,,,,,,,,,,,,,,,,,,,,,,,,,,,,,0,1,1,0,1,,,,,,,,,,,,,,,,,,,,,,,,,,,,,,,,,,,,,,,,,
576318,001,2022-11-21_24h56.25.540,Info_measure_main_exp,2022.2.2,Win32,144.1129846,,,,,,,,,,,,,,,,,,masks/mask_004.jpg,,,,,,,,,,,,,,,,,,,,,,,,,,,,,,,,,,,,,,,,,,,,,,,,0,2,2,3,1,,,,,,,,,,,,,,,,,,,,,,,,,,,,,,,,,,,,,,,,,
576318,001,2022-11-21_24h56.25.540,Info_measure_main_exp,2022.2.2,Win32,144.1129846,,,,,,,,,,,,,,,,,,masks/mask_002.jpg,,,,,,,,,,,,,,,,,,,,,,,,,,,,,,,,,,,,,,,,,,,,,,,,0,3,3,1,1,,,,,,,,,,,,,,,,,,,,,,,,,,,,,,,,,,,,,,,,,
576318,001,2022-11-21_24h56.25.540,Info_measure_main_exp,2022.2.2,Win32,144.1129846,,,,,,,,,,,,,,,,,,masks/mask_003.jpg,,,,,,,,,,,,,,,,,,,,,,,,,,,,,,,,,,,,,,,,,,,,,,,,0,4,4,2,1,,,,,,,,,,,,,,,,,,,,,,,,,,,,,,,,,,,,,,,,,
576318,001,2022-11-21_24h56.25.540,Info_measure_main_exp,2022.2.2,Win32,144.1129846,,,,,,,,,,,,,,,,,,,,,,,,,,,,,,7,0.3675,1,,,,,,,,,,,,0,131,5,5,2190,2214,absent_patch/patch0002190.jpg,absent_patch/patch0002214.jpg,,,,,,,,,,,,,,,,,,,,0.027777778,0.060185185,1,0,0,response1disk,26,0.000925926,0.003703704,1,0,0,center_square,0,25,25,35,1,,,,,,,,,,,,,,,,,,,,,,,
576318,001,2022-11-21_24h56.25.540,Info_measure_main_exp,2022.2.2,Win32,144.1129846,,,,,,,,,,,,,,,,,,masks/mask_002.jpg,,,,,,,,,,,,,,,,,,,,,,,,,,,,,,,,,,,,,,,,,,,0,0,0,1,1,,,,,,,,,,,,,,,,,,,,,,,,,,,,,,,,,,,,,,,,,,,,,,
576318,001,2022-11-21_24h56.25.540,Info_measure_main_exp,2022.2.2,Win32,144.1129846,,,,,,,,,,,,,,,,,,masks/mask_005.jpg,,,,,,,,,,,,,,,,,,,,,,,,,,,,,,,,,,,,,,,,,,,0,1,1,4,1,,,,,,,,,,,,,,,,,,,,,,,,,,,,,,,,,,,,,,,,,,,,,,
576318,001,2022-11-21_24h56.25.540,Info_measure_main_exp,2022.2.2,Win32,144.1129846,,,,,,,,,,,,,,,,,,masks/mask_001.jpg,,,,,,,,,,,,,,,,,,,,,,,,,,,,,,,,,,,,,,,,,,,0,2,2,0,1,,,,,,,,,,,,,,,,,,,,,,,,,,,,,,,,,,,,,,,,,,,,,,
576318,001,2022-11-21_24h56.25.540,Info_measure_main_exp,2022.2.2,Win32,144.1129846,,,,,,,,,,,,,,,,,,masks/mask_003.jpg,,,,,,,,,,,,,,,,,,,,,,,,,,,,,,,,,,,,,,,,,,,0,3,3,2,1,,,,,,,,,,,,,,,,,,,,,,,,,,,,,,,,,,,,,,,,,,,,,,
576318,001,2022-11-21_24h56.25.540,Info_measure_main_exp,2022.2.2,Win32,144.1129846,,,,,,,,,,,,,,,,,,masks/mask_004.jpg,,,,,,,,,,,,,,,,,,,,,,,,,,,,,,,,,,,,,,,,,,,0,4,4,3,1,,,,,,,,,,,,,,,,,,,,,,,,,,,,,,,,,,,,,,,,,,,,,,
576318,001,2022-11-21_24h56.25.540,Info_measure_main_exp,2022.2.2,Win32,144.1129846,,,,,,,,,,,,,,,,,,masks/mask_003.jpg,,,,,,,,,,,,,,,,,,,,,,,,,,,,,,,,,,,,,,,,,,,,,,,,0,0,0,2,1,,,,,,,,,,,,,,,,,,,,,,,,,,,,,,,,,,,,,,,,,
576318,001,2022-11-21_24h56.25.540,Info_measure_main_exp,2022.2.2,Win32,144.1129846,,,,,,,,,,,,,,,,,,masks/mask_005.jpg,,,,,,,,,,,,,,,,,,,,,,,,,,,,,,,,,,,,,,,,,,,,,,,,0,1,1,4,1,,,,,,,,,,,,,,,,,,,,,,,,,,,,,,,,,,,,,,,,,
576318,001,2022-11-21_24h56.25.540,Info_measure_main_exp,2022.2.2,Win32,144.1129846,,,,,,,,,,,,,,,,,,masks/mask_004.jpg,,,,,,,,,,,,,,,,,,,,,,,,,,,,,,,,,,,,,,,,,,,,,,,,0,2,2,3,1,,,,,,,,,,,,,,,,,,,,,,,,,,,,,,,,,,,,,,,,,
576318,001,2022-11-21_24h56.25.540,Info_measure_main_exp,2022.2.2,Win32,144.1129846,,,,,,,,,,,,,,,,,,masks/mask_001.jpg,,,,,,,,,,,,,,,,,,,,,,,,,,,,,,,,,,,,,,,,,,,,,,,,0,3,3,0,1,,,,,,,,,,,,,,,,,,,,,,,,,,,,,,,,,,,,,,,,,
576318,001,2022-11-21_24h56.25.540,Info_measure_main_exp,2022.2.2,Win32,144.1129846,,,,,,,,,,,,,,,,,,masks/mask_002.jpg,,,,,,,,,,,,,,,,,,,,,,,,,,,,,,,,,,,,,,,,,,,,,,,,0,4,4,1,1,,,,,,,,,,,,,,,,,,,,,,,,,,,,,,,,,,,,,,,,,
576318,001,2022-11-21_24h56.25.540,Info_measure_main_exp,2022.2.2,Win32,144.1129846,,,,,,,,,,,,,,,,,,,,,,,,,,,,,,7,0.3953,1,,,,,,,,,,,,0,131,5,5,2238,2214,absent_patch/patch0002238.jpg,absent_patch/patch0002214.jpg,,,,,,,,,,,,,,,,,,,,0.022222222,0.056481481,1,0,0,response1disk,27,0,0.007407407,1,0,0,center_square,0,26,26,81,1,,,,,,,,,,,,,,,,,,,,,,,
576318,001,2022-11-21_24h56.25.540,Info_measure_main_exp,2022.2.2,Win32,144.1129846,,,,,,,,,,,,,,,,,,masks/mask_005.jpg,,,,,,,,,,,,,,,,,,,,,,,,,,,,,,,,,,,,,,,,,,,0,0,0,4,1,,,,,,,,,,,,,,,,,,,,,,,,,,,,,,,,,,,,,,,,,,,,,,
576318,001,2022-11-21_24h56.25.540,Info_measure_main_exp,2022.2.2,Win32,144.1129846,,,,,,,,,,,,,,,,,,masks/mask_002.jpg,,,,,,,,,,,,,,,,,,,,,,,,,,,,,,,,,,,,,,,,,,,0,1,1,1,1,,,,,,,,,,,,,,,,,,,,,,,,,,,,,,,,,,,,,,,,,,,,,,
576318,001,2022-11-21_24h56.25.540,Info_measure_main_exp,2022.2.2,Win32,144.1129846,,,,,,,,,,,,,,,,,,masks/mask_001.jpg,,,,,,,,,,,,,,,,,,,,,,,,,,,,,,,,,,,,,,,,,,,0,2,2,0,1,,,,,,,,,,,,,,,,,,,,,,,,,,,,,,,,,,,,,,,,,,,,,,
576318,001,2022-11-21_24h56.25.540,Info_measure_main_exp,2022.2.2,Win32,144.1129846,,,,,,,,,,,,,,,,,,masks/mask_004.jpg,,,,,,,,,,,,,,,,,,,,,,,,,,,,,,,,,,,,,,,,,,,0,3,3,3,1,,,,,,,,,,,,,,,,,,,,,,,,,,,,,,,,,,,,,,,,,,,,,,
576318,001,2022-11-21_24h56.25.540,Info_measure_main_exp,2022.2.2,Win32,144.1129846,,,,,,,,,,,,,,,,,,masks/mask_003.jpg,,,,,,,,,,,,,,,,,,,,,,,,,,,,,,,,,,,,,,,,,,,0,4,4,2,1,,,,,,,,,,,,,,,,,,,,,,,,,,,,,,,,,,,,,,,,,,,,,,
576318,001,2022-11-21_24h56.25.540,Info_measure_main_exp,2022.2.2,Win32,144.1129846,,,,,,,,,,,,,,,,,,masks/mask_001.jpg,,,,,,,,,,,,,,,,,,,,,,,,,,,,,,,,,,,,,,,,,,,,,,,,0,0,0,0,1,,,,,,,,,,,,,,,,,,,,,,,,,,,,,,,,,,,,,,,,,
576318,001,2022-11-21_24h56.25.540,Info_measure_main_exp,2022.2.2,Win32,144.1129846,,,,,,,,,,,,,,,,,,masks/mask_005.jpg,,,,,,,,,,,,,,,,,,,,,,,,,,,,,,,,,,,,,,,,,,,,,,,,0,1,1,4,1,,,,,,,,,,,,,,,,,,,,,,,,,,,,,,,,,,,,,,,,,
576318,001,2022-11-21_24h56.25.540,Info_measure_main_exp,2022.2.2,Win32,144.1129846,,,,,,,,,,,,,,,,,,masks/mask_004.jpg,,,,,,,,,,,,,,,,,,,,,,,,,,,,,,,,,,,,,,,,,,,,,,,,0,2,2,3,1,,,,,,,,,,,,,,,,,,,,,,,,,,,,,,,,,,,,,,,,,
576318,001,2022-11-21_24h56.25.540,Info_measure_main_exp,2022.2.2,Win32,144.1129846,,,,,,,,,,,,,,,,,,masks/mask_003.jpg,,,,,,,,,,,,,,,,,,,,,,,,,,,,,,,,,,,,,,,,,,,,,,,,0,3,3,2,1,,,,,,,,,,,,,,,,,,,,,,,,,,,,,,,,,,,,,,,,,
576318,001,2022-11-21_24h56.25.540,Info_measure_main_exp,2022.2.2,Win32,144.1129846,,,,,,,,,,,,,,,,,,masks/mask_002.jpg,,,,,,,,,,,,,,,,,,,,,,,,,,,,,,,,,,,,,,,,,,,,,,,,0,4,4,1,1,,,,,,,,,,,,,,,,,,,,,,,,,,,,,,,,,,,,,,,,,
576318,001,2022-11-21_24h56.25.540,Info_measure_main_exp,2022.2.2,Win32,144.1129846,,,,,,,,,,,,,,,,,,,,,,,,,,,,,,7,0.4099,1,,,,,,,,,,,,0,131,5,5,2154,1950,absent_patch/patch0002154.jpg,absent_patch/patch0001950.jpg,,,,,,,,,,,,,,,,,,,,0.02962963,0.060185185,1,0,0,response1disk,28,0.000925926,0.010185185,1,0,0,center_square,0,27,27,96,1,,,,,,,,,,,,,,,,,,,,,,,
576318,001,2022-11-21_24h56.25.540,Info_measure_main_exp,2022.2.2,Win32,144.1129846,,,,,,,,,,,,,,,,,,masks/mask_002.jpg,,,,,,,,,,,,,,,,,,,,,,,,,,,,,,,,,,,,,,,,,,,0,0,0,1,1,,,,,,,,,,,,,,,,,,,,,,,,,,,,,,,,,,,,,,,,,,,,,,
576318,001,2022-11-21_24h56.25.540,Info_measure_main_exp,2022.2.2,Win32,144.1129846,,,,,,,,,,,,,,,,,,masks/mask_004.jpg,,,,,,,,,,,,,,,,,,,,,,,,,,,,,,,,,,,,,,,,,,,0,1,1,3,1,,,,,,,,,,,,,,,,,,,,,,,,,,,,,,,,,,,,,,,,,,,,,,
576318,001,2022-11-21_24h56.25.540,Info_measure_main_exp,2022.2.2,Win32,144.1129846,,,,,,,,,,,,,,,,,,masks/mask_003.jpg,,,,,,,,,,,,,,,,,,,,,,,,,,,,,,,,,,,,,,,,,,,0,2,2,2,1,,,,,,,,,,,,,,,,,,,,,,,,,,,,,,,,,,,,,,,,,,,,,,
576318,001,2022-11-21_24h56.25.540,Info_measure_main_exp,2022.2.2,Win32,144.1129846,,,,,,,,,,,,,,,,,,masks/mask_005.jpg,,,,,,,,,,,,,,,,,,,,,,,,,,,,,,,,,,,,,,,,,,,0,3,3,4,1,,,,,,,,,,,,,,,,,,,,,,,,,,,,,,,,,,,,,,,,,,,,,,
576318,001,2022-11-21_24h56.25.540,Info_measure_main_exp,2022.2.2,Win32,144.1129846,,,,,,,,,,,,,,,,,,masks/mask_001.jpg,,,,,,,,,,,,,,,,,,,,,,,,,,,,,,,,,,,,,,,,,,,0,4,4,0,1,,,,,,,,,,,,,,,,,,,,,,,,,,,,,,,,,,,,,,,,,,,,,,
576318,001,2022-11-21_24h56.25.540,Info_measure_main_exp,2022.2.2,Win32,144.1129846,,,,,,,,,,,,,,,,,,masks/mask_004.jpg,,,,,,,,,,,,,,,,,,,,,,,,,,,,,,,,,,,,,,,,,,,,,,,,0,0,0,3,1,,,,,,,,,,,,,,,,,,,,,,,,,,,,,,,,,,,,,,,,,
576318,001,2022-11-21_24h56.25.540,Info_measure_main_exp,2022.2.2,Win32,144.1129846,,,,,,,,,,,,,,,,,,masks/mask_001.jpg,,,,,,,,,,,,,,,,,,,,,,,,,,,,,,,,,,,,,,,,,,,,,,,,0,1,1,0,1,,,,,,,,,,,,,,,,,,,,,,,,,,,,,,,,,,,,,,,,,
576318,001,2022-11-21_24h56.25.540,Info_measure_main_exp,2022.2.2,Win32,144.1129846,,,,,,,,,,,,,,,,,,masks/mask_002.jpg,,,,,,,,,,,,,,,,,,,,,,,,,,,,,,,,,,,,,,,,,,,,,,,,0,2,2,1,1,,,,,,,,,,,,,,,,,,,,,,,,,,,,,,,,,,,,,,,,,
576318,001,2022-11-21_24h56.25.540,Info_measure_main_exp,2022.2.2,Win32,144.1129846,,,,,,,,,,,,,,,,,,masks/mask_003.jpg,,,,,,,,,,,,,,,,,,,,,,,,,,,,,,,,,,,,,,,,,,,,,,,,0,3,3,2,1,,,,,,,,,,,,,,,,,,,,,,,,,,,,,,,,,,,,,,,,,
576318,001,2022-11-21_24h56.25.540,Info_measure_main_exp,2022.2.2,Win32,144.1129846,,,,,,,,,,,,,,,,,,masks/mask_005.jpg,,,,,,,,,,,,,,,,,,,,,,,,,,,,,,,,,,,,,,,,,,,,,,,,0,4,4,4,1,,,,,,,,,,,,,,,,,,,,,,,,,,,,,,,,,,,,,,,,,
576318,001,2022-11-21_24h56.25.540,Info_measure_main_exp,2022.2.2,Win32,144.1129846,,,,,,,,,,,,,,,,,,,,,,,,,,,,,,7,0.4306,1,,,,,,,,,,,,0,131,5,5,2250,1986,absent_patch/patch0002250.jpg,absent_patch/patch0001986.jpg,,,,,,,,,,,,,,,,,,,,0.022222222,0.058333333,1,0,0,response1disk,29,-0.001851852,0.000925926,1,0,0,center_square,0,28,28,29,1,,,,,,,,,,,,,,,,,,,,,,,
576318,001,2022-11-21_24h56.25.540,Info_measure_main_exp,2022.2.2,Win32,144.1129846,,,,,,,,,,,,,,,,,,masks/mask_005.jpg,,,,,,,,,,,,,,,,,,,,,,,,,,,,,,,,,,,,,,,,,,,0,0,0,4,1,,,,,,,,,,,,,,,,,,,,,,,,,,,,,,,,,,,,,,,,,,,,,,
576318,001,2022-11-21_24h56.25.540,Info_measure_main_exp,2022.2.2,Win32,144.1129846,,,,,,,,,,,,,,,,,,masks/mask_004.jpg,,,,,,,,,,,,,,,,,,,,,,,,,,,,,,,,,,,,,,,,,,,0,1,1,3,1,,,,,,,,,,,,,,,,,,,,,,,,,,,,,,,,,,,,,,,,,,,,,,
576318,001,2022-11-21_24h56.25.540,Info_measure_main_exp,2022.2.2,Win32,144.1129846,,,,,,,,,,,,,,,,,,masks/mask_001.jpg,,,,,,,,,,,,,,,,,,,,,,,,,,,,,,,,,,,,,,,,,,,0,2,2,0,1,,,,,,,,,,,,,,,,,,,,,,,,,,,,,,,,,,,,,,,,,,,,,,
576318,001,2022-11-21_24h56.25.540,Info_measure_main_exp,2022.2.2,Win32,144.1129846,,,,,,,,,,,,,,,,,,masks/mask_002.jpg,,,,,,,,,,,,,,,,,,,,,,,,,,,,,,,,,,,,,,,,,,,0,3,3,1,1,,,,,,,,,,,,,,,,,,,,,,,,,,,,,,,,,,,,,,,,,,,,,,
576318,001,2022-11-21_24h56.25.540,Info_measure_main_exp,2022.2.2,Win32,144.1129846,,,,,,,,,,,,,,,,,,masks/mask_003.jpg,,,,,,,,,,,,,,,,,,,,,,,,,,,,,,,,,,,,,,,,,,,0,4,4,2,1,,,,,,,,,,,,,,,,,,,,,,,,,,,,,,,,,,,,,,,,,,,,,,
576318,001,2022-11-21_24h56.25.540,Info_measure_main_exp,2022.2.2,Win32,144.1129846,,,,,,,,,,,,,,,,,,masks/mask_002.jpg,,,,,,,,,,,,,,,,,,,,,,,,,,,,,,,,,,,,,,,,,,,,,,,,0,0,0,1,1,,,,,,,,,,,,,,,,,,,,,,,,,,,,,,,,,,,,,,,,,
576318,001,2022-11-21_24h56.25.540,Info_measure_main_exp,2022.2.2,Win32,144.1129846,,,,,,,,,,,,,,,,,,masks/mask_003.jpg,,,,,,,,,,,,,,,,,,,,,,,,,,,,,,,,,,,,,,,,,,,,,,,,0,1,1,2,1,,,,,,,,,,,,,,,,,,,,,,,,,,,,,,,,,,,,,,,,,
576318,001,2022-11-21_24h56.25.540,Info_measure_main_exp,2022.2.2,Win32,144.1129846,,,,,,,,,,,,,,,,,,masks/mask_001.jpg,,,,,,,,,,,,,,,,,,,,,,,,,,,,,,,,,,,,,,,,,,,,,,,,0,2,2,0,1,,,,,,,,,,,,,,,,,,,,,,,,,,,,,,,,,,,,,,,,,
576318,001,2022-11-21_24h56.25.540,Info_measure_main_exp,2022.2.2,Win32,144.1129846,,,,,,,,,,,,,,,,,,masks/mask_005.jpg,,,,,,,,,,,,,,,,,,,,,,,,,,,,,,,,,,,,,,,,,,,,,,,,0,3,3,4,1,,,,,,,,,,,,,,,,,,,,,,,,,,,,,,,,,,,,,,,,,
576318,001,2022-11-21_24h56.25.540,Info_measure_main_exp,2022.2.2,Win32,144.1129846,,,,,,,,,,,,,,,,,,masks/mask_004.jpg,,,,,,,,,,,,,,,,,,,,,,,,,,,,,,,,,,,,,,,,,,,,,,,,0,4,4,3,1,,,,,,,,,,,,,,,,,,,,,,,,,,,,,,,,,,,,,,,,,
576318,001,2022-11-21_24h56.25.540,Info_measure_main_exp,2022.2.2,Win32,144.1129846,,,,,,,,,,,,,,,,,,,,,,,,,,,,,,0,0.6109,1,,,,,,,,,,,,0,131,5,5,2154,2154,absent_patch/patch0002154.jpg,absent_patch/patch0002154.jpg,,,,,,,,,,,,,,,,,,,,-0.032407407,0.077777778,1,0,0,response7disk,30,-0.010185185,0.006481481,1,0,0,center_square,0,29,29,89,1,,,,,,,,,,,,,,,,,,,,,,,
576318,001,2022-11-21_24h56.25.540,Info_measure_main_exp,2022.2.2,Win32,144.1129846,,,,,,,,,,,,,,,,,,masks/mask_004.jpg,,,,,,,,,,,,,,,,,,,,,,,,,,,,,,,,,,,,,,,,,,,0,0,0,3,1,,,,,,,,,,,,,,,,,,,,,,,,,,,,,,,,,,,,,,,,,,,,,,
576318,001,2022-11-21_24h56.25.540,Info_measure_main_exp,2022.2.2,Win32,144.1129846,,,,,,,,,,,,,,,,,,masks/mask_003.jpg,,,,,,,,,,,,,,,,,,,,,,,,,,,,,,,,,,,,,,,,,,,0,1,1,2,1,,,,,,,,,,,,,,,,,,,,,,,,,,,,,,,,,,,,,,,,,,,,,,
576318,001,2022-11-21_24h56.25.540,Info_measure_main_exp,2022.2.2,Win32,144.1129846,,,,,,,,,,,,,,,,,,masks/mask_005.jpg,,,,,,,,,,,,,,,,,,,,,,,,,,,,,,,,,,,,,,,,,,,0,2,2,4,1,,,,,,,,,,,,,,,,,,,,,,,,,,,,,,,,,,,,,,,,,,,,,,
576318,001,2022-11-21_24h56.25.540,Info_measure_main_exp,2022.2.2,Win32,144.1129846,,,,,,,,,,,,,,,,,,masks/mask_002.jpg,,,,,,,,,,,,,,,,,,,,,,,,,,,,,,,,,,,,,,,,,,,0,3,3,1,1,,,,,,,,,,,,,,,,,,,,,,,,,,,,,,,,,,,,,,,,,,,,,,
576318,001,2022-11-21_24h56.25.540,Info_measure_main_exp,2022.2.2,Win32,144.1129846,,,,,,,,,,,,,,,,,,masks/mask_001.jpg,,,,,,,,,,,,,,,,,,,,,,,,,,,,,,,,,,,,,,,,,,,0,4,4,0,1,,,,,,,,,,,,,,,,,,,,,,,,,,,,,,,,,,,,,,,,,,,,,,
576318,001,2022-11-21_24h56.25.540,Info_measure_main_exp,2022.2.2,Win32,144.1129846,,,,,,,,,,,,,,,,,,masks/mask_005.jpg,,,,,,,,,,,,,,,,,,,,,,,,,,,,,,,,,,,,,,,,,,,,,,,,0,0,0,4,1,,,,,,,,,,,,,,,,,,,,,,,,,,,,,,,,,,,,,,,,,
576318,001,2022-11-21_24h56.25.540,Info_measure_main_exp,2022.2.2,Win32,144.1129846,,,,,,,,,,,,,,,,,,masks/mask_004.jpg,,,,,,,,,,,,,,,,,,,,,,,,,,,,,,,,,,,,,,,,,,,,,,,,0,1,1,3,1,,,,,,,,,,,,,,,,,,,,,,,,,,,,,,,,,,,,,,,,,
576318,001,2022-11-21_24h56.25.540,Info_measure_main_exp,2022.2.2,Win32,144.1129846,,,,,,,,,,,,,,,,,,masks/mask_003.jpg,,,,,,,,,,,,,,,,,,,,,,,,,,,,,,,,,,,,,,,,,,,,,,,,0,2,2,2,1,,,,,,,,,,,,,,,,,,,,,,,,,,,,,,,,,,,,,,,,,
576318,001,2022-11-21_24h56.25.540,Info_measure_main_exp,2022.2.2,Win32,144.1129846,,,,,,,,,,,,,,,,,,masks/mask_001.jpg,,,,,,,,,,,,,,,,,,,,,,,,,,,,,,,,,,,,,,,,,,,,,,,,0,3,3,0,1,,,,,,,,,,,,,,,,,,,,,,,,,,,,,,,,,,,,,,,,,
576318,001,2022-11-21_24h56.25.540,Info_measure_main_exp,2022.2.2,Win32,144.1129846,,,,,,,,,,,,,,,,,,masks/mask_002.jpg,,,,,,,,,,,,,,,,,,,,,,,,,,,,,,,,,,,,,,,,,,,,,,,,0,4,4,1,1,,,,,,,,,,,,,,,,,,,,,,,,,,,,,,,,,,,,,,,,,
576318,001,2022-11-21_24h56.25.540,Info_measure_main_exp,2022.2.2,Win32,144.1129846,,,,,,,,,,,,,,,,,,,,,,,,,,,,,,7,0.4515,1,,,,,,,,,,,,0,131,5,5,2166,2154,absent_patch/patch0002166.jpg,absent_patch/patch0002154.jpg,,,,,,,,,,,,,,,,,,,,0.041666667,0.088888889,1,0,0,response1disk,31,-0.00462963,0.002777778,1,0,0,center_square,0,30,30,79,1,,,,,,,,,,,,,,,,,,,,,,,
576318,001,2022-11-21_24h56.25.540,Info_measure_main_exp,2022.2.2,Win32,144.1129846,,,,,,,,,,,,,,,,,,masks/mask_004.jpg,,,,,,,,,,,,,,,,,,,,,,,,,,,,,,,,,,,,,,,,,,,0,0,0,3,1,,,,,,,,,,,,,,,,,,,,,,,,,,,,,,,,,,,,,,,,,,,,,,
576318,001,2022-11-21_24h56.25.540,Info_measure_main_exp,2022.2.2,Win32,144.1129846,,,,,,,,,,,,,,,,,,masks/mask_005.jpg,,,,,,,,,,,,,,,,,,,,,,,,,,,,,,,,,,,,,,,,,,,0,1,1,4,1,,,,,,,,,,,,,,,,,,,,,,,,,,,,,,,,,,,,,,,,,,,,,,
576318,001,2022-11-21_24h56.25.540,Info_measure_main_exp,2022.2.2,Win32,144.1129846,,,,,,,,,,,,,,,,,,masks/mask_001.jpg,,,,,,,,,,,,,,,,,,,,,,,,,,,,,,,,,,,,,,,,,,,0,2,2,0,1,,,,,,,,,,,,,,,,,,,,,,,,,,,,,,,,,,,,,,,,,,,,,,
576318,001,2022-11-21_24h56.25.540,Info_measure_main_exp,2022.2.2,Win32,144.1129846,,,,,,,,,,,,,,,,,,masks/mask_003.jpg,,,,,,,,,,,,,,,,,,,,,,,,,,,,,,,,,,,,,,,,,,,0,3,3,2,1,,,,,,,,,,,,,,,,,,,,,,,,,,,,,,,,,,,,,,,,,,,,,,
576318,001,2022-11-21_24h56.25.540,Info_measure_main_exp,2022.2.2,Win32,144.1129846,,,,,,,,,,,,,,,,,,masks/mask_002.jpg,,,,,,,,,,,,,,,,,,,,,,,,,,,,,,,,,,,,,,,,,,,0,4,4,1,1,,,,,,,,,,,,,,,,,,,,,,,,,,,,,,,,,,,,,,,,,,,,,,
576318,001,2022-11-21_24h56.25.540,Info_measure_main_exp,2022.2.2,Win32,144.1129846,,,,,,,,,,,,,,,,,,masks/mask_003.jpg,,,,,,,,,,,,,,,,,,,,,,,,,,,,,,,,,,,,,,,,,,,,,,,,0,0,0,2,1,,,,,,,,,,,,,,,,,,,,,,,,,,,,,,,,,,,,,,,,,
576318,001,2022-11-21_24h56.25.540,Info_measure_main_exp,2022.2.2,Win32,144.1129846,,,,,,,,,,,,,,,,,,masks/mask_002.jpg,,,,,,,,,,,,,,,,,,,,,,,,,,,,,,,,,,,,,,,,,,,,,,,,0,1,1,1,1,,,,,,,,,,,,,,,,,,,,,,,,,,,,,,,,,,,,,,,,,
576318,001,2022-11-21_24h56.25.540,Info_measure_main_exp,2022.2.2,Win32,144.1129846,,,,,,,,,,,,,,,,,,masks/mask_005.jpg,,,,,,,,,,,,,,,,,,,,,,,,,,,,,,,,,,,,,,,,,,,,,,,,0,2,2,4,1,,,,,,,,,,,,,,,,,,,,,,,,,,,,,,,,,,,,,,,,,
576318,001,2022-11-21_24h56.25.540,Info_measure_main_exp,2022.2.2,Win32,144.1129846,,,,,,,,,,,,,,,,,,masks/mask_001.jpg,,,,,,,,,,,,,,,,,,,,,,,,,,,,,,,,,,,,,,,,,,,,,,,,0,3,3,0,1,,,,,,,,,,,,,,,,,,,,,,,,,,,,,,,,,,,,,,,,,
576318,001,2022-11-21_24h56.25.540,Info_measure_main_exp,2022.2.2,Win32,144.1129846,,,,,,,,,,,,,,,,,,masks/mask_004.jpg,,,,,,,,,,,,,,,,,,,,,,,,,,,,,,,,,,,,,,,,,,,,,,,,0,4,4,3,1,,,,,,,,,,,,,,,,,,,,,,,,,,,,,,,,,,,,,,,,,
576318,001,2022-11-21_24h56.25.540,Info_measure_main_exp,2022.2.2,Win32,144.1129846,,,,,,,,,,,,,,,,,,,,,,,,,,,,,,7,0.4308,1,,,,,,,,,,,,0,131,5,5,2298,1986,absent_patch/patch0002298.jpg,absent_patch/patch0001986.jpg,,,,,,,,,,,,,,,,,,,,0.026851852,0.071296296,1,0,0,response1disk,32,0.000925926,0.003703704,1,0,0,center_square,0,31,31,32,1,,,,,,,,,,,,,,,,,,,,,,,
576318,001,2022-11-21_24h56.25.540,Info_measure_main_exp,2022.2.2,Win32,144.1129846,,,,,,,,,,,,,,,,,,masks/mask_003.jpg,,,,,,,,,,,,,,,,,,,,,,,,,,,,,,,,,,,,,,,,,,,0,0,0,2,1,,,,,,,,,,,,,,,,,,,,,,,,,,,,,,,,,,,,,,,,,,,,,,
576318,001,2022-11-21_24h56.25.540,Info_measure_main_exp,2022.2.2,Win32,144.1129846,,,,,,,,,,,,,,,,,,masks/mask_001.jpg,,,,,,,,,,,,,,,,,,,,,,,,,,,,,,,,,,,,,,,,,,,0,1,1,0,1,,,,,,,,,,,,,,,,,,,,,,,,,,,,,,,,,,,,,,,,,,,,,,
576318,001,2022-11-21_24h56.25.540,Info_measure_main_exp,2022.2.2,Win32,144.1129846,,,,,,,,,,,,,,,,,,masks/mask_005.jpg,,,,,,,,,,,,,,,,,,,,,,,,,,,,,,,,,,,,,,,,,,,0,2,2,4,1,,,,,,,,,,,,,,,,,,,,,,,,,,,,,,,,,,,,,,,,,,,,,,
576318,001,2022-11-21_24h56.25.540,Info_measure_main_exp,2022.2.2,Win32,144.1129846,,,,,,,,,,,,,,,,,,masks/mask_002.jpg,,,,,,,,,,,,,,,,,,,,,,,,,,,,,,,,,,,,,,,,,,,0,3,3,1,1,,,,,,,,,,,,,,,,,,,,,,,,,,,,,,,,,,,,,,,,,,,,,,
576318,001,2022-11-21_24h56.25.540,Info_measure_main_exp,2022.2.2,Win32,144.1129846,,,,,,,,,,,,,,,,,,masks/mask_004.jpg,,,,,,,,,,,,,,,,,,,,,,,,,,,,,,,,,,,,,,,,,,,0,4,4,3,1,,,,,,,,,,,,,,,,,,,,,,,,,,,,,,,,,,,,,,,,,,,,,,
576318,001,2022-11-21_24h56.25.540,Info_measure_main_exp,2022.2.2,Win32,144.1129846,,,,,,,,,,,,,,,,,,masks/mask_002.jpg,,,,,,,,,,,,,,,,,,,,,,,,,,,,,,,,,,,,,,,,,,,,,,,,0,0,0,1,1,,,,,,,,,,,,,,,,,,,,,,,,,,,,,,,,,,,,,,,,,
576318,001,2022-11-21_24h56.25.540,Info_measure_main_exp,2022.2.2,Win32,144.1129846,,,,,,,,,,,,,,,,,,masks/mask_005.jpg,,,,,,,,,,,,,,,,,,,,,,,,,,,,,,,,,,,,,,,,,,,,,,,,0,1,1,4,1,,,,,,,,,,,,,,,,,,,,,,,,,,,,,,,,,,,,,,,,,
576318,001,2022-11-21_24h56.25.540,Info_measure_main_exp,2022.2.2,Win32,144.1129846,,,,,,,,,,,,,,,,,,masks/mask_003.jpg,,,,,,,,,,,,,,,,,,,,,,,,,,,,,,,,,,,,,,,,,,,,,,,,0,2,2,2,1,,,,,,,,,,,,,,,,,,,,,,,,,,,,,,,,,,,,,,,,,
576318,001,2022-11-21_24h56.25.540,Info_measure_main_exp,2022.2.2,Win32,144.1129846,,,,,,,,,,,,,,,,,,masks/mask_001.jpg,,,,,,,,,,,,,,,,,,,,,,,,,,,,,,,,,,,,,,,,,,,,,,,,0,3,3,0,1,,,,,,,,,,,,,,,,,,,,,,,,,,,,,,,,,,,,,,,,,
576318,001,2022-11-21_24h56.25.540,Info_measure_main_exp,2022.2.2,Win32,144.1129846,,,,,,,,,,,,,,,,,,masks/mask_004.jpg,,,,,,,,,,,,,,,,,,,,,,,,,,,,,,,,,,,,,,,,,,,,,,,,0,4,4,3,1,,,,,,,,,,,,,,,,,,,,,,,,,,,,,,,,,,,,,,,,,
576318,001,2022-11-21_24h56.25.540,Info_measure_main_exp,2022.2.2,Win32,144.1129846,,,,,,,,,,,,,,,,,,,,,,,,,,,,,,7,0.7077,1,,,,,,,,,,,,0,131,5,5,1950,2178,absent_patch/patch0001950.jpg,absent_patch/patch0002178.jpg,,,,,,,,,,,,,,,,,,,,0.009259259,0.066666667,1,0,0,response1disk,33,-0.006481481,-0.011111111,1,0,0,center_square,0,32,32,61,1,,,,,,,,,,,,,,,,,,,,,,,
576318,001,2022-11-21_24h56.25.540,Info_measure_main_exp,2022.2.2,Win32,144.1129846,,,,,,,,,,,,,,,,,,masks/mask_002.jpg,,,,,,,,,,,,,,,,,,,,,,,,,,,,,,,,,,,,,,,,,,,0,0,0,1,1,,,,,,,,,,,,,,,,,,,,,,,,,,,,,,,,,,,,,,,,,,,,,,
576318,001,2022-11-21_24h56.25.540,Info_measure_main_exp,2022.2.2,Win32,144.1129846,,,,,,,,,,,,,,,,,,masks/mask_004.jpg,,,,,,,,,,,,,,,,,,,,,,,,,,,,,,,,,,,,,,,,,,,0,1,1,3,1,,,,,,,,,,,,,,,,,,,,,,,,,,,,,,,,,,,,,,,,,,,,,,
576318,001,2022-11-21_24h56.25.540,Info_measure_main_exp,2022.2.2,Win32,144.1129846,,,,,,,,,,,,,,,,,,masks/mask_005.jpg,,,,,,,,,,,,,,,,,,,,,,,,,,,,,,,,,,,,,,,,,,,0,2,2,4,1,,,,,,,,,,,,,,,,,,,,,,,,,,,,,,,,,,,,,,,,,,,,,,
576318,001,2022-11-21_24h56.25.540,Info_measure_main_exp,2022.2.2,Win32,144.1129846,,,,,,,,,,,,,,,,,,masks/mask_001.jpg,,,,,,,,,,,,,,,,,,,,,,,,,,,,,,,,,,,,,,,,,,,0,3,3,0,1,,,,,,,,,,,,,,,,,,,,,,,,,,,,,,,,,,,,,,,,,,,,,,
576318,001,2022-11-21_24h56.25.540,Info_measure_main_exp,2022.2.2,Win32,144.1129846,,,,,,,,,,,,,,,,,,masks/mask_003.jpg,,,,,,,,,,,,,,,,,,,,,,,,,,,,,,,,,,,,,,,,,,,0,4,4,2,1,,,,,,,,,,,,,,,,,,,,,,,,,,,,,,,,,,,,,,,,,,,,,,
576318,001,2022-11-21_24h56.25.540,Info_measure_main_exp,2022.2.2,Win32,144.1129846,,,,,,,,,,,,,,,,,,masks/mask_004.jpg,,,,,,,,,,,,,,,,,,,,,,,,,,,,,,,,,,,,,,,,,,,,,,,,0,0,0,3,1,,,,,,,,,,,,,,,,,,,,,,,,,,,,,,,,,,,,,,,,,
576318,001,2022-11-21_24h56.25.540,Info_measure_main_exp,2022.2.2,Win32,144.1129846,,,,,,,,,,,,,,,,,,masks/mask_001.jpg,,,,,,,,,,,,,,,,,,,,,,,,,,,,,,,,,,,,,,,,,,,,,,,,0,1,1,0,1,,,,,,,,,,,,,,,,,,,,,,,,,,,,,,,,,,,,,,,,,
576318,001,2022-11-21_24h56.25.540,Info_measure_main_exp,2022.2.2,Win32,144.1129846,,,,,,,,,,,,,,,,,,masks/mask_002.jpg,,,,,,,,,,,,,,,,,,,,,,,,,,,,,,,,,,,,,,,,,,,,,,,,0,2,2,1,1,,,,,,,,,,,,,,,,,,,,,,,,,,,,,,,,,,,,,,,,,
576318,001,2022-11-21_24h56.25.540,Info_measure_main_exp,2022.2.2,Win32,144.1129846,,,,,,,,,,,,,,,,,,masks/mask_005.jpg,,,,,,,,,,,,,,,,,,,,,,,,,,,,,,,,,,,,,,,,,,,,,,,,0,3,3,4,1,,,,,,,,,,,,,,,,,,,,,,,,,,,,,,,,,,,,,,,,,
576318,001,2022-11-21_24h56.25.540,Info_measure_main_exp,2022.2.2,Win32,144.1129846,,,,,,,,,,,,,,,,,,masks/mask_003.jpg,,,,,,,,,,,,,,,,,,,,,,,,,,,,,,,,,,,,,,,,,,,,,,,,0,4,4,2,1,,,,,,,,,,,,,,,,,,,,,,,,,,,,,,,,,,,,,,,,,
576318,001,2022-11-21_24h56.25.540,Info_measure_main_exp,2022.2.2,Win32,144.1129846,,,,,,,,,,,,,,,,,,,,,,,,,,,,,,7,0.5209,1,,,,,,,,,,,,0,131,5,5,1950,2166,absent_patch/patch0001950.jpg,absent_patch/patch0002166.jpg,,,,,,,,,,,,,,,,,,,,0.038888889,0.062037037,1,0,0,response1disk,34,-0.005555556,0,1,0,0,center_square,0,33,33,0,1,,,,,,,,,,,,,,,,,,,,,,,
576318,001,2022-11-21_24h56.25.540,Info_measure_main_exp,2022.2.2,Win32,144.1129846,,,,,,,,,,,,,,,,,,masks/mask_003.jpg,,,,,,,,,,,,,,,,,,,,,,,,,,,,,,,,,,,,,,,,,,,0,0,0,2,1,,,,,,,,,,,,,,,,,,,,,,,,,,,,,,,,,,,,,,,,,,,,,,
576318,001,2022-11-21_24h56.25.540,Info_measure_main_exp,2022.2.2,Win32,144.1129846,,,,,,,,,,,,,,,,,,masks/mask_004.jpg,,,,,,,,,,,,,,,,,,,,,,,,,,,,,,,,,,,,,,,,,,,0,1,1,3,1,,,,,,,,,,,,,,,,,,,,,,,,,,,,,,,,,,,,,,,,,,,,,,
576318,001,2022-11-21_24h56.25.540,Info_measure_main_exp,2022.2.2,Win32,144.1129846,,,,,,,,,,,,,,,,,,masks/mask_005.jpg,,,,,,,,,,,,,,,,,,,,,,,,,,,,,,,,,,,,,,,,,,,0,2,2,4,1,,,,,,,,,,,,,,,,,,,,,,,,,,,,,,,,,,,,,,,,,,,,,,
576318,001,2022-11-21_24h56.25.540,Info_measure_main_exp,2022.2.2,Win32,144.1129846,,,,,,,,,,,,,,,,,,masks/mask_001.jpg,,,,,,,,,,,,,,,,,,,,,,,,,,,,,,,,,,,,,,,,,,,0,3,3,0,1,,,,,,,,,,,,,,,,,,,,,,,,,,,,,,,,,,,,,,,,,,,,,,
576318,001,2022-11-21_24h56.25.540,Info_measure_main_exp,2022.2.2,Win32,144.1129846,,,,,,,,,,,,,,,,,,masks/mask_002.jpg,,,,,,,,,,,,,,,,,,,,,,,,,,,,,,,,,,,,,,,,,,,0,4,4,1,1,,,,,,,,,,,,,,,,,,,,,,,,,,,,,,,,,,,,,,,,,,,,,,
576318,001,2022-11-21_24h56.25.540,Info_measure_main_exp,2022.2.2,Win32,144.1129846,,,,,,,,,,,,,,,,,,masks/mask_002.jpg,,,,,,,,,,,,,,,,,,,,,,,,,,,,,,,,,,,,,,,,,,,,,,,,0,0,0,1,1,,,,,,,,,,,,,,,,,,,,,,,,,,,,,,,,,,,,,,,,,
576318,001,2022-11-21_24h56.25.540,Info_measure_main_exp,2022.2.2,Win32,144.1129846,,,,,,,,,,,,,,,,,,masks/mask_005.jpg,,,,,,,,,,,,,,,,,,,,,,,,,,,,,,,,,,,,,,,,,,,,,,,,0,1,1,4,1,,,,,,,,,,,,,,,,,,,,,,,,,,,,,,,,,,,,,,,,,
576318,001,2022-11-21_24h56.25.540,Info_measure_main_exp,2022.2.2,Win32,144.1129846,,,,,,,,,,,,,,,,,,masks/mask_001.jpg,,,,,,,,,,,,,,,,,,,,,,,,,,,,,,,,,,,,,,,,,,,,,,,,0,2,2,0,1,,,,,,,,,,,,,,,,,,,,,,,,,,,,,,,,,,,,,,,,,
576318,001,2022-11-21_24h56.25.540,Info_measure_main_exp,2022.2.2,Win32,144.1129846,,,,,,,,,,,,,,,,,,masks/mask_004.jpg,,,,,,,,,,,,,,,,,,,,,,,,,,,,,,,,,,,,,,,,,,,,,,,,0,3,3,3,1,,,,,,,,,,,,,,,,,,,,,,,,,,,,,,,,,,,,,,,,,
