participant,session,date,expName,psychopyVersion,OS,frameRate,space_press_continue.keys,space_press_continue.rt,space_press_continue_2.keys,space_press_continue_2.rt,space_press_continue_3.keys,space_press_continue_3.rt,space_press_continue_4.keys,space_press_continue_4.rt,space_press_continue_5.keys,space_press_continue_5.rt,space_press_continue_6.keys,space_press_continue_6.rt,prac_mask_loop_1.thisRepN,prac_mask_loop_1.thisTrialN,prac_mask_loop_1.thisN,prac_mask_loop_1.thisIndex,prac_mask_loop_1.ran,mask_name,prac_mask_loop_2.thisRepN,prac_mask_loop_2.thisTrialN,prac_mask_loop_2.thisN,prac_mask_loop_2.thisIndex,prac_mask_loop_2.ran,mouse_2.x,mouse_2.y,mouse_2.leftButton,mouse_2.midButton,mouse_2.rightButton,mouse_2.clicked_name,similarity,response_time,Pass,mouse_12.x,mouse_12.y,mouse_12.leftButton,mouse_12.midButton,mouse_12.rightButton,mouse_12.clicked_name,prac_loop.thisRepN,prac_loop.thisTrialN,prac_loop.thisN,prac_loop.thisIndex,prac_loop.ran,Pair_type,Image_num,Patch_1_loc,Patch_2_loc,Patch_1_info,Patch_2_info,Patch_1_name,Patch_2_name,mouse_1.x,mouse_1.y,mouse_1.leftButton,mouse_1.midButton,mouse_1.rightButton,mouse_1.time,mouse_1.clicked_name,space_press_continue_7.keys,space_press_continue_7.rt,mask_loop.thisRepN,mask_loop.thisTrialN,mask_loop.thisN,mask_loop.thisIndex,mask_loop.ran,mask_loop_2.thisRepN,mask_loop_2.thisTrialN,mask_loop_2.thisN,mask_loop_2.thisIndex,mask_loop_2.ran,mouse.x,mouse.y,mouse.leftButton,mouse.midButton,mouse.rightButton,mouse.clicked_name,trialNumber,mouse_11.x,mouse_11.y,mouse_11.leftButton,mouse_11.midButton,mouse_11.rightButton,mouse_11.clicked_name,first_pass_loop.thisRepN,first_pass_loop.thisTrialN,first_pass_loop.thisN,first_pass_loop.thisIndex,first_pass_loop.ran,mask_loop_3.thisRepN,mask_loop_3.thisTrialN,mask_loop_3.thisN,mask_loop_3.thisIndex,mask_loop_3.ran,mask_loop_4.thisRepN,mask_loop_4.thisTrialN,mask_loop_4.thisN,mask_loop_4.thisIndex,mask_loop_4.ran,mouse_3.x,mouse_3.y,mouse_3.leftButton,mouse_3.midButton,mouse_3.rightButton,mouse_3.clicked_name,double_pass_loop.thisRepN,double_pass_loop.thisTrialN,double_pass_loop.thisN,double_pass_loop.thisIndex,double_pass_loop.ran,space_exit.keys,space_exit.rt
586864,001,2022-11-20_16h57.11.916,Info_measure_main_exp,2022.2.2,Win32,60.0060006,,,,,,,,,,,,,,,,,,,,,,,,,,,,,,,,,,,,,,,,,,,,,,,,,,,,,,,,,,,,,,,,,,,,,,,,,,,,,,,,,,,,,,,,,,,,,,,,,,,,,,,,,,,,,,,
586864,001,2022-11-20_16h57.11.916,Info_measure_main_exp,2022.2.2,Win32,60.0060006,,,,,,,,,,,,,,,,,,,,,,,,,,,,,,,,,,,,,,,,,,,,,,,,,,,,,,,,,,,,,,,,,,,,,,,,,,,,,,,,,,,,,,,,,,,,,,,,,,,,,,,,,,,,,,,
586864,001,2022-11-20_16h57.11.916,Info_measure_main_exp,2022.2.2,Win32,60.0060006,space,5.926,,,,,,,,,,,,,,,,,,,,,,,,,,,,,,,,,,,,,,,,,,,,,,,,,,,,,,,,,,,,,,,,,,,,,,,,,,,,,,,,,,,,,,,,,,,,,,,,,,,,,,,,,,,,,
586864,001,2022-11-20_16h57.11.916,Info_measure_main_exp,2022.2.2,Win32,60.0060006,,,space,13.3887,,,,,,,,,,,,,,,,,,,,,,,,,,,,,,,,,,,,,,,,,,,,,,,,,,,,,,,,,,,,,,,,,,,,,,,,,,,,,,,,,,,,,,,,,,,,,,,,,,,,,,,,,,,
586864,001,2022-11-20_16h57.11.916,Info_measure_main_exp,2022.2.2,Win32,60.0060006,,,,,space,9.7372,,,,,,,,,,,,,,,,,,,,,,,,,,,,,,,,,,,,,,,,,,,,,,,,,,,,,,,,,,,,,,,,,,,,,,,,,,,,,,,,,,,,,,,,,,,,,,,,,,,,,,,,,
586864,001,2022-11-20_16h57.11.916,Info_measure_main_exp,2022.2.2,Win32,60.0060006,,,,,,,space,22.4323,,,,,,,,,,,,,,,,,,,,,,,,,,,,,,,,,,,,,,,,,,,,,,,,,,,,,,,,,,,,,,,,,,,,,,,,,,,,,,,,,,,,,,,,,,,,,,,,,,,,,,,
586864,001,2022-11-20_16h57.11.916,Info_measure_main_exp,2022.2.2,Win32,60.0060006,,,,,,,,,space,6.0282,,,,,,,,,,,,,,,,,,,,,,,,,,,,,,,,,,,,,,,,,,,,,,,,,,,,,,,,,,,,,,,,,,,,,,,,,,,,,,,,,,,,,,,,,,,,,,,,,,,,,
586864,001,2022-11-20_16h57.11.916,Info_measure_main_exp,2022.2.2,Win32,60.0060006,,,,,,,,,,,space,2.8334,,,,,,,,,,,,,,,,,,,,,,,,,,,,,,,,,,,,,,,,,,,,,,,,,,,,,,,,,,,,,,,,,,,,,,,,,,,,,,,,,,,,,,,,,,,,,,,,,,,
586864,001,2022-11-20_16h57.11.916,Info_measure_main_exp,2022.2.2,Win32,60.0060006,,,,,,,,,,,,,0,0,0,1,1,masks/mask_002.jpg,,,,,,,,,,,,,,,,,,,,,,,,,,,,,,,,,,,,,,,,,,,,,,,,,,,,,,,,,,,,,,,,,,,,,,,,,,,,,,,,,,,,,,,,,,,,,
586864,001,2022-11-20_16h57.11.916,Info_measure_main_exp,2022.2.2,Win32,60.0060006,,,,,,,,,,,,,0,1,1,0,1,masks/mask_001.jpg,,,,,,,,,,,,,,,,,,,,,,,,,,,,,,,,,,,,,,,,,,,,,,,,,,,,,,,,,,,,,,,,,,,,,,,,,,,,,,,,,,,,,,,,,,,,,
586864,001,2022-11-20_16h57.11.916,Info_measure_main_exp,2022.2.2,Win32,60.0060006,,,,,,,,,,,,,0,2,2,3,1,masks/mask_004.jpg,,,,,,,,,,,,,,,,,,,,,,,,,,,,,,,,,,,,,,,,,,,,,,,,,,,,,,,,,,,,,,,,,,,,,,,,,,,,,,,,,,,,,,,,,,,,,
586864,001,2022-11-20_16h57.11.916,Info_measure_main_exp,2022.2.2,Win32,60.0060006,,,,,,,,,,,,,0,3,3,4,1,masks/mask_005.jpg,,,,,,,,,,,,,,,,,,,,,,,,,,,,,,,,,,,,,,,,,,,,,,,,,,,,,,,,,,,,,,,,,,,,,,,,,,,,,,,,,,,,,,,,,,,,,
586864,001,2022-11-20_16h57.11.916,Info_measure_main_exp,2022.2.2,Win32,60.0060006,,,,,,,,,,,,,0,4,4,2,1,masks/mask_003.jpg,,,,,,,,,,,,,,,,,,,,,,,,,,,,,,,,,,,,,,,,,,,,,,,,,,,,,,,,,,,,,,,,,,,,,,,,,,,,,,,,,,,,,,,,,,,,,
586864,001,2022-11-20_16h57.11.916,Info_measure_main_exp,2022.2.2,Win32,60.0060006,,,,,,,,,,,,,,,,,,masks/mask_004.jpg,0,0,0,3,1,,,,,,,,,,,,,,,,,,,,,,,,,,,,,,,,,,,,,,,,,,,,,,,,,,,,,,,,,,,,,,,,,,,,,,,,,,,,,,,,,,,,,,,,
586864,001,2022-11-20_16h57.11.916,Info_measure_main_exp,2022.2.2,Win32,60.0060006,,,,,,,,,,,,,,,,,,masks/mask_002.jpg,0,1,1,1,1,,,,,,,,,,,,,,,,,,,,,,,,,,,,,,,,,,,,,,,,,,,,,,,,,,,,,,,,,,,,,,,,,,,,,,,,,,,,,,,,,,,,,,,,
586864,001,2022-11-20_16h57.11.916,Info_measure_main_exp,2022.2.2,Win32,60.0060006,,,,,,,,,,,,,,,,,,masks/mask_001.jpg,0,2,2,0,1,,,,,,,,,,,,,,,,,,,,,,,,,,,,,,,,,,,,,,,,,,,,,,,,,,,,,,,,,,,,,,,,,,,,,,,,,,,,,,,,,,,,,,,,
586864,001,2022-11-20_16h57.11.916,Info_measure_main_exp,2022.2.2,Win32,60.0060006,,,,,,,,,,,,,,,,,,masks/mask_005.jpg,0,3,3,4,1,,,,,,,,,,,,,,,,,,,,,,,,,,,,,,,,,,,,,,,,,,,,,,,,,,,,,,,,,,,,,,,,,,,,,,,,,,,,,,,,,,,,,,,,
586864,001,2022-11-20_16h57.11.916,Info_measure_main_exp,2022.2.2,Win32,60.0060006,,,,,,,,,,,,,,,,,,masks/mask_003.jpg,0,4,4,2,1,,,,,,,,,,,,,,,,,,,,,,,,,,,,,,,,,,,,,,,,,,,,,,,,,,,,,,,,,,,,,,,,,,,,,,,,,,,,,,,,,,,,,,,,
586864,001,2022-11-20_16h57.11.916,Info_measure_main_exp,2022.2.2,Win32,60.0060006,,,,,,,,,,,,,,,,,,,,,,,,-0.041666667,0.118489583,1,0,0,response7disk,0,65.559,1,-0.001302083,0.001302083,1,0,0,center_square,0,0,0,0,1,0,131,5,5,2370,2406,prac_patch/patch0002370.jpg,prac_patch/patch0002406.jpg,,,,,,,,,,,,,,,,,,,,,,,,,,,,,,,,,,,,,,,,,,,,,,,,,,,,,,,,,,,,
586864,001,2022-11-20_16h57.11.916,Info_measure_main_exp,2022.2.2,Win32,60.0060006,,,,,,,,,,,,,0,0,0,1,1,masks/mask_002.jpg,,,,,,,,,,,,,,,,,,,,,,,,,,,,,,,,,,,,,,,,,,,,,,,,,,,,,,,,,,,,,,,,,,,,,,,,,,,,,,,,,,,,,,,,,,,,,
586864,001,2022-11-20_16h57.11.916,Info_measure_main_exp,2022.2.2,Win32,60.0060006,,,,,,,,,,,,,0,1,1,2,1,masks/mask_003.jpg,,,,,,,,,,,,,,,,,,,,,,,,,,,,,,,,,,,,,,,,,,,,,,,,,,,,,,,,,,,,,,,,,,,,,,,,,,,,,,,,,,,,,,,,,,,,,
586864,001,2022-11-20_16h57.11.916,Info_measure_main_exp,2022.2.2,Win32,60.0060006,,,,,,,,,,,,,0,2,2,4,1,masks/mask_005.jpg,,,,,,,,,,,,,,,,,,,,,,,,,,,,,,,,,,,,,,,,,,,,,,,,,,,,,,,,,,,,,,,,,,,,,,,,,,,,,,,,,,,,,,,,,,,,,
586864,001,2022-11-20_16h57.11.916,Info_measure_main_exp,2022.2.2,Win32,60.0060006,,,,,,,,,,,,,0,3,3,0,1,masks/mask_001.jpg,,,,,,,,,,,,,,,,,,,,,,,,,,,,,,,,,,,,,,,,,,,,,,,,,,,,,,,,,,,,,,,,,,,,,,,,,,,,,,,,,,,,,,,,,,,,,
586864,001,2022-11-20_16h57.11.916,Info_measure_main_exp,2022.2.2,Win32,60.0060006,,,,,,,,,,,,,0,4,4,3,1,masks/mask_004.jpg,,,,,,,,,,,,,,,,,,,,,,,,,,,,,,,,,,,,,,,,,,,,,,,,,,,,,,,,,,,,,,,,,,,,,,,,,,,,,,,,,,,,,,,,,,,,,
586864,001,2022-11-20_16h57.11.916,Info_measure_main_exp,2022.2.2,Win32,60.0060006,,,,,,,,,,,,,,,,,,masks/mask_004.jpg,0,0,0,3,1,,,,,,,,,,,,,,,,,,,,,,,,,,,,,,,,,,,,,,,,,,,,,,,,,,,,,,,,,,,,,,,,,,,,,,,,,,,,,,,,,,,,,,,,
586864,001,2022-11-20_16h57.11.916,Info_measure_main_exp,2022.2.2,Win32,60.0060006,,,,,,,,,,,,,,,,,,masks/mask_002.jpg,0,1,1,1,1,,,,,,,,,,,,,,,,,,,,,,,,,,,,,,,,,,,,,,,,,,,,,,,,,,,,,,,,,,,,,,,,,,,,,,,,,,,,,,,,,,,,,,,,
586864,001,2022-11-20_16h57.11.916,Info_measure_main_exp,2022.2.2,Win32,60.0060006,,,,,,,,,,,,,,,,,,masks/mask_001.jpg,0,2,2,0,1,,,,,,,,,,,,,,,,,,,,,,,,,,,,,,,,,,,,,,,,,,,,,,,,,,,,,,,,,,,,,,,,,,,,,,,,,,,,,,,,,,,,,,,,
586864,001,2022-11-20_16h57.11.916,Info_measure_main_exp,2022.2.2,Win32,60.0060006,,,,,,,,,,,,,,,,,,masks/mask_005.jpg,0,3,3,4,1,,,,,,,,,,,,,,,,,,,,,,,,,,,,,,,,,,,,,,,,,,,,,,,,,,,,,,,,,,,,,,,,,,,,,,,,,,,,,,,,,,,,,,,,
586864,001,2022-11-20_16h57.11.916,Info_measure_main_exp,2022.2.2,Win32,60.0060006,,,,,,,,,,,,,,,,,,masks/mask_003.jpg,0,4,4,2,1,,,,,,,,,,,,,,,,,,,,,,,,,,,,,,,,,,,,,,,,,,,,,,,,,,,,,,,,,,,,,,,,,,,,,,,,,,,,,,,,,,,,,,,,
586864,001,2022-11-20_16h57.11.916,Info_measure_main_exp,2022.2.2,Win32,60.0060006,,,,,,,,,,,,,,,,,,,,,,,,0.087239583,0.02734375,1,0,0,response1disk,6,78.9419,1,0.001302083,-0.001302083,1,0,0,center_square,0,1,1,1,1,0,131,5,5,2514,2490,prac_patch/patch0002514.jpg,prac_patch/patch0002490.jpg,,,,,,,,,,,,,,,,,,,,,,,,,,,,,,,,,,,,,,,,,,,,,,,,,,,,,,,,,,,,
586864,001,2022-11-20_16h57.11.916,Info_measure_main_exp,2022.2.2,Win32,60.0060006,,,,,,,,,,,,,0,0,0,3,1,masks/mask_004.jpg,,,,,,,,,,,,,,,,,,,,,,,,,,,,,,,,,,,,,,,,,,,,,,,,,,,,,,,,,,,,,,,,,,,,,,,,,,,,,,,,,,,,,,,,,,,,,
586864,001,2022-11-20_16h57.11.916,Info_measure_main_exp,2022.2.2,Win32,60.0060006,,,,,,,,,,,,,0,1,1,4,1,masks/mask_005.jpg,,,,,,,,,,,,,,,,,,,,,,,,,,,,,,,,,,,,,,,,,,,,,,,,,,,,,,,,,,,,,,,,,,,,,,,,,,,,,,,,,,,,,,,,,,,,,
586864,001,2022-11-20_16h57.11.916,Info_measure_main_exp,2022.2.2,Win32,60.0060006,,,,,,,,,,,,,0,2,2,1,1,masks/mask_002.jpg,,,,,,,,,,,,,,,,,,,,,,,,,,,,,,,,,,,,,,,,,,,,,,,,,,,,,,,,,,,,,,,,,,,,,,,,,,,,,,,,,,,,,,,,,,,,,
586864,001,2022-11-20_16h57.11.916,Info_measure_main_exp,2022.2.2,Win32,60.0060006,,,,,,,,,,,,,0,3,3,2,1,masks/mask_003.jpg,,,,,,,,,,,,,,,,,,,,,,,,,,,,,,,,,,,,,,,,,,,,,,,,,,,,,,,,,,,,,,,,,,,,,,,,,,,,,,,,,,,,,,,,,,,,,
586864,001,2022-11-20_16h57.11.916,Info_measure_main_exp,2022.2.2,Win32,60.0060006,,,,,,,,,,,,,0,4,4,0,1,masks/mask_001.jpg,,,,,,,,,,,,,,,,,,,,,,,,,,,,,,,,,,,,,,,,,,,,,,,,,,,,,,,,,,,,,,,,,,,,,,,,,,,,,,,,,,,,,,,,,,,,,
586864,001,2022-11-20_16h57.11.916,Info_measure_main_exp,2022.2.2,Win32,60.0060006,,,,,,,,,,,,,,,,,,masks/mask_001.jpg,0,0,0,0,1,,,,,,,,,,,,,,,,,,,,,,,,,,,,,,,,,,,,,,,,,,,,,,,,,,,,,,,,,,,,,,,,,,,,,,,,,,,,,,,,,,,,,,,,
586864,001,2022-11-20_16h57.11.916,Info_measure_main_exp,2022.2.2,Win32,60.0060006,,,,,,,,,,,,,,,,,,masks/mask_005.jpg,0,1,1,4,1,,,,,,,,,,,,,,,,,,,,,,,,,,,,,,,,,,,,,,,,,,,,,,,,,,,,,,,,,,,,,,,,,,,,,,,,,,,,,,,,,,,,,,,,
586864,001,2022-11-20_16h57.11.916,Info_measure_main_exp,2022.2.2,Win32,60.0060006,,,,,,,,,,,,,,,,,,masks/mask_003.jpg,0,2,2,2,1,,,,,,,,,,,,,,,,,,,,,,,,,,,,,,,,,,,,,,,,,,,,,,,,,,,,,,,,,,,,,,,,,,,,,,,,,,,,,,,,,,,,,,,,
586864,001,2022-11-20_16h57.11.916,Info_measure_main_exp,2022.2.2,Win32,60.0060006,,,,,,,,,,,,,,,,,,masks/mask_004.jpg,0,3,3,3,1,,,,,,,,,,,,,,,,,,,,,,,,,,,,,,,,,,,,,,,,,,,,,,,,,,,,,,,,,,,,,,,,,,,,,,,,,,,,,,,,,,,,,,,,
586864,001,2022-11-20_16h57.11.916,Info_measure_main_exp,2022.2.2,Win32,60.0060006,,,,,,,,,,,,,,,,,,masks/mask_002.jpg,0,4,4,1,1,,,,,,,,,,,,,,,,,,,,,,,,,,,,,,,,,,,,,,,,,,,,,,,,,,,,,,,,,,,,,,,,,,,,,,,,,,,,,,,,,,,,,,,,
586864,001,2022-11-20_16h57.11.916,Info_measure_main_exp,2022.2.2,Win32,60.0060006,,,,,,,,,,,,,,,,,,,,,,,,-0.022135417,0.0859375,1,0,0,response7disk,0,88.6561,1,-0.006510417,0.0078125,1,0,0,center_square,0,2,2,2,1,0,131,5,5,2526,2526,prac_patch/patch0002526.jpg,prac_patch/patch0002526.jpg,,,,,,,,,,,,,,,,,,,,,,,,,,,,,,,,,,,,,,,,,,,,,,,,,,,,,,,,,,,,
586864,001,2022-11-20_16h57.11.916,Info_measure_main_exp,2022.2.2,Win32,60.0060006,,,,,,,,,,,,,,,,,,,,,,,,,,,,,,,,,,,,,,,,,,,,,,,,,,,,,,,,,,,space,2.617,,,,,,,,,,,,,,,,,,,,,,,,,,,,,,,,,,,,,,,,,,,,,,,,,,,
586864,001,2022-11-20_16h57.11.916,Info_measure_main_exp,2022.2.2,Win32,60.0060006,,,,,,,,,,,,,,,,,,masks/mask_002.jpg,,,,,,,,,,,,,,,,,,,,,,,,,,,,,,,,,,,,,,,,,,,0,0,0,1,1,,,,,,,,,,,,,,,,,,,,,,,,,,,,,,,,,,,,,,,,,,,,,,
586864,001,2022-11-20_16h57.11.916,Info_measure_main_exp,2022.2.2,Win32,60.0060006,,,,,,,,,,,,,,,,,,masks/mask_005.jpg,,,,,,,,,,,,,,,,,,,,,,,,,,,,,,,,,,,,,,,,,,,0,1,1,4,1,,,,,,,,,,,,,,,,,,,,,,,,,,,,,,,,,,,,,,,,,,,,,,
586864,001,2022-11-20_16h57.11.916,Info_measure_main_exp,2022.2.2,Win32,60.0060006,,,,,,,,,,,,,,,,,,masks/mask_001.jpg,,,,,,,,,,,,,,,,,,,,,,,,,,,,,,,,,,,,,,,,,,,0,2,2,0,1,,,,,,,,,,,,,,,,,,,,,,,,,,,,,,,,,,,,,,,,,,,,,,
586864,001,2022-11-20_16h57.11.916,Info_measure_main_exp,2022.2.2,Win32,60.0060006,,,,,,,,,,,,,,,,,,masks/mask_004.jpg,,,,,,,,,,,,,,,,,,,,,,,,,,,,,,,,,,,,,,,,,,,0,3,3,3,1,,,,,,,,,,,,,,,,,,,,,,,,,,,,,,,,,,,,,,,,,,,,,,
586864,001,2022-11-20_16h57.11.916,Info_measure_main_exp,2022.2.2,Win32,60.0060006,,,,,,,,,,,,,,,,,,masks/mask_003.jpg,,,,,,,,,,,,,,,,,,,,,,,,,,,,,,,,,,,,,,,,,,,0,4,4,2,1,,,,,,,,,,,,,,,,,,,,,,,,,,,,,,,,,,,,,,,,,,,,,,
586864,001,2022-11-20_16h57.11.916,Info_measure_main_exp,2022.2.2,Win32,60.0060006,,,,,,,,,,,,,,,,,,masks/mask_003.jpg,,,,,,,,,,,,,,,,,,,,,,,,,,,,,,,,,,,,,,,,,,,,,,,,0,0,0,2,1,,,,,,,,,,,,,,,,,,,,,,,,,,,,,,,,,,,,,,,,,
586864,001,2022-11-20_16h57.11.916,Info_measure_main_exp,2022.2.2,Win32,60.0060006,,,,,,,,,,,,,,,,,,masks/mask_005.jpg,,,,,,,,,,,,,,,,,,,,,,,,,,,,,,,,,,,,,,,,,,,,,,,,0,1,1,4,1,,,,,,,,,,,,,,,,,,,,,,,,,,,,,,,,,,,,,,,,,
586864,001,2022-11-20_16h57.11.916,Info_measure_main_exp,2022.2.2,Win32,60.0060006,,,,,,,,,,,,,,,,,,masks/mask_002.jpg,,,,,,,,,,,,,,,,,,,,,,,,,,,,,,,,,,,,,,,,,,,,,,,,0,2,2,1,1,,,,,,,,,,,,,,,,,,,,,,,,,,,,,,,,,,,,,,,,,
586864,001,2022-11-20_16h57.11.916,Info_measure_main_exp,2022.2.2,Win32,60.0060006,,,,,,,,,,,,,,,,,,masks/mask_001.jpg,,,,,,,,,,,,,,,,,,,,,,,,,,,,,,,,,,,,,,,,,,,,,,,,0,3,3,0,1,,,,,,,,,,,,,,,,,,,,,,,,,,,,,,,,,,,,,,,,,
586864,001,2022-11-20_16h57.11.916,Info_measure_main_exp,2022.2.2,Win32,60.0060006,,,,,,,,,,,,,,,,,,masks/mask_004.jpg,,,,,,,,,,,,,,,,,,,,,,,,,,,,,,,,,,,,,,,,,,,,,,,,0,4,4,3,1,,,,,,,,,,,,,,,,,,,,,,,,,,,,,,,,,,,,,,,,,
586864,001,2022-11-20_16h57.11.916,Info_measure_main_exp,2022.2.2,Win32,60.0060006,,,,,,,,,,,,,,,,,,,,,,,,,,,,,,7,0.8594,1,,,,,,,,,,,,0,131,5,5,1950,2166,absent_patch/patch0001950.jpg,absent_patch/patch0002166.jpg,,,,,,,,,,,,,,,,,,,,0.032552083,0.0625,1,0,0,response1disk,1,0.001302083,-0.014322917,1,0,0,center_square,0,0,0,0,1,,,,,,,,,,,,,,,,,,,,,,,
586864,001,2022-11-20_16h57.11.916,Info_measure_main_exp,2022.2.2,Win32,60.0060006,,,,,,,,,,,,,,,,,,masks/mask_003.jpg,,,,,,,,,,,,,,,,,,,,,,,,,,,,,,,,,,,,,,,,,,,0,0,0,2,1,,,,,,,,,,,,,,,,,,,,,,,,,,,,,,,,,,,,,,,,,,,,,,
586864,001,2022-11-20_16h57.11.916,Info_measure_main_exp,2022.2.2,Win32,60.0060006,,,,,,,,,,,,,,,,,,masks/mask_005.jpg,,,,,,,,,,,,,,,,,,,,,,,,,,,,,,,,,,,,,,,,,,,0,1,1,4,1,,,,,,,,,,,,,,,,,,,,,,,,,,,,,,,,,,,,,,,,,,,,,,
586864,001,2022-11-20_16h57.11.916,Info_measure_main_exp,2022.2.2,Win32,60.0060006,,,,,,,,,,,,,,,,,,masks/mask_002.jpg,,,,,,,,,,,,,,,,,,,,,,,,,,,,,,,,,,,,,,,,,,,0,2,2,1,1,,,,,,,,,,,,,,,,,,,,,,,,,,,,,,,,,,,,,,,,,,,,,,
586864,001,2022-11-20_16h57.11.916,Info_measure_main_exp,2022.2.2,Win32,60.0060006,,,,,,,,,,,,,,,,,,masks/mask_001.jpg,,,,,,,,,,,,,,,,,,,,,,,,,,,,,,,,,,,,,,,,,,,0,3,3,0,1,,,,,,,,,,,,,,,,,,,,,,,,,,,,,,,,,,,,,,,,,,,,,,
586864,001,2022-11-20_16h57.11.916,Info_measure_main_exp,2022.2.2,Win32,60.0060006,,,,,,,,,,,,,,,,,,masks/mask_004.jpg,,,,,,,,,,,,,,,,,,,,,,,,,,,,,,,,,,,,,,,,,,,0,4,4,3,1,,,,,,,,,,,,,,,,,,,,,,,,,,,,,,,,,,,,,,,,,,,,,,
586864,001,2022-11-20_16h57.11.916,Info_measure_main_exp,2022.2.2,Win32,60.0060006,,,,,,,,,,,,,,,,,,masks/mask_002.jpg,,,,,,,,,,,,,,,,,,,,,,,,,,,,,,,,,,,,,,,,,,,,,,,,0,0,0,1,1,,,,,,,,,,,,,,,,,,,,,,,,,,,,,,,,,,,,,,,,,
586864,001,2022-11-20_16h57.11.916,Info_measure_main_exp,2022.2.2,Win32,60.0060006,,,,,,,,,,,,,,,,,,masks/mask_005.jpg,,,,,,,,,,,,,,,,,,,,,,,,,,,,,,,,,,,,,,,,,,,,,,,,0,1,1,4,1,,,,,,,,,,,,,,,,,,,,,,,,,,,,,,,,,,,,,,,,,
586864,001,2022-11-20_16h57.11.916,Info_measure_main_exp,2022.2.2,Win32,60.0060006,,,,,,,,,,,,,,,,,,masks/mask_001.jpg,,,,,,,,,,,,,,,,,,,,,,,,,,,,,,,,,,,,,,,,,,,,,,,,0,2,2,0,1,,,,,,,,,,,,,,,,,,,,,,,,,,,,,,,,,,,,,,,,,
586864,001,2022-11-20_16h57.11.916,Info_measure_main_exp,2022.2.2,Win32,60.0060006,,,,,,,,,,,,,,,,,,masks/mask_004.jpg,,,,,,,,,,,,,,,,,,,,,,,,,,,,,,,,,,,,,,,,,,,,,,,,0,3,3,3,1,,,,,,,,,,,,,,,,,,,,,,,,,,,,,,,,,,,,,,,,,
586864,001,2022-11-20_16h57.11.916,Info_measure_main_exp,2022.2.2,Win32,60.0060006,,,,,,,,,,,,,,,,,,masks/mask_003.jpg,,,,,,,,,,,,,,,,,,,,,,,,,,,,,,,,,,,,,,,,,,,,,,,,0,4,4,2,1,,,,,,,,,,,,,,,,,,,,,,,,,,,,,,,,,,,,,,,,,
586864,001,2022-11-20_16h57.11.916,Info_measure_main_exp,2022.2.2,Win32,60.0060006,,,,,,,,,,,,,,,,,,,,,,,,,,,,,,6,2.1963,1,,,,,,,,,,,,0,131,5,5,1950,2238,absent_patch/patch0001950.jpg,absent_patch/patch0002238.jpg,,,,,,,,,,,,,,,,,,,,0.063802083,0.055989583,1,0,0,response1disk,2,0.005208333,0.00390625,1,0,0,center_square,0,1,1,8,1,,,,,,,,,,,,,,,,,,,,,,,
586864,001,2022-11-20_16h57.11.916,Info_measure_main_exp,2022.2.2,Win32,60.0060006,,,,,,,,,,,,,,,,,,masks/mask_005.jpg,,,,,,,,,,,,,,,,,,,,,,,,,,,,,,,,,,,,,,,,,,,0,0,0,4,1,,,,,,,,,,,,,,,,,,,,,,,,,,,,,,,,,,,,,,,,,,,,,,
586864,001,2022-11-20_16h57.11.916,Info_measure_main_exp,2022.2.2,Win32,60.0060006,,,,,,,,,,,,,,,,,,masks/mask_001.jpg,,,,,,,,,,,,,,,,,,,,,,,,,,,,,,,,,,,,,,,,,,,0,1,1,0,1,,,,,,,,,,,,,,,,,,,,,,,,,,,,,,,,,,,,,,,,,,,,,,
586864,001,2022-11-20_16h57.11.916,Info_measure_main_exp,2022.2.2,Win32,60.0060006,,,,,,,,,,,,,,,,,,masks/mask_004.jpg,,,,,,,,,,,,,,,,,,,,,,,,,,,,,,,,,,,,,,,,,,,0,2,2,3,1,,,,,,,,,,,,,,,,,,,,,,,,,,,,,,,,,,,,,,,,,,,,,,
586864,001,2022-11-20_16h57.11.916,Info_measure_main_exp,2022.2.2,Win32,60.0060006,,,,,,,,,,,,,,,,,,masks/mask_002.jpg,,,,,,,,,,,,,,,,,,,,,,,,,,,,,,,,,,,,,,,,,,,0,3,3,1,1,,,,,,,,,,,,,,,,,,,,,,,,,,,,,,,,,,,,,,,,,,,,,,
586864,001,2022-11-20_16h57.11.916,Info_measure_main_exp,2022.2.2,Win32,60.0060006,,,,,,,,,,,,,,,,,,masks/mask_003.jpg,,,,,,,,,,,,,,,,,,,,,,,,,,,,,,,,,,,,,,,,,,,0,4,4,2,1,,,,,,,,,,,,,,,,,,,,,,,,,,,,,,,,,,,,,,,,,,,,,,
586864,001,2022-11-20_16h57.11.916,Info_measure_main_exp,2022.2.2,Win32,60.0060006,,,,,,,,,,,,,,,,,,masks/mask_002.jpg,,,,,,,,,,,,,,,,,,,,,,,,,,,,,,,,,,,,,,,,,,,,,,,,0,0,0,1,1,,,,,,,,,,,,,,,,,,,,,,,,,,,,,,,,,,,,,,,,,
586864,001,2022-11-20_16h57.11.916,Info_measure_main_exp,2022.2.2,Win32,60.0060006,,,,,,,,,,,,,,,,,,masks/mask_005.jpg,,,,,,,,,,,,,,,,,,,,,,,,,,,,,,,,,,,,,,,,,,,,,,,,0,1,1,4,1,,,,,,,,,,,,,,,,,,,,,,,,,,,,,,,,,,,,,,,,,
586864,001,2022-11-20_16h57.11.916,Info_measure_main_exp,2022.2.2,Win32,60.0060006,,,,,,,,,,,,,,,,,,masks/mask_001.jpg,,,,,,,,,,,,,,,,,,,,,,,,,,,,,,,,,,,,,,,,,,,,,,,,0,2,2,0,1,,,,,,,,,,,,,,,,,,,,,,,,,,,,,,,,,,,,,,,,,
586864,001,2022-11-20_16h57.11.916,Info_measure_main_exp,2022.2.2,Win32,60.0060006,,,,,,,,,,,,,,,,,,masks/mask_003.jpg,,,,,,,,,,,,,,,,,,,,,,,,,,,,,,,,,,,,,,,,,,,,,,,,0,3,3,2,1,,,,,,,,,,,,,,,,,,,,,,,,,,,,,,,,,,,,,,,,,
586864,001,2022-11-20_16h57.11.916,Info_measure_main_exp,2022.2.2,Win32,60.0060006,,,,,,,,,,,,,,,,,,masks/mask_004.jpg,,,,,,,,,,,,,,,,,,,,,,,,,,,,,,,,,,,,,,,,,,,,,,,,0,4,4,3,1,,,,,,,,,,,,,,,,,,,,,,,,,,,,,,,,,,,,,,,,,
586864,001,2022-11-20_16h57.11.916,Info_measure_main_exp,2022.2.2,Win32,60.0060006,,,,,,,,,,,,,,,,,,,,,,,,,,,,,,4,1.4719,1,,,,,,,,,,,,0,131,5,5,2274,2154,absent_patch/patch0002274.jpg,absent_patch/patch0002154.jpg,,,,,,,,,,,,,,,,,,,,0.03125,-0.071614583,1,0,0,response3disk,3,0.002604167,0.0078125,1,0,0,center_square,0,2,2,23,1,,,,,,,,,,,,,,,,,,,,,,,
586864,001,2022-11-20_16h57.11.916,Info_measure_main_exp,2022.2.2,Win32,60.0060006,,,,,,,,,,,,,,,,,,masks/mask_002.jpg,,,,,,,,,,,,,,,,,,,,,,,,,,,,,,,,,,,,,,,,,,,0,0,0,1,1,,,,,,,,,,,,,,,,,,,,,,,,,,,,,,,,,,,,,,,,,,,,,,
586864,001,2022-11-20_16h57.11.916,Info_measure_main_exp,2022.2.2,Win32,60.0060006,,,,,,,,,,,,,,,,,,masks/mask_004.jpg,,,,,,,,,,,,,,,,,,,,,,,,,,,,,,,,,,,,,,,,,,,0,1,1,3,1,,,,,,,,,,,,,,,,,,,,,,,,,,,,,,,,,,,,,,,,,,,,,,
586864,001,2022-11-20_16h57.11.916,Info_measure_main_exp,2022.2.2,Win32,60.0060006,,,,,,,,,,,,,,,,,,masks/mask_005.jpg,,,,,,,,,,,,,,,,,,,,,,,,,,,,,,,,,,,,,,,,,,,0,2,2,4,1,,,,,,,,,,,,,,,,,,,,,,,,,,,,,,,,,,,,,,,,,,,,,,
586864,001,2022-11-20_16h57.11.916,Info_measure_main_exp,2022.2.2,Win32,60.0060006,,,,,,,,,,,,,,,,,,masks/mask_001.jpg,,,,,,,,,,,,,,,,,,,,,,,,,,,,,,,,,,,,,,,,,,,0,3,3,0,1,,,,,,,,,,,,,,,,,,,,,,,,,,,,,,,,,,,,,,,,,,,,,,
586864,001,2022-11-20_16h57.11.916,Info_measure_main_exp,2022.2.2,Win32,60.0060006,,,,,,,,,,,,,,,,,,masks/mask_003.jpg,,,,,,,,,,,,,,,,,,,,,,,,,,,,,,,,,,,,,,,,,,,0,4,4,2,1,,,,,,,,,,,,,,,,,,,,,,,,,,,,,,,,,,,,,,,,,,,,,,
586864,001,2022-11-20_16h57.11.916,Info_measure_main_exp,2022.2.2,Win32,60.0060006,,,,,,,,,,,,,,,,,,masks/mask_002.jpg,,,,,,,,,,,,,,,,,,,,,,,,,,,,,,,,,,,,,,,,,,,,,,,,0,0,0,1,1,,,,,,,,,,,,,,,,,,,,,,,,,,,,,,,,,,,,,,,,,
586864,001,2022-11-20_16h57.11.916,Info_measure_main_exp,2022.2.2,Win32,60.0060006,,,,,,,,,,,,,,,,,,masks/mask_004.jpg,,,,,,,,,,,,,,,,,,,,,,,,,,,,,,,,,,,,,,,,,,,,,,,,0,1,1,3,1,,,,,,,,,,,,,,,,,,,,,,,,,,,,,,,,,,,,,,,,,
586864,001,2022-11-20_16h57.11.916,Info_measure_main_exp,2022.2.2,Win32,60.0060006,,,,,,,,,,,,,,,,,,masks/mask_003.jpg,,,,,,,,,,,,,,,,,,,,,,,,,,,,,,,,,,,,,,,,,,,,,,,,0,2,2,2,1,,,,,,,,,,,,,,,,,,,,,,,,,,,,,,,,,,,,,,,,,
586864,001,2022-11-20_16h57.11.916,Info_measure_main_exp,2022.2.2,Win32,60.0060006,,,,,,,,,,,,,,,,,,masks/mask_005.jpg,,,,,,,,,,,,,,,,,,,,,,,,,,,,,,,,,,,,,,,,,,,,,,,,0,3,3,4,1,,,,,,,,,,,,,,,,,,,,,,,,,,,,,,,,,,,,,,,,,
586864,001,2022-11-20_16h57.11.916,Info_measure_main_exp,2022.2.2,Win32,60.0060006,,,,,,,,,,,,,,,,,,masks/mask_001.jpg,,,,,,,,,,,,,,,,,,,,,,,,,,,,,,,,,,,,,,,,,,,,,,,,0,4,4,0,1,,,,,,,,,,,,,,,,,,,,,,,,,,,,,,,,,,,,,,,,,
586864,001,2022-11-20_16h57.11.916,Info_measure_main_exp,2022.2.2,Win32,60.0060006,,,,,,,,,,,,,,,,,,,,,,,,,,,,,,5,1.3347,1,,,,,,,,,,,,0,131,5,5,2190,2214,absent_patch/patch0002190.jpg,absent_patch/patch0002214.jpg,,,,,,,,,,,,,,,,,,,,0.072916667,-0.013020833,1,0,0,response3disk,4,0.005208333,0.013020833,1,0,0,center_square,0,3,3,35,1,,,,,,,,,,,,,,,,,,,,,,,
586864,001,2022-11-20_16h57.11.916,Info_measure_main_exp,2022.2.2,Win32,60.0060006,,,,,,,,,,,,,,,,,,masks/mask_005.jpg,,,,,,,,,,,,,,,,,,,,,,,,,,,,,,,,,,,,,,,,,,,0,0,0,4,1,,,,,,,,,,,,,,,,,,,,,,,,,,,,,,,,,,,,,,,,,,,,,,
586864,001,2022-11-20_16h57.11.916,Info_measure_main_exp,2022.2.2,Win32,60.0060006,,,,,,,,,,,,,,,,,,masks/mask_003.jpg,,,,,,,,,,,,,,,,,,,,,,,,,,,,,,,,,,,,,,,,,,,0,1,1,2,1,,,,,,,,,,,,,,,,,,,,,,,,,,,,,,,,,,,,,,,,,,,,,,
586864,001,2022-11-20_16h57.11.916,Info_measure_main_exp,2022.2.2,Win32,60.0060006,,,,,,,,,,,,,,,,,,masks/mask_004.jpg,,,,,,,,,,,,,,,,,,,,,,,,,,,,,,,,,,,,,,,,,,,0,2,2,3,1,,,,,,,,,,,,,,,,,,,,,,,,,,,,,,,,,,,,,,,,,,,,,,
586864,001,2022-11-20_16h57.11.916,Info_measure_main_exp,2022.2.2,Win32,60.0060006,,,,,,,,,,,,,,,,,,masks/mask_002.jpg,,,,,,,,,,,,,,,,,,,,,,,,,,,,,,,,,,,,,,,,,,,0,3,3,1,1,,,,,,,,,,,,,,,,,,,,,,,,,,,,,,,,,,,,,,,,,,,,,,
586864,001,2022-11-20_16h57.11.916,Info_measure_main_exp,2022.2.2,Win32,60.0060006,,,,,,,,,,,,,,,,,,masks/mask_001.jpg,,,,,,,,,,,,,,,,,,,,,,,,,,,,,,,,,,,,,,,,,,,0,4,4,0,1,,,,,,,,,,,,,,,,,,,,,,,,,,,,,,,,,,,,,,,,,,,,,,
586864,001,2022-11-20_16h57.11.916,Info_measure_main_exp,2022.2.2,Win32,60.0060006,,,,,,,,,,,,,,,,,,masks/mask_001.jpg,,,,,,,,,,,,,,,,,,,,,,,,,,,,,,,,,,,,,,,,,,,,,,,,0,0,0,0,1,,,,,,,,,,,,,,,,,,,,,,,,,,,,,,,,,,,,,,,,,
586864,001,2022-11-20_16h57.11.916,Info_measure_main_exp,2022.2.2,Win32,60.0060006,,,,,,,,,,,,,,,,,,masks/mask_004.jpg,,,,,,,,,,,,,,,,,,,,,,,,,,,,,,,,,,,,,,,,,,,,,,,,0,1,1,3,1,,,,,,,,,,,,,,,,,,,,,,,,,,,,,,,,,,,,,,,,,
586864,001,2022-11-20_16h57.11.916,Info_measure_main_exp,2022.2.2,Win32,60.0060006,,,,,,,,,,,,,,,,,,masks/mask_005.jpg,,,,,,,,,,,,,,,,,,,,,,,,,,,,,,,,,,,,,,,,,,,,,,,,0,2,2,4,1,,,,,,,,,,,,,,,,,,,,,,,,,,,,,,,,,,,,,,,,,
586864,001,2022-11-20_16h57.11.916,Info_measure_main_exp,2022.2.2,Win32,60.0060006,,,,,,,,,,,,,,,,,,masks/mask_002.jpg,,,,,,,,,,,,,,,,,,,,,,,,,,,,,,,,,,,,,,,,,,,,,,,,0,3,3,1,1,,,,,,,,,,,,,,,,,,,,,,,,,,,,,,,,,,,,,,,,,
586864,001,2022-11-20_16h57.11.916,Info_measure_main_exp,2022.2.2,Win32,60.0060006,,,,,,,,,,,,,,,,,,masks/mask_003.jpg,,,,,,,,,,,,,,,,,,,,,,,,,,,,,,,,,,,,,,,,,,,,,,,,0,4,4,2,1,,,,,,,,,,,,,,,,,,,,,,,,,,,,,,,,,,,,,,,,,
586864,001,2022-11-20_16h57.11.916,Info_measure_main_exp,2022.2.2,Win32,60.0060006,,,,,,,,,,,,,,,,,,,,,,,,,,,,,,3,1.4011,1,,,,,,,,,,,,0,131,5,5,1974,2178,absent_patch/patch0001974.jpg,absent_patch/patch0002178.jpg,,,,,,,,,,,,,,,,,,,,-0.055989583,-0.061197917,1,0,0,response5disk,5,-0.0078125,0.005208333,1,0,0,center_square,0,4,4,44,1,,,,,,,,,,,,,,,,,,,,,,,
586864,001,2022-11-20_16h57.11.916,Info_measure_main_exp,2022.2.2,Win32,60.0060006,,,,,,,,,,,,,,,,,,masks/mask_001.jpg,,,,,,,,,,,,,,,,,,,,,,,,,,,,,,,,,,,,,,,,,,,0,0,0,0,1,,,,,,,,,,,,,,,,,,,,,,,,,,,,,,,,,,,,,,,,,,,,,,
586864,001,2022-11-20_16h57.11.916,Info_measure_main_exp,2022.2.2,Win32,60.0060006,,,,,,,,,,,,,,,,,,masks/mask_002.jpg,,,,,,,,,,,,,,,,,,,,,,,,,,,,,,,,,,,,,,,,,,,0,1,1,1,1,,,,,,,,,,,,,,,,,,,,,,,,,,,,,,,,,,,,,,,,,,,,,,
586864,001,2022-11-20_16h57.11.916,Info_measure_main_exp,2022.2.2,Win32,60.0060006,,,,,,,,,,,,,,,,,,masks/mask_003.jpg,,,,,,,,,,,,,,,,,,,,,,,,,,,,,,,,,,,,,,,,,,,0,2,2,2,1,,,,,,,,,,,,,,,,,,,,,,,,,,,,,,,,,,,,,,,,,,,,,,
586864,001,2022-11-20_16h57.11.916,Info_measure_main_exp,2022.2.2,Win32,60.0060006,,,,,,,,,,,,,,,,,,masks/mask_004.jpg,,,,,,,,,,,,,,,,,,,,,,,,,,,,,,,,,,,,,,,,,,,0,3,3,3,1,,,,,,,,,,,,,,,,,,,,,,,,,,,,,,,,,,,,,,,,,,,,,,
586864,001,2022-11-20_16h57.11.916,Info_measure_main_exp,2022.2.2,Win32,60.0060006,,,,,,,,,,,,,,,,,,masks/mask_005.jpg,,,,,,,,,,,,,,,,,,,,,,,,,,,,,,,,,,,,,,,,,,,0,4,4,4,1,,,,,,,,,,,,,,,,,,,,,,,,,,,,,,,,,,,,,,,,,,,,,,
586864,001,2022-11-20_16h57.11.916,Info_measure_main_exp,2022.2.2,Win32,60.0060006,,,,,,,,,,,,,,,,,,masks/mask_002.jpg,,,,,,,,,,,,,,,,,,,,,,,,,,,,,,,,,,,,,,,,,,,,,,,,0,0,0,1,1,,,,,,,,,,,,,,,,,,,,,,,,,,,,,,,,,,,,,,,,,
586864,001,2022-11-20_16h57.11.916,Info_measure_main_exp,2022.2.2,Win32,60.0060006,,,,,,,,,,,,,,,,,,masks/mask_003.jpg,,,,,,,,,,,,,,,,,,,,,,,,,,,,,,,,,,,,,,,,,,,,,,,,0,1,1,2,1,,,,,,,,,,,,,,,,,,,,,,,,,,,,,,,,,,,,,,,,,
586864,001,2022-11-20_16h57.11.916,Info_measure_main_exp,2022.2.2,Win32,60.0060006,,,,,,,,,,,,,,,,,,masks/mask_005.jpg,,,,,,,,,,,,,,,,,,,,,,,,,,,,,,,,,,,,,,,,,,,,,,,,0,2,2,4,1,,,,,,,,,,,,,,,,,,,,,,,,,,,,,,,,,,,,,,,,,
586864,001,2022-11-20_16h57.11.916,Info_measure_main_exp,2022.2.2,Win32,60.0060006,,,,,,,,,,,,,,,,,,masks/mask_004.jpg,,,,,,,,,,,,,,,,,,,,,,,,,,,,,,,,,,,,,,,,,,,,,,,,0,3,3,3,1,,,,,,,,,,,,,,,,,,,,,,,,,,,,,,,,,,,,,,,,,
586864,001,2022-11-20_16h57.11.916,Info_measure_main_exp,2022.2.2,Win32,60.0060006,,,,,,,,,,,,,,,,,,masks/mask_001.jpg,,,,,,,,,,,,,,,,,,,,,,,,,,,,,,,,,,,,,,,,,,,,,,,,0,4,4,0,1,,,,,,,,,,,,,,,,,,,,,,,,,,,,,,,,,,,,,,,,,
586864,001,2022-11-20_16h57.11.916,Info_measure_main_exp,2022.2.2,Win32,60.0060006,,,,,,,,,,,,,,,,,,,,,,,,,,,,,,4,1.2063,1,,,,,,,,,,,,0,131,5,5,2154,2238,absent_patch/patch0002154.jpg,absent_patch/patch0002238.jpg,,,,,,,,,,,,,,,,,,,,0.029947917,-0.08984375,1,0,0,response3disk,6,-0.001302083,-0.009114583,1,0,0,center_square,0,5,5,21,1,,,,,,,,,,,,,,,,,,,,,,,
586864,001,2022-11-20_16h57.11.916,Info_measure_main_exp,2022.2.2,Win32,60.0060006,,,,,,,,,,,,,,,,,,masks/mask_003.jpg,,,,,,,,,,,,,,,,,,,,,,,,,,,,,,,,,,,,,,,,,,,0,0,0,2,1,,,,,,,,,,,,,,,,,,,,,,,,,,,,,,,,,,,,,,,,,,,,,,
586864,001,2022-11-20_16h57.11.916,Info_measure_main_exp,2022.2.2,Win32,60.0060006,,,,,,,,,,,,,,,,,,masks/mask_004.jpg,,,,,,,,,,,,,,,,,,,,,,,,,,,,,,,,,,,,,,,,,,,0,1,1,3,1,,,,,,,,,,,,,,,,,,,,,,,,,,,,,,,,,,,,,,,,,,,,,,
586864,001,2022-11-20_16h57.11.916,Info_measure_main_exp,2022.2.2,Win32,60.0060006,,,,,,,,,,,,,,,,,,masks/mask_001.jpg,,,,,,,,,,,,,,,,,,,,,,,,,,,,,,,,,,,,,,,,,,,0,2,2,0,1,,,,,,,,,,,,,,,,,,,,,,,,,,,,,,,,,,,,,,,,,,,,,,
586864,001,2022-11-20_16h57.11.916,Info_measure_main_exp,2022.2.2,Win32,60.0060006,,,,,,,,,,,,,,,,,,masks/mask_002.jpg,,,,,,,,,,,,,,,,,,,,,,,,,,,,,,,,,,,,,,,,,,,0,3,3,1,1,,,,,,,,,,,,,,,,,,,,,,,,,,,,,,,,,,,,,,,,,,,,,,
586864,001,2022-11-20_16h57.11.916,Info_measure_main_exp,2022.2.2,Win32,60.0060006,,,,,,,,,,,,,,,,,,masks/mask_005.jpg,,,,,,,,,,,,,,,,,,,,,,,,,,,,,,,,,,,,,,,,,,,0,4,4,4,1,,,,,,,,,,,,,,,,,,,,,,,,,,,,,,,,,,,,,,,,,,,,,,
586864,001,2022-11-20_16h57.11.916,Info_measure_main_exp,2022.2.2,Win32,60.0060006,,,,,,,,,,,,,,,,,,masks/mask_002.jpg,,,,,,,,,,,,,,,,,,,,,,,,,,,,,,,,,,,,,,,,,,,,,,,,0,0,0,1,1,,,,,,,,,,,,,,,,,,,,,,,,,,,,,,,,,,,,,,,,,
586864,001,2022-11-20_16h57.11.916,Info_measure_main_exp,2022.2.2,Win32,60.0060006,,,,,,,,,,,,,,,,,,masks/mask_001.jpg,,,,,,,,,,,,,,,,,,,,,,,,,,,,,,,,,,,,,,,,,,,,,,,,0,1,1,0,1,,,,,,,,,,,,,,,,,,,,,,,,,,,,,,,,,,,,,,,,,
586864,001,2022-11-20_16h57.11.916,Info_measure_main_exp,2022.2.2,Win32,60.0060006,,,,,,,,,,,,,,,,,,masks/mask_003.jpg,,,,,,,,,,,,,,,,,,,,,,,,,,,,,,,,,,,,,,,,,,,,,,,,0,2,2,2,1,,,,,,,,,,,,,,,,,,,,,,,,,,,,,,,,,,,,,,,,,
586864,001,2022-11-20_16h57.11.916,Info_measure_main_exp,2022.2.2,Win32,60.0060006,,,,,,,,,,,,,,,,,,masks/mask_005.jpg,,,,,,,,,,,,,,,,,,,,,,,,,,,,,,,,,,,,,,,,,,,,,,,,0,3,3,4,1,,,,,,,,,,,,,,,,,,,,,,,,,,,,,,,,,,,,,,,,,
586864,001,2022-11-20_16h57.11.916,Info_measure_main_exp,2022.2.2,Win32,60.0060006,,,,,,,,,,,,,,,,,,masks/mask_004.jpg,,,,,,,,,,,,,,,,,,,,,,,,,,,,,,,,,,,,,,,,,,,,,,,,0,4,4,3,1,,,,,,,,,,,,,,,,,,,,,,,,,,,,,,,,,,,,,,,,,
586864,001,2022-11-20_16h57.11.916,Info_measure_main_exp,2022.2.2,Win32,60.0060006,,,,,,,,,,,,,,,,,,,,,,,,,,,,,,5,1.3288,1,,,,,,,,,,,,0,131,5,5,2238,2214,absent_patch/patch0002238.jpg,absent_patch/patch0002214.jpg,,,,,,,,,,,,,,,,,,,,0.088541667,-0.026041667,1,0,0,response3disk,7,0.014322917,0.0078125,1,0,0,center_square,0,6,6,81,1,,,,,,,,,,,,,,,,,,,,,,,
586864,001,2022-11-20_16h57.11.916,Info_measure_main_exp,2022.2.2,Win32,60.0060006,,,,,,,,,,,,,,,,,,masks/mask_003.jpg,,,,,,,,,,,,,,,,,,,,,,,,,,,,,,,,,,,,,,,,,,,0,0,0,2,1,,,,,,,,,,,,,,,,,,,,,,,,,,,,,,,,,,,,,,,,,,,,,,
586864,001,2022-11-20_16h57.11.916,Info_measure_main_exp,2022.2.2,Win32,60.0060006,,,,,,,,,,,,,,,,,,masks/mask_004.jpg,,,,,,,,,,,,,,,,,,,,,,,,,,,,,,,,,,,,,,,,,,,0,1,1,3,1,,,,,,,,,,,,,,,,,,,,,,,,,,,,,,,,,,,,,,,,,,,,,,
586864,001,2022-11-20_16h57.11.916,Info_measure_main_exp,2022.2.2,Win32,60.0060006,,,,,,,,,,,,,,,,,,masks/mask_001.jpg,,,,,,,,,,,,,,,,,,,,,,,,,,,,,,,,,,,,,,,,,,,0,2,2,0,1,,,,,,,,,,,,,,,,,,,,,,,,,,,,,,,,,,,,,,,,,,,,,,
586864,001,2022-11-20_16h57.11.916,Info_measure_main_exp,2022.2.2,Win32,60.0060006,,,,,,,,,,,,,,,,,,masks/mask_005.jpg,,,,,,,,,,,,,,,,,,,,,,,,,,,,,,,,,,,,,,,,,,,0,3,3,4,1,,,,,,,,,,,,,,,,,,,,,,,,,,,,,,,,,,,,,,,,,,,,,,
586864,001,2022-11-20_16h57.11.916,Info_measure_main_exp,2022.2.2,Win32,60.0060006,,,,,,,,,,,,,,,,,,masks/mask_002.jpg,,,,,,,,,,,,,,,,,,,,,,,,,,,,,,,,,,,,,,,,,,,0,4,4,1,1,,,,,,,,,,,,,,,,,,,,,,,,,,,,,,,,,,,,,,,,,,,,,,
586864,001,2022-11-20_16h57.11.916,Info_measure_main_exp,2022.2.2,Win32,60.0060006,,,,,,,,,,,,,,,,,,masks/mask_005.jpg,,,,,,,,,,,,,,,,,,,,,,,,,,,,,,,,,,,,,,,,,,,,,,,,0,0,0,4,1,,,,,,,,,,,,,,,,,,,,,,,,,,,,,,,,,,,,,,,,,
586864,001,2022-11-20_16h57.11.916,Info_measure_main_exp,2022.2.2,Win32,60.0060006,,,,,,,,,,,,,,,,,,masks/mask_004.jpg,,,,,,,,,,,,,,,,,,,,,,,,,,,,,,,,,,,,,,,,,,,,,,,,0,1,1,3,1,,,,,,,,,,,,,,,,,,,,,,,,,,,,,,,,,,,,,,,,,
586864,001,2022-11-20_16h57.11.916,Info_measure_main_exp,2022.2.2,Win32,60.0060006,,,,,,,,,,,,,,,,,,masks/mask_003.jpg,,,,,,,,,,,,,,,,,,,,,,,,,,,,,,,,,,,,,,,,,,,,,,,,0,2,2,2,1,,,,,,,,,,,,,,,,,,,,,,,,,,,,,,,,,,,,,,,,,
586864,001,2022-11-20_16h57.11.916,Info_measure_main_exp,2022.2.2,Win32,60.0060006,,,,,,,,,,,,,,,,,,masks/mask_002.jpg,,,,,,,,,,,,,,,,,,,,,,,,,,,,,,,,,,,,,,,,,,,,,,,,0,3,3,1,1,,,,,,,,,,,,,,,,,,,,,,,,,,,,,,,,,,,,,,,,,
586864,001,2022-11-20_16h57.11.916,Info_measure_main_exp,2022.2.2,Win32,60.0060006,,,,,,,,,,,,,,,,,,masks/mask_001.jpg,,,,,,,,,,,,,,,,,,,,,,,,,,,,,,,,,,,,,,,,,,,,,,,,0,4,4,0,1,,,,,,,,,,,,,,,,,,,,,,,,,,,,,,,,,,,,,,,,,
586864,001,2022-11-20_16h57.11.916,Info_measure_main_exp,2022.2.2,Win32,60.0060006,,,,,,,,,,,,,,,,,,,,,,,,,,,,,,6,1.6583,1,,,,,,,,,,,,0,131,5,5,2250,1950,absent_patch/patch0002250.jpg,absent_patch/patch0001950.jpg,,,,,,,,,,,,,,,,,,,,0.061197917,0.026041667,1,0,0,response1disk,8,0.00390625,0,1,0,0,center_square,0,7,7,16,1,,,,,,,,,,,,,,,,,,,,,,,
586864,001,2022-11-20_16h57.11.916,Info_measure_main_exp,2022.2.2,Win32,60.0060006,,,,,,,,,,,,,,,,,,masks/mask_002.jpg,,,,,,,,,,,,,,,,,,,,,,,,,,,,,,,,,,,,,,,,,,,0,0,0,1,1,,,,,,,,,,,,,,,,,,,,,,,,,,,,,,,,,,,,,,,,,,,,,,
586864,001,2022-11-20_16h57.11.916,Info_measure_main_exp,2022.2.2,Win32,60.0060006,,,,,,,,,,,,,,,,,,masks/mask_005.jpg,,,,,,,,,,,,,,,,,,,,,,,,,,,,,,,,,,,,,,,,,,,0,1,1,4,1,,,,,,,,,,,,,,,,,,,,,,,,,,,,,,,,,,,,,,,,,,,,,,
586864,001,2022-11-20_16h57.11.916,Info_measure_main_exp,2022.2.2,Win32,60.0060006,,,,,,,,,,,,,,,,,,masks/mask_001.jpg,,,,,,,,,,,,,,,,,,,,,,,,,,,,,,,,,,,,,,,,,,,0,2,2,0,1,,,,,,,,,,,,,,,,,,,,,,,,,,,,,,,,,,,,,,,,,,,,,,
586864,001,2022-11-20_16h57.11.916,Info_measure_main_exp,2022.2.2,Win32,60.0060006,,,,,,,,,,,,,,,,,,masks/mask_004.jpg,,,,,,,,,,,,,,,,,,,,,,,,,,,,,,,,,,,,,,,,,,,0,3,3,3,1,,,,,,,,,,,,,,,,,,,,,,,,,,,,,,,,,,,,,,,,,,,,,,
586864,001,2022-11-20_16h57.11.916,Info_measure_main_exp,2022.2.2,Win32,60.0060006,,,,,,,,,,,,,,,,,,masks/mask_003.jpg,,,,,,,,,,,,,,,,,,,,,,,,,,,,,,,,,,,,,,,,,,,0,4,4,2,1,,,,,,,,,,,,,,,,,,,,,,,,,,,,,,,,,,,,,,,,,,,,,,
586864,001,2022-11-20_16h57.11.916,Info_measure_main_exp,2022.2.2,Win32,60.0060006,,,,,,,,,,,,,,,,,,masks/mask_002.jpg,,,,,,,,,,,,,,,,,,,,,,,,,,,,,,,,,,,,,,,,,,,,,,,,0,0,0,1,1,,,,,,,,,,,,,,,,,,,,,,,,,,,,,,,,,,,,,,,,,
586864,001,2022-11-20_16h57.11.916,Info_measure_main_exp,2022.2.2,Win32,60.0060006,,,,,,,,,,,,,,,,,,masks/mask_005.jpg,,,,,,,,,,,,,,,,,,,,,,,,,,,,,,,,,,,,,,,,,,,,,,,,0,1,1,4,1,,,,,,,,,,,,,,,,,,,,,,,,,,,,,,,,,,,,,,,,,
586864,001,2022-11-20_16h57.11.916,Info_measure_main_exp,2022.2.2,Win32,60.0060006,,,,,,,,,,,,,,,,,,masks/mask_004.jpg,,,,,,,,,,,,,,,,,,,,,,,,,,,,,,,,,,,,,,,,,,,,,,,,0,2,2,3,1,,,,,,,,,,,,,,,,,,,,,,,,,,,,,,,,,,,,,,,,,
586864,001,2022-11-20_16h57.11.916,Info_measure_main_exp,2022.2.2,Win32,60.0060006,,,,,,,,,,,,,,,,,,masks/mask_003.jpg,,,,,,,,,,,,,,,,,,,,,,,,,,,,,,,,,,,,,,,,,,,,,,,,0,3,3,2,1,,,,,,,,,,,,,,,,,,,,,,,,,,,,,,,,,,,,,,,,,
586864,001,2022-11-20_16h57.11.916,Info_measure_main_exp,2022.2.2,Win32,60.0060006,,,,,,,,,,,,,,,,,,masks/mask_001.jpg,,,,,,,,,,,,,,,,,,,,,,,,,,,,,,,,,,,,,,,,,,,,,,,,0,4,4,0,1,,,,,,,,,,,,,,,,,,,,,,,,,,,,,,,,,,,,,,,,,
586864,001,2022-11-20_16h57.11.916,Info_measure_main_exp,2022.2.2,Win32,60.0060006,,,,,,,,,,,,,,,,,,,,,,,,,,,,,,6,1.375,1,,,,,,,,,,,,0,131,5,5,2214,2166,absent_patch/patch0002214.jpg,absent_patch/patch0002166.jpg,,,,,,,,,,,,,,,,,,,,0.052083333,0.02734375,1,0,0,response1disk,9,0.006510417,0.001302083,1,0,0,center_square,0,8,8,109,1,,,,,,,,,,,,,,,,,,,,,,,
586864,001,2022-11-20_16h57.11.916,Info_measure_main_exp,2022.2.2,Win32,60.0060006,,,,,,,,,,,,,,,,,,masks/mask_003.jpg,,,,,,,,,,,,,,,,,,,,,,,,,,,,,,,,,,,,,,,,,,,0,0,0,2,1,,,,,,,,,,,,,,,,,,,,,,,,,,,,,,,,,,,,,,,,,,,,,,
586864,001,2022-11-20_16h57.11.916,Info_measure_main_exp,2022.2.2,Win32,60.0060006,,,,,,,,,,,,,,,,,,masks/mask_001.jpg,,,,,,,,,,,,,,,,,,,,,,,,,,,,,,,,,,,,,,,,,,,0,1,1,0,1,,,,,,,,,,,,,,,,,,,,,,,,,,,,,,,,,,,,,,,,,,,,,,
586864,001,2022-11-20_16h57.11.916,Info_measure_main_exp,2022.2.2,Win32,60.0060006,,,,,,,,,,,,,,,,,,masks/mask_002.jpg,,,,,,,,,,,,,,,,,,,,,,,,,,,,,,,,,,,,,,,,,,,0,2,2,1,1,,,,,,,,,,,,,,,,,,,,,,,,,,,,,,,,,,,,,,,,,,,,,,
586864,001,2022-11-20_16h57.11.916,Info_measure_main_exp,2022.2.2,Win32,60.0060006,,,,,,,,,,,,,,,,,,masks/mask_004.jpg,,,,,,,,,,,,,,,,,,,,,,,,,,,,,,,,,,,,,,,,,,,0,3,3,3,1,,,,,,,,,,,,,,,,,,,,,,,,,,,,,,,,,,,,,,,,,,,,,,
586864,001,2022-11-20_16h57.11.916,Info_measure_main_exp,2022.2.2,Win32,60.0060006,,,,,,,,,,,,,,,,,,masks/mask_005.jpg,,,,,,,,,,,,,,,,,,,,,,,,,,,,,,,,,,,,,,,,,,,0,4,4,4,1,,,,,,,,,,,,,,,,,,,,,,,,,,,,,,,,,,,,,,,,,,,,,,
586864,001,2022-11-20_16h57.11.916,Info_measure_main_exp,2022.2.2,Win32,60.0060006,,,,,,,,,,,,,,,,,,masks/mask_003.jpg,,,,,,,,,,,,,,,,,,,,,,,,,,,,,,,,,,,,,,,,,,,,,,,,0,0,0,2,1,,,,,,,,,,,,,,,,,,,,,,,,,,,,,,,,,,,,,,,,,
586864,001,2022-11-20_16h57.11.916,Info_measure_main_exp,2022.2.2,Win32,60.0060006,,,,,,,,,,,,,,,,,,masks/mask_001.jpg,,,,,,,,,,,,,,,,,,,,,,,,,,,,,,,,,,,,,,,,,,,,,,,,0,1,1,0,1,,,,,,,,,,,,,,,,,,,,,,,,,,,,,,,,,,,,,,,,,
586864,001,2022-11-20_16h57.11.916,Info_measure_main_exp,2022.2.2,Win32,60.0060006,,,,,,,,,,,,,,,,,,masks/mask_005.jpg,,,,,,,,,,,,,,,,,,,,,,,,,,,,,,,,,,,,,,,,,,,,,,,,0,2,2,4,1,,,,,,,,,,,,,,,,,,,,,,,,,,,,,,,,,,,,,,,,,
586864,001,2022-11-20_16h57.11.916,Info_measure_main_exp,2022.2.2,Win32,60.0060006,,,,,,,,,,,,,,,,,,masks/mask_004.jpg,,,,,,,,,,,,,,,,,,,,,,,,,,,,,,,,,,,,,,,,,,,,,,,,0,3,3,3,1,,,,,,,,,,,,,,,,,,,,,,,,,,,,,,,,,,,,,,,,,
586864,001,2022-11-20_16h57.11.916,Info_measure_main_exp,2022.2.2,Win32,60.0060006,,,,,,,,,,,,,,,,,,masks/mask_002.jpg,,,,,,,,,,,,,,,,,,,,,,,,,,,,,,,,,,,,,,,,,,,,,,,,0,4,4,1,1,,,,,,,,,,,,,,,,,,,,,,,,,,,,,,,,,,,,,,,,,
586864,001,2022-11-20_16h57.11.916,Info_measure_main_exp,2022.2.2,Win32,60.0060006,,,,,,,,,,,,,,,,,,,,,,,,,,,,,,0,0.8899,1,,,,,,,,,,,,1,131,5,5,1,1,present_patch/cong_131_5_a.jpg,present_patch/cong_131_5_a.jpg,,,,,,,,,,,,,,,,,,,,-0.040364583,0.057291667,1,0,0,response7disk,10,-0.010416667,0.002604167,1,0,0,center_square,0,9,9,30,1,,,,,,,,,,,,,,,,,,,,,,,
586864,001,2022-11-20_16h57.11.916,Info_measure_main_exp,2022.2.2,Win32,60.0060006,,,,,,,,,,,,,,,,,,masks/mask_004.jpg,,,,,,,,,,,,,,,,,,,,,,,,,,,,,,,,,,,,,,,,,,,0,0,0,3,1,,,,,,,,,,,,,,,,,,,,,,,,,,,,,,,,,,,,,,,,,,,,,,
586864,001,2022-11-20_16h57.11.916,Info_measure_main_exp,2022.2.2,Win32,60.0060006,,,,,,,,,,,,,,,,,,masks/mask_001.jpg,,,,,,,,,,,,,,,,,,,,,,,,,,,,,,,,,,,,,,,,,,,0,1,1,0,1,,,,,,,,,,,,,,,,,,,,,,,,,,,,,,,,,,,,,,,,,,,,,,
586864,001,2022-11-20_16h57.11.916,Info_measure_main_exp,2022.2.2,Win32,60.0060006,,,,,,,,,,,,,,,,,,masks/mask_002.jpg,,,,,,,,,,,,,,,,,,,,,,,,,,,,,,,,,,,,,,,,,,,0,2,2,1,1,,,,,,,,,,,,,,,,,,,,,,,,,,,,,,,,,,,,,,,,,,,,,,
586864,001,2022-11-20_16h57.11.916,Info_measure_main_exp,2022.2.2,Win32,60.0060006,,,,,,,,,,,,,,,,,,masks/mask_003.jpg,,,,,,,,,,,,,,,,,,,,,,,,,,,,,,,,,,,,,,,,,,,0,3,3,2,1,,,,,,,,,,,,,,,,,,,,,,,,,,,,,,,,,,,,,,,,,,,,,,
586864,001,2022-11-20_16h57.11.916,Info_measure_main_exp,2022.2.2,Win32,60.0060006,,,,,,,,,,,,,,,,,,masks/mask_005.jpg,,,,,,,,,,,,,,,,,,,,,,,,,,,,,,,,,,,,,,,,,,,0,4,4,4,1,,,,,,,,,,,,,,,,,,,,,,,,,,,,,,,,,,,,,,,,,,,,,,
586864,001,2022-11-20_16h57.11.916,Info_measure_main_exp,2022.2.2,Win32,60.0060006,,,,,,,,,,,,,,,,,,masks/mask_004.jpg,,,,,,,,,,,,,,,,,,,,,,,,,,,,,,,,,,,,,,,,,,,,,,,,0,0,0,3,1,,,,,,,,,,,,,,,,,,,,,,,,,,,,,,,,,,,,,,,,,
586864,001,2022-11-20_16h57.11.916,Info_measure_main_exp,2022.2.2,Win32,60.0060006,,,,,,,,,,,,,,,,,,masks/mask_003.jpg,,,,,,,,,,,,,,,,,,,,,,,,,,,,,,,,,,,,,,,,,,,,,,,,0,1,1,2,1,,,,,,,,,,,,,,,,,,,,,,,,,,,,,,,,,,,,,,,,,
586864,001,2022-11-20_16h57.11.916,Info_measure_main_exp,2022.2.2,Win32,60.0060006,,,,,,,,,,,,,,,,,,masks/mask_002.jpg,,,,,,,,,,,,,,,,,,,,,,,,,,,,,,,,,,,,,,,,,,,,,,,,0,2,2,1,1,,,,,,,,,,,,,,,,,,,,,,,,,,,,,,,,,,,,,,,,,
586864,001,2022-11-20_16h57.11.916,Info_measure_main_exp,2022.2.2,Win32,60.0060006,,,,,,,,,,,,,,,,,,masks/mask_001.jpg,,,,,,,,,,,,,,,,,,,,,,,,,,,,,,,,,,,,,,,,,,,,,,,,0,3,3,0,1,,,,,,,,,,,,,,,,,,,,,,,,,,,,,,,,,,,,,,,,,
586864,001,2022-11-20_16h57.11.916,Info_measure_main_exp,2022.2.2,Win32,60.0060006,,,,,,,,,,,,,,,,,,masks/mask_005.jpg,,,,,,,,,,,,,,,,,,,,,,,,,,,,,,,,,,,,,,,,,,,,,,,,0,4,4,4,1,,,,,,,,,,,,,,,,,,,,,,,,,,,,,,,,,,,,,,,,,
586864,001,2022-11-20_16h57.11.916,Info_measure_main_exp,2022.2.2,Win32,60.0060006,,,,,,,,,,,,,,,,,,,,,,,,,,,,,,5,0.9282,1,,,,,,,,,,,,0,131,5,5,2298,2214,absent_patch/patch0002298.jpg,absent_patch/patch0002214.jpg,,,,,,,,,,,,,,,,,,,,0.080729167,-0.059895833,1,0,0,response3disk,11,-0.001302083,0.005208333,1,0,0,center_square,0,10,10,99,1,,,,,,,,,,,,,,,,,,,,,,,
586864,001,2022-11-20_16h57.11.916,Info_measure_main_exp,2022.2.2,Win32,60.0060006,,,,,,,,,,,,,,,,,,masks/mask_001.jpg,,,,,,,,,,,,,,,,,,,,,,,,,,,,,,,,,,,,,,,,,,,0,0,0,0,1,,,,,,,,,,,,,,,,,,,,,,,,,,,,,,,,,,,,,,,,,,,,,,
586864,001,2022-11-20_16h57.11.916,Info_measure_main_exp,2022.2.2,Win32,60.0060006,,,,,,,,,,,,,,,,,,masks/mask_004.jpg,,,,,,,,,,,,,,,,,,,,,,,,,,,,,,,,,,,,,,,,,,,0,1,1,3,1,,,,,,,,,,,,,,,,,,,,,,,,,,,,,,,,,,,,,,,,,,,,,,
586864,001,2022-11-20_16h57.11.916,Info_measure_main_exp,2022.2.2,Win32,60.0060006,,,,,,,,,,,,,,,,,,masks/mask_005.jpg,,,,,,,,,,,,,,,,,,,,,,,,,,,,,,,,,,,,,,,,,,,0,2,2,4,1,,,,,,,,,,,,,,,,,,,,,,,,,,,,,,,,,,,,,,,,,,,,,,
586864,001,2022-11-20_16h57.11.916,Info_measure_main_exp,2022.2.2,Win32,60.0060006,,,,,,,,,,,,,,,,,,masks/mask_002.jpg,,,,,,,,,,,,,,,,,,,,,,,,,,,,,,,,,,,,,,,,,,,0,3,3,1,1,,,,,,,,,,,,,,,,,,,,,,,,,,,,,,,,,,,,,,,,,,,,,,
586864,001,2022-11-20_16h57.11.916,Info_measure_main_exp,2022.2.2,Win32,60.0060006,,,,,,,,,,,,,,,,,,masks/mask_003.jpg,,,,,,,,,,,,,,,,,,,,,,,,,,,,,,,,,,,,,,,,,,,0,4,4,2,1,,,,,,,,,,,,,,,,,,,,,,,,,,,,,,,,,,,,,,,,,,,,,,
586864,001,2022-11-20_16h57.11.916,Info_measure_main_exp,2022.2.2,Win32,60.0060006,,,,,,,,,,,,,,,,,,masks/mask_002.jpg,,,,,,,,,,,,,,,,,,,,,,,,,,,,,,,,,,,,,,,,,,,,,,,,0,0,0,1,1,,,,,,,,,,,,,,,,,,,,,,,,,,,,,,,,,,,,,,,,,
586864,001,2022-11-20_16h57.11.916,Info_measure_main_exp,2022.2.2,Win32,60.0060006,,,,,,,,,,,,,,,,,,masks/mask_001.jpg,,,,,,,,,,,,,,,,,,,,,,,,,,,,,,,,,,,,,,,,,,,,,,,,0,1,1,0,1,,,,,,,,,,,,,,,,,,,,,,,,,,,,,,,,,,,,,,,,,
586864,001,2022-11-20_16h57.11.916,Info_measure_main_exp,2022.2.2,Win32,60.0060006,,,,,,,,,,,,,,,,,,masks/mask_003.jpg,,,,,,,,,,,,,,,,,,,,,,,,,,,,,,,,,,,,,,,,,,,,,,,,0,2,2,2,1,,,,,,,,,,,,,,,,,,,,,,,,,,,,,,,,,,,,,,,,,
586864,001,2022-11-20_16h57.11.916,Info_measure_main_exp,2022.2.2,Win32,60.0060006,,,,,,,,,,,,,,,,,,masks/mask_005.jpg,,,,,,,,,,,,,,,,,,,,,,,,,,,,,,,,,,,,,,,,,,,,,,,,0,3,3,4,1,,,,,,,,,,,,,,,,,,,,,,,,,,,,,,,,,,,,,,,,,
586864,001,2022-11-20_16h57.11.916,Info_measure_main_exp,2022.2.2,Win32,60.0060006,,,,,,,,,,,,,,,,,,masks/mask_004.jpg,,,,,,,,,,,,,,,,,,,,,,,,,,,,,,,,,,,,,,,,,,,,,,,,0,4,4,3,1,,,,,,,,,,,,,,,,,,,,,,,,,,,,,,,,,,,,,,,,,
586864,001,2022-11-20_16h57.11.916,Info_measure_main_exp,2022.2.2,Win32,60.0060006,,,,,,,,,,,,,,,,,,,,,,,,,,,,,,5,1.1013,1,,,,,,,,,,,,0,131,5,5,2178,2142,absent_patch/patch0002178.jpg,absent_patch/patch0002142.jpg,,,,,,,,,,,,,,,,,,,,0.09765625,-0.063802083,1,0,0,response3disk,12,0.009114583,-0.002604167,1,0,0,center_square,0,11,11,41,1,,,,,,,,,,,,,,,,,,,,,,,
586864,001,2022-11-20_16h57.11.916,Info_measure_main_exp,2022.2.2,Win32,60.0060006,,,,,,,,,,,,,,,,,,masks/mask_003.jpg,,,,,,,,,,,,,,,,,,,,,,,,,,,,,,,,,,,,,,,,,,,0,0,0,2,1,,,,,,,,,,,,,,,,,,,,,,,,,,,,,,,,,,,,,,,,,,,,,,
586864,001,2022-11-20_16h57.11.916,Info_measure_main_exp,2022.2.2,Win32,60.0060006,,,,,,,,,,,,,,,,,,masks/mask_004.jpg,,,,,,,,,,,,,,,,,,,,,,,,,,,,,,,,,,,,,,,,,,,0,1,1,3,1,,,,,,,,,,,,,,,,,,,,,,,,,,,,,,,,,,,,,,,,,,,,,,
586864,001,2022-11-20_16h57.11.916,Info_measure_main_exp,2022.2.2,Win32,60.0060006,,,,,,,,,,,,,,,,,,masks/mask_001.jpg,,,,,,,,,,,,,,,,,,,,,,,,,,,,,,,,,,,,,,,,,,,0,2,2,0,1,,,,,,,,,,,,,,,,,,,,,,,,,,,,,,,,,,,,,,,,,,,,,,
586864,001,2022-11-20_16h57.11.916,Info_measure_main_exp,2022.2.2,Win32,60.0060006,,,,,,,,,,,,,,,,,,masks/mask_002.jpg,,,,,,,,,,,,,,,,,,,,,,,,,,,,,,,,,,,,,,,,,,,0,3,3,1,1,,,,,,,,,,,,,,,,,,,,,,,,,,,,,,,,,,,,,,,,,,,,,,
586864,001,2022-11-20_16h57.11.916,Info_measure_main_exp,2022.2.2,Win32,60.0060006,,,,,,,,,,,,,,,,,,masks/mask_005.jpg,,,,,,,,,,,,,,,,,,,,,,,,,,,,,,,,,,,,,,,,,,,0,4,4,4,1,,,,,,,,,,,,,,,,,,,,,,,,,,,,,,,,,,,,,,,,,,,,,,
586864,001,2022-11-20_16h57.11.916,Info_measure_main_exp,2022.2.2,Win32,60.0060006,,,,,,,,,,,,,,,,,,masks/mask_001.jpg,,,,,,,,,,,,,,,,,,,,,,,,,,,,,,,,,,,,,,,,,,,,,,,,0,0,0,0,1,,,,,,,,,,,,,,,,,,,,,,,,,,,,,,,,,,,,,,,,,
586864,001,2022-11-20_16h57.11.916,Info_measure_main_exp,2022.2.2,Win32,60.0060006,,,,,,,,,,,,,,,,,,masks/mask_003.jpg,,,,,,,,,,,,,,,,,,,,,,,,,,,,,,,,,,,,,,,,,,,,,,,,0,1,1,2,1,,,,,,,,,,,,,,,,,,,,,,,,,,,,,,,,,,,,,,,,,
586864,001,2022-11-20_16h57.11.916,Info_measure_main_exp,2022.2.2,Win32,60.0060006,,,,,,,,,,,,,,,,,,masks/mask_002.jpg,,,,,,,,,,,,,,,,,,,,,,,,,,,,,,,,,,,,,,,,,,,,,,,,0,2,2,1,1,,,,,,,,,,,,,,,,,,,,,,,,,,,,,,,,,,,,,,,,,
586864,001,2022-11-20_16h57.11.916,Info_measure_main_exp,2022.2.2,Win32,60.0060006,,,,,,,,,,,,,,,,,,masks/mask_005.jpg,,,,,,,,,,,,,,,,,,,,,,,,,,,,,,,,,,,,,,,,,,,,,,,,0,3,3,4,1,,,,,,,,,,,,,,,,,,,,,,,,,,,,,,,,,,,,,,,,,
586864,001,2022-11-20_16h57.11.916,Info_measure_main_exp,2022.2.2,Win32,60.0060006,,,,,,,,,,,,,,,,,,masks/mask_004.jpg,,,,,,,,,,,,,,,,,,,,,,,,,,,,,,,,,,,,,,,,,,,,,,,,0,4,4,3,1,,,,,,,,,,,,,,,,,,,,,,,,,,,,,,,,,,,,,,,,,
586864,001,2022-11-20_16h57.11.916,Info_measure_main_exp,2022.2.2,Win32,60.0060006,,,,,,,,,,,,,,,,,,,,,,,,,,,,,,5,0.7101,1,,,,,,,,,,,,0,131,5,5,2082,2154,absent_patch/patch0002082.jpg,absent_patch/patch0002154.jpg,,,,,,,,,,,,,,,,,,,,0.009114583,-0.001302083,1,0,0,response3disk,13,0.002604167,-0.001302083,1,0,0,center_square,0,12,12,33,1,,,,,,,,,,,,,,,,,,,,,,,
586864,001,2022-11-20_16h57.11.916,Info_measure_main_exp,2022.2.2,Win32,60.0060006,,,,,,,,,,,,,,,,,,masks/mask_003.jpg,,,,,,,,,,,,,,,,,,,,,,,,,,,,,,,,,,,,,,,,,,,0,0,0,2,1,,,,,,,,,,,,,,,,,,,,,,,,,,,,,,,,,,,,,,,,,,,,,,
586864,001,2022-11-20_16h57.11.916,Info_measure_main_exp,2022.2.2,Win32,60.0060006,,,,,,,,,,,,,,,,,,masks/mask_001.jpg,,,,,,,,,,,,,,,,,,,,,,,,,,,,,,,,,,,,,,,,,,,0,1,1,0,1,,,,,,,,,,,,,,,,,,,,,,,,,,,,,,,,,,,,,,,,,,,,,,
586864,001,2022-11-20_16h57.11.916,Info_measure_main_exp,2022.2.2,Win32,60.0060006,,,,,,,,,,,,,,,,,,masks/mask_002.jpg,,,,,,,,,,,,,,,,,,,,,,,,,,,,,,,,,,,,,,,,,,,0,2,2,1,1,,,,,,,,,,,,,,,,,,,,,,,,,,,,,,,,,,,,,,,,,,,,,,
586864,001,2022-11-20_16h57.11.916,Info_measure_main_exp,2022.2.2,Win32,60.0060006,,,,,,,,,,,,,,,,,,masks/mask_005.jpg,,,,,,,,,,,,,,,,,,,,,,,,,,,,,,,,,,,,,,,,,,,0,3,3,4,1,,,,,,,,,,,,,,,,,,,,,,,,,,,,,,,,,,,,,,,,,,,,,,
586864,001,2022-11-20_16h57.11.916,Info_measure_main_exp,2022.2.2,Win32,60.0060006,,,,,,,,,,,,,,,,,,masks/mask_004.jpg,,,,,,,,,,,,,,,,,,,,,,,,,,,,,,,,,,,,,,,,,,,0,4,4,3,1,,,,,,,,,,,,,,,,,,,,,,,,,,,,,,,,,,,,,,,,,,,,,,
586864,001,2022-11-20_16h57.11.916,Info_measure_main_exp,2022.2.2,Win32,60.0060006,,,,,,,,,,,,,,,,,,masks/mask_003.jpg,,,,,,,,,,,,,,,,,,,,,,,,,,,,,,,,,,,,,,,,,,,,,,,,0,0,0,2,1,,,,,,,,,,,,,,,,,,,,,,,,,,,,,,,,,,,,,,,,,
586864,001,2022-11-20_16h57.11.916,Info_measure_main_exp,2022.2.2,Win32,60.0060006,,,,,,,,,,,,,,,,,,masks/mask_002.jpg,,,,,,,,,,,,,,,,,,,,,,,,,,,,,,,,,,,,,,,,,,,,,,,,0,1,1,1,1,,,,,,,,,,,,,,,,,,,,,,,,,,,,,,,,,,,,,,,,,
586864,001,2022-11-20_16h57.11.916,Info_measure_main_exp,2022.2.2,Win32,60.0060006,,,,,,,,,,,,,,,,,,masks/mask_004.jpg,,,,,,,,,,,,,,,,,,,,,,,,,,,,,,,,,,,,,,,,,,,,,,,,0,2,2,3,1,,,,,,,,,,,,,,,,,,,,,,,,,,,,,,,,,,,,,,,,,
586864,001,2022-11-20_16h57.11.916,Info_measure_main_exp,2022.2.2,Win32,60.0060006,,,,,,,,,,,,,,,,,,masks/mask_001.jpg,,,,,,,,,,,,,,,,,,,,,,,,,,,,,,,,,,,,,,,,,,,,,,,,0,3,3,0,1,,,,,,,,,,,,,,,,,,,,,,,,,,,,,,,,,,,,,,,,,
586864,001,2022-11-20_16h57.11.916,Info_measure_main_exp,2022.2.2,Win32,60.0060006,,,,,,,,,,,,,,,,,,masks/mask_005.jpg,,,,,,,,,,,,,,,,,,,,,,,,,,,,,,,,,,,,,,,,,,,,,,,,0,4,4,4,1,,,,,,,,,,,,,,,,,,,,,,,,,,,,,,,,,,,,,,,,,
586864,001,2022-11-20_16h57.11.916,Info_measure_main_exp,2022.2.2,Win32,60.0060006,,,,,,,,,,,,,,,,,,,,,,,,,,,,,,6,0.6944,1,,,,,,,,,,,,1,131,5,5,2298,1,absent_patch/patch0002298.jpg,present_patch/cong_131_5_a.jpg,,,,,,,,,,,,,,,,,,,,0.041666667,0.015625,1,0,0,response1disk,14,0.009114583,-0.005208333,1,0,0,center_square,0,13,13,45,1,,,,,,,,,,,,,,,,,,,,,,,
586864,001,2022-11-20_16h57.11.916,Info_measure_main_exp,2022.2.2,Win32,60.0060006,,,,,,,,,,,,,,,,,,masks/mask_004.jpg,,,,,,,,,,,,,,,,,,,,,,,,,,,,,,,,,,,,,,,,,,,0,0,0,3,1,,,,,,,,,,,,,,,,,,,,,,,,,,,,,,,,,,,,,,,,,,,,,,
586864,001,2022-11-20_16h57.11.916,Info_measure_main_exp,2022.2.2,Win32,60.0060006,,,,,,,,,,,,,,,,,,masks/mask_003.jpg,,,,,,,,,,,,,,,,,,,,,,,,,,,,,,,,,,,,,,,,,,,0,1,1,2,1,,,,,,,,,,,,,,,,,,,,,,,,,,,,,,,,,,,,,,,,,,,,,,
586864,001,2022-11-20_16h57.11.916,Info_measure_main_exp,2022.2.2,Win32,60.0060006,,,,,,,,,,,,,,,,,,masks/mask_001.jpg,,,,,,,,,,,,,,,,,,,,,,,,,,,,,,,,,,,,,,,,,,,0,2,2,0,1,,,,,,,,,,,,,,,,,,,,,,,,,,,,,,,,,,,,,,,,,,,,,,
586864,001,2022-11-20_16h57.11.916,Info_measure_main_exp,2022.2.2,Win32,60.0060006,,,,,,,,,,,,,,,,,,masks/mask_005.jpg,,,,,,,,,,,,,,,,,,,,,,,,,,,,,,,,,,,,,,,,,,,0,3,3,4,1,,,,,,,,,,,,,,,,,,,,,,,,,,,,,,,,,,,,,,,,,,,,,,
586864,001,2022-11-20_16h57.11.916,Info_measure_main_exp,2022.2.2,Win32,60.0060006,,,,,,,,,,,,,,,,,,masks/mask_002.jpg,,,,,,,,,,,,,,,,,,,,,,,,,,,,,,,,,,,,,,,,,,,0,4,4,1,1,,,,,,,,,,,,,,,,,,,,,,,,,,,,,,,,,,,,,,,,,,,,,,
586864,001,2022-11-20_16h57.11.916,Info_measure_main_exp,2022.2.2,Win32,60.0060006,,,,,,,,,,,,,,,,,,masks/mask_004.jpg,,,,,,,,,,,,,,,,,,,,,,,,,,,,,,,,,,,,,,,,,,,,,,,,0,0,0,3,1,,,,,,,,,,,,,,,,,,,,,,,,,,,,,,,,,,,,,,,,,
586864,001,2022-11-20_16h57.11.916,Info_measure_main_exp,2022.2.2,Win32,60.0060006,,,,,,,,,,,,,,,,,,masks/mask_001.jpg,,,,,,,,,,,,,,,,,,,,,,,,,,,,,,,,,,,,,,,,,,,,,,,,0,1,1,0,1,,,,,,,,,,,,,,,,,,,,,,,,,,,,,,,,,,,,,,,,,
586864,001,2022-11-20_16h57.11.916,Info_measure_main_exp,2022.2.2,Win32,60.0060006,,,,,,,,,,,,,,,,,,masks/mask_002.jpg,,,,,,,,,,,,,,,,,,,,,,,,,,,,,,,,,,,,,,,,,,,,,,,,0,2,2,1,1,,,,,,,,,,,,,,,,,,,,,,,,,,,,,,,,,,,,,,,,,
586864,001,2022-11-20_16h57.11.916,Info_measure_main_exp,2022.2.2,Win32,60.0060006,,,,,,,,,,,,,,,,,,masks/mask_003.jpg,,,,,,,,,,,,,,,,,,,,,,,,,,,,,,,,,,,,,,,,,,,,,,,,0,3,3,2,1,,,,,,,,,,,,,,,,,,,,,,,,,,,,,,,,,,,,,,,,,
586864,001,2022-11-20_16h57.11.916,Info_measure_main_exp,2022.2.2,Win32,60.0060006,,,,,,,,,,,,,,,,,,masks/mask_005.jpg,,,,,,,,,,,,,,,,,,,,,,,,,,,,,,,,,,,,,,,,,,,,,,,,0,4,4,4,1,,,,,,,,,,,,,,,,,,,,,,,,,,,,,,,,,,,,,,,,,
586864,001,2022-11-20_16h57.11.916,Info_measure_main_exp,2022.2.2,Win32,60.0060006,,,,,,,,,,,,,,,,,,,,,,,,,,,,,,6,0.8508,1,,,,,,,,,,,,0,131,5,5,2154,2190,absent_patch/patch0002154.jpg,absent_patch/patch0002190.jpg,,,,,,,,,,,,,,,,,,,,0.049479167,0.026041667,1,0,0,response1disk,15,0,-0.001302083,1,0,0,center_square,0,14,14,68,1,,,,,,,,,,,,,,,,,,,,,,,
586864,001,2022-11-20_16h57.11.916,Info_measure_main_exp,2022.2.2,Win32,60.0060006,,,,,,,,,,,,,,,,,,masks/mask_004.jpg,,,,,,,,,,,,,,,,,,,,,,,,,,,,,,,,,,,,,,,,,,,0,0,0,3,1,,,,,,,,,,,,,,,,,,,,,,,,,,,,,,,,,,,,,,,,,,,,,,
586864,001,2022-11-20_16h57.11.916,Info_measure_main_exp,2022.2.2,Win32,60.0060006,,,,,,,,,,,,,,,,,,masks/mask_002.jpg,,,,,,,,,,,,,,,,,,,,,,,,,,,,,,,,,,,,,,,,,,,0,1,1,1,1,,,,,,,,,,,,,,,,,,,,,,,,,,,,,,,,,,,,,,,,,,,,,,
586864,001,2022-11-20_16h57.11.916,Info_measure_main_exp,2022.2.2,Win32,60.0060006,,,,,,,,,,,,,,,,,,masks/mask_003.jpg,,,,,,,,,,,,,,,,,,,,,,,,,,,,,,,,,,,,,,,,,,,0,2,2,2,1,,,,,,,,,,,,,,,,,,,,,,,,,,,,,,,,,,,,,,,,,,,,,,
586864,001,2022-11-20_16h57.11.916,Info_measure_main_exp,2022.2.2,Win32,60.0060006,,,,,,,,,,,,,,,,,,masks/mask_001.jpg,,,,,,,,,,,,,,,,,,,,,,,,,,,,,,,,,,,,,,,,,,,0,3,3,0,1,,,,,,,,,,,,,,,,,,,,,,,,,,,,,,,,,,,,,,,,,,,,,,
586864,001,2022-11-20_16h57.11.916,Info_measure_main_exp,2022.2.2,Win32,60.0060006,,,,,,,,,,,,,,,,,,masks/mask_005.jpg,,,,,,,,,,,,,,,,,,,,,,,,,,,,,,,,,,,,,,,,,,,0,4,4,4,1,,,,,,,,,,,,,,,,,,,,,,,,,,,,,,,,,,,,,,,,,,,,,,
586864,001,2022-11-20_16h57.11.916,Info_measure_main_exp,2022.2.2,Win32,60.0060006,,,,,,,,,,,,,,,,,,masks/mask_003.jpg,,,,,,,,,,,,,,,,,,,,,,,,,,,,,,,,,,,,,,,,,,,,,,,,0,0,0,2,1,,,,,,,,,,,,,,,,,,,,,,,,,,,,,,,,,,,,,,,,,
586864,001,2022-11-20_16h57.11.916,Info_measure_main_exp,2022.2.2,Win32,60.0060006,,,,,,,,,,,,,,,,,,masks/mask_001.jpg,,,,,,,,,,,,,,,,,,,,,,,,,,,,,,,,,,,,,,,,,,,,,,,,0,1,1,0,1,,,,,,,,,,,,,,,,,,,,,,,,,,,,,,,,,,,,,,,,,
586864,001,2022-11-20_16h57.11.916,Info_measure_main_exp,2022.2.2,Win32,60.0060006,,,,,,,,,,,,,,,,,,masks/mask_002.jpg,,,,,,,,,,,,,,,,,,,,,,,,,,,,,,,,,,,,,,,,,,,,,,,,0,2,2,1,1,,,,,,,,,,,,,,,,,,,,,,,,,,,,,,,,,,,,,,,,,
586864,001,2022-11-20_16h57.11.916,Info_measure_main_exp,2022.2.2,Win32,60.0060006,,,,,,,,,,,,,,,,,,masks/mask_004.jpg,,,,,,,,,,,,,,,,,,,,,,,,,,,,,,,,,,,,,,,,,,,,,,,,0,3,3,3,1,,,,,,,,,,,,,,,,,,,,,,,,,,,,,,,,,,,,,,,,,
586864,001,2022-11-20_16h57.11.916,Info_measure_main_exp,2022.2.2,Win32,60.0060006,,,,,,,,,,,,,,,,,,masks/mask_005.jpg,,,,,,,,,,,,,,,,,,,,,,,,,,,,,,,,,,,,,,,,,,,,,,,,0,4,4,4,1,,,,,,,,,,,,,,,,,,,,,,,,,,,,,,,,,,,,,,,,,
586864,001,2022-11-20_16h57.11.916,Info_measure_main_exp,2022.2.2,Win32,60.0060006,,,,,,,,,,,,,,,,,,,,,,,,,,,,,,6,0.8181,1,,,,,,,,,,,,0,131,5,5,2238,2166,absent_patch/patch0002238.jpg,absent_patch/patch0002166.jpg,,,,,,,,,,,,,,,,,,,,0.08203125,0.009114583,1,0,0,response1disk,16,-0.0078125,0,1,0,0,center_square,0,15,15,118,1,,,,,,,,,,,,,,,,,,,,,,,
586864,001,2022-11-20_16h57.11.916,Info_measure_main_exp,2022.2.2,Win32,60.0060006,,,,,,,,,,,,,,,,,,masks/mask_001.jpg,,,,,,,,,,,,,,,,,,,,,,,,,,,,,,,,,,,,,,,,,,,0,0,0,0,1,,,,,,,,,,,,,,,,,,,,,,,,,,,,,,,,,,,,,,,,,,,,,,
586864,001,2022-11-20_16h57.11.916,Info_measure_main_exp,2022.2.2,Win32,60.0060006,,,,,,,,,,,,,,,,,,masks/mask_005.jpg,,,,,,,,,,,,,,,,,,,,,,,,,,,,,,,,,,,,,,,,,,,0,1,1,4,1,,,,,,,,,,,,,,,,,,,,,,,,,,,,,,,,,,,,,,,,,,,,,,
586864,001,2022-11-20_16h57.11.916,Info_measure_main_exp,2022.2.2,Win32,60.0060006,,,,,,,,,,,,,,,,,,masks/mask_002.jpg,,,,,,,,,,,,,,,,,,,,,,,,,,,,,,,,,,,,,,,,,,,0,2,2,1,1,,,,,,,,,,,,,,,,,,,,,,,,,,,,,,,,,,,,,,,,,,,,,,
586864,001,2022-11-20_16h57.11.916,Info_measure_main_exp,2022.2.2,Win32,60.0060006,,,,,,,,,,,,,,,,,,masks/mask_004.jpg,,,,,,,,,,,,,,,,,,,,,,,,,,,,,,,,,,,,,,,,,,,0,3,3,3,1,,,,,,,,,,,,,,,,,,,,,,,,,,,,,,,,,,,,,,,,,,,,,,
586864,001,2022-11-20_16h57.11.916,Info_measure_main_exp,2022.2.2,Win32,60.0060006,,,,,,,,,,,,,,,,,,masks/mask_003.jpg,,,,,,,,,,,,,,,,,,,,,,,,,,,,,,,,,,,,,,,,,,,0,4,4,2,1,,,,,,,,,,,,,,,,,,,,,,,,,,,,,,,,,,,,,,,,,,,,,,
586864,001,2022-11-20_16h57.11.916,Info_measure_main_exp,2022.2.2,Win32,60.0060006,,,,,,,,,,,,,,,,,,masks/mask_004.jpg,,,,,,,,,,,,,,,,,,,,,,,,,,,,,,,,,,,,,,,,,,,,,,,,0,0,0,3,1,,,,,,,,,,,,,,,,,,,,,,,,,,,,,,,,,,,,,,,,,
586864,001,2022-11-20_16h57.11.916,Info_measure_main_exp,2022.2.2,Win32,60.0060006,,,,,,,,,,,,,,,,,,masks/mask_005.jpg,,,,,,,,,,,,,,,,,,,,,,,,,,,,,,,,,,,,,,,,,,,,,,,,0,1,1,4,1,,,,,,,,,,,,,,,,,,,,,,,,,,,,,,,,,,,,,,,,,
586864,001,2022-11-20_16h57.11.916,Info_measure_main_exp,2022.2.2,Win32,60.0060006,,,,,,,,,,,,,,,,,,masks/mask_002.jpg,,,,,,,,,,,,,,,,,,,,,,,,,,,,,,,,,,,,,,,,,,,,,,,,0,2,2,1,1,,,,,,,,,,,,,,,,,,,,,,,,,,,,,,,,,,,,,,,,,
586864,001,2022-11-20_16h57.11.916,Info_measure_main_exp,2022.2.2,Win32,60.0060006,,,,,,,,,,,,,,,,,,masks/mask_001.jpg,,,,,,,,,,,,,,,,,,,,,,,,,,,,,,,,,,,,,,,,,,,,,,,,0,3,3,0,1,,,,,,,,,,,,,,,,,,,,,,,,,,,,,,,,,,,,,,,,,
586864,001,2022-11-20_16h57.11.916,Info_measure_main_exp,2022.2.2,Win32,60.0060006,,,,,,,,,,,,,,,,,,masks/mask_003.jpg,,,,,,,,,,,,,,,,,,,,,,,,,,,,,,,,,,,,,,,,,,,,,,,,0,4,4,2,1,,,,,,,,,,,,,,,,,,,,,,,,,,,,,,,,,,,,,,,,,
586864,001,2022-11-20_16h57.11.916,Info_measure_main_exp,2022.2.2,Win32,60.0060006,,,,,,,,,,,,,,,,,,,,,,,,,,,,,,6,0.7884,1,,,,,,,,,,,,1,131,5,5,1950,1,absent_patch/patch0001950.jpg,present_patch/cong_131_5_a.jpg,,,,,,,,,,,,,,,,,,,,0.069010417,0.026041667,1,0,0,response1disk,17,-0.002604167,-0.013020833,1,0,0,center_square,0,16,16,39,1,,,,,,,,,,,,,,,,,,,,,,,
586864,001,2022-11-20_16h57.11.916,Info_measure_main_exp,2022.2.2,Win32,60.0060006,,,,,,,,,,,,,,,,,,masks/mask_005.jpg,,,,,,,,,,,,,,,,,,,,,,,,,,,,,,,,,,,,,,,,,,,0,0,0,4,1,,,,,,,,,,,,,,,,,,,,,,,,,,,,,,,,,,,,,,,,,,,,,,
586864,001,2022-11-20_16h57.11.916,Info_measure_main_exp,2022.2.2,Win32,60.0060006,,,,,,,,,,,,,,,,,,masks/mask_003.jpg,,,,,,,,,,,,,,,,,,,,,,,,,,,,,,,,,,,,,,,,,,,0,1,1,2,1,,,,,,,,,,,,,,,,,,,,,,,,,,,,,,,,,,,,,,,,,,,,,,
586864,001,2022-11-20_16h57.11.916,Info_measure_main_exp,2022.2.2,Win32,60.0060006,,,,,,,,,,,,,,,,,,masks/mask_002.jpg,,,,,,,,,,,,,,,,,,,,,,,,,,,,,,,,,,,,,,,,,,,0,2,2,1,1,,,,,,,,,,,,,,,,,,,,,,,,,,,,,,,,,,,,,,,,,,,,,,
586864,001,2022-11-20_16h57.11.916,Info_measure_main_exp,2022.2.2,Win32,60.0060006,,,,,,,,,,,,,,,,,,masks/mask_001.jpg,,,,,,,,,,,,,,,,,,,,,,,,,,,,,,,,,,,,,,,,,,,0,3,3,0,1,,,,,,,,,,,,,,,,,,,,,,,,,,,,,,,,,,,,,,,,,,,,,,
586864,001,2022-11-20_16h57.11.916,Info_measure_main_exp,2022.2.2,Win32,60.0060006,,,,,,,,,,,,,,,,,,masks/mask_004.jpg,,,,,,,,,,,,,,,,,,,,,,,,,,,,,,,,,,,,,,,,,,,0,4,4,3,1,,,,,,,,,,,,,,,,,,,,,,,,,,,,,,,,,,,,,,,,,,,,,,
586864,001,2022-11-20_16h57.11.916,Info_measure_main_exp,2022.2.2,Win32,60.0060006,,,,,,,,,,,,,,,,,,masks/mask_004.jpg,,,,,,,,,,,,,,,,,,,,,,,,,,,,,,,,,,,,,,,,,,,,,,,,0,0,0,3,1,,,,,,,,,,,,,,,,,,,,,,,,,,,,,,,,,,,,,,,,,
586864,001,2022-11-20_16h57.11.916,Info_measure_main_exp,2022.2.2,Win32,60.0060006,,,,,,,,,,,,,,,,,,masks/mask_002.jpg,,,,,,,,,,,,,,,,,,,,,,,,,,,,,,,,,,,,,,,,,,,,,,,,0,1,1,1,1,,,,,,,,,,,,,,,,,,,,,,,,,,,,,,,,,,,,,,,,,
586864,001,2022-11-20_16h57.11.916,Info_measure_main_exp,2022.2.2,Win32,60.0060006,,,,,,,,,,,,,,,,,,masks/mask_001.jpg,,,,,,,,,,,,,,,,,,,,,,,,,,,,,,,,,,,,,,,,,,,,,,,,0,2,2,0,1,,,,,,,,,,,,,,,,,,,,,,,,,,,,,,,,,,,,,,,,,
586864,001,2022-11-20_16h57.11.916,Info_measure_main_exp,2022.2.2,Win32,60.0060006,,,,,,,,,,,,,,,,,,masks/mask_005.jpg,,,,,,,,,,,,,,,,,,,,,,,,,,,,,,,,,,,,,,,,,,,,,,,,0,3,3,4,1,,,,,,,,,,,,,,,,,,,,,,,,,,,,,,,,,,,,,,,,,
586864,001,2022-11-20_16h57.11.916,Info_measure_main_exp,2022.2.2,Win32,60.0060006,,,,,,,,,,,,,,,,,,masks/mask_003.jpg,,,,,,,,,,,,,,,,,,,,,,,,,,,,,,,,,,,,,,,,,,,,,,,,0,4,4,2,1,,,,,,,,,,,,,,,,,,,,,,,,,,,,,,,,,,,,,,,,,
586864,001,2022-11-20_16h57.11.916,Info_measure_main_exp,2022.2.2,Win32,60.0060006,,,,,,,,,,,,,,,,,,,,,,,,,,,,,,6,0.7494,1,,,,,,,,,,,,0,131,5,5,2166,1986,absent_patch/patch0002166.jpg,absent_patch/patch0001986.jpg,,,,,,,,,,,,,,,,,,,,0.067708333,0.04296875,1,0,0,response1disk,18,0,0.01171875,1,0,0,center_square,0,17,17,47,1,,,,,,,,,,,,,,,,,,,,,,,
586864,001,2022-11-20_16h57.11.916,Info_measure_main_exp,2022.2.2,Win32,60.0060006,,,,,,,,,,,,,,,,,,masks/mask_001.jpg,,,,,,,,,,,,,,,,,,,,,,,,,,,,,,,,,,,,,,,,,,,0,0,0,0,1,,,,,,,,,,,,,,,,,,,,,,,,,,,,,,,,,,,,,,,,,,,,,,
586864,001,2022-11-20_16h57.11.916,Info_measure_main_exp,2022.2.2,Win32,60.0060006,,,,,,,,,,,,,,,,,,masks/mask_004.jpg,,,,,,,,,,,,,,,,,,,,,,,,,,,,,,,,,,,,,,,,,,,0,1,1,3,1,,,,,,,,,,,,,,,,,,,,,,,,,,,,,,,,,,,,,,,,,,,,,,
586864,001,2022-11-20_16h57.11.916,Info_measure_main_exp,2022.2.2,Win32,60.0060006,,,,,,,,,,,,,,,,,,masks/mask_002.jpg,,,,,,,,,,,,,,,,,,,,,,,,,,,,,,,,,,,,,,,,,,,0,2,2,1,1,,,,,,,,,,,,,,,,,,,,,,,,,,,,,,,,,,,,,,,,,,,,,,
586864,001,2022-11-20_16h57.11.916,Info_measure_main_exp,2022.2.2,Win32,60.0060006,,,,,,,,,,,,,,,,,,masks/mask_003.jpg,,,,,,,,,,,,,,,,,,,,,,,,,,,,,,,,,,,,,,,,,,,0,3,3,2,1,,,,,,,,,,,,,,,,,,,,,,,,,,,,,,,,,,,,,,,,,,,,,,
586864,001,2022-11-20_16h57.11.916,Info_measure_main_exp,2022.2.2,Win32,60.0060006,,,,,,,,,,,,,,,,,,masks/mask_005.jpg,,,,,,,,,,,,,,,,,,,,,,,,,,,,,,,,,,,,,,,,,,,0,4,4,4,1,,,,,,,,,,,,,,,,,,,,,,,,,,,,,,,,,,,,,,,,,,,,,,
586864,001,2022-11-20_16h57.11.916,Info_measure_main_exp,2022.2.2,Win32,60.0060006,,,,,,,,,,,,,,,,,,masks/mask_002.jpg,,,,,,,,,,,,,,,,,,,,,,,,,,,,,,,,,,,,,,,,,,,,,,,,0,0,0,1,1,,,,,,,,,,,,,,,,,,,,,,,,,,,,,,,,,,,,,,,,,
586864,001,2022-11-20_16h57.11.916,Info_measure_main_exp,2022.2.2,Win32,60.0060006,,,,,,,,,,,,,,,,,,masks/mask_003.jpg,,,,,,,,,,,,,,,,,,,,,,,,,,,,,,,,,,,,,,,,,,,,,,,,0,1,1,2,1,,,,,,,,,,,,,,,,,,,,,,,,,,,,,,,,,,,,,,,,,
586864,001,2022-11-20_16h57.11.916,Info_measure_main_exp,2022.2.2,Win32,60.0060006,,,,,,,,,,,,,,,,,,masks/mask_005.jpg,,,,,,,,,,,,,,,,,,,,,,,,,,,,,,,,,,,,,,,,,,,,,,,,0,2,2,4,1,,,,,,,,,,,,,,,,,,,,,,,,,,,,,,,,,,,,,,,,,
586864,001,2022-11-20_16h57.11.916,Info_measure_main_exp,2022.2.2,Win32,60.0060006,,,,,,,,,,,,,,,,,,masks/mask_004.jpg,,,,,,,,,,,,,,,,,,,,,,,,,,,,,,,,,,,,,,,,,,,,,,,,0,3,3,3,1,,,,,,,,,,,,,,,,,,,,,,,,,,,,,,,,,,,,,,,,,
586864,001,2022-11-20_16h57.11.916,Info_measure_main_exp,2022.2.2,Win32,60.0060006,,,,,,,,,,,,,,,,,,masks/mask_001.jpg,,,,,,,,,,,,,,,,,,,,,,,,,,,,,,,,,,,,,,,,,,,,,,,,0,4,4,0,1,,,,,,,,,,,,,,,,,,,,,,,,,,,,,,,,,,,,,,,,,
586864,001,2022-11-20_16h57.11.916,Info_measure_main_exp,2022.2.2,Win32,60.0060006,,,,,,,,,,,,,,,,,,,,,,,,,,,,,,6,0.6647,1,,,,,,,,,,,,0,131,5,5,1974,2214,absent_patch/patch0001974.jpg,absent_patch/patch0002214.jpg,,,,,,,,,,,,,,,,,,,,0.071614583,0.028645833,1,0,0,response1disk,19,0.00390625,-0.00390625,1,0,0,center_square,0,18,18,24,1,,,,,,,,,,,,,,,,,,,,,,,
586864,001,2022-11-20_16h57.11.916,Info_measure_main_exp,2022.2.2,Win32,60.0060006,,,,,,,,,,,,,,,,,,masks/mask_003.jpg,,,,,,,,,,,,,,,,,,,,,,,,,,,,,,,,,,,,,,,,,,,0,0,0,2,1,,,,,,,,,,,,,,,,,,,,,,,,,,,,,,,,,,,,,,,,,,,,,,
586864,001,2022-11-20_16h57.11.916,Info_measure_main_exp,2022.2.2,Win32,60.0060006,,,,,,,,,,,,,,,,,,masks/mask_005.jpg,,,,,,,,,,,,,,,,,,,,,,,,,,,,,,,,,,,,,,,,,,,0,1,1,4,1,,,,,,,,,,,,,,,,,,,,,,,,,,,,,,,,,,,,,,,,,,,,,,
586864,001,2022-11-20_16h57.11.916,Info_measure_main_exp,2022.2.2,Win32,60.0060006,,,,,,,,,,,,,,,,,,masks/mask_001.jpg,,,,,,,,,,,,,,,,,,,,,,,,,,,,,,,,,,,,,,,,,,,0,2,2,0,1,,,,,,,,,,,,,,,,,,,,,,,,,,,,,,,,,,,,,,,,,,,,,,
586864,001,2022-11-20_16h57.11.916,Info_measure_main_exp,2022.2.2,Win32,60.0060006,,,,,,,,,,,,,,,,,,masks/mask_004.jpg,,,,,,,,,,,,,,,,,,,,,,,,,,,,,,,,,,,,,,,,,,,0,3,3,3,1,,,,,,,,,,,,,,,,,,,,,,,,,,,,,,,,,,,,,,,,,,,,,,
586864,001,2022-11-20_16h57.11.916,Info_measure_main_exp,2022.2.2,Win32,60.0060006,,,,,,,,,,,,,,,,,,masks/mask_002.jpg,,,,,,,,,,,,,,,,,,,,,,,,,,,,,,,,,,,,,,,,,,,0,4,4,1,1,,,,,,,,,,,,,,,,,,,,,,,,,,,,,,,,,,,,,,,,,,,,,,
586864,001,2022-11-20_16h57.11.916,Info_measure_main_exp,2022.2.2,Win32,60.0060006,,,,,,,,,,,,,,,,,,masks/mask_005.jpg,,,,,,,,,,,,,,,,,,,,,,,,,,,,,,,,,,,,,,,,,,,,,,,,0,0,0,4,1,,,,,,,,,,,,,,,,,,,,,,,,,,,,,,,,,,,,,,,,,
586864,001,2022-11-20_16h57.11.916,Info_measure_main_exp,2022.2.2,Win32,60.0060006,,,,,,,,,,,,,,,,,,masks/mask_001.jpg,,,,,,,,,,,,,,,,,,,,,,,,,,,,,,,,,,,,,,,,,,,,,,,,0,1,1,0,1,,,,,,,,,,,,,,,,,,,,,,,,,,,,,,,,,,,,,,,,,
586864,001,2022-11-20_16h57.11.916,Info_measure_main_exp,2022.2.2,Win32,60.0060006,,,,,,,,,,,,,,,,,,masks/mask_004.jpg,,,,,,,,,,,,,,,,,,,,,,,,,,,,,,,,,,,,,,,,,,,,,,,,0,2,2,3,1,,,,,,,,,,,,,,,,,,,,,,,,,,,,,,,,,,,,,,,,,
586864,001,2022-11-20_16h57.11.916,Info_measure_main_exp,2022.2.2,Win32,60.0060006,,,,,,,,,,,,,,,,,,masks/mask_003.jpg,,,,,,,,,,,,,,,,,,,,,,,,,,,,,,,,,,,,,,,,,,,,,,,,0,3,3,2,1,,,,,,,,,,,,,,,,,,,,,,,,,,,,,,,,,,,,,,,,,
586864,001,2022-11-20_16h57.11.916,Info_measure_main_exp,2022.2.2,Win32,60.0060006,,,,,,,,,,,,,,,,,,masks/mask_002.jpg,,,,,,,,,,,,,,,,,,,,,,,,,,,,,,,,,,,,,,,,,,,,,,,,0,4,4,1,1,,,,,,,,,,,,,,,,,,,,,,,,,,,,,,,,,,,,,,,,,
586864,001,2022-11-20_16h57.11.916,Info_measure_main_exp,2022.2.2,Win32,60.0060006,,,,,,,,,,,,,,,,,,,,,,,,,,,,,,6,0.601,1,,,,,,,,,,,,0,131,5,5,2082,2250,absent_patch/patch0002082.jpg,absent_patch/patch0002250.jpg,,,,,,,,,,,,,,,,,,,,0.059895833,0.016927083,1,0,0,response1disk,20,-0.001302083,-0.00390625,1,0,0,center_square,0,19,19,3,1,,,,,,,,,,,,,,,,,,,,,,,
586864,001,2022-11-20_16h57.11.916,Info_measure_main_exp,2022.2.2,Win32,60.0060006,,,,,,,,,,,,,,,,,,masks/mask_001.jpg,,,,,,,,,,,,,,,,,,,,,,,,,,,,,,,,,,,,,,,,,,,0,0,0,0,1,,,,,,,,,,,,,,,,,,,,,,,,,,,,,,,,,,,,,,,,,,,,,,
586864,001,2022-11-20_16h57.11.916,Info_measure_main_exp,2022.2.2,Win32,60.0060006,,,,,,,,,,,,,,,,,,masks/mask_004.jpg,,,,,,,,,,,,,,,,,,,,,,,,,,,,,,,,,,,,,,,,,,,0,1,1,3,1,,,,,,,,,,,,,,,,,,,,,,,,,,,,,,,,,,,,,,,,,,,,,,
586864,001,2022-11-20_16h57.11.916,Info_measure_main_exp,2022.2.2,Win32,60.0060006,,,,,,,,,,,,,,,,,,masks/mask_003.jpg,,,,,,,,,,,,,,,,,,,,,,,,,,,,,,,,,,,,,,,,,,,0,2,2,2,1,,,,,,,,,,,,,,,,,,,,,,,,,,,,,,,,,,,,,,,,,,,,,,
586864,001,2022-11-20_16h57.11.916,Info_measure_main_exp,2022.2.2,Win32,60.0060006,,,,,,,,,,,,,,,,,,masks/mask_002.jpg,,,,,,,,,,,,,,,,,,,,,,,,,,,,,,,,,,,,,,,,,,,0,3,3,1,1,,,,,,,,,,,,,,,,,,,,,,,,,,,,,,,,,,,,,,,,,,,,,,
586864,001,2022-11-20_16h57.11.916,Info_measure_main_exp,2022.2.2,Win32,60.0060006,,,,,,,,,,,,,,,,,,masks/mask_005.jpg,,,,,,,,,,,,,,,,,,,,,,,,,,,,,,,,,,,,,,,,,,,0,4,4,4,1,,,,,,,,,,,,,,,,,,,,,,,,,,,,,,,,,,,,,,,,,,,,,,
586864,001,2022-11-20_16h57.11.916,Info_measure_main_exp,2022.2.2,Win32,60.0060006,,,,,,,,,,,,,,,,,,masks/mask_002.jpg,,,,,,,,,,,,,,,,,,,,,,,,,,,,,,,,,,,,,,,,,,,,,,,,0,0,0,1,1,,,,,,,,,,,,,,,,,,,,,,,,,,,,,,,,,,,,,,,,,
586864,001,2022-11-20_16h57.11.916,Info_measure_main_exp,2022.2.2,Win32,60.0060006,,,,,,,,,,,,,,,,,,masks/mask_004.jpg,,,,,,,,,,,,,,,,,,,,,,,,,,,,,,,,,,,,,,,,,,,,,,,,0,1,1,3,1,,,,,,,,,,,,,,,,,,,,,,,,,,,,,,,,,,,,,,,,,
586864,001,2022-11-20_16h57.11.916,Info_measure_main_exp,2022.2.2,Win32,60.0060006,,,,,,,,,,,,,,,,,,masks/mask_001.jpg,,,,,,,,,,,,,,,,,,,,,,,,,,,,,,,,,,,,,,,,,,,,,,,,0,2,2,0,1,,,,,,,,,,,,,,,,,,,,,,,,,,,,,,,,,,,,,,,,,
586864,001,2022-11-20_16h57.11.916,Info_measure_main_exp,2022.2.2,Win32,60.0060006,,,,,,,,,,,,,,,,,,masks/mask_005.jpg,,,,,,,,,,,,,,,,,,,,,,,,,,,,,,,,,,,,,,,,,,,,,,,,0,3,3,4,1,,,,,,,,,,,,,,,,,,,,,,,,,,,,,,,,,,,,,,,,,
586864,001,2022-11-20_16h57.11.916,Info_measure_main_exp,2022.2.2,Win32,60.0060006,,,,,,,,,,,,,,,,,,masks/mask_003.jpg,,,,,,,,,,,,,,,,,,,,,,,,,,,,,,,,,,,,,,,,,,,,,,,,0,4,4,2,1,,,,,,,,,,,,,,,,,,,,,,,,,,,,,,,,,,,,,,,,,
586864,001,2022-11-20_16h57.11.916,Info_measure_main_exp,2022.2.2,Win32,60.0060006,,,,,,,,,,,,,,,,,,,,,,,,,,,,,,6,1.4909,1,,,,,,,,,,,,0,131,5,5,2190,2166,absent_patch/patch0002190.jpg,absent_patch/patch0002166.jpg,,,,,,,,,,,,,,,,,,,,0.075520833,0.036458333,1,0,0,response1disk,21,0.00390625,0.001302083,1,0,0,center_square,0,20,20,50,1,,,,,,,,,,,,,,,,,,,,,,,
586864,001,2022-11-20_16h57.11.916,Info_measure_main_exp,2022.2.2,Win32,60.0060006,,,,,,,,,,,,,,,,,,masks/mask_002.jpg,,,,,,,,,,,,,,,,,,,,,,,,,,,,,,,,,,,,,,,,,,,0,0,0,1,1,,,,,,,,,,,,,,,,,,,,,,,,,,,,,,,,,,,,,,,,,,,,,,
586864,001,2022-11-20_16h57.11.916,Info_measure_main_exp,2022.2.2,Win32,60.0060006,,,,,,,,,,,,,,,,,,masks/mask_003.jpg,,,,,,,,,,,,,,,,,,,,,,,,,,,,,,,,,,,,,,,,,,,0,1,1,2,1,,,,,,,,,,,,,,,,,,,,,,,,,,,,,,,,,,,,,,,,,,,,,,
586864,001,2022-11-20_16h57.11.916,Info_measure_main_exp,2022.2.2,Win32,60.0060006,,,,,,,,,,,,,,,,,,masks/mask_001.jpg,,,,,,,,,,,,,,,,,,,,,,,,,,,,,,,,,,,,,,,,,,,0,2,2,0,1,,,,,,,,,,,,,,,,,,,,,,,,,,,,,,,,,,,,,,,,,,,,,,
586864,001,2022-11-20_16h57.11.916,Info_measure_main_exp,2022.2.2,Win32,60.0060006,,,,,,,,,,,,,,,,,,masks/mask_005.jpg,,,,,,,,,,,,,,,,,,,,,,,,,,,,,,,,,,,,,,,,,,,0,3,3,4,1,,,,,,,,,,,,,,,,,,,,,,,,,,,,,,,,,,,,,,,,,,,,,,
586864,001,2022-11-20_16h57.11.916,Info_measure_main_exp,2022.2.2,Win32,60.0060006,,,,,,,,,,,,,,,,,,masks/mask_004.jpg,,,,,,,,,,,,,,,,,,,,,,,,,,,,,,,,,,,,,,,,,,,0,4,4,3,1,,,,,,,,,,,,,,,,,,,,,,,,,,,,,,,,,,,,,,,,,,,,,,
586864,001,2022-11-20_16h57.11.916,Info_measure_main_exp,2022.2.2,Win32,60.0060006,,,,,,,,,,,,,,,,,,masks/mask_005.jpg,,,,,,,,,,,,,,,,,,,,,,,,,,,,,,,,,,,,,,,,,,,,,,,,0,0,0,4,1,,,,,,,,,,,,,,,,,,,,,,,,,,,,,,,,,,,,,,,,,
586864,001,2022-11-20_16h57.11.916,Info_measure_main_exp,2022.2.2,Win32,60.0060006,,,,,,,,,,,,,,,,,,masks/mask_003.jpg,,,,,,,,,,,,,,,,,,,,,,,,,,,,,,,,,,,,,,,,,,,,,,,,0,1,1,2,1,,,,,,,,,,,,,,,,,,,,,,,,,,,,,,,,,,,,,,,,,
586864,001,2022-11-20_16h57.11.916,Info_measure_main_exp,2022.2.2,Win32,60.0060006,,,,,,,,,,,,,,,,,,masks/mask_002.jpg,,,,,,,,,,,,,,,,,,,,,,,,,,,,,,,,,,,,,,,,,,,,,,,,0,2,2,1,1,,,,,,,,,,,,,,,,,,,,,,,,,,,,,,,,,,,,,,,,,
586864,001,2022-11-20_16h57.11.916,Info_measure_main_exp,2022.2.2,Win32,60.0060006,,,,,,,,,,,,,,,,,,masks/mask_001.jpg,,,,,,,,,,,,,,,,,,,,,,,,,,,,,,,,,,,,,,,,,,,,,,,,0,3,3,0,1,,,,,,,,,,,,,,,,,,,,,,,,,,,,,,,,,,,,,,,,,
586864,001,2022-11-20_16h57.11.916,Info_measure_main_exp,2022.2.2,Win32,60.0060006,,,,,,,,,,,,,,,,,,masks/mask_004.jpg,,,,,,,,,,,,,,,,,,,,,,,,,,,,,,,,,,,,,,,,,,,,,,,,0,4,4,3,1,,,,,,,,,,,,,,,,,,,,,,,,,,,,,,,,,,,,,,,,,
586864,001,2022-11-20_16h57.11.916,Info_measure_main_exp,2022.2.2,Win32,60.0060006,,,,,,,,,,,,,,,,,,,,,,,,,,,,,,7,0.8395,1,,,,,,,,,,,,0,131,5,5,2190,2082,absent_patch/patch0002190.jpg,absent_patch/patch0002082.jpg,,,,,,,,,,,,,,,,,,,,0.0390625,0.059895833,1,0,0,response1disk,22,0.00390625,0.014322917,1,0,0,center_square,0,21,21,112,1,,,,,,,,,,,,,,,,,,,,,,,
586864,001,2022-11-20_16h57.11.916,Info_measure_main_exp,2022.2.2,Win32,60.0060006,,,,,,,,,,,,,,,,,,masks/mask_001.jpg,,,,,,,,,,,,,,,,,,,,,,,,,,,,,,,,,,,,,,,,,,,0,0,0,0,1,,,,,,,,,,,,,,,,,,,,,,,,,,,,,,,,,,,,,,,,,,,,,,
586864,001,2022-11-20_16h57.11.916,Info_measure_main_exp,2022.2.2,Win32,60.0060006,,,,,,,,,,,,,,,,,,masks/mask_003.jpg,,,,,,,,,,,,,,,,,,,,,,,,,,,,,,,,,,,,,,,,,,,0,1,1,2,1,,,,,,,,,,,,,,,,,,,,,,,,,,,,,,,,,,,,,,,,,,,,,,
586864,001,2022-11-20_16h57.11.916,Info_measure_main_exp,2022.2.2,Win32,60.0060006,,,,,,,,,,,,,,,,,,masks/mask_002.jpg,,,,,,,,,,,,,,,,,,,,,,,,,,,,,,,,,,,,,,,,,,,0,2,2,1,1,,,,,,,,,,,,,,,,,,,,,,,,,,,,,,,,,,,,,,,,,,,,,,
586864,001,2022-11-20_16h57.11.916,Info_measure_main_exp,2022.2.2,Win32,60.0060006,,,,,,,,,,,,,,,,,,masks/mask_004.jpg,,,,,,,,,,,,,,,,,,,,,,,,,,,,,,,,,,,,,,,,,,,0,3,3,3,1,,,,,,,,,,,,,,,,,,,,,,,,,,,,,,,,,,,,,,,,,,,,,,
586864,001,2022-11-20_16h57.11.916,Info_measure_main_exp,2022.2.2,Win32,60.0060006,,,,,,,,,,,,,,,,,,masks/mask_005.jpg,,,,,,,,,,,,,,,,,,,,,,,,,,,,,,,,,,,,,,,,,,,0,4,4,4,1,,,,,,,,,,,,,,,,,,,,,,,,,,,,,,,,,,,,,,,,,,,,,,
586864,001,2022-11-20_16h57.11.916,Info_measure_main_exp,2022.2.2,Win32,60.0060006,,,,,,,,,,,,,,,,,,masks/mask_002.jpg,,,,,,,,,,,,,,,,,,,,,,,,,,,,,,,,,,,,,,,,,,,,,,,,0,0,0,1,1,,,,,,,,,,,,,,,,,,,,,,,,,,,,,,,,,,,,,,,,,
586864,001,2022-11-20_16h57.11.916,Info_measure_main_exp,2022.2.2,Win32,60.0060006,,,,,,,,,,,,,,,,,,masks/mask_003.jpg,,,,,,,,,,,,,,,,,,,,,,,,,,,,,,,,,,,,,,,,,,,,,,,,0,1,1,2,1,,,,,,,,,,,,,,,,,,,,,,,,,,,,,,,,,,,,,,,,,
586864,001,2022-11-20_16h57.11.916,Info_measure_main_exp,2022.2.2,Win32,60.0060006,,,,,,,,,,,,,,,,,,masks/mask_005.jpg,,,,,,,,,,,,,,,,,,,,,,,,,,,,,,,,,,,,,,,,,,,,,,,,0,2,2,4,1,,,,,,,,,,,,,,,,,,,,,,,,,,,,,,,,,,,,,,,,,
586864,001,2022-11-20_16h57.11.916,Info_measure_main_exp,2022.2.2,Win32,60.0060006,,,,,,,,,,,,,,,,,,masks/mask_001.jpg,,,,,,,,,,,,,,,,,,,,,,,,,,,,,,,,,,,,,,,,,,,,,,,,0,3,3,0,1,,,,,,,,,,,,,,,,,,,,,,,,,,,,,,,,,,,,,,,,,
586864,001,2022-11-20_16h57.11.916,Info_measure_main_exp,2022.2.2,Win32,60.0060006,,,,,,,,,,,,,,,,,,masks/mask_004.jpg,,,,,,,,,,,,,,,,,,,,,,,,,,,,,,,,,,,,,,,,,,,,,,,,0,4,4,3,1,,,,,,,,,,,,,,,,,,,,,,,,,,,,,,,,,,,,,,,,,
586864,001,2022-11-20_16h57.11.916,Info_measure_main_exp,2022.2.2,Win32,60.0060006,,,,,,,,,,,,,,,,,,,,,,,,,,,,,,5,0.686,1,,,,,,,,,,,,0,131,5,5,1950,2142,absent_patch/patch0001950.jpg,absent_patch/patch0002142.jpg,,,,,,,,,,,,,,,,,,,,0.05859375,-0.033854167,1,0,0,response3disk,23,-0.010416667,0.00390625,1,0,0,center_square,0,22,22,83,1,,,,,,,,,,,,,,,,,,,,,,,
586864,001,2022-11-20_16h57.11.916,Info_measure_main_exp,2022.2.2,Win32,60.0060006,,,,,,,,,,,,,,,,,,masks/mask_003.jpg,,,,,,,,,,,,,,,,,,,,,,,,,,,,,,,,,,,,,,,,,,,0,0,0,2,1,,,,,,,,,,,,,,,,,,,,,,,,,,,,,,,,,,,,,,,,,,,,,,
586864,001,2022-11-20_16h57.11.916,Info_measure_main_exp,2022.2.2,Win32,60.0060006,,,,,,,,,,,,,,,,,,masks/mask_004.jpg,,,,,,,,,,,,,,,,,,,,,,,,,,,,,,,,,,,,,,,,,,,0,1,1,3,1,,,,,,,,,,,,,,,,,,,,,,,,,,,,,,,,,,,,,,,,,,,,,,
586864,001,2022-11-20_16h57.11.916,Info_measure_main_exp,2022.2.2,Win32,60.0060006,,,,,,,,,,,,,,,,,,masks/mask_005.jpg,,,,,,,,,,,,,,,,,,,,,,,,,,,,,,,,,,,,,,,,,,,0,2,2,4,1,,,,,,,,,,,,,,,,,,,,,,,,,,,,,,,,,,,,,,,,,,,,,,
586864,001,2022-11-20_16h57.11.916,Info_measure_main_exp,2022.2.2,Win32,60.0060006,,,,,,,,,,,,,,,,,,masks/mask_001.jpg,,,,,,,,,,,,,,,,,,,,,,,,,,,,,,,,,,,,,,,,,,,0,3,3,0,1,,,,,,,,,,,,,,,,,,,,,,,,,,,,,,,,,,,,,,,,,,,,,,
586864,001,2022-11-20_16h57.11.916,Info_measure_main_exp,2022.2.2,Win32,60.0060006,,,,,,,,,,,,,,,,,,masks/mask_002.jpg,,,,,,,,,,,,,,,,,,,,,,,,,,,,,,,,,,,,,,,,,,,0,4,4,1,1,,,,,,,,,,,,,,,,,,,,,,,,,,,,,,,,,,,,,,,,,,,,,,
586864,001,2022-11-20_16h57.11.916,Info_measure_main_exp,2022.2.2,Win32,60.0060006,,,,,,,,,,,,,,,,,,masks/mask_004.jpg,,,,,,,,,,,,,,,,,,,,,,,,,,,,,,,,,,,,,,,,,,,,,,,,0,0,0,3,1,,,,,,,,,,,,,,,,,,,,,,,,,,,,,,,,,,,,,,,,,
586864,001,2022-11-20_16h57.11.916,Info_measure_main_exp,2022.2.2,Win32,60.0060006,,,,,,,,,,,,,,,,,,masks/mask_002.jpg,,,,,,,,,,,,,,,,,,,,,,,,,,,,,,,,,,,,,,,,,,,,,,,,0,1,1,1,1,,,,,,,,,,,,,,,,,,,,,,,,,,,,,,,,,,,,,,,,,
586864,001,2022-11-20_16h57.11.916,Info_measure_main_exp,2022.2.2,Win32,60.0060006,,,,,,,,,,,,,,,,,,masks/mask_003.jpg,,,,,,,,,,,,,,,,,,,,,,,,,,,,,,,,,,,,,,,,,,,,,,,,0,2,2,2,1,,,,,,,,,,,,,,,,,,,,,,,,,,,,,,,,,,,,,,,,,
586864,001,2022-11-20_16h57.11.916,Info_measure_main_exp,2022.2.2,Win32,60.0060006,,,,,,,,,,,,,,,,,,masks/mask_005.jpg,,,,,,,,,,,,,,,,,,,,,,,,,,,,,,,,,,,,,,,,,,,,,,,,0,3,3,4,1,,,,,,,,,,,,,,,,,,,,,,,,,,,,,,,,,,,,,,,,,
586864,001,2022-11-20_16h57.11.916,Info_measure_main_exp,2022.2.2,Win32,60.0060006,,,,,,,,,,,,,,,,,,masks/mask_001.jpg,,,,,,,,,,,,,,,,,,,,,,,,,,,,,,,,,,,,,,,,,,,,,,,,0,4,4,0,1,,,,,,,,,,,,,,,,,,,,,,,,,,,,,,,,,,,,,,,,,
586864,001,2022-11-20_16h57.11.916,Info_measure_main_exp,2022.2.2,Win32,60.0060006,,,,,,,,,,,,,,,,,,,,,,,,,,,,,,4,0.7453,1,,,,,,,,,,,,0,131,5,5,2274,2238,absent_patch/patch0002274.jpg,absent_patch/patch0002238.jpg,,,,,,,,,,,,,,,,,,,,0.015625,-0.040364583,1,0,0,response3disk,24,-0.005208333,0.00390625,1,0,0,center_square,0,23,23,91,1,,,,,,,,,,,,,,,,,,,,,,,
586864,001,2022-11-20_16h57.11.916,Info_measure_main_exp,2022.2.2,Win32,60.0060006,,,,,,,,,,,,,,,,,,masks/mask_002.jpg,,,,,,,,,,,,,,,,,,,,,,,,,,,,,,,,,,,,,,,,,,,0,0,0,1,1,,,,,,,,,,,,,,,,,,,,,,,,,,,,,,,,,,,,,,,,,,,,,,
586864,001,2022-11-20_16h57.11.916,Info_measure_main_exp,2022.2.2,Win32,60.0060006,,,,,,,,,,,,,,,,,,masks/mask_004.jpg,,,,,,,,,,,,,,,,,,,,,,,,,,,,,,,,,,,,,,,,,,,0,1,1,3,1,,,,,,,,,,,,,,,,,,,,,,,,,,,,,,,,,,,,,,,,,,,,,,
586864,001,2022-11-20_16h57.11.916,Info_measure_main_exp,2022.2.2,Win32,60.0060006,,,,,,,,,,,,,,,,,,masks/mask_003.jpg,,,,,,,,,,,,,,,,,,,,,,,,,,,,,,,,,,,,,,,,,,,0,2,2,2,1,,,,,,,,,,,,,,,,,,,,,,,,,,,,,,,,,,,,,,,,,,,,,,
586864,001,2022-11-20_16h57.11.916,Info_measure_main_exp,2022.2.2,Win32,60.0060006,,,,,,,,,,,,,,,,,,masks/mask_001.jpg,,,,,,,,,,,,,,,,,,,,,,,,,,,,,,,,,,,,,,,,,,,0,3,3,0,1,,,,,,,,,,,,,,,,,,,,,,,,,,,,,,,,,,,,,,,,,,,,,,
586864,001,2022-11-20_16h57.11.916,Info_measure_main_exp,2022.2.2,Win32,60.0060006,,,,,,,,,,,,,,,,,,masks/mask_005.jpg,,,,,,,,,,,,,,,,,,,,,,,,,,,,,,,,,,,,,,,,,,,0,4,4,4,1,,,,,,,,,,,,,,,,,,,,,,,,,,,,,,,,,,,,,,,,,,,,,,
586864,001,2022-11-20_16h57.11.916,Info_measure_main_exp,2022.2.2,Win32,60.0060006,,,,,,,,,,,,,,,,,,masks/mask_005.jpg,,,,,,,,,,,,,,,,,,,,,,,,,,,,,,,,,,,,,,,,,,,,,,,,0,0,0,4,1,,,,,,,,,,,,,,,,,,,,,,,,,,,,,,,,,,,,,,,,,
586864,001,2022-11-20_16h57.11.916,Info_measure_main_exp,2022.2.2,Win32,60.0060006,,,,,,,,,,,,,,,,,,masks/mask_004.jpg,,,,,,,,,,,,,,,,,,,,,,,,,,,,,,,,,,,,,,,,,,,,,,,,0,1,1,3,1,,,,,,,,,,,,,,,,,,,,,,,,,,,,,,,,,,,,,,,,,
586864,001,2022-11-20_16h57.11.916,Info_measure_main_exp,2022.2.2,Win32,60.0060006,,,,,,,,,,,,,,,,,,masks/mask_001.jpg,,,,,,,,,,,,,,,,,,,,,,,,,,,,,,,,,,,,,,,,,,,,,,,,0,2,2,0,1,,,,,,,,,,,,,,,,,,,,,,,,,,,,,,,,,,,,,,,,,
586864,001,2022-11-20_16h57.11.916,Info_measure_main_exp,2022.2.2,Win32,60.0060006,,,,,,,,,,,,,,,,,,masks/mask_003.jpg,,,,,,,,,,,,,,,,,,,,,,,,,,,,,,,,,,,,,,,,,,,,,,,,0,3,3,2,1,,,,,,,,,,,,,,,,,,,,,,,,,,,,,,,,,,,,,,,,,
586864,001,2022-11-20_16h57.11.916,Info_measure_main_exp,2022.2.2,Win32,60.0060006,,,,,,,,,,,,,,,,,,masks/mask_002.jpg,,,,,,,,,,,,,,,,,,,,,,,,,,,,,,,,,,,,,,,,,,,,,,,,0,4,4,1,1,,,,,,,,,,,,,,,,,,,,,,,,,,,,,,,,,,,,,,,,,
586864,001,2022-11-20_16h57.11.916,Info_measure_main_exp,2022.2.2,Win32,60.0060006,,,,,,,,,,,,,,,,,,,,,,,,,,,,,,6,0.6313,1,,,,,,,,,,,,0,131,5,5,1950,2214,absent_patch/patch0001950.jpg,absent_patch/patch0002214.jpg,,,,,,,,,,,,,,,,,,,,0.065104167,0.002604167,1,0,0,response1disk,25,0.01171875,0.00390625,1,0,0,center_square,0,24,24,85,1,,,,,,,,,,,,,,,,,,,,,,,
586864,001,2022-11-20_16h57.11.916,Info_measure_main_exp,2022.2.2,Win32,60.0060006,,,,,,,,,,,,,,,,,,masks/mask_002.jpg,,,,,,,,,,,,,,,,,,,,,,,,,,,,,,,,,,,,,,,,,,,0,0,0,1,1,,,,,,,,,,,,,,,,,,,,,,,,,,,,,,,,,,,,,,,,,,,,,,
586864,001,2022-11-20_16h57.11.916,Info_measure_main_exp,2022.2.2,Win32,60.0060006,,,,,,,,,,,,,,,,,,masks/mask_005.jpg,,,,,,,,,,,,,,,,,,,,,,,,,,,,,,,,,,,,,,,,,,,0,1,1,4,1,,,,,,,,,,,,,,,,,,,,,,,,,,,,,,,,,,,,,,,,,,,,,,
586864,001,2022-11-20_16h57.11.916,Info_measure_main_exp,2022.2.2,Win32,60.0060006,,,,,,,,,,,,,,,,,,masks/mask_004.jpg,,,,,,,,,,,,,,,,,,,,,,,,,,,,,,,,,,,,,,,,,,,0,2,2,3,1,,,,,,,,,,,,,,,,,,,,,,,,,,,,,,,,,,,,,,,,,,,,,,
586864,001,2022-11-20_16h57.11.916,Info_measure_main_exp,2022.2.2,Win32,60.0060006,,,,,,,,,,,,,,,,,,masks/mask_003.jpg,,,,,,,,,,,,,,,,,,,,,,,,,,,,,,,,,,,,,,,,,,,0,3,3,2,1,,,,,,,,,,,,,,,,,,,,,,,,,,,,,,,,,,,,,,,,,,,,,,
586864,001,2022-11-20_16h57.11.916,Info_measure_main_exp,2022.2.2,Win32,60.0060006,,,,,,,,,,,,,,,,,,masks/mask_001.jpg,,,,,,,,,,,,,,,,,,,,,,,,,,,,,,,,,,,,,,,,,,,0,4,4,0,1,,,,,,,,,,,,,,,,,,,,,,,,,,,,,,,,,,,,,,,,,,,,,,
586864,001,2022-11-20_16h57.11.916,Info_measure_main_exp,2022.2.2,Win32,60.0060006,,,,,,,,,,,,,,,,,,masks/mask_004.jpg,,,,,,,,,,,,,,,,,,,,,,,,,,,,,,,,,,,,,,,,,,,,,,,,0,0,0,3,1,,,,,,,,,,,,,,,,,,,,,,,,,,,,,,,,,,,,,,,,,
586864,001,2022-11-20_16h57.11.916,Info_measure_main_exp,2022.2.2,Win32,60.0060006,,,,,,,,,,,,,,,,,,masks/mask_003.jpg,,,,,,,,,,,,,,,,,,,,,,,,,,,,,,,,,,,,,,,,,,,,,,,,0,1,1,2,1,,,,,,,,,,,,,,,,,,,,,,,,,,,,,,,,,,,,,,,,,
586864,001,2022-11-20_16h57.11.916,Info_measure_main_exp,2022.2.2,Win32,60.0060006,,,,,,,,,,,,,,,,,,masks/mask_002.jpg,,,,,,,,,,,,,,,,,,,,,,,,,,,,,,,,,,,,,,,,,,,,,,,,0,2,2,1,1,,,,,,,,,,,,,,,,,,,,,,,,,,,,,,,,,,,,,,,,,
586864,001,2022-11-20_16h57.11.916,Info_measure_main_exp,2022.2.2,Win32,60.0060006,,,,,,,,,,,,,,,,,,masks/mask_005.jpg,,,,,,,,,,,,,,,,,,,,,,,,,,,,,,,,,,,,,,,,,,,,,,,,0,3,3,4,1,,,,,,,,,,,,,,,,,,,,,,,,,,,,,,,,,,,,,,,,,
586864,001,2022-11-20_16h57.11.916,Info_measure_main_exp,2022.2.2,Win32,60.0060006,,,,,,,,,,,,,,,,,,masks/mask_001.jpg,,,,,,,,,,,,,,,,,,,,,,,,,,,,,,,,,,,,,,,,,,,,,,,,0,4,4,0,1,,,,,,,,,,,,,,,,,,,,,,,,,,,,,,,,,,,,,,,,,
586864,001,2022-11-20_16h57.11.916,Info_measure_main_exp,2022.2.2,Win32,60.0060006,,,,,,,,,,,,,,,,,,,,,,,,,,,,,,5,0.8574,1,,,,,,,,,,,,0,131,5,5,2214,2142,absent_patch/patch0002214.jpg,absent_patch/patch0002142.jpg,,,,,,,,,,,,,,,,,,,,0.03515625,-0.03515625,1,0,0,response3disk,26,-0.0078125,0,1,0,0,center_square,0,25,25,102,1,,,,,,,,,,,,,,,,,,,,,,,
586864,001,2022-11-20_16h57.11.916,Info_measure_main_exp,2022.2.2,Win32,60.0060006,,,,,,,,,,,,,,,,,,masks/mask_003.jpg,,,,,,,,,,,,,,,,,,,,,,,,,,,,,,,,,,,,,,,,,,,0,0,0,2,1,,,,,,,,,,,,,,,,,,,,,,,,,,,,,,,,,,,,,,,,,,,,,,
586864,001,2022-11-20_16h57.11.916,Info_measure_main_exp,2022.2.2,Win32,60.0060006,,,,,,,,,,,,,,,,,,masks/mask_002.jpg,,,,,,,,,,,,,,,,,,,,,,,,,,,,,,,,,,,,,,,,,,,0,1,1,1,1,,,,,,,,,,,,,,,,,,,,,,,,,,,,,,,,,,,,,,,,,,,,,,
586864,001,2022-11-20_16h57.11.916,Info_measure_main_exp,2022.2.2,Win32,60.0060006,,,,,,,,,,,,,,,,,,masks/mask_004.jpg,,,,,,,,,,,,,,,,,,,,,,,,,,,,,,,,,,,,,,,,,,,0,2,2,3,1,,,,,,,,,,,,,,,,,,,,,,,,,,,,,,,,,,,,,,,,,,,,,,
586864,001,2022-11-20_16h57.11.916,Info_measure_main_exp,2022.2.2,Win32,60.0060006,,,,,,,,,,,,,,,,,,masks/mask_005.jpg,,,,,,,,,,,,,,,,,,,,,,,,,,,,,,,,,,,,,,,,,,,0,3,3,4,1,,,,,,,,,,,,,,,,,,,,,,,,,,,,,,,,,,,,,,,,,,,,,,
586864,001,2022-11-20_16h57.11.916,Info_measure_main_exp,2022.2.2,Win32,60.0060006,,,,,,,,,,,,,,,,,,masks/mask_001.jpg,,,,,,,,,,,,,,,,,,,,,,,,,,,,,,,,,,,,,,,,,,,0,4,4,0,1,,,,,,,,,,,,,,,,,,,,,,,,,,,,,,,,,,,,,,,,,,,,,,
586864,001,2022-11-20_16h57.11.916,Info_measure_main_exp,2022.2.2,Win32,60.0060006,,,,,,,,,,,,,,,,,,masks/mask_001.jpg,,,,,,,,,,,,,,,,,,,,,,,,,,,,,,,,,,,,,,,,,,,,,,,,0,0,0,0,1,,,,,,,,,,,,,,,,,,,,,,,,,,,,,,,,,,,,,,,,,
586864,001,2022-11-20_16h57.11.916,Info_measure_main_exp,2022.2.2,Win32,60.0060006,,,,,,,,,,,,,,,,,,masks/mask_004.jpg,,,,,,,,,,,,,,,,,,,,,,,,,,,,,,,,,,,,,,,,,,,,,,,,0,1,1,3,1,,,,,,,,,,,,,,,,,,,,,,,,,,,,,,,,,,,,,,,,,
586864,001,2022-11-20_16h57.11.916,Info_measure_main_exp,2022.2.2,Win32,60.0060006,,,,,,,,,,,,,,,,,,masks/mask_002.jpg,,,,,,,,,,,,,,,,,,,,,,,,,,,,,,,,,,,,,,,,,,,,,,,,0,2,2,1,1,,,,,,,,,,,,,,,,,,,,,,,,,,,,,,,,,,,,,,,,,
586864,001,2022-11-20_16h57.11.916,Info_measure_main_exp,2022.2.2,Win32,60.0060006,,,,,,,,,,,,,,,,,,masks/mask_003.jpg,,,,,,,,,,,,,,,,,,,,,,,,,,,,,,,,,,,,,,,,,,,,,,,,0,3,3,2,1,,,,,,,,,,,,,,,,,,,,,,,,,,,,,,,,,,,,,,,,,
586864,001,2022-11-20_16h57.11.916,Info_measure_main_exp,2022.2.2,Win32,60.0060006,,,,,,,,,,,,,,,,,,masks/mask_005.jpg,,,,,,,,,,,,,,,,,,,,,,,,,,,,,,,,,,,,,,,,,,,,,,,,0,4,4,4,1,,,,,,,,,,,,,,,,,,,,,,,,,,,,,,,,,,,,,,,,,
586864,001,2022-11-20_16h57.11.916,Info_measure_main_exp,2022.2.2,Win32,60.0060006,,,,,,,,,,,,,,,,,,,,,,,,,,,,,,6,0.7853,1,,,,,,,,,,,,1,131,5,5,1,2214,present_patch/cong_131_5_a.jpg,absent_patch/patch0002214.jpg,,,,,,,,,,,,,,,,,,,,0.07421875,0.041666667,1,0,0,response1disk,27,-0.006510417,0.002604167,1,0,0,center_square,0,26,26,4,1,,,,,,,,,,,,,,,,,,,,,,,
586864,001,2022-11-20_16h57.11.916,Info_measure_main_exp,2022.2.2,Win32,60.0060006,,,,,,,,,,,,,,,,,,masks/mask_005.jpg,,,,,,,,,,,,,,,,,,,,,,,,,,,,,,,,,,,,,,,,,,,0,0,0,4,1,,,,,,,,,,,,,,,,,,,,,,,,,,,,,,,,,,,,,,,,,,,,,,
586864,001,2022-11-20_16h57.11.916,Info_measure_main_exp,2022.2.2,Win32,60.0060006,,,,,,,,,,,,,,,,,,masks/mask_002.jpg,,,,,,,,,,,,,,,,,,,,,,,,,,,,,,,,,,,,,,,,,,,0,1,1,1,1,,,,,,,,,,,,,,,,,,,,,,,,,,,,,,,,,,,,,,,,,,,,,,
586864,001,2022-11-20_16h57.11.916,Info_measure_main_exp,2022.2.2,Win32,60.0060006,,,,,,,,,,,,,,,,,,masks/mask_001.jpg,,,,,,,,,,,,,,,,,,,,,,,,,,,,,,,,,,,,,,,,,,,0,2,2,0,1,,,,,,,,,,,,,,,,,,,,,,,,,,,,,,,,,,,,,,,,,,,,,,
586864,001,2022-11-20_16h57.11.916,Info_measure_main_exp,2022.2.2,Win32,60.0060006,,,,,,,,,,,,,,,,,,masks/mask_004.jpg,,,,,,,,,,,,,,,,,,,,,,,,,,,,,,,,,,,,,,,,,,,0,3,3,3,1,,,,,,,,,,,,,,,,,,,,,,,,,,,,,,,,,,,,,,,,,,,,,,
586864,001,2022-11-20_16h57.11.916,Info_measure_main_exp,2022.2.2,Win32,60.0060006,,,,,,,,,,,,,,,,,,masks/mask_003.jpg,,,,,,,,,,,,,,,,,,,,,,,,,,,,,,,,,,,,,,,,,,,0,4,4,2,1,,,,,,,,,,,,,,,,,,,,,,,,,,,,,,,,,,,,,,,,,,,,,,
586864,001,2022-11-20_16h57.11.916,Info_measure_main_exp,2022.2.2,Win32,60.0060006,,,,,,,,,,,,,,,,,,masks/mask_002.jpg,,,,,,,,,,,,,,,,,,,,,,,,,,,,,,,,,,,,,,,,,,,,,,,,0,0,0,1,1,,,,,,,,,,,,,,,,,,,,,,,,,,,,,,,,,,,,,,,,,
586864,001,2022-11-20_16h57.11.916,Info_measure_main_exp,2022.2.2,Win32,60.0060006,,,,,,,,,,,,,,,,,,masks/mask_005.jpg,,,,,,,,,,,,,,,,,,,,,,,,,,,,,,,,,,,,,,,,,,,,,,,,0,1,1,4,1,,,,,,,,,,,,,,,,,,,,,,,,,,,,,,,,,,,,,,,,,
586864,001,2022-11-20_16h57.11.916,Info_measure_main_exp,2022.2.2,Win32,60.0060006,,,,,,,,,,,,,,,,,,masks/mask_004.jpg,,,,,,,,,,,,,,,,,,,,,,,,,,,,,,,,,,,,,,,,,,,,,,,,0,2,2,3,1,,,,,,,,,,,,,,,,,,,,,,,,,,,,,,,,,,,,,,,,,
586864,001,2022-11-20_16h57.11.916,Info_measure_main_exp,2022.2.2,Win32,60.0060006,,,,,,,,,,,,,,,,,,masks/mask_003.jpg,,,,,,,,,,,,,,,,,,,,,,,,,,,,,,,,,,,,,,,,,,,,,,,,0,3,3,2,1,,,,,,,,,,,,,,,,,,,,,,,,,,,,,,,,,,,,,,,,,
586864,001,2022-11-20_16h57.11.916,Info_measure_main_exp,2022.2.2,Win32,60.0060006,,,,,,,,,,,,,,,,,,masks/mask_001.jpg,,,,,,,,,,,,,,,,,,,,,,,,,,,,,,,,,,,,,,,,,,,,,,,,0,4,4,0,1,,,,,,,,,,,,,,,,,,,,,,,,,,,,,,,,,,,,,,,,,
586864,001,2022-11-20_16h57.11.916,Info_measure_main_exp,2022.2.2,Win32,60.0060006,,,,,,,,,,,,,,,,,,,,,,,,,,,,,,5,0.7081,1,,,,,,,,,,,,0,131,5,5,2274,2082,absent_patch/patch0002274.jpg,absent_patch/patch0002082.jpg,,,,,,,,,,,,,,,,,,,,0.059895833,-0.02734375,1,0,0,response3disk,28,0.014322917,-0.006510417,1,0,0,center_square,0,27,27,100,1,,,,,,,,,,,,,,,,,,,,,,,
586864,001,2022-11-20_16h57.11.916,Info_measure_main_exp,2022.2.2,Win32,60.0060006,,,,,,,,,,,,,,,,,,masks/mask_002.jpg,,,,,,,,,,,,,,,,,,,,,,,,,,,,,,,,,,,,,,,,,,,0,0,0,1,1,,,,,,,,,,,,,,,,,,,,,,,,,,,,,,,,,,,,,,,,,,,,,,
586864,001,2022-11-20_16h57.11.916,Info_measure_main_exp,2022.2.2,Win32,60.0060006,,,,,,,,,,,,,,,,,,masks/mask_001.jpg,,,,,,,,,,,,,,,,,,,,,,,,,,,,,,,,,,,,,,,,,,,0,1,1,0,1,,,,,,,,,,,,,,,,,,,,,,,,,,,,,,,,,,,,,,,,,,,,,,
586864,001,2022-11-20_16h57.11.916,Info_measure_main_exp,2022.2.2,Win32,60.0060006,,,,,,,,,,,,,,,,,,masks/mask_003.jpg,,,,,,,,,,,,,,,,,,,,,,,,,,,,,,,,,,,,,,,,,,,0,2,2,2,1,,,,,,,,,,,,,,,,,,,,,,,,,,,,,,,,,,,,,,,,,,,,,,
586864,001,2022-11-20_16h57.11.916,Info_measure_main_exp,2022.2.2,Win32,60.0060006,,,,,,,,,,,,,,,,,,masks/mask_004.jpg,,,,,,,,,,,,,,,,,,,,,,,,,,,,,,,,,,,,,,,,,,,0,3,3,3,1,,,,,,,,,,,,,,,,,,,,,,,,,,,,,,,,,,,,,,,,,,,,,,
586864,001,2022-11-20_16h57.11.916,Info_measure_main_exp,2022.2.2,Win32,60.0060006,,,,,,,,,,,,,,,,,,masks/mask_005.jpg,,,,,,,,,,,,,,,,,,,,,,,,,,,,,,,,,,,,,,,,,,,0,4,4,4,1,,,,,,,,,,,,,,,,,,,,,,,,,,,,,,,,,,,,,,,,,,,,,,
586864,001,2022-11-20_16h57.11.916,Info_measure_main_exp,2022.2.2,Win32,60.0060006,,,,,,,,,,,,,,,,,,masks/mask_002.jpg,,,,,,,,,,,,,,,,,,,,,,,,,,,,,,,,,,,,,,,,,,,,,,,,0,0,0,1,1,,,,,,,,,,,,,,,,,,,,,,,,,,,,,,,,,,,,,,,,,
586864,001,2022-11-20_16h57.11.916,Info_measure_main_exp,2022.2.2,Win32,60.0060006,,,,,,,,,,,,,,,,,,masks/mask_003.jpg,,,,,,,,,,,,,,,,,,,,,,,,,,,,,,,,,,,,,,,,,,,,,,,,0,1,1,2,1,,,,,,,,,,,,,,,,,,,,,,,,,,,,,,,,,,,,,,,,,
586864,001,2022-11-20_16h57.11.916,Info_measure_main_exp,2022.2.2,Win32,60.0060006,,,,,,,,,,,,,,,,,,masks/mask_004.jpg,,,,,,,,,,,,,,,,,,,,,,,,,,,,,,,,,,,,,,,,,,,,,,,,0,2,2,3,1,,,,,,,,,,,,,,,,,,,,,,,,,,,,,,,,,,,,,,,,,
586864,001,2022-11-20_16h57.11.916,Info_measure_main_exp,2022.2.2,Win32,60.0060006,,,,,,,,,,,,,,,,,,masks/mask_005.jpg,,,,,,,,,,,,,,,,,,,,,,,,,,,,,,,,,,,,,,,,,,,,,,,,0,3,3,4,1,,,,,,,,,,,,,,,,,,,,,,,,,,,,,,,,,,,,,,,,,
586864,001,2022-11-20_16h57.11.916,Info_measure_main_exp,2022.2.2,Win32,60.0060006,,,,,,,,,,,,,,,,,,masks/mask_001.jpg,,,,,,,,,,,,,,,,,,,,,,,,,,,,,,,,,,,,,,,,,,,,,,,,0,4,4,0,1,,,,,,,,,,,,,,,,,,,,,,,,,,,,,,,,,,,,,,,,,
586864,001,2022-11-20_16h57.11.916,Info_measure_main_exp,2022.2.2,Win32,60.0060006,,,,,,,,,,,,,,,,,,,,,,,,,,,,,,6,0.5596,1,,,,,,,,,,,,0,131,5,5,2190,1974,absent_patch/patch0002190.jpg,absent_patch/patch0001974.jpg,,,,,,,,,,,,,,,,,,,,0.076822917,0.036458333,1,0,0,response1disk,29,0,-0.006510417,1,0,0,center_square,0,28,28,119,1,,,,,,,,,,,,,,,,,,,,,,,
586864,001,2022-11-20_16h57.11.916,Info_measure_main_exp,2022.2.2,Win32,60.0060006,,,,,,,,,,,,,,,,,,masks/mask_005.jpg,,,,,,,,,,,,,,,,,,,,,,,,,,,,,,,,,,,,,,,,,,,0,0,0,4,1,,,,,,,,,,,,,,,,,,,,,,,,,,,,,,,,,,,,,,,,,,,,,,
586864,001,2022-11-20_16h57.11.916,Info_measure_main_exp,2022.2.2,Win32,60.0060006,,,,,,,,,,,,,,,,,,masks/mask_002.jpg,,,,,,,,,,,,,,,,,,,,,,,,,,,,,,,,,,,,,,,,,,,0,1,1,1,1,,,,,,,,,,,,,,,,,,,,,,,,,,,,,,,,,,,,,,,,,,,,,,
586864,001,2022-11-20_16h57.11.916,Info_measure_main_exp,2022.2.2,Win32,60.0060006,,,,,,,,,,,,,,,,,,masks/mask_003.jpg,,,,,,,,,,,,,,,,,,,,,,,,,,,,,,,,,,,,,,,,,,,0,2,2,2,1,,,,,,,,,,,,,,,,,,,,,,,,,,,,,,,,,,,,,,,,,,,,,,
586864,001,2022-11-20_16h57.11.916,Info_measure_main_exp,2022.2.2,Win32,60.0060006,,,,,,,,,,,,,,,,,,masks/mask_001.jpg,,,,,,,,,,,,,,,,,,,,,,,,,,,,,,,,,,,,,,,,,,,0,3,3,0,1,,,,,,,,,,,,,,,,,,,,,,,,,,,,,,,,,,,,,,,,,,,,,,
586864,001,2022-11-20_16h57.11.916,Info_measure_main_exp,2022.2.2,Win32,60.0060006,,,,,,,,,,,,,,,,,,masks/mask_004.jpg,,,,,,,,,,,,,,,,,,,,,,,,,,,,,,,,,,,,,,,,,,,0,4,4,3,1,,,,,,,,,,,,,,,,,,,,,,,,,,,,,,,,,,,,,,,,,,,,,,
586864,001,2022-11-20_16h57.11.916,Info_measure_main_exp,2022.2.2,Win32,60.0060006,,,,,,,,,,,,,,,,,,masks/mask_002.jpg,,,,,,,,,,,,,,,,,,,,,,,,,,,,,,,,,,,,,,,,,,,,,,,,0,0,0,1,1,,,,,,,,,,,,,,,,,,,,,,,,,,,,,,,,,,,,,,,,,
586864,001,2022-11-20_16h57.11.916,Info_measure_main_exp,2022.2.2,Win32,60.0060006,,,,,,,,,,,,,,,,,,masks/mask_001.jpg,,,,,,,,,,,,,,,,,,,,,,,,,,,,,,,,,,,,,,,,,,,,,,,,0,1,1,0,1,,,,,,,,,,,,,,,,,,,,,,,,,,,,,,,,,,,,,,,,,
586864,001,2022-11-20_16h57.11.916,Info_measure_main_exp,2022.2.2,Win32,60.0060006,,,,,,,,,,,,,,,,,,masks/mask_003.jpg,,,,,,,,,,,,,,,,,,,,,,,,,,,,,,,,,,,,,,,,,,,,,,,,0,2,2,2,1,,,,,,,,,,,,,,,,,,,,,,,,,,,,,,,,,,,,,,,,,
586864,001,2022-11-20_16h57.11.916,Info_measure_main_exp,2022.2.2,Win32,60.0060006,,,,,,,,,,,,,,,,,,masks/mask_004.jpg,,,,,,,,,,,,,,,,,,,,,,,,,,,,,,,,,,,,,,,,,,,,,,,,0,3,3,3,1,,,,,,,,,,,,,,,,,,,,,,,,,,,,,,,,,,,,,,,,,
586864,001,2022-11-20_16h57.11.916,Info_measure_main_exp,2022.2.2,Win32,60.0060006,,,,,,,,,,,,,,,,,,masks/mask_005.jpg,,,,,,,,,,,,,,,,,,,,,,,,,,,,,,,,,,,,,,,,,,,,,,,,0,4,4,4,1,,,,,,,,,,,,,,,,,,,,,,,,,,,,,,,,,,,,,,,,,
586864,001,2022-11-20_16h57.11.916,Info_measure_main_exp,2022.2.2,Win32,60.0060006,,,,,,,,,,,,,,,,,,,,,,,,,,,,,,5,0.6662,1,,,,,,,,,,,,0,131,5,5,2274,2250,absent_patch/patch0002274.jpg,absent_patch/patch0002250.jpg,,,,,,,,,,,,,,,,,,,,0.046875,-0.037760417,1,0,0,response3disk,30,0.010416667,-0.01171875,1,0,0,center_square,0,29,29,28,1,,,,,,,,,,,,,,,,,,,,,,,
586864,001,2022-11-20_16h57.11.916,Info_measure_main_exp,2022.2.2,Win32,60.0060006,,,,,,,,,,,,,,,,,,masks/mask_004.jpg,,,,,,,,,,,,,,,,,,,,,,,,,,,,,,,,,,,,,,,,,,,0,0,0,3,1,,,,,,,,,,,,,,,,,,,,,,,,,,,,,,,,,,,,,,,,,,,,,,
586864,001,2022-11-20_16h57.11.916,Info_measure_main_exp,2022.2.2,Win32,60.0060006,,,,,,,,,,,,,,,,,,masks/mask_002.jpg,,,,,,,,,,,,,,,,,,,,,,,,,,,,,,,,,,,,,,,,,,,0,1,1,1,1,,,,,,,,,,,,,,,,,,,,,,,,,,,,,,,,,,,,,,,,,,,,,,
586864,001,2022-11-20_16h57.11.916,Info_measure_main_exp,2022.2.2,Win32,60.0060006,,,,,,,,,,,,,,,,,,masks/mask_001.jpg,,,,,,,,,,,,,,,,,,,,,,,,,,,,,,,,,,,,,,,,,,,0,2,2,0,1,,,,,,,,,,,,,,,,,,,,,,,,,,,,,,,,,,,,,,,,,,,,,,
586864,001,2022-11-20_16h57.11.916,Info_measure_main_exp,2022.2.2,Win32,60.0060006,,,,,,,,,,,,,,,,,,masks/mask_003.jpg,,,,,,,,,,,,,,,,,,,,,,,,,,,,,,,,,,,,,,,,,,,0,3,3,2,1,,,,,,,,,,,,,,,,,,,,,,,,,,,,,,,,,,,,,,,,,,,,,,
586864,001,2022-11-20_16h57.11.916,Info_measure_main_exp,2022.2.2,Win32,60.0060006,,,,,,,,,,,,,,,,,,masks/mask_005.jpg,,,,,,,,,,,,,,,,,,,,,,,,,,,,,,,,,,,,,,,,,,,0,4,4,4,1,,,,,,,,,,,,,,,,,,,,,,,,,,,,,,,,,,,,,,,,,,,,,,
586864,001,2022-11-20_16h57.11.916,Info_measure_main_exp,2022.2.2,Win32,60.0060006,,,,,,,,,,,,,,,,,,masks/mask_002.jpg,,,,,,,,,,,,,,,,,,,,,,,,,,,,,,,,,,,,,,,,,,,,,,,,0,0,0,1,1,,,,,,,,,,,,,,,,,,,,,,,,,,,,,,,,,,,,,,,,,
586864,001,2022-11-20_16h57.11.916,Info_measure_main_exp,2022.2.2,Win32,60.0060006,,,,,,,,,,,,,,,,,,masks/mask_004.jpg,,,,,,,,,,,,,,,,,,,,,,,,,,,,,,,,,,,,,,,,,,,,,,,,0,1,1,3,1,,,,,,,,,,,,,,,,,,,,,,,,,,,,,,,,,,,,,,,,,
586864,001,2022-11-20_16h57.11.916,Info_measure_main_exp,2022.2.2,Win32,60.0060006,,,,,,,,,,,,,,,,,,masks/mask_001.jpg,,,,,,,,,,,,,,,,,,,,,,,,,,,,,,,,,,,,,,,,,,,,,,,,0,2,2,0,1,,,,,,,,,,,,,,,,,,,,,,,,,,,,,,,,,,,,,,,,,
586864,001,2022-11-20_16h57.11.916,Info_measure_main_exp,2022.2.2,Win32,60.0060006,,,,,,,,,,,,,,,,,,masks/mask_005.jpg,,,,,,,,,,,,,,,,,,,,,,,,,,,,,,,,,,,,,,,,,,,,,,,,0,3,3,4,1,,,,,,,,,,,,,,,,,,,,,,,,,,,,,,,,,,,,,,,,,
586864,001,2022-11-20_16h57.11.916,Info_measure_main_exp,2022.2.2,Win32,60.0060006,,,,,,,,,,,,,,,,,,masks/mask_003.jpg,,,,,,,,,,,,,,,,,,,,,,,,,,,,,,,,,,,,,,,,,,,,,,,,0,4,4,2,1,,,,,,,,,,,,,,,,,,,,,,,,,,,,,,,,,,,,,,,,,
586864,001,2022-11-20_16h57.11.916,Info_measure_main_exp,2022.2.2,Win32,60.0060006,,,,,,,,,,,,,,,,,,,,,,,,,,,,,,5,0.7144,1,,,,,,,,,,,,0,131,5,5,2142,2154,absent_patch/patch0002142.jpg,absent_patch/patch0002154.jpg,,,,,,,,,,,,,,,,,,,,0.046875,-0.006510417,1,0,0,response3disk,31,-0.002604167,0.005208333,1,0,0,center_square,0,30,30,9,1,,,,,,,,,,,,,,,,,,,,,,,
586864,001,2022-11-20_16h57.11.916,Info_measure_main_exp,2022.2.2,Win32,60.0060006,,,,,,,,,,,,,,,,,,masks/mask_003.jpg,,,,,,,,,,,,,,,,,,,,,,,,,,,,,,,,,,,,,,,,,,,0,0,0,2,1,,,,,,,,,,,,,,,,,,,,,,,,,,,,,,,,,,,,,,,,,,,,,,
586864,001,2022-11-20_16h57.11.916,Info_measure_main_exp,2022.2.2,Win32,60.0060006,,,,,,,,,,,,,,,,,,masks/mask_004.jpg,,,,,,,,,,,,,,,,,,,,,,,,,,,,,,,,,,,,,,,,,,,0,1,1,3,1,,,,,,,,,,,,,,,,,,,,,,,,,,,,,,,,,,,,,,,,,,,,,,
586864,001,2022-11-20_16h57.11.916,Info_measure_main_exp,2022.2.2,Win32,60.0060006,,,,,,,,,,,,,,,,,,masks/mask_005.jpg,,,,,,,,,,,,,,,,,,,,,,,,,,,,,,,,,,,,,,,,,,,0,2,2,4,1,,,,,,,,,,,,,,,,,,,,,,,,,,,,,,,,,,,,,,,,,,,,,,
586864,001,2022-11-20_16h57.11.916,Info_measure_main_exp,2022.2.2,Win32,60.0060006,,,,,,,,,,,,,,,,,,masks/mask_002.jpg,,,,,,,,,,,,,,,,,,,,,,,,,,,,,,,,,,,,,,,,,,,0,3,3,1,1,,,,,,,,,,,,,,,,,,,,,,,,,,,,,,,,,,,,,,,,,,,,,,
586864,001,2022-11-20_16h57.11.916,Info_measure_main_exp,2022.2.2,Win32,60.0060006,,,,,,,,,,,,,,,,,,masks/mask_001.jpg,,,,,,,,,,,,,,,,,,,,,,,,,,,,,,,,,,,,,,,,,,,0,4,4,0,1,,,,,,,,,,,,,,,,,,,,,,,,,,,,,,,,,,,,,,,,,,,,,,
586864,001,2022-11-20_16h57.11.916,Info_measure_main_exp,2022.2.2,Win32,60.0060006,,,,,,,,,,,,,,,,,,masks/mask_005.jpg,,,,,,,,,,,,,,,,,,,,,,,,,,,,,,,,,,,,,,,,,,,,,,,,0,0,0,4,1,,,,,,,,,,,,,,,,,,,,,,,,,,,,,,,,,,,,,,,,,
586864,001,2022-11-20_16h57.11.916,Info_measure_main_exp,2022.2.2,Win32,60.0060006,,,,,,,,,,,,,,,,,,masks/mask_004.jpg,,,,,,,,,,,,,,,,,,,,,,,,,,,,,,,,,,,,,,,,,,,,,,,,0,1,1,3,1,,,,,,,,,,,,,,,,,,,,,,,,,,,,,,,,,,,,,,,,,
586864,001,2022-11-20_16h57.11.916,Info_measure_main_exp,2022.2.2,Win32,60.0060006,,,,,,,,,,,,,,,,,,masks/mask_003.jpg,,,,,,,,,,,,,,,,,,,,,,,,,,,,,,,,,,,,,,,,,,,,,,,,0,2,2,2,1,,,,,,,,,,,,,,,,,,,,,,,,,,,,,,,,,,,,,,,,,
586864,001,2022-11-20_16h57.11.916,Info_measure_main_exp,2022.2.2,Win32,60.0060006,,,,,,,,,,,,,,,,,,masks/mask_001.jpg,,,,,,,,,,,,,,,,,,,,,,,,,,,,,,,,,,,,,,,,,,,,,,,,0,3,3,0,1,,,,,,,,,,,,,,,,,,,,,,,,,,,,,,,,,,,,,,,,,
586864,001,2022-11-20_16h57.11.916,Info_measure_main_exp,2022.2.2,Win32,60.0060006,,,,,,,,,,,,,,,,,,masks/mask_002.jpg,,,,,,,,,,,,,,,,,,,,,,,,,,,,,,,,,,,,,,,,,,,,,,,,0,4,4,1,1,,,,,,,,,,,,,,,,,,,,,,,,,,,,,,,,,,,,,,,,,
586864,001,2022-11-20_16h57.11.916,Info_measure_main_exp,2022.2.2,Win32,60.0060006,,,,,,,,,,,,,,,,,,,,,,,,,,,,,,6,0.728,1,,,,,,,,,,,,0,131,5,5,2082,1986,absent_patch/patch0002082.jpg,absent_patch/patch0001986.jpg,,,,,,,,,,,,,,,,,,,,0.046875,0.029947917,1,0,0,response1disk,32,0.01171875,0.01171875,1,0,0,center_square,0,31,31,94,1,,,,,,,,,,,,,,,,,,,,,,,
586864,001,2022-11-20_16h57.11.916,Info_measure_main_exp,2022.2.2,Win32,60.0060006,,,,,,,,,,,,,,,,,,masks/mask_001.jpg,,,,,,,,,,,,,,,,,,,,,,,,,,,,,,,,,,,,,,,,,,,0,0,0,0,1,,,,,,,,,,,,,,,,,,,,,,,,,,,,,,,,,,,,,,,,,,,,,,
586864,001,2022-11-20_16h57.11.916,Info_measure_main_exp,2022.2.2,Win32,60.0060006,,,,,,,,,,,,,,,,,,masks/mask_003.jpg,,,,,,,,,,,,,,,,,,,,,,,,,,,,,,,,,,,,,,,,,,,0,1,1,2,1,,,,,,,,,,,,,,,,,,,,,,,,,,,,,,,,,,,,,,,,,,,,,,
586864,001,2022-11-20_16h57.11.916,Info_measure_main_exp,2022.2.2,Win32,60.0060006,,,,,,,,,,,,,,,,,,masks/mask_002.jpg,,,,,,,,,,,,,,,,,,,,,,,,,,,,,,,,,,,,,,,,,,,0,2,2,1,1,,,,,,,,,,,,,,,,,,,,,,,,,,,,,,,,,,,,,,,,,,,,,,
586864,001,2022-11-20_16h57.11.916,Info_measure_main_exp,2022.2.2,Win32,60.0060006,,,,,,,,,,,,,,,,,,masks/mask_005.jpg,,,,,,,,,,,,,,,,,,,,,,,,,,,,,,,,,,,,,,,,,,,0,3,3,4,1,,,,,,,,,,,,,,,,,,,,,,,,,,,,,,,,,,,,,,,,,,,,,,
586864,001,2022-11-20_16h57.11.916,Info_measure_main_exp,2022.2.2,Win32,60.0060006,,,,,,,,,,,,,,,,,,masks/mask_004.jpg,,,,,,,,,,,,,,,,,,,,,,,,,,,,,,,,,,,,,,,,,,,0,4,4,3,1,,,,,,,,,,,,,,,,,,,,,,,,,,,,,,,,,,,,,,,,,,,,,,
586864,001,2022-11-20_16h57.11.916,Info_measure_main_exp,2022.2.2,Win32,60.0060006,,,,,,,,,,,,,,,,,,masks/mask_004.jpg,,,,,,,,,,,,,,,,,,,,,,,,,,,,,,,,,,,,,,,,,,,,,,,,0,0,0,3,1,,,,,,,,,,,,,,,,,,,,,,,,,,,,,,,,,,,,,,,,,
586864,001,2022-11-20_16h57.11.916,Info_measure_main_exp,2022.2.2,Win32,60.0060006,,,,,,,,,,,,,,,,,,masks/mask_001.jpg,,,,,,,,,,,,,,,,,,,,,,,,,,,,,,,,,,,,,,,,,,,,,,,,0,1,1,0,1,,,,,,,,,,,,,,,,,,,,,,,,,,,,,,,,,,,,,,,,,
586864,001,2022-11-20_16h57.11.916,Info_measure_main_exp,2022.2.2,Win32,60.0060006,,,,,,,,,,,,,,,,,,masks/mask_003.jpg,,,,,,,,,,,,,,,,,,,,,,,,,,,,,,,,,,,,,,,,,,,,,,,,0,2,2,2,1,,,,,,,,,,,,,,,,,,,,,,,,,,,,,,,,,,,,,,,,,
586864,001,2022-11-20_16h57.11.916,Info_measure_main_exp,2022.2.2,Win32,60.0060006,,,,,,,,,,,,,,,,,,masks/mask_005.jpg,,,,,,,,,,,,,,,,,,,,,,,,,,,,,,,,,,,,,,,,,,,,,,,,0,3,3,4,1,,,,,,,,,,,,,,,,,,,,,,,,,,,,,,,,,,,,,,,,,
586864,001,2022-11-20_16h57.11.916,Info_measure_main_exp,2022.2.2,Win32,60.0060006,,,,,,,,,,,,,,,,,,masks/mask_002.jpg,,,,,,,,,,,,,,,,,,,,,,,,,,,,,,,,,,,,,,,,,,,,,,,,0,4,4,1,1,,,,,,,,,,,,,,,,,,,,,,,,,,,,,,,,,,,,,,,,,
586864,001,2022-11-20_16h57.11.916,Info_measure_main_exp,2022.2.2,Win32,60.0060006,,,,,,,,,,,,,,,,,,,,,,,,,,,,,,4,0.6481,1,,,,,,,,,,,,0,131,5,5,2250,1986,absent_patch/patch0002250.jpg,absent_patch/patch0001986.jpg,,,,,,,,,,,,,,,,,,,,0.020833333,-0.033854167,1,0,0,response3disk,33,0.001302083,-0.001302083,1,0,0,center_square,0,32,32,29,1,,,,,,,,,,,,,,,,,,,,,,,
586864,001,2022-11-20_16h57.11.916,Info_measure_main_exp,2022.2.2,Win32,60.0060006,,,,,,,,,,,,,,,,,,masks/mask_005.jpg,,,,,,,,,,,,,,,,,,,,,,,,,,,,,,,,,,,,,,,,,,,0,0,0,4,1,,,,,,,,,,,,,,,,,,,,,,,,,,,,,,,,,,,,,,,,,,,,,,
586864,001,2022-11-20_16h57.11.916,Info_measure_main_exp,2022.2.2,Win32,60.0060006,,,,,,,,,,,,,,,,,,masks/mask_003.jpg,,,,,,,,,,,,,,,,,,,,,,,,,,,,,,,,,,,,,,,,,,,0,1,1,2,1,,,,,,,,,,,,,,,,,,,,,,,,,,,,,,,,,,,,,,,,,,,,,,
586864,001,2022-11-20_16h57.11.916,Info_measure_main_exp,2022.2.2,Win32,60.0060006,,,,,,,,,,,,,,,,,,masks/mask_004.jpg,,,,,,,,,,,,,,,,,,,,,,,,,,,,,,,,,,,,,,,,,,,0,2,2,3,1,,,,,,,,,,,,,,,,,,,,,,,,,,,,,,,,,,,,,,,,,,,,,,
586864,001,2022-11-20_16h57.11.916,Info_measure_main_exp,2022.2.2,Win32,60.0060006,,,,,,,,,,,,,,,,,,masks/mask_001.jpg,,,,,,,,,,,,,,,,,,,,,,,,,,,,,,,,,,,,,,,,,,,0,3,3,0,1,,,,,,,,,,,,,,,,,,,,,,,,,,,,,,,,,,,,,,,,,,,,,,
586864,001,2022-11-20_16h57.11.916,Info_measure_main_exp,2022.2.2,Win32,60.0060006,,,,,,,,,,,,,,,,,,masks/mask_002.jpg,,,,,,,,,,,,,,,,,,,,,,,,,,,,,,,,,,,,,,,,,,,0,4,4,1,1,,,,,,,,,,,,,,,,,,,,,,,,,,,,,,,,,,,,,,,,,,,,,,
586864,001,2022-11-20_16h57.11.916,Info_measure_main_exp,2022.2.2,Win32,60.0060006,,,,,,,,,,,,,,,,,,masks/mask_004.jpg,,,,,,,,,,,,,,,,,,,,,,,,,,,,,,,,,,,,,,,,,,,,,,,,0,0,0,3,1,,,,,,,,,,,,,,,,,,,,,,,,,,,,,,,,,,,,,,,,,
586864,001,2022-11-20_16h57.11.916,Info_measure_main_exp,2022.2.2,Win32,60.0060006,,,,,,,,,,,,,,,,,,masks/mask_001.jpg,,,,,,,,,,,,,,,,,,,,,,,,,,,,,,,,,,,,,,,,,,,,,,,,0,1,1,0,1,,,,,,,,,,,,,,,,,,,,,,,,,,,,,,,,,,,,,,,,,
586864,001,2022-11-20_16h57.11.916,Info_measure_main_exp,2022.2.2,Win32,60.0060006,,,,,,,,,,,,,,,,,,masks/mask_003.jpg,,,,,,,,,,,,,,,,,,,,,,,,,,,,,,,,,,,,,,,,,,,,,,,,0,2,2,2,1,,,,,,,,,,,,,,,,,,,,,,,,,,,,,,,,,,,,,,,,,
586864,001,2022-11-20_16h57.11.916,Info_measure_main_exp,2022.2.2,Win32,60.0060006,,,,,,,,,,,,,,,,,,masks/mask_002.jpg,,,,,,,,,,,,,,,,,,,,,,,,,,,,,,,,,,,,,,,,,,,,,,,,0,3,3,1,1,,,,,,,,,,,,,,,,,,,,,,,,,,,,,,,,,,,,,,,,,
586864,001,2022-11-20_16h57.11.916,Info_measure_main_exp,2022.2.2,Win32,60.0060006,,,,,,,,,,,,,,,,,,masks/mask_005.jpg,,,,,,,,,,,,,,,,,,,,,,,,,,,,,,,,,,,,,,,,,,,,,,,,0,4,4,4,1,,,,,,,,,,,,,,,,,,,,,,,,,,,,,,,,,,,,,,,,,
586864,001,2022-11-20_16h57.11.916,Info_measure_main_exp,2022.2.2,Win32,60.0060006,,,,,,,,,,,,,,,,,,,,,,,,,,,,,,6,0.5613,1,,,,,,,,,,,,0,131,5,5,2178,1986,absent_patch/patch0002178.jpg,absent_patch/patch0001986.jpg,,,,,,,,,,,,,,,,,,,,0.084635417,0.033854167,1,0,0,response1disk,34,0.00390625,-0.002604167,1,0,0,center_square,0,33,33,46,1,,,,,,,,,,,,,,,,,,,,,,,
586864,001,2022-11-20_16h57.11.916,Info_measure_main_exp,2022.2.2,Win32,60.0060006,,,,,,,,,,,,,,,,,,masks/mask_004.jpg,,,,,,,,,,,,,,,,,,,,,,,,,,,,,,,,,,,,,,,,,,,0,0,0,3,1,,,,,,,,,,,,,,,,,,,,,,,,,,,,,,,,,,,,,,,,,,,,,,
586864,001,2022-11-20_16h57.11.916,Info_measure_main_exp,2022.2.2,Win32,60.0060006,,,,,,,,,,,,,,,,,,masks/mask_001.jpg,,,,,,,,,,,,,,,,,,,,,,,,,,,,,,,,,,,,,,,,,,,0,1,1,0,1,,,,,,,,,,,,,,,,,,,,,,,,,,,,,,,,,,,,,,,,,,,,,,
586864,001,2022-11-20_16h57.11.916,Info_measure_main_exp,2022.2.2,Win32,60.0060006,,,,,,,,,,,,,,,,,,masks/mask_002.jpg,,,,,,,,,,,,,,,,,,,,,,,,,,,,,,,,,,,,,,,,,,,0,2,2,1,1,,,,,,,,,,,,,,,,,,,,,,,,,,,,,,,,,,,,,,,,,,,,,,
586864,001,2022-11-20_16h57.11.916,Info_measure_main_exp,2022.2.2,Win32,60.0060006,,,,,,,,,,,,,,,,,,masks/mask_005.jpg,,,,,,,,,,,,,,,,,,,,,,,,,,,,,,,,,,,,,,,,,,,0,3,3,4,1,,,,,,,,,,,,,,,,,,,,,,,,,,,,,,,,,,,,,,,,,,,,,,
586864,001,2022-11-20_16h57.11.916,Info_measure_main_exp,2022.2.2,Win32,60.0060006,,,,,,,,,,,,,,,,,,masks/mask_003.jpg,,,,,,,,,,,,,,,,,,,,,,,,,,,,,,,,,,,,,,,,,,,0,4,4,2,1,,,,,,,,,,,,,,,,,,,,,,,,,,,,,,,,,,,,,,,,,,,,,,
586864,001,2022-11-20_16h57.11.916,Info_measure_main_exp,2022.2.2,Win32,60.0060006,,,,,,,,,,,,,,,,,,masks/mask_005.jpg,,,,,,,,,,,,,,,,,,,,,,,,,,,,,,,,,,,,,,,,,,,,,,,,0,0,0,4,1,,,,,,,,,,,,,,,,,,,,,,,,,,,,,,,,,,,,,,,,,
586864,001,2022-11-20_16h57.11.916,Info_measure_main_exp,2022.2.2,Win32,60.0060006,,,,,,,,,,,,,,,,,,masks/mask_004.jpg,,,,,,,,,,,,,,,,,,,,,,,,,,,,,,,,,,,,,,,,,,,,,,,,0,1,1,3,1,,,,,,,,,,,,,,,,,,,,,,,,,,,,,,,,,,,,,,,,,
586864,001,2022-11-20_16h57.11.916,Info_measure_main_exp,2022.2.2,Win32,60.0060006,,,,,,,,,,,,,,,,,,masks/mask_002.jpg,,,,,,,,,,,,,,,,,,,,,,,,,,,,,,,,,,,,,,,,,,,,,,,,0,2,2,1,1,,,,,,,,,,,,,,,,,,,,,,,,,,,,,,,,,,,,,,,,,
586864,001,2022-11-20_16h57.11.916,Info_measure_main_exp,2022.2.2,Win32,60.0060006,,,,,,,,,,,,,,,,,,masks/mask_001.jpg,,,,,,,,,,,,,,,,,,,,,,,,,,,,,,,,,,,,,,,,,,,,,,,,0,3,3,0,1,,,,,,,,,,,,,,,,,,,,,,,,,,,,,,,,,,,,,,,,,
586864,001,2022-11-20_16h57.11.916,Info_measure_main_exp,2022.2.2,Win32,60.0060006,,,,,,,,,,,,,,,,,,masks/mask_003.jpg,,,,,,,,,,,,,,,,,,,,,,,,,,,,,,,,,,,,,,,,,,,,,,,,0,4,4,2,1,,,,,,,,,,,,,,,,,,,,,,,,,,,,,,,,,,,,,,,,,
