participant,session,date,expName,psychopyVersion,OS,frameRate,space_press_continue.keys,space_press_continue.rt,space_press_continue_2.keys,space_press_continue_2.rt,space_press_continue_3.keys,space_press_continue_3.rt,space_press_continue_4.keys,space_press_continue_4.rt,space_press_continue_5.keys,space_press_continue_5.rt,space_press_continue_6.keys,space_press_continue_6.rt,prac_mask_loop_1.thisRepN,prac_mask_loop_1.thisTrialN,prac_mask_loop_1.thisN,prac_mask_loop_1.thisIndex,prac_mask_loop_1.ran,mask_name,prac_mask_loop_2.thisRepN,prac_mask_loop_2.thisTrialN,prac_mask_loop_2.thisN,prac_mask_loop_2.thisIndex,prac_mask_loop_2.ran,mouse_2.x,mouse_2.y,mouse_2.leftButton,mouse_2.midButton,mouse_2.rightButton,mouse_2.clicked_name,similarity,response_time,Pass,mouse_12.x,mouse_12.y,mouse_12.leftButton,mouse_12.midButton,mouse_12.rightButton,mouse_12.clicked_name,prac_loop.thisRepN,prac_loop.thisTrialN,prac_loop.thisN,prac_loop.thisIndex,prac_loop.ran,Pair_type,Image_num,Patch_1_loc,Patch_2_loc,Patch_1_info,Patch_2_info,Patch_1_name,Patch_2_name,mouse_1.x,mouse_1.y,mouse_1.leftButton,mouse_1.midButton,mouse_1.rightButton,mouse_1.time,mouse_1.clicked_name,space_press_continue_7.keys,space_press_continue_7.rt,mask_loop.thisRepN,mask_loop.thisTrialN,mask_loop.thisN,mask_loop.thisIndex,mask_loop.ran,mask_loop_2.thisRepN,mask_loop_2.thisTrialN,mask_loop_2.thisN,mask_loop_2.thisIndex,mask_loop_2.ran,mouse.x,mouse.y,mouse.leftButton,mouse.midButton,mouse.rightButton,mouse.clicked_name,trialNumber,mouse_11.x,mouse_11.y,mouse_11.leftButton,mouse_11.midButton,mouse_11.rightButton,mouse_11.clicked_name,first_pass_loop.thisRepN,first_pass_loop.thisTrialN,first_pass_loop.thisN,first_pass_loop.thisIndex,first_pass_loop.ran,mask_loop_3.thisRepN,mask_loop_3.thisTrialN,mask_loop_3.thisN,mask_loop_3.thisIndex,mask_loop_3.ran,mask_loop_4.thisRepN,mask_loop_4.thisTrialN,mask_loop_4.thisN,mask_loop_4.thisIndex,mask_loop_4.ran,mouse_3.x,mouse_3.y,mouse_3.leftButton,mouse_3.midButton,mouse_3.rightButton,mouse_3.clicked_name,double_pass_loop.thisRepN,double_pass_loop.thisTrialN,double_pass_loop.thisN,double_pass_loop.thisIndex,double_pass_loop.ran,space_exit.keys,space_exit.rt
590086,001,2022-11-20_23h50.47.995,Info_measure_main_exp,2022.2.2,MacIntel,60.0024001,,,,,,,,,,,,,,,,,,,,,,,,,,,,,,,,,,,,,,,,,,,,,,,,,,,,,,,,,,,,,,,,,,,,,,,,,,,,,,,,,,,,,,,,,,,,,,,,,,,,,,,,,,,,,,,
590086,001,2022-11-20_23h50.47.995,Info_measure_main_exp,2022.2.2,MacIntel,60.0024001,,,,,,,,,,,,,,,,,,,,,,,,,,,,,,,,,,,,,,,,,,,,,,,,,,,,,,,,,,,,,,,,,,,,,,,,,,,,,,,,,,,,,,,,,,,,,,,,,,,,,,,,,,,,,,,
590086,001,2022-11-20_23h50.47.995,Info_measure_main_exp,2022.2.2,MacIntel,60.0024001,space,7.9025,,,,,,,,,,,,,,,,,,,,,,,,,,,,,,,,,,,,,,,,,,,,,,,,,,,,,,,,,,,,,,,,,,,,,,,,,,,,,,,,,,,,,,,,,,,,,,,,,,,,,,,,,,,,,
590086,001,2022-11-20_23h50.47.995,Info_measure_main_exp,2022.2.2,MacIntel,60.0024001,,,space,15.661,,,,,,,,,,,,,,,,,,,,,,,,,,,,,,,,,,,,,,,,,,,,,,,,,,,,,,,,,,,,,,,,,,,,,,,,,,,,,,,,,,,,,,,,,,,,,,,,,,,,,,,,,,,
590086,001,2022-11-20_23h50.47.995,Info_measure_main_exp,2022.2.2,MacIntel,60.0024001,,,,,space,7.422,,,,,,,,,,,,,,,,,,,,,,,,,,,,,,,,,,,,,,,,,,,,,,,,,,,,,,,,,,,,,,,,,,,,,,,,,,,,,,,,,,,,,,,,,,,,,,,,,,,,,,,,,
590086,001,2022-11-20_23h50.47.995,Info_measure_main_exp,2022.2.2,MacIntel,60.0024001,,,,,,,space,446.076,,,,,,,,,,,,,,,,,,,,,,,,,,,,,,,,,,,,,,,,,,,,,,,,,,,,,,,,,,,,,,,,,,,,,,,,,,,,,,,,,,,,,,,,,,,,,,,,,,,,,,,
590086,001,2022-11-20_23h50.47.995,Info_measure_main_exp,2022.2.2,MacIntel,60.0024001,,,,,,,,,space,7.4696,,,,,,,,,,,,,,,,,,,,,,,,,,,,,,,,,,,,,,,,,,,,,,,,,,,,,,,,,,,,,,,,,,,,,,,,,,,,,,,,,,,,,,,,,,,,,,,,,,,,,
590086,001,2022-11-20_23h50.47.995,Info_measure_main_exp,2022.2.2,MacIntel,60.0024001,,,,,,,,,,,space,8.4247,,,,,,,,,,,,,,,,,,,,,,,,,,,,,,,,,,,,,,,,,,,,,,,,,,,,,,,,,,,,,,,,,,,,,,,,,,,,,,,,,,,,,,,,,,,,,,,,,,,
590086,001,2022-11-20_23h50.47.995,Info_measure_main_exp,2022.2.2,MacIntel,60.0024001,,,,,,,,,,,,,0,0,0,4,1,masks/mask_005.jpg,,,,,,,,,,,,,,,,,,,,,,,,,,,,,,,,,,,,,,,,,,,,,,,,,,,,,,,,,,,,,,,,,,,,,,,,,,,,,,,,,,,,,,,,,,,,,
590086,001,2022-11-20_23h50.47.995,Info_measure_main_exp,2022.2.2,MacIntel,60.0024001,,,,,,,,,,,,,0,1,1,3,1,masks/mask_004.jpg,,,,,,,,,,,,,,,,,,,,,,,,,,,,,,,,,,,,,,,,,,,,,,,,,,,,,,,,,,,,,,,,,,,,,,,,,,,,,,,,,,,,,,,,,,,,,
590086,001,2022-11-20_23h50.47.995,Info_measure_main_exp,2022.2.2,MacIntel,60.0024001,,,,,,,,,,,,,0,2,2,1,1,masks/mask_002.jpg,,,,,,,,,,,,,,,,,,,,,,,,,,,,,,,,,,,,,,,,,,,,,,,,,,,,,,,,,,,,,,,,,,,,,,,,,,,,,,,,,,,,,,,,,,,,,
590086,001,2022-11-20_23h50.47.995,Info_measure_main_exp,2022.2.2,MacIntel,60.0024001,,,,,,,,,,,,,0,3,3,0,1,masks/mask_001.jpg,,,,,,,,,,,,,,,,,,,,,,,,,,,,,,,,,,,,,,,,,,,,,,,,,,,,,,,,,,,,,,,,,,,,,,,,,,,,,,,,,,,,,,,,,,,,,
590086,001,2022-11-20_23h50.47.995,Info_measure_main_exp,2022.2.2,MacIntel,60.0024001,,,,,,,,,,,,,0,4,4,2,1,masks/mask_003.jpg,,,,,,,,,,,,,,,,,,,,,,,,,,,,,,,,,,,,,,,,,,,,,,,,,,,,,,,,,,,,,,,,,,,,,,,,,,,,,,,,,,,,,,,,,,,,,
590086,001,2022-11-20_23h50.47.995,Info_measure_main_exp,2022.2.2,MacIntel,60.0024001,,,,,,,,,,,,,,,,,,masks/mask_001.jpg,0,0,0,0,1,,,,,,,,,,,,,,,,,,,,,,,,,,,,,,,,,,,,,,,,,,,,,,,,,,,,,,,,,,,,,,,,,,,,,,,,,,,,,,,,,,,,,,,,
590086,001,2022-11-20_23h50.47.995,Info_measure_main_exp,2022.2.2,MacIntel,60.0024001,,,,,,,,,,,,,,,,,,masks/mask_003.jpg,0,1,1,2,1,,,,,,,,,,,,,,,,,,,,,,,,,,,,,,,,,,,,,,,,,,,,,,,,,,,,,,,,,,,,,,,,,,,,,,,,,,,,,,,,,,,,,,,,
590086,001,2022-11-20_23h50.47.995,Info_measure_main_exp,2022.2.2,MacIntel,60.0024001,,,,,,,,,,,,,,,,,,masks/mask_004.jpg,0,2,2,3,1,,,,,,,,,,,,,,,,,,,,,,,,,,,,,,,,,,,,,,,,,,,,,,,,,,,,,,,,,,,,,,,,,,,,,,,,,,,,,,,,,,,,,,,,
590086,001,2022-11-20_23h50.47.995,Info_measure_main_exp,2022.2.2,MacIntel,60.0024001,,,,,,,,,,,,,,,,,,masks/mask_002.jpg,0,3,3,1,1,,,,,,,,,,,,,,,,,,,,,,,,,,,,,,,,,,,,,,,,,,,,,,,,,,,,,,,,,,,,,,,,,,,,,,,,,,,,,,,,,,,,,,,,
590086,001,2022-11-20_23h50.47.995,Info_measure_main_exp,2022.2.2,MacIntel,60.0024001,,,,,,,,,,,,,,,,,,masks/mask_005.jpg,0,4,4,4,1,,,,,,,,,,,,,,,,,,,,,,,,,,,,,,,,,,,,,,,,,,,,,,,,,,,,,,,,,,,,,,,,,,,,,,,,,,,,,,,,,,,,,,,,
590086,001,2022-11-20_23h50.47.995,Info_measure_main_exp,2022.2.2,MacIntel,60.0024001,,,,,,,,,,,,,,,,,,,,,,,,-0.047340383,0.212358405,1,0,0,response7disk,0,510.7561,1,0.005015249,0.000881258,1,0,0,center_square,0,0,0,1,1,0,131,5,5,2514,2490,prac_patch/patch0002514.jpg,prac_patch/patch0002490.jpg,,,,,,,,,,,,,,,,,,,,,,,,,,,,,,,,,,,,,,,,,,,,,,,,,,,,,,,,,,,,
590086,001,2022-11-20_23h50.47.995,Info_measure_main_exp,2022.2.2,MacIntel,60.0024001,,,,,,,,,,,,,0,0,0,1,1,masks/mask_002.jpg,,,,,,,,,,,,,,,,,,,,,,,,,,,,,,,,,,,,,,,,,,,,,,,,,,,,,,,,,,,,,,,,,,,,,,,,,,,,,,,,,,,,,,,,,,,,,
590086,001,2022-11-20_23h50.47.995,Info_measure_main_exp,2022.2.2,MacIntel,60.0024001,,,,,,,,,,,,,0,1,1,2,1,masks/mask_003.jpg,,,,,,,,,,,,,,,,,,,,,,,,,,,,,,,,,,,,,,,,,,,,,,,,,,,,,,,,,,,,,,,,,,,,,,,,,,,,,,,,,,,,,,,,,,,,,
590086,001,2022-11-20_23h50.47.995,Info_measure_main_exp,2022.2.2,MacIntel,60.0024001,,,,,,,,,,,,,0,2,2,3,1,masks/mask_004.jpg,,,,,,,,,,,,,,,,,,,,,,,,,,,,,,,,,,,,,,,,,,,,,,,,,,,,,,,,,,,,,,,,,,,,,,,,,,,,,,,,,,,,,,,,,,,,,
590086,001,2022-11-20_23h50.47.995,Info_measure_main_exp,2022.2.2,MacIntel,60.0024001,,,,,,,,,,,,,0,3,3,0,1,masks/mask_001.jpg,,,,,,,,,,,,,,,,,,,,,,,,,,,,,,,,,,,,,,,,,,,,,,,,,,,,,,,,,,,,,,,,,,,,,,,,,,,,,,,,,,,,,,,,,,,,,
590086,001,2022-11-20_23h50.47.995,Info_measure_main_exp,2022.2.2,MacIntel,60.0024001,,,,,,,,,,,,,0,4,4,4,1,masks/mask_005.jpg,,,,,,,,,,,,,,,,,,,,,,,,,,,,,,,,,,,,,,,,,,,,,,,,,,,,,,,,,,,,,,,,,,,,,,,,,,,,,,,,,,,,,,,,,,,,,
590086,001,2022-11-20_23h50.47.995,Info_measure_main_exp,2022.2.2,MacIntel,60.0024001,,,,,,,,,,,,,,,,,,masks/mask_001.jpg,0,0,0,0,1,,,,,,,,,,,,,,,,,,,,,,,,,,,,,,,,,,,,,,,,,,,,,,,,,,,,,,,,,,,,,,,,,,,,,,,,,,,,,,,,,,,,,,,,
590086,001,2022-11-20_23h50.47.995,Info_measure_main_exp,2022.2.2,MacIntel,60.0024001,,,,,,,,,,,,,,,,,,masks/mask_002.jpg,0,1,1,1,1,,,,,,,,,,,,,,,,,,,,,,,,,,,,,,,,,,,,,,,,,,,,,,,,,,,,,,,,,,,,,,,,,,,,,,,,,,,,,,,,,,,,,,,,
590086,001,2022-11-20_23h50.47.995,Info_measure_main_exp,2022.2.2,MacIntel,60.0024001,,,,,,,,,,,,,,,,,,masks/mask_004.jpg,0,2,2,3,1,,,,,,,,,,,,,,,,,,,,,,,,,,,,,,,,,,,,,,,,,,,,,,,,,,,,,,,,,,,,,,,,,,,,,,,,,,,,,,,,,,,,,,,,
590086,001,2022-11-20_23h50.47.995,Info_measure_main_exp,2022.2.2,MacIntel,60.0024001,,,,,,,,,,,,,,,,,,masks/mask_003.jpg,0,3,3,2,1,,,,,,,,,,,,,,,,,,,,,,,,,,,,,,,,,,,,,,,,,,,,,,,,,,,,,,,,,,,,,,,,,,,,,,,,,,,,,,,,,,,,,,,,
590086,001,2022-11-20_23h50.47.995,Info_measure_main_exp,2022.2.2,MacIntel,60.0024001,,,,,,,,,,,,,,,,,,masks/mask_005.jpg,0,4,4,4,1,,,,,,,,,,,,,,,,,,,,,,,,,,,,,,,,,,,,,,,,,,,,,,,,,,,,,,,,,,,,,,,,,,,,,,,,,,,,,,,,,,,,,,,,
590086,001,2022-11-20_23h50.47.995,Info_measure_main_exp,2022.2.2,MacIntel,60.0024001,,,,,,,,,,,,,,,,,,,,,,,,0.176890249,-0.047483959,1,0,0,response3disk,5,525.9589,1,-0.010391912,-0.005906408,1,0,0,center_square,0,1,1,0,1,0,131,5,5,2370,2406,prac_patch/patch0002370.jpg,prac_patch/patch0002406.jpg,,,,,,,,,,,,,,,,,,,,,,,,,,,,,,,,,,,,,,,,,,,,,,,,,,,,,,,,,,,,
590086,001,2022-11-20_23h50.47.995,Info_measure_main_exp,2022.2.2,MacIntel,60.0024001,,,,,,,,,,,,,0,0,0,4,1,masks/mask_005.jpg,,,,,,,,,,,,,,,,,,,,,,,,,,,,,,,,,,,,,,,,,,,,,,,,,,,,,,,,,,,,,,,,,,,,,,,,,,,,,,,,,,,,,,,,,,,,,
590086,001,2022-11-20_23h50.47.995,Info_measure_main_exp,2022.2.2,MacIntel,60.0024001,,,,,,,,,,,,,0,1,1,0,1,masks/mask_001.jpg,,,,,,,,,,,,,,,,,,,,,,,,,,,,,,,,,,,,,,,,,,,,,,,,,,,,,,,,,,,,,,,,,,,,,,,,,,,,,,,,,,,,,,,,,,,,,
590086,001,2022-11-20_23h50.47.995,Info_measure_main_exp,2022.2.2,MacIntel,60.0024001,,,,,,,,,,,,,0,2,2,3,1,masks/mask_004.jpg,,,,,,,,,,,,,,,,,,,,,,,,,,,,,,,,,,,,,,,,,,,,,,,,,,,,,,,,,,,,,,,,,,,,,,,,,,,,,,,,,,,,,,,,,,,,,
590086,001,2022-11-20_23h50.47.995,Info_measure_main_exp,2022.2.2,MacIntel,60.0024001,,,,,,,,,,,,,0,3,3,2,1,masks/mask_003.jpg,,,,,,,,,,,,,,,,,,,,,,,,,,,,,,,,,,,,,,,,,,,,,,,,,,,,,,,,,,,,,,,,,,,,,,,,,,,,,,,,,,,,,,,,,,,,,
590086,001,2022-11-20_23h50.47.995,Info_measure_main_exp,2022.2.2,MacIntel,60.0024001,,,,,,,,,,,,,0,4,4,1,1,masks/mask_002.jpg,,,,,,,,,,,,,,,,,,,,,,,,,,,,,,,,,,,,,,,,,,,,,,,,,,,,,,,,,,,,,,,,,,,,,,,,,,,,,,,,,,,,,,,,,,,,,
590086,001,2022-11-20_23h50.47.995,Info_measure_main_exp,2022.2.2,MacIntel,60.0024001,,,,,,,,,,,,,,,,,,masks/mask_003.jpg,0,0,0,2,1,,,,,,,,,,,,,,,,,,,,,,,,,,,,,,,,,,,,,,,,,,,,,,,,,,,,,,,,,,,,,,,,,,,,,,,,,,,,,,,,,,,,,,,,
590086,001,2022-11-20_23h50.47.995,Info_measure_main_exp,2022.2.2,MacIntel,60.0024001,,,,,,,,,,,,,,,,,,masks/mask_005.jpg,0,1,1,4,1,,,,,,,,,,,,,,,,,,,,,,,,,,,,,,,,,,,,,,,,,,,,,,,,,,,,,,,,,,,,,,,,,,,,,,,,,,,,,,,,,,,,,,,,
590086,001,2022-11-20_23h50.47.995,Info_measure_main_exp,2022.2.2,MacIntel,60.0024001,,,,,,,,,,,,,,,,,,masks/mask_001.jpg,0,2,2,0,1,,,,,,,,,,,,,,,,,,,,,,,,,,,,,,,,,,,,,,,,,,,,,,,,,,,,,,,,,,,,,,,,,,,,,,,,,,,,,,,,,,,,,,,,
590086,001,2022-11-20_23h50.47.995,Info_measure_main_exp,2022.2.2,MacIntel,60.0024001,,,,,,,,,,,,,,,,,,masks/mask_004.jpg,0,3,3,3,1,,,,,,,,,,,,,,,,,,,,,,,,,,,,,,,,,,,,,,,,,,,,,,,,,,,,,,,,,,,,,,,,,,,,,,,,,,,,,,,,,,,,,,,,
590086,001,2022-11-20_23h50.47.995,Info_measure_main_exp,2022.2.2,MacIntel,60.0024001,,,,,,,,,,,,,,,,,,masks/mask_002.jpg,0,4,4,1,1,,,,,,,,,,,,,,,,,,,,,,,,,,,,,,,,,,,,,,,,,,,,,,,,,,,,,,,,,,,,,,,,,,,,,,,,,,,,,,,,,,,,,,,,
590086,001,2022-11-20_23h50.47.995,Info_measure_main_exp,2022.2.2,MacIntel,60.0024001,,,,,,,,,,,,,,,,,,,,,,,,-0.099631654,0.215170509,1,0,0,response7disk,0,534.3612,1,0.004594423,-0.019303509,1,0,0,center_square,0,2,2,2,1,0,131,5,5,2526,2526,prac_patch/patch0002526.jpg,prac_patch/patch0002526.jpg,,,,,,,,,,,,,,,,,,,,,,,,,,,,,,,,,,,,,,,,,,,,,,,,,,,,,,,,,,,,
590086,001,2022-11-20_23h50.47.995,Info_measure_main_exp,2022.2.2,MacIntel,60.0024001,,,,,,,,,,,,,,,,,,,,,,,,,,,,,,,,,,,,,,,,,,,,,,,,,,,,,,,,,,,space,6.0615,,,,,,,,,,,,,,,,,,,,,,,,,,,,,,,,,,,,,,,,,,,,,,,,,,,
590086,001,2022-11-20_23h50.47.995,Info_measure_main_exp,2022.2.2,MacIntel,60.0024001,,,,,,,,,,,,,,,,,,masks/mask_005.jpg,,,,,,,,,,,,,,,,,,,,,,,,,,,,,,,,,,,,,,,,,,,0,0,0,4,1,,,,,,,,,,,,,,,,,,,,,,,,,,,,,,,,,,,,,,,,,,,,,,
590086,001,2022-11-20_23h50.47.995,Info_measure_main_exp,2022.2.2,MacIntel,60.0024001,,,,,,,,,,,,,,,,,,masks/mask_002.jpg,,,,,,,,,,,,,,,,,,,,,,,,,,,,,,,,,,,,,,,,,,,0,1,1,1,1,,,,,,,,,,,,,,,,,,,,,,,,,,,,,,,,,,,,,,,,,,,,,,
590086,001,2022-11-20_23h50.47.995,Info_measure_main_exp,2022.2.2,MacIntel,60.0024001,,,,,,,,,,,,,,,,,,masks/mask_001.jpg,,,,,,,,,,,,,,,,,,,,,,,,,,,,,,,,,,,,,,,,,,,0,2,2,0,1,,,,,,,,,,,,,,,,,,,,,,,,,,,,,,,,,,,,,,,,,,,,,,
590086,001,2022-11-20_23h50.47.995,Info_measure_main_exp,2022.2.2,MacIntel,60.0024001,,,,,,,,,,,,,,,,,,masks/mask_003.jpg,,,,,,,,,,,,,,,,,,,,,,,,,,,,,,,,,,,,,,,,,,,0,3,3,2,1,,,,,,,,,,,,,,,,,,,,,,,,,,,,,,,,,,,,,,,,,,,,,,
590086,001,2022-11-20_23h50.47.995,Info_measure_main_exp,2022.2.2,MacIntel,60.0024001,,,,,,,,,,,,,,,,,,masks/mask_004.jpg,,,,,,,,,,,,,,,,,,,,,,,,,,,,,,,,,,,,,,,,,,,0,4,4,3,1,,,,,,,,,,,,,,,,,,,,,,,,,,,,,,,,,,,,,,,,,,,,,,
590086,001,2022-11-20_23h50.47.995,Info_measure_main_exp,2022.2.2,MacIntel,60.0024001,,,,,,,,,,,,,,,,,,masks/mask_002.jpg,,,,,,,,,,,,,,,,,,,,,,,,,,,,,,,,,,,,,,,,,,,,,,,,0,0,0,1,1,,,,,,,,,,,,,,,,,,,,,,,,,,,,,,,,,,,,,,,,,
590086,001,2022-11-20_23h50.47.995,Info_measure_main_exp,2022.2.2,MacIntel,60.0024001,,,,,,,,,,,,,,,,,,masks/mask_003.jpg,,,,,,,,,,,,,,,,,,,,,,,,,,,,,,,,,,,,,,,,,,,,,,,,0,1,1,2,1,,,,,,,,,,,,,,,,,,,,,,,,,,,,,,,,,,,,,,,,,
590086,001,2022-11-20_23h50.47.995,Info_measure_main_exp,2022.2.2,MacIntel,60.0024001,,,,,,,,,,,,,,,,,,masks/mask_001.jpg,,,,,,,,,,,,,,,,,,,,,,,,,,,,,,,,,,,,,,,,,,,,,,,,0,2,2,0,1,,,,,,,,,,,,,,,,,,,,,,,,,,,,,,,,,,,,,,,,,
590086,001,2022-11-20_23h50.47.995,Info_measure_main_exp,2022.2.2,MacIntel,60.0024001,,,,,,,,,,,,,,,,,,masks/mask_004.jpg,,,,,,,,,,,,,,,,,,,,,,,,,,,,,,,,,,,,,,,,,,,,,,,,0,3,3,3,1,,,,,,,,,,,,,,,,,,,,,,,,,,,,,,,,,,,,,,,,,
590086,001,2022-11-20_23h50.47.995,Info_measure_main_exp,2022.2.2,MacIntel,60.0024001,,,,,,,,,,,,,,,,,,masks/mask_005.jpg,,,,,,,,,,,,,,,,,,,,,,,,,,,,,,,,,,,,,,,,,,,,,,,,0,4,4,4,1,,,,,,,,,,,,,,,,,,,,,,,,,,,,,,,,,,,,,,,,,
590086,001,2022-11-20_23h50.47.995,Info_measure_main_exp,2022.2.2,MacIntel,60.0024001,,,,,,,,,,,,,,,,,,,,,,,,,,,,,,7,1.75,1,,,,,,,,,,,,0,131,5,5,2190,2166,absent_patch/patch0002190.jpg,absent_patch/patch0002166.jpg,,,,,,,,,,,,,,,,,,,,0.126757565,0.17806856,1,0,0,response1disk,1,-0.001044637,-0.00630743,1,0,0,center_square,0,0,0,50,1,,,,,,,,,,,,,,,,,,,,,,,
590086,001,2022-11-20_23h50.47.995,Info_measure_main_exp,2022.2.2,MacIntel,60.0024001,,,,,,,,,,,,,,,,,,masks/mask_005.jpg,,,,,,,,,,,,,,,,,,,,,,,,,,,,,,,,,,,,,,,,,,,0,0,0,4,1,,,,,,,,,,,,,,,,,,,,,,,,,,,,,,,,,,,,,,,,,,,,,,
590086,001,2022-11-20_23h50.47.995,Info_measure_main_exp,2022.2.2,MacIntel,60.0024001,,,,,,,,,,,,,,,,,,masks/mask_002.jpg,,,,,,,,,,,,,,,,,,,,,,,,,,,,,,,,,,,,,,,,,,,0,1,1,1,1,,,,,,,,,,,,,,,,,,,,,,,,,,,,,,,,,,,,,,,,,,,,,,
590086,001,2022-11-20_23h50.47.995,Info_measure_main_exp,2022.2.2,MacIntel,60.0024001,,,,,,,,,,,,,,,,,,masks/mask_004.jpg,,,,,,,,,,,,,,,,,,,,,,,,,,,,,,,,,,,,,,,,,,,0,2,2,3,1,,,,,,,,,,,,,,,,,,,,,,,,,,,,,,,,,,,,,,,,,,,,,,
590086,001,2022-11-20_23h50.47.995,Info_measure_main_exp,2022.2.2,MacIntel,60.0024001,,,,,,,,,,,,,,,,,,masks/mask_003.jpg,,,,,,,,,,,,,,,,,,,,,,,,,,,,,,,,,,,,,,,,,,,0,3,3,2,1,,,,,,,,,,,,,,,,,,,,,,,,,,,,,,,,,,,,,,,,,,,,,,
590086,001,2022-11-20_23h50.47.995,Info_measure_main_exp,2022.2.2,MacIntel,60.0024001,,,,,,,,,,,,,,,,,,masks/mask_001.jpg,,,,,,,,,,,,,,,,,,,,,,,,,,,,,,,,,,,,,,,,,,,0,4,4,0,1,,,,,,,,,,,,,,,,,,,,,,,,,,,,,,,,,,,,,,,,,,,,,,
590086,001,2022-11-20_23h50.47.995,Info_measure_main_exp,2022.2.2,MacIntel,60.0024001,,,,,,,,,,,,,,,,,,masks/mask_005.jpg,,,,,,,,,,,,,,,,,,,,,,,,,,,,,,,,,,,,,,,,,,,,,,,,0,0,0,4,1,,,,,,,,,,,,,,,,,,,,,,,,,,,,,,,,,,,,,,,,,
590086,001,2022-11-20_23h50.47.995,Info_measure_main_exp,2022.2.2,MacIntel,60.0024001,,,,,,,,,,,,,,,,,,masks/mask_001.jpg,,,,,,,,,,,,,,,,,,,,,,,,,,,,,,,,,,,,,,,,,,,,,,,,0,1,1,0,1,,,,,,,,,,,,,,,,,,,,,,,,,,,,,,,,,,,,,,,,,
590086,001,2022-11-20_23h50.47.995,Info_measure_main_exp,2022.2.2,MacIntel,60.0024001,,,,,,,,,,,,,,,,,,masks/mask_002.jpg,,,,,,,,,,,,,,,,,,,,,,,,,,,,,,,,,,,,,,,,,,,,,,,,0,2,2,1,1,,,,,,,,,,,,,,,,,,,,,,,,,,,,,,,,,,,,,,,,,
590086,001,2022-11-20_23h50.47.995,Info_measure_main_exp,2022.2.2,MacIntel,60.0024001,,,,,,,,,,,,,,,,,,masks/mask_003.jpg,,,,,,,,,,,,,,,,,,,,,,,,,,,,,,,,,,,,,,,,,,,,,,,,0,3,3,2,1,,,,,,,,,,,,,,,,,,,,,,,,,,,,,,,,,,,,,,,,,
590086,001,2022-11-20_23h50.47.995,Info_measure_main_exp,2022.2.2,MacIntel,60.0024001,,,,,,,,,,,,,,,,,,masks/mask_004.jpg,,,,,,,,,,,,,,,,,,,,,,,,,,,,,,,,,,,,,,,,,,,,,,,,0,4,4,3,1,,,,,,,,,,,,,,,,,,,,,,,,,,,,,,,,,,,,,,,,,
590086,001,2022-11-20_23h50.47.995,Info_measure_main_exp,2022.2.2,MacIntel,60.0024001,,,,,,,,,,,,,,,,,,,,,,,,,,,,,,7,0.9176,1,,,,,,,,,,,,0,131,5,5,2298,2274,absent_patch/patch0002298.jpg,absent_patch/patch0002274.jpg,,,,,,,,,,,,,,,,,,,,0.063014892,0.18074699,1,0,0,response1disk,2,0.006218314,0.009743346,1,0,0,center_square,0,1,1,1,1,,,,,,,,,,,,,,,,,,,,,,,
590086,001,2022-11-20_23h50.47.995,Info_measure_main_exp,2022.2.2,MacIntel,60.0024001,,,,,,,,,,,,,,,,,,masks/mask_004.jpg,,,,,,,,,,,,,,,,,,,,,,,,,,,,,,,,,,,,,,,,,,,0,0,0,3,1,,,,,,,,,,,,,,,,,,,,,,,,,,,,,,,,,,,,,,,,,,,,,,
590086,001,2022-11-20_23h50.47.995,Info_measure_main_exp,2022.2.2,MacIntel,60.0024001,,,,,,,,,,,,,,,,,,masks/mask_005.jpg,,,,,,,,,,,,,,,,,,,,,,,,,,,,,,,,,,,,,,,,,,,0,1,1,4,1,,,,,,,,,,,,,,,,,,,,,,,,,,,,,,,,,,,,,,,,,,,,,,
590086,001,2022-11-20_23h50.47.995,Info_measure_main_exp,2022.2.2,MacIntel,60.0024001,,,,,,,,,,,,,,,,,,masks/mask_002.jpg,,,,,,,,,,,,,,,,,,,,,,,,,,,,,,,,,,,,,,,,,,,0,2,2,1,1,,,,,,,,,,,,,,,,,,,,,,,,,,,,,,,,,,,,,,,,,,,,,,
590086,001,2022-11-20_23h50.47.995,Info_measure_main_exp,2022.2.2,MacIntel,60.0024001,,,,,,,,,,,,,,,,,,masks/mask_003.jpg,,,,,,,,,,,,,,,,,,,,,,,,,,,,,,,,,,,,,,,,,,,0,3,3,2,1,,,,,,,,,,,,,,,,,,,,,,,,,,,,,,,,,,,,,,,,,,,,,,
590086,001,2022-11-20_23h50.47.995,Info_measure_main_exp,2022.2.2,MacIntel,60.0024001,,,,,,,,,,,,,,,,,,masks/mask_001.jpg,,,,,,,,,,,,,,,,,,,,,,,,,,,,,,,,,,,,,,,,,,,0,4,4,0,1,,,,,,,,,,,,,,,,,,,,,,,,,,,,,,,,,,,,,,,,,,,,,,
590086,001,2022-11-20_23h50.47.995,Info_measure_main_exp,2022.2.2,MacIntel,60.0024001,,,,,,,,,,,,,,,,,,masks/mask_001.jpg,,,,,,,,,,,,,,,,,,,,,,,,,,,,,,,,,,,,,,,,,,,,,,,,0,0,0,0,1,,,,,,,,,,,,,,,,,,,,,,,,,,,,,,,,,,,,,,,,,
590086,001,2022-11-20_23h50.47.995,Info_measure_main_exp,2022.2.2,MacIntel,60.0024001,,,,,,,,,,,,,,,,,,masks/mask_004.jpg,,,,,,,,,,,,,,,,,,,,,,,,,,,,,,,,,,,,,,,,,,,,,,,,0,1,1,3,1,,,,,,,,,,,,,,,,,,,,,,,,,,,,,,,,,,,,,,,,,
590086,001,2022-11-20_23h50.47.995,Info_measure_main_exp,2022.2.2,MacIntel,60.0024001,,,,,,,,,,,,,,,,,,masks/mask_003.jpg,,,,,,,,,,,,,,,,,,,,,,,,,,,,,,,,,,,,,,,,,,,,,,,,0,2,2,2,1,,,,,,,,,,,,,,,,,,,,,,,,,,,,,,,,,,,,,,,,,
590086,001,2022-11-20_23h50.47.995,Info_measure_main_exp,2022.2.2,MacIntel,60.0024001,,,,,,,,,,,,,,,,,,masks/mask_002.jpg,,,,,,,,,,,,,,,,,,,,,,,,,,,,,,,,,,,,,,,,,,,,,,,,0,3,3,1,1,,,,,,,,,,,,,,,,,,,,,,,,,,,,,,,,,,,,,,,,,
590086,001,2022-11-20_23h50.47.995,Info_measure_main_exp,2022.2.2,MacIntel,60.0024001,,,,,,,,,,,,,,,,,,masks/mask_005.jpg,,,,,,,,,,,,,,,,,,,,,,,,,,,,,,,,,,,,,,,,,,,,,,,,0,4,4,4,1,,,,,,,,,,,,,,,,,,,,,,,,,,,,,,,,,,,,,,,,,
590086,001,2022-11-20_23h50.47.995,Info_measure_main_exp,2022.2.2,MacIntel,60.0024001,,,,,,,,,,,,,,,,,,,,,,,,,,,,,,7,0.9175,1,,,,,,,,,,,,0,131,5,5,2214,2178,absent_patch/patch0002214.jpg,absent_patch/patch0002178.jpg,,,,,,,,,,,,,,,,,,,,0.07617435,0.205125158,1,0,0,response1disk,3,0.011015724,0.006015328,1,0,0,center_square,0,2,2,62,1,,,,,,,,,,,,,,,,,,,,,,,
590086,001,2022-11-20_23h50.47.995,Info_measure_main_exp,2022.2.2,MacIntel,60.0024001,,,,,,,,,,,,,,,,,,masks/mask_003.jpg,,,,,,,,,,,,,,,,,,,,,,,,,,,,,,,,,,,,,,,,,,,0,0,0,2,1,,,,,,,,,,,,,,,,,,,,,,,,,,,,,,,,,,,,,,,,,,,,,,
590086,001,2022-11-20_23h50.47.995,Info_measure_main_exp,2022.2.2,MacIntel,60.0024001,,,,,,,,,,,,,,,,,,masks/mask_005.jpg,,,,,,,,,,,,,,,,,,,,,,,,,,,,,,,,,,,,,,,,,,,0,1,1,4,1,,,,,,,,,,,,,,,,,,,,,,,,,,,,,,,,,,,,,,,,,,,,,,
590086,001,2022-11-20_23h50.47.995,Info_measure_main_exp,2022.2.2,MacIntel,60.0024001,,,,,,,,,,,,,,,,,,masks/mask_004.jpg,,,,,,,,,,,,,,,,,,,,,,,,,,,,,,,,,,,,,,,,,,,0,2,2,3,1,,,,,,,,,,,,,,,,,,,,,,,,,,,,,,,,,,,,,,,,,,,,,,
590086,001,2022-11-20_23h50.47.995,Info_measure_main_exp,2022.2.2,MacIntel,60.0024001,,,,,,,,,,,,,,,,,,masks/mask_001.jpg,,,,,,,,,,,,,,,,,,,,,,,,,,,,,,,,,,,,,,,,,,,0,3,3,0,1,,,,,,,,,,,,,,,,,,,,,,,,,,,,,,,,,,,,,,,,,,,,,,
590086,001,2022-11-20_23h50.47.995,Info_measure_main_exp,2022.2.2,MacIntel,60.0024001,,,,,,,,,,,,,,,,,,masks/mask_002.jpg,,,,,,,,,,,,,,,,,,,,,,,,,,,,,,,,,,,,,,,,,,,0,4,4,1,1,,,,,,,,,,,,,,,,,,,,,,,,,,,,,,,,,,,,,,,,,,,,,,
590086,001,2022-11-20_23h50.47.995,Info_measure_main_exp,2022.2.2,MacIntel,60.0024001,,,,,,,,,,,,,,,,,,masks/mask_002.jpg,,,,,,,,,,,,,,,,,,,,,,,,,,,,,,,,,,,,,,,,,,,,,,,,0,0,0,1,1,,,,,,,,,,,,,,,,,,,,,,,,,,,,,,,,,,,,,,,,,
590086,001,2022-11-20_23h50.47.995,Info_measure_main_exp,2022.2.2,MacIntel,60.0024001,,,,,,,,,,,,,,,,,,masks/mask_001.jpg,,,,,,,,,,,,,,,,,,,,,,,,,,,,,,,,,,,,,,,,,,,,,,,,0,1,1,0,1,,,,,,,,,,,,,,,,,,,,,,,,,,,,,,,,,,,,,,,,,
590086,001,2022-11-20_23h50.47.995,Info_measure_main_exp,2022.2.2,MacIntel,60.0024001,,,,,,,,,,,,,,,,,,masks/mask_004.jpg,,,,,,,,,,,,,,,,,,,,,,,,,,,,,,,,,,,,,,,,,,,,,,,,0,2,2,3,1,,,,,,,,,,,,,,,,,,,,,,,,,,,,,,,,,,,,,,,,,
590086,001,2022-11-20_23h50.47.995,Info_measure_main_exp,2022.2.2,MacIntel,60.0024001,,,,,,,,,,,,,,,,,,masks/mask_005.jpg,,,,,,,,,,,,,,,,,,,,,,,,,,,,,,,,,,,,,,,,,,,,,,,,0,3,3,4,1,,,,,,,,,,,,,,,,,,,,,,,,,,,,,,,,,,,,,,,,,
590086,001,2022-11-20_23h50.47.995,Info_measure_main_exp,2022.2.2,MacIntel,60.0024001,,,,,,,,,,,,,,,,,,masks/mask_003.jpg,,,,,,,,,,,,,,,,,,,,,,,,,,,,,,,,,,,,,,,,,,,,,,,,0,4,4,2,1,,,,,,,,,,,,,,,,,,,,,,,,,,,,,,,,,,,,,,,,,
590086,001,2022-11-20_23h50.47.995,Info_measure_main_exp,2022.2.2,MacIntel,60.0024001,,,,,,,,,,,,,,,,,,,,,,,,,,,,,,5,3.1157,1,,,,,,,,,,,,0,131,5,5,1950,2082,absent_patch/patch0001950.jpg,absent_patch/patch0002082.jpg,,,,,,,,,,,,,,,,,,,,0.186044439,-0.06367336,1,0,0,response3disk,4,-0.007099572,-0.008525428,1,0,0,center_square,0,3,3,12,1,,,,,,,,,,,,,,,,,,,,,,,
590086,001,2022-11-20_23h50.47.995,Info_measure_main_exp,2022.2.2,MacIntel,60.0024001,,,,,,,,,,,,,,,,,,masks/mask_002.jpg,,,,,,,,,,,,,,,,,,,,,,,,,,,,,,,,,,,,,,,,,,,0,0,0,1,1,,,,,,,,,,,,,,,,,,,,,,,,,,,,,,,,,,,,,,,,,,,,,,
590086,001,2022-11-20_23h50.47.995,Info_measure_main_exp,2022.2.2,MacIntel,60.0024001,,,,,,,,,,,,,,,,,,masks/mask_003.jpg,,,,,,,,,,,,,,,,,,,,,,,,,,,,,,,,,,,,,,,,,,,0,1,1,2,1,,,,,,,,,,,,,,,,,,,,,,,,,,,,,,,,,,,,,,,,,,,,,,
590086,001,2022-11-20_23h50.47.995,Info_measure_main_exp,2022.2.2,MacIntel,60.0024001,,,,,,,,,,,,,,,,,,masks/mask_005.jpg,,,,,,,,,,,,,,,,,,,,,,,,,,,,,,,,,,,,,,,,,,,0,2,2,4,1,,,,,,,,,,,,,,,,,,,,,,,,,,,,,,,,,,,,,,,,,,,,,,
590086,001,2022-11-20_23h50.47.995,Info_measure_main_exp,2022.2.2,MacIntel,60.0024001,,,,,,,,,,,,,,,,,,masks/mask_001.jpg,,,,,,,,,,,,,,,,,,,,,,,,,,,,,,,,,,,,,,,,,,,0,3,3,0,1,,,,,,,,,,,,,,,,,,,,,,,,,,,,,,,,,,,,,,,,,,,,,,
590086,001,2022-11-20_23h50.47.995,Info_measure_main_exp,2022.2.2,MacIntel,60.0024001,,,,,,,,,,,,,,,,,,masks/mask_004.jpg,,,,,,,,,,,,,,,,,,,,,,,,,,,,,,,,,,,,,,,,,,,0,4,4,3,1,,,,,,,,,,,,,,,,,,,,,,,,,,,,,,,,,,,,,,,,,,,,,,
590086,001,2022-11-20_23h50.47.995,Info_measure_main_exp,2022.2.2,MacIntel,60.0024001,,,,,,,,,,,,,,,,,,masks/mask_004.jpg,,,,,,,,,,,,,,,,,,,,,,,,,,,,,,,,,,,,,,,,,,,,,,,,0,0,0,3,1,,,,,,,,,,,,,,,,,,,,,,,,,,,,,,,,,,,,,,,,,
590086,001,2022-11-20_23h50.47.995,Info_measure_main_exp,2022.2.2,MacIntel,60.0024001,,,,,,,,,,,,,,,,,,masks/mask_003.jpg,,,,,,,,,,,,,,,,,,,,,,,,,,,,,,,,,,,,,,,,,,,,,,,,0,1,1,2,1,,,,,,,,,,,,,,,,,,,,,,,,,,,,,,,,,,,,,,,,,
590086,001,2022-11-20_23h50.47.995,Info_measure_main_exp,2022.2.2,MacIntel,60.0024001,,,,,,,,,,,,,,,,,,masks/mask_005.jpg,,,,,,,,,,,,,,,,,,,,,,,,,,,,,,,,,,,,,,,,,,,,,,,,0,2,2,4,1,,,,,,,,,,,,,,,,,,,,,,,,,,,,,,,,,,,,,,,,,
590086,001,2022-11-20_23h50.47.995,Info_measure_main_exp,2022.2.2,MacIntel,60.0024001,,,,,,,,,,,,,,,,,,masks/mask_001.jpg,,,,,,,,,,,,,,,,,,,,,,,,,,,,,,,,,,,,,,,,,,,,,,,,0,3,3,0,1,,,,,,,,,,,,,,,,,,,,,,,,,,,,,,,,,,,,,,,,,
590086,001,2022-11-20_23h50.47.995,Info_measure_main_exp,2022.2.2,MacIntel,60.0024001,,,,,,,,,,,,,,,,,,masks/mask_002.jpg,,,,,,,,,,,,,,,,,,,,,,,,,,,,,,,,,,,,,,,,,,,,,,,,0,4,4,1,1,,,,,,,,,,,,,,,,,,,,,,,,,,,,,,,,,,,,,,,,,
590086,001,2022-11-20_23h50.47.995,Info_measure_main_exp,2022.2.2,MacIntel,60.0024001,,,,,,,,,,,,,,,,,,,,,,,,,,,,,,4,2.4326,1,,,,,,,,,,,,0,131,5,5,2082,2178,absent_patch/patch0002082.jpg,absent_patch/patch0002178.jpg,,,,,,,,,,,,,,,,,,,,0.040859672,-0.166765684,1,0,0,response3disk,5,-0.004737999,0.005450927,1,0,0,center_square,0,4,4,2,1,,,,,,,,,,,,,,,,,,,,,,,
590086,001,2022-11-20_23h50.47.995,Info_measure_main_exp,2022.2.2,MacIntel,60.0024001,,,,,,,,,,,,,,,,,,masks/mask_002.jpg,,,,,,,,,,,,,,,,,,,,,,,,,,,,,,,,,,,,,,,,,,,0,0,0,1,1,,,,,,,,,,,,,,,,,,,,,,,,,,,,,,,,,,,,,,,,,,,,,,
590086,001,2022-11-20_23h50.47.995,Info_measure_main_exp,2022.2.2,MacIntel,60.0024001,,,,,,,,,,,,,,,,,,masks/mask_001.jpg,,,,,,,,,,,,,,,,,,,,,,,,,,,,,,,,,,,,,,,,,,,0,1,1,0,1,,,,,,,,,,,,,,,,,,,,,,,,,,,,,,,,,,,,,,,,,,,,,,
590086,001,2022-11-20_23h50.47.995,Info_measure_main_exp,2022.2.2,MacIntel,60.0024001,,,,,,,,,,,,,,,,,,masks/mask_003.jpg,,,,,,,,,,,,,,,,,,,,,,,,,,,,,,,,,,,,,,,,,,,0,2,2,2,1,,,,,,,,,,,,,,,,,,,,,,,,,,,,,,,,,,,,,,,,,,,,,,
590086,001,2022-11-20_23h50.47.995,Info_measure_main_exp,2022.2.2,MacIntel,60.0024001,,,,,,,,,,,,,,,,,,masks/mask_004.jpg,,,,,,,,,,,,,,,,,,,,,,,,,,,,,,,,,,,,,,,,,,,0,3,3,3,1,,,,,,,,,,,,,,,,,,,,,,,,,,,,,,,,,,,,,,,,,,,,,,
590086,001,2022-11-20_23h50.47.995,Info_measure_main_exp,2022.2.2,MacIntel,60.0024001,,,,,,,,,,,,,,,,,,masks/mask_005.jpg,,,,,,,,,,,,,,,,,,,,,,,,,,,,,,,,,,,,,,,,,,,0,4,4,4,1,,,,,,,,,,,,,,,,,,,,,,,,,,,,,,,,,,,,,,,,,,,,,,
590086,001,2022-11-20_23h50.47.995,Info_measure_main_exp,2022.2.2,MacIntel,60.0024001,,,,,,,,,,,,,,,,,,masks/mask_003.jpg,,,,,,,,,,,,,,,,,,,,,,,,,,,,,,,,,,,,,,,,,,,,,,,,0,0,0,2,1,,,,,,,,,,,,,,,,,,,,,,,,,,,,,,,,,,,,,,,,,
590086,001,2022-11-20_23h50.47.995,Info_measure_main_exp,2022.2.2,MacIntel,60.0024001,,,,,,,,,,,,,,,,,,masks/mask_004.jpg,,,,,,,,,,,,,,,,,,,,,,,,,,,,,,,,,,,,,,,,,,,,,,,,0,1,1,3,1,,,,,,,,,,,,,,,,,,,,,,,,,,,,,,,,,,,,,,,,,
590086,001,2022-11-20_23h50.47.995,Info_measure_main_exp,2022.2.2,MacIntel,60.0024001,,,,,,,,,,,,,,,,,,masks/mask_005.jpg,,,,,,,,,,,,,,,,,,,,,,,,,,,,,,,,,,,,,,,,,,,,,,,,0,2,2,4,1,,,,,,,,,,,,,,,,,,,,,,,,,,,,,,,,,,,,,,,,,
590086,001,2022-11-20_23h50.47.995,Info_measure_main_exp,2022.2.2,MacIntel,60.0024001,,,,,,,,,,,,,,,,,,masks/mask_002.jpg,,,,,,,,,,,,,,,,,,,,,,,,,,,,,,,,,,,,,,,,,,,,,,,,0,3,3,1,1,,,,,,,,,,,,,,,,,,,,,,,,,,,,,,,,,,,,,,,,,
590086,001,2022-11-20_23h50.47.995,Info_measure_main_exp,2022.2.2,MacIntel,60.0024001,,,,,,,,,,,,,,,,,,masks/mask_001.jpg,,,,,,,,,,,,,,,,,,,,,,,,,,,,,,,,,,,,,,,,,,,,,,,,0,4,4,0,1,,,,,,,,,,,,,,,,,,,,,,,,,,,,,,,,,,,,,,,,,
590086,001,2022-11-20_23h50.47.995,Info_measure_main_exp,2022.2.2,MacIntel,60.0024001,,,,,,,,,,,,,,,,,,,,,,,,,,,,,,6,2.2327,1,,,,,,,,,,,,0,131,5,5,2190,1950,absent_patch/patch0002190.jpg,absent_patch/patch0001950.jpg,,,,,,,,,,,,,,,,,,,,0.188430767,0.070228335,1,0,0,response1disk,6,-0.007594661,-0.005376663,1,0,0,center_square,0,5,5,73,1,,,,,,,,,,,,,,,,,,,,,,,
590086,001,2022-11-20_23h50.47.995,Info_measure_main_exp,2022.2.2,MacIntel,60.0024001,,,,,,,,,,,,,,,,,,masks/mask_002.jpg,,,,,,,,,,,,,,,,,,,,,,,,,,,,,,,,,,,,,,,,,,,0,0,0,1,1,,,,,,,,,,,,,,,,,,,,,,,,,,,,,,,,,,,,,,,,,,,,,,
590086,001,2022-11-20_23h50.47.995,Info_measure_main_exp,2022.2.2,MacIntel,60.0024001,,,,,,,,,,,,,,,,,,masks/mask_005.jpg,,,,,,,,,,,,,,,,,,,,,,,,,,,,,,,,,,,,,,,,,,,0,1,1,4,1,,,,,,,,,,,,,,,,,,,,,,,,,,,,,,,,,,,,,,,,,,,,,,
590086,001,2022-11-20_23h50.47.995,Info_measure_main_exp,2022.2.2,MacIntel,60.0024001,,,,,,,,,,,,,,,,,,masks/mask_003.jpg,,,,,,,,,,,,,,,,,,,,,,,,,,,,,,,,,,,,,,,,,,,0,2,2,2,1,,,,,,,,,,,,,,,,,,,,,,,,,,,,,,,,,,,,,,,,,,,,,,
590086,001,2022-11-20_23h50.47.995,Info_measure_main_exp,2022.2.2,MacIntel,60.0024001,,,,,,,,,,,,,,,,,,masks/mask_001.jpg,,,,,,,,,,,,,,,,,,,,,,,,,,,,,,,,,,,,,,,,,,,0,3,3,0,1,,,,,,,,,,,,,,,,,,,,,,,,,,,,,,,,,,,,,,,,,,,,,,
590086,001,2022-11-20_23h50.47.995,Info_measure_main_exp,2022.2.2,MacIntel,60.0024001,,,,,,,,,,,,,,,,,,masks/mask_004.jpg,,,,,,,,,,,,,,,,,,,,,,,,,,,,,,,,,,,,,,,,,,,0,4,4,3,1,,,,,,,,,,,,,,,,,,,,,,,,,,,,,,,,,,,,,,,,,,,,,,
590086,001,2022-11-20_23h50.47.995,Info_measure_main_exp,2022.2.2,MacIntel,60.0024001,,,,,,,,,,,,,,,,,,masks/mask_002.jpg,,,,,,,,,,,,,,,,,,,,,,,,,,,,,,,,,,,,,,,,,,,,,,,,0,0,0,1,1,,,,,,,,,,,,,,,,,,,,,,,,,,,,,,,,,,,,,,,,,
590086,001,2022-11-20_23h50.47.995,Info_measure_main_exp,2022.2.2,MacIntel,60.0024001,,,,,,,,,,,,,,,,,,masks/mask_001.jpg,,,,,,,,,,,,,,,,,,,,,,,,,,,,,,,,,,,,,,,,,,,,,,,,0,1,1,0,1,,,,,,,,,,,,,,,,,,,,,,,,,,,,,,,,,,,,,,,,,
590086,001,2022-11-20_23h50.47.995,Info_measure_main_exp,2022.2.2,MacIntel,60.0024001,,,,,,,,,,,,,,,,,,masks/mask_004.jpg,,,,,,,,,,,,,,,,,,,,,,,,,,,,,,,,,,,,,,,,,,,,,,,,0,2,2,3,1,,,,,,,,,,,,,,,,,,,,,,,,,,,,,,,,,,,,,,,,,
590086,001,2022-11-20_23h50.47.995,Info_measure_main_exp,2022.2.2,MacIntel,60.0024001,,,,,,,,,,,,,,,,,,masks/mask_003.jpg,,,,,,,,,,,,,,,,,,,,,,,,,,,,,,,,,,,,,,,,,,,,,,,,0,3,3,2,1,,,,,,,,,,,,,,,,,,,,,,,,,,,,,,,,,,,,,,,,,
590086,001,2022-11-20_23h50.47.995,Info_measure_main_exp,2022.2.2,MacIntel,60.0024001,,,,,,,,,,,,,,,,,,masks/mask_005.jpg,,,,,,,,,,,,,,,,,,,,,,,,,,,,,,,,,,,,,,,,,,,,,,,,0,4,4,4,1,,,,,,,,,,,,,,,,,,,,,,,,,,,,,,,,,,,,,,,,,
590086,001,2022-11-20_23h50.47.995,Info_measure_main_exp,2022.2.2,MacIntel,60.0024001,,,,,,,,,,,,,,,,,,,,,,,,,,,,,,7,1.0333,1,,,,,,,,,,,,0,131,5,5,2166,2298,absent_patch/patch0002166.jpg,absent_patch/patch0002298.jpg,,,,,,,,,,,,,,,,,,,,0.065188332,0.202867554,1,0,0,response1disk,7,0.006757961,-0.007728335,1,0,0,center_square,0,6,6,52,1,,,,,,,,,,,,,,,,,,,,,,,
590086,001,2022-11-20_23h50.47.995,Info_measure_main_exp,2022.2.2,MacIntel,60.0024001,,,,,,,,,,,,,,,,,,masks/mask_004.jpg,,,,,,,,,,,,,,,,,,,,,,,,,,,,,,,,,,,,,,,,,,,0,0,0,3,1,,,,,,,,,,,,,,,,,,,,,,,,,,,,,,,,,,,,,,,,,,,,,,
590086,001,2022-11-20_23h50.47.995,Info_measure_main_exp,2022.2.2,MacIntel,60.0024001,,,,,,,,,,,,,,,,,,masks/mask_003.jpg,,,,,,,,,,,,,,,,,,,,,,,,,,,,,,,,,,,,,,,,,,,0,1,1,2,1,,,,,,,,,,,,,,,,,,,,,,,,,,,,,,,,,,,,,,,,,,,,,,
590086,001,2022-11-20_23h50.47.995,Info_measure_main_exp,2022.2.2,MacIntel,60.0024001,,,,,,,,,,,,,,,,,,masks/mask_002.jpg,,,,,,,,,,,,,,,,,,,,,,,,,,,,,,,,,,,,,,,,,,,0,2,2,1,1,,,,,,,,,,,,,,,,,,,,,,,,,,,,,,,,,,,,,,,,,,,,,,
590086,001,2022-11-20_23h50.47.995,Info_measure_main_exp,2022.2.2,MacIntel,60.0024001,,,,,,,,,,,,,,,,,,masks/mask_005.jpg,,,,,,,,,,,,,,,,,,,,,,,,,,,,,,,,,,,,,,,,,,,0,3,3,4,1,,,,,,,,,,,,,,,,,,,,,,,,,,,,,,,,,,,,,,,,,,,,,,
590086,001,2022-11-20_23h50.47.995,Info_measure_main_exp,2022.2.2,MacIntel,60.0024001,,,,,,,,,,,,,,,,,,masks/mask_001.jpg,,,,,,,,,,,,,,,,,,,,,,,,,,,,,,,,,,,,,,,,,,,0,4,4,0,1,,,,,,,,,,,,,,,,,,,,,,,,,,,,,,,,,,,,,,,,,,,,,,
590086,001,2022-11-20_23h50.47.995,Info_measure_main_exp,2022.2.2,MacIntel,60.0024001,,,,,,,,,,,,,,,,,,masks/mask_005.jpg,,,,,,,,,,,,,,,,,,,,,,,,,,,,,,,,,,,,,,,,,,,,,,,,0,0,0,4,1,,,,,,,,,,,,,,,,,,,,,,,,,,,,,,,,,,,,,,,,,
590086,001,2022-11-20_23h50.47.995,Info_measure_main_exp,2022.2.2,MacIntel,60.0024001,,,,,,,,,,,,,,,,,,masks/mask_002.jpg,,,,,,,,,,,,,,,,,,,,,,,,,,,,,,,,,,,,,,,,,,,,,,,,0,1,1,1,1,,,,,,,,,,,,,,,,,,,,,,,,,,,,,,,,,,,,,,,,,
590086,001,2022-11-20_23h50.47.995,Info_measure_main_exp,2022.2.2,MacIntel,60.0024001,,,,,,,,,,,,,,,,,,masks/mask_001.jpg,,,,,,,,,,,,,,,,,,,,,,,,,,,,,,,,,,,,,,,,,,,,,,,,0,2,2,0,1,,,,,,,,,,,,,,,,,,,,,,,,,,,,,,,,,,,,,,,,,
590086,001,2022-11-20_23h50.47.995,Info_measure_main_exp,2022.2.2,MacIntel,60.0024001,,,,,,,,,,,,,,,,,,masks/mask_003.jpg,,,,,,,,,,,,,,,,,,,,,,,,,,,,,,,,,,,,,,,,,,,,,,,,0,3,3,2,1,,,,,,,,,,,,,,,,,,,,,,,,,,,,,,,,,,,,,,,,,
590086,001,2022-11-20_23h50.47.995,Info_measure_main_exp,2022.2.2,MacIntel,60.0024001,,,,,,,,,,,,,,,,,,masks/mask_004.jpg,,,,,,,,,,,,,,,,,,,,,,,,,,,,,,,,,,,,,,,,,,,,,,,,0,4,4,3,1,,,,,,,,,,,,,,,,,,,,,,,,,,,,,,,,,,,,,,,,,
590086,001,2022-11-20_23h50.47.995,Info_measure_main_exp,2022.2.2,MacIntel,60.0024001,,,,,,,,,,,,,,,,,,,,,,,,,,,,,,7,1.0655,1,,,,,,,,,,,,0,131,5,5,2190,2238,absent_patch/patch0002190.jpg,absent_patch/patch0002238.jpg,,,,,,,,,,,,,,,,,,,,0.064356583,0.192713284,1,0,0,response1disk,8,-0.004876624,-0.000599057,1,0,0,center_square,0,7,7,53,1,,,,,,,,,,,,,,,,,,,,,,,
590086,001,2022-11-20_23h50.47.995,Info_measure_main_exp,2022.2.2,MacIntel,60.0024001,,,,,,,,,,,,,,,,,,masks/mask_003.jpg,,,,,,,,,,,,,,,,,,,,,,,,,,,,,,,,,,,,,,,,,,,0,0,0,2,1,,,,,,,,,,,,,,,,,,,,,,,,,,,,,,,,,,,,,,,,,,,,,,
590086,001,2022-11-20_23h50.47.995,Info_measure_main_exp,2022.2.2,MacIntel,60.0024001,,,,,,,,,,,,,,,,,,masks/mask_002.jpg,,,,,,,,,,,,,,,,,,,,,,,,,,,,,,,,,,,,,,,,,,,0,1,1,1,1,,,,,,,,,,,,,,,,,,,,,,,,,,,,,,,,,,,,,,,,,,,,,,
590086,001,2022-11-20_23h50.47.995,Info_measure_main_exp,2022.2.2,MacIntel,60.0024001,,,,,,,,,,,,,,,,,,masks/mask_001.jpg,,,,,,,,,,,,,,,,,,,,,,,,,,,,,,,,,,,,,,,,,,,0,2,2,0,1,,,,,,,,,,,,,,,,,,,,,,,,,,,,,,,,,,,,,,,,,,,,,,
590086,001,2022-11-20_23h50.47.995,Info_measure_main_exp,2022.2.2,MacIntel,60.0024001,,,,,,,,,,,,,,,,,,masks/mask_004.jpg,,,,,,,,,,,,,,,,,,,,,,,,,,,,,,,,,,,,,,,,,,,0,3,3,3,1,,,,,,,,,,,,,,,,,,,,,,,,,,,,,,,,,,,,,,,,,,,,,,
590086,001,2022-11-20_23h50.47.995,Info_measure_main_exp,2022.2.2,MacIntel,60.0024001,,,,,,,,,,,,,,,,,,masks/mask_005.jpg,,,,,,,,,,,,,,,,,,,,,,,,,,,,,,,,,,,,,,,,,,,0,4,4,4,1,,,,,,,,,,,,,,,,,,,,,,,,,,,,,,,,,,,,,,,,,,,,,,
590086,001,2022-11-20_23h50.47.995,Info_measure_main_exp,2022.2.2,MacIntel,60.0024001,,,,,,,,,,,,,,,,,,masks/mask_005.jpg,,,,,,,,,,,,,,,,,,,,,,,,,,,,,,,,,,,,,,,,,,,,,,,,0,0,0,4,1,,,,,,,,,,,,,,,,,,,,,,,,,,,,,,,,,,,,,,,,,
590086,001,2022-11-20_23h50.47.995,Info_measure_main_exp,2022.2.2,MacIntel,60.0024001,,,,,,,,,,,,,,,,,,masks/mask_004.jpg,,,,,,,,,,,,,,,,,,,,,,,,,,,,,,,,,,,,,,,,,,,,,,,,0,1,1,3,1,,,,,,,,,,,,,,,,,,,,,,,,,,,,,,,,,,,,,,,,,
590086,001,2022-11-20_23h50.47.995,Info_measure_main_exp,2022.2.2,MacIntel,60.0024001,,,,,,,,,,,,,,,,,,masks/mask_003.jpg,,,,,,,,,,,,,,,,,,,,,,,,,,,,,,,,,,,,,,,,,,,,,,,,0,2,2,2,1,,,,,,,,,,,,,,,,,,,,,,,,,,,,,,,,,,,,,,,,,
590086,001,2022-11-20_23h50.47.995,Info_measure_main_exp,2022.2.2,MacIntel,60.0024001,,,,,,,,,,,,,,,,,,masks/mask_001.jpg,,,,,,,,,,,,,,,,,,,,,,,,,,,,,,,,,,,,,,,,,,,,,,,,0,3,3,0,1,,,,,,,,,,,,,,,,,,,,,,,,,,,,,,,,,,,,,,,,,
590086,001,2022-11-20_23h50.47.995,Info_measure_main_exp,2022.2.2,MacIntel,60.0024001,,,,,,,,,,,,,,,,,,masks/mask_002.jpg,,,,,,,,,,,,,,,,,,,,,,,,,,,,,,,,,,,,,,,,,,,,,,,,0,4,4,1,1,,,,,,,,,,,,,,,,,,,,,,,,,,,,,,,,,,,,,,,,,
590086,001,2022-11-20_23h50.47.995,Info_measure_main_exp,2022.2.2,MacIntel,60.0024001,,,,,,,,,,,,,,,,,,,,,,,,,,,,,,7,3.0497,1,,,,,,,,,,,,0,131,5,5,2274,2142,absent_patch/patch0002274.jpg,absent_patch/patch0002142.jpg,,,,,,,,,,,,,,,,,,,,0.089304103,0.18705442,1,0,0,response1disk,9,-0.004728097,0.002505149,1,0,0,center_square,0,8,8,75,1,,,,,,,,,,,,,,,,,,,,,,,
590086,001,2022-11-20_23h50.47.995,Info_measure_main_exp,2022.2.2,MacIntel,60.0024001,,,,,,,,,,,,,,,,,,masks/mask_003.jpg,,,,,,,,,,,,,,,,,,,,,,,,,,,,,,,,,,,,,,,,,,,0,0,0,2,1,,,,,,,,,,,,,,,,,,,,,,,,,,,,,,,,,,,,,,,,,,,,,,
590086,001,2022-11-20_23h50.47.995,Info_measure_main_exp,2022.2.2,MacIntel,60.0024001,,,,,,,,,,,,,,,,,,masks/mask_002.jpg,,,,,,,,,,,,,,,,,,,,,,,,,,,,,,,,,,,,,,,,,,,0,1,1,1,1,,,,,,,,,,,,,,,,,,,,,,,,,,,,,,,,,,,,,,,,,,,,,,
590086,001,2022-11-20_23h50.47.995,Info_measure_main_exp,2022.2.2,MacIntel,60.0024001,,,,,,,,,,,,,,,,,,masks/mask_004.jpg,,,,,,,,,,,,,,,,,,,,,,,,,,,,,,,,,,,,,,,,,,,0,2,2,3,1,,,,,,,,,,,,,,,,,,,,,,,,,,,,,,,,,,,,,,,,,,,,,,
590086,001,2022-11-20_23h50.47.995,Info_measure_main_exp,2022.2.2,MacIntel,60.0024001,,,,,,,,,,,,,,,,,,masks/mask_005.jpg,,,,,,,,,,,,,,,,,,,,,,,,,,,,,,,,,,,,,,,,,,,0,3,3,4,1,,,,,,,,,,,,,,,,,,,,,,,,,,,,,,,,,,,,,,,,,,,,,,
590086,001,2022-11-20_23h50.47.995,Info_measure_main_exp,2022.2.2,MacIntel,60.0024001,,,,,,,,,,,,,,,,,,masks/mask_001.jpg,,,,,,,,,,,,,,,,,,,,,,,,,,,,,,,,,,,,,,,,,,,0,4,4,0,1,,,,,,,,,,,,,,,,,,,,,,,,,,,,,,,,,,,,,,,,,,,,,,
590086,001,2022-11-20_23h50.47.995,Info_measure_main_exp,2022.2.2,MacIntel,60.0024001,,,,,,,,,,,,,,,,,,masks/mask_003.jpg,,,,,,,,,,,,,,,,,,,,,,,,,,,,,,,,,,,,,,,,,,,,,,,,0,0,0,2,1,,,,,,,,,,,,,,,,,,,,,,,,,,,,,,,,,,,,,,,,,
590086,001,2022-11-20_23h50.47.995,Info_measure_main_exp,2022.2.2,MacIntel,60.0024001,,,,,,,,,,,,,,,,,,masks/mask_002.jpg,,,,,,,,,,,,,,,,,,,,,,,,,,,,,,,,,,,,,,,,,,,,,,,,0,1,1,1,1,,,,,,,,,,,,,,,,,,,,,,,,,,,,,,,,,,,,,,,,,
590086,001,2022-11-20_23h50.47.995,Info_measure_main_exp,2022.2.2,MacIntel,60.0024001,,,,,,,,,,,,,,,,,,masks/mask_005.jpg,,,,,,,,,,,,,,,,,,,,,,,,,,,,,,,,,,,,,,,,,,,,,,,,0,2,2,4,1,,,,,,,,,,,,,,,,,,,,,,,,,,,,,,,,,,,,,,,,,
590086,001,2022-11-20_23h50.47.995,Info_measure_main_exp,2022.2.2,MacIntel,60.0024001,,,,,,,,,,,,,,,,,,masks/mask_004.jpg,,,,,,,,,,,,,,,,,,,,,,,,,,,,,,,,,,,,,,,,,,,,,,,,0,3,3,3,1,,,,,,,,,,,,,,,,,,,,,,,,,,,,,,,,,,,,,,,,,
590086,001,2022-11-20_23h50.47.995,Info_measure_main_exp,2022.2.2,MacIntel,60.0024001,,,,,,,,,,,,,,,,,,masks/mask_001.jpg,,,,,,,,,,,,,,,,,,,,,,,,,,,,,,,,,,,,,,,,,,,,,,,,0,4,4,0,1,,,,,,,,,,,,,,,,,,,,,,,,,,,,,,,,,,,,,,,,,
590086,001,2022-11-20_23h50.47.995,Info_measure_main_exp,2022.2.2,MacIntel,60.0024001,,,,,,,,,,,,,,,,,,,,,,,,,,,,,,7,0.9658,1,,,,,,,,,,,,0,131,5,5,2082,1986,absent_patch/patch0002082.jpg,absent_patch/patch0001986.jpg,,,,,,,,,,,,,,,,,,,,0.082288696,0.245395675,1,0,0,response1disk,10,-0.008297687,-0.000292102,1,0,0,center_square,0,9,9,94,1,,,,,,,,,,,,,,,,,,,,,,,
590086,001,2022-11-20_23h50.47.995,Info_measure_main_exp,2022.2.2,MacIntel,60.0024001,,,,,,,,,,,,,,,,,,masks/mask_002.jpg,,,,,,,,,,,,,,,,,,,,,,,,,,,,,,,,,,,,,,,,,,,0,0,0,1,1,,,,,,,,,,,,,,,,,,,,,,,,,,,,,,,,,,,,,,,,,,,,,,
590086,001,2022-11-20_23h50.47.995,Info_measure_main_exp,2022.2.2,MacIntel,60.0024001,,,,,,,,,,,,,,,,,,masks/mask_004.jpg,,,,,,,,,,,,,,,,,,,,,,,,,,,,,,,,,,,,,,,,,,,0,1,1,3,1,,,,,,,,,,,,,,,,,,,,,,,,,,,,,,,,,,,,,,,,,,,,,,
590086,001,2022-11-20_23h50.47.995,Info_measure_main_exp,2022.2.2,MacIntel,60.0024001,,,,,,,,,,,,,,,,,,masks/mask_003.jpg,,,,,,,,,,,,,,,,,,,,,,,,,,,,,,,,,,,,,,,,,,,0,2,2,2,1,,,,,,,,,,,,,,,,,,,,,,,,,,,,,,,,,,,,,,,,,,,,,,
590086,001,2022-11-20_23h50.47.995,Info_measure_main_exp,2022.2.2,MacIntel,60.0024001,,,,,,,,,,,,,,,,,,masks/mask_001.jpg,,,,,,,,,,,,,,,,,,,,,,,,,,,,,,,,,,,,,,,,,,,0,3,3,0,1,,,,,,,,,,,,,,,,,,,,,,,,,,,,,,,,,,,,,,,,,,,,,,
590086,001,2022-11-20_23h50.47.995,Info_measure_main_exp,2022.2.2,MacIntel,60.0024001,,,,,,,,,,,,,,,,,,masks/mask_005.jpg,,,,,,,,,,,,,,,,,,,,,,,,,,,,,,,,,,,,,,,,,,,0,4,4,4,1,,,,,,,,,,,,,,,,,,,,,,,,,,,,,,,,,,,,,,,,,,,,,,
590086,001,2022-11-20_23h50.47.995,Info_measure_main_exp,2022.2.2,MacIntel,60.0024001,,,,,,,,,,,,,,,,,,masks/mask_005.jpg,,,,,,,,,,,,,,,,,,,,,,,,,,,,,,,,,,,,,,,,,,,,,,,,0,0,0,4,1,,,,,,,,,,,,,,,,,,,,,,,,,,,,,,,,,,,,,,,,,
590086,001,2022-11-20_23h50.47.995,Info_measure_main_exp,2022.2.2,MacIntel,60.0024001,,,,,,,,,,,,,,,,,,masks/mask_001.jpg,,,,,,,,,,,,,,,,,,,,,,,,,,,,,,,,,,,,,,,,,,,,,,,,0,1,1,0,1,,,,,,,,,,,,,,,,,,,,,,,,,,,,,,,,,,,,,,,,,
590086,001,2022-11-20_23h50.47.995,Info_measure_main_exp,2022.2.2,MacIntel,60.0024001,,,,,,,,,,,,,,,,,,masks/mask_004.jpg,,,,,,,,,,,,,,,,,,,,,,,,,,,,,,,,,,,,,,,,,,,,,,,,0,2,2,3,1,,,,,,,,,,,,,,,,,,,,,,,,,,,,,,,,,,,,,,,,,
590086,001,2022-11-20_23h50.47.995,Info_measure_main_exp,2022.2.2,MacIntel,60.0024001,,,,,,,,,,,,,,,,,,masks/mask_003.jpg,,,,,,,,,,,,,,,,,,,,,,,,,,,,,,,,,,,,,,,,,,,,,,,,0,3,3,2,1,,,,,,,,,,,,,,,,,,,,,,,,,,,,,,,,,,,,,,,,,
590086,001,2022-11-20_23h50.47.995,Info_measure_main_exp,2022.2.2,MacIntel,60.0024001,,,,,,,,,,,,,,,,,,masks/mask_002.jpg,,,,,,,,,,,,,,,,,,,,,,,,,,,,,,,,,,,,,,,,,,,,,,,,0,4,4,1,1,,,,,,,,,,,,,,,,,,,,,,,,,,,,,,,,,,,,,,,,,
590086,001,2022-11-20_23h50.47.995,Info_measure_main_exp,2022.2.2,MacIntel,60.0024001,,,,,,,,,,,,,,,,,,,,,,,,,,,,,,7,0.8155,1,,,,,,,,,,,,0,131,5,5,2250,2214,absent_patch/patch0002250.jpg,absent_patch/patch0002214.jpg,,,,,,,,,,,,,,,,,,,,0.06551509,0.158027369,1,0,0,response1disk,11,-0.005233088,0.000742633,1,0,0,center_square,0,10,10,97,1,,,,,,,,,,,,,,,,,,,,,,,
590086,001,2022-11-20_23h50.47.995,Info_measure_main_exp,2022.2.2,MacIntel,60.0024001,,,,,,,,,,,,,,,,,,masks/mask_002.jpg,,,,,,,,,,,,,,,,,,,,,,,,,,,,,,,,,,,,,,,,,,,0,0,0,1,1,,,,,,,,,,,,,,,,,,,,,,,,,,,,,,,,,,,,,,,,,,,,,,
590086,001,2022-11-20_23h50.47.995,Info_measure_main_exp,2022.2.2,MacIntel,60.0024001,,,,,,,,,,,,,,,,,,masks/mask_001.jpg,,,,,,,,,,,,,,,,,,,,,,,,,,,,,,,,,,,,,,,,,,,0,1,1,0,1,,,,,,,,,,,,,,,,,,,,,,,,,,,,,,,,,,,,,,,,,,,,,,
590086,001,2022-11-20_23h50.47.995,Info_measure_main_exp,2022.2.2,MacIntel,60.0024001,,,,,,,,,,,,,,,,,,masks/mask_004.jpg,,,,,,,,,,,,,,,,,,,,,,,,,,,,,,,,,,,,,,,,,,,0,2,2,3,1,,,,,,,,,,,,,,,,,,,,,,,,,,,,,,,,,,,,,,,,,,,,,,
590086,001,2022-11-20_23h50.47.995,Info_measure_main_exp,2022.2.2,MacIntel,60.0024001,,,,,,,,,,,,,,,,,,masks/mask_005.jpg,,,,,,,,,,,,,,,,,,,,,,,,,,,,,,,,,,,,,,,,,,,0,3,3,4,1,,,,,,,,,,,,,,,,,,,,,,,,,,,,,,,,,,,,,,,,,,,,,,
590086,001,2022-11-20_23h50.47.995,Info_measure_main_exp,2022.2.2,MacIntel,60.0024001,,,,,,,,,,,,,,,,,,masks/mask_003.jpg,,,,,,,,,,,,,,,,,,,,,,,,,,,,,,,,,,,,,,,,,,,0,4,4,2,1,,,,,,,,,,,,,,,,,,,,,,,,,,,,,,,,,,,,,,,,,,,,,,
590086,001,2022-11-20_23h50.47.995,Info_measure_main_exp,2022.2.2,MacIntel,60.0024001,,,,,,,,,,,,,,,,,,masks/mask_002.jpg,,,,,,,,,,,,,,,,,,,,,,,,,,,,,,,,,,,,,,,,,,,,,,,,0,0,0,1,1,,,,,,,,,,,,,,,,,,,,,,,,,,,,,,,,,,,,,,,,,
590086,001,2022-11-20_23h50.47.995,Info_measure_main_exp,2022.2.2,MacIntel,60.0024001,,,,,,,,,,,,,,,,,,masks/mask_001.jpg,,,,,,,,,,,,,,,,,,,,,,,,,,,,,,,,,,,,,,,,,,,,,,,,0,1,1,0,1,,,,,,,,,,,,,,,,,,,,,,,,,,,,,,,,,,,,,,,,,
590086,001,2022-11-20_23h50.47.995,Info_measure_main_exp,2022.2.2,MacIntel,60.0024001,,,,,,,,,,,,,,,,,,masks/mask_004.jpg,,,,,,,,,,,,,,,,,,,,,,,,,,,,,,,,,,,,,,,,,,,,,,,,0,2,2,3,1,,,,,,,,,,,,,,,,,,,,,,,,,,,,,,,,,,,,,,,,,
590086,001,2022-11-20_23h50.47.995,Info_measure_main_exp,2022.2.2,MacIntel,60.0024001,,,,,,,,,,,,,,,,,,masks/mask_005.jpg,,,,,,,,,,,,,,,,,,,,,,,,,,,,,,,,,,,,,,,,,,,,,,,,0,3,3,4,1,,,,,,,,,,,,,,,,,,,,,,,,,,,,,,,,,,,,,,,,,
590086,001,2022-11-20_23h50.47.995,Info_measure_main_exp,2022.2.2,MacIntel,60.0024001,,,,,,,,,,,,,,,,,,masks/mask_003.jpg,,,,,,,,,,,,,,,,,,,,,,,,,,,,,,,,,,,,,,,,,,,,,,,,0,4,4,2,1,,,,,,,,,,,,,,,,,,,,,,,,,,,,,,,,,,,,,,,,,
590086,001,2022-11-20_23h50.47.995,Info_measure_main_exp,2022.2.2,MacIntel,60.0024001,,,,,,,,,,,,,,,,,,,,,,,,,,,,,,7,3.7826,1,,,,,,,,,,,,0,131,5,5,2154,2298,absent_patch/patch0002154.jpg,absent_patch/patch0002298.jpg,,,,,,,,,,,,,,,,,,,,0.074505901,0.167721206,1,0,0,response1disk,12,-0.004213205,0.006045033,1,0,0,center_square,0,11,11,27,1,,,,,,,,,,,,,,,,,,,,,,,
590086,001,2022-11-20_23h50.47.995,Info_measure_main_exp,2022.2.2,MacIntel,60.0024001,,,,,,,,,,,,,,,,,,masks/mask_004.jpg,,,,,,,,,,,,,,,,,,,,,,,,,,,,,,,,,,,,,,,,,,,0,0,0,3,1,,,,,,,,,,,,,,,,,,,,,,,,,,,,,,,,,,,,,,,,,,,,,,
590086,001,2022-11-20_23h50.47.995,Info_measure_main_exp,2022.2.2,MacIntel,60.0024001,,,,,,,,,,,,,,,,,,masks/mask_001.jpg,,,,,,,,,,,,,,,,,,,,,,,,,,,,,,,,,,,,,,,,,,,0,1,1,0,1,,,,,,,,,,,,,,,,,,,,,,,,,,,,,,,,,,,,,,,,,,,,,,
590086,001,2022-11-20_23h50.47.995,Info_measure_main_exp,2022.2.2,MacIntel,60.0024001,,,,,,,,,,,,,,,,,,masks/mask_002.jpg,,,,,,,,,,,,,,,,,,,,,,,,,,,,,,,,,,,,,,,,,,,0,2,2,1,1,,,,,,,,,,,,,,,,,,,,,,,,,,,,,,,,,,,,,,,,,,,,,,
590086,001,2022-11-20_23h50.47.995,Info_measure_main_exp,2022.2.2,MacIntel,60.0024001,,,,,,,,,,,,,,,,,,masks/mask_003.jpg,,,,,,,,,,,,,,,,,,,,,,,,,,,,,,,,,,,,,,,,,,,0,3,3,2,1,,,,,,,,,,,,,,,,,,,,,,,,,,,,,,,,,,,,,,,,,,,,,,
590086,001,2022-11-20_23h50.47.995,Info_measure_main_exp,2022.2.2,MacIntel,60.0024001,,,,,,,,,,,,,,,,,,masks/mask_005.jpg,,,,,,,,,,,,,,,,,,,,,,,,,,,,,,,,,,,,,,,,,,,0,4,4,4,1,,,,,,,,,,,,,,,,,,,,,,,,,,,,,,,,,,,,,,,,,,,,,,
590086,001,2022-11-20_23h50.47.995,Info_measure_main_exp,2022.2.2,MacIntel,60.0024001,,,,,,,,,,,,,,,,,,masks/mask_001.jpg,,,,,,,,,,,,,,,,,,,,,,,,,,,,,,,,,,,,,,,,,,,,,,,,0,0,0,0,1,,,,,,,,,,,,,,,,,,,,,,,,,,,,,,,,,,,,,,,,,
590086,001,2022-11-20_23h50.47.995,Info_measure_main_exp,2022.2.2,MacIntel,60.0024001,,,,,,,,,,,,,,,,,,masks/mask_005.jpg,,,,,,,,,,,,,,,,,,,,,,,,,,,,,,,,,,,,,,,,,,,,,,,,0,1,1,4,1,,,,,,,,,,,,,,,,,,,,,,,,,,,,,,,,,,,,,,,,,
590086,001,2022-11-20_23h50.47.995,Info_measure_main_exp,2022.2.2,MacIntel,60.0024001,,,,,,,,,,,,,,,,,,masks/mask_004.jpg,,,,,,,,,,,,,,,,,,,,,,,,,,,,,,,,,,,,,,,,,,,,,,,,0,2,2,3,1,,,,,,,,,,,,,,,,,,,,,,,,,,,,,,,,,,,,,,,,,
590086,001,2022-11-20_23h50.47.995,Info_measure_main_exp,2022.2.2,MacIntel,60.0024001,,,,,,,,,,,,,,,,,,masks/mask_003.jpg,,,,,,,,,,,,,,,,,,,,,,,,,,,,,,,,,,,,,,,,,,,,,,,,0,3,3,2,1,,,,,,,,,,,,,,,,,,,,,,,,,,,,,,,,,,,,,,,,,
590086,001,2022-11-20_23h50.47.995,Info_measure_main_exp,2022.2.2,MacIntel,60.0024001,,,,,,,,,,,,,,,,,,masks/mask_002.jpg,,,,,,,,,,,,,,,,,,,,,,,,,,,,,,,,,,,,,,,,,,,,,,,,0,4,4,1,1,,,,,,,,,,,,,,,,,,,,,,,,,,,,,,,,,,,,,,,,,
590086,001,2022-11-20_23h50.47.995,Info_measure_main_exp,2022.2.2,MacIntel,60.0024001,,,,,,,,,,,,,,,,,,,,,,,,,,,,,,4,2.6164,1,,,,,,,,,,,,0,131,5,5,2298,2142,absent_patch/patch0002298.jpg,absent_patch/patch0002142.jpg,,,,,,,,,,,,,,,,,,,,0.040201204,-0.137842601,1,0,0,response3disk,13,-0.009916627,0.016625079,1,0,0,center_square,0,12,12,49,1,,,,,,,,,,,,,,,,,,,,,,,
590086,001,2022-11-20_23h50.47.995,Info_measure_main_exp,2022.2.2,MacIntel,60.0024001,,,,,,,,,,,,,,,,,,masks/mask_003.jpg,,,,,,,,,,,,,,,,,,,,,,,,,,,,,,,,,,,,,,,,,,,0,0,0,2,1,,,,,,,,,,,,,,,,,,,,,,,,,,,,,,,,,,,,,,,,,,,,,,
590086,001,2022-11-20_23h50.47.995,Info_measure_main_exp,2022.2.2,MacIntel,60.0024001,,,,,,,,,,,,,,,,,,masks/mask_005.jpg,,,,,,,,,,,,,,,,,,,,,,,,,,,,,,,,,,,,,,,,,,,0,1,1,4,1,,,,,,,,,,,,,,,,,,,,,,,,,,,,,,,,,,,,,,,,,,,,,,
590086,001,2022-11-20_23h50.47.995,Info_measure_main_exp,2022.2.2,MacIntel,60.0024001,,,,,,,,,,,,,,,,,,masks/mask_002.jpg,,,,,,,,,,,,,,,,,,,,,,,,,,,,,,,,,,,,,,,,,,,0,2,2,1,1,,,,,,,,,,,,,,,,,,,,,,,,,,,,,,,,,,,,,,,,,,,,,,
590086,001,2022-11-20_23h50.47.995,Info_measure_main_exp,2022.2.2,MacIntel,60.0024001,,,,,,,,,,,,,,,,,,masks/mask_001.jpg,,,,,,,,,,,,,,,,,,,,,,,,,,,,,,,,,,,,,,,,,,,0,3,3,0,1,,,,,,,,,,,,,,,,,,,,,,,,,,,,,,,,,,,,,,,,,,,,,,
590086,001,2022-11-20_23h50.47.995,Info_measure_main_exp,2022.2.2,MacIntel,60.0024001,,,,,,,,,,,,,,,,,,masks/mask_004.jpg,,,,,,,,,,,,,,,,,,,,,,,,,,,,,,,,,,,,,,,,,,,0,4,4,3,1,,,,,,,,,,,,,,,,,,,,,,,,,,,,,,,,,,,,,,,,,,,,,,
590086,001,2022-11-20_23h50.47.995,Info_measure_main_exp,2022.2.2,MacIntel,60.0024001,,,,,,,,,,,,,,,,,,masks/mask_005.jpg,,,,,,,,,,,,,,,,,,,,,,,,,,,,,,,,,,,,,,,,,,,,,,,,0,0,0,4,1,,,,,,,,,,,,,,,,,,,,,,,,,,,,,,,,,,,,,,,,,
590086,001,2022-11-20_23h50.47.995,Info_measure_main_exp,2022.2.2,MacIntel,60.0024001,,,,,,,,,,,,,,,,,,masks/mask_003.jpg,,,,,,,,,,,,,,,,,,,,,,,,,,,,,,,,,,,,,,,,,,,,,,,,0,1,1,2,1,,,,,,,,,,,,,,,,,,,,,,,,,,,,,,,,,,,,,,,,,
590086,001,2022-11-20_23h50.47.995,Info_measure_main_exp,2022.2.2,MacIntel,60.0024001,,,,,,,,,,,,,,,,,,masks/mask_001.jpg,,,,,,,,,,,,,,,,,,,,,,,,,,,,,,,,,,,,,,,,,,,,,,,,0,2,2,0,1,,,,,,,,,,,,,,,,,,,,,,,,,,,,,,,,,,,,,,,,,
590086,001,2022-11-20_23h50.47.995,Info_measure_main_exp,2022.2.2,MacIntel,60.0024001,,,,,,,,,,,,,,,,,,masks/mask_002.jpg,,,,,,,,,,,,,,,,,,,,,,,,,,,,,,,,,,,,,,,,,,,,,,,,0,3,3,1,1,,,,,,,,,,,,,,,,,,,,,,,,,,,,,,,,,,,,,,,,,
590086,001,2022-11-20_23h50.47.995,Info_measure_main_exp,2022.2.2,MacIntel,60.0024001,,,,,,,,,,,,,,,,,,masks/mask_004.jpg,,,,,,,,,,,,,,,,,,,,,,,,,,,,,,,,,,,,,,,,,,,,,,,,0,4,4,3,1,,,,,,,,,,,,,,,,,,,,,,,,,,,,,,,,,,,,,,,,,
590086,001,2022-11-20_23h50.47.995,Info_measure_main_exp,2022.2.2,MacIntel,60.0024001,,,,,,,,,,,,,,,,,,,,,,,,,,,,,,5,3.9669,1,,,,,,,,,,,,0,131,5,5,1974,2250,absent_patch/patch0001974.jpg,absent_patch/patch0002250.jpg,,,,,,,,,,,,,,,,,,,,0.201738752,-0.06729741,1,0,0,response3disk,14,0.000777289,-0.00072778,1,0,0,center_square,0,13,13,55,1,,,,,,,,,,,,,,,,,,,,,,,
590086,001,2022-11-20_23h50.47.995,Info_measure_main_exp,2022.2.2,MacIntel,60.0024001,,,,,,,,,,,,,,,,,,masks/mask_001.jpg,,,,,,,,,,,,,,,,,,,,,,,,,,,,,,,,,,,,,,,,,,,0,0,0,0,1,,,,,,,,,,,,,,,,,,,,,,,,,,,,,,,,,,,,,,,,,,,,,,
590086,001,2022-11-20_23h50.47.995,Info_measure_main_exp,2022.2.2,MacIntel,60.0024001,,,,,,,,,,,,,,,,,,masks/mask_005.jpg,,,,,,,,,,,,,,,,,,,,,,,,,,,,,,,,,,,,,,,,,,,0,1,1,4,1,,,,,,,,,,,,,,,,,,,,,,,,,,,,,,,,,,,,,,,,,,,,,,
590086,001,2022-11-20_23h50.47.995,Info_measure_main_exp,2022.2.2,MacIntel,60.0024001,,,,,,,,,,,,,,,,,,masks/mask_002.jpg,,,,,,,,,,,,,,,,,,,,,,,,,,,,,,,,,,,,,,,,,,,0,2,2,1,1,,,,,,,,,,,,,,,,,,,,,,,,,,,,,,,,,,,,,,,,,,,,,,
590086,001,2022-11-20_23h50.47.995,Info_measure_main_exp,2022.2.2,MacIntel,60.0024001,,,,,,,,,,,,,,,,,,masks/mask_003.jpg,,,,,,,,,,,,,,,,,,,,,,,,,,,,,,,,,,,,,,,,,,,0,3,3,2,1,,,,,,,,,,,,,,,,,,,,,,,,,,,,,,,,,,,,,,,,,,,,,,
590086,001,2022-11-20_23h50.47.995,Info_measure_main_exp,2022.2.2,MacIntel,60.0024001,,,,,,,,,,,,,,,,,,masks/mask_004.jpg,,,,,,,,,,,,,,,,,,,,,,,,,,,,,,,,,,,,,,,,,,,0,4,4,3,1,,,,,,,,,,,,,,,,,,,,,,,,,,,,,,,,,,,,,,,,,,,,,,
590086,001,2022-11-20_23h50.47.995,Info_measure_main_exp,2022.2.2,MacIntel,60.0024001,,,,,,,,,,,,,,,,,,masks/mask_001.jpg,,,,,,,,,,,,,,,,,,,,,,,,,,,,,,,,,,,,,,,,,,,,,,,,0,0,0,0,1,,,,,,,,,,,,,,,,,,,,,,,,,,,,,,,,,,,,,,,,,
590086,001,2022-11-20_23h50.47.995,Info_measure_main_exp,2022.2.2,MacIntel,60.0024001,,,,,,,,,,,,,,,,,,masks/mask_002.jpg,,,,,,,,,,,,,,,,,,,,,,,,,,,,,,,,,,,,,,,,,,,,,,,,0,1,1,1,1,,,,,,,,,,,,,,,,,,,,,,,,,,,,,,,,,,,,,,,,,
590086,001,2022-11-20_23h50.47.995,Info_measure_main_exp,2022.2.2,MacIntel,60.0024001,,,,,,,,,,,,,,,,,,masks/mask_004.jpg,,,,,,,,,,,,,,,,,,,,,,,,,,,,,,,,,,,,,,,,,,,,,,,,0,2,2,3,1,,,,,,,,,,,,,,,,,,,,,,,,,,,,,,,,,,,,,,,,,
590086,001,2022-11-20_23h50.47.995,Info_measure_main_exp,2022.2.2,MacIntel,60.0024001,,,,,,,,,,,,,,,,,,masks/mask_005.jpg,,,,,,,,,,,,,,,,,,,,,,,,,,,,,,,,,,,,,,,,,,,,,,,,0,3,3,4,1,,,,,,,,,,,,,,,,,,,,,,,,,,,,,,,,,,,,,,,,,
590086,001,2022-11-20_23h50.47.995,Info_measure_main_exp,2022.2.2,MacIntel,60.0024001,,,,,,,,,,,,,,,,,,masks/mask_003.jpg,,,,,,,,,,,,,,,,,,,,,,,,,,,,,,,,,,,,,,,,,,,,,,,,0,4,4,2,1,,,,,,,,,,,,,,,,,,,,,,,,,,,,,,,,,,,,,,,,,
590086,001,2022-11-20_23h50.47.995,Info_measure_main_exp,2022.2.2,MacIntel,60.0024001,,,,,,,,,,,,,,,,,,,,,,,,,,,,,,7,0.8654,1,,,,,,,,,,,,0,131,5,5,2250,2238,absent_patch/patch0002250.jpg,absent_patch/patch0002238.jpg,,,,,,,,,,,,,,,,,,,,0.062485147,0.225552519,1,0,0,response1disk,15,0.003247782,0.007005505,1,0,0,center_square,0,14,14,110,1,,,,,,,,,,,,,,,,,,,,,,,
590086,001,2022-11-20_23h50.47.995,Info_measure_main_exp,2022.2.2,MacIntel,60.0024001,,,,,,,,,,,,,,,,,,masks/mask_004.jpg,,,,,,,,,,,,,,,,,,,,,,,,,,,,,,,,,,,,,,,,,,,0,0,0,3,1,,,,,,,,,,,,,,,,,,,,,,,,,,,,,,,,,,,,,,,,,,,,,,
590086,001,2022-11-20_23h50.47.995,Info_measure_main_exp,2022.2.2,MacIntel,60.0024001,,,,,,,,,,,,,,,,,,masks/mask_001.jpg,,,,,,,,,,,,,,,,,,,,,,,,,,,,,,,,,,,,,,,,,,,0,1,1,0,1,,,,,,,,,,,,,,,,,,,,,,,,,,,,,,,,,,,,,,,,,,,,,,
590086,001,2022-11-20_23h50.47.995,Info_measure_main_exp,2022.2.2,MacIntel,60.0024001,,,,,,,,,,,,,,,,,,masks/mask_002.jpg,,,,,,,,,,,,,,,,,,,,,,,,,,,,,,,,,,,,,,,,,,,0,2,2,1,1,,,,,,,,,,,,,,,,,,,,,,,,,,,,,,,,,,,,,,,,,,,,,,
590086,001,2022-11-20_23h50.47.995,Info_measure_main_exp,2022.2.2,MacIntel,60.0024001,,,,,,,,,,,,,,,,,,masks/mask_003.jpg,,,,,,,,,,,,,,,,,,,,,,,,,,,,,,,,,,,,,,,,,,,0,3,3,2,1,,,,,,,,,,,,,,,,,,,,,,,,,,,,,,,,,,,,,,,,,,,,,,
590086,001,2022-11-20_23h50.47.995,Info_measure_main_exp,2022.2.2,MacIntel,60.0024001,,,,,,,,,,,,,,,,,,masks/mask_005.jpg,,,,,,,,,,,,,,,,,,,,,,,,,,,,,,,,,,,,,,,,,,,0,4,4,4,1,,,,,,,,,,,,,,,,,,,,,,,,,,,,,,,,,,,,,,,,,,,,,,
590086,001,2022-11-20_23h50.47.995,Info_measure_main_exp,2022.2.2,MacIntel,60.0024001,,,,,,,,,,,,,,,,,,masks/mask_003.jpg,,,,,,,,,,,,,,,,,,,,,,,,,,,,,,,,,,,,,,,,,,,,,,,,0,0,0,2,1,,,,,,,,,,,,,,,,,,,,,,,,,,,,,,,,,,,,,,,,,
590086,001,2022-11-20_23h50.47.995,Info_measure_main_exp,2022.2.2,MacIntel,60.0024001,,,,,,,,,,,,,,,,,,masks/mask_002.jpg,,,,,,,,,,,,,,,,,,,,,,,,,,,,,,,,,,,,,,,,,,,,,,,,0,1,1,1,1,,,,,,,,,,,,,,,,,,,,,,,,,,,,,,,,,,,,,,,,,
590086,001,2022-11-20_23h50.47.995,Info_measure_main_exp,2022.2.2,MacIntel,60.0024001,,,,,,,,,,,,,,,,,,masks/mask_004.jpg,,,,,,,,,,,,,,,,,,,,,,,,,,,,,,,,,,,,,,,,,,,,,,,,0,2,2,3,1,,,,,,,,,,,,,,,,,,,,,,,,,,,,,,,,,,,,,,,,,
590086,001,2022-11-20_23h50.47.995,Info_measure_main_exp,2022.2.2,MacIntel,60.0024001,,,,,,,,,,,,,,,,,,masks/mask_005.jpg,,,,,,,,,,,,,,,,,,,,,,,,,,,,,,,,,,,,,,,,,,,,,,,,0,3,3,4,1,,,,,,,,,,,,,,,,,,,,,,,,,,,,,,,,,,,,,,,,,
590086,001,2022-11-20_23h50.47.995,Info_measure_main_exp,2022.2.2,MacIntel,60.0024001,,,,,,,,,,,,,,,,,,masks/mask_001.jpg,,,,,,,,,,,,,,,,,,,,,,,,,,,,,,,,,,,,,,,,,,,,,,,,0,4,4,0,1,,,,,,,,,,,,,,,,,,,,,,,,,,,,,,,,,,,,,,,,,
590086,001,2022-11-20_23h50.47.995,Info_measure_main_exp,2022.2.2,MacIntel,60.0024001,,,,,,,,,,,,,,,,,,,,,,,,,,,,,,7,0.9845,1,,,,,,,,,,,,1,131,5,5,1950,1,absent_patch/patch0001950.jpg,present_patch/cong_131_5_a.jpg,,,,,,,,,,,,,,,,,,,,0.087467324,0.211026616,1,0,0,response1disk,16,-0.002940827,0.004317174,1,0,0,center_square,0,15,15,39,1,,,,,,,,,,,,,,,,,,,,,,,
590086,001,2022-11-20_23h50.47.995,Info_measure_main_exp,2022.2.2,MacIntel,60.0024001,,,,,,,,,,,,,,,,,,masks/mask_003.jpg,,,,,,,,,,,,,,,,,,,,,,,,,,,,,,,,,,,,,,,,,,,0,0,0,2,1,,,,,,,,,,,,,,,,,,,,,,,,,,,,,,,,,,,,,,,,,,,,,,
590086,001,2022-11-20_23h50.47.995,Info_measure_main_exp,2022.2.2,MacIntel,60.0024001,,,,,,,,,,,,,,,,,,masks/mask_005.jpg,,,,,,,,,,,,,,,,,,,,,,,,,,,,,,,,,,,,,,,,,,,0,1,1,4,1,,,,,,,,,,,,,,,,,,,,,,,,,,,,,,,,,,,,,,,,,,,,,,
590086,001,2022-11-20_23h50.47.995,Info_measure_main_exp,2022.2.2,MacIntel,60.0024001,,,,,,,,,,,,,,,,,,masks/mask_004.jpg,,,,,,,,,,,,,,,,,,,,,,,,,,,,,,,,,,,,,,,,,,,0,2,2,3,1,,,,,,,,,,,,,,,,,,,,,,,,,,,,,,,,,,,,,,,,,,,,,,
590086,001,2022-11-20_23h50.47.995,Info_measure_main_exp,2022.2.2,MacIntel,60.0024001,,,,,,,,,,,,,,,,,,masks/mask_001.jpg,,,,,,,,,,,,,,,,,,,,,,,,,,,,,,,,,,,,,,,,,,,0,3,3,0,1,,,,,,,,,,,,,,,,,,,,,,,,,,,,,,,,,,,,,,,,,,,,,,
590086,001,2022-11-20_23h50.47.995,Info_measure_main_exp,2022.2.2,MacIntel,60.0024001,,,,,,,,,,,,,,,,,,masks/mask_002.jpg,,,,,,,,,,,,,,,,,,,,,,,,,,,,,,,,,,,,,,,,,,,0,4,4,1,1,,,,,,,,,,,,,,,,,,,,,,,,,,,,,,,,,,,,,,,,,,,,,,
590086,001,2022-11-20_23h50.47.995,Info_measure_main_exp,2022.2.2,MacIntel,60.0024001,,,,,,,,,,,,,,,,,,masks/mask_001.jpg,,,,,,,,,,,,,,,,,,,,,,,,,,,,,,,,,,,,,,,,,,,,,,,,0,0,0,0,1,,,,,,,,,,,,,,,,,,,,,,,,,,,,,,,,,,,,,,,,,
590086,001,2022-11-20_23h50.47.995,Info_measure_main_exp,2022.2.2,MacIntel,60.0024001,,,,,,,,,,,,,,,,,,masks/mask_002.jpg,,,,,,,,,,,,,,,,,,,,,,,,,,,,,,,,,,,,,,,,,,,,,,,,0,1,1,1,1,,,,,,,,,,,,,,,,,,,,,,,,,,,,,,,,,,,,,,,,,
590086,001,2022-11-20_23h50.47.995,Info_measure_main_exp,2022.2.2,MacIntel,60.0024001,,,,,,,,,,,,,,,,,,masks/mask_004.jpg,,,,,,,,,,,,,,,,,,,,,,,,,,,,,,,,,,,,,,,,,,,,,,,,0,2,2,3,1,,,,,,,,,,,,,,,,,,,,,,,,,,,,,,,,,,,,,,,,,
590086,001,2022-11-20_23h50.47.995,Info_measure_main_exp,2022.2.2,MacIntel,60.0024001,,,,,,,,,,,,,,,,,,masks/mask_005.jpg,,,,,,,,,,,,,,,,,,,,,,,,,,,,,,,,,,,,,,,,,,,,,,,,0,3,3,4,1,,,,,,,,,,,,,,,,,,,,,,,,,,,,,,,,,,,,,,,,,
590086,001,2022-11-20_23h50.47.995,Info_measure_main_exp,2022.2.2,MacIntel,60.0024001,,,,,,,,,,,,,,,,,,masks/mask_003.jpg,,,,,,,,,,,,,,,,,,,,,,,,,,,,,,,,,,,,,,,,,,,,,,,,0,4,4,2,1,,,,,,,,,,,,,,,,,,,,,,,,,,,,,,,,,,,,,,,,,
590086,001,2022-11-20_23h50.47.995,Info_measure_main_exp,2022.2.2,MacIntel,60.0024001,,,,,,,,,,,,,,,,,,,,,,,,,,,,,,7,1.1001,1,,,,,,,,,,,,0,131,5,5,2154,2250,absent_patch/patch0002154.jpg,absent_patch/patch0002250.jpg,,,,,,,,,,,,,,,,,,,,0.080659854,0.192515249,1,0,0,response1disk,17,0.006386644,0.006797568,1,0,0,center_square,0,16,16,108,1,,,,,,,,,,,,,,,,,,,,,,,
590086,001,2022-11-20_23h50.47.995,Info_measure_main_exp,2022.2.2,MacIntel,60.0024001,,,,,,,,,,,,,,,,,,masks/mask_005.jpg,,,,,,,,,,,,,,,,,,,,,,,,,,,,,,,,,,,,,,,,,,,0,0,0,4,1,,,,,,,,,,,,,,,,,,,,,,,,,,,,,,,,,,,,,,,,,,,,,,
590086,001,2022-11-20_23h50.47.995,Info_measure_main_exp,2022.2.2,MacIntel,60.0024001,,,,,,,,,,,,,,,,,,masks/mask_004.jpg,,,,,,,,,,,,,,,,,,,,,,,,,,,,,,,,,,,,,,,,,,,0,1,1,3,1,,,,,,,,,,,,,,,,,,,,,,,,,,,,,,,,,,,,,,,,,,,,,,
590086,001,2022-11-20_23h50.47.995,Info_measure_main_exp,2022.2.2,MacIntel,60.0024001,,,,,,,,,,,,,,,,,,masks/mask_001.jpg,,,,,,,,,,,,,,,,,,,,,,,,,,,,,,,,,,,,,,,,,,,0,2,2,0,1,,,,,,,,,,,,,,,,,,,,,,,,,,,,,,,,,,,,,,,,,,,,,,
590086,001,2022-11-20_23h50.47.995,Info_measure_main_exp,2022.2.2,MacIntel,60.0024001,,,,,,,,,,,,,,,,,,masks/mask_002.jpg,,,,,,,,,,,,,,,,,,,,,,,,,,,,,,,,,,,,,,,,,,,0,3,3,1,1,,,,,,,,,,,,,,,,,,,,,,,,,,,,,,,,,,,,,,,,,,,,,,
590086,001,2022-11-20_23h50.47.995,Info_measure_main_exp,2022.2.2,MacIntel,60.0024001,,,,,,,,,,,,,,,,,,masks/mask_003.jpg,,,,,,,,,,,,,,,,,,,,,,,,,,,,,,,,,,,,,,,,,,,0,4,4,2,1,,,,,,,,,,,,,,,,,,,,,,,,,,,,,,,,,,,,,,,,,,,,,,
590086,001,2022-11-20_23h50.47.995,Info_measure_main_exp,2022.2.2,MacIntel,60.0024001,,,,,,,,,,,,,,,,,,masks/mask_003.jpg,,,,,,,,,,,,,,,,,,,,,,,,,,,,,,,,,,,,,,,,,,,,,,,,0,0,0,2,1,,,,,,,,,,,,,,,,,,,,,,,,,,,,,,,,,,,,,,,,,
590086,001,2022-11-20_23h50.47.995,Info_measure_main_exp,2022.2.2,MacIntel,60.0024001,,,,,,,,,,,,,,,,,,masks/mask_004.jpg,,,,,,,,,,,,,,,,,,,,,,,,,,,,,,,,,,,,,,,,,,,,,,,,0,1,1,3,1,,,,,,,,,,,,,,,,,,,,,,,,,,,,,,,,,,,,,,,,,
590086,001,2022-11-20_23h50.47.995,Info_measure_main_exp,2022.2.2,MacIntel,60.0024001,,,,,,,,,,,,,,,,,,masks/mask_002.jpg,,,,,,,,,,,,,,,,,,,,,,,,,,,,,,,,,,,,,,,,,,,,,,,,0,2,2,1,1,,,,,,,,,,,,,,,,,,,,,,,,,,,,,,,,,,,,,,,,,
590086,001,2022-11-20_23h50.47.995,Info_measure_main_exp,2022.2.2,MacIntel,60.0024001,,,,,,,,,,,,,,,,,,masks/mask_001.jpg,,,,,,,,,,,,,,,,,,,,,,,,,,,,,,,,,,,,,,,,,,,,,,,,0,3,3,0,1,,,,,,,,,,,,,,,,,,,,,,,,,,,,,,,,,,,,,,,,,
590086,001,2022-11-20_23h50.47.995,Info_measure_main_exp,2022.2.2,MacIntel,60.0024001,,,,,,,,,,,,,,,,,,masks/mask_005.jpg,,,,,,,,,,,,,,,,,,,,,,,,,,,,,,,,,,,,,,,,,,,,,,,,0,4,4,4,1,,,,,,,,,,,,,,,,,,,,,,,,,,,,,,,,,,,,,,,,,
590086,001,2022-11-20_23h50.47.995,Info_measure_main_exp,2022.2.2,MacIntel,60.0024001,,,,,,,,,,,,,,,,,,,,,,,,,,,,,,3,4.1664,1,,,,,,,,,,,,1,131,5,5,2238,1,absent_patch/patch0002238.jpg,present_patch/cong_131_5_a.jpg,,,,,,,,,,,,,,,,,,,,-0.091101275,-0.164280339,1,0,0,response5disk,18,-0.006515368,-0.003926054,1,0,0,center_square,0,17,17,104,1,,,,,,,,,,,,,,,,,,,,,,,
590086,001,2022-11-20_23h50.47.995,Info_measure_main_exp,2022.2.2,MacIntel,60.0024001,,,,,,,,,,,,,,,,,,masks/mask_002.jpg,,,,,,,,,,,,,,,,,,,,,,,,,,,,,,,,,,,,,,,,,,,0,0,0,1,1,,,,,,,,,,,,,,,,,,,,,,,,,,,,,,,,,,,,,,,,,,,,,,
590086,001,2022-11-20_23h50.47.995,Info_measure_main_exp,2022.2.2,MacIntel,60.0024001,,,,,,,,,,,,,,,,,,masks/mask_001.jpg,,,,,,,,,,,,,,,,,,,,,,,,,,,,,,,,,,,,,,,,,,,0,1,1,0,1,,,,,,,,,,,,,,,,,,,,,,,,,,,,,,,,,,,,,,,,,,,,,,
590086,001,2022-11-20_23h50.47.995,Info_measure_main_exp,2022.2.2,MacIntel,60.0024001,,,,,,,,,,,,,,,,,,masks/mask_005.jpg,,,,,,,,,,,,,,,,,,,,,,,,,,,,,,,,,,,,,,,,,,,0,2,2,4,1,,,,,,,,,,,,,,,,,,,,,,,,,,,,,,,,,,,,,,,,,,,,,,
590086,001,2022-11-20_23h50.47.995,Info_measure_main_exp,2022.2.2,MacIntel,60.0024001,,,,,,,,,,,,,,,,,,masks/mask_004.jpg,,,,,,,,,,,,,,,,,,,,,,,,,,,,,,,,,,,,,,,,,,,0,3,3,3,1,,,,,,,,,,,,,,,,,,,,,,,,,,,,,,,,,,,,,,,,,,,,,,
590086,001,2022-11-20_23h50.47.995,Info_measure_main_exp,2022.2.2,MacIntel,60.0024001,,,,,,,,,,,,,,,,,,masks/mask_003.jpg,,,,,,,,,,,,,,,,,,,,,,,,,,,,,,,,,,,,,,,,,,,0,4,4,2,1,,,,,,,,,,,,,,,,,,,,,,,,,,,,,,,,,,,,,,,,,,,,,,
590086,001,2022-11-20_23h50.47.995,Info_measure_main_exp,2022.2.2,MacIntel,60.0024001,,,,,,,,,,,,,,,,,,masks/mask_003.jpg,,,,,,,,,,,,,,,,,,,,,,,,,,,,,,,,,,,,,,,,,,,,,,,,0,0,0,2,1,,,,,,,,,,,,,,,,,,,,,,,,,,,,,,,,,,,,,,,,,
590086,001,2022-11-20_23h50.47.995,Info_measure_main_exp,2022.2.2,MacIntel,60.0024001,,,,,,,,,,,,,,,,,,masks/mask_005.jpg,,,,,,,,,,,,,,,,,,,,,,,,,,,,,,,,,,,,,,,,,,,,,,,,0,1,1,4,1,,,,,,,,,,,,,,,,,,,,,,,,,,,,,,,,,,,,,,,,,
590086,001,2022-11-20_23h50.47.995,Info_measure_main_exp,2022.2.2,MacIntel,60.0024001,,,,,,,,,,,,,,,,,,masks/mask_001.jpg,,,,,,,,,,,,,,,,,,,,,,,,,,,,,,,,,,,,,,,,,,,,,,,,0,2,2,0,1,,,,,,,,,,,,,,,,,,,,,,,,,,,,,,,,,,,,,,,,,
590086,001,2022-11-20_23h50.47.995,Info_measure_main_exp,2022.2.2,MacIntel,60.0024001,,,,,,,,,,,,,,,,,,masks/mask_004.jpg,,,,,,,,,,,,,,,,,,,,,,,,,,,,,,,,,,,,,,,,,,,,,,,,0,3,3,3,1,,,,,,,,,,,,,,,,,,,,,,,,,,,,,,,,,,,,,,,,,
590086,001,2022-11-20_23h50.47.995,Info_measure_main_exp,2022.2.2,MacIntel,60.0024001,,,,,,,,,,,,,,,,,,masks/mask_002.jpg,,,,,,,,,,,,,,,,,,,,,,,,,,,,,,,,,,,,,,,,,,,,,,,,0,4,4,1,1,,,,,,,,,,,,,,,,,,,,,,,,,,,,,,,,,,,,,,,,,
590086,001,2022-11-20_23h50.47.995,Info_measure_main_exp,2022.2.2,MacIntel,60.0024001,,,,,,,,,,,,,,,,,,,,,,,,,,,,,,0,1.0163,1,,,,,,,,,,,,0,131,5,5,1986,1986,absent_patch/patch0001986.jpg,absent_patch/patch0001986.jpg,,,,,,,,,,,,,,,,,,,,-0.049771269,0.167612286,1,0,0,response7disk,19,0.002673479,0.004896427,1,0,0,center_square,0,18,18,19,1,,,,,,,,,,,,,,,,,,,,,,,
590086,001,2022-11-20_23h50.47.995,Info_measure_main_exp,2022.2.2,MacIntel,60.0024001,,,,,,,,,,,,,,,,,,masks/mask_002.jpg,,,,,,,,,,,,,,,,,,,,,,,,,,,,,,,,,,,,,,,,,,,0,0,0,1,1,,,,,,,,,,,,,,,,,,,,,,,,,,,,,,,,,,,,,,,,,,,,,,
590086,001,2022-11-20_23h50.47.995,Info_measure_main_exp,2022.2.2,MacIntel,60.0024001,,,,,,,,,,,,,,,,,,masks/mask_004.jpg,,,,,,,,,,,,,,,,,,,,,,,,,,,,,,,,,,,,,,,,,,,0,1,1,3,1,,,,,,,,,,,,,,,,,,,,,,,,,,,,,,,,,,,,,,,,,,,,,,
590086,001,2022-11-20_23h50.47.995,Info_measure_main_exp,2022.2.2,MacIntel,60.0024001,,,,,,,,,,,,,,,,,,masks/mask_005.jpg,,,,,,,,,,,,,,,,,,,,,,,,,,,,,,,,,,,,,,,,,,,0,2,2,4,1,,,,,,,,,,,,,,,,,,,,,,,,,,,,,,,,,,,,,,,,,,,,,,
590086,001,2022-11-20_23h50.47.995,Info_measure_main_exp,2022.2.2,MacIntel,60.0024001,,,,,,,,,,,,,,,,,,masks/mask_001.jpg,,,,,,,,,,,,,,,,,,,,,,,,,,,,,,,,,,,,,,,,,,,0,3,3,0,1,,,,,,,,,,,,,,,,,,,,,,,,,,,,,,,,,,,,,,,,,,,,,,
590086,001,2022-11-20_23h50.47.995,Info_measure_main_exp,2022.2.2,MacIntel,60.0024001,,,,,,,,,,,,,,,,,,masks/mask_003.jpg,,,,,,,,,,,,,,,,,,,,,,,,,,,,,,,,,,,,,,,,,,,0,4,4,2,1,,,,,,,,,,,,,,,,,,,,,,,,,,,,,,,,,,,,,,,,,,,,,,
590086,001,2022-11-20_23h50.47.995,Info_measure_main_exp,2022.2.2,MacIntel,60.0024001,,,,,,,,,,,,,,,,,,masks/mask_001.jpg,,,,,,,,,,,,,,,,,,,,,,,,,,,,,,,,,,,,,,,,,,,,,,,,0,0,0,0,1,,,,,,,,,,,,,,,,,,,,,,,,,,,,,,,,,,,,,,,,,
590086,001,2022-11-20_23h50.47.995,Info_measure_main_exp,2022.2.2,MacIntel,60.0024001,,,,,,,,,,,,,,,,,,masks/mask_002.jpg,,,,,,,,,,,,,,,,,,,,,,,,,,,,,,,,,,,,,,,,,,,,,,,,0,1,1,1,1,,,,,,,,,,,,,,,,,,,,,,,,,,,,,,,,,,,,,,,,,
590086,001,2022-11-20_23h50.47.995,Info_measure_main_exp,2022.2.2,MacIntel,60.0024001,,,,,,,,,,,,,,,,,,masks/mask_004.jpg,,,,,,,,,,,,,,,,,,,,,,,,,,,,,,,,,,,,,,,,,,,,,,,,0,2,2,3,1,,,,,,,,,,,,,,,,,,,,,,,,,,,,,,,,,,,,,,,,,
590086,001,2022-11-20_23h50.47.995,Info_measure_main_exp,2022.2.2,MacIntel,60.0024001,,,,,,,,,,,,,,,,,,masks/mask_003.jpg,,,,,,,,,,,,,,,,,,,,,,,,,,,,,,,,,,,,,,,,,,,,,,,,0,3,3,2,1,,,,,,,,,,,,,,,,,,,,,,,,,,,,,,,,,,,,,,,,,
590086,001,2022-11-20_23h50.47.995,Info_measure_main_exp,2022.2.2,MacIntel,60.0024001,,,,,,,,,,,,,,,,,,masks/mask_005.jpg,,,,,,,,,,,,,,,,,,,,,,,,,,,,,,,,,,,,,,,,,,,,,,,,0,4,4,4,1,,,,,,,,,,,,,,,,,,,,,,,,,,,,,,,,,,,,,,,,,
590086,001,2022-11-20_23h50.47.995,Info_measure_main_exp,2022.2.2,MacIntel,60.0024001,,,,,,,,,,,,,,,,,,,,,,,,,,,,,,0,0.75,1,,,,,,,,,,,,1,131,5,5,1,1,present_patch/cong_131_5_a.jpg,present_patch/cong_131_5_a.jpg,,,,,,,,,,,,,,,,,,,,-0.085328541,0.158601671,1,0,0,response7disk,20,-0.010233484,0.006906488,1,0,0,center_square,0,19,19,30,1,,,,,,,,,,,,,,,,,,,,,,,
590086,001,2022-11-20_23h50.47.995,Info_measure_main_exp,2022.2.2,MacIntel,60.0024001,,,,,,,,,,,,,,,,,,masks/mask_002.jpg,,,,,,,,,,,,,,,,,,,,,,,,,,,,,,,,,,,,,,,,,,,0,0,0,1,1,,,,,,,,,,,,,,,,,,,,,,,,,,,,,,,,,,,,,,,,,,,,,,
590086,001,2022-11-20_23h50.47.995,Info_measure_main_exp,2022.2.2,MacIntel,60.0024001,,,,,,,,,,,,,,,,,,masks/mask_001.jpg,,,,,,,,,,,,,,,,,,,,,,,,,,,,,,,,,,,,,,,,,,,0,1,1,0,1,,,,,,,,,,,,,,,,,,,,,,,,,,,,,,,,,,,,,,,,,,,,,,
590086,001,2022-11-20_23h50.47.995,Info_measure_main_exp,2022.2.2,MacIntel,60.0024001,,,,,,,,,,,,,,,,,,masks/mask_005.jpg,,,,,,,,,,,,,,,,,,,,,,,,,,,,,,,,,,,,,,,,,,,0,2,2,4,1,,,,,,,,,,,,,,,,,,,,,,,,,,,,,,,,,,,,,,,,,,,,,,
590086,001,2022-11-20_23h50.47.995,Info_measure_main_exp,2022.2.2,MacIntel,60.0024001,,,,,,,,,,,,,,,,,,masks/mask_003.jpg,,,,,,,,,,,,,,,,,,,,,,,,,,,,,,,,,,,,,,,,,,,0,3,3,2,1,,,,,,,,,,,,,,,,,,,,,,,,,,,,,,,,,,,,,,,,,,,,,,
590086,001,2022-11-20_23h50.47.995,Info_measure_main_exp,2022.2.2,MacIntel,60.0024001,,,,,,,,,,,,,,,,,,masks/mask_004.jpg,,,,,,,,,,,,,,,,,,,,,,,,,,,,,,,,,,,,,,,,,,,0,4,4,3,1,,,,,,,,,,,,,,,,,,,,,,,,,,,,,,,,,,,,,,,,,,,,,,
590086,001,2022-11-20_23h50.47.995,Info_measure_main_exp,2022.2.2,MacIntel,60.0024001,,,,,,,,,,,,,,,,,,masks/mask_001.jpg,,,,,,,,,,,,,,,,,,,,,,,,,,,,,,,,,,,,,,,,,,,,,,,,0,0,0,0,1,,,,,,,,,,,,,,,,,,,,,,,,,,,,,,,,,,,,,,,,,
590086,001,2022-11-20_23h50.47.995,Info_measure_main_exp,2022.2.2,MacIntel,60.0024001,,,,,,,,,,,,,,,,,,masks/mask_005.jpg,,,,,,,,,,,,,,,,,,,,,,,,,,,,,,,,,,,,,,,,,,,,,,,,0,1,1,4,1,,,,,,,,,,,,,,,,,,,,,,,,,,,,,,,,,,,,,,,,,
590086,001,2022-11-20_23h50.47.995,Info_measure_main_exp,2022.2.2,MacIntel,60.0024001,,,,,,,,,,,,,,,,,,masks/mask_003.jpg,,,,,,,,,,,,,,,,,,,,,,,,,,,,,,,,,,,,,,,,,,,,,,,,0,2,2,2,1,,,,,,,,,,,,,,,,,,,,,,,,,,,,,,,,,,,,,,,,,
590086,001,2022-11-20_23h50.47.995,Info_measure_main_exp,2022.2.2,MacIntel,60.0024001,,,,,,,,,,,,,,,,,,masks/mask_002.jpg,,,,,,,,,,,,,,,,,,,,,,,,,,,,,,,,,,,,,,,,,,,,,,,,0,3,3,1,1,,,,,,,,,,,,,,,,,,,,,,,,,,,,,,,,,,,,,,,,,
590086,001,2022-11-20_23h50.47.995,Info_measure_main_exp,2022.2.2,MacIntel,60.0024001,,,,,,,,,,,,,,,,,,masks/mask_004.jpg,,,,,,,,,,,,,,,,,,,,,,,,,,,,,,,,,,,,,,,,,,,,,,,,0,4,4,3,1,,,,,,,,,,,,,,,,,,,,,,,,,,,,,,,,,,,,,,,,,
590086,001,2022-11-20_23h50.47.995,Info_measure_main_exp,2022.2.2,MacIntel,60.0024001,,,,,,,,,,,,,,,,,,,,,,,,,,,,,,7,0.7499,1,,,,,,,,,,,,0,131,5,5,2154,1974,absent_patch/patch0002154.jpg,absent_patch/patch0001974.jpg,,,,,,,,,,,,,,,,,,,,0.086595968,0.18565827,1,0,0,response1disk,21,-0.004812262,-0.012421776,1,0,0,center_square,0,20,20,82,1,,,,,,,,,,,,,,,,,,,,,,,
590086,001,2022-11-20_23h50.47.995,Info_measure_main_exp,2022.2.2,MacIntel,60.0024001,,,,,,,,,,,,,,,,,,masks/mask_001.jpg,,,,,,,,,,,,,,,,,,,,,,,,,,,,,,,,,,,,,,,,,,,0,0,0,0,1,,,,,,,,,,,,,,,,,,,,,,,,,,,,,,,,,,,,,,,,,,,,,,
590086,001,2022-11-20_23h50.47.995,Info_measure_main_exp,2022.2.2,MacIntel,60.0024001,,,,,,,,,,,,,,,,,,masks/mask_005.jpg,,,,,,,,,,,,,,,,,,,,,,,,,,,,,,,,,,,,,,,,,,,0,1,1,4,1,,,,,,,,,,,,,,,,,,,,,,,,,,,,,,,,,,,,,,,,,,,,,,
590086,001,2022-11-20_23h50.47.995,Info_measure_main_exp,2022.2.2,MacIntel,60.0024001,,,,,,,,,,,,,,,,,,masks/mask_004.jpg,,,,,,,,,,,,,,,,,,,,,,,,,,,,,,,,,,,,,,,,,,,0,2,2,3,1,,,,,,,,,,,,,,,,,,,,,,,,,,,,,,,,,,,,,,,,,,,,,,
590086,001,2022-11-20_23h50.47.995,Info_measure_main_exp,2022.2.2,MacIntel,60.0024001,,,,,,,,,,,,,,,,,,masks/mask_003.jpg,,,,,,,,,,,,,,,,,,,,,,,,,,,,,,,,,,,,,,,,,,,0,3,3,2,1,,,,,,,,,,,,,,,,,,,,,,,,,,,,,,,,,,,,,,,,,,,,,,
590086,001,2022-11-20_23h50.47.995,Info_measure_main_exp,2022.2.2,MacIntel,60.0024001,,,,,,,,,,,,,,,,,,masks/mask_002.jpg,,,,,,,,,,,,,,,,,,,,,,,,,,,,,,,,,,,,,,,,,,,0,4,4,1,1,,,,,,,,,,,,,,,,,,,,,,,,,,,,,,,,,,,,,,,,,,,,,,
590086,001,2022-11-20_23h50.47.995,Info_measure_main_exp,2022.2.2,MacIntel,60.0024001,,,,,,,,,,,,,,,,,,masks/mask_004.jpg,,,,,,,,,,,,,,,,,,,,,,,,,,,,,,,,,,,,,,,,,,,,,,,,0,0,0,3,1,,,,,,,,,,,,,,,,,,,,,,,,,,,,,,,,,,,,,,,,,
590086,001,2022-11-20_23h50.47.995,Info_measure_main_exp,2022.2.2,MacIntel,60.0024001,,,,,,,,,,,,,,,,,,masks/mask_003.jpg,,,,,,,,,,,,,,,,,,,,,,,,,,,,,,,,,,,,,,,,,,,,,,,,0,1,1,2,1,,,,,,,,,,,,,,,,,,,,,,,,,,,,,,,,,,,,,,,,,
590086,001,2022-11-20_23h50.47.995,Info_measure_main_exp,2022.2.2,MacIntel,60.0024001,,,,,,,,,,,,,,,,,,masks/mask_002.jpg,,,,,,,,,,,,,,,,,,,,,,,,,,,,,,,,,,,,,,,,,,,,,,,,0,2,2,1,1,,,,,,,,,,,,,,,,,,,,,,,,,,,,,,,,,,,,,,,,,
590086,001,2022-11-20_23h50.47.995,Info_measure_main_exp,2022.2.2,MacIntel,60.0024001,,,,,,,,,,,,,,,,,,masks/mask_001.jpg,,,,,,,,,,,,,,,,,,,,,,,,,,,,,,,,,,,,,,,,,,,,,,,,0,3,3,0,1,,,,,,,,,,,,,,,,,,,,,,,,,,,,,,,,,,,,,,,,,
590086,001,2022-11-20_23h50.47.995,Info_measure_main_exp,2022.2.2,MacIntel,60.0024001,,,,,,,,,,,,,,,,,,masks/mask_005.jpg,,,,,,,,,,,,,,,,,,,,,,,,,,,,,,,,,,,,,,,,,,,,,,,,0,4,4,4,1,,,,,,,,,,,,,,,,,,,,,,,,,,,,,,,,,,,,,,,,,
590086,001,2022-11-20_23h50.47.995,Info_measure_main_exp,2022.2.2,MacIntel,60.0024001,,,,,,,,,,,,,,,,,,,,,,,,,,,,,,0,0.5501,1,,,,,,,,,,,,0,131,5,5,2142,2142,absent_patch/patch0002142.jpg,absent_patch/patch0002142.jpg,,,,,,,,,,,,,,,,,,,,-0.069980791,0.1512298,1,0,0,response7disk,22,-0.009277963,0.014743742,1,0,0,center_square,0,21,21,13,1,,,,,,,,,,,,,,,,,,,,,,,
590086,001,2022-11-20_23h50.47.995,Info_measure_main_exp,2022.2.2,MacIntel,60.0024001,,,,,,,,,,,,,,,,,,masks/mask_003.jpg,,,,,,,,,,,,,,,,,,,,,,,,,,,,,,,,,,,,,,,,,,,0,0,0,2,1,,,,,,,,,,,,,,,,,,,,,,,,,,,,,,,,,,,,,,,,,,,,,,
590086,001,2022-11-20_23h50.47.995,Info_measure_main_exp,2022.2.2,MacIntel,60.0024001,,,,,,,,,,,,,,,,,,masks/mask_005.jpg,,,,,,,,,,,,,,,,,,,,,,,,,,,,,,,,,,,,,,,,,,,0,1,1,4,1,,,,,,,,,,,,,,,,,,,,,,,,,,,,,,,,,,,,,,,,,,,,,,
590086,001,2022-11-20_23h50.47.995,Info_measure_main_exp,2022.2.2,MacIntel,60.0024001,,,,,,,,,,,,,,,,,,masks/mask_001.jpg,,,,,,,,,,,,,,,,,,,,,,,,,,,,,,,,,,,,,,,,,,,0,2,2,0,1,,,,,,,,,,,,,,,,,,,,,,,,,,,,,,,,,,,,,,,,,,,,,,
590086,001,2022-11-20_23h50.47.995,Info_measure_main_exp,2022.2.2,MacIntel,60.0024001,,,,,,,,,,,,,,,,,,masks/mask_002.jpg,,,,,,,,,,,,,,,,,,,,,,,,,,,,,,,,,,,,,,,,,,,0,3,3,1,1,,,,,,,,,,,,,,,,,,,,,,,,,,,,,,,,,,,,,,,,,,,,,,
590086,001,2022-11-20_23h50.47.995,Info_measure_main_exp,2022.2.2,MacIntel,60.0024001,,,,,,,,,,,,,,,,,,masks/mask_004.jpg,,,,,,,,,,,,,,,,,,,,,,,,,,,,,,,,,,,,,,,,,,,0,4,4,3,1,,,,,,,,,,,,,,,,,,,,,,,,,,,,,,,,,,,,,,,,,,,,,,
590086,001,2022-11-20_23h50.47.995,Info_measure_main_exp,2022.2.2,MacIntel,60.0024001,,,,,,,,,,,,,,,,,,masks/mask_003.jpg,,,,,,,,,,,,,,,,,,,,,,,,,,,,,,,,,,,,,,,,,,,,,,,,0,0,0,2,1,,,,,,,,,,,,,,,,,,,,,,,,,,,,,,,,,,,,,,,,,
590086,001,2022-11-20_23h50.47.995,Info_measure_main_exp,2022.2.2,MacIntel,60.0024001,,,,,,,,,,,,,,,,,,masks/mask_004.jpg,,,,,,,,,,,,,,,,,,,,,,,,,,,,,,,,,,,,,,,,,,,,,,,,0,1,1,3,1,,,,,,,,,,,,,,,,,,,,,,,,,,,,,,,,,,,,,,,,,
590086,001,2022-11-20_23h50.47.995,Info_measure_main_exp,2022.2.2,MacIntel,60.0024001,,,,,,,,,,,,,,,,,,masks/mask_005.jpg,,,,,,,,,,,,,,,,,,,,,,,,,,,,,,,,,,,,,,,,,,,,,,,,0,2,2,4,1,,,,,,,,,,,,,,,,,,,,,,,,,,,,,,,,,,,,,,,,,
590086,001,2022-11-20_23h50.47.995,Info_measure_main_exp,2022.2.2,MacIntel,60.0024001,,,,,,,,,,,,,,,,,,masks/mask_001.jpg,,,,,,,,,,,,,,,,,,,,,,,,,,,,,,,,,,,,,,,,,,,,,,,,0,3,3,0,1,,,,,,,,,,,,,,,,,,,,,,,,,,,,,,,,,,,,,,,,,
590086,001,2022-11-20_23h50.47.995,Info_measure_main_exp,2022.2.2,MacIntel,60.0024001,,,,,,,,,,,,,,,,,,masks/mask_002.jpg,,,,,,,,,,,,,,,,,,,,,,,,,,,,,,,,,,,,,,,,,,,,,,,,0,4,4,1,1,,,,,,,,,,,,,,,,,,,,,,,,,,,,,,,,,,,,,,,,,
590086,001,2022-11-20_23h50.47.995,Info_measure_main_exp,2022.2.2,MacIntel,60.0024001,,,,,,,,,,,,,,,,,,,,,,,,,,,,,,7,0.733,1,,,,,,,,,,,,0,131,5,5,1950,2238,absent_patch/patch0001950.jpg,absent_patch/patch0002238.jpg,,,,,,,,,,,,,,,,,,,,0.052251663,0.205328145,1,0,0,response1disk,23,0.005653913,-0.009698788,1,0,0,center_square,0,22,22,8,1,,,,,,,,,,,,,,,,,,,,,,,
590086,001,2022-11-20_23h50.47.995,Info_measure_main_exp,2022.2.2,MacIntel,60.0024001,,,,,,,,,,,,,,,,,,masks/mask_003.jpg,,,,,,,,,,,,,,,,,,,,,,,,,,,,,,,,,,,,,,,,,,,0,0,0,2,1,,,,,,,,,,,,,,,,,,,,,,,,,,,,,,,,,,,,,,,,,,,,,,
590086,001,2022-11-20_23h50.47.995,Info_measure_main_exp,2022.2.2,MacIntel,60.0024001,,,,,,,,,,,,,,,,,,masks/mask_004.jpg,,,,,,,,,,,,,,,,,,,,,,,,,,,,,,,,,,,,,,,,,,,0,1,1,3,1,,,,,,,,,,,,,,,,,,,,,,,,,,,,,,,,,,,,,,,,,,,,,,
590086,001,2022-11-20_23h50.47.995,Info_measure_main_exp,2022.2.2,MacIntel,60.0024001,,,,,,,,,,,,,,,,,,masks/mask_002.jpg,,,,,,,,,,,,,,,,,,,,,,,,,,,,,,,,,,,,,,,,,,,0,2,2,1,1,,,,,,,,,,,,,,,,,,,,,,,,,,,,,,,,,,,,,,,,,,,,,,
590086,001,2022-11-20_23h50.47.995,Info_measure_main_exp,2022.2.2,MacIntel,60.0024001,,,,,,,,,,,,,,,,,,masks/mask_005.jpg,,,,,,,,,,,,,,,,,,,,,,,,,,,,,,,,,,,,,,,,,,,0,3,3,4,1,,,,,,,,,,,,,,,,,,,,,,,,,,,,,,,,,,,,,,,,,,,,,,
590086,001,2022-11-20_23h50.47.995,Info_measure_main_exp,2022.2.2,MacIntel,60.0024001,,,,,,,,,,,,,,,,,,masks/mask_001.jpg,,,,,,,,,,,,,,,,,,,,,,,,,,,,,,,,,,,,,,,,,,,0,4,4,0,1,,,,,,,,,,,,,,,,,,,,,,,,,,,,,,,,,,,,,,,,,,,,,,
590086,001,2022-11-20_23h50.47.995,Info_measure_main_exp,2022.2.2,MacIntel,60.0024001,,,,,,,,,,,,,,,,,,masks/mask_002.jpg,,,,,,,,,,,,,,,,,,,,,,,,,,,,,,,,,,,,,,,,,,,,,,,,0,0,0,1,1,,,,,,,,,,,,,,,,,,,,,,,,,,,,,,,,,,,,,,,,,
590086,001,2022-11-20_23h50.47.995,Info_measure_main_exp,2022.2.2,MacIntel,60.0024001,,,,,,,,,,,,,,,,,,masks/mask_001.jpg,,,,,,,,,,,,,,,,,,,,,,,,,,,,,,,,,,,,,,,,,,,,,,,,0,1,1,0,1,,,,,,,,,,,,,,,,,,,,,,,,,,,,,,,,,,,,,,,,,
590086,001,2022-11-20_23h50.47.995,Info_measure_main_exp,2022.2.2,MacIntel,60.0024001,,,,,,,,,,,,,,,,,,masks/mask_003.jpg,,,,,,,,,,,,,,,,,,,,,,,,,,,,,,,,,,,,,,,,,,,,,,,,0,2,2,2,1,,,,,,,,,,,,,,,,,,,,,,,,,,,,,,,,,,,,,,,,,
590086,001,2022-11-20_23h50.47.995,Info_measure_main_exp,2022.2.2,MacIntel,60.0024001,,,,,,,,,,,,,,,,,,masks/mask_004.jpg,,,,,,,,,,,,,,,,,,,,,,,,,,,,,,,,,,,,,,,,,,,,,,,,0,3,3,3,1,,,,,,,,,,,,,,,,,,,,,,,,,,,,,,,,,,,,,,,,,
590086,001,2022-11-20_23h50.47.995,Info_measure_main_exp,2022.2.2,MacIntel,60.0024001,,,,,,,,,,,,,,,,,,masks/mask_005.jpg,,,,,,,,,,,,,,,,,,,,,,,,,,,,,,,,,,,,,,,,,,,,,,,,0,4,4,4,1,,,,,,,,,,,,,,,,,,,,,,,,,,,,,,,,,,,,,,,,,
590086,001,2022-11-20_23h50.47.995,Info_measure_main_exp,2022.2.2,MacIntel,60.0024001,,,,,,,,,,,,,,,,,,,,,,,,,,,,,,2,2.3498,1,,,,,,,,,,,,0,131,5,5,2082,2298,absent_patch/patch0002082.jpg,absent_patch/patch0002298.jpg,,,,,,,,,,,,,,,,,,,,-0.131797568,-0.059915637,1,0,0,response5disk,24,-0.012768338,0.002584363,1,0,0,center_square,0,23,23,107,1,,,,,,,,,,,,,,,,,,,,,,,
590086,001,2022-11-20_23h50.47.995,Info_measure_main_exp,2022.2.2,MacIntel,60.0024001,,,,,,,,,,,,,,,,,,masks/mask_004.jpg,,,,,,,,,,,,,,,,,,,,,,,,,,,,,,,,,,,,,,,,,,,0,0,0,3,1,,,,,,,,,,,,,,,,,,,,,,,,,,,,,,,,,,,,,,,,,,,,,,
590086,001,2022-11-20_23h50.47.995,Info_measure_main_exp,2022.2.2,MacIntel,60.0024001,,,,,,,,,,,,,,,,,,masks/mask_005.jpg,,,,,,,,,,,,,,,,,,,,,,,,,,,,,,,,,,,,,,,,,,,0,1,1,4,1,,,,,,,,,,,,,,,,,,,,,,,,,,,,,,,,,,,,,,,,,,,,,,
590086,001,2022-11-20_23h50.47.995,Info_measure_main_exp,2022.2.2,MacIntel,60.0024001,,,,,,,,,,,,,,,,,,masks/mask_002.jpg,,,,,,,,,,,,,,,,,,,,,,,,,,,,,,,,,,,,,,,,,,,0,2,2,1,1,,,,,,,,,,,,,,,,,,,,,,,,,,,,,,,,,,,,,,,,,,,,,,
590086,001,2022-11-20_23h50.47.995,Info_measure_main_exp,2022.2.2,MacIntel,60.0024001,,,,,,,,,,,,,,,,,,masks/mask_003.jpg,,,,,,,,,,,,,,,,,,,,,,,,,,,,,,,,,,,,,,,,,,,0,3,3,2,1,,,,,,,,,,,,,,,,,,,,,,,,,,,,,,,,,,,,,,,,,,,,,,
590086,001,2022-11-20_23h50.47.995,Info_measure_main_exp,2022.2.2,MacIntel,60.0024001,,,,,,,,,,,,,,,,,,masks/mask_001.jpg,,,,,,,,,,,,,,,,,,,,,,,,,,,,,,,,,,,,,,,,,,,0,4,4,0,1,,,,,,,,,,,,,,,,,,,,,,,,,,,,,,,,,,,,,,,,,,,,,,
590086,001,2022-11-20_23h50.47.995,Info_measure_main_exp,2022.2.2,MacIntel,60.0024001,,,,,,,,,,,,,,,,,,masks/mask_002.jpg,,,,,,,,,,,,,,,,,,,,,,,,,,,,,,,,,,,,,,,,,,,,,,,,0,0,0,1,1,,,,,,,,,,,,,,,,,,,,,,,,,,,,,,,,,,,,,,,,,
590086,001,2022-11-20_23h50.47.995,Info_measure_main_exp,2022.2.2,MacIntel,60.0024001,,,,,,,,,,,,,,,,,,masks/mask_001.jpg,,,,,,,,,,,,,,,,,,,,,,,,,,,,,,,,,,,,,,,,,,,,,,,,0,1,1,0,1,,,,,,,,,,,,,,,,,,,,,,,,,,,,,,,,,,,,,,,,,
590086,001,2022-11-20_23h50.47.995,Info_measure_main_exp,2022.2.2,MacIntel,60.0024001,,,,,,,,,,,,,,,,,,masks/mask_003.jpg,,,,,,,,,,,,,,,,,,,,,,,,,,,,,,,,,,,,,,,,,,,,,,,,0,2,2,2,1,,,,,,,,,,,,,,,,,,,,,,,,,,,,,,,,,,,,,,,,,
590086,001,2022-11-20_23h50.47.995,Info_measure_main_exp,2022.2.2,MacIntel,60.0024001,,,,,,,,,,,,,,,,,,masks/mask_004.jpg,,,,,,,,,,,,,,,,,,,,,,,,,,,,,,,,,,,,,,,,,,,,,,,,0,3,3,3,1,,,,,,,,,,,,,,,,,,,,,,,,,,,,,,,,,,,,,,,,,
590086,001,2022-11-20_23h50.47.995,Info_measure_main_exp,2022.2.2,MacIntel,60.0024001,,,,,,,,,,,,,,,,,,masks/mask_005.jpg,,,,,,,,,,,,,,,,,,,,,,,,,,,,,,,,,,,,,,,,,,,,,,,,0,4,4,4,1,,,,,,,,,,,,,,,,,,,,,,,,,,,,,,,,,,,,,,,,,
590086,001,2022-11-20_23h50.47.995,Info_measure_main_exp,2022.2.2,MacIntel,60.0024001,,,,,,,,,,,,,,,,,,,,,,,,,,,,,,4,1.6506,1,,,,,,,,,,,,0,131,5,5,2190,2082,absent_patch/patch0002190.jpg,absent_patch/patch0002082.jpg,,,,,,,,,,,,,,,,,,,,0.032948154,-0.112578224,1,0,0,response3disk,25,0.002836858,0.007723384,1,0,0,center_square,0,24,24,112,1,,,,,,,,,,,,,,,,,,,,,,,
590086,001,2022-11-20_23h50.47.995,Info_measure_main_exp,2022.2.2,MacIntel,60.0024001,,,,,,,,,,,,,,,,,,masks/mask_004.jpg,,,,,,,,,,,,,,,,,,,,,,,,,,,,,,,,,,,,,,,,,,,0,0,0,3,1,,,,,,,,,,,,,,,,,,,,,,,,,,,,,,,,,,,,,,,,,,,,,,
590086,001,2022-11-20_23h50.47.995,Info_measure_main_exp,2022.2.2,MacIntel,60.0024001,,,,,,,,,,,,,,,,,,masks/mask_005.jpg,,,,,,,,,,,,,,,,,,,,,,,,,,,,,,,,,,,,,,,,,,,0,1,1,4,1,,,,,,,,,,,,,,,,,,,,,,,,,,,,,,,,,,,,,,,,,,,,,,
590086,001,2022-11-20_23h50.47.995,Info_measure_main_exp,2022.2.2,MacIntel,60.0024001,,,,,,,,,,,,,,,,,,masks/mask_003.jpg,,,,,,,,,,,,,,,,,,,,,,,,,,,,,,,,,,,,,,,,,,,0,2,2,2,1,,,,,,,,,,,,,,,,,,,,,,,,,,,,,,,,,,,,,,,,,,,,,,
590086,001,2022-11-20_23h50.47.995,Info_measure_main_exp,2022.2.2,MacIntel,60.0024001,,,,,,,,,,,,,,,,,,masks/mask_002.jpg,,,,,,,,,,,,,,,,,,,,,,,,,,,,,,,,,,,,,,,,,,,0,3,3,1,1,,,,,,,,,,,,,,,,,,,,,,,,,,,,,,,,,,,,,,,,,,,,,,
590086,001,2022-11-20_23h50.47.995,Info_measure_main_exp,2022.2.2,MacIntel,60.0024001,,,,,,,,,,,,,,,,,,masks/mask_001.jpg,,,,,,,,,,,,,,,,,,,,,,,,,,,,,,,,,,,,,,,,,,,0,4,4,0,1,,,,,,,,,,,,,,,,,,,,,,,,,,,,,,,,,,,,,,,,,,,,,,
590086,001,2022-11-20_23h50.47.995,Info_measure_main_exp,2022.2.2,MacIntel,60.0024001,,,,,,,,,,,,,,,,,,masks/mask_005.jpg,,,,,,,,,,,,,,,,,,,,,,,,,,,,,,,,,,,,,,,,,,,,,,,,0,0,0,4,1,,,,,,,,,,,,,,,,,,,,,,,,,,,,,,,,,,,,,,,,,
590086,001,2022-11-20_23h50.47.995,Info_measure_main_exp,2022.2.2,MacIntel,60.0024001,,,,,,,,,,,,,,,,,,masks/mask_002.jpg,,,,,,,,,,,,,,,,,,,,,,,,,,,,,,,,,,,,,,,,,,,,,,,,0,1,1,1,1,,,,,,,,,,,,,,,,,,,,,,,,,,,,,,,,,,,,,,,,,
590086,001,2022-11-20_23h50.47.995,Info_measure_main_exp,2022.2.2,MacIntel,60.0024001,,,,,,,,,,,,,,,,,,masks/mask_003.jpg,,,,,,,,,,,,,,,,,,,,,,,,,,,,,,,,,,,,,,,,,,,,,,,,0,2,2,2,1,,,,,,,,,,,,,,,,,,,,,,,,,,,,,,,,,,,,,,,,,
590086,001,2022-11-20_23h50.47.995,Info_measure_main_exp,2022.2.2,MacIntel,60.0024001,,,,,,,,,,,,,,,,,,masks/mask_004.jpg,,,,,,,,,,,,,,,,,,,,,,,,,,,,,,,,,,,,,,,,,,,,,,,,0,3,3,3,1,,,,,,,,,,,,,,,,,,,,,,,,,,,,,,,,,,,,,,,,,
590086,001,2022-11-20_23h50.47.995,Info_measure_main_exp,2022.2.2,MacIntel,60.0024001,,,,,,,,,,,,,,,,,,masks/mask_001.jpg,,,,,,,,,,,,,,,,,,,,,,,,,,,,,,,,,,,,,,,,,,,,,,,,0,4,4,0,1,,,,,,,,,,,,,,,,,,,,,,,,,,,,,,,,,,,,,,,,,
590086,001,2022-11-20_23h50.47.995,Info_measure_main_exp,2022.2.2,MacIntel,60.0024001,,,,,,,,,,,,,,,,,,,,,,,,,,,,,,6,1.4166,1,,,,,,,,,,,,0,131,5,5,1974,2298,absent_patch/patch0001974.jpg,absent_patch/patch0002298.jpg,,,,,,,,,,,,,,,,,,,,0.142649913,0.084481939,1,0,0,response1disk,26,-0.002282359,-0.006906488,1,0,0,center_square,0,25,25,6,1,,,,,,,,,,,,,,,,,,,,,,,
590086,001,2022-11-20_23h50.47.995,Info_measure_main_exp,2022.2.2,MacIntel,60.0024001,,,,,,,,,,,,,,,,,,masks/mask_004.jpg,,,,,,,,,,,,,,,,,,,,,,,,,,,,,,,,,,,,,,,,,,,0,0,0,3,1,,,,,,,,,,,,,,,,,,,,,,,,,,,,,,,,,,,,,,,,,,,,,,
590086,001,2022-11-20_23h50.47.995,Info_measure_main_exp,2022.2.2,MacIntel,60.0024001,,,,,,,,,,,,,,,,,,masks/mask_002.jpg,,,,,,,,,,,,,,,,,,,,,,,,,,,,,,,,,,,,,,,,,,,0,1,1,1,1,,,,,,,,,,,,,,,,,,,,,,,,,,,,,,,,,,,,,,,,,,,,,,
590086,001,2022-11-20_23h50.47.995,Info_measure_main_exp,2022.2.2,MacIntel,60.0024001,,,,,,,,,,,,,,,,,,masks/mask_003.jpg,,,,,,,,,,,,,,,,,,,,,,,,,,,,,,,,,,,,,,,,,,,0,2,2,2,1,,,,,,,,,,,,,,,,,,,,,,,,,,,,,,,,,,,,,,,,,,,,,,
590086,001,2022-11-20_23h50.47.995,Info_measure_main_exp,2022.2.2,MacIntel,60.0024001,,,,,,,,,,,,,,,,,,masks/mask_001.jpg,,,,,,,,,,,,,,,,,,,,,,,,,,,,,,,,,,,,,,,,,,,0,3,3,0,1,,,,,,,,,,,,,,,,,,,,,,,,,,,,,,,,,,,,,,,,,,,,,,
590086,001,2022-11-20_23h50.47.995,Info_measure_main_exp,2022.2.2,MacIntel,60.0024001,,,,,,,,,,,,,,,,,,masks/mask_005.jpg,,,,,,,,,,,,,,,,,,,,,,,,,,,,,,,,,,,,,,,,,,,0,4,4,4,1,,,,,,,,,,,,,,,,,,,,,,,,,,,,,,,,,,,,,,,,,,,,,,
590086,001,2022-11-20_23h50.47.995,Info_measure_main_exp,2022.2.2,MacIntel,60.0024001,,,,,,,,,,,,,,,,,,masks/mask_002.jpg,,,,,,,,,,,,,,,,,,,,,,,,,,,,,,,,,,,,,,,,,,,,,,,,0,0,0,1,1,,,,,,,,,,,,,,,,,,,,,,,,,,,,,,,,,,,,,,,,,
590086,001,2022-11-20_23h50.47.995,Info_measure_main_exp,2022.2.2,MacIntel,60.0024001,,,,,,,,,,,,,,,,,,masks/mask_005.jpg,,,,,,,,,,,,,,,,,,,,,,,,,,,,,,,,,,,,,,,,,,,,,,,,0,1,1,4,1,,,,,,,,,,,,,,,,,,,,,,,,,,,,,,,,,,,,,,,,,
590086,001,2022-11-20_23h50.47.995,Info_measure_main_exp,2022.2.2,MacIntel,60.0024001,,,,,,,,,,,,,,,,,,masks/mask_004.jpg,,,,,,,,,,,,,,,,,,,,,,,,,,,,,,,,,,,,,,,,,,,,,,,,0,2,2,3,1,,,,,,,,,,,,,,,,,,,,,,,,,,,,,,,,,,,,,,,,,
590086,001,2022-11-20_23h50.47.995,Info_measure_main_exp,2022.2.2,MacIntel,60.0024001,,,,,,,,,,,,,,,,,,masks/mask_001.jpg,,,,,,,,,,,,,,,,,,,,,,,,,,,,,,,,,,,,,,,,,,,,,,,,0,3,3,0,1,,,,,,,,,,,,,,,,,,,,,,,,,,,,,,,,,,,,,,,,,
590086,001,2022-11-20_23h50.47.995,Info_measure_main_exp,2022.2.2,MacIntel,60.0024001,,,,,,,,,,,,,,,,,,masks/mask_003.jpg,,,,,,,,,,,,,,,,,,,,,,,,,,,,,,,,,,,,,,,,,,,,,,,,0,4,4,2,1,,,,,,,,,,,,,,,,,,,,,,,,,,,,,,,,,,,,,,,,,
590086,001,2022-11-20_23h50.47.995,Info_measure_main_exp,2022.2.2,MacIntel,60.0024001,,,,,,,,,,,,,,,,,,,,,,,,,,,,,,3,2.8504,1,,,,,,,,,,,,0,131,5,5,2250,2166,absent_patch/patch0002250.jpg,absent_patch/patch0002166.jpg,,,,,,,,,,,,,,,,,,,,-0.035284973,-0.201530814,1,0,0,response5disk,27,0.001940748,0.007223344,1,0,0,center_square,0,26,26,60,1,,,,,,,,,,,,,,,,,,,,,,,
590086,001,2022-11-20_23h50.47.995,Info_measure_main_exp,2022.2.2,MacIntel,60.0024001,,,,,,,,,,,,,,,,,,masks/mask_004.jpg,,,,,,,,,,,,,,,,,,,,,,,,,,,,,,,,,,,,,,,,,,,0,0,0,3,1,,,,,,,,,,,,,,,,,,,,,,,,,,,,,,,,,,,,,,,,,,,,,,
590086,001,2022-11-20_23h50.47.995,Info_measure_main_exp,2022.2.2,MacIntel,60.0024001,,,,,,,,,,,,,,,,,,masks/mask_003.jpg,,,,,,,,,,,,,,,,,,,,,,,,,,,,,,,,,,,,,,,,,,,0,1,1,2,1,,,,,,,,,,,,,,,,,,,,,,,,,,,,,,,,,,,,,,,,,,,,,,
590086,001,2022-11-20_23h50.47.995,Info_measure_main_exp,2022.2.2,MacIntel,60.0024001,,,,,,,,,,,,,,,,,,masks/mask_001.jpg,,,,,,,,,,,,,,,,,,,,,,,,,,,,,,,,,,,,,,,,,,,0,2,2,0,1,,,,,,,,,,,,,,,,,,,,,,,,,,,,,,,,,,,,,,,,,,,,,,
590086,001,2022-11-20_23h50.47.995,Info_measure_main_exp,2022.2.2,MacIntel,60.0024001,,,,,,,,,,,,,,,,,,masks/mask_005.jpg,,,,,,,,,,,,,,,,,,,,,,,,,,,,,,,,,,,,,,,,,,,0,3,3,4,1,,,,,,,,,,,,,,,,,,,,,,,,,,,,,,,,,,,,,,,,,,,,,,
590086,001,2022-11-20_23h50.47.995,Info_measure_main_exp,2022.2.2,MacIntel,60.0024001,,,,,,,,,,,,,,,,,,masks/mask_002.jpg,,,,,,,,,,,,,,,,,,,,,,,,,,,,,,,,,,,,,,,,,,,0,4,4,1,1,,,,,,,,,,,,,,,,,,,,,,,,,,,,,,,,,,,,,,,,,,,,,,
590086,001,2022-11-20_23h50.47.995,Info_measure_main_exp,2022.2.2,MacIntel,60.0024001,,,,,,,,,,,,,,,,,,masks/mask_005.jpg,,,,,,,,,,,,,,,,,,,,,,,,,,,,,,,,,,,,,,,,,,,,,,,,0,0,0,4,1,,,,,,,,,,,,,,,,,,,,,,,,,,,,,,,,,,,,,,,,,
590086,001,2022-11-20_23h50.47.995,Info_measure_main_exp,2022.2.2,MacIntel,60.0024001,,,,,,,,,,,,,,,,,,masks/mask_004.jpg,,,,,,,,,,,,,,,,,,,,,,,,,,,,,,,,,,,,,,,,,,,,,,,,0,1,1,3,1,,,,,,,,,,,,,,,,,,,,,,,,,,,,,,,,,,,,,,,,,
590086,001,2022-11-20_23h50.47.995,Info_measure_main_exp,2022.2.2,MacIntel,60.0024001,,,,,,,,,,,,,,,,,,masks/mask_003.jpg,,,,,,,,,,,,,,,,,,,,,,,,,,,,,,,,,,,,,,,,,,,,,,,,0,2,2,2,1,,,,,,,,,,,,,,,,,,,,,,,,,,,,,,,,,,,,,,,,,
590086,001,2022-11-20_23h50.47.995,Info_measure_main_exp,2022.2.2,MacIntel,60.0024001,,,,,,,,,,,,,,,,,,masks/mask_001.jpg,,,,,,,,,,,,,,,,,,,,,,,,,,,,,,,,,,,,,,,,,,,,,,,,0,3,3,0,1,,,,,,,,,,,,,,,,,,,,,,,,,,,,,,,,,,,,,,,,,
590086,001,2022-11-20_23h50.47.995,Info_measure_main_exp,2022.2.2,MacIntel,60.0024001,,,,,,,,,,,,,,,,,,masks/mask_002.jpg,,,,,,,,,,,,,,,,,,,,,,,,,,,,,,,,,,,,,,,,,,,,,,,,0,4,4,1,1,,,,,,,,,,,,,,,,,,,,,,,,,,,,,,,,,,,,,,,,,
590086,001,2022-11-20_23h50.47.995,Info_measure_main_exp,2022.2.2,MacIntel,60.0024001,,,,,,,,,,,,,,,,,,,,,,,,,,,,,,4,1.6335,1,,,,,,,,,,,,0,131,5,5,2142,2082,absent_patch/patch0002142.jpg,absent_patch/patch0002082.jpg,,,,,,,,,,,,,,,,,,,,0.032824382,-0.135644407,1,0,0,response3disk,28,-0.002831907,0.017605355,1,0,0,center_square,0,27,27,88,1,,,,,,,,,,,,,,,,,,,,,,,
590086,001,2022-11-20_23h50.47.995,Info_measure_main_exp,2022.2.2,MacIntel,60.0024001,,,,,,,,,,,,,,,,,,masks/mask_004.jpg,,,,,,,,,,,,,,,,,,,,,,,,,,,,,,,,,,,,,,,,,,,0,0,0,3,1,,,,,,,,,,,,,,,,,,,,,,,,,,,,,,,,,,,,,,,,,,,,,,
590086,001,2022-11-20_23h50.47.995,Info_measure_main_exp,2022.2.2,MacIntel,60.0024001,,,,,,,,,,,,,,,,,,masks/mask_001.jpg,,,,,,,,,,,,,,,,,,,,,,,,,,,,,,,,,,,,,,,,,,,0,1,1,0,1,,,,,,,,,,,,,,,,,,,,,,,,,,,,,,,,,,,,,,,,,,,,,,
590086,001,2022-11-20_23h50.47.995,Info_measure_main_exp,2022.2.2,MacIntel,60.0024001,,,,,,,,,,,,,,,,,,masks/mask_003.jpg,,,,,,,,,,,,,,,,,,,,,,,,,,,,,,,,,,,,,,,,,,,0,2,2,2,1,,,,,,,,,,,,,,,,,,,,,,,,,,,,,,,,,,,,,,,,,,,,,,
590086,001,2022-11-20_23h50.47.995,Info_measure_main_exp,2022.2.2,MacIntel,60.0024001,,,,,,,,,,,,,,,,,,masks/mask_002.jpg,,,,,,,,,,,,,,,,,,,,,,,,,,,,,,,,,,,,,,,,,,,0,3,3,1,1,,,,,,,,,,,,,,,,,,,,,,,,,,,,,,,,,,,,,,,,,,,,,,
590086,001,2022-11-20_23h50.47.995,Info_measure_main_exp,2022.2.2,MacIntel,60.0024001,,,,,,,,,,,,,,,,,,masks/mask_005.jpg,,,,,,,,,,,,,,,,,,,,,,,,,,,,,,,,,,,,,,,,,,,0,4,4,4,1,,,,,,,,,,,,,,,,,,,,,,,,,,,,,,,,,,,,,,,,,,,,,,
590086,001,2022-11-20_23h50.47.995,Info_measure_main_exp,2022.2.2,MacIntel,60.0024001,,,,,,,,,,,,,,,,,,masks/mask_002.jpg,,,,,,,,,,,,,,,,,,,,,,,,,,,,,,,,,,,,,,,,,,,,,,,,0,0,0,1,1,,,,,,,,,,,,,,,,,,,,,,,,,,,,,,,,,,,,,,,,,
590086,001,2022-11-20_23h50.47.995,Info_measure_main_exp,2022.2.2,MacIntel,60.0024001,,,,,,,,,,,,,,,,,,masks/mask_001.jpg,,,,,,,,,,,,,,,,,,,,,,,,,,,,,,,,,,,,,,,,,,,,,,,,0,1,1,0,1,,,,,,,,,,,,,,,,,,,,,,,,,,,,,,,,,,,,,,,,,
590086,001,2022-11-20_23h50.47.995,Info_measure_main_exp,2022.2.2,MacIntel,60.0024001,,,,,,,,,,,,,,,,,,masks/mask_004.jpg,,,,,,,,,,,,,,,,,,,,,,,,,,,,,,,,,,,,,,,,,,,,,,,,0,2,2,3,1,,,,,,,,,,,,,,,,,,,,,,,,,,,,,,,,,,,,,,,,,
590086,001,2022-11-20_23h50.47.995,Info_measure_main_exp,2022.2.2,MacIntel,60.0024001,,,,,,,,,,,,,,,,,,masks/mask_003.jpg,,,,,,,,,,,,,,,,,,,,,,,,,,,,,,,,,,,,,,,,,,,,,,,,0,3,3,2,1,,,,,,,,,,,,,,,,,,,,,,,,,,,,,,,,,,,,,,,,,
590086,001,2022-11-20_23h50.47.995,Info_measure_main_exp,2022.2.2,MacIntel,60.0024001,,,,,,,,,,,,,,,,,,masks/mask_005.jpg,,,,,,,,,,,,,,,,,,,,,,,,,,,,,,,,,,,,,,,,,,,,,,,,0,4,4,4,1,,,,,,,,,,,,,,,,,,,,,,,,,,,,,,,,,,,,,,,,,
590086,001,2022-11-20_23h50.47.995,Info_measure_main_exp,2022.2.2,MacIntel,60.0024001,,,,,,,,,,,,,,,,,,,,,,,,,,,,,,7,0.9674,1,,,,,,,,,,,,1,131,5,5,2298,1,absent_patch/patch0002298.jpg,present_patch/cong_131_5_a.jpg,,,,,,,,,,,,,,,,,,,,0.061247426,0.178340859,1,0,0,response1disk,29,0.00803529,0.004346879,1,0,0,center_square,0,28,28,45,1,,,,,,,,,,,,,,,,,,,,,,,
590086,001,2022-11-20_23h50.47.995,Info_measure_main_exp,2022.2.2,MacIntel,60.0024001,,,,,,,,,,,,,,,,,,masks/mask_003.jpg,,,,,,,,,,,,,,,,,,,,,,,,,,,,,,,,,,,,,,,,,,,0,0,0,2,1,,,,,,,,,,,,,,,,,,,,,,,,,,,,,,,,,,,,,,,,,,,,,,
590086,001,2022-11-20_23h50.47.995,Info_measure_main_exp,2022.2.2,MacIntel,60.0024001,,,,,,,,,,,,,,,,,,masks/mask_001.jpg,,,,,,,,,,,,,,,,,,,,,,,,,,,,,,,,,,,,,,,,,,,0,1,1,0,1,,,,,,,,,,,,,,,,,,,,,,,,,,,,,,,,,,,,,,,,,,,,,,
590086,001,2022-11-20_23h50.47.995,Info_measure_main_exp,2022.2.2,MacIntel,60.0024001,,,,,,,,,,,,,,,,,,masks/mask_002.jpg,,,,,,,,,,,,,,,,,,,,,,,,,,,,,,,,,,,,,,,,,,,0,2,2,1,1,,,,,,,,,,,,,,,,,,,,,,,,,,,,,,,,,,,,,,,,,,,,,,
590086,001,2022-11-20_23h50.47.995,Info_measure_main_exp,2022.2.2,MacIntel,60.0024001,,,,,,,,,,,,,,,,,,masks/mask_005.jpg,,,,,,,,,,,,,,,,,,,,,,,,,,,,,,,,,,,,,,,,,,,0,3,3,4,1,,,,,,,,,,,,,,,,,,,,,,,,,,,,,,,,,,,,,,,,,,,,,,
590086,001,2022-11-20_23h50.47.995,Info_measure_main_exp,2022.2.2,MacIntel,60.0024001,,,,,,,,,,,,,,,,,,masks/mask_004.jpg,,,,,,,,,,,,,,,,,,,,,,,,,,,,,,,,,,,,,,,,,,,0,4,4,3,1,,,,,,,,,,,,,,,,,,,,,,,,,,,,,,,,,,,,,,,,,,,,,,
590086,001,2022-11-20_23h50.47.995,Info_measure_main_exp,2022.2.2,MacIntel,60.0024001,,,,,,,,,,,,,,,,,,masks/mask_001.jpg,,,,,,,,,,,,,,,,,,,,,,,,,,,,,,,,,,,,,,,,,,,,,,,,0,0,0,0,1,,,,,,,,,,,,,,,,,,,,,,,,,,,,,,,,,,,,,,,,,
590086,001,2022-11-20_23h50.47.995,Info_measure_main_exp,2022.2.2,MacIntel,60.0024001,,,,,,,,,,,,,,,,,,masks/mask_002.jpg,,,,,,,,,,,,,,,,,,,,,,,,,,,,,,,,,,,,,,,,,,,,,,,,0,1,1,1,1,,,,,,,,,,,,,,,,,,,,,,,,,,,,,,,,,,,,,,,,,
590086,001,2022-11-20_23h50.47.995,Info_measure_main_exp,2022.2.2,MacIntel,60.0024001,,,,,,,,,,,,,,,,,,masks/mask_004.jpg,,,,,,,,,,,,,,,,,,,,,,,,,,,,,,,,,,,,,,,,,,,,,,,,0,2,2,3,1,,,,,,,,,,,,,,,,,,,,,,,,,,,,,,,,,,,,,,,,,
590086,001,2022-11-20_23h50.47.995,Info_measure_main_exp,2022.2.2,MacIntel,60.0024001,,,,,,,,,,,,,,,,,,masks/mask_005.jpg,,,,,,,,,,,,,,,,,,,,,,,,,,,,,,,,,,,,,,,,,,,,,,,,0,3,3,4,1,,,,,,,,,,,,,,,,,,,,,,,,,,,,,,,,,,,,,,,,,
590086,001,2022-11-20_23h50.47.995,Info_measure_main_exp,2022.2.2,MacIntel,60.0024001,,,,,,,,,,,,,,,,,,masks/mask_003.jpg,,,,,,,,,,,,,,,,,,,,,,,,,,,,,,,,,,,,,,,,,,,,,,,,0,4,4,2,1,,,,,,,,,,,,,,,,,,,,,,,,,,,,,,,,,,,,,,,,,
590086,001,2022-11-20_23h50.47.995,Info_measure_main_exp,2022.2.2,MacIntel,60.0024001,,,,,,,,,,,,,,,,,,,,,,,,,,,,,,6,1.6331,1,,,,,,,,,,,,0,131,5,5,2298,2178,absent_patch/patch0002298.jpg,absent_patch/patch0002178.jpg,,,,,,,,,,,,,,,,,,,,0.124990098,0.060450333,1,0,0,response1disk,30,0.005010298,-0.001911042,1,0,0,center_square,0,29,29,84,1,,,,,,,,,,,,,,,,,,,,,,,
590086,001,2022-11-20_23h50.47.995,Info_measure_main_exp,2022.2.2,MacIntel,60.0024001,,,,,,,,,,,,,,,,,,masks/mask_002.jpg,,,,,,,,,,,,,,,,,,,,,,,,,,,,,,,,,,,,,,,,,,,0,0,0,1,1,,,,,,,,,,,,,,,,,,,,,,,,,,,,,,,,,,,,,,,,,,,,,,
590086,001,2022-11-20_23h50.47.995,Info_measure_main_exp,2022.2.2,MacIntel,60.0024001,,,,,,,,,,,,,,,,,,masks/mask_005.jpg,,,,,,,,,,,,,,,,,,,,,,,,,,,,,,,,,,,,,,,,,,,0,1,1,4,1,,,,,,,,,,,,,,,,,,,,,,,,,,,,,,,,,,,,,,,,,,,,,,
590086,001,2022-11-20_23h50.47.995,Info_measure_main_exp,2022.2.2,MacIntel,60.0024001,,,,,,,,,,,,,,,,,,masks/mask_001.jpg,,,,,,,,,,,,,,,,,,,,,,,,,,,,,,,,,,,,,,,,,,,0,2,2,0,1,,,,,,,,,,,,,,,,,,,,,,,,,,,,,,,,,,,,,,,,,,,,,,
590086,001,2022-11-20_23h50.47.995,Info_measure_main_exp,2022.2.2,MacIntel,60.0024001,,,,,,,,,,,,,,,,,,masks/mask_004.jpg,,,,,,,,,,,,,,,,,,,,,,,,,,,,,,,,,,,,,,,,,,,0,3,3,3,1,,,,,,,,,,,,,,,,,,,,,,,,,,,,,,,,,,,,,,,,,,,,,,
590086,001,2022-11-20_23h50.47.995,Info_measure_main_exp,2022.2.2,MacIntel,60.0024001,,,,,,,,,,,,,,,,,,masks/mask_003.jpg,,,,,,,,,,,,,,,,,,,,,,,,,,,,,,,,,,,,,,,,,,,0,4,4,2,1,,,,,,,,,,,,,,,,,,,,,,,,,,,,,,,,,,,,,,,,,,,,,,
590086,001,2022-11-20_23h50.47.995,Info_measure_main_exp,2022.2.2,MacIntel,60.0024001,,,,,,,,,,,,,,,,,,masks/mask_003.jpg,,,,,,,,,,,,,,,,,,,,,,,,,,,,,,,,,,,,,,,,,,,,,,,,0,0,0,2,1,,,,,,,,,,,,,,,,,,,,,,,,,,,,,,,,,,,,,,,,,
590086,001,2022-11-20_23h50.47.995,Info_measure_main_exp,2022.2.2,MacIntel,60.0024001,,,,,,,,,,,,,,,,,,masks/mask_002.jpg,,,,,,,,,,,,,,,,,,,,,,,,,,,,,,,,,,,,,,,,,,,,,,,,0,1,1,1,1,,,,,,,,,,,,,,,,,,,,,,,,,,,,,,,,,,,,,,,,,
590086,001,2022-11-20_23h50.47.995,Info_measure_main_exp,2022.2.2,MacIntel,60.0024001,,,,,,,,,,,,,,,,,,masks/mask_005.jpg,,,,,,,,,,,,,,,,,,,,,,,,,,,,,,,,,,,,,,,,,,,,,,,,0,2,2,4,1,,,,,,,,,,,,,,,,,,,,,,,,,,,,,,,,,,,,,,,,,
590086,001,2022-11-20_23h50.47.995,Info_measure_main_exp,2022.2.2,MacIntel,60.0024001,,,,,,,,,,,,,,,,,,masks/mask_001.jpg,,,,,,,,,,,,,,,,,,,,,,,,,,,,,,,,,,,,,,,,,,,,,,,,0,3,3,0,1,,,,,,,,,,,,,,,,,,,,,,,,,,,,,,,,,,,,,,,,,
590086,001,2022-11-20_23h50.47.995,Info_measure_main_exp,2022.2.2,MacIntel,60.0024001,,,,,,,,,,,,,,,,,,masks/mask_004.jpg,,,,,,,,,,,,,,,,,,,,,,,,,,,,,,,,,,,,,,,,,,,,,,,,0,4,4,3,1,,,,,,,,,,,,,,,,,,,,,,,,,,,,,,,,,,,,,,,,,
590086,001,2022-11-20_23h50.47.995,Info_measure_main_exp,2022.2.2,MacIntel,60.0024001,,,,,,,,,,,,,,,,,,,,,,,,,,,,,,7,0.7494,1,,,,,,,,,,,,0,131,5,5,2250,2298,absent_patch/patch0002250.jpg,absent_patch/patch0002298.jpg,,,,,,,,,,,,,,,,,,,,0.035671142,0.095467958,1,0,0,response1disk,31,0.015392308,0.007876862,1,0,0,center_square,0,30,30,59,1,,,,,,,,,,,,,,,,,,,,,,,
590086,001,2022-11-20_23h50.47.995,Info_measure_main_exp,2022.2.2,MacIntel,60.0024001,,,,,,,,,,,,,,,,,,masks/mask_002.jpg,,,,,,,,,,,,,,,,,,,,,,,,,,,,,,,,,,,,,,,,,,,0,0,0,1,1,,,,,,,,,,,,,,,,,,,,,,,,,,,,,,,,,,,,,,,,,,,,,,
590086,001,2022-11-20_23h50.47.995,Info_measure_main_exp,2022.2.2,MacIntel,60.0024001,,,,,,,,,,,,,,,,,,masks/mask_001.jpg,,,,,,,,,,,,,,,,,,,,,,,,,,,,,,,,,,,,,,,,,,,0,1,1,0,1,,,,,,,,,,,,,,,,,,,,,,,,,,,,,,,,,,,,,,,,,,,,,,
590086,001,2022-11-20_23h50.47.995,Info_measure_main_exp,2022.2.2,MacIntel,60.0024001,,,,,,,,,,,,,,,,,,masks/mask_004.jpg,,,,,,,,,,,,,,,,,,,,,,,,,,,,,,,,,,,,,,,,,,,0,2,2,3,1,,,,,,,,,,,,,,,,,,,,,,,,,,,,,,,,,,,,,,,,,,,,,,
590086,001,2022-11-20_23h50.47.995,Info_measure_main_exp,2022.2.2,MacIntel,60.0024001,,,,,,,,,,,,,,,,,,masks/mask_003.jpg,,,,,,,,,,,,,,,,,,,,,,,,,,,,,,,,,,,,,,,,,,,0,3,3,2,1,,,,,,,,,,,,,,,,,,,,,,,,,,,,,,,,,,,,,,,,,,,,,,
590086,001,2022-11-20_23h50.47.995,Info_measure_main_exp,2022.2.2,MacIntel,60.0024001,,,,,,,,,,,,,,,,,,masks/mask_005.jpg,,,,,,,,,,,,,,,,,,,,,,,,,,,,,,,,,,,,,,,,,,,0,4,4,4,1,,,,,,,,,,,,,,,,,,,,,,,,,,,,,,,,,,,,,,,,,,,,,,
590086,001,2022-11-20_23h50.47.995,Info_measure_main_exp,2022.2.2,MacIntel,60.0024001,,,,,,,,,,,,,,,,,,masks/mask_003.jpg,,,,,,,,,,,,,,,,,,,,,,,,,,,,,,,,,,,,,,,,,,,,,,,,0,0,0,2,1,,,,,,,,,,,,,,,,,,,,,,,,,,,,,,,,,,,,,,,,,
590086,001,2022-11-20_23h50.47.995,Info_measure_main_exp,2022.2.2,MacIntel,60.0024001,,,,,,,,,,,,,,,,,,masks/mask_001.jpg,,,,,,,,,,,,,,,,,,,,,,,,,,,,,,,,,,,,,,,,,,,,,,,,0,1,1,0,1,,,,,,,,,,,,,,,,,,,,,,,,,,,,,,,,,,,,,,,,,
590086,001,2022-11-20_23h50.47.995,Info_measure_main_exp,2022.2.2,MacIntel,60.0024001,,,,,,,,,,,,,,,,,,masks/mask_004.jpg,,,,,,,,,,,,,,,,,,,,,,,,,,,,,,,,,,,,,,,,,,,,,,,,0,2,2,3,1,,,,,,,,,,,,,,,,,,,,,,,,,,,,,,,,,,,,,,,,,
590086,001,2022-11-20_23h50.47.995,Info_measure_main_exp,2022.2.2,MacIntel,60.0024001,,,,,,,,,,,,,,,,,,masks/mask_002.jpg,,,,,,,,,,,,,,,,,,,,,,,,,,,,,,,,,,,,,,,,,,,,,,,,0,3,3,1,1,,,,,,,,,,,,,,,,,,,,,,,,,,,,,,,,,,,,,,,,,
590086,001,2022-11-20_23h50.47.995,Info_measure_main_exp,2022.2.2,MacIntel,60.0024001,,,,,,,,,,,,,,,,,,masks/mask_005.jpg,,,,,,,,,,,,,,,,,,,,,,,,,,,,,,,,,,,,,,,,,,,,,,,,0,4,4,4,1,,,,,,,,,,,,,,,,,,,,,,,,,,,,,,,,,,,,,,,,,
590086,001,2022-11-20_23h50.47.995,Info_measure_main_exp,2022.2.2,MacIntel,60.0024001,,,,,,,,,,,,,,,,,,,,,,,,,,,,,,3,1.7495,1,,,,,,,,,,,,1,131,5,5,1,2154,present_patch/cong_131_5_a.jpg,absent_patch/patch0002154.jpg,,,,,,,,,,,,,,,,,,,,-0.069678786,-0.169513427,1,0,0,response5disk,32,-0.004435995,0.006995604,1,0,0,center_square,0,31,31,87,1,,,,,,,,,,,,,,,,,,,,,,,
590086,001,2022-11-20_23h50.47.995,Info_measure_main_exp,2022.2.2,MacIntel,60.0024001,,,,,,,,,,,,,,,,,,masks/mask_004.jpg,,,,,,,,,,,,,,,,,,,,,,,,,,,,,,,,,,,,,,,,,,,0,0,0,3,1,,,,,,,,,,,,,,,,,,,,,,,,,,,,,,,,,,,,,,,,,,,,,,
590086,001,2022-11-20_23h50.47.995,Info_measure_main_exp,2022.2.2,MacIntel,60.0024001,,,,,,,,,,,,,,,,,,masks/mask_005.jpg,,,,,,,,,,,,,,,,,,,,,,,,,,,,,,,,,,,,,,,,,,,0,1,1,4,1,,,,,,,,,,,,,,,,,,,,,,,,,,,,,,,,,,,,,,,,,,,,,,
590086,001,2022-11-20_23h50.47.995,Info_measure_main_exp,2022.2.2,MacIntel,60.0024001,,,,,,,,,,,,,,,,,,masks/mask_001.jpg,,,,,,,,,,,,,,,,,,,,,,,,,,,,,,,,,,,,,,,,,,,0,2,2,0,1,,,,,,,,,,,,,,,,,,,,,,,,,,,,,,,,,,,,,,,,,,,,,,
590086,001,2022-11-20_23h50.47.995,Info_measure_main_exp,2022.2.2,MacIntel,60.0024001,,,,,,,,,,,,,,,,,,masks/mask_002.jpg,,,,,,,,,,,,,,,,,,,,,,,,,,,,,,,,,,,,,,,,,,,0,3,3,1,1,,,,,,,,,,,,,,,,,,,,,,,,,,,,,,,,,,,,,,,,,,,,,,
590086,001,2022-11-20_23h50.47.995,Info_measure_main_exp,2022.2.2,MacIntel,60.0024001,,,,,,,,,,,,,,,,,,masks/mask_003.jpg,,,,,,,,,,,,,,,,,,,,,,,,,,,,,,,,,,,,,,,,,,,0,4,4,2,1,,,,,,,,,,,,,,,,,,,,,,,,,,,,,,,,,,,,,,,,,,,,,,
590086,001,2022-11-20_23h50.47.995,Info_measure_main_exp,2022.2.2,MacIntel,60.0024001,,,,,,,,,,,,,,,,,,masks/mask_002.jpg,,,,,,,,,,,,,,,,,,,,,,,,,,,,,,,,,,,,,,,,,,,,,,,,0,0,0,1,1,,,,,,,,,,,,,,,,,,,,,,,,,,,,,,,,,,,,,,,,,
590086,001,2022-11-20_23h50.47.995,Info_measure_main_exp,2022.2.2,MacIntel,60.0024001,,,,,,,,,,,,,,,,,,masks/mask_001.jpg,,,,,,,,,,,,,,,,,,,,,,,,,,,,,,,,,,,,,,,,,,,,,,,,0,1,1,0,1,,,,,,,,,,,,,,,,,,,,,,,,,,,,,,,,,,,,,,,,,
590086,001,2022-11-20_23h50.47.995,Info_measure_main_exp,2022.2.2,MacIntel,60.0024001,,,,,,,,,,,,,,,,,,masks/mask_003.jpg,,,,,,,,,,,,,,,,,,,,,,,,,,,,,,,,,,,,,,,,,,,,,,,,0,2,2,2,1,,,,,,,,,,,,,,,,,,,,,,,,,,,,,,,,,,,,,,,,,
590086,001,2022-11-20_23h50.47.995,Info_measure_main_exp,2022.2.2,MacIntel,60.0024001,,,,,,,,,,,,,,,,,,masks/mask_005.jpg,,,,,,,,,,,,,,,,,,,,,,,,,,,,,,,,,,,,,,,,,,,,,,,,0,3,3,4,1,,,,,,,,,,,,,,,,,,,,,,,,,,,,,,,,,,,,,,,,,
590086,001,2022-11-20_23h50.47.995,Info_measure_main_exp,2022.2.2,MacIntel,60.0024001,,,,,,,,,,,,,,,,,,masks/mask_004.jpg,,,,,,,,,,,,,,,,,,,,,,,,,,,,,,,,,,,,,,,,,,,,,,,,0,4,4,3,1,,,,,,,,,,,,,,,,,,,,,,,,,,,,,,,,,,,,,,,,,
590086,001,2022-11-20_23h50.47.995,Info_measure_main_exp,2022.2.2,MacIntel,60.0024001,,,,,,,,,,,,,,,,,,,,,,,,,,,,,,2,2.9992,1,,,,,,,,,,,,0,131,5,5,1974,2178,absent_patch/patch0001974.jpg,absent_patch/patch0002178.jpg,,,,,,,,,,,,,,,,,,,,-0.145788775,-0.096507644,1,0,0,response5disk,33,0.006020279,-8.9116E-05,1,0,0,center_square,0,32,32,44,1,,,,,,,,,,,,,,,,,,,,,,,
590086,001,2022-11-20_23h50.47.995,Info_measure_main_exp,2022.2.2,MacIntel,60.0024001,,,,,,,,,,,,,,,,,,masks/mask_003.jpg,,,,,,,,,,,,,,,,,,,,,,,,,,,,,,,,,,,,,,,,,,,0,0,0,2,1,,,,,,,,,,,,,,,,,,,,,,,,,,,,,,,,,,,,,,,,,,,,,,
590086,001,2022-11-20_23h50.47.995,Info_measure_main_exp,2022.2.2,MacIntel,60.0024001,,,,,,,,,,,,,,,,,,masks/mask_004.jpg,,,,,,,,,,,,,,,,,,,,,,,,,,,,,,,,,,,,,,,,,,,0,1,1,3,1,,,,,,,,,,,,,,,,,,,,,,,,,,,,,,,,,,,,,,,,,,,,,,
590086,001,2022-11-20_23h50.47.995,Info_measure_main_exp,2022.2.2,MacIntel,60.0024001,,,,,,,,,,,,,,,,,,masks/mask_001.jpg,,,,,,,,,,,,,,,,,,,,,,,,,,,,,,,,,,,,,,,,,,,0,2,2,0,1,,,,,,,,,,,,,,,,,,,,,,,,,,,,,,,,,,,,,,,,,,,,,,
590086,001,2022-11-20_23h50.47.995,Info_measure_main_exp,2022.2.2,MacIntel,60.0024001,,,,,,,,,,,,,,,,,,masks/mask_002.jpg,,,,,,,,,,,,,,,,,,,,,,,,,,,,,,,,,,,,,,,,,,,0,3,3,1,1,,,,,,,,,,,,,,,,,,,,,,,,,,,,,,,,,,,,,,,,,,,,,,
590086,001,2022-11-20_23h50.47.995,Info_measure_main_exp,2022.2.2,MacIntel,60.0024001,,,,,,,,,,,,,,,,,,masks/mask_005.jpg,,,,,,,,,,,,,,,,,,,,,,,,,,,,,,,,,,,,,,,,,,,0,4,4,4,1,,,,,,,,,,,,,,,,,,,,,,,,,,,,,,,,,,,,,,,,,,,,,,
590086,001,2022-11-20_23h50.47.995,Info_measure_main_exp,2022.2.2,MacIntel,60.0024001,,,,,,,,,,,,,,,,,,masks/mask_005.jpg,,,,,,,,,,,,,,,,,,,,,,,,,,,,,,,,,,,,,,,,,,,,,,,,0,0,0,4,1,,,,,,,,,,,,,,,,,,,,,,,,,,,,,,,,,,,,,,,,,
590086,001,2022-11-20_23h50.47.995,Info_measure_main_exp,2022.2.2,MacIntel,60.0024001,,,,,,,,,,,,,,,,,,masks/mask_004.jpg,,,,,,,,,,,,,,,,,,,,,,,,,,,,,,,,,,,,,,,,,,,,,,,,0,1,1,3,1,,,,,,,,,,,,,,,,,,,,,,,,,,,,,,,,,,,,,,,,,
590086,001,2022-11-20_23h50.47.995,Info_measure_main_exp,2022.2.2,MacIntel,60.0024001,,,,,,,,,,,,,,,,,,masks/mask_003.jpg,,,,,,,,,,,,,,,,,,,,,,,,,,,,,,,,,,,,,,,,,,,,,,,,0,2,2,2,1,,,,,,,,,,,,,,,,,,,,,,,,,,,,,,,,,,,,,,,,,
590086,001,2022-11-20_23h50.47.995,Info_measure_main_exp,2022.2.2,MacIntel,60.0024001,,,,,,,,,,,,,,,,,,masks/mask_002.jpg,,,,,,,,,,,,,,,,,,,,,,,,,,,,,,,,,,,,,,,,,,,,,,,,0,3,3,1,1,,,,,,,,,,,,,,,,,,,,,,,,,,,,,,,,,,,,,,,,,
590086,001,2022-11-20_23h50.47.995,Info_measure_main_exp,2022.2.2,MacIntel,60.0024001,,,,,,,,,,,,,,,,,,masks/mask_001.jpg,,,,,,,,,,,,,,,,,,,,,,,,,,,,,,,,,,,,,,,,,,,,,,,,0,4,4,0,1,,,,,,,,,,,,,,,,,,,,,,,,,,,,,,,,,,,,,,,,,
590086,001,2022-11-20_23h50.47.995,Info_measure_main_exp,2022.2.2,MacIntel,60.0024001,,,,,,,,,,,,,,,,,,,,,,,,,,,,,,7,1.5497,1,,,,,,,,,,,,0,131,5,5,2238,2298,absent_patch/patch0002238.jpg,absent_patch/patch0002298.jpg,,,,,,,,,,,,,,,,,,,,0.073535528,0.161522695,1,0,0,response1disk,34,-0.015105157,-0.004233009,1,0,0,center_square,0,33,33,51,1,,,,,,,,,,,,,,,,,,,,,,,
590086,001,2022-11-20_23h50.47.995,Info_measure_main_exp,2022.2.2,MacIntel,60.0024001,,,,,,,,,,,,,,,,,,masks/mask_005.jpg,,,,,,,,,,,,,,,,,,,,,,,,,,,,,,,,,,,,,,,,,,,0,0,0,4,1,,,,,,,,,,,,,,,,,,,,,,,,,,,,,,,,,,,,,,,,,,,,,,
590086,001,2022-11-20_23h50.47.995,Info_measure_main_exp,2022.2.2,MacIntel,60.0024001,,,,,,,,,,,,,,,,,,masks/mask_001.jpg,,,,,,,,,,,,,,,,,,,,,,,,,,,,,,,,,,,,,,,,,,,0,1,1,0,1,,,,,,,,,,,,,,,,,,,,,,,,,,,,,,,,,,,,,,,,,,,,,,
590086,001,2022-11-20_23h50.47.995,Info_measure_main_exp,2022.2.2,MacIntel,60.0024001,,,,,,,,,,,,,,,,,,masks/mask_003.jpg,,,,,,,,,,,,,,,,,,,,,,,,,,,,,,,,,,,,,,,,,,,0,2,2,2,1,,,,,,,,,,,,,,,,,,,,,,,,,,,,,,,,,,,,,,,,,,,,,,
590086,001,2022-11-20_23h50.47.995,Info_measure_main_exp,2022.2.2,MacIntel,60.0024001,,,,,,,,,,,,,,,,,,masks/mask_004.jpg,,,,,,,,,,,,,,,,,,,,,,,,,,,,,,,,,,,,,,,,,,,0,3,3,3,1,,,,,,,,,,,,,,,,,,,,,,,,,,,,,,,,,,,,,,,,,,,,,,
590086,001,2022-11-20_23h50.47.995,Info_measure_main_exp,2022.2.2,MacIntel,60.0024001,,,,,,,,,,,,,,,,,,masks/mask_002.jpg,,,,,,,,,,,,,,,,,,,,,,,,,,,,,,,,,,,,,,,,,,,0,4,4,1,1,,,,,,,,,,,,,,,,,,,,,,,,,,,,,,,,,,,,,,,,,,,,,,
