participant,session,date,expName,psychopyVersion,OS,frameRate,space_press_continue.keys,space_press_continue.rt,space_press_continue_2.keys,space_press_continue_2.rt,space_press_continue_3.keys,space_press_continue_3.rt,space_press_continue_4.keys,space_press_continue_4.rt,space_press_continue_5.keys,space_press_continue_5.rt,space_press_continue_6.keys,space_press_continue_6.rt,prac_mask_loop_1.thisRepN,prac_mask_loop_1.thisTrialN,prac_mask_loop_1.thisN,prac_mask_loop_1.thisIndex,prac_mask_loop_1.ran,mask_name,prac_mask_loop_2.thisRepN,prac_mask_loop_2.thisTrialN,prac_mask_loop_2.thisN,prac_mask_loop_2.thisIndex,prac_mask_loop_2.ran,mouse_2.x,mouse_2.y,mouse_2.leftButton,mouse_2.midButton,mouse_2.rightButton,mouse_2.clicked_name,similarity,response_time,Pass,mouse_12.x,mouse_12.y,mouse_12.leftButton,mouse_12.midButton,mouse_12.rightButton,mouse_12.clicked_name,prac_loop.thisRepN,prac_loop.thisTrialN,prac_loop.thisN,prac_loop.thisIndex,prac_loop.ran,Pair_type,Image_num,Patch_1_loc,Patch_2_loc,Patch_1_info,Patch_2_info,Patch_1_name,Patch_2_name,mouse_1.x,mouse_1.y,mouse_1.leftButton,mouse_1.midButton,mouse_1.rightButton,mouse_1.time,mouse_1.clicked_name,space_press_continue_7.keys,space_press_continue_7.rt,mask_loop.thisRepN,mask_loop.thisTrialN,mask_loop.thisN,mask_loop.thisIndex,mask_loop.ran,mask_loop_2.thisRepN,mask_loop_2.thisTrialN,mask_loop_2.thisN,mask_loop_2.thisIndex,mask_loop_2.ran,mouse.x,mouse.y,mouse.leftButton,mouse.midButton,mouse.rightButton,mouse.clicked_name,trialNumber,mouse_11.x,mouse_11.y,mouse_11.leftButton,mouse_11.midButton,mouse_11.rightButton,mouse_11.clicked_name,first_pass_loop.thisRepN,first_pass_loop.thisTrialN,first_pass_loop.thisN,first_pass_loop.thisIndex,first_pass_loop.ran,mask_loop_3.thisRepN,mask_loop_3.thisTrialN,mask_loop_3.thisN,mask_loop_3.thisIndex,mask_loop_3.ran,mask_loop_4.thisRepN,mask_loop_4.thisTrialN,mask_loop_4.thisN,mask_loop_4.thisIndex,mask_loop_4.ran,mouse_3.x,mouse_3.y,mouse_3.leftButton,mouse_3.midButton,mouse_3.rightButton,mouse_3.clicked_name,double_pass_loop.thisRepN,double_pass_loop.thisTrialN,double_pass_loop.thisN,double_pass_loop.thisIndex,double_pass_loop.ran,space_exit.keys,space_exit.rt
590516,001,2022-11-21_24h54.42.006,Info_measure_main_exp,2022.2.2,Win32,60.22645146,,,,,,,,,,,,,,,,,,,,,,,,,,,,,,,,,,,,,,,,,,,,,,,,,,,,,,,,,,,,,,,,,,,,,,,,,,,,,,,,,,,,,,,,,,,,,,,,,,,,,,,,,,,,,,,
590516,001,2022-11-21_24h54.42.006,Info_measure_main_exp,2022.2.2,Win32,60.22645146,,,,,,,,,,,,,,,,,,,,,,,,,,,,,,,,,,,,,,,,,,,,,,,,,,,,,,,,,,,,,,,,,,,,,,,,,,,,,,,,,,,,,,,,,,,,,,,,,,,,,,,,,,,,,,,
590516,001,2022-11-21_24h54.42.006,Info_measure_main_exp,2022.2.2,Win32,60.22645146,space,4.0931,,,,,,,,,,,,,,,,,,,,,,,,,,,,,,,,,,,,,,,,,,,,,,,,,,,,,,,,,,,,,,,,,,,,,,,,,,,,,,,,,,,,,,,,,,,,,,,,,,,,,,,,,,,,,
590516,001,2022-11-21_24h54.42.006,Info_measure_main_exp,2022.2.2,Win32,60.22645146,,,space,4.6139,,,,,,,,,,,,,,,,,,,,,,,,,,,,,,,,,,,,,,,,,,,,,,,,,,,,,,,,,,,,,,,,,,,,,,,,,,,,,,,,,,,,,,,,,,,,,,,,,,,,,,,,,,,
590516,001,2022-11-21_24h54.42.006,Info_measure_main_exp,2022.2.2,Win32,60.22645146,,,,,space,1.9145,,,,,,,,,,,,,,,,,,,,,,,,,,,,,,,,,,,,,,,,,,,,,,,,,,,,,,,,,,,,,,,,,,,,,,,,,,,,,,,,,,,,,,,,,,,,,,,,,,,,,,,,,
590516,001,2022-11-21_24h54.42.006,Info_measure_main_exp,2022.2.2,Win32,60.22645146,,,,,,,space,11.3405,,,,,,,,,,,,,,,,,,,,,,,,,,,,,,,,,,,,,,,,,,,,,,,,,,,,,,,,,,,,,,,,,,,,,,,,,,,,,,,,,,,,,,,,,,,,,,,,,,,,,,,
590516,001,2022-11-21_24h54.42.006,Info_measure_main_exp,2022.2.2,Win32,60.22645146,,,,,,,,,space,2.317,,,,,,,,,,,,,,,,,,,,,,,,,,,,,,,,,,,,,,,,,,,,,,,,,,,,,,,,,,,,,,,,,,,,,,,,,,,,,,,,,,,,,,,,,,,,,,,,,,,,,
590516,001,2022-11-21_24h54.42.006,Info_measure_main_exp,2022.2.2,Win32,60.22645146,,,,,,,,,,,space,2.7331,,,,,,,,,,,,,,,,,,,,,,,,,,,,,,,,,,,,,,,,,,,,,,,,,,,,,,,,,,,,,,,,,,,,,,,,,,,,,,,,,,,,,,,,,,,,,,,,,,,
590516,001,2022-11-21_24h54.42.006,Info_measure_main_exp,2022.2.2,Win32,60.22645146,,,,,,,,,,,,,0,0,0,4,1,masks/mask_005.jpg,,,,,,,,,,,,,,,,,,,,,,,,,,,,,,,,,,,,,,,,,,,,,,,,,,,,,,,,,,,,,,,,,,,,,,,,,,,,,,,,,,,,,,,,,,,,,
590516,001,2022-11-21_24h54.42.006,Info_measure_main_exp,2022.2.2,Win32,60.22645146,,,,,,,,,,,,,0,1,1,0,1,masks/mask_001.jpg,,,,,,,,,,,,,,,,,,,,,,,,,,,,,,,,,,,,,,,,,,,,,,,,,,,,,,,,,,,,,,,,,,,,,,,,,,,,,,,,,,,,,,,,,,,,,
590516,001,2022-11-21_24h54.42.006,Info_measure_main_exp,2022.2.2,Win32,60.22645146,,,,,,,,,,,,,0,2,2,1,1,masks/mask_002.jpg,,,,,,,,,,,,,,,,,,,,,,,,,,,,,,,,,,,,,,,,,,,,,,,,,,,,,,,,,,,,,,,,,,,,,,,,,,,,,,,,,,,,,,,,,,,,,
590516,001,2022-11-21_24h54.42.006,Info_measure_main_exp,2022.2.2,Win32,60.22645146,,,,,,,,,,,,,0,3,3,3,1,masks/mask_004.jpg,,,,,,,,,,,,,,,,,,,,,,,,,,,,,,,,,,,,,,,,,,,,,,,,,,,,,,,,,,,,,,,,,,,,,,,,,,,,,,,,,,,,,,,,,,,,,
590516,001,2022-11-21_24h54.42.006,Info_measure_main_exp,2022.2.2,Win32,60.22645146,,,,,,,,,,,,,0,4,4,2,1,masks/mask_003.jpg,,,,,,,,,,,,,,,,,,,,,,,,,,,,,,,,,,,,,,,,,,,,,,,,,,,,,,,,,,,,,,,,,,,,,,,,,,,,,,,,,,,,,,,,,,,,,
590516,001,2022-11-21_24h54.42.006,Info_measure_main_exp,2022.2.2,Win32,60.22645146,,,,,,,,,,,,,,,,,,masks/mask_005.jpg,0,0,0,4,1,,,,,,,,,,,,,,,,,,,,,,,,,,,,,,,,,,,,,,,,,,,,,,,,,,,,,,,,,,,,,,,,,,,,,,,,,,,,,,,,,,,,,,,,
590516,001,2022-11-21_24h54.42.006,Info_measure_main_exp,2022.2.2,Win32,60.22645146,,,,,,,,,,,,,,,,,,masks/mask_004.jpg,0,1,1,3,1,,,,,,,,,,,,,,,,,,,,,,,,,,,,,,,,,,,,,,,,,,,,,,,,,,,,,,,,,,,,,,,,,,,,,,,,,,,,,,,,,,,,,,,,
590516,001,2022-11-21_24h54.42.006,Info_measure_main_exp,2022.2.2,Win32,60.22645146,,,,,,,,,,,,,,,,,,masks/mask_002.jpg,0,2,2,1,1,,,,,,,,,,,,,,,,,,,,,,,,,,,,,,,,,,,,,,,,,,,,,,,,,,,,,,,,,,,,,,,,,,,,,,,,,,,,,,,,,,,,,,,,
590516,001,2022-11-21_24h54.42.006,Info_measure_main_exp,2022.2.2,Win32,60.22645146,,,,,,,,,,,,,,,,,,masks/mask_003.jpg,0,3,3,2,1,,,,,,,,,,,,,,,,,,,,,,,,,,,,,,,,,,,,,,,,,,,,,,,,,,,,,,,,,,,,,,,,,,,,,,,,,,,,,,,,,,,,,,,,
590516,001,2022-11-21_24h54.42.006,Info_measure_main_exp,2022.2.2,Win32,60.22645146,,,,,,,,,,,,,,,,,,masks/mask_001.jpg,0,4,4,0,1,,,,,,,,,,,,,,,,,,,,,,,,,,,,,,,,,,,,,,,,,,,,,,,,,,,,,,,,,,,,,,,,,,,,,,,,,,,,,,,,,,,,,,,,
590516,001,2022-11-21_24h54.42.006,Info_measure_main_exp,2022.2.2,Win32,60.22645146,,,,,,,,,,,,,,,,,,,,,,,,0.02962963,-0.09537037,1,0,0,response3disk,4,31.011,1,-0.000925926,0.007407407,1,0,0,center_square,0,0,0,0,1,0,131,5,5,2370,2406,prac_patch/patch0002370.jpg,prac_patch/patch0002406.jpg,,,,,,,,,,,,,,,,,,,,,,,,,,,,,,,,,,,,,,,,,,,,,,,,,,,,,,,,,,,,
590516,001,2022-11-21_24h54.42.006,Info_measure_main_exp,2022.2.2,Win32,60.22645146,,,,,,,,,,,,,0,0,0,2,1,masks/mask_003.jpg,,,,,,,,,,,,,,,,,,,,,,,,,,,,,,,,,,,,,,,,,,,,,,,,,,,,,,,,,,,,,,,,,,,,,,,,,,,,,,,,,,,,,,,,,,,,,
590516,001,2022-11-21_24h54.42.006,Info_measure_main_exp,2022.2.2,Win32,60.22645146,,,,,,,,,,,,,0,1,1,3,1,masks/mask_004.jpg,,,,,,,,,,,,,,,,,,,,,,,,,,,,,,,,,,,,,,,,,,,,,,,,,,,,,,,,,,,,,,,,,,,,,,,,,,,,,,,,,,,,,,,,,,,,,
590516,001,2022-11-21_24h54.42.006,Info_measure_main_exp,2022.2.2,Win32,60.22645146,,,,,,,,,,,,,0,2,2,4,1,masks/mask_005.jpg,,,,,,,,,,,,,,,,,,,,,,,,,,,,,,,,,,,,,,,,,,,,,,,,,,,,,,,,,,,,,,,,,,,,,,,,,,,,,,,,,,,,,,,,,,,,,
590516,001,2022-11-21_24h54.42.006,Info_measure_main_exp,2022.2.2,Win32,60.22645146,,,,,,,,,,,,,0,3,3,1,1,masks/mask_002.jpg,,,,,,,,,,,,,,,,,,,,,,,,,,,,,,,,,,,,,,,,,,,,,,,,,,,,,,,,,,,,,,,,,,,,,,,,,,,,,,,,,,,,,,,,,,,,,
590516,001,2022-11-21_24h54.42.006,Info_measure_main_exp,2022.2.2,Win32,60.22645146,,,,,,,,,,,,,0,4,4,0,1,masks/mask_001.jpg,,,,,,,,,,,,,,,,,,,,,,,,,,,,,,,,,,,,,,,,,,,,,,,,,,,,,,,,,,,,,,,,,,,,,,,,,,,,,,,,,,,,,,,,,,,,,
590516,001,2022-11-21_24h54.42.006,Info_measure_main_exp,2022.2.2,Win32,60.22645146,,,,,,,,,,,,,,,,,,masks/mask_002.jpg,0,0,0,1,1,,,,,,,,,,,,,,,,,,,,,,,,,,,,,,,,,,,,,,,,,,,,,,,,,,,,,,,,,,,,,,,,,,,,,,,,,,,,,,,,,,,,,,,,
590516,001,2022-11-21_24h54.42.006,Info_measure_main_exp,2022.2.2,Win32,60.22645146,,,,,,,,,,,,,,,,,,masks/mask_004.jpg,0,1,1,3,1,,,,,,,,,,,,,,,,,,,,,,,,,,,,,,,,,,,,,,,,,,,,,,,,,,,,,,,,,,,,,,,,,,,,,,,,,,,,,,,,,,,,,,,,
590516,001,2022-11-21_24h54.42.006,Info_measure_main_exp,2022.2.2,Win32,60.22645146,,,,,,,,,,,,,,,,,,masks/mask_001.jpg,0,2,2,0,1,,,,,,,,,,,,,,,,,,,,,,,,,,,,,,,,,,,,,,,,,,,,,,,,,,,,,,,,,,,,,,,,,,,,,,,,,,,,,,,,,,,,,,,,
590516,001,2022-11-21_24h54.42.006,Info_measure_main_exp,2022.2.2,Win32,60.22645146,,,,,,,,,,,,,,,,,,masks/mask_003.jpg,0,3,3,2,1,,,,,,,,,,,,,,,,,,,,,,,,,,,,,,,,,,,,,,,,,,,,,,,,,,,,,,,,,,,,,,,,,,,,,,,,,,,,,,,,,,,,,,,,
590516,001,2022-11-21_24h54.42.006,Info_measure_main_exp,2022.2.2,Win32,60.22645146,,,,,,,,,,,,,,,,,,masks/mask_005.jpg,0,4,4,4,1,,,,,,,,,,,,,,,,,,,,,,,,,,,,,,,,,,,,,,,,,,,,,,,,,,,,,,,,,,,,,,,,,,,,,,,,,,,,,,,,,,,,,,,,
590516,001,2022-11-21_24h54.42.006,Info_measure_main_exp,2022.2.2,Win32,60.22645146,,,,,,,,,,,,,,,,,,,,,,,,-0.080555556,-0.064814815,1,0,0,response5disk,2,39.8612,1,0.000925926,-0.001851852,1,0,0,center_square,0,1,1,1,1,0,131,5,5,2514,2490,prac_patch/patch0002514.jpg,prac_patch/patch0002490.jpg,,,,,,,,,,,,,,,,,,,,,,,,,,,,,,,,,,,,,,,,,,,,,,,,,,,,,,,,,,,,
590516,001,2022-11-21_24h54.42.006,Info_measure_main_exp,2022.2.2,Win32,60.22645146,,,,,,,,,,,,,0,0,0,4,1,masks/mask_005.jpg,,,,,,,,,,,,,,,,,,,,,,,,,,,,,,,,,,,,,,,,,,,,,,,,,,,,,,,,,,,,,,,,,,,,,,,,,,,,,,,,,,,,,,,,,,,,,
590516,001,2022-11-21_24h54.42.006,Info_measure_main_exp,2022.2.2,Win32,60.22645146,,,,,,,,,,,,,0,1,1,2,1,masks/mask_003.jpg,,,,,,,,,,,,,,,,,,,,,,,,,,,,,,,,,,,,,,,,,,,,,,,,,,,,,,,,,,,,,,,,,,,,,,,,,,,,,,,,,,,,,,,,,,,,,
590516,001,2022-11-21_24h54.42.006,Info_measure_main_exp,2022.2.2,Win32,60.22645146,,,,,,,,,,,,,0,2,2,1,1,masks/mask_002.jpg,,,,,,,,,,,,,,,,,,,,,,,,,,,,,,,,,,,,,,,,,,,,,,,,,,,,,,,,,,,,,,,,,,,,,,,,,,,,,,,,,,,,,,,,,,,,,
590516,001,2022-11-21_24h54.42.006,Info_measure_main_exp,2022.2.2,Win32,60.22645146,,,,,,,,,,,,,0,3,3,0,1,masks/mask_001.jpg,,,,,,,,,,,,,,,,,,,,,,,,,,,,,,,,,,,,,,,,,,,,,,,,,,,,,,,,,,,,,,,,,,,,,,,,,,,,,,,,,,,,,,,,,,,,,
590516,001,2022-11-21_24h54.42.006,Info_measure_main_exp,2022.2.2,Win32,60.22645146,,,,,,,,,,,,,0,4,4,3,1,masks/mask_004.jpg,,,,,,,,,,,,,,,,,,,,,,,,,,,,,,,,,,,,,,,,,,,,,,,,,,,,,,,,,,,,,,,,,,,,,,,,,,,,,,,,,,,,,,,,,,,,,
590516,001,2022-11-21_24h54.42.006,Info_measure_main_exp,2022.2.2,Win32,60.22645146,,,,,,,,,,,,,,,,,,masks/mask_003.jpg,0,0,0,2,1,,,,,,,,,,,,,,,,,,,,,,,,,,,,,,,,,,,,,,,,,,,,,,,,,,,,,,,,,,,,,,,,,,,,,,,,,,,,,,,,,,,,,,,,
590516,001,2022-11-21_24h54.42.006,Info_measure_main_exp,2022.2.2,Win32,60.22645146,,,,,,,,,,,,,,,,,,masks/mask_005.jpg,0,1,1,4,1,,,,,,,,,,,,,,,,,,,,,,,,,,,,,,,,,,,,,,,,,,,,,,,,,,,,,,,,,,,,,,,,,,,,,,,,,,,,,,,,,,,,,,,,
590516,001,2022-11-21_24h54.42.006,Info_measure_main_exp,2022.2.2,Win32,60.22645146,,,,,,,,,,,,,,,,,,masks/mask_002.jpg,0,2,2,1,1,,,,,,,,,,,,,,,,,,,,,,,,,,,,,,,,,,,,,,,,,,,,,,,,,,,,,,,,,,,,,,,,,,,,,,,,,,,,,,,,,,,,,,,,
590516,001,2022-11-21_24h54.42.006,Info_measure_main_exp,2022.2.2,Win32,60.22645146,,,,,,,,,,,,,,,,,,masks/mask_004.jpg,0,3,3,3,1,,,,,,,,,,,,,,,,,,,,,,,,,,,,,,,,,,,,,,,,,,,,,,,,,,,,,,,,,,,,,,,,,,,,,,,,,,,,,,,,,,,,,,,,
590516,001,2022-11-21_24h54.42.006,Info_measure_main_exp,2022.2.2,Win32,60.22645146,,,,,,,,,,,,,,,,,,masks/mask_001.jpg,0,4,4,0,1,,,,,,,,,,,,,,,,,,,,,,,,,,,,,,,,,,,,,,,,,,,,,,,,,,,,,,,,,,,,,,,,,,,,,,,,,,,,,,,,,,,,,,,,
590516,001,2022-11-21_24h54.42.006,Info_measure_main_exp,2022.2.2,Win32,60.22645146,,,,,,,,,,,,,,,,,,,,,,,,0.046296296,0.121296296,1,0,0,response1disk,7,47.3277,1,-0.011111111,-0.007407407,1,0,0,center_square,0,2,2,2,1,0,131,5,5,2526,2526,prac_patch/patch0002526.jpg,prac_patch/patch0002526.jpg,,,,,,,,,,,,,,,,,,,,,,,,,,,,,,,,,,,,,,,,,,,,,,,,,,,,,,,,,,,,
590516,001,2022-11-21_24h54.42.006,Info_measure_main_exp,2022.2.2,Win32,60.22645146,,,,,,,,,,,,,,,,,,,,,,,,,,,,,,,,,,,,,,,,,,,,,,,,,,,,,,,,,,,space,1.6638,,,,,,,,,,,,,,,,,,,,,,,,,,,,,,,,,,,,,,,,,,,,,,,,,,,
590516,001,2022-11-21_24h54.42.006,Info_measure_main_exp,2022.2.2,Win32,60.22645146,,,,,,,,,,,,,,,,,,masks/mask_005.jpg,,,,,,,,,,,,,,,,,,,,,,,,,,,,,,,,,,,,,,,,,,,0,0,0,4,1,,,,,,,,,,,,,,,,,,,,,,,,,,,,,,,,,,,,,,,,,,,,,,
590516,001,2022-11-21_24h54.42.006,Info_measure_main_exp,2022.2.2,Win32,60.22645146,,,,,,,,,,,,,,,,,,masks/mask_002.jpg,,,,,,,,,,,,,,,,,,,,,,,,,,,,,,,,,,,,,,,,,,,0,1,1,1,1,,,,,,,,,,,,,,,,,,,,,,,,,,,,,,,,,,,,,,,,,,,,,,
590516,001,2022-11-21_24h54.42.006,Info_measure_main_exp,2022.2.2,Win32,60.22645146,,,,,,,,,,,,,,,,,,masks/mask_001.jpg,,,,,,,,,,,,,,,,,,,,,,,,,,,,,,,,,,,,,,,,,,,0,2,2,0,1,,,,,,,,,,,,,,,,,,,,,,,,,,,,,,,,,,,,,,,,,,,,,,
590516,001,2022-11-21_24h54.42.006,Info_measure_main_exp,2022.2.2,Win32,60.22645146,,,,,,,,,,,,,,,,,,masks/mask_003.jpg,,,,,,,,,,,,,,,,,,,,,,,,,,,,,,,,,,,,,,,,,,,0,3,3,2,1,,,,,,,,,,,,,,,,,,,,,,,,,,,,,,,,,,,,,,,,,,,,,,
590516,001,2022-11-21_24h54.42.006,Info_measure_main_exp,2022.2.2,Win32,60.22645146,,,,,,,,,,,,,,,,,,masks/mask_004.jpg,,,,,,,,,,,,,,,,,,,,,,,,,,,,,,,,,,,,,,,,,,,0,4,4,3,1,,,,,,,,,,,,,,,,,,,,,,,,,,,,,,,,,,,,,,,,,,,,,,
590516,001,2022-11-21_24h54.42.006,Info_measure_main_exp,2022.2.2,Win32,60.22645146,,,,,,,,,,,,,,,,,,masks/mask_005.jpg,,,,,,,,,,,,,,,,,,,,,,,,,,,,,,,,,,,,,,,,,,,,,,,,0,0,0,4,1,,,,,,,,,,,,,,,,,,,,,,,,,,,,,,,,,,,,,,,,,
590516,001,2022-11-21_24h54.42.006,Info_measure_main_exp,2022.2.2,Win32,60.22645146,,,,,,,,,,,,,,,,,,masks/mask_004.jpg,,,,,,,,,,,,,,,,,,,,,,,,,,,,,,,,,,,,,,,,,,,,,,,,0,1,1,3,1,,,,,,,,,,,,,,,,,,,,,,,,,,,,,,,,,,,,,,,,,
590516,001,2022-11-21_24h54.42.006,Info_measure_main_exp,2022.2.2,Win32,60.22645146,,,,,,,,,,,,,,,,,,masks/mask_001.jpg,,,,,,,,,,,,,,,,,,,,,,,,,,,,,,,,,,,,,,,,,,,,,,,,0,2,2,0,1,,,,,,,,,,,,,,,,,,,,,,,,,,,,,,,,,,,,,,,,,
590516,001,2022-11-21_24h54.42.006,Info_measure_main_exp,2022.2.2,Win32,60.22645146,,,,,,,,,,,,,,,,,,masks/mask_003.jpg,,,,,,,,,,,,,,,,,,,,,,,,,,,,,,,,,,,,,,,,,,,,,,,,0,3,3,2,1,,,,,,,,,,,,,,,,,,,,,,,,,,,,,,,,,,,,,,,,,
590516,001,2022-11-21_24h54.42.006,Info_measure_main_exp,2022.2.2,Win32,60.22645146,,,,,,,,,,,,,,,,,,masks/mask_002.jpg,,,,,,,,,,,,,,,,,,,,,,,,,,,,,,,,,,,,,,,,,,,,,,,,0,4,4,1,1,,,,,,,,,,,,,,,,,,,,,,,,,,,,,,,,,,,,,,,,,
590516,001,2022-11-21_24h54.42.006,Info_measure_main_exp,2022.2.2,Win32,60.22645146,,,,,,,,,,,,,,,,,,,,,,,,,,,,,,0,0.8158,1,,,,,,,,,,,,0,131,5,5,2214,2214,absent_patch/patch0002214.jpg,absent_patch/patch0002214.jpg,,,,,,,,,,,,,,,,,,,,-0.037037037,0.124074074,1,0,0,response7disk,1,0.005555556,-0.000925926,1,0,0,center_square,0,0,0,115,1,,,,,,,,,,,,,,,,,,,,,,,
590516,001,2022-11-21_24h54.42.006,Info_measure_main_exp,2022.2.2,Win32,60.22645146,,,,,,,,,,,,,,,,,,masks/mask_005.jpg,,,,,,,,,,,,,,,,,,,,,,,,,,,,,,,,,,,,,,,,,,,0,0,0,4,1,,,,,,,,,,,,,,,,,,,,,,,,,,,,,,,,,,,,,,,,,,,,,,
590516,001,2022-11-21_24h54.42.006,Info_measure_main_exp,2022.2.2,Win32,60.22645146,,,,,,,,,,,,,,,,,,masks/mask_003.jpg,,,,,,,,,,,,,,,,,,,,,,,,,,,,,,,,,,,,,,,,,,,0,1,1,2,1,,,,,,,,,,,,,,,,,,,,,,,,,,,,,,,,,,,,,,,,,,,,,,
590516,001,2022-11-21_24h54.42.006,Info_measure_main_exp,2022.2.2,Win32,60.22645146,,,,,,,,,,,,,,,,,,masks/mask_001.jpg,,,,,,,,,,,,,,,,,,,,,,,,,,,,,,,,,,,,,,,,,,,0,2,2,0,1,,,,,,,,,,,,,,,,,,,,,,,,,,,,,,,,,,,,,,,,,,,,,,
590516,001,2022-11-21_24h54.42.006,Info_measure_main_exp,2022.2.2,Win32,60.22645146,,,,,,,,,,,,,,,,,,masks/mask_004.jpg,,,,,,,,,,,,,,,,,,,,,,,,,,,,,,,,,,,,,,,,,,,0,3,3,3,1,,,,,,,,,,,,,,,,,,,,,,,,,,,,,,,,,,,,,,,,,,,,,,
590516,001,2022-11-21_24h54.42.006,Info_measure_main_exp,2022.2.2,Win32,60.22645146,,,,,,,,,,,,,,,,,,masks/mask_002.jpg,,,,,,,,,,,,,,,,,,,,,,,,,,,,,,,,,,,,,,,,,,,0,4,4,1,1,,,,,,,,,,,,,,,,,,,,,,,,,,,,,,,,,,,,,,,,,,,,,,
590516,001,2022-11-21_24h54.42.006,Info_measure_main_exp,2022.2.2,Win32,60.22645146,,,,,,,,,,,,,,,,,,masks/mask_002.jpg,,,,,,,,,,,,,,,,,,,,,,,,,,,,,,,,,,,,,,,,,,,,,,,,0,0,0,1,1,,,,,,,,,,,,,,,,,,,,,,,,,,,,,,,,,,,,,,,,,
590516,001,2022-11-21_24h54.42.006,Info_measure_main_exp,2022.2.2,Win32,60.22645146,,,,,,,,,,,,,,,,,,masks/mask_005.jpg,,,,,,,,,,,,,,,,,,,,,,,,,,,,,,,,,,,,,,,,,,,,,,,,0,1,1,4,1,,,,,,,,,,,,,,,,,,,,,,,,,,,,,,,,,,,,,,,,,
590516,001,2022-11-21_24h54.42.006,Info_measure_main_exp,2022.2.2,Win32,60.22645146,,,,,,,,,,,,,,,,,,masks/mask_004.jpg,,,,,,,,,,,,,,,,,,,,,,,,,,,,,,,,,,,,,,,,,,,,,,,,0,2,2,3,1,,,,,,,,,,,,,,,,,,,,,,,,,,,,,,,,,,,,,,,,,
590516,001,2022-11-21_24h54.42.006,Info_measure_main_exp,2022.2.2,Win32,60.22645146,,,,,,,,,,,,,,,,,,masks/mask_001.jpg,,,,,,,,,,,,,,,,,,,,,,,,,,,,,,,,,,,,,,,,,,,,,,,,0,3,3,0,1,,,,,,,,,,,,,,,,,,,,,,,,,,,,,,,,,,,,,,,,,
590516,001,2022-11-21_24h54.42.006,Info_measure_main_exp,2022.2.2,Win32,60.22645146,,,,,,,,,,,,,,,,,,masks/mask_003.jpg,,,,,,,,,,,,,,,,,,,,,,,,,,,,,,,,,,,,,,,,,,,,,,,,0,4,4,2,1,,,,,,,,,,,,,,,,,,,,,,,,,,,,,,,,,,,,,,,,,
590516,001,2022-11-21_24h54.42.006,Info_measure_main_exp,2022.2.2,Win32,60.22645146,,,,,,,,,,,,,,,,,,,,,,,,,,,,,,7,1.0828,1,,,,,,,,,,,,0,131,5,5,2082,2154,absent_patch/patch0002082.jpg,absent_patch/patch0002154.jpg,,,,,,,,,,,,,,,,,,,,0.037037037,0.063888889,1,0,0,response1disk,2,0,-0.00462963,1,0,0,center_square,0,1,1,33,1,,,,,,,,,,,,,,,,,,,,,,,
590516,001,2022-11-21_24h54.42.006,Info_measure_main_exp,2022.2.2,Win32,60.22645146,,,,,,,,,,,,,,,,,,masks/mask_001.jpg,,,,,,,,,,,,,,,,,,,,,,,,,,,,,,,,,,,,,,,,,,,0,0,0,0,1,,,,,,,,,,,,,,,,,,,,,,,,,,,,,,,,,,,,,,,,,,,,,,
590516,001,2022-11-21_24h54.42.006,Info_measure_main_exp,2022.2.2,Win32,60.22645146,,,,,,,,,,,,,,,,,,masks/mask_004.jpg,,,,,,,,,,,,,,,,,,,,,,,,,,,,,,,,,,,,,,,,,,,0,1,1,3,1,,,,,,,,,,,,,,,,,,,,,,,,,,,,,,,,,,,,,,,,,,,,,,
590516,001,2022-11-21_24h54.42.006,Info_measure_main_exp,2022.2.2,Win32,60.22645146,,,,,,,,,,,,,,,,,,masks/mask_002.jpg,,,,,,,,,,,,,,,,,,,,,,,,,,,,,,,,,,,,,,,,,,,0,2,2,1,1,,,,,,,,,,,,,,,,,,,,,,,,,,,,,,,,,,,,,,,,,,,,,,
590516,001,2022-11-21_24h54.42.006,Info_measure_main_exp,2022.2.2,Win32,60.22645146,,,,,,,,,,,,,,,,,,masks/mask_005.jpg,,,,,,,,,,,,,,,,,,,,,,,,,,,,,,,,,,,,,,,,,,,0,3,3,4,1,,,,,,,,,,,,,,,,,,,,,,,,,,,,,,,,,,,,,,,,,,,,,,
590516,001,2022-11-21_24h54.42.006,Info_measure_main_exp,2022.2.2,Win32,60.22645146,,,,,,,,,,,,,,,,,,masks/mask_003.jpg,,,,,,,,,,,,,,,,,,,,,,,,,,,,,,,,,,,,,,,,,,,0,4,4,2,1,,,,,,,,,,,,,,,,,,,,,,,,,,,,,,,,,,,,,,,,,,,,,,
590516,001,2022-11-21_24h54.42.006,Info_measure_main_exp,2022.2.2,Win32,60.22645146,,,,,,,,,,,,,,,,,,masks/mask_002.jpg,,,,,,,,,,,,,,,,,,,,,,,,,,,,,,,,,,,,,,,,,,,,,,,,0,0,0,1,1,,,,,,,,,,,,,,,,,,,,,,,,,,,,,,,,,,,,,,,,,
590516,001,2022-11-21_24h54.42.006,Info_measure_main_exp,2022.2.2,Win32,60.22645146,,,,,,,,,,,,,,,,,,masks/mask_004.jpg,,,,,,,,,,,,,,,,,,,,,,,,,,,,,,,,,,,,,,,,,,,,,,,,0,1,1,3,1,,,,,,,,,,,,,,,,,,,,,,,,,,,,,,,,,,,,,,,,,
590516,001,2022-11-21_24h54.42.006,Info_measure_main_exp,2022.2.2,Win32,60.22645146,,,,,,,,,,,,,,,,,,masks/mask_005.jpg,,,,,,,,,,,,,,,,,,,,,,,,,,,,,,,,,,,,,,,,,,,,,,,,0,2,2,4,1,,,,,,,,,,,,,,,,,,,,,,,,,,,,,,,,,,,,,,,,,
590516,001,2022-11-21_24h54.42.006,Info_measure_main_exp,2022.2.2,Win32,60.22645146,,,,,,,,,,,,,,,,,,masks/mask_003.jpg,,,,,,,,,,,,,,,,,,,,,,,,,,,,,,,,,,,,,,,,,,,,,,,,0,3,3,2,1,,,,,,,,,,,,,,,,,,,,,,,,,,,,,,,,,,,,,,,,,
590516,001,2022-11-21_24h54.42.006,Info_measure_main_exp,2022.2.2,Win32,60.22645146,,,,,,,,,,,,,,,,,,masks/mask_001.jpg,,,,,,,,,,,,,,,,,,,,,,,,,,,,,,,,,,,,,,,,,,,,,,,,0,4,4,0,1,,,,,,,,,,,,,,,,,,,,,,,,,,,,,,,,,,,,,,,,,
590516,001,2022-11-21_24h54.42.006,Info_measure_main_exp,2022.2.2,Win32,60.22645146,,,,,,,,,,,,,,,,,,,,,,,,,,,,,,7,1.7994,1,,,,,,,,,,,,1,131,5,5,2082,1,absent_patch/patch0002082.jpg,present_patch/cong_131_5_a.jpg,,,,,,,,,,,,,,,,,,,,0.046296296,0.111111111,1,0,0,response1disk,3,0.00462963,0.009259259,1,0,0,center_square,0,2,2,65,1,,,,,,,,,,,,,,,,,,,,,,,
590516,001,2022-11-21_24h54.42.006,Info_measure_main_exp,2022.2.2,Win32,60.22645146,,,,,,,,,,,,,,,,,,masks/mask_001.jpg,,,,,,,,,,,,,,,,,,,,,,,,,,,,,,,,,,,,,,,,,,,0,0,0,0,1,,,,,,,,,,,,,,,,,,,,,,,,,,,,,,,,,,,,,,,,,,,,,,
590516,001,2022-11-21_24h54.42.006,Info_measure_main_exp,2022.2.2,Win32,60.22645146,,,,,,,,,,,,,,,,,,masks/mask_005.jpg,,,,,,,,,,,,,,,,,,,,,,,,,,,,,,,,,,,,,,,,,,,0,1,1,4,1,,,,,,,,,,,,,,,,,,,,,,,,,,,,,,,,,,,,,,,,,,,,,,
590516,001,2022-11-21_24h54.42.006,Info_measure_main_exp,2022.2.2,Win32,60.22645146,,,,,,,,,,,,,,,,,,masks/mask_003.jpg,,,,,,,,,,,,,,,,,,,,,,,,,,,,,,,,,,,,,,,,,,,0,2,2,2,1,,,,,,,,,,,,,,,,,,,,,,,,,,,,,,,,,,,,,,,,,,,,,,
590516,001,2022-11-21_24h54.42.006,Info_measure_main_exp,2022.2.2,Win32,60.22645146,,,,,,,,,,,,,,,,,,masks/mask_002.jpg,,,,,,,,,,,,,,,,,,,,,,,,,,,,,,,,,,,,,,,,,,,0,3,3,1,1,,,,,,,,,,,,,,,,,,,,,,,,,,,,,,,,,,,,,,,,,,,,,,
590516,001,2022-11-21_24h54.42.006,Info_measure_main_exp,2022.2.2,Win32,60.22645146,,,,,,,,,,,,,,,,,,masks/mask_004.jpg,,,,,,,,,,,,,,,,,,,,,,,,,,,,,,,,,,,,,,,,,,,0,4,4,3,1,,,,,,,,,,,,,,,,,,,,,,,,,,,,,,,,,,,,,,,,,,,,,,
590516,001,2022-11-21_24h54.42.006,Info_measure_main_exp,2022.2.2,Win32,60.22645146,,,,,,,,,,,,,,,,,,masks/mask_001.jpg,,,,,,,,,,,,,,,,,,,,,,,,,,,,,,,,,,,,,,,,,,,,,,,,0,0,0,0,1,,,,,,,,,,,,,,,,,,,,,,,,,,,,,,,,,,,,,,,,,
590516,001,2022-11-21_24h54.42.006,Info_measure_main_exp,2022.2.2,Win32,60.22645146,,,,,,,,,,,,,,,,,,masks/mask_005.jpg,,,,,,,,,,,,,,,,,,,,,,,,,,,,,,,,,,,,,,,,,,,,,,,,0,1,1,4,1,,,,,,,,,,,,,,,,,,,,,,,,,,,,,,,,,,,,,,,,,
590516,001,2022-11-21_24h54.42.006,Info_measure_main_exp,2022.2.2,Win32,60.22645146,,,,,,,,,,,,,,,,,,masks/mask_002.jpg,,,,,,,,,,,,,,,,,,,,,,,,,,,,,,,,,,,,,,,,,,,,,,,,0,2,2,1,1,,,,,,,,,,,,,,,,,,,,,,,,,,,,,,,,,,,,,,,,,
590516,001,2022-11-21_24h54.42.006,Info_measure_main_exp,2022.2.2,Win32,60.22645146,,,,,,,,,,,,,,,,,,masks/mask_004.jpg,,,,,,,,,,,,,,,,,,,,,,,,,,,,,,,,,,,,,,,,,,,,,,,,0,3,3,3,1,,,,,,,,,,,,,,,,,,,,,,,,,,,,,,,,,,,,,,,,,
590516,001,2022-11-21_24h54.42.006,Info_measure_main_exp,2022.2.2,Win32,60.22645146,,,,,,,,,,,,,,,,,,masks/mask_003.jpg,,,,,,,,,,,,,,,,,,,,,,,,,,,,,,,,,,,,,,,,,,,,,,,,0,4,4,2,1,,,,,,,,,,,,,,,,,,,,,,,,,,,,,,,,,,,,,,,,,
590516,001,2022-11-21_24h54.42.006,Info_measure_main_exp,2022.2.2,Win32,60.22645146,,,,,,,,,,,,,,,,,,,,,,,,,,,,,,3,1.5498,1,,,,,,,,,,,,0,131,5,5,2154,2214,absent_patch/patch0002154.jpg,absent_patch/patch0002214.jpg,,,,,,,,,,,,,,,,,,,,-0.02962963,-0.090740741,1,0,0,response5disk,4,0.002777778,0.008333333,1,0,0,center_square,0,3,3,67,1,,,,,,,,,,,,,,,,,,,,,,,
590516,001,2022-11-21_24h54.42.006,Info_measure_main_exp,2022.2.2,Win32,60.22645146,,,,,,,,,,,,,,,,,,masks/mask_002.jpg,,,,,,,,,,,,,,,,,,,,,,,,,,,,,,,,,,,,,,,,,,,0,0,0,1,1,,,,,,,,,,,,,,,,,,,,,,,,,,,,,,,,,,,,,,,,,,,,,,
590516,001,2022-11-21_24h54.42.006,Info_measure_main_exp,2022.2.2,Win32,60.22645146,,,,,,,,,,,,,,,,,,masks/mask_003.jpg,,,,,,,,,,,,,,,,,,,,,,,,,,,,,,,,,,,,,,,,,,,0,1,1,2,1,,,,,,,,,,,,,,,,,,,,,,,,,,,,,,,,,,,,,,,,,,,,,,
590516,001,2022-11-21_24h54.42.006,Info_measure_main_exp,2022.2.2,Win32,60.22645146,,,,,,,,,,,,,,,,,,masks/mask_004.jpg,,,,,,,,,,,,,,,,,,,,,,,,,,,,,,,,,,,,,,,,,,,0,2,2,3,1,,,,,,,,,,,,,,,,,,,,,,,,,,,,,,,,,,,,,,,,,,,,,,
590516,001,2022-11-21_24h54.42.006,Info_measure_main_exp,2022.2.2,Win32,60.22645146,,,,,,,,,,,,,,,,,,masks/mask_005.jpg,,,,,,,,,,,,,,,,,,,,,,,,,,,,,,,,,,,,,,,,,,,0,3,3,4,1,,,,,,,,,,,,,,,,,,,,,,,,,,,,,,,,,,,,,,,,,,,,,,
590516,001,2022-11-21_24h54.42.006,Info_measure_main_exp,2022.2.2,Win32,60.22645146,,,,,,,,,,,,,,,,,,masks/mask_001.jpg,,,,,,,,,,,,,,,,,,,,,,,,,,,,,,,,,,,,,,,,,,,0,4,4,0,1,,,,,,,,,,,,,,,,,,,,,,,,,,,,,,,,,,,,,,,,,,,,,,
590516,001,2022-11-21_24h54.42.006,Info_measure_main_exp,2022.2.2,Win32,60.22645146,,,,,,,,,,,,,,,,,,masks/mask_001.jpg,,,,,,,,,,,,,,,,,,,,,,,,,,,,,,,,,,,,,,,,,,,,,,,,0,0,0,0,1,,,,,,,,,,,,,,,,,,,,,,,,,,,,,,,,,,,,,,,,,
590516,001,2022-11-21_24h54.42.006,Info_measure_main_exp,2022.2.2,Win32,60.22645146,,,,,,,,,,,,,,,,,,masks/mask_002.jpg,,,,,,,,,,,,,,,,,,,,,,,,,,,,,,,,,,,,,,,,,,,,,,,,0,1,1,1,1,,,,,,,,,,,,,,,,,,,,,,,,,,,,,,,,,,,,,,,,,
590516,001,2022-11-21_24h54.42.006,Info_measure_main_exp,2022.2.2,Win32,60.22645146,,,,,,,,,,,,,,,,,,masks/mask_005.jpg,,,,,,,,,,,,,,,,,,,,,,,,,,,,,,,,,,,,,,,,,,,,,,,,0,2,2,4,1,,,,,,,,,,,,,,,,,,,,,,,,,,,,,,,,,,,,,,,,,
590516,001,2022-11-21_24h54.42.006,Info_measure_main_exp,2022.2.2,Win32,60.22645146,,,,,,,,,,,,,,,,,,masks/mask_004.jpg,,,,,,,,,,,,,,,,,,,,,,,,,,,,,,,,,,,,,,,,,,,,,,,,0,3,3,3,1,,,,,,,,,,,,,,,,,,,,,,,,,,,,,,,,,,,,,,,,,
590516,001,2022-11-21_24h54.42.006,Info_measure_main_exp,2022.2.2,Win32,60.22645146,,,,,,,,,,,,,,,,,,masks/mask_003.jpg,,,,,,,,,,,,,,,,,,,,,,,,,,,,,,,,,,,,,,,,,,,,,,,,0,4,4,2,1,,,,,,,,,,,,,,,,,,,,,,,,,,,,,,,,,,,,,,,,,
590516,001,2022-11-21_24h54.42.006,Info_measure_main_exp,2022.2.2,Win32,60.22645146,,,,,,,,,,,,,,,,,,,,,,,,,,,,,,7,1.1998,1,,,,,,,,,,,,0,131,5,5,2238,2166,absent_patch/patch0002238.jpg,absent_patch/patch0002166.jpg,,,,,,,,,,,,,,,,,,,,0.02962963,0.05,1,0,0,response1disk,5,0.009259259,0.00462963,1,0,0,center_square,0,4,4,118,1,,,,,,,,,,,,,,,,,,,,,,,
590516,001,2022-11-21_24h54.42.006,Info_measure_main_exp,2022.2.2,Win32,60.22645146,,,,,,,,,,,,,,,,,,masks/mask_001.jpg,,,,,,,,,,,,,,,,,,,,,,,,,,,,,,,,,,,,,,,,,,,0,0,0,0,1,,,,,,,,,,,,,,,,,,,,,,,,,,,,,,,,,,,,,,,,,,,,,,
590516,001,2022-11-21_24h54.42.006,Info_measure_main_exp,2022.2.2,Win32,60.22645146,,,,,,,,,,,,,,,,,,masks/mask_005.jpg,,,,,,,,,,,,,,,,,,,,,,,,,,,,,,,,,,,,,,,,,,,0,1,1,4,1,,,,,,,,,,,,,,,,,,,,,,,,,,,,,,,,,,,,,,,,,,,,,,
590516,001,2022-11-21_24h54.42.006,Info_measure_main_exp,2022.2.2,Win32,60.22645146,,,,,,,,,,,,,,,,,,masks/mask_002.jpg,,,,,,,,,,,,,,,,,,,,,,,,,,,,,,,,,,,,,,,,,,,0,2,2,1,1,,,,,,,,,,,,,,,,,,,,,,,,,,,,,,,,,,,,,,,,,,,,,,
590516,001,2022-11-21_24h54.42.006,Info_measure_main_exp,2022.2.2,Win32,60.22645146,,,,,,,,,,,,,,,,,,masks/mask_003.jpg,,,,,,,,,,,,,,,,,,,,,,,,,,,,,,,,,,,,,,,,,,,0,3,3,2,1,,,,,,,,,,,,,,,,,,,,,,,,,,,,,,,,,,,,,,,,,,,,,,
590516,001,2022-11-21_24h54.42.006,Info_measure_main_exp,2022.2.2,Win32,60.22645146,,,,,,,,,,,,,,,,,,masks/mask_004.jpg,,,,,,,,,,,,,,,,,,,,,,,,,,,,,,,,,,,,,,,,,,,0,4,4,3,1,,,,,,,,,,,,,,,,,,,,,,,,,,,,,,,,,,,,,,,,,,,,,,
590516,001,2022-11-21_24h54.42.006,Info_measure_main_exp,2022.2.2,Win32,60.22645146,,,,,,,,,,,,,,,,,,masks/mask_003.jpg,,,,,,,,,,,,,,,,,,,,,,,,,,,,,,,,,,,,,,,,,,,,,,,,0,0,0,2,1,,,,,,,,,,,,,,,,,,,,,,,,,,,,,,,,,,,,,,,,,
590516,001,2022-11-21_24h54.42.006,Info_measure_main_exp,2022.2.2,Win32,60.22645146,,,,,,,,,,,,,,,,,,masks/mask_001.jpg,,,,,,,,,,,,,,,,,,,,,,,,,,,,,,,,,,,,,,,,,,,,,,,,0,1,1,0,1,,,,,,,,,,,,,,,,,,,,,,,,,,,,,,,,,,,,,,,,,
590516,001,2022-11-21_24h54.42.006,Info_measure_main_exp,2022.2.2,Win32,60.22645146,,,,,,,,,,,,,,,,,,masks/mask_005.jpg,,,,,,,,,,,,,,,,,,,,,,,,,,,,,,,,,,,,,,,,,,,,,,,,0,2,2,4,1,,,,,,,,,,,,,,,,,,,,,,,,,,,,,,,,,,,,,,,,,
590516,001,2022-11-21_24h54.42.006,Info_measure_main_exp,2022.2.2,Win32,60.22645146,,,,,,,,,,,,,,,,,,masks/mask_002.jpg,,,,,,,,,,,,,,,,,,,,,,,,,,,,,,,,,,,,,,,,,,,,,,,,0,3,3,1,1,,,,,,,,,,,,,,,,,,,,,,,,,,,,,,,,,,,,,,,,,
590516,001,2022-11-21_24h54.42.006,Info_measure_main_exp,2022.2.2,Win32,60.22645146,,,,,,,,,,,,,,,,,,masks/mask_004.jpg,,,,,,,,,,,,,,,,,,,,,,,,,,,,,,,,,,,,,,,,,,,,,,,,0,4,4,3,1,,,,,,,,,,,,,,,,,,,,,,,,,,,,,,,,,,,,,,,,,
590516,001,2022-11-21_24h54.42.006,Info_measure_main_exp,2022.2.2,Win32,60.22645146,,,,,,,,,,,,,,,,,,,,,,,,,,,,,,7,1.4329,1,,,,,,,,,,,,0,131,5,5,2274,2250,absent_patch/patch0002274.jpg,absent_patch/patch0002250.jpg,,,,,,,,,,,,,,,,,,,,0.041666667,0.119444444,1,0,0,response1disk,6,-0.008333333,0.005555556,1,0,0,center_square,0,5,5,28,1,,,,,,,,,,,,,,,,,,,,,,,
590516,001,2022-11-21_24h54.42.006,Info_measure_main_exp,2022.2.2,Win32,60.22645146,,,,,,,,,,,,,,,,,,masks/mask_005.jpg,,,,,,,,,,,,,,,,,,,,,,,,,,,,,,,,,,,,,,,,,,,0,0,0,4,1,,,,,,,,,,,,,,,,,,,,,,,,,,,,,,,,,,,,,,,,,,,,,,
590516,001,2022-11-21_24h54.42.006,Info_measure_main_exp,2022.2.2,Win32,60.22645146,,,,,,,,,,,,,,,,,,masks/mask_004.jpg,,,,,,,,,,,,,,,,,,,,,,,,,,,,,,,,,,,,,,,,,,,0,1,1,3,1,,,,,,,,,,,,,,,,,,,,,,,,,,,,,,,,,,,,,,,,,,,,,,
590516,001,2022-11-21_24h54.42.006,Info_measure_main_exp,2022.2.2,Win32,60.22645146,,,,,,,,,,,,,,,,,,masks/mask_003.jpg,,,,,,,,,,,,,,,,,,,,,,,,,,,,,,,,,,,,,,,,,,,0,2,2,2,1,,,,,,,,,,,,,,,,,,,,,,,,,,,,,,,,,,,,,,,,,,,,,,
590516,001,2022-11-21_24h54.42.006,Info_measure_main_exp,2022.2.2,Win32,60.22645146,,,,,,,,,,,,,,,,,,masks/mask_002.jpg,,,,,,,,,,,,,,,,,,,,,,,,,,,,,,,,,,,,,,,,,,,0,3,3,1,1,,,,,,,,,,,,,,,,,,,,,,,,,,,,,,,,,,,,,,,,,,,,,,
590516,001,2022-11-21_24h54.42.006,Info_measure_main_exp,2022.2.2,Win32,60.22645146,,,,,,,,,,,,,,,,,,masks/mask_001.jpg,,,,,,,,,,,,,,,,,,,,,,,,,,,,,,,,,,,,,,,,,,,0,4,4,0,1,,,,,,,,,,,,,,,,,,,,,,,,,,,,,,,,,,,,,,,,,,,,,,
590516,001,2022-11-21_24h54.42.006,Info_measure_main_exp,2022.2.2,Win32,60.22645146,,,,,,,,,,,,,,,,,,masks/mask_001.jpg,,,,,,,,,,,,,,,,,,,,,,,,,,,,,,,,,,,,,,,,,,,,,,,,0,0,0,0,1,,,,,,,,,,,,,,,,,,,,,,,,,,,,,,,,,,,,,,,,,
590516,001,2022-11-21_24h54.42.006,Info_measure_main_exp,2022.2.2,Win32,60.22645146,,,,,,,,,,,,,,,,,,masks/mask_002.jpg,,,,,,,,,,,,,,,,,,,,,,,,,,,,,,,,,,,,,,,,,,,,,,,,0,1,1,1,1,,,,,,,,,,,,,,,,,,,,,,,,,,,,,,,,,,,,,,,,,
590516,001,2022-11-21_24h54.42.006,Info_measure_main_exp,2022.2.2,Win32,60.22645146,,,,,,,,,,,,,,,,,,masks/mask_004.jpg,,,,,,,,,,,,,,,,,,,,,,,,,,,,,,,,,,,,,,,,,,,,,,,,0,2,2,3,1,,,,,,,,,,,,,,,,,,,,,,,,,,,,,,,,,,,,,,,,,
590516,001,2022-11-21_24h54.42.006,Info_measure_main_exp,2022.2.2,Win32,60.22645146,,,,,,,,,,,,,,,,,,masks/mask_005.jpg,,,,,,,,,,,,,,,,,,,,,,,,,,,,,,,,,,,,,,,,,,,,,,,,0,3,3,4,1,,,,,,,,,,,,,,,,,,,,,,,,,,,,,,,,,,,,,,,,,
590516,001,2022-11-21_24h54.42.006,Info_measure_main_exp,2022.2.2,Win32,60.22645146,,,,,,,,,,,,,,,,,,masks/mask_003.jpg,,,,,,,,,,,,,,,,,,,,,,,,,,,,,,,,,,,,,,,,,,,,,,,,0,4,4,2,1,,,,,,,,,,,,,,,,,,,,,,,,,,,,,,,,,,,,,,,,,
590516,001,2022-11-21_24h54.42.006,Info_measure_main_exp,2022.2.2,Win32,60.22645146,,,,,,,,,,,,,,,,,,,,,,,,,,,,,,0,0.5666,1,,,,,,,,,,,,0,131,5,5,2154,2154,absent_patch/patch0002154.jpg,absent_patch/patch0002154.jpg,,,,,,,,,,,,,,,,,,,,-0.033333333,0.086111111,1,0,0,response7disk,7,-0.008333333,0.005555556,1,0,0,center_square,0,6,6,89,1,,,,,,,,,,,,,,,,,,,,,,,
590516,001,2022-11-21_24h54.42.006,Info_measure_main_exp,2022.2.2,Win32,60.22645146,,,,,,,,,,,,,,,,,,masks/mask_005.jpg,,,,,,,,,,,,,,,,,,,,,,,,,,,,,,,,,,,,,,,,,,,0,0,0,4,1,,,,,,,,,,,,,,,,,,,,,,,,,,,,,,,,,,,,,,,,,,,,,,
590516,001,2022-11-21_24h54.42.006,Info_measure_main_exp,2022.2.2,Win32,60.22645146,,,,,,,,,,,,,,,,,,masks/mask_002.jpg,,,,,,,,,,,,,,,,,,,,,,,,,,,,,,,,,,,,,,,,,,,0,1,1,1,1,,,,,,,,,,,,,,,,,,,,,,,,,,,,,,,,,,,,,,,,,,,,,,
590516,001,2022-11-21_24h54.42.006,Info_measure_main_exp,2022.2.2,Win32,60.22645146,,,,,,,,,,,,,,,,,,masks/mask_004.jpg,,,,,,,,,,,,,,,,,,,,,,,,,,,,,,,,,,,,,,,,,,,0,2,2,3,1,,,,,,,,,,,,,,,,,,,,,,,,,,,,,,,,,,,,,,,,,,,,,,
590516,001,2022-11-21_24h54.42.006,Info_measure_main_exp,2022.2.2,Win32,60.22645146,,,,,,,,,,,,,,,,,,masks/mask_003.jpg,,,,,,,,,,,,,,,,,,,,,,,,,,,,,,,,,,,,,,,,,,,0,3,3,2,1,,,,,,,,,,,,,,,,,,,,,,,,,,,,,,,,,,,,,,,,,,,,,,
590516,001,2022-11-21_24h54.42.006,Info_measure_main_exp,2022.2.2,Win32,60.22645146,,,,,,,,,,,,,,,,,,masks/mask_001.jpg,,,,,,,,,,,,,,,,,,,,,,,,,,,,,,,,,,,,,,,,,,,0,4,4,0,1,,,,,,,,,,,,,,,,,,,,,,,,,,,,,,,,,,,,,,,,,,,,,,
590516,001,2022-11-21_24h54.42.006,Info_measure_main_exp,2022.2.2,Win32,60.22645146,,,,,,,,,,,,,,,,,,masks/mask_004.jpg,,,,,,,,,,,,,,,,,,,,,,,,,,,,,,,,,,,,,,,,,,,,,,,,0,0,0,3,1,,,,,,,,,,,,,,,,,,,,,,,,,,,,,,,,,,,,,,,,,
590516,001,2022-11-21_24h54.42.006,Info_measure_main_exp,2022.2.2,Win32,60.22645146,,,,,,,,,,,,,,,,,,masks/mask_002.jpg,,,,,,,,,,,,,,,,,,,,,,,,,,,,,,,,,,,,,,,,,,,,,,,,0,1,1,1,1,,,,,,,,,,,,,,,,,,,,,,,,,,,,,,,,,,,,,,,,,
590516,001,2022-11-21_24h54.42.006,Info_measure_main_exp,2022.2.2,Win32,60.22645146,,,,,,,,,,,,,,,,,,masks/mask_005.jpg,,,,,,,,,,,,,,,,,,,,,,,,,,,,,,,,,,,,,,,,,,,,,,,,0,2,2,4,1,,,,,,,,,,,,,,,,,,,,,,,,,,,,,,,,,,,,,,,,,
590516,001,2022-11-21_24h54.42.006,Info_measure_main_exp,2022.2.2,Win32,60.22645146,,,,,,,,,,,,,,,,,,masks/mask_003.jpg,,,,,,,,,,,,,,,,,,,,,,,,,,,,,,,,,,,,,,,,,,,,,,,,0,3,3,2,1,,,,,,,,,,,,,,,,,,,,,,,,,,,,,,,,,,,,,,,,,
590516,001,2022-11-21_24h54.42.006,Info_measure_main_exp,2022.2.2,Win32,60.22645146,,,,,,,,,,,,,,,,,,masks/mask_001.jpg,,,,,,,,,,,,,,,,,,,,,,,,,,,,,,,,,,,,,,,,,,,,,,,,0,4,4,0,1,,,,,,,,,,,,,,,,,,,,,,,,,,,,,,,,,,,,,,,,,
590516,001,2022-11-21_24h54.42.006,Info_measure_main_exp,2022.2.2,Win32,60.22645146,,,,,,,,,,,,,,,,,,,,,,,,,,,,,,7,0.9843,1,,,,,,,,,,,,1,131,5,5,2250,1,absent_patch/patch0002250.jpg,present_patch/cong_131_5_a.jpg,,,,,,,,,,,,,,,,,,,,0.025925926,0.098148148,1,0,0,response1disk,8,0.005555556,0.014814815,1,0,0,center_square,0,7,7,5,1,,,,,,,,,,,,,,,,,,,,,,,
590516,001,2022-11-21_24h54.42.006,Info_measure_main_exp,2022.2.2,Win32,60.22645146,,,,,,,,,,,,,,,,,,masks/mask_002.jpg,,,,,,,,,,,,,,,,,,,,,,,,,,,,,,,,,,,,,,,,,,,0,0,0,1,1,,,,,,,,,,,,,,,,,,,,,,,,,,,,,,,,,,,,,,,,,,,,,,
590516,001,2022-11-21_24h54.42.006,Info_measure_main_exp,2022.2.2,Win32,60.22645146,,,,,,,,,,,,,,,,,,masks/mask_001.jpg,,,,,,,,,,,,,,,,,,,,,,,,,,,,,,,,,,,,,,,,,,,0,1,1,0,1,,,,,,,,,,,,,,,,,,,,,,,,,,,,,,,,,,,,,,,,,,,,,,
590516,001,2022-11-21_24h54.42.006,Info_measure_main_exp,2022.2.2,Win32,60.22645146,,,,,,,,,,,,,,,,,,masks/mask_005.jpg,,,,,,,,,,,,,,,,,,,,,,,,,,,,,,,,,,,,,,,,,,,0,2,2,4,1,,,,,,,,,,,,,,,,,,,,,,,,,,,,,,,,,,,,,,,,,,,,,,
590516,001,2022-11-21_24h54.42.006,Info_measure_main_exp,2022.2.2,Win32,60.22645146,,,,,,,,,,,,,,,,,,masks/mask_003.jpg,,,,,,,,,,,,,,,,,,,,,,,,,,,,,,,,,,,,,,,,,,,0,3,3,2,1,,,,,,,,,,,,,,,,,,,,,,,,,,,,,,,,,,,,,,,,,,,,,,
590516,001,2022-11-21_24h54.42.006,Info_measure_main_exp,2022.2.2,Win32,60.22645146,,,,,,,,,,,,,,,,,,masks/mask_004.jpg,,,,,,,,,,,,,,,,,,,,,,,,,,,,,,,,,,,,,,,,,,,0,4,4,3,1,,,,,,,,,,,,,,,,,,,,,,,,,,,,,,,,,,,,,,,,,,,,,,
590516,001,2022-11-21_24h54.42.006,Info_measure_main_exp,2022.2.2,Win32,60.22645146,,,,,,,,,,,,,,,,,,masks/mask_003.jpg,,,,,,,,,,,,,,,,,,,,,,,,,,,,,,,,,,,,,,,,,,,,,,,,0,0,0,2,1,,,,,,,,,,,,,,,,,,,,,,,,,,,,,,,,,,,,,,,,,
590516,001,2022-11-21_24h54.42.006,Info_measure_main_exp,2022.2.2,Win32,60.22645146,,,,,,,,,,,,,,,,,,masks/mask_002.jpg,,,,,,,,,,,,,,,,,,,,,,,,,,,,,,,,,,,,,,,,,,,,,,,,0,1,1,1,1,,,,,,,,,,,,,,,,,,,,,,,,,,,,,,,,,,,,,,,,,
590516,001,2022-11-21_24h54.42.006,Info_measure_main_exp,2022.2.2,Win32,60.22645146,,,,,,,,,,,,,,,,,,masks/mask_004.jpg,,,,,,,,,,,,,,,,,,,,,,,,,,,,,,,,,,,,,,,,,,,,,,,,0,2,2,3,1,,,,,,,,,,,,,,,,,,,,,,,,,,,,,,,,,,,,,,,,,
590516,001,2022-11-21_24h54.42.006,Info_measure_main_exp,2022.2.2,Win32,60.22645146,,,,,,,,,,,,,,,,,,masks/mask_001.jpg,,,,,,,,,,,,,,,,,,,,,,,,,,,,,,,,,,,,,,,,,,,,,,,,0,3,3,0,1,,,,,,,,,,,,,,,,,,,,,,,,,,,,,,,,,,,,,,,,,
590516,001,2022-11-21_24h54.42.006,Info_measure_main_exp,2022.2.2,Win32,60.22645146,,,,,,,,,,,,,,,,,,masks/mask_005.jpg,,,,,,,,,,,,,,,,,,,,,,,,,,,,,,,,,,,,,,,,,,,,,,,,0,4,4,4,1,,,,,,,,,,,,,,,,,,,,,,,,,,,,,,,,,,,,,,,,,
590516,001,2022-11-21_24h54.42.006,Info_measure_main_exp,2022.2.2,Win32,60.22645146,,,,,,,,,,,,,,,,,,,,,,,,,,,,,,3,1.7988,1,,,,,,,,,,,,0,131,5,5,2082,2178,absent_patch/patch0002082.jpg,absent_patch/patch0002178.jpg,,,,,,,,,,,,,,,,,,,,-0.028703704,-0.117592593,1,0,0,response5disk,9,-0.012962963,-0.008333333,1,0,0,center_square,0,8,8,2,1,,,,,,,,,,,,,,,,,,,,,,,
590516,001,2022-11-21_24h54.42.006,Info_measure_main_exp,2022.2.2,Win32,60.22645146,,,,,,,,,,,,,,,,,,masks/mask_003.jpg,,,,,,,,,,,,,,,,,,,,,,,,,,,,,,,,,,,,,,,,,,,0,0,0,2,1,,,,,,,,,,,,,,,,,,,,,,,,,,,,,,,,,,,,,,,,,,,,,,
590516,001,2022-11-21_24h54.42.006,Info_measure_main_exp,2022.2.2,Win32,60.22645146,,,,,,,,,,,,,,,,,,masks/mask_002.jpg,,,,,,,,,,,,,,,,,,,,,,,,,,,,,,,,,,,,,,,,,,,0,1,1,1,1,,,,,,,,,,,,,,,,,,,,,,,,,,,,,,,,,,,,,,,,,,,,,,
590516,001,2022-11-21_24h54.42.006,Info_measure_main_exp,2022.2.2,Win32,60.22645146,,,,,,,,,,,,,,,,,,masks/mask_005.jpg,,,,,,,,,,,,,,,,,,,,,,,,,,,,,,,,,,,,,,,,,,,0,2,2,4,1,,,,,,,,,,,,,,,,,,,,,,,,,,,,,,,,,,,,,,,,,,,,,,
590516,001,2022-11-21_24h54.42.006,Info_measure_main_exp,2022.2.2,Win32,60.22645146,,,,,,,,,,,,,,,,,,masks/mask_001.jpg,,,,,,,,,,,,,,,,,,,,,,,,,,,,,,,,,,,,,,,,,,,0,3,3,0,1,,,,,,,,,,,,,,,,,,,,,,,,,,,,,,,,,,,,,,,,,,,,,,
590516,001,2022-11-21_24h54.42.006,Info_measure_main_exp,2022.2.2,Win32,60.22645146,,,,,,,,,,,,,,,,,,masks/mask_004.jpg,,,,,,,,,,,,,,,,,,,,,,,,,,,,,,,,,,,,,,,,,,,0,4,4,3,1,,,,,,,,,,,,,,,,,,,,,,,,,,,,,,,,,,,,,,,,,,,,,,
590516,001,2022-11-21_24h54.42.006,Info_measure_main_exp,2022.2.2,Win32,60.22645146,,,,,,,,,,,,,,,,,,masks/mask_002.jpg,,,,,,,,,,,,,,,,,,,,,,,,,,,,,,,,,,,,,,,,,,,,,,,,0,0,0,1,1,,,,,,,,,,,,,,,,,,,,,,,,,,,,,,,,,,,,,,,,,
590516,001,2022-11-21_24h54.42.006,Info_measure_main_exp,2022.2.2,Win32,60.22645146,,,,,,,,,,,,,,,,,,masks/mask_004.jpg,,,,,,,,,,,,,,,,,,,,,,,,,,,,,,,,,,,,,,,,,,,,,,,,0,1,1,3,1,,,,,,,,,,,,,,,,,,,,,,,,,,,,,,,,,,,,,,,,,
590516,001,2022-11-21_24h54.42.006,Info_measure_main_exp,2022.2.2,Win32,60.22645146,,,,,,,,,,,,,,,,,,masks/mask_003.jpg,,,,,,,,,,,,,,,,,,,,,,,,,,,,,,,,,,,,,,,,,,,,,,,,0,2,2,2,1,,,,,,,,,,,,,,,,,,,,,,,,,,,,,,,,,,,,,,,,,
590516,001,2022-11-21_24h54.42.006,Info_measure_main_exp,2022.2.2,Win32,60.22645146,,,,,,,,,,,,,,,,,,masks/mask_005.jpg,,,,,,,,,,,,,,,,,,,,,,,,,,,,,,,,,,,,,,,,,,,,,,,,0,3,3,4,1,,,,,,,,,,,,,,,,,,,,,,,,,,,,,,,,,,,,,,,,,
590516,001,2022-11-21_24h54.42.006,Info_measure_main_exp,2022.2.2,Win32,60.22645146,,,,,,,,,,,,,,,,,,masks/mask_001.jpg,,,,,,,,,,,,,,,,,,,,,,,,,,,,,,,,,,,,,,,,,,,,,,,,0,4,4,0,1,,,,,,,,,,,,,,,,,,,,,,,,,,,,,,,,,,,,,,,,,
590516,001,2022-11-21_24h54.42.006,Info_measure_main_exp,2022.2.2,Win32,60.22645146,,,,,,,,,,,,,,,,,,,,,,,,,,,,,,4,0.9827,1,,,,,,,,,,,,0,131,5,5,2250,1950,absent_patch/patch0002250.jpg,absent_patch/patch0001950.jpg,,,,,,,,,,,,,,,,,,,,0.051851852,-0.117592593,1,0,0,response3disk,10,-0.002777778,0.000925926,1,0,0,center_square,0,9,9,16,1,,,,,,,,,,,,,,,,,,,,,,,
590516,001,2022-11-21_24h54.42.006,Info_measure_main_exp,2022.2.2,Win32,60.22645146,,,,,,,,,,,,,,,,,,masks/mask_002.jpg,,,,,,,,,,,,,,,,,,,,,,,,,,,,,,,,,,,,,,,,,,,0,0,0,1,1,,,,,,,,,,,,,,,,,,,,,,,,,,,,,,,,,,,,,,,,,,,,,,
590516,001,2022-11-21_24h54.42.006,Info_measure_main_exp,2022.2.2,Win32,60.22645146,,,,,,,,,,,,,,,,,,masks/mask_001.jpg,,,,,,,,,,,,,,,,,,,,,,,,,,,,,,,,,,,,,,,,,,,0,1,1,0,1,,,,,,,,,,,,,,,,,,,,,,,,,,,,,,,,,,,,,,,,,,,,,,
590516,001,2022-11-21_24h54.42.006,Info_measure_main_exp,2022.2.2,Win32,60.22645146,,,,,,,,,,,,,,,,,,masks/mask_004.jpg,,,,,,,,,,,,,,,,,,,,,,,,,,,,,,,,,,,,,,,,,,,0,2,2,3,1,,,,,,,,,,,,,,,,,,,,,,,,,,,,,,,,,,,,,,,,,,,,,,
590516,001,2022-11-21_24h54.42.006,Info_measure_main_exp,2022.2.2,Win32,60.22645146,,,,,,,,,,,,,,,,,,masks/mask_005.jpg,,,,,,,,,,,,,,,,,,,,,,,,,,,,,,,,,,,,,,,,,,,0,3,3,4,1,,,,,,,,,,,,,,,,,,,,,,,,,,,,,,,,,,,,,,,,,,,,,,
590516,001,2022-11-21_24h54.42.006,Info_measure_main_exp,2022.2.2,Win32,60.22645146,,,,,,,,,,,,,,,,,,masks/mask_003.jpg,,,,,,,,,,,,,,,,,,,,,,,,,,,,,,,,,,,,,,,,,,,0,4,4,2,1,,,,,,,,,,,,,,,,,,,,,,,,,,,,,,,,,,,,,,,,,,,,,,
590516,001,2022-11-21_24h54.42.006,Info_measure_main_exp,2022.2.2,Win32,60.22645146,,,,,,,,,,,,,,,,,,masks/mask_004.jpg,,,,,,,,,,,,,,,,,,,,,,,,,,,,,,,,,,,,,,,,,,,,,,,,0,0,0,3,1,,,,,,,,,,,,,,,,,,,,,,,,,,,,,,,,,,,,,,,,,
590516,001,2022-11-21_24h54.42.006,Info_measure_main_exp,2022.2.2,Win32,60.22645146,,,,,,,,,,,,,,,,,,masks/mask_003.jpg,,,,,,,,,,,,,,,,,,,,,,,,,,,,,,,,,,,,,,,,,,,,,,,,0,1,1,2,1,,,,,,,,,,,,,,,,,,,,,,,,,,,,,,,,,,,,,,,,,
590516,001,2022-11-21_24h54.42.006,Info_measure_main_exp,2022.2.2,Win32,60.22645146,,,,,,,,,,,,,,,,,,masks/mask_002.jpg,,,,,,,,,,,,,,,,,,,,,,,,,,,,,,,,,,,,,,,,,,,,,,,,0,2,2,1,1,,,,,,,,,,,,,,,,,,,,,,,,,,,,,,,,,,,,,,,,,
590516,001,2022-11-21_24h54.42.006,Info_measure_main_exp,2022.2.2,Win32,60.22645146,,,,,,,,,,,,,,,,,,masks/mask_001.jpg,,,,,,,,,,,,,,,,,,,,,,,,,,,,,,,,,,,,,,,,,,,,,,,,0,3,3,0,1,,,,,,,,,,,,,,,,,,,,,,,,,,,,,,,,,,,,,,,,,
590516,001,2022-11-21_24h54.42.006,Info_measure_main_exp,2022.2.2,Win32,60.22645146,,,,,,,,,,,,,,,,,,masks/mask_005.jpg,,,,,,,,,,,,,,,,,,,,,,,,,,,,,,,,,,,,,,,,,,,,,,,,0,4,4,4,1,,,,,,,,,,,,,,,,,,,,,,,,,,,,,,,,,,,,,,,,,
590516,001,2022-11-21_24h54.42.006,Info_measure_main_exp,2022.2.2,Win32,60.22645146,,,,,,,,,,,,,,,,,,,,,,,,,,,,,,3,1.3162,1,,,,,,,,,,,,0,131,5,5,2082,1974,absent_patch/patch0002082.jpg,absent_patch/patch0001974.jpg,,,,,,,,,,,,,,,,,,,,-0.062962963,-0.151851852,1,0,0,response5disk,11,0.000925926,-0.011111111,1,0,0,center_square,0,10,10,26,1,,,,,,,,,,,,,,,,,,,,,,,
590516,001,2022-11-21_24h54.42.006,Info_measure_main_exp,2022.2.2,Win32,60.22645146,,,,,,,,,,,,,,,,,,masks/mask_001.jpg,,,,,,,,,,,,,,,,,,,,,,,,,,,,,,,,,,,,,,,,,,,0,0,0,0,1,,,,,,,,,,,,,,,,,,,,,,,,,,,,,,,,,,,,,,,,,,,,,,
590516,001,2022-11-21_24h54.42.006,Info_measure_main_exp,2022.2.2,Win32,60.22645146,,,,,,,,,,,,,,,,,,masks/mask_005.jpg,,,,,,,,,,,,,,,,,,,,,,,,,,,,,,,,,,,,,,,,,,,0,1,1,4,1,,,,,,,,,,,,,,,,,,,,,,,,,,,,,,,,,,,,,,,,,,,,,,
590516,001,2022-11-21_24h54.42.006,Info_measure_main_exp,2022.2.2,Win32,60.22645146,,,,,,,,,,,,,,,,,,masks/mask_002.jpg,,,,,,,,,,,,,,,,,,,,,,,,,,,,,,,,,,,,,,,,,,,0,2,2,1,1,,,,,,,,,,,,,,,,,,,,,,,,,,,,,,,,,,,,,,,,,,,,,,
590516,001,2022-11-21_24h54.42.006,Info_measure_main_exp,2022.2.2,Win32,60.22645146,,,,,,,,,,,,,,,,,,masks/mask_003.jpg,,,,,,,,,,,,,,,,,,,,,,,,,,,,,,,,,,,,,,,,,,,0,3,3,2,1,,,,,,,,,,,,,,,,,,,,,,,,,,,,,,,,,,,,,,,,,,,,,,
590516,001,2022-11-21_24h54.42.006,Info_measure_main_exp,2022.2.2,Win32,60.22645146,,,,,,,,,,,,,,,,,,masks/mask_004.jpg,,,,,,,,,,,,,,,,,,,,,,,,,,,,,,,,,,,,,,,,,,,0,4,4,3,1,,,,,,,,,,,,,,,,,,,,,,,,,,,,,,,,,,,,,,,,,,,,,,
590516,001,2022-11-21_24h54.42.006,Info_measure_main_exp,2022.2.2,Win32,60.22645146,,,,,,,,,,,,,,,,,,masks/mask_002.jpg,,,,,,,,,,,,,,,,,,,,,,,,,,,,,,,,,,,,,,,,,,,,,,,,0,0,0,1,1,,,,,,,,,,,,,,,,,,,,,,,,,,,,,,,,,,,,,,,,,
590516,001,2022-11-21_24h54.42.006,Info_measure_main_exp,2022.2.2,Win32,60.22645146,,,,,,,,,,,,,,,,,,masks/mask_005.jpg,,,,,,,,,,,,,,,,,,,,,,,,,,,,,,,,,,,,,,,,,,,,,,,,0,1,1,4,1,,,,,,,,,,,,,,,,,,,,,,,,,,,,,,,,,,,,,,,,,
590516,001,2022-11-21_24h54.42.006,Info_measure_main_exp,2022.2.2,Win32,60.22645146,,,,,,,,,,,,,,,,,,masks/mask_003.jpg,,,,,,,,,,,,,,,,,,,,,,,,,,,,,,,,,,,,,,,,,,,,,,,,0,2,2,2,1,,,,,,,,,,,,,,,,,,,,,,,,,,,,,,,,,,,,,,,,,
590516,001,2022-11-21_24h54.42.006,Info_measure_main_exp,2022.2.2,Win32,60.22645146,,,,,,,,,,,,,,,,,,masks/mask_001.jpg,,,,,,,,,,,,,,,,,,,,,,,,,,,,,,,,,,,,,,,,,,,,,,,,0,3,3,0,1,,,,,,,,,,,,,,,,,,,,,,,,,,,,,,,,,,,,,,,,,
590516,001,2022-11-21_24h54.42.006,Info_measure_main_exp,2022.2.2,Win32,60.22645146,,,,,,,,,,,,,,,,,,masks/mask_004.jpg,,,,,,,,,,,,,,,,,,,,,,,,,,,,,,,,,,,,,,,,,,,,,,,,0,4,4,3,1,,,,,,,,,,,,,,,,,,,,,,,,,,,,,,,,,,,,,,,,,
590516,001,2022-11-21_24h54.42.006,Info_measure_main_exp,2022.2.2,Win32,60.22645146,,,,,,,,,,,,,,,,,,,,,,,,,,,,,,7,0.6658,1,,,,,,,,,,,,0,131,5,5,2082,2166,absent_patch/patch0002082.jpg,absent_patch/patch0002166.jpg,,,,,,,,,,,,,,,,,,,,0.04537037,0.119444444,1,0,0,response1disk,12,0.012037037,0,1,0,0,center_square,0,11,11,43,1,,,,,,,,,,,,,,,,,,,,,,,
590516,001,2022-11-21_24h54.42.006,Info_measure_main_exp,2022.2.2,Win32,60.22645146,,,,,,,,,,,,,,,,,,masks/mask_002.jpg,,,,,,,,,,,,,,,,,,,,,,,,,,,,,,,,,,,,,,,,,,,0,0,0,1,1,,,,,,,,,,,,,,,,,,,,,,,,,,,,,,,,,,,,,,,,,,,,,,
590516,001,2022-11-21_24h54.42.006,Info_measure_main_exp,2022.2.2,Win32,60.22645146,,,,,,,,,,,,,,,,,,masks/mask_003.jpg,,,,,,,,,,,,,,,,,,,,,,,,,,,,,,,,,,,,,,,,,,,0,1,1,2,1,,,,,,,,,,,,,,,,,,,,,,,,,,,,,,,,,,,,,,,,,,,,,,
590516,001,2022-11-21_24h54.42.006,Info_measure_main_exp,2022.2.2,Win32,60.22645146,,,,,,,,,,,,,,,,,,masks/mask_001.jpg,,,,,,,,,,,,,,,,,,,,,,,,,,,,,,,,,,,,,,,,,,,0,2,2,0,1,,,,,,,,,,,,,,,,,,,,,,,,,,,,,,,,,,,,,,,,,,,,,,
590516,001,2022-11-21_24h54.42.006,Info_measure_main_exp,2022.2.2,Win32,60.22645146,,,,,,,,,,,,,,,,,,masks/mask_005.jpg,,,,,,,,,,,,,,,,,,,,,,,,,,,,,,,,,,,,,,,,,,,0,3,3,4,1,,,,,,,,,,,,,,,,,,,,,,,,,,,,,,,,,,,,,,,,,,,,,,
590516,001,2022-11-21_24h54.42.006,Info_measure_main_exp,2022.2.2,Win32,60.22645146,,,,,,,,,,,,,,,,,,masks/mask_004.jpg,,,,,,,,,,,,,,,,,,,,,,,,,,,,,,,,,,,,,,,,,,,0,4,4,3,1,,,,,,,,,,,,,,,,,,,,,,,,,,,,,,,,,,,,,,,,,,,,,,
590516,001,2022-11-21_24h54.42.006,Info_measure_main_exp,2022.2.2,Win32,60.22645146,,,,,,,,,,,,,,,,,,masks/mask_001.jpg,,,,,,,,,,,,,,,,,,,,,,,,,,,,,,,,,,,,,,,,,,,,,,,,0,0,0,0,1,,,,,,,,,,,,,,,,,,,,,,,,,,,,,,,,,,,,,,,,,
590516,001,2022-11-21_24h54.42.006,Info_measure_main_exp,2022.2.2,Win32,60.22645146,,,,,,,,,,,,,,,,,,masks/mask_005.jpg,,,,,,,,,,,,,,,,,,,,,,,,,,,,,,,,,,,,,,,,,,,,,,,,0,1,1,4,1,,,,,,,,,,,,,,,,,,,,,,,,,,,,,,,,,,,,,,,,,
590516,001,2022-11-21_24h54.42.006,Info_measure_main_exp,2022.2.2,Win32,60.22645146,,,,,,,,,,,,,,,,,,masks/mask_003.jpg,,,,,,,,,,,,,,,,,,,,,,,,,,,,,,,,,,,,,,,,,,,,,,,,0,2,2,2,1,,,,,,,,,,,,,,,,,,,,,,,,,,,,,,,,,,,,,,,,,
590516,001,2022-11-21_24h54.42.006,Info_measure_main_exp,2022.2.2,Win32,60.22645146,,,,,,,,,,,,,,,,,,masks/mask_004.jpg,,,,,,,,,,,,,,,,,,,,,,,,,,,,,,,,,,,,,,,,,,,,,,,,0,3,3,3,1,,,,,,,,,,,,,,,,,,,,,,,,,,,,,,,,,,,,,,,,,
590516,001,2022-11-21_24h54.42.006,Info_measure_main_exp,2022.2.2,Win32,60.22645146,,,,,,,,,,,,,,,,,,masks/mask_002.jpg,,,,,,,,,,,,,,,,,,,,,,,,,,,,,,,,,,,,,,,,,,,,,,,,0,4,4,1,1,,,,,,,,,,,,,,,,,,,,,,,,,,,,,,,,,,,,,,,,,
590516,001,2022-11-21_24h54.42.006,Info_measure_main_exp,2022.2.2,Win32,60.22645146,,,,,,,,,,,,,,,,,,,,,,,,,,,,,,7,1.1334,1,,,,,,,,,,,,0,131,5,5,2190,2238,absent_patch/patch0002190.jpg,absent_patch/patch0002238.jpg,,,,,,,,,,,,,,,,,,,,0.036111111,0.144444444,1,0,0,response1disk,13,-0.013888889,-0.000925926,1,0,0,center_square,0,12,12,53,1,,,,,,,,,,,,,,,,,,,,,,,
590516,001,2022-11-21_24h54.42.006,Info_measure_main_exp,2022.2.2,Win32,60.22645146,,,,,,,,,,,,,,,,,,masks/mask_003.jpg,,,,,,,,,,,,,,,,,,,,,,,,,,,,,,,,,,,,,,,,,,,0,0,0,2,1,,,,,,,,,,,,,,,,,,,,,,,,,,,,,,,,,,,,,,,,,,,,,,
590516,001,2022-11-21_24h54.42.006,Info_measure_main_exp,2022.2.2,Win32,60.22645146,,,,,,,,,,,,,,,,,,masks/mask_001.jpg,,,,,,,,,,,,,,,,,,,,,,,,,,,,,,,,,,,,,,,,,,,0,1,1,0,1,,,,,,,,,,,,,,,,,,,,,,,,,,,,,,,,,,,,,,,,,,,,,,
590516,001,2022-11-21_24h54.42.006,Info_measure_main_exp,2022.2.2,Win32,60.22645146,,,,,,,,,,,,,,,,,,masks/mask_005.jpg,,,,,,,,,,,,,,,,,,,,,,,,,,,,,,,,,,,,,,,,,,,0,2,2,4,1,,,,,,,,,,,,,,,,,,,,,,,,,,,,,,,,,,,,,,,,,,,,,,
590516,001,2022-11-21_24h54.42.006,Info_measure_main_exp,2022.2.2,Win32,60.22645146,,,,,,,,,,,,,,,,,,masks/mask_002.jpg,,,,,,,,,,,,,,,,,,,,,,,,,,,,,,,,,,,,,,,,,,,0,3,3,1,1,,,,,,,,,,,,,,,,,,,,,,,,,,,,,,,,,,,,,,,,,,,,,,
590516,001,2022-11-21_24h54.42.006,Info_measure_main_exp,2022.2.2,Win32,60.22645146,,,,,,,,,,,,,,,,,,masks/mask_004.jpg,,,,,,,,,,,,,,,,,,,,,,,,,,,,,,,,,,,,,,,,,,,0,4,4,3,1,,,,,,,,,,,,,,,,,,,,,,,,,,,,,,,,,,,,,,,,,,,,,,
590516,001,2022-11-21_24h54.42.006,Info_measure_main_exp,2022.2.2,Win32,60.22645146,,,,,,,,,,,,,,,,,,masks/mask_003.jpg,,,,,,,,,,,,,,,,,,,,,,,,,,,,,,,,,,,,,,,,,,,,,,,,0,0,0,2,1,,,,,,,,,,,,,,,,,,,,,,,,,,,,,,,,,,,,,,,,,
590516,001,2022-11-21_24h54.42.006,Info_measure_main_exp,2022.2.2,Win32,60.22645146,,,,,,,,,,,,,,,,,,masks/mask_002.jpg,,,,,,,,,,,,,,,,,,,,,,,,,,,,,,,,,,,,,,,,,,,,,,,,0,1,1,1,1,,,,,,,,,,,,,,,,,,,,,,,,,,,,,,,,,,,,,,,,,
590516,001,2022-11-21_24h54.42.006,Info_measure_main_exp,2022.2.2,Win32,60.22645146,,,,,,,,,,,,,,,,,,masks/mask_005.jpg,,,,,,,,,,,,,,,,,,,,,,,,,,,,,,,,,,,,,,,,,,,,,,,,0,2,2,4,1,,,,,,,,,,,,,,,,,,,,,,,,,,,,,,,,,,,,,,,,,
590516,001,2022-11-21_24h54.42.006,Info_measure_main_exp,2022.2.2,Win32,60.22645146,,,,,,,,,,,,,,,,,,masks/mask_004.jpg,,,,,,,,,,,,,,,,,,,,,,,,,,,,,,,,,,,,,,,,,,,,,,,,0,3,3,3,1,,,,,,,,,,,,,,,,,,,,,,,,,,,,,,,,,,,,,,,,,
590516,001,2022-11-21_24h54.42.006,Info_measure_main_exp,2022.2.2,Win32,60.22645146,,,,,,,,,,,,,,,,,,masks/mask_001.jpg,,,,,,,,,,,,,,,,,,,,,,,,,,,,,,,,,,,,,,,,,,,,,,,,0,4,4,0,1,,,,,,,,,,,,,,,,,,,,,,,,,,,,,,,,,,,,,,,,,
590516,001,2022-11-21_24h54.42.006,Info_measure_main_exp,2022.2.2,Win32,60.22645146,,,,,,,,,,,,,,,,,,,,,,,,,,,,,,7,1.3161,1,,,,,,,,,,,,0,131,5,5,2082,2238,absent_patch/patch0002082.jpg,absent_patch/patch0002238.jpg,,,,,,,,,,,,,,,,,,,,0.027777778,0.107407407,1,0,0,response1disk,14,0,-0.008333333,1,0,0,center_square,0,13,13,22,1,,,,,,,,,,,,,,,,,,,,,,,
590516,001,2022-11-21_24h54.42.006,Info_measure_main_exp,2022.2.2,Win32,60.22645146,,,,,,,,,,,,,,,,,,masks/mask_002.jpg,,,,,,,,,,,,,,,,,,,,,,,,,,,,,,,,,,,,,,,,,,,0,0,0,1,1,,,,,,,,,,,,,,,,,,,,,,,,,,,,,,,,,,,,,,,,,,,,,,
590516,001,2022-11-21_24h54.42.006,Info_measure_main_exp,2022.2.2,Win32,60.22645146,,,,,,,,,,,,,,,,,,masks/mask_004.jpg,,,,,,,,,,,,,,,,,,,,,,,,,,,,,,,,,,,,,,,,,,,0,1,1,3,1,,,,,,,,,,,,,,,,,,,,,,,,,,,,,,,,,,,,,,,,,,,,,,
590516,001,2022-11-21_24h54.42.006,Info_measure_main_exp,2022.2.2,Win32,60.22645146,,,,,,,,,,,,,,,,,,masks/mask_001.jpg,,,,,,,,,,,,,,,,,,,,,,,,,,,,,,,,,,,,,,,,,,,0,2,2,0,1,,,,,,,,,,,,,,,,,,,,,,,,,,,,,,,,,,,,,,,,,,,,,,
590516,001,2022-11-21_24h54.42.006,Info_measure_main_exp,2022.2.2,Win32,60.22645146,,,,,,,,,,,,,,,,,,masks/mask_003.jpg,,,,,,,,,,,,,,,,,,,,,,,,,,,,,,,,,,,,,,,,,,,0,3,3,2,1,,,,,,,,,,,,,,,,,,,,,,,,,,,,,,,,,,,,,,,,,,,,,,
590516,001,2022-11-21_24h54.42.006,Info_measure_main_exp,2022.2.2,Win32,60.22645146,,,,,,,,,,,,,,,,,,masks/mask_005.jpg,,,,,,,,,,,,,,,,,,,,,,,,,,,,,,,,,,,,,,,,,,,0,4,4,4,1,,,,,,,,,,,,,,,,,,,,,,,,,,,,,,,,,,,,,,,,,,,,,,
590516,001,2022-11-21_24h54.42.006,Info_measure_main_exp,2022.2.2,Win32,60.22645146,,,,,,,,,,,,,,,,,,masks/mask_003.jpg,,,,,,,,,,,,,,,,,,,,,,,,,,,,,,,,,,,,,,,,,,,,,,,,0,0,0,2,1,,,,,,,,,,,,,,,,,,,,,,,,,,,,,,,,,,,,,,,,,
590516,001,2022-11-21_24h54.42.006,Info_measure_main_exp,2022.2.2,Win32,60.22645146,,,,,,,,,,,,,,,,,,masks/mask_002.jpg,,,,,,,,,,,,,,,,,,,,,,,,,,,,,,,,,,,,,,,,,,,,,,,,0,1,1,1,1,,,,,,,,,,,,,,,,,,,,,,,,,,,,,,,,,,,,,,,,,
590516,001,2022-11-21_24h54.42.006,Info_measure_main_exp,2022.2.2,Win32,60.22645146,,,,,,,,,,,,,,,,,,masks/mask_005.jpg,,,,,,,,,,,,,,,,,,,,,,,,,,,,,,,,,,,,,,,,,,,,,,,,0,2,2,4,1,,,,,,,,,,,,,,,,,,,,,,,,,,,,,,,,,,,,,,,,,
590516,001,2022-11-21_24h54.42.006,Info_measure_main_exp,2022.2.2,Win32,60.22645146,,,,,,,,,,,,,,,,,,masks/mask_004.jpg,,,,,,,,,,,,,,,,,,,,,,,,,,,,,,,,,,,,,,,,,,,,,,,,0,3,3,3,1,,,,,,,,,,,,,,,,,,,,,,,,,,,,,,,,,,,,,,,,,
590516,001,2022-11-21_24h54.42.006,Info_measure_main_exp,2022.2.2,Win32,60.22645146,,,,,,,,,,,,,,,,,,masks/mask_001.jpg,,,,,,,,,,,,,,,,,,,,,,,,,,,,,,,,,,,,,,,,,,,,,,,,0,4,4,0,1,,,,,,,,,,,,,,,,,,,,,,,,,,,,,,,,,,,,,,,,,
590516,001,2022-11-21_24h54.42.006,Info_measure_main_exp,2022.2.2,Win32,60.22645146,,,,,,,,,,,,,,,,,,,,,,,,,,,,,,0,0.4003,1,,,,,,,,,,,,0,131,5,5,2082,2082,absent_patch/patch0002082.jpg,absent_patch/patch0002082.jpg,,,,,,,,,,,,,,,,,,,,-0.028703704,0.078703704,1,0,0,response7disk,15,-0.001851852,-0.005555556,1,0,0,center_square,0,14,14,74,1,,,,,,,,,,,,,,,,,,,,,,,
590516,001,2022-11-21_24h54.42.006,Info_measure_main_exp,2022.2.2,Win32,60.22645146,,,,,,,,,,,,,,,,,,masks/mask_002.jpg,,,,,,,,,,,,,,,,,,,,,,,,,,,,,,,,,,,,,,,,,,,0,0,0,1,1,,,,,,,,,,,,,,,,,,,,,,,,,,,,,,,,,,,,,,,,,,,,,,
590516,001,2022-11-21_24h54.42.006,Info_measure_main_exp,2022.2.2,Win32,60.22645146,,,,,,,,,,,,,,,,,,masks/mask_003.jpg,,,,,,,,,,,,,,,,,,,,,,,,,,,,,,,,,,,,,,,,,,,0,1,1,2,1,,,,,,,,,,,,,,,,,,,,,,,,,,,,,,,,,,,,,,,,,,,,,,
590516,001,2022-11-21_24h54.42.006,Info_measure_main_exp,2022.2.2,Win32,60.22645146,,,,,,,,,,,,,,,,,,masks/mask_004.jpg,,,,,,,,,,,,,,,,,,,,,,,,,,,,,,,,,,,,,,,,,,,0,2,2,3,1,,,,,,,,,,,,,,,,,,,,,,,,,,,,,,,,,,,,,,,,,,,,,,
590516,001,2022-11-21_24h54.42.006,Info_measure_main_exp,2022.2.2,Win32,60.22645146,,,,,,,,,,,,,,,,,,masks/mask_005.jpg,,,,,,,,,,,,,,,,,,,,,,,,,,,,,,,,,,,,,,,,,,,0,3,3,4,1,,,,,,,,,,,,,,,,,,,,,,,,,,,,,,,,,,,,,,,,,,,,,,
590516,001,2022-11-21_24h54.42.006,Info_measure_main_exp,2022.2.2,Win32,60.22645146,,,,,,,,,,,,,,,,,,masks/mask_001.jpg,,,,,,,,,,,,,,,,,,,,,,,,,,,,,,,,,,,,,,,,,,,0,4,4,0,1,,,,,,,,,,,,,,,,,,,,,,,,,,,,,,,,,,,,,,,,,,,,,,
590516,001,2022-11-21_24h54.42.006,Info_measure_main_exp,2022.2.2,Win32,60.22645146,,,,,,,,,,,,,,,,,,masks/mask_005.jpg,,,,,,,,,,,,,,,,,,,,,,,,,,,,,,,,,,,,,,,,,,,,,,,,0,0,0,4,1,,,,,,,,,,,,,,,,,,,,,,,,,,,,,,,,,,,,,,,,,
590516,001,2022-11-21_24h54.42.006,Info_measure_main_exp,2022.2.2,Win32,60.22645146,,,,,,,,,,,,,,,,,,masks/mask_003.jpg,,,,,,,,,,,,,,,,,,,,,,,,,,,,,,,,,,,,,,,,,,,,,,,,0,1,1,2,1,,,,,,,,,,,,,,,,,,,,,,,,,,,,,,,,,,,,,,,,,
590516,001,2022-11-21_24h54.42.006,Info_measure_main_exp,2022.2.2,Win32,60.22645146,,,,,,,,,,,,,,,,,,masks/mask_004.jpg,,,,,,,,,,,,,,,,,,,,,,,,,,,,,,,,,,,,,,,,,,,,,,,,0,2,2,3,1,,,,,,,,,,,,,,,,,,,,,,,,,,,,,,,,,,,,,,,,,
590516,001,2022-11-21_24h54.42.006,Info_measure_main_exp,2022.2.2,Win32,60.22645146,,,,,,,,,,,,,,,,,,masks/mask_002.jpg,,,,,,,,,,,,,,,,,,,,,,,,,,,,,,,,,,,,,,,,,,,,,,,,0,3,3,1,1,,,,,,,,,,,,,,,,,,,,,,,,,,,,,,,,,,,,,,,,,
590516,001,2022-11-21_24h54.42.006,Info_measure_main_exp,2022.2.2,Win32,60.22645146,,,,,,,,,,,,,,,,,,masks/mask_001.jpg,,,,,,,,,,,,,,,,,,,,,,,,,,,,,,,,,,,,,,,,,,,,,,,,0,4,4,0,1,,,,,,,,,,,,,,,,,,,,,,,,,,,,,,,,,,,,,,,,,
590516,001,2022-11-21_24h54.42.006,Info_measure_main_exp,2022.2.2,Win32,60.22645146,,,,,,,,,,,,,,,,,,,,,,,,,,,,,,0,0.4832,1,,,,,,,,,,,,0,131,5,5,2178,2178,absent_patch/patch0002178.jpg,absent_patch/patch0002178.jpg,,,,,,,,,,,,,,,,,,,,-0.035185185,0.077777778,1,0,0,response7disk,16,-0.000925926,-0.00462963,1,0,0,center_square,0,15,15,98,1,,,,,,,,,,,,,,,,,,,,,,,
590516,001,2022-11-21_24h54.42.006,Info_measure_main_exp,2022.2.2,Win32,60.22645146,,,,,,,,,,,,,,,,,,masks/mask_004.jpg,,,,,,,,,,,,,,,,,,,,,,,,,,,,,,,,,,,,,,,,,,,0,0,0,3,1,,,,,,,,,,,,,,,,,,,,,,,,,,,,,,,,,,,,,,,,,,,,,,
590516,001,2022-11-21_24h54.42.006,Info_measure_main_exp,2022.2.2,Win32,60.22645146,,,,,,,,,,,,,,,,,,masks/mask_001.jpg,,,,,,,,,,,,,,,,,,,,,,,,,,,,,,,,,,,,,,,,,,,0,1,1,0,1,,,,,,,,,,,,,,,,,,,,,,,,,,,,,,,,,,,,,,,,,,,,,,
590516,001,2022-11-21_24h54.42.006,Info_measure_main_exp,2022.2.2,Win32,60.22645146,,,,,,,,,,,,,,,,,,masks/mask_003.jpg,,,,,,,,,,,,,,,,,,,,,,,,,,,,,,,,,,,,,,,,,,,0,2,2,2,1,,,,,,,,,,,,,,,,,,,,,,,,,,,,,,,,,,,,,,,,,,,,,,
590516,001,2022-11-21_24h54.42.006,Info_measure_main_exp,2022.2.2,Win32,60.22645146,,,,,,,,,,,,,,,,,,masks/mask_005.jpg,,,,,,,,,,,,,,,,,,,,,,,,,,,,,,,,,,,,,,,,,,,0,3,3,4,1,,,,,,,,,,,,,,,,,,,,,,,,,,,,,,,,,,,,,,,,,,,,,,
590516,001,2022-11-21_24h54.42.006,Info_measure_main_exp,2022.2.2,Win32,60.22645146,,,,,,,,,,,,,,,,,,masks/mask_002.jpg,,,,,,,,,,,,,,,,,,,,,,,,,,,,,,,,,,,,,,,,,,,0,4,4,1,1,,,,,,,,,,,,,,,,,,,,,,,,,,,,,,,,,,,,,,,,,,,,,,
590516,001,2022-11-21_24h54.42.006,Info_measure_main_exp,2022.2.2,Win32,60.22645146,,,,,,,,,,,,,,,,,,masks/mask_001.jpg,,,,,,,,,,,,,,,,,,,,,,,,,,,,,,,,,,,,,,,,,,,,,,,,0,0,0,0,1,,,,,,,,,,,,,,,,,,,,,,,,,,,,,,,,,,,,,,,,,
590516,001,2022-11-21_24h54.42.006,Info_measure_main_exp,2022.2.2,Win32,60.22645146,,,,,,,,,,,,,,,,,,masks/mask_004.jpg,,,,,,,,,,,,,,,,,,,,,,,,,,,,,,,,,,,,,,,,,,,,,,,,0,1,1,3,1,,,,,,,,,,,,,,,,,,,,,,,,,,,,,,,,,,,,,,,,,
590516,001,2022-11-21_24h54.42.006,Info_measure_main_exp,2022.2.2,Win32,60.22645146,,,,,,,,,,,,,,,,,,masks/mask_003.jpg,,,,,,,,,,,,,,,,,,,,,,,,,,,,,,,,,,,,,,,,,,,,,,,,0,2,2,2,1,,,,,,,,,,,,,,,,,,,,,,,,,,,,,,,,,,,,,,,,,
590516,001,2022-11-21_24h54.42.006,Info_measure_main_exp,2022.2.2,Win32,60.22645146,,,,,,,,,,,,,,,,,,masks/mask_002.jpg,,,,,,,,,,,,,,,,,,,,,,,,,,,,,,,,,,,,,,,,,,,,,,,,0,3,3,1,1,,,,,,,,,,,,,,,,,,,,,,,,,,,,,,,,,,,,,,,,,
590516,001,2022-11-21_24h54.42.006,Info_measure_main_exp,2022.2.2,Win32,60.22645146,,,,,,,,,,,,,,,,,,masks/mask_005.jpg,,,,,,,,,,,,,,,,,,,,,,,,,,,,,,,,,,,,,,,,,,,,,,,,0,4,4,4,1,,,,,,,,,,,,,,,,,,,,,,,,,,,,,,,,,,,,,,,,,
590516,001,2022-11-21_24h54.42.006,Info_measure_main_exp,2022.2.2,Win32,60.22645146,,,,,,,,,,,,,,,,,,,,,,,,,,,,,,7,0.7661,1,,,,,,,,,,,,0,131,5,5,2274,2214,absent_patch/patch0002274.jpg,absent_patch/patch0002214.jpg,,,,,,,,,,,,,,,,,,,,0.023148148,0.093518519,1,0,0,response1disk,17,0.006481481,-0.000925926,1,0,0,center_square,0,16,16,11,1,,,,,,,,,,,,,,,,,,,,,,,
590516,001,2022-11-21_24h54.42.006,Info_measure_main_exp,2022.2.2,Win32,60.22645146,,,,,,,,,,,,,,,,,,masks/mask_005.jpg,,,,,,,,,,,,,,,,,,,,,,,,,,,,,,,,,,,,,,,,,,,0,0,0,4,1,,,,,,,,,,,,,,,,,,,,,,,,,,,,,,,,,,,,,,,,,,,,,,
590516,001,2022-11-21_24h54.42.006,Info_measure_main_exp,2022.2.2,Win32,60.22645146,,,,,,,,,,,,,,,,,,masks/mask_003.jpg,,,,,,,,,,,,,,,,,,,,,,,,,,,,,,,,,,,,,,,,,,,0,1,1,2,1,,,,,,,,,,,,,,,,,,,,,,,,,,,,,,,,,,,,,,,,,,,,,,
590516,001,2022-11-21_24h54.42.006,Info_measure_main_exp,2022.2.2,Win32,60.22645146,,,,,,,,,,,,,,,,,,masks/mask_001.jpg,,,,,,,,,,,,,,,,,,,,,,,,,,,,,,,,,,,,,,,,,,,0,2,2,0,1,,,,,,,,,,,,,,,,,,,,,,,,,,,,,,,,,,,,,,,,,,,,,,
590516,001,2022-11-21_24h54.42.006,Info_measure_main_exp,2022.2.2,Win32,60.22645146,,,,,,,,,,,,,,,,,,masks/mask_002.jpg,,,,,,,,,,,,,,,,,,,,,,,,,,,,,,,,,,,,,,,,,,,0,3,3,1,1,,,,,,,,,,,,,,,,,,,,,,,,,,,,,,,,,,,,,,,,,,,,,,
590516,001,2022-11-21_24h54.42.006,Info_measure_main_exp,2022.2.2,Win32,60.22645146,,,,,,,,,,,,,,,,,,masks/mask_004.jpg,,,,,,,,,,,,,,,,,,,,,,,,,,,,,,,,,,,,,,,,,,,0,4,4,3,1,,,,,,,,,,,,,,,,,,,,,,,,,,,,,,,,,,,,,,,,,,,,,,
590516,001,2022-11-21_24h54.42.006,Info_measure_main_exp,2022.2.2,Win32,60.22645146,,,,,,,,,,,,,,,,,,masks/mask_001.jpg,,,,,,,,,,,,,,,,,,,,,,,,,,,,,,,,,,,,,,,,,,,,,,,,0,0,0,0,1,,,,,,,,,,,,,,,,,,,,,,,,,,,,,,,,,,,,,,,,,
590516,001,2022-11-21_24h54.42.006,Info_measure_main_exp,2022.2.2,Win32,60.22645146,,,,,,,,,,,,,,,,,,masks/mask_004.jpg,,,,,,,,,,,,,,,,,,,,,,,,,,,,,,,,,,,,,,,,,,,,,,,,0,1,1,3,1,,,,,,,,,,,,,,,,,,,,,,,,,,,,,,,,,,,,,,,,,
590516,001,2022-11-21_24h54.42.006,Info_measure_main_exp,2022.2.2,Win32,60.22645146,,,,,,,,,,,,,,,,,,masks/mask_003.jpg,,,,,,,,,,,,,,,,,,,,,,,,,,,,,,,,,,,,,,,,,,,,,,,,0,2,2,2,1,,,,,,,,,,,,,,,,,,,,,,,,,,,,,,,,,,,,,,,,,
590516,001,2022-11-21_24h54.42.006,Info_measure_main_exp,2022.2.2,Win32,60.22645146,,,,,,,,,,,,,,,,,,masks/mask_005.jpg,,,,,,,,,,,,,,,,,,,,,,,,,,,,,,,,,,,,,,,,,,,,,,,,0,3,3,4,1,,,,,,,,,,,,,,,,,,,,,,,,,,,,,,,,,,,,,,,,,
590516,001,2022-11-21_24h54.42.006,Info_measure_main_exp,2022.2.2,Win32,60.22645146,,,,,,,,,,,,,,,,,,masks/mask_002.jpg,,,,,,,,,,,,,,,,,,,,,,,,,,,,,,,,,,,,,,,,,,,,,,,,0,4,4,1,1,,,,,,,,,,,,,,,,,,,,,,,,,,,,,,,,,,,,,,,,,
590516,001,2022-11-21_24h54.42.006,Info_measure_main_exp,2022.2.2,Win32,60.22645146,,,,,,,,,,,,,,,,,,,,,,,,,,,,,,4,0.7332,1,,,,,,,,,,,,0,131,5,5,2142,2166,absent_patch/patch0002142.jpg,absent_patch/patch0002166.jpg,,,,,,,,,,,,,,,,,,,,0.019444444,-0.048148148,1,0,0,response3disk,18,-0.00462963,0.008333333,1,0,0,center_square,0,17,17,66,1,,,,,,,,,,,,,,,,,,,,,,,
590516,001,2022-11-21_24h54.42.006,Info_measure_main_exp,2022.2.2,Win32,60.22645146,,,,,,,,,,,,,,,,,,masks/mask_004.jpg,,,,,,,,,,,,,,,,,,,,,,,,,,,,,,,,,,,,,,,,,,,0,0,0,3,1,,,,,,,,,,,,,,,,,,,,,,,,,,,,,,,,,,,,,,,,,,,,,,
590516,001,2022-11-21_24h54.42.006,Info_measure_main_exp,2022.2.2,Win32,60.22645146,,,,,,,,,,,,,,,,,,masks/mask_002.jpg,,,,,,,,,,,,,,,,,,,,,,,,,,,,,,,,,,,,,,,,,,,0,1,1,1,1,,,,,,,,,,,,,,,,,,,,,,,,,,,,,,,,,,,,,,,,,,,,,,
590516,001,2022-11-21_24h54.42.006,Info_measure_main_exp,2022.2.2,Win32,60.22645146,,,,,,,,,,,,,,,,,,masks/mask_001.jpg,,,,,,,,,,,,,,,,,,,,,,,,,,,,,,,,,,,,,,,,,,,0,2,2,0,1,,,,,,,,,,,,,,,,,,,,,,,,,,,,,,,,,,,,,,,,,,,,,,
590516,001,2022-11-21_24h54.42.006,Info_measure_main_exp,2022.2.2,Win32,60.22645146,,,,,,,,,,,,,,,,,,masks/mask_003.jpg,,,,,,,,,,,,,,,,,,,,,,,,,,,,,,,,,,,,,,,,,,,0,3,3,2,1,,,,,,,,,,,,,,,,,,,,,,,,,,,,,,,,,,,,,,,,,,,,,,
590516,001,2022-11-21_24h54.42.006,Info_measure_main_exp,2022.2.2,Win32,60.22645146,,,,,,,,,,,,,,,,,,masks/mask_005.jpg,,,,,,,,,,,,,,,,,,,,,,,,,,,,,,,,,,,,,,,,,,,0,4,4,4,1,,,,,,,,,,,,,,,,,,,,,,,,,,,,,,,,,,,,,,,,,,,,,,
590516,001,2022-11-21_24h54.42.006,Info_measure_main_exp,2022.2.2,Win32,60.22645146,,,,,,,,,,,,,,,,,,masks/mask_002.jpg,,,,,,,,,,,,,,,,,,,,,,,,,,,,,,,,,,,,,,,,,,,,,,,,0,0,0,1,1,,,,,,,,,,,,,,,,,,,,,,,,,,,,,,,,,,,,,,,,,
590516,001,2022-11-21_24h54.42.006,Info_measure_main_exp,2022.2.2,Win32,60.22645146,,,,,,,,,,,,,,,,,,masks/mask_004.jpg,,,,,,,,,,,,,,,,,,,,,,,,,,,,,,,,,,,,,,,,,,,,,,,,0,1,1,3,1,,,,,,,,,,,,,,,,,,,,,,,,,,,,,,,,,,,,,,,,,
590516,001,2022-11-21_24h54.42.006,Info_measure_main_exp,2022.2.2,Win32,60.22645146,,,,,,,,,,,,,,,,,,masks/mask_005.jpg,,,,,,,,,,,,,,,,,,,,,,,,,,,,,,,,,,,,,,,,,,,,,,,,0,2,2,4,1,,,,,,,,,,,,,,,,,,,,,,,,,,,,,,,,,,,,,,,,,
590516,001,2022-11-21_24h54.42.006,Info_measure_main_exp,2022.2.2,Win32,60.22645146,,,,,,,,,,,,,,,,,,masks/mask_003.jpg,,,,,,,,,,,,,,,,,,,,,,,,,,,,,,,,,,,,,,,,,,,,,,,,0,3,3,2,1,,,,,,,,,,,,,,,,,,,,,,,,,,,,,,,,,,,,,,,,,
590516,001,2022-11-21_24h54.42.006,Info_measure_main_exp,2022.2.2,Win32,60.22645146,,,,,,,,,,,,,,,,,,masks/mask_001.jpg,,,,,,,,,,,,,,,,,,,,,,,,,,,,,,,,,,,,,,,,,,,,,,,,0,4,4,0,1,,,,,,,,,,,,,,,,,,,,,,,,,,,,,,,,,,,,,,,,,
590516,001,2022-11-21_24h54.42.006,Info_measure_main_exp,2022.2.2,Win32,60.22645146,,,,,,,,,,,,,,,,,,,,,,,,,,,,,,7,0.7992,1,,,,,,,,,,,,0,131,5,5,2250,2166,absent_patch/patch0002250.jpg,absent_patch/patch0002166.jpg,,,,,,,,,,,,,,,,,,,,0.036111111,0.088888889,1,0,0,response1disk,19,0.003703704,0.002777778,1,0,0,center_square,0,18,18,60,1,,,,,,,,,,,,,,,,,,,,,,,
590516,001,2022-11-21_24h54.42.006,Info_measure_main_exp,2022.2.2,Win32,60.22645146,,,,,,,,,,,,,,,,,,masks/mask_001.jpg,,,,,,,,,,,,,,,,,,,,,,,,,,,,,,,,,,,,,,,,,,,0,0,0,0,1,,,,,,,,,,,,,,,,,,,,,,,,,,,,,,,,,,,,,,,,,,,,,,
590516,001,2022-11-21_24h54.42.006,Info_measure_main_exp,2022.2.2,Win32,60.22645146,,,,,,,,,,,,,,,,,,masks/mask_002.jpg,,,,,,,,,,,,,,,,,,,,,,,,,,,,,,,,,,,,,,,,,,,0,1,1,1,1,,,,,,,,,,,,,,,,,,,,,,,,,,,,,,,,,,,,,,,,,,,,,,
590516,001,2022-11-21_24h54.42.006,Info_measure_main_exp,2022.2.2,Win32,60.22645146,,,,,,,,,,,,,,,,,,masks/mask_005.jpg,,,,,,,,,,,,,,,,,,,,,,,,,,,,,,,,,,,,,,,,,,,0,2,2,4,1,,,,,,,,,,,,,,,,,,,,,,,,,,,,,,,,,,,,,,,,,,,,,,
590516,001,2022-11-21_24h54.42.006,Info_measure_main_exp,2022.2.2,Win32,60.22645146,,,,,,,,,,,,,,,,,,masks/mask_003.jpg,,,,,,,,,,,,,,,,,,,,,,,,,,,,,,,,,,,,,,,,,,,0,3,3,2,1,,,,,,,,,,,,,,,,,,,,,,,,,,,,,,,,,,,,,,,,,,,,,,
590516,001,2022-11-21_24h54.42.006,Info_measure_main_exp,2022.2.2,Win32,60.22645146,,,,,,,,,,,,,,,,,,masks/mask_004.jpg,,,,,,,,,,,,,,,,,,,,,,,,,,,,,,,,,,,,,,,,,,,0,4,4,3,1,,,,,,,,,,,,,,,,,,,,,,,,,,,,,,,,,,,,,,,,,,,,,,
590516,001,2022-11-21_24h54.42.006,Info_measure_main_exp,2022.2.2,Win32,60.22645146,,,,,,,,,,,,,,,,,,masks/mask_003.jpg,,,,,,,,,,,,,,,,,,,,,,,,,,,,,,,,,,,,,,,,,,,,,,,,0,0,0,2,1,,,,,,,,,,,,,,,,,,,,,,,,,,,,,,,,,,,,,,,,,
590516,001,2022-11-21_24h54.42.006,Info_measure_main_exp,2022.2.2,Win32,60.22645146,,,,,,,,,,,,,,,,,,masks/mask_002.jpg,,,,,,,,,,,,,,,,,,,,,,,,,,,,,,,,,,,,,,,,,,,,,,,,0,1,1,1,1,,,,,,,,,,,,,,,,,,,,,,,,,,,,,,,,,,,,,,,,,
590516,001,2022-11-21_24h54.42.006,Info_measure_main_exp,2022.2.2,Win32,60.22645146,,,,,,,,,,,,,,,,,,masks/mask_001.jpg,,,,,,,,,,,,,,,,,,,,,,,,,,,,,,,,,,,,,,,,,,,,,,,,0,2,2,0,1,,,,,,,,,,,,,,,,,,,,,,,,,,,,,,,,,,,,,,,,,
590516,001,2022-11-21_24h54.42.006,Info_measure_main_exp,2022.2.2,Win32,60.22645146,,,,,,,,,,,,,,,,,,masks/mask_004.jpg,,,,,,,,,,,,,,,,,,,,,,,,,,,,,,,,,,,,,,,,,,,,,,,,0,3,3,3,1,,,,,,,,,,,,,,,,,,,,,,,,,,,,,,,,,,,,,,,,,
590516,001,2022-11-21_24h54.42.006,Info_measure_main_exp,2022.2.2,Win32,60.22645146,,,,,,,,,,,,,,,,,,masks/mask_005.jpg,,,,,,,,,,,,,,,,,,,,,,,,,,,,,,,,,,,,,,,,,,,,,,,,0,4,4,4,1,,,,,,,,,,,,,,,,,,,,,,,,,,,,,,,,,,,,,,,,,
590516,001,2022-11-21_24h54.42.006,Info_measure_main_exp,2022.2.2,Win32,60.22645146,,,,,,,,,,,,,,,,,,,,,,,,,,,,,,7,0.6827,1,,,,,,,,,,,,0,131,5,5,1986,1950,absent_patch/patch0001986.jpg,absent_patch/patch0001950.jpg,,,,,,,,,,,,,,,,,,,,0.032407407,0.108333333,1,0,0,response1disk,20,-0.003703704,-0.010185185,1,0,0,center_square,0,19,19,15,1,,,,,,,,,,,,,,,,,,,,,,,
590516,001,2022-11-21_24h54.42.006,Info_measure_main_exp,2022.2.2,Win32,60.22645146,,,,,,,,,,,,,,,,,,masks/mask_004.jpg,,,,,,,,,,,,,,,,,,,,,,,,,,,,,,,,,,,,,,,,,,,0,0,0,3,1,,,,,,,,,,,,,,,,,,,,,,,,,,,,,,,,,,,,,,,,,,,,,,
590516,001,2022-11-21_24h54.42.006,Info_measure_main_exp,2022.2.2,Win32,60.22645146,,,,,,,,,,,,,,,,,,masks/mask_002.jpg,,,,,,,,,,,,,,,,,,,,,,,,,,,,,,,,,,,,,,,,,,,0,1,1,1,1,,,,,,,,,,,,,,,,,,,,,,,,,,,,,,,,,,,,,,,,,,,,,,
590516,001,2022-11-21_24h54.42.006,Info_measure_main_exp,2022.2.2,Win32,60.22645146,,,,,,,,,,,,,,,,,,masks/mask_003.jpg,,,,,,,,,,,,,,,,,,,,,,,,,,,,,,,,,,,,,,,,,,,0,2,2,2,1,,,,,,,,,,,,,,,,,,,,,,,,,,,,,,,,,,,,,,,,,,,,,,
590516,001,2022-11-21_24h54.42.006,Info_measure_main_exp,2022.2.2,Win32,60.22645146,,,,,,,,,,,,,,,,,,masks/mask_005.jpg,,,,,,,,,,,,,,,,,,,,,,,,,,,,,,,,,,,,,,,,,,,0,3,3,4,1,,,,,,,,,,,,,,,,,,,,,,,,,,,,,,,,,,,,,,,,,,,,,,
590516,001,2022-11-21_24h54.42.006,Info_measure_main_exp,2022.2.2,Win32,60.22645146,,,,,,,,,,,,,,,,,,masks/mask_001.jpg,,,,,,,,,,,,,,,,,,,,,,,,,,,,,,,,,,,,,,,,,,,0,4,4,0,1,,,,,,,,,,,,,,,,,,,,,,,,,,,,,,,,,,,,,,,,,,,,,,
590516,001,2022-11-21_24h54.42.006,Info_measure_main_exp,2022.2.2,Win32,60.22645146,,,,,,,,,,,,,,,,,,masks/mask_002.jpg,,,,,,,,,,,,,,,,,,,,,,,,,,,,,,,,,,,,,,,,,,,,,,,,0,0,0,1,1,,,,,,,,,,,,,,,,,,,,,,,,,,,,,,,,,,,,,,,,,
590516,001,2022-11-21_24h54.42.006,Info_measure_main_exp,2022.2.2,Win32,60.22645146,,,,,,,,,,,,,,,,,,masks/mask_005.jpg,,,,,,,,,,,,,,,,,,,,,,,,,,,,,,,,,,,,,,,,,,,,,,,,0,1,1,4,1,,,,,,,,,,,,,,,,,,,,,,,,,,,,,,,,,,,,,,,,,
590516,001,2022-11-21_24h54.42.006,Info_measure_main_exp,2022.2.2,Win32,60.22645146,,,,,,,,,,,,,,,,,,masks/mask_003.jpg,,,,,,,,,,,,,,,,,,,,,,,,,,,,,,,,,,,,,,,,,,,,,,,,0,2,2,2,1,,,,,,,,,,,,,,,,,,,,,,,,,,,,,,,,,,,,,,,,,
590516,001,2022-11-21_24h54.42.006,Info_measure_main_exp,2022.2.2,Win32,60.22645146,,,,,,,,,,,,,,,,,,masks/mask_001.jpg,,,,,,,,,,,,,,,,,,,,,,,,,,,,,,,,,,,,,,,,,,,,,,,,0,3,3,0,1,,,,,,,,,,,,,,,,,,,,,,,,,,,,,,,,,,,,,,,,,
590516,001,2022-11-21_24h54.42.006,Info_measure_main_exp,2022.2.2,Win32,60.22645146,,,,,,,,,,,,,,,,,,masks/mask_004.jpg,,,,,,,,,,,,,,,,,,,,,,,,,,,,,,,,,,,,,,,,,,,,,,,,0,4,4,3,1,,,,,,,,,,,,,,,,,,,,,,,,,,,,,,,,,,,,,,,,,
590516,001,2022-11-21_24h54.42.006,Info_measure_main_exp,2022.2.2,Win32,60.22645146,,,,,,,,,,,,,,,,,,,,,,,,,,,,,,3,1.1174,1,,,,,,,,,,,,0,131,5,5,2082,1986,absent_patch/patch0002082.jpg,absent_patch/patch0001986.jpg,,,,,,,,,,,,,,,,,,,,-0.016666667,-0.062037037,1,0,0,response5disk,21,-0.015740741,-0.001851852,1,0,0,center_square,0,20,20,94,1,,,,,,,,,,,,,,,,,,,,,,,
590516,001,2022-11-21_24h54.42.006,Info_measure_main_exp,2022.2.2,Win32,60.22645146,,,,,,,,,,,,,,,,,,masks/mask_002.jpg,,,,,,,,,,,,,,,,,,,,,,,,,,,,,,,,,,,,,,,,,,,0,0,0,1,1,,,,,,,,,,,,,,,,,,,,,,,,,,,,,,,,,,,,,,,,,,,,,,
590516,001,2022-11-21_24h54.42.006,Info_measure_main_exp,2022.2.2,Win32,60.22645146,,,,,,,,,,,,,,,,,,masks/mask_001.jpg,,,,,,,,,,,,,,,,,,,,,,,,,,,,,,,,,,,,,,,,,,,0,1,1,0,1,,,,,,,,,,,,,,,,,,,,,,,,,,,,,,,,,,,,,,,,,,,,,,
590516,001,2022-11-21_24h54.42.006,Info_measure_main_exp,2022.2.2,Win32,60.22645146,,,,,,,,,,,,,,,,,,masks/mask_005.jpg,,,,,,,,,,,,,,,,,,,,,,,,,,,,,,,,,,,,,,,,,,,0,2,2,4,1,,,,,,,,,,,,,,,,,,,,,,,,,,,,,,,,,,,,,,,,,,,,,,
590516,001,2022-11-21_24h54.42.006,Info_measure_main_exp,2022.2.2,Win32,60.22645146,,,,,,,,,,,,,,,,,,masks/mask_004.jpg,,,,,,,,,,,,,,,,,,,,,,,,,,,,,,,,,,,,,,,,,,,0,3,3,3,1,,,,,,,,,,,,,,,,,,,,,,,,,,,,,,,,,,,,,,,,,,,,,,
590516,001,2022-11-21_24h54.42.006,Info_measure_main_exp,2022.2.2,Win32,60.22645146,,,,,,,,,,,,,,,,,,masks/mask_003.jpg,,,,,,,,,,,,,,,,,,,,,,,,,,,,,,,,,,,,,,,,,,,0,4,4,2,1,,,,,,,,,,,,,,,,,,,,,,,,,,,,,,,,,,,,,,,,,,,,,,
590516,001,2022-11-21_24h54.42.006,Info_measure_main_exp,2022.2.2,Win32,60.22645146,,,,,,,,,,,,,,,,,,masks/mask_003.jpg,,,,,,,,,,,,,,,,,,,,,,,,,,,,,,,,,,,,,,,,,,,,,,,,0,0,0,2,1,,,,,,,,,,,,,,,,,,,,,,,,,,,,,,,,,,,,,,,,,
590516,001,2022-11-21_24h54.42.006,Info_measure_main_exp,2022.2.2,Win32,60.22645146,,,,,,,,,,,,,,,,,,masks/mask_002.jpg,,,,,,,,,,,,,,,,,,,,,,,,,,,,,,,,,,,,,,,,,,,,,,,,0,1,1,1,1,,,,,,,,,,,,,,,,,,,,,,,,,,,,,,,,,,,,,,,,,
590516,001,2022-11-21_24h54.42.006,Info_measure_main_exp,2022.2.2,Win32,60.22645146,,,,,,,,,,,,,,,,,,masks/mask_005.jpg,,,,,,,,,,,,,,,,,,,,,,,,,,,,,,,,,,,,,,,,,,,,,,,,0,2,2,4,1,,,,,,,,,,,,,,,,,,,,,,,,,,,,,,,,,,,,,,,,,
590516,001,2022-11-21_24h54.42.006,Info_measure_main_exp,2022.2.2,Win32,60.22645146,,,,,,,,,,,,,,,,,,masks/mask_004.jpg,,,,,,,,,,,,,,,,,,,,,,,,,,,,,,,,,,,,,,,,,,,,,,,,0,3,3,3,1,,,,,,,,,,,,,,,,,,,,,,,,,,,,,,,,,,,,,,,,,
590516,001,2022-11-21_24h54.42.006,Info_measure_main_exp,2022.2.2,Win32,60.22645146,,,,,,,,,,,,,,,,,,masks/mask_001.jpg,,,,,,,,,,,,,,,,,,,,,,,,,,,,,,,,,,,,,,,,,,,,,,,,0,4,4,0,1,,,,,,,,,,,,,,,,,,,,,,,,,,,,,,,,,,,,,,,,,
590516,001,2022-11-21_24h54.42.006,Info_measure_main_exp,2022.2.2,Win32,60.22645146,,,,,,,,,,,,,,,,,,,,,,,,,,,,,,4,0.8318,1,,,,,,,,,,,,0,131,5,5,2274,2154,absent_patch/patch0002274.jpg,absent_patch/patch0002154.jpg,,,,,,,,,,,,,,,,,,,,0.047222222,-0.060185185,1,0,0,response3disk,22,0.012962963,0.009259259,1,0,0,center_square,0,21,21,23,1,,,,,,,,,,,,,,,,,,,,,,,
590516,001,2022-11-21_24h54.42.006,Info_measure_main_exp,2022.2.2,Win32,60.22645146,,,,,,,,,,,,,,,,,,masks/mask_004.jpg,,,,,,,,,,,,,,,,,,,,,,,,,,,,,,,,,,,,,,,,,,,0,0,0,3,1,,,,,,,,,,,,,,,,,,,,,,,,,,,,,,,,,,,,,,,,,,,,,,
590516,001,2022-11-21_24h54.42.006,Info_measure_main_exp,2022.2.2,Win32,60.22645146,,,,,,,,,,,,,,,,,,masks/mask_001.jpg,,,,,,,,,,,,,,,,,,,,,,,,,,,,,,,,,,,,,,,,,,,0,1,1,0,1,,,,,,,,,,,,,,,,,,,,,,,,,,,,,,,,,,,,,,,,,,,,,,
590516,001,2022-11-21_24h54.42.006,Info_measure_main_exp,2022.2.2,Win32,60.22645146,,,,,,,,,,,,,,,,,,masks/mask_005.jpg,,,,,,,,,,,,,,,,,,,,,,,,,,,,,,,,,,,,,,,,,,,0,2,2,4,1,,,,,,,,,,,,,,,,,,,,,,,,,,,,,,,,,,,,,,,,,,,,,,
590516,001,2022-11-21_24h54.42.006,Info_measure_main_exp,2022.2.2,Win32,60.22645146,,,,,,,,,,,,,,,,,,masks/mask_002.jpg,,,,,,,,,,,,,,,,,,,,,,,,,,,,,,,,,,,,,,,,,,,0,3,3,1,1,,,,,,,,,,,,,,,,,,,,,,,,,,,,,,,,,,,,,,,,,,,,,,
590516,001,2022-11-21_24h54.42.006,Info_measure_main_exp,2022.2.2,Win32,60.22645146,,,,,,,,,,,,,,,,,,masks/mask_003.jpg,,,,,,,,,,,,,,,,,,,,,,,,,,,,,,,,,,,,,,,,,,,0,4,4,2,1,,,,,,,,,,,,,,,,,,,,,,,,,,,,,,,,,,,,,,,,,,,,,,
590516,001,2022-11-21_24h54.42.006,Info_measure_main_exp,2022.2.2,Win32,60.22645146,,,,,,,,,,,,,,,,,,masks/mask_004.jpg,,,,,,,,,,,,,,,,,,,,,,,,,,,,,,,,,,,,,,,,,,,,,,,,0,0,0,3,1,,,,,,,,,,,,,,,,,,,,,,,,,,,,,,,,,,,,,,,,,
590516,001,2022-11-21_24h54.42.006,Info_measure_main_exp,2022.2.2,Win32,60.22645146,,,,,,,,,,,,,,,,,,masks/mask_005.jpg,,,,,,,,,,,,,,,,,,,,,,,,,,,,,,,,,,,,,,,,,,,,,,,,0,1,1,4,1,,,,,,,,,,,,,,,,,,,,,,,,,,,,,,,,,,,,,,,,,
590516,001,2022-11-21_24h54.42.006,Info_measure_main_exp,2022.2.2,Win32,60.22645146,,,,,,,,,,,,,,,,,,masks/mask_003.jpg,,,,,,,,,,,,,,,,,,,,,,,,,,,,,,,,,,,,,,,,,,,,,,,,0,2,2,2,1,,,,,,,,,,,,,,,,,,,,,,,,,,,,,,,,,,,,,,,,,
590516,001,2022-11-21_24h54.42.006,Info_measure_main_exp,2022.2.2,Win32,60.22645146,,,,,,,,,,,,,,,,,,masks/mask_002.jpg,,,,,,,,,,,,,,,,,,,,,,,,,,,,,,,,,,,,,,,,,,,,,,,,0,3,3,1,1,,,,,,,,,,,,,,,,,,,,,,,,,,,,,,,,,,,,,,,,,
590516,001,2022-11-21_24h54.42.006,Info_measure_main_exp,2022.2.2,Win32,60.22645146,,,,,,,,,,,,,,,,,,masks/mask_001.jpg,,,,,,,,,,,,,,,,,,,,,,,,,,,,,,,,,,,,,,,,,,,,,,,,0,4,4,0,1,,,,,,,,,,,,,,,,,,,,,,,,,,,,,,,,,,,,,,,,,
590516,001,2022-11-21_24h54.42.006,Info_measure_main_exp,2022.2.2,Win32,60.22645146,,,,,,,,,,,,,,,,,,,,,,,,,,,,,,0,0.8,1,,,,,,,,,,,,0,131,5,5,1974,1950,absent_patch/patch0001974.jpg,absent_patch/patch0001950.jpg,,,,,,,,,,,,,,,,,,,,-0.025,0.090740741,1,0,0,response7disk,23,-0.001851852,0.007407407,1,0,0,center_square,0,22,22,17,1,,,,,,,,,,,,,,,,,,,,,,,
590516,001,2022-11-21_24h54.42.006,Info_measure_main_exp,2022.2.2,Win32,60.22645146,,,,,,,,,,,,,,,,,,masks/mask_001.jpg,,,,,,,,,,,,,,,,,,,,,,,,,,,,,,,,,,,,,,,,,,,0,0,0,0,1,,,,,,,,,,,,,,,,,,,,,,,,,,,,,,,,,,,,,,,,,,,,,,
590516,001,2022-11-21_24h54.42.006,Info_measure_main_exp,2022.2.2,Win32,60.22645146,,,,,,,,,,,,,,,,,,masks/mask_002.jpg,,,,,,,,,,,,,,,,,,,,,,,,,,,,,,,,,,,,,,,,,,,0,1,1,1,1,,,,,,,,,,,,,,,,,,,,,,,,,,,,,,,,,,,,,,,,,,,,,,
590516,001,2022-11-21_24h54.42.006,Info_measure_main_exp,2022.2.2,Win32,60.22645146,,,,,,,,,,,,,,,,,,masks/mask_005.jpg,,,,,,,,,,,,,,,,,,,,,,,,,,,,,,,,,,,,,,,,,,,0,2,2,4,1,,,,,,,,,,,,,,,,,,,,,,,,,,,,,,,,,,,,,,,,,,,,,,
590516,001,2022-11-21_24h54.42.006,Info_measure_main_exp,2022.2.2,Win32,60.22645146,,,,,,,,,,,,,,,,,,masks/mask_003.jpg,,,,,,,,,,,,,,,,,,,,,,,,,,,,,,,,,,,,,,,,,,,0,3,3,2,1,,,,,,,,,,,,,,,,,,,,,,,,,,,,,,,,,,,,,,,,,,,,,,
590516,001,2022-11-21_24h54.42.006,Info_measure_main_exp,2022.2.2,Win32,60.22645146,,,,,,,,,,,,,,,,,,masks/mask_004.jpg,,,,,,,,,,,,,,,,,,,,,,,,,,,,,,,,,,,,,,,,,,,0,4,4,3,1,,,,,,,,,,,,,,,,,,,,,,,,,,,,,,,,,,,,,,,,,,,,,,
590516,001,2022-11-21_24h54.42.006,Info_measure_main_exp,2022.2.2,Win32,60.22645146,,,,,,,,,,,,,,,,,,masks/mask_004.jpg,,,,,,,,,,,,,,,,,,,,,,,,,,,,,,,,,,,,,,,,,,,,,,,,0,0,0,3,1,,,,,,,,,,,,,,,,,,,,,,,,,,,,,,,,,,,,,,,,,
590516,001,2022-11-21_24h54.42.006,Info_measure_main_exp,2022.2.2,Win32,60.22645146,,,,,,,,,,,,,,,,,,masks/mask_001.jpg,,,,,,,,,,,,,,,,,,,,,,,,,,,,,,,,,,,,,,,,,,,,,,,,0,1,1,0,1,,,,,,,,,,,,,,,,,,,,,,,,,,,,,,,,,,,,,,,,,
590516,001,2022-11-21_24h54.42.006,Info_measure_main_exp,2022.2.2,Win32,60.22645146,,,,,,,,,,,,,,,,,,masks/mask_005.jpg,,,,,,,,,,,,,,,,,,,,,,,,,,,,,,,,,,,,,,,,,,,,,,,,0,2,2,4,1,,,,,,,,,,,,,,,,,,,,,,,,,,,,,,,,,,,,,,,,,
590516,001,2022-11-21_24h54.42.006,Info_measure_main_exp,2022.2.2,Win32,60.22645146,,,,,,,,,,,,,,,,,,masks/mask_002.jpg,,,,,,,,,,,,,,,,,,,,,,,,,,,,,,,,,,,,,,,,,,,,,,,,0,3,3,1,1,,,,,,,,,,,,,,,,,,,,,,,,,,,,,,,,,,,,,,,,,
590516,001,2022-11-21_24h54.42.006,Info_measure_main_exp,2022.2.2,Win32,60.22645146,,,,,,,,,,,,,,,,,,masks/mask_003.jpg,,,,,,,,,,,,,,,,,,,,,,,,,,,,,,,,,,,,,,,,,,,,,,,,0,4,4,2,1,,,,,,,,,,,,,,,,,,,,,,,,,,,,,,,,,,,,,,,,,
590516,001,2022-11-21_24h54.42.006,Info_measure_main_exp,2022.2.2,Win32,60.22645146,,,,,,,,,,,,,,,,,,,,,,,,,,,,,,4,0.5659,1,,,,,,,,,,,,0,131,5,5,2238,2298,absent_patch/patch0002238.jpg,absent_patch/patch0002298.jpg,,,,,,,,,,,,,,,,,,,,0.030555556,-0.087962963,1,0,0,response3disk,24,0.014814815,0.000925926,1,0,0,center_square,0,23,23,51,1,,,,,,,,,,,,,,,,,,,,,,,
590516,001,2022-11-21_24h54.42.006,Info_measure_main_exp,2022.2.2,Win32,60.22645146,,,,,,,,,,,,,,,,,,masks/mask_004.jpg,,,,,,,,,,,,,,,,,,,,,,,,,,,,,,,,,,,,,,,,,,,0,0,0,3,1,,,,,,,,,,,,,,,,,,,,,,,,,,,,,,,,,,,,,,,,,,,,,,
590516,001,2022-11-21_24h54.42.006,Info_measure_main_exp,2022.2.2,Win32,60.22645146,,,,,,,,,,,,,,,,,,masks/mask_002.jpg,,,,,,,,,,,,,,,,,,,,,,,,,,,,,,,,,,,,,,,,,,,0,1,1,1,1,,,,,,,,,,,,,,,,,,,,,,,,,,,,,,,,,,,,,,,,,,,,,,
590516,001,2022-11-21_24h54.42.006,Info_measure_main_exp,2022.2.2,Win32,60.22645146,,,,,,,,,,,,,,,,,,masks/mask_001.jpg,,,,,,,,,,,,,,,,,,,,,,,,,,,,,,,,,,,,,,,,,,,0,2,2,0,1,,,,,,,,,,,,,,,,,,,,,,,,,,,,,,,,,,,,,,,,,,,,,,
590516,001,2022-11-21_24h54.42.006,Info_measure_main_exp,2022.2.2,Win32,60.22645146,,,,,,,,,,,,,,,,,,masks/mask_003.jpg,,,,,,,,,,,,,,,,,,,,,,,,,,,,,,,,,,,,,,,,,,,0,3,3,2,1,,,,,,,,,,,,,,,,,,,,,,,,,,,,,,,,,,,,,,,,,,,,,,
590516,001,2022-11-21_24h54.42.006,Info_measure_main_exp,2022.2.2,Win32,60.22645146,,,,,,,,,,,,,,,,,,masks/mask_005.jpg,,,,,,,,,,,,,,,,,,,,,,,,,,,,,,,,,,,,,,,,,,,0,4,4,4,1,,,,,,,,,,,,,,,,,,,,,,,,,,,,,,,,,,,,,,,,,,,,,,
590516,001,2022-11-21_24h54.42.006,Info_measure_main_exp,2022.2.2,Win32,60.22645146,,,,,,,,,,,,,,,,,,masks/mask_002.jpg,,,,,,,,,,,,,,,,,,,,,,,,,,,,,,,,,,,,,,,,,,,,,,,,0,0,0,1,1,,,,,,,,,,,,,,,,,,,,,,,,,,,,,,,,,,,,,,,,,
590516,001,2022-11-21_24h54.42.006,Info_measure_main_exp,2022.2.2,Win32,60.22645146,,,,,,,,,,,,,,,,,,masks/mask_004.jpg,,,,,,,,,,,,,,,,,,,,,,,,,,,,,,,,,,,,,,,,,,,,,,,,0,1,1,3,1,,,,,,,,,,,,,,,,,,,,,,,,,,,,,,,,,,,,,,,,,
590516,001,2022-11-21_24h54.42.006,Info_measure_main_exp,2022.2.2,Win32,60.22645146,,,,,,,,,,,,,,,,,,masks/mask_001.jpg,,,,,,,,,,,,,,,,,,,,,,,,,,,,,,,,,,,,,,,,,,,,,,,,0,2,2,0,1,,,,,,,,,,,,,,,,,,,,,,,,,,,,,,,,,,,,,,,,,
590516,001,2022-11-21_24h54.42.006,Info_measure_main_exp,2022.2.2,Win32,60.22645146,,,,,,,,,,,,,,,,,,masks/mask_003.jpg,,,,,,,,,,,,,,,,,,,,,,,,,,,,,,,,,,,,,,,,,,,,,,,,0,3,3,2,1,,,,,,,,,,,,,,,,,,,,,,,,,,,,,,,,,,,,,,,,,
590516,001,2022-11-21_24h54.42.006,Info_measure_main_exp,2022.2.2,Win32,60.22645146,,,,,,,,,,,,,,,,,,masks/mask_005.jpg,,,,,,,,,,,,,,,,,,,,,,,,,,,,,,,,,,,,,,,,,,,,,,,,0,4,4,4,1,,,,,,,,,,,,,,,,,,,,,,,,,,,,,,,,,,,,,,,,,
590516,001,2022-11-21_24h54.42.006,Info_measure_main_exp,2022.2.2,Win32,60.22645146,,,,,,,,,,,,,,,,,,,,,,,,,,,,,,0,0.4163,1,,,,,,,,,,,,0,131,5,5,1986,1986,absent_patch/patch0001986.jpg,absent_patch/patch0001986.jpg,,,,,,,,,,,,,,,,,,,,-0.030555556,0.071296296,1,0,0,response7disk,25,-0.00462963,0.006481481,1,0,0,center_square,0,24,24,19,1,,,,,,,,,,,,,,,,,,,,,,,
590516,001,2022-11-21_24h54.42.006,Info_measure_main_exp,2022.2.2,Win32,60.22645146,,,,,,,,,,,,,,,,,,masks/mask_005.jpg,,,,,,,,,,,,,,,,,,,,,,,,,,,,,,,,,,,,,,,,,,,0,0,0,4,1,,,,,,,,,,,,,,,,,,,,,,,,,,,,,,,,,,,,,,,,,,,,,,
590516,001,2022-11-21_24h54.42.006,Info_measure_main_exp,2022.2.2,Win32,60.22645146,,,,,,,,,,,,,,,,,,masks/mask_001.jpg,,,,,,,,,,,,,,,,,,,,,,,,,,,,,,,,,,,,,,,,,,,0,1,1,0,1,,,,,,,,,,,,,,,,,,,,,,,,,,,,,,,,,,,,,,,,,,,,,,
590516,001,2022-11-21_24h54.42.006,Info_measure_main_exp,2022.2.2,Win32,60.22645146,,,,,,,,,,,,,,,,,,masks/mask_004.jpg,,,,,,,,,,,,,,,,,,,,,,,,,,,,,,,,,,,,,,,,,,,0,2,2,3,1,,,,,,,,,,,,,,,,,,,,,,,,,,,,,,,,,,,,,,,,,,,,,,
590516,001,2022-11-21_24h54.42.006,Info_measure_main_exp,2022.2.2,Win32,60.22645146,,,,,,,,,,,,,,,,,,masks/mask_003.jpg,,,,,,,,,,,,,,,,,,,,,,,,,,,,,,,,,,,,,,,,,,,0,3,3,2,1,,,,,,,,,,,,,,,,,,,,,,,,,,,,,,,,,,,,,,,,,,,,,,
590516,001,2022-11-21_24h54.42.006,Info_measure_main_exp,2022.2.2,Win32,60.22645146,,,,,,,,,,,,,,,,,,masks/mask_002.jpg,,,,,,,,,,,,,,,,,,,,,,,,,,,,,,,,,,,,,,,,,,,0,4,4,1,1,,,,,,,,,,,,,,,,,,,,,,,,,,,,,,,,,,,,,,,,,,,,,,
590516,001,2022-11-21_24h54.42.006,Info_measure_main_exp,2022.2.2,Win32,60.22645146,,,,,,,,,,,,,,,,,,masks/mask_004.jpg,,,,,,,,,,,,,,,,,,,,,,,,,,,,,,,,,,,,,,,,,,,,,,,,0,0,0,3,1,,,,,,,,,,,,,,,,,,,,,,,,,,,,,,,,,,,,,,,,,
590516,001,2022-11-21_24h54.42.006,Info_measure_main_exp,2022.2.2,Win32,60.22645146,,,,,,,,,,,,,,,,,,masks/mask_003.jpg,,,,,,,,,,,,,,,,,,,,,,,,,,,,,,,,,,,,,,,,,,,,,,,,0,1,1,2,1,,,,,,,,,,,,,,,,,,,,,,,,,,,,,,,,,,,,,,,,,
590516,001,2022-11-21_24h54.42.006,Info_measure_main_exp,2022.2.2,Win32,60.22645146,,,,,,,,,,,,,,,,,,masks/mask_002.jpg,,,,,,,,,,,,,,,,,,,,,,,,,,,,,,,,,,,,,,,,,,,,,,,,0,2,2,1,1,,,,,,,,,,,,,,,,,,,,,,,,,,,,,,,,,,,,,,,,,
590516,001,2022-11-21_24h54.42.006,Info_measure_main_exp,2022.2.2,Win32,60.22645146,,,,,,,,,,,,,,,,,,masks/mask_005.jpg,,,,,,,,,,,,,,,,,,,,,,,,,,,,,,,,,,,,,,,,,,,,,,,,0,3,3,4,1,,,,,,,,,,,,,,,,,,,,,,,,,,,,,,,,,,,,,,,,,
590516,001,2022-11-21_24h54.42.006,Info_measure_main_exp,2022.2.2,Win32,60.22645146,,,,,,,,,,,,,,,,,,masks/mask_001.jpg,,,,,,,,,,,,,,,,,,,,,,,,,,,,,,,,,,,,,,,,,,,,,,,,0,4,4,0,1,,,,,,,,,,,,,,,,,,,,,,,,,,,,,,,,,,,,,,,,,
590516,001,2022-11-21_24h54.42.006,Info_measure_main_exp,2022.2.2,Win32,60.22645146,,,,,,,,,,,,,,,,,,,,,,,,,,,,,,1,1.0992,1,,,,,,,,,,,,0,131,5,5,2142,2082,absent_patch/patch0002142.jpg,absent_patch/patch0002082.jpg,,,,,,,,,,,,,,,,,,,,-0.063888889,0.025925926,1,0,0,response7disk,26,0,-0.014814815,1,0,0,center_square,0,25,25,88,1,,,,,,,,,,,,,,,,,,,,,,,
590516,001,2022-11-21_24h54.42.006,Info_measure_main_exp,2022.2.2,Win32,60.22645146,,,,,,,,,,,,,,,,,,masks/mask_003.jpg,,,,,,,,,,,,,,,,,,,,,,,,,,,,,,,,,,,,,,,,,,,0,0,0,2,1,,,,,,,,,,,,,,,,,,,,,,,,,,,,,,,,,,,,,,,,,,,,,,
590516,001,2022-11-21_24h54.42.006,Info_measure_main_exp,2022.2.2,Win32,60.22645146,,,,,,,,,,,,,,,,,,masks/mask_005.jpg,,,,,,,,,,,,,,,,,,,,,,,,,,,,,,,,,,,,,,,,,,,0,1,1,4,1,,,,,,,,,,,,,,,,,,,,,,,,,,,,,,,,,,,,,,,,,,,,,,
590516,001,2022-11-21_24h54.42.006,Info_measure_main_exp,2022.2.2,Win32,60.22645146,,,,,,,,,,,,,,,,,,masks/mask_001.jpg,,,,,,,,,,,,,,,,,,,,,,,,,,,,,,,,,,,,,,,,,,,0,2,2,0,1,,,,,,,,,,,,,,,,,,,,,,,,,,,,,,,,,,,,,,,,,,,,,,
590516,001,2022-11-21_24h54.42.006,Info_measure_main_exp,2022.2.2,Win32,60.22645146,,,,,,,,,,,,,,,,,,masks/mask_004.jpg,,,,,,,,,,,,,,,,,,,,,,,,,,,,,,,,,,,,,,,,,,,0,3,3,3,1,,,,,,,,,,,,,,,,,,,,,,,,,,,,,,,,,,,,,,,,,,,,,,
590516,001,2022-11-21_24h54.42.006,Info_measure_main_exp,2022.2.2,Win32,60.22645146,,,,,,,,,,,,,,,,,,masks/mask_002.jpg,,,,,,,,,,,,,,,,,,,,,,,,,,,,,,,,,,,,,,,,,,,0,4,4,1,1,,,,,,,,,,,,,,,,,,,,,,,,,,,,,,,,,,,,,,,,,,,,,,
590516,001,2022-11-21_24h54.42.006,Info_measure_main_exp,2022.2.2,Win32,60.22645146,,,,,,,,,,,,,,,,,,masks/mask_005.jpg,,,,,,,,,,,,,,,,,,,,,,,,,,,,,,,,,,,,,,,,,,,,,,,,0,0,0,4,1,,,,,,,,,,,,,,,,,,,,,,,,,,,,,,,,,,,,,,,,,
590516,001,2022-11-21_24h54.42.006,Info_measure_main_exp,2022.2.2,Win32,60.22645146,,,,,,,,,,,,,,,,,,masks/mask_003.jpg,,,,,,,,,,,,,,,,,,,,,,,,,,,,,,,,,,,,,,,,,,,,,,,,0,1,1,2,1,,,,,,,,,,,,,,,,,,,,,,,,,,,,,,,,,,,,,,,,,
590516,001,2022-11-21_24h54.42.006,Info_measure_main_exp,2022.2.2,Win32,60.22645146,,,,,,,,,,,,,,,,,,masks/mask_002.jpg,,,,,,,,,,,,,,,,,,,,,,,,,,,,,,,,,,,,,,,,,,,,,,,,0,2,2,1,1,,,,,,,,,,,,,,,,,,,,,,,,,,,,,,,,,,,,,,,,,
590516,001,2022-11-21_24h54.42.006,Info_measure_main_exp,2022.2.2,Win32,60.22645146,,,,,,,,,,,,,,,,,,masks/mask_004.jpg,,,,,,,,,,,,,,,,,,,,,,,,,,,,,,,,,,,,,,,,,,,,,,,,0,3,3,3,1,,,,,,,,,,,,,,,,,,,,,,,,,,,,,,,,,,,,,,,,,
590516,001,2022-11-21_24h54.42.006,Info_measure_main_exp,2022.2.2,Win32,60.22645146,,,,,,,,,,,,,,,,,,masks/mask_001.jpg,,,,,,,,,,,,,,,,,,,,,,,,,,,,,,,,,,,,,,,,,,,,,,,,0,4,4,0,1,,,,,,,,,,,,,,,,,,,,,,,,,,,,,,,,,,,,,,,,,
590516,001,2022-11-21_24h54.42.006,Info_measure_main_exp,2022.2.2,Win32,60.22645146,,,,,,,,,,,,,,,,,,,,,,,,,,,,,,3,0.3989,1,,,,,,,,,,,,0,131,5,5,1986,2274,absent_patch/patch0001986.jpg,absent_patch/patch0002274.jpg,,,,,,,,,,,,,,,,,,,,-0.040740741,-0.075,1,0,0,response5disk,27,-0.00462963,0.005555556,1,0,0,center_square,0,26,26,7,1,,,,,,,,,,,,,,,,,,,,,,,
590516,001,2022-11-21_24h54.42.006,Info_measure_main_exp,2022.2.2,Win32,60.22645146,,,,,,,,,,,,,,,,,,masks/mask_001.jpg,,,,,,,,,,,,,,,,,,,,,,,,,,,,,,,,,,,,,,,,,,,0,0,0,0,1,,,,,,,,,,,,,,,,,,,,,,,,,,,,,,,,,,,,,,,,,,,,,,
590516,001,2022-11-21_24h54.42.006,Info_measure_main_exp,2022.2.2,Win32,60.22645146,,,,,,,,,,,,,,,,,,masks/mask_002.jpg,,,,,,,,,,,,,,,,,,,,,,,,,,,,,,,,,,,,,,,,,,,0,1,1,1,1,,,,,,,,,,,,,,,,,,,,,,,,,,,,,,,,,,,,,,,,,,,,,,
590516,001,2022-11-21_24h54.42.006,Info_measure_main_exp,2022.2.2,Win32,60.22645146,,,,,,,,,,,,,,,,,,masks/mask_004.jpg,,,,,,,,,,,,,,,,,,,,,,,,,,,,,,,,,,,,,,,,,,,0,2,2,3,1,,,,,,,,,,,,,,,,,,,,,,,,,,,,,,,,,,,,,,,,,,,,,,
590516,001,2022-11-21_24h54.42.006,Info_measure_main_exp,2022.2.2,Win32,60.22645146,,,,,,,,,,,,,,,,,,masks/mask_003.jpg,,,,,,,,,,,,,,,,,,,,,,,,,,,,,,,,,,,,,,,,,,,0,3,3,2,1,,,,,,,,,,,,,,,,,,,,,,,,,,,,,,,,,,,,,,,,,,,,,,
590516,001,2022-11-21_24h54.42.006,Info_measure_main_exp,2022.2.2,Win32,60.22645146,,,,,,,,,,,,,,,,,,masks/mask_005.jpg,,,,,,,,,,,,,,,,,,,,,,,,,,,,,,,,,,,,,,,,,,,0,4,4,4,1,,,,,,,,,,,,,,,,,,,,,,,,,,,,,,,,,,,,,,,,,,,,,,
590516,001,2022-11-21_24h54.42.006,Info_measure_main_exp,2022.2.2,Win32,60.22645146,,,,,,,,,,,,,,,,,,masks/mask_001.jpg,,,,,,,,,,,,,,,,,,,,,,,,,,,,,,,,,,,,,,,,,,,,,,,,0,0,0,0,1,,,,,,,,,,,,,,,,,,,,,,,,,,,,,,,,,,,,,,,,,
590516,001,2022-11-21_24h54.42.006,Info_measure_main_exp,2022.2.2,Win32,60.22645146,,,,,,,,,,,,,,,,,,masks/mask_005.jpg,,,,,,,,,,,,,,,,,,,,,,,,,,,,,,,,,,,,,,,,,,,,,,,,0,1,1,4,1,,,,,,,,,,,,,,,,,,,,,,,,,,,,,,,,,,,,,,,,,
590516,001,2022-11-21_24h54.42.006,Info_measure_main_exp,2022.2.2,Win32,60.22645146,,,,,,,,,,,,,,,,,,masks/mask_003.jpg,,,,,,,,,,,,,,,,,,,,,,,,,,,,,,,,,,,,,,,,,,,,,,,,0,2,2,2,1,,,,,,,,,,,,,,,,,,,,,,,,,,,,,,,,,,,,,,,,,
590516,001,2022-11-21_24h54.42.006,Info_measure_main_exp,2022.2.2,Win32,60.22645146,,,,,,,,,,,,,,,,,,masks/mask_004.jpg,,,,,,,,,,,,,,,,,,,,,,,,,,,,,,,,,,,,,,,,,,,,,,,,0,3,3,3,1,,,,,,,,,,,,,,,,,,,,,,,,,,,,,,,,,,,,,,,,,
590516,001,2022-11-21_24h54.42.006,Info_measure_main_exp,2022.2.2,Win32,60.22645146,,,,,,,,,,,,,,,,,,masks/mask_002.jpg,,,,,,,,,,,,,,,,,,,,,,,,,,,,,,,,,,,,,,,,,,,,,,,,0,4,4,1,1,,,,,,,,,,,,,,,,,,,,,,,,,,,,,,,,,,,,,,,,,
590516,001,2022-11-21_24h54.42.006,Info_measure_main_exp,2022.2.2,Win32,60.22645146,,,,,,,,,,,,,,,,,,,,,,,,,,,,,,4,0.3176,1,,,,,,,,,,,,0,131,5,5,2154,2238,absent_patch/patch0002154.jpg,absent_patch/patch0002238.jpg,,,,,,,,,,,,,,,,,,,,0.028703704,-0.092592593,1,0,0,response3disk,28,0.007407407,0.007407407,1,0,0,center_square,0,27,27,21,1,,,,,,,,,,,,,,,,,,,,,,,
590516,001,2022-11-21_24h54.42.006,Info_measure_main_exp,2022.2.2,Win32,60.22645146,,,,,,,,,,,,,,,,,,masks/mask_003.jpg,,,,,,,,,,,,,,,,,,,,,,,,,,,,,,,,,,,,,,,,,,,0,0,0,2,1,,,,,,,,,,,,,,,,,,,,,,,,,,,,,,,,,,,,,,,,,,,,,,
590516,001,2022-11-21_24h54.42.006,Info_measure_main_exp,2022.2.2,Win32,60.22645146,,,,,,,,,,,,,,,,,,masks/mask_001.jpg,,,,,,,,,,,,,,,,,,,,,,,,,,,,,,,,,,,,,,,,,,,0,1,1,0,1,,,,,,,,,,,,,,,,,,,,,,,,,,,,,,,,,,,,,,,,,,,,,,
590516,001,2022-11-21_24h54.42.006,Info_measure_main_exp,2022.2.2,Win32,60.22645146,,,,,,,,,,,,,,,,,,masks/mask_002.jpg,,,,,,,,,,,,,,,,,,,,,,,,,,,,,,,,,,,,,,,,,,,0,2,2,1,1,,,,,,,,,,,,,,,,,,,,,,,,,,,,,,,,,,,,,,,,,,,,,,
590516,001,2022-11-21_24h54.42.006,Info_measure_main_exp,2022.2.2,Win32,60.22645146,,,,,,,,,,,,,,,,,,masks/mask_005.jpg,,,,,,,,,,,,,,,,,,,,,,,,,,,,,,,,,,,,,,,,,,,0,3,3,4,1,,,,,,,,,,,,,,,,,,,,,,,,,,,,,,,,,,,,,,,,,,,,,,
590516,001,2022-11-21_24h54.42.006,Info_measure_main_exp,2022.2.2,Win32,60.22645146,,,,,,,,,,,,,,,,,,masks/mask_004.jpg,,,,,,,,,,,,,,,,,,,,,,,,,,,,,,,,,,,,,,,,,,,0,4,4,3,1,,,,,,,,,,,,,,,,,,,,,,,,,,,,,,,,,,,,,,,,,,,,,,
590516,001,2022-11-21_24h54.42.006,Info_measure_main_exp,2022.2.2,Win32,60.22645146,,,,,,,,,,,,,,,,,,masks/mask_005.jpg,,,,,,,,,,,,,,,,,,,,,,,,,,,,,,,,,,,,,,,,,,,,,,,,0,0,0,4,1,,,,,,,,,,,,,,,,,,,,,,,,,,,,,,,,,,,,,,,,,
590516,001,2022-11-21_24h54.42.006,Info_measure_main_exp,2022.2.2,Win32,60.22645146,,,,,,,,,,,,,,,,,,masks/mask_003.jpg,,,,,,,,,,,,,,,,,,,,,,,,,,,,,,,,,,,,,,,,,,,,,,,,0,1,1,2,1,,,,,,,,,,,,,,,,,,,,,,,,,,,,,,,,,,,,,,,,,
590516,001,2022-11-21_24h54.42.006,Info_measure_main_exp,2022.2.2,Win32,60.22645146,,,,,,,,,,,,,,,,,,masks/mask_001.jpg,,,,,,,,,,,,,,,,,,,,,,,,,,,,,,,,,,,,,,,,,,,,,,,,0,2,2,0,1,,,,,,,,,,,,,,,,,,,,,,,,,,,,,,,,,,,,,,,,,
590516,001,2022-11-21_24h54.42.006,Info_measure_main_exp,2022.2.2,Win32,60.22645146,,,,,,,,,,,,,,,,,,masks/mask_004.jpg,,,,,,,,,,,,,,,,,,,,,,,,,,,,,,,,,,,,,,,,,,,,,,,,0,3,3,3,1,,,,,,,,,,,,,,,,,,,,,,,,,,,,,,,,,,,,,,,,,
590516,001,2022-11-21_24h54.42.006,Info_measure_main_exp,2022.2.2,Win32,60.22645146,,,,,,,,,,,,,,,,,,masks/mask_002.jpg,,,,,,,,,,,,,,,,,,,,,,,,,,,,,,,,,,,,,,,,,,,,,,,,0,4,4,1,1,,,,,,,,,,,,,,,,,,,,,,,,,,,,,,,,,,,,,,,,,
590516,001,2022-11-21_24h54.42.006,Info_measure_main_exp,2022.2.2,Win32,60.22645146,,,,,,,,,,,,,,,,,,,,,,,,,,,,,,3,0.4993,1,,,,,,,,,,,,0,131,5,5,2274,2142,absent_patch/patch0002274.jpg,absent_patch/patch0002142.jpg,,,,,,,,,,,,,,,,,,,,-0.008333333,-0.059259259,1,0,0,response5disk,29,0.002777778,-0.00462963,1,0,0,center_square,0,28,28,75,1,,,,,,,,,,,,,,,,,,,,,,,
590516,001,2022-11-21_24h54.42.006,Info_measure_main_exp,2022.2.2,Win32,60.22645146,,,,,,,,,,,,,,,,,,masks/mask_005.jpg,,,,,,,,,,,,,,,,,,,,,,,,,,,,,,,,,,,,,,,,,,,0,0,0,4,1,,,,,,,,,,,,,,,,,,,,,,,,,,,,,,,,,,,,,,,,,,,,,,
590516,001,2022-11-21_24h54.42.006,Info_measure_main_exp,2022.2.2,Win32,60.22645146,,,,,,,,,,,,,,,,,,masks/mask_002.jpg,,,,,,,,,,,,,,,,,,,,,,,,,,,,,,,,,,,,,,,,,,,0,1,1,1,1,,,,,,,,,,,,,,,,,,,,,,,,,,,,,,,,,,,,,,,,,,,,,,
590516,001,2022-11-21_24h54.42.006,Info_measure_main_exp,2022.2.2,Win32,60.22645146,,,,,,,,,,,,,,,,,,masks/mask_004.jpg,,,,,,,,,,,,,,,,,,,,,,,,,,,,,,,,,,,,,,,,,,,0,2,2,3,1,,,,,,,,,,,,,,,,,,,,,,,,,,,,,,,,,,,,,,,,,,,,,,
590516,001,2022-11-21_24h54.42.006,Info_measure_main_exp,2022.2.2,Win32,60.22645146,,,,,,,,,,,,,,,,,,masks/mask_001.jpg,,,,,,,,,,,,,,,,,,,,,,,,,,,,,,,,,,,,,,,,,,,0,3,3,0,1,,,,,,,,,,,,,,,,,,,,,,,,,,,,,,,,,,,,,,,,,,,,,,
590516,001,2022-11-21_24h54.42.006,Info_measure_main_exp,2022.2.2,Win32,60.22645146,,,,,,,,,,,,,,,,,,masks/mask_003.jpg,,,,,,,,,,,,,,,,,,,,,,,,,,,,,,,,,,,,,,,,,,,0,4,4,2,1,,,,,,,,,,,,,,,,,,,,,,,,,,,,,,,,,,,,,,,,,,,,,,
590516,001,2022-11-21_24h54.42.006,Info_measure_main_exp,2022.2.2,Win32,60.22645146,,,,,,,,,,,,,,,,,,masks/mask_002.jpg,,,,,,,,,,,,,,,,,,,,,,,,,,,,,,,,,,,,,,,,,,,,,,,,0,0,0,1,1,,,,,,,,,,,,,,,,,,,,,,,,,,,,,,,,,,,,,,,,,
590516,001,2022-11-21_24h54.42.006,Info_measure_main_exp,2022.2.2,Win32,60.22645146,,,,,,,,,,,,,,,,,,masks/mask_003.jpg,,,,,,,,,,,,,,,,,,,,,,,,,,,,,,,,,,,,,,,,,,,,,,,,0,1,1,2,1,,,,,,,,,,,,,,,,,,,,,,,,,,,,,,,,,,,,,,,,,
590516,001,2022-11-21_24h54.42.006,Info_measure_main_exp,2022.2.2,Win32,60.22645146,,,,,,,,,,,,,,,,,,masks/mask_005.jpg,,,,,,,,,,,,,,,,,,,,,,,,,,,,,,,,,,,,,,,,,,,,,,,,0,2,2,4,1,,,,,,,,,,,,,,,,,,,,,,,,,,,,,,,,,,,,,,,,,
590516,001,2022-11-21_24h54.42.006,Info_measure_main_exp,2022.2.2,Win32,60.22645146,,,,,,,,,,,,,,,,,,masks/mask_004.jpg,,,,,,,,,,,,,,,,,,,,,,,,,,,,,,,,,,,,,,,,,,,,,,,,0,3,3,3,1,,,,,,,,,,,,,,,,,,,,,,,,,,,,,,,,,,,,,,,,,
590516,001,2022-11-21_24h54.42.006,Info_measure_main_exp,2022.2.2,Win32,60.22645146,,,,,,,,,,,,,,,,,,masks/mask_001.jpg,,,,,,,,,,,,,,,,,,,,,,,,,,,,,,,,,,,,,,,,,,,,,,,,0,4,4,0,1,,,,,,,,,,,,,,,,,,,,,,,,,,,,,,,,,,,,,,,,,
590516,001,2022-11-21_24h54.42.006,Info_measure_main_exp,2022.2.2,Win32,60.22645146,,,,,,,,,,,,,,,,,,,,,,,,,,,,,,0,0.4163,1,,,,,,,,,,,,0,131,5,5,2238,2238,absent_patch/patch0002238.jpg,absent_patch/patch0002238.jpg,,,,,,,,,,,,,,,,,,,,-0.064814815,0.118518519,1,0,0,response7disk,30,-0.009259259,0.011111111,1,0,0,center_square,0,29,29,58,1,,,,,,,,,,,,,,,,,,,,,,,
590516,001,2022-11-21_24h54.42.006,Info_measure_main_exp,2022.2.2,Win32,60.22645146,,,,,,,,,,,,,,,,,,masks/mask_003.jpg,,,,,,,,,,,,,,,,,,,,,,,,,,,,,,,,,,,,,,,,,,,0,0,0,2,1,,,,,,,,,,,,,,,,,,,,,,,,,,,,,,,,,,,,,,,,,,,,,,
590516,001,2022-11-21_24h54.42.006,Info_measure_main_exp,2022.2.2,Win32,60.22645146,,,,,,,,,,,,,,,,,,masks/mask_004.jpg,,,,,,,,,,,,,,,,,,,,,,,,,,,,,,,,,,,,,,,,,,,0,1,1,3,1,,,,,,,,,,,,,,,,,,,,,,,,,,,,,,,,,,,,,,,,,,,,,,
590516,001,2022-11-21_24h54.42.006,Info_measure_main_exp,2022.2.2,Win32,60.22645146,,,,,,,,,,,,,,,,,,masks/mask_005.jpg,,,,,,,,,,,,,,,,,,,,,,,,,,,,,,,,,,,,,,,,,,,0,2,2,4,1,,,,,,,,,,,,,,,,,,,,,,,,,,,,,,,,,,,,,,,,,,,,,,
590516,001,2022-11-21_24h54.42.006,Info_measure_main_exp,2022.2.2,Win32,60.22645146,,,,,,,,,,,,,,,,,,masks/mask_001.jpg,,,,,,,,,,,,,,,,,,,,,,,,,,,,,,,,,,,,,,,,,,,0,3,3,0,1,,,,,,,,,,,,,,,,,,,,,,,,,,,,,,,,,,,,,,,,,,,,,,
590516,001,2022-11-21_24h54.42.006,Info_measure_main_exp,2022.2.2,Win32,60.22645146,,,,,,,,,,,,,,,,,,masks/mask_002.jpg,,,,,,,,,,,,,,,,,,,,,,,,,,,,,,,,,,,,,,,,,,,0,4,4,1,1,,,,,,,,,,,,,,,,,,,,,,,,,,,,,,,,,,,,,,,,,,,,,,
590516,001,2022-11-21_24h54.42.006,Info_measure_main_exp,2022.2.2,Win32,60.22645146,,,,,,,,,,,,,,,,,,masks/mask_004.jpg,,,,,,,,,,,,,,,,,,,,,,,,,,,,,,,,,,,,,,,,,,,,,,,,0,0,0,3,1,,,,,,,,,,,,,,,,,,,,,,,,,,,,,,,,,,,,,,,,,
590516,001,2022-11-21_24h54.42.006,Info_measure_main_exp,2022.2.2,Win32,60.22645146,,,,,,,,,,,,,,,,,,masks/mask_003.jpg,,,,,,,,,,,,,,,,,,,,,,,,,,,,,,,,,,,,,,,,,,,,,,,,0,1,1,2,1,,,,,,,,,,,,,,,,,,,,,,,,,,,,,,,,,,,,,,,,,
590516,001,2022-11-21_24h54.42.006,Info_measure_main_exp,2022.2.2,Win32,60.22645146,,,,,,,,,,,,,,,,,,masks/mask_001.jpg,,,,,,,,,,,,,,,,,,,,,,,,,,,,,,,,,,,,,,,,,,,,,,,,0,2,2,0,1,,,,,,,,,,,,,,,,,,,,,,,,,,,,,,,,,,,,,,,,,
590516,001,2022-11-21_24h54.42.006,Info_measure_main_exp,2022.2.2,Win32,60.22645146,,,,,,,,,,,,,,,,,,masks/mask_002.jpg,,,,,,,,,,,,,,,,,,,,,,,,,,,,,,,,,,,,,,,,,,,,,,,,0,3,3,1,1,,,,,,,,,,,,,,,,,,,,,,,,,,,,,,,,,,,,,,,,,
590516,001,2022-11-21_24h54.42.006,Info_measure_main_exp,2022.2.2,Win32,60.22645146,,,,,,,,,,,,,,,,,,masks/mask_005.jpg,,,,,,,,,,,,,,,,,,,,,,,,,,,,,,,,,,,,,,,,,,,,,,,,0,4,4,4,1,,,,,,,,,,,,,,,,,,,,,,,,,,,,,,,,,,,,,,,,,
590516,001,2022-11-21_24h54.42.006,Info_measure_main_exp,2022.2.2,Win32,60.22645146,,,,,,,,,,,,,,,,,,,,,,,,,,,,,,3,0.6832,1,,,,,,,,,,,,1,131,5,5,1,1986,present_patch/cong_131_5_a.jpg,absent_patch/patch0001986.jpg,,,,,,,,,,,,,,,,,,,,-0.022222222,-0.061111111,1,0,0,response5disk,31,0.001851852,0.015740741,1,0,0,center_square,0,30,30,106,1,,,,,,,,,,,,,,,,,,,,,,,
590516,001,2022-11-21_24h54.42.006,Info_measure_main_exp,2022.2.2,Win32,60.22645146,,,,,,,,,,,,,,,,,,masks/mask_003.jpg,,,,,,,,,,,,,,,,,,,,,,,,,,,,,,,,,,,,,,,,,,,0,0,0,2,1,,,,,,,,,,,,,,,,,,,,,,,,,,,,,,,,,,,,,,,,,,,,,,
590516,001,2022-11-21_24h54.42.006,Info_measure_main_exp,2022.2.2,Win32,60.22645146,,,,,,,,,,,,,,,,,,masks/mask_005.jpg,,,,,,,,,,,,,,,,,,,,,,,,,,,,,,,,,,,,,,,,,,,0,1,1,4,1,,,,,,,,,,,,,,,,,,,,,,,,,,,,,,,,,,,,,,,,,,,,,,
590516,001,2022-11-21_24h54.42.006,Info_measure_main_exp,2022.2.2,Win32,60.22645146,,,,,,,,,,,,,,,,,,masks/mask_004.jpg,,,,,,,,,,,,,,,,,,,,,,,,,,,,,,,,,,,,,,,,,,,0,2,2,3,1,,,,,,,,,,,,,,,,,,,,,,,,,,,,,,,,,,,,,,,,,,,,,,
590516,001,2022-11-21_24h54.42.006,Info_measure_main_exp,2022.2.2,Win32,60.22645146,,,,,,,,,,,,,,,,,,masks/mask_002.jpg,,,,,,,,,,,,,,,,,,,,,,,,,,,,,,,,,,,,,,,,,,,0,3,3,1,1,,,,,,,,,,,,,,,,,,,,,,,,,,,,,,,,,,,,,,,,,,,,,,
590516,001,2022-11-21_24h54.42.006,Info_measure_main_exp,2022.2.2,Win32,60.22645146,,,,,,,,,,,,,,,,,,masks/mask_001.jpg,,,,,,,,,,,,,,,,,,,,,,,,,,,,,,,,,,,,,,,,,,,0,4,4,0,1,,,,,,,,,,,,,,,,,,,,,,,,,,,,,,,,,,,,,,,,,,,,,,
590516,001,2022-11-21_24h54.42.006,Info_measure_main_exp,2022.2.2,Win32,60.22645146,,,,,,,,,,,,,,,,,,masks/mask_004.jpg,,,,,,,,,,,,,,,,,,,,,,,,,,,,,,,,,,,,,,,,,,,,,,,,0,0,0,3,1,,,,,,,,,,,,,,,,,,,,,,,,,,,,,,,,,,,,,,,,,
590516,001,2022-11-21_24h54.42.006,Info_measure_main_exp,2022.2.2,Win32,60.22645146,,,,,,,,,,,,,,,,,,masks/mask_001.jpg,,,,,,,,,,,,,,,,,,,,,,,,,,,,,,,,,,,,,,,,,,,,,,,,0,1,1,0,1,,,,,,,,,,,,,,,,,,,,,,,,,,,,,,,,,,,,,,,,,
590516,001,2022-11-21_24h54.42.006,Info_measure_main_exp,2022.2.2,Win32,60.22645146,,,,,,,,,,,,,,,,,,masks/mask_005.jpg,,,,,,,,,,,,,,,,,,,,,,,,,,,,,,,,,,,,,,,,,,,,,,,,0,2,2,4,1,,,,,,,,,,,,,,,,,,,,,,,,,,,,,,,,,,,,,,,,,
590516,001,2022-11-21_24h54.42.006,Info_measure_main_exp,2022.2.2,Win32,60.22645146,,,,,,,,,,,,,,,,,,masks/mask_003.jpg,,,,,,,,,,,,,,,,,,,,,,,,,,,,,,,,,,,,,,,,,,,,,,,,0,3,3,2,1,,,,,,,,,,,,,,,,,,,,,,,,,,,,,,,,,,,,,,,,,
590516,001,2022-11-21_24h54.42.006,Info_measure_main_exp,2022.2.2,Win32,60.22645146,,,,,,,,,,,,,,,,,,masks/mask_002.jpg,,,,,,,,,,,,,,,,,,,,,,,,,,,,,,,,,,,,,,,,,,,,,,,,0,4,4,1,1,,,,,,,,,,,,,,,,,,,,,,,,,,,,,,,,,,,,,,,,,
590516,001,2022-11-21_24h54.42.006,Info_measure_main_exp,2022.2.2,Win32,60.22645146,,,,,,,,,,,,,,,,,,,,,,,,,,,,,,3,0.7153,1,,,,,,,,,,,,0,131,5,5,2298,2214,absent_patch/patch0002298.jpg,absent_patch/patch0002214.jpg,,,,,,,,,,,,,,,,,,,,-0.016666667,-0.051851852,1,0,0,response5disk,32,-0.007407407,0,1,0,0,center_square,0,31,31,99,1,,,,,,,,,,,,,,,,,,,,,,,
590516,001,2022-11-21_24h54.42.006,Info_measure_main_exp,2022.2.2,Win32,60.22645146,,,,,,,,,,,,,,,,,,masks/mask_003.jpg,,,,,,,,,,,,,,,,,,,,,,,,,,,,,,,,,,,,,,,,,,,0,0,0,2,1,,,,,,,,,,,,,,,,,,,,,,,,,,,,,,,,,,,,,,,,,,,,,,
590516,001,2022-11-21_24h54.42.006,Info_measure_main_exp,2022.2.2,Win32,60.22645146,,,,,,,,,,,,,,,,,,masks/mask_002.jpg,,,,,,,,,,,,,,,,,,,,,,,,,,,,,,,,,,,,,,,,,,,0,1,1,1,1,,,,,,,,,,,,,,,,,,,,,,,,,,,,,,,,,,,,,,,,,,,,,,
590516,001,2022-11-21_24h54.42.006,Info_measure_main_exp,2022.2.2,Win32,60.22645146,,,,,,,,,,,,,,,,,,masks/mask_005.jpg,,,,,,,,,,,,,,,,,,,,,,,,,,,,,,,,,,,,,,,,,,,0,2,2,4,1,,,,,,,,,,,,,,,,,,,,,,,,,,,,,,,,,,,,,,,,,,,,,,
590516,001,2022-11-21_24h54.42.006,Info_measure_main_exp,2022.2.2,Win32,60.22645146,,,,,,,,,,,,,,,,,,masks/mask_004.jpg,,,,,,,,,,,,,,,,,,,,,,,,,,,,,,,,,,,,,,,,,,,0,3,3,3,1,,,,,,,,,,,,,,,,,,,,,,,,,,,,,,,,,,,,,,,,,,,,,,
590516,001,2022-11-21_24h54.42.006,Info_measure_main_exp,2022.2.2,Win32,60.22645146,,,,,,,,,,,,,,,,,,masks/mask_001.jpg,,,,,,,,,,,,,,,,,,,,,,,,,,,,,,,,,,,,,,,,,,,0,4,4,0,1,,,,,,,,,,,,,,,,,,,,,,,,,,,,,,,,,,,,,,,,,,,,,,
590516,001,2022-11-21_24h54.42.006,Info_measure_main_exp,2022.2.2,Win32,60.22645146,,,,,,,,,,,,,,,,,,masks/mask_005.jpg,,,,,,,,,,,,,,,,,,,,,,,,,,,,,,,,,,,,,,,,,,,,,,,,0,0,0,4,1,,,,,,,,,,,,,,,,,,,,,,,,,,,,,,,,,,,,,,,,,
590516,001,2022-11-21_24h54.42.006,Info_measure_main_exp,2022.2.2,Win32,60.22645146,,,,,,,,,,,,,,,,,,masks/mask_002.jpg,,,,,,,,,,,,,,,,,,,,,,,,,,,,,,,,,,,,,,,,,,,,,,,,0,1,1,1,1,,,,,,,,,,,,,,,,,,,,,,,,,,,,,,,,,,,,,,,,,
590516,001,2022-11-21_24h54.42.006,Info_measure_main_exp,2022.2.2,Win32,60.22645146,,,,,,,,,,,,,,,,,,masks/mask_004.jpg,,,,,,,,,,,,,,,,,,,,,,,,,,,,,,,,,,,,,,,,,,,,,,,,0,2,2,3,1,,,,,,,,,,,,,,,,,,,,,,,,,,,,,,,,,,,,,,,,,
590516,001,2022-11-21_24h54.42.006,Info_measure_main_exp,2022.2.2,Win32,60.22645146,,,,,,,,,,,,,,,,,,masks/mask_003.jpg,,,,,,,,,,,,,,,,,,,,,,,,,,,,,,,,,,,,,,,,,,,,,,,,0,3,3,2,1,,,,,,,,,,,,,,,,,,,,,,,,,,,,,,,,,,,,,,,,,
590516,001,2022-11-21_24h54.42.006,Info_measure_main_exp,2022.2.2,Win32,60.22645146,,,,,,,,,,,,,,,,,,masks/mask_001.jpg,,,,,,,,,,,,,,,,,,,,,,,,,,,,,,,,,,,,,,,,,,,,,,,,0,4,4,0,1,,,,,,,,,,,,,,,,,,,,,,,,,,,,,,,,,,,,,,,,,
590516,001,2022-11-21_24h54.42.006,Info_measure_main_exp,2022.2.2,Win32,60.22645146,,,,,,,,,,,,,,,,,,,,,,,,,,,,,,7,1.0664,1,,,,,,,,,,,,0,131,5,5,2274,1950,absent_patch/patch0002274.jpg,absent_patch/patch0001950.jpg,,,,,,,,,,,,,,,,,,,,0.053703704,0.101851852,1,0,0,response1disk,33,-0.008333333,-0.014814815,1,0,0,center_square,0,32,32,10,1,,,,,,,,,,,,,,,,,,,,,,,
590516,001,2022-11-21_24h54.42.006,Info_measure_main_exp,2022.2.2,Win32,60.22645146,,,,,,,,,,,,,,,,,,masks/mask_002.jpg,,,,,,,,,,,,,,,,,,,,,,,,,,,,,,,,,,,,,,,,,,,0,0,0,1,1,,,,,,,,,,,,,,,,,,,,,,,,,,,,,,,,,,,,,,,,,,,,,,
590516,001,2022-11-21_24h54.42.006,Info_measure_main_exp,2022.2.2,Win32,60.22645146,,,,,,,,,,,,,,,,,,masks/mask_005.jpg,,,,,,,,,,,,,,,,,,,,,,,,,,,,,,,,,,,,,,,,,,,0,1,1,4,1,,,,,,,,,,,,,,,,,,,,,,,,,,,,,,,,,,,,,,,,,,,,,,
590516,001,2022-11-21_24h54.42.006,Info_measure_main_exp,2022.2.2,Win32,60.22645146,,,,,,,,,,,,,,,,,,masks/mask_004.jpg,,,,,,,,,,,,,,,,,,,,,,,,,,,,,,,,,,,,,,,,,,,0,2,2,3,1,,,,,,,,,,,,,,,,,,,,,,,,,,,,,,,,,,,,,,,,,,,,,,
590516,001,2022-11-21_24h54.42.006,Info_measure_main_exp,2022.2.2,Win32,60.22645146,,,,,,,,,,,,,,,,,,masks/mask_001.jpg,,,,,,,,,,,,,,,,,,,,,,,,,,,,,,,,,,,,,,,,,,,0,3,3,0,1,,,,,,,,,,,,,,,,,,,,,,,,,,,,,,,,,,,,,,,,,,,,,,
590516,001,2022-11-21_24h54.42.006,Info_measure_main_exp,2022.2.2,Win32,60.22645146,,,,,,,,,,,,,,,,,,masks/mask_003.jpg,,,,,,,,,,,,,,,,,,,,,,,,,,,,,,,,,,,,,,,,,,,0,4,4,2,1,,,,,,,,,,,,,,,,,,,,,,,,,,,,,,,,,,,,,,,,,,,,,,
590516,001,2022-11-21_24h54.42.006,Info_measure_main_exp,2022.2.2,Win32,60.22645146,,,,,,,,,,,,,,,,,,masks/mask_005.jpg,,,,,,,,,,,,,,,,,,,,,,,,,,,,,,,,,,,,,,,,,,,,,,,,0,0,0,4,1,,,,,,,,,,,,,,,,,,,,,,,,,,,,,,,,,,,,,,,,,
590516,001,2022-11-21_24h54.42.006,Info_measure_main_exp,2022.2.2,Win32,60.22645146,,,,,,,,,,,,,,,,,,masks/mask_001.jpg,,,,,,,,,,,,,,,,,,,,,,,,,,,,,,,,,,,,,,,,,,,,,,,,0,1,1,0,1,,,,,,,,,,,,,,,,,,,,,,,,,,,,,,,,,,,,,,,,,
590516,001,2022-11-21_24h54.42.006,Info_measure_main_exp,2022.2.2,Win32,60.22645146,,,,,,,,,,,,,,,,,,masks/mask_003.jpg,,,,,,,,,,,,,,,,,,,,,,,,,,,,,,,,,,,,,,,,,,,,,,,,0,2,2,2,1,,,,,,,,,,,,,,,,,,,,,,,,,,,,,,,,,,,,,,,,,
590516,001,2022-11-21_24h54.42.006,Info_measure_main_exp,2022.2.2,Win32,60.22645146,,,,,,,,,,,,,,,,,,masks/mask_004.jpg,,,,,,,,,,,,,,,,,,,,,,,,,,,,,,,,,,,,,,,,,,,,,,,,0,3,3,3,1,,,,,,,,,,,,,,,,,,,,,,,,,,,,,,,,,,,,,,,,,
590516,001,2022-11-21_24h54.42.006,Info_measure_main_exp,2022.2.2,Win32,60.22645146,,,,,,,,,,,,,,,,,,masks/mask_002.jpg,,,,,,,,,,,,,,,,,,,,,,,,,,,,,,,,,,,,,,,,,,,,,,,,0,4,4,1,1,,,,,,,,,,,,,,,,,,,,,,,,,,,,,,,,,,,,,,,,,
590516,001,2022-11-21_24h54.42.006,Info_measure_main_exp,2022.2.2,Win32,60.22645146,,,,,,,,,,,,,,,,,,,,,,,,,,,,,,0,0.666,1,,,,,,,,,,,,0,131,5,5,2178,2142,absent_patch/patch0002178.jpg,absent_patch/patch0002142.jpg,,,,,,,,,,,,,,,,,,,,-0.02037037,0.087962963,1,0,0,response7disk,34,-0.014814815,0.00462963,1,0,0,center_square,0,33,33,41,1,,,,,,,,,,,,,,,,,,,,,,,
590516,001,2022-11-21_24h54.42.006,Info_measure_main_exp,2022.2.2,Win32,60.22645146,,,,,,,,,,,,,,,,,,masks/mask_001.jpg,,,,,,,,,,,,,,,,,,,,,,,,,,,,,,,,,,,,,,,,,,,0,0,0,0,1,,,,,,,,,,,,,,,,,,,,,,,,,,,,,,,,,,,,,,,,,,,,,,
590516,001,2022-11-21_24h54.42.006,Info_measure_main_exp,2022.2.2,Win32,60.22645146,,,,,,,,,,,,,,,,,,masks/mask_002.jpg,,,,,,,,,,,,,,,,,,,,,,,,,,,,,,,,,,,,,,,,,,,0,1,1,1,1,,,,,,,,,,,,,,,,,,,,,,,,,,,,,,,,,,,,,,,,,,,,,,
590516,001,2022-11-21_24h54.42.006,Info_measure_main_exp,2022.2.2,Win32,60.22645146,,,,,,,,,,,,,,,,,,masks/mask_004.jpg,,,,,,,,,,,,,,,,,,,,,,,,,,,,,,,,,,,,,,,,,,,0,2,2,3,1,,,,,,,,,,,,,,,,,,,,,,,,,,,,,,,,,,,,,,,,,,,,,,
590516,001,2022-11-21_24h54.42.006,Info_measure_main_exp,2022.2.2,Win32,60.22645146,,,,,,,,,,,,,,,,,,masks/mask_005.jpg,,,,,,,,,,,,,,,,,,,,,,,,,,,,,,,,,,,,,,,,,,,0,3,3,4,1,,,,,,,,,,,,,,,,,,,,,,,,,,,,,,,,,,,,,,,,,,,,,,
590516,001,2022-11-21_24h54.42.006,Info_measure_main_exp,2022.2.2,Win32,60.22645146,,,,,,,,,,,,,,,,,,masks/mask_003.jpg,,,,,,,,,,,,,,,,,,,,,,,,,,,,,,,,,,,,,,,,,,,0,4,4,2,1,,,,,,,,,,,,,,,,,,,,,,,,,,,,,,,,,,,,,,,,,,,,,,
590516,001,2022-11-21_24h54.42.006,Info_measure_main_exp,2022.2.2,Win32,60.22645146,,,,,,,,,,,,,,,,,,masks/mask_004.jpg,,,,,,,,,,,,,,,,,,,,,,,,,,,,,,,,,,,,,,,,,,,,,,,,0,0,0,3,1,,,,,,,,,,,,,,,,,,,,,,,,,,,,,,,,,,,,,,,,,
590516,001,2022-11-21_24h54.42.006,Info_measure_main_exp,2022.2.2,Win32,60.22645146,,,,,,,,,,,,,,,,,,masks/mask_002.jpg,,,,,,,,,,,,,,,,,,,,,,,,,,,,,,,,,,,,,,,,,,,,,,,,0,1,1,1,1,,,,,,,,,,,,,,,,,,,,,,,,,,,,,,,,,,,,,,,,,
590516,001,2022-11-21_24h54.42.006,Info_measure_main_exp,2022.2.2,Win32,60.22645146,,,,,,,,,,,,,,,,,,masks/mask_001.jpg,,,,,,,,,,,,,,,,,,,,,,,,,,,,,,,,,,,,,,,,,,,,,,,,0,2,2,0,1,,,,,,,,,,,,,,,,,,,,,,,,,,,,,,,,,,,,,,,,,
590516,001,2022-11-21_24h54.42.006,Info_measure_main_exp,2022.2.2,Win32,60.22645146,,,,,,,,,,,,,,,,,,masks/mask_003.jpg,,,,,,,,,,,,,,,,,,,,,,,,,,,,,,,,,,,,,,,,,,,,,,,,0,3,3,2,1,,,,,,,,,,,,,,,,,,,,,,,,,,,,,,,,,,,,,,,,,
