participant,session,date,expName,psychopyVersion,OS,frameRate,space_press_continue.keys,space_press_continue.rt,space_press_continue_2.keys,space_press_continue_2.rt,space_press_continue_3.keys,space_press_continue_3.rt,space_press_continue_4.keys,space_press_continue_4.rt,space_press_continue_5.keys,space_press_continue_5.rt,space_press_continue_6.keys,space_press_continue_6.rt,prac_mask_loop_1.thisRepN,prac_mask_loop_1.thisTrialN,prac_mask_loop_1.thisN,prac_mask_loop_1.thisIndex,prac_mask_loop_1.ran,mask_name,prac_mask_loop_2.thisRepN,prac_mask_loop_2.thisTrialN,prac_mask_loop_2.thisN,prac_mask_loop_2.thisIndex,prac_mask_loop_2.ran,mouse_2.x,mouse_2.y,mouse_2.leftButton,mouse_2.midButton,mouse_2.rightButton,mouse_2.clicked_name,similarity,response_time,Pass,mouse_12.x,mouse_12.y,mouse_12.leftButton,mouse_12.midButton,mouse_12.rightButton,mouse_12.clicked_name,prac_loop.thisRepN,prac_loop.thisTrialN,prac_loop.thisN,prac_loop.thisIndex,prac_loop.ran,Pair_type,Image_num,Patch_1_loc,Patch_2_loc,Patch_1_info,Patch_2_info,Patch_1_name,Patch_2_name,mouse_1.x,mouse_1.y,mouse_1.leftButton,mouse_1.midButton,mouse_1.rightButton,mouse_1.time,mouse_1.clicked_name,space_press_continue_7.keys,space_press_continue_7.rt,mask_loop.thisRepN,mask_loop.thisTrialN,mask_loop.thisN,mask_loop.thisIndex,mask_loop.ran,mask_loop_2.thisRepN,mask_loop_2.thisTrialN,mask_loop_2.thisN,mask_loop_2.thisIndex,mask_loop_2.ran,mouse.x,mouse.y,mouse.leftButton,mouse.midButton,mouse.rightButton,mouse.clicked_name,trialNumber,mouse_11.x,mouse_11.y,mouse_11.leftButton,mouse_11.midButton,mouse_11.rightButton,mouse_11.clicked_name,first_pass_loop.thisRepN,first_pass_loop.thisTrialN,first_pass_loop.thisN,first_pass_loop.thisIndex,first_pass_loop.ran,mask_loop_3.thisRepN,mask_loop_3.thisTrialN,mask_loop_3.thisN,mask_loop_3.thisIndex,mask_loop_3.ran,mask_loop_4.thisRepN,mask_loop_4.thisTrialN,mask_loop_4.thisN,mask_loop_4.thisIndex,mask_loop_4.ran,mouse_3.x,mouse_3.y,mouse_3.leftButton,mouse_3.midButton,mouse_3.rightButton,mouse_3.clicked_name,double_pass_loop.thisRepN,double_pass_loop.thisTrialN,double_pass_loop.thisN,double_pass_loop.thisIndex,double_pass_loop.ran,space_exit.keys,space_exit.rt
592479,001,2022-11-13_23h28.01.595,Info_measure_main_exp,2022.2.2,Win32,60.01680471,,,,,,,,,,,,,,,,,,,,,,,,,,,,,,,,,,,,,,,,,,,,,,,,,,,,,,,,,,,,,,,,,,,,,,,,,,,,,,,,,,,,,,,,,,,,,,,,,,,,,,,,,,,,,,,
592479,001,2022-11-13_23h28.01.595,Info_measure_main_exp,2022.2.2,Win32,60.01680471,,,,,,,,,,,,,,,,,,,,,,,,,,,,,,,,,,,,,,,,,,,,,,,,,,,,,,,,,,,,,,,,,,,,,,,,,,,,,,,,,,,,,,,,,,,,,,,,,,,,,,,,,,,,,,,
592479,001,2022-11-13_23h28.01.595,Info_measure_main_exp,2022.2.2,Win32,60.01680471,space,7.3899,,,,,,,,,,,,,,,,,,,,,,,,,,,,,,,,,,,,,,,,,,,,,,,,,,,,,,,,,,,,,,,,,,,,,,,,,,,,,,,,,,,,,,,,,,,,,,,,,,,,,,,,,,,,,
592479,001,2022-11-13_23h28.01.595,Info_measure_main_exp,2022.2.2,Win32,60.01680471,,,space,16.643,,,,,,,,,,,,,,,,,,,,,,,,,,,,,,,,,,,,,,,,,,,,,,,,,,,,,,,,,,,,,,,,,,,,,,,,,,,,,,,,,,,,,,,,,,,,,,,,,,,,,,,,,,,
592479,001,2022-11-13_23h28.01.595,Info_measure_main_exp,2022.2.2,Win32,60.01680471,,,,,space,6.4239,,,,,,,,,,,,,,,,,,,,,,,,,,,,,,,,,,,,,,,,,,,,,,,,,,,,,,,,,,,,,,,,,,,,,,,,,,,,,,,,,,,,,,,,,,,,,,,,,,,,,,,,,
592479,001,2022-11-13_23h28.01.595,Info_measure_main_exp,2022.2.2,Win32,60.01680471,,,,,,,space,19.8011,,,,,,,,,,,,,,,,,,,,,,,,,,,,,,,,,,,,,,,,,,,,,,,,,,,,,,,,,,,,,,,,,,,,,,,,,,,,,,,,,,,,,,,,,,,,,,,,,,,,,,,
592479,001,2022-11-13_23h28.01.595,Info_measure_main_exp,2022.2.2,Win32,60.01680471,,,,,,,,,space,16.0842,,,,,,,,,,,,,,,,,,,,,,,,,,,,,,,,,,,,,,,,,,,,,,,,,,,,,,,,,,,,,,,,,,,,,,,,,,,,,,,,,,,,,,,,,,,,,,,,,,,,,
592479,001,2022-11-13_23h28.01.595,Info_measure_main_exp,2022.2.2,Win32,60.01680471,,,,,,,,,,,space,3.9351,,,,,,,,,,,,,,,,,,,,,,,,,,,,,,,,,,,,,,,,,,,,,,,,,,,,,,,,,,,,,,,,,,,,,,,,,,,,,,,,,,,,,,,,,,,,,,,,,,,
592479,001,2022-11-13_23h28.01.595,Info_measure_main_exp,2022.2.2,Win32,60.01680471,,,,,,,,,,,,,0,0,0,0,1,masks/mask_001.jpg,,,,,,,,,,,,,,,,,,,,,,,,,,,,,,,,,,,,,,,,,,,,,,,,,,,,,,,,,,,,,,,,,,,,,,,,,,,,,,,,,,,,,,,,,,,,,
592479,001,2022-11-13_23h28.01.595,Info_measure_main_exp,2022.2.2,Win32,60.01680471,,,,,,,,,,,,,0,1,1,2,1,masks/mask_003.jpg,,,,,,,,,,,,,,,,,,,,,,,,,,,,,,,,,,,,,,,,,,,,,,,,,,,,,,,,,,,,,,,,,,,,,,,,,,,,,,,,,,,,,,,,,,,,,
592479,001,2022-11-13_23h28.01.595,Info_measure_main_exp,2022.2.2,Win32,60.01680471,,,,,,,,,,,,,0,2,2,1,1,masks/mask_002.jpg,,,,,,,,,,,,,,,,,,,,,,,,,,,,,,,,,,,,,,,,,,,,,,,,,,,,,,,,,,,,,,,,,,,,,,,,,,,,,,,,,,,,,,,,,,,,,
592479,001,2022-11-13_23h28.01.595,Info_measure_main_exp,2022.2.2,Win32,60.01680471,,,,,,,,,,,,,0,3,3,3,1,masks/mask_004.jpg,,,,,,,,,,,,,,,,,,,,,,,,,,,,,,,,,,,,,,,,,,,,,,,,,,,,,,,,,,,,,,,,,,,,,,,,,,,,,,,,,,,,,,,,,,,,,
592479,001,2022-11-13_23h28.01.595,Info_measure_main_exp,2022.2.2,Win32,60.01680471,,,,,,,,,,,,,0,4,4,4,1,masks/mask_005.jpg,,,,,,,,,,,,,,,,,,,,,,,,,,,,,,,,,,,,,,,,,,,,,,,,,,,,,,,,,,,,,,,,,,,,,,,,,,,,,,,,,,,,,,,,,,,,,
592479,001,2022-11-13_23h28.01.595,Info_measure_main_exp,2022.2.2,Win32,60.01680471,,,,,,,,,,,,,,,,,,masks/mask_004.jpg,0,0,0,3,1,,,,,,,,,,,,,,,,,,,,,,,,,,,,,,,,,,,,,,,,,,,,,,,,,,,,,,,,,,,,,,,,,,,,,,,,,,,,,,,,,,,,,,,,
592479,001,2022-11-13_23h28.01.595,Info_measure_main_exp,2022.2.2,Win32,60.01680471,,,,,,,,,,,,,,,,,,masks/mask_003.jpg,0,1,1,2,1,,,,,,,,,,,,,,,,,,,,,,,,,,,,,,,,,,,,,,,,,,,,,,,,,,,,,,,,,,,,,,,,,,,,,,,,,,,,,,,,,,,,,,,,
592479,001,2022-11-13_23h28.01.595,Info_measure_main_exp,2022.2.2,Win32,60.01680471,,,,,,,,,,,,,,,,,,masks/mask_005.jpg,0,2,2,4,1,,,,,,,,,,,,,,,,,,,,,,,,,,,,,,,,,,,,,,,,,,,,,,,,,,,,,,,,,,,,,,,,,,,,,,,,,,,,,,,,,,,,,,,,
592479,001,2022-11-13_23h28.01.595,Info_measure_main_exp,2022.2.2,Win32,60.01680471,,,,,,,,,,,,,,,,,,masks/mask_002.jpg,0,3,3,1,1,,,,,,,,,,,,,,,,,,,,,,,,,,,,,,,,,,,,,,,,,,,,,,,,,,,,,,,,,,,,,,,,,,,,,,,,,,,,,,,,,,,,,,,,
592479,001,2022-11-13_23h28.01.595,Info_measure_main_exp,2022.2.2,Win32,60.01680471,,,,,,,,,,,,,,,,,,masks/mask_001.jpg,0,4,4,0,1,,,,,,,,,,,,,,,,,,,,,,,,,,,,,,,,,,,,,,,,,,,,,,,,,,,,,,,,,,,,,,,,,,,,,,,,,,,,,,,,,,,,,,,,
592479,001,2022-11-13_23h28.01.595,Info_measure_main_exp,2022.2.2,Win32,60.01680471,,,,,,,,,,,,,,,,,,,,,,,,-0.037962935,-0.137037065,1,0,0,response5disk,3,74.8777,1,0.004629686,-0.005555556,1,0,0,center_square,0,0,0,1,1,0,131,5,5,2514,2490,prac_patch/patch0002514.jpg,prac_patch/patch0002490.jpg,,,,,,,,,,,,,,,,,,,,,,,,,,,,,,,,,,,,,,,,,,,,,,,,,,,,,,,,,,,,
592479,001,2022-11-13_23h28.01.595,Info_measure_main_exp,2022.2.2,Win32,60.01680471,,,,,,,,,,,,,0,0,0,3,1,masks/mask_004.jpg,,,,,,,,,,,,,,,,,,,,,,,,,,,,,,,,,,,,,,,,,,,,,,,,,,,,,,,,,,,,,,,,,,,,,,,,,,,,,,,,,,,,,,,,,,,,,
592479,001,2022-11-13_23h28.01.595,Info_measure_main_exp,2022.2.2,Win32,60.01680471,,,,,,,,,,,,,0,1,1,0,1,masks/mask_001.jpg,,,,,,,,,,,,,,,,,,,,,,,,,,,,,,,,,,,,,,,,,,,,,,,,,,,,,,,,,,,,,,,,,,,,,,,,,,,,,,,,,,,,,,,,,,,,,
592479,001,2022-11-13_23h28.01.595,Info_measure_main_exp,2022.2.2,Win32,60.01680471,,,,,,,,,,,,,0,2,2,4,1,masks/mask_005.jpg,,,,,,,,,,,,,,,,,,,,,,,,,,,,,,,,,,,,,,,,,,,,,,,,,,,,,,,,,,,,,,,,,,,,,,,,,,,,,,,,,,,,,,,,,,,,,
592479,001,2022-11-13_23h28.01.595,Info_measure_main_exp,2022.2.2,Win32,60.01680471,,,,,,,,,,,,,0,3,3,1,1,masks/mask_002.jpg,,,,,,,,,,,,,,,,,,,,,,,,,,,,,,,,,,,,,,,,,,,,,,,,,,,,,,,,,,,,,,,,,,,,,,,,,,,,,,,,,,,,,,,,,,,,,
592479,001,2022-11-13_23h28.01.595,Info_measure_main_exp,2022.2.2,Win32,60.01680471,,,,,,,,,,,,,0,4,4,2,1,masks/mask_003.jpg,,,,,,,,,,,,,,,,,,,,,,,,,,,,,,,,,,,,,,,,,,,,,,,,,,,,,,,,,,,,,,,,,,,,,,,,,,,,,,,,,,,,,,,,,,,,,
592479,001,2022-11-13_23h28.01.595,Info_measure_main_exp,2022.2.2,Win32,60.01680471,,,,,,,,,,,,,,,,,,masks/mask_004.jpg,0,0,0,3,1,,,,,,,,,,,,,,,,,,,,,,,,,,,,,,,,,,,,,,,,,,,,,,,,,,,,,,,,,,,,,,,,,,,,,,,,,,,,,,,,,,,,,,,,
592479,001,2022-11-13_23h28.01.595,Info_measure_main_exp,2022.2.2,Win32,60.01680471,,,,,,,,,,,,,,,,,,masks/mask_001.jpg,0,1,1,0,1,,,,,,,,,,,,,,,,,,,,,,,,,,,,,,,,,,,,,,,,,,,,,,,,,,,,,,,,,,,,,,,,,,,,,,,,,,,,,,,,,,,,,,,,
592479,001,2022-11-13_23h28.01.595,Info_measure_main_exp,2022.2.2,Win32,60.01680471,,,,,,,,,,,,,,,,,,masks/mask_003.jpg,0,2,2,2,1,,,,,,,,,,,,,,,,,,,,,,,,,,,,,,,,,,,,,,,,,,,,,,,,,,,,,,,,,,,,,,,,,,,,,,,,,,,,,,,,,,,,,,,,
592479,001,2022-11-13_23h28.01.595,Info_measure_main_exp,2022.2.2,Win32,60.01680471,,,,,,,,,,,,,,,,,,masks/mask_002.jpg,0,3,3,1,1,,,,,,,,,,,,,,,,,,,,,,,,,,,,,,,,,,,,,,,,,,,,,,,,,,,,,,,,,,,,,,,,,,,,,,,,,,,,,,,,,,,,,,,,
592479,001,2022-11-13_23h28.01.595,Info_measure_main_exp,2022.2.2,Win32,60.01680471,,,,,,,,,,,,,,,,,,masks/mask_005.jpg,0,4,4,4,1,,,,,,,,,,,,,,,,,,,,,,,,,,,,,,,,,,,,,,,,,,,,,,,,,,,,,,,,,,,,,,,,,,,,,,,,,,,,,,,,,,,,,,,,
592479,001,2022-11-13_23h28.01.595,Info_measure_main_exp,2022.2.2,Win32,60.01680471,,,,,,,,,,,,,,,,,,,,,,,,0.093518575,-0.036111111,1,0,0,response3disk,5,91.0088,1,-0.004629601,0.014814801,1,0,0,center_square,0,1,1,2,1,0,131,5,5,2526,2526,prac_patch/patch0002526.jpg,prac_patch/patch0002526.jpg,,,,,,,,,,,,,,,,,,,,,,,,,,,,,,,,,,,,,,,,,,,,,,,,,,,,,,,,,,,,
592479,001,2022-11-13_23h28.01.595,Info_measure_main_exp,2022.2.2,Win32,60.01680471,,,,,,,,,,,,,0,0,0,3,1,masks/mask_004.jpg,,,,,,,,,,,,,,,,,,,,,,,,,,,,,,,,,,,,,,,,,,,,,,,,,,,,,,,,,,,,,,,,,,,,,,,,,,,,,,,,,,,,,,,,,,,,,
592479,001,2022-11-13_23h28.01.595,Info_measure_main_exp,2022.2.2,Win32,60.01680471,,,,,,,,,,,,,0,1,1,1,1,masks/mask_002.jpg,,,,,,,,,,,,,,,,,,,,,,,,,,,,,,,,,,,,,,,,,,,,,,,,,,,,,,,,,,,,,,,,,,,,,,,,,,,,,,,,,,,,,,,,,,,,,
592479,001,2022-11-13_23h28.01.595,Info_measure_main_exp,2022.2.2,Win32,60.01680471,,,,,,,,,,,,,0,2,2,4,1,masks/mask_005.jpg,,,,,,,,,,,,,,,,,,,,,,,,,,,,,,,,,,,,,,,,,,,,,,,,,,,,,,,,,,,,,,,,,,,,,,,,,,,,,,,,,,,,,,,,,,,,,
592479,001,2022-11-13_23h28.01.595,Info_measure_main_exp,2022.2.2,Win32,60.01680471,,,,,,,,,,,,,0,3,3,2,1,masks/mask_003.jpg,,,,,,,,,,,,,,,,,,,,,,,,,,,,,,,,,,,,,,,,,,,,,,,,,,,,,,,,,,,,,,,,,,,,,,,,,,,,,,,,,,,,,,,,,,,,,
592479,001,2022-11-13_23h28.01.595,Info_measure_main_exp,2022.2.2,Win32,60.01680471,,,,,,,,,,,,,0,4,4,0,1,masks/mask_001.jpg,,,,,,,,,,,,,,,,,,,,,,,,,,,,,,,,,,,,,,,,,,,,,,,,,,,,,,,,,,,,,,,,,,,,,,,,,,,,,,,,,,,,,,,,,,,,,
592479,001,2022-11-13_23h28.01.595,Info_measure_main_exp,2022.2.2,Win32,60.01680471,,,,,,,,,,,,,,,,,,masks/mask_003.jpg,0,0,0,2,1,,,,,,,,,,,,,,,,,,,,,,,,,,,,,,,,,,,,,,,,,,,,,,,,,,,,,,,,,,,,,,,,,,,,,,,,,,,,,,,,,,,,,,,,
592479,001,2022-11-13_23h28.01.595,Info_measure_main_exp,2022.2.2,Win32,60.01680471,,,,,,,,,,,,,,,,,,masks/mask_004.jpg,0,1,1,3,1,,,,,,,,,,,,,,,,,,,,,,,,,,,,,,,,,,,,,,,,,,,,,,,,,,,,,,,,,,,,,,,,,,,,,,,,,,,,,,,,,,,,,,,,
592479,001,2022-11-13_23h28.01.595,Info_measure_main_exp,2022.2.2,Win32,60.01680471,,,,,,,,,,,,,,,,,,masks/mask_002.jpg,0,2,2,1,1,,,,,,,,,,,,,,,,,,,,,,,,,,,,,,,,,,,,,,,,,,,,,,,,,,,,,,,,,,,,,,,,,,,,,,,,,,,,,,,,,,,,,,,,
592479,001,2022-11-13_23h28.01.595,Info_measure_main_exp,2022.2.2,Win32,60.01680471,,,,,,,,,,,,,,,,,,masks/mask_001.jpg,0,3,3,0,1,,,,,,,,,,,,,,,,,,,,,,,,,,,,,,,,,,,,,,,,,,,,,,,,,,,,,,,,,,,,,,,,,,,,,,,,,,,,,,,,,,,,,,,,
592479,001,2022-11-13_23h28.01.595,Info_measure_main_exp,2022.2.2,Win32,60.01680471,,,,,,,,,,,,,,,,,,masks/mask_005.jpg,0,4,4,4,1,,,,,,,,,,,,,,,,,,,,,,,,,,,,,,,,,,,,,,,,,,,,,,,,,,,,,,,,,,,,,,,,,,,,,,,,,,,,,,,,,,,,,,,,
592479,001,2022-11-13_23h28.01.595,Info_measure_main_exp,2022.2.2,Win32,60.01680471,,,,,,,,,,,,,,,,,,,,,,,,0.041666667,0.038888889,1,0,0,response1disk,6,100.3253,1,-0.000925869,0,1,0,0,center_square,0,2,2,0,1,0,131,5,5,2370,2406,prac_patch/patch0002370.jpg,prac_patch/patch0002406.jpg,,,,,,,,,,,,,,,,,,,,,,,,,,,,,,,,,,,,,,,,,,,,,,,,,,,,,,,,,,,,
592479,001,2022-11-13_23h28.01.595,Info_measure_main_exp,2022.2.2,Win32,60.01680471,,,,,,,,,,,,,,,,,,,,,,,,,,,,,,,,,,,,,,,,,,,,,,,,,,,,,,,,,,,space,3.6001,,,,,,,,,,,,,,,,,,,,,,,,,,,,,,,,,,,,,,,,,,,,,,,,,,,
592479,001,2022-11-13_23h28.01.595,Info_measure_main_exp,2022.2.2,Win32,60.01680471,,,,,,,,,,,,,,,,,,masks/mask_004.jpg,,,,,,,,,,,,,,,,,,,,,,,,,,,,,,,,,,,,,,,,,,,0,0,0,3,1,,,,,,,,,,,,,,,,,,,,,,,,,,,,,,,,,,,,,,,,,,,,,,
592479,001,2022-11-13_23h28.01.595,Info_measure_main_exp,2022.2.2,Win32,60.01680471,,,,,,,,,,,,,,,,,,masks/mask_003.jpg,,,,,,,,,,,,,,,,,,,,,,,,,,,,,,,,,,,,,,,,,,,0,1,1,2,1,,,,,,,,,,,,,,,,,,,,,,,,,,,,,,,,,,,,,,,,,,,,,,
592479,001,2022-11-13_23h28.01.595,Info_measure_main_exp,2022.2.2,Win32,60.01680471,,,,,,,,,,,,,,,,,,masks/mask_005.jpg,,,,,,,,,,,,,,,,,,,,,,,,,,,,,,,,,,,,,,,,,,,0,2,2,4,1,,,,,,,,,,,,,,,,,,,,,,,,,,,,,,,,,,,,,,,,,,,,,,
592479,001,2022-11-13_23h28.01.595,Info_measure_main_exp,2022.2.2,Win32,60.01680471,,,,,,,,,,,,,,,,,,masks/mask_001.jpg,,,,,,,,,,,,,,,,,,,,,,,,,,,,,,,,,,,,,,,,,,,0,3,3,0,1,,,,,,,,,,,,,,,,,,,,,,,,,,,,,,,,,,,,,,,,,,,,,,
592479,001,2022-11-13_23h28.01.595,Info_measure_main_exp,2022.2.2,Win32,60.01680471,,,,,,,,,,,,,,,,,,masks/mask_002.jpg,,,,,,,,,,,,,,,,,,,,,,,,,,,,,,,,,,,,,,,,,,,0,4,4,1,1,,,,,,,,,,,,,,,,,,,,,,,,,,,,,,,,,,,,,,,,,,,,,,
592479,001,2022-11-13_23h28.01.595,Info_measure_main_exp,2022.2.2,Win32,60.01680471,,,,,,,,,,,,,,,,,,masks/mask_003.jpg,,,,,,,,,,,,,,,,,,,,,,,,,,,,,,,,,,,,,,,,,,,,,,,,0,0,0,2,1,,,,,,,,,,,,,,,,,,,,,,,,,,,,,,,,,,,,,,,,,
592479,001,2022-11-13_23h28.01.595,Info_measure_main_exp,2022.2.2,Win32,60.01680471,,,,,,,,,,,,,,,,,,masks/mask_004.jpg,,,,,,,,,,,,,,,,,,,,,,,,,,,,,,,,,,,,,,,,,,,,,,,,0,1,1,3,1,,,,,,,,,,,,,,,,,,,,,,,,,,,,,,,,,,,,,,,,,
592479,001,2022-11-13_23h28.01.595,Info_measure_main_exp,2022.2.2,Win32,60.01680471,,,,,,,,,,,,,,,,,,masks/mask_002.jpg,,,,,,,,,,,,,,,,,,,,,,,,,,,,,,,,,,,,,,,,,,,,,,,,0,2,2,1,1,,,,,,,,,,,,,,,,,,,,,,,,,,,,,,,,,,,,,,,,,
592479,001,2022-11-13_23h28.01.595,Info_measure_main_exp,2022.2.2,Win32,60.01680471,,,,,,,,,,,,,,,,,,masks/mask_001.jpg,,,,,,,,,,,,,,,,,,,,,,,,,,,,,,,,,,,,,,,,,,,,,,,,0,3,3,0,1,,,,,,,,,,,,,,,,,,,,,,,,,,,,,,,,,,,,,,,,,
592479,001,2022-11-13_23h28.01.595,Info_measure_main_exp,2022.2.2,Win32,60.01680471,,,,,,,,,,,,,,,,,,masks/mask_005.jpg,,,,,,,,,,,,,,,,,,,,,,,,,,,,,,,,,,,,,,,,,,,,,,,,0,4,4,4,1,,,,,,,,,,,,,,,,,,,,,,,,,,,,,,,,,,,,,,,,,
592479,001,2022-11-13_23h28.01.595,Info_measure_main_exp,2022.2.2,Win32,60.01680471,,,,,,,,,,,,,,,,,,,,,,,,,,,,,,7,1.2836,1,,,,,,,,,,,,0,131,5,5,2154,1974,absent_patch/patch0002154.jpg,absent_patch/patch0001974.jpg,,,,,,,,,,,,,,,,,,,,0.029629686,0.09351849,1,0,0,response1disk,1,0.00648151,-0.012962977,1,0,0,center_square,0,0,0,82,1,,,,,,,,,,,,,,,,,,,,,,,
592479,001,2022-11-13_23h28.01.595,Info_measure_main_exp,2022.2.2,Win32,60.01680471,,,,,,,,,,,,,,,,,,masks/mask_003.jpg,,,,,,,,,,,,,,,,,,,,,,,,,,,,,,,,,,,,,,,,,,,0,0,0,2,1,,,,,,,,,,,,,,,,,,,,,,,,,,,,,,,,,,,,,,,,,,,,,,
592479,001,2022-11-13_23h28.01.595,Info_measure_main_exp,2022.2.2,Win32,60.01680471,,,,,,,,,,,,,,,,,,masks/mask_005.jpg,,,,,,,,,,,,,,,,,,,,,,,,,,,,,,,,,,,,,,,,,,,0,1,1,4,1,,,,,,,,,,,,,,,,,,,,,,,,,,,,,,,,,,,,,,,,,,,,,,
592479,001,2022-11-13_23h28.01.595,Info_measure_main_exp,2022.2.2,Win32,60.01680471,,,,,,,,,,,,,,,,,,masks/mask_004.jpg,,,,,,,,,,,,,,,,,,,,,,,,,,,,,,,,,,,,,,,,,,,0,2,2,3,1,,,,,,,,,,,,,,,,,,,,,,,,,,,,,,,,,,,,,,,,,,,,,,
592479,001,2022-11-13_23h28.01.595,Info_measure_main_exp,2022.2.2,Win32,60.01680471,,,,,,,,,,,,,,,,,,masks/mask_001.jpg,,,,,,,,,,,,,,,,,,,,,,,,,,,,,,,,,,,,,,,,,,,0,3,3,0,1,,,,,,,,,,,,,,,,,,,,,,,,,,,,,,,,,,,,,,,,,,,,,,
592479,001,2022-11-13_23h28.01.595,Info_measure_main_exp,2022.2.2,Win32,60.01680471,,,,,,,,,,,,,,,,,,masks/mask_002.jpg,,,,,,,,,,,,,,,,,,,,,,,,,,,,,,,,,,,,,,,,,,,0,4,4,1,1,,,,,,,,,,,,,,,,,,,,,,,,,,,,,,,,,,,,,,,,,,,,,,
592479,001,2022-11-13_23h28.01.595,Info_measure_main_exp,2022.2.2,Win32,60.01680471,,,,,,,,,,,,,,,,,,masks/mask_005.jpg,,,,,,,,,,,,,,,,,,,,,,,,,,,,,,,,,,,,,,,,,,,,,,,,0,0,0,4,1,,,,,,,,,,,,,,,,,,,,,,,,,,,,,,,,,,,,,,,,,
592479,001,2022-11-13_23h28.01.595,Info_measure_main_exp,2022.2.2,Win32,60.01680471,,,,,,,,,,,,,,,,,,masks/mask_004.jpg,,,,,,,,,,,,,,,,,,,,,,,,,,,,,,,,,,,,,,,,,,,,,,,,0,1,1,3,1,,,,,,,,,,,,,,,,,,,,,,,,,,,,,,,,,,,,,,,,,
592479,001,2022-11-13_23h28.01.595,Info_measure_main_exp,2022.2.2,Win32,60.01680471,,,,,,,,,,,,,,,,,,masks/mask_001.jpg,,,,,,,,,,,,,,,,,,,,,,,,,,,,,,,,,,,,,,,,,,,,,,,,0,2,2,0,1,,,,,,,,,,,,,,,,,,,,,,,,,,,,,,,,,,,,,,,,,
592479,001,2022-11-13_23h28.01.595,Info_measure_main_exp,2022.2.2,Win32,60.01680471,,,,,,,,,,,,,,,,,,masks/mask_002.jpg,,,,,,,,,,,,,,,,,,,,,,,,,,,,,,,,,,,,,,,,,,,,,,,,0,3,3,1,1,,,,,,,,,,,,,,,,,,,,,,,,,,,,,,,,,,,,,,,,,
592479,001,2022-11-13_23h28.01.595,Info_measure_main_exp,2022.2.2,Win32,60.01680471,,,,,,,,,,,,,,,,,,masks/mask_003.jpg,,,,,,,,,,,,,,,,,,,,,,,,,,,,,,,,,,,,,,,,,,,,,,,,0,4,4,2,1,,,,,,,,,,,,,,,,,,,,,,,,,,,,,,,,,,,,,,,,,
592479,001,2022-11-13_23h28.01.595,Info_measure_main_exp,2022.2.2,Win32,60.01680471,,,,,,,,,,,,,,,,,,,,,,,,,,,,,,0,1.1835,1,,,,,,,,,,,,0,131,5,5,2298,2298,absent_patch/patch0002298.jpg,absent_patch/patch0002298.jpg,,,,,,,,,,,,,,,,,,,,-0.023148092,0.05,1,0,0,response7disk,2,-0.003703647,0.00370369,1,0,0,center_square,0,1,1,37,1,,,,,,,,,,,,,,,,,,,,,,,
592479,001,2022-11-13_23h28.01.595,Info_measure_main_exp,2022.2.2,Win32,60.01680471,,,,,,,,,,,,,,,,,,masks/mask_001.jpg,,,,,,,,,,,,,,,,,,,,,,,,,,,,,,,,,,,,,,,,,,,0,0,0,0,1,,,,,,,,,,,,,,,,,,,,,,,,,,,,,,,,,,,,,,,,,,,,,,
592479,001,2022-11-13_23h28.01.595,Info_measure_main_exp,2022.2.2,Win32,60.01680471,,,,,,,,,,,,,,,,,,masks/mask_003.jpg,,,,,,,,,,,,,,,,,,,,,,,,,,,,,,,,,,,,,,,,,,,0,1,1,2,1,,,,,,,,,,,,,,,,,,,,,,,,,,,,,,,,,,,,,,,,,,,,,,
592479,001,2022-11-13_23h28.01.595,Info_measure_main_exp,2022.2.2,Win32,60.01680471,,,,,,,,,,,,,,,,,,masks/mask_004.jpg,,,,,,,,,,,,,,,,,,,,,,,,,,,,,,,,,,,,,,,,,,,0,2,2,3,1,,,,,,,,,,,,,,,,,,,,,,,,,,,,,,,,,,,,,,,,,,,,,,
592479,001,2022-11-13_23h28.01.595,Info_measure_main_exp,2022.2.2,Win32,60.01680471,,,,,,,,,,,,,,,,,,masks/mask_005.jpg,,,,,,,,,,,,,,,,,,,,,,,,,,,,,,,,,,,,,,,,,,,0,3,3,4,1,,,,,,,,,,,,,,,,,,,,,,,,,,,,,,,,,,,,,,,,,,,,,,
592479,001,2022-11-13_23h28.01.595,Info_measure_main_exp,2022.2.2,Win32,60.01680471,,,,,,,,,,,,,,,,,,masks/mask_002.jpg,,,,,,,,,,,,,,,,,,,,,,,,,,,,,,,,,,,,,,,,,,,0,4,4,1,1,,,,,,,,,,,,,,,,,,,,,,,,,,,,,,,,,,,,,,,,,,,,,,
592479,001,2022-11-13_23h28.01.595,Info_measure_main_exp,2022.2.2,Win32,60.01680471,,,,,,,,,,,,,,,,,,masks/mask_002.jpg,,,,,,,,,,,,,,,,,,,,,,,,,,,,,,,,,,,,,,,,,,,,,,,,0,0,0,1,1,,,,,,,,,,,,,,,,,,,,,,,,,,,,,,,,,,,,,,,,,
592479,001,2022-11-13_23h28.01.595,Info_measure_main_exp,2022.2.2,Win32,60.01680471,,,,,,,,,,,,,,,,,,masks/mask_003.jpg,,,,,,,,,,,,,,,,,,,,,,,,,,,,,,,,,,,,,,,,,,,,,,,,0,1,1,2,1,,,,,,,,,,,,,,,,,,,,,,,,,,,,,,,,,,,,,,,,,
592479,001,2022-11-13_23h28.01.595,Info_measure_main_exp,2022.2.2,Win32,60.01680471,,,,,,,,,,,,,,,,,,masks/mask_001.jpg,,,,,,,,,,,,,,,,,,,,,,,,,,,,,,,,,,,,,,,,,,,,,,,,0,2,2,0,1,,,,,,,,,,,,,,,,,,,,,,,,,,,,,,,,,,,,,,,,,
592479,001,2022-11-13_23h28.01.595,Info_measure_main_exp,2022.2.2,Win32,60.01680471,,,,,,,,,,,,,,,,,,masks/mask_004.jpg,,,,,,,,,,,,,,,,,,,,,,,,,,,,,,,,,,,,,,,,,,,,,,,,0,3,3,3,1,,,,,,,,,,,,,,,,,,,,,,,,,,,,,,,,,,,,,,,,,
592479,001,2022-11-13_23h28.01.595,Info_measure_main_exp,2022.2.2,Win32,60.01680471,,,,,,,,,,,,,,,,,,masks/mask_005.jpg,,,,,,,,,,,,,,,,,,,,,,,,,,,,,,,,,,,,,,,,,,,,,,,,0,4,4,4,1,,,,,,,,,,,,,,,,,,,,,,,,,,,,,,,,,,,,,,,,,
592479,001,2022-11-13_23h28.01.595,Info_measure_main_exp,2022.2.2,Win32,60.01680471,,,,,,,,,,,,,,,,,,,,,,,,,,,,,,4,1.5335,1,,,,,,,,,,,,0,131,5,5,1950,2298,absent_patch/patch0001950.jpg,absent_patch/patch0002298.jpg,,,,,,,,,,,,,,,,,,,,0.033333333,-0.104629644,1,0,0,response3disk,3,0.009259288,-0.001851866,1,0,0,center_square,0,2,2,18,1,,,,,,,,,,,,,,,,,,,,,,,
592479,001,2022-11-13_23h28.01.595,Info_measure_main_exp,2022.2.2,Win32,60.01680471,,,,,,,,,,,,,,,,,,masks/mask_003.jpg,,,,,,,,,,,,,,,,,,,,,,,,,,,,,,,,,,,,,,,,,,,0,0,0,2,1,,,,,,,,,,,,,,,,,,,,,,,,,,,,,,,,,,,,,,,,,,,,,,
592479,001,2022-11-13_23h28.01.595,Info_measure_main_exp,2022.2.2,Win32,60.01680471,,,,,,,,,,,,,,,,,,masks/mask_001.jpg,,,,,,,,,,,,,,,,,,,,,,,,,,,,,,,,,,,,,,,,,,,0,1,1,0,1,,,,,,,,,,,,,,,,,,,,,,,,,,,,,,,,,,,,,,,,,,,,,,
592479,001,2022-11-13_23h28.01.595,Info_measure_main_exp,2022.2.2,Win32,60.01680471,,,,,,,,,,,,,,,,,,masks/mask_002.jpg,,,,,,,,,,,,,,,,,,,,,,,,,,,,,,,,,,,,,,,,,,,0,2,2,1,1,,,,,,,,,,,,,,,,,,,,,,,,,,,,,,,,,,,,,,,,,,,,,,
592479,001,2022-11-13_23h28.01.595,Info_measure_main_exp,2022.2.2,Win32,60.01680471,,,,,,,,,,,,,,,,,,masks/mask_004.jpg,,,,,,,,,,,,,,,,,,,,,,,,,,,,,,,,,,,,,,,,,,,0,3,3,3,1,,,,,,,,,,,,,,,,,,,,,,,,,,,,,,,,,,,,,,,,,,,,,,
592479,001,2022-11-13_23h28.01.595,Info_measure_main_exp,2022.2.2,Win32,60.01680471,,,,,,,,,,,,,,,,,,masks/mask_005.jpg,,,,,,,,,,,,,,,,,,,,,,,,,,,,,,,,,,,,,,,,,,,0,4,4,4,1,,,,,,,,,,,,,,,,,,,,,,,,,,,,,,,,,,,,,,,,,,,,,,
592479,001,2022-11-13_23h28.01.595,Info_measure_main_exp,2022.2.2,Win32,60.01680471,,,,,,,,,,,,,,,,,,masks/mask_001.jpg,,,,,,,,,,,,,,,,,,,,,,,,,,,,,,,,,,,,,,,,,,,,,,,,0,0,0,0,1,,,,,,,,,,,,,,,,,,,,,,,,,,,,,,,,,,,,,,,,,
592479,001,2022-11-13_23h28.01.595,Info_measure_main_exp,2022.2.2,Win32,60.01680471,,,,,,,,,,,,,,,,,,masks/mask_004.jpg,,,,,,,,,,,,,,,,,,,,,,,,,,,,,,,,,,,,,,,,,,,,,,,,0,1,1,3,1,,,,,,,,,,,,,,,,,,,,,,,,,,,,,,,,,,,,,,,,,
592479,001,2022-11-13_23h28.01.595,Info_measure_main_exp,2022.2.2,Win32,60.01680471,,,,,,,,,,,,,,,,,,masks/mask_005.jpg,,,,,,,,,,,,,,,,,,,,,,,,,,,,,,,,,,,,,,,,,,,,,,,,0,2,2,4,1,,,,,,,,,,,,,,,,,,,,,,,,,,,,,,,,,,,,,,,,,
592479,001,2022-11-13_23h28.01.595,Info_measure_main_exp,2022.2.2,Win32,60.01680471,,,,,,,,,,,,,,,,,,masks/mask_002.jpg,,,,,,,,,,,,,,,,,,,,,,,,,,,,,,,,,,,,,,,,,,,,,,,,0,3,3,1,1,,,,,,,,,,,,,,,,,,,,,,,,,,,,,,,,,,,,,,,,,
592479,001,2022-11-13_23h28.01.595,Info_measure_main_exp,2022.2.2,Win32,60.01680471,,,,,,,,,,,,,,,,,,masks/mask_003.jpg,,,,,,,,,,,,,,,,,,,,,,,,,,,,,,,,,,,,,,,,,,,,,,,,0,4,4,2,1,,,,,,,,,,,,,,,,,,,,,,,,,,,,,,,,,,,,,,,,,
592479,001,2022-11-13_23h28.01.595,Info_measure_main_exp,2022.2.2,Win32,60.01680471,,,,,,,,,,,,,,,,,,,,,,,,,,,,,,3,1.6668,1,,,,,,,,,,,,1,131,5,5,1,2154,present_patch/cong_131_5_a.jpg,absent_patch/patch0002154.jpg,,,,,,,,,,,,,,,,,,,,-0.026851824,-0.090740755,1,0,0,response5disk,4,0.003703732,-0.00648151,1,0,0,center_square,0,3,3,87,1,,,,,,,,,,,,,,,,,,,,,,,
592479,001,2022-11-13_23h28.01.595,Info_measure_main_exp,2022.2.2,Win32,60.01680471,,,,,,,,,,,,,,,,,,masks/mask_001.jpg,,,,,,,,,,,,,,,,,,,,,,,,,,,,,,,,,,,,,,,,,,,0,0,0,0,1,,,,,,,,,,,,,,,,,,,,,,,,,,,,,,,,,,,,,,,,,,,,,,
592479,001,2022-11-13_23h28.01.595,Info_measure_main_exp,2022.2.2,Win32,60.01680471,,,,,,,,,,,,,,,,,,masks/mask_003.jpg,,,,,,,,,,,,,,,,,,,,,,,,,,,,,,,,,,,,,,,,,,,0,1,1,2,1,,,,,,,,,,,,,,,,,,,,,,,,,,,,,,,,,,,,,,,,,,,,,,
592479,001,2022-11-13_23h28.01.595,Info_measure_main_exp,2022.2.2,Win32,60.01680471,,,,,,,,,,,,,,,,,,masks/mask_004.jpg,,,,,,,,,,,,,,,,,,,,,,,,,,,,,,,,,,,,,,,,,,,0,2,2,3,1,,,,,,,,,,,,,,,,,,,,,,,,,,,,,,,,,,,,,,,,,,,,,,
592479,001,2022-11-13_23h28.01.595,Info_measure_main_exp,2022.2.2,Win32,60.01680471,,,,,,,,,,,,,,,,,,masks/mask_005.jpg,,,,,,,,,,,,,,,,,,,,,,,,,,,,,,,,,,,,,,,,,,,0,3,3,4,1,,,,,,,,,,,,,,,,,,,,,,,,,,,,,,,,,,,,,,,,,,,,,,
592479,001,2022-11-13_23h28.01.595,Info_measure_main_exp,2022.2.2,Win32,60.01680471,,,,,,,,,,,,,,,,,,masks/mask_002.jpg,,,,,,,,,,,,,,,,,,,,,,,,,,,,,,,,,,,,,,,,,,,0,4,4,1,1,,,,,,,,,,,,,,,,,,,,,,,,,,,,,,,,,,,,,,,,,,,,,,
592479,001,2022-11-13_23h28.01.595,Info_measure_main_exp,2022.2.2,Win32,60.01680471,,,,,,,,,,,,,,,,,,masks/mask_005.jpg,,,,,,,,,,,,,,,,,,,,,,,,,,,,,,,,,,,,,,,,,,,,,,,,0,0,0,4,1,,,,,,,,,,,,,,,,,,,,,,,,,,,,,,,,,,,,,,,,,
592479,001,2022-11-13_23h28.01.595,Info_measure_main_exp,2022.2.2,Win32,60.01680471,,,,,,,,,,,,,,,,,,masks/mask_002.jpg,,,,,,,,,,,,,,,,,,,,,,,,,,,,,,,,,,,,,,,,,,,,,,,,0,1,1,1,1,,,,,,,,,,,,,,,,,,,,,,,,,,,,,,,,,,,,,,,,,
592479,001,2022-11-13_23h28.01.595,Info_measure_main_exp,2022.2.2,Win32,60.01680471,,,,,,,,,,,,,,,,,,masks/mask_004.jpg,,,,,,,,,,,,,,,,,,,,,,,,,,,,,,,,,,,,,,,,,,,,,,,,0,2,2,3,1,,,,,,,,,,,,,,,,,,,,,,,,,,,,,,,,,,,,,,,,,
592479,001,2022-11-13_23h28.01.595,Info_measure_main_exp,2022.2.2,Win32,60.01680471,,,,,,,,,,,,,,,,,,masks/mask_001.jpg,,,,,,,,,,,,,,,,,,,,,,,,,,,,,,,,,,,,,,,,,,,,,,,,0,3,3,0,1,,,,,,,,,,,,,,,,,,,,,,,,,,,,,,,,,,,,,,,,,
592479,001,2022-11-13_23h28.01.595,Info_measure_main_exp,2022.2.2,Win32,60.01680471,,,,,,,,,,,,,,,,,,masks/mask_003.jpg,,,,,,,,,,,,,,,,,,,,,,,,,,,,,,,,,,,,,,,,,,,,,,,,0,4,4,2,1,,,,,,,,,,,,,,,,,,,,,,,,,,,,,,,,,,,,,,,,,
592479,001,2022-11-13_23h28.01.595,Info_measure_main_exp,2022.2.2,Win32,60.01680471,,,,,,,,,,,,,,,,,,,,,,,,,,,,,,6,1.1168,1,,,,,,,,,,,,0,131,5,5,2178,2238,absent_patch/patch0002178.jpg,absent_patch/patch0002238.jpg,,,,,,,,,,,,,,,,,,,,0.099074131,0.025,1,0,0,response1disk,5,0.000925954,-0.012962977,1,0,0,center_square,0,4,4,57,1,,,,,,,,,,,,,,,,,,,,,,,
592479,001,2022-11-13_23h28.01.595,Info_measure_main_exp,2022.2.2,Win32,60.01680471,,,,,,,,,,,,,,,,,,masks/mask_002.jpg,,,,,,,,,,,,,,,,,,,,,,,,,,,,,,,,,,,,,,,,,,,0,0,0,1,1,,,,,,,,,,,,,,,,,,,,,,,,,,,,,,,,,,,,,,,,,,,,,,
592479,001,2022-11-13_23h28.01.595,Info_measure_main_exp,2022.2.2,Win32,60.01680471,,,,,,,,,,,,,,,,,,masks/mask_004.jpg,,,,,,,,,,,,,,,,,,,,,,,,,,,,,,,,,,,,,,,,,,,0,1,1,3,1,,,,,,,,,,,,,,,,,,,,,,,,,,,,,,,,,,,,,,,,,,,,,,
592479,001,2022-11-13_23h28.01.595,Info_measure_main_exp,2022.2.2,Win32,60.01680471,,,,,,,,,,,,,,,,,,masks/mask_005.jpg,,,,,,,,,,,,,,,,,,,,,,,,,,,,,,,,,,,,,,,,,,,0,2,2,4,1,,,,,,,,,,,,,,,,,,,,,,,,,,,,,,,,,,,,,,,,,,,,,,
592479,001,2022-11-13_23h28.01.595,Info_measure_main_exp,2022.2.2,Win32,60.01680471,,,,,,,,,,,,,,,,,,masks/mask_001.jpg,,,,,,,,,,,,,,,,,,,,,,,,,,,,,,,,,,,,,,,,,,,0,3,3,0,1,,,,,,,,,,,,,,,,,,,,,,,,,,,,,,,,,,,,,,,,,,,,,,
592479,001,2022-11-13_23h28.01.595,Info_measure_main_exp,2022.2.2,Win32,60.01680471,,,,,,,,,,,,,,,,,,masks/mask_003.jpg,,,,,,,,,,,,,,,,,,,,,,,,,,,,,,,,,,,,,,,,,,,0,4,4,2,1,,,,,,,,,,,,,,,,,,,,,,,,,,,,,,,,,,,,,,,,,,,,,,
592479,001,2022-11-13_23h28.01.595,Info_measure_main_exp,2022.2.2,Win32,60.01680471,,,,,,,,,,,,,,,,,,masks/mask_002.jpg,,,,,,,,,,,,,,,,,,,,,,,,,,,,,,,,,,,,,,,,,,,,,,,,0,0,0,1,1,,,,,,,,,,,,,,,,,,,,,,,,,,,,,,,,,,,,,,,,,
592479,001,2022-11-13_23h28.01.595,Info_measure_main_exp,2022.2.2,Win32,60.01680471,,,,,,,,,,,,,,,,,,masks/mask_005.jpg,,,,,,,,,,,,,,,,,,,,,,,,,,,,,,,,,,,,,,,,,,,,,,,,0,1,1,4,1,,,,,,,,,,,,,,,,,,,,,,,,,,,,,,,,,,,,,,,,,
592479,001,2022-11-13_23h28.01.595,Info_measure_main_exp,2022.2.2,Win32,60.01680471,,,,,,,,,,,,,,,,,,masks/mask_003.jpg,,,,,,,,,,,,,,,,,,,,,,,,,,,,,,,,,,,,,,,,,,,,,,,,0,2,2,2,1,,,,,,,,,,,,,,,,,,,,,,,,,,,,,,,,,,,,,,,,,
592479,001,2022-11-13_23h28.01.595,Info_measure_main_exp,2022.2.2,Win32,60.01680471,,,,,,,,,,,,,,,,,,masks/mask_004.jpg,,,,,,,,,,,,,,,,,,,,,,,,,,,,,,,,,,,,,,,,,,,,,,,,0,3,3,3,1,,,,,,,,,,,,,,,,,,,,,,,,,,,,,,,,,,,,,,,,,
592479,001,2022-11-13_23h28.01.595,Info_measure_main_exp,2022.2.2,Win32,60.01680471,,,,,,,,,,,,,,,,,,masks/mask_001.jpg,,,,,,,,,,,,,,,,,,,,,,,,,,,,,,,,,,,,,,,,,,,,,,,,0,4,4,0,1,,,,,,,,,,,,,,,,,,,,,,,,,,,,,,,,,,,,,,,,,
592479,001,2022-11-13_23h28.01.595,Info_measure_main_exp,2022.2.2,Win32,60.01680471,,,,,,,,,,,,,,,,,,,,,,,,,,,,,,5,1.2501,1,,,,,,,,,,,,0,131,5,5,2298,2214,absent_patch/patch0002298.jpg,absent_patch/patch0002214.jpg,,,,,,,,,,,,,,,,,,,,0.093518575,-0.054629644,1,0,0,response3disk,6,0,0.009259245,1,0,0,center_square,0,5,5,99,1,,,,,,,,,,,,,,,,,,,,,,,
592479,001,2022-11-13_23h28.01.595,Info_measure_main_exp,2022.2.2,Win32,60.01680471,,,,,,,,,,,,,,,,,,masks/mask_001.jpg,,,,,,,,,,,,,,,,,,,,,,,,,,,,,,,,,,,,,,,,,,,0,0,0,0,1,,,,,,,,,,,,,,,,,,,,,,,,,,,,,,,,,,,,,,,,,,,,,,
592479,001,2022-11-13_23h28.01.595,Info_measure_main_exp,2022.2.2,Win32,60.01680471,,,,,,,,,,,,,,,,,,masks/mask_002.jpg,,,,,,,,,,,,,,,,,,,,,,,,,,,,,,,,,,,,,,,,,,,0,1,1,1,1,,,,,,,,,,,,,,,,,,,,,,,,,,,,,,,,,,,,,,,,,,,,,,
592479,001,2022-11-13_23h28.01.595,Info_measure_main_exp,2022.2.2,Win32,60.01680471,,,,,,,,,,,,,,,,,,masks/mask_004.jpg,,,,,,,,,,,,,,,,,,,,,,,,,,,,,,,,,,,,,,,,,,,0,2,2,3,1,,,,,,,,,,,,,,,,,,,,,,,,,,,,,,,,,,,,,,,,,,,,,,
592479,001,2022-11-13_23h28.01.595,Info_measure_main_exp,2022.2.2,Win32,60.01680471,,,,,,,,,,,,,,,,,,masks/mask_005.jpg,,,,,,,,,,,,,,,,,,,,,,,,,,,,,,,,,,,,,,,,,,,0,3,3,4,1,,,,,,,,,,,,,,,,,,,,,,,,,,,,,,,,,,,,,,,,,,,,,,
592479,001,2022-11-13_23h28.01.595,Info_measure_main_exp,2022.2.2,Win32,60.01680471,,,,,,,,,,,,,,,,,,masks/mask_003.jpg,,,,,,,,,,,,,,,,,,,,,,,,,,,,,,,,,,,,,,,,,,,0,4,4,2,1,,,,,,,,,,,,,,,,,,,,,,,,,,,,,,,,,,,,,,,,,,,,,,
592479,001,2022-11-13_23h28.01.595,Info_measure_main_exp,2022.2.2,Win32,60.01680471,,,,,,,,,,,,,,,,,,masks/mask_005.jpg,,,,,,,,,,,,,,,,,,,,,,,,,,,,,,,,,,,,,,,,,,,,,,,,0,0,0,4,1,,,,,,,,,,,,,,,,,,,,,,,,,,,,,,,,,,,,,,,,,
592479,001,2022-11-13_23h28.01.595,Info_measure_main_exp,2022.2.2,Win32,60.01680471,,,,,,,,,,,,,,,,,,masks/mask_004.jpg,,,,,,,,,,,,,,,,,,,,,,,,,,,,,,,,,,,,,,,,,,,,,,,,0,1,1,3,1,,,,,,,,,,,,,,,,,,,,,,,,,,,,,,,,,,,,,,,,,
592479,001,2022-11-13_23h28.01.595,Info_measure_main_exp,2022.2.2,Win32,60.01680471,,,,,,,,,,,,,,,,,,masks/mask_002.jpg,,,,,,,,,,,,,,,,,,,,,,,,,,,,,,,,,,,,,,,,,,,,,,,,0,2,2,1,1,,,,,,,,,,,,,,,,,,,,,,,,,,,,,,,,,,,,,,,,,
592479,001,2022-11-13_23h28.01.595,Info_measure_main_exp,2022.2.2,Win32,60.01680471,,,,,,,,,,,,,,,,,,masks/mask_001.jpg,,,,,,,,,,,,,,,,,,,,,,,,,,,,,,,,,,,,,,,,,,,,,,,,0,3,3,0,1,,,,,,,,,,,,,,,,,,,,,,,,,,,,,,,,,,,,,,,,,
592479,001,2022-11-13_23h28.01.595,Info_measure_main_exp,2022.2.2,Win32,60.01680471,,,,,,,,,,,,,,,,,,masks/mask_003.jpg,,,,,,,,,,,,,,,,,,,,,,,,,,,,,,,,,,,,,,,,,,,,,,,,0,4,4,2,1,,,,,,,,,,,,,,,,,,,,,,,,,,,,,,,,,,,,,,,,,
592479,001,2022-11-13_23h28.01.595,Info_measure_main_exp,2022.2.2,Win32,60.01680471,,,,,,,,,,,,,,,,,,,,,,,,,,,,,,6,1.0168,1,,,,,,,,,,,,0,131,5,5,2178,2154,absent_patch/patch0002178.jpg,absent_patch/patch0002154.jpg,,,,,,,,,,,,,,,,,,,,0.112037065,0.073148134,1,0,0,response1disk,7,0.005555556,-0.003703732,1,0,0,center_square,0,6,6,63,1,,,,,,,,,,,,,,,,,,,,,,,
592479,001,2022-11-13_23h28.01.595,Info_measure_main_exp,2022.2.2,Win32,60.01680471,,,,,,,,,,,,,,,,,,masks/mask_004.jpg,,,,,,,,,,,,,,,,,,,,,,,,,,,,,,,,,,,,,,,,,,,0,0,0,3,1,,,,,,,,,,,,,,,,,,,,,,,,,,,,,,,,,,,,,,,,,,,,,,
592479,001,2022-11-13_23h28.01.595,Info_measure_main_exp,2022.2.2,Win32,60.01680471,,,,,,,,,,,,,,,,,,masks/mask_005.jpg,,,,,,,,,,,,,,,,,,,,,,,,,,,,,,,,,,,,,,,,,,,0,1,1,4,1,,,,,,,,,,,,,,,,,,,,,,,,,,,,,,,,,,,,,,,,,,,,,,
592479,001,2022-11-13_23h28.01.595,Info_measure_main_exp,2022.2.2,Win32,60.01680471,,,,,,,,,,,,,,,,,,masks/mask_002.jpg,,,,,,,,,,,,,,,,,,,,,,,,,,,,,,,,,,,,,,,,,,,0,2,2,1,1,,,,,,,,,,,,,,,,,,,,,,,,,,,,,,,,,,,,,,,,,,,,,,
592479,001,2022-11-13_23h28.01.595,Info_measure_main_exp,2022.2.2,Win32,60.01680471,,,,,,,,,,,,,,,,,,masks/mask_003.jpg,,,,,,,,,,,,,,,,,,,,,,,,,,,,,,,,,,,,,,,,,,,0,3,3,2,1,,,,,,,,,,,,,,,,,,,,,,,,,,,,,,,,,,,,,,,,,,,,,,
592479,001,2022-11-13_23h28.01.595,Info_measure_main_exp,2022.2.2,Win32,60.01680471,,,,,,,,,,,,,,,,,,masks/mask_001.jpg,,,,,,,,,,,,,,,,,,,,,,,,,,,,,,,,,,,,,,,,,,,0,4,4,0,1,,,,,,,,,,,,,,,,,,,,,,,,,,,,,,,,,,,,,,,,,,,,,,
592479,001,2022-11-13_23h28.01.595,Info_measure_main_exp,2022.2.2,Win32,60.01680471,,,,,,,,,,,,,,,,,,masks/mask_001.jpg,,,,,,,,,,,,,,,,,,,,,,,,,,,,,,,,,,,,,,,,,,,,,,,,0,0,0,0,1,,,,,,,,,,,,,,,,,,,,,,,,,,,,,,,,,,,,,,,,,
592479,001,2022-11-13_23h28.01.595,Info_measure_main_exp,2022.2.2,Win32,60.01680471,,,,,,,,,,,,,,,,,,masks/mask_003.jpg,,,,,,,,,,,,,,,,,,,,,,,,,,,,,,,,,,,,,,,,,,,,,,,,0,1,1,2,1,,,,,,,,,,,,,,,,,,,,,,,,,,,,,,,,,,,,,,,,,
592479,001,2022-11-13_23h28.01.595,Info_measure_main_exp,2022.2.2,Win32,60.01680471,,,,,,,,,,,,,,,,,,masks/mask_002.jpg,,,,,,,,,,,,,,,,,,,,,,,,,,,,,,,,,,,,,,,,,,,,,,,,0,2,2,1,1,,,,,,,,,,,,,,,,,,,,,,,,,,,,,,,,,,,,,,,,,
592479,001,2022-11-13_23h28.01.595,Info_measure_main_exp,2022.2.2,Win32,60.01680471,,,,,,,,,,,,,,,,,,masks/mask_005.jpg,,,,,,,,,,,,,,,,,,,,,,,,,,,,,,,,,,,,,,,,,,,,,,,,0,3,3,4,1,,,,,,,,,,,,,,,,,,,,,,,,,,,,,,,,,,,,,,,,,
592479,001,2022-11-13_23h28.01.595,Info_measure_main_exp,2022.2.2,Win32,60.01680471,,,,,,,,,,,,,,,,,,masks/mask_004.jpg,,,,,,,,,,,,,,,,,,,,,,,,,,,,,,,,,,,,,,,,,,,,,,,,0,4,4,3,1,,,,,,,,,,,,,,,,,,,,,,,,,,,,,,,,,,,,,,,,,
592479,001,2022-11-13_23h28.01.595,Info_measure_main_exp,2022.2.2,Win32,60.01680471,,,,,,,,,,,,,,,,,,,,,,,,,,,,,,3,0.9234,1,,,,,,,,,,,,0,131,5,5,2154,1950,absent_patch/patch0002154.jpg,absent_patch/patch0001950.jpg,,,,,,,,,,,,,,,,,,,,-0.060185157,-0.087962977,1,0,0,response5disk,8,-0.001851824,0.008333333,1,0,0,center_square,0,7,7,96,1,,,,,,,,,,,,,,,,,,,,,,,
592479,001,2022-11-13_23h28.01.595,Info_measure_main_exp,2022.2.2,Win32,60.01680471,,,,,,,,,,,,,,,,,,masks/mask_002.jpg,,,,,,,,,,,,,,,,,,,,,,,,,,,,,,,,,,,,,,,,,,,0,0,0,1,1,,,,,,,,,,,,,,,,,,,,,,,,,,,,,,,,,,,,,,,,,,,,,,
592479,001,2022-11-13_23h28.01.595,Info_measure_main_exp,2022.2.2,Win32,60.01680471,,,,,,,,,,,,,,,,,,masks/mask_004.jpg,,,,,,,,,,,,,,,,,,,,,,,,,,,,,,,,,,,,,,,,,,,0,1,1,3,1,,,,,,,,,,,,,,,,,,,,,,,,,,,,,,,,,,,,,,,,,,,,,,
592479,001,2022-11-13_23h28.01.595,Info_measure_main_exp,2022.2.2,Win32,60.01680471,,,,,,,,,,,,,,,,,,masks/mask_001.jpg,,,,,,,,,,,,,,,,,,,,,,,,,,,,,,,,,,,,,,,,,,,0,2,2,0,1,,,,,,,,,,,,,,,,,,,,,,,,,,,,,,,,,,,,,,,,,,,,,,
592479,001,2022-11-13_23h28.01.595,Info_measure_main_exp,2022.2.2,Win32,60.01680471,,,,,,,,,,,,,,,,,,masks/mask_003.jpg,,,,,,,,,,,,,,,,,,,,,,,,,,,,,,,,,,,,,,,,,,,0,3,3,2,1,,,,,,,,,,,,,,,,,,,,,,,,,,,,,,,,,,,,,,,,,,,,,,
592479,001,2022-11-13_23h28.01.595,Info_measure_main_exp,2022.2.2,Win32,60.01680471,,,,,,,,,,,,,,,,,,masks/mask_005.jpg,,,,,,,,,,,,,,,,,,,,,,,,,,,,,,,,,,,,,,,,,,,0,4,4,4,1,,,,,,,,,,,,,,,,,,,,,,,,,,,,,,,,,,,,,,,,,,,,,,
592479,001,2022-11-13_23h28.01.595,Info_measure_main_exp,2022.2.2,Win32,60.01680471,,,,,,,,,,,,,,,,,,masks/mask_004.jpg,,,,,,,,,,,,,,,,,,,,,,,,,,,,,,,,,,,,,,,,,,,,,,,,0,0,0,3,1,,,,,,,,,,,,,,,,,,,,,,,,,,,,,,,,,,,,,,,,,
592479,001,2022-11-13_23h28.01.595,Info_measure_main_exp,2022.2.2,Win32,60.01680471,,,,,,,,,,,,,,,,,,masks/mask_003.jpg,,,,,,,,,,,,,,,,,,,,,,,,,,,,,,,,,,,,,,,,,,,,,,,,0,1,1,2,1,,,,,,,,,,,,,,,,,,,,,,,,,,,,,,,,,,,,,,,,,
592479,001,2022-11-13_23h28.01.595,Info_measure_main_exp,2022.2.2,Win32,60.01680471,,,,,,,,,,,,,,,,,,masks/mask_001.jpg,,,,,,,,,,,,,,,,,,,,,,,,,,,,,,,,,,,,,,,,,,,,,,,,0,2,2,0,1,,,,,,,,,,,,,,,,,,,,,,,,,,,,,,,,,,,,,,,,,
592479,001,2022-11-13_23h28.01.595,Info_measure_main_exp,2022.2.2,Win32,60.01680471,,,,,,,,,,,,,,,,,,masks/mask_005.jpg,,,,,,,,,,,,,,,,,,,,,,,,,,,,,,,,,,,,,,,,,,,,,,,,0,3,3,4,1,,,,,,,,,,,,,,,,,,,,,,,,,,,,,,,,,,,,,,,,,
592479,001,2022-11-13_23h28.01.595,Info_measure_main_exp,2022.2.2,Win32,60.01680471,,,,,,,,,,,,,,,,,,masks/mask_002.jpg,,,,,,,,,,,,,,,,,,,,,,,,,,,,,,,,,,,,,,,,,,,,,,,,0,4,4,1,1,,,,,,,,,,,,,,,,,,,,,,,,,,,,,,,,,,,,,,,,,
592479,001,2022-11-13_23h28.01.595,Info_measure_main_exp,2022.2.2,Win32,60.01680471,,,,,,,,,,,,,,,,,,,,,,,,,,,,,,4,0.64,1,,,,,,,,,,,,0,131,5,5,2298,1986,absent_patch/patch0002298.jpg,absent_patch/patch0001986.jpg,,,,,,,,,,,,,,,,,,,,0.041666667,-0.080555556,1,0,0,response3disk,9,-0.002777778,-0.00648151,1,0,0,center_square,0,8,8,32,1,,,,,,,,,,,,,,,,,,,,,,,
592479,001,2022-11-13_23h28.01.595,Info_measure_main_exp,2022.2.2,Win32,60.01680471,,,,,,,,,,,,,,,,,,masks/mask_005.jpg,,,,,,,,,,,,,,,,,,,,,,,,,,,,,,,,,,,,,,,,,,,0,0,0,4,1,,,,,,,,,,,,,,,,,,,,,,,,,,,,,,,,,,,,,,,,,,,,,,
592479,001,2022-11-13_23h28.01.595,Info_measure_main_exp,2022.2.2,Win32,60.01680471,,,,,,,,,,,,,,,,,,masks/mask_001.jpg,,,,,,,,,,,,,,,,,,,,,,,,,,,,,,,,,,,,,,,,,,,0,1,1,0,1,,,,,,,,,,,,,,,,,,,,,,,,,,,,,,,,,,,,,,,,,,,,,,
592479,001,2022-11-13_23h28.01.595,Info_measure_main_exp,2022.2.2,Win32,60.01680471,,,,,,,,,,,,,,,,,,masks/mask_004.jpg,,,,,,,,,,,,,,,,,,,,,,,,,,,,,,,,,,,,,,,,,,,0,2,2,3,1,,,,,,,,,,,,,,,,,,,,,,,,,,,,,,,,,,,,,,,,,,,,,,
592479,001,2022-11-13_23h28.01.595,Info_measure_main_exp,2022.2.2,Win32,60.01680471,,,,,,,,,,,,,,,,,,masks/mask_002.jpg,,,,,,,,,,,,,,,,,,,,,,,,,,,,,,,,,,,,,,,,,,,0,3,3,1,1,,,,,,,,,,,,,,,,,,,,,,,,,,,,,,,,,,,,,,,,,,,,,,
592479,001,2022-11-13_23h28.01.595,Info_measure_main_exp,2022.2.2,Win32,60.01680471,,,,,,,,,,,,,,,,,,masks/mask_003.jpg,,,,,,,,,,,,,,,,,,,,,,,,,,,,,,,,,,,,,,,,,,,0,4,4,2,1,,,,,,,,,,,,,,,,,,,,,,,,,,,,,,,,,,,,,,,,,,,,,,
592479,001,2022-11-13_23h28.01.595,Info_measure_main_exp,2022.2.2,Win32,60.01680471,,,,,,,,,,,,,,,,,,masks/mask_005.jpg,,,,,,,,,,,,,,,,,,,,,,,,,,,,,,,,,,,,,,,,,,,,,,,,0,0,0,4,1,,,,,,,,,,,,,,,,,,,,,,,,,,,,,,,,,,,,,,,,,
592479,001,2022-11-13_23h28.01.595,Info_measure_main_exp,2022.2.2,Win32,60.01680471,,,,,,,,,,,,,,,,,,masks/mask_002.jpg,,,,,,,,,,,,,,,,,,,,,,,,,,,,,,,,,,,,,,,,,,,,,,,,0,1,1,1,1,,,,,,,,,,,,,,,,,,,,,,,,,,,,,,,,,,,,,,,,,
592479,001,2022-11-13_23h28.01.595,Info_measure_main_exp,2022.2.2,Win32,60.01680471,,,,,,,,,,,,,,,,,,masks/mask_004.jpg,,,,,,,,,,,,,,,,,,,,,,,,,,,,,,,,,,,,,,,,,,,,,,,,0,2,2,3,1,,,,,,,,,,,,,,,,,,,,,,,,,,,,,,,,,,,,,,,,,
592479,001,2022-11-13_23h28.01.595,Info_measure_main_exp,2022.2.2,Win32,60.01680471,,,,,,,,,,,,,,,,,,masks/mask_001.jpg,,,,,,,,,,,,,,,,,,,,,,,,,,,,,,,,,,,,,,,,,,,,,,,,0,3,3,0,1,,,,,,,,,,,,,,,,,,,,,,,,,,,,,,,,,,,,,,,,,
592479,001,2022-11-13_23h28.01.595,Info_measure_main_exp,2022.2.2,Win32,60.01680471,,,,,,,,,,,,,,,,,,masks/mask_003.jpg,,,,,,,,,,,,,,,,,,,,,,,,,,,,,,,,,,,,,,,,,,,,,,,,0,4,4,2,1,,,,,,,,,,,,,,,,,,,,,,,,,,,,,,,,,,,,,,,,,
592479,001,2022-11-13_23h28.01.595,Info_measure_main_exp,2022.2.2,Win32,60.01680471,,,,,,,,,,,,,,,,,,,,,,,,,,,,,,5,0.8832,1,,,,,,,,,,,,0,131,5,5,2274,2250,absent_patch/patch0002274.jpg,absent_patch/patch0002250.jpg,,,,,,,,,,,,,,,,,,,,0.099074131,-0.048148176,1,0,0,response3disk,10,-0.000925869,0.004629601,1,0,0,center_square,0,9,9,28,1,,,,,,,,,,,,,,,,,,,,,,,
592479,001,2022-11-13_23h28.01.595,Info_measure_main_exp,2022.2.2,Win32,60.01680471,,,,,,,,,,,,,,,,,,masks/mask_002.jpg,,,,,,,,,,,,,,,,,,,,,,,,,,,,,,,,,,,,,,,,,,,0,0,0,1,1,,,,,,,,,,,,,,,,,,,,,,,,,,,,,,,,,,,,,,,,,,,,,,
592479,001,2022-11-13_23h28.01.595,Info_measure_main_exp,2022.2.2,Win32,60.01680471,,,,,,,,,,,,,,,,,,masks/mask_001.jpg,,,,,,,,,,,,,,,,,,,,,,,,,,,,,,,,,,,,,,,,,,,0,1,1,0,1,,,,,,,,,,,,,,,,,,,,,,,,,,,,,,,,,,,,,,,,,,,,,,
592479,001,2022-11-13_23h28.01.595,Info_measure_main_exp,2022.2.2,Win32,60.01680471,,,,,,,,,,,,,,,,,,masks/mask_003.jpg,,,,,,,,,,,,,,,,,,,,,,,,,,,,,,,,,,,,,,,,,,,0,2,2,2,1,,,,,,,,,,,,,,,,,,,,,,,,,,,,,,,,,,,,,,,,,,,,,,
592479,001,2022-11-13_23h28.01.595,Info_measure_main_exp,2022.2.2,Win32,60.01680471,,,,,,,,,,,,,,,,,,masks/mask_005.jpg,,,,,,,,,,,,,,,,,,,,,,,,,,,,,,,,,,,,,,,,,,,0,3,3,4,1,,,,,,,,,,,,,,,,,,,,,,,,,,,,,,,,,,,,,,,,,,,,,,
592479,001,2022-11-13_23h28.01.595,Info_measure_main_exp,2022.2.2,Win32,60.01680471,,,,,,,,,,,,,,,,,,masks/mask_004.jpg,,,,,,,,,,,,,,,,,,,,,,,,,,,,,,,,,,,,,,,,,,,0,4,4,3,1,,,,,,,,,,,,,,,,,,,,,,,,,,,,,,,,,,,,,,,,,,,,,,
592479,001,2022-11-13_23h28.01.595,Info_measure_main_exp,2022.2.2,Win32,60.01680471,,,,,,,,,,,,,,,,,,masks/mask_005.jpg,,,,,,,,,,,,,,,,,,,,,,,,,,,,,,,,,,,,,,,,,,,,,,,,0,0,0,4,1,,,,,,,,,,,,,,,,,,,,,,,,,,,,,,,,,,,,,,,,,
592479,001,2022-11-13_23h28.01.595,Info_measure_main_exp,2022.2.2,Win32,60.01680471,,,,,,,,,,,,,,,,,,masks/mask_001.jpg,,,,,,,,,,,,,,,,,,,,,,,,,,,,,,,,,,,,,,,,,,,,,,,,0,1,1,0,1,,,,,,,,,,,,,,,,,,,,,,,,,,,,,,,,,,,,,,,,,
592479,001,2022-11-13_23h28.01.595,Info_measure_main_exp,2022.2.2,Win32,60.01680471,,,,,,,,,,,,,,,,,,masks/mask_003.jpg,,,,,,,,,,,,,,,,,,,,,,,,,,,,,,,,,,,,,,,,,,,,,,,,0,2,2,2,1,,,,,,,,,,,,,,,,,,,,,,,,,,,,,,,,,,,,,,,,,
592479,001,2022-11-13_23h28.01.595,Info_measure_main_exp,2022.2.2,Win32,60.01680471,,,,,,,,,,,,,,,,,,masks/mask_002.jpg,,,,,,,,,,,,,,,,,,,,,,,,,,,,,,,,,,,,,,,,,,,,,,,,0,3,3,1,1,,,,,,,,,,,,,,,,,,,,,,,,,,,,,,,,,,,,,,,,,
592479,001,2022-11-13_23h28.01.595,Info_measure_main_exp,2022.2.2,Win32,60.01680471,,,,,,,,,,,,,,,,,,masks/mask_004.jpg,,,,,,,,,,,,,,,,,,,,,,,,,,,,,,,,,,,,,,,,,,,,,,,,0,4,4,3,1,,,,,,,,,,,,,,,,,,,,,,,,,,,,,,,,,,,,,,,,,
592479,001,2022-11-13_23h28.01.595,Info_measure_main_exp,2022.2.2,Win32,60.01680471,,,,,,,,,,,,,,,,,,,,,,,,,,,,,,4,0.9232,1,,,,,,,,,,,,0,131,5,5,2142,2238,absent_patch/patch0002142.jpg,absent_patch/patch0002238.jpg,,,,,,,,,,,,,,,,,,,,0.025,-0.09629631,1,0,0,response3disk,11,0.000925954,-0.009259288,1,0,0,center_square,0,10,10,101,1,,,,,,,,,,,,,,,,,,,,,,,
592479,001,2022-11-13_23h28.01.595,Info_measure_main_exp,2022.2.2,Win32,60.01680471,,,,,,,,,,,,,,,,,,masks/mask_002.jpg,,,,,,,,,,,,,,,,,,,,,,,,,,,,,,,,,,,,,,,,,,,0,0,0,1,1,,,,,,,,,,,,,,,,,,,,,,,,,,,,,,,,,,,,,,,,,,,,,,
592479,001,2022-11-13_23h28.01.595,Info_measure_main_exp,2022.2.2,Win32,60.01680471,,,,,,,,,,,,,,,,,,masks/mask_003.jpg,,,,,,,,,,,,,,,,,,,,,,,,,,,,,,,,,,,,,,,,,,,0,1,1,2,1,,,,,,,,,,,,,,,,,,,,,,,,,,,,,,,,,,,,,,,,,,,,,,
592479,001,2022-11-13_23h28.01.595,Info_measure_main_exp,2022.2.2,Win32,60.01680471,,,,,,,,,,,,,,,,,,masks/mask_005.jpg,,,,,,,,,,,,,,,,,,,,,,,,,,,,,,,,,,,,,,,,,,,0,2,2,4,1,,,,,,,,,,,,,,,,,,,,,,,,,,,,,,,,,,,,,,,,,,,,,,
592479,001,2022-11-13_23h28.01.595,Info_measure_main_exp,2022.2.2,Win32,60.01680471,,,,,,,,,,,,,,,,,,masks/mask_001.jpg,,,,,,,,,,,,,,,,,,,,,,,,,,,,,,,,,,,,,,,,,,,0,3,3,0,1,,,,,,,,,,,,,,,,,,,,,,,,,,,,,,,,,,,,,,,,,,,,,,
592479,001,2022-11-13_23h28.01.595,Info_measure_main_exp,2022.2.2,Win32,60.01680471,,,,,,,,,,,,,,,,,,masks/mask_004.jpg,,,,,,,,,,,,,,,,,,,,,,,,,,,,,,,,,,,,,,,,,,,0,4,4,3,1,,,,,,,,,,,,,,,,,,,,,,,,,,,,,,,,,,,,,,,,,,,,,,
592479,001,2022-11-13_23h28.01.595,Info_measure_main_exp,2022.2.2,Win32,60.01680471,,,,,,,,,,,,,,,,,,masks/mask_005.jpg,,,,,,,,,,,,,,,,,,,,,,,,,,,,,,,,,,,,,,,,,,,,,,,,0,0,0,4,1,,,,,,,,,,,,,,,,,,,,,,,,,,,,,,,,,,,,,,,,,
592479,001,2022-11-13_23h28.01.595,Info_measure_main_exp,2022.2.2,Win32,60.01680471,,,,,,,,,,,,,,,,,,masks/mask_004.jpg,,,,,,,,,,,,,,,,,,,,,,,,,,,,,,,,,,,,,,,,,,,,,,,,0,1,1,3,1,,,,,,,,,,,,,,,,,,,,,,,,,,,,,,,,,,,,,,,,,
592479,001,2022-11-13_23h28.01.595,Info_measure_main_exp,2022.2.2,Win32,60.01680471,,,,,,,,,,,,,,,,,,masks/mask_001.jpg,,,,,,,,,,,,,,,,,,,,,,,,,,,,,,,,,,,,,,,,,,,,,,,,0,2,2,0,1,,,,,,,,,,,,,,,,,,,,,,,,,,,,,,,,,,,,,,,,,
592479,001,2022-11-13_23h28.01.595,Info_measure_main_exp,2022.2.2,Win32,60.01680471,,,,,,,,,,,,,,,,,,masks/mask_002.jpg,,,,,,,,,,,,,,,,,,,,,,,,,,,,,,,,,,,,,,,,,,,,,,,,0,3,3,1,1,,,,,,,,,,,,,,,,,,,,,,,,,,,,,,,,,,,,,,,,,
592479,001,2022-11-13_23h28.01.595,Info_measure_main_exp,2022.2.2,Win32,60.01680471,,,,,,,,,,,,,,,,,,masks/mask_003.jpg,,,,,,,,,,,,,,,,,,,,,,,,,,,,,,,,,,,,,,,,,,,,,,,,0,4,4,2,1,,,,,,,,,,,,,,,,,,,,,,,,,,,,,,,,,,,,,,,,,
592479,001,2022-11-13_23h28.01.595,Info_measure_main_exp,2022.2.2,Win32,60.01680471,,,,,,,,,,,,,,,,,,,,,,,,,,,,,,3,0.6893,1,,,,,,,,,,,,0,131,5,5,2250,2166,absent_patch/patch0002250.jpg,absent_patch/patch0002166.jpg,,,,,,,,,,,,,,,,,,,,-0.095370314,-0.166666667,1,0,0,response5disk,12,0.002777778,0,1,0,0,center_square,0,11,11,60,1,,,,,,,,,,,,,,,,,,,,,,,
592479,001,2022-11-13_23h28.01.595,Info_measure_main_exp,2022.2.2,Win32,60.01680471,,,,,,,,,,,,,,,,,,masks/mask_005.jpg,,,,,,,,,,,,,,,,,,,,,,,,,,,,,,,,,,,,,,,,,,,0,0,0,4,1,,,,,,,,,,,,,,,,,,,,,,,,,,,,,,,,,,,,,,,,,,,,,,
592479,001,2022-11-13_23h28.01.595,Info_measure_main_exp,2022.2.2,Win32,60.01680471,,,,,,,,,,,,,,,,,,masks/mask_001.jpg,,,,,,,,,,,,,,,,,,,,,,,,,,,,,,,,,,,,,,,,,,,0,1,1,0,1,,,,,,,,,,,,,,,,,,,,,,,,,,,,,,,,,,,,,,,,,,,,,,
592479,001,2022-11-13_23h28.01.595,Info_measure_main_exp,2022.2.2,Win32,60.01680471,,,,,,,,,,,,,,,,,,masks/mask_002.jpg,,,,,,,,,,,,,,,,,,,,,,,,,,,,,,,,,,,,,,,,,,,0,2,2,1,1,,,,,,,,,,,,,,,,,,,,,,,,,,,,,,,,,,,,,,,,,,,,,,
592479,001,2022-11-13_23h28.01.595,Info_measure_main_exp,2022.2.2,Win32,60.01680471,,,,,,,,,,,,,,,,,,masks/mask_004.jpg,,,,,,,,,,,,,,,,,,,,,,,,,,,,,,,,,,,,,,,,,,,0,3,3,3,1,,,,,,,,,,,,,,,,,,,,,,,,,,,,,,,,,,,,,,,,,,,,,,
592479,001,2022-11-13_23h28.01.595,Info_measure_main_exp,2022.2.2,Win32,60.01680471,,,,,,,,,,,,,,,,,,masks/mask_003.jpg,,,,,,,,,,,,,,,,,,,,,,,,,,,,,,,,,,,,,,,,,,,0,4,4,2,1,,,,,,,,,,,,,,,,,,,,,,,,,,,,,,,,,,,,,,,,,,,,,,
592479,001,2022-11-13_23h28.01.595,Info_measure_main_exp,2022.2.2,Win32,60.01680471,,,,,,,,,,,,,,,,,,masks/mask_001.jpg,,,,,,,,,,,,,,,,,,,,,,,,,,,,,,,,,,,,,,,,,,,,,,,,0,0,0,0,1,,,,,,,,,,,,,,,,,,,,,,,,,,,,,,,,,,,,,,,,,
592479,001,2022-11-13_23h28.01.595,Info_measure_main_exp,2022.2.2,Win32,60.01680471,,,,,,,,,,,,,,,,,,masks/mask_005.jpg,,,,,,,,,,,,,,,,,,,,,,,,,,,,,,,,,,,,,,,,,,,,,,,,0,1,1,4,1,,,,,,,,,,,,,,,,,,,,,,,,,,,,,,,,,,,,,,,,,
592479,001,2022-11-13_23h28.01.595,Info_measure_main_exp,2022.2.2,Win32,60.01680471,,,,,,,,,,,,,,,,,,masks/mask_003.jpg,,,,,,,,,,,,,,,,,,,,,,,,,,,,,,,,,,,,,,,,,,,,,,,,0,2,2,2,1,,,,,,,,,,,,,,,,,,,,,,,,,,,,,,,,,,,,,,,,,
592479,001,2022-11-13_23h28.01.595,Info_measure_main_exp,2022.2.2,Win32,60.01680471,,,,,,,,,,,,,,,,,,masks/mask_002.jpg,,,,,,,,,,,,,,,,,,,,,,,,,,,,,,,,,,,,,,,,,,,,,,,,0,3,3,1,1,,,,,,,,,,,,,,,,,,,,,,,,,,,,,,,,,,,,,,,,,
592479,001,2022-11-13_23h28.01.595,Info_measure_main_exp,2022.2.2,Win32,60.01680471,,,,,,,,,,,,,,,,,,masks/mask_004.jpg,,,,,,,,,,,,,,,,,,,,,,,,,,,,,,,,,,,,,,,,,,,,,,,,0,4,4,3,1,,,,,,,,,,,,,,,,,,,,,,,,,,,,,,,,,,,,,,,,,
592479,001,2022-11-13_23h28.01.595,Info_measure_main_exp,2022.2.2,Win32,60.01680471,,,,,,,,,,,,,,,,,,,,,,,,,,,,,,3,0.7233,1,,,,,,,,,,,,0,131,5,5,2214,2166,absent_patch/patch0002214.jpg,absent_patch/patch0002166.jpg,,,,,,,,,,,,,,,,,,,,-0.021296268,-0.089814843,1,0,0,response5disk,13,0.010185242,-0.012962977,1,0,0,center_square,0,12,12,109,1,,,,,,,,,,,,,,,,,,,,,,,
592479,001,2022-11-13_23h28.01.595,Info_measure_main_exp,2022.2.2,Win32,60.01680471,,,,,,,,,,,,,,,,,,masks/mask_002.jpg,,,,,,,,,,,,,,,,,,,,,,,,,,,,,,,,,,,,,,,,,,,0,0,0,1,1,,,,,,,,,,,,,,,,,,,,,,,,,,,,,,,,,,,,,,,,,,,,,,
592479,001,2022-11-13_23h28.01.595,Info_measure_main_exp,2022.2.2,Win32,60.01680471,,,,,,,,,,,,,,,,,,masks/mask_004.jpg,,,,,,,,,,,,,,,,,,,,,,,,,,,,,,,,,,,,,,,,,,,0,1,1,3,1,,,,,,,,,,,,,,,,,,,,,,,,,,,,,,,,,,,,,,,,,,,,,,
592479,001,2022-11-13_23h28.01.595,Info_measure_main_exp,2022.2.2,Win32,60.01680471,,,,,,,,,,,,,,,,,,masks/mask_005.jpg,,,,,,,,,,,,,,,,,,,,,,,,,,,,,,,,,,,,,,,,,,,0,2,2,4,1,,,,,,,,,,,,,,,,,,,,,,,,,,,,,,,,,,,,,,,,,,,,,,
592479,001,2022-11-13_23h28.01.595,Info_measure_main_exp,2022.2.2,Win32,60.01680471,,,,,,,,,,,,,,,,,,masks/mask_001.jpg,,,,,,,,,,,,,,,,,,,,,,,,,,,,,,,,,,,,,,,,,,,0,3,3,0,1,,,,,,,,,,,,,,,,,,,,,,,,,,,,,,,,,,,,,,,,,,,,,,
592479,001,2022-11-13_23h28.01.595,Info_measure_main_exp,2022.2.2,Win32,60.01680471,,,,,,,,,,,,,,,,,,masks/mask_003.jpg,,,,,,,,,,,,,,,,,,,,,,,,,,,,,,,,,,,,,,,,,,,0,4,4,2,1,,,,,,,,,,,,,,,,,,,,,,,,,,,,,,,,,,,,,,,,,,,,,,
592479,001,2022-11-13_23h28.01.595,Info_measure_main_exp,2022.2.2,Win32,60.01680471,,,,,,,,,,,,,,,,,,masks/mask_003.jpg,,,,,,,,,,,,,,,,,,,,,,,,,,,,,,,,,,,,,,,,,,,,,,,,0,0,0,2,1,,,,,,,,,,,,,,,,,,,,,,,,,,,,,,,,,,,,,,,,,
592479,001,2022-11-13_23h28.01.595,Info_measure_main_exp,2022.2.2,Win32,60.01680471,,,,,,,,,,,,,,,,,,masks/mask_005.jpg,,,,,,,,,,,,,,,,,,,,,,,,,,,,,,,,,,,,,,,,,,,,,,,,0,1,1,4,1,,,,,,,,,,,,,,,,,,,,,,,,,,,,,,,,,,,,,,,,,
592479,001,2022-11-13_23h28.01.595,Info_measure_main_exp,2022.2.2,Win32,60.01680471,,,,,,,,,,,,,,,,,,masks/mask_001.jpg,,,,,,,,,,,,,,,,,,,,,,,,,,,,,,,,,,,,,,,,,,,,,,,,0,2,2,0,1,,,,,,,,,,,,,,,,,,,,,,,,,,,,,,,,,,,,,,,,,
592479,001,2022-11-13_23h28.01.595,Info_measure_main_exp,2022.2.2,Win32,60.01680471,,,,,,,,,,,,,,,,,,masks/mask_002.jpg,,,,,,,,,,,,,,,,,,,,,,,,,,,,,,,,,,,,,,,,,,,,,,,,0,3,3,1,1,,,,,,,,,,,,,,,,,,,,,,,,,,,,,,,,,,,,,,,,,
592479,001,2022-11-13_23h28.01.595,Info_measure_main_exp,2022.2.2,Win32,60.01680471,,,,,,,,,,,,,,,,,,masks/mask_004.jpg,,,,,,,,,,,,,,,,,,,,,,,,,,,,,,,,,,,,,,,,,,,,,,,,0,4,4,3,1,,,,,,,,,,,,,,,,,,,,,,,,,,,,,,,,,,,,,,,,,
592479,001,2022-11-13_23h28.01.595,Info_measure_main_exp,2022.2.2,Win32,60.01680471,,,,,,,,,,,,,,,,,,,,,,,,,,,,,,1,0.9232,1,,,,,,,,,,,,0,131,5,5,1974,1950,absent_patch/patch0001974.jpg,absent_patch/patch0001950.jpg,,,,,,,,,,,,,,,,,,,,-0.111111111,0.036111111,1,0,0,response7disk,14,-0.012962935,-0.010185199,1,0,0,center_square,0,13,13,17,1,,,,,,,,,,,,,,,,,,,,,,,
592479,001,2022-11-13_23h28.01.595,Info_measure_main_exp,2022.2.2,Win32,60.01680471,,,,,,,,,,,,,,,,,,masks/mask_003.jpg,,,,,,,,,,,,,,,,,,,,,,,,,,,,,,,,,,,,,,,,,,,0,0,0,2,1,,,,,,,,,,,,,,,,,,,,,,,,,,,,,,,,,,,,,,,,,,,,,,
592479,001,2022-11-13_23h28.01.595,Info_measure_main_exp,2022.2.2,Win32,60.01680471,,,,,,,,,,,,,,,,,,masks/mask_001.jpg,,,,,,,,,,,,,,,,,,,,,,,,,,,,,,,,,,,,,,,,,,,0,1,1,0,1,,,,,,,,,,,,,,,,,,,,,,,,,,,,,,,,,,,,,,,,,,,,,,
592479,001,2022-11-13_23h28.01.595,Info_measure_main_exp,2022.2.2,Win32,60.01680471,,,,,,,,,,,,,,,,,,masks/mask_005.jpg,,,,,,,,,,,,,,,,,,,,,,,,,,,,,,,,,,,,,,,,,,,0,2,2,4,1,,,,,,,,,,,,,,,,,,,,,,,,,,,,,,,,,,,,,,,,,,,,,,
592479,001,2022-11-13_23h28.01.595,Info_measure_main_exp,2022.2.2,Win32,60.01680471,,,,,,,,,,,,,,,,,,masks/mask_002.jpg,,,,,,,,,,,,,,,,,,,,,,,,,,,,,,,,,,,,,,,,,,,0,3,3,1,1,,,,,,,,,,,,,,,,,,,,,,,,,,,,,,,,,,,,,,,,,,,,,,
592479,001,2022-11-13_23h28.01.595,Info_measure_main_exp,2022.2.2,Win32,60.01680471,,,,,,,,,,,,,,,,,,masks/mask_004.jpg,,,,,,,,,,,,,,,,,,,,,,,,,,,,,,,,,,,,,,,,,,,0,4,4,3,1,,,,,,,,,,,,,,,,,,,,,,,,,,,,,,,,,,,,,,,,,,,,,,
592479,001,2022-11-13_23h28.01.595,Info_measure_main_exp,2022.2.2,Win32,60.01680471,,,,,,,,,,,,,,,,,,masks/mask_003.jpg,,,,,,,,,,,,,,,,,,,,,,,,,,,,,,,,,,,,,,,,,,,,,,,,0,0,0,2,1,,,,,,,,,,,,,,,,,,,,,,,,,,,,,,,,,,,,,,,,,
592479,001,2022-11-13_23h28.01.595,Info_measure_main_exp,2022.2.2,Win32,60.01680471,,,,,,,,,,,,,,,,,,masks/mask_001.jpg,,,,,,,,,,,,,,,,,,,,,,,,,,,,,,,,,,,,,,,,,,,,,,,,0,1,1,0,1,,,,,,,,,,,,,,,,,,,,,,,,,,,,,,,,,,,,,,,,,
592479,001,2022-11-13_23h28.01.595,Info_measure_main_exp,2022.2.2,Win32,60.01680471,,,,,,,,,,,,,,,,,,masks/mask_004.jpg,,,,,,,,,,,,,,,,,,,,,,,,,,,,,,,,,,,,,,,,,,,,,,,,0,2,2,3,1,,,,,,,,,,,,,,,,,,,,,,,,,,,,,,,,,,,,,,,,,
592479,001,2022-11-13_23h28.01.595,Info_measure_main_exp,2022.2.2,Win32,60.01680471,,,,,,,,,,,,,,,,,,masks/mask_002.jpg,,,,,,,,,,,,,,,,,,,,,,,,,,,,,,,,,,,,,,,,,,,,,,,,0,3,3,1,1,,,,,,,,,,,,,,,,,,,,,,,,,,,,,,,,,,,,,,,,,
592479,001,2022-11-13_23h28.01.595,Info_measure_main_exp,2022.2.2,Win32,60.01680471,,,,,,,,,,,,,,,,,,masks/mask_005.jpg,,,,,,,,,,,,,,,,,,,,,,,,,,,,,,,,,,,,,,,,,,,,,,,,0,4,4,4,1,,,,,,,,,,,,,,,,,,,,,,,,,,,,,,,,,,,,,,,,,
592479,001,2022-11-13_23h28.01.595,Info_measure_main_exp,2022.2.2,Win32,60.01680471,,,,,,,,,,,,,,,,,,,,,,,,,,,,,,4,0.9069,1,,,,,,,,,,,,0,131,5,5,2298,2142,absent_patch/patch0002298.jpg,absent_patch/patch0002142.jpg,,,,,,,,,,,,,,,,,,,,0.038888889,-0.102777778,1,0,0,response3disk,15,-0.006481425,0.009259245,1,0,0,center_square,0,14,14,49,1,,,,,,,,,,,,,,,,,,,,,,,
592479,001,2022-11-13_23h28.01.595,Info_measure_main_exp,2022.2.2,Win32,60.01680471,,,,,,,,,,,,,,,,,,masks/mask_005.jpg,,,,,,,,,,,,,,,,,,,,,,,,,,,,,,,,,,,,,,,,,,,0,0,0,4,1,,,,,,,,,,,,,,,,,,,,,,,,,,,,,,,,,,,,,,,,,,,,,,
592479,001,2022-11-13_23h28.01.595,Info_measure_main_exp,2022.2.2,Win32,60.01680471,,,,,,,,,,,,,,,,,,masks/mask_002.jpg,,,,,,,,,,,,,,,,,,,,,,,,,,,,,,,,,,,,,,,,,,,0,1,1,1,1,,,,,,,,,,,,,,,,,,,,,,,,,,,,,,,,,,,,,,,,,,,,,,
592479,001,2022-11-13_23h28.01.595,Info_measure_main_exp,2022.2.2,Win32,60.01680471,,,,,,,,,,,,,,,,,,masks/mask_003.jpg,,,,,,,,,,,,,,,,,,,,,,,,,,,,,,,,,,,,,,,,,,,0,2,2,2,1,,,,,,,,,,,,,,,,,,,,,,,,,,,,,,,,,,,,,,,,,,,,,,
592479,001,2022-11-13_23h28.01.595,Info_measure_main_exp,2022.2.2,Win32,60.01680471,,,,,,,,,,,,,,,,,,masks/mask_004.jpg,,,,,,,,,,,,,,,,,,,,,,,,,,,,,,,,,,,,,,,,,,,0,3,3,3,1,,,,,,,,,,,,,,,,,,,,,,,,,,,,,,,,,,,,,,,,,,,,,,
592479,001,2022-11-13_23h28.01.595,Info_measure_main_exp,2022.2.2,Win32,60.01680471,,,,,,,,,,,,,,,,,,masks/mask_001.jpg,,,,,,,,,,,,,,,,,,,,,,,,,,,,,,,,,,,,,,,,,,,0,4,4,0,1,,,,,,,,,,,,,,,,,,,,,,,,,,,,,,,,,,,,,,,,,,,,,,
592479,001,2022-11-13_23h28.01.595,Info_measure_main_exp,2022.2.2,Win32,60.01680471,,,,,,,,,,,,,,,,,,masks/mask_003.jpg,,,,,,,,,,,,,,,,,,,,,,,,,,,,,,,,,,,,,,,,,,,,,,,,0,0,0,2,1,,,,,,,,,,,,,,,,,,,,,,,,,,,,,,,,,,,,,,,,,
592479,001,2022-11-13_23h28.01.595,Info_measure_main_exp,2022.2.2,Win32,60.01680471,,,,,,,,,,,,,,,,,,masks/mask_001.jpg,,,,,,,,,,,,,,,,,,,,,,,,,,,,,,,,,,,,,,,,,,,,,,,,0,1,1,0,1,,,,,,,,,,,,,,,,,,,,,,,,,,,,,,,,,,,,,,,,,
592479,001,2022-11-13_23h28.01.595,Info_measure_main_exp,2022.2.2,Win32,60.01680471,,,,,,,,,,,,,,,,,,masks/mask_002.jpg,,,,,,,,,,,,,,,,,,,,,,,,,,,,,,,,,,,,,,,,,,,,,,,,0,2,2,1,1,,,,,,,,,,,,,,,,,,,,,,,,,,,,,,,,,,,,,,,,,
592479,001,2022-11-13_23h28.01.595,Info_measure_main_exp,2022.2.2,Win32,60.01680471,,,,,,,,,,,,,,,,,,masks/mask_004.jpg,,,,,,,,,,,,,,,,,,,,,,,,,,,,,,,,,,,,,,,,,,,,,,,,0,3,3,3,1,,,,,,,,,,,,,,,,,,,,,,,,,,,,,,,,,,,,,,,,,
592479,001,2022-11-13_23h28.01.595,Info_measure_main_exp,2022.2.2,Win32,60.01680471,,,,,,,,,,,,,,,,,,masks/mask_005.jpg,,,,,,,,,,,,,,,,,,,,,,,,,,,,,,,,,,,,,,,,,,,,,,,,0,4,4,4,1,,,,,,,,,,,,,,,,,,,,,,,,,,,,,,,,,,,,,,,,,
592479,001,2022-11-13_23h28.01.595,Info_measure_main_exp,2022.2.2,Win32,60.01680471,,,,,,,,,,,,,,,,,,,,,,,,,,,,,,3,0.6732,1,,,,,,,,,,,,0,131,5,5,2214,2082,absent_patch/patch0002214.jpg,absent_patch/patch0002082.jpg,,,,,,,,,,,,,,,,,,,,-0.024074046,-0.069444444,1,0,0,response5disk,16,0.008333333,0.006481467,1,0,0,center_square,0,15,15,103,1,,,,,,,,,,,,,,,,,,,,,,,
592479,001,2022-11-13_23h28.01.595,Info_measure_main_exp,2022.2.2,Win32,60.01680471,,,,,,,,,,,,,,,,,,masks/mask_001.jpg,,,,,,,,,,,,,,,,,,,,,,,,,,,,,,,,,,,,,,,,,,,0,0,0,0,1,,,,,,,,,,,,,,,,,,,,,,,,,,,,,,,,,,,,,,,,,,,,,,
592479,001,2022-11-13_23h28.01.595,Info_measure_main_exp,2022.2.2,Win32,60.01680471,,,,,,,,,,,,,,,,,,masks/mask_004.jpg,,,,,,,,,,,,,,,,,,,,,,,,,,,,,,,,,,,,,,,,,,,0,1,1,3,1,,,,,,,,,,,,,,,,,,,,,,,,,,,,,,,,,,,,,,,,,,,,,,
592479,001,2022-11-13_23h28.01.595,Info_measure_main_exp,2022.2.2,Win32,60.01680471,,,,,,,,,,,,,,,,,,masks/mask_005.jpg,,,,,,,,,,,,,,,,,,,,,,,,,,,,,,,,,,,,,,,,,,,0,2,2,4,1,,,,,,,,,,,,,,,,,,,,,,,,,,,,,,,,,,,,,,,,,,,,,,
592479,001,2022-11-13_23h28.01.595,Info_measure_main_exp,2022.2.2,Win32,60.01680471,,,,,,,,,,,,,,,,,,masks/mask_002.jpg,,,,,,,,,,,,,,,,,,,,,,,,,,,,,,,,,,,,,,,,,,,0,3,3,1,1,,,,,,,,,,,,,,,,,,,,,,,,,,,,,,,,,,,,,,,,,,,,,,
592479,001,2022-11-13_23h28.01.595,Info_measure_main_exp,2022.2.2,Win32,60.01680471,,,,,,,,,,,,,,,,,,masks/mask_003.jpg,,,,,,,,,,,,,,,,,,,,,,,,,,,,,,,,,,,,,,,,,,,0,4,4,2,1,,,,,,,,,,,,,,,,,,,,,,,,,,,,,,,,,,,,,,,,,,,,,,
592479,001,2022-11-13_23h28.01.595,Info_measure_main_exp,2022.2.2,Win32,60.01680471,,,,,,,,,,,,,,,,,,masks/mask_003.jpg,,,,,,,,,,,,,,,,,,,,,,,,,,,,,,,,,,,,,,,,,,,,,,,,0,0,0,2,1,,,,,,,,,,,,,,,,,,,,,,,,,,,,,,,,,,,,,,,,,
592479,001,2022-11-13_23h28.01.595,Info_measure_main_exp,2022.2.2,Win32,60.01680471,,,,,,,,,,,,,,,,,,masks/mask_002.jpg,,,,,,,,,,,,,,,,,,,,,,,,,,,,,,,,,,,,,,,,,,,,,,,,0,1,1,1,1,,,,,,,,,,,,,,,,,,,,,,,,,,,,,,,,,,,,,,,,,
592479,001,2022-11-13_23h28.01.595,Info_measure_main_exp,2022.2.2,Win32,60.01680471,,,,,,,,,,,,,,,,,,masks/mask_005.jpg,,,,,,,,,,,,,,,,,,,,,,,,,,,,,,,,,,,,,,,,,,,,,,,,0,2,2,4,1,,,,,,,,,,,,,,,,,,,,,,,,,,,,,,,,,,,,,,,,,
592479,001,2022-11-13_23h28.01.595,Info_measure_main_exp,2022.2.2,Win32,60.01680471,,,,,,,,,,,,,,,,,,masks/mask_001.jpg,,,,,,,,,,,,,,,,,,,,,,,,,,,,,,,,,,,,,,,,,,,,,,,,0,3,3,0,1,,,,,,,,,,,,,,,,,,,,,,,,,,,,,,,,,,,,,,,,,
592479,001,2022-11-13_23h28.01.595,Info_measure_main_exp,2022.2.2,Win32,60.01680471,,,,,,,,,,,,,,,,,,masks/mask_004.jpg,,,,,,,,,,,,,,,,,,,,,,,,,,,,,,,,,,,,,,,,,,,,,,,,0,4,4,3,1,,,,,,,,,,,,,,,,,,,,,,,,,,,,,,,,,,,,,,,,,
592479,001,2022-11-13_23h28.01.595,Info_measure_main_exp,2022.2.2,Win32,60.01680471,,,,,,,,,,,,,,,,,,,,,,,,,,,,,,5,0.7067,1,,,,,,,,,,,,0,131,5,5,2142,2154,absent_patch/patch0002142.jpg,absent_patch/patch0002154.jpg,,,,,,,,,,,,,,,,,,,,0.120370399,-0.03148151,1,0,0,response3disk,17,0.005555556,0.009259245,1,0,0,center_square,0,16,16,9,1,,,,,,,,,,,,,,,,,,,,,,,
592479,001,2022-11-13_23h28.01.595,Info_measure_main_exp,2022.2.2,Win32,60.01680471,,,,,,,,,,,,,,,,,,masks/mask_003.jpg,,,,,,,,,,,,,,,,,,,,,,,,,,,,,,,,,,,,,,,,,,,0,0,0,2,1,,,,,,,,,,,,,,,,,,,,,,,,,,,,,,,,,,,,,,,,,,,,,,
592479,001,2022-11-13_23h28.01.595,Info_measure_main_exp,2022.2.2,Win32,60.01680471,,,,,,,,,,,,,,,,,,masks/mask_002.jpg,,,,,,,,,,,,,,,,,,,,,,,,,,,,,,,,,,,,,,,,,,,0,1,1,1,1,,,,,,,,,,,,,,,,,,,,,,,,,,,,,,,,,,,,,,,,,,,,,,
592479,001,2022-11-13_23h28.01.595,Info_measure_main_exp,2022.2.2,Win32,60.01680471,,,,,,,,,,,,,,,,,,masks/mask_005.jpg,,,,,,,,,,,,,,,,,,,,,,,,,,,,,,,,,,,,,,,,,,,0,2,2,4,1,,,,,,,,,,,,,,,,,,,,,,,,,,,,,,,,,,,,,,,,,,,,,,
592479,001,2022-11-13_23h28.01.595,Info_measure_main_exp,2022.2.2,Win32,60.01680471,,,,,,,,,,,,,,,,,,masks/mask_001.jpg,,,,,,,,,,,,,,,,,,,,,,,,,,,,,,,,,,,,,,,,,,,0,3,3,0,1,,,,,,,,,,,,,,,,,,,,,,,,,,,,,,,,,,,,,,,,,,,,,,
592479,001,2022-11-13_23h28.01.595,Info_measure_main_exp,2022.2.2,Win32,60.01680471,,,,,,,,,,,,,,,,,,masks/mask_004.jpg,,,,,,,,,,,,,,,,,,,,,,,,,,,,,,,,,,,,,,,,,,,0,4,4,3,1,,,,,,,,,,,,,,,,,,,,,,,,,,,,,,,,,,,,,,,,,,,,,,
592479,001,2022-11-13_23h28.01.595,Info_measure_main_exp,2022.2.2,Win32,60.01680471,,,,,,,,,,,,,,,,,,masks/mask_004.jpg,,,,,,,,,,,,,,,,,,,,,,,,,,,,,,,,,,,,,,,,,,,,,,,,0,0,0,3,1,,,,,,,,,,,,,,,,,,,,,,,,,,,,,,,,,,,,,,,,,
592479,001,2022-11-13_23h28.01.595,Info_measure_main_exp,2022.2.2,Win32,60.01680471,,,,,,,,,,,,,,,,,,masks/mask_002.jpg,,,,,,,,,,,,,,,,,,,,,,,,,,,,,,,,,,,,,,,,,,,,,,,,0,1,1,1,1,,,,,,,,,,,,,,,,,,,,,,,,,,,,,,,,,,,,,,,,,
592479,001,2022-11-13_23h28.01.595,Info_measure_main_exp,2022.2.2,Win32,60.01680471,,,,,,,,,,,,,,,,,,masks/mask_005.jpg,,,,,,,,,,,,,,,,,,,,,,,,,,,,,,,,,,,,,,,,,,,,,,,,0,2,2,4,1,,,,,,,,,,,,,,,,,,,,,,,,,,,,,,,,,,,,,,,,,
592479,001,2022-11-13_23h28.01.595,Info_measure_main_exp,2022.2.2,Win32,60.01680471,,,,,,,,,,,,,,,,,,masks/mask_001.jpg,,,,,,,,,,,,,,,,,,,,,,,,,,,,,,,,,,,,,,,,,,,,,,,,0,3,3,0,1,,,,,,,,,,,,,,,,,,,,,,,,,,,,,,,,,,,,,,,,,
592479,001,2022-11-13_23h28.01.595,Info_measure_main_exp,2022.2.2,Win32,60.01680471,,,,,,,,,,,,,,,,,,masks/mask_003.jpg,,,,,,,,,,,,,,,,,,,,,,,,,,,,,,,,,,,,,,,,,,,,,,,,0,4,4,2,1,,,,,,,,,,,,,,,,,,,,,,,,,,,,,,,,,,,,,,,,,
592479,001,2022-11-13_23h28.01.595,Info_measure_main_exp,2022.2.2,Win32,60.01680471,,,,,,,,,,,,,,,,,,,,,,,,,,,,,,4,0.6401,1,,,,,,,,,,,,0,131,5,5,2190,2250,absent_patch/patch0002190.jpg,absent_patch/patch0002250.jpg,,,,,,,,,,,,,,,,,,,,0.058333333,-0.097222222,1,0,0,response3disk,18,-0.001851824,0.014814801,1,0,0,center_square,0,17,17,93,1,,,,,,,,,,,,,,,,,,,,,,,
592479,001,2022-11-13_23h28.01.595,Info_measure_main_exp,2022.2.2,Win32,60.01680471,,,,,,,,,,,,,,,,,,masks/mask_002.jpg,,,,,,,,,,,,,,,,,,,,,,,,,,,,,,,,,,,,,,,,,,,0,0,0,1,1,,,,,,,,,,,,,,,,,,,,,,,,,,,,,,,,,,,,,,,,,,,,,,
592479,001,2022-11-13_23h28.01.595,Info_measure_main_exp,2022.2.2,Win32,60.01680471,,,,,,,,,,,,,,,,,,masks/mask_004.jpg,,,,,,,,,,,,,,,,,,,,,,,,,,,,,,,,,,,,,,,,,,,0,1,1,3,1,,,,,,,,,,,,,,,,,,,,,,,,,,,,,,,,,,,,,,,,,,,,,,
592479,001,2022-11-13_23h28.01.595,Info_measure_main_exp,2022.2.2,Win32,60.01680471,,,,,,,,,,,,,,,,,,masks/mask_003.jpg,,,,,,,,,,,,,,,,,,,,,,,,,,,,,,,,,,,,,,,,,,,0,2,2,2,1,,,,,,,,,,,,,,,,,,,,,,,,,,,,,,,,,,,,,,,,,,,,,,
592479,001,2022-11-13_23h28.01.595,Info_measure_main_exp,2022.2.2,Win32,60.01680471,,,,,,,,,,,,,,,,,,masks/mask_005.jpg,,,,,,,,,,,,,,,,,,,,,,,,,,,,,,,,,,,,,,,,,,,0,3,3,4,1,,,,,,,,,,,,,,,,,,,,,,,,,,,,,,,,,,,,,,,,,,,,,,
592479,001,2022-11-13_23h28.01.595,Info_measure_main_exp,2022.2.2,Win32,60.01680471,,,,,,,,,,,,,,,,,,masks/mask_001.jpg,,,,,,,,,,,,,,,,,,,,,,,,,,,,,,,,,,,,,,,,,,,0,4,4,0,1,,,,,,,,,,,,,,,,,,,,,,,,,,,,,,,,,,,,,,,,,,,,,,
592479,001,2022-11-13_23h28.01.595,Info_measure_main_exp,2022.2.2,Win32,60.01680471,,,,,,,,,,,,,,,,,,masks/mask_002.jpg,,,,,,,,,,,,,,,,,,,,,,,,,,,,,,,,,,,,,,,,,,,,,,,,0,0,0,1,1,,,,,,,,,,,,,,,,,,,,,,,,,,,,,,,,,,,,,,,,,
592479,001,2022-11-13_23h28.01.595,Info_measure_main_exp,2022.2.2,Win32,60.01680471,,,,,,,,,,,,,,,,,,masks/mask_003.jpg,,,,,,,,,,,,,,,,,,,,,,,,,,,,,,,,,,,,,,,,,,,,,,,,0,1,1,2,1,,,,,,,,,,,,,,,,,,,,,,,,,,,,,,,,,,,,,,,,,
592479,001,2022-11-13_23h28.01.595,Info_measure_main_exp,2022.2.2,Win32,60.01680471,,,,,,,,,,,,,,,,,,masks/mask_004.jpg,,,,,,,,,,,,,,,,,,,,,,,,,,,,,,,,,,,,,,,,,,,,,,,,0,2,2,3,1,,,,,,,,,,,,,,,,,,,,,,,,,,,,,,,,,,,,,,,,,
592479,001,2022-11-13_23h28.01.595,Info_measure_main_exp,2022.2.2,Win32,60.01680471,,,,,,,,,,,,,,,,,,masks/mask_005.jpg,,,,,,,,,,,,,,,,,,,,,,,,,,,,,,,,,,,,,,,,,,,,,,,,0,3,3,4,1,,,,,,,,,,,,,,,,,,,,,,,,,,,,,,,,,,,,,,,,,
592479,001,2022-11-13_23h28.01.595,Info_measure_main_exp,2022.2.2,Win32,60.01680471,,,,,,,,,,,,,,,,,,masks/mask_001.jpg,,,,,,,,,,,,,,,,,,,,,,,,,,,,,,,,,,,,,,,,,,,,,,,,0,4,4,0,1,,,,,,,,,,,,,,,,,,,,,,,,,,,,,,,,,,,,,,,,,
592479,001,2022-11-13_23h28.01.595,Info_measure_main_exp,2022.2.2,Win32,60.01680471,,,,,,,,,,,,,,,,,,,,,,,,,,,,,,6,0.7901,1,,,,,,,,,,,,0,131,5,5,2082,2154,absent_patch/patch0002082.jpg,absent_patch/patch0002154.jpg,,,,,,,,,,,,,,,,,,,,0.152777778,0.075925912,1,0,0,response1disk,19,0.001851908,0.001851824,1,0,0,center_square,0,18,18,33,1,,,,,,,,,,,,,,,,,,,,,,,
592479,001,2022-11-13_23h28.01.595,Info_measure_main_exp,2022.2.2,Win32,60.01680471,,,,,,,,,,,,,,,,,,masks/mask_002.jpg,,,,,,,,,,,,,,,,,,,,,,,,,,,,,,,,,,,,,,,,,,,0,0,0,1,1,,,,,,,,,,,,,,,,,,,,,,,,,,,,,,,,,,,,,,,,,,,,,,
592479,001,2022-11-13_23h28.01.595,Info_measure_main_exp,2022.2.2,Win32,60.01680471,,,,,,,,,,,,,,,,,,masks/mask_004.jpg,,,,,,,,,,,,,,,,,,,,,,,,,,,,,,,,,,,,,,,,,,,0,1,1,3,1,,,,,,,,,,,,,,,,,,,,,,,,,,,,,,,,,,,,,,,,,,,,,,
592479,001,2022-11-13_23h28.01.595,Info_measure_main_exp,2022.2.2,Win32,60.01680471,,,,,,,,,,,,,,,,,,masks/mask_005.jpg,,,,,,,,,,,,,,,,,,,,,,,,,,,,,,,,,,,,,,,,,,,0,2,2,4,1,,,,,,,,,,,,,,,,,,,,,,,,,,,,,,,,,,,,,,,,,,,,,,
592479,001,2022-11-13_23h28.01.595,Info_measure_main_exp,2022.2.2,Win32,60.01680471,,,,,,,,,,,,,,,,,,masks/mask_001.jpg,,,,,,,,,,,,,,,,,,,,,,,,,,,,,,,,,,,,,,,,,,,0,3,3,0,1,,,,,,,,,,,,,,,,,,,,,,,,,,,,,,,,,,,,,,,,,,,,,,
592479,001,2022-11-13_23h28.01.595,Info_measure_main_exp,2022.2.2,Win32,60.01680471,,,,,,,,,,,,,,,,,,masks/mask_003.jpg,,,,,,,,,,,,,,,,,,,,,,,,,,,,,,,,,,,,,,,,,,,0,4,4,2,1,,,,,,,,,,,,,,,,,,,,,,,,,,,,,,,,,,,,,,,,,,,,,,
592479,001,2022-11-13_23h28.01.595,Info_measure_main_exp,2022.2.2,Win32,60.01680471,,,,,,,,,,,,,,,,,,masks/mask_004.jpg,,,,,,,,,,,,,,,,,,,,,,,,,,,,,,,,,,,,,,,,,,,,,,,,0,0,0,3,1,,,,,,,,,,,,,,,,,,,,,,,,,,,,,,,,,,,,,,,,,
592479,001,2022-11-13_23h28.01.595,Info_measure_main_exp,2022.2.2,Win32,60.01680471,,,,,,,,,,,,,,,,,,masks/mask_002.jpg,,,,,,,,,,,,,,,,,,,,,,,,,,,,,,,,,,,,,,,,,,,,,,,,0,1,1,1,1,,,,,,,,,,,,,,,,,,,,,,,,,,,,,,,,,,,,,,,,,
592479,001,2022-11-13_23h28.01.595,Info_measure_main_exp,2022.2.2,Win32,60.01680471,,,,,,,,,,,,,,,,,,masks/mask_005.jpg,,,,,,,,,,,,,,,,,,,,,,,,,,,,,,,,,,,,,,,,,,,,,,,,0,2,2,4,1,,,,,,,,,,,,,,,,,,,,,,,,,,,,,,,,,,,,,,,,,
592479,001,2022-11-13_23h28.01.595,Info_measure_main_exp,2022.2.2,Win32,60.01680471,,,,,,,,,,,,,,,,,,masks/mask_003.jpg,,,,,,,,,,,,,,,,,,,,,,,,,,,,,,,,,,,,,,,,,,,,,,,,0,3,3,2,1,,,,,,,,,,,,,,,,,,,,,,,,,,,,,,,,,,,,,,,,,
592479,001,2022-11-13_23h28.01.595,Info_measure_main_exp,2022.2.2,Win32,60.01680471,,,,,,,,,,,,,,,,,,masks/mask_001.jpg,,,,,,,,,,,,,,,,,,,,,,,,,,,,,,,,,,,,,,,,,,,,,,,,0,4,4,0,1,,,,,,,,,,,,,,,,,,,,,,,,,,,,,,,,,,,,,,,,,
592479,001,2022-11-13_23h28.01.595,Info_measure_main_exp,2022.2.2,Win32,60.01680471,,,,,,,,,,,,,,,,,,,,,,,,,,,,,,5,0.6068,1,,,,,,,,,,,,0,131,5,5,2274,2178,absent_patch/patch0002274.jpg,absent_patch/patch0002178.jpg,,,,,,,,,,,,,,,,,,,,0.091666667,-0.025925954,1,0,0,response3disk,20,-0.010185157,0.012037023,1,0,0,center_square,0,19,19,117,1,,,,,,,,,,,,,,,,,,,,,,,
592479,001,2022-11-13_23h28.01.595,Info_measure_main_exp,2022.2.2,Win32,60.01680471,,,,,,,,,,,,,,,,,,masks/mask_001.jpg,,,,,,,,,,,,,,,,,,,,,,,,,,,,,,,,,,,,,,,,,,,0,0,0,0,1,,,,,,,,,,,,,,,,,,,,,,,,,,,,,,,,,,,,,,,,,,,,,,
592479,001,2022-11-13_23h28.01.595,Info_measure_main_exp,2022.2.2,Win32,60.01680471,,,,,,,,,,,,,,,,,,masks/mask_005.jpg,,,,,,,,,,,,,,,,,,,,,,,,,,,,,,,,,,,,,,,,,,,0,1,1,4,1,,,,,,,,,,,,,,,,,,,,,,,,,,,,,,,,,,,,,,,,,,,,,,
592479,001,2022-11-13_23h28.01.595,Info_measure_main_exp,2022.2.2,Win32,60.01680471,,,,,,,,,,,,,,,,,,masks/mask_004.jpg,,,,,,,,,,,,,,,,,,,,,,,,,,,,,,,,,,,,,,,,,,,0,2,2,3,1,,,,,,,,,,,,,,,,,,,,,,,,,,,,,,,,,,,,,,,,,,,,,,
592479,001,2022-11-13_23h28.01.595,Info_measure_main_exp,2022.2.2,Win32,60.01680471,,,,,,,,,,,,,,,,,,masks/mask_002.jpg,,,,,,,,,,,,,,,,,,,,,,,,,,,,,,,,,,,,,,,,,,,0,3,3,1,1,,,,,,,,,,,,,,,,,,,,,,,,,,,,,,,,,,,,,,,,,,,,,,
592479,001,2022-11-13_23h28.01.595,Info_measure_main_exp,2022.2.2,Win32,60.01680471,,,,,,,,,,,,,,,,,,masks/mask_003.jpg,,,,,,,,,,,,,,,,,,,,,,,,,,,,,,,,,,,,,,,,,,,0,4,4,2,1,,,,,,,,,,,,,,,,,,,,,,,,,,,,,,,,,,,,,,,,,,,,,,
592479,001,2022-11-13_23h28.01.595,Info_measure_main_exp,2022.2.2,Win32,60.01680471,,,,,,,,,,,,,,,,,,masks/mask_003.jpg,,,,,,,,,,,,,,,,,,,,,,,,,,,,,,,,,,,,,,,,,,,,,,,,0,0,0,2,1,,,,,,,,,,,,,,,,,,,,,,,,,,,,,,,,,,,,,,,,,
592479,001,2022-11-13_23h28.01.595,Info_measure_main_exp,2022.2.2,Win32,60.01680471,,,,,,,,,,,,,,,,,,masks/mask_001.jpg,,,,,,,,,,,,,,,,,,,,,,,,,,,,,,,,,,,,,,,,,,,,,,,,0,1,1,0,1,,,,,,,,,,,,,,,,,,,,,,,,,,,,,,,,,,,,,,,,,
592479,001,2022-11-13_23h28.01.595,Info_measure_main_exp,2022.2.2,Win32,60.01680471,,,,,,,,,,,,,,,,,,masks/mask_005.jpg,,,,,,,,,,,,,,,,,,,,,,,,,,,,,,,,,,,,,,,,,,,,,,,,0,2,2,4,1,,,,,,,,,,,,,,,,,,,,,,,,,,,,,,,,,,,,,,,,,
592479,001,2022-11-13_23h28.01.595,Info_measure_main_exp,2022.2.2,Win32,60.01680471,,,,,,,,,,,,,,,,,,masks/mask_002.jpg,,,,,,,,,,,,,,,,,,,,,,,,,,,,,,,,,,,,,,,,,,,,,,,,0,3,3,1,1,,,,,,,,,,,,,,,,,,,,,,,,,,,,,,,,,,,,,,,,,
592479,001,2022-11-13_23h28.01.595,Info_measure_main_exp,2022.2.2,Win32,60.01680471,,,,,,,,,,,,,,,,,,masks/mask_004.jpg,,,,,,,,,,,,,,,,,,,,,,,,,,,,,,,,,,,,,,,,,,,,,,,,0,4,4,3,1,,,,,,,,,,,,,,,,,,,,,,,,,,,,,,,,,,,,,,,,,
592479,001,2022-11-13_23h28.01.595,Info_measure_main_exp,2022.2.2,Win32,60.01680471,,,,,,,,,,,,,,,,,,,,,,,,,,,,,,6,0.84,1,,,,,,,,,,,,0,131,5,5,2190,2214,absent_patch/patch0002190.jpg,absent_patch/patch0002214.jpg,,,,,,,,,,,,,,,,,,,,0.125,0.087037023,1,0,0,response1disk,21,-0.001851824,0.001851824,1,0,0,center_square,0,20,20,35,1,,,,,,,,,,,,,,,,,,,,,,,
592479,001,2022-11-13_23h28.01.595,Info_measure_main_exp,2022.2.2,Win32,60.01680471,,,,,,,,,,,,,,,,,,masks/mask_004.jpg,,,,,,,,,,,,,,,,,,,,,,,,,,,,,,,,,,,,,,,,,,,0,0,0,3,1,,,,,,,,,,,,,,,,,,,,,,,,,,,,,,,,,,,,,,,,,,,,,,
592479,001,2022-11-13_23h28.01.595,Info_measure_main_exp,2022.2.2,Win32,60.01680471,,,,,,,,,,,,,,,,,,masks/mask_001.jpg,,,,,,,,,,,,,,,,,,,,,,,,,,,,,,,,,,,,,,,,,,,0,1,1,0,1,,,,,,,,,,,,,,,,,,,,,,,,,,,,,,,,,,,,,,,,,,,,,,
592479,001,2022-11-13_23h28.01.595,Info_measure_main_exp,2022.2.2,Win32,60.01680471,,,,,,,,,,,,,,,,,,masks/mask_002.jpg,,,,,,,,,,,,,,,,,,,,,,,,,,,,,,,,,,,,,,,,,,,0,2,2,1,1,,,,,,,,,,,,,,,,,,,,,,,,,,,,,,,,,,,,,,,,,,,,,,
592479,001,2022-11-13_23h28.01.595,Info_measure_main_exp,2022.2.2,Win32,60.01680471,,,,,,,,,,,,,,,,,,masks/mask_003.jpg,,,,,,,,,,,,,,,,,,,,,,,,,,,,,,,,,,,,,,,,,,,0,3,3,2,1,,,,,,,,,,,,,,,,,,,,,,,,,,,,,,,,,,,,,,,,,,,,,,
592479,001,2022-11-13_23h28.01.595,Info_measure_main_exp,2022.2.2,Win32,60.01680471,,,,,,,,,,,,,,,,,,masks/mask_005.jpg,,,,,,,,,,,,,,,,,,,,,,,,,,,,,,,,,,,,,,,,,,,0,4,4,4,1,,,,,,,,,,,,,,,,,,,,,,,,,,,,,,,,,,,,,,,,,,,,,,
592479,001,2022-11-13_23h28.01.595,Info_measure_main_exp,2022.2.2,Win32,60.01680471,,,,,,,,,,,,,,,,,,masks/mask_004.jpg,,,,,,,,,,,,,,,,,,,,,,,,,,,,,,,,,,,,,,,,,,,,,,,,0,0,0,3,1,,,,,,,,,,,,,,,,,,,,,,,,,,,,,,,,,,,,,,,,,
592479,001,2022-11-13_23h28.01.595,Info_measure_main_exp,2022.2.2,Win32,60.01680471,,,,,,,,,,,,,,,,,,masks/mask_002.jpg,,,,,,,,,,,,,,,,,,,,,,,,,,,,,,,,,,,,,,,,,,,,,,,,0,1,1,1,1,,,,,,,,,,,,,,,,,,,,,,,,,,,,,,,,,,,,,,,,,
592479,001,2022-11-13_23h28.01.595,Info_measure_main_exp,2022.2.2,Win32,60.01680471,,,,,,,,,,,,,,,,,,masks/mask_003.jpg,,,,,,,,,,,,,,,,,,,,,,,,,,,,,,,,,,,,,,,,,,,,,,,,0,2,2,2,1,,,,,,,,,,,,,,,,,,,,,,,,,,,,,,,,,,,,,,,,,
592479,001,2022-11-13_23h28.01.595,Info_measure_main_exp,2022.2.2,Win32,60.01680471,,,,,,,,,,,,,,,,,,masks/mask_005.jpg,,,,,,,,,,,,,,,,,,,,,,,,,,,,,,,,,,,,,,,,,,,,,,,,0,3,3,4,1,,,,,,,,,,,,,,,,,,,,,,,,,,,,,,,,,,,,,,,,,
592479,001,2022-11-13_23h28.01.595,Info_measure_main_exp,2022.2.2,Win32,60.01680471,,,,,,,,,,,,,,,,,,masks/mask_001.jpg,,,,,,,,,,,,,,,,,,,,,,,,,,,,,,,,,,,,,,,,,,,,,,,,0,4,4,0,1,,,,,,,,,,,,,,,,,,,,,,,,,,,,,,,,,,,,,,,,,
592479,001,2022-11-13_23h28.01.595,Info_measure_main_exp,2022.2.2,Win32,60.01680471,,,,,,,,,,,,,,,,,,,,,,,,,,,,,,0,1.5001,1,,,,,,,,,,,,0,131,5,5,2250,2250,absent_patch/patch0002250.jpg,absent_patch/patch0002250.jpg,,,,,,,,,,,,,,,,,,,,-0.037036981,0.149074067,1,0,0,response7disk,22,-0.000925869,0.002777778,1,0,0,center_square,0,21,21,56,1,,,,,,,,,,,,,,,,,,,,,,,
592479,001,2022-11-13_23h28.01.595,Info_measure_main_exp,2022.2.2,Win32,60.01680471,,,,,,,,,,,,,,,,,,masks/mask_002.jpg,,,,,,,,,,,,,,,,,,,,,,,,,,,,,,,,,,,,,,,,,,,0,0,0,1,1,,,,,,,,,,,,,,,,,,,,,,,,,,,,,,,,,,,,,,,,,,,,,,
592479,001,2022-11-13_23h28.01.595,Info_measure_main_exp,2022.2.2,Win32,60.01680471,,,,,,,,,,,,,,,,,,masks/mask_005.jpg,,,,,,,,,,,,,,,,,,,,,,,,,,,,,,,,,,,,,,,,,,,0,1,1,4,1,,,,,,,,,,,,,,,,,,,,,,,,,,,,,,,,,,,,,,,,,,,,,,
592479,001,2022-11-13_23h28.01.595,Info_measure_main_exp,2022.2.2,Win32,60.01680471,,,,,,,,,,,,,,,,,,masks/mask_004.jpg,,,,,,,,,,,,,,,,,,,,,,,,,,,,,,,,,,,,,,,,,,,0,2,2,3,1,,,,,,,,,,,,,,,,,,,,,,,,,,,,,,,,,,,,,,,,,,,,,,
592479,001,2022-11-13_23h28.01.595,Info_measure_main_exp,2022.2.2,Win32,60.01680471,,,,,,,,,,,,,,,,,,masks/mask_003.jpg,,,,,,,,,,,,,,,,,,,,,,,,,,,,,,,,,,,,,,,,,,,0,3,3,2,1,,,,,,,,,,,,,,,,,,,,,,,,,,,,,,,,,,,,,,,,,,,,,,
592479,001,2022-11-13_23h28.01.595,Info_measure_main_exp,2022.2.2,Win32,60.01680471,,,,,,,,,,,,,,,,,,masks/mask_001.jpg,,,,,,,,,,,,,,,,,,,,,,,,,,,,,,,,,,,,,,,,,,,0,4,4,0,1,,,,,,,,,,,,,,,,,,,,,,,,,,,,,,,,,,,,,,,,,,,,,,
592479,001,2022-11-13_23h28.01.595,Info_measure_main_exp,2022.2.2,Win32,60.01680471,,,,,,,,,,,,,,,,,,masks/mask_004.jpg,,,,,,,,,,,,,,,,,,,,,,,,,,,,,,,,,,,,,,,,,,,,,,,,0,0,0,3,1,,,,,,,,,,,,,,,,,,,,,,,,,,,,,,,,,,,,,,,,,
592479,001,2022-11-13_23h28.01.595,Info_measure_main_exp,2022.2.2,Win32,60.01680471,,,,,,,,,,,,,,,,,,masks/mask_003.jpg,,,,,,,,,,,,,,,,,,,,,,,,,,,,,,,,,,,,,,,,,,,,,,,,0,1,1,2,1,,,,,,,,,,,,,,,,,,,,,,,,,,,,,,,,,,,,,,,,,
592479,001,2022-11-13_23h28.01.595,Info_measure_main_exp,2022.2.2,Win32,60.01680471,,,,,,,,,,,,,,,,,,masks/mask_002.jpg,,,,,,,,,,,,,,,,,,,,,,,,,,,,,,,,,,,,,,,,,,,,,,,,0,2,2,1,1,,,,,,,,,,,,,,,,,,,,,,,,,,,,,,,,,,,,,,,,,
592479,001,2022-11-13_23h28.01.595,Info_measure_main_exp,2022.2.2,Win32,60.01680471,,,,,,,,,,,,,,,,,,masks/mask_001.jpg,,,,,,,,,,,,,,,,,,,,,,,,,,,,,,,,,,,,,,,,,,,,,,,,0,3,3,0,1,,,,,,,,,,,,,,,,,,,,,,,,,,,,,,,,,,,,,,,,,
592479,001,2022-11-13_23h28.01.595,Info_measure_main_exp,2022.2.2,Win32,60.01680471,,,,,,,,,,,,,,,,,,masks/mask_005.jpg,,,,,,,,,,,,,,,,,,,,,,,,,,,,,,,,,,,,,,,,,,,,,,,,0,4,4,4,1,,,,,,,,,,,,,,,,,,,,,,,,,,,,,,,,,,,,,,,,,
592479,001,2022-11-13_23h28.01.595,Info_measure_main_exp,2022.2.2,Win32,60.01680471,,,,,,,,,,,,,,,,,,,,,,,,,,,,,,2,1.0397,1,,,,,,,,,,,,0,131,5,5,2274,2190,absent_patch/patch0002274.jpg,absent_patch/patch0002190.jpg,,,,,,,,,,,,,,,,,,,,-0.081481425,-0.055555556,1,0,0,response5disk,23,0.00648151,-0.007407422,1,0,0,center_square,0,22,22,116,1,,,,,,,,,,,,,,,,,,,,,,,
592479,001,2022-11-13_23h28.01.595,Info_measure_main_exp,2022.2.2,Win32,60.01680471,,,,,,,,,,,,,,,,,,masks/mask_004.jpg,,,,,,,,,,,,,,,,,,,,,,,,,,,,,,,,,,,,,,,,,,,0,0,0,3,1,,,,,,,,,,,,,,,,,,,,,,,,,,,,,,,,,,,,,,,,,,,,,,
592479,001,2022-11-13_23h28.01.595,Info_measure_main_exp,2022.2.2,Win32,60.01680471,,,,,,,,,,,,,,,,,,masks/mask_005.jpg,,,,,,,,,,,,,,,,,,,,,,,,,,,,,,,,,,,,,,,,,,,0,1,1,4,1,,,,,,,,,,,,,,,,,,,,,,,,,,,,,,,,,,,,,,,,,,,,,,
592479,001,2022-11-13_23h28.01.595,Info_measure_main_exp,2022.2.2,Win32,60.01680471,,,,,,,,,,,,,,,,,,masks/mask_001.jpg,,,,,,,,,,,,,,,,,,,,,,,,,,,,,,,,,,,,,,,,,,,0,2,2,0,1,,,,,,,,,,,,,,,,,,,,,,,,,,,,,,,,,,,,,,,,,,,,,,
592479,001,2022-11-13_23h28.01.595,Info_measure_main_exp,2022.2.2,Win32,60.01680471,,,,,,,,,,,,,,,,,,masks/mask_002.jpg,,,,,,,,,,,,,,,,,,,,,,,,,,,,,,,,,,,,,,,,,,,0,3,3,1,1,,,,,,,,,,,,,,,,,,,,,,,,,,,,,,,,,,,,,,,,,,,,,,
592479,001,2022-11-13_23h28.01.595,Info_measure_main_exp,2022.2.2,Win32,60.01680471,,,,,,,,,,,,,,,,,,masks/mask_003.jpg,,,,,,,,,,,,,,,,,,,,,,,,,,,,,,,,,,,,,,,,,,,0,4,4,2,1,,,,,,,,,,,,,,,,,,,,,,,,,,,,,,,,,,,,,,,,,,,,,,
592479,001,2022-11-13_23h28.01.595,Info_measure_main_exp,2022.2.2,Win32,60.01680471,,,,,,,,,,,,,,,,,,masks/mask_003.jpg,,,,,,,,,,,,,,,,,,,,,,,,,,,,,,,,,,,,,,,,,,,,,,,,0,0,0,2,1,,,,,,,,,,,,,,,,,,,,,,,,,,,,,,,,,,,,,,,,,
592479,001,2022-11-13_23h28.01.595,Info_measure_main_exp,2022.2.2,Win32,60.01680471,,,,,,,,,,,,,,,,,,masks/mask_004.jpg,,,,,,,,,,,,,,,,,,,,,,,,,,,,,,,,,,,,,,,,,,,,,,,,0,1,1,3,1,,,,,,,,,,,,,,,,,,,,,,,,,,,,,,,,,,,,,,,,,
592479,001,2022-11-13_23h28.01.595,Info_measure_main_exp,2022.2.2,Win32,60.01680471,,,,,,,,,,,,,,,,,,masks/mask_005.jpg,,,,,,,,,,,,,,,,,,,,,,,,,,,,,,,,,,,,,,,,,,,,,,,,0,2,2,4,1,,,,,,,,,,,,,,,,,,,,,,,,,,,,,,,,,,,,,,,,,
592479,001,2022-11-13_23h28.01.595,Info_measure_main_exp,2022.2.2,Win32,60.01680471,,,,,,,,,,,,,,,,,,masks/mask_002.jpg,,,,,,,,,,,,,,,,,,,,,,,,,,,,,,,,,,,,,,,,,,,,,,,,0,3,3,1,1,,,,,,,,,,,,,,,,,,,,,,,,,,,,,,,,,,,,,,,,,
592479,001,2022-11-13_23h28.01.595,Info_measure_main_exp,2022.2.2,Win32,60.01680471,,,,,,,,,,,,,,,,,,masks/mask_001.jpg,,,,,,,,,,,,,,,,,,,,,,,,,,,,,,,,,,,,,,,,,,,,,,,,0,4,4,0,1,,,,,,,,,,,,,,,,,,,,,,,,,,,,,,,,,,,,,,,,,
592479,001,2022-11-13_23h28.01.595,Info_measure_main_exp,2022.2.2,Win32,60.01680471,,,,,,,,,,,,,,,,,,,,,,,,,,,,,,6,0.6901,1,,,,,,,,,,,,0,131,5,5,1974,2166,absent_patch/patch0001974.jpg,absent_patch/patch0002166.jpg,,,,,,,,,,,,,,,,,,,,0.134259288,0.004629601,1,0,0,response1disk,24,0.003703732,-0.004629644,1,0,0,center_square,0,23,23,77,1,,,,,,,,,,,,,,,,,,,,,,,
592479,001,2022-11-13_23h28.01.595,Info_measure_main_exp,2022.2.2,Win32,60.01680471,,,,,,,,,,,,,,,,,,masks/mask_002.jpg,,,,,,,,,,,,,,,,,,,,,,,,,,,,,,,,,,,,,,,,,,,0,0,0,1,1,,,,,,,,,,,,,,,,,,,,,,,,,,,,,,,,,,,,,,,,,,,,,,
592479,001,2022-11-13_23h28.01.595,Info_measure_main_exp,2022.2.2,Win32,60.01680471,,,,,,,,,,,,,,,,,,masks/mask_003.jpg,,,,,,,,,,,,,,,,,,,,,,,,,,,,,,,,,,,,,,,,,,,0,1,1,2,1,,,,,,,,,,,,,,,,,,,,,,,,,,,,,,,,,,,,,,,,,,,,,,
592479,001,2022-11-13_23h28.01.595,Info_measure_main_exp,2022.2.2,Win32,60.01680471,,,,,,,,,,,,,,,,,,masks/mask_005.jpg,,,,,,,,,,,,,,,,,,,,,,,,,,,,,,,,,,,,,,,,,,,0,2,2,4,1,,,,,,,,,,,,,,,,,,,,,,,,,,,,,,,,,,,,,,,,,,,,,,
592479,001,2022-11-13_23h28.01.595,Info_measure_main_exp,2022.2.2,Win32,60.01680471,,,,,,,,,,,,,,,,,,masks/mask_004.jpg,,,,,,,,,,,,,,,,,,,,,,,,,,,,,,,,,,,,,,,,,,,0,3,3,3,1,,,,,,,,,,,,,,,,,,,,,,,,,,,,,,,,,,,,,,,,,,,,,,
592479,001,2022-11-13_23h28.01.595,Info_measure_main_exp,2022.2.2,Win32,60.01680471,,,,,,,,,,,,,,,,,,masks/mask_001.jpg,,,,,,,,,,,,,,,,,,,,,,,,,,,,,,,,,,,,,,,,,,,0,4,4,0,1,,,,,,,,,,,,,,,,,,,,,,,,,,,,,,,,,,,,,,,,,,,,,,
592479,001,2022-11-13_23h28.01.595,Info_measure_main_exp,2022.2.2,Win32,60.01680471,,,,,,,,,,,,,,,,,,masks/mask_003.jpg,,,,,,,,,,,,,,,,,,,,,,,,,,,,,,,,,,,,,,,,,,,,,,,,0,0,0,2,1,,,,,,,,,,,,,,,,,,,,,,,,,,,,,,,,,,,,,,,,,
592479,001,2022-11-13_23h28.01.595,Info_measure_main_exp,2022.2.2,Win32,60.01680471,,,,,,,,,,,,,,,,,,masks/mask_004.jpg,,,,,,,,,,,,,,,,,,,,,,,,,,,,,,,,,,,,,,,,,,,,,,,,0,1,1,3,1,,,,,,,,,,,,,,,,,,,,,,,,,,,,,,,,,,,,,,,,,
592479,001,2022-11-13_23h28.01.595,Info_measure_main_exp,2022.2.2,Win32,60.01680471,,,,,,,,,,,,,,,,,,masks/mask_002.jpg,,,,,,,,,,,,,,,,,,,,,,,,,,,,,,,,,,,,,,,,,,,,,,,,0,2,2,1,1,,,,,,,,,,,,,,,,,,,,,,,,,,,,,,,,,,,,,,,,,
592479,001,2022-11-13_23h28.01.595,Info_measure_main_exp,2022.2.2,Win32,60.01680471,,,,,,,,,,,,,,,,,,masks/mask_001.jpg,,,,,,,,,,,,,,,,,,,,,,,,,,,,,,,,,,,,,,,,,,,,,,,,0,3,3,0,1,,,,,,,,,,,,,,,,,,,,,,,,,,,,,,,,,,,,,,,,,
592479,001,2022-11-13_23h28.01.595,Info_measure_main_exp,2022.2.2,Win32,60.01680471,,,,,,,,,,,,,,,,,,masks/mask_005.jpg,,,,,,,,,,,,,,,,,,,,,,,,,,,,,,,,,,,,,,,,,,,,,,,,0,4,4,4,1,,,,,,,,,,,,,,,,,,,,,,,,,,,,,,,,,,,,,,,,,
592479,001,2022-11-13_23h28.01.595,Info_measure_main_exp,2022.2.2,Win32,60.01680471,,,,,,,,,,,,,,,,,,,,,,,,,,,,,,3,2.0835,1,,,,,,,,,,,,0,131,5,5,1986,2274,absent_patch/patch0001986.jpg,absent_patch/patch0002274.jpg,,,,,,,,,,,,,,,,,,,,-0.038888889,-0.09629631,1,0,0,response5disk,25,0.010185242,-0.000925954,1,0,0,center_square,0,24,24,7,1,,,,,,,,,,,,,,,,,,,,,,,
592479,001,2022-11-13_23h28.01.595,Info_measure_main_exp,2022.2.2,Win32,60.01680471,,,,,,,,,,,,,,,,,,masks/mask_001.jpg,,,,,,,,,,,,,,,,,,,,,,,,,,,,,,,,,,,,,,,,,,,0,0,0,0,1,,,,,,,,,,,,,,,,,,,,,,,,,,,,,,,,,,,,,,,,,,,,,,
592479,001,2022-11-13_23h28.01.595,Info_measure_main_exp,2022.2.2,Win32,60.01680471,,,,,,,,,,,,,,,,,,masks/mask_002.jpg,,,,,,,,,,,,,,,,,,,,,,,,,,,,,,,,,,,,,,,,,,,0,1,1,1,1,,,,,,,,,,,,,,,,,,,,,,,,,,,,,,,,,,,,,,,,,,,,,,
592479,001,2022-11-13_23h28.01.595,Info_measure_main_exp,2022.2.2,Win32,60.01680471,,,,,,,,,,,,,,,,,,masks/mask_003.jpg,,,,,,,,,,,,,,,,,,,,,,,,,,,,,,,,,,,,,,,,,,,0,2,2,2,1,,,,,,,,,,,,,,,,,,,,,,,,,,,,,,,,,,,,,,,,,,,,,,
592479,001,2022-11-13_23h28.01.595,Info_measure_main_exp,2022.2.2,Win32,60.01680471,,,,,,,,,,,,,,,,,,masks/mask_004.jpg,,,,,,,,,,,,,,,,,,,,,,,,,,,,,,,,,,,,,,,,,,,0,3,3,3,1,,,,,,,,,,,,,,,,,,,,,,,,,,,,,,,,,,,,,,,,,,,,,,
592479,001,2022-11-13_23h28.01.595,Info_measure_main_exp,2022.2.2,Win32,60.01680471,,,,,,,,,,,,,,,,,,masks/mask_005.jpg,,,,,,,,,,,,,,,,,,,,,,,,,,,,,,,,,,,,,,,,,,,0,4,4,4,1,,,,,,,,,,,,,,,,,,,,,,,,,,,,,,,,,,,,,,,,,,,,,,
592479,001,2022-11-13_23h28.01.595,Info_measure_main_exp,2022.2.2,Win32,60.01680471,,,,,,,,,,,,,,,,,,masks/mask_003.jpg,,,,,,,,,,,,,,,,,,,,,,,,,,,,,,,,,,,,,,,,,,,,,,,,0,0,0,2,1,,,,,,,,,,,,,,,,,,,,,,,,,,,,,,,,,,,,,,,,,
592479,001,2022-11-13_23h28.01.595,Info_measure_main_exp,2022.2.2,Win32,60.01680471,,,,,,,,,,,,,,,,,,masks/mask_005.jpg,,,,,,,,,,,,,,,,,,,,,,,,,,,,,,,,,,,,,,,,,,,,,,,,0,1,1,4,1,,,,,,,,,,,,,,,,,,,,,,,,,,,,,,,,,,,,,,,,,
592479,001,2022-11-13_23h28.01.595,Info_measure_main_exp,2022.2.2,Win32,60.01680471,,,,,,,,,,,,,,,,,,masks/mask_002.jpg,,,,,,,,,,,,,,,,,,,,,,,,,,,,,,,,,,,,,,,,,,,,,,,,0,2,2,1,1,,,,,,,,,,,,,,,,,,,,,,,,,,,,,,,,,,,,,,,,,
592479,001,2022-11-13_23h28.01.595,Info_measure_main_exp,2022.2.2,Win32,60.01680471,,,,,,,,,,,,,,,,,,masks/mask_001.jpg,,,,,,,,,,,,,,,,,,,,,,,,,,,,,,,,,,,,,,,,,,,,,,,,0,3,3,0,1,,,,,,,,,,,,,,,,,,,,,,,,,,,,,,,,,,,,,,,,,
592479,001,2022-11-13_23h28.01.595,Info_measure_main_exp,2022.2.2,Win32,60.01680471,,,,,,,,,,,,,,,,,,masks/mask_004.jpg,,,,,,,,,,,,,,,,,,,,,,,,,,,,,,,,,,,,,,,,,,,,,,,,0,4,4,3,1,,,,,,,,,,,,,,,,,,,,,,,,,,,,,,,,,,,,,,,,,
592479,001,2022-11-13_23h28.01.595,Info_measure_main_exp,2022.2.2,Win32,60.01680471,,,,,,,,,,,,,,,,,,,,,,,,,,,,,,4,0.6668,1,,,,,,,,,,,,0,131,5,5,1986,2238,absent_patch/patch0001986.jpg,absent_patch/patch0002238.jpg,,,,,,,,,,,,,,,,,,,,0.022222222,-0.122222222,1,0,0,response3disk,26,-0.008333333,-0.004629644,1,0,0,center_square,0,25,25,31,1,,,,,,,,,,,,,,,,,,,,,,,
592479,001,2022-11-13_23h28.01.595,Info_measure_main_exp,2022.2.2,Win32,60.01680471,,,,,,,,,,,,,,,,,,masks/mask_001.jpg,,,,,,,,,,,,,,,,,,,,,,,,,,,,,,,,,,,,,,,,,,,0,0,0,0,1,,,,,,,,,,,,,,,,,,,,,,,,,,,,,,,,,,,,,,,,,,,,,,
592479,001,2022-11-13_23h28.01.595,Info_measure_main_exp,2022.2.2,Win32,60.01680471,,,,,,,,,,,,,,,,,,masks/mask_002.jpg,,,,,,,,,,,,,,,,,,,,,,,,,,,,,,,,,,,,,,,,,,,0,1,1,1,1,,,,,,,,,,,,,,,,,,,,,,,,,,,,,,,,,,,,,,,,,,,,,,
592479,001,2022-11-13_23h28.01.595,Info_measure_main_exp,2022.2.2,Win32,60.01680471,,,,,,,,,,,,,,,,,,masks/mask_003.jpg,,,,,,,,,,,,,,,,,,,,,,,,,,,,,,,,,,,,,,,,,,,0,2,2,2,1,,,,,,,,,,,,,,,,,,,,,,,,,,,,,,,,,,,,,,,,,,,,,,
592479,001,2022-11-13_23h28.01.595,Info_measure_main_exp,2022.2.2,Win32,60.01680471,,,,,,,,,,,,,,,,,,masks/mask_004.jpg,,,,,,,,,,,,,,,,,,,,,,,,,,,,,,,,,,,,,,,,,,,0,3,3,3,1,,,,,,,,,,,,,,,,,,,,,,,,,,,,,,,,,,,,,,,,,,,,,,
592479,001,2022-11-13_23h28.01.595,Info_measure_main_exp,2022.2.2,Win32,60.01680471,,,,,,,,,,,,,,,,,,masks/mask_005.jpg,,,,,,,,,,,,,,,,,,,,,,,,,,,,,,,,,,,,,,,,,,,0,4,4,4,1,,,,,,,,,,,,,,,,,,,,,,,,,,,,,,,,,,,,,,,,,,,,,,
592479,001,2022-11-13_23h28.01.595,Info_measure_main_exp,2022.2.2,Win32,60.01680471,,,,,,,,,,,,,,,,,,masks/mask_004.jpg,,,,,,,,,,,,,,,,,,,,,,,,,,,,,,,,,,,,,,,,,,,,,,,,0,0,0,3,1,,,,,,,,,,,,,,,,,,,,,,,,,,,,,,,,,,,,,,,,,
592479,001,2022-11-13_23h28.01.595,Info_measure_main_exp,2022.2.2,Win32,60.01680471,,,,,,,,,,,,,,,,,,masks/mask_003.jpg,,,,,,,,,,,,,,,,,,,,,,,,,,,,,,,,,,,,,,,,,,,,,,,,0,1,1,2,1,,,,,,,,,,,,,,,,,,,,,,,,,,,,,,,,,,,,,,,,,
592479,001,2022-11-13_23h28.01.595,Info_measure_main_exp,2022.2.2,Win32,60.01680471,,,,,,,,,,,,,,,,,,masks/mask_001.jpg,,,,,,,,,,,,,,,,,,,,,,,,,,,,,,,,,,,,,,,,,,,,,,,,0,2,2,0,1,,,,,,,,,,,,,,,,,,,,,,,,,,,,,,,,,,,,,,,,,
592479,001,2022-11-13_23h28.01.595,Info_measure_main_exp,2022.2.2,Win32,60.01680471,,,,,,,,,,,,,,,,,,masks/mask_002.jpg,,,,,,,,,,,,,,,,,,,,,,,,,,,,,,,,,,,,,,,,,,,,,,,,0,3,3,1,1,,,,,,,,,,,,,,,,,,,,,,,,,,,,,,,,,,,,,,,,,
592479,001,2022-11-13_23h28.01.595,Info_measure_main_exp,2022.2.2,Win32,60.01680471,,,,,,,,,,,,,,,,,,masks/mask_005.jpg,,,,,,,,,,,,,,,,,,,,,,,,,,,,,,,,,,,,,,,,,,,,,,,,0,4,4,4,1,,,,,,,,,,,,,,,,,,,,,,,,,,,,,,,,,,,,,,,,,
592479,001,2022-11-13_23h28.01.595,Info_measure_main_exp,2022.2.2,Win32,60.01680471,,,,,,,,,,,,,,,,,,,,,,,,,,,,,,5,0.7067,1,,,,,,,,,,,,1,131,5,5,2238,1,absent_patch/patch0002238.jpg,present_patch/cong_131_5_a.jpg,,,,,,,,,,,,,,,,,,,,0.135185242,-0.040740755,1,0,0,response3disk,27,0.003703732,-0.005555556,1,0,0,center_square,0,26,26,104,1,,,,,,,,,,,,,,,,,,,,,,,
592479,001,2022-11-13_23h28.01.595,Info_measure_main_exp,2022.2.2,Win32,60.01680471,,,,,,,,,,,,,,,,,,masks/mask_003.jpg,,,,,,,,,,,,,,,,,,,,,,,,,,,,,,,,,,,,,,,,,,,0,0,0,2,1,,,,,,,,,,,,,,,,,,,,,,,,,,,,,,,,,,,,,,,,,,,,,,
592479,001,2022-11-13_23h28.01.595,Info_measure_main_exp,2022.2.2,Win32,60.01680471,,,,,,,,,,,,,,,,,,masks/mask_005.jpg,,,,,,,,,,,,,,,,,,,,,,,,,,,,,,,,,,,,,,,,,,,0,1,1,4,1,,,,,,,,,,,,,,,,,,,,,,,,,,,,,,,,,,,,,,,,,,,,,,
592479,001,2022-11-13_23h28.01.595,Info_measure_main_exp,2022.2.2,Win32,60.01680471,,,,,,,,,,,,,,,,,,masks/mask_002.jpg,,,,,,,,,,,,,,,,,,,,,,,,,,,,,,,,,,,,,,,,,,,0,2,2,1,1,,,,,,,,,,,,,,,,,,,,,,,,,,,,,,,,,,,,,,,,,,,,,,
592479,001,2022-11-13_23h28.01.595,Info_measure_main_exp,2022.2.2,Win32,60.01680471,,,,,,,,,,,,,,,,,,masks/mask_001.jpg,,,,,,,,,,,,,,,,,,,,,,,,,,,,,,,,,,,,,,,,,,,0,3,3,0,1,,,,,,,,,,,,,,,,,,,,,,,,,,,,,,,,,,,,,,,,,,,,,,
592479,001,2022-11-13_23h28.01.595,Info_measure_main_exp,2022.2.2,Win32,60.01680471,,,,,,,,,,,,,,,,,,masks/mask_004.jpg,,,,,,,,,,,,,,,,,,,,,,,,,,,,,,,,,,,,,,,,,,,0,4,4,3,1,,,,,,,,,,,,,,,,,,,,,,,,,,,,,,,,,,,,,,,,,,,,,,
592479,001,2022-11-13_23h28.01.595,Info_measure_main_exp,2022.2.2,Win32,60.01680471,,,,,,,,,,,,,,,,,,masks/mask_002.jpg,,,,,,,,,,,,,,,,,,,,,,,,,,,,,,,,,,,,,,,,,,,,,,,,0,0,0,1,1,,,,,,,,,,,,,,,,,,,,,,,,,,,,,,,,,,,,,,,,,
592479,001,2022-11-13_23h28.01.595,Info_measure_main_exp,2022.2.2,Win32,60.01680471,,,,,,,,,,,,,,,,,,masks/mask_003.jpg,,,,,,,,,,,,,,,,,,,,,,,,,,,,,,,,,,,,,,,,,,,,,,,,0,1,1,2,1,,,,,,,,,,,,,,,,,,,,,,,,,,,,,,,,,,,,,,,,,
592479,001,2022-11-13_23h28.01.595,Info_measure_main_exp,2022.2.2,Win32,60.01680471,,,,,,,,,,,,,,,,,,masks/mask_004.jpg,,,,,,,,,,,,,,,,,,,,,,,,,,,,,,,,,,,,,,,,,,,,,,,,0,2,2,3,1,,,,,,,,,,,,,,,,,,,,,,,,,,,,,,,,,,,,,,,,,
592479,001,2022-11-13_23h28.01.595,Info_measure_main_exp,2022.2.2,Win32,60.01680471,,,,,,,,,,,,,,,,,,masks/mask_001.jpg,,,,,,,,,,,,,,,,,,,,,,,,,,,,,,,,,,,,,,,,,,,,,,,,0,3,3,0,1,,,,,,,,,,,,,,,,,,,,,,,,,,,,,,,,,,,,,,,,,
592479,001,2022-11-13_23h28.01.595,Info_measure_main_exp,2022.2.2,Win32,60.01680471,,,,,,,,,,,,,,,,,,masks/mask_005.jpg,,,,,,,,,,,,,,,,,,,,,,,,,,,,,,,,,,,,,,,,,,,,,,,,0,4,4,4,1,,,,,,,,,,,,,,,,,,,,,,,,,,,,,,,,,,,,,,,,,
592479,001,2022-11-13_23h28.01.595,Info_measure_main_exp,2022.2.2,Win32,60.01680471,,,,,,,,,,,,,,,,,,,,,,,,,,,,,,2,1.5231,1,,,,,,,,,,,,0,131,5,5,2142,2082,absent_patch/patch0002142.jpg,absent_patch/patch0002082.jpg,,,,,,,,,,,,,,,,,,,,-0.108333333,-0.018518533,1,0,0,response5disk,28,0.000925954,0.001851824,1,0,0,center_square,0,27,27,88,1,,,,,,,,,,,,,,,,,,,,,,,
592479,001,2022-11-13_23h28.01.595,Info_measure_main_exp,2022.2.2,Win32,60.01680471,,,,,,,,,,,,,,,,,,masks/mask_001.jpg,,,,,,,,,,,,,,,,,,,,,,,,,,,,,,,,,,,,,,,,,,,0,0,0,0,1,,,,,,,,,,,,,,,,,,,,,,,,,,,,,,,,,,,,,,,,,,,,,,
592479,001,2022-11-13_23h28.01.595,Info_measure_main_exp,2022.2.2,Win32,60.01680471,,,,,,,,,,,,,,,,,,masks/mask_004.jpg,,,,,,,,,,,,,,,,,,,,,,,,,,,,,,,,,,,,,,,,,,,0,1,1,3,1,,,,,,,,,,,,,,,,,,,,,,,,,,,,,,,,,,,,,,,,,,,,,,
592479,001,2022-11-13_23h28.01.595,Info_measure_main_exp,2022.2.2,Win32,60.01680471,,,,,,,,,,,,,,,,,,masks/mask_005.jpg,,,,,,,,,,,,,,,,,,,,,,,,,,,,,,,,,,,,,,,,,,,0,2,2,4,1,,,,,,,,,,,,,,,,,,,,,,,,,,,,,,,,,,,,,,,,,,,,,,
592479,001,2022-11-13_23h28.01.595,Info_measure_main_exp,2022.2.2,Win32,60.01680471,,,,,,,,,,,,,,,,,,masks/mask_003.jpg,,,,,,,,,,,,,,,,,,,,,,,,,,,,,,,,,,,,,,,,,,,0,3,3,2,1,,,,,,,,,,,,,,,,,,,,,,,,,,,,,,,,,,,,,,,,,,,,,,
592479,001,2022-11-13_23h28.01.595,Info_measure_main_exp,2022.2.2,Win32,60.01680471,,,,,,,,,,,,,,,,,,masks/mask_002.jpg,,,,,,,,,,,,,,,,,,,,,,,,,,,,,,,,,,,,,,,,,,,0,4,4,1,1,,,,,,,,,,,,,,,,,,,,,,,,,,,,,,,,,,,,,,,,,,,,,,
592479,001,2022-11-13_23h28.01.595,Info_measure_main_exp,2022.2.2,Win32,60.01680471,,,,,,,,,,,,,,,,,,masks/mask_003.jpg,,,,,,,,,,,,,,,,,,,,,,,,,,,,,,,,,,,,,,,,,,,,,,,,0,0,0,2,1,,,,,,,,,,,,,,,,,,,,,,,,,,,,,,,,,,,,,,,,,
592479,001,2022-11-13_23h28.01.595,Info_measure_main_exp,2022.2.2,Win32,60.01680471,,,,,,,,,,,,,,,,,,masks/mask_005.jpg,,,,,,,,,,,,,,,,,,,,,,,,,,,,,,,,,,,,,,,,,,,,,,,,0,1,1,4,1,,,,,,,,,,,,,,,,,,,,,,,,,,,,,,,,,,,,,,,,,
592479,001,2022-11-13_23h28.01.595,Info_measure_main_exp,2022.2.2,Win32,60.01680471,,,,,,,,,,,,,,,,,,masks/mask_002.jpg,,,,,,,,,,,,,,,,,,,,,,,,,,,,,,,,,,,,,,,,,,,,,,,,0,2,2,1,1,,,,,,,,,,,,,,,,,,,,,,,,,,,,,,,,,,,,,,,,,
592479,001,2022-11-13_23h28.01.595,Info_measure_main_exp,2022.2.2,Win32,60.01680471,,,,,,,,,,,,,,,,,,masks/mask_004.jpg,,,,,,,,,,,,,,,,,,,,,,,,,,,,,,,,,,,,,,,,,,,,,,,,0,3,3,3,1,,,,,,,,,,,,,,,,,,,,,,,,,,,,,,,,,,,,,,,,,
592479,001,2022-11-13_23h28.01.595,Info_measure_main_exp,2022.2.2,Win32,60.01680471,,,,,,,,,,,,,,,,,,masks/mask_001.jpg,,,,,,,,,,,,,,,,,,,,,,,,,,,,,,,,,,,,,,,,,,,,,,,,0,4,4,0,1,,,,,,,,,,,,,,,,,,,,,,,,,,,,,,,,,,,,,,,,,
592479,001,2022-11-13_23h28.01.595,Info_measure_main_exp,2022.2.2,Win32,60.01680471,,,,,,,,,,,,,,,,,,,,,,,,,,,,,,5,0.69,1,,,,,,,,,,,,0,131,5,5,2166,2154,absent_patch/patch0002166.jpg,absent_patch/patch0002154.jpg,,,,,,,,,,,,,,,,,,,,0.150925954,-0.049074088,1,0,0,response3disk,29,0.003703732,0.005555556,1,0,0,center_square,0,28,28,79,1,,,,,,,,,,,,,,,,,,,,,,,
592479,001,2022-11-13_23h28.01.595,Info_measure_main_exp,2022.2.2,Win32,60.01680471,,,,,,,,,,,,,,,,,,masks/mask_001.jpg,,,,,,,,,,,,,,,,,,,,,,,,,,,,,,,,,,,,,,,,,,,0,0,0,0,1,,,,,,,,,,,,,,,,,,,,,,,,,,,,,,,,,,,,,,,,,,,,,,
592479,001,2022-11-13_23h28.01.595,Info_measure_main_exp,2022.2.2,Win32,60.01680471,,,,,,,,,,,,,,,,,,masks/mask_004.jpg,,,,,,,,,,,,,,,,,,,,,,,,,,,,,,,,,,,,,,,,,,,0,1,1,3,1,,,,,,,,,,,,,,,,,,,,,,,,,,,,,,,,,,,,,,,,,,,,,,
592479,001,2022-11-13_23h28.01.595,Info_measure_main_exp,2022.2.2,Win32,60.01680471,,,,,,,,,,,,,,,,,,masks/mask_003.jpg,,,,,,,,,,,,,,,,,,,,,,,,,,,,,,,,,,,,,,,,,,,0,2,2,2,1,,,,,,,,,,,,,,,,,,,,,,,,,,,,,,,,,,,,,,,,,,,,,,
592479,001,2022-11-13_23h28.01.595,Info_measure_main_exp,2022.2.2,Win32,60.01680471,,,,,,,,,,,,,,,,,,masks/mask_002.jpg,,,,,,,,,,,,,,,,,,,,,,,,,,,,,,,,,,,,,,,,,,,0,3,3,1,1,,,,,,,,,,,,,,,,,,,,,,,,,,,,,,,,,,,,,,,,,,,,,,
592479,001,2022-11-13_23h28.01.595,Info_measure_main_exp,2022.2.2,Win32,60.01680471,,,,,,,,,,,,,,,,,,masks/mask_005.jpg,,,,,,,,,,,,,,,,,,,,,,,,,,,,,,,,,,,,,,,,,,,0,4,4,4,1,,,,,,,,,,,,,,,,,,,,,,,,,,,,,,,,,,,,,,,,,,,,,,
592479,001,2022-11-13_23h28.01.595,Info_measure_main_exp,2022.2.2,Win32,60.01680471,,,,,,,,,,,,,,,,,,masks/mask_005.jpg,,,,,,,,,,,,,,,,,,,,,,,,,,,,,,,,,,,,,,,,,,,,,,,,0,0,0,4,1,,,,,,,,,,,,,,,,,,,,,,,,,,,,,,,,,,,,,,,,,
592479,001,2022-11-13_23h28.01.595,Info_measure_main_exp,2022.2.2,Win32,60.01680471,,,,,,,,,,,,,,,,,,masks/mask_002.jpg,,,,,,,,,,,,,,,,,,,,,,,,,,,,,,,,,,,,,,,,,,,,,,,,0,1,1,1,1,,,,,,,,,,,,,,,,,,,,,,,,,,,,,,,,,,,,,,,,,
592479,001,2022-11-13_23h28.01.595,Info_measure_main_exp,2022.2.2,Win32,60.01680471,,,,,,,,,,,,,,,,,,masks/mask_004.jpg,,,,,,,,,,,,,,,,,,,,,,,,,,,,,,,,,,,,,,,,,,,,,,,,0,2,2,3,1,,,,,,,,,,,,,,,,,,,,,,,,,,,,,,,,,,,,,,,,,
592479,001,2022-11-13_23h28.01.595,Info_measure_main_exp,2022.2.2,Win32,60.01680471,,,,,,,,,,,,,,,,,,masks/mask_001.jpg,,,,,,,,,,,,,,,,,,,,,,,,,,,,,,,,,,,,,,,,,,,,,,,,0,3,3,0,1,,,,,,,,,,,,,,,,,,,,,,,,,,,,,,,,,,,,,,,,,
592479,001,2022-11-13_23h28.01.595,Info_measure_main_exp,2022.2.2,Win32,60.01680471,,,,,,,,,,,,,,,,,,masks/mask_003.jpg,,,,,,,,,,,,,,,,,,,,,,,,,,,,,,,,,,,,,,,,,,,,,,,,0,4,4,2,1,,,,,,,,,,,,,,,,,,,,,,,,,,,,,,,,,,,,,,,,,
592479,001,2022-11-13_23h28.01.595,Info_measure_main_exp,2022.2.2,Win32,60.01680471,,,,,,,,,,,,,,,,,,,,,,,,,,,,,,1,1.3668,1,,,,,,,,,,,,0,131,5,5,2274,2274,absent_patch/patch0002274.jpg,absent_patch/patch0002274.jpg,,,,,,,,,,,,,,,,,,,,-0.107407379,0.034259245,1,0,0,response7disk,30,-0.000925869,-0.007407422,1,0,0,center_square,0,29,29,114,1,,,,,,,,,,,,,,,,,,,,,,,
592479,001,2022-11-13_23h28.01.595,Info_measure_main_exp,2022.2.2,Win32,60.01680471,,,,,,,,,,,,,,,,,,masks/mask_001.jpg,,,,,,,,,,,,,,,,,,,,,,,,,,,,,,,,,,,,,,,,,,,0,0,0,0,1,,,,,,,,,,,,,,,,,,,,,,,,,,,,,,,,,,,,,,,,,,,,,,
592479,001,2022-11-13_23h28.01.595,Info_measure_main_exp,2022.2.2,Win32,60.01680471,,,,,,,,,,,,,,,,,,masks/mask_003.jpg,,,,,,,,,,,,,,,,,,,,,,,,,,,,,,,,,,,,,,,,,,,0,1,1,2,1,,,,,,,,,,,,,,,,,,,,,,,,,,,,,,,,,,,,,,,,,,,,,,
592479,001,2022-11-13_23h28.01.595,Info_measure_main_exp,2022.2.2,Win32,60.01680471,,,,,,,,,,,,,,,,,,masks/mask_005.jpg,,,,,,,,,,,,,,,,,,,,,,,,,,,,,,,,,,,,,,,,,,,0,2,2,4,1,,,,,,,,,,,,,,,,,,,,,,,,,,,,,,,,,,,,,,,,,,,,,,
592479,001,2022-11-13_23h28.01.595,Info_measure_main_exp,2022.2.2,Win32,60.01680471,,,,,,,,,,,,,,,,,,masks/mask_004.jpg,,,,,,,,,,,,,,,,,,,,,,,,,,,,,,,,,,,,,,,,,,,0,3,3,3,1,,,,,,,,,,,,,,,,,,,,,,,,,,,,,,,,,,,,,,,,,,,,,,
592479,001,2022-11-13_23h28.01.595,Info_measure_main_exp,2022.2.2,Win32,60.01680471,,,,,,,,,,,,,,,,,,masks/mask_002.jpg,,,,,,,,,,,,,,,,,,,,,,,,,,,,,,,,,,,,,,,,,,,0,4,4,1,1,,,,,,,,,,,,,,,,,,,,,,,,,,,,,,,,,,,,,,,,,,,,,,
592479,001,2022-11-13_23h28.01.595,Info_measure_main_exp,2022.2.2,Win32,60.01680471,,,,,,,,,,,,,,,,,,masks/mask_002.jpg,,,,,,,,,,,,,,,,,,,,,,,,,,,,,,,,,,,,,,,,,,,,,,,,0,0,0,1,1,,,,,,,,,,,,,,,,,,,,,,,,,,,,,,,,,,,,,,,,,
592479,001,2022-11-13_23h28.01.595,Info_measure_main_exp,2022.2.2,Win32,60.01680471,,,,,,,,,,,,,,,,,,masks/mask_001.jpg,,,,,,,,,,,,,,,,,,,,,,,,,,,,,,,,,,,,,,,,,,,,,,,,0,1,1,0,1,,,,,,,,,,,,,,,,,,,,,,,,,,,,,,,,,,,,,,,,,
592479,001,2022-11-13_23h28.01.595,Info_measure_main_exp,2022.2.2,Win32,60.01680471,,,,,,,,,,,,,,,,,,masks/mask_005.jpg,,,,,,,,,,,,,,,,,,,,,,,,,,,,,,,,,,,,,,,,,,,,,,,,0,2,2,4,1,,,,,,,,,,,,,,,,,,,,,,,,,,,,,,,,,,,,,,,,,
592479,001,2022-11-13_23h28.01.595,Info_measure_main_exp,2022.2.2,Win32,60.01680471,,,,,,,,,,,,,,,,,,masks/mask_004.jpg,,,,,,,,,,,,,,,,,,,,,,,,,,,,,,,,,,,,,,,,,,,,,,,,0,3,3,3,1,,,,,,,,,,,,,,,,,,,,,,,,,,,,,,,,,,,,,,,,,
592479,001,2022-11-13_23h28.01.595,Info_measure_main_exp,2022.2.2,Win32,60.01680471,,,,,,,,,,,,,,,,,,masks/mask_003.jpg,,,,,,,,,,,,,,,,,,,,,,,,,,,,,,,,,,,,,,,,,,,,,,,,0,4,4,2,1,,,,,,,,,,,,,,,,,,,,,,,,,,,,,,,,,,,,,,,,,
592479,001,2022-11-13_23h28.01.595,Info_measure_main_exp,2022.2.2,Win32,60.01680471,,,,,,,,,,,,,,,,,,,,,,,,,,,,,,4,0.5903,1,,,,,,,,,,,,1,131,5,5,1,2166,present_patch/cong_131_5_a.jpg,absent_patch/patch0002166.jpg,,,,,,,,,,,,,,,,,,,,0.045370399,-0.103703732,1,0,0,response3disk,31,-0.001851824,-0.00648151,1,0,0,center_square,0,30,30,54,1,,,,,,,,,,,,,,,,,,,,,,,
592479,001,2022-11-13_23h28.01.595,Info_measure_main_exp,2022.2.2,Win32,60.01680471,,,,,,,,,,,,,,,,,,masks/mask_001.jpg,,,,,,,,,,,,,,,,,,,,,,,,,,,,,,,,,,,,,,,,,,,0,0,0,0,1,,,,,,,,,,,,,,,,,,,,,,,,,,,,,,,,,,,,,,,,,,,,,,
592479,001,2022-11-13_23h28.01.595,Info_measure_main_exp,2022.2.2,Win32,60.01680471,,,,,,,,,,,,,,,,,,masks/mask_002.jpg,,,,,,,,,,,,,,,,,,,,,,,,,,,,,,,,,,,,,,,,,,,0,1,1,1,1,,,,,,,,,,,,,,,,,,,,,,,,,,,,,,,,,,,,,,,,,,,,,,
592479,001,2022-11-13_23h28.01.595,Info_measure_main_exp,2022.2.2,Win32,60.01680471,,,,,,,,,,,,,,,,,,masks/mask_005.jpg,,,,,,,,,,,,,,,,,,,,,,,,,,,,,,,,,,,,,,,,,,,0,2,2,4,1,,,,,,,,,,,,,,,,,,,,,,,,,,,,,,,,,,,,,,,,,,,,,,
592479,001,2022-11-13_23h28.01.595,Info_measure_main_exp,2022.2.2,Win32,60.01680471,,,,,,,,,,,,,,,,,,masks/mask_004.jpg,,,,,,,,,,,,,,,,,,,,,,,,,,,,,,,,,,,,,,,,,,,0,3,3,3,1,,,,,,,,,,,,,,,,,,,,,,,,,,,,,,,,,,,,,,,,,,,,,,
592479,001,2022-11-13_23h28.01.595,Info_measure_main_exp,2022.2.2,Win32,60.01680471,,,,,,,,,,,,,,,,,,masks/mask_003.jpg,,,,,,,,,,,,,,,,,,,,,,,,,,,,,,,,,,,,,,,,,,,0,4,4,2,1,,,,,,,,,,,,,,,,,,,,,,,,,,,,,,,,,,,,,,,,,,,,,,
592479,001,2022-11-13_23h28.01.595,Info_measure_main_exp,2022.2.2,Win32,60.01680471,,,,,,,,,,,,,,,,,,masks/mask_003.jpg,,,,,,,,,,,,,,,,,,,,,,,,,,,,,,,,,,,,,,,,,,,,,,,,0,0,0,2,1,,,,,,,,,,,,,,,,,,,,,,,,,,,,,,,,,,,,,,,,,
592479,001,2022-11-13_23h28.01.595,Info_measure_main_exp,2022.2.2,Win32,60.01680471,,,,,,,,,,,,,,,,,,masks/mask_004.jpg,,,,,,,,,,,,,,,,,,,,,,,,,,,,,,,,,,,,,,,,,,,,,,,,0,1,1,3,1,,,,,,,,,,,,,,,,,,,,,,,,,,,,,,,,,,,,,,,,,
592479,001,2022-11-13_23h28.01.595,Info_measure_main_exp,2022.2.2,Win32,60.01680471,,,,,,,,,,,,,,,,,,masks/mask_002.jpg,,,,,,,,,,,,,,,,,,,,,,,,,,,,,,,,,,,,,,,,,,,,,,,,0,2,2,1,1,,,,,,,,,,,,,,,,,,,,,,,,,,,,,,,,,,,,,,,,,
592479,001,2022-11-13_23h28.01.595,Info_measure_main_exp,2022.2.2,Win32,60.01680471,,,,,,,,,,,,,,,,,,masks/mask_001.jpg,,,,,,,,,,,,,,,,,,,,,,,,,,,,,,,,,,,,,,,,,,,,,,,,0,3,3,0,1,,,,,,,,,,,,,,,,,,,,,,,,,,,,,,,,,,,,,,,,,
592479,001,2022-11-13_23h28.01.595,Info_measure_main_exp,2022.2.2,Win32,60.01680471,,,,,,,,,,,,,,,,,,masks/mask_005.jpg,,,,,,,,,,,,,,,,,,,,,,,,,,,,,,,,,,,,,,,,,,,,,,,,0,4,4,4,1,,,,,,,,,,,,,,,,,,,,,,,,,,,,,,,,,,,,,,,,,
592479,001,2022-11-13_23h28.01.595,Info_measure_main_exp,2022.2.2,Win32,60.01680471,,,,,,,,,,,,,,,,,,,,,,,,,,,,,,5,0.5379,1,,,,,,,,,,,,1,131,5,5,2250,1,absent_patch/patch0002250.jpg,present_patch/cong_131_5_a.jpg,,,,,,,,,,,,,,,,,,,,0.097222222,-0.057407422,1,0,0,response3disk,32,0.001851908,0.00370369,1,0,0,center_square,0,31,31,5,1,,,,,,,,,,,,,,,,,,,,,,,
592479,001,2022-11-13_23h28.01.595,Info_measure_main_exp,2022.2.2,Win32,60.01680471,,,,,,,,,,,,,,,,,,masks/mask_002.jpg,,,,,,,,,,,,,,,,,,,,,,,,,,,,,,,,,,,,,,,,,,,0,0,0,1,1,,,,,,,,,,,,,,,,,,,,,,,,,,,,,,,,,,,,,,,,,,,,,,
592479,001,2022-11-13_23h28.01.595,Info_measure_main_exp,2022.2.2,Win32,60.01680471,,,,,,,,,,,,,,,,,,masks/mask_004.jpg,,,,,,,,,,,,,,,,,,,,,,,,,,,,,,,,,,,,,,,,,,,0,1,1,3,1,,,,,,,,,,,,,,,,,,,,,,,,,,,,,,,,,,,,,,,,,,,,,,
592479,001,2022-11-13_23h28.01.595,Info_measure_main_exp,2022.2.2,Win32,60.01680471,,,,,,,,,,,,,,,,,,masks/mask_001.jpg,,,,,,,,,,,,,,,,,,,,,,,,,,,,,,,,,,,,,,,,,,,0,2,2,0,1,,,,,,,,,,,,,,,,,,,,,,,,,,,,,,,,,,,,,,,,,,,,,,
592479,001,2022-11-13_23h28.01.595,Info_measure_main_exp,2022.2.2,Win32,60.01680471,,,,,,,,,,,,,,,,,,masks/mask_005.jpg,,,,,,,,,,,,,,,,,,,,,,,,,,,,,,,,,,,,,,,,,,,0,3,3,4,1,,,,,,,,,,,,,,,,,,,,,,,,,,,,,,,,,,,,,,,,,,,,,,
592479,001,2022-11-13_23h28.01.595,Info_measure_main_exp,2022.2.2,Win32,60.01680471,,,,,,,,,,,,,,,,,,masks/mask_003.jpg,,,,,,,,,,,,,,,,,,,,,,,,,,,,,,,,,,,,,,,,,,,0,4,4,2,1,,,,,,,,,,,,,,,,,,,,,,,,,,,,,,,,,,,,,,,,,,,,,,
592479,001,2022-11-13_23h28.01.595,Info_measure_main_exp,2022.2.2,Win32,60.01680471,,,,,,,,,,,,,,,,,,masks/mask_004.jpg,,,,,,,,,,,,,,,,,,,,,,,,,,,,,,,,,,,,,,,,,,,,,,,,0,0,0,3,1,,,,,,,,,,,,,,,,,,,,,,,,,,,,,,,,,,,,,,,,,
592479,001,2022-11-13_23h28.01.595,Info_measure_main_exp,2022.2.2,Win32,60.01680471,,,,,,,,,,,,,,,,,,masks/mask_005.jpg,,,,,,,,,,,,,,,,,,,,,,,,,,,,,,,,,,,,,,,,,,,,,,,,0,1,1,4,1,,,,,,,,,,,,,,,,,,,,,,,,,,,,,,,,,,,,,,,,,
592479,001,2022-11-13_23h28.01.595,Info_measure_main_exp,2022.2.2,Win32,60.01680471,,,,,,,,,,,,,,,,,,masks/mask_003.jpg,,,,,,,,,,,,,,,,,,,,,,,,,,,,,,,,,,,,,,,,,,,,,,,,0,2,2,2,1,,,,,,,,,,,,,,,,,,,,,,,,,,,,,,,,,,,,,,,,,
592479,001,2022-11-13_23h28.01.595,Info_measure_main_exp,2022.2.2,Win32,60.01680471,,,,,,,,,,,,,,,,,,masks/mask_002.jpg,,,,,,,,,,,,,,,,,,,,,,,,,,,,,,,,,,,,,,,,,,,,,,,,0,3,3,1,1,,,,,,,,,,,,,,,,,,,,,,,,,,,,,,,,,,,,,,,,,
592479,001,2022-11-13_23h28.01.595,Info_measure_main_exp,2022.2.2,Win32,60.01680471,,,,,,,,,,,,,,,,,,masks/mask_001.jpg,,,,,,,,,,,,,,,,,,,,,,,,,,,,,,,,,,,,,,,,,,,,,,,,0,4,4,0,1,,,,,,,,,,,,,,,,,,,,,,,,,,,,,,,,,,,,,,,,,
592479,001,2022-11-13_23h28.01.595,Info_measure_main_exp,2022.2.2,Win32,60.01680471,,,,,,,,,,,,,,,,,,,,,,,,,,,,,,4,0.9567,1,,,,,,,,,,,,0,131,5,5,2274,1950,absent_patch/patch0002274.jpg,absent_patch/patch0001950.jpg,,,,,,,,,,,,,,,,,,,,0.021296353,-0.113888889,1,0,0,response3disk,33,-0.006481425,-0.009259288,1,0,0,center_square,0,32,32,10,1,,,,,,,,,,,,,,,,,,,,,,,
592479,001,2022-11-13_23h28.01.595,Info_measure_main_exp,2022.2.2,Win32,60.01680471,,,,,,,,,,,,,,,,,,masks/mask_003.jpg,,,,,,,,,,,,,,,,,,,,,,,,,,,,,,,,,,,,,,,,,,,0,0,0,2,1,,,,,,,,,,,,,,,,,,,,,,,,,,,,,,,,,,,,,,,,,,,,,,
592479,001,2022-11-13_23h28.01.595,Info_measure_main_exp,2022.2.2,Win32,60.01680471,,,,,,,,,,,,,,,,,,masks/mask_004.jpg,,,,,,,,,,,,,,,,,,,,,,,,,,,,,,,,,,,,,,,,,,,0,1,1,3,1,,,,,,,,,,,,,,,,,,,,,,,,,,,,,,,,,,,,,,,,,,,,,,
592479,001,2022-11-13_23h28.01.595,Info_measure_main_exp,2022.2.2,Win32,60.01680471,,,,,,,,,,,,,,,,,,masks/mask_002.jpg,,,,,,,,,,,,,,,,,,,,,,,,,,,,,,,,,,,,,,,,,,,0,2,2,1,1,,,,,,,,,,,,,,,,,,,,,,,,,,,,,,,,,,,,,,,,,,,,,,
592479,001,2022-11-13_23h28.01.595,Info_measure_main_exp,2022.2.2,Win32,60.01680471,,,,,,,,,,,,,,,,,,masks/mask_005.jpg,,,,,,,,,,,,,,,,,,,,,,,,,,,,,,,,,,,,,,,,,,,0,3,3,4,1,,,,,,,,,,,,,,,,,,,,,,,,,,,,,,,,,,,,,,,,,,,,,,
592479,001,2022-11-13_23h28.01.595,Info_measure_main_exp,2022.2.2,Win32,60.01680471,,,,,,,,,,,,,,,,,,masks/mask_001.jpg,,,,,,,,,,,,,,,,,,,,,,,,,,,,,,,,,,,,,,,,,,,0,4,4,0,1,,,,,,,,,,,,,,,,,,,,,,,,,,,,,,,,,,,,,,,,,,,,,,
592479,001,2022-11-13_23h28.01.595,Info_measure_main_exp,2022.2.2,Win32,60.01680471,,,,,,,,,,,,,,,,,,masks/mask_004.jpg,,,,,,,,,,,,,,,,,,,,,,,,,,,,,,,,,,,,,,,,,,,,,,,,0,0,0,3,1,,,,,,,,,,,,,,,,,,,,,,,,,,,,,,,,,,,,,,,,,
592479,001,2022-11-13_23h28.01.595,Info_measure_main_exp,2022.2.2,Win32,60.01680471,,,,,,,,,,,,,,,,,,masks/mask_005.jpg,,,,,,,,,,,,,,,,,,,,,,,,,,,,,,,,,,,,,,,,,,,,,,,,0,1,1,4,1,,,,,,,,,,,,,,,,,,,,,,,,,,,,,,,,,,,,,,,,,
592479,001,2022-11-13_23h28.01.595,Info_measure_main_exp,2022.2.2,Win32,60.01680471,,,,,,,,,,,,,,,,,,masks/mask_002.jpg,,,,,,,,,,,,,,,,,,,,,,,,,,,,,,,,,,,,,,,,,,,,,,,,0,2,2,1,1,,,,,,,,,,,,,,,,,,,,,,,,,,,,,,,,,,,,,,,,,
592479,001,2022-11-13_23h28.01.595,Info_measure_main_exp,2022.2.2,Win32,60.01680471,,,,,,,,,,,,,,,,,,masks/mask_003.jpg,,,,,,,,,,,,,,,,,,,,,,,,,,,,,,,,,,,,,,,,,,,,,,,,0,3,3,2,1,,,,,,,,,,,,,,,,,,,,,,,,,,,,,,,,,,,,,,,,,
592479,001,2022-11-13_23h28.01.595,Info_measure_main_exp,2022.2.2,Win32,60.01680471,,,,,,,,,,,,,,,,,,masks/mask_001.jpg,,,,,,,,,,,,,,,,,,,,,,,,,,,,,,,,,,,,,,,,,,,,,,,,0,4,4,0,1,,,,,,,,,,,,,,,,,,,,,,,,,,,,,,,,,,,,,,,,,
592479,001,2022-11-13_23h28.01.595,Info_measure_main_exp,2022.2.2,Win32,60.01680471,,,,,,,,,,,,,,,,,,,,,,,,,,,,,,3,0.6066,1,,,,,,,,,,,,0,131,5,5,1950,2214,absent_patch/patch0001950.jpg,absent_patch/patch0002214.jpg,,,,,,,,,,,,,,,,,,,,-0.024074046,-0.091666667,1,0,0,response5disk,34,0.005555556,0.00370369,1,0,0,center_square,0,33,33,85,1,,,,,,,,,,,,,,,,,,,,,,,
592479,001,2022-11-13_23h28.01.595,Info_measure_main_exp,2022.2.2,Win32,60.01680471,,,,,,,,,,,,,,,,,,masks/mask_004.jpg,,,,,,,,,,,,,,,,,,,,,,,,,,,,,,,,,,,,,,,,,,,0,0,0,3,1,,,,,,,,,,,,,,,,,,,,,,,,,,,,,,,,,,,,,,,,,,,,,,
592479,001,2022-11-13_23h28.01.595,Info_measure_main_exp,2022.2.2,Win32,60.01680471,,,,,,,,,,,,,,,,,,masks/mask_005.jpg,,,,,,,,,,,,,,,,,,,,,,,,,,,,,,,,,,,,,,,,,,,0,1,1,4,1,,,,,,,,,,,,,,,,,,,,,,,,,,,,,,,,,,,,,,,,,,,,,,
592479,001,2022-11-13_23h28.01.595,Info_measure_main_exp,2022.2.2,Win32,60.01680471,,,,,,,,,,,,,,,,,,masks/mask_001.jpg,,,,,,,,,,,,,,,,,,,,,,,,,,,,,,,,,,,,,,,,,,,0,2,2,0,1,,,,,,,,,,,,,,,,,,,,,,,,,,,,,,,,,,,,,,,,,,,,,,
592479,001,2022-11-13_23h28.01.595,Info_measure_main_exp,2022.2.2,Win32,60.01680471,,,,,,,,,,,,,,,,,,masks/mask_002.jpg,,,,,,,,,,,,,,,,,,,,,,,,,,,,,,,,,,,,,,,,,,,0,3,3,1,1,,,,,,,,,,,,,,,,,,,,,,,,,,,,,,,,,,,,,,,,,,,,,,
592479,001,2022-11-13_23h28.01.595,Info_measure_main_exp,2022.2.2,Win32,60.01680471,,,,,,,,,,,,,,,,,,masks/mask_003.jpg,,,,,,,,,,,,,,,,,,,,,,,,,,,,,,,,,,,,,,,,,,,0,4,4,2,1,,,,,,,,,,,,,,,,,,,,,,,,,,,,,,,,,,,,,,,,,,,,,,
592479,001,2022-11-13_23h28.01.595,Info_measure_main_exp,2022.2.2,Win32,60.01680471,,,,,,,,,,,,,,,,,,masks/mask_005.jpg,,,,,,,,,,,,,,,,,,,,,,,,,,,,,,,,,,,,,,,,,,,,,,,,0,0,0,4,1,,,,,,,,,,,,,,,,,,,,,,,,,,,,,,,,,,,,,,,,,
592479,001,2022-11-13_23h28.01.595,Info_measure_main_exp,2022.2.2,Win32,60.01680471,,,,,,,,,,,,,,,,,,masks/mask_004.jpg,,,,,,,,,,,,,,,,,,,,,,,,,,,,,,,,,,,,,,,,,,,,,,,,0,1,1,3,1,,,,,,,,,,,,,,,,,,,,,,,,,,,,,,,,,,,,,,,,,
592479,001,2022-11-13_23h28.01.595,Info_measure_main_exp,2022.2.2,Win32,60.01680471,,,,,,,,,,,,,,,,,,masks/mask_002.jpg,,,,,,,,,,,,,,,,,,,,,,,,,,,,,,,,,,,,,,,,,,,,,,,,0,2,2,1,1,,,,,,,,,,,,,,,,,,,,,,,,,,,,,,,,,,,,,,,,,
592479,001,2022-11-13_23h28.01.595,Info_measure_main_exp,2022.2.2,Win32,60.01680471,,,,,,,,,,,,,,,,,,masks/mask_001.jpg,,,,,,,,,,,,,,,,,,,,,,,,,,,,,,,,,,,,,,,,,,,,,,,,0,3,3,0,1,,,,,,,,,,,,,,,,,,,,,,,,,,,,,,,,,,,,,,,,,
