participant,session,date,expName,psychopyVersion,OS,frameRate,space_press_continue.keys,space_press_continue.rt,space_press_continue_2.keys,space_press_continue_2.rt,space_press_continue_3.keys,space_press_continue_3.rt,space_press_continue_4.keys,space_press_continue_4.rt,space_press_continue_5.keys,space_press_continue_5.rt,space_press_continue_6.keys,space_press_continue_6.rt,prac_mask_loop_1.thisRepN,prac_mask_loop_1.thisTrialN,prac_mask_loop_1.thisN,prac_mask_loop_1.thisIndex,prac_mask_loop_1.ran,mask_name,prac_mask_loop_2.thisRepN,prac_mask_loop_2.thisTrialN,prac_mask_loop_2.thisN,prac_mask_loop_2.thisIndex,prac_mask_loop_2.ran,mouse_2.x,mouse_2.y,mouse_2.leftButton,mouse_2.midButton,mouse_2.rightButton,mouse_2.clicked_name,similarity,response_time,Pass,mouse_12.x,mouse_12.y,mouse_12.leftButton,mouse_12.midButton,mouse_12.rightButton,mouse_12.clicked_name,prac_loop.thisRepN,prac_loop.thisTrialN,prac_loop.thisN,prac_loop.thisIndex,prac_loop.ran,Pair_type,Image_num,Patch_1_loc,Patch_2_loc,Patch_1_info,Patch_2_info,Patch_1_name,Patch_2_name,mouse_1.x,mouse_1.y,mouse_1.leftButton,mouse_1.midButton,mouse_1.rightButton,mouse_1.time,mouse_1.clicked_name,space_press_continue_7.keys,space_press_continue_7.rt,mask_loop.thisRepN,mask_loop.thisTrialN,mask_loop.thisN,mask_loop.thisIndex,mask_loop.ran,mask_loop_2.thisRepN,mask_loop_2.thisTrialN,mask_loop_2.thisN,mask_loop_2.thisIndex,mask_loop_2.ran,mouse.x,mouse.y,mouse.leftButton,mouse.midButton,mouse.rightButton,mouse.clicked_name,trialNumber,mouse_11.x,mouse_11.y,mouse_11.leftButton,mouse_11.midButton,mouse_11.rightButton,mouse_11.clicked_name,first_pass_loop.thisRepN,first_pass_loop.thisTrialN,first_pass_loop.thisN,first_pass_loop.thisIndex,first_pass_loop.ran,mask_loop_3.thisRepN,mask_loop_3.thisTrialN,mask_loop_3.thisN,mask_loop_3.thisIndex,mask_loop_3.ran,mask_loop_4.thisRepN,mask_loop_4.thisTrialN,mask_loop_4.thisN,mask_loop_4.thisIndex,mask_loop_4.ran,mouse_3.x,mouse_3.y,mouse_3.leftButton,mouse_3.midButton,mouse_3.rightButton,mouse_3.clicked_name,double_pass_loop.thisRepN,double_pass_loop.thisTrialN,double_pass_loop.thisN,double_pass_loop.thisIndex,double_pass_loop.ran,space_exit.keys,space_exit.rt
594366,001,2022-11-21_24h55.53.414,Info_measure_main_exp,2022.2.2,Win32,59.60896519,,,,,,,,,,,,,,,,,,,,,,,,,,,,,,,,,,,,,,,,,,,,,,,,,,,,,,,,,,,,,,,,,,,,,,,,,,,,,,,,,,,,,,,,,,,,,,,,,,,,,,,,,,,,,,,
594366,001,2022-11-21_24h55.53.414,Info_measure_main_exp,2022.2.2,Win32,59.60896519,,,,,,,,,,,,,,,,,,,,,,,,,,,,,,,,,,,,,,,,,,,,,,,,,,,,,,,,,,,,,,,,,,,,,,,,,,,,,,,,,,,,,,,,,,,,,,,,,,,,,,,,,,,,,,,
594366,001,2022-11-21_24h55.53.414,Info_measure_main_exp,2022.2.2,Win32,59.60896519,space,9.1196,,,,,,,,,,,,,,,,,,,,,,,,,,,,,,,,,,,,,,,,,,,,,,,,,,,,,,,,,,,,,,,,,,,,,,,,,,,,,,,,,,,,,,,,,,,,,,,,,,,,,,,,,,,,,
594366,001,2022-11-21_24h55.53.414,Info_measure_main_exp,2022.2.2,Win32,59.60896519,,,space,17.7364,,,,,,,,,,,,,,,,,,,,,,,,,,,,,,,,,,,,,,,,,,,,,,,,,,,,,,,,,,,,,,,,,,,,,,,,,,,,,,,,,,,,,,,,,,,,,,,,,,,,,,,,,,,
594366,001,2022-11-21_24h55.53.414,Info_measure_main_exp,2022.2.2,Win32,59.60896519,,,,,space,10.5439,,,,,,,,,,,,,,,,,,,,,,,,,,,,,,,,,,,,,,,,,,,,,,,,,,,,,,,,,,,,,,,,,,,,,,,,,,,,,,,,,,,,,,,,,,,,,,,,,,,,,,,,,
594366,001,2022-11-21_24h55.53.414,Info_measure_main_exp,2022.2.2,Win32,59.60896519,,,,,,,space,14.5036,,,,,,,,,,,,,,,,,,,,,,,,,,,,,,,,,,,,,,,,,,,,,,,,,,,,,,,,,,,,,,,,,,,,,,,,,,,,,,,,,,,,,,,,,,,,,,,,,,,,,,,
594366,001,2022-11-21_24h55.53.414,Info_measure_main_exp,2022.2.2,Win32,59.60896519,,,,,,,,,space,9.6451,,,,,,,,,,,,,,,,,,,,,,,,,,,,,,,,,,,,,,,,,,,,,,,,,,,,,,,,,,,,,,,,,,,,,,,,,,,,,,,,,,,,,,,,,,,,,,,,,,,,,
594366,001,2022-11-21_24h55.53.414,Info_measure_main_exp,2022.2.2,Win32,59.60896519,,,,,,,,,,,space,3.5945,,,,,,,,,,,,,,,,,,,,,,,,,,,,,,,,,,,,,,,,,,,,,,,,,,,,,,,,,,,,,,,,,,,,,,,,,,,,,,,,,,,,,,,,,,,,,,,,,,,
594366,001,2022-11-21_24h55.53.414,Info_measure_main_exp,2022.2.2,Win32,59.60896519,,,,,,,,,,,,,0,0,0,2,1,masks/mask_003.jpg,,,,,,,,,,,,,,,,,,,,,,,,,,,,,,,,,,,,,,,,,,,,,,,,,,,,,,,,,,,,,,,,,,,,,,,,,,,,,,,,,,,,,,,,,,,,,
594366,001,2022-11-21_24h55.53.414,Info_measure_main_exp,2022.2.2,Win32,59.60896519,,,,,,,,,,,,,0,1,1,0,1,masks/mask_001.jpg,,,,,,,,,,,,,,,,,,,,,,,,,,,,,,,,,,,,,,,,,,,,,,,,,,,,,,,,,,,,,,,,,,,,,,,,,,,,,,,,,,,,,,,,,,,,,
594366,001,2022-11-21_24h55.53.414,Info_measure_main_exp,2022.2.2,Win32,59.60896519,,,,,,,,,,,,,0,2,2,4,1,masks/mask_005.jpg,,,,,,,,,,,,,,,,,,,,,,,,,,,,,,,,,,,,,,,,,,,,,,,,,,,,,,,,,,,,,,,,,,,,,,,,,,,,,,,,,,,,,,,,,,,,,
594366,001,2022-11-21_24h55.53.414,Info_measure_main_exp,2022.2.2,Win32,59.60896519,,,,,,,,,,,,,0,3,3,3,1,masks/mask_004.jpg,,,,,,,,,,,,,,,,,,,,,,,,,,,,,,,,,,,,,,,,,,,,,,,,,,,,,,,,,,,,,,,,,,,,,,,,,,,,,,,,,,,,,,,,,,,,,
594366,001,2022-11-21_24h55.53.414,Info_measure_main_exp,2022.2.2,Win32,59.60896519,,,,,,,,,,,,,0,4,4,1,1,masks/mask_002.jpg,,,,,,,,,,,,,,,,,,,,,,,,,,,,,,,,,,,,,,,,,,,,,,,,,,,,,,,,,,,,,,,,,,,,,,,,,,,,,,,,,,,,,,,,,,,,,
594366,001,2022-11-21_24h55.53.414,Info_measure_main_exp,2022.2.2,Win32,59.60896519,,,,,,,,,,,,,,,,,,masks/mask_004.jpg,0,0,0,3,1,,,,,,,,,,,,,,,,,,,,,,,,,,,,,,,,,,,,,,,,,,,,,,,,,,,,,,,,,,,,,,,,,,,,,,,,,,,,,,,,,,,,,,,,
594366,001,2022-11-21_24h55.53.414,Info_measure_main_exp,2022.2.2,Win32,59.60896519,,,,,,,,,,,,,,,,,,masks/mask_003.jpg,0,1,1,2,1,,,,,,,,,,,,,,,,,,,,,,,,,,,,,,,,,,,,,,,,,,,,,,,,,,,,,,,,,,,,,,,,,,,,,,,,,,,,,,,,,,,,,,,,
594366,001,2022-11-21_24h55.53.414,Info_measure_main_exp,2022.2.2,Win32,59.60896519,,,,,,,,,,,,,,,,,,masks/mask_005.jpg,0,2,2,4,1,,,,,,,,,,,,,,,,,,,,,,,,,,,,,,,,,,,,,,,,,,,,,,,,,,,,,,,,,,,,,,,,,,,,,,,,,,,,,,,,,,,,,,,,
594366,001,2022-11-21_24h55.53.414,Info_measure_main_exp,2022.2.2,Win32,59.60896519,,,,,,,,,,,,,,,,,,masks/mask_001.jpg,0,3,3,0,1,,,,,,,,,,,,,,,,,,,,,,,,,,,,,,,,,,,,,,,,,,,,,,,,,,,,,,,,,,,,,,,,,,,,,,,,,,,,,,,,,,,,,,,,
594366,001,2022-11-21_24h55.53.414,Info_measure_main_exp,2022.2.2,Win32,59.60896519,,,,,,,,,,,,,,,,,,masks/mask_002.jpg,0,4,4,1,1,,,,,,,,,,,,,,,,,,,,,,,,,,,,,,,,,,,,,,,,,,,,,,,,,,,,,,,,,,,,,,,,,,,,,,,,,,,,,,,,,,,,,,,,
594366,001,2022-11-21_24h55.53.414,Info_measure_main_exp,2022.2.2,Win32,59.60896519,,,,,,,,,,,,,,,,,,,,,,,,-0.098148092,0.040740712,1,0,0,response7disk,1,70.3136,1,-0.002777778,-0.001851866,1,0,0,center_square,0,0,0,0,1,0,131,5,5,2370,2406,prac_patch/patch0002370.jpg,prac_patch/patch0002406.jpg,,,,,,,,,,,,,,,,,,,,,,,,,,,,,,,,,,,,,,,,,,,,,,,,,,,,,,,,,,,,
594366,001,2022-11-21_24h55.53.414,Info_measure_main_exp,2022.2.2,Win32,59.60896519,,,,,,,,,,,,,0,0,0,2,1,masks/mask_003.jpg,,,,,,,,,,,,,,,,,,,,,,,,,,,,,,,,,,,,,,,,,,,,,,,,,,,,,,,,,,,,,,,,,,,,,,,,,,,,,,,,,,,,,,,,,,,,,
594366,001,2022-11-21_24h55.53.414,Info_measure_main_exp,2022.2.2,Win32,59.60896519,,,,,,,,,,,,,0,1,1,0,1,masks/mask_001.jpg,,,,,,,,,,,,,,,,,,,,,,,,,,,,,,,,,,,,,,,,,,,,,,,,,,,,,,,,,,,,,,,,,,,,,,,,,,,,,,,,,,,,,,,,,,,,,
594366,001,2022-11-21_24h55.53.414,Info_measure_main_exp,2022.2.2,Win32,59.60896519,,,,,,,,,,,,,0,2,2,1,1,masks/mask_002.jpg,,,,,,,,,,,,,,,,,,,,,,,,,,,,,,,,,,,,,,,,,,,,,,,,,,,,,,,,,,,,,,,,,,,,,,,,,,,,,,,,,,,,,,,,,,,,,
594366,001,2022-11-21_24h55.53.414,Info_measure_main_exp,2022.2.2,Win32,59.60896519,,,,,,,,,,,,,0,3,3,4,1,masks/mask_005.jpg,,,,,,,,,,,,,,,,,,,,,,,,,,,,,,,,,,,,,,,,,,,,,,,,,,,,,,,,,,,,,,,,,,,,,,,,,,,,,,,,,,,,,,,,,,,,,
594366,001,2022-11-21_24h55.53.414,Info_measure_main_exp,2022.2.2,Win32,59.60896519,,,,,,,,,,,,,0,4,4,3,1,masks/mask_004.jpg,,,,,,,,,,,,,,,,,,,,,,,,,,,,,,,,,,,,,,,,,,,,,,,,,,,,,,,,,,,,,,,,,,,,,,,,,,,,,,,,,,,,,,,,,,,,,
594366,001,2022-11-21_24h55.53.414,Info_measure_main_exp,2022.2.2,Win32,59.60896519,,,,,,,,,,,,,,,,,,masks/mask_002.jpg,0,0,0,1,1,,,,,,,,,,,,,,,,,,,,,,,,,,,,,,,,,,,,,,,,,,,,,,,,,,,,,,,,,,,,,,,,,,,,,,,,,,,,,,,,,,,,,,,,
594366,001,2022-11-21_24h55.53.414,Info_measure_main_exp,2022.2.2,Win32,59.60896519,,,,,,,,,,,,,,,,,,masks/mask_001.jpg,0,1,1,0,1,,,,,,,,,,,,,,,,,,,,,,,,,,,,,,,,,,,,,,,,,,,,,,,,,,,,,,,,,,,,,,,,,,,,,,,,,,,,,,,,,,,,,,,,
594366,001,2022-11-21_24h55.53.414,Info_measure_main_exp,2022.2.2,Win32,59.60896519,,,,,,,,,,,,,,,,,,masks/mask_003.jpg,0,2,2,2,1,,,,,,,,,,,,,,,,,,,,,,,,,,,,,,,,,,,,,,,,,,,,,,,,,,,,,,,,,,,,,,,,,,,,,,,,,,,,,,,,,,,,,,,,
594366,001,2022-11-21_24h55.53.414,Info_measure_main_exp,2022.2.2,Win32,59.60896519,,,,,,,,,,,,,,,,,,masks/mask_005.jpg,0,3,3,4,1,,,,,,,,,,,,,,,,,,,,,,,,,,,,,,,,,,,,,,,,,,,,,,,,,,,,,,,,,,,,,,,,,,,,,,,,,,,,,,,,,,,,,,,,
594366,001,2022-11-21_24h55.53.414,Info_measure_main_exp,2022.2.2,Win32,59.60896519,,,,,,,,,,,,,,,,,,masks/mask_004.jpg,0,4,4,3,1,,,,,,,,,,,,,,,,,,,,,,,,,,,,,,,,,,,,,,,,,,,,,,,,,,,,,,,,,,,,,,,,,,,,,,,,,,,,,,,,,,,,,,,,
594366,001,2022-11-21_24h55.53.414,Info_measure_main_exp,2022.2.2,Win32,59.60896519,,,,,,,,,,,,,,,,,,,,,,,,0.086111111,0.184259245,1,0,0,response1disk,7,82.0661,1,-0.003703647,-0.004629644,1,0,0,center_square,0,1,1,2,1,0,131,5,5,2526,2526,prac_patch/patch0002526.jpg,prac_patch/patch0002526.jpg,,,,,,,,,,,,,,,,,,,,,,,,,,,,,,,,,,,,,,,,,,,,,,,,,,,,,,,,,,,,
594366,001,2022-11-21_24h55.53.414,Info_measure_main_exp,2022.2.2,Win32,59.60896519,,,,,,,,,,,,,0,0,0,2,1,masks/mask_003.jpg,,,,,,,,,,,,,,,,,,,,,,,,,,,,,,,,,,,,,,,,,,,,,,,,,,,,,,,,,,,,,,,,,,,,,,,,,,,,,,,,,,,,,,,,,,,,,
594366,001,2022-11-21_24h55.53.414,Info_measure_main_exp,2022.2.2,Win32,59.60896519,,,,,,,,,,,,,0,1,1,4,1,masks/mask_005.jpg,,,,,,,,,,,,,,,,,,,,,,,,,,,,,,,,,,,,,,,,,,,,,,,,,,,,,,,,,,,,,,,,,,,,,,,,,,,,,,,,,,,,,,,,,,,,,
594366,001,2022-11-21_24h55.53.414,Info_measure_main_exp,2022.2.2,Win32,59.60896519,,,,,,,,,,,,,0,2,2,0,1,masks/mask_001.jpg,,,,,,,,,,,,,,,,,,,,,,,,,,,,,,,,,,,,,,,,,,,,,,,,,,,,,,,,,,,,,,,,,,,,,,,,,,,,,,,,,,,,,,,,,,,,,
594366,001,2022-11-21_24h55.53.414,Info_measure_main_exp,2022.2.2,Win32,59.60896519,,,,,,,,,,,,,0,3,3,3,1,masks/mask_004.jpg,,,,,,,,,,,,,,,,,,,,,,,,,,,,,,,,,,,,,,,,,,,,,,,,,,,,,,,,,,,,,,,,,,,,,,,,,,,,,,,,,,,,,,,,,,,,,
594366,001,2022-11-21_24h55.53.414,Info_measure_main_exp,2022.2.2,Win32,59.60896519,,,,,,,,,,,,,0,4,4,1,1,masks/mask_002.jpg,,,,,,,,,,,,,,,,,,,,,,,,,,,,,,,,,,,,,,,,,,,,,,,,,,,,,,,,,,,,,,,,,,,,,,,,,,,,,,,,,,,,,,,,,,,,,
594366,001,2022-11-21_24h55.53.414,Info_measure_main_exp,2022.2.2,Win32,59.60896519,,,,,,,,,,,,,,,,,,masks/mask_005.jpg,0,0,0,4,1,,,,,,,,,,,,,,,,,,,,,,,,,,,,,,,,,,,,,,,,,,,,,,,,,,,,,,,,,,,,,,,,,,,,,,,,,,,,,,,,,,,,,,,,
594366,001,2022-11-21_24h55.53.414,Info_measure_main_exp,2022.2.2,Win32,59.60896519,,,,,,,,,,,,,,,,,,masks/mask_003.jpg,0,1,1,2,1,,,,,,,,,,,,,,,,,,,,,,,,,,,,,,,,,,,,,,,,,,,,,,,,,,,,,,,,,,,,,,,,,,,,,,,,,,,,,,,,,,,,,,,,
594366,001,2022-11-21_24h55.53.414,Info_measure_main_exp,2022.2.2,Win32,59.60896519,,,,,,,,,,,,,,,,,,masks/mask_001.jpg,0,2,2,0,1,,,,,,,,,,,,,,,,,,,,,,,,,,,,,,,,,,,,,,,,,,,,,,,,,,,,,,,,,,,,,,,,,,,,,,,,,,,,,,,,,,,,,,,,
594366,001,2022-11-21_24h55.53.414,Info_measure_main_exp,2022.2.2,Win32,59.60896519,,,,,,,,,,,,,,,,,,masks/mask_004.jpg,0,3,3,3,1,,,,,,,,,,,,,,,,,,,,,,,,,,,,,,,,,,,,,,,,,,,,,,,,,,,,,,,,,,,,,,,,,,,,,,,,,,,,,,,,,,,,,,,,
594366,001,2022-11-21_24h55.53.414,Info_measure_main_exp,2022.2.2,Win32,59.60896519,,,,,,,,,,,,,,,,,,masks/mask_002.jpg,0,4,4,1,1,,,,,,,,,,,,,,,,,,,,,,,,,,,,,,,,,,,,,,,,,,,,,,,,,,,,,,,,,,,,,,,,,,,,,,,,,,,,,,,,,,,,,,,,
594366,001,2022-11-21_24h55.53.414,Info_measure_main_exp,2022.2.2,Win32,59.60896519,,,,,,,,,,,,,,,,,,,,,,,,0.095370399,-0.030555556,1,0,0,response3disk,5,91.2116,1,0,0.005555556,1,0,0,center_square,0,2,2,1,1,0,131,5,5,2514,2490,prac_patch/patch0002514.jpg,prac_patch/patch0002490.jpg,,,,,,,,,,,,,,,,,,,,,,,,,,,,,,,,,,,,,,,,,,,,,,,,,,,,,,,,,,,,
594366,001,2022-11-21_24h55.53.414,Info_measure_main_exp,2022.2.2,Win32,59.60896519,,,,,,,,,,,,,,,,,,,,,,,,,,,,,,,,,,,,,,,,,,,,,,,,,,,,,,,,,,,space,2.1733,,,,,,,,,,,,,,,,,,,,,,,,,,,,,,,,,,,,,,,,,,,,,,,,,,,
594366,001,2022-11-21_24h55.53.414,Info_measure_main_exp,2022.2.2,Win32,59.60896519,,,,,,,,,,,,,,,,,,masks/mask_004.jpg,,,,,,,,,,,,,,,,,,,,,,,,,,,,,,,,,,,,,,,,,,,0,0,0,3,1,,,,,,,,,,,,,,,,,,,,,,,,,,,,,,,,,,,,,,,,,,,,,,
594366,001,2022-11-21_24h55.53.414,Info_measure_main_exp,2022.2.2,Win32,59.60896519,,,,,,,,,,,,,,,,,,masks/mask_002.jpg,,,,,,,,,,,,,,,,,,,,,,,,,,,,,,,,,,,,,,,,,,,0,1,1,1,1,,,,,,,,,,,,,,,,,,,,,,,,,,,,,,,,,,,,,,,,,,,,,,
594366,001,2022-11-21_24h55.53.414,Info_measure_main_exp,2022.2.2,Win32,59.60896519,,,,,,,,,,,,,,,,,,masks/mask_005.jpg,,,,,,,,,,,,,,,,,,,,,,,,,,,,,,,,,,,,,,,,,,,0,2,2,4,1,,,,,,,,,,,,,,,,,,,,,,,,,,,,,,,,,,,,,,,,,,,,,,
594366,001,2022-11-21_24h55.53.414,Info_measure_main_exp,2022.2.2,Win32,59.60896519,,,,,,,,,,,,,,,,,,masks/mask_003.jpg,,,,,,,,,,,,,,,,,,,,,,,,,,,,,,,,,,,,,,,,,,,0,3,3,2,1,,,,,,,,,,,,,,,,,,,,,,,,,,,,,,,,,,,,,,,,,,,,,,
594366,001,2022-11-21_24h55.53.414,Info_measure_main_exp,2022.2.2,Win32,59.60896519,,,,,,,,,,,,,,,,,,masks/mask_001.jpg,,,,,,,,,,,,,,,,,,,,,,,,,,,,,,,,,,,,,,,,,,,0,4,4,0,1,,,,,,,,,,,,,,,,,,,,,,,,,,,,,,,,,,,,,,,,,,,,,,
594366,001,2022-11-21_24h55.53.414,Info_measure_main_exp,2022.2.2,Win32,59.60896519,,,,,,,,,,,,,,,,,,masks/mask_002.jpg,,,,,,,,,,,,,,,,,,,,,,,,,,,,,,,,,,,,,,,,,,,,,,,,0,0,0,1,1,,,,,,,,,,,,,,,,,,,,,,,,,,,,,,,,,,,,,,,,,
594366,001,2022-11-21_24h55.53.414,Info_measure_main_exp,2022.2.2,Win32,59.60896519,,,,,,,,,,,,,,,,,,masks/mask_001.jpg,,,,,,,,,,,,,,,,,,,,,,,,,,,,,,,,,,,,,,,,,,,,,,,,0,1,1,0,1,,,,,,,,,,,,,,,,,,,,,,,,,,,,,,,,,,,,,,,,,
594366,001,2022-11-21_24h55.53.414,Info_measure_main_exp,2022.2.2,Win32,59.60896519,,,,,,,,,,,,,,,,,,masks/mask_005.jpg,,,,,,,,,,,,,,,,,,,,,,,,,,,,,,,,,,,,,,,,,,,,,,,,0,2,2,4,1,,,,,,,,,,,,,,,,,,,,,,,,,,,,,,,,,,,,,,,,,
594366,001,2022-11-21_24h55.53.414,Info_measure_main_exp,2022.2.2,Win32,59.60896519,,,,,,,,,,,,,,,,,,masks/mask_004.jpg,,,,,,,,,,,,,,,,,,,,,,,,,,,,,,,,,,,,,,,,,,,,,,,,0,3,3,3,1,,,,,,,,,,,,,,,,,,,,,,,,,,,,,,,,,,,,,,,,,
594366,001,2022-11-21_24h55.53.414,Info_measure_main_exp,2022.2.2,Win32,59.60896519,,,,,,,,,,,,,,,,,,masks/mask_003.jpg,,,,,,,,,,,,,,,,,,,,,,,,,,,,,,,,,,,,,,,,,,,,,,,,0,4,4,2,1,,,,,,,,,,,,,,,,,,,,,,,,,,,,,,,,,,,,,,,,,
594366,001,2022-11-21_24h55.53.414,Info_measure_main_exp,2022.2.2,Win32,59.60896519,,,,,,,,,,,,,,,,,,,,,,,,,,,,,,7,1.6161,1,,,,,,,,,,,,0,131,5,5,1986,1986,absent_patch/patch0001986.jpg,absent_patch/patch0001986.jpg,,,,,,,,,,,,,,,,,,,,0.058333333,0.15370369,1,0,0,response1disk,1,0,0.012962935,1,0,0,center_square,0,0,0,19,1,,,,,,,,,,,,,,,,,,,,,,,
594366,001,2022-11-21_24h55.53.414,Info_measure_main_exp,2022.2.2,Win32,59.60896519,,,,,,,,,,,,,,,,,,masks/mask_001.jpg,,,,,,,,,,,,,,,,,,,,,,,,,,,,,,,,,,,,,,,,,,,0,0,0,0,1,,,,,,,,,,,,,,,,,,,,,,,,,,,,,,,,,,,,,,,,,,,,,,
594366,001,2022-11-21_24h55.53.414,Info_measure_main_exp,2022.2.2,Win32,59.60896519,,,,,,,,,,,,,,,,,,masks/mask_003.jpg,,,,,,,,,,,,,,,,,,,,,,,,,,,,,,,,,,,,,,,,,,,0,1,1,2,1,,,,,,,,,,,,,,,,,,,,,,,,,,,,,,,,,,,,,,,,,,,,,,
594366,001,2022-11-21_24h55.53.414,Info_measure_main_exp,2022.2.2,Win32,59.60896519,,,,,,,,,,,,,,,,,,masks/mask_005.jpg,,,,,,,,,,,,,,,,,,,,,,,,,,,,,,,,,,,,,,,,,,,0,2,2,4,1,,,,,,,,,,,,,,,,,,,,,,,,,,,,,,,,,,,,,,,,,,,,,,
594366,001,2022-11-21_24h55.53.414,Info_measure_main_exp,2022.2.2,Win32,59.60896519,,,,,,,,,,,,,,,,,,masks/mask_002.jpg,,,,,,,,,,,,,,,,,,,,,,,,,,,,,,,,,,,,,,,,,,,0,3,3,1,1,,,,,,,,,,,,,,,,,,,,,,,,,,,,,,,,,,,,,,,,,,,,,,
594366,001,2022-11-21_24h55.53.414,Info_measure_main_exp,2022.2.2,Win32,59.60896519,,,,,,,,,,,,,,,,,,masks/mask_004.jpg,,,,,,,,,,,,,,,,,,,,,,,,,,,,,,,,,,,,,,,,,,,0,4,4,3,1,,,,,,,,,,,,,,,,,,,,,,,,,,,,,,,,,,,,,,,,,,,,,,
594366,001,2022-11-21_24h55.53.414,Info_measure_main_exp,2022.2.2,Win32,59.60896519,,,,,,,,,,,,,,,,,,masks/mask_005.jpg,,,,,,,,,,,,,,,,,,,,,,,,,,,,,,,,,,,,,,,,,,,,,,,,0,0,0,4,1,,,,,,,,,,,,,,,,,,,,,,,,,,,,,,,,,,,,,,,,,
594366,001,2022-11-21_24h55.53.414,Info_measure_main_exp,2022.2.2,Win32,59.60896519,,,,,,,,,,,,,,,,,,masks/mask_004.jpg,,,,,,,,,,,,,,,,,,,,,,,,,,,,,,,,,,,,,,,,,,,,,,,,0,1,1,3,1,,,,,,,,,,,,,,,,,,,,,,,,,,,,,,,,,,,,,,,,,
594366,001,2022-11-21_24h55.53.414,Info_measure_main_exp,2022.2.2,Win32,59.60896519,,,,,,,,,,,,,,,,,,masks/mask_001.jpg,,,,,,,,,,,,,,,,,,,,,,,,,,,,,,,,,,,,,,,,,,,,,,,,0,2,2,0,1,,,,,,,,,,,,,,,,,,,,,,,,,,,,,,,,,,,,,,,,,
594366,001,2022-11-21_24h55.53.414,Info_measure_main_exp,2022.2.2,Win32,59.60896519,,,,,,,,,,,,,,,,,,masks/mask_002.jpg,,,,,,,,,,,,,,,,,,,,,,,,,,,,,,,,,,,,,,,,,,,,,,,,0,3,3,1,1,,,,,,,,,,,,,,,,,,,,,,,,,,,,,,,,,,,,,,,,,
594366,001,2022-11-21_24h55.53.414,Info_measure_main_exp,2022.2.2,Win32,59.60896519,,,,,,,,,,,,,,,,,,masks/mask_003.jpg,,,,,,,,,,,,,,,,,,,,,,,,,,,,,,,,,,,,,,,,,,,,,,,,0,4,4,2,1,,,,,,,,,,,,,,,,,,,,,,,,,,,,,,,,,,,,,,,,,
594366,001,2022-11-21_24h55.53.414,Info_measure_main_exp,2022.2.2,Win32,59.60896519,,,,,,,,,,,,,,,,,,,,,,,,,,,,,,0,4.2578,1,,,,,,,,,,,,0,131,5,5,2178,2178,absent_patch/patch0002178.jpg,absent_patch/patch0002178.jpg,,,,,,,,,,,,,,,,,,,,-0.050925869,0.134259245,1,0,0,response7disk,2,0.00648151,0.010185157,1,0,0,center_square,0,1,1,98,1,,,,,,,,,,,,,,,,,,,,,,,
594366,001,2022-11-21_24h55.53.414,Info_measure_main_exp,2022.2.2,Win32,59.60896519,,,,,,,,,,,,,,,,,,masks/mask_003.jpg,,,,,,,,,,,,,,,,,,,,,,,,,,,,,,,,,,,,,,,,,,,0,0,0,2,1,,,,,,,,,,,,,,,,,,,,,,,,,,,,,,,,,,,,,,,,,,,,,,
594366,001,2022-11-21_24h55.53.414,Info_measure_main_exp,2022.2.2,Win32,59.60896519,,,,,,,,,,,,,,,,,,masks/mask_005.jpg,,,,,,,,,,,,,,,,,,,,,,,,,,,,,,,,,,,,,,,,,,,0,1,1,4,1,,,,,,,,,,,,,,,,,,,,,,,,,,,,,,,,,,,,,,,,,,,,,,
594366,001,2022-11-21_24h55.53.414,Info_measure_main_exp,2022.2.2,Win32,59.60896519,,,,,,,,,,,,,,,,,,masks/mask_004.jpg,,,,,,,,,,,,,,,,,,,,,,,,,,,,,,,,,,,,,,,,,,,0,2,2,3,1,,,,,,,,,,,,,,,,,,,,,,,,,,,,,,,,,,,,,,,,,,,,,,
594366,001,2022-11-21_24h55.53.414,Info_measure_main_exp,2022.2.2,Win32,59.60896519,,,,,,,,,,,,,,,,,,masks/mask_001.jpg,,,,,,,,,,,,,,,,,,,,,,,,,,,,,,,,,,,,,,,,,,,0,3,3,0,1,,,,,,,,,,,,,,,,,,,,,,,,,,,,,,,,,,,,,,,,,,,,,,
594366,001,2022-11-21_24h55.53.414,Info_measure_main_exp,2022.2.2,Win32,59.60896519,,,,,,,,,,,,,,,,,,masks/mask_002.jpg,,,,,,,,,,,,,,,,,,,,,,,,,,,,,,,,,,,,,,,,,,,0,4,4,1,1,,,,,,,,,,,,,,,,,,,,,,,,,,,,,,,,,,,,,,,,,,,,,,
594366,001,2022-11-21_24h55.53.414,Info_measure_main_exp,2022.2.2,Win32,59.60896519,,,,,,,,,,,,,,,,,,masks/mask_002.jpg,,,,,,,,,,,,,,,,,,,,,,,,,,,,,,,,,,,,,,,,,,,,,,,,0,0,0,1,1,,,,,,,,,,,,,,,,,,,,,,,,,,,,,,,,,,,,,,,,,
594366,001,2022-11-21_24h55.53.414,Info_measure_main_exp,2022.2.2,Win32,59.60896519,,,,,,,,,,,,,,,,,,masks/mask_001.jpg,,,,,,,,,,,,,,,,,,,,,,,,,,,,,,,,,,,,,,,,,,,,,,,,0,1,1,0,1,,,,,,,,,,,,,,,,,,,,,,,,,,,,,,,,,,,,,,,,,
594366,001,2022-11-21_24h55.53.414,Info_measure_main_exp,2022.2.2,Win32,59.60896519,,,,,,,,,,,,,,,,,,masks/mask_005.jpg,,,,,,,,,,,,,,,,,,,,,,,,,,,,,,,,,,,,,,,,,,,,,,,,0,2,2,4,1,,,,,,,,,,,,,,,,,,,,,,,,,,,,,,,,,,,,,,,,,
594366,001,2022-11-21_24h55.53.414,Info_measure_main_exp,2022.2.2,Win32,59.60896519,,,,,,,,,,,,,,,,,,masks/mask_003.jpg,,,,,,,,,,,,,,,,,,,,,,,,,,,,,,,,,,,,,,,,,,,,,,,,0,3,3,2,1,,,,,,,,,,,,,,,,,,,,,,,,,,,,,,,,,,,,,,,,,
594366,001,2022-11-21_24h55.53.414,Info_measure_main_exp,2022.2.2,Win32,59.60896519,,,,,,,,,,,,,,,,,,masks/mask_004.jpg,,,,,,,,,,,,,,,,,,,,,,,,,,,,,,,,,,,,,,,,,,,,,,,,0,4,4,3,1,,,,,,,,,,,,,,,,,,,,,,,,,,,,,,,,,,,,,,,,,
594366,001,2022-11-21_24h55.53.414,Info_measure_main_exp,2022.2.2,Win32,59.60896519,,,,,,,,,,,,,,,,,,,,,,,,,,,,,,7,1.6995,1,,,,,,,,,,,,0,131,5,5,2250,1986,absent_patch/patch0002250.jpg,absent_patch/patch0001986.jpg,,,,,,,,,,,,,,,,,,,,0.040740797,0.109259245,1,0,0,response1disk,3,0.008333333,0.00370369,1,0,0,center_square,0,2,2,29,1,,,,,,,,,,,,,,,,,,,,,,,
594366,001,2022-11-21_24h55.53.414,Info_measure_main_exp,2022.2.2,Win32,59.60896519,,,,,,,,,,,,,,,,,,masks/mask_001.jpg,,,,,,,,,,,,,,,,,,,,,,,,,,,,,,,,,,,,,,,,,,,0,0,0,0,1,,,,,,,,,,,,,,,,,,,,,,,,,,,,,,,,,,,,,,,,,,,,,,
594366,001,2022-11-21_24h55.53.414,Info_measure_main_exp,2022.2.2,Win32,59.60896519,,,,,,,,,,,,,,,,,,masks/mask_004.jpg,,,,,,,,,,,,,,,,,,,,,,,,,,,,,,,,,,,,,,,,,,,0,1,1,3,1,,,,,,,,,,,,,,,,,,,,,,,,,,,,,,,,,,,,,,,,,,,,,,
594366,001,2022-11-21_24h55.53.414,Info_measure_main_exp,2022.2.2,Win32,59.60896519,,,,,,,,,,,,,,,,,,masks/mask_002.jpg,,,,,,,,,,,,,,,,,,,,,,,,,,,,,,,,,,,,,,,,,,,0,2,2,1,1,,,,,,,,,,,,,,,,,,,,,,,,,,,,,,,,,,,,,,,,,,,,,,
594366,001,2022-11-21_24h55.53.414,Info_measure_main_exp,2022.2.2,Win32,59.60896519,,,,,,,,,,,,,,,,,,masks/mask_005.jpg,,,,,,,,,,,,,,,,,,,,,,,,,,,,,,,,,,,,,,,,,,,0,3,3,4,1,,,,,,,,,,,,,,,,,,,,,,,,,,,,,,,,,,,,,,,,,,,,,,
594366,001,2022-11-21_24h55.53.414,Info_measure_main_exp,2022.2.2,Win32,59.60896519,,,,,,,,,,,,,,,,,,masks/mask_003.jpg,,,,,,,,,,,,,,,,,,,,,,,,,,,,,,,,,,,,,,,,,,,0,4,4,2,1,,,,,,,,,,,,,,,,,,,,,,,,,,,,,,,,,,,,,,,,,,,,,,
594366,001,2022-11-21_24h55.53.414,Info_measure_main_exp,2022.2.2,Win32,59.60896519,,,,,,,,,,,,,,,,,,masks/mask_001.jpg,,,,,,,,,,,,,,,,,,,,,,,,,,,,,,,,,,,,,,,,,,,,,,,,0,0,0,0,1,,,,,,,,,,,,,,,,,,,,,,,,,,,,,,,,,,,,,,,,,
594366,001,2022-11-21_24h55.53.414,Info_measure_main_exp,2022.2.2,Win32,59.60896519,,,,,,,,,,,,,,,,,,masks/mask_002.jpg,,,,,,,,,,,,,,,,,,,,,,,,,,,,,,,,,,,,,,,,,,,,,,,,0,1,1,1,1,,,,,,,,,,,,,,,,,,,,,,,,,,,,,,,,,,,,,,,,,
594366,001,2022-11-21_24h55.53.414,Info_measure_main_exp,2022.2.2,Win32,59.60896519,,,,,,,,,,,,,,,,,,masks/mask_004.jpg,,,,,,,,,,,,,,,,,,,,,,,,,,,,,,,,,,,,,,,,,,,,,,,,0,2,2,3,1,,,,,,,,,,,,,,,,,,,,,,,,,,,,,,,,,,,,,,,,,
594366,001,2022-11-21_24h55.53.414,Info_measure_main_exp,2022.2.2,Win32,59.60896519,,,,,,,,,,,,,,,,,,masks/mask_003.jpg,,,,,,,,,,,,,,,,,,,,,,,,,,,,,,,,,,,,,,,,,,,,,,,,0,3,3,2,1,,,,,,,,,,,,,,,,,,,,,,,,,,,,,,,,,,,,,,,,,
594366,001,2022-11-21_24h55.53.414,Info_measure_main_exp,2022.2.2,Win32,59.60896519,,,,,,,,,,,,,,,,,,masks/mask_005.jpg,,,,,,,,,,,,,,,,,,,,,,,,,,,,,,,,,,,,,,,,,,,,,,,,0,4,4,4,1,,,,,,,,,,,,,,,,,,,,,,,,,,,,,,,,,,,,,,,,,
594366,001,2022-11-21_24h55.53.414,Info_measure_main_exp,2022.2.2,Win32,59.60896519,,,,,,,,,,,,,,,,,,,,,,,,,,,,,,7,1.8665,1,,,,,,,,,,,,0,131,5,5,1950,2214,absent_patch/patch0001950.jpg,absent_patch/patch0002214.jpg,,,,,,,,,,,,,,,,,,,,0.070370399,0.137962935,1,0,0,response1disk,4,0.003703732,0.002777778,1,0,0,center_square,0,3,3,85,1,,,,,,,,,,,,,,,,,,,,,,,
594366,001,2022-11-21_24h55.53.414,Info_measure_main_exp,2022.2.2,Win32,59.60896519,,,,,,,,,,,,,,,,,,masks/mask_004.jpg,,,,,,,,,,,,,,,,,,,,,,,,,,,,,,,,,,,,,,,,,,,0,0,0,3,1,,,,,,,,,,,,,,,,,,,,,,,,,,,,,,,,,,,,,,,,,,,,,,
594366,001,2022-11-21_24h55.53.414,Info_measure_main_exp,2022.2.2,Win32,59.60896519,,,,,,,,,,,,,,,,,,masks/mask_005.jpg,,,,,,,,,,,,,,,,,,,,,,,,,,,,,,,,,,,,,,,,,,,0,1,1,4,1,,,,,,,,,,,,,,,,,,,,,,,,,,,,,,,,,,,,,,,,,,,,,,
594366,001,2022-11-21_24h55.53.414,Info_measure_main_exp,2022.2.2,Win32,59.60896519,,,,,,,,,,,,,,,,,,masks/mask_001.jpg,,,,,,,,,,,,,,,,,,,,,,,,,,,,,,,,,,,,,,,,,,,0,2,2,0,1,,,,,,,,,,,,,,,,,,,,,,,,,,,,,,,,,,,,,,,,,,,,,,
594366,001,2022-11-21_24h55.53.414,Info_measure_main_exp,2022.2.2,Win32,59.60896519,,,,,,,,,,,,,,,,,,masks/mask_002.jpg,,,,,,,,,,,,,,,,,,,,,,,,,,,,,,,,,,,,,,,,,,,0,3,3,1,1,,,,,,,,,,,,,,,,,,,,,,,,,,,,,,,,,,,,,,,,,,,,,,
594366,001,2022-11-21_24h55.53.414,Info_measure_main_exp,2022.2.2,Win32,59.60896519,,,,,,,,,,,,,,,,,,masks/mask_003.jpg,,,,,,,,,,,,,,,,,,,,,,,,,,,,,,,,,,,,,,,,,,,0,4,4,2,1,,,,,,,,,,,,,,,,,,,,,,,,,,,,,,,,,,,,,,,,,,,,,,
594366,001,2022-11-21_24h55.53.414,Info_measure_main_exp,2022.2.2,Win32,59.60896519,,,,,,,,,,,,,,,,,,masks/mask_004.jpg,,,,,,,,,,,,,,,,,,,,,,,,,,,,,,,,,,,,,,,,,,,,,,,,0,0,0,3,1,,,,,,,,,,,,,,,,,,,,,,,,,,,,,,,,,,,,,,,,,
594366,001,2022-11-21_24h55.53.414,Info_measure_main_exp,2022.2.2,Win32,59.60896519,,,,,,,,,,,,,,,,,,masks/mask_002.jpg,,,,,,,,,,,,,,,,,,,,,,,,,,,,,,,,,,,,,,,,,,,,,,,,0,1,1,1,1,,,,,,,,,,,,,,,,,,,,,,,,,,,,,,,,,,,,,,,,,
594366,001,2022-11-21_24h55.53.414,Info_measure_main_exp,2022.2.2,Win32,59.60896519,,,,,,,,,,,,,,,,,,masks/mask_003.jpg,,,,,,,,,,,,,,,,,,,,,,,,,,,,,,,,,,,,,,,,,,,,,,,,0,2,2,2,1,,,,,,,,,,,,,,,,,,,,,,,,,,,,,,,,,,,,,,,,,
594366,001,2022-11-21_24h55.53.414,Info_measure_main_exp,2022.2.2,Win32,59.60896519,,,,,,,,,,,,,,,,,,masks/mask_005.jpg,,,,,,,,,,,,,,,,,,,,,,,,,,,,,,,,,,,,,,,,,,,,,,,,0,3,3,4,1,,,,,,,,,,,,,,,,,,,,,,,,,,,,,,,,,,,,,,,,,
594366,001,2022-11-21_24h55.53.414,Info_measure_main_exp,2022.2.2,Win32,59.60896519,,,,,,,,,,,,,,,,,,masks/mask_001.jpg,,,,,,,,,,,,,,,,,,,,,,,,,,,,,,,,,,,,,,,,,,,,,,,,0,4,4,0,1,,,,,,,,,,,,,,,,,,,,,,,,,,,,,,,,,,,,,,,,,
594366,001,2022-11-21_24h55.53.414,Info_measure_main_exp,2022.2.2,Win32,59.60896519,,,,,,,,,,,,,,,,,,,,,,,,,,,,,,4,2.5487,1,,,,,,,,,,,,0,131,5,5,2154,2238,absent_patch/patch0002154.jpg,absent_patch/patch0002238.jpg,,,,,,,,,,,,,,,,,,,,0.010185242,-0.160185199,1,0,0,response3disk,5,-0.004629601,0.000925912,1,0,0,center_square,0,4,4,21,1,,,,,,,,,,,,,,,,,,,,,,,
594366,001,2022-11-21_24h55.53.414,Info_measure_main_exp,2022.2.2,Win32,59.60896519,,,,,,,,,,,,,,,,,,masks/mask_004.jpg,,,,,,,,,,,,,,,,,,,,,,,,,,,,,,,,,,,,,,,,,,,0,0,0,3,1,,,,,,,,,,,,,,,,,,,,,,,,,,,,,,,,,,,,,,,,,,,,,,
594366,001,2022-11-21_24h55.53.414,Info_measure_main_exp,2022.2.2,Win32,59.60896519,,,,,,,,,,,,,,,,,,masks/mask_005.jpg,,,,,,,,,,,,,,,,,,,,,,,,,,,,,,,,,,,,,,,,,,,0,1,1,4,1,,,,,,,,,,,,,,,,,,,,,,,,,,,,,,,,,,,,,,,,,,,,,,
594366,001,2022-11-21_24h55.53.414,Info_measure_main_exp,2022.2.2,Win32,59.60896519,,,,,,,,,,,,,,,,,,masks/mask_003.jpg,,,,,,,,,,,,,,,,,,,,,,,,,,,,,,,,,,,,,,,,,,,0,2,2,2,1,,,,,,,,,,,,,,,,,,,,,,,,,,,,,,,,,,,,,,,,,,,,,,
594366,001,2022-11-21_24h55.53.414,Info_measure_main_exp,2022.2.2,Win32,59.60896519,,,,,,,,,,,,,,,,,,masks/mask_001.jpg,,,,,,,,,,,,,,,,,,,,,,,,,,,,,,,,,,,,,,,,,,,0,3,3,0,1,,,,,,,,,,,,,,,,,,,,,,,,,,,,,,,,,,,,,,,,,,,,,,
594366,001,2022-11-21_24h55.53.414,Info_measure_main_exp,2022.2.2,Win32,59.60896519,,,,,,,,,,,,,,,,,,masks/mask_002.jpg,,,,,,,,,,,,,,,,,,,,,,,,,,,,,,,,,,,,,,,,,,,0,4,4,1,1,,,,,,,,,,,,,,,,,,,,,,,,,,,,,,,,,,,,,,,,,,,,,,
594366,001,2022-11-21_24h55.53.414,Info_measure_main_exp,2022.2.2,Win32,59.60896519,,,,,,,,,,,,,,,,,,masks/mask_001.jpg,,,,,,,,,,,,,,,,,,,,,,,,,,,,,,,,,,,,,,,,,,,,,,,,0,0,0,0,1,,,,,,,,,,,,,,,,,,,,,,,,,,,,,,,,,,,,,,,,,
594366,001,2022-11-21_24h55.53.414,Info_measure_main_exp,2022.2.2,Win32,59.60896519,,,,,,,,,,,,,,,,,,masks/mask_003.jpg,,,,,,,,,,,,,,,,,,,,,,,,,,,,,,,,,,,,,,,,,,,,,,,,0,1,1,2,1,,,,,,,,,,,,,,,,,,,,,,,,,,,,,,,,,,,,,,,,,
594366,001,2022-11-21_24h55.53.414,Info_measure_main_exp,2022.2.2,Win32,59.60896519,,,,,,,,,,,,,,,,,,masks/mask_005.jpg,,,,,,,,,,,,,,,,,,,,,,,,,,,,,,,,,,,,,,,,,,,,,,,,0,2,2,4,1,,,,,,,,,,,,,,,,,,,,,,,,,,,,,,,,,,,,,,,,,
594366,001,2022-11-21_24h55.53.414,Info_measure_main_exp,2022.2.2,Win32,59.60896519,,,,,,,,,,,,,,,,,,masks/mask_004.jpg,,,,,,,,,,,,,,,,,,,,,,,,,,,,,,,,,,,,,,,,,,,,,,,,0,3,3,3,1,,,,,,,,,,,,,,,,,,,,,,,,,,,,,,,,,,,,,,,,,
594366,001,2022-11-21_24h55.53.414,Info_measure_main_exp,2022.2.2,Win32,59.60896519,,,,,,,,,,,,,,,,,,masks/mask_002.jpg,,,,,,,,,,,,,,,,,,,,,,,,,,,,,,,,,,,,,,,,,,,,,,,,0,4,4,1,1,,,,,,,,,,,,,,,,,,,,,,,,,,,,,,,,,,,,,,,,,
594366,001,2022-11-21_24h55.53.414,Info_measure_main_exp,2022.2.2,Win32,59.60896519,,,,,,,,,,,,,,,,,,,,,,,,,,,,,,5,2.7979,1,,,,,,,,,,,,0,131,5,5,2298,2190,absent_patch/patch0002298.jpg,absent_patch/patch0002190.jpg,,,,,,,,,,,,,,,,,,,,0.160185242,-0.041666667,1,0,0,response3disk,6,0.00648151,0.009259245,1,0,0,center_square,0,5,5,20,1,,,,,,,,,,,,,,,,,,,,,,,
594366,001,2022-11-21_24h55.53.414,Info_measure_main_exp,2022.2.2,Win32,59.60896519,,,,,,,,,,,,,,,,,,masks/mask_001.jpg,,,,,,,,,,,,,,,,,,,,,,,,,,,,,,,,,,,,,,,,,,,0,0,0,0,1,,,,,,,,,,,,,,,,,,,,,,,,,,,,,,,,,,,,,,,,,,,,,,
594366,001,2022-11-21_24h55.53.414,Info_measure_main_exp,2022.2.2,Win32,59.60896519,,,,,,,,,,,,,,,,,,masks/mask_003.jpg,,,,,,,,,,,,,,,,,,,,,,,,,,,,,,,,,,,,,,,,,,,0,1,1,2,1,,,,,,,,,,,,,,,,,,,,,,,,,,,,,,,,,,,,,,,,,,,,,,
594366,001,2022-11-21_24h55.53.414,Info_measure_main_exp,2022.2.2,Win32,59.60896519,,,,,,,,,,,,,,,,,,masks/mask_004.jpg,,,,,,,,,,,,,,,,,,,,,,,,,,,,,,,,,,,,,,,,,,,0,2,2,3,1,,,,,,,,,,,,,,,,,,,,,,,,,,,,,,,,,,,,,,,,,,,,,,
594366,001,2022-11-21_24h55.53.414,Info_measure_main_exp,2022.2.2,Win32,59.60896519,,,,,,,,,,,,,,,,,,masks/mask_002.jpg,,,,,,,,,,,,,,,,,,,,,,,,,,,,,,,,,,,,,,,,,,,0,3,3,1,1,,,,,,,,,,,,,,,,,,,,,,,,,,,,,,,,,,,,,,,,,,,,,,
594366,001,2022-11-21_24h55.53.414,Info_measure_main_exp,2022.2.2,Win32,59.60896519,,,,,,,,,,,,,,,,,,masks/mask_005.jpg,,,,,,,,,,,,,,,,,,,,,,,,,,,,,,,,,,,,,,,,,,,0,4,4,4,1,,,,,,,,,,,,,,,,,,,,,,,,,,,,,,,,,,,,,,,,,,,,,,
594366,001,2022-11-21_24h55.53.414,Info_measure_main_exp,2022.2.2,Win32,59.60896519,,,,,,,,,,,,,,,,,,masks/mask_005.jpg,,,,,,,,,,,,,,,,,,,,,,,,,,,,,,,,,,,,,,,,,,,,,,,,0,0,0,4,1,,,,,,,,,,,,,,,,,,,,,,,,,,,,,,,,,,,,,,,,,
594366,001,2022-11-21_24h55.53.414,Info_measure_main_exp,2022.2.2,Win32,59.60896519,,,,,,,,,,,,,,,,,,masks/mask_003.jpg,,,,,,,,,,,,,,,,,,,,,,,,,,,,,,,,,,,,,,,,,,,,,,,,0,1,1,2,1,,,,,,,,,,,,,,,,,,,,,,,,,,,,,,,,,,,,,,,,,
594366,001,2022-11-21_24h55.53.414,Info_measure_main_exp,2022.2.2,Win32,59.60896519,,,,,,,,,,,,,,,,,,masks/mask_001.jpg,,,,,,,,,,,,,,,,,,,,,,,,,,,,,,,,,,,,,,,,,,,,,,,,0,2,2,0,1,,,,,,,,,,,,,,,,,,,,,,,,,,,,,,,,,,,,,,,,,
594366,001,2022-11-21_24h55.53.414,Info_measure_main_exp,2022.2.2,Win32,59.60896519,,,,,,,,,,,,,,,,,,masks/mask_002.jpg,,,,,,,,,,,,,,,,,,,,,,,,,,,,,,,,,,,,,,,,,,,,,,,,0,3,3,1,1,,,,,,,,,,,,,,,,,,,,,,,,,,,,,,,,,,,,,,,,,
594366,001,2022-11-21_24h55.53.414,Info_measure_main_exp,2022.2.2,Win32,59.60896519,,,,,,,,,,,,,,,,,,masks/mask_004.jpg,,,,,,,,,,,,,,,,,,,,,,,,,,,,,,,,,,,,,,,,,,,,,,,,0,4,4,3,1,,,,,,,,,,,,,,,,,,,,,,,,,,,,,,,,,,,,,,,,,
594366,001,2022-11-21_24h55.53.414,Info_measure_main_exp,2022.2.2,Win32,59.60896519,,,,,,,,,,,,,,,,,,,,,,,,,,,,,,7,1.849,1,,,,,,,,,,,,0,131,5,5,2274,2190,absent_patch/patch0002274.jpg,absent_patch/patch0002190.jpg,,,,,,,,,,,,,,,,,,,,0.078703732,0.187037023,1,0,0,response1disk,7,0.012963019,0.001851824,1,0,0,center_square,0,6,6,116,1,,,,,,,,,,,,,,,,,,,,,,,
594366,001,2022-11-21_24h55.53.414,Info_measure_main_exp,2022.2.2,Win32,59.60896519,,,,,,,,,,,,,,,,,,masks/mask_001.jpg,,,,,,,,,,,,,,,,,,,,,,,,,,,,,,,,,,,,,,,,,,,0,0,0,0,1,,,,,,,,,,,,,,,,,,,,,,,,,,,,,,,,,,,,,,,,,,,,,,
594366,001,2022-11-21_24h55.53.414,Info_measure_main_exp,2022.2.2,Win32,59.60896519,,,,,,,,,,,,,,,,,,masks/mask_005.jpg,,,,,,,,,,,,,,,,,,,,,,,,,,,,,,,,,,,,,,,,,,,0,1,1,4,1,,,,,,,,,,,,,,,,,,,,,,,,,,,,,,,,,,,,,,,,,,,,,,
594366,001,2022-11-21_24h55.53.414,Info_measure_main_exp,2022.2.2,Win32,59.60896519,,,,,,,,,,,,,,,,,,masks/mask_002.jpg,,,,,,,,,,,,,,,,,,,,,,,,,,,,,,,,,,,,,,,,,,,0,2,2,1,1,,,,,,,,,,,,,,,,,,,,,,,,,,,,,,,,,,,,,,,,,,,,,,
594366,001,2022-11-21_24h55.53.414,Info_measure_main_exp,2022.2.2,Win32,59.60896519,,,,,,,,,,,,,,,,,,masks/mask_004.jpg,,,,,,,,,,,,,,,,,,,,,,,,,,,,,,,,,,,,,,,,,,,0,3,3,3,1,,,,,,,,,,,,,,,,,,,,,,,,,,,,,,,,,,,,,,,,,,,,,,
594366,001,2022-11-21_24h55.53.414,Info_measure_main_exp,2022.2.2,Win32,59.60896519,,,,,,,,,,,,,,,,,,masks/mask_003.jpg,,,,,,,,,,,,,,,,,,,,,,,,,,,,,,,,,,,,,,,,,,,0,4,4,2,1,,,,,,,,,,,,,,,,,,,,,,,,,,,,,,,,,,,,,,,,,,,,,,
594366,001,2022-11-21_24h55.53.414,Info_measure_main_exp,2022.2.2,Win32,59.60896519,,,,,,,,,,,,,,,,,,masks/mask_004.jpg,,,,,,,,,,,,,,,,,,,,,,,,,,,,,,,,,,,,,,,,,,,,,,,,0,0,0,3,1,,,,,,,,,,,,,,,,,,,,,,,,,,,,,,,,,,,,,,,,,
594366,001,2022-11-21_24h55.53.414,Info_measure_main_exp,2022.2.2,Win32,59.60896519,,,,,,,,,,,,,,,,,,masks/mask_003.jpg,,,,,,,,,,,,,,,,,,,,,,,,,,,,,,,,,,,,,,,,,,,,,,,,0,1,1,2,1,,,,,,,,,,,,,,,,,,,,,,,,,,,,,,,,,,,,,,,,,
594366,001,2022-11-21_24h55.53.414,Info_measure_main_exp,2022.2.2,Win32,59.60896519,,,,,,,,,,,,,,,,,,masks/mask_005.jpg,,,,,,,,,,,,,,,,,,,,,,,,,,,,,,,,,,,,,,,,,,,,,,,,0,2,2,4,1,,,,,,,,,,,,,,,,,,,,,,,,,,,,,,,,,,,,,,,,,
594366,001,2022-11-21_24h55.53.414,Info_measure_main_exp,2022.2.2,Win32,59.60896519,,,,,,,,,,,,,,,,,,masks/mask_001.jpg,,,,,,,,,,,,,,,,,,,,,,,,,,,,,,,,,,,,,,,,,,,,,,,,0,3,3,0,1,,,,,,,,,,,,,,,,,,,,,,,,,,,,,,,,,,,,,,,,,
594366,001,2022-11-21_24h55.53.414,Info_measure_main_exp,2022.2.2,Win32,59.60896519,,,,,,,,,,,,,,,,,,masks/mask_002.jpg,,,,,,,,,,,,,,,,,,,,,,,,,,,,,,,,,,,,,,,,,,,,,,,,0,4,4,1,1,,,,,,,,,,,,,,,,,,,,,,,,,,,,,,,,,,,,,,,,,
594366,001,2022-11-21_24h55.53.414,Info_measure_main_exp,2022.2.2,Win32,59.60896519,,,,,,,,,,,,,,,,,,,,,,,,,,,,,,6,2.4162,1,,,,,,,,,,,,0,131,5,5,2274,2178,absent_patch/patch0002274.jpg,absent_patch/patch0002178.jpg,,,,,,,,,,,,,,,,,,,,0.191666667,0.05,1,0,0,response1disk,8,0.003703732,0.006481467,1,0,0,center_square,0,7,7,117,1,,,,,,,,,,,,,,,,,,,,,,,
594366,001,2022-11-21_24h55.53.414,Info_measure_main_exp,2022.2.2,Win32,59.60896519,,,,,,,,,,,,,,,,,,masks/mask_002.jpg,,,,,,,,,,,,,,,,,,,,,,,,,,,,,,,,,,,,,,,,,,,0,0,0,1,1,,,,,,,,,,,,,,,,,,,,,,,,,,,,,,,,,,,,,,,,,,,,,,
594366,001,2022-11-21_24h55.53.414,Info_measure_main_exp,2022.2.2,Win32,59.60896519,,,,,,,,,,,,,,,,,,masks/mask_005.jpg,,,,,,,,,,,,,,,,,,,,,,,,,,,,,,,,,,,,,,,,,,,0,1,1,4,1,,,,,,,,,,,,,,,,,,,,,,,,,,,,,,,,,,,,,,,,,,,,,,
594366,001,2022-11-21_24h55.53.414,Info_measure_main_exp,2022.2.2,Win32,59.60896519,,,,,,,,,,,,,,,,,,masks/mask_001.jpg,,,,,,,,,,,,,,,,,,,,,,,,,,,,,,,,,,,,,,,,,,,0,2,2,0,1,,,,,,,,,,,,,,,,,,,,,,,,,,,,,,,,,,,,,,,,,,,,,,
594366,001,2022-11-21_24h55.53.414,Info_measure_main_exp,2022.2.2,Win32,59.60896519,,,,,,,,,,,,,,,,,,masks/mask_004.jpg,,,,,,,,,,,,,,,,,,,,,,,,,,,,,,,,,,,,,,,,,,,0,3,3,3,1,,,,,,,,,,,,,,,,,,,,,,,,,,,,,,,,,,,,,,,,,,,,,,
594366,001,2022-11-21_24h55.53.414,Info_measure_main_exp,2022.2.2,Win32,59.60896519,,,,,,,,,,,,,,,,,,masks/mask_003.jpg,,,,,,,,,,,,,,,,,,,,,,,,,,,,,,,,,,,,,,,,,,,0,4,4,2,1,,,,,,,,,,,,,,,,,,,,,,,,,,,,,,,,,,,,,,,,,,,,,,
594366,001,2022-11-21_24h55.53.414,Info_measure_main_exp,2022.2.2,Win32,59.60896519,,,,,,,,,,,,,,,,,,masks/mask_003.jpg,,,,,,,,,,,,,,,,,,,,,,,,,,,,,,,,,,,,,,,,,,,,,,,,0,0,0,2,1,,,,,,,,,,,,,,,,,,,,,,,,,,,,,,,,,,,,,,,,,
594366,001,2022-11-21_24h55.53.414,Info_measure_main_exp,2022.2.2,Win32,59.60896519,,,,,,,,,,,,,,,,,,masks/mask_004.jpg,,,,,,,,,,,,,,,,,,,,,,,,,,,,,,,,,,,,,,,,,,,,,,,,0,1,1,3,1,,,,,,,,,,,,,,,,,,,,,,,,,,,,,,,,,,,,,,,,,
594366,001,2022-11-21_24h55.53.414,Info_measure_main_exp,2022.2.2,Win32,59.60896519,,,,,,,,,,,,,,,,,,masks/mask_005.jpg,,,,,,,,,,,,,,,,,,,,,,,,,,,,,,,,,,,,,,,,,,,,,,,,0,2,2,4,1,,,,,,,,,,,,,,,,,,,,,,,,,,,,,,,,,,,,,,,,,
594366,001,2022-11-21_24h55.53.414,Info_measure_main_exp,2022.2.2,Win32,59.60896519,,,,,,,,,,,,,,,,,,masks/mask_001.jpg,,,,,,,,,,,,,,,,,,,,,,,,,,,,,,,,,,,,,,,,,,,,,,,,0,3,3,0,1,,,,,,,,,,,,,,,,,,,,,,,,,,,,,,,,,,,,,,,,,
594366,001,2022-11-21_24h55.53.414,Info_measure_main_exp,2022.2.2,Win32,59.60896519,,,,,,,,,,,,,,,,,,masks/mask_002.jpg,,,,,,,,,,,,,,,,,,,,,,,,,,,,,,,,,,,,,,,,,,,,,,,,0,4,4,1,1,,,,,,,,,,,,,,,,,,,,,,,,,,,,,,,,,,,,,,,,,
594366,001,2022-11-21_24h55.53.414,Info_measure_main_exp,2022.2.2,Win32,59.60896519,,,,,,,,,,,,,,,,,,,,,,,,,,,,,,4,1.2994,1,,,,,,,,,,,,0,131,5,5,2082,2166,absent_patch/patch0002082.jpg,absent_patch/patch0002166.jpg,,,,,,,,,,,,,,,,,,,,0.061111111,-0.091666667,1,0,0,response3disk,9,0.001851908,-0.010185199,1,0,0,center_square,0,8,8,43,1,,,,,,,,,,,,,,,,,,,,,,,
594366,001,2022-11-21_24h55.53.414,Info_measure_main_exp,2022.2.2,Win32,59.60896519,,,,,,,,,,,,,,,,,,masks/mask_003.jpg,,,,,,,,,,,,,,,,,,,,,,,,,,,,,,,,,,,,,,,,,,,0,0,0,2,1,,,,,,,,,,,,,,,,,,,,,,,,,,,,,,,,,,,,,,,,,,,,,,
594366,001,2022-11-21_24h55.53.414,Info_measure_main_exp,2022.2.2,Win32,59.60896519,,,,,,,,,,,,,,,,,,masks/mask_005.jpg,,,,,,,,,,,,,,,,,,,,,,,,,,,,,,,,,,,,,,,,,,,0,1,1,4,1,,,,,,,,,,,,,,,,,,,,,,,,,,,,,,,,,,,,,,,,,,,,,,
594366,001,2022-11-21_24h55.53.414,Info_measure_main_exp,2022.2.2,Win32,59.60896519,,,,,,,,,,,,,,,,,,masks/mask_004.jpg,,,,,,,,,,,,,,,,,,,,,,,,,,,,,,,,,,,,,,,,,,,0,2,2,3,1,,,,,,,,,,,,,,,,,,,,,,,,,,,,,,,,,,,,,,,,,,,,,,
594366,001,2022-11-21_24h55.53.414,Info_measure_main_exp,2022.2.2,Win32,59.60896519,,,,,,,,,,,,,,,,,,masks/mask_001.jpg,,,,,,,,,,,,,,,,,,,,,,,,,,,,,,,,,,,,,,,,,,,0,3,3,0,1,,,,,,,,,,,,,,,,,,,,,,,,,,,,,,,,,,,,,,,,,,,,,,
594366,001,2022-11-21_24h55.53.414,Info_measure_main_exp,2022.2.2,Win32,59.60896519,,,,,,,,,,,,,,,,,,masks/mask_002.jpg,,,,,,,,,,,,,,,,,,,,,,,,,,,,,,,,,,,,,,,,,,,0,4,4,1,1,,,,,,,,,,,,,,,,,,,,,,,,,,,,,,,,,,,,,,,,,,,,,,
594366,001,2022-11-21_24h55.53.414,Info_measure_main_exp,2022.2.2,Win32,59.60896519,,,,,,,,,,,,,,,,,,masks/mask_002.jpg,,,,,,,,,,,,,,,,,,,,,,,,,,,,,,,,,,,,,,,,,,,,,,,,0,0,0,1,1,,,,,,,,,,,,,,,,,,,,,,,,,,,,,,,,,,,,,,,,,
594366,001,2022-11-21_24h55.53.414,Info_measure_main_exp,2022.2.2,Win32,59.60896519,,,,,,,,,,,,,,,,,,masks/mask_003.jpg,,,,,,,,,,,,,,,,,,,,,,,,,,,,,,,,,,,,,,,,,,,,,,,,0,1,1,2,1,,,,,,,,,,,,,,,,,,,,,,,,,,,,,,,,,,,,,,,,,
594366,001,2022-11-21_24h55.53.414,Info_measure_main_exp,2022.2.2,Win32,59.60896519,,,,,,,,,,,,,,,,,,masks/mask_001.jpg,,,,,,,,,,,,,,,,,,,,,,,,,,,,,,,,,,,,,,,,,,,,,,,,0,2,2,0,1,,,,,,,,,,,,,,,,,,,,,,,,,,,,,,,,,,,,,,,,,
594366,001,2022-11-21_24h55.53.414,Info_measure_main_exp,2022.2.2,Win32,59.60896519,,,,,,,,,,,,,,,,,,masks/mask_004.jpg,,,,,,,,,,,,,,,,,,,,,,,,,,,,,,,,,,,,,,,,,,,,,,,,0,3,3,3,1,,,,,,,,,,,,,,,,,,,,,,,,,,,,,,,,,,,,,,,,,
594366,001,2022-11-21_24h55.53.414,Info_measure_main_exp,2022.2.2,Win32,59.60896519,,,,,,,,,,,,,,,,,,masks/mask_005.jpg,,,,,,,,,,,,,,,,,,,,,,,,,,,,,,,,,,,,,,,,,,,,,,,,0,4,4,4,1,,,,,,,,,,,,,,,,,,,,,,,,,,,,,,,,,,,,,,,,,
594366,001,2022-11-21_24h55.53.414,Info_measure_main_exp,2022.2.2,Win32,59.60896519,,,,,,,,,,,,,,,,,,,,,,,,,,,,,,7,1.7558,1,,,,,,,,,,,,0,131,5,5,2274,2250,absent_patch/patch0002274.jpg,absent_patch/patch0002250.jpg,,,,,,,,,,,,,,,,,,,,0.064814843,0.164814801,1,0,0,response1disk,10,0.011111111,0.015740712,1,0,0,center_square,0,9,9,28,1,,,,,,,,,,,,,,,,,,,,,,,
594366,001,2022-11-21_24h55.53.414,Info_measure_main_exp,2022.2.2,Win32,59.60896519,,,,,,,,,,,,,,,,,,masks/mask_001.jpg,,,,,,,,,,,,,,,,,,,,,,,,,,,,,,,,,,,,,,,,,,,0,0,0,0,1,,,,,,,,,,,,,,,,,,,,,,,,,,,,,,,,,,,,,,,,,,,,,,
594366,001,2022-11-21_24h55.53.414,Info_measure_main_exp,2022.2.2,Win32,59.60896519,,,,,,,,,,,,,,,,,,masks/mask_005.jpg,,,,,,,,,,,,,,,,,,,,,,,,,,,,,,,,,,,,,,,,,,,0,1,1,4,1,,,,,,,,,,,,,,,,,,,,,,,,,,,,,,,,,,,,,,,,,,,,,,
594366,001,2022-11-21_24h55.53.414,Info_measure_main_exp,2022.2.2,Win32,59.60896519,,,,,,,,,,,,,,,,,,masks/mask_004.jpg,,,,,,,,,,,,,,,,,,,,,,,,,,,,,,,,,,,,,,,,,,,0,2,2,3,1,,,,,,,,,,,,,,,,,,,,,,,,,,,,,,,,,,,,,,,,,,,,,,
594366,001,2022-11-21_24h55.53.414,Info_measure_main_exp,2022.2.2,Win32,59.60896519,,,,,,,,,,,,,,,,,,masks/mask_003.jpg,,,,,,,,,,,,,,,,,,,,,,,,,,,,,,,,,,,,,,,,,,,0,3,3,2,1,,,,,,,,,,,,,,,,,,,,,,,,,,,,,,,,,,,,,,,,,,,,,,
594366,001,2022-11-21_24h55.53.414,Info_measure_main_exp,2022.2.2,Win32,59.60896519,,,,,,,,,,,,,,,,,,masks/mask_002.jpg,,,,,,,,,,,,,,,,,,,,,,,,,,,,,,,,,,,,,,,,,,,0,4,4,1,1,,,,,,,,,,,,,,,,,,,,,,,,,,,,,,,,,,,,,,,,,,,,,,
594366,001,2022-11-21_24h55.53.414,Info_measure_main_exp,2022.2.2,Win32,59.60896519,,,,,,,,,,,,,,,,,,masks/mask_001.jpg,,,,,,,,,,,,,,,,,,,,,,,,,,,,,,,,,,,,,,,,,,,,,,,,0,0,0,0,1,,,,,,,,,,,,,,,,,,,,,,,,,,,,,,,,,,,,,,,,,
594366,001,2022-11-21_24h55.53.414,Info_measure_main_exp,2022.2.2,Win32,59.60896519,,,,,,,,,,,,,,,,,,masks/mask_005.jpg,,,,,,,,,,,,,,,,,,,,,,,,,,,,,,,,,,,,,,,,,,,,,,,,0,1,1,4,1,,,,,,,,,,,,,,,,,,,,,,,,,,,,,,,,,,,,,,,,,
594366,001,2022-11-21_24h55.53.414,Info_measure_main_exp,2022.2.2,Win32,59.60896519,,,,,,,,,,,,,,,,,,masks/mask_002.jpg,,,,,,,,,,,,,,,,,,,,,,,,,,,,,,,,,,,,,,,,,,,,,,,,0,2,2,1,1,,,,,,,,,,,,,,,,,,,,,,,,,,,,,,,,,,,,,,,,,
594366,001,2022-11-21_24h55.53.414,Info_measure_main_exp,2022.2.2,Win32,59.60896519,,,,,,,,,,,,,,,,,,masks/mask_004.jpg,,,,,,,,,,,,,,,,,,,,,,,,,,,,,,,,,,,,,,,,,,,,,,,,0,3,3,3,1,,,,,,,,,,,,,,,,,,,,,,,,,,,,,,,,,,,,,,,,,
594366,001,2022-11-21_24h55.53.414,Info_measure_main_exp,2022.2.2,Win32,59.60896519,,,,,,,,,,,,,,,,,,masks/mask_003.jpg,,,,,,,,,,,,,,,,,,,,,,,,,,,,,,,,,,,,,,,,,,,,,,,,0,4,4,2,1,,,,,,,,,,,,,,,,,,,,,,,,,,,,,,,,,,,,,,,,,
594366,001,2022-11-21_24h55.53.414,Info_measure_main_exp,2022.2.2,Win32,59.60896519,,,,,,,,,,,,,,,,,,,,,,,,,,,,,,7,0.957,1,,,,,,,,,,,,0,131,5,5,1974,2214,absent_patch/patch0001974.jpg,absent_patch/patch0002214.jpg,,,,,,,,,,,,,,,,,,,,0.073148176,0.15370369,1,0,0,response1disk,11,0.011111111,0.007407379,1,0,0,center_square,0,10,10,24,1,,,,,,,,,,,,,,,,,,,,,,,
594366,001,2022-11-21_24h55.53.414,Info_measure_main_exp,2022.2.2,Win32,59.60896519,,,,,,,,,,,,,,,,,,masks/mask_004.jpg,,,,,,,,,,,,,,,,,,,,,,,,,,,,,,,,,,,,,,,,,,,0,0,0,3,1,,,,,,,,,,,,,,,,,,,,,,,,,,,,,,,,,,,,,,,,,,,,,,
594366,001,2022-11-21_24h55.53.414,Info_measure_main_exp,2022.2.2,Win32,59.60896519,,,,,,,,,,,,,,,,,,masks/mask_001.jpg,,,,,,,,,,,,,,,,,,,,,,,,,,,,,,,,,,,,,,,,,,,0,1,1,0,1,,,,,,,,,,,,,,,,,,,,,,,,,,,,,,,,,,,,,,,,,,,,,,
594366,001,2022-11-21_24h55.53.414,Info_measure_main_exp,2022.2.2,Win32,59.60896519,,,,,,,,,,,,,,,,,,masks/mask_005.jpg,,,,,,,,,,,,,,,,,,,,,,,,,,,,,,,,,,,,,,,,,,,0,2,2,4,1,,,,,,,,,,,,,,,,,,,,,,,,,,,,,,,,,,,,,,,,,,,,,,
594366,001,2022-11-21_24h55.53.414,Info_measure_main_exp,2022.2.2,Win32,59.60896519,,,,,,,,,,,,,,,,,,masks/mask_003.jpg,,,,,,,,,,,,,,,,,,,,,,,,,,,,,,,,,,,,,,,,,,,0,3,3,2,1,,,,,,,,,,,,,,,,,,,,,,,,,,,,,,,,,,,,,,,,,,,,,,
594366,001,2022-11-21_24h55.53.414,Info_measure_main_exp,2022.2.2,Win32,59.60896519,,,,,,,,,,,,,,,,,,masks/mask_002.jpg,,,,,,,,,,,,,,,,,,,,,,,,,,,,,,,,,,,,,,,,,,,0,4,4,1,1,,,,,,,,,,,,,,,,,,,,,,,,,,,,,,,,,,,,,,,,,,,,,,
594366,001,2022-11-21_24h55.53.414,Info_measure_main_exp,2022.2.2,Win32,59.60896519,,,,,,,,,,,,,,,,,,masks/mask_002.jpg,,,,,,,,,,,,,,,,,,,,,,,,,,,,,,,,,,,,,,,,,,,,,,,,0,0,0,1,1,,,,,,,,,,,,,,,,,,,,,,,,,,,,,,,,,,,,,,,,,
594366,001,2022-11-21_24h55.53.414,Info_measure_main_exp,2022.2.2,Win32,59.60896519,,,,,,,,,,,,,,,,,,masks/mask_001.jpg,,,,,,,,,,,,,,,,,,,,,,,,,,,,,,,,,,,,,,,,,,,,,,,,0,1,1,0,1,,,,,,,,,,,,,,,,,,,,,,,,,,,,,,,,,,,,,,,,,
594366,001,2022-11-21_24h55.53.414,Info_measure_main_exp,2022.2.2,Win32,59.60896519,,,,,,,,,,,,,,,,,,masks/mask_005.jpg,,,,,,,,,,,,,,,,,,,,,,,,,,,,,,,,,,,,,,,,,,,,,,,,0,2,2,4,1,,,,,,,,,,,,,,,,,,,,,,,,,,,,,,,,,,,,,,,,,
594366,001,2022-11-21_24h55.53.414,Info_measure_main_exp,2022.2.2,Win32,59.60896519,,,,,,,,,,,,,,,,,,masks/mask_003.jpg,,,,,,,,,,,,,,,,,,,,,,,,,,,,,,,,,,,,,,,,,,,,,,,,0,3,3,2,1,,,,,,,,,,,,,,,,,,,,,,,,,,,,,,,,,,,,,,,,,
594366,001,2022-11-21_24h55.53.414,Info_measure_main_exp,2022.2.2,Win32,59.60896519,,,,,,,,,,,,,,,,,,masks/mask_004.jpg,,,,,,,,,,,,,,,,,,,,,,,,,,,,,,,,,,,,,,,,,,,,,,,,0,4,4,3,1,,,,,,,,,,,,,,,,,,,,,,,,,,,,,,,,,,,,,,,,,
594366,001,2022-11-21_24h55.53.414,Info_measure_main_exp,2022.2.2,Win32,59.60896519,,,,,,,,,,,,,,,,,,,,,,,,,,,,,,5,1.1567,1,,,,,,,,,,,,0,131,5,5,2238,2298,absent_patch/patch0002238.jpg,absent_patch/patch0002298.jpg,,,,,,,,,,,,,,,,,,,,0.067592621,-0.029629644,1,0,0,response3disk,12,-0.002777778,0.004629601,1,0,0,center_square,0,11,11,51,1,,,,,,,,,,,,,,,,,,,,,,,
594366,001,2022-11-21_24h55.53.414,Info_measure_main_exp,2022.2.2,Win32,59.60896519,,,,,,,,,,,,,,,,,,masks/mask_005.jpg,,,,,,,,,,,,,,,,,,,,,,,,,,,,,,,,,,,,,,,,,,,0,0,0,4,1,,,,,,,,,,,,,,,,,,,,,,,,,,,,,,,,,,,,,,,,,,,,,,
594366,001,2022-11-21_24h55.53.414,Info_measure_main_exp,2022.2.2,Win32,59.60896519,,,,,,,,,,,,,,,,,,masks/mask_004.jpg,,,,,,,,,,,,,,,,,,,,,,,,,,,,,,,,,,,,,,,,,,,0,1,1,3,1,,,,,,,,,,,,,,,,,,,,,,,,,,,,,,,,,,,,,,,,,,,,,,
594366,001,2022-11-21_24h55.53.414,Info_measure_main_exp,2022.2.2,Win32,59.60896519,,,,,,,,,,,,,,,,,,masks/mask_003.jpg,,,,,,,,,,,,,,,,,,,,,,,,,,,,,,,,,,,,,,,,,,,0,2,2,2,1,,,,,,,,,,,,,,,,,,,,,,,,,,,,,,,,,,,,,,,,,,,,,,
594366,001,2022-11-21_24h55.53.414,Info_measure_main_exp,2022.2.2,Win32,59.60896519,,,,,,,,,,,,,,,,,,masks/mask_001.jpg,,,,,,,,,,,,,,,,,,,,,,,,,,,,,,,,,,,,,,,,,,,0,3,3,0,1,,,,,,,,,,,,,,,,,,,,,,,,,,,,,,,,,,,,,,,,,,,,,,
594366,001,2022-11-21_24h55.53.414,Info_measure_main_exp,2022.2.2,Win32,59.60896519,,,,,,,,,,,,,,,,,,masks/mask_002.jpg,,,,,,,,,,,,,,,,,,,,,,,,,,,,,,,,,,,,,,,,,,,0,4,4,1,1,,,,,,,,,,,,,,,,,,,,,,,,,,,,,,,,,,,,,,,,,,,,,,
594366,001,2022-11-21_24h55.53.414,Info_measure_main_exp,2022.2.2,Win32,59.60896519,,,,,,,,,,,,,,,,,,masks/mask_003.jpg,,,,,,,,,,,,,,,,,,,,,,,,,,,,,,,,,,,,,,,,,,,,,,,,0,0,0,2,1,,,,,,,,,,,,,,,,,,,,,,,,,,,,,,,,,,,,,,,,,
594366,001,2022-11-21_24h55.53.414,Info_measure_main_exp,2022.2.2,Win32,59.60896519,,,,,,,,,,,,,,,,,,masks/mask_002.jpg,,,,,,,,,,,,,,,,,,,,,,,,,,,,,,,,,,,,,,,,,,,,,,,,0,1,1,1,1,,,,,,,,,,,,,,,,,,,,,,,,,,,,,,,,,,,,,,,,,
594366,001,2022-11-21_24h55.53.414,Info_measure_main_exp,2022.2.2,Win32,59.60896519,,,,,,,,,,,,,,,,,,masks/mask_005.jpg,,,,,,,,,,,,,,,,,,,,,,,,,,,,,,,,,,,,,,,,,,,,,,,,0,2,2,4,1,,,,,,,,,,,,,,,,,,,,,,,,,,,,,,,,,,,,,,,,,
594366,001,2022-11-21_24h55.53.414,Info_measure_main_exp,2022.2.2,Win32,59.60896519,,,,,,,,,,,,,,,,,,masks/mask_004.jpg,,,,,,,,,,,,,,,,,,,,,,,,,,,,,,,,,,,,,,,,,,,,,,,,0,3,3,3,1,,,,,,,,,,,,,,,,,,,,,,,,,,,,,,,,,,,,,,,,,
594366,001,2022-11-21_24h55.53.414,Info_measure_main_exp,2022.2.2,Win32,59.60896519,,,,,,,,,,,,,,,,,,masks/mask_001.jpg,,,,,,,,,,,,,,,,,,,,,,,,,,,,,,,,,,,,,,,,,,,,,,,,0,4,4,0,1,,,,,,,,,,,,,,,,,,,,,,,,,,,,,,,,,,,,,,,,,
594366,001,2022-11-21_24h55.53.414,Info_measure_main_exp,2022.2.2,Win32,59.60896519,,,,,,,,,,,,,,,,,,,,,,,,,,,,,,4,1.3409,1,,,,,,,,,,,,0,131,5,5,2274,2238,absent_patch/patch0002274.jpg,absent_patch/patch0002238.jpg,,,,,,,,,,,,,,,,,,,,0.042592621,-0.109259288,1,0,0,response3disk,13,-0.007407379,0.004629601,1,0,0,center_square,0,12,12,91,1,,,,,,,,,,,,,,,,,,,,,,,
594366,001,2022-11-21_24h55.53.414,Info_measure_main_exp,2022.2.2,Win32,59.60896519,,,,,,,,,,,,,,,,,,masks/mask_005.jpg,,,,,,,,,,,,,,,,,,,,,,,,,,,,,,,,,,,,,,,,,,,0,0,0,4,1,,,,,,,,,,,,,,,,,,,,,,,,,,,,,,,,,,,,,,,,,,,,,,
594366,001,2022-11-21_24h55.53.414,Info_measure_main_exp,2022.2.2,Win32,59.60896519,,,,,,,,,,,,,,,,,,masks/mask_001.jpg,,,,,,,,,,,,,,,,,,,,,,,,,,,,,,,,,,,,,,,,,,,0,1,1,0,1,,,,,,,,,,,,,,,,,,,,,,,,,,,,,,,,,,,,,,,,,,,,,,
594366,001,2022-11-21_24h55.53.414,Info_measure_main_exp,2022.2.2,Win32,59.60896519,,,,,,,,,,,,,,,,,,masks/mask_002.jpg,,,,,,,,,,,,,,,,,,,,,,,,,,,,,,,,,,,,,,,,,,,0,2,2,1,1,,,,,,,,,,,,,,,,,,,,,,,,,,,,,,,,,,,,,,,,,,,,,,
594366,001,2022-11-21_24h55.53.414,Info_measure_main_exp,2022.2.2,Win32,59.60896519,,,,,,,,,,,,,,,,,,masks/mask_003.jpg,,,,,,,,,,,,,,,,,,,,,,,,,,,,,,,,,,,,,,,,,,,0,3,3,2,1,,,,,,,,,,,,,,,,,,,,,,,,,,,,,,,,,,,,,,,,,,,,,,
594366,001,2022-11-21_24h55.53.414,Info_measure_main_exp,2022.2.2,Win32,59.60896519,,,,,,,,,,,,,,,,,,masks/mask_004.jpg,,,,,,,,,,,,,,,,,,,,,,,,,,,,,,,,,,,,,,,,,,,0,4,4,3,1,,,,,,,,,,,,,,,,,,,,,,,,,,,,,,,,,,,,,,,,,,,,,,
594366,001,2022-11-21_24h55.53.414,Info_measure_main_exp,2022.2.2,Win32,59.60896519,,,,,,,,,,,,,,,,,,masks/mask_004.jpg,,,,,,,,,,,,,,,,,,,,,,,,,,,,,,,,,,,,,,,,,,,,,,,,0,0,0,3,1,,,,,,,,,,,,,,,,,,,,,,,,,,,,,,,,,,,,,,,,,
594366,001,2022-11-21_24h55.53.414,Info_measure_main_exp,2022.2.2,Win32,59.60896519,,,,,,,,,,,,,,,,,,masks/mask_003.jpg,,,,,,,,,,,,,,,,,,,,,,,,,,,,,,,,,,,,,,,,,,,,,,,,0,1,1,2,1,,,,,,,,,,,,,,,,,,,,,,,,,,,,,,,,,,,,,,,,,
594366,001,2022-11-21_24h55.53.414,Info_measure_main_exp,2022.2.2,Win32,59.60896519,,,,,,,,,,,,,,,,,,masks/mask_001.jpg,,,,,,,,,,,,,,,,,,,,,,,,,,,,,,,,,,,,,,,,,,,,,,,,0,2,2,0,1,,,,,,,,,,,,,,,,,,,,,,,,,,,,,,,,,,,,,,,,,
594366,001,2022-11-21_24h55.53.414,Info_measure_main_exp,2022.2.2,Win32,59.60896519,,,,,,,,,,,,,,,,,,masks/mask_005.jpg,,,,,,,,,,,,,,,,,,,,,,,,,,,,,,,,,,,,,,,,,,,,,,,,0,3,3,4,1,,,,,,,,,,,,,,,,,,,,,,,,,,,,,,,,,,,,,,,,,
594366,001,2022-11-21_24h55.53.414,Info_measure_main_exp,2022.2.2,Win32,59.60896519,,,,,,,,,,,,,,,,,,masks/mask_002.jpg,,,,,,,,,,,,,,,,,,,,,,,,,,,,,,,,,,,,,,,,,,,,,,,,0,4,4,1,1,,,,,,,,,,,,,,,,,,,,,,,,,,,,,,,,,,,,,,,,,
594366,001,2022-11-21_24h55.53.414,Info_measure_main_exp,2022.2.2,Win32,59.60896519,,,,,,,,,,,,,,,,,,,,,,,,,,,,,,4,2.0392,1,,,,,,,,,,,,1,131,5,5,2238,1,absent_patch/patch0002238.jpg,present_patch/cong_131_5_a.jpg,,,,,,,,,,,,,,,,,,,,0.042592621,-0.178703732,1,0,0,response3disk,14,0.002777778,0.009259245,1,0,0,center_square,0,13,13,104,1,,,,,,,,,,,,,,,,,,,,,,,
594366,001,2022-11-21_24h55.53.414,Info_measure_main_exp,2022.2.2,Win32,59.60896519,,,,,,,,,,,,,,,,,,masks/mask_005.jpg,,,,,,,,,,,,,,,,,,,,,,,,,,,,,,,,,,,,,,,,,,,0,0,0,4,1,,,,,,,,,,,,,,,,,,,,,,,,,,,,,,,,,,,,,,,,,,,,,,
594366,001,2022-11-21_24h55.53.414,Info_measure_main_exp,2022.2.2,Win32,59.60896519,,,,,,,,,,,,,,,,,,masks/mask_001.jpg,,,,,,,,,,,,,,,,,,,,,,,,,,,,,,,,,,,,,,,,,,,0,1,1,0,1,,,,,,,,,,,,,,,,,,,,,,,,,,,,,,,,,,,,,,,,,,,,,,
594366,001,2022-11-21_24h55.53.414,Info_measure_main_exp,2022.2.2,Win32,59.60896519,,,,,,,,,,,,,,,,,,masks/mask_003.jpg,,,,,,,,,,,,,,,,,,,,,,,,,,,,,,,,,,,,,,,,,,,0,2,2,2,1,,,,,,,,,,,,,,,,,,,,,,,,,,,,,,,,,,,,,,,,,,,,,,
594366,001,2022-11-21_24h55.53.414,Info_measure_main_exp,2022.2.2,Win32,59.60896519,,,,,,,,,,,,,,,,,,masks/mask_002.jpg,,,,,,,,,,,,,,,,,,,,,,,,,,,,,,,,,,,,,,,,,,,0,3,3,1,1,,,,,,,,,,,,,,,,,,,,,,,,,,,,,,,,,,,,,,,,,,,,,,
594366,001,2022-11-21_24h55.53.414,Info_measure_main_exp,2022.2.2,Win32,59.60896519,,,,,,,,,,,,,,,,,,masks/mask_004.jpg,,,,,,,,,,,,,,,,,,,,,,,,,,,,,,,,,,,,,,,,,,,0,4,4,3,1,,,,,,,,,,,,,,,,,,,,,,,,,,,,,,,,,,,,,,,,,,,,,,
594366,001,2022-11-21_24h55.53.414,Info_measure_main_exp,2022.2.2,Win32,59.60896519,,,,,,,,,,,,,,,,,,masks/mask_005.jpg,,,,,,,,,,,,,,,,,,,,,,,,,,,,,,,,,,,,,,,,,,,,,,,,0,0,0,4,1,,,,,,,,,,,,,,,,,,,,,,,,,,,,,,,,,,,,,,,,,
594366,001,2022-11-21_24h55.53.414,Info_measure_main_exp,2022.2.2,Win32,59.60896519,,,,,,,,,,,,,,,,,,masks/mask_001.jpg,,,,,,,,,,,,,,,,,,,,,,,,,,,,,,,,,,,,,,,,,,,,,,,,0,1,1,0,1,,,,,,,,,,,,,,,,,,,,,,,,,,,,,,,,,,,,,,,,,
594366,001,2022-11-21_24h55.53.414,Info_measure_main_exp,2022.2.2,Win32,59.60896519,,,,,,,,,,,,,,,,,,masks/mask_003.jpg,,,,,,,,,,,,,,,,,,,,,,,,,,,,,,,,,,,,,,,,,,,,,,,,0,2,2,2,1,,,,,,,,,,,,,,,,,,,,,,,,,,,,,,,,,,,,,,,,,
594366,001,2022-11-21_24h55.53.414,Info_measure_main_exp,2022.2.2,Win32,59.60896519,,,,,,,,,,,,,,,,,,masks/mask_004.jpg,,,,,,,,,,,,,,,,,,,,,,,,,,,,,,,,,,,,,,,,,,,,,,,,0,3,3,3,1,,,,,,,,,,,,,,,,,,,,,,,,,,,,,,,,,,,,,,,,,
594366,001,2022-11-21_24h55.53.414,Info_measure_main_exp,2022.2.2,Win32,59.60896519,,,,,,,,,,,,,,,,,,masks/mask_002.jpg,,,,,,,,,,,,,,,,,,,,,,,,,,,,,,,,,,,,,,,,,,,,,,,,0,4,4,1,1,,,,,,,,,,,,,,,,,,,,,,,,,,,,,,,,,,,,,,,,,
594366,001,2022-11-21_24h55.53.414,Info_measure_main_exp,2022.2.2,Win32,59.60896519,,,,,,,,,,,,,,,,,,,,,,,,,,,,,,0,1.8561,1,,,,,,,,,,,,0,131,5,5,2166,2166,absent_patch/patch0002166.jpg,absent_patch/patch0002166.jpg,,,,,,,,,,,,,,,,,,,,-0.059259203,0.125925912,1,0,0,response7disk,15,0,0.009259245,1,0,0,center_square,0,14,14,42,1,,,,,,,,,,,,,,,,,,,,,,,
594366,001,2022-11-21_24h55.53.414,Info_measure_main_exp,2022.2.2,Win32,59.60896519,,,,,,,,,,,,,,,,,,masks/mask_003.jpg,,,,,,,,,,,,,,,,,,,,,,,,,,,,,,,,,,,,,,,,,,,0,0,0,2,1,,,,,,,,,,,,,,,,,,,,,,,,,,,,,,,,,,,,,,,,,,,,,,
594366,001,2022-11-21_24h55.53.414,Info_measure_main_exp,2022.2.2,Win32,59.60896519,,,,,,,,,,,,,,,,,,masks/mask_005.jpg,,,,,,,,,,,,,,,,,,,,,,,,,,,,,,,,,,,,,,,,,,,0,1,1,4,1,,,,,,,,,,,,,,,,,,,,,,,,,,,,,,,,,,,,,,,,,,,,,,
594366,001,2022-11-21_24h55.53.414,Info_measure_main_exp,2022.2.2,Win32,59.60896519,,,,,,,,,,,,,,,,,,masks/mask_002.jpg,,,,,,,,,,,,,,,,,,,,,,,,,,,,,,,,,,,,,,,,,,,0,2,2,1,1,,,,,,,,,,,,,,,,,,,,,,,,,,,,,,,,,,,,,,,,,,,,,,
594366,001,2022-11-21_24h55.53.414,Info_measure_main_exp,2022.2.2,Win32,59.60896519,,,,,,,,,,,,,,,,,,masks/mask_001.jpg,,,,,,,,,,,,,,,,,,,,,,,,,,,,,,,,,,,,,,,,,,,0,3,3,0,1,,,,,,,,,,,,,,,,,,,,,,,,,,,,,,,,,,,,,,,,,,,,,,
594366,001,2022-11-21_24h55.53.414,Info_measure_main_exp,2022.2.2,Win32,59.60896519,,,,,,,,,,,,,,,,,,masks/mask_004.jpg,,,,,,,,,,,,,,,,,,,,,,,,,,,,,,,,,,,,,,,,,,,0,4,4,3,1,,,,,,,,,,,,,,,,,,,,,,,,,,,,,,,,,,,,,,,,,,,,,,
594366,001,2022-11-21_24h55.53.414,Info_measure_main_exp,2022.2.2,Win32,59.60896519,,,,,,,,,,,,,,,,,,masks/mask_002.jpg,,,,,,,,,,,,,,,,,,,,,,,,,,,,,,,,,,,,,,,,,,,,,,,,0,0,0,1,1,,,,,,,,,,,,,,,,,,,,,,,,,,,,,,,,,,,,,,,,,
594366,001,2022-11-21_24h55.53.414,Info_measure_main_exp,2022.2.2,Win32,59.60896519,,,,,,,,,,,,,,,,,,masks/mask_005.jpg,,,,,,,,,,,,,,,,,,,,,,,,,,,,,,,,,,,,,,,,,,,,,,,,0,1,1,4,1,,,,,,,,,,,,,,,,,,,,,,,,,,,,,,,,,,,,,,,,,
594366,001,2022-11-21_24h55.53.414,Info_measure_main_exp,2022.2.2,Win32,59.60896519,,,,,,,,,,,,,,,,,,masks/mask_003.jpg,,,,,,,,,,,,,,,,,,,,,,,,,,,,,,,,,,,,,,,,,,,,,,,,0,2,2,2,1,,,,,,,,,,,,,,,,,,,,,,,,,,,,,,,,,,,,,,,,,
594366,001,2022-11-21_24h55.53.414,Info_measure_main_exp,2022.2.2,Win32,59.60896519,,,,,,,,,,,,,,,,,,masks/mask_001.jpg,,,,,,,,,,,,,,,,,,,,,,,,,,,,,,,,,,,,,,,,,,,,,,,,0,3,3,0,1,,,,,,,,,,,,,,,,,,,,,,,,,,,,,,,,,,,,,,,,,
594366,001,2022-11-21_24h55.53.414,Info_measure_main_exp,2022.2.2,Win32,59.60896519,,,,,,,,,,,,,,,,,,masks/mask_004.jpg,,,,,,,,,,,,,,,,,,,,,,,,,,,,,,,,,,,,,,,,,,,,,,,,0,4,4,3,1,,,,,,,,,,,,,,,,,,,,,,,,,,,,,,,,,,,,,,,,,
594366,001,2022-11-21_24h55.53.414,Info_measure_main_exp,2022.2.2,Win32,59.60896519,,,,,,,,,,,,,,,,,,,,,,,,,,,,,,2,1.3495,1,,,,,,,,,,,,0,131,5,5,1974,2178,absent_patch/patch0001974.jpg,absent_patch/patch0002178.jpg,,,,,,,,,,,,,,,,,,,,-0.125925869,-0.041666667,1,0,0,response5disk,16,0.008333333,0.006481467,1,0,0,center_square,0,15,15,44,1,,,,,,,,,,,,,,,,,,,,,,,
594366,001,2022-11-21_24h55.53.414,Info_measure_main_exp,2022.2.2,Win32,59.60896519,,,,,,,,,,,,,,,,,,masks/mask_001.jpg,,,,,,,,,,,,,,,,,,,,,,,,,,,,,,,,,,,,,,,,,,,0,0,0,0,1,,,,,,,,,,,,,,,,,,,,,,,,,,,,,,,,,,,,,,,,,,,,,,
594366,001,2022-11-21_24h55.53.414,Info_measure_main_exp,2022.2.2,Win32,59.60896519,,,,,,,,,,,,,,,,,,masks/mask_002.jpg,,,,,,,,,,,,,,,,,,,,,,,,,,,,,,,,,,,,,,,,,,,0,1,1,1,1,,,,,,,,,,,,,,,,,,,,,,,,,,,,,,,,,,,,,,,,,,,,,,
594366,001,2022-11-21_24h55.53.414,Info_measure_main_exp,2022.2.2,Win32,59.60896519,,,,,,,,,,,,,,,,,,masks/mask_004.jpg,,,,,,,,,,,,,,,,,,,,,,,,,,,,,,,,,,,,,,,,,,,0,2,2,3,1,,,,,,,,,,,,,,,,,,,,,,,,,,,,,,,,,,,,,,,,,,,,,,
594366,001,2022-11-21_24h55.53.414,Info_measure_main_exp,2022.2.2,Win32,59.60896519,,,,,,,,,,,,,,,,,,masks/mask_005.jpg,,,,,,,,,,,,,,,,,,,,,,,,,,,,,,,,,,,,,,,,,,,0,3,3,4,1,,,,,,,,,,,,,,,,,,,,,,,,,,,,,,,,,,,,,,,,,,,,,,
594366,001,2022-11-21_24h55.53.414,Info_measure_main_exp,2022.2.2,Win32,59.60896519,,,,,,,,,,,,,,,,,,masks/mask_003.jpg,,,,,,,,,,,,,,,,,,,,,,,,,,,,,,,,,,,,,,,,,,,0,4,4,2,1,,,,,,,,,,,,,,,,,,,,,,,,,,,,,,,,,,,,,,,,,,,,,,
594366,001,2022-11-21_24h55.53.414,Info_measure_main_exp,2022.2.2,Win32,59.60896519,,,,,,,,,,,,,,,,,,masks/mask_003.jpg,,,,,,,,,,,,,,,,,,,,,,,,,,,,,,,,,,,,,,,,,,,,,,,,0,0,0,2,1,,,,,,,,,,,,,,,,,,,,,,,,,,,,,,,,,,,,,,,,,
594366,001,2022-11-21_24h55.53.414,Info_measure_main_exp,2022.2.2,Win32,59.60896519,,,,,,,,,,,,,,,,,,masks/mask_004.jpg,,,,,,,,,,,,,,,,,,,,,,,,,,,,,,,,,,,,,,,,,,,,,,,,0,1,1,3,1,,,,,,,,,,,,,,,,,,,,,,,,,,,,,,,,,,,,,,,,,
594366,001,2022-11-21_24h55.53.414,Info_measure_main_exp,2022.2.2,Win32,59.60896519,,,,,,,,,,,,,,,,,,masks/mask_002.jpg,,,,,,,,,,,,,,,,,,,,,,,,,,,,,,,,,,,,,,,,,,,,,,,,0,2,2,1,1,,,,,,,,,,,,,,,,,,,,,,,,,,,,,,,,,,,,,,,,,
594366,001,2022-11-21_24h55.53.414,Info_measure_main_exp,2022.2.2,Win32,59.60896519,,,,,,,,,,,,,,,,,,masks/mask_001.jpg,,,,,,,,,,,,,,,,,,,,,,,,,,,,,,,,,,,,,,,,,,,,,,,,0,3,3,0,1,,,,,,,,,,,,,,,,,,,,,,,,,,,,,,,,,,,,,,,,,
594366,001,2022-11-21_24h55.53.414,Info_measure_main_exp,2022.2.2,Win32,59.60896519,,,,,,,,,,,,,,,,,,masks/mask_005.jpg,,,,,,,,,,,,,,,,,,,,,,,,,,,,,,,,,,,,,,,,,,,,,,,,0,4,4,4,1,,,,,,,,,,,,,,,,,,,,,,,,,,,,,,,,,,,,,,,,,
594366,001,2022-11-21_24h55.53.414,Info_measure_main_exp,2022.2.2,Win32,59.60896519,,,,,,,,,,,,,,,,,,,,,,,,,,,,,,6,1.2223,1,,,,,,,,,,,,0,131,5,5,2274,2166,absent_patch/patch0002274.jpg,absent_patch/patch0002166.jpg,,,,,,,,,,,,,,,,,,,,0.087963019,0.029629601,1,0,0,response1disk,17,0.001851908,0.002777778,1,0,0,center_square,0,16,16,78,1,,,,,,,,,,,,,,,,,,,,,,,
594366,001,2022-11-21_24h55.53.414,Info_measure_main_exp,2022.2.2,Win32,59.60896519,,,,,,,,,,,,,,,,,,masks/mask_004.jpg,,,,,,,,,,,,,,,,,,,,,,,,,,,,,,,,,,,,,,,,,,,0,0,0,3,1,,,,,,,,,,,,,,,,,,,,,,,,,,,,,,,,,,,,,,,,,,,,,,
594366,001,2022-11-21_24h55.53.414,Info_measure_main_exp,2022.2.2,Win32,59.60896519,,,,,,,,,,,,,,,,,,masks/mask_001.jpg,,,,,,,,,,,,,,,,,,,,,,,,,,,,,,,,,,,,,,,,,,,0,1,1,0,1,,,,,,,,,,,,,,,,,,,,,,,,,,,,,,,,,,,,,,,,,,,,,,
594366,001,2022-11-21_24h55.53.414,Info_measure_main_exp,2022.2.2,Win32,59.60896519,,,,,,,,,,,,,,,,,,masks/mask_005.jpg,,,,,,,,,,,,,,,,,,,,,,,,,,,,,,,,,,,,,,,,,,,0,2,2,4,1,,,,,,,,,,,,,,,,,,,,,,,,,,,,,,,,,,,,,,,,,,,,,,
594366,001,2022-11-21_24h55.53.414,Info_measure_main_exp,2022.2.2,Win32,59.60896519,,,,,,,,,,,,,,,,,,masks/mask_002.jpg,,,,,,,,,,,,,,,,,,,,,,,,,,,,,,,,,,,,,,,,,,,0,3,3,1,1,,,,,,,,,,,,,,,,,,,,,,,,,,,,,,,,,,,,,,,,,,,,,,
594366,001,2022-11-21_24h55.53.414,Info_measure_main_exp,2022.2.2,Win32,59.60896519,,,,,,,,,,,,,,,,,,masks/mask_003.jpg,,,,,,,,,,,,,,,,,,,,,,,,,,,,,,,,,,,,,,,,,,,0,4,4,2,1,,,,,,,,,,,,,,,,,,,,,,,,,,,,,,,,,,,,,,,,,,,,,,
594366,001,2022-11-21_24h55.53.414,Info_measure_main_exp,2022.2.2,Win32,59.60896519,,,,,,,,,,,,,,,,,,masks/mask_003.jpg,,,,,,,,,,,,,,,,,,,,,,,,,,,,,,,,,,,,,,,,,,,,,,,,0,0,0,2,1,,,,,,,,,,,,,,,,,,,,,,,,,,,,,,,,,,,,,,,,,
594366,001,2022-11-21_24h55.53.414,Info_measure_main_exp,2022.2.2,Win32,59.60896519,,,,,,,,,,,,,,,,,,masks/mask_002.jpg,,,,,,,,,,,,,,,,,,,,,,,,,,,,,,,,,,,,,,,,,,,,,,,,0,1,1,1,1,,,,,,,,,,,,,,,,,,,,,,,,,,,,,,,,,,,,,,,,,
594366,001,2022-11-21_24h55.53.414,Info_measure_main_exp,2022.2.2,Win32,59.60896519,,,,,,,,,,,,,,,,,,masks/mask_004.jpg,,,,,,,,,,,,,,,,,,,,,,,,,,,,,,,,,,,,,,,,,,,,,,,,0,2,2,3,1,,,,,,,,,,,,,,,,,,,,,,,,,,,,,,,,,,,,,,,,,
594366,001,2022-11-21_24h55.53.414,Info_measure_main_exp,2022.2.2,Win32,59.60896519,,,,,,,,,,,,,,,,,,masks/mask_001.jpg,,,,,,,,,,,,,,,,,,,,,,,,,,,,,,,,,,,,,,,,,,,,,,,,0,3,3,0,1,,,,,,,,,,,,,,,,,,,,,,,,,,,,,,,,,,,,,,,,,
594366,001,2022-11-21_24h55.53.414,Info_measure_main_exp,2022.2.2,Win32,59.60896519,,,,,,,,,,,,,,,,,,masks/mask_005.jpg,,,,,,,,,,,,,,,,,,,,,,,,,,,,,,,,,,,,,,,,,,,,,,,,0,4,4,4,1,,,,,,,,,,,,,,,,,,,,,,,,,,,,,,,,,,,,,,,,,
594366,001,2022-11-21_24h55.53.414,Info_measure_main_exp,2022.2.2,Win32,59.60896519,,,,,,,,,,,,,,,,,,,,,,,,,,,,,,5,1.1665,1,,,,,,,,,,,,0,131,5,5,2250,2214,absent_patch/patch0002250.jpg,absent_patch/patch0002214.jpg,,,,,,,,,,,,,,,,,,,,0.102777778,-0.036111111,1,0,0,response3disk,18,0.002777778,-0.002777778,1,0,0,center_square,0,17,17,97,1,,,,,,,,,,,,,,,,,,,,,,,
594366,001,2022-11-21_24h55.53.414,Info_measure_main_exp,2022.2.2,Win32,59.60896519,,,,,,,,,,,,,,,,,,masks/mask_005.jpg,,,,,,,,,,,,,,,,,,,,,,,,,,,,,,,,,,,,,,,,,,,0,0,0,4,1,,,,,,,,,,,,,,,,,,,,,,,,,,,,,,,,,,,,,,,,,,,,,,
594366,001,2022-11-21_24h55.53.414,Info_measure_main_exp,2022.2.2,Win32,59.60896519,,,,,,,,,,,,,,,,,,masks/mask_003.jpg,,,,,,,,,,,,,,,,,,,,,,,,,,,,,,,,,,,,,,,,,,,0,1,1,2,1,,,,,,,,,,,,,,,,,,,,,,,,,,,,,,,,,,,,,,,,,,,,,,
594366,001,2022-11-21_24h55.53.414,Info_measure_main_exp,2022.2.2,Win32,59.60896519,,,,,,,,,,,,,,,,,,masks/mask_001.jpg,,,,,,,,,,,,,,,,,,,,,,,,,,,,,,,,,,,,,,,,,,,0,2,2,0,1,,,,,,,,,,,,,,,,,,,,,,,,,,,,,,,,,,,,,,,,,,,,,,
594366,001,2022-11-21_24h55.53.414,Info_measure_main_exp,2022.2.2,Win32,59.60896519,,,,,,,,,,,,,,,,,,masks/mask_002.jpg,,,,,,,,,,,,,,,,,,,,,,,,,,,,,,,,,,,,,,,,,,,0,3,3,1,1,,,,,,,,,,,,,,,,,,,,,,,,,,,,,,,,,,,,,,,,,,,,,,
594366,001,2022-11-21_24h55.53.414,Info_measure_main_exp,2022.2.2,Win32,59.60896519,,,,,,,,,,,,,,,,,,masks/mask_004.jpg,,,,,,,,,,,,,,,,,,,,,,,,,,,,,,,,,,,,,,,,,,,0,4,4,3,1,,,,,,,,,,,,,,,,,,,,,,,,,,,,,,,,,,,,,,,,,,,,,,
594366,001,2022-11-21_24h55.53.414,Info_measure_main_exp,2022.2.2,Win32,59.60896519,,,,,,,,,,,,,,,,,,masks/mask_002.jpg,,,,,,,,,,,,,,,,,,,,,,,,,,,,,,,,,,,,,,,,,,,,,,,,0,0,0,1,1,,,,,,,,,,,,,,,,,,,,,,,,,,,,,,,,,,,,,,,,,
594366,001,2022-11-21_24h55.53.414,Info_measure_main_exp,2022.2.2,Win32,59.60896519,,,,,,,,,,,,,,,,,,masks/mask_001.jpg,,,,,,,,,,,,,,,,,,,,,,,,,,,,,,,,,,,,,,,,,,,,,,,,0,1,1,0,1,,,,,,,,,,,,,,,,,,,,,,,,,,,,,,,,,,,,,,,,,
594366,001,2022-11-21_24h55.53.414,Info_measure_main_exp,2022.2.2,Win32,59.60896519,,,,,,,,,,,,,,,,,,masks/mask_004.jpg,,,,,,,,,,,,,,,,,,,,,,,,,,,,,,,,,,,,,,,,,,,,,,,,0,2,2,3,1,,,,,,,,,,,,,,,,,,,,,,,,,,,,,,,,,,,,,,,,,
594366,001,2022-11-21_24h55.53.414,Info_measure_main_exp,2022.2.2,Win32,59.60896519,,,,,,,,,,,,,,,,,,masks/mask_003.jpg,,,,,,,,,,,,,,,,,,,,,,,,,,,,,,,,,,,,,,,,,,,,,,,,0,3,3,2,1,,,,,,,,,,,,,,,,,,,,,,,,,,,,,,,,,,,,,,,,,
594366,001,2022-11-21_24h55.53.414,Info_measure_main_exp,2022.2.2,Win32,59.60896519,,,,,,,,,,,,,,,,,,masks/mask_005.jpg,,,,,,,,,,,,,,,,,,,,,,,,,,,,,,,,,,,,,,,,,,,,,,,,0,4,4,4,1,,,,,,,,,,,,,,,,,,,,,,,,,,,,,,,,,,,,,,,,,
594366,001,2022-11-21_24h55.53.414,Info_measure_main_exp,2022.2.2,Win32,59.60896519,,,,,,,,,,,,,,,,,,,,,,,,,,,,,,6,2.6994,1,,,,,,,,,,,,0,131,5,5,2190,1974,absent_patch/patch0002190.jpg,absent_patch/patch0001974.jpg,,,,,,,,,,,,,,,,,,,,0.110185242,0.054629601,1,0,0,response1disk,19,0.010185242,0.001851824,1,0,0,center_square,0,18,18,119,1,,,,,,,,,,,,,,,,,,,,,,,
594366,001,2022-11-21_24h55.53.414,Info_measure_main_exp,2022.2.2,Win32,59.60896519,,,,,,,,,,,,,,,,,,masks/mask_005.jpg,,,,,,,,,,,,,,,,,,,,,,,,,,,,,,,,,,,,,,,,,,,0,0,0,4,1,,,,,,,,,,,,,,,,,,,,,,,,,,,,,,,,,,,,,,,,,,,,,,
594366,001,2022-11-21_24h55.53.414,Info_measure_main_exp,2022.2.2,Win32,59.60896519,,,,,,,,,,,,,,,,,,masks/mask_004.jpg,,,,,,,,,,,,,,,,,,,,,,,,,,,,,,,,,,,,,,,,,,,0,1,1,3,1,,,,,,,,,,,,,,,,,,,,,,,,,,,,,,,,,,,,,,,,,,,,,,
594366,001,2022-11-21_24h55.53.414,Info_measure_main_exp,2022.2.2,Win32,59.60896519,,,,,,,,,,,,,,,,,,masks/mask_001.jpg,,,,,,,,,,,,,,,,,,,,,,,,,,,,,,,,,,,,,,,,,,,0,2,2,0,1,,,,,,,,,,,,,,,,,,,,,,,,,,,,,,,,,,,,,,,,,,,,,,
594366,001,2022-11-21_24h55.53.414,Info_measure_main_exp,2022.2.2,Win32,59.60896519,,,,,,,,,,,,,,,,,,masks/mask_002.jpg,,,,,,,,,,,,,,,,,,,,,,,,,,,,,,,,,,,,,,,,,,,0,3,3,1,1,,,,,,,,,,,,,,,,,,,,,,,,,,,,,,,,,,,,,,,,,,,,,,
594366,001,2022-11-21_24h55.53.414,Info_measure_main_exp,2022.2.2,Win32,59.60896519,,,,,,,,,,,,,,,,,,masks/mask_003.jpg,,,,,,,,,,,,,,,,,,,,,,,,,,,,,,,,,,,,,,,,,,,0,4,4,2,1,,,,,,,,,,,,,,,,,,,,,,,,,,,,,,,,,,,,,,,,,,,,,,
594366,001,2022-11-21_24h55.53.414,Info_measure_main_exp,2022.2.2,Win32,59.60896519,,,,,,,,,,,,,,,,,,masks/mask_002.jpg,,,,,,,,,,,,,,,,,,,,,,,,,,,,,,,,,,,,,,,,,,,,,,,,0,0,0,1,1,,,,,,,,,,,,,,,,,,,,,,,,,,,,,,,,,,,,,,,,,
594366,001,2022-11-21_24h55.53.414,Info_measure_main_exp,2022.2.2,Win32,59.60896519,,,,,,,,,,,,,,,,,,masks/mask_003.jpg,,,,,,,,,,,,,,,,,,,,,,,,,,,,,,,,,,,,,,,,,,,,,,,,0,1,1,2,1,,,,,,,,,,,,,,,,,,,,,,,,,,,,,,,,,,,,,,,,,
594366,001,2022-11-21_24h55.53.414,Info_measure_main_exp,2022.2.2,Win32,59.60896519,,,,,,,,,,,,,,,,,,masks/mask_004.jpg,,,,,,,,,,,,,,,,,,,,,,,,,,,,,,,,,,,,,,,,,,,,,,,,0,2,2,3,1,,,,,,,,,,,,,,,,,,,,,,,,,,,,,,,,,,,,,,,,,
594366,001,2022-11-21_24h55.53.414,Info_measure_main_exp,2022.2.2,Win32,59.60896519,,,,,,,,,,,,,,,,,,masks/mask_005.jpg,,,,,,,,,,,,,,,,,,,,,,,,,,,,,,,,,,,,,,,,,,,,,,,,0,3,3,4,1,,,,,,,,,,,,,,,,,,,,,,,,,,,,,,,,,,,,,,,,,
594366,001,2022-11-21_24h55.53.414,Info_measure_main_exp,2022.2.2,Win32,59.60896519,,,,,,,,,,,,,,,,,,masks/mask_001.jpg,,,,,,,,,,,,,,,,,,,,,,,,,,,,,,,,,,,,,,,,,,,,,,,,0,4,4,0,1,,,,,,,,,,,,,,,,,,,,,,,,,,,,,,,,,,,,,,,,,
594366,001,2022-11-21_24h55.53.414,Info_measure_main_exp,2022.2.2,Win32,59.60896519,,,,,,,,,,,,,,,,,,,,,,,,,,,,,,4,2.5316,1,,,,,,,,,,,,0,131,5,5,2274,2082,absent_patch/patch0002274.jpg,absent_patch/patch0002082.jpg,,,,,,,,,,,,,,,,,,,,0.087963019,-0.144444444,1,0,0,response3disk,20,0.003703732,0.001851824,1,0,0,center_square,0,19,19,100,1,,,,,,,,,,,,,,,,,,,,,,,
594366,001,2022-11-21_24h55.53.414,Info_measure_main_exp,2022.2.2,Win32,59.60896519,,,,,,,,,,,,,,,,,,masks/mask_002.jpg,,,,,,,,,,,,,,,,,,,,,,,,,,,,,,,,,,,,,,,,,,,0,0,0,1,1,,,,,,,,,,,,,,,,,,,,,,,,,,,,,,,,,,,,,,,,,,,,,,
594366,001,2022-11-21_24h55.53.414,Info_measure_main_exp,2022.2.2,Win32,59.60896519,,,,,,,,,,,,,,,,,,masks/mask_001.jpg,,,,,,,,,,,,,,,,,,,,,,,,,,,,,,,,,,,,,,,,,,,0,1,1,0,1,,,,,,,,,,,,,,,,,,,,,,,,,,,,,,,,,,,,,,,,,,,,,,
594366,001,2022-11-21_24h55.53.414,Info_measure_main_exp,2022.2.2,Win32,59.60896519,,,,,,,,,,,,,,,,,,masks/mask_005.jpg,,,,,,,,,,,,,,,,,,,,,,,,,,,,,,,,,,,,,,,,,,,0,2,2,4,1,,,,,,,,,,,,,,,,,,,,,,,,,,,,,,,,,,,,,,,,,,,,,,
594366,001,2022-11-21_24h55.53.414,Info_measure_main_exp,2022.2.2,Win32,59.60896519,,,,,,,,,,,,,,,,,,masks/mask_004.jpg,,,,,,,,,,,,,,,,,,,,,,,,,,,,,,,,,,,,,,,,,,,0,3,3,3,1,,,,,,,,,,,,,,,,,,,,,,,,,,,,,,,,,,,,,,,,,,,,,,
594366,001,2022-11-21_24h55.53.414,Info_measure_main_exp,2022.2.2,Win32,59.60896519,,,,,,,,,,,,,,,,,,masks/mask_003.jpg,,,,,,,,,,,,,,,,,,,,,,,,,,,,,,,,,,,,,,,,,,,0,4,4,2,1,,,,,,,,,,,,,,,,,,,,,,,,,,,,,,,,,,,,,,,,,,,,,,
594366,001,2022-11-21_24h55.53.414,Info_measure_main_exp,2022.2.2,Win32,59.60896519,,,,,,,,,,,,,,,,,,masks/mask_003.jpg,,,,,,,,,,,,,,,,,,,,,,,,,,,,,,,,,,,,,,,,,,,,,,,,0,0,0,2,1,,,,,,,,,,,,,,,,,,,,,,,,,,,,,,,,,,,,,,,,,
594366,001,2022-11-21_24h55.53.414,Info_measure_main_exp,2022.2.2,Win32,59.60896519,,,,,,,,,,,,,,,,,,masks/mask_004.jpg,,,,,,,,,,,,,,,,,,,,,,,,,,,,,,,,,,,,,,,,,,,,,,,,0,1,1,3,1,,,,,,,,,,,,,,,,,,,,,,,,,,,,,,,,,,,,,,,,,
594366,001,2022-11-21_24h55.53.414,Info_measure_main_exp,2022.2.2,Win32,59.60896519,,,,,,,,,,,,,,,,,,masks/mask_001.jpg,,,,,,,,,,,,,,,,,,,,,,,,,,,,,,,,,,,,,,,,,,,,,,,,0,2,2,0,1,,,,,,,,,,,,,,,,,,,,,,,,,,,,,,,,,,,,,,,,,
594366,001,2022-11-21_24h55.53.414,Info_measure_main_exp,2022.2.2,Win32,59.60896519,,,,,,,,,,,,,,,,,,masks/mask_005.jpg,,,,,,,,,,,,,,,,,,,,,,,,,,,,,,,,,,,,,,,,,,,,,,,,0,3,3,4,1,,,,,,,,,,,,,,,,,,,,,,,,,,,,,,,,,,,,,,,,,
594366,001,2022-11-21_24h55.53.414,Info_measure_main_exp,2022.2.2,Win32,59.60896519,,,,,,,,,,,,,,,,,,masks/mask_002.jpg,,,,,,,,,,,,,,,,,,,,,,,,,,,,,,,,,,,,,,,,,,,,,,,,0,4,4,1,1,,,,,,,,,,,,,,,,,,,,,,,,,,,,,,,,,,,,,,,,,
594366,001,2022-11-21_24h55.53.414,Info_measure_main_exp,2022.2.2,Win32,59.60896519,,,,,,,,,,,,,,,,,,,,,,,,,,,,,,7,1.3169,1,,,,,,,,,,,,1,131,5,5,2190,1,absent_patch/patch0002190.jpg,present_patch/cong_131_5_a.jpg,,,,,,,,,,,,,,,,,,,,0.046296353,0.109259245,1,0,0,response1disk,21,-0.001851824,-0.000925954,1,0,0,center_square,0,20,20,64,1,,,,,,,,,,,,,,,,,,,,,,,
594366,001,2022-11-21_24h55.53.414,Info_measure_main_exp,2022.2.2,Win32,59.60896519,,,,,,,,,,,,,,,,,,masks/mask_004.jpg,,,,,,,,,,,,,,,,,,,,,,,,,,,,,,,,,,,,,,,,,,,0,0,0,3,1,,,,,,,,,,,,,,,,,,,,,,,,,,,,,,,,,,,,,,,,,,,,,,
594366,001,2022-11-21_24h55.53.414,Info_measure_main_exp,2022.2.2,Win32,59.60896519,,,,,,,,,,,,,,,,,,masks/mask_005.jpg,,,,,,,,,,,,,,,,,,,,,,,,,,,,,,,,,,,,,,,,,,,0,1,1,4,1,,,,,,,,,,,,,,,,,,,,,,,,,,,,,,,,,,,,,,,,,,,,,,
594366,001,2022-11-21_24h55.53.414,Info_measure_main_exp,2022.2.2,Win32,59.60896519,,,,,,,,,,,,,,,,,,masks/mask_002.jpg,,,,,,,,,,,,,,,,,,,,,,,,,,,,,,,,,,,,,,,,,,,0,2,2,1,1,,,,,,,,,,,,,,,,,,,,,,,,,,,,,,,,,,,,,,,,,,,,,,
594366,001,2022-11-21_24h55.53.414,Info_measure_main_exp,2022.2.2,Win32,59.60896519,,,,,,,,,,,,,,,,,,masks/mask_003.jpg,,,,,,,,,,,,,,,,,,,,,,,,,,,,,,,,,,,,,,,,,,,0,3,3,2,1,,,,,,,,,,,,,,,,,,,,,,,,,,,,,,,,,,,,,,,,,,,,,,
594366,001,2022-11-21_24h55.53.414,Info_measure_main_exp,2022.2.2,Win32,59.60896519,,,,,,,,,,,,,,,,,,masks/mask_001.jpg,,,,,,,,,,,,,,,,,,,,,,,,,,,,,,,,,,,,,,,,,,,0,4,4,0,1,,,,,,,,,,,,,,,,,,,,,,,,,,,,,,,,,,,,,,,,,,,,,,
594366,001,2022-11-21_24h55.53.414,Info_measure_main_exp,2022.2.2,Win32,59.60896519,,,,,,,,,,,,,,,,,,masks/mask_001.jpg,,,,,,,,,,,,,,,,,,,,,,,,,,,,,,,,,,,,,,,,,,,,,,,,0,0,0,0,1,,,,,,,,,,,,,,,,,,,,,,,,,,,,,,,,,,,,,,,,,
594366,001,2022-11-21_24h55.53.414,Info_measure_main_exp,2022.2.2,Win32,59.60896519,,,,,,,,,,,,,,,,,,masks/mask_004.jpg,,,,,,,,,,,,,,,,,,,,,,,,,,,,,,,,,,,,,,,,,,,,,,,,0,1,1,3,1,,,,,,,,,,,,,,,,,,,,,,,,,,,,,,,,,,,,,,,,,
594366,001,2022-11-21_24h55.53.414,Info_measure_main_exp,2022.2.2,Win32,59.60896519,,,,,,,,,,,,,,,,,,masks/mask_002.jpg,,,,,,,,,,,,,,,,,,,,,,,,,,,,,,,,,,,,,,,,,,,,,,,,0,2,2,1,1,,,,,,,,,,,,,,,,,,,,,,,,,,,,,,,,,,,,,,,,,
594366,001,2022-11-21_24h55.53.414,Info_measure_main_exp,2022.2.2,Win32,59.60896519,,,,,,,,,,,,,,,,,,masks/mask_003.jpg,,,,,,,,,,,,,,,,,,,,,,,,,,,,,,,,,,,,,,,,,,,,,,,,0,3,3,2,1,,,,,,,,,,,,,,,,,,,,,,,,,,,,,,,,,,,,,,,,,
594366,001,2022-11-21_24h55.53.414,Info_measure_main_exp,2022.2.2,Win32,59.60896519,,,,,,,,,,,,,,,,,,masks/mask_005.jpg,,,,,,,,,,,,,,,,,,,,,,,,,,,,,,,,,,,,,,,,,,,,,,,,0,4,4,4,1,,,,,,,,,,,,,,,,,,,,,,,,,,,,,,,,,,,,,,,,,
594366,001,2022-11-21_24h55.53.414,Info_measure_main_exp,2022.2.2,Win32,59.60896519,,,,,,,,,,,,,,,,,,,,,,,,,,,,,,6,1.133,1,,,,,,,,,,,,1,131,5,5,2298,1,absent_patch/patch0002298.jpg,present_patch/cong_131_5_a.jpg,,,,,,,,,,,,,,,,,,,,0.114814843,0.022222222,1,0,0,response1disk,22,-0.004629601,-0.003703732,1,0,0,center_square,0,21,21,45,1,,,,,,,,,,,,,,,,,,,,,,,
594366,001,2022-11-21_24h55.53.414,Info_measure_main_exp,2022.2.2,Win32,59.60896519,,,,,,,,,,,,,,,,,,masks/mask_001.jpg,,,,,,,,,,,,,,,,,,,,,,,,,,,,,,,,,,,,,,,,,,,0,0,0,0,1,,,,,,,,,,,,,,,,,,,,,,,,,,,,,,,,,,,,,,,,,,,,,,
594366,001,2022-11-21_24h55.53.414,Info_measure_main_exp,2022.2.2,Win32,59.60896519,,,,,,,,,,,,,,,,,,masks/mask_004.jpg,,,,,,,,,,,,,,,,,,,,,,,,,,,,,,,,,,,,,,,,,,,0,1,1,3,1,,,,,,,,,,,,,,,,,,,,,,,,,,,,,,,,,,,,,,,,,,,,,,
594366,001,2022-11-21_24h55.53.414,Info_measure_main_exp,2022.2.2,Win32,59.60896519,,,,,,,,,,,,,,,,,,masks/mask_005.jpg,,,,,,,,,,,,,,,,,,,,,,,,,,,,,,,,,,,,,,,,,,,0,2,2,4,1,,,,,,,,,,,,,,,,,,,,,,,,,,,,,,,,,,,,,,,,,,,,,,
594366,001,2022-11-21_24h55.53.414,Info_measure_main_exp,2022.2.2,Win32,59.60896519,,,,,,,,,,,,,,,,,,masks/mask_002.jpg,,,,,,,,,,,,,,,,,,,,,,,,,,,,,,,,,,,,,,,,,,,0,3,3,1,1,,,,,,,,,,,,,,,,,,,,,,,,,,,,,,,,,,,,,,,,,,,,,,
594366,001,2022-11-21_24h55.53.414,Info_measure_main_exp,2022.2.2,Win32,59.60896519,,,,,,,,,,,,,,,,,,masks/mask_003.jpg,,,,,,,,,,,,,,,,,,,,,,,,,,,,,,,,,,,,,,,,,,,0,4,4,2,1,,,,,,,,,,,,,,,,,,,,,,,,,,,,,,,,,,,,,,,,,,,,,,
594366,001,2022-11-21_24h55.53.414,Info_measure_main_exp,2022.2.2,Win32,59.60896519,,,,,,,,,,,,,,,,,,masks/mask_005.jpg,,,,,,,,,,,,,,,,,,,,,,,,,,,,,,,,,,,,,,,,,,,,,,,,0,0,0,4,1,,,,,,,,,,,,,,,,,,,,,,,,,,,,,,,,,,,,,,,,,
594366,001,2022-11-21_24h55.53.414,Info_measure_main_exp,2022.2.2,Win32,59.60896519,,,,,,,,,,,,,,,,,,masks/mask_002.jpg,,,,,,,,,,,,,,,,,,,,,,,,,,,,,,,,,,,,,,,,,,,,,,,,0,1,1,1,1,,,,,,,,,,,,,,,,,,,,,,,,,,,,,,,,,,,,,,,,,
594366,001,2022-11-21_24h55.53.414,Info_measure_main_exp,2022.2.2,Win32,59.60896519,,,,,,,,,,,,,,,,,,masks/mask_001.jpg,,,,,,,,,,,,,,,,,,,,,,,,,,,,,,,,,,,,,,,,,,,,,,,,0,2,2,0,1,,,,,,,,,,,,,,,,,,,,,,,,,,,,,,,,,,,,,,,,,
594366,001,2022-11-21_24h55.53.414,Info_measure_main_exp,2022.2.2,Win32,59.60896519,,,,,,,,,,,,,,,,,,masks/mask_003.jpg,,,,,,,,,,,,,,,,,,,,,,,,,,,,,,,,,,,,,,,,,,,,,,,,0,3,3,2,1,,,,,,,,,,,,,,,,,,,,,,,,,,,,,,,,,,,,,,,,,
594366,001,2022-11-21_24h55.53.414,Info_measure_main_exp,2022.2.2,Win32,59.60896519,,,,,,,,,,,,,,,,,,masks/mask_004.jpg,,,,,,,,,,,,,,,,,,,,,,,,,,,,,,,,,,,,,,,,,,,,,,,,0,4,4,3,1,,,,,,,,,,,,,,,,,,,,,,,,,,,,,,,,,,,,,,,,,
594366,001,2022-11-21_24h55.53.414,Info_measure_main_exp,2022.2.2,Win32,59.60896519,,,,,,,,,,,,,,,,,,,,,,,,,,,,,,0,1.1001,1,,,,,,,,,,,,0,131,5,5,2214,2214,absent_patch/patch0002214.jpg,absent_patch/patch0002214.jpg,,,,,,,,,,,,,,,,,,,,-0.041666667,0.104629601,1,0,0,response7disk,23,0.001851908,0.002777778,1,0,0,center_square,0,22,22,115,1,,,,,,,,,,,,,,,,,,,,,,,
594366,001,2022-11-21_24h55.53.414,Info_measure_main_exp,2022.2.2,Win32,59.60896519,,,,,,,,,,,,,,,,,,masks/mask_004.jpg,,,,,,,,,,,,,,,,,,,,,,,,,,,,,,,,,,,,,,,,,,,0,0,0,3,1,,,,,,,,,,,,,,,,,,,,,,,,,,,,,,,,,,,,,,,,,,,,,,
594366,001,2022-11-21_24h55.53.414,Info_measure_main_exp,2022.2.2,Win32,59.60896519,,,,,,,,,,,,,,,,,,masks/mask_002.jpg,,,,,,,,,,,,,,,,,,,,,,,,,,,,,,,,,,,,,,,,,,,0,1,1,1,1,,,,,,,,,,,,,,,,,,,,,,,,,,,,,,,,,,,,,,,,,,,,,,
594366,001,2022-11-21_24h55.53.414,Info_measure_main_exp,2022.2.2,Win32,59.60896519,,,,,,,,,,,,,,,,,,masks/mask_003.jpg,,,,,,,,,,,,,,,,,,,,,,,,,,,,,,,,,,,,,,,,,,,0,2,2,2,1,,,,,,,,,,,,,,,,,,,,,,,,,,,,,,,,,,,,,,,,,,,,,,
594366,001,2022-11-21_24h55.53.414,Info_measure_main_exp,2022.2.2,Win32,59.60896519,,,,,,,,,,,,,,,,,,masks/mask_001.jpg,,,,,,,,,,,,,,,,,,,,,,,,,,,,,,,,,,,,,,,,,,,0,3,3,0,1,,,,,,,,,,,,,,,,,,,,,,,,,,,,,,,,,,,,,,,,,,,,,,
594366,001,2022-11-21_24h55.53.414,Info_measure_main_exp,2022.2.2,Win32,59.60896519,,,,,,,,,,,,,,,,,,masks/mask_005.jpg,,,,,,,,,,,,,,,,,,,,,,,,,,,,,,,,,,,,,,,,,,,0,4,4,4,1,,,,,,,,,,,,,,,,,,,,,,,,,,,,,,,,,,,,,,,,,,,,,,
594366,001,2022-11-21_24h55.53.414,Info_measure_main_exp,2022.2.2,Win32,59.60896519,,,,,,,,,,,,,,,,,,masks/mask_005.jpg,,,,,,,,,,,,,,,,,,,,,,,,,,,,,,,,,,,,,,,,,,,,,,,,0,0,0,4,1,,,,,,,,,,,,,,,,,,,,,,,,,,,,,,,,,,,,,,,,,
594366,001,2022-11-21_24h55.53.414,Info_measure_main_exp,2022.2.2,Win32,59.60896519,,,,,,,,,,,,,,,,,,masks/mask_001.jpg,,,,,,,,,,,,,,,,,,,,,,,,,,,,,,,,,,,,,,,,,,,,,,,,0,1,1,0,1,,,,,,,,,,,,,,,,,,,,,,,,,,,,,,,,,,,,,,,,,
594366,001,2022-11-21_24h55.53.414,Info_measure_main_exp,2022.2.2,Win32,59.60896519,,,,,,,,,,,,,,,,,,masks/mask_003.jpg,,,,,,,,,,,,,,,,,,,,,,,,,,,,,,,,,,,,,,,,,,,,,,,,0,2,2,2,1,,,,,,,,,,,,,,,,,,,,,,,,,,,,,,,,,,,,,,,,,
594366,001,2022-11-21_24h55.53.414,Info_measure_main_exp,2022.2.2,Win32,59.60896519,,,,,,,,,,,,,,,,,,masks/mask_002.jpg,,,,,,,,,,,,,,,,,,,,,,,,,,,,,,,,,,,,,,,,,,,,,,,,0,3,3,1,1,,,,,,,,,,,,,,,,,,,,,,,,,,,,,,,,,,,,,,,,,
594366,001,2022-11-21_24h55.53.414,Info_measure_main_exp,2022.2.2,Win32,59.60896519,,,,,,,,,,,,,,,,,,masks/mask_004.jpg,,,,,,,,,,,,,,,,,,,,,,,,,,,,,,,,,,,,,,,,,,,,,,,,0,4,4,3,1,,,,,,,,,,,,,,,,,,,,,,,,,,,,,,,,,,,,,,,,,
594366,001,2022-11-21_24h55.53.414,Info_measure_main_exp,2022.2.2,Win32,59.60896519,,,,,,,,,,,,,,,,,,,,,,,,,,,,,,3,1.5505,1,,,,,,,,,,,,0,131,5,5,1950,2178,absent_patch/patch0001950.jpg,absent_patch/patch0002178.jpg,,,,,,,,,,,,,,,,,,,,-0.060185157,-0.112962977,1,0,0,response5disk,24,0.008333333,-0.002777778,1,0,0,center_square,0,23,23,61,1,,,,,,,,,,,,,,,,,,,,,,,
594366,001,2022-11-21_24h55.53.414,Info_measure_main_exp,2022.2.2,Win32,59.60896519,,,,,,,,,,,,,,,,,,masks/mask_005.jpg,,,,,,,,,,,,,,,,,,,,,,,,,,,,,,,,,,,,,,,,,,,0,0,0,4,1,,,,,,,,,,,,,,,,,,,,,,,,,,,,,,,,,,,,,,,,,,,,,,
594366,001,2022-11-21_24h55.53.414,Info_measure_main_exp,2022.2.2,Win32,59.60896519,,,,,,,,,,,,,,,,,,masks/mask_001.jpg,,,,,,,,,,,,,,,,,,,,,,,,,,,,,,,,,,,,,,,,,,,0,1,1,0,1,,,,,,,,,,,,,,,,,,,,,,,,,,,,,,,,,,,,,,,,,,,,,,
594366,001,2022-11-21_24h55.53.414,Info_measure_main_exp,2022.2.2,Win32,59.60896519,,,,,,,,,,,,,,,,,,masks/mask_002.jpg,,,,,,,,,,,,,,,,,,,,,,,,,,,,,,,,,,,,,,,,,,,0,2,2,1,1,,,,,,,,,,,,,,,,,,,,,,,,,,,,,,,,,,,,,,,,,,,,,,
594366,001,2022-11-21_24h55.53.414,Info_measure_main_exp,2022.2.2,Win32,59.60896519,,,,,,,,,,,,,,,,,,masks/mask_004.jpg,,,,,,,,,,,,,,,,,,,,,,,,,,,,,,,,,,,,,,,,,,,0,3,3,3,1,,,,,,,,,,,,,,,,,,,,,,,,,,,,,,,,,,,,,,,,,,,,,,
594366,001,2022-11-21_24h55.53.414,Info_measure_main_exp,2022.2.2,Win32,59.60896519,,,,,,,,,,,,,,,,,,masks/mask_003.jpg,,,,,,,,,,,,,,,,,,,,,,,,,,,,,,,,,,,,,,,,,,,0,4,4,2,1,,,,,,,,,,,,,,,,,,,,,,,,,,,,,,,,,,,,,,,,,,,,,,
594366,001,2022-11-21_24h55.53.414,Info_measure_main_exp,2022.2.2,Win32,59.60896519,,,,,,,,,,,,,,,,,,masks/mask_001.jpg,,,,,,,,,,,,,,,,,,,,,,,,,,,,,,,,,,,,,,,,,,,,,,,,0,0,0,0,1,,,,,,,,,,,,,,,,,,,,,,,,,,,,,,,,,,,,,,,,,
594366,001,2022-11-21_24h55.53.414,Info_measure_main_exp,2022.2.2,Win32,59.60896519,,,,,,,,,,,,,,,,,,masks/mask_004.jpg,,,,,,,,,,,,,,,,,,,,,,,,,,,,,,,,,,,,,,,,,,,,,,,,0,1,1,3,1,,,,,,,,,,,,,,,,,,,,,,,,,,,,,,,,,,,,,,,,,
594366,001,2022-11-21_24h55.53.414,Info_measure_main_exp,2022.2.2,Win32,59.60896519,,,,,,,,,,,,,,,,,,masks/mask_002.jpg,,,,,,,,,,,,,,,,,,,,,,,,,,,,,,,,,,,,,,,,,,,,,,,,0,2,2,1,1,,,,,,,,,,,,,,,,,,,,,,,,,,,,,,,,,,,,,,,,,
594366,001,2022-11-21_24h55.53.414,Info_measure_main_exp,2022.2.2,Win32,59.60896519,,,,,,,,,,,,,,,,,,masks/mask_003.jpg,,,,,,,,,,,,,,,,,,,,,,,,,,,,,,,,,,,,,,,,,,,,,,,,0,3,3,2,1,,,,,,,,,,,,,,,,,,,,,,,,,,,,,,,,,,,,,,,,,
594366,001,2022-11-21_24h55.53.414,Info_measure_main_exp,2022.2.2,Win32,59.60896519,,,,,,,,,,,,,,,,,,masks/mask_005.jpg,,,,,,,,,,,,,,,,,,,,,,,,,,,,,,,,,,,,,,,,,,,,,,,,0,4,4,4,1,,,,,,,,,,,,,,,,,,,,,,,,,,,,,,,,,,,,,,,,,
594366,001,2022-11-21_24h55.53.414,Info_measure_main_exp,2022.2.2,Win32,59.60896519,,,,,,,,,,,,,,,,,,,,,,,,,,,,,,4,2.0487,1,,,,,,,,,,,,0,131,5,5,2178,2238,absent_patch/patch0002178.jpg,absent_patch/patch0002238.jpg,,,,,,,,,,,,,,,,,,,,0.028703732,-0.095370399,1,0,0,response3disk,25,-0.004629601,-0.012037065,1,0,0,center_square,0,24,24,57,1,,,,,,,,,,,,,,,,,,,,,,,
594366,001,2022-11-21_24h55.53.414,Info_measure_main_exp,2022.2.2,Win32,59.60896519,,,,,,,,,,,,,,,,,,masks/mask_005.jpg,,,,,,,,,,,,,,,,,,,,,,,,,,,,,,,,,,,,,,,,,,,0,0,0,4,1,,,,,,,,,,,,,,,,,,,,,,,,,,,,,,,,,,,,,,,,,,,,,,
594366,001,2022-11-21_24h55.53.414,Info_measure_main_exp,2022.2.2,Win32,59.60896519,,,,,,,,,,,,,,,,,,masks/mask_003.jpg,,,,,,,,,,,,,,,,,,,,,,,,,,,,,,,,,,,,,,,,,,,0,1,1,2,1,,,,,,,,,,,,,,,,,,,,,,,,,,,,,,,,,,,,,,,,,,,,,,
594366,001,2022-11-21_24h55.53.414,Info_measure_main_exp,2022.2.2,Win32,59.60896519,,,,,,,,,,,,,,,,,,masks/mask_001.jpg,,,,,,,,,,,,,,,,,,,,,,,,,,,,,,,,,,,,,,,,,,,0,2,2,0,1,,,,,,,,,,,,,,,,,,,,,,,,,,,,,,,,,,,,,,,,,,,,,,
594366,001,2022-11-21_24h55.53.414,Info_measure_main_exp,2022.2.2,Win32,59.60896519,,,,,,,,,,,,,,,,,,masks/mask_004.jpg,,,,,,,,,,,,,,,,,,,,,,,,,,,,,,,,,,,,,,,,,,,0,3,3,3,1,,,,,,,,,,,,,,,,,,,,,,,,,,,,,,,,,,,,,,,,,,,,,,
594366,001,2022-11-21_24h55.53.414,Info_measure_main_exp,2022.2.2,Win32,59.60896519,,,,,,,,,,,,,,,,,,masks/mask_002.jpg,,,,,,,,,,,,,,,,,,,,,,,,,,,,,,,,,,,,,,,,,,,0,4,4,1,1,,,,,,,,,,,,,,,,,,,,,,,,,,,,,,,,,,,,,,,,,,,,,,
594366,001,2022-11-21_24h55.53.414,Info_measure_main_exp,2022.2.2,Win32,59.60896519,,,,,,,,,,,,,,,,,,masks/mask_004.jpg,,,,,,,,,,,,,,,,,,,,,,,,,,,,,,,,,,,,,,,,,,,,,,,,0,0,0,3,1,,,,,,,,,,,,,,,,,,,,,,,,,,,,,,,,,,,,,,,,,
594366,001,2022-11-21_24h55.53.414,Info_measure_main_exp,2022.2.2,Win32,59.60896519,,,,,,,,,,,,,,,,,,masks/mask_002.jpg,,,,,,,,,,,,,,,,,,,,,,,,,,,,,,,,,,,,,,,,,,,,,,,,0,1,1,1,1,,,,,,,,,,,,,,,,,,,,,,,,,,,,,,,,,,,,,,,,,
594366,001,2022-11-21_24h55.53.414,Info_measure_main_exp,2022.2.2,Win32,59.60896519,,,,,,,,,,,,,,,,,,masks/mask_003.jpg,,,,,,,,,,,,,,,,,,,,,,,,,,,,,,,,,,,,,,,,,,,,,,,,0,2,2,2,1,,,,,,,,,,,,,,,,,,,,,,,,,,,,,,,,,,,,,,,,,
594366,001,2022-11-21_24h55.53.414,Info_measure_main_exp,2022.2.2,Win32,59.60896519,,,,,,,,,,,,,,,,,,masks/mask_005.jpg,,,,,,,,,,,,,,,,,,,,,,,,,,,,,,,,,,,,,,,,,,,,,,,,0,3,3,4,1,,,,,,,,,,,,,,,,,,,,,,,,,,,,,,,,,,,,,,,,,
594366,001,2022-11-21_24h55.53.414,Info_measure_main_exp,2022.2.2,Win32,59.60896519,,,,,,,,,,,,,,,,,,masks/mask_001.jpg,,,,,,,,,,,,,,,,,,,,,,,,,,,,,,,,,,,,,,,,,,,,,,,,0,4,4,0,1,,,,,,,,,,,,,,,,,,,,,,,,,,,,,,,,,,,,,,,,,
594366,001,2022-11-21_24h55.53.414,Info_measure_main_exp,2022.2.2,Win32,59.60896519,,,,,,,,,,,,,,,,,,,,,,,,,,,,,,7,2.1155,1,,,,,,,,,,,,1,131,5,5,1950,1,absent_patch/patch0001950.jpg,present_patch/cong_131_5_a.jpg,,,,,,,,,,,,,,,,,,,,0.040740797,0.092592578,1,0,0,response1disk,26,-0.000925869,0.005555556,1,0,0,center_square,0,25,25,39,1,,,,,,,,,,,,,,,,,,,,,,,
594366,001,2022-11-21_24h55.53.414,Info_measure_main_exp,2022.2.2,Win32,59.60896519,,,,,,,,,,,,,,,,,,masks/mask_003.jpg,,,,,,,,,,,,,,,,,,,,,,,,,,,,,,,,,,,,,,,,,,,0,0,0,2,1,,,,,,,,,,,,,,,,,,,,,,,,,,,,,,,,,,,,,,,,,,,,,,
594366,001,2022-11-21_24h55.53.414,Info_measure_main_exp,2022.2.2,Win32,59.60896519,,,,,,,,,,,,,,,,,,masks/mask_002.jpg,,,,,,,,,,,,,,,,,,,,,,,,,,,,,,,,,,,,,,,,,,,0,1,1,1,1,,,,,,,,,,,,,,,,,,,,,,,,,,,,,,,,,,,,,,,,,,,,,,
594366,001,2022-11-21_24h55.53.414,Info_measure_main_exp,2022.2.2,Win32,59.60896519,,,,,,,,,,,,,,,,,,masks/mask_005.jpg,,,,,,,,,,,,,,,,,,,,,,,,,,,,,,,,,,,,,,,,,,,0,2,2,4,1,,,,,,,,,,,,,,,,,,,,,,,,,,,,,,,,,,,,,,,,,,,,,,
594366,001,2022-11-21_24h55.53.414,Info_measure_main_exp,2022.2.2,Win32,59.60896519,,,,,,,,,,,,,,,,,,masks/mask_004.jpg,,,,,,,,,,,,,,,,,,,,,,,,,,,,,,,,,,,,,,,,,,,0,3,3,3,1,,,,,,,,,,,,,,,,,,,,,,,,,,,,,,,,,,,,,,,,,,,,,,
594366,001,2022-11-21_24h55.53.414,Info_measure_main_exp,2022.2.2,Win32,59.60896519,,,,,,,,,,,,,,,,,,masks/mask_001.jpg,,,,,,,,,,,,,,,,,,,,,,,,,,,,,,,,,,,,,,,,,,,0,4,4,0,1,,,,,,,,,,,,,,,,,,,,,,,,,,,,,,,,,,,,,,,,,,,,,,
594366,001,2022-11-21_24h55.53.414,Info_measure_main_exp,2022.2.2,Win32,59.60896519,,,,,,,,,,,,,,,,,,masks/mask_003.jpg,,,,,,,,,,,,,,,,,,,,,,,,,,,,,,,,,,,,,,,,,,,,,,,,0,0,0,2,1,,,,,,,,,,,,,,,,,,,,,,,,,,,,,,,,,,,,,,,,,
594366,001,2022-11-21_24h55.53.414,Info_measure_main_exp,2022.2.2,Win32,59.60896519,,,,,,,,,,,,,,,,,,masks/mask_002.jpg,,,,,,,,,,,,,,,,,,,,,,,,,,,,,,,,,,,,,,,,,,,,,,,,0,1,1,1,1,,,,,,,,,,,,,,,,,,,,,,,,,,,,,,,,,,,,,,,,,
594366,001,2022-11-21_24h55.53.414,Info_measure_main_exp,2022.2.2,Win32,59.60896519,,,,,,,,,,,,,,,,,,masks/mask_001.jpg,,,,,,,,,,,,,,,,,,,,,,,,,,,,,,,,,,,,,,,,,,,,,,,,0,2,2,0,1,,,,,,,,,,,,,,,,,,,,,,,,,,,,,,,,,,,,,,,,,
594366,001,2022-11-21_24h55.53.414,Info_measure_main_exp,2022.2.2,Win32,59.60896519,,,,,,,,,,,,,,,,,,masks/mask_004.jpg,,,,,,,,,,,,,,,,,,,,,,,,,,,,,,,,,,,,,,,,,,,,,,,,0,3,3,3,1,,,,,,,,,,,,,,,,,,,,,,,,,,,,,,,,,,,,,,,,,
594366,001,2022-11-21_24h55.53.414,Info_measure_main_exp,2022.2.2,Win32,59.60896519,,,,,,,,,,,,,,,,,,masks/mask_005.jpg,,,,,,,,,,,,,,,,,,,,,,,,,,,,,,,,,,,,,,,,,,,,,,,,0,4,4,4,1,,,,,,,,,,,,,,,,,,,,,,,,,,,,,,,,,,,,,,,,,
594366,001,2022-11-21_24h55.53.414,Info_measure_main_exp,2022.2.2,Win32,59.60896519,,,,,,,,,,,,,,,,,,,,,,,,,,,,,,4,1.6994,1,,,,,,,,,,,,0,131,5,5,2250,1950,absent_patch/patch0002250.jpg,absent_patch/patch0001950.jpg,,,,,,,,,,,,,,,,,,,,0.016666667,-0.078703732,1,0,0,response3disk,27,-0.002777778,0.010185157,1,0,0,center_square,0,26,26,16,1,,,,,,,,,,,,,,,,,,,,,,,
594366,001,2022-11-21_24h55.53.414,Info_measure_main_exp,2022.2.2,Win32,59.60896519,,,,,,,,,,,,,,,,,,masks/mask_002.jpg,,,,,,,,,,,,,,,,,,,,,,,,,,,,,,,,,,,,,,,,,,,0,0,0,1,1,,,,,,,,,,,,,,,,,,,,,,,,,,,,,,,,,,,,,,,,,,,,,,
594366,001,2022-11-21_24h55.53.414,Info_measure_main_exp,2022.2.2,Win32,59.60896519,,,,,,,,,,,,,,,,,,masks/mask_005.jpg,,,,,,,,,,,,,,,,,,,,,,,,,,,,,,,,,,,,,,,,,,,0,1,1,4,1,,,,,,,,,,,,,,,,,,,,,,,,,,,,,,,,,,,,,,,,,,,,,,
594366,001,2022-11-21_24h55.53.414,Info_measure_main_exp,2022.2.2,Win32,59.60896519,,,,,,,,,,,,,,,,,,masks/mask_001.jpg,,,,,,,,,,,,,,,,,,,,,,,,,,,,,,,,,,,,,,,,,,,0,2,2,0,1,,,,,,,,,,,,,,,,,,,,,,,,,,,,,,,,,,,,,,,,,,,,,,
594366,001,2022-11-21_24h55.53.414,Info_measure_main_exp,2022.2.2,Win32,59.60896519,,,,,,,,,,,,,,,,,,masks/mask_004.jpg,,,,,,,,,,,,,,,,,,,,,,,,,,,,,,,,,,,,,,,,,,,0,3,3,3,1,,,,,,,,,,,,,,,,,,,,,,,,,,,,,,,,,,,,,,,,,,,,,,
594366,001,2022-11-21_24h55.53.414,Info_measure_main_exp,2022.2.2,Win32,59.60896519,,,,,,,,,,,,,,,,,,masks/mask_003.jpg,,,,,,,,,,,,,,,,,,,,,,,,,,,,,,,,,,,,,,,,,,,0,4,4,2,1,,,,,,,,,,,,,,,,,,,,,,,,,,,,,,,,,,,,,,,,,,,,,,
594366,001,2022-11-21_24h55.53.414,Info_measure_main_exp,2022.2.2,Win32,59.60896519,,,,,,,,,,,,,,,,,,masks/mask_002.jpg,,,,,,,,,,,,,,,,,,,,,,,,,,,,,,,,,,,,,,,,,,,,,,,,0,0,0,1,1,,,,,,,,,,,,,,,,,,,,,,,,,,,,,,,,,,,,,,,,,
594366,001,2022-11-21_24h55.53.414,Info_measure_main_exp,2022.2.2,Win32,59.60896519,,,,,,,,,,,,,,,,,,masks/mask_003.jpg,,,,,,,,,,,,,,,,,,,,,,,,,,,,,,,,,,,,,,,,,,,,,,,,0,1,1,2,1,,,,,,,,,,,,,,,,,,,,,,,,,,,,,,,,,,,,,,,,,
594366,001,2022-11-21_24h55.53.414,Info_measure_main_exp,2022.2.2,Win32,59.60896519,,,,,,,,,,,,,,,,,,masks/mask_001.jpg,,,,,,,,,,,,,,,,,,,,,,,,,,,,,,,,,,,,,,,,,,,,,,,,0,2,2,0,1,,,,,,,,,,,,,,,,,,,,,,,,,,,,,,,,,,,,,,,,,
594366,001,2022-11-21_24h55.53.414,Info_measure_main_exp,2022.2.2,Win32,59.60896519,,,,,,,,,,,,,,,,,,masks/mask_005.jpg,,,,,,,,,,,,,,,,,,,,,,,,,,,,,,,,,,,,,,,,,,,,,,,,0,3,3,4,1,,,,,,,,,,,,,,,,,,,,,,,,,,,,,,,,,,,,,,,,,
594366,001,2022-11-21_24h55.53.414,Info_measure_main_exp,2022.2.2,Win32,59.60896519,,,,,,,,,,,,,,,,,,masks/mask_004.jpg,,,,,,,,,,,,,,,,,,,,,,,,,,,,,,,,,,,,,,,,,,,,,,,,0,4,4,3,1,,,,,,,,,,,,,,,,,,,,,,,,,,,,,,,,,,,,,,,,,
594366,001,2022-11-21_24h55.53.414,Info_measure_main_exp,2022.2.2,Win32,59.60896519,,,,,,,,,,,,,,,,,,,,,,,,,,,,,,0,1.0659,1,,,,,,,,,,,,0,131,5,5,1974,1974,absent_patch/patch0001974.jpg,absent_patch/patch0001974.jpg,,,,,,,,,,,,,,,,,,,,-0.036111111,0.090740712,1,0,0,response7disk,28,0.001851908,-0.004629644,1,0,0,center_square,0,27,27,113,1,,,,,,,,,,,,,,,,,,,,,,,
594366,001,2022-11-21_24h55.53.414,Info_measure_main_exp,2022.2.2,Win32,59.60896519,,,,,,,,,,,,,,,,,,masks/mask_001.jpg,,,,,,,,,,,,,,,,,,,,,,,,,,,,,,,,,,,,,,,,,,,0,0,0,0,1,,,,,,,,,,,,,,,,,,,,,,,,,,,,,,,,,,,,,,,,,,,,,,
594366,001,2022-11-21_24h55.53.414,Info_measure_main_exp,2022.2.2,Win32,59.60896519,,,,,,,,,,,,,,,,,,masks/mask_005.jpg,,,,,,,,,,,,,,,,,,,,,,,,,,,,,,,,,,,,,,,,,,,0,1,1,4,1,,,,,,,,,,,,,,,,,,,,,,,,,,,,,,,,,,,,,,,,,,,,,,
594366,001,2022-11-21_24h55.53.414,Info_measure_main_exp,2022.2.2,Win32,59.60896519,,,,,,,,,,,,,,,,,,masks/mask_004.jpg,,,,,,,,,,,,,,,,,,,,,,,,,,,,,,,,,,,,,,,,,,,0,2,2,3,1,,,,,,,,,,,,,,,,,,,,,,,,,,,,,,,,,,,,,,,,,,,,,,
594366,001,2022-11-21_24h55.53.414,Info_measure_main_exp,2022.2.2,Win32,59.60896519,,,,,,,,,,,,,,,,,,masks/mask_003.jpg,,,,,,,,,,,,,,,,,,,,,,,,,,,,,,,,,,,,,,,,,,,0,3,3,2,1,,,,,,,,,,,,,,,,,,,,,,,,,,,,,,,,,,,,,,,,,,,,,,
594366,001,2022-11-21_24h55.53.414,Info_measure_main_exp,2022.2.2,Win32,59.60896519,,,,,,,,,,,,,,,,,,masks/mask_002.jpg,,,,,,,,,,,,,,,,,,,,,,,,,,,,,,,,,,,,,,,,,,,0,4,4,1,1,,,,,,,,,,,,,,,,,,,,,,,,,,,,,,,,,,,,,,,,,,,,,,
594366,001,2022-11-21_24h55.53.414,Info_measure_main_exp,2022.2.2,Win32,59.60896519,,,,,,,,,,,,,,,,,,masks/mask_005.jpg,,,,,,,,,,,,,,,,,,,,,,,,,,,,,,,,,,,,,,,,,,,,,,,,0,0,0,4,1,,,,,,,,,,,,,,,,,,,,,,,,,,,,,,,,,,,,,,,,,
594366,001,2022-11-21_24h55.53.414,Info_measure_main_exp,2022.2.2,Win32,59.60896519,,,,,,,,,,,,,,,,,,masks/mask_003.jpg,,,,,,,,,,,,,,,,,,,,,,,,,,,,,,,,,,,,,,,,,,,,,,,,0,1,1,2,1,,,,,,,,,,,,,,,,,,,,,,,,,,,,,,,,,,,,,,,,,
594366,001,2022-11-21_24h55.53.414,Info_measure_main_exp,2022.2.2,Win32,59.60896519,,,,,,,,,,,,,,,,,,masks/mask_002.jpg,,,,,,,,,,,,,,,,,,,,,,,,,,,,,,,,,,,,,,,,,,,,,,,,0,2,2,1,1,,,,,,,,,,,,,,,,,,,,,,,,,,,,,,,,,,,,,,,,,
594366,001,2022-11-21_24h55.53.414,Info_measure_main_exp,2022.2.2,Win32,59.60896519,,,,,,,,,,,,,,,,,,masks/mask_004.jpg,,,,,,,,,,,,,,,,,,,,,,,,,,,,,,,,,,,,,,,,,,,,,,,,0,3,3,3,1,,,,,,,,,,,,,,,,,,,,,,,,,,,,,,,,,,,,,,,,,
594366,001,2022-11-21_24h55.53.414,Info_measure_main_exp,2022.2.2,Win32,59.60896519,,,,,,,,,,,,,,,,,,masks/mask_001.jpg,,,,,,,,,,,,,,,,,,,,,,,,,,,,,,,,,,,,,,,,,,,,,,,,0,4,4,0,1,,,,,,,,,,,,,,,,,,,,,,,,,,,,,,,,,,,,,,,,,
594366,001,2022-11-21_24h55.53.414,Info_measure_main_exp,2022.2.2,Win32,59.60896519,,,,,,,,,,,,,,,,,,,,,,,,,,,,,,3,1.2827,1,,,,,,,,,,,,1,131,5,5,2250,1,absent_patch/patch0002250.jpg,present_patch/cong_131_5_a.jpg,,,,,,,,,,,,,,,,,,,,-0.017592536,-0.114814843,1,0,0,response5disk,29,0.00648151,0.004629601,1,0,0,center_square,0,28,28,5,1,,,,,,,,,,,,,,,,,,,,,,,
594366,001,2022-11-21_24h55.53.414,Info_measure_main_exp,2022.2.2,Win32,59.60896519,,,,,,,,,,,,,,,,,,masks/mask_003.jpg,,,,,,,,,,,,,,,,,,,,,,,,,,,,,,,,,,,,,,,,,,,0,0,0,2,1,,,,,,,,,,,,,,,,,,,,,,,,,,,,,,,,,,,,,,,,,,,,,,
594366,001,2022-11-21_24h55.53.414,Info_measure_main_exp,2022.2.2,Win32,59.60896519,,,,,,,,,,,,,,,,,,masks/mask_005.jpg,,,,,,,,,,,,,,,,,,,,,,,,,,,,,,,,,,,,,,,,,,,0,1,1,4,1,,,,,,,,,,,,,,,,,,,,,,,,,,,,,,,,,,,,,,,,,,,,,,
594366,001,2022-11-21_24h55.53.414,Info_measure_main_exp,2022.2.2,Win32,59.60896519,,,,,,,,,,,,,,,,,,masks/mask_002.jpg,,,,,,,,,,,,,,,,,,,,,,,,,,,,,,,,,,,,,,,,,,,0,2,2,1,1,,,,,,,,,,,,,,,,,,,,,,,,,,,,,,,,,,,,,,,,,,,,,,
594366,001,2022-11-21_24h55.53.414,Info_measure_main_exp,2022.2.2,Win32,59.60896519,,,,,,,,,,,,,,,,,,masks/mask_001.jpg,,,,,,,,,,,,,,,,,,,,,,,,,,,,,,,,,,,,,,,,,,,0,3,3,0,1,,,,,,,,,,,,,,,,,,,,,,,,,,,,,,,,,,,,,,,,,,,,,,
594366,001,2022-11-21_24h55.53.414,Info_measure_main_exp,2022.2.2,Win32,59.60896519,,,,,,,,,,,,,,,,,,masks/mask_004.jpg,,,,,,,,,,,,,,,,,,,,,,,,,,,,,,,,,,,,,,,,,,,0,4,4,3,1,,,,,,,,,,,,,,,,,,,,,,,,,,,,,,,,,,,,,,,,,,,,,,
594366,001,2022-11-21_24h55.53.414,Info_measure_main_exp,2022.2.2,Win32,59.60896519,,,,,,,,,,,,,,,,,,masks/mask_001.jpg,,,,,,,,,,,,,,,,,,,,,,,,,,,,,,,,,,,,,,,,,,,,,,,,0,0,0,0,1,,,,,,,,,,,,,,,,,,,,,,,,,,,,,,,,,,,,,,,,,
594366,001,2022-11-21_24h55.53.414,Info_measure_main_exp,2022.2.2,Win32,59.60896519,,,,,,,,,,,,,,,,,,masks/mask_002.jpg,,,,,,,,,,,,,,,,,,,,,,,,,,,,,,,,,,,,,,,,,,,,,,,,0,1,1,1,1,,,,,,,,,,,,,,,,,,,,,,,,,,,,,,,,,,,,,,,,,
594366,001,2022-11-21_24h55.53.414,Info_measure_main_exp,2022.2.2,Win32,59.60896519,,,,,,,,,,,,,,,,,,masks/mask_004.jpg,,,,,,,,,,,,,,,,,,,,,,,,,,,,,,,,,,,,,,,,,,,,,,,,0,2,2,3,1,,,,,,,,,,,,,,,,,,,,,,,,,,,,,,,,,,,,,,,,,
594366,001,2022-11-21_24h55.53.414,Info_measure_main_exp,2022.2.2,Win32,59.60896519,,,,,,,,,,,,,,,,,,masks/mask_003.jpg,,,,,,,,,,,,,,,,,,,,,,,,,,,,,,,,,,,,,,,,,,,,,,,,0,3,3,2,1,,,,,,,,,,,,,,,,,,,,,,,,,,,,,,,,,,,,,,,,,
594366,001,2022-11-21_24h55.53.414,Info_measure_main_exp,2022.2.2,Win32,59.60896519,,,,,,,,,,,,,,,,,,masks/mask_005.jpg,,,,,,,,,,,,,,,,,,,,,,,,,,,,,,,,,,,,,,,,,,,,,,,,0,4,4,4,1,,,,,,,,,,,,,,,,,,,,,,,,,,,,,,,,,,,,,,,,,
594366,001,2022-11-21_24h55.53.414,Info_measure_main_exp,2022.2.2,Win32,59.60896519,,,,,,,,,,,,,,,,,,,,,,,,,,,,,,6,1.5494,1,,,,,,,,,,,,0,131,5,5,2142,2154,absent_patch/patch0002142.jpg,absent_patch/patch0002154.jpg,,,,,,,,,,,,,,,,,,,,0.087037065,0.052777778,1,0,0,response1disk,30,-0.003703647,0.002777778,1,0,0,center_square,0,29,29,9,1,,,,,,,,,,,,,,,,,,,,,,,
594366,001,2022-11-21_24h55.53.414,Info_measure_main_exp,2022.2.2,Win32,59.60896519,,,,,,,,,,,,,,,,,,masks/mask_001.jpg,,,,,,,,,,,,,,,,,,,,,,,,,,,,,,,,,,,,,,,,,,,0,0,0,0,1,,,,,,,,,,,,,,,,,,,,,,,,,,,,,,,,,,,,,,,,,,,,,,
594366,001,2022-11-21_24h55.53.414,Info_measure_main_exp,2022.2.2,Win32,59.60896519,,,,,,,,,,,,,,,,,,masks/mask_002.jpg,,,,,,,,,,,,,,,,,,,,,,,,,,,,,,,,,,,,,,,,,,,0,1,1,1,1,,,,,,,,,,,,,,,,,,,,,,,,,,,,,,,,,,,,,,,,,,,,,,
594366,001,2022-11-21_24h55.53.414,Info_measure_main_exp,2022.2.2,Win32,59.60896519,,,,,,,,,,,,,,,,,,masks/mask_005.jpg,,,,,,,,,,,,,,,,,,,,,,,,,,,,,,,,,,,,,,,,,,,0,2,2,4,1,,,,,,,,,,,,,,,,,,,,,,,,,,,,,,,,,,,,,,,,,,,,,,
594366,001,2022-11-21_24h55.53.414,Info_measure_main_exp,2022.2.2,Win32,59.60896519,,,,,,,,,,,,,,,,,,masks/mask_003.jpg,,,,,,,,,,,,,,,,,,,,,,,,,,,,,,,,,,,,,,,,,,,0,3,3,2,1,,,,,,,,,,,,,,,,,,,,,,,,,,,,,,,,,,,,,,,,,,,,,,
594366,001,2022-11-21_24h55.53.414,Info_measure_main_exp,2022.2.2,Win32,59.60896519,,,,,,,,,,,,,,,,,,masks/mask_004.jpg,,,,,,,,,,,,,,,,,,,,,,,,,,,,,,,,,,,,,,,,,,,0,4,4,3,1,,,,,,,,,,,,,,,,,,,,,,,,,,,,,,,,,,,,,,,,,,,,,,
594366,001,2022-11-21_24h55.53.414,Info_measure_main_exp,2022.2.2,Win32,59.60896519,,,,,,,,,,,,,,,,,,masks/mask_003.jpg,,,,,,,,,,,,,,,,,,,,,,,,,,,,,,,,,,,,,,,,,,,,,,,,0,0,0,2,1,,,,,,,,,,,,,,,,,,,,,,,,,,,,,,,,,,,,,,,,,
594366,001,2022-11-21_24h55.53.414,Info_measure_main_exp,2022.2.2,Win32,59.60896519,,,,,,,,,,,,,,,,,,masks/mask_005.jpg,,,,,,,,,,,,,,,,,,,,,,,,,,,,,,,,,,,,,,,,,,,,,,,,0,1,1,4,1,,,,,,,,,,,,,,,,,,,,,,,,,,,,,,,,,,,,,,,,,
594366,001,2022-11-21_24h55.53.414,Info_measure_main_exp,2022.2.2,Win32,59.60896519,,,,,,,,,,,,,,,,,,masks/mask_001.jpg,,,,,,,,,,,,,,,,,,,,,,,,,,,,,,,,,,,,,,,,,,,,,,,,0,2,2,0,1,,,,,,,,,,,,,,,,,,,,,,,,,,,,,,,,,,,,,,,,,
594366,001,2022-11-21_24h55.53.414,Info_measure_main_exp,2022.2.2,Win32,59.60896519,,,,,,,,,,,,,,,,,,masks/mask_004.jpg,,,,,,,,,,,,,,,,,,,,,,,,,,,,,,,,,,,,,,,,,,,,,,,,0,3,3,3,1,,,,,,,,,,,,,,,,,,,,,,,,,,,,,,,,,,,,,,,,,
594366,001,2022-11-21_24h55.53.414,Info_measure_main_exp,2022.2.2,Win32,59.60896519,,,,,,,,,,,,,,,,,,masks/mask_002.jpg,,,,,,,,,,,,,,,,,,,,,,,,,,,,,,,,,,,,,,,,,,,,,,,,0,4,4,1,1,,,,,,,,,,,,,,,,,,,,,,,,,,,,,,,,,,,,,,,,,
594366,001,2022-11-21_24h55.53.414,Info_measure_main_exp,2022.2.2,Win32,59.60896519,,,,,,,,,,,,,,,,,,,,,,,,,,,,,,7,1.4063,1,,,,,,,,,,,,0,131,5,5,2166,2154,absent_patch/patch0002166.jpg,absent_patch/patch0002154.jpg,,,,,,,,,,,,,,,,,,,,0.050925954,0.090740712,1,0,0,response1disk,31,-0.015740712,-0.011111111,1,0,0,center_square,0,30,30,79,1,,,,,,,,,,,,,,,,,,,,,,,
594366,001,2022-11-21_24h55.53.414,Info_measure_main_exp,2022.2.2,Win32,59.60896519,,,,,,,,,,,,,,,,,,masks/mask_004.jpg,,,,,,,,,,,,,,,,,,,,,,,,,,,,,,,,,,,,,,,,,,,0,0,0,3,1,,,,,,,,,,,,,,,,,,,,,,,,,,,,,,,,,,,,,,,,,,,,,,
594366,001,2022-11-21_24h55.53.414,Info_measure_main_exp,2022.2.2,Win32,59.60896519,,,,,,,,,,,,,,,,,,masks/mask_001.jpg,,,,,,,,,,,,,,,,,,,,,,,,,,,,,,,,,,,,,,,,,,,0,1,1,0,1,,,,,,,,,,,,,,,,,,,,,,,,,,,,,,,,,,,,,,,,,,,,,,
594366,001,2022-11-21_24h55.53.414,Info_measure_main_exp,2022.2.2,Win32,59.60896519,,,,,,,,,,,,,,,,,,masks/mask_003.jpg,,,,,,,,,,,,,,,,,,,,,,,,,,,,,,,,,,,,,,,,,,,0,2,2,2,1,,,,,,,,,,,,,,,,,,,,,,,,,,,,,,,,,,,,,,,,,,,,,,
594366,001,2022-11-21_24h55.53.414,Info_measure_main_exp,2022.2.2,Win32,59.60896519,,,,,,,,,,,,,,,,,,masks/mask_002.jpg,,,,,,,,,,,,,,,,,,,,,,,,,,,,,,,,,,,,,,,,,,,0,3,3,1,1,,,,,,,,,,,,,,,,,,,,,,,,,,,,,,,,,,,,,,,,,,,,,,
594366,001,2022-11-21_24h55.53.414,Info_measure_main_exp,2022.2.2,Win32,59.60896519,,,,,,,,,,,,,,,,,,masks/mask_005.jpg,,,,,,,,,,,,,,,,,,,,,,,,,,,,,,,,,,,,,,,,,,,0,4,4,4,1,,,,,,,,,,,,,,,,,,,,,,,,,,,,,,,,,,,,,,,,,,,,,,
594366,001,2022-11-21_24h55.53.414,Info_measure_main_exp,2022.2.2,Win32,59.60896519,,,,,,,,,,,,,,,,,,masks/mask_001.jpg,,,,,,,,,,,,,,,,,,,,,,,,,,,,,,,,,,,,,,,,,,,,,,,,0,0,0,0,1,,,,,,,,,,,,,,,,,,,,,,,,,,,,,,,,,,,,,,,,,
594366,001,2022-11-21_24h55.53.414,Info_measure_main_exp,2022.2.2,Win32,59.60896519,,,,,,,,,,,,,,,,,,masks/mask_003.jpg,,,,,,,,,,,,,,,,,,,,,,,,,,,,,,,,,,,,,,,,,,,,,,,,0,1,1,2,1,,,,,,,,,,,,,,,,,,,,,,,,,,,,,,,,,,,,,,,,,
594366,001,2022-11-21_24h55.53.414,Info_measure_main_exp,2022.2.2,Win32,59.60896519,,,,,,,,,,,,,,,,,,masks/mask_002.jpg,,,,,,,,,,,,,,,,,,,,,,,,,,,,,,,,,,,,,,,,,,,,,,,,0,2,2,1,1,,,,,,,,,,,,,,,,,,,,,,,,,,,,,,,,,,,,,,,,,
594366,001,2022-11-21_24h55.53.414,Info_measure_main_exp,2022.2.2,Win32,59.60896519,,,,,,,,,,,,,,,,,,masks/mask_004.jpg,,,,,,,,,,,,,,,,,,,,,,,,,,,,,,,,,,,,,,,,,,,,,,,,0,3,3,3,1,,,,,,,,,,,,,,,,,,,,,,,,,,,,,,,,,,,,,,,,,
594366,001,2022-11-21_24h55.53.414,Info_measure_main_exp,2022.2.2,Win32,59.60896519,,,,,,,,,,,,,,,,,,masks/mask_005.jpg,,,,,,,,,,,,,,,,,,,,,,,,,,,,,,,,,,,,,,,,,,,,,,,,0,4,4,4,1,,,,,,,,,,,,,,,,,,,,,,,,,,,,,,,,,,,,,,,,,
594366,001,2022-11-21_24h55.53.414,Info_measure_main_exp,2022.2.2,Win32,59.60896519,,,,,,,,,,,,,,,,,,,,,,,,,,,,,,4,2.6724,1,,,,,,,,,,,,0,131,5,5,2142,2190,absent_patch/patch0002142.jpg,absent_patch/patch0002190.jpg,,,,,,,,,,,,,,,,,,,,0.040740797,-0.082407422,1,0,0,response3disk,32,-0.001851824,-0.004629644,1,0,0,center_square,0,31,31,70,1,,,,,,,,,,,,,,,,,,,,,,,
594366,001,2022-11-21_24h55.53.414,Info_measure_main_exp,2022.2.2,Win32,59.60896519,,,,,,,,,,,,,,,,,,masks/mask_002.jpg,,,,,,,,,,,,,,,,,,,,,,,,,,,,,,,,,,,,,,,,,,,0,0,0,1,1,,,,,,,,,,,,,,,,,,,,,,,,,,,,,,,,,,,,,,,,,,,,,,
594366,001,2022-11-21_24h55.53.414,Info_measure_main_exp,2022.2.2,Win32,59.60896519,,,,,,,,,,,,,,,,,,masks/mask_005.jpg,,,,,,,,,,,,,,,,,,,,,,,,,,,,,,,,,,,,,,,,,,,0,1,1,4,1,,,,,,,,,,,,,,,,,,,,,,,,,,,,,,,,,,,,,,,,,,,,,,
594366,001,2022-11-21_24h55.53.414,Info_measure_main_exp,2022.2.2,Win32,59.60896519,,,,,,,,,,,,,,,,,,masks/mask_001.jpg,,,,,,,,,,,,,,,,,,,,,,,,,,,,,,,,,,,,,,,,,,,0,2,2,0,1,,,,,,,,,,,,,,,,,,,,,,,,,,,,,,,,,,,,,,,,,,,,,,
594366,001,2022-11-21_24h55.53.414,Info_measure_main_exp,2022.2.2,Win32,59.60896519,,,,,,,,,,,,,,,,,,masks/mask_004.jpg,,,,,,,,,,,,,,,,,,,,,,,,,,,,,,,,,,,,,,,,,,,0,3,3,3,1,,,,,,,,,,,,,,,,,,,,,,,,,,,,,,,,,,,,,,,,,,,,,,
594366,001,2022-11-21_24h55.53.414,Info_measure_main_exp,2022.2.2,Win32,59.60896519,,,,,,,,,,,,,,,,,,masks/mask_003.jpg,,,,,,,,,,,,,,,,,,,,,,,,,,,,,,,,,,,,,,,,,,,0,4,4,2,1,,,,,,,,,,,,,,,,,,,,,,,,,,,,,,,,,,,,,,,,,,,,,,
594366,001,2022-11-21_24h55.53.414,Info_measure_main_exp,2022.2.2,Win32,59.60896519,,,,,,,,,,,,,,,,,,masks/mask_005.jpg,,,,,,,,,,,,,,,,,,,,,,,,,,,,,,,,,,,,,,,,,,,,,,,,0,0,0,4,1,,,,,,,,,,,,,,,,,,,,,,,,,,,,,,,,,,,,,,,,,
594366,001,2022-11-21_24h55.53.414,Info_measure_main_exp,2022.2.2,Win32,59.60896519,,,,,,,,,,,,,,,,,,masks/mask_004.jpg,,,,,,,,,,,,,,,,,,,,,,,,,,,,,,,,,,,,,,,,,,,,,,,,0,1,1,3,1,,,,,,,,,,,,,,,,,,,,,,,,,,,,,,,,,,,,,,,,,
594366,001,2022-11-21_24h55.53.414,Info_measure_main_exp,2022.2.2,Win32,59.60896519,,,,,,,,,,,,,,,,,,masks/mask_003.jpg,,,,,,,,,,,,,,,,,,,,,,,,,,,,,,,,,,,,,,,,,,,,,,,,0,2,2,2,1,,,,,,,,,,,,,,,,,,,,,,,,,,,,,,,,,,,,,,,,,
594366,001,2022-11-21_24h55.53.414,Info_measure_main_exp,2022.2.2,Win32,59.60896519,,,,,,,,,,,,,,,,,,masks/mask_001.jpg,,,,,,,,,,,,,,,,,,,,,,,,,,,,,,,,,,,,,,,,,,,,,,,,0,3,3,0,1,,,,,,,,,,,,,,,,,,,,,,,,,,,,,,,,,,,,,,,,,
594366,001,2022-11-21_24h55.53.414,Info_measure_main_exp,2022.2.2,Win32,59.60896519,,,,,,,,,,,,,,,,,,masks/mask_002.jpg,,,,,,,,,,,,,,,,,,,,,,,,,,,,,,,,,,,,,,,,,,,,,,,,0,4,4,1,1,,,,,,,,,,,,,,,,,,,,,,,,,,,,,,,,,,,,,,,,,
594366,001,2022-11-21_24h55.53.414,Info_measure_main_exp,2022.2.2,Win32,59.60896519,,,,,,,,,,,,,,,,,,,,,,,,,,,,,,3,1.0164,1,,,,,,,,,,,,0,131,5,5,2166,2298,absent_patch/patch0002166.jpg,absent_patch/patch0002298.jpg,,,,,,,,,,,,,,,,,,,,-0.048148092,-0.125,1,0,0,response5disk,33,-0.005555556,0.008333333,1,0,0,center_square,0,32,32,52,1,,,,,,,,,,,,,,,,,,,,,,,
594366,001,2022-11-21_24h55.53.414,Info_measure_main_exp,2022.2.2,Win32,59.60896519,,,,,,,,,,,,,,,,,,masks/mask_002.jpg,,,,,,,,,,,,,,,,,,,,,,,,,,,,,,,,,,,,,,,,,,,0,0,0,1,1,,,,,,,,,,,,,,,,,,,,,,,,,,,,,,,,,,,,,,,,,,,,,,
594366,001,2022-11-21_24h55.53.414,Info_measure_main_exp,2022.2.2,Win32,59.60896519,,,,,,,,,,,,,,,,,,masks/mask_001.jpg,,,,,,,,,,,,,,,,,,,,,,,,,,,,,,,,,,,,,,,,,,,0,1,1,0,1,,,,,,,,,,,,,,,,,,,,,,,,,,,,,,,,,,,,,,,,,,,,,,
594366,001,2022-11-21_24h55.53.414,Info_measure_main_exp,2022.2.2,Win32,59.60896519,,,,,,,,,,,,,,,,,,masks/mask_005.jpg,,,,,,,,,,,,,,,,,,,,,,,,,,,,,,,,,,,,,,,,,,,0,2,2,4,1,,,,,,,,,,,,,,,,,,,,,,,,,,,,,,,,,,,,,,,,,,,,,,
594366,001,2022-11-21_24h55.53.414,Info_measure_main_exp,2022.2.2,Win32,59.60896519,,,,,,,,,,,,,,,,,,masks/mask_003.jpg,,,,,,,,,,,,,,,,,,,,,,,,,,,,,,,,,,,,,,,,,,,0,3,3,2,1,,,,,,,,,,,,,,,,,,,,,,,,,,,,,,,,,,,,,,,,,,,,,,
594366,001,2022-11-21_24h55.53.414,Info_measure_main_exp,2022.2.2,Win32,59.60896519,,,,,,,,,,,,,,,,,,masks/mask_004.jpg,,,,,,,,,,,,,,,,,,,,,,,,,,,,,,,,,,,,,,,,,,,0,4,4,3,1,,,,,,,,,,,,,,,,,,,,,,,,,,,,,,,,,,,,,,,,,,,,,,
594366,001,2022-11-21_24h55.53.414,Info_measure_main_exp,2022.2.2,Win32,59.60896519,,,,,,,,,,,,,,,,,,masks/mask_004.jpg,,,,,,,,,,,,,,,,,,,,,,,,,,,,,,,,,,,,,,,,,,,,,,,,0,0,0,3,1,,,,,,,,,,,,,,,,,,,,,,,,,,,,,,,,,,,,,,,,,
594366,001,2022-11-21_24h55.53.414,Info_measure_main_exp,2022.2.2,Win32,59.60896519,,,,,,,,,,,,,,,,,,masks/mask_001.jpg,,,,,,,,,,,,,,,,,,,,,,,,,,,,,,,,,,,,,,,,,,,,,,,,0,1,1,0,1,,,,,,,,,,,,,,,,,,,,,,,,,,,,,,,,,,,,,,,,,
594366,001,2022-11-21_24h55.53.414,Info_measure_main_exp,2022.2.2,Win32,59.60896519,,,,,,,,,,,,,,,,,,masks/mask_003.jpg,,,,,,,,,,,,,,,,,,,,,,,,,,,,,,,,,,,,,,,,,,,,,,,,0,2,2,2,1,,,,,,,,,,,,,,,,,,,,,,,,,,,,,,,,,,,,,,,,,
594366,001,2022-11-21_24h55.53.414,Info_measure_main_exp,2022.2.2,Win32,59.60896519,,,,,,,,,,,,,,,,,,masks/mask_002.jpg,,,,,,,,,,,,,,,,,,,,,,,,,,,,,,,,,,,,,,,,,,,,,,,,0,3,3,1,1,,,,,,,,,,,,,,,,,,,,,,,,,,,,,,,,,,,,,,,,,
594366,001,2022-11-21_24h55.53.414,Info_measure_main_exp,2022.2.2,Win32,59.60896519,,,,,,,,,,,,,,,,,,masks/mask_005.jpg,,,,,,,,,,,,,,,,,,,,,,,,,,,,,,,,,,,,,,,,,,,,,,,,0,4,4,4,1,,,,,,,,,,,,,,,,,,,,,,,,,,,,,,,,,,,,,,,,,
594366,001,2022-11-21_24h55.53.414,Info_measure_main_exp,2022.2.2,Win32,59.60896519,,,,,,,,,,,,,,,,,,,,,,,,,,,,,,2,1.2489,1,,,,,,,,,,,,0,131,5,5,2214,2178,absent_patch/patch0002214.jpg,absent_patch/patch0002178.jpg,,,,,,,,,,,,,,,,,,,,-0.084259203,-0.063888889,1,0,0,response5disk,34,0.005555556,-0.004629644,1,0,0,center_square,0,33,33,62,1,,,,,,,,,,,,,,,,,,,,,,,
594366,001,2022-11-21_24h55.53.414,Info_measure_main_exp,2022.2.2,Win32,59.60896519,,,,,,,,,,,,,,,,,,masks/mask_003.jpg,,,,,,,,,,,,,,,,,,,,,,,,,,,,,,,,,,,,,,,,,,,0,0,0,2,1,,,,,,,,,,,,,,,,,,,,,,,,,,,,,,,,,,,,,,,,,,,,,,
594366,001,2022-11-21_24h55.53.414,Info_measure_main_exp,2022.2.2,Win32,59.60896519,,,,,,,,,,,,,,,,,,masks/mask_001.jpg,,,,,,,,,,,,,,,,,,,,,,,,,,,,,,,,,,,,,,,,,,,0,1,1,0,1,,,,,,,,,,,,,,,,,,,,,,,,,,,,,,,,,,,,,,,,,,,,,,
594366,001,2022-11-21_24h55.53.414,Info_measure_main_exp,2022.2.2,Win32,59.60896519,,,,,,,,,,,,,,,,,,masks/mask_004.jpg,,,,,,,,,,,,,,,,,,,,,,,,,,,,,,,,,,,,,,,,,,,0,2,2,3,1,,,,,,,,,,,,,,,,,,,,,,,,,,,,,,,,,,,,,,,,,,,,,,
594366,001,2022-11-21_24h55.53.414,Info_measure_main_exp,2022.2.2,Win32,59.60896519,,,,,,,,,,,,,,,,,,masks/mask_005.jpg,,,,,,,,,,,,,,,,,,,,,,,,,,,,,,,,,,,,,,,,,,,0,3,3,4,1,,,,,,,,,,,,,,,,,,,,,,,,,,,,,,,,,,,,,,,,,,,,,,
594366,001,2022-11-21_24h55.53.414,Info_measure_main_exp,2022.2.2,Win32,59.60896519,,,,,,,,,,,,,,,,,,masks/mask_002.jpg,,,,,,,,,,,,,,,,,,,,,,,,,,,,,,,,,,,,,,,,,,,0,4,4,1,1,,,,,,,,,,,,,,,,,,,,,,,,,,,,,,,,,,,,,,,,,,,,,,
594366,001,2022-11-21_24h55.53.414,Info_measure_main_exp,2022.2.2,Win32,59.60896519,,,,,,,,,,,,,,,,,,masks/mask_002.jpg,,,,,,,,,,,,,,,,,,,,,,,,,,,,,,,,,,,,,,,,,,,,,,,,0,0,0,1,1,,,,,,,,,,,,,,,,,,,,,,,,,,,,,,,,,,,,,,,,,
594366,001,2022-11-21_24h55.53.414,Info_measure_main_exp,2022.2.2,Win32,59.60896519,,,,,,,,,,,,,,,,,,masks/mask_005.jpg,,,,,,,,,,,,,,,,,,,,,,,,,,,,,,,,,,,,,,,,,,,,,,,,0,1,1,4,1,,,,,,,,,,,,,,,,,,,,,,,,,,,,,,,,,,,,,,,,,
594366,001,2022-11-21_24h55.53.414,Info_measure_main_exp,2022.2.2,Win32,59.60896519,,,,,,,,,,,,,,,,,,masks/mask_001.jpg,,,,,,,,,,,,,,,,,,,,,,,,,,,,,,,,,,,,,,,,,,,,,,,,0,2,2,0,1,,,,,,,,,,,,,,,,,,,,,,,,,,,,,,,,,,,,,,,,,
594366,001,2022-11-21_24h55.53.414,Info_measure_main_exp,2022.2.2,Win32,59.60896519,,,,,,,,,,,,,,,,,,masks/mask_003.jpg,,,,,,,,,,,,,,,,,,,,,,,,,,,,,,,,,,,,,,,,,,,,,,,,0,3,3,2,1,,,,,,,,,,,,,,,,,,,,,,,,,,,,,,,,,,,,,,,,,
