participant,session,date,expName,psychopyVersion,OS,frameRate,space_press_continue.keys,space_press_continue.rt,space_press_continue_2.keys,space_press_continue_2.rt,space_press_continue_3.keys,space_press_continue_3.rt,space_press_continue_4.keys,space_press_continue_4.rt,space_press_continue_5.keys,space_press_continue_5.rt,space_press_continue_6.keys,space_press_continue_6.rt,prac_mask_loop_1.thisRepN,prac_mask_loop_1.thisTrialN,prac_mask_loop_1.thisN,prac_mask_loop_1.thisIndex,prac_mask_loop_1.ran,mask_name,prac_mask_loop_2.thisRepN,prac_mask_loop_2.thisTrialN,prac_mask_loop_2.thisN,prac_mask_loop_2.thisIndex,prac_mask_loop_2.ran,mouse_2.x,mouse_2.y,mouse_2.leftButton,mouse_2.midButton,mouse_2.rightButton,mouse_2.clicked_name,similarity,response_time,Pass,mouse_12.x,mouse_12.y,mouse_12.leftButton,mouse_12.midButton,mouse_12.rightButton,mouse_12.clicked_name,prac_loop.thisRepN,prac_loop.thisTrialN,prac_loop.thisN,prac_loop.thisIndex,prac_loop.ran,Pair_type,Image_num,Patch_1_loc,Patch_2_loc,Patch_1_info,Patch_2_info,Patch_1_name,Patch_2_name,mouse_1.x,mouse_1.y,mouse_1.leftButton,mouse_1.midButton,mouse_1.rightButton,mouse_1.time,mouse_1.clicked_name,space_press_continue_7.keys,space_press_continue_7.rt,mask_loop.thisRepN,mask_loop.thisTrialN,mask_loop.thisN,mask_loop.thisIndex,mask_loop.ran,mask_loop_2.thisRepN,mask_loop_2.thisTrialN,mask_loop_2.thisN,mask_loop_2.thisIndex,mask_loop_2.ran,mouse.x,mouse.y,mouse.leftButton,mouse.midButton,mouse.rightButton,mouse.clicked_name,trialNumber,mouse_11.x,mouse_11.y,mouse_11.leftButton,mouse_11.midButton,mouse_11.rightButton,mouse_11.clicked_name,first_pass_loop.thisRepN,first_pass_loop.thisTrialN,first_pass_loop.thisN,first_pass_loop.thisIndex,first_pass_loop.ran,mask_loop_3.thisRepN,mask_loop_3.thisTrialN,mask_loop_3.thisN,mask_loop_3.thisIndex,mask_loop_3.ran,mask_loop_4.thisRepN,mask_loop_4.thisTrialN,mask_loop_4.thisN,mask_loop_4.thisIndex,mask_loop_4.ran,mouse_3.x,mouse_3.y,mouse_3.leftButton,mouse_3.midButton,mouse_3.rightButton,mouse_3.clicked_name,double_pass_loop.thisRepN,double_pass_loop.thisTrialN,double_pass_loop.thisN,double_pass_loop.thisIndex,double_pass_loop.ran,space_exit.keys,space_exit.rt
5f4c1b5626199983e1285d83,001,2022-11-20_18h01.27.635,Info_measure_main_exp,2022.2.2,MacIntel,59.99880002,,,,,,,,,,,,,,,,,,,,,,,,,,,,,,,,,,,,,,,,,,,,,,,,,,,,,,,,,,,,,,,,,,,,,,,,,,,,,,,,,,,,,,,,,,,,,,,,,,,,,,,,,,,,,,,
5f4c1b5626199983e1285d83,001,2022-11-20_18h01.27.635,Info_measure_main_exp,2022.2.2,MacIntel,59.99880002,,,,,,,,,,,,,,,,,,,,,,,,,,,,,,,,,,,,,,,,,,,,,,,,,,,,,,,,,,,,,,,,,,,,,,,,,,,,,,,,,,,,,,,,,,,,,,,,,,,,,,,,,,,,,,,
5f4c1b5626199983e1285d83,001,2022-11-20_18h01.27.635,Info_measure_main_exp,2022.2.2,MacIntel,59.99880002,space,2.9546,,,,,,,,,,,,,,,,,,,,,,,,,,,,,,,,,,,,,,,,,,,,,,,,,,,,,,,,,,,,,,,,,,,,,,,,,,,,,,,,,,,,,,,,,,,,,,,,,,,,,,,,,,,,,
5f4c1b5626199983e1285d83,001,2022-11-20_18h01.27.635,Info_measure_main_exp,2022.2.2,MacIntel,59.99880002,,,space,16.9907,,,,,,,,,,,,,,,,,,,,,,,,,,,,,,,,,,,,,,,,,,,,,,,,,,,,,,,,,,,,,,,,,,,,,,,,,,,,,,,,,,,,,,,,,,,,,,,,,,,,,,,,,,,
5f4c1b5626199983e1285d83,001,2022-11-20_18h01.27.635,Info_measure_main_exp,2022.2.2,MacIntel,59.99880002,,,,,space,10.6736,,,,,,,,,,,,,,,,,,,,,,,,,,,,,,,,,,,,,,,,,,,,,,,,,,,,,,,,,,,,,,,,,,,,,,,,,,,,,,,,,,,,,,,,,,,,,,,,,,,,,,,,,
5f4c1b5626199983e1285d83,001,2022-11-20_18h01.27.635,Info_measure_main_exp,2022.2.2,MacIntel,59.99880002,,,,,,,space,160.8015,,,,,,,,,,,,,,,,,,,,,,,,,,,,,,,,,,,,,,,,,,,,,,,,,,,,,,,,,,,,,,,,,,,,,,,,,,,,,,,,,,,,,,,,,,,,,,,,,,,,,,,
5f4c1b5626199983e1285d83,001,2022-11-20_18h01.27.635,Info_measure_main_exp,2022.2.2,MacIntel,59.99880002,,,,,,,,,space,5.2414,,,,,,,,,,,,,,,,,,,,,,,,,,,,,,,,,,,,,,,,,,,,,,,,,,,,,,,,,,,,,,,,,,,,,,,,,,,,,,,,,,,,,,,,,,,,,,,,,,,,,
5f4c1b5626199983e1285d83,001,2022-11-20_18h01.27.635,Info_measure_main_exp,2022.2.2,MacIntel,59.99880002,,,,,,,,,,,space,2.9056,,,,,,,,,,,,,,,,,,,,,,,,,,,,,,,,,,,,,,,,,,,,,,,,,,,,,,,,,,,,,,,,,,,,,,,,,,,,,,,,,,,,,,,,,,,,,,,,,,,
5f4c1b5626199983e1285d83,001,2022-11-20_18h01.27.635,Info_measure_main_exp,2022.2.2,MacIntel,59.99880002,,,,,,,,,,,,,0,0,0,2,1,masks/mask_003.jpg,,,,,,,,,,,,,,,,,,,,,,,,,,,,,,,,,,,,,,,,,,,,,,,,,,,,,,,,,,,,,,,,,,,,,,,,,,,,,,,,,,,,,,,,,,,,,
5f4c1b5626199983e1285d83,001,2022-11-20_18h01.27.635,Info_measure_main_exp,2022.2.2,MacIntel,59.99880002,,,,,,,,,,,,,0,1,1,1,1,masks/mask_002.jpg,,,,,,,,,,,,,,,,,,,,,,,,,,,,,,,,,,,,,,,,,,,,,,,,,,,,,,,,,,,,,,,,,,,,,,,,,,,,,,,,,,,,,,,,,,,,,
5f4c1b5626199983e1285d83,001,2022-11-20_18h01.27.635,Info_measure_main_exp,2022.2.2,MacIntel,59.99880002,,,,,,,,,,,,,0,2,2,4,1,masks/mask_005.jpg,,,,,,,,,,,,,,,,,,,,,,,,,,,,,,,,,,,,,,,,,,,,,,,,,,,,,,,,,,,,,,,,,,,,,,,,,,,,,,,,,,,,,,,,,,,,,
5f4c1b5626199983e1285d83,001,2022-11-20_18h01.27.635,Info_measure_main_exp,2022.2.2,MacIntel,59.99880002,,,,,,,,,,,,,0,3,3,3,1,masks/mask_004.jpg,,,,,,,,,,,,,,,,,,,,,,,,,,,,,,,,,,,,,,,,,,,,,,,,,,,,,,,,,,,,,,,,,,,,,,,,,,,,,,,,,,,,,,,,,,,,,
5f4c1b5626199983e1285d83,001,2022-11-20_18h01.27.635,Info_measure_main_exp,2022.2.2,MacIntel,59.99880002,,,,,,,,,,,,,0,4,4,0,1,masks/mask_001.jpg,,,,,,,,,,,,,,,,,,,,,,,,,,,,,,,,,,,,,,,,,,,,,,,,,,,,,,,,,,,,,,,,,,,,,,,,,,,,,,,,,,,,,,,,,,,,,
5f4c1b5626199983e1285d83,001,2022-11-20_18h01.27.635,Info_measure_main_exp,2022.2.2,MacIntel,59.99880002,,,,,,,,,,,,,,,,,,masks/mask_003.jpg,0,0,0,2,1,,,,,,,,,,,,,,,,,,,,,,,,,,,,,,,,,,,,,,,,,,,,,,,,,,,,,,,,,,,,,,,,,,,,,,,,,,,,,,,,,,,,,,,,
5f4c1b5626199983e1285d83,001,2022-11-20_18h01.27.635,Info_measure_main_exp,2022.2.2,MacIntel,59.99880002,,,,,,,,,,,,,,,,,,masks/mask_001.jpg,0,1,1,0,1,,,,,,,,,,,,,,,,,,,,,,,,,,,,,,,,,,,,,,,,,,,,,,,,,,,,,,,,,,,,,,,,,,,,,,,,,,,,,,,,,,,,,,,,
5f4c1b5626199983e1285d83,001,2022-11-20_18h01.27.635,Info_measure_main_exp,2022.2.2,MacIntel,59.99880002,,,,,,,,,,,,,,,,,,masks/mask_005.jpg,0,2,2,4,1,,,,,,,,,,,,,,,,,,,,,,,,,,,,,,,,,,,,,,,,,,,,,,,,,,,,,,,,,,,,,,,,,,,,,,,,,,,,,,,,,,,,,,,,
5f4c1b5626199983e1285d83,001,2022-11-20_18h01.27.635,Info_measure_main_exp,2022.2.2,MacIntel,59.99880002,,,,,,,,,,,,,,,,,,masks/mask_002.jpg,0,3,3,1,1,,,,,,,,,,,,,,,,,,,,,,,,,,,,,,,,,,,,,,,,,,,,,,,,,,,,,,,,,,,,,,,,,,,,,,,,,,,,,,,,,,,,,,,,
5f4c1b5626199983e1285d83,001,2022-11-20_18h01.27.635,Info_measure_main_exp,2022.2.2,MacIntel,59.99880002,,,,,,,,,,,,,,,,,,masks/mask_004.jpg,0,4,4,3,1,,,,,,,,,,,,,,,,,,,,,,,,,,,,,,,,,,,,,,,,,,,,,,,,,,,,,,,,,,,,,,,,,,,,,,,,,,,,,,,,,,,,,,,,
5f4c1b5626199983e1285d83,001,2022-11-20_18h01.27.635,Info_measure_main_exp,2022.2.2,MacIntel,59.99880002,,,,,,,,,,,,,,,,,,,,,,,,-0.145784098,0.082098185,1,0,0,response7disk,1,204.7543,1,0.005456136,0.001767307,1,0,0,center_square,0,0,0,1,1,0,131,5,5,2514,2490,prac_patch/patch0002514.jpg,prac_patch/patch0002490.jpg,,,,,,,,,,,,,,,,,,,,,,,,,,,,,,,,,,,,,,,,,,,,,,,,,,,,,,,,,,,,
5f4c1b5626199983e1285d83,001,2022-11-20_18h01.27.635,Info_measure_main_exp,2022.2.2,MacIntel,59.99880002,,,,,,,,,,,,,0,0,0,4,1,masks/mask_005.jpg,,,,,,,,,,,,,,,,,,,,,,,,,,,,,,,,,,,,,,,,,,,,,,,,,,,,,,,,,,,,,,,,,,,,,,,,,,,,,,,,,,,,,,,,,,,,,
5f4c1b5626199983e1285d83,001,2022-11-20_18h01.27.635,Info_measure_main_exp,2022.2.2,MacIntel,59.99880002,,,,,,,,,,,,,0,1,1,1,1,masks/mask_002.jpg,,,,,,,,,,,,,,,,,,,,,,,,,,,,,,,,,,,,,,,,,,,,,,,,,,,,,,,,,,,,,,,,,,,,,,,,,,,,,,,,,,,,,,,,,,,,,
5f4c1b5626199983e1285d83,001,2022-11-20_18h01.27.635,Info_measure_main_exp,2022.2.2,MacIntel,59.99880002,,,,,,,,,,,,,0,2,2,2,1,masks/mask_003.jpg,,,,,,,,,,,,,,,,,,,,,,,,,,,,,,,,,,,,,,,,,,,,,,,,,,,,,,,,,,,,,,,,,,,,,,,,,,,,,,,,,,,,,,,,,,,,,
5f4c1b5626199983e1285d83,001,2022-11-20_18h01.27.635,Info_measure_main_exp,2022.2.2,MacIntel,59.99880002,,,,,,,,,,,,,0,3,3,0,1,masks/mask_001.jpg,,,,,,,,,,,,,,,,,,,,,,,,,,,,,,,,,,,,,,,,,,,,,,,,,,,,,,,,,,,,,,,,,,,,,,,,,,,,,,,,,,,,,,,,,,,,,
5f4c1b5626199983e1285d83,001,2022-11-20_18h01.27.635,Info_measure_main_exp,2022.2.2,MacIntel,59.99880002,,,,,,,,,,,,,0,4,4,3,1,masks/mask_004.jpg,,,,,,,,,,,,,,,,,,,,,,,,,,,,,,,,,,,,,,,,,,,,,,,,,,,,,,,,,,,,,,,,,,,,,,,,,,,,,,,,,,,,,,,,,,,,,
5f4c1b5626199983e1285d83,001,2022-11-20_18h01.27.635,Info_measure_main_exp,2022.2.2,MacIntel,59.99880002,,,,,,,,,,,,,,,,,,masks/mask_001.jpg,0,0,0,0,1,,,,,,,,,,,,,,,,,,,,,,,,,,,,,,,,,,,,,,,,,,,,,,,,,,,,,,,,,,,,,,,,,,,,,,,,,,,,,,,,,,,,,,,,
5f4c1b5626199983e1285d83,001,2022-11-20_18h01.27.635,Info_measure_main_exp,2022.2.2,MacIntel,59.99880002,,,,,,,,,,,,,,,,,,masks/mask_005.jpg,0,1,1,4,1,,,,,,,,,,,,,,,,,,,,,,,,,,,,,,,,,,,,,,,,,,,,,,,,,,,,,,,,,,,,,,,,,,,,,,,,,,,,,,,,,,,,,,,,
5f4c1b5626199983e1285d83,001,2022-11-20_18h01.27.635,Info_measure_main_exp,2022.2.2,MacIntel,59.99880002,,,,,,,,,,,,,,,,,,masks/mask_003.jpg,0,2,2,2,1,,,,,,,,,,,,,,,,,,,,,,,,,,,,,,,,,,,,,,,,,,,,,,,,,,,,,,,,,,,,,,,,,,,,,,,,,,,,,,,,,,,,,,,,
5f4c1b5626199983e1285d83,001,2022-11-20_18h01.27.635,Info_measure_main_exp,2022.2.2,MacIntel,59.99880002,,,,,,,,,,,,,,,,,,masks/mask_004.jpg,0,3,3,3,1,,,,,,,,,,,,,,,,,,,,,,,,,,,,,,,,,,,,,,,,,,,,,,,,,,,,,,,,,,,,,,,,,,,,,,,,,,,,,,,,,,,,,,,,
5f4c1b5626199983e1285d83,001,2022-11-20_18h01.27.635,Info_measure_main_exp,2022.2.2,MacIntel,59.99880002,,,,,,,,,,,,,,,,,,masks/mask_002.jpg,0,4,4,1,1,,,,,,,,,,,,,,,,,,,,,,,,,,,,,,,,,,,,,,,,,,,,,,,,,,,,,,,,,,,,,,,,,,,,,,,,,,,,,,,,,,,,,,,,
5f4c1b5626199983e1285d83,001,2022-11-20_18h01.27.635,Info_measure_main_exp,2022.2.2,MacIntel,59.99880002,,,,,,,,,,,,,,,,,,,,,,,,-0.061188965,-0.185692952,1,0,0,response5disk,3,217.8211,1,0.000661011,-0.002891439,1,0,0,center_square,0,1,1,0,1,0,131,5,5,2370,2406,prac_patch/patch0002370.jpg,prac_patch/patch0002406.jpg,,,,,,,,,,,,,,,,,,,,,,,,,,,,,,,,,,,,,,,,,,,,,,,,,,,,,,,,,,,,
5f4c1b5626199983e1285d83,001,2022-11-20_18h01.27.635,Info_measure_main_exp,2022.2.2,MacIntel,59.99880002,,,,,,,,,,,,,0,0,0,0,1,masks/mask_001.jpg,,,,,,,,,,,,,,,,,,,,,,,,,,,,,,,,,,,,,,,,,,,,,,,,,,,,,,,,,,,,,,,,,,,,,,,,,,,,,,,,,,,,,,,,,,,,,
5f4c1b5626199983e1285d83,001,2022-11-20_18h01.27.635,Info_measure_main_exp,2022.2.2,MacIntel,59.99880002,,,,,,,,,,,,,0,1,1,3,1,masks/mask_004.jpg,,,,,,,,,,,,,,,,,,,,,,,,,,,,,,,,,,,,,,,,,,,,,,,,,,,,,,,,,,,,,,,,,,,,,,,,,,,,,,,,,,,,,,,,,,,,,
5f4c1b5626199983e1285d83,001,2022-11-20_18h01.27.635,Info_measure_main_exp,2022.2.2,MacIntel,59.99880002,,,,,,,,,,,,,0,2,2,2,1,masks/mask_003.jpg,,,,,,,,,,,,,,,,,,,,,,,,,,,,,,,,,,,,,,,,,,,,,,,,,,,,,,,,,,,,,,,,,,,,,,,,,,,,,,,,,,,,,,,,,,,,,
5f4c1b5626199983e1285d83,001,2022-11-20_18h01.27.635,Info_measure_main_exp,2022.2.2,MacIntel,59.99880002,,,,,,,,,,,,,0,3,3,4,1,masks/mask_005.jpg,,,,,,,,,,,,,,,,,,,,,,,,,,,,,,,,,,,,,,,,,,,,,,,,,,,,,,,,,,,,,,,,,,,,,,,,,,,,,,,,,,,,,,,,,,,,,
5f4c1b5626199983e1285d83,001,2022-11-20_18h01.27.635,Info_measure_main_exp,2022.2.2,MacIntel,59.99880002,,,,,,,,,,,,,0,4,4,1,1,masks/mask_002.jpg,,,,,,,,,,,,,,,,,,,,,,,,,,,,,,,,,,,,,,,,,,,,,,,,,,,,,,,,,,,,,,,,,,,,,,,,,,,,,,,,,,,,,,,,,,,,,
5f4c1b5626199983e1285d83,001,2022-11-20_18h01.27.635,Info_measure_main_exp,2022.2.2,MacIntel,59.99880002,,,,,,,,,,,,,,,,,,masks/mask_001.jpg,0,0,0,0,1,,,,,,,,,,,,,,,,,,,,,,,,,,,,,,,,,,,,,,,,,,,,,,,,,,,,,,,,,,,,,,,,,,,,,,,,,,,,,,,,,,,,,,,,
5f4c1b5626199983e1285d83,001,2022-11-20_18h01.27.635,Info_measure_main_exp,2022.2.2,MacIntel,59.99880002,,,,,,,,,,,,,,,,,,masks/mask_004.jpg,0,1,1,3,1,,,,,,,,,,,,,,,,,,,,,,,,,,,,,,,,,,,,,,,,,,,,,,,,,,,,,,,,,,,,,,,,,,,,,,,,,,,,,,,,,,,,,,,,
5f4c1b5626199983e1285d83,001,2022-11-20_18h01.27.635,Info_measure_main_exp,2022.2.2,MacIntel,59.99880002,,,,,,,,,,,,,,,,,,masks/mask_005.jpg,0,2,2,4,1,,,,,,,,,,,,,,,,,,,,,,,,,,,,,,,,,,,,,,,,,,,,,,,,,,,,,,,,,,,,,,,,,,,,,,,,,,,,,,,,,,,,,,,,
5f4c1b5626199983e1285d83,001,2022-11-20_18h01.27.635,Info_measure_main_exp,2022.2.2,MacIntel,59.99880002,,,,,,,,,,,,,,,,,,masks/mask_002.jpg,0,3,3,1,1,,,,,,,,,,,,,,,,,,,,,,,,,,,,,,,,,,,,,,,,,,,,,,,,,,,,,,,,,,,,,,,,,,,,,,,,,,,,,,,,,,,,,,,,
5f4c1b5626199983e1285d83,001,2022-11-20_18h01.27.635,Info_measure_main_exp,2022.2.2,MacIntel,59.99880002,,,,,,,,,,,,,,,,,,masks/mask_003.jpg,0,4,4,2,1,,,,,,,,,,,,,,,,,,,,,,,,,,,,,,,,,,,,,,,,,,,,,,,,,,,,,,,,,,,,,,,,,,,,,,,,,,,,,,,,,,,,,,,,
5f4c1b5626199983e1285d83,001,2022-11-20_18h01.27.635,Info_measure_main_exp,2022.2.2,MacIntel,59.99880002,,,,,,,,,,,,,,,,,,,,,,,,-0.04363288,0.163687981,1,0,0,response7disk,0,225.5399,1,0.006703016,-0.000588786,1,0,0,center_square,0,2,2,2,1,0,131,5,5,2526,2526,prac_patch/patch0002526.jpg,prac_patch/patch0002526.jpg,,,,,,,,,,,,,,,,,,,,,,,,,,,,,,,,,,,,,,,,,,,,,,,,,,,,,,,,,,,,
5f4c1b5626199983e1285d83,001,2022-11-20_18h01.27.635,Info_measure_main_exp,2022.2.2,MacIntel,59.99880002,,,,,,,,,,,,,,,,,,,,,,,,,,,,,,,,,,,,,,,,,,,,,,,,,,,,,,,,,,,space,2.7632,,,,,,,,,,,,,,,,,,,,,,,,,,,,,,,,,,,,,,,,,,,,,,,,,,,
5f4c1b5626199983e1285d83,001,2022-11-20_18h01.27.635,Info_measure_main_exp,2022.2.2,MacIntel,59.99880002,,,,,,,,,,,,,,,,,,masks/mask_001.jpg,,,,,,,,,,,,,,,,,,,,,,,,,,,,,,,,,,,,,,,,,,,0,0,0,0,1,,,,,,,,,,,,,,,,,,,,,,,,,,,,,,,,,,,,,,,,,,,,,,
5f4c1b5626199983e1285d83,001,2022-11-20_18h01.27.635,Info_measure_main_exp,2022.2.2,MacIntel,59.99880002,,,,,,,,,,,,,,,,,,masks/mask_005.jpg,,,,,,,,,,,,,,,,,,,,,,,,,,,,,,,,,,,,,,,,,,,0,1,1,4,1,,,,,,,,,,,,,,,,,,,,,,,,,,,,,,,,,,,,,,,,,,,,,,
5f4c1b5626199983e1285d83,001,2022-11-20_18h01.27.635,Info_measure_main_exp,2022.2.2,MacIntel,59.99880002,,,,,,,,,,,,,,,,,,masks/mask_002.jpg,,,,,,,,,,,,,,,,,,,,,,,,,,,,,,,,,,,,,,,,,,,0,2,2,1,1,,,,,,,,,,,,,,,,,,,,,,,,,,,,,,,,,,,,,,,,,,,,,,
5f4c1b5626199983e1285d83,001,2022-11-20_18h01.27.635,Info_measure_main_exp,2022.2.2,MacIntel,59.99880002,,,,,,,,,,,,,,,,,,masks/mask_003.jpg,,,,,,,,,,,,,,,,,,,,,,,,,,,,,,,,,,,,,,,,,,,0,3,3,2,1,,,,,,,,,,,,,,,,,,,,,,,,,,,,,,,,,,,,,,,,,,,,,,
5f4c1b5626199983e1285d83,001,2022-11-20_18h01.27.635,Info_measure_main_exp,2022.2.2,MacIntel,59.99880002,,,,,,,,,,,,,,,,,,masks/mask_004.jpg,,,,,,,,,,,,,,,,,,,,,,,,,,,,,,,,,,,,,,,,,,,0,4,4,3,1,,,,,,,,,,,,,,,,,,,,,,,,,,,,,,,,,,,,,,,,,,,,,,
5f4c1b5626199983e1285d83,001,2022-11-20_18h01.27.635,Info_measure_main_exp,2022.2.2,MacIntel,59.99880002,,,,,,,,,,,,,,,,,,masks/mask_005.jpg,,,,,,,,,,,,,,,,,,,,,,,,,,,,,,,,,,,,,,,,,,,,,,,,0,0,0,4,1,,,,,,,,,,,,,,,,,,,,,,,,,,,,,,,,,,,,,,,,,
5f4c1b5626199983e1285d83,001,2022-11-20_18h01.27.635,Info_measure_main_exp,2022.2.2,MacIntel,59.99880002,,,,,,,,,,,,,,,,,,masks/mask_004.jpg,,,,,,,,,,,,,,,,,,,,,,,,,,,,,,,,,,,,,,,,,,,,,,,,0,1,1,3,1,,,,,,,,,,,,,,,,,,,,,,,,,,,,,,,,,,,,,,,,,
5f4c1b5626199983e1285d83,001,2022-11-20_18h01.27.635,Info_measure_main_exp,2022.2.2,MacIntel,59.99880002,,,,,,,,,,,,,,,,,,masks/mask_001.jpg,,,,,,,,,,,,,,,,,,,,,,,,,,,,,,,,,,,,,,,,,,,,,,,,0,2,2,0,1,,,,,,,,,,,,,,,,,,,,,,,,,,,,,,,,,,,,,,,,,
5f4c1b5626199983e1285d83,001,2022-11-20_18h01.27.635,Info_measure_main_exp,2022.2.2,MacIntel,59.99880002,,,,,,,,,,,,,,,,,,masks/mask_003.jpg,,,,,,,,,,,,,,,,,,,,,,,,,,,,,,,,,,,,,,,,,,,,,,,,0,3,3,2,1,,,,,,,,,,,,,,,,,,,,,,,,,,,,,,,,,,,,,,,,,
5f4c1b5626199983e1285d83,001,2022-11-20_18h01.27.635,Info_measure_main_exp,2022.2.2,MacIntel,59.99880002,,,,,,,,,,,,,,,,,,masks/mask_002.jpg,,,,,,,,,,,,,,,,,,,,,,,,,,,,,,,,,,,,,,,,,,,,,,,,0,4,4,1,1,,,,,,,,,,,,,,,,,,,,,,,,,,,,,,,,,,,,,,,,,
5f4c1b5626199983e1285d83,001,2022-11-20_18h01.27.635,Info_measure_main_exp,2022.2.2,MacIntel,59.99880002,,,,,,,,,,,,,,,,,,,,,,,,,,,,,,5,2.0343,1,,,,,,,,,,,,0,131,5,5,2082,2238,absent_patch/patch0002082.jpg,absent_patch/patch0002238.jpg,,,,,,,,,,,,,,,,,,,,0.140916951,-0.032177633,1,0,0,response3disk,1,0.004070502,0.002737359,1,0,0,center_square,0,0,0,22,1,,,,,,,,,,,,,,,,,,,,,,,
5f4c1b5626199983e1285d83,001,2022-11-20_18h01.27.635,Info_measure_main_exp,2022.2.2,MacIntel,59.99880002,,,,,,,,,,,,,,,,,,masks/mask_002.jpg,,,,,,,,,,,,,,,,,,,,,,,,,,,,,,,,,,,,,,,,,,,0,0,0,1,1,,,,,,,,,,,,,,,,,,,,,,,,,,,,,,,,,,,,,,,,,,,,,,
5f4c1b5626199983e1285d83,001,2022-11-20_18h01.27.635,Info_measure_main_exp,2022.2.2,MacIntel,59.99880002,,,,,,,,,,,,,,,,,,masks/mask_005.jpg,,,,,,,,,,,,,,,,,,,,,,,,,,,,,,,,,,,,,,,,,,,0,1,1,4,1,,,,,,,,,,,,,,,,,,,,,,,,,,,,,,,,,,,,,,,,,,,,,,
5f4c1b5626199983e1285d83,001,2022-11-20_18h01.27.635,Info_measure_main_exp,2022.2.2,MacIntel,59.99880002,,,,,,,,,,,,,,,,,,masks/mask_001.jpg,,,,,,,,,,,,,,,,,,,,,,,,,,,,,,,,,,,,,,,,,,,0,2,2,0,1,,,,,,,,,,,,,,,,,,,,,,,,,,,,,,,,,,,,,,,,,,,,,,
5f4c1b5626199983e1285d83,001,2022-11-20_18h01.27.635,Info_measure_main_exp,2022.2.2,MacIntel,59.99880002,,,,,,,,,,,,,,,,,,masks/mask_003.jpg,,,,,,,,,,,,,,,,,,,,,,,,,,,,,,,,,,,,,,,,,,,0,3,3,2,1,,,,,,,,,,,,,,,,,,,,,,,,,,,,,,,,,,,,,,,,,,,,,,
5f4c1b5626199983e1285d83,001,2022-11-20_18h01.27.635,Info_measure_main_exp,2022.2.2,MacIntel,59.99880002,,,,,,,,,,,,,,,,,,masks/mask_004.jpg,,,,,,,,,,,,,,,,,,,,,,,,,,,,,,,,,,,,,,,,,,,0,4,4,3,1,,,,,,,,,,,,,,,,,,,,,,,,,,,,,,,,,,,,,,,,,,,,,,
5f4c1b5626199983e1285d83,001,2022-11-20_18h01.27.635,Info_measure_main_exp,2022.2.2,MacIntel,59.99880002,,,,,,,,,,,,,,,,,,masks/mask_002.jpg,,,,,,,,,,,,,,,,,,,,,,,,,,,,,,,,,,,,,,,,,,,,,,,,0,0,0,1,1,,,,,,,,,,,,,,,,,,,,,,,,,,,,,,,,,,,,,,,,,
5f4c1b5626199983e1285d83,001,2022-11-20_18h01.27.635,Info_measure_main_exp,2022.2.2,MacIntel,59.99880002,,,,,,,,,,,,,,,,,,masks/mask_004.jpg,,,,,,,,,,,,,,,,,,,,,,,,,,,,,,,,,,,,,,,,,,,,,,,,0,1,1,3,1,,,,,,,,,,,,,,,,,,,,,,,,,,,,,,,,,,,,,,,,,
5f4c1b5626199983e1285d83,001,2022-11-20_18h01.27.635,Info_measure_main_exp,2022.2.2,MacIntel,59.99880002,,,,,,,,,,,,,,,,,,masks/mask_005.jpg,,,,,,,,,,,,,,,,,,,,,,,,,,,,,,,,,,,,,,,,,,,,,,,,0,2,2,4,1,,,,,,,,,,,,,,,,,,,,,,,,,,,,,,,,,,,,,,,,,
5f4c1b5626199983e1285d83,001,2022-11-20_18h01.27.635,Info_measure_main_exp,2022.2.2,MacIntel,59.99880002,,,,,,,,,,,,,,,,,,masks/mask_001.jpg,,,,,,,,,,,,,,,,,,,,,,,,,,,,,,,,,,,,,,,,,,,,,,,,0,3,3,0,1,,,,,,,,,,,,,,,,,,,,,,,,,,,,,,,,,,,,,,,,,
5f4c1b5626199983e1285d83,001,2022-11-20_18h01.27.635,Info_measure_main_exp,2022.2.2,MacIntel,59.99880002,,,,,,,,,,,,,,,,,,masks/mask_003.jpg,,,,,,,,,,,,,,,,,,,,,,,,,,,,,,,,,,,,,,,,,,,,,,,,0,4,4,2,1,,,,,,,,,,,,,,,,,,,,,,,,,,,,,,,,,,,,,,,,,
5f4c1b5626199983e1285d83,001,2022-11-20_18h01.27.635,Info_measure_main_exp,2022.2.2,MacIntel,59.99880002,,,,,,,,,,,,,,,,,,,,,,,,,,,,,,5,1.1351,1,,,,,,,,,,,,1,131,5,5,1,1974,present_patch/cong_131_5_a.jpg,absent_patch/patch0001974.jpg,,,,,,,,,,,,,,,,,,,,0.171781413,-0.072604709,1,0,0,response3disk,2,0.005190498,0.003007846,1,0,0,center_square,0,1,1,69,1,,,,,,,,,,,,,,,,,,,,,,,
5f4c1b5626199983e1285d83,001,2022-11-20_18h01.27.635,Info_measure_main_exp,2022.2.2,MacIntel,59.99880002,,,,,,,,,,,,,,,,,,masks/mask_001.jpg,,,,,,,,,,,,,,,,,,,,,,,,,,,,,,,,,,,,,,,,,,,0,0,0,0,1,,,,,,,,,,,,,,,,,,,,,,,,,,,,,,,,,,,,,,,,,,,,,,
5f4c1b5626199983e1285d83,001,2022-11-20_18h01.27.635,Info_measure_main_exp,2022.2.2,MacIntel,59.99880002,,,,,,,,,,,,,,,,,,masks/mask_005.jpg,,,,,,,,,,,,,,,,,,,,,,,,,,,,,,,,,,,,,,,,,,,0,1,1,4,1,,,,,,,,,,,,,,,,,,,,,,,,,,,,,,,,,,,,,,,,,,,,,,
5f4c1b5626199983e1285d83,001,2022-11-20_18h01.27.635,Info_measure_main_exp,2022.2.2,MacIntel,59.99880002,,,,,,,,,,,,,,,,,,masks/mask_003.jpg,,,,,,,,,,,,,,,,,,,,,,,,,,,,,,,,,,,,,,,,,,,0,2,2,2,1,,,,,,,,,,,,,,,,,,,,,,,,,,,,,,,,,,,,,,,,,,,,,,
5f4c1b5626199983e1285d83,001,2022-11-20_18h01.27.635,Info_measure_main_exp,2022.2.2,MacIntel,59.99880002,,,,,,,,,,,,,,,,,,masks/mask_004.jpg,,,,,,,,,,,,,,,,,,,,,,,,,,,,,,,,,,,,,,,,,,,0,3,3,3,1,,,,,,,,,,,,,,,,,,,,,,,,,,,,,,,,,,,,,,,,,,,,,,
5f4c1b5626199983e1285d83,001,2022-11-20_18h01.27.635,Info_measure_main_exp,2022.2.2,MacIntel,59.99880002,,,,,,,,,,,,,,,,,,masks/mask_002.jpg,,,,,,,,,,,,,,,,,,,,,,,,,,,,,,,,,,,,,,,,,,,0,4,4,1,1,,,,,,,,,,,,,,,,,,,,,,,,,,,,,,,,,,,,,,,,,,,,,,
5f4c1b5626199983e1285d83,001,2022-11-20_18h01.27.635,Info_measure_main_exp,2022.2.2,MacIntel,59.99880002,,,,,,,,,,,,,,,,,,masks/mask_004.jpg,,,,,,,,,,,,,,,,,,,,,,,,,,,,,,,,,,,,,,,,,,,,,,,,0,0,0,3,1,,,,,,,,,,,,,,,,,,,,,,,,,,,,,,,,,,,,,,,,,
5f4c1b5626199983e1285d83,001,2022-11-20_18h01.27.635,Info_measure_main_exp,2022.2.2,MacIntel,59.99880002,,,,,,,,,,,,,,,,,,masks/mask_002.jpg,,,,,,,,,,,,,,,,,,,,,,,,,,,,,,,,,,,,,,,,,,,,,,,,0,1,1,1,1,,,,,,,,,,,,,,,,,,,,,,,,,,,,,,,,,,,,,,,,,
5f4c1b5626199983e1285d83,001,2022-11-20_18h01.27.635,Info_measure_main_exp,2022.2.2,MacIntel,59.99880002,,,,,,,,,,,,,,,,,,masks/mask_001.jpg,,,,,,,,,,,,,,,,,,,,,,,,,,,,,,,,,,,,,,,,,,,,,,,,0,2,2,0,1,,,,,,,,,,,,,,,,,,,,,,,,,,,,,,,,,,,,,,,,,
5f4c1b5626199983e1285d83,001,2022-11-20_18h01.27.635,Info_measure_main_exp,2022.2.2,MacIntel,59.99880002,,,,,,,,,,,,,,,,,,masks/mask_003.jpg,,,,,,,,,,,,,,,,,,,,,,,,,,,,,,,,,,,,,,,,,,,,,,,,0,3,3,2,1,,,,,,,,,,,,,,,,,,,,,,,,,,,,,,,,,,,,,,,,,
5f4c1b5626199983e1285d83,001,2022-11-20_18h01.27.635,Info_measure_main_exp,2022.2.2,MacIntel,59.99880002,,,,,,,,,,,,,,,,,,masks/mask_005.jpg,,,,,,,,,,,,,,,,,,,,,,,,,,,,,,,,,,,,,,,,,,,,,,,,0,4,4,4,1,,,,,,,,,,,,,,,,,,,,,,,,,,,,,,,,,,,,,,,,,
5f4c1b5626199983e1285d83,001,2022-11-20_18h01.27.635,Info_measure_main_exp,2022.2.2,MacIntel,59.99880002,,,,,,,,,,,,,,,,,,,,,,,,,,,,,,0,0.7653,1,,,,,,,,,,,,0,131,5,5,2214,2214,absent_patch/patch0002214.jpg,absent_patch/patch0002214.jpg,,,,,,,,,,,,,,,,,,,,-0.070219387,0.17042711,1,0,0,response7disk,3,-0.003393623,0.002247314,1,0,0,center_square,0,2,2,115,1,,,,,,,,,,,,,,,,,,,,,,,
5f4c1b5626199983e1285d83,001,2022-11-20_18h01.27.635,Info_measure_main_exp,2022.2.2,MacIntel,59.99880002,,,,,,,,,,,,,,,,,,masks/mask_004.jpg,,,,,,,,,,,,,,,,,,,,,,,,,,,,,,,,,,,,,,,,,,,0,0,0,3,1,,,,,,,,,,,,,,,,,,,,,,,,,,,,,,,,,,,,,,,,,,,,,,
5f4c1b5626199983e1285d83,001,2022-11-20_18h01.27.635,Info_measure_main_exp,2022.2.2,MacIntel,59.99880002,,,,,,,,,,,,,,,,,,masks/mask_002.jpg,,,,,,,,,,,,,,,,,,,,,,,,,,,,,,,,,,,,,,,,,,,0,1,1,1,1,,,,,,,,,,,,,,,,,,,,,,,,,,,,,,,,,,,,,,,,,,,,,,
5f4c1b5626199983e1285d83,001,2022-11-20_18h01.27.635,Info_measure_main_exp,2022.2.2,MacIntel,59.99880002,,,,,,,,,,,,,,,,,,masks/mask_001.jpg,,,,,,,,,,,,,,,,,,,,,,,,,,,,,,,,,,,,,,,,,,,0,2,2,0,1,,,,,,,,,,,,,,,,,,,,,,,,,,,,,,,,,,,,,,,,,,,,,,
5f4c1b5626199983e1285d83,001,2022-11-20_18h01.27.635,Info_measure_main_exp,2022.2.2,MacIntel,59.99880002,,,,,,,,,,,,,,,,,,masks/mask_003.jpg,,,,,,,,,,,,,,,,,,,,,,,,,,,,,,,,,,,,,,,,,,,0,3,3,2,1,,,,,,,,,,,,,,,,,,,,,,,,,,,,,,,,,,,,,,,,,,,,,,
5f4c1b5626199983e1285d83,001,2022-11-20_18h01.27.635,Info_measure_main_exp,2022.2.2,MacIntel,59.99880002,,,,,,,,,,,,,,,,,,masks/mask_005.jpg,,,,,,,,,,,,,,,,,,,,,,,,,,,,,,,,,,,,,,,,,,,0,4,4,4,1,,,,,,,,,,,,,,,,,,,,,,,,,,,,,,,,,,,,,,,,,,,,,,
5f4c1b5626199983e1285d83,001,2022-11-20_18h01.27.635,Info_measure_main_exp,2022.2.2,MacIntel,59.99880002,,,,,,,,,,,,,,,,,,masks/mask_005.jpg,,,,,,,,,,,,,,,,,,,,,,,,,,,,,,,,,,,,,,,,,,,,,,,,0,0,0,4,1,,,,,,,,,,,,,,,,,,,,,,,,,,,,,,,,,,,,,,,,,
5f4c1b5626199983e1285d83,001,2022-11-20_18h01.27.635,Info_measure_main_exp,2022.2.2,MacIntel,59.99880002,,,,,,,,,,,,,,,,,,masks/mask_001.jpg,,,,,,,,,,,,,,,,,,,,,,,,,,,,,,,,,,,,,,,,,,,,,,,,0,1,1,0,1,,,,,,,,,,,,,,,,,,,,,,,,,,,,,,,,,,,,,,,,,
5f4c1b5626199983e1285d83,001,2022-11-20_18h01.27.635,Info_measure_main_exp,2022.2.2,MacIntel,59.99880002,,,,,,,,,,,,,,,,,,masks/mask_003.jpg,,,,,,,,,,,,,,,,,,,,,,,,,,,,,,,,,,,,,,,,,,,,,,,,0,2,2,2,1,,,,,,,,,,,,,,,,,,,,,,,,,,,,,,,,,,,,,,,,,
5f4c1b5626199983e1285d83,001,2022-11-20_18h01.27.635,Info_measure_main_exp,2022.2.2,MacIntel,59.99880002,,,,,,,,,,,,,,,,,,masks/mask_002.jpg,,,,,,,,,,,,,,,,,,,,,,,,,,,,,,,,,,,,,,,,,,,,,,,,0,3,3,1,1,,,,,,,,,,,,,,,,,,,,,,,,,,,,,,,,,,,,,,,,,
5f4c1b5626199983e1285d83,001,2022-11-20_18h01.27.635,Info_measure_main_exp,2022.2.2,MacIntel,59.99880002,,,,,,,,,,,,,,,,,,masks/mask_004.jpg,,,,,,,,,,,,,,,,,,,,,,,,,,,,,,,,,,,,,,,,,,,,,,,,0,4,4,3,1,,,,,,,,,,,,,,,,,,,,,,,,,,,,,,,,,,,,,,,,,
5f4c1b5626199983e1285d83,001,2022-11-20_18h01.27.635,Info_measure_main_exp,2022.2.2,MacIntel,59.99880002,,,,,,,,,,,,,,,,,,,,,,,,,,,,,,5,0.8849,1,,,,,,,,,,,,0,131,5,5,2250,1986,absent_patch/patch0002250.jpg,absent_patch/patch0001986.jpg,,,,,,,,,,,,,,,,,,,,0.156183472,-0.027250197,1,0,0,response3disk,4,-0.003168742,-0.001797621,1,0,0,center_square,0,3,3,29,1,,,,,,,,,,,,,,,,,,,,,,,
5f4c1b5626199983e1285d83,001,2022-11-20_18h01.27.635,Info_measure_main_exp,2022.2.2,MacIntel,59.99880002,,,,,,,,,,,,,,,,,,masks/mask_001.jpg,,,,,,,,,,,,,,,,,,,,,,,,,,,,,,,,,,,,,,,,,,,0,0,0,0,1,,,,,,,,,,,,,,,,,,,,,,,,,,,,,,,,,,,,,,,,,,,,,,
5f4c1b5626199983e1285d83,001,2022-11-20_18h01.27.635,Info_measure_main_exp,2022.2.2,MacIntel,59.99880002,,,,,,,,,,,,,,,,,,masks/mask_002.jpg,,,,,,,,,,,,,,,,,,,,,,,,,,,,,,,,,,,,,,,,,,,0,1,1,1,1,,,,,,,,,,,,,,,,,,,,,,,,,,,,,,,,,,,,,,,,,,,,,,
5f4c1b5626199983e1285d83,001,2022-11-20_18h01.27.635,Info_measure_main_exp,2022.2.2,MacIntel,59.99880002,,,,,,,,,,,,,,,,,,masks/mask_004.jpg,,,,,,,,,,,,,,,,,,,,,,,,,,,,,,,,,,,,,,,,,,,0,2,2,3,1,,,,,,,,,,,,,,,,,,,,,,,,,,,,,,,,,,,,,,,,,,,,,,
5f4c1b5626199983e1285d83,001,2022-11-20_18h01.27.635,Info_measure_main_exp,2022.2.2,MacIntel,59.99880002,,,,,,,,,,,,,,,,,,masks/mask_003.jpg,,,,,,,,,,,,,,,,,,,,,,,,,,,,,,,,,,,,,,,,,,,0,3,3,2,1,,,,,,,,,,,,,,,,,,,,,,,,,,,,,,,,,,,,,,,,,,,,,,
5f4c1b5626199983e1285d83,001,2022-11-20_18h01.27.635,Info_measure_main_exp,2022.2.2,MacIntel,59.99880002,,,,,,,,,,,,,,,,,,masks/mask_005.jpg,,,,,,,,,,,,,,,,,,,,,,,,,,,,,,,,,,,,,,,,,,,0,4,4,4,1,,,,,,,,,,,,,,,,,,,,,,,,,,,,,,,,,,,,,,,,,,,,,,
5f4c1b5626199983e1285d83,001,2022-11-20_18h01.27.635,Info_measure_main_exp,2022.2.2,MacIntel,59.99880002,,,,,,,,,,,,,,,,,,masks/mask_002.jpg,,,,,,,,,,,,,,,,,,,,,,,,,,,,,,,,,,,,,,,,,,,,,,,,0,0,0,1,1,,,,,,,,,,,,,,,,,,,,,,,,,,,,,,,,,,,,,,,,,
5f4c1b5626199983e1285d83,001,2022-11-20_18h01.27.635,Info_measure_main_exp,2022.2.2,MacIntel,59.99880002,,,,,,,,,,,,,,,,,,masks/mask_005.jpg,,,,,,,,,,,,,,,,,,,,,,,,,,,,,,,,,,,,,,,,,,,,,,,,0,1,1,4,1,,,,,,,,,,,,,,,,,,,,,,,,,,,,,,,,,,,,,,,,,
5f4c1b5626199983e1285d83,001,2022-11-20_18h01.27.635,Info_measure_main_exp,2022.2.2,MacIntel,59.99880002,,,,,,,,,,,,,,,,,,masks/mask_001.jpg,,,,,,,,,,,,,,,,,,,,,,,,,,,,,,,,,,,,,,,,,,,,,,,,0,2,2,0,1,,,,,,,,,,,,,,,,,,,,,,,,,,,,,,,,,,,,,,,,,
5f4c1b5626199983e1285d83,001,2022-11-20_18h01.27.635,Info_measure_main_exp,2022.2.2,MacIntel,59.99880002,,,,,,,,,,,,,,,,,,masks/mask_004.jpg,,,,,,,,,,,,,,,,,,,,,,,,,,,,,,,,,,,,,,,,,,,,,,,,0,3,3,3,1,,,,,,,,,,,,,,,,,,,,,,,,,,,,,,,,,,,,,,,,,
5f4c1b5626199983e1285d83,001,2022-11-20_18h01.27.635,Info_measure_main_exp,2022.2.2,MacIntel,59.99880002,,,,,,,,,,,,,,,,,,masks/mask_003.jpg,,,,,,,,,,,,,,,,,,,,,,,,,,,,,,,,,,,,,,,,,,,,,,,,0,4,4,2,1,,,,,,,,,,,,,,,,,,,,,,,,,,,,,,,,,,,,,,,,,
5f4c1b5626199983e1285d83,001,2022-11-20_18h01.27.635,Info_measure_main_exp,2022.2.2,MacIntel,59.99880002,,,,,,,,,,,,,,,,,,,,,,,,,,,,,,0,0.6517,1,,,,,,,,,,,,0,131,5,5,2274,2274,absent_patch/patch0002274.jpg,absent_patch/patch0002274.jpg,,,,,,,,,,,,,,,,,,,,-0.048240424,0.124297689,1,0,0,response7disk,5,0.00495931,0.006838277,1,0,0,center_square,0,4,4,114,1,,,,,,,,,,,,,,,,,,,,,,,
5f4c1b5626199983e1285d83,001,2022-11-20_18h01.27.635,Info_measure_main_exp,2022.2.2,MacIntel,59.99880002,,,,,,,,,,,,,,,,,,masks/mask_005.jpg,,,,,,,,,,,,,,,,,,,,,,,,,,,,,,,,,,,,,,,,,,,0,0,0,4,1,,,,,,,,,,,,,,,,,,,,,,,,,,,,,,,,,,,,,,,,,,,,,,
5f4c1b5626199983e1285d83,001,2022-11-20_18h01.27.635,Info_measure_main_exp,2022.2.2,MacIntel,59.99880002,,,,,,,,,,,,,,,,,,masks/mask_004.jpg,,,,,,,,,,,,,,,,,,,,,,,,,,,,,,,,,,,,,,,,,,,0,1,1,3,1,,,,,,,,,,,,,,,,,,,,,,,,,,,,,,,,,,,,,,,,,,,,,,
5f4c1b5626199983e1285d83,001,2022-11-20_18h01.27.635,Info_measure_main_exp,2022.2.2,MacIntel,59.99880002,,,,,,,,,,,,,,,,,,masks/mask_003.jpg,,,,,,,,,,,,,,,,,,,,,,,,,,,,,,,,,,,,,,,,,,,0,2,2,2,1,,,,,,,,,,,,,,,,,,,,,,,,,,,,,,,,,,,,,,,,,,,,,,
5f4c1b5626199983e1285d83,001,2022-11-20_18h01.27.635,Info_measure_main_exp,2022.2.2,MacIntel,59.99880002,,,,,,,,,,,,,,,,,,masks/mask_002.jpg,,,,,,,,,,,,,,,,,,,,,,,,,,,,,,,,,,,,,,,,,,,0,3,3,1,1,,,,,,,,,,,,,,,,,,,,,,,,,,,,,,,,,,,,,,,,,,,,,,
5f4c1b5626199983e1285d83,001,2022-11-20_18h01.27.635,Info_measure_main_exp,2022.2.2,MacIntel,59.99880002,,,,,,,,,,,,,,,,,,masks/mask_001.jpg,,,,,,,,,,,,,,,,,,,,,,,,,,,,,,,,,,,,,,,,,,,0,4,4,0,1,,,,,,,,,,,,,,,,,,,,,,,,,,,,,,,,,,,,,,,,,,,,,,
5f4c1b5626199983e1285d83,001,2022-11-20_18h01.27.635,Info_measure_main_exp,2022.2.2,MacIntel,59.99880002,,,,,,,,,,,,,,,,,,masks/mask_005.jpg,,,,,,,,,,,,,,,,,,,,,,,,,,,,,,,,,,,,,,,,,,,,,,,,0,0,0,4,1,,,,,,,,,,,,,,,,,,,,,,,,,,,,,,,,,,,,,,,,,
5f4c1b5626199983e1285d83,001,2022-11-20_18h01.27.635,Info_measure_main_exp,2022.2.2,MacIntel,59.99880002,,,,,,,,,,,,,,,,,,masks/mask_001.jpg,,,,,,,,,,,,,,,,,,,,,,,,,,,,,,,,,,,,,,,,,,,,,,,,0,1,1,0,1,,,,,,,,,,,,,,,,,,,,,,,,,,,,,,,,,,,,,,,,,
5f4c1b5626199983e1285d83,001,2022-11-20_18h01.27.635,Info_measure_main_exp,2022.2.2,MacIntel,59.99880002,,,,,,,,,,,,,,,,,,masks/mask_003.jpg,,,,,,,,,,,,,,,,,,,,,,,,,,,,,,,,,,,,,,,,,,,,,,,,0,2,2,2,1,,,,,,,,,,,,,,,,,,,,,,,,,,,,,,,,,,,,,,,,,
5f4c1b5626199983e1285d83,001,2022-11-20_18h01.27.635,Info_measure_main_exp,2022.2.2,MacIntel,59.99880002,,,,,,,,,,,,,,,,,,masks/mask_002.jpg,,,,,,,,,,,,,,,,,,,,,,,,,,,,,,,,,,,,,,,,,,,,,,,,0,3,3,1,1,,,,,,,,,,,,,,,,,,,,,,,,,,,,,,,,,,,,,,,,,
5f4c1b5626199983e1285d83,001,2022-11-20_18h01.27.635,Info_measure_main_exp,2022.2.2,MacIntel,59.99880002,,,,,,,,,,,,,,,,,,masks/mask_004.jpg,,,,,,,,,,,,,,,,,,,,,,,,,,,,,,,,,,,,,,,,,,,,,,,,0,4,4,3,1,,,,,,,,,,,,,,,,,,,,,,,,,,,,,,,,,,,,,,,,,
5f4c1b5626199983e1285d83,001,2022-11-20_18h01.27.635,Info_measure_main_exp,2022.2.2,MacIntel,59.99880002,,,,,,,,,,,,,,,,,,,,,,,,,,,,,,6,0.8334,1,,,,,,,,,,,,0,131,5,5,1986,1950,absent_patch/patch0001986.jpg,absent_patch/patch0001950.jpg,,,,,,,,,,,,,,,,,,,,0.141410319,0.038439941,1,0,0,response1disk,6,0.004552002,-0.000991686,1,0,0,center_square,0,5,5,15,1,,,,,,,,,,,,,,,,,,,,,,,
5f4c1b5626199983e1285d83,001,2022-11-20_18h01.27.635,Info_measure_main_exp,2022.2.2,MacIntel,59.99880002,,,,,,,,,,,,,,,,,,masks/mask_003.jpg,,,,,,,,,,,,,,,,,,,,,,,,,,,,,,,,,,,,,,,,,,,0,0,0,2,1,,,,,,,,,,,,,,,,,,,,,,,,,,,,,,,,,,,,,,,,,,,,,,
5f4c1b5626199983e1285d83,001,2022-11-20_18h01.27.635,Info_measure_main_exp,2022.2.2,MacIntel,59.99880002,,,,,,,,,,,,,,,,,,masks/mask_002.jpg,,,,,,,,,,,,,,,,,,,,,,,,,,,,,,,,,,,,,,,,,,,0,1,1,1,1,,,,,,,,,,,,,,,,,,,,,,,,,,,,,,,,,,,,,,,,,,,,,,
5f4c1b5626199983e1285d83,001,2022-11-20_18h01.27.635,Info_measure_main_exp,2022.2.2,MacIntel,59.99880002,,,,,,,,,,,,,,,,,,masks/mask_004.jpg,,,,,,,,,,,,,,,,,,,,,,,,,,,,,,,,,,,,,,,,,,,0,2,2,3,1,,,,,,,,,,,,,,,,,,,,,,,,,,,,,,,,,,,,,,,,,,,,,,
5f4c1b5626199983e1285d83,001,2022-11-20_18h01.27.635,Info_measure_main_exp,2022.2.2,MacIntel,59.99880002,,,,,,,,,,,,,,,,,,masks/mask_005.jpg,,,,,,,,,,,,,,,,,,,,,,,,,,,,,,,,,,,,,,,,,,,0,3,3,4,1,,,,,,,,,,,,,,,,,,,,,,,,,,,,,,,,,,,,,,,,,,,,,,
5f4c1b5626199983e1285d83,001,2022-11-20_18h01.27.635,Info_measure_main_exp,2022.2.2,MacIntel,59.99880002,,,,,,,,,,,,,,,,,,masks/mask_001.jpg,,,,,,,,,,,,,,,,,,,,,,,,,,,,,,,,,,,,,,,,,,,0,4,4,0,1,,,,,,,,,,,,,,,,,,,,,,,,,,,,,,,,,,,,,,,,,,,,,,
5f4c1b5626199983e1285d83,001,2022-11-20_18h01.27.635,Info_measure_main_exp,2022.2.2,MacIntel,59.99880002,,,,,,,,,,,,,,,,,,masks/mask_002.jpg,,,,,,,,,,,,,,,,,,,,,,,,,,,,,,,,,,,,,,,,,,,,,,,,0,0,0,1,1,,,,,,,,,,,,,,,,,,,,,,,,,,,,,,,,,,,,,,,,,
5f4c1b5626199983e1285d83,001,2022-11-20_18h01.27.635,Info_measure_main_exp,2022.2.2,MacIntel,59.99880002,,,,,,,,,,,,,,,,,,masks/mask_004.jpg,,,,,,,,,,,,,,,,,,,,,,,,,,,,,,,,,,,,,,,,,,,,,,,,0,1,1,3,1,,,,,,,,,,,,,,,,,,,,,,,,,,,,,,,,,,,,,,,,,
5f4c1b5626199983e1285d83,001,2022-11-20_18h01.27.635,Info_measure_main_exp,2022.2.2,MacIntel,59.99880002,,,,,,,,,,,,,,,,,,masks/mask_001.jpg,,,,,,,,,,,,,,,,,,,,,,,,,,,,,,,,,,,,,,,,,,,,,,,,0,2,2,0,1,,,,,,,,,,,,,,,,,,,,,,,,,,,,,,,,,,,,,,,,,
5f4c1b5626199983e1285d83,001,2022-11-20_18h01.27.635,Info_measure_main_exp,2022.2.2,MacIntel,59.99880002,,,,,,,,,,,,,,,,,,masks/mask_005.jpg,,,,,,,,,,,,,,,,,,,,,,,,,,,,,,,,,,,,,,,,,,,,,,,,0,3,3,4,1,,,,,,,,,,,,,,,,,,,,,,,,,,,,,,,,,,,,,,,,,
5f4c1b5626199983e1285d83,001,2022-11-20_18h01.27.635,Info_measure_main_exp,2022.2.2,MacIntel,59.99880002,,,,,,,,,,,,,,,,,,masks/mask_003.jpg,,,,,,,,,,,,,,,,,,,,,,,,,,,,,,,,,,,,,,,,,,,,,,,,0,4,4,2,1,,,,,,,,,,,,,,,,,,,,,,,,,,,,,,,,,,,,,,,,,
5f4c1b5626199983e1285d83,001,2022-11-20_18h01.27.635,Info_measure_main_exp,2022.2.2,MacIntel,59.99880002,,,,,,,,,,,,,,,,,,,,,,,,,,,,,,0,0.6965,1,,,,,,,,,,,,0,131,5,5,2298,2298,absent_patch/patch0002298.jpg,absent_patch/patch0002298.jpg,,,,,,,,,,,,,,,,,,,,-0.053254327,0.095348884,1,0,0,response7disk,7,-0.004260118,0.006683621,1,0,0,center_square,0,6,6,37,1,,,,,,,,,,,,,,,,,,,,,,,
5f4c1b5626199983e1285d83,001,2022-11-20_18h01.27.635,Info_measure_main_exp,2022.2.2,MacIntel,59.99880002,,,,,,,,,,,,,,,,,,masks/mask_003.jpg,,,,,,,,,,,,,,,,,,,,,,,,,,,,,,,,,,,,,,,,,,,0,0,0,2,1,,,,,,,,,,,,,,,,,,,,,,,,,,,,,,,,,,,,,,,,,,,,,,
5f4c1b5626199983e1285d83,001,2022-11-20_18h01.27.635,Info_measure_main_exp,2022.2.2,MacIntel,59.99880002,,,,,,,,,,,,,,,,,,masks/mask_004.jpg,,,,,,,,,,,,,,,,,,,,,,,,,,,,,,,,,,,,,,,,,,,0,1,1,3,1,,,,,,,,,,,,,,,,,,,,,,,,,,,,,,,,,,,,,,,,,,,,,,
5f4c1b5626199983e1285d83,001,2022-11-20_18h01.27.635,Info_measure_main_exp,2022.2.2,MacIntel,59.99880002,,,,,,,,,,,,,,,,,,masks/mask_001.jpg,,,,,,,,,,,,,,,,,,,,,,,,,,,,,,,,,,,,,,,,,,,0,2,2,0,1,,,,,,,,,,,,,,,,,,,,,,,,,,,,,,,,,,,,,,,,,,,,,,
5f4c1b5626199983e1285d83,001,2022-11-20_18h01.27.635,Info_measure_main_exp,2022.2.2,MacIntel,59.99880002,,,,,,,,,,,,,,,,,,masks/mask_002.jpg,,,,,,,,,,,,,,,,,,,,,,,,,,,,,,,,,,,,,,,,,,,0,3,3,1,1,,,,,,,,,,,,,,,,,,,,,,,,,,,,,,,,,,,,,,,,,,,,,,
5f4c1b5626199983e1285d83,001,2022-11-20_18h01.27.635,Info_measure_main_exp,2022.2.2,MacIntel,59.99880002,,,,,,,,,,,,,,,,,,masks/mask_005.jpg,,,,,,,,,,,,,,,,,,,,,,,,,,,,,,,,,,,,,,,,,,,0,4,4,4,1,,,,,,,,,,,,,,,,,,,,,,,,,,,,,,,,,,,,,,,,,,,,,,
5f4c1b5626199983e1285d83,001,2022-11-20_18h01.27.635,Info_measure_main_exp,2022.2.2,MacIntel,59.99880002,,,,,,,,,,,,,,,,,,masks/mask_005.jpg,,,,,,,,,,,,,,,,,,,,,,,,,,,,,,,,,,,,,,,,,,,,,,,,0,0,0,4,1,,,,,,,,,,,,,,,,,,,,,,,,,,,,,,,,,,,,,,,,,
5f4c1b5626199983e1285d83,001,2022-11-20_18h01.27.635,Info_measure_main_exp,2022.2.2,MacIntel,59.99880002,,,,,,,,,,,,,,,,,,masks/mask_004.jpg,,,,,,,,,,,,,,,,,,,,,,,,,,,,,,,,,,,,,,,,,,,,,,,,0,1,1,3,1,,,,,,,,,,,,,,,,,,,,,,,,,,,,,,,,,,,,,,,,,
5f4c1b5626199983e1285d83,001,2022-11-20_18h01.27.635,Info_measure_main_exp,2022.2.2,MacIntel,59.99880002,,,,,,,,,,,,,,,,,,masks/mask_001.jpg,,,,,,,,,,,,,,,,,,,,,,,,,,,,,,,,,,,,,,,,,,,,,,,,0,2,2,0,1,,,,,,,,,,,,,,,,,,,,,,,,,,,,,,,,,,,,,,,,,
5f4c1b5626199983e1285d83,001,2022-11-20_18h01.27.635,Info_measure_main_exp,2022.2.2,MacIntel,59.99880002,,,,,,,,,,,,,,,,,,masks/mask_002.jpg,,,,,,,,,,,,,,,,,,,,,,,,,,,,,,,,,,,,,,,,,,,,,,,,0,3,3,1,1,,,,,,,,,,,,,,,,,,,,,,,,,,,,,,,,,,,,,,,,,
5f4c1b5626199983e1285d83,001,2022-11-20_18h01.27.635,Info_measure_main_exp,2022.2.2,MacIntel,59.99880002,,,,,,,,,,,,,,,,,,masks/mask_003.jpg,,,,,,,,,,,,,,,,,,,,,,,,,,,,,,,,,,,,,,,,,,,,,,,,0,4,4,2,1,,,,,,,,,,,,,,,,,,,,,,,,,,,,,,,,,,,,,,,,,
5f4c1b5626199983e1285d83,001,2022-11-20_18h01.27.635,Info_measure_main_exp,2022.2.2,MacIntel,59.99880002,,,,,,,,,,,,,,,,,,,,,,,,,,,,,,6,0.6848,1,,,,,,,,,,,,1,131,5,5,1950,1,absent_patch/patch0001950.jpg,present_patch/cong_131_5_a.jpg,,,,,,,,,,,,,,,,,,,,0.094861043,0.037687005,1,0,0,response1disk,8,0.003660346,-0.004607917,1,0,0,center_square,0,7,7,39,1,,,,,,,,,,,,,,,,,,,,,,,
5f4c1b5626199983e1285d83,001,2022-11-20_18h01.27.635,Info_measure_main_exp,2022.2.2,MacIntel,59.99880002,,,,,,,,,,,,,,,,,,masks/mask_003.jpg,,,,,,,,,,,,,,,,,,,,,,,,,,,,,,,,,,,,,,,,,,,0,0,0,2,1,,,,,,,,,,,,,,,,,,,,,,,,,,,,,,,,,,,,,,,,,,,,,,
5f4c1b5626199983e1285d83,001,2022-11-20_18h01.27.635,Info_measure_main_exp,2022.2.2,MacIntel,59.99880002,,,,,,,,,,,,,,,,,,masks/mask_002.jpg,,,,,,,,,,,,,,,,,,,,,,,,,,,,,,,,,,,,,,,,,,,0,1,1,1,1,,,,,,,,,,,,,,,,,,,,,,,,,,,,,,,,,,,,,,,,,,,,,,
5f4c1b5626199983e1285d83,001,2022-11-20_18h01.27.635,Info_measure_main_exp,2022.2.2,MacIntel,59.99880002,,,,,,,,,,,,,,,,,,masks/mask_004.jpg,,,,,,,,,,,,,,,,,,,,,,,,,,,,,,,,,,,,,,,,,,,0,2,2,3,1,,,,,,,,,,,,,,,,,,,,,,,,,,,,,,,,,,,,,,,,,,,,,,
5f4c1b5626199983e1285d83,001,2022-11-20_18h01.27.635,Info_measure_main_exp,2022.2.2,MacIntel,59.99880002,,,,,,,,,,,,,,,,,,masks/mask_005.jpg,,,,,,,,,,,,,,,,,,,,,,,,,,,,,,,,,,,,,,,,,,,0,3,3,4,1,,,,,,,,,,,,,,,,,,,,,,,,,,,,,,,,,,,,,,,,,,,,,,
5f4c1b5626199983e1285d83,001,2022-11-20_18h01.27.635,Info_measure_main_exp,2022.2.2,MacIntel,59.99880002,,,,,,,,,,,,,,,,,,masks/mask_001.jpg,,,,,,,,,,,,,,,,,,,,,,,,,,,,,,,,,,,,,,,,,,,0,4,4,0,1,,,,,,,,,,,,,,,,,,,,,,,,,,,,,,,,,,,,,,,,,,,,,,
5f4c1b5626199983e1285d83,001,2022-11-20_18h01.27.635,Info_measure_main_exp,2022.2.2,MacIntel,59.99880002,,,,,,,,,,,,,,,,,,masks/mask_003.jpg,,,,,,,,,,,,,,,,,,,,,,,,,,,,,,,,,,,,,,,,,,,,,,,,0,0,0,2,1,,,,,,,,,,,,,,,,,,,,,,,,,,,,,,,,,,,,,,,,,
5f4c1b5626199983e1285d83,001,2022-11-20_18h01.27.635,Info_measure_main_exp,2022.2.2,MacIntel,59.99880002,,,,,,,,,,,,,,,,,,masks/mask_001.jpg,,,,,,,,,,,,,,,,,,,,,,,,,,,,,,,,,,,,,,,,,,,,,,,,0,1,1,0,1,,,,,,,,,,,,,,,,,,,,,,,,,,,,,,,,,,,,,,,,,
5f4c1b5626199983e1285d83,001,2022-11-20_18h01.27.635,Info_measure_main_exp,2022.2.2,MacIntel,59.99880002,,,,,,,,,,,,,,,,,,masks/mask_004.jpg,,,,,,,,,,,,,,,,,,,,,,,,,,,,,,,,,,,,,,,,,,,,,,,,0,2,2,3,1,,,,,,,,,,,,,,,,,,,,,,,,,,,,,,,,,,,,,,,,,
5f4c1b5626199983e1285d83,001,2022-11-20_18h01.27.635,Info_measure_main_exp,2022.2.2,MacIntel,59.99880002,,,,,,,,,,,,,,,,,,masks/mask_002.jpg,,,,,,,,,,,,,,,,,,,,,,,,,,,,,,,,,,,,,,,,,,,,,,,,0,3,3,1,1,,,,,,,,,,,,,,,,,,,,,,,,,,,,,,,,,,,,,,,,,
5f4c1b5626199983e1285d83,001,2022-11-20_18h01.27.635,Info_measure_main_exp,2022.2.2,MacIntel,59.99880002,,,,,,,,,,,,,,,,,,masks/mask_005.jpg,,,,,,,,,,,,,,,,,,,,,,,,,,,,,,,,,,,,,,,,,,,,,,,,0,4,4,4,1,,,,,,,,,,,,,,,,,,,,,,,,,,,,,,,,,,,,,,,,,
5f4c1b5626199983e1285d83,001,2022-11-20_18h01.27.635,Info_measure_main_exp,2022.2.2,MacIntel,59.99880002,,,,,,,,,,,,,,,,,,,,,,,,,,,,,,7,0.6664,1,,,,,,,,,,,,1,131,5,5,1,2178,present_patch/cong_131_5_a.jpg,absent_patch/patch0002178.jpg,,,,,,,,,,,,,,,,,,,,0.050276489,0.127887166,1,0,0,response1disk,9,0.001929253,-0.003388265,1,0,0,center_square,0,8,8,40,1,,,,,,,,,,,,,,,,,,,,,,,
5f4c1b5626199983e1285d83,001,2022-11-20_18h01.27.635,Info_measure_main_exp,2022.2.2,MacIntel,59.99880002,,,,,,,,,,,,,,,,,,masks/mask_002.jpg,,,,,,,,,,,,,,,,,,,,,,,,,,,,,,,,,,,,,,,,,,,0,0,0,1,1,,,,,,,,,,,,,,,,,,,,,,,,,,,,,,,,,,,,,,,,,,,,,,
5f4c1b5626199983e1285d83,001,2022-11-20_18h01.27.635,Info_measure_main_exp,2022.2.2,MacIntel,59.99880002,,,,,,,,,,,,,,,,,,masks/mask_004.jpg,,,,,,,,,,,,,,,,,,,,,,,,,,,,,,,,,,,,,,,,,,,0,1,1,3,1,,,,,,,,,,,,,,,,,,,,,,,,,,,,,,,,,,,,,,,,,,,,,,
5f4c1b5626199983e1285d83,001,2022-11-20_18h01.27.635,Info_measure_main_exp,2022.2.2,MacIntel,59.99880002,,,,,,,,,,,,,,,,,,masks/mask_003.jpg,,,,,,,,,,,,,,,,,,,,,,,,,,,,,,,,,,,,,,,,,,,0,2,2,2,1,,,,,,,,,,,,,,,,,,,,,,,,,,,,,,,,,,,,,,,,,,,,,,
5f4c1b5626199983e1285d83,001,2022-11-20_18h01.27.635,Info_measure_main_exp,2022.2.2,MacIntel,59.99880002,,,,,,,,,,,,,,,,,,masks/mask_001.jpg,,,,,,,,,,,,,,,,,,,,,,,,,,,,,,,,,,,,,,,,,,,0,3,3,0,1,,,,,,,,,,,,,,,,,,,,,,,,,,,,,,,,,,,,,,,,,,,,,,
5f4c1b5626199983e1285d83,001,2022-11-20_18h01.27.635,Info_measure_main_exp,2022.2.2,MacIntel,59.99880002,,,,,,,,,,,,,,,,,,masks/mask_005.jpg,,,,,,,,,,,,,,,,,,,,,,,,,,,,,,,,,,,,,,,,,,,0,4,4,4,1,,,,,,,,,,,,,,,,,,,,,,,,,,,,,,,,,,,,,,,,,,,,,,
5f4c1b5626199983e1285d83,001,2022-11-20_18h01.27.635,Info_measure_main_exp,2022.2.2,MacIntel,59.99880002,,,,,,,,,,,,,,,,,,masks/mask_005.jpg,,,,,,,,,,,,,,,,,,,,,,,,,,,,,,,,,,,,,,,,,,,,,,,,0,0,0,4,1,,,,,,,,,,,,,,,,,,,,,,,,,,,,,,,,,,,,,,,,,
5f4c1b5626199983e1285d83,001,2022-11-20_18h01.27.635,Info_measure_main_exp,2022.2.2,MacIntel,59.99880002,,,,,,,,,,,,,,,,,,masks/mask_004.jpg,,,,,,,,,,,,,,,,,,,,,,,,,,,,,,,,,,,,,,,,,,,,,,,,0,1,1,3,1,,,,,,,,,,,,,,,,,,,,,,,,,,,,,,,,,,,,,,,,,
5f4c1b5626199983e1285d83,001,2022-11-20_18h01.27.635,Info_measure_main_exp,2022.2.2,MacIntel,59.99880002,,,,,,,,,,,,,,,,,,masks/mask_001.jpg,,,,,,,,,,,,,,,,,,,,,,,,,,,,,,,,,,,,,,,,,,,,,,,,0,2,2,0,1,,,,,,,,,,,,,,,,,,,,,,,,,,,,,,,,,,,,,,,,,
5f4c1b5626199983e1285d83,001,2022-11-20_18h01.27.635,Info_measure_main_exp,2022.2.2,MacIntel,59.99880002,,,,,,,,,,,,,,,,,,masks/mask_003.jpg,,,,,,,,,,,,,,,,,,,,,,,,,,,,,,,,,,,,,,,,,,,,,,,,0,3,3,2,1,,,,,,,,,,,,,,,,,,,,,,,,,,,,,,,,,,,,,,,,,
5f4c1b5626199983e1285d83,001,2022-11-20_18h01.27.635,Info_measure_main_exp,2022.2.2,MacIntel,59.99880002,,,,,,,,,,,,,,,,,,masks/mask_002.jpg,,,,,,,,,,,,,,,,,,,,,,,,,,,,,,,,,,,,,,,,,,,,,,,,0,4,4,1,1,,,,,,,,,,,,,,,,,,,,,,,,,,,,,,,,,,,,,,,,,
5f4c1b5626199983e1285d83,001,2022-11-20_18h01.27.635,Info_measure_main_exp,2022.2.2,MacIntel,59.99880002,,,,,,,,,,,,,,,,,,,,,,,,,,,,,,6,0.7179,1,,,,,,,,,,,,0,131,5,5,2190,2238,absent_patch/patch0002190.jpg,absent_patch/patch0002238.jpg,,,,,,,,,,,,,,,,,,,,0.169771864,0.069648098,1,0,0,response1disk,10,0.001231283,0.00686537,1,0,0,center_square,0,9,9,53,1,,,,,,,,,,,,,,,,,,,,,,,
5f4c1b5626199983e1285d83,001,2022-11-20_18h01.27.635,Info_measure_main_exp,2022.2.2,MacIntel,59.99880002,,,,,,,,,,,,,,,,,,masks/mask_005.jpg,,,,,,,,,,,,,,,,,,,,,,,,,,,,,,,,,,,,,,,,,,,0,0,0,4,1,,,,,,,,,,,,,,,,,,,,,,,,,,,,,,,,,,,,,,,,,,,,,,
5f4c1b5626199983e1285d83,001,2022-11-20_18h01.27.635,Info_measure_main_exp,2022.2.2,MacIntel,59.99880002,,,,,,,,,,,,,,,,,,masks/mask_004.jpg,,,,,,,,,,,,,,,,,,,,,,,,,,,,,,,,,,,,,,,,,,,0,1,1,3,1,,,,,,,,,,,,,,,,,,,,,,,,,,,,,,,,,,,,,,,,,,,,,,
5f4c1b5626199983e1285d83,001,2022-11-20_18h01.27.635,Info_measure_main_exp,2022.2.2,MacIntel,59.99880002,,,,,,,,,,,,,,,,,,masks/mask_002.jpg,,,,,,,,,,,,,,,,,,,,,,,,,,,,,,,,,,,,,,,,,,,0,2,2,1,1,,,,,,,,,,,,,,,,,,,,,,,,,,,,,,,,,,,,,,,,,,,,,,
5f4c1b5626199983e1285d83,001,2022-11-20_18h01.27.635,Info_measure_main_exp,2022.2.2,MacIntel,59.99880002,,,,,,,,,,,,,,,,,,masks/mask_003.jpg,,,,,,,,,,,,,,,,,,,,,,,,,,,,,,,,,,,,,,,,,,,0,3,3,2,1,,,,,,,,,,,,,,,,,,,,,,,,,,,,,,,,,,,,,,,,,,,,,,
5f4c1b5626199983e1285d83,001,2022-11-20_18h01.27.635,Info_measure_main_exp,2022.2.2,MacIntel,59.99880002,,,,,,,,,,,,,,,,,,masks/mask_001.jpg,,,,,,,,,,,,,,,,,,,,,,,,,,,,,,,,,,,,,,,,,,,0,4,4,0,1,,,,,,,,,,,,,,,,,,,,,,,,,,,,,,,,,,,,,,,,,,,,,,
5f4c1b5626199983e1285d83,001,2022-11-20_18h01.27.635,Info_measure_main_exp,2022.2.2,MacIntel,59.99880002,,,,,,,,,,,,,,,,,,masks/mask_005.jpg,,,,,,,,,,,,,,,,,,,,,,,,,,,,,,,,,,,,,,,,,,,,,,,,0,0,0,4,1,,,,,,,,,,,,,,,,,,,,,,,,,,,,,,,,,,,,,,,,,
5f4c1b5626199983e1285d83,001,2022-11-20_18h01.27.635,Info_measure_main_exp,2022.2.2,MacIntel,59.99880002,,,,,,,,,,,,,,,,,,masks/mask_001.jpg,,,,,,,,,,,,,,,,,,,,,,,,,,,,,,,,,,,,,,,,,,,,,,,,0,1,1,0,1,,,,,,,,,,,,,,,,,,,,,,,,,,,,,,,,,,,,,,,,,
5f4c1b5626199983e1285d83,001,2022-11-20_18h01.27.635,Info_measure_main_exp,2022.2.2,MacIntel,59.99880002,,,,,,,,,,,,,,,,,,masks/mask_003.jpg,,,,,,,,,,,,,,,,,,,,,,,,,,,,,,,,,,,,,,,,,,,,,,,,0,2,2,2,1,,,,,,,,,,,,,,,,,,,,,,,,,,,,,,,,,,,,,,,,,
5f4c1b5626199983e1285d83,001,2022-11-20_18h01.27.635,Info_measure_main_exp,2022.2.2,MacIntel,59.99880002,,,,,,,,,,,,,,,,,,masks/mask_004.jpg,,,,,,,,,,,,,,,,,,,,,,,,,,,,,,,,,,,,,,,,,,,,,,,,0,3,3,3,1,,,,,,,,,,,,,,,,,,,,,,,,,,,,,,,,,,,,,,,,,
5f4c1b5626199983e1285d83,001,2022-11-20_18h01.27.635,Info_measure_main_exp,2022.2.2,MacIntel,59.99880002,,,,,,,,,,,,,,,,,,masks/mask_002.jpg,,,,,,,,,,,,,,,,,,,,,,,,,,,,,,,,,,,,,,,,,,,,,,,,0,4,4,1,1,,,,,,,,,,,,,,,,,,,,,,,,,,,,,,,,,,,,,,,,,
5f4c1b5626199983e1285d83,001,2022-11-20_18h01.27.635,Info_measure_main_exp,2022.2.2,MacIntel,59.99880002,,,,,,,,,,,,,,,,,,,,,,,,,,,,,,6,0.5667,1,,,,,,,,,,,,0,131,5,5,2214,1986,absent_patch/patch0002214.jpg,absent_patch/patch0001986.jpg,,,,,,,,,,,,,,,,,,,,0.126552327,0.049450107,1,0,0,response1disk,11,-0.004352688,-0.002799513,1,0,0,center_square,0,10,10,34,1,,,,,,,,,,,,,,,,,,,,,,,
5f4c1b5626199983e1285d83,001,2022-11-20_18h01.27.635,Info_measure_main_exp,2022.2.2,MacIntel,59.99880002,,,,,,,,,,,,,,,,,,masks/mask_001.jpg,,,,,,,,,,,,,,,,,,,,,,,,,,,,,,,,,,,,,,,,,,,0,0,0,0,1,,,,,,,,,,,,,,,,,,,,,,,,,,,,,,,,,,,,,,,,,,,,,,
5f4c1b5626199983e1285d83,001,2022-11-20_18h01.27.635,Info_measure_main_exp,2022.2.2,MacIntel,59.99880002,,,,,,,,,,,,,,,,,,masks/mask_005.jpg,,,,,,,,,,,,,,,,,,,,,,,,,,,,,,,,,,,,,,,,,,,0,1,1,4,1,,,,,,,,,,,,,,,,,,,,,,,,,,,,,,,,,,,,,,,,,,,,,,
5f4c1b5626199983e1285d83,001,2022-11-20_18h01.27.635,Info_measure_main_exp,2022.2.2,MacIntel,59.99880002,,,,,,,,,,,,,,,,,,masks/mask_004.jpg,,,,,,,,,,,,,,,,,,,,,,,,,,,,,,,,,,,,,,,,,,,0,2,2,3,1,,,,,,,,,,,,,,,,,,,,,,,,,,,,,,,,,,,,,,,,,,,,,,
5f4c1b5626199983e1285d83,001,2022-11-20_18h01.27.635,Info_measure_main_exp,2022.2.2,MacIntel,59.99880002,,,,,,,,,,,,,,,,,,masks/mask_003.jpg,,,,,,,,,,,,,,,,,,,,,,,,,,,,,,,,,,,,,,,,,,,0,3,3,2,1,,,,,,,,,,,,,,,,,,,,,,,,,,,,,,,,,,,,,,,,,,,,,,
5f4c1b5626199983e1285d83,001,2022-11-20_18h01.27.635,Info_measure_main_exp,2022.2.2,MacIntel,59.99880002,,,,,,,,,,,,,,,,,,masks/mask_002.jpg,,,,,,,,,,,,,,,,,,,,,,,,,,,,,,,,,,,,,,,,,,,0,4,4,1,1,,,,,,,,,,,,,,,,,,,,,,,,,,,,,,,,,,,,,,,,,,,,,,
5f4c1b5626199983e1285d83,001,2022-11-20_18h01.27.635,Info_measure_main_exp,2022.2.2,MacIntel,59.99880002,,,,,,,,,,,,,,,,,,masks/mask_001.jpg,,,,,,,,,,,,,,,,,,,,,,,,,,,,,,,,,,,,,,,,,,,,,,,,0,0,0,0,1,,,,,,,,,,,,,,,,,,,,,,,,,,,,,,,,,,,,,,,,,
5f4c1b5626199983e1285d83,001,2022-11-20_18h01.27.635,Info_measure_main_exp,2022.2.2,MacIntel,59.99880002,,,,,,,,,,,,,,,,,,masks/mask_004.jpg,,,,,,,,,,,,,,,,,,,,,,,,,,,,,,,,,,,,,,,,,,,,,,,,0,1,1,3,1,,,,,,,,,,,,,,,,,,,,,,,,,,,,,,,,,,,,,,,,,
5f4c1b5626199983e1285d83,001,2022-11-20_18h01.27.635,Info_measure_main_exp,2022.2.2,MacIntel,59.99880002,,,,,,,,,,,,,,,,,,masks/mask_002.jpg,,,,,,,,,,,,,,,,,,,,,,,,,,,,,,,,,,,,,,,,,,,,,,,,0,2,2,1,1,,,,,,,,,,,,,,,,,,,,,,,,,,,,,,,,,,,,,,,,,
5f4c1b5626199983e1285d83,001,2022-11-20_18h01.27.635,Info_measure_main_exp,2022.2.2,MacIntel,59.99880002,,,,,,,,,,,,,,,,,,masks/mask_003.jpg,,,,,,,,,,,,,,,,,,,,,,,,,,,,,,,,,,,,,,,,,,,,,,,,0,3,3,2,1,,,,,,,,,,,,,,,,,,,,,,,,,,,,,,,,,,,,,,,,,
5f4c1b5626199983e1285d83,001,2022-11-20_18h01.27.635,Info_measure_main_exp,2022.2.2,MacIntel,59.99880002,,,,,,,,,,,,,,,,,,masks/mask_005.jpg,,,,,,,,,,,,,,,,,,,,,,,,,,,,,,,,,,,,,,,,,,,,,,,,0,4,4,4,1,,,,,,,,,,,,,,,,,,,,,,,,,,,,,,,,,,,,,,,,,
5f4c1b5626199983e1285d83,001,2022-11-20_18h01.27.635,Info_measure_main_exp,2022.2.2,MacIntel,59.99880002,,,,,,,,,,,,,,,,,,,,,,,,,,,,,,6,0.6501,1,,,,,,,,,,,,0,131,5,5,2238,2298,absent_patch/patch0002238.jpg,absent_patch/patch0002298.jpg,,,,,,,,,,,,,,,,,,,,0.109494154,0.037873637,1,0,0,response1disk,12,0.002816772,0.008912557,1,0,0,center_square,0,11,11,51,1,,,,,,,,,,,,,,,,,,,,,,,
5f4c1b5626199983e1285d83,001,2022-11-20_18h01.27.635,Info_measure_main_exp,2022.2.2,MacIntel,59.99880002,,,,,,,,,,,,,,,,,,masks/mask_004.jpg,,,,,,,,,,,,,,,,,,,,,,,,,,,,,,,,,,,,,,,,,,,0,0,0,3,1,,,,,,,,,,,,,,,,,,,,,,,,,,,,,,,,,,,,,,,,,,,,,,
5f4c1b5626199983e1285d83,001,2022-11-20_18h01.27.635,Info_measure_main_exp,2022.2.2,MacIntel,59.99880002,,,,,,,,,,,,,,,,,,masks/mask_003.jpg,,,,,,,,,,,,,,,,,,,,,,,,,,,,,,,,,,,,,,,,,,,0,1,1,2,1,,,,,,,,,,,,,,,,,,,,,,,,,,,,,,,,,,,,,,,,,,,,,,
5f4c1b5626199983e1285d83,001,2022-11-20_18h01.27.635,Info_measure_main_exp,2022.2.2,MacIntel,59.99880002,,,,,,,,,,,,,,,,,,masks/mask_005.jpg,,,,,,,,,,,,,,,,,,,,,,,,,,,,,,,,,,,,,,,,,,,0,2,2,4,1,,,,,,,,,,,,,,,,,,,,,,,,,,,,,,,,,,,,,,,,,,,,,,
5f4c1b5626199983e1285d83,001,2022-11-20_18h01.27.635,Info_measure_main_exp,2022.2.2,MacIntel,59.99880002,,,,,,,,,,,,,,,,,,masks/mask_002.jpg,,,,,,,,,,,,,,,,,,,,,,,,,,,,,,,,,,,,,,,,,,,0,3,3,1,1,,,,,,,,,,,,,,,,,,,,,,,,,,,,,,,,,,,,,,,,,,,,,,
5f4c1b5626199983e1285d83,001,2022-11-20_18h01.27.635,Info_measure_main_exp,2022.2.2,MacIntel,59.99880002,,,,,,,,,,,,,,,,,,masks/mask_001.jpg,,,,,,,,,,,,,,,,,,,,,,,,,,,,,,,,,,,,,,,,,,,0,4,4,0,1,,,,,,,,,,,,,,,,,,,,,,,,,,,,,,,,,,,,,,,,,,,,,,
5f4c1b5626199983e1285d83,001,2022-11-20_18h01.27.635,Info_measure_main_exp,2022.2.2,MacIntel,59.99880002,,,,,,,,,,,,,,,,,,masks/mask_002.jpg,,,,,,,,,,,,,,,,,,,,,,,,,,,,,,,,,,,,,,,,,,,,,,,,0,0,0,1,1,,,,,,,,,,,,,,,,,,,,,,,,,,,,,,,,,,,,,,,,,
5f4c1b5626199983e1285d83,001,2022-11-20_18h01.27.635,Info_measure_main_exp,2022.2.2,MacIntel,59.99880002,,,,,,,,,,,,,,,,,,masks/mask_001.jpg,,,,,,,,,,,,,,,,,,,,,,,,,,,,,,,,,,,,,,,,,,,,,,,,0,1,1,0,1,,,,,,,,,,,,,,,,,,,,,,,,,,,,,,,,,,,,,,,,,
5f4c1b5626199983e1285d83,001,2022-11-20_18h01.27.635,Info_measure_main_exp,2022.2.2,MacIntel,59.99880002,,,,,,,,,,,,,,,,,,masks/mask_004.jpg,,,,,,,,,,,,,,,,,,,,,,,,,,,,,,,,,,,,,,,,,,,,,,,,0,2,2,3,1,,,,,,,,,,,,,,,,,,,,,,,,,,,,,,,,,,,,,,,,,
5f4c1b5626199983e1285d83,001,2022-11-20_18h01.27.635,Info_measure_main_exp,2022.2.2,MacIntel,59.99880002,,,,,,,,,,,,,,,,,,masks/mask_003.jpg,,,,,,,,,,,,,,,,,,,,,,,,,,,,,,,,,,,,,,,,,,,,,,,,0,3,3,2,1,,,,,,,,,,,,,,,,,,,,,,,,,,,,,,,,,,,,,,,,,
5f4c1b5626199983e1285d83,001,2022-11-20_18h01.27.635,Info_measure_main_exp,2022.2.2,MacIntel,59.99880002,,,,,,,,,,,,,,,,,,masks/mask_005.jpg,,,,,,,,,,,,,,,,,,,,,,,,,,,,,,,,,,,,,,,,,,,,,,,,0,4,4,4,1,,,,,,,,,,,,,,,,,,,,,,,,,,,,,,,,,,,,,,,,,
5f4c1b5626199983e1285d83,001,2022-11-20_18h01.27.635,Info_measure_main_exp,2022.2.2,MacIntel,59.99880002,,,,,,,,,,,,,,,,,,,,,,,,,,,,,,5,0.533,1,,,,,,,,,,,,0,131,5,5,1974,2178,absent_patch/patch0001974.jpg,absent_patch/patch0002178.jpg,,,,,,,,,,,,,,,,,,,,0.141988932,-0.060265503,1,0,0,response3disk,13,0.003961995,0.008931207,1,0,0,center_square,0,12,12,44,1,,,,,,,,,,,,,,,,,,,,,,,
5f4c1b5626199983e1285d83,001,2022-11-20_18h01.27.635,Info_measure_main_exp,2022.2.2,MacIntel,59.99880002,,,,,,,,,,,,,,,,,,masks/mask_002.jpg,,,,,,,,,,,,,,,,,,,,,,,,,,,,,,,,,,,,,,,,,,,0,0,0,1,1,,,,,,,,,,,,,,,,,,,,,,,,,,,,,,,,,,,,,,,,,,,,,,
5f4c1b5626199983e1285d83,001,2022-11-20_18h01.27.635,Info_measure_main_exp,2022.2.2,MacIntel,59.99880002,,,,,,,,,,,,,,,,,,masks/mask_005.jpg,,,,,,,,,,,,,,,,,,,,,,,,,,,,,,,,,,,,,,,,,,,0,1,1,4,1,,,,,,,,,,,,,,,,,,,,,,,,,,,,,,,,,,,,,,,,,,,,,,
5f4c1b5626199983e1285d83,001,2022-11-20_18h01.27.635,Info_measure_main_exp,2022.2.2,MacIntel,59.99880002,,,,,,,,,,,,,,,,,,masks/mask_001.jpg,,,,,,,,,,,,,,,,,,,,,,,,,,,,,,,,,,,,,,,,,,,0,2,2,0,1,,,,,,,,,,,,,,,,,,,,,,,,,,,,,,,,,,,,,,,,,,,,,,
5f4c1b5626199983e1285d83,001,2022-11-20_18h01.27.635,Info_measure_main_exp,2022.2.2,MacIntel,59.99880002,,,,,,,,,,,,,,,,,,masks/mask_004.jpg,,,,,,,,,,,,,,,,,,,,,,,,,,,,,,,,,,,,,,,,,,,0,3,3,3,1,,,,,,,,,,,,,,,,,,,,,,,,,,,,,,,,,,,,,,,,,,,,,,
5f4c1b5626199983e1285d83,001,2022-11-20_18h01.27.635,Info_measure_main_exp,2022.2.2,MacIntel,59.99880002,,,,,,,,,,,,,,,,,,masks/mask_003.jpg,,,,,,,,,,,,,,,,,,,,,,,,,,,,,,,,,,,,,,,,,,,0,4,4,2,1,,,,,,,,,,,,,,,,,,,,,,,,,,,,,,,,,,,,,,,,,,,,,,
5f4c1b5626199983e1285d83,001,2022-11-20_18h01.27.635,Info_measure_main_exp,2022.2.2,MacIntel,59.99880002,,,,,,,,,,,,,,,,,,masks/mask_001.jpg,,,,,,,,,,,,,,,,,,,,,,,,,,,,,,,,,,,,,,,,,,,,,,,,0,0,0,0,1,,,,,,,,,,,,,,,,,,,,,,,,,,,,,,,,,,,,,,,,,
5f4c1b5626199983e1285d83,001,2022-11-20_18h01.27.635,Info_measure_main_exp,2022.2.2,MacIntel,59.99880002,,,,,,,,,,,,,,,,,,masks/mask_005.jpg,,,,,,,,,,,,,,,,,,,,,,,,,,,,,,,,,,,,,,,,,,,,,,,,0,1,1,4,1,,,,,,,,,,,,,,,,,,,,,,,,,,,,,,,,,,,,,,,,,
5f4c1b5626199983e1285d83,001,2022-11-20_18h01.27.635,Info_measure_main_exp,2022.2.2,MacIntel,59.99880002,,,,,,,,,,,,,,,,,,masks/mask_004.jpg,,,,,,,,,,,,,,,,,,,,,,,,,,,,,,,,,,,,,,,,,,,,,,,,0,2,2,3,1,,,,,,,,,,,,,,,,,,,,,,,,,,,,,,,,,,,,,,,,,
5f4c1b5626199983e1285d83,001,2022-11-20_18h01.27.635,Info_measure_main_exp,2022.2.2,MacIntel,59.99880002,,,,,,,,,,,,,,,,,,masks/mask_003.jpg,,,,,,,,,,,,,,,,,,,,,,,,,,,,,,,,,,,,,,,,,,,,,,,,0,3,3,2,1,,,,,,,,,,,,,,,,,,,,,,,,,,,,,,,,,,,,,,,,,
5f4c1b5626199983e1285d83,001,2022-11-20_18h01.27.635,Info_measure_main_exp,2022.2.2,MacIntel,59.99880002,,,,,,,,,,,,,,,,,,masks/mask_002.jpg,,,,,,,,,,,,,,,,,,,,,,,,,,,,,,,,,,,,,,,,,,,,,,,,0,4,4,1,1,,,,,,,,,,,,,,,,,,,,,,,,,,,,,,,,,,,,,,,,,
5f4c1b5626199983e1285d83,001,2022-11-20_18h01.27.635,Info_measure_main_exp,2022.2.2,MacIntel,59.99880002,,,,,,,,,,,,,,,,,,,,,,,,,,,,,,4,0.7669,1,,,,,,,,,,,,0,131,5,5,2142,2082,absent_patch/patch0002142.jpg,absent_patch/patch0002082.jpg,,,,,,,,,,,,,,,,,,,,0.039979316,-0.132194214,1,0,0,response3disk,14,0.006245728,0.000786811,1,0,0,center_square,0,13,13,88,1,,,,,,,,,,,,,,,,,,,,,,,
5f4c1b5626199983e1285d83,001,2022-11-20_18h01.27.635,Info_measure_main_exp,2022.2.2,MacIntel,59.99880002,,,,,,,,,,,,,,,,,,masks/mask_005.jpg,,,,,,,,,,,,,,,,,,,,,,,,,,,,,,,,,,,,,,,,,,,0,0,0,4,1,,,,,,,,,,,,,,,,,,,,,,,,,,,,,,,,,,,,,,,,,,,,,,
5f4c1b5626199983e1285d83,001,2022-11-20_18h01.27.635,Info_measure_main_exp,2022.2.2,MacIntel,59.99880002,,,,,,,,,,,,,,,,,,masks/mask_004.jpg,,,,,,,,,,,,,,,,,,,,,,,,,,,,,,,,,,,,,,,,,,,0,1,1,3,1,,,,,,,,,,,,,,,,,,,,,,,,,,,,,,,,,,,,,,,,,,,,,,
5f4c1b5626199983e1285d83,001,2022-11-20_18h01.27.635,Info_measure_main_exp,2022.2.2,MacIntel,59.99880002,,,,,,,,,,,,,,,,,,masks/mask_003.jpg,,,,,,,,,,,,,,,,,,,,,,,,,,,,,,,,,,,,,,,,,,,0,2,2,2,1,,,,,,,,,,,,,,,,,,,,,,,,,,,,,,,,,,,,,,,,,,,,,,
5f4c1b5626199983e1285d83,001,2022-11-20_18h01.27.635,Info_measure_main_exp,2022.2.2,MacIntel,59.99880002,,,,,,,,,,,,,,,,,,masks/mask_002.jpg,,,,,,,,,,,,,,,,,,,,,,,,,,,,,,,,,,,,,,,,,,,0,3,3,1,1,,,,,,,,,,,,,,,,,,,,,,,,,,,,,,,,,,,,,,,,,,,,,,
5f4c1b5626199983e1285d83,001,2022-11-20_18h01.27.635,Info_measure_main_exp,2022.2.2,MacIntel,59.99880002,,,,,,,,,,,,,,,,,,masks/mask_001.jpg,,,,,,,,,,,,,,,,,,,,,,,,,,,,,,,,,,,,,,,,,,,0,4,4,0,1,,,,,,,,,,,,,,,,,,,,,,,,,,,,,,,,,,,,,,,,,,,,,,
5f4c1b5626199983e1285d83,001,2022-11-20_18h01.27.635,Info_measure_main_exp,2022.2.2,MacIntel,59.99880002,,,,,,,,,,,,,,,,,,masks/mask_001.jpg,,,,,,,,,,,,,,,,,,,,,,,,,,,,,,,,,,,,,,,,,,,,,,,,0,0,0,0,1,,,,,,,,,,,,,,,,,,,,,,,,,,,,,,,,,,,,,,,,,
5f4c1b5626199983e1285d83,001,2022-11-20_18h01.27.635,Info_measure_main_exp,2022.2.2,MacIntel,59.99880002,,,,,,,,,,,,,,,,,,masks/mask_003.jpg,,,,,,,,,,,,,,,,,,,,,,,,,,,,,,,,,,,,,,,,,,,,,,,,0,1,1,2,1,,,,,,,,,,,,,,,,,,,,,,,,,,,,,,,,,,,,,,,,,
5f4c1b5626199983e1285d83,001,2022-11-20_18h01.27.635,Info_measure_main_exp,2022.2.2,MacIntel,59.99880002,,,,,,,,,,,,,,,,,,masks/mask_004.jpg,,,,,,,,,,,,,,,,,,,,,,,,,,,,,,,,,,,,,,,,,,,,,,,,0,2,2,3,1,,,,,,,,,,,,,,,,,,,,,,,,,,,,,,,,,,,,,,,,,
5f4c1b5626199983e1285d83,001,2022-11-20_18h01.27.635,Info_measure_main_exp,2022.2.2,MacIntel,59.99880002,,,,,,,,,,,,,,,,,,masks/mask_005.jpg,,,,,,,,,,,,,,,,,,,,,,,,,,,,,,,,,,,,,,,,,,,,,,,,0,3,3,4,1,,,,,,,,,,,,,,,,,,,,,,,,,,,,,,,,,,,,,,,,,
5f4c1b5626199983e1285d83,001,2022-11-20_18h01.27.635,Info_measure_main_exp,2022.2.2,MacIntel,59.99880002,,,,,,,,,,,,,,,,,,masks/mask_002.jpg,,,,,,,,,,,,,,,,,,,,,,,,,,,,,,,,,,,,,,,,,,,,,,,,0,4,4,1,1,,,,,,,,,,,,,,,,,,,,,,,,,,,,,,,,,,,,,,,,,
5f4c1b5626199983e1285d83,001,2022-11-20_18h01.27.635,Info_measure_main_exp,2022.2.2,MacIntel,59.99880002,,,,,,,,,,,,,,,,,,,,,,,,,,,,,,7,0.5982,1,,,,,,,,,,,,0,131,5,5,2178,2154,absent_patch/patch0002178.jpg,absent_patch/patch0002154.jpg,,,,,,,,,,,,,,,,,,,,0.059327799,0.125203383,1,0,0,response1disk,15,0.011639404,0.000696275,1,0,0,center_square,0,14,14,63,1,,,,,,,,,,,,,,,,,,,,,,,
5f4c1b5626199983e1285d83,001,2022-11-20_18h01.27.635,Info_measure_main_exp,2022.2.2,MacIntel,59.99880002,,,,,,,,,,,,,,,,,,masks/mask_005.jpg,,,,,,,,,,,,,,,,,,,,,,,,,,,,,,,,,,,,,,,,,,,0,0,0,4,1,,,,,,,,,,,,,,,,,,,,,,,,,,,,,,,,,,,,,,,,,,,,,,
5f4c1b5626199983e1285d83,001,2022-11-20_18h01.27.635,Info_measure_main_exp,2022.2.2,MacIntel,59.99880002,,,,,,,,,,,,,,,,,,masks/mask_002.jpg,,,,,,,,,,,,,,,,,,,,,,,,,,,,,,,,,,,,,,,,,,,0,1,1,1,1,,,,,,,,,,,,,,,,,,,,,,,,,,,,,,,,,,,,,,,,,,,,,,
5f4c1b5626199983e1285d83,001,2022-11-20_18h01.27.635,Info_measure_main_exp,2022.2.2,MacIntel,59.99880002,,,,,,,,,,,,,,,,,,masks/mask_001.jpg,,,,,,,,,,,,,,,,,,,,,,,,,,,,,,,,,,,,,,,,,,,0,2,2,0,1,,,,,,,,,,,,,,,,,,,,,,,,,,,,,,,,,,,,,,,,,,,,,,
5f4c1b5626199983e1285d83,001,2022-11-20_18h01.27.635,Info_measure_main_exp,2022.2.2,MacIntel,59.99880002,,,,,,,,,,,,,,,,,,masks/mask_004.jpg,,,,,,,,,,,,,,,,,,,,,,,,,,,,,,,,,,,,,,,,,,,0,3,3,3,1,,,,,,,,,,,,,,,,,,,,,,,,,,,,,,,,,,,,,,,,,,,,,,
5f4c1b5626199983e1285d83,001,2022-11-20_18h01.27.635,Info_measure_main_exp,2022.2.2,MacIntel,59.99880002,,,,,,,,,,,,,,,,,,masks/mask_003.jpg,,,,,,,,,,,,,,,,,,,,,,,,,,,,,,,,,,,,,,,,,,,0,4,4,2,1,,,,,,,,,,,,,,,,,,,,,,,,,,,,,,,,,,,,,,,,,,,,,,
5f4c1b5626199983e1285d83,001,2022-11-20_18h01.27.635,Info_measure_main_exp,2022.2.2,MacIntel,59.99880002,,,,,,,,,,,,,,,,,,masks/mask_003.jpg,,,,,,,,,,,,,,,,,,,,,,,,,,,,,,,,,,,,,,,,,,,,,,,,0,0,0,2,1,,,,,,,,,,,,,,,,,,,,,,,,,,,,,,,,,,,,,,,,,
5f4c1b5626199983e1285d83,001,2022-11-20_18h01.27.635,Info_measure_main_exp,2022.2.2,MacIntel,59.99880002,,,,,,,,,,,,,,,,,,masks/mask_001.jpg,,,,,,,,,,,,,,,,,,,,,,,,,,,,,,,,,,,,,,,,,,,,,,,,0,1,1,0,1,,,,,,,,,,,,,,,,,,,,,,,,,,,,,,,,,,,,,,,,,
5f4c1b5626199983e1285d83,001,2022-11-20_18h01.27.635,Info_measure_main_exp,2022.2.2,MacIntel,59.99880002,,,,,,,,,,,,,,,,,,masks/mask_002.jpg,,,,,,,,,,,,,,,,,,,,,,,,,,,,,,,,,,,,,,,,,,,,,,,,0,2,2,1,1,,,,,,,,,,,,,,,,,,,,,,,,,,,,,,,,,,,,,,,,,
5f4c1b5626199983e1285d83,001,2022-11-20_18h01.27.635,Info_measure_main_exp,2022.2.2,MacIntel,59.99880002,,,,,,,,,,,,,,,,,,masks/mask_004.jpg,,,,,,,,,,,,,,,,,,,,,,,,,,,,,,,,,,,,,,,,,,,,,,,,0,3,3,3,1,,,,,,,,,,,,,,,,,,,,,,,,,,,,,,,,,,,,,,,,,
5f4c1b5626199983e1285d83,001,2022-11-20_18h01.27.635,Info_measure_main_exp,2022.2.2,MacIntel,59.99880002,,,,,,,,,,,,,,,,,,masks/mask_005.jpg,,,,,,,,,,,,,,,,,,,,,,,,,,,,,,,,,,,,,,,,,,,,,,,,0,4,4,4,1,,,,,,,,,,,,,,,,,,,,,,,,,,,,,,,,,,,,,,,,,
5f4c1b5626199983e1285d83,001,2022-11-20_18h01.27.635,Info_measure_main_exp,2022.2.2,MacIntel,59.99880002,,,,,,,,,,,,,,,,,,,,,,,,,,,,,,6,0.5487,1,,,,,,,,,,,,0,131,5,5,2190,2082,absent_patch/patch0002190.jpg,absent_patch/patch0002082.jpg,,,,,,,,,,,,,,,,,,,,0.121689928,0.04172404,1,0,0,response1disk,16,0.001399333,0.003305359,1,0,0,center_square,0,15,15,112,1,,,,,,,,,,,,,,,,,,,,,,,
5f4c1b5626199983e1285d83,001,2022-11-20_18h01.27.635,Info_measure_main_exp,2022.2.2,MacIntel,59.99880002,,,,,,,,,,,,,,,,,,masks/mask_004.jpg,,,,,,,,,,,,,,,,,,,,,,,,,,,,,,,,,,,,,,,,,,,0,0,0,3,1,,,,,,,,,,,,,,,,,,,,,,,,,,,,,,,,,,,,,,,,,,,,,,
5f4c1b5626199983e1285d83,001,2022-11-20_18h01.27.635,Info_measure_main_exp,2022.2.2,MacIntel,59.99880002,,,,,,,,,,,,,,,,,,masks/mask_002.jpg,,,,,,,,,,,,,,,,,,,,,,,,,,,,,,,,,,,,,,,,,,,0,1,1,1,1,,,,,,,,,,,,,,,,,,,,,,,,,,,,,,,,,,,,,,,,,,,,,,
5f4c1b5626199983e1285d83,001,2022-11-20_18h01.27.635,Info_measure_main_exp,2022.2.2,MacIntel,59.99880002,,,,,,,,,,,,,,,,,,masks/mask_003.jpg,,,,,,,,,,,,,,,,,,,,,,,,,,,,,,,,,,,,,,,,,,,0,2,2,2,1,,,,,,,,,,,,,,,,,,,,,,,,,,,,,,,,,,,,,,,,,,,,,,
5f4c1b5626199983e1285d83,001,2022-11-20_18h01.27.635,Info_measure_main_exp,2022.2.2,MacIntel,59.99880002,,,,,,,,,,,,,,,,,,masks/mask_001.jpg,,,,,,,,,,,,,,,,,,,,,,,,,,,,,,,,,,,,,,,,,,,0,3,3,0,1,,,,,,,,,,,,,,,,,,,,,,,,,,,,,,,,,,,,,,,,,,,,,,
5f4c1b5626199983e1285d83,001,2022-11-20_18h01.27.635,Info_measure_main_exp,2022.2.2,MacIntel,59.99880002,,,,,,,,,,,,,,,,,,masks/mask_005.jpg,,,,,,,,,,,,,,,,,,,,,,,,,,,,,,,,,,,,,,,,,,,0,4,4,4,1,,,,,,,,,,,,,,,,,,,,,,,,,,,,,,,,,,,,,,,,,,,,,,
5f4c1b5626199983e1285d83,001,2022-11-20_18h01.27.635,Info_measure_main_exp,2022.2.2,MacIntel,59.99880002,,,,,,,,,,,,,,,,,,masks/mask_002.jpg,,,,,,,,,,,,,,,,,,,,,,,,,,,,,,,,,,,,,,,,,,,,,,,,0,0,0,1,1,,,,,,,,,,,,,,,,,,,,,,,,,,,,,,,,,,,,,,,,,
5f4c1b5626199983e1285d83,001,2022-11-20_18h01.27.635,Info_measure_main_exp,2022.2.2,MacIntel,59.99880002,,,,,,,,,,,,,,,,,,masks/mask_005.jpg,,,,,,,,,,,,,,,,,,,,,,,,,,,,,,,,,,,,,,,,,,,,,,,,0,1,1,4,1,,,,,,,,,,,,,,,,,,,,,,,,,,,,,,,,,,,,,,,,,
5f4c1b5626199983e1285d83,001,2022-11-20_18h01.27.635,Info_measure_main_exp,2022.2.2,MacIntel,59.99880002,,,,,,,,,,,,,,,,,,masks/mask_001.jpg,,,,,,,,,,,,,,,,,,,,,,,,,,,,,,,,,,,,,,,,,,,,,,,,0,2,2,0,1,,,,,,,,,,,,,,,,,,,,,,,,,,,,,,,,,,,,,,,,,
5f4c1b5626199983e1285d83,001,2022-11-20_18h01.27.635,Info_measure_main_exp,2022.2.2,MacIntel,59.99880002,,,,,,,,,,,,,,,,,,masks/mask_003.jpg,,,,,,,,,,,,,,,,,,,,,,,,,,,,,,,,,,,,,,,,,,,,,,,,0,3,3,2,1,,,,,,,,,,,,,,,,,,,,,,,,,,,,,,,,,,,,,,,,,
5f4c1b5626199983e1285d83,001,2022-11-20_18h01.27.635,Info_measure_main_exp,2022.2.2,MacIntel,59.99880002,,,,,,,,,,,,,,,,,,masks/mask_004.jpg,,,,,,,,,,,,,,,,,,,,,,,,,,,,,,,,,,,,,,,,,,,,,,,,0,4,4,3,1,,,,,,,,,,,,,,,,,,,,,,,,,,,,,,,,,,,,,,,,,
5f4c1b5626199983e1285d83,001,2022-11-20_18h01.27.635,Info_measure_main_exp,2022.2.2,MacIntel,59.99880002,,,,,,,,,,,,,,,,,,,,,,,,,,,,,,3,1.1987,1,,,,,,,,,,,,0,131,5,5,2274,2154,absent_patch/patch0002274.jpg,absent_patch/patch0002154.jpg,,,,,,,,,,,,,,,,,,,,-0.063880073,-0.149699164,1,0,0,response5disk,17,0.001159532,0.002060242,1,0,0,center_square,0,16,16,23,1,,,,,,,,,,,,,,,,,,,,,,,
5f4c1b5626199983e1285d83,001,2022-11-20_18h01.27.635,Info_measure_main_exp,2022.2.2,MacIntel,59.99880002,,,,,,,,,,,,,,,,,,masks/mask_003.jpg,,,,,,,,,,,,,,,,,,,,,,,,,,,,,,,,,,,,,,,,,,,0,0,0,2,1,,,,,,,,,,,,,,,,,,,,,,,,,,,,,,,,,,,,,,,,,,,,,,
5f4c1b5626199983e1285d83,001,2022-11-20_18h01.27.635,Info_measure_main_exp,2022.2.2,MacIntel,59.99880002,,,,,,,,,,,,,,,,,,masks/mask_004.jpg,,,,,,,,,,,,,,,,,,,,,,,,,,,,,,,,,,,,,,,,,,,0,1,1,3,1,,,,,,,,,,,,,,,,,,,,,,,,,,,,,,,,,,,,,,,,,,,,,,
5f4c1b5626199983e1285d83,001,2022-11-20_18h01.27.635,Info_measure_main_exp,2022.2.2,MacIntel,59.99880002,,,,,,,,,,,,,,,,,,masks/mask_002.jpg,,,,,,,,,,,,,,,,,,,,,,,,,,,,,,,,,,,,,,,,,,,0,2,2,1,1,,,,,,,,,,,,,,,,,,,,,,,,,,,,,,,,,,,,,,,,,,,,,,
5f4c1b5626199983e1285d83,001,2022-11-20_18h01.27.635,Info_measure_main_exp,2022.2.2,MacIntel,59.99880002,,,,,,,,,,,,,,,,,,masks/mask_005.jpg,,,,,,,,,,,,,,,,,,,,,,,,,,,,,,,,,,,,,,,,,,,0,3,3,4,1,,,,,,,,,,,,,,,,,,,,,,,,,,,,,,,,,,,,,,,,,,,,,,
5f4c1b5626199983e1285d83,001,2022-11-20_18h01.27.635,Info_measure_main_exp,2022.2.2,MacIntel,59.99880002,,,,,,,,,,,,,,,,,,masks/mask_001.jpg,,,,,,,,,,,,,,,,,,,,,,,,,,,,,,,,,,,,,,,,,,,0,4,4,0,1,,,,,,,,,,,,,,,,,,,,,,,,,,,,,,,,,,,,,,,,,,,,,,
5f4c1b5626199983e1285d83,001,2022-11-20_18h01.27.635,Info_measure_main_exp,2022.2.2,MacIntel,59.99880002,,,,,,,,,,,,,,,,,,masks/mask_003.jpg,,,,,,,,,,,,,,,,,,,,,,,,,,,,,,,,,,,,,,,,,,,,,,,,0,0,0,2,1,,,,,,,,,,,,,,,,,,,,,,,,,,,,,,,,,,,,,,,,,
5f4c1b5626199983e1285d83,001,2022-11-20_18h01.27.635,Info_measure_main_exp,2022.2.2,MacIntel,59.99880002,,,,,,,,,,,,,,,,,,masks/mask_004.jpg,,,,,,,,,,,,,,,,,,,,,,,,,,,,,,,,,,,,,,,,,,,,,,,,0,1,1,3,1,,,,,,,,,,,,,,,,,,,,,,,,,,,,,,,,,,,,,,,,,
5f4c1b5626199983e1285d83,001,2022-11-20_18h01.27.635,Info_measure_main_exp,2022.2.2,MacIntel,59.99880002,,,,,,,,,,,,,,,,,,masks/mask_001.jpg,,,,,,,,,,,,,,,,,,,,,,,,,,,,,,,,,,,,,,,,,,,,,,,,0,2,2,0,1,,,,,,,,,,,,,,,,,,,,,,,,,,,,,,,,,,,,,,,,,
5f4c1b5626199983e1285d83,001,2022-11-20_18h01.27.635,Info_measure_main_exp,2022.2.2,MacIntel,59.99880002,,,,,,,,,,,,,,,,,,masks/mask_005.jpg,,,,,,,,,,,,,,,,,,,,,,,,,,,,,,,,,,,,,,,,,,,,,,,,0,3,3,4,1,,,,,,,,,,,,,,,,,,,,,,,,,,,,,,,,,,,,,,,,,
5f4c1b5626199983e1285d83,001,2022-11-20_18h01.27.635,Info_measure_main_exp,2022.2.2,MacIntel,59.99880002,,,,,,,,,,,,,,,,,,masks/mask_002.jpg,,,,,,,,,,,,,,,,,,,,,,,,,,,,,,,,,,,,,,,,,,,,,,,,0,4,4,1,1,,,,,,,,,,,,,,,,,,,,,,,,,,,,,,,,,,,,,,,,,
5f4c1b5626199983e1285d83,001,2022-11-20_18h01.27.635,Info_measure_main_exp,2022.2.2,MacIntel,59.99880002,,,,,,,,,,,,,,,,,,,,,,,,,,,,,,7,1.3328,1,,,,,,,,,,,,0,131,5,5,2238,2214,absent_patch/patch0002238.jpg,absent_patch/patch0002214.jpg,,,,,,,,,,,,,,,,,,,,0.059519246,0.159639757,1,0,0,response1disk,18,-0.003478461,-0.000272217,1,0,0,center_square,0,17,17,81,1,,,,,,,,,,,,,,,,,,,,,,,
5f4c1b5626199983e1285d83,001,2022-11-20_18h01.27.635,Info_measure_main_exp,2022.2.2,MacIntel,59.99880002,,,,,,,,,,,,,,,,,,masks/mask_004.jpg,,,,,,,,,,,,,,,,,,,,,,,,,,,,,,,,,,,,,,,,,,,0,0,0,3,1,,,,,,,,,,,,,,,,,,,,,,,,,,,,,,,,,,,,,,,,,,,,,,
5f4c1b5626199983e1285d83,001,2022-11-20_18h01.27.635,Info_measure_main_exp,2022.2.2,MacIntel,59.99880002,,,,,,,,,,,,,,,,,,masks/mask_005.jpg,,,,,,,,,,,,,,,,,,,,,,,,,,,,,,,,,,,,,,,,,,,0,1,1,4,1,,,,,,,,,,,,,,,,,,,,,,,,,,,,,,,,,,,,,,,,,,,,,,
5f4c1b5626199983e1285d83,001,2022-11-20_18h01.27.635,Info_measure_main_exp,2022.2.2,MacIntel,59.99880002,,,,,,,,,,,,,,,,,,masks/mask_003.jpg,,,,,,,,,,,,,,,,,,,,,,,,,,,,,,,,,,,,,,,,,,,0,2,2,2,1,,,,,,,,,,,,,,,,,,,,,,,,,,,,,,,,,,,,,,,,,,,,,,
5f4c1b5626199983e1285d83,001,2022-11-20_18h01.27.635,Info_measure_main_exp,2022.2.2,MacIntel,59.99880002,,,,,,,,,,,,,,,,,,masks/mask_001.jpg,,,,,,,,,,,,,,,,,,,,,,,,,,,,,,,,,,,,,,,,,,,0,3,3,0,1,,,,,,,,,,,,,,,,,,,,,,,,,,,,,,,,,,,,,,,,,,,,,,
5f4c1b5626199983e1285d83,001,2022-11-20_18h01.27.635,Info_measure_main_exp,2022.2.2,MacIntel,59.99880002,,,,,,,,,,,,,,,,,,masks/mask_002.jpg,,,,,,,,,,,,,,,,,,,,,,,,,,,,,,,,,,,,,,,,,,,0,4,4,1,1,,,,,,,,,,,,,,,,,,,,,,,,,,,,,,,,,,,,,,,,,,,,,,
5f4c1b5626199983e1285d83,001,2022-11-20_18h01.27.635,Info_measure_main_exp,2022.2.2,MacIntel,59.99880002,,,,,,,,,,,,,,,,,,masks/mask_002.jpg,,,,,,,,,,,,,,,,,,,,,,,,,,,,,,,,,,,,,,,,,,,,,,,,0,0,0,1,1,,,,,,,,,,,,,,,,,,,,,,,,,,,,,,,,,,,,,,,,,
5f4c1b5626199983e1285d83,001,2022-11-20_18h01.27.635,Info_measure_main_exp,2022.2.2,MacIntel,59.99880002,,,,,,,,,,,,,,,,,,masks/mask_005.jpg,,,,,,,,,,,,,,,,,,,,,,,,,,,,,,,,,,,,,,,,,,,,,,,,0,1,1,4,1,,,,,,,,,,,,,,,,,,,,,,,,,,,,,,,,,,,,,,,,,
5f4c1b5626199983e1285d83,001,2022-11-20_18h01.27.635,Info_measure_main_exp,2022.2.2,MacIntel,59.99880002,,,,,,,,,,,,,,,,,,masks/mask_001.jpg,,,,,,,,,,,,,,,,,,,,,,,,,,,,,,,,,,,,,,,,,,,,,,,,0,2,2,0,1,,,,,,,,,,,,,,,,,,,,,,,,,,,,,,,,,,,,,,,,,
5f4c1b5626199983e1285d83,001,2022-11-20_18h01.27.635,Info_measure_main_exp,2022.2.2,MacIntel,59.99880002,,,,,,,,,,,,,,,,,,masks/mask_003.jpg,,,,,,,,,,,,,,,,,,,,,,,,,,,,,,,,,,,,,,,,,,,,,,,,0,3,3,2,1,,,,,,,,,,,,,,,,,,,,,,,,,,,,,,,,,,,,,,,,,
5f4c1b5626199983e1285d83,001,2022-11-20_18h01.27.635,Info_measure_main_exp,2022.2.2,MacIntel,59.99880002,,,,,,,,,,,,,,,,,,masks/mask_004.jpg,,,,,,,,,,,,,,,,,,,,,,,,,,,,,,,,,,,,,,,,,,,,,,,,0,4,4,3,1,,,,,,,,,,,,,,,,,,,,,,,,,,,,,,,,,,,,,,,,,
5f4c1b5626199983e1285d83,001,2022-11-20_18h01.27.635,Info_measure_main_exp,2022.2.2,MacIntel,59.99880002,,,,,,,,,,,,,,,,,,,,,,,,,,,,,,7,0.6829,1,,,,,,,,,,,,0,131,5,5,2214,2166,absent_patch/patch0002214.jpg,absent_patch/patch0002166.jpg,,,,,,,,,,,,,,,,,,,,0.054754774,0.096977166,1,0,0,response1disk,19,0.011949666,0.001261122,1,0,0,center_square,0,18,18,109,1,,,,,,,,,,,,,,,,,,,,,,,
5f4c1b5626199983e1285d83,001,2022-11-20_18h01.27.635,Info_measure_main_exp,2022.2.2,MacIntel,59.99880002,,,,,,,,,,,,,,,,,,masks/mask_004.jpg,,,,,,,,,,,,,,,,,,,,,,,,,,,,,,,,,,,,,,,,,,,0,0,0,3,1,,,,,,,,,,,,,,,,,,,,,,,,,,,,,,,,,,,,,,,,,,,,,,
5f4c1b5626199983e1285d83,001,2022-11-20_18h01.27.635,Info_measure_main_exp,2022.2.2,MacIntel,59.99880002,,,,,,,,,,,,,,,,,,masks/mask_001.jpg,,,,,,,,,,,,,,,,,,,,,,,,,,,,,,,,,,,,,,,,,,,0,1,1,0,1,,,,,,,,,,,,,,,,,,,,,,,,,,,,,,,,,,,,,,,,,,,,,,
5f4c1b5626199983e1285d83,001,2022-11-20_18h01.27.635,Info_measure_main_exp,2022.2.2,MacIntel,59.99880002,,,,,,,,,,,,,,,,,,masks/mask_003.jpg,,,,,,,,,,,,,,,,,,,,,,,,,,,,,,,,,,,,,,,,,,,0,2,2,2,1,,,,,,,,,,,,,,,,,,,,,,,,,,,,,,,,,,,,,,,,,,,,,,
5f4c1b5626199983e1285d83,001,2022-11-20_18h01.27.635,Info_measure_main_exp,2022.2.2,MacIntel,59.99880002,,,,,,,,,,,,,,,,,,masks/mask_005.jpg,,,,,,,,,,,,,,,,,,,,,,,,,,,,,,,,,,,,,,,,,,,0,3,3,4,1,,,,,,,,,,,,,,,,,,,,,,,,,,,,,,,,,,,,,,,,,,,,,,
5f4c1b5626199983e1285d83,001,2022-11-20_18h01.27.635,Info_measure_main_exp,2022.2.2,MacIntel,59.99880002,,,,,,,,,,,,,,,,,,masks/mask_002.jpg,,,,,,,,,,,,,,,,,,,,,,,,,,,,,,,,,,,,,,,,,,,0,4,4,1,1,,,,,,,,,,,,,,,,,,,,,,,,,,,,,,,,,,,,,,,,,,,,,,
5f4c1b5626199983e1285d83,001,2022-11-20_18h01.27.635,Info_measure_main_exp,2022.2.2,MacIntel,59.99880002,,,,,,,,,,,,,,,,,,masks/mask_003.jpg,,,,,,,,,,,,,,,,,,,,,,,,,,,,,,,,,,,,,,,,,,,,,,,,0,0,0,2,1,,,,,,,,,,,,,,,,,,,,,,,,,,,,,,,,,,,,,,,,,
5f4c1b5626199983e1285d83,001,2022-11-20_18h01.27.635,Info_measure_main_exp,2022.2.2,MacIntel,59.99880002,,,,,,,,,,,,,,,,,,masks/mask_002.jpg,,,,,,,,,,,,,,,,,,,,,,,,,,,,,,,,,,,,,,,,,,,,,,,,0,1,1,1,1,,,,,,,,,,,,,,,,,,,,,,,,,,,,,,,,,,,,,,,,,
5f4c1b5626199983e1285d83,001,2022-11-20_18h01.27.635,Info_measure_main_exp,2022.2.2,MacIntel,59.99880002,,,,,,,,,,,,,,,,,,masks/mask_001.jpg,,,,,,,,,,,,,,,,,,,,,,,,,,,,,,,,,,,,,,,,,,,,,,,,0,2,2,0,1,,,,,,,,,,,,,,,,,,,,,,,,,,,,,,,,,,,,,,,,,
5f4c1b5626199983e1285d83,001,2022-11-20_18h01.27.635,Info_measure_main_exp,2022.2.2,MacIntel,59.99880002,,,,,,,,,,,,,,,,,,masks/mask_005.jpg,,,,,,,,,,,,,,,,,,,,,,,,,,,,,,,,,,,,,,,,,,,,,,,,0,3,3,4,1,,,,,,,,,,,,,,,,,,,,,,,,,,,,,,,,,,,,,,,,,
5f4c1b5626199983e1285d83,001,2022-11-20_18h01.27.635,Info_measure_main_exp,2022.2.2,MacIntel,59.99880002,,,,,,,,,,,,,,,,,,masks/mask_004.jpg,,,,,,,,,,,,,,,,,,,,,,,,,,,,,,,,,,,,,,,,,,,,,,,,0,4,4,3,1,,,,,,,,,,,,,,,,,,,,,,,,,,,,,,,,,,,,,,,,,
5f4c1b5626199983e1285d83,001,2022-11-20_18h01.27.635,Info_measure_main_exp,2022.2.2,MacIntel,59.99880002,,,,,,,,,,,,,,,,,,,,,,,,,,,,,,0,0.6338,1,,,,,,,,,,,,0,131,5,5,2190,2190,absent_patch/patch0002190.jpg,absent_patch/patch0002190.jpg,,,,,,,,,,,,,,,,,,,,-0.063464423,0.145985786,1,0,0,response7disk,20,-0.000404324,0.001088867,1,0,0,center_square,0,19,19,86,1,,,,,,,,,,,,,,,,,,,,,,,
5f4c1b5626199983e1285d83,001,2022-11-20_18h01.27.635,Info_measure_main_exp,2022.2.2,MacIntel,59.99880002,,,,,,,,,,,,,,,,,,masks/mask_003.jpg,,,,,,,,,,,,,,,,,,,,,,,,,,,,,,,,,,,,,,,,,,,0,0,0,2,1,,,,,,,,,,,,,,,,,,,,,,,,,,,,,,,,,,,,,,,,,,,,,,
5f4c1b5626199983e1285d83,001,2022-11-20_18h01.27.635,Info_measure_main_exp,2022.2.2,MacIntel,59.99880002,,,,,,,,,,,,,,,,,,masks/mask_005.jpg,,,,,,,,,,,,,,,,,,,,,,,,,,,,,,,,,,,,,,,,,,,0,1,1,4,1,,,,,,,,,,,,,,,,,,,,,,,,,,,,,,,,,,,,,,,,,,,,,,
5f4c1b5626199983e1285d83,001,2022-11-20_18h01.27.635,Info_measure_main_exp,2022.2.2,MacIntel,59.99880002,,,,,,,,,,,,,,,,,,masks/mask_001.jpg,,,,,,,,,,,,,,,,,,,,,,,,,,,,,,,,,,,,,,,,,,,0,2,2,0,1,,,,,,,,,,,,,,,,,,,,,,,,,,,,,,,,,,,,,,,,,,,,,,
5f4c1b5626199983e1285d83,001,2022-11-20_18h01.27.635,Info_measure_main_exp,2022.2.2,MacIntel,59.99880002,,,,,,,,,,,,,,,,,,masks/mask_002.jpg,,,,,,,,,,,,,,,,,,,,,,,,,,,,,,,,,,,,,,,,,,,0,3,3,1,1,,,,,,,,,,,,,,,,,,,,,,,,,,,,,,,,,,,,,,,,,,,,,,
5f4c1b5626199983e1285d83,001,2022-11-20_18h01.27.635,Info_measure_main_exp,2022.2.2,MacIntel,59.99880002,,,,,,,,,,,,,,,,,,masks/mask_004.jpg,,,,,,,,,,,,,,,,,,,,,,,,,,,,,,,,,,,,,,,,,,,0,4,4,3,1,,,,,,,,,,,,,,,,,,,,,,,,,,,,,,,,,,,,,,,,,,,,,,
5f4c1b5626199983e1285d83,001,2022-11-20_18h01.27.635,Info_measure_main_exp,2022.2.2,MacIntel,59.99880002,,,,,,,,,,,,,,,,,,masks/mask_005.jpg,,,,,,,,,,,,,,,,,,,,,,,,,,,,,,,,,,,,,,,,,,,,,,,,0,0,0,4,1,,,,,,,,,,,,,,,,,,,,,,,,,,,,,,,,,,,,,,,,,
5f4c1b5626199983e1285d83,001,2022-11-20_18h01.27.635,Info_measure_main_exp,2022.2.2,MacIntel,59.99880002,,,,,,,,,,,,,,,,,,masks/mask_001.jpg,,,,,,,,,,,,,,,,,,,,,,,,,,,,,,,,,,,,,,,,,,,,,,,,0,1,1,0,1,,,,,,,,,,,,,,,,,,,,,,,,,,,,,,,,,,,,,,,,,
5f4c1b5626199983e1285d83,001,2022-11-20_18h01.27.635,Info_measure_main_exp,2022.2.2,MacIntel,59.99880002,,,,,,,,,,,,,,,,,,masks/mask_004.jpg,,,,,,,,,,,,,,,,,,,,,,,,,,,,,,,,,,,,,,,,,,,,,,,,0,2,2,3,1,,,,,,,,,,,,,,,,,,,,,,,,,,,,,,,,,,,,,,,,,
5f4c1b5626199983e1285d83,001,2022-11-20_18h01.27.635,Info_measure_main_exp,2022.2.2,MacIntel,59.99880002,,,,,,,,,,,,,,,,,,masks/mask_003.jpg,,,,,,,,,,,,,,,,,,,,,,,,,,,,,,,,,,,,,,,,,,,,,,,,0,3,3,2,1,,,,,,,,,,,,,,,,,,,,,,,,,,,,,,,,,,,,,,,,,
5f4c1b5626199983e1285d83,001,2022-11-20_18h01.27.635,Info_measure_main_exp,2022.2.2,MacIntel,59.99880002,,,,,,,,,,,,,,,,,,masks/mask_002.jpg,,,,,,,,,,,,,,,,,,,,,,,,,,,,,,,,,,,,,,,,,,,,,,,,0,4,4,1,1,,,,,,,,,,,,,,,,,,,,,,,,,,,,,,,,,,,,,,,,,
5f4c1b5626199983e1285d83,001,2022-11-20_18h01.27.635,Info_measure_main_exp,2022.2.2,MacIntel,59.99880002,,,,,,,,,,,,,,,,,,,,,,,,,,,,,,5,0.7669,1,,,,,,,,,,,,1,131,5,5,1,2274,present_patch/cong_131_5_a.jpg,absent_patch/patch0002274.jpg,,,,,,,,,,,,,,,,,,,,0.098184272,-0.055081414,1,0,0,response3disk,21,0.010424601,0.003773532,1,0,0,center_square,0,20,20,105,1,,,,,,,,,,,,,,,,,,,,,,,
5f4c1b5626199983e1285d83,001,2022-11-20_18h01.27.635,Info_measure_main_exp,2022.2.2,MacIntel,59.99880002,,,,,,,,,,,,,,,,,,masks/mask_002.jpg,,,,,,,,,,,,,,,,,,,,,,,,,,,,,,,,,,,,,,,,,,,0,0,0,1,1,,,,,,,,,,,,,,,,,,,,,,,,,,,,,,,,,,,,,,,,,,,,,,
5f4c1b5626199983e1285d83,001,2022-11-20_18h01.27.635,Info_measure_main_exp,2022.2.2,MacIntel,59.99880002,,,,,,,,,,,,,,,,,,masks/mask_003.jpg,,,,,,,,,,,,,,,,,,,,,,,,,,,,,,,,,,,,,,,,,,,0,1,1,2,1,,,,,,,,,,,,,,,,,,,,,,,,,,,,,,,,,,,,,,,,,,,,,,
5f4c1b5626199983e1285d83,001,2022-11-20_18h01.27.635,Info_measure_main_exp,2022.2.2,MacIntel,59.99880002,,,,,,,,,,,,,,,,,,masks/mask_004.jpg,,,,,,,,,,,,,,,,,,,,,,,,,,,,,,,,,,,,,,,,,,,0,2,2,3,1,,,,,,,,,,,,,,,,,,,,,,,,,,,,,,,,,,,,,,,,,,,,,,
5f4c1b5626199983e1285d83,001,2022-11-20_18h01.27.635,Info_measure_main_exp,2022.2.2,MacIntel,59.99880002,,,,,,,,,,,,,,,,,,masks/mask_005.jpg,,,,,,,,,,,,,,,,,,,,,,,,,,,,,,,,,,,,,,,,,,,0,3,3,4,1,,,,,,,,,,,,,,,,,,,,,,,,,,,,,,,,,,,,,,,,,,,,,,
5f4c1b5626199983e1285d83,001,2022-11-20_18h01.27.635,Info_measure_main_exp,2022.2.2,MacIntel,59.99880002,,,,,,,,,,,,,,,,,,masks/mask_001.jpg,,,,,,,,,,,,,,,,,,,,,,,,,,,,,,,,,,,,,,,,,,,0,4,4,0,1,,,,,,,,,,,,,,,,,,,,,,,,,,,,,,,,,,,,,,,,,,,,,,
5f4c1b5626199983e1285d83,001,2022-11-20_18h01.27.635,Info_measure_main_exp,2022.2.2,MacIntel,59.99880002,,,,,,,,,,,,,,,,,,masks/mask_005.jpg,,,,,,,,,,,,,,,,,,,,,,,,,,,,,,,,,,,,,,,,,,,,,,,,0,0,0,4,1,,,,,,,,,,,,,,,,,,,,,,,,,,,,,,,,,,,,,,,,,
5f4c1b5626199983e1285d83,001,2022-11-20_18h01.27.635,Info_measure_main_exp,2022.2.2,MacIntel,59.99880002,,,,,,,,,,,,,,,,,,masks/mask_001.jpg,,,,,,,,,,,,,,,,,,,,,,,,,,,,,,,,,,,,,,,,,,,,,,,,0,1,1,0,1,,,,,,,,,,,,,,,,,,,,,,,,,,,,,,,,,,,,,,,,,
5f4c1b5626199983e1285d83,001,2022-11-20_18h01.27.635,Info_measure_main_exp,2022.2.2,MacIntel,59.99880002,,,,,,,,,,,,,,,,,,masks/mask_003.jpg,,,,,,,,,,,,,,,,,,,,,,,,,,,,,,,,,,,,,,,,,,,,,,,,0,2,2,2,1,,,,,,,,,,,,,,,,,,,,,,,,,,,,,,,,,,,,,,,,,
5f4c1b5626199983e1285d83,001,2022-11-20_18h01.27.635,Info_measure_main_exp,2022.2.2,MacIntel,59.99880002,,,,,,,,,,,,,,,,,,masks/mask_002.jpg,,,,,,,,,,,,,,,,,,,,,,,,,,,,,,,,,,,,,,,,,,,,,,,,0,3,3,1,1,,,,,,,,,,,,,,,,,,,,,,,,,,,,,,,,,,,,,,,,,
5f4c1b5626199983e1285d83,001,2022-11-20_18h01.27.635,Info_measure_main_exp,2022.2.2,MacIntel,59.99880002,,,,,,,,,,,,,,,,,,masks/mask_004.jpg,,,,,,,,,,,,,,,,,,,,,,,,,,,,,,,,,,,,,,,,,,,,,,,,0,4,4,3,1,,,,,,,,,,,,,,,,,,,,,,,,,,,,,,,,,,,,,,,,,
5f4c1b5626199983e1285d83,001,2022-11-20_18h01.27.635,Info_measure_main_exp,2022.2.2,MacIntel,59.99880002,,,,,,,,,,,,,,,,,,,,,,,,,,,,,,5,0.7166,1,,,,,,,,,,,,1,131,5,5,2238,1,absent_patch/patch0002238.jpg,present_patch/cong_131_5_a.jpg,,,,,,,,,,,,,,,,,,,,0.147620578,-0.038479953,1,0,0,response3disk,22,0.005193075,0.010282118,1,0,0,center_square,0,21,21,104,1,,,,,,,,,,,,,,,,,,,,,,,
5f4c1b5626199983e1285d83,001,2022-11-20_18h01.27.635,Info_measure_main_exp,2022.2.2,MacIntel,59.99880002,,,,,,,,,,,,,,,,,,masks/mask_005.jpg,,,,,,,,,,,,,,,,,,,,,,,,,,,,,,,,,,,,,,,,,,,0,0,0,4,1,,,,,,,,,,,,,,,,,,,,,,,,,,,,,,,,,,,,,,,,,,,,,,
5f4c1b5626199983e1285d83,001,2022-11-20_18h01.27.635,Info_measure_main_exp,2022.2.2,MacIntel,59.99880002,,,,,,,,,,,,,,,,,,masks/mask_001.jpg,,,,,,,,,,,,,,,,,,,,,,,,,,,,,,,,,,,,,,,,,,,0,1,1,0,1,,,,,,,,,,,,,,,,,,,,,,,,,,,,,,,,,,,,,,,,,,,,,,
5f4c1b5626199983e1285d83,001,2022-11-20_18h01.27.635,Info_measure_main_exp,2022.2.2,MacIntel,59.99880002,,,,,,,,,,,,,,,,,,masks/mask_003.jpg,,,,,,,,,,,,,,,,,,,,,,,,,,,,,,,,,,,,,,,,,,,0,2,2,2,1,,,,,,,,,,,,,,,,,,,,,,,,,,,,,,,,,,,,,,,,,,,,,,
5f4c1b5626199983e1285d83,001,2022-11-20_18h01.27.635,Info_measure_main_exp,2022.2.2,MacIntel,59.99880002,,,,,,,,,,,,,,,,,,masks/mask_002.jpg,,,,,,,,,,,,,,,,,,,,,,,,,,,,,,,,,,,,,,,,,,,0,3,3,1,1,,,,,,,,,,,,,,,,,,,,,,,,,,,,,,,,,,,,,,,,,,,,,,
5f4c1b5626199983e1285d83,001,2022-11-20_18h01.27.635,Info_measure_main_exp,2022.2.2,MacIntel,59.99880002,,,,,,,,,,,,,,,,,,masks/mask_004.jpg,,,,,,,,,,,,,,,,,,,,,,,,,,,,,,,,,,,,,,,,,,,0,4,4,3,1,,,,,,,,,,,,,,,,,,,,,,,,,,,,,,,,,,,,,,,,,,,,,,
5f4c1b5626199983e1285d83,001,2022-11-20_18h01.27.635,Info_measure_main_exp,2022.2.2,MacIntel,59.99880002,,,,,,,,,,,,,,,,,,masks/mask_002.jpg,,,,,,,,,,,,,,,,,,,,,,,,,,,,,,,,,,,,,,,,,,,,,,,,0,0,0,1,1,,,,,,,,,,,,,,,,,,,,,,,,,,,,,,,,,,,,,,,,,
5f4c1b5626199983e1285d83,001,2022-11-20_18h01.27.635,Info_measure_main_exp,2022.2.2,MacIntel,59.99880002,,,,,,,,,,,,,,,,,,masks/mask_005.jpg,,,,,,,,,,,,,,,,,,,,,,,,,,,,,,,,,,,,,,,,,,,,,,,,0,1,1,4,1,,,,,,,,,,,,,,,,,,,,,,,,,,,,,,,,,,,,,,,,,
5f4c1b5626199983e1285d83,001,2022-11-20_18h01.27.635,Info_measure_main_exp,2022.2.2,MacIntel,59.99880002,,,,,,,,,,,,,,,,,,masks/mask_004.jpg,,,,,,,,,,,,,,,,,,,,,,,,,,,,,,,,,,,,,,,,,,,,,,,,0,2,2,3,1,,,,,,,,,,,,,,,,,,,,,,,,,,,,,,,,,,,,,,,,,
5f4c1b5626199983e1285d83,001,2022-11-20_18h01.27.635,Info_measure_main_exp,2022.2.2,MacIntel,59.99880002,,,,,,,,,,,,,,,,,,masks/mask_003.jpg,,,,,,,,,,,,,,,,,,,,,,,,,,,,,,,,,,,,,,,,,,,,,,,,0,3,3,2,1,,,,,,,,,,,,,,,,,,,,,,,,,,,,,,,,,,,,,,,,,
5f4c1b5626199983e1285d83,001,2022-11-20_18h01.27.635,Info_measure_main_exp,2022.2.2,MacIntel,59.99880002,,,,,,,,,,,,,,,,,,masks/mask_001.jpg,,,,,,,,,,,,,,,,,,,,,,,,,,,,,,,,,,,,,,,,,,,,,,,,0,4,4,0,1,,,,,,,,,,,,,,,,,,,,,,,,,,,,,,,,,,,,,,,,,
5f4c1b5626199983e1285d83,001,2022-11-20_18h01.27.635,Info_measure_main_exp,2022.2.2,MacIntel,59.99880002,,,,,,,,,,,,,,,,,,,,,,,,,,,,,,5,0.8834,1,,,,,,,,,,,,0,131,5,5,2250,2178,absent_patch/patch0002250.jpg,absent_patch/patch0002178.jpg,,,,,,,,,,,,,,,,,,,,0.185980971,-0.066388245,1,0,0,response3disk,23,-0.005285712,0.009120619,1,0,0,center_square,0,22,22,48,1,,,,,,,,,,,,,,,,,,,,,,,
5f4c1b5626199983e1285d83,001,2022-11-20_18h01.27.635,Info_measure_main_exp,2022.2.2,MacIntel,59.99880002,,,,,,,,,,,,,,,,,,masks/mask_002.jpg,,,,,,,,,,,,,,,,,,,,,,,,,,,,,,,,,,,,,,,,,,,0,0,0,1,1,,,,,,,,,,,,,,,,,,,,,,,,,,,,,,,,,,,,,,,,,,,,,,
5f4c1b5626199983e1285d83,001,2022-11-20_18h01.27.635,Info_measure_main_exp,2022.2.2,MacIntel,59.99880002,,,,,,,,,,,,,,,,,,masks/mask_004.jpg,,,,,,,,,,,,,,,,,,,,,,,,,,,,,,,,,,,,,,,,,,,0,1,1,3,1,,,,,,,,,,,,,,,,,,,,,,,,,,,,,,,,,,,,,,,,,,,,,,
5f4c1b5626199983e1285d83,001,2022-11-20_18h01.27.635,Info_measure_main_exp,2022.2.2,MacIntel,59.99880002,,,,,,,,,,,,,,,,,,masks/mask_001.jpg,,,,,,,,,,,,,,,,,,,,,,,,,,,,,,,,,,,,,,,,,,,0,2,2,0,1,,,,,,,,,,,,,,,,,,,,,,,,,,,,,,,,,,,,,,,,,,,,,,
5f4c1b5626199983e1285d83,001,2022-11-20_18h01.27.635,Info_measure_main_exp,2022.2.2,MacIntel,59.99880002,,,,,,,,,,,,,,,,,,masks/mask_005.jpg,,,,,,,,,,,,,,,,,,,,,,,,,,,,,,,,,,,,,,,,,,,0,3,3,4,1,,,,,,,,,,,,,,,,,,,,,,,,,,,,,,,,,,,,,,,,,,,,,,
5f4c1b5626199983e1285d83,001,2022-11-20_18h01.27.635,Info_measure_main_exp,2022.2.2,MacIntel,59.99880002,,,,,,,,,,,,,,,,,,masks/mask_003.jpg,,,,,,,,,,,,,,,,,,,,,,,,,,,,,,,,,,,,,,,,,,,0,4,4,2,1,,,,,,,,,,,,,,,,,,,,,,,,,,,,,,,,,,,,,,,,,,,,,,
5f4c1b5626199983e1285d83,001,2022-11-20_18h01.27.635,Info_measure_main_exp,2022.2.2,MacIntel,59.99880002,,,,,,,,,,,,,,,,,,masks/mask_002.jpg,,,,,,,,,,,,,,,,,,,,,,,,,,,,,,,,,,,,,,,,,,,,,,,,0,0,0,1,1,,,,,,,,,,,,,,,,,,,,,,,,,,,,,,,,,,,,,,,,,
5f4c1b5626199983e1285d83,001,2022-11-20_18h01.27.635,Info_measure_main_exp,2022.2.2,MacIntel,59.99880002,,,,,,,,,,,,,,,,,,masks/mask_003.jpg,,,,,,,,,,,,,,,,,,,,,,,,,,,,,,,,,,,,,,,,,,,,,,,,0,1,1,2,1,,,,,,,,,,,,,,,,,,,,,,,,,,,,,,,,,,,,,,,,,
5f4c1b5626199983e1285d83,001,2022-11-20_18h01.27.635,Info_measure_main_exp,2022.2.2,MacIntel,59.99880002,,,,,,,,,,,,,,,,,,masks/mask_001.jpg,,,,,,,,,,,,,,,,,,,,,,,,,,,,,,,,,,,,,,,,,,,,,,,,0,2,2,0,1,,,,,,,,,,,,,,,,,,,,,,,,,,,,,,,,,,,,,,,,,
5f4c1b5626199983e1285d83,001,2022-11-20_18h01.27.635,Info_measure_main_exp,2022.2.2,MacIntel,59.99880002,,,,,,,,,,,,,,,,,,masks/mask_004.jpg,,,,,,,,,,,,,,,,,,,,,,,,,,,,,,,,,,,,,,,,,,,,,,,,0,3,3,3,1,,,,,,,,,,,,,,,,,,,,,,,,,,,,,,,,,,,,,,,,,
5f4c1b5626199983e1285d83,001,2022-11-20_18h01.27.635,Info_measure_main_exp,2022.2.2,MacIntel,59.99880002,,,,,,,,,,,,,,,,,,masks/mask_005.jpg,,,,,,,,,,,,,,,,,,,,,,,,,,,,,,,,,,,,,,,,,,,,,,,,0,4,4,4,1,,,,,,,,,,,,,,,,,,,,,,,,,,,,,,,,,,,,,,,,,
5f4c1b5626199983e1285d83,001,2022-11-20_18h01.27.635,Info_measure_main_exp,2022.2.2,MacIntel,59.99880002,,,,,,,,,,,,,,,,,,,,,,,,,,,,,,5,1.1669,1,,,,,,,,,,,,0,131,5,5,2154,2250,absent_patch/patch0002154.jpg,absent_patch/patch0002250.jpg,,,,,,,,,,,,,,,,,,,,0.122081706,-0.085976766,1,0,0,response3disk,24,0.003094618,0.000141466,1,0,0,center_square,0,23,23,108,1,,,,,,,,,,,,,,,,,,,,,,,
5f4c1b5626199983e1285d83,001,2022-11-20_18h01.27.635,Info_measure_main_exp,2022.2.2,MacIntel,59.99880002,,,,,,,,,,,,,,,,,,masks/mask_004.jpg,,,,,,,,,,,,,,,,,,,,,,,,,,,,,,,,,,,,,,,,,,,0,0,0,3,1,,,,,,,,,,,,,,,,,,,,,,,,,,,,,,,,,,,,,,,,,,,,,,
5f4c1b5626199983e1285d83,001,2022-11-20_18h01.27.635,Info_measure_main_exp,2022.2.2,MacIntel,59.99880002,,,,,,,,,,,,,,,,,,masks/mask_003.jpg,,,,,,,,,,,,,,,,,,,,,,,,,,,,,,,,,,,,,,,,,,,0,1,1,2,1,,,,,,,,,,,,,,,,,,,,,,,,,,,,,,,,,,,,,,,,,,,,,,
5f4c1b5626199983e1285d83,001,2022-11-20_18h01.27.635,Info_measure_main_exp,2022.2.2,MacIntel,59.99880002,,,,,,,,,,,,,,,,,,masks/mask_002.jpg,,,,,,,,,,,,,,,,,,,,,,,,,,,,,,,,,,,,,,,,,,,0,2,2,1,1,,,,,,,,,,,,,,,,,,,,,,,,,,,,,,,,,,,,,,,,,,,,,,
5f4c1b5626199983e1285d83,001,2022-11-20_18h01.27.635,Info_measure_main_exp,2022.2.2,MacIntel,59.99880002,,,,,,,,,,,,,,,,,,masks/mask_005.jpg,,,,,,,,,,,,,,,,,,,,,,,,,,,,,,,,,,,,,,,,,,,0,3,3,4,1,,,,,,,,,,,,,,,,,,,,,,,,,,,,,,,,,,,,,,,,,,,,,,
5f4c1b5626199983e1285d83,001,2022-11-20_18h01.27.635,Info_measure_main_exp,2022.2.2,MacIntel,59.99880002,,,,,,,,,,,,,,,,,,masks/mask_001.jpg,,,,,,,,,,,,,,,,,,,,,,,,,,,,,,,,,,,,,,,,,,,0,4,4,0,1,,,,,,,,,,,,,,,,,,,,,,,,,,,,,,,,,,,,,,,,,,,,,,
5f4c1b5626199983e1285d83,001,2022-11-20_18h01.27.635,Info_measure_main_exp,2022.2.2,MacIntel,59.99880002,,,,,,,,,,,,,,,,,,masks/mask_005.jpg,,,,,,,,,,,,,,,,,,,,,,,,,,,,,,,,,,,,,,,,,,,,,,,,0,0,0,4,1,,,,,,,,,,,,,,,,,,,,,,,,,,,,,,,,,,,,,,,,,
5f4c1b5626199983e1285d83,001,2022-11-20_18h01.27.635,Info_measure_main_exp,2022.2.2,MacIntel,59.99880002,,,,,,,,,,,,,,,,,,masks/mask_004.jpg,,,,,,,,,,,,,,,,,,,,,,,,,,,,,,,,,,,,,,,,,,,,,,,,0,1,1,3,1,,,,,,,,,,,,,,,,,,,,,,,,,,,,,,,,,,,,,,,,,
5f4c1b5626199983e1285d83,001,2022-11-20_18h01.27.635,Info_measure_main_exp,2022.2.2,MacIntel,59.99880002,,,,,,,,,,,,,,,,,,masks/mask_001.jpg,,,,,,,,,,,,,,,,,,,,,,,,,,,,,,,,,,,,,,,,,,,,,,,,0,2,2,0,1,,,,,,,,,,,,,,,,,,,,,,,,,,,,,,,,,,,,,,,,,
5f4c1b5626199983e1285d83,001,2022-11-20_18h01.27.635,Info_measure_main_exp,2022.2.2,MacIntel,59.99880002,,,,,,,,,,,,,,,,,,masks/mask_003.jpg,,,,,,,,,,,,,,,,,,,,,,,,,,,,,,,,,,,,,,,,,,,,,,,,0,3,3,2,1,,,,,,,,,,,,,,,,,,,,,,,,,,,,,,,,,,,,,,,,,
5f4c1b5626199983e1285d83,001,2022-11-20_18h01.27.635,Info_measure_main_exp,2022.2.2,MacIntel,59.99880002,,,,,,,,,,,,,,,,,,masks/mask_002.jpg,,,,,,,,,,,,,,,,,,,,,,,,,,,,,,,,,,,,,,,,,,,,,,,,0,4,4,1,1,,,,,,,,,,,,,,,,,,,,,,,,,,,,,,,,,,,,,,,,,
5f4c1b5626199983e1285d83,001,2022-11-20_18h01.27.635,Info_measure_main_exp,2022.2.2,MacIntel,59.99880002,,,,,,,,,,,,,,,,,,,,,,,,,,,,,,5,1.485,1,,,,,,,,,,,,0,131,5,5,1986,2274,absent_patch/patch0001986.jpg,absent_patch/patch0002274.jpg,,,,,,,,,,,,,,,,,,,,0.163992377,-0.043780348,1,0,0,response3disk,25,0.004233059,-0.006043362,1,0,0,center_square,0,24,24,7,1,,,,,,,,,,,,,,,,,,,,,,,
5f4c1b5626199983e1285d83,001,2022-11-20_18h01.27.635,Info_measure_main_exp,2022.2.2,MacIntel,59.99880002,,,,,,,,,,,,,,,,,,masks/mask_002.jpg,,,,,,,,,,,,,,,,,,,,,,,,,,,,,,,,,,,,,,,,,,,0,0,0,1,1,,,,,,,,,,,,,,,,,,,,,,,,,,,,,,,,,,,,,,,,,,,,,,
5f4c1b5626199983e1285d83,001,2022-11-20_18h01.27.635,Info_measure_main_exp,2022.2.2,MacIntel,59.99880002,,,,,,,,,,,,,,,,,,masks/mask_003.jpg,,,,,,,,,,,,,,,,,,,,,,,,,,,,,,,,,,,,,,,,,,,0,1,1,2,1,,,,,,,,,,,,,,,,,,,,,,,,,,,,,,,,,,,,,,,,,,,,,,
5f4c1b5626199983e1285d83,001,2022-11-20_18h01.27.635,Info_measure_main_exp,2022.2.2,MacIntel,59.99880002,,,,,,,,,,,,,,,,,,masks/mask_001.jpg,,,,,,,,,,,,,,,,,,,,,,,,,,,,,,,,,,,,,,,,,,,0,2,2,0,1,,,,,,,,,,,,,,,,,,,,,,,,,,,,,,,,,,,,,,,,,,,,,,
5f4c1b5626199983e1285d83,001,2022-11-20_18h01.27.635,Info_measure_main_exp,2022.2.2,MacIntel,59.99880002,,,,,,,,,,,,,,,,,,masks/mask_005.jpg,,,,,,,,,,,,,,,,,,,,,,,,,,,,,,,,,,,,,,,,,,,0,3,3,4,1,,,,,,,,,,,,,,,,,,,,,,,,,,,,,,,,,,,,,,,,,,,,,,
5f4c1b5626199983e1285d83,001,2022-11-20_18h01.27.635,Info_measure_main_exp,2022.2.2,MacIntel,59.99880002,,,,,,,,,,,,,,,,,,masks/mask_004.jpg,,,,,,,,,,,,,,,,,,,,,,,,,,,,,,,,,,,,,,,,,,,0,4,4,3,1,,,,,,,,,,,,,,,,,,,,,,,,,,,,,,,,,,,,,,,,,,,,,,
5f4c1b5626199983e1285d83,001,2022-11-20_18h01.27.635,Info_measure_main_exp,2022.2.2,MacIntel,59.99880002,,,,,,,,,,,,,,,,,,masks/mask_004.jpg,,,,,,,,,,,,,,,,,,,,,,,,,,,,,,,,,,,,,,,,,,,,,,,,0,0,0,3,1,,,,,,,,,,,,,,,,,,,,,,,,,,,,,,,,,,,,,,,,,
5f4c1b5626199983e1285d83,001,2022-11-20_18h01.27.635,Info_measure_main_exp,2022.2.2,MacIntel,59.99880002,,,,,,,,,,,,,,,,,,masks/mask_001.jpg,,,,,,,,,,,,,,,,,,,,,,,,,,,,,,,,,,,,,,,,,,,,,,,,0,1,1,0,1,,,,,,,,,,,,,,,,,,,,,,,,,,,,,,,,,,,,,,,,,
5f4c1b5626199983e1285d83,001,2022-11-20_18h01.27.635,Info_measure_main_exp,2022.2.2,MacIntel,59.99880002,,,,,,,,,,,,,,,,,,masks/mask_003.jpg,,,,,,,,,,,,,,,,,,,,,,,,,,,,,,,,,,,,,,,,,,,,,,,,0,2,2,2,1,,,,,,,,,,,,,,,,,,,,,,,,,,,,,,,,,,,,,,,,,
5f4c1b5626199983e1285d83,001,2022-11-20_18h01.27.635,Info_measure_main_exp,2022.2.2,MacIntel,59.99880002,,,,,,,,,,,,,,,,,,masks/mask_002.jpg,,,,,,,,,,,,,,,,,,,,,,,,,,,,,,,,,,,,,,,,,,,,,,,,0,3,3,1,1,,,,,,,,,,,,,,,,,,,,,,,,,,,,,,,,,,,,,,,,,
5f4c1b5626199983e1285d83,001,2022-11-20_18h01.27.635,Info_measure_main_exp,2022.2.2,MacIntel,59.99880002,,,,,,,,,,,,,,,,,,masks/mask_005.jpg,,,,,,,,,,,,,,,,,,,,,,,,,,,,,,,,,,,,,,,,,,,,,,,,0,4,4,4,1,,,,,,,,,,,,,,,,,,,,,,,,,,,,,,,,,,,,,,,,,
5f4c1b5626199983e1285d83,001,2022-11-20_18h01.27.635,Info_measure_main_exp,2022.2.2,MacIntel,59.99880002,,,,,,,,,,,,,,,,,,,,,,,,,,,,,,0,0.9501,1,,,,,,,,,,,,0,131,5,5,2082,2298,absent_patch/patch0002082.jpg,absent_patch/patch0002298.jpg,,,,,,,,,,,,,,,,,,,,-0.040069987,0.154205322,1,0,0,response7disk,26,-0.000349731,1.76324E-05,1,0,0,center_square,0,25,25,107,1,,,,,,,,,,,,,,,,,,,,,,,
5f4c1b5626199983e1285d83,001,2022-11-20_18h01.27.635,Info_measure_main_exp,2022.2.2,MacIntel,59.99880002,,,,,,,,,,,,,,,,,,masks/mask_001.jpg,,,,,,,,,,,,,,,,,,,,,,,,,,,,,,,,,,,,,,,,,,,0,0,0,0,1,,,,,,,,,,,,,,,,,,,,,,,,,,,,,,,,,,,,,,,,,,,,,,
5f4c1b5626199983e1285d83,001,2022-11-20_18h01.27.635,Info_measure_main_exp,2022.2.2,MacIntel,59.99880002,,,,,,,,,,,,,,,,,,masks/mask_003.jpg,,,,,,,,,,,,,,,,,,,,,,,,,,,,,,,,,,,,,,,,,,,0,1,1,2,1,,,,,,,,,,,,,,,,,,,,,,,,,,,,,,,,,,,,,,,,,,,,,,
5f4c1b5626199983e1285d83,001,2022-11-20_18h01.27.635,Info_measure_main_exp,2022.2.2,MacIntel,59.99880002,,,,,,,,,,,,,,,,,,masks/mask_002.jpg,,,,,,,,,,,,,,,,,,,,,,,,,,,,,,,,,,,,,,,,,,,0,2,2,1,1,,,,,,,,,,,,,,,,,,,,,,,,,,,,,,,,,,,,,,,,,,,,,,
5f4c1b5626199983e1285d83,001,2022-11-20_18h01.27.635,Info_measure_main_exp,2022.2.2,MacIntel,59.99880002,,,,,,,,,,,,,,,,,,masks/mask_005.jpg,,,,,,,,,,,,,,,,,,,,,,,,,,,,,,,,,,,,,,,,,,,0,3,3,4,1,,,,,,,,,,,,,,,,,,,,,,,,,,,,,,,,,,,,,,,,,,,,,,
5f4c1b5626199983e1285d83,001,2022-11-20_18h01.27.635,Info_measure_main_exp,2022.2.2,MacIntel,59.99880002,,,,,,,,,,,,,,,,,,masks/mask_004.jpg,,,,,,,,,,,,,,,,,,,,,,,,,,,,,,,,,,,,,,,,,,,0,4,4,3,1,,,,,,,,,,,,,,,,,,,,,,,,,,,,,,,,,,,,,,,,,,,,,,
5f4c1b5626199983e1285d83,001,2022-11-20_18h01.27.635,Info_measure_main_exp,2022.2.2,MacIntel,59.99880002,,,,,,,,,,,,,,,,,,masks/mask_003.jpg,,,,,,,,,,,,,,,,,,,,,,,,,,,,,,,,,,,,,,,,,,,,,,,,0,0,0,2,1,,,,,,,,,,,,,,,,,,,,,,,,,,,,,,,,,,,,,,,,,
5f4c1b5626199983e1285d83,001,2022-11-20_18h01.27.635,Info_measure_main_exp,2022.2.2,MacIntel,59.99880002,,,,,,,,,,,,,,,,,,masks/mask_002.jpg,,,,,,,,,,,,,,,,,,,,,,,,,,,,,,,,,,,,,,,,,,,,,,,,0,1,1,1,1,,,,,,,,,,,,,,,,,,,,,,,,,,,,,,,,,,,,,,,,,
5f4c1b5626199983e1285d83,001,2022-11-20_18h01.27.635,Info_measure_main_exp,2022.2.2,MacIntel,59.99880002,,,,,,,,,,,,,,,,,,masks/mask_001.jpg,,,,,,,,,,,,,,,,,,,,,,,,,,,,,,,,,,,,,,,,,,,,,,,,0,2,2,0,1,,,,,,,,,,,,,,,,,,,,,,,,,,,,,,,,,,,,,,,,,
5f4c1b5626199983e1285d83,001,2022-11-20_18h01.27.635,Info_measure_main_exp,2022.2.2,MacIntel,59.99880002,,,,,,,,,,,,,,,,,,masks/mask_005.jpg,,,,,,,,,,,,,,,,,,,,,,,,,,,,,,,,,,,,,,,,,,,,,,,,0,3,3,4,1,,,,,,,,,,,,,,,,,,,,,,,,,,,,,,,,,,,,,,,,,
5f4c1b5626199983e1285d83,001,2022-11-20_18h01.27.635,Info_measure_main_exp,2022.2.2,MacIntel,59.99880002,,,,,,,,,,,,,,,,,,masks/mask_004.jpg,,,,,,,,,,,,,,,,,,,,,,,,,,,,,,,,,,,,,,,,,,,,,,,,0,4,4,3,1,,,,,,,,,,,,,,,,,,,,,,,,,,,,,,,,,,,,,,,,,
5f4c1b5626199983e1285d83,001,2022-11-20_18h01.27.635,Info_measure_main_exp,2022.2.2,MacIntel,59.99880002,,,,,,,,,,,,,,,,,,,,,,,,,,,,,,5,0.734,1,,,,,,,,,,,,0,131,5,5,2274,2190,absent_patch/patch0002274.jpg,absent_patch/patch0002190.jpg,,,,,,,,,,,,,,,,,,,,0.128543498,-0.066041192,1,0,0,response3disk,27,0.008797811,-0.007204386,1,0,0,center_square,0,26,26,116,1,,,,,,,,,,,,,,,,,,,,,,,
5f4c1b5626199983e1285d83,001,2022-11-20_18h01.27.635,Info_measure_main_exp,2022.2.2,MacIntel,59.99880002,,,,,,,,,,,,,,,,,,masks/mask_004.jpg,,,,,,,,,,,,,,,,,,,,,,,,,,,,,,,,,,,,,,,,,,,0,0,0,3,1,,,,,,,,,,,,,,,,,,,,,,,,,,,,,,,,,,,,,,,,,,,,,,
5f4c1b5626199983e1285d83,001,2022-11-20_18h01.27.635,Info_measure_main_exp,2022.2.2,MacIntel,59.99880002,,,,,,,,,,,,,,,,,,masks/mask_002.jpg,,,,,,,,,,,,,,,,,,,,,,,,,,,,,,,,,,,,,,,,,,,0,1,1,1,1,,,,,,,,,,,,,,,,,,,,,,,,,,,,,,,,,,,,,,,,,,,,,,
5f4c1b5626199983e1285d83,001,2022-11-20_18h01.27.635,Info_measure_main_exp,2022.2.2,MacIntel,59.99880002,,,,,,,,,,,,,,,,,,masks/mask_003.jpg,,,,,,,,,,,,,,,,,,,,,,,,,,,,,,,,,,,,,,,,,,,0,2,2,2,1,,,,,,,,,,,,,,,,,,,,,,,,,,,,,,,,,,,,,,,,,,,,,,
5f4c1b5626199983e1285d83,001,2022-11-20_18h01.27.635,Info_measure_main_exp,2022.2.2,MacIntel,59.99880002,,,,,,,,,,,,,,,,,,masks/mask_005.jpg,,,,,,,,,,,,,,,,,,,,,,,,,,,,,,,,,,,,,,,,,,,0,3,3,4,1,,,,,,,,,,,,,,,,,,,,,,,,,,,,,,,,,,,,,,,,,,,,,,
5f4c1b5626199983e1285d83,001,2022-11-20_18h01.27.635,Info_measure_main_exp,2022.2.2,MacIntel,59.99880002,,,,,,,,,,,,,,,,,,masks/mask_001.jpg,,,,,,,,,,,,,,,,,,,,,,,,,,,,,,,,,,,,,,,,,,,0,4,4,0,1,,,,,,,,,,,,,,,,,,,,,,,,,,,,,,,,,,,,,,,,,,,,,,
5f4c1b5626199983e1285d83,001,2022-11-20_18h01.27.635,Info_measure_main_exp,2022.2.2,MacIntel,59.99880002,,,,,,,,,,,,,,,,,,masks/mask_004.jpg,,,,,,,,,,,,,,,,,,,,,,,,,,,,,,,,,,,,,,,,,,,,,,,,0,0,0,3,1,,,,,,,,,,,,,,,,,,,,,,,,,,,,,,,,,,,,,,,,,
5f4c1b5626199983e1285d83,001,2022-11-20_18h01.27.635,Info_measure_main_exp,2022.2.2,MacIntel,59.99880002,,,,,,,,,,,,,,,,,,masks/mask_003.jpg,,,,,,,,,,,,,,,,,,,,,,,,,,,,,,,,,,,,,,,,,,,,,,,,0,1,1,2,1,,,,,,,,,,,,,,,,,,,,,,,,,,,,,,,,,,,,,,,,,
5f4c1b5626199983e1285d83,001,2022-11-20_18h01.27.635,Info_measure_main_exp,2022.2.2,MacIntel,59.99880002,,,,,,,,,,,,,,,,,,masks/mask_001.jpg,,,,,,,,,,,,,,,,,,,,,,,,,,,,,,,,,,,,,,,,,,,,,,,,0,2,2,0,1,,,,,,,,,,,,,,,,,,,,,,,,,,,,,,,,,,,,,,,,,
5f4c1b5626199983e1285d83,001,2022-11-20_18h01.27.635,Info_measure_main_exp,2022.2.2,MacIntel,59.99880002,,,,,,,,,,,,,,,,,,masks/mask_002.jpg,,,,,,,,,,,,,,,,,,,,,,,,,,,,,,,,,,,,,,,,,,,,,,,,0,3,3,1,1,,,,,,,,,,,,,,,,,,,,,,,,,,,,,,,,,,,,,,,,,
5f4c1b5626199983e1285d83,001,2022-11-20_18h01.27.635,Info_measure_main_exp,2022.2.2,MacIntel,59.99880002,,,,,,,,,,,,,,,,,,masks/mask_005.jpg,,,,,,,,,,,,,,,,,,,,,,,,,,,,,,,,,,,,,,,,,,,,,,,,0,4,4,4,1,,,,,,,,,,,,,,,,,,,,,,,,,,,,,,,,,,,,,,,,,
5f4c1b5626199983e1285d83,001,2022-11-20_18h01.27.635,Info_measure_main_exp,2022.2.2,MacIntel,59.99880002,,,,,,,,,,,,,,,,,,,,,,,,,,,,,,7,0.9323,1,,,,,,,,,,,,0,131,5,5,2298,2214,absent_patch/patch0002298.jpg,absent_patch/patch0002214.jpg,,,,,,,,,,,,,,,,,,,,0.038263889,0.167695787,1,0,0,response1disk,28,-0.000876804,-0.007255588,1,0,0,center_square,0,27,27,99,1,,,,,,,,,,,,,,,,,,,,,,,
5f4c1b5626199983e1285d83,001,2022-11-20_18h01.27.635,Info_measure_main_exp,2022.2.2,MacIntel,59.99880002,,,,,,,,,,,,,,,,,,masks/mask_001.jpg,,,,,,,,,,,,,,,,,,,,,,,,,,,,,,,,,,,,,,,,,,,0,0,0,0,1,,,,,,,,,,,,,,,,,,,,,,,,,,,,,,,,,,,,,,,,,,,,,,
5f4c1b5626199983e1285d83,001,2022-11-20_18h01.27.635,Info_measure_main_exp,2022.2.2,MacIntel,59.99880002,,,,,,,,,,,,,,,,,,masks/mask_002.jpg,,,,,,,,,,,,,,,,,,,,,,,,,,,,,,,,,,,,,,,,,,,0,1,1,1,1,,,,,,,,,,,,,,,,,,,,,,,,,,,,,,,,,,,,,,,,,,,,,,
5f4c1b5626199983e1285d83,001,2022-11-20_18h01.27.635,Info_measure_main_exp,2022.2.2,MacIntel,59.99880002,,,,,,,,,,,,,,,,,,masks/mask_003.jpg,,,,,,,,,,,,,,,,,,,,,,,,,,,,,,,,,,,,,,,,,,,0,2,2,2,1,,,,,,,,,,,,,,,,,,,,,,,,,,,,,,,,,,,,,,,,,,,,,,
5f4c1b5626199983e1285d83,001,2022-11-20_18h01.27.635,Info_measure_main_exp,2022.2.2,MacIntel,59.99880002,,,,,,,,,,,,,,,,,,masks/mask_004.jpg,,,,,,,,,,,,,,,,,,,,,,,,,,,,,,,,,,,,,,,,,,,0,3,3,3,1,,,,,,,,,,,,,,,,,,,,,,,,,,,,,,,,,,,,,,,,,,,,,,
5f4c1b5626199983e1285d83,001,2022-11-20_18h01.27.635,Info_measure_main_exp,2022.2.2,MacIntel,59.99880002,,,,,,,,,,,,,,,,,,masks/mask_005.jpg,,,,,,,,,,,,,,,,,,,,,,,,,,,,,,,,,,,,,,,,,,,0,4,4,4,1,,,,,,,,,,,,,,,,,,,,,,,,,,,,,,,,,,,,,,,,,,,,,,
5f4c1b5626199983e1285d83,001,2022-11-20_18h01.27.635,Info_measure_main_exp,2022.2.2,MacIntel,59.99880002,,,,,,,,,,,,,,,,,,masks/mask_001.jpg,,,,,,,,,,,,,,,,,,,,,,,,,,,,,,,,,,,,,,,,,,,,,,,,0,0,0,0,1,,,,,,,,,,,,,,,,,,,,,,,,,,,,,,,,,,,,,,,,,
5f4c1b5626199983e1285d83,001,2022-11-20_18h01.27.635,Info_measure_main_exp,2022.2.2,MacIntel,59.99880002,,,,,,,,,,,,,,,,,,masks/mask_002.jpg,,,,,,,,,,,,,,,,,,,,,,,,,,,,,,,,,,,,,,,,,,,,,,,,0,1,1,1,1,,,,,,,,,,,,,,,,,,,,,,,,,,,,,,,,,,,,,,,,,
5f4c1b5626199983e1285d83,001,2022-11-20_18h01.27.635,Info_measure_main_exp,2022.2.2,MacIntel,59.99880002,,,,,,,,,,,,,,,,,,masks/mask_003.jpg,,,,,,,,,,,,,,,,,,,,,,,,,,,,,,,,,,,,,,,,,,,,,,,,0,2,2,2,1,,,,,,,,,,,,,,,,,,,,,,,,,,,,,,,,,,,,,,,,,
5f4c1b5626199983e1285d83,001,2022-11-20_18h01.27.635,Info_measure_main_exp,2022.2.2,MacIntel,59.99880002,,,,,,,,,,,,,,,,,,masks/mask_005.jpg,,,,,,,,,,,,,,,,,,,,,,,,,,,,,,,,,,,,,,,,,,,,,,,,0,3,3,4,1,,,,,,,,,,,,,,,,,,,,,,,,,,,,,,,,,,,,,,,,,
5f4c1b5626199983e1285d83,001,2022-11-20_18h01.27.635,Info_measure_main_exp,2022.2.2,MacIntel,59.99880002,,,,,,,,,,,,,,,,,,masks/mask_004.jpg,,,,,,,,,,,,,,,,,,,,,,,,,,,,,,,,,,,,,,,,,,,,,,,,0,4,4,3,1,,,,,,,,,,,,,,,,,,,,,,,,,,,,,,,,,,,,,,,,,
5f4c1b5626199983e1285d83,001,2022-11-20_18h01.27.635,Info_measure_main_exp,2022.2.2,MacIntel,59.99880002,,,,,,,,,,,,,,,,,,,,,,,,,,,,,,3,1.0834,1,,,,,,,,,,,,0,131,5,5,1986,2154,absent_patch/patch0001986.jpg,absent_patch/patch0002154.jpg,,,,,,,,,,,,,,,,,,,,-0.04022739,-0.098364597,1,0,0,response5disk,29,0.007405328,0.01410041,1,0,0,center_square,0,28,28,36,1,,,,,,,,,,,,,,,,,,,,,,,
5f4c1b5626199983e1285d83,001,2022-11-20_18h01.27.635,Info_measure_main_exp,2022.2.2,MacIntel,59.99880002,,,,,,,,,,,,,,,,,,masks/mask_004.jpg,,,,,,,,,,,,,,,,,,,,,,,,,,,,,,,,,,,,,,,,,,,0,0,0,3,1,,,,,,,,,,,,,,,,,,,,,,,,,,,,,,,,,,,,,,,,,,,,,,
5f4c1b5626199983e1285d83,001,2022-11-20_18h01.27.635,Info_measure_main_exp,2022.2.2,MacIntel,59.99880002,,,,,,,,,,,,,,,,,,masks/mask_005.jpg,,,,,,,,,,,,,,,,,,,,,,,,,,,,,,,,,,,,,,,,,,,0,1,1,4,1,,,,,,,,,,,,,,,,,,,,,,,,,,,,,,,,,,,,,,,,,,,,,,
5f4c1b5626199983e1285d83,001,2022-11-20_18h01.27.635,Info_measure_main_exp,2022.2.2,MacIntel,59.99880002,,,,,,,,,,,,,,,,,,masks/mask_001.jpg,,,,,,,,,,,,,,,,,,,,,,,,,,,,,,,,,,,,,,,,,,,0,2,2,0,1,,,,,,,,,,,,,,,,,,,,,,,,,,,,,,,,,,,,,,,,,,,,,,
5f4c1b5626199983e1285d83,001,2022-11-20_18h01.27.635,Info_measure_main_exp,2022.2.2,MacIntel,59.99880002,,,,,,,,,,,,,,,,,,masks/mask_002.jpg,,,,,,,,,,,,,,,,,,,,,,,,,,,,,,,,,,,,,,,,,,,0,3,3,1,1,,,,,,,,,,,,,,,,,,,,,,,,,,,,,,,,,,,,,,,,,,,,,,
5f4c1b5626199983e1285d83,001,2022-11-20_18h01.27.635,Info_measure_main_exp,2022.2.2,MacIntel,59.99880002,,,,,,,,,,,,,,,,,,masks/mask_003.jpg,,,,,,,,,,,,,,,,,,,,,,,,,,,,,,,,,,,,,,,,,,,0,4,4,2,1,,,,,,,,,,,,,,,,,,,,,,,,,,,,,,,,,,,,,,,,,,,,,,
5f4c1b5626199983e1285d83,001,2022-11-20_18h01.27.635,Info_measure_main_exp,2022.2.2,MacIntel,59.99880002,,,,,,,,,,,,,,,,,,masks/mask_004.jpg,,,,,,,,,,,,,,,,,,,,,,,,,,,,,,,,,,,,,,,,,,,,,,,,0,0,0,3,1,,,,,,,,,,,,,,,,,,,,,,,,,,,,,,,,,,,,,,,,,
5f4c1b5626199983e1285d83,001,2022-11-20_18h01.27.635,Info_measure_main_exp,2022.2.2,MacIntel,59.99880002,,,,,,,,,,,,,,,,,,masks/mask_001.jpg,,,,,,,,,,,,,,,,,,,,,,,,,,,,,,,,,,,,,,,,,,,,,,,,0,1,1,0,1,,,,,,,,,,,,,,,,,,,,,,,,,,,,,,,,,,,,,,,,,
5f4c1b5626199983e1285d83,001,2022-11-20_18h01.27.635,Info_measure_main_exp,2022.2.2,MacIntel,59.99880002,,,,,,,,,,,,,,,,,,masks/mask_005.jpg,,,,,,,,,,,,,,,,,,,,,,,,,,,,,,,,,,,,,,,,,,,,,,,,0,2,2,4,1,,,,,,,,,,,,,,,,,,,,,,,,,,,,,,,,,,,,,,,,,
5f4c1b5626199983e1285d83,001,2022-11-20_18h01.27.635,Info_measure_main_exp,2022.2.2,MacIntel,59.99880002,,,,,,,,,,,,,,,,,,masks/mask_002.jpg,,,,,,,,,,,,,,,,,,,,,,,,,,,,,,,,,,,,,,,,,,,,,,,,0,3,3,1,1,,,,,,,,,,,,,,,,,,,,,,,,,,,,,,,,,,,,,,,,,
5f4c1b5626199983e1285d83,001,2022-11-20_18h01.27.635,Info_measure_main_exp,2022.2.2,MacIntel,59.99880002,,,,,,,,,,,,,,,,,,masks/mask_003.jpg,,,,,,,,,,,,,,,,,,,,,,,,,,,,,,,,,,,,,,,,,,,,,,,,0,4,4,2,1,,,,,,,,,,,,,,,,,,,,,,,,,,,,,,,,,,,,,,,,,
5f4c1b5626199983e1285d83,001,2022-11-20_18h01.27.635,Info_measure_main_exp,2022.2.2,MacIntel,59.99880002,,,,,,,,,,,,,,,,,,,,,,,,,,,,,,6,1.1006,1,,,,,,,,,,,,0,131,5,5,2298,1986,absent_patch/patch0002298.jpg,absent_patch/patch0001986.jpg,,,,,,,,,,,,,,,,,,,,0.085042792,0.035388387,1,0,0,response1disk,30,0.001407132,-0.001072388,1,0,0,center_square,0,29,29,32,1,,,,,,,,,,,,,,,,,,,,,,,
5f4c1b5626199983e1285d83,001,2022-11-20_18h01.27.635,Info_measure_main_exp,2022.2.2,MacIntel,59.99880002,,,,,,,,,,,,,,,,,,masks/mask_005.jpg,,,,,,,,,,,,,,,,,,,,,,,,,,,,,,,,,,,,,,,,,,,0,0,0,4,1,,,,,,,,,,,,,,,,,,,,,,,,,,,,,,,,,,,,,,,,,,,,,,
5f4c1b5626199983e1285d83,001,2022-11-20_18h01.27.635,Info_measure_main_exp,2022.2.2,MacIntel,59.99880002,,,,,,,,,,,,,,,,,,masks/mask_002.jpg,,,,,,,,,,,,,,,,,,,,,,,,,,,,,,,,,,,,,,,,,,,0,1,1,1,1,,,,,,,,,,,,,,,,,,,,,,,,,,,,,,,,,,,,,,,,,,,,,,
5f4c1b5626199983e1285d83,001,2022-11-20_18h01.27.635,Info_measure_main_exp,2022.2.2,MacIntel,59.99880002,,,,,,,,,,,,,,,,,,masks/mask_003.jpg,,,,,,,,,,,,,,,,,,,,,,,,,,,,,,,,,,,,,,,,,,,0,2,2,2,1,,,,,,,,,,,,,,,,,,,,,,,,,,,,,,,,,,,,,,,,,,,,,,
5f4c1b5626199983e1285d83,001,2022-11-20_18h01.27.635,Info_measure_main_exp,2022.2.2,MacIntel,59.99880002,,,,,,,,,,,,,,,,,,masks/mask_004.jpg,,,,,,,,,,,,,,,,,,,,,,,,,,,,,,,,,,,,,,,,,,,0,3,3,3,1,,,,,,,,,,,,,,,,,,,,,,,,,,,,,,,,,,,,,,,,,,,,,,
5f4c1b5626199983e1285d83,001,2022-11-20_18h01.27.635,Info_measure_main_exp,2022.2.2,MacIntel,59.99880002,,,,,,,,,,,,,,,,,,masks/mask_001.jpg,,,,,,,,,,,,,,,,,,,,,,,,,,,,,,,,,,,,,,,,,,,0,4,4,0,1,,,,,,,,,,,,,,,,,,,,,,,,,,,,,,,,,,,,,,,,,,,,,,
5f4c1b5626199983e1285d83,001,2022-11-20_18h01.27.635,Info_measure_main_exp,2022.2.2,MacIntel,59.99880002,,,,,,,,,,,,,,,,,,masks/mask_001.jpg,,,,,,,,,,,,,,,,,,,,,,,,,,,,,,,,,,,,,,,,,,,,,,,,0,0,0,0,1,,,,,,,,,,,,,,,,,,,,,,,,,,,,,,,,,,,,,,,,,
5f4c1b5626199983e1285d83,001,2022-11-20_18h01.27.635,Info_measure_main_exp,2022.2.2,MacIntel,59.99880002,,,,,,,,,,,,,,,,,,masks/mask_004.jpg,,,,,,,,,,,,,,,,,,,,,,,,,,,,,,,,,,,,,,,,,,,,,,,,0,1,1,3,1,,,,,,,,,,,,,,,,,,,,,,,,,,,,,,,,,,,,,,,,,
5f4c1b5626199983e1285d83,001,2022-11-20_18h01.27.635,Info_measure_main_exp,2022.2.2,MacIntel,59.99880002,,,,,,,,,,,,,,,,,,masks/mask_002.jpg,,,,,,,,,,,,,,,,,,,,,,,,,,,,,,,,,,,,,,,,,,,,,,,,0,2,2,1,1,,,,,,,,,,,,,,,,,,,,,,,,,,,,,,,,,,,,,,,,,
5f4c1b5626199983e1285d83,001,2022-11-20_18h01.27.635,Info_measure_main_exp,2022.2.2,MacIntel,59.99880002,,,,,,,,,,,,,,,,,,masks/mask_003.jpg,,,,,,,,,,,,,,,,,,,,,,,,,,,,,,,,,,,,,,,,,,,,,,,,0,3,3,2,1,,,,,,,,,,,,,,,,,,,,,,,,,,,,,,,,,,,,,,,,,
5f4c1b5626199983e1285d83,001,2022-11-20_18h01.27.635,Info_measure_main_exp,2022.2.2,MacIntel,59.99880002,,,,,,,,,,,,,,,,,,masks/mask_005.jpg,,,,,,,,,,,,,,,,,,,,,,,,,,,,,,,,,,,,,,,,,,,,,,,,0,4,4,4,1,,,,,,,,,,,,,,,,,,,,,,,,,,,,,,,,,,,,,,,,,
5f4c1b5626199983e1285d83,001,2022-11-20_18h01.27.635,Info_measure_main_exp,2022.2.2,MacIntel,59.99880002,,,,,,,,,,,,,,,,,,,,,,,,,,,,,,5,1.9344,1,,,,,,,,,,,,0,131,5,5,2142,2190,absent_patch/patch0002142.jpg,absent_patch/patch0002190.jpg,,,,,,,,,,,,,,,,,,,,0.134215563,-0.057085334,1,0,0,response3disk,31,0.004270359,0.009987454,1,0,0,center_square,0,30,30,70,1,,,,,,,,,,,,,,,,,,,,,,,
5f4c1b5626199983e1285d83,001,2022-11-20_18h01.27.635,Info_measure_main_exp,2022.2.2,MacIntel,59.99880002,,,,,,,,,,,,,,,,,,masks/mask_003.jpg,,,,,,,,,,,,,,,,,,,,,,,,,,,,,,,,,,,,,,,,,,,0,0,0,2,1,,,,,,,,,,,,,,,,,,,,,,,,,,,,,,,,,,,,,,,,,,,,,,
5f4c1b5626199983e1285d83,001,2022-11-20_18h01.27.635,Info_measure_main_exp,2022.2.2,MacIntel,59.99880002,,,,,,,,,,,,,,,,,,masks/mask_005.jpg,,,,,,,,,,,,,,,,,,,,,,,,,,,,,,,,,,,,,,,,,,,0,1,1,4,1,,,,,,,,,,,,,,,,,,,,,,,,,,,,,,,,,,,,,,,,,,,,,,
5f4c1b5626199983e1285d83,001,2022-11-20_18h01.27.635,Info_measure_main_exp,2022.2.2,MacIntel,59.99880002,,,,,,,,,,,,,,,,,,masks/mask_004.jpg,,,,,,,,,,,,,,,,,,,,,,,,,,,,,,,,,,,,,,,,,,,0,2,2,3,1,,,,,,,,,,,,,,,,,,,,,,,,,,,,,,,,,,,,,,,,,,,,,,
5f4c1b5626199983e1285d83,001,2022-11-20_18h01.27.635,Info_measure_main_exp,2022.2.2,MacIntel,59.99880002,,,,,,,,,,,,,,,,,,masks/mask_001.jpg,,,,,,,,,,,,,,,,,,,,,,,,,,,,,,,,,,,,,,,,,,,0,3,3,0,1,,,,,,,,,,,,,,,,,,,,,,,,,,,,,,,,,,,,,,,,,,,,,,
5f4c1b5626199983e1285d83,001,2022-11-20_18h01.27.635,Info_measure_main_exp,2022.2.2,MacIntel,59.99880002,,,,,,,,,,,,,,,,,,masks/mask_002.jpg,,,,,,,,,,,,,,,,,,,,,,,,,,,,,,,,,,,,,,,,,,,0,4,4,1,1,,,,,,,,,,,,,,,,,,,,,,,,,,,,,,,,,,,,,,,,,,,,,,
5f4c1b5626199983e1285d83,001,2022-11-20_18h01.27.635,Info_measure_main_exp,2022.2.2,MacIntel,59.99880002,,,,,,,,,,,,,,,,,,masks/mask_004.jpg,,,,,,,,,,,,,,,,,,,,,,,,,,,,,,,,,,,,,,,,,,,,,,,,0,0,0,3,1,,,,,,,,,,,,,,,,,,,,,,,,,,,,,,,,,,,,,,,,,
