participant,session,date,expName,psychopyVersion,OS,frameRate,space_press_continue.keys,space_press_continue.rt,space_press_continue_2.keys,space_press_continue_2.rt,space_press_continue_3.keys,space_press_continue_3.rt,space_press_continue_4.keys,space_press_continue_4.rt,space_press_continue_5.keys,space_press_continue_5.rt,space_press_continue_6.keys,space_press_continue_6.rt,prac_mask_loop_1.thisRepN,prac_mask_loop_1.thisTrialN,prac_mask_loop_1.thisN,prac_mask_loop_1.thisIndex,prac_mask_loop_1.ran,mask_name,prac_mask_loop_2.thisRepN,prac_mask_loop_2.thisTrialN,prac_mask_loop_2.thisN,prac_mask_loop_2.thisIndex,prac_mask_loop_2.ran,mouse_2.x,mouse_2.y,mouse_2.leftButton,mouse_2.midButton,mouse_2.rightButton,mouse_2.clicked_name,similarity,response_time,Pass,mouse_12.x,mouse_12.y,mouse_12.leftButton,mouse_12.midButton,mouse_12.rightButton,mouse_12.clicked_name,prac_loop.thisRepN,prac_loop.thisTrialN,prac_loop.thisN,prac_loop.thisIndex,prac_loop.ran,Pair_type,Image_num,Patch_1_loc,Patch_2_loc,Patch_1_info,Patch_2_info,Patch_1_name,Patch_2_name,mouse_1.x,mouse_1.y,mouse_1.leftButton,mouse_1.midButton,mouse_1.rightButton,mouse_1.time,mouse_1.clicked_name,space_press_continue_7.keys,space_press_continue_7.rt,mask_loop.thisRepN,mask_loop.thisTrialN,mask_loop.thisN,mask_loop.thisIndex,mask_loop.ran,mask_loop_2.thisRepN,mask_loop_2.thisTrialN,mask_loop_2.thisN,mask_loop_2.thisIndex,mask_loop_2.ran,mouse.x,mouse.y,mouse.leftButton,mouse.midButton,mouse.rightButton,mouse.clicked_name,trialNumber,mouse_11.x,mouse_11.y,mouse_11.leftButton,mouse_11.midButton,mouse_11.rightButton,mouse_11.clicked_name,first_pass_loop.thisRepN,first_pass_loop.thisTrialN,first_pass_loop.thisN,first_pass_loop.thisIndex,first_pass_loop.ran,mask_loop_3.thisRepN,mask_loop_3.thisTrialN,mask_loop_3.thisN,mask_loop_3.thisIndex,mask_loop_3.ran,mask_loop_4.thisRepN,mask_loop_4.thisTrialN,mask_loop_4.thisN,mask_loop_4.thisIndex,mask_loop_4.ran,mouse_3.x,mouse_3.y,mouse_3.leftButton,mouse_3.midButton,mouse_3.rightButton,mouse_3.clicked_name,double_pass_loop.thisRepN,double_pass_loop.thisTrialN,double_pass_loop.thisN,double_pass_loop.thisIndex,double_pass_loop.ran,space_exit.keys,space_exit.rt
603964,001,2022-11-20_23h52.45.461,Info_measure_main_exp,2022.2.2,MacIntel,59.99160118,,,,,,,,,,,,,,,,,,,,,,,,,,,,,,,,,,,,,,,,,,,,,,,,,,,,,,,,,,,,,,,,,,,,,,,,,,,,,,,,,,,,,,,,,,,,,,,,,,,,,,,,,,,,,,,
603964,001,2022-11-20_23h52.45.461,Info_measure_main_exp,2022.2.2,MacIntel,59.99160118,,,,,,,,,,,,,,,,,,,,,,,,,,,,,,,,,,,,,,,,,,,,,,,,,,,,,,,,,,,,,,,,,,,,,,,,,,,,,,,,,,,,,,,,,,,,,,,,,,,,,,,,,,,,,,,
603964,001,2022-11-20_23h52.45.461,Info_measure_main_exp,2022.2.2,MacIntel,59.99160118,space,5.1068,,,,,,,,,,,,,,,,,,,,,,,,,,,,,,,,,,,,,,,,,,,,,,,,,,,,,,,,,,,,,,,,,,,,,,,,,,,,,,,,,,,,,,,,,,,,,,,,,,,,,,,,,,,,,
603964,001,2022-11-20_23h52.45.461,Info_measure_main_exp,2022.2.2,MacIntel,59.99160118,,,space,19.9504,,,,,,,,,,,,,,,,,,,,,,,,,,,,,,,,,,,,,,,,,,,,,,,,,,,,,,,,,,,,,,,,,,,,,,,,,,,,,,,,,,,,,,,,,,,,,,,,,,,,,,,,,,,
603964,001,2022-11-20_23h52.45.461,Info_measure_main_exp,2022.2.2,MacIntel,59.99160118,,,,,space,11.2332,,,,,,,,,,,,,,,,,,,,,,,,,,,,,,,,,,,,,,,,,,,,,,,,,,,,,,,,,,,,,,,,,,,,,,,,,,,,,,,,,,,,,,,,,,,,,,,,,,,,,,,,,
603964,001,2022-11-20_23h52.45.461,Info_measure_main_exp,2022.2.2,MacIntel,59.99160118,,,,,,,space,40.7832,,,,,,,,,,,,,,,,,,,,,,,,,,,,,,,,,,,,,,,,,,,,,,,,,,,,,,,,,,,,,,,,,,,,,,,,,,,,,,,,,,,,,,,,,,,,,,,,,,,,,,,
603964,001,2022-11-20_23h52.45.461,Info_measure_main_exp,2022.2.2,MacIntel,59.99160118,,,,,,,,,space,7.5911,,,,,,,,,,,,,,,,,,,,,,,,,,,,,,,,,,,,,,,,,,,,,,,,,,,,,,,,,,,,,,,,,,,,,,,,,,,,,,,,,,,,,,,,,,,,,,,,,,,,,
603964,001,2022-11-20_23h52.45.461,Info_measure_main_exp,2022.2.2,MacIntel,59.99160118,,,,,,,,,,,space,4.571,,,,,,,,,,,,,,,,,,,,,,,,,,,,,,,,,,,,,,,,,,,,,,,,,,,,,,,,,,,,,,,,,,,,,,,,,,,,,,,,,,,,,,,,,,,,,,,,,,,
603964,001,2022-11-20_23h52.45.461,Info_measure_main_exp,2022.2.2,MacIntel,59.99160118,,,,,,,,,,,,,0,0,0,4,1,masks/mask_005.jpg,,,,,,,,,,,,,,,,,,,,,,,,,,,,,,,,,,,,,,,,,,,,,,,,,,,,,,,,,,,,,,,,,,,,,,,,,,,,,,,,,,,,,,,,,,,,,
603964,001,2022-11-20_23h52.45.461,Info_measure_main_exp,2022.2.2,MacIntel,59.99160118,,,,,,,,,,,,,0,1,1,0,1,masks/mask_001.jpg,,,,,,,,,,,,,,,,,,,,,,,,,,,,,,,,,,,,,,,,,,,,,,,,,,,,,,,,,,,,,,,,,,,,,,,,,,,,,,,,,,,,,,,,,,,,,
603964,001,2022-11-20_23h52.45.461,Info_measure_main_exp,2022.2.2,MacIntel,59.99160118,,,,,,,,,,,,,0,2,2,2,1,masks/mask_003.jpg,,,,,,,,,,,,,,,,,,,,,,,,,,,,,,,,,,,,,,,,,,,,,,,,,,,,,,,,,,,,,,,,,,,,,,,,,,,,,,,,,,,,,,,,,,,,,
603964,001,2022-11-20_23h52.45.461,Info_measure_main_exp,2022.2.2,MacIntel,59.99160118,,,,,,,,,,,,,0,3,3,3,1,masks/mask_004.jpg,,,,,,,,,,,,,,,,,,,,,,,,,,,,,,,,,,,,,,,,,,,,,,,,,,,,,,,,,,,,,,,,,,,,,,,,,,,,,,,,,,,,,,,,,,,,,
603964,001,2022-11-20_23h52.45.461,Info_measure_main_exp,2022.2.2,MacIntel,59.99160118,,,,,,,,,,,,,0,4,4,1,1,masks/mask_002.jpg,,,,,,,,,,,,,,,,,,,,,,,,,,,,,,,,,,,,,,,,,,,,,,,,,,,,,,,,,,,,,,,,,,,,,,,,,,,,,,,,,,,,,,,,,,,,,
603964,001,2022-11-20_23h52.45.461,Info_measure_main_exp,2022.2.2,MacIntel,59.99160118,,,,,,,,,,,,,,,,,,masks/mask_001.jpg,0,0,0,0,1,,,,,,,,,,,,,,,,,,,,,,,,,,,,,,,,,,,,,,,,,,,,,,,,,,,,,,,,,,,,,,,,,,,,,,,,,,,,,,,,,,,,,,,,
603964,001,2022-11-20_23h52.45.461,Info_measure_main_exp,2022.2.2,MacIntel,59.99160118,,,,,,,,,,,,,,,,,,masks/mask_004.jpg,0,1,1,3,1,,,,,,,,,,,,,,,,,,,,,,,,,,,,,,,,,,,,,,,,,,,,,,,,,,,,,,,,,,,,,,,,,,,,,,,,,,,,,,,,,,,,,,,,
603964,001,2022-11-20_23h52.45.461,Info_measure_main_exp,2022.2.2,MacIntel,59.99160118,,,,,,,,,,,,,,,,,,masks/mask_002.jpg,0,2,2,1,1,,,,,,,,,,,,,,,,,,,,,,,,,,,,,,,,,,,,,,,,,,,,,,,,,,,,,,,,,,,,,,,,,,,,,,,,,,,,,,,,,,,,,,,,
603964,001,2022-11-20_23h52.45.461,Info_measure_main_exp,2022.2.2,MacIntel,59.99160118,,,,,,,,,,,,,,,,,,masks/mask_005.jpg,0,3,3,4,1,,,,,,,,,,,,,,,,,,,,,,,,,,,,,,,,,,,,,,,,,,,,,,,,,,,,,,,,,,,,,,,,,,,,,,,,,,,,,,,,,,,,,,,,
603964,001,2022-11-20_23h52.45.461,Info_measure_main_exp,2022.2.2,MacIntel,59.99160118,,,,,,,,,,,,,,,,,,masks/mask_003.jpg,0,4,4,2,1,,,,,,,,,,,,,,,,,,,,,,,,,,,,,,,,,,,,,,,,,,,,,,,,,,,,,,,,,,,,,,,,,,,,,,,,,,,,,,,,,,,,,,,,
603964,001,2022-11-20_23h52.45.461,Info_measure_main_exp,2022.2.2,MacIntel,59.99160118,,,,,,,,,,,,,,,,,,,,,,,,0.065406155,-0.134350247,1,0,0,response3disk,4,96.9444,1,0.000101251,-0.005381639,1,0,0,center_square,0,0,0,0,1,0,131,5,5,2370,2406,prac_patch/patch0002370.jpg,prac_patch/patch0002406.jpg,,,,,,,,,,,,,,,,,,,,,,,,,,,,,,,,,,,,,,,,,,,,,,,,,,,,,,,,,,,,
603964,001,2022-11-20_23h52.45.461,Info_measure_main_exp,2022.2.2,MacIntel,59.99160118,,,,,,,,,,,,,0,0,0,0,1,masks/mask_001.jpg,,,,,,,,,,,,,,,,,,,,,,,,,,,,,,,,,,,,,,,,,,,,,,,,,,,,,,,,,,,,,,,,,,,,,,,,,,,,,,,,,,,,,,,,,,,,,
603964,001,2022-11-20_23h52.45.461,Info_measure_main_exp,2022.2.2,MacIntel,59.99160118,,,,,,,,,,,,,0,1,1,4,1,masks/mask_005.jpg,,,,,,,,,,,,,,,,,,,,,,,,,,,,,,,,,,,,,,,,,,,,,,,,,,,,,,,,,,,,,,,,,,,,,,,,,,,,,,,,,,,,,,,,,,,,,
603964,001,2022-11-20_23h52.45.461,Info_measure_main_exp,2022.2.2,MacIntel,59.99160118,,,,,,,,,,,,,0,2,2,3,1,masks/mask_004.jpg,,,,,,,,,,,,,,,,,,,,,,,,,,,,,,,,,,,,,,,,,,,,,,,,,,,,,,,,,,,,,,,,,,,,,,,,,,,,,,,,,,,,,,,,,,,,,
603964,001,2022-11-20_23h52.45.461,Info_measure_main_exp,2022.2.2,MacIntel,59.99160118,,,,,,,,,,,,,0,3,3,2,1,masks/mask_003.jpg,,,,,,,,,,,,,,,,,,,,,,,,,,,,,,,,,,,,,,,,,,,,,,,,,,,,,,,,,,,,,,,,,,,,,,,,,,,,,,,,,,,,,,,,,,,,,
603964,001,2022-11-20_23h52.45.461,Info_measure_main_exp,2022.2.2,MacIntel,59.99160118,,,,,,,,,,,,,0,4,4,1,1,masks/mask_002.jpg,,,,,,,,,,,,,,,,,,,,,,,,,,,,,,,,,,,,,,,,,,,,,,,,,,,,,,,,,,,,,,,,,,,,,,,,,,,,,,,,,,,,,,,,,,,,,
603964,001,2022-11-20_23h52.45.461,Info_measure_main_exp,2022.2.2,MacIntel,59.99160118,,,,,,,,,,,,,,,,,,masks/mask_002.jpg,0,0,0,1,1,,,,,,,,,,,,,,,,,,,,,,,,,,,,,,,,,,,,,,,,,,,,,,,,,,,,,,,,,,,,,,,,,,,,,,,,,,,,,,,,,,,,,,,,
603964,001,2022-11-20_23h52.45.461,Info_measure_main_exp,2022.2.2,MacIntel,59.99160118,,,,,,,,,,,,,,,,,,masks/mask_005.jpg,0,1,1,4,1,,,,,,,,,,,,,,,,,,,,,,,,,,,,,,,,,,,,,,,,,,,,,,,,,,,,,,,,,,,,,,,,,,,,,,,,,,,,,,,,,,,,,,,,
603964,001,2022-11-20_23h52.45.461,Info_measure_main_exp,2022.2.2,MacIntel,59.99160118,,,,,,,,,,,,,,,,,,masks/mask_001.jpg,0,2,2,0,1,,,,,,,,,,,,,,,,,,,,,,,,,,,,,,,,,,,,,,,,,,,,,,,,,,,,,,,,,,,,,,,,,,,,,,,,,,,,,,,,,,,,,,,,
603964,001,2022-11-20_23h52.45.461,Info_measure_main_exp,2022.2.2,MacIntel,59.99160118,,,,,,,,,,,,,,,,,,masks/mask_004.jpg,0,3,3,3,1,,,,,,,,,,,,,,,,,,,,,,,,,,,,,,,,,,,,,,,,,,,,,,,,,,,,,,,,,,,,,,,,,,,,,,,,,,,,,,,,,,,,,,,,
603964,001,2022-11-20_23h52.45.461,Info_measure_main_exp,2022.2.2,MacIntel,59.99160118,,,,,,,,,,,,,,,,,,masks/mask_003.jpg,0,4,4,2,1,,,,,,,,,,,,,,,,,,,,,,,,,,,,,,,,,,,,,,,,,,,,,,,,,,,,,,,,,,,,,,,,,,,,,,,,,,,,,,,,,,,,,,,,
603964,001,2022-11-20_23h52.45.461,Info_measure_main_exp,2022.2.2,MacIntel,59.99160118,,,,,,,,,,,,,,,,,,,,,,,,-0.03479994,0.133233473,1,0,0,response7disk,0,109.205,1,-0.011083984,0.005377401,1,0,0,center_square,0,1,1,2,1,0,131,5,5,2526,2526,prac_patch/patch0002526.jpg,prac_patch/patch0002526.jpg,,,,,,,,,,,,,,,,,,,,,,,,,,,,,,,,,,,,,,,,,,,,,,,,,,,,,,,,,,,,
603964,001,2022-11-20_23h52.45.461,Info_measure_main_exp,2022.2.2,MacIntel,59.99160118,,,,,,,,,,,,,0,0,0,2,1,masks/mask_003.jpg,,,,,,,,,,,,,,,,,,,,,,,,,,,,,,,,,,,,,,,,,,,,,,,,,,,,,,,,,,,,,,,,,,,,,,,,,,,,,,,,,,,,,,,,,,,,,
603964,001,2022-11-20_23h52.45.461,Info_measure_main_exp,2022.2.2,MacIntel,59.99160118,,,,,,,,,,,,,0,1,1,1,1,masks/mask_002.jpg,,,,,,,,,,,,,,,,,,,,,,,,,,,,,,,,,,,,,,,,,,,,,,,,,,,,,,,,,,,,,,,,,,,,,,,,,,,,,,,,,,,,,,,,,,,,,
603964,001,2022-11-20_23h52.45.461,Info_measure_main_exp,2022.2.2,MacIntel,59.99160118,,,,,,,,,,,,,0,2,2,4,1,masks/mask_005.jpg,,,,,,,,,,,,,,,,,,,,,,,,,,,,,,,,,,,,,,,,,,,,,,,,,,,,,,,,,,,,,,,,,,,,,,,,,,,,,,,,,,,,,,,,,,,,,
603964,001,2022-11-20_23h52.45.461,Info_measure_main_exp,2022.2.2,MacIntel,59.99160118,,,,,,,,,,,,,0,3,3,0,1,masks/mask_001.jpg,,,,,,,,,,,,,,,,,,,,,,,,,,,,,,,,,,,,,,,,,,,,,,,,,,,,,,,,,,,,,,,,,,,,,,,,,,,,,,,,,,,,,,,,,,,,,
603964,001,2022-11-20_23h52.45.461,Info_measure_main_exp,2022.2.2,MacIntel,59.99160118,,,,,,,,,,,,,0,4,4,3,1,masks/mask_004.jpg,,,,,,,,,,,,,,,,,,,,,,,,,,,,,,,,,,,,,,,,,,,,,,,,,,,,,,,,,,,,,,,,,,,,,,,,,,,,,,,,,,,,,,,,,,,,,
603964,001,2022-11-20_23h52.45.461,Info_measure_main_exp,2022.2.2,MacIntel,59.99160118,,,,,,,,,,,,,,,,,,masks/mask_005.jpg,0,0,0,4,1,,,,,,,,,,,,,,,,,,,,,,,,,,,,,,,,,,,,,,,,,,,,,,,,,,,,,,,,,,,,,,,,,,,,,,,,,,,,,,,,,,,,,,,,
603964,001,2022-11-20_23h52.45.461,Info_measure_main_exp,2022.2.2,MacIntel,59.99160118,,,,,,,,,,,,,,,,,,masks/mask_004.jpg,0,1,1,3,1,,,,,,,,,,,,,,,,,,,,,,,,,,,,,,,,,,,,,,,,,,,,,,,,,,,,,,,,,,,,,,,,,,,,,,,,,,,,,,,,,,,,,,,,
603964,001,2022-11-20_23h52.45.461,Info_measure_main_exp,2022.2.2,MacIntel,59.99160118,,,,,,,,,,,,,,,,,,masks/mask_001.jpg,0,2,2,0,1,,,,,,,,,,,,,,,,,,,,,,,,,,,,,,,,,,,,,,,,,,,,,,,,,,,,,,,,,,,,,,,,,,,,,,,,,,,,,,,,,,,,,,,,
603964,001,2022-11-20_23h52.45.461,Info_measure_main_exp,2022.2.2,MacIntel,59.99160118,,,,,,,,,,,,,,,,,,masks/mask_003.jpg,0,3,3,2,1,,,,,,,,,,,,,,,,,,,,,,,,,,,,,,,,,,,,,,,,,,,,,,,,,,,,,,,,,,,,,,,,,,,,,,,,,,,,,,,,,,,,,,,,
603964,001,2022-11-20_23h52.45.461,Info_measure_main_exp,2022.2.2,MacIntel,59.99160118,,,,,,,,,,,,,,,,,,masks/mask_002.jpg,0,4,4,1,1,,,,,,,,,,,,,,,,,,,,,,,,,,,,,,,,,,,,,,,,,,,,,,,,,,,,,,,,,,,,,,,,,,,,,,,,,,,,,,,,,,,,,,,,
603964,001,2022-11-20_23h52.45.461,Info_measure_main_exp,2022.2.2,MacIntel,59.99160118,,,,,,,,,,,,,,,,,,,,,,,,-0.113560452,0.070536872,1,0,0,response7disk,1,116.7901,1,0.000114814,0.003488295,1,0,0,center_square,0,2,2,1,1,0,131,5,5,2514,2490,prac_patch/patch0002514.jpg,prac_patch/patch0002490.jpg,,,,,,,,,,,,,,,,,,,,,,,,,,,,,,,,,,,,,,,,,,,,,,,,,,,,,,,,,,,,
603964,001,2022-11-20_23h52.45.461,Info_measure_main_exp,2022.2.2,MacIntel,59.99160118,,,,,,,,,,,,,,,,,,,,,,,,,,,,,,,,,,,,,,,,,,,,,,,,,,,,,,,,,,,space,2.5473,,,,,,,,,,,,,,,,,,,,,,,,,,,,,,,,,,,,,,,,,,,,,,,,,,,
603964,001,2022-11-20_23h52.45.461,Info_measure_main_exp,2022.2.2,MacIntel,59.99160118,,,,,,,,,,,,,,,,,,masks/mask_003.jpg,,,,,,,,,,,,,,,,,,,,,,,,,,,,,,,,,,,,,,,,,,,0,0,0,2,1,,,,,,,,,,,,,,,,,,,,,,,,,,,,,,,,,,,,,,,,,,,,,,
603964,001,2022-11-20_23h52.45.461,Info_measure_main_exp,2022.2.2,MacIntel,59.99160118,,,,,,,,,,,,,,,,,,masks/mask_005.jpg,,,,,,,,,,,,,,,,,,,,,,,,,,,,,,,,,,,,,,,,,,,0,1,1,4,1,,,,,,,,,,,,,,,,,,,,,,,,,,,,,,,,,,,,,,,,,,,,,,
603964,001,2022-11-20_23h52.45.461,Info_measure_main_exp,2022.2.2,MacIntel,59.99160118,,,,,,,,,,,,,,,,,,masks/mask_002.jpg,,,,,,,,,,,,,,,,,,,,,,,,,,,,,,,,,,,,,,,,,,,0,2,2,1,1,,,,,,,,,,,,,,,,,,,,,,,,,,,,,,,,,,,,,,,,,,,,,,
603964,001,2022-11-20_23h52.45.461,Info_measure_main_exp,2022.2.2,MacIntel,59.99160118,,,,,,,,,,,,,,,,,,masks/mask_001.jpg,,,,,,,,,,,,,,,,,,,,,,,,,,,,,,,,,,,,,,,,,,,0,3,3,0,1,,,,,,,,,,,,,,,,,,,,,,,,,,,,,,,,,,,,,,,,,,,,,,
603964,001,2022-11-20_23h52.45.461,Info_measure_main_exp,2022.2.2,MacIntel,59.99160118,,,,,,,,,,,,,,,,,,masks/mask_004.jpg,,,,,,,,,,,,,,,,,,,,,,,,,,,,,,,,,,,,,,,,,,,0,4,4,3,1,,,,,,,,,,,,,,,,,,,,,,,,,,,,,,,,,,,,,,,,,,,,,,
603964,001,2022-11-20_23h52.45.461,Info_measure_main_exp,2022.2.2,MacIntel,59.99160118,,,,,,,,,,,,,,,,,,masks/mask_001.jpg,,,,,,,,,,,,,,,,,,,,,,,,,,,,,,,,,,,,,,,,,,,,,,,,0,0,0,0,1,,,,,,,,,,,,,,,,,,,,,,,,,,,,,,,,,,,,,,,,,
603964,001,2022-11-20_23h52.45.461,Info_measure_main_exp,2022.2.2,MacIntel,59.99160118,,,,,,,,,,,,,,,,,,masks/mask_003.jpg,,,,,,,,,,,,,,,,,,,,,,,,,,,,,,,,,,,,,,,,,,,,,,,,0,1,1,2,1,,,,,,,,,,,,,,,,,,,,,,,,,,,,,,,,,,,,,,,,,
603964,001,2022-11-20_23h52.45.461,Info_measure_main_exp,2022.2.2,MacIntel,59.99160118,,,,,,,,,,,,,,,,,,masks/mask_004.jpg,,,,,,,,,,,,,,,,,,,,,,,,,,,,,,,,,,,,,,,,,,,,,,,,0,2,2,3,1,,,,,,,,,,,,,,,,,,,,,,,,,,,,,,,,,,,,,,,,,
603964,001,2022-11-20_23h52.45.461,Info_measure_main_exp,2022.2.2,MacIntel,59.99160118,,,,,,,,,,,,,,,,,,masks/mask_005.jpg,,,,,,,,,,,,,,,,,,,,,,,,,,,,,,,,,,,,,,,,,,,,,,,,0,3,3,4,1,,,,,,,,,,,,,,,,,,,,,,,,,,,,,,,,,,,,,,,,,
603964,001,2022-11-20_23h52.45.461,Info_measure_main_exp,2022.2.2,MacIntel,59.99160118,,,,,,,,,,,,,,,,,,masks/mask_002.jpg,,,,,,,,,,,,,,,,,,,,,,,,,,,,,,,,,,,,,,,,,,,,,,,,0,4,4,1,1,,,,,,,,,,,,,,,,,,,,,,,,,,,,,,,,,,,,,,,,,
603964,001,2022-11-20_23h52.45.461,Info_measure_main_exp,2022.2.2,MacIntel,59.99160118,,,,,,,,,,,,,,,,,,,,,,,,,,,,,,0,0.6498,1,,,,,,,,,,,,0,131,5,5,1950,1950,absent_patch/patch0001950.jpg,absent_patch/patch0001950.jpg,,,,,,,,,,,,,,,,,,,,-0.022529026,0.100849372,1,0,0,response7disk,1,0.004145101,0.003513794,1,0,0,center_square,0,0,0,92,1,,,,,,,,,,,,,,,,,,,,,,,
603964,001,2022-11-20_23h52.45.461,Info_measure_main_exp,2022.2.2,MacIntel,59.99160118,,,,,,,,,,,,,,,,,,masks/mask_003.jpg,,,,,,,,,,,,,,,,,,,,,,,,,,,,,,,,,,,,,,,,,,,0,0,0,2,1,,,,,,,,,,,,,,,,,,,,,,,,,,,,,,,,,,,,,,,,,,,,,,
603964,001,2022-11-20_23h52.45.461,Info_measure_main_exp,2022.2.2,MacIntel,59.99160118,,,,,,,,,,,,,,,,,,masks/mask_002.jpg,,,,,,,,,,,,,,,,,,,,,,,,,,,,,,,,,,,,,,,,,,,0,1,1,1,1,,,,,,,,,,,,,,,,,,,,,,,,,,,,,,,,,,,,,,,,,,,,,,
603964,001,2022-11-20_23h52.45.461,Info_measure_main_exp,2022.2.2,MacIntel,59.99160118,,,,,,,,,,,,,,,,,,masks/mask_004.jpg,,,,,,,,,,,,,,,,,,,,,,,,,,,,,,,,,,,,,,,,,,,0,2,2,3,1,,,,,,,,,,,,,,,,,,,,,,,,,,,,,,,,,,,,,,,,,,,,,,
603964,001,2022-11-20_23h52.45.461,Info_measure_main_exp,2022.2.2,MacIntel,59.99160118,,,,,,,,,,,,,,,,,,masks/mask_001.jpg,,,,,,,,,,,,,,,,,,,,,,,,,,,,,,,,,,,,,,,,,,,0,3,3,0,1,,,,,,,,,,,,,,,,,,,,,,,,,,,,,,,,,,,,,,,,,,,,,,
603964,001,2022-11-20_23h52.45.461,Info_measure_main_exp,2022.2.2,MacIntel,59.99160118,,,,,,,,,,,,,,,,,,masks/mask_005.jpg,,,,,,,,,,,,,,,,,,,,,,,,,,,,,,,,,,,,,,,,,,,0,4,4,4,1,,,,,,,,,,,,,,,,,,,,,,,,,,,,,,,,,,,,,,,,,,,,,,
603964,001,2022-11-20_23h52.45.461,Info_measure_main_exp,2022.2.2,MacIntel,59.99160118,,,,,,,,,,,,,,,,,,masks/mask_005.jpg,,,,,,,,,,,,,,,,,,,,,,,,,,,,,,,,,,,,,,,,,,,,,,,,0,0,0,4,1,,,,,,,,,,,,,,,,,,,,,,,,,,,,,,,,,,,,,,,,,
603964,001,2022-11-20_23h52.45.461,Info_measure_main_exp,2022.2.2,MacIntel,59.99160118,,,,,,,,,,,,,,,,,,masks/mask_002.jpg,,,,,,,,,,,,,,,,,,,,,,,,,,,,,,,,,,,,,,,,,,,,,,,,0,1,1,1,1,,,,,,,,,,,,,,,,,,,,,,,,,,,,,,,,,,,,,,,,,
603964,001,2022-11-20_23h52.45.461,Info_measure_main_exp,2022.2.2,MacIntel,59.99160118,,,,,,,,,,,,,,,,,,masks/mask_004.jpg,,,,,,,,,,,,,,,,,,,,,,,,,,,,,,,,,,,,,,,,,,,,,,,,0,2,2,3,1,,,,,,,,,,,,,,,,,,,,,,,,,,,,,,,,,,,,,,,,,
603964,001,2022-11-20_23h52.45.461,Info_measure_main_exp,2022.2.2,MacIntel,59.99160118,,,,,,,,,,,,,,,,,,masks/mask_003.jpg,,,,,,,,,,,,,,,,,,,,,,,,,,,,,,,,,,,,,,,,,,,,,,,,0,3,3,2,1,,,,,,,,,,,,,,,,,,,,,,,,,,,,,,,,,,,,,,,,,
603964,001,2022-11-20_23h52.45.461,Info_measure_main_exp,2022.2.2,MacIntel,59.99160118,,,,,,,,,,,,,,,,,,masks/mask_001.jpg,,,,,,,,,,,,,,,,,,,,,,,,,,,,,,,,,,,,,,,,,,,,,,,,0,4,4,0,1,,,,,,,,,,,,,,,,,,,,,,,,,,,,,,,,,,,,,,,,,
603964,001,2022-11-20_23h52.45.461,Info_measure_main_exp,2022.2.2,MacIntel,59.99160118,,,,,,,,,,,,,,,,,,,,,,,,,,,,,,6,1.2352,1,,,,,,,,,,,,1,131,5,5,1,2142,present_patch/cong_131_5_a.jpg,absent_patch/patch0002142.jpg,,,,,,,,,,,,,,,,,,,,0.124309353,0.051570774,1,0,0,response1disk,2,0.000681966,-0.006304457,1,0,0,center_square,0,1,1,80,1,,,,,,,,,,,,,,,,,,,,,,,
603964,001,2022-11-20_23h52.45.461,Info_measure_main_exp,2022.2.2,MacIntel,59.99160118,,,,,,,,,,,,,,,,,,masks/mask_001.jpg,,,,,,,,,,,,,,,,,,,,,,,,,,,,,,,,,,,,,,,,,,,0,0,0,0,1,,,,,,,,,,,,,,,,,,,,,,,,,,,,,,,,,,,,,,,,,,,,,,
603964,001,2022-11-20_23h52.45.461,Info_measure_main_exp,2022.2.2,MacIntel,59.99160118,,,,,,,,,,,,,,,,,,masks/mask_004.jpg,,,,,,,,,,,,,,,,,,,,,,,,,,,,,,,,,,,,,,,,,,,0,1,1,3,1,,,,,,,,,,,,,,,,,,,,,,,,,,,,,,,,,,,,,,,,,,,,,,
603964,001,2022-11-20_23h52.45.461,Info_measure_main_exp,2022.2.2,MacIntel,59.99160118,,,,,,,,,,,,,,,,,,masks/mask_002.jpg,,,,,,,,,,,,,,,,,,,,,,,,,,,,,,,,,,,,,,,,,,,0,2,2,1,1,,,,,,,,,,,,,,,,,,,,,,,,,,,,,,,,,,,,,,,,,,,,,,
603964,001,2022-11-20_23h52.45.461,Info_measure_main_exp,2022.2.2,MacIntel,59.99160118,,,,,,,,,,,,,,,,,,masks/mask_005.jpg,,,,,,,,,,,,,,,,,,,,,,,,,,,,,,,,,,,,,,,,,,,0,3,3,4,1,,,,,,,,,,,,,,,,,,,,,,,,,,,,,,,,,,,,,,,,,,,,,,
603964,001,2022-11-20_23h52.45.461,Info_measure_main_exp,2022.2.2,MacIntel,59.99160118,,,,,,,,,,,,,,,,,,masks/mask_003.jpg,,,,,,,,,,,,,,,,,,,,,,,,,,,,,,,,,,,,,,,,,,,0,4,4,2,1,,,,,,,,,,,,,,,,,,,,,,,,,,,,,,,,,,,,,,,,,,,,,,
603964,001,2022-11-20_23h52.45.461,Info_measure_main_exp,2022.2.2,MacIntel,59.99160118,,,,,,,,,,,,,,,,,,masks/mask_002.jpg,,,,,,,,,,,,,,,,,,,,,,,,,,,,,,,,,,,,,,,,,,,,,,,,0,0,0,1,1,,,,,,,,,,,,,,,,,,,,,,,,,,,,,,,,,,,,,,,,,
603964,001,2022-11-20_23h52.45.461,Info_measure_main_exp,2022.2.2,MacIntel,59.99160118,,,,,,,,,,,,,,,,,,masks/mask_004.jpg,,,,,,,,,,,,,,,,,,,,,,,,,,,,,,,,,,,,,,,,,,,,,,,,0,1,1,3,1,,,,,,,,,,,,,,,,,,,,,,,,,,,,,,,,,,,,,,,,,
603964,001,2022-11-20_23h52.45.461,Info_measure_main_exp,2022.2.2,MacIntel,59.99160118,,,,,,,,,,,,,,,,,,masks/mask_005.jpg,,,,,,,,,,,,,,,,,,,,,,,,,,,,,,,,,,,,,,,,,,,,,,,,0,2,2,4,1,,,,,,,,,,,,,,,,,,,,,,,,,,,,,,,,,,,,,,,,,
603964,001,2022-11-20_23h52.45.461,Info_measure_main_exp,2022.2.2,MacIntel,59.99160118,,,,,,,,,,,,,,,,,,masks/mask_003.jpg,,,,,,,,,,,,,,,,,,,,,,,,,,,,,,,,,,,,,,,,,,,,,,,,0,3,3,2,1,,,,,,,,,,,,,,,,,,,,,,,,,,,,,,,,,,,,,,,,,
603964,001,2022-11-20_23h52.45.461,Info_measure_main_exp,2022.2.2,MacIntel,59.99160118,,,,,,,,,,,,,,,,,,masks/mask_001.jpg,,,,,,,,,,,,,,,,,,,,,,,,,,,,,,,,,,,,,,,,,,,,,,,,0,4,4,0,1,,,,,,,,,,,,,,,,,,,,,,,,,,,,,,,,,,,,,,,,,
603964,001,2022-11-20_23h52.45.461,Info_measure_main_exp,2022.2.2,MacIntel,59.99160118,,,,,,,,,,,,,,,,,,,,,,,,,,,,,,7,1.0162,1,,,,,,,,,,,,0,131,5,5,2190,1974,absent_patch/patch0002190.jpg,absent_patch/patch0001974.jpg,,,,,,,,,,,,,,,,,,,,0.049887085,0.087175903,1,0,0,response1disk,3,0.004017741,-0.000902507,1,0,0,center_square,0,2,2,119,1,,,,,,,,,,,,,,,,,,,,,,,
603964,001,2022-11-20_23h52.45.461,Info_measure_main_exp,2022.2.2,MacIntel,59.99160118,,,,,,,,,,,,,,,,,,masks/mask_003.jpg,,,,,,,,,,,,,,,,,,,,,,,,,,,,,,,,,,,,,,,,,,,0,0,0,2,1,,,,,,,,,,,,,,,,,,,,,,,,,,,,,,,,,,,,,,,,,,,,,,
603964,001,2022-11-20_23h52.45.461,Info_measure_main_exp,2022.2.2,MacIntel,59.99160118,,,,,,,,,,,,,,,,,,masks/mask_002.jpg,,,,,,,,,,,,,,,,,,,,,,,,,,,,,,,,,,,,,,,,,,,0,1,1,1,1,,,,,,,,,,,,,,,,,,,,,,,,,,,,,,,,,,,,,,,,,,,,,,
603964,001,2022-11-20_23h52.45.461,Info_measure_main_exp,2022.2.2,MacIntel,59.99160118,,,,,,,,,,,,,,,,,,masks/mask_001.jpg,,,,,,,,,,,,,,,,,,,,,,,,,,,,,,,,,,,,,,,,,,,0,2,2,0,1,,,,,,,,,,,,,,,,,,,,,,,,,,,,,,,,,,,,,,,,,,,,,,
603964,001,2022-11-20_23h52.45.461,Info_measure_main_exp,2022.2.2,MacIntel,59.99160118,,,,,,,,,,,,,,,,,,masks/mask_005.jpg,,,,,,,,,,,,,,,,,,,,,,,,,,,,,,,,,,,,,,,,,,,0,3,3,4,1,,,,,,,,,,,,,,,,,,,,,,,,,,,,,,,,,,,,,,,,,,,,,,
603964,001,2022-11-20_23h52.45.461,Info_measure_main_exp,2022.2.2,MacIntel,59.99160118,,,,,,,,,,,,,,,,,,masks/mask_004.jpg,,,,,,,,,,,,,,,,,,,,,,,,,,,,,,,,,,,,,,,,,,,0,4,4,3,1,,,,,,,,,,,,,,,,,,,,,,,,,,,,,,,,,,,,,,,,,,,,,,
603964,001,2022-11-20_23h52.45.461,Info_measure_main_exp,2022.2.2,MacIntel,59.99160118,,,,,,,,,,,,,,,,,,masks/mask_004.jpg,,,,,,,,,,,,,,,,,,,,,,,,,,,,,,,,,,,,,,,,,,,,,,,,0,0,0,3,1,,,,,,,,,,,,,,,,,,,,,,,,,,,,,,,,,,,,,,,,,
603964,001,2022-11-20_23h52.45.461,Info_measure_main_exp,2022.2.2,MacIntel,59.99160118,,,,,,,,,,,,,,,,,,masks/mask_005.jpg,,,,,,,,,,,,,,,,,,,,,,,,,,,,,,,,,,,,,,,,,,,,,,,,0,1,1,4,1,,,,,,,,,,,,,,,,,,,,,,,,,,,,,,,,,,,,,,,,,
603964,001,2022-11-20_23h52.45.461,Info_measure_main_exp,2022.2.2,MacIntel,59.99160118,,,,,,,,,,,,,,,,,,masks/mask_001.jpg,,,,,,,,,,,,,,,,,,,,,,,,,,,,,,,,,,,,,,,,,,,,,,,,0,2,2,0,1,,,,,,,,,,,,,,,,,,,,,,,,,,,,,,,,,,,,,,,,,
603964,001,2022-11-20_23h52.45.461,Info_measure_main_exp,2022.2.2,MacIntel,59.99160118,,,,,,,,,,,,,,,,,,masks/mask_003.jpg,,,,,,,,,,,,,,,,,,,,,,,,,,,,,,,,,,,,,,,,,,,,,,,,0,3,3,2,1,,,,,,,,,,,,,,,,,,,,,,,,,,,,,,,,,,,,,,,,,
603964,001,2022-11-20_23h52.45.461,Info_measure_main_exp,2022.2.2,MacIntel,59.99160118,,,,,,,,,,,,,,,,,,masks/mask_002.jpg,,,,,,,,,,,,,,,,,,,,,,,,,,,,,,,,,,,,,,,,,,,,,,,,0,4,4,1,1,,,,,,,,,,,,,,,,,,,,,,,,,,,,,,,,,,,,,,,,,
603964,001,2022-11-20_23h52.45.461,Info_measure_main_exp,2022.2.2,MacIntel,59.99160118,,,,,,,,,,,,,,,,,,,,,,,,,,,,,,7,1.0827,1,,,,,,,,,,,,0,131,5,5,2082,2250,absent_patch/patch0002082.jpg,absent_patch/patch0002250.jpg,,,,,,,,,,,,,,,,,,,,0.073798692,0.120434977,1,0,0,response1disk,4,0.00650784,-0.00205112,1,0,0,center_square,0,3,3,3,1,,,,,,,,,,,,,,,,,,,,,,,
603964,001,2022-11-20_23h52.45.461,Info_measure_main_exp,2022.2.2,MacIntel,59.99160118,,,,,,,,,,,,,,,,,,masks/mask_001.jpg,,,,,,,,,,,,,,,,,,,,,,,,,,,,,,,,,,,,,,,,,,,0,0,0,0,1,,,,,,,,,,,,,,,,,,,,,,,,,,,,,,,,,,,,,,,,,,,,,,
603964,001,2022-11-20_23h52.45.461,Info_measure_main_exp,2022.2.2,MacIntel,59.99160118,,,,,,,,,,,,,,,,,,masks/mask_004.jpg,,,,,,,,,,,,,,,,,,,,,,,,,,,,,,,,,,,,,,,,,,,0,1,1,3,1,,,,,,,,,,,,,,,,,,,,,,,,,,,,,,,,,,,,,,,,,,,,,,
603964,001,2022-11-20_23h52.45.461,Info_measure_main_exp,2022.2.2,MacIntel,59.99160118,,,,,,,,,,,,,,,,,,masks/mask_002.jpg,,,,,,,,,,,,,,,,,,,,,,,,,,,,,,,,,,,,,,,,,,,0,2,2,1,1,,,,,,,,,,,,,,,,,,,,,,,,,,,,,,,,,,,,,,,,,,,,,,
603964,001,2022-11-20_23h52.45.461,Info_measure_main_exp,2022.2.2,MacIntel,59.99160118,,,,,,,,,,,,,,,,,,masks/mask_005.jpg,,,,,,,,,,,,,,,,,,,,,,,,,,,,,,,,,,,,,,,,,,,0,3,3,4,1,,,,,,,,,,,,,,,,,,,,,,,,,,,,,,,,,,,,,,,,,,,,,,
603964,001,2022-11-20_23h52.45.461,Info_measure_main_exp,2022.2.2,MacIntel,59.99160118,,,,,,,,,,,,,,,,,,masks/mask_003.jpg,,,,,,,,,,,,,,,,,,,,,,,,,,,,,,,,,,,,,,,,,,,0,4,4,2,1,,,,,,,,,,,,,,,,,,,,,,,,,,,,,,,,,,,,,,,,,,,,,,
603964,001,2022-11-20_23h52.45.461,Info_measure_main_exp,2022.2.2,MacIntel,59.99160118,,,,,,,,,,,,,,,,,,masks/mask_003.jpg,,,,,,,,,,,,,,,,,,,,,,,,,,,,,,,,,,,,,,,,,,,,,,,,0,0,0,2,1,,,,,,,,,,,,,,,,,,,,,,,,,,,,,,,,,,,,,,,,,
603964,001,2022-11-20_23h52.45.461,Info_measure_main_exp,2022.2.2,MacIntel,59.99160118,,,,,,,,,,,,,,,,,,masks/mask_004.jpg,,,,,,,,,,,,,,,,,,,,,,,,,,,,,,,,,,,,,,,,,,,,,,,,0,1,1,3,1,,,,,,,,,,,,,,,,,,,,,,,,,,,,,,,,,,,,,,,,,
603964,001,2022-11-20_23h52.45.461,Info_measure_main_exp,2022.2.2,MacIntel,59.99160118,,,,,,,,,,,,,,,,,,masks/mask_005.jpg,,,,,,,,,,,,,,,,,,,,,,,,,,,,,,,,,,,,,,,,,,,,,,,,0,2,2,4,1,,,,,,,,,,,,,,,,,,,,,,,,,,,,,,,,,,,,,,,,,
603964,001,2022-11-20_23h52.45.461,Info_measure_main_exp,2022.2.2,MacIntel,59.99160118,,,,,,,,,,,,,,,,,,masks/mask_002.jpg,,,,,,,,,,,,,,,,,,,,,,,,,,,,,,,,,,,,,,,,,,,,,,,,0,3,3,1,1,,,,,,,,,,,,,,,,,,,,,,,,,,,,,,,,,,,,,,,,,
603964,001,2022-11-20_23h52.45.461,Info_measure_main_exp,2022.2.2,MacIntel,59.99160118,,,,,,,,,,,,,,,,,,masks/mask_001.jpg,,,,,,,,,,,,,,,,,,,,,,,,,,,,,,,,,,,,,,,,,,,,,,,,0,4,4,0,1,,,,,,,,,,,,,,,,,,,,,,,,,,,,,,,,,,,,,,,,,
603964,001,2022-11-20_23h52.45.461,Info_measure_main_exp,2022.2.2,MacIntel,59.99160118,,,,,,,,,,,,,,,,,,,,,,,,,,,,,,7,0.7334,1,,,,,,,,,,,,0,131,5,5,1974,2142,absent_patch/patch0001974.jpg,absent_patch/patch0002142.jpg,,,,,,,,,,,,,,,,,,,,0.060112576,0.121138713,1,0,0,response1disk,5,0.006785278,-0.003746745,1,0,0,center_square,0,4,4,38,1,,,,,,,,,,,,,,,,,,,,,,,
603964,001,2022-11-20_23h52.45.461,Info_measure_main_exp,2022.2.2,MacIntel,59.99160118,,,,,,,,,,,,,,,,,,masks/mask_004.jpg,,,,,,,,,,,,,,,,,,,,,,,,,,,,,,,,,,,,,,,,,,,0,0,0,3,1,,,,,,,,,,,,,,,,,,,,,,,,,,,,,,,,,,,,,,,,,,,,,,
603964,001,2022-11-20_23h52.45.461,Info_measure_main_exp,2022.2.2,MacIntel,59.99160118,,,,,,,,,,,,,,,,,,masks/mask_003.jpg,,,,,,,,,,,,,,,,,,,,,,,,,,,,,,,,,,,,,,,,,,,0,1,1,2,1,,,,,,,,,,,,,,,,,,,,,,,,,,,,,,,,,,,,,,,,,,,,,,
603964,001,2022-11-20_23h52.45.461,Info_measure_main_exp,2022.2.2,MacIntel,59.99160118,,,,,,,,,,,,,,,,,,masks/mask_001.jpg,,,,,,,,,,,,,,,,,,,,,,,,,,,,,,,,,,,,,,,,,,,0,2,2,0,1,,,,,,,,,,,,,,,,,,,,,,,,,,,,,,,,,,,,,,,,,,,,,,
603964,001,2022-11-20_23h52.45.461,Info_measure_main_exp,2022.2.2,MacIntel,59.99160118,,,,,,,,,,,,,,,,,,masks/mask_005.jpg,,,,,,,,,,,,,,,,,,,,,,,,,,,,,,,,,,,,,,,,,,,0,3,3,4,1,,,,,,,,,,,,,,,,,,,,,,,,,,,,,,,,,,,,,,,,,,,,,,
603964,001,2022-11-20_23h52.45.461,Info_measure_main_exp,2022.2.2,MacIntel,59.99160118,,,,,,,,,,,,,,,,,,masks/mask_002.jpg,,,,,,,,,,,,,,,,,,,,,,,,,,,,,,,,,,,,,,,,,,,0,4,4,1,1,,,,,,,,,,,,,,,,,,,,,,,,,,,,,,,,,,,,,,,,,,,,,,
603964,001,2022-11-20_23h52.45.461,Info_measure_main_exp,2022.2.2,MacIntel,59.99160118,,,,,,,,,,,,,,,,,,masks/mask_004.jpg,,,,,,,,,,,,,,,,,,,,,,,,,,,,,,,,,,,,,,,,,,,,,,,,0,0,0,3,1,,,,,,,,,,,,,,,,,,,,,,,,,,,,,,,,,,,,,,,,,
603964,001,2022-11-20_23h52.45.461,Info_measure_main_exp,2022.2.2,MacIntel,59.99160118,,,,,,,,,,,,,,,,,,masks/mask_002.jpg,,,,,,,,,,,,,,,,,,,,,,,,,,,,,,,,,,,,,,,,,,,,,,,,0,1,1,1,1,,,,,,,,,,,,,,,,,,,,,,,,,,,,,,,,,,,,,,,,,
603964,001,2022-11-20_23h52.45.461,Info_measure_main_exp,2022.2.2,MacIntel,59.99160118,,,,,,,,,,,,,,,,,,masks/mask_005.jpg,,,,,,,,,,,,,,,,,,,,,,,,,,,,,,,,,,,,,,,,,,,,,,,,0,2,2,4,1,,,,,,,,,,,,,,,,,,,,,,,,,,,,,,,,,,,,,,,,,
603964,001,2022-11-20_23h52.45.461,Info_measure_main_exp,2022.2.2,MacIntel,59.99160118,,,,,,,,,,,,,,,,,,masks/mask_003.jpg,,,,,,,,,,,,,,,,,,,,,,,,,,,,,,,,,,,,,,,,,,,,,,,,0,3,3,2,1,,,,,,,,,,,,,,,,,,,,,,,,,,,,,,,,,,,,,,,,,
603964,001,2022-11-20_23h52.45.461,Info_measure_main_exp,2022.2.2,MacIntel,59.99160118,,,,,,,,,,,,,,,,,,masks/mask_001.jpg,,,,,,,,,,,,,,,,,,,,,,,,,,,,,,,,,,,,,,,,,,,,,,,,0,4,4,0,1,,,,,,,,,,,,,,,,,,,,,,,,,,,,,,,,,,,,,,,,,
603964,001,2022-11-20_23h52.45.461,Info_measure_main_exp,2022.2.2,MacIntel,59.99160118,,,,,,,,,,,,,,,,,,,,,,,,,,,,,,7,0.6671,1,,,,,,,,,,,,0,131,5,5,2166,2298,absent_patch/patch0002166.jpg,absent_patch/patch0002298.jpg,,,,,,,,,,,,,,,,,,,,0.038575304,0.094679159,1,0,0,response1disk,6,0.002769436,-0.002605353,1,0,0,center_square,0,5,5,52,1,,,,,,,,,,,,,,,,,,,,,,,
603964,001,2022-11-20_23h52.45.461,Info_measure_main_exp,2022.2.2,MacIntel,59.99160118,,,,,,,,,,,,,,,,,,masks/mask_005.jpg,,,,,,,,,,,,,,,,,,,,,,,,,,,,,,,,,,,,,,,,,,,0,0,0,4,1,,,,,,,,,,,,,,,,,,,,,,,,,,,,,,,,,,,,,,,,,,,,,,
603964,001,2022-11-20_23h52.45.461,Info_measure_main_exp,2022.2.2,MacIntel,59.99160118,,,,,,,,,,,,,,,,,,masks/mask_002.jpg,,,,,,,,,,,,,,,,,,,,,,,,,,,,,,,,,,,,,,,,,,,0,1,1,1,1,,,,,,,,,,,,,,,,,,,,,,,,,,,,,,,,,,,,,,,,,,,,,,
603964,001,2022-11-20_23h52.45.461,Info_measure_main_exp,2022.2.2,MacIntel,59.99160118,,,,,,,,,,,,,,,,,,masks/mask_003.jpg,,,,,,,,,,,,,,,,,,,,,,,,,,,,,,,,,,,,,,,,,,,0,2,2,2,1,,,,,,,,,,,,,,,,,,,,,,,,,,,,,,,,,,,,,,,,,,,,,,
603964,001,2022-11-20_23h52.45.461,Info_measure_main_exp,2022.2.2,MacIntel,59.99160118,,,,,,,,,,,,,,,,,,masks/mask_001.jpg,,,,,,,,,,,,,,,,,,,,,,,,,,,,,,,,,,,,,,,,,,,0,3,3,0,1,,,,,,,,,,,,,,,,,,,,,,,,,,,,,,,,,,,,,,,,,,,,,,
603964,001,2022-11-20_23h52.45.461,Info_measure_main_exp,2022.2.2,MacIntel,59.99160118,,,,,,,,,,,,,,,,,,masks/mask_004.jpg,,,,,,,,,,,,,,,,,,,,,,,,,,,,,,,,,,,,,,,,,,,0,4,4,3,1,,,,,,,,,,,,,,,,,,,,,,,,,,,,,,,,,,,,,,,,,,,,,,
603964,001,2022-11-20_23h52.45.461,Info_measure_main_exp,2022.2.2,MacIntel,59.99160118,,,,,,,,,,,,,,,,,,masks/mask_002.jpg,,,,,,,,,,,,,,,,,,,,,,,,,,,,,,,,,,,,,,,,,,,,,,,,0,0,0,1,1,,,,,,,,,,,,,,,,,,,,,,,,,,,,,,,,,,,,,,,,,
603964,001,2022-11-20_23h52.45.461,Info_measure_main_exp,2022.2.2,MacIntel,59.99160118,,,,,,,,,,,,,,,,,,masks/mask_005.jpg,,,,,,,,,,,,,,,,,,,,,,,,,,,,,,,,,,,,,,,,,,,,,,,,0,1,1,4,1,,,,,,,,,,,,,,,,,,,,,,,,,,,,,,,,,,,,,,,,,
603964,001,2022-11-20_23h52.45.461,Info_measure_main_exp,2022.2.2,MacIntel,59.99160118,,,,,,,,,,,,,,,,,,masks/mask_003.jpg,,,,,,,,,,,,,,,,,,,,,,,,,,,,,,,,,,,,,,,,,,,,,,,,0,2,2,2,1,,,,,,,,,,,,,,,,,,,,,,,,,,,,,,,,,,,,,,,,,
603964,001,2022-11-20_23h52.45.461,Info_measure_main_exp,2022.2.2,MacIntel,59.99160118,,,,,,,,,,,,,,,,,,masks/mask_004.jpg,,,,,,,,,,,,,,,,,,,,,,,,,,,,,,,,,,,,,,,,,,,,,,,,0,3,3,3,1,,,,,,,,,,,,,,,,,,,,,,,,,,,,,,,,,,,,,,,,,
603964,001,2022-11-20_23h52.45.461,Info_measure_main_exp,2022.2.2,MacIntel,59.99160118,,,,,,,,,,,,,,,,,,masks/mask_001.jpg,,,,,,,,,,,,,,,,,,,,,,,,,,,,,,,,,,,,,,,,,,,,,,,,0,4,4,0,1,,,,,,,,,,,,,,,,,,,,,,,,,,,,,,,,,,,,,,,,,
603964,001,2022-11-20_23h52.45.461,Info_measure_main_exp,2022.2.2,MacIntel,59.99160118,,,,,,,,,,,,,,,,,,,,,,,,,,,,,,7,0.6006,1,,,,,,,,,,,,1,131,5,5,2250,1,absent_patch/patch0002250.jpg,present_patch/cong_131_5_a.jpg,,,,,,,,,,,,,,,,,,,,0.042513767,0.108509488,1,0,0,response1disk,7,0.006440769,-0.002273729,1,0,0,center_square,0,6,6,5,1,,,,,,,,,,,,,,,,,,,,,,,
603964,001,2022-11-20_23h52.45.461,Info_measure_main_exp,2022.2.2,MacIntel,59.99160118,,,,,,,,,,,,,,,,,,masks/mask_001.jpg,,,,,,,,,,,,,,,,,,,,,,,,,,,,,,,,,,,,,,,,,,,0,0,0,0,1,,,,,,,,,,,,,,,,,,,,,,,,,,,,,,,,,,,,,,,,,,,,,,
603964,001,2022-11-20_23h52.45.461,Info_measure_main_exp,2022.2.2,MacIntel,59.99160118,,,,,,,,,,,,,,,,,,masks/mask_003.jpg,,,,,,,,,,,,,,,,,,,,,,,,,,,,,,,,,,,,,,,,,,,0,1,1,2,1,,,,,,,,,,,,,,,,,,,,,,,,,,,,,,,,,,,,,,,,,,,,,,
603964,001,2022-11-20_23h52.45.461,Info_measure_main_exp,2022.2.2,MacIntel,59.99160118,,,,,,,,,,,,,,,,,,masks/mask_005.jpg,,,,,,,,,,,,,,,,,,,,,,,,,,,,,,,,,,,,,,,,,,,0,2,2,4,1,,,,,,,,,,,,,,,,,,,,,,,,,,,,,,,,,,,,,,,,,,,,,,
603964,001,2022-11-20_23h52.45.461,Info_measure_main_exp,2022.2.2,MacIntel,59.99160118,,,,,,,,,,,,,,,,,,masks/mask_002.jpg,,,,,,,,,,,,,,,,,,,,,,,,,,,,,,,,,,,,,,,,,,,0,3,3,1,1,,,,,,,,,,,,,,,,,,,,,,,,,,,,,,,,,,,,,,,,,,,,,,
603964,001,2022-11-20_23h52.45.461,Info_measure_main_exp,2022.2.2,MacIntel,59.99160118,,,,,,,,,,,,,,,,,,masks/mask_004.jpg,,,,,,,,,,,,,,,,,,,,,,,,,,,,,,,,,,,,,,,,,,,0,4,4,3,1,,,,,,,,,,,,,,,,,,,,,,,,,,,,,,,,,,,,,,,,,,,,,,
603964,001,2022-11-20_23h52.45.461,Info_measure_main_exp,2022.2.2,MacIntel,59.99160118,,,,,,,,,,,,,,,,,,masks/mask_003.jpg,,,,,,,,,,,,,,,,,,,,,,,,,,,,,,,,,,,,,,,,,,,,,,,,0,0,0,2,1,,,,,,,,,,,,,,,,,,,,,,,,,,,,,,,,,,,,,,,,,
603964,001,2022-11-20_23h52.45.461,Info_measure_main_exp,2022.2.2,MacIntel,59.99160118,,,,,,,,,,,,,,,,,,masks/mask_002.jpg,,,,,,,,,,,,,,,,,,,,,,,,,,,,,,,,,,,,,,,,,,,,,,,,0,1,1,1,1,,,,,,,,,,,,,,,,,,,,,,,,,,,,,,,,,,,,,,,,,
603964,001,2022-11-20_23h52.45.461,Info_measure_main_exp,2022.2.2,MacIntel,59.99160118,,,,,,,,,,,,,,,,,,masks/mask_001.jpg,,,,,,,,,,,,,,,,,,,,,,,,,,,,,,,,,,,,,,,,,,,,,,,,0,2,2,0,1,,,,,,,,,,,,,,,,,,,,,,,,,,,,,,,,,,,,,,,,,
603964,001,2022-11-20_23h52.45.461,Info_measure_main_exp,2022.2.2,MacIntel,59.99160118,,,,,,,,,,,,,,,,,,masks/mask_005.jpg,,,,,,,,,,,,,,,,,,,,,,,,,,,,,,,,,,,,,,,,,,,,,,,,0,3,3,4,1,,,,,,,,,,,,,,,,,,,,,,,,,,,,,,,,,,,,,,,,,
603964,001,2022-11-20_23h52.45.461,Info_measure_main_exp,2022.2.2,MacIntel,59.99160118,,,,,,,,,,,,,,,,,,masks/mask_004.jpg,,,,,,,,,,,,,,,,,,,,,,,,,,,,,,,,,,,,,,,,,,,,,,,,0,4,4,3,1,,,,,,,,,,,,,,,,,,,,,,,,,,,,,,,,,,,,,,,,,
603964,001,2022-11-20_23h52.45.461,Info_measure_main_exp,2022.2.2,MacIntel,59.99160118,,,,,,,,,,,,,,,,,,,,,,,,,,,,,,0,0.6009,1,,,,,,,,,,,,0,131,5,5,2214,2214,absent_patch/patch0002214.jpg,absent_patch/patch0002214.jpg,,,,,,,,,,,,,,,,,,,,-0.031363186,0.138961758,1,0,0,response7disk,8,0.000628933,0.002827148,1,0,0,center_square,0,7,7,115,1,,,,,,,,,,,,,,,,,,,,,,,
603964,001,2022-11-20_23h52.45.461,Info_measure_main_exp,2022.2.2,MacIntel,59.99160118,,,,,,,,,,,,,,,,,,masks/mask_004.jpg,,,,,,,,,,,,,,,,,,,,,,,,,,,,,,,,,,,,,,,,,,,0,0,0,3,1,,,,,,,,,,,,,,,,,,,,,,,,,,,,,,,,,,,,,,,,,,,,,,
603964,001,2022-11-20_23h52.45.461,Info_measure_main_exp,2022.2.2,MacIntel,59.99160118,,,,,,,,,,,,,,,,,,masks/mask_003.jpg,,,,,,,,,,,,,,,,,,,,,,,,,,,,,,,,,,,,,,,,,,,0,1,1,2,1,,,,,,,,,,,,,,,,,,,,,,,,,,,,,,,,,,,,,,,,,,,,,,
603964,001,2022-11-20_23h52.45.461,Info_measure_main_exp,2022.2.2,MacIntel,59.99160118,,,,,,,,,,,,,,,,,,masks/mask_001.jpg,,,,,,,,,,,,,,,,,,,,,,,,,,,,,,,,,,,,,,,,,,,0,2,2,0,1,,,,,,,,,,,,,,,,,,,,,,,,,,,,,,,,,,,,,,,,,,,,,,
603964,001,2022-11-20_23h52.45.461,Info_measure_main_exp,2022.2.2,MacIntel,59.99160118,,,,,,,,,,,,,,,,,,masks/mask_005.jpg,,,,,,,,,,,,,,,,,,,,,,,,,,,,,,,,,,,,,,,,,,,0,3,3,4,1,,,,,,,,,,,,,,,,,,,,,,,,,,,,,,,,,,,,,,,,,,,,,,
603964,001,2022-11-20_23h52.45.461,Info_measure_main_exp,2022.2.2,MacIntel,59.99160118,,,,,,,,,,,,,,,,,,masks/mask_002.jpg,,,,,,,,,,,,,,,,,,,,,,,,,,,,,,,,,,,,,,,,,,,0,4,4,1,1,,,,,,,,,,,,,,,,,,,,,,,,,,,,,,,,,,,,,,,,,,,,,,
603964,001,2022-11-20_23h52.45.461,Info_measure_main_exp,2022.2.2,MacIntel,59.99160118,,,,,,,,,,,,,,,,,,masks/mask_002.jpg,,,,,,,,,,,,,,,,,,,,,,,,,,,,,,,,,,,,,,,,,,,,,,,,0,0,0,1,1,,,,,,,,,,,,,,,,,,,,,,,,,,,,,,,,,,,,,,,,,
603964,001,2022-11-20_23h52.45.461,Info_measure_main_exp,2022.2.2,MacIntel,59.99160118,,,,,,,,,,,,,,,,,,masks/mask_001.jpg,,,,,,,,,,,,,,,,,,,,,,,,,,,,,,,,,,,,,,,,,,,,,,,,0,1,1,0,1,,,,,,,,,,,,,,,,,,,,,,,,,,,,,,,,,,,,,,,,,
603964,001,2022-11-20_23h52.45.461,Info_measure_main_exp,2022.2.2,MacIntel,59.99160118,,,,,,,,,,,,,,,,,,masks/mask_004.jpg,,,,,,,,,,,,,,,,,,,,,,,,,,,,,,,,,,,,,,,,,,,,,,,,0,2,2,3,1,,,,,,,,,,,,,,,,,,,,,,,,,,,,,,,,,,,,,,,,,
603964,001,2022-11-20_23h52.45.461,Info_measure_main_exp,2022.2.2,MacIntel,59.99160118,,,,,,,,,,,,,,,,,,masks/mask_005.jpg,,,,,,,,,,,,,,,,,,,,,,,,,,,,,,,,,,,,,,,,,,,,,,,,0,3,3,4,1,,,,,,,,,,,,,,,,,,,,,,,,,,,,,,,,,,,,,,,,,
603964,001,2022-11-20_23h52.45.461,Info_measure_main_exp,2022.2.2,MacIntel,59.99160118,,,,,,,,,,,,,,,,,,masks/mask_003.jpg,,,,,,,,,,,,,,,,,,,,,,,,,,,,,,,,,,,,,,,,,,,,,,,,0,4,4,2,1,,,,,,,,,,,,,,,,,,,,,,,,,,,,,,,,,,,,,,,,,
603964,001,2022-11-20_23h52.45.461,Info_measure_main_exp,2022.2.2,MacIntel,59.99160118,,,,,,,,,,,,,,,,,,,,,,,,,,,,,,4,2.1512,1,,,,,,,,,,,,1,131,5,5,1,2154,present_patch/cong_131_5_a.jpg,absent_patch/patch0002154.jpg,,,,,,,,,,,,,,,,,,,,0.032792087,-0.121731567,1,0,0,response3disk,9,-0.001609226,0.000725776,1,0,0,center_square,0,8,8,87,1,,,,,,,,,,,,,,,,,,,,,,,
603964,001,2022-11-20_23h52.45.461,Info_measure_main_exp,2022.2.2,MacIntel,59.99160118,,,,,,,,,,,,,,,,,,masks/mask_001.jpg,,,,,,,,,,,,,,,,,,,,,,,,,,,,,,,,,,,,,,,,,,,0,0,0,0,1,,,,,,,,,,,,,,,,,,,,,,,,,,,,,,,,,,,,,,,,,,,,,,
603964,001,2022-11-20_23h52.45.461,Info_measure_main_exp,2022.2.2,MacIntel,59.99160118,,,,,,,,,,,,,,,,,,masks/mask_002.jpg,,,,,,,,,,,,,,,,,,,,,,,,,,,,,,,,,,,,,,,,,,,0,1,1,1,1,,,,,,,,,,,,,,,,,,,,,,,,,,,,,,,,,,,,,,,,,,,,,,
603964,001,2022-11-20_23h52.45.461,Info_measure_main_exp,2022.2.2,MacIntel,59.99160118,,,,,,,,,,,,,,,,,,masks/mask_004.jpg,,,,,,,,,,,,,,,,,,,,,,,,,,,,,,,,,,,,,,,,,,,0,2,2,3,1,,,,,,,,,,,,,,,,,,,,,,,,,,,,,,,,,,,,,,,,,,,,,,
603964,001,2022-11-20_23h52.45.461,Info_measure_main_exp,2022.2.2,MacIntel,59.99160118,,,,,,,,,,,,,,,,,,masks/mask_005.jpg,,,,,,,,,,,,,,,,,,,,,,,,,,,,,,,,,,,,,,,,,,,0,3,3,4,1,,,,,,,,,,,,,,,,,,,,,,,,,,,,,,,,,,,,,,,,,,,,,,
603964,001,2022-11-20_23h52.45.461,Info_measure_main_exp,2022.2.2,MacIntel,59.99160118,,,,,,,,,,,,,,,,,,masks/mask_003.jpg,,,,,,,,,,,,,,,,,,,,,,,,,,,,,,,,,,,,,,,,,,,0,4,4,2,1,,,,,,,,,,,,,,,,,,,,,,,,,,,,,,,,,,,,,,,,,,,,,,
603964,001,2022-11-20_23h52.45.461,Info_measure_main_exp,2022.2.2,MacIntel,59.99160118,,,,,,,,,,,,,,,,,,masks/mask_002.jpg,,,,,,,,,,,,,,,,,,,,,,,,,,,,,,,,,,,,,,,,,,,,,,,,0,0,0,1,1,,,,,,,,,,,,,,,,,,,,,,,,,,,,,,,,,,,,,,,,,
603964,001,2022-11-20_23h52.45.461,Info_measure_main_exp,2022.2.2,MacIntel,59.99160118,,,,,,,,,,,,,,,,,,masks/mask_001.jpg,,,,,,,,,,,,,,,,,,,,,,,,,,,,,,,,,,,,,,,,,,,,,,,,0,1,1,0,1,,,,,,,,,,,,,,,,,,,,,,,,,,,,,,,,,,,,,,,,,
603964,001,2022-11-20_23h52.45.461,Info_measure_main_exp,2022.2.2,MacIntel,59.99160118,,,,,,,,,,,,,,,,,,masks/mask_005.jpg,,,,,,,,,,,,,,,,,,,,,,,,,,,,,,,,,,,,,,,,,,,,,,,,0,2,2,4,1,,,,,,,,,,,,,,,,,,,,,,,,,,,,,,,,,,,,,,,,,
603964,001,2022-11-20_23h52.45.461,Info_measure_main_exp,2022.2.2,MacIntel,59.99160118,,,,,,,,,,,,,,,,,,masks/mask_004.jpg,,,,,,,,,,,,,,,,,,,,,,,,,,,,,,,,,,,,,,,,,,,,,,,,0,3,3,3,1,,,,,,,,,,,,,,,,,,,,,,,,,,,,,,,,,,,,,,,,,
603964,001,2022-11-20_23h52.45.461,Info_measure_main_exp,2022.2.2,MacIntel,59.99160118,,,,,,,,,,,,,,,,,,masks/mask_003.jpg,,,,,,,,,,,,,,,,,,,,,,,,,,,,,,,,,,,,,,,,,,,,,,,,0,4,4,2,1,,,,,,,,,,,,,,,,,,,,,,,,,,,,,,,,,,,,,,,,,
603964,001,2022-11-20_23h52.45.461,Info_measure_main_exp,2022.2.2,MacIntel,59.99160118,,,,,,,,,,,,,,,,,,,,,,,,,,,,,,2,1.9166,1,,,,,,,,,,,,0,131,5,5,2178,2142,absent_patch/patch0002178.jpg,absent_patch/patch0002142.jpg,,,,,,,,,,,,,,,,,,,,-0.124092136,-0.068418579,1,0,0,response5disk,10,0.006766154,-0.001218906,1,0,0,center_square,0,9,9,41,1,,,,,,,,,,,,,,,,,,,,,,,
603964,001,2022-11-20_23h52.45.461,Info_measure_main_exp,2022.2.2,MacIntel,59.99160118,,,,,,,,,,,,,,,,,,masks/mask_002.jpg,,,,,,,,,,,,,,,,,,,,,,,,,,,,,,,,,,,,,,,,,,,0,0,0,1,1,,,,,,,,,,,,,,,,,,,,,,,,,,,,,,,,,,,,,,,,,,,,,,
603964,001,2022-11-20_23h52.45.461,Info_measure_main_exp,2022.2.2,MacIntel,59.99160118,,,,,,,,,,,,,,,,,,masks/mask_004.jpg,,,,,,,,,,,,,,,,,,,,,,,,,,,,,,,,,,,,,,,,,,,0,1,1,3,1,,,,,,,,,,,,,,,,,,,,,,,,,,,,,,,,,,,,,,,,,,,,,,
603964,001,2022-11-20_23h52.45.461,Info_measure_main_exp,2022.2.2,MacIntel,59.99160118,,,,,,,,,,,,,,,,,,masks/mask_005.jpg,,,,,,,,,,,,,,,,,,,,,,,,,,,,,,,,,,,,,,,,,,,0,2,2,4,1,,,,,,,,,,,,,,,,,,,,,,,,,,,,,,,,,,,,,,,,,,,,,,
603964,001,2022-11-20_23h52.45.461,Info_measure_main_exp,2022.2.2,MacIntel,59.99160118,,,,,,,,,,,,,,,,,,masks/mask_003.jpg,,,,,,,,,,,,,,,,,,,,,,,,,,,,,,,,,,,,,,,,,,,0,3,3,2,1,,,,,,,,,,,,,,,,,,,,,,,,,,,,,,,,,,,,,,,,,,,,,,
603964,001,2022-11-20_23h52.45.461,Info_measure_main_exp,2022.2.2,MacIntel,59.99160118,,,,,,,,,,,,,,,,,,masks/mask_001.jpg,,,,,,,,,,,,,,,,,,,,,,,,,,,,,,,,,,,,,,,,,,,0,4,4,0,1,,,,,,,,,,,,,,,,,,,,,,,,,,,,,,,,,,,,,,,,,,,,,,
603964,001,2022-11-20_23h52.45.461,Info_measure_main_exp,2022.2.2,MacIntel,59.99160118,,,,,,,,,,,,,,,,,,masks/mask_001.jpg,,,,,,,,,,,,,,,,,,,,,,,,,,,,,,,,,,,,,,,,,,,,,,,,0,0,0,0,1,,,,,,,,,,,,,,,,,,,,,,,,,,,,,,,,,,,,,,,,,
603964,001,2022-11-20_23h52.45.461,Info_measure_main_exp,2022.2.2,MacIntel,59.99160118,,,,,,,,,,,,,,,,,,masks/mask_005.jpg,,,,,,,,,,,,,,,,,,,,,,,,,,,,,,,,,,,,,,,,,,,,,,,,0,1,1,4,1,,,,,,,,,,,,,,,,,,,,,,,,,,,,,,,,,,,,,,,,,
603964,001,2022-11-20_23h52.45.461,Info_measure_main_exp,2022.2.2,MacIntel,59.99160118,,,,,,,,,,,,,,,,,,masks/mask_003.jpg,,,,,,,,,,,,,,,,,,,,,,,,,,,,,,,,,,,,,,,,,,,,,,,,0,2,2,2,1,,,,,,,,,,,,,,,,,,,,,,,,,,,,,,,,,,,,,,,,,
603964,001,2022-11-20_23h52.45.461,Info_measure_main_exp,2022.2.2,MacIntel,59.99160118,,,,,,,,,,,,,,,,,,masks/mask_004.jpg,,,,,,,,,,,,,,,,,,,,,,,,,,,,,,,,,,,,,,,,,,,,,,,,0,3,3,3,1,,,,,,,,,,,,,,,,,,,,,,,,,,,,,,,,,,,,,,,,,
603964,001,2022-11-20_23h52.45.461,Info_measure_main_exp,2022.2.2,MacIntel,59.99160118,,,,,,,,,,,,,,,,,,masks/mask_002.jpg,,,,,,,,,,,,,,,,,,,,,,,,,,,,,,,,,,,,,,,,,,,,,,,,0,4,4,1,1,,,,,,,,,,,,,,,,,,,,,,,,,,,,,,,,,,,,,,,,,
603964,001,2022-11-20_23h52.45.461,Info_measure_main_exp,2022.2.2,MacIntel,59.99160118,,,,,,,,,,,,,,,,,,,,,,,,,,,,,,4,1.5493,1,,,,,,,,,,,,0,131,5,5,2214,2178,absent_patch/patch0002214.jpg,absent_patch/patch0002178.jpg,,,,,,,,,,,,,,,,,,,,0.075316705,-0.120107693,1,0,0,response3disk,11,0.003687269,-0.002530992,1,0,0,center_square,0,10,10,62,1,,,,,,,,,,,,,,,,,,,,,,,
603964,001,2022-11-20_23h52.45.461,Info_measure_main_exp,2022.2.2,MacIntel,59.99160118,,,,,,,,,,,,,,,,,,masks/mask_005.jpg,,,,,,,,,,,,,,,,,,,,,,,,,,,,,,,,,,,,,,,,,,,0,0,0,4,1,,,,,,,,,,,,,,,,,,,,,,,,,,,,,,,,,,,,,,,,,,,,,,
603964,001,2022-11-20_23h52.45.461,Info_measure_main_exp,2022.2.2,MacIntel,59.99160118,,,,,,,,,,,,,,,,,,masks/mask_004.jpg,,,,,,,,,,,,,,,,,,,,,,,,,,,,,,,,,,,,,,,,,,,0,1,1,3,1,,,,,,,,,,,,,,,,,,,,,,,,,,,,,,,,,,,,,,,,,,,,,,
603964,001,2022-11-20_23h52.45.461,Info_measure_main_exp,2022.2.2,MacIntel,59.99160118,,,,,,,,,,,,,,,,,,masks/mask_003.jpg,,,,,,,,,,,,,,,,,,,,,,,,,,,,,,,,,,,,,,,,,,,0,2,2,2,1,,,,,,,,,,,,,,,,,,,,,,,,,,,,,,,,,,,,,,,,,,,,,,
603964,001,2022-11-20_23h52.45.461,Info_measure_main_exp,2022.2.2,MacIntel,59.99160118,,,,,,,,,,,,,,,,,,masks/mask_001.jpg,,,,,,,,,,,,,,,,,,,,,,,,,,,,,,,,,,,,,,,,,,,0,3,3,0,1,,,,,,,,,,,,,,,,,,,,,,,,,,,,,,,,,,,,,,,,,,,,,,
603964,001,2022-11-20_23h52.45.461,Info_measure_main_exp,2022.2.2,MacIntel,59.99160118,,,,,,,,,,,,,,,,,,masks/mask_002.jpg,,,,,,,,,,,,,,,,,,,,,,,,,,,,,,,,,,,,,,,,,,,0,4,4,1,1,,,,,,,,,,,,,,,,,,,,,,,,,,,,,,,,,,,,,,,,,,,,,,
603964,001,2022-11-20_23h52.45.461,Info_measure_main_exp,2022.2.2,MacIntel,59.99160118,,,,,,,,,,,,,,,,,,masks/mask_001.jpg,,,,,,,,,,,,,,,,,,,,,,,,,,,,,,,,,,,,,,,,,,,,,,,,0,0,0,0,1,,,,,,,,,,,,,,,,,,,,,,,,,,,,,,,,,,,,,,,,,
603964,001,2022-11-20_23h52.45.461,Info_measure_main_exp,2022.2.2,MacIntel,59.99160118,,,,,,,,,,,,,,,,,,masks/mask_005.jpg,,,,,,,,,,,,,,,,,,,,,,,,,,,,,,,,,,,,,,,,,,,,,,,,0,1,1,4,1,,,,,,,,,,,,,,,,,,,,,,,,,,,,,,,,,,,,,,,,,
603964,001,2022-11-20_23h52.45.461,Info_measure_main_exp,2022.2.2,MacIntel,59.99160118,,,,,,,,,,,,,,,,,,masks/mask_004.jpg,,,,,,,,,,,,,,,,,,,,,,,,,,,,,,,,,,,,,,,,,,,,,,,,0,2,2,3,1,,,,,,,,,,,,,,,,,,,,,,,,,,,,,,,,,,,,,,,,,
603964,001,2022-11-20_23h52.45.461,Info_measure_main_exp,2022.2.2,MacIntel,59.99160118,,,,,,,,,,,,,,,,,,masks/mask_003.jpg,,,,,,,,,,,,,,,,,,,,,,,,,,,,,,,,,,,,,,,,,,,,,,,,0,3,3,2,1,,,,,,,,,,,,,,,,,,,,,,,,,,,,,,,,,,,,,,,,,
603964,001,2022-11-20_23h52.45.461,Info_measure_main_exp,2022.2.2,MacIntel,59.99160118,,,,,,,,,,,,,,,,,,masks/mask_002.jpg,,,,,,,,,,,,,,,,,,,,,,,,,,,,,,,,,,,,,,,,,,,,,,,,0,4,4,1,1,,,,,,,,,,,,,,,,,,,,,,,,,,,,,,,,,,,,,,,,,
603964,001,2022-11-20_23h52.45.461,Info_measure_main_exp,2022.2.2,MacIntel,59.99160118,,,,,,,,,,,,,,,,,,,,,,,,,,,,,,0,0.6172,1,,,,,,,,,,,,0,131,5,5,1974,1974,absent_patch/patch0001974.jpg,absent_patch/patch0001974.jpg,,,,,,,,,,,,,,,,,,,,-0.031316393,0.145155809,1,0,0,response7disk,12,-0.009632026,0.01217509,1,0,0,center_square,0,11,11,113,1,,,,,,,,,,,,,,,,,,,,,,,
603964,001,2022-11-20_23h52.45.461,Info_measure_main_exp,2022.2.2,MacIntel,59.99160118,,,,,,,,,,,,,,,,,,masks/mask_005.jpg,,,,,,,,,,,,,,,,,,,,,,,,,,,,,,,,,,,,,,,,,,,0,0,0,4,1,,,,,,,,,,,,,,,,,,,,,,,,,,,,,,,,,,,,,,,,,,,,,,
603964,001,2022-11-20_23h52.45.461,Info_measure_main_exp,2022.2.2,MacIntel,59.99160118,,,,,,,,,,,,,,,,,,masks/mask_003.jpg,,,,,,,,,,,,,,,,,,,,,,,,,,,,,,,,,,,,,,,,,,,0,1,1,2,1,,,,,,,,,,,,,,,,,,,,,,,,,,,,,,,,,,,,,,,,,,,,,,
603964,001,2022-11-20_23h52.45.461,Info_measure_main_exp,2022.2.2,MacIntel,59.99160118,,,,,,,,,,,,,,,,,,masks/mask_001.jpg,,,,,,,,,,,,,,,,,,,,,,,,,,,,,,,,,,,,,,,,,,,0,2,2,0,1,,,,,,,,,,,,,,,,,,,,,,,,,,,,,,,,,,,,,,,,,,,,,,
603964,001,2022-11-20_23h52.45.461,Info_measure_main_exp,2022.2.2,MacIntel,59.99160118,,,,,,,,,,,,,,,,,,masks/mask_004.jpg,,,,,,,,,,,,,,,,,,,,,,,,,,,,,,,,,,,,,,,,,,,0,3,3,3,1,,,,,,,,,,,,,,,,,,,,,,,,,,,,,,,,,,,,,,,,,,,,,,
603964,001,2022-11-20_23h52.45.461,Info_measure_main_exp,2022.2.2,MacIntel,59.99160118,,,,,,,,,,,,,,,,,,masks/mask_002.jpg,,,,,,,,,,,,,,,,,,,,,,,,,,,,,,,,,,,,,,,,,,,0,4,4,1,1,,,,,,,,,,,,,,,,,,,,,,,,,,,,,,,,,,,,,,,,,,,,,,
603964,001,2022-11-20_23h52.45.461,Info_measure_main_exp,2022.2.2,MacIntel,59.99160118,,,,,,,,,,,,,,,,,,masks/mask_003.jpg,,,,,,,,,,,,,,,,,,,,,,,,,,,,,,,,,,,,,,,,,,,,,,,,0,0,0,2,1,,,,,,,,,,,,,,,,,,,,,,,,,,,,,,,,,,,,,,,,,
603964,001,2022-11-20_23h52.45.461,Info_measure_main_exp,2022.2.2,MacIntel,59.99160118,,,,,,,,,,,,,,,,,,masks/mask_005.jpg,,,,,,,,,,,,,,,,,,,,,,,,,,,,,,,,,,,,,,,,,,,,,,,,0,1,1,4,1,,,,,,,,,,,,,,,,,,,,,,,,,,,,,,,,,,,,,,,,,
603964,001,2022-11-20_23h52.45.461,Info_measure_main_exp,2022.2.2,MacIntel,59.99160118,,,,,,,,,,,,,,,,,,masks/mask_004.jpg,,,,,,,,,,,,,,,,,,,,,,,,,,,,,,,,,,,,,,,,,,,,,,,,0,2,2,3,1,,,,,,,,,,,,,,,,,,,,,,,,,,,,,,,,,,,,,,,,,
603964,001,2022-11-20_23h52.45.461,Info_measure_main_exp,2022.2.2,MacIntel,59.99160118,,,,,,,,,,,,,,,,,,masks/mask_002.jpg,,,,,,,,,,,,,,,,,,,,,,,,,,,,,,,,,,,,,,,,,,,,,,,,0,3,3,1,1,,,,,,,,,,,,,,,,,,,,,,,,,,,,,,,,,,,,,,,,,
603964,001,2022-11-20_23h52.45.461,Info_measure_main_exp,2022.2.2,MacIntel,59.99160118,,,,,,,,,,,,,,,,,,masks/mask_001.jpg,,,,,,,,,,,,,,,,,,,,,,,,,,,,,,,,,,,,,,,,,,,,,,,,0,4,4,0,1,,,,,,,,,,,,,,,,,,,,,,,,,,,,,,,,,,,,,,,,,
603964,001,2022-11-20_23h52.45.461,Info_measure_main_exp,2022.2.2,MacIntel,59.99160118,,,,,,,,,,,,,,,,,,,,,,,,,,,,,,4,1.7509,1,,,,,,,,,,,,0,131,5,5,1974,2250,absent_patch/patch0001974.jpg,absent_patch/patch0002250.jpg,,,,,,,,,,,,,,,,,,,,0.041531847,-0.129905056,1,0,0,response3disk,13,0.001129489,0.000570034,1,0,0,center_square,0,12,12,55,1,,,,,,,,,,,,,,,,,,,,,,,
603964,001,2022-11-20_23h52.45.461,Info_measure_main_exp,2022.2.2,MacIntel,59.99160118,,,,,,,,,,,,,,,,,,masks/mask_003.jpg,,,,,,,,,,,,,,,,,,,,,,,,,,,,,,,,,,,,,,,,,,,0,0,0,2,1,,,,,,,,,,,,,,,,,,,,,,,,,,,,,,,,,,,,,,,,,,,,,,
603964,001,2022-11-20_23h52.45.461,Info_measure_main_exp,2022.2.2,MacIntel,59.99160118,,,,,,,,,,,,,,,,,,masks/mask_002.jpg,,,,,,,,,,,,,,,,,,,,,,,,,,,,,,,,,,,,,,,,,,,0,1,1,1,1,,,,,,,,,,,,,,,,,,,,,,,,,,,,,,,,,,,,,,,,,,,,,,
603964,001,2022-11-20_23h52.45.461,Info_measure_main_exp,2022.2.2,MacIntel,59.99160118,,,,,,,,,,,,,,,,,,masks/mask_005.jpg,,,,,,,,,,,,,,,,,,,,,,,,,,,,,,,,,,,,,,,,,,,0,2,2,4,1,,,,,,,,,,,,,,,,,,,,,,,,,,,,,,,,,,,,,,,,,,,,,,
603964,001,2022-11-20_23h52.45.461,Info_measure_main_exp,2022.2.2,MacIntel,59.99160118,,,,,,,,,,,,,,,,,,masks/mask_004.jpg,,,,,,,,,,,,,,,,,,,,,,,,,,,,,,,,,,,,,,,,,,,0,3,3,3,1,,,,,,,,,,,,,,,,,,,,,,,,,,,,,,,,,,,,,,,,,,,,,,
603964,001,2022-11-20_23h52.45.461,Info_measure_main_exp,2022.2.2,MacIntel,59.99160118,,,,,,,,,,,,,,,,,,masks/mask_001.jpg,,,,,,,,,,,,,,,,,,,,,,,,,,,,,,,,,,,,,,,,,,,0,4,4,0,1,,,,,,,,,,,,,,,,,,,,,,,,,,,,,,,,,,,,,,,,,,,,,,
603964,001,2022-11-20_23h52.45.461,Info_measure_main_exp,2022.2.2,MacIntel,59.99160118,,,,,,,,,,,,,,,,,,masks/mask_002.jpg,,,,,,,,,,,,,,,,,,,,,,,,,,,,,,,,,,,,,,,,,,,,,,,,0,0,0,1,1,,,,,,,,,,,,,,,,,,,,,,,,,,,,,,,,,,,,,,,,,
603964,001,2022-11-20_23h52.45.461,Info_measure_main_exp,2022.2.2,MacIntel,59.99160118,,,,,,,,,,,,,,,,,,masks/mask_001.jpg,,,,,,,,,,,,,,,,,,,,,,,,,,,,,,,,,,,,,,,,,,,,,,,,0,1,1,0,1,,,,,,,,,,,,,,,,,,,,,,,,,,,,,,,,,,,,,,,,,
603964,001,2022-11-20_23h52.45.461,Info_measure_main_exp,2022.2.2,MacIntel,59.99160118,,,,,,,,,,,,,,,,,,masks/mask_003.jpg,,,,,,,,,,,,,,,,,,,,,,,,,,,,,,,,,,,,,,,,,,,,,,,,0,2,2,2,1,,,,,,,,,,,,,,,,,,,,,,,,,,,,,,,,,,,,,,,,,
603964,001,2022-11-20_23h52.45.461,Info_measure_main_exp,2022.2.2,MacIntel,59.99160118,,,,,,,,,,,,,,,,,,masks/mask_004.jpg,,,,,,,,,,,,,,,,,,,,,,,,,,,,,,,,,,,,,,,,,,,,,,,,0,3,3,3,1,,,,,,,,,,,,,,,,,,,,,,,,,,,,,,,,,,,,,,,,,
603964,001,2022-11-20_23h52.45.461,Info_measure_main_exp,2022.2.2,MacIntel,59.99160118,,,,,,,,,,,,,,,,,,masks/mask_005.jpg,,,,,,,,,,,,,,,,,,,,,,,,,,,,,,,,,,,,,,,,,,,,,,,,0,4,4,4,1,,,,,,,,,,,,,,,,,,,,,,,,,,,,,,,,,,,,,,,,,
603964,001,2022-11-20_23h52.45.461,Info_measure_main_exp,2022.2.2,MacIntel,59.99160118,,,,,,,,,,,,,,,,,,,,,,,,,,,,,,7,0.7664,1,,,,,,,,,,,,0,131,5,5,2178,2166,absent_patch/patch0002178.jpg,absent_patch/patch0002166.jpg,,,,,,,,,,,,,,,,,,,,0.071345825,0.142762451,1,0,0,response1disk,14,0.004043376,-0.00914527,1,0,0,center_square,0,13,13,72,1,,,,,,,,,,,,,,,,,,,,,,,
603964,001,2022-11-20_23h52.45.461,Info_measure_main_exp,2022.2.2,MacIntel,59.99160118,,,,,,,,,,,,,,,,,,masks/mask_004.jpg,,,,,,,,,,,,,,,,,,,,,,,,,,,,,,,,,,,,,,,,,,,0,0,0,3,1,,,,,,,,,,,,,,,,,,,,,,,,,,,,,,,,,,,,,,,,,,,,,,
603964,001,2022-11-20_23h52.45.461,Info_measure_main_exp,2022.2.2,MacIntel,59.99160118,,,,,,,,,,,,,,,,,,masks/mask_003.jpg,,,,,,,,,,,,,,,,,,,,,,,,,,,,,,,,,,,,,,,,,,,0,1,1,2,1,,,,,,,,,,,,,,,,,,,,,,,,,,,,,,,,,,,,,,,,,,,,,,
603964,001,2022-11-20_23h52.45.461,Info_measure_main_exp,2022.2.2,MacIntel,59.99160118,,,,,,,,,,,,,,,,,,masks/mask_001.jpg,,,,,,,,,,,,,,,,,,,,,,,,,,,,,,,,,,,,,,,,,,,0,2,2,0,1,,,,,,,,,,,,,,,,,,,,,,,,,,,,,,,,,,,,,,,,,,,,,,
603964,001,2022-11-20_23h52.45.461,Info_measure_main_exp,2022.2.2,MacIntel,59.99160118,,,,,,,,,,,,,,,,,,masks/mask_005.jpg,,,,,,,,,,,,,,,,,,,,,,,,,,,,,,,,,,,,,,,,,,,0,3,3,4,1,,,,,,,,,,,,,,,,,,,,,,,,,,,,,,,,,,,,,,,,,,,,,,
603964,001,2022-11-20_23h52.45.461,Info_measure_main_exp,2022.2.2,MacIntel,59.99160118,,,,,,,,,,,,,,,,,,masks/mask_002.jpg,,,,,,,,,,,,,,,,,,,,,,,,,,,,,,,,,,,,,,,,,,,0,4,4,1,1,,,,,,,,,,,,,,,,,,,,,,,,,,,,,,,,,,,,,,,,,,,,,,
603964,001,2022-11-20_23h52.45.461,Info_measure_main_exp,2022.2.2,MacIntel,59.99160118,,,,,,,,,,,,,,,,,,masks/mask_001.jpg,,,,,,,,,,,,,,,,,,,,,,,,,,,,,,,,,,,,,,,,,,,,,,,,0,0,0,0,1,,,,,,,,,,,,,,,,,,,,,,,,,,,,,,,,,,,,,,,,,
603964,001,2022-11-20_23h52.45.461,Info_measure_main_exp,2022.2.2,MacIntel,59.99160118,,,,,,,,,,,,,,,,,,masks/mask_004.jpg,,,,,,,,,,,,,,,,,,,,,,,,,,,,,,,,,,,,,,,,,,,,,,,,0,1,1,3,1,,,,,,,,,,,,,,,,,,,,,,,,,,,,,,,,,,,,,,,,,
603964,001,2022-11-20_23h52.45.461,Info_measure_main_exp,2022.2.2,MacIntel,59.99160118,,,,,,,,,,,,,,,,,,masks/mask_002.jpg,,,,,,,,,,,,,,,,,,,,,,,,,,,,,,,,,,,,,,,,,,,,,,,,0,2,2,1,1,,,,,,,,,,,,,,,,,,,,,,,,,,,,,,,,,,,,,,,,,
603964,001,2022-11-20_23h52.45.461,Info_measure_main_exp,2022.2.2,MacIntel,59.99160118,,,,,,,,,,,,,,,,,,masks/mask_003.jpg,,,,,,,,,,,,,,,,,,,,,,,,,,,,,,,,,,,,,,,,,,,,,,,,0,3,3,2,1,,,,,,,,,,,,,,,,,,,,,,,,,,,,,,,,,,,,,,,,,
603964,001,2022-11-20_23h52.45.461,Info_measure_main_exp,2022.2.2,MacIntel,59.99160118,,,,,,,,,,,,,,,,,,masks/mask_005.jpg,,,,,,,,,,,,,,,,,,,,,,,,,,,,,,,,,,,,,,,,,,,,,,,,0,4,4,4,1,,,,,,,,,,,,,,,,,,,,,,,,,,,,,,,,,,,,,,,,,
603964,001,2022-11-20_23h52.45.461,Info_measure_main_exp,2022.2.2,MacIntel,59.99160118,,,,,,,,,,,,,,,,,,,,,,,,,,,,,,7,1.5674,1,,,,,,,,,,,,0,131,5,5,2238,2166,absent_patch/patch0002238.jpg,absent_patch/patch0002166.jpg,,,,,,,,,,,,,,,,,,,,0.049423353,0.135474345,1,0,0,response1disk,15,-0.001864692,-0.001909248,1,0,0,center_square,0,14,14,118,1,,,,,,,,,,,,,,,,,,,,,,,
603964,001,2022-11-20_23h52.45.461,Info_measure_main_exp,2022.2.2,MacIntel,59.99160118,,,,,,,,,,,,,,,,,,masks/mask_004.jpg,,,,,,,,,,,,,,,,,,,,,,,,,,,,,,,,,,,,,,,,,,,0,0,0,3,1,,,,,,,,,,,,,,,,,,,,,,,,,,,,,,,,,,,,,,,,,,,,,,
603964,001,2022-11-20_23h52.45.461,Info_measure_main_exp,2022.2.2,MacIntel,59.99160118,,,,,,,,,,,,,,,,,,masks/mask_001.jpg,,,,,,,,,,,,,,,,,,,,,,,,,,,,,,,,,,,,,,,,,,,0,1,1,0,1,,,,,,,,,,,,,,,,,,,,,,,,,,,,,,,,,,,,,,,,,,,,,,
603964,001,2022-11-20_23h52.45.461,Info_measure_main_exp,2022.2.2,MacIntel,59.99160118,,,,,,,,,,,,,,,,,,masks/mask_003.jpg,,,,,,,,,,,,,,,,,,,,,,,,,,,,,,,,,,,,,,,,,,,0,2,2,2,1,,,,,,,,,,,,,,,,,,,,,,,,,,,,,,,,,,,,,,,,,,,,,,
603964,001,2022-11-20_23h52.45.461,Info_measure_main_exp,2022.2.2,MacIntel,59.99160118,,,,,,,,,,,,,,,,,,masks/mask_005.jpg,,,,,,,,,,,,,,,,,,,,,,,,,,,,,,,,,,,,,,,,,,,0,3,3,4,1,,,,,,,,,,,,,,,,,,,,,,,,,,,,,,,,,,,,,,,,,,,,,,
603964,001,2022-11-20_23h52.45.461,Info_measure_main_exp,2022.2.2,MacIntel,59.99160118,,,,,,,,,,,,,,,,,,masks/mask_002.jpg,,,,,,,,,,,,,,,,,,,,,,,,,,,,,,,,,,,,,,,,,,,0,4,4,1,1,,,,,,,,,,,,,,,,,,,,,,,,,,,,,,,,,,,,,,,,,,,,,,
603964,001,2022-11-20_23h52.45.461,Info_measure_main_exp,2022.2.2,MacIntel,59.99160118,,,,,,,,,,,,,,,,,,masks/mask_002.jpg,,,,,,,,,,,,,,,,,,,,,,,,,,,,,,,,,,,,,,,,,,,,,,,,0,0,0,1,1,,,,,,,,,,,,,,,,,,,,,,,,,,,,,,,,,,,,,,,,,
603964,001,2022-11-20_23h52.45.461,Info_measure_main_exp,2022.2.2,MacIntel,59.99160118,,,,,,,,,,,,,,,,,,masks/mask_003.jpg,,,,,,,,,,,,,,,,,,,,,,,,,,,,,,,,,,,,,,,,,,,,,,,,0,1,1,2,1,,,,,,,,,,,,,,,,,,,,,,,,,,,,,,,,,,,,,,,,,
603964,001,2022-11-20_23h52.45.461,Info_measure_main_exp,2022.2.2,MacIntel,59.99160118,,,,,,,,,,,,,,,,,,masks/mask_005.jpg,,,,,,,,,,,,,,,,,,,,,,,,,,,,,,,,,,,,,,,,,,,,,,,,0,2,2,4,1,,,,,,,,,,,,,,,,,,,,,,,,,,,,,,,,,,,,,,,,,
603964,001,2022-11-20_23h52.45.461,Info_measure_main_exp,2022.2.2,MacIntel,59.99160118,,,,,,,,,,,,,,,,,,masks/mask_004.jpg,,,,,,,,,,,,,,,,,,,,,,,,,,,,,,,,,,,,,,,,,,,,,,,,0,3,3,3,1,,,,,,,,,,,,,,,,,,,,,,,,,,,,,,,,,,,,,,,,,
603964,001,2022-11-20_23h52.45.461,Info_measure_main_exp,2022.2.2,MacIntel,59.99160118,,,,,,,,,,,,,,,,,,masks/mask_001.jpg,,,,,,,,,,,,,,,,,,,,,,,,,,,,,,,,,,,,,,,,,,,,,,,,0,4,4,0,1,,,,,,,,,,,,,,,,,,,,,,,,,,,,,,,,,,,,,,,,,
603964,001,2022-11-20_23h52.45.461,Info_measure_main_exp,2022.2.2,MacIntel,59.99160118,,,,,,,,,,,,,,,,,,,,,,,,,,,,,,7,0.4834,1,,,,,,,,,,,,0,131,5,5,2274,2142,absent_patch/patch0002274.jpg,absent_patch/patch0002142.jpg,,,,,,,,,,,,,,,,,,,,0.05906779,0.102070346,1,0,0,response1disk,16,0.002656657,-0.008289964,1,0,0,center_square,0,15,15,75,1,,,,,,,,,,,,,,,,,,,,,,,
603964,001,2022-11-20_23h52.45.461,Info_measure_main_exp,2022.2.2,MacIntel,59.99160118,,,,,,,,,,,,,,,,,,masks/mask_001.jpg,,,,,,,,,,,,,,,,,,,,,,,,,,,,,,,,,,,,,,,,,,,0,0,0,0,1,,,,,,,,,,,,,,,,,,,,,,,,,,,,,,,,,,,,,,,,,,,,,,
603964,001,2022-11-20_23h52.45.461,Info_measure_main_exp,2022.2.2,MacIntel,59.99160118,,,,,,,,,,,,,,,,,,masks/mask_005.jpg,,,,,,,,,,,,,,,,,,,,,,,,,,,,,,,,,,,,,,,,,,,0,1,1,4,1,,,,,,,,,,,,,,,,,,,,,,,,,,,,,,,,,,,,,,,,,,,,,,
603964,001,2022-11-20_23h52.45.461,Info_measure_main_exp,2022.2.2,MacIntel,59.99160118,,,,,,,,,,,,,,,,,,masks/mask_004.jpg,,,,,,,,,,,,,,,,,,,,,,,,,,,,,,,,,,,,,,,,,,,0,2,2,3,1,,,,,,,,,,,,,,,,,,,,,,,,,,,,,,,,,,,,,,,,,,,,,,
603964,001,2022-11-20_23h52.45.461,Info_measure_main_exp,2022.2.2,MacIntel,59.99160118,,,,,,,,,,,,,,,,,,masks/mask_002.jpg,,,,,,,,,,,,,,,,,,,,,,,,,,,,,,,,,,,,,,,,,,,0,3,3,1,1,,,,,,,,,,,,,,,,,,,,,,,,,,,,,,,,,,,,,,,,,,,,,,
603964,001,2022-11-20_23h52.45.461,Info_measure_main_exp,2022.2.2,MacIntel,59.99160118,,,,,,,,,,,,,,,,,,masks/mask_003.jpg,,,,,,,,,,,,,,,,,,,,,,,,,,,,,,,,,,,,,,,,,,,0,4,4,2,1,,,,,,,,,,,,,,,,,,,,,,,,,,,,,,,,,,,,,,,,,,,,,,
603964,001,2022-11-20_23h52.45.461,Info_measure_main_exp,2022.2.2,MacIntel,59.99160118,,,,,,,,,,,,,,,,,,masks/mask_004.jpg,,,,,,,,,,,,,,,,,,,,,,,,,,,,,,,,,,,,,,,,,,,,,,,,0,0,0,3,1,,,,,,,,,,,,,,,,,,,,,,,,,,,,,,,,,,,,,,,,,
603964,001,2022-11-20_23h52.45.461,Info_measure_main_exp,2022.2.2,MacIntel,59.99160118,,,,,,,,,,,,,,,,,,masks/mask_005.jpg,,,,,,,,,,,,,,,,,,,,,,,,,,,,,,,,,,,,,,,,,,,,,,,,0,1,1,4,1,,,,,,,,,,,,,,,,,,,,,,,,,,,,,,,,,,,,,,,,,
603964,001,2022-11-20_23h52.45.461,Info_measure_main_exp,2022.2.2,MacIntel,59.99160118,,,,,,,,,,,,,,,,,,masks/mask_001.jpg,,,,,,,,,,,,,,,,,,,,,,,,,,,,,,,,,,,,,,,,,,,,,,,,0,2,2,0,1,,,,,,,,,,,,,,,,,,,,,,,,,,,,,,,,,,,,,,,,,
603964,001,2022-11-20_23h52.45.461,Info_measure_main_exp,2022.2.2,MacIntel,59.99160118,,,,,,,,,,,,,,,,,,masks/mask_002.jpg,,,,,,,,,,,,,,,,,,,,,,,,,,,,,,,,,,,,,,,,,,,,,,,,0,3,3,1,1,,,,,,,,,,,,,,,,,,,,,,,,,,,,,,,,,,,,,,,,,
603964,001,2022-11-20_23h52.45.461,Info_measure_main_exp,2022.2.2,MacIntel,59.99160118,,,,,,,,,,,,,,,,,,masks/mask_003.jpg,,,,,,,,,,,,,,,,,,,,,,,,,,,,,,,,,,,,,,,,,,,,,,,,0,4,4,2,1,,,,,,,,,,,,,,,,,,,,,,,,,,,,,,,,,,,,,,,,,
603964,001,2022-11-20_23h52.45.461,Info_measure_main_exp,2022.2.2,MacIntel,59.99160118,,,,,,,,,,,,,,,,,,,,,,,,,,,,,,7,0.534,1,,,,,,,,,,,,0,131,5,5,2190,2238,absent_patch/patch0002190.jpg,absent_patch/patch0002238.jpg,,,,,,,,,,,,,,,,,,,,0.055586209,0.14142395,1,0,0,response1disk,17,0.005882975,0.001871338,1,0,0,center_square,0,16,16,53,1,,,,,,,,,,,,,,,,,,,,,,,
603964,001,2022-11-20_23h52.45.461,Info_measure_main_exp,2022.2.2,MacIntel,59.99160118,,,,,,,,,,,,,,,,,,masks/mask_001.jpg,,,,,,,,,,,,,,,,,,,,,,,,,,,,,,,,,,,,,,,,,,,0,0,0,0,1,,,,,,,,,,,,,,,,,,,,,,,,,,,,,,,,,,,,,,,,,,,,,,
603964,001,2022-11-20_23h52.45.461,Info_measure_main_exp,2022.2.2,MacIntel,59.99160118,,,,,,,,,,,,,,,,,,masks/mask_005.jpg,,,,,,,,,,,,,,,,,,,,,,,,,,,,,,,,,,,,,,,,,,,0,1,1,4,1,,,,,,,,,,,,,,,,,,,,,,,,,,,,,,,,,,,,,,,,,,,,,,
603964,001,2022-11-20_23h52.45.461,Info_measure_main_exp,2022.2.2,MacIntel,59.99160118,,,,,,,,,,,,,,,,,,masks/mask_002.jpg,,,,,,,,,,,,,,,,,,,,,,,,,,,,,,,,,,,,,,,,,,,0,2,2,1,1,,,,,,,,,,,,,,,,,,,,,,,,,,,,,,,,,,,,,,,,,,,,,,
603964,001,2022-11-20_23h52.45.461,Info_measure_main_exp,2022.2.2,MacIntel,59.99160118,,,,,,,,,,,,,,,,,,masks/mask_004.jpg,,,,,,,,,,,,,,,,,,,,,,,,,,,,,,,,,,,,,,,,,,,0,3,3,3,1,,,,,,,,,,,,,,,,,,,,,,,,,,,,,,,,,,,,,,,,,,,,,,
603964,001,2022-11-20_23h52.45.461,Info_measure_main_exp,2022.2.2,MacIntel,59.99160118,,,,,,,,,,,,,,,,,,masks/mask_003.jpg,,,,,,,,,,,,,,,,,,,,,,,,,,,,,,,,,,,,,,,,,,,0,4,4,2,1,,,,,,,,,,,,,,,,,,,,,,,,,,,,,,,,,,,,,,,,,,,,,,
603964,001,2022-11-20_23h52.45.461,Info_measure_main_exp,2022.2.2,MacIntel,59.99160118,,,,,,,,,,,,,,,,,,masks/mask_002.jpg,,,,,,,,,,,,,,,,,,,,,,,,,,,,,,,,,,,,,,,,,,,,,,,,0,0,0,1,1,,,,,,,,,,,,,,,,,,,,,,,,,,,,,,,,,,,,,,,,,
603964,001,2022-11-20_23h52.45.461,Info_measure_main_exp,2022.2.2,MacIntel,59.99160118,,,,,,,,,,,,,,,,,,masks/mask_005.jpg,,,,,,,,,,,,,,,,,,,,,,,,,,,,,,,,,,,,,,,,,,,,,,,,0,1,1,4,1,,,,,,,,,,,,,,,,,,,,,,,,,,,,,,,,,,,,,,,,,
603964,001,2022-11-20_23h52.45.461,Info_measure_main_exp,2022.2.2,MacIntel,59.99160118,,,,,,,,,,,,,,,,,,masks/mask_001.jpg,,,,,,,,,,,,,,,,,,,,,,,,,,,,,,,,,,,,,,,,,,,,,,,,0,2,2,0,1,,,,,,,,,,,,,,,,,,,,,,,,,,,,,,,,,,,,,,,,,
603964,001,2022-11-20_23h52.45.461,Info_measure_main_exp,2022.2.2,MacIntel,59.99160118,,,,,,,,,,,,,,,,,,masks/mask_004.jpg,,,,,,,,,,,,,,,,,,,,,,,,,,,,,,,,,,,,,,,,,,,,,,,,0,3,3,3,1,,,,,,,,,,,,,,,,,,,,,,,,,,,,,,,,,,,,,,,,,
603964,001,2022-11-20_23h52.45.461,Info_measure_main_exp,2022.2.2,MacIntel,59.99160118,,,,,,,,,,,,,,,,,,masks/mask_003.jpg,,,,,,,,,,,,,,,,,,,,,,,,,,,,,,,,,,,,,,,,,,,,,,,,0,4,4,2,1,,,,,,,,,,,,,,,,,,,,,,,,,,,,,,,,,,,,,,,,,
603964,001,2022-11-20_23h52.45.461,Info_measure_main_exp,2022.2.2,MacIntel,59.99160118,,,,,,,,,,,,,,,,,,,,,,,,,,,,,,5,1.3503,1,,,,,,,,,,,,0,131,5,5,2298,2214,absent_patch/patch0002298.jpg,absent_patch/patch0002214.jpg,,,,,,,,,,,,,,,,,,,,0.155992635,-0.057153592,1,0,0,response3disk,18,0.000681288,0.008709785,1,0,0,center_square,0,17,17,99,1,,,,,,,,,,,,,,,,,,,,,,,
603964,001,2022-11-20_23h52.45.461,Info_measure_main_exp,2022.2.2,MacIntel,59.99160118,,,,,,,,,,,,,,,,,,masks/mask_003.jpg,,,,,,,,,,,,,,,,,,,,,,,,,,,,,,,,,,,,,,,,,,,0,0,0,2,1,,,,,,,,,,,,,,,,,,,,,,,,,,,,,,,,,,,,,,,,,,,,,,
603964,001,2022-11-20_23h52.45.461,Info_measure_main_exp,2022.2.2,MacIntel,59.99160118,,,,,,,,,,,,,,,,,,masks/mask_002.jpg,,,,,,,,,,,,,,,,,,,,,,,,,,,,,,,,,,,,,,,,,,,0,1,1,1,1,,,,,,,,,,,,,,,,,,,,,,,,,,,,,,,,,,,,,,,,,,,,,,
603964,001,2022-11-20_23h52.45.461,Info_measure_main_exp,2022.2.2,MacIntel,59.99160118,,,,,,,,,,,,,,,,,,masks/mask_001.jpg,,,,,,,,,,,,,,,,,,,,,,,,,,,,,,,,,,,,,,,,,,,0,2,2,0,1,,,,,,,,,,,,,,,,,,,,,,,,,,,,,,,,,,,,,,,,,,,,,,
603964,001,2022-11-20_23h52.45.461,Info_measure_main_exp,2022.2.2,MacIntel,59.99160118,,,,,,,,,,,,,,,,,,masks/mask_005.jpg,,,,,,,,,,,,,,,,,,,,,,,,,,,,,,,,,,,,,,,,,,,0,3,3,4,1,,,,,,,,,,,,,,,,,,,,,,,,,,,,,,,,,,,,,,,,,,,,,,
603964,001,2022-11-20_23h52.45.461,Info_measure_main_exp,2022.2.2,MacIntel,59.99160118,,,,,,,,,,,,,,,,,,masks/mask_004.jpg,,,,,,,,,,,,,,,,,,,,,,,,,,,,,,,,,,,,,,,,,,,0,4,4,3,1,,,,,,,,,,,,,,,,,,,,,,,,,,,,,,,,,,,,,,,,,,,,,,
603964,001,2022-11-20_23h52.45.461,Info_measure_main_exp,2022.2.2,MacIntel,59.99160118,,,,,,,,,,,,,,,,,,masks/mask_001.jpg,,,,,,,,,,,,,,,,,,,,,,,,,,,,,,,,,,,,,,,,,,,,,,,,0,0,0,0,1,,,,,,,,,,,,,,,,,,,,,,,,,,,,,,,,,,,,,,,,,
603964,001,2022-11-20_23h52.45.461,Info_measure_main_exp,2022.2.2,MacIntel,59.99160118,,,,,,,,,,,,,,,,,,masks/mask_002.jpg,,,,,,,,,,,,,,,,,,,,,,,,,,,,,,,,,,,,,,,,,,,,,,,,0,1,1,1,1,,,,,,,,,,,,,,,,,,,,,,,,,,,,,,,,,,,,,,,,,
603964,001,2022-11-20_23h52.45.461,Info_measure_main_exp,2022.2.2,MacIntel,59.99160118,,,,,,,,,,,,,,,,,,masks/mask_005.jpg,,,,,,,,,,,,,,,,,,,,,,,,,,,,,,,,,,,,,,,,,,,,,,,,0,2,2,4,1,,,,,,,,,,,,,,,,,,,,,,,,,,,,,,,,,,,,,,,,,
603964,001,2022-11-20_23h52.45.461,Info_measure_main_exp,2022.2.2,MacIntel,59.99160118,,,,,,,,,,,,,,,,,,masks/mask_004.jpg,,,,,,,,,,,,,,,,,,,,,,,,,,,,,,,,,,,,,,,,,,,,,,,,0,3,3,3,1,,,,,,,,,,,,,,,,,,,,,,,,,,,,,,,,,,,,,,,,,
603964,001,2022-11-20_23h52.45.461,Info_measure_main_exp,2022.2.2,MacIntel,59.99160118,,,,,,,,,,,,,,,,,,masks/mask_003.jpg,,,,,,,,,,,,,,,,,,,,,,,,,,,,,,,,,,,,,,,,,,,,,,,,0,4,4,2,1,,,,,,,,,,,,,,,,,,,,,,,,,,,,,,,,,,,,,,,,,
603964,001,2022-11-20_23h52.45.461,Info_measure_main_exp,2022.2.2,MacIntel,59.99160118,,,,,,,,,,,,,,,,,,,,,,,,,,,,,,0,0.5332,1,,,,,,,,,,,,0,131,5,5,2298,2298,absent_patch/patch0002298.jpg,absent_patch/patch0002298.jpg,,,,,,,,,,,,,,,,,,,,-0.016904297,0.13443807,1,0,0,response7disk,19,-0.002469008,0.002610508,1,0,0,center_square,0,18,18,37,1,,,,,,,,,,,,,,,,,,,,,,,
603964,001,2022-11-20_23h52.45.461,Info_measure_main_exp,2022.2.2,MacIntel,59.99160118,,,,,,,,,,,,,,,,,,masks/mask_005.jpg,,,,,,,,,,,,,,,,,,,,,,,,,,,,,,,,,,,,,,,,,,,0,0,0,4,1,,,,,,,,,,,,,,,,,,,,,,,,,,,,,,,,,,,,,,,,,,,,,,
603964,001,2022-11-20_23h52.45.461,Info_measure_main_exp,2022.2.2,MacIntel,59.99160118,,,,,,,,,,,,,,,,,,masks/mask_003.jpg,,,,,,,,,,,,,,,,,,,,,,,,,,,,,,,,,,,,,,,,,,,0,1,1,2,1,,,,,,,,,,,,,,,,,,,,,,,,,,,,,,,,,,,,,,,,,,,,,,
603964,001,2022-11-20_23h52.45.461,Info_measure_main_exp,2022.2.2,MacIntel,59.99160118,,,,,,,,,,,,,,,,,,masks/mask_002.jpg,,,,,,,,,,,,,,,,,,,,,,,,,,,,,,,,,,,,,,,,,,,0,2,2,1,1,,,,,,,,,,,,,,,,,,,,,,,,,,,,,,,,,,,,,,,,,,,,,,
603964,001,2022-11-20_23h52.45.461,Info_measure_main_exp,2022.2.2,MacIntel,59.99160118,,,,,,,,,,,,,,,,,,masks/mask_001.jpg,,,,,,,,,,,,,,,,,,,,,,,,,,,,,,,,,,,,,,,,,,,0,3,3,0,1,,,,,,,,,,,,,,,,,,,,,,,,,,,,,,,,,,,,,,,,,,,,,,
603964,001,2022-11-20_23h52.45.461,Info_measure_main_exp,2022.2.2,MacIntel,59.99160118,,,,,,,,,,,,,,,,,,masks/mask_004.jpg,,,,,,,,,,,,,,,,,,,,,,,,,,,,,,,,,,,,,,,,,,,0,4,4,3,1,,,,,,,,,,,,,,,,,,,,,,,,,,,,,,,,,,,,,,,,,,,,,,
603964,001,2022-11-20_23h52.45.461,Info_measure_main_exp,2022.2.2,MacIntel,59.99160118,,,,,,,,,,,,,,,,,,masks/mask_001.jpg,,,,,,,,,,,,,,,,,,,,,,,,,,,,,,,,,,,,,,,,,,,,,,,,0,0,0,0,1,,,,,,,,,,,,,,,,,,,,,,,,,,,,,,,,,,,,,,,,,
603964,001,2022-11-20_23h52.45.461,Info_measure_main_exp,2022.2.2,MacIntel,59.99160118,,,,,,,,,,,,,,,,,,masks/mask_004.jpg,,,,,,,,,,,,,,,,,,,,,,,,,,,,,,,,,,,,,,,,,,,,,,,,0,1,1,3,1,,,,,,,,,,,,,,,,,,,,,,,,,,,,,,,,,,,,,,,,,
603964,001,2022-11-20_23h52.45.461,Info_measure_main_exp,2022.2.2,MacIntel,59.99160118,,,,,,,,,,,,,,,,,,masks/mask_005.jpg,,,,,,,,,,,,,,,,,,,,,,,,,,,,,,,,,,,,,,,,,,,,,,,,0,2,2,4,1,,,,,,,,,,,,,,,,,,,,,,,,,,,,,,,,,,,,,,,,,
603964,001,2022-11-20_23h52.45.461,Info_measure_main_exp,2022.2.2,MacIntel,59.99160118,,,,,,,,,,,,,,,,,,masks/mask_002.jpg,,,,,,,,,,,,,,,,,,,,,,,,,,,,,,,,,,,,,,,,,,,,,,,,0,3,3,1,1,,,,,,,,,,,,,,,,,,,,,,,,,,,,,,,,,,,,,,,,,
603964,001,2022-11-20_23h52.45.461,Info_measure_main_exp,2022.2.2,MacIntel,59.99160118,,,,,,,,,,,,,,,,,,masks/mask_003.jpg,,,,,,,,,,,,,,,,,,,,,,,,,,,,,,,,,,,,,,,,,,,,,,,,0,4,4,2,1,,,,,,,,,,,,,,,,,,,,,,,,,,,,,,,,,,,,,,,,,
603964,001,2022-11-20_23h52.45.461,Info_measure_main_exp,2022.2.2,MacIntel,59.99160118,,,,,,,,,,,,,,,,,,,,,,,,,,,,,,7,0.6173,1,,,,,,,,,,,,0,131,5,5,2178,1986,absent_patch/patch0002178.jpg,absent_patch/patch0001986.jpg,,,,,,,,,,,,,,,,,,,,0.041452298,0.125922173,1,0,0,response1disk,20,-0.004118788,-0.000714111,1,0,0,center_square,0,19,19,46,1,,,,,,,,,,,,,,,,,,,,,,,
603964,001,2022-11-20_23h52.45.461,Info_measure_main_exp,2022.2.2,MacIntel,59.99160118,,,,,,,,,,,,,,,,,,masks/mask_003.jpg,,,,,,,,,,,,,,,,,,,,,,,,,,,,,,,,,,,,,,,,,,,0,0,0,2,1,,,,,,,,,,,,,,,,,,,,,,,,,,,,,,,,,,,,,,,,,,,,,,
603964,001,2022-11-20_23h52.45.461,Info_measure_main_exp,2022.2.2,MacIntel,59.99160118,,,,,,,,,,,,,,,,,,masks/mask_001.jpg,,,,,,,,,,,,,,,,,,,,,,,,,,,,,,,,,,,,,,,,,,,0,1,1,0,1,,,,,,,,,,,,,,,,,,,,,,,,,,,,,,,,,,,,,,,,,,,,,,
603964,001,2022-11-20_23h52.45.461,Info_measure_main_exp,2022.2.2,MacIntel,59.99160118,,,,,,,,,,,,,,,,,,masks/mask_004.jpg,,,,,,,,,,,,,,,,,,,,,,,,,,,,,,,,,,,,,,,,,,,0,2,2,3,1,,,,,,,,,,,,,,,,,,,,,,,,,,,,,,,,,,,,,,,,,,,,,,
603964,001,2022-11-20_23h52.45.461,Info_measure_main_exp,2022.2.2,MacIntel,59.99160118,,,,,,,,,,,,,,,,,,masks/mask_002.jpg,,,,,,,,,,,,,,,,,,,,,,,,,,,,,,,,,,,,,,,,,,,0,3,3,1,1,,,,,,,,,,,,,,,,,,,,,,,,,,,,,,,,,,,,,,,,,,,,,,
603964,001,2022-11-20_23h52.45.461,Info_measure_main_exp,2022.2.2,MacIntel,59.99160118,,,,,,,,,,,,,,,,,,masks/mask_005.jpg,,,,,,,,,,,,,,,,,,,,,,,,,,,,,,,,,,,,,,,,,,,0,4,4,4,1,,,,,,,,,,,,,,,,,,,,,,,,,,,,,,,,,,,,,,,,,,,,,,
603964,001,2022-11-20_23h52.45.461,Info_measure_main_exp,2022.2.2,MacIntel,59.99160118,,,,,,,,,,,,,,,,,,masks/mask_001.jpg,,,,,,,,,,,,,,,,,,,,,,,,,,,,,,,,,,,,,,,,,,,,,,,,0,0,0,0,1,,,,,,,,,,,,,,,,,,,,,,,,,,,,,,,,,,,,,,,,,
603964,001,2022-11-20_23h52.45.461,Info_measure_main_exp,2022.2.2,MacIntel,59.99160118,,,,,,,,,,,,,,,,,,masks/mask_003.jpg,,,,,,,,,,,,,,,,,,,,,,,,,,,,,,,,,,,,,,,,,,,,,,,,0,1,1,2,1,,,,,,,,,,,,,,,,,,,,,,,,,,,,,,,,,,,,,,,,,
603964,001,2022-11-20_23h52.45.461,Info_measure_main_exp,2022.2.2,MacIntel,59.99160118,,,,,,,,,,,,,,,,,,masks/mask_005.jpg,,,,,,,,,,,,,,,,,,,,,,,,,,,,,,,,,,,,,,,,,,,,,,,,0,2,2,4,1,,,,,,,,,,,,,,,,,,,,,,,,,,,,,,,,,,,,,,,,,
603964,001,2022-11-20_23h52.45.461,Info_measure_main_exp,2022.2.2,MacIntel,59.99160118,,,,,,,,,,,,,,,,,,masks/mask_002.jpg,,,,,,,,,,,,,,,,,,,,,,,,,,,,,,,,,,,,,,,,,,,,,,,,0,3,3,1,1,,,,,,,,,,,,,,,,,,,,,,,,,,,,,,,,,,,,,,,,,
603964,001,2022-11-20_23h52.45.461,Info_measure_main_exp,2022.2.2,MacIntel,59.99160118,,,,,,,,,,,,,,,,,,masks/mask_004.jpg,,,,,,,,,,,,,,,,,,,,,,,,,,,,,,,,,,,,,,,,,,,,,,,,0,4,4,3,1,,,,,,,,,,,,,,,,,,,,,,,,,,,,,,,,,,,,,,,,,
603964,001,2022-11-20_23h52.45.461,Info_measure_main_exp,2022.2.2,MacIntel,59.99160118,,,,,,,,,,,,,,,,,,,,,,,,,,,,,,6,0.767,1,,,,,,,,,,,,0,131,5,5,2250,2142,absent_patch/patch0002250.jpg,absent_patch/patch0002142.jpg,,,,,,,,,,,,,,,,,,,,0.115513713,0.041535916,1,0,0,response1disk,21,-0.000254313,-0.001440498,1,0,0,center_square,0,20,20,71,1,,,,,,,,,,,,,,,,,,,,,,,
603964,001,2022-11-20_23h52.45.461,Info_measure_main_exp,2022.2.2,MacIntel,59.99160118,,,,,,,,,,,,,,,,,,masks/mask_004.jpg,,,,,,,,,,,,,,,,,,,,,,,,,,,,,,,,,,,,,,,,,,,0,0,0,3,1,,,,,,,,,,,,,,,,,,,,,,,,,,,,,,,,,,,,,,,,,,,,,,
603964,001,2022-11-20_23h52.45.461,Info_measure_main_exp,2022.2.2,MacIntel,59.99160118,,,,,,,,,,,,,,,,,,masks/mask_001.jpg,,,,,,,,,,,,,,,,,,,,,,,,,,,,,,,,,,,,,,,,,,,0,1,1,0,1,,,,,,,,,,,,,,,,,,,,,,,,,,,,,,,,,,,,,,,,,,,,,,
603964,001,2022-11-20_23h52.45.461,Info_measure_main_exp,2022.2.2,MacIntel,59.99160118,,,,,,,,,,,,,,,,,,masks/mask_002.jpg,,,,,,,,,,,,,,,,,,,,,,,,,,,,,,,,,,,,,,,,,,,0,2,2,1,1,,,,,,,,,,,,,,,,,,,,,,,,,,,,,,,,,,,,,,,,,,,,,,
603964,001,2022-11-20_23h52.45.461,Info_measure_main_exp,2022.2.2,MacIntel,59.99160118,,,,,,,,,,,,,,,,,,masks/mask_005.jpg,,,,,,,,,,,,,,,,,,,,,,,,,,,,,,,,,,,,,,,,,,,0,3,3,4,1,,,,,,,,,,,,,,,,,,,,,,,,,,,,,,,,,,,,,,,,,,,,,,
603964,001,2022-11-20_23h52.45.461,Info_measure_main_exp,2022.2.2,MacIntel,59.99160118,,,,,,,,,,,,,,,,,,masks/mask_003.jpg,,,,,,,,,,,,,,,,,,,,,,,,,,,,,,,,,,,,,,,,,,,0,4,4,2,1,,,,,,,,,,,,,,,,,,,,,,,,,,,,,,,,,,,,,,,,,,,,,,
603964,001,2022-11-20_23h52.45.461,Info_measure_main_exp,2022.2.2,MacIntel,59.99160118,,,,,,,,,,,,,,,,,,masks/mask_005.jpg,,,,,,,,,,,,,,,,,,,,,,,,,,,,,,,,,,,,,,,,,,,,,,,,0,0,0,4,1,,,,,,,,,,,,,,,,,,,,,,,,,,,,,,,,,,,,,,,,,
603964,001,2022-11-20_23h52.45.461,Info_measure_main_exp,2022.2.2,MacIntel,59.99160118,,,,,,,,,,,,,,,,,,masks/mask_003.jpg,,,,,,,,,,,,,,,,,,,,,,,,,,,,,,,,,,,,,,,,,,,,,,,,0,1,1,2,1,,,,,,,,,,,,,,,,,,,,,,,,,,,,,,,,,,,,,,,,,
603964,001,2022-11-20_23h52.45.461,Info_measure_main_exp,2022.2.2,MacIntel,59.99160118,,,,,,,,,,,,,,,,,,masks/mask_001.jpg,,,,,,,,,,,,,,,,,,,,,,,,,,,,,,,,,,,,,,,,,,,,,,,,0,2,2,0,1,,,,,,,,,,,,,,,,,,,,,,,,,,,,,,,,,,,,,,,,,
603964,001,2022-11-20_23h52.45.461,Info_measure_main_exp,2022.2.2,MacIntel,59.99160118,,,,,,,,,,,,,,,,,,masks/mask_002.jpg,,,,,,,,,,,,,,,,,,,,,,,,,,,,,,,,,,,,,,,,,,,,,,,,0,3,3,1,1,,,,,,,,,,,,,,,,,,,,,,,,,,,,,,,,,,,,,,,,,
603964,001,2022-11-20_23h52.45.461,Info_measure_main_exp,2022.2.2,MacIntel,59.99160118,,,,,,,,,,,,,,,,,,masks/mask_004.jpg,,,,,,,,,,,,,,,,,,,,,,,,,,,,,,,,,,,,,,,,,,,,,,,,0,4,4,3,1,,,,,,,,,,,,,,,,,,,,,,,,,,,,,,,,,,,,,,,,,
603964,001,2022-11-20_23h52.45.461,Info_measure_main_exp,2022.2.2,MacIntel,59.99160118,,,,,,,,,,,,,,,,,,,,,,,,,,,,,,4,1.6169,1,,,,,,,,,,,,0,131,5,5,2190,2214,absent_patch/patch0002190.jpg,absent_patch/patch0002214.jpg,,,,,,,,,,,,,,,,,,,,0.0509375,-0.126080661,1,0,0,response3disk,22,-0.004474013,0.003627387,1,0,0,center_square,0,21,21,35,1,,,,,,,,,,,,,,,,,,,,,,,
603964,001,2022-11-20_23h52.45.461,Info_measure_main_exp,2022.2.2,MacIntel,59.99160118,,,,,,,,,,,,,,,,,,masks/mask_001.jpg,,,,,,,,,,,,,,,,,,,,,,,,,,,,,,,,,,,,,,,,,,,0,0,0,0,1,,,,,,,,,,,,,,,,,,,,,,,,,,,,,,,,,,,,,,,,,,,,,,
603964,001,2022-11-20_23h52.45.461,Info_measure_main_exp,2022.2.2,MacIntel,59.99160118,,,,,,,,,,,,,,,,,,masks/mask_005.jpg,,,,,,,,,,,,,,,,,,,,,,,,,,,,,,,,,,,,,,,,,,,0,1,1,4,1,,,,,,,,,,,,,,,,,,,,,,,,,,,,,,,,,,,,,,,,,,,,,,
603964,001,2022-11-20_23h52.45.461,Info_measure_main_exp,2022.2.2,MacIntel,59.99160118,,,,,,,,,,,,,,,,,,masks/mask_002.jpg,,,,,,,,,,,,,,,,,,,,,,,,,,,,,,,,,,,,,,,,,,,0,2,2,1,1,,,,,,,,,,,,,,,,,,,,,,,,,,,,,,,,,,,,,,,,,,,,,,
603964,001,2022-11-20_23h52.45.461,Info_measure_main_exp,2022.2.2,MacIntel,59.99160118,,,,,,,,,,,,,,,,,,masks/mask_003.jpg,,,,,,,,,,,,,,,,,,,,,,,,,,,,,,,,,,,,,,,,,,,0,3,3,2,1,,,,,,,,,,,,,,,,,,,,,,,,,,,,,,,,,,,,,,,,,,,,,,
603964,001,2022-11-20_23h52.45.461,Info_measure_main_exp,2022.2.2,MacIntel,59.99160118,,,,,,,,,,,,,,,,,,masks/mask_004.jpg,,,,,,,,,,,,,,,,,,,,,,,,,,,,,,,,,,,,,,,,,,,0,4,4,3,1,,,,,,,,,,,,,,,,,,,,,,,,,,,,,,,,,,,,,,,,,,,,,,
603964,001,2022-11-20_23h52.45.461,Info_measure_main_exp,2022.2.2,MacIntel,59.99160118,,,,,,,,,,,,,,,,,,masks/mask_002.jpg,,,,,,,,,,,,,,,,,,,,,,,,,,,,,,,,,,,,,,,,,,,,,,,,0,0,0,1,1,,,,,,,,,,,,,,,,,,,,,,,,,,,,,,,,,,,,,,,,,
603964,001,2022-11-20_23h52.45.461,Info_measure_main_exp,2022.2.2,MacIntel,59.99160118,,,,,,,,,,,,,,,,,,masks/mask_003.jpg,,,,,,,,,,,,,,,,,,,,,,,,,,,,,,,,,,,,,,,,,,,,,,,,0,1,1,2,1,,,,,,,,,,,,,,,,,,,,,,,,,,,,,,,,,,,,,,,,,
603964,001,2022-11-20_23h52.45.461,Info_measure_main_exp,2022.2.2,MacIntel,59.99160118,,,,,,,,,,,,,,,,,,masks/mask_004.jpg,,,,,,,,,,,,,,,,,,,,,,,,,,,,,,,,,,,,,,,,,,,,,,,,0,2,2,3,1,,,,,,,,,,,,,,,,,,,,,,,,,,,,,,,,,,,,,,,,,
603964,001,2022-11-20_23h52.45.461,Info_measure_main_exp,2022.2.2,MacIntel,59.99160118,,,,,,,,,,,,,,,,,,masks/mask_001.jpg,,,,,,,,,,,,,,,,,,,,,,,,,,,,,,,,,,,,,,,,,,,,,,,,0,3,3,0,1,,,,,,,,,,,,,,,,,,,,,,,,,,,,,,,,,,,,,,,,,
603964,001,2022-11-20_23h52.45.461,Info_measure_main_exp,2022.2.2,MacIntel,59.99160118,,,,,,,,,,,,,,,,,,masks/mask_005.jpg,,,,,,,,,,,,,,,,,,,,,,,,,,,,,,,,,,,,,,,,,,,,,,,,0,4,4,4,1,,,,,,,,,,,,,,,,,,,,,,,,,,,,,,,,,,,,,,,,,
603964,001,2022-11-20_23h52.45.461,Info_measure_main_exp,2022.2.2,MacIntel,59.99160118,,,,,,,,,,,,,,,,,,,,,,,,,,,,,,7,1.0015,1,,,,,,,,,,,,0,131,5,5,2274,1974,absent_patch/patch0002274.jpg,absent_patch/patch0001974.jpg,,,,,,,,,,,,,,,,,,,,0.02997484,0.110379774,1,0,0,response1disk,23,-0.001028171,-0.002865126,1,0,0,center_square,0,22,22,90,1,,,,,,,,,,,,,,,,,,,,,,,
603964,001,2022-11-20_23h52.45.461,Info_measure_main_exp,2022.2.2,MacIntel,59.99160118,,,,,,,,,,,,,,,,,,masks/mask_005.jpg,,,,,,,,,,,,,,,,,,,,,,,,,,,,,,,,,,,,,,,,,,,0,0,0,4,1,,,,,,,,,,,,,,,,,,,,,,,,,,,,,,,,,,,,,,,,,,,,,,
603964,001,2022-11-20_23h52.45.461,Info_measure_main_exp,2022.2.2,MacIntel,59.99160118,,,,,,,,,,,,,,,,,,masks/mask_001.jpg,,,,,,,,,,,,,,,,,,,,,,,,,,,,,,,,,,,,,,,,,,,0,1,1,0,1,,,,,,,,,,,,,,,,,,,,,,,,,,,,,,,,,,,,,,,,,,,,,,
603964,001,2022-11-20_23h52.45.461,Info_measure_main_exp,2022.2.2,MacIntel,59.99160118,,,,,,,,,,,,,,,,,,masks/mask_003.jpg,,,,,,,,,,,,,,,,,,,,,,,,,,,,,,,,,,,,,,,,,,,0,2,2,2,1,,,,,,,,,,,,,,,,,,,,,,,,,,,,,,,,,,,,,,,,,,,,,,
603964,001,2022-11-20_23h52.45.461,Info_measure_main_exp,2022.2.2,MacIntel,59.99160118,,,,,,,,,,,,,,,,,,masks/mask_002.jpg,,,,,,,,,,,,,,,,,,,,,,,,,,,,,,,,,,,,,,,,,,,0,3,3,1,1,,,,,,,,,,,,,,,,,,,,,,,,,,,,,,,,,,,,,,,,,,,,,,
603964,001,2022-11-20_23h52.45.461,Info_measure_main_exp,2022.2.2,MacIntel,59.99160118,,,,,,,,,,,,,,,,,,masks/mask_004.jpg,,,,,,,,,,,,,,,,,,,,,,,,,,,,,,,,,,,,,,,,,,,0,4,4,3,1,,,,,,,,,,,,,,,,,,,,,,,,,,,,,,,,,,,,,,,,,,,,,,
603964,001,2022-11-20_23h52.45.461,Info_measure_main_exp,2022.2.2,MacIntel,59.99160118,,,,,,,,,,,,,,,,,,masks/mask_003.jpg,,,,,,,,,,,,,,,,,,,,,,,,,,,,,,,,,,,,,,,,,,,,,,,,0,0,0,2,1,,,,,,,,,,,,,,,,,,,,,,,,,,,,,,,,,,,,,,,,,
603964,001,2022-11-20_23h52.45.461,Info_measure_main_exp,2022.2.2,MacIntel,59.99160118,,,,,,,,,,,,,,,,,,masks/mask_004.jpg,,,,,,,,,,,,,,,,,,,,,,,,,,,,,,,,,,,,,,,,,,,,,,,,0,1,1,3,1,,,,,,,,,,,,,,,,,,,,,,,,,,,,,,,,,,,,,,,,,
603964,001,2022-11-20_23h52.45.461,Info_measure_main_exp,2022.2.2,MacIntel,59.99160118,,,,,,,,,,,,,,,,,,masks/mask_001.jpg,,,,,,,,,,,,,,,,,,,,,,,,,,,,,,,,,,,,,,,,,,,,,,,,0,2,2,0,1,,,,,,,,,,,,,,,,,,,,,,,,,,,,,,,,,,,,,,,,,
603964,001,2022-11-20_23h52.45.461,Info_measure_main_exp,2022.2.2,MacIntel,59.99160118,,,,,,,,,,,,,,,,,,masks/mask_002.jpg,,,,,,,,,,,,,,,,,,,,,,,,,,,,,,,,,,,,,,,,,,,,,,,,0,3,3,1,1,,,,,,,,,,,,,,,,,,,,,,,,,,,,,,,,,,,,,,,,,
603964,001,2022-11-20_23h52.45.461,Info_measure_main_exp,2022.2.2,MacIntel,59.99160118,,,,,,,,,,,,,,,,,,masks/mask_005.jpg,,,,,,,,,,,,,,,,,,,,,,,,,,,,,,,,,,,,,,,,,,,,,,,,0,4,4,4,1,,,,,,,,,,,,,,,,,,,,,,,,,,,,,,,,,,,,,,,,,
603964,001,2022-11-20_23h52.45.461,Info_measure_main_exp,2022.2.2,MacIntel,59.99160118,,,,,,,,,,,,,,,,,,,,,,,,,,,,,,3,1.0161,1,,,,,,,,,,,,0,131,5,5,1950,2142,absent_patch/patch0001950.jpg,absent_patch/patch0002142.jpg,,,,,,,,,,,,,,,,,,,,-0.07011773,-0.109300944,1,0,0,response5disk,24,0.007218153,0.013929376,1,0,0,center_square,0,23,23,83,1,,,,,,,,,,,,,,,,,,,,,,,
603964,001,2022-11-20_23h52.45.461,Info_measure_main_exp,2022.2.2,MacIntel,59.99160118,,,,,,,,,,,,,,,,,,masks/mask_003.jpg,,,,,,,,,,,,,,,,,,,,,,,,,,,,,,,,,,,,,,,,,,,0,0,0,2,1,,,,,,,,,,,,,,,,,,,,,,,,,,,,,,,,,,,,,,,,,,,,,,
603964,001,2022-11-20_23h52.45.461,Info_measure_main_exp,2022.2.2,MacIntel,59.99160118,,,,,,,,,,,,,,,,,,masks/mask_004.jpg,,,,,,,,,,,,,,,,,,,,,,,,,,,,,,,,,,,,,,,,,,,0,1,1,3,1,,,,,,,,,,,,,,,,,,,,,,,,,,,,,,,,,,,,,,,,,,,,,,
603964,001,2022-11-20_23h52.45.461,Info_measure_main_exp,2022.2.2,MacIntel,59.99160118,,,,,,,,,,,,,,,,,,masks/mask_001.jpg,,,,,,,,,,,,,,,,,,,,,,,,,,,,,,,,,,,,,,,,,,,0,2,2,0,1,,,,,,,,,,,,,,,,,,,,,,,,,,,,,,,,,,,,,,,,,,,,,,
603964,001,2022-11-20_23h52.45.461,Info_measure_main_exp,2022.2.2,MacIntel,59.99160118,,,,,,,,,,,,,,,,,,masks/mask_005.jpg,,,,,,,,,,,,,,,,,,,,,,,,,,,,,,,,,,,,,,,,,,,0,3,3,4,1,,,,,,,,,,,,,,,,,,,,,,,,,,,,,,,,,,,,,,,,,,,,,,
603964,001,2022-11-20_23h52.45.461,Info_measure_main_exp,2022.2.2,MacIntel,59.99160118,,,,,,,,,,,,,,,,,,masks/mask_002.jpg,,,,,,,,,,,,,,,,,,,,,,,,,,,,,,,,,,,,,,,,,,,0,4,4,1,1,,,,,,,,,,,,,,,,,,,,,,,,,,,,,,,,,,,,,,,,,,,,,,
603964,001,2022-11-20_23h52.45.461,Info_measure_main_exp,2022.2.2,MacIntel,59.99160118,,,,,,,,,,,,,,,,,,masks/mask_002.jpg,,,,,,,,,,,,,,,,,,,,,,,,,,,,,,,,,,,,,,,,,,,,,,,,0,0,0,1,1,,,,,,,,,,,,,,,,,,,,,,,,,,,,,,,,,,,,,,,,,
603964,001,2022-11-20_23h52.45.461,Info_measure_main_exp,2022.2.2,MacIntel,59.99160118,,,,,,,,,,,,,,,,,,masks/mask_001.jpg,,,,,,,,,,,,,,,,,,,,,,,,,,,,,,,,,,,,,,,,,,,,,,,,0,1,1,0,1,,,,,,,,,,,,,,,,,,,,,,,,,,,,,,,,,,,,,,,,,
603964,001,2022-11-20_23h52.45.461,Info_measure_main_exp,2022.2.2,MacIntel,59.99160118,,,,,,,,,,,,,,,,,,masks/mask_005.jpg,,,,,,,,,,,,,,,,,,,,,,,,,,,,,,,,,,,,,,,,,,,,,,,,0,2,2,4,1,,,,,,,,,,,,,,,,,,,,,,,,,,,,,,,,,,,,,,,,,
603964,001,2022-11-20_23h52.45.461,Info_measure_main_exp,2022.2.2,MacIntel,59.99160118,,,,,,,,,,,,,,,,,,masks/mask_003.jpg,,,,,,,,,,,,,,,,,,,,,,,,,,,,,,,,,,,,,,,,,,,,,,,,0,3,3,2,1,,,,,,,,,,,,,,,,,,,,,,,,,,,,,,,,,,,,,,,,,
603964,001,2022-11-20_23h52.45.461,Info_measure_main_exp,2022.2.2,MacIntel,59.99160118,,,,,,,,,,,,,,,,,,masks/mask_004.jpg,,,,,,,,,,,,,,,,,,,,,,,,,,,,,,,,,,,,,,,,,,,,,,,,0,4,4,3,1,,,,,,,,,,,,,,,,,,,,,,,,,,,,,,,,,,,,,,,,,
603964,001,2022-11-20_23h52.45.461,Info_measure_main_exp,2022.2.2,MacIntel,59.99160118,,,,,,,,,,,,,,,,,,,,,,,,,,,,,,0,0.5343,1,,,,,,,,,,,,0,131,5,5,2178,2178,absent_patch/patch0002178.jpg,absent_patch/patch0002178.jpg,,,,,,,,,,,,,,,,,,,,-0.019893867,0.096907959,1,0,0,response7disk,25,0.009114583,-0.009213732,1,0,0,center_square,0,24,24,98,1,,,,,,,,,,,,,,,,,,,,,,,
603964,001,2022-11-20_23h52.45.461,Info_measure_main_exp,2022.2.2,MacIntel,59.99160118,,,,,,,,,,,,,,,,,,masks/mask_005.jpg,,,,,,,,,,,,,,,,,,,,,,,,,,,,,,,,,,,,,,,,,,,0,0,0,4,1,,,,,,,,,,,,,,,,,,,,,,,,,,,,,,,,,,,,,,,,,,,,,,
603964,001,2022-11-20_23h52.45.461,Info_measure_main_exp,2022.2.2,MacIntel,59.99160118,,,,,,,,,,,,,,,,,,masks/mask_003.jpg,,,,,,,,,,,,,,,,,,,,,,,,,,,,,,,,,,,,,,,,,,,0,1,1,2,1,,,,,,,,,,,,,,,,,,,,,,,,,,,,,,,,,,,,,,,,,,,,,,
603964,001,2022-11-20_23h52.45.461,Info_measure_main_exp,2022.2.2,MacIntel,59.99160118,,,,,,,,,,,,,,,,,,masks/mask_004.jpg,,,,,,,,,,,,,,,,,,,,,,,,,,,,,,,,,,,,,,,,,,,0,2,2,3,1,,,,,,,,,,,,,,,,,,,,,,,,,,,,,,,,,,,,,,,,,,,,,,
603964,001,2022-11-20_23h52.45.461,Info_measure_main_exp,2022.2.2,MacIntel,59.99160118,,,,,,,,,,,,,,,,,,masks/mask_002.jpg,,,,,,,,,,,,,,,,,,,,,,,,,,,,,,,,,,,,,,,,,,,0,3,3,1,1,,,,,,,,,,,,,,,,,,,,,,,,,,,,,,,,,,,,,,,,,,,,,,
603964,001,2022-11-20_23h52.45.461,Info_measure_main_exp,2022.2.2,MacIntel,59.99160118,,,,,,,,,,,,,,,,,,masks/mask_001.jpg,,,,,,,,,,,,,,,,,,,,,,,,,,,,,,,,,,,,,,,,,,,0,4,4,0,1,,,,,,,,,,,,,,,,,,,,,,,,,,,,,,,,,,,,,,,,,,,,,,
603964,001,2022-11-20_23h52.45.461,Info_measure_main_exp,2022.2.2,MacIntel,59.99160118,,,,,,,,,,,,,,,,,,masks/mask_004.jpg,,,,,,,,,,,,,,,,,,,,,,,,,,,,,,,,,,,,,,,,,,,,,,,,0,0,0,3,1,,,,,,,,,,,,,,,,,,,,,,,,,,,,,,,,,,,,,,,,,
603964,001,2022-11-20_23h52.45.461,Info_measure_main_exp,2022.2.2,MacIntel,59.99160118,,,,,,,,,,,,,,,,,,masks/mask_002.jpg,,,,,,,,,,,,,,,,,,,,,,,,,,,,,,,,,,,,,,,,,,,,,,,,0,1,1,1,1,,,,,,,,,,,,,,,,,,,,,,,,,,,,,,,,,,,,,,,,,
603964,001,2022-11-20_23h52.45.461,Info_measure_main_exp,2022.2.2,MacIntel,59.99160118,,,,,,,,,,,,,,,,,,masks/mask_003.jpg,,,,,,,,,,,,,,,,,,,,,,,,,,,,,,,,,,,,,,,,,,,,,,,,0,2,2,2,1,,,,,,,,,,,,,,,,,,,,,,,,,,,,,,,,,,,,,,,,,
603964,001,2022-11-20_23h52.45.461,Info_measure_main_exp,2022.2.2,MacIntel,59.99160118,,,,,,,,,,,,,,,,,,masks/mask_005.jpg,,,,,,,,,,,,,,,,,,,,,,,,,,,,,,,,,,,,,,,,,,,,,,,,0,3,3,4,1,,,,,,,,,,,,,,,,,,,,,,,,,,,,,,,,,,,,,,,,,
603964,001,2022-11-20_23h52.45.461,Info_measure_main_exp,2022.2.2,MacIntel,59.99160118,,,,,,,,,,,,,,,,,,masks/mask_001.jpg,,,,,,,,,,,,,,,,,,,,,,,,,,,,,,,,,,,,,,,,,,,,,,,,0,4,4,0,1,,,,,,,,,,,,,,,,,,,,,,,,,,,,,,,,,,,,,,,,,
603964,001,2022-11-20_23h52.45.461,Info_measure_main_exp,2022.2.2,MacIntel,59.99160118,,,,,,,,,,,,,,,,,,,,,,,,,,,,,,0,0.5334,1,,,,,,,,,,,,0,131,5,5,1974,1950,absent_patch/patch0001974.jpg,absent_patch/patch0001950.jpg,,,,,,,,,,,,,,,,,,,,-0.016378581,0.077093031,1,0,0,response7disk,26,0.000588447,0.001206597,1,0,0,center_square,0,25,25,17,1,,,,,,,,,,,,,,,,,,,,,,,
603964,001,2022-11-20_23h52.45.461,Info_measure_main_exp,2022.2.2,MacIntel,59.99160118,,,,,,,,,,,,,,,,,,masks/mask_001.jpg,,,,,,,,,,,,,,,,,,,,,,,,,,,,,,,,,,,,,,,,,,,0,0,0,0,1,,,,,,,,,,,,,,,,,,,,,,,,,,,,,,,,,,,,,,,,,,,,,,
603964,001,2022-11-20_23h52.45.461,Info_measure_main_exp,2022.2.2,MacIntel,59.99160118,,,,,,,,,,,,,,,,,,masks/mask_003.jpg,,,,,,,,,,,,,,,,,,,,,,,,,,,,,,,,,,,,,,,,,,,0,1,1,2,1,,,,,,,,,,,,,,,,,,,,,,,,,,,,,,,,,,,,,,,,,,,,,,
603964,001,2022-11-20_23h52.45.461,Info_measure_main_exp,2022.2.2,MacIntel,59.99160118,,,,,,,,,,,,,,,,,,masks/mask_005.jpg,,,,,,,,,,,,,,,,,,,,,,,,,,,,,,,,,,,,,,,,,,,0,2,2,4,1,,,,,,,,,,,,,,,,,,,,,,,,,,,,,,,,,,,,,,,,,,,,,,
603964,001,2022-11-20_23h52.45.461,Info_measure_main_exp,2022.2.2,MacIntel,59.99160118,,,,,,,,,,,,,,,,,,masks/mask_002.jpg,,,,,,,,,,,,,,,,,,,,,,,,,,,,,,,,,,,,,,,,,,,0,3,3,1,1,,,,,,,,,,,,,,,,,,,,,,,,,,,,,,,,,,,,,,,,,,,,,,
603964,001,2022-11-20_23h52.45.461,Info_measure_main_exp,2022.2.2,MacIntel,59.99160118,,,,,,,,,,,,,,,,,,masks/mask_004.jpg,,,,,,,,,,,,,,,,,,,,,,,,,,,,,,,,,,,,,,,,,,,0,4,4,3,1,,,,,,,,,,,,,,,,,,,,,,,,,,,,,,,,,,,,,,,,,,,,,,
603964,001,2022-11-20_23h52.45.461,Info_measure_main_exp,2022.2.2,MacIntel,59.99160118,,,,,,,,,,,,,,,,,,masks/mask_004.jpg,,,,,,,,,,,,,,,,,,,,,,,,,,,,,,,,,,,,,,,,,,,,,,,,0,0,0,3,1,,,,,,,,,,,,,,,,,,,,,,,,,,,,,,,,,,,,,,,,,
603964,001,2022-11-20_23h52.45.461,Info_measure_main_exp,2022.2.2,MacIntel,59.99160118,,,,,,,,,,,,,,,,,,masks/mask_005.jpg,,,,,,,,,,,,,,,,,,,,,,,,,,,,,,,,,,,,,,,,,,,,,,,,0,1,1,4,1,,,,,,,,,,,,,,,,,,,,,,,,,,,,,,,,,,,,,,,,,
603964,001,2022-11-20_23h52.45.461,Info_measure_main_exp,2022.2.2,MacIntel,59.99160118,,,,,,,,,,,,,,,,,,masks/mask_002.jpg,,,,,,,,,,,,,,,,,,,,,,,,,,,,,,,,,,,,,,,,,,,,,,,,0,2,2,1,1,,,,,,,,,,,,,,,,,,,,,,,,,,,,,,,,,,,,,,,,,
603964,001,2022-11-20_23h52.45.461,Info_measure_main_exp,2022.2.2,MacIntel,59.99160118,,,,,,,,,,,,,,,,,,masks/mask_003.jpg,,,,,,,,,,,,,,,,,,,,,,,,,,,,,,,,,,,,,,,,,,,,,,,,0,3,3,2,1,,,,,,,,,,,,,,,,,,,,,,,,,,,,,,,,,,,,,,,,,
603964,001,2022-11-20_23h52.45.461,Info_measure_main_exp,2022.2.2,MacIntel,59.99160118,,,,,,,,,,,,,,,,,,masks/mask_001.jpg,,,,,,,,,,,,,,,,,,,,,,,,,,,,,,,,,,,,,,,,,,,,,,,,0,4,4,0,1,,,,,,,,,,,,,,,,,,,,,,,,,,,,,,,,,,,,,,,,,
603964,001,2022-11-20_23h52.45.461,Info_measure_main_exp,2022.2.2,MacIntel,59.99160118,,,,,,,,,,,,,,,,,,,,,,,,,,,,,,7,0.5333,1,,,,,,,,,,,,0,131,5,5,1950,2214,absent_patch/patch0001950.jpg,absent_patch/patch0002214.jpg,,,,,,,,,,,,,,,,,,,,0.047410346,0.117706367,1,0,0,response1disk,27,0.000353461,-0.006251356,1,0,0,center_square,0,26,26,85,1,,,,,,,,,,,,,,,,,,,,,,,
603964,001,2022-11-20_23h52.45.461,Info_measure_main_exp,2022.2.2,MacIntel,59.99160118,,,,,,,,,,,,,,,,,,masks/mask_005.jpg,,,,,,,,,,,,,,,,,,,,,,,,,,,,,,,,,,,,,,,,,,,0,0,0,4,1,,,,,,,,,,,,,,,,,,,,,,,,,,,,,,,,,,,,,,,,,,,,,,
603964,001,2022-11-20_23h52.45.461,Info_measure_main_exp,2022.2.2,MacIntel,59.99160118,,,,,,,,,,,,,,,,,,masks/mask_004.jpg,,,,,,,,,,,,,,,,,,,,,,,,,,,,,,,,,,,,,,,,,,,0,1,1,3,1,,,,,,,,,,,,,,,,,,,,,,,,,,,,,,,,,,,,,,,,,,,,,,
603964,001,2022-11-20_23h52.45.461,Info_measure_main_exp,2022.2.2,MacIntel,59.99160118,,,,,,,,,,,,,,,,,,masks/mask_002.jpg,,,,,,,,,,,,,,,,,,,,,,,,,,,,,,,,,,,,,,,,,,,0,2,2,1,1,,,,,,,,,,,,,,,,,,,,,,,,,,,,,,,,,,,,,,,,,,,,,,
603964,001,2022-11-20_23h52.45.461,Info_measure_main_exp,2022.2.2,MacIntel,59.99160118,,,,,,,,,,,,,,,,,,masks/mask_003.jpg,,,,,,,,,,,,,,,,,,,,,,,,,,,,,,,,,,,,,,,,,,,0,3,3,2,1,,,,,,,,,,,,,,,,,,,,,,,,,,,,,,,,,,,,,,,,,,,,,,
603964,001,2022-11-20_23h52.45.461,Info_measure_main_exp,2022.2.2,MacIntel,59.99160118,,,,,,,,,,,,,,,,,,masks/mask_001.jpg,,,,,,,,,,,,,,,,,,,,,,,,,,,,,,,,,,,,,,,,,,,0,4,4,0,1,,,,,,,,,,,,,,,,,,,,,,,,,,,,,,,,,,,,,,,,,,,,,,
603964,001,2022-11-20_23h52.45.461,Info_measure_main_exp,2022.2.2,MacIntel,59.99160118,,,,,,,,,,,,,,,,,,masks/mask_001.jpg,,,,,,,,,,,,,,,,,,,,,,,,,,,,,,,,,,,,,,,,,,,,,,,,0,0,0,0,1,,,,,,,,,,,,,,,,,,,,,,,,,,,,,,,,,,,,,,,,,
603964,001,2022-11-20_23h52.45.461,Info_measure_main_exp,2022.2.2,MacIntel,59.99160118,,,,,,,,,,,,,,,,,,masks/mask_005.jpg,,,,,,,,,,,,,,,,,,,,,,,,,,,,,,,,,,,,,,,,,,,,,,,,0,1,1,4,1,,,,,,,,,,,,,,,,,,,,,,,,,,,,,,,,,,,,,,,,,
603964,001,2022-11-20_23h52.45.461,Info_measure_main_exp,2022.2.2,MacIntel,59.99160118,,,,,,,,,,,,,,,,,,masks/mask_003.jpg,,,,,,,,,,,,,,,,,,,,,,,,,,,,,,,,,,,,,,,,,,,,,,,,0,2,2,2,1,,,,,,,,,,,,,,,,,,,,,,,,,,,,,,,,,,,,,,,,,
603964,001,2022-11-20_23h52.45.461,Info_measure_main_exp,2022.2.2,MacIntel,59.99160118,,,,,,,,,,,,,,,,,,masks/mask_004.jpg,,,,,,,,,,,,,,,,,,,,,,,,,,,,,,,,,,,,,,,,,,,,,,,,0,3,3,3,1,,,,,,,,,,,,,,,,,,,,,,,,,,,,,,,,,,,,,,,,,
603964,001,2022-11-20_23h52.45.461,Info_measure_main_exp,2022.2.2,MacIntel,59.99160118,,,,,,,,,,,,,,,,,,masks/mask_002.jpg,,,,,,,,,,,,,,,,,,,,,,,,,,,,,,,,,,,,,,,,,,,,,,,,0,4,4,1,1,,,,,,,,,,,,,,,,,,,,,,,,,,,,,,,,,,,,,,,,,
603964,001,2022-11-20_23h52.45.461,Info_measure_main_exp,2022.2.2,MacIntel,59.99160118,,,,,,,,,,,,,,,,,,,,,,,,,,,,,,7,0.5328,1,,,,,,,,,,,,0,131,5,5,2154,1950,absent_patch/patch0002154.jpg,absent_patch/patch0001950.jpg,,,,,,,,,,,,,,,,,,,,0.022981228,0.087544488,1,0,0,response1disk,28,0.003963081,0.001849535,1,0,0,center_square,0,27,27,96,1,,,,,,,,,,,,,,,,,,,,,,,
603964,001,2022-11-20_23h52.45.461,Info_measure_main_exp,2022.2.2,MacIntel,59.99160118,,,,,,,,,,,,,,,,,,masks/mask_005.jpg,,,,,,,,,,,,,,,,,,,,,,,,,,,,,,,,,,,,,,,,,,,0,0,0,4,1,,,,,,,,,,,,,,,,,,,,,,,,,,,,,,,,,,,,,,,,,,,,,,
603964,001,2022-11-20_23h52.45.461,Info_measure_main_exp,2022.2.2,MacIntel,59.99160118,,,,,,,,,,,,,,,,,,masks/mask_003.jpg,,,,,,,,,,,,,,,,,,,,,,,,,,,,,,,,,,,,,,,,,,,0,1,1,2,1,,,,,,,,,,,,,,,,,,,,,,,,,,,,,,,,,,,,,,,,,,,,,,
603964,001,2022-11-20_23h52.45.461,Info_measure_main_exp,2022.2.2,MacIntel,59.99160118,,,,,,,,,,,,,,,,,,masks/mask_001.jpg,,,,,,,,,,,,,,,,,,,,,,,,,,,,,,,,,,,,,,,,,,,0,2,2,0,1,,,,,,,,,,,,,,,,,,,,,,,,,,,,,,,,,,,,,,,,,,,,,,
603964,001,2022-11-20_23h52.45.461,Info_measure_main_exp,2022.2.2,MacIntel,59.99160118,,,,,,,,,,,,,,,,,,masks/mask_004.jpg,,,,,,,,,,,,,,,,,,,,,,,,,,,,,,,,,,,,,,,,,,,0,3,3,3,1,,,,,,,,,,,,,,,,,,,,,,,,,,,,,,,,,,,,,,,,,,,,,,
603964,001,2022-11-20_23h52.45.461,Info_measure_main_exp,2022.2.2,MacIntel,59.99160118,,,,,,,,,,,,,,,,,,masks/mask_002.jpg,,,,,,,,,,,,,,,,,,,,,,,,,,,,,,,,,,,,,,,,,,,0,4,4,1,1,,,,,,,,,,,,,,,,,,,,,,,,,,,,,,,,,,,,,,,,,,,,,,
603964,001,2022-11-20_23h52.45.461,Info_measure_main_exp,2022.2.2,MacIntel,59.99160118,,,,,,,,,,,,,,,,,,masks/mask_001.jpg,,,,,,,,,,,,,,,,,,,,,,,,,,,,,,,,,,,,,,,,,,,,,,,,0,0,0,0,1,,,,,,,,,,,,,,,,,,,,,,,,,,,,,,,,,,,,,,,,,
603964,001,2022-11-20_23h52.45.461,Info_measure_main_exp,2022.2.2,MacIntel,59.99160118,,,,,,,,,,,,,,,,,,masks/mask_005.jpg,,,,,,,,,,,,,,,,,,,,,,,,,,,,,,,,,,,,,,,,,,,,,,,,0,1,1,4,1,,,,,,,,,,,,,,,,,,,,,,,,,,,,,,,,,,,,,,,,,
603964,001,2022-11-20_23h52.45.461,Info_measure_main_exp,2022.2.2,MacIntel,59.99160118,,,,,,,,,,,,,,,,,,masks/mask_004.jpg,,,,,,,,,,,,,,,,,,,,,,,,,,,,,,,,,,,,,,,,,,,,,,,,0,2,2,3,1,,,,,,,,,,,,,,,,,,,,,,,,,,,,,,,,,,,,,,,,,
603964,001,2022-11-20_23h52.45.461,Info_measure_main_exp,2022.2.2,MacIntel,59.99160118,,,,,,,,,,,,,,,,,,masks/mask_002.jpg,,,,,,,,,,,,,,,,,,,,,,,,,,,,,,,,,,,,,,,,,,,,,,,,0,3,3,1,1,,,,,,,,,,,,,,,,,,,,,,,,,,,,,,,,,,,,,,,,,
603964,001,2022-11-20_23h52.45.461,Info_measure_main_exp,2022.2.2,MacIntel,59.99160118,,,,,,,,,,,,,,,,,,masks/mask_003.jpg,,,,,,,,,,,,,,,,,,,,,,,,,,,,,,,,,,,,,,,,,,,,,,,,0,4,4,2,1,,,,,,,,,,,,,,,,,,,,,,,,,,,,,,,,,,,,,,,,,
603964,001,2022-11-20_23h52.45.461,Info_measure_main_exp,2022.2.2,MacIntel,59.99160118,,,,,,,,,,,,,,,,,,,,,,,,,,,,,,6,1.4172,1,,,,,,,,,,,,0,131,5,5,1974,2214,absent_patch/patch0001974.jpg,absent_patch/patch0002214.jpg,,,,,,,,,,,,,,,,,,,,0.112153388,0.029112074,1,0,0,response1disk,29,0.00104248,0.004214817,1,0,0,center_square,0,28,28,24,1,,,,,,,,,,,,,,,,,,,,,,,
603964,001,2022-11-20_23h52.45.461,Info_measure_main_exp,2022.2.2,MacIntel,59.99160118,,,,,,,,,,,,,,,,,,masks/mask_004.jpg,,,,,,,,,,,,,,,,,,,,,,,,,,,,,,,,,,,,,,,,,,,0,0,0,3,1,,,,,,,,,,,,,,,,,,,,,,,,,,,,,,,,,,,,,,,,,,,,,,
603964,001,2022-11-20_23h52.45.461,Info_measure_main_exp,2022.2.2,MacIntel,59.99160118,,,,,,,,,,,,,,,,,,masks/mask_005.jpg,,,,,,,,,,,,,,,,,,,,,,,,,,,,,,,,,,,,,,,,,,,0,1,1,4,1,,,,,,,,,,,,,,,,,,,,,,,,,,,,,,,,,,,,,,,,,,,,,,
603964,001,2022-11-20_23h52.45.461,Info_measure_main_exp,2022.2.2,MacIntel,59.99160118,,,,,,,,,,,,,,,,,,masks/mask_001.jpg,,,,,,,,,,,,,,,,,,,,,,,,,,,,,,,,,,,,,,,,,,,0,2,2,0,1,,,,,,,,,,,,,,,,,,,,,,,,,,,,,,,,,,,,,,,,,,,,,,
603964,001,2022-11-20_23h52.45.461,Info_measure_main_exp,2022.2.2,MacIntel,59.99160118,,,,,,,,,,,,,,,,,,masks/mask_003.jpg,,,,,,,,,,,,,,,,,,,,,,,,,,,,,,,,,,,,,,,,,,,0,3,3,2,1,,,,,,,,,,,,,,,,,,,,,,,,,,,,,,,,,,,,,,,,,,,,,,
603964,001,2022-11-20_23h52.45.461,Info_measure_main_exp,2022.2.2,MacIntel,59.99160118,,,,,,,,,,,,,,,,,,masks/mask_002.jpg,,,,,,,,,,,,,,,,,,,,,,,,,,,,,,,,,,,,,,,,,,,0,4,4,1,1,,,,,,,,,,,,,,,,,,,,,,,,,,,,,,,,,,,,,,,,,,,,,,
603964,001,2022-11-20_23h52.45.461,Info_measure_main_exp,2022.2.2,MacIntel,59.99160118,,,,,,,,,,,,,,,,,,masks/mask_004.jpg,,,,,,,,,,,,,,,,,,,,,,,,,,,,,,,,,,,,,,,,,,,,,,,,0,0,0,3,1,,,,,,,,,,,,,,,,,,,,,,,,,,,,,,,,,,,,,,,,,
603964,001,2022-11-20_23h52.45.461,Info_measure_main_exp,2022.2.2,MacIntel,59.99160118,,,,,,,,,,,,,,,,,,masks/mask_003.jpg,,,,,,,,,,,,,,,,,,,,,,,,,,,,,,,,,,,,,,,,,,,,,,,,0,1,1,2,1,,,,,,,,,,,,,,,,,,,,,,,,,,,,,,,,,,,,,,,,,
603964,001,2022-11-20_23h52.45.461,Info_measure_main_exp,2022.2.2,MacIntel,59.99160118,,,,,,,,,,,,,,,,,,masks/mask_005.jpg,,,,,,,,,,,,,,,,,,,,,,,,,,,,,,,,,,,,,,,,,,,,,,,,0,2,2,4,1,,,,,,,,,,,,,,,,,,,,,,,,,,,,,,,,,,,,,,,,,
603964,001,2022-11-20_23h52.45.461,Info_measure_main_exp,2022.2.2,MacIntel,59.99160118,,,,,,,,,,,,,,,,,,masks/mask_001.jpg,,,,,,,,,,,,,,,,,,,,,,,,,,,,,,,,,,,,,,,,,,,,,,,,0,3,3,0,1,,,,,,,,,,,,,,,,,,,,,,,,,,,,,,,,,,,,,,,,,
603964,001,2022-11-20_23h52.45.461,Info_measure_main_exp,2022.2.2,MacIntel,59.99160118,,,,,,,,,,,,,,,,,,masks/mask_002.jpg,,,,,,,,,,,,,,,,,,,,,,,,,,,,,,,,,,,,,,,,,,,,,,,,0,4,4,1,1,,,,,,,,,,,,,,,,,,,,,,,,,,,,,,,,,,,,,,,,,
603964,001,2022-11-20_23h52.45.461,Info_measure_main_exp,2022.2.2,MacIntel,59.99160118,,,,,,,,,,,,,,,,,,,,,,,,,,,,,,7,1.033,1,,,,,,,,,,,,0,131,5,5,2274,2190,absent_patch/patch0002274.jpg,absent_patch/patch0002190.jpg,,,,,,,,,,,,,,,,,,,,0.018276096,0.055984599,1,0,0,response1disk,30,-0.001922268,-0.004328681,1,0,0,center_square,0,29,29,116,1,,,,,,,,,,,,,,,,,,,,,,,
603964,001,2022-11-20_23h52.45.461,Info_measure_main_exp,2022.2.2,MacIntel,59.99160118,,,,,,,,,,,,,,,,,,masks/mask_004.jpg,,,,,,,,,,,,,,,,,,,,,,,,,,,,,,,,,,,,,,,,,,,0,0,0,3,1,,,,,,,,,,,,,,,,,,,,,,,,,,,,,,,,,,,,,,,,,,,,,,
603964,001,2022-11-20_23h52.45.461,Info_measure_main_exp,2022.2.2,MacIntel,59.99160118,,,,,,,,,,,,,,,,,,masks/mask_002.jpg,,,,,,,,,,,,,,,,,,,,,,,,,,,,,,,,,,,,,,,,,,,0,1,1,1,1,,,,,,,,,,,,,,,,,,,,,,,,,,,,,,,,,,,,,,,,,,,,,,
603964,001,2022-11-20_23h52.45.461,Info_measure_main_exp,2022.2.2,MacIntel,59.99160118,,,,,,,,,,,,,,,,,,masks/mask_005.jpg,,,,,,,,,,,,,,,,,,,,,,,,,,,,,,,,,,,,,,,,,,,0,2,2,4,1,,,,,,,,,,,,,,,,,,,,,,,,,,,,,,,,,,,,,,,,,,,,,,
603964,001,2022-11-20_23h52.45.461,Info_measure_main_exp,2022.2.2,MacIntel,59.99160118,,,,,,,,,,,,,,,,,,masks/mask_003.jpg,,,,,,,,,,,,,,,,,,,,,,,,,,,,,,,,,,,,,,,,,,,0,3,3,2,1,,,,,,,,,,,,,,,,,,,,,,,,,,,,,,,,,,,,,,,,,,,,,,
603964,001,2022-11-20_23h52.45.461,Info_measure_main_exp,2022.2.2,MacIntel,59.99160118,,,,,,,,,,,,,,,,,,masks/mask_001.jpg,,,,,,,,,,,,,,,,,,,,,,,,,,,,,,,,,,,,,,,,,,,0,4,4,0,1,,,,,,,,,,,,,,,,,,,,,,,,,,,,,,,,,,,,,,,,,,,,,,
603964,001,2022-11-20_23h52.45.461,Info_measure_main_exp,2022.2.2,MacIntel,59.99160118,,,,,,,,,,,,,,,,,,masks/mask_001.jpg,,,,,,,,,,,,,,,,,,,,,,,,,,,,,,,,,,,,,,,,,,,,,,,,0,0,0,0,1,,,,,,,,,,,,,,,,,,,,,,,,,,,,,,,,,,,,,,,,,
603964,001,2022-11-20_23h52.45.461,Info_measure_main_exp,2022.2.2,MacIntel,59.99160118,,,,,,,,,,,,,,,,,,masks/mask_004.jpg,,,,,,,,,,,,,,,,,,,,,,,,,,,,,,,,,,,,,,,,,,,,,,,,0,1,1,3,1,,,,,,,,,,,,,,,,,,,,,,,,,,,,,,,,,,,,,,,,,
603964,001,2022-11-20_23h52.45.461,Info_measure_main_exp,2022.2.2,MacIntel,59.99160118,,,,,,,,,,,,,,,,,,masks/mask_003.jpg,,,,,,,,,,,,,,,,,,,,,,,,,,,,,,,,,,,,,,,,,,,,,,,,0,2,2,2,1,,,,,,,,,,,,,,,,,,,,,,,,,,,,,,,,,,,,,,,,,
603964,001,2022-11-20_23h52.45.461,Info_measure_main_exp,2022.2.2,MacIntel,59.99160118,,,,,,,,,,,,,,,,,,masks/mask_002.jpg,,,,,,,,,,,,,,,,,,,,,,,,,,,,,,,,,,,,,,,,,,,,,,,,0,3,3,1,1,,,,,,,,,,,,,,,,,,,,,,,,,,,,,,,,,,,,,,,,,
603964,001,2022-11-20_23h52.45.461,Info_measure_main_exp,2022.2.2,MacIntel,59.99160118,,,,,,,,,,,,,,,,,,masks/mask_005.jpg,,,,,,,,,,,,,,,,,,,,,,,,,,,,,,,,,,,,,,,,,,,,,,,,0,4,4,4,1,,,,,,,,,,,,,,,,,,,,,,,,,,,,,,,,,,,,,,,,,
603964,001,2022-11-20_23h52.45.461,Info_measure_main_exp,2022.2.2,MacIntel,59.99160118,,,,,,,,,,,,,,,,,,,,,,,,,,,,,,7,0.5502,1,,,,,,,,,,,,0,131,5,5,1950,2166,absent_patch/patch0001950.jpg,absent_patch/patch0002166.jpg,,,,,,,,,,,,,,,,,,,,0.046481255,0.13005995,1,0,0,response1disk,31,-0.004378933,-0.008214383,1,0,0,center_square,0,30,30,0,1,,,,,,,,,,,,,,,,,,,,,,,
603964,001,2022-11-20_23h52.45.461,Info_measure_main_exp,2022.2.2,MacIntel,59.99160118,,,,,,,,,,,,,,,,,,masks/mask_002.jpg,,,,,,,,,,,,,,,,,,,,,,,,,,,,,,,,,,,,,,,,,,,0,0,0,1,1,,,,,,,,,,,,,,,,,,,,,,,,,,,,,,,,,,,,,,,,,,,,,,
603964,001,2022-11-20_23h52.45.461,Info_measure_main_exp,2022.2.2,MacIntel,59.99160118,,,,,,,,,,,,,,,,,,masks/mask_003.jpg,,,,,,,,,,,,,,,,,,,,,,,,,,,,,,,,,,,,,,,,,,,0,1,1,2,1,,,,,,,,,,,,,,,,,,,,,,,,,,,,,,,,,,,,,,,,,,,,,,
603964,001,2022-11-20_23h52.45.461,Info_measure_main_exp,2022.2.2,MacIntel,59.99160118,,,,,,,,,,,,,,,,,,masks/mask_004.jpg,,,,,,,,,,,,,,,,,,,,,,,,,,,,,,,,,,,,,,,,,,,0,2,2,3,1,,,,,,,,,,,,,,,,,,,,,,,,,,,,,,,,,,,,,,,,,,,,,,
603964,001,2022-11-20_23h52.45.461,Info_measure_main_exp,2022.2.2,MacIntel,59.99160118,,,,,,,,,,,,,,,,,,masks/mask_001.jpg,,,,,,,,,,,,,,,,,,,,,,,,,,,,,,,,,,,,,,,,,,,0,3,3,0,1,,,,,,,,,,,,,,,,,,,,,,,,,,,,,,,,,,,,,,,,,,,,,,
603964,001,2022-11-20_23h52.45.461,Info_measure_main_exp,2022.2.2,MacIntel,59.99160118,,,,,,,,,,,,,,,,,,masks/mask_005.jpg,,,,,,,,,,,,,,,,,,,,,,,,,,,,,,,,,,,,,,,,,,,0,4,4,4,1,,,,,,,,,,,,,,,,,,,,,,,,,,,,,,,,,,,,,,,,,,,,,,
603964,001,2022-11-20_23h52.45.461,Info_measure_main_exp,2022.2.2,MacIntel,59.99160118,,,,,,,,,,,,,,,,,,masks/mask_005.jpg,,,,,,,,,,,,,,,,,,,,,,,,,,,,,,,,,,,,,,,,,,,,,,,,0,0,0,4,1,,,,,,,,,,,,,,,,,,,,,,,,,,,,,,,,,,,,,,,,,
603964,001,2022-11-20_23h52.45.461,Info_measure_main_exp,2022.2.2,MacIntel,59.99160118,,,,,,,,,,,,,,,,,,masks/mask_004.jpg,,,,,,,,,,,,,,,,,,,,,,,,,,,,,,,,,,,,,,,,,,,,,,,,0,1,1,3,1,,,,,,,,,,,,,,,,,,,,,,,,,,,,,,,,,,,,,,,,,
603964,001,2022-11-20_23h52.45.461,Info_measure_main_exp,2022.2.2,MacIntel,59.99160118,,,,,,,,,,,,,,,,,,masks/mask_002.jpg,,,,,,,,,,,,,,,,,,,,,,,,,,,,,,,,,,,,,,,,,,,,,,,,0,2,2,1,1,,,,,,,,,,,,,,,,,,,,,,,,,,,,,,,,,,,,,,,,,
603964,001,2022-11-20_23h52.45.461,Info_measure_main_exp,2022.2.2,MacIntel,59.99160118,,,,,,,,,,,,,,,,,,masks/mask_003.jpg,,,,,,,,,,,,,,,,,,,,,,,,,,,,,,,,,,,,,,,,,,,,,,,,0,3,3,2,1,,,,,,,,,,,,,,,,,,,,,,,,,,,,,,,,,,,,,,,,,
603964,001,2022-11-20_23h52.45.461,Info_measure_main_exp,2022.2.2,MacIntel,59.99160118,,,,,,,,,,,,,,,,,,masks/mask_001.jpg,,,,,,,,,,,,,,,,,,,,,,,,,,,,,,,,,,,,,,,,,,,,,,,,0,4,4,0,1,,,,,,,,,,,,,,,,,,,,,,,,,,,,,,,,,,,,,,,,,
603964,001,2022-11-20_23h52.45.461,Info_measure_main_exp,2022.2.2,MacIntel,59.99160118,,,,,,,,,,,,,,,,,,,,,,,,,,,,,,5,1.3993,1,,,,,,,,,,,,0,131,5,5,2142,2190,absent_patch/patch0002142.jpg,absent_patch/patch0002190.jpg,,,,,,,,,,,,,,,,,,,,0.14359158,-0.038536919,1,0,0,response3disk,32,-0.014082438,0.005521071,1,0,0,center_square,0,31,31,70,1,,,,,,,,,,,,,,,,,,,,,,,
603964,001,2022-11-20_23h52.45.461,Info_measure_main_exp,2022.2.2,MacIntel,59.99160118,,,,,,,,,,,,,,,,,,masks/mask_004.jpg,,,,,,,,,,,,,,,,,,,,,,,,,,,,,,,,,,,,,,,,,,,0,0,0,3,1,,,,,,,,,,,,,,,,,,,,,,,,,,,,,,,,,,,,,,,,,,,,,,
603964,001,2022-11-20_23h52.45.461,Info_measure_main_exp,2022.2.2,MacIntel,59.99160118,,,,,,,,,,,,,,,,,,masks/mask_005.jpg,,,,,,,,,,,,,,,,,,,,,,,,,,,,,,,,,,,,,,,,,,,0,1,1,4,1,,,,,,,,,,,,,,,,,,,,,,,,,,,,,,,,,,,,,,,,,,,,,,
603964,001,2022-11-20_23h52.45.461,Info_measure_main_exp,2022.2.2,MacIntel,59.99160118,,,,,,,,,,,,,,,,,,masks/mask_002.jpg,,,,,,,,,,,,,,,,,,,,,,,,,,,,,,,,,,,,,,,,,,,0,2,2,1,1,,,,,,,,,,,,,,,,,,,,,,,,,,,,,,,,,,,,,,,,,,,,,,
603964,001,2022-11-20_23h52.45.461,Info_measure_main_exp,2022.2.2,MacIntel,59.99160118,,,,,,,,,,,,,,,,,,masks/mask_003.jpg,,,,,,,,,,,,,,,,,,,,,,,,,,,,,,,,,,,,,,,,,,,0,3,3,2,1,,,,,,,,,,,,,,,,,,,,,,,,,,,,,,,,,,,,,,,,,,,,,,
603964,001,2022-11-20_23h52.45.461,Info_measure_main_exp,2022.2.2,MacIntel,59.99160118,,,,,,,,,,,,,,,,,,masks/mask_001.jpg,,,,,,,,,,,,,,,,,,,,,,,,,,,,,,,,,,,,,,,,,,,0,4,4,0,1,,,,,,,,,,,,,,,,,,,,,,,,,,,,,,,,,,,,,,,,,,,,,,
603964,001,2022-11-20_23h52.45.461,Info_measure_main_exp,2022.2.2,MacIntel,59.99160118,,,,,,,,,,,,,,,,,,masks/mask_005.jpg,,,,,,,,,,,,,,,,,,,,,,,,,,,,,,,,,,,,,,,,,,,,,,,,0,0,0,4,1,,,,,,,,,,,,,,,,,,,,,,,,,,,,,,,,,,,,,,,,,
603964,001,2022-11-20_23h52.45.461,Info_measure_main_exp,2022.2.2,MacIntel,59.99160118,,,,,,,,,,,,,,,,,,masks/mask_004.jpg,,,,,,,,,,,,,,,,,,,,,,,,,,,,,,,,,,,,,,,,,,,,,,,,0,1,1,3,1,,,,,,,,,,,,,,,,,,,,,,,,,,,,,,,,,,,,,,,,,
603964,001,2022-11-20_23h52.45.461,Info_measure_main_exp,2022.2.2,MacIntel,59.99160118,,,,,,,,,,,,,,,,,,masks/mask_001.jpg,,,,,,,,,,,,,,,,,,,,,,,,,,,,,,,,,,,,,,,,,,,,,,,,0,2,2,0,1,,,,,,,,,,,,,,,,,,,,,,,,,,,,,,,,,,,,,,,,,
603964,001,2022-11-20_23h52.45.461,Info_measure_main_exp,2022.2.2,MacIntel,59.99160118,,,,,,,,,,,,,,,,,,masks/mask_002.jpg,,,,,,,,,,,,,,,,,,,,,,,,,,,,,,,,,,,,,,,,,,,,,,,,0,3,3,1,1,,,,,,,,,,,,,,,,,,,,,,,,,,,,,,,,,,,,,,,,,
603964,001,2022-11-20_23h52.45.461,Info_measure_main_exp,2022.2.2,MacIntel,59.99160118,,,,,,,,,,,,,,,,,,masks/mask_003.jpg,,,,,,,,,,,,,,,,,,,,,,,,,,,,,,,,,,,,,,,,,,,,,,,,0,4,4,2,1,,,,,,,,,,,,,,,,,,,,,,,,,,,,,,,,,,,,,,,,,
603964,001,2022-11-20_23h52.45.461,Info_measure_main_exp,2022.2.2,MacIntel,59.99160118,,,,,,,,,,,,,,,,,,,,,,,,,,,,,,7,0.4501,1,,,,,,,,,,,,0,131,5,5,1974,2166,absent_patch/patch0001974.jpg,absent_patch/patch0002166.jpg,,,,,,,,,,,,,,,,,,,,0.044154799,0.114018012,1,0,0,response1disk,33,0.004263645,-0.002841797,1,0,0,center_square,0,32,32,77,1,,,,,,,,,,,,,,,,,,,,,,,
603964,001,2022-11-20_23h52.45.461,Info_measure_main_exp,2022.2.2,MacIntel,59.99160118,,,,,,,,,,,,,,,,,,masks/mask_001.jpg,,,,,,,,,,,,,,,,,,,,,,,,,,,,,,,,,,,,,,,,,,,0,0,0,0,1,,,,,,,,,,,,,,,,,,,,,,,,,,,,,,,,,,,,,,,,,,,,,,
603964,001,2022-11-20_23h52.45.461,Info_measure_main_exp,2022.2.2,MacIntel,59.99160118,,,,,,,,,,,,,,,,,,masks/mask_002.jpg,,,,,,,,,,,,,,,,,,,,,,,,,,,,,,,,,,,,,,,,,,,0,1,1,1,1,,,,,,,,,,,,,,,,,,,,,,,,,,,,,,,,,,,,,,,,,,,,,,
603964,001,2022-11-20_23h52.45.461,Info_measure_main_exp,2022.2.2,MacIntel,59.99160118,,,,,,,,,,,,,,,,,,masks/mask_003.jpg,,,,,,,,,,,,,,,,,,,,,,,,,,,,,,,,,,,,,,,,,,,0,2,2,2,1,,,,,,,,,,,,,,,,,,,,,,,,,,,,,,,,,,,,,,,,,,,,,,
603964,001,2022-11-20_23h52.45.461,Info_measure_main_exp,2022.2.2,MacIntel,59.99160118,,,,,,,,,,,,,,,,,,masks/mask_005.jpg,,,,,,,,,,,,,,,,,,,,,,,,,,,,,,,,,,,,,,,,,,,0,3,3,4,1,,,,,,,,,,,,,,,,,,,,,,,,,,,,,,,,,,,,,,,,,,,,,,
603964,001,2022-11-20_23h52.45.461,Info_measure_main_exp,2022.2.2,MacIntel,59.99160118,,,,,,,,,,,,,,,,,,masks/mask_004.jpg,,,,,,,,,,,,,,,,,,,,,,,,,,,,,,,,,,,,,,,,,,,0,4,4,3,1,,,,,,,,,,,,,,,,,,,,,,,,,,,,,,,,,,,,,,,,,,,,,,
603964,001,2022-11-20_23h52.45.461,Info_measure_main_exp,2022.2.2,MacIntel,59.99160118,,,,,,,,,,,,,,,,,,masks/mask_004.jpg,,,,,,,,,,,,,,,,,,,,,,,,,,,,,,,,,,,,,,,,,,,,,,,,0,0,0,3,1,,,,,,,,,,,,,,,,,,,,,,,,,,,,,,,,,,,,,,,,,
603964,001,2022-11-20_23h52.45.461,Info_measure_main_exp,2022.2.2,MacIntel,59.99160118,,,,,,,,,,,,,,,,,,masks/mask_002.jpg,,,,,,,,,,,,,,,,,,,,,,,,,,,,,,,,,,,,,,,,,,,,,,,,0,1,1,1,1,,,,,,,,,,,,,,,,,,,,,,,,,,,,,,,,,,,,,,,,,
603964,001,2022-11-20_23h52.45.461,Info_measure_main_exp,2022.2.2,MacIntel,59.99160118,,,,,,,,,,,,,,,,,,masks/mask_003.jpg,,,,,,,,,,,,,,,,,,,,,,,,,,,,,,,,,,,,,,,,,,,,,,,,0,2,2,2,1,,,,,,,,,,,,,,,,,,,,,,,,,,,,,,,,,,,,,,,,,
603964,001,2022-11-20_23h52.45.461,Info_measure_main_exp,2022.2.2,MacIntel,59.99160118,,,,,,,,,,,,,,,,,,masks/mask_005.jpg,,,,,,,,,,,,,,,,,,,,,,,,,,,,,,,,,,,,,,,,,,,,,,,,0,3,3,4,1,,,,,,,,,,,,,,,,,,,,,,,,,,,,,,,,,,,,,,,,,
603964,001,2022-11-20_23h52.45.461,Info_measure_main_exp,2022.2.2,MacIntel,59.99160118,,,,,,,,,,,,,,,,,,masks/mask_001.jpg,,,,,,,,,,,,,,,,,,,,,,,,,,,,,,,,,,,,,,,,,,,,,,,,0,4,4,0,1,,,,,,,,,,,,,,,,,,,,,,,,,,,,,,,,,,,,,,,,,
603964,001,2022-11-20_23h52.45.461,Info_measure_main_exp,2022.2.2,MacIntel,59.99160118,,,,,,,,,,,,,,,,,,,,,,,,,,,,,,7,0.6669,1,,,,,,,,,,,,0,131,5,5,2250,2214,absent_patch/patch0002250.jpg,absent_patch/patch0002214.jpg,,,,,,,,,,,,,,,,,,,,0.060356581,0.116989814,1,0,0,response1disk,34,0.001472439,0.001811388,1,0,0,center_square,0,33,33,97,1,,,,,,,,,,,,,,,,,,,,,,,
603964,001,2022-11-20_23h52.45.461,Info_measure_main_exp,2022.2.2,MacIntel,59.99160118,,,,,,,,,,,,,,,,,,masks/mask_003.jpg,,,,,,,,,,,,,,,,,,,,,,,,,,,,,,,,,,,,,,,,,,,0,0,0,2,1,,,,,,,,,,,,,,,,,,,,,,,,,,,,,,,,,,,,,,,,,,,,,,
603964,001,2022-11-20_23h52.45.461,Info_measure_main_exp,2022.2.2,MacIntel,59.99160118,,,,,,,,,,,,,,,,,,masks/mask_001.jpg,,,,,,,,,,,,,,,,,,,,,,,,,,,,,,,,,,,,,,,,,,,0,1,1,0,1,,,,,,,,,,,,,,,,,,,,,,,,,,,,,,,,,,,,,,,,,,,,,,
603964,001,2022-11-20_23h52.45.461,Info_measure_main_exp,2022.2.2,MacIntel,59.99160118,,,,,,,,,,,,,,,,,,masks/mask_002.jpg,,,,,,,,,,,,,,,,,,,,,,,,,,,,,,,,,,,,,,,,,,,0,2,2,1,1,,,,,,,,,,,,,,,,,,,,,,,,,,,,,,,,,,,,,,,,,,,,,,
