participant,session,date,expName,psychopyVersion,OS,frameRate,space_press_continue.keys,space_press_continue.rt,space_press_continue_2.keys,space_press_continue_2.rt,space_press_continue_3.keys,space_press_continue_3.rt,space_press_continue_4.keys,space_press_continue_4.rt,space_press_continue_5.keys,space_press_continue_5.rt,space_press_continue_6.keys,space_press_continue_6.rt,prac_mask_loop_1.thisRepN,prac_mask_loop_1.thisTrialN,prac_mask_loop_1.thisN,prac_mask_loop_1.thisIndex,prac_mask_loop_1.ran,mask_name,prac_mask_loop_2.thisRepN,prac_mask_loop_2.thisTrialN,prac_mask_loop_2.thisN,prac_mask_loop_2.thisIndex,prac_mask_loop_2.ran,mouse_2.x,mouse_2.y,mouse_2.leftButton,mouse_2.midButton,mouse_2.rightButton,mouse_2.clicked_name,similarity,response_time,Pass,mouse_12.x,mouse_12.y,mouse_12.leftButton,mouse_12.midButton,mouse_12.rightButton,mouse_12.clicked_name,prac_loop.thisRepN,prac_loop.thisTrialN,prac_loop.thisN,prac_loop.thisIndex,prac_loop.ran,Pair_type,Image_num,Patch_1_loc,Patch_2_loc,Patch_1_info,Patch_2_info,Patch_1_name,Patch_2_name,mouse_1.x,mouse_1.y,mouse_1.leftButton,mouse_1.midButton,mouse_1.rightButton,mouse_1.time,mouse_1.clicked_name,space_press_continue_7.keys,mask_loop.thisRepN,mask_loop.thisTrialN,mask_loop.thisN,mask_loop.thisIndex,mask_loop.ran,mask_loop_2.thisRepN,mask_loop_2.thisTrialN,mask_loop_2.thisN,mask_loop_2.thisIndex,mask_loop_2.ran,mouse.x,mouse.y,mouse.leftButton,mouse.midButton,mouse.rightButton,mouse.clicked_name,trialNumber,mouse_11.x,mouse_11.y,mouse_11.leftButton,mouse_11.midButton,mouse_11.rightButton,mouse_11.clicked_name,first_pass_loop.thisRepN,first_pass_loop.thisTrialN,first_pass_loop.thisN,first_pass_loop.thisIndex,first_pass_loop.ran,mask_loop_3.thisRepN,mask_loop_3.thisTrialN,mask_loop_3.thisN,mask_loop_3.thisIndex,mask_loop_3.ran,mask_loop_4.thisRepN,mask_loop_4.thisTrialN,mask_loop_4.thisN,mask_loop_4.thisIndex,mask_loop_4.ran,mouse_3.x,mouse_3.y,mouse_3.leftButton,mouse_3.midButton,mouse_3.rightButton,mouse_3.clicked_name,double_pass_loop.thisRepN,double_pass_loop.thisTrialN,double_pass_loop.thisN,double_pass_loop.thisIndex,double_pass_loop.ran,space_exit.keys,space_exit.rt
609248,001,2022-11-21_00h46.34.372,Info_measure_main_exp,2022.2.2,Win32,59.95203837,,,,,,,,,,,,,,,,,,,,,,,,,,,,,,,,,,,,,,,,,,,,,,,,,,,,,,,,,,,,,,,,,,,,,,,,,,,,,,,,,,,,,,,,,,,,,,,,,,,,,,,,,,,,,,
609248,001,2022-11-21_00h46.34.372,Info_measure_main_exp,2022.2.2,Win32,59.95203837,,,,,,,,,,,,,,,,,,,,,,,,,,,,,,,,,,,,,,,,,,,,,,,,,,,,,,,,,,,,,,,,,,,,,,,,,,,,,,,,,,,,,,,,,,,,,,,,,,,,,,,,,,,,,,
609248,001,2022-11-21_00h46.34.372,Info_measure_main_exp,2022.2.2,Win32,59.95203837,space,4.522,,,,,,,,,,,,,,,,,,,,,,,,,,,,,,,,,,,,,,,,,,,,,,,,,,,,,,,,,,,,,,,,,,,,,,,,,,,,,,,,,,,,,,,,,,,,,,,,,,,,,,,,,,,,
609248,001,2022-11-21_00h46.34.372,Info_measure_main_exp,2022.2.2,Win32,59.95203837,,,space,8.124,,,,,,,,,,,,,,,,,,,,,,,,,,,,,,,,,,,,,,,,,,,,,,,,,,,,,,,,,,,,,,,,,,,,,,,,,,,,,,,,,,,,,,,,,,,,,,,,,,,,,,,,,,
609248,001,2022-11-21_00h46.34.372,Info_measure_main_exp,2022.2.2,Win32,59.95203837,,,,,space,5.498,,,,,,,,,,,,,,,,,,,,,,,,,,,,,,,,,,,,,,,,,,,,,,,,,,,,,,,,,,,,,,,,,,,,,,,,,,,,,,,,,,,,,,,,,,,,,,,,,,,,,,,,
609248,001,2022-11-21_00h46.34.372,Info_measure_main_exp,2022.2.2,Win32,59.95203837,,,,,,,space,17.387,,,,,,,,,,,,,,,,,,,,,,,,,,,,,,,,,,,,,,,,,,,,,,,,,,,,,,,,,,,,,,,,,,,,,,,,,,,,,,,,,,,,,,,,,,,,,,,,,,,,,,
609248,001,2022-11-21_00h46.34.372,Info_measure_main_exp,2022.2.2,Win32,59.95203837,,,,,,,,,space,10.062,,,,,,,,,,,,,,,,,,,,,,,,,,,,,,,,,,,,,,,,,,,,,,,,,,,,,,,,,,,,,,,,,,,,,,,,,,,,,,,,,,,,,,,,,,,,,,,,,,,,
609248,001,2022-11-21_00h46.34.372,Info_measure_main_exp,2022.2.2,Win32,59.95203837,,,,,,,,,,,space,3.3,,,,,,,,,,,,,,,,,,,,,,,,,,,,,,,,,,,,,,,,,,,,,,,,,,,,,,,,,,,,,,,,,,,,,,,,,,,,,,,,,,,,,,,,,,,,,,,,,,
609248,001,2022-11-21_00h46.34.372,Info_measure_main_exp,2022.2.2,Win32,59.95203837,,,,,,,,,,,,,0,0,0,0,1,masks/mask_001.jpg,,,,,,,,,,,,,,,,,,,,,,,,,,,,,,,,,,,,,,,,,,,,,,,,,,,,,,,,,,,,,,,,,,,,,,,,,,,,,,,,,,,,,,,,,,,,
609248,001,2022-11-21_00h46.34.372,Info_measure_main_exp,2022.2.2,Win32,59.95203837,,,,,,,,,,,,,0,1,1,4,1,masks/mask_005.jpg,,,,,,,,,,,,,,,,,,,,,,,,,,,,,,,,,,,,,,,,,,,,,,,,,,,,,,,,,,,,,,,,,,,,,,,,,,,,,,,,,,,,,,,,,,,,
609248,001,2022-11-21_00h46.34.372,Info_measure_main_exp,2022.2.2,Win32,59.95203837,,,,,,,,,,,,,0,2,2,1,1,masks/mask_002.jpg,,,,,,,,,,,,,,,,,,,,,,,,,,,,,,,,,,,,,,,,,,,,,,,,,,,,,,,,,,,,,,,,,,,,,,,,,,,,,,,,,,,,,,,,,,,,
609248,001,2022-11-21_00h46.34.372,Info_measure_main_exp,2022.2.2,Win32,59.95203837,,,,,,,,,,,,,0,3,3,3,1,masks/mask_004.jpg,,,,,,,,,,,,,,,,,,,,,,,,,,,,,,,,,,,,,,,,,,,,,,,,,,,,,,,,,,,,,,,,,,,,,,,,,,,,,,,,,,,,,,,,,,,,
609248,001,2022-11-21_00h46.34.372,Info_measure_main_exp,2022.2.2,Win32,59.95203837,,,,,,,,,,,,,0,4,4,2,1,masks/mask_003.jpg,,,,,,,,,,,,,,,,,,,,,,,,,,,,,,,,,,,,,,,,,,,,,,,,,,,,,,,,,,,,,,,,,,,,,,,,,,,,,,,,,,,,,,,,,,,,
609248,001,2022-11-21_00h46.34.372,Info_measure_main_exp,2022.2.2,Win32,59.95203837,,,,,,,,,,,,,,,,,,masks/mask_003.jpg,0,0,0,2,1,,,,,,,,,,,,,,,,,,,,,,,,,,,,,,,,,,,,,,,,,,,,,,,,,,,,,,,,,,,,,,,,,,,,,,,,,,,,,,,,,,,,,,,
609248,001,2022-11-21_00h46.34.372,Info_measure_main_exp,2022.2.2,Win32,59.95203837,,,,,,,,,,,,,,,,,,masks/mask_002.jpg,0,1,1,1,1,,,,,,,,,,,,,,,,,,,,,,,,,,,,,,,,,,,,,,,,,,,,,,,,,,,,,,,,,,,,,,,,,,,,,,,,,,,,,,,,,,,,,,,
609248,001,2022-11-21_00h46.34.372,Info_measure_main_exp,2022.2.2,Win32,59.95203837,,,,,,,,,,,,,,,,,,masks/mask_004.jpg,0,2,2,3,1,,,,,,,,,,,,,,,,,,,,,,,,,,,,,,,,,,,,,,,,,,,,,,,,,,,,,,,,,,,,,,,,,,,,,,,,,,,,,,,,,,,,,,,
609248,001,2022-11-21_00h46.34.372,Info_measure_main_exp,2022.2.2,Win32,59.95203837,,,,,,,,,,,,,,,,,,masks/mask_005.jpg,0,3,3,4,1,,,,,,,,,,,,,,,,,,,,,,,,,,,,,,,,,,,,,,,,,,,,,,,,,,,,,,,,,,,,,,,,,,,,,,,,,,,,,,,,,,,,,,,
609248,001,2022-11-21_00h46.34.372,Info_measure_main_exp,2022.2.2,Win32,59.95203837,,,,,,,,,,,,,,,,,,masks/mask_001.jpg,0,4,4,0,1,,,,,,,,,,,,,,,,,,,,,,,,,,,,,,,,,,,,,,,,,,,,,,,,,,,,,,,,,,,,,,,,,,,,,,,,,,,,,,,,,,,,,,,
609248,001,2022-11-21_00h46.34.372,Info_measure_main_exp,2022.2.2,Win32,59.95203837,,,,,,,,,,,,,,,,,,,,,,,,0.023148148,0.094907407,1,0,0,response1disk,7,55.664,1,0.006944444,0.009259259,1,0,0,center_square,0,0,0,0,1,0,131,5,5,2370,2406,prac_patch/patch0002370.jpg,prac_patch/patch0002406.jpg,,,,,,,,,,,,,,,,,,,,,,,,,,,,,,,,,,,,,,,,,,,,,,,,,,,,,,,,,,,
609248,001,2022-11-21_00h46.34.372,Info_measure_main_exp,2022.2.2,Win32,59.95203837,,,,,,,,,,,,,0,0,0,4,1,masks/mask_005.jpg,,,,,,,,,,,,,,,,,,,,,,,,,,,,,,,,,,,,,,,,,,,,,,,,,,,,,,,,,,,,,,,,,,,,,,,,,,,,,,,,,,,,,,,,,,,,
609248,001,2022-11-21_00h46.34.372,Info_measure_main_exp,2022.2.2,Win32,59.95203837,,,,,,,,,,,,,0,1,1,3,1,masks/mask_004.jpg,,,,,,,,,,,,,,,,,,,,,,,,,,,,,,,,,,,,,,,,,,,,,,,,,,,,,,,,,,,,,,,,,,,,,,,,,,,,,,,,,,,,,,,,,,,,
609248,001,2022-11-21_00h46.34.372,Info_measure_main_exp,2022.2.2,Win32,59.95203837,,,,,,,,,,,,,0,2,2,0,1,masks/mask_001.jpg,,,,,,,,,,,,,,,,,,,,,,,,,,,,,,,,,,,,,,,,,,,,,,,,,,,,,,,,,,,,,,,,,,,,,,,,,,,,,,,,,,,,,,,,,,,,
609248,001,2022-11-21_00h46.34.372,Info_measure_main_exp,2022.2.2,Win32,59.95203837,,,,,,,,,,,,,0,3,3,1,1,masks/mask_002.jpg,,,,,,,,,,,,,,,,,,,,,,,,,,,,,,,,,,,,,,,,,,,,,,,,,,,,,,,,,,,,,,,,,,,,,,,,,,,,,,,,,,,,,,,,,,,,
609248,001,2022-11-21_00h46.34.372,Info_measure_main_exp,2022.2.2,Win32,59.95203837,,,,,,,,,,,,,0,4,4,2,1,masks/mask_003.jpg,,,,,,,,,,,,,,,,,,,,,,,,,,,,,,,,,,,,,,,,,,,,,,,,,,,,,,,,,,,,,,,,,,,,,,,,,,,,,,,,,,,,,,,,,,,,
609248,001,2022-11-21_00h46.34.372,Info_measure_main_exp,2022.2.2,Win32,59.95203837,,,,,,,,,,,,,,,,,,masks/mask_004.jpg,0,0,0,3,1,,,,,,,,,,,,,,,,,,,,,,,,,,,,,,,,,,,,,,,,,,,,,,,,,,,,,,,,,,,,,,,,,,,,,,,,,,,,,,,,,,,,,,,
609248,001,2022-11-21_00h46.34.372,Info_measure_main_exp,2022.2.2,Win32,59.95203837,,,,,,,,,,,,,,,,,,masks/mask_003.jpg,0,1,1,2,1,,,,,,,,,,,,,,,,,,,,,,,,,,,,,,,,,,,,,,,,,,,,,,,,,,,,,,,,,,,,,,,,,,,,,,,,,,,,,,,,,,,,,,,
609248,001,2022-11-21_00h46.34.372,Info_measure_main_exp,2022.2.2,Win32,59.95203837,,,,,,,,,,,,,,,,,,masks/mask_001.jpg,0,2,2,0,1,,,,,,,,,,,,,,,,,,,,,,,,,,,,,,,,,,,,,,,,,,,,,,,,,,,,,,,,,,,,,,,,,,,,,,,,,,,,,,,,,,,,,,,
609248,001,2022-11-21_00h46.34.372,Info_measure_main_exp,2022.2.2,Win32,59.95203837,,,,,,,,,,,,,,,,,,masks/mask_002.jpg,0,3,3,1,1,,,,,,,,,,,,,,,,,,,,,,,,,,,,,,,,,,,,,,,,,,,,,,,,,,,,,,,,,,,,,,,,,,,,,,,,,,,,,,,,,,,,,,,
609248,001,2022-11-21_00h46.34.372,Info_measure_main_exp,2022.2.2,Win32,59.95203837,,,,,,,,,,,,,,,,,,masks/mask_005.jpg,0,4,4,4,1,,,,,,,,,,,,,,,,,,,,,,,,,,,,,,,,,,,,,,,,,,,,,,,,,,,,,,,,,,,,,,,,,,,,,,,,,,,,,,,,,,,,,,,
609248,001,2022-11-21_00h46.34.372,Info_measure_main_exp,2022.2.2,Win32,59.95203837,,,,,,,,,,,,,,,,,,,,,,,,-0.030092593,0.068287037,1,0,0,response7disk,0,66.759,1,-0.008101852,0.003472222,1,0,0,center_square,0,1,1,2,1,0,131,5,5,2526,2526,prac_patch/patch0002526.jpg,prac_patch/patch0002526.jpg,,,,,,,,,,,,,,,,,,,,,,,,,,,,,,,,,,,,,,,,,,,,,,,,,,,,,,,,,,,
609248,001,2022-11-21_00h46.34.372,Info_measure_main_exp,2022.2.2,Win32,59.95203837,,,,,,,,,,,,,0,0,0,3,1,masks/mask_004.jpg,,,,,,,,,,,,,,,,,,,,,,,,,,,,,,,,,,,,,,,,,,,,,,,,,,,,,,,,,,,,,,,,,,,,,,,,,,,,,,,,,,,,,,,,,,,,
609248,001,2022-11-21_00h46.34.372,Info_measure_main_exp,2022.2.2,Win32,59.95203837,,,,,,,,,,,,,0,1,1,2,1,masks/mask_003.jpg,,,,,,,,,,,,,,,,,,,,,,,,,,,,,,,,,,,,,,,,,,,,,,,,,,,,,,,,,,,,,,,,,,,,,,,,,,,,,,,,,,,,,,,,,,,,
609248,001,2022-11-21_00h46.34.372,Info_measure_main_exp,2022.2.2,Win32,59.95203837,,,,,,,,,,,,,0,2,2,1,1,masks/mask_002.jpg,,,,,,,,,,,,,,,,,,,,,,,,,,,,,,,,,,,,,,,,,,,,,,,,,,,,,,,,,,,,,,,,,,,,,,,,,,,,,,,,,,,,,,,,,,,,
609248,001,2022-11-21_00h46.34.372,Info_measure_main_exp,2022.2.2,Win32,59.95203837,,,,,,,,,,,,,0,3,3,4,1,masks/mask_005.jpg,,,,,,,,,,,,,,,,,,,,,,,,,,,,,,,,,,,,,,,,,,,,,,,,,,,,,,,,,,,,,,,,,,,,,,,,,,,,,,,,,,,,,,,,,,,,
609248,001,2022-11-21_00h46.34.372,Info_measure_main_exp,2022.2.2,Win32,59.95203837,,,,,,,,,,,,,0,4,4,0,1,masks/mask_001.jpg,,,,,,,,,,,,,,,,,,,,,,,,,,,,,,,,,,,,,,,,,,,,,,,,,,,,,,,,,,,,,,,,,,,,,,,,,,,,,,,,,,,,,,,,,,,,
609248,001,2022-11-21_00h46.34.372,Info_measure_main_exp,2022.2.2,Win32,59.95203837,,,,,,,,,,,,,,,,,,masks/mask_002.jpg,0,0,0,1,1,,,,,,,,,,,,,,,,,,,,,,,,,,,,,,,,,,,,,,,,,,,,,,,,,,,,,,,,,,,,,,,,,,,,,,,,,,,,,,,,,,,,,,,
609248,001,2022-11-21_00h46.34.372,Info_measure_main_exp,2022.2.2,Win32,59.95203837,,,,,,,,,,,,,,,,,,masks/mask_004.jpg,0,1,1,3,1,,,,,,,,,,,,,,,,,,,,,,,,,,,,,,,,,,,,,,,,,,,,,,,,,,,,,,,,,,,,,,,,,,,,,,,,,,,,,,,,,,,,,,,
609248,001,2022-11-21_00h46.34.372,Info_measure_main_exp,2022.2.2,Win32,59.95203837,,,,,,,,,,,,,,,,,,masks/mask_005.jpg,0,2,2,4,1,,,,,,,,,,,,,,,,,,,,,,,,,,,,,,,,,,,,,,,,,,,,,,,,,,,,,,,,,,,,,,,,,,,,,,,,,,,,,,,,,,,,,,,
609248,001,2022-11-21_00h46.34.372,Info_measure_main_exp,2022.2.2,Win32,59.95203837,,,,,,,,,,,,,,,,,,masks/mask_001.jpg,0,3,3,0,1,,,,,,,,,,,,,,,,,,,,,,,,,,,,,,,,,,,,,,,,,,,,,,,,,,,,,,,,,,,,,,,,,,,,,,,,,,,,,,,,,,,,,,,
609248,001,2022-11-21_00h46.34.372,Info_measure_main_exp,2022.2.2,Win32,59.95203837,,,,,,,,,,,,,,,,,,masks/mask_003.jpg,0,4,4,2,1,,,,,,,,,,,,,,,,,,,,,,,,,,,,,,,,,,,,,,,,,,,,,,,,,,,,,,,,,,,,,,,,,,,,,,,,,,,,,,,,,,,,,,,
609248,001,2022-11-21_00h46.34.372,Info_measure_main_exp,2022.2.2,Win32,59.95203837,,,,,,,,,,,,,,,,,,,,,,,,0.099537037,-0.056712963,1,0,0,response3disk,5,78.108,1,-0.002314815,0.002314815,1,0,0,center_square,0,2,2,1,1,0,131,5,5,2514,2490,prac_patch/patch0002514.jpg,prac_patch/patch0002490.jpg,,,,,,,,,,,,,,,,,,,,,,,,,,,,,,,,,,,,,,,,,,,,,,,,,,,,,,,,,,,
609248,001,2022-11-21_00h46.34.372,Info_measure_main_exp,2022.2.2,Win32,59.95203837,,,,,,,,,,,,,,,,,,,,,,,,,,,,,,,,,,,,,,,,,,,,,,,,,,,,-0.002314815,0.002314815,1,0,0,0.282,center_square,,,,,,,,,,,,,,,,,,,,,,,,,,,,,,,,,,,,,,,,,,,,,,,,,,,,
609248,001,2022-11-21_00h46.34.372,Info_measure_main_exp,2022.2.2,Win32,59.95203837,,,,,,,,,,,,,,,,,,masks/mask_004.jpg,,,,,,,,,,,,,,,,,,,,,,,,,,,,,,,,,,,,,,,,,,0,0,0,3,1,,,,,,,,,,,,,,,,,,,,,,,,,,,,,,,,,,,,,,,,,,,,,,
609248,001,2022-11-21_00h46.34.372,Info_measure_main_exp,2022.2.2,Win32,59.95203837,,,,,,,,,,,,,,,,,,masks/mask_002.jpg,,,,,,,,,,,,,,,,,,,,,,,,,,,,,,,,,,,,,,,,,,0,1,1,1,1,,,,,,,,,,,,,,,,,,,,,,,,,,,,,,,,,,,,,,,,,,,,,,
609248,001,2022-11-21_00h46.34.372,Info_measure_main_exp,2022.2.2,Win32,59.95203837,,,,,,,,,,,,,,,,,,masks/mask_001.jpg,,,,,,,,,,,,,,,,,,,,,,,,,,,,,,,,,,,,,,,,,,0,2,2,0,1,,,,,,,,,,,,,,,,,,,,,,,,,,,,,,,,,,,,,,,,,,,,,,
609248,001,2022-11-21_00h46.34.372,Info_measure_main_exp,2022.2.2,Win32,59.95203837,,,,,,,,,,,,,,,,,,masks/mask_003.jpg,,,,,,,,,,,,,,,,,,,,,,,,,,,,,,,,,,,,,,,,,,0,3,3,2,1,,,,,,,,,,,,,,,,,,,,,,,,,,,,,,,,,,,,,,,,,,,,,,
609248,001,2022-11-21_00h46.34.372,Info_measure_main_exp,2022.2.2,Win32,59.95203837,,,,,,,,,,,,,,,,,,masks/mask_005.jpg,,,,,,,,,,,,,,,,,,,,,,,,,,,,,,,,,,,,,,,,,,0,4,4,4,1,,,,,,,,,,,,,,,,,,,,,,,,,,,,,,,,,,,,,,,,,,,,,,
609248,001,2022-11-21_00h46.34.372,Info_measure_main_exp,2022.2.2,Win32,59.95203837,,,,,,,,,,,,,,,,,,masks/mask_004.jpg,,,,,,,,,,,,,,,,,,,,,,,,,,,,,,,,,,,,,,,,,,,,,,,0,0,0,3,1,,,,,,,,,,,,,,,,,,,,,,,,,,,,,,,,,,,,,,,,,
609248,001,2022-11-21_00h46.34.372,Info_measure_main_exp,2022.2.2,Win32,59.95203837,,,,,,,,,,,,,,,,,,masks/mask_003.jpg,,,,,,,,,,,,,,,,,,,,,,,,,,,,,,,,,,,,,,,,,,,,,,,0,1,1,2,1,,,,,,,,,,,,,,,,,,,,,,,,,,,,,,,,,,,,,,,,,
609248,001,2022-11-21_00h46.34.372,Info_measure_main_exp,2022.2.2,Win32,59.95203837,,,,,,,,,,,,,,,,,,masks/mask_001.jpg,,,,,,,,,,,,,,,,,,,,,,,,,,,,,,,,,,,,,,,,,,,,,,,0,2,2,0,1,,,,,,,,,,,,,,,,,,,,,,,,,,,,,,,,,,,,,,,,,
609248,001,2022-11-21_00h46.34.372,Info_measure_main_exp,2022.2.2,Win32,59.95203837,,,,,,,,,,,,,,,,,,masks/mask_002.jpg,,,,,,,,,,,,,,,,,,,,,,,,,,,,,,,,,,,,,,,,,,,,,,,0,3,3,1,1,,,,,,,,,,,,,,,,,,,,,,,,,,,,,,,,,,,,,,,,,
609248,001,2022-11-21_00h46.34.372,Info_measure_main_exp,2022.2.2,Win32,59.95203837,,,,,,,,,,,,,,,,,,masks/mask_005.jpg,,,,,,,,,,,,,,,,,,,,,,,,,,,,,,,,,,,,,,,,,,,,,,,0,4,4,4,1,,,,,,,,,,,,,,,,,,,,,,,,,,,,,,,,,,,,,,,,,
609248,001,2022-11-21_00h46.34.372,Info_measure_main_exp,2022.2.2,Win32,59.95203837,,,,,,,,,,,,,,,,,,,,,,,,,,,,,,7,0.851,1,,,,,,,,,,,,1,131,5,5,1,2142,present_patch/cong_131_5_a.jpg,absent_patch/patch0002142.jpg,,,,,,,,,,,,,,,,,,,0.056712963,0.127314815,1,0,0,response1disk,1,-0.002314815,0.003472222,1,0,0,center_square,0,0,0,80,1,,,,,,,,,,,,,,,,,,,,,,,
609248,001,2022-11-21_00h46.34.372,Info_measure_main_exp,2022.2.2,Win32,59.95203837,,,,,,,,,,,,,,,,,,masks/mask_003.jpg,,,,,,,,,,,,,,,,,,,,,,,,,,,,,,,,,,,,,,,,,,0,0,0,2,1,,,,,,,,,,,,,,,,,,,,,,,,,,,,,,,,,,,,,,,,,,,,,,
609248,001,2022-11-21_00h46.34.372,Info_measure_main_exp,2022.2.2,Win32,59.95203837,,,,,,,,,,,,,,,,,,masks/mask_001.jpg,,,,,,,,,,,,,,,,,,,,,,,,,,,,,,,,,,,,,,,,,,0,1,1,0,1,,,,,,,,,,,,,,,,,,,,,,,,,,,,,,,,,,,,,,,,,,,,,,
609248,001,2022-11-21_00h46.34.372,Info_measure_main_exp,2022.2.2,Win32,59.95203837,,,,,,,,,,,,,,,,,,masks/mask_004.jpg,,,,,,,,,,,,,,,,,,,,,,,,,,,,,,,,,,,,,,,,,,0,2,2,3,1,,,,,,,,,,,,,,,,,,,,,,,,,,,,,,,,,,,,,,,,,,,,,,
609248,001,2022-11-21_00h46.34.372,Info_measure_main_exp,2022.2.2,Win32,59.95203837,,,,,,,,,,,,,,,,,,masks/mask_005.jpg,,,,,,,,,,,,,,,,,,,,,,,,,,,,,,,,,,,,,,,,,,0,3,3,4,1,,,,,,,,,,,,,,,,,,,,,,,,,,,,,,,,,,,,,,,,,,,,,,
609248,001,2022-11-21_00h46.34.372,Info_measure_main_exp,2022.2.2,Win32,59.95203837,,,,,,,,,,,,,,,,,,masks/mask_002.jpg,,,,,,,,,,,,,,,,,,,,,,,,,,,,,,,,,,,,,,,,,,0,4,4,1,1,,,,,,,,,,,,,,,,,,,,,,,,,,,,,,,,,,,,,,,,,,,,,,
609248,001,2022-11-21_00h46.34.372,Info_measure_main_exp,2022.2.2,Win32,59.95203837,,,,,,,,,,,,,,,,,,masks/mask_005.jpg,,,,,,,,,,,,,,,,,,,,,,,,,,,,,,,,,,,,,,,,,,,,,,,0,0,0,4,1,,,,,,,,,,,,,,,,,,,,,,,,,,,,,,,,,,,,,,,,,
609248,001,2022-11-21_00h46.34.372,Info_measure_main_exp,2022.2.2,Win32,59.95203837,,,,,,,,,,,,,,,,,,masks/mask_004.jpg,,,,,,,,,,,,,,,,,,,,,,,,,,,,,,,,,,,,,,,,,,,,,,,0,1,1,3,1,,,,,,,,,,,,,,,,,,,,,,,,,,,,,,,,,,,,,,,,,
609248,001,2022-11-21_00h46.34.372,Info_measure_main_exp,2022.2.2,Win32,59.95203837,,,,,,,,,,,,,,,,,,masks/mask_001.jpg,,,,,,,,,,,,,,,,,,,,,,,,,,,,,,,,,,,,,,,,,,,,,,,0,2,2,0,1,,,,,,,,,,,,,,,,,,,,,,,,,,,,,,,,,,,,,,,,,
609248,001,2022-11-21_00h46.34.372,Info_measure_main_exp,2022.2.2,Win32,59.95203837,,,,,,,,,,,,,,,,,,masks/mask_003.jpg,,,,,,,,,,,,,,,,,,,,,,,,,,,,,,,,,,,,,,,,,,,,,,,0,3,3,2,1,,,,,,,,,,,,,,,,,,,,,,,,,,,,,,,,,,,,,,,,,
609248,001,2022-11-21_00h46.34.372,Info_measure_main_exp,2022.2.2,Win32,59.95203837,,,,,,,,,,,,,,,,,,masks/mask_002.jpg,,,,,,,,,,,,,,,,,,,,,,,,,,,,,,,,,,,,,,,,,,,,,,,0,4,4,1,1,,,,,,,,,,,,,,,,,,,,,,,,,,,,,,,,,,,,,,,,,
609248,001,2022-11-21_00h46.34.372,Info_measure_main_exp,2022.2.2,Win32,59.95203837,,,,,,,,,,,,,,,,,,,,,,,,,,,,,,4,3.684,1,,,,,,,,,,,,0,131,5,5,2250,2214,absent_patch/patch0002250.jpg,absent_patch/patch0002214.jpg,,,,,,,,,,,,,,,,,,,0.081018519,-0.12037037,1,0,0,response3disk,2,0.010416667,-0.002314815,1,0,0,center_square,0,1,1,97,1,,,,,,,,,,,,,,,,,,,,,,,
609248,001,2022-11-21_00h46.34.372,Info_measure_main_exp,2022.2.2,Win32,59.95203837,,,,,,,,,,,,,,,,,,masks/mask_001.jpg,,,,,,,,,,,,,,,,,,,,,,,,,,,,,,,,,,,,,,,,,,0,0,0,0,1,,,,,,,,,,,,,,,,,,,,,,,,,,,,,,,,,,,,,,,,,,,,,,
609248,001,2022-11-21_00h46.34.372,Info_measure_main_exp,2022.2.2,Win32,59.95203837,,,,,,,,,,,,,,,,,,masks/mask_003.jpg,,,,,,,,,,,,,,,,,,,,,,,,,,,,,,,,,,,,,,,,,,0,1,1,2,1,,,,,,,,,,,,,,,,,,,,,,,,,,,,,,,,,,,,,,,,,,,,,,
609248,001,2022-11-21_00h46.34.372,Info_measure_main_exp,2022.2.2,Win32,59.95203837,,,,,,,,,,,,,,,,,,masks/mask_005.jpg,,,,,,,,,,,,,,,,,,,,,,,,,,,,,,,,,,,,,,,,,,0,2,2,4,1,,,,,,,,,,,,,,,,,,,,,,,,,,,,,,,,,,,,,,,,,,,,,,
609248,001,2022-11-21_00h46.34.372,Info_measure_main_exp,2022.2.2,Win32,59.95203837,,,,,,,,,,,,,,,,,,masks/mask_004.jpg,,,,,,,,,,,,,,,,,,,,,,,,,,,,,,,,,,,,,,,,,,0,3,3,3,1,,,,,,,,,,,,,,,,,,,,,,,,,,,,,,,,,,,,,,,,,,,,,,
609248,001,2022-11-21_00h46.34.372,Info_measure_main_exp,2022.2.2,Win32,59.95203837,,,,,,,,,,,,,,,,,,masks/mask_002.jpg,,,,,,,,,,,,,,,,,,,,,,,,,,,,,,,,,,,,,,,,,,0,4,4,1,1,,,,,,,,,,,,,,,,,,,,,,,,,,,,,,,,,,,,,,,,,,,,,,
609248,001,2022-11-21_00h46.34.372,Info_measure_main_exp,2022.2.2,Win32,59.95203837,,,,,,,,,,,,,,,,,,masks/mask_005.jpg,,,,,,,,,,,,,,,,,,,,,,,,,,,,,,,,,,,,,,,,,,,,,,,0,0,0,4,1,,,,,,,,,,,,,,,,,,,,,,,,,,,,,,,,,,,,,,,,,
609248,001,2022-11-21_00h46.34.372,Info_measure_main_exp,2022.2.2,Win32,59.95203837,,,,,,,,,,,,,,,,,,masks/mask_002.jpg,,,,,,,,,,,,,,,,,,,,,,,,,,,,,,,,,,,,,,,,,,,,,,,0,1,1,1,1,,,,,,,,,,,,,,,,,,,,,,,,,,,,,,,,,,,,,,,,,
609248,001,2022-11-21_00h46.34.372,Info_measure_main_exp,2022.2.2,Win32,59.95203837,,,,,,,,,,,,,,,,,,masks/mask_004.jpg,,,,,,,,,,,,,,,,,,,,,,,,,,,,,,,,,,,,,,,,,,,,,,,0,2,2,3,1,,,,,,,,,,,,,,,,,,,,,,,,,,,,,,,,,,,,,,,,,
609248,001,2022-11-21_00h46.34.372,Info_measure_main_exp,2022.2.2,Win32,59.95203837,,,,,,,,,,,,,,,,,,masks/mask_003.jpg,,,,,,,,,,,,,,,,,,,,,,,,,,,,,,,,,,,,,,,,,,,,,,,0,3,3,2,1,,,,,,,,,,,,,,,,,,,,,,,,,,,,,,,,,,,,,,,,,
609248,001,2022-11-21_00h46.34.372,Info_measure_main_exp,2022.2.2,Win32,59.95203837,,,,,,,,,,,,,,,,,,masks/mask_001.jpg,,,,,,,,,,,,,,,,,,,,,,,,,,,,,,,,,,,,,,,,,,,,,,,0,4,4,0,1,,,,,,,,,,,,,,,,,,,,,,,,,,,,,,,,,,,,,,,,,
609248,001,2022-11-21_00h46.34.372,Info_measure_main_exp,2022.2.2,Win32,59.95203837,,,,,,,,,,,,,,,,,,,,,,,,,,,,,,6,2.468,1,,,,,,,,,,,,0,131,5,5,2274,2250,absent_patch/patch0002274.jpg,absent_patch/patch0002250.jpg,,,,,,,,,,,,,,,,,,,0.085648148,0.055555556,1,0,0,response1disk,3,0.002314815,0.011574074,1,0,0,center_square,0,2,2,28,1,,,,,,,,,,,,,,,,,,,,,,,
609248,001,2022-11-21_00h46.34.372,Info_measure_main_exp,2022.2.2,Win32,59.95203837,,,,,,,,,,,,,,,,,,masks/mask_001.jpg,,,,,,,,,,,,,,,,,,,,,,,,,,,,,,,,,,,,,,,,,,0,0,0,0,1,,,,,,,,,,,,,,,,,,,,,,,,,,,,,,,,,,,,,,,,,,,,,,
609248,001,2022-11-21_00h46.34.372,Info_measure_main_exp,2022.2.2,Win32,59.95203837,,,,,,,,,,,,,,,,,,masks/mask_004.jpg,,,,,,,,,,,,,,,,,,,,,,,,,,,,,,,,,,,,,,,,,,0,1,1,3,1,,,,,,,,,,,,,,,,,,,,,,,,,,,,,,,,,,,,,,,,,,,,,,
609248,001,2022-11-21_00h46.34.372,Info_measure_main_exp,2022.2.2,Win32,59.95203837,,,,,,,,,,,,,,,,,,masks/mask_002.jpg,,,,,,,,,,,,,,,,,,,,,,,,,,,,,,,,,,,,,,,,,,0,2,2,1,1,,,,,,,,,,,,,,,,,,,,,,,,,,,,,,,,,,,,,,,,,,,,,,
609248,001,2022-11-21_00h46.34.372,Info_measure_main_exp,2022.2.2,Win32,59.95203837,,,,,,,,,,,,,,,,,,masks/mask_003.jpg,,,,,,,,,,,,,,,,,,,,,,,,,,,,,,,,,,,,,,,,,,0,3,3,2,1,,,,,,,,,,,,,,,,,,,,,,,,,,,,,,,,,,,,,,,,,,,,,,
609248,001,2022-11-21_00h46.34.372,Info_measure_main_exp,2022.2.2,Win32,59.95203837,,,,,,,,,,,,,,,,,,masks/mask_005.jpg,,,,,,,,,,,,,,,,,,,,,,,,,,,,,,,,,,,,,,,,,,0,4,4,4,1,,,,,,,,,,,,,,,,,,,,,,,,,,,,,,,,,,,,,,,,,,,,,,
609248,001,2022-11-21_00h46.34.372,Info_measure_main_exp,2022.2.2,Win32,59.95203837,,,,,,,,,,,,,,,,,,masks/mask_003.jpg,,,,,,,,,,,,,,,,,,,,,,,,,,,,,,,,,,,,,,,,,,,,,,,0,0,0,2,1,,,,,,,,,,,,,,,,,,,,,,,,,,,,,,,,,,,,,,,,,
609248,001,2022-11-21_00h46.34.372,Info_measure_main_exp,2022.2.2,Win32,59.95203837,,,,,,,,,,,,,,,,,,masks/mask_004.jpg,,,,,,,,,,,,,,,,,,,,,,,,,,,,,,,,,,,,,,,,,,,,,,,0,1,1,3,1,,,,,,,,,,,,,,,,,,,,,,,,,,,,,,,,,,,,,,,,,
609248,001,2022-11-21_00h46.34.372,Info_measure_main_exp,2022.2.2,Win32,59.95203837,,,,,,,,,,,,,,,,,,masks/mask_005.jpg,,,,,,,,,,,,,,,,,,,,,,,,,,,,,,,,,,,,,,,,,,,,,,,0,2,2,4,1,,,,,,,,,,,,,,,,,,,,,,,,,,,,,,,,,,,,,,,,,
609248,001,2022-11-21_00h46.34.372,Info_measure_main_exp,2022.2.2,Win32,59.95203837,,,,,,,,,,,,,,,,,,masks/mask_002.jpg,,,,,,,,,,,,,,,,,,,,,,,,,,,,,,,,,,,,,,,,,,,,,,,0,3,3,1,1,,,,,,,,,,,,,,,,,,,,,,,,,,,,,,,,,,,,,,,,,
609248,001,2022-11-21_00h46.34.372,Info_measure_main_exp,2022.2.2,Win32,59.95203837,,,,,,,,,,,,,,,,,,masks/mask_001.jpg,,,,,,,,,,,,,,,,,,,,,,,,,,,,,,,,,,,,,,,,,,,,,,,0,4,4,0,1,,,,,,,,,,,,,,,,,,,,,,,,,,,,,,,,,,,,,,,,,
609248,001,2022-11-21_00h46.34.372,Info_measure_main_exp,2022.2.2,Win32,59.95203837,,,,,,,,,,,,,,,,,,,,,,,,,,,,,,7,0.816,1,,,,,,,,,,,,0,131,5,5,2142,2154,absent_patch/patch0002142.jpg,absent_patch/patch0002154.jpg,,,,,,,,,,,,,,,,,,,0.027777778,0.0625,1,0,0,response1disk,4,0.001157407,-0.00462963,1,0,0,center_square,0,3,3,9,1,,,,,,,,,,,,,,,,,,,,,,,
609248,001,2022-11-21_00h46.34.372,Info_measure_main_exp,2022.2.2,Win32,59.95203837,,,,,,,,,,,,,,,,,,masks/mask_005.jpg,,,,,,,,,,,,,,,,,,,,,,,,,,,,,,,,,,,,,,,,,,0,0,0,4,1,,,,,,,,,,,,,,,,,,,,,,,,,,,,,,,,,,,,,,,,,,,,,,
609248,001,2022-11-21_00h46.34.372,Info_measure_main_exp,2022.2.2,Win32,59.95203837,,,,,,,,,,,,,,,,,,masks/mask_002.jpg,,,,,,,,,,,,,,,,,,,,,,,,,,,,,,,,,,,,,,,,,,0,1,1,1,1,,,,,,,,,,,,,,,,,,,,,,,,,,,,,,,,,,,,,,,,,,,,,,
609248,001,2022-11-21_00h46.34.372,Info_measure_main_exp,2022.2.2,Win32,59.95203837,,,,,,,,,,,,,,,,,,masks/mask_001.jpg,,,,,,,,,,,,,,,,,,,,,,,,,,,,,,,,,,,,,,,,,,0,2,2,0,1,,,,,,,,,,,,,,,,,,,,,,,,,,,,,,,,,,,,,,,,,,,,,,
609248,001,2022-11-21_00h46.34.372,Info_measure_main_exp,2022.2.2,Win32,59.95203837,,,,,,,,,,,,,,,,,,masks/mask_004.jpg,,,,,,,,,,,,,,,,,,,,,,,,,,,,,,,,,,,,,,,,,,0,3,3,3,1,,,,,,,,,,,,,,,,,,,,,,,,,,,,,,,,,,,,,,,,,,,,,,
609248,001,2022-11-21_00h46.34.372,Info_measure_main_exp,2022.2.2,Win32,59.95203837,,,,,,,,,,,,,,,,,,masks/mask_003.jpg,,,,,,,,,,,,,,,,,,,,,,,,,,,,,,,,,,,,,,,,,,0,4,4,2,1,,,,,,,,,,,,,,,,,,,,,,,,,,,,,,,,,,,,,,,,,,,,,,
609248,001,2022-11-21_00h46.34.372,Info_measure_main_exp,2022.2.2,Win32,59.95203837,,,,,,,,,,,,,,,,,,masks/mask_004.jpg,,,,,,,,,,,,,,,,,,,,,,,,,,,,,,,,,,,,,,,,,,,,,,,0,0,0,3,1,,,,,,,,,,,,,,,,,,,,,,,,,,,,,,,,,,,,,,,,,
609248,001,2022-11-21_00h46.34.372,Info_measure_main_exp,2022.2.2,Win32,59.95203837,,,,,,,,,,,,,,,,,,masks/mask_003.jpg,,,,,,,,,,,,,,,,,,,,,,,,,,,,,,,,,,,,,,,,,,,,,,,0,1,1,2,1,,,,,,,,,,,,,,,,,,,,,,,,,,,,,,,,,,,,,,,,,
609248,001,2022-11-21_00h46.34.372,Info_measure_main_exp,2022.2.2,Win32,59.95203837,,,,,,,,,,,,,,,,,,masks/mask_001.jpg,,,,,,,,,,,,,,,,,,,,,,,,,,,,,,,,,,,,,,,,,,,,,,,0,2,2,0,1,,,,,,,,,,,,,,,,,,,,,,,,,,,,,,,,,,,,,,,,,
609248,001,2022-11-21_00h46.34.372,Info_measure_main_exp,2022.2.2,Win32,59.95203837,,,,,,,,,,,,,,,,,,masks/mask_002.jpg,,,,,,,,,,,,,,,,,,,,,,,,,,,,,,,,,,,,,,,,,,,,,,,0,3,3,1,1,,,,,,,,,,,,,,,,,,,,,,,,,,,,,,,,,,,,,,,,,
609248,001,2022-11-21_00h46.34.372,Info_measure_main_exp,2022.2.2,Win32,59.95203837,,,,,,,,,,,,,,,,,,masks/mask_005.jpg,,,,,,,,,,,,,,,,,,,,,,,,,,,,,,,,,,,,,,,,,,,,,,,0,4,4,4,1,,,,,,,,,,,,,,,,,,,,,,,,,,,,,,,,,,,,,,,,,
609248,001,2022-11-21_00h46.34.372,Info_measure_main_exp,2022.2.2,Win32,59.95203837,,,,,,,,,,,,,,,,,,,,,,,,,,,,,,4,1.383,1,,,,,,,,,,,,0,131,5,5,2298,2190,absent_patch/patch0002298.jpg,absent_patch/patch0002190.jpg,,,,,,,,,,,,,,,,,,,0.001157407,-0.15625,1,0,0,response3disk,5,0,-0.009259259,1,0,0,center_square,0,4,4,20,1,,,,,,,,,,,,,,,,,,,,,,,
609248,001,2022-11-21_00h46.34.372,Info_measure_main_exp,2022.2.2,Win32,59.95203837,,,,,,,,,,,,,,,,,,masks/mask_003.jpg,,,,,,,,,,,,,,,,,,,,,,,,,,,,,,,,,,,,,,,,,,0,0,0,2,1,,,,,,,,,,,,,,,,,,,,,,,,,,,,,,,,,,,,,,,,,,,,,,
609248,001,2022-11-21_00h46.34.372,Info_measure_main_exp,2022.2.2,Win32,59.95203837,,,,,,,,,,,,,,,,,,masks/mask_001.jpg,,,,,,,,,,,,,,,,,,,,,,,,,,,,,,,,,,,,,,,,,,0,1,1,0,1,,,,,,,,,,,,,,,,,,,,,,,,,,,,,,,,,,,,,,,,,,,,,,
609248,001,2022-11-21_00h46.34.372,Info_measure_main_exp,2022.2.2,Win32,59.95203837,,,,,,,,,,,,,,,,,,masks/mask_004.jpg,,,,,,,,,,,,,,,,,,,,,,,,,,,,,,,,,,,,,,,,,,0,2,2,3,1,,,,,,,,,,,,,,,,,,,,,,,,,,,,,,,,,,,,,,,,,,,,,,
609248,001,2022-11-21_00h46.34.372,Info_measure_main_exp,2022.2.2,Win32,59.95203837,,,,,,,,,,,,,,,,,,masks/mask_002.jpg,,,,,,,,,,,,,,,,,,,,,,,,,,,,,,,,,,,,,,,,,,0,3,3,1,1,,,,,,,,,,,,,,,,,,,,,,,,,,,,,,,,,,,,,,,,,,,,,,
609248,001,2022-11-21_00h46.34.372,Info_measure_main_exp,2022.2.2,Win32,59.95203837,,,,,,,,,,,,,,,,,,masks/mask_005.jpg,,,,,,,,,,,,,,,,,,,,,,,,,,,,,,,,,,,,,,,,,,0,4,4,4,1,,,,,,,,,,,,,,,,,,,,,,,,,,,,,,,,,,,,,,,,,,,,,,
609248,001,2022-11-21_00h46.34.372,Info_measure_main_exp,2022.2.2,Win32,59.95203837,,,,,,,,,,,,,,,,,,masks/mask_003.jpg,,,,,,,,,,,,,,,,,,,,,,,,,,,,,,,,,,,,,,,,,,,,,,,0,0,0,2,1,,,,,,,,,,,,,,,,,,,,,,,,,,,,,,,,,,,,,,,,,
609248,001,2022-11-21_00h46.34.372,Info_measure_main_exp,2022.2.2,Win32,59.95203837,,,,,,,,,,,,,,,,,,masks/mask_001.jpg,,,,,,,,,,,,,,,,,,,,,,,,,,,,,,,,,,,,,,,,,,,,,,,0,1,1,0,1,,,,,,,,,,,,,,,,,,,,,,,,,,,,,,,,,,,,,,,,,
609248,001,2022-11-21_00h46.34.372,Info_measure_main_exp,2022.2.2,Win32,59.95203837,,,,,,,,,,,,,,,,,,masks/mask_005.jpg,,,,,,,,,,,,,,,,,,,,,,,,,,,,,,,,,,,,,,,,,,,,,,,0,2,2,4,1,,,,,,,,,,,,,,,,,,,,,,,,,,,,,,,,,,,,,,,,,
609248,001,2022-11-21_00h46.34.372,Info_measure_main_exp,2022.2.2,Win32,59.95203837,,,,,,,,,,,,,,,,,,masks/mask_002.jpg,,,,,,,,,,,,,,,,,,,,,,,,,,,,,,,,,,,,,,,,,,,,,,,0,3,3,1,1,,,,,,,,,,,,,,,,,,,,,,,,,,,,,,,,,,,,,,,,,
609248,001,2022-11-21_00h46.34.372,Info_measure_main_exp,2022.2.2,Win32,59.95203837,,,,,,,,,,,,,,,,,,masks/mask_004.jpg,,,,,,,,,,,,,,,,,,,,,,,,,,,,,,,,,,,,,,,,,,,,,,,0,4,4,3,1,,,,,,,,,,,,,,,,,,,,,,,,,,,,,,,,,,,,,,,,,
609248,001,2022-11-21_00h46.34.372,Info_measure_main_exp,2022.2.2,Win32,59.95203837,,,,,,,,,,,,,,,,,,,,,,,,,,,,,,0,0.817,1,,,,,,,,,,,,0,131,5,5,2154,2154,absent_patch/patch0002154.jpg,absent_patch/patch0002154.jpg,,,,,,,,,,,,,,,,,,,-0.054398148,0.100694444,1,0,0,response7disk,6,0.001157407,-0.010416667,1,0,0,center_square,0,5,5,89,1,,,,,,,,,,,,,,,,,,,,,,,
609248,001,2022-11-21_00h46.34.372,Info_measure_main_exp,2022.2.2,Win32,59.95203837,,,,,,,,,,,,,,,,,,masks/mask_002.jpg,,,,,,,,,,,,,,,,,,,,,,,,,,,,,,,,,,,,,,,,,,0,0,0,1,1,,,,,,,,,,,,,,,,,,,,,,,,,,,,,,,,,,,,,,,,,,,,,,
609248,001,2022-11-21_00h46.34.372,Info_measure_main_exp,2022.2.2,Win32,59.95203837,,,,,,,,,,,,,,,,,,masks/mask_004.jpg,,,,,,,,,,,,,,,,,,,,,,,,,,,,,,,,,,,,,,,,,,0,1,1,3,1,,,,,,,,,,,,,,,,,,,,,,,,,,,,,,,,,,,,,,,,,,,,,,
609248,001,2022-11-21_00h46.34.372,Info_measure_main_exp,2022.2.2,Win32,59.95203837,,,,,,,,,,,,,,,,,,masks/mask_001.jpg,,,,,,,,,,,,,,,,,,,,,,,,,,,,,,,,,,,,,,,,,,0,2,2,0,1,,,,,,,,,,,,,,,,,,,,,,,,,,,,,,,,,,,,,,,,,,,,,,
609248,001,2022-11-21_00h46.34.372,Info_measure_main_exp,2022.2.2,Win32,59.95203837,,,,,,,,,,,,,,,,,,masks/mask_005.jpg,,,,,,,,,,,,,,,,,,,,,,,,,,,,,,,,,,,,,,,,,,0,3,3,4,1,,,,,,,,,,,,,,,,,,,,,,,,,,,,,,,,,,,,,,,,,,,,,,
609248,001,2022-11-21_00h46.34.372,Info_measure_main_exp,2022.2.2,Win32,59.95203837,,,,,,,,,,,,,,,,,,masks/mask_003.jpg,,,,,,,,,,,,,,,,,,,,,,,,,,,,,,,,,,,,,,,,,,0,4,4,2,1,,,,,,,,,,,,,,,,,,,,,,,,,,,,,,,,,,,,,,,,,,,,,,
609248,001,2022-11-21_00h46.34.372,Info_measure_main_exp,2022.2.2,Win32,59.95203837,,,,,,,,,,,,,,,,,,masks/mask_005.jpg,,,,,,,,,,,,,,,,,,,,,,,,,,,,,,,,,,,,,,,,,,,,,,,0,0,0,4,1,,,,,,,,,,,,,,,,,,,,,,,,,,,,,,,,,,,,,,,,,
609248,001,2022-11-21_00h46.34.372,Info_measure_main_exp,2022.2.2,Win32,59.95203837,,,,,,,,,,,,,,,,,,masks/mask_002.jpg,,,,,,,,,,,,,,,,,,,,,,,,,,,,,,,,,,,,,,,,,,,,,,,0,1,1,1,1,,,,,,,,,,,,,,,,,,,,,,,,,,,,,,,,,,,,,,,,,
609248,001,2022-11-21_00h46.34.372,Info_measure_main_exp,2022.2.2,Win32,59.95203837,,,,,,,,,,,,,,,,,,masks/mask_001.jpg,,,,,,,,,,,,,,,,,,,,,,,,,,,,,,,,,,,,,,,,,,,,,,,0,2,2,0,1,,,,,,,,,,,,,,,,,,,,,,,,,,,,,,,,,,,,,,,,,
609248,001,2022-11-21_00h46.34.372,Info_measure_main_exp,2022.2.2,Win32,59.95203837,,,,,,,,,,,,,,,,,,masks/mask_004.jpg,,,,,,,,,,,,,,,,,,,,,,,,,,,,,,,,,,,,,,,,,,,,,,,0,3,3,3,1,,,,,,,,,,,,,,,,,,,,,,,,,,,,,,,,,,,,,,,,,
609248,001,2022-11-21_00h46.34.372,Info_measure_main_exp,2022.2.2,Win32,59.95203837,,,,,,,,,,,,,,,,,,masks/mask_003.jpg,,,,,,,,,,,,,,,,,,,,,,,,,,,,,,,,,,,,,,,,,,,,,,,0,4,4,2,1,,,,,,,,,,,,,,,,,,,,,,,,,,,,,,,,,,,,,,,,,
609248,001,2022-11-21_00h46.34.372,Info_measure_main_exp,2022.2.2,Win32,59.95203837,,,,,,,,,,,,,,,,,,,,,,,,,,,,,,7,1.033,1,,,,,,,,,,,,0,131,5,5,2214,2142,absent_patch/patch0002214.jpg,absent_patch/patch0002142.jpg,,,,,,,,,,,,,,,,,,,0.047453704,0.115740741,1,0,0,response1disk,7,0.010416667,0.00462963,1,0,0,center_square,0,6,6,102,1,,,,,,,,,,,,,,,,,,,,,,,
609248,001,2022-11-21_00h46.34.372,Info_measure_main_exp,2022.2.2,Win32,59.95203837,,,,,,,,,,,,,,,,,,masks/mask_004.jpg,,,,,,,,,,,,,,,,,,,,,,,,,,,,,,,,,,,,,,,,,,0,0,0,3,1,,,,,,,,,,,,,,,,,,,,,,,,,,,,,,,,,,,,,,,,,,,,,,
609248,001,2022-11-21_00h46.34.372,Info_measure_main_exp,2022.2.2,Win32,59.95203837,,,,,,,,,,,,,,,,,,masks/mask_003.jpg,,,,,,,,,,,,,,,,,,,,,,,,,,,,,,,,,,,,,,,,,,0,1,1,2,1,,,,,,,,,,,,,,,,,,,,,,,,,,,,,,,,,,,,,,,,,,,,,,
609248,001,2022-11-21_00h46.34.372,Info_measure_main_exp,2022.2.2,Win32,59.95203837,,,,,,,,,,,,,,,,,,masks/mask_005.jpg,,,,,,,,,,,,,,,,,,,,,,,,,,,,,,,,,,,,,,,,,,0,2,2,4,1,,,,,,,,,,,,,,,,,,,,,,,,,,,,,,,,,,,,,,,,,,,,,,
609248,001,2022-11-21_00h46.34.372,Info_measure_main_exp,2022.2.2,Win32,59.95203837,,,,,,,,,,,,,,,,,,masks/mask_001.jpg,,,,,,,,,,,,,,,,,,,,,,,,,,,,,,,,,,,,,,,,,,0,3,3,0,1,,,,,,,,,,,,,,,,,,,,,,,,,,,,,,,,,,,,,,,,,,,,,,
609248,001,2022-11-21_00h46.34.372,Info_measure_main_exp,2022.2.2,Win32,59.95203837,,,,,,,,,,,,,,,,,,masks/mask_002.jpg,,,,,,,,,,,,,,,,,,,,,,,,,,,,,,,,,,,,,,,,,,0,4,4,1,1,,,,,,,,,,,,,,,,,,,,,,,,,,,,,,,,,,,,,,,,,,,,,,
609248,001,2022-11-21_00h46.34.372,Info_measure_main_exp,2022.2.2,Win32,59.95203837,,,,,,,,,,,,,,,,,,masks/mask_004.jpg,,,,,,,,,,,,,,,,,,,,,,,,,,,,,,,,,,,,,,,,,,,,,,,0,0,0,3,1,,,,,,,,,,,,,,,,,,,,,,,,,,,,,,,,,,,,,,,,,
609248,001,2022-11-21_00h46.34.372,Info_measure_main_exp,2022.2.2,Win32,59.95203837,,,,,,,,,,,,,,,,,,masks/mask_003.jpg,,,,,,,,,,,,,,,,,,,,,,,,,,,,,,,,,,,,,,,,,,,,,,,0,1,1,2,1,,,,,,,,,,,,,,,,,,,,,,,,,,,,,,,,,,,,,,,,,
609248,001,2022-11-21_00h46.34.372,Info_measure_main_exp,2022.2.2,Win32,59.95203837,,,,,,,,,,,,,,,,,,masks/mask_002.jpg,,,,,,,,,,,,,,,,,,,,,,,,,,,,,,,,,,,,,,,,,,,,,,,0,2,2,1,1,,,,,,,,,,,,,,,,,,,,,,,,,,,,,,,,,,,,,,,,,
609248,001,2022-11-21_00h46.34.372,Info_measure_main_exp,2022.2.2,Win32,59.95203837,,,,,,,,,,,,,,,,,,masks/mask_005.jpg,,,,,,,,,,,,,,,,,,,,,,,,,,,,,,,,,,,,,,,,,,,,,,,0,3,3,4,1,,,,,,,,,,,,,,,,,,,,,,,,,,,,,,,,,,,,,,,,,
609248,001,2022-11-21_00h46.34.372,Info_measure_main_exp,2022.2.2,Win32,59.95203837,,,,,,,,,,,,,,,,,,masks/mask_001.jpg,,,,,,,,,,,,,,,,,,,,,,,,,,,,,,,,,,,,,,,,,,,,,,,0,4,4,0,1,,,,,,,,,,,,,,,,,,,,,,,,,,,,,,,,,,,,,,,,,
609248,001,2022-11-21_00h46.34.372,Info_measure_main_exp,2022.2.2,Win32,59.95203837,,,,,,,,,,,,,,,,,,,,,,,,,,,,,,0,0.617,1,,,,,,,,,,,,1,131,5,5,1,1,present_patch/cong_131_5_a.jpg,present_patch/cong_131_5_a.jpg,,,,,,,,,,,,,,,,,,,-0.032407407,0.105324074,1,0,0,response7disk,8,0.005787037,0.00462963,1,0,0,center_square,0,7,7,30,1,,,,,,,,,,,,,,,,,,,,,,,
609248,001,2022-11-21_00h46.34.372,Info_measure_main_exp,2022.2.2,Win32,59.95203837,,,,,,,,,,,,,,,,,,masks/mask_003.jpg,,,,,,,,,,,,,,,,,,,,,,,,,,,,,,,,,,,,,,,,,,0,0,0,2,1,,,,,,,,,,,,,,,,,,,,,,,,,,,,,,,,,,,,,,,,,,,,,,
609248,001,2022-11-21_00h46.34.372,Info_measure_main_exp,2022.2.2,Win32,59.95203837,,,,,,,,,,,,,,,,,,masks/mask_001.jpg,,,,,,,,,,,,,,,,,,,,,,,,,,,,,,,,,,,,,,,,,,0,1,1,0,1,,,,,,,,,,,,,,,,,,,,,,,,,,,,,,,,,,,,,,,,,,,,,,
609248,001,2022-11-21_00h46.34.372,Info_measure_main_exp,2022.2.2,Win32,59.95203837,,,,,,,,,,,,,,,,,,masks/mask_005.jpg,,,,,,,,,,,,,,,,,,,,,,,,,,,,,,,,,,,,,,,,,,0,2,2,4,1,,,,,,,,,,,,,,,,,,,,,,,,,,,,,,,,,,,,,,,,,,,,,,
609248,001,2022-11-21_00h46.34.372,Info_measure_main_exp,2022.2.2,Win32,59.95203837,,,,,,,,,,,,,,,,,,masks/mask_002.jpg,,,,,,,,,,,,,,,,,,,,,,,,,,,,,,,,,,,,,,,,,,0,3,3,1,1,,,,,,,,,,,,,,,,,,,,,,,,,,,,,,,,,,,,,,,,,,,,,,
609248,001,2022-11-21_00h46.34.372,Info_measure_main_exp,2022.2.2,Win32,59.95203837,,,,,,,,,,,,,,,,,,masks/mask_004.jpg,,,,,,,,,,,,,,,,,,,,,,,,,,,,,,,,,,,,,,,,,,0,4,4,3,1,,,,,,,,,,,,,,,,,,,,,,,,,,,,,,,,,,,,,,,,,,,,,,
609248,001,2022-11-21_00h46.34.372,Info_measure_main_exp,2022.2.2,Win32,59.95203837,,,,,,,,,,,,,,,,,,masks/mask_003.jpg,,,,,,,,,,,,,,,,,,,,,,,,,,,,,,,,,,,,,,,,,,,,,,,0,0,0,2,1,,,,,,,,,,,,,,,,,,,,,,,,,,,,,,,,,,,,,,,,,
609248,001,2022-11-21_00h46.34.372,Info_measure_main_exp,2022.2.2,Win32,59.95203837,,,,,,,,,,,,,,,,,,masks/mask_001.jpg,,,,,,,,,,,,,,,,,,,,,,,,,,,,,,,,,,,,,,,,,,,,,,,0,1,1,0,1,,,,,,,,,,,,,,,,,,,,,,,,,,,,,,,,,,,,,,,,,
609248,001,2022-11-21_00h46.34.372,Info_measure_main_exp,2022.2.2,Win32,59.95203837,,,,,,,,,,,,,,,,,,masks/mask_004.jpg,,,,,,,,,,,,,,,,,,,,,,,,,,,,,,,,,,,,,,,,,,,,,,,0,2,2,3,1,,,,,,,,,,,,,,,,,,,,,,,,,,,,,,,,,,,,,,,,,
609248,001,2022-11-21_00h46.34.372,Info_measure_main_exp,2022.2.2,Win32,59.95203837,,,,,,,,,,,,,,,,,,masks/mask_002.jpg,,,,,,,,,,,,,,,,,,,,,,,,,,,,,,,,,,,,,,,,,,,,,,,0,3,3,1,1,,,,,,,,,,,,,,,,,,,,,,,,,,,,,,,,,,,,,,,,,
609248,001,2022-11-21_00h46.34.372,Info_measure_main_exp,2022.2.2,Win32,59.95203837,,,,,,,,,,,,,,,,,,masks/mask_005.jpg,,,,,,,,,,,,,,,,,,,,,,,,,,,,,,,,,,,,,,,,,,,,,,,0,4,4,4,1,,,,,,,,,,,,,,,,,,,,,,,,,,,,,,,,,,,,,,,,,
609248,001,2022-11-21_00h46.34.372,Info_measure_main_exp,2022.2.2,Win32,59.95203837,,,,,,,,,,,,,,,,,,,,,,,,,,,,,,6,1.017,1,,,,,,,,,,,,0,131,5,5,2142,2238,absent_patch/patch0002142.jpg,absent_patch/patch0002238.jpg,,,,,,,,,,,,,,,,,,,0.082175926,0.011574074,1,0,0,response1disk,9,0.00462963,-0.002314815,1,0,0,center_square,0,8,8,101,1,,,,,,,,,,,,,,,,,,,,,,,
609248,001,2022-11-21_00h46.34.372,Info_measure_main_exp,2022.2.2,Win32,59.95203837,,,,,,,,,,,,,,,,,,masks/mask_004.jpg,,,,,,,,,,,,,,,,,,,,,,,,,,,,,,,,,,,,,,,,,,0,0,0,3,1,,,,,,,,,,,,,,,,,,,,,,,,,,,,,,,,,,,,,,,,,,,,,,
609248,001,2022-11-21_00h46.34.372,Info_measure_main_exp,2022.2.2,Win32,59.95203837,,,,,,,,,,,,,,,,,,masks/mask_005.jpg,,,,,,,,,,,,,,,,,,,,,,,,,,,,,,,,,,,,,,,,,,0,1,1,4,1,,,,,,,,,,,,,,,,,,,,,,,,,,,,,,,,,,,,,,,,,,,,,,
609248,001,2022-11-21_00h46.34.372,Info_measure_main_exp,2022.2.2,Win32,59.95203837,,,,,,,,,,,,,,,,,,masks/mask_002.jpg,,,,,,,,,,,,,,,,,,,,,,,,,,,,,,,,,,,,,,,,,,0,2,2,1,1,,,,,,,,,,,,,,,,,,,,,,,,,,,,,,,,,,,,,,,,,,,,,,
609248,001,2022-11-21_00h46.34.372,Info_measure_main_exp,2022.2.2,Win32,59.95203837,,,,,,,,,,,,,,,,,,masks/mask_001.jpg,,,,,,,,,,,,,,,,,,,,,,,,,,,,,,,,,,,,,,,,,,0,3,3,0,1,,,,,,,,,,,,,,,,,,,,,,,,,,,,,,,,,,,,,,,,,,,,,,
609248,001,2022-11-21_00h46.34.372,Info_measure_main_exp,2022.2.2,Win32,59.95203837,,,,,,,,,,,,,,,,,,masks/mask_003.jpg,,,,,,,,,,,,,,,,,,,,,,,,,,,,,,,,,,,,,,,,,,0,4,4,2,1,,,,,,,,,,,,,,,,,,,,,,,,,,,,,,,,,,,,,,,,,,,,,,
609248,001,2022-11-21_00h46.34.372,Info_measure_main_exp,2022.2.2,Win32,59.95203837,,,,,,,,,,,,,,,,,,masks/mask_005.jpg,,,,,,,,,,,,,,,,,,,,,,,,,,,,,,,,,,,,,,,,,,,,,,,0,0,0,4,1,,,,,,,,,,,,,,,,,,,,,,,,,,,,,,,,,,,,,,,,,
609248,001,2022-11-21_00h46.34.372,Info_measure_main_exp,2022.2.2,Win32,59.95203837,,,,,,,,,,,,,,,,,,masks/mask_003.jpg,,,,,,,,,,,,,,,,,,,,,,,,,,,,,,,,,,,,,,,,,,,,,,,0,1,1,2,1,,,,,,,,,,,,,,,,,,,,,,,,,,,,,,,,,,,,,,,,,
609248,001,2022-11-21_00h46.34.372,Info_measure_main_exp,2022.2.2,Win32,59.95203837,,,,,,,,,,,,,,,,,,masks/mask_002.jpg,,,,,,,,,,,,,,,,,,,,,,,,,,,,,,,,,,,,,,,,,,,,,,,0,2,2,1,1,,,,,,,,,,,,,,,,,,,,,,,,,,,,,,,,,,,,,,,,,
609248,001,2022-11-21_00h46.34.372,Info_measure_main_exp,2022.2.2,Win32,59.95203837,,,,,,,,,,,,,,,,,,masks/mask_004.jpg,,,,,,,,,,,,,,,,,,,,,,,,,,,,,,,,,,,,,,,,,,,,,,,0,3,3,3,1,,,,,,,,,,,,,,,,,,,,,,,,,,,,,,,,,,,,,,,,,
609248,001,2022-11-21_00h46.34.372,Info_measure_main_exp,2022.2.2,Win32,59.95203837,,,,,,,,,,,,,,,,,,masks/mask_001.jpg,,,,,,,,,,,,,,,,,,,,,,,,,,,,,,,,,,,,,,,,,,,,,,,0,4,4,0,1,,,,,,,,,,,,,,,,,,,,,,,,,,,,,,,,,,,,,,,,,
609248,001,2022-11-21_00h46.34.372,Info_measure_main_exp,2022.2.2,Win32,59.95203837,,,,,,,,,,,,,,,,,,,,,,,,,,,,,,6,1.834,1,,,,,,,,,,,,0,131,5,5,2190,2214,absent_patch/patch0002190.jpg,absent_patch/patch0002214.jpg,,,,,,,,,,,,,,,,,,,0.140046296,0.023148148,1,0,0,response1disk,10,0.006944444,0.006944444,1,0,0,center_square,0,9,9,35,1,,,,,,,,,,,,,,,,,,,,,,,
609248,001,2022-11-21_00h46.34.372,Info_measure_main_exp,2022.2.2,Win32,59.95203837,,,,,,,,,,,,,,,,,,masks/mask_003.jpg,,,,,,,,,,,,,,,,,,,,,,,,,,,,,,,,,,,,,,,,,,0,0,0,2,1,,,,,,,,,,,,,,,,,,,,,,,,,,,,,,,,,,,,,,,,,,,,,,
609248,001,2022-11-21_00h46.34.372,Info_measure_main_exp,2022.2.2,Win32,59.95203837,,,,,,,,,,,,,,,,,,masks/mask_001.jpg,,,,,,,,,,,,,,,,,,,,,,,,,,,,,,,,,,,,,,,,,,0,1,1,0,1,,,,,,,,,,,,,,,,,,,,,,,,,,,,,,,,,,,,,,,,,,,,,,
609248,001,2022-11-21_00h46.34.372,Info_measure_main_exp,2022.2.2,Win32,59.95203837,,,,,,,,,,,,,,,,,,masks/mask_005.jpg,,,,,,,,,,,,,,,,,,,,,,,,,,,,,,,,,,,,,,,,,,0,2,2,4,1,,,,,,,,,,,,,,,,,,,,,,,,,,,,,,,,,,,,,,,,,,,,,,
609248,001,2022-11-21_00h46.34.372,Info_measure_main_exp,2022.2.2,Win32,59.95203837,,,,,,,,,,,,,,,,,,masks/mask_004.jpg,,,,,,,,,,,,,,,,,,,,,,,,,,,,,,,,,,,,,,,,,,0,3,3,3,1,,,,,,,,,,,,,,,,,,,,,,,,,,,,,,,,,,,,,,,,,,,,,,
609248,001,2022-11-21_00h46.34.372,Info_measure_main_exp,2022.2.2,Win32,59.95203837,,,,,,,,,,,,,,,,,,masks/mask_002.jpg,,,,,,,,,,,,,,,,,,,,,,,,,,,,,,,,,,,,,,,,,,0,4,4,1,1,,,,,,,,,,,,,,,,,,,,,,,,,,,,,,,,,,,,,,,,,,,,,,
609248,001,2022-11-21_00h46.34.372,Info_measure_main_exp,2022.2.2,Win32,59.95203837,,,,,,,,,,,,,,,,,,masks/mask_002.jpg,,,,,,,,,,,,,,,,,,,,,,,,,,,,,,,,,,,,,,,,,,,,,,,0,0,0,1,1,,,,,,,,,,,,,,,,,,,,,,,,,,,,,,,,,,,,,,,,,
609248,001,2022-11-21_00h46.34.372,Info_measure_main_exp,2022.2.2,Win32,59.95203837,,,,,,,,,,,,,,,,,,masks/mask_003.jpg,,,,,,,,,,,,,,,,,,,,,,,,,,,,,,,,,,,,,,,,,,,,,,,0,1,1,2,1,,,,,,,,,,,,,,,,,,,,,,,,,,,,,,,,,,,,,,,,,
609248,001,2022-11-21_00h46.34.372,Info_measure_main_exp,2022.2.2,Win32,59.95203837,,,,,,,,,,,,,,,,,,masks/mask_001.jpg,,,,,,,,,,,,,,,,,,,,,,,,,,,,,,,,,,,,,,,,,,,,,,,0,2,2,0,1,,,,,,,,,,,,,,,,,,,,,,,,,,,,,,,,,,,,,,,,,
609248,001,2022-11-21_00h46.34.372,Info_measure_main_exp,2022.2.2,Win32,59.95203837,,,,,,,,,,,,,,,,,,masks/mask_004.jpg,,,,,,,,,,,,,,,,,,,,,,,,,,,,,,,,,,,,,,,,,,,,,,,0,3,3,3,1,,,,,,,,,,,,,,,,,,,,,,,,,,,,,,,,,,,,,,,,,
609248,001,2022-11-21_00h46.34.372,Info_measure_main_exp,2022.2.2,Win32,59.95203837,,,,,,,,,,,,,,,,,,masks/mask_005.jpg,,,,,,,,,,,,,,,,,,,,,,,,,,,,,,,,,,,,,,,,,,,,,,,0,4,4,4,1,,,,,,,,,,,,,,,,,,,,,,,,,,,,,,,,,,,,,,,,,
609248,001,2022-11-21_00h46.34.372,Info_measure_main_exp,2022.2.2,Win32,59.95203837,,,,,,,,,,,,,,,,,,,,,,,,,,,,,,6,1.049,1,,,,,,,,,,,,0,131,5,5,2178,2166,absent_patch/patch0002178.jpg,absent_patch/patch0002166.jpg,,,,,,,,,,,,,,,,,,,0.09837963,0.045138889,1,0,0,response1disk,11,0.010416667,0.00462963,1,0,0,center_square,0,10,10,72,1,,,,,,,,,,,,,,,,,,,,,,,
609248,001,2022-11-21_00h46.34.372,Info_measure_main_exp,2022.2.2,Win32,59.95203837,,,,,,,,,,,,,,,,,,masks/mask_001.jpg,,,,,,,,,,,,,,,,,,,,,,,,,,,,,,,,,,,,,,,,,,0,0,0,0,1,,,,,,,,,,,,,,,,,,,,,,,,,,,,,,,,,,,,,,,,,,,,,,
609248,001,2022-11-21_00h46.34.372,Info_measure_main_exp,2022.2.2,Win32,59.95203837,,,,,,,,,,,,,,,,,,masks/mask_004.jpg,,,,,,,,,,,,,,,,,,,,,,,,,,,,,,,,,,,,,,,,,,0,1,1,3,1,,,,,,,,,,,,,,,,,,,,,,,,,,,,,,,,,,,,,,,,,,,,,,
609248,001,2022-11-21_00h46.34.372,Info_measure_main_exp,2022.2.2,Win32,59.95203837,,,,,,,,,,,,,,,,,,masks/mask_002.jpg,,,,,,,,,,,,,,,,,,,,,,,,,,,,,,,,,,,,,,,,,,0,2,2,1,1,,,,,,,,,,,,,,,,,,,,,,,,,,,,,,,,,,,,,,,,,,,,,,
609248,001,2022-11-21_00h46.34.372,Info_measure_main_exp,2022.2.2,Win32,59.95203837,,,,,,,,,,,,,,,,,,masks/mask_003.jpg,,,,,,,,,,,,,,,,,,,,,,,,,,,,,,,,,,,,,,,,,,0,3,3,2,1,,,,,,,,,,,,,,,,,,,,,,,,,,,,,,,,,,,,,,,,,,,,,,
609248,001,2022-11-21_00h46.34.372,Info_measure_main_exp,2022.2.2,Win32,59.95203837,,,,,,,,,,,,,,,,,,masks/mask_005.jpg,,,,,,,,,,,,,,,,,,,,,,,,,,,,,,,,,,,,,,,,,,0,4,4,4,1,,,,,,,,,,,,,,,,,,,,,,,,,,,,,,,,,,,,,,,,,,,,,,
609248,001,2022-11-21_00h46.34.372,Info_measure_main_exp,2022.2.2,Win32,59.95203837,,,,,,,,,,,,,,,,,,masks/mask_001.jpg,,,,,,,,,,,,,,,,,,,,,,,,,,,,,,,,,,,,,,,,,,,,,,,0,0,0,0,1,,,,,,,,,,,,,,,,,,,,,,,,,,,,,,,,,,,,,,,,,
609248,001,2022-11-21_00h46.34.372,Info_measure_main_exp,2022.2.2,Win32,59.95203837,,,,,,,,,,,,,,,,,,masks/mask_004.jpg,,,,,,,,,,,,,,,,,,,,,,,,,,,,,,,,,,,,,,,,,,,,,,,0,1,1,3,1,,,,,,,,,,,,,,,,,,,,,,,,,,,,,,,,,,,,,,,,,
609248,001,2022-11-21_00h46.34.372,Info_measure_main_exp,2022.2.2,Win32,59.95203837,,,,,,,,,,,,,,,,,,masks/mask_005.jpg,,,,,,,,,,,,,,,,,,,,,,,,,,,,,,,,,,,,,,,,,,,,,,,0,2,2,4,1,,,,,,,,,,,,,,,,,,,,,,,,,,,,,,,,,,,,,,,,,
609248,001,2022-11-21_00h46.34.372,Info_measure_main_exp,2022.2.2,Win32,59.95203837,,,,,,,,,,,,,,,,,,masks/mask_002.jpg,,,,,,,,,,,,,,,,,,,,,,,,,,,,,,,,,,,,,,,,,,,,,,,0,3,3,1,1,,,,,,,,,,,,,,,,,,,,,,,,,,,,,,,,,,,,,,,,,
609248,001,2022-11-21_00h46.34.372,Info_measure_main_exp,2022.2.2,Win32,59.95203837,,,,,,,,,,,,,,,,,,masks/mask_003.jpg,,,,,,,,,,,,,,,,,,,,,,,,,,,,,,,,,,,,,,,,,,,,,,,0,4,4,2,1,,,,,,,,,,,,,,,,,,,,,,,,,,,,,,,,,,,,,,,,,
609248,001,2022-11-21_00h46.34.372,Info_measure_main_exp,2022.2.2,Win32,59.95203837,,,,,,,,,,,,,,,,,,,,,,,,,,,,,,6,0.899,1,,,,,,,,,,,,0,131,5,5,2298,2214,absent_patch/patch0002298.jpg,absent_patch/patch0002214.jpg,,,,,,,,,,,,,,,,,,,0.099537037,0.03587963,1,0,0,response1disk,12,0.001157407,0.002314815,1,0,0,center_square,0,11,11,99,1,,,,,,,,,,,,,,,,,,,,,,,
609248,001,2022-11-21_00h46.34.372,Info_measure_main_exp,2022.2.2,Win32,59.95203837,,,,,,,,,,,,,,,,,,masks/mask_005.jpg,,,,,,,,,,,,,,,,,,,,,,,,,,,,,,,,,,,,,,,,,,0,0,0,4,1,,,,,,,,,,,,,,,,,,,,,,,,,,,,,,,,,,,,,,,,,,,,,,
609248,001,2022-11-21_00h46.34.372,Info_measure_main_exp,2022.2.2,Win32,59.95203837,,,,,,,,,,,,,,,,,,masks/mask_004.jpg,,,,,,,,,,,,,,,,,,,,,,,,,,,,,,,,,,,,,,,,,,0,1,1,3,1,,,,,,,,,,,,,,,,,,,,,,,,,,,,,,,,,,,,,,,,,,,,,,
609248,001,2022-11-21_00h46.34.372,Info_measure_main_exp,2022.2.2,Win32,59.95203837,,,,,,,,,,,,,,,,,,masks/mask_001.jpg,,,,,,,,,,,,,,,,,,,,,,,,,,,,,,,,,,,,,,,,,,0,2,2,0,1,,,,,,,,,,,,,,,,,,,,,,,,,,,,,,,,,,,,,,,,,,,,,,
609248,001,2022-11-21_00h46.34.372,Info_measure_main_exp,2022.2.2,Win32,59.95203837,,,,,,,,,,,,,,,,,,masks/mask_003.jpg,,,,,,,,,,,,,,,,,,,,,,,,,,,,,,,,,,,,,,,,,,0,3,3,2,1,,,,,,,,,,,,,,,,,,,,,,,,,,,,,,,,,,,,,,,,,,,,,,
609248,001,2022-11-21_00h46.34.372,Info_measure_main_exp,2022.2.2,Win32,59.95203837,,,,,,,,,,,,,,,,,,masks/mask_002.jpg,,,,,,,,,,,,,,,,,,,,,,,,,,,,,,,,,,,,,,,,,,0,4,4,1,1,,,,,,,,,,,,,,,,,,,,,,,,,,,,,,,,,,,,,,,,,,,,,,
609248,001,2022-11-21_00h46.34.372,Info_measure_main_exp,2022.2.2,Win32,59.95203837,,,,,,,,,,,,,,,,,,masks/mask_001.jpg,,,,,,,,,,,,,,,,,,,,,,,,,,,,,,,,,,,,,,,,,,,,,,,0,0,0,0,1,,,,,,,,,,,,,,,,,,,,,,,,,,,,,,,,,,,,,,,,,
609248,001,2022-11-21_00h46.34.372,Info_measure_main_exp,2022.2.2,Win32,59.95203837,,,,,,,,,,,,,,,,,,masks/mask_004.jpg,,,,,,,,,,,,,,,,,,,,,,,,,,,,,,,,,,,,,,,,,,,,,,,0,1,1,3,1,,,,,,,,,,,,,,,,,,,,,,,,,,,,,,,,,,,,,,,,,
609248,001,2022-11-21_00h46.34.372,Info_measure_main_exp,2022.2.2,Win32,59.95203837,,,,,,,,,,,,,,,,,,masks/mask_005.jpg,,,,,,,,,,,,,,,,,,,,,,,,,,,,,,,,,,,,,,,,,,,,,,,0,2,2,4,1,,,,,,,,,,,,,,,,,,,,,,,,,,,,,,,,,,,,,,,,,
609248,001,2022-11-21_00h46.34.372,Info_measure_main_exp,2022.2.2,Win32,59.95203837,,,,,,,,,,,,,,,,,,masks/mask_003.jpg,,,,,,,,,,,,,,,,,,,,,,,,,,,,,,,,,,,,,,,,,,,,,,,0,3,3,2,1,,,,,,,,,,,,,,,,,,,,,,,,,,,,,,,,,,,,,,,,,
609248,001,2022-11-21_00h46.34.372,Info_measure_main_exp,2022.2.2,Win32,59.95203837,,,,,,,,,,,,,,,,,,masks/mask_002.jpg,,,,,,,,,,,,,,,,,,,,,,,,,,,,,,,,,,,,,,,,,,,,,,,0,4,4,1,1,,,,,,,,,,,,,,,,,,,,,,,,,,,,,,,,,,,,,,,,,
609248,001,2022-11-21_00h46.34.372,Info_measure_main_exp,2022.2.2,Win32,59.95203837,,,,,,,,,,,,,,,,,,,,,,,,,,,,,,7,1.05,1,,,,,,,,,,,,0,131,5,5,2250,2142,absent_patch/patch0002250.jpg,absent_patch/patch0002142.jpg,,,,,,,,,,,,,,,,,,,0.053240741,0.081018519,1,0,0,response1disk,13,0.002314815,0.012731481,1,0,0,center_square,0,12,12,71,1,,,,,,,,,,,,,,,,,,,,,,,
609248,001,2022-11-21_00h46.34.372,Info_measure_main_exp,2022.2.2,Win32,59.95203837,,,,,,,,,,,,,,,,,,masks/mask_002.jpg,,,,,,,,,,,,,,,,,,,,,,,,,,,,,,,,,,,,,,,,,,0,0,0,1,1,,,,,,,,,,,,,,,,,,,,,,,,,,,,,,,,,,,,,,,,,,,,,,
609248,001,2022-11-21_00h46.34.372,Info_measure_main_exp,2022.2.2,Win32,59.95203837,,,,,,,,,,,,,,,,,,masks/mask_004.jpg,,,,,,,,,,,,,,,,,,,,,,,,,,,,,,,,,,,,,,,,,,0,1,1,3,1,,,,,,,,,,,,,,,,,,,,,,,,,,,,,,,,,,,,,,,,,,,,,,
609248,001,2022-11-21_00h46.34.372,Info_measure_main_exp,2022.2.2,Win32,59.95203837,,,,,,,,,,,,,,,,,,masks/mask_003.jpg,,,,,,,,,,,,,,,,,,,,,,,,,,,,,,,,,,,,,,,,,,0,2,2,2,1,,,,,,,,,,,,,,,,,,,,,,,,,,,,,,,,,,,,,,,,,,,,,,
609248,001,2022-11-21_00h46.34.372,Info_measure_main_exp,2022.2.2,Win32,59.95203837,,,,,,,,,,,,,,,,,,masks/mask_005.jpg,,,,,,,,,,,,,,,,,,,,,,,,,,,,,,,,,,,,,,,,,,0,3,3,4,1,,,,,,,,,,,,,,,,,,,,,,,,,,,,,,,,,,,,,,,,,,,,,,
609248,001,2022-11-21_00h46.34.372,Info_measure_main_exp,2022.2.2,Win32,59.95203837,,,,,,,,,,,,,,,,,,masks/mask_001.jpg,,,,,,,,,,,,,,,,,,,,,,,,,,,,,,,,,,,,,,,,,,0,4,4,0,1,,,,,,,,,,,,,,,,,,,,,,,,,,,,,,,,,,,,,,,,,,,,,,
609248,001,2022-11-21_00h46.34.372,Info_measure_main_exp,2022.2.2,Win32,59.95203837,,,,,,,,,,,,,,,,,,masks/mask_005.jpg,,,,,,,,,,,,,,,,,,,,,,,,,,,,,,,,,,,,,,,,,,,,,,,0,0,0,4,1,,,,,,,,,,,,,,,,,,,,,,,,,,,,,,,,,,,,,,,,,
609248,001,2022-11-21_00h46.34.372,Info_measure_main_exp,2022.2.2,Win32,59.95203837,,,,,,,,,,,,,,,,,,masks/mask_004.jpg,,,,,,,,,,,,,,,,,,,,,,,,,,,,,,,,,,,,,,,,,,,,,,,0,1,1,3,1,,,,,,,,,,,,,,,,,,,,,,,,,,,,,,,,,,,,,,,,,
609248,001,2022-11-21_00h46.34.372,Info_measure_main_exp,2022.2.2,Win32,59.95203837,,,,,,,,,,,,,,,,,,masks/mask_002.jpg,,,,,,,,,,,,,,,,,,,,,,,,,,,,,,,,,,,,,,,,,,,,,,,0,2,2,1,1,,,,,,,,,,,,,,,,,,,,,,,,,,,,,,,,,,,,,,,,,
609248,001,2022-11-21_00h46.34.372,Info_measure_main_exp,2022.2.2,Win32,59.95203837,,,,,,,,,,,,,,,,,,masks/mask_003.jpg,,,,,,,,,,,,,,,,,,,,,,,,,,,,,,,,,,,,,,,,,,,,,,,0,3,3,2,1,,,,,,,,,,,,,,,,,,,,,,,,,,,,,,,,,,,,,,,,,
609248,001,2022-11-21_00h46.34.372,Info_measure_main_exp,2022.2.2,Win32,59.95203837,,,,,,,,,,,,,,,,,,masks/mask_001.jpg,,,,,,,,,,,,,,,,,,,,,,,,,,,,,,,,,,,,,,,,,,,,,,,0,4,4,0,1,,,,,,,,,,,,,,,,,,,,,,,,,,,,,,,,,,,,,,,,,
609248,001,2022-11-21_00h46.34.372,Info_measure_main_exp,2022.2.2,Win32,59.95203837,,,,,,,,,,,,,,,,,,,,,,,,,,,,,,0,1.383,1,,,,,,,,,,,,0,131,5,5,2082,1974,absent_patch/patch0002082.jpg,absent_patch/patch0001974.jpg,,,,,,,,,,,,,,,,,,,-0.016203704,0.053240741,1,0,0,response7disk,14,0.005787037,-0.006944444,1,0,0,center_square,0,13,13,26,1,,,,,,,,,,,,,,,,,,,,,,,
609248,001,2022-11-21_00h46.34.372,Info_measure_main_exp,2022.2.2,Win32,59.95203837,,,,,,,,,,,,,,,,,,masks/mask_003.jpg,,,,,,,,,,,,,,,,,,,,,,,,,,,,,,,,,,,,,,,,,,0,0,0,2,1,,,,,,,,,,,,,,,,,,,,,,,,,,,,,,,,,,,,,,,,,,,,,,
609248,001,2022-11-21_00h46.34.372,Info_measure_main_exp,2022.2.2,Win32,59.95203837,,,,,,,,,,,,,,,,,,masks/mask_001.jpg,,,,,,,,,,,,,,,,,,,,,,,,,,,,,,,,,,,,,,,,,,0,1,1,0,1,,,,,,,,,,,,,,,,,,,,,,,,,,,,,,,,,,,,,,,,,,,,,,
609248,001,2022-11-21_00h46.34.372,Info_measure_main_exp,2022.2.2,Win32,59.95203837,,,,,,,,,,,,,,,,,,masks/mask_005.jpg,,,,,,,,,,,,,,,,,,,,,,,,,,,,,,,,,,,,,,,,,,0,2,2,4,1,,,,,,,,,,,,,,,,,,,,,,,,,,,,,,,,,,,,,,,,,,,,,,
609248,001,2022-11-21_00h46.34.372,Info_measure_main_exp,2022.2.2,Win32,59.95203837,,,,,,,,,,,,,,,,,,masks/mask_002.jpg,,,,,,,,,,,,,,,,,,,,,,,,,,,,,,,,,,,,,,,,,,0,3,3,1,1,,,,,,,,,,,,,,,,,,,,,,,,,,,,,,,,,,,,,,,,,,,,,,
609248,001,2022-11-21_00h46.34.372,Info_measure_main_exp,2022.2.2,Win32,59.95203837,,,,,,,,,,,,,,,,,,masks/mask_004.jpg,,,,,,,,,,,,,,,,,,,,,,,,,,,,,,,,,,,,,,,,,,0,4,4,3,1,,,,,,,,,,,,,,,,,,,,,,,,,,,,,,,,,,,,,,,,,,,,,,
609248,001,2022-11-21_00h46.34.372,Info_measure_main_exp,2022.2.2,Win32,59.95203837,,,,,,,,,,,,,,,,,,masks/mask_001.jpg,,,,,,,,,,,,,,,,,,,,,,,,,,,,,,,,,,,,,,,,,,,,,,,0,0,0,0,1,,,,,,,,,,,,,,,,,,,,,,,,,,,,,,,,,,,,,,,,,
609248,001,2022-11-21_00h46.34.372,Info_measure_main_exp,2022.2.2,Win32,59.95203837,,,,,,,,,,,,,,,,,,masks/mask_002.jpg,,,,,,,,,,,,,,,,,,,,,,,,,,,,,,,,,,,,,,,,,,,,,,,0,1,1,1,1,,,,,,,,,,,,,,,,,,,,,,,,,,,,,,,,,,,,,,,,,
609248,001,2022-11-21_00h46.34.372,Info_measure_main_exp,2022.2.2,Win32,59.95203837,,,,,,,,,,,,,,,,,,masks/mask_004.jpg,,,,,,,,,,,,,,,,,,,,,,,,,,,,,,,,,,,,,,,,,,,,,,,0,2,2,3,1,,,,,,,,,,,,,,,,,,,,,,,,,,,,,,,,,,,,,,,,,
609248,001,2022-11-21_00h46.34.372,Info_measure_main_exp,2022.2.2,Win32,59.95203837,,,,,,,,,,,,,,,,,,masks/mask_003.jpg,,,,,,,,,,,,,,,,,,,,,,,,,,,,,,,,,,,,,,,,,,,,,,,0,3,3,2,1,,,,,,,,,,,,,,,,,,,,,,,,,,,,,,,,,,,,,,,,,
609248,001,2022-11-21_00h46.34.372,Info_measure_main_exp,2022.2.2,Win32,59.95203837,,,,,,,,,,,,,,,,,,masks/mask_005.jpg,,,,,,,,,,,,,,,,,,,,,,,,,,,,,,,,,,,,,,,,,,,,,,,0,4,4,4,1,,,,,,,,,,,,,,,,,,,,,,,,,,,,,,,,,,,,,,,,,
609248,001,2022-11-21_00h46.34.372,Info_measure_main_exp,2022.2.2,Win32,59.95203837,,,,,,,,,,,,,,,,,,,,,,,,,,,,,,5,1.25,1,,,,,,,,,,,,0,131,5,5,2190,2166,absent_patch/patch0002190.jpg,absent_patch/patch0002166.jpg,,,,,,,,,,,,,,,,,,,0.056712963,-0.013888889,1,0,0,response3disk,15,-0.00462963,-0.011574074,1,0,0,center_square,0,14,14,50,1,,,,,,,,,,,,,,,,,,,,,,,
609248,001,2022-11-21_00h46.34.372,Info_measure_main_exp,2022.2.2,Win32,59.95203837,,,,,,,,,,,,,,,,,,masks/mask_003.jpg,,,,,,,,,,,,,,,,,,,,,,,,,,,,,,,,,,,,,,,,,,0,0,0,2,1,,,,,,,,,,,,,,,,,,,,,,,,,,,,,,,,,,,,,,,,,,,,,,
609248,001,2022-11-21_00h46.34.372,Info_measure_main_exp,2022.2.2,Win32,59.95203837,,,,,,,,,,,,,,,,,,masks/mask_004.jpg,,,,,,,,,,,,,,,,,,,,,,,,,,,,,,,,,,,,,,,,,,0,1,1,3,1,,,,,,,,,,,,,,,,,,,,,,,,,,,,,,,,,,,,,,,,,,,,,,
609248,001,2022-11-21_00h46.34.372,Info_measure_main_exp,2022.2.2,Win32,59.95203837,,,,,,,,,,,,,,,,,,masks/mask_002.jpg,,,,,,,,,,,,,,,,,,,,,,,,,,,,,,,,,,,,,,,,,,0,2,2,1,1,,,,,,,,,,,,,,,,,,,,,,,,,,,,,,,,,,,,,,,,,,,,,,
609248,001,2022-11-21_00h46.34.372,Info_measure_main_exp,2022.2.2,Win32,59.95203837,,,,,,,,,,,,,,,,,,masks/mask_001.jpg,,,,,,,,,,,,,,,,,,,,,,,,,,,,,,,,,,,,,,,,,,0,3,3,0,1,,,,,,,,,,,,,,,,,,,,,,,,,,,,,,,,,,,,,,,,,,,,,,
609248,001,2022-11-21_00h46.34.372,Info_measure_main_exp,2022.2.2,Win32,59.95203837,,,,,,,,,,,,,,,,,,masks/mask_005.jpg,,,,,,,,,,,,,,,,,,,,,,,,,,,,,,,,,,,,,,,,,,0,4,4,4,1,,,,,,,,,,,,,,,,,,,,,,,,,,,,,,,,,,,,,,,,,,,,,,
609248,001,2022-11-21_00h46.34.372,Info_measure_main_exp,2022.2.2,Win32,59.95203837,,,,,,,,,,,,,,,,,,masks/mask_002.jpg,,,,,,,,,,,,,,,,,,,,,,,,,,,,,,,,,,,,,,,,,,,,,,,0,0,0,1,1,,,,,,,,,,,,,,,,,,,,,,,,,,,,,,,,,,,,,,,,,
609248,001,2022-11-21_00h46.34.372,Info_measure_main_exp,2022.2.2,Win32,59.95203837,,,,,,,,,,,,,,,,,,masks/mask_003.jpg,,,,,,,,,,,,,,,,,,,,,,,,,,,,,,,,,,,,,,,,,,,,,,,0,1,1,2,1,,,,,,,,,,,,,,,,,,,,,,,,,,,,,,,,,,,,,,,,,
609248,001,2022-11-21_00h46.34.372,Info_measure_main_exp,2022.2.2,Win32,59.95203837,,,,,,,,,,,,,,,,,,masks/mask_005.jpg,,,,,,,,,,,,,,,,,,,,,,,,,,,,,,,,,,,,,,,,,,,,,,,0,2,2,4,1,,,,,,,,,,,,,,,,,,,,,,,,,,,,,,,,,,,,,,,,,
609248,001,2022-11-21_00h46.34.372,Info_measure_main_exp,2022.2.2,Win32,59.95203837,,,,,,,,,,,,,,,,,,masks/mask_001.jpg,,,,,,,,,,,,,,,,,,,,,,,,,,,,,,,,,,,,,,,,,,,,,,,0,3,3,0,1,,,,,,,,,,,,,,,,,,,,,,,,,,,,,,,,,,,,,,,,,
609248,001,2022-11-21_00h46.34.372,Info_measure_main_exp,2022.2.2,Win32,59.95203837,,,,,,,,,,,,,,,,,,masks/mask_004.jpg,,,,,,,,,,,,,,,,,,,,,,,,,,,,,,,,,,,,,,,,,,,,,,,0,4,4,3,1,,,,,,,,,,,,,,,,,,,,,,,,,,,,,,,,,,,,,,,,,
609248,001,2022-11-21_00h46.34.372,Info_measure_main_exp,2022.2.2,Win32,59.95203837,,,,,,,,,,,,,,,,,,,,,,,,,,,,,,4,2.118,1,,,,,,,,,,,,0,131,5,5,2274,2214,absent_patch/patch0002274.jpg,absent_patch/patch0002214.jpg,,,,,,,,,,,,,,,,,,,0.018518519,-0.064814815,1,0,0,response3disk,16,-0.009259259,0,1,0,0,center_square,0,15,15,11,1,,,,,,,,,,,,,,,,,,,,,,,
609248,001,2022-11-21_00h46.34.372,Info_measure_main_exp,2022.2.2,Win32,59.95203837,,,,,,,,,,,,,,,,,,masks/mask_001.jpg,,,,,,,,,,,,,,,,,,,,,,,,,,,,,,,,,,,,,,,,,,0,0,0,0,1,,,,,,,,,,,,,,,,,,,,,,,,,,,,,,,,,,,,,,,,,,,,,,
609248,001,2022-11-21_00h46.34.372,Info_measure_main_exp,2022.2.2,Win32,59.95203837,,,,,,,,,,,,,,,,,,masks/mask_005.jpg,,,,,,,,,,,,,,,,,,,,,,,,,,,,,,,,,,,,,,,,,,0,1,1,4,1,,,,,,,,,,,,,,,,,,,,,,,,,,,,,,,,,,,,,,,,,,,,,,
609248,001,2022-11-21_00h46.34.372,Info_measure_main_exp,2022.2.2,Win32,59.95203837,,,,,,,,,,,,,,,,,,masks/mask_004.jpg,,,,,,,,,,,,,,,,,,,,,,,,,,,,,,,,,,,,,,,,,,0,2,2,3,1,,,,,,,,,,,,,,,,,,,,,,,,,,,,,,,,,,,,,,,,,,,,,,
609248,001,2022-11-21_00h46.34.372,Info_measure_main_exp,2022.2.2,Win32,59.95203837,,,,,,,,,,,,,,,,,,masks/mask_002.jpg,,,,,,,,,,,,,,,,,,,,,,,,,,,,,,,,,,,,,,,,,,0,3,3,1,1,,,,,,,,,,,,,,,,,,,,,,,,,,,,,,,,,,,,,,,,,,,,,,
609248,001,2022-11-21_00h46.34.372,Info_measure_main_exp,2022.2.2,Win32,59.95203837,,,,,,,,,,,,,,,,,,masks/mask_003.jpg,,,,,,,,,,,,,,,,,,,,,,,,,,,,,,,,,,,,,,,,,,0,4,4,2,1,,,,,,,,,,,,,,,,,,,,,,,,,,,,,,,,,,,,,,,,,,,,,,
609248,001,2022-11-21_00h46.34.372,Info_measure_main_exp,2022.2.2,Win32,59.95203837,,,,,,,,,,,,,,,,,,masks/mask_004.jpg,,,,,,,,,,,,,,,,,,,,,,,,,,,,,,,,,,,,,,,,,,,,,,,0,0,0,3,1,,,,,,,,,,,,,,,,,,,,,,,,,,,,,,,,,,,,,,,,,
609248,001,2022-11-21_00h46.34.372,Info_measure_main_exp,2022.2.2,Win32,59.95203837,,,,,,,,,,,,,,,,,,masks/mask_002.jpg,,,,,,,,,,,,,,,,,,,,,,,,,,,,,,,,,,,,,,,,,,,,,,,0,1,1,1,1,,,,,,,,,,,,,,,,,,,,,,,,,,,,,,,,,,,,,,,,,
609248,001,2022-11-21_00h46.34.372,Info_measure_main_exp,2022.2.2,Win32,59.95203837,,,,,,,,,,,,,,,,,,masks/mask_005.jpg,,,,,,,,,,,,,,,,,,,,,,,,,,,,,,,,,,,,,,,,,,,,,,,0,2,2,4,1,,,,,,,,,,,,,,,,,,,,,,,,,,,,,,,,,,,,,,,,,
609248,001,2022-11-21_00h46.34.372,Info_measure_main_exp,2022.2.2,Win32,59.95203837,,,,,,,,,,,,,,,,,,masks/mask_003.jpg,,,,,,,,,,,,,,,,,,,,,,,,,,,,,,,,,,,,,,,,,,,,,,,0,3,3,2,1,,,,,,,,,,,,,,,,,,,,,,,,,,,,,,,,,,,,,,,,,
609248,001,2022-11-21_00h46.34.372,Info_measure_main_exp,2022.2.2,Win32,59.95203837,,,,,,,,,,,,,,,,,,masks/mask_001.jpg,,,,,,,,,,,,,,,,,,,,,,,,,,,,,,,,,,,,,,,,,,,,,,,0,4,4,0,1,,,,,,,,,,,,,,,,,,,,,,,,,,,,,,,,,,,,,,,,,
609248,001,2022-11-21_00h46.34.372,Info_measure_main_exp,2022.2.2,Win32,59.95203837,,,,,,,,,,,,,,,,,,,,,,,,,,,,,,7,0.784,1,,,,,,,,,,,,0,131,5,5,2154,1974,absent_patch/patch0002154.jpg,absent_patch/patch0001974.jpg,,,,,,,,,,,,,,,,,,,0.065972222,0.108796296,1,0,0,response1disk,17,0.005787037,0.012731481,1,0,0,center_square,0,16,16,82,1,,,,,,,,,,,,,,,,,,,,,,,
609248,001,2022-11-21_00h46.34.372,Info_measure_main_exp,2022.2.2,Win32,59.95203837,,,,,,,,,,,,,,,,,,masks/mask_001.jpg,,,,,,,,,,,,,,,,,,,,,,,,,,,,,,,,,,,,,,,,,,0,0,0,0,1,,,,,,,,,,,,,,,,,,,,,,,,,,,,,,,,,,,,,,,,,,,,,,
609248,001,2022-11-21_00h46.34.372,Info_measure_main_exp,2022.2.2,Win32,59.95203837,,,,,,,,,,,,,,,,,,masks/mask_003.jpg,,,,,,,,,,,,,,,,,,,,,,,,,,,,,,,,,,,,,,,,,,0,1,1,2,1,,,,,,,,,,,,,,,,,,,,,,,,,,,,,,,,,,,,,,,,,,,,,,
609248,001,2022-11-21_00h46.34.372,Info_measure_main_exp,2022.2.2,Win32,59.95203837,,,,,,,,,,,,,,,,,,masks/mask_002.jpg,,,,,,,,,,,,,,,,,,,,,,,,,,,,,,,,,,,,,,,,,,0,2,2,1,1,,,,,,,,,,,,,,,,,,,,,,,,,,,,,,,,,,,,,,,,,,,,,,
609248,001,2022-11-21_00h46.34.372,Info_measure_main_exp,2022.2.2,Win32,59.95203837,,,,,,,,,,,,,,,,,,masks/mask_004.jpg,,,,,,,,,,,,,,,,,,,,,,,,,,,,,,,,,,,,,,,,,,0,3,3,3,1,,,,,,,,,,,,,,,,,,,,,,,,,,,,,,,,,,,,,,,,,,,,,,
609248,001,2022-11-21_00h46.34.372,Info_measure_main_exp,2022.2.2,Win32,59.95203837,,,,,,,,,,,,,,,,,,masks/mask_005.jpg,,,,,,,,,,,,,,,,,,,,,,,,,,,,,,,,,,,,,,,,,,0,4,4,4,1,,,,,,,,,,,,,,,,,,,,,,,,,,,,,,,,,,,,,,,,,,,,,,
609248,001,2022-11-21_00h46.34.372,Info_measure_main_exp,2022.2.2,Win32,59.95203837,,,,,,,,,,,,,,,,,,masks/mask_005.jpg,,,,,,,,,,,,,,,,,,,,,,,,,,,,,,,,,,,,,,,,,,,,,,,0,0,0,4,1,,,,,,,,,,,,,,,,,,,,,,,,,,,,,,,,,,,,,,,,,
609248,001,2022-11-21_00h46.34.372,Info_measure_main_exp,2022.2.2,Win32,59.95203837,,,,,,,,,,,,,,,,,,masks/mask_001.jpg,,,,,,,,,,,,,,,,,,,,,,,,,,,,,,,,,,,,,,,,,,,,,,,0,1,1,0,1,,,,,,,,,,,,,,,,,,,,,,,,,,,,,,,,,,,,,,,,,
609248,001,2022-11-21_00h46.34.372,Info_measure_main_exp,2022.2.2,Win32,59.95203837,,,,,,,,,,,,,,,,,,masks/mask_003.jpg,,,,,,,,,,,,,,,,,,,,,,,,,,,,,,,,,,,,,,,,,,,,,,,0,2,2,2,1,,,,,,,,,,,,,,,,,,,,,,,,,,,,,,,,,,,,,,,,,
609248,001,2022-11-21_00h46.34.372,Info_measure_main_exp,2022.2.2,Win32,59.95203837,,,,,,,,,,,,,,,,,,masks/mask_002.jpg,,,,,,,,,,,,,,,,,,,,,,,,,,,,,,,,,,,,,,,,,,,,,,,0,3,3,1,1,,,,,,,,,,,,,,,,,,,,,,,,,,,,,,,,,,,,,,,,,
609248,001,2022-11-21_00h46.34.372,Info_measure_main_exp,2022.2.2,Win32,59.95203837,,,,,,,,,,,,,,,,,,masks/mask_004.jpg,,,,,,,,,,,,,,,,,,,,,,,,,,,,,,,,,,,,,,,,,,,,,,,0,4,4,3,1,,,,,,,,,,,,,,,,,,,,,,,,,,,,,,,,,,,,,,,,,
609248,001,2022-11-21_00h46.34.372,Info_measure_main_exp,2022.2.2,Win32,59.95203837,,,,,,,,,,,,,,,,,,,,,,,,,,,,,,4,33.853,1,,,,,,,,,,,,0,131,5,5,2154,2250,absent_patch/patch0002154.jpg,absent_patch/patch0002250.jpg,,,,,,,,,,,,,,,,,,,0.024305556,-0.082175926,1,0,0,response3disk,18,0.011574074,-0.005787037,1,0,0,center_square,0,17,17,108,1,,,,,,,,,,,,,,,,,,,,,,,
609248,001,2022-11-21_00h46.34.372,Info_measure_main_exp,2022.2.2,Win32,59.95203837,,,,,,,,,,,,,,,,,,masks/mask_004.jpg,,,,,,,,,,,,,,,,,,,,,,,,,,,,,,,,,,,,,,,,,,0,0,0,3,1,,,,,,,,,,,,,,,,,,,,,,,,,,,,,,,,,,,,,,,,,,,,,,
609248,001,2022-11-21_00h46.34.372,Info_measure_main_exp,2022.2.2,Win32,59.95203837,,,,,,,,,,,,,,,,,,masks/mask_002.jpg,,,,,,,,,,,,,,,,,,,,,,,,,,,,,,,,,,,,,,,,,,0,1,1,1,1,,,,,,,,,,,,,,,,,,,,,,,,,,,,,,,,,,,,,,,,,,,,,,
609248,001,2022-11-21_00h46.34.372,Info_measure_main_exp,2022.2.2,Win32,59.95203837,,,,,,,,,,,,,,,,,,masks/mask_003.jpg,,,,,,,,,,,,,,,,,,,,,,,,,,,,,,,,,,,,,,,,,,0,2,2,2,1,,,,,,,,,,,,,,,,,,,,,,,,,,,,,,,,,,,,,,,,,,,,,,
609248,001,2022-11-21_00h46.34.372,Info_measure_main_exp,2022.2.2,Win32,59.95203837,,,,,,,,,,,,,,,,,,masks/mask_001.jpg,,,,,,,,,,,,,,,,,,,,,,,,,,,,,,,,,,,,,,,,,,0,3,3,0,1,,,,,,,,,,,,,,,,,,,,,,,,,,,,,,,,,,,,,,,,,,,,,,
609248,001,2022-11-21_00h46.34.372,Info_measure_main_exp,2022.2.2,Win32,59.95203837,,,,,,,,,,,,,,,,,,masks/mask_005.jpg,,,,,,,,,,,,,,,,,,,,,,,,,,,,,,,,,,,,,,,,,,0,4,4,4,1,,,,,,,,,,,,,,,,,,,,,,,,,,,,,,,,,,,,,,,,,,,,,,
609248,001,2022-11-21_00h46.34.372,Info_measure_main_exp,2022.2.2,Win32,59.95203837,,,,,,,,,,,,,,,,,,masks/mask_004.jpg,,,,,,,,,,,,,,,,,,,,,,,,,,,,,,,,,,,,,,,,,,,,,,,0,0,0,3,1,,,,,,,,,,,,,,,,,,,,,,,,,,,,,,,,,,,,,,,,,
609248,001,2022-11-21_00h46.34.372,Info_measure_main_exp,2022.2.2,Win32,59.95203837,,,,,,,,,,,,,,,,,,masks/mask_003.jpg,,,,,,,,,,,,,,,,,,,,,,,,,,,,,,,,,,,,,,,,,,,,,,,0,1,1,2,1,,,,,,,,,,,,,,,,,,,,,,,,,,,,,,,,,,,,,,,,,
609248,001,2022-11-21_00h46.34.372,Info_measure_main_exp,2022.2.2,Win32,59.95203837,,,,,,,,,,,,,,,,,,masks/mask_005.jpg,,,,,,,,,,,,,,,,,,,,,,,,,,,,,,,,,,,,,,,,,,,,,,,0,2,2,4,1,,,,,,,,,,,,,,,,,,,,,,,,,,,,,,,,,,,,,,,,,
609248,001,2022-11-21_00h46.34.372,Info_measure_main_exp,2022.2.2,Win32,59.95203837,,,,,,,,,,,,,,,,,,masks/mask_002.jpg,,,,,,,,,,,,,,,,,,,,,,,,,,,,,,,,,,,,,,,,,,,,,,,0,3,3,1,1,,,,,,,,,,,,,,,,,,,,,,,,,,,,,,,,,,,,,,,,,
609248,001,2022-11-21_00h46.34.372,Info_measure_main_exp,2022.2.2,Win32,59.95203837,,,,,,,,,,,,,,,,,,masks/mask_001.jpg,,,,,,,,,,,,,,,,,,,,,,,,,,,,,,,,,,,,,,,,,,,,,,,0,4,4,0,1,,,,,,,,,,,,,,,,,,,,,,,,,,,,,,,,,,,,,,,,,
609248,001,2022-11-21_00h46.34.372,Info_measure_main_exp,2022.2.2,Win32,59.95203837,,,,,,,,,,,,,,,,,,,,,,,,,,,,,,1,1.467,1,,,,,,,,,,,,0,131,5,5,2142,2142,absent_patch/patch0002142.jpg,absent_patch/patch0002142.jpg,,,,,,,,,,,,,,,,,,,-0.063657407,0.016203704,1,0,0,response7disk,19,-0.005787037,0,1,0,0,center_square,0,18,18,13,1,,,,,,,,,,,,,,,,,,,,,,,
609248,001,2022-11-21_00h46.34.372,Info_measure_main_exp,2022.2.2,Win32,59.95203837,,,,,,,,,,,,,,,,,,masks/mask_003.jpg,,,,,,,,,,,,,,,,,,,,,,,,,,,,,,,,,,,,,,,,,,0,0,0,2,1,,,,,,,,,,,,,,,,,,,,,,,,,,,,,,,,,,,,,,,,,,,,,,
609248,001,2022-11-21_00h46.34.372,Info_measure_main_exp,2022.2.2,Win32,59.95203837,,,,,,,,,,,,,,,,,,masks/mask_002.jpg,,,,,,,,,,,,,,,,,,,,,,,,,,,,,,,,,,,,,,,,,,0,1,1,1,1,,,,,,,,,,,,,,,,,,,,,,,,,,,,,,,,,,,,,,,,,,,,,,
609248,001,2022-11-21_00h46.34.372,Info_measure_main_exp,2022.2.2,Win32,59.95203837,,,,,,,,,,,,,,,,,,masks/mask_001.jpg,,,,,,,,,,,,,,,,,,,,,,,,,,,,,,,,,,,,,,,,,,0,2,2,0,1,,,,,,,,,,,,,,,,,,,,,,,,,,,,,,,,,,,,,,,,,,,,,,
609248,001,2022-11-21_00h46.34.372,Info_measure_main_exp,2022.2.2,Win32,59.95203837,,,,,,,,,,,,,,,,,,masks/mask_004.jpg,,,,,,,,,,,,,,,,,,,,,,,,,,,,,,,,,,,,,,,,,,0,3,3,3,1,,,,,,,,,,,,,,,,,,,,,,,,,,,,,,,,,,,,,,,,,,,,,,
609248,001,2022-11-21_00h46.34.372,Info_measure_main_exp,2022.2.2,Win32,59.95203837,,,,,,,,,,,,,,,,,,masks/mask_005.jpg,,,,,,,,,,,,,,,,,,,,,,,,,,,,,,,,,,,,,,,,,,0,4,4,4,1,,,,,,,,,,,,,,,,,,,,,,,,,,,,,,,,,,,,,,,,,,,,,,
609248,001,2022-11-21_00h46.34.372,Info_measure_main_exp,2022.2.2,Win32,59.95203837,,,,,,,,,,,,,,,,,,masks/mask_003.jpg,,,,,,,,,,,,,,,,,,,,,,,,,,,,,,,,,,,,,,,,,,,,,,,0,0,0,2,1,,,,,,,,,,,,,,,,,,,,,,,,,,,,,,,,,,,,,,,,,
609248,001,2022-11-21_00h46.34.372,Info_measure_main_exp,2022.2.2,Win32,59.95203837,,,,,,,,,,,,,,,,,,masks/mask_004.jpg,,,,,,,,,,,,,,,,,,,,,,,,,,,,,,,,,,,,,,,,,,,,,,,0,1,1,3,1,,,,,,,,,,,,,,,,,,,,,,,,,,,,,,,,,,,,,,,,,
609248,001,2022-11-21_00h46.34.372,Info_measure_main_exp,2022.2.2,Win32,59.95203837,,,,,,,,,,,,,,,,,,masks/mask_002.jpg,,,,,,,,,,,,,,,,,,,,,,,,,,,,,,,,,,,,,,,,,,,,,,,0,2,2,1,1,,,,,,,,,,,,,,,,,,,,,,,,,,,,,,,,,,,,,,,,,
609248,001,2022-11-21_00h46.34.372,Info_measure_main_exp,2022.2.2,Win32,59.95203837,,,,,,,,,,,,,,,,,,masks/mask_001.jpg,,,,,,,,,,,,,,,,,,,,,,,,,,,,,,,,,,,,,,,,,,,,,,,0,3,3,0,1,,,,,,,,,,,,,,,,,,,,,,,,,,,,,,,,,,,,,,,,,
609248,001,2022-11-21_00h46.34.372,Info_measure_main_exp,2022.2.2,Win32,59.95203837,,,,,,,,,,,,,,,,,,masks/mask_005.jpg,,,,,,,,,,,,,,,,,,,,,,,,,,,,,,,,,,,,,,,,,,,,,,,0,4,4,4,1,,,,,,,,,,,,,,,,,,,,,,,,,,,,,,,,,,,,,,,,,
609248,001,2022-11-21_00h46.34.372,Info_measure_main_exp,2022.2.2,Win32,59.95203837,,,,,,,,,,,,,,,,,,,,,,,,,,,,,,6,1,1,,,,,,,,,,,,0,131,5,5,1986,2274,absent_patch/patch0001986.jpg,absent_patch/patch0002274.jpg,,,,,,,,,,,,,,,,,,,0.03587963,0.016203704,1,0,0,response1disk,20,0.005787037,0.00462963,1,0,0,center_square,0,19,19,7,1,,,,,,,,,,,,,,,,,,,,,,,
609248,001,2022-11-21_00h46.34.372,Info_measure_main_exp,2022.2.2,Win32,59.95203837,,,,,,,,,,,,,,,,,,masks/mask_003.jpg,,,,,,,,,,,,,,,,,,,,,,,,,,,,,,,,,,,,,,,,,,0,0,0,2,1,,,,,,,,,,,,,,,,,,,,,,,,,,,,,,,,,,,,,,,,,,,,,,
609248,001,2022-11-21_00h46.34.372,Info_measure_main_exp,2022.2.2,Win32,59.95203837,,,,,,,,,,,,,,,,,,masks/mask_001.jpg,,,,,,,,,,,,,,,,,,,,,,,,,,,,,,,,,,,,,,,,,,0,1,1,0,1,,,,,,,,,,,,,,,,,,,,,,,,,,,,,,,,,,,,,,,,,,,,,,
609248,001,2022-11-21_00h46.34.372,Info_measure_main_exp,2022.2.2,Win32,59.95203837,,,,,,,,,,,,,,,,,,masks/mask_005.jpg,,,,,,,,,,,,,,,,,,,,,,,,,,,,,,,,,,,,,,,,,,0,2,2,4,1,,,,,,,,,,,,,,,,,,,,,,,,,,,,,,,,,,,,,,,,,,,,,,
609248,001,2022-11-21_00h46.34.372,Info_measure_main_exp,2022.2.2,Win32,59.95203837,,,,,,,,,,,,,,,,,,masks/mask_002.jpg,,,,,,,,,,,,,,,,,,,,,,,,,,,,,,,,,,,,,,,,,,0,3,3,1,1,,,,,,,,,,,,,,,,,,,,,,,,,,,,,,,,,,,,,,,,,,,,,,
609248,001,2022-11-21_00h46.34.372,Info_measure_main_exp,2022.2.2,Win32,59.95203837,,,,,,,,,,,,,,,,,,masks/mask_004.jpg,,,,,,,,,,,,,,,,,,,,,,,,,,,,,,,,,,,,,,,,,,0,4,4,3,1,,,,,,,,,,,,,,,,,,,,,,,,,,,,,,,,,,,,,,,,,,,,,,
609248,001,2022-11-21_00h46.34.372,Info_measure_main_exp,2022.2.2,Win32,59.95203837,,,,,,,,,,,,,,,,,,masks/mask_002.jpg,,,,,,,,,,,,,,,,,,,,,,,,,,,,,,,,,,,,,,,,,,,,,,,0,0,0,1,1,,,,,,,,,,,,,,,,,,,,,,,,,,,,,,,,,,,,,,,,,
609248,001,2022-11-21_00h46.34.372,Info_measure_main_exp,2022.2.2,Win32,59.95203837,,,,,,,,,,,,,,,,,,masks/mask_003.jpg,,,,,,,,,,,,,,,,,,,,,,,,,,,,,,,,,,,,,,,,,,,,,,,0,1,1,2,1,,,,,,,,,,,,,,,,,,,,,,,,,,,,,,,,,,,,,,,,,
609248,001,2022-11-21_00h46.34.372,Info_measure_main_exp,2022.2.2,Win32,59.95203837,,,,,,,,,,,,,,,,,,masks/mask_001.jpg,,,,,,,,,,,,,,,,,,,,,,,,,,,,,,,,,,,,,,,,,,,,,,,0,2,2,0,1,,,,,,,,,,,,,,,,,,,,,,,,,,,,,,,,,,,,,,,,,
609248,001,2022-11-21_00h46.34.372,Info_measure_main_exp,2022.2.2,Win32,59.95203837,,,,,,,,,,,,,,,,,,masks/mask_005.jpg,,,,,,,,,,,,,,,,,,,,,,,,,,,,,,,,,,,,,,,,,,,,,,,0,3,3,4,1,,,,,,,,,,,,,,,,,,,,,,,,,,,,,,,,,,,,,,,,,
609248,001,2022-11-21_00h46.34.372,Info_measure_main_exp,2022.2.2,Win32,59.95203837,,,,,,,,,,,,,,,,,,masks/mask_004.jpg,,,,,,,,,,,,,,,,,,,,,,,,,,,,,,,,,,,,,,,,,,,,,,,0,4,4,3,1,,,,,,,,,,,,,,,,,,,,,,,,,,,,,,,,,,,,,,,,,
609248,001,2022-11-21_00h46.34.372,Info_measure_main_exp,2022.2.2,Win32,59.95203837,,,,,,,,,,,,,,,,,,,,,,,,,,,,,,2,1.384,1,,,,,,,,,,,,0,131,5,5,2238,2214,absent_patch/patch0002238.jpg,absent_patch/patch0002214.jpg,,,,,,,,,,,,,,,,,,,-0.06712963,-0.016203704,1,0,0,response5disk,21,-0.009259259,-0.001157407,1,0,0,center_square,0,20,20,81,1,,,,,,,,,,,,,,,,,,,,,,,
609248,001,2022-11-21_00h46.34.372,Info_measure_main_exp,2022.2.2,Win32,59.95203837,,,,,,,,,,,,,,,,,,masks/mask_001.jpg,,,,,,,,,,,,,,,,,,,,,,,,,,,,,,,,,,,,,,,,,,0,0,0,0,1,,,,,,,,,,,,,,,,,,,,,,,,,,,,,,,,,,,,,,,,,,,,,,
609248,001,2022-11-21_00h46.34.372,Info_measure_main_exp,2022.2.2,Win32,59.95203837,,,,,,,,,,,,,,,,,,masks/mask_002.jpg,,,,,,,,,,,,,,,,,,,,,,,,,,,,,,,,,,,,,,,,,,0,1,1,1,1,,,,,,,,,,,,,,,,,,,,,,,,,,,,,,,,,,,,,,,,,,,,,,
609248,001,2022-11-21_00h46.34.372,Info_measure_main_exp,2022.2.2,Win32,59.95203837,,,,,,,,,,,,,,,,,,masks/mask_003.jpg,,,,,,,,,,,,,,,,,,,,,,,,,,,,,,,,,,,,,,,,,,0,2,2,2,1,,,,,,,,,,,,,,,,,,,,,,,,,,,,,,,,,,,,,,,,,,,,,,
609248,001,2022-11-21_00h46.34.372,Info_measure_main_exp,2022.2.2,Win32,59.95203837,,,,,,,,,,,,,,,,,,masks/mask_005.jpg,,,,,,,,,,,,,,,,,,,,,,,,,,,,,,,,,,,,,,,,,,0,3,3,4,1,,,,,,,,,,,,,,,,,,,,,,,,,,,,,,,,,,,,,,,,,,,,,,
609248,001,2022-11-21_00h46.34.372,Info_measure_main_exp,2022.2.2,Win32,59.95203837,,,,,,,,,,,,,,,,,,masks/mask_004.jpg,,,,,,,,,,,,,,,,,,,,,,,,,,,,,,,,,,,,,,,,,,0,4,4,3,1,,,,,,,,,,,,,,,,,,,,,,,,,,,,,,,,,,,,,,,,,,,,,,
609248,001,2022-11-21_00h46.34.372,Info_measure_main_exp,2022.2.2,Win32,59.95203837,,,,,,,,,,,,,,,,,,masks/mask_003.jpg,,,,,,,,,,,,,,,,,,,,,,,,,,,,,,,,,,,,,,,,,,,,,,,0,0,0,2,1,,,,,,,,,,,,,,,,,,,,,,,,,,,,,,,,,,,,,,,,,
609248,001,2022-11-21_00h46.34.372,Info_measure_main_exp,2022.2.2,Win32,59.95203837,,,,,,,,,,,,,,,,,,masks/mask_004.jpg,,,,,,,,,,,,,,,,,,,,,,,,,,,,,,,,,,,,,,,,,,,,,,,0,1,1,3,1,,,,,,,,,,,,,,,,,,,,,,,,,,,,,,,,,,,,,,,,,
609248,001,2022-11-21_00h46.34.372,Info_measure_main_exp,2022.2.2,Win32,59.95203837,,,,,,,,,,,,,,,,,,masks/mask_005.jpg,,,,,,,,,,,,,,,,,,,,,,,,,,,,,,,,,,,,,,,,,,,,,,,0,2,2,4,1,,,,,,,,,,,,,,,,,,,,,,,,,,,,,,,,,,,,,,,,,
609248,001,2022-11-21_00h46.34.372,Info_measure_main_exp,2022.2.2,Win32,59.95203837,,,,,,,,,,,,,,,,,,masks/mask_002.jpg,,,,,,,,,,,,,,,,,,,,,,,,,,,,,,,,,,,,,,,,,,,,,,,0,3,3,1,1,,,,,,,,,,,,,,,,,,,,,,,,,,,,,,,,,,,,,,,,,
609248,001,2022-11-21_00h46.34.372,Info_measure_main_exp,2022.2.2,Win32,59.95203837,,,,,,,,,,,,,,,,,,masks/mask_001.jpg,,,,,,,,,,,,,,,,,,,,,,,,,,,,,,,,,,,,,,,,,,,,,,,0,4,4,0,1,,,,,,,,,,,,,,,,,,,,,,,,,,,,,,,,,,,,,,,,,
609248,001,2022-11-21_00h46.34.372,Info_measure_main_exp,2022.2.2,Win32,59.95203837,,,,,,,,,,,,,,,,,,,,,,,,,,,,,,7,1.051,1,,,,,,,,,,,,1,131,5,5,2298,1,absent_patch/patch0002298.jpg,present_patch/cong_131_5_a.jpg,,,,,,,,,,,,,,,,,,,0.021990741,0.064814815,1,0,0,response1disk,22,0.006944444,-0.001157407,1,0,0,center_square,0,21,21,45,1,,,,,,,,,,,,,,,,,,,,,,,
609248,001,2022-11-21_00h46.34.372,Info_measure_main_exp,2022.2.2,Win32,59.95203837,,,,,,,,,,,,,,,,,,masks/mask_002.jpg,,,,,,,,,,,,,,,,,,,,,,,,,,,,,,,,,,,,,,,,,,0,0,0,1,1,,,,,,,,,,,,,,,,,,,,,,,,,,,,,,,,,,,,,,,,,,,,,,
609248,001,2022-11-21_00h46.34.372,Info_measure_main_exp,2022.2.2,Win32,59.95203837,,,,,,,,,,,,,,,,,,masks/mask_004.jpg,,,,,,,,,,,,,,,,,,,,,,,,,,,,,,,,,,,,,,,,,,0,1,1,3,1,,,,,,,,,,,,,,,,,,,,,,,,,,,,,,,,,,,,,,,,,,,,,,
609248,001,2022-11-21_00h46.34.372,Info_measure_main_exp,2022.2.2,Win32,59.95203837,,,,,,,,,,,,,,,,,,masks/mask_003.jpg,,,,,,,,,,,,,,,,,,,,,,,,,,,,,,,,,,,,,,,,,,0,2,2,2,1,,,,,,,,,,,,,,,,,,,,,,,,,,,,,,,,,,,,,,,,,,,,,,
609248,001,2022-11-21_00h46.34.372,Info_measure_main_exp,2022.2.2,Win32,59.95203837,,,,,,,,,,,,,,,,,,masks/mask_005.jpg,,,,,,,,,,,,,,,,,,,,,,,,,,,,,,,,,,,,,,,,,,0,3,3,4,1,,,,,,,,,,,,,,,,,,,,,,,,,,,,,,,,,,,,,,,,,,,,,,
609248,001,2022-11-21_00h46.34.372,Info_measure_main_exp,2022.2.2,Win32,59.95203837,,,,,,,,,,,,,,,,,,masks/mask_001.jpg,,,,,,,,,,,,,,,,,,,,,,,,,,,,,,,,,,,,,,,,,,0,4,4,0,1,,,,,,,,,,,,,,,,,,,,,,,,,,,,,,,,,,,,,,,,,,,,,,
609248,001,2022-11-21_00h46.34.372,Info_measure_main_exp,2022.2.2,Win32,59.95203837,,,,,,,,,,,,,,,,,,masks/mask_004.jpg,,,,,,,,,,,,,,,,,,,,,,,,,,,,,,,,,,,,,,,,,,,,,,,0,0,0,3,1,,,,,,,,,,,,,,,,,,,,,,,,,,,,,,,,,,,,,,,,,
609248,001,2022-11-21_00h46.34.372,Info_measure_main_exp,2022.2.2,Win32,59.95203837,,,,,,,,,,,,,,,,,,masks/mask_003.jpg,,,,,,,,,,,,,,,,,,,,,,,,,,,,,,,,,,,,,,,,,,,,,,,0,1,1,2,1,,,,,,,,,,,,,,,,,,,,,,,,,,,,,,,,,,,,,,,,,
609248,001,2022-11-21_00h46.34.372,Info_measure_main_exp,2022.2.2,Win32,59.95203837,,,,,,,,,,,,,,,,,,masks/mask_005.jpg,,,,,,,,,,,,,,,,,,,,,,,,,,,,,,,,,,,,,,,,,,,,,,,0,2,2,4,1,,,,,,,,,,,,,,,,,,,,,,,,,,,,,,,,,,,,,,,,,
609248,001,2022-11-21_00h46.34.372,Info_measure_main_exp,2022.2.2,Win32,59.95203837,,,,,,,,,,,,,,,,,,masks/mask_002.jpg,,,,,,,,,,,,,,,,,,,,,,,,,,,,,,,,,,,,,,,,,,,,,,,0,3,3,1,1,,,,,,,,,,,,,,,,,,,,,,,,,,,,,,,,,,,,,,,,,
609248,001,2022-11-21_00h46.34.372,Info_measure_main_exp,2022.2.2,Win32,59.95203837,,,,,,,,,,,,,,,,,,masks/mask_001.jpg,,,,,,,,,,,,,,,,,,,,,,,,,,,,,,,,,,,,,,,,,,,,,,,0,4,4,0,1,,,,,,,,,,,,,,,,,,,,,,,,,,,,,,,,,,,,,,,,,
609248,001,2022-11-21_00h46.34.372,Info_measure_main_exp,2022.2.2,Win32,59.95203837,,,,,,,,,,,,,,,,,,,,,,,,,,,,,,5,1.282,1,,,,,,,,,,,,0,131,5,5,2190,1950,absent_patch/patch0002190.jpg,absent_patch/patch0001950.jpg,,,,,,,,,,,,,,,,,,,0.123842593,-0.041666667,1,0,0,response3disk,23,0.010416667,0.001157407,1,0,0,center_square,0,22,22,73,1,,,,,,,,,,,,,,,,,,,,,,,
609248,001,2022-11-21_00h46.34.372,Info_measure_main_exp,2022.2.2,Win32,59.95203837,,,,,,,,,,,,,,,,,,masks/mask_004.jpg,,,,,,,,,,,,,,,,,,,,,,,,,,,,,,,,,,,,,,,,,,0,0,0,3,1,,,,,,,,,,,,,,,,,,,,,,,,,,,,,,,,,,,,,,,,,,,,,,
609248,001,2022-11-21_00h46.34.372,Info_measure_main_exp,2022.2.2,Win32,59.95203837,,,,,,,,,,,,,,,,,,masks/mask_001.jpg,,,,,,,,,,,,,,,,,,,,,,,,,,,,,,,,,,,,,,,,,,0,1,1,0,1,,,,,,,,,,,,,,,,,,,,,,,,,,,,,,,,,,,,,,,,,,,,,,
609248,001,2022-11-21_00h46.34.372,Info_measure_main_exp,2022.2.2,Win32,59.95203837,,,,,,,,,,,,,,,,,,masks/mask_003.jpg,,,,,,,,,,,,,,,,,,,,,,,,,,,,,,,,,,,,,,,,,,0,2,2,2,1,,,,,,,,,,,,,,,,,,,,,,,,,,,,,,,,,,,,,,,,,,,,,,
609248,001,2022-11-21_00h46.34.372,Info_measure_main_exp,2022.2.2,Win32,59.95203837,,,,,,,,,,,,,,,,,,masks/mask_002.jpg,,,,,,,,,,,,,,,,,,,,,,,,,,,,,,,,,,,,,,,,,,0,3,3,1,1,,,,,,,,,,,,,,,,,,,,,,,,,,,,,,,,,,,,,,,,,,,,,,
609248,001,2022-11-21_00h46.34.372,Info_measure_main_exp,2022.2.2,Win32,59.95203837,,,,,,,,,,,,,,,,,,masks/mask_005.jpg,,,,,,,,,,,,,,,,,,,,,,,,,,,,,,,,,,,,,,,,,,0,4,4,4,1,,,,,,,,,,,,,,,,,,,,,,,,,,,,,,,,,,,,,,,,,,,,,,
609248,001,2022-11-21_00h46.34.372,Info_measure_main_exp,2022.2.2,Win32,59.95203837,,,,,,,,,,,,,,,,,,masks/mask_004.jpg,,,,,,,,,,,,,,,,,,,,,,,,,,,,,,,,,,,,,,,,,,,,,,,0,0,0,3,1,,,,,,,,,,,,,,,,,,,,,,,,,,,,,,,,,,,,,,,,,
609248,001,2022-11-21_00h46.34.372,Info_measure_main_exp,2022.2.2,Win32,59.95203837,,,,,,,,,,,,,,,,,,masks/mask_005.jpg,,,,,,,,,,,,,,,,,,,,,,,,,,,,,,,,,,,,,,,,,,,,,,,0,1,1,4,1,,,,,,,,,,,,,,,,,,,,,,,,,,,,,,,,,,,,,,,,,
609248,001,2022-11-21_00h46.34.372,Info_measure_main_exp,2022.2.2,Win32,59.95203837,,,,,,,,,,,,,,,,,,masks/mask_002.jpg,,,,,,,,,,,,,,,,,,,,,,,,,,,,,,,,,,,,,,,,,,,,,,,0,2,2,1,1,,,,,,,,,,,,,,,,,,,,,,,,,,,,,,,,,,,,,,,,,
609248,001,2022-11-21_00h46.34.372,Info_measure_main_exp,2022.2.2,Win32,59.95203837,,,,,,,,,,,,,,,,,,masks/mask_001.jpg,,,,,,,,,,,,,,,,,,,,,,,,,,,,,,,,,,,,,,,,,,,,,,,0,3,3,0,1,,,,,,,,,,,,,,,,,,,,,,,,,,,,,,,,,,,,,,,,,
609248,001,2022-11-21_00h46.34.372,Info_measure_main_exp,2022.2.2,Win32,59.95203837,,,,,,,,,,,,,,,,,,masks/mask_003.jpg,,,,,,,,,,,,,,,,,,,,,,,,,,,,,,,,,,,,,,,,,,,,,,,0,4,4,2,1,,,,,,,,,,,,,,,,,,,,,,,,,,,,,,,,,,,,,,,,,
609248,001,2022-11-21_00h46.34.372,Info_measure_main_exp,2022.2.2,Win32,59.95203837,,,,,,,,,,,,,,,,,,,,,,,,,,,,,,7,1.15,1,,,,,,,,,,,,0,131,5,5,2190,2250,absent_patch/patch0002190.jpg,absent_patch/patch0002250.jpg,,,,,,,,,,,,,,,,,,,0.034722222,0.090277778,1,0,0,response1disk,24,0.005787037,0.009259259,1,0,0,center_square,0,23,23,93,1,,,,,,,,,,,,,,,,,,,,,,,
609248,001,2022-11-21_00h46.34.372,Info_measure_main_exp,2022.2.2,Win32,59.95203837,,,,,,,,,,,,,,,,,,masks/mask_001.jpg,,,,,,,,,,,,,,,,,,,,,,,,,,,,,,,,,,,,,,,,,,0,0,0,0,1,,,,,,,,,,,,,,,,,,,,,,,,,,,,,,,,,,,,,,,,,,,,,,
609248,001,2022-11-21_00h46.34.372,Info_measure_main_exp,2022.2.2,Win32,59.95203837,,,,,,,,,,,,,,,,,,masks/mask_004.jpg,,,,,,,,,,,,,,,,,,,,,,,,,,,,,,,,,,,,,,,,,,0,1,1,3,1,,,,,,,,,,,,,,,,,,,,,,,,,,,,,,,,,,,,,,,,,,,,,,
609248,001,2022-11-21_00h46.34.372,Info_measure_main_exp,2022.2.2,Win32,59.95203837,,,,,,,,,,,,,,,,,,masks/mask_002.jpg,,,,,,,,,,,,,,,,,,,,,,,,,,,,,,,,,,,,,,,,,,0,2,2,1,1,,,,,,,,,,,,,,,,,,,,,,,,,,,,,,,,,,,,,,,,,,,,,,
609248,001,2022-11-21_00h46.34.372,Info_measure_main_exp,2022.2.2,Win32,59.95203837,,,,,,,,,,,,,,,,,,masks/mask_003.jpg,,,,,,,,,,,,,,,,,,,,,,,,,,,,,,,,,,,,,,,,,,0,3,3,2,1,,,,,,,,,,,,,,,,,,,,,,,,,,,,,,,,,,,,,,,,,,,,,,
609248,001,2022-11-21_00h46.34.372,Info_measure_main_exp,2022.2.2,Win32,59.95203837,,,,,,,,,,,,,,,,,,masks/mask_005.jpg,,,,,,,,,,,,,,,,,,,,,,,,,,,,,,,,,,,,,,,,,,0,4,4,4,1,,,,,,,,,,,,,,,,,,,,,,,,,,,,,,,,,,,,,,,,,,,,,,
609248,001,2022-11-21_00h46.34.372,Info_measure_main_exp,2022.2.2,Win32,59.95203837,,,,,,,,,,,,,,,,,,masks/mask_004.jpg,,,,,,,,,,,,,,,,,,,,,,,,,,,,,,,,,,,,,,,,,,,,,,,0,0,0,3,1,,,,,,,,,,,,,,,,,,,,,,,,,,,,,,,,,,,,,,,,,
609248,001,2022-11-21_00h46.34.372,Info_measure_main_exp,2022.2.2,Win32,59.95203837,,,,,,,,,,,,,,,,,,masks/mask_002.jpg,,,,,,,,,,,,,,,,,,,,,,,,,,,,,,,,,,,,,,,,,,,,,,,0,1,1,1,1,,,,,,,,,,,,,,,,,,,,,,,,,,,,,,,,,,,,,,,,,
609248,001,2022-11-21_00h46.34.372,Info_measure_main_exp,2022.2.2,Win32,59.95203837,,,,,,,,,,,,,,,,,,masks/mask_003.jpg,,,,,,,,,,,,,,,,,,,,,,,,,,,,,,,,,,,,,,,,,,,,,,,0,2,2,2,1,,,,,,,,,,,,,,,,,,,,,,,,,,,,,,,,,,,,,,,,,
609248,001,2022-11-21_00h46.34.372,Info_measure_main_exp,2022.2.2,Win32,59.95203837,,,,,,,,,,,,,,,,,,masks/mask_001.jpg,,,,,,,,,,,,,,,,,,,,,,,,,,,,,,,,,,,,,,,,,,,,,,,0,3,3,0,1,,,,,,,,,,,,,,,,,,,,,,,,,,,,,,,,,,,,,,,,,
609248,001,2022-11-21_00h46.34.372,Info_measure_main_exp,2022.2.2,Win32,59.95203837,,,,,,,,,,,,,,,,,,masks/mask_005.jpg,,,,,,,,,,,,,,,,,,,,,,,,,,,,,,,,,,,,,,,,,,,,,,,0,4,4,4,1,,,,,,,,,,,,,,,,,,,,,,,,,,,,,,,,,,,,,,,,,
609248,001,2022-11-21_00h46.34.372,Info_measure_main_exp,2022.2.2,Win32,59.95203837,,,,,,,,,,,,,,,,,,,,,,,,,,,,,,7,0.851,1,,,,,,,,,,,,0,131,5,5,1986,1950,absent_patch/patch0001986.jpg,absent_patch/patch0001950.jpg,,,,,,,,,,,,,,,,,,,0.033564815,0.076388889,1,0,0,response1disk,25,-0.002314815,0.005787037,1,0,0,center_square,0,24,24,15,1,,,,,,,,,,,,,,,,,,,,,,,
609248,001,2022-11-21_00h46.34.372,Info_measure_main_exp,2022.2.2,Win32,59.95203837,,,,,,,,,,,,,,,,,,masks/mask_002.jpg,,,,,,,,,,,,,,,,,,,,,,,,,,,,,,,,,,,,,,,,,,0,0,0,1,1,,,,,,,,,,,,,,,,,,,,,,,,,,,,,,,,,,,,,,,,,,,,,,
609248,001,2022-11-21_00h46.34.372,Info_measure_main_exp,2022.2.2,Win32,59.95203837,,,,,,,,,,,,,,,,,,masks/mask_004.jpg,,,,,,,,,,,,,,,,,,,,,,,,,,,,,,,,,,,,,,,,,,0,1,1,3,1,,,,,,,,,,,,,,,,,,,,,,,,,,,,,,,,,,,,,,,,,,,,,,
609248,001,2022-11-21_00h46.34.372,Info_measure_main_exp,2022.2.2,Win32,59.95203837,,,,,,,,,,,,,,,,,,masks/mask_001.jpg,,,,,,,,,,,,,,,,,,,,,,,,,,,,,,,,,,,,,,,,,,0,2,2,0,1,,,,,,,,,,,,,,,,,,,,,,,,,,,,,,,,,,,,,,,,,,,,,,
609248,001,2022-11-21_00h46.34.372,Info_measure_main_exp,2022.2.2,Win32,59.95203837,,,,,,,,,,,,,,,,,,masks/mask_005.jpg,,,,,,,,,,,,,,,,,,,,,,,,,,,,,,,,,,,,,,,,,,0,3,3,4,1,,,,,,,,,,,,,,,,,,,,,,,,,,,,,,,,,,,,,,,,,,,,,,
609248,001,2022-11-21_00h46.34.372,Info_measure_main_exp,2022.2.2,Win32,59.95203837,,,,,,,,,,,,,,,,,,masks/mask_003.jpg,,,,,,,,,,,,,,,,,,,,,,,,,,,,,,,,,,,,,,,,,,0,4,4,2,1,,,,,,,,,,,,,,,,,,,,,,,,,,,,,,,,,,,,,,,,,,,,,,
609248,001,2022-11-21_00h46.34.372,Info_measure_main_exp,2022.2.2,Win32,59.95203837,,,,,,,,,,,,,,,,,,masks/mask_001.jpg,,,,,,,,,,,,,,,,,,,,,,,,,,,,,,,,,,,,,,,,,,,,,,,0,0,0,0,1,,,,,,,,,,,,,,,,,,,,,,,,,,,,,,,,,,,,,,,,,
609248,001,2022-11-21_00h46.34.372,Info_measure_main_exp,2022.2.2,Win32,59.95203837,,,,,,,,,,,,,,,,,,masks/mask_004.jpg,,,,,,,,,,,,,,,,,,,,,,,,,,,,,,,,,,,,,,,,,,,,,,,0,1,1,3,1,,,,,,,,,,,,,,,,,,,,,,,,,,,,,,,,,,,,,,,,,
609248,001,2022-11-21_00h46.34.372,Info_measure_main_exp,2022.2.2,Win32,59.95203837,,,,,,,,,,,,,,,,,,masks/mask_003.jpg,,,,,,,,,,,,,,,,,,,,,,,,,,,,,,,,,,,,,,,,,,,,,,,0,2,2,2,1,,,,,,,,,,,,,,,,,,,,,,,,,,,,,,,,,,,,,,,,,
609248,001,2022-11-21_00h46.34.372,Info_measure_main_exp,2022.2.2,Win32,59.95203837,,,,,,,,,,,,,,,,,,masks/mask_002.jpg,,,,,,,,,,,,,,,,,,,,,,,,,,,,,,,,,,,,,,,,,,,,,,,0,3,3,1,1,,,,,,,,,,,,,,,,,,,,,,,,,,,,,,,,,,,,,,,,,
609248,001,2022-11-21_00h46.34.372,Info_measure_main_exp,2022.2.2,Win32,59.95203837,,,,,,,,,,,,,,,,,,masks/mask_005.jpg,,,,,,,,,,,,,,,,,,,,,,,,,,,,,,,,,,,,,,,,,,,,,,,0,4,4,4,1,,,,,,,,,,,,,,,,,,,,,,,,,,,,,,,,,,,,,,,,,
609248,001,2022-11-21_00h46.34.372,Info_measure_main_exp,2022.2.2,Win32,59.95203837,,,,,,,,,,,,,,,,,,,,,,,,,,,,,,6,1.451,1,,,,,,,,,,,,0,131,5,5,2154,2190,absent_patch/patch0002154.jpg,absent_patch/patch0002190.jpg,,,,,,,,,,,,,,,,,,,0.068287037,0.039351852,1,0,0,response1disk,26,0.009259259,0.010416667,1,0,0,center_square,0,25,25,68,1,,,,,,,,,,,,,,,,,,,,,,,
609248,001,2022-11-21_00h46.34.372,Info_measure_main_exp,2022.2.2,Win32,59.95203837,,,,,,,,,,,,,,,,,,masks/mask_001.jpg,,,,,,,,,,,,,,,,,,,,,,,,,,,,,,,,,,,,,,,,,,0,0,0,0,1,,,,,,,,,,,,,,,,,,,,,,,,,,,,,,,,,,,,,,,,,,,,,,
609248,001,2022-11-21_00h46.34.372,Info_measure_main_exp,2022.2.2,Win32,59.95203837,,,,,,,,,,,,,,,,,,masks/mask_002.jpg,,,,,,,,,,,,,,,,,,,,,,,,,,,,,,,,,,,,,,,,,,0,1,1,1,1,,,,,,,,,,,,,,,,,,,,,,,,,,,,,,,,,,,,,,,,,,,,,,
609248,001,2022-11-21_00h46.34.372,Info_measure_main_exp,2022.2.2,Win32,59.95203837,,,,,,,,,,,,,,,,,,masks/mask_004.jpg,,,,,,,,,,,,,,,,,,,,,,,,,,,,,,,,,,,,,,,,,,0,2,2,3,1,,,,,,,,,,,,,,,,,,,,,,,,,,,,,,,,,,,,,,,,,,,,,,
609248,001,2022-11-21_00h46.34.372,Info_measure_main_exp,2022.2.2,Win32,59.95203837,,,,,,,,,,,,,,,,,,masks/mask_005.jpg,,,,,,,,,,,,,,,,,,,,,,,,,,,,,,,,,,,,,,,,,,0,3,3,4,1,,,,,,,,,,,,,,,,,,,,,,,,,,,,,,,,,,,,,,,,,,,,,,
609248,001,2022-11-21_00h46.34.372,Info_measure_main_exp,2022.2.2,Win32,59.95203837,,,,,,,,,,,,,,,,,,masks/mask_003.jpg,,,,,,,,,,,,,,,,,,,,,,,,,,,,,,,,,,,,,,,,,,0,4,4,2,1,,,,,,,,,,,,,,,,,,,,,,,,,,,,,,,,,,,,,,,,,,,,,,
609248,001,2022-11-21_00h46.34.372,Info_measure_main_exp,2022.2.2,Win32,59.95203837,,,,,,,,,,,,,,,,,,masks/mask_003.jpg,,,,,,,,,,,,,,,,,,,,,,,,,,,,,,,,,,,,,,,,,,,,,,,0,0,0,2,1,,,,,,,,,,,,,,,,,,,,,,,,,,,,,,,,,,,,,,,,,
609248,001,2022-11-21_00h46.34.372,Info_measure_main_exp,2022.2.2,Win32,59.95203837,,,,,,,,,,,,,,,,,,masks/mask_002.jpg,,,,,,,,,,,,,,,,,,,,,,,,,,,,,,,,,,,,,,,,,,,,,,,0,1,1,1,1,,,,,,,,,,,,,,,,,,,,,,,,,,,,,,,,,,,,,,,,,
609248,001,2022-11-21_00h46.34.372,Info_measure_main_exp,2022.2.2,Win32,59.95203837,,,,,,,,,,,,,,,,,,masks/mask_004.jpg,,,,,,,,,,,,,,,,,,,,,,,,,,,,,,,,,,,,,,,,,,,,,,,0,2,2,3,1,,,,,,,,,,,,,,,,,,,,,,,,,,,,,,,,,,,,,,,,,
609248,001,2022-11-21_00h46.34.372,Info_measure_main_exp,2022.2.2,Win32,59.95203837,,,,,,,,,,,,,,,,,,masks/mask_005.jpg,,,,,,,,,,,,,,,,,,,,,,,,,,,,,,,,,,,,,,,,,,,,,,,0,3,3,4,1,,,,,,,,,,,,,,,,,,,,,,,,,,,,,,,,,,,,,,,,,
609248,001,2022-11-21_00h46.34.372,Info_measure_main_exp,2022.2.2,Win32,59.95203837,,,,,,,,,,,,,,,,,,masks/mask_001.jpg,,,,,,,,,,,,,,,,,,,,,,,,,,,,,,,,,,,,,,,,,,,,,,,0,4,4,0,1,,,,,,,,,,,,,,,,,,,,,,,,,,,,,,,,,,,,,,,,,
609248,001,2022-11-21_00h46.34.372,Info_measure_main_exp,2022.2.2,Win32,59.95203837,,,,,,,,,,,,,,,,,,,,,,,,,,,,,,7,0.783,1,,,,,,,,,,,,0,131,5,5,1974,2166,absent_patch/patch0001974.jpg,absent_patch/patch0002166.jpg,,,,,,,,,,,,,,,,,,,0.011574074,0.037037037,1,0,0,response1disk,27,-0.006944444,-0.005787037,1,0,0,center_square,0,26,26,77,1,,,,,,,,,,,,,,,,,,,,,,,
609248,001,2022-11-21_00h46.34.372,Info_measure_main_exp,2022.2.2,Win32,59.95203837,,,,,,,,,,,,,,,,,,masks/mask_002.jpg,,,,,,,,,,,,,,,,,,,,,,,,,,,,,,,,,,,,,,,,,,0,0,0,1,1,,,,,,,,,,,,,,,,,,,,,,,,,,,,,,,,,,,,,,,,,,,,,,
609248,001,2022-11-21_00h46.34.372,Info_measure_main_exp,2022.2.2,Win32,59.95203837,,,,,,,,,,,,,,,,,,masks/mask_001.jpg,,,,,,,,,,,,,,,,,,,,,,,,,,,,,,,,,,,,,,,,,,0,1,1,0,1,,,,,,,,,,,,,,,,,,,,,,,,,,,,,,,,,,,,,,,,,,,,,,
609248,001,2022-11-21_00h46.34.372,Info_measure_main_exp,2022.2.2,Win32,59.95203837,,,,,,,,,,,,,,,,,,masks/mask_005.jpg,,,,,,,,,,,,,,,,,,,,,,,,,,,,,,,,,,,,,,,,,,0,2,2,4,1,,,,,,,,,,,,,,,,,,,,,,,,,,,,,,,,,,,,,,,,,,,,,,
609248,001,2022-11-21_00h46.34.372,Info_measure_main_exp,2022.2.2,Win32,59.95203837,,,,,,,,,,,,,,,,,,masks/mask_004.jpg,,,,,,,,,,,,,,,,,,,,,,,,,,,,,,,,,,,,,,,,,,0,3,3,3,1,,,,,,,,,,,,,,,,,,,,,,,,,,,,,,,,,,,,,,,,,,,,,,
609248,001,2022-11-21_00h46.34.372,Info_measure_main_exp,2022.2.2,Win32,59.95203837,,,,,,,,,,,,,,,,,,masks/mask_003.jpg,,,,,,,,,,,,,,,,,,,,,,,,,,,,,,,,,,,,,,,,,,0,4,4,2,1,,,,,,,,,,,,,,,,,,,,,,,,,,,,,,,,,,,,,,,,,,,,,,
609248,001,2022-11-21_00h46.34.372,Info_measure_main_exp,2022.2.2,Win32,59.95203837,,,,,,,,,,,,,,,,,,masks/mask_002.jpg,,,,,,,,,,,,,,,,,,,,,,,,,,,,,,,,,,,,,,,,,,,,,,,0,0,0,1,1,,,,,,,,,,,,,,,,,,,,,,,,,,,,,,,,,,,,,,,,,
609248,001,2022-11-21_00h46.34.372,Info_measure_main_exp,2022.2.2,Win32,59.95203837,,,,,,,,,,,,,,,,,,masks/mask_004.jpg,,,,,,,,,,,,,,,,,,,,,,,,,,,,,,,,,,,,,,,,,,,,,,,0,1,1,3,1,,,,,,,,,,,,,,,,,,,,,,,,,,,,,,,,,,,,,,,,,
609248,001,2022-11-21_00h46.34.372,Info_measure_main_exp,2022.2.2,Win32,59.95203837,,,,,,,,,,,,,,,,,,masks/mask_001.jpg,,,,,,,,,,,,,,,,,,,,,,,,,,,,,,,,,,,,,,,,,,,,,,,0,2,2,0,1,,,,,,,,,,,,,,,,,,,,,,,,,,,,,,,,,,,,,,,,,
609248,001,2022-11-21_00h46.34.372,Info_measure_main_exp,2022.2.2,Win32,59.95203837,,,,,,,,,,,,,,,,,,masks/mask_003.jpg,,,,,,,,,,,,,,,,,,,,,,,,,,,,,,,,,,,,,,,,,,,,,,,0,3,3,2,1,,,,,,,,,,,,,,,,,,,,,,,,,,,,,,,,,,,,,,,,,
609248,001,2022-11-21_00h46.34.372,Info_measure_main_exp,2022.2.2,Win32,59.95203837,,,,,,,,,,,,,,,,,,masks/mask_005.jpg,,,,,,,,,,,,,,,,,,,,,,,,,,,,,,,,,,,,,,,,,,,,,,,0,4,4,4,1,,,,,,,,,,,,,,,,,,,,,,,,,,,,,,,,,,,,,,,,,
609248,001,2022-11-21_00h46.34.372,Info_measure_main_exp,2022.2.2,Win32,59.95203837,,,,,,,,,,,,,,,,,,,,,,,,,,,,,,0,0.55,1,,,,,,,,,,,,0,131,5,5,2274,2274,absent_patch/patch0002274.jpg,absent_patch/patch0002274.jpg,,,,,,,,,,,,,,,,,,,-0.034722222,0.085648148,1,0,0,response7disk,28,-0.00462963,0.003472222,1,0,0,center_square,0,27,27,114,1,,,,,,,,,,,,,,,,,,,,,,,
609248,001,2022-11-21_00h46.34.372,Info_measure_main_exp,2022.2.2,Win32,59.95203837,,,,,,,,,,,,,,,,,,masks/mask_003.jpg,,,,,,,,,,,,,,,,,,,,,,,,,,,,,,,,,,,,,,,,,,0,0,0,2,1,,,,,,,,,,,,,,,,,,,,,,,,,,,,,,,,,,,,,,,,,,,,,,
609248,001,2022-11-21_00h46.34.372,Info_measure_main_exp,2022.2.2,Win32,59.95203837,,,,,,,,,,,,,,,,,,masks/mask_004.jpg,,,,,,,,,,,,,,,,,,,,,,,,,,,,,,,,,,,,,,,,,,0,1,1,3,1,,,,,,,,,,,,,,,,,,,,,,,,,,,,,,,,,,,,,,,,,,,,,,
609248,001,2022-11-21_00h46.34.372,Info_measure_main_exp,2022.2.2,Win32,59.95203837,,,,,,,,,,,,,,,,,,masks/mask_001.jpg,,,,,,,,,,,,,,,,,,,,,,,,,,,,,,,,,,,,,,,,,,0,2,2,0,1,,,,,,,,,,,,,,,,,,,,,,,,,,,,,,,,,,,,,,,,,,,,,,
609248,001,2022-11-21_00h46.34.372,Info_measure_main_exp,2022.2.2,Win32,59.95203837,,,,,,,,,,,,,,,,,,masks/mask_005.jpg,,,,,,,,,,,,,,,,,,,,,,,,,,,,,,,,,,,,,,,,,,0,3,3,4,1,,,,,,,,,,,,,,,,,,,,,,,,,,,,,,,,,,,,,,,,,,,,,,
609248,001,2022-11-21_00h46.34.372,Info_measure_main_exp,2022.2.2,Win32,59.95203837,,,,,,,,,,,,,,,,,,masks/mask_002.jpg,,,,,,,,,,,,,,,,,,,,,,,,,,,,,,,,,,,,,,,,,,0,4,4,1,1,,,,,,,,,,,,,,,,,,,,,,,,,,,,,,,,,,,,,,,,,,,,,,
609248,001,2022-11-21_00h46.34.372,Info_measure_main_exp,2022.2.2,Win32,59.95203837,,,,,,,,,,,,,,,,,,masks/mask_004.jpg,,,,,,,,,,,,,,,,,,,,,,,,,,,,,,,,,,,,,,,,,,,,,,,0,0,0,3,1,,,,,,,,,,,,,,,,,,,,,,,,,,,,,,,,,,,,,,,,,
609248,001,2022-11-21_00h46.34.372,Info_measure_main_exp,2022.2.2,Win32,59.95203837,,,,,,,,,,,,,,,,,,masks/mask_002.jpg,,,,,,,,,,,,,,,,,,,,,,,,,,,,,,,,,,,,,,,,,,,,,,,0,1,1,1,1,,,,,,,,,,,,,,,,,,,,,,,,,,,,,,,,,,,,,,,,,
609248,001,2022-11-21_00h46.34.372,Info_measure_main_exp,2022.2.2,Win32,59.95203837,,,,,,,,,,,,,,,,,,masks/mask_005.jpg,,,,,,,,,,,,,,,,,,,,,,,,,,,,,,,,,,,,,,,,,,,,,,,0,2,2,4,1,,,,,,,,,,,,,,,,,,,,,,,,,,,,,,,,,,,,,,,,,
609248,001,2022-11-21_00h46.34.372,Info_measure_main_exp,2022.2.2,Win32,59.95203837,,,,,,,,,,,,,,,,,,masks/mask_003.jpg,,,,,,,,,,,,,,,,,,,,,,,,,,,,,,,,,,,,,,,,,,,,,,,0,3,3,2,1,,,,,,,,,,,,,,,,,,,,,,,,,,,,,,,,,,,,,,,,,
609248,001,2022-11-21_00h46.34.372,Info_measure_main_exp,2022.2.2,Win32,59.95203837,,,,,,,,,,,,,,,,,,masks/mask_001.jpg,,,,,,,,,,,,,,,,,,,,,,,,,,,,,,,,,,,,,,,,,,,,,,,0,4,4,0,1,,,,,,,,,,,,,,,,,,,,,,,,,,,,,,,,,,,,,,,,,
609248,001,2022-11-21_00h46.34.372,Info_measure_main_exp,2022.2.2,Win32,59.95203837,,,,,,,,,,,,,,,,,,,,,,,,,,,,,,0,0.433,1,,,,,,,,,,,,0,131,5,5,2238,2238,absent_patch/patch0002238.jpg,absent_patch/patch0002238.jpg,,,,,,,,,,,,,,,,,,,-0.025462963,0.159722222,1,0,0,response7disk,29,-0.002314815,0.008101852,1,0,0,center_square,0,28,28,58,1,,,,,,,,,,,,,,,,,,,,,,,
609248,001,2022-11-21_00h46.34.372,Info_measure_main_exp,2022.2.2,Win32,59.95203837,,,,,,,,,,,,,,,,,,masks/mask_003.jpg,,,,,,,,,,,,,,,,,,,,,,,,,,,,,,,,,,,,,,,,,,0,0,0,2,1,,,,,,,,,,,,,,,,,,,,,,,,,,,,,,,,,,,,,,,,,,,,,,
609248,001,2022-11-21_00h46.34.372,Info_measure_main_exp,2022.2.2,Win32,59.95203837,,,,,,,,,,,,,,,,,,masks/mask_001.jpg,,,,,,,,,,,,,,,,,,,,,,,,,,,,,,,,,,,,,,,,,,0,1,1,0,1,,,,,,,,,,,,,,,,,,,,,,,,,,,,,,,,,,,,,,,,,,,,,,
609248,001,2022-11-21_00h46.34.372,Info_measure_main_exp,2022.2.2,Win32,59.95203837,,,,,,,,,,,,,,,,,,masks/mask_004.jpg,,,,,,,,,,,,,,,,,,,,,,,,,,,,,,,,,,,,,,,,,,0,2,2,3,1,,,,,,,,,,,,,,,,,,,,,,,,,,,,,,,,,,,,,,,,,,,,,,
609248,001,2022-11-21_00h46.34.372,Info_measure_main_exp,2022.2.2,Win32,59.95203837,,,,,,,,,,,,,,,,,,masks/mask_005.jpg,,,,,,,,,,,,,,,,,,,,,,,,,,,,,,,,,,,,,,,,,,0,3,3,4,1,,,,,,,,,,,,,,,,,,,,,,,,,,,,,,,,,,,,,,,,,,,,,,
609248,001,2022-11-21_00h46.34.372,Info_measure_main_exp,2022.2.2,Win32,59.95203837,,,,,,,,,,,,,,,,,,masks/mask_002.jpg,,,,,,,,,,,,,,,,,,,,,,,,,,,,,,,,,,,,,,,,,,0,4,4,1,1,,,,,,,,,,,,,,,,,,,,,,,,,,,,,,,,,,,,,,,,,,,,,,
609248,001,2022-11-21_00h46.34.372,Info_measure_main_exp,2022.2.2,Win32,59.95203837,,,,,,,,,,,,,,,,,,masks/mask_004.jpg,,,,,,,,,,,,,,,,,,,,,,,,,,,,,,,,,,,,,,,,,,,,,,,0,0,0,3,1,,,,,,,,,,,,,,,,,,,,,,,,,,,,,,,,,,,,,,,,,
609248,001,2022-11-21_00h46.34.372,Info_measure_main_exp,2022.2.2,Win32,59.95203837,,,,,,,,,,,,,,,,,,masks/mask_001.jpg,,,,,,,,,,,,,,,,,,,,,,,,,,,,,,,,,,,,,,,,,,,,,,,0,1,1,0,1,,,,,,,,,,,,,,,,,,,,,,,,,,,,,,,,,,,,,,,,,
609248,001,2022-11-21_00h46.34.372,Info_measure_main_exp,2022.2.2,Win32,59.95203837,,,,,,,,,,,,,,,,,,masks/mask_002.jpg,,,,,,,,,,,,,,,,,,,,,,,,,,,,,,,,,,,,,,,,,,,,,,,0,2,2,1,1,,,,,,,,,,,,,,,,,,,,,,,,,,,,,,,,,,,,,,,,,
609248,001,2022-11-21_00h46.34.372,Info_measure_main_exp,2022.2.2,Win32,59.95203837,,,,,,,,,,,,,,,,,,masks/mask_003.jpg,,,,,,,,,,,,,,,,,,,,,,,,,,,,,,,,,,,,,,,,,,,,,,,0,3,3,2,1,,,,,,,,,,,,,,,,,,,,,,,,,,,,,,,,,,,,,,,,,
609248,001,2022-11-21_00h46.34.372,Info_measure_main_exp,2022.2.2,Win32,59.95203837,,,,,,,,,,,,,,,,,,masks/mask_005.jpg,,,,,,,,,,,,,,,,,,,,,,,,,,,,,,,,,,,,,,,,,,,,,,,0,4,4,4,1,,,,,,,,,,,,,,,,,,,,,,,,,,,,,,,,,,,,,,,,,
609248,001,2022-11-21_00h46.34.372,Info_measure_main_exp,2022.2.2,Win32,59.95203837,,,,,,,,,,,,,,,,,,,,,,,,,,,,,,4,2,1,,,,,,,,,,,,0,131,5,5,1950,2142,absent_patch/patch0001950.jpg,absent_patch/patch0002142.jpg,,,,,,,,,,,,,,,,,,,0.034722222,-0.114583333,1,0,0,response3disk,30,0.005787037,-0.006944444,1,0,0,center_square,0,29,29,83,1,,,,,,,,,,,,,,,,,,,,,,,
609248,001,2022-11-21_00h46.34.372,Info_measure_main_exp,2022.2.2,Win32,59.95203837,,,,,,,,,,,,,,,,,,masks/mask_001.jpg,,,,,,,,,,,,,,,,,,,,,,,,,,,,,,,,,,,,,,,,,,0,0,0,0,1,,,,,,,,,,,,,,,,,,,,,,,,,,,,,,,,,,,,,,,,,,,,,,
609248,001,2022-11-21_00h46.34.372,Info_measure_main_exp,2022.2.2,Win32,59.95203837,,,,,,,,,,,,,,,,,,masks/mask_004.jpg,,,,,,,,,,,,,,,,,,,,,,,,,,,,,,,,,,,,,,,,,,0,1,1,3,1,,,,,,,,,,,,,,,,,,,,,,,,,,,,,,,,,,,,,,,,,,,,,,
609248,001,2022-11-21_00h46.34.372,Info_measure_main_exp,2022.2.2,Win32,59.95203837,,,,,,,,,,,,,,,,,,masks/mask_005.jpg,,,,,,,,,,,,,,,,,,,,,,,,,,,,,,,,,,,,,,,,,,0,2,2,4,1,,,,,,,,,,,,,,,,,,,,,,,,,,,,,,,,,,,,,,,,,,,,,,
609248,001,2022-11-21_00h46.34.372,Info_measure_main_exp,2022.2.2,Win32,59.95203837,,,,,,,,,,,,,,,,,,masks/mask_002.jpg,,,,,,,,,,,,,,,,,,,,,,,,,,,,,,,,,,,,,,,,,,0,3,3,1,1,,,,,,,,,,,,,,,,,,,,,,,,,,,,,,,,,,,,,,,,,,,,,,
609248,001,2022-11-21_00h46.34.372,Info_measure_main_exp,2022.2.2,Win32,59.95203837,,,,,,,,,,,,,,,,,,masks/mask_003.jpg,,,,,,,,,,,,,,,,,,,,,,,,,,,,,,,,,,,,,,,,,,0,4,4,2,1,,,,,,,,,,,,,,,,,,,,,,,,,,,,,,,,,,,,,,,,,,,,,,
609248,001,2022-11-21_00h46.34.372,Info_measure_main_exp,2022.2.2,Win32,59.95203837,,,,,,,,,,,,,,,,,,masks/mask_001.jpg,,,,,,,,,,,,,,,,,,,,,,,,,,,,,,,,,,,,,,,,,,,,,,,0,0,0,0,1,,,,,,,,,,,,,,,,,,,,,,,,,,,,,,,,,,,,,,,,,
609248,001,2022-11-21_00h46.34.372,Info_measure_main_exp,2022.2.2,Win32,59.95203837,,,,,,,,,,,,,,,,,,masks/mask_004.jpg,,,,,,,,,,,,,,,,,,,,,,,,,,,,,,,,,,,,,,,,,,,,,,,0,1,1,3,1,,,,,,,,,,,,,,,,,,,,,,,,,,,,,,,,,,,,,,,,,
609248,001,2022-11-21_00h46.34.372,Info_measure_main_exp,2022.2.2,Win32,59.95203837,,,,,,,,,,,,,,,,,,masks/mask_003.jpg,,,,,,,,,,,,,,,,,,,,,,,,,,,,,,,,,,,,,,,,,,,,,,,0,2,2,2,1,,,,,,,,,,,,,,,,,,,,,,,,,,,,,,,,,,,,,,,,,
609248,001,2022-11-21_00h46.34.372,Info_measure_main_exp,2022.2.2,Win32,59.95203837,,,,,,,,,,,,,,,,,,masks/mask_002.jpg,,,,,,,,,,,,,,,,,,,,,,,,,,,,,,,,,,,,,,,,,,,,,,,0,3,3,1,1,,,,,,,,,,,,,,,,,,,,,,,,,,,,,,,,,,,,,,,,,
609248,001,2022-11-21_00h46.34.372,Info_measure_main_exp,2022.2.2,Win32,59.95203837,,,,,,,,,,,,,,,,,,masks/mask_005.jpg,,,,,,,,,,,,,,,,,,,,,,,,,,,,,,,,,,,,,,,,,,,,,,,0,4,4,4,1,,,,,,,,,,,,,,,,,,,,,,,,,,,,,,,,,,,,,,,,,
609248,001,2022-11-21_00h46.34.372,Info_measure_main_exp,2022.2.2,Win32,59.95203837,,,,,,,,,,,,,,,,,,,,,,,,,,,,,,7,1.133,1,,,,,,,,,,,,0,131,5,5,2154,1950,absent_patch/patch0002154.jpg,absent_patch/patch0001950.jpg,,,,,,,,,,,,,,,,,,,0.03587963,0.127314815,1,0,0,response1disk,31,0.006944444,0.00462963,1,0,0,center_square,0,30,30,96,1,,,,,,,,,,,,,,,,,,,,,,,
609248,001,2022-11-21_00h46.34.372,Info_measure_main_exp,2022.2.2,Win32,59.95203837,,,,,,,,,,,,,,,,,,masks/mask_003.jpg,,,,,,,,,,,,,,,,,,,,,,,,,,,,,,,,,,,,,,,,,,0,0,0,2,1,,,,,,,,,,,,,,,,,,,,,,,,,,,,,,,,,,,,,,,,,,,,,,
609248,001,2022-11-21_00h46.34.372,Info_measure_main_exp,2022.2.2,Win32,59.95203837,,,,,,,,,,,,,,,,,,masks/mask_001.jpg,,,,,,,,,,,,,,,,,,,,,,,,,,,,,,,,,,,,,,,,,,0,1,1,0,1,,,,,,,,,,,,,,,,,,,,,,,,,,,,,,,,,,,,,,,,,,,,,,
609248,001,2022-11-21_00h46.34.372,Info_measure_main_exp,2022.2.2,Win32,59.95203837,,,,,,,,,,,,,,,,,,masks/mask_004.jpg,,,,,,,,,,,,,,,,,,,,,,,,,,,,,,,,,,,,,,,,,,0,2,2,3,1,,,,,,,,,,,,,,,,,,,,,,,,,,,,,,,,,,,,,,,,,,,,,,
609248,001,2022-11-21_00h46.34.372,Info_measure_main_exp,2022.2.2,Win32,59.95203837,,,,,,,,,,,,,,,,,,masks/mask_002.jpg,,,,,,,,,,,,,,,,,,,,,,,,,,,,,,,,,,,,,,,,,,0,3,3,1,1,,,,,,,,,,,,,,,,,,,,,,,,,,,,,,,,,,,,,,,,,,,,,,
609248,001,2022-11-21_00h46.34.372,Info_measure_main_exp,2022.2.2,Win32,59.95203837,,,,,,,,,,,,,,,,,,masks/mask_005.jpg,,,,,,,,,,,,,,,,,,,,,,,,,,,,,,,,,,,,,,,,,,0,4,4,4,1,,,,,,,,,,,,,,,,,,,,,,,,,,,,,,,,,,,,,,,,,,,,,,
609248,001,2022-11-21_00h46.34.372,Info_measure_main_exp,2022.2.2,Win32,59.95203837,,,,,,,,,,,,,,,,,,masks/mask_003.jpg,,,,,,,,,,,,,,,,,,,,,,,,,,,,,,,,,,,,,,,,,,,,,,,0,0,0,2,1,,,,,,,,,,,,,,,,,,,,,,,,,,,,,,,,,,,,,,,,,
609248,001,2022-11-21_00h46.34.372,Info_measure_main_exp,2022.2.2,Win32,59.95203837,,,,,,,,,,,,,,,,,,masks/mask_004.jpg,,,,,,,,,,,,,,,,,,,,,,,,,,,,,,,,,,,,,,,,,,,,,,,0,1,1,3,1,,,,,,,,,,,,,,,,,,,,,,,,,,,,,,,,,,,,,,,,,
609248,001,2022-11-21_00h46.34.372,Info_measure_main_exp,2022.2.2,Win32,59.95203837,,,,,,,,,,,,,,,,,,masks/mask_002.jpg,,,,,,,,,,,,,,,,,,,,,,,,,,,,,,,,,,,,,,,,,,,,,,,0,2,2,1,1,,,,,,,,,,,,,,,,,,,,,,,,,,,,,,,,,,,,,,,,,
609248,001,2022-11-21_00h46.34.372,Info_measure_main_exp,2022.2.2,Win32,59.95203837,,,,,,,,,,,,,,,,,,masks/mask_005.jpg,,,,,,,,,,,,,,,,,,,,,,,,,,,,,,,,,,,,,,,,,,,,,,,0,3,3,4,1,,,,,,,,,,,,,,,,,,,,,,,,,,,,,,,,,,,,,,,,,
609248,001,2022-11-21_00h46.34.372,Info_measure_main_exp,2022.2.2,Win32,59.95203837,,,,,,,,,,,,,,,,,,masks/mask_001.jpg,,,,,,,,,,,,,,,,,,,,,,,,,,,,,,,,,,,,,,,,,,,,,,,0,4,4,0,1,,,,,,,,,,,,,,,,,,,,,,,,,,,,,,,,,,,,,,,,,
609248,001,2022-11-21_00h46.34.372,Info_measure_main_exp,2022.2.2,Win32,59.95203837,,,,,,,,,,,,,,,,,,,,,,,,,,,,,,6,0.766,1,,,,,,,,,,,,0,131,5,5,2214,2166,absent_patch/patch0002214.jpg,absent_patch/patch0002166.jpg,,,,,,,,,,,,,,,,,,,0.083333333,0.046296296,1,0,0,response1disk,32,-0.011574074,0.012731481,1,0,0,center_square,0,31,31,109,1,,,,,,,,,,,,,,,,,,,,,,,
609248,001,2022-11-21_00h46.34.372,Info_measure_main_exp,2022.2.2,Win32,59.95203837,,,,,,,,,,,,,,,,,,masks/mask_004.jpg,,,,,,,,,,,,,,,,,,,,,,,,,,,,,,,,,,,,,,,,,,0,0,0,3,1,,,,,,,,,,,,,,,,,,,,,,,,,,,,,,,,,,,,,,,,,,,,,,
609248,001,2022-11-21_00h46.34.372,Info_measure_main_exp,2022.2.2,Win32,59.95203837,,,,,,,,,,,,,,,,,,masks/mask_003.jpg,,,,,,,,,,,,,,,,,,,,,,,,,,,,,,,,,,,,,,,,,,0,1,1,2,1,,,,,,,,,,,,,,,,,,,,,,,,,,,,,,,,,,,,,,,,,,,,,,
609248,001,2022-11-21_00h46.34.372,Info_measure_main_exp,2022.2.2,Win32,59.95203837,,,,,,,,,,,,,,,,,,masks/mask_002.jpg,,,,,,,,,,,,,,,,,,,,,,,,,,,,,,,,,,,,,,,,,,0,2,2,1,1,,,,,,,,,,,,,,,,,,,,,,,,,,,,,,,,,,,,,,,,,,,,,,
609248,001,2022-11-21_00h46.34.372,Info_measure_main_exp,2022.2.2,Win32,59.95203837,,,,,,,,,,,,,,,,,,masks/mask_005.jpg,,,,,,,,,,,,,,,,,,,,,,,,,,,,,,,,,,,,,,,,,,0,3,3,4,1,,,,,,,,,,,,,,,,,,,,,,,,,,,,,,,,,,,,,,,,,,,,,,
609248,001,2022-11-21_00h46.34.372,Info_measure_main_exp,2022.2.2,Win32,59.95203837,,,,,,,,,,,,,,,,,,masks/mask_001.jpg,,,,,,,,,,,,,,,,,,,,,,,,,,,,,,,,,,,,,,,,,,0,4,4,0,1,,,,,,,,,,,,,,,,,,,,,,,,,,,,,,,,,,,,,,,,,,,,,,
609248,001,2022-11-21_00h46.34.372,Info_measure_main_exp,2022.2.2,Win32,59.95203837,,,,,,,,,,,,,,,,,,masks/mask_005.jpg,,,,,,,,,,,,,,,,,,,,,,,,,,,,,,,,,,,,,,,,,,,,,,,0,0,0,4,1,,,,,,,,,,,,,,,,,,,,,,,,,,,,,,,,,,,,,,,,,
609248,001,2022-11-21_00h46.34.372,Info_measure_main_exp,2022.2.2,Win32,59.95203837,,,,,,,,,,,,,,,,,,masks/mask_004.jpg,,,,,,,,,,,,,,,,,,,,,,,,,,,,,,,,,,,,,,,,,,,,,,,0,1,1,3,1,,,,,,,,,,,,,,,,,,,,,,,,,,,,,,,,,,,,,,,,,
609248,001,2022-11-21_00h46.34.372,Info_measure_main_exp,2022.2.2,Win32,59.95203837,,,,,,,,,,,,,,,,,,masks/mask_001.jpg,,,,,,,,,,,,,,,,,,,,,,,,,,,,,,,,,,,,,,,,,,,,,,,0,2,2,0,1,,,,,,,,,,,,,,,,,,,,,,,,,,,,,,,,,,,,,,,,,
609248,001,2022-11-21_00h46.34.372,Info_measure_main_exp,2022.2.2,Win32,59.95203837,,,,,,,,,,,,,,,,,,masks/mask_003.jpg,,,,,,,,,,,,,,,,,,,,,,,,,,,,,,,,,,,,,,,,,,,,,,,0,3,3,2,1,,,,,,,,,,,,,,,,,,,,,,,,,,,,,,,,,,,,,,,,,
609248,001,2022-11-21_00h46.34.372,Info_measure_main_exp,2022.2.2,Win32,59.95203837,,,,,,,,,,,,,,,,,,masks/mask_002.jpg,,,,,,,,,,,,,,,,,,,,,,,,,,,,,,,,,,,,,,,,,,,,,,,0,4,4,1,1,,,,,,,,,,,,,,,,,,,,,,,,,,,,,,,,,,,,,,,,,
609248,001,2022-11-21_00h46.34.372,Info_measure_main_exp,2022.2.2,Win32,59.95203837,,,,,,,,,,,,,,,,,,,,,,,,,,,,,,2,1.333,1,,,,,,,,,,,,0,131,5,5,1986,2238,absent_patch/patch0001986.jpg,absent_patch/patch0002238.jpg,,,,,,,,,,,,,,,,,,,-0.055555556,-0.016203704,1,0,0,response5disk,33,-0.006944444,-0.002314815,1,0,0,center_square,0,32,32,31,1,,,,,,,,,,,,,,,,,,,,,,,
609248,001,2022-11-21_00h46.34.372,Info_measure_main_exp,2022.2.2,Win32,59.95203837,,,,,,,,,,,,,,,,,,masks/mask_004.jpg,,,,,,,,,,,,,,,,,,,,,,,,,,,,,,,,,,,,,,,,,,0,0,0,3,1,,,,,,,,,,,,,,,,,,,,,,,,,,,,,,,,,,,,,,,,,,,,,,
609248,001,2022-11-21_00h46.34.372,Info_measure_main_exp,2022.2.2,Win32,59.95203837,,,,,,,,,,,,,,,,,,masks/mask_005.jpg,,,,,,,,,,,,,,,,,,,,,,,,,,,,,,,,,,,,,,,,,,0,1,1,4,1,,,,,,,,,,,,,,,,,,,,,,,,,,,,,,,,,,,,,,,,,,,,,,
609248,001,2022-11-21_00h46.34.372,Info_measure_main_exp,2022.2.2,Win32,59.95203837,,,,,,,,,,,,,,,,,,masks/mask_002.jpg,,,,,,,,,,,,,,,,,,,,,,,,,,,,,,,,,,,,,,,,,,0,2,2,1,1,,,,,,,,,,,,,,,,,,,,,,,,,,,,,,,,,,,,,,,,,,,,,,
609248,001,2022-11-21_00h46.34.372,Info_measure_main_exp,2022.2.2,Win32,59.95203837,,,,,,,,,,,,,,,,,,masks/mask_001.jpg,,,,,,,,,,,,,,,,,,,,,,,,,,,,,,,,,,,,,,,,,,0,3,3,0,1,,,,,,,,,,,,,,,,,,,,,,,,,,,,,,,,,,,,,,,,,,,,,,
609248,001,2022-11-21_00h46.34.372,Info_measure_main_exp,2022.2.2,Win32,59.95203837,,,,,,,,,,,,,,,,,,masks/mask_003.jpg,,,,,,,,,,,,,,,,,,,,,,,,,,,,,,,,,,,,,,,,,,0,4,4,2,1,,,,,,,,,,,,,,,,,,,,,,,,,,,,,,,,,,,,,,,,,,,,,,
609248,001,2022-11-21_00h46.34.372,Info_measure_main_exp,2022.2.2,Win32,59.95203837,,,,,,,,,,,,,,,,,,masks/mask_004.jpg,,,,,,,,,,,,,,,,,,,,,,,,,,,,,,,,,,,,,,,,,,,,,,,0,0,0,3,1,,,,,,,,,,,,,,,,,,,,,,,,,,,,,,,,,,,,,,,,,
609248,001,2022-11-21_00h46.34.372,Info_measure_main_exp,2022.2.2,Win32,59.95203837,,,,,,,,,,,,,,,,,,masks/mask_001.jpg,,,,,,,,,,,,,,,,,,,,,,,,,,,,,,,,,,,,,,,,,,,,,,,0,1,1,0,1,,,,,,,,,,,,,,,,,,,,,,,,,,,,,,,,,,,,,,,,,
609248,001,2022-11-21_00h46.34.372,Info_measure_main_exp,2022.2.2,Win32,59.95203837,,,,,,,,,,,,,,,,,,masks/mask_005.jpg,,,,,,,,,,,,,,,,,,,,,,,,,,,,,,,,,,,,,,,,,,,,,,,0,2,2,4,1,,,,,,,,,,,,,,,,,,,,,,,,,,,,,,,,,,,,,,,,,
609248,001,2022-11-21_00h46.34.372,Info_measure_main_exp,2022.2.2,Win32,59.95203837,,,,,,,,,,,,,,,,,,masks/mask_002.jpg,,,,,,,,,,,,,,,,,,,,,,,,,,,,,,,,,,,,,,,,,,,,,,,0,3,3,1,1,,,,,,,,,,,,,,,,,,,,,,,,,,,,,,,,,,,,,,,,,
609248,001,2022-11-21_00h46.34.372,Info_measure_main_exp,2022.2.2,Win32,59.95203837,,,,,,,,,,,,,,,,,,masks/mask_003.jpg,,,,,,,,,,,,,,,,,,,,,,,,,,,,,,,,,,,,,,,,,,,,,,,0,4,4,2,1,,,,,,,,,,,,,,,,,,,,,,,,,,,,,,,,,,,,,,,,,
609248,001,2022-11-21_00h46.34.372,Info_measure_main_exp,2022.2.2,Win32,59.95203837,,,,,,,,,,,,,,,,,,,,,,,,,,,,,,5,1.184,1,,,,,,,,,,,,0,131,5,5,1950,2298,absent_patch/patch0001950.jpg,absent_patch/patch0002298.jpg,,,,,,,,,,,,,,,,,,,0.045138889,-0.034722222,1,0,0,response3disk,34,0,0.002314815,1,0,0,center_square,0,33,33,18,1,,,,,,,,,,,,,,,,,,,,,,,
609248,001,2022-11-21_00h46.34.372,Info_measure_main_exp,2022.2.2,Win32,59.95203837,,,,,,,,,,,,,,,,,,masks/mask_002.jpg,,,,,,,,,,,,,,,,,,,,,,,,,,,,,,,,,,,,,,,,,,0,0,0,1,1,,,,,,,,,,,,,,,,,,,,,,,,,,,,,,,,,,,,,,,,,,,,,,
609248,001,2022-11-21_00h46.34.372,Info_measure_main_exp,2022.2.2,Win32,59.95203837,,,,,,,,,,,,,,,,,,masks/mask_005.jpg,,,,,,,,,,,,,,,,,,,,,,,,,,,,,,,,,,,,,,,,,,0,1,1,4,1,,,,,,,,,,,,,,,,,,,,,,,,,,,,,,,,,,,,,,,,,,,,,,
609248,001,2022-11-21_00h46.34.372,Info_measure_main_exp,2022.2.2,Win32,59.95203837,,,,,,,,,,,,,,,,,,masks/mask_004.jpg,,,,,,,,,,,,,,,,,,,,,,,,,,,,,,,,,,,,,,,,,,0,2,2,3,1,,,,,,,,,,,,,,,,,,,,,,,,,,,,,,,,,,,,,,,,,,,,,,
609248,001,2022-11-21_00h46.34.372,Info_measure_main_exp,2022.2.2,Win32,59.95203837,,,,,,,,,,,,,,,,,,masks/mask_001.jpg,,,,,,,,,,,,,,,,,,,,,,,,,,,,,,,,,,,,,,,,,,0,3,3,0,1,,,,,,,,,,,,,,,,,,,,,,,,,,,,,,,,,,,,,,,,,,,,,,
609248,001,2022-11-21_00h46.34.372,Info_measure_main_exp,2022.2.2,Win32,59.95203837,,,,,,,,,,,,,,,,,,masks/mask_003.jpg,,,,,,,,,,,,,,,,,,,,,,,,,,,,,,,,,,,,,,,,,,0,4,4,2,1,,,,,,,,,,,,,,,,,,,,,,,,,,,,,,,,,,,,,,,,,,,,,,
609248,001,2022-11-21_00h46.34.372,Info_measure_main_exp,2022.2.2,Win32,59.95203837,,,,,,,,,,,,,,,,,,masks/mask_002.jpg,,,,,,,,,,,,,,,,,,,,,,,,,,,,,,,,,,,,,,,,,,,,,,,0,0,0,1,1,,,,,,,,,,,,,,,,,,,,,,,,,,,,,,,,,,,,,,,,,
609248,001,2022-11-21_00h46.34.372,Info_measure_main_exp,2022.2.2,Win32,59.95203837,,,,,,,,,,,,,,,,,,masks/mask_003.jpg,,,,,,,,,,,,,,,,,,,,,,,,,,,,,,,,,,,,,,,,,,,,,,,0,1,1,2,1,,,,,,,,,,,,,,,,,,,,,,,,,,,,,,,,,,,,,,,,,
609248,001,2022-11-21_00h46.34.372,Info_measure_main_exp,2022.2.2,Win32,59.95203837,,,,,,,,,,,,,,,,,,masks/mask_001.jpg,,,,,,,,,,,,,,,,,,,,,,,,,,,,,,,,,,,,,,,,,,,,,,,0,2,2,0,1,,,,,,,,,,,,,,,,,,,,,,,,,,,,,,,,,,,,,,,,,
609248,001,2022-11-21_00h46.34.372,Info_measure_main_exp,2022.2.2,Win32,59.95203837,,,,,,,,,,,,,,,,,,masks/mask_005.jpg,,,,,,,,,,,,,,,,,,,,,,,,,,,,,,,,,,,,,,,,,,,,,,,0,3,3,4,1,,,,,,,,,,,,,,,,,,,,,,,,,,,,,,,,,,,,,,,,,
609248,001,2022-11-21_00h46.34.372,Info_measure_main_exp,2022.2.2,Win32,59.95203837,,,,,,,,,,,,,,,,,,masks/mask_004.jpg,,,,,,,,,,,,,,,,,,,,,,,,,,,,,,,,,,,,,,,,,,,,,,,0,4,4,3,1,,,,,,,,,,,,,,,,,,,,,,,,,,,,,,,,,,,,,,,,,
