participant,session,date,expName,psychopyVersion,OS,frameRate,space_press_continue.keys,space_press_continue.rt,space_press_continue_2.keys,space_press_continue_2.rt,space_press_continue_3.keys,space_press_continue_3.rt,space_press_continue_4.keys,space_press_continue_4.rt,space_press_continue_5.keys,space_press_continue_5.rt,space_press_continue_6.keys,space_press_continue_6.rt,prac_mask_loop_1.thisRepN,prac_mask_loop_1.thisTrialN,prac_mask_loop_1.thisN,prac_mask_loop_1.thisIndex,prac_mask_loop_1.ran,mask_name,prac_mask_loop_2.thisRepN,prac_mask_loop_2.thisTrialN,prac_mask_loop_2.thisN,prac_mask_loop_2.thisIndex,prac_mask_loop_2.ran,mouse_2.x,mouse_2.y,mouse_2.leftButton,mouse_2.midButton,mouse_2.rightButton,mouse_2.clicked_name,similarity,response_time,Pass,mouse_12.x,mouse_12.y,mouse_12.leftButton,mouse_12.midButton,mouse_12.rightButton,mouse_12.clicked_name,prac_loop.thisRepN,prac_loop.thisTrialN,prac_loop.thisN,prac_loop.thisIndex,prac_loop.ran,Pair_type,Image_num,Patch_1_loc,Patch_2_loc,Patch_1_info,Patch_2_info,Patch_1_name,Patch_2_name,mouse_1.x,mouse_1.y,mouse_1.leftButton,mouse_1.midButton,mouse_1.rightButton,mouse_1.time,mouse_1.clicked_name,space_press_continue_7.keys,space_press_continue_7.rt,mask_loop.thisRepN,mask_loop.thisTrialN,mask_loop.thisN,mask_loop.thisIndex,mask_loop.ran,mask_loop_2.thisRepN,mask_loop_2.thisTrialN,mask_loop_2.thisN,mask_loop_2.thisIndex,mask_loop_2.ran,mouse.x,mouse.y,mouse.leftButton,mouse.midButton,mouse.rightButton,mouse.clicked_name,trialNumber,mouse_11.x,mouse_11.y,mouse_11.leftButton,mouse_11.midButton,mouse_11.rightButton,mouse_11.clicked_name,first_pass_loop.thisRepN,first_pass_loop.thisTrialN,first_pass_loop.thisN,first_pass_loop.thisIndex,first_pass_loop.ran,mask_loop_3.thisRepN,mask_loop_3.thisTrialN,mask_loop_3.thisN,mask_loop_3.thisIndex,mask_loop_3.ran,mask_loop_4.thisRepN,mask_loop_4.thisTrialN,mask_loop_4.thisN,mask_loop_4.thisIndex,mask_loop_4.ran,mouse_3.x,mouse_3.y,mouse_3.leftButton,mouse_3.midButton,mouse_3.rightButton,mouse_3.clicked_name,double_pass_loop.thisRepN,double_pass_loop.thisTrialN,double_pass_loop.thisN,double_pass_loop.thisIndex,double_pass_loop.ran,space_exit.keys,space_exit.rt
60b4f5e40273da6c883455a2,001,2022-11-21_24h07.45.962,Info_measure_main_exp,2022.2.2,Win32,59.91252771,,,,,,,,,,,,,,,,,,,,,,,,,,,,,,,,,,,,,,,,,,,,,,,,,,,,,,,,,,,,,,,,,,,,,,,,,,,,,,,,,,,,,,,,,,,,,,,,,,,,,,,,,,,,,,,
60b4f5e40273da6c883455a2,001,2022-11-21_24h07.45.962,Info_measure_main_exp,2022.2.2,Win32,59.91252771,,,,,,,,,,,,,,,,,,,,,,,,,,,,,,,,,,,,,,,,,,,,,,,,,,,,,,,,,,,,,,,,,,,,,,,,,,,,,,,,,,,,,,,,,,,,,,,,,,,,,,,,,,,,,,,
60b4f5e40273da6c883455a2,001,2022-11-21_24h07.45.962,Info_measure_main_exp,2022.2.2,Win32,59.91252771,space,8.1151,,,,,,,,,,,,,,,,,,,,,,,,,,,,,,,,,,,,,,,,,,,,,,,,,,,,,,,,,,,,,,,,,,,,,,,,,,,,,,,,,,,,,,,,,,,,,,,,,,,,,,,,,,,,,
60b4f5e40273da6c883455a2,001,2022-11-21_24h07.45.962,Info_measure_main_exp,2022.2.2,Win32,59.91252771,,,space,8.6894,,,,,,,,,,,,,,,,,,,,,,,,,,,,,,,,,,,,,,,,,,,,,,,,,,,,,,,,,,,,,,,,,,,,,,,,,,,,,,,,,,,,,,,,,,,,,,,,,,,,,,,,,,,
60b4f5e40273da6c883455a2,001,2022-11-21_24h07.45.962,Info_measure_main_exp,2022.2.2,Win32,59.91252771,,,,,space,2.2378,,,,,,,,,,,,,,,,,,,,,,,,,,,,,,,,,,,,,,,,,,,,,,,,,,,,,,,,,,,,,,,,,,,,,,,,,,,,,,,,,,,,,,,,,,,,,,,,,,,,,,,,,
60b4f5e40273da6c883455a2,001,2022-11-21_24h07.45.962,Info_measure_main_exp,2022.2.2,Win32,59.91252771,,,,,,,space,14.0178,,,,,,,,,,,,,,,,,,,,,,,,,,,,,,,,,,,,,,,,,,,,,,,,,,,,,,,,,,,,,,,,,,,,,,,,,,,,,,,,,,,,,,,,,,,,,,,,,,,,,,,
60b4f5e40273da6c883455a2,001,2022-11-21_24h07.45.962,Info_measure_main_exp,2022.2.2,Win32,59.91252771,,,,,,,,,space,6.0875,,,,,,,,,,,,,,,,,,,,,,,,,,,,,,,,,,,,,,,,,,,,,,,,,,,,,,,,,,,,,,,,,,,,,,,,,,,,,,,,,,,,,,,,,,,,,,,,,,,,,
60b4f5e40273da6c883455a2,001,2022-11-21_24h07.45.962,Info_measure_main_exp,2022.2.2,Win32,59.91252771,,,,,,,,,,,space,4.1299,,,,,,,,,,,,,,,,,,,,,,,,,,,,,,,,,,,,,,,,,,,,,,,,,,,,,,,,,,,,,,,,,,,,,,,,,,,,,,,,,,,,,,,,,,,,,,,,,,,
60b4f5e40273da6c883455a2,001,2022-11-21_24h07.45.962,Info_measure_main_exp,2022.2.2,Win32,59.91252771,,,,,,,,,,,,,0,0,0,4,1,masks/mask_005.jpg,,,,,,,,,,,,,,,,,,,,,,,,,,,,,,,,,,,,,,,,,,,,,,,,,,,,,,,,,,,,,,,,,,,,,,,,,,,,,,,,,,,,,,,,,,,,,
60b4f5e40273da6c883455a2,001,2022-11-21_24h07.45.962,Info_measure_main_exp,2022.2.2,Win32,59.91252771,,,,,,,,,,,,,0,1,1,3,1,masks/mask_004.jpg,,,,,,,,,,,,,,,,,,,,,,,,,,,,,,,,,,,,,,,,,,,,,,,,,,,,,,,,,,,,,,,,,,,,,,,,,,,,,,,,,,,,,,,,,,,,,
60b4f5e40273da6c883455a2,001,2022-11-21_24h07.45.962,Info_measure_main_exp,2022.2.2,Win32,59.91252771,,,,,,,,,,,,,0,2,2,2,1,masks/mask_003.jpg,,,,,,,,,,,,,,,,,,,,,,,,,,,,,,,,,,,,,,,,,,,,,,,,,,,,,,,,,,,,,,,,,,,,,,,,,,,,,,,,,,,,,,,,,,,,,
60b4f5e40273da6c883455a2,001,2022-11-21_24h07.45.962,Info_measure_main_exp,2022.2.2,Win32,59.91252771,,,,,,,,,,,,,0,3,3,0,1,masks/mask_001.jpg,,,,,,,,,,,,,,,,,,,,,,,,,,,,,,,,,,,,,,,,,,,,,,,,,,,,,,,,,,,,,,,,,,,,,,,,,,,,,,,,,,,,,,,,,,,,,
60b4f5e40273da6c883455a2,001,2022-11-21_24h07.45.962,Info_measure_main_exp,2022.2.2,Win32,59.91252771,,,,,,,,,,,,,0,4,4,1,1,masks/mask_002.jpg,,,,,,,,,,,,,,,,,,,,,,,,,,,,,,,,,,,,,,,,,,,,,,,,,,,,,,,,,,,,,,,,,,,,,,,,,,,,,,,,,,,,,,,,,,,,,
60b4f5e40273da6c883455a2,001,2022-11-21_24h07.45.962,Info_measure_main_exp,2022.2.2,Win32,59.91252771,,,,,,,,,,,,,,,,,,masks/mask_001.jpg,0,0,0,0,1,,,,,,,,,,,,,,,,,,,,,,,,,,,,,,,,,,,,,,,,,,,,,,,,,,,,,,,,,,,,,,,,,,,,,,,,,,,,,,,,,,,,,,,,
60b4f5e40273da6c883455a2,001,2022-11-21_24h07.45.962,Info_measure_main_exp,2022.2.2,Win32,59.91252771,,,,,,,,,,,,,,,,,,masks/mask_004.jpg,0,1,1,3,1,,,,,,,,,,,,,,,,,,,,,,,,,,,,,,,,,,,,,,,,,,,,,,,,,,,,,,,,,,,,,,,,,,,,,,,,,,,,,,,,,,,,,,,,
60b4f5e40273da6c883455a2,001,2022-11-21_24h07.45.962,Info_measure_main_exp,2022.2.2,Win32,59.91252771,,,,,,,,,,,,,,,,,,masks/mask_002.jpg,0,2,2,1,1,,,,,,,,,,,,,,,,,,,,,,,,,,,,,,,,,,,,,,,,,,,,,,,,,,,,,,,,,,,,,,,,,,,,,,,,,,,,,,,,,,,,,,,,
60b4f5e40273da6c883455a2,001,2022-11-21_24h07.45.962,Info_measure_main_exp,2022.2.2,Win32,59.91252771,,,,,,,,,,,,,,,,,,masks/mask_005.jpg,0,3,3,4,1,,,,,,,,,,,,,,,,,,,,,,,,,,,,,,,,,,,,,,,,,,,,,,,,,,,,,,,,,,,,,,,,,,,,,,,,,,,,,,,,,,,,,,,,
60b4f5e40273da6c883455a2,001,2022-11-21_24h07.45.962,Info_measure_main_exp,2022.2.2,Win32,59.91252771,,,,,,,,,,,,,,,,,,masks/mask_003.jpg,0,4,4,2,1,,,,,,,,,,,,,,,,,,,,,,,,,,,,,,,,,,,,,,,,,,,,,,,,,,,,,,,,,,,,,,,,,,,,,,,,,,,,,,,,,,,,,,,,
60b4f5e40273da6c883455a2,001,2022-11-21_24h07.45.962,Info_measure_main_exp,2022.2.2,Win32,59.91252771,,,,,,,,,,,,,,,,,,,,,,,,0.088888875,-0.157407407,1,0,0,response3disk,4,51.2892,1,-0.008333347,0,1,0,0,center_square,0,0,0,1,1,0,131,5,5,2514,2490,prac_patch/patch0002514.jpg,prac_patch/patch0002490.jpg,,,,,,,,,,,,,,,,,,,,,,,,,,,,,,,,,,,,,,,,,,,,,,,,,,,,,,,,,,,,
60b4f5e40273da6c883455a2,001,2022-11-21_24h07.45.962,Info_measure_main_exp,2022.2.2,Win32,59.91252771,,,,,,,,,,,,,0,0,0,4,1,masks/mask_005.jpg,,,,,,,,,,,,,,,,,,,,,,,,,,,,,,,,,,,,,,,,,,,,,,,,,,,,,,,,,,,,,,,,,,,,,,,,,,,,,,,,,,,,,,,,,,,,,
60b4f5e40273da6c883455a2,001,2022-11-21_24h07.45.962,Info_measure_main_exp,2022.2.2,Win32,59.91252771,,,,,,,,,,,,,0,1,1,0,1,masks/mask_001.jpg,,,,,,,,,,,,,,,,,,,,,,,,,,,,,,,,,,,,,,,,,,,,,,,,,,,,,,,,,,,,,,,,,,,,,,,,,,,,,,,,,,,,,,,,,,,,,
60b4f5e40273da6c883455a2,001,2022-11-21_24h07.45.962,Info_measure_main_exp,2022.2.2,Win32,59.91252771,,,,,,,,,,,,,0,2,2,3,1,masks/mask_004.jpg,,,,,,,,,,,,,,,,,,,,,,,,,,,,,,,,,,,,,,,,,,,,,,,,,,,,,,,,,,,,,,,,,,,,,,,,,,,,,,,,,,,,,,,,,,,,,
60b4f5e40273da6c883455a2,001,2022-11-21_24h07.45.962,Info_measure_main_exp,2022.2.2,Win32,59.91252771,,,,,,,,,,,,,0,3,3,2,1,masks/mask_003.jpg,,,,,,,,,,,,,,,,,,,,,,,,,,,,,,,,,,,,,,,,,,,,,,,,,,,,,,,,,,,,,,,,,,,,,,,,,,,,,,,,,,,,,,,,,,,,,
60b4f5e40273da6c883455a2,001,2022-11-21_24h07.45.962,Info_measure_main_exp,2022.2.2,Win32,59.91252771,,,,,,,,,,,,,0,4,4,1,1,masks/mask_002.jpg,,,,,,,,,,,,,,,,,,,,,,,,,,,,,,,,,,,,,,,,,,,,,,,,,,,,,,,,,,,,,,,,,,,,,,,,,,,,,,,,,,,,,,,,,,,,,
60b4f5e40273da6c883455a2,001,2022-11-21_24h07.45.962,Info_measure_main_exp,2022.2.2,Win32,59.91252771,,,,,,,,,,,,,,,,,,masks/mask_002.jpg,0,0,0,1,1,,,,,,,,,,,,,,,,,,,,,,,,,,,,,,,,,,,,,,,,,,,,,,,,,,,,,,,,,,,,,,,,,,,,,,,,,,,,,,,,,,,,,,,,
60b4f5e40273da6c883455a2,001,2022-11-21_24h07.45.962,Info_measure_main_exp,2022.2.2,Win32,59.91252771,,,,,,,,,,,,,,,,,,masks/mask_003.jpg,0,1,1,2,1,,,,,,,,,,,,,,,,,,,,,,,,,,,,,,,,,,,,,,,,,,,,,,,,,,,,,,,,,,,,,,,,,,,,,,,,,,,,,,,,,,,,,,,,
60b4f5e40273da6c883455a2,001,2022-11-21_24h07.45.962,Info_measure_main_exp,2022.2.2,Win32,59.91252771,,,,,,,,,,,,,,,,,,masks/mask_001.jpg,0,2,2,0,1,,,,,,,,,,,,,,,,,,,,,,,,,,,,,,,,,,,,,,,,,,,,,,,,,,,,,,,,,,,,,,,,,,,,,,,,,,,,,,,,,,,,,,,,
60b4f5e40273da6c883455a2,001,2022-11-21_24h07.45.962,Info_measure_main_exp,2022.2.2,Win32,59.91252771,,,,,,,,,,,,,,,,,,masks/mask_004.jpg,0,3,3,3,1,,,,,,,,,,,,,,,,,,,,,,,,,,,,,,,,,,,,,,,,,,,,,,,,,,,,,,,,,,,,,,,,,,,,,,,,,,,,,,,,,,,,,,,,
60b4f5e40273da6c883455a2,001,2022-11-21_24h07.45.962,Info_measure_main_exp,2022.2.2,Win32,59.91252771,,,,,,,,,,,,,,,,,,masks/mask_005.jpg,0,4,4,4,1,,,,,,,,,,,,,,,,,,,,,,,,,,,,,,,,,,,,,,,,,,,,,,,,,,,,,,,,,,,,,,,,,,,,,,,,,,,,,,,,,,,,,,,,
60b4f5e40273da6c883455a2,001,2022-11-21_24h07.45.962,Info_measure_main_exp,2022.2.2,Win32,59.91252771,,,,,,,,,,,,,,,,,,,,,,,,0.029629672,0.160185178,1,0,0,response1disk,7,62.8707,1,0.000925912,-0.014814836,1,0,0,center_square,0,1,1,2,1,0,131,5,5,2526,2526,prac_patch/patch0002526.jpg,prac_patch/patch0002526.jpg,,,,,,,,,,,,,,,,,,,,,,,,,,,,,,,,,,,,,,,,,,,,,,,,,,,,,,,,,,,,
60b4f5e40273da6c883455a2,001,2022-11-21_24h07.45.962,Info_measure_main_exp,2022.2.2,Win32,59.91252771,,,,,,,,,,,,,0,0,0,0,1,masks/mask_001.jpg,,,,,,,,,,,,,,,,,,,,,,,,,,,,,,,,,,,,,,,,,,,,,,,,,,,,,,,,,,,,,,,,,,,,,,,,,,,,,,,,,,,,,,,,,,,,,
60b4f5e40273da6c883455a2,001,2022-11-21_24h07.45.962,Info_measure_main_exp,2022.2.2,Win32,59.91252771,,,,,,,,,,,,,0,1,1,3,1,masks/mask_004.jpg,,,,,,,,,,,,,,,,,,,,,,,,,,,,,,,,,,,,,,,,,,,,,,,,,,,,,,,,,,,,,,,,,,,,,,,,,,,,,,,,,,,,,,,,,,,,,
60b4f5e40273da6c883455a2,001,2022-11-21_24h07.45.962,Info_measure_main_exp,2022.2.2,Win32,59.91252771,,,,,,,,,,,,,0,2,2,2,1,masks/mask_003.jpg,,,,,,,,,,,,,,,,,,,,,,,,,,,,,,,,,,,,,,,,,,,,,,,,,,,,,,,,,,,,,,,,,,,,,,,,,,,,,,,,,,,,,,,,,,,,,
60b4f5e40273da6c883455a2,001,2022-11-21_24h07.45.962,Info_measure_main_exp,2022.2.2,Win32,59.91252771,,,,,,,,,,,,,0,3,3,4,1,masks/mask_005.jpg,,,,,,,,,,,,,,,,,,,,,,,,,,,,,,,,,,,,,,,,,,,,,,,,,,,,,,,,,,,,,,,,,,,,,,,,,,,,,,,,,,,,,,,,,,,,,
60b4f5e40273da6c883455a2,001,2022-11-21_24h07.45.962,Info_measure_main_exp,2022.2.2,Win32,59.91252771,,,,,,,,,,,,,0,4,4,1,1,masks/mask_002.jpg,,,,,,,,,,,,,,,,,,,,,,,,,,,,,,,,,,,,,,,,,,,,,,,,,,,,,,,,,,,,,,,,,,,,,,,,,,,,,,,,,,,,,,,,,,,,,
60b4f5e40273da6c883455a2,001,2022-11-21_24h07.45.962,Info_measure_main_exp,2022.2.2,Win32,59.91252771,,,,,,,,,,,,,,,,,,masks/mask_002.jpg,0,0,0,1,1,,,,,,,,,,,,,,,,,,,,,,,,,,,,,,,,,,,,,,,,,,,,,,,,,,,,,,,,,,,,,,,,,,,,,,,,,,,,,,,,,,,,,,,,
60b4f5e40273da6c883455a2,001,2022-11-21_24h07.45.962,Info_measure_main_exp,2022.2.2,Win32,59.91252771,,,,,,,,,,,,,,,,,,masks/mask_004.jpg,0,1,1,3,1,,,,,,,,,,,,,,,,,,,,,,,,,,,,,,,,,,,,,,,,,,,,,,,,,,,,,,,,,,,,,,,,,,,,,,,,,,,,,,,,,,,,,,,,
60b4f5e40273da6c883455a2,001,2022-11-21_24h07.45.962,Info_measure_main_exp,2022.2.2,Win32,59.91252771,,,,,,,,,,,,,,,,,,masks/mask_005.jpg,0,2,2,4,1,,,,,,,,,,,,,,,,,,,,,,,,,,,,,,,,,,,,,,,,,,,,,,,,,,,,,,,,,,,,,,,,,,,,,,,,,,,,,,,,,,,,,,,,
60b4f5e40273da6c883455a2,001,2022-11-21_24h07.45.962,Info_measure_main_exp,2022.2.2,Win32,59.91252771,,,,,,,,,,,,,,,,,,masks/mask_003.jpg,0,3,3,2,1,,,,,,,,,,,,,,,,,,,,,,,,,,,,,,,,,,,,,,,,,,,,,,,,,,,,,,,,,,,,,,,,,,,,,,,,,,,,,,,,,,,,,,,,
60b4f5e40273da6c883455a2,001,2022-11-21_24h07.45.962,Info_measure_main_exp,2022.2.2,Win32,59.91252771,,,,,,,,,,,,,,,,,,masks/mask_001.jpg,0,4,4,0,1,,,,,,,,,,,,,,,,,,,,,,,,,,,,,,,,,,,,,,,,,,,,,,,,,,,,,,,,,,,,,,,,,,,,,,,,,,,,,,,,,,,,,,,,
60b4f5e40273da6c883455a2,001,2022-11-21_24h07.45.962,Info_measure_main_exp,2022.2.2,Win32,59.91252771,,,,,,,,,,,,,,,,,,,,,,,,0.058333362,0.168518526,1,0,0,response1disk,7,73.8445,1,-0.00462963,-0.001851859,1,0,0,center_square,0,2,2,0,1,0,131,5,5,2370,2406,prac_patch/patch0002370.jpg,prac_patch/patch0002406.jpg,,,,,,,,,,,,,,,,,,,,,,,,,,,,,,,,,,,,,,,,,,,,,,,,,,,,,,,,,,,,
60b4f5e40273da6c883455a2,001,2022-11-21_24h07.45.962,Info_measure_main_exp,2022.2.2,Win32,59.91252771,,,,,,,,,,,,,,,,,,,,,,,,,,,,,,,,,,,,,,,,,,,,,,,,,,,,,,,,,,,space,3.1411,,,,,,,,,,,,,,,,,,,,,,,,,,,,,,,,,,,,,,,,,,,,,,,,,,,
60b4f5e40273da6c883455a2,001,2022-11-21_24h07.45.962,Info_measure_main_exp,2022.2.2,Win32,59.91252771,,,,,,,,,,,,,,,,,,masks/mask_005.jpg,,,,,,,,,,,,,,,,,,,,,,,,,,,,,,,,,,,,,,,,,,,0,0,0,4,1,,,,,,,,,,,,,,,,,,,,,,,,,,,,,,,,,,,,,,,,,,,,,,
60b4f5e40273da6c883455a2,001,2022-11-21_24h07.45.962,Info_measure_main_exp,2022.2.2,Win32,59.91252771,,,,,,,,,,,,,,,,,,masks/mask_003.jpg,,,,,,,,,,,,,,,,,,,,,,,,,,,,,,,,,,,,,,,,,,,0,1,1,2,1,,,,,,,,,,,,,,,,,,,,,,,,,,,,,,,,,,,,,,,,,,,,,,
60b4f5e40273da6c883455a2,001,2022-11-21_24h07.45.962,Info_measure_main_exp,2022.2.2,Win32,59.91252771,,,,,,,,,,,,,,,,,,masks/mask_002.jpg,,,,,,,,,,,,,,,,,,,,,,,,,,,,,,,,,,,,,,,,,,,0,2,2,1,1,,,,,,,,,,,,,,,,,,,,,,,,,,,,,,,,,,,,,,,,,,,,,,
60b4f5e40273da6c883455a2,001,2022-11-21_24h07.45.962,Info_measure_main_exp,2022.2.2,Win32,59.91252771,,,,,,,,,,,,,,,,,,masks/mask_001.jpg,,,,,,,,,,,,,,,,,,,,,,,,,,,,,,,,,,,,,,,,,,,0,3,3,0,1,,,,,,,,,,,,,,,,,,,,,,,,,,,,,,,,,,,,,,,,,,,,,,
60b4f5e40273da6c883455a2,001,2022-11-21_24h07.45.962,Info_measure_main_exp,2022.2.2,Win32,59.91252771,,,,,,,,,,,,,,,,,,masks/mask_004.jpg,,,,,,,,,,,,,,,,,,,,,,,,,,,,,,,,,,,,,,,,,,,0,4,4,3,1,,,,,,,,,,,,,,,,,,,,,,,,,,,,,,,,,,,,,,,,,,,,,,
60b4f5e40273da6c883455a2,001,2022-11-21_24h07.45.962,Info_measure_main_exp,2022.2.2,Win32,59.91252771,,,,,,,,,,,,,,,,,,masks/mask_001.jpg,,,,,,,,,,,,,,,,,,,,,,,,,,,,,,,,,,,,,,,,,,,,,,,,0,0,0,0,1,,,,,,,,,,,,,,,,,,,,,,,,,,,,,,,,,,,,,,,,,
60b4f5e40273da6c883455a2,001,2022-11-21_24h07.45.962,Info_measure_main_exp,2022.2.2,Win32,59.91252771,,,,,,,,,,,,,,,,,,masks/mask_003.jpg,,,,,,,,,,,,,,,,,,,,,,,,,,,,,,,,,,,,,,,,,,,,,,,,0,1,1,2,1,,,,,,,,,,,,,,,,,,,,,,,,,,,,,,,,,,,,,,,,,
60b4f5e40273da6c883455a2,001,2022-11-21_24h07.45.962,Info_measure_main_exp,2022.2.2,Win32,59.91252771,,,,,,,,,,,,,,,,,,masks/mask_004.jpg,,,,,,,,,,,,,,,,,,,,,,,,,,,,,,,,,,,,,,,,,,,,,,,,0,2,2,3,1,,,,,,,,,,,,,,,,,,,,,,,,,,,,,,,,,,,,,,,,,
60b4f5e40273da6c883455a2,001,2022-11-21_24h07.45.962,Info_measure_main_exp,2022.2.2,Win32,59.91252771,,,,,,,,,,,,,,,,,,masks/mask_002.jpg,,,,,,,,,,,,,,,,,,,,,,,,,,,,,,,,,,,,,,,,,,,,,,,,0,3,3,1,1,,,,,,,,,,,,,,,,,,,,,,,,,,,,,,,,,,,,,,,,,
60b4f5e40273da6c883455a2,001,2022-11-21_24h07.45.962,Info_measure_main_exp,2022.2.2,Win32,59.91252771,,,,,,,,,,,,,,,,,,masks/mask_005.jpg,,,,,,,,,,,,,,,,,,,,,,,,,,,,,,,,,,,,,,,,,,,,,,,,0,4,4,4,1,,,,,,,,,,,,,,,,,,,,,,,,,,,,,,,,,,,,,,,,,
60b4f5e40273da6c883455a2,001,2022-11-21_24h07.45.962,Info_measure_main_exp,2022.2.2,Win32,59.91252771,,,,,,,,,,,,,,,,,,,,,,,,,,,,,,7,0.8735,1,,,,,,,,,,,,0,131,5,5,1986,2274,absent_patch/patch0001986.jpg,absent_patch/patch0002274.jpg,,,,,,,,,,,,,,,,,,,,0.077777792,0.150925919,1,0,0,response1disk,1,-0.00462963,-0.005555577,1,0,0,center_square,0,0,0,7,1,,,,,,,,,,,,,,,,,,,,,,,
60b4f5e40273da6c883455a2,001,2022-11-21_24h07.45.962,Info_measure_main_exp,2022.2.2,Win32,59.91252771,,,,,,,,,,,,,,,,,,masks/mask_005.jpg,,,,,,,,,,,,,,,,,,,,,,,,,,,,,,,,,,,,,,,,,,,0,0,0,4,1,,,,,,,,,,,,,,,,,,,,,,,,,,,,,,,,,,,,,,,,,,,,,,
60b4f5e40273da6c883455a2,001,2022-11-21_24h07.45.962,Info_measure_main_exp,2022.2.2,Win32,59.91252771,,,,,,,,,,,,,,,,,,masks/mask_002.jpg,,,,,,,,,,,,,,,,,,,,,,,,,,,,,,,,,,,,,,,,,,,0,1,1,1,1,,,,,,,,,,,,,,,,,,,,,,,,,,,,,,,,,,,,,,,,,,,,,,
60b4f5e40273da6c883455a2,001,2022-11-21_24h07.45.962,Info_measure_main_exp,2022.2.2,Win32,59.91252771,,,,,,,,,,,,,,,,,,masks/mask_004.jpg,,,,,,,,,,,,,,,,,,,,,,,,,,,,,,,,,,,,,,,,,,,0,2,2,3,1,,,,,,,,,,,,,,,,,,,,,,,,,,,,,,,,,,,,,,,,,,,,,,
60b4f5e40273da6c883455a2,001,2022-11-21_24h07.45.962,Info_measure_main_exp,2022.2.2,Win32,59.91252771,,,,,,,,,,,,,,,,,,masks/mask_003.jpg,,,,,,,,,,,,,,,,,,,,,,,,,,,,,,,,,,,,,,,,,,,0,3,3,2,1,,,,,,,,,,,,,,,,,,,,,,,,,,,,,,,,,,,,,,,,,,,,,,
60b4f5e40273da6c883455a2,001,2022-11-21_24h07.45.962,Info_measure_main_exp,2022.2.2,Win32,59.91252771,,,,,,,,,,,,,,,,,,masks/mask_001.jpg,,,,,,,,,,,,,,,,,,,,,,,,,,,,,,,,,,,,,,,,,,,0,4,4,0,1,,,,,,,,,,,,,,,,,,,,,,,,,,,,,,,,,,,,,,,,,,,,,,
60b4f5e40273da6c883455a2,001,2022-11-21_24h07.45.962,Info_measure_main_exp,2022.2.2,Win32,59.91252771,,,,,,,,,,,,,,,,,,masks/mask_004.jpg,,,,,,,,,,,,,,,,,,,,,,,,,,,,,,,,,,,,,,,,,,,,,,,,0,0,0,3,1,,,,,,,,,,,,,,,,,,,,,,,,,,,,,,,,,,,,,,,,,
60b4f5e40273da6c883455a2,001,2022-11-21_24h07.45.962,Info_measure_main_exp,2022.2.2,Win32,59.91252771,,,,,,,,,,,,,,,,,,masks/mask_005.jpg,,,,,,,,,,,,,,,,,,,,,,,,,,,,,,,,,,,,,,,,,,,,,,,,0,1,1,4,1,,,,,,,,,,,,,,,,,,,,,,,,,,,,,,,,,,,,,,,,,
60b4f5e40273da6c883455a2,001,2022-11-21_24h07.45.962,Info_measure_main_exp,2022.2.2,Win32,59.91252771,,,,,,,,,,,,,,,,,,masks/mask_002.jpg,,,,,,,,,,,,,,,,,,,,,,,,,,,,,,,,,,,,,,,,,,,,,,,,0,2,2,1,1,,,,,,,,,,,,,,,,,,,,,,,,,,,,,,,,,,,,,,,,,
60b4f5e40273da6c883455a2,001,2022-11-21_24h07.45.962,Info_measure_main_exp,2022.2.2,Win32,59.91252771,,,,,,,,,,,,,,,,,,masks/mask_001.jpg,,,,,,,,,,,,,,,,,,,,,,,,,,,,,,,,,,,,,,,,,,,,,,,,0,3,3,0,1,,,,,,,,,,,,,,,,,,,,,,,,,,,,,,,,,,,,,,,,,
60b4f5e40273da6c883455a2,001,2022-11-21_24h07.45.962,Info_measure_main_exp,2022.2.2,Win32,59.91252771,,,,,,,,,,,,,,,,,,masks/mask_003.jpg,,,,,,,,,,,,,,,,,,,,,,,,,,,,,,,,,,,,,,,,,,,,,,,,0,4,4,2,1,,,,,,,,,,,,,,,,,,,,,,,,,,,,,,,,,,,,,,,,,
60b4f5e40273da6c883455a2,001,2022-11-21_24h07.45.962,Info_measure_main_exp,2022.2.2,Win32,59.91252771,,,,,,,,,,,,,,,,,,,,,,,,,,,,,,0,1.0742,1,,,,,,,,,,,,0,131,5,5,2250,2250,absent_patch/patch0002250.jpg,absent_patch/patch0002250.jpg,,,,,,,,,,,,,,,,,,,,-0.030555513,0.143518519,1,0,0,response7disk,2,-0.005555541,-0.000925947,1,0,0,center_square,0,1,1,56,1,,,,,,,,,,,,,,,,,,,,,,,
60b4f5e40273da6c883455a2,001,2022-11-21_24h07.45.962,Info_measure_main_exp,2022.2.2,Win32,59.91252771,,,,,,,,,,,,,,,,,,masks/mask_004.jpg,,,,,,,,,,,,,,,,,,,,,,,,,,,,,,,,,,,,,,,,,,,0,0,0,3,1,,,,,,,,,,,,,,,,,,,,,,,,,,,,,,,,,,,,,,,,,,,,,,
60b4f5e40273da6c883455a2,001,2022-11-21_24h07.45.962,Info_measure_main_exp,2022.2.2,Win32,59.91252771,,,,,,,,,,,,,,,,,,masks/mask_001.jpg,,,,,,,,,,,,,,,,,,,,,,,,,,,,,,,,,,,,,,,,,,,0,1,1,0,1,,,,,,,,,,,,,,,,,,,,,,,,,,,,,,,,,,,,,,,,,,,,,,
60b4f5e40273da6c883455a2,001,2022-11-21_24h07.45.962,Info_measure_main_exp,2022.2.2,Win32,59.91252771,,,,,,,,,,,,,,,,,,masks/mask_005.jpg,,,,,,,,,,,,,,,,,,,,,,,,,,,,,,,,,,,,,,,,,,,0,2,2,4,1,,,,,,,,,,,,,,,,,,,,,,,,,,,,,,,,,,,,,,,,,,,,,,
60b4f5e40273da6c883455a2,001,2022-11-21_24h07.45.962,Info_measure_main_exp,2022.2.2,Win32,59.91252771,,,,,,,,,,,,,,,,,,masks/mask_002.jpg,,,,,,,,,,,,,,,,,,,,,,,,,,,,,,,,,,,,,,,,,,,0,3,3,1,1,,,,,,,,,,,,,,,,,,,,,,,,,,,,,,,,,,,,,,,,,,,,,,
60b4f5e40273da6c883455a2,001,2022-11-21_24h07.45.962,Info_measure_main_exp,2022.2.2,Win32,59.91252771,,,,,,,,,,,,,,,,,,masks/mask_003.jpg,,,,,,,,,,,,,,,,,,,,,,,,,,,,,,,,,,,,,,,,,,,0,4,4,2,1,,,,,,,,,,,,,,,,,,,,,,,,,,,,,,,,,,,,,,,,,,,,,,
60b4f5e40273da6c883455a2,001,2022-11-21_24h07.45.962,Info_measure_main_exp,2022.2.2,Win32,59.91252771,,,,,,,,,,,,,,,,,,masks/mask_004.jpg,,,,,,,,,,,,,,,,,,,,,,,,,,,,,,,,,,,,,,,,,,,,,,,,0,0,0,3,1,,,,,,,,,,,,,,,,,,,,,,,,,,,,,,,,,,,,,,,,,
60b4f5e40273da6c883455a2,001,2022-11-21_24h07.45.962,Info_measure_main_exp,2022.2.2,Win32,59.91252771,,,,,,,,,,,,,,,,,,masks/mask_002.jpg,,,,,,,,,,,,,,,,,,,,,,,,,,,,,,,,,,,,,,,,,,,,,,,,0,1,1,1,1,,,,,,,,,,,,,,,,,,,,,,,,,,,,,,,,,,,,,,,,,
60b4f5e40273da6c883455a2,001,2022-11-21_24h07.45.962,Info_measure_main_exp,2022.2.2,Win32,59.91252771,,,,,,,,,,,,,,,,,,masks/mask_001.jpg,,,,,,,,,,,,,,,,,,,,,,,,,,,,,,,,,,,,,,,,,,,,,,,,0,2,2,0,1,,,,,,,,,,,,,,,,,,,,,,,,,,,,,,,,,,,,,,,,,
60b4f5e40273da6c883455a2,001,2022-11-21_24h07.45.962,Info_measure_main_exp,2022.2.2,Win32,59.91252771,,,,,,,,,,,,,,,,,,masks/mask_005.jpg,,,,,,,,,,,,,,,,,,,,,,,,,,,,,,,,,,,,,,,,,,,,,,,,0,3,3,4,1,,,,,,,,,,,,,,,,,,,,,,,,,,,,,,,,,,,,,,,,,
60b4f5e40273da6c883455a2,001,2022-11-21_24h07.45.962,Info_measure_main_exp,2022.2.2,Win32,59.91252771,,,,,,,,,,,,,,,,,,masks/mask_003.jpg,,,,,,,,,,,,,,,,,,,,,,,,,,,,,,,,,,,,,,,,,,,,,,,,0,4,4,2,1,,,,,,,,,,,,,,,,,,,,,,,,,,,,,,,,,,,,,,,,,
60b4f5e40273da6c883455a2,001,2022-11-21_24h07.45.962,Info_measure_main_exp,2022.2.2,Win32,59.91252771,,,,,,,,,,,,,,,,,,,,,,,,,,,,,,6,1.5403,1,,,,,,,,,,,,0,131,5,5,1974,2298,absent_patch/patch0001974.jpg,absent_patch/patch0002298.jpg,,,,,,,,,,,,,,,,,,,,0.061111097,0.033333319,1,0,0,response1disk,3,-0.008333347,-0.001851859,1,0,0,center_square,0,2,2,6,1,,,,,,,,,,,,,,,,,,,,,,,
60b4f5e40273da6c883455a2,001,2022-11-21_24h07.45.962,Info_measure_main_exp,2022.2.2,Win32,59.91252771,,,,,,,,,,,,,,,,,,masks/mask_005.jpg,,,,,,,,,,,,,,,,,,,,,,,,,,,,,,,,,,,,,,,,,,,0,0,0,4,1,,,,,,,,,,,,,,,,,,,,,,,,,,,,,,,,,,,,,,,,,,,,,,
60b4f5e40273da6c883455a2,001,2022-11-21_24h07.45.962,Info_measure_main_exp,2022.2.2,Win32,59.91252771,,,,,,,,,,,,,,,,,,masks/mask_002.jpg,,,,,,,,,,,,,,,,,,,,,,,,,,,,,,,,,,,,,,,,,,,0,1,1,1,1,,,,,,,,,,,,,,,,,,,,,,,,,,,,,,,,,,,,,,,,,,,,,,
60b4f5e40273da6c883455a2,001,2022-11-21_24h07.45.962,Info_measure_main_exp,2022.2.2,Win32,59.91252771,,,,,,,,,,,,,,,,,,masks/mask_004.jpg,,,,,,,,,,,,,,,,,,,,,,,,,,,,,,,,,,,,,,,,,,,0,2,2,3,1,,,,,,,,,,,,,,,,,,,,,,,,,,,,,,,,,,,,,,,,,,,,,,
60b4f5e40273da6c883455a2,001,2022-11-21_24h07.45.962,Info_measure_main_exp,2022.2.2,Win32,59.91252771,,,,,,,,,,,,,,,,,,masks/mask_003.jpg,,,,,,,,,,,,,,,,,,,,,,,,,,,,,,,,,,,,,,,,,,,0,3,3,2,1,,,,,,,,,,,,,,,,,,,,,,,,,,,,,,,,,,,,,,,,,,,,,,
60b4f5e40273da6c883455a2,001,2022-11-21_24h07.45.962,Info_measure_main_exp,2022.2.2,Win32,59.91252771,,,,,,,,,,,,,,,,,,masks/mask_001.jpg,,,,,,,,,,,,,,,,,,,,,,,,,,,,,,,,,,,,,,,,,,,0,4,4,0,1,,,,,,,,,,,,,,,,,,,,,,,,,,,,,,,,,,,,,,,,,,,,,,
60b4f5e40273da6c883455a2,001,2022-11-21_24h07.45.962,Info_measure_main_exp,2022.2.2,Win32,59.91252771,,,,,,,,,,,,,,,,,,masks/mask_005.jpg,,,,,,,,,,,,,,,,,,,,,,,,,,,,,,,,,,,,,,,,,,,,,,,,0,0,0,4,1,,,,,,,,,,,,,,,,,,,,,,,,,,,,,,,,,,,,,,,,,
60b4f5e40273da6c883455a2,001,2022-11-21_24h07.45.962,Info_measure_main_exp,2022.2.2,Win32,59.91252771,,,,,,,,,,,,,,,,,,masks/mask_004.jpg,,,,,,,,,,,,,,,,,,,,,,,,,,,,,,,,,,,,,,,,,,,,,,,,0,1,1,3,1,,,,,,,,,,,,,,,,,,,,,,,,,,,,,,,,,,,,,,,,,
60b4f5e40273da6c883455a2,001,2022-11-21_24h07.45.962,Info_measure_main_exp,2022.2.2,Win32,59.91252771,,,,,,,,,,,,,,,,,,masks/mask_001.jpg,,,,,,,,,,,,,,,,,,,,,,,,,,,,,,,,,,,,,,,,,,,,,,,,0,2,2,0,1,,,,,,,,,,,,,,,,,,,,,,,,,,,,,,,,,,,,,,,,,
60b4f5e40273da6c883455a2,001,2022-11-21_24h07.45.962,Info_measure_main_exp,2022.2.2,Win32,59.91252771,,,,,,,,,,,,,,,,,,masks/mask_002.jpg,,,,,,,,,,,,,,,,,,,,,,,,,,,,,,,,,,,,,,,,,,,,,,,,0,3,3,1,1,,,,,,,,,,,,,,,,,,,,,,,,,,,,,,,,,,,,,,,,,
60b4f5e40273da6c883455a2,001,2022-11-21_24h07.45.962,Info_measure_main_exp,2022.2.2,Win32,59.91252771,,,,,,,,,,,,,,,,,,masks/mask_003.jpg,,,,,,,,,,,,,,,,,,,,,,,,,,,,,,,,,,,,,,,,,,,,,,,,0,4,4,2,1,,,,,,,,,,,,,,,,,,,,,,,,,,,,,,,,,,,,,,,,,
60b4f5e40273da6c883455a2,001,2022-11-21_24h07.45.962,Info_measure_main_exp,2022.2.2,Win32,59.91252771,,,,,,,,,,,,,,,,,,,,,,,,,,,,,,5,3.7399,1,,,,,,,,,,,,0,131,5,5,2298,2142,absent_patch/patch0002298.jpg,absent_patch/patch0002142.jpg,,,,,,,,,,,,,,,,,,,,0.083333333,-0.041666667,1,0,0,response3disk,4,0.001851894,-0.001851859,1,0,0,center_square,0,3,3,49,1,,,,,,,,,,,,,,,,,,,,,,,
60b4f5e40273da6c883455a2,001,2022-11-21_24h07.45.962,Info_measure_main_exp,2022.2.2,Win32,59.91252771,,,,,,,,,,,,,,,,,,masks/mask_002.jpg,,,,,,,,,,,,,,,,,,,,,,,,,,,,,,,,,,,,,,,,,,,0,0,0,1,1,,,,,,,,,,,,,,,,,,,,,,,,,,,,,,,,,,,,,,,,,,,,,,
60b4f5e40273da6c883455a2,001,2022-11-21_24h07.45.962,Info_measure_main_exp,2022.2.2,Win32,59.91252771,,,,,,,,,,,,,,,,,,masks/mask_003.jpg,,,,,,,,,,,,,,,,,,,,,,,,,,,,,,,,,,,,,,,,,,,0,1,1,2,1,,,,,,,,,,,,,,,,,,,,,,,,,,,,,,,,,,,,,,,,,,,,,,
60b4f5e40273da6c883455a2,001,2022-11-21_24h07.45.962,Info_measure_main_exp,2022.2.2,Win32,59.91252771,,,,,,,,,,,,,,,,,,masks/mask_004.jpg,,,,,,,,,,,,,,,,,,,,,,,,,,,,,,,,,,,,,,,,,,,0,2,2,3,1,,,,,,,,,,,,,,,,,,,,,,,,,,,,,,,,,,,,,,,,,,,,,,
60b4f5e40273da6c883455a2,001,2022-11-21_24h07.45.962,Info_measure_main_exp,2022.2.2,Win32,59.91252771,,,,,,,,,,,,,,,,,,masks/mask_001.jpg,,,,,,,,,,,,,,,,,,,,,,,,,,,,,,,,,,,,,,,,,,,0,3,3,0,1,,,,,,,,,,,,,,,,,,,,,,,,,,,,,,,,,,,,,,,,,,,,,,
60b4f5e40273da6c883455a2,001,2022-11-21_24h07.45.962,Info_measure_main_exp,2022.2.2,Win32,59.91252771,,,,,,,,,,,,,,,,,,masks/mask_005.jpg,,,,,,,,,,,,,,,,,,,,,,,,,,,,,,,,,,,,,,,,,,,0,4,4,4,1,,,,,,,,,,,,,,,,,,,,,,,,,,,,,,,,,,,,,,,,,,,,,,
60b4f5e40273da6c883455a2,001,2022-11-21_24h07.45.962,Info_measure_main_exp,2022.2.2,Win32,59.91252771,,,,,,,,,,,,,,,,,,masks/mask_005.jpg,,,,,,,,,,,,,,,,,,,,,,,,,,,,,,,,,,,,,,,,,,,,,,,,0,0,0,4,1,,,,,,,,,,,,,,,,,,,,,,,,,,,,,,,,,,,,,,,,,
60b4f5e40273da6c883455a2,001,2022-11-21_24h07.45.962,Info_measure_main_exp,2022.2.2,Win32,59.91252771,,,,,,,,,,,,,,,,,,masks/mask_004.jpg,,,,,,,,,,,,,,,,,,,,,,,,,,,,,,,,,,,,,,,,,,,,,,,,0,1,1,3,1,,,,,,,,,,,,,,,,,,,,,,,,,,,,,,,,,,,,,,,,,
60b4f5e40273da6c883455a2,001,2022-11-21_24h07.45.962,Info_measure_main_exp,2022.2.2,Win32,59.91252771,,,,,,,,,,,,,,,,,,masks/mask_001.jpg,,,,,,,,,,,,,,,,,,,,,,,,,,,,,,,,,,,,,,,,,,,,,,,,0,2,2,0,1,,,,,,,,,,,,,,,,,,,,,,,,,,,,,,,,,,,,,,,,,
60b4f5e40273da6c883455a2,001,2022-11-21_24h07.45.962,Info_measure_main_exp,2022.2.2,Win32,59.91252771,,,,,,,,,,,,,,,,,,masks/mask_002.jpg,,,,,,,,,,,,,,,,,,,,,,,,,,,,,,,,,,,,,,,,,,,,,,,,0,3,3,1,1,,,,,,,,,,,,,,,,,,,,,,,,,,,,,,,,,,,,,,,,,
60b4f5e40273da6c883455a2,001,2022-11-21_24h07.45.962,Info_measure_main_exp,2022.2.2,Win32,59.91252771,,,,,,,,,,,,,,,,,,masks/mask_003.jpg,,,,,,,,,,,,,,,,,,,,,,,,,,,,,,,,,,,,,,,,,,,,,,,,0,4,4,2,1,,,,,,,,,,,,,,,,,,,,,,,,,,,,,,,,,,,,,,,,,
60b4f5e40273da6c883455a2,001,2022-11-21_24h07.45.962,Info_measure_main_exp,2022.2.2,Win32,59.91252771,,,,,,,,,,,,,,,,,,,,,,,,,,,,,,7,0.8074,1,,,,,,,,,,,,0,131,5,5,2190,1986,absent_patch/patch0002190.jpg,absent_patch/patch0001986.jpg,,,,,,,,,,,,,,,,,,,,0.027777778,0.103703711,1,0,0,response1disk,5,-0.001851824,-0.0074074,1,0,0,center_square,0,4,4,111,1,,,,,,,,,,,,,,,,,,,,,,,
60b4f5e40273da6c883455a2,001,2022-11-21_24h07.45.962,Info_measure_main_exp,2022.2.2,Win32,59.91252771,,,,,,,,,,,,,,,,,,masks/mask_004.jpg,,,,,,,,,,,,,,,,,,,,,,,,,,,,,,,,,,,,,,,,,,,0,0,0,3,1,,,,,,,,,,,,,,,,,,,,,,,,,,,,,,,,,,,,,,,,,,,,,,
60b4f5e40273da6c883455a2,001,2022-11-21_24h07.45.962,Info_measure_main_exp,2022.2.2,Win32,59.91252771,,,,,,,,,,,,,,,,,,masks/mask_003.jpg,,,,,,,,,,,,,,,,,,,,,,,,,,,,,,,,,,,,,,,,,,,0,1,1,2,1,,,,,,,,,,,,,,,,,,,,,,,,,,,,,,,,,,,,,,,,,,,,,,
60b4f5e40273da6c883455a2,001,2022-11-21_24h07.45.962,Info_measure_main_exp,2022.2.2,Win32,59.91252771,,,,,,,,,,,,,,,,,,masks/mask_001.jpg,,,,,,,,,,,,,,,,,,,,,,,,,,,,,,,,,,,,,,,,,,,0,2,2,0,1,,,,,,,,,,,,,,,,,,,,,,,,,,,,,,,,,,,,,,,,,,,,,,
60b4f5e40273da6c883455a2,001,2022-11-21_24h07.45.962,Info_measure_main_exp,2022.2.2,Win32,59.91252771,,,,,,,,,,,,,,,,,,masks/mask_002.jpg,,,,,,,,,,,,,,,,,,,,,,,,,,,,,,,,,,,,,,,,,,,0,3,3,1,1,,,,,,,,,,,,,,,,,,,,,,,,,,,,,,,,,,,,,,,,,,,,,,
60b4f5e40273da6c883455a2,001,2022-11-21_24h07.45.962,Info_measure_main_exp,2022.2.2,Win32,59.91252771,,,,,,,,,,,,,,,,,,masks/mask_005.jpg,,,,,,,,,,,,,,,,,,,,,,,,,,,,,,,,,,,,,,,,,,,0,4,4,4,1,,,,,,,,,,,,,,,,,,,,,,,,,,,,,,,,,,,,,,,,,,,,,,
60b4f5e40273da6c883455a2,001,2022-11-21_24h07.45.962,Info_measure_main_exp,2022.2.2,Win32,59.91252771,,,,,,,,,,,,,,,,,,masks/mask_002.jpg,,,,,,,,,,,,,,,,,,,,,,,,,,,,,,,,,,,,,,,,,,,,,,,,0,0,0,1,1,,,,,,,,,,,,,,,,,,,,,,,,,,,,,,,,,,,,,,,,,
60b4f5e40273da6c883455a2,001,2022-11-21_24h07.45.962,Info_measure_main_exp,2022.2.2,Win32,59.91252771,,,,,,,,,,,,,,,,,,masks/mask_001.jpg,,,,,,,,,,,,,,,,,,,,,,,,,,,,,,,,,,,,,,,,,,,,,,,,0,1,1,0,1,,,,,,,,,,,,,,,,,,,,,,,,,,,,,,,,,,,,,,,,,
60b4f5e40273da6c883455a2,001,2022-11-21_24h07.45.962,Info_measure_main_exp,2022.2.2,Win32,59.91252771,,,,,,,,,,,,,,,,,,masks/mask_003.jpg,,,,,,,,,,,,,,,,,,,,,,,,,,,,,,,,,,,,,,,,,,,,,,,,0,2,2,2,1,,,,,,,,,,,,,,,,,,,,,,,,,,,,,,,,,,,,,,,,,
60b4f5e40273da6c883455a2,001,2022-11-21_24h07.45.962,Info_measure_main_exp,2022.2.2,Win32,59.91252771,,,,,,,,,,,,,,,,,,masks/mask_004.jpg,,,,,,,,,,,,,,,,,,,,,,,,,,,,,,,,,,,,,,,,,,,,,,,,0,3,3,3,1,,,,,,,,,,,,,,,,,,,,,,,,,,,,,,,,,,,,,,,,,
60b4f5e40273da6c883455a2,001,2022-11-21_24h07.45.962,Info_measure_main_exp,2022.2.2,Win32,59.91252771,,,,,,,,,,,,,,,,,,masks/mask_005.jpg,,,,,,,,,,,,,,,,,,,,,,,,,,,,,,,,,,,,,,,,,,,,,,,,0,4,4,4,1,,,,,,,,,,,,,,,,,,,,,,,,,,,,,,,,,,,,,,,,,
60b4f5e40273da6c883455a2,001,2022-11-21_24h07.45.962,Info_measure_main_exp,2022.2.2,Win32,59.91252771,,,,,,,,,,,,,,,,,,,,,,,,,,,,,,0,0.5995,1,,,,,,,,,,,,0,131,5,5,1950,1950,absent_patch/patch0001950.jpg,absent_patch/patch0001950.jpg,,,,,,,,,,,,,,,,,,,,-0.050925926,0.098148134,1,0,0,response7disk,6,-0.002777735,0,1,0,0,center_square,0,5,5,92,1,,,,,,,,,,,,,,,,,,,,,,,
60b4f5e40273da6c883455a2,001,2022-11-21_24h07.45.962,Info_measure_main_exp,2022.2.2,Win32,59.91252771,,,,,,,,,,,,,,,,,,masks/mask_004.jpg,,,,,,,,,,,,,,,,,,,,,,,,,,,,,,,,,,,,,,,,,,,0,0,0,3,1,,,,,,,,,,,,,,,,,,,,,,,,,,,,,,,,,,,,,,,,,,,,,,
60b4f5e40273da6c883455a2,001,2022-11-21_24h07.45.962,Info_measure_main_exp,2022.2.2,Win32,59.91252771,,,,,,,,,,,,,,,,,,masks/mask_003.jpg,,,,,,,,,,,,,,,,,,,,,,,,,,,,,,,,,,,,,,,,,,,0,1,1,2,1,,,,,,,,,,,,,,,,,,,,,,,,,,,,,,,,,,,,,,,,,,,,,,
60b4f5e40273da6c883455a2,001,2022-11-21_24h07.45.962,Info_measure_main_exp,2022.2.2,Win32,59.91252771,,,,,,,,,,,,,,,,,,masks/mask_001.jpg,,,,,,,,,,,,,,,,,,,,,,,,,,,,,,,,,,,,,,,,,,,0,2,2,0,1,,,,,,,,,,,,,,,,,,,,,,,,,,,,,,,,,,,,,,,,,,,,,,
60b4f5e40273da6c883455a2,001,2022-11-21_24h07.45.962,Info_measure_main_exp,2022.2.2,Win32,59.91252771,,,,,,,,,,,,,,,,,,masks/mask_002.jpg,,,,,,,,,,,,,,,,,,,,,,,,,,,,,,,,,,,,,,,,,,,0,3,3,1,1,,,,,,,,,,,,,,,,,,,,,,,,,,,,,,,,,,,,,,,,,,,,,,
60b4f5e40273da6c883455a2,001,2022-11-21_24h07.45.962,Info_measure_main_exp,2022.2.2,Win32,59.91252771,,,,,,,,,,,,,,,,,,masks/mask_005.jpg,,,,,,,,,,,,,,,,,,,,,,,,,,,,,,,,,,,,,,,,,,,0,4,4,4,1,,,,,,,,,,,,,,,,,,,,,,,,,,,,,,,,,,,,,,,,,,,,,,
60b4f5e40273da6c883455a2,001,2022-11-21_24h07.45.962,Info_measure_main_exp,2022.2.2,Win32,59.91252771,,,,,,,,,,,,,,,,,,masks/mask_004.jpg,,,,,,,,,,,,,,,,,,,,,,,,,,,,,,,,,,,,,,,,,,,,,,,,0,0,0,3,1,,,,,,,,,,,,,,,,,,,,,,,,,,,,,,,,,,,,,,,,,
60b4f5e40273da6c883455a2,001,2022-11-21_24h07.45.962,Info_measure_main_exp,2022.2.2,Win32,59.91252771,,,,,,,,,,,,,,,,,,masks/mask_005.jpg,,,,,,,,,,,,,,,,,,,,,,,,,,,,,,,,,,,,,,,,,,,,,,,,0,1,1,4,1,,,,,,,,,,,,,,,,,,,,,,,,,,,,,,,,,,,,,,,,,
60b4f5e40273da6c883455a2,001,2022-11-21_24h07.45.962,Info_measure_main_exp,2022.2.2,Win32,59.91252771,,,,,,,,,,,,,,,,,,masks/mask_003.jpg,,,,,,,,,,,,,,,,,,,,,,,,,,,,,,,,,,,,,,,,,,,,,,,,0,2,2,2,1,,,,,,,,,,,,,,,,,,,,,,,,,,,,,,,,,,,,,,,,,
60b4f5e40273da6c883455a2,001,2022-11-21_24h07.45.962,Info_measure_main_exp,2022.2.2,Win32,59.91252771,,,,,,,,,,,,,,,,,,masks/mask_002.jpg,,,,,,,,,,,,,,,,,,,,,,,,,,,,,,,,,,,,,,,,,,,,,,,,0,3,3,1,1,,,,,,,,,,,,,,,,,,,,,,,,,,,,,,,,,,,,,,,,,
60b4f5e40273da6c883455a2,001,2022-11-21_24h07.45.962,Info_measure_main_exp,2022.2.2,Win32,59.91252771,,,,,,,,,,,,,,,,,,masks/mask_001.jpg,,,,,,,,,,,,,,,,,,,,,,,,,,,,,,,,,,,,,,,,,,,,,,,,0,4,4,0,1,,,,,,,,,,,,,,,,,,,,,,,,,,,,,,,,,,,,,,,,,
60b4f5e40273da6c883455a2,001,2022-11-21_24h07.45.962,Info_measure_main_exp,2022.2.2,Win32,59.91252771,,,,,,,,,,,,,,,,,,,,,,,,,,,,,,7,0.6834,1,,,,,,,,,,,,0,131,5,5,2154,1974,absent_patch/patch0002154.jpg,absent_patch/patch0001974.jpg,,,,,,,,,,,,,,,,,,,,0.071296339,0.162962949,1,0,0,response1disk,7,0.002777806,0.000925912,1,0,0,center_square,0,6,6,82,1,,,,,,,,,,,,,,,,,,,,,,,
60b4f5e40273da6c883455a2,001,2022-11-21_24h07.45.962,Info_measure_main_exp,2022.2.2,Win32,59.91252771,,,,,,,,,,,,,,,,,,masks/mask_005.jpg,,,,,,,,,,,,,,,,,,,,,,,,,,,,,,,,,,,,,,,,,,,0,0,0,4,1,,,,,,,,,,,,,,,,,,,,,,,,,,,,,,,,,,,,,,,,,,,,,,
60b4f5e40273da6c883455a2,001,2022-11-21_24h07.45.962,Info_measure_main_exp,2022.2.2,Win32,59.91252771,,,,,,,,,,,,,,,,,,masks/mask_003.jpg,,,,,,,,,,,,,,,,,,,,,,,,,,,,,,,,,,,,,,,,,,,0,1,1,2,1,,,,,,,,,,,,,,,,,,,,,,,,,,,,,,,,,,,,,,,,,,,,,,
60b4f5e40273da6c883455a2,001,2022-11-21_24h07.45.962,Info_measure_main_exp,2022.2.2,Win32,59.91252771,,,,,,,,,,,,,,,,,,masks/mask_004.jpg,,,,,,,,,,,,,,,,,,,,,,,,,,,,,,,,,,,,,,,,,,,0,2,2,3,1,,,,,,,,,,,,,,,,,,,,,,,,,,,,,,,,,,,,,,,,,,,,,,
60b4f5e40273da6c883455a2,001,2022-11-21_24h07.45.962,Info_measure_main_exp,2022.2.2,Win32,59.91252771,,,,,,,,,,,,,,,,,,masks/mask_002.jpg,,,,,,,,,,,,,,,,,,,,,,,,,,,,,,,,,,,,,,,,,,,0,3,3,1,1,,,,,,,,,,,,,,,,,,,,,,,,,,,,,,,,,,,,,,,,,,,,,,
60b4f5e40273da6c883455a2,001,2022-11-21_24h07.45.962,Info_measure_main_exp,2022.2.2,Win32,59.91252771,,,,,,,,,,,,,,,,,,masks/mask_001.jpg,,,,,,,,,,,,,,,,,,,,,,,,,,,,,,,,,,,,,,,,,,,0,4,4,0,1,,,,,,,,,,,,,,,,,,,,,,,,,,,,,,,,,,,,,,,,,,,,,,
60b4f5e40273da6c883455a2,001,2022-11-21_24h07.45.962,Info_measure_main_exp,2022.2.2,Win32,59.91252771,,,,,,,,,,,,,,,,,,masks/mask_004.jpg,,,,,,,,,,,,,,,,,,,,,,,,,,,,,,,,,,,,,,,,,,,,,,,,0,0,0,3,1,,,,,,,,,,,,,,,,,,,,,,,,,,,,,,,,,,,,,,,,,
60b4f5e40273da6c883455a2,001,2022-11-21_24h07.45.962,Info_measure_main_exp,2022.2.2,Win32,59.91252771,,,,,,,,,,,,,,,,,,masks/mask_001.jpg,,,,,,,,,,,,,,,,,,,,,,,,,,,,,,,,,,,,,,,,,,,,,,,,0,1,1,0,1,,,,,,,,,,,,,,,,,,,,,,,,,,,,,,,,,,,,,,,,,
60b4f5e40273da6c883455a2,001,2022-11-21_24h07.45.962,Info_measure_main_exp,2022.2.2,Win32,59.91252771,,,,,,,,,,,,,,,,,,masks/mask_002.jpg,,,,,,,,,,,,,,,,,,,,,,,,,,,,,,,,,,,,,,,,,,,,,,,,0,2,2,1,1,,,,,,,,,,,,,,,,,,,,,,,,,,,,,,,,,,,,,,,,,
60b4f5e40273da6c883455a2,001,2022-11-21_24h07.45.962,Info_measure_main_exp,2022.2.2,Win32,59.91252771,,,,,,,,,,,,,,,,,,masks/mask_003.jpg,,,,,,,,,,,,,,,,,,,,,,,,,,,,,,,,,,,,,,,,,,,,,,,,0,3,3,2,1,,,,,,,,,,,,,,,,,,,,,,,,,,,,,,,,,,,,,,,,,
60b4f5e40273da6c883455a2,001,2022-11-21_24h07.45.962,Info_measure_main_exp,2022.2.2,Win32,59.91252771,,,,,,,,,,,,,,,,,,masks/mask_005.jpg,,,,,,,,,,,,,,,,,,,,,,,,,,,,,,,,,,,,,,,,,,,,,,,,0,4,4,4,1,,,,,,,,,,,,,,,,,,,,,,,,,,,,,,,,,,,,,,,,,
60b4f5e40273da6c883455a2,001,2022-11-21_24h07.45.962,Info_measure_main_exp,2022.2.2,Win32,59.91252771,,,,,,,,,,,,,,,,,,,,,,,,,,,,,,7,0.8005,1,,,,,,,,,,,,0,131,5,5,2274,2190,absent_patch/patch0002274.jpg,absent_patch/patch0002190.jpg,,,,,,,,,,,,,,,,,,,,0.05277782,0.122222229,1,0,0,response1disk,8,-0.005555541,-0.00462963,1,0,0,center_square,0,7,7,116,1,,,,,,,,,,,,,,,,,,,,,,,
60b4f5e40273da6c883455a2,001,2022-11-21_24h07.45.962,Info_measure_main_exp,2022.2.2,Win32,59.91252771,,,,,,,,,,,,,,,,,,masks/mask_002.jpg,,,,,,,,,,,,,,,,,,,,,,,,,,,,,,,,,,,,,,,,,,,0,0,0,1,1,,,,,,,,,,,,,,,,,,,,,,,,,,,,,,,,,,,,,,,,,,,,,,
60b4f5e40273da6c883455a2,001,2022-11-21_24h07.45.962,Info_measure_main_exp,2022.2.2,Win32,59.91252771,,,,,,,,,,,,,,,,,,masks/mask_003.jpg,,,,,,,,,,,,,,,,,,,,,,,,,,,,,,,,,,,,,,,,,,,0,1,1,2,1,,,,,,,,,,,,,,,,,,,,,,,,,,,,,,,,,,,,,,,,,,,,,,
60b4f5e40273da6c883455a2,001,2022-11-21_24h07.45.962,Info_measure_main_exp,2022.2.2,Win32,59.91252771,,,,,,,,,,,,,,,,,,masks/mask_004.jpg,,,,,,,,,,,,,,,,,,,,,,,,,,,,,,,,,,,,,,,,,,,0,2,2,3,1,,,,,,,,,,,,,,,,,,,,,,,,,,,,,,,,,,,,,,,,,,,,,,
60b4f5e40273da6c883455a2,001,2022-11-21_24h07.45.962,Info_measure_main_exp,2022.2.2,Win32,59.91252771,,,,,,,,,,,,,,,,,,masks/mask_005.jpg,,,,,,,,,,,,,,,,,,,,,,,,,,,,,,,,,,,,,,,,,,,0,3,3,4,1,,,,,,,,,,,,,,,,,,,,,,,,,,,,,,,,,,,,,,,,,,,,,,
60b4f5e40273da6c883455a2,001,2022-11-21_24h07.45.962,Info_measure_main_exp,2022.2.2,Win32,59.91252771,,,,,,,,,,,,,,,,,,masks/mask_001.jpg,,,,,,,,,,,,,,,,,,,,,,,,,,,,,,,,,,,,,,,,,,,0,4,4,0,1,,,,,,,,,,,,,,,,,,,,,,,,,,,,,,,,,,,,,,,,,,,,,,
60b4f5e40273da6c883455a2,001,2022-11-21_24h07.45.962,Info_measure_main_exp,2022.2.2,Win32,59.91252771,,,,,,,,,,,,,,,,,,masks/mask_001.jpg,,,,,,,,,,,,,,,,,,,,,,,,,,,,,,,,,,,,,,,,,,,,,,,,0,0,0,0,1,,,,,,,,,,,,,,,,,,,,,,,,,,,,,,,,,,,,,,,,,
60b4f5e40273da6c883455a2,001,2022-11-21_24h07.45.962,Info_measure_main_exp,2022.2.2,Win32,59.91252771,,,,,,,,,,,,,,,,,,masks/mask_004.jpg,,,,,,,,,,,,,,,,,,,,,,,,,,,,,,,,,,,,,,,,,,,,,,,,0,1,1,3,1,,,,,,,,,,,,,,,,,,,,,,,,,,,,,,,,,,,,,,,,,
60b4f5e40273da6c883455a2,001,2022-11-21_24h07.45.962,Info_measure_main_exp,2022.2.2,Win32,59.91252771,,,,,,,,,,,,,,,,,,masks/mask_002.jpg,,,,,,,,,,,,,,,,,,,,,,,,,,,,,,,,,,,,,,,,,,,,,,,,0,2,2,1,1,,,,,,,,,,,,,,,,,,,,,,,,,,,,,,,,,,,,,,,,,
60b4f5e40273da6c883455a2,001,2022-11-21_24h07.45.962,Info_measure_main_exp,2022.2.2,Win32,59.91252771,,,,,,,,,,,,,,,,,,masks/mask_003.jpg,,,,,,,,,,,,,,,,,,,,,,,,,,,,,,,,,,,,,,,,,,,,,,,,0,3,3,2,1,,,,,,,,,,,,,,,,,,,,,,,,,,,,,,,,,,,,,,,,,
60b4f5e40273da6c883455a2,001,2022-11-21_24h07.45.962,Info_measure_main_exp,2022.2.2,Win32,59.91252771,,,,,,,,,,,,,,,,,,masks/mask_005.jpg,,,,,,,,,,,,,,,,,,,,,,,,,,,,,,,,,,,,,,,,,,,,,,,,0,4,4,4,1,,,,,,,,,,,,,,,,,,,,,,,,,,,,,,,,,,,,,,,,,
60b4f5e40273da6c883455a2,001,2022-11-21_24h07.45.962,Info_measure_main_exp,2022.2.2,Win32,59.91252771,,,,,,,,,,,,,,,,,,,,,,,,,,,,,,7,0.7503,1,,,,,,,,,,,,1,131,5,5,2190,1,absent_patch/patch0002190.jpg,present_patch/cong_131_5_a.jpg,,,,,,,,,,,,,,,,,,,,0.055555556,0.154629637,1,0,0,response1disk,9,0.008333347,0.0074074,1,0,0,center_square,0,8,8,64,1,,,,,,,,,,,,,,,,,,,,,,,
60b4f5e40273da6c883455a2,001,2022-11-21_24h07.45.962,Info_measure_main_exp,2022.2.2,Win32,59.91252771,,,,,,,,,,,,,,,,,,masks/mask_005.jpg,,,,,,,,,,,,,,,,,,,,,,,,,,,,,,,,,,,,,,,,,,,0,0,0,4,1,,,,,,,,,,,,,,,,,,,,,,,,,,,,,,,,,,,,,,,,,,,,,,
60b4f5e40273da6c883455a2,001,2022-11-21_24h07.45.962,Info_measure_main_exp,2022.2.2,Win32,59.91252771,,,,,,,,,,,,,,,,,,masks/mask_001.jpg,,,,,,,,,,,,,,,,,,,,,,,,,,,,,,,,,,,,,,,,,,,0,1,1,0,1,,,,,,,,,,,,,,,,,,,,,,,,,,,,,,,,,,,,,,,,,,,,,,
60b4f5e40273da6c883455a2,001,2022-11-21_24h07.45.962,Info_measure_main_exp,2022.2.2,Win32,59.91252771,,,,,,,,,,,,,,,,,,masks/mask_002.jpg,,,,,,,,,,,,,,,,,,,,,,,,,,,,,,,,,,,,,,,,,,,0,2,2,1,1,,,,,,,,,,,,,,,,,,,,,,,,,,,,,,,,,,,,,,,,,,,,,,
60b4f5e40273da6c883455a2,001,2022-11-21_24h07.45.962,Info_measure_main_exp,2022.2.2,Win32,59.91252771,,,,,,,,,,,,,,,,,,masks/mask_003.jpg,,,,,,,,,,,,,,,,,,,,,,,,,,,,,,,,,,,,,,,,,,,0,3,3,2,1,,,,,,,,,,,,,,,,,,,,,,,,,,,,,,,,,,,,,,,,,,,,,,
60b4f5e40273da6c883455a2,001,2022-11-21_24h07.45.962,Info_measure_main_exp,2022.2.2,Win32,59.91252771,,,,,,,,,,,,,,,,,,masks/mask_004.jpg,,,,,,,,,,,,,,,,,,,,,,,,,,,,,,,,,,,,,,,,,,,0,4,4,3,1,,,,,,,,,,,,,,,,,,,,,,,,,,,,,,,,,,,,,,,,,,,,,,
60b4f5e40273da6c883455a2,001,2022-11-21_24h07.45.962,Info_measure_main_exp,2022.2.2,Win32,59.91252771,,,,,,,,,,,,,,,,,,masks/mask_005.jpg,,,,,,,,,,,,,,,,,,,,,,,,,,,,,,,,,,,,,,,,,,,,,,,,0,0,0,4,1,,,,,,,,,,,,,,,,,,,,,,,,,,,,,,,,,,,,,,,,,
60b4f5e40273da6c883455a2,001,2022-11-21_24h07.45.962,Info_measure_main_exp,2022.2.2,Win32,59.91252771,,,,,,,,,,,,,,,,,,masks/mask_003.jpg,,,,,,,,,,,,,,,,,,,,,,,,,,,,,,,,,,,,,,,,,,,,,,,,0,1,1,2,1,,,,,,,,,,,,,,,,,,,,,,,,,,,,,,,,,,,,,,,,,
60b4f5e40273da6c883455a2,001,2022-11-21_24h07.45.962,Info_measure_main_exp,2022.2.2,Win32,59.91252771,,,,,,,,,,,,,,,,,,masks/mask_004.jpg,,,,,,,,,,,,,,,,,,,,,,,,,,,,,,,,,,,,,,,,,,,,,,,,0,2,2,3,1,,,,,,,,,,,,,,,,,,,,,,,,,,,,,,,,,,,,,,,,,
60b4f5e40273da6c883455a2,001,2022-11-21_24h07.45.962,Info_measure_main_exp,2022.2.2,Win32,59.91252771,,,,,,,,,,,,,,,,,,masks/mask_002.jpg,,,,,,,,,,,,,,,,,,,,,,,,,,,,,,,,,,,,,,,,,,,,,,,,0,3,3,1,1,,,,,,,,,,,,,,,,,,,,,,,,,,,,,,,,,,,,,,,,,
60b4f5e40273da6c883455a2,001,2022-11-21_24h07.45.962,Info_measure_main_exp,2022.2.2,Win32,59.91252771,,,,,,,,,,,,,,,,,,masks/mask_001.jpg,,,,,,,,,,,,,,,,,,,,,,,,,,,,,,,,,,,,,,,,,,,,,,,,0,4,4,0,1,,,,,,,,,,,,,,,,,,,,,,,,,,,,,,,,,,,,,,,,,
60b4f5e40273da6c883455a2,001,2022-11-21_24h07.45.962,Info_measure_main_exp,2022.2.2,Win32,59.91252771,,,,,,,,,,,,,,,,,,,,,,,,,,,,,,7,0.5395,1,,,,,,,,,,,,0,131,5,5,1974,2142,absent_patch/patch0001974.jpg,absent_patch/patch0002142.jpg,,,,,,,,,,,,,,,,,,,,0.018518519,0.049074067,1,0,0,response1disk,10,0.006481524,0.003703683,1,0,0,center_square,0,9,9,38,1,,,,,,,,,,,,,,,,,,,,,,,
60b4f5e40273da6c883455a2,001,2022-11-21_24h07.45.962,Info_measure_main_exp,2022.2.2,Win32,59.91252771,,,,,,,,,,,,,,,,,,masks/mask_003.jpg,,,,,,,,,,,,,,,,,,,,,,,,,,,,,,,,,,,,,,,,,,,0,0,0,2,1,,,,,,,,,,,,,,,,,,,,,,,,,,,,,,,,,,,,,,,,,,,,,,
60b4f5e40273da6c883455a2,001,2022-11-21_24h07.45.962,Info_measure_main_exp,2022.2.2,Win32,59.91252771,,,,,,,,,,,,,,,,,,masks/mask_005.jpg,,,,,,,,,,,,,,,,,,,,,,,,,,,,,,,,,,,,,,,,,,,0,1,1,4,1,,,,,,,,,,,,,,,,,,,,,,,,,,,,,,,,,,,,,,,,,,,,,,
60b4f5e40273da6c883455a2,001,2022-11-21_24h07.45.962,Info_measure_main_exp,2022.2.2,Win32,59.91252771,,,,,,,,,,,,,,,,,,masks/mask_001.jpg,,,,,,,,,,,,,,,,,,,,,,,,,,,,,,,,,,,,,,,,,,,0,2,2,0,1,,,,,,,,,,,,,,,,,,,,,,,,,,,,,,,,,,,,,,,,,,,,,,
60b4f5e40273da6c883455a2,001,2022-11-21_24h07.45.962,Info_measure_main_exp,2022.2.2,Win32,59.91252771,,,,,,,,,,,,,,,,,,masks/mask_004.jpg,,,,,,,,,,,,,,,,,,,,,,,,,,,,,,,,,,,,,,,,,,,0,3,3,3,1,,,,,,,,,,,,,,,,,,,,,,,,,,,,,,,,,,,,,,,,,,,,,,
60b4f5e40273da6c883455a2,001,2022-11-21_24h07.45.962,Info_measure_main_exp,2022.2.2,Win32,59.91252771,,,,,,,,,,,,,,,,,,masks/mask_002.jpg,,,,,,,,,,,,,,,,,,,,,,,,,,,,,,,,,,,,,,,,,,,0,4,4,1,1,,,,,,,,,,,,,,,,,,,,,,,,,,,,,,,,,,,,,,,,,,,,,,
60b4f5e40273da6c883455a2,001,2022-11-21_24h07.45.962,Info_measure_main_exp,2022.2.2,Win32,59.91252771,,,,,,,,,,,,,,,,,,masks/mask_002.jpg,,,,,,,,,,,,,,,,,,,,,,,,,,,,,,,,,,,,,,,,,,,,,,,,0,0,0,1,1,,,,,,,,,,,,,,,,,,,,,,,,,,,,,,,,,,,,,,,,,
60b4f5e40273da6c883455a2,001,2022-11-21_24h07.45.962,Info_measure_main_exp,2022.2.2,Win32,59.91252771,,,,,,,,,,,,,,,,,,masks/mask_001.jpg,,,,,,,,,,,,,,,,,,,,,,,,,,,,,,,,,,,,,,,,,,,,,,,,0,1,1,0,1,,,,,,,,,,,,,,,,,,,,,,,,,,,,,,,,,,,,,,,,,
60b4f5e40273da6c883455a2,001,2022-11-21_24h07.45.962,Info_measure_main_exp,2022.2.2,Win32,59.91252771,,,,,,,,,,,,,,,,,,masks/mask_005.jpg,,,,,,,,,,,,,,,,,,,,,,,,,,,,,,,,,,,,,,,,,,,,,,,,0,2,2,4,1,,,,,,,,,,,,,,,,,,,,,,,,,,,,,,,,,,,,,,,,,
60b4f5e40273da6c883455a2,001,2022-11-21_24h07.45.962,Info_measure_main_exp,2022.2.2,Win32,59.91252771,,,,,,,,,,,,,,,,,,masks/mask_004.jpg,,,,,,,,,,,,,,,,,,,,,,,,,,,,,,,,,,,,,,,,,,,,,,,,0,3,3,3,1,,,,,,,,,,,,,,,,,,,,,,,,,,,,,,,,,,,,,,,,,
60b4f5e40273da6c883455a2,001,2022-11-21_24h07.45.962,Info_measure_main_exp,2022.2.2,Win32,59.91252771,,,,,,,,,,,,,,,,,,masks/mask_003.jpg,,,,,,,,,,,,,,,,,,,,,,,,,,,,,,,,,,,,,,,,,,,,,,,,0,4,4,2,1,,,,,,,,,,,,,,,,,,,,,,,,,,,,,,,,,,,,,,,,,
60b4f5e40273da6c883455a2,001,2022-11-21_24h07.45.962,Info_measure_main_exp,2022.2.2,Win32,59.91252771,,,,,,,,,,,,,,,,,,,,,,,,,,,,,,6,1.2238,1,,,,,,,,,,,,0,131,5,5,2082,2178,absent_patch/patch0002082.jpg,absent_patch/patch0002178.jpg,,,,,,,,,,,,,,,,,,,,0.036111125,0.025000007,1,0,0,response1disk,11,0.005555541,0,1,0,0,center_square,0,10,10,2,1,,,,,,,,,,,,,,,,,,,,,,,
60b4f5e40273da6c883455a2,001,2022-11-21_24h07.45.962,Info_measure_main_exp,2022.2.2,Win32,59.91252771,,,,,,,,,,,,,,,,,,masks/mask_002.jpg,,,,,,,,,,,,,,,,,,,,,,,,,,,,,,,,,,,,,,,,,,,0,0,0,1,1,,,,,,,,,,,,,,,,,,,,,,,,,,,,,,,,,,,,,,,,,,,,,,
60b4f5e40273da6c883455a2,001,2022-11-21_24h07.45.962,Info_measure_main_exp,2022.2.2,Win32,59.91252771,,,,,,,,,,,,,,,,,,masks/mask_004.jpg,,,,,,,,,,,,,,,,,,,,,,,,,,,,,,,,,,,,,,,,,,,0,1,1,3,1,,,,,,,,,,,,,,,,,,,,,,,,,,,,,,,,,,,,,,,,,,,,,,
60b4f5e40273da6c883455a2,001,2022-11-21_24h07.45.962,Info_measure_main_exp,2022.2.2,Win32,59.91252771,,,,,,,,,,,,,,,,,,masks/mask_001.jpg,,,,,,,,,,,,,,,,,,,,,,,,,,,,,,,,,,,,,,,,,,,0,2,2,0,1,,,,,,,,,,,,,,,,,,,,,,,,,,,,,,,,,,,,,,,,,,,,,,
60b4f5e40273da6c883455a2,001,2022-11-21_24h07.45.962,Info_measure_main_exp,2022.2.2,Win32,59.91252771,,,,,,,,,,,,,,,,,,masks/mask_005.jpg,,,,,,,,,,,,,,,,,,,,,,,,,,,,,,,,,,,,,,,,,,,0,3,3,4,1,,,,,,,,,,,,,,,,,,,,,,,,,,,,,,,,,,,,,,,,,,,,,,
60b4f5e40273da6c883455a2,001,2022-11-21_24h07.45.962,Info_measure_main_exp,2022.2.2,Win32,59.91252771,,,,,,,,,,,,,,,,,,masks/mask_003.jpg,,,,,,,,,,,,,,,,,,,,,,,,,,,,,,,,,,,,,,,,,,,0,4,4,2,1,,,,,,,,,,,,,,,,,,,,,,,,,,,,,,,,,,,,,,,,,,,,,,
60b4f5e40273da6c883455a2,001,2022-11-21_24h07.45.962,Info_measure_main_exp,2022.2.2,Win32,59.91252771,,,,,,,,,,,,,,,,,,masks/mask_001.jpg,,,,,,,,,,,,,,,,,,,,,,,,,,,,,,,,,,,,,,,,,,,,,,,,0,0,0,0,1,,,,,,,,,,,,,,,,,,,,,,,,,,,,,,,,,,,,,,,,,
60b4f5e40273da6c883455a2,001,2022-11-21_24h07.45.962,Info_measure_main_exp,2022.2.2,Win32,59.91252771,,,,,,,,,,,,,,,,,,masks/mask_005.jpg,,,,,,,,,,,,,,,,,,,,,,,,,,,,,,,,,,,,,,,,,,,,,,,,0,1,1,4,1,,,,,,,,,,,,,,,,,,,,,,,,,,,,,,,,,,,,,,,,,
60b4f5e40273da6c883455a2,001,2022-11-21_24h07.45.962,Info_measure_main_exp,2022.2.2,Win32,59.91252771,,,,,,,,,,,,,,,,,,masks/mask_002.jpg,,,,,,,,,,,,,,,,,,,,,,,,,,,,,,,,,,,,,,,,,,,,,,,,0,2,2,1,1,,,,,,,,,,,,,,,,,,,,,,,,,,,,,,,,,,,,,,,,,
60b4f5e40273da6c883455a2,001,2022-11-21_24h07.45.962,Info_measure_main_exp,2022.2.2,Win32,59.91252771,,,,,,,,,,,,,,,,,,masks/mask_004.jpg,,,,,,,,,,,,,,,,,,,,,,,,,,,,,,,,,,,,,,,,,,,,,,,,0,3,3,3,1,,,,,,,,,,,,,,,,,,,,,,,,,,,,,,,,,,,,,,,,,
60b4f5e40273da6c883455a2,001,2022-11-21_24h07.45.962,Info_measure_main_exp,2022.2.2,Win32,59.91252771,,,,,,,,,,,,,,,,,,masks/mask_003.jpg,,,,,,,,,,,,,,,,,,,,,,,,,,,,,,,,,,,,,,,,,,,,,,,,0,4,4,2,1,,,,,,,,,,,,,,,,,,,,,,,,,,,,,,,,,,,,,,,,,
60b4f5e40273da6c883455a2,001,2022-11-21_24h07.45.962,Info_measure_main_exp,2022.2.2,Win32,59.91252771,,,,,,,,,,,,,,,,,,,,,,,,,,,,,,7,0.6665,1,,,,,,,,,,,,0,131,5,5,2082,2154,absent_patch/patch0002082.jpg,absent_patch/patch0002154.jpg,,,,,,,,,,,,,,,,,,,,0.006481524,0.032407407,1,0,0,response1disk,12,-0.001851824,0.002777771,1,0,0,center_square,0,11,11,33,1,,,,,,,,,,,,,,,,,,,,,,,
60b4f5e40273da6c883455a2,001,2022-11-21_24h07.45.962,Info_measure_main_exp,2022.2.2,Win32,59.91252771,,,,,,,,,,,,,,,,,,masks/mask_005.jpg,,,,,,,,,,,,,,,,,,,,,,,,,,,,,,,,,,,,,,,,,,,0,0,0,4,1,,,,,,,,,,,,,,,,,,,,,,,,,,,,,,,,,,,,,,,,,,,,,,
60b4f5e40273da6c883455a2,001,2022-11-21_24h07.45.962,Info_measure_main_exp,2022.2.2,Win32,59.91252771,,,,,,,,,,,,,,,,,,masks/mask_004.jpg,,,,,,,,,,,,,,,,,,,,,,,,,,,,,,,,,,,,,,,,,,,0,1,1,3,1,,,,,,,,,,,,,,,,,,,,,,,,,,,,,,,,,,,,,,,,,,,,,,
60b4f5e40273da6c883455a2,001,2022-11-21_24h07.45.962,Info_measure_main_exp,2022.2.2,Win32,59.91252771,,,,,,,,,,,,,,,,,,masks/mask_003.jpg,,,,,,,,,,,,,,,,,,,,,,,,,,,,,,,,,,,,,,,,,,,0,2,2,2,1,,,,,,,,,,,,,,,,,,,,,,,,,,,,,,,,,,,,,,,,,,,,,,
60b4f5e40273da6c883455a2,001,2022-11-21_24h07.45.962,Info_measure_main_exp,2022.2.2,Win32,59.91252771,,,,,,,,,,,,,,,,,,masks/mask_002.jpg,,,,,,,,,,,,,,,,,,,,,,,,,,,,,,,,,,,,,,,,,,,0,3,3,1,1,,,,,,,,,,,,,,,,,,,,,,,,,,,,,,,,,,,,,,,,,,,,,,
60b4f5e40273da6c883455a2,001,2022-11-21_24h07.45.962,Info_measure_main_exp,2022.2.2,Win32,59.91252771,,,,,,,,,,,,,,,,,,masks/mask_001.jpg,,,,,,,,,,,,,,,,,,,,,,,,,,,,,,,,,,,,,,,,,,,0,4,4,0,1,,,,,,,,,,,,,,,,,,,,,,,,,,,,,,,,,,,,,,,,,,,,,,
60b4f5e40273da6c883455a2,001,2022-11-21_24h07.45.962,Info_measure_main_exp,2022.2.2,Win32,59.91252771,,,,,,,,,,,,,,,,,,masks/mask_004.jpg,,,,,,,,,,,,,,,,,,,,,,,,,,,,,,,,,,,,,,,,,,,,,,,,0,0,0,3,1,,,,,,,,,,,,,,,,,,,,,,,,,,,,,,,,,,,,,,,,,
60b4f5e40273da6c883455a2,001,2022-11-21_24h07.45.962,Info_measure_main_exp,2022.2.2,Win32,59.91252771,,,,,,,,,,,,,,,,,,masks/mask_001.jpg,,,,,,,,,,,,,,,,,,,,,,,,,,,,,,,,,,,,,,,,,,,,,,,,0,1,1,0,1,,,,,,,,,,,,,,,,,,,,,,,,,,,,,,,,,,,,,,,,,
60b4f5e40273da6c883455a2,001,2022-11-21_24h07.45.962,Info_measure_main_exp,2022.2.2,Win32,59.91252771,,,,,,,,,,,,,,,,,,masks/mask_002.jpg,,,,,,,,,,,,,,,,,,,,,,,,,,,,,,,,,,,,,,,,,,,,,,,,0,2,2,1,1,,,,,,,,,,,,,,,,,,,,,,,,,,,,,,,,,,,,,,,,,
60b4f5e40273da6c883455a2,001,2022-11-21_24h07.45.962,Info_measure_main_exp,2022.2.2,Win32,59.91252771,,,,,,,,,,,,,,,,,,masks/mask_003.jpg,,,,,,,,,,,,,,,,,,,,,,,,,,,,,,,,,,,,,,,,,,,,,,,,0,3,3,2,1,,,,,,,,,,,,,,,,,,,,,,,,,,,,,,,,,,,,,,,,,
60b4f5e40273da6c883455a2,001,2022-11-21_24h07.45.962,Info_measure_main_exp,2022.2.2,Win32,59.91252771,,,,,,,,,,,,,,,,,,masks/mask_005.jpg,,,,,,,,,,,,,,,,,,,,,,,,,,,,,,,,,,,,,,,,,,,,,,,,0,4,4,4,1,,,,,,,,,,,,,,,,,,,,,,,,,,,,,,,,,,,,,,,,,
60b4f5e40273da6c883455a2,001,2022-11-21_24h07.45.962,Info_measure_main_exp,2022.2.2,Win32,59.91252771,,,,,,,,,,,,,,,,,,,,,,,,,,,,,,7,0.4829,1,,,,,,,,,,,,0,131,5,5,2238,2214,absent_patch/patch0002238.jpg,absent_patch/patch0002214.jpg,,,,,,,,,,,,,,,,,,,,0.026851866,0.087037016,1,0,0,response1disk,13,-0.002777735,-0.006481489,1,0,0,center_square,0,12,12,81,1,,,,,,,,,,,,,,,,,,,,,,,
60b4f5e40273da6c883455a2,001,2022-11-21_24h07.45.962,Info_measure_main_exp,2022.2.2,Win32,59.91252771,,,,,,,,,,,,,,,,,,masks/mask_004.jpg,,,,,,,,,,,,,,,,,,,,,,,,,,,,,,,,,,,,,,,,,,,0,0,0,3,1,,,,,,,,,,,,,,,,,,,,,,,,,,,,,,,,,,,,,,,,,,,,,,
60b4f5e40273da6c883455a2,001,2022-11-21_24h07.45.962,Info_measure_main_exp,2022.2.2,Win32,59.91252771,,,,,,,,,,,,,,,,,,masks/mask_003.jpg,,,,,,,,,,,,,,,,,,,,,,,,,,,,,,,,,,,,,,,,,,,0,1,1,2,1,,,,,,,,,,,,,,,,,,,,,,,,,,,,,,,,,,,,,,,,,,,,,,
60b4f5e40273da6c883455a2,001,2022-11-21_24h07.45.962,Info_measure_main_exp,2022.2.2,Win32,59.91252771,,,,,,,,,,,,,,,,,,masks/mask_002.jpg,,,,,,,,,,,,,,,,,,,,,,,,,,,,,,,,,,,,,,,,,,,0,2,2,1,1,,,,,,,,,,,,,,,,,,,,,,,,,,,,,,,,,,,,,,,,,,,,,,
60b4f5e40273da6c883455a2,001,2022-11-21_24h07.45.962,Info_measure_main_exp,2022.2.2,Win32,59.91252771,,,,,,,,,,,,,,,,,,masks/mask_005.jpg,,,,,,,,,,,,,,,,,,,,,,,,,,,,,,,,,,,,,,,,,,,0,3,3,4,1,,,,,,,,,,,,,,,,,,,,,,,,,,,,,,,,,,,,,,,,,,,,,,
60b4f5e40273da6c883455a2,001,2022-11-21_24h07.45.962,Info_measure_main_exp,2022.2.2,Win32,59.91252771,,,,,,,,,,,,,,,,,,masks/mask_001.jpg,,,,,,,,,,,,,,,,,,,,,,,,,,,,,,,,,,,,,,,,,,,0,4,4,0,1,,,,,,,,,,,,,,,,,,,,,,,,,,,,,,,,,,,,,,,,,,,,,,
60b4f5e40273da6c883455a2,001,2022-11-21_24h07.45.962,Info_measure_main_exp,2022.2.2,Win32,59.91252771,,,,,,,,,,,,,,,,,,masks/mask_003.jpg,,,,,,,,,,,,,,,,,,,,,,,,,,,,,,,,,,,,,,,,,,,,,,,,0,0,0,2,1,,,,,,,,,,,,,,,,,,,,,,,,,,,,,,,,,,,,,,,,,
60b4f5e40273da6c883455a2,001,2022-11-21_24h07.45.962,Info_measure_main_exp,2022.2.2,Win32,59.91252771,,,,,,,,,,,,,,,,,,masks/mask_001.jpg,,,,,,,,,,,,,,,,,,,,,,,,,,,,,,,,,,,,,,,,,,,,,,,,0,1,1,0,1,,,,,,,,,,,,,,,,,,,,,,,,,,,,,,,,,,,,,,,,,
60b4f5e40273da6c883455a2,001,2022-11-21_24h07.45.962,Info_measure_main_exp,2022.2.2,Win32,59.91252771,,,,,,,,,,,,,,,,,,masks/mask_002.jpg,,,,,,,,,,,,,,,,,,,,,,,,,,,,,,,,,,,,,,,,,,,,,,,,0,2,2,1,1,,,,,,,,,,,,,,,,,,,,,,,,,,,,,,,,,,,,,,,,,
60b4f5e40273da6c883455a2,001,2022-11-21_24h07.45.962,Info_measure_main_exp,2022.2.2,Win32,59.91252771,,,,,,,,,,,,,,,,,,masks/mask_004.jpg,,,,,,,,,,,,,,,,,,,,,,,,,,,,,,,,,,,,,,,,,,,,,,,,0,3,3,3,1,,,,,,,,,,,,,,,,,,,,,,,,,,,,,,,,,,,,,,,,,
60b4f5e40273da6c883455a2,001,2022-11-21_24h07.45.962,Info_measure_main_exp,2022.2.2,Win32,59.91252771,,,,,,,,,,,,,,,,,,masks/mask_005.jpg,,,,,,,,,,,,,,,,,,,,,,,,,,,,,,,,,,,,,,,,,,,,,,,,0,4,4,4,1,,,,,,,,,,,,,,,,,,,,,,,,,,,,,,,,,,,,,,,,,
60b4f5e40273da6c883455a2,001,2022-11-21_24h07.45.962,Info_measure_main_exp,2022.2.2,Win32,59.91252771,,,,,,,,,,,,,,,,,,,,,,,,,,,,,,7,0.5334,1,,,,,,,,,,,,0,131,5,5,2142,2238,absent_patch/patch0002142.jpg,absent_patch/patch0002238.jpg,,,,,,,,,,,,,,,,,,,,0.018518519,0.053703697,1,0,0,response1disk,14,0.003703718,0.0074074,1,0,0,center_square,0,13,13,101,1,,,,,,,,,,,,,,,,,,,,,,,
60b4f5e40273da6c883455a2,001,2022-11-21_24h07.45.962,Info_measure_main_exp,2022.2.2,Win32,59.91252771,,,,,,,,,,,,,,,,,,masks/mask_003.jpg,,,,,,,,,,,,,,,,,,,,,,,,,,,,,,,,,,,,,,,,,,,0,0,0,2,1,,,,,,,,,,,,,,,,,,,,,,,,,,,,,,,,,,,,,,,,,,,,,,
60b4f5e40273da6c883455a2,001,2022-11-21_24h07.45.962,Info_measure_main_exp,2022.2.2,Win32,59.91252771,,,,,,,,,,,,,,,,,,masks/mask_002.jpg,,,,,,,,,,,,,,,,,,,,,,,,,,,,,,,,,,,,,,,,,,,0,1,1,1,1,,,,,,,,,,,,,,,,,,,,,,,,,,,,,,,,,,,,,,,,,,,,,,
60b4f5e40273da6c883455a2,001,2022-11-21_24h07.45.962,Info_measure_main_exp,2022.2.2,Win32,59.91252771,,,,,,,,,,,,,,,,,,masks/mask_004.jpg,,,,,,,,,,,,,,,,,,,,,,,,,,,,,,,,,,,,,,,,,,,0,2,2,3,1,,,,,,,,,,,,,,,,,,,,,,,,,,,,,,,,,,,,,,,,,,,,,,
60b4f5e40273da6c883455a2,001,2022-11-21_24h07.45.962,Info_measure_main_exp,2022.2.2,Win32,59.91252771,,,,,,,,,,,,,,,,,,masks/mask_005.jpg,,,,,,,,,,,,,,,,,,,,,,,,,,,,,,,,,,,,,,,,,,,0,3,3,4,1,,,,,,,,,,,,,,,,,,,,,,,,,,,,,,,,,,,,,,,,,,,,,,
60b4f5e40273da6c883455a2,001,2022-11-21_24h07.45.962,Info_measure_main_exp,2022.2.2,Win32,59.91252771,,,,,,,,,,,,,,,,,,masks/mask_001.jpg,,,,,,,,,,,,,,,,,,,,,,,,,,,,,,,,,,,,,,,,,,,0,4,4,0,1,,,,,,,,,,,,,,,,,,,,,,,,,,,,,,,,,,,,,,,,,,,,,,
60b4f5e40273da6c883455a2,001,2022-11-21_24h07.45.962,Info_measure_main_exp,2022.2.2,Win32,59.91252771,,,,,,,,,,,,,,,,,,masks/mask_001.jpg,,,,,,,,,,,,,,,,,,,,,,,,,,,,,,,,,,,,,,,,,,,,,,,,0,0,0,0,1,,,,,,,,,,,,,,,,,,,,,,,,,,,,,,,,,,,,,,,,,
60b4f5e40273da6c883455a2,001,2022-11-21_24h07.45.962,Info_measure_main_exp,2022.2.2,Win32,59.91252771,,,,,,,,,,,,,,,,,,masks/mask_003.jpg,,,,,,,,,,,,,,,,,,,,,,,,,,,,,,,,,,,,,,,,,,,,,,,,0,1,1,2,1,,,,,,,,,,,,,,,,,,,,,,,,,,,,,,,,,,,,,,,,,
60b4f5e40273da6c883455a2,001,2022-11-21_24h07.45.962,Info_measure_main_exp,2022.2.2,Win32,59.91252771,,,,,,,,,,,,,,,,,,masks/mask_002.jpg,,,,,,,,,,,,,,,,,,,,,,,,,,,,,,,,,,,,,,,,,,,,,,,,0,2,2,1,1,,,,,,,,,,,,,,,,,,,,,,,,,,,,,,,,,,,,,,,,,
60b4f5e40273da6c883455a2,001,2022-11-21_24h07.45.962,Info_measure_main_exp,2022.2.2,Win32,59.91252771,,,,,,,,,,,,,,,,,,masks/mask_004.jpg,,,,,,,,,,,,,,,,,,,,,,,,,,,,,,,,,,,,,,,,,,,,,,,,0,3,3,3,1,,,,,,,,,,,,,,,,,,,,,,,,,,,,,,,,,,,,,,,,,
60b4f5e40273da6c883455a2,001,2022-11-21_24h07.45.962,Info_measure_main_exp,2022.2.2,Win32,59.91252771,,,,,,,,,,,,,,,,,,masks/mask_005.jpg,,,,,,,,,,,,,,,,,,,,,,,,,,,,,,,,,,,,,,,,,,,,,,,,0,4,4,4,1,,,,,,,,,,,,,,,,,,,,,,,,,,,,,,,,,,,,,,,,,
60b4f5e40273da6c883455a2,001,2022-11-21_24h07.45.962,Info_measure_main_exp,2022.2.2,Win32,59.91252771,,,,,,,,,,,,,,,,,,,,,,,,,,,,,,7,0.6166,1,,,,,,,,,,,,0,131,5,5,2178,2166,absent_patch/patch0002178.jpg,absent_patch/patch0002166.jpg,,,,,,,,,,,,,,,,,,,,0.00462963,0.032407407,1,0,0,response1disk,15,-0.002777735,0,1,0,0,center_square,0,14,14,72,1,,,,,,,,,,,,,,,,,,,,,,,
60b4f5e40273da6c883455a2,001,2022-11-21_24h07.45.962,Info_measure_main_exp,2022.2.2,Win32,59.91252771,,,,,,,,,,,,,,,,,,masks/mask_005.jpg,,,,,,,,,,,,,,,,,,,,,,,,,,,,,,,,,,,,,,,,,,,0,0,0,4,1,,,,,,,,,,,,,,,,,,,,,,,,,,,,,,,,,,,,,,,,,,,,,,
60b4f5e40273da6c883455a2,001,2022-11-21_24h07.45.962,Info_measure_main_exp,2022.2.2,Win32,59.91252771,,,,,,,,,,,,,,,,,,masks/mask_004.jpg,,,,,,,,,,,,,,,,,,,,,,,,,,,,,,,,,,,,,,,,,,,0,1,1,3,1,,,,,,,,,,,,,,,,,,,,,,,,,,,,,,,,,,,,,,,,,,,,,,
60b4f5e40273da6c883455a2,001,2022-11-21_24h07.45.962,Info_measure_main_exp,2022.2.2,Win32,59.91252771,,,,,,,,,,,,,,,,,,masks/mask_001.jpg,,,,,,,,,,,,,,,,,,,,,,,,,,,,,,,,,,,,,,,,,,,0,2,2,0,1,,,,,,,,,,,,,,,,,,,,,,,,,,,,,,,,,,,,,,,,,,,,,,
60b4f5e40273da6c883455a2,001,2022-11-21_24h07.45.962,Info_measure_main_exp,2022.2.2,Win32,59.91252771,,,,,,,,,,,,,,,,,,masks/mask_002.jpg,,,,,,,,,,,,,,,,,,,,,,,,,,,,,,,,,,,,,,,,,,,0,3,3,1,1,,,,,,,,,,,,,,,,,,,,,,,,,,,,,,,,,,,,,,,,,,,,,,
60b4f5e40273da6c883455a2,001,2022-11-21_24h07.45.962,Info_measure_main_exp,2022.2.2,Win32,59.91252771,,,,,,,,,,,,,,,,,,masks/mask_003.jpg,,,,,,,,,,,,,,,,,,,,,,,,,,,,,,,,,,,,,,,,,,,0,4,4,2,1,,,,,,,,,,,,,,,,,,,,,,,,,,,,,,,,,,,,,,,,,,,,,,
60b4f5e40273da6c883455a2,001,2022-11-21_24h07.45.962,Info_measure_main_exp,2022.2.2,Win32,59.91252771,,,,,,,,,,,,,,,,,,masks/mask_004.jpg,,,,,,,,,,,,,,,,,,,,,,,,,,,,,,,,,,,,,,,,,,,,,,,,0,0,0,3,1,,,,,,,,,,,,,,,,,,,,,,,,,,,,,,,,,,,,,,,,,
60b4f5e40273da6c883455a2,001,2022-11-21_24h07.45.962,Info_measure_main_exp,2022.2.2,Win32,59.91252771,,,,,,,,,,,,,,,,,,masks/mask_002.jpg,,,,,,,,,,,,,,,,,,,,,,,,,,,,,,,,,,,,,,,,,,,,,,,,0,1,1,1,1,,,,,,,,,,,,,,,,,,,,,,,,,,,,,,,,,,,,,,,,,
60b4f5e40273da6c883455a2,001,2022-11-21_24h07.45.962,Info_measure_main_exp,2022.2.2,Win32,59.91252771,,,,,,,,,,,,,,,,,,masks/mask_001.jpg,,,,,,,,,,,,,,,,,,,,,,,,,,,,,,,,,,,,,,,,,,,,,,,,0,2,2,0,1,,,,,,,,,,,,,,,,,,,,,,,,,,,,,,,,,,,,,,,,,
60b4f5e40273da6c883455a2,001,2022-11-21_24h07.45.962,Info_measure_main_exp,2022.2.2,Win32,59.91252771,,,,,,,,,,,,,,,,,,masks/mask_003.jpg,,,,,,,,,,,,,,,,,,,,,,,,,,,,,,,,,,,,,,,,,,,,,,,,0,3,3,2,1,,,,,,,,,,,,,,,,,,,,,,,,,,,,,,,,,,,,,,,,,
60b4f5e40273da6c883455a2,001,2022-11-21_24h07.45.962,Info_measure_main_exp,2022.2.2,Win32,59.91252771,,,,,,,,,,,,,,,,,,masks/mask_005.jpg,,,,,,,,,,,,,,,,,,,,,,,,,,,,,,,,,,,,,,,,,,,,,,,,0,4,4,4,1,,,,,,,,,,,,,,,,,,,,,,,,,,,,,,,,,,,,,,,,,
60b4f5e40273da6c883455a2,001,2022-11-21_24h07.45.962,Info_measure_main_exp,2022.2.2,Win32,59.91252771,,,,,,,,,,,,,,,,,,,,,,,,,,,,,,7,1.0166,1,,,,,,,,,,,,1,131,5,5,2250,1,absent_patch/patch0002250.jpg,present_patch/cong_131_5_a.jpg,,,,,,,,,,,,,,,,,,,,0.009259259,0.044444437,1,0,0,response1disk,16,-0.002777735,0.003703683,1,0,0,center_square,0,15,15,5,1,,,,,,,,,,,,,,,,,,,,,,,
60b4f5e40273da6c883455a2,001,2022-11-21_24h07.45.962,Info_measure_main_exp,2022.2.2,Win32,59.91252771,,,,,,,,,,,,,,,,,,masks/mask_002.jpg,,,,,,,,,,,,,,,,,,,,,,,,,,,,,,,,,,,,,,,,,,,0,0,0,1,1,,,,,,,,,,,,,,,,,,,,,,,,,,,,,,,,,,,,,,,,,,,,,,
60b4f5e40273da6c883455a2,001,2022-11-21_24h07.45.962,Info_measure_main_exp,2022.2.2,Win32,59.91252771,,,,,,,,,,,,,,,,,,masks/mask_003.jpg,,,,,,,,,,,,,,,,,,,,,,,,,,,,,,,,,,,,,,,,,,,0,1,1,2,1,,,,,,,,,,,,,,,,,,,,,,,,,,,,,,,,,,,,,,,,,,,,,,
60b4f5e40273da6c883455a2,001,2022-11-21_24h07.45.962,Info_measure_main_exp,2022.2.2,Win32,59.91252771,,,,,,,,,,,,,,,,,,masks/mask_001.jpg,,,,,,,,,,,,,,,,,,,,,,,,,,,,,,,,,,,,,,,,,,,0,2,2,0,1,,,,,,,,,,,,,,,,,,,,,,,,,,,,,,,,,,,,,,,,,,,,,,
60b4f5e40273da6c883455a2,001,2022-11-21_24h07.45.962,Info_measure_main_exp,2022.2.2,Win32,59.91252771,,,,,,,,,,,,,,,,,,masks/mask_005.jpg,,,,,,,,,,,,,,,,,,,,,,,,,,,,,,,,,,,,,,,,,,,0,3,3,4,1,,,,,,,,,,,,,,,,,,,,,,,,,,,,,,,,,,,,,,,,,,,,,,
60b4f5e40273da6c883455a2,001,2022-11-21_24h07.45.962,Info_measure_main_exp,2022.2.2,Win32,59.91252771,,,,,,,,,,,,,,,,,,masks/mask_004.jpg,,,,,,,,,,,,,,,,,,,,,,,,,,,,,,,,,,,,,,,,,,,0,4,4,3,1,,,,,,,,,,,,,,,,,,,,,,,,,,,,,,,,,,,,,,,,,,,,,,
60b4f5e40273da6c883455a2,001,2022-11-21_24h07.45.962,Info_measure_main_exp,2022.2.2,Win32,59.91252771,,,,,,,,,,,,,,,,,,masks/mask_005.jpg,,,,,,,,,,,,,,,,,,,,,,,,,,,,,,,,,,,,,,,,,,,,,,,,0,0,0,4,1,,,,,,,,,,,,,,,,,,,,,,,,,,,,,,,,,,,,,,,,,
60b4f5e40273da6c883455a2,001,2022-11-21_24h07.45.962,Info_measure_main_exp,2022.2.2,Win32,59.91252771,,,,,,,,,,,,,,,,,,masks/mask_004.jpg,,,,,,,,,,,,,,,,,,,,,,,,,,,,,,,,,,,,,,,,,,,,,,,,0,1,1,3,1,,,,,,,,,,,,,,,,,,,,,,,,,,,,,,,,,,,,,,,,,
60b4f5e40273da6c883455a2,001,2022-11-21_24h07.45.962,Info_measure_main_exp,2022.2.2,Win32,59.91252771,,,,,,,,,,,,,,,,,,masks/mask_001.jpg,,,,,,,,,,,,,,,,,,,,,,,,,,,,,,,,,,,,,,,,,,,,,,,,0,2,2,0,1,,,,,,,,,,,,,,,,,,,,,,,,,,,,,,,,,,,,,,,,,
60b4f5e40273da6c883455a2,001,2022-11-21_24h07.45.962,Info_measure_main_exp,2022.2.2,Win32,59.91252771,,,,,,,,,,,,,,,,,,masks/mask_003.jpg,,,,,,,,,,,,,,,,,,,,,,,,,,,,,,,,,,,,,,,,,,,,,,,,0,3,3,2,1,,,,,,,,,,,,,,,,,,,,,,,,,,,,,,,,,,,,,,,,,
60b4f5e40273da6c883455a2,001,2022-11-21_24h07.45.962,Info_measure_main_exp,2022.2.2,Win32,59.91252771,,,,,,,,,,,,,,,,,,masks/mask_002.jpg,,,,,,,,,,,,,,,,,,,,,,,,,,,,,,,,,,,,,,,,,,,,,,,,0,4,4,1,1,,,,,,,,,,,,,,,,,,,,,,,,,,,,,,,,,,,,,,,,,
60b4f5e40273da6c883455a2,001,2022-11-21_24h07.45.962,Info_measure_main_exp,2022.2.2,Win32,59.91252771,,,,,,,,,,,,,,,,,,,,,,,,,,,,,,7,0.5167,1,,,,,,,,,,,,0,131,5,5,2250,2298,absent_patch/patch0002250.jpg,absent_patch/patch0002298.jpg,,,,,,,,,,,,,,,,,,,,0.009259259,0.032407407,1,0,0,response1disk,17,0,0.002777771,1,0,0,center_square,0,16,16,59,1,,,,,,,,,,,,,,,,,,,,,,,
60b4f5e40273da6c883455a2,001,2022-11-21_24h07.45.962,Info_measure_main_exp,2022.2.2,Win32,59.91252771,,,,,,,,,,,,,,,,,,masks/mask_005.jpg,,,,,,,,,,,,,,,,,,,,,,,,,,,,,,,,,,,,,,,,,,,0,0,0,4,1,,,,,,,,,,,,,,,,,,,,,,,,,,,,,,,,,,,,,,,,,,,,,,
60b4f5e40273da6c883455a2,001,2022-11-21_24h07.45.962,Info_measure_main_exp,2022.2.2,Win32,59.91252771,,,,,,,,,,,,,,,,,,masks/mask_003.jpg,,,,,,,,,,,,,,,,,,,,,,,,,,,,,,,,,,,,,,,,,,,0,1,1,2,1,,,,,,,,,,,,,,,,,,,,,,,,,,,,,,,,,,,,,,,,,,,,,,
60b4f5e40273da6c883455a2,001,2022-11-21_24h07.45.962,Info_measure_main_exp,2022.2.2,Win32,59.91252771,,,,,,,,,,,,,,,,,,masks/mask_001.jpg,,,,,,,,,,,,,,,,,,,,,,,,,,,,,,,,,,,,,,,,,,,0,2,2,0,1,,,,,,,,,,,,,,,,,,,,,,,,,,,,,,,,,,,,,,,,,,,,,,
60b4f5e40273da6c883455a2,001,2022-11-21_24h07.45.962,Info_measure_main_exp,2022.2.2,Win32,59.91252771,,,,,,,,,,,,,,,,,,masks/mask_004.jpg,,,,,,,,,,,,,,,,,,,,,,,,,,,,,,,,,,,,,,,,,,,0,3,3,3,1,,,,,,,,,,,,,,,,,,,,,,,,,,,,,,,,,,,,,,,,,,,,,,
60b4f5e40273da6c883455a2,001,2022-11-21_24h07.45.962,Info_measure_main_exp,2022.2.2,Win32,59.91252771,,,,,,,,,,,,,,,,,,masks/mask_002.jpg,,,,,,,,,,,,,,,,,,,,,,,,,,,,,,,,,,,,,,,,,,,0,4,4,1,1,,,,,,,,,,,,,,,,,,,,,,,,,,,,,,,,,,,,,,,,,,,,,,
60b4f5e40273da6c883455a2,001,2022-11-21_24h07.45.962,Info_measure_main_exp,2022.2.2,Win32,59.91252771,,,,,,,,,,,,,,,,,,masks/mask_002.jpg,,,,,,,,,,,,,,,,,,,,,,,,,,,,,,,,,,,,,,,,,,,,,,,,0,0,0,1,1,,,,,,,,,,,,,,,,,,,,,,,,,,,,,,,,,,,,,,,,,
60b4f5e40273da6c883455a2,001,2022-11-21_24h07.45.962,Info_measure_main_exp,2022.2.2,Win32,59.91252771,,,,,,,,,,,,,,,,,,masks/mask_005.jpg,,,,,,,,,,,,,,,,,,,,,,,,,,,,,,,,,,,,,,,,,,,,,,,,0,1,1,4,1,,,,,,,,,,,,,,,,,,,,,,,,,,,,,,,,,,,,,,,,,
60b4f5e40273da6c883455a2,001,2022-11-21_24h07.45.962,Info_measure_main_exp,2022.2.2,Win32,59.91252771,,,,,,,,,,,,,,,,,,masks/mask_004.jpg,,,,,,,,,,,,,,,,,,,,,,,,,,,,,,,,,,,,,,,,,,,,,,,,0,2,2,3,1,,,,,,,,,,,,,,,,,,,,,,,,,,,,,,,,,,,,,,,,,
60b4f5e40273da6c883455a2,001,2022-11-21_24h07.45.962,Info_measure_main_exp,2022.2.2,Win32,59.91252771,,,,,,,,,,,,,,,,,,masks/mask_001.jpg,,,,,,,,,,,,,,,,,,,,,,,,,,,,,,,,,,,,,,,,,,,,,,,,0,3,3,0,1,,,,,,,,,,,,,,,,,,,,,,,,,,,,,,,,,,,,,,,,,
60b4f5e40273da6c883455a2,001,2022-11-21_24h07.45.962,Info_measure_main_exp,2022.2.2,Win32,59.91252771,,,,,,,,,,,,,,,,,,masks/mask_003.jpg,,,,,,,,,,,,,,,,,,,,,,,,,,,,,,,,,,,,,,,,,,,,,,,,0,4,4,2,1,,,,,,,,,,,,,,,,,,,,,,,,,,,,,,,,,,,,,,,,,
60b4f5e40273da6c883455a2,001,2022-11-21_24h07.45.962,Info_measure_main_exp,2022.2.2,Win32,59.91252771,,,,,,,,,,,,,,,,,,,,,,,,,,,,,,7,0.4953,1,,,,,,,,,,,,0,131,5,5,2082,2298,absent_patch/patch0002082.jpg,absent_patch/patch0002298.jpg,,,,,,,,,,,,,,,,,,,,0.010185171,0.025925919,1,0,0,response1disk,18,-0.001851824,-0.002777771,1,0,0,center_square,0,17,17,107,1,,,,,,,,,,,,,,,,,,,,,,,
60b4f5e40273da6c883455a2,001,2022-11-21_24h07.45.962,Info_measure_main_exp,2022.2.2,Win32,59.91252771,,,,,,,,,,,,,,,,,,masks/mask_003.jpg,,,,,,,,,,,,,,,,,,,,,,,,,,,,,,,,,,,,,,,,,,,0,0,0,2,1,,,,,,,,,,,,,,,,,,,,,,,,,,,,,,,,,,,,,,,,,,,,,,
60b4f5e40273da6c883455a2,001,2022-11-21_24h07.45.962,Info_measure_main_exp,2022.2.2,Win32,59.91252771,,,,,,,,,,,,,,,,,,masks/mask_005.jpg,,,,,,,,,,,,,,,,,,,,,,,,,,,,,,,,,,,,,,,,,,,0,1,1,4,1,,,,,,,,,,,,,,,,,,,,,,,,,,,,,,,,,,,,,,,,,,,,,,
60b4f5e40273da6c883455a2,001,2022-11-21_24h07.45.962,Info_measure_main_exp,2022.2.2,Win32,59.91252771,,,,,,,,,,,,,,,,,,masks/mask_001.jpg,,,,,,,,,,,,,,,,,,,,,,,,,,,,,,,,,,,,,,,,,,,0,2,2,0,1,,,,,,,,,,,,,,,,,,,,,,,,,,,,,,,,,,,,,,,,,,,,,,
60b4f5e40273da6c883455a2,001,2022-11-21_24h07.45.962,Info_measure_main_exp,2022.2.2,Win32,59.91252771,,,,,,,,,,,,,,,,,,masks/mask_004.jpg,,,,,,,,,,,,,,,,,,,,,,,,,,,,,,,,,,,,,,,,,,,0,3,3,3,1,,,,,,,,,,,,,,,,,,,,,,,,,,,,,,,,,,,,,,,,,,,,,,
60b4f5e40273da6c883455a2,001,2022-11-21_24h07.45.962,Info_measure_main_exp,2022.2.2,Win32,59.91252771,,,,,,,,,,,,,,,,,,masks/mask_002.jpg,,,,,,,,,,,,,,,,,,,,,,,,,,,,,,,,,,,,,,,,,,,0,4,4,1,1,,,,,,,,,,,,,,,,,,,,,,,,,,,,,,,,,,,,,,,,,,,,,,
60b4f5e40273da6c883455a2,001,2022-11-21_24h07.45.962,Info_measure_main_exp,2022.2.2,Win32,59.91252771,,,,,,,,,,,,,,,,,,masks/mask_001.jpg,,,,,,,,,,,,,,,,,,,,,,,,,,,,,,,,,,,,,,,,,,,,,,,,0,0,0,0,1,,,,,,,,,,,,,,,,,,,,,,,,,,,,,,,,,,,,,,,,,
60b4f5e40273da6c883455a2,001,2022-11-21_24h07.45.962,Info_measure_main_exp,2022.2.2,Win32,59.91252771,,,,,,,,,,,,,,,,,,masks/mask_004.jpg,,,,,,,,,,,,,,,,,,,,,,,,,,,,,,,,,,,,,,,,,,,,,,,,0,1,1,3,1,,,,,,,,,,,,,,,,,,,,,,,,,,,,,,,,,,,,,,,,,
60b4f5e40273da6c883455a2,001,2022-11-21_24h07.45.962,Info_measure_main_exp,2022.2.2,Win32,59.91252771,,,,,,,,,,,,,,,,,,masks/mask_003.jpg,,,,,,,,,,,,,,,,,,,,,,,,,,,,,,,,,,,,,,,,,,,,,,,,0,2,2,2,1,,,,,,,,,,,,,,,,,,,,,,,,,,,,,,,,,,,,,,,,,
60b4f5e40273da6c883455a2,001,2022-11-21_24h07.45.962,Info_measure_main_exp,2022.2.2,Win32,59.91252771,,,,,,,,,,,,,,,,,,masks/mask_005.jpg,,,,,,,,,,,,,,,,,,,,,,,,,,,,,,,,,,,,,,,,,,,,,,,,0,3,3,4,1,,,,,,,,,,,,,,,,,,,,,,,,,,,,,,,,,,,,,,,,,
60b4f5e40273da6c883455a2,001,2022-11-21_24h07.45.962,Info_measure_main_exp,2022.2.2,Win32,59.91252771,,,,,,,,,,,,,,,,,,masks/mask_002.jpg,,,,,,,,,,,,,,,,,,,,,,,,,,,,,,,,,,,,,,,,,,,,,,,,0,4,4,1,1,,,,,,,,,,,,,,,,,,,,,,,,,,,,,,,,,,,,,,,,,
60b4f5e40273da6c883455a2,001,2022-11-21_24h07.45.962,Info_measure_main_exp,2022.2.2,Win32,59.91252771,,,,,,,,,,,,,,,,,,,,,,,,,,,,,,7,1.2881,1,,,,,,,,,,,,0,131,5,5,2274,1974,absent_patch/patch0002274.jpg,absent_patch/patch0001974.jpg,,,,,,,,,,,,,,,,,,,,0.016666695,0.03148146,1,0,0,response1disk,19,-0.001851824,0.00462963,1,0,0,center_square,0,18,18,90,1,,,,,,,,,,,,,,,,,,,,,,,
60b4f5e40273da6c883455a2,001,2022-11-21_24h07.45.962,Info_measure_main_exp,2022.2.2,Win32,59.91252771,,,,,,,,,,,,,,,,,,masks/mask_004.jpg,,,,,,,,,,,,,,,,,,,,,,,,,,,,,,,,,,,,,,,,,,,0,0,0,3,1,,,,,,,,,,,,,,,,,,,,,,,,,,,,,,,,,,,,,,,,,,,,,,
60b4f5e40273da6c883455a2,001,2022-11-21_24h07.45.962,Info_measure_main_exp,2022.2.2,Win32,59.91252771,,,,,,,,,,,,,,,,,,masks/mask_002.jpg,,,,,,,,,,,,,,,,,,,,,,,,,,,,,,,,,,,,,,,,,,,0,1,1,1,1,,,,,,,,,,,,,,,,,,,,,,,,,,,,,,,,,,,,,,,,,,,,,,
60b4f5e40273da6c883455a2,001,2022-11-21_24h07.45.962,Info_measure_main_exp,2022.2.2,Win32,59.91252771,,,,,,,,,,,,,,,,,,masks/mask_003.jpg,,,,,,,,,,,,,,,,,,,,,,,,,,,,,,,,,,,,,,,,,,,0,2,2,2,1,,,,,,,,,,,,,,,,,,,,,,,,,,,,,,,,,,,,,,,,,,,,,,
60b4f5e40273da6c883455a2,001,2022-11-21_24h07.45.962,Info_measure_main_exp,2022.2.2,Win32,59.91252771,,,,,,,,,,,,,,,,,,masks/mask_001.jpg,,,,,,,,,,,,,,,,,,,,,,,,,,,,,,,,,,,,,,,,,,,0,3,3,0,1,,,,,,,,,,,,,,,,,,,,,,,,,,,,,,,,,,,,,,,,,,,,,,
60b4f5e40273da6c883455a2,001,2022-11-21_24h07.45.962,Info_measure_main_exp,2022.2.2,Win32,59.91252771,,,,,,,,,,,,,,,,,,masks/mask_005.jpg,,,,,,,,,,,,,,,,,,,,,,,,,,,,,,,,,,,,,,,,,,,0,4,4,4,1,,,,,,,,,,,,,,,,,,,,,,,,,,,,,,,,,,,,,,,,,,,,,,
60b4f5e40273da6c883455a2,001,2022-11-21_24h07.45.962,Info_measure_main_exp,2022.2.2,Win32,59.91252771,,,,,,,,,,,,,,,,,,masks/mask_002.jpg,,,,,,,,,,,,,,,,,,,,,,,,,,,,,,,,,,,,,,,,,,,,,,,,0,0,0,1,1,,,,,,,,,,,,,,,,,,,,,,,,,,,,,,,,,,,,,,,,,
60b4f5e40273da6c883455a2,001,2022-11-21_24h07.45.962,Info_measure_main_exp,2022.2.2,Win32,59.91252771,,,,,,,,,,,,,,,,,,masks/mask_004.jpg,,,,,,,,,,,,,,,,,,,,,,,,,,,,,,,,,,,,,,,,,,,,,,,,0,1,1,3,1,,,,,,,,,,,,,,,,,,,,,,,,,,,,,,,,,,,,,,,,,
60b4f5e40273da6c883455a2,001,2022-11-21_24h07.45.962,Info_measure_main_exp,2022.2.2,Win32,59.91252771,,,,,,,,,,,,,,,,,,masks/mask_001.jpg,,,,,,,,,,,,,,,,,,,,,,,,,,,,,,,,,,,,,,,,,,,,,,,,0,2,2,0,1,,,,,,,,,,,,,,,,,,,,,,,,,,,,,,,,,,,,,,,,,
60b4f5e40273da6c883455a2,001,2022-11-21_24h07.45.962,Info_measure_main_exp,2022.2.2,Win32,59.91252771,,,,,,,,,,,,,,,,,,masks/mask_005.jpg,,,,,,,,,,,,,,,,,,,,,,,,,,,,,,,,,,,,,,,,,,,,,,,,0,3,3,4,1,,,,,,,,,,,,,,,,,,,,,,,,,,,,,,,,,,,,,,,,,
60b4f5e40273da6c883455a2,001,2022-11-21_24h07.45.962,Info_measure_main_exp,2022.2.2,Win32,59.91252771,,,,,,,,,,,,,,,,,,masks/mask_003.jpg,,,,,,,,,,,,,,,,,,,,,,,,,,,,,,,,,,,,,,,,,,,,,,,,0,4,4,2,1,,,,,,,,,,,,,,,,,,,,,,,,,,,,,,,,,,,,,,,,,
60b4f5e40273da6c883455a2,001,2022-11-21_24h07.45.962,Info_measure_main_exp,2022.2.2,Win32,59.91252771,,,,,,,,,,,,,,,,,,,,,,,,,,,,,,6,0.8073,1,,,,,,,,,,,,0,131,5,5,2238,2166,absent_patch/patch0002238.jpg,absent_patch/patch0002166.jpg,,,,,,,,,,,,,,,,,,,,0.026851866,0.0074074,1,0,0,response1disk,20,-0.006481453,-0.002777771,1,0,0,center_square,0,19,19,118,1,,,,,,,,,,,,,,,,,,,,,,,
60b4f5e40273da6c883455a2,001,2022-11-21_24h07.45.962,Info_measure_main_exp,2022.2.2,Win32,59.91252771,,,,,,,,,,,,,,,,,,masks/mask_004.jpg,,,,,,,,,,,,,,,,,,,,,,,,,,,,,,,,,,,,,,,,,,,0,0,0,3,1,,,,,,,,,,,,,,,,,,,,,,,,,,,,,,,,,,,,,,,,,,,,,,
60b4f5e40273da6c883455a2,001,2022-11-21_24h07.45.962,Info_measure_main_exp,2022.2.2,Win32,59.91252771,,,,,,,,,,,,,,,,,,masks/mask_001.jpg,,,,,,,,,,,,,,,,,,,,,,,,,,,,,,,,,,,,,,,,,,,0,1,1,0,1,,,,,,,,,,,,,,,,,,,,,,,,,,,,,,,,,,,,,,,,,,,,,,
60b4f5e40273da6c883455a2,001,2022-11-21_24h07.45.962,Info_measure_main_exp,2022.2.2,Win32,59.91252771,,,,,,,,,,,,,,,,,,masks/mask_005.jpg,,,,,,,,,,,,,,,,,,,,,,,,,,,,,,,,,,,,,,,,,,,0,2,2,4,1,,,,,,,,,,,,,,,,,,,,,,,,,,,,,,,,,,,,,,,,,,,,,,
60b4f5e40273da6c883455a2,001,2022-11-21_24h07.45.962,Info_measure_main_exp,2022.2.2,Win32,59.91252771,,,,,,,,,,,,,,,,,,masks/mask_002.jpg,,,,,,,,,,,,,,,,,,,,,,,,,,,,,,,,,,,,,,,,,,,0,3,3,1,1,,,,,,,,,,,,,,,,,,,,,,,,,,,,,,,,,,,,,,,,,,,,,,
60b4f5e40273da6c883455a2,001,2022-11-21_24h07.45.962,Info_measure_main_exp,2022.2.2,Win32,59.91252771,,,,,,,,,,,,,,,,,,masks/mask_003.jpg,,,,,,,,,,,,,,,,,,,,,,,,,,,,,,,,,,,,,,,,,,,0,4,4,2,1,,,,,,,,,,,,,,,,,,,,,,,,,,,,,,,,,,,,,,,,,,,,,,
60b4f5e40273da6c883455a2,001,2022-11-21_24h07.45.962,Info_measure_main_exp,2022.2.2,Win32,59.91252771,,,,,,,,,,,,,,,,,,masks/mask_002.jpg,,,,,,,,,,,,,,,,,,,,,,,,,,,,,,,,,,,,,,,,,,,,,,,,0,0,0,1,1,,,,,,,,,,,,,,,,,,,,,,,,,,,,,,,,,,,,,,,,,
60b4f5e40273da6c883455a2,001,2022-11-21_24h07.45.962,Info_measure_main_exp,2022.2.2,Win32,59.91252771,,,,,,,,,,,,,,,,,,masks/mask_003.jpg,,,,,,,,,,,,,,,,,,,,,,,,,,,,,,,,,,,,,,,,,,,,,,,,0,1,1,2,1,,,,,,,,,,,,,,,,,,,,,,,,,,,,,,,,,,,,,,,,,
60b4f5e40273da6c883455a2,001,2022-11-21_24h07.45.962,Info_measure_main_exp,2022.2.2,Win32,59.91252771,,,,,,,,,,,,,,,,,,masks/mask_004.jpg,,,,,,,,,,,,,,,,,,,,,,,,,,,,,,,,,,,,,,,,,,,,,,,,0,2,2,3,1,,,,,,,,,,,,,,,,,,,,,,,,,,,,,,,,,,,,,,,,,
60b4f5e40273da6c883455a2,001,2022-11-21_24h07.45.962,Info_measure_main_exp,2022.2.2,Win32,59.91252771,,,,,,,,,,,,,,,,,,masks/mask_005.jpg,,,,,,,,,,,,,,,,,,,,,,,,,,,,,,,,,,,,,,,,,,,,,,,,0,3,3,4,1,,,,,,,,,,,,,,,,,,,,,,,,,,,,,,,,,,,,,,,,,
60b4f5e40273da6c883455a2,001,2022-11-21_24h07.45.962,Info_measure_main_exp,2022.2.2,Win32,59.91252771,,,,,,,,,,,,,,,,,,masks/mask_001.jpg,,,,,,,,,,,,,,,,,,,,,,,,,,,,,,,,,,,,,,,,,,,,,,,,0,4,4,0,1,,,,,,,,,,,,,,,,,,,,,,,,,,,,,,,,,,,,,,,,,
60b4f5e40273da6c883455a2,001,2022-11-21_24h07.45.962,Info_measure_main_exp,2022.2.2,Win32,59.91252771,,,,,,,,,,,,,,,,,,,,,,,,,,,,,,7,1.3004,1,,,,,,,,,,,,0,131,5,5,2190,2166,absent_patch/patch0002190.jpg,absent_patch/patch0002166.jpg,,,,,,,,,,,,,,,,,,,,0.009259259,0.025925919,1,0,0,response1disk,21,-0.002777735,-0.012962977,1,0,0,center_square,0,20,20,50,1,,,,,,,,,,,,,,,,,,,,,,,
60b4f5e40273da6c883455a2,001,2022-11-21_24h07.45.962,Info_measure_main_exp,2022.2.2,Win32,59.91252771,,,,,,,,,,,,,,,,,,masks/mask_001.jpg,,,,,,,,,,,,,,,,,,,,,,,,,,,,,,,,,,,,,,,,,,,0,0,0,0,1,,,,,,,,,,,,,,,,,,,,,,,,,,,,,,,,,,,,,,,,,,,,,,
60b4f5e40273da6c883455a2,001,2022-11-21_24h07.45.962,Info_measure_main_exp,2022.2.2,Win32,59.91252771,,,,,,,,,,,,,,,,,,masks/mask_003.jpg,,,,,,,,,,,,,,,,,,,,,,,,,,,,,,,,,,,,,,,,,,,0,1,1,2,1,,,,,,,,,,,,,,,,,,,,,,,,,,,,,,,,,,,,,,,,,,,,,,
60b4f5e40273da6c883455a2,001,2022-11-21_24h07.45.962,Info_measure_main_exp,2022.2.2,Win32,59.91252771,,,,,,,,,,,,,,,,,,masks/mask_004.jpg,,,,,,,,,,,,,,,,,,,,,,,,,,,,,,,,,,,,,,,,,,,0,2,2,3,1,,,,,,,,,,,,,,,,,,,,,,,,,,,,,,,,,,,,,,,,,,,,,,
60b4f5e40273da6c883455a2,001,2022-11-21_24h07.45.962,Info_measure_main_exp,2022.2.2,Win32,59.91252771,,,,,,,,,,,,,,,,,,masks/mask_002.jpg,,,,,,,,,,,,,,,,,,,,,,,,,,,,,,,,,,,,,,,,,,,0,3,3,1,1,,,,,,,,,,,,,,,,,,,,,,,,,,,,,,,,,,,,,,,,,,,,,,
60b4f5e40273da6c883455a2,001,2022-11-21_24h07.45.962,Info_measure_main_exp,2022.2.2,Win32,59.91252771,,,,,,,,,,,,,,,,,,masks/mask_005.jpg,,,,,,,,,,,,,,,,,,,,,,,,,,,,,,,,,,,,,,,,,,,0,4,4,4,1,,,,,,,,,,,,,,,,,,,,,,,,,,,,,,,,,,,,,,,,,,,,,,
60b4f5e40273da6c883455a2,001,2022-11-21_24h07.45.962,Info_measure_main_exp,2022.2.2,Win32,59.91252771,,,,,,,,,,,,,,,,,,masks/mask_005.jpg,,,,,,,,,,,,,,,,,,,,,,,,,,,,,,,,,,,,,,,,,,,,,,,,0,0,0,4,1,,,,,,,,,,,,,,,,,,,,,,,,,,,,,,,,,,,,,,,,,
60b4f5e40273da6c883455a2,001,2022-11-21_24h07.45.962,Info_measure_main_exp,2022.2.2,Win32,59.91252771,,,,,,,,,,,,,,,,,,masks/mask_003.jpg,,,,,,,,,,,,,,,,,,,,,,,,,,,,,,,,,,,,,,,,,,,,,,,,0,1,1,2,1,,,,,,,,,,,,,,,,,,,,,,,,,,,,,,,,,,,,,,,,,
60b4f5e40273da6c883455a2,001,2022-11-21_24h07.45.962,Info_measure_main_exp,2022.2.2,Win32,59.91252771,,,,,,,,,,,,,,,,,,masks/mask_002.jpg,,,,,,,,,,,,,,,,,,,,,,,,,,,,,,,,,,,,,,,,,,,,,,,,0,2,2,1,1,,,,,,,,,,,,,,,,,,,,,,,,,,,,,,,,,,,,,,,,,
60b4f5e40273da6c883455a2,001,2022-11-21_24h07.45.962,Info_measure_main_exp,2022.2.2,Win32,59.91252771,,,,,,,,,,,,,,,,,,masks/mask_004.jpg,,,,,,,,,,,,,,,,,,,,,,,,,,,,,,,,,,,,,,,,,,,,,,,,0,3,3,3,1,,,,,,,,,,,,,,,,,,,,,,,,,,,,,,,,,,,,,,,,,
60b4f5e40273da6c883455a2,001,2022-11-21_24h07.45.962,Info_measure_main_exp,2022.2.2,Win32,59.91252771,,,,,,,,,,,,,,,,,,masks/mask_001.jpg,,,,,,,,,,,,,,,,,,,,,,,,,,,,,,,,,,,,,,,,,,,,,,,,0,4,4,0,1,,,,,,,,,,,,,,,,,,,,,,,,,,,,,,,,,,,,,,,,,
60b4f5e40273da6c883455a2,001,2022-11-21_24h07.45.962,Info_measure_main_exp,2022.2.2,Win32,59.91252771,,,,,,,,,,,,,,,,,,,,,,,,,,,,,,7,0.641,1,,,,,,,,,,,,0,131,5,5,2190,2082,absent_patch/patch0002190.jpg,absent_patch/patch0002082.jpg,,,,,,,,,,,,,,,,,,,,0.009259259,0.021296289,1,0,0,response1disk,22,-0.002777735,-0.003703718,1,0,0,center_square,0,21,21,112,1,,,,,,,,,,,,,,,,,,,,,,,
60b4f5e40273da6c883455a2,001,2022-11-21_24h07.45.962,Info_measure_main_exp,2022.2.2,Win32,59.91252771,,,,,,,,,,,,,,,,,,masks/mask_002.jpg,,,,,,,,,,,,,,,,,,,,,,,,,,,,,,,,,,,,,,,,,,,0,0,0,1,1,,,,,,,,,,,,,,,,,,,,,,,,,,,,,,,,,,,,,,,,,,,,,,
60b4f5e40273da6c883455a2,001,2022-11-21_24h07.45.962,Info_measure_main_exp,2022.2.2,Win32,59.91252771,,,,,,,,,,,,,,,,,,masks/mask_003.jpg,,,,,,,,,,,,,,,,,,,,,,,,,,,,,,,,,,,,,,,,,,,0,1,1,2,1,,,,,,,,,,,,,,,,,,,,,,,,,,,,,,,,,,,,,,,,,,,,,,
60b4f5e40273da6c883455a2,001,2022-11-21_24h07.45.962,Info_measure_main_exp,2022.2.2,Win32,59.91252771,,,,,,,,,,,,,,,,,,masks/mask_004.jpg,,,,,,,,,,,,,,,,,,,,,,,,,,,,,,,,,,,,,,,,,,,0,2,2,3,1,,,,,,,,,,,,,,,,,,,,,,,,,,,,,,,,,,,,,,,,,,,,,,
60b4f5e40273da6c883455a2,001,2022-11-21_24h07.45.962,Info_measure_main_exp,2022.2.2,Win32,59.91252771,,,,,,,,,,,,,,,,,,masks/mask_005.jpg,,,,,,,,,,,,,,,,,,,,,,,,,,,,,,,,,,,,,,,,,,,0,3,3,4,1,,,,,,,,,,,,,,,,,,,,,,,,,,,,,,,,,,,,,,,,,,,,,,
60b4f5e40273da6c883455a2,001,2022-11-21_24h07.45.962,Info_measure_main_exp,2022.2.2,Win32,59.91252771,,,,,,,,,,,,,,,,,,masks/mask_001.jpg,,,,,,,,,,,,,,,,,,,,,,,,,,,,,,,,,,,,,,,,,,,0,4,4,0,1,,,,,,,,,,,,,,,,,,,,,,,,,,,,,,,,,,,,,,,,,,,,,,
60b4f5e40273da6c883455a2,001,2022-11-21_24h07.45.962,Info_measure_main_exp,2022.2.2,Win32,59.91252771,,,,,,,,,,,,,,,,,,masks/mask_001.jpg,,,,,,,,,,,,,,,,,,,,,,,,,,,,,,,,,,,,,,,,,,,,,,,,0,0,0,0,1,,,,,,,,,,,,,,,,,,,,,,,,,,,,,,,,,,,,,,,,,
60b4f5e40273da6c883455a2,001,2022-11-21_24h07.45.962,Info_measure_main_exp,2022.2.2,Win32,59.91252771,,,,,,,,,,,,,,,,,,masks/mask_004.jpg,,,,,,,,,,,,,,,,,,,,,,,,,,,,,,,,,,,,,,,,,,,,,,,,0,1,1,3,1,,,,,,,,,,,,,,,,,,,,,,,,,,,,,,,,,,,,,,,,,
60b4f5e40273da6c883455a2,001,2022-11-21_24h07.45.962,Info_measure_main_exp,2022.2.2,Win32,59.91252771,,,,,,,,,,,,,,,,,,masks/mask_005.jpg,,,,,,,,,,,,,,,,,,,,,,,,,,,,,,,,,,,,,,,,,,,,,,,,0,2,2,4,1,,,,,,,,,,,,,,,,,,,,,,,,,,,,,,,,,,,,,,,,,
60b4f5e40273da6c883455a2,001,2022-11-21_24h07.45.962,Info_measure_main_exp,2022.2.2,Win32,59.91252771,,,,,,,,,,,,,,,,,,masks/mask_002.jpg,,,,,,,,,,,,,,,,,,,,,,,,,,,,,,,,,,,,,,,,,,,,,,,,0,3,3,1,1,,,,,,,,,,,,,,,,,,,,,,,,,,,,,,,,,,,,,,,,,
60b4f5e40273da6c883455a2,001,2022-11-21_24h07.45.962,Info_measure_main_exp,2022.2.2,Win32,59.91252771,,,,,,,,,,,,,,,,,,masks/mask_003.jpg,,,,,,,,,,,,,,,,,,,,,,,,,,,,,,,,,,,,,,,,,,,,,,,,0,4,4,2,1,,,,,,,,,,,,,,,,,,,,,,,,,,,,,,,,,,,,,,,,,
60b4f5e40273da6c883455a2,001,2022-11-21_24h07.45.962,Info_measure_main_exp,2022.2.2,Win32,59.91252771,,,,,,,,,,,,,,,,,,,,,,,,,,,,,,0,0.6241,1,,,,,,,,,,,,0,131,5,5,2274,2274,absent_patch/patch0002274.jpg,absent_patch/patch0002274.jpg,,,,,,,,,,,,,,,,,,,,-0.014814801,0.029629637,1,0,0,response7disk,23,-0.007407365,0.006481489,1,0,0,center_square,0,22,22,114,1,,,,,,,,,,,,,,,,,,,,,,,
60b4f5e40273da6c883455a2,001,2022-11-21_24h07.45.962,Info_measure_main_exp,2022.2.2,Win32,59.91252771,,,,,,,,,,,,,,,,,,masks/mask_002.jpg,,,,,,,,,,,,,,,,,,,,,,,,,,,,,,,,,,,,,,,,,,,0,0,0,1,1,,,,,,,,,,,,,,,,,,,,,,,,,,,,,,,,,,,,,,,,,,,,,,
60b4f5e40273da6c883455a2,001,2022-11-21_24h07.45.962,Info_measure_main_exp,2022.2.2,Win32,59.91252771,,,,,,,,,,,,,,,,,,masks/mask_005.jpg,,,,,,,,,,,,,,,,,,,,,,,,,,,,,,,,,,,,,,,,,,,0,1,1,4,1,,,,,,,,,,,,,,,,,,,,,,,,,,,,,,,,,,,,,,,,,,,,,,
60b4f5e40273da6c883455a2,001,2022-11-21_24h07.45.962,Info_measure_main_exp,2022.2.2,Win32,59.91252771,,,,,,,,,,,,,,,,,,masks/mask_004.jpg,,,,,,,,,,,,,,,,,,,,,,,,,,,,,,,,,,,,,,,,,,,0,2,2,3,1,,,,,,,,,,,,,,,,,,,,,,,,,,,,,,,,,,,,,,,,,,,,,,
60b4f5e40273da6c883455a2,001,2022-11-21_24h07.45.962,Info_measure_main_exp,2022.2.2,Win32,59.91252771,,,,,,,,,,,,,,,,,,masks/mask_001.jpg,,,,,,,,,,,,,,,,,,,,,,,,,,,,,,,,,,,,,,,,,,,0,3,3,0,1,,,,,,,,,,,,,,,,,,,,,,,,,,,,,,,,,,,,,,,,,,,,,,
60b4f5e40273da6c883455a2,001,2022-11-21_24h07.45.962,Info_measure_main_exp,2022.2.2,Win32,59.91252771,,,,,,,,,,,,,,,,,,masks/mask_003.jpg,,,,,,,,,,,,,,,,,,,,,,,,,,,,,,,,,,,,,,,,,,,0,4,4,2,1,,,,,,,,,,,,,,,,,,,,,,,,,,,,,,,,,,,,,,,,,,,,,,
60b4f5e40273da6c883455a2,001,2022-11-21_24h07.45.962,Info_measure_main_exp,2022.2.2,Win32,59.91252771,,,,,,,,,,,,,,,,,,masks/mask_002.jpg,,,,,,,,,,,,,,,,,,,,,,,,,,,,,,,,,,,,,,,,,,,,,,,,0,0,0,1,1,,,,,,,,,,,,,,,,,,,,,,,,,,,,,,,,,,,,,,,,,
60b4f5e40273da6c883455a2,001,2022-11-21_24h07.45.962,Info_measure_main_exp,2022.2.2,Win32,59.91252771,,,,,,,,,,,,,,,,,,masks/mask_003.jpg,,,,,,,,,,,,,,,,,,,,,,,,,,,,,,,,,,,,,,,,,,,,,,,,0,1,1,2,1,,,,,,,,,,,,,,,,,,,,,,,,,,,,,,,,,,,,,,,,,
60b4f5e40273da6c883455a2,001,2022-11-21_24h07.45.962,Info_measure_main_exp,2022.2.2,Win32,59.91252771,,,,,,,,,,,,,,,,,,masks/mask_004.jpg,,,,,,,,,,,,,,,,,,,,,,,,,,,,,,,,,,,,,,,,,,,,,,,,0,2,2,3,1,,,,,,,,,,,,,,,,,,,,,,,,,,,,,,,,,,,,,,,,,
60b4f5e40273da6c883455a2,001,2022-11-21_24h07.45.962,Info_measure_main_exp,2022.2.2,Win32,59.91252771,,,,,,,,,,,,,,,,,,masks/mask_005.jpg,,,,,,,,,,,,,,,,,,,,,,,,,,,,,,,,,,,,,,,,,,,,,,,,0,3,3,4,1,,,,,,,,,,,,,,,,,,,,,,,,,,,,,,,,,,,,,,,,,
60b4f5e40273da6c883455a2,001,2022-11-21_24h07.45.962,Info_measure_main_exp,2022.2.2,Win32,59.91252771,,,,,,,,,,,,,,,,,,masks/mask_001.jpg,,,,,,,,,,,,,,,,,,,,,,,,,,,,,,,,,,,,,,,,,,,,,,,,0,4,4,0,1,,,,,,,,,,,,,,,,,,,,,,,,,,,,,,,,,,,,,,,,,
60b4f5e40273da6c883455a2,001,2022-11-21_24h07.45.962,Info_measure_main_exp,2022.2.2,Win32,59.91252771,,,,,,,,,,,,,,,,,,,,,,,,,,,,,,7,0.5832,1,,,,,,,,,,,,1,131,5,5,1,2274,present_patch/cong_131_5_a.jpg,absent_patch/patch0002274.jpg,,,,,,,,,,,,,,,,,,,,0.005555541,0.030555548,1,0,0,response1disk,24,-0.007407365,-0.000925947,1,0,0,center_square,0,23,23,105,1,,,,,,,,,,,,,,,,,,,,,,,
60b4f5e40273da6c883455a2,001,2022-11-21_24h07.45.962,Info_measure_main_exp,2022.2.2,Win32,59.91252771,,,,,,,,,,,,,,,,,,masks/mask_004.jpg,,,,,,,,,,,,,,,,,,,,,,,,,,,,,,,,,,,,,,,,,,,0,0,0,3,1,,,,,,,,,,,,,,,,,,,,,,,,,,,,,,,,,,,,,,,,,,,,,,
60b4f5e40273da6c883455a2,001,2022-11-21_24h07.45.962,Info_measure_main_exp,2022.2.2,Win32,59.91252771,,,,,,,,,,,,,,,,,,masks/mask_001.jpg,,,,,,,,,,,,,,,,,,,,,,,,,,,,,,,,,,,,,,,,,,,0,1,1,0,1,,,,,,,,,,,,,,,,,,,,,,,,,,,,,,,,,,,,,,,,,,,,,,
60b4f5e40273da6c883455a2,001,2022-11-21_24h07.45.962,Info_measure_main_exp,2022.2.2,Win32,59.91252771,,,,,,,,,,,,,,,,,,masks/mask_003.jpg,,,,,,,,,,,,,,,,,,,,,,,,,,,,,,,,,,,,,,,,,,,0,2,2,2,1,,,,,,,,,,,,,,,,,,,,,,,,,,,,,,,,,,,,,,,,,,,,,,
60b4f5e40273da6c883455a2,001,2022-11-21_24h07.45.962,Info_measure_main_exp,2022.2.2,Win32,59.91252771,,,,,,,,,,,,,,,,,,masks/mask_005.jpg,,,,,,,,,,,,,,,,,,,,,,,,,,,,,,,,,,,,,,,,,,,0,3,3,4,1,,,,,,,,,,,,,,,,,,,,,,,,,,,,,,,,,,,,,,,,,,,,,,
60b4f5e40273da6c883455a2,001,2022-11-21_24h07.45.962,Info_measure_main_exp,2022.2.2,Win32,59.91252771,,,,,,,,,,,,,,,,,,masks/mask_002.jpg,,,,,,,,,,,,,,,,,,,,,,,,,,,,,,,,,,,,,,,,,,,0,4,4,1,1,,,,,,,,,,,,,,,,,,,,,,,,,,,,,,,,,,,,,,,,,,,,,,
60b4f5e40273da6c883455a2,001,2022-11-21_24h07.45.962,Info_measure_main_exp,2022.2.2,Win32,59.91252771,,,,,,,,,,,,,,,,,,masks/mask_005.jpg,,,,,,,,,,,,,,,,,,,,,,,,,,,,,,,,,,,,,,,,,,,,,,,,0,0,0,4,1,,,,,,,,,,,,,,,,,,,,,,,,,,,,,,,,,,,,,,,,,
60b4f5e40273da6c883455a2,001,2022-11-21_24h07.45.962,Info_measure_main_exp,2022.2.2,Win32,59.91252771,,,,,,,,,,,,,,,,,,masks/mask_004.jpg,,,,,,,,,,,,,,,,,,,,,,,,,,,,,,,,,,,,,,,,,,,,,,,,0,1,1,3,1,,,,,,,,,,,,,,,,,,,,,,,,,,,,,,,,,,,,,,,,,
60b4f5e40273da6c883455a2,001,2022-11-21_24h07.45.962,Info_measure_main_exp,2022.2.2,Win32,59.91252771,,,,,,,,,,,,,,,,,,masks/mask_003.jpg,,,,,,,,,,,,,,,,,,,,,,,,,,,,,,,,,,,,,,,,,,,,,,,,0,2,2,2,1,,,,,,,,,,,,,,,,,,,,,,,,,,,,,,,,,,,,,,,,,
60b4f5e40273da6c883455a2,001,2022-11-21_24h07.45.962,Info_measure_main_exp,2022.2.2,Win32,59.91252771,,,,,,,,,,,,,,,,,,masks/mask_002.jpg,,,,,,,,,,,,,,,,,,,,,,,,,,,,,,,,,,,,,,,,,,,,,,,,0,3,3,1,1,,,,,,,,,,,,,,,,,,,,,,,,,,,,,,,,,,,,,,,,,
60b4f5e40273da6c883455a2,001,2022-11-21_24h07.45.962,Info_measure_main_exp,2022.2.2,Win32,59.91252771,,,,,,,,,,,,,,,,,,masks/mask_001.jpg,,,,,,,,,,,,,,,,,,,,,,,,,,,,,,,,,,,,,,,,,,,,,,,,0,4,4,0,1,,,,,,,,,,,,,,,,,,,,,,,,,,,,,,,,,,,,,,,,,
60b4f5e40273da6c883455a2,001,2022-11-21_24h07.45.962,Info_measure_main_exp,2022.2.2,Win32,59.91252771,,,,,,,,,,,,,,,,,,,,,,,,,,,,,,0,0.4666,1,,,,,,,,,,,,0,131,5,5,2238,2238,absent_patch/patch0002238.jpg,absent_patch/patch0002238.jpg,,,,,,,,,,,,,,,,,,,,-0.018518519,0.03611109,1,0,0,response7disk,25,-0.008333347,0.0074074,1,0,0,center_square,0,24,24,58,1,,,,,,,,,,,,,,,,,,,,,,,
60b4f5e40273da6c883455a2,001,2022-11-21_24h07.45.962,Info_measure_main_exp,2022.2.2,Win32,59.91252771,,,,,,,,,,,,,,,,,,masks/mask_005.jpg,,,,,,,,,,,,,,,,,,,,,,,,,,,,,,,,,,,,,,,,,,,0,0,0,4,1,,,,,,,,,,,,,,,,,,,,,,,,,,,,,,,,,,,,,,,,,,,,,,
60b4f5e40273da6c883455a2,001,2022-11-21_24h07.45.962,Info_measure_main_exp,2022.2.2,Win32,59.91252771,,,,,,,,,,,,,,,,,,masks/mask_003.jpg,,,,,,,,,,,,,,,,,,,,,,,,,,,,,,,,,,,,,,,,,,,0,1,1,2,1,,,,,,,,,,,,,,,,,,,,,,,,,,,,,,,,,,,,,,,,,,,,,,
60b4f5e40273da6c883455a2,001,2022-11-21_24h07.45.962,Info_measure_main_exp,2022.2.2,Win32,59.91252771,,,,,,,,,,,,,,,,,,masks/mask_004.jpg,,,,,,,,,,,,,,,,,,,,,,,,,,,,,,,,,,,,,,,,,,,0,2,2,3,1,,,,,,,,,,,,,,,,,,,,,,,,,,,,,,,,,,,,,,,,,,,,,,
60b4f5e40273da6c883455a2,001,2022-11-21_24h07.45.962,Info_measure_main_exp,2022.2.2,Win32,59.91252771,,,,,,,,,,,,,,,,,,masks/mask_002.jpg,,,,,,,,,,,,,,,,,,,,,,,,,,,,,,,,,,,,,,,,,,,0,3,3,1,1,,,,,,,,,,,,,,,,,,,,,,,,,,,,,,,,,,,,,,,,,,,,,,
60b4f5e40273da6c883455a2,001,2022-11-21_24h07.45.962,Info_measure_main_exp,2022.2.2,Win32,59.91252771,,,,,,,,,,,,,,,,,,masks/mask_001.jpg,,,,,,,,,,,,,,,,,,,,,,,,,,,,,,,,,,,,,,,,,,,0,4,4,0,1,,,,,,,,,,,,,,,,,,,,,,,,,,,,,,,,,,,,,,,,,,,,,,
60b4f5e40273da6c883455a2,001,2022-11-21_24h07.45.962,Info_measure_main_exp,2022.2.2,Win32,59.91252771,,,,,,,,,,,,,,,,,,masks/mask_004.jpg,,,,,,,,,,,,,,,,,,,,,,,,,,,,,,,,,,,,,,,,,,,,,,,,0,0,0,3,1,,,,,,,,,,,,,,,,,,,,,,,,,,,,,,,,,,,,,,,,,
60b4f5e40273da6c883455a2,001,2022-11-21_24h07.45.962,Info_measure_main_exp,2022.2.2,Win32,59.91252771,,,,,,,,,,,,,,,,,,masks/mask_003.jpg,,,,,,,,,,,,,,,,,,,,,,,,,,,,,,,,,,,,,,,,,,,,,,,,0,1,1,2,1,,,,,,,,,,,,,,,,,,,,,,,,,,,,,,,,,,,,,,,,,
60b4f5e40273da6c883455a2,001,2022-11-21_24h07.45.962,Info_measure_main_exp,2022.2.2,Win32,59.91252771,,,,,,,,,,,,,,,,,,masks/mask_001.jpg,,,,,,,,,,,,,,,,,,,,,,,,,,,,,,,,,,,,,,,,,,,,,,,,0,2,2,0,1,,,,,,,,,,,,,,,,,,,,,,,,,,,,,,,,,,,,,,,,,
60b4f5e40273da6c883455a2,001,2022-11-21_24h07.45.962,Info_measure_main_exp,2022.2.2,Win32,59.91252771,,,,,,,,,,,,,,,,,,masks/mask_002.jpg,,,,,,,,,,,,,,,,,,,,,,,,,,,,,,,,,,,,,,,,,,,,,,,,0,3,3,1,1,,,,,,,,,,,,,,,,,,,,,,,,,,,,,,,,,,,,,,,,,
60b4f5e40273da6c883455a2,001,2022-11-21_24h07.45.962,Info_measure_main_exp,2022.2.2,Win32,59.91252771,,,,,,,,,,,,,,,,,,masks/mask_005.jpg,,,,,,,,,,,,,,,,,,,,,,,,,,,,,,,,,,,,,,,,,,,,,,,,0,4,4,4,1,,,,,,,,,,,,,,,,,,,,,,,,,,,,,,,,,,,,,,,,,
60b4f5e40273da6c883455a2,001,2022-11-21_24h07.45.962,Info_measure_main_exp,2022.2.2,Win32,59.91252771,,,,,,,,,,,,,,,,,,,,,,,,,,,,,,0,0.6574,1,,,,,,,,,,,,0,131,5,5,2082,2082,absent_patch/patch0002082.jpg,absent_patch/patch0002082.jpg,,,,,,,,,,,,,,,,,,,,-0.009259259,0.025000007,1,0,0,response7disk,26,-0.006481453,0,1,0,0,center_square,0,25,25,74,1,,,,,,,,,,,,,,,,,,,,,,,
60b4f5e40273da6c883455a2,001,2022-11-21_24h07.45.962,Info_measure_main_exp,2022.2.2,Win32,59.91252771,,,,,,,,,,,,,,,,,,masks/mask_002.jpg,,,,,,,,,,,,,,,,,,,,,,,,,,,,,,,,,,,,,,,,,,,0,0,0,1,1,,,,,,,,,,,,,,,,,,,,,,,,,,,,,,,,,,,,,,,,,,,,,,
60b4f5e40273da6c883455a2,001,2022-11-21_24h07.45.962,Info_measure_main_exp,2022.2.2,Win32,59.91252771,,,,,,,,,,,,,,,,,,masks/mask_001.jpg,,,,,,,,,,,,,,,,,,,,,,,,,,,,,,,,,,,,,,,,,,,0,1,1,0,1,,,,,,,,,,,,,,,,,,,,,,,,,,,,,,,,,,,,,,,,,,,,,,
60b4f5e40273da6c883455a2,001,2022-11-21_24h07.45.962,Info_measure_main_exp,2022.2.2,Win32,59.91252771,,,,,,,,,,,,,,,,,,masks/mask_005.jpg,,,,,,,,,,,,,,,,,,,,,,,,,,,,,,,,,,,,,,,,,,,0,2,2,4,1,,,,,,,,,,,,,,,,,,,,,,,,,,,,,,,,,,,,,,,,,,,,,,
60b4f5e40273da6c883455a2,001,2022-11-21_24h07.45.962,Info_measure_main_exp,2022.2.2,Win32,59.91252771,,,,,,,,,,,,,,,,,,masks/mask_003.jpg,,,,,,,,,,,,,,,,,,,,,,,,,,,,,,,,,,,,,,,,,,,0,3,3,2,1,,,,,,,,,,,,,,,,,,,,,,,,,,,,,,,,,,,,,,,,,,,,,,
60b4f5e40273da6c883455a2,001,2022-11-21_24h07.45.962,Info_measure_main_exp,2022.2.2,Win32,59.91252771,,,,,,,,,,,,,,,,,,masks/mask_004.jpg,,,,,,,,,,,,,,,,,,,,,,,,,,,,,,,,,,,,,,,,,,,0,4,4,3,1,,,,,,,,,,,,,,,,,,,,,,,,,,,,,,,,,,,,,,,,,,,,,,
60b4f5e40273da6c883455a2,001,2022-11-21_24h07.45.962,Info_measure_main_exp,2022.2.2,Win32,59.91252771,,,,,,,,,,,,,,,,,,masks/mask_005.jpg,,,,,,,,,,,,,,,,,,,,,,,,,,,,,,,,,,,,,,,,,,,,,,,,0,0,0,4,1,,,,,,,,,,,,,,,,,,,,,,,,,,,,,,,,,,,,,,,,,
60b4f5e40273da6c883455a2,001,2022-11-21_24h07.45.962,Info_measure_main_exp,2022.2.2,Win32,59.91252771,,,,,,,,,,,,,,,,,,masks/mask_002.jpg,,,,,,,,,,,,,,,,,,,,,,,,,,,,,,,,,,,,,,,,,,,,,,,,0,1,1,1,1,,,,,,,,,,,,,,,,,,,,,,,,,,,,,,,,,,,,,,,,,
60b4f5e40273da6c883455a2,001,2022-11-21_24h07.45.962,Info_measure_main_exp,2022.2.2,Win32,59.91252771,,,,,,,,,,,,,,,,,,masks/mask_001.jpg,,,,,,,,,,,,,,,,,,,,,,,,,,,,,,,,,,,,,,,,,,,,,,,,0,2,2,0,1,,,,,,,,,,,,,,,,,,,,,,,,,,,,,,,,,,,,,,,,,
60b4f5e40273da6c883455a2,001,2022-11-21_24h07.45.962,Info_measure_main_exp,2022.2.2,Win32,59.91252771,,,,,,,,,,,,,,,,,,masks/mask_003.jpg,,,,,,,,,,,,,,,,,,,,,,,,,,,,,,,,,,,,,,,,,,,,,,,,0,3,3,2,1,,,,,,,,,,,,,,,,,,,,,,,,,,,,,,,,,,,,,,,,,
60b4f5e40273da6c883455a2,001,2022-11-21_24h07.45.962,Info_measure_main_exp,2022.2.2,Win32,59.91252771,,,,,,,,,,,,,,,,,,masks/mask_004.jpg,,,,,,,,,,,,,,,,,,,,,,,,,,,,,,,,,,,,,,,,,,,,,,,,0,4,4,3,1,,,,,,,,,,,,,,,,,,,,,,,,,,,,,,,,,,,,,,,,,
60b4f5e40273da6c883455a2,001,2022-11-21_24h07.45.962,Info_measure_main_exp,2022.2.2,Win32,59.91252771,,,,,,,,,,,,,,,,,,,,,,,,,,,,,,0,0.4162,1,,,,,,,,,,,,0,131,5,5,2142,2142,absent_patch/patch0002142.jpg,absent_patch/patch0002142.jpg,,,,,,,,,,,,,,,,,,,,-0.013888889,0.050925926,1,0,0,response7disk,27,-0.008333347,-0.000925947,1,0,0,center_square,0,26,26,13,1,,,,,,,,,,,,,,,,,,,,,,,
60b4f5e40273da6c883455a2,001,2022-11-21_24h07.45.962,Info_measure_main_exp,2022.2.2,Win32,59.91252771,,,,,,,,,,,,,,,,,,masks/mask_004.jpg,,,,,,,,,,,,,,,,,,,,,,,,,,,,,,,,,,,,,,,,,,,0,0,0,3,1,,,,,,,,,,,,,,,,,,,,,,,,,,,,,,,,,,,,,,,,,,,,,,
60b4f5e40273da6c883455a2,001,2022-11-21_24h07.45.962,Info_measure_main_exp,2022.2.2,Win32,59.91252771,,,,,,,,,,,,,,,,,,masks/mask_002.jpg,,,,,,,,,,,,,,,,,,,,,,,,,,,,,,,,,,,,,,,,,,,0,1,1,1,1,,,,,,,,,,,,,,,,,,,,,,,,,,,,,,,,,,,,,,,,,,,,,,
60b4f5e40273da6c883455a2,001,2022-11-21_24h07.45.962,Info_measure_main_exp,2022.2.2,Win32,59.91252771,,,,,,,,,,,,,,,,,,masks/mask_001.jpg,,,,,,,,,,,,,,,,,,,,,,,,,,,,,,,,,,,,,,,,,,,0,2,2,0,1,,,,,,,,,,,,,,,,,,,,,,,,,,,,,,,,,,,,,,,,,,,,,,
60b4f5e40273da6c883455a2,001,2022-11-21_24h07.45.962,Info_measure_main_exp,2022.2.2,Win32,59.91252771,,,,,,,,,,,,,,,,,,masks/mask_003.jpg,,,,,,,,,,,,,,,,,,,,,,,,,,,,,,,,,,,,,,,,,,,0,3,3,2,1,,,,,,,,,,,,,,,,,,,,,,,,,,,,,,,,,,,,,,,,,,,,,,
60b4f5e40273da6c883455a2,001,2022-11-21_24h07.45.962,Info_measure_main_exp,2022.2.2,Win32,59.91252771,,,,,,,,,,,,,,,,,,masks/mask_005.jpg,,,,,,,,,,,,,,,,,,,,,,,,,,,,,,,,,,,,,,,,,,,0,4,4,4,1,,,,,,,,,,,,,,,,,,,,,,,,,,,,,,,,,,,,,,,,,,,,,,
60b4f5e40273da6c883455a2,001,2022-11-21_24h07.45.962,Info_measure_main_exp,2022.2.2,Win32,59.91252771,,,,,,,,,,,,,,,,,,masks/mask_005.jpg,,,,,,,,,,,,,,,,,,,,,,,,,,,,,,,,,,,,,,,,,,,,,,,,0,0,0,4,1,,,,,,,,,,,,,,,,,,,,,,,,,,,,,,,,,,,,,,,,,
60b4f5e40273da6c883455a2,001,2022-11-21_24h07.45.962,Info_measure_main_exp,2022.2.2,Win32,59.91252771,,,,,,,,,,,,,,,,,,masks/mask_004.jpg,,,,,,,,,,,,,,,,,,,,,,,,,,,,,,,,,,,,,,,,,,,,,,,,0,1,1,3,1,,,,,,,,,,,,,,,,,,,,,,,,,,,,,,,,,,,,,,,,,
60b4f5e40273da6c883455a2,001,2022-11-21_24h07.45.962,Info_measure_main_exp,2022.2.2,Win32,59.91252771,,,,,,,,,,,,,,,,,,masks/mask_001.jpg,,,,,,,,,,,,,,,,,,,,,,,,,,,,,,,,,,,,,,,,,,,,,,,,0,2,2,0,1,,,,,,,,,,,,,,,,,,,,,,,,,,,,,,,,,,,,,,,,,
60b4f5e40273da6c883455a2,001,2022-11-21_24h07.45.962,Info_measure_main_exp,2022.2.2,Win32,59.91252771,,,,,,,,,,,,,,,,,,masks/mask_003.jpg,,,,,,,,,,,,,,,,,,,,,,,,,,,,,,,,,,,,,,,,,,,,,,,,0,3,3,2,1,,,,,,,,,,,,,,,,,,,,,,,,,,,,,,,,,,,,,,,,,
60b4f5e40273da6c883455a2,001,2022-11-21_24h07.45.962,Info_measure_main_exp,2022.2.2,Win32,59.91252771,,,,,,,,,,,,,,,,,,masks/mask_002.jpg,,,,,,,,,,,,,,,,,,,,,,,,,,,,,,,,,,,,,,,,,,,,,,,,0,4,4,1,1,,,,,,,,,,,,,,,,,,,,,,,,,,,,,,,,,,,,,,,,,
60b4f5e40273da6c883455a2,001,2022-11-21_24h07.45.962,Info_measure_main_exp,2022.2.2,Win32,59.91252771,,,,,,,,,,,,,,,,,,,,,,,,,,,,,,6,1.067,1,,,,,,,,,,,,0,131,5,5,2178,2142,absent_patch/patch0002178.jpg,absent_patch/patch0002142.jpg,,,,,,,,,,,,,,,,,,,,0.027777778,0.013888889,1,0,0,response1disk,28,0.00462963,0.0074074,1,0,0,center_square,0,27,27,41,1,,,,,,,,,,,,,,,,,,,,,,,
60b4f5e40273da6c883455a2,001,2022-11-21_24h07.45.962,Info_measure_main_exp,2022.2.2,Win32,59.91252771,,,,,,,,,,,,,,,,,,masks/mask_001.jpg,,,,,,,,,,,,,,,,,,,,,,,,,,,,,,,,,,,,,,,,,,,0,0,0,0,1,,,,,,,,,,,,,,,,,,,,,,,,,,,,,,,,,,,,,,,,,,,,,,
60b4f5e40273da6c883455a2,001,2022-11-21_24h07.45.962,Info_measure_main_exp,2022.2.2,Win32,59.91252771,,,,,,,,,,,,,,,,,,masks/mask_002.jpg,,,,,,,,,,,,,,,,,,,,,,,,,,,,,,,,,,,,,,,,,,,0,1,1,1,1,,,,,,,,,,,,,,,,,,,,,,,,,,,,,,,,,,,,,,,,,,,,,,
60b4f5e40273da6c883455a2,001,2022-11-21_24h07.45.962,Info_measure_main_exp,2022.2.2,Win32,59.91252771,,,,,,,,,,,,,,,,,,masks/mask_003.jpg,,,,,,,,,,,,,,,,,,,,,,,,,,,,,,,,,,,,,,,,,,,0,2,2,2,1,,,,,,,,,,,,,,,,,,,,,,,,,,,,,,,,,,,,,,,,,,,,,,
60b4f5e40273da6c883455a2,001,2022-11-21_24h07.45.962,Info_measure_main_exp,2022.2.2,Win32,59.91252771,,,,,,,,,,,,,,,,,,masks/mask_004.jpg,,,,,,,,,,,,,,,,,,,,,,,,,,,,,,,,,,,,,,,,,,,0,3,3,3,1,,,,,,,,,,,,,,,,,,,,,,,,,,,,,,,,,,,,,,,,,,,,,,
60b4f5e40273da6c883455a2,001,2022-11-21_24h07.45.962,Info_measure_main_exp,2022.2.2,Win32,59.91252771,,,,,,,,,,,,,,,,,,masks/mask_005.jpg,,,,,,,,,,,,,,,,,,,,,,,,,,,,,,,,,,,,,,,,,,,0,4,4,4,1,,,,,,,,,,,,,,,,,,,,,,,,,,,,,,,,,,,,,,,,,,,,,,
60b4f5e40273da6c883455a2,001,2022-11-21_24h07.45.962,Info_measure_main_exp,2022.2.2,Win32,59.91252771,,,,,,,,,,,,,,,,,,masks/mask_001.jpg,,,,,,,,,,,,,,,,,,,,,,,,,,,,,,,,,,,,,,,,,,,,,,,,0,0,0,0,1,,,,,,,,,,,,,,,,,,,,,,,,,,,,,,,,,,,,,,,,,
60b4f5e40273da6c883455a2,001,2022-11-21_24h07.45.962,Info_measure_main_exp,2022.2.2,Win32,59.91252771,,,,,,,,,,,,,,,,,,masks/mask_002.jpg,,,,,,,,,,,,,,,,,,,,,,,,,,,,,,,,,,,,,,,,,,,,,,,,0,1,1,1,1,,,,,,,,,,,,,,,,,,,,,,,,,,,,,,,,,,,,,,,,,
60b4f5e40273da6c883455a2,001,2022-11-21_24h07.45.962,Info_measure_main_exp,2022.2.2,Win32,59.91252771,,,,,,,,,,,,,,,,,,masks/mask_003.jpg,,,,,,,,,,,,,,,,,,,,,,,,,,,,,,,,,,,,,,,,,,,,,,,,0,2,2,2,1,,,,,,,,,,,,,,,,,,,,,,,,,,,,,,,,,,,,,,,,,
60b4f5e40273da6c883455a2,001,2022-11-21_24h07.45.962,Info_measure_main_exp,2022.2.2,Win32,59.91252771,,,,,,,,,,,,,,,,,,masks/mask_004.jpg,,,,,,,,,,,,,,,,,,,,,,,,,,,,,,,,,,,,,,,,,,,,,,,,0,3,3,3,1,,,,,,,,,,,,,,,,,,,,,,,,,,,,,,,,,,,,,,,,,
60b4f5e40273da6c883455a2,001,2022-11-21_24h07.45.962,Info_measure_main_exp,2022.2.2,Win32,59.91252771,,,,,,,,,,,,,,,,,,masks/mask_005.jpg,,,,,,,,,,,,,,,,,,,,,,,,,,,,,,,,,,,,,,,,,,,,,,,,0,4,4,4,1,,,,,,,,,,,,,,,,,,,,,,,,,,,,,,,,,,,,,,,,,
60b4f5e40273da6c883455a2,001,2022-11-21_24h07.45.962,Info_measure_main_exp,2022.2.2,Win32,59.91252771,,,,,,,,,,,,,,,,,,,,,,,,,,,,,,7,0.4907,1,,,,,,,,,,,,0,131,5,5,2238,2298,absent_patch/patch0002238.jpg,absent_patch/patch0002298.jpg,,,,,,,,,,,,,,,,,,,,0.010185171,0.017592571,1,0,0,response1disk,29,0.006481524,0.009259259,1,0,0,center_square,0,28,28,51,1,,,,,,,,,,,,,,,,,,,,,,,
60b4f5e40273da6c883455a2,001,2022-11-21_24h07.45.962,Info_measure_main_exp,2022.2.2,Win32,59.91252771,,,,,,,,,,,,,,,,,,masks/mask_001.jpg,,,,,,,,,,,,,,,,,,,,,,,,,,,,,,,,,,,,,,,,,,,0,0,0,0,1,,,,,,,,,,,,,,,,,,,,,,,,,,,,,,,,,,,,,,,,,,,,,,
60b4f5e40273da6c883455a2,001,2022-11-21_24h07.45.962,Info_measure_main_exp,2022.2.2,Win32,59.91252771,,,,,,,,,,,,,,,,,,masks/mask_002.jpg,,,,,,,,,,,,,,,,,,,,,,,,,,,,,,,,,,,,,,,,,,,0,1,1,1,1,,,,,,,,,,,,,,,,,,,,,,,,,,,,,,,,,,,,,,,,,,,,,,
60b4f5e40273da6c883455a2,001,2022-11-21_24h07.45.962,Info_measure_main_exp,2022.2.2,Win32,59.91252771,,,,,,,,,,,,,,,,,,masks/mask_004.jpg,,,,,,,,,,,,,,,,,,,,,,,,,,,,,,,,,,,,,,,,,,,0,2,2,3,1,,,,,,,,,,,,,,,,,,,,,,,,,,,,,,,,,,,,,,,,,,,,,,
60b4f5e40273da6c883455a2,001,2022-11-21_24h07.45.962,Info_measure_main_exp,2022.2.2,Win32,59.91252771,,,,,,,,,,,,,,,,,,masks/mask_003.jpg,,,,,,,,,,,,,,,,,,,,,,,,,,,,,,,,,,,,,,,,,,,0,3,3,2,1,,,,,,,,,,,,,,,,,,,,,,,,,,,,,,,,,,,,,,,,,,,,,,
60b4f5e40273da6c883455a2,001,2022-11-21_24h07.45.962,Info_measure_main_exp,2022.2.2,Win32,59.91252771,,,,,,,,,,,,,,,,,,masks/mask_005.jpg,,,,,,,,,,,,,,,,,,,,,,,,,,,,,,,,,,,,,,,,,,,0,4,4,4,1,,,,,,,,,,,,,,,,,,,,,,,,,,,,,,,,,,,,,,,,,,,,,,
60b4f5e40273da6c883455a2,001,2022-11-21_24h07.45.962,Info_measure_main_exp,2022.2.2,Win32,59.91252771,,,,,,,,,,,,,,,,,,masks/mask_003.jpg,,,,,,,,,,,,,,,,,,,,,,,,,,,,,,,,,,,,,,,,,,,,,,,,0,0,0,2,1,,,,,,,,,,,,,,,,,,,,,,,,,,,,,,,,,,,,,,,,,
60b4f5e40273da6c883455a2,001,2022-11-21_24h07.45.962,Info_measure_main_exp,2022.2.2,Win32,59.91252771,,,,,,,,,,,,,,,,,,masks/mask_004.jpg,,,,,,,,,,,,,,,,,,,,,,,,,,,,,,,,,,,,,,,,,,,,,,,,0,1,1,3,1,,,,,,,,,,,,,,,,,,,,,,,,,,,,,,,,,,,,,,,,,
60b4f5e40273da6c883455a2,001,2022-11-21_24h07.45.962,Info_measure_main_exp,2022.2.2,Win32,59.91252771,,,,,,,,,,,,,,,,,,masks/mask_002.jpg,,,,,,,,,,,,,,,,,,,,,,,,,,,,,,,,,,,,,,,,,,,,,,,,0,2,2,1,1,,,,,,,,,,,,,,,,,,,,,,,,,,,,,,,,,,,,,,,,,
60b4f5e40273da6c883455a2,001,2022-11-21_24h07.45.962,Info_measure_main_exp,2022.2.2,Win32,59.91252771,,,,,,,,,,,,,,,,,,masks/mask_005.jpg,,,,,,,,,,,,,,,,,,,,,,,,,,,,,,,,,,,,,,,,,,,,,,,,0,3,3,4,1,,,,,,,,,,,,,,,,,,,,,,,,,,,,,,,,,,,,,,,,,
60b4f5e40273da6c883455a2,001,2022-11-21_24h07.45.962,Info_measure_main_exp,2022.2.2,Win32,59.91252771,,,,,,,,,,,,,,,,,,masks/mask_001.jpg,,,,,,,,,,,,,,,,,,,,,,,,,,,,,,,,,,,,,,,,,,,,,,,,0,4,4,0,1,,,,,,,,,,,,,,,,,,,,,,,,,,,,,,,,,,,,,,,,,
60b4f5e40273da6c883455a2,001,2022-11-21_24h07.45.962,Info_measure_main_exp,2022.2.2,Win32,59.91252771,,,,,,,,,,,,,,,,,,,,,,,,,,,,,,7,1.1032,1,,,,,,,,,,,,1,131,5,5,1,2154,present_patch/cong_131_5_a.jpg,absent_patch/patch0002154.jpg,,,,,,,,,,,,,,,,,,,,0.008333347,0.020370377,1,0,0,response1disk,30,0.00462963,0.011111118,1,0,0,center_square,0,29,29,87,1,,,,,,,,,,,,,,,,,,,,,,,
60b4f5e40273da6c883455a2,001,2022-11-21_24h07.45.962,Info_measure_main_exp,2022.2.2,Win32,59.91252771,,,,,,,,,,,,,,,,,,masks/mask_005.jpg,,,,,,,,,,,,,,,,,,,,,,,,,,,,,,,,,,,,,,,,,,,0,0,0,4,1,,,,,,,,,,,,,,,,,,,,,,,,,,,,,,,,,,,,,,,,,,,,,,
60b4f5e40273da6c883455a2,001,2022-11-21_24h07.45.962,Info_measure_main_exp,2022.2.2,Win32,59.91252771,,,,,,,,,,,,,,,,,,masks/mask_003.jpg,,,,,,,,,,,,,,,,,,,,,,,,,,,,,,,,,,,,,,,,,,,0,1,1,2,1,,,,,,,,,,,,,,,,,,,,,,,,,,,,,,,,,,,,,,,,,,,,,,
60b4f5e40273da6c883455a2,001,2022-11-21_24h07.45.962,Info_measure_main_exp,2022.2.2,Win32,59.91252771,,,,,,,,,,,,,,,,,,masks/mask_004.jpg,,,,,,,,,,,,,,,,,,,,,,,,,,,,,,,,,,,,,,,,,,,0,2,2,3,1,,,,,,,,,,,,,,,,,,,,,,,,,,,,,,,,,,,,,,,,,,,,,,
60b4f5e40273da6c883455a2,001,2022-11-21_24h07.45.962,Info_measure_main_exp,2022.2.2,Win32,59.91252771,,,,,,,,,,,,,,,,,,masks/mask_002.jpg,,,,,,,,,,,,,,,,,,,,,,,,,,,,,,,,,,,,,,,,,,,0,3,3,1,1,,,,,,,,,,,,,,,,,,,,,,,,,,,,,,,,,,,,,,,,,,,,,,
60b4f5e40273da6c883455a2,001,2022-11-21_24h07.45.962,Info_measure_main_exp,2022.2.2,Win32,59.91252771,,,,,,,,,,,,,,,,,,masks/mask_001.jpg,,,,,,,,,,,,,,,,,,,,,,,,,,,,,,,,,,,,,,,,,,,0,4,4,0,1,,,,,,,,,,,,,,,,,,,,,,,,,,,,,,,,,,,,,,,,,,,,,,
60b4f5e40273da6c883455a2,001,2022-11-21_24h07.45.962,Info_measure_main_exp,2022.2.2,Win32,59.91252771,,,,,,,,,,,,,,,,,,masks/mask_002.jpg,,,,,,,,,,,,,,,,,,,,,,,,,,,,,,,,,,,,,,,,,,,,,,,,0,0,0,1,1,,,,,,,,,,,,,,,,,,,,,,,,,,,,,,,,,,,,,,,,,
60b4f5e40273da6c883455a2,001,2022-11-21_24h07.45.962,Info_measure_main_exp,2022.2.2,Win32,59.91252771,,,,,,,,,,,,,,,,,,masks/mask_003.jpg,,,,,,,,,,,,,,,,,,,,,,,,,,,,,,,,,,,,,,,,,,,,,,,,0,1,1,2,1,,,,,,,,,,,,,,,,,,,,,,,,,,,,,,,,,,,,,,,,,
60b4f5e40273da6c883455a2,001,2022-11-21_24h07.45.962,Info_measure_main_exp,2022.2.2,Win32,59.91252771,,,,,,,,,,,,,,,,,,masks/mask_004.jpg,,,,,,,,,,,,,,,,,,,,,,,,,,,,,,,,,,,,,,,,,,,,,,,,0,2,2,3,1,,,,,,,,,,,,,,,,,,,,,,,,,,,,,,,,,,,,,,,,,
60b4f5e40273da6c883455a2,001,2022-11-21_24h07.45.962,Info_measure_main_exp,2022.2.2,Win32,59.91252771,,,,,,,,,,,,,,,,,,masks/mask_001.jpg,,,,,,,,,,,,,,,,,,,,,,,,,,,,,,,,,,,,,,,,,,,,,,,,0,3,3,0,1,,,,,,,,,,,,,,,,,,,,,,,,,,,,,,,,,,,,,,,,,
60b4f5e40273da6c883455a2,001,2022-11-21_24h07.45.962,Info_measure_main_exp,2022.2.2,Win32,59.91252771,,,,,,,,,,,,,,,,,,masks/mask_005.jpg,,,,,,,,,,,,,,,,,,,,,,,,,,,,,,,,,,,,,,,,,,,,,,,,0,4,4,4,1,,,,,,,,,,,,,,,,,,,,,,,,,,,,,,,,,,,,,,,,,
60b4f5e40273da6c883455a2,001,2022-11-21_24h07.45.962,Info_measure_main_exp,2022.2.2,Win32,59.91252771,,,,,,,,,,,,,,,,,,,,,,,,,,,,,,7,0.45,1,,,,,,,,,,,,0,131,5,5,2166,2298,absent_patch/patch0002166.jpg,absent_patch/patch0002298.jpg,,,,,,,,,,,,,,,,,,,,0.008333347,0.026851831,1,0,0,response1disk,31,0.003703718,0.009259259,1,0,0,center_square,0,30,30,52,1,,,,,,,,,,,,,,,,,,,,,,,
60b4f5e40273da6c883455a2,001,2022-11-21_24h07.45.962,Info_measure_main_exp,2022.2.2,Win32,59.91252771,,,,,,,,,,,,,,,,,,masks/mask_003.jpg,,,,,,,,,,,,,,,,,,,,,,,,,,,,,,,,,,,,,,,,,,,0,0,0,2,1,,,,,,,,,,,,,,,,,,,,,,,,,,,,,,,,,,,,,,,,,,,,,,
60b4f5e40273da6c883455a2,001,2022-11-21_24h07.45.962,Info_measure_main_exp,2022.2.2,Win32,59.91252771,,,,,,,,,,,,,,,,,,masks/mask_001.jpg,,,,,,,,,,,,,,,,,,,,,,,,,,,,,,,,,,,,,,,,,,,0,1,1,0,1,,,,,,,,,,,,,,,,,,,,,,,,,,,,,,,,,,,,,,,,,,,,,,
60b4f5e40273da6c883455a2,001,2022-11-21_24h07.45.962,Info_measure_main_exp,2022.2.2,Win32,59.91252771,,,,,,,,,,,,,,,,,,masks/mask_004.jpg,,,,,,,,,,,,,,,,,,,,,,,,,,,,,,,,,,,,,,,,,,,0,2,2,3,1,,,,,,,,,,,,,,,,,,,,,,,,,,,,,,,,,,,,,,,,,,,,,,
60b4f5e40273da6c883455a2,001,2022-11-21_24h07.45.962,Info_measure_main_exp,2022.2.2,Win32,59.91252771,,,,,,,,,,,,,,,,,,masks/mask_005.jpg,,,,,,,,,,,,,,,,,,,,,,,,,,,,,,,,,,,,,,,,,,,0,3,3,4,1,,,,,,,,,,,,,,,,,,,,,,,,,,,,,,,,,,,,,,,,,,,,,,
60b4f5e40273da6c883455a2,001,2022-11-21_24h07.45.962,Info_measure_main_exp,2022.2.2,Win32,59.91252771,,,,,,,,,,,,,,,,,,masks/mask_002.jpg,,,,,,,,,,,,,,,,,,,,,,,,,,,,,,,,,,,,,,,,,,,0,4,4,1,1,,,,,,,,,,,,,,,,,,,,,,,,,,,,,,,,,,,,,,,,,,,,,,
60b4f5e40273da6c883455a2,001,2022-11-21_24h07.45.962,Info_measure_main_exp,2022.2.2,Win32,59.91252771,,,,,,,,,,,,,,,,,,masks/mask_001.jpg,,,,,,,,,,,,,,,,,,,,,,,,,,,,,,,,,,,,,,,,,,,,,,,,0,0,0,0,1,,,,,,,,,,,,,,,,,,,,,,,,,,,,,,,,,,,,,,,,,
60b4f5e40273da6c883455a2,001,2022-11-21_24h07.45.962,Info_measure_main_exp,2022.2.2,Win32,59.91252771,,,,,,,,,,,,,,,,,,masks/mask_003.jpg,,,,,,,,,,,,,,,,,,,,,,,,,,,,,,,,,,,,,,,,,,,,,,,,0,1,1,2,1,,,,,,,,,,,,,,,,,,,,,,,,,,,,,,,,,,,,,,,,,
60b4f5e40273da6c883455a2,001,2022-11-21_24h07.45.962,Info_measure_main_exp,2022.2.2,Win32,59.91252771,,,,,,,,,,,,,,,,,,masks/mask_002.jpg,,,,,,,,,,,,,,,,,,,,,,,,,,,,,,,,,,,,,,,,,,,,,,,,0,2,2,1,1,,,,,,,,,,,,,,,,,,,,,,,,,,,,,,,,,,,,,,,,,
60b4f5e40273da6c883455a2,001,2022-11-21_24h07.45.962,Info_measure_main_exp,2022.2.2,Win32,59.91252771,,,,,,,,,,,,,,,,,,masks/mask_004.jpg,,,,,,,,,,,,,,,,,,,,,,,,,,,,,,,,,,,,,,,,,,,,,,,,0,3,3,3,1,,,,,,,,,,,,,,,,,,,,,,,,,,,,,,,,,,,,,,,,,
60b4f5e40273da6c883455a2,001,2022-11-21_24h07.45.962,Info_measure_main_exp,2022.2.2,Win32,59.91252771,,,,,,,,,,,,,,,,,,masks/mask_005.jpg,,,,,,,,,,,,,,,,,,,,,,,,,,,,,,,,,,,,,,,,,,,,,,,,0,4,4,4,1,,,,,,,,,,,,,,,,,,,,,,,,,,,,,,,,,,,,,,,,,
60b4f5e40273da6c883455a2,001,2022-11-21_24h07.45.962,Info_measure_main_exp,2022.2.2,Win32,59.91252771,,,,,,,,,,,,,,,,,,,,,,,,,,,,,,7,0.4495,1,,,,,,,,,,,,0,131,5,5,2142,2082,absent_patch/patch0002142.jpg,absent_patch/patch0002082.jpg,,,,,,,,,,,,,,,,,,,,0.010185171,0.027777778,1,0,0,response1disk,32,-0.000925912,0.001851859,1,0,0,center_square,0,31,31,88,1,,,,,,,,,,,,,,,,,,,,,,,
