participant,session,date,expName,psychopyVersion,OS,frameRate,space_press_continue.keys,space_press_continue.rt,space_press_continue_2.keys,space_press_continue_2.rt,space_press_continue_3.keys,space_press_continue_3.rt,space_press_continue_4.keys,space_press_continue_4.rt,space_press_continue_5.keys,space_press_continue_5.rt,space_press_continue_6.keys,space_press_continue_6.rt,prac_mask_loop_1.thisRepN,prac_mask_loop_1.thisTrialN,prac_mask_loop_1.thisN,prac_mask_loop_1.thisIndex,prac_mask_loop_1.ran,mask_name,prac_mask_loop_2.thisRepN,prac_mask_loop_2.thisTrialN,prac_mask_loop_2.thisN,prac_mask_loop_2.thisIndex,prac_mask_loop_2.ran,mouse_2.x,mouse_2.y,mouse_2.leftButton,mouse_2.midButton,mouse_2.rightButton,mouse_2.clicked_name,similarity,response_time,Pass,mouse_12.x,mouse_12.y,mouse_12.leftButton,mouse_12.midButton,mouse_12.rightButton,mouse_12.clicked_name,prac_loop.thisRepN,prac_loop.thisTrialN,prac_loop.thisN,prac_loop.thisIndex,prac_loop.ran,Pair_type,Image_num,Patch_1_loc,Patch_2_loc,Patch_1_info,Patch_2_info,Patch_1_name,Patch_2_name,mouse_1.x,mouse_1.y,mouse_1.leftButton,mouse_1.midButton,mouse_1.rightButton,mouse_1.time,mouse_1.clicked_name,space_press_continue_7.keys,space_press_continue_7.rt,mask_loop.thisRepN,mask_loop.thisTrialN,mask_loop.thisN,mask_loop.thisIndex,mask_loop.ran,mask_loop_2.thisRepN,mask_loop_2.thisTrialN,mask_loop_2.thisN,mask_loop_2.thisIndex,mask_loop_2.ran,mouse.x,mouse.y,mouse.leftButton,mouse.midButton,mouse.rightButton,mouse.clicked_name,trialNumber,mouse_11.x,mouse_11.y,mouse_11.leftButton,mouse_11.midButton,mouse_11.rightButton,mouse_11.clicked_name,first_pass_loop.thisRepN,first_pass_loop.thisTrialN,first_pass_loop.thisN,first_pass_loop.thisIndex,first_pass_loop.ran,mask_loop_3.thisRepN,mask_loop_3.thisTrialN,mask_loop_3.thisN,mask_loop_3.thisIndex,mask_loop_3.ran,mask_loop_4.thisRepN,mask_loop_4.thisTrialN,mask_loop_4.thisN,mask_loop_4.thisIndex,mask_loop_4.ran,mouse_3.x,mouse_3.y,mouse_3.leftButton,mouse_3.midButton,mouse_3.rightButton,mouse_3.clicked_name,double_pass_loop.thisRepN,double_pass_loop.thisTrialN,double_pass_loop.thisN,double_pass_loop.thisIndex,double_pass_loop.ran,space_exit.keys,space_exit.rt
610727,001,2022-11-21_01h55.02.938,Info_measure_main_exp,2022.2.2,Win32,164.8261085,,,,,,,,,,,,,,,,,,,,,,,,,,,,,,,,,,,,,,,,,,,,,,,,,,,,,,,,,,,,,,,,,,,,,,,,,,,,,,,,,,,,,,,,,,,,,,,,,,,,,,,,,,,,,,,
610727,001,2022-11-21_01h55.02.938,Info_measure_main_exp,2022.2.2,Win32,164.8261085,,,,,,,,,,,,,,,,,,,,,,,,,,,,,,,,,,,,,,,,,,,,,,,,,,,,,,,,,,,,,,,,,,,,,,,,,,,,,,,,,,,,,,,,,,,,,,,,,,,,,,,,,,,,,,,
610727,001,2022-11-21_01h55.02.938,Info_measure_main_exp,2022.2.2,Win32,164.8261085,space,7.1243,,,,,,,,,,,,,,,,,,,,,,,,,,,,,,,,,,,,,,,,,,,,,,,,,,,,,,,,,,,,,,,,,,,,,,,,,,,,,,,,,,,,,,,,,,,,,,,,,,,,,,,,,,,,,
610727,001,2022-11-21_01h55.02.938,Info_measure_main_exp,2022.2.2,Win32,164.8261085,,,space,76.5154,,,,,,,,,,,,,,,,,,,,,,,,,,,,,,,,,,,,,,,,,,,,,,,,,,,,,,,,,,,,,,,,,,,,,,,,,,,,,,,,,,,,,,,,,,,,,,,,,,,,,,,,,,,
610727,001,2022-11-21_01h55.02.938,Info_measure_main_exp,2022.2.2,Win32,164.8261085,,,,,space,11.2054,,,,,,,,,,,,,,,,,,,,,,,,,,,,,,,,,,,,,,,,,,,,,,,,,,,,,,,,,,,,,,,,,,,,,,,,,,,,,,,,,,,,,,,,,,,,,,,,,,,,,,,,,
610727,001,2022-11-21_01h55.02.938,Info_measure_main_exp,2022.2.2,Win32,164.8261085,,,,,,,space,16.885,,,,,,,,,,,,,,,,,,,,,,,,,,,,,,,,,,,,,,,,,,,,,,,,,,,,,,,,,,,,,,,,,,,,,,,,,,,,,,,,,,,,,,,,,,,,,,,,,,,,,,,
610727,001,2022-11-21_01h55.02.938,Info_measure_main_exp,2022.2.2,Win32,164.8261085,,,,,,,,,space,8.2178,,,,,,,,,,,,,,,,,,,,,,,,,,,,,,,,,,,,,,,,,,,,,,,,,,,,,,,,,,,,,,,,,,,,,,,,,,,,,,,,,,,,,,,,,,,,,,,,,,,,,
610727,001,2022-11-21_01h55.02.938,Info_measure_main_exp,2022.2.2,Win32,164.8261085,,,,,,,,,,,space,5.043,,,,,,,,,,,,,,,,,,,,,,,,,,,,,,,,,,,,,,,,,,,,,,,,,,,,,,,,,,,,,,,,,,,,,,,,,,,,,,,,,,,,,,,,,,,,,,,,,,,
610727,001,2022-11-21_01h55.02.938,Info_measure_main_exp,2022.2.2,Win32,164.8261085,,,,,,,,,,,,,0,0,0,4,1,masks/mask_005.jpg,,,,,,,,,,,,,,,,,,,,,,,,,,,,,,,,,,,,,,,,,,,,,,,,,,,,,,,,,,,,,,,,,,,,,,,,,,,,,,,,,,,,,,,,,,,,,
610727,001,2022-11-21_01h55.02.938,Info_measure_main_exp,2022.2.2,Win32,164.8261085,,,,,,,,,,,,,0,1,1,2,1,masks/mask_003.jpg,,,,,,,,,,,,,,,,,,,,,,,,,,,,,,,,,,,,,,,,,,,,,,,,,,,,,,,,,,,,,,,,,,,,,,,,,,,,,,,,,,,,,,,,,,,,,
610727,001,2022-11-21_01h55.02.938,Info_measure_main_exp,2022.2.2,Win32,164.8261085,,,,,,,,,,,,,0,2,2,1,1,masks/mask_002.jpg,,,,,,,,,,,,,,,,,,,,,,,,,,,,,,,,,,,,,,,,,,,,,,,,,,,,,,,,,,,,,,,,,,,,,,,,,,,,,,,,,,,,,,,,,,,,,
610727,001,2022-11-21_01h55.02.938,Info_measure_main_exp,2022.2.2,Win32,164.8261085,,,,,,,,,,,,,0,3,3,0,1,masks/mask_001.jpg,,,,,,,,,,,,,,,,,,,,,,,,,,,,,,,,,,,,,,,,,,,,,,,,,,,,,,,,,,,,,,,,,,,,,,,,,,,,,,,,,,,,,,,,,,,,,
610727,001,2022-11-21_01h55.02.938,Info_measure_main_exp,2022.2.2,Win32,164.8261085,,,,,,,,,,,,,0,4,4,3,1,masks/mask_004.jpg,,,,,,,,,,,,,,,,,,,,,,,,,,,,,,,,,,,,,,,,,,,,,,,,,,,,,,,,,,,,,,,,,,,,,,,,,,,,,,,,,,,,,,,,,,,,,
610727,001,2022-11-21_01h55.02.938,Info_measure_main_exp,2022.2.2,Win32,164.8261085,,,,,,,,,,,,,,,,,,masks/mask_004.jpg,0,0,0,3,1,,,,,,,,,,,,,,,,,,,,,,,,,,,,,,,,,,,,,,,,,,,,,,,,,,,,,,,,,,,,,,,,,,,,,,,,,,,,,,,,,,,,,,,,
610727,001,2022-11-21_01h55.02.938,Info_measure_main_exp,2022.2.2,Win32,164.8261085,,,,,,,,,,,,,,,,,,masks/mask_003.jpg,0,1,1,2,1,,,,,,,,,,,,,,,,,,,,,,,,,,,,,,,,,,,,,,,,,,,,,,,,,,,,,,,,,,,,,,,,,,,,,,,,,,,,,,,,,,,,,,,,
610727,001,2022-11-21_01h55.02.938,Info_measure_main_exp,2022.2.2,Win32,164.8261085,,,,,,,,,,,,,,,,,,masks/mask_001.jpg,0,2,2,0,1,,,,,,,,,,,,,,,,,,,,,,,,,,,,,,,,,,,,,,,,,,,,,,,,,,,,,,,,,,,,,,,,,,,,,,,,,,,,,,,,,,,,,,,,
610727,001,2022-11-21_01h55.02.938,Info_measure_main_exp,2022.2.2,Win32,164.8261085,,,,,,,,,,,,,,,,,,masks/mask_002.jpg,0,3,3,1,1,,,,,,,,,,,,,,,,,,,,,,,,,,,,,,,,,,,,,,,,,,,,,,,,,,,,,,,,,,,,,,,,,,,,,,,,,,,,,,,,,,,,,,,,
610727,001,2022-11-21_01h55.02.938,Info_measure_main_exp,2022.2.2,Win32,164.8261085,,,,,,,,,,,,,,,,,,masks/mask_005.jpg,0,4,4,4,1,,,,,,,,,,,,,,,,,,,,,,,,,,,,,,,,,,,,,,,,,,,,,,,,,,,,,,,,,,,,,,,,,,,,,,,,,,,,,,,,,,,,,,,,
610727,001,2022-11-21_01h55.02.938,Info_measure_main_exp,2022.2.2,Win32,164.8261085,,,,,,,,,,,,,,,,,,,,,,,,0.038888931,0.106944429,1,0,0,response1disk,7,129.5921,1,0.002083355,-0.006250011,1,0,0,center_square,0,0,0,1,1,0,131,5,5,2514,2490,prac_patch/patch0002514.jpg,prac_patch/patch0002490.jpg,,,,,,,,,,,,,,,,,,,,,,,,,,,,,,,,,,,,,,,,,,,,,,,,,,,,,,,,,,,,
610727,001,2022-11-21_01h55.02.938,Info_measure_main_exp,2022.2.2,Win32,164.8261085,,,,,,,,,,,,,0,0,0,1,1,masks/mask_002.jpg,,,,,,,,,,,,,,,,,,,,,,,,,,,,,,,,,,,,,,,,,,,,,,,,,,,,,,,,,,,,,,,,,,,,,,,,,,,,,,,,,,,,,,,,,,,,,
610727,001,2022-11-21_01h55.02.938,Info_measure_main_exp,2022.2.2,Win32,164.8261085,,,,,,,,,,,,,0,1,1,4,1,masks/mask_005.jpg,,,,,,,,,,,,,,,,,,,,,,,,,,,,,,,,,,,,,,,,,,,,,,,,,,,,,,,,,,,,,,,,,,,,,,,,,,,,,,,,,,,,,,,,,,,,,
610727,001,2022-11-21_01h55.02.938,Info_measure_main_exp,2022.2.2,Win32,164.8261085,,,,,,,,,,,,,0,2,2,2,1,masks/mask_003.jpg,,,,,,,,,,,,,,,,,,,,,,,,,,,,,,,,,,,,,,,,,,,,,,,,,,,,,,,,,,,,,,,,,,,,,,,,,,,,,,,,,,,,,,,,,,,,,
610727,001,2022-11-21_01h55.02.938,Info_measure_main_exp,2022.2.2,Win32,164.8261085,,,,,,,,,,,,,0,3,3,3,1,masks/mask_004.jpg,,,,,,,,,,,,,,,,,,,,,,,,,,,,,,,,,,,,,,,,,,,,,,,,,,,,,,,,,,,,,,,,,,,,,,,,,,,,,,,,,,,,,,,,,,,,,
610727,001,2022-11-21_01h55.02.938,Info_measure_main_exp,2022.2.2,Win32,164.8261085,,,,,,,,,,,,,0,4,4,0,1,masks/mask_001.jpg,,,,,,,,,,,,,,,,,,,,,,,,,,,,,,,,,,,,,,,,,,,,,,,,,,,,,,,,,,,,,,,,,,,,,,,,,,,,,,,,,,,,,,,,,,,,,
610727,001,2022-11-21_01h55.02.938,Info_measure_main_exp,2022.2.2,Win32,164.8261085,,,,,,,,,,,,,,,,,,masks/mask_001.jpg,0,0,0,0,1,,,,,,,,,,,,,,,,,,,,,,,,,,,,,,,,,,,,,,,,,,,,,,,,,,,,,,,,,,,,,,,,,,,,,,,,,,,,,,,,,,,,,,,,
610727,001,2022-11-21_01h55.02.938,Info_measure_main_exp,2022.2.2,Win32,164.8261085,,,,,,,,,,,,,,,,,,masks/mask_003.jpg,0,1,1,2,1,,,,,,,,,,,,,,,,,,,,,,,,,,,,,,,,,,,,,,,,,,,,,,,,,,,,,,,,,,,,,,,,,,,,,,,,,,,,,,,,,,,,,,,,
610727,001,2022-11-21_01h55.02.938,Info_measure_main_exp,2022.2.2,Win32,164.8261085,,,,,,,,,,,,,,,,,,masks/mask_002.jpg,0,2,2,1,1,,,,,,,,,,,,,,,,,,,,,,,,,,,,,,,,,,,,,,,,,,,,,,,,,,,,,,,,,,,,,,,,,,,,,,,,,,,,,,,,,,,,,,,,
610727,001,2022-11-21_01h55.02.938,Info_measure_main_exp,2022.2.2,Win32,164.8261085,,,,,,,,,,,,,,,,,,masks/mask_004.jpg,0,3,3,3,1,,,,,,,,,,,,,,,,,,,,,,,,,,,,,,,,,,,,,,,,,,,,,,,,,,,,,,,,,,,,,,,,,,,,,,,,,,,,,,,,,,,,,,,,
610727,001,2022-11-21_01h55.02.938,Info_measure_main_exp,2022.2.2,Win32,164.8261085,,,,,,,,,,,,,,,,,,masks/mask_005.jpg,0,4,4,4,1,,,,,,,,,,,,,,,,,,,,,,,,,,,,,,,,,,,,,,,,,,,,,,,,,,,,,,,,,,,,,,,,,,,,,,,,,,,,,,,,,,,,,,,,
610727,001,2022-11-21_01h55.02.938,Info_measure_main_exp,2022.2.2,Win32,164.8261085,,,,,,,,,,,,,,,,,,,,,,,,0.115972201,0.066666656,1,0,0,response1disk,6,142.0165,1,0.002083355,-0.002777788,1,0,0,center_square,0,1,1,0,1,0,131,5,5,2370,2406,prac_patch/patch0002370.jpg,prac_patch/patch0002406.jpg,,,,,,,,,,,,,,,,,,,,,,,,,,,,,,,,,,,,,,,,,,,,,,,,,,,,,,,,,,,,
610727,001,2022-11-21_01h55.02.938,Info_measure_main_exp,2022.2.2,Win32,164.8261085,,,,,,,,,,,,,0,0,0,0,1,masks/mask_001.jpg,,,,,,,,,,,,,,,,,,,,,,,,,,,,,,,,,,,,,,,,,,,,,,,,,,,,,,,,,,,,,,,,,,,,,,,,,,,,,,,,,,,,,,,,,,,,,
610727,001,2022-11-21_01h55.02.938,Info_measure_main_exp,2022.2.2,Win32,164.8261085,,,,,,,,,,,,,0,1,1,3,1,masks/mask_004.jpg,,,,,,,,,,,,,,,,,,,,,,,,,,,,,,,,,,,,,,,,,,,,,,,,,,,,,,,,,,,,,,,,,,,,,,,,,,,,,,,,,,,,,,,,,,,,,
610727,001,2022-11-21_01h55.02.938,Info_measure_main_exp,2022.2.2,Win32,164.8261085,,,,,,,,,,,,,0,2,2,1,1,masks/mask_002.jpg,,,,,,,,,,,,,,,,,,,,,,,,,,,,,,,,,,,,,,,,,,,,,,,,,,,,,,,,,,,,,,,,,,,,,,,,,,,,,,,,,,,,,,,,,,,,,
610727,001,2022-11-21_01h55.02.938,Info_measure_main_exp,2022.2.2,Win32,164.8261085,,,,,,,,,,,,,0,3,3,2,1,masks/mask_003.jpg,,,,,,,,,,,,,,,,,,,,,,,,,,,,,,,,,,,,,,,,,,,,,,,,,,,,,,,,,,,,,,,,,,,,,,,,,,,,,,,,,,,,,,,,,,,,,
610727,001,2022-11-21_01h55.02.938,Info_measure_main_exp,2022.2.2,Win32,164.8261085,,,,,,,,,,,,,0,4,4,4,1,masks/mask_005.jpg,,,,,,,,,,,,,,,,,,,,,,,,,,,,,,,,,,,,,,,,,,,,,,,,,,,,,,,,,,,,,,,,,,,,,,,,,,,,,,,,,,,,,,,,,,,,,
610727,001,2022-11-21_01h55.02.938,Info_measure_main_exp,2022.2.2,Win32,164.8261085,,,,,,,,,,,,,,,,,,masks/mask_005.jpg,0,0,0,4,1,,,,,,,,,,,,,,,,,,,,,,,,,,,,,,,,,,,,,,,,,,,,,,,,,,,,,,,,,,,,,,,,,,,,,,,,,,,,,,,,,,,,,,,,
610727,001,2022-11-21_01h55.02.938,Info_measure_main_exp,2022.2.2,Win32,164.8261085,,,,,,,,,,,,,,,,,,masks/mask_002.jpg,0,1,1,1,1,,,,,,,,,,,,,,,,,,,,,,,,,,,,,,,,,,,,,,,,,,,,,,,,,,,,,,,,,,,,,,,,,,,,,,,,,,,,,,,,,,,,,,,,
610727,001,2022-11-21_01h55.02.938,Info_measure_main_exp,2022.2.2,Win32,164.8261085,,,,,,,,,,,,,,,,,,masks/mask_004.jpg,0,2,2,3,1,,,,,,,,,,,,,,,,,,,,,,,,,,,,,,,,,,,,,,,,,,,,,,,,,,,,,,,,,,,,,,,,,,,,,,,,,,,,,,,,,,,,,,,,
610727,001,2022-11-21_01h55.02.938,Info_measure_main_exp,2022.2.2,Win32,164.8261085,,,,,,,,,,,,,,,,,,masks/mask_001.jpg,0,3,3,0,1,,,,,,,,,,,,,,,,,,,,,,,,,,,,,,,,,,,,,,,,,,,,,,,,,,,,,,,,,,,,,,,,,,,,,,,,,,,,,,,,,,,,,,,,
610727,001,2022-11-21_01h55.02.938,Info_measure_main_exp,2022.2.2,Win32,164.8261085,,,,,,,,,,,,,,,,,,masks/mask_003.jpg,0,4,4,2,1,,,,,,,,,,,,,,,,,,,,,,,,,,,,,,,,,,,,,,,,,,,,,,,,,,,,,,,,,,,,,,,,,,,,,,,,,,,,,,,,,,,,,,,,
610727,001,2022-11-21_01h55.02.938,Info_measure_main_exp,2022.2.2,Win32,164.8261085,,,,,,,,,,,,,,,,,,,,,,,,-0.059027778,0.113888873,1,0,0,response7disk,0,155.1557,1,0.007638931,-0.007638878,1,0,0,center_square,0,2,2,2,1,0,131,5,5,2526,2526,prac_patch/patch0002526.jpg,prac_patch/patch0002526.jpg,,,,,,,,,,,,,,,,,,,,,,,,,,,,,,,,,,,,,,,,,,,,,,,,,,,,,,,,,,,,
610727,001,2022-11-21_01h55.02.938,Info_measure_main_exp,2022.2.2,Win32,164.8261085,,,,,,,,,,,,,,,,,,,,,,,,,,,,,,,,,,,,,,,,,,,,,,,,,,,,,,,,,,,space,7.3095,,,,,,,,,,,,,,,,,,,,,,,,,,,,,,,,,,,,,,,,,,,,,,,,,,,
610727,001,2022-11-21_01h55.02.938,Info_measure_main_exp,2022.2.2,Win32,164.8261085,,,,,,,,,,,,,,,,,,masks/mask_003.jpg,,,,,,,,,,,,,,,,,,,,,,,,,,,,,,,,,,,,,,,,,,,0,0,0,2,1,,,,,,,,,,,,,,,,,,,,,,,,,,,,,,,,,,,,,,,,,,,,,,
610727,001,2022-11-21_01h55.02.938,Info_measure_main_exp,2022.2.2,Win32,164.8261085,,,,,,,,,,,,,,,,,,masks/mask_002.jpg,,,,,,,,,,,,,,,,,,,,,,,,,,,,,,,,,,,,,,,,,,,0,1,1,1,1,,,,,,,,,,,,,,,,,,,,,,,,,,,,,,,,,,,,,,,,,,,,,,
610727,001,2022-11-21_01h55.02.938,Info_measure_main_exp,2022.2.2,Win32,164.8261085,,,,,,,,,,,,,,,,,,masks/mask_005.jpg,,,,,,,,,,,,,,,,,,,,,,,,,,,,,,,,,,,,,,,,,,,0,2,2,4,1,,,,,,,,,,,,,,,,,,,,,,,,,,,,,,,,,,,,,,,,,,,,,,
610727,001,2022-11-21_01h55.02.938,Info_measure_main_exp,2022.2.2,Win32,164.8261085,,,,,,,,,,,,,,,,,,masks/mask_001.jpg,,,,,,,,,,,,,,,,,,,,,,,,,,,,,,,,,,,,,,,,,,,0,3,3,0,1,,,,,,,,,,,,,,,,,,,,,,,,,,,,,,,,,,,,,,,,,,,,,,
610727,001,2022-11-21_01h55.02.938,Info_measure_main_exp,2022.2.2,Win32,164.8261085,,,,,,,,,,,,,,,,,,masks/mask_004.jpg,,,,,,,,,,,,,,,,,,,,,,,,,,,,,,,,,,,,,,,,,,,0,4,4,3,1,,,,,,,,,,,,,,,,,,,,,,,,,,,,,,,,,,,,,,,,,,,,,,
610727,001,2022-11-21_01h55.02.938,Info_measure_main_exp,2022.2.2,Win32,164.8261085,,,,,,,,,,,,,,,,,,masks/mask_003.jpg,,,,,,,,,,,,,,,,,,,,,,,,,,,,,,,,,,,,,,,,,,,,,,,,0,0,0,2,1,,,,,,,,,,,,,,,,,,,,,,,,,,,,,,,,,,,,,,,,,
610727,001,2022-11-21_01h55.02.938,Info_measure_main_exp,2022.2.2,Win32,164.8261085,,,,,,,,,,,,,,,,,,masks/mask_004.jpg,,,,,,,,,,,,,,,,,,,,,,,,,,,,,,,,,,,,,,,,,,,,,,,,0,1,1,3,1,,,,,,,,,,,,,,,,,,,,,,,,,,,,,,,,,,,,,,,,,
610727,001,2022-11-21_01h55.02.938,Info_measure_main_exp,2022.2.2,Win32,164.8261085,,,,,,,,,,,,,,,,,,masks/mask_005.jpg,,,,,,,,,,,,,,,,,,,,,,,,,,,,,,,,,,,,,,,,,,,,,,,,0,2,2,4,1,,,,,,,,,,,,,,,,,,,,,,,,,,,,,,,,,,,,,,,,,
610727,001,2022-11-21_01h55.02.938,Info_measure_main_exp,2022.2.2,Win32,164.8261085,,,,,,,,,,,,,,,,,,masks/mask_002.jpg,,,,,,,,,,,,,,,,,,,,,,,,,,,,,,,,,,,,,,,,,,,,,,,,0,3,3,1,1,,,,,,,,,,,,,,,,,,,,,,,,,,,,,,,,,,,,,,,,,
610727,001,2022-11-21_01h55.02.938,Info_measure_main_exp,2022.2.2,Win32,164.8261085,,,,,,,,,,,,,,,,,,masks/mask_001.jpg,,,,,,,,,,,,,,,,,,,,,,,,,,,,,,,,,,,,,,,,,,,,,,,,0,4,4,0,1,,,,,,,,,,,,,,,,,,,,,,,,,,,,,,,,,,,,,,,,,
610727,001,2022-11-21_01h55.02.938,Info_measure_main_exp,2022.2.2,Win32,164.8261085,,,,,,,,,,,,,,,,,,,,,,,,,,,,,,7,2.1745,1,,,,,,,,,,,,1,131,5,5,1,2166,present_patch/cong_131_5_a.jpg,absent_patch/patch0002166.jpg,,,,,,,,,,,,,,,,,,,,0.0625,0.122916672,1,0,0,response1disk,1,0.001388868,0.000694434,1,0,0,center_square,0,0,0,54,1,,,,,,,,,,,,,,,,,,,,,,,
610727,001,2022-11-21_01h55.02.938,Info_measure_main_exp,2022.2.2,Win32,164.8261085,,,,,,,,,,,,,,,,,,masks/mask_004.jpg,,,,,,,,,,,,,,,,,,,,,,,,,,,,,,,,,,,,,,,,,,,0,0,0,3,1,,,,,,,,,,,,,,,,,,,,,,,,,,,,,,,,,,,,,,,,,,,,,,
610727,001,2022-11-21_01h55.02.938,Info_measure_main_exp,2022.2.2,Win32,164.8261085,,,,,,,,,,,,,,,,,,masks/mask_003.jpg,,,,,,,,,,,,,,,,,,,,,,,,,,,,,,,,,,,,,,,,,,,0,1,1,2,1,,,,,,,,,,,,,,,,,,,,,,,,,,,,,,,,,,,,,,,,,,,,,,
610727,001,2022-11-21_01h55.02.938,Info_measure_main_exp,2022.2.2,Win32,164.8261085,,,,,,,,,,,,,,,,,,masks/mask_005.jpg,,,,,,,,,,,,,,,,,,,,,,,,,,,,,,,,,,,,,,,,,,,0,2,2,4,1,,,,,,,,,,,,,,,,,,,,,,,,,,,,,,,,,,,,,,,,,,,,,,
610727,001,2022-11-21_01h55.02.938,Info_measure_main_exp,2022.2.2,Win32,164.8261085,,,,,,,,,,,,,,,,,,masks/mask_001.jpg,,,,,,,,,,,,,,,,,,,,,,,,,,,,,,,,,,,,,,,,,,,0,3,3,0,1,,,,,,,,,,,,,,,,,,,,,,,,,,,,,,,,,,,,,,,,,,,,,,
610727,001,2022-11-21_01h55.02.938,Info_measure_main_exp,2022.2.2,Win32,164.8261085,,,,,,,,,,,,,,,,,,masks/mask_002.jpg,,,,,,,,,,,,,,,,,,,,,,,,,,,,,,,,,,,,,,,,,,,0,4,4,1,1,,,,,,,,,,,,,,,,,,,,,,,,,,,,,,,,,,,,,,,,,,,,,,
610727,001,2022-11-21_01h55.02.938,Info_measure_main_exp,2022.2.2,Win32,164.8261085,,,,,,,,,,,,,,,,,,masks/mask_001.jpg,,,,,,,,,,,,,,,,,,,,,,,,,,,,,,,,,,,,,,,,,,,,,,,,0,0,0,0,1,,,,,,,,,,,,,,,,,,,,,,,,,,,,,,,,,,,,,,,,,
610727,001,2022-11-21_01h55.02.938,Info_measure_main_exp,2022.2.2,Win32,164.8261085,,,,,,,,,,,,,,,,,,masks/mask_005.jpg,,,,,,,,,,,,,,,,,,,,,,,,,,,,,,,,,,,,,,,,,,,,,,,,0,1,1,4,1,,,,,,,,,,,,,,,,,,,,,,,,,,,,,,,,,,,,,,,,,
610727,001,2022-11-21_01h55.02.938,Info_measure_main_exp,2022.2.2,Win32,164.8261085,,,,,,,,,,,,,,,,,,masks/mask_004.jpg,,,,,,,,,,,,,,,,,,,,,,,,,,,,,,,,,,,,,,,,,,,,,,,,0,2,2,3,1,,,,,,,,,,,,,,,,,,,,,,,,,,,,,,,,,,,,,,,,,
610727,001,2022-11-21_01h55.02.938,Info_measure_main_exp,2022.2.2,Win32,164.8261085,,,,,,,,,,,,,,,,,,masks/mask_003.jpg,,,,,,,,,,,,,,,,,,,,,,,,,,,,,,,,,,,,,,,,,,,,,,,,0,3,3,2,1,,,,,,,,,,,,,,,,,,,,,,,,,,,,,,,,,,,,,,,,,
610727,001,2022-11-21_01h55.02.938,Info_measure_main_exp,2022.2.2,Win32,164.8261085,,,,,,,,,,,,,,,,,,masks/mask_002.jpg,,,,,,,,,,,,,,,,,,,,,,,,,,,,,,,,,,,,,,,,,,,,,,,,0,4,4,1,1,,,,,,,,,,,,,,,,,,,,,,,,,,,,,,,,,,,,,,,,,
610727,001,2022-11-21_01h55.02.938,Info_measure_main_exp,2022.2.2,Win32,164.8261085,,,,,,,,,,,,,,,,,,,,,,,,,,,,,,0,1.0908,1,,,,,,,,,,,,0,131,5,5,2166,2166,absent_patch/patch0002166.jpg,absent_patch/patch0002166.jpg,,,,,,,,,,,,,,,,,,,,-0.03611109,0.117361095,1,0,0,response7disk,2,0.006944444,0.006250011,1,0,0,center_square,0,1,1,42,1,,,,,,,,,,,,,,,,,,,,,,,
610727,001,2022-11-21_01h55.02.938,Info_measure_main_exp,2022.2.2,Win32,164.8261085,,,,,,,,,,,,,,,,,,masks/mask_004.jpg,,,,,,,,,,,,,,,,,,,,,,,,,,,,,,,,,,,,,,,,,,,0,0,0,3,1,,,,,,,,,,,,,,,,,,,,,,,,,,,,,,,,,,,,,,,,,,,,,,
610727,001,2022-11-21_01h55.02.938,Info_measure_main_exp,2022.2.2,Win32,164.8261085,,,,,,,,,,,,,,,,,,masks/mask_005.jpg,,,,,,,,,,,,,,,,,,,,,,,,,,,,,,,,,,,,,,,,,,,0,1,1,4,1,,,,,,,,,,,,,,,,,,,,,,,,,,,,,,,,,,,,,,,,,,,,,,
610727,001,2022-11-21_01h55.02.938,Info_measure_main_exp,2022.2.2,Win32,164.8261085,,,,,,,,,,,,,,,,,,masks/mask_003.jpg,,,,,,,,,,,,,,,,,,,,,,,,,,,,,,,,,,,,,,,,,,,0,2,2,2,1,,,,,,,,,,,,,,,,,,,,,,,,,,,,,,,,,,,,,,,,,,,,,,
610727,001,2022-11-21_01h55.02.938,Info_measure_main_exp,2022.2.2,Win32,164.8261085,,,,,,,,,,,,,,,,,,masks/mask_001.jpg,,,,,,,,,,,,,,,,,,,,,,,,,,,,,,,,,,,,,,,,,,,0,3,3,0,1,,,,,,,,,,,,,,,,,,,,,,,,,,,,,,,,,,,,,,,,,,,,,,
610727,001,2022-11-21_01h55.02.938,Info_measure_main_exp,2022.2.2,Win32,164.8261085,,,,,,,,,,,,,,,,,,masks/mask_002.jpg,,,,,,,,,,,,,,,,,,,,,,,,,,,,,,,,,,,,,,,,,,,0,4,4,1,1,,,,,,,,,,,,,,,,,,,,,,,,,,,,,,,,,,,,,,,,,,,,,,
610727,001,2022-11-21_01h55.02.938,Info_measure_main_exp,2022.2.2,Win32,164.8261085,,,,,,,,,,,,,,,,,,masks/mask_003.jpg,,,,,,,,,,,,,,,,,,,,,,,,,,,,,,,,,,,,,,,,,,,,,,,,0,0,0,2,1,,,,,,,,,,,,,,,,,,,,,,,,,,,,,,,,,,,,,,,,,
610727,001,2022-11-21_01h55.02.938,Info_measure_main_exp,2022.2.2,Win32,164.8261085,,,,,,,,,,,,,,,,,,masks/mask_004.jpg,,,,,,,,,,,,,,,,,,,,,,,,,,,,,,,,,,,,,,,,,,,,,,,,0,1,1,3,1,,,,,,,,,,,,,,,,,,,,,,,,,,,,,,,,,,,,,,,,,
610727,001,2022-11-21_01h55.02.938,Info_measure_main_exp,2022.2.2,Win32,164.8261085,,,,,,,,,,,,,,,,,,masks/mask_002.jpg,,,,,,,,,,,,,,,,,,,,,,,,,,,,,,,,,,,,,,,,,,,,,,,,0,2,2,1,1,,,,,,,,,,,,,,,,,,,,,,,,,,,,,,,,,,,,,,,,,
610727,001,2022-11-21_01h55.02.938,Info_measure_main_exp,2022.2.2,Win32,164.8261085,,,,,,,,,,,,,,,,,,masks/mask_001.jpg,,,,,,,,,,,,,,,,,,,,,,,,,,,,,,,,,,,,,,,,,,,,,,,,0,3,3,0,1,,,,,,,,,,,,,,,,,,,,,,,,,,,,,,,,,,,,,,,,,
610727,001,2022-11-21_01h55.02.938,Info_measure_main_exp,2022.2.2,Win32,164.8261085,,,,,,,,,,,,,,,,,,masks/mask_005.jpg,,,,,,,,,,,,,,,,,,,,,,,,,,,,,,,,,,,,,,,,,,,,,,,,0,4,4,4,1,,,,,,,,,,,,,,,,,,,,,,,,,,,,,,,,,,,,,,,,,
610727,001,2022-11-21_01h55.02.938,Info_measure_main_exp,2022.2.2,Win32,164.8261085,,,,,,,,,,,,,,,,,,,,,,,,,,,,,,7,1.6008,1,,,,,,,,,,,,0,131,5,5,2082,1986,absent_patch/patch0002082.jpg,absent_patch/patch0001986.jpg,,,,,,,,,,,,,,,,,,,,0.050694466,0.144444439,1,0,0,response1disk,3,0.011111153,0.002777788,1,0,0,center_square,0,2,2,94,1,,,,,,,,,,,,,,,,,,,,,,,
610727,001,2022-11-21_01h55.02.938,Info_measure_main_exp,2022.2.2,Win32,164.8261085,,,,,,,,,,,,,,,,,,masks/mask_004.jpg,,,,,,,,,,,,,,,,,,,,,,,,,,,,,,,,,,,,,,,,,,,0,0,0,3,1,,,,,,,,,,,,,,,,,,,,,,,,,,,,,,,,,,,,,,,,,,,,,,
610727,001,2022-11-21_01h55.02.938,Info_measure_main_exp,2022.2.2,Win32,164.8261085,,,,,,,,,,,,,,,,,,masks/mask_005.jpg,,,,,,,,,,,,,,,,,,,,,,,,,,,,,,,,,,,,,,,,,,,0,1,1,4,1,,,,,,,,,,,,,,,,,,,,,,,,,,,,,,,,,,,,,,,,,,,,,,
610727,001,2022-11-21_01h55.02.938,Info_measure_main_exp,2022.2.2,Win32,164.8261085,,,,,,,,,,,,,,,,,,masks/mask_001.jpg,,,,,,,,,,,,,,,,,,,,,,,,,,,,,,,,,,,,,,,,,,,0,2,2,0,1,,,,,,,,,,,,,,,,,,,,,,,,,,,,,,,,,,,,,,,,,,,,,,
610727,001,2022-11-21_01h55.02.938,Info_measure_main_exp,2022.2.2,Win32,164.8261085,,,,,,,,,,,,,,,,,,masks/mask_003.jpg,,,,,,,,,,,,,,,,,,,,,,,,,,,,,,,,,,,,,,,,,,,0,3,3,2,1,,,,,,,,,,,,,,,,,,,,,,,,,,,,,,,,,,,,,,,,,,,,,,
610727,001,2022-11-21_01h55.02.938,Info_measure_main_exp,2022.2.2,Win32,164.8261085,,,,,,,,,,,,,,,,,,masks/mask_002.jpg,,,,,,,,,,,,,,,,,,,,,,,,,,,,,,,,,,,,,,,,,,,0,4,4,1,1,,,,,,,,,,,,,,,,,,,,,,,,,,,,,,,,,,,,,,,,,,,,,,
610727,001,2022-11-21_01h55.02.938,Info_measure_main_exp,2022.2.2,Win32,164.8261085,,,,,,,,,,,,,,,,,,masks/mask_004.jpg,,,,,,,,,,,,,,,,,,,,,,,,,,,,,,,,,,,,,,,,,,,,,,,,0,0,0,3,1,,,,,,,,,,,,,,,,,,,,,,,,,,,,,,,,,,,,,,,,,
610727,001,2022-11-21_01h55.02.938,Info_measure_main_exp,2022.2.2,Win32,164.8261085,,,,,,,,,,,,,,,,,,masks/mask_001.jpg,,,,,,,,,,,,,,,,,,,,,,,,,,,,,,,,,,,,,,,,,,,,,,,,0,1,1,0,1,,,,,,,,,,,,,,,,,,,,,,,,,,,,,,,,,,,,,,,,,
610727,001,2022-11-21_01h55.02.938,Info_measure_main_exp,2022.2.2,Win32,164.8261085,,,,,,,,,,,,,,,,,,masks/mask_005.jpg,,,,,,,,,,,,,,,,,,,,,,,,,,,,,,,,,,,,,,,,,,,,,,,,0,2,2,4,1,,,,,,,,,,,,,,,,,,,,,,,,,,,,,,,,,,,,,,,,,
610727,001,2022-11-21_01h55.02.938,Info_measure_main_exp,2022.2.2,Win32,164.8261085,,,,,,,,,,,,,,,,,,masks/mask_003.jpg,,,,,,,,,,,,,,,,,,,,,,,,,,,,,,,,,,,,,,,,,,,,,,,,0,3,3,2,1,,,,,,,,,,,,,,,,,,,,,,,,,,,,,,,,,,,,,,,,,
610727,001,2022-11-21_01h55.02.938,Info_measure_main_exp,2022.2.2,Win32,164.8261085,,,,,,,,,,,,,,,,,,masks/mask_002.jpg,,,,,,,,,,,,,,,,,,,,,,,,,,,,,,,,,,,,,,,,,,,,,,,,0,4,4,1,1,,,,,,,,,,,,,,,,,,,,,,,,,,,,,,,,,,,,,,,,,
610727,001,2022-11-21_01h55.02.938,Info_measure_main_exp,2022.2.2,Win32,164.8261085,,,,,,,,,,,,,,,,,,,,,,,,,,,,,,7,0.9076,1,,,,,,,,,,,,0,131,5,5,2250,1950,absent_patch/patch0002250.jpg,absent_patch/patch0001950.jpg,,,,,,,,,,,,,,,,,,,,0.029166645,0.135416667,1,0,0,response1disk,4,-0.005555524,0.006944444,1,0,0,center_square,0,3,3,16,1,,,,,,,,,,,,,,,,,,,,,,,
610727,001,2022-11-21_01h55.02.938,Info_measure_main_exp,2022.2.2,Win32,164.8261085,,,,,,,,,,,,,,,,,,masks/mask_001.jpg,,,,,,,,,,,,,,,,,,,,,,,,,,,,,,,,,,,,,,,,,,,0,0,0,0,1,,,,,,,,,,,,,,,,,,,,,,,,,,,,,,,,,,,,,,,,,,,,,,
610727,001,2022-11-21_01h55.02.938,Info_measure_main_exp,2022.2.2,Win32,164.8261085,,,,,,,,,,,,,,,,,,masks/mask_003.jpg,,,,,,,,,,,,,,,,,,,,,,,,,,,,,,,,,,,,,,,,,,,0,1,1,2,1,,,,,,,,,,,,,,,,,,,,,,,,,,,,,,,,,,,,,,,,,,,,,,
610727,001,2022-11-21_01h55.02.938,Info_measure_main_exp,2022.2.2,Win32,164.8261085,,,,,,,,,,,,,,,,,,masks/mask_002.jpg,,,,,,,,,,,,,,,,,,,,,,,,,,,,,,,,,,,,,,,,,,,0,2,2,1,1,,,,,,,,,,,,,,,,,,,,,,,,,,,,,,,,,,,,,,,,,,,,,,
610727,001,2022-11-21_01h55.02.938,Info_measure_main_exp,2022.2.2,Win32,164.8261085,,,,,,,,,,,,,,,,,,masks/mask_005.jpg,,,,,,,,,,,,,,,,,,,,,,,,,,,,,,,,,,,,,,,,,,,0,3,3,4,1,,,,,,,,,,,,,,,,,,,,,,,,,,,,,,,,,,,,,,,,,,,,,,
610727,001,2022-11-21_01h55.02.938,Info_measure_main_exp,2022.2.2,Win32,164.8261085,,,,,,,,,,,,,,,,,,masks/mask_004.jpg,,,,,,,,,,,,,,,,,,,,,,,,,,,,,,,,,,,,,,,,,,,0,4,4,3,1,,,,,,,,,,,,,,,,,,,,,,,,,,,,,,,,,,,,,,,,,,,,,,
610727,001,2022-11-21_01h55.02.938,Info_measure_main_exp,2022.2.2,Win32,164.8261085,,,,,,,,,,,,,,,,,,masks/mask_004.jpg,,,,,,,,,,,,,,,,,,,,,,,,,,,,,,,,,,,,,,,,,,,,,,,,0,0,0,3,1,,,,,,,,,,,,,,,,,,,,,,,,,,,,,,,,,,,,,,,,,
610727,001,2022-11-21_01h55.02.938,Info_measure_main_exp,2022.2.2,Win32,164.8261085,,,,,,,,,,,,,,,,,,masks/mask_003.jpg,,,,,,,,,,,,,,,,,,,,,,,,,,,,,,,,,,,,,,,,,,,,,,,,0,1,1,2,1,,,,,,,,,,,,,,,,,,,,,,,,,,,,,,,,,,,,,,,,,
610727,001,2022-11-21_01h55.02.938,Info_measure_main_exp,2022.2.2,Win32,164.8261085,,,,,,,,,,,,,,,,,,masks/mask_002.jpg,,,,,,,,,,,,,,,,,,,,,,,,,,,,,,,,,,,,,,,,,,,,,,,,0,2,2,1,1,,,,,,,,,,,,,,,,,,,,,,,,,,,,,,,,,,,,,,,,,
610727,001,2022-11-21_01h55.02.938,Info_measure_main_exp,2022.2.2,Win32,164.8261085,,,,,,,,,,,,,,,,,,masks/mask_001.jpg,,,,,,,,,,,,,,,,,,,,,,,,,,,,,,,,,,,,,,,,,,,,,,,,0,3,3,0,1,,,,,,,,,,,,,,,,,,,,,,,,,,,,,,,,,,,,,,,,,
610727,001,2022-11-21_01h55.02.938,Info_measure_main_exp,2022.2.2,Win32,164.8261085,,,,,,,,,,,,,,,,,,masks/mask_005.jpg,,,,,,,,,,,,,,,,,,,,,,,,,,,,,,,,,,,,,,,,,,,,,,,,0,4,4,4,1,,,,,,,,,,,,,,,,,,,,,,,,,,,,,,,,,,,,,,,,,
610727,001,2022-11-21_01h55.02.938,Info_measure_main_exp,2022.2.2,Win32,164.8261085,,,,,,,,,,,,,,,,,,,,,,,,,,,,,,7,1.0058,1,,,,,,,,,,,,0,131,5,5,2274,2178,absent_patch/patch0002274.jpg,absent_patch/patch0002178.jpg,,,,,,,,,,,,,,,,,,,,0.041666667,0.115972228,1,0,0,response1disk,5,0.003472222,-0.002777788,1,0,0,center_square,0,4,4,117,1,,,,,,,,,,,,,,,,,,,,,,,
610727,001,2022-11-21_01h55.02.938,Info_measure_main_exp,2022.2.2,Win32,164.8261085,,,,,,,,,,,,,,,,,,masks/mask_003.jpg,,,,,,,,,,,,,,,,,,,,,,,,,,,,,,,,,,,,,,,,,,,0,0,0,2,1,,,,,,,,,,,,,,,,,,,,,,,,,,,,,,,,,,,,,,,,,,,,,,
610727,001,2022-11-21_01h55.02.938,Info_measure_main_exp,2022.2.2,Win32,164.8261085,,,,,,,,,,,,,,,,,,masks/mask_001.jpg,,,,,,,,,,,,,,,,,,,,,,,,,,,,,,,,,,,,,,,,,,,0,1,1,0,1,,,,,,,,,,,,,,,,,,,,,,,,,,,,,,,,,,,,,,,,,,,,,,
610727,001,2022-11-21_01h55.02.938,Info_measure_main_exp,2022.2.2,Win32,164.8261085,,,,,,,,,,,,,,,,,,masks/mask_004.jpg,,,,,,,,,,,,,,,,,,,,,,,,,,,,,,,,,,,,,,,,,,,0,2,2,3,1,,,,,,,,,,,,,,,,,,,,,,,,,,,,,,,,,,,,,,,,,,,,,,
610727,001,2022-11-21_01h55.02.938,Info_measure_main_exp,2022.2.2,Win32,164.8261085,,,,,,,,,,,,,,,,,,masks/mask_002.jpg,,,,,,,,,,,,,,,,,,,,,,,,,,,,,,,,,,,,,,,,,,,0,3,3,1,1,,,,,,,,,,,,,,,,,,,,,,,,,,,,,,,,,,,,,,,,,,,,,,
610727,001,2022-11-21_01h55.02.938,Info_measure_main_exp,2022.2.2,Win32,164.8261085,,,,,,,,,,,,,,,,,,masks/mask_005.jpg,,,,,,,,,,,,,,,,,,,,,,,,,,,,,,,,,,,,,,,,,,,0,4,4,4,1,,,,,,,,,,,,,,,,,,,,,,,,,,,,,,,,,,,,,,,,,,,,,,
610727,001,2022-11-21_01h55.02.938,Info_measure_main_exp,2022.2.2,Win32,164.8261085,,,,,,,,,,,,,,,,,,masks/mask_005.jpg,,,,,,,,,,,,,,,,,,,,,,,,,,,,,,,,,,,,,,,,,,,,,,,,0,0,0,4,1,,,,,,,,,,,,,,,,,,,,,,,,,,,,,,,,,,,,,,,,,
610727,001,2022-11-21_01h55.02.938,Info_measure_main_exp,2022.2.2,Win32,164.8261085,,,,,,,,,,,,,,,,,,masks/mask_003.jpg,,,,,,,,,,,,,,,,,,,,,,,,,,,,,,,,,,,,,,,,,,,,,,,,0,1,1,2,1,,,,,,,,,,,,,,,,,,,,,,,,,,,,,,,,,,,,,,,,,
610727,001,2022-11-21_01h55.02.938,Info_measure_main_exp,2022.2.2,Win32,164.8261085,,,,,,,,,,,,,,,,,,masks/mask_004.jpg,,,,,,,,,,,,,,,,,,,,,,,,,,,,,,,,,,,,,,,,,,,,,,,,0,2,2,3,1,,,,,,,,,,,,,,,,,,,,,,,,,,,,,,,,,,,,,,,,,
610727,001,2022-11-21_01h55.02.938,Info_measure_main_exp,2022.2.2,Win32,164.8261085,,,,,,,,,,,,,,,,,,masks/mask_001.jpg,,,,,,,,,,,,,,,,,,,,,,,,,,,,,,,,,,,,,,,,,,,,,,,,0,3,3,0,1,,,,,,,,,,,,,,,,,,,,,,,,,,,,,,,,,,,,,,,,,
610727,001,2022-11-21_01h55.02.938,Info_measure_main_exp,2022.2.2,Win32,164.8261085,,,,,,,,,,,,,,,,,,masks/mask_002.jpg,,,,,,,,,,,,,,,,,,,,,,,,,,,,,,,,,,,,,,,,,,,,,,,,0,4,4,1,1,,,,,,,,,,,,,,,,,,,,,,,,,,,,,,,,,,,,,,,,,
610727,001,2022-11-21_01h55.02.938,Info_measure_main_exp,2022.2.2,Win32,164.8261085,,,,,,,,,,,,,,,,,,,,,,,,,,,,,,7,0.7937,1,,,,,,,,,,,,0,131,5,5,2274,2082,absent_patch/patch0002274.jpg,absent_patch/patch0002082.jpg,,,,,,,,,,,,,,,,,,,,0.031944487,0.104166667,1,0,0,response1disk,6,0.015972243,-0.006944444,1,0,0,center_square,0,5,5,100,1,,,,,,,,,,,,,,,,,,,,,,,
610727,001,2022-11-21_01h55.02.938,Info_measure_main_exp,2022.2.2,Win32,164.8261085,,,,,,,,,,,,,,,,,,masks/mask_005.jpg,,,,,,,,,,,,,,,,,,,,,,,,,,,,,,,,,,,,,,,,,,,0,0,0,4,1,,,,,,,,,,,,,,,,,,,,,,,,,,,,,,,,,,,,,,,,,,,,,,
610727,001,2022-11-21_01h55.02.938,Info_measure_main_exp,2022.2.2,Win32,164.8261085,,,,,,,,,,,,,,,,,,masks/mask_004.jpg,,,,,,,,,,,,,,,,,,,,,,,,,,,,,,,,,,,,,,,,,,,0,1,1,3,1,,,,,,,,,,,,,,,,,,,,,,,,,,,,,,,,,,,,,,,,,,,,,,
610727,001,2022-11-21_01h55.02.938,Info_measure_main_exp,2022.2.2,Win32,164.8261085,,,,,,,,,,,,,,,,,,masks/mask_003.jpg,,,,,,,,,,,,,,,,,,,,,,,,,,,,,,,,,,,,,,,,,,,0,2,2,2,1,,,,,,,,,,,,,,,,,,,,,,,,,,,,,,,,,,,,,,,,,,,,,,
610727,001,2022-11-21_01h55.02.938,Info_measure_main_exp,2022.2.2,Win32,164.8261085,,,,,,,,,,,,,,,,,,masks/mask_002.jpg,,,,,,,,,,,,,,,,,,,,,,,,,,,,,,,,,,,,,,,,,,,0,3,3,1,1,,,,,,,,,,,,,,,,,,,,,,,,,,,,,,,,,,,,,,,,,,,,,,
610727,001,2022-11-21_01h55.02.938,Info_measure_main_exp,2022.2.2,Win32,164.8261085,,,,,,,,,,,,,,,,,,masks/mask_001.jpg,,,,,,,,,,,,,,,,,,,,,,,,,,,,,,,,,,,,,,,,,,,0,4,4,0,1,,,,,,,,,,,,,,,,,,,,,,,,,,,,,,,,,,,,,,,,,,,,,,
610727,001,2022-11-21_01h55.02.938,Info_measure_main_exp,2022.2.2,Win32,164.8261085,,,,,,,,,,,,,,,,,,masks/mask_002.jpg,,,,,,,,,,,,,,,,,,,,,,,,,,,,,,,,,,,,,,,,,,,,,,,,0,0,0,1,1,,,,,,,,,,,,,,,,,,,,,,,,,,,,,,,,,,,,,,,,,
610727,001,2022-11-21_01h55.02.938,Info_measure_main_exp,2022.2.2,Win32,164.8261085,,,,,,,,,,,,,,,,,,masks/mask_005.jpg,,,,,,,,,,,,,,,,,,,,,,,,,,,,,,,,,,,,,,,,,,,,,,,,0,1,1,4,1,,,,,,,,,,,,,,,,,,,,,,,,,,,,,,,,,,,,,,,,,
610727,001,2022-11-21_01h55.02.938,Info_measure_main_exp,2022.2.2,Win32,164.8261085,,,,,,,,,,,,,,,,,,masks/mask_004.jpg,,,,,,,,,,,,,,,,,,,,,,,,,,,,,,,,,,,,,,,,,,,,,,,,0,2,2,3,1,,,,,,,,,,,,,,,,,,,,,,,,,,,,,,,,,,,,,,,,,
610727,001,2022-11-21_01h55.02.938,Info_measure_main_exp,2022.2.2,Win32,164.8261085,,,,,,,,,,,,,,,,,,masks/mask_001.jpg,,,,,,,,,,,,,,,,,,,,,,,,,,,,,,,,,,,,,,,,,,,,,,,,0,3,3,0,1,,,,,,,,,,,,,,,,,,,,,,,,,,,,,,,,,,,,,,,,,
610727,001,2022-11-21_01h55.02.938,Info_measure_main_exp,2022.2.2,Win32,164.8261085,,,,,,,,,,,,,,,,,,masks/mask_003.jpg,,,,,,,,,,,,,,,,,,,,,,,,,,,,,,,,,,,,,,,,,,,,,,,,0,4,4,2,1,,,,,,,,,,,,,,,,,,,,,,,,,,,,,,,,,,,,,,,,,
610727,001,2022-11-21_01h55.02.938,Info_measure_main_exp,2022.2.2,Win32,164.8261085,,,,,,,,,,,,,,,,,,,,,,,,,,,,,,5,1.0119,1,,,,,,,,,,,,0,131,5,5,2142,2082,absent_patch/patch0002142.jpg,absent_patch/patch0002082.jpg,,,,,,,,,,,,,,,,,,,,0.109722243,-0.035416656,1,0,0,response3disk,7,0.011111153,-0.004166656,1,0,0,center_square,0,6,6,88,1,,,,,,,,,,,,,,,,,,,,,,,
610727,001,2022-11-21_01h55.02.938,Info_measure_main_exp,2022.2.2,Win32,164.8261085,,,,,,,,,,,,,,,,,,masks/mask_003.jpg,,,,,,,,,,,,,,,,,,,,,,,,,,,,,,,,,,,,,,,,,,,0,0,0,2,1,,,,,,,,,,,,,,,,,,,,,,,,,,,,,,,,,,,,,,,,,,,,,,
610727,001,2022-11-21_01h55.02.938,Info_measure_main_exp,2022.2.2,Win32,164.8261085,,,,,,,,,,,,,,,,,,masks/mask_004.jpg,,,,,,,,,,,,,,,,,,,,,,,,,,,,,,,,,,,,,,,,,,,0,1,1,3,1,,,,,,,,,,,,,,,,,,,,,,,,,,,,,,,,,,,,,,,,,,,,,,
610727,001,2022-11-21_01h55.02.938,Info_measure_main_exp,2022.2.2,Win32,164.8261085,,,,,,,,,,,,,,,,,,masks/mask_001.jpg,,,,,,,,,,,,,,,,,,,,,,,,,,,,,,,,,,,,,,,,,,,0,2,2,0,1,,,,,,,,,,,,,,,,,,,,,,,,,,,,,,,,,,,,,,,,,,,,,,
610727,001,2022-11-21_01h55.02.938,Info_measure_main_exp,2022.2.2,Win32,164.8261085,,,,,,,,,,,,,,,,,,masks/mask_002.jpg,,,,,,,,,,,,,,,,,,,,,,,,,,,,,,,,,,,,,,,,,,,0,3,3,1,1,,,,,,,,,,,,,,,,,,,,,,,,,,,,,,,,,,,,,,,,,,,,,,
610727,001,2022-11-21_01h55.02.938,Info_measure_main_exp,2022.2.2,Win32,164.8261085,,,,,,,,,,,,,,,,,,masks/mask_005.jpg,,,,,,,,,,,,,,,,,,,,,,,,,,,,,,,,,,,,,,,,,,,0,4,4,4,1,,,,,,,,,,,,,,,,,,,,,,,,,,,,,,,,,,,,,,,,,,,,,,
610727,001,2022-11-21_01h55.02.938,Info_measure_main_exp,2022.2.2,Win32,164.8261085,,,,,,,,,,,,,,,,,,masks/mask_004.jpg,,,,,,,,,,,,,,,,,,,,,,,,,,,,,,,,,,,,,,,,,,,,,,,,0,0,0,3,1,,,,,,,,,,,,,,,,,,,,,,,,,,,,,,,,,,,,,,,,,
610727,001,2022-11-21_01h55.02.938,Info_measure_main_exp,2022.2.2,Win32,164.8261085,,,,,,,,,,,,,,,,,,masks/mask_003.jpg,,,,,,,,,,,,,,,,,,,,,,,,,,,,,,,,,,,,,,,,,,,,,,,,0,1,1,2,1,,,,,,,,,,,,,,,,,,,,,,,,,,,,,,,,,,,,,,,,,
610727,001,2022-11-21_01h55.02.938,Info_measure_main_exp,2022.2.2,Win32,164.8261085,,,,,,,,,,,,,,,,,,masks/mask_001.jpg,,,,,,,,,,,,,,,,,,,,,,,,,,,,,,,,,,,,,,,,,,,,,,,,0,2,2,0,1,,,,,,,,,,,,,,,,,,,,,,,,,,,,,,,,,,,,,,,,,
610727,001,2022-11-21_01h55.02.938,Info_measure_main_exp,2022.2.2,Win32,164.8261085,,,,,,,,,,,,,,,,,,masks/mask_005.jpg,,,,,,,,,,,,,,,,,,,,,,,,,,,,,,,,,,,,,,,,,,,,,,,,0,3,3,4,1,,,,,,,,,,,,,,,,,,,,,,,,,,,,,,,,,,,,,,,,,
610727,001,2022-11-21_01h55.02.938,Info_measure_main_exp,2022.2.2,Win32,164.8261085,,,,,,,,,,,,,,,,,,masks/mask_002.jpg,,,,,,,,,,,,,,,,,,,,,,,,,,,,,,,,,,,,,,,,,,,,,,,,0,4,4,1,1,,,,,,,,,,,,,,,,,,,,,,,,,,,,,,,,,,,,,,,,,
610727,001,2022-11-21_01h55.02.938,Info_measure_main_exp,2022.2.2,Win32,164.8261085,,,,,,,,,,,,,,,,,,,,,,,,,,,,,,4,2.0606,1,,,,,,,,,,,,0,131,5,5,1974,2178,absent_patch/patch0001974.jpg,absent_patch/patch0002178.jpg,,,,,,,,,,,,,,,,,,,,0.045833376,-0.118749989,1,0,0,response3disk,8,0.007638931,-0.006250011,1,0,0,center_square,0,7,7,44,1,,,,,,,,,,,,,,,,,,,,,,,
610727,001,2022-11-21_01h55.02.938,Info_measure_main_exp,2022.2.2,Win32,164.8261085,,,,,,,,,,,,,,,,,,masks/mask_005.jpg,,,,,,,,,,,,,,,,,,,,,,,,,,,,,,,,,,,,,,,,,,,0,0,0,4,1,,,,,,,,,,,,,,,,,,,,,,,,,,,,,,,,,,,,,,,,,,,,,,
610727,001,2022-11-21_01h55.02.938,Info_measure_main_exp,2022.2.2,Win32,164.8261085,,,,,,,,,,,,,,,,,,masks/mask_001.jpg,,,,,,,,,,,,,,,,,,,,,,,,,,,,,,,,,,,,,,,,,,,0,1,1,0,1,,,,,,,,,,,,,,,,,,,,,,,,,,,,,,,,,,,,,,,,,,,,,,
610727,001,2022-11-21_01h55.02.938,Info_measure_main_exp,2022.2.2,Win32,164.8261085,,,,,,,,,,,,,,,,,,masks/mask_002.jpg,,,,,,,,,,,,,,,,,,,,,,,,,,,,,,,,,,,,,,,,,,,0,2,2,1,1,,,,,,,,,,,,,,,,,,,,,,,,,,,,,,,,,,,,,,,,,,,,,,
610727,001,2022-11-21_01h55.02.938,Info_measure_main_exp,2022.2.2,Win32,164.8261085,,,,,,,,,,,,,,,,,,masks/mask_003.jpg,,,,,,,,,,,,,,,,,,,,,,,,,,,,,,,,,,,,,,,,,,,0,3,3,2,1,,,,,,,,,,,,,,,,,,,,,,,,,,,,,,,,,,,,,,,,,,,,,,
610727,001,2022-11-21_01h55.02.938,Info_measure_main_exp,2022.2.2,Win32,164.8261085,,,,,,,,,,,,,,,,,,masks/mask_004.jpg,,,,,,,,,,,,,,,,,,,,,,,,,,,,,,,,,,,,,,,,,,,0,4,4,3,1,,,,,,,,,,,,,,,,,,,,,,,,,,,,,,,,,,,,,,,,,,,,,,
610727,001,2022-11-21_01h55.02.938,Info_measure_main_exp,2022.2.2,Win32,164.8261085,,,,,,,,,,,,,,,,,,masks/mask_001.jpg,,,,,,,,,,,,,,,,,,,,,,,,,,,,,,,,,,,,,,,,,,,,,,,,0,0,0,0,1,,,,,,,,,,,,,,,,,,,,,,,,,,,,,,,,,,,,,,,,,
610727,001,2022-11-21_01h55.02.938,Info_measure_main_exp,2022.2.2,Win32,164.8261085,,,,,,,,,,,,,,,,,,masks/mask_005.jpg,,,,,,,,,,,,,,,,,,,,,,,,,,,,,,,,,,,,,,,,,,,,,,,,0,1,1,4,1,,,,,,,,,,,,,,,,,,,,,,,,,,,,,,,,,,,,,,,,,
610727,001,2022-11-21_01h55.02.938,Info_measure_main_exp,2022.2.2,Win32,164.8261085,,,,,,,,,,,,,,,,,,masks/mask_003.jpg,,,,,,,,,,,,,,,,,,,,,,,,,,,,,,,,,,,,,,,,,,,,,,,,0,2,2,2,1,,,,,,,,,,,,,,,,,,,,,,,,,,,,,,,,,,,,,,,,,
610727,001,2022-11-21_01h55.02.938,Info_measure_main_exp,2022.2.2,Win32,164.8261085,,,,,,,,,,,,,,,,,,masks/mask_002.jpg,,,,,,,,,,,,,,,,,,,,,,,,,,,,,,,,,,,,,,,,,,,,,,,,0,3,3,1,1,,,,,,,,,,,,,,,,,,,,,,,,,,,,,,,,,,,,,,,,,
610727,001,2022-11-21_01h55.02.938,Info_measure_main_exp,2022.2.2,Win32,164.8261085,,,,,,,,,,,,,,,,,,masks/mask_004.jpg,,,,,,,,,,,,,,,,,,,,,,,,,,,,,,,,,,,,,,,,,,,,,,,,0,4,4,3,1,,,,,,,,,,,,,,,,,,,,,,,,,,,,,,,,,,,,,,,,,
610727,001,2022-11-21_01h55.02.938,Info_measure_main_exp,2022.2.2,Win32,164.8261085,,,,,,,,,,,,,,,,,,,,,,,,,,,,,,7,0.9817,1,,,,,,,,,,,,0,131,5,5,1986,2142,absent_patch/patch0001986.jpg,absent_patch/patch0002142.jpg,,,,,,,,,,,,,,,,,,,,0.044444508,0.109722217,1,0,0,response1disk,9,0.006250064,-0.006250011,1,0,0,center_square,0,8,8,76,1,,,,,,,,,,,,,,,,,,,,,,,
610727,001,2022-11-21_01h55.02.938,Info_measure_main_exp,2022.2.2,Win32,164.8261085,,,,,,,,,,,,,,,,,,masks/mask_001.jpg,,,,,,,,,,,,,,,,,,,,,,,,,,,,,,,,,,,,,,,,,,,0,0,0,0,1,,,,,,,,,,,,,,,,,,,,,,,,,,,,,,,,,,,,,,,,,,,,,,
610727,001,2022-11-21_01h55.02.938,Info_measure_main_exp,2022.2.2,Win32,164.8261085,,,,,,,,,,,,,,,,,,masks/mask_003.jpg,,,,,,,,,,,,,,,,,,,,,,,,,,,,,,,,,,,,,,,,,,,0,1,1,2,1,,,,,,,,,,,,,,,,,,,,,,,,,,,,,,,,,,,,,,,,,,,,,,
610727,001,2022-11-21_01h55.02.938,Info_measure_main_exp,2022.2.2,Win32,164.8261085,,,,,,,,,,,,,,,,,,masks/mask_004.jpg,,,,,,,,,,,,,,,,,,,,,,,,,,,,,,,,,,,,,,,,,,,0,2,2,3,1,,,,,,,,,,,,,,,,,,,,,,,,,,,,,,,,,,,,,,,,,,,,,,
610727,001,2022-11-21_01h55.02.938,Info_measure_main_exp,2022.2.2,Win32,164.8261085,,,,,,,,,,,,,,,,,,masks/mask_002.jpg,,,,,,,,,,,,,,,,,,,,,,,,,,,,,,,,,,,,,,,,,,,0,3,3,1,1,,,,,,,,,,,,,,,,,,,,,,,,,,,,,,,,,,,,,,,,,,,,,,
610727,001,2022-11-21_01h55.02.938,Info_measure_main_exp,2022.2.2,Win32,164.8261085,,,,,,,,,,,,,,,,,,masks/mask_005.jpg,,,,,,,,,,,,,,,,,,,,,,,,,,,,,,,,,,,,,,,,,,,0,4,4,4,1,,,,,,,,,,,,,,,,,,,,,,,,,,,,,,,,,,,,,,,,,,,,,,
610727,001,2022-11-21_01h55.02.938,Info_measure_main_exp,2022.2.2,Win32,164.8261085,,,,,,,,,,,,,,,,,,masks/mask_001.jpg,,,,,,,,,,,,,,,,,,,,,,,,,,,,,,,,,,,,,,,,,,,,,,,,0,0,0,0,1,,,,,,,,,,,,,,,,,,,,,,,,,,,,,,,,,,,,,,,,,
610727,001,2022-11-21_01h55.02.938,Info_measure_main_exp,2022.2.2,Win32,164.8261085,,,,,,,,,,,,,,,,,,masks/mask_003.jpg,,,,,,,,,,,,,,,,,,,,,,,,,,,,,,,,,,,,,,,,,,,,,,,,0,1,1,2,1,,,,,,,,,,,,,,,,,,,,,,,,,,,,,,,,,,,,,,,,,
610727,001,2022-11-21_01h55.02.938,Info_measure_main_exp,2022.2.2,Win32,164.8261085,,,,,,,,,,,,,,,,,,masks/mask_002.jpg,,,,,,,,,,,,,,,,,,,,,,,,,,,,,,,,,,,,,,,,,,,,,,,,0,2,2,1,1,,,,,,,,,,,,,,,,,,,,,,,,,,,,,,,,,,,,,,,,,
610727,001,2022-11-21_01h55.02.938,Info_measure_main_exp,2022.2.2,Win32,164.8261085,,,,,,,,,,,,,,,,,,masks/mask_004.jpg,,,,,,,,,,,,,,,,,,,,,,,,,,,,,,,,,,,,,,,,,,,,,,,,0,3,3,3,1,,,,,,,,,,,,,,,,,,,,,,,,,,,,,,,,,,,,,,,,,
610727,001,2022-11-21_01h55.02.938,Info_measure_main_exp,2022.2.2,Win32,164.8261085,,,,,,,,,,,,,,,,,,masks/mask_005.jpg,,,,,,,,,,,,,,,,,,,,,,,,,,,,,,,,,,,,,,,,,,,,,,,,0,4,4,4,1,,,,,,,,,,,,,,,,,,,,,,,,,,,,,,,,,,,,,,,,,
610727,001,2022-11-21_01h55.02.938,Info_measure_main_exp,2022.2.2,Win32,164.8261085,,,,,,,,,,,,,,,,,,,,,,,,,,,,,,0,0.8302,1,,,,,,,,,,,,0,131,5,5,2298,2298,absent_patch/patch0002298.jpg,absent_patch/patch0002298.jpg,,,,,,,,,,,,,,,,,,,,-0.037500011,0.109722217,1,0,0,response7disk,10,-0.006250011,-0.004166656,1,0,0,center_square,0,9,9,37,1,,,,,,,,,,,,,,,,,,,,,,,
610727,001,2022-11-21_01h55.02.938,Info_measure_main_exp,2022.2.2,Win32,164.8261085,,,,,,,,,,,,,,,,,,masks/mask_003.jpg,,,,,,,,,,,,,,,,,,,,,,,,,,,,,,,,,,,,,,,,,,,0,0,0,2,1,,,,,,,,,,,,,,,,,,,,,,,,,,,,,,,,,,,,,,,,,,,,,,
610727,001,2022-11-21_01h55.02.938,Info_measure_main_exp,2022.2.2,Win32,164.8261085,,,,,,,,,,,,,,,,,,masks/mask_004.jpg,,,,,,,,,,,,,,,,,,,,,,,,,,,,,,,,,,,,,,,,,,,0,1,1,3,1,,,,,,,,,,,,,,,,,,,,,,,,,,,,,,,,,,,,,,,,,,,,,,
610727,001,2022-11-21_01h55.02.938,Info_measure_main_exp,2022.2.2,Win32,164.8261085,,,,,,,,,,,,,,,,,,masks/mask_002.jpg,,,,,,,,,,,,,,,,,,,,,,,,,,,,,,,,,,,,,,,,,,,0,2,2,1,1,,,,,,,,,,,,,,,,,,,,,,,,,,,,,,,,,,,,,,,,,,,,,,
610727,001,2022-11-21_01h55.02.938,Info_measure_main_exp,2022.2.2,Win32,164.8261085,,,,,,,,,,,,,,,,,,masks/mask_005.jpg,,,,,,,,,,,,,,,,,,,,,,,,,,,,,,,,,,,,,,,,,,,0,3,3,4,1,,,,,,,,,,,,,,,,,,,,,,,,,,,,,,,,,,,,,,,,,,,,,,
610727,001,2022-11-21_01h55.02.938,Info_measure_main_exp,2022.2.2,Win32,164.8261085,,,,,,,,,,,,,,,,,,masks/mask_001.jpg,,,,,,,,,,,,,,,,,,,,,,,,,,,,,,,,,,,,,,,,,,,0,4,4,0,1,,,,,,,,,,,,,,,,,,,,,,,,,,,,,,,,,,,,,,,,,,,,,,
610727,001,2022-11-21_01h55.02.938,Info_measure_main_exp,2022.2.2,Win32,164.8261085,,,,,,,,,,,,,,,,,,masks/mask_004.jpg,,,,,,,,,,,,,,,,,,,,,,,,,,,,,,,,,,,,,,,,,,,,,,,,0,0,0,3,1,,,,,,,,,,,,,,,,,,,,,,,,,,,,,,,,,,,,,,,,,
610727,001,2022-11-21_01h55.02.938,Info_measure_main_exp,2022.2.2,Win32,164.8261085,,,,,,,,,,,,,,,,,,masks/mask_002.jpg,,,,,,,,,,,,,,,,,,,,,,,,,,,,,,,,,,,,,,,,,,,,,,,,0,1,1,1,1,,,,,,,,,,,,,,,,,,,,,,,,,,,,,,,,,,,,,,,,,
610727,001,2022-11-21_01h55.02.938,Info_measure_main_exp,2022.2.2,Win32,164.8261085,,,,,,,,,,,,,,,,,,masks/mask_001.jpg,,,,,,,,,,,,,,,,,,,,,,,,,,,,,,,,,,,,,,,,,,,,,,,,0,2,2,0,1,,,,,,,,,,,,,,,,,,,,,,,,,,,,,,,,,,,,,,,,,
610727,001,2022-11-21_01h55.02.938,Info_measure_main_exp,2022.2.2,Win32,164.8261085,,,,,,,,,,,,,,,,,,masks/mask_003.jpg,,,,,,,,,,,,,,,,,,,,,,,,,,,,,,,,,,,,,,,,,,,,,,,,0,3,3,2,1,,,,,,,,,,,,,,,,,,,,,,,,,,,,,,,,,,,,,,,,,
610727,001,2022-11-21_01h55.02.938,Info_measure_main_exp,2022.2.2,Win32,164.8261085,,,,,,,,,,,,,,,,,,masks/mask_005.jpg,,,,,,,,,,,,,,,,,,,,,,,,,,,,,,,,,,,,,,,,,,,,,,,,0,4,4,4,1,,,,,,,,,,,,,,,,,,,,,,,,,,,,,,,,,,,,,,,,,
610727,001,2022-11-21_01h55.02.938,Info_measure_main_exp,2022.2.2,Win32,164.8261085,,,,,,,,,,,,,,,,,,,,,,,,,,,,,,0,0.7514,1,,,,,,,,,,,,0,131,5,5,2274,2274,absent_patch/patch0002274.jpg,absent_patch/patch0002274.jpg,,,,,,,,,,,,,,,,,,,,-0.037500011,0.106944429,1,0,0,response7disk,11,-0.005555524,-0.006250011,1,0,0,center_square,0,10,10,114,1,,,,,,,,,,,,,,,,,,,,,,,
610727,001,2022-11-21_01h55.02.938,Info_measure_main_exp,2022.2.2,Win32,164.8261085,,,,,,,,,,,,,,,,,,masks/mask_005.jpg,,,,,,,,,,,,,,,,,,,,,,,,,,,,,,,,,,,,,,,,,,,0,0,0,4,1,,,,,,,,,,,,,,,,,,,,,,,,,,,,,,,,,,,,,,,,,,,,,,
610727,001,2022-11-21_01h55.02.938,Info_measure_main_exp,2022.2.2,Win32,164.8261085,,,,,,,,,,,,,,,,,,masks/mask_002.jpg,,,,,,,,,,,,,,,,,,,,,,,,,,,,,,,,,,,,,,,,,,,0,1,1,1,1,,,,,,,,,,,,,,,,,,,,,,,,,,,,,,,,,,,,,,,,,,,,,,
610727,001,2022-11-21_01h55.02.938,Info_measure_main_exp,2022.2.2,Win32,164.8261085,,,,,,,,,,,,,,,,,,masks/mask_003.jpg,,,,,,,,,,,,,,,,,,,,,,,,,,,,,,,,,,,,,,,,,,,0,2,2,2,1,,,,,,,,,,,,,,,,,,,,,,,,,,,,,,,,,,,,,,,,,,,,,,
610727,001,2022-11-21_01h55.02.938,Info_measure_main_exp,2022.2.2,Win32,164.8261085,,,,,,,,,,,,,,,,,,masks/mask_004.jpg,,,,,,,,,,,,,,,,,,,,,,,,,,,,,,,,,,,,,,,,,,,0,3,3,3,1,,,,,,,,,,,,,,,,,,,,,,,,,,,,,,,,,,,,,,,,,,,,,,
610727,001,2022-11-21_01h55.02.938,Info_measure_main_exp,2022.2.2,Win32,164.8261085,,,,,,,,,,,,,,,,,,masks/mask_001.jpg,,,,,,,,,,,,,,,,,,,,,,,,,,,,,,,,,,,,,,,,,,,0,4,4,0,1,,,,,,,,,,,,,,,,,,,,,,,,,,,,,,,,,,,,,,,,,,,,,,
610727,001,2022-11-21_01h55.02.938,Info_measure_main_exp,2022.2.2,Win32,164.8261085,,,,,,,,,,,,,,,,,,masks/mask_003.jpg,,,,,,,,,,,,,,,,,,,,,,,,,,,,,,,,,,,,,,,,,,,,,,,,0,0,0,2,1,,,,,,,,,,,,,,,,,,,,,,,,,,,,,,,,,,,,,,,,,
610727,001,2022-11-21_01h55.02.938,Info_measure_main_exp,2022.2.2,Win32,164.8261085,,,,,,,,,,,,,,,,,,masks/mask_001.jpg,,,,,,,,,,,,,,,,,,,,,,,,,,,,,,,,,,,,,,,,,,,,,,,,0,1,1,0,1,,,,,,,,,,,,,,,,,,,,,,,,,,,,,,,,,,,,,,,,,
610727,001,2022-11-21_01h55.02.938,Info_measure_main_exp,2022.2.2,Win32,164.8261085,,,,,,,,,,,,,,,,,,masks/mask_002.jpg,,,,,,,,,,,,,,,,,,,,,,,,,,,,,,,,,,,,,,,,,,,,,,,,0,2,2,1,1,,,,,,,,,,,,,,,,,,,,,,,,,,,,,,,,,,,,,,,,,
610727,001,2022-11-21_01h55.02.938,Info_measure_main_exp,2022.2.2,Win32,164.8261085,,,,,,,,,,,,,,,,,,masks/mask_005.jpg,,,,,,,,,,,,,,,,,,,,,,,,,,,,,,,,,,,,,,,,,,,,,,,,0,3,3,4,1,,,,,,,,,,,,,,,,,,,,,,,,,,,,,,,,,,,,,,,,,
610727,001,2022-11-21_01h55.02.938,Info_measure_main_exp,2022.2.2,Win32,164.8261085,,,,,,,,,,,,,,,,,,masks/mask_004.jpg,,,,,,,,,,,,,,,,,,,,,,,,,,,,,,,,,,,,,,,,,,,,,,,,0,4,4,3,1,,,,,,,,,,,,,,,,,,,,,,,,,,,,,,,,,,,,,,,,,
610727,001,2022-11-21_01h55.02.938,Info_measure_main_exp,2022.2.2,Win32,164.8261085,,,,,,,,,,,,,,,,,,,,,,,,,,,,,,7,0.515,1,,,,,,,,,,,,0,131,5,5,2154,2190,absent_patch/patch0002154.jpg,absent_patch/patch0002190.jpg,,,,,,,,,,,,,,,,,,,,0.048611111,0.105555561,1,0,0,response1disk,12,0.008333312,-0.006944444,1,0,0,center_square,0,11,11,68,1,,,,,,,,,,,,,,,,,,,,,,,
610727,001,2022-11-21_01h55.02.938,Info_measure_main_exp,2022.2.2,Win32,164.8261085,,,,,,,,,,,,,,,,,,masks/mask_004.jpg,,,,,,,,,,,,,,,,,,,,,,,,,,,,,,,,,,,,,,,,,,,0,0,0,3,1,,,,,,,,,,,,,,,,,,,,,,,,,,,,,,,,,,,,,,,,,,,,,,
610727,001,2022-11-21_01h55.02.938,Info_measure_main_exp,2022.2.2,Win32,164.8261085,,,,,,,,,,,,,,,,,,masks/mask_003.jpg,,,,,,,,,,,,,,,,,,,,,,,,,,,,,,,,,,,,,,,,,,,0,1,1,2,1,,,,,,,,,,,,,,,,,,,,,,,,,,,,,,,,,,,,,,,,,,,,,,
610727,001,2022-11-21_01h55.02.938,Info_measure_main_exp,2022.2.2,Win32,164.8261085,,,,,,,,,,,,,,,,,,masks/mask_001.jpg,,,,,,,,,,,,,,,,,,,,,,,,,,,,,,,,,,,,,,,,,,,0,2,2,0,1,,,,,,,,,,,,,,,,,,,,,,,,,,,,,,,,,,,,,,,,,,,,,,
610727,001,2022-11-21_01h55.02.938,Info_measure_main_exp,2022.2.2,Win32,164.8261085,,,,,,,,,,,,,,,,,,masks/mask_002.jpg,,,,,,,,,,,,,,,,,,,,,,,,,,,,,,,,,,,,,,,,,,,0,3,3,1,1,,,,,,,,,,,,,,,,,,,,,,,,,,,,,,,,,,,,,,,,,,,,,,
610727,001,2022-11-21_01h55.02.938,Info_measure_main_exp,2022.2.2,Win32,164.8261085,,,,,,,,,,,,,,,,,,masks/mask_005.jpg,,,,,,,,,,,,,,,,,,,,,,,,,,,,,,,,,,,,,,,,,,,0,4,4,4,1,,,,,,,,,,,,,,,,,,,,,,,,,,,,,,,,,,,,,,,,,,,,,,
610727,001,2022-11-21_01h55.02.938,Info_measure_main_exp,2022.2.2,Win32,164.8261085,,,,,,,,,,,,,,,,,,masks/mask_001.jpg,,,,,,,,,,,,,,,,,,,,,,,,,,,,,,,,,,,,,,,,,,,,,,,,0,0,0,0,1,,,,,,,,,,,,,,,,,,,,,,,,,,,,,,,,,,,,,,,,,
610727,001,2022-11-21_01h55.02.938,Info_measure_main_exp,2022.2.2,Win32,164.8261085,,,,,,,,,,,,,,,,,,masks/mask_004.jpg,,,,,,,,,,,,,,,,,,,,,,,,,,,,,,,,,,,,,,,,,,,,,,,,0,1,1,3,1,,,,,,,,,,,,,,,,,,,,,,,,,,,,,,,,,,,,,,,,,
610727,001,2022-11-21_01h55.02.938,Info_measure_main_exp,2022.2.2,Win32,164.8261085,,,,,,,,,,,,,,,,,,masks/mask_003.jpg,,,,,,,,,,,,,,,,,,,,,,,,,,,,,,,,,,,,,,,,,,,,,,,,0,2,2,2,1,,,,,,,,,,,,,,,,,,,,,,,,,,,,,,,,,,,,,,,,,
610727,001,2022-11-21_01h55.02.938,Info_measure_main_exp,2022.2.2,Win32,164.8261085,,,,,,,,,,,,,,,,,,masks/mask_002.jpg,,,,,,,,,,,,,,,,,,,,,,,,,,,,,,,,,,,,,,,,,,,,,,,,0,3,3,1,1,,,,,,,,,,,,,,,,,,,,,,,,,,,,,,,,,,,,,,,,,
610727,001,2022-11-21_01h55.02.938,Info_measure_main_exp,2022.2.2,Win32,164.8261085,,,,,,,,,,,,,,,,,,masks/mask_005.jpg,,,,,,,,,,,,,,,,,,,,,,,,,,,,,,,,,,,,,,,,,,,,,,,,0,4,4,4,1,,,,,,,,,,,,,,,,,,,,,,,,,,,,,,,,,,,,,,,,,
610727,001,2022-11-21_01h55.02.938,Info_measure_main_exp,2022.2.2,Win32,164.8261085,,,,,,,,,,,,,,,,,,,,,,,,,,,,,,7,1.2301,1,,,,,,,,,,,,0,131,5,5,1974,2238,absent_patch/patch0001974.jpg,absent_patch/patch0002238.jpg,,,,,,,,,,,,,,,,,,,,0.045138889,0.122222212,1,0,0,response1disk,13,0.003472222,0.010416667,1,0,0,center_square,0,12,12,95,1,,,,,,,,,,,,,,,,,,,,,,,
610727,001,2022-11-21_01h55.02.938,Info_measure_main_exp,2022.2.2,Win32,164.8261085,,,,,,,,,,,,,,,,,,masks/mask_001.jpg,,,,,,,,,,,,,,,,,,,,,,,,,,,,,,,,,,,,,,,,,,,0,0,0,0,1,,,,,,,,,,,,,,,,,,,,,,,,,,,,,,,,,,,,,,,,,,,,,,
610727,001,2022-11-21_01h55.02.938,Info_measure_main_exp,2022.2.2,Win32,164.8261085,,,,,,,,,,,,,,,,,,masks/mask_004.jpg,,,,,,,,,,,,,,,,,,,,,,,,,,,,,,,,,,,,,,,,,,,0,1,1,3,1,,,,,,,,,,,,,,,,,,,,,,,,,,,,,,,,,,,,,,,,,,,,,,
610727,001,2022-11-21_01h55.02.938,Info_measure_main_exp,2022.2.2,Win32,164.8261085,,,,,,,,,,,,,,,,,,masks/mask_003.jpg,,,,,,,,,,,,,,,,,,,,,,,,,,,,,,,,,,,,,,,,,,,0,2,2,2,1,,,,,,,,,,,,,,,,,,,,,,,,,,,,,,,,,,,,,,,,,,,,,,
610727,001,2022-11-21_01h55.02.938,Info_measure_main_exp,2022.2.2,Win32,164.8261085,,,,,,,,,,,,,,,,,,masks/mask_002.jpg,,,,,,,,,,,,,,,,,,,,,,,,,,,,,,,,,,,,,,,,,,,0,3,3,1,1,,,,,,,,,,,,,,,,,,,,,,,,,,,,,,,,,,,,,,,,,,,,,,
610727,001,2022-11-21_01h55.02.938,Info_measure_main_exp,2022.2.2,Win32,164.8261085,,,,,,,,,,,,,,,,,,masks/mask_005.jpg,,,,,,,,,,,,,,,,,,,,,,,,,,,,,,,,,,,,,,,,,,,0,4,4,4,1,,,,,,,,,,,,,,,,,,,,,,,,,,,,,,,,,,,,,,,,,,,,,,
610727,001,2022-11-21_01h55.02.938,Info_measure_main_exp,2022.2.2,Win32,164.8261085,,,,,,,,,,,,,,,,,,masks/mask_004.jpg,,,,,,,,,,,,,,,,,,,,,,,,,,,,,,,,,,,,,,,,,,,,,,,,0,0,0,3,1,,,,,,,,,,,,,,,,,,,,,,,,,,,,,,,,,,,,,,,,,
610727,001,2022-11-21_01h55.02.938,Info_measure_main_exp,2022.2.2,Win32,164.8261085,,,,,,,,,,,,,,,,,,masks/mask_005.jpg,,,,,,,,,,,,,,,,,,,,,,,,,,,,,,,,,,,,,,,,,,,,,,,,0,1,1,4,1,,,,,,,,,,,,,,,,,,,,,,,,,,,,,,,,,,,,,,,,,
610727,001,2022-11-21_01h55.02.938,Info_measure_main_exp,2022.2.2,Win32,164.8261085,,,,,,,,,,,,,,,,,,masks/mask_001.jpg,,,,,,,,,,,,,,,,,,,,,,,,,,,,,,,,,,,,,,,,,,,,,,,,0,2,2,0,1,,,,,,,,,,,,,,,,,,,,,,,,,,,,,,,,,,,,,,,,,
610727,001,2022-11-21_01h55.02.938,Info_measure_main_exp,2022.2.2,Win32,164.8261085,,,,,,,,,,,,,,,,,,masks/mask_003.jpg,,,,,,,,,,,,,,,,,,,,,,,,,,,,,,,,,,,,,,,,,,,,,,,,0,3,3,2,1,,,,,,,,,,,,,,,,,,,,,,,,,,,,,,,,,,,,,,,,,
610727,001,2022-11-21_01h55.02.938,Info_measure_main_exp,2022.2.2,Win32,164.8261085,,,,,,,,,,,,,,,,,,masks/mask_002.jpg,,,,,,,,,,,,,,,,,,,,,,,,,,,,,,,,,,,,,,,,,,,,,,,,0,4,4,1,1,,,,,,,,,,,,,,,,,,,,,,,,,,,,,,,,,,,,,,,,,
610727,001,2022-11-21_01h55.02.938,Info_measure_main_exp,2022.2.2,Win32,164.8261085,,,,,,,,,,,,,,,,,,,,,,,,,,,,,,7,1.1212,1,,,,,,,,,,,,0,131,5,5,1950,2082,absent_patch/patch0001950.jpg,absent_patch/patch0002082.jpg,,,,,,,,,,,,,,,,,,,,0.050694466,0.149999989,1,0,0,response1disk,14,0.004166709,0.009722233,1,0,0,center_square,0,13,13,12,1,,,,,,,,,,,,,,,,,,,,,,,
610727,001,2022-11-21_01h55.02.938,Info_measure_main_exp,2022.2.2,Win32,164.8261085,,,,,,,,,,,,,,,,,,masks/mask_002.jpg,,,,,,,,,,,,,,,,,,,,,,,,,,,,,,,,,,,,,,,,,,,0,0,0,1,1,,,,,,,,,,,,,,,,,,,,,,,,,,,,,,,,,,,,,,,,,,,,,,
610727,001,2022-11-21_01h55.02.938,Info_measure_main_exp,2022.2.2,Win32,164.8261085,,,,,,,,,,,,,,,,,,masks/mask_001.jpg,,,,,,,,,,,,,,,,,,,,,,,,,,,,,,,,,,,,,,,,,,,0,1,1,0,1,,,,,,,,,,,,,,,,,,,,,,,,,,,,,,,,,,,,,,,,,,,,,,
610727,001,2022-11-21_01h55.02.938,Info_measure_main_exp,2022.2.2,Win32,164.8261085,,,,,,,,,,,,,,,,,,masks/mask_004.jpg,,,,,,,,,,,,,,,,,,,,,,,,,,,,,,,,,,,,,,,,,,,0,2,2,3,1,,,,,,,,,,,,,,,,,,,,,,,,,,,,,,,,,,,,,,,,,,,,,,
610727,001,2022-11-21_01h55.02.938,Info_measure_main_exp,2022.2.2,Win32,164.8261085,,,,,,,,,,,,,,,,,,masks/mask_005.jpg,,,,,,,,,,,,,,,,,,,,,,,,,,,,,,,,,,,,,,,,,,,0,3,3,4,1,,,,,,,,,,,,,,,,,,,,,,,,,,,,,,,,,,,,,,,,,,,,,,
610727,001,2022-11-21_01h55.02.938,Info_measure_main_exp,2022.2.2,Win32,164.8261085,,,,,,,,,,,,,,,,,,masks/mask_003.jpg,,,,,,,,,,,,,,,,,,,,,,,,,,,,,,,,,,,,,,,,,,,0,4,4,2,1,,,,,,,,,,,,,,,,,,,,,,,,,,,,,,,,,,,,,,,,,,,,,,
610727,001,2022-11-21_01h55.02.938,Info_measure_main_exp,2022.2.2,Win32,164.8261085,,,,,,,,,,,,,,,,,,masks/mask_001.jpg,,,,,,,,,,,,,,,,,,,,,,,,,,,,,,,,,,,,,,,,,,,,,,,,0,0,0,0,1,,,,,,,,,,,,,,,,,,,,,,,,,,,,,,,,,,,,,,,,,
610727,001,2022-11-21_01h55.02.938,Info_measure_main_exp,2022.2.2,Win32,164.8261085,,,,,,,,,,,,,,,,,,masks/mask_002.jpg,,,,,,,,,,,,,,,,,,,,,,,,,,,,,,,,,,,,,,,,,,,,,,,,0,1,1,1,1,,,,,,,,,,,,,,,,,,,,,,,,,,,,,,,,,,,,,,,,,
610727,001,2022-11-21_01h55.02.938,Info_measure_main_exp,2022.2.2,Win32,164.8261085,,,,,,,,,,,,,,,,,,masks/mask_004.jpg,,,,,,,,,,,,,,,,,,,,,,,,,,,,,,,,,,,,,,,,,,,,,,,,0,2,2,3,1,,,,,,,,,,,,,,,,,,,,,,,,,,,,,,,,,,,,,,,,,
610727,001,2022-11-21_01h55.02.938,Info_measure_main_exp,2022.2.2,Win32,164.8261085,,,,,,,,,,,,,,,,,,masks/mask_003.jpg,,,,,,,,,,,,,,,,,,,,,,,,,,,,,,,,,,,,,,,,,,,,,,,,0,3,3,2,1,,,,,,,,,,,,,,,,,,,,,,,,,,,,,,,,,,,,,,,,,
610727,001,2022-11-21_01h55.02.938,Info_measure_main_exp,2022.2.2,Win32,164.8261085,,,,,,,,,,,,,,,,,,masks/mask_005.jpg,,,,,,,,,,,,,,,,,,,,,,,,,,,,,,,,,,,,,,,,,,,,,,,,0,4,4,4,1,,,,,,,,,,,,,,,,,,,,,,,,,,,,,,,,,,,,,,,,,
610727,001,2022-11-21_01h55.02.938,Info_measure_main_exp,2022.2.2,Win32,164.8261085,,,,,,,,,,,,,,,,,,,,,,,,,,,,,,5,9.0838,1,,,,,,,,,,,,0,131,5,5,2190,2082,absent_patch/patch0002190.jpg,absent_patch/patch0002082.jpg,,,,,,,,,,,,,,,,,,,,0.115972201,-0.043055587,1,0,0,response3disk,15,0.009027799,-0.003472222,1,0,0,center_square,0,14,14,112,1,,,,,,,,,,,,,,,,,,,,,,,
610727,001,2022-11-21_01h55.02.938,Info_measure_main_exp,2022.2.2,Win32,164.8261085,,,,,,,,,,,,,,,,,,masks/mask_002.jpg,,,,,,,,,,,,,,,,,,,,,,,,,,,,,,,,,,,,,,,,,,,0,0,0,1,1,,,,,,,,,,,,,,,,,,,,,,,,,,,,,,,,,,,,,,,,,,,,,,
610727,001,2022-11-21_01h55.02.938,Info_measure_main_exp,2022.2.2,Win32,164.8261085,,,,,,,,,,,,,,,,,,masks/mask_003.jpg,,,,,,,,,,,,,,,,,,,,,,,,,,,,,,,,,,,,,,,,,,,0,1,1,2,1,,,,,,,,,,,,,,,,,,,,,,,,,,,,,,,,,,,,,,,,,,,,,,
610727,001,2022-11-21_01h55.02.938,Info_measure_main_exp,2022.2.2,Win32,164.8261085,,,,,,,,,,,,,,,,,,masks/mask_004.jpg,,,,,,,,,,,,,,,,,,,,,,,,,,,,,,,,,,,,,,,,,,,0,2,2,3,1,,,,,,,,,,,,,,,,,,,,,,,,,,,,,,,,,,,,,,,,,,,,,,
610727,001,2022-11-21_01h55.02.938,Info_measure_main_exp,2022.2.2,Win32,164.8261085,,,,,,,,,,,,,,,,,,masks/mask_001.jpg,,,,,,,,,,,,,,,,,,,,,,,,,,,,,,,,,,,,,,,,,,,0,3,3,0,1,,,,,,,,,,,,,,,,,,,,,,,,,,,,,,,,,,,,,,,,,,,,,,
610727,001,2022-11-21_01h55.02.938,Info_measure_main_exp,2022.2.2,Win32,164.8261085,,,,,,,,,,,,,,,,,,masks/mask_005.jpg,,,,,,,,,,,,,,,,,,,,,,,,,,,,,,,,,,,,,,,,,,,0,4,4,4,1,,,,,,,,,,,,,,,,,,,,,,,,,,,,,,,,,,,,,,,,,,,,,,
610727,001,2022-11-21_01h55.02.938,Info_measure_main_exp,2022.2.2,Win32,164.8261085,,,,,,,,,,,,,,,,,,masks/mask_004.jpg,,,,,,,,,,,,,,,,,,,,,,,,,,,,,,,,,,,,,,,,,,,,,,,,0,0,0,3,1,,,,,,,,,,,,,,,,,,,,,,,,,,,,,,,,,,,,,,,,,
610727,001,2022-11-21_01h55.02.938,Info_measure_main_exp,2022.2.2,Win32,164.8261085,,,,,,,,,,,,,,,,,,masks/mask_003.jpg,,,,,,,,,,,,,,,,,,,,,,,,,,,,,,,,,,,,,,,,,,,,,,,,0,1,1,2,1,,,,,,,,,,,,,,,,,,,,,,,,,,,,,,,,,,,,,,,,,
610727,001,2022-11-21_01h55.02.938,Info_measure_main_exp,2022.2.2,Win32,164.8261085,,,,,,,,,,,,,,,,,,masks/mask_002.jpg,,,,,,,,,,,,,,,,,,,,,,,,,,,,,,,,,,,,,,,,,,,,,,,,0,2,2,1,1,,,,,,,,,,,,,,,,,,,,,,,,,,,,,,,,,,,,,,,,,
610727,001,2022-11-21_01h55.02.938,Info_measure_main_exp,2022.2.2,Win32,164.8261085,,,,,,,,,,,,,,,,,,masks/mask_001.jpg,,,,,,,,,,,,,,,,,,,,,,,,,,,,,,,,,,,,,,,,,,,,,,,,0,3,3,0,1,,,,,,,,,,,,,,,,,,,,,,,,,,,,,,,,,,,,,,,,,
610727,001,2022-11-21_01h55.02.938,Info_measure_main_exp,2022.2.2,Win32,164.8261085,,,,,,,,,,,,,,,,,,masks/mask_005.jpg,,,,,,,,,,,,,,,,,,,,,,,,,,,,,,,,,,,,,,,,,,,,,,,,0,4,4,4,1,,,,,,,,,,,,,,,,,,,,,,,,,,,,,,,,,,,,,,,,,
610727,001,2022-11-21_01h55.02.938,Info_measure_main_exp,2022.2.2,Win32,164.8261085,,,,,,,,,,,,,,,,,,,,,,,,,,,,,,7,2.7686,1,,,,,,,,,,,,0,131,5,5,2142,2238,absent_patch/patch0002142.jpg,absent_patch/patch0002238.jpg,,,,,,,,,,,,,,,,,,,,0.043055534,0.131944444,1,0,0,response1disk,16,-0.001388868,-0.008333365,1,0,0,center_square,0,15,15,101,1,,,,,,,,,,,,,,,,,,,,,,,
610727,001,2022-11-21_01h55.02.938,Info_measure_main_exp,2022.2.2,Win32,164.8261085,,,,,,,,,,,,,,,,,,masks/mask_002.jpg,,,,,,,,,,,,,,,,,,,,,,,,,,,,,,,,,,,,,,,,,,,0,0,0,1,1,,,,,,,,,,,,,,,,,,,,,,,,,,,,,,,,,,,,,,,,,,,,,,
610727,001,2022-11-21_01h55.02.938,Info_measure_main_exp,2022.2.2,Win32,164.8261085,,,,,,,,,,,,,,,,,,masks/mask_001.jpg,,,,,,,,,,,,,,,,,,,,,,,,,,,,,,,,,,,,,,,,,,,0,1,1,0,1,,,,,,,,,,,,,,,,,,,,,,,,,,,,,,,,,,,,,,,,,,,,,,
610727,001,2022-11-21_01h55.02.938,Info_measure_main_exp,2022.2.2,Win32,164.8261085,,,,,,,,,,,,,,,,,,masks/mask_003.jpg,,,,,,,,,,,,,,,,,,,,,,,,,,,,,,,,,,,,,,,,,,,0,2,2,2,1,,,,,,,,,,,,,,,,,,,,,,,,,,,,,,,,,,,,,,,,,,,,,,
610727,001,2022-11-21_01h55.02.938,Info_measure_main_exp,2022.2.2,Win32,164.8261085,,,,,,,,,,,,,,,,,,masks/mask_005.jpg,,,,,,,,,,,,,,,,,,,,,,,,,,,,,,,,,,,,,,,,,,,0,3,3,4,1,,,,,,,,,,,,,,,,,,,,,,,,,,,,,,,,,,,,,,,,,,,,,,
610727,001,2022-11-21_01h55.02.938,Info_measure_main_exp,2022.2.2,Win32,164.8261085,,,,,,,,,,,,,,,,,,masks/mask_004.jpg,,,,,,,,,,,,,,,,,,,,,,,,,,,,,,,,,,,,,,,,,,,0,4,4,3,1,,,,,,,,,,,,,,,,,,,,,,,,,,,,,,,,,,,,,,,,,,,,,,
610727,001,2022-11-21_01h55.02.938,Info_measure_main_exp,2022.2.2,Win32,164.8261085,,,,,,,,,,,,,,,,,,masks/mask_005.jpg,,,,,,,,,,,,,,,,,,,,,,,,,,,,,,,,,,,,,,,,,,,,,,,,0,0,0,4,1,,,,,,,,,,,,,,,,,,,,,,,,,,,,,,,,,,,,,,,,,
610727,001,2022-11-21_01h55.02.938,Info_measure_main_exp,2022.2.2,Win32,164.8261085,,,,,,,,,,,,,,,,,,masks/mask_002.jpg,,,,,,,,,,,,,,,,,,,,,,,,,,,,,,,,,,,,,,,,,,,,,,,,0,1,1,1,1,,,,,,,,,,,,,,,,,,,,,,,,,,,,,,,,,,,,,,,,,
610727,001,2022-11-21_01h55.02.938,Info_measure_main_exp,2022.2.2,Win32,164.8261085,,,,,,,,,,,,,,,,,,masks/mask_003.jpg,,,,,,,,,,,,,,,,,,,,,,,,,,,,,,,,,,,,,,,,,,,,,,,,0,2,2,2,1,,,,,,,,,,,,,,,,,,,,,,,,,,,,,,,,,,,,,,,,,
610727,001,2022-11-21_01h55.02.938,Info_measure_main_exp,2022.2.2,Win32,164.8261085,,,,,,,,,,,,,,,,,,masks/mask_001.jpg,,,,,,,,,,,,,,,,,,,,,,,,,,,,,,,,,,,,,,,,,,,,,,,,0,3,3,0,1,,,,,,,,,,,,,,,,,,,,,,,,,,,,,,,,,,,,,,,,,
610727,001,2022-11-21_01h55.02.938,Info_measure_main_exp,2022.2.2,Win32,164.8261085,,,,,,,,,,,,,,,,,,masks/mask_004.jpg,,,,,,,,,,,,,,,,,,,,,,,,,,,,,,,,,,,,,,,,,,,,,,,,0,4,4,3,1,,,,,,,,,,,,,,,,,,,,,,,,,,,,,,,,,,,,,,,,,
610727,001,2022-11-21_01h55.02.938,Info_measure_main_exp,2022.2.2,Win32,164.8261085,,,,,,,,,,,,,,,,,,,,,,,,,,,,,,0,0.6787,1,,,,,,,,,,,,0,131,5,5,2238,2238,absent_patch/patch0002238.jpg,absent_patch/patch0002238.jpg,,,,,,,,,,,,,,,,,,,,-0.049999979,0.132638878,1,0,0,response7disk,17,-0.000694434,-0.002777788,1,0,0,center_square,0,16,16,58,1,,,,,,,,,,,,,,,,,,,,,,,
610727,001,2022-11-21_01h55.02.938,Info_measure_main_exp,2022.2.2,Win32,164.8261085,,,,,,,,,,,,,,,,,,masks/mask_001.jpg,,,,,,,,,,,,,,,,,,,,,,,,,,,,,,,,,,,,,,,,,,,0,0,0,0,1,,,,,,,,,,,,,,,,,,,,,,,,,,,,,,,,,,,,,,,,,,,,,,
610727,001,2022-11-21_01h55.02.938,Info_measure_main_exp,2022.2.2,Win32,164.8261085,,,,,,,,,,,,,,,,,,masks/mask_002.jpg,,,,,,,,,,,,,,,,,,,,,,,,,,,,,,,,,,,,,,,,,,,0,1,1,1,1,,,,,,,,,,,,,,,,,,,,,,,,,,,,,,,,,,,,,,,,,,,,,,
610727,001,2022-11-21_01h55.02.938,Info_measure_main_exp,2022.2.2,Win32,164.8261085,,,,,,,,,,,,,,,,,,masks/mask_003.jpg,,,,,,,,,,,,,,,,,,,,,,,,,,,,,,,,,,,,,,,,,,,0,2,2,2,1,,,,,,,,,,,,,,,,,,,,,,,,,,,,,,,,,,,,,,,,,,,,,,
610727,001,2022-11-21_01h55.02.938,Info_measure_main_exp,2022.2.2,Win32,164.8261085,,,,,,,,,,,,,,,,,,masks/mask_004.jpg,,,,,,,,,,,,,,,,,,,,,,,,,,,,,,,,,,,,,,,,,,,0,3,3,3,1,,,,,,,,,,,,,,,,,,,,,,,,,,,,,,,,,,,,,,,,,,,,,,
610727,001,2022-11-21_01h55.02.938,Info_measure_main_exp,2022.2.2,Win32,164.8261085,,,,,,,,,,,,,,,,,,masks/mask_005.jpg,,,,,,,,,,,,,,,,,,,,,,,,,,,,,,,,,,,,,,,,,,,0,4,4,4,1,,,,,,,,,,,,,,,,,,,,,,,,,,,,,,,,,,,,,,,,,,,,,,
610727,001,2022-11-21_01h55.02.938,Info_measure_main_exp,2022.2.2,Win32,164.8261085,,,,,,,,,,,,,,,,,,masks/mask_003.jpg,,,,,,,,,,,,,,,,,,,,,,,,,,,,,,,,,,,,,,,,,,,,,,,,0,0,0,2,1,,,,,,,,,,,,,,,,,,,,,,,,,,,,,,,,,,,,,,,,,
610727,001,2022-11-21_01h55.02.938,Info_measure_main_exp,2022.2.2,Win32,164.8261085,,,,,,,,,,,,,,,,,,masks/mask_001.jpg,,,,,,,,,,,,,,,,,,,,,,,,,,,,,,,,,,,,,,,,,,,,,,,,0,1,1,0,1,,,,,,,,,,,,,,,,,,,,,,,,,,,,,,,,,,,,,,,,,
610727,001,2022-11-21_01h55.02.938,Info_measure_main_exp,2022.2.2,Win32,164.8261085,,,,,,,,,,,,,,,,,,masks/mask_004.jpg,,,,,,,,,,,,,,,,,,,,,,,,,,,,,,,,,,,,,,,,,,,,,,,,0,2,2,3,1,,,,,,,,,,,,,,,,,,,,,,,,,,,,,,,,,,,,,,,,,
610727,001,2022-11-21_01h55.02.938,Info_measure_main_exp,2022.2.2,Win32,164.8261085,,,,,,,,,,,,,,,,,,masks/mask_002.jpg,,,,,,,,,,,,,,,,,,,,,,,,,,,,,,,,,,,,,,,,,,,,,,,,0,3,3,1,1,,,,,,,,,,,,,,,,,,,,,,,,,,,,,,,,,,,,,,,,,
610727,001,2022-11-21_01h55.02.938,Info_measure_main_exp,2022.2.2,Win32,164.8261085,,,,,,,,,,,,,,,,,,masks/mask_005.jpg,,,,,,,,,,,,,,,,,,,,,,,,,,,,,,,,,,,,,,,,,,,,,,,,0,4,4,4,1,,,,,,,,,,,,,,,,,,,,,,,,,,,,,,,,,,,,,,,,,
610727,001,2022-11-21_01h55.02.938,Info_measure_main_exp,2022.2.2,Win32,164.8261085,,,,,,,,,,,,,,,,,,,,,,,,,,,,,,7,1.8484,1,,,,,,,,,,,,0,131,5,5,2190,2178,absent_patch/patch0002190.jpg,absent_patch/patch0002178.jpg,,,,,,,,,,,,,,,,,,,,0.051388952,0.13055555,1,0,0,response1disk,18,-0.003472222,-0.003472222,1,0,0,center_square,0,17,17,14,1,,,,,,,,,,,,,,,,,,,,,,,
610727,001,2022-11-21_01h55.02.938,Info_measure_main_exp,2022.2.2,Win32,164.8261085,,,,,,,,,,,,,,,,,,masks/mask_002.jpg,,,,,,,,,,,,,,,,,,,,,,,,,,,,,,,,,,,,,,,,,,,0,0,0,1,1,,,,,,,,,,,,,,,,,,,,,,,,,,,,,,,,,,,,,,,,,,,,,,
610727,001,2022-11-21_01h55.02.938,Info_measure_main_exp,2022.2.2,Win32,164.8261085,,,,,,,,,,,,,,,,,,masks/mask_005.jpg,,,,,,,,,,,,,,,,,,,,,,,,,,,,,,,,,,,,,,,,,,,0,1,1,4,1,,,,,,,,,,,,,,,,,,,,,,,,,,,,,,,,,,,,,,,,,,,,,,
610727,001,2022-11-21_01h55.02.938,Info_measure_main_exp,2022.2.2,Win32,164.8261085,,,,,,,,,,,,,,,,,,masks/mask_003.jpg,,,,,,,,,,,,,,,,,,,,,,,,,,,,,,,,,,,,,,,,,,,0,2,2,2,1,,,,,,,,,,,,,,,,,,,,,,,,,,,,,,,,,,,,,,,,,,,,,,
610727,001,2022-11-21_01h55.02.938,Info_measure_main_exp,2022.2.2,Win32,164.8261085,,,,,,,,,,,,,,,,,,masks/mask_004.jpg,,,,,,,,,,,,,,,,,,,,,,,,,,,,,,,,,,,,,,,,,,,0,3,3,3,1,,,,,,,,,,,,,,,,,,,,,,,,,,,,,,,,,,,,,,,,,,,,,,
610727,001,2022-11-21_01h55.02.938,Info_measure_main_exp,2022.2.2,Win32,164.8261085,,,,,,,,,,,,,,,,,,masks/mask_001.jpg,,,,,,,,,,,,,,,,,,,,,,,,,,,,,,,,,,,,,,,,,,,0,4,4,0,1,,,,,,,,,,,,,,,,,,,,,,,,,,,,,,,,,,,,,,,,,,,,,,
610727,001,2022-11-21_01h55.02.938,Info_measure_main_exp,2022.2.2,Win32,164.8261085,,,,,,,,,,,,,,,,,,masks/mask_002.jpg,,,,,,,,,,,,,,,,,,,,,,,,,,,,,,,,,,,,,,,,,,,,,,,,0,0,0,1,1,,,,,,,,,,,,,,,,,,,,,,,,,,,,,,,,,,,,,,,,,
610727,001,2022-11-21_01h55.02.938,Info_measure_main_exp,2022.2.2,Win32,164.8261085,,,,,,,,,,,,,,,,,,masks/mask_005.jpg,,,,,,,,,,,,,,,,,,,,,,,,,,,,,,,,,,,,,,,,,,,,,,,,0,1,1,4,1,,,,,,,,,,,,,,,,,,,,,,,,,,,,,,,,,,,,,,,,,
610727,001,2022-11-21_01h55.02.938,Info_measure_main_exp,2022.2.2,Win32,164.8261085,,,,,,,,,,,,,,,,,,masks/mask_004.jpg,,,,,,,,,,,,,,,,,,,,,,,,,,,,,,,,,,,,,,,,,,,,,,,,0,2,2,3,1,,,,,,,,,,,,,,,,,,,,,,,,,,,,,,,,,,,,,,,,,
610727,001,2022-11-21_01h55.02.938,Info_measure_main_exp,2022.2.2,Win32,164.8261085,,,,,,,,,,,,,,,,,,masks/mask_003.jpg,,,,,,,,,,,,,,,,,,,,,,,,,,,,,,,,,,,,,,,,,,,,,,,,0,3,3,2,1,,,,,,,,,,,,,,,,,,,,,,,,,,,,,,,,,,,,,,,,,
610727,001,2022-11-21_01h55.02.938,Info_measure_main_exp,2022.2.2,Win32,164.8261085,,,,,,,,,,,,,,,,,,masks/mask_001.jpg,,,,,,,,,,,,,,,,,,,,,,,,,,,,,,,,,,,,,,,,,,,,,,,,0,4,4,0,1,,,,,,,,,,,,,,,,,,,,,,,,,,,,,,,,,,,,,,,,,
610727,001,2022-11-21_01h55.02.938,Info_measure_main_exp,2022.2.2,Win32,164.8261085,,,,,,,,,,,,,,,,,,,,,,,,,,,,,,5,1.09,1,,,,,,,,,,,,1,131,5,5,1,2154,present_patch/cong_131_5_a.jpg,absent_patch/patch0002154.jpg,,,,,,,,,,,,,,,,,,,,0.100000064,-0.044444455,1,0,0,response3disk,19,0.006250064,-0.002083355,1,0,0,center_square,0,18,18,87,1,,,,,,,,,,,,,,,,,,,,,,,
610727,001,2022-11-21_01h55.02.938,Info_measure_main_exp,2022.2.2,Win32,164.8261085,,,,,,,,,,,,,,,,,,masks/mask_003.jpg,,,,,,,,,,,,,,,,,,,,,,,,,,,,,,,,,,,,,,,,,,,0,0,0,2,1,,,,,,,,,,,,,,,,,,,,,,,,,,,,,,,,,,,,,,,,,,,,,,
610727,001,2022-11-21_01h55.02.938,Info_measure_main_exp,2022.2.2,Win32,164.8261085,,,,,,,,,,,,,,,,,,masks/mask_004.jpg,,,,,,,,,,,,,,,,,,,,,,,,,,,,,,,,,,,,,,,,,,,0,1,1,3,1,,,,,,,,,,,,,,,,,,,,,,,,,,,,,,,,,,,,,,,,,,,,,,
610727,001,2022-11-21_01h55.02.938,Info_measure_main_exp,2022.2.2,Win32,164.8261085,,,,,,,,,,,,,,,,,,masks/mask_002.jpg,,,,,,,,,,,,,,,,,,,,,,,,,,,,,,,,,,,,,,,,,,,0,2,2,1,1,,,,,,,,,,,,,,,,,,,,,,,,,,,,,,,,,,,,,,,,,,,,,,
610727,001,2022-11-21_01h55.02.938,Info_measure_main_exp,2022.2.2,Win32,164.8261085,,,,,,,,,,,,,,,,,,masks/mask_001.jpg,,,,,,,,,,,,,,,,,,,,,,,,,,,,,,,,,,,,,,,,,,,0,3,3,0,1,,,,,,,,,,,,,,,,,,,,,,,,,,,,,,,,,,,,,,,,,,,,,,
610727,001,2022-11-21_01h55.02.938,Info_measure_main_exp,2022.2.2,Win32,164.8261085,,,,,,,,,,,,,,,,,,masks/mask_005.jpg,,,,,,,,,,,,,,,,,,,,,,,,,,,,,,,,,,,,,,,,,,,0,4,4,4,1,,,,,,,,,,,,,,,,,,,,,,,,,,,,,,,,,,,,,,,,,,,,,,
610727,001,2022-11-21_01h55.02.938,Info_measure_main_exp,2022.2.2,Win32,164.8261085,,,,,,,,,,,,,,,,,,masks/mask_003.jpg,,,,,,,,,,,,,,,,,,,,,,,,,,,,,,,,,,,,,,,,,,,,,,,,0,0,0,2,1,,,,,,,,,,,,,,,,,,,,,,,,,,,,,,,,,,,,,,,,,
610727,001,2022-11-21_01h55.02.938,Info_measure_main_exp,2022.2.2,Win32,164.8261085,,,,,,,,,,,,,,,,,,masks/mask_004.jpg,,,,,,,,,,,,,,,,,,,,,,,,,,,,,,,,,,,,,,,,,,,,,,,,0,1,1,3,1,,,,,,,,,,,,,,,,,,,,,,,,,,,,,,,,,,,,,,,,,
610727,001,2022-11-21_01h55.02.938,Info_measure_main_exp,2022.2.2,Win32,164.8261085,,,,,,,,,,,,,,,,,,masks/mask_001.jpg,,,,,,,,,,,,,,,,,,,,,,,,,,,,,,,,,,,,,,,,,,,,,,,,0,2,2,0,1,,,,,,,,,,,,,,,,,,,,,,,,,,,,,,,,,,,,,,,,,
610727,001,2022-11-21_01h55.02.938,Info_measure_main_exp,2022.2.2,Win32,164.8261085,,,,,,,,,,,,,,,,,,masks/mask_005.jpg,,,,,,,,,,,,,,,,,,,,,,,,,,,,,,,,,,,,,,,,,,,,,,,,0,3,3,4,1,,,,,,,,,,,,,,,,,,,,,,,,,,,,,,,,,,,,,,,,,
610727,001,2022-11-21_01h55.02.938,Info_measure_main_exp,2022.2.2,Win32,164.8261085,,,,,,,,,,,,,,,,,,masks/mask_002.jpg,,,,,,,,,,,,,,,,,,,,,,,,,,,,,,,,,,,,,,,,,,,,,,,,0,4,4,1,1,,,,,,,,,,,,,,,,,,,,,,,,,,,,,,,,,,,,,,,,,
610727,001,2022-11-21_01h55.02.938,Info_measure_main_exp,2022.2.2,Win32,164.8261085,,,,,,,,,,,,,,,,,,,,,,,,,,,,,,0,0.5419,1,,,,,,,,,,,,0,131,5,5,2154,2154,absent_patch/patch0002154.jpg,absent_patch/patch0002154.jpg,,,,,,,,,,,,,,,,,,,,-0.038194444,0.095138894,1,0,0,response7disk,20,-0.011111101,0.002083302,1,0,0,center_square,0,19,19,89,1,,,,,,,,,,,,,,,,,,,,,,,
610727,001,2022-11-21_01h55.02.938,Info_measure_main_exp,2022.2.2,Win32,164.8261085,,,,,,,,,,,,,,,,,,masks/mask_002.jpg,,,,,,,,,,,,,,,,,,,,,,,,,,,,,,,,,,,,,,,,,,,0,0,0,1,1,,,,,,,,,,,,,,,,,,,,,,,,,,,,,,,,,,,,,,,,,,,,,,
610727,001,2022-11-21_01h55.02.938,Info_measure_main_exp,2022.2.2,Win32,164.8261085,,,,,,,,,,,,,,,,,,masks/mask_003.jpg,,,,,,,,,,,,,,,,,,,,,,,,,,,,,,,,,,,,,,,,,,,0,1,1,2,1,,,,,,,,,,,,,,,,,,,,,,,,,,,,,,,,,,,,,,,,,,,,,,
610727,001,2022-11-21_01h55.02.938,Info_measure_main_exp,2022.2.2,Win32,164.8261085,,,,,,,,,,,,,,,,,,masks/mask_005.jpg,,,,,,,,,,,,,,,,,,,,,,,,,,,,,,,,,,,,,,,,,,,0,2,2,4,1,,,,,,,,,,,,,,,,,,,,,,,,,,,,,,,,,,,,,,,,,,,,,,
610727,001,2022-11-21_01h55.02.938,Info_measure_main_exp,2022.2.2,Win32,164.8261085,,,,,,,,,,,,,,,,,,masks/mask_004.jpg,,,,,,,,,,,,,,,,,,,,,,,,,,,,,,,,,,,,,,,,,,,0,3,3,3,1,,,,,,,,,,,,,,,,,,,,,,,,,,,,,,,,,,,,,,,,,,,,,,
610727,001,2022-11-21_01h55.02.938,Info_measure_main_exp,2022.2.2,Win32,164.8261085,,,,,,,,,,,,,,,,,,masks/mask_001.jpg,,,,,,,,,,,,,,,,,,,,,,,,,,,,,,,,,,,,,,,,,,,0,4,4,0,1,,,,,,,,,,,,,,,,,,,,,,,,,,,,,,,,,,,,,,,,,,,,,,
610727,001,2022-11-21_01h55.02.938,Info_measure_main_exp,2022.2.2,Win32,164.8261085,,,,,,,,,,,,,,,,,,masks/mask_003.jpg,,,,,,,,,,,,,,,,,,,,,,,,,,,,,,,,,,,,,,,,,,,,,,,,0,0,0,2,1,,,,,,,,,,,,,,,,,,,,,,,,,,,,,,,,,,,,,,,,,
610727,001,2022-11-21_01h55.02.938,Info_measure_main_exp,2022.2.2,Win32,164.8261085,,,,,,,,,,,,,,,,,,masks/mask_004.jpg,,,,,,,,,,,,,,,,,,,,,,,,,,,,,,,,,,,,,,,,,,,,,,,,0,1,1,3,1,,,,,,,,,,,,,,,,,,,,,,,,,,,,,,,,,,,,,,,,,
610727,001,2022-11-21_01h55.02.938,Info_measure_main_exp,2022.2.2,Win32,164.8261085,,,,,,,,,,,,,,,,,,masks/mask_002.jpg,,,,,,,,,,,,,,,,,,,,,,,,,,,,,,,,,,,,,,,,,,,,,,,,0,2,2,1,1,,,,,,,,,,,,,,,,,,,,,,,,,,,,,,,,,,,,,,,,,
610727,001,2022-11-21_01h55.02.938,Info_measure_main_exp,2022.2.2,Win32,164.8261085,,,,,,,,,,,,,,,,,,masks/mask_005.jpg,,,,,,,,,,,,,,,,,,,,,,,,,,,,,,,,,,,,,,,,,,,,,,,,0,3,3,4,1,,,,,,,,,,,,,,,,,,,,,,,,,,,,,,,,,,,,,,,,,
610727,001,2022-11-21_01h55.02.938,Info_measure_main_exp,2022.2.2,Win32,164.8261085,,,,,,,,,,,,,,,,,,masks/mask_001.jpg,,,,,,,,,,,,,,,,,,,,,,,,,,,,,,,,,,,,,,,,,,,,,,,,0,4,4,0,1,,,,,,,,,,,,,,,,,,,,,,,,,,,,,,,,,,,,,,,,,
610727,001,2022-11-21_01h55.02.938,Info_measure_main_exp,2022.2.2,Win32,164.8261085,,,,,,,,,,,,,,,,,,,,,,,,,,,,,,7,1.6452,1,,,,,,,,,,,,1,131,5,5,2250,1,absent_patch/patch0002250.jpg,present_patch/cong_131_5_a.jpg,,,,,,,,,,,,,,,,,,,,0.061111132,0.127083328,1,0,0,response1disk,21,-0.009027746,0.001388868,1,0,0,center_square,0,20,20,5,1,,,,,,,,,,,,,,,,,,,,,,,
610727,001,2022-11-21_01h55.02.938,Info_measure_main_exp,2022.2.2,Win32,164.8261085,,,,,,,,,,,,,,,,,,masks/mask_003.jpg,,,,,,,,,,,,,,,,,,,,,,,,,,,,,,,,,,,,,,,,,,,0,0,0,2,1,,,,,,,,,,,,,,,,,,,,,,,,,,,,,,,,,,,,,,,,,,,,,,
610727,001,2022-11-21_01h55.02.938,Info_measure_main_exp,2022.2.2,Win32,164.8261085,,,,,,,,,,,,,,,,,,masks/mask_004.jpg,,,,,,,,,,,,,,,,,,,,,,,,,,,,,,,,,,,,,,,,,,,0,1,1,3,1,,,,,,,,,,,,,,,,,,,,,,,,,,,,,,,,,,,,,,,,,,,,,,
610727,001,2022-11-21_01h55.02.938,Info_measure_main_exp,2022.2.2,Win32,164.8261085,,,,,,,,,,,,,,,,,,masks/mask_001.jpg,,,,,,,,,,,,,,,,,,,,,,,,,,,,,,,,,,,,,,,,,,,0,2,2,0,1,,,,,,,,,,,,,,,,,,,,,,,,,,,,,,,,,,,,,,,,,,,,,,
610727,001,2022-11-21_01h55.02.938,Info_measure_main_exp,2022.2.2,Win32,164.8261085,,,,,,,,,,,,,,,,,,masks/mask_005.jpg,,,,,,,,,,,,,,,,,,,,,,,,,,,,,,,,,,,,,,,,,,,0,3,3,4,1,,,,,,,,,,,,,,,,,,,,,,,,,,,,,,,,,,,,,,,,,,,,,,
610727,001,2022-11-21_01h55.02.938,Info_measure_main_exp,2022.2.2,Win32,164.8261085,,,,,,,,,,,,,,,,,,masks/mask_002.jpg,,,,,,,,,,,,,,,,,,,,,,,,,,,,,,,,,,,,,,,,,,,0,4,4,1,1,,,,,,,,,,,,,,,,,,,,,,,,,,,,,,,,,,,,,,,,,,,,,,
610727,001,2022-11-21_01h55.02.938,Info_measure_main_exp,2022.2.2,Win32,164.8261085,,,,,,,,,,,,,,,,,,masks/mask_005.jpg,,,,,,,,,,,,,,,,,,,,,,,,,,,,,,,,,,,,,,,,,,,,,,,,0,0,0,4,1,,,,,,,,,,,,,,,,,,,,,,,,,,,,,,,,,,,,,,,,,
610727,001,2022-11-21_01h55.02.938,Info_measure_main_exp,2022.2.2,Win32,164.8261085,,,,,,,,,,,,,,,,,,masks/mask_003.jpg,,,,,,,,,,,,,,,,,,,,,,,,,,,,,,,,,,,,,,,,,,,,,,,,0,1,1,2,1,,,,,,,,,,,,,,,,,,,,,,,,,,,,,,,,,,,,,,,,,
610727,001,2022-11-21_01h55.02.938,Info_measure_main_exp,2022.2.2,Win32,164.8261085,,,,,,,,,,,,,,,,,,masks/mask_002.jpg,,,,,,,,,,,,,,,,,,,,,,,,,,,,,,,,,,,,,,,,,,,,,,,,0,2,2,1,1,,,,,,,,,,,,,,,,,,,,,,,,,,,,,,,,,,,,,,,,,
610727,001,2022-11-21_01h55.02.938,Info_measure_main_exp,2022.2.2,Win32,164.8261085,,,,,,,,,,,,,,,,,,masks/mask_004.jpg,,,,,,,,,,,,,,,,,,,,,,,,,,,,,,,,,,,,,,,,,,,,,,,,0,3,3,3,1,,,,,,,,,,,,,,,,,,,,,,,,,,,,,,,,,,,,,,,,,
610727,001,2022-11-21_01h55.02.938,Info_measure_main_exp,2022.2.2,Win32,164.8261085,,,,,,,,,,,,,,,,,,masks/mask_001.jpg,,,,,,,,,,,,,,,,,,,,,,,,,,,,,,,,,,,,,,,,,,,,,,,,0,4,4,0,1,,,,,,,,,,,,,,,,,,,,,,,,,,,,,,,,,,,,,,,,,
610727,001,2022-11-21_01h55.02.938,Info_measure_main_exp,2022.2.2,Win32,164.8261085,,,,,,,,,,,,,,,,,,,,,,,,,,,,,,6,1.0846,1,,,,,,,,,,,,0,131,5,5,1974,2142,absent_patch/patch0001974.jpg,absent_patch/patch0002142.jpg,,,,,,,,,,,,,,,,,,,,0.113888952,0.021527767,1,0,0,response1disk,22,-0.003472222,0.002083302,1,0,0,center_square,0,21,21,38,1,,,,,,,,,,,,,,,,,,,,,,,
610727,001,2022-11-21_01h55.02.938,Info_measure_main_exp,2022.2.2,Win32,164.8261085,,,,,,,,,,,,,,,,,,masks/mask_001.jpg,,,,,,,,,,,,,,,,,,,,,,,,,,,,,,,,,,,,,,,,,,,0,0,0,0,1,,,,,,,,,,,,,,,,,,,,,,,,,,,,,,,,,,,,,,,,,,,,,,
610727,001,2022-11-21_01h55.02.938,Info_measure_main_exp,2022.2.2,Win32,164.8261085,,,,,,,,,,,,,,,,,,masks/mask_003.jpg,,,,,,,,,,,,,,,,,,,,,,,,,,,,,,,,,,,,,,,,,,,0,1,1,2,1,,,,,,,,,,,,,,,,,,,,,,,,,,,,,,,,,,,,,,,,,,,,,,
610727,001,2022-11-21_01h55.02.938,Info_measure_main_exp,2022.2.2,Win32,164.8261085,,,,,,,,,,,,,,,,,,masks/mask_002.jpg,,,,,,,,,,,,,,,,,,,,,,,,,,,,,,,,,,,,,,,,,,,0,2,2,1,1,,,,,,,,,,,,,,,,,,,,,,,,,,,,,,,,,,,,,,,,,,,,,,
610727,001,2022-11-21_01h55.02.938,Info_measure_main_exp,2022.2.2,Win32,164.8261085,,,,,,,,,,,,,,,,,,masks/mask_004.jpg,,,,,,,,,,,,,,,,,,,,,,,,,,,,,,,,,,,,,,,,,,,0,3,3,3,1,,,,,,,,,,,,,,,,,,,,,,,,,,,,,,,,,,,,,,,,,,,,,,
610727,001,2022-11-21_01h55.02.938,Info_measure_main_exp,2022.2.2,Win32,164.8261085,,,,,,,,,,,,,,,,,,masks/mask_005.jpg,,,,,,,,,,,,,,,,,,,,,,,,,,,,,,,,,,,,,,,,,,,0,4,4,4,1,,,,,,,,,,,,,,,,,,,,,,,,,,,,,,,,,,,,,,,,,,,,,,
610727,001,2022-11-21_01h55.02.938,Info_measure_main_exp,2022.2.2,Win32,164.8261085,,,,,,,,,,,,,,,,,,masks/mask_004.jpg,,,,,,,,,,,,,,,,,,,,,,,,,,,,,,,,,,,,,,,,,,,,,,,,0,0,0,3,1,,,,,,,,,,,,,,,,,,,,,,,,,,,,,,,,,,,,,,,,,
610727,001,2022-11-21_01h55.02.938,Info_measure_main_exp,2022.2.2,Win32,164.8261085,,,,,,,,,,,,,,,,,,masks/mask_002.jpg,,,,,,,,,,,,,,,,,,,,,,,,,,,,,,,,,,,,,,,,,,,,,,,,0,1,1,1,1,,,,,,,,,,,,,,,,,,,,,,,,,,,,,,,,,,,,,,,,,
610727,001,2022-11-21_01h55.02.938,Info_measure_main_exp,2022.2.2,Win32,164.8261085,,,,,,,,,,,,,,,,,,masks/mask_003.jpg,,,,,,,,,,,,,,,,,,,,,,,,,,,,,,,,,,,,,,,,,,,,,,,,0,2,2,2,1,,,,,,,,,,,,,,,,,,,,,,,,,,,,,,,,,,,,,,,,,
610727,001,2022-11-21_01h55.02.938,Info_measure_main_exp,2022.2.2,Win32,164.8261085,,,,,,,,,,,,,,,,,,masks/mask_005.jpg,,,,,,,,,,,,,,,,,,,,,,,,,,,,,,,,,,,,,,,,,,,,,,,,0,3,3,4,1,,,,,,,,,,,,,,,,,,,,,,,,,,,,,,,,,,,,,,,,,
610727,001,2022-11-21_01h55.02.938,Info_measure_main_exp,2022.2.2,Win32,164.8261085,,,,,,,,,,,,,,,,,,masks/mask_001.jpg,,,,,,,,,,,,,,,,,,,,,,,,,,,,,,,,,,,,,,,,,,,,,,,,0,4,4,0,1,,,,,,,,,,,,,,,,,,,,,,,,,,,,,,,,,,,,,,,,,
610727,001,2022-11-21_01h55.02.938,Info_measure_main_exp,2022.2.2,Win32,164.8261085,,,,,,,,,,,,,,,,,,,,,,,,,,,,,,7,5.3386,1,,,,,,,,,,,,0,131,5,5,2298,2214,absent_patch/patch0002298.jpg,absent_patch/patch0002214.jpg,,,,,,,,,,,,,,,,,,,,0.020138952,0.117361095,1,0,0,response1disk,23,0.004166709,0.006944444,1,0,0,center_square,0,22,22,99,1,,,,,,,,,,,,,,,,,,,,,,,
610727,001,2022-11-21_01h55.02.938,Info_measure_main_exp,2022.2.2,Win32,164.8261085,,,,,,,,,,,,,,,,,,masks/mask_003.jpg,,,,,,,,,,,,,,,,,,,,,,,,,,,,,,,,,,,,,,,,,,,0,0,0,2,1,,,,,,,,,,,,,,,,,,,,,,,,,,,,,,,,,,,,,,,,,,,,,,
610727,001,2022-11-21_01h55.02.938,Info_measure_main_exp,2022.2.2,Win32,164.8261085,,,,,,,,,,,,,,,,,,masks/mask_002.jpg,,,,,,,,,,,,,,,,,,,,,,,,,,,,,,,,,,,,,,,,,,,0,1,1,1,1,,,,,,,,,,,,,,,,,,,,,,,,,,,,,,,,,,,,,,,,,,,,,,
610727,001,2022-11-21_01h55.02.938,Info_measure_main_exp,2022.2.2,Win32,164.8261085,,,,,,,,,,,,,,,,,,masks/mask_005.jpg,,,,,,,,,,,,,,,,,,,,,,,,,,,,,,,,,,,,,,,,,,,0,2,2,4,1,,,,,,,,,,,,,,,,,,,,,,,,,,,,,,,,,,,,,,,,,,,,,,
610727,001,2022-11-21_01h55.02.938,Info_measure_main_exp,2022.2.2,Win32,164.8261085,,,,,,,,,,,,,,,,,,masks/mask_004.jpg,,,,,,,,,,,,,,,,,,,,,,,,,,,,,,,,,,,,,,,,,,,0,3,3,3,1,,,,,,,,,,,,,,,,,,,,,,,,,,,,,,,,,,,,,,,,,,,,,,
610727,001,2022-11-21_01h55.02.938,Info_measure_main_exp,2022.2.2,Win32,164.8261085,,,,,,,,,,,,,,,,,,masks/mask_001.jpg,,,,,,,,,,,,,,,,,,,,,,,,,,,,,,,,,,,,,,,,,,,0,4,4,0,1,,,,,,,,,,,,,,,,,,,,,,,,,,,,,,,,,,,,,,,,,,,,,,
610727,001,2022-11-21_01h55.02.938,Info_measure_main_exp,2022.2.2,Win32,164.8261085,,,,,,,,,,,,,,,,,,masks/mask_005.jpg,,,,,,,,,,,,,,,,,,,,,,,,,,,,,,,,,,,,,,,,,,,,,,,,0,0,0,4,1,,,,,,,,,,,,,,,,,,,,,,,,,,,,,,,,,,,,,,,,,
610727,001,2022-11-21_01h55.02.938,Info_measure_main_exp,2022.2.2,Win32,164.8261085,,,,,,,,,,,,,,,,,,masks/mask_002.jpg,,,,,,,,,,,,,,,,,,,,,,,,,,,,,,,,,,,,,,,,,,,,,,,,0,1,1,1,1,,,,,,,,,,,,,,,,,,,,,,,,,,,,,,,,,,,,,,,,,
610727,001,2022-11-21_01h55.02.938,Info_measure_main_exp,2022.2.2,Win32,164.8261085,,,,,,,,,,,,,,,,,,masks/mask_003.jpg,,,,,,,,,,,,,,,,,,,,,,,,,,,,,,,,,,,,,,,,,,,,,,,,0,2,2,2,1,,,,,,,,,,,,,,,,,,,,,,,,,,,,,,,,,,,,,,,,,
610727,001,2022-11-21_01h55.02.938,Info_measure_main_exp,2022.2.2,Win32,164.8261085,,,,,,,,,,,,,,,,,,masks/mask_001.jpg,,,,,,,,,,,,,,,,,,,,,,,,,,,,,,,,,,,,,,,,,,,,,,,,0,3,3,0,1,,,,,,,,,,,,,,,,,,,,,,,,,,,,,,,,,,,,,,,,,
610727,001,2022-11-21_01h55.02.938,Info_measure_main_exp,2022.2.2,Win32,164.8261085,,,,,,,,,,,,,,,,,,masks/mask_004.jpg,,,,,,,,,,,,,,,,,,,,,,,,,,,,,,,,,,,,,,,,,,,,,,,,0,4,4,3,1,,,,,,,,,,,,,,,,,,,,,,,,,,,,,,,,,,,,,,,,,
610727,001,2022-11-21_01h55.02.938,Info_measure_main_exp,2022.2.2,Win32,164.8261085,,,,,,,,,,,,,,,,,,,,,,,,,,,,,,5,1.581,1,,,,,,,,,,,,1,131,5,5,1,1986,present_patch/cong_131_5_a.jpg,absent_patch/patch0001986.jpg,,,,,,,,,,,,,,,,,,,,0.109722243,-0.061805566,1,0,0,response3disk,24,0.004166709,-0.005555577,1,0,0,center_square,0,23,23,106,1,,,,,,,,,,,,,,,,,,,,,,,
610727,001,2022-11-21_01h55.02.938,Info_measure_main_exp,2022.2.2,Win32,164.8261085,,,,,,,,,,,,,,,,,,masks/mask_001.jpg,,,,,,,,,,,,,,,,,,,,,,,,,,,,,,,,,,,,,,,,,,,0,0,0,0,1,,,,,,,,,,,,,,,,,,,,,,,,,,,,,,,,,,,,,,,,,,,,,,
610727,001,2022-11-21_01h55.02.938,Info_measure_main_exp,2022.2.2,Win32,164.8261085,,,,,,,,,,,,,,,,,,masks/mask_004.jpg,,,,,,,,,,,,,,,,,,,,,,,,,,,,,,,,,,,,,,,,,,,0,1,1,3,1,,,,,,,,,,,,,,,,,,,,,,,,,,,,,,,,,,,,,,,,,,,,,,
610727,001,2022-11-21_01h55.02.938,Info_measure_main_exp,2022.2.2,Win32,164.8261085,,,,,,,,,,,,,,,,,,masks/mask_003.jpg,,,,,,,,,,,,,,,,,,,,,,,,,,,,,,,,,,,,,,,,,,,0,2,2,2,1,,,,,,,,,,,,,,,,,,,,,,,,,,,,,,,,,,,,,,,,,,,,,,
610727,001,2022-11-21_01h55.02.938,Info_measure_main_exp,2022.2.2,Win32,164.8261085,,,,,,,,,,,,,,,,,,masks/mask_002.jpg,,,,,,,,,,,,,,,,,,,,,,,,,,,,,,,,,,,,,,,,,,,0,3,3,1,1,,,,,,,,,,,,,,,,,,,,,,,,,,,,,,,,,,,,,,,,,,,,,,
610727,001,2022-11-21_01h55.02.938,Info_measure_main_exp,2022.2.2,Win32,164.8261085,,,,,,,,,,,,,,,,,,masks/mask_005.jpg,,,,,,,,,,,,,,,,,,,,,,,,,,,,,,,,,,,,,,,,,,,0,4,4,4,1,,,,,,,,,,,,,,,,,,,,,,,,,,,,,,,,,,,,,,,,,,,,,,
610727,001,2022-11-21_01h55.02.938,Info_measure_main_exp,2022.2.2,Win32,164.8261085,,,,,,,,,,,,,,,,,,masks/mask_002.jpg,,,,,,,,,,,,,,,,,,,,,,,,,,,,,,,,,,,,,,,,,,,,,,,,0,0,0,1,1,,,,,,,,,,,,,,,,,,,,,,,,,,,,,,,,,,,,,,,,,
610727,001,2022-11-21_01h55.02.938,Info_measure_main_exp,2022.2.2,Win32,164.8261085,,,,,,,,,,,,,,,,,,masks/mask_001.jpg,,,,,,,,,,,,,,,,,,,,,,,,,,,,,,,,,,,,,,,,,,,,,,,,0,1,1,0,1,,,,,,,,,,,,,,,,,,,,,,,,,,,,,,,,,,,,,,,,,
610727,001,2022-11-21_01h55.02.938,Info_measure_main_exp,2022.2.2,Win32,164.8261085,,,,,,,,,,,,,,,,,,masks/mask_003.jpg,,,,,,,,,,,,,,,,,,,,,,,,,,,,,,,,,,,,,,,,,,,,,,,,0,2,2,2,1,,,,,,,,,,,,,,,,,,,,,,,,,,,,,,,,,,,,,,,,,
610727,001,2022-11-21_01h55.02.938,Info_measure_main_exp,2022.2.2,Win32,164.8261085,,,,,,,,,,,,,,,,,,masks/mask_005.jpg,,,,,,,,,,,,,,,,,,,,,,,,,,,,,,,,,,,,,,,,,,,,,,,,0,3,3,4,1,,,,,,,,,,,,,,,,,,,,,,,,,,,,,,,,,,,,,,,,,
610727,001,2022-11-21_01h55.02.938,Info_measure_main_exp,2022.2.2,Win32,164.8261085,,,,,,,,,,,,,,,,,,masks/mask_004.jpg,,,,,,,,,,,,,,,,,,,,,,,,,,,,,,,,,,,,,,,,,,,,,,,,0,4,4,3,1,,,,,,,,,,,,,,,,,,,,,,,,,,,,,,,,,,,,,,,,,
610727,001,2022-11-21_01h55.02.938,Info_measure_main_exp,2022.2.2,Win32,164.8261085,,,,,,,,,,,,,,,,,,,,,,,,,,,,,,5,11.5678,1,,,,,,,,,,,,0,131,5,5,2214,2142,absent_patch/patch0002214.jpg,absent_patch/patch0002142.jpg,,,,,,,,,,,,,,,,,,,,0.081944466,-0.079861111,1,0,0,response3disk,25,-0.009722233,0.015277757,1,0,0,center_square,0,24,24,102,1,,,,,,,,,,,,,,,,,,,,,,,
610727,001,2022-11-21_01h55.02.938,Info_measure_main_exp,2022.2.2,Win32,164.8261085,,,,,,,,,,,,,,,,,,masks/mask_005.jpg,,,,,,,,,,,,,,,,,,,,,,,,,,,,,,,,,,,,,,,,,,,0,0,0,4,1,,,,,,,,,,,,,,,,,,,,,,,,,,,,,,,,,,,,,,,,,,,,,,
610727,001,2022-11-21_01h55.02.938,Info_measure_main_exp,2022.2.2,Win32,164.8261085,,,,,,,,,,,,,,,,,,masks/mask_002.jpg,,,,,,,,,,,,,,,,,,,,,,,,,,,,,,,,,,,,,,,,,,,0,1,1,1,1,,,,,,,,,,,,,,,,,,,,,,,,,,,,,,,,,,,,,,,,,,,,,,
610727,001,2022-11-21_01h55.02.938,Info_measure_main_exp,2022.2.2,Win32,164.8261085,,,,,,,,,,,,,,,,,,masks/mask_004.jpg,,,,,,,,,,,,,,,,,,,,,,,,,,,,,,,,,,,,,,,,,,,0,2,2,3,1,,,,,,,,,,,,,,,,,,,,,,,,,,,,,,,,,,,,,,,,,,,,,,
610727,001,2022-11-21_01h55.02.938,Info_measure_main_exp,2022.2.2,Win32,164.8261085,,,,,,,,,,,,,,,,,,masks/mask_001.jpg,,,,,,,,,,,,,,,,,,,,,,,,,,,,,,,,,,,,,,,,,,,0,3,3,0,1,,,,,,,,,,,,,,,,,,,,,,,,,,,,,,,,,,,,,,,,,,,,,,
610727,001,2022-11-21_01h55.02.938,Info_measure_main_exp,2022.2.2,Win32,164.8261085,,,,,,,,,,,,,,,,,,masks/mask_003.jpg,,,,,,,,,,,,,,,,,,,,,,,,,,,,,,,,,,,,,,,,,,,0,4,4,2,1,,,,,,,,,,,,,,,,,,,,,,,,,,,,,,,,,,,,,,,,,,,,,,
610727,001,2022-11-21_01h55.02.938,Info_measure_main_exp,2022.2.2,Win32,164.8261085,,,,,,,,,,,,,,,,,,masks/mask_005.jpg,,,,,,,,,,,,,,,,,,,,,,,,,,,,,,,,,,,,,,,,,,,,,,,,0,0,0,4,1,,,,,,,,,,,,,,,,,,,,,,,,,,,,,,,,,,,,,,,,,
610727,001,2022-11-21_01h55.02.938,Info_measure_main_exp,2022.2.2,Win32,164.8261085,,,,,,,,,,,,,,,,,,masks/mask_001.jpg,,,,,,,,,,,,,,,,,,,,,,,,,,,,,,,,,,,,,,,,,,,,,,,,0,1,1,0,1,,,,,,,,,,,,,,,,,,,,,,,,,,,,,,,,,,,,,,,,,
610727,001,2022-11-21_01h55.02.938,Info_measure_main_exp,2022.2.2,Win32,164.8261085,,,,,,,,,,,,,,,,,,masks/mask_002.jpg,,,,,,,,,,,,,,,,,,,,,,,,,,,,,,,,,,,,,,,,,,,,,,,,0,2,2,1,1,,,,,,,,,,,,,,,,,,,,,,,,,,,,,,,,,,,,,,,,,
610727,001,2022-11-21_01h55.02.938,Info_measure_main_exp,2022.2.2,Win32,164.8261085,,,,,,,,,,,,,,,,,,masks/mask_004.jpg,,,,,,,,,,,,,,,,,,,,,,,,,,,,,,,,,,,,,,,,,,,,,,,,0,3,3,3,1,,,,,,,,,,,,,,,,,,,,,,,,,,,,,,,,,,,,,,,,,
610727,001,2022-11-21_01h55.02.938,Info_measure_main_exp,2022.2.2,Win32,164.8261085,,,,,,,,,,,,,,,,,,masks/mask_003.jpg,,,,,,,,,,,,,,,,,,,,,,,,,,,,,,,,,,,,,,,,,,,,,,,,0,4,4,2,1,,,,,,,,,,,,,,,,,,,,,,,,,,,,,,,,,,,,,,,,,
610727,001,2022-11-21_01h55.02.938,Info_measure_main_exp,2022.2.2,Win32,164.8261085,,,,,,,,,,,,,,,,,,,,,,,,,,,,,,7,0.5211,1,,,,,,,,,,,,0,131,5,5,2190,1950,absent_patch/patch0002190.jpg,absent_patch/patch0001950.jpg,,,,,,,,,,,,,,,,,,,,0.037500064,0.118749989,1,0,0,response1disk,26,-0.000694434,-0.004861143,1,0,0,center_square,0,25,25,73,1,,,,,,,,,,,,,,,,,,,,,,,
610727,001,2022-11-21_01h55.02.938,Info_measure_main_exp,2022.2.2,Win32,164.8261085,,,,,,,,,,,,,,,,,,masks/mask_004.jpg,,,,,,,,,,,,,,,,,,,,,,,,,,,,,,,,,,,,,,,,,,,0,0,0,3,1,,,,,,,,,,,,,,,,,,,,,,,,,,,,,,,,,,,,,,,,,,,,,,
610727,001,2022-11-21_01h55.02.938,Info_measure_main_exp,2022.2.2,Win32,164.8261085,,,,,,,,,,,,,,,,,,masks/mask_001.jpg,,,,,,,,,,,,,,,,,,,,,,,,,,,,,,,,,,,,,,,,,,,0,1,1,0,1,,,,,,,,,,,,,,,,,,,,,,,,,,,,,,,,,,,,,,,,,,,,,,
610727,001,2022-11-21_01h55.02.938,Info_measure_main_exp,2022.2.2,Win32,164.8261085,,,,,,,,,,,,,,,,,,masks/mask_002.jpg,,,,,,,,,,,,,,,,,,,,,,,,,,,,,,,,,,,,,,,,,,,0,2,2,1,1,,,,,,,,,,,,,,,,,,,,,,,,,,,,,,,,,,,,,,,,,,,,,,
610727,001,2022-11-21_01h55.02.938,Info_measure_main_exp,2022.2.2,Win32,164.8261085,,,,,,,,,,,,,,,,,,masks/mask_003.jpg,,,,,,,,,,,,,,,,,,,,,,,,,,,,,,,,,,,,,,,,,,,0,3,3,2,1,,,,,,,,,,,,,,,,,,,,,,,,,,,,,,,,,,,,,,,,,,,,,,
610727,001,2022-11-21_01h55.02.938,Info_measure_main_exp,2022.2.2,Win32,164.8261085,,,,,,,,,,,,,,,,,,masks/mask_005.jpg,,,,,,,,,,,,,,,,,,,,,,,,,,,,,,,,,,,,,,,,,,,0,4,4,4,1,,,,,,,,,,,,,,,,,,,,,,,,,,,,,,,,,,,,,,,,,,,,,,
610727,001,2022-11-21_01h55.02.938,Info_measure_main_exp,2022.2.2,Win32,164.8261085,,,,,,,,,,,,,,,,,,masks/mask_004.jpg,,,,,,,,,,,,,,,,,,,,,,,,,,,,,,,,,,,,,,,,,,,,,,,,0,0,0,3,1,,,,,,,,,,,,,,,,,,,,,,,,,,,,,,,,,,,,,,,,,
610727,001,2022-11-21_01h55.02.938,Info_measure_main_exp,2022.2.2,Win32,164.8261085,,,,,,,,,,,,,,,,,,masks/mask_003.jpg,,,,,,,,,,,,,,,,,,,,,,,,,,,,,,,,,,,,,,,,,,,,,,,,0,1,1,2,1,,,,,,,,,,,,,,,,,,,,,,,,,,,,,,,,,,,,,,,,,
610727,001,2022-11-21_01h55.02.938,Info_measure_main_exp,2022.2.2,Win32,164.8261085,,,,,,,,,,,,,,,,,,masks/mask_005.jpg,,,,,,,,,,,,,,,,,,,,,,,,,,,,,,,,,,,,,,,,,,,,,,,,0,2,2,4,1,,,,,,,,,,,,,,,,,,,,,,,,,,,,,,,,,,,,,,,,,
610727,001,2022-11-21_01h55.02.938,Info_measure_main_exp,2022.2.2,Win32,164.8261085,,,,,,,,,,,,,,,,,,masks/mask_001.jpg,,,,,,,,,,,,,,,,,,,,,,,,,,,,,,,,,,,,,,,,,,,,,,,,0,3,3,0,1,,,,,,,,,,,,,,,,,,,,,,,,,,,,,,,,,,,,,,,,,
610727,001,2022-11-21_01h55.02.938,Info_measure_main_exp,2022.2.2,Win32,164.8261085,,,,,,,,,,,,,,,,,,masks/mask_002.jpg,,,,,,,,,,,,,,,,,,,,,,,,,,,,,,,,,,,,,,,,,,,,,,,,0,4,4,1,1,,,,,,,,,,,,,,,,,,,,,,,,,,,,,,,,,,,,,,,,,
610727,001,2022-11-21_01h55.02.938,Info_measure_main_exp,2022.2.2,Win32,164.8261085,,,,,,,,,,,,,,,,,,,,,,,,,,,,,,5,4.981,1,,,,,,,,,,,,0,131,5,5,2190,2190,absent_patch/patch0002190.jpg,absent_patch/patch0002190.jpg,,,,,,,,,,,,,,,,,,,,0.127083355,-0.054166688,1,0,0,response3disk,27,0.009722286,-0.012500021,1,0,0,center_square,0,26,26,86,1,,,,,,,,,,,,,,,,,,,,,,,
610727,001,2022-11-21_01h55.02.938,Info_measure_main_exp,2022.2.2,Win32,164.8261085,,,,,,,,,,,,,,,,,,masks/mask_004.jpg,,,,,,,,,,,,,,,,,,,,,,,,,,,,,,,,,,,,,,,,,,,0,0,0,3,1,,,,,,,,,,,,,,,,,,,,,,,,,,,,,,,,,,,,,,,,,,,,,,
610727,001,2022-11-21_01h55.02.938,Info_measure_main_exp,2022.2.2,Win32,164.8261085,,,,,,,,,,,,,,,,,,masks/mask_003.jpg,,,,,,,,,,,,,,,,,,,,,,,,,,,,,,,,,,,,,,,,,,,0,1,1,2,1,,,,,,,,,,,,,,,,,,,,,,,,,,,,,,,,,,,,,,,,,,,,,,
610727,001,2022-11-21_01h55.02.938,Info_measure_main_exp,2022.2.2,Win32,164.8261085,,,,,,,,,,,,,,,,,,masks/mask_002.jpg,,,,,,,,,,,,,,,,,,,,,,,,,,,,,,,,,,,,,,,,,,,0,2,2,1,1,,,,,,,,,,,,,,,,,,,,,,,,,,,,,,,,,,,,,,,,,,,,,,
610727,001,2022-11-21_01h55.02.938,Info_measure_main_exp,2022.2.2,Win32,164.8261085,,,,,,,,,,,,,,,,,,masks/mask_001.jpg,,,,,,,,,,,,,,,,,,,,,,,,,,,,,,,,,,,,,,,,,,,0,3,3,0,1,,,,,,,,,,,,,,,,,,,,,,,,,,,,,,,,,,,,,,,,,,,,,,
610727,001,2022-11-21_01h55.02.938,Info_measure_main_exp,2022.2.2,Win32,164.8261085,,,,,,,,,,,,,,,,,,masks/mask_005.jpg,,,,,,,,,,,,,,,,,,,,,,,,,,,,,,,,,,,,,,,,,,,0,4,4,4,1,,,,,,,,,,,,,,,,,,,,,,,,,,,,,,,,,,,,,,,,,,,,,,
610727,001,2022-11-21_01h55.02.938,Info_measure_main_exp,2022.2.2,Win32,164.8261085,,,,,,,,,,,,,,,,,,masks/mask_003.jpg,,,,,,,,,,,,,,,,,,,,,,,,,,,,,,,,,,,,,,,,,,,,,,,,0,0,0,2,1,,,,,,,,,,,,,,,,,,,,,,,,,,,,,,,,,,,,,,,,,
610727,001,2022-11-21_01h55.02.938,Info_measure_main_exp,2022.2.2,Win32,164.8261085,,,,,,,,,,,,,,,,,,masks/mask_001.jpg,,,,,,,,,,,,,,,,,,,,,,,,,,,,,,,,,,,,,,,,,,,,,,,,0,1,1,0,1,,,,,,,,,,,,,,,,,,,,,,,,,,,,,,,,,,,,,,,,,
610727,001,2022-11-21_01h55.02.938,Info_measure_main_exp,2022.2.2,Win32,164.8261085,,,,,,,,,,,,,,,,,,masks/mask_004.jpg,,,,,,,,,,,,,,,,,,,,,,,,,,,,,,,,,,,,,,,,,,,,,,,,0,2,2,3,1,,,,,,,,,,,,,,,,,,,,,,,,,,,,,,,,,,,,,,,,,
610727,001,2022-11-21_01h55.02.938,Info_measure_main_exp,2022.2.2,Win32,164.8261085,,,,,,,,,,,,,,,,,,masks/mask_005.jpg,,,,,,,,,,,,,,,,,,,,,,,,,,,,,,,,,,,,,,,,,,,,,,,,0,3,3,4,1,,,,,,,,,,,,,,,,,,,,,,,,,,,,,,,,,,,,,,,,,
610727,001,2022-11-21_01h55.02.938,Info_measure_main_exp,2022.2.2,Win32,164.8261085,,,,,,,,,,,,,,,,,,masks/mask_002.jpg,,,,,,,,,,,,,,,,,,,,,,,,,,,,,,,,,,,,,,,,,,,,,,,,0,4,4,1,1,,,,,,,,,,,,,,,,,,,,,,,,,,,,,,,,,,,,,,,,,
610727,001,2022-11-21_01h55.02.938,Info_measure_main_exp,2022.2.2,Win32,164.8261085,,,,,,,,,,,,,,,,,,,,,,,,,,,,,,0,0.5978,1,,,,,,,,,,,,0,131,5,5,1950,1950,absent_patch/patch0001950.jpg,absent_patch/patch0001950.jpg,,,,,,,,,,,,,,,,,,,,-0.048611111,0.096527762,1,0,0,response7disk,28,-0.001388868,-0.000694434,1,0,0,center_square,0,27,27,92,1,,,,,,,,,,,,,,,,,,,,,,,
610727,001,2022-11-21_01h55.02.938,Info_measure_main_exp,2022.2.2,Win32,164.8261085,,,,,,,,,,,,,,,,,,masks/mask_004.jpg,,,,,,,,,,,,,,,,,,,,,,,,,,,,,,,,,,,,,,,,,,,0,0,0,3,1,,,,,,,,,,,,,,,,,,,,,,,,,,,,,,,,,,,,,,,,,,,,,,
610727,001,2022-11-21_01h55.02.938,Info_measure_main_exp,2022.2.2,Win32,164.8261085,,,,,,,,,,,,,,,,,,masks/mask_003.jpg,,,,,,,,,,,,,,,,,,,,,,,,,,,,,,,,,,,,,,,,,,,0,1,1,2,1,,,,,,,,,,,,,,,,,,,,,,,,,,,,,,,,,,,,,,,,,,,,,,
610727,001,2022-11-21_01h55.02.938,Info_measure_main_exp,2022.2.2,Win32,164.8261085,,,,,,,,,,,,,,,,,,masks/mask_001.jpg,,,,,,,,,,,,,,,,,,,,,,,,,,,,,,,,,,,,,,,,,,,0,2,2,0,1,,,,,,,,,,,,,,,,,,,,,,,,,,,,,,,,,,,,,,,,,,,,,,
610727,001,2022-11-21_01h55.02.938,Info_measure_main_exp,2022.2.2,Win32,164.8261085,,,,,,,,,,,,,,,,,,masks/mask_005.jpg,,,,,,,,,,,,,,,,,,,,,,,,,,,,,,,,,,,,,,,,,,,0,3,3,4,1,,,,,,,,,,,,,,,,,,,,,,,,,,,,,,,,,,,,,,,,,,,,,,
610727,001,2022-11-21_01h55.02.938,Info_measure_main_exp,2022.2.2,Win32,164.8261085,,,,,,,,,,,,,,,,,,masks/mask_002.jpg,,,,,,,,,,,,,,,,,,,,,,,,,,,,,,,,,,,,,,,,,,,0,4,4,1,1,,,,,,,,,,,,,,,,,,,,,,,,,,,,,,,,,,,,,,,,,,,,,,
610727,001,2022-11-21_01h55.02.938,Info_measure_main_exp,2022.2.2,Win32,164.8261085,,,,,,,,,,,,,,,,,,masks/mask_001.jpg,,,,,,,,,,,,,,,,,,,,,,,,,,,,,,,,,,,,,,,,,,,,,,,,0,0,0,0,1,,,,,,,,,,,,,,,,,,,,,,,,,,,,,,,,,,,,,,,,,
610727,001,2022-11-21_01h55.02.938,Info_measure_main_exp,2022.2.2,Win32,164.8261085,,,,,,,,,,,,,,,,,,masks/mask_005.jpg,,,,,,,,,,,,,,,,,,,,,,,,,,,,,,,,,,,,,,,,,,,,,,,,0,1,1,4,1,,,,,,,,,,,,,,,,,,,,,,,,,,,,,,,,,,,,,,,,,
610727,001,2022-11-21_01h55.02.938,Info_measure_main_exp,2022.2.2,Win32,164.8261085,,,,,,,,,,,,,,,,,,masks/mask_004.jpg,,,,,,,,,,,,,,,,,,,,,,,,,,,,,,,,,,,,,,,,,,,,,,,,0,2,2,3,1,,,,,,,,,,,,,,,,,,,,,,,,,,,,,,,,,,,,,,,,,
610727,001,2022-11-21_01h55.02.938,Info_measure_main_exp,2022.2.2,Win32,164.8261085,,,,,,,,,,,,,,,,,,masks/mask_002.jpg,,,,,,,,,,,,,,,,,,,,,,,,,,,,,,,,,,,,,,,,,,,,,,,,0,3,3,1,1,,,,,,,,,,,,,,,,,,,,,,,,,,,,,,,,,,,,,,,,,
610727,001,2022-11-21_01h55.02.938,Info_measure_main_exp,2022.2.2,Win32,164.8261085,,,,,,,,,,,,,,,,,,masks/mask_003.jpg,,,,,,,,,,,,,,,,,,,,,,,,,,,,,,,,,,,,,,,,,,,,,,,,0,4,4,2,1,,,,,,,,,,,,,,,,,,,,,,,,,,,,,,,,,,,,,,,,,
610727,001,2022-11-21_01h55.02.938,Info_measure_main_exp,2022.2.2,Win32,164.8261085,,,,,,,,,,,,,,,,,,,,,,,,,,,,,,7,1.5271,1,,,,,,,,,,,,0,131,5,5,2178,2166,absent_patch/patch0002178.jpg,absent_patch/patch0002166.jpg,,,,,,,,,,,,,,,,,,,,0.052083333,0.133333339,1,0,0,response1disk,29,0.012500021,0.006250011,1,0,0,center_square,0,28,28,72,1,,,,,,,,,,,,,,,,,,,,,,,
610727,001,2022-11-21_01h55.02.938,Info_measure_main_exp,2022.2.2,Win32,164.8261085,,,,,,,,,,,,,,,,,,masks/mask_005.jpg,,,,,,,,,,,,,,,,,,,,,,,,,,,,,,,,,,,,,,,,,,,0,0,0,4,1,,,,,,,,,,,,,,,,,,,,,,,,,,,,,,,,,,,,,,,,,,,,,,
610727,001,2022-11-21_01h55.02.938,Info_measure_main_exp,2022.2.2,Win32,164.8261085,,,,,,,,,,,,,,,,,,masks/mask_004.jpg,,,,,,,,,,,,,,,,,,,,,,,,,,,,,,,,,,,,,,,,,,,0,1,1,3,1,,,,,,,,,,,,,,,,,,,,,,,,,,,,,,,,,,,,,,,,,,,,,,
610727,001,2022-11-21_01h55.02.938,Info_measure_main_exp,2022.2.2,Win32,164.8261085,,,,,,,,,,,,,,,,,,masks/mask_001.jpg,,,,,,,,,,,,,,,,,,,,,,,,,,,,,,,,,,,,,,,,,,,0,2,2,0,1,,,,,,,,,,,,,,,,,,,,,,,,,,,,,,,,,,,,,,,,,,,,,,
610727,001,2022-11-21_01h55.02.938,Info_measure_main_exp,2022.2.2,Win32,164.8261085,,,,,,,,,,,,,,,,,,masks/mask_002.jpg,,,,,,,,,,,,,,,,,,,,,,,,,,,,,,,,,,,,,,,,,,,0,3,3,1,1,,,,,,,,,,,,,,,,,,,,,,,,,,,,,,,,,,,,,,,,,,,,,,
610727,001,2022-11-21_01h55.02.938,Info_measure_main_exp,2022.2.2,Win32,164.8261085,,,,,,,,,,,,,,,,,,masks/mask_003.jpg,,,,,,,,,,,,,,,,,,,,,,,,,,,,,,,,,,,,,,,,,,,0,4,4,2,1,,,,,,,,,,,,,,,,,,,,,,,,,,,,,,,,,,,,,,,,,,,,,,
610727,001,2022-11-21_01h55.02.938,Info_measure_main_exp,2022.2.2,Win32,164.8261085,,,,,,,,,,,,,,,,,,masks/mask_005.jpg,,,,,,,,,,,,,,,,,,,,,,,,,,,,,,,,,,,,,,,,,,,,,,,,0,0,0,4,1,,,,,,,,,,,,,,,,,,,,,,,,,,,,,,,,,,,,,,,,,
610727,001,2022-11-21_01h55.02.938,Info_measure_main_exp,2022.2.2,Win32,164.8261085,,,,,,,,,,,,,,,,,,masks/mask_001.jpg,,,,,,,,,,,,,,,,,,,,,,,,,,,,,,,,,,,,,,,,,,,,,,,,0,1,1,0,1,,,,,,,,,,,,,,,,,,,,,,,,,,,,,,,,,,,,,,,,,
610727,001,2022-11-21_01h55.02.938,Info_measure_main_exp,2022.2.2,Win32,164.8261085,,,,,,,,,,,,,,,,,,masks/mask_002.jpg,,,,,,,,,,,,,,,,,,,,,,,,,,,,,,,,,,,,,,,,,,,,,,,,0,2,2,1,1,,,,,,,,,,,,,,,,,,,,,,,,,,,,,,,,,,,,,,,,,
610727,001,2022-11-21_01h55.02.938,Info_measure_main_exp,2022.2.2,Win32,164.8261085,,,,,,,,,,,,,,,,,,masks/mask_003.jpg,,,,,,,,,,,,,,,,,,,,,,,,,,,,,,,,,,,,,,,,,,,,,,,,0,3,3,2,1,,,,,,,,,,,,,,,,,,,,,,,,,,,,,,,,,,,,,,,,,
610727,001,2022-11-21_01h55.02.938,Info_measure_main_exp,2022.2.2,Win32,164.8261085,,,,,,,,,,,,,,,,,,masks/mask_004.jpg,,,,,,,,,,,,,,,,,,,,,,,,,,,,,,,,,,,,,,,,,,,,,,,,0,4,4,3,1,,,,,,,,,,,,,,,,,,,,,,,,,,,,,,,,,,,,,,,,,
610727,001,2022-11-21_01h55.02.938,Info_measure_main_exp,2022.2.2,Win32,164.8261085,,,,,,,,,,,,,,,,,,,,,,,,,,,,,,5,0.7052,1,,,,,,,,,,,,0,131,5,5,2082,2250,absent_patch/patch0002082.jpg,absent_patch/patch0002250.jpg,,,,,,,,,,,,,,,,,,,,0.112499979,-0.059722212,1,0,0,response3disk,30,0.00486109,-0.002777788,1,0,0,center_square,0,29,29,3,1,,,,,,,,,,,,,,,,,,,,,,,
610727,001,2022-11-21_01h55.02.938,Info_measure_main_exp,2022.2.2,Win32,164.8261085,,,,,,,,,,,,,,,,,,masks/mask_001.jpg,,,,,,,,,,,,,,,,,,,,,,,,,,,,,,,,,,,,,,,,,,,0,0,0,0,1,,,,,,,,,,,,,,,,,,,,,,,,,,,,,,,,,,,,,,,,,,,,,,
610727,001,2022-11-21_01h55.02.938,Info_measure_main_exp,2022.2.2,Win32,164.8261085,,,,,,,,,,,,,,,,,,masks/mask_005.jpg,,,,,,,,,,,,,,,,,,,,,,,,,,,,,,,,,,,,,,,,,,,0,1,1,4,1,,,,,,,,,,,,,,,,,,,,,,,,,,,,,,,,,,,,,,,,,,,,,,
610727,001,2022-11-21_01h55.02.938,Info_measure_main_exp,2022.2.2,Win32,164.8261085,,,,,,,,,,,,,,,,,,masks/mask_004.jpg,,,,,,,,,,,,,,,,,,,,,,,,,,,,,,,,,,,,,,,,,,,0,2,2,3,1,,,,,,,,,,,,,,,,,,,,,,,,,,,,,,,,,,,,,,,,,,,,,,
610727,001,2022-11-21_01h55.02.938,Info_measure_main_exp,2022.2.2,Win32,164.8261085,,,,,,,,,,,,,,,,,,masks/mask_003.jpg,,,,,,,,,,,,,,,,,,,,,,,,,,,,,,,,,,,,,,,,,,,0,3,3,2,1,,,,,,,,,,,,,,,,,,,,,,,,,,,,,,,,,,,,,,,,,,,,,,
610727,001,2022-11-21_01h55.02.938,Info_measure_main_exp,2022.2.2,Win32,164.8261085,,,,,,,,,,,,,,,,,,masks/mask_002.jpg,,,,,,,,,,,,,,,,,,,,,,,,,,,,,,,,,,,,,,,,,,,0,4,4,1,1,,,,,,,,,,,,,,,,,,,,,,,,,,,,,,,,,,,,,,,,,,,,,,
610727,001,2022-11-21_01h55.02.938,Info_measure_main_exp,2022.2.2,Win32,164.8261085,,,,,,,,,,,,,,,,,,masks/mask_003.jpg,,,,,,,,,,,,,,,,,,,,,,,,,,,,,,,,,,,,,,,,,,,,,,,,0,0,0,2,1,,,,,,,,,,,,,,,,,,,,,,,,,,,,,,,,,,,,,,,,,
610727,001,2022-11-21_01h55.02.938,Info_measure_main_exp,2022.2.2,Win32,164.8261085,,,,,,,,,,,,,,,,,,masks/mask_004.jpg,,,,,,,,,,,,,,,,,,,,,,,,,,,,,,,,,,,,,,,,,,,,,,,,0,1,1,3,1,,,,,,,,,,,,,,,,,,,,,,,,,,,,,,,,,,,,,,,,,
610727,001,2022-11-21_01h55.02.938,Info_measure_main_exp,2022.2.2,Win32,164.8261085,,,,,,,,,,,,,,,,,,masks/mask_005.jpg,,,,,,,,,,,,,,,,,,,,,,,,,,,,,,,,,,,,,,,,,,,,,,,,0,2,2,4,1,,,,,,,,,,,,,,,,,,,,,,,,,,,,,,,,,,,,,,,,,
610727,001,2022-11-21_01h55.02.938,Info_measure_main_exp,2022.2.2,Win32,164.8261085,,,,,,,,,,,,,,,,,,masks/mask_001.jpg,,,,,,,,,,,,,,,,,,,,,,,,,,,,,,,,,,,,,,,,,,,,,,,,0,3,3,0,1,,,,,,,,,,,,,,,,,,,,,,,,,,,,,,,,,,,,,,,,,
610727,001,2022-11-21_01h55.02.938,Info_measure_main_exp,2022.2.2,Win32,164.8261085,,,,,,,,,,,,,,,,,,masks/mask_002.jpg,,,,,,,,,,,,,,,,,,,,,,,,,,,,,,,,,,,,,,,,,,,,,,,,0,4,4,1,1,,,,,,,,,,,,,,,,,,,,,,,,,,,,,,,,,,,,,,,,,
610727,001,2022-11-21_01h55.02.938,Info_measure_main_exp,2022.2.2,Win32,164.8261085,,,,,,,,,,,,,,,,,,,,,,,,,,,,,,7,0.5393,1,,,,,,,,,,,,0,131,5,5,1974,2298,absent_patch/patch0001974.jpg,absent_patch/patch0002298.jpg,,,,,,,,,,,,,,,,,,,,0.034722222,0.133333339,1,0,0,response1disk,31,-0.000694434,0.003472222,1,0,0,center_square,0,30,30,6,1,,,,,,,,,,,,,,,,,,,,,,,
610727,001,2022-11-21_01h55.02.938,Info_measure_main_exp,2022.2.2,Win32,164.8261085,,,,,,,,,,,,,,,,,,masks/mask_002.jpg,,,,,,,,,,,,,,,,,,,,,,,,,,,,,,,,,,,,,,,,,,,0,0,0,1,1,,,,,,,,,,,,,,,,,,,,,,,,,,,,,,,,,,,,,,,,,,,,,,
610727,001,2022-11-21_01h55.02.938,Info_measure_main_exp,2022.2.2,Win32,164.8261085,,,,,,,,,,,,,,,,,,masks/mask_001.jpg,,,,,,,,,,,,,,,,,,,,,,,,,,,,,,,,,,,,,,,,,,,0,1,1,0,1,,,,,,,,,,,,,,,,,,,,,,,,,,,,,,,,,,,,,,,,,,,,,,
610727,001,2022-11-21_01h55.02.938,Info_measure_main_exp,2022.2.2,Win32,164.8261085,,,,,,,,,,,,,,,,,,masks/mask_003.jpg,,,,,,,,,,,,,,,,,,,,,,,,,,,,,,,,,,,,,,,,,,,0,2,2,2,1,,,,,,,,,,,,,,,,,,,,,,,,,,,,,,,,,,,,,,,,,,,,,,
610727,001,2022-11-21_01h55.02.938,Info_measure_main_exp,2022.2.2,Win32,164.8261085,,,,,,,,,,,,,,,,,,masks/mask_004.jpg,,,,,,,,,,,,,,,,,,,,,,,,,,,,,,,,,,,,,,,,,,,0,3,3,3,1,,,,,,,,,,,,,,,,,,,,,,,,,,,,,,,,,,,,,,,,,,,,,,
610727,001,2022-11-21_01h55.02.938,Info_measure_main_exp,2022.2.2,Win32,164.8261085,,,,,,,,,,,,,,,,,,masks/mask_005.jpg,,,,,,,,,,,,,,,,,,,,,,,,,,,,,,,,,,,,,,,,,,,0,4,4,4,1,,,,,,,,,,,,,,,,,,,,,,,,,,,,,,,,,,,,,,,,,,,,,,
610727,001,2022-11-21_01h55.02.938,Info_measure_main_exp,2022.2.2,Win32,164.8261085,,,,,,,,,,,,,,,,,,masks/mask_004.jpg,,,,,,,,,,,,,,,,,,,,,,,,,,,,,,,,,,,,,,,,,,,,,,,,0,0,0,3,1,,,,,,,,,,,,,,,,,,,,,,,,,,,,,,,,,,,,,,,,,
610727,001,2022-11-21_01h55.02.938,Info_measure_main_exp,2022.2.2,Win32,164.8261085,,,,,,,,,,,,,,,,,,masks/mask_002.jpg,,,,,,,,,,,,,,,,,,,,,,,,,,,,,,,,,,,,,,,,,,,,,,,,0,1,1,1,1,,,,,,,,,,,,,,,,,,,,,,,,,,,,,,,,,,,,,,,,,
610727,001,2022-11-21_01h55.02.938,Info_measure_main_exp,2022.2.2,Win32,164.8261085,,,,,,,,,,,,,,,,,,masks/mask_003.jpg,,,,,,,,,,,,,,,,,,,,,,,,,,,,,,,,,,,,,,,,,,,,,,,,0,2,2,2,1,,,,,,,,,,,,,,,,,,,,,,,,,,,,,,,,,,,,,,,,,
610727,001,2022-11-21_01h55.02.938,Info_measure_main_exp,2022.2.2,Win32,164.8261085,,,,,,,,,,,,,,,,,,masks/mask_005.jpg,,,,,,,,,,,,,,,,,,,,,,,,,,,,,,,,,,,,,,,,,,,,,,,,0,3,3,4,1,,,,,,,,,,,,,,,,,,,,,,,,,,,,,,,,,,,,,,,,,
610727,001,2022-11-21_01h55.02.938,Info_measure_main_exp,2022.2.2,Win32,164.8261085,,,,,,,,,,,,,,,,,,masks/mask_001.jpg,,,,,,,,,,,,,,,,,,,,,,,,,,,,,,,,,,,,,,,,,,,,,,,,0,4,4,0,1,,,,,,,,,,,,,,,,,,,,,,,,,,,,,,,,,,,,,,,,,
610727,001,2022-11-21_01h55.02.938,Info_measure_main_exp,2022.2.2,Win32,164.8261085,,,,,,,,,,,,,,,,,,,,,,,,,,,,,,7,3.7517,1,,,,,,,,,,,,0,131,5,5,2250,2166,absent_patch/patch0002250.jpg,absent_patch/patch0002166.jpg,,,,,,,,,,,,,,,,,,,,0.055555556,0.122916672,1,0,0,response1disk,32,0.008333312,0.007638878,1,0,0,center_square,0,31,31,60,1,,,,,,,,,,,,,,,,,,,,,,,
610727,001,2022-11-21_01h55.02.938,Info_measure_main_exp,2022.2.2,Win32,164.8261085,,,,,,,,,,,,,,,,,,masks/mask_001.jpg,,,,,,,,,,,,,,,,,,,,,,,,,,,,,,,,,,,,,,,,,,,0,0,0,0,1,,,,,,,,,,,,,,,,,,,,,,,,,,,,,,,,,,,,,,,,,,,,,,
610727,001,2022-11-21_01h55.02.938,Info_measure_main_exp,2022.2.2,Win32,164.8261085,,,,,,,,,,,,,,,,,,masks/mask_004.jpg,,,,,,,,,,,,,,,,,,,,,,,,,,,,,,,,,,,,,,,,,,,0,1,1,3,1,,,,,,,,,,,,,,,,,,,,,,,,,,,,,,,,,,,,,,,,,,,,,,
610727,001,2022-11-21_01h55.02.938,Info_measure_main_exp,2022.2.2,Win32,164.8261085,,,,,,,,,,,,,,,,,,masks/mask_002.jpg,,,,,,,,,,,,,,,,,,,,,,,,,,,,,,,,,,,,,,,,,,,0,2,2,1,1,,,,,,,,,,,,,,,,,,,,,,,,,,,,,,,,,,,,,,,,,,,,,,
610727,001,2022-11-21_01h55.02.938,Info_measure_main_exp,2022.2.2,Win32,164.8261085,,,,,,,,,,,,,,,,,,masks/mask_003.jpg,,,,,,,,,,,,,,,,,,,,,,,,,,,,,,,,,,,,,,,,,,,0,3,3,2,1,,,,,,,,,,,,,,,,,,,,,,,,,,,,,,,,,,,,,,,,,,,,,,
610727,001,2022-11-21_01h55.02.938,Info_measure_main_exp,2022.2.2,Win32,164.8261085,,,,,,,,,,,,,,,,,,masks/mask_005.jpg,,,,,,,,,,,,,,,,,,,,,,,,,,,,,,,,,,,,,,,,,,,0,4,4,4,1,,,,,,,,,,,,,,,,,,,,,,,,,,,,,,,,,,,,,,,,,,,,,,
610727,001,2022-11-21_01h55.02.938,Info_measure_main_exp,2022.2.2,Win32,164.8261085,,,,,,,,,,,,,,,,,,masks/mask_001.jpg,,,,,,,,,,,,,,,,,,,,,,,,,,,,,,,,,,,,,,,,,,,,,,,,0,0,0,0,1,,,,,,,,,,,,,,,,,,,,,,,,,,,,,,,,,,,,,,,,,
610727,001,2022-11-21_01h55.02.938,Info_measure_main_exp,2022.2.2,Win32,164.8261085,,,,,,,,,,,,,,,,,,masks/mask_003.jpg,,,,,,,,,,,,,,,,,,,,,,,,,,,,,,,,,,,,,,,,,,,,,,,,0,1,1,2,1,,,,,,,,,,,,,,,,,,,,,,,,,,,,,,,,,,,,,,,,,
610727,001,2022-11-21_01h55.02.938,Info_measure_main_exp,2022.2.2,Win32,164.8261085,,,,,,,,,,,,,,,,,,masks/mask_004.jpg,,,,,,,,,,,,,,,,,,,,,,,,,,,,,,,,,,,,,,,,,,,,,,,,0,2,2,3,1,,,,,,,,,,,,,,,,,,,,,,,,,,,,,,,,,,,,,,,,,
610727,001,2022-11-21_01h55.02.938,Info_measure_main_exp,2022.2.2,Win32,164.8261085,,,,,,,,,,,,,,,,,,masks/mask_002.jpg,,,,,,,,,,,,,,,,,,,,,,,,,,,,,,,,,,,,,,,,,,,,,,,,0,3,3,1,1,,,,,,,,,,,,,,,,,,,,,,,,,,,,,,,,,,,,,,,,,
610727,001,2022-11-21_01h55.02.938,Info_measure_main_exp,2022.2.2,Win32,164.8261085,,,,,,,,,,,,,,,,,,masks/mask_005.jpg,,,,,,,,,,,,,,,,,,,,,,,,,,,,,,,,,,,,,,,,,,,,,,,,0,4,4,4,1,,,,,,,,,,,,,,,,,,,,,,,,,,,,,,,,,,,,,,,,,
610727,001,2022-11-21_01h55.02.938,Info_measure_main_exp,2022.2.2,Win32,164.8261085,,,,,,,,,,,,,,,,,,,,,,,,,,,,,,5,15.4549,1,,,,,,,,,,,,0,131,5,5,1986,1986,absent_patch/patch0001986.jpg,absent_patch/patch0001986.jpg,,,,,,,,,,,,,,,,,,,,0.145833333,-0.081250032,1,0,0,response3disk,33,-0.000694434,-0.002083355,1,0,0,center_square,0,32,32,19,1,,,,,,,,,,,,,,,,,,,,,,,
610727,001,2022-11-21_01h55.02.938,Info_measure_main_exp,2022.2.2,Win32,164.8261085,,,,,,,,,,,,,,,,,,masks/mask_002.jpg,,,,,,,,,,,,,,,,,,,,,,,,,,,,,,,,,,,,,,,,,,,0,0,0,1,1,,,,,,,,,,,,,,,,,,,,,,,,,,,,,,,,,,,,,,,,,,,,,,
610727,001,2022-11-21_01h55.02.938,Info_measure_main_exp,2022.2.2,Win32,164.8261085,,,,,,,,,,,,,,,,,,masks/mask_004.jpg,,,,,,,,,,,,,,,,,,,,,,,,,,,,,,,,,,,,,,,,,,,0,1,1,3,1,,,,,,,,,,,,,,,,,,,,,,,,,,,,,,,,,,,,,,,,,,,,,,
610727,001,2022-11-21_01h55.02.938,Info_measure_main_exp,2022.2.2,Win32,164.8261085,,,,,,,,,,,,,,,,,,masks/mask_001.jpg,,,,,,,,,,,,,,,,,,,,,,,,,,,,,,,,,,,,,,,,,,,0,2,2,0,1,,,,,,,,,,,,,,,,,,,,,,,,,,,,,,,,,,,,,,,,,,,,,,
610727,001,2022-11-21_01h55.02.938,Info_measure_main_exp,2022.2.2,Win32,164.8261085,,,,,,,,,,,,,,,,,,masks/mask_003.jpg,,,,,,,,,,,,,,,,,,,,,,,,,,,,,,,,,,,,,,,,,,,0,3,3,2,1,,,,,,,,,,,,,,,,,,,,,,,,,,,,,,,,,,,,,,,,,,,,,,
610727,001,2022-11-21_01h55.02.938,Info_measure_main_exp,2022.2.2,Win32,164.8261085,,,,,,,,,,,,,,,,,,masks/mask_005.jpg,,,,,,,,,,,,,,,,,,,,,,,,,,,,,,,,,,,,,,,,,,,0,4,4,4,1,,,,,,,,,,,,,,,,,,,,,,,,,,,,,,,,,,,,,,,,,,,,,,
610727,001,2022-11-21_01h55.02.938,Info_measure_main_exp,2022.2.2,Win32,164.8261085,,,,,,,,,,,,,,,,,,masks/mask_003.jpg,,,,,,,,,,,,,,,,,,,,,,,,,,,,,,,,,,,,,,,,,,,,,,,,0,0,0,2,1,,,,,,,,,,,,,,,,,,,,,,,,,,,,,,,,,,,,,,,,,
610727,001,2022-11-21_01h55.02.938,Info_measure_main_exp,2022.2.2,Win32,164.8261085,,,,,,,,,,,,,,,,,,masks/mask_002.jpg,,,,,,,,,,,,,,,,,,,,,,,,,,,,,,,,,,,,,,,,,,,,,,,,0,1,1,1,1,,,,,,,,,,,,,,,,,,,,,,,,,,,,,,,,,,,,,,,,,
610727,001,2022-11-21_01h55.02.938,Info_measure_main_exp,2022.2.2,Win32,164.8261085,,,,,,,,,,,,,,,,,,masks/mask_004.jpg,,,,,,,,,,,,,,,,,,,,,,,,,,,,,,,,,,,,,,,,,,,,,,,,0,2,2,3,1,,,,,,,,,,,,,,,,,,,,,,,,,,,,,,,,,,,,,,,,,
610727,001,2022-11-21_01h55.02.938,Info_measure_main_exp,2022.2.2,Win32,164.8261085,,,,,,,,,,,,,,,,,,masks/mask_005.jpg,,,,,,,,,,,,,,,,,,,,,,,,,,,,,,,,,,,,,,,,,,,,,,,,0,3,3,4,1,,,,,,,,,,,,,,,,,,,,,,,,,,,,,,,,,,,,,,,,,
610727,001,2022-11-21_01h55.02.938,Info_measure_main_exp,2022.2.2,Win32,164.8261085,,,,,,,,,,,,,,,,,,masks/mask_001.jpg,,,,,,,,,,,,,,,,,,,,,,,,,,,,,,,,,,,,,,,,,,,,,,,,0,4,4,0,1,,,,,,,,,,,,,,,,,,,,,,,,,,,,,,,,,,,,,,,,,
610727,001,2022-11-21_01h55.02.938,Info_measure_main_exp,2022.2.2,Win32,164.8261085,,,,,,,,,,,,,,,,,,,,,,,,,,,,,,5,1.7877,1,,,,,,,,,,,,0,131,5,5,2190,2238,absent_patch/patch0002190.jpg,absent_patch/patch0002238.jpg,,,,,,,,,,,,,,,,,,,,0.14166673,-0.095138921,1,0,0,response3disk,34,0.001388868,0.001388868,1,0,0,center_square,0,33,33,53,1,,,,,,,,,,,,,,,,,,,,,,,
610727,001,2022-11-21_01h55.02.938,Info_measure_main_exp,2022.2.2,Win32,164.8261085,,,,,,,,,,,,,,,,,,masks/mask_005.jpg,,,,,,,,,,,,,,,,,,,,,,,,,,,,,,,,,,,,,,,,,,,0,0,0,4,1,,,,,,,,,,,,,,,,,,,,,,,,,,,,,,,,,,,,,,,,,,,,,,
610727,001,2022-11-21_01h55.02.938,Info_measure_main_exp,2022.2.2,Win32,164.8261085,,,,,,,,,,,,,,,,,,masks/mask_003.jpg,,,,,,,,,,,,,,,,,,,,,,,,,,,,,,,,,,,,,,,,,,,0,1,1,2,1,,,,,,,,,,,,,,,,,,,,,,,,,,,,,,,,,,,,,,,,,,,,,,
610727,001,2022-11-21_01h55.02.938,Info_measure_main_exp,2022.2.2,Win32,164.8261085,,,,,,,,,,,,,,,,,,masks/mask_004.jpg,,,,,,,,,,,,,,,,,,,,,,,,,,,,,,,,,,,,,,,,,,,0,2,2,3,1,,,,,,,,,,,,,,,,,,,,,,,,,,,,,,,,,,,,,,,,,,,,,,
610727,001,2022-11-21_01h55.02.938,Info_measure_main_exp,2022.2.2,Win32,164.8261085,,,,,,,,,,,,,,,,,,masks/mask_002.jpg,,,,,,,,,,,,,,,,,,,,,,,,,,,,,,,,,,,,,,,,,,,0,3,3,1,1,,,,,,,,,,,,,,,,,,,,,,,,,,,,,,,,,,,,,,,,,,,,,,
610727,001,2022-11-21_01h55.02.938,Info_measure_main_exp,2022.2.2,Win32,164.8261085,,,,,,,,,,,,,,,,,,masks/mask_001.jpg,,,,,,,,,,,,,,,,,,,,,,,,,,,,,,,,,,,,,,,,,,,0,4,4,0,1,,,,,,,,,,,,,,,,,,,,,,,,,,,,,,,,,,,,,,,,,,,,,,
610727,001,2022-11-21_01h55.02.938,Info_measure_main_exp,2022.2.2,Win32,164.8261085,,,,,,,,,,,,,,,,,,masks/mask_002.jpg,,,,,,,,,,,,,,,,,,,,,,,,,,,,,,,,,,,,,,,,,,,,,,,,0,0,0,1,1,,,,,,,,,,,,,,,,,,,,,,,,,,,,,,,,,,,,,,,,,
610727,001,2022-11-21_01h55.02.938,Info_measure_main_exp,2022.2.2,Win32,164.8261085,,,,,,,,,,,,,,,,,,masks/mask_004.jpg,,,,,,,,,,,,,,,,,,,,,,,,,,,,,,,,,,,,,,,,,,,,,,,,0,1,1,3,1,,,,,,,,,,,,,,,,,,,,,,,,,,,,,,,,,,,,,,,,,
610727,001,2022-11-21_01h55.02.938,Info_measure_main_exp,2022.2.2,Win32,164.8261085,,,,,,,,,,,,,,,,,,masks/mask_005.jpg,,,,,,,,,,,,,,,,,,,,,,,,,,,,,,,,,,,,,,,,,,,,,,,,0,2,2,4,1,,,,,,,,,,,,,,,,,,,,,,,,,,,,,,,,,,,,,,,,,
610727,001,2022-11-21_01h55.02.938,Info_measure_main_exp,2022.2.2,Win32,164.8261085,,,,,,,,,,,,,,,,,,masks/mask_003.jpg,,,,,,,,,,,,,,,,,,,,,,,,,,,,,,,,,,,,,,,,,,,,,,,,0,3,3,2,1,,,,,,,,,,,,,,,,,,,,,,,,,,,,,,,,,,,,,,,,,
