participant,session,date,expName,psychopyVersion,OS,frameRate,space_press_continue.keys,space_press_continue.rt,space_press_continue_2.keys,space_press_continue_2.rt,space_press_continue_3.keys,space_press_continue_3.rt,space_press_continue_4.keys,space_press_continue_4.rt,space_press_continue_5.keys,space_press_continue_5.rt,space_press_continue_6.keys,space_press_continue_6.rt,prac_mask_loop_1.thisRepN,prac_mask_loop_1.thisTrialN,prac_mask_loop_1.thisN,prac_mask_loop_1.thisIndex,prac_mask_loop_1.ran,mask_name,prac_mask_loop_2.thisRepN,prac_mask_loop_2.thisTrialN,prac_mask_loop_2.thisN,prac_mask_loop_2.thisIndex,prac_mask_loop_2.ran,mouse_2.x,mouse_2.y,mouse_2.leftButton,mouse_2.midButton,mouse_2.rightButton,mouse_2.clicked_name,similarity,response_time,Pass,mouse_12.x,mouse_12.y,mouse_12.leftButton,mouse_12.midButton,mouse_12.rightButton,mouse_12.clicked_name,prac_loop.thisRepN,prac_loop.thisTrialN,prac_loop.thisN,prac_loop.thisIndex,prac_loop.ran,Pair_type,Image_num,Patch_1_loc,Patch_2_loc,Patch_1_info,Patch_2_info,Patch_1_name,Patch_2_name,mouse_1.x,mouse_1.y,mouse_1.leftButton,mouse_1.midButton,mouse_1.rightButton,mouse_1.time,mouse_1.clicked_name,space_press_continue_7.keys,space_press_continue_7.rt,mask_loop.thisRepN,mask_loop.thisTrialN,mask_loop.thisN,mask_loop.thisIndex,mask_loop.ran,mask_loop_2.thisRepN,mask_loop_2.thisTrialN,mask_loop_2.thisN,mask_loop_2.thisIndex,mask_loop_2.ran,mouse.x,mouse.y,mouse.leftButton,mouse.midButton,mouse.rightButton,mouse.clicked_name,trialNumber,mouse_11.x,mouse_11.y,mouse_11.leftButton,mouse_11.midButton,mouse_11.rightButton,mouse_11.clicked_name,first_pass_loop.thisRepN,first_pass_loop.thisTrialN,first_pass_loop.thisN,first_pass_loop.thisIndex,first_pass_loop.ran,mask_loop_3.thisRepN,mask_loop_3.thisTrialN,mask_loop_3.thisN,mask_loop_3.thisIndex,mask_loop_3.ran,mask_loop_4.thisRepN,mask_loop_4.thisTrialN,mask_loop_4.thisN,mask_loop_4.thisIndex,mask_loop_4.ran,mouse_3.x,mouse_3.y,mouse_3.leftButton,mouse_3.midButton,mouse_3.rightButton,mouse_3.clicked_name,double_pass_loop.thisRepN,double_pass_loop.thisTrialN,double_pass_loop.thisN,double_pass_loop.thisIndex,double_pass_loop.ran,space_exit.keys,space_exit.rt
611ebe16f706cd0ee4f4f876,001,2022-11-21_02h25.21.882,Info_measure_main_exp,2022.2.2,Win32,60.09976561,,,,,,,,,,,,,,,,,,,,,,,,,,,,,,,,,,,,,,,,,,,,,,,,,,,,,,,,,,,,,,,,,,,,,,,,,,,,,,,,,,,,,,,,,,,,,,,,,,,,,,,,,,,,,,,
611ebe16f706cd0ee4f4f876,001,2022-11-21_02h25.21.882,Info_measure_main_exp,2022.2.2,Win32,60.09976561,,,,,,,,,,,,,,,,,,,,,,,,,,,,,,,,,,,,,,,,,,,,,,,,,,,,,,,,,,,,,,,,,,,,,,,,,,,,,,,,,,,,,,,,,,,,,,,,,,,,,,,,,,,,,,,
611ebe16f706cd0ee4f4f876,001,2022-11-21_02h25.21.882,Info_measure_main_exp,2022.2.2,Win32,60.09976561,space,9.4203,,,,,,,,,,,,,,,,,,,,,,,,,,,,,,,,,,,,,,,,,,,,,,,,,,,,,,,,,,,,,,,,,,,,,,,,,,,,,,,,,,,,,,,,,,,,,,,,,,,,,,,,,,,,,
611ebe16f706cd0ee4f4f876,001,2022-11-21_02h25.21.882,Info_measure_main_exp,2022.2.2,Win32,60.09976561,,,space,1.6721,,,,,,,,,,,,,,,,,,,,,,,,,,,,,,,,,,,,,,,,,,,,,,,,,,,,,,,,,,,,,,,,,,,,,,,,,,,,,,,,,,,,,,,,,,,,,,,,,,,,,,,,,,,
611ebe16f706cd0ee4f4f876,001,2022-11-21_02h25.21.882,Info_measure_main_exp,2022.2.2,Win32,60.09976561,,,,,space,6.6428,,,,,,,,,,,,,,,,,,,,,,,,,,,,,,,,,,,,,,,,,,,,,,,,,,,,,,,,,,,,,,,,,,,,,,,,,,,,,,,,,,,,,,,,,,,,,,,,,,,,,,,,,
611ebe16f706cd0ee4f4f876,001,2022-11-21_02h25.21.882,Info_measure_main_exp,2022.2.2,Win32,60.09976561,,,,,,,space,1.8955,,,,,,,,,,,,,,,,,,,,,,,,,,,,,,,,,,,,,,,,,,,,,,,,,,,,,,,,,,,,,,,,,,,,,,,,,,,,,,,,,,,,,,,,,,,,,,,,,,,,,,,
611ebe16f706cd0ee4f4f876,001,2022-11-21_02h25.21.882,Info_measure_main_exp,2022.2.2,Win32,60.09976561,,,,,,,,,space,2.0971,,,,,,,,,,,,,,,,,,,,,,,,,,,,,,,,,,,,,,,,,,,,,,,,,,,,,,,,,,,,,,,,,,,,,,,,,,,,,,,,,,,,,,,,,,,,,,,,,,,,,
611ebe16f706cd0ee4f4f876,001,2022-11-21_02h25.21.882,Info_measure_main_exp,2022.2.2,Win32,60.09976561,,,,,,,,,,,space,2.5957,,,,,,,,,,,,,,,,,,,,,,,,,,,,,,,,,,,,,,,,,,,,,,,,,,,,,,,,,,,,,,,,,,,,,,,,,,,,,,,,,,,,,,,,,,,,,,,,,,,
611ebe16f706cd0ee4f4f876,001,2022-11-21_02h25.21.882,Info_measure_main_exp,2022.2.2,Win32,60.09976561,,,,,,,,,,,,,0,0,0,4,1,masks/mask_005.jpg,,,,,,,,,,,,,,,,,,,,,,,,,,,,,,,,,,,,,,,,,,,,,,,,,,,,,,,,,,,,,,,,,,,,,,,,,,,,,,,,,,,,,,,,,,,,,
611ebe16f706cd0ee4f4f876,001,2022-11-21_02h25.21.882,Info_measure_main_exp,2022.2.2,Win32,60.09976561,,,,,,,,,,,,,0,1,1,2,1,masks/mask_003.jpg,,,,,,,,,,,,,,,,,,,,,,,,,,,,,,,,,,,,,,,,,,,,,,,,,,,,,,,,,,,,,,,,,,,,,,,,,,,,,,,,,,,,,,,,,,,,,
611ebe16f706cd0ee4f4f876,001,2022-11-21_02h25.21.882,Info_measure_main_exp,2022.2.2,Win32,60.09976561,,,,,,,,,,,,,0,2,2,3,1,masks/mask_004.jpg,,,,,,,,,,,,,,,,,,,,,,,,,,,,,,,,,,,,,,,,,,,,,,,,,,,,,,,,,,,,,,,,,,,,,,,,,,,,,,,,,,,,,,,,,,,,,
611ebe16f706cd0ee4f4f876,001,2022-11-21_02h25.21.882,Info_measure_main_exp,2022.2.2,Win32,60.09976561,,,,,,,,,,,,,0,3,3,0,1,masks/mask_001.jpg,,,,,,,,,,,,,,,,,,,,,,,,,,,,,,,,,,,,,,,,,,,,,,,,,,,,,,,,,,,,,,,,,,,,,,,,,,,,,,,,,,,,,,,,,,,,,
611ebe16f706cd0ee4f4f876,001,2022-11-21_02h25.21.882,Info_measure_main_exp,2022.2.2,Win32,60.09976561,,,,,,,,,,,,,0,4,4,1,1,masks/mask_002.jpg,,,,,,,,,,,,,,,,,,,,,,,,,,,,,,,,,,,,,,,,,,,,,,,,,,,,,,,,,,,,,,,,,,,,,,,,,,,,,,,,,,,,,,,,,,,,,
611ebe16f706cd0ee4f4f876,001,2022-11-21_02h25.21.882,Info_measure_main_exp,2022.2.2,Win32,60.09976561,,,,,,,,,,,,,,,,,,masks/mask_002.jpg,0,0,0,1,1,,,,,,,,,,,,,,,,,,,,,,,,,,,,,,,,,,,,,,,,,,,,,,,,,,,,,,,,,,,,,,,,,,,,,,,,,,,,,,,,,,,,,,,,
611ebe16f706cd0ee4f4f876,001,2022-11-21_02h25.21.882,Info_measure_main_exp,2022.2.2,Win32,60.09976561,,,,,,,,,,,,,,,,,,masks/mask_001.jpg,0,1,1,0,1,,,,,,,,,,,,,,,,,,,,,,,,,,,,,,,,,,,,,,,,,,,,,,,,,,,,,,,,,,,,,,,,,,,,,,,,,,,,,,,,,,,,,,,,
611ebe16f706cd0ee4f4f876,001,2022-11-21_02h25.21.882,Info_measure_main_exp,2022.2.2,Win32,60.09976561,,,,,,,,,,,,,,,,,,masks/mask_003.jpg,0,2,2,2,1,,,,,,,,,,,,,,,,,,,,,,,,,,,,,,,,,,,,,,,,,,,,,,,,,,,,,,,,,,,,,,,,,,,,,,,,,,,,,,,,,,,,,,,,
611ebe16f706cd0ee4f4f876,001,2022-11-21_02h25.21.882,Info_measure_main_exp,2022.2.2,Win32,60.09976561,,,,,,,,,,,,,,,,,,masks/mask_004.jpg,0,3,3,3,1,,,,,,,,,,,,,,,,,,,,,,,,,,,,,,,,,,,,,,,,,,,,,,,,,,,,,,,,,,,,,,,,,,,,,,,,,,,,,,,,,,,,,,,,
611ebe16f706cd0ee4f4f876,001,2022-11-21_02h25.21.882,Info_measure_main_exp,2022.2.2,Win32,60.09976561,,,,,,,,,,,,,,,,,,masks/mask_005.jpg,0,4,4,4,1,,,,,,,,,,,,,,,,,,,,,,,,,,,,,,,,,,,,,,,,,,,,,,,,,,,,,,,,,,,,,,,,,,,,,,,,,,,,,,,,,,,,,,,,
611ebe16f706cd0ee4f4f876,001,2022-11-21_02h25.21.882,Info_measure_main_exp,2022.2.2,Win32,60.09976561,,,,,,,,,,,,,,,,,,,,,,,,-0.069444444,0.14444443,1,0,0,response7disk,0,28.519,1,-0.002777735,-0.005555577,1,0,0,center_square,0,0,0,2,1,0,131,5,5,2526,2526,prac_patch/patch0002526.jpg,prac_patch/patch0002526.jpg,,,,,,,,,,,,,,,,,,,,,,,,,,,,,,,,,,,,,,,,,,,,,,,,,,,,,,,,,,,,
611ebe16f706cd0ee4f4f876,001,2022-11-21_02h25.21.882,Info_measure_main_exp,2022.2.2,Win32,60.09976561,,,,,,,,,,,,,0,0,0,4,1,masks/mask_005.jpg,,,,,,,,,,,,,,,,,,,,,,,,,,,,,,,,,,,,,,,,,,,,,,,,,,,,,,,,,,,,,,,,,,,,,,,,,,,,,,,,,,,,,,,,,,,,,
611ebe16f706cd0ee4f4f876,001,2022-11-21_02h25.21.882,Info_measure_main_exp,2022.2.2,Win32,60.09976561,,,,,,,,,,,,,0,1,1,0,1,masks/mask_001.jpg,,,,,,,,,,,,,,,,,,,,,,,,,,,,,,,,,,,,,,,,,,,,,,,,,,,,,,,,,,,,,,,,,,,,,,,,,,,,,,,,,,,,,,,,,,,,,
611ebe16f706cd0ee4f4f876,001,2022-11-21_02h25.21.882,Info_measure_main_exp,2022.2.2,Win32,60.09976561,,,,,,,,,,,,,0,2,2,1,1,masks/mask_002.jpg,,,,,,,,,,,,,,,,,,,,,,,,,,,,,,,,,,,,,,,,,,,,,,,,,,,,,,,,,,,,,,,,,,,,,,,,,,,,,,,,,,,,,,,,,,,,,
611ebe16f706cd0ee4f4f876,001,2022-11-21_02h25.21.882,Info_measure_main_exp,2022.2.2,Win32,60.09976561,,,,,,,,,,,,,0,3,3,2,1,masks/mask_003.jpg,,,,,,,,,,,,,,,,,,,,,,,,,,,,,,,,,,,,,,,,,,,,,,,,,,,,,,,,,,,,,,,,,,,,,,,,,,,,,,,,,,,,,,,,,,,,,
611ebe16f706cd0ee4f4f876,001,2022-11-21_02h25.21.882,Info_measure_main_exp,2022.2.2,Win32,60.09976561,,,,,,,,,,,,,0,4,4,3,1,masks/mask_004.jpg,,,,,,,,,,,,,,,,,,,,,,,,,,,,,,,,,,,,,,,,,,,,,,,,,,,,,,,,,,,,,,,,,,,,,,,,,,,,,,,,,,,,,,,,,,,,,
611ebe16f706cd0ee4f4f876,001,2022-11-21_02h25.21.882,Info_measure_main_exp,2022.2.2,Win32,60.09976561,,,,,,,,,,,,,,,,,,masks/mask_003.jpg,0,0,0,2,1,,,,,,,,,,,,,,,,,,,,,,,,,,,,,,,,,,,,,,,,,,,,,,,,,,,,,,,,,,,,,,,,,,,,,,,,,,,,,,,,,,,,,,,,
611ebe16f706cd0ee4f4f876,001,2022-11-21_02h25.21.882,Info_measure_main_exp,2022.2.2,Win32,60.09976561,,,,,,,,,,,,,,,,,,masks/mask_001.jpg,0,1,1,0,1,,,,,,,,,,,,,,,,,,,,,,,,,,,,,,,,,,,,,,,,,,,,,,,,,,,,,,,,,,,,,,,,,,,,,,,,,,,,,,,,,,,,,,,,
611ebe16f706cd0ee4f4f876,001,2022-11-21_02h25.21.882,Info_measure_main_exp,2022.2.2,Win32,60.09976561,,,,,,,,,,,,,,,,,,masks/mask_004.jpg,0,2,2,3,1,,,,,,,,,,,,,,,,,,,,,,,,,,,,,,,,,,,,,,,,,,,,,,,,,,,,,,,,,,,,,,,,,,,,,,,,,,,,,,,,,,,,,,,,
611ebe16f706cd0ee4f4f876,001,2022-11-21_02h25.21.882,Info_measure_main_exp,2022.2.2,Win32,60.09976561,,,,,,,,,,,,,,,,,,masks/mask_002.jpg,0,3,3,1,1,,,,,,,,,,,,,,,,,,,,,,,,,,,,,,,,,,,,,,,,,,,,,,,,,,,,,,,,,,,,,,,,,,,,,,,,,,,,,,,,,,,,,,,,
611ebe16f706cd0ee4f4f876,001,2022-11-21_02h25.21.882,Info_measure_main_exp,2022.2.2,Win32,60.09976561,,,,,,,,,,,,,,,,,,masks/mask_005.jpg,0,4,4,4,1,,,,,,,,,,,,,,,,,,,,,,,,,,,,,,,,,,,,,,,,,,,,,,,,,,,,,,,,,,,,,,,,,,,,,,,,,,,,,,,,,,,,,,,,
611ebe16f706cd0ee4f4f876,001,2022-11-21_02h25.21.882,Info_measure_main_exp,2022.2.2,Win32,60.09976561,,,,,,,,,,,,,,,,,,,,,,,,0.053703732,0.101851852,1,0,0,response1disk,7,40.9164,1,-0.006481453,0.00462963,1,0,0,center_square,0,1,1,0,1,0,131,5,5,2370,2406,prac_patch/patch0002370.jpg,prac_patch/patch0002406.jpg,,,,,,,,,,,,,,,,,,,,,,,,,,,,,,,,,,,,,,,,,,,,,,,,,,,,,,,,,,,,
611ebe16f706cd0ee4f4f876,001,2022-11-21_02h25.21.882,Info_measure_main_exp,2022.2.2,Win32,60.09976561,,,,,,,,,,,,,0,0,0,3,1,masks/mask_004.jpg,,,,,,,,,,,,,,,,,,,,,,,,,,,,,,,,,,,,,,,,,,,,,,,,,,,,,,,,,,,,,,,,,,,,,,,,,,,,,,,,,,,,,,,,,,,,,
611ebe16f706cd0ee4f4f876,001,2022-11-21_02h25.21.882,Info_measure_main_exp,2022.2.2,Win32,60.09976561,,,,,,,,,,,,,0,1,1,0,1,masks/mask_001.jpg,,,,,,,,,,,,,,,,,,,,,,,,,,,,,,,,,,,,,,,,,,,,,,,,,,,,,,,,,,,,,,,,,,,,,,,,,,,,,,,,,,,,,,,,,,,,,
611ebe16f706cd0ee4f4f876,001,2022-11-21_02h25.21.882,Info_measure_main_exp,2022.2.2,Win32,60.09976561,,,,,,,,,,,,,0,2,2,1,1,masks/mask_002.jpg,,,,,,,,,,,,,,,,,,,,,,,,,,,,,,,,,,,,,,,,,,,,,,,,,,,,,,,,,,,,,,,,,,,,,,,,,,,,,,,,,,,,,,,,,,,,,
611ebe16f706cd0ee4f4f876,001,2022-11-21_02h25.21.882,Info_measure_main_exp,2022.2.2,Win32,60.09976561,,,,,,,,,,,,,0,3,3,2,1,masks/mask_003.jpg,,,,,,,,,,,,,,,,,,,,,,,,,,,,,,,,,,,,,,,,,,,,,,,,,,,,,,,,,,,,,,,,,,,,,,,,,,,,,,,,,,,,,,,,,,,,,
611ebe16f706cd0ee4f4f876,001,2022-11-21_02h25.21.882,Info_measure_main_exp,2022.2.2,Win32,60.09976561,,,,,,,,,,,,,0,4,4,4,1,masks/mask_005.jpg,,,,,,,,,,,,,,,,,,,,,,,,,,,,,,,,,,,,,,,,,,,,,,,,,,,,,,,,,,,,,,,,,,,,,,,,,,,,,,,,,,,,,,,,,,,,,
611ebe16f706cd0ee4f4f876,001,2022-11-21_02h25.21.882,Info_measure_main_exp,2022.2.2,Win32,60.09976561,,,,,,,,,,,,,,,,,,masks/mask_004.jpg,0,0,0,3,1,,,,,,,,,,,,,,,,,,,,,,,,,,,,,,,,,,,,,,,,,,,,,,,,,,,,,,,,,,,,,,,,,,,,,,,,,,,,,,,,,,,,,,,,
611ebe16f706cd0ee4f4f876,001,2022-11-21_02h25.21.882,Info_measure_main_exp,2022.2.2,Win32,60.09976561,,,,,,,,,,,,,,,,,,masks/mask_005.jpg,0,1,1,4,1,,,,,,,,,,,,,,,,,,,,,,,,,,,,,,,,,,,,,,,,,,,,,,,,,,,,,,,,,,,,,,,,,,,,,,,,,,,,,,,,,,,,,,,,
611ebe16f706cd0ee4f4f876,001,2022-11-21_02h25.21.882,Info_measure_main_exp,2022.2.2,Win32,60.09976561,,,,,,,,,,,,,,,,,,masks/mask_002.jpg,0,2,2,1,1,,,,,,,,,,,,,,,,,,,,,,,,,,,,,,,,,,,,,,,,,,,,,,,,,,,,,,,,,,,,,,,,,,,,,,,,,,,,,,,,,,,,,,,,
611ebe16f706cd0ee4f4f876,001,2022-11-21_02h25.21.882,Info_measure_main_exp,2022.2.2,Win32,60.09976561,,,,,,,,,,,,,,,,,,masks/mask_003.jpg,0,3,3,2,1,,,,,,,,,,,,,,,,,,,,,,,,,,,,,,,,,,,,,,,,,,,,,,,,,,,,,,,,,,,,,,,,,,,,,,,,,,,,,,,,,,,,,,,,
611ebe16f706cd0ee4f4f876,001,2022-11-21_02h25.21.882,Info_measure_main_exp,2022.2.2,Win32,60.09976561,,,,,,,,,,,,,,,,,,masks/mask_001.jpg,0,4,4,0,1,,,,,,,,,,,,,,,,,,,,,,,,,,,,,,,,,,,,,,,,,,,,,,,,,,,,,,,,,,,,,,,,,,,,,,,,,,,,,,,,,,,,,,,,
611ebe16f706cd0ee4f4f876,001,2022-11-21_02h25.21.882,Info_measure_main_exp,2022.2.2,Win32,60.09976561,,,,,,,,,,,,,,,,,,,,,,,,0.031481496,0.080555563,1,0,0,response1disk,7,49.4908,1,0.007407436,-0.002777771,1,0,0,center_square,0,2,2,1,1,0,131,5,5,2514,2490,prac_patch/patch0002514.jpg,prac_patch/patch0002490.jpg,,,,,,,,,,,,,,,,,,,,,,,,,,,,,,,,,,,,,,,,,,,,,,,,,,,,,,,,,,,,
611ebe16f706cd0ee4f4f876,001,2022-11-21_02h25.21.882,Info_measure_main_exp,2022.2.2,Win32,60.09976561,,,,,,,,,,,,,,,,,,,,,,,,,,,,,,,,,,,,,,,,,,,,,,,,,,,,,,,,,,,space,1.7836,,,,,,,,,,,,,,,,,,,,,,,,,,,,,,,,,,,,,,,,,,,,,,,,,,,
611ebe16f706cd0ee4f4f876,001,2022-11-21_02h25.21.882,Info_measure_main_exp,2022.2.2,Win32,60.09976561,,,,,,,,,,,,,,,,,,masks/mask_004.jpg,,,,,,,,,,,,,,,,,,,,,,,,,,,,,,,,,,,,,,,,,,,0,0,0,3,1,,,,,,,,,,,,,,,,,,,,,,,,,,,,,,,,,,,,,,,,,,,,,,
611ebe16f706cd0ee4f4f876,001,2022-11-21_02h25.21.882,Info_measure_main_exp,2022.2.2,Win32,60.09976561,,,,,,,,,,,,,,,,,,masks/mask_001.jpg,,,,,,,,,,,,,,,,,,,,,,,,,,,,,,,,,,,,,,,,,,,0,1,1,0,1,,,,,,,,,,,,,,,,,,,,,,,,,,,,,,,,,,,,,,,,,,,,,,
611ebe16f706cd0ee4f4f876,001,2022-11-21_02h25.21.882,Info_measure_main_exp,2022.2.2,Win32,60.09976561,,,,,,,,,,,,,,,,,,masks/mask_003.jpg,,,,,,,,,,,,,,,,,,,,,,,,,,,,,,,,,,,,,,,,,,,0,2,2,2,1,,,,,,,,,,,,,,,,,,,,,,,,,,,,,,,,,,,,,,,,,,,,,,
611ebe16f706cd0ee4f4f876,001,2022-11-21_02h25.21.882,Info_measure_main_exp,2022.2.2,Win32,60.09976561,,,,,,,,,,,,,,,,,,masks/mask_002.jpg,,,,,,,,,,,,,,,,,,,,,,,,,,,,,,,,,,,,,,,,,,,0,3,3,1,1,,,,,,,,,,,,,,,,,,,,,,,,,,,,,,,,,,,,,,,,,,,,,,
611ebe16f706cd0ee4f4f876,001,2022-11-21_02h25.21.882,Info_measure_main_exp,2022.2.2,Win32,60.09976561,,,,,,,,,,,,,,,,,,masks/mask_005.jpg,,,,,,,,,,,,,,,,,,,,,,,,,,,,,,,,,,,,,,,,,,,0,4,4,4,1,,,,,,,,,,,,,,,,,,,,,,,,,,,,,,,,,,,,,,,,,,,,,,
611ebe16f706cd0ee4f4f876,001,2022-11-21_02h25.21.882,Info_measure_main_exp,2022.2.2,Win32,60.09976561,,,,,,,,,,,,,,,,,,masks/mask_004.jpg,,,,,,,,,,,,,,,,,,,,,,,,,,,,,,,,,,,,,,,,,,,,,,,,0,0,0,3,1,,,,,,,,,,,,,,,,,,,,,,,,,,,,,,,,,,,,,,,,,
611ebe16f706cd0ee4f4f876,001,2022-11-21_02h25.21.882,Info_measure_main_exp,2022.2.2,Win32,60.09976561,,,,,,,,,,,,,,,,,,masks/mask_005.jpg,,,,,,,,,,,,,,,,,,,,,,,,,,,,,,,,,,,,,,,,,,,,,,,,0,1,1,4,1,,,,,,,,,,,,,,,,,,,,,,,,,,,,,,,,,,,,,,,,,
611ebe16f706cd0ee4f4f876,001,2022-11-21_02h25.21.882,Info_measure_main_exp,2022.2.2,Win32,60.09976561,,,,,,,,,,,,,,,,,,masks/mask_001.jpg,,,,,,,,,,,,,,,,,,,,,,,,,,,,,,,,,,,,,,,,,,,,,,,,0,2,2,0,1,,,,,,,,,,,,,,,,,,,,,,,,,,,,,,,,,,,,,,,,,
611ebe16f706cd0ee4f4f876,001,2022-11-21_02h25.21.882,Info_measure_main_exp,2022.2.2,Win32,60.09976561,,,,,,,,,,,,,,,,,,masks/mask_002.jpg,,,,,,,,,,,,,,,,,,,,,,,,,,,,,,,,,,,,,,,,,,,,,,,,0,3,3,1,1,,,,,,,,,,,,,,,,,,,,,,,,,,,,,,,,,,,,,,,,,
611ebe16f706cd0ee4f4f876,001,2022-11-21_02h25.21.882,Info_measure_main_exp,2022.2.2,Win32,60.09976561,,,,,,,,,,,,,,,,,,masks/mask_003.jpg,,,,,,,,,,,,,,,,,,,,,,,,,,,,,,,,,,,,,,,,,,,,,,,,0,4,4,2,1,,,,,,,,,,,,,,,,,,,,,,,,,,,,,,,,,,,,,,,,,
611ebe16f706cd0ee4f4f876,001,2022-11-21_02h25.21.882,Info_measure_main_exp,2022.2.2,Win32,60.09976561,,,,,,,,,,,,,,,,,,,,,,,,,,,,,,7,4.3008,1,,,,,,,,,,,,0,131,5,5,2190,2166,absent_patch/patch0002190.jpg,absent_patch/patch0002166.jpg,,,,,,,,,,,,,,,,,,,,0.023148148,0.073148127,1,0,0,response1disk,1,-0.00462963,0,1,0,0,center_square,0,0,0,50,1,,,,,,,,,,,,,,,,,,,,,,,
611ebe16f706cd0ee4f4f876,001,2022-11-21_02h25.21.882,Info_measure_main_exp,2022.2.2,Win32,60.09976561,,,,,,,,,,,,,,,,,,masks/mask_003.jpg,,,,,,,,,,,,,,,,,,,,,,,,,,,,,,,,,,,,,,,,,,,0,0,0,2,1,,,,,,,,,,,,,,,,,,,,,,,,,,,,,,,,,,,,,,,,,,,,,,
611ebe16f706cd0ee4f4f876,001,2022-11-21_02h25.21.882,Info_measure_main_exp,2022.2.2,Win32,60.09976561,,,,,,,,,,,,,,,,,,masks/mask_005.jpg,,,,,,,,,,,,,,,,,,,,,,,,,,,,,,,,,,,,,,,,,,,0,1,1,4,1,,,,,,,,,,,,,,,,,,,,,,,,,,,,,,,,,,,,,,,,,,,,,,
611ebe16f706cd0ee4f4f876,001,2022-11-21_02h25.21.882,Info_measure_main_exp,2022.2.2,Win32,60.09976561,,,,,,,,,,,,,,,,,,masks/mask_001.jpg,,,,,,,,,,,,,,,,,,,,,,,,,,,,,,,,,,,,,,,,,,,0,2,2,0,1,,,,,,,,,,,,,,,,,,,,,,,,,,,,,,,,,,,,,,,,,,,,,,
611ebe16f706cd0ee4f4f876,001,2022-11-21_02h25.21.882,Info_measure_main_exp,2022.2.2,Win32,60.09976561,,,,,,,,,,,,,,,,,,masks/mask_002.jpg,,,,,,,,,,,,,,,,,,,,,,,,,,,,,,,,,,,,,,,,,,,0,3,3,1,1,,,,,,,,,,,,,,,,,,,,,,,,,,,,,,,,,,,,,,,,,,,,,,
611ebe16f706cd0ee4f4f876,001,2022-11-21_02h25.21.882,Info_measure_main_exp,2022.2.2,Win32,60.09976561,,,,,,,,,,,,,,,,,,masks/mask_004.jpg,,,,,,,,,,,,,,,,,,,,,,,,,,,,,,,,,,,,,,,,,,,0,4,4,3,1,,,,,,,,,,,,,,,,,,,,,,,,,,,,,,,,,,,,,,,,,,,,,,
611ebe16f706cd0ee4f4f876,001,2022-11-21_02h25.21.882,Info_measure_main_exp,2022.2.2,Win32,60.09976561,,,,,,,,,,,,,,,,,,masks/mask_004.jpg,,,,,,,,,,,,,,,,,,,,,,,,,,,,,,,,,,,,,,,,,,,,,,,,0,0,0,3,1,,,,,,,,,,,,,,,,,,,,,,,,,,,,,,,,,,,,,,,,,
611ebe16f706cd0ee4f4f876,001,2022-11-21_02h25.21.882,Info_measure_main_exp,2022.2.2,Win32,60.09976561,,,,,,,,,,,,,,,,,,masks/mask_001.jpg,,,,,,,,,,,,,,,,,,,,,,,,,,,,,,,,,,,,,,,,,,,,,,,,0,1,1,0,1,,,,,,,,,,,,,,,,,,,,,,,,,,,,,,,,,,,,,,,,,
611ebe16f706cd0ee4f4f876,001,2022-11-21_02h25.21.882,Info_measure_main_exp,2022.2.2,Win32,60.09976561,,,,,,,,,,,,,,,,,,masks/mask_005.jpg,,,,,,,,,,,,,,,,,,,,,,,,,,,,,,,,,,,,,,,,,,,,,,,,0,2,2,4,1,,,,,,,,,,,,,,,,,,,,,,,,,,,,,,,,,,,,,,,,,
611ebe16f706cd0ee4f4f876,001,2022-11-21_02h25.21.882,Info_measure_main_exp,2022.2.2,Win32,60.09976561,,,,,,,,,,,,,,,,,,masks/mask_002.jpg,,,,,,,,,,,,,,,,,,,,,,,,,,,,,,,,,,,,,,,,,,,,,,,,0,3,3,1,1,,,,,,,,,,,,,,,,,,,,,,,,,,,,,,,,,,,,,,,,,
611ebe16f706cd0ee4f4f876,001,2022-11-21_02h25.21.882,Info_measure_main_exp,2022.2.2,Win32,60.09976561,,,,,,,,,,,,,,,,,,masks/mask_003.jpg,,,,,,,,,,,,,,,,,,,,,,,,,,,,,,,,,,,,,,,,,,,,,,,,0,4,4,2,1,,,,,,,,,,,,,,,,,,,,,,,,,,,,,,,,,,,,,,,,,
611ebe16f706cd0ee4f4f876,001,2022-11-21_02h25.21.882,Info_measure_main_exp,2022.2.2,Win32,60.09976561,,,,,,,,,,,,,,,,,,,,,,,,,,,,,,7,2.0008,1,,,,,,,,,,,,0,131,5,5,2238,2298,absent_patch/patch0002238.jpg,absent_patch/patch0002298.jpg,,,,,,,,,,,,,,,,,,,,0.015740783,0.038888896,1,0,0,response1disk,2,0.007407436,0.000925912,1,0,0,center_square,0,1,1,51,1,,,,,,,,,,,,,,,,,,,,,,,
611ebe16f706cd0ee4f4f876,001,2022-11-21_02h25.21.882,Info_measure_main_exp,2022.2.2,Win32,60.09976561,,,,,,,,,,,,,,,,,,masks/mask_001.jpg,,,,,,,,,,,,,,,,,,,,,,,,,,,,,,,,,,,,,,,,,,,0,0,0,0,1,,,,,,,,,,,,,,,,,,,,,,,,,,,,,,,,,,,,,,,,,,,,,,
611ebe16f706cd0ee4f4f876,001,2022-11-21_02h25.21.882,Info_measure_main_exp,2022.2.2,Win32,60.09976561,,,,,,,,,,,,,,,,,,masks/mask_002.jpg,,,,,,,,,,,,,,,,,,,,,,,,,,,,,,,,,,,,,,,,,,,0,1,1,1,1,,,,,,,,,,,,,,,,,,,,,,,,,,,,,,,,,,,,,,,,,,,,,,
611ebe16f706cd0ee4f4f876,001,2022-11-21_02h25.21.882,Info_measure_main_exp,2022.2.2,Win32,60.09976561,,,,,,,,,,,,,,,,,,masks/mask_005.jpg,,,,,,,,,,,,,,,,,,,,,,,,,,,,,,,,,,,,,,,,,,,0,2,2,4,1,,,,,,,,,,,,,,,,,,,,,,,,,,,,,,,,,,,,,,,,,,,,,,
611ebe16f706cd0ee4f4f876,001,2022-11-21_02h25.21.882,Info_measure_main_exp,2022.2.2,Win32,60.09976561,,,,,,,,,,,,,,,,,,masks/mask_004.jpg,,,,,,,,,,,,,,,,,,,,,,,,,,,,,,,,,,,,,,,,,,,0,3,3,3,1,,,,,,,,,,,,,,,,,,,,,,,,,,,,,,,,,,,,,,,,,,,,,,
611ebe16f706cd0ee4f4f876,001,2022-11-21_02h25.21.882,Info_measure_main_exp,2022.2.2,Win32,60.09976561,,,,,,,,,,,,,,,,,,masks/mask_003.jpg,,,,,,,,,,,,,,,,,,,,,,,,,,,,,,,,,,,,,,,,,,,0,4,4,2,1,,,,,,,,,,,,,,,,,,,,,,,,,,,,,,,,,,,,,,,,,,,,,,
611ebe16f706cd0ee4f4f876,001,2022-11-21_02h25.21.882,Info_measure_main_exp,2022.2.2,Win32,60.09976561,,,,,,,,,,,,,,,,,,masks/mask_001.jpg,,,,,,,,,,,,,,,,,,,,,,,,,,,,,,,,,,,,,,,,,,,,,,,,0,0,0,0,1,,,,,,,,,,,,,,,,,,,,,,,,,,,,,,,,,,,,,,,,,
611ebe16f706cd0ee4f4f876,001,2022-11-21_02h25.21.882,Info_measure_main_exp,2022.2.2,Win32,60.09976561,,,,,,,,,,,,,,,,,,masks/mask_005.jpg,,,,,,,,,,,,,,,,,,,,,,,,,,,,,,,,,,,,,,,,,,,,,,,,0,1,1,4,1,,,,,,,,,,,,,,,,,,,,,,,,,,,,,,,,,,,,,,,,,
611ebe16f706cd0ee4f4f876,001,2022-11-21_02h25.21.882,Info_measure_main_exp,2022.2.2,Win32,60.09976561,,,,,,,,,,,,,,,,,,masks/mask_004.jpg,,,,,,,,,,,,,,,,,,,,,,,,,,,,,,,,,,,,,,,,,,,,,,,,0,2,2,3,1,,,,,,,,,,,,,,,,,,,,,,,,,,,,,,,,,,,,,,,,,
611ebe16f706cd0ee4f4f876,001,2022-11-21_02h25.21.882,Info_measure_main_exp,2022.2.2,Win32,60.09976561,,,,,,,,,,,,,,,,,,masks/mask_002.jpg,,,,,,,,,,,,,,,,,,,,,,,,,,,,,,,,,,,,,,,,,,,,,,,,0,3,3,1,1,,,,,,,,,,,,,,,,,,,,,,,,,,,,,,,,,,,,,,,,,
611ebe16f706cd0ee4f4f876,001,2022-11-21_02h25.21.882,Info_measure_main_exp,2022.2.2,Win32,60.09976561,,,,,,,,,,,,,,,,,,masks/mask_003.jpg,,,,,,,,,,,,,,,,,,,,,,,,,,,,,,,,,,,,,,,,,,,,,,,,0,4,4,2,1,,,,,,,,,,,,,,,,,,,,,,,,,,,,,,,,,,,,,,,,,
611ebe16f706cd0ee4f4f876,001,2022-11-21_02h25.21.882,Info_measure_main_exp,2022.2.2,Win32,60.09976561,,,,,,,,,,,,,,,,,,,,,,,,,,,,,,0,3.4841,1,,,,,,,,,,,,0,131,5,5,2082,2082,absent_patch/patch0002082.jpg,absent_patch/patch0002082.jpg,,,,,,,,,,,,,,,,,,,,-0.018518519,0.1324074,1,0,0,response7disk,3,0.002777806,0.005555541,1,0,0,center_square,0,2,2,74,1,,,,,,,,,,,,,,,,,,,,,,,
611ebe16f706cd0ee4f4f876,001,2022-11-21_02h25.21.882,Info_measure_main_exp,2022.2.2,Win32,60.09976561,,,,,,,,,,,,,,,,,,masks/mask_003.jpg,,,,,,,,,,,,,,,,,,,,,,,,,,,,,,,,,,,,,,,,,,,0,0,0,2,1,,,,,,,,,,,,,,,,,,,,,,,,,,,,,,,,,,,,,,,,,,,,,,
611ebe16f706cd0ee4f4f876,001,2022-11-21_02h25.21.882,Info_measure_main_exp,2022.2.2,Win32,60.09976561,,,,,,,,,,,,,,,,,,masks/mask_004.jpg,,,,,,,,,,,,,,,,,,,,,,,,,,,,,,,,,,,,,,,,,,,0,1,1,3,1,,,,,,,,,,,,,,,,,,,,,,,,,,,,,,,,,,,,,,,,,,,,,,
611ebe16f706cd0ee4f4f876,001,2022-11-21_02h25.21.882,Info_measure_main_exp,2022.2.2,Win32,60.09976561,,,,,,,,,,,,,,,,,,masks/mask_002.jpg,,,,,,,,,,,,,,,,,,,,,,,,,,,,,,,,,,,,,,,,,,,0,2,2,1,1,,,,,,,,,,,,,,,,,,,,,,,,,,,,,,,,,,,,,,,,,,,,,,
611ebe16f706cd0ee4f4f876,001,2022-11-21_02h25.21.882,Info_measure_main_exp,2022.2.2,Win32,60.09976561,,,,,,,,,,,,,,,,,,masks/mask_001.jpg,,,,,,,,,,,,,,,,,,,,,,,,,,,,,,,,,,,,,,,,,,,0,3,3,0,1,,,,,,,,,,,,,,,,,,,,,,,,,,,,,,,,,,,,,,,,,,,,,,
611ebe16f706cd0ee4f4f876,001,2022-11-21_02h25.21.882,Info_measure_main_exp,2022.2.2,Win32,60.09976561,,,,,,,,,,,,,,,,,,masks/mask_005.jpg,,,,,,,,,,,,,,,,,,,,,,,,,,,,,,,,,,,,,,,,,,,0,4,4,4,1,,,,,,,,,,,,,,,,,,,,,,,,,,,,,,,,,,,,,,,,,,,,,,
611ebe16f706cd0ee4f4f876,001,2022-11-21_02h25.21.882,Info_measure_main_exp,2022.2.2,Win32,60.09976561,,,,,,,,,,,,,,,,,,masks/mask_001.jpg,,,,,,,,,,,,,,,,,,,,,,,,,,,,,,,,,,,,,,,,,,,,,,,,0,0,0,0,1,,,,,,,,,,,,,,,,,,,,,,,,,,,,,,,,,,,,,,,,,
611ebe16f706cd0ee4f4f876,001,2022-11-21_02h25.21.882,Info_measure_main_exp,2022.2.2,Win32,60.09976561,,,,,,,,,,,,,,,,,,masks/mask_004.jpg,,,,,,,,,,,,,,,,,,,,,,,,,,,,,,,,,,,,,,,,,,,,,,,,0,1,1,3,1,,,,,,,,,,,,,,,,,,,,,,,,,,,,,,,,,,,,,,,,,
611ebe16f706cd0ee4f4f876,001,2022-11-21_02h25.21.882,Info_measure_main_exp,2022.2.2,Win32,60.09976561,,,,,,,,,,,,,,,,,,masks/mask_005.jpg,,,,,,,,,,,,,,,,,,,,,,,,,,,,,,,,,,,,,,,,,,,,,,,,0,2,2,4,1,,,,,,,,,,,,,,,,,,,,,,,,,,,,,,,,,,,,,,,,,
611ebe16f706cd0ee4f4f876,001,2022-11-21_02h25.21.882,Info_measure_main_exp,2022.2.2,Win32,60.09976561,,,,,,,,,,,,,,,,,,masks/mask_002.jpg,,,,,,,,,,,,,,,,,,,,,,,,,,,,,,,,,,,,,,,,,,,,,,,,0,3,3,1,1,,,,,,,,,,,,,,,,,,,,,,,,,,,,,,,,,,,,,,,,,
611ebe16f706cd0ee4f4f876,001,2022-11-21_02h25.21.882,Info_measure_main_exp,2022.2.2,Win32,60.09976561,,,,,,,,,,,,,,,,,,masks/mask_003.jpg,,,,,,,,,,,,,,,,,,,,,,,,,,,,,,,,,,,,,,,,,,,,,,,,0,4,4,2,1,,,,,,,,,,,,,,,,,,,,,,,,,,,,,,,,,,,,,,,,,
611ebe16f706cd0ee4f4f876,001,2022-11-21_02h25.21.882,Info_measure_main_exp,2022.2.2,Win32,60.09976561,,,,,,,,,,,,,,,,,,,,,,,,,,,,,,7,3.1813,1,,,,,,,,,,,,1,131,5,5,2190,1,absent_patch/patch0002190.jpg,present_patch/cong_131_5_a.jpg,,,,,,,,,,,,,,,,,,,,0.027777778,0.073148127,1,0,0,response1disk,4,0.000925912,0.0074074,1,0,0,center_square,0,3,3,64,1,,,,,,,,,,,,,,,,,,,,,,,
611ebe16f706cd0ee4f4f876,001,2022-11-21_02h25.21.882,Info_measure_main_exp,2022.2.2,Win32,60.09976561,,,,,,,,,,,,,,,,,,masks/mask_005.jpg,,,,,,,,,,,,,,,,,,,,,,,,,,,,,,,,,,,,,,,,,,,0,0,0,4,1,,,,,,,,,,,,,,,,,,,,,,,,,,,,,,,,,,,,,,,,,,,,,,
611ebe16f706cd0ee4f4f876,001,2022-11-21_02h25.21.882,Info_measure_main_exp,2022.2.2,Win32,60.09976561,,,,,,,,,,,,,,,,,,masks/mask_004.jpg,,,,,,,,,,,,,,,,,,,,,,,,,,,,,,,,,,,,,,,,,,,0,1,1,3,1,,,,,,,,,,,,,,,,,,,,,,,,,,,,,,,,,,,,,,,,,,,,,,
611ebe16f706cd0ee4f4f876,001,2022-11-21_02h25.21.882,Info_measure_main_exp,2022.2.2,Win32,60.09976561,,,,,,,,,,,,,,,,,,masks/mask_001.jpg,,,,,,,,,,,,,,,,,,,,,,,,,,,,,,,,,,,,,,,,,,,0,2,2,0,1,,,,,,,,,,,,,,,,,,,,,,,,,,,,,,,,,,,,,,,,,,,,,,
611ebe16f706cd0ee4f4f876,001,2022-11-21_02h25.21.882,Info_measure_main_exp,2022.2.2,Win32,60.09976561,,,,,,,,,,,,,,,,,,masks/mask_003.jpg,,,,,,,,,,,,,,,,,,,,,,,,,,,,,,,,,,,,,,,,,,,0,3,3,2,1,,,,,,,,,,,,,,,,,,,,,,,,,,,,,,,,,,,,,,,,,,,,,,
611ebe16f706cd0ee4f4f876,001,2022-11-21_02h25.21.882,Info_measure_main_exp,2022.2.2,Win32,60.09976561,,,,,,,,,,,,,,,,,,masks/mask_002.jpg,,,,,,,,,,,,,,,,,,,,,,,,,,,,,,,,,,,,,,,,,,,0,4,4,1,1,,,,,,,,,,,,,,,,,,,,,,,,,,,,,,,,,,,,,,,,,,,,,,
611ebe16f706cd0ee4f4f876,001,2022-11-21_02h25.21.882,Info_measure_main_exp,2022.2.2,Win32,60.09976561,,,,,,,,,,,,,,,,,,masks/mask_001.jpg,,,,,,,,,,,,,,,,,,,,,,,,,,,,,,,,,,,,,,,,,,,,,,,,0,0,0,0,1,,,,,,,,,,,,,,,,,,,,,,,,,,,,,,,,,,,,,,,,,
611ebe16f706cd0ee4f4f876,001,2022-11-21_02h25.21.882,Info_measure_main_exp,2022.2.2,Win32,60.09976561,,,,,,,,,,,,,,,,,,masks/mask_002.jpg,,,,,,,,,,,,,,,,,,,,,,,,,,,,,,,,,,,,,,,,,,,,,,,,0,1,1,1,1,,,,,,,,,,,,,,,,,,,,,,,,,,,,,,,,,,,,,,,,,
611ebe16f706cd0ee4f4f876,001,2022-11-21_02h25.21.882,Info_measure_main_exp,2022.2.2,Win32,60.09976561,,,,,,,,,,,,,,,,,,masks/mask_003.jpg,,,,,,,,,,,,,,,,,,,,,,,,,,,,,,,,,,,,,,,,,,,,,,,,0,2,2,2,1,,,,,,,,,,,,,,,,,,,,,,,,,,,,,,,,,,,,,,,,,
611ebe16f706cd0ee4f4f876,001,2022-11-21_02h25.21.882,Info_measure_main_exp,2022.2.2,Win32,60.09976561,,,,,,,,,,,,,,,,,,masks/mask_004.jpg,,,,,,,,,,,,,,,,,,,,,,,,,,,,,,,,,,,,,,,,,,,,,,,,0,3,3,3,1,,,,,,,,,,,,,,,,,,,,,,,,,,,,,,,,,,,,,,,,,
611ebe16f706cd0ee4f4f876,001,2022-11-21_02h25.21.882,Info_measure_main_exp,2022.2.2,Win32,60.09976561,,,,,,,,,,,,,,,,,,masks/mask_005.jpg,,,,,,,,,,,,,,,,,,,,,,,,,,,,,,,,,,,,,,,,,,,,,,,,0,4,4,4,1,,,,,,,,,,,,,,,,,,,,,,,,,,,,,,,,,,,,,,,,,
611ebe16f706cd0ee4f4f876,001,2022-11-21_02h25.21.882,Info_measure_main_exp,2022.2.2,Win32,60.09976561,,,,,,,,,,,,,,,,,,,,,,,,,,,,,,7,2.2653,1,,,,,,,,,,,,0,131,5,5,2082,2154,absent_patch/patch0002082.jpg,absent_patch/patch0002154.jpg,,,,,,,,,,,,,,,,,,,,0.025000042,0.081481474,1,0,0,response1disk,5,-0.002777735,0.008333312,1,0,0,center_square,0,4,4,33,1,,,,,,,,,,,,,,,,,,,,,,,
611ebe16f706cd0ee4f4f876,001,2022-11-21_02h25.21.882,Info_measure_main_exp,2022.2.2,Win32,60.09976561,,,,,,,,,,,,,,,,,,masks/mask_004.jpg,,,,,,,,,,,,,,,,,,,,,,,,,,,,,,,,,,,,,,,,,,,0,0,0,3,1,,,,,,,,,,,,,,,,,,,,,,,,,,,,,,,,,,,,,,,,,,,,,,
611ebe16f706cd0ee4f4f876,001,2022-11-21_02h25.21.882,Info_measure_main_exp,2022.2.2,Win32,60.09976561,,,,,,,,,,,,,,,,,,masks/mask_005.jpg,,,,,,,,,,,,,,,,,,,,,,,,,,,,,,,,,,,,,,,,,,,0,1,1,4,1,,,,,,,,,,,,,,,,,,,,,,,,,,,,,,,,,,,,,,,,,,,,,,
611ebe16f706cd0ee4f4f876,001,2022-11-21_02h25.21.882,Info_measure_main_exp,2022.2.2,Win32,60.09976561,,,,,,,,,,,,,,,,,,masks/mask_002.jpg,,,,,,,,,,,,,,,,,,,,,,,,,,,,,,,,,,,,,,,,,,,0,2,2,1,1,,,,,,,,,,,,,,,,,,,,,,,,,,,,,,,,,,,,,,,,,,,,,,
611ebe16f706cd0ee4f4f876,001,2022-11-21_02h25.21.882,Info_measure_main_exp,2022.2.2,Win32,60.09976561,,,,,,,,,,,,,,,,,,masks/mask_003.jpg,,,,,,,,,,,,,,,,,,,,,,,,,,,,,,,,,,,,,,,,,,,0,3,3,2,1,,,,,,,,,,,,,,,,,,,,,,,,,,,,,,,,,,,,,,,,,,,,,,
611ebe16f706cd0ee4f4f876,001,2022-11-21_02h25.21.882,Info_measure_main_exp,2022.2.2,Win32,60.09976561,,,,,,,,,,,,,,,,,,masks/mask_001.jpg,,,,,,,,,,,,,,,,,,,,,,,,,,,,,,,,,,,,,,,,,,,0,4,4,0,1,,,,,,,,,,,,,,,,,,,,,,,,,,,,,,,,,,,,,,,,,,,,,,
611ebe16f706cd0ee4f4f876,001,2022-11-21_02h25.21.882,Info_measure_main_exp,2022.2.2,Win32,60.09976561,,,,,,,,,,,,,,,,,,masks/mask_001.jpg,,,,,,,,,,,,,,,,,,,,,,,,,,,,,,,,,,,,,,,,,,,,,,,,0,0,0,0,1,,,,,,,,,,,,,,,,,,,,,,,,,,,,,,,,,,,,,,,,,
611ebe16f706cd0ee4f4f876,001,2022-11-21_02h25.21.882,Info_measure_main_exp,2022.2.2,Win32,60.09976561,,,,,,,,,,,,,,,,,,masks/mask_005.jpg,,,,,,,,,,,,,,,,,,,,,,,,,,,,,,,,,,,,,,,,,,,,,,,,0,1,1,4,1,,,,,,,,,,,,,,,,,,,,,,,,,,,,,,,,,,,,,,,,,
611ebe16f706cd0ee4f4f876,001,2022-11-21_02h25.21.882,Info_measure_main_exp,2022.2.2,Win32,60.09976561,,,,,,,,,,,,,,,,,,masks/mask_004.jpg,,,,,,,,,,,,,,,,,,,,,,,,,,,,,,,,,,,,,,,,,,,,,,,,0,2,2,3,1,,,,,,,,,,,,,,,,,,,,,,,,,,,,,,,,,,,,,,,,,
611ebe16f706cd0ee4f4f876,001,2022-11-21_02h25.21.882,Info_measure_main_exp,2022.2.2,Win32,60.09976561,,,,,,,,,,,,,,,,,,masks/mask_002.jpg,,,,,,,,,,,,,,,,,,,,,,,,,,,,,,,,,,,,,,,,,,,,,,,,0,3,3,1,1,,,,,,,,,,,,,,,,,,,,,,,,,,,,,,,,,,,,,,,,,
611ebe16f706cd0ee4f4f876,001,2022-11-21_02h25.21.882,Info_measure_main_exp,2022.2.2,Win32,60.09976561,,,,,,,,,,,,,,,,,,masks/mask_003.jpg,,,,,,,,,,,,,,,,,,,,,,,,,,,,,,,,,,,,,,,,,,,,,,,,0,4,4,2,1,,,,,,,,,,,,,,,,,,,,,,,,,,,,,,,,,,,,,,,,,
611ebe16f706cd0ee4f4f876,001,2022-11-21_02h25.21.882,Info_measure_main_exp,2022.2.2,Win32,60.09976561,,,,,,,,,,,,,,,,,,,,,,,,,,,,,,0,0.8182,1,,,,,,,,,,,,0,131,5,5,2166,2166,absent_patch/patch0002166.jpg,absent_patch/patch0002166.jpg,,,,,,,,,,,,,,,,,,,,-0.033333319,0.067592586,1,0,0,response7disk,6,-0.005555541,0.00462963,1,0,0,center_square,0,5,5,42,1,,,,,,,,,,,,,,,,,,,,,,,
611ebe16f706cd0ee4f4f876,001,2022-11-21_02h25.21.882,Info_measure_main_exp,2022.2.2,Win32,60.09976561,,,,,,,,,,,,,,,,,,masks/mask_002.jpg,,,,,,,,,,,,,,,,,,,,,,,,,,,,,,,,,,,,,,,,,,,0,0,0,1,1,,,,,,,,,,,,,,,,,,,,,,,,,,,,,,,,,,,,,,,,,,,,,,
611ebe16f706cd0ee4f4f876,001,2022-11-21_02h25.21.882,Info_measure_main_exp,2022.2.2,Win32,60.09976561,,,,,,,,,,,,,,,,,,masks/mask_005.jpg,,,,,,,,,,,,,,,,,,,,,,,,,,,,,,,,,,,,,,,,,,,0,1,1,4,1,,,,,,,,,,,,,,,,,,,,,,,,,,,,,,,,,,,,,,,,,,,,,,
611ebe16f706cd0ee4f4f876,001,2022-11-21_02h25.21.882,Info_measure_main_exp,2022.2.2,Win32,60.09976561,,,,,,,,,,,,,,,,,,masks/mask_001.jpg,,,,,,,,,,,,,,,,,,,,,,,,,,,,,,,,,,,,,,,,,,,0,2,2,0,1,,,,,,,,,,,,,,,,,,,,,,,,,,,,,,,,,,,,,,,,,,,,,,
611ebe16f706cd0ee4f4f876,001,2022-11-21_02h25.21.882,Info_measure_main_exp,2022.2.2,Win32,60.09976561,,,,,,,,,,,,,,,,,,masks/mask_003.jpg,,,,,,,,,,,,,,,,,,,,,,,,,,,,,,,,,,,,,,,,,,,0,3,3,2,1,,,,,,,,,,,,,,,,,,,,,,,,,,,,,,,,,,,,,,,,,,,,,,
611ebe16f706cd0ee4f4f876,001,2022-11-21_02h25.21.882,Info_measure_main_exp,2022.2.2,Win32,60.09976561,,,,,,,,,,,,,,,,,,masks/mask_004.jpg,,,,,,,,,,,,,,,,,,,,,,,,,,,,,,,,,,,,,,,,,,,0,4,4,3,1,,,,,,,,,,,,,,,,,,,,,,,,,,,,,,,,,,,,,,,,,,,,,,
611ebe16f706cd0ee4f4f876,001,2022-11-21_02h25.21.882,Info_measure_main_exp,2022.2.2,Win32,60.09976561,,,,,,,,,,,,,,,,,,masks/mask_003.jpg,,,,,,,,,,,,,,,,,,,,,,,,,,,,,,,,,,,,,,,,,,,,,,,,0,0,0,2,1,,,,,,,,,,,,,,,,,,,,,,,,,,,,,,,,,,,,,,,,,
611ebe16f706cd0ee4f4f876,001,2022-11-21_02h25.21.882,Info_measure_main_exp,2022.2.2,Win32,60.09976561,,,,,,,,,,,,,,,,,,masks/mask_005.jpg,,,,,,,,,,,,,,,,,,,,,,,,,,,,,,,,,,,,,,,,,,,,,,,,0,1,1,4,1,,,,,,,,,,,,,,,,,,,,,,,,,,,,,,,,,,,,,,,,,
611ebe16f706cd0ee4f4f876,001,2022-11-21_02h25.21.882,Info_measure_main_exp,2022.2.2,Win32,60.09976561,,,,,,,,,,,,,,,,,,masks/mask_004.jpg,,,,,,,,,,,,,,,,,,,,,,,,,,,,,,,,,,,,,,,,,,,,,,,,0,2,2,3,1,,,,,,,,,,,,,,,,,,,,,,,,,,,,,,,,,,,,,,,,,
611ebe16f706cd0ee4f4f876,001,2022-11-21_02h25.21.882,Info_measure_main_exp,2022.2.2,Win32,60.09976561,,,,,,,,,,,,,,,,,,masks/mask_002.jpg,,,,,,,,,,,,,,,,,,,,,,,,,,,,,,,,,,,,,,,,,,,,,,,,0,3,3,1,1,,,,,,,,,,,,,,,,,,,,,,,,,,,,,,,,,,,,,,,,,
611ebe16f706cd0ee4f4f876,001,2022-11-21_02h25.21.882,Info_measure_main_exp,2022.2.2,Win32,60.09976561,,,,,,,,,,,,,,,,,,masks/mask_001.jpg,,,,,,,,,,,,,,,,,,,,,,,,,,,,,,,,,,,,,,,,,,,,,,,,0,4,4,0,1,,,,,,,,,,,,,,,,,,,,,,,,,,,,,,,,,,,,,,,,,
611ebe16f706cd0ee4f4f876,001,2022-11-21_02h25.21.882,Info_measure_main_exp,2022.2.2,Win32,60.09976561,,,,,,,,,,,,,,,,,,,,,,,,,,,,,,7,2.3023,1,,,,,,,,,,,,0,131,5,5,2082,2298,absent_patch/patch0002082.jpg,absent_patch/patch0002298.jpg,,,,,,,,,,,,,,,,,,,,0.058333362,0.068518497,1,0,0,response1disk,7,-0.003703718,-0.014814836,1,0,0,center_square,0,6,6,107,1,,,,,,,,,,,,,,,,,,,,,,,
611ebe16f706cd0ee4f4f876,001,2022-11-21_02h25.21.882,Info_measure_main_exp,2022.2.2,Win32,60.09976561,,,,,,,,,,,,,,,,,,masks/mask_005.jpg,,,,,,,,,,,,,,,,,,,,,,,,,,,,,,,,,,,,,,,,,,,0,0,0,4,1,,,,,,,,,,,,,,,,,,,,,,,,,,,,,,,,,,,,,,,,,,,,,,
611ebe16f706cd0ee4f4f876,001,2022-11-21_02h25.21.882,Info_measure_main_exp,2022.2.2,Win32,60.09976561,,,,,,,,,,,,,,,,,,masks/mask_003.jpg,,,,,,,,,,,,,,,,,,,,,,,,,,,,,,,,,,,,,,,,,,,0,1,1,2,1,,,,,,,,,,,,,,,,,,,,,,,,,,,,,,,,,,,,,,,,,,,,,,
611ebe16f706cd0ee4f4f876,001,2022-11-21_02h25.21.882,Info_measure_main_exp,2022.2.2,Win32,60.09976561,,,,,,,,,,,,,,,,,,masks/mask_001.jpg,,,,,,,,,,,,,,,,,,,,,,,,,,,,,,,,,,,,,,,,,,,0,2,2,0,1,,,,,,,,,,,,,,,,,,,,,,,,,,,,,,,,,,,,,,,,,,,,,,
611ebe16f706cd0ee4f4f876,001,2022-11-21_02h25.21.882,Info_measure_main_exp,2022.2.2,Win32,60.09976561,,,,,,,,,,,,,,,,,,masks/mask_004.jpg,,,,,,,,,,,,,,,,,,,,,,,,,,,,,,,,,,,,,,,,,,,0,3,3,3,1,,,,,,,,,,,,,,,,,,,,,,,,,,,,,,,,,,,,,,,,,,,,,,
611ebe16f706cd0ee4f4f876,001,2022-11-21_02h25.21.882,Info_measure_main_exp,2022.2.2,Win32,60.09976561,,,,,,,,,,,,,,,,,,masks/mask_002.jpg,,,,,,,,,,,,,,,,,,,,,,,,,,,,,,,,,,,,,,,,,,,0,4,4,1,1,,,,,,,,,,,,,,,,,,,,,,,,,,,,,,,,,,,,,,,,,,,,,,
611ebe16f706cd0ee4f4f876,001,2022-11-21_02h25.21.882,Info_measure_main_exp,2022.2.2,Win32,60.09976561,,,,,,,,,,,,,,,,,,masks/mask_002.jpg,,,,,,,,,,,,,,,,,,,,,,,,,,,,,,,,,,,,,,,,,,,,,,,,0,0,0,1,1,,,,,,,,,,,,,,,,,,,,,,,,,,,,,,,,,,,,,,,,,
611ebe16f706cd0ee4f4f876,001,2022-11-21_02h25.21.882,Info_measure_main_exp,2022.2.2,Win32,60.09976561,,,,,,,,,,,,,,,,,,masks/mask_001.jpg,,,,,,,,,,,,,,,,,,,,,,,,,,,,,,,,,,,,,,,,,,,,,,,,0,1,1,0,1,,,,,,,,,,,,,,,,,,,,,,,,,,,,,,,,,,,,,,,,,
611ebe16f706cd0ee4f4f876,001,2022-11-21_02h25.21.882,Info_measure_main_exp,2022.2.2,Win32,60.09976561,,,,,,,,,,,,,,,,,,masks/mask_003.jpg,,,,,,,,,,,,,,,,,,,,,,,,,,,,,,,,,,,,,,,,,,,,,,,,0,2,2,2,1,,,,,,,,,,,,,,,,,,,,,,,,,,,,,,,,,,,,,,,,,
611ebe16f706cd0ee4f4f876,001,2022-11-21_02h25.21.882,Info_measure_main_exp,2022.2.2,Win32,60.09976561,,,,,,,,,,,,,,,,,,masks/mask_004.jpg,,,,,,,,,,,,,,,,,,,,,,,,,,,,,,,,,,,,,,,,,,,,,,,,0,3,3,3,1,,,,,,,,,,,,,,,,,,,,,,,,,,,,,,,,,,,,,,,,,
611ebe16f706cd0ee4f4f876,001,2022-11-21_02h25.21.882,Info_measure_main_exp,2022.2.2,Win32,60.09976561,,,,,,,,,,,,,,,,,,masks/mask_005.jpg,,,,,,,,,,,,,,,,,,,,,,,,,,,,,,,,,,,,,,,,,,,,,,,,0,4,4,4,1,,,,,,,,,,,,,,,,,,,,,,,,,,,,,,,,,,,,,,,,,
611ebe16f706cd0ee4f4f876,001,2022-11-21_02h25.21.882,Info_measure_main_exp,2022.2.2,Win32,60.09976561,,,,,,,,,,,,,,,,,,,,,,,,,,,,,,5,1.2834,1,,,,,,,,,,,,0,131,5,5,1974,2142,absent_patch/patch0001974.jpg,absent_patch/patch0002142.jpg,,,,,,,,,,,,,,,,,,,,0.063888903,-0.017592607,1,0,0,response3disk,8,0.009259259,0.00462963,1,0,0,center_square,0,7,7,38,1,,,,,,,,,,,,,,,,,,,,,,,
611ebe16f706cd0ee4f4f876,001,2022-11-21_02h25.21.882,Info_measure_main_exp,2022.2.2,Win32,60.09976561,,,,,,,,,,,,,,,,,,masks/mask_003.jpg,,,,,,,,,,,,,,,,,,,,,,,,,,,,,,,,,,,,,,,,,,,0,0,0,2,1,,,,,,,,,,,,,,,,,,,,,,,,,,,,,,,,,,,,,,,,,,,,,,
611ebe16f706cd0ee4f4f876,001,2022-11-21_02h25.21.882,Info_measure_main_exp,2022.2.2,Win32,60.09976561,,,,,,,,,,,,,,,,,,masks/mask_002.jpg,,,,,,,,,,,,,,,,,,,,,,,,,,,,,,,,,,,,,,,,,,,0,1,1,1,1,,,,,,,,,,,,,,,,,,,,,,,,,,,,,,,,,,,,,,,,,,,,,,
611ebe16f706cd0ee4f4f876,001,2022-11-21_02h25.21.882,Info_measure_main_exp,2022.2.2,Win32,60.09976561,,,,,,,,,,,,,,,,,,masks/mask_005.jpg,,,,,,,,,,,,,,,,,,,,,,,,,,,,,,,,,,,,,,,,,,,0,2,2,4,1,,,,,,,,,,,,,,,,,,,,,,,,,,,,,,,,,,,,,,,,,,,,,,
611ebe16f706cd0ee4f4f876,001,2022-11-21_02h25.21.882,Info_measure_main_exp,2022.2.2,Win32,60.09976561,,,,,,,,,,,,,,,,,,masks/mask_001.jpg,,,,,,,,,,,,,,,,,,,,,,,,,,,,,,,,,,,,,,,,,,,0,3,3,0,1,,,,,,,,,,,,,,,,,,,,,,,,,,,,,,,,,,,,,,,,,,,,,,
611ebe16f706cd0ee4f4f876,001,2022-11-21_02h25.21.882,Info_measure_main_exp,2022.2.2,Win32,60.09976561,,,,,,,,,,,,,,,,,,masks/mask_004.jpg,,,,,,,,,,,,,,,,,,,,,,,,,,,,,,,,,,,,,,,,,,,0,4,4,3,1,,,,,,,,,,,,,,,,,,,,,,,,,,,,,,,,,,,,,,,,,,,,,,
611ebe16f706cd0ee4f4f876,001,2022-11-21_02h25.21.882,Info_measure_main_exp,2022.2.2,Win32,60.09976561,,,,,,,,,,,,,,,,,,masks/mask_001.jpg,,,,,,,,,,,,,,,,,,,,,,,,,,,,,,,,,,,,,,,,,,,,,,,,0,0,0,0,1,,,,,,,,,,,,,,,,,,,,,,,,,,,,,,,,,,,,,,,,,
611ebe16f706cd0ee4f4f876,001,2022-11-21_02h25.21.882,Info_measure_main_exp,2022.2.2,Win32,60.09976561,,,,,,,,,,,,,,,,,,masks/mask_005.jpg,,,,,,,,,,,,,,,,,,,,,,,,,,,,,,,,,,,,,,,,,,,,,,,,0,1,1,4,1,,,,,,,,,,,,,,,,,,,,,,,,,,,,,,,,,,,,,,,,,
611ebe16f706cd0ee4f4f876,001,2022-11-21_02h25.21.882,Info_measure_main_exp,2022.2.2,Win32,60.09976561,,,,,,,,,,,,,,,,,,masks/mask_004.jpg,,,,,,,,,,,,,,,,,,,,,,,,,,,,,,,,,,,,,,,,,,,,,,,,0,2,2,3,1,,,,,,,,,,,,,,,,,,,,,,,,,,,,,,,,,,,,,,,,,
611ebe16f706cd0ee4f4f876,001,2022-11-21_02h25.21.882,Info_measure_main_exp,2022.2.2,Win32,60.09976561,,,,,,,,,,,,,,,,,,masks/mask_003.jpg,,,,,,,,,,,,,,,,,,,,,,,,,,,,,,,,,,,,,,,,,,,,,,,,0,3,3,2,1,,,,,,,,,,,,,,,,,,,,,,,,,,,,,,,,,,,,,,,,,
611ebe16f706cd0ee4f4f876,001,2022-11-21_02h25.21.882,Info_measure_main_exp,2022.2.2,Win32,60.09976561,,,,,,,,,,,,,,,,,,masks/mask_002.jpg,,,,,,,,,,,,,,,,,,,,,,,,,,,,,,,,,,,,,,,,,,,,,,,,0,4,4,1,1,,,,,,,,,,,,,,,,,,,,,,,,,,,,,,,,,,,,,,,,,
611ebe16f706cd0ee4f4f876,001,2022-11-21_02h25.21.882,Info_measure_main_exp,2022.2.2,Win32,60.09976561,,,,,,,,,,,,,,,,,,,,,,,,,,,,,,7,0.8179,1,,,,,,,,,,,,0,131,5,5,1950,2214,absent_patch/patch0001950.jpg,absent_patch/patch0002214.jpg,,,,,,,,,,,,,,,,,,,,0.006481524,0.060185185,1,0,0,response1disk,9,-0.001851824,0.010185171,1,0,0,center_square,0,8,8,85,1,,,,,,,,,,,,,,,,,,,,,,,
611ebe16f706cd0ee4f4f876,001,2022-11-21_02h25.21.882,Info_measure_main_exp,2022.2.2,Win32,60.09976561,,,,,,,,,,,,,,,,,,masks/mask_003.jpg,,,,,,,,,,,,,,,,,,,,,,,,,,,,,,,,,,,,,,,,,,,0,0,0,2,1,,,,,,,,,,,,,,,,,,,,,,,,,,,,,,,,,,,,,,,,,,,,,,
611ebe16f706cd0ee4f4f876,001,2022-11-21_02h25.21.882,Info_measure_main_exp,2022.2.2,Win32,60.09976561,,,,,,,,,,,,,,,,,,masks/mask_004.jpg,,,,,,,,,,,,,,,,,,,,,,,,,,,,,,,,,,,,,,,,,,,0,1,1,3,1,,,,,,,,,,,,,,,,,,,,,,,,,,,,,,,,,,,,,,,,,,,,,,
611ebe16f706cd0ee4f4f876,001,2022-11-21_02h25.21.882,Info_measure_main_exp,2022.2.2,Win32,60.09976561,,,,,,,,,,,,,,,,,,masks/mask_001.jpg,,,,,,,,,,,,,,,,,,,,,,,,,,,,,,,,,,,,,,,,,,,0,2,2,0,1,,,,,,,,,,,,,,,,,,,,,,,,,,,,,,,,,,,,,,,,,,,,,,
611ebe16f706cd0ee4f4f876,001,2022-11-21_02h25.21.882,Info_measure_main_exp,2022.2.2,Win32,60.09976561,,,,,,,,,,,,,,,,,,masks/mask_005.jpg,,,,,,,,,,,,,,,,,,,,,,,,,,,,,,,,,,,,,,,,,,,0,3,3,4,1,,,,,,,,,,,,,,,,,,,,,,,,,,,,,,,,,,,,,,,,,,,,,,
611ebe16f706cd0ee4f4f876,001,2022-11-21_02h25.21.882,Info_measure_main_exp,2022.2.2,Win32,60.09976561,,,,,,,,,,,,,,,,,,masks/mask_002.jpg,,,,,,,,,,,,,,,,,,,,,,,,,,,,,,,,,,,,,,,,,,,0,4,4,1,1,,,,,,,,,,,,,,,,,,,,,,,,,,,,,,,,,,,,,,,,,,,,,,
611ebe16f706cd0ee4f4f876,001,2022-11-21_02h25.21.882,Info_measure_main_exp,2022.2.2,Win32,60.09976561,,,,,,,,,,,,,,,,,,masks/mask_005.jpg,,,,,,,,,,,,,,,,,,,,,,,,,,,,,,,,,,,,,,,,,,,,,,,,0,0,0,4,1,,,,,,,,,,,,,,,,,,,,,,,,,,,,,,,,,,,,,,,,,
611ebe16f706cd0ee4f4f876,001,2022-11-21_02h25.21.882,Info_measure_main_exp,2022.2.2,Win32,60.09976561,,,,,,,,,,,,,,,,,,masks/mask_001.jpg,,,,,,,,,,,,,,,,,,,,,,,,,,,,,,,,,,,,,,,,,,,,,,,,0,1,1,0,1,,,,,,,,,,,,,,,,,,,,,,,,,,,,,,,,,,,,,,,,,
611ebe16f706cd0ee4f4f876,001,2022-11-21_02h25.21.882,Info_measure_main_exp,2022.2.2,Win32,60.09976561,,,,,,,,,,,,,,,,,,masks/mask_004.jpg,,,,,,,,,,,,,,,,,,,,,,,,,,,,,,,,,,,,,,,,,,,,,,,,0,2,2,3,1,,,,,,,,,,,,,,,,,,,,,,,,,,,,,,,,,,,,,,,,,
611ebe16f706cd0ee4f4f876,001,2022-11-21_02h25.21.882,Info_measure_main_exp,2022.2.2,Win32,60.09976561,,,,,,,,,,,,,,,,,,masks/mask_002.jpg,,,,,,,,,,,,,,,,,,,,,,,,,,,,,,,,,,,,,,,,,,,,,,,,0,3,3,1,1,,,,,,,,,,,,,,,,,,,,,,,,,,,,,,,,,,,,,,,,,
611ebe16f706cd0ee4f4f876,001,2022-11-21_02h25.21.882,Info_measure_main_exp,2022.2.2,Win32,60.09976561,,,,,,,,,,,,,,,,,,masks/mask_003.jpg,,,,,,,,,,,,,,,,,,,,,,,,,,,,,,,,,,,,,,,,,,,,,,,,0,4,4,2,1,,,,,,,,,,,,,,,,,,,,,,,,,,,,,,,,,,,,,,,,,
611ebe16f706cd0ee4f4f876,001,2022-11-21_02h25.21.882,Info_measure_main_exp,2022.2.2,Win32,60.09976561,,,,,,,,,,,,,,,,,,,,,,,,,,,,,,6,4.2964,1,,,,,,,,,,,,0,131,5,5,1986,2274,absent_patch/patch0001986.jpg,absent_patch/patch0002274.jpg,,,,,,,,,,,,,,,,,,,,0.033333319,0.002777771,1,0,0,response1disk,10,-0.009259259,0.00462963,1,0,0,center_square,0,9,9,7,1,,,,,,,,,,,,,,,,,,,,,,,
611ebe16f706cd0ee4f4f876,001,2022-11-21_02h25.21.882,Info_measure_main_exp,2022.2.2,Win32,60.09976561,,,,,,,,,,,,,,,,,,masks/mask_004.jpg,,,,,,,,,,,,,,,,,,,,,,,,,,,,,,,,,,,,,,,,,,,0,0,0,3,1,,,,,,,,,,,,,,,,,,,,,,,,,,,,,,,,,,,,,,,,,,,,,,
611ebe16f706cd0ee4f4f876,001,2022-11-21_02h25.21.882,Info_measure_main_exp,2022.2.2,Win32,60.09976561,,,,,,,,,,,,,,,,,,masks/mask_001.jpg,,,,,,,,,,,,,,,,,,,,,,,,,,,,,,,,,,,,,,,,,,,0,1,1,0,1,,,,,,,,,,,,,,,,,,,,,,,,,,,,,,,,,,,,,,,,,,,,,,
611ebe16f706cd0ee4f4f876,001,2022-11-21_02h25.21.882,Info_measure_main_exp,2022.2.2,Win32,60.09976561,,,,,,,,,,,,,,,,,,masks/mask_003.jpg,,,,,,,,,,,,,,,,,,,,,,,,,,,,,,,,,,,,,,,,,,,0,2,2,2,1,,,,,,,,,,,,,,,,,,,,,,,,,,,,,,,,,,,,,,,,,,,,,,
611ebe16f706cd0ee4f4f876,001,2022-11-21_02h25.21.882,Info_measure_main_exp,2022.2.2,Win32,60.09976561,,,,,,,,,,,,,,,,,,masks/mask_005.jpg,,,,,,,,,,,,,,,,,,,,,,,,,,,,,,,,,,,,,,,,,,,0,3,3,4,1,,,,,,,,,,,,,,,,,,,,,,,,,,,,,,,,,,,,,,,,,,,,,,
611ebe16f706cd0ee4f4f876,001,2022-11-21_02h25.21.882,Info_measure_main_exp,2022.2.2,Win32,60.09976561,,,,,,,,,,,,,,,,,,masks/mask_002.jpg,,,,,,,,,,,,,,,,,,,,,,,,,,,,,,,,,,,,,,,,,,,0,4,4,1,1,,,,,,,,,,,,,,,,,,,,,,,,,,,,,,,,,,,,,,,,,,,,,,
611ebe16f706cd0ee4f4f876,001,2022-11-21_02h25.21.882,Info_measure_main_exp,2022.2.2,Win32,60.09976561,,,,,,,,,,,,,,,,,,masks/mask_002.jpg,,,,,,,,,,,,,,,,,,,,,,,,,,,,,,,,,,,,,,,,,,,,,,,,0,0,0,1,1,,,,,,,,,,,,,,,,,,,,,,,,,,,,,,,,,,,,,,,,,
611ebe16f706cd0ee4f4f876,001,2022-11-21_02h25.21.882,Info_measure_main_exp,2022.2.2,Win32,60.09976561,,,,,,,,,,,,,,,,,,masks/mask_004.jpg,,,,,,,,,,,,,,,,,,,,,,,,,,,,,,,,,,,,,,,,,,,,,,,,0,1,1,3,1,,,,,,,,,,,,,,,,,,,,,,,,,,,,,,,,,,,,,,,,,
611ebe16f706cd0ee4f4f876,001,2022-11-21_02h25.21.882,Info_measure_main_exp,2022.2.2,Win32,60.09976561,,,,,,,,,,,,,,,,,,masks/mask_003.jpg,,,,,,,,,,,,,,,,,,,,,,,,,,,,,,,,,,,,,,,,,,,,,,,,0,2,2,2,1,,,,,,,,,,,,,,,,,,,,,,,,,,,,,,,,,,,,,,,,,
611ebe16f706cd0ee4f4f876,001,2022-11-21_02h25.21.882,Info_measure_main_exp,2022.2.2,Win32,60.09976561,,,,,,,,,,,,,,,,,,masks/mask_005.jpg,,,,,,,,,,,,,,,,,,,,,,,,,,,,,,,,,,,,,,,,,,,,,,,,0,3,3,4,1,,,,,,,,,,,,,,,,,,,,,,,,,,,,,,,,,,,,,,,,,
611ebe16f706cd0ee4f4f876,001,2022-11-21_02h25.21.882,Info_measure_main_exp,2022.2.2,Win32,60.09976561,,,,,,,,,,,,,,,,,,masks/mask_001.jpg,,,,,,,,,,,,,,,,,,,,,,,,,,,,,,,,,,,,,,,,,,,,,,,,0,4,4,0,1,,,,,,,,,,,,,,,,,,,,,,,,,,,,,,,,,,,,,,,,,
611ebe16f706cd0ee4f4f876,001,2022-11-21_02h25.21.882,Info_measure_main_exp,2022.2.2,Win32,60.09976561,,,,,,,,,,,,,,,,,,,,,,,,,,,,,,0,0.6478,1,,,,,,,,,,,,0,131,5,5,1950,1950,absent_patch/patch0001950.jpg,absent_patch/patch0001950.jpg,,,,,,,,,,,,,,,,,,,,-0.022222236,0.074999986,1,0,0,response7disk,11,-0.010185171,0.008333312,1,0,0,center_square,0,10,10,92,1,,,,,,,,,,,,,,,,,,,,,,,
611ebe16f706cd0ee4f4f876,001,2022-11-21_02h25.21.882,Info_measure_main_exp,2022.2.2,Win32,60.09976561,,,,,,,,,,,,,,,,,,masks/mask_002.jpg,,,,,,,,,,,,,,,,,,,,,,,,,,,,,,,,,,,,,,,,,,,0,0,0,1,1,,,,,,,,,,,,,,,,,,,,,,,,,,,,,,,,,,,,,,,,,,,,,,
611ebe16f706cd0ee4f4f876,001,2022-11-21_02h25.21.882,Info_measure_main_exp,2022.2.2,Win32,60.09976561,,,,,,,,,,,,,,,,,,masks/mask_004.jpg,,,,,,,,,,,,,,,,,,,,,,,,,,,,,,,,,,,,,,,,,,,0,1,1,3,1,,,,,,,,,,,,,,,,,,,,,,,,,,,,,,,,,,,,,,,,,,,,,,
611ebe16f706cd0ee4f4f876,001,2022-11-21_02h25.21.882,Info_measure_main_exp,2022.2.2,Win32,60.09976561,,,,,,,,,,,,,,,,,,masks/mask_003.jpg,,,,,,,,,,,,,,,,,,,,,,,,,,,,,,,,,,,,,,,,,,,0,2,2,2,1,,,,,,,,,,,,,,,,,,,,,,,,,,,,,,,,,,,,,,,,,,,,,,
611ebe16f706cd0ee4f4f876,001,2022-11-21_02h25.21.882,Info_measure_main_exp,2022.2.2,Win32,60.09976561,,,,,,,,,,,,,,,,,,masks/mask_001.jpg,,,,,,,,,,,,,,,,,,,,,,,,,,,,,,,,,,,,,,,,,,,0,3,3,0,1,,,,,,,,,,,,,,,,,,,,,,,,,,,,,,,,,,,,,,,,,,,,,,
611ebe16f706cd0ee4f4f876,001,2022-11-21_02h25.21.882,Info_measure_main_exp,2022.2.2,Win32,60.09976561,,,,,,,,,,,,,,,,,,masks/mask_005.jpg,,,,,,,,,,,,,,,,,,,,,,,,,,,,,,,,,,,,,,,,,,,0,4,4,4,1,,,,,,,,,,,,,,,,,,,,,,,,,,,,,,,,,,,,,,,,,,,,,,
611ebe16f706cd0ee4f4f876,001,2022-11-21_02h25.21.882,Info_measure_main_exp,2022.2.2,Win32,60.09976561,,,,,,,,,,,,,,,,,,masks/mask_001.jpg,,,,,,,,,,,,,,,,,,,,,,,,,,,,,,,,,,,,,,,,,,,,,,,,0,0,0,0,1,,,,,,,,,,,,,,,,,,,,,,,,,,,,,,,,,,,,,,,,,
611ebe16f706cd0ee4f4f876,001,2022-11-21_02h25.21.882,Info_measure_main_exp,2022.2.2,Win32,60.09976561,,,,,,,,,,,,,,,,,,masks/mask_002.jpg,,,,,,,,,,,,,,,,,,,,,,,,,,,,,,,,,,,,,,,,,,,,,,,,0,1,1,1,1,,,,,,,,,,,,,,,,,,,,,,,,,,,,,,,,,,,,,,,,,
611ebe16f706cd0ee4f4f876,001,2022-11-21_02h25.21.882,Info_measure_main_exp,2022.2.2,Win32,60.09976561,,,,,,,,,,,,,,,,,,masks/mask_004.jpg,,,,,,,,,,,,,,,,,,,,,,,,,,,,,,,,,,,,,,,,,,,,,,,,0,2,2,3,1,,,,,,,,,,,,,,,,,,,,,,,,,,,,,,,,,,,,,,,,,
611ebe16f706cd0ee4f4f876,001,2022-11-21_02h25.21.882,Info_measure_main_exp,2022.2.2,Win32,60.09976561,,,,,,,,,,,,,,,,,,masks/mask_003.jpg,,,,,,,,,,,,,,,,,,,,,,,,,,,,,,,,,,,,,,,,,,,,,,,,0,3,3,2,1,,,,,,,,,,,,,,,,,,,,,,,,,,,,,,,,,,,,,,,,,
611ebe16f706cd0ee4f4f876,001,2022-11-21_02h25.21.882,Info_measure_main_exp,2022.2.2,Win32,60.09976561,,,,,,,,,,,,,,,,,,masks/mask_005.jpg,,,,,,,,,,,,,,,,,,,,,,,,,,,,,,,,,,,,,,,,,,,,,,,,0,4,4,4,1,,,,,,,,,,,,,,,,,,,,,,,,,,,,,,,,,,,,,,,,,
611ebe16f706cd0ee4f4f876,001,2022-11-21_02h25.21.882,Info_measure_main_exp,2022.2.2,Win32,60.09976561,,,,,,,,,,,,,,,,,,,,,,,,,,,,,,7,1.0812,1,,,,,,,,,,,,0,131,5,5,2190,2250,absent_patch/patch0002190.jpg,absent_patch/patch0002250.jpg,,,,,,,,,,,,,,,,,,,,0.007407436,0.034259266,1,0,0,response1disk,12,-0.002777735,0.00462963,1,0,0,center_square,0,11,11,93,1,,,,,,,,,,,,,,,,,,,,,,,
611ebe16f706cd0ee4f4f876,001,2022-11-21_02h25.21.882,Info_measure_main_exp,2022.2.2,Win32,60.09976561,,,,,,,,,,,,,,,,,,masks/mask_003.jpg,,,,,,,,,,,,,,,,,,,,,,,,,,,,,,,,,,,,,,,,,,,0,0,0,2,1,,,,,,,,,,,,,,,,,,,,,,,,,,,,,,,,,,,,,,,,,,,,,,
611ebe16f706cd0ee4f4f876,001,2022-11-21_02h25.21.882,Info_measure_main_exp,2022.2.2,Win32,60.09976561,,,,,,,,,,,,,,,,,,masks/mask_005.jpg,,,,,,,,,,,,,,,,,,,,,,,,,,,,,,,,,,,,,,,,,,,0,1,1,4,1,,,,,,,,,,,,,,,,,,,,,,,,,,,,,,,,,,,,,,,,,,,,,,
611ebe16f706cd0ee4f4f876,001,2022-11-21_02h25.21.882,Info_measure_main_exp,2022.2.2,Win32,60.09976561,,,,,,,,,,,,,,,,,,masks/mask_001.jpg,,,,,,,,,,,,,,,,,,,,,,,,,,,,,,,,,,,,,,,,,,,0,2,2,0,1,,,,,,,,,,,,,,,,,,,,,,,,,,,,,,,,,,,,,,,,,,,,,,
611ebe16f706cd0ee4f4f876,001,2022-11-21_02h25.21.882,Info_measure_main_exp,2022.2.2,Win32,60.09976561,,,,,,,,,,,,,,,,,,masks/mask_002.jpg,,,,,,,,,,,,,,,,,,,,,,,,,,,,,,,,,,,,,,,,,,,0,3,3,1,1,,,,,,,,,,,,,,,,,,,,,,,,,,,,,,,,,,,,,,,,,,,,,,
611ebe16f706cd0ee4f4f876,001,2022-11-21_02h25.21.882,Info_measure_main_exp,2022.2.2,Win32,60.09976561,,,,,,,,,,,,,,,,,,masks/mask_004.jpg,,,,,,,,,,,,,,,,,,,,,,,,,,,,,,,,,,,,,,,,,,,0,4,4,3,1,,,,,,,,,,,,,,,,,,,,,,,,,,,,,,,,,,,,,,,,,,,,,,
611ebe16f706cd0ee4f4f876,001,2022-11-21_02h25.21.882,Info_measure_main_exp,2022.2.2,Win32,60.09976561,,,,,,,,,,,,,,,,,,masks/mask_002.jpg,,,,,,,,,,,,,,,,,,,,,,,,,,,,,,,,,,,,,,,,,,,,,,,,0,0,0,1,1,,,,,,,,,,,,,,,,,,,,,,,,,,,,,,,,,,,,,,,,,
611ebe16f706cd0ee4f4f876,001,2022-11-21_02h25.21.882,Info_measure_main_exp,2022.2.2,Win32,60.09976561,,,,,,,,,,,,,,,,,,masks/mask_003.jpg,,,,,,,,,,,,,,,,,,,,,,,,,,,,,,,,,,,,,,,,,,,,,,,,0,1,1,2,1,,,,,,,,,,,,,,,,,,,,,,,,,,,,,,,,,,,,,,,,,
611ebe16f706cd0ee4f4f876,001,2022-11-21_02h25.21.882,Info_measure_main_exp,2022.2.2,Win32,60.09976561,,,,,,,,,,,,,,,,,,masks/mask_004.jpg,,,,,,,,,,,,,,,,,,,,,,,,,,,,,,,,,,,,,,,,,,,,,,,,0,2,2,3,1,,,,,,,,,,,,,,,,,,,,,,,,,,,,,,,,,,,,,,,,,
611ebe16f706cd0ee4f4f876,001,2022-11-21_02h25.21.882,Info_measure_main_exp,2022.2.2,Win32,60.09976561,,,,,,,,,,,,,,,,,,masks/mask_001.jpg,,,,,,,,,,,,,,,,,,,,,,,,,,,,,,,,,,,,,,,,,,,,,,,,0,3,3,0,1,,,,,,,,,,,,,,,,,,,,,,,,,,,,,,,,,,,,,,,,,
611ebe16f706cd0ee4f4f876,001,2022-11-21_02h25.21.882,Info_measure_main_exp,2022.2.2,Win32,60.09976561,,,,,,,,,,,,,,,,,,masks/mask_005.jpg,,,,,,,,,,,,,,,,,,,,,,,,,,,,,,,,,,,,,,,,,,,,,,,,0,4,4,4,1,,,,,,,,,,,,,,,,,,,,,,,,,,,,,,,,,,,,,,,,,
611ebe16f706cd0ee4f4f876,001,2022-11-21_02h25.21.882,Info_measure_main_exp,2022.2.2,Win32,60.09976561,,,,,,,,,,,,,,,,,,,,,,,,,,,,,,7,1.6165,1,,,,,,,,,,,,1,131,5,5,2250,1,absent_patch/patch0002250.jpg,present_patch/cong_131_5_a.jpg,,,,,,,,,,,,,,,,,,,,0.012037065,0.052777785,1,0,0,response1disk,13,0.00462963,0.012962942,1,0,0,center_square,0,12,12,5,1,,,,,,,,,,,,,,,,,,,,,,,
611ebe16f706cd0ee4f4f876,001,2022-11-21_02h25.21.882,Info_measure_main_exp,2022.2.2,Win32,60.09976561,,,,,,,,,,,,,,,,,,masks/mask_001.jpg,,,,,,,,,,,,,,,,,,,,,,,,,,,,,,,,,,,,,,,,,,,0,0,0,0,1,,,,,,,,,,,,,,,,,,,,,,,,,,,,,,,,,,,,,,,,,,,,,,
611ebe16f706cd0ee4f4f876,001,2022-11-21_02h25.21.882,Info_measure_main_exp,2022.2.2,Win32,60.09976561,,,,,,,,,,,,,,,,,,masks/mask_003.jpg,,,,,,,,,,,,,,,,,,,,,,,,,,,,,,,,,,,,,,,,,,,0,1,1,2,1,,,,,,,,,,,,,,,,,,,,,,,,,,,,,,,,,,,,,,,,,,,,,,
611ebe16f706cd0ee4f4f876,001,2022-11-21_02h25.21.882,Info_measure_main_exp,2022.2.2,Win32,60.09976561,,,,,,,,,,,,,,,,,,masks/mask_004.jpg,,,,,,,,,,,,,,,,,,,,,,,,,,,,,,,,,,,,,,,,,,,0,2,2,3,1,,,,,,,,,,,,,,,,,,,,,,,,,,,,,,,,,,,,,,,,,,,,,,
611ebe16f706cd0ee4f4f876,001,2022-11-21_02h25.21.882,Info_measure_main_exp,2022.2.2,Win32,60.09976561,,,,,,,,,,,,,,,,,,masks/mask_005.jpg,,,,,,,,,,,,,,,,,,,,,,,,,,,,,,,,,,,,,,,,,,,0,3,3,4,1,,,,,,,,,,,,,,,,,,,,,,,,,,,,,,,,,,,,,,,,,,,,,,
611ebe16f706cd0ee4f4f876,001,2022-11-21_02h25.21.882,Info_measure_main_exp,2022.2.2,Win32,60.09976561,,,,,,,,,,,,,,,,,,masks/mask_002.jpg,,,,,,,,,,,,,,,,,,,,,,,,,,,,,,,,,,,,,,,,,,,0,4,4,1,1,,,,,,,,,,,,,,,,,,,,,,,,,,,,,,,,,,,,,,,,,,,,,,
611ebe16f706cd0ee4f4f876,001,2022-11-21_02h25.21.882,Info_measure_main_exp,2022.2.2,Win32,60.09976561,,,,,,,,,,,,,,,,,,masks/mask_003.jpg,,,,,,,,,,,,,,,,,,,,,,,,,,,,,,,,,,,,,,,,,,,,,,,,0,0,0,2,1,,,,,,,,,,,,,,,,,,,,,,,,,,,,,,,,,,,,,,,,,
611ebe16f706cd0ee4f4f876,001,2022-11-21_02h25.21.882,Info_measure_main_exp,2022.2.2,Win32,60.09976561,,,,,,,,,,,,,,,,,,masks/mask_005.jpg,,,,,,,,,,,,,,,,,,,,,,,,,,,,,,,,,,,,,,,,,,,,,,,,0,1,1,4,1,,,,,,,,,,,,,,,,,,,,,,,,,,,,,,,,,,,,,,,,,
611ebe16f706cd0ee4f4f876,001,2022-11-21_02h25.21.882,Info_measure_main_exp,2022.2.2,Win32,60.09976561,,,,,,,,,,,,,,,,,,masks/mask_004.jpg,,,,,,,,,,,,,,,,,,,,,,,,,,,,,,,,,,,,,,,,,,,,,,,,0,2,2,3,1,,,,,,,,,,,,,,,,,,,,,,,,,,,,,,,,,,,,,,,,,
611ebe16f706cd0ee4f4f876,001,2022-11-21_02h25.21.882,Info_measure_main_exp,2022.2.2,Win32,60.09976561,,,,,,,,,,,,,,,,,,masks/mask_001.jpg,,,,,,,,,,,,,,,,,,,,,,,,,,,,,,,,,,,,,,,,,,,,,,,,0,3,3,0,1,,,,,,,,,,,,,,,,,,,,,,,,,,,,,,,,,,,,,,,,,
611ebe16f706cd0ee4f4f876,001,2022-11-21_02h25.21.882,Info_measure_main_exp,2022.2.2,Win32,60.09976561,,,,,,,,,,,,,,,,,,masks/mask_002.jpg,,,,,,,,,,,,,,,,,,,,,,,,,,,,,,,,,,,,,,,,,,,,,,,,0,4,4,1,1,,,,,,,,,,,,,,,,,,,,,,,,,,,,,,,,,,,,,,,,,
611ebe16f706cd0ee4f4f876,001,2022-11-21_02h25.21.882,Info_measure_main_exp,2022.2.2,Win32,60.09976561,,,,,,,,,,,,,,,,,,,,,,,,,,,,,,3,2.5311,1,,,,,,,,,,,,1,131,5,5,2238,1,absent_patch/patch0002238.jpg,present_patch/cong_131_5_a.jpg,,,,,,,,,,,,,,,,,,,,-0.021296254,-0.135185171,1,0,0,response5disk,14,0.001851894,-0.001851859,1,0,0,center_square,0,13,13,104,1,,,,,,,,,,,,,,,,,,,,,,,
611ebe16f706cd0ee4f4f876,001,2022-11-21_02h25.21.882,Info_measure_main_exp,2022.2.2,Win32,60.09976561,,,,,,,,,,,,,,,,,,masks/mask_004.jpg,,,,,,,,,,,,,,,,,,,,,,,,,,,,,,,,,,,,,,,,,,,0,0,0,3,1,,,,,,,,,,,,,,,,,,,,,,,,,,,,,,,,,,,,,,,,,,,,,,
611ebe16f706cd0ee4f4f876,001,2022-11-21_02h25.21.882,Info_measure_main_exp,2022.2.2,Win32,60.09976561,,,,,,,,,,,,,,,,,,masks/mask_005.jpg,,,,,,,,,,,,,,,,,,,,,,,,,,,,,,,,,,,,,,,,,,,0,1,1,4,1,,,,,,,,,,,,,,,,,,,,,,,,,,,,,,,,,,,,,,,,,,,,,,
611ebe16f706cd0ee4f4f876,001,2022-11-21_02h25.21.882,Info_measure_main_exp,2022.2.2,Win32,60.09976561,,,,,,,,,,,,,,,,,,masks/mask_001.jpg,,,,,,,,,,,,,,,,,,,,,,,,,,,,,,,,,,,,,,,,,,,0,2,2,0,1,,,,,,,,,,,,,,,,,,,,,,,,,,,,,,,,,,,,,,,,,,,,,,
611ebe16f706cd0ee4f4f876,001,2022-11-21_02h25.21.882,Info_measure_main_exp,2022.2.2,Win32,60.09976561,,,,,,,,,,,,,,,,,,masks/mask_003.jpg,,,,,,,,,,,,,,,,,,,,,,,,,,,,,,,,,,,,,,,,,,,0,3,3,2,1,,,,,,,,,,,,,,,,,,,,,,,,,,,,,,,,,,,,,,,,,,,,,,
611ebe16f706cd0ee4f4f876,001,2022-11-21_02h25.21.882,Info_measure_main_exp,2022.2.2,Win32,60.09976561,,,,,,,,,,,,,,,,,,masks/mask_002.jpg,,,,,,,,,,,,,,,,,,,,,,,,,,,,,,,,,,,,,,,,,,,0,4,4,1,1,,,,,,,,,,,,,,,,,,,,,,,,,,,,,,,,,,,,,,,,,,,,,,
611ebe16f706cd0ee4f4f876,001,2022-11-21_02h25.21.882,Info_measure_main_exp,2022.2.2,Win32,60.09976561,,,,,,,,,,,,,,,,,,masks/mask_004.jpg,,,,,,,,,,,,,,,,,,,,,,,,,,,,,,,,,,,,,,,,,,,,,,,,0,0,0,3,1,,,,,,,,,,,,,,,,,,,,,,,,,,,,,,,,,,,,,,,,,
611ebe16f706cd0ee4f4f876,001,2022-11-21_02h25.21.882,Info_measure_main_exp,2022.2.2,Win32,60.09976561,,,,,,,,,,,,,,,,,,masks/mask_005.jpg,,,,,,,,,,,,,,,,,,,,,,,,,,,,,,,,,,,,,,,,,,,,,,,,0,1,1,4,1,,,,,,,,,,,,,,,,,,,,,,,,,,,,,,,,,,,,,,,,,
611ebe16f706cd0ee4f4f876,001,2022-11-21_02h25.21.882,Info_measure_main_exp,2022.2.2,Win32,60.09976561,,,,,,,,,,,,,,,,,,masks/mask_001.jpg,,,,,,,,,,,,,,,,,,,,,,,,,,,,,,,,,,,,,,,,,,,,,,,,0,2,2,0,1,,,,,,,,,,,,,,,,,,,,,,,,,,,,,,,,,,,,,,,,,
611ebe16f706cd0ee4f4f876,001,2022-11-21_02h25.21.882,Info_measure_main_exp,2022.2.2,Win32,60.09976561,,,,,,,,,,,,,,,,,,masks/mask_002.jpg,,,,,,,,,,,,,,,,,,,,,,,,,,,,,,,,,,,,,,,,,,,,,,,,0,3,3,1,1,,,,,,,,,,,,,,,,,,,,,,,,,,,,,,,,,,,,,,,,,
611ebe16f706cd0ee4f4f876,001,2022-11-21_02h25.21.882,Info_measure_main_exp,2022.2.2,Win32,60.09976561,,,,,,,,,,,,,,,,,,masks/mask_003.jpg,,,,,,,,,,,,,,,,,,,,,,,,,,,,,,,,,,,,,,,,,,,,,,,,0,4,4,2,1,,,,,,,,,,,,,,,,,,,,,,,,,,,,,,,,,,,,,,,,,
611ebe16f706cd0ee4f4f876,001,2022-11-21_02h25.21.882,Info_measure_main_exp,2022.2.2,Win32,60.09976561,,,,,,,,,,,,,,,,,,,,,,,,,,,,,,6,1.5041,1,,,,,,,,,,,,0,131,5,5,1974,2250,absent_patch/patch0001974.jpg,absent_patch/patch0002250.jpg,,,,,,,,,,,,,,,,,,,,0.025925954,0.01666666,1,0,0,response1disk,15,-0.012036995,-0.000925947,1,0,0,center_square,0,14,14,55,1,,,,,,,,,,,,,,,,,,,,,,,
611ebe16f706cd0ee4f4f876,001,2022-11-21_02h25.21.882,Info_measure_main_exp,2022.2.2,Win32,60.09976561,,,,,,,,,,,,,,,,,,masks/mask_001.jpg,,,,,,,,,,,,,,,,,,,,,,,,,,,,,,,,,,,,,,,,,,,0,0,0,0,1,,,,,,,,,,,,,,,,,,,,,,,,,,,,,,,,,,,,,,,,,,,,,,
611ebe16f706cd0ee4f4f876,001,2022-11-21_02h25.21.882,Info_measure_main_exp,2022.2.2,Win32,60.09976561,,,,,,,,,,,,,,,,,,masks/mask_005.jpg,,,,,,,,,,,,,,,,,,,,,,,,,,,,,,,,,,,,,,,,,,,0,1,1,4,1,,,,,,,,,,,,,,,,,,,,,,,,,,,,,,,,,,,,,,,,,,,,,,
611ebe16f706cd0ee4f4f876,001,2022-11-21_02h25.21.882,Info_measure_main_exp,2022.2.2,Win32,60.09976561,,,,,,,,,,,,,,,,,,masks/mask_003.jpg,,,,,,,,,,,,,,,,,,,,,,,,,,,,,,,,,,,,,,,,,,,0,2,2,2,1,,,,,,,,,,,,,,,,,,,,,,,,,,,,,,,,,,,,,,,,,,,,,,
611ebe16f706cd0ee4f4f876,001,2022-11-21_02h25.21.882,Info_measure_main_exp,2022.2.2,Win32,60.09976561,,,,,,,,,,,,,,,,,,masks/mask_004.jpg,,,,,,,,,,,,,,,,,,,,,,,,,,,,,,,,,,,,,,,,,,,0,3,3,3,1,,,,,,,,,,,,,,,,,,,,,,,,,,,,,,,,,,,,,,,,,,,,,,
611ebe16f706cd0ee4f4f876,001,2022-11-21_02h25.21.882,Info_measure_main_exp,2022.2.2,Win32,60.09976561,,,,,,,,,,,,,,,,,,masks/mask_002.jpg,,,,,,,,,,,,,,,,,,,,,,,,,,,,,,,,,,,,,,,,,,,0,4,4,1,1,,,,,,,,,,,,,,,,,,,,,,,,,,,,,,,,,,,,,,,,,,,,,,
611ebe16f706cd0ee4f4f876,001,2022-11-21_02h25.21.882,Info_measure_main_exp,2022.2.2,Win32,60.09976561,,,,,,,,,,,,,,,,,,masks/mask_001.jpg,,,,,,,,,,,,,,,,,,,,,,,,,,,,,,,,,,,,,,,,,,,,,,,,0,0,0,0,1,,,,,,,,,,,,,,,,,,,,,,,,,,,,,,,,,,,,,,,,,
611ebe16f706cd0ee4f4f876,001,2022-11-21_02h25.21.882,Info_measure_main_exp,2022.2.2,Win32,60.09976561,,,,,,,,,,,,,,,,,,masks/mask_003.jpg,,,,,,,,,,,,,,,,,,,,,,,,,,,,,,,,,,,,,,,,,,,,,,,,0,1,1,2,1,,,,,,,,,,,,,,,,,,,,,,,,,,,,,,,,,,,,,,,,,
611ebe16f706cd0ee4f4f876,001,2022-11-21_02h25.21.882,Info_measure_main_exp,2022.2.2,Win32,60.09976561,,,,,,,,,,,,,,,,,,masks/mask_004.jpg,,,,,,,,,,,,,,,,,,,,,,,,,,,,,,,,,,,,,,,,,,,,,,,,0,2,2,3,1,,,,,,,,,,,,,,,,,,,,,,,,,,,,,,,,,,,,,,,,,
611ebe16f706cd0ee4f4f876,001,2022-11-21_02h25.21.882,Info_measure_main_exp,2022.2.2,Win32,60.09976561,,,,,,,,,,,,,,,,,,masks/mask_002.jpg,,,,,,,,,,,,,,,,,,,,,,,,,,,,,,,,,,,,,,,,,,,,,,,,0,3,3,1,1,,,,,,,,,,,,,,,,,,,,,,,,,,,,,,,,,,,,,,,,,
611ebe16f706cd0ee4f4f876,001,2022-11-21_02h25.21.882,Info_measure_main_exp,2022.2.2,Win32,60.09976561,,,,,,,,,,,,,,,,,,masks/mask_005.jpg,,,,,,,,,,,,,,,,,,,,,,,,,,,,,,,,,,,,,,,,,,,,,,,,0,4,4,4,1,,,,,,,,,,,,,,,,,,,,,,,,,,,,,,,,,,,,,,,,,
611ebe16f706cd0ee4f4f876,001,2022-11-21_02h25.21.882,Info_measure_main_exp,2022.2.2,Win32,60.09976561,,,,,,,,,,,,,,,,,,,,,,,,,,,,,,6,1.2836,1,,,,,,,,,,,,0,131,5,5,2250,1950,absent_patch/patch0002250.jpg,absent_patch/patch0001950.jpg,,,,,,,,,,,,,,,,,,,,0.037037037,0.008333312,1,0,0,response1disk,16,-0.003703718,-0.001851859,1,0,0,center_square,0,15,15,16,1,,,,,,,,,,,,,,,,,,,,,,,
611ebe16f706cd0ee4f4f876,001,2022-11-21_02h25.21.882,Info_measure_main_exp,2022.2.2,Win32,60.09976561,,,,,,,,,,,,,,,,,,masks/mask_003.jpg,,,,,,,,,,,,,,,,,,,,,,,,,,,,,,,,,,,,,,,,,,,0,0,0,2,1,,,,,,,,,,,,,,,,,,,,,,,,,,,,,,,,,,,,,,,,,,,,,,
611ebe16f706cd0ee4f4f876,001,2022-11-21_02h25.21.882,Info_measure_main_exp,2022.2.2,Win32,60.09976561,,,,,,,,,,,,,,,,,,masks/mask_004.jpg,,,,,,,,,,,,,,,,,,,,,,,,,,,,,,,,,,,,,,,,,,,0,1,1,3,1,,,,,,,,,,,,,,,,,,,,,,,,,,,,,,,,,,,,,,,,,,,,,,
611ebe16f706cd0ee4f4f876,001,2022-11-21_02h25.21.882,Info_measure_main_exp,2022.2.2,Win32,60.09976561,,,,,,,,,,,,,,,,,,masks/mask_001.jpg,,,,,,,,,,,,,,,,,,,,,,,,,,,,,,,,,,,,,,,,,,,0,2,2,0,1,,,,,,,,,,,,,,,,,,,,,,,,,,,,,,,,,,,,,,,,,,,,,,
611ebe16f706cd0ee4f4f876,001,2022-11-21_02h25.21.882,Info_measure_main_exp,2022.2.2,Win32,60.09976561,,,,,,,,,,,,,,,,,,masks/mask_002.jpg,,,,,,,,,,,,,,,,,,,,,,,,,,,,,,,,,,,,,,,,,,,0,3,3,1,1,,,,,,,,,,,,,,,,,,,,,,,,,,,,,,,,,,,,,,,,,,,,,,
611ebe16f706cd0ee4f4f876,001,2022-11-21_02h25.21.882,Info_measure_main_exp,2022.2.2,Win32,60.09976561,,,,,,,,,,,,,,,,,,masks/mask_005.jpg,,,,,,,,,,,,,,,,,,,,,,,,,,,,,,,,,,,,,,,,,,,0,4,4,4,1,,,,,,,,,,,,,,,,,,,,,,,,,,,,,,,,,,,,,,,,,,,,,,
611ebe16f706cd0ee4f4f876,001,2022-11-21_02h25.21.882,Info_measure_main_exp,2022.2.2,Win32,60.09976561,,,,,,,,,,,,,,,,,,masks/mask_004.jpg,,,,,,,,,,,,,,,,,,,,,,,,,,,,,,,,,,,,,,,,,,,,,,,,0,0,0,3,1,,,,,,,,,,,,,,,,,,,,,,,,,,,,,,,,,,,,,,,,,
611ebe16f706cd0ee4f4f876,001,2022-11-21_02h25.21.882,Info_measure_main_exp,2022.2.2,Win32,60.09976561,,,,,,,,,,,,,,,,,,masks/mask_002.jpg,,,,,,,,,,,,,,,,,,,,,,,,,,,,,,,,,,,,,,,,,,,,,,,,0,1,1,1,1,,,,,,,,,,,,,,,,,,,,,,,,,,,,,,,,,,,,,,,,,
611ebe16f706cd0ee4f4f876,001,2022-11-21_02h25.21.882,Info_measure_main_exp,2022.2.2,Win32,60.09976561,,,,,,,,,,,,,,,,,,masks/mask_005.jpg,,,,,,,,,,,,,,,,,,,,,,,,,,,,,,,,,,,,,,,,,,,,,,,,0,2,2,4,1,,,,,,,,,,,,,,,,,,,,,,,,,,,,,,,,,,,,,,,,,
611ebe16f706cd0ee4f4f876,001,2022-11-21_02h25.21.882,Info_measure_main_exp,2022.2.2,Win32,60.09976561,,,,,,,,,,,,,,,,,,masks/mask_003.jpg,,,,,,,,,,,,,,,,,,,,,,,,,,,,,,,,,,,,,,,,,,,,,,,,0,3,3,2,1,,,,,,,,,,,,,,,,,,,,,,,,,,,,,,,,,,,,,,,,,
611ebe16f706cd0ee4f4f876,001,2022-11-21_02h25.21.882,Info_measure_main_exp,2022.2.2,Win32,60.09976561,,,,,,,,,,,,,,,,,,masks/mask_001.jpg,,,,,,,,,,,,,,,,,,,,,,,,,,,,,,,,,,,,,,,,,,,,,,,,0,4,4,0,1,,,,,,,,,,,,,,,,,,,,,,,,,,,,,,,,,,,,,,,,,
611ebe16f706cd0ee4f4f876,001,2022-11-21_02h25.21.882,Info_measure_main_exp,2022.2.2,Win32,60.09976561,,,,,,,,,,,,,,,,,,,,,,,,,,,,,,6,2.6017,1,,,,,,,,,,,,0,131,5,5,2082,2166,absent_patch/patch0002082.jpg,absent_patch/patch0002166.jpg,,,,,,,,,,,,,,,,,,,,0.033333319,0.0074074,1,0,0,response1disk,17,0.007407436,0.006481489,1,0,0,center_square,0,16,16,43,1,,,,,,,,,,,,,,,,,,,,,,,
611ebe16f706cd0ee4f4f876,001,2022-11-21_02h25.21.882,Info_measure_main_exp,2022.2.2,Win32,60.09976561,,,,,,,,,,,,,,,,,,masks/mask_001.jpg,,,,,,,,,,,,,,,,,,,,,,,,,,,,,,,,,,,,,,,,,,,0,0,0,0,1,,,,,,,,,,,,,,,,,,,,,,,,,,,,,,,,,,,,,,,,,,,,,,
611ebe16f706cd0ee4f4f876,001,2022-11-21_02h25.21.882,Info_measure_main_exp,2022.2.2,Win32,60.09976561,,,,,,,,,,,,,,,,,,masks/mask_005.jpg,,,,,,,,,,,,,,,,,,,,,,,,,,,,,,,,,,,,,,,,,,,0,1,1,4,1,,,,,,,,,,,,,,,,,,,,,,,,,,,,,,,,,,,,,,,,,,,,,,
611ebe16f706cd0ee4f4f876,001,2022-11-21_02h25.21.882,Info_measure_main_exp,2022.2.2,Win32,60.09976561,,,,,,,,,,,,,,,,,,masks/mask_004.jpg,,,,,,,,,,,,,,,,,,,,,,,,,,,,,,,,,,,,,,,,,,,0,2,2,3,1,,,,,,,,,,,,,,,,,,,,,,,,,,,,,,,,,,,,,,,,,,,,,,
611ebe16f706cd0ee4f4f876,001,2022-11-21_02h25.21.882,Info_measure_main_exp,2022.2.2,Win32,60.09976561,,,,,,,,,,,,,,,,,,masks/mask_003.jpg,,,,,,,,,,,,,,,,,,,,,,,,,,,,,,,,,,,,,,,,,,,0,3,3,2,1,,,,,,,,,,,,,,,,,,,,,,,,,,,,,,,,,,,,,,,,,,,,,,
611ebe16f706cd0ee4f4f876,001,2022-11-21_02h25.21.882,Info_measure_main_exp,2022.2.2,Win32,60.09976561,,,,,,,,,,,,,,,,,,masks/mask_002.jpg,,,,,,,,,,,,,,,,,,,,,,,,,,,,,,,,,,,,,,,,,,,0,4,4,1,1,,,,,,,,,,,,,,,,,,,,,,,,,,,,,,,,,,,,,,,,,,,,,,
611ebe16f706cd0ee4f4f876,001,2022-11-21_02h25.21.882,Info_measure_main_exp,2022.2.2,Win32,60.09976561,,,,,,,,,,,,,,,,,,masks/mask_004.jpg,,,,,,,,,,,,,,,,,,,,,,,,,,,,,,,,,,,,,,,,,,,,,,,,0,0,0,3,1,,,,,,,,,,,,,,,,,,,,,,,,,,,,,,,,,,,,,,,,,
611ebe16f706cd0ee4f4f876,001,2022-11-21_02h25.21.882,Info_measure_main_exp,2022.2.2,Win32,60.09976561,,,,,,,,,,,,,,,,,,masks/mask_001.jpg,,,,,,,,,,,,,,,,,,,,,,,,,,,,,,,,,,,,,,,,,,,,,,,,0,1,1,0,1,,,,,,,,,,,,,,,,,,,,,,,,,,,,,,,,,,,,,,,,,
611ebe16f706cd0ee4f4f876,001,2022-11-21_02h25.21.882,Info_measure_main_exp,2022.2.2,Win32,60.09976561,,,,,,,,,,,,,,,,,,masks/mask_002.jpg,,,,,,,,,,,,,,,,,,,,,,,,,,,,,,,,,,,,,,,,,,,,,,,,0,2,2,1,1,,,,,,,,,,,,,,,,,,,,,,,,,,,,,,,,,,,,,,,,,
611ebe16f706cd0ee4f4f876,001,2022-11-21_02h25.21.882,Info_measure_main_exp,2022.2.2,Win32,60.09976561,,,,,,,,,,,,,,,,,,masks/mask_003.jpg,,,,,,,,,,,,,,,,,,,,,,,,,,,,,,,,,,,,,,,,,,,,,,,,0,3,3,2,1,,,,,,,,,,,,,,,,,,,,,,,,,,,,,,,,,,,,,,,,,
611ebe16f706cd0ee4f4f876,001,2022-11-21_02h25.21.882,Info_measure_main_exp,2022.2.2,Win32,60.09976561,,,,,,,,,,,,,,,,,,masks/mask_005.jpg,,,,,,,,,,,,,,,,,,,,,,,,,,,,,,,,,,,,,,,,,,,,,,,,0,4,4,4,1,,,,,,,,,,,,,,,,,,,,,,,,,,,,,,,,,,,,,,,,,
611ebe16f706cd0ee4f4f876,001,2022-11-21_02h25.21.882,Info_measure_main_exp,2022.2.2,Win32,60.09976561,,,,,,,,,,,,,,,,,,,,,,,,,,,,,,7,2.4989,1,,,,,,,,,,,,0,131,5,5,2178,2166,absent_patch/patch0002178.jpg,absent_patch/patch0002166.jpg,,,,,,,,,,,,,,,,,,,,0.017592607,0.045370349,1,0,0,response1disk,18,0.005555541,0.013888889,1,0,0,center_square,0,17,17,72,1,,,,,,,,,,,,,,,,,,,,,,,
611ebe16f706cd0ee4f4f876,001,2022-11-21_02h25.21.882,Info_measure_main_exp,2022.2.2,Win32,60.09976561,,,,,,,,,,,,,,,,,,masks/mask_005.jpg,,,,,,,,,,,,,,,,,,,,,,,,,,,,,,,,,,,,,,,,,,,0,0,0,4,1,,,,,,,,,,,,,,,,,,,,,,,,,,,,,,,,,,,,,,,,,,,,,,
611ebe16f706cd0ee4f4f876,001,2022-11-21_02h25.21.882,Info_measure_main_exp,2022.2.2,Win32,60.09976561,,,,,,,,,,,,,,,,,,masks/mask_001.jpg,,,,,,,,,,,,,,,,,,,,,,,,,,,,,,,,,,,,,,,,,,,0,1,1,0,1,,,,,,,,,,,,,,,,,,,,,,,,,,,,,,,,,,,,,,,,,,,,,,
611ebe16f706cd0ee4f4f876,001,2022-11-21_02h25.21.882,Info_measure_main_exp,2022.2.2,Win32,60.09976561,,,,,,,,,,,,,,,,,,masks/mask_002.jpg,,,,,,,,,,,,,,,,,,,,,,,,,,,,,,,,,,,,,,,,,,,0,2,2,1,1,,,,,,,,,,,,,,,,,,,,,,,,,,,,,,,,,,,,,,,,,,,,,,
611ebe16f706cd0ee4f4f876,001,2022-11-21_02h25.21.882,Info_measure_main_exp,2022.2.2,Win32,60.09976561,,,,,,,,,,,,,,,,,,masks/mask_004.jpg,,,,,,,,,,,,,,,,,,,,,,,,,,,,,,,,,,,,,,,,,,,0,3,3,3,1,,,,,,,,,,,,,,,,,,,,,,,,,,,,,,,,,,,,,,,,,,,,,,
611ebe16f706cd0ee4f4f876,001,2022-11-21_02h25.21.882,Info_measure_main_exp,2022.2.2,Win32,60.09976561,,,,,,,,,,,,,,,,,,masks/mask_003.jpg,,,,,,,,,,,,,,,,,,,,,,,,,,,,,,,,,,,,,,,,,,,0,4,4,2,1,,,,,,,,,,,,,,,,,,,,,,,,,,,,,,,,,,,,,,,,,,,,,,
611ebe16f706cd0ee4f4f876,001,2022-11-21_02h25.21.882,Info_measure_main_exp,2022.2.2,Win32,60.09976561,,,,,,,,,,,,,,,,,,masks/mask_004.jpg,,,,,,,,,,,,,,,,,,,,,,,,,,,,,,,,,,,,,,,,,,,,,,,,0,0,0,3,1,,,,,,,,,,,,,,,,,,,,,,,,,,,,,,,,,,,,,,,,,
611ebe16f706cd0ee4f4f876,001,2022-11-21_02h25.21.882,Info_measure_main_exp,2022.2.2,Win32,60.09976561,,,,,,,,,,,,,,,,,,masks/mask_001.jpg,,,,,,,,,,,,,,,,,,,,,,,,,,,,,,,,,,,,,,,,,,,,,,,,0,1,1,0,1,,,,,,,,,,,,,,,,,,,,,,,,,,,,,,,,,,,,,,,,,
611ebe16f706cd0ee4f4f876,001,2022-11-21_02h25.21.882,Info_measure_main_exp,2022.2.2,Win32,60.09976561,,,,,,,,,,,,,,,,,,masks/mask_003.jpg,,,,,,,,,,,,,,,,,,,,,,,,,,,,,,,,,,,,,,,,,,,,,,,,0,2,2,2,1,,,,,,,,,,,,,,,,,,,,,,,,,,,,,,,,,,,,,,,,,
611ebe16f706cd0ee4f4f876,001,2022-11-21_02h25.21.882,Info_measure_main_exp,2022.2.2,Win32,60.09976561,,,,,,,,,,,,,,,,,,masks/mask_002.jpg,,,,,,,,,,,,,,,,,,,,,,,,,,,,,,,,,,,,,,,,,,,,,,,,0,3,3,1,1,,,,,,,,,,,,,,,,,,,,,,,,,,,,,,,,,,,,,,,,,
611ebe16f706cd0ee4f4f876,001,2022-11-21_02h25.21.882,Info_measure_main_exp,2022.2.2,Win32,60.09976561,,,,,,,,,,,,,,,,,,masks/mask_005.jpg,,,,,,,,,,,,,,,,,,,,,,,,,,,,,,,,,,,,,,,,,,,,,,,,0,4,4,4,1,,,,,,,,,,,,,,,,,,,,,,,,,,,,,,,,,,,,,,,,,
611ebe16f706cd0ee4f4f876,001,2022-11-21_02h25.21.882,Info_measure_main_exp,2022.2.2,Win32,60.09976561,,,,,,,,,,,,,,,,,,,,,,,,,,,,,,7,6.9131,1,,,,,,,,,,,,0,131,5,5,2214,2166,absent_patch/patch0002214.jpg,absent_patch/patch0002166.jpg,,,,,,,,,,,,,,,,,,,,0.040740755,0.069444444,1,0,0,response1disk,19,0.002777806,0,1,0,0,center_square,0,18,18,109,1,,,,,,,,,,,,,,,,,,,,,,,
611ebe16f706cd0ee4f4f876,001,2022-11-21_02h25.21.882,Info_measure_main_exp,2022.2.2,Win32,60.09976561,,,,,,,,,,,,,,,,,,masks/mask_003.jpg,,,,,,,,,,,,,,,,,,,,,,,,,,,,,,,,,,,,,,,,,,,0,0,0,2,1,,,,,,,,,,,,,,,,,,,,,,,,,,,,,,,,,,,,,,,,,,,,,,
611ebe16f706cd0ee4f4f876,001,2022-11-21_02h25.21.882,Info_measure_main_exp,2022.2.2,Win32,60.09976561,,,,,,,,,,,,,,,,,,masks/mask_005.jpg,,,,,,,,,,,,,,,,,,,,,,,,,,,,,,,,,,,,,,,,,,,0,1,1,4,1,,,,,,,,,,,,,,,,,,,,,,,,,,,,,,,,,,,,,,,,,,,,,,
611ebe16f706cd0ee4f4f876,001,2022-11-21_02h25.21.882,Info_measure_main_exp,2022.2.2,Win32,60.09976561,,,,,,,,,,,,,,,,,,masks/mask_004.jpg,,,,,,,,,,,,,,,,,,,,,,,,,,,,,,,,,,,,,,,,,,,0,2,2,3,1,,,,,,,,,,,,,,,,,,,,,,,,,,,,,,,,,,,,,,,,,,,,,,
611ebe16f706cd0ee4f4f876,001,2022-11-21_02h25.21.882,Info_measure_main_exp,2022.2.2,Win32,60.09976561,,,,,,,,,,,,,,,,,,masks/mask_002.jpg,,,,,,,,,,,,,,,,,,,,,,,,,,,,,,,,,,,,,,,,,,,0,3,3,1,1,,,,,,,,,,,,,,,,,,,,,,,,,,,,,,,,,,,,,,,,,,,,,,
611ebe16f706cd0ee4f4f876,001,2022-11-21_02h25.21.882,Info_measure_main_exp,2022.2.2,Win32,60.09976561,,,,,,,,,,,,,,,,,,masks/mask_001.jpg,,,,,,,,,,,,,,,,,,,,,,,,,,,,,,,,,,,,,,,,,,,0,4,4,0,1,,,,,,,,,,,,,,,,,,,,,,,,,,,,,,,,,,,,,,,,,,,,,,
611ebe16f706cd0ee4f4f876,001,2022-11-21_02h25.21.882,Info_measure_main_exp,2022.2.2,Win32,60.09976561,,,,,,,,,,,,,,,,,,masks/mask_002.jpg,,,,,,,,,,,,,,,,,,,,,,,,,,,,,,,,,,,,,,,,,,,,,,,,0,0,0,1,1,,,,,,,,,,,,,,,,,,,,,,,,,,,,,,,,,,,,,,,,,
611ebe16f706cd0ee4f4f876,001,2022-11-21_02h25.21.882,Info_measure_main_exp,2022.2.2,Win32,60.09976561,,,,,,,,,,,,,,,,,,masks/mask_005.jpg,,,,,,,,,,,,,,,,,,,,,,,,,,,,,,,,,,,,,,,,,,,,,,,,0,1,1,4,1,,,,,,,,,,,,,,,,,,,,,,,,,,,,,,,,,,,,,,,,,
611ebe16f706cd0ee4f4f876,001,2022-11-21_02h25.21.882,Info_measure_main_exp,2022.2.2,Win32,60.09976561,,,,,,,,,,,,,,,,,,masks/mask_001.jpg,,,,,,,,,,,,,,,,,,,,,,,,,,,,,,,,,,,,,,,,,,,,,,,,0,2,2,0,1,,,,,,,,,,,,,,,,,,,,,,,,,,,,,,,,,,,,,,,,,
611ebe16f706cd0ee4f4f876,001,2022-11-21_02h25.21.882,Info_measure_main_exp,2022.2.2,Win32,60.09976561,,,,,,,,,,,,,,,,,,masks/mask_003.jpg,,,,,,,,,,,,,,,,,,,,,,,,,,,,,,,,,,,,,,,,,,,,,,,,0,3,3,2,1,,,,,,,,,,,,,,,,,,,,,,,,,,,,,,,,,,,,,,,,,
611ebe16f706cd0ee4f4f876,001,2022-11-21_02h25.21.882,Info_measure_main_exp,2022.2.2,Win32,60.09976561,,,,,,,,,,,,,,,,,,masks/mask_004.jpg,,,,,,,,,,,,,,,,,,,,,,,,,,,,,,,,,,,,,,,,,,,,,,,,0,4,4,3,1,,,,,,,,,,,,,,,,,,,,,,,,,,,,,,,,,,,,,,,,,
611ebe16f706cd0ee4f4f876,001,2022-11-21_02h25.21.882,Info_measure_main_exp,2022.2.2,Win32,60.09976561,,,,,,,,,,,,,,,,,,,,,,,,,,,,,,7,0.8854,1,,,,,,,,,,,,1,131,5,5,2298,1,absent_patch/patch0002298.jpg,present_patch/cong_131_5_a.jpg,,,,,,,,,,,,,,,,,,,,0.012962977,0.042592578,1,0,0,response1disk,20,0,0.006481489,1,0,0,center_square,0,19,19,45,1,,,,,,,,,,,,,,,,,,,,,,,
611ebe16f706cd0ee4f4f876,001,2022-11-21_02h25.21.882,Info_measure_main_exp,2022.2.2,Win32,60.09976561,,,,,,,,,,,,,,,,,,masks/mask_003.jpg,,,,,,,,,,,,,,,,,,,,,,,,,,,,,,,,,,,,,,,,,,,0,0,0,2,1,,,,,,,,,,,,,,,,,,,,,,,,,,,,,,,,,,,,,,,,,,,,,,
611ebe16f706cd0ee4f4f876,001,2022-11-21_02h25.21.882,Info_measure_main_exp,2022.2.2,Win32,60.09976561,,,,,,,,,,,,,,,,,,masks/mask_005.jpg,,,,,,,,,,,,,,,,,,,,,,,,,,,,,,,,,,,,,,,,,,,0,1,1,4,1,,,,,,,,,,,,,,,,,,,,,,,,,,,,,,,,,,,,,,,,,,,,,,
611ebe16f706cd0ee4f4f876,001,2022-11-21_02h25.21.882,Info_measure_main_exp,2022.2.2,Win32,60.09976561,,,,,,,,,,,,,,,,,,masks/mask_002.jpg,,,,,,,,,,,,,,,,,,,,,,,,,,,,,,,,,,,,,,,,,,,0,2,2,1,1,,,,,,,,,,,,,,,,,,,,,,,,,,,,,,,,,,,,,,,,,,,,,,
611ebe16f706cd0ee4f4f876,001,2022-11-21_02h25.21.882,Info_measure_main_exp,2022.2.2,Win32,60.09976561,,,,,,,,,,,,,,,,,,masks/mask_004.jpg,,,,,,,,,,,,,,,,,,,,,,,,,,,,,,,,,,,,,,,,,,,0,3,3,3,1,,,,,,,,,,,,,,,,,,,,,,,,,,,,,,,,,,,,,,,,,,,,,,
611ebe16f706cd0ee4f4f876,001,2022-11-21_02h25.21.882,Info_measure_main_exp,2022.2.2,Win32,60.09976561,,,,,,,,,,,,,,,,,,masks/mask_001.jpg,,,,,,,,,,,,,,,,,,,,,,,,,,,,,,,,,,,,,,,,,,,0,4,4,0,1,,,,,,,,,,,,,,,,,,,,,,,,,,,,,,,,,,,,,,,,,,,,,,
611ebe16f706cd0ee4f4f876,001,2022-11-21_02h25.21.882,Info_measure_main_exp,2022.2.2,Win32,60.09976561,,,,,,,,,,,,,,,,,,masks/mask_001.jpg,,,,,,,,,,,,,,,,,,,,,,,,,,,,,,,,,,,,,,,,,,,,,,,,0,0,0,0,1,,,,,,,,,,,,,,,,,,,,,,,,,,,,,,,,,,,,,,,,,
611ebe16f706cd0ee4f4f876,001,2022-11-21_02h25.21.882,Info_measure_main_exp,2022.2.2,Win32,60.09976561,,,,,,,,,,,,,,,,,,masks/mask_004.jpg,,,,,,,,,,,,,,,,,,,,,,,,,,,,,,,,,,,,,,,,,,,,,,,,0,1,1,3,1,,,,,,,,,,,,,,,,,,,,,,,,,,,,,,,,,,,,,,,,,
611ebe16f706cd0ee4f4f876,001,2022-11-21_02h25.21.882,Info_measure_main_exp,2022.2.2,Win32,60.09976561,,,,,,,,,,,,,,,,,,masks/mask_005.jpg,,,,,,,,,,,,,,,,,,,,,,,,,,,,,,,,,,,,,,,,,,,,,,,,0,2,2,4,1,,,,,,,,,,,,,,,,,,,,,,,,,,,,,,,,,,,,,,,,,
611ebe16f706cd0ee4f4f876,001,2022-11-21_02h25.21.882,Info_measure_main_exp,2022.2.2,Win32,60.09976561,,,,,,,,,,,,,,,,,,masks/mask_003.jpg,,,,,,,,,,,,,,,,,,,,,,,,,,,,,,,,,,,,,,,,,,,,,,,,0,3,3,2,1,,,,,,,,,,,,,,,,,,,,,,,,,,,,,,,,,,,,,,,,,
611ebe16f706cd0ee4f4f876,001,2022-11-21_02h25.21.882,Info_measure_main_exp,2022.2.2,Win32,60.09976561,,,,,,,,,,,,,,,,,,masks/mask_002.jpg,,,,,,,,,,,,,,,,,,,,,,,,,,,,,,,,,,,,,,,,,,,,,,,,0,4,4,1,1,,,,,,,,,,,,,,,,,,,,,,,,,,,,,,,,,,,,,,,,,
611ebe16f706cd0ee4f4f876,001,2022-11-21_02h25.21.882,Info_measure_main_exp,2022.2.2,Win32,60.09976561,,,,,,,,,,,,,,,,,,,,,,,,,,,,,,7,1.3183,1,,,,,,,,,,,,0,131,5,5,2142,2082,absent_patch/patch0002142.jpg,absent_patch/patch0002082.jpg,,,,,,,,,,,,,,,,,,,,0.021296325,0.053703697,1,0,0,response1disk,21,-0.002777735,0.001851859,1,0,0,center_square,0,20,20,88,1,,,,,,,,,,,,,,,,,,,,,,,
611ebe16f706cd0ee4f4f876,001,2022-11-21_02h25.21.882,Info_measure_main_exp,2022.2.2,Win32,60.09976561,,,,,,,,,,,,,,,,,,masks/mask_005.jpg,,,,,,,,,,,,,,,,,,,,,,,,,,,,,,,,,,,,,,,,,,,0,0,0,4,1,,,,,,,,,,,,,,,,,,,,,,,,,,,,,,,,,,,,,,,,,,,,,,
611ebe16f706cd0ee4f4f876,001,2022-11-21_02h25.21.882,Info_measure_main_exp,2022.2.2,Win32,60.09976561,,,,,,,,,,,,,,,,,,masks/mask_004.jpg,,,,,,,,,,,,,,,,,,,,,,,,,,,,,,,,,,,,,,,,,,,0,1,1,3,1,,,,,,,,,,,,,,,,,,,,,,,,,,,,,,,,,,,,,,,,,,,,,,
611ebe16f706cd0ee4f4f876,001,2022-11-21_02h25.21.882,Info_measure_main_exp,2022.2.2,Win32,60.09976561,,,,,,,,,,,,,,,,,,masks/mask_003.jpg,,,,,,,,,,,,,,,,,,,,,,,,,,,,,,,,,,,,,,,,,,,0,2,2,2,1,,,,,,,,,,,,,,,,,,,,,,,,,,,,,,,,,,,,,,,,,,,,,,
611ebe16f706cd0ee4f4f876,001,2022-11-21_02h25.21.882,Info_measure_main_exp,2022.2.2,Win32,60.09976561,,,,,,,,,,,,,,,,,,masks/mask_001.jpg,,,,,,,,,,,,,,,,,,,,,,,,,,,,,,,,,,,,,,,,,,,0,3,3,0,1,,,,,,,,,,,,,,,,,,,,,,,,,,,,,,,,,,,,,,,,,,,,,,
611ebe16f706cd0ee4f4f876,001,2022-11-21_02h25.21.882,Info_measure_main_exp,2022.2.2,Win32,60.09976561,,,,,,,,,,,,,,,,,,masks/mask_002.jpg,,,,,,,,,,,,,,,,,,,,,,,,,,,,,,,,,,,,,,,,,,,0,4,4,1,1,,,,,,,,,,,,,,,,,,,,,,,,,,,,,,,,,,,,,,,,,,,,,,
611ebe16f706cd0ee4f4f876,001,2022-11-21_02h25.21.882,Info_measure_main_exp,2022.2.2,Win32,60.09976561,,,,,,,,,,,,,,,,,,masks/mask_001.jpg,,,,,,,,,,,,,,,,,,,,,,,,,,,,,,,,,,,,,,,,,,,,,,,,0,0,0,0,1,,,,,,,,,,,,,,,,,,,,,,,,,,,,,,,,,,,,,,,,,
611ebe16f706cd0ee4f4f876,001,2022-11-21_02h25.21.882,Info_measure_main_exp,2022.2.2,Win32,60.09976561,,,,,,,,,,,,,,,,,,masks/mask_003.jpg,,,,,,,,,,,,,,,,,,,,,,,,,,,,,,,,,,,,,,,,,,,,,,,,0,1,1,2,1,,,,,,,,,,,,,,,,,,,,,,,,,,,,,,,,,,,,,,,,,
611ebe16f706cd0ee4f4f876,001,2022-11-21_02h25.21.882,Info_measure_main_exp,2022.2.2,Win32,60.09976561,,,,,,,,,,,,,,,,,,masks/mask_002.jpg,,,,,,,,,,,,,,,,,,,,,,,,,,,,,,,,,,,,,,,,,,,,,,,,0,2,2,1,1,,,,,,,,,,,,,,,,,,,,,,,,,,,,,,,,,,,,,,,,,
611ebe16f706cd0ee4f4f876,001,2022-11-21_02h25.21.882,Info_measure_main_exp,2022.2.2,Win32,60.09976561,,,,,,,,,,,,,,,,,,masks/mask_004.jpg,,,,,,,,,,,,,,,,,,,,,,,,,,,,,,,,,,,,,,,,,,,,,,,,0,3,3,3,1,,,,,,,,,,,,,,,,,,,,,,,,,,,,,,,,,,,,,,,,,
611ebe16f706cd0ee4f4f876,001,2022-11-21_02h25.21.882,Info_measure_main_exp,2022.2.2,Win32,60.09976561,,,,,,,,,,,,,,,,,,masks/mask_005.jpg,,,,,,,,,,,,,,,,,,,,,,,,,,,,,,,,,,,,,,,,,,,,,,,,0,4,4,4,1,,,,,,,,,,,,,,,,,,,,,,,,,,,,,,,,,,,,,,,,,
611ebe16f706cd0ee4f4f876,001,2022-11-21_02h25.21.882,Info_measure_main_exp,2022.2.2,Win32,60.09976561,,,,,,,,,,,,,,,,,,,,,,,,,,,,,,7,1.1438,1,,,,,,,,,,,,0,131,5,5,2178,2238,absent_patch/patch0002178.jpg,absent_patch/patch0002238.jpg,,,,,,,,,,,,,,,,,,,,0.02870369,0.052777785,1,0,0,response1disk,22,-0.011111083,0.003703683,1,0,0,center_square,0,21,21,57,1,,,,,,,,,,,,,,,,,,,,,,,
611ebe16f706cd0ee4f4f876,001,2022-11-21_02h25.21.882,Info_measure_main_exp,2022.2.2,Win32,60.09976561,,,,,,,,,,,,,,,,,,masks/mask_001.jpg,,,,,,,,,,,,,,,,,,,,,,,,,,,,,,,,,,,,,,,,,,,0,0,0,0,1,,,,,,,,,,,,,,,,,,,,,,,,,,,,,,,,,,,,,,,,,,,,,,
611ebe16f706cd0ee4f4f876,001,2022-11-21_02h25.21.882,Info_measure_main_exp,2022.2.2,Win32,60.09976561,,,,,,,,,,,,,,,,,,masks/mask_004.jpg,,,,,,,,,,,,,,,,,,,,,,,,,,,,,,,,,,,,,,,,,,,0,1,1,3,1,,,,,,,,,,,,,,,,,,,,,,,,,,,,,,,,,,,,,,,,,,,,,,
611ebe16f706cd0ee4f4f876,001,2022-11-21_02h25.21.882,Info_measure_main_exp,2022.2.2,Win32,60.09976561,,,,,,,,,,,,,,,,,,masks/mask_005.jpg,,,,,,,,,,,,,,,,,,,,,,,,,,,,,,,,,,,,,,,,,,,0,2,2,4,1,,,,,,,,,,,,,,,,,,,,,,,,,,,,,,,,,,,,,,,,,,,,,,
611ebe16f706cd0ee4f4f876,001,2022-11-21_02h25.21.882,Info_measure_main_exp,2022.2.2,Win32,60.09976561,,,,,,,,,,,,,,,,,,masks/mask_002.jpg,,,,,,,,,,,,,,,,,,,,,,,,,,,,,,,,,,,,,,,,,,,0,3,3,1,1,,,,,,,,,,,,,,,,,,,,,,,,,,,,,,,,,,,,,,,,,,,,,,
611ebe16f706cd0ee4f4f876,001,2022-11-21_02h25.21.882,Info_measure_main_exp,2022.2.2,Win32,60.09976561,,,,,,,,,,,,,,,,,,masks/mask_003.jpg,,,,,,,,,,,,,,,,,,,,,,,,,,,,,,,,,,,,,,,,,,,0,4,4,2,1,,,,,,,,,,,,,,,,,,,,,,,,,,,,,,,,,,,,,,,,,,,,,,
611ebe16f706cd0ee4f4f876,001,2022-11-21_02h25.21.882,Info_measure_main_exp,2022.2.2,Win32,60.09976561,,,,,,,,,,,,,,,,,,masks/mask_002.jpg,,,,,,,,,,,,,,,,,,,,,,,,,,,,,,,,,,,,,,,,,,,,,,,,0,0,0,1,1,,,,,,,,,,,,,,,,,,,,,,,,,,,,,,,,,,,,,,,,,
611ebe16f706cd0ee4f4f876,001,2022-11-21_02h25.21.882,Info_measure_main_exp,2022.2.2,Win32,60.09976561,,,,,,,,,,,,,,,,,,masks/mask_005.jpg,,,,,,,,,,,,,,,,,,,,,,,,,,,,,,,,,,,,,,,,,,,,,,,,0,1,1,4,1,,,,,,,,,,,,,,,,,,,,,,,,,,,,,,,,,,,,,,,,,
611ebe16f706cd0ee4f4f876,001,2022-11-21_02h25.21.882,Info_measure_main_exp,2022.2.2,Win32,60.09976561,,,,,,,,,,,,,,,,,,masks/mask_003.jpg,,,,,,,,,,,,,,,,,,,,,,,,,,,,,,,,,,,,,,,,,,,,,,,,0,2,2,2,1,,,,,,,,,,,,,,,,,,,,,,,,,,,,,,,,,,,,,,,,,
611ebe16f706cd0ee4f4f876,001,2022-11-21_02h25.21.882,Info_measure_main_exp,2022.2.2,Win32,60.09976561,,,,,,,,,,,,,,,,,,masks/mask_004.jpg,,,,,,,,,,,,,,,,,,,,,,,,,,,,,,,,,,,,,,,,,,,,,,,,0,3,3,3,1,,,,,,,,,,,,,,,,,,,,,,,,,,,,,,,,,,,,,,,,,
611ebe16f706cd0ee4f4f876,001,2022-11-21_02h25.21.882,Info_measure_main_exp,2022.2.2,Win32,60.09976561,,,,,,,,,,,,,,,,,,masks/mask_001.jpg,,,,,,,,,,,,,,,,,,,,,,,,,,,,,,,,,,,,,,,,,,,,,,,,0,4,4,0,1,,,,,,,,,,,,,,,,,,,,,,,,,,,,,,,,,,,,,,,,,
611ebe16f706cd0ee4f4f876,001,2022-11-21_02h25.21.882,Info_measure_main_exp,2022.2.2,Win32,60.09976561,,,,,,,,,,,,,,,,,,,,,,,,,,,,,,7,1.2104,1,,,,,,,,,,,,0,131,5,5,2178,1986,absent_patch/patch0002178.jpg,absent_patch/patch0001986.jpg,,,,,,,,,,,,,,,,,,,,0.01944443,0.046296296,1,0,0,response1disk,23,-0.001851824,-0.006481489,1,0,0,center_square,0,22,22,46,1,,,,,,,,,,,,,,,,,,,,,,,
611ebe16f706cd0ee4f4f876,001,2022-11-21_02h25.21.882,Info_measure_main_exp,2022.2.2,Win32,60.09976561,,,,,,,,,,,,,,,,,,masks/mask_003.jpg,,,,,,,,,,,,,,,,,,,,,,,,,,,,,,,,,,,,,,,,,,,0,0,0,2,1,,,,,,,,,,,,,,,,,,,,,,,,,,,,,,,,,,,,,,,,,,,,,,
611ebe16f706cd0ee4f4f876,001,2022-11-21_02h25.21.882,Info_measure_main_exp,2022.2.2,Win32,60.09976561,,,,,,,,,,,,,,,,,,masks/mask_002.jpg,,,,,,,,,,,,,,,,,,,,,,,,,,,,,,,,,,,,,,,,,,,0,1,1,1,1,,,,,,,,,,,,,,,,,,,,,,,,,,,,,,,,,,,,,,,,,,,,,,
611ebe16f706cd0ee4f4f876,001,2022-11-21_02h25.21.882,Info_measure_main_exp,2022.2.2,Win32,60.09976561,,,,,,,,,,,,,,,,,,masks/mask_001.jpg,,,,,,,,,,,,,,,,,,,,,,,,,,,,,,,,,,,,,,,,,,,0,2,2,0,1,,,,,,,,,,,,,,,,,,,,,,,,,,,,,,,,,,,,,,,,,,,,,,
611ebe16f706cd0ee4f4f876,001,2022-11-21_02h25.21.882,Info_measure_main_exp,2022.2.2,Win32,60.09976561,,,,,,,,,,,,,,,,,,masks/mask_005.jpg,,,,,,,,,,,,,,,,,,,,,,,,,,,,,,,,,,,,,,,,,,,0,3,3,4,1,,,,,,,,,,,,,,,,,,,,,,,,,,,,,,,,,,,,,,,,,,,,,,
611ebe16f706cd0ee4f4f876,001,2022-11-21_02h25.21.882,Info_measure_main_exp,2022.2.2,Win32,60.09976561,,,,,,,,,,,,,,,,,,masks/mask_004.jpg,,,,,,,,,,,,,,,,,,,,,,,,,,,,,,,,,,,,,,,,,,,0,4,4,3,1,,,,,,,,,,,,,,,,,,,,,,,,,,,,,,,,,,,,,,,,,,,,,,
611ebe16f706cd0ee4f4f876,001,2022-11-21_02h25.21.882,Info_measure_main_exp,2022.2.2,Win32,60.09976561,,,,,,,,,,,,,,,,,,masks/mask_001.jpg,,,,,,,,,,,,,,,,,,,,,,,,,,,,,,,,,,,,,,,,,,,,,,,,0,0,0,0,1,,,,,,,,,,,,,,,,,,,,,,,,,,,,,,,,,,,,,,,,,
611ebe16f706cd0ee4f4f876,001,2022-11-21_02h25.21.882,Info_measure_main_exp,2022.2.2,Win32,60.09976561,,,,,,,,,,,,,,,,,,masks/mask_002.jpg,,,,,,,,,,,,,,,,,,,,,,,,,,,,,,,,,,,,,,,,,,,,,,,,0,1,1,1,1,,,,,,,,,,,,,,,,,,,,,,,,,,,,,,,,,,,,,,,,,
611ebe16f706cd0ee4f4f876,001,2022-11-21_02h25.21.882,Info_measure_main_exp,2022.2.2,Win32,60.09976561,,,,,,,,,,,,,,,,,,masks/mask_003.jpg,,,,,,,,,,,,,,,,,,,,,,,,,,,,,,,,,,,,,,,,,,,,,,,,0,2,2,2,1,,,,,,,,,,,,,,,,,,,,,,,,,,,,,,,,,,,,,,,,,
611ebe16f706cd0ee4f4f876,001,2022-11-21_02h25.21.882,Info_measure_main_exp,2022.2.2,Win32,60.09976561,,,,,,,,,,,,,,,,,,masks/mask_005.jpg,,,,,,,,,,,,,,,,,,,,,,,,,,,,,,,,,,,,,,,,,,,,,,,,0,3,3,4,1,,,,,,,,,,,,,,,,,,,,,,,,,,,,,,,,,,,,,,,,,
611ebe16f706cd0ee4f4f876,001,2022-11-21_02h25.21.882,Info_measure_main_exp,2022.2.2,Win32,60.09976561,,,,,,,,,,,,,,,,,,masks/mask_004.jpg,,,,,,,,,,,,,,,,,,,,,,,,,,,,,,,,,,,,,,,,,,,,,,,,0,4,4,3,1,,,,,,,,,,,,,,,,,,,,,,,,,,,,,,,,,,,,,,,,,
611ebe16f706cd0ee4f4f876,001,2022-11-21_02h25.21.882,Info_measure_main_exp,2022.2.2,Win32,60.09976561,,,,,,,,,,,,,,,,,,,,,,,,,,,,,,5,2.0147,1,,,,,,,,,,,,0,131,5,5,1950,2298,absent_patch/patch0001950.jpg,absent_patch/patch0002298.jpg,,,,,,,,,,,,,,,,,,,,0.064814815,-0.012962977,1,0,0,response3disk,24,0.013888889,-0.001851859,1,0,0,center_square,0,23,23,18,1,,,,,,,,,,,,,,,,,,,,,,,
611ebe16f706cd0ee4f4f876,001,2022-11-21_02h25.21.882,Info_measure_main_exp,2022.2.2,Win32,60.09976561,,,,,,,,,,,,,,,,,,masks/mask_004.jpg,,,,,,,,,,,,,,,,,,,,,,,,,,,,,,,,,,,,,,,,,,,0,0,0,3,1,,,,,,,,,,,,,,,,,,,,,,,,,,,,,,,,,,,,,,,,,,,,,,
611ebe16f706cd0ee4f4f876,001,2022-11-21_02h25.21.882,Info_measure_main_exp,2022.2.2,Win32,60.09976561,,,,,,,,,,,,,,,,,,masks/mask_001.jpg,,,,,,,,,,,,,,,,,,,,,,,,,,,,,,,,,,,,,,,,,,,0,1,1,0,1,,,,,,,,,,,,,,,,,,,,,,,,,,,,,,,,,,,,,,,,,,,,,,
611ebe16f706cd0ee4f4f876,001,2022-11-21_02h25.21.882,Info_measure_main_exp,2022.2.2,Win32,60.09976561,,,,,,,,,,,,,,,,,,masks/mask_002.jpg,,,,,,,,,,,,,,,,,,,,,,,,,,,,,,,,,,,,,,,,,,,0,2,2,1,1,,,,,,,,,,,,,,,,,,,,,,,,,,,,,,,,,,,,,,,,,,,,,,
611ebe16f706cd0ee4f4f876,001,2022-11-21_02h25.21.882,Info_measure_main_exp,2022.2.2,Win32,60.09976561,,,,,,,,,,,,,,,,,,masks/mask_005.jpg,,,,,,,,,,,,,,,,,,,,,,,,,,,,,,,,,,,,,,,,,,,0,3,3,4,1,,,,,,,,,,,,,,,,,,,,,,,,,,,,,,,,,,,,,,,,,,,,,,
611ebe16f706cd0ee4f4f876,001,2022-11-21_02h25.21.882,Info_measure_main_exp,2022.2.2,Win32,60.09976561,,,,,,,,,,,,,,,,,,masks/mask_003.jpg,,,,,,,,,,,,,,,,,,,,,,,,,,,,,,,,,,,,,,,,,,,0,4,4,2,1,,,,,,,,,,,,,,,,,,,,,,,,,,,,,,,,,,,,,,,,,,,,,,
611ebe16f706cd0ee4f4f876,001,2022-11-21_02h25.21.882,Info_measure_main_exp,2022.2.2,Win32,60.09976561,,,,,,,,,,,,,,,,,,masks/mask_004.jpg,,,,,,,,,,,,,,,,,,,,,,,,,,,,,,,,,,,,,,,,,,,,,,,,0,0,0,3,1,,,,,,,,,,,,,,,,,,,,,,,,,,,,,,,,,,,,,,,,,
611ebe16f706cd0ee4f4f876,001,2022-11-21_02h25.21.882,Info_measure_main_exp,2022.2.2,Win32,60.09976561,,,,,,,,,,,,,,,,,,masks/mask_002.jpg,,,,,,,,,,,,,,,,,,,,,,,,,,,,,,,,,,,,,,,,,,,,,,,,0,1,1,1,1,,,,,,,,,,,,,,,,,,,,,,,,,,,,,,,,,,,,,,,,,
611ebe16f706cd0ee4f4f876,001,2022-11-21_02h25.21.882,Info_measure_main_exp,2022.2.2,Win32,60.09976561,,,,,,,,,,,,,,,,,,masks/mask_003.jpg,,,,,,,,,,,,,,,,,,,,,,,,,,,,,,,,,,,,,,,,,,,,,,,,0,2,2,2,1,,,,,,,,,,,,,,,,,,,,,,,,,,,,,,,,,,,,,,,,,
611ebe16f706cd0ee4f4f876,001,2022-11-21_02h25.21.882,Info_measure_main_exp,2022.2.2,Win32,60.09976561,,,,,,,,,,,,,,,,,,masks/mask_005.jpg,,,,,,,,,,,,,,,,,,,,,,,,,,,,,,,,,,,,,,,,,,,,,,,,0,3,3,4,1,,,,,,,,,,,,,,,,,,,,,,,,,,,,,,,,,,,,,,,,,
611ebe16f706cd0ee4f4f876,001,2022-11-21_02h25.21.882,Info_measure_main_exp,2022.2.2,Win32,60.09976561,,,,,,,,,,,,,,,,,,masks/mask_001.jpg,,,,,,,,,,,,,,,,,,,,,,,,,,,,,,,,,,,,,,,,,,,,,,,,0,4,4,0,1,,,,,,,,,,,,,,,,,,,,,,,,,,,,,,,,,,,,,,,,,
611ebe16f706cd0ee4f4f876,001,2022-11-21_02h25.21.882,Info_measure_main_exp,2022.2.2,Win32,60.09976561,,,,,,,,,,,,,,,,,,,,,,,,,,,,,,7,1.6054,1,,,,,,,,,,,,0,131,5,5,2082,1986,absent_patch/patch0002082.jpg,absent_patch/patch0001986.jpg,,,,,,,,,,,,,,,,,,,,0.01944443,0.057407414,1,0,0,response1disk,25,0.006481524,0.006481489,1,0,0,center_square,0,24,24,94,1,,,,,,,,,,,,,,,,,,,,,,,
611ebe16f706cd0ee4f4f876,001,2022-11-21_02h25.21.882,Info_measure_main_exp,2022.2.2,Win32,60.09976561,,,,,,,,,,,,,,,,,,masks/mask_004.jpg,,,,,,,,,,,,,,,,,,,,,,,,,,,,,,,,,,,,,,,,,,,0,0,0,3,1,,,,,,,,,,,,,,,,,,,,,,,,,,,,,,,,,,,,,,,,,,,,,,
611ebe16f706cd0ee4f4f876,001,2022-11-21_02h25.21.882,Info_measure_main_exp,2022.2.2,Win32,60.09976561,,,,,,,,,,,,,,,,,,masks/mask_003.jpg,,,,,,,,,,,,,,,,,,,,,,,,,,,,,,,,,,,,,,,,,,,0,1,1,2,1,,,,,,,,,,,,,,,,,,,,,,,,,,,,,,,,,,,,,,,,,,,,,,
611ebe16f706cd0ee4f4f876,001,2022-11-21_02h25.21.882,Info_measure_main_exp,2022.2.2,Win32,60.09976561,,,,,,,,,,,,,,,,,,masks/mask_001.jpg,,,,,,,,,,,,,,,,,,,,,,,,,,,,,,,,,,,,,,,,,,,0,2,2,0,1,,,,,,,,,,,,,,,,,,,,,,,,,,,,,,,,,,,,,,,,,,,,,,
611ebe16f706cd0ee4f4f876,001,2022-11-21_02h25.21.882,Info_measure_main_exp,2022.2.2,Win32,60.09976561,,,,,,,,,,,,,,,,,,masks/mask_002.jpg,,,,,,,,,,,,,,,,,,,,,,,,,,,,,,,,,,,,,,,,,,,0,3,3,1,1,,,,,,,,,,,,,,,,,,,,,,,,,,,,,,,,,,,,,,,,,,,,,,
611ebe16f706cd0ee4f4f876,001,2022-11-21_02h25.21.882,Info_measure_main_exp,2022.2.2,Win32,60.09976561,,,,,,,,,,,,,,,,,,masks/mask_005.jpg,,,,,,,,,,,,,,,,,,,,,,,,,,,,,,,,,,,,,,,,,,,0,4,4,4,1,,,,,,,,,,,,,,,,,,,,,,,,,,,,,,,,,,,,,,,,,,,,,,
611ebe16f706cd0ee4f4f876,001,2022-11-21_02h25.21.882,Info_measure_main_exp,2022.2.2,Win32,60.09976561,,,,,,,,,,,,,,,,,,masks/mask_005.jpg,,,,,,,,,,,,,,,,,,,,,,,,,,,,,,,,,,,,,,,,,,,,,,,,0,0,0,4,1,,,,,,,,,,,,,,,,,,,,,,,,,,,,,,,,,,,,,,,,,
611ebe16f706cd0ee4f4f876,001,2022-11-21_02h25.21.882,Info_measure_main_exp,2022.2.2,Win32,60.09976561,,,,,,,,,,,,,,,,,,masks/mask_004.jpg,,,,,,,,,,,,,,,,,,,,,,,,,,,,,,,,,,,,,,,,,,,,,,,,0,1,1,3,1,,,,,,,,,,,,,,,,,,,,,,,,,,,,,,,,,,,,,,,,,
611ebe16f706cd0ee4f4f876,001,2022-11-21_02h25.21.882,Info_measure_main_exp,2022.2.2,Win32,60.09976561,,,,,,,,,,,,,,,,,,masks/mask_003.jpg,,,,,,,,,,,,,,,,,,,,,,,,,,,,,,,,,,,,,,,,,,,,,,,,0,2,2,2,1,,,,,,,,,,,,,,,,,,,,,,,,,,,,,,,,,,,,,,,,,
611ebe16f706cd0ee4f4f876,001,2022-11-21_02h25.21.882,Info_measure_main_exp,2022.2.2,Win32,60.09976561,,,,,,,,,,,,,,,,,,masks/mask_002.jpg,,,,,,,,,,,,,,,,,,,,,,,,,,,,,,,,,,,,,,,,,,,,,,,,0,3,3,1,1,,,,,,,,,,,,,,,,,,,,,,,,,,,,,,,,,,,,,,,,,
611ebe16f706cd0ee4f4f876,001,2022-11-21_02h25.21.882,Info_measure_main_exp,2022.2.2,Win32,60.09976561,,,,,,,,,,,,,,,,,,masks/mask_001.jpg,,,,,,,,,,,,,,,,,,,,,,,,,,,,,,,,,,,,,,,,,,,,,,,,0,4,4,0,1,,,,,,,,,,,,,,,,,,,,,,,,,,,,,,,,,,,,,,,,,
611ebe16f706cd0ee4f4f876,001,2022-11-21_02h25.21.882,Info_measure_main_exp,2022.2.2,Win32,60.09976561,,,,,,,,,,,,,,,,,,,,,,,,,,,,,,3,1.9155,1,,,,,,,,,,,,0,131,5,5,1986,2238,absent_patch/patch0001986.jpg,absent_patch/patch0002238.jpg,,,,,,,,,,,,,,,,,,,,-0.014814801,-0.08888891,1,0,0,response5disk,26,0.00462963,0.006481489,1,0,0,center_square,0,25,25,31,1,,,,,,,,,,,,,,,,,,,,,,,
611ebe16f706cd0ee4f4f876,001,2022-11-21_02h25.21.882,Info_measure_main_exp,2022.2.2,Win32,60.09976561,,,,,,,,,,,,,,,,,,masks/mask_003.jpg,,,,,,,,,,,,,,,,,,,,,,,,,,,,,,,,,,,,,,,,,,,0,0,0,2,1,,,,,,,,,,,,,,,,,,,,,,,,,,,,,,,,,,,,,,,,,,,,,,
611ebe16f706cd0ee4f4f876,001,2022-11-21_02h25.21.882,Info_measure_main_exp,2022.2.2,Win32,60.09976561,,,,,,,,,,,,,,,,,,masks/mask_004.jpg,,,,,,,,,,,,,,,,,,,,,,,,,,,,,,,,,,,,,,,,,,,0,1,1,3,1,,,,,,,,,,,,,,,,,,,,,,,,,,,,,,,,,,,,,,,,,,,,,,
611ebe16f706cd0ee4f4f876,001,2022-11-21_02h25.21.882,Info_measure_main_exp,2022.2.2,Win32,60.09976561,,,,,,,,,,,,,,,,,,masks/mask_005.jpg,,,,,,,,,,,,,,,,,,,,,,,,,,,,,,,,,,,,,,,,,,,0,2,2,4,1,,,,,,,,,,,,,,,,,,,,,,,,,,,,,,,,,,,,,,,,,,,,,,
611ebe16f706cd0ee4f4f876,001,2022-11-21_02h25.21.882,Info_measure_main_exp,2022.2.2,Win32,60.09976561,,,,,,,,,,,,,,,,,,masks/mask_002.jpg,,,,,,,,,,,,,,,,,,,,,,,,,,,,,,,,,,,,,,,,,,,0,3,3,1,1,,,,,,,,,,,,,,,,,,,,,,,,,,,,,,,,,,,,,,,,,,,,,,
611ebe16f706cd0ee4f4f876,001,2022-11-21_02h25.21.882,Info_measure_main_exp,2022.2.2,Win32,60.09976561,,,,,,,,,,,,,,,,,,masks/mask_001.jpg,,,,,,,,,,,,,,,,,,,,,,,,,,,,,,,,,,,,,,,,,,,0,4,4,0,1,,,,,,,,,,,,,,,,,,,,,,,,,,,,,,,,,,,,,,,,,,,,,,
611ebe16f706cd0ee4f4f876,001,2022-11-21_02h25.21.882,Info_measure_main_exp,2022.2.2,Win32,60.09976561,,,,,,,,,,,,,,,,,,masks/mask_003.jpg,,,,,,,,,,,,,,,,,,,,,,,,,,,,,,,,,,,,,,,,,,,,,,,,0,0,0,2,1,,,,,,,,,,,,,,,,,,,,,,,,,,,,,,,,,,,,,,,,,
611ebe16f706cd0ee4f4f876,001,2022-11-21_02h25.21.882,Info_measure_main_exp,2022.2.2,Win32,60.09976561,,,,,,,,,,,,,,,,,,masks/mask_002.jpg,,,,,,,,,,,,,,,,,,,,,,,,,,,,,,,,,,,,,,,,,,,,,,,,0,1,1,1,1,,,,,,,,,,,,,,,,,,,,,,,,,,,,,,,,,,,,,,,,,
611ebe16f706cd0ee4f4f876,001,2022-11-21_02h25.21.882,Info_measure_main_exp,2022.2.2,Win32,60.09976561,,,,,,,,,,,,,,,,,,masks/mask_004.jpg,,,,,,,,,,,,,,,,,,,,,,,,,,,,,,,,,,,,,,,,,,,,,,,,0,2,2,3,1,,,,,,,,,,,,,,,,,,,,,,,,,,,,,,,,,,,,,,,,,
611ebe16f706cd0ee4f4f876,001,2022-11-21_02h25.21.882,Info_measure_main_exp,2022.2.2,Win32,60.09976561,,,,,,,,,,,,,,,,,,masks/mask_005.jpg,,,,,,,,,,,,,,,,,,,,,,,,,,,,,,,,,,,,,,,,,,,,,,,,0,3,3,4,1,,,,,,,,,,,,,,,,,,,,,,,,,,,,,,,,,,,,,,,,,
611ebe16f706cd0ee4f4f876,001,2022-11-21_02h25.21.882,Info_measure_main_exp,2022.2.2,Win32,60.09976561,,,,,,,,,,,,,,,,,,masks/mask_001.jpg,,,,,,,,,,,,,,,,,,,,,,,,,,,,,,,,,,,,,,,,,,,,,,,,0,4,4,0,1,,,,,,,,,,,,,,,,,,,,,,,,,,,,,,,,,,,,,,,,,
611ebe16f706cd0ee4f4f876,001,2022-11-21_02h25.21.882,Info_measure_main_exp,2022.2.2,Win32,60.09976561,,,,,,,,,,,,,,,,,,,,,,,,,,,,,,7,1.1847,1,,,,,,,,,,,,0,131,5,5,2166,1986,absent_patch/patch0002166.jpg,absent_patch/patch0001986.jpg,,,,,,,,,,,,,,,,,,,,0.015740783,0.041666667,1,0,0,response1disk,27,-0.000925912,0,1,0,0,center_square,0,26,26,47,1,,,,,,,,,,,,,,,,,,,,,,,
611ebe16f706cd0ee4f4f876,001,2022-11-21_02h25.21.882,Info_measure_main_exp,2022.2.2,Win32,60.09976561,,,,,,,,,,,,,,,,,,masks/mask_003.jpg,,,,,,,,,,,,,,,,,,,,,,,,,,,,,,,,,,,,,,,,,,,0,0,0,2,1,,,,,,,,,,,,,,,,,,,,,,,,,,,,,,,,,,,,,,,,,,,,,,
611ebe16f706cd0ee4f4f876,001,2022-11-21_02h25.21.882,Info_measure_main_exp,2022.2.2,Win32,60.09976561,,,,,,,,,,,,,,,,,,masks/mask_005.jpg,,,,,,,,,,,,,,,,,,,,,,,,,,,,,,,,,,,,,,,,,,,0,1,1,4,1,,,,,,,,,,,,,,,,,,,,,,,,,,,,,,,,,,,,,,,,,,,,,,
611ebe16f706cd0ee4f4f876,001,2022-11-21_02h25.21.882,Info_measure_main_exp,2022.2.2,Win32,60.09976561,,,,,,,,,,,,,,,,,,masks/mask_002.jpg,,,,,,,,,,,,,,,,,,,,,,,,,,,,,,,,,,,,,,,,,,,0,2,2,1,1,,,,,,,,,,,,,,,,,,,,,,,,,,,,,,,,,,,,,,,,,,,,,,
611ebe16f706cd0ee4f4f876,001,2022-11-21_02h25.21.882,Info_measure_main_exp,2022.2.2,Win32,60.09976561,,,,,,,,,,,,,,,,,,masks/mask_001.jpg,,,,,,,,,,,,,,,,,,,,,,,,,,,,,,,,,,,,,,,,,,,0,3,3,0,1,,,,,,,,,,,,,,,,,,,,,,,,,,,,,,,,,,,,,,,,,,,,,,
611ebe16f706cd0ee4f4f876,001,2022-11-21_02h25.21.882,Info_measure_main_exp,2022.2.2,Win32,60.09976561,,,,,,,,,,,,,,,,,,masks/mask_004.jpg,,,,,,,,,,,,,,,,,,,,,,,,,,,,,,,,,,,,,,,,,,,0,4,4,3,1,,,,,,,,,,,,,,,,,,,,,,,,,,,,,,,,,,,,,,,,,,,,,,
611ebe16f706cd0ee4f4f876,001,2022-11-21_02h25.21.882,Info_measure_main_exp,2022.2.2,Win32,60.09976561,,,,,,,,,,,,,,,,,,masks/mask_004.jpg,,,,,,,,,,,,,,,,,,,,,,,,,,,,,,,,,,,,,,,,,,,,,,,,0,0,0,3,1,,,,,,,,,,,,,,,,,,,,,,,,,,,,,,,,,,,,,,,,,
611ebe16f706cd0ee4f4f876,001,2022-11-21_02h25.21.882,Info_measure_main_exp,2022.2.2,Win32,60.09976561,,,,,,,,,,,,,,,,,,masks/mask_003.jpg,,,,,,,,,,,,,,,,,,,,,,,,,,,,,,,,,,,,,,,,,,,,,,,,0,1,1,2,1,,,,,,,,,,,,,,,,,,,,,,,,,,,,,,,,,,,,,,,,,
611ebe16f706cd0ee4f4f876,001,2022-11-21_02h25.21.882,Info_measure_main_exp,2022.2.2,Win32,60.09976561,,,,,,,,,,,,,,,,,,masks/mask_005.jpg,,,,,,,,,,,,,,,,,,,,,,,,,,,,,,,,,,,,,,,,,,,,,,,,0,2,2,4,1,,,,,,,,,,,,,,,,,,,,,,,,,,,,,,,,,,,,,,,,,
611ebe16f706cd0ee4f4f876,001,2022-11-21_02h25.21.882,Info_measure_main_exp,2022.2.2,Win32,60.09976561,,,,,,,,,,,,,,,,,,masks/mask_002.jpg,,,,,,,,,,,,,,,,,,,,,,,,,,,,,,,,,,,,,,,,,,,,,,,,0,3,3,1,1,,,,,,,,,,,,,,,,,,,,,,,,,,,,,,,,,,,,,,,,,
611ebe16f706cd0ee4f4f876,001,2022-11-21_02h25.21.882,Info_measure_main_exp,2022.2.2,Win32,60.09976561,,,,,,,,,,,,,,,,,,masks/mask_001.jpg,,,,,,,,,,,,,,,,,,,,,,,,,,,,,,,,,,,,,,,,,,,,,,,,0,4,4,0,1,,,,,,,,,,,,,,,,,,,,,,,,,,,,,,,,,,,,,,,,,
611ebe16f706cd0ee4f4f876,001,2022-11-21_02h25.21.882,Info_measure_main_exp,2022.2.2,Win32,60.09976561,,,,,,,,,,,,,,,,,,,,,,,,,,,,,,7,3.1982,1,,,,,,,,,,,,0,131,5,5,1986,2142,absent_patch/patch0001986.jpg,absent_patch/patch0002142.jpg,,,,,,,,,,,,,,,,,,,,0.025000042,0.053703697,1,0,0,response1disk,28,0.007407436,0.0074074,1,0,0,center_square,0,27,27,76,1,,,,,,,,,,,,,,,,,,,,,,,
611ebe16f706cd0ee4f4f876,001,2022-11-21_02h25.21.882,Info_measure_main_exp,2022.2.2,Win32,60.09976561,,,,,,,,,,,,,,,,,,masks/mask_005.jpg,,,,,,,,,,,,,,,,,,,,,,,,,,,,,,,,,,,,,,,,,,,0,0,0,4,1,,,,,,,,,,,,,,,,,,,,,,,,,,,,,,,,,,,,,,,,,,,,,,
611ebe16f706cd0ee4f4f876,001,2022-11-21_02h25.21.882,Info_measure_main_exp,2022.2.2,Win32,60.09976561,,,,,,,,,,,,,,,,,,masks/mask_004.jpg,,,,,,,,,,,,,,,,,,,,,,,,,,,,,,,,,,,,,,,,,,,0,1,1,3,1,,,,,,,,,,,,,,,,,,,,,,,,,,,,,,,,,,,,,,,,,,,,,,
611ebe16f706cd0ee4f4f876,001,2022-11-21_02h25.21.882,Info_measure_main_exp,2022.2.2,Win32,60.09976561,,,,,,,,,,,,,,,,,,masks/mask_003.jpg,,,,,,,,,,,,,,,,,,,,,,,,,,,,,,,,,,,,,,,,,,,0,2,2,2,1,,,,,,,,,,,,,,,,,,,,,,,,,,,,,,,,,,,,,,,,,,,,,,
611ebe16f706cd0ee4f4f876,001,2022-11-21_02h25.21.882,Info_measure_main_exp,2022.2.2,Win32,60.09976561,,,,,,,,,,,,,,,,,,masks/mask_002.jpg,,,,,,,,,,,,,,,,,,,,,,,,,,,,,,,,,,,,,,,,,,,0,3,3,1,1,,,,,,,,,,,,,,,,,,,,,,,,,,,,,,,,,,,,,,,,,,,,,,
611ebe16f706cd0ee4f4f876,001,2022-11-21_02h25.21.882,Info_measure_main_exp,2022.2.2,Win32,60.09976561,,,,,,,,,,,,,,,,,,masks/mask_001.jpg,,,,,,,,,,,,,,,,,,,,,,,,,,,,,,,,,,,,,,,,,,,0,4,4,0,1,,,,,,,,,,,,,,,,,,,,,,,,,,,,,,,,,,,,,,,,,,,,,,
611ebe16f706cd0ee4f4f876,001,2022-11-21_02h25.21.882,Info_measure_main_exp,2022.2.2,Win32,60.09976561,,,,,,,,,,,,,,,,,,masks/mask_001.jpg,,,,,,,,,,,,,,,,,,,,,,,,,,,,,,,,,,,,,,,,,,,,,,,,0,0,0,0,1,,,,,,,,,,,,,,,,,,,,,,,,,,,,,,,,,,,,,,,,,
611ebe16f706cd0ee4f4f876,001,2022-11-21_02h25.21.882,Info_measure_main_exp,2022.2.2,Win32,60.09976561,,,,,,,,,,,,,,,,,,masks/mask_005.jpg,,,,,,,,,,,,,,,,,,,,,,,,,,,,,,,,,,,,,,,,,,,,,,,,0,1,1,4,1,,,,,,,,,,,,,,,,,,,,,,,,,,,,,,,,,,,,,,,,,
611ebe16f706cd0ee4f4f876,001,2022-11-21_02h25.21.882,Info_measure_main_exp,2022.2.2,Win32,60.09976561,,,,,,,,,,,,,,,,,,masks/mask_004.jpg,,,,,,,,,,,,,,,,,,,,,,,,,,,,,,,,,,,,,,,,,,,,,,,,0,2,2,3,1,,,,,,,,,,,,,,,,,,,,,,,,,,,,,,,,,,,,,,,,,
611ebe16f706cd0ee4f4f876,001,2022-11-21_02h25.21.882,Info_measure_main_exp,2022.2.2,Win32,60.09976561,,,,,,,,,,,,,,,,,,masks/mask_002.jpg,,,,,,,,,,,,,,,,,,,,,,,,,,,,,,,,,,,,,,,,,,,,,,,,0,3,3,1,1,,,,,,,,,,,,,,,,,,,,,,,,,,,,,,,,,,,,,,,,,
611ebe16f706cd0ee4f4f876,001,2022-11-21_02h25.21.882,Info_measure_main_exp,2022.2.2,Win32,60.09976561,,,,,,,,,,,,,,,,,,masks/mask_003.jpg,,,,,,,,,,,,,,,,,,,,,,,,,,,,,,,,,,,,,,,,,,,,,,,,0,4,4,2,1,,,,,,,,,,,,,,,,,,,,,,,,,,,,,,,,,,,,,,,,,
611ebe16f706cd0ee4f4f876,001,2022-11-21_02h25.21.882,Info_measure_main_exp,2022.2.2,Win32,60.09976561,,,,,,,,,,,,,,,,,,,,,,,,,,,,,,7,1.9318,1,,,,,,,,,,,,0,131,5,5,1974,2166,absent_patch/patch0001974.jpg,absent_patch/patch0002166.jpg,,,,,,,,,,,,,,,,,,,,0.016666695,0.045370349,1,0,0,response1disk,29,0,0.00462963,1,0,0,center_square,0,28,28,77,1,,,,,,,,,,,,,,,,,,,,,,,
611ebe16f706cd0ee4f4f876,001,2022-11-21_02h25.21.882,Info_measure_main_exp,2022.2.2,Win32,60.09976561,,,,,,,,,,,,,,,,,,masks/mask_003.jpg,,,,,,,,,,,,,,,,,,,,,,,,,,,,,,,,,,,,,,,,,,,0,0,0,2,1,,,,,,,,,,,,,,,,,,,,,,,,,,,,,,,,,,,,,,,,,,,,,,
611ebe16f706cd0ee4f4f876,001,2022-11-21_02h25.21.882,Info_measure_main_exp,2022.2.2,Win32,60.09976561,,,,,,,,,,,,,,,,,,masks/mask_005.jpg,,,,,,,,,,,,,,,,,,,,,,,,,,,,,,,,,,,,,,,,,,,0,1,1,4,1,,,,,,,,,,,,,,,,,,,,,,,,,,,,,,,,,,,,,,,,,,,,,,
611ebe16f706cd0ee4f4f876,001,2022-11-21_02h25.21.882,Info_measure_main_exp,2022.2.2,Win32,60.09976561,,,,,,,,,,,,,,,,,,masks/mask_004.jpg,,,,,,,,,,,,,,,,,,,,,,,,,,,,,,,,,,,,,,,,,,,0,2,2,3,1,,,,,,,,,,,,,,,,,,,,,,,,,,,,,,,,,,,,,,,,,,,,,,
611ebe16f706cd0ee4f4f876,001,2022-11-21_02h25.21.882,Info_measure_main_exp,2022.2.2,Win32,60.09976561,,,,,,,,,,,,,,,,,,masks/mask_001.jpg,,,,,,,,,,,,,,,,,,,,,,,,,,,,,,,,,,,,,,,,,,,0,3,3,0,1,,,,,,,,,,,,,,,,,,,,,,,,,,,,,,,,,,,,,,,,,,,,,,
611ebe16f706cd0ee4f4f876,001,2022-11-21_02h25.21.882,Info_measure_main_exp,2022.2.2,Win32,60.09976561,,,,,,,,,,,,,,,,,,masks/mask_002.jpg,,,,,,,,,,,,,,,,,,,,,,,,,,,,,,,,,,,,,,,,,,,0,4,4,1,1,,,,,,,,,,,,,,,,,,,,,,,,,,,,,,,,,,,,,,,,,,,,,,
611ebe16f706cd0ee4f4f876,001,2022-11-21_02h25.21.882,Info_measure_main_exp,2022.2.2,Win32,60.09976561,,,,,,,,,,,,,,,,,,masks/mask_004.jpg,,,,,,,,,,,,,,,,,,,,,,,,,,,,,,,,,,,,,,,,,,,,,,,,0,0,0,3,1,,,,,,,,,,,,,,,,,,,,,,,,,,,,,,,,,,,,,,,,,
611ebe16f706cd0ee4f4f876,001,2022-11-21_02h25.21.882,Info_measure_main_exp,2022.2.2,Win32,60.09976561,,,,,,,,,,,,,,,,,,masks/mask_005.jpg,,,,,,,,,,,,,,,,,,,,,,,,,,,,,,,,,,,,,,,,,,,,,,,,0,1,1,4,1,,,,,,,,,,,,,,,,,,,,,,,,,,,,,,,,,,,,,,,,,
611ebe16f706cd0ee4f4f876,001,2022-11-21_02h25.21.882,Info_measure_main_exp,2022.2.2,Win32,60.09976561,,,,,,,,,,,,,,,,,,masks/mask_003.jpg,,,,,,,,,,,,,,,,,,,,,,,,,,,,,,,,,,,,,,,,,,,,,,,,0,2,2,2,1,,,,,,,,,,,,,,,,,,,,,,,,,,,,,,,,,,,,,,,,,
611ebe16f706cd0ee4f4f876,001,2022-11-21_02h25.21.882,Info_measure_main_exp,2022.2.2,Win32,60.09976561,,,,,,,,,,,,,,,,,,masks/mask_002.jpg,,,,,,,,,,,,,,,,,,,,,,,,,,,,,,,,,,,,,,,,,,,,,,,,0,3,3,1,1,,,,,,,,,,,,,,,,,,,,,,,,,,,,,,,,,,,,,,,,,
611ebe16f706cd0ee4f4f876,001,2022-11-21_02h25.21.882,Info_measure_main_exp,2022.2.2,Win32,60.09976561,,,,,,,,,,,,,,,,,,masks/mask_001.jpg,,,,,,,,,,,,,,,,,,,,,,,,,,,,,,,,,,,,,,,,,,,,,,,,0,4,4,0,1,,,,,,,,,,,,,,,,,,,,,,,,,,,,,,,,,,,,,,,,,
611ebe16f706cd0ee4f4f876,001,2022-11-21_02h25.21.882,Info_measure_main_exp,2022.2.2,Win32,60.09976561,,,,,,,,,,,,,,,,,,,,,,,,,,,,,,7,0.9828,1,,,,,,,,,,,,0,131,5,5,2166,2298,absent_patch/patch0002166.jpg,absent_patch/patch0002298.jpg,,,,,,,,,,,,,,,,,,,,0.022222236,0.047222208,1,0,0,response1disk,30,-0.00462963,-0.00462963,1,0,0,center_square,0,29,29,52,1,,,,,,,,,,,,,,,,,,,,,,,
611ebe16f706cd0ee4f4f876,001,2022-11-21_02h25.21.882,Info_measure_main_exp,2022.2.2,Win32,60.09976561,,,,,,,,,,,,,,,,,,masks/mask_001.jpg,,,,,,,,,,,,,,,,,,,,,,,,,,,,,,,,,,,,,,,,,,,0,0,0,0,1,,,,,,,,,,,,,,,,,,,,,,,,,,,,,,,,,,,,,,,,,,,,,,
611ebe16f706cd0ee4f4f876,001,2022-11-21_02h25.21.882,Info_measure_main_exp,2022.2.2,Win32,60.09976561,,,,,,,,,,,,,,,,,,masks/mask_003.jpg,,,,,,,,,,,,,,,,,,,,,,,,,,,,,,,,,,,,,,,,,,,0,1,1,2,1,,,,,,,,,,,,,,,,,,,,,,,,,,,,,,,,,,,,,,,,,,,,,,
611ebe16f706cd0ee4f4f876,001,2022-11-21_02h25.21.882,Info_measure_main_exp,2022.2.2,Win32,60.09976561,,,,,,,,,,,,,,,,,,masks/mask_005.jpg,,,,,,,,,,,,,,,,,,,,,,,,,,,,,,,,,,,,,,,,,,,0,2,2,4,1,,,,,,,,,,,,,,,,,,,,,,,,,,,,,,,,,,,,,,,,,,,,,,
611ebe16f706cd0ee4f4f876,001,2022-11-21_02h25.21.882,Info_measure_main_exp,2022.2.2,Win32,60.09976561,,,,,,,,,,,,,,,,,,masks/mask_002.jpg,,,,,,,,,,,,,,,,,,,,,,,,,,,,,,,,,,,,,,,,,,,0,3,3,1,1,,,,,,,,,,,,,,,,,,,,,,,,,,,,,,,,,,,,,,,,,,,,,,
611ebe16f706cd0ee4f4f876,001,2022-11-21_02h25.21.882,Info_measure_main_exp,2022.2.2,Win32,60.09976561,,,,,,,,,,,,,,,,,,masks/mask_004.jpg,,,,,,,,,,,,,,,,,,,,,,,,,,,,,,,,,,,,,,,,,,,0,4,4,3,1,,,,,,,,,,,,,,,,,,,,,,,,,,,,,,,,,,,,,,,,,,,,,,
611ebe16f706cd0ee4f4f876,001,2022-11-21_02h25.21.882,Info_measure_main_exp,2022.2.2,Win32,60.09976561,,,,,,,,,,,,,,,,,,masks/mask_003.jpg,,,,,,,,,,,,,,,,,,,,,,,,,,,,,,,,,,,,,,,,,,,,,,,,0,0,0,2,1,,,,,,,,,,,,,,,,,,,,,,,,,,,,,,,,,,,,,,,,,
611ebe16f706cd0ee4f4f876,001,2022-11-21_02h25.21.882,Info_measure_main_exp,2022.2.2,Win32,60.09976561,,,,,,,,,,,,,,,,,,masks/mask_005.jpg,,,,,,,,,,,,,,,,,,,,,,,,,,,,,,,,,,,,,,,,,,,,,,,,0,1,1,4,1,,,,,,,,,,,,,,,,,,,,,,,,,,,,,,,,,,,,,,,,,
611ebe16f706cd0ee4f4f876,001,2022-11-21_02h25.21.882,Info_measure_main_exp,2022.2.2,Win32,60.09976561,,,,,,,,,,,,,,,,,,masks/mask_002.jpg,,,,,,,,,,,,,,,,,,,,,,,,,,,,,,,,,,,,,,,,,,,,,,,,0,2,2,1,1,,,,,,,,,,,,,,,,,,,,,,,,,,,,,,,,,,,,,,,,,
611ebe16f706cd0ee4f4f876,001,2022-11-21_02h25.21.882,Info_measure_main_exp,2022.2.2,Win32,60.09976561,,,,,,,,,,,,,,,,,,masks/mask_001.jpg,,,,,,,,,,,,,,,,,,,,,,,,,,,,,,,,,,,,,,,,,,,,,,,,0,3,3,0,1,,,,,,,,,,,,,,,,,,,,,,,,,,,,,,,,,,,,,,,,,
611ebe16f706cd0ee4f4f876,001,2022-11-21_02h25.21.882,Info_measure_main_exp,2022.2.2,Win32,60.09976561,,,,,,,,,,,,,,,,,,masks/mask_004.jpg,,,,,,,,,,,,,,,,,,,,,,,,,,,,,,,,,,,,,,,,,,,,,,,,0,4,4,3,1,,,,,,,,,,,,,,,,,,,,,,,,,,,,,,,,,,,,,,,,,
611ebe16f706cd0ee4f4f876,001,2022-11-21_02h25.21.882,Info_measure_main_exp,2022.2.2,Win32,60.09976561,,,,,,,,,,,,,,,,,,,,,,,,,,,,,,7,0.6854,1,,,,,,,,,,,,1,131,5,5,1,1974,present_patch/cong_131_5_a.jpg,absent_patch/patch0001974.jpg,,,,,,,,,,,,,,,,,,,,0.017592607,0.053703697,1,0,0,response1disk,31,0.002777806,0.00462963,1,0,0,center_square,0,30,30,69,1,,,,,,,,,,,,,,,,,,,,,,,
611ebe16f706cd0ee4f4f876,001,2022-11-21_02h25.21.882,Info_measure_main_exp,2022.2.2,Win32,60.09976561,,,,,,,,,,,,,,,,,,masks/mask_003.jpg,,,,,,,,,,,,,,,,,,,,,,,,,,,,,,,,,,,,,,,,,,,0,0,0,2,1,,,,,,,,,,,,,,,,,,,,,,,,,,,,,,,,,,,,,,,,,,,,,,
611ebe16f706cd0ee4f4f876,001,2022-11-21_02h25.21.882,Info_measure_main_exp,2022.2.2,Win32,60.09976561,,,,,,,,,,,,,,,,,,masks/mask_005.jpg,,,,,,,,,,,,,,,,,,,,,,,,,,,,,,,,,,,,,,,,,,,0,1,1,4,1,,,,,,,,,,,,,,,,,,,,,,,,,,,,,,,,,,,,,,,,,,,,,,
611ebe16f706cd0ee4f4f876,001,2022-11-21_02h25.21.882,Info_measure_main_exp,2022.2.2,Win32,60.09976561,,,,,,,,,,,,,,,,,,masks/mask_001.jpg,,,,,,,,,,,,,,,,,,,,,,,,,,,,,,,,,,,,,,,,,,,0,2,2,0,1,,,,,,,,,,,,,,,,,,,,,,,,,,,,,,,,,,,,,,,,,,,,,,
611ebe16f706cd0ee4f4f876,001,2022-11-21_02h25.21.882,Info_measure_main_exp,2022.2.2,Win32,60.09976561,,,,,,,,,,,,,,,,,,masks/mask_004.jpg,,,,,,,,,,,,,,,,,,,,,,,,,,,,,,,,,,,,,,,,,,,0,3,3,3,1,,,,,,,,,,,,,,,,,,,,,,,,,,,,,,,,,,,,,,,,,,,,,,
611ebe16f706cd0ee4f4f876,001,2022-11-21_02h25.21.882,Info_measure_main_exp,2022.2.2,Win32,60.09976561,,,,,,,,,,,,,,,,,,masks/mask_002.jpg,,,,,,,,,,,,,,,,,,,,,,,,,,,,,,,,,,,,,,,,,,,0,4,4,1,1,,,,,,,,,,,,,,,,,,,,,,,,,,,,,,,,,,,,,,,,,,,,,,
611ebe16f706cd0ee4f4f876,001,2022-11-21_02h25.21.882,Info_measure_main_exp,2022.2.2,Win32,60.09976561,,,,,,,,,,,,,,,,,,masks/mask_005.jpg,,,,,,,,,,,,,,,,,,,,,,,,,,,,,,,,,,,,,,,,,,,,,,,,0,0,0,4,1,,,,,,,,,,,,,,,,,,,,,,,,,,,,,,,,,,,,,,,,,
611ebe16f706cd0ee4f4f876,001,2022-11-21_02h25.21.882,Info_measure_main_exp,2022.2.2,Win32,60.09976561,,,,,,,,,,,,,,,,,,masks/mask_003.jpg,,,,,,,,,,,,,,,,,,,,,,,,,,,,,,,,,,,,,,,,,,,,,,,,0,1,1,2,1,,,,,,,,,,,,,,,,,,,,,,,,,,,,,,,,,,,,,,,,,
611ebe16f706cd0ee4f4f876,001,2022-11-21_02h25.21.882,Info_measure_main_exp,2022.2.2,Win32,60.09976561,,,,,,,,,,,,,,,,,,masks/mask_002.jpg,,,,,,,,,,,,,,,,,,,,,,,,,,,,,,,,,,,,,,,,,,,,,,,,0,2,2,1,1,,,,,,,,,,,,,,,,,,,,,,,,,,,,,,,,,,,,,,,,,
611ebe16f706cd0ee4f4f876,001,2022-11-21_02h25.21.882,Info_measure_main_exp,2022.2.2,Win32,60.09976561,,,,,,,,,,,,,,,,,,masks/mask_001.jpg,,,,,,,,,,,,,,,,,,,,,,,,,,,,,,,,,,,,,,,,,,,,,,,,0,3,3,0,1,,,,,,,,,,,,,,,,,,,,,,,,,,,,,,,,,,,,,,,,,
611ebe16f706cd0ee4f4f876,001,2022-11-21_02h25.21.882,Info_measure_main_exp,2022.2.2,Win32,60.09976561,,,,,,,,,,,,,,,,,,masks/mask_004.jpg,,,,,,,,,,,,,,,,,,,,,,,,,,,,,,,,,,,,,,,,,,,,,,,,0,4,4,3,1,,,,,,,,,,,,,,,,,,,,,,,,,,,,,,,,,,,,,,,,,
611ebe16f706cd0ee4f4f876,001,2022-11-21_02h25.21.882,Info_measure_main_exp,2022.2.2,Win32,60.09976561,,,,,,,,,,,,,,,,,,,,,,,,,,,,,,0,0.767,1,,,,,,,,,,,,0,131,5,5,2250,2250,absent_patch/patch0002250.jpg,absent_patch/patch0002250.jpg,,,,,,,,,,,,,,,,,,,,-0.037037037,0.064814815,1,0,0,response7disk,32,-0.009259259,0.002777771,1,0,0,center_square,0,31,31,56,1,,,,,,,,,,,,,,,,,,,,,,,
