participant,session,date,expName,psychopyVersion,OS,frameRate,space_press_continue.keys,space_press_continue.rt,space_press_continue_2.keys,space_press_continue_2.rt,space_press_continue_3.keys,space_press_continue_3.rt,space_press_continue_4.keys,space_press_continue_4.rt,space_press_continue_5.keys,space_press_continue_5.rt,space_press_continue_6.keys,space_press_continue_6.rt,prac_mask_loop_1.thisRepN,prac_mask_loop_1.thisTrialN,prac_mask_loop_1.thisN,prac_mask_loop_1.thisIndex,prac_mask_loop_1.ran,mask_name,prac_mask_loop_2.thisRepN,prac_mask_loop_2.thisTrialN,prac_mask_loop_2.thisN,prac_mask_loop_2.thisIndex,prac_mask_loop_2.ran,mouse_2.x,mouse_2.y,mouse_2.leftButton,mouse_2.midButton,mouse_2.rightButton,mouse_2.clicked_name,similarity,response_time,Pass,mouse_12.x,mouse_12.y,mouse_12.leftButton,mouse_12.midButton,mouse_12.rightButton,mouse_12.clicked_name,prac_loop.thisRepN,prac_loop.thisTrialN,prac_loop.thisN,prac_loop.thisIndex,prac_loop.ran,Pair_type,Image_num,Patch_1_loc,Patch_2_loc,Patch_1_info,Patch_2_info,Patch_1_name,Patch_2_name,mouse_1.x,mouse_1.y,mouse_1.leftButton,mouse_1.midButton,mouse_1.rightButton,mouse_1.time,mouse_1.clicked_name,space_press_continue_7.keys,space_press_continue_7.rt,mask_loop.thisRepN,mask_loop.thisTrialN,mask_loop.thisN,mask_loop.thisIndex,mask_loop.ran,mask_loop_2.thisRepN,mask_loop_2.thisTrialN,mask_loop_2.thisN,mask_loop_2.thisIndex,mask_loop_2.ran,mouse.x,mouse.y,mouse.leftButton,mouse.midButton,mouse.rightButton,mouse.clicked_name,trialNumber,mouse_11.x,mouse_11.y,mouse_11.leftButton,mouse_11.midButton,mouse_11.rightButton,mouse_11.clicked_name,first_pass_loop.thisRepN,first_pass_loop.thisTrialN,first_pass_loop.thisN,first_pass_loop.thisIndex,first_pass_loop.ran,mask_loop_3.thisRepN,mask_loop_3.thisTrialN,mask_loop_3.thisN,mask_loop_3.thisIndex,mask_loop_3.ran,mask_loop_4.thisRepN,mask_loop_4.thisTrialN,mask_loop_4.thisN,mask_loop_4.thisIndex,mask_loop_4.ran,mouse_3.x,mouse_3.y,mouse_3.leftButton,mouse_3.midButton,mouse_3.rightButton,mouse_3.clicked_name,double_pass_loop.thisRepN,double_pass_loop.thisTrialN,double_pass_loop.thisN,double_pass_loop.thisIndex,double_pass_loop.ran,space_exit.keys,space_exit.rt
613661,001,2022-11-20_23h50.27.897,Info_measure_main_exp,2022.2.2,Win32,59.36127271,,,,,,,,,,,,,,,,,,,,,,,,,,,,,,,,,,,,,,,,,,,,,,,,,,,,,,,,,,,,,,,,,,,,,,,,,,,,,,,,,,,,,,,,,,,,,,,,,,,,,,,,,,,,,,,
613661,001,2022-11-20_23h50.27.897,Info_measure_main_exp,2022.2.2,Win32,59.36127271,,,,,,,,,,,,,,,,,,,,,,,,,,,,,,,,,,,,,,,,,,,,,,,,,,,,,,,,,,,,,,,,,,,,,,,,,,,,,,,,,,,,,,,,,,,,,,,,,,,,,,,,,,,,,,,
613661,001,2022-11-20_23h50.27.897,Info_measure_main_exp,2022.2.2,Win32,59.36127271,space,6.7698,,,,,,,,,,,,,,,,,,,,,,,,,,,,,,,,,,,,,,,,,,,,,,,,,,,,,,,,,,,,,,,,,,,,,,,,,,,,,,,,,,,,,,,,,,,,,,,,,,,,,,,,,,,,,
613661,001,2022-11-20_23h50.27.897,Info_measure_main_exp,2022.2.2,Win32,59.36127271,,,space,10.2977,,,,,,,,,,,,,,,,,,,,,,,,,,,,,,,,,,,,,,,,,,,,,,,,,,,,,,,,,,,,,,,,,,,,,,,,,,,,,,,,,,,,,,,,,,,,,,,,,,,,,,,,,,,
613661,001,2022-11-20_23h50.27.897,Info_measure_main_exp,2022.2.2,Win32,59.36127271,,,,,space,2.5077,,,,,,,,,,,,,,,,,,,,,,,,,,,,,,,,,,,,,,,,,,,,,,,,,,,,,,,,,,,,,,,,,,,,,,,,,,,,,,,,,,,,,,,,,,,,,,,,,,,,,,,,,
613661,001,2022-11-20_23h50.27.897,Info_measure_main_exp,2022.2.2,Win32,59.36127271,,,,,,,space,16.3932,,,,,,,,,,,,,,,,,,,,,,,,,,,,,,,,,,,,,,,,,,,,,,,,,,,,,,,,,,,,,,,,,,,,,,,,,,,,,,,,,,,,,,,,,,,,,,,,,,,,,,,
613661,001,2022-11-20_23h50.27.897,Info_measure_main_exp,2022.2.2,Win32,59.36127271,,,,,,,,,space,7.8959,,,,,,,,,,,,,,,,,,,,,,,,,,,,,,,,,,,,,,,,,,,,,,,,,,,,,,,,,,,,,,,,,,,,,,,,,,,,,,,,,,,,,,,,,,,,,,,,,,,,,
613661,001,2022-11-20_23h50.27.897,Info_measure_main_exp,2022.2.2,Win32,59.36127271,,,,,,,,,,,space,6.5171,,,,,,,,,,,,,,,,,,,,,,,,,,,,,,,,,,,,,,,,,,,,,,,,,,,,,,,,,,,,,,,,,,,,,,,,,,,,,,,,,,,,,,,,,,,,,,,,,,,
613661,001,2022-11-20_23h50.27.897,Info_measure_main_exp,2022.2.2,Win32,59.36127271,,,,,,,,,,,,,0,0,0,2,1,masks/mask_003.jpg,,,,,,,,,,,,,,,,,,,,,,,,,,,,,,,,,,,,,,,,,,,,,,,,,,,,,,,,,,,,,,,,,,,,,,,,,,,,,,,,,,,,,,,,,,,,,
613661,001,2022-11-20_23h50.27.897,Info_measure_main_exp,2022.2.2,Win32,59.36127271,,,,,,,,,,,,,0,1,1,1,1,masks/mask_002.jpg,,,,,,,,,,,,,,,,,,,,,,,,,,,,,,,,,,,,,,,,,,,,,,,,,,,,,,,,,,,,,,,,,,,,,,,,,,,,,,,,,,,,,,,,,,,,,
613661,001,2022-11-20_23h50.27.897,Info_measure_main_exp,2022.2.2,Win32,59.36127271,,,,,,,,,,,,,0,2,2,4,1,masks/mask_005.jpg,,,,,,,,,,,,,,,,,,,,,,,,,,,,,,,,,,,,,,,,,,,,,,,,,,,,,,,,,,,,,,,,,,,,,,,,,,,,,,,,,,,,,,,,,,,,,
613661,001,2022-11-20_23h50.27.897,Info_measure_main_exp,2022.2.2,Win32,59.36127271,,,,,,,,,,,,,0,3,3,3,1,masks/mask_004.jpg,,,,,,,,,,,,,,,,,,,,,,,,,,,,,,,,,,,,,,,,,,,,,,,,,,,,,,,,,,,,,,,,,,,,,,,,,,,,,,,,,,,,,,,,,,,,,
613661,001,2022-11-20_23h50.27.897,Info_measure_main_exp,2022.2.2,Win32,59.36127271,,,,,,,,,,,,,0,4,4,0,1,masks/mask_001.jpg,,,,,,,,,,,,,,,,,,,,,,,,,,,,,,,,,,,,,,,,,,,,,,,,,,,,,,,,,,,,,,,,,,,,,,,,,,,,,,,,,,,,,,,,,,,,,
613661,001,2022-11-20_23h50.27.897,Info_measure_main_exp,2022.2.2,Win32,59.36127271,,,,,,,,,,,,,,,,,,masks/mask_001.jpg,0,0,0,0,1,,,,,,,,,,,,,,,,,,,,,,,,,,,,,,,,,,,,,,,,,,,,,,,,,,,,,,,,,,,,,,,,,,,,,,,,,,,,,,,,,,,,,,,,
613661,001,2022-11-20_23h50.27.897,Info_measure_main_exp,2022.2.2,Win32,59.36127271,,,,,,,,,,,,,,,,,,masks/mask_005.jpg,0,1,1,4,1,,,,,,,,,,,,,,,,,,,,,,,,,,,,,,,,,,,,,,,,,,,,,,,,,,,,,,,,,,,,,,,,,,,,,,,,,,,,,,,,,,,,,,,,
613661,001,2022-11-20_23h50.27.897,Info_measure_main_exp,2022.2.2,Win32,59.36127271,,,,,,,,,,,,,,,,,,masks/mask_004.jpg,0,2,2,3,1,,,,,,,,,,,,,,,,,,,,,,,,,,,,,,,,,,,,,,,,,,,,,,,,,,,,,,,,,,,,,,,,,,,,,,,,,,,,,,,,,,,,,,,,
613661,001,2022-11-20_23h50.27.897,Info_measure_main_exp,2022.2.2,Win32,59.36127271,,,,,,,,,,,,,,,,,,masks/mask_003.jpg,0,3,3,2,1,,,,,,,,,,,,,,,,,,,,,,,,,,,,,,,,,,,,,,,,,,,,,,,,,,,,,,,,,,,,,,,,,,,,,,,,,,,,,,,,,,,,,,,,
613661,001,2022-11-20_23h50.27.897,Info_measure_main_exp,2022.2.2,Win32,59.36127271,,,,,,,,,,,,,,,,,,masks/mask_002.jpg,0,4,4,1,1,,,,,,,,,,,,,,,,,,,,,,,,,,,,,,,,,,,,,,,,,,,,,,,,,,,,,,,,,,,,,,,,,,,,,,,,,,,,,,,,,,,,,,,,
613661,001,2022-11-20_23h50.27.897,Info_measure_main_exp,2022.2.2,Win32,59.36127271,,,,,,,,,,,,,,,,,,,,,,,,-0.047222208,-0.146296325,1,0,0,response5disk,3,56.8423,1,0,0.001851859,1,0,0,center_square,0,0,0,0,1,0,131,5,5,2370,2406,prac_patch/patch0002370.jpg,prac_patch/patch0002406.jpg,,,,,,,,,,,,,,,,,,,,,,,,,,,,,,,,,,,,,,,,,,,,,,,,,,,,,,,,,,,,
613661,001,2022-11-20_23h50.27.897,Info_measure_main_exp,2022.2.2,Win32,59.36127271,,,,,,,,,,,,,0,0,0,0,1,masks/mask_001.jpg,,,,,,,,,,,,,,,,,,,,,,,,,,,,,,,,,,,,,,,,,,,,,,,,,,,,,,,,,,,,,,,,,,,,,,,,,,,,,,,,,,,,,,,,,,,,,
613661,001,2022-11-20_23h50.27.897,Info_measure_main_exp,2022.2.2,Win32,59.36127271,,,,,,,,,,,,,0,1,1,4,1,masks/mask_005.jpg,,,,,,,,,,,,,,,,,,,,,,,,,,,,,,,,,,,,,,,,,,,,,,,,,,,,,,,,,,,,,,,,,,,,,,,,,,,,,,,,,,,,,,,,,,,,,
613661,001,2022-11-20_23h50.27.897,Info_measure_main_exp,2022.2.2,Win32,59.36127271,,,,,,,,,,,,,0,2,2,1,1,masks/mask_002.jpg,,,,,,,,,,,,,,,,,,,,,,,,,,,,,,,,,,,,,,,,,,,,,,,,,,,,,,,,,,,,,,,,,,,,,,,,,,,,,,,,,,,,,,,,,,,,,
613661,001,2022-11-20_23h50.27.897,Info_measure_main_exp,2022.2.2,Win32,59.36127271,,,,,,,,,,,,,0,3,3,2,1,masks/mask_003.jpg,,,,,,,,,,,,,,,,,,,,,,,,,,,,,,,,,,,,,,,,,,,,,,,,,,,,,,,,,,,,,,,,,,,,,,,,,,,,,,,,,,,,,,,,,,,,,
613661,001,2022-11-20_23h50.27.897,Info_measure_main_exp,2022.2.2,Win32,59.36127271,,,,,,,,,,,,,0,4,4,3,1,masks/mask_004.jpg,,,,,,,,,,,,,,,,,,,,,,,,,,,,,,,,,,,,,,,,,,,,,,,,,,,,,,,,,,,,,,,,,,,,,,,,,,,,,,,,,,,,,,,,,,,,,
613661,001,2022-11-20_23h50.27.897,Info_measure_main_exp,2022.2.2,Win32,59.36127271,,,,,,,,,,,,,,,,,,masks/mask_003.jpg,0,0,0,2,1,,,,,,,,,,,,,,,,,,,,,,,,,,,,,,,,,,,,,,,,,,,,,,,,,,,,,,,,,,,,,,,,,,,,,,,,,,,,,,,,,,,,,,,,
613661,001,2022-11-20_23h50.27.897,Info_measure_main_exp,2022.2.2,Win32,59.36127271,,,,,,,,,,,,,,,,,,masks/mask_005.jpg,0,1,1,4,1,,,,,,,,,,,,,,,,,,,,,,,,,,,,,,,,,,,,,,,,,,,,,,,,,,,,,,,,,,,,,,,,,,,,,,,,,,,,,,,,,,,,,,,,
613661,001,2022-11-20_23h50.27.897,Info_measure_main_exp,2022.2.2,Win32,59.36127271,,,,,,,,,,,,,,,,,,masks/mask_004.jpg,0,2,2,3,1,,,,,,,,,,,,,,,,,,,,,,,,,,,,,,,,,,,,,,,,,,,,,,,,,,,,,,,,,,,,,,,,,,,,,,,,,,,,,,,,,,,,,,,,
613661,001,2022-11-20_23h50.27.897,Info_measure_main_exp,2022.2.2,Win32,59.36127271,,,,,,,,,,,,,,,,,,masks/mask_002.jpg,0,3,3,1,1,,,,,,,,,,,,,,,,,,,,,,,,,,,,,,,,,,,,,,,,,,,,,,,,,,,,,,,,,,,,,,,,,,,,,,,,,,,,,,,,,,,,,,,,
613661,001,2022-11-20_23h50.27.897,Info_measure_main_exp,2022.2.2,Win32,59.36127271,,,,,,,,,,,,,,,,,,masks/mask_001.jpg,0,4,4,0,1,,,,,,,,,,,,,,,,,,,,,,,,,,,,,,,,,,,,,,,,,,,,,,,,,,,,,,,,,,,,,,,,,,,,,,,,,,,,,,,,,,,,,,,,
613661,001,2022-11-20_23h50.27.897,Info_measure_main_exp,2022.2.2,Win32,59.36127271,,,,,,,,,,,,,,,,,,,,,,,,-0.030555513,0.100925905,1,0,0,response7disk,0,66.4655,1,0,0,1,0,0,center_square,0,1,1,2,1,0,131,5,5,2526,2526,prac_patch/patch0002526.jpg,prac_patch/patch0002526.jpg,,,,,,,,,,,,,,,,,,,,,,,,,,,,,,,,,,,,,,,,,,,,,,,,,,,,,,,,,,,,
613661,001,2022-11-20_23h50.27.897,Info_measure_main_exp,2022.2.2,Win32,59.36127271,,,,,,,,,,,,,0,0,0,2,1,masks/mask_003.jpg,,,,,,,,,,,,,,,,,,,,,,,,,,,,,,,,,,,,,,,,,,,,,,,,,,,,,,,,,,,,,,,,,,,,,,,,,,,,,,,,,,,,,,,,,,,,,
613661,001,2022-11-20_23h50.27.897,Info_measure_main_exp,2022.2.2,Win32,59.36127271,,,,,,,,,,,,,0,1,1,1,1,masks/mask_002.jpg,,,,,,,,,,,,,,,,,,,,,,,,,,,,,,,,,,,,,,,,,,,,,,,,,,,,,,,,,,,,,,,,,,,,,,,,,,,,,,,,,,,,,,,,,,,,,
613661,001,2022-11-20_23h50.27.897,Info_measure_main_exp,2022.2.2,Win32,59.36127271,,,,,,,,,,,,,0,2,2,4,1,masks/mask_005.jpg,,,,,,,,,,,,,,,,,,,,,,,,,,,,,,,,,,,,,,,,,,,,,,,,,,,,,,,,,,,,,,,,,,,,,,,,,,,,,,,,,,,,,,,,,,,,,
613661,001,2022-11-20_23h50.27.897,Info_measure_main_exp,2022.2.2,Win32,59.36127271,,,,,,,,,,,,,0,3,3,3,1,masks/mask_004.jpg,,,,,,,,,,,,,,,,,,,,,,,,,,,,,,,,,,,,,,,,,,,,,,,,,,,,,,,,,,,,,,,,,,,,,,,,,,,,,,,,,,,,,,,,,,,,,
613661,001,2022-11-20_23h50.27.897,Info_measure_main_exp,2022.2.2,Win32,59.36127271,,,,,,,,,,,,,0,4,4,0,1,masks/mask_001.jpg,,,,,,,,,,,,,,,,,,,,,,,,,,,,,,,,,,,,,,,,,,,,,,,,,,,,,,,,,,,,,,,,,,,,,,,,,,,,,,,,,,,,,,,,,,,,,
613661,001,2022-11-20_23h50.27.897,Info_measure_main_exp,2022.2.2,Win32,59.36127271,,,,,,,,,,,,,,,,,,masks/mask_001.jpg,0,0,0,0,1,,,,,,,,,,,,,,,,,,,,,,,,,,,,,,,,,,,,,,,,,,,,,,,,,,,,,,,,,,,,,,,,,,,,,,,,,,,,,,,,,,,,,,,,
613661,001,2022-11-20_23h50.27.897,Info_measure_main_exp,2022.2.2,Win32,59.36127271,,,,,,,,,,,,,,,,,,masks/mask_005.jpg,0,1,1,4,1,,,,,,,,,,,,,,,,,,,,,,,,,,,,,,,,,,,,,,,,,,,,,,,,,,,,,,,,,,,,,,,,,,,,,,,,,,,,,,,,,,,,,,,,
613661,001,2022-11-20_23h50.27.897,Info_measure_main_exp,2022.2.2,Win32,59.36127271,,,,,,,,,,,,,,,,,,masks/mask_002.jpg,0,2,2,1,1,,,,,,,,,,,,,,,,,,,,,,,,,,,,,,,,,,,,,,,,,,,,,,,,,,,,,,,,,,,,,,,,,,,,,,,,,,,,,,,,,,,,,,,,
613661,001,2022-11-20_23h50.27.897,Info_measure_main_exp,2022.2.2,Win32,59.36127271,,,,,,,,,,,,,,,,,,masks/mask_004.jpg,0,3,3,3,1,,,,,,,,,,,,,,,,,,,,,,,,,,,,,,,,,,,,,,,,,,,,,,,,,,,,,,,,,,,,,,,,,,,,,,,,,,,,,,,,,,,,,,,,
613661,001,2022-11-20_23h50.27.897,Info_measure_main_exp,2022.2.2,Win32,59.36127271,,,,,,,,,,,,,,,,,,masks/mask_003.jpg,0,4,4,2,1,,,,,,,,,,,,,,,,,,,,,,,,,,,,,,,,,,,,,,,,,,,,,,,,,,,,,,,,,,,,,,,,,,,,,,,,,,,,,,,,,,,,,,,,
613661,001,2022-11-20_23h50.27.897,Info_measure_main_exp,2022.2.2,Win32,59.36127271,,,,,,,,,,,,,,,,,,,,,,,,0.114814829,-0.069444444,1,0,0,response3disk,5,75.1945,1,-0.000925912,0.000925912,1,0,0,center_square,0,2,2,1,1,0,131,5,5,2514,2490,prac_patch/patch0002514.jpg,prac_patch/patch0002490.jpg,,,,,,,,,,,,,,,,,,,,,,,,,,,,,,,,,,,,,,,,,,,,,,,,,,,,,,,,,,,,
613661,001,2022-11-20_23h50.27.897,Info_measure_main_exp,2022.2.2,Win32,59.36127271,,,,,,,,,,,,,,,,,,,,,,,,,,,,,,,,,,,,,,,,,,,,,,,,,,,,,,,,,,,space,2.2203,,,,,,,,,,,,,,,,,,,,,,,,,,,,,,,,,,,,,,,,,,,,,,,,,,,
613661,001,2022-11-20_23h50.27.897,Info_measure_main_exp,2022.2.2,Win32,59.36127271,,,,,,,,,,,,,,,,,,masks/mask_004.jpg,,,,,,,,,,,,,,,,,,,,,,,,,,,,,,,,,,,,,,,,,,,0,0,0,3,1,,,,,,,,,,,,,,,,,,,,,,,,,,,,,,,,,,,,,,,,,,,,,,
613661,001,2022-11-20_23h50.27.897,Info_measure_main_exp,2022.2.2,Win32,59.36127271,,,,,,,,,,,,,,,,,,masks/mask_002.jpg,,,,,,,,,,,,,,,,,,,,,,,,,,,,,,,,,,,,,,,,,,,0,1,1,1,1,,,,,,,,,,,,,,,,,,,,,,,,,,,,,,,,,,,,,,,,,,,,,,
613661,001,2022-11-20_23h50.27.897,Info_measure_main_exp,2022.2.2,Win32,59.36127271,,,,,,,,,,,,,,,,,,masks/mask_005.jpg,,,,,,,,,,,,,,,,,,,,,,,,,,,,,,,,,,,,,,,,,,,0,2,2,4,1,,,,,,,,,,,,,,,,,,,,,,,,,,,,,,,,,,,,,,,,,,,,,,
613661,001,2022-11-20_23h50.27.897,Info_measure_main_exp,2022.2.2,Win32,59.36127271,,,,,,,,,,,,,,,,,,masks/mask_001.jpg,,,,,,,,,,,,,,,,,,,,,,,,,,,,,,,,,,,,,,,,,,,0,3,3,0,1,,,,,,,,,,,,,,,,,,,,,,,,,,,,,,,,,,,,,,,,,,,,,,
613661,001,2022-11-20_23h50.27.897,Info_measure_main_exp,2022.2.2,Win32,59.36127271,,,,,,,,,,,,,,,,,,masks/mask_003.jpg,,,,,,,,,,,,,,,,,,,,,,,,,,,,,,,,,,,,,,,,,,,0,4,4,2,1,,,,,,,,,,,,,,,,,,,,,,,,,,,,,,,,,,,,,,,,,,,,,,
613661,001,2022-11-20_23h50.27.897,Info_measure_main_exp,2022.2.2,Win32,59.36127271,,,,,,,,,,,,,,,,,,masks/mask_001.jpg,,,,,,,,,,,,,,,,,,,,,,,,,,,,,,,,,,,,,,,,,,,,,,,,0,0,0,0,1,,,,,,,,,,,,,,,,,,,,,,,,,,,,,,,,,,,,,,,,,
613661,001,2022-11-20_23h50.27.897,Info_measure_main_exp,2022.2.2,Win32,59.36127271,,,,,,,,,,,,,,,,,,masks/mask_002.jpg,,,,,,,,,,,,,,,,,,,,,,,,,,,,,,,,,,,,,,,,,,,,,,,,0,1,1,1,1,,,,,,,,,,,,,,,,,,,,,,,,,,,,,,,,,,,,,,,,,
613661,001,2022-11-20_23h50.27.897,Info_measure_main_exp,2022.2.2,Win32,59.36127271,,,,,,,,,,,,,,,,,,masks/mask_005.jpg,,,,,,,,,,,,,,,,,,,,,,,,,,,,,,,,,,,,,,,,,,,,,,,,0,2,2,4,1,,,,,,,,,,,,,,,,,,,,,,,,,,,,,,,,,,,,,,,,,
613661,001,2022-11-20_23h50.27.897,Info_measure_main_exp,2022.2.2,Win32,59.36127271,,,,,,,,,,,,,,,,,,masks/mask_004.jpg,,,,,,,,,,,,,,,,,,,,,,,,,,,,,,,,,,,,,,,,,,,,,,,,0,3,3,3,1,,,,,,,,,,,,,,,,,,,,,,,,,,,,,,,,,,,,,,,,,
613661,001,2022-11-20_23h50.27.897,Info_measure_main_exp,2022.2.2,Win32,59.36127271,,,,,,,,,,,,,,,,,,masks/mask_003.jpg,,,,,,,,,,,,,,,,,,,,,,,,,,,,,,,,,,,,,,,,,,,,,,,,0,4,4,2,1,,,,,,,,,,,,,,,,,,,,,,,,,,,,,,,,,,,,,,,,,
613661,001,2022-11-20_23h50.27.897,Info_measure_main_exp,2022.2.2,Win32,59.36127271,,,,,,,,,,,,,,,,,,,,,,,,,,,,,,0,0.7829,1,,,,,,,,,,,,0,131,5,5,2142,2142,absent_patch/patch0002142.jpg,absent_patch/patch0002142.jpg,,,,,,,,,,,,,,,,,,,,-0.050925926,0.171296296,1,0,0,response7disk,1,-0.002777735,0.009259259,1,0,0,center_square,0,0,0,13,1,,,,,,,,,,,,,,,,,,,,,,,
613661,001,2022-11-20_23h50.27.897,Info_measure_main_exp,2022.2.2,Win32,59.36127271,,,,,,,,,,,,,,,,,,masks/mask_002.jpg,,,,,,,,,,,,,,,,,,,,,,,,,,,,,,,,,,,,,,,,,,,0,0,0,1,1,,,,,,,,,,,,,,,,,,,,,,,,,,,,,,,,,,,,,,,,,,,,,,
613661,001,2022-11-20_23h50.27.897,Info_measure_main_exp,2022.2.2,Win32,59.36127271,,,,,,,,,,,,,,,,,,masks/mask_004.jpg,,,,,,,,,,,,,,,,,,,,,,,,,,,,,,,,,,,,,,,,,,,0,1,1,3,1,,,,,,,,,,,,,,,,,,,,,,,,,,,,,,,,,,,,,,,,,,,,,,
613661,001,2022-11-20_23h50.27.897,Info_measure_main_exp,2022.2.2,Win32,59.36127271,,,,,,,,,,,,,,,,,,masks/mask_005.jpg,,,,,,,,,,,,,,,,,,,,,,,,,,,,,,,,,,,,,,,,,,,0,2,2,4,1,,,,,,,,,,,,,,,,,,,,,,,,,,,,,,,,,,,,,,,,,,,,,,
613661,001,2022-11-20_23h50.27.897,Info_measure_main_exp,2022.2.2,Win32,59.36127271,,,,,,,,,,,,,,,,,,masks/mask_003.jpg,,,,,,,,,,,,,,,,,,,,,,,,,,,,,,,,,,,,,,,,,,,0,3,3,2,1,,,,,,,,,,,,,,,,,,,,,,,,,,,,,,,,,,,,,,,,,,,,,,
613661,001,2022-11-20_23h50.27.897,Info_measure_main_exp,2022.2.2,Win32,59.36127271,,,,,,,,,,,,,,,,,,masks/mask_001.jpg,,,,,,,,,,,,,,,,,,,,,,,,,,,,,,,,,,,,,,,,,,,0,4,4,0,1,,,,,,,,,,,,,,,,,,,,,,,,,,,,,,,,,,,,,,,,,,,,,,
613661,001,2022-11-20_23h50.27.897,Info_measure_main_exp,2022.2.2,Win32,59.36127271,,,,,,,,,,,,,,,,,,masks/mask_005.jpg,,,,,,,,,,,,,,,,,,,,,,,,,,,,,,,,,,,,,,,,,,,,,,,,0,0,0,4,1,,,,,,,,,,,,,,,,,,,,,,,,,,,,,,,,,,,,,,,,,
613661,001,2022-11-20_23h50.27.897,Info_measure_main_exp,2022.2.2,Win32,59.36127271,,,,,,,,,,,,,,,,,,masks/mask_003.jpg,,,,,,,,,,,,,,,,,,,,,,,,,,,,,,,,,,,,,,,,,,,,,,,,0,1,1,2,1,,,,,,,,,,,,,,,,,,,,,,,,,,,,,,,,,,,,,,,,,
613661,001,2022-11-20_23h50.27.897,Info_measure_main_exp,2022.2.2,Win32,59.36127271,,,,,,,,,,,,,,,,,,masks/mask_001.jpg,,,,,,,,,,,,,,,,,,,,,,,,,,,,,,,,,,,,,,,,,,,,,,,,0,2,2,0,1,,,,,,,,,,,,,,,,,,,,,,,,,,,,,,,,,,,,,,,,,
613661,001,2022-11-20_23h50.27.897,Info_measure_main_exp,2022.2.2,Win32,59.36127271,,,,,,,,,,,,,,,,,,masks/mask_004.jpg,,,,,,,,,,,,,,,,,,,,,,,,,,,,,,,,,,,,,,,,,,,,,,,,0,3,3,3,1,,,,,,,,,,,,,,,,,,,,,,,,,,,,,,,,,,,,,,,,,
613661,001,2022-11-20_23h50.27.897,Info_measure_main_exp,2022.2.2,Win32,59.36127271,,,,,,,,,,,,,,,,,,masks/mask_002.jpg,,,,,,,,,,,,,,,,,,,,,,,,,,,,,,,,,,,,,,,,,,,,,,,,0,4,4,1,1,,,,,,,,,,,,,,,,,,,,,,,,,,,,,,,,,,,,,,,,,
613661,001,2022-11-20_23h50.27.897,Info_measure_main_exp,2022.2.2,Win32,59.36127271,,,,,,,,,,,,,,,,,,,,,,,,,,,,,,5,1.2493,1,,,,,,,,,,,,0,131,5,5,2142,2166,absent_patch/patch0002142.jpg,absent_patch/patch0002166.jpg,,,,,,,,,,,,,,,,,,,,0.125925912,-0.061111132,1,0,0,response3disk,2,-0.000925912,0.000925912,1,0,0,center_square,0,1,1,66,1,,,,,,,,,,,,,,,,,,,,,,,
613661,001,2022-11-20_23h50.27.897,Info_measure_main_exp,2022.2.2,Win32,59.36127271,,,,,,,,,,,,,,,,,,masks/mask_002.jpg,,,,,,,,,,,,,,,,,,,,,,,,,,,,,,,,,,,,,,,,,,,0,0,0,1,1,,,,,,,,,,,,,,,,,,,,,,,,,,,,,,,,,,,,,,,,,,,,,,
613661,001,2022-11-20_23h50.27.897,Info_measure_main_exp,2022.2.2,Win32,59.36127271,,,,,,,,,,,,,,,,,,masks/mask_004.jpg,,,,,,,,,,,,,,,,,,,,,,,,,,,,,,,,,,,,,,,,,,,0,1,1,3,1,,,,,,,,,,,,,,,,,,,,,,,,,,,,,,,,,,,,,,,,,,,,,,
613661,001,2022-11-20_23h50.27.897,Info_measure_main_exp,2022.2.2,Win32,59.36127271,,,,,,,,,,,,,,,,,,masks/mask_003.jpg,,,,,,,,,,,,,,,,,,,,,,,,,,,,,,,,,,,,,,,,,,,0,2,2,2,1,,,,,,,,,,,,,,,,,,,,,,,,,,,,,,,,,,,,,,,,,,,,,,
613661,001,2022-11-20_23h50.27.897,Info_measure_main_exp,2022.2.2,Win32,59.36127271,,,,,,,,,,,,,,,,,,masks/mask_005.jpg,,,,,,,,,,,,,,,,,,,,,,,,,,,,,,,,,,,,,,,,,,,0,3,3,4,1,,,,,,,,,,,,,,,,,,,,,,,,,,,,,,,,,,,,,,,,,,,,,,
613661,001,2022-11-20_23h50.27.897,Info_measure_main_exp,2022.2.2,Win32,59.36127271,,,,,,,,,,,,,,,,,,masks/mask_001.jpg,,,,,,,,,,,,,,,,,,,,,,,,,,,,,,,,,,,,,,,,,,,0,4,4,0,1,,,,,,,,,,,,,,,,,,,,,,,,,,,,,,,,,,,,,,,,,,,,,,
613661,001,2022-11-20_23h50.27.897,Info_measure_main_exp,2022.2.2,Win32,59.36127271,,,,,,,,,,,,,,,,,,masks/mask_004.jpg,,,,,,,,,,,,,,,,,,,,,,,,,,,,,,,,,,,,,,,,,,,,,,,,0,0,0,3,1,,,,,,,,,,,,,,,,,,,,,,,,,,,,,,,,,,,,,,,,,
613661,001,2022-11-20_23h50.27.897,Info_measure_main_exp,2022.2.2,Win32,59.36127271,,,,,,,,,,,,,,,,,,masks/mask_002.jpg,,,,,,,,,,,,,,,,,,,,,,,,,,,,,,,,,,,,,,,,,,,,,,,,0,1,1,1,1,,,,,,,,,,,,,,,,,,,,,,,,,,,,,,,,,,,,,,,,,
613661,001,2022-11-20_23h50.27.897,Info_measure_main_exp,2022.2.2,Win32,59.36127271,,,,,,,,,,,,,,,,,,masks/mask_001.jpg,,,,,,,,,,,,,,,,,,,,,,,,,,,,,,,,,,,,,,,,,,,,,,,,0,2,2,0,1,,,,,,,,,,,,,,,,,,,,,,,,,,,,,,,,,,,,,,,,,
613661,001,2022-11-20_23h50.27.897,Info_measure_main_exp,2022.2.2,Win32,59.36127271,,,,,,,,,,,,,,,,,,masks/mask_003.jpg,,,,,,,,,,,,,,,,,,,,,,,,,,,,,,,,,,,,,,,,,,,,,,,,0,3,3,2,1,,,,,,,,,,,,,,,,,,,,,,,,,,,,,,,,,,,,,,,,,
613661,001,2022-11-20_23h50.27.897,Info_measure_main_exp,2022.2.2,Win32,59.36127271,,,,,,,,,,,,,,,,,,masks/mask_005.jpg,,,,,,,,,,,,,,,,,,,,,,,,,,,,,,,,,,,,,,,,,,,,,,,,0,4,4,4,1,,,,,,,,,,,,,,,,,,,,,,,,,,,,,,,,,,,,,,,,,
613661,001,2022-11-20_23h50.27.897,Info_measure_main_exp,2022.2.2,Win32,59.36127271,,,,,,,,,,,,,,,,,,,,,,,,,,,,,,7,1.6324,1,,,,,,,,,,,,0,131,5,5,1974,2250,absent_patch/patch0001974.jpg,absent_patch/patch0002250.jpg,,,,,,,,,,,,,,,,,,,,0.075925968,0.112037023,1,0,0,response1disk,3,0.001851894,-0.000925947,1,0,0,center_square,0,2,2,55,1,,,,,,,,,,,,,,,,,,,,,,,
613661,001,2022-11-20_23h50.27.897,Info_measure_main_exp,2022.2.2,Win32,59.36127271,,,,,,,,,,,,,,,,,,masks/mask_005.jpg,,,,,,,,,,,,,,,,,,,,,,,,,,,,,,,,,,,,,,,,,,,0,0,0,4,1,,,,,,,,,,,,,,,,,,,,,,,,,,,,,,,,,,,,,,,,,,,,,,
613661,001,2022-11-20_23h50.27.897,Info_measure_main_exp,2022.2.2,Win32,59.36127271,,,,,,,,,,,,,,,,,,masks/mask_002.jpg,,,,,,,,,,,,,,,,,,,,,,,,,,,,,,,,,,,,,,,,,,,0,1,1,1,1,,,,,,,,,,,,,,,,,,,,,,,,,,,,,,,,,,,,,,,,,,,,,,
613661,001,2022-11-20_23h50.27.897,Info_measure_main_exp,2022.2.2,Win32,59.36127271,,,,,,,,,,,,,,,,,,masks/mask_004.jpg,,,,,,,,,,,,,,,,,,,,,,,,,,,,,,,,,,,,,,,,,,,0,2,2,3,1,,,,,,,,,,,,,,,,,,,,,,,,,,,,,,,,,,,,,,,,,,,,,,
613661,001,2022-11-20_23h50.27.897,Info_measure_main_exp,2022.2.2,Win32,59.36127271,,,,,,,,,,,,,,,,,,masks/mask_003.jpg,,,,,,,,,,,,,,,,,,,,,,,,,,,,,,,,,,,,,,,,,,,0,3,3,2,1,,,,,,,,,,,,,,,,,,,,,,,,,,,,,,,,,,,,,,,,,,,,,,
613661,001,2022-11-20_23h50.27.897,Info_measure_main_exp,2022.2.2,Win32,59.36127271,,,,,,,,,,,,,,,,,,masks/mask_001.jpg,,,,,,,,,,,,,,,,,,,,,,,,,,,,,,,,,,,,,,,,,,,0,4,4,0,1,,,,,,,,,,,,,,,,,,,,,,,,,,,,,,,,,,,,,,,,,,,,,,
613661,001,2022-11-20_23h50.27.897,Info_measure_main_exp,2022.2.2,Win32,59.36127271,,,,,,,,,,,,,,,,,,masks/mask_002.jpg,,,,,,,,,,,,,,,,,,,,,,,,,,,,,,,,,,,,,,,,,,,,,,,,0,0,0,1,1,,,,,,,,,,,,,,,,,,,,,,,,,,,,,,,,,,,,,,,,,
613661,001,2022-11-20_23h50.27.897,Info_measure_main_exp,2022.2.2,Win32,59.36127271,,,,,,,,,,,,,,,,,,masks/mask_005.jpg,,,,,,,,,,,,,,,,,,,,,,,,,,,,,,,,,,,,,,,,,,,,,,,,0,1,1,4,1,,,,,,,,,,,,,,,,,,,,,,,,,,,,,,,,,,,,,,,,,
613661,001,2022-11-20_23h50.27.897,Info_measure_main_exp,2022.2.2,Win32,59.36127271,,,,,,,,,,,,,,,,,,masks/mask_001.jpg,,,,,,,,,,,,,,,,,,,,,,,,,,,,,,,,,,,,,,,,,,,,,,,,0,2,2,0,1,,,,,,,,,,,,,,,,,,,,,,,,,,,,,,,,,,,,,,,,,
613661,001,2022-11-20_23h50.27.897,Info_measure_main_exp,2022.2.2,Win32,59.36127271,,,,,,,,,,,,,,,,,,masks/mask_004.jpg,,,,,,,,,,,,,,,,,,,,,,,,,,,,,,,,,,,,,,,,,,,,,,,,0,3,3,3,1,,,,,,,,,,,,,,,,,,,,,,,,,,,,,,,,,,,,,,,,,
613661,001,2022-11-20_23h50.27.897,Info_measure_main_exp,2022.2.2,Win32,59.36127271,,,,,,,,,,,,,,,,,,masks/mask_003.jpg,,,,,,,,,,,,,,,,,,,,,,,,,,,,,,,,,,,,,,,,,,,,,,,,0,4,4,2,1,,,,,,,,,,,,,,,,,,,,,,,,,,,,,,,,,,,,,,,,,
613661,001,2022-11-20_23h50.27.897,Info_measure_main_exp,2022.2.2,Win32,59.36127271,,,,,,,,,,,,,,,,,,,,,,,,,,,,,,7,1.0496,1,,,,,,,,,,,,0,131,5,5,2190,1986,absent_patch/patch0002190.jpg,absent_patch/patch0001986.jpg,,,,,,,,,,,,,,,,,,,,0.068518533,0.119444423,1,0,0,response1disk,4,-0.001851824,0.003703683,1,0,0,center_square,0,3,3,111,1,,,,,,,,,,,,,,,,,,,,,,,
613661,001,2022-11-20_23h50.27.897,Info_measure_main_exp,2022.2.2,Win32,59.36127271,,,,,,,,,,,,,,,,,,masks/mask_002.jpg,,,,,,,,,,,,,,,,,,,,,,,,,,,,,,,,,,,,,,,,,,,0,0,0,1,1,,,,,,,,,,,,,,,,,,,,,,,,,,,,,,,,,,,,,,,,,,,,,,
613661,001,2022-11-20_23h50.27.897,Info_measure_main_exp,2022.2.2,Win32,59.36127271,,,,,,,,,,,,,,,,,,masks/mask_005.jpg,,,,,,,,,,,,,,,,,,,,,,,,,,,,,,,,,,,,,,,,,,,0,1,1,4,1,,,,,,,,,,,,,,,,,,,,,,,,,,,,,,,,,,,,,,,,,,,,,,
613661,001,2022-11-20_23h50.27.897,Info_measure_main_exp,2022.2.2,Win32,59.36127271,,,,,,,,,,,,,,,,,,masks/mask_001.jpg,,,,,,,,,,,,,,,,,,,,,,,,,,,,,,,,,,,,,,,,,,,0,2,2,0,1,,,,,,,,,,,,,,,,,,,,,,,,,,,,,,,,,,,,,,,,,,,,,,
613661,001,2022-11-20_23h50.27.897,Info_measure_main_exp,2022.2.2,Win32,59.36127271,,,,,,,,,,,,,,,,,,masks/mask_003.jpg,,,,,,,,,,,,,,,,,,,,,,,,,,,,,,,,,,,,,,,,,,,0,3,3,2,1,,,,,,,,,,,,,,,,,,,,,,,,,,,,,,,,,,,,,,,,,,,,,,
613661,001,2022-11-20_23h50.27.897,Info_measure_main_exp,2022.2.2,Win32,59.36127271,,,,,,,,,,,,,,,,,,masks/mask_004.jpg,,,,,,,,,,,,,,,,,,,,,,,,,,,,,,,,,,,,,,,,,,,0,4,4,3,1,,,,,,,,,,,,,,,,,,,,,,,,,,,,,,,,,,,,,,,,,,,,,,
613661,001,2022-11-20_23h50.27.897,Info_measure_main_exp,2022.2.2,Win32,59.36127271,,,,,,,,,,,,,,,,,,masks/mask_004.jpg,,,,,,,,,,,,,,,,,,,,,,,,,,,,,,,,,,,,,,,,,,,,,,,,0,0,0,3,1,,,,,,,,,,,,,,,,,,,,,,,,,,,,,,,,,,,,,,,,,
613661,001,2022-11-20_23h50.27.897,Info_measure_main_exp,2022.2.2,Win32,59.36127271,,,,,,,,,,,,,,,,,,masks/mask_005.jpg,,,,,,,,,,,,,,,,,,,,,,,,,,,,,,,,,,,,,,,,,,,,,,,,0,1,1,4,1,,,,,,,,,,,,,,,,,,,,,,,,,,,,,,,,,,,,,,,,,
613661,001,2022-11-20_23h50.27.897,Info_measure_main_exp,2022.2.2,Win32,59.36127271,,,,,,,,,,,,,,,,,,masks/mask_001.jpg,,,,,,,,,,,,,,,,,,,,,,,,,,,,,,,,,,,,,,,,,,,,,,,,0,2,2,0,1,,,,,,,,,,,,,,,,,,,,,,,,,,,,,,,,,,,,,,,,,
613661,001,2022-11-20_23h50.27.897,Info_measure_main_exp,2022.2.2,Win32,59.36127271,,,,,,,,,,,,,,,,,,masks/mask_003.jpg,,,,,,,,,,,,,,,,,,,,,,,,,,,,,,,,,,,,,,,,,,,,,,,,0,3,3,2,1,,,,,,,,,,,,,,,,,,,,,,,,,,,,,,,,,,,,,,,,,
613661,001,2022-11-20_23h50.27.897,Info_measure_main_exp,2022.2.2,Win32,59.36127271,,,,,,,,,,,,,,,,,,masks/mask_002.jpg,,,,,,,,,,,,,,,,,,,,,,,,,,,,,,,,,,,,,,,,,,,,,,,,0,4,4,1,1,,,,,,,,,,,,,,,,,,,,,,,,,,,,,,,,,,,,,,,,,
613661,001,2022-11-20_23h50.27.897,Info_measure_main_exp,2022.2.2,Win32,59.36127271,,,,,,,,,,,,,,,,,,,,,,,,,,,,,,7,0.8827,1,,,,,,,,,,,,0,131,5,5,2190,2250,absent_patch/patch0002190.jpg,absent_patch/patch0002250.jpg,,,,,,,,,,,,,,,,,,,,0.083333333,0.128703683,1,0,0,response1disk,5,0.005555541,-0.00462963,1,0,0,center_square,0,4,4,93,1,,,,,,,,,,,,,,,,,,,,,,,
613661,001,2022-11-20_23h50.27.897,Info_measure_main_exp,2022.2.2,Win32,59.36127271,,,,,,,,,,,,,,,,,,masks/mask_002.jpg,,,,,,,,,,,,,,,,,,,,,,,,,,,,,,,,,,,,,,,,,,,0,0,0,1,1,,,,,,,,,,,,,,,,,,,,,,,,,,,,,,,,,,,,,,,,,,,,,,
613661,001,2022-11-20_23h50.27.897,Info_measure_main_exp,2022.2.2,Win32,59.36127271,,,,,,,,,,,,,,,,,,masks/mask_004.jpg,,,,,,,,,,,,,,,,,,,,,,,,,,,,,,,,,,,,,,,,,,,0,1,1,3,1,,,,,,,,,,,,,,,,,,,,,,,,,,,,,,,,,,,,,,,,,,,,,,
613661,001,2022-11-20_23h50.27.897,Info_measure_main_exp,2022.2.2,Win32,59.36127271,,,,,,,,,,,,,,,,,,masks/mask_005.jpg,,,,,,,,,,,,,,,,,,,,,,,,,,,,,,,,,,,,,,,,,,,0,2,2,4,1,,,,,,,,,,,,,,,,,,,,,,,,,,,,,,,,,,,,,,,,,,,,,,
613661,001,2022-11-20_23h50.27.897,Info_measure_main_exp,2022.2.2,Win32,59.36127271,,,,,,,,,,,,,,,,,,masks/mask_001.jpg,,,,,,,,,,,,,,,,,,,,,,,,,,,,,,,,,,,,,,,,,,,0,3,3,0,1,,,,,,,,,,,,,,,,,,,,,,,,,,,,,,,,,,,,,,,,,,,,,,
613661,001,2022-11-20_23h50.27.897,Info_measure_main_exp,2022.2.2,Win32,59.36127271,,,,,,,,,,,,,,,,,,masks/mask_003.jpg,,,,,,,,,,,,,,,,,,,,,,,,,,,,,,,,,,,,,,,,,,,0,4,4,2,1,,,,,,,,,,,,,,,,,,,,,,,,,,,,,,,,,,,,,,,,,,,,,,
613661,001,2022-11-20_23h50.27.897,Info_measure_main_exp,2022.2.2,Win32,59.36127271,,,,,,,,,,,,,,,,,,masks/mask_003.jpg,,,,,,,,,,,,,,,,,,,,,,,,,,,,,,,,,,,,,,,,,,,,,,,,0,0,0,2,1,,,,,,,,,,,,,,,,,,,,,,,,,,,,,,,,,,,,,,,,,
613661,001,2022-11-20_23h50.27.897,Info_measure_main_exp,2022.2.2,Win32,59.36127271,,,,,,,,,,,,,,,,,,masks/mask_005.jpg,,,,,,,,,,,,,,,,,,,,,,,,,,,,,,,,,,,,,,,,,,,,,,,,0,1,1,4,1,,,,,,,,,,,,,,,,,,,,,,,,,,,,,,,,,,,,,,,,,
613661,001,2022-11-20_23h50.27.897,Info_measure_main_exp,2022.2.2,Win32,59.36127271,,,,,,,,,,,,,,,,,,masks/mask_001.jpg,,,,,,,,,,,,,,,,,,,,,,,,,,,,,,,,,,,,,,,,,,,,,,,,0,2,2,0,1,,,,,,,,,,,,,,,,,,,,,,,,,,,,,,,,,,,,,,,,,
613661,001,2022-11-20_23h50.27.897,Info_measure_main_exp,2022.2.2,Win32,59.36127271,,,,,,,,,,,,,,,,,,masks/mask_004.jpg,,,,,,,,,,,,,,,,,,,,,,,,,,,,,,,,,,,,,,,,,,,,,,,,0,3,3,3,1,,,,,,,,,,,,,,,,,,,,,,,,,,,,,,,,,,,,,,,,,
613661,001,2022-11-20_23h50.27.897,Info_measure_main_exp,2022.2.2,Win32,59.36127271,,,,,,,,,,,,,,,,,,masks/mask_002.jpg,,,,,,,,,,,,,,,,,,,,,,,,,,,,,,,,,,,,,,,,,,,,,,,,0,4,4,1,1,,,,,,,,,,,,,,,,,,,,,,,,,,,,,,,,,,,,,,,,,
613661,001,2022-11-20_23h50.27.897,Info_measure_main_exp,2022.2.2,Win32,59.36127271,,,,,,,,,,,,,,,,,,,,,,,,,,,,,,7,0.7158,1,,,,,,,,,,,,1,131,5,5,1,2274,present_patch/cong_131_5_a.jpg,absent_patch/patch0002274.jpg,,,,,,,,,,,,,,,,,,,,0.053703732,0.12037037,1,0,0,response1disk,6,0.003703718,0.003703683,1,0,0,center_square,0,5,5,105,1,,,,,,,,,,,,,,,,,,,,,,,
613661,001,2022-11-20_23h50.27.897,Info_measure_main_exp,2022.2.2,Win32,59.36127271,,,,,,,,,,,,,,,,,,masks/mask_004.jpg,,,,,,,,,,,,,,,,,,,,,,,,,,,,,,,,,,,,,,,,,,,0,0,0,3,1,,,,,,,,,,,,,,,,,,,,,,,,,,,,,,,,,,,,,,,,,,,,,,
613661,001,2022-11-20_23h50.27.897,Info_measure_main_exp,2022.2.2,Win32,59.36127271,,,,,,,,,,,,,,,,,,masks/mask_005.jpg,,,,,,,,,,,,,,,,,,,,,,,,,,,,,,,,,,,,,,,,,,,0,1,1,4,1,,,,,,,,,,,,,,,,,,,,,,,,,,,,,,,,,,,,,,,,,,,,,,
613661,001,2022-11-20_23h50.27.897,Info_measure_main_exp,2022.2.2,Win32,59.36127271,,,,,,,,,,,,,,,,,,masks/mask_001.jpg,,,,,,,,,,,,,,,,,,,,,,,,,,,,,,,,,,,,,,,,,,,0,2,2,0,1,,,,,,,,,,,,,,,,,,,,,,,,,,,,,,,,,,,,,,,,,,,,,,
613661,001,2022-11-20_23h50.27.897,Info_measure_main_exp,2022.2.2,Win32,59.36127271,,,,,,,,,,,,,,,,,,masks/mask_003.jpg,,,,,,,,,,,,,,,,,,,,,,,,,,,,,,,,,,,,,,,,,,,0,3,3,2,1,,,,,,,,,,,,,,,,,,,,,,,,,,,,,,,,,,,,,,,,,,,,,,
613661,001,2022-11-20_23h50.27.897,Info_measure_main_exp,2022.2.2,Win32,59.36127271,,,,,,,,,,,,,,,,,,masks/mask_002.jpg,,,,,,,,,,,,,,,,,,,,,,,,,,,,,,,,,,,,,,,,,,,0,4,4,1,1,,,,,,,,,,,,,,,,,,,,,,,,,,,,,,,,,,,,,,,,,,,,,,
613661,001,2022-11-20_23h50.27.897,Info_measure_main_exp,2022.2.2,Win32,59.36127271,,,,,,,,,,,,,,,,,,masks/mask_005.jpg,,,,,,,,,,,,,,,,,,,,,,,,,,,,,,,,,,,,,,,,,,,,,,,,0,0,0,4,1,,,,,,,,,,,,,,,,,,,,,,,,,,,,,,,,,,,,,,,,,
613661,001,2022-11-20_23h50.27.897,Info_measure_main_exp,2022.2.2,Win32,59.36127271,,,,,,,,,,,,,,,,,,masks/mask_001.jpg,,,,,,,,,,,,,,,,,,,,,,,,,,,,,,,,,,,,,,,,,,,,,,,,0,1,1,0,1,,,,,,,,,,,,,,,,,,,,,,,,,,,,,,,,,,,,,,,,,
613661,001,2022-11-20_23h50.27.897,Info_measure_main_exp,2022.2.2,Win32,59.36127271,,,,,,,,,,,,,,,,,,masks/mask_004.jpg,,,,,,,,,,,,,,,,,,,,,,,,,,,,,,,,,,,,,,,,,,,,,,,,0,2,2,3,1,,,,,,,,,,,,,,,,,,,,,,,,,,,,,,,,,,,,,,,,,
613661,001,2022-11-20_23h50.27.897,Info_measure_main_exp,2022.2.2,Win32,59.36127271,,,,,,,,,,,,,,,,,,masks/mask_003.jpg,,,,,,,,,,,,,,,,,,,,,,,,,,,,,,,,,,,,,,,,,,,,,,,,0,3,3,2,1,,,,,,,,,,,,,,,,,,,,,,,,,,,,,,,,,,,,,,,,,
613661,001,2022-11-20_23h50.27.897,Info_measure_main_exp,2022.2.2,Win32,59.36127271,,,,,,,,,,,,,,,,,,masks/mask_002.jpg,,,,,,,,,,,,,,,,,,,,,,,,,,,,,,,,,,,,,,,,,,,,,,,,0,4,4,1,1,,,,,,,,,,,,,,,,,,,,,,,,,,,,,,,,,,,,,,,,,
613661,001,2022-11-20_23h50.27.897,Info_measure_main_exp,2022.2.2,Win32,59.36127271,,,,,,,,,,,,,,,,,,,,,,,,,,,,,,6,1.0659,1,,,,,,,,,,,,0,131,5,5,2250,1950,absent_patch/patch0002250.jpg,absent_patch/patch0001950.jpg,,,,,,,,,,,,,,,,,,,,0.137037065,0.01944443,1,0,0,response1disk,7,-0.005555541,-0.002777771,1,0,0,center_square,0,6,6,16,1,,,,,,,,,,,,,,,,,,,,,,,
613661,001,2022-11-20_23h50.27.897,Info_measure_main_exp,2022.2.2,Win32,59.36127271,,,,,,,,,,,,,,,,,,masks/mask_001.jpg,,,,,,,,,,,,,,,,,,,,,,,,,,,,,,,,,,,,,,,,,,,0,0,0,0,1,,,,,,,,,,,,,,,,,,,,,,,,,,,,,,,,,,,,,,,,,,,,,,
613661,001,2022-11-20_23h50.27.897,Info_measure_main_exp,2022.2.2,Win32,59.36127271,,,,,,,,,,,,,,,,,,masks/mask_002.jpg,,,,,,,,,,,,,,,,,,,,,,,,,,,,,,,,,,,,,,,,,,,0,1,1,1,1,,,,,,,,,,,,,,,,,,,,,,,,,,,,,,,,,,,,,,,,,,,,,,
613661,001,2022-11-20_23h50.27.897,Info_measure_main_exp,2022.2.2,Win32,59.36127271,,,,,,,,,,,,,,,,,,masks/mask_003.jpg,,,,,,,,,,,,,,,,,,,,,,,,,,,,,,,,,,,,,,,,,,,0,2,2,2,1,,,,,,,,,,,,,,,,,,,,,,,,,,,,,,,,,,,,,,,,,,,,,,
613661,001,2022-11-20_23h50.27.897,Info_measure_main_exp,2022.2.2,Win32,59.36127271,,,,,,,,,,,,,,,,,,masks/mask_005.jpg,,,,,,,,,,,,,,,,,,,,,,,,,,,,,,,,,,,,,,,,,,,0,3,3,4,1,,,,,,,,,,,,,,,,,,,,,,,,,,,,,,,,,,,,,,,,,,,,,,
613661,001,2022-11-20_23h50.27.897,Info_measure_main_exp,2022.2.2,Win32,59.36127271,,,,,,,,,,,,,,,,,,masks/mask_004.jpg,,,,,,,,,,,,,,,,,,,,,,,,,,,,,,,,,,,,,,,,,,,0,4,4,3,1,,,,,,,,,,,,,,,,,,,,,,,,,,,,,,,,,,,,,,,,,,,,,,
613661,001,2022-11-20_23h50.27.897,Info_measure_main_exp,2022.2.2,Win32,59.36127271,,,,,,,,,,,,,,,,,,masks/mask_004.jpg,,,,,,,,,,,,,,,,,,,,,,,,,,,,,,,,,,,,,,,,,,,,,,,,0,0,0,3,1,,,,,,,,,,,,,,,,,,,,,,,,,,,,,,,,,,,,,,,,,
613661,001,2022-11-20_23h50.27.897,Info_measure_main_exp,2022.2.2,Win32,59.36127271,,,,,,,,,,,,,,,,,,masks/mask_003.jpg,,,,,,,,,,,,,,,,,,,,,,,,,,,,,,,,,,,,,,,,,,,,,,,,0,1,1,2,1,,,,,,,,,,,,,,,,,,,,,,,,,,,,,,,,,,,,,,,,,
613661,001,2022-11-20_23h50.27.897,Info_measure_main_exp,2022.2.2,Win32,59.36127271,,,,,,,,,,,,,,,,,,masks/mask_005.jpg,,,,,,,,,,,,,,,,,,,,,,,,,,,,,,,,,,,,,,,,,,,,,,,,0,2,2,4,1,,,,,,,,,,,,,,,,,,,,,,,,,,,,,,,,,,,,,,,,,
613661,001,2022-11-20_23h50.27.897,Info_measure_main_exp,2022.2.2,Win32,59.36127271,,,,,,,,,,,,,,,,,,masks/mask_002.jpg,,,,,,,,,,,,,,,,,,,,,,,,,,,,,,,,,,,,,,,,,,,,,,,,0,3,3,1,1,,,,,,,,,,,,,,,,,,,,,,,,,,,,,,,,,,,,,,,,,
613661,001,2022-11-20_23h50.27.897,Info_measure_main_exp,2022.2.2,Win32,59.36127271,,,,,,,,,,,,,,,,,,masks/mask_001.jpg,,,,,,,,,,,,,,,,,,,,,,,,,,,,,,,,,,,,,,,,,,,,,,,,0,4,4,0,1,,,,,,,,,,,,,,,,,,,,,,,,,,,,,,,,,,,,,,,,,
613661,001,2022-11-20_23h50.27.897,Info_measure_main_exp,2022.2.2,Win32,59.36127271,,,,,,,,,,,,,,,,,,,,,,,,,,,,,,6,0.7827,1,,,,,,,,,,,,0,131,5,5,2190,2166,absent_patch/patch0002190.jpg,absent_patch/patch0002166.jpg,,,,,,,,,,,,,,,,,,,,0.131481524,0.051851838,1,0,0,response1disk,8,-0.010185171,0.000925912,1,0,0,center_square,0,7,7,50,1,,,,,,,,,,,,,,,,,,,,,,,
613661,001,2022-11-20_23h50.27.897,Info_measure_main_exp,2022.2.2,Win32,59.36127271,,,,,,,,,,,,,,,,,,masks/mask_005.jpg,,,,,,,,,,,,,,,,,,,,,,,,,,,,,,,,,,,,,,,,,,,0,0,0,4,1,,,,,,,,,,,,,,,,,,,,,,,,,,,,,,,,,,,,,,,,,,,,,,
613661,001,2022-11-20_23h50.27.897,Info_measure_main_exp,2022.2.2,Win32,59.36127271,,,,,,,,,,,,,,,,,,masks/mask_003.jpg,,,,,,,,,,,,,,,,,,,,,,,,,,,,,,,,,,,,,,,,,,,0,1,1,2,1,,,,,,,,,,,,,,,,,,,,,,,,,,,,,,,,,,,,,,,,,,,,,,
613661,001,2022-11-20_23h50.27.897,Info_measure_main_exp,2022.2.2,Win32,59.36127271,,,,,,,,,,,,,,,,,,masks/mask_004.jpg,,,,,,,,,,,,,,,,,,,,,,,,,,,,,,,,,,,,,,,,,,,0,2,2,3,1,,,,,,,,,,,,,,,,,,,,,,,,,,,,,,,,,,,,,,,,,,,,,,
613661,001,2022-11-20_23h50.27.897,Info_measure_main_exp,2022.2.2,Win32,59.36127271,,,,,,,,,,,,,,,,,,masks/mask_001.jpg,,,,,,,,,,,,,,,,,,,,,,,,,,,,,,,,,,,,,,,,,,,0,3,3,0,1,,,,,,,,,,,,,,,,,,,,,,,,,,,,,,,,,,,,,,,,,,,,,,
613661,001,2022-11-20_23h50.27.897,Info_measure_main_exp,2022.2.2,Win32,59.36127271,,,,,,,,,,,,,,,,,,masks/mask_002.jpg,,,,,,,,,,,,,,,,,,,,,,,,,,,,,,,,,,,,,,,,,,,0,4,4,1,1,,,,,,,,,,,,,,,,,,,,,,,,,,,,,,,,,,,,,,,,,,,,,,
613661,001,2022-11-20_23h50.27.897,Info_measure_main_exp,2022.2.2,Win32,59.36127271,,,,,,,,,,,,,,,,,,masks/mask_001.jpg,,,,,,,,,,,,,,,,,,,,,,,,,,,,,,,,,,,,,,,,,,,,,,,,0,0,0,0,1,,,,,,,,,,,,,,,,,,,,,,,,,,,,,,,,,,,,,,,,,
613661,001,2022-11-20_23h50.27.897,Info_measure_main_exp,2022.2.2,Win32,59.36127271,,,,,,,,,,,,,,,,,,masks/mask_004.jpg,,,,,,,,,,,,,,,,,,,,,,,,,,,,,,,,,,,,,,,,,,,,,,,,0,1,1,3,1,,,,,,,,,,,,,,,,,,,,,,,,,,,,,,,,,,,,,,,,,
613661,001,2022-11-20_23h50.27.897,Info_measure_main_exp,2022.2.2,Win32,59.36127271,,,,,,,,,,,,,,,,,,masks/mask_002.jpg,,,,,,,,,,,,,,,,,,,,,,,,,,,,,,,,,,,,,,,,,,,,,,,,0,2,2,1,1,,,,,,,,,,,,,,,,,,,,,,,,,,,,,,,,,,,,,,,,,
613661,001,2022-11-20_23h50.27.897,Info_measure_main_exp,2022.2.2,Win32,59.36127271,,,,,,,,,,,,,,,,,,masks/mask_003.jpg,,,,,,,,,,,,,,,,,,,,,,,,,,,,,,,,,,,,,,,,,,,,,,,,0,3,3,2,1,,,,,,,,,,,,,,,,,,,,,,,,,,,,,,,,,,,,,,,,,
613661,001,2022-11-20_23h50.27.897,Info_measure_main_exp,2022.2.2,Win32,59.36127271,,,,,,,,,,,,,,,,,,masks/mask_005.jpg,,,,,,,,,,,,,,,,,,,,,,,,,,,,,,,,,,,,,,,,,,,,,,,,0,4,4,4,1,,,,,,,,,,,,,,,,,,,,,,,,,,,,,,,,,,,,,,,,,
613661,001,2022-11-20_23h50.27.897,Info_measure_main_exp,2022.2.2,Win32,59.36127271,,,,,,,,,,,,,,,,,,,,,,,,,,,,,,6,0.6993,1,,,,,,,,,,,,0,131,5,5,2274,2190,absent_patch/patch0002274.jpg,absent_patch/patch0002190.jpg,,,,,,,,,,,,,,,,,,,,0.142592607,0.037962949,1,0,0,response1disk,9,0.007407436,-0.000925947,1,0,0,center_square,0,8,8,116,1,,,,,,,,,,,,,,,,,,,,,,,
613661,001,2022-11-20_23h50.27.897,Info_measure_main_exp,2022.2.2,Win32,59.36127271,,,,,,,,,,,,,,,,,,masks/mask_005.jpg,,,,,,,,,,,,,,,,,,,,,,,,,,,,,,,,,,,,,,,,,,,0,0,0,4,1,,,,,,,,,,,,,,,,,,,,,,,,,,,,,,,,,,,,,,,,,,,,,,
613661,001,2022-11-20_23h50.27.897,Info_measure_main_exp,2022.2.2,Win32,59.36127271,,,,,,,,,,,,,,,,,,masks/mask_001.jpg,,,,,,,,,,,,,,,,,,,,,,,,,,,,,,,,,,,,,,,,,,,0,1,1,0,1,,,,,,,,,,,,,,,,,,,,,,,,,,,,,,,,,,,,,,,,,,,,,,
613661,001,2022-11-20_23h50.27.897,Info_measure_main_exp,2022.2.2,Win32,59.36127271,,,,,,,,,,,,,,,,,,masks/mask_003.jpg,,,,,,,,,,,,,,,,,,,,,,,,,,,,,,,,,,,,,,,,,,,0,2,2,2,1,,,,,,,,,,,,,,,,,,,,,,,,,,,,,,,,,,,,,,,,,,,,,,
613661,001,2022-11-20_23h50.27.897,Info_measure_main_exp,2022.2.2,Win32,59.36127271,,,,,,,,,,,,,,,,,,masks/mask_004.jpg,,,,,,,,,,,,,,,,,,,,,,,,,,,,,,,,,,,,,,,,,,,0,3,3,3,1,,,,,,,,,,,,,,,,,,,,,,,,,,,,,,,,,,,,,,,,,,,,,,
613661,001,2022-11-20_23h50.27.897,Info_measure_main_exp,2022.2.2,Win32,59.36127271,,,,,,,,,,,,,,,,,,masks/mask_002.jpg,,,,,,,,,,,,,,,,,,,,,,,,,,,,,,,,,,,,,,,,,,,0,4,4,1,1,,,,,,,,,,,,,,,,,,,,,,,,,,,,,,,,,,,,,,,,,,,,,,
613661,001,2022-11-20_23h50.27.897,Info_measure_main_exp,2022.2.2,Win32,59.36127271,,,,,,,,,,,,,,,,,,masks/mask_001.jpg,,,,,,,,,,,,,,,,,,,,,,,,,,,,,,,,,,,,,,,,,,,,,,,,0,0,0,0,1,,,,,,,,,,,,,,,,,,,,,,,,,,,,,,,,,,,,,,,,,
613661,001,2022-11-20_23h50.27.897,Info_measure_main_exp,2022.2.2,Win32,59.36127271,,,,,,,,,,,,,,,,,,masks/mask_005.jpg,,,,,,,,,,,,,,,,,,,,,,,,,,,,,,,,,,,,,,,,,,,,,,,,0,1,1,4,1,,,,,,,,,,,,,,,,,,,,,,,,,,,,,,,,,,,,,,,,,
613661,001,2022-11-20_23h50.27.897,Info_measure_main_exp,2022.2.2,Win32,59.36127271,,,,,,,,,,,,,,,,,,masks/mask_003.jpg,,,,,,,,,,,,,,,,,,,,,,,,,,,,,,,,,,,,,,,,,,,,,,,,0,2,2,2,1,,,,,,,,,,,,,,,,,,,,,,,,,,,,,,,,,,,,,,,,,
613661,001,2022-11-20_23h50.27.897,Info_measure_main_exp,2022.2.2,Win32,59.36127271,,,,,,,,,,,,,,,,,,masks/mask_002.jpg,,,,,,,,,,,,,,,,,,,,,,,,,,,,,,,,,,,,,,,,,,,,,,,,0,3,3,1,1,,,,,,,,,,,,,,,,,,,,,,,,,,,,,,,,,,,,,,,,,
613661,001,2022-11-20_23h50.27.897,Info_measure_main_exp,2022.2.2,Win32,59.36127271,,,,,,,,,,,,,,,,,,masks/mask_004.jpg,,,,,,,,,,,,,,,,,,,,,,,,,,,,,,,,,,,,,,,,,,,,,,,,0,4,4,3,1,,,,,,,,,,,,,,,,,,,,,,,,,,,,,,,,,,,,,,,,,
613661,001,2022-11-20_23h50.27.897,Info_measure_main_exp,2022.2.2,Win32,59.36127271,,,,,,,,,,,,,,,,,,,,,,,,,,,,,,4,0.7497,1,,,,,,,,,,,,0,131,5,5,1950,2298,absent_patch/patch0001950.jpg,absent_patch/patch0002298.jpg,,,,,,,,,,,,,,,,,,,,0.017592607,-0.147222236,1,0,0,response3disk,10,0,-0.000925947,1,0,0,center_square,0,9,9,18,1,,,,,,,,,,,,,,,,,,,,,,,
613661,001,2022-11-20_23h50.27.897,Info_measure_main_exp,2022.2.2,Win32,59.36127271,,,,,,,,,,,,,,,,,,masks/mask_001.jpg,,,,,,,,,,,,,,,,,,,,,,,,,,,,,,,,,,,,,,,,,,,0,0,0,0,1,,,,,,,,,,,,,,,,,,,,,,,,,,,,,,,,,,,,,,,,,,,,,,
613661,001,2022-11-20_23h50.27.897,Info_measure_main_exp,2022.2.2,Win32,59.36127271,,,,,,,,,,,,,,,,,,masks/mask_002.jpg,,,,,,,,,,,,,,,,,,,,,,,,,,,,,,,,,,,,,,,,,,,0,1,1,1,1,,,,,,,,,,,,,,,,,,,,,,,,,,,,,,,,,,,,,,,,,,,,,,
613661,001,2022-11-20_23h50.27.897,Info_measure_main_exp,2022.2.2,Win32,59.36127271,,,,,,,,,,,,,,,,,,masks/mask_003.jpg,,,,,,,,,,,,,,,,,,,,,,,,,,,,,,,,,,,,,,,,,,,0,2,2,2,1,,,,,,,,,,,,,,,,,,,,,,,,,,,,,,,,,,,,,,,,,,,,,,
613661,001,2022-11-20_23h50.27.897,Info_measure_main_exp,2022.2.2,Win32,59.36127271,,,,,,,,,,,,,,,,,,masks/mask_004.jpg,,,,,,,,,,,,,,,,,,,,,,,,,,,,,,,,,,,,,,,,,,,0,3,3,3,1,,,,,,,,,,,,,,,,,,,,,,,,,,,,,,,,,,,,,,,,,,,,,,
613661,001,2022-11-20_23h50.27.897,Info_measure_main_exp,2022.2.2,Win32,59.36127271,,,,,,,,,,,,,,,,,,masks/mask_005.jpg,,,,,,,,,,,,,,,,,,,,,,,,,,,,,,,,,,,,,,,,,,,0,4,4,4,1,,,,,,,,,,,,,,,,,,,,,,,,,,,,,,,,,,,,,,,,,,,,,,
613661,001,2022-11-20_23h50.27.897,Info_measure_main_exp,2022.2.2,Win32,59.36127271,,,,,,,,,,,,,,,,,,masks/mask_002.jpg,,,,,,,,,,,,,,,,,,,,,,,,,,,,,,,,,,,,,,,,,,,,,,,,0,0,0,1,1,,,,,,,,,,,,,,,,,,,,,,,,,,,,,,,,,,,,,,,,,
613661,001,2022-11-20_23h50.27.897,Info_measure_main_exp,2022.2.2,Win32,59.36127271,,,,,,,,,,,,,,,,,,masks/mask_001.jpg,,,,,,,,,,,,,,,,,,,,,,,,,,,,,,,,,,,,,,,,,,,,,,,,0,1,1,0,1,,,,,,,,,,,,,,,,,,,,,,,,,,,,,,,,,,,,,,,,,
613661,001,2022-11-20_23h50.27.897,Info_measure_main_exp,2022.2.2,Win32,59.36127271,,,,,,,,,,,,,,,,,,masks/mask_003.jpg,,,,,,,,,,,,,,,,,,,,,,,,,,,,,,,,,,,,,,,,,,,,,,,,0,2,2,2,1,,,,,,,,,,,,,,,,,,,,,,,,,,,,,,,,,,,,,,,,,
613661,001,2022-11-20_23h50.27.897,Info_measure_main_exp,2022.2.2,Win32,59.36127271,,,,,,,,,,,,,,,,,,masks/mask_005.jpg,,,,,,,,,,,,,,,,,,,,,,,,,,,,,,,,,,,,,,,,,,,,,,,,0,3,3,4,1,,,,,,,,,,,,,,,,,,,,,,,,,,,,,,,,,,,,,,,,,
613661,001,2022-11-20_23h50.27.897,Info_measure_main_exp,2022.2.2,Win32,59.36127271,,,,,,,,,,,,,,,,,,masks/mask_004.jpg,,,,,,,,,,,,,,,,,,,,,,,,,,,,,,,,,,,,,,,,,,,,,,,,0,4,4,3,1,,,,,,,,,,,,,,,,,,,,,,,,,,,,,,,,,,,,,,,,,
613661,001,2022-11-20_23h50.27.897,Info_measure_main_exp,2022.2.2,Win32,59.36127271,,,,,,,,,,,,,,,,,,,,,,,,,,,,,,0,0.6162,1,,,,,,,,,,,,0,131,5,5,1974,1974,absent_patch/patch0001974.jpg,absent_patch/patch0001974.jpg,,,,,,,,,,,,,,,,,,,,-0.050925926,0.112037023,1,0,0,response7disk,11,0.002777806,-0.00462963,1,0,0,center_square,0,10,10,113,1,,,,,,,,,,,,,,,,,,,,,,,
613661,001,2022-11-20_23h50.27.897,Info_measure_main_exp,2022.2.2,Win32,59.36127271,,,,,,,,,,,,,,,,,,masks/mask_001.jpg,,,,,,,,,,,,,,,,,,,,,,,,,,,,,,,,,,,,,,,,,,,0,0,0,0,1,,,,,,,,,,,,,,,,,,,,,,,,,,,,,,,,,,,,,,,,,,,,,,
613661,001,2022-11-20_23h50.27.897,Info_measure_main_exp,2022.2.2,Win32,59.36127271,,,,,,,,,,,,,,,,,,masks/mask_005.jpg,,,,,,,,,,,,,,,,,,,,,,,,,,,,,,,,,,,,,,,,,,,0,1,1,4,1,,,,,,,,,,,,,,,,,,,,,,,,,,,,,,,,,,,,,,,,,,,,,,
613661,001,2022-11-20_23h50.27.897,Info_measure_main_exp,2022.2.2,Win32,59.36127271,,,,,,,,,,,,,,,,,,masks/mask_002.jpg,,,,,,,,,,,,,,,,,,,,,,,,,,,,,,,,,,,,,,,,,,,0,2,2,1,1,,,,,,,,,,,,,,,,,,,,,,,,,,,,,,,,,,,,,,,,,,,,,,
613661,001,2022-11-20_23h50.27.897,Info_measure_main_exp,2022.2.2,Win32,59.36127271,,,,,,,,,,,,,,,,,,masks/mask_003.jpg,,,,,,,,,,,,,,,,,,,,,,,,,,,,,,,,,,,,,,,,,,,0,3,3,2,1,,,,,,,,,,,,,,,,,,,,,,,,,,,,,,,,,,,,,,,,,,,,,,
613661,001,2022-11-20_23h50.27.897,Info_measure_main_exp,2022.2.2,Win32,59.36127271,,,,,,,,,,,,,,,,,,masks/mask_004.jpg,,,,,,,,,,,,,,,,,,,,,,,,,,,,,,,,,,,,,,,,,,,0,4,4,3,1,,,,,,,,,,,,,,,,,,,,,,,,,,,,,,,,,,,,,,,,,,,,,,
613661,001,2022-11-20_23h50.27.897,Info_measure_main_exp,2022.2.2,Win32,59.36127271,,,,,,,,,,,,,,,,,,masks/mask_003.jpg,,,,,,,,,,,,,,,,,,,,,,,,,,,,,,,,,,,,,,,,,,,,,,,,0,0,0,2,1,,,,,,,,,,,,,,,,,,,,,,,,,,,,,,,,,,,,,,,,,
613661,001,2022-11-20_23h50.27.897,Info_measure_main_exp,2022.2.2,Win32,59.36127271,,,,,,,,,,,,,,,,,,masks/mask_001.jpg,,,,,,,,,,,,,,,,,,,,,,,,,,,,,,,,,,,,,,,,,,,,,,,,0,1,1,0,1,,,,,,,,,,,,,,,,,,,,,,,,,,,,,,,,,,,,,,,,,
613661,001,2022-11-20_23h50.27.897,Info_measure_main_exp,2022.2.2,Win32,59.36127271,,,,,,,,,,,,,,,,,,masks/mask_002.jpg,,,,,,,,,,,,,,,,,,,,,,,,,,,,,,,,,,,,,,,,,,,,,,,,0,2,2,1,1,,,,,,,,,,,,,,,,,,,,,,,,,,,,,,,,,,,,,,,,,
613661,001,2022-11-20_23h50.27.897,Info_measure_main_exp,2022.2.2,Win32,59.36127271,,,,,,,,,,,,,,,,,,masks/mask_005.jpg,,,,,,,,,,,,,,,,,,,,,,,,,,,,,,,,,,,,,,,,,,,,,,,,0,3,3,4,1,,,,,,,,,,,,,,,,,,,,,,,,,,,,,,,,,,,,,,,,,
613661,001,2022-11-20_23h50.27.897,Info_measure_main_exp,2022.2.2,Win32,59.36127271,,,,,,,,,,,,,,,,,,masks/mask_004.jpg,,,,,,,,,,,,,,,,,,,,,,,,,,,,,,,,,,,,,,,,,,,,,,,,0,4,4,3,1,,,,,,,,,,,,,,,,,,,,,,,,,,,,,,,,,,,,,,,,,
613661,001,2022-11-20_23h50.27.897,Info_measure_main_exp,2022.2.2,Win32,59.36127271,,,,,,,,,,,,,,,,,,,,,,,,,,,,,,6,0.9993,1,,,,,,,,,,,,0,131,5,5,2250,2298,absent_patch/patch0002250.jpg,absent_patch/patch0002298.jpg,,,,,,,,,,,,,,,,,,,,0.127777806,0.052777785,1,0,0,response1disk,12,0.007407436,0.002777771,1,0,0,center_square,0,11,11,59,1,,,,,,,,,,,,,,,,,,,,,,,
613661,001,2022-11-20_23h50.27.897,Info_measure_main_exp,2022.2.2,Win32,59.36127271,,,,,,,,,,,,,,,,,,masks/mask_003.jpg,,,,,,,,,,,,,,,,,,,,,,,,,,,,,,,,,,,,,,,,,,,0,0,0,2,1,,,,,,,,,,,,,,,,,,,,,,,,,,,,,,,,,,,,,,,,,,,,,,
613661,001,2022-11-20_23h50.27.897,Info_measure_main_exp,2022.2.2,Win32,59.36127271,,,,,,,,,,,,,,,,,,masks/mask_001.jpg,,,,,,,,,,,,,,,,,,,,,,,,,,,,,,,,,,,,,,,,,,,0,1,1,0,1,,,,,,,,,,,,,,,,,,,,,,,,,,,,,,,,,,,,,,,,,,,,,,
613661,001,2022-11-20_23h50.27.897,Info_measure_main_exp,2022.2.2,Win32,59.36127271,,,,,,,,,,,,,,,,,,masks/mask_005.jpg,,,,,,,,,,,,,,,,,,,,,,,,,,,,,,,,,,,,,,,,,,,0,2,2,4,1,,,,,,,,,,,,,,,,,,,,,,,,,,,,,,,,,,,,,,,,,,,,,,
613661,001,2022-11-20_23h50.27.897,Info_measure_main_exp,2022.2.2,Win32,59.36127271,,,,,,,,,,,,,,,,,,masks/mask_002.jpg,,,,,,,,,,,,,,,,,,,,,,,,,,,,,,,,,,,,,,,,,,,0,3,3,1,1,,,,,,,,,,,,,,,,,,,,,,,,,,,,,,,,,,,,,,,,,,,,,,
613661,001,2022-11-20_23h50.27.897,Info_measure_main_exp,2022.2.2,Win32,59.36127271,,,,,,,,,,,,,,,,,,masks/mask_004.jpg,,,,,,,,,,,,,,,,,,,,,,,,,,,,,,,,,,,,,,,,,,,0,4,4,3,1,,,,,,,,,,,,,,,,,,,,,,,,,,,,,,,,,,,,,,,,,,,,,,
613661,001,2022-11-20_23h50.27.897,Info_measure_main_exp,2022.2.2,Win32,59.36127271,,,,,,,,,,,,,,,,,,masks/mask_001.jpg,,,,,,,,,,,,,,,,,,,,,,,,,,,,,,,,,,,,,,,,,,,,,,,,0,0,0,0,1,,,,,,,,,,,,,,,,,,,,,,,,,,,,,,,,,,,,,,,,,
613661,001,2022-11-20_23h50.27.897,Info_measure_main_exp,2022.2.2,Win32,59.36127271,,,,,,,,,,,,,,,,,,masks/mask_005.jpg,,,,,,,,,,,,,,,,,,,,,,,,,,,,,,,,,,,,,,,,,,,,,,,,0,1,1,4,1,,,,,,,,,,,,,,,,,,,,,,,,,,,,,,,,,,,,,,,,,
613661,001,2022-11-20_23h50.27.897,Info_measure_main_exp,2022.2.2,Win32,59.36127271,,,,,,,,,,,,,,,,,,masks/mask_004.jpg,,,,,,,,,,,,,,,,,,,,,,,,,,,,,,,,,,,,,,,,,,,,,,,,0,2,2,3,1,,,,,,,,,,,,,,,,,,,,,,,,,,,,,,,,,,,,,,,,,
613661,001,2022-11-20_23h50.27.897,Info_measure_main_exp,2022.2.2,Win32,59.36127271,,,,,,,,,,,,,,,,,,masks/mask_003.jpg,,,,,,,,,,,,,,,,,,,,,,,,,,,,,,,,,,,,,,,,,,,,,,,,0,3,3,2,1,,,,,,,,,,,,,,,,,,,,,,,,,,,,,,,,,,,,,,,,,
613661,001,2022-11-20_23h50.27.897,Info_measure_main_exp,2022.2.2,Win32,59.36127271,,,,,,,,,,,,,,,,,,masks/mask_002.jpg,,,,,,,,,,,,,,,,,,,,,,,,,,,,,,,,,,,,,,,,,,,,,,,,0,4,4,1,1,,,,,,,,,,,,,,,,,,,,,,,,,,,,,,,,,,,,,,,,,
613661,001,2022-11-20_23h50.27.897,Info_measure_main_exp,2022.2.2,Win32,59.36127271,,,,,,,,,,,,,,,,,,,,,,,,,,,,,,5,2.7984,1,,,,,,,,,,,,0,131,5,5,2154,2190,absent_patch/patch0002154.jpg,absent_patch/patch0002190.jpg,,,,,,,,,,,,,,,,,,,,0.125,-0.085185192,1,0,0,response3disk,13,0.00462963,0.000925912,1,0,0,center_square,0,12,12,68,1,,,,,,,,,,,,,,,,,,,,,,,
613661,001,2022-11-20_23h50.27.897,Info_measure_main_exp,2022.2.2,Win32,59.36127271,,,,,,,,,,,,,,,,,,masks/mask_004.jpg,,,,,,,,,,,,,,,,,,,,,,,,,,,,,,,,,,,,,,,,,,,0,0,0,3,1,,,,,,,,,,,,,,,,,,,,,,,,,,,,,,,,,,,,,,,,,,,,,,
613661,001,2022-11-20_23h50.27.897,Info_measure_main_exp,2022.2.2,Win32,59.36127271,,,,,,,,,,,,,,,,,,masks/mask_001.jpg,,,,,,,,,,,,,,,,,,,,,,,,,,,,,,,,,,,,,,,,,,,0,1,1,0,1,,,,,,,,,,,,,,,,,,,,,,,,,,,,,,,,,,,,,,,,,,,,,,
613661,001,2022-11-20_23h50.27.897,Info_measure_main_exp,2022.2.2,Win32,59.36127271,,,,,,,,,,,,,,,,,,masks/mask_002.jpg,,,,,,,,,,,,,,,,,,,,,,,,,,,,,,,,,,,,,,,,,,,0,2,2,1,1,,,,,,,,,,,,,,,,,,,,,,,,,,,,,,,,,,,,,,,,,,,,,,
613661,001,2022-11-20_23h50.27.897,Info_measure_main_exp,2022.2.2,Win32,59.36127271,,,,,,,,,,,,,,,,,,masks/mask_005.jpg,,,,,,,,,,,,,,,,,,,,,,,,,,,,,,,,,,,,,,,,,,,0,3,3,4,1,,,,,,,,,,,,,,,,,,,,,,,,,,,,,,,,,,,,,,,,,,,,,,
613661,001,2022-11-20_23h50.27.897,Info_measure_main_exp,2022.2.2,Win32,59.36127271,,,,,,,,,,,,,,,,,,masks/mask_003.jpg,,,,,,,,,,,,,,,,,,,,,,,,,,,,,,,,,,,,,,,,,,,0,4,4,2,1,,,,,,,,,,,,,,,,,,,,,,,,,,,,,,,,,,,,,,,,,,,,,,
613661,001,2022-11-20_23h50.27.897,Info_measure_main_exp,2022.2.2,Win32,59.36127271,,,,,,,,,,,,,,,,,,masks/mask_003.jpg,,,,,,,,,,,,,,,,,,,,,,,,,,,,,,,,,,,,,,,,,,,,,,,,0,0,0,2,1,,,,,,,,,,,,,,,,,,,,,,,,,,,,,,,,,,,,,,,,,
613661,001,2022-11-20_23h50.27.897,Info_measure_main_exp,2022.2.2,Win32,59.36127271,,,,,,,,,,,,,,,,,,masks/mask_004.jpg,,,,,,,,,,,,,,,,,,,,,,,,,,,,,,,,,,,,,,,,,,,,,,,,0,1,1,3,1,,,,,,,,,,,,,,,,,,,,,,,,,,,,,,,,,,,,,,,,,
613661,001,2022-11-20_23h50.27.897,Info_measure_main_exp,2022.2.2,Win32,59.36127271,,,,,,,,,,,,,,,,,,masks/mask_001.jpg,,,,,,,,,,,,,,,,,,,,,,,,,,,,,,,,,,,,,,,,,,,,,,,,0,2,2,0,1,,,,,,,,,,,,,,,,,,,,,,,,,,,,,,,,,,,,,,,,,
613661,001,2022-11-20_23h50.27.897,Info_measure_main_exp,2022.2.2,Win32,59.36127271,,,,,,,,,,,,,,,,,,masks/mask_005.jpg,,,,,,,,,,,,,,,,,,,,,,,,,,,,,,,,,,,,,,,,,,,,,,,,0,3,3,4,1,,,,,,,,,,,,,,,,,,,,,,,,,,,,,,,,,,,,,,,,,
613661,001,2022-11-20_23h50.27.897,Info_measure_main_exp,2022.2.2,Win32,59.36127271,,,,,,,,,,,,,,,,,,masks/mask_002.jpg,,,,,,,,,,,,,,,,,,,,,,,,,,,,,,,,,,,,,,,,,,,,,,,,0,4,4,1,1,,,,,,,,,,,,,,,,,,,,,,,,,,,,,,,,,,,,,,,,,
613661,001,2022-11-20_23h50.27.897,Info_measure_main_exp,2022.2.2,Win32,59.36127271,,,,,,,,,,,,,,,,,,,,,,,,,,,,,,7,0.7324,1,,,,,,,,,,,,0,131,5,5,2238,2214,absent_patch/patch0002238.jpg,absent_patch/patch0002214.jpg,,,,,,,,,,,,,,,,,,,,0.070370356,0.127777771,1,0,0,response1disk,14,0.000925912,0.00462963,1,0,0,center_square,0,13,13,81,1,,,,,,,,,,,,,,,,,,,,,,,
613661,001,2022-11-20_23h50.27.897,Info_measure_main_exp,2022.2.2,Win32,59.36127271,,,,,,,,,,,,,,,,,,masks/mask_004.jpg,,,,,,,,,,,,,,,,,,,,,,,,,,,,,,,,,,,,,,,,,,,0,0,0,3,1,,,,,,,,,,,,,,,,,,,,,,,,,,,,,,,,,,,,,,,,,,,,,,
613661,001,2022-11-20_23h50.27.897,Info_measure_main_exp,2022.2.2,Win32,59.36127271,,,,,,,,,,,,,,,,,,masks/mask_003.jpg,,,,,,,,,,,,,,,,,,,,,,,,,,,,,,,,,,,,,,,,,,,0,1,1,2,1,,,,,,,,,,,,,,,,,,,,,,,,,,,,,,,,,,,,,,,,,,,,,,
613661,001,2022-11-20_23h50.27.897,Info_measure_main_exp,2022.2.2,Win32,59.36127271,,,,,,,,,,,,,,,,,,masks/mask_002.jpg,,,,,,,,,,,,,,,,,,,,,,,,,,,,,,,,,,,,,,,,,,,0,2,2,1,1,,,,,,,,,,,,,,,,,,,,,,,,,,,,,,,,,,,,,,,,,,,,,,
613661,001,2022-11-20_23h50.27.897,Info_measure_main_exp,2022.2.2,Win32,59.36127271,,,,,,,,,,,,,,,,,,masks/mask_001.jpg,,,,,,,,,,,,,,,,,,,,,,,,,,,,,,,,,,,,,,,,,,,0,3,3,0,1,,,,,,,,,,,,,,,,,,,,,,,,,,,,,,,,,,,,,,,,,,,,,,
613661,001,2022-11-20_23h50.27.897,Info_measure_main_exp,2022.2.2,Win32,59.36127271,,,,,,,,,,,,,,,,,,masks/mask_005.jpg,,,,,,,,,,,,,,,,,,,,,,,,,,,,,,,,,,,,,,,,,,,0,4,4,4,1,,,,,,,,,,,,,,,,,,,,,,,,,,,,,,,,,,,,,,,,,,,,,,
613661,001,2022-11-20_23h50.27.897,Info_measure_main_exp,2022.2.2,Win32,59.36127271,,,,,,,,,,,,,,,,,,masks/mask_002.jpg,,,,,,,,,,,,,,,,,,,,,,,,,,,,,,,,,,,,,,,,,,,,,,,,0,0,0,1,1,,,,,,,,,,,,,,,,,,,,,,,,,,,,,,,,,,,,,,,,,
613661,001,2022-11-20_23h50.27.897,Info_measure_main_exp,2022.2.2,Win32,59.36127271,,,,,,,,,,,,,,,,,,masks/mask_003.jpg,,,,,,,,,,,,,,,,,,,,,,,,,,,,,,,,,,,,,,,,,,,,,,,,0,1,1,2,1,,,,,,,,,,,,,,,,,,,,,,,,,,,,,,,,,,,,,,,,,
613661,001,2022-11-20_23h50.27.897,Info_measure_main_exp,2022.2.2,Win32,59.36127271,,,,,,,,,,,,,,,,,,masks/mask_005.jpg,,,,,,,,,,,,,,,,,,,,,,,,,,,,,,,,,,,,,,,,,,,,,,,,0,2,2,4,1,,,,,,,,,,,,,,,,,,,,,,,,,,,,,,,,,,,,,,,,,
613661,001,2022-11-20_23h50.27.897,Info_measure_main_exp,2022.2.2,Win32,59.36127271,,,,,,,,,,,,,,,,,,masks/mask_004.jpg,,,,,,,,,,,,,,,,,,,,,,,,,,,,,,,,,,,,,,,,,,,,,,,,0,3,3,3,1,,,,,,,,,,,,,,,,,,,,,,,,,,,,,,,,,,,,,,,,,
613661,001,2022-11-20_23h50.27.897,Info_measure_main_exp,2022.2.2,Win32,59.36127271,,,,,,,,,,,,,,,,,,masks/mask_001.jpg,,,,,,,,,,,,,,,,,,,,,,,,,,,,,,,,,,,,,,,,,,,,,,,,0,4,4,0,1,,,,,,,,,,,,,,,,,,,,,,,,,,,,,,,,,,,,,,,,,
613661,001,2022-11-20_23h50.27.897,Info_measure_main_exp,2022.2.2,Win32,59.36127271,,,,,,,,,,,,,,,,,,,,,,,,,,,,,,6,0.6499,1,,,,,,,,,,,,0,131,5,5,2274,2250,absent_patch/patch0002274.jpg,absent_patch/patch0002250.jpg,,,,,,,,,,,,,,,,,,,,0.168518561,0.01944443,1,0,0,response1disk,15,-0.002777735,-0.011111118,1,0,0,center_square,0,14,14,28,1,,,,,,,,,,,,,,,,,,,,,,,
613661,001,2022-11-20_23h50.27.897,Info_measure_main_exp,2022.2.2,Win32,59.36127271,,,,,,,,,,,,,,,,,,masks/mask_004.jpg,,,,,,,,,,,,,,,,,,,,,,,,,,,,,,,,,,,,,,,,,,,0,0,0,3,1,,,,,,,,,,,,,,,,,,,,,,,,,,,,,,,,,,,,,,,,,,,,,,
613661,001,2022-11-20_23h50.27.897,Info_measure_main_exp,2022.2.2,Win32,59.36127271,,,,,,,,,,,,,,,,,,masks/mask_003.jpg,,,,,,,,,,,,,,,,,,,,,,,,,,,,,,,,,,,,,,,,,,,0,1,1,2,1,,,,,,,,,,,,,,,,,,,,,,,,,,,,,,,,,,,,,,,,,,,,,,
613661,001,2022-11-20_23h50.27.897,Info_measure_main_exp,2022.2.2,Win32,59.36127271,,,,,,,,,,,,,,,,,,masks/mask_001.jpg,,,,,,,,,,,,,,,,,,,,,,,,,,,,,,,,,,,,,,,,,,,0,2,2,0,1,,,,,,,,,,,,,,,,,,,,,,,,,,,,,,,,,,,,,,,,,,,,,,
613661,001,2022-11-20_23h50.27.897,Info_measure_main_exp,2022.2.2,Win32,59.36127271,,,,,,,,,,,,,,,,,,masks/mask_002.jpg,,,,,,,,,,,,,,,,,,,,,,,,,,,,,,,,,,,,,,,,,,,0,3,3,1,1,,,,,,,,,,,,,,,,,,,,,,,,,,,,,,,,,,,,,,,,,,,,,,
613661,001,2022-11-20_23h50.27.897,Info_measure_main_exp,2022.2.2,Win32,59.36127271,,,,,,,,,,,,,,,,,,masks/mask_005.jpg,,,,,,,,,,,,,,,,,,,,,,,,,,,,,,,,,,,,,,,,,,,0,4,4,4,1,,,,,,,,,,,,,,,,,,,,,,,,,,,,,,,,,,,,,,,,,,,,,,
613661,001,2022-11-20_23h50.27.897,Info_measure_main_exp,2022.2.2,Win32,59.36127271,,,,,,,,,,,,,,,,,,masks/mask_002.jpg,,,,,,,,,,,,,,,,,,,,,,,,,,,,,,,,,,,,,,,,,,,,,,,,0,0,0,1,1,,,,,,,,,,,,,,,,,,,,,,,,,,,,,,,,,,,,,,,,,
613661,001,2022-11-20_23h50.27.897,Info_measure_main_exp,2022.2.2,Win32,59.36127271,,,,,,,,,,,,,,,,,,masks/mask_004.jpg,,,,,,,,,,,,,,,,,,,,,,,,,,,,,,,,,,,,,,,,,,,,,,,,0,1,1,3,1,,,,,,,,,,,,,,,,,,,,,,,,,,,,,,,,,,,,,,,,,
613661,001,2022-11-20_23h50.27.897,Info_measure_main_exp,2022.2.2,Win32,59.36127271,,,,,,,,,,,,,,,,,,masks/mask_005.jpg,,,,,,,,,,,,,,,,,,,,,,,,,,,,,,,,,,,,,,,,,,,,,,,,0,2,2,4,1,,,,,,,,,,,,,,,,,,,,,,,,,,,,,,,,,,,,,,,,,
613661,001,2022-11-20_23h50.27.897,Info_measure_main_exp,2022.2.2,Win32,59.36127271,,,,,,,,,,,,,,,,,,masks/mask_003.jpg,,,,,,,,,,,,,,,,,,,,,,,,,,,,,,,,,,,,,,,,,,,,,,,,0,3,3,2,1,,,,,,,,,,,,,,,,,,,,,,,,,,,,,,,,,,,,,,,,,
613661,001,2022-11-20_23h50.27.897,Info_measure_main_exp,2022.2.2,Win32,59.36127271,,,,,,,,,,,,,,,,,,masks/mask_001.jpg,,,,,,,,,,,,,,,,,,,,,,,,,,,,,,,,,,,,,,,,,,,,,,,,0,4,4,0,1,,,,,,,,,,,,,,,,,,,,,,,,,,,,,,,,,,,,,,,,,
613661,001,2022-11-20_23h50.27.897,Info_measure_main_exp,2022.2.2,Win32,59.36127271,,,,,,,,,,,,,,,,,,,,,,,,,,,,,,6,0.9495,1,,,,,,,,,,,,0,131,5,5,2250,2238,absent_patch/patch0002250.jpg,absent_patch/patch0002238.jpg,,,,,,,,,,,,,,,,,,,,0.150925954,0.01666666,1,0,0,response1disk,16,0.008333347,-0.001851859,1,0,0,center_square,0,15,15,110,1,,,,,,,,,,,,,,,,,,,,,,,
613661,001,2022-11-20_23h50.27.897,Info_measure_main_exp,2022.2.2,Win32,59.36127271,,,,,,,,,,,,,,,,,,masks/mask_003.jpg,,,,,,,,,,,,,,,,,,,,,,,,,,,,,,,,,,,,,,,,,,,0,0,0,2,1,,,,,,,,,,,,,,,,,,,,,,,,,,,,,,,,,,,,,,,,,,,,,,
613661,001,2022-11-20_23h50.27.897,Info_measure_main_exp,2022.2.2,Win32,59.36127271,,,,,,,,,,,,,,,,,,masks/mask_005.jpg,,,,,,,,,,,,,,,,,,,,,,,,,,,,,,,,,,,,,,,,,,,0,1,1,4,1,,,,,,,,,,,,,,,,,,,,,,,,,,,,,,,,,,,,,,,,,,,,,,
613661,001,2022-11-20_23h50.27.897,Info_measure_main_exp,2022.2.2,Win32,59.36127271,,,,,,,,,,,,,,,,,,masks/mask_004.jpg,,,,,,,,,,,,,,,,,,,,,,,,,,,,,,,,,,,,,,,,,,,0,2,2,3,1,,,,,,,,,,,,,,,,,,,,,,,,,,,,,,,,,,,,,,,,,,,,,,
613661,001,2022-11-20_23h50.27.897,Info_measure_main_exp,2022.2.2,Win32,59.36127271,,,,,,,,,,,,,,,,,,masks/mask_002.jpg,,,,,,,,,,,,,,,,,,,,,,,,,,,,,,,,,,,,,,,,,,,0,3,3,1,1,,,,,,,,,,,,,,,,,,,,,,,,,,,,,,,,,,,,,,,,,,,,,,
613661,001,2022-11-20_23h50.27.897,Info_measure_main_exp,2022.2.2,Win32,59.36127271,,,,,,,,,,,,,,,,,,masks/mask_001.jpg,,,,,,,,,,,,,,,,,,,,,,,,,,,,,,,,,,,,,,,,,,,0,4,4,0,1,,,,,,,,,,,,,,,,,,,,,,,,,,,,,,,,,,,,,,,,,,,,,,
613661,001,2022-11-20_23h50.27.897,Info_measure_main_exp,2022.2.2,Win32,59.36127271,,,,,,,,,,,,,,,,,,masks/mask_002.jpg,,,,,,,,,,,,,,,,,,,,,,,,,,,,,,,,,,,,,,,,,,,,,,,,0,0,0,1,1,,,,,,,,,,,,,,,,,,,,,,,,,,,,,,,,,,,,,,,,,
613661,001,2022-11-20_23h50.27.897,Info_measure_main_exp,2022.2.2,Win32,59.36127271,,,,,,,,,,,,,,,,,,masks/mask_001.jpg,,,,,,,,,,,,,,,,,,,,,,,,,,,,,,,,,,,,,,,,,,,,,,,,0,1,1,0,1,,,,,,,,,,,,,,,,,,,,,,,,,,,,,,,,,,,,,,,,,
613661,001,2022-11-20_23h50.27.897,Info_measure_main_exp,2022.2.2,Win32,59.36127271,,,,,,,,,,,,,,,,,,masks/mask_004.jpg,,,,,,,,,,,,,,,,,,,,,,,,,,,,,,,,,,,,,,,,,,,,,,,,0,2,2,3,1,,,,,,,,,,,,,,,,,,,,,,,,,,,,,,,,,,,,,,,,,
613661,001,2022-11-20_23h50.27.897,Info_measure_main_exp,2022.2.2,Win32,59.36127271,,,,,,,,,,,,,,,,,,masks/mask_003.jpg,,,,,,,,,,,,,,,,,,,,,,,,,,,,,,,,,,,,,,,,,,,,,,,,0,3,3,2,1,,,,,,,,,,,,,,,,,,,,,,,,,,,,,,,,,,,,,,,,,
613661,001,2022-11-20_23h50.27.897,Info_measure_main_exp,2022.2.2,Win32,59.36127271,,,,,,,,,,,,,,,,,,masks/mask_005.jpg,,,,,,,,,,,,,,,,,,,,,,,,,,,,,,,,,,,,,,,,,,,,,,,,0,4,4,4,1,,,,,,,,,,,,,,,,,,,,,,,,,,,,,,,,,,,,,,,,,
613661,001,2022-11-20_23h50.27.897,Info_measure_main_exp,2022.2.2,Win32,59.36127271,,,,,,,,,,,,,,,,,,,,,,,,,,,,,,5,1.9993,1,,,,,,,,,,,,0,131,5,5,2298,2274,absent_patch/patch0002298.jpg,absent_patch/patch0002274.jpg,,,,,,,,,,,,,,,,,,,,0.150000042,-0.01666666,1,0,0,response3disk,17,-0.001851824,0,1,0,0,center_square,0,16,16,1,1,,,,,,,,,,,,,,,,,,,,,,,
613661,001,2022-11-20_23h50.27.897,Info_measure_main_exp,2022.2.2,Win32,59.36127271,,,,,,,,,,,,,,,,,,masks/mask_005.jpg,,,,,,,,,,,,,,,,,,,,,,,,,,,,,,,,,,,,,,,,,,,0,0,0,4,1,,,,,,,,,,,,,,,,,,,,,,,,,,,,,,,,,,,,,,,,,,,,,,
613661,001,2022-11-20_23h50.27.897,Info_measure_main_exp,2022.2.2,Win32,59.36127271,,,,,,,,,,,,,,,,,,masks/mask_003.jpg,,,,,,,,,,,,,,,,,,,,,,,,,,,,,,,,,,,,,,,,,,,0,1,1,2,1,,,,,,,,,,,,,,,,,,,,,,,,,,,,,,,,,,,,,,,,,,,,,,
613661,001,2022-11-20_23h50.27.897,Info_measure_main_exp,2022.2.2,Win32,59.36127271,,,,,,,,,,,,,,,,,,masks/mask_001.jpg,,,,,,,,,,,,,,,,,,,,,,,,,,,,,,,,,,,,,,,,,,,0,2,2,0,1,,,,,,,,,,,,,,,,,,,,,,,,,,,,,,,,,,,,,,,,,,,,,,
613661,001,2022-11-20_23h50.27.897,Info_measure_main_exp,2022.2.2,Win32,59.36127271,,,,,,,,,,,,,,,,,,masks/mask_004.jpg,,,,,,,,,,,,,,,,,,,,,,,,,,,,,,,,,,,,,,,,,,,0,3,3,3,1,,,,,,,,,,,,,,,,,,,,,,,,,,,,,,,,,,,,,,,,,,,,,,
613661,001,2022-11-20_23h50.27.897,Info_measure_main_exp,2022.2.2,Win32,59.36127271,,,,,,,,,,,,,,,,,,masks/mask_002.jpg,,,,,,,,,,,,,,,,,,,,,,,,,,,,,,,,,,,,,,,,,,,0,4,4,1,1,,,,,,,,,,,,,,,,,,,,,,,,,,,,,,,,,,,,,,,,,,,,,,
613661,001,2022-11-20_23h50.27.897,Info_measure_main_exp,2022.2.2,Win32,59.36127271,,,,,,,,,,,,,,,,,,masks/mask_004.jpg,,,,,,,,,,,,,,,,,,,,,,,,,,,,,,,,,,,,,,,,,,,,,,,,0,0,0,3,1,,,,,,,,,,,,,,,,,,,,,,,,,,,,,,,,,,,,,,,,,
613661,001,2022-11-20_23h50.27.897,Info_measure_main_exp,2022.2.2,Win32,59.36127271,,,,,,,,,,,,,,,,,,masks/mask_003.jpg,,,,,,,,,,,,,,,,,,,,,,,,,,,,,,,,,,,,,,,,,,,,,,,,0,1,1,2,1,,,,,,,,,,,,,,,,,,,,,,,,,,,,,,,,,,,,,,,,,
613661,001,2022-11-20_23h50.27.897,Info_measure_main_exp,2022.2.2,Win32,59.36127271,,,,,,,,,,,,,,,,,,masks/mask_001.jpg,,,,,,,,,,,,,,,,,,,,,,,,,,,,,,,,,,,,,,,,,,,,,,,,0,2,2,0,1,,,,,,,,,,,,,,,,,,,,,,,,,,,,,,,,,,,,,,,,,
613661,001,2022-11-20_23h50.27.897,Info_measure_main_exp,2022.2.2,Win32,59.36127271,,,,,,,,,,,,,,,,,,masks/mask_002.jpg,,,,,,,,,,,,,,,,,,,,,,,,,,,,,,,,,,,,,,,,,,,,,,,,0,3,3,1,1,,,,,,,,,,,,,,,,,,,,,,,,,,,,,,,,,,,,,,,,,
613661,001,2022-11-20_23h50.27.897,Info_measure_main_exp,2022.2.2,Win32,59.36127271,,,,,,,,,,,,,,,,,,masks/mask_005.jpg,,,,,,,,,,,,,,,,,,,,,,,,,,,,,,,,,,,,,,,,,,,,,,,,0,4,4,4,1,,,,,,,,,,,,,,,,,,,,,,,,,,,,,,,,,,,,,,,,,
613661,001,2022-11-20_23h50.27.897,Info_measure_main_exp,2022.2.2,Win32,59.36127271,,,,,,,,,,,,,,,,,,,,,,,,,,,,,,5,1.2491,1,,,,,,,,,,,,0,131,5,5,2190,2178,absent_patch/patch0002190.jpg,absent_patch/patch0002178.jpg,,,,,,,,,,,,,,,,,,,,0.145370413,-0.035185178,1,0,0,response3disk,18,-0.00462963,-0.000925947,1,0,0,center_square,0,17,17,14,1,,,,,,,,,,,,,,,,,,,,,,,
613661,001,2022-11-20_23h50.27.897,Info_measure_main_exp,2022.2.2,Win32,59.36127271,,,,,,,,,,,,,,,,,,masks/mask_004.jpg,,,,,,,,,,,,,,,,,,,,,,,,,,,,,,,,,,,,,,,,,,,0,0,0,3,1,,,,,,,,,,,,,,,,,,,,,,,,,,,,,,,,,,,,,,,,,,,,,,
613661,001,2022-11-20_23h50.27.897,Info_measure_main_exp,2022.2.2,Win32,59.36127271,,,,,,,,,,,,,,,,,,masks/mask_002.jpg,,,,,,,,,,,,,,,,,,,,,,,,,,,,,,,,,,,,,,,,,,,0,1,1,1,1,,,,,,,,,,,,,,,,,,,,,,,,,,,,,,,,,,,,,,,,,,,,,,
613661,001,2022-11-20_23h50.27.897,Info_measure_main_exp,2022.2.2,Win32,59.36127271,,,,,,,,,,,,,,,,,,masks/mask_005.jpg,,,,,,,,,,,,,,,,,,,,,,,,,,,,,,,,,,,,,,,,,,,0,2,2,4,1,,,,,,,,,,,,,,,,,,,,,,,,,,,,,,,,,,,,,,,,,,,,,,
613661,001,2022-11-20_23h50.27.897,Info_measure_main_exp,2022.2.2,Win32,59.36127271,,,,,,,,,,,,,,,,,,masks/mask_003.jpg,,,,,,,,,,,,,,,,,,,,,,,,,,,,,,,,,,,,,,,,,,,0,3,3,2,1,,,,,,,,,,,,,,,,,,,,,,,,,,,,,,,,,,,,,,,,,,,,,,
613661,001,2022-11-20_23h50.27.897,Info_measure_main_exp,2022.2.2,Win32,59.36127271,,,,,,,,,,,,,,,,,,masks/mask_001.jpg,,,,,,,,,,,,,,,,,,,,,,,,,,,,,,,,,,,,,,,,,,,0,4,4,0,1,,,,,,,,,,,,,,,,,,,,,,,,,,,,,,,,,,,,,,,,,,,,,,
613661,001,2022-11-20_23h50.27.897,Info_measure_main_exp,2022.2.2,Win32,59.36127271,,,,,,,,,,,,,,,,,,masks/mask_003.jpg,,,,,,,,,,,,,,,,,,,,,,,,,,,,,,,,,,,,,,,,,,,,,,,,0,0,0,2,1,,,,,,,,,,,,,,,,,,,,,,,,,,,,,,,,,,,,,,,,,
613661,001,2022-11-20_23h50.27.897,Info_measure_main_exp,2022.2.2,Win32,59.36127271,,,,,,,,,,,,,,,,,,masks/mask_002.jpg,,,,,,,,,,,,,,,,,,,,,,,,,,,,,,,,,,,,,,,,,,,,,,,,0,1,1,1,1,,,,,,,,,,,,,,,,,,,,,,,,,,,,,,,,,,,,,,,,,
613661,001,2022-11-20_23h50.27.897,Info_measure_main_exp,2022.2.2,Win32,59.36127271,,,,,,,,,,,,,,,,,,masks/mask_001.jpg,,,,,,,,,,,,,,,,,,,,,,,,,,,,,,,,,,,,,,,,,,,,,,,,0,2,2,0,1,,,,,,,,,,,,,,,,,,,,,,,,,,,,,,,,,,,,,,,,,
613661,001,2022-11-20_23h50.27.897,Info_measure_main_exp,2022.2.2,Win32,59.36127271,,,,,,,,,,,,,,,,,,masks/mask_004.jpg,,,,,,,,,,,,,,,,,,,,,,,,,,,,,,,,,,,,,,,,,,,,,,,,0,3,3,3,1,,,,,,,,,,,,,,,,,,,,,,,,,,,,,,,,,,,,,,,,,
613661,001,2022-11-20_23h50.27.897,Info_measure_main_exp,2022.2.2,Win32,59.36127271,,,,,,,,,,,,,,,,,,masks/mask_005.jpg,,,,,,,,,,,,,,,,,,,,,,,,,,,,,,,,,,,,,,,,,,,,,,,,0,4,4,4,1,,,,,,,,,,,,,,,,,,,,,,,,,,,,,,,,,,,,,,,,,
613661,001,2022-11-20_23h50.27.897,Info_measure_main_exp,2022.2.2,Win32,59.36127271,,,,,,,,,,,,,,,,,,,,,,,,,,,,,,7,0.7996,1,,,,,,,,,,,,0,131,5,5,2178,1986,absent_patch/patch0002178.jpg,absent_patch/patch0001986.jpg,,,,,,,,,,,,,,,,,,,,0.058333362,0.113888882,1,0,0,response1disk,19,-0.005555541,0.003703683,1,0,0,center_square,0,18,18,46,1,,,,,,,,,,,,,,,,,,,,,,,
613661,001,2022-11-20_23h50.27.897,Info_measure_main_exp,2022.2.2,Win32,59.36127271,,,,,,,,,,,,,,,,,,masks/mask_002.jpg,,,,,,,,,,,,,,,,,,,,,,,,,,,,,,,,,,,,,,,,,,,0,0,0,1,1,,,,,,,,,,,,,,,,,,,,,,,,,,,,,,,,,,,,,,,,,,,,,,
613661,001,2022-11-20_23h50.27.897,Info_measure_main_exp,2022.2.2,Win32,59.36127271,,,,,,,,,,,,,,,,,,masks/mask_004.jpg,,,,,,,,,,,,,,,,,,,,,,,,,,,,,,,,,,,,,,,,,,,0,1,1,3,1,,,,,,,,,,,,,,,,,,,,,,,,,,,,,,,,,,,,,,,,,,,,,,
613661,001,2022-11-20_23h50.27.897,Info_measure_main_exp,2022.2.2,Win32,59.36127271,,,,,,,,,,,,,,,,,,masks/mask_001.jpg,,,,,,,,,,,,,,,,,,,,,,,,,,,,,,,,,,,,,,,,,,,0,2,2,0,1,,,,,,,,,,,,,,,,,,,,,,,,,,,,,,,,,,,,,,,,,,,,,,
613661,001,2022-11-20_23h50.27.897,Info_measure_main_exp,2022.2.2,Win32,59.36127271,,,,,,,,,,,,,,,,,,masks/mask_003.jpg,,,,,,,,,,,,,,,,,,,,,,,,,,,,,,,,,,,,,,,,,,,0,3,3,2,1,,,,,,,,,,,,,,,,,,,,,,,,,,,,,,,,,,,,,,,,,,,,,,
613661,001,2022-11-20_23h50.27.897,Info_measure_main_exp,2022.2.2,Win32,59.36127271,,,,,,,,,,,,,,,,,,masks/mask_005.jpg,,,,,,,,,,,,,,,,,,,,,,,,,,,,,,,,,,,,,,,,,,,0,4,4,4,1,,,,,,,,,,,,,,,,,,,,,,,,,,,,,,,,,,,,,,,,,,,,,,
613661,001,2022-11-20_23h50.27.897,Info_measure_main_exp,2022.2.2,Win32,59.36127271,,,,,,,,,,,,,,,,,,masks/mask_003.jpg,,,,,,,,,,,,,,,,,,,,,,,,,,,,,,,,,,,,,,,,,,,,,,,,0,0,0,2,1,,,,,,,,,,,,,,,,,,,,,,,,,,,,,,,,,,,,,,,,,
613661,001,2022-11-20_23h50.27.897,Info_measure_main_exp,2022.2.2,Win32,59.36127271,,,,,,,,,,,,,,,,,,masks/mask_005.jpg,,,,,,,,,,,,,,,,,,,,,,,,,,,,,,,,,,,,,,,,,,,,,,,,0,1,1,4,1,,,,,,,,,,,,,,,,,,,,,,,,,,,,,,,,,,,,,,,,,
613661,001,2022-11-20_23h50.27.897,Info_measure_main_exp,2022.2.2,Win32,59.36127271,,,,,,,,,,,,,,,,,,masks/mask_002.jpg,,,,,,,,,,,,,,,,,,,,,,,,,,,,,,,,,,,,,,,,,,,,,,,,0,2,2,1,1,,,,,,,,,,,,,,,,,,,,,,,,,,,,,,,,,,,,,,,,,
613661,001,2022-11-20_23h50.27.897,Info_measure_main_exp,2022.2.2,Win32,59.36127271,,,,,,,,,,,,,,,,,,masks/mask_004.jpg,,,,,,,,,,,,,,,,,,,,,,,,,,,,,,,,,,,,,,,,,,,,,,,,0,3,3,3,1,,,,,,,,,,,,,,,,,,,,,,,,,,,,,,,,,,,,,,,,,
613661,001,2022-11-20_23h50.27.897,Info_measure_main_exp,2022.2.2,Win32,59.36127271,,,,,,,,,,,,,,,,,,masks/mask_001.jpg,,,,,,,,,,,,,,,,,,,,,,,,,,,,,,,,,,,,,,,,,,,,,,,,0,4,4,0,1,,,,,,,,,,,,,,,,,,,,,,,,,,,,,,,,,,,,,,,,,
613661,001,2022-11-20_23h50.27.897,Info_measure_main_exp,2022.2.2,Win32,59.36127271,,,,,,,,,,,,,,,,,,,,,,,,,,,,,,0,0.6496,1,,,,,,,,,,,,0,131,5,5,2178,2178,absent_patch/patch0002178.jpg,absent_patch/patch0002178.jpg,,,,,,,,,,,,,,,,,,,,-0.087037051,0.159259266,1,0,0,response7disk,20,0.00462963,0.000925912,1,0,0,center_square,0,19,19,98,1,,,,,,,,,,,,,,,,,,,,,,,
613661,001,2022-11-20_23h50.27.897,Info_measure_main_exp,2022.2.2,Win32,59.36127271,,,,,,,,,,,,,,,,,,masks/mask_002.jpg,,,,,,,,,,,,,,,,,,,,,,,,,,,,,,,,,,,,,,,,,,,0,0,0,1,1,,,,,,,,,,,,,,,,,,,,,,,,,,,,,,,,,,,,,,,,,,,,,,
613661,001,2022-11-20_23h50.27.897,Info_measure_main_exp,2022.2.2,Win32,59.36127271,,,,,,,,,,,,,,,,,,masks/mask_001.jpg,,,,,,,,,,,,,,,,,,,,,,,,,,,,,,,,,,,,,,,,,,,0,1,1,0,1,,,,,,,,,,,,,,,,,,,,,,,,,,,,,,,,,,,,,,,,,,,,,,
613661,001,2022-11-20_23h50.27.897,Info_measure_main_exp,2022.2.2,Win32,59.36127271,,,,,,,,,,,,,,,,,,masks/mask_005.jpg,,,,,,,,,,,,,,,,,,,,,,,,,,,,,,,,,,,,,,,,,,,0,2,2,4,1,,,,,,,,,,,,,,,,,,,,,,,,,,,,,,,,,,,,,,,,,,,,,,
613661,001,2022-11-20_23h50.27.897,Info_measure_main_exp,2022.2.2,Win32,59.36127271,,,,,,,,,,,,,,,,,,masks/mask_004.jpg,,,,,,,,,,,,,,,,,,,,,,,,,,,,,,,,,,,,,,,,,,,0,3,3,3,1,,,,,,,,,,,,,,,,,,,,,,,,,,,,,,,,,,,,,,,,,,,,,,
613661,001,2022-11-20_23h50.27.897,Info_measure_main_exp,2022.2.2,Win32,59.36127271,,,,,,,,,,,,,,,,,,masks/mask_003.jpg,,,,,,,,,,,,,,,,,,,,,,,,,,,,,,,,,,,,,,,,,,,0,4,4,2,1,,,,,,,,,,,,,,,,,,,,,,,,,,,,,,,,,,,,,,,,,,,,,,
613661,001,2022-11-20_23h50.27.897,Info_measure_main_exp,2022.2.2,Win32,59.36127271,,,,,,,,,,,,,,,,,,masks/mask_003.jpg,,,,,,,,,,,,,,,,,,,,,,,,,,,,,,,,,,,,,,,,,,,,,,,,0,0,0,2,1,,,,,,,,,,,,,,,,,,,,,,,,,,,,,,,,,,,,,,,,,
613661,001,2022-11-20_23h50.27.897,Info_measure_main_exp,2022.2.2,Win32,59.36127271,,,,,,,,,,,,,,,,,,masks/mask_002.jpg,,,,,,,,,,,,,,,,,,,,,,,,,,,,,,,,,,,,,,,,,,,,,,,,0,1,1,1,1,,,,,,,,,,,,,,,,,,,,,,,,,,,,,,,,,,,,,,,,,
613661,001,2022-11-20_23h50.27.897,Info_measure_main_exp,2022.2.2,Win32,59.36127271,,,,,,,,,,,,,,,,,,masks/mask_001.jpg,,,,,,,,,,,,,,,,,,,,,,,,,,,,,,,,,,,,,,,,,,,,,,,,0,2,2,0,1,,,,,,,,,,,,,,,,,,,,,,,,,,,,,,,,,,,,,,,,,
613661,001,2022-11-20_23h50.27.897,Info_measure_main_exp,2022.2.2,Win32,59.36127271,,,,,,,,,,,,,,,,,,masks/mask_004.jpg,,,,,,,,,,,,,,,,,,,,,,,,,,,,,,,,,,,,,,,,,,,,,,,,0,3,3,3,1,,,,,,,,,,,,,,,,,,,,,,,,,,,,,,,,,,,,,,,,,
613661,001,2022-11-20_23h50.27.897,Info_measure_main_exp,2022.2.2,Win32,59.36127271,,,,,,,,,,,,,,,,,,masks/mask_005.jpg,,,,,,,,,,,,,,,,,,,,,,,,,,,,,,,,,,,,,,,,,,,,,,,,0,4,4,4,1,,,,,,,,,,,,,,,,,,,,,,,,,,,,,,,,,,,,,,,,,
613661,001,2022-11-20_23h50.27.897,Info_measure_main_exp,2022.2.2,Win32,59.36127271,,,,,,,,,,,,,,,,,,,,,,,,,,,,,,6,0.8657,1,,,,,,,,,,,,0,131,5,5,2178,2166,absent_patch/patch0002178.jpg,absent_patch/patch0002166.jpg,,,,,,,,,,,,,,,,,,,,0.147222236,0.042592578,1,0,0,response1disk,21,-0.014814801,0.01203703,1,0,0,center_square,0,20,20,72,1,,,,,,,,,,,,,,,,,,,,,,,
613661,001,2022-11-20_23h50.27.897,Info_measure_main_exp,2022.2.2,Win32,59.36127271,,,,,,,,,,,,,,,,,,masks/mask_001.jpg,,,,,,,,,,,,,,,,,,,,,,,,,,,,,,,,,,,,,,,,,,,0,0,0,0,1,,,,,,,,,,,,,,,,,,,,,,,,,,,,,,,,,,,,,,,,,,,,,,
613661,001,2022-11-20_23h50.27.897,Info_measure_main_exp,2022.2.2,Win32,59.36127271,,,,,,,,,,,,,,,,,,masks/mask_003.jpg,,,,,,,,,,,,,,,,,,,,,,,,,,,,,,,,,,,,,,,,,,,0,1,1,2,1,,,,,,,,,,,,,,,,,,,,,,,,,,,,,,,,,,,,,,,,,,,,,,
613661,001,2022-11-20_23h50.27.897,Info_measure_main_exp,2022.2.2,Win32,59.36127271,,,,,,,,,,,,,,,,,,masks/mask_005.jpg,,,,,,,,,,,,,,,,,,,,,,,,,,,,,,,,,,,,,,,,,,,0,2,2,4,1,,,,,,,,,,,,,,,,,,,,,,,,,,,,,,,,,,,,,,,,,,,,,,
613661,001,2022-11-20_23h50.27.897,Info_measure_main_exp,2022.2.2,Win32,59.36127271,,,,,,,,,,,,,,,,,,masks/mask_002.jpg,,,,,,,,,,,,,,,,,,,,,,,,,,,,,,,,,,,,,,,,,,,0,3,3,1,1,,,,,,,,,,,,,,,,,,,,,,,,,,,,,,,,,,,,,,,,,,,,,,
613661,001,2022-11-20_23h50.27.897,Info_measure_main_exp,2022.2.2,Win32,59.36127271,,,,,,,,,,,,,,,,,,masks/mask_004.jpg,,,,,,,,,,,,,,,,,,,,,,,,,,,,,,,,,,,,,,,,,,,0,4,4,3,1,,,,,,,,,,,,,,,,,,,,,,,,,,,,,,,,,,,,,,,,,,,,,,
613661,001,2022-11-20_23h50.27.897,Info_measure_main_exp,2022.2.2,Win32,59.36127271,,,,,,,,,,,,,,,,,,masks/mask_005.jpg,,,,,,,,,,,,,,,,,,,,,,,,,,,,,,,,,,,,,,,,,,,,,,,,0,0,0,4,1,,,,,,,,,,,,,,,,,,,,,,,,,,,,,,,,,,,,,,,,,
613661,001,2022-11-20_23h50.27.897,Info_measure_main_exp,2022.2.2,Win32,59.36127271,,,,,,,,,,,,,,,,,,masks/mask_004.jpg,,,,,,,,,,,,,,,,,,,,,,,,,,,,,,,,,,,,,,,,,,,,,,,,0,1,1,3,1,,,,,,,,,,,,,,,,,,,,,,,,,,,,,,,,,,,,,,,,,
613661,001,2022-11-20_23h50.27.897,Info_measure_main_exp,2022.2.2,Win32,59.36127271,,,,,,,,,,,,,,,,,,masks/mask_002.jpg,,,,,,,,,,,,,,,,,,,,,,,,,,,,,,,,,,,,,,,,,,,,,,,,0,2,2,1,1,,,,,,,,,,,,,,,,,,,,,,,,,,,,,,,,,,,,,,,,,
613661,001,2022-11-20_23h50.27.897,Info_measure_main_exp,2022.2.2,Win32,59.36127271,,,,,,,,,,,,,,,,,,masks/mask_001.jpg,,,,,,,,,,,,,,,,,,,,,,,,,,,,,,,,,,,,,,,,,,,,,,,,0,3,3,0,1,,,,,,,,,,,,,,,,,,,,,,,,,,,,,,,,,,,,,,,,,
613661,001,2022-11-20_23h50.27.897,Info_measure_main_exp,2022.2.2,Win32,59.36127271,,,,,,,,,,,,,,,,,,masks/mask_003.jpg,,,,,,,,,,,,,,,,,,,,,,,,,,,,,,,,,,,,,,,,,,,,,,,,0,4,4,2,1,,,,,,,,,,,,,,,,,,,,,,,,,,,,,,,,,,,,,,,,,
613661,001,2022-11-20_23h50.27.897,Info_measure_main_exp,2022.2.2,Win32,59.36127271,,,,,,,,,,,,,,,,,,,,,,,,,,,,,,2,2.4986,1,,,,,,,,,,,,0,131,5,5,1974,1950,absent_patch/patch0001974.jpg,absent_patch/patch0001950.jpg,,,,,,,,,,,,,,,,,,,,-0.135185171,-0.050000014,1,0,0,response5disk,22,-0.000925912,-0.0074074,1,0,0,center_square,0,21,21,17,1,,,,,,,,,,,,,,,,,,,,,,,
613661,001,2022-11-20_23h50.27.897,Info_measure_main_exp,2022.2.2,Win32,59.36127271,,,,,,,,,,,,,,,,,,masks/mask_002.jpg,,,,,,,,,,,,,,,,,,,,,,,,,,,,,,,,,,,,,,,,,,,0,0,0,1,1,,,,,,,,,,,,,,,,,,,,,,,,,,,,,,,,,,,,,,,,,,,,,,
613661,001,2022-11-20_23h50.27.897,Info_measure_main_exp,2022.2.2,Win32,59.36127271,,,,,,,,,,,,,,,,,,masks/mask_004.jpg,,,,,,,,,,,,,,,,,,,,,,,,,,,,,,,,,,,,,,,,,,,0,1,1,3,1,,,,,,,,,,,,,,,,,,,,,,,,,,,,,,,,,,,,,,,,,,,,,,
613661,001,2022-11-20_23h50.27.897,Info_measure_main_exp,2022.2.2,Win32,59.36127271,,,,,,,,,,,,,,,,,,masks/mask_005.jpg,,,,,,,,,,,,,,,,,,,,,,,,,,,,,,,,,,,,,,,,,,,0,2,2,4,1,,,,,,,,,,,,,,,,,,,,,,,,,,,,,,,,,,,,,,,,,,,,,,
613661,001,2022-11-20_23h50.27.897,Info_measure_main_exp,2022.2.2,Win32,59.36127271,,,,,,,,,,,,,,,,,,masks/mask_001.jpg,,,,,,,,,,,,,,,,,,,,,,,,,,,,,,,,,,,,,,,,,,,0,3,3,0,1,,,,,,,,,,,,,,,,,,,,,,,,,,,,,,,,,,,,,,,,,,,,,,
613661,001,2022-11-20_23h50.27.897,Info_measure_main_exp,2022.2.2,Win32,59.36127271,,,,,,,,,,,,,,,,,,masks/mask_003.jpg,,,,,,,,,,,,,,,,,,,,,,,,,,,,,,,,,,,,,,,,,,,0,4,4,2,1,,,,,,,,,,,,,,,,,,,,,,,,,,,,,,,,,,,,,,,,,,,,,,
613661,001,2022-11-20_23h50.27.897,Info_measure_main_exp,2022.2.2,Win32,59.36127271,,,,,,,,,,,,,,,,,,masks/mask_003.jpg,,,,,,,,,,,,,,,,,,,,,,,,,,,,,,,,,,,,,,,,,,,,,,,,0,0,0,2,1,,,,,,,,,,,,,,,,,,,,,,,,,,,,,,,,,,,,,,,,,
613661,001,2022-11-20_23h50.27.897,Info_measure_main_exp,2022.2.2,Win32,59.36127271,,,,,,,,,,,,,,,,,,masks/mask_004.jpg,,,,,,,,,,,,,,,,,,,,,,,,,,,,,,,,,,,,,,,,,,,,,,,,0,1,1,3,1,,,,,,,,,,,,,,,,,,,,,,,,,,,,,,,,,,,,,,,,,
613661,001,2022-11-20_23h50.27.897,Info_measure_main_exp,2022.2.2,Win32,59.36127271,,,,,,,,,,,,,,,,,,masks/mask_005.jpg,,,,,,,,,,,,,,,,,,,,,,,,,,,,,,,,,,,,,,,,,,,,,,,,0,2,2,4,1,,,,,,,,,,,,,,,,,,,,,,,,,,,,,,,,,,,,,,,,,
613661,001,2022-11-20_23h50.27.897,Info_measure_main_exp,2022.2.2,Win32,59.36127271,,,,,,,,,,,,,,,,,,masks/mask_001.jpg,,,,,,,,,,,,,,,,,,,,,,,,,,,,,,,,,,,,,,,,,,,,,,,,0,3,3,0,1,,,,,,,,,,,,,,,,,,,,,,,,,,,,,,,,,,,,,,,,,
613661,001,2022-11-20_23h50.27.897,Info_measure_main_exp,2022.2.2,Win32,59.36127271,,,,,,,,,,,,,,,,,,masks/mask_002.jpg,,,,,,,,,,,,,,,,,,,,,,,,,,,,,,,,,,,,,,,,,,,,,,,,0,4,4,1,1,,,,,,,,,,,,,,,,,,,,,,,,,,,,,,,,,,,,,,,,,
613661,001,2022-11-20_23h50.27.897,Info_measure_main_exp,2022.2.2,Win32,59.36127271,,,,,,,,,,,,,,,,,,,,,,,,,,,,,,0,0.5832,1,,,,,,,,,,,,0,131,5,5,2082,2082,absent_patch/patch0002082.jpg,absent_patch/patch0002082.jpg,,,,,,,,,,,,,,,,,,,,-0.02407406,0.128703683,1,0,0,response7disk,23,-0.006481453,0.002777771,1,0,0,center_square,0,22,22,74,1,,,,,,,,,,,,,,,,,,,,,,,
613661,001,2022-11-20_23h50.27.897,Info_measure_main_exp,2022.2.2,Win32,59.36127271,,,,,,,,,,,,,,,,,,masks/mask_004.jpg,,,,,,,,,,,,,,,,,,,,,,,,,,,,,,,,,,,,,,,,,,,0,0,0,3,1,,,,,,,,,,,,,,,,,,,,,,,,,,,,,,,,,,,,,,,,,,,,,,
613661,001,2022-11-20_23h50.27.897,Info_measure_main_exp,2022.2.2,Win32,59.36127271,,,,,,,,,,,,,,,,,,masks/mask_003.jpg,,,,,,,,,,,,,,,,,,,,,,,,,,,,,,,,,,,,,,,,,,,0,1,1,2,1,,,,,,,,,,,,,,,,,,,,,,,,,,,,,,,,,,,,,,,,,,,,,,
613661,001,2022-11-20_23h50.27.897,Info_measure_main_exp,2022.2.2,Win32,59.36127271,,,,,,,,,,,,,,,,,,masks/mask_001.jpg,,,,,,,,,,,,,,,,,,,,,,,,,,,,,,,,,,,,,,,,,,,0,2,2,0,1,,,,,,,,,,,,,,,,,,,,,,,,,,,,,,,,,,,,,,,,,,,,,,
613661,001,2022-11-20_23h50.27.897,Info_measure_main_exp,2022.2.2,Win32,59.36127271,,,,,,,,,,,,,,,,,,masks/mask_002.jpg,,,,,,,,,,,,,,,,,,,,,,,,,,,,,,,,,,,,,,,,,,,0,3,3,1,1,,,,,,,,,,,,,,,,,,,,,,,,,,,,,,,,,,,,,,,,,,,,,,
613661,001,2022-11-20_23h50.27.897,Info_measure_main_exp,2022.2.2,Win32,59.36127271,,,,,,,,,,,,,,,,,,masks/mask_005.jpg,,,,,,,,,,,,,,,,,,,,,,,,,,,,,,,,,,,,,,,,,,,0,4,4,4,1,,,,,,,,,,,,,,,,,,,,,,,,,,,,,,,,,,,,,,,,,,,,,,
613661,001,2022-11-20_23h50.27.897,Info_measure_main_exp,2022.2.2,Win32,59.36127271,,,,,,,,,,,,,,,,,,masks/mask_003.jpg,,,,,,,,,,,,,,,,,,,,,,,,,,,,,,,,,,,,,,,,,,,,,,,,0,0,0,2,1,,,,,,,,,,,,,,,,,,,,,,,,,,,,,,,,,,,,,,,,,
613661,001,2022-11-20_23h50.27.897,Info_measure_main_exp,2022.2.2,Win32,59.36127271,,,,,,,,,,,,,,,,,,masks/mask_001.jpg,,,,,,,,,,,,,,,,,,,,,,,,,,,,,,,,,,,,,,,,,,,,,,,,0,1,1,0,1,,,,,,,,,,,,,,,,,,,,,,,,,,,,,,,,,,,,,,,,,
613661,001,2022-11-20_23h50.27.897,Info_measure_main_exp,2022.2.2,Win32,59.36127271,,,,,,,,,,,,,,,,,,masks/mask_002.jpg,,,,,,,,,,,,,,,,,,,,,,,,,,,,,,,,,,,,,,,,,,,,,,,,0,2,2,1,1,,,,,,,,,,,,,,,,,,,,,,,,,,,,,,,,,,,,,,,,,
613661,001,2022-11-20_23h50.27.897,Info_measure_main_exp,2022.2.2,Win32,59.36127271,,,,,,,,,,,,,,,,,,masks/mask_004.jpg,,,,,,,,,,,,,,,,,,,,,,,,,,,,,,,,,,,,,,,,,,,,,,,,0,3,3,3,1,,,,,,,,,,,,,,,,,,,,,,,,,,,,,,,,,,,,,,,,,
613661,001,2022-11-20_23h50.27.897,Info_measure_main_exp,2022.2.2,Win32,59.36127271,,,,,,,,,,,,,,,,,,masks/mask_005.jpg,,,,,,,,,,,,,,,,,,,,,,,,,,,,,,,,,,,,,,,,,,,,,,,,0,4,4,4,1,,,,,,,,,,,,,,,,,,,,,,,,,,,,,,,,,,,,,,,,,
613661,001,2022-11-20_23h50.27.897,Info_measure_main_exp,2022.2.2,Win32,59.36127271,,,,,,,,,,,,,,,,,,,,,,,,,,,,,,7,0.8492,1,,,,,,,,,,,,1,131,5,5,2298,1,absent_patch/patch0002298.jpg,present_patch/cong_131_5_a.jpg,,,,,,,,,,,,,,,,,,,,0.056481467,0.125,1,0,0,response1disk,24,-0.005555541,-0.006481489,1,0,0,center_square,0,23,23,45,1,,,,,,,,,,,,,,,,,,,,,,,
613661,001,2022-11-20_23h50.27.897,Info_measure_main_exp,2022.2.2,Win32,59.36127271,,,,,,,,,,,,,,,,,,masks/mask_001.jpg,,,,,,,,,,,,,,,,,,,,,,,,,,,,,,,,,,,,,,,,,,,0,0,0,0,1,,,,,,,,,,,,,,,,,,,,,,,,,,,,,,,,,,,,,,,,,,,,,,
613661,001,2022-11-20_23h50.27.897,Info_measure_main_exp,2022.2.2,Win32,59.36127271,,,,,,,,,,,,,,,,,,masks/mask_002.jpg,,,,,,,,,,,,,,,,,,,,,,,,,,,,,,,,,,,,,,,,,,,0,1,1,1,1,,,,,,,,,,,,,,,,,,,,,,,,,,,,,,,,,,,,,,,,,,,,,,
613661,001,2022-11-20_23h50.27.897,Info_measure_main_exp,2022.2.2,Win32,59.36127271,,,,,,,,,,,,,,,,,,masks/mask_005.jpg,,,,,,,,,,,,,,,,,,,,,,,,,,,,,,,,,,,,,,,,,,,0,2,2,4,1,,,,,,,,,,,,,,,,,,,,,,,,,,,,,,,,,,,,,,,,,,,,,,
613661,001,2022-11-20_23h50.27.897,Info_measure_main_exp,2022.2.2,Win32,59.36127271,,,,,,,,,,,,,,,,,,masks/mask_004.jpg,,,,,,,,,,,,,,,,,,,,,,,,,,,,,,,,,,,,,,,,,,,0,3,3,3,1,,,,,,,,,,,,,,,,,,,,,,,,,,,,,,,,,,,,,,,,,,,,,,
613661,001,2022-11-20_23h50.27.897,Info_measure_main_exp,2022.2.2,Win32,59.36127271,,,,,,,,,,,,,,,,,,masks/mask_003.jpg,,,,,,,,,,,,,,,,,,,,,,,,,,,,,,,,,,,,,,,,,,,0,4,4,2,1,,,,,,,,,,,,,,,,,,,,,,,,,,,,,,,,,,,,,,,,,,,,,,
613661,001,2022-11-20_23h50.27.897,Info_measure_main_exp,2022.2.2,Win32,59.36127271,,,,,,,,,,,,,,,,,,masks/mask_001.jpg,,,,,,,,,,,,,,,,,,,,,,,,,,,,,,,,,,,,,,,,,,,,,,,,0,0,0,0,1,,,,,,,,,,,,,,,,,,,,,,,,,,,,,,,,,,,,,,,,,
613661,001,2022-11-20_23h50.27.897,Info_measure_main_exp,2022.2.2,Win32,59.36127271,,,,,,,,,,,,,,,,,,masks/mask_002.jpg,,,,,,,,,,,,,,,,,,,,,,,,,,,,,,,,,,,,,,,,,,,,,,,,0,1,1,1,1,,,,,,,,,,,,,,,,,,,,,,,,,,,,,,,,,,,,,,,,,
613661,001,2022-11-20_23h50.27.897,Info_measure_main_exp,2022.2.2,Win32,59.36127271,,,,,,,,,,,,,,,,,,masks/mask_003.jpg,,,,,,,,,,,,,,,,,,,,,,,,,,,,,,,,,,,,,,,,,,,,,,,,0,2,2,2,1,,,,,,,,,,,,,,,,,,,,,,,,,,,,,,,,,,,,,,,,,
613661,001,2022-11-20_23h50.27.897,Info_measure_main_exp,2022.2.2,Win32,59.36127271,,,,,,,,,,,,,,,,,,masks/mask_005.jpg,,,,,,,,,,,,,,,,,,,,,,,,,,,,,,,,,,,,,,,,,,,,,,,,0,3,3,4,1,,,,,,,,,,,,,,,,,,,,,,,,,,,,,,,,,,,,,,,,,
613661,001,2022-11-20_23h50.27.897,Info_measure_main_exp,2022.2.2,Win32,59.36127271,,,,,,,,,,,,,,,,,,masks/mask_004.jpg,,,,,,,,,,,,,,,,,,,,,,,,,,,,,,,,,,,,,,,,,,,,,,,,0,4,4,3,1,,,,,,,,,,,,,,,,,,,,,,,,,,,,,,,,,,,,,,,,,
613661,001,2022-11-20_23h50.27.897,Info_measure_main_exp,2022.2.2,Win32,59.36127271,,,,,,,,,,,,,,,,,,,,,,,,,,,,,,5,0.9829,1,,,,,,,,,,,,0,131,5,5,2154,2238,absent_patch/patch0002154.jpg,absent_patch/patch0002238.jpg,,,,,,,,,,,,,,,,,,,,0.151851866,-0.028703725,1,0,0,response3disk,25,-0.002777735,0.014814801,1,0,0,center_square,0,24,24,21,1,,,,,,,,,,,,,,,,,,,,,,,
613661,001,2022-11-20_23h50.27.897,Info_measure_main_exp,2022.2.2,Win32,59.36127271,,,,,,,,,,,,,,,,,,masks/mask_001.jpg,,,,,,,,,,,,,,,,,,,,,,,,,,,,,,,,,,,,,,,,,,,0,0,0,0,1,,,,,,,,,,,,,,,,,,,,,,,,,,,,,,,,,,,,,,,,,,,,,,
613661,001,2022-11-20_23h50.27.897,Info_measure_main_exp,2022.2.2,Win32,59.36127271,,,,,,,,,,,,,,,,,,masks/mask_004.jpg,,,,,,,,,,,,,,,,,,,,,,,,,,,,,,,,,,,,,,,,,,,0,1,1,3,1,,,,,,,,,,,,,,,,,,,,,,,,,,,,,,,,,,,,,,,,,,,,,,
613661,001,2022-11-20_23h50.27.897,Info_measure_main_exp,2022.2.2,Win32,59.36127271,,,,,,,,,,,,,,,,,,masks/mask_005.jpg,,,,,,,,,,,,,,,,,,,,,,,,,,,,,,,,,,,,,,,,,,,0,2,2,4,1,,,,,,,,,,,,,,,,,,,,,,,,,,,,,,,,,,,,,,,,,,,,,,
613661,001,2022-11-20_23h50.27.897,Info_measure_main_exp,2022.2.2,Win32,59.36127271,,,,,,,,,,,,,,,,,,masks/mask_002.jpg,,,,,,,,,,,,,,,,,,,,,,,,,,,,,,,,,,,,,,,,,,,0,3,3,1,1,,,,,,,,,,,,,,,,,,,,,,,,,,,,,,,,,,,,,,,,,,,,,,
613661,001,2022-11-20_23h50.27.897,Info_measure_main_exp,2022.2.2,Win32,59.36127271,,,,,,,,,,,,,,,,,,masks/mask_003.jpg,,,,,,,,,,,,,,,,,,,,,,,,,,,,,,,,,,,,,,,,,,,0,4,4,2,1,,,,,,,,,,,,,,,,,,,,,,,,,,,,,,,,,,,,,,,,,,,,,,
613661,001,2022-11-20_23h50.27.897,Info_measure_main_exp,2022.2.2,Win32,59.36127271,,,,,,,,,,,,,,,,,,masks/mask_004.jpg,,,,,,,,,,,,,,,,,,,,,,,,,,,,,,,,,,,,,,,,,,,,,,,,0,0,0,3,1,,,,,,,,,,,,,,,,,,,,,,,,,,,,,,,,,,,,,,,,,
613661,001,2022-11-20_23h50.27.897,Info_measure_main_exp,2022.2.2,Win32,59.36127271,,,,,,,,,,,,,,,,,,masks/mask_005.jpg,,,,,,,,,,,,,,,,,,,,,,,,,,,,,,,,,,,,,,,,,,,,,,,,0,1,1,4,1,,,,,,,,,,,,,,,,,,,,,,,,,,,,,,,,,,,,,,,,,
613661,001,2022-11-20_23h50.27.897,Info_measure_main_exp,2022.2.2,Win32,59.36127271,,,,,,,,,,,,,,,,,,masks/mask_002.jpg,,,,,,,,,,,,,,,,,,,,,,,,,,,,,,,,,,,,,,,,,,,,,,,,0,2,2,1,1,,,,,,,,,,,,,,,,,,,,,,,,,,,,,,,,,,,,,,,,,
613661,001,2022-11-20_23h50.27.897,Info_measure_main_exp,2022.2.2,Win32,59.36127271,,,,,,,,,,,,,,,,,,masks/mask_003.jpg,,,,,,,,,,,,,,,,,,,,,,,,,,,,,,,,,,,,,,,,,,,,,,,,0,3,3,2,1,,,,,,,,,,,,,,,,,,,,,,,,,,,,,,,,,,,,,,,,,
613661,001,2022-11-20_23h50.27.897,Info_measure_main_exp,2022.2.2,Win32,59.36127271,,,,,,,,,,,,,,,,,,masks/mask_001.jpg,,,,,,,,,,,,,,,,,,,,,,,,,,,,,,,,,,,,,,,,,,,,,,,,0,4,4,0,1,,,,,,,,,,,,,,,,,,,,,,,,,,,,,,,,,,,,,,,,,
613661,001,2022-11-20_23h50.27.897,Info_measure_main_exp,2022.2.2,Win32,59.36127271,,,,,,,,,,,,,,,,,,,,,,,,,,,,,,7,0.7664,1,,,,,,,,,,,,1,131,5,5,1,1974,present_patch/cong_131_5_a.jpg,absent_patch/patch0001974.jpg,,,,,,,,,,,,,,,,,,,,0.069444444,0.124074053,1,0,0,response1disk,26,0.005555541,-0.00462963,1,0,0,center_square,0,25,25,69,1,,,,,,,,,,,,,,,,,,,,,,,
613661,001,2022-11-20_23h50.27.897,Info_measure_main_exp,2022.2.2,Win32,59.36127271,,,,,,,,,,,,,,,,,,masks/mask_002.jpg,,,,,,,,,,,,,,,,,,,,,,,,,,,,,,,,,,,,,,,,,,,0,0,0,1,1,,,,,,,,,,,,,,,,,,,,,,,,,,,,,,,,,,,,,,,,,,,,,,
613661,001,2022-11-20_23h50.27.897,Info_measure_main_exp,2022.2.2,Win32,59.36127271,,,,,,,,,,,,,,,,,,masks/mask_003.jpg,,,,,,,,,,,,,,,,,,,,,,,,,,,,,,,,,,,,,,,,,,,0,1,1,2,1,,,,,,,,,,,,,,,,,,,,,,,,,,,,,,,,,,,,,,,,,,,,,,
613661,001,2022-11-20_23h50.27.897,Info_measure_main_exp,2022.2.2,Win32,59.36127271,,,,,,,,,,,,,,,,,,masks/mask_004.jpg,,,,,,,,,,,,,,,,,,,,,,,,,,,,,,,,,,,,,,,,,,,0,2,2,3,1,,,,,,,,,,,,,,,,,,,,,,,,,,,,,,,,,,,,,,,,,,,,,,
613661,001,2022-11-20_23h50.27.897,Info_measure_main_exp,2022.2.2,Win32,59.36127271,,,,,,,,,,,,,,,,,,masks/mask_005.jpg,,,,,,,,,,,,,,,,,,,,,,,,,,,,,,,,,,,,,,,,,,,0,3,3,4,1,,,,,,,,,,,,,,,,,,,,,,,,,,,,,,,,,,,,,,,,,,,,,,
613661,001,2022-11-20_23h50.27.897,Info_measure_main_exp,2022.2.2,Win32,59.36127271,,,,,,,,,,,,,,,,,,masks/mask_001.jpg,,,,,,,,,,,,,,,,,,,,,,,,,,,,,,,,,,,,,,,,,,,0,4,4,0,1,,,,,,,,,,,,,,,,,,,,,,,,,,,,,,,,,,,,,,,,,,,,,,
613661,001,2022-11-20_23h50.27.897,Info_measure_main_exp,2022.2.2,Win32,59.36127271,,,,,,,,,,,,,,,,,,masks/mask_001.jpg,,,,,,,,,,,,,,,,,,,,,,,,,,,,,,,,,,,,,,,,,,,,,,,,0,0,0,0,1,,,,,,,,,,,,,,,,,,,,,,,,,,,,,,,,,,,,,,,,,
613661,001,2022-11-20_23h50.27.897,Info_measure_main_exp,2022.2.2,Win32,59.36127271,,,,,,,,,,,,,,,,,,masks/mask_005.jpg,,,,,,,,,,,,,,,,,,,,,,,,,,,,,,,,,,,,,,,,,,,,,,,,0,1,1,4,1,,,,,,,,,,,,,,,,,,,,,,,,,,,,,,,,,,,,,,,,,
613661,001,2022-11-20_23h50.27.897,Info_measure_main_exp,2022.2.2,Win32,59.36127271,,,,,,,,,,,,,,,,,,masks/mask_003.jpg,,,,,,,,,,,,,,,,,,,,,,,,,,,,,,,,,,,,,,,,,,,,,,,,0,2,2,2,1,,,,,,,,,,,,,,,,,,,,,,,,,,,,,,,,,,,,,,,,,
613661,001,2022-11-20_23h50.27.897,Info_measure_main_exp,2022.2.2,Win32,59.36127271,,,,,,,,,,,,,,,,,,masks/mask_004.jpg,,,,,,,,,,,,,,,,,,,,,,,,,,,,,,,,,,,,,,,,,,,,,,,,0,3,3,3,1,,,,,,,,,,,,,,,,,,,,,,,,,,,,,,,,,,,,,,,,,
613661,001,2022-11-20_23h50.27.897,Info_measure_main_exp,2022.2.2,Win32,59.36127271,,,,,,,,,,,,,,,,,,masks/mask_002.jpg,,,,,,,,,,,,,,,,,,,,,,,,,,,,,,,,,,,,,,,,,,,,,,,,0,4,4,1,1,,,,,,,,,,,,,,,,,,,,,,,,,,,,,,,,,,,,,,,,,
613661,001,2022-11-20_23h50.27.897,Info_measure_main_exp,2022.2.2,Win32,59.36127271,,,,,,,,,,,,,,,,,,,,,,,,,,,,,,5,1.2499,1,,,,,,,,,,,,0,131,5,5,2214,2082,absent_patch/patch0002214.jpg,absent_patch/patch0002082.jpg,,,,,,,,,,,,,,,,,,,,0.125925912,-0.065740762,1,0,0,response3disk,27,0.003703718,0.00462963,1,0,0,center_square,0,26,26,103,1,,,,,,,,,,,,,,,,,,,,,,,
613661,001,2022-11-20_23h50.27.897,Info_measure_main_exp,2022.2.2,Win32,59.36127271,,,,,,,,,,,,,,,,,,masks/mask_004.jpg,,,,,,,,,,,,,,,,,,,,,,,,,,,,,,,,,,,,,,,,,,,0,0,0,3,1,,,,,,,,,,,,,,,,,,,,,,,,,,,,,,,,,,,,,,,,,,,,,,
613661,001,2022-11-20_23h50.27.897,Info_measure_main_exp,2022.2.2,Win32,59.36127271,,,,,,,,,,,,,,,,,,masks/mask_001.jpg,,,,,,,,,,,,,,,,,,,,,,,,,,,,,,,,,,,,,,,,,,,0,1,1,0,1,,,,,,,,,,,,,,,,,,,,,,,,,,,,,,,,,,,,,,,,,,,,,,
613661,001,2022-11-20_23h50.27.897,Info_measure_main_exp,2022.2.2,Win32,59.36127271,,,,,,,,,,,,,,,,,,masks/mask_005.jpg,,,,,,,,,,,,,,,,,,,,,,,,,,,,,,,,,,,,,,,,,,,0,2,2,4,1,,,,,,,,,,,,,,,,,,,,,,,,,,,,,,,,,,,,,,,,,,,,,,
613661,001,2022-11-20_23h50.27.897,Info_measure_main_exp,2022.2.2,Win32,59.36127271,,,,,,,,,,,,,,,,,,masks/mask_002.jpg,,,,,,,,,,,,,,,,,,,,,,,,,,,,,,,,,,,,,,,,,,,0,3,3,1,1,,,,,,,,,,,,,,,,,,,,,,,,,,,,,,,,,,,,,,,,,,,,,,
613661,001,2022-11-20_23h50.27.897,Info_measure_main_exp,2022.2.2,Win32,59.36127271,,,,,,,,,,,,,,,,,,masks/mask_003.jpg,,,,,,,,,,,,,,,,,,,,,,,,,,,,,,,,,,,,,,,,,,,0,4,4,2,1,,,,,,,,,,,,,,,,,,,,,,,,,,,,,,,,,,,,,,,,,,,,,,
613661,001,2022-11-20_23h50.27.897,Info_measure_main_exp,2022.2.2,Win32,59.36127271,,,,,,,,,,,,,,,,,,masks/mask_001.jpg,,,,,,,,,,,,,,,,,,,,,,,,,,,,,,,,,,,,,,,,,,,,,,,,0,0,0,0,1,,,,,,,,,,,,,,,,,,,,,,,,,,,,,,,,,,,,,,,,,
613661,001,2022-11-20_23h50.27.897,Info_measure_main_exp,2022.2.2,Win32,59.36127271,,,,,,,,,,,,,,,,,,masks/mask_002.jpg,,,,,,,,,,,,,,,,,,,,,,,,,,,,,,,,,,,,,,,,,,,,,,,,0,1,1,1,1,,,,,,,,,,,,,,,,,,,,,,,,,,,,,,,,,,,,,,,,,
613661,001,2022-11-20_23h50.27.897,Info_measure_main_exp,2022.2.2,Win32,59.36127271,,,,,,,,,,,,,,,,,,masks/mask_005.jpg,,,,,,,,,,,,,,,,,,,,,,,,,,,,,,,,,,,,,,,,,,,,,,,,0,2,2,4,1,,,,,,,,,,,,,,,,,,,,,,,,,,,,,,,,,,,,,,,,,
613661,001,2022-11-20_23h50.27.897,Info_measure_main_exp,2022.2.2,Win32,59.36127271,,,,,,,,,,,,,,,,,,masks/mask_004.jpg,,,,,,,,,,,,,,,,,,,,,,,,,,,,,,,,,,,,,,,,,,,,,,,,0,3,3,3,1,,,,,,,,,,,,,,,,,,,,,,,,,,,,,,,,,,,,,,,,,
613661,001,2022-11-20_23h50.27.897,Info_measure_main_exp,2022.2.2,Win32,59.36127271,,,,,,,,,,,,,,,,,,masks/mask_003.jpg,,,,,,,,,,,,,,,,,,,,,,,,,,,,,,,,,,,,,,,,,,,,,,,,0,4,4,2,1,,,,,,,,,,,,,,,,,,,,,,,,,,,,,,,,,,,,,,,,,
613661,001,2022-11-20_23h50.27.897,Info_measure_main_exp,2022.2.2,Win32,59.36127271,,,,,,,,,,,,,,,,,,,,,,,,,,,,,,6,0.5497,1,,,,,,,,,,,,0,131,5,5,2154,1950,absent_patch/patch0002154.jpg,absent_patch/patch0001950.jpg,,,,,,,,,,,,,,,,,,,,0.094444487,0.027777778,1,0,0,response1disk,28,0.005555541,-0.000925947,1,0,0,center_square,0,27,27,96,1,,,,,,,,,,,,,,,,,,,,,,,
613661,001,2022-11-20_23h50.27.897,Info_measure_main_exp,2022.2.2,Win32,59.36127271,,,,,,,,,,,,,,,,,,masks/mask_001.jpg,,,,,,,,,,,,,,,,,,,,,,,,,,,,,,,,,,,,,,,,,,,0,0,0,0,1,,,,,,,,,,,,,,,,,,,,,,,,,,,,,,,,,,,,,,,,,,,,,,
613661,001,2022-11-20_23h50.27.897,Info_measure_main_exp,2022.2.2,Win32,59.36127271,,,,,,,,,,,,,,,,,,masks/mask_003.jpg,,,,,,,,,,,,,,,,,,,,,,,,,,,,,,,,,,,,,,,,,,,0,1,1,2,1,,,,,,,,,,,,,,,,,,,,,,,,,,,,,,,,,,,,,,,,,,,,,,
613661,001,2022-11-20_23h50.27.897,Info_measure_main_exp,2022.2.2,Win32,59.36127271,,,,,,,,,,,,,,,,,,masks/mask_005.jpg,,,,,,,,,,,,,,,,,,,,,,,,,,,,,,,,,,,,,,,,,,,0,2,2,4,1,,,,,,,,,,,,,,,,,,,,,,,,,,,,,,,,,,,,,,,,,,,,,,
613661,001,2022-11-20_23h50.27.897,Info_measure_main_exp,2022.2.2,Win32,59.36127271,,,,,,,,,,,,,,,,,,masks/mask_004.jpg,,,,,,,,,,,,,,,,,,,,,,,,,,,,,,,,,,,,,,,,,,,0,3,3,3,1,,,,,,,,,,,,,,,,,,,,,,,,,,,,,,,,,,,,,,,,,,,,,,
613661,001,2022-11-20_23h50.27.897,Info_measure_main_exp,2022.2.2,Win32,59.36127271,,,,,,,,,,,,,,,,,,masks/mask_002.jpg,,,,,,,,,,,,,,,,,,,,,,,,,,,,,,,,,,,,,,,,,,,0,4,4,1,1,,,,,,,,,,,,,,,,,,,,,,,,,,,,,,,,,,,,,,,,,,,,,,
613661,001,2022-11-20_23h50.27.897,Info_measure_main_exp,2022.2.2,Win32,59.36127271,,,,,,,,,,,,,,,,,,masks/mask_002.jpg,,,,,,,,,,,,,,,,,,,,,,,,,,,,,,,,,,,,,,,,,,,,,,,,0,0,0,1,1,,,,,,,,,,,,,,,,,,,,,,,,,,,,,,,,,,,,,,,,,
613661,001,2022-11-20_23h50.27.897,Info_measure_main_exp,2022.2.2,Win32,59.36127271,,,,,,,,,,,,,,,,,,masks/mask_004.jpg,,,,,,,,,,,,,,,,,,,,,,,,,,,,,,,,,,,,,,,,,,,,,,,,0,1,1,3,1,,,,,,,,,,,,,,,,,,,,,,,,,,,,,,,,,,,,,,,,,
613661,001,2022-11-20_23h50.27.897,Info_measure_main_exp,2022.2.2,Win32,59.36127271,,,,,,,,,,,,,,,,,,masks/mask_003.jpg,,,,,,,,,,,,,,,,,,,,,,,,,,,,,,,,,,,,,,,,,,,,,,,,0,2,2,2,1,,,,,,,,,,,,,,,,,,,,,,,,,,,,,,,,,,,,,,,,,
613661,001,2022-11-20_23h50.27.897,Info_measure_main_exp,2022.2.2,Win32,59.36127271,,,,,,,,,,,,,,,,,,masks/mask_001.jpg,,,,,,,,,,,,,,,,,,,,,,,,,,,,,,,,,,,,,,,,,,,,,,,,0,3,3,0,1,,,,,,,,,,,,,,,,,,,,,,,,,,,,,,,,,,,,,,,,,
613661,001,2022-11-20_23h50.27.897,Info_measure_main_exp,2022.2.2,Win32,59.36127271,,,,,,,,,,,,,,,,,,masks/mask_005.jpg,,,,,,,,,,,,,,,,,,,,,,,,,,,,,,,,,,,,,,,,,,,,,,,,0,4,4,4,1,,,,,,,,,,,,,,,,,,,,,,,,,,,,,,,,,,,,,,,,,
613661,001,2022-11-20_23h50.27.897,Info_measure_main_exp,2022.2.2,Win32,59.36127271,,,,,,,,,,,,,,,,,,,,,,,,,,,,,,0,0.5992,1,,,,,,,,,,,,0,131,5,5,2274,2274,absent_patch/patch0002274.jpg,absent_patch/patch0002274.jpg,,,,,,,,,,,,,,,,,,,,-0.06759255,0.133333312,1,0,0,response7disk,29,-0.000925912,-0.006481489,1,0,0,center_square,0,28,28,114,1,,,,,,,,,,,,,,,,,,,,,,,
613661,001,2022-11-20_23h50.27.897,Info_measure_main_exp,2022.2.2,Win32,59.36127271,,,,,,,,,,,,,,,,,,masks/mask_005.jpg,,,,,,,,,,,,,,,,,,,,,,,,,,,,,,,,,,,,,,,,,,,0,0,0,4,1,,,,,,,,,,,,,,,,,,,,,,,,,,,,,,,,,,,,,,,,,,,,,,
613661,001,2022-11-20_23h50.27.897,Info_measure_main_exp,2022.2.2,Win32,59.36127271,,,,,,,,,,,,,,,,,,masks/mask_001.jpg,,,,,,,,,,,,,,,,,,,,,,,,,,,,,,,,,,,,,,,,,,,0,1,1,0,1,,,,,,,,,,,,,,,,,,,,,,,,,,,,,,,,,,,,,,,,,,,,,,
613661,001,2022-11-20_23h50.27.897,Info_measure_main_exp,2022.2.2,Win32,59.36127271,,,,,,,,,,,,,,,,,,masks/mask_004.jpg,,,,,,,,,,,,,,,,,,,,,,,,,,,,,,,,,,,,,,,,,,,0,2,2,3,1,,,,,,,,,,,,,,,,,,,,,,,,,,,,,,,,,,,,,,,,,,,,,,
613661,001,2022-11-20_23h50.27.897,Info_measure_main_exp,2022.2.2,Win32,59.36127271,,,,,,,,,,,,,,,,,,masks/mask_003.jpg,,,,,,,,,,,,,,,,,,,,,,,,,,,,,,,,,,,,,,,,,,,0,3,3,2,1,,,,,,,,,,,,,,,,,,,,,,,,,,,,,,,,,,,,,,,,,,,,,,
613661,001,2022-11-20_23h50.27.897,Info_measure_main_exp,2022.2.2,Win32,59.36127271,,,,,,,,,,,,,,,,,,masks/mask_002.jpg,,,,,,,,,,,,,,,,,,,,,,,,,,,,,,,,,,,,,,,,,,,0,4,4,1,1,,,,,,,,,,,,,,,,,,,,,,,,,,,,,,,,,,,,,,,,,,,,,,
613661,001,2022-11-20_23h50.27.897,Info_measure_main_exp,2022.2.2,Win32,59.36127271,,,,,,,,,,,,,,,,,,masks/mask_003.jpg,,,,,,,,,,,,,,,,,,,,,,,,,,,,,,,,,,,,,,,,,,,,,,,,0,0,0,2,1,,,,,,,,,,,,,,,,,,,,,,,,,,,,,,,,,,,,,,,,,
613661,001,2022-11-20_23h50.27.897,Info_measure_main_exp,2022.2.2,Win32,59.36127271,,,,,,,,,,,,,,,,,,masks/mask_001.jpg,,,,,,,,,,,,,,,,,,,,,,,,,,,,,,,,,,,,,,,,,,,,,,,,0,1,1,0,1,,,,,,,,,,,,,,,,,,,,,,,,,,,,,,,,,,,,,,,,,
613661,001,2022-11-20_23h50.27.897,Info_measure_main_exp,2022.2.2,Win32,59.36127271,,,,,,,,,,,,,,,,,,masks/mask_002.jpg,,,,,,,,,,,,,,,,,,,,,,,,,,,,,,,,,,,,,,,,,,,,,,,,0,2,2,1,1,,,,,,,,,,,,,,,,,,,,,,,,,,,,,,,,,,,,,,,,,
613661,001,2022-11-20_23h50.27.897,Info_measure_main_exp,2022.2.2,Win32,59.36127271,,,,,,,,,,,,,,,,,,masks/mask_005.jpg,,,,,,,,,,,,,,,,,,,,,,,,,,,,,,,,,,,,,,,,,,,,,,,,0,3,3,4,1,,,,,,,,,,,,,,,,,,,,,,,,,,,,,,,,,,,,,,,,,
613661,001,2022-11-20_23h50.27.897,Info_measure_main_exp,2022.2.2,Win32,59.36127271,,,,,,,,,,,,,,,,,,masks/mask_004.jpg,,,,,,,,,,,,,,,,,,,,,,,,,,,,,,,,,,,,,,,,,,,,,,,,0,4,4,3,1,,,,,,,,,,,,,,,,,,,,,,,,,,,,,,,,,,,,,,,,,
613661,001,2022-11-20_23h50.27.897,Info_measure_main_exp,2022.2.2,Win32,59.36127271,,,,,,,,,,,,,,,,,,,,,,,,,,,,,,0,0.5501,1,,,,,,,,,,,,0,131,5,5,2154,2154,absent_patch/patch0002154.jpg,absent_patch/patch0002154.jpg,,,,,,,,,,,,,,,,,,,,-0.080555527,0.171296296,1,0,0,response7disk,30,-0.002777735,0.002777771,1,0,0,center_square,0,29,29,89,1,,,,,,,,,,,,,,,,,,,,,,,
613661,001,2022-11-20_23h50.27.897,Info_measure_main_exp,2022.2.2,Win32,59.36127271,,,,,,,,,,,,,,,,,,masks/mask_005.jpg,,,,,,,,,,,,,,,,,,,,,,,,,,,,,,,,,,,,,,,,,,,0,0,0,4,1,,,,,,,,,,,,,,,,,,,,,,,,,,,,,,,,,,,,,,,,,,,,,,
613661,001,2022-11-20_23h50.27.897,Info_measure_main_exp,2022.2.2,Win32,59.36127271,,,,,,,,,,,,,,,,,,masks/mask_001.jpg,,,,,,,,,,,,,,,,,,,,,,,,,,,,,,,,,,,,,,,,,,,0,1,1,0,1,,,,,,,,,,,,,,,,,,,,,,,,,,,,,,,,,,,,,,,,,,,,,,
613661,001,2022-11-20_23h50.27.897,Info_measure_main_exp,2022.2.2,Win32,59.36127271,,,,,,,,,,,,,,,,,,masks/mask_002.jpg,,,,,,,,,,,,,,,,,,,,,,,,,,,,,,,,,,,,,,,,,,,0,2,2,1,1,,,,,,,,,,,,,,,,,,,,,,,,,,,,,,,,,,,,,,,,,,,,,,
613661,001,2022-11-20_23h50.27.897,Info_measure_main_exp,2022.2.2,Win32,59.36127271,,,,,,,,,,,,,,,,,,masks/mask_003.jpg,,,,,,,,,,,,,,,,,,,,,,,,,,,,,,,,,,,,,,,,,,,0,3,3,2,1,,,,,,,,,,,,,,,,,,,,,,,,,,,,,,,,,,,,,,,,,,,,,,
613661,001,2022-11-20_23h50.27.897,Info_measure_main_exp,2022.2.2,Win32,59.36127271,,,,,,,,,,,,,,,,,,masks/mask_004.jpg,,,,,,,,,,,,,,,,,,,,,,,,,,,,,,,,,,,,,,,,,,,0,4,4,3,1,,,,,,,,,,,,,,,,,,,,,,,,,,,,,,,,,,,,,,,,,,,,,,
613661,001,2022-11-20_23h50.27.897,Info_measure_main_exp,2022.2.2,Win32,59.36127271,,,,,,,,,,,,,,,,,,masks/mask_004.jpg,,,,,,,,,,,,,,,,,,,,,,,,,,,,,,,,,,,,,,,,,,,,,,,,0,0,0,3,1,,,,,,,,,,,,,,,,,,,,,,,,,,,,,,,,,,,,,,,,,
613661,001,2022-11-20_23h50.27.897,Info_measure_main_exp,2022.2.2,Win32,59.36127271,,,,,,,,,,,,,,,,,,masks/mask_005.jpg,,,,,,,,,,,,,,,,,,,,,,,,,,,,,,,,,,,,,,,,,,,,,,,,0,1,1,4,1,,,,,,,,,,,,,,,,,,,,,,,,,,,,,,,,,,,,,,,,,
613661,001,2022-11-20_23h50.27.897,Info_measure_main_exp,2022.2.2,Win32,59.36127271,,,,,,,,,,,,,,,,,,masks/mask_002.jpg,,,,,,,,,,,,,,,,,,,,,,,,,,,,,,,,,,,,,,,,,,,,,,,,0,2,2,1,1,,,,,,,,,,,,,,,,,,,,,,,,,,,,,,,,,,,,,,,,,
613661,001,2022-11-20_23h50.27.897,Info_measure_main_exp,2022.2.2,Win32,59.36127271,,,,,,,,,,,,,,,,,,masks/mask_003.jpg,,,,,,,,,,,,,,,,,,,,,,,,,,,,,,,,,,,,,,,,,,,,,,,,0,3,3,2,1,,,,,,,,,,,,,,,,,,,,,,,,,,,,,,,,,,,,,,,,,
613661,001,2022-11-20_23h50.27.897,Info_measure_main_exp,2022.2.2,Win32,59.36127271,,,,,,,,,,,,,,,,,,masks/mask_001.jpg,,,,,,,,,,,,,,,,,,,,,,,,,,,,,,,,,,,,,,,,,,,,,,,,0,4,4,0,1,,,,,,,,,,,,,,,,,,,,,,,,,,,,,,,,,,,,,,,,,
613661,001,2022-11-20_23h50.27.897,Info_measure_main_exp,2022.2.2,Win32,59.36127271,,,,,,,,,,,,,,,,,,,,,,,,,,,,,,0,0.4668,1,,,,,,,,,,,,0,131,5,5,2190,2190,absent_patch/patch0002190.jpg,absent_patch/patch0002190.jpg,,,,,,,,,,,,,,,,,,,,-0.065740727,0.148148148,1,0,0,response7disk,31,0,0.001851859,1,0,0,center_square,0,30,30,86,1,,,,,,,,,,,,,,,,,,,,,,,
613661,001,2022-11-20_23h50.27.897,Info_measure_main_exp,2022.2.2,Win32,59.36127271,,,,,,,,,,,,,,,,,,masks/mask_005.jpg,,,,,,,,,,,,,,,,,,,,,,,,,,,,,,,,,,,,,,,,,,,0,0,0,4,1,,,,,,,,,,,,,,,,,,,,,,,,,,,,,,,,,,,,,,,,,,,,,,
613661,001,2022-11-20_23h50.27.897,Info_measure_main_exp,2022.2.2,Win32,59.36127271,,,,,,,,,,,,,,,,,,masks/mask_001.jpg,,,,,,,,,,,,,,,,,,,,,,,,,,,,,,,,,,,,,,,,,,,0,1,1,0,1,,,,,,,,,,,,,,,,,,,,,,,,,,,,,,,,,,,,,,,,,,,,,,
613661,001,2022-11-20_23h50.27.897,Info_measure_main_exp,2022.2.2,Win32,59.36127271,,,,,,,,,,,,,,,,,,masks/mask_004.jpg,,,,,,,,,,,,,,,,,,,,,,,,,,,,,,,,,,,,,,,,,,,0,2,2,3,1,,,,,,,,,,,,,,,,,,,,,,,,,,,,,,,,,,,,,,,,,,,,,,
613661,001,2022-11-20_23h50.27.897,Info_measure_main_exp,2022.2.2,Win32,59.36127271,,,,,,,,,,,,,,,,,,masks/mask_002.jpg,,,,,,,,,,,,,,,,,,,,,,,,,,,,,,,,,,,,,,,,,,,0,3,3,1,1,,,,,,,,,,,,,,,,,,,,,,,,,,,,,,,,,,,,,,,,,,,,,,
613661,001,2022-11-20_23h50.27.897,Info_measure_main_exp,2022.2.2,Win32,59.36127271,,,,,,,,,,,,,,,,,,masks/mask_003.jpg,,,,,,,,,,,,,,,,,,,,,,,,,,,,,,,,,,,,,,,,,,,0,4,4,2,1,,,,,,,,,,,,,,,,,,,,,,,,,,,,,,,,,,,,,,,,,,,,,,
613661,001,2022-11-20_23h50.27.897,Info_measure_main_exp,2022.2.2,Win32,59.36127271,,,,,,,,,,,,,,,,,,masks/mask_002.jpg,,,,,,,,,,,,,,,,,,,,,,,,,,,,,,,,,,,,,,,,,,,,,,,,0,0,0,1,1,,,,,,,,,,,,,,,,,,,,,,,,,,,,,,,,,,,,,,,,,
613661,001,2022-11-20_23h50.27.897,Info_measure_main_exp,2022.2.2,Win32,59.36127271,,,,,,,,,,,,,,,,,,masks/mask_004.jpg,,,,,,,,,,,,,,,,,,,,,,,,,,,,,,,,,,,,,,,,,,,,,,,,0,1,1,3,1,,,,,,,,,,,,,,,,,,,,,,,,,,,,,,,,,,,,,,,,,
613661,001,2022-11-20_23h50.27.897,Info_measure_main_exp,2022.2.2,Win32,59.36127271,,,,,,,,,,,,,,,,,,masks/mask_001.jpg,,,,,,,,,,,,,,,,,,,,,,,,,,,,,,,,,,,,,,,,,,,,,,,,0,2,2,0,1,,,,,,,,,,,,,,,,,,,,,,,,,,,,,,,,,,,,,,,,,
613661,001,2022-11-20_23h50.27.897,Info_measure_main_exp,2022.2.2,Win32,59.36127271,,,,,,,,,,,,,,,,,,masks/mask_005.jpg,,,,,,,,,,,,,,,,,,,,,,,,,,,,,,,,,,,,,,,,,,,,,,,,0,3,3,4,1,,,,,,,,,,,,,,,,,,,,,,,,,,,,,,,,,,,,,,,,,
613661,001,2022-11-20_23h50.27.897,Info_measure_main_exp,2022.2.2,Win32,59.36127271,,,,,,,,,,,,,,,,,,masks/mask_003.jpg,,,,,,,,,,,,,,,,,,,,,,,,,,,,,,,,,,,,,,,,,,,,,,,,0,4,4,2,1,,,,,,,,,,,,,,,,,,,,,,,,,,,,,,,,,,,,,,,,,
613661,001,2022-11-20_23h50.27.897,Info_measure_main_exp,2022.2.2,Win32,59.36127271,,,,,,,,,,,,,,,,,,,,,,,,,,,,,,6,1.1828,1,,,,,,,,,,,,0,131,5,5,2274,2082,absent_patch/patch0002274.jpg,absent_patch/patch0002082.jpg,,,,,,,,,,,,,,,,,,,,0.135185171,0.022222201,1,0,0,response1disk,32,-0.00462963,0.002777771,1,0,0,center_square,0,31,31,100,1,,,,,,,,,,,,,,,,,,,,,,,
613661,001,2022-11-20_23h50.27.897,Info_measure_main_exp,2022.2.2,Win32,59.36127271,,,,,,,,,,,,,,,,,,masks/mask_004.jpg,,,,,,,,,,,,,,,,,,,,,,,,,,,,,,,,,,,,,,,,,,,0,0,0,3,1,,,,,,,,,,,,,,,,,,,,,,,,,,,,,,,,,,,,,,,,,,,,,,
613661,001,2022-11-20_23h50.27.897,Info_measure_main_exp,2022.2.2,Win32,59.36127271,,,,,,,,,,,,,,,,,,masks/mask_001.jpg,,,,,,,,,,,,,,,,,,,,,,,,,,,,,,,,,,,,,,,,,,,0,1,1,0,1,,,,,,,,,,,,,,,,,,,,,,,,,,,,,,,,,,,,,,,,,,,,,,
613661,001,2022-11-20_23h50.27.897,Info_measure_main_exp,2022.2.2,Win32,59.36127271,,,,,,,,,,,,,,,,,,masks/mask_005.jpg,,,,,,,,,,,,,,,,,,,,,,,,,,,,,,,,,,,,,,,,,,,0,2,2,4,1,,,,,,,,,,,,,,,,,,,,,,,,,,,,,,,,,,,,,,,,,,,,,,
613661,001,2022-11-20_23h50.27.897,Info_measure_main_exp,2022.2.2,Win32,59.36127271,,,,,,,,,,,,,,,,,,masks/mask_002.jpg,,,,,,,,,,,,,,,,,,,,,,,,,,,,,,,,,,,,,,,,,,,0,3,3,1,1,,,,,,,,,,,,,,,,,,,,,,,,,,,,,,,,,,,,,,,,,,,,,,
613661,001,2022-11-20_23h50.27.897,Info_measure_main_exp,2022.2.2,Win32,59.36127271,,,,,,,,,,,,,,,,,,masks/mask_003.jpg,,,,,,,,,,,,,,,,,,,,,,,,,,,,,,,,,,,,,,,,,,,0,4,4,2,1,,,,,,,,,,,,,,,,,,,,,,,,,,,,,,,,,,,,,,,,,,,,,,
613661,001,2022-11-20_23h50.27.897,Info_measure_main_exp,2022.2.2,Win32,59.36127271,,,,,,,,,,,,,,,,,,masks/mask_004.jpg,,,,,,,,,,,,,,,,,,,,,,,,,,,,,,,,,,,,,,,,,,,,,,,,0,0,0,3,1,,,,,,,,,,,,,,,,,,,,,,,,,,,,,,,,,,,,,,,,,
613661,001,2022-11-20_23h50.27.897,Info_measure_main_exp,2022.2.2,Win32,59.36127271,,,,,,,,,,,,,,,,,,masks/mask_002.jpg,,,,,,,,,,,,,,,,,,,,,,,,,,,,,,,,,,,,,,,,,,,,,,,,0,1,1,1,1,,,,,,,,,,,,,,,,,,,,,,,,,,,,,,,,,,,,,,,,,
613661,001,2022-11-20_23h50.27.897,Info_measure_main_exp,2022.2.2,Win32,59.36127271,,,,,,,,,,,,,,,,,,masks/mask_003.jpg,,,,,,,,,,,,,,,,,,,,,,,,,,,,,,,,,,,,,,,,,,,,,,,,0,2,2,2,1,,,,,,,,,,,,,,,,,,,,,,,,,,,,,,,,,,,,,,,,,
613661,001,2022-11-20_23h50.27.897,Info_measure_main_exp,2022.2.2,Win32,59.36127271,,,,,,,,,,,,,,,,,,masks/mask_005.jpg,,,,,,,,,,,,,,,,,,,,,,,,,,,,,,,,,,,,,,,,,,,,,,,,0,3,3,4,1,,,,,,,,,,,,,,,,,,,,,,,,,,,,,,,,,,,,,,,,,
613661,001,2022-11-20_23h50.27.897,Info_measure_main_exp,2022.2.2,Win32,59.36127271,,,,,,,,,,,,,,,,,,masks/mask_001.jpg,,,,,,,,,,,,,,,,,,,,,,,,,,,,,,,,,,,,,,,,,,,,,,,,0,4,4,0,1,,,,,,,,,,,,,,,,,,,,,,,,,,,,,,,,,,,,,,,,,
613661,001,2022-11-20_23h50.27.897,Info_measure_main_exp,2022.2.2,Win32,59.36127271,,,,,,,,,,,,,,,,,,,,,,,,,,,,,,5,0.7662,1,,,,,,,,,,,,0,131,5,5,2250,2214,absent_patch/patch0002250.jpg,absent_patch/patch0002214.jpg,,,,,,,,,,,,,,,,,,,,0.113888917,-0.050000014,1,0,0,response3disk,33,0.001851894,0.002777771,1,0,0,center_square,0,32,32,97,1,,,,,,,,,,,,,,,,,,,,,,,
613661,001,2022-11-20_23h50.27.897,Info_measure_main_exp,2022.2.2,Win32,59.36127271,,,,,,,,,,,,,,,,,,masks/mask_001.jpg,,,,,,,,,,,,,,,,,,,,,,,,,,,,,,,,,,,,,,,,,,,0,0,0,0,1,,,,,,,,,,,,,,,,,,,,,,,,,,,,,,,,,,,,,,,,,,,,,,
613661,001,2022-11-20_23h50.27.897,Info_measure_main_exp,2022.2.2,Win32,59.36127271,,,,,,,,,,,,,,,,,,masks/mask_004.jpg,,,,,,,,,,,,,,,,,,,,,,,,,,,,,,,,,,,,,,,,,,,0,1,1,3,1,,,,,,,,,,,,,,,,,,,,,,,,,,,,,,,,,,,,,,,,,,,,,,
613661,001,2022-11-20_23h50.27.897,Info_measure_main_exp,2022.2.2,Win32,59.36127271,,,,,,,,,,,,,,,,,,masks/mask_005.jpg,,,,,,,,,,,,,,,,,,,,,,,,,,,,,,,,,,,,,,,,,,,0,2,2,4,1,,,,,,,,,,,,,,,,,,,,,,,,,,,,,,,,,,,,,,,,,,,,,,
613661,001,2022-11-20_23h50.27.897,Info_measure_main_exp,2022.2.2,Win32,59.36127271,,,,,,,,,,,,,,,,,,masks/mask_003.jpg,,,,,,,,,,,,,,,,,,,,,,,,,,,,,,,,,,,,,,,,,,,0,3,3,2,1,,,,,,,,,,,,,,,,,,,,,,,,,,,,,,,,,,,,,,,,,,,,,,
613661,001,2022-11-20_23h50.27.897,Info_measure_main_exp,2022.2.2,Win32,59.36127271,,,,,,,,,,,,,,,,,,masks/mask_002.jpg,,,,,,,,,,,,,,,,,,,,,,,,,,,,,,,,,,,,,,,,,,,0,4,4,1,1,,,,,,,,,,,,,,,,,,,,,,,,,,,,,,,,,,,,,,,,,,,,,,
613661,001,2022-11-20_23h50.27.897,Info_measure_main_exp,2022.2.2,Win32,59.36127271,,,,,,,,,,,,,,,,,,masks/mask_005.jpg,,,,,,,,,,,,,,,,,,,,,,,,,,,,,,,,,,,,,,,,,,,,,,,,0,0,0,4,1,,,,,,,,,,,,,,,,,,,,,,,,,,,,,,,,,,,,,,,,,
613661,001,2022-11-20_23h50.27.897,Info_measure_main_exp,2022.2.2,Win32,59.36127271,,,,,,,,,,,,,,,,,,masks/mask_003.jpg,,,,,,,,,,,,,,,,,,,,,,,,,,,,,,,,,,,,,,,,,,,,,,,,0,1,1,2,1,,,,,,,,,,,,,,,,,,,,,,,,,,,,,,,,,,,,,,,,,
613661,001,2022-11-20_23h50.27.897,Info_measure_main_exp,2022.2.2,Win32,59.36127271,,,,,,,,,,,,,,,,,,masks/mask_001.jpg,,,,,,,,,,,,,,,,,,,,,,,,,,,,,,,,,,,,,,,,,,,,,,,,0,2,2,0,1,,,,,,,,,,,,,,,,,,,,,,,,,,,,,,,,,,,,,,,,,
613661,001,2022-11-20_23h50.27.897,Info_measure_main_exp,2022.2.2,Win32,59.36127271,,,,,,,,,,,,,,,,,,masks/mask_002.jpg,,,,,,,,,,,,,,,,,,,,,,,,,,,,,,,,,,,,,,,,,,,,,,,,0,3,3,1,1,,,,,,,,,,,,,,,,,,,,,,,,,,,,,,,,,,,,,,,,,
613661,001,2022-11-20_23h50.27.897,Info_measure_main_exp,2022.2.2,Win32,59.36127271,,,,,,,,,,,,,,,,,,masks/mask_004.jpg,,,,,,,,,,,,,,,,,,,,,,,,,,,,,,,,,,,,,,,,,,,,,,,,0,4,4,3,1,,,,,,,,,,,,,,,,,,,,,,,,,,,,,,,,,,,,,,,,,
613661,001,2022-11-20_23h50.27.897,Info_measure_main_exp,2022.2.2,Win32,59.36127271,,,,,,,,,,,,,,,,,,,,,,,,,,,,,,7,0.7163,1,,,,,,,,,,,,0,131,5,5,2154,1974,absent_patch/patch0002154.jpg,absent_patch/patch0001974.jpg,,,,,,,,,,,,,,,,,,,,0.085185228,0.143518519,1,0,0,response1disk,34,0,0.0074074,1,0,0,center_square,0,33,33,82,1,,,,,,,,,,,,,,,,,,,,,,,
613661,001,2022-11-20_23h50.27.897,Info_measure_main_exp,2022.2.2,Win32,59.36127271,,,,,,,,,,,,,,,,,,masks/mask_004.jpg,,,,,,,,,,,,,,,,,,,,,,,,,,,,,,,,,,,,,,,,,,,0,0,0,3,1,,,,,,,,,,,,,,,,,,,,,,,,,,,,,,,,,,,,,,,,,,,,,,
613661,001,2022-11-20_23h50.27.897,Info_measure_main_exp,2022.2.2,Win32,59.36127271,,,,,,,,,,,,,,,,,,masks/mask_003.jpg,,,,,,,,,,,,,,,,,,,,,,,,,,,,,,,,,,,,,,,,,,,0,1,1,2,1,,,,,,,,,,,,,,,,,,,,,,,,,,,,,,,,,,,,,,,,,,,,,,
613661,001,2022-11-20_23h50.27.897,Info_measure_main_exp,2022.2.2,Win32,59.36127271,,,,,,,,,,,,,,,,,,masks/mask_005.jpg,,,,,,,,,,,,,,,,,,,,,,,,,,,,,,,,,,,,,,,,,,,0,2,2,4,1,,,,,,,,,,,,,,,,,,,,,,,,,,,,,,,,,,,,,,,,,,,,,,
613661,001,2022-11-20_23h50.27.897,Info_measure_main_exp,2022.2.2,Win32,59.36127271,,,,,,,,,,,,,,,,,,masks/mask_001.jpg,,,,,,,,,,,,,,,,,,,,,,,,,,,,,,,,,,,,,,,,,,,0,3,3,0,1,,,,,,,,,,,,,,,,,,,,,,,,,,,,,,,,,,,,,,,,,,,,,,
613661,001,2022-11-20_23h50.27.897,Info_measure_main_exp,2022.2.2,Win32,59.36127271,,,,,,,,,,,,,,,,,,masks/mask_002.jpg,,,,,,,,,,,,,,,,,,,,,,,,,,,,,,,,,,,,,,,,,,,0,4,4,1,1,,,,,,,,,,,,,,,,,,,,,,,,,,,,,,,,,,,,,,,,,,,,,,
613661,001,2022-11-20_23h50.27.897,Info_measure_main_exp,2022.2.2,Win32,59.36127271,,,,,,,,,,,,,,,,,,masks/mask_001.jpg,,,,,,,,,,,,,,,,,,,,,,,,,,,,,,,,,,,,,,,,,,,,,,,,0,0,0,0,1,,,,,,,,,,,,,,,,,,,,,,,,,,,,,,,,,,,,,,,,,
613661,001,2022-11-20_23h50.27.897,Info_measure_main_exp,2022.2.2,Win32,59.36127271,,,,,,,,,,,,,,,,,,masks/mask_002.jpg,,,,,,,,,,,,,,,,,,,,,,,,,,,,,,,,,,,,,,,,,,,,,,,,0,1,1,1,1,,,,,,,,,,,,,,,,,,,,,,,,,,,,,,,,,,,,,,,,,
613661,001,2022-11-20_23h50.27.897,Info_measure_main_exp,2022.2.2,Win32,59.36127271,,,,,,,,,,,,,,,,,,masks/mask_004.jpg,,,,,,,,,,,,,,,,,,,,,,,,,,,,,,,,,,,,,,,,,,,,,,,,0,2,2,3,1,,,,,,,,,,,,,,,,,,,,,,,,,,,,,,,,,,,,,,,,,
613661,001,2022-11-20_23h50.27.897,Info_measure_main_exp,2022.2.2,Win32,59.36127271,,,,,,,,,,,,,,,,,,masks/mask_003.jpg,,,,,,,,,,,,,,,,,,,,,,,,,,,,,,,,,,,,,,,,,,,,,,,,0,3,3,2,1,,,,,,,,,,,,,,,,,,,,,,,,,,,,,,,,,,,,,,,,,
