participant,session,date,expName,psychopyVersion,OS,frameRate,space_press_continue.keys,space_press_continue.rt,space_press_continue_2.keys,space_press_continue_2.rt,space_press_continue_3.keys,space_press_continue_3.rt,space_press_continue_4.keys,space_press_continue_4.rt,space_press_continue_5.keys,space_press_continue_5.rt,space_press_continue_6.keys,space_press_continue_6.rt,prac_mask_loop_1.thisRepN,prac_mask_loop_1.thisTrialN,prac_mask_loop_1.thisN,prac_mask_loop_1.thisIndex,prac_mask_loop_1.ran,mask_name,prac_mask_loop_2.thisRepN,prac_mask_loop_2.thisTrialN,prac_mask_loop_2.thisN,prac_mask_loop_2.thisIndex,prac_mask_loop_2.ran,mouse_2.x,mouse_2.y,mouse_2.leftButton,mouse_2.midButton,mouse_2.rightButton,mouse_2.clicked_name,similarity,response_time,Pass,mouse_12.x,mouse_12.y,mouse_12.leftButton,mouse_12.midButton,mouse_12.rightButton,mouse_12.clicked_name,prac_loop.thisRepN,prac_loop.thisTrialN,prac_loop.thisN,prac_loop.thisIndex,prac_loop.ran,Pair_type,Image_num,Patch_1_loc,Patch_2_loc,Patch_1_info,Patch_2_info,Patch_1_name,Patch_2_name,mouse_1.x,mouse_1.y,mouse_1.leftButton,mouse_1.midButton,mouse_1.rightButton,mouse_1.time,mouse_1.clicked_name,space_press_continue_7.keys,space_press_continue_7.rt,mask_loop.thisRepN,mask_loop.thisTrialN,mask_loop.thisN,mask_loop.thisIndex,mask_loop.ran,mask_loop_2.thisRepN,mask_loop_2.thisTrialN,mask_loop_2.thisN,mask_loop_2.thisIndex,mask_loop_2.ran,mouse.x,mouse.y,mouse.leftButton,mouse.midButton,mouse.rightButton,mouse.clicked_name,trialNumber,mouse_11.x,mouse_11.y,mouse_11.leftButton,mouse_11.midButton,mouse_11.rightButton,mouse_11.clicked_name,first_pass_loop.thisRepN,first_pass_loop.thisTrialN,first_pass_loop.thisN,first_pass_loop.thisIndex,first_pass_loop.ran,mask_loop_3.thisRepN,mask_loop_3.thisTrialN,mask_loop_3.thisN,mask_loop_3.thisIndex,mask_loop_3.ran,mask_loop_4.thisRepN,mask_loop_4.thisTrialN,mask_loop_4.thisN,mask_loop_4.thisIndex,mask_loop_4.ran,mouse_3.x,mouse_3.y,mouse_3.leftButton,mouse_3.midButton,mouse_3.rightButton,mouse_3.clicked_name,double_pass_loop.thisRepN,double_pass_loop.thisTrialN,double_pass_loop.thisN,double_pass_loop.thisIndex,double_pass_loop.ran,space_exit.keys,space_exit.rt
6154d48dc9f207a430d58b90,001,2022-11-21_24h56.50.172,Info_measure_main_exp,2022.2.2,Win32,60.0528465,,,,,,,,,,,,,,,,,,,,,,,,,,,,,,,,,,,,,,,,,,,,,,,,,,,,,,,,,,,,,,,,,,,,,,,,,,,,,,,,,,,,,,,,,,,,,,,,,,,,,,,,,,,,,,,
6154d48dc9f207a430d58b90,001,2022-11-21_24h56.50.172,Info_measure_main_exp,2022.2.2,Win32,60.0528465,,,,,,,,,,,,,,,,,,,,,,,,,,,,,,,,,,,,,,,,,,,,,,,,,,,,,,,,,,,,,,,,,,,,,,,,,,,,,,,,,,,,,,,,,,,,,,,,,,,,,,,,,,,,,,,
6154d48dc9f207a430d58b90,001,2022-11-21_24h56.50.172,Info_measure_main_exp,2022.2.2,Win32,60.0528465,space,6.5768,,,,,,,,,,,,,,,,,,,,,,,,,,,,,,,,,,,,,,,,,,,,,,,,,,,,,,,,,,,,,,,,,,,,,,,,,,,,,,,,,,,,,,,,,,,,,,,,,,,,,,,,,,,,,
6154d48dc9f207a430d58b90,001,2022-11-21_24h56.50.172,Info_measure_main_exp,2022.2.2,Win32,60.0528465,,,space,12.7613,,,,,,,,,,,,,,,,,,,,,,,,,,,,,,,,,,,,,,,,,,,,,,,,,,,,,,,,,,,,,,,,,,,,,,,,,,,,,,,,,,,,,,,,,,,,,,,,,,,,,,,,,,,
6154d48dc9f207a430d58b90,001,2022-11-21_24h56.50.172,Info_measure_main_exp,2022.2.2,Win32,60.0528465,,,,,space,5.7494,,,,,,,,,,,,,,,,,,,,,,,,,,,,,,,,,,,,,,,,,,,,,,,,,,,,,,,,,,,,,,,,,,,,,,,,,,,,,,,,,,,,,,,,,,,,,,,,,,,,,,,,,
6154d48dc9f207a430d58b90,001,2022-11-21_24h56.50.172,Info_measure_main_exp,2022.2.2,Win32,60.0528465,,,,,,,space,20.3915,,,,,,,,,,,,,,,,,,,,,,,,,,,,,,,,,,,,,,,,,,,,,,,,,,,,,,,,,,,,,,,,,,,,,,,,,,,,,,,,,,,,,,,,,,,,,,,,,,,,,,,
6154d48dc9f207a430d58b90,001,2022-11-21_24h56.50.172,Info_measure_main_exp,2022.2.2,Win32,60.0528465,,,,,,,,,space,8.6471,,,,,,,,,,,,,,,,,,,,,,,,,,,,,,,,,,,,,,,,,,,,,,,,,,,,,,,,,,,,,,,,,,,,,,,,,,,,,,,,,,,,,,,,,,,,,,,,,,,,,
6154d48dc9f207a430d58b90,001,2022-11-21_24h56.50.172,Info_measure_main_exp,2022.2.2,Win32,60.0528465,,,,,,,,,,,space,3.1399,,,,,,,,,,,,,,,,,,,,,,,,,,,,,,,,,,,,,,,,,,,,,,,,,,,,,,,,,,,,,,,,,,,,,,,,,,,,,,,,,,,,,,,,,,,,,,,,,,,
6154d48dc9f207a430d58b90,001,2022-11-21_24h56.50.172,Info_measure_main_exp,2022.2.2,Win32,60.0528465,,,,,,,,,,,,,0,0,0,4,1,masks/mask_005.jpg,,,,,,,,,,,,,,,,,,,,,,,,,,,,,,,,,,,,,,,,,,,,,,,,,,,,,,,,,,,,,,,,,,,,,,,,,,,,,,,,,,,,,,,,,,,,,
6154d48dc9f207a430d58b90,001,2022-11-21_24h56.50.172,Info_measure_main_exp,2022.2.2,Win32,60.0528465,,,,,,,,,,,,,0,1,1,1,1,masks/mask_002.jpg,,,,,,,,,,,,,,,,,,,,,,,,,,,,,,,,,,,,,,,,,,,,,,,,,,,,,,,,,,,,,,,,,,,,,,,,,,,,,,,,,,,,,,,,,,,,,
6154d48dc9f207a430d58b90,001,2022-11-21_24h56.50.172,Info_measure_main_exp,2022.2.2,Win32,60.0528465,,,,,,,,,,,,,0,2,2,2,1,masks/mask_003.jpg,,,,,,,,,,,,,,,,,,,,,,,,,,,,,,,,,,,,,,,,,,,,,,,,,,,,,,,,,,,,,,,,,,,,,,,,,,,,,,,,,,,,,,,,,,,,,
6154d48dc9f207a430d58b90,001,2022-11-21_24h56.50.172,Info_measure_main_exp,2022.2.2,Win32,60.0528465,,,,,,,,,,,,,0,3,3,0,1,masks/mask_001.jpg,,,,,,,,,,,,,,,,,,,,,,,,,,,,,,,,,,,,,,,,,,,,,,,,,,,,,,,,,,,,,,,,,,,,,,,,,,,,,,,,,,,,,,,,,,,,,
6154d48dc9f207a430d58b90,001,2022-11-21_24h56.50.172,Info_measure_main_exp,2022.2.2,Win32,60.0528465,,,,,,,,,,,,,0,4,4,3,1,masks/mask_004.jpg,,,,,,,,,,,,,,,,,,,,,,,,,,,,,,,,,,,,,,,,,,,,,,,,,,,,,,,,,,,,,,,,,,,,,,,,,,,,,,,,,,,,,,,,,,,,,
6154d48dc9f207a430d58b90,001,2022-11-21_24h56.50.172,Info_measure_main_exp,2022.2.2,Win32,60.0528465,,,,,,,,,,,,,,,,,,masks/mask_004.jpg,0,0,0,3,1,,,,,,,,,,,,,,,,,,,,,,,,,,,,,,,,,,,,,,,,,,,,,,,,,,,,,,,,,,,,,,,,,,,,,,,,,,,,,,,,,,,,,,,,
6154d48dc9f207a430d58b90,001,2022-11-21_24h56.50.172,Info_measure_main_exp,2022.2.2,Win32,60.0528465,,,,,,,,,,,,,,,,,,masks/mask_002.jpg,0,1,1,1,1,,,,,,,,,,,,,,,,,,,,,,,,,,,,,,,,,,,,,,,,,,,,,,,,,,,,,,,,,,,,,,,,,,,,,,,,,,,,,,,,,,,,,,,,
6154d48dc9f207a430d58b90,001,2022-11-21_24h56.50.172,Info_measure_main_exp,2022.2.2,Win32,60.0528465,,,,,,,,,,,,,,,,,,masks/mask_003.jpg,0,2,2,2,1,,,,,,,,,,,,,,,,,,,,,,,,,,,,,,,,,,,,,,,,,,,,,,,,,,,,,,,,,,,,,,,,,,,,,,,,,,,,,,,,,,,,,,,,
6154d48dc9f207a430d58b90,001,2022-11-21_24h56.50.172,Info_measure_main_exp,2022.2.2,Win32,60.0528465,,,,,,,,,,,,,,,,,,masks/mask_005.jpg,0,3,3,4,1,,,,,,,,,,,,,,,,,,,,,,,,,,,,,,,,,,,,,,,,,,,,,,,,,,,,,,,,,,,,,,,,,,,,,,,,,,,,,,,,,,,,,,,,
6154d48dc9f207a430d58b90,001,2022-11-21_24h56.50.172,Info_measure_main_exp,2022.2.2,Win32,60.0528465,,,,,,,,,,,,,,,,,,masks/mask_001.jpg,0,4,4,0,1,,,,,,,,,,,,,,,,,,,,,,,,,,,,,,,,,,,,,,,,,,,,,,,,,,,,,,,,,,,,,,,,,,,,,,,,,,,,,,,,,,,,,,,,
6154d48dc9f207a430d58b90,001,2022-11-21_24h56.50.172,Info_measure_main_exp,2022.2.2,Win32,60.0528465,,,,,,,,,,,,,,,,,,,,,,,,0.118489583,0.067708333,1,0,0,response1disk,6,62.8941,1,0.001302083,0.001302083,1,0,0,center_square,0,0,0,0,1,0,131,5,5,2370,2406,prac_patch/patch0002370.jpg,prac_patch/patch0002406.jpg,,,,,,,,,,,,,,,,,,,,,,,,,,,,,,,,,,,,,,,,,,,,,,,,,,,,,,,,,,,,
6154d48dc9f207a430d58b90,001,2022-11-21_24h56.50.172,Info_measure_main_exp,2022.2.2,Win32,60.0528465,,,,,,,,,,,,,0,0,0,0,1,masks/mask_001.jpg,,,,,,,,,,,,,,,,,,,,,,,,,,,,,,,,,,,,,,,,,,,,,,,,,,,,,,,,,,,,,,,,,,,,,,,,,,,,,,,,,,,,,,,,,,,,,
6154d48dc9f207a430d58b90,001,2022-11-21_24h56.50.172,Info_measure_main_exp,2022.2.2,Win32,60.0528465,,,,,,,,,,,,,0,1,1,1,1,masks/mask_002.jpg,,,,,,,,,,,,,,,,,,,,,,,,,,,,,,,,,,,,,,,,,,,,,,,,,,,,,,,,,,,,,,,,,,,,,,,,,,,,,,,,,,,,,,,,,,,,,
6154d48dc9f207a430d58b90,001,2022-11-21_24h56.50.172,Info_measure_main_exp,2022.2.2,Win32,60.0528465,,,,,,,,,,,,,0,2,2,3,1,masks/mask_004.jpg,,,,,,,,,,,,,,,,,,,,,,,,,,,,,,,,,,,,,,,,,,,,,,,,,,,,,,,,,,,,,,,,,,,,,,,,,,,,,,,,,,,,,,,,,,,,,
6154d48dc9f207a430d58b90,001,2022-11-21_24h56.50.172,Info_measure_main_exp,2022.2.2,Win32,60.0528465,,,,,,,,,,,,,0,3,3,2,1,masks/mask_003.jpg,,,,,,,,,,,,,,,,,,,,,,,,,,,,,,,,,,,,,,,,,,,,,,,,,,,,,,,,,,,,,,,,,,,,,,,,,,,,,,,,,,,,,,,,,,,,,
6154d48dc9f207a430d58b90,001,2022-11-21_24h56.50.172,Info_measure_main_exp,2022.2.2,Win32,60.0528465,,,,,,,,,,,,,0,4,4,4,1,masks/mask_005.jpg,,,,,,,,,,,,,,,,,,,,,,,,,,,,,,,,,,,,,,,,,,,,,,,,,,,,,,,,,,,,,,,,,,,,,,,,,,,,,,,,,,,,,,,,,,,,,
6154d48dc9f207a430d58b90,001,2022-11-21_24h56.50.172,Info_measure_main_exp,2022.2.2,Win32,60.0528465,,,,,,,,,,,,,,,,,,masks/mask_004.jpg,0,0,0,3,1,,,,,,,,,,,,,,,,,,,,,,,,,,,,,,,,,,,,,,,,,,,,,,,,,,,,,,,,,,,,,,,,,,,,,,,,,,,,,,,,,,,,,,,,
6154d48dc9f207a430d58b90,001,2022-11-21_24h56.50.172,Info_measure_main_exp,2022.2.2,Win32,60.0528465,,,,,,,,,,,,,,,,,,masks/mask_002.jpg,0,1,1,1,1,,,,,,,,,,,,,,,,,,,,,,,,,,,,,,,,,,,,,,,,,,,,,,,,,,,,,,,,,,,,,,,,,,,,,,,,,,,,,,,,,,,,,,,,
6154d48dc9f207a430d58b90,001,2022-11-21_24h56.50.172,Info_measure_main_exp,2022.2.2,Win32,60.0528465,,,,,,,,,,,,,,,,,,masks/mask_001.jpg,0,2,2,0,1,,,,,,,,,,,,,,,,,,,,,,,,,,,,,,,,,,,,,,,,,,,,,,,,,,,,,,,,,,,,,,,,,,,,,,,,,,,,,,,,,,,,,,,,
6154d48dc9f207a430d58b90,001,2022-11-21_24h56.50.172,Info_measure_main_exp,2022.2.2,Win32,60.0528465,,,,,,,,,,,,,,,,,,masks/mask_003.jpg,0,3,3,2,1,,,,,,,,,,,,,,,,,,,,,,,,,,,,,,,,,,,,,,,,,,,,,,,,,,,,,,,,,,,,,,,,,,,,,,,,,,,,,,,,,,,,,,,,
6154d48dc9f207a430d58b90,001,2022-11-21_24h56.50.172,Info_measure_main_exp,2022.2.2,Win32,60.0528465,,,,,,,,,,,,,,,,,,masks/mask_005.jpg,0,4,4,4,1,,,,,,,,,,,,,,,,,,,,,,,,,,,,,,,,,,,,,,,,,,,,,,,,,,,,,,,,,,,,,,,,,,,,,,,,,,,,,,,,,,,,,,,,
6154d48dc9f207a430d58b90,001,2022-11-21_24h56.50.172,Info_measure_main_exp,2022.2.2,Win32,60.0528465,,,,,,,,,,,,,,,,,,,,,,,,-0.044270833,0.138020833,1,0,0,response7disk,0,74.4546,1,0.00390625,0.001302083,1,0,0,center_square,0,1,1,2,1,0,131,5,5,2526,2526,prac_patch/patch0002526.jpg,prac_patch/patch0002526.jpg,,,,,,,,,,,,,,,,,,,,,,,,,,,,,,,,,,,,,,,,,,,,,,,,,,,,,,,,,,,,
6154d48dc9f207a430d58b90,001,2022-11-21_24h56.50.172,Info_measure_main_exp,2022.2.2,Win32,60.0528465,,,,,,,,,,,,,0,0,0,1,1,masks/mask_002.jpg,,,,,,,,,,,,,,,,,,,,,,,,,,,,,,,,,,,,,,,,,,,,,,,,,,,,,,,,,,,,,,,,,,,,,,,,,,,,,,,,,,,,,,,,,,,,,
6154d48dc9f207a430d58b90,001,2022-11-21_24h56.50.172,Info_measure_main_exp,2022.2.2,Win32,60.0528465,,,,,,,,,,,,,0,1,1,0,1,masks/mask_001.jpg,,,,,,,,,,,,,,,,,,,,,,,,,,,,,,,,,,,,,,,,,,,,,,,,,,,,,,,,,,,,,,,,,,,,,,,,,,,,,,,,,,,,,,,,,,,,,
6154d48dc9f207a430d58b90,001,2022-11-21_24h56.50.172,Info_measure_main_exp,2022.2.2,Win32,60.0528465,,,,,,,,,,,,,0,2,2,3,1,masks/mask_004.jpg,,,,,,,,,,,,,,,,,,,,,,,,,,,,,,,,,,,,,,,,,,,,,,,,,,,,,,,,,,,,,,,,,,,,,,,,,,,,,,,,,,,,,,,,,,,,,
6154d48dc9f207a430d58b90,001,2022-11-21_24h56.50.172,Info_measure_main_exp,2022.2.2,Win32,60.0528465,,,,,,,,,,,,,0,3,3,4,1,masks/mask_005.jpg,,,,,,,,,,,,,,,,,,,,,,,,,,,,,,,,,,,,,,,,,,,,,,,,,,,,,,,,,,,,,,,,,,,,,,,,,,,,,,,,,,,,,,,,,,,,,
6154d48dc9f207a430d58b90,001,2022-11-21_24h56.50.172,Info_measure_main_exp,2022.2.2,Win32,60.0528465,,,,,,,,,,,,,0,4,4,2,1,masks/mask_003.jpg,,,,,,,,,,,,,,,,,,,,,,,,,,,,,,,,,,,,,,,,,,,,,,,,,,,,,,,,,,,,,,,,,,,,,,,,,,,,,,,,,,,,,,,,,,,,,
6154d48dc9f207a430d58b90,001,2022-11-21_24h56.50.172,Info_measure_main_exp,2022.2.2,Win32,60.0528465,,,,,,,,,,,,,,,,,,masks/mask_002.jpg,0,0,0,1,1,,,,,,,,,,,,,,,,,,,,,,,,,,,,,,,,,,,,,,,,,,,,,,,,,,,,,,,,,,,,,,,,,,,,,,,,,,,,,,,,,,,,,,,,
6154d48dc9f207a430d58b90,001,2022-11-21_24h56.50.172,Info_measure_main_exp,2022.2.2,Win32,60.0528465,,,,,,,,,,,,,,,,,,masks/mask_003.jpg,0,1,1,2,1,,,,,,,,,,,,,,,,,,,,,,,,,,,,,,,,,,,,,,,,,,,,,,,,,,,,,,,,,,,,,,,,,,,,,,,,,,,,,,,,,,,,,,,,
6154d48dc9f207a430d58b90,001,2022-11-21_24h56.50.172,Info_measure_main_exp,2022.2.2,Win32,60.0528465,,,,,,,,,,,,,,,,,,masks/mask_005.jpg,0,2,2,4,1,,,,,,,,,,,,,,,,,,,,,,,,,,,,,,,,,,,,,,,,,,,,,,,,,,,,,,,,,,,,,,,,,,,,,,,,,,,,,,,,,,,,,,,,
6154d48dc9f207a430d58b90,001,2022-11-21_24h56.50.172,Info_measure_main_exp,2022.2.2,Win32,60.0528465,,,,,,,,,,,,,,,,,,masks/mask_004.jpg,0,3,3,3,1,,,,,,,,,,,,,,,,,,,,,,,,,,,,,,,,,,,,,,,,,,,,,,,,,,,,,,,,,,,,,,,,,,,,,,,,,,,,,,,,,,,,,,,,
6154d48dc9f207a430d58b90,001,2022-11-21_24h56.50.172,Info_measure_main_exp,2022.2.2,Win32,60.0528465,,,,,,,,,,,,,,,,,,masks/mask_001.jpg,0,4,4,0,1,,,,,,,,,,,,,,,,,,,,,,,,,,,,,,,,,,,,,,,,,,,,,,,,,,,,,,,,,,,,,,,,,,,,,,,,,,,,,,,,,,,,,,,,
6154d48dc9f207a430d58b90,001,2022-11-21_24h56.50.172,Info_measure_main_exp,2022.2.2,Win32,60.0528465,,,,,,,,,,,,,,,,,,,,,,,,0.065104167,-0.10546875,1,0,0,response3disk,4,83.816,1,-0.00390625,0.006510417,1,0,0,center_square,0,2,2,1,1,0,131,5,5,2514,2490,prac_patch/patch0002514.jpg,prac_patch/patch0002490.jpg,,,,,,,,,,,,,,,,,,,,,,,,,,,,,,,,,,,,,,,,,,,,,,,,,,,,,,,,,,,,
6154d48dc9f207a430d58b90,001,2022-11-21_24h56.50.172,Info_measure_main_exp,2022.2.2,Win32,60.0528465,,,,,,,,,,,,,,,,,,,,,,,,,,,,,,,,,,,,,,,,,,,,,,,,,,,,,,,,,,,space,2.0263,,,,,,,,,,,,,,,,,,,,,,,,,,,,,,,,,,,,,,,,,,,,,,,,,,,
6154d48dc9f207a430d58b90,001,2022-11-21_24h56.50.172,Info_measure_main_exp,2022.2.2,Win32,60.0528465,,,,,,,,,,,,,,,,,,masks/mask_002.jpg,,,,,,,,,,,,,,,,,,,,,,,,,,,,,,,,,,,,,,,,,,,0,0,0,1,1,,,,,,,,,,,,,,,,,,,,,,,,,,,,,,,,,,,,,,,,,,,,,,
6154d48dc9f207a430d58b90,001,2022-11-21_24h56.50.172,Info_measure_main_exp,2022.2.2,Win32,60.0528465,,,,,,,,,,,,,,,,,,masks/mask_004.jpg,,,,,,,,,,,,,,,,,,,,,,,,,,,,,,,,,,,,,,,,,,,0,1,1,3,1,,,,,,,,,,,,,,,,,,,,,,,,,,,,,,,,,,,,,,,,,,,,,,
6154d48dc9f207a430d58b90,001,2022-11-21_24h56.50.172,Info_measure_main_exp,2022.2.2,Win32,60.0528465,,,,,,,,,,,,,,,,,,masks/mask_003.jpg,,,,,,,,,,,,,,,,,,,,,,,,,,,,,,,,,,,,,,,,,,,0,2,2,2,1,,,,,,,,,,,,,,,,,,,,,,,,,,,,,,,,,,,,,,,,,,,,,,
6154d48dc9f207a430d58b90,001,2022-11-21_24h56.50.172,Info_measure_main_exp,2022.2.2,Win32,60.0528465,,,,,,,,,,,,,,,,,,masks/mask_005.jpg,,,,,,,,,,,,,,,,,,,,,,,,,,,,,,,,,,,,,,,,,,,0,3,3,4,1,,,,,,,,,,,,,,,,,,,,,,,,,,,,,,,,,,,,,,,,,,,,,,
6154d48dc9f207a430d58b90,001,2022-11-21_24h56.50.172,Info_measure_main_exp,2022.2.2,Win32,60.0528465,,,,,,,,,,,,,,,,,,masks/mask_001.jpg,,,,,,,,,,,,,,,,,,,,,,,,,,,,,,,,,,,,,,,,,,,0,4,4,0,1,,,,,,,,,,,,,,,,,,,,,,,,,,,,,,,,,,,,,,,,,,,,,,
6154d48dc9f207a430d58b90,001,2022-11-21_24h56.50.172,Info_measure_main_exp,2022.2.2,Win32,60.0528465,,,,,,,,,,,,,,,,,,masks/mask_001.jpg,,,,,,,,,,,,,,,,,,,,,,,,,,,,,,,,,,,,,,,,,,,,,,,,0,0,0,0,1,,,,,,,,,,,,,,,,,,,,,,,,,,,,,,,,,,,,,,,,,
6154d48dc9f207a430d58b90,001,2022-11-21_24h56.50.172,Info_measure_main_exp,2022.2.2,Win32,60.0528465,,,,,,,,,,,,,,,,,,masks/mask_005.jpg,,,,,,,,,,,,,,,,,,,,,,,,,,,,,,,,,,,,,,,,,,,,,,,,0,1,1,4,1,,,,,,,,,,,,,,,,,,,,,,,,,,,,,,,,,,,,,,,,,
6154d48dc9f207a430d58b90,001,2022-11-21_24h56.50.172,Info_measure_main_exp,2022.2.2,Win32,60.0528465,,,,,,,,,,,,,,,,,,masks/mask_003.jpg,,,,,,,,,,,,,,,,,,,,,,,,,,,,,,,,,,,,,,,,,,,,,,,,0,2,2,2,1,,,,,,,,,,,,,,,,,,,,,,,,,,,,,,,,,,,,,,,,,
6154d48dc9f207a430d58b90,001,2022-11-21_24h56.50.172,Info_measure_main_exp,2022.2.2,Win32,60.0528465,,,,,,,,,,,,,,,,,,masks/mask_004.jpg,,,,,,,,,,,,,,,,,,,,,,,,,,,,,,,,,,,,,,,,,,,,,,,,0,3,3,3,1,,,,,,,,,,,,,,,,,,,,,,,,,,,,,,,,,,,,,,,,,
6154d48dc9f207a430d58b90,001,2022-11-21_24h56.50.172,Info_measure_main_exp,2022.2.2,Win32,60.0528465,,,,,,,,,,,,,,,,,,masks/mask_002.jpg,,,,,,,,,,,,,,,,,,,,,,,,,,,,,,,,,,,,,,,,,,,,,,,,0,4,4,1,1,,,,,,,,,,,,,,,,,,,,,,,,,,,,,,,,,,,,,,,,,
6154d48dc9f207a430d58b90,001,2022-11-21_24h56.50.172,Info_measure_main_exp,2022.2.2,Win32,60.0528465,,,,,,,,,,,,,,,,,,,,,,,,,,,,,,5,2.318,1,,,,,,,,,,,,0,131,5,5,2142,2238,absent_patch/patch0002142.jpg,absent_patch/patch0002238.jpg,,,,,,,,,,,,,,,,,,,,0.138020833,-0.033854167,1,0,0,response3disk,1,-0.001302083,-0.005208333,1,0,0,center_square,0,0,0,101,1,,,,,,,,,,,,,,,,,,,,,,,
6154d48dc9f207a430d58b90,001,2022-11-21_24h56.50.172,Info_measure_main_exp,2022.2.2,Win32,60.0528465,,,,,,,,,,,,,,,,,,masks/mask_003.jpg,,,,,,,,,,,,,,,,,,,,,,,,,,,,,,,,,,,,,,,,,,,0,0,0,2,1,,,,,,,,,,,,,,,,,,,,,,,,,,,,,,,,,,,,,,,,,,,,,,
6154d48dc9f207a430d58b90,001,2022-11-21_24h56.50.172,Info_measure_main_exp,2022.2.2,Win32,60.0528465,,,,,,,,,,,,,,,,,,masks/mask_004.jpg,,,,,,,,,,,,,,,,,,,,,,,,,,,,,,,,,,,,,,,,,,,0,1,1,3,1,,,,,,,,,,,,,,,,,,,,,,,,,,,,,,,,,,,,,,,,,,,,,,
6154d48dc9f207a430d58b90,001,2022-11-21_24h56.50.172,Info_measure_main_exp,2022.2.2,Win32,60.0528465,,,,,,,,,,,,,,,,,,masks/mask_002.jpg,,,,,,,,,,,,,,,,,,,,,,,,,,,,,,,,,,,,,,,,,,,0,2,2,1,1,,,,,,,,,,,,,,,,,,,,,,,,,,,,,,,,,,,,,,,,,,,,,,
6154d48dc9f207a430d58b90,001,2022-11-21_24h56.50.172,Info_measure_main_exp,2022.2.2,Win32,60.0528465,,,,,,,,,,,,,,,,,,masks/mask_001.jpg,,,,,,,,,,,,,,,,,,,,,,,,,,,,,,,,,,,,,,,,,,,0,3,3,0,1,,,,,,,,,,,,,,,,,,,,,,,,,,,,,,,,,,,,,,,,,,,,,,
6154d48dc9f207a430d58b90,001,2022-11-21_24h56.50.172,Info_measure_main_exp,2022.2.2,Win32,60.0528465,,,,,,,,,,,,,,,,,,masks/mask_005.jpg,,,,,,,,,,,,,,,,,,,,,,,,,,,,,,,,,,,,,,,,,,,0,4,4,4,1,,,,,,,,,,,,,,,,,,,,,,,,,,,,,,,,,,,,,,,,,,,,,,
6154d48dc9f207a430d58b90,001,2022-11-21_24h56.50.172,Info_measure_main_exp,2022.2.2,Win32,60.0528465,,,,,,,,,,,,,,,,,,masks/mask_002.jpg,,,,,,,,,,,,,,,,,,,,,,,,,,,,,,,,,,,,,,,,,,,,,,,,0,0,0,1,1,,,,,,,,,,,,,,,,,,,,,,,,,,,,,,,,,,,,,,,,,
6154d48dc9f207a430d58b90,001,2022-11-21_24h56.50.172,Info_measure_main_exp,2022.2.2,Win32,60.0528465,,,,,,,,,,,,,,,,,,masks/mask_003.jpg,,,,,,,,,,,,,,,,,,,,,,,,,,,,,,,,,,,,,,,,,,,,,,,,0,1,1,2,1,,,,,,,,,,,,,,,,,,,,,,,,,,,,,,,,,,,,,,,,,
6154d48dc9f207a430d58b90,001,2022-11-21_24h56.50.172,Info_measure_main_exp,2022.2.2,Win32,60.0528465,,,,,,,,,,,,,,,,,,masks/mask_001.jpg,,,,,,,,,,,,,,,,,,,,,,,,,,,,,,,,,,,,,,,,,,,,,,,,0,2,2,0,1,,,,,,,,,,,,,,,,,,,,,,,,,,,,,,,,,,,,,,,,,
6154d48dc9f207a430d58b90,001,2022-11-21_24h56.50.172,Info_measure_main_exp,2022.2.2,Win32,60.0528465,,,,,,,,,,,,,,,,,,masks/mask_004.jpg,,,,,,,,,,,,,,,,,,,,,,,,,,,,,,,,,,,,,,,,,,,,,,,,0,3,3,3,1,,,,,,,,,,,,,,,,,,,,,,,,,,,,,,,,,,,,,,,,,
6154d48dc9f207a430d58b90,001,2022-11-21_24h56.50.172,Info_measure_main_exp,2022.2.2,Win32,60.0528465,,,,,,,,,,,,,,,,,,masks/mask_005.jpg,,,,,,,,,,,,,,,,,,,,,,,,,,,,,,,,,,,,,,,,,,,,,,,,0,4,4,4,1,,,,,,,,,,,,,,,,,,,,,,,,,,,,,,,,,,,,,,,,,
6154d48dc9f207a430d58b90,001,2022-11-21_24h56.50.172,Info_measure_main_exp,2022.2.2,Win32,60.0528465,,,,,,,,,,,,,,,,,,,,,,,,,,,,,,7,0.8711,1,,,,,,,,,,,,1,131,5,5,1950,1,absent_patch/patch0001950.jpg,present_patch/cong_131_5_a.jpg,,,,,,,,,,,,,,,,,,,,0.029947917,0.134114583,1,0,0,response1disk,2,0.001302083,-0.002604167,1,0,0,center_square,0,1,1,39,1,,,,,,,,,,,,,,,,,,,,,,,
6154d48dc9f207a430d58b90,001,2022-11-21_24h56.50.172,Info_measure_main_exp,2022.2.2,Win32,60.0528465,,,,,,,,,,,,,,,,,,masks/mask_004.jpg,,,,,,,,,,,,,,,,,,,,,,,,,,,,,,,,,,,,,,,,,,,0,0,0,3,1,,,,,,,,,,,,,,,,,,,,,,,,,,,,,,,,,,,,,,,,,,,,,,
6154d48dc9f207a430d58b90,001,2022-11-21_24h56.50.172,Info_measure_main_exp,2022.2.2,Win32,60.0528465,,,,,,,,,,,,,,,,,,masks/mask_002.jpg,,,,,,,,,,,,,,,,,,,,,,,,,,,,,,,,,,,,,,,,,,,0,1,1,1,1,,,,,,,,,,,,,,,,,,,,,,,,,,,,,,,,,,,,,,,,,,,,,,
6154d48dc9f207a430d58b90,001,2022-11-21_24h56.50.172,Info_measure_main_exp,2022.2.2,Win32,60.0528465,,,,,,,,,,,,,,,,,,masks/mask_005.jpg,,,,,,,,,,,,,,,,,,,,,,,,,,,,,,,,,,,,,,,,,,,0,2,2,4,1,,,,,,,,,,,,,,,,,,,,,,,,,,,,,,,,,,,,,,,,,,,,,,
6154d48dc9f207a430d58b90,001,2022-11-21_24h56.50.172,Info_measure_main_exp,2022.2.2,Win32,60.0528465,,,,,,,,,,,,,,,,,,masks/mask_001.jpg,,,,,,,,,,,,,,,,,,,,,,,,,,,,,,,,,,,,,,,,,,,0,3,3,0,1,,,,,,,,,,,,,,,,,,,,,,,,,,,,,,,,,,,,,,,,,,,,,,
6154d48dc9f207a430d58b90,001,2022-11-21_24h56.50.172,Info_measure_main_exp,2022.2.2,Win32,60.0528465,,,,,,,,,,,,,,,,,,masks/mask_003.jpg,,,,,,,,,,,,,,,,,,,,,,,,,,,,,,,,,,,,,,,,,,,0,4,4,2,1,,,,,,,,,,,,,,,,,,,,,,,,,,,,,,,,,,,,,,,,,,,,,,
6154d48dc9f207a430d58b90,001,2022-11-21_24h56.50.172,Info_measure_main_exp,2022.2.2,Win32,60.0528465,,,,,,,,,,,,,,,,,,masks/mask_001.jpg,,,,,,,,,,,,,,,,,,,,,,,,,,,,,,,,,,,,,,,,,,,,,,,,0,0,0,0,1,,,,,,,,,,,,,,,,,,,,,,,,,,,,,,,,,,,,,,,,,
6154d48dc9f207a430d58b90,001,2022-11-21_24h56.50.172,Info_measure_main_exp,2022.2.2,Win32,60.0528465,,,,,,,,,,,,,,,,,,masks/mask_003.jpg,,,,,,,,,,,,,,,,,,,,,,,,,,,,,,,,,,,,,,,,,,,,,,,,0,1,1,2,1,,,,,,,,,,,,,,,,,,,,,,,,,,,,,,,,,,,,,,,,,
6154d48dc9f207a430d58b90,001,2022-11-21_24h56.50.172,Info_measure_main_exp,2022.2.2,Win32,60.0528465,,,,,,,,,,,,,,,,,,masks/mask_004.jpg,,,,,,,,,,,,,,,,,,,,,,,,,,,,,,,,,,,,,,,,,,,,,,,,0,2,2,3,1,,,,,,,,,,,,,,,,,,,,,,,,,,,,,,,,,,,,,,,,,
6154d48dc9f207a430d58b90,001,2022-11-21_24h56.50.172,Info_measure_main_exp,2022.2.2,Win32,60.0528465,,,,,,,,,,,,,,,,,,masks/mask_002.jpg,,,,,,,,,,,,,,,,,,,,,,,,,,,,,,,,,,,,,,,,,,,,,,,,0,3,3,1,1,,,,,,,,,,,,,,,,,,,,,,,,,,,,,,,,,,,,,,,,,
6154d48dc9f207a430d58b90,001,2022-11-21_24h56.50.172,Info_measure_main_exp,2022.2.2,Win32,60.0528465,,,,,,,,,,,,,,,,,,masks/mask_005.jpg,,,,,,,,,,,,,,,,,,,,,,,,,,,,,,,,,,,,,,,,,,,,,,,,0,4,4,4,1,,,,,,,,,,,,,,,,,,,,,,,,,,,,,,,,,,,,,,,,,
6154d48dc9f207a430d58b90,001,2022-11-21_24h56.50.172,Info_measure_main_exp,2022.2.2,Win32,60.0528465,,,,,,,,,,,,,,,,,,,,,,,,,,,,,,7,0.8151,1,,,,,,,,,,,,1,131,5,5,1,1974,present_patch/cong_131_5_a.jpg,absent_patch/patch0001974.jpg,,,,,,,,,,,,,,,,,,,,0.037760417,0.127604167,1,0,0,response1disk,3,-0.00390625,0.001302083,1,0,0,center_square,0,2,2,69,1,,,,,,,,,,,,,,,,,,,,,,,
6154d48dc9f207a430d58b90,001,2022-11-21_24h56.50.172,Info_measure_main_exp,2022.2.2,Win32,60.0528465,,,,,,,,,,,,,,,,,,masks/mask_003.jpg,,,,,,,,,,,,,,,,,,,,,,,,,,,,,,,,,,,,,,,,,,,0,0,0,2,1,,,,,,,,,,,,,,,,,,,,,,,,,,,,,,,,,,,,,,,,,,,,,,
6154d48dc9f207a430d58b90,001,2022-11-21_24h56.50.172,Info_measure_main_exp,2022.2.2,Win32,60.0528465,,,,,,,,,,,,,,,,,,masks/mask_004.jpg,,,,,,,,,,,,,,,,,,,,,,,,,,,,,,,,,,,,,,,,,,,0,1,1,3,1,,,,,,,,,,,,,,,,,,,,,,,,,,,,,,,,,,,,,,,,,,,,,,
6154d48dc9f207a430d58b90,001,2022-11-21_24h56.50.172,Info_measure_main_exp,2022.2.2,Win32,60.0528465,,,,,,,,,,,,,,,,,,masks/mask_002.jpg,,,,,,,,,,,,,,,,,,,,,,,,,,,,,,,,,,,,,,,,,,,0,2,2,1,1,,,,,,,,,,,,,,,,,,,,,,,,,,,,,,,,,,,,,,,,,,,,,,
6154d48dc9f207a430d58b90,001,2022-11-21_24h56.50.172,Info_measure_main_exp,2022.2.2,Win32,60.0528465,,,,,,,,,,,,,,,,,,masks/mask_005.jpg,,,,,,,,,,,,,,,,,,,,,,,,,,,,,,,,,,,,,,,,,,,0,3,3,4,1,,,,,,,,,,,,,,,,,,,,,,,,,,,,,,,,,,,,,,,,,,,,,,
6154d48dc9f207a430d58b90,001,2022-11-21_24h56.50.172,Info_measure_main_exp,2022.2.2,Win32,60.0528465,,,,,,,,,,,,,,,,,,masks/mask_001.jpg,,,,,,,,,,,,,,,,,,,,,,,,,,,,,,,,,,,,,,,,,,,0,4,4,0,1,,,,,,,,,,,,,,,,,,,,,,,,,,,,,,,,,,,,,,,,,,,,,,
6154d48dc9f207a430d58b90,001,2022-11-21_24h56.50.172,Info_measure_main_exp,2022.2.2,Win32,60.0528465,,,,,,,,,,,,,,,,,,masks/mask_003.jpg,,,,,,,,,,,,,,,,,,,,,,,,,,,,,,,,,,,,,,,,,,,,,,,,0,0,0,2,1,,,,,,,,,,,,,,,,,,,,,,,,,,,,,,,,,,,,,,,,,
6154d48dc9f207a430d58b90,001,2022-11-21_24h56.50.172,Info_measure_main_exp,2022.2.2,Win32,60.0528465,,,,,,,,,,,,,,,,,,masks/mask_004.jpg,,,,,,,,,,,,,,,,,,,,,,,,,,,,,,,,,,,,,,,,,,,,,,,,0,1,1,3,1,,,,,,,,,,,,,,,,,,,,,,,,,,,,,,,,,,,,,,,,,
6154d48dc9f207a430d58b90,001,2022-11-21_24h56.50.172,Info_measure_main_exp,2022.2.2,Win32,60.0528465,,,,,,,,,,,,,,,,,,masks/mask_005.jpg,,,,,,,,,,,,,,,,,,,,,,,,,,,,,,,,,,,,,,,,,,,,,,,,0,2,2,4,1,,,,,,,,,,,,,,,,,,,,,,,,,,,,,,,,,,,,,,,,,
6154d48dc9f207a430d58b90,001,2022-11-21_24h56.50.172,Info_measure_main_exp,2022.2.2,Win32,60.0528465,,,,,,,,,,,,,,,,,,masks/mask_001.jpg,,,,,,,,,,,,,,,,,,,,,,,,,,,,,,,,,,,,,,,,,,,,,,,,0,3,3,0,1,,,,,,,,,,,,,,,,,,,,,,,,,,,,,,,,,,,,,,,,,
6154d48dc9f207a430d58b90,001,2022-11-21_24h56.50.172,Info_measure_main_exp,2022.2.2,Win32,60.0528465,,,,,,,,,,,,,,,,,,masks/mask_002.jpg,,,,,,,,,,,,,,,,,,,,,,,,,,,,,,,,,,,,,,,,,,,,,,,,0,4,4,1,1,,,,,,,,,,,,,,,,,,,,,,,,,,,,,,,,,,,,,,,,,
6154d48dc9f207a430d58b90,001,2022-11-21_24h56.50.172,Info_measure_main_exp,2022.2.2,Win32,60.0528465,,,,,,,,,,,,,,,,,,,,,,,,,,,,,,1,3.2292,1,,,,,,,,,,,,0,131,5,5,2190,2178,absent_patch/patch0002190.jpg,absent_patch/patch0002178.jpg,,,,,,,,,,,,,,,,,,,,-0.13671875,0.04296875,1,0,0,response7disk,4,0.001302083,0.00390625,1,0,0,center_square,0,3,3,14,1,,,,,,,,,,,,,,,,,,,,,,,
6154d48dc9f207a430d58b90,001,2022-11-21_24h56.50.172,Info_measure_main_exp,2022.2.2,Win32,60.0528465,,,,,,,,,,,,,,,,,,masks/mask_002.jpg,,,,,,,,,,,,,,,,,,,,,,,,,,,,,,,,,,,,,,,,,,,0,0,0,1,1,,,,,,,,,,,,,,,,,,,,,,,,,,,,,,,,,,,,,,,,,,,,,,
6154d48dc9f207a430d58b90,001,2022-11-21_24h56.50.172,Info_measure_main_exp,2022.2.2,Win32,60.0528465,,,,,,,,,,,,,,,,,,masks/mask_003.jpg,,,,,,,,,,,,,,,,,,,,,,,,,,,,,,,,,,,,,,,,,,,0,1,1,2,1,,,,,,,,,,,,,,,,,,,,,,,,,,,,,,,,,,,,,,,,,,,,,,
6154d48dc9f207a430d58b90,001,2022-11-21_24h56.50.172,Info_measure_main_exp,2022.2.2,Win32,60.0528465,,,,,,,,,,,,,,,,,,masks/mask_005.jpg,,,,,,,,,,,,,,,,,,,,,,,,,,,,,,,,,,,,,,,,,,,0,2,2,4,1,,,,,,,,,,,,,,,,,,,,,,,,,,,,,,,,,,,,,,,,,,,,,,
6154d48dc9f207a430d58b90,001,2022-11-21_24h56.50.172,Info_measure_main_exp,2022.2.2,Win32,60.0528465,,,,,,,,,,,,,,,,,,masks/mask_004.jpg,,,,,,,,,,,,,,,,,,,,,,,,,,,,,,,,,,,,,,,,,,,0,3,3,3,1,,,,,,,,,,,,,,,,,,,,,,,,,,,,,,,,,,,,,,,,,,,,,,
6154d48dc9f207a430d58b90,001,2022-11-21_24h56.50.172,Info_measure_main_exp,2022.2.2,Win32,60.0528465,,,,,,,,,,,,,,,,,,masks/mask_001.jpg,,,,,,,,,,,,,,,,,,,,,,,,,,,,,,,,,,,,,,,,,,,0,4,4,0,1,,,,,,,,,,,,,,,,,,,,,,,,,,,,,,,,,,,,,,,,,,,,,,
6154d48dc9f207a430d58b90,001,2022-11-21_24h56.50.172,Info_measure_main_exp,2022.2.2,Win32,60.0528465,,,,,,,,,,,,,,,,,,masks/mask_003.jpg,,,,,,,,,,,,,,,,,,,,,,,,,,,,,,,,,,,,,,,,,,,,,,,,0,0,0,2,1,,,,,,,,,,,,,,,,,,,,,,,,,,,,,,,,,,,,,,,,,
6154d48dc9f207a430d58b90,001,2022-11-21_24h56.50.172,Info_measure_main_exp,2022.2.2,Win32,60.0528465,,,,,,,,,,,,,,,,,,masks/mask_002.jpg,,,,,,,,,,,,,,,,,,,,,,,,,,,,,,,,,,,,,,,,,,,,,,,,0,1,1,1,1,,,,,,,,,,,,,,,,,,,,,,,,,,,,,,,,,,,,,,,,,
6154d48dc9f207a430d58b90,001,2022-11-21_24h56.50.172,Info_measure_main_exp,2022.2.2,Win32,60.0528465,,,,,,,,,,,,,,,,,,masks/mask_005.jpg,,,,,,,,,,,,,,,,,,,,,,,,,,,,,,,,,,,,,,,,,,,,,,,,0,2,2,4,1,,,,,,,,,,,,,,,,,,,,,,,,,,,,,,,,,,,,,,,,,
6154d48dc9f207a430d58b90,001,2022-11-21_24h56.50.172,Info_measure_main_exp,2022.2.2,Win32,60.0528465,,,,,,,,,,,,,,,,,,masks/mask_004.jpg,,,,,,,,,,,,,,,,,,,,,,,,,,,,,,,,,,,,,,,,,,,,,,,,0,3,3,3,1,,,,,,,,,,,,,,,,,,,,,,,,,,,,,,,,,,,,,,,,,
6154d48dc9f207a430d58b90,001,2022-11-21_24h56.50.172,Info_measure_main_exp,2022.2.2,Win32,60.0528465,,,,,,,,,,,,,,,,,,masks/mask_001.jpg,,,,,,,,,,,,,,,,,,,,,,,,,,,,,,,,,,,,,,,,,,,,,,,,0,4,4,0,1,,,,,,,,,,,,,,,,,,,,,,,,,,,,,,,,,,,,,,,,,
6154d48dc9f207a430d58b90,001,2022-11-21_24h56.50.172,Info_measure_main_exp,2022.2.2,Win32,60.0528465,,,,,,,,,,,,,,,,,,,,,,,,,,,,,,7,0.8346,1,,,,,,,,,,,,0,131,5,5,2238,2214,absent_patch/patch0002238.jpg,absent_patch/patch0002214.jpg,,,,,,,,,,,,,,,,,,,,0.03125,0.080729167,1,0,0,response1disk,5,-0.00390625,-0.006510417,1,0,0,center_square,0,4,4,81,1,,,,,,,,,,,,,,,,,,,,,,,
6154d48dc9f207a430d58b90,001,2022-11-21_24h56.50.172,Info_measure_main_exp,2022.2.2,Win32,60.0528465,,,,,,,,,,,,,,,,,,masks/mask_001.jpg,,,,,,,,,,,,,,,,,,,,,,,,,,,,,,,,,,,,,,,,,,,0,0,0,0,1,,,,,,,,,,,,,,,,,,,,,,,,,,,,,,,,,,,,,,,,,,,,,,
6154d48dc9f207a430d58b90,001,2022-11-21_24h56.50.172,Info_measure_main_exp,2022.2.2,Win32,60.0528465,,,,,,,,,,,,,,,,,,masks/mask_003.jpg,,,,,,,,,,,,,,,,,,,,,,,,,,,,,,,,,,,,,,,,,,,0,1,1,2,1,,,,,,,,,,,,,,,,,,,,,,,,,,,,,,,,,,,,,,,,,,,,,,
6154d48dc9f207a430d58b90,001,2022-11-21_24h56.50.172,Info_measure_main_exp,2022.2.2,Win32,60.0528465,,,,,,,,,,,,,,,,,,masks/mask_002.jpg,,,,,,,,,,,,,,,,,,,,,,,,,,,,,,,,,,,,,,,,,,,0,2,2,1,1,,,,,,,,,,,,,,,,,,,,,,,,,,,,,,,,,,,,,,,,,,,,,,
6154d48dc9f207a430d58b90,001,2022-11-21_24h56.50.172,Info_measure_main_exp,2022.2.2,Win32,60.0528465,,,,,,,,,,,,,,,,,,masks/mask_004.jpg,,,,,,,,,,,,,,,,,,,,,,,,,,,,,,,,,,,,,,,,,,,0,3,3,3,1,,,,,,,,,,,,,,,,,,,,,,,,,,,,,,,,,,,,,,,,,,,,,,
6154d48dc9f207a430d58b90,001,2022-11-21_24h56.50.172,Info_measure_main_exp,2022.2.2,Win32,60.0528465,,,,,,,,,,,,,,,,,,masks/mask_005.jpg,,,,,,,,,,,,,,,,,,,,,,,,,,,,,,,,,,,,,,,,,,,0,4,4,4,1,,,,,,,,,,,,,,,,,,,,,,,,,,,,,,,,,,,,,,,,,,,,,,
6154d48dc9f207a430d58b90,001,2022-11-21_24h56.50.172,Info_measure_main_exp,2022.2.2,Win32,60.0528465,,,,,,,,,,,,,,,,,,masks/mask_004.jpg,,,,,,,,,,,,,,,,,,,,,,,,,,,,,,,,,,,,,,,,,,,,,,,,0,0,0,3,1,,,,,,,,,,,,,,,,,,,,,,,,,,,,,,,,,,,,,,,,,
6154d48dc9f207a430d58b90,001,2022-11-21_24h56.50.172,Info_measure_main_exp,2022.2.2,Win32,60.0528465,,,,,,,,,,,,,,,,,,masks/mask_003.jpg,,,,,,,,,,,,,,,,,,,,,,,,,,,,,,,,,,,,,,,,,,,,,,,,0,1,1,2,1,,,,,,,,,,,,,,,,,,,,,,,,,,,,,,,,,,,,,,,,,
6154d48dc9f207a430d58b90,001,2022-11-21_24h56.50.172,Info_measure_main_exp,2022.2.2,Win32,60.0528465,,,,,,,,,,,,,,,,,,masks/mask_001.jpg,,,,,,,,,,,,,,,,,,,,,,,,,,,,,,,,,,,,,,,,,,,,,,,,0,2,2,0,1,,,,,,,,,,,,,,,,,,,,,,,,,,,,,,,,,,,,,,,,,
6154d48dc9f207a430d58b90,001,2022-11-21_24h56.50.172,Info_measure_main_exp,2022.2.2,Win32,60.0528465,,,,,,,,,,,,,,,,,,masks/mask_005.jpg,,,,,,,,,,,,,,,,,,,,,,,,,,,,,,,,,,,,,,,,,,,,,,,,0,3,3,4,1,,,,,,,,,,,,,,,,,,,,,,,,,,,,,,,,,,,,,,,,,
6154d48dc9f207a430d58b90,001,2022-11-21_24h56.50.172,Info_measure_main_exp,2022.2.2,Win32,60.0528465,,,,,,,,,,,,,,,,,,masks/mask_002.jpg,,,,,,,,,,,,,,,,,,,,,,,,,,,,,,,,,,,,,,,,,,,,,,,,0,4,4,1,1,,,,,,,,,,,,,,,,,,,,,,,,,,,,,,,,,,,,,,,,,
6154d48dc9f207a430d58b90,001,2022-11-21_24h56.50.172,Info_measure_main_exp,2022.2.2,Win32,60.0528465,,,,,,,,,,,,,,,,,,,,,,,,,,,,,,4,2.2473,1,,,,,,,,,,,,0,131,5,5,2082,1974,absent_patch/patch0002082.jpg,absent_patch/patch0001974.jpg,,,,,,,,,,,,,,,,,,,,0.055989583,-0.084635417,1,0,0,response3disk,6,-0.002604167,0.002604167,1,0,0,center_square,0,5,5,26,1,,,,,,,,,,,,,,,,,,,,,,,
6154d48dc9f207a430d58b90,001,2022-11-21_24h56.50.172,Info_measure_main_exp,2022.2.2,Win32,60.0528465,,,,,,,,,,,,,,,,,,masks/mask_002.jpg,,,,,,,,,,,,,,,,,,,,,,,,,,,,,,,,,,,,,,,,,,,0,0,0,1,1,,,,,,,,,,,,,,,,,,,,,,,,,,,,,,,,,,,,,,,,,,,,,,
6154d48dc9f207a430d58b90,001,2022-11-21_24h56.50.172,Info_measure_main_exp,2022.2.2,Win32,60.0528465,,,,,,,,,,,,,,,,,,masks/mask_004.jpg,,,,,,,,,,,,,,,,,,,,,,,,,,,,,,,,,,,,,,,,,,,0,1,1,3,1,,,,,,,,,,,,,,,,,,,,,,,,,,,,,,,,,,,,,,,,,,,,,,
6154d48dc9f207a430d58b90,001,2022-11-21_24h56.50.172,Info_measure_main_exp,2022.2.2,Win32,60.0528465,,,,,,,,,,,,,,,,,,masks/mask_001.jpg,,,,,,,,,,,,,,,,,,,,,,,,,,,,,,,,,,,,,,,,,,,0,2,2,0,1,,,,,,,,,,,,,,,,,,,,,,,,,,,,,,,,,,,,,,,,,,,,,,
6154d48dc9f207a430d58b90,001,2022-11-21_24h56.50.172,Info_measure_main_exp,2022.2.2,Win32,60.0528465,,,,,,,,,,,,,,,,,,masks/mask_005.jpg,,,,,,,,,,,,,,,,,,,,,,,,,,,,,,,,,,,,,,,,,,,0,3,3,4,1,,,,,,,,,,,,,,,,,,,,,,,,,,,,,,,,,,,,,,,,,,,,,,
6154d48dc9f207a430d58b90,001,2022-11-21_24h56.50.172,Info_measure_main_exp,2022.2.2,Win32,60.0528465,,,,,,,,,,,,,,,,,,masks/mask_003.jpg,,,,,,,,,,,,,,,,,,,,,,,,,,,,,,,,,,,,,,,,,,,0,4,4,2,1,,,,,,,,,,,,,,,,,,,,,,,,,,,,,,,,,,,,,,,,,,,,,,
6154d48dc9f207a430d58b90,001,2022-11-21_24h56.50.172,Info_measure_main_exp,2022.2.2,Win32,60.0528465,,,,,,,,,,,,,,,,,,masks/mask_002.jpg,,,,,,,,,,,,,,,,,,,,,,,,,,,,,,,,,,,,,,,,,,,,,,,,0,0,0,1,1,,,,,,,,,,,,,,,,,,,,,,,,,,,,,,,,,,,,,,,,,
6154d48dc9f207a430d58b90,001,2022-11-21_24h56.50.172,Info_measure_main_exp,2022.2.2,Win32,60.0528465,,,,,,,,,,,,,,,,,,masks/mask_001.jpg,,,,,,,,,,,,,,,,,,,,,,,,,,,,,,,,,,,,,,,,,,,,,,,,0,1,1,0,1,,,,,,,,,,,,,,,,,,,,,,,,,,,,,,,,,,,,,,,,,
6154d48dc9f207a430d58b90,001,2022-11-21_24h56.50.172,Info_measure_main_exp,2022.2.2,Win32,60.0528465,,,,,,,,,,,,,,,,,,masks/mask_005.jpg,,,,,,,,,,,,,,,,,,,,,,,,,,,,,,,,,,,,,,,,,,,,,,,,0,2,2,4,1,,,,,,,,,,,,,,,,,,,,,,,,,,,,,,,,,,,,,,,,,
6154d48dc9f207a430d58b90,001,2022-11-21_24h56.50.172,Info_measure_main_exp,2022.2.2,Win32,60.0528465,,,,,,,,,,,,,,,,,,masks/mask_003.jpg,,,,,,,,,,,,,,,,,,,,,,,,,,,,,,,,,,,,,,,,,,,,,,,,0,3,3,2,1,,,,,,,,,,,,,,,,,,,,,,,,,,,,,,,,,,,,,,,,,
6154d48dc9f207a430d58b90,001,2022-11-21_24h56.50.172,Info_measure_main_exp,2022.2.2,Win32,60.0528465,,,,,,,,,,,,,,,,,,masks/mask_004.jpg,,,,,,,,,,,,,,,,,,,,,,,,,,,,,,,,,,,,,,,,,,,,,,,,0,4,4,3,1,,,,,,,,,,,,,,,,,,,,,,,,,,,,,,,,,,,,,,,,,
6154d48dc9f207a430d58b90,001,2022-11-21_24h56.50.172,Info_measure_main_exp,2022.2.2,Win32,60.0528465,,,,,,,,,,,,,,,,,,,,,,,,,,,,,,7,0.6873,1,,,,,,,,,,,,0,131,5,5,2274,2214,absent_patch/patch0002274.jpg,absent_patch/patch0002214.jpg,,,,,,,,,,,,,,,,,,,,0.028645833,0.079427083,1,0,0,response1disk,7,0.001302083,0.001302083,1,0,0,center_square,0,6,6,11,1,,,,,,,,,,,,,,,,,,,,,,,
6154d48dc9f207a430d58b90,001,2022-11-21_24h56.50.172,Info_measure_main_exp,2022.2.2,Win32,60.0528465,,,,,,,,,,,,,,,,,,masks/mask_001.jpg,,,,,,,,,,,,,,,,,,,,,,,,,,,,,,,,,,,,,,,,,,,0,0,0,0,1,,,,,,,,,,,,,,,,,,,,,,,,,,,,,,,,,,,,,,,,,,,,,,
6154d48dc9f207a430d58b90,001,2022-11-21_24h56.50.172,Info_measure_main_exp,2022.2.2,Win32,60.0528465,,,,,,,,,,,,,,,,,,masks/mask_005.jpg,,,,,,,,,,,,,,,,,,,,,,,,,,,,,,,,,,,,,,,,,,,0,1,1,4,1,,,,,,,,,,,,,,,,,,,,,,,,,,,,,,,,,,,,,,,,,,,,,,
6154d48dc9f207a430d58b90,001,2022-11-21_24h56.50.172,Info_measure_main_exp,2022.2.2,Win32,60.0528465,,,,,,,,,,,,,,,,,,masks/mask_002.jpg,,,,,,,,,,,,,,,,,,,,,,,,,,,,,,,,,,,,,,,,,,,0,2,2,1,1,,,,,,,,,,,,,,,,,,,,,,,,,,,,,,,,,,,,,,,,,,,,,,
6154d48dc9f207a430d58b90,001,2022-11-21_24h56.50.172,Info_measure_main_exp,2022.2.2,Win32,60.0528465,,,,,,,,,,,,,,,,,,masks/mask_004.jpg,,,,,,,,,,,,,,,,,,,,,,,,,,,,,,,,,,,,,,,,,,,0,3,3,3,1,,,,,,,,,,,,,,,,,,,,,,,,,,,,,,,,,,,,,,,,,,,,,,
6154d48dc9f207a430d58b90,001,2022-11-21_24h56.50.172,Info_measure_main_exp,2022.2.2,Win32,60.0528465,,,,,,,,,,,,,,,,,,masks/mask_003.jpg,,,,,,,,,,,,,,,,,,,,,,,,,,,,,,,,,,,,,,,,,,,0,4,4,2,1,,,,,,,,,,,,,,,,,,,,,,,,,,,,,,,,,,,,,,,,,,,,,,
6154d48dc9f207a430d58b90,001,2022-11-21_24h56.50.172,Info_measure_main_exp,2022.2.2,Win32,60.0528465,,,,,,,,,,,,,,,,,,masks/mask_002.jpg,,,,,,,,,,,,,,,,,,,,,,,,,,,,,,,,,,,,,,,,,,,,,,,,0,0,0,1,1,,,,,,,,,,,,,,,,,,,,,,,,,,,,,,,,,,,,,,,,,
6154d48dc9f207a430d58b90,001,2022-11-21_24h56.50.172,Info_measure_main_exp,2022.2.2,Win32,60.0528465,,,,,,,,,,,,,,,,,,masks/mask_004.jpg,,,,,,,,,,,,,,,,,,,,,,,,,,,,,,,,,,,,,,,,,,,,,,,,0,1,1,3,1,,,,,,,,,,,,,,,,,,,,,,,,,,,,,,,,,,,,,,,,,
6154d48dc9f207a430d58b90,001,2022-11-21_24h56.50.172,Info_measure_main_exp,2022.2.2,Win32,60.0528465,,,,,,,,,,,,,,,,,,masks/mask_003.jpg,,,,,,,,,,,,,,,,,,,,,,,,,,,,,,,,,,,,,,,,,,,,,,,,0,2,2,2,1,,,,,,,,,,,,,,,,,,,,,,,,,,,,,,,,,,,,,,,,,
6154d48dc9f207a430d58b90,001,2022-11-21_24h56.50.172,Info_measure_main_exp,2022.2.2,Win32,60.0528465,,,,,,,,,,,,,,,,,,masks/mask_005.jpg,,,,,,,,,,,,,,,,,,,,,,,,,,,,,,,,,,,,,,,,,,,,,,,,0,3,3,4,1,,,,,,,,,,,,,,,,,,,,,,,,,,,,,,,,,,,,,,,,,
6154d48dc9f207a430d58b90,001,2022-11-21_24h56.50.172,Info_measure_main_exp,2022.2.2,Win32,60.0528465,,,,,,,,,,,,,,,,,,masks/mask_001.jpg,,,,,,,,,,,,,,,,,,,,,,,,,,,,,,,,,,,,,,,,,,,,,,,,0,4,4,0,1,,,,,,,,,,,,,,,,,,,,,,,,,,,,,,,,,,,,,,,,,
6154d48dc9f207a430d58b90,001,2022-11-21_24h56.50.172,Info_measure_main_exp,2022.2.2,Win32,60.0528465,,,,,,,,,,,,,,,,,,,,,,,,,,,,,,0,0.8138,1,,,,,,,,,,,,0,131,5,5,2238,2238,absent_patch/patch0002238.jpg,absent_patch/patch0002238.jpg,,,,,,,,,,,,,,,,,,,,-0.0234375,0.102864583,1,0,0,response7disk,8,-0.001302083,0.0078125,1,0,0,center_square,0,7,7,58,1,,,,,,,,,,,,,,,,,,,,,,,
6154d48dc9f207a430d58b90,001,2022-11-21_24h56.50.172,Info_measure_main_exp,2022.2.2,Win32,60.0528465,,,,,,,,,,,,,,,,,,masks/mask_002.jpg,,,,,,,,,,,,,,,,,,,,,,,,,,,,,,,,,,,,,,,,,,,0,0,0,1,1,,,,,,,,,,,,,,,,,,,,,,,,,,,,,,,,,,,,,,,,,,,,,,
6154d48dc9f207a430d58b90,001,2022-11-21_24h56.50.172,Info_measure_main_exp,2022.2.2,Win32,60.0528465,,,,,,,,,,,,,,,,,,masks/mask_001.jpg,,,,,,,,,,,,,,,,,,,,,,,,,,,,,,,,,,,,,,,,,,,0,1,1,0,1,,,,,,,,,,,,,,,,,,,,,,,,,,,,,,,,,,,,,,,,,,,,,,
6154d48dc9f207a430d58b90,001,2022-11-21_24h56.50.172,Info_measure_main_exp,2022.2.2,Win32,60.0528465,,,,,,,,,,,,,,,,,,masks/mask_005.jpg,,,,,,,,,,,,,,,,,,,,,,,,,,,,,,,,,,,,,,,,,,,0,2,2,4,1,,,,,,,,,,,,,,,,,,,,,,,,,,,,,,,,,,,,,,,,,,,,,,
6154d48dc9f207a430d58b90,001,2022-11-21_24h56.50.172,Info_measure_main_exp,2022.2.2,Win32,60.0528465,,,,,,,,,,,,,,,,,,masks/mask_004.jpg,,,,,,,,,,,,,,,,,,,,,,,,,,,,,,,,,,,,,,,,,,,0,3,3,3,1,,,,,,,,,,,,,,,,,,,,,,,,,,,,,,,,,,,,,,,,,,,,,,
6154d48dc9f207a430d58b90,001,2022-11-21_24h56.50.172,Info_measure_main_exp,2022.2.2,Win32,60.0528465,,,,,,,,,,,,,,,,,,masks/mask_003.jpg,,,,,,,,,,,,,,,,,,,,,,,,,,,,,,,,,,,,,,,,,,,0,4,4,2,1,,,,,,,,,,,,,,,,,,,,,,,,,,,,,,,,,,,,,,,,,,,,,,
6154d48dc9f207a430d58b90,001,2022-11-21_24h56.50.172,Info_measure_main_exp,2022.2.2,Win32,60.0528465,,,,,,,,,,,,,,,,,,masks/mask_003.jpg,,,,,,,,,,,,,,,,,,,,,,,,,,,,,,,,,,,,,,,,,,,,,,,,0,0,0,2,1,,,,,,,,,,,,,,,,,,,,,,,,,,,,,,,,,,,,,,,,,
6154d48dc9f207a430d58b90,001,2022-11-21_24h56.50.172,Info_measure_main_exp,2022.2.2,Win32,60.0528465,,,,,,,,,,,,,,,,,,masks/mask_004.jpg,,,,,,,,,,,,,,,,,,,,,,,,,,,,,,,,,,,,,,,,,,,,,,,,0,1,1,3,1,,,,,,,,,,,,,,,,,,,,,,,,,,,,,,,,,,,,,,,,,
6154d48dc9f207a430d58b90,001,2022-11-21_24h56.50.172,Info_measure_main_exp,2022.2.2,Win32,60.0528465,,,,,,,,,,,,,,,,,,masks/mask_002.jpg,,,,,,,,,,,,,,,,,,,,,,,,,,,,,,,,,,,,,,,,,,,,,,,,0,2,2,1,1,,,,,,,,,,,,,,,,,,,,,,,,,,,,,,,,,,,,,,,,,
6154d48dc9f207a430d58b90,001,2022-11-21_24h56.50.172,Info_measure_main_exp,2022.2.2,Win32,60.0528465,,,,,,,,,,,,,,,,,,masks/mask_001.jpg,,,,,,,,,,,,,,,,,,,,,,,,,,,,,,,,,,,,,,,,,,,,,,,,0,3,3,0,1,,,,,,,,,,,,,,,,,,,,,,,,,,,,,,,,,,,,,,,,,
6154d48dc9f207a430d58b90,001,2022-11-21_24h56.50.172,Info_measure_main_exp,2022.2.2,Win32,60.0528465,,,,,,,,,,,,,,,,,,masks/mask_005.jpg,,,,,,,,,,,,,,,,,,,,,,,,,,,,,,,,,,,,,,,,,,,,,,,,0,4,4,4,1,,,,,,,,,,,,,,,,,,,,,,,,,,,,,,,,,,,,,,,,,
6154d48dc9f207a430d58b90,001,2022-11-21_24h56.50.172,Info_measure_main_exp,2022.2.2,Win32,60.0528465,,,,,,,,,,,,,,,,,,,,,,,,,,,,,,7,0.5843,1,,,,,,,,,,,,0,131,5,5,2250,1986,absent_patch/patch0002250.jpg,absent_patch/patch0001986.jpg,,,,,,,,,,,,,,,,,,,,0.037760417,0.095052083,1,0,0,response1disk,9,-0.001302083,-0.002604167,1,0,0,center_square,0,8,8,29,1,,,,,,,,,,,,,,,,,,,,,,,
6154d48dc9f207a430d58b90,001,2022-11-21_24h56.50.172,Info_measure_main_exp,2022.2.2,Win32,60.0528465,,,,,,,,,,,,,,,,,,masks/mask_005.jpg,,,,,,,,,,,,,,,,,,,,,,,,,,,,,,,,,,,,,,,,,,,0,0,0,4,1,,,,,,,,,,,,,,,,,,,,,,,,,,,,,,,,,,,,,,,,,,,,,,
6154d48dc9f207a430d58b90,001,2022-11-21_24h56.50.172,Info_measure_main_exp,2022.2.2,Win32,60.0528465,,,,,,,,,,,,,,,,,,masks/mask_003.jpg,,,,,,,,,,,,,,,,,,,,,,,,,,,,,,,,,,,,,,,,,,,0,1,1,2,1,,,,,,,,,,,,,,,,,,,,,,,,,,,,,,,,,,,,,,,,,,,,,,
6154d48dc9f207a430d58b90,001,2022-11-21_24h56.50.172,Info_measure_main_exp,2022.2.2,Win32,60.0528465,,,,,,,,,,,,,,,,,,masks/mask_004.jpg,,,,,,,,,,,,,,,,,,,,,,,,,,,,,,,,,,,,,,,,,,,0,2,2,3,1,,,,,,,,,,,,,,,,,,,,,,,,,,,,,,,,,,,,,,,,,,,,,,
6154d48dc9f207a430d58b90,001,2022-11-21_24h56.50.172,Info_measure_main_exp,2022.2.2,Win32,60.0528465,,,,,,,,,,,,,,,,,,masks/mask_001.jpg,,,,,,,,,,,,,,,,,,,,,,,,,,,,,,,,,,,,,,,,,,,0,3,3,0,1,,,,,,,,,,,,,,,,,,,,,,,,,,,,,,,,,,,,,,,,,,,,,,
6154d48dc9f207a430d58b90,001,2022-11-21_24h56.50.172,Info_measure_main_exp,2022.2.2,Win32,60.0528465,,,,,,,,,,,,,,,,,,masks/mask_002.jpg,,,,,,,,,,,,,,,,,,,,,,,,,,,,,,,,,,,,,,,,,,,0,4,4,1,1,,,,,,,,,,,,,,,,,,,,,,,,,,,,,,,,,,,,,,,,,,,,,,
6154d48dc9f207a430d58b90,001,2022-11-21_24h56.50.172,Info_measure_main_exp,2022.2.2,Win32,60.0528465,,,,,,,,,,,,,,,,,,masks/mask_004.jpg,,,,,,,,,,,,,,,,,,,,,,,,,,,,,,,,,,,,,,,,,,,,,,,,0,0,0,3,1,,,,,,,,,,,,,,,,,,,,,,,,,,,,,,,,,,,,,,,,,
6154d48dc9f207a430d58b90,001,2022-11-21_24h56.50.172,Info_measure_main_exp,2022.2.2,Win32,60.0528465,,,,,,,,,,,,,,,,,,masks/mask_001.jpg,,,,,,,,,,,,,,,,,,,,,,,,,,,,,,,,,,,,,,,,,,,,,,,,0,1,1,0,1,,,,,,,,,,,,,,,,,,,,,,,,,,,,,,,,,,,,,,,,,
6154d48dc9f207a430d58b90,001,2022-11-21_24h56.50.172,Info_measure_main_exp,2022.2.2,Win32,60.0528465,,,,,,,,,,,,,,,,,,masks/mask_003.jpg,,,,,,,,,,,,,,,,,,,,,,,,,,,,,,,,,,,,,,,,,,,,,,,,0,2,2,2,1,,,,,,,,,,,,,,,,,,,,,,,,,,,,,,,,,,,,,,,,,
6154d48dc9f207a430d58b90,001,2022-11-21_24h56.50.172,Info_measure_main_exp,2022.2.2,Win32,60.0528465,,,,,,,,,,,,,,,,,,masks/mask_005.jpg,,,,,,,,,,,,,,,,,,,,,,,,,,,,,,,,,,,,,,,,,,,,,,,,0,3,3,4,1,,,,,,,,,,,,,,,,,,,,,,,,,,,,,,,,,,,,,,,,,
6154d48dc9f207a430d58b90,001,2022-11-21_24h56.50.172,Info_measure_main_exp,2022.2.2,Win32,60.0528465,,,,,,,,,,,,,,,,,,masks/mask_002.jpg,,,,,,,,,,,,,,,,,,,,,,,,,,,,,,,,,,,,,,,,,,,,,,,,0,4,4,1,1,,,,,,,,,,,,,,,,,,,,,,,,,,,,,,,,,,,,,,,,,
6154d48dc9f207a430d58b90,001,2022-11-21_24h56.50.172,Info_measure_main_exp,2022.2.2,Win32,60.0528465,,,,,,,,,,,,,,,,,,,,,,,,,,,,,,5,0.8674,1,,,,,,,,,,,,0,131,5,5,2250,1950,absent_patch/patch0002250.jpg,absent_patch/patch0001950.jpg,,,,,,,,,,,,,,,,,,,,0.078125,-0.029947917,1,0,0,response3disk,10,-0.005208333,0,1,0,0,center_square,0,9,9,16,1,,,,,,,,,,,,,,,,,,,,,,,
6154d48dc9f207a430d58b90,001,2022-11-21_24h56.50.172,Info_measure_main_exp,2022.2.2,Win32,60.0528465,,,,,,,,,,,,,,,,,,masks/mask_001.jpg,,,,,,,,,,,,,,,,,,,,,,,,,,,,,,,,,,,,,,,,,,,0,0,0,0,1,,,,,,,,,,,,,,,,,,,,,,,,,,,,,,,,,,,,,,,,,,,,,,
6154d48dc9f207a430d58b90,001,2022-11-21_24h56.50.172,Info_measure_main_exp,2022.2.2,Win32,60.0528465,,,,,,,,,,,,,,,,,,masks/mask_004.jpg,,,,,,,,,,,,,,,,,,,,,,,,,,,,,,,,,,,,,,,,,,,0,1,1,3,1,,,,,,,,,,,,,,,,,,,,,,,,,,,,,,,,,,,,,,,,,,,,,,
6154d48dc9f207a430d58b90,001,2022-11-21_24h56.50.172,Info_measure_main_exp,2022.2.2,Win32,60.0528465,,,,,,,,,,,,,,,,,,masks/mask_003.jpg,,,,,,,,,,,,,,,,,,,,,,,,,,,,,,,,,,,,,,,,,,,0,2,2,2,1,,,,,,,,,,,,,,,,,,,,,,,,,,,,,,,,,,,,,,,,,,,,,,
6154d48dc9f207a430d58b90,001,2022-11-21_24h56.50.172,Info_measure_main_exp,2022.2.2,Win32,60.0528465,,,,,,,,,,,,,,,,,,masks/mask_002.jpg,,,,,,,,,,,,,,,,,,,,,,,,,,,,,,,,,,,,,,,,,,,0,3,3,1,1,,,,,,,,,,,,,,,,,,,,,,,,,,,,,,,,,,,,,,,,,,,,,,
6154d48dc9f207a430d58b90,001,2022-11-21_24h56.50.172,Info_measure_main_exp,2022.2.2,Win32,60.0528465,,,,,,,,,,,,,,,,,,masks/mask_005.jpg,,,,,,,,,,,,,,,,,,,,,,,,,,,,,,,,,,,,,,,,,,,0,4,4,4,1,,,,,,,,,,,,,,,,,,,,,,,,,,,,,,,,,,,,,,,,,,,,,,
6154d48dc9f207a430d58b90,001,2022-11-21_24h56.50.172,Info_measure_main_exp,2022.2.2,Win32,60.0528465,,,,,,,,,,,,,,,,,,masks/mask_001.jpg,,,,,,,,,,,,,,,,,,,,,,,,,,,,,,,,,,,,,,,,,,,,,,,,0,0,0,0,1,,,,,,,,,,,,,,,,,,,,,,,,,,,,,,,,,,,,,,,,,
6154d48dc9f207a430d58b90,001,2022-11-21_24h56.50.172,Info_measure_main_exp,2022.2.2,Win32,60.0528465,,,,,,,,,,,,,,,,,,masks/mask_004.jpg,,,,,,,,,,,,,,,,,,,,,,,,,,,,,,,,,,,,,,,,,,,,,,,,0,1,1,3,1,,,,,,,,,,,,,,,,,,,,,,,,,,,,,,,,,,,,,,,,,
6154d48dc9f207a430d58b90,001,2022-11-21_24h56.50.172,Info_measure_main_exp,2022.2.2,Win32,60.0528465,,,,,,,,,,,,,,,,,,masks/mask_005.jpg,,,,,,,,,,,,,,,,,,,,,,,,,,,,,,,,,,,,,,,,,,,,,,,,0,2,2,4,1,,,,,,,,,,,,,,,,,,,,,,,,,,,,,,,,,,,,,,,,,
6154d48dc9f207a430d58b90,001,2022-11-21_24h56.50.172,Info_measure_main_exp,2022.2.2,Win32,60.0528465,,,,,,,,,,,,,,,,,,masks/mask_002.jpg,,,,,,,,,,,,,,,,,,,,,,,,,,,,,,,,,,,,,,,,,,,,,,,,0,3,3,1,1,,,,,,,,,,,,,,,,,,,,,,,,,,,,,,,,,,,,,,,,,
6154d48dc9f207a430d58b90,001,2022-11-21_24h56.50.172,Info_measure_main_exp,2022.2.2,Win32,60.0528465,,,,,,,,,,,,,,,,,,masks/mask_003.jpg,,,,,,,,,,,,,,,,,,,,,,,,,,,,,,,,,,,,,,,,,,,,,,,,0,4,4,2,1,,,,,,,,,,,,,,,,,,,,,,,,,,,,,,,,,,,,,,,,,
6154d48dc9f207a430d58b90,001,2022-11-21_24h56.50.172,Info_measure_main_exp,2022.2.2,Win32,60.0528465,,,,,,,,,,,,,,,,,,,,,,,,,,,,,,6,1.2996,1,,,,,,,,,,,,1,131,5,5,1,2274,present_patch/cong_131_5_a.jpg,absent_patch/patch0002274.jpg,,,,,,,,,,,,,,,,,,,,0.0546875,0.03125,1,0,0,response1disk,11,-0.00390625,-0.006510417,1,0,0,center_square,0,10,10,105,1,,,,,,,,,,,,,,,,,,,,,,,
6154d48dc9f207a430d58b90,001,2022-11-21_24h56.50.172,Info_measure_main_exp,2022.2.2,Win32,60.0528465,,,,,,,,,,,,,,,,,,masks/mask_003.jpg,,,,,,,,,,,,,,,,,,,,,,,,,,,,,,,,,,,,,,,,,,,0,0,0,2,1,,,,,,,,,,,,,,,,,,,,,,,,,,,,,,,,,,,,,,,,,,,,,,
6154d48dc9f207a430d58b90,001,2022-11-21_24h56.50.172,Info_measure_main_exp,2022.2.2,Win32,60.0528465,,,,,,,,,,,,,,,,,,masks/mask_004.jpg,,,,,,,,,,,,,,,,,,,,,,,,,,,,,,,,,,,,,,,,,,,0,1,1,3,1,,,,,,,,,,,,,,,,,,,,,,,,,,,,,,,,,,,,,,,,,,,,,,
6154d48dc9f207a430d58b90,001,2022-11-21_24h56.50.172,Info_measure_main_exp,2022.2.2,Win32,60.0528465,,,,,,,,,,,,,,,,,,masks/mask_005.jpg,,,,,,,,,,,,,,,,,,,,,,,,,,,,,,,,,,,,,,,,,,,0,2,2,4,1,,,,,,,,,,,,,,,,,,,,,,,,,,,,,,,,,,,,,,,,,,,,,,
6154d48dc9f207a430d58b90,001,2022-11-21_24h56.50.172,Info_measure_main_exp,2022.2.2,Win32,60.0528465,,,,,,,,,,,,,,,,,,masks/mask_001.jpg,,,,,,,,,,,,,,,,,,,,,,,,,,,,,,,,,,,,,,,,,,,0,3,3,0,1,,,,,,,,,,,,,,,,,,,,,,,,,,,,,,,,,,,,,,,,,,,,,,
6154d48dc9f207a430d58b90,001,2022-11-21_24h56.50.172,Info_measure_main_exp,2022.2.2,Win32,60.0528465,,,,,,,,,,,,,,,,,,masks/mask_002.jpg,,,,,,,,,,,,,,,,,,,,,,,,,,,,,,,,,,,,,,,,,,,0,4,4,1,1,,,,,,,,,,,,,,,,,,,,,,,,,,,,,,,,,,,,,,,,,,,,,,
6154d48dc9f207a430d58b90,001,2022-11-21_24h56.50.172,Info_measure_main_exp,2022.2.2,Win32,60.0528465,,,,,,,,,,,,,,,,,,masks/mask_002.jpg,,,,,,,,,,,,,,,,,,,,,,,,,,,,,,,,,,,,,,,,,,,,,,,,0,0,0,1,1,,,,,,,,,,,,,,,,,,,,,,,,,,,,,,,,,,,,,,,,,
6154d48dc9f207a430d58b90,001,2022-11-21_24h56.50.172,Info_measure_main_exp,2022.2.2,Win32,60.0528465,,,,,,,,,,,,,,,,,,masks/mask_003.jpg,,,,,,,,,,,,,,,,,,,,,,,,,,,,,,,,,,,,,,,,,,,,,,,,0,1,1,2,1,,,,,,,,,,,,,,,,,,,,,,,,,,,,,,,,,,,,,,,,,
6154d48dc9f207a430d58b90,001,2022-11-21_24h56.50.172,Info_measure_main_exp,2022.2.2,Win32,60.0528465,,,,,,,,,,,,,,,,,,masks/mask_005.jpg,,,,,,,,,,,,,,,,,,,,,,,,,,,,,,,,,,,,,,,,,,,,,,,,0,2,2,4,1,,,,,,,,,,,,,,,,,,,,,,,,,,,,,,,,,,,,,,,,,
6154d48dc9f207a430d58b90,001,2022-11-21_24h56.50.172,Info_measure_main_exp,2022.2.2,Win32,60.0528465,,,,,,,,,,,,,,,,,,masks/mask_004.jpg,,,,,,,,,,,,,,,,,,,,,,,,,,,,,,,,,,,,,,,,,,,,,,,,0,3,3,3,1,,,,,,,,,,,,,,,,,,,,,,,,,,,,,,,,,,,,,,,,,
6154d48dc9f207a430d58b90,001,2022-11-21_24h56.50.172,Info_measure_main_exp,2022.2.2,Win32,60.0528465,,,,,,,,,,,,,,,,,,masks/mask_001.jpg,,,,,,,,,,,,,,,,,,,,,,,,,,,,,,,,,,,,,,,,,,,,,,,,0,4,4,0,1,,,,,,,,,,,,,,,,,,,,,,,,,,,,,,,,,,,,,,,,,
6154d48dc9f207a430d58b90,001,2022-11-21_24h56.50.172,Info_measure_main_exp,2022.2.2,Win32,60.0528465,,,,,,,,,,,,,,,,,,,,,,,,,,,,,,7,0.5987,1,,,,,,,,,,,,1,131,5,5,2190,1,absent_patch/patch0002190.jpg,present_patch/cong_131_5_a.jpg,,,,,,,,,,,,,,,,,,,,0.037760417,0.083333333,1,0,0,response1disk,12,0.00390625,0.002604167,1,0,0,center_square,0,11,11,64,1,,,,,,,,,,,,,,,,,,,,,,,
6154d48dc9f207a430d58b90,001,2022-11-21_24h56.50.172,Info_measure_main_exp,2022.2.2,Win32,60.0528465,,,,,,,,,,,,,,,,,,masks/mask_003.jpg,,,,,,,,,,,,,,,,,,,,,,,,,,,,,,,,,,,,,,,,,,,0,0,0,2,1,,,,,,,,,,,,,,,,,,,,,,,,,,,,,,,,,,,,,,,,,,,,,,
6154d48dc9f207a430d58b90,001,2022-11-21_24h56.50.172,Info_measure_main_exp,2022.2.2,Win32,60.0528465,,,,,,,,,,,,,,,,,,masks/mask_004.jpg,,,,,,,,,,,,,,,,,,,,,,,,,,,,,,,,,,,,,,,,,,,0,1,1,3,1,,,,,,,,,,,,,,,,,,,,,,,,,,,,,,,,,,,,,,,,,,,,,,
6154d48dc9f207a430d58b90,001,2022-11-21_24h56.50.172,Info_measure_main_exp,2022.2.2,Win32,60.0528465,,,,,,,,,,,,,,,,,,masks/mask_005.jpg,,,,,,,,,,,,,,,,,,,,,,,,,,,,,,,,,,,,,,,,,,,0,2,2,4,1,,,,,,,,,,,,,,,,,,,,,,,,,,,,,,,,,,,,,,,,,,,,,,
6154d48dc9f207a430d58b90,001,2022-11-21_24h56.50.172,Info_measure_main_exp,2022.2.2,Win32,60.0528465,,,,,,,,,,,,,,,,,,masks/mask_001.jpg,,,,,,,,,,,,,,,,,,,,,,,,,,,,,,,,,,,,,,,,,,,0,3,3,0,1,,,,,,,,,,,,,,,,,,,,,,,,,,,,,,,,,,,,,,,,,,,,,,
6154d48dc9f207a430d58b90,001,2022-11-21_24h56.50.172,Info_measure_main_exp,2022.2.2,Win32,60.0528465,,,,,,,,,,,,,,,,,,masks/mask_002.jpg,,,,,,,,,,,,,,,,,,,,,,,,,,,,,,,,,,,,,,,,,,,0,4,4,1,1,,,,,,,,,,,,,,,,,,,,,,,,,,,,,,,,,,,,,,,,,,,,,,
6154d48dc9f207a430d58b90,001,2022-11-21_24h56.50.172,Info_measure_main_exp,2022.2.2,Win32,60.0528465,,,,,,,,,,,,,,,,,,masks/mask_003.jpg,,,,,,,,,,,,,,,,,,,,,,,,,,,,,,,,,,,,,,,,,,,,,,,,0,0,0,2,1,,,,,,,,,,,,,,,,,,,,,,,,,,,,,,,,,,,,,,,,,
6154d48dc9f207a430d58b90,001,2022-11-21_24h56.50.172,Info_measure_main_exp,2022.2.2,Win32,60.0528465,,,,,,,,,,,,,,,,,,masks/mask_005.jpg,,,,,,,,,,,,,,,,,,,,,,,,,,,,,,,,,,,,,,,,,,,,,,,,0,1,1,4,1,,,,,,,,,,,,,,,,,,,,,,,,,,,,,,,,,,,,,,,,,
6154d48dc9f207a430d58b90,001,2022-11-21_24h56.50.172,Info_measure_main_exp,2022.2.2,Win32,60.0528465,,,,,,,,,,,,,,,,,,masks/mask_001.jpg,,,,,,,,,,,,,,,,,,,,,,,,,,,,,,,,,,,,,,,,,,,,,,,,0,2,2,0,1,,,,,,,,,,,,,,,,,,,,,,,,,,,,,,,,,,,,,,,,,
6154d48dc9f207a430d58b90,001,2022-11-21_24h56.50.172,Info_measure_main_exp,2022.2.2,Win32,60.0528465,,,,,,,,,,,,,,,,,,masks/mask_004.jpg,,,,,,,,,,,,,,,,,,,,,,,,,,,,,,,,,,,,,,,,,,,,,,,,0,3,3,3,1,,,,,,,,,,,,,,,,,,,,,,,,,,,,,,,,,,,,,,,,,
6154d48dc9f207a430d58b90,001,2022-11-21_24h56.50.172,Info_measure_main_exp,2022.2.2,Win32,60.0528465,,,,,,,,,,,,,,,,,,masks/mask_002.jpg,,,,,,,,,,,,,,,,,,,,,,,,,,,,,,,,,,,,,,,,,,,,,,,,0,4,4,1,1,,,,,,,,,,,,,,,,,,,,,,,,,,,,,,,,,,,,,,,,,
6154d48dc9f207a430d58b90,001,2022-11-21_24h56.50.172,Info_measure_main_exp,2022.2.2,Win32,60.0528465,,,,,,,,,,,,,,,,,,,,,,,,,,,,,,7,2.4801,1,,,,,,,,,,,,0,131,5,5,2214,2082,absent_patch/patch0002214.jpg,absent_patch/patch0002082.jpg,,,,,,,,,,,,,,,,,,,,0.032552083,0.078125,1,0,0,response1disk,13,-0.001302083,0.001302083,1,0,0,center_square,0,12,12,103,1,,,,,,,,,,,,,,,,,,,,,,,
6154d48dc9f207a430d58b90,001,2022-11-21_24h56.50.172,Info_measure_main_exp,2022.2.2,Win32,60.0528465,,,,,,,,,,,,,,,,,,masks/mask_005.jpg,,,,,,,,,,,,,,,,,,,,,,,,,,,,,,,,,,,,,,,,,,,0,0,0,4,1,,,,,,,,,,,,,,,,,,,,,,,,,,,,,,,,,,,,,,,,,,,,,,
6154d48dc9f207a430d58b90,001,2022-11-21_24h56.50.172,Info_measure_main_exp,2022.2.2,Win32,60.0528465,,,,,,,,,,,,,,,,,,masks/mask_001.jpg,,,,,,,,,,,,,,,,,,,,,,,,,,,,,,,,,,,,,,,,,,,0,1,1,0,1,,,,,,,,,,,,,,,,,,,,,,,,,,,,,,,,,,,,,,,,,,,,,,
6154d48dc9f207a430d58b90,001,2022-11-21_24h56.50.172,Info_measure_main_exp,2022.2.2,Win32,60.0528465,,,,,,,,,,,,,,,,,,masks/mask_004.jpg,,,,,,,,,,,,,,,,,,,,,,,,,,,,,,,,,,,,,,,,,,,0,2,2,3,1,,,,,,,,,,,,,,,,,,,,,,,,,,,,,,,,,,,,,,,,,,,,,,
6154d48dc9f207a430d58b90,001,2022-11-21_24h56.50.172,Info_measure_main_exp,2022.2.2,Win32,60.0528465,,,,,,,,,,,,,,,,,,masks/mask_002.jpg,,,,,,,,,,,,,,,,,,,,,,,,,,,,,,,,,,,,,,,,,,,0,3,3,1,1,,,,,,,,,,,,,,,,,,,,,,,,,,,,,,,,,,,,,,,,,,,,,,
6154d48dc9f207a430d58b90,001,2022-11-21_24h56.50.172,Info_measure_main_exp,2022.2.2,Win32,60.0528465,,,,,,,,,,,,,,,,,,masks/mask_003.jpg,,,,,,,,,,,,,,,,,,,,,,,,,,,,,,,,,,,,,,,,,,,0,4,4,2,1,,,,,,,,,,,,,,,,,,,,,,,,,,,,,,,,,,,,,,,,,,,,,,
6154d48dc9f207a430d58b90,001,2022-11-21_24h56.50.172,Info_measure_main_exp,2022.2.2,Win32,60.0528465,,,,,,,,,,,,,,,,,,masks/mask_001.jpg,,,,,,,,,,,,,,,,,,,,,,,,,,,,,,,,,,,,,,,,,,,,,,,,0,0,0,0,1,,,,,,,,,,,,,,,,,,,,,,,,,,,,,,,,,,,,,,,,,
6154d48dc9f207a430d58b90,001,2022-11-21_24h56.50.172,Info_measure_main_exp,2022.2.2,Win32,60.0528465,,,,,,,,,,,,,,,,,,masks/mask_004.jpg,,,,,,,,,,,,,,,,,,,,,,,,,,,,,,,,,,,,,,,,,,,,,,,,0,1,1,3,1,,,,,,,,,,,,,,,,,,,,,,,,,,,,,,,,,,,,,,,,,
6154d48dc9f207a430d58b90,001,2022-11-21_24h56.50.172,Info_measure_main_exp,2022.2.2,Win32,60.0528465,,,,,,,,,,,,,,,,,,masks/mask_003.jpg,,,,,,,,,,,,,,,,,,,,,,,,,,,,,,,,,,,,,,,,,,,,,,,,0,2,2,2,1,,,,,,,,,,,,,,,,,,,,,,,,,,,,,,,,,,,,,,,,,
6154d48dc9f207a430d58b90,001,2022-11-21_24h56.50.172,Info_measure_main_exp,2022.2.2,Win32,60.0528465,,,,,,,,,,,,,,,,,,masks/mask_005.jpg,,,,,,,,,,,,,,,,,,,,,,,,,,,,,,,,,,,,,,,,,,,,,,,,0,3,3,4,1,,,,,,,,,,,,,,,,,,,,,,,,,,,,,,,,,,,,,,,,,
6154d48dc9f207a430d58b90,001,2022-11-21_24h56.50.172,Info_measure_main_exp,2022.2.2,Win32,60.0528465,,,,,,,,,,,,,,,,,,masks/mask_002.jpg,,,,,,,,,,,,,,,,,,,,,,,,,,,,,,,,,,,,,,,,,,,,,,,,0,4,4,1,1,,,,,,,,,,,,,,,,,,,,,,,,,,,,,,,,,,,,,,,,,
6154d48dc9f207a430d58b90,001,2022-11-21_24h56.50.172,Info_measure_main_exp,2022.2.2,Win32,60.0528465,,,,,,,,,,,,,,,,,,,,,,,,,,,,,,7,0.5666,1,,,,,,,,,,,,0,131,5,5,2214,1986,absent_patch/patch0002214.jpg,absent_patch/patch0001986.jpg,,,,,,,,,,,,,,,,,,,,0.015625,0.061197917,1,0,0,response1disk,14,-0.001302083,-0.001302083,1,0,0,center_square,0,13,13,34,1,,,,,,,,,,,,,,,,,,,,,,,
6154d48dc9f207a430d58b90,001,2022-11-21_24h56.50.172,Info_measure_main_exp,2022.2.2,Win32,60.0528465,,,,,,,,,,,,,,,,,,masks/mask_002.jpg,,,,,,,,,,,,,,,,,,,,,,,,,,,,,,,,,,,,,,,,,,,0,0,0,1,1,,,,,,,,,,,,,,,,,,,,,,,,,,,,,,,,,,,,,,,,,,,,,,
6154d48dc9f207a430d58b90,001,2022-11-21_24h56.50.172,Info_measure_main_exp,2022.2.2,Win32,60.0528465,,,,,,,,,,,,,,,,,,masks/mask_001.jpg,,,,,,,,,,,,,,,,,,,,,,,,,,,,,,,,,,,,,,,,,,,0,1,1,0,1,,,,,,,,,,,,,,,,,,,,,,,,,,,,,,,,,,,,,,,,,,,,,,
6154d48dc9f207a430d58b90,001,2022-11-21_24h56.50.172,Info_measure_main_exp,2022.2.2,Win32,60.0528465,,,,,,,,,,,,,,,,,,masks/mask_003.jpg,,,,,,,,,,,,,,,,,,,,,,,,,,,,,,,,,,,,,,,,,,,0,2,2,2,1,,,,,,,,,,,,,,,,,,,,,,,,,,,,,,,,,,,,,,,,,,,,,,
6154d48dc9f207a430d58b90,001,2022-11-21_24h56.50.172,Info_measure_main_exp,2022.2.2,Win32,60.0528465,,,,,,,,,,,,,,,,,,masks/mask_005.jpg,,,,,,,,,,,,,,,,,,,,,,,,,,,,,,,,,,,,,,,,,,,0,3,3,4,1,,,,,,,,,,,,,,,,,,,,,,,,,,,,,,,,,,,,,,,,,,,,,,
6154d48dc9f207a430d58b90,001,2022-11-21_24h56.50.172,Info_measure_main_exp,2022.2.2,Win32,60.0528465,,,,,,,,,,,,,,,,,,masks/mask_004.jpg,,,,,,,,,,,,,,,,,,,,,,,,,,,,,,,,,,,,,,,,,,,0,4,4,3,1,,,,,,,,,,,,,,,,,,,,,,,,,,,,,,,,,,,,,,,,,,,,,,
6154d48dc9f207a430d58b90,001,2022-11-21_24h56.50.172,Info_measure_main_exp,2022.2.2,Win32,60.0528465,,,,,,,,,,,,,,,,,,masks/mask_002.jpg,,,,,,,,,,,,,,,,,,,,,,,,,,,,,,,,,,,,,,,,,,,,,,,,0,0,0,1,1,,,,,,,,,,,,,,,,,,,,,,,,,,,,,,,,,,,,,,,,,
6154d48dc9f207a430d58b90,001,2022-11-21_24h56.50.172,Info_measure_main_exp,2022.2.2,Win32,60.0528465,,,,,,,,,,,,,,,,,,masks/mask_005.jpg,,,,,,,,,,,,,,,,,,,,,,,,,,,,,,,,,,,,,,,,,,,,,,,,0,1,1,4,1,,,,,,,,,,,,,,,,,,,,,,,,,,,,,,,,,,,,,,,,,
6154d48dc9f207a430d58b90,001,2022-11-21_24h56.50.172,Info_measure_main_exp,2022.2.2,Win32,60.0528465,,,,,,,,,,,,,,,,,,masks/mask_004.jpg,,,,,,,,,,,,,,,,,,,,,,,,,,,,,,,,,,,,,,,,,,,,,,,,0,2,2,3,1,,,,,,,,,,,,,,,,,,,,,,,,,,,,,,,,,,,,,,,,,
6154d48dc9f207a430d58b90,001,2022-11-21_24h56.50.172,Info_measure_main_exp,2022.2.2,Win32,60.0528465,,,,,,,,,,,,,,,,,,masks/mask_003.jpg,,,,,,,,,,,,,,,,,,,,,,,,,,,,,,,,,,,,,,,,,,,,,,,,0,3,3,2,1,,,,,,,,,,,,,,,,,,,,,,,,,,,,,,,,,,,,,,,,,
6154d48dc9f207a430d58b90,001,2022-11-21_24h56.50.172,Info_measure_main_exp,2022.2.2,Win32,60.0528465,,,,,,,,,,,,,,,,,,masks/mask_001.jpg,,,,,,,,,,,,,,,,,,,,,,,,,,,,,,,,,,,,,,,,,,,,,,,,0,4,4,0,1,,,,,,,,,,,,,,,,,,,,,,,,,,,,,,,,,,,,,,,,,
6154d48dc9f207a430d58b90,001,2022-11-21_24h56.50.172,Info_measure_main_exp,2022.2.2,Win32,60.0528465,,,,,,,,,,,,,,,,,,,,,,,,,,,,,,6,1.15,1,,,,,,,,,,,,0,131,5,5,2082,2238,absent_patch/patch0002082.jpg,absent_patch/patch0002238.jpg,,,,,,,,,,,,,,,,,,,,0.016927083,0.0078125,1,0,0,response1disk,15,-0.01171875,-0.00390625,1,0,0,center_square,0,14,14,22,1,,,,,,,,,,,,,,,,,,,,,,,
6154d48dc9f207a430d58b90,001,2022-11-21_24h56.50.172,Info_measure_main_exp,2022.2.2,Win32,60.0528465,,,,,,,,,,,,,,,,,,masks/mask_005.jpg,,,,,,,,,,,,,,,,,,,,,,,,,,,,,,,,,,,,,,,,,,,0,0,0,4,1,,,,,,,,,,,,,,,,,,,,,,,,,,,,,,,,,,,,,,,,,,,,,,
6154d48dc9f207a430d58b90,001,2022-11-21_24h56.50.172,Info_measure_main_exp,2022.2.2,Win32,60.0528465,,,,,,,,,,,,,,,,,,masks/mask_002.jpg,,,,,,,,,,,,,,,,,,,,,,,,,,,,,,,,,,,,,,,,,,,0,1,1,1,1,,,,,,,,,,,,,,,,,,,,,,,,,,,,,,,,,,,,,,,,,,,,,,
6154d48dc9f207a430d58b90,001,2022-11-21_24h56.50.172,Info_measure_main_exp,2022.2.2,Win32,60.0528465,,,,,,,,,,,,,,,,,,masks/mask_001.jpg,,,,,,,,,,,,,,,,,,,,,,,,,,,,,,,,,,,,,,,,,,,0,2,2,0,1,,,,,,,,,,,,,,,,,,,,,,,,,,,,,,,,,,,,,,,,,,,,,,
6154d48dc9f207a430d58b90,001,2022-11-21_24h56.50.172,Info_measure_main_exp,2022.2.2,Win32,60.0528465,,,,,,,,,,,,,,,,,,masks/mask_004.jpg,,,,,,,,,,,,,,,,,,,,,,,,,,,,,,,,,,,,,,,,,,,0,3,3,3,1,,,,,,,,,,,,,,,,,,,,,,,,,,,,,,,,,,,,,,,,,,,,,,
6154d48dc9f207a430d58b90,001,2022-11-21_24h56.50.172,Info_measure_main_exp,2022.2.2,Win32,60.0528465,,,,,,,,,,,,,,,,,,masks/mask_003.jpg,,,,,,,,,,,,,,,,,,,,,,,,,,,,,,,,,,,,,,,,,,,0,4,4,2,1,,,,,,,,,,,,,,,,,,,,,,,,,,,,,,,,,,,,,,,,,,,,,,
6154d48dc9f207a430d58b90,001,2022-11-21_24h56.50.172,Info_measure_main_exp,2022.2.2,Win32,60.0528465,,,,,,,,,,,,,,,,,,masks/mask_005.jpg,,,,,,,,,,,,,,,,,,,,,,,,,,,,,,,,,,,,,,,,,,,,,,,,0,0,0,4,1,,,,,,,,,,,,,,,,,,,,,,,,,,,,,,,,,,,,,,,,,
6154d48dc9f207a430d58b90,001,2022-11-21_24h56.50.172,Info_measure_main_exp,2022.2.2,Win32,60.0528465,,,,,,,,,,,,,,,,,,masks/mask_002.jpg,,,,,,,,,,,,,,,,,,,,,,,,,,,,,,,,,,,,,,,,,,,,,,,,0,1,1,1,1,,,,,,,,,,,,,,,,,,,,,,,,,,,,,,,,,,,,,,,,,
6154d48dc9f207a430d58b90,001,2022-11-21_24h56.50.172,Info_measure_main_exp,2022.2.2,Win32,60.0528465,,,,,,,,,,,,,,,,,,masks/mask_004.jpg,,,,,,,,,,,,,,,,,,,,,,,,,,,,,,,,,,,,,,,,,,,,,,,,0,2,2,3,1,,,,,,,,,,,,,,,,,,,,,,,,,,,,,,,,,,,,,,,,,
6154d48dc9f207a430d58b90,001,2022-11-21_24h56.50.172,Info_measure_main_exp,2022.2.2,Win32,60.0528465,,,,,,,,,,,,,,,,,,masks/mask_003.jpg,,,,,,,,,,,,,,,,,,,,,,,,,,,,,,,,,,,,,,,,,,,,,,,,0,3,3,2,1,,,,,,,,,,,,,,,,,,,,,,,,,,,,,,,,,,,,,,,,,
6154d48dc9f207a430d58b90,001,2022-11-21_24h56.50.172,Info_measure_main_exp,2022.2.2,Win32,60.0528465,,,,,,,,,,,,,,,,,,masks/mask_001.jpg,,,,,,,,,,,,,,,,,,,,,,,,,,,,,,,,,,,,,,,,,,,,,,,,0,4,4,0,1,,,,,,,,,,,,,,,,,,,,,,,,,,,,,,,,,,,,,,,,,
6154d48dc9f207a430d58b90,001,2022-11-21_24h56.50.172,Info_measure_main_exp,2022.2.2,Win32,60.0528465,,,,,,,,,,,,,,,,,,,,,,,,,,,,,,5,0.8669,1,,,,,,,,,,,,0,131,5,5,1950,2166,absent_patch/patch0001950.jpg,absent_patch/patch0002166.jpg,,,,,,,,,,,,,,,,,,,,0.024739583,-0.014322917,1,0,0,response3disk,16,-0.001302083,-0.005208333,1,0,0,center_square,0,15,15,0,1,,,,,,,,,,,,,,,,,,,,,,,
6154d48dc9f207a430d58b90,001,2022-11-21_24h56.50.172,Info_measure_main_exp,2022.2.2,Win32,60.0528465,,,,,,,,,,,,,,,,,,masks/mask_005.jpg,,,,,,,,,,,,,,,,,,,,,,,,,,,,,,,,,,,,,,,,,,,0,0,0,4,1,,,,,,,,,,,,,,,,,,,,,,,,,,,,,,,,,,,,,,,,,,,,,,
6154d48dc9f207a430d58b90,001,2022-11-21_24h56.50.172,Info_measure_main_exp,2022.2.2,Win32,60.0528465,,,,,,,,,,,,,,,,,,masks/mask_003.jpg,,,,,,,,,,,,,,,,,,,,,,,,,,,,,,,,,,,,,,,,,,,0,1,1,2,1,,,,,,,,,,,,,,,,,,,,,,,,,,,,,,,,,,,,,,,,,,,,,,
6154d48dc9f207a430d58b90,001,2022-11-21_24h56.50.172,Info_measure_main_exp,2022.2.2,Win32,60.0528465,,,,,,,,,,,,,,,,,,masks/mask_001.jpg,,,,,,,,,,,,,,,,,,,,,,,,,,,,,,,,,,,,,,,,,,,0,2,2,0,1,,,,,,,,,,,,,,,,,,,,,,,,,,,,,,,,,,,,,,,,,,,,,,
6154d48dc9f207a430d58b90,001,2022-11-21_24h56.50.172,Info_measure_main_exp,2022.2.2,Win32,60.0528465,,,,,,,,,,,,,,,,,,masks/mask_004.jpg,,,,,,,,,,,,,,,,,,,,,,,,,,,,,,,,,,,,,,,,,,,0,3,3,3,1,,,,,,,,,,,,,,,,,,,,,,,,,,,,,,,,,,,,,,,,,,,,,,
6154d48dc9f207a430d58b90,001,2022-11-21_24h56.50.172,Info_measure_main_exp,2022.2.2,Win32,60.0528465,,,,,,,,,,,,,,,,,,masks/mask_002.jpg,,,,,,,,,,,,,,,,,,,,,,,,,,,,,,,,,,,,,,,,,,,0,4,4,1,1,,,,,,,,,,,,,,,,,,,,,,,,,,,,,,,,,,,,,,,,,,,,,,
6154d48dc9f207a430d58b90,001,2022-11-21_24h56.50.172,Info_measure_main_exp,2022.2.2,Win32,60.0528465,,,,,,,,,,,,,,,,,,masks/mask_005.jpg,,,,,,,,,,,,,,,,,,,,,,,,,,,,,,,,,,,,,,,,,,,,,,,,0,0,0,4,1,,,,,,,,,,,,,,,,,,,,,,,,,,,,,,,,,,,,,,,,,
6154d48dc9f207a430d58b90,001,2022-11-21_24h56.50.172,Info_measure_main_exp,2022.2.2,Win32,60.0528465,,,,,,,,,,,,,,,,,,masks/mask_001.jpg,,,,,,,,,,,,,,,,,,,,,,,,,,,,,,,,,,,,,,,,,,,,,,,,0,1,1,0,1,,,,,,,,,,,,,,,,,,,,,,,,,,,,,,,,,,,,,,,,,
6154d48dc9f207a430d58b90,001,2022-11-21_24h56.50.172,Info_measure_main_exp,2022.2.2,Win32,60.0528465,,,,,,,,,,,,,,,,,,masks/mask_003.jpg,,,,,,,,,,,,,,,,,,,,,,,,,,,,,,,,,,,,,,,,,,,,,,,,0,2,2,2,1,,,,,,,,,,,,,,,,,,,,,,,,,,,,,,,,,,,,,,,,,
6154d48dc9f207a430d58b90,001,2022-11-21_24h56.50.172,Info_measure_main_exp,2022.2.2,Win32,60.0528465,,,,,,,,,,,,,,,,,,masks/mask_004.jpg,,,,,,,,,,,,,,,,,,,,,,,,,,,,,,,,,,,,,,,,,,,,,,,,0,3,3,3,1,,,,,,,,,,,,,,,,,,,,,,,,,,,,,,,,,,,,,,,,,
6154d48dc9f207a430d58b90,001,2022-11-21_24h56.50.172,Info_measure_main_exp,2022.2.2,Win32,60.0528465,,,,,,,,,,,,,,,,,,masks/mask_002.jpg,,,,,,,,,,,,,,,,,,,,,,,,,,,,,,,,,,,,,,,,,,,,,,,,0,4,4,1,1,,,,,,,,,,,,,,,,,,,,,,,,,,,,,,,,,,,,,,,,,
6154d48dc9f207a430d58b90,001,2022-11-21_24h56.50.172,Info_measure_main_exp,2022.2.2,Win32,60.0528465,,,,,,,,,,,,,,,,,,,,,,,,,,,,,,7,1.0336,1,,,,,,,,,,,,0,131,5,5,2274,2142,absent_patch/patch0002274.jpg,absent_patch/patch0002142.jpg,,,,,,,,,,,,,,,,,,,,0.020833333,0.0390625,1,0,0,response1disk,17,0.001302083,0.001302083,1,0,0,center_square,0,16,16,75,1,,,,,,,,,,,,,,,,,,,,,,,
6154d48dc9f207a430d58b90,001,2022-11-21_24h56.50.172,Info_measure_main_exp,2022.2.2,Win32,60.0528465,,,,,,,,,,,,,,,,,,masks/mask_005.jpg,,,,,,,,,,,,,,,,,,,,,,,,,,,,,,,,,,,,,,,,,,,0,0,0,4,1,,,,,,,,,,,,,,,,,,,,,,,,,,,,,,,,,,,,,,,,,,,,,,
6154d48dc9f207a430d58b90,001,2022-11-21_24h56.50.172,Info_measure_main_exp,2022.2.2,Win32,60.0528465,,,,,,,,,,,,,,,,,,masks/mask_002.jpg,,,,,,,,,,,,,,,,,,,,,,,,,,,,,,,,,,,,,,,,,,,0,1,1,1,1,,,,,,,,,,,,,,,,,,,,,,,,,,,,,,,,,,,,,,,,,,,,,,
6154d48dc9f207a430d58b90,001,2022-11-21_24h56.50.172,Info_measure_main_exp,2022.2.2,Win32,60.0528465,,,,,,,,,,,,,,,,,,masks/mask_001.jpg,,,,,,,,,,,,,,,,,,,,,,,,,,,,,,,,,,,,,,,,,,,0,2,2,0,1,,,,,,,,,,,,,,,,,,,,,,,,,,,,,,,,,,,,,,,,,,,,,,
6154d48dc9f207a430d58b90,001,2022-11-21_24h56.50.172,Info_measure_main_exp,2022.2.2,Win32,60.0528465,,,,,,,,,,,,,,,,,,masks/mask_004.jpg,,,,,,,,,,,,,,,,,,,,,,,,,,,,,,,,,,,,,,,,,,,0,3,3,3,1,,,,,,,,,,,,,,,,,,,,,,,,,,,,,,,,,,,,,,,,,,,,,,
6154d48dc9f207a430d58b90,001,2022-11-21_24h56.50.172,Info_measure_main_exp,2022.2.2,Win32,60.0528465,,,,,,,,,,,,,,,,,,masks/mask_003.jpg,,,,,,,,,,,,,,,,,,,,,,,,,,,,,,,,,,,,,,,,,,,0,4,4,2,1,,,,,,,,,,,,,,,,,,,,,,,,,,,,,,,,,,,,,,,,,,,,,,
6154d48dc9f207a430d58b90,001,2022-11-21_24h56.50.172,Info_measure_main_exp,2022.2.2,Win32,60.0528465,,,,,,,,,,,,,,,,,,masks/mask_001.jpg,,,,,,,,,,,,,,,,,,,,,,,,,,,,,,,,,,,,,,,,,,,,,,,,0,0,0,0,1,,,,,,,,,,,,,,,,,,,,,,,,,,,,,,,,,,,,,,,,,
6154d48dc9f207a430d58b90,001,2022-11-21_24h56.50.172,Info_measure_main_exp,2022.2.2,Win32,60.0528465,,,,,,,,,,,,,,,,,,masks/mask_005.jpg,,,,,,,,,,,,,,,,,,,,,,,,,,,,,,,,,,,,,,,,,,,,,,,,0,1,1,4,1,,,,,,,,,,,,,,,,,,,,,,,,,,,,,,,,,,,,,,,,,
6154d48dc9f207a430d58b90,001,2022-11-21_24h56.50.172,Info_measure_main_exp,2022.2.2,Win32,60.0528465,,,,,,,,,,,,,,,,,,masks/mask_002.jpg,,,,,,,,,,,,,,,,,,,,,,,,,,,,,,,,,,,,,,,,,,,,,,,,0,2,2,1,1,,,,,,,,,,,,,,,,,,,,,,,,,,,,,,,,,,,,,,,,,
6154d48dc9f207a430d58b90,001,2022-11-21_24h56.50.172,Info_measure_main_exp,2022.2.2,Win32,60.0528465,,,,,,,,,,,,,,,,,,masks/mask_004.jpg,,,,,,,,,,,,,,,,,,,,,,,,,,,,,,,,,,,,,,,,,,,,,,,,0,3,3,3,1,,,,,,,,,,,,,,,,,,,,,,,,,,,,,,,,,,,,,,,,,
6154d48dc9f207a430d58b90,001,2022-11-21_24h56.50.172,Info_measure_main_exp,2022.2.2,Win32,60.0528465,,,,,,,,,,,,,,,,,,masks/mask_003.jpg,,,,,,,,,,,,,,,,,,,,,,,,,,,,,,,,,,,,,,,,,,,,,,,,0,4,4,2,1,,,,,,,,,,,,,,,,,,,,,,,,,,,,,,,,,,,,,,,,,
6154d48dc9f207a430d58b90,001,2022-11-21_24h56.50.172,Info_measure_main_exp,2022.2.2,Win32,60.0528465,,,,,,,,,,,,,,,,,,,,,,,,,,,,,,0,0.5666,1,,,,,,,,,,,,0,131,5,5,1986,1986,absent_patch/patch0001986.jpg,absent_patch/patch0001986.jpg,,,,,,,,,,,,,,,,,,,,-0.024739583,0.0703125,1,0,0,response7disk,18,-0.002604167,0.001302083,1,0,0,center_square,0,17,17,19,1,,,,,,,,,,,,,,,,,,,,,,,
6154d48dc9f207a430d58b90,001,2022-11-21_24h56.50.172,Info_measure_main_exp,2022.2.2,Win32,60.0528465,,,,,,,,,,,,,,,,,,masks/mask_002.jpg,,,,,,,,,,,,,,,,,,,,,,,,,,,,,,,,,,,,,,,,,,,0,0,0,1,1,,,,,,,,,,,,,,,,,,,,,,,,,,,,,,,,,,,,,,,,,,,,,,
6154d48dc9f207a430d58b90,001,2022-11-21_24h56.50.172,Info_measure_main_exp,2022.2.2,Win32,60.0528465,,,,,,,,,,,,,,,,,,masks/mask_005.jpg,,,,,,,,,,,,,,,,,,,,,,,,,,,,,,,,,,,,,,,,,,,0,1,1,4,1,,,,,,,,,,,,,,,,,,,,,,,,,,,,,,,,,,,,,,,,,,,,,,
6154d48dc9f207a430d58b90,001,2022-11-21_24h56.50.172,Info_measure_main_exp,2022.2.2,Win32,60.0528465,,,,,,,,,,,,,,,,,,masks/mask_003.jpg,,,,,,,,,,,,,,,,,,,,,,,,,,,,,,,,,,,,,,,,,,,0,2,2,2,1,,,,,,,,,,,,,,,,,,,,,,,,,,,,,,,,,,,,,,,,,,,,,,
6154d48dc9f207a430d58b90,001,2022-11-21_24h56.50.172,Info_measure_main_exp,2022.2.2,Win32,60.0528465,,,,,,,,,,,,,,,,,,masks/mask_004.jpg,,,,,,,,,,,,,,,,,,,,,,,,,,,,,,,,,,,,,,,,,,,0,3,3,3,1,,,,,,,,,,,,,,,,,,,,,,,,,,,,,,,,,,,,,,,,,,,,,,
6154d48dc9f207a430d58b90,001,2022-11-21_24h56.50.172,Info_measure_main_exp,2022.2.2,Win32,60.0528465,,,,,,,,,,,,,,,,,,masks/mask_001.jpg,,,,,,,,,,,,,,,,,,,,,,,,,,,,,,,,,,,,,,,,,,,0,4,4,0,1,,,,,,,,,,,,,,,,,,,,,,,,,,,,,,,,,,,,,,,,,,,,,,
6154d48dc9f207a430d58b90,001,2022-11-21_24h56.50.172,Info_measure_main_exp,2022.2.2,Win32,60.0528465,,,,,,,,,,,,,,,,,,masks/mask_002.jpg,,,,,,,,,,,,,,,,,,,,,,,,,,,,,,,,,,,,,,,,,,,,,,,,0,0,0,1,1,,,,,,,,,,,,,,,,,,,,,,,,,,,,,,,,,,,,,,,,,
6154d48dc9f207a430d58b90,001,2022-11-21_24h56.50.172,Info_measure_main_exp,2022.2.2,Win32,60.0528465,,,,,,,,,,,,,,,,,,masks/mask_004.jpg,,,,,,,,,,,,,,,,,,,,,,,,,,,,,,,,,,,,,,,,,,,,,,,,0,1,1,3,1,,,,,,,,,,,,,,,,,,,,,,,,,,,,,,,,,,,,,,,,,
6154d48dc9f207a430d58b90,001,2022-11-21_24h56.50.172,Info_measure_main_exp,2022.2.2,Win32,60.0528465,,,,,,,,,,,,,,,,,,masks/mask_001.jpg,,,,,,,,,,,,,,,,,,,,,,,,,,,,,,,,,,,,,,,,,,,,,,,,0,2,2,0,1,,,,,,,,,,,,,,,,,,,,,,,,,,,,,,,,,,,,,,,,,
6154d48dc9f207a430d58b90,001,2022-11-21_24h56.50.172,Info_measure_main_exp,2022.2.2,Win32,60.0528465,,,,,,,,,,,,,,,,,,masks/mask_003.jpg,,,,,,,,,,,,,,,,,,,,,,,,,,,,,,,,,,,,,,,,,,,,,,,,0,3,3,2,1,,,,,,,,,,,,,,,,,,,,,,,,,,,,,,,,,,,,,,,,,
6154d48dc9f207a430d58b90,001,2022-11-21_24h56.50.172,Info_measure_main_exp,2022.2.2,Win32,60.0528465,,,,,,,,,,,,,,,,,,masks/mask_005.jpg,,,,,,,,,,,,,,,,,,,,,,,,,,,,,,,,,,,,,,,,,,,,,,,,0,4,4,4,1,,,,,,,,,,,,,,,,,,,,,,,,,,,,,,,,,,,,,,,,,
6154d48dc9f207a430d58b90,001,2022-11-21_24h56.50.172,Info_measure_main_exp,2022.2.2,Win32,60.0528465,,,,,,,,,,,,,,,,,,,,,,,,,,,,,,6,1.9002,1,,,,,,,,,,,,0,131,5,5,2190,2214,absent_patch/patch0002190.jpg,absent_patch/patch0002214.jpg,,,,,,,,,,,,,,,,,,,,0.108072917,0.010416667,1,0,0,response1disk,19,-0.009114583,0,1,0,0,center_square,0,18,18,35,1,,,,,,,,,,,,,,,,,,,,,,,
6154d48dc9f207a430d58b90,001,2022-11-21_24h56.50.172,Info_measure_main_exp,2022.2.2,Win32,60.0528465,,,,,,,,,,,,,,,,,,masks/mask_001.jpg,,,,,,,,,,,,,,,,,,,,,,,,,,,,,,,,,,,,,,,,,,,0,0,0,0,1,,,,,,,,,,,,,,,,,,,,,,,,,,,,,,,,,,,,,,,,,,,,,,
6154d48dc9f207a430d58b90,001,2022-11-21_24h56.50.172,Info_measure_main_exp,2022.2.2,Win32,60.0528465,,,,,,,,,,,,,,,,,,masks/mask_002.jpg,,,,,,,,,,,,,,,,,,,,,,,,,,,,,,,,,,,,,,,,,,,0,1,1,1,1,,,,,,,,,,,,,,,,,,,,,,,,,,,,,,,,,,,,,,,,,,,,,,
6154d48dc9f207a430d58b90,001,2022-11-21_24h56.50.172,Info_measure_main_exp,2022.2.2,Win32,60.0528465,,,,,,,,,,,,,,,,,,masks/mask_004.jpg,,,,,,,,,,,,,,,,,,,,,,,,,,,,,,,,,,,,,,,,,,,0,2,2,3,1,,,,,,,,,,,,,,,,,,,,,,,,,,,,,,,,,,,,,,,,,,,,,,
6154d48dc9f207a430d58b90,001,2022-11-21_24h56.50.172,Info_measure_main_exp,2022.2.2,Win32,60.0528465,,,,,,,,,,,,,,,,,,masks/mask_005.jpg,,,,,,,,,,,,,,,,,,,,,,,,,,,,,,,,,,,,,,,,,,,0,3,3,4,1,,,,,,,,,,,,,,,,,,,,,,,,,,,,,,,,,,,,,,,,,,,,,,
6154d48dc9f207a430d58b90,001,2022-11-21_24h56.50.172,Info_measure_main_exp,2022.2.2,Win32,60.0528465,,,,,,,,,,,,,,,,,,masks/mask_003.jpg,,,,,,,,,,,,,,,,,,,,,,,,,,,,,,,,,,,,,,,,,,,0,4,4,2,1,,,,,,,,,,,,,,,,,,,,,,,,,,,,,,,,,,,,,,,,,,,,,,
6154d48dc9f207a430d58b90,001,2022-11-21_24h56.50.172,Info_measure_main_exp,2022.2.2,Win32,60.0528465,,,,,,,,,,,,,,,,,,masks/mask_002.jpg,,,,,,,,,,,,,,,,,,,,,,,,,,,,,,,,,,,,,,,,,,,,,,,,0,0,0,1,1,,,,,,,,,,,,,,,,,,,,,,,,,,,,,,,,,,,,,,,,,
6154d48dc9f207a430d58b90,001,2022-11-21_24h56.50.172,Info_measure_main_exp,2022.2.2,Win32,60.0528465,,,,,,,,,,,,,,,,,,masks/mask_003.jpg,,,,,,,,,,,,,,,,,,,,,,,,,,,,,,,,,,,,,,,,,,,,,,,,0,1,1,2,1,,,,,,,,,,,,,,,,,,,,,,,,,,,,,,,,,,,,,,,,,
6154d48dc9f207a430d58b90,001,2022-11-21_24h56.50.172,Info_measure_main_exp,2022.2.2,Win32,60.0528465,,,,,,,,,,,,,,,,,,masks/mask_001.jpg,,,,,,,,,,,,,,,,,,,,,,,,,,,,,,,,,,,,,,,,,,,,,,,,0,2,2,0,1,,,,,,,,,,,,,,,,,,,,,,,,,,,,,,,,,,,,,,,,,
6154d48dc9f207a430d58b90,001,2022-11-21_24h56.50.172,Info_measure_main_exp,2022.2.2,Win32,60.0528465,,,,,,,,,,,,,,,,,,masks/mask_005.jpg,,,,,,,,,,,,,,,,,,,,,,,,,,,,,,,,,,,,,,,,,,,,,,,,0,3,3,4,1,,,,,,,,,,,,,,,,,,,,,,,,,,,,,,,,,,,,,,,,,
6154d48dc9f207a430d58b90,001,2022-11-21_24h56.50.172,Info_measure_main_exp,2022.2.2,Win32,60.0528465,,,,,,,,,,,,,,,,,,masks/mask_004.jpg,,,,,,,,,,,,,,,,,,,,,,,,,,,,,,,,,,,,,,,,,,,,,,,,0,4,4,3,1,,,,,,,,,,,,,,,,,,,,,,,,,,,,,,,,,,,,,,,,,
6154d48dc9f207a430d58b90,001,2022-11-21_24h56.50.172,Info_measure_main_exp,2022.2.2,Win32,60.0528465,,,,,,,,,,,,,,,,,,,,,,,,,,,,,,6,1.9167,1,,,,,,,,,,,,0,131,5,5,1986,2274,absent_patch/patch0001986.jpg,absent_patch/patch0002274.jpg,,,,,,,,,,,,,,,,,,,,0.080729167,0.059895833,1,0,0,response1disk,20,0.00390625,0,1,0,0,center_square,0,19,19,7,1,,,,,,,,,,,,,,,,,,,,,,,
6154d48dc9f207a430d58b90,001,2022-11-21_24h56.50.172,Info_measure_main_exp,2022.2.2,Win32,60.0528465,,,,,,,,,,,,,,,,,,masks/mask_003.jpg,,,,,,,,,,,,,,,,,,,,,,,,,,,,,,,,,,,,,,,,,,,0,0,0,2,1,,,,,,,,,,,,,,,,,,,,,,,,,,,,,,,,,,,,,,,,,,,,,,
6154d48dc9f207a430d58b90,001,2022-11-21_24h56.50.172,Info_measure_main_exp,2022.2.2,Win32,60.0528465,,,,,,,,,,,,,,,,,,masks/mask_002.jpg,,,,,,,,,,,,,,,,,,,,,,,,,,,,,,,,,,,,,,,,,,,0,1,1,1,1,,,,,,,,,,,,,,,,,,,,,,,,,,,,,,,,,,,,,,,,,,,,,,
6154d48dc9f207a430d58b90,001,2022-11-21_24h56.50.172,Info_measure_main_exp,2022.2.2,Win32,60.0528465,,,,,,,,,,,,,,,,,,masks/mask_004.jpg,,,,,,,,,,,,,,,,,,,,,,,,,,,,,,,,,,,,,,,,,,,0,2,2,3,1,,,,,,,,,,,,,,,,,,,,,,,,,,,,,,,,,,,,,,,,,,,,,,
6154d48dc9f207a430d58b90,001,2022-11-21_24h56.50.172,Info_measure_main_exp,2022.2.2,Win32,60.0528465,,,,,,,,,,,,,,,,,,masks/mask_005.jpg,,,,,,,,,,,,,,,,,,,,,,,,,,,,,,,,,,,,,,,,,,,0,3,3,4,1,,,,,,,,,,,,,,,,,,,,,,,,,,,,,,,,,,,,,,,,,,,,,,
6154d48dc9f207a430d58b90,001,2022-11-21_24h56.50.172,Info_measure_main_exp,2022.2.2,Win32,60.0528465,,,,,,,,,,,,,,,,,,masks/mask_001.jpg,,,,,,,,,,,,,,,,,,,,,,,,,,,,,,,,,,,,,,,,,,,0,4,4,0,1,,,,,,,,,,,,,,,,,,,,,,,,,,,,,,,,,,,,,,,,,,,,,,
6154d48dc9f207a430d58b90,001,2022-11-21_24h56.50.172,Info_measure_main_exp,2022.2.2,Win32,60.0528465,,,,,,,,,,,,,,,,,,masks/mask_001.jpg,,,,,,,,,,,,,,,,,,,,,,,,,,,,,,,,,,,,,,,,,,,,,,,,0,0,0,0,1,,,,,,,,,,,,,,,,,,,,,,,,,,,,,,,,,,,,,,,,,
6154d48dc9f207a430d58b90,001,2022-11-21_24h56.50.172,Info_measure_main_exp,2022.2.2,Win32,60.0528465,,,,,,,,,,,,,,,,,,masks/mask_005.jpg,,,,,,,,,,,,,,,,,,,,,,,,,,,,,,,,,,,,,,,,,,,,,,,,0,1,1,4,1,,,,,,,,,,,,,,,,,,,,,,,,,,,,,,,,,,,,,,,,,
6154d48dc9f207a430d58b90,001,2022-11-21_24h56.50.172,Info_measure_main_exp,2022.2.2,Win32,60.0528465,,,,,,,,,,,,,,,,,,masks/mask_004.jpg,,,,,,,,,,,,,,,,,,,,,,,,,,,,,,,,,,,,,,,,,,,,,,,,0,2,2,3,1,,,,,,,,,,,,,,,,,,,,,,,,,,,,,,,,,,,,,,,,,
6154d48dc9f207a430d58b90,001,2022-11-21_24h56.50.172,Info_measure_main_exp,2022.2.2,Win32,60.0528465,,,,,,,,,,,,,,,,,,masks/mask_003.jpg,,,,,,,,,,,,,,,,,,,,,,,,,,,,,,,,,,,,,,,,,,,,,,,,0,3,3,2,1,,,,,,,,,,,,,,,,,,,,,,,,,,,,,,,,,,,,,,,,,
6154d48dc9f207a430d58b90,001,2022-11-21_24h56.50.172,Info_measure_main_exp,2022.2.2,Win32,60.0528465,,,,,,,,,,,,,,,,,,masks/mask_002.jpg,,,,,,,,,,,,,,,,,,,,,,,,,,,,,,,,,,,,,,,,,,,,,,,,0,4,4,1,1,,,,,,,,,,,,,,,,,,,,,,,,,,,,,,,,,,,,,,,,,
6154d48dc9f207a430d58b90,001,2022-11-21_24h56.50.172,Info_measure_main_exp,2022.2.2,Win32,60.0528465,,,,,,,,,,,,,,,,,,,,,,,,,,,,,,4,1.0668,1,,,,,,,,,,,,0,131,5,5,1974,2166,absent_patch/patch0001974.jpg,absent_patch/patch0002166.jpg,,,,,,,,,,,,,,,,,,,,0.015625,-0.028645833,1,0,0,response3disk,21,-0.001302083,-0.00390625,1,0,0,center_square,0,20,20,77,1,,,,,,,,,,,,,,,,,,,,,,,
6154d48dc9f207a430d58b90,001,2022-11-21_24h56.50.172,Info_measure_main_exp,2022.2.2,Win32,60.0528465,,,,,,,,,,,,,,,,,,masks/mask_004.jpg,,,,,,,,,,,,,,,,,,,,,,,,,,,,,,,,,,,,,,,,,,,0,0,0,3,1,,,,,,,,,,,,,,,,,,,,,,,,,,,,,,,,,,,,,,,,,,,,,,
6154d48dc9f207a430d58b90,001,2022-11-21_24h56.50.172,Info_measure_main_exp,2022.2.2,Win32,60.0528465,,,,,,,,,,,,,,,,,,masks/mask_005.jpg,,,,,,,,,,,,,,,,,,,,,,,,,,,,,,,,,,,,,,,,,,,0,1,1,4,1,,,,,,,,,,,,,,,,,,,,,,,,,,,,,,,,,,,,,,,,,,,,,,
6154d48dc9f207a430d58b90,001,2022-11-21_24h56.50.172,Info_measure_main_exp,2022.2.2,Win32,60.0528465,,,,,,,,,,,,,,,,,,masks/mask_002.jpg,,,,,,,,,,,,,,,,,,,,,,,,,,,,,,,,,,,,,,,,,,,0,2,2,1,1,,,,,,,,,,,,,,,,,,,,,,,,,,,,,,,,,,,,,,,,,,,,,,
6154d48dc9f207a430d58b90,001,2022-11-21_24h56.50.172,Info_measure_main_exp,2022.2.2,Win32,60.0528465,,,,,,,,,,,,,,,,,,masks/mask_001.jpg,,,,,,,,,,,,,,,,,,,,,,,,,,,,,,,,,,,,,,,,,,,0,3,3,0,1,,,,,,,,,,,,,,,,,,,,,,,,,,,,,,,,,,,,,,,,,,,,,,
6154d48dc9f207a430d58b90,001,2022-11-21_24h56.50.172,Info_measure_main_exp,2022.2.2,Win32,60.0528465,,,,,,,,,,,,,,,,,,masks/mask_003.jpg,,,,,,,,,,,,,,,,,,,,,,,,,,,,,,,,,,,,,,,,,,,0,4,4,2,1,,,,,,,,,,,,,,,,,,,,,,,,,,,,,,,,,,,,,,,,,,,,,,
6154d48dc9f207a430d58b90,001,2022-11-21_24h56.50.172,Info_measure_main_exp,2022.2.2,Win32,60.0528465,,,,,,,,,,,,,,,,,,masks/mask_004.jpg,,,,,,,,,,,,,,,,,,,,,,,,,,,,,,,,,,,,,,,,,,,,,,,,0,0,0,3,1,,,,,,,,,,,,,,,,,,,,,,,,,,,,,,,,,,,,,,,,,
6154d48dc9f207a430d58b90,001,2022-11-21_24h56.50.172,Info_measure_main_exp,2022.2.2,Win32,60.0528465,,,,,,,,,,,,,,,,,,masks/mask_003.jpg,,,,,,,,,,,,,,,,,,,,,,,,,,,,,,,,,,,,,,,,,,,,,,,,0,1,1,2,1,,,,,,,,,,,,,,,,,,,,,,,,,,,,,,,,,,,,,,,,,
6154d48dc9f207a430d58b90,001,2022-11-21_24h56.50.172,Info_measure_main_exp,2022.2.2,Win32,60.0528465,,,,,,,,,,,,,,,,,,masks/mask_002.jpg,,,,,,,,,,,,,,,,,,,,,,,,,,,,,,,,,,,,,,,,,,,,,,,,0,2,2,1,1,,,,,,,,,,,,,,,,,,,,,,,,,,,,,,,,,,,,,,,,,
6154d48dc9f207a430d58b90,001,2022-11-21_24h56.50.172,Info_measure_main_exp,2022.2.2,Win32,60.0528465,,,,,,,,,,,,,,,,,,masks/mask_001.jpg,,,,,,,,,,,,,,,,,,,,,,,,,,,,,,,,,,,,,,,,,,,,,,,,0,3,3,0,1,,,,,,,,,,,,,,,,,,,,,,,,,,,,,,,,,,,,,,,,,
6154d48dc9f207a430d58b90,001,2022-11-21_24h56.50.172,Info_measure_main_exp,2022.2.2,Win32,60.0528465,,,,,,,,,,,,,,,,,,masks/mask_005.jpg,,,,,,,,,,,,,,,,,,,,,,,,,,,,,,,,,,,,,,,,,,,,,,,,0,4,4,4,1,,,,,,,,,,,,,,,,,,,,,,,,,,,,,,,,,,,,,,,,,
6154d48dc9f207a430d58b90,001,2022-11-21_24h56.50.172,Info_measure_main_exp,2022.2.2,Win32,60.0528465,,,,,,,,,,,,,,,,,,,,,,,,,,,,,,7,0.8835,1,,,,,,,,,,,,0,131,5,5,2274,2178,absent_patch/patch0002274.jpg,absent_patch/patch0002178.jpg,,,,,,,,,,,,,,,,,,,,0.024739583,0.052083333,1,0,0,response1disk,22,0,-0.001302083,1,0,0,center_square,0,21,21,117,1,,,,,,,,,,,,,,,,,,,,,,,
6154d48dc9f207a430d58b90,001,2022-11-21_24h56.50.172,Info_measure_main_exp,2022.2.2,Win32,60.0528465,,,,,,,,,,,,,,,,,,masks/mask_005.jpg,,,,,,,,,,,,,,,,,,,,,,,,,,,,,,,,,,,,,,,,,,,0,0,0,4,1,,,,,,,,,,,,,,,,,,,,,,,,,,,,,,,,,,,,,,,,,,,,,,
6154d48dc9f207a430d58b90,001,2022-11-21_24h56.50.172,Info_measure_main_exp,2022.2.2,Win32,60.0528465,,,,,,,,,,,,,,,,,,masks/mask_004.jpg,,,,,,,,,,,,,,,,,,,,,,,,,,,,,,,,,,,,,,,,,,,0,1,1,3,1,,,,,,,,,,,,,,,,,,,,,,,,,,,,,,,,,,,,,,,,,,,,,,
6154d48dc9f207a430d58b90,001,2022-11-21_24h56.50.172,Info_measure_main_exp,2022.2.2,Win32,60.0528465,,,,,,,,,,,,,,,,,,masks/mask_001.jpg,,,,,,,,,,,,,,,,,,,,,,,,,,,,,,,,,,,,,,,,,,,0,2,2,0,1,,,,,,,,,,,,,,,,,,,,,,,,,,,,,,,,,,,,,,,,,,,,,,
6154d48dc9f207a430d58b90,001,2022-11-21_24h56.50.172,Info_measure_main_exp,2022.2.2,Win32,60.0528465,,,,,,,,,,,,,,,,,,masks/mask_003.jpg,,,,,,,,,,,,,,,,,,,,,,,,,,,,,,,,,,,,,,,,,,,0,3,3,2,1,,,,,,,,,,,,,,,,,,,,,,,,,,,,,,,,,,,,,,,,,,,,,,
6154d48dc9f207a430d58b90,001,2022-11-21_24h56.50.172,Info_measure_main_exp,2022.2.2,Win32,60.0528465,,,,,,,,,,,,,,,,,,masks/mask_002.jpg,,,,,,,,,,,,,,,,,,,,,,,,,,,,,,,,,,,,,,,,,,,0,4,4,1,1,,,,,,,,,,,,,,,,,,,,,,,,,,,,,,,,,,,,,,,,,,,,,,
6154d48dc9f207a430d58b90,001,2022-11-21_24h56.50.172,Info_measure_main_exp,2022.2.2,Win32,60.0528465,,,,,,,,,,,,,,,,,,masks/mask_005.jpg,,,,,,,,,,,,,,,,,,,,,,,,,,,,,,,,,,,,,,,,,,,,,,,,0,0,0,4,1,,,,,,,,,,,,,,,,,,,,,,,,,,,,,,,,,,,,,,,,,
6154d48dc9f207a430d58b90,001,2022-11-21_24h56.50.172,Info_measure_main_exp,2022.2.2,Win32,60.0528465,,,,,,,,,,,,,,,,,,masks/mask_002.jpg,,,,,,,,,,,,,,,,,,,,,,,,,,,,,,,,,,,,,,,,,,,,,,,,0,1,1,1,1,,,,,,,,,,,,,,,,,,,,,,,,,,,,,,,,,,,,,,,,,
6154d48dc9f207a430d58b90,001,2022-11-21_24h56.50.172,Info_measure_main_exp,2022.2.2,Win32,60.0528465,,,,,,,,,,,,,,,,,,masks/mask_004.jpg,,,,,,,,,,,,,,,,,,,,,,,,,,,,,,,,,,,,,,,,,,,,,,,,0,2,2,3,1,,,,,,,,,,,,,,,,,,,,,,,,,,,,,,,,,,,,,,,,,
6154d48dc9f207a430d58b90,001,2022-11-21_24h56.50.172,Info_measure_main_exp,2022.2.2,Win32,60.0528465,,,,,,,,,,,,,,,,,,masks/mask_003.jpg,,,,,,,,,,,,,,,,,,,,,,,,,,,,,,,,,,,,,,,,,,,,,,,,0,3,3,2,1,,,,,,,,,,,,,,,,,,,,,,,,,,,,,,,,,,,,,,,,,
6154d48dc9f207a430d58b90,001,2022-11-21_24h56.50.172,Info_measure_main_exp,2022.2.2,Win32,60.0528465,,,,,,,,,,,,,,,,,,masks/mask_001.jpg,,,,,,,,,,,,,,,,,,,,,,,,,,,,,,,,,,,,,,,,,,,,,,,,0,4,4,0,1,,,,,,,,,,,,,,,,,,,,,,,,,,,,,,,,,,,,,,,,,
6154d48dc9f207a430d58b90,001,2022-11-21_24h56.50.172,Info_measure_main_exp,2022.2.2,Win32,60.0528465,,,,,,,,,,,,,,,,,,,,,,,,,,,,,,7,0.8,1,,,,,,,,,,,,0,131,5,5,2238,2166,absent_patch/patch0002238.jpg,absent_patch/patch0002166.jpg,,,,,,,,,,,,,,,,,,,,0.015625,0.045572917,1,0,0,response1disk,23,-0.00390625,0.00390625,1,0,0,center_square,0,22,22,118,1,,,,,,,,,,,,,,,,,,,,,,,
6154d48dc9f207a430d58b90,001,2022-11-21_24h56.50.172,Info_measure_main_exp,2022.2.2,Win32,60.0528465,,,,,,,,,,,,,,,,,,masks/mask_003.jpg,,,,,,,,,,,,,,,,,,,,,,,,,,,,,,,,,,,,,,,,,,,0,0,0,2,1,,,,,,,,,,,,,,,,,,,,,,,,,,,,,,,,,,,,,,,,,,,,,,
6154d48dc9f207a430d58b90,001,2022-11-21_24h56.50.172,Info_measure_main_exp,2022.2.2,Win32,60.0528465,,,,,,,,,,,,,,,,,,masks/mask_005.jpg,,,,,,,,,,,,,,,,,,,,,,,,,,,,,,,,,,,,,,,,,,,0,1,1,4,1,,,,,,,,,,,,,,,,,,,,,,,,,,,,,,,,,,,,,,,,,,,,,,
6154d48dc9f207a430d58b90,001,2022-11-21_24h56.50.172,Info_measure_main_exp,2022.2.2,Win32,60.0528465,,,,,,,,,,,,,,,,,,masks/mask_004.jpg,,,,,,,,,,,,,,,,,,,,,,,,,,,,,,,,,,,,,,,,,,,0,2,2,3,1,,,,,,,,,,,,,,,,,,,,,,,,,,,,,,,,,,,,,,,,,,,,,,
6154d48dc9f207a430d58b90,001,2022-11-21_24h56.50.172,Info_measure_main_exp,2022.2.2,Win32,60.0528465,,,,,,,,,,,,,,,,,,masks/mask_002.jpg,,,,,,,,,,,,,,,,,,,,,,,,,,,,,,,,,,,,,,,,,,,0,3,3,1,1,,,,,,,,,,,,,,,,,,,,,,,,,,,,,,,,,,,,,,,,,,,,,,
6154d48dc9f207a430d58b90,001,2022-11-21_24h56.50.172,Info_measure_main_exp,2022.2.2,Win32,60.0528465,,,,,,,,,,,,,,,,,,masks/mask_001.jpg,,,,,,,,,,,,,,,,,,,,,,,,,,,,,,,,,,,,,,,,,,,0,4,4,0,1,,,,,,,,,,,,,,,,,,,,,,,,,,,,,,,,,,,,,,,,,,,,,,
6154d48dc9f207a430d58b90,001,2022-11-21_24h56.50.172,Info_measure_main_exp,2022.2.2,Win32,60.0528465,,,,,,,,,,,,,,,,,,masks/mask_001.jpg,,,,,,,,,,,,,,,,,,,,,,,,,,,,,,,,,,,,,,,,,,,,,,,,0,0,0,0,1,,,,,,,,,,,,,,,,,,,,,,,,,,,,,,,,,,,,,,,,,
6154d48dc9f207a430d58b90,001,2022-11-21_24h56.50.172,Info_measure_main_exp,2022.2.2,Win32,60.0528465,,,,,,,,,,,,,,,,,,masks/mask_002.jpg,,,,,,,,,,,,,,,,,,,,,,,,,,,,,,,,,,,,,,,,,,,,,,,,0,1,1,1,1,,,,,,,,,,,,,,,,,,,,,,,,,,,,,,,,,,,,,,,,,
6154d48dc9f207a430d58b90,001,2022-11-21_24h56.50.172,Info_measure_main_exp,2022.2.2,Win32,60.0528465,,,,,,,,,,,,,,,,,,masks/mask_004.jpg,,,,,,,,,,,,,,,,,,,,,,,,,,,,,,,,,,,,,,,,,,,,,,,,0,2,2,3,1,,,,,,,,,,,,,,,,,,,,,,,,,,,,,,,,,,,,,,,,,
6154d48dc9f207a430d58b90,001,2022-11-21_24h56.50.172,Info_measure_main_exp,2022.2.2,Win32,60.0528465,,,,,,,,,,,,,,,,,,masks/mask_005.jpg,,,,,,,,,,,,,,,,,,,,,,,,,,,,,,,,,,,,,,,,,,,,,,,,0,3,3,4,1,,,,,,,,,,,,,,,,,,,,,,,,,,,,,,,,,,,,,,,,,
6154d48dc9f207a430d58b90,001,2022-11-21_24h56.50.172,Info_measure_main_exp,2022.2.2,Win32,60.0528465,,,,,,,,,,,,,,,,,,masks/mask_003.jpg,,,,,,,,,,,,,,,,,,,,,,,,,,,,,,,,,,,,,,,,,,,,,,,,0,4,4,2,1,,,,,,,,,,,,,,,,,,,,,,,,,,,,,,,,,,,,,,,,,
6154d48dc9f207a430d58b90,001,2022-11-21_24h56.50.172,Info_measure_main_exp,2022.2.2,Win32,60.0528465,,,,,,,,,,,,,,,,,,,,,,,,,,,,,,6,2.0001,1,,,,,,,,,,,,0,131,5,5,2154,2214,absent_patch/patch0002154.jpg,absent_patch/patch0002214.jpg,,,,,,,,,,,,,,,,,,,,0.022135417,0.010416667,1,0,0,response1disk,24,0.002604167,-0.001302083,1,0,0,center_square,0,23,23,67,1,,,,,,,,,,,,,,,,,,,,,,,
6154d48dc9f207a430d58b90,001,2022-11-21_24h56.50.172,Info_measure_main_exp,2022.2.2,Win32,60.0528465,,,,,,,,,,,,,,,,,,masks/mask_004.jpg,,,,,,,,,,,,,,,,,,,,,,,,,,,,,,,,,,,,,,,,,,,0,0,0,3,1,,,,,,,,,,,,,,,,,,,,,,,,,,,,,,,,,,,,,,,,,,,,,,
6154d48dc9f207a430d58b90,001,2022-11-21_24h56.50.172,Info_measure_main_exp,2022.2.2,Win32,60.0528465,,,,,,,,,,,,,,,,,,masks/mask_005.jpg,,,,,,,,,,,,,,,,,,,,,,,,,,,,,,,,,,,,,,,,,,,0,1,1,4,1,,,,,,,,,,,,,,,,,,,,,,,,,,,,,,,,,,,,,,,,,,,,,,
6154d48dc9f207a430d58b90,001,2022-11-21_24h56.50.172,Info_measure_main_exp,2022.2.2,Win32,60.0528465,,,,,,,,,,,,,,,,,,masks/mask_003.jpg,,,,,,,,,,,,,,,,,,,,,,,,,,,,,,,,,,,,,,,,,,,0,2,2,2,1,,,,,,,,,,,,,,,,,,,,,,,,,,,,,,,,,,,,,,,,,,,,,,
6154d48dc9f207a430d58b90,001,2022-11-21_24h56.50.172,Info_measure_main_exp,2022.2.2,Win32,60.0528465,,,,,,,,,,,,,,,,,,masks/mask_001.jpg,,,,,,,,,,,,,,,,,,,,,,,,,,,,,,,,,,,,,,,,,,,0,3,3,0,1,,,,,,,,,,,,,,,,,,,,,,,,,,,,,,,,,,,,,,,,,,,,,,
6154d48dc9f207a430d58b90,001,2022-11-21_24h56.50.172,Info_measure_main_exp,2022.2.2,Win32,60.0528465,,,,,,,,,,,,,,,,,,masks/mask_002.jpg,,,,,,,,,,,,,,,,,,,,,,,,,,,,,,,,,,,,,,,,,,,0,4,4,1,1,,,,,,,,,,,,,,,,,,,,,,,,,,,,,,,,,,,,,,,,,,,,,,
6154d48dc9f207a430d58b90,001,2022-11-21_24h56.50.172,Info_measure_main_exp,2022.2.2,Win32,60.0528465,,,,,,,,,,,,,,,,,,masks/mask_002.jpg,,,,,,,,,,,,,,,,,,,,,,,,,,,,,,,,,,,,,,,,,,,,,,,,0,0,0,1,1,,,,,,,,,,,,,,,,,,,,,,,,,,,,,,,,,,,,,,,,,
6154d48dc9f207a430d58b90,001,2022-11-21_24h56.50.172,Info_measure_main_exp,2022.2.2,Win32,60.0528465,,,,,,,,,,,,,,,,,,masks/mask_001.jpg,,,,,,,,,,,,,,,,,,,,,,,,,,,,,,,,,,,,,,,,,,,,,,,,0,1,1,0,1,,,,,,,,,,,,,,,,,,,,,,,,,,,,,,,,,,,,,,,,,
6154d48dc9f207a430d58b90,001,2022-11-21_24h56.50.172,Info_measure_main_exp,2022.2.2,Win32,60.0528465,,,,,,,,,,,,,,,,,,masks/mask_004.jpg,,,,,,,,,,,,,,,,,,,,,,,,,,,,,,,,,,,,,,,,,,,,,,,,0,2,2,3,1,,,,,,,,,,,,,,,,,,,,,,,,,,,,,,,,,,,,,,,,,
6154d48dc9f207a430d58b90,001,2022-11-21_24h56.50.172,Info_measure_main_exp,2022.2.2,Win32,60.0528465,,,,,,,,,,,,,,,,,,masks/mask_005.jpg,,,,,,,,,,,,,,,,,,,,,,,,,,,,,,,,,,,,,,,,,,,,,,,,0,3,3,4,1,,,,,,,,,,,,,,,,,,,,,,,,,,,,,,,,,,,,,,,,,
6154d48dc9f207a430d58b90,001,2022-11-21_24h56.50.172,Info_measure_main_exp,2022.2.2,Win32,60.0528465,,,,,,,,,,,,,,,,,,masks/mask_003.jpg,,,,,,,,,,,,,,,,,,,,,,,,,,,,,,,,,,,,,,,,,,,,,,,,0,4,4,2,1,,,,,,,,,,,,,,,,,,,,,,,,,,,,,,,,,,,,,,,,,
6154d48dc9f207a430d58b90,001,2022-11-21_24h56.50.172,Info_measure_main_exp,2022.2.2,Win32,60.0528465,,,,,,,,,,,,,,,,,,,,,,,,,,,,,,7,0.5502,1,,,,,,,,,,,,0,131,5,5,2178,2154,absent_patch/patch0002178.jpg,absent_patch/patch0002154.jpg,,,,,,,,,,,,,,,,,,,,0.005208333,0.026041667,1,0,0,response1disk,25,-0.00390625,-0.001302083,1,0,0,center_square,0,24,24,63,1,,,,,,,,,,,,,,,,,,,,,,,
6154d48dc9f207a430d58b90,001,2022-11-21_24h56.50.172,Info_measure_main_exp,2022.2.2,Win32,60.0528465,,,,,,,,,,,,,,,,,,masks/mask_003.jpg,,,,,,,,,,,,,,,,,,,,,,,,,,,,,,,,,,,,,,,,,,,0,0,0,2,1,,,,,,,,,,,,,,,,,,,,,,,,,,,,,,,,,,,,,,,,,,,,,,
6154d48dc9f207a430d58b90,001,2022-11-21_24h56.50.172,Info_measure_main_exp,2022.2.2,Win32,60.0528465,,,,,,,,,,,,,,,,,,masks/mask_005.jpg,,,,,,,,,,,,,,,,,,,,,,,,,,,,,,,,,,,,,,,,,,,0,1,1,4,1,,,,,,,,,,,,,,,,,,,,,,,,,,,,,,,,,,,,,,,,,,,,,,
6154d48dc9f207a430d58b90,001,2022-11-21_24h56.50.172,Info_measure_main_exp,2022.2.2,Win32,60.0528465,,,,,,,,,,,,,,,,,,masks/mask_002.jpg,,,,,,,,,,,,,,,,,,,,,,,,,,,,,,,,,,,,,,,,,,,0,2,2,1,1,,,,,,,,,,,,,,,,,,,,,,,,,,,,,,,,,,,,,,,,,,,,,,
6154d48dc9f207a430d58b90,001,2022-11-21_24h56.50.172,Info_measure_main_exp,2022.2.2,Win32,60.0528465,,,,,,,,,,,,,,,,,,masks/mask_001.jpg,,,,,,,,,,,,,,,,,,,,,,,,,,,,,,,,,,,,,,,,,,,0,3,3,0,1,,,,,,,,,,,,,,,,,,,,,,,,,,,,,,,,,,,,,,,,,,,,,,
6154d48dc9f207a430d58b90,001,2022-11-21_24h56.50.172,Info_measure_main_exp,2022.2.2,Win32,60.0528465,,,,,,,,,,,,,,,,,,masks/mask_004.jpg,,,,,,,,,,,,,,,,,,,,,,,,,,,,,,,,,,,,,,,,,,,0,4,4,3,1,,,,,,,,,,,,,,,,,,,,,,,,,,,,,,,,,,,,,,,,,,,,,,
6154d48dc9f207a430d58b90,001,2022-11-21_24h56.50.172,Info_measure_main_exp,2022.2.2,Win32,60.0528465,,,,,,,,,,,,,,,,,,masks/mask_004.jpg,,,,,,,,,,,,,,,,,,,,,,,,,,,,,,,,,,,,,,,,,,,,,,,,0,0,0,3,1,,,,,,,,,,,,,,,,,,,,,,,,,,,,,,,,,,,,,,,,,
6154d48dc9f207a430d58b90,001,2022-11-21_24h56.50.172,Info_measure_main_exp,2022.2.2,Win32,60.0528465,,,,,,,,,,,,,,,,,,masks/mask_005.jpg,,,,,,,,,,,,,,,,,,,,,,,,,,,,,,,,,,,,,,,,,,,,,,,,0,1,1,4,1,,,,,,,,,,,,,,,,,,,,,,,,,,,,,,,,,,,,,,,,,
6154d48dc9f207a430d58b90,001,2022-11-21_24h56.50.172,Info_measure_main_exp,2022.2.2,Win32,60.0528465,,,,,,,,,,,,,,,,,,masks/mask_001.jpg,,,,,,,,,,,,,,,,,,,,,,,,,,,,,,,,,,,,,,,,,,,,,,,,0,2,2,0,1,,,,,,,,,,,,,,,,,,,,,,,,,,,,,,,,,,,,,,,,,
6154d48dc9f207a430d58b90,001,2022-11-21_24h56.50.172,Info_measure_main_exp,2022.2.2,Win32,60.0528465,,,,,,,,,,,,,,,,,,masks/mask_003.jpg,,,,,,,,,,,,,,,,,,,,,,,,,,,,,,,,,,,,,,,,,,,,,,,,0,3,3,2,1,,,,,,,,,,,,,,,,,,,,,,,,,,,,,,,,,,,,,,,,,
6154d48dc9f207a430d58b90,001,2022-11-21_24h56.50.172,Info_measure_main_exp,2022.2.2,Win32,60.0528465,,,,,,,,,,,,,,,,,,masks/mask_002.jpg,,,,,,,,,,,,,,,,,,,,,,,,,,,,,,,,,,,,,,,,,,,,,,,,0,4,4,1,1,,,,,,,,,,,,,,,,,,,,,,,,,,,,,,,,,,,,,,,,,
6154d48dc9f207a430d58b90,001,2022-11-21_24h56.50.172,Info_measure_main_exp,2022.2.2,Win32,60.0528465,,,,,,,,,,,,,,,,,,,,,,,,,,,,,,5,1,1,,,,,,,,,,,,0,131,5,5,1974,1950,absent_patch/patch0001974.jpg,absent_patch/patch0001950.jpg,,,,,,,,,,,,,,,,,,,,0.03515625,-0.01171875,1,0,0,response3disk,26,0.005208333,0.002604167,1,0,0,center_square,0,25,25,17,1,,,,,,,,,,,,,,,,,,,,,,,
6154d48dc9f207a430d58b90,001,2022-11-21_24h56.50.172,Info_measure_main_exp,2022.2.2,Win32,60.0528465,,,,,,,,,,,,,,,,,,masks/mask_005.jpg,,,,,,,,,,,,,,,,,,,,,,,,,,,,,,,,,,,,,,,,,,,0,0,0,4,1,,,,,,,,,,,,,,,,,,,,,,,,,,,,,,,,,,,,,,,,,,,,,,
6154d48dc9f207a430d58b90,001,2022-11-21_24h56.50.172,Info_measure_main_exp,2022.2.2,Win32,60.0528465,,,,,,,,,,,,,,,,,,masks/mask_004.jpg,,,,,,,,,,,,,,,,,,,,,,,,,,,,,,,,,,,,,,,,,,,0,1,1,3,1,,,,,,,,,,,,,,,,,,,,,,,,,,,,,,,,,,,,,,,,,,,,,,
6154d48dc9f207a430d58b90,001,2022-11-21_24h56.50.172,Info_measure_main_exp,2022.2.2,Win32,60.0528465,,,,,,,,,,,,,,,,,,masks/mask_002.jpg,,,,,,,,,,,,,,,,,,,,,,,,,,,,,,,,,,,,,,,,,,,0,2,2,1,1,,,,,,,,,,,,,,,,,,,,,,,,,,,,,,,,,,,,,,,,,,,,,,
6154d48dc9f207a430d58b90,001,2022-11-21_24h56.50.172,Info_measure_main_exp,2022.2.2,Win32,60.0528465,,,,,,,,,,,,,,,,,,masks/mask_003.jpg,,,,,,,,,,,,,,,,,,,,,,,,,,,,,,,,,,,,,,,,,,,0,3,3,2,1,,,,,,,,,,,,,,,,,,,,,,,,,,,,,,,,,,,,,,,,,,,,,,
6154d48dc9f207a430d58b90,001,2022-11-21_24h56.50.172,Info_measure_main_exp,2022.2.2,Win32,60.0528465,,,,,,,,,,,,,,,,,,masks/mask_001.jpg,,,,,,,,,,,,,,,,,,,,,,,,,,,,,,,,,,,,,,,,,,,0,4,4,0,1,,,,,,,,,,,,,,,,,,,,,,,,,,,,,,,,,,,,,,,,,,,,,,
6154d48dc9f207a430d58b90,001,2022-11-21_24h56.50.172,Info_measure_main_exp,2022.2.2,Win32,60.0528465,,,,,,,,,,,,,,,,,,masks/mask_005.jpg,,,,,,,,,,,,,,,,,,,,,,,,,,,,,,,,,,,,,,,,,,,,,,,,0,0,0,4,1,,,,,,,,,,,,,,,,,,,,,,,,,,,,,,,,,,,,,,,,,
6154d48dc9f207a430d58b90,001,2022-11-21_24h56.50.172,Info_measure_main_exp,2022.2.2,Win32,60.0528465,,,,,,,,,,,,,,,,,,masks/mask_003.jpg,,,,,,,,,,,,,,,,,,,,,,,,,,,,,,,,,,,,,,,,,,,,,,,,0,1,1,2,1,,,,,,,,,,,,,,,,,,,,,,,,,,,,,,,,,,,,,,,,,
6154d48dc9f207a430d58b90,001,2022-11-21_24h56.50.172,Info_measure_main_exp,2022.2.2,Win32,60.0528465,,,,,,,,,,,,,,,,,,masks/mask_004.jpg,,,,,,,,,,,,,,,,,,,,,,,,,,,,,,,,,,,,,,,,,,,,,,,,0,2,2,3,1,,,,,,,,,,,,,,,,,,,,,,,,,,,,,,,,,,,,,,,,,
6154d48dc9f207a430d58b90,001,2022-11-21_24h56.50.172,Info_measure_main_exp,2022.2.2,Win32,60.0528465,,,,,,,,,,,,,,,,,,masks/mask_001.jpg,,,,,,,,,,,,,,,,,,,,,,,,,,,,,,,,,,,,,,,,,,,,,,,,0,3,3,0,1,,,,,,,,,,,,,,,,,,,,,,,,,,,,,,,,,,,,,,,,,
6154d48dc9f207a430d58b90,001,2022-11-21_24h56.50.172,Info_measure_main_exp,2022.2.2,Win32,60.0528465,,,,,,,,,,,,,,,,,,masks/mask_002.jpg,,,,,,,,,,,,,,,,,,,,,,,,,,,,,,,,,,,,,,,,,,,,,,,,0,4,4,1,1,,,,,,,,,,,,,,,,,,,,,,,,,,,,,,,,,,,,,,,,,
6154d48dc9f207a430d58b90,001,2022-11-21_24h56.50.172,Info_measure_main_exp,2022.2.2,Win32,60.0528465,,,,,,,,,,,,,,,,,,,,,,,,,,,,,,0,0.6167,1,,,,,,,,,,,,0,131,5,5,2250,2250,absent_patch/patch0002250.jpg,absent_patch/patch0002250.jpg,,,,,,,,,,,,,,,,,,,,-0.016927083,0.063802083,1,0,0,response7disk,27,-0.010416667,0.001302083,1,0,0,center_square,0,26,26,56,1,,,,,,,,,,,,,,,,,,,,,,,
6154d48dc9f207a430d58b90,001,2022-11-21_24h56.50.172,Info_measure_main_exp,2022.2.2,Win32,60.0528465,,,,,,,,,,,,,,,,,,masks/mask_002.jpg,,,,,,,,,,,,,,,,,,,,,,,,,,,,,,,,,,,,,,,,,,,0,0,0,1,1,,,,,,,,,,,,,,,,,,,,,,,,,,,,,,,,,,,,,,,,,,,,,,
6154d48dc9f207a430d58b90,001,2022-11-21_24h56.50.172,Info_measure_main_exp,2022.2.2,Win32,60.0528465,,,,,,,,,,,,,,,,,,masks/mask_001.jpg,,,,,,,,,,,,,,,,,,,,,,,,,,,,,,,,,,,,,,,,,,,0,1,1,0,1,,,,,,,,,,,,,,,,,,,,,,,,,,,,,,,,,,,,,,,,,,,,,,
6154d48dc9f207a430d58b90,001,2022-11-21_24h56.50.172,Info_measure_main_exp,2022.2.2,Win32,60.0528465,,,,,,,,,,,,,,,,,,masks/mask_004.jpg,,,,,,,,,,,,,,,,,,,,,,,,,,,,,,,,,,,,,,,,,,,0,2,2,3,1,,,,,,,,,,,,,,,,,,,,,,,,,,,,,,,,,,,,,,,,,,,,,,
6154d48dc9f207a430d58b90,001,2022-11-21_24h56.50.172,Info_measure_main_exp,2022.2.2,Win32,60.0528465,,,,,,,,,,,,,,,,,,masks/mask_005.jpg,,,,,,,,,,,,,,,,,,,,,,,,,,,,,,,,,,,,,,,,,,,0,3,3,4,1,,,,,,,,,,,,,,,,,,,,,,,,,,,,,,,,,,,,,,,,,,,,,,
6154d48dc9f207a430d58b90,001,2022-11-21_24h56.50.172,Info_measure_main_exp,2022.2.2,Win32,60.0528465,,,,,,,,,,,,,,,,,,masks/mask_003.jpg,,,,,,,,,,,,,,,,,,,,,,,,,,,,,,,,,,,,,,,,,,,0,4,4,2,1,,,,,,,,,,,,,,,,,,,,,,,,,,,,,,,,,,,,,,,,,,,,,,
6154d48dc9f207a430d58b90,001,2022-11-21_24h56.50.172,Info_measure_main_exp,2022.2.2,Win32,60.0528465,,,,,,,,,,,,,,,,,,masks/mask_004.jpg,,,,,,,,,,,,,,,,,,,,,,,,,,,,,,,,,,,,,,,,,,,,,,,,0,0,0,3,1,,,,,,,,,,,,,,,,,,,,,,,,,,,,,,,,,,,,,,,,,
6154d48dc9f207a430d58b90,001,2022-11-21_24h56.50.172,Info_measure_main_exp,2022.2.2,Win32,60.0528465,,,,,,,,,,,,,,,,,,masks/mask_005.jpg,,,,,,,,,,,,,,,,,,,,,,,,,,,,,,,,,,,,,,,,,,,,,,,,0,1,1,4,1,,,,,,,,,,,,,,,,,,,,,,,,,,,,,,,,,,,,,,,,,
6154d48dc9f207a430d58b90,001,2022-11-21_24h56.50.172,Info_measure_main_exp,2022.2.2,Win32,60.0528465,,,,,,,,,,,,,,,,,,masks/mask_002.jpg,,,,,,,,,,,,,,,,,,,,,,,,,,,,,,,,,,,,,,,,,,,,,,,,0,2,2,1,1,,,,,,,,,,,,,,,,,,,,,,,,,,,,,,,,,,,,,,,,,
6154d48dc9f207a430d58b90,001,2022-11-21_24h56.50.172,Info_measure_main_exp,2022.2.2,Win32,60.0528465,,,,,,,,,,,,,,,,,,masks/mask_001.jpg,,,,,,,,,,,,,,,,,,,,,,,,,,,,,,,,,,,,,,,,,,,,,,,,0,3,3,0,1,,,,,,,,,,,,,,,,,,,,,,,,,,,,,,,,,,,,,,,,,
6154d48dc9f207a430d58b90,001,2022-11-21_24h56.50.172,Info_measure_main_exp,2022.2.2,Win32,60.0528465,,,,,,,,,,,,,,,,,,masks/mask_003.jpg,,,,,,,,,,,,,,,,,,,,,,,,,,,,,,,,,,,,,,,,,,,,,,,,0,4,4,2,1,,,,,,,,,,,,,,,,,,,,,,,,,,,,,,,,,,,,,,,,,
6154d48dc9f207a430d58b90,001,2022-11-21_24h56.50.172,Info_measure_main_exp,2022.2.2,Win32,60.0528465,,,,,,,,,,,,,,,,,,,,,,,,,,,,,,4,1.5666,1,,,,,,,,,,,,0,131,5,5,1974,2298,absent_patch/patch0001974.jpg,absent_patch/patch0002298.jpg,,,,,,,,,,,,,,,,,,,,0.018229167,-0.026041667,1,0,0,response3disk,28,-0.009114583,-0.006510417,1,0,0,center_square,0,27,27,6,1,,,,,,,,,,,,,,,,,,,,,,,
6154d48dc9f207a430d58b90,001,2022-11-21_24h56.50.172,Info_measure_main_exp,2022.2.2,Win32,60.0528465,,,,,,,,,,,,,,,,,,masks/mask_001.jpg,,,,,,,,,,,,,,,,,,,,,,,,,,,,,,,,,,,,,,,,,,,0,0,0,0,1,,,,,,,,,,,,,,,,,,,,,,,,,,,,,,,,,,,,,,,,,,,,,,
6154d48dc9f207a430d58b90,001,2022-11-21_24h56.50.172,Info_measure_main_exp,2022.2.2,Win32,60.0528465,,,,,,,,,,,,,,,,,,masks/mask_002.jpg,,,,,,,,,,,,,,,,,,,,,,,,,,,,,,,,,,,,,,,,,,,0,1,1,1,1,,,,,,,,,,,,,,,,,,,,,,,,,,,,,,,,,,,,,,,,,,,,,,
6154d48dc9f207a430d58b90,001,2022-11-21_24h56.50.172,Info_measure_main_exp,2022.2.2,Win32,60.0528465,,,,,,,,,,,,,,,,,,masks/mask_004.jpg,,,,,,,,,,,,,,,,,,,,,,,,,,,,,,,,,,,,,,,,,,,0,2,2,3,1,,,,,,,,,,,,,,,,,,,,,,,,,,,,,,,,,,,,,,,,,,,,,,
6154d48dc9f207a430d58b90,001,2022-11-21_24h56.50.172,Info_measure_main_exp,2022.2.2,Win32,60.0528465,,,,,,,,,,,,,,,,,,masks/mask_005.jpg,,,,,,,,,,,,,,,,,,,,,,,,,,,,,,,,,,,,,,,,,,,0,3,3,4,1,,,,,,,,,,,,,,,,,,,,,,,,,,,,,,,,,,,,,,,,,,,,,,
6154d48dc9f207a430d58b90,001,2022-11-21_24h56.50.172,Info_measure_main_exp,2022.2.2,Win32,60.0528465,,,,,,,,,,,,,,,,,,masks/mask_003.jpg,,,,,,,,,,,,,,,,,,,,,,,,,,,,,,,,,,,,,,,,,,,0,4,4,2,1,,,,,,,,,,,,,,,,,,,,,,,,,,,,,,,,,,,,,,,,,,,,,,
6154d48dc9f207a430d58b90,001,2022-11-21_24h56.50.172,Info_measure_main_exp,2022.2.2,Win32,60.0528465,,,,,,,,,,,,,,,,,,masks/mask_001.jpg,,,,,,,,,,,,,,,,,,,,,,,,,,,,,,,,,,,,,,,,,,,,,,,,0,0,0,0,1,,,,,,,,,,,,,,,,,,,,,,,,,,,,,,,,,,,,,,,,,
6154d48dc9f207a430d58b90,001,2022-11-21_24h56.50.172,Info_measure_main_exp,2022.2.2,Win32,60.0528465,,,,,,,,,,,,,,,,,,masks/mask_003.jpg,,,,,,,,,,,,,,,,,,,,,,,,,,,,,,,,,,,,,,,,,,,,,,,,0,1,1,2,1,,,,,,,,,,,,,,,,,,,,,,,,,,,,,,,,,,,,,,,,,
6154d48dc9f207a430d58b90,001,2022-11-21_24h56.50.172,Info_measure_main_exp,2022.2.2,Win32,60.0528465,,,,,,,,,,,,,,,,,,masks/mask_004.jpg,,,,,,,,,,,,,,,,,,,,,,,,,,,,,,,,,,,,,,,,,,,,,,,,0,2,2,3,1,,,,,,,,,,,,,,,,,,,,,,,,,,,,,,,,,,,,,,,,,
6154d48dc9f207a430d58b90,001,2022-11-21_24h56.50.172,Info_measure_main_exp,2022.2.2,Win32,60.0528465,,,,,,,,,,,,,,,,,,masks/mask_005.jpg,,,,,,,,,,,,,,,,,,,,,,,,,,,,,,,,,,,,,,,,,,,,,,,,0,3,3,4,1,,,,,,,,,,,,,,,,,,,,,,,,,,,,,,,,,,,,,,,,,
6154d48dc9f207a430d58b90,001,2022-11-21_24h56.50.172,Info_measure_main_exp,2022.2.2,Win32,60.0528465,,,,,,,,,,,,,,,,,,masks/mask_002.jpg,,,,,,,,,,,,,,,,,,,,,,,,,,,,,,,,,,,,,,,,,,,,,,,,0,4,4,1,1,,,,,,,,,,,,,,,,,,,,,,,,,,,,,,,,,,,,,,,,,
6154d48dc9f207a430d58b90,001,2022-11-21_24h56.50.172,Info_measure_main_exp,2022.2.2,Win32,60.0528465,,,,,,,,,,,,,,,,,,,,,,,,,,,,,,7,0.7334,1,,,,,,,,,,,,0,131,5,5,2154,2190,absent_patch/patch0002154.jpg,absent_patch/patch0002190.jpg,,,,,,,,,,,,,,,,,,,,0.03515625,0.06640625,1,0,0,response1disk,29,0.002604167,0.005208333,1,0,0,center_square,0,28,28,68,1,,,,,,,,,,,,,,,,,,,,,,,
6154d48dc9f207a430d58b90,001,2022-11-21_24h56.50.172,Info_measure_main_exp,2022.2.2,Win32,60.0528465,,,,,,,,,,,,,,,,,,masks/mask_001.jpg,,,,,,,,,,,,,,,,,,,,,,,,,,,,,,,,,,,,,,,,,,,0,0,0,0,1,,,,,,,,,,,,,,,,,,,,,,,,,,,,,,,,,,,,,,,,,,,,,,
6154d48dc9f207a430d58b90,001,2022-11-21_24h56.50.172,Info_measure_main_exp,2022.2.2,Win32,60.0528465,,,,,,,,,,,,,,,,,,masks/mask_005.jpg,,,,,,,,,,,,,,,,,,,,,,,,,,,,,,,,,,,,,,,,,,,0,1,1,4,1,,,,,,,,,,,,,,,,,,,,,,,,,,,,,,,,,,,,,,,,,,,,,,
6154d48dc9f207a430d58b90,001,2022-11-21_24h56.50.172,Info_measure_main_exp,2022.2.2,Win32,60.0528465,,,,,,,,,,,,,,,,,,masks/mask_002.jpg,,,,,,,,,,,,,,,,,,,,,,,,,,,,,,,,,,,,,,,,,,,0,2,2,1,1,,,,,,,,,,,,,,,,,,,,,,,,,,,,,,,,,,,,,,,,,,,,,,
6154d48dc9f207a430d58b90,001,2022-11-21_24h56.50.172,Info_measure_main_exp,2022.2.2,Win32,60.0528465,,,,,,,,,,,,,,,,,,masks/mask_003.jpg,,,,,,,,,,,,,,,,,,,,,,,,,,,,,,,,,,,,,,,,,,,0,3,3,2,1,,,,,,,,,,,,,,,,,,,,,,,,,,,,,,,,,,,,,,,,,,,,,,
6154d48dc9f207a430d58b90,001,2022-11-21_24h56.50.172,Info_measure_main_exp,2022.2.2,Win32,60.0528465,,,,,,,,,,,,,,,,,,masks/mask_004.jpg,,,,,,,,,,,,,,,,,,,,,,,,,,,,,,,,,,,,,,,,,,,0,4,4,3,1,,,,,,,,,,,,,,,,,,,,,,,,,,,,,,,,,,,,,,,,,,,,,,
6154d48dc9f207a430d58b90,001,2022-11-21_24h56.50.172,Info_measure_main_exp,2022.2.2,Win32,60.0528465,,,,,,,,,,,,,,,,,,masks/mask_003.jpg,,,,,,,,,,,,,,,,,,,,,,,,,,,,,,,,,,,,,,,,,,,,,,,,0,0,0,2,1,,,,,,,,,,,,,,,,,,,,,,,,,,,,,,,,,,,,,,,,,
6154d48dc9f207a430d58b90,001,2022-11-21_24h56.50.172,Info_measure_main_exp,2022.2.2,Win32,60.0528465,,,,,,,,,,,,,,,,,,masks/mask_001.jpg,,,,,,,,,,,,,,,,,,,,,,,,,,,,,,,,,,,,,,,,,,,,,,,,0,1,1,0,1,,,,,,,,,,,,,,,,,,,,,,,,,,,,,,,,,,,,,,,,,
6154d48dc9f207a430d58b90,001,2022-11-21_24h56.50.172,Info_measure_main_exp,2022.2.2,Win32,60.0528465,,,,,,,,,,,,,,,,,,masks/mask_005.jpg,,,,,,,,,,,,,,,,,,,,,,,,,,,,,,,,,,,,,,,,,,,,,,,,0,2,2,4,1,,,,,,,,,,,,,,,,,,,,,,,,,,,,,,,,,,,,,,,,,
6154d48dc9f207a430d58b90,001,2022-11-21_24h56.50.172,Info_measure_main_exp,2022.2.2,Win32,60.0528465,,,,,,,,,,,,,,,,,,masks/mask_004.jpg,,,,,,,,,,,,,,,,,,,,,,,,,,,,,,,,,,,,,,,,,,,,,,,,0,3,3,3,1,,,,,,,,,,,,,,,,,,,,,,,,,,,,,,,,,,,,,,,,,
6154d48dc9f207a430d58b90,001,2022-11-21_24h56.50.172,Info_measure_main_exp,2022.2.2,Win32,60.0528465,,,,,,,,,,,,,,,,,,masks/mask_002.jpg,,,,,,,,,,,,,,,,,,,,,,,,,,,,,,,,,,,,,,,,,,,,,,,,0,4,4,1,1,,,,,,,,,,,,,,,,,,,,,,,,,,,,,,,,,,,,,,,,,
6154d48dc9f207a430d58b90,001,2022-11-21_24h56.50.172,Info_measure_main_exp,2022.2.2,Win32,60.0528465,,,,,,,,,,,,,,,,,,,,,,,,,,,,,,0,0.6002,1,,,,,,,,,,,,0,131,5,5,2178,2178,absent_patch/patch0002178.jpg,absent_patch/patch0002178.jpg,,,,,,,,,,,,,,,,,,,,-0.03125,0.080729167,1,0,0,response7disk,30,-0.005208333,0,1,0,0,center_square,0,29,29,98,1,,,,,,,,,,,,,,,,,,,,,,,
6154d48dc9f207a430d58b90,001,2022-11-21_24h56.50.172,Info_measure_main_exp,2022.2.2,Win32,60.0528465,,,,,,,,,,,,,,,,,,masks/mask_003.jpg,,,,,,,,,,,,,,,,,,,,,,,,,,,,,,,,,,,,,,,,,,,0,0,0,2,1,,,,,,,,,,,,,,,,,,,,,,,,,,,,,,,,,,,,,,,,,,,,,,
6154d48dc9f207a430d58b90,001,2022-11-21_24h56.50.172,Info_measure_main_exp,2022.2.2,Win32,60.0528465,,,,,,,,,,,,,,,,,,masks/mask_004.jpg,,,,,,,,,,,,,,,,,,,,,,,,,,,,,,,,,,,,,,,,,,,0,1,1,3,1,,,,,,,,,,,,,,,,,,,,,,,,,,,,,,,,,,,,,,,,,,,,,,
6154d48dc9f207a430d58b90,001,2022-11-21_24h56.50.172,Info_measure_main_exp,2022.2.2,Win32,60.0528465,,,,,,,,,,,,,,,,,,masks/mask_001.jpg,,,,,,,,,,,,,,,,,,,,,,,,,,,,,,,,,,,,,,,,,,,0,2,2,0,1,,,,,,,,,,,,,,,,,,,,,,,,,,,,,,,,,,,,,,,,,,,,,,
6154d48dc9f207a430d58b90,001,2022-11-21_24h56.50.172,Info_measure_main_exp,2022.2.2,Win32,60.0528465,,,,,,,,,,,,,,,,,,masks/mask_005.jpg,,,,,,,,,,,,,,,,,,,,,,,,,,,,,,,,,,,,,,,,,,,0,3,3,4,1,,,,,,,,,,,,,,,,,,,,,,,,,,,,,,,,,,,,,,,,,,,,,,
6154d48dc9f207a430d58b90,001,2022-11-21_24h56.50.172,Info_measure_main_exp,2022.2.2,Win32,60.0528465,,,,,,,,,,,,,,,,,,masks/mask_002.jpg,,,,,,,,,,,,,,,,,,,,,,,,,,,,,,,,,,,,,,,,,,,0,4,4,1,1,,,,,,,,,,,,,,,,,,,,,,,,,,,,,,,,,,,,,,,,,,,,,,
6154d48dc9f207a430d58b90,001,2022-11-21_24h56.50.172,Info_measure_main_exp,2022.2.2,Win32,60.0528465,,,,,,,,,,,,,,,,,,masks/mask_002.jpg,,,,,,,,,,,,,,,,,,,,,,,,,,,,,,,,,,,,,,,,,,,,,,,,0,0,0,1,1,,,,,,,,,,,,,,,,,,,,,,,,,,,,,,,,,,,,,,,,,
6154d48dc9f207a430d58b90,001,2022-11-21_24h56.50.172,Info_measure_main_exp,2022.2.2,Win32,60.0528465,,,,,,,,,,,,,,,,,,masks/mask_005.jpg,,,,,,,,,,,,,,,,,,,,,,,,,,,,,,,,,,,,,,,,,,,,,,,,0,1,1,4,1,,,,,,,,,,,,,,,,,,,,,,,,,,,,,,,,,,,,,,,,,
6154d48dc9f207a430d58b90,001,2022-11-21_24h56.50.172,Info_measure_main_exp,2022.2.2,Win32,60.0528465,,,,,,,,,,,,,,,,,,masks/mask_004.jpg,,,,,,,,,,,,,,,,,,,,,,,,,,,,,,,,,,,,,,,,,,,,,,,,0,2,2,3,1,,,,,,,,,,,,,,,,,,,,,,,,,,,,,,,,,,,,,,,,,
6154d48dc9f207a430d58b90,001,2022-11-21_24h56.50.172,Info_measure_main_exp,2022.2.2,Win32,60.0528465,,,,,,,,,,,,,,,,,,masks/mask_003.jpg,,,,,,,,,,,,,,,,,,,,,,,,,,,,,,,,,,,,,,,,,,,,,,,,0,3,3,2,1,,,,,,,,,,,,,,,,,,,,,,,,,,,,,,,,,,,,,,,,,
6154d48dc9f207a430d58b90,001,2022-11-21_24h56.50.172,Info_measure_main_exp,2022.2.2,Win32,60.0528465,,,,,,,,,,,,,,,,,,masks/mask_001.jpg,,,,,,,,,,,,,,,,,,,,,,,,,,,,,,,,,,,,,,,,,,,,,,,,0,4,4,0,1,,,,,,,,,,,,,,,,,,,,,,,,,,,,,,,,,,,,,,,,,
6154d48dc9f207a430d58b90,001,2022-11-21_24h56.50.172,Info_measure_main_exp,2022.2.2,Win32,60.0528465,,,,,,,,,,,,,,,,,,,,,,,,,,,,,,7,0.6667,1,,,,,,,,,,,,0,131,5,5,1974,2238,absent_patch/patch0001974.jpg,absent_patch/patch0002238.jpg,,,,,,,,,,,,,,,,,,,,0.014322917,0.045572917,1,0,0,response1disk,31,0,-0.005208333,1,0,0,center_square,0,30,30,95,1,,,,,,,,,,,,,,,,,,,,,,,
6154d48dc9f207a430d58b90,001,2022-11-21_24h56.50.172,Info_measure_main_exp,2022.2.2,Win32,60.0528465,,,,,,,,,,,,,,,,,,masks/mask_001.jpg,,,,,,,,,,,,,,,,,,,,,,,,,,,,,,,,,,,,,,,,,,,0,0,0,0,1,,,,,,,,,,,,,,,,,,,,,,,,,,,,,,,,,,,,,,,,,,,,,,
6154d48dc9f207a430d58b90,001,2022-11-21_24h56.50.172,Info_measure_main_exp,2022.2.2,Win32,60.0528465,,,,,,,,,,,,,,,,,,masks/mask_003.jpg,,,,,,,,,,,,,,,,,,,,,,,,,,,,,,,,,,,,,,,,,,,0,1,1,2,1,,,,,,,,,,,,,,,,,,,,,,,,,,,,,,,,,,,,,,,,,,,,,,
6154d48dc9f207a430d58b90,001,2022-11-21_24h56.50.172,Info_measure_main_exp,2022.2.2,Win32,60.0528465,,,,,,,,,,,,,,,,,,masks/mask_004.jpg,,,,,,,,,,,,,,,,,,,,,,,,,,,,,,,,,,,,,,,,,,,0,2,2,3,1,,,,,,,,,,,,,,,,,,,,,,,,,,,,,,,,,,,,,,,,,,,,,,
6154d48dc9f207a430d58b90,001,2022-11-21_24h56.50.172,Info_measure_main_exp,2022.2.2,Win32,60.0528465,,,,,,,,,,,,,,,,,,masks/mask_005.jpg,,,,,,,,,,,,,,,,,,,,,,,,,,,,,,,,,,,,,,,,,,,0,3,3,4,1,,,,,,,,,,,,,,,,,,,,,,,,,,,,,,,,,,,,,,,,,,,,,,
6154d48dc9f207a430d58b90,001,2022-11-21_24h56.50.172,Info_measure_main_exp,2022.2.2,Win32,60.0528465,,,,,,,,,,,,,,,,,,masks/mask_002.jpg,,,,,,,,,,,,,,,,,,,,,,,,,,,,,,,,,,,,,,,,,,,0,4,4,1,1,,,,,,,,,,,,,,,,,,,,,,,,,,,,,,,,,,,,,,,,,,,,,,
6154d48dc9f207a430d58b90,001,2022-11-21_24h56.50.172,Info_measure_main_exp,2022.2.2,Win32,60.0528465,,,,,,,,,,,,,,,,,,masks/mask_001.jpg,,,,,,,,,,,,,,,,,,,,,,,,,,,,,,,,,,,,,,,,,,,,,,,,0,0,0,0,1,,,,,,,,,,,,,,,,,,,,,,,,,,,,,,,,,,,,,,,,,
6154d48dc9f207a430d58b90,001,2022-11-21_24h56.50.172,Info_measure_main_exp,2022.2.2,Win32,60.0528465,,,,,,,,,,,,,,,,,,masks/mask_005.jpg,,,,,,,,,,,,,,,,,,,,,,,,,,,,,,,,,,,,,,,,,,,,,,,,0,1,1,4,1,,,,,,,,,,,,,,,,,,,,,,,,,,,,,,,,,,,,,,,,,
6154d48dc9f207a430d58b90,001,2022-11-21_24h56.50.172,Info_measure_main_exp,2022.2.2,Win32,60.0528465,,,,,,,,,,,,,,,,,,masks/mask_004.jpg,,,,,,,,,,,,,,,,,,,,,,,,,,,,,,,,,,,,,,,,,,,,,,,,0,2,2,3,1,,,,,,,,,,,,,,,,,,,,,,,,,,,,,,,,,,,,,,,,,
6154d48dc9f207a430d58b90,001,2022-11-21_24h56.50.172,Info_measure_main_exp,2022.2.2,Win32,60.0528465,,,,,,,,,,,,,,,,,,masks/mask_002.jpg,,,,,,,,,,,,,,,,,,,,,,,,,,,,,,,,,,,,,,,,,,,,,,,,0,3,3,1,1,,,,,,,,,,,,,,,,,,,,,,,,,,,,,,,,,,,,,,,,,
6154d48dc9f207a430d58b90,001,2022-11-21_24h56.50.172,Info_measure_main_exp,2022.2.2,Win32,60.0528465,,,,,,,,,,,,,,,,,,masks/mask_003.jpg,,,,,,,,,,,,,,,,,,,,,,,,,,,,,,,,,,,,,,,,,,,,,,,,0,4,4,2,1,,,,,,,,,,,,,,,,,,,,,,,,,,,,,,,,,,,,,,,,,
6154d48dc9f207a430d58b90,001,2022-11-21_24h56.50.172,Info_measure_main_exp,2022.2.2,Win32,60.0528465,,,,,,,,,,,,,,,,,,,,,,,,,,,,,,0,0.6668,1,,,,,,,,,,,,0,131,5,5,2154,2154,absent_patch/patch0002154.jpg,absent_patch/patch0002154.jpg,,,,,,,,,,,,,,,,,,,,-0.022135417,0.071614583,1,0,0,response7disk,32,0,0.005208333,1,0,0,center_square,0,31,31,89,1,,,,,,,,,,,,,,,,,,,,,,,
6154d48dc9f207a430d58b90,001,2022-11-21_24h56.50.172,Info_measure_main_exp,2022.2.2,Win32,60.0528465,,,,,,,,,,,,,,,,,,masks/mask_004.jpg,,,,,,,,,,,,,,,,,,,,,,,,,,,,,,,,,,,,,,,,,,,0,0,0,3,1,,,,,,,,,,,,,,,,,,,,,,,,,,,,,,,,,,,,,,,,,,,,,,
6154d48dc9f207a430d58b90,001,2022-11-21_24h56.50.172,Info_measure_main_exp,2022.2.2,Win32,60.0528465,,,,,,,,,,,,,,,,,,masks/mask_001.jpg,,,,,,,,,,,,,,,,,,,,,,,,,,,,,,,,,,,,,,,,,,,0,1,1,0,1,,,,,,,,,,,,,,,,,,,,,,,,,,,,,,,,,,,,,,,,,,,,,,
