participant,session,date,expName,psychopyVersion,OS,frameRate,space_press_continue.keys,space_press_continue.rt,space_press_continue_2.keys,space_press_continue_2.rt,space_press_continue_3.keys,space_press_continue_3.rt,space_press_continue_4.keys,space_press_continue_4.rt,space_press_continue_5.keys,space_press_continue_5.rt,space_press_continue_6.keys,space_press_continue_6.rt,prac_mask_loop_1.thisRepN,prac_mask_loop_1.thisTrialN,prac_mask_loop_1.thisN,prac_mask_loop_1.thisIndex,prac_mask_loop_1.ran,mask_name,prac_mask_loop_2.thisRepN,prac_mask_loop_2.thisTrialN,prac_mask_loop_2.thisN,prac_mask_loop_2.thisIndex,prac_mask_loop_2.ran,mouse_2.x,mouse_2.y,mouse_2.leftButton,mouse_2.midButton,mouse_2.rightButton,mouse_2.clicked_name,similarity,response_time,Pass,mouse_12.x,mouse_12.y,mouse_12.leftButton,mouse_12.midButton,mouse_12.rightButton,mouse_12.clicked_name,prac_loop.thisRepN,prac_loop.thisTrialN,prac_loop.thisN,prac_loop.thisIndex,prac_loop.ran,Pair_type,Image_num,Patch_1_loc,Patch_2_loc,Patch_1_info,Patch_2_info,Patch_1_name,Patch_2_name,mouse_1.x,mouse_1.y,mouse_1.leftButton,mouse_1.midButton,mouse_1.rightButton,mouse_1.time,mouse_1.clicked_name,space_press_continue_7.keys,space_press_continue_7.rt,mask_loop.thisRepN,mask_loop.thisTrialN,mask_loop.thisN,mask_loop.thisIndex,mask_loop.ran,mask_loop_2.thisRepN,mask_loop_2.thisTrialN,mask_loop_2.thisN,mask_loop_2.thisIndex,mask_loop_2.ran,mouse.x,mouse.y,mouse.leftButton,mouse.midButton,mouse.rightButton,mouse.clicked_name,trialNumber,mouse_11.x,mouse_11.y,mouse_11.leftButton,mouse_11.midButton,mouse_11.rightButton,mouse_11.clicked_name,first_pass_loop.thisRepN,first_pass_loop.thisTrialN,first_pass_loop.thisN,first_pass_loop.thisIndex,first_pass_loop.ran,mask_loop_3.thisRepN,mask_loop_3.thisTrialN,mask_loop_3.thisN,mask_loop_3.thisIndex,mask_loop_3.ran,mask_loop_4.thisRepN,mask_loop_4.thisTrialN,mask_loop_4.thisN,mask_loop_4.thisIndex,mask_loop_4.ran,mouse_3.x,mouse_3.y,mouse_3.leftButton,mouse_3.midButton,mouse_3.rightButton,mouse_3.clicked_name,double_pass_loop.thisRepN,double_pass_loop.thisTrialN,double_pass_loop.thisN,double_pass_loop.thisIndex,double_pass_loop.ran,space_exit.keys,space_exit.rt
652630,001,2022-11-21_01h00.58.595,Info_measure_main_exp,2022.2.2,Win32,59.90893841,,,,,,,,,,,,,,,,,,,,,,,,,,,,,,,,,,,,,,,,,,,,,,,,,,,,,,,,,,,,,,,,,,,,,,,,,,,,,,,,,,,,,,,,,,,,,,,,,,,,,,,,,,,,,,,
652630,001,2022-11-21_01h00.58.595,Info_measure_main_exp,2022.2.2,Win32,59.90893841,,,,,,,,,,,,,,,,,,,,,,,,,,,,,,,,,,,,,,,,,,,,,,,,,,,,,,,,,,,,,,,,,,,,,,,,,,,,,,,,,,,,,,,,,,,,,,,,,,,,,,,,,,,,,,,
652630,001,2022-11-21_01h00.58.595,Info_measure_main_exp,2022.2.2,Win32,59.90893841,space,6.1806,,,,,,,,,,,,,,,,,,,,,,,,,,,,,,,,,,,,,,,,,,,,,,,,,,,,,,,,,,,,,,,,,,,,,,,,,,,,,,,,,,,,,,,,,,,,,,,,,,,,,,,,,,,,,
652630,001,2022-11-21_01h00.58.595,Info_measure_main_exp,2022.2.2,Win32,59.90893841,,,space,8.1605,,,,,,,,,,,,,,,,,,,,,,,,,,,,,,,,,,,,,,,,,,,,,,,,,,,,,,,,,,,,,,,,,,,,,,,,,,,,,,,,,,,,,,,,,,,,,,,,,,,,,,,,,,,
652630,001,2022-11-21_01h00.58.595,Info_measure_main_exp,2022.2.2,Win32,59.90893841,,,,,space,6.1235,,,,,,,,,,,,,,,,,,,,,,,,,,,,,,,,,,,,,,,,,,,,,,,,,,,,,,,,,,,,,,,,,,,,,,,,,,,,,,,,,,,,,,,,,,,,,,,,,,,,,,,,,
652630,001,2022-11-21_01h00.58.595,Info_measure_main_exp,2022.2.2,Win32,59.90893841,,,,,,,space,19.9981,,,,,,,,,,,,,,,,,,,,,,,,,,,,,,,,,,,,,,,,,,,,,,,,,,,,,,,,,,,,,,,,,,,,,,,,,,,,,,,,,,,,,,,,,,,,,,,,,,,,,,,
652630,001,2022-11-21_01h00.58.595,Info_measure_main_exp,2022.2.2,Win32,59.90893841,,,,,,,,,space,12.5862,,,,,,,,,,,,,,,,,,,,,,,,,,,,,,,,,,,,,,,,,,,,,,,,,,,,,,,,,,,,,,,,,,,,,,,,,,,,,,,,,,,,,,,,,,,,,,,,,,,,,
652630,001,2022-11-21_01h00.58.595,Info_measure_main_exp,2022.2.2,Win32,59.90893841,,,,,,,,,,,space,2.4482,,,,,,,,,,,,,,,,,,,,,,,,,,,,,,,,,,,,,,,,,,,,,,,,,,,,,,,,,,,,,,,,,,,,,,,,,,,,,,,,,,,,,,,,,,,,,,,,,,,
652630,001,2022-11-21_01h00.58.595,Info_measure_main_exp,2022.2.2,Win32,59.90893841,,,,,,,,,,,,,0,0,0,4,1,masks/mask_005.jpg,,,,,,,,,,,,,,,,,,,,,,,,,,,,,,,,,,,,,,,,,,,,,,,,,,,,,,,,,,,,,,,,,,,,,,,,,,,,,,,,,,,,,,,,,,,,,
652630,001,2022-11-21_01h00.58.595,Info_measure_main_exp,2022.2.2,Win32,59.90893841,,,,,,,,,,,,,0,1,1,2,1,masks/mask_003.jpg,,,,,,,,,,,,,,,,,,,,,,,,,,,,,,,,,,,,,,,,,,,,,,,,,,,,,,,,,,,,,,,,,,,,,,,,,,,,,,,,,,,,,,,,,,,,,
652630,001,2022-11-21_01h00.58.595,Info_measure_main_exp,2022.2.2,Win32,59.90893841,,,,,,,,,,,,,0,2,2,3,1,masks/mask_004.jpg,,,,,,,,,,,,,,,,,,,,,,,,,,,,,,,,,,,,,,,,,,,,,,,,,,,,,,,,,,,,,,,,,,,,,,,,,,,,,,,,,,,,,,,,,,,,,
652630,001,2022-11-21_01h00.58.595,Info_measure_main_exp,2022.2.2,Win32,59.90893841,,,,,,,,,,,,,0,3,3,0,1,masks/mask_001.jpg,,,,,,,,,,,,,,,,,,,,,,,,,,,,,,,,,,,,,,,,,,,,,,,,,,,,,,,,,,,,,,,,,,,,,,,,,,,,,,,,,,,,,,,,,,,,,
652630,001,2022-11-21_01h00.58.595,Info_measure_main_exp,2022.2.2,Win32,59.90893841,,,,,,,,,,,,,0,4,4,1,1,masks/mask_002.jpg,,,,,,,,,,,,,,,,,,,,,,,,,,,,,,,,,,,,,,,,,,,,,,,,,,,,,,,,,,,,,,,,,,,,,,,,,,,,,,,,,,,,,,,,,,,,,
652630,001,2022-11-21_01h00.58.595,Info_measure_main_exp,2022.2.2,Win32,59.90893841,,,,,,,,,,,,,,,,,,masks/mask_001.jpg,0,0,0,0,1,,,,,,,,,,,,,,,,,,,,,,,,,,,,,,,,,,,,,,,,,,,,,,,,,,,,,,,,,,,,,,,,,,,,,,,,,,,,,,,,,,,,,,,,
652630,001,2022-11-21_01h00.58.595,Info_measure_main_exp,2022.2.2,Win32,59.90893841,,,,,,,,,,,,,,,,,,masks/mask_003.jpg,0,1,1,2,1,,,,,,,,,,,,,,,,,,,,,,,,,,,,,,,,,,,,,,,,,,,,,,,,,,,,,,,,,,,,,,,,,,,,,,,,,,,,,,,,,,,,,,,,
652630,001,2022-11-21_01h00.58.595,Info_measure_main_exp,2022.2.2,Win32,59.90893841,,,,,,,,,,,,,,,,,,masks/mask_002.jpg,0,2,2,1,1,,,,,,,,,,,,,,,,,,,,,,,,,,,,,,,,,,,,,,,,,,,,,,,,,,,,,,,,,,,,,,,,,,,,,,,,,,,,,,,,,,,,,,,,
652630,001,2022-11-21_01h00.58.595,Info_measure_main_exp,2022.2.2,Win32,59.90893841,,,,,,,,,,,,,,,,,,masks/mask_005.jpg,0,3,3,4,1,,,,,,,,,,,,,,,,,,,,,,,,,,,,,,,,,,,,,,,,,,,,,,,,,,,,,,,,,,,,,,,,,,,,,,,,,,,,,,,,,,,,,,,,
652630,001,2022-11-21_01h00.58.595,Info_measure_main_exp,2022.2.2,Win32,59.90893841,,,,,,,,,,,,,,,,,,masks/mask_004.jpg,0,4,4,3,1,,,,,,,,,,,,,,,,,,,,,,,,,,,,,,,,,,,,,,,,,,,,,,,,,,,,,,,,,,,,,,,,,,,,,,,,,,,,,,,,,,,,,,,,
652630,001,2022-11-21_01h00.58.595,Info_measure_main_exp,2022.2.2,Win32,59.90893841,,,,,,,,,,,,,,,,,,,,,,,,-0.027999954,-0.071000023,1,0,0,response5disk,3,60.0266,1,-0.001500015,-0.001500015,1,0,0,center_square,0,0,0,0,1,0,131,5,5,2370,2406,prac_patch/patch0002370.jpg,prac_patch/patch0002406.jpg,,,,,,,,,,,,,,,,,,,,,,,,,,,,,,,,,,,,,,,,,,,,,,,,,,,,,,,,,,,,
652630,001,2022-11-21_01h00.58.595,Info_measure_main_exp,2022.2.2,Win32,59.90893841,,,,,,,,,,,,,0,0,0,0,1,masks/mask_001.jpg,,,,,,,,,,,,,,,,,,,,,,,,,,,,,,,,,,,,,,,,,,,,,,,,,,,,,,,,,,,,,,,,,,,,,,,,,,,,,,,,,,,,,,,,,,,,,
652630,001,2022-11-21_01h00.58.595,Info_measure_main_exp,2022.2.2,Win32,59.90893841,,,,,,,,,,,,,0,1,1,2,1,masks/mask_003.jpg,,,,,,,,,,,,,,,,,,,,,,,,,,,,,,,,,,,,,,,,,,,,,,,,,,,,,,,,,,,,,,,,,,,,,,,,,,,,,,,,,,,,,,,,,,,,,
652630,001,2022-11-21_01h00.58.595,Info_measure_main_exp,2022.2.2,Win32,59.90893841,,,,,,,,,,,,,0,2,2,1,1,masks/mask_002.jpg,,,,,,,,,,,,,,,,,,,,,,,,,,,,,,,,,,,,,,,,,,,,,,,,,,,,,,,,,,,,,,,,,,,,,,,,,,,,,,,,,,,,,,,,,,,,,
652630,001,2022-11-21_01h00.58.595,Info_measure_main_exp,2022.2.2,Win32,59.90893841,,,,,,,,,,,,,0,3,3,3,1,masks/mask_004.jpg,,,,,,,,,,,,,,,,,,,,,,,,,,,,,,,,,,,,,,,,,,,,,,,,,,,,,,,,,,,,,,,,,,,,,,,,,,,,,,,,,,,,,,,,,,,,,
652630,001,2022-11-21_01h00.58.595,Info_measure_main_exp,2022.2.2,Win32,59.90893841,,,,,,,,,,,,,0,4,4,4,1,masks/mask_005.jpg,,,,,,,,,,,,,,,,,,,,,,,,,,,,,,,,,,,,,,,,,,,,,,,,,,,,,,,,,,,,,,,,,,,,,,,,,,,,,,,,,,,,,,,,,,,,,
652630,001,2022-11-21_01h00.58.595,Info_measure_main_exp,2022.2.2,Win32,59.90893841,,,,,,,,,,,,,,,,,,masks/mask_001.jpg,0,0,0,0,1,,,,,,,,,,,,,,,,,,,,,,,,,,,,,,,,,,,,,,,,,,,,,,,,,,,,,,,,,,,,,,,,,,,,,,,,,,,,,,,,,,,,,,,,
652630,001,2022-11-21_01h00.58.595,Info_measure_main_exp,2022.2.2,Win32,59.90893841,,,,,,,,,,,,,,,,,,masks/mask_004.jpg,0,1,1,3,1,,,,,,,,,,,,,,,,,,,,,,,,,,,,,,,,,,,,,,,,,,,,,,,,,,,,,,,,,,,,,,,,,,,,,,,,,,,,,,,,,,,,,,,,
652630,001,2022-11-21_01h00.58.595,Info_measure_main_exp,2022.2.2,Win32,59.90893841,,,,,,,,,,,,,,,,,,masks/mask_002.jpg,0,2,2,1,1,,,,,,,,,,,,,,,,,,,,,,,,,,,,,,,,,,,,,,,,,,,,,,,,,,,,,,,,,,,,,,,,,,,,,,,,,,,,,,,,,,,,,,,,
652630,001,2022-11-21_01h00.58.595,Info_measure_main_exp,2022.2.2,Win32,59.90893841,,,,,,,,,,,,,,,,,,masks/mask_005.jpg,0,3,3,4,1,,,,,,,,,,,,,,,,,,,,,,,,,,,,,,,,,,,,,,,,,,,,,,,,,,,,,,,,,,,,,,,,,,,,,,,,,,,,,,,,,,,,,,,,
652630,001,2022-11-21_01h00.58.595,Info_measure_main_exp,2022.2.2,Win32,59.90893841,,,,,,,,,,,,,,,,,,masks/mask_003.jpg,0,4,4,2,1,,,,,,,,,,,,,,,,,,,,,,,,,,,,,,,,,,,,,,,,,,,,,,,,,,,,,,,,,,,,,,,,,,,,,,,,,,,,,,,,,,,,,,,,
652630,001,2022-11-21_01h00.58.595,Info_measure_main_exp,2022.2.2,Win32,59.90893841,,,,,,,,,,,,,,,,,,,,,,,,0.085,-0.029500008,1,0,0,response3disk,5,92.5199,1,0.0025,-0.005,1,0,0,center_square,0,1,1,1,1,0,131,5,5,2514,2490,prac_patch/patch0002514.jpg,prac_patch/patch0002490.jpg,,,,,,,,,,,,,,,,,,,,,,,,,,,,,,,,,,,,,,,,,,,,,,,,,,,,,,,,,,,,
652630,001,2022-11-21_01h00.58.595,Info_measure_main_exp,2022.2.2,Win32,59.90893841,,,,,,,,,,,,,0,0,0,3,1,masks/mask_004.jpg,,,,,,,,,,,,,,,,,,,,,,,,,,,,,,,,,,,,,,,,,,,,,,,,,,,,,,,,,,,,,,,,,,,,,,,,,,,,,,,,,,,,,,,,,,,,,
652630,001,2022-11-21_01h00.58.595,Info_measure_main_exp,2022.2.2,Win32,59.90893841,,,,,,,,,,,,,0,1,1,0,1,masks/mask_001.jpg,,,,,,,,,,,,,,,,,,,,,,,,,,,,,,,,,,,,,,,,,,,,,,,,,,,,,,,,,,,,,,,,,,,,,,,,,,,,,,,,,,,,,,,,,,,,,
652630,001,2022-11-21_01h00.58.595,Info_measure_main_exp,2022.2.2,Win32,59.90893841,,,,,,,,,,,,,0,2,2,2,1,masks/mask_003.jpg,,,,,,,,,,,,,,,,,,,,,,,,,,,,,,,,,,,,,,,,,,,,,,,,,,,,,,,,,,,,,,,,,,,,,,,,,,,,,,,,,,,,,,,,,,,,,
652630,001,2022-11-21_01h00.58.595,Info_measure_main_exp,2022.2.2,Win32,59.90893841,,,,,,,,,,,,,0,3,3,1,1,masks/mask_002.jpg,,,,,,,,,,,,,,,,,,,,,,,,,,,,,,,,,,,,,,,,,,,,,,,,,,,,,,,,,,,,,,,,,,,,,,,,,,,,,,,,,,,,,,,,,,,,,
652630,001,2022-11-21_01h00.58.595,Info_measure_main_exp,2022.2.2,Win32,59.90893841,,,,,,,,,,,,,0,4,4,4,1,masks/mask_005.jpg,,,,,,,,,,,,,,,,,,,,,,,,,,,,,,,,,,,,,,,,,,,,,,,,,,,,,,,,,,,,,,,,,,,,,,,,,,,,,,,,,,,,,,,,,,,,,
652630,001,2022-11-21_01h00.58.595,Info_measure_main_exp,2022.2.2,Win32,59.90893841,,,,,,,,,,,,,,,,,,masks/mask_005.jpg,0,0,0,4,1,,,,,,,,,,,,,,,,,,,,,,,,,,,,,,,,,,,,,,,,,,,,,,,,,,,,,,,,,,,,,,,,,,,,,,,,,,,,,,,,,,,,,,,,
652630,001,2022-11-21_01h00.58.595,Info_measure_main_exp,2022.2.2,Win32,59.90893841,,,,,,,,,,,,,,,,,,masks/mask_001.jpg,0,1,1,0,1,,,,,,,,,,,,,,,,,,,,,,,,,,,,,,,,,,,,,,,,,,,,,,,,,,,,,,,,,,,,,,,,,,,,,,,,,,,,,,,,,,,,,,,,
652630,001,2022-11-21_01h00.58.595,Info_measure_main_exp,2022.2.2,Win32,59.90893841,,,,,,,,,,,,,,,,,,masks/mask_004.jpg,0,2,2,3,1,,,,,,,,,,,,,,,,,,,,,,,,,,,,,,,,,,,,,,,,,,,,,,,,,,,,,,,,,,,,,,,,,,,,,,,,,,,,,,,,,,,,,,,,
652630,001,2022-11-21_01h00.58.595,Info_measure_main_exp,2022.2.2,Win32,59.90893841,,,,,,,,,,,,,,,,,,masks/mask_002.jpg,0,3,3,1,1,,,,,,,,,,,,,,,,,,,,,,,,,,,,,,,,,,,,,,,,,,,,,,,,,,,,,,,,,,,,,,,,,,,,,,,,,,,,,,,,,,,,,,,,
652630,001,2022-11-21_01h00.58.595,Info_measure_main_exp,2022.2.2,Win32,59.90893841,,,,,,,,,,,,,,,,,,masks/mask_003.jpg,0,4,4,2,1,,,,,,,,,,,,,,,,,,,,,,,,,,,,,,,,,,,,,,,,,,,,,,,,,,,,,,,,,,,,,,,,,,,,,,,,,,,,,,,,,,,,,,,,
652630,001,2022-11-21_01h00.58.595,Info_measure_main_exp,2022.2.2,Win32,59.90893841,,,,,,,,,,,,,,,,,,,,,,,,-0.110999985,0.048999977,1,0,0,response7disk,1,101.9925,1,-0.000499954,0.002000008,1,0,0,center_square,0,2,2,2,1,0,131,5,5,2526,2526,prac_patch/patch0002526.jpg,prac_patch/patch0002526.jpg,,,,,,,,,,,,,,,,,,,,,,,,,,,,,,,,,,,,,,,,,,,,,,,,,,,,,,,,,,,,
652630,001,2022-11-21_01h00.58.595,Info_measure_main_exp,2022.2.2,Win32,59.90893841,,,,,,,,,,,,,,,,,,,,,,,,,,,,,,,,,,,,,,,,,,,,,,,,,,,,,,,,,,,space,2.9571,,,,,,,,,,,,,,,,,,,,,,,,,,,,,,,,,,,,,,,,,,,,,,,,,,,
652630,001,2022-11-21_01h00.58.595,Info_measure_main_exp,2022.2.2,Win32,59.90893841,,,,,,,,,,,,,,,,,,masks/mask_004.jpg,,,,,,,,,,,,,,,,,,,,,,,,,,,,,,,,,,,,,,,,,,,0,0,0,3,1,,,,,,,,,,,,,,,,,,,,,,,,,,,,,,,,,,,,,,,,,,,,,,
652630,001,2022-11-21_01h00.58.595,Info_measure_main_exp,2022.2.2,Win32,59.90893841,,,,,,,,,,,,,,,,,,masks/mask_001.jpg,,,,,,,,,,,,,,,,,,,,,,,,,,,,,,,,,,,,,,,,,,,0,1,1,0,1,,,,,,,,,,,,,,,,,,,,,,,,,,,,,,,,,,,,,,,,,,,,,,
652630,001,2022-11-21_01h00.58.595,Info_measure_main_exp,2022.2.2,Win32,59.90893841,,,,,,,,,,,,,,,,,,masks/mask_003.jpg,,,,,,,,,,,,,,,,,,,,,,,,,,,,,,,,,,,,,,,,,,,0,2,2,2,1,,,,,,,,,,,,,,,,,,,,,,,,,,,,,,,,,,,,,,,,,,,,,,
652630,001,2022-11-21_01h00.58.595,Info_measure_main_exp,2022.2.2,Win32,59.90893841,,,,,,,,,,,,,,,,,,masks/mask_005.jpg,,,,,,,,,,,,,,,,,,,,,,,,,,,,,,,,,,,,,,,,,,,0,3,3,4,1,,,,,,,,,,,,,,,,,,,,,,,,,,,,,,,,,,,,,,,,,,,,,,
652630,001,2022-11-21_01h00.58.595,Info_measure_main_exp,2022.2.2,Win32,59.90893841,,,,,,,,,,,,,,,,,,masks/mask_002.jpg,,,,,,,,,,,,,,,,,,,,,,,,,,,,,,,,,,,,,,,,,,,0,4,4,1,1,,,,,,,,,,,,,,,,,,,,,,,,,,,,,,,,,,,,,,,,,,,,,,
652630,001,2022-11-21_01h00.58.595,Info_measure_main_exp,2022.2.2,Win32,59.90893841,,,,,,,,,,,,,,,,,,masks/mask_002.jpg,,,,,,,,,,,,,,,,,,,,,,,,,,,,,,,,,,,,,,,,,,,,,,,,0,0,0,1,1,,,,,,,,,,,,,,,,,,,,,,,,,,,,,,,,,,,,,,,,,
652630,001,2022-11-21_01h00.58.595,Info_measure_main_exp,2022.2.2,Win32,59.90893841,,,,,,,,,,,,,,,,,,masks/mask_005.jpg,,,,,,,,,,,,,,,,,,,,,,,,,,,,,,,,,,,,,,,,,,,,,,,,0,1,1,4,1,,,,,,,,,,,,,,,,,,,,,,,,,,,,,,,,,,,,,,,,,
652630,001,2022-11-21_01h00.58.595,Info_measure_main_exp,2022.2.2,Win32,59.90893841,,,,,,,,,,,,,,,,,,masks/mask_001.jpg,,,,,,,,,,,,,,,,,,,,,,,,,,,,,,,,,,,,,,,,,,,,,,,,0,2,2,0,1,,,,,,,,,,,,,,,,,,,,,,,,,,,,,,,,,,,,,,,,,
652630,001,2022-11-21_01h00.58.595,Info_measure_main_exp,2022.2.2,Win32,59.90893841,,,,,,,,,,,,,,,,,,masks/mask_003.jpg,,,,,,,,,,,,,,,,,,,,,,,,,,,,,,,,,,,,,,,,,,,,,,,,0,3,3,2,1,,,,,,,,,,,,,,,,,,,,,,,,,,,,,,,,,,,,,,,,,
652630,001,2022-11-21_01h00.58.595,Info_measure_main_exp,2022.2.2,Win32,59.90893841,,,,,,,,,,,,,,,,,,masks/mask_004.jpg,,,,,,,,,,,,,,,,,,,,,,,,,,,,,,,,,,,,,,,,,,,,,,,,0,4,4,3,1,,,,,,,,,,,,,,,,,,,,,,,,,,,,,,,,,,,,,,,,,
652630,001,2022-11-21_01h00.58.595,Info_measure_main_exp,2022.2.2,Win32,59.90893841,,,,,,,,,,,,,,,,,,,,,,,,,,,,,,7,1.8844,1,,,,,,,,,,,,0,131,5,5,2082,2154,absent_patch/patch0002082.jpg,absent_patch/patch0002154.jpg,,,,,,,,,,,,,,,,,,,,0.0925,0.1675,1,0,0,response1disk,1,0.000999985,0.001499977,1,0,0,center_square,0,0,0,33,1,,,,,,,,,,,,,,,,,,,,,,,
652630,001,2022-11-21_01h00.58.595,Info_measure_main_exp,2022.2.2,Win32,59.90893841,,,,,,,,,,,,,,,,,,masks/mask_002.jpg,,,,,,,,,,,,,,,,,,,,,,,,,,,,,,,,,,,,,,,,,,,0,0,0,1,1,,,,,,,,,,,,,,,,,,,,,,,,,,,,,,,,,,,,,,,,,,,,,,
652630,001,2022-11-21_01h00.58.595,Info_measure_main_exp,2022.2.2,Win32,59.90893841,,,,,,,,,,,,,,,,,,masks/mask_003.jpg,,,,,,,,,,,,,,,,,,,,,,,,,,,,,,,,,,,,,,,,,,,0,1,1,2,1,,,,,,,,,,,,,,,,,,,,,,,,,,,,,,,,,,,,,,,,,,,,,,
652630,001,2022-11-21_01h00.58.595,Info_measure_main_exp,2022.2.2,Win32,59.90893841,,,,,,,,,,,,,,,,,,masks/mask_005.jpg,,,,,,,,,,,,,,,,,,,,,,,,,,,,,,,,,,,,,,,,,,,0,2,2,4,1,,,,,,,,,,,,,,,,,,,,,,,,,,,,,,,,,,,,,,,,,,,,,,
652630,001,2022-11-21_01h00.58.595,Info_measure_main_exp,2022.2.2,Win32,59.90893841,,,,,,,,,,,,,,,,,,masks/mask_001.jpg,,,,,,,,,,,,,,,,,,,,,,,,,,,,,,,,,,,,,,,,,,,0,3,3,0,1,,,,,,,,,,,,,,,,,,,,,,,,,,,,,,,,,,,,,,,,,,,,,,
652630,001,2022-11-21_01h00.58.595,Info_measure_main_exp,2022.2.2,Win32,59.90893841,,,,,,,,,,,,,,,,,,masks/mask_004.jpg,,,,,,,,,,,,,,,,,,,,,,,,,,,,,,,,,,,,,,,,,,,0,4,4,3,1,,,,,,,,,,,,,,,,,,,,,,,,,,,,,,,,,,,,,,,,,,,,,,
652630,001,2022-11-21_01h00.58.595,Info_measure_main_exp,2022.2.2,Win32,59.90893841,,,,,,,,,,,,,,,,,,masks/mask_004.jpg,,,,,,,,,,,,,,,,,,,,,,,,,,,,,,,,,,,,,,,,,,,,,,,,0,0,0,3,1,,,,,,,,,,,,,,,,,,,,,,,,,,,,,,,,,,,,,,,,,
652630,001,2022-11-21_01h00.58.595,Info_measure_main_exp,2022.2.2,Win32,59.90893841,,,,,,,,,,,,,,,,,,masks/mask_005.jpg,,,,,,,,,,,,,,,,,,,,,,,,,,,,,,,,,,,,,,,,,,,,,,,,0,1,1,4,1,,,,,,,,,,,,,,,,,,,,,,,,,,,,,,,,,,,,,,,,,
652630,001,2022-11-21_01h00.58.595,Info_measure_main_exp,2022.2.2,Win32,59.90893841,,,,,,,,,,,,,,,,,,masks/mask_001.jpg,,,,,,,,,,,,,,,,,,,,,,,,,,,,,,,,,,,,,,,,,,,,,,,,0,2,2,0,1,,,,,,,,,,,,,,,,,,,,,,,,,,,,,,,,,,,,,,,,,
652630,001,2022-11-21_01h00.58.595,Info_measure_main_exp,2022.2.2,Win32,59.90893841,,,,,,,,,,,,,,,,,,masks/mask_002.jpg,,,,,,,,,,,,,,,,,,,,,,,,,,,,,,,,,,,,,,,,,,,,,,,,0,3,3,1,1,,,,,,,,,,,,,,,,,,,,,,,,,,,,,,,,,,,,,,,,,
652630,001,2022-11-21_01h00.58.595,Info_measure_main_exp,2022.2.2,Win32,59.90893841,,,,,,,,,,,,,,,,,,masks/mask_003.jpg,,,,,,,,,,,,,,,,,,,,,,,,,,,,,,,,,,,,,,,,,,,,,,,,0,4,4,2,1,,,,,,,,,,,,,,,,,,,,,,,,,,,,,,,,,,,,,,,,,
652630,001,2022-11-21_01h00.58.595,Info_measure_main_exp,2022.2.2,Win32,59.90893841,,,,,,,,,,,,,,,,,,,,,,,,,,,,,,6,1.8233,1,,,,,,,,,,,,0,131,5,5,2082,2166,absent_patch/patch0002082.jpg,absent_patch/patch0002166.jpg,,,,,,,,,,,,,,,,,,,,0.110500031,0.032999992,1,0,0,response1disk,2,-0.004499969,0.0025,1,0,0,center_square,0,1,1,43,1,,,,,,,,,,,,,,,,,,,,,,,
652630,001,2022-11-21_01h00.58.595,Info_measure_main_exp,2022.2.2,Win32,59.90893841,,,,,,,,,,,,,,,,,,masks/mask_004.jpg,,,,,,,,,,,,,,,,,,,,,,,,,,,,,,,,,,,,,,,,,,,0,0,0,3,1,,,,,,,,,,,,,,,,,,,,,,,,,,,,,,,,,,,,,,,,,,,,,,
652630,001,2022-11-21_01h00.58.595,Info_measure_main_exp,2022.2.2,Win32,59.90893841,,,,,,,,,,,,,,,,,,masks/mask_005.jpg,,,,,,,,,,,,,,,,,,,,,,,,,,,,,,,,,,,,,,,,,,,0,1,1,4,1,,,,,,,,,,,,,,,,,,,,,,,,,,,,,,,,,,,,,,,,,,,,,,
652630,001,2022-11-21_01h00.58.595,Info_measure_main_exp,2022.2.2,Win32,59.90893841,,,,,,,,,,,,,,,,,,masks/mask_003.jpg,,,,,,,,,,,,,,,,,,,,,,,,,,,,,,,,,,,,,,,,,,,0,2,2,2,1,,,,,,,,,,,,,,,,,,,,,,,,,,,,,,,,,,,,,,,,,,,,,,
652630,001,2022-11-21_01h00.58.595,Info_measure_main_exp,2022.2.2,Win32,59.90893841,,,,,,,,,,,,,,,,,,masks/mask_001.jpg,,,,,,,,,,,,,,,,,,,,,,,,,,,,,,,,,,,,,,,,,,,0,3,3,0,1,,,,,,,,,,,,,,,,,,,,,,,,,,,,,,,,,,,,,,,,,,,,,,
652630,001,2022-11-21_01h00.58.595,Info_measure_main_exp,2022.2.2,Win32,59.90893841,,,,,,,,,,,,,,,,,,masks/mask_002.jpg,,,,,,,,,,,,,,,,,,,,,,,,,,,,,,,,,,,,,,,,,,,0,4,4,1,1,,,,,,,,,,,,,,,,,,,,,,,,,,,,,,,,,,,,,,,,,,,,,,
652630,001,2022-11-21_01h00.58.595,Info_measure_main_exp,2022.2.2,Win32,59.90893841,,,,,,,,,,,,,,,,,,masks/mask_001.jpg,,,,,,,,,,,,,,,,,,,,,,,,,,,,,,,,,,,,,,,,,,,,,,,,0,0,0,0,1,,,,,,,,,,,,,,,,,,,,,,,,,,,,,,,,,,,,,,,,,
652630,001,2022-11-21_01h00.58.595,Info_measure_main_exp,2022.2.2,Win32,59.90893841,,,,,,,,,,,,,,,,,,masks/mask_005.jpg,,,,,,,,,,,,,,,,,,,,,,,,,,,,,,,,,,,,,,,,,,,,,,,,0,1,1,4,1,,,,,,,,,,,,,,,,,,,,,,,,,,,,,,,,,,,,,,,,,
652630,001,2022-11-21_01h00.58.595,Info_measure_main_exp,2022.2.2,Win32,59.90893841,,,,,,,,,,,,,,,,,,masks/mask_003.jpg,,,,,,,,,,,,,,,,,,,,,,,,,,,,,,,,,,,,,,,,,,,,,,,,0,2,2,2,1,,,,,,,,,,,,,,,,,,,,,,,,,,,,,,,,,,,,,,,,,
652630,001,2022-11-21_01h00.58.595,Info_measure_main_exp,2022.2.2,Win32,59.90893841,,,,,,,,,,,,,,,,,,masks/mask_002.jpg,,,,,,,,,,,,,,,,,,,,,,,,,,,,,,,,,,,,,,,,,,,,,,,,0,3,3,1,1,,,,,,,,,,,,,,,,,,,,,,,,,,,,,,,,,,,,,,,,,
652630,001,2022-11-21_01h00.58.595,Info_measure_main_exp,2022.2.2,Win32,59.90893841,,,,,,,,,,,,,,,,,,masks/mask_004.jpg,,,,,,,,,,,,,,,,,,,,,,,,,,,,,,,,,,,,,,,,,,,,,,,,0,4,4,3,1,,,,,,,,,,,,,,,,,,,,,,,,,,,,,,,,,,,,,,,,,
652630,001,2022-11-21_01h00.58.595,Info_measure_main_exp,2022.2.2,Win32,59.90893841,,,,,,,,,,,,,,,,,,,,,,,,,,,,,,0,1.4176,1,,,,,,,,,,,,0,131,5,5,2190,2190,absent_patch/patch0002190.jpg,absent_patch/patch0002190.jpg,,,,,,,,,,,,,,,,,,,,-0.042999954,0.115999985,1,0,0,response7disk,3,0,-0.002999992,1,0,0,center_square,0,2,2,86,1,,,,,,,,,,,,,,,,,,,,,,,
652630,001,2022-11-21_01h00.58.595,Info_measure_main_exp,2022.2.2,Win32,59.90893841,,,,,,,,,,,,,,,,,,masks/mask_001.jpg,,,,,,,,,,,,,,,,,,,,,,,,,,,,,,,,,,,,,,,,,,,0,0,0,0,1,,,,,,,,,,,,,,,,,,,,,,,,,,,,,,,,,,,,,,,,,,,,,,
652630,001,2022-11-21_01h00.58.595,Info_measure_main_exp,2022.2.2,Win32,59.90893841,,,,,,,,,,,,,,,,,,masks/mask_003.jpg,,,,,,,,,,,,,,,,,,,,,,,,,,,,,,,,,,,,,,,,,,,0,1,1,2,1,,,,,,,,,,,,,,,,,,,,,,,,,,,,,,,,,,,,,,,,,,,,,,
652630,001,2022-11-21_01h00.58.595,Info_measure_main_exp,2022.2.2,Win32,59.90893841,,,,,,,,,,,,,,,,,,masks/mask_004.jpg,,,,,,,,,,,,,,,,,,,,,,,,,,,,,,,,,,,,,,,,,,,0,2,2,3,1,,,,,,,,,,,,,,,,,,,,,,,,,,,,,,,,,,,,,,,,,,,,,,
652630,001,2022-11-21_01h00.58.595,Info_measure_main_exp,2022.2.2,Win32,59.90893841,,,,,,,,,,,,,,,,,,masks/mask_005.jpg,,,,,,,,,,,,,,,,,,,,,,,,,,,,,,,,,,,,,,,,,,,0,3,3,4,1,,,,,,,,,,,,,,,,,,,,,,,,,,,,,,,,,,,,,,,,,,,,,,
652630,001,2022-11-21_01h00.58.595,Info_measure_main_exp,2022.2.2,Win32,59.90893841,,,,,,,,,,,,,,,,,,masks/mask_002.jpg,,,,,,,,,,,,,,,,,,,,,,,,,,,,,,,,,,,,,,,,,,,0,4,4,1,1,,,,,,,,,,,,,,,,,,,,,,,,,,,,,,,,,,,,,,,,,,,,,,
652630,001,2022-11-21_01h00.58.595,Info_measure_main_exp,2022.2.2,Win32,59.90893841,,,,,,,,,,,,,,,,,,masks/mask_005.jpg,,,,,,,,,,,,,,,,,,,,,,,,,,,,,,,,,,,,,,,,,,,,,,,,0,0,0,4,1,,,,,,,,,,,,,,,,,,,,,,,,,,,,,,,,,,,,,,,,,
652630,001,2022-11-21_01h00.58.595,Info_measure_main_exp,2022.2.2,Win32,59.90893841,,,,,,,,,,,,,,,,,,masks/mask_002.jpg,,,,,,,,,,,,,,,,,,,,,,,,,,,,,,,,,,,,,,,,,,,,,,,,0,1,1,1,1,,,,,,,,,,,,,,,,,,,,,,,,,,,,,,,,,,,,,,,,,
652630,001,2022-11-21_01h00.58.595,Info_measure_main_exp,2022.2.2,Win32,59.90893841,,,,,,,,,,,,,,,,,,masks/mask_003.jpg,,,,,,,,,,,,,,,,,,,,,,,,,,,,,,,,,,,,,,,,,,,,,,,,0,2,2,2,1,,,,,,,,,,,,,,,,,,,,,,,,,,,,,,,,,,,,,,,,,
652630,001,2022-11-21_01h00.58.595,Info_measure_main_exp,2022.2.2,Win32,59.90893841,,,,,,,,,,,,,,,,,,masks/mask_001.jpg,,,,,,,,,,,,,,,,,,,,,,,,,,,,,,,,,,,,,,,,,,,,,,,,0,3,3,0,1,,,,,,,,,,,,,,,,,,,,,,,,,,,,,,,,,,,,,,,,,
652630,001,2022-11-21_01h00.58.595,Info_measure_main_exp,2022.2.2,Win32,59.90893841,,,,,,,,,,,,,,,,,,masks/mask_004.jpg,,,,,,,,,,,,,,,,,,,,,,,,,,,,,,,,,,,,,,,,,,,,,,,,0,4,4,3,1,,,,,,,,,,,,,,,,,,,,,,,,,,,,,,,,,,,,,,,,,
652630,001,2022-11-21_01h00.58.595,Info_measure_main_exp,2022.2.2,Win32,59.90893841,,,,,,,,,,,,,,,,,,,,,,,,,,,,,,2,1.8485,1,,,,,,,,,,,,0,131,5,5,2298,2178,absent_patch/patch0002298.jpg,absent_patch/patch0002178.jpg,,,,,,,,,,,,,,,,,,,,-0.100999985,-0.026500015,1,0,0,response5disk,4,0.015500031,0.007000008,1,0,0,center_square,0,3,3,84,1,,,,,,,,,,,,,,,,,,,,,,,
652630,001,2022-11-21_01h00.58.595,Info_measure_main_exp,2022.2.2,Win32,59.90893841,,,,,,,,,,,,,,,,,,masks/mask_002.jpg,,,,,,,,,,,,,,,,,,,,,,,,,,,,,,,,,,,,,,,,,,,0,0,0,1,1,,,,,,,,,,,,,,,,,,,,,,,,,,,,,,,,,,,,,,,,,,,,,,
652630,001,2022-11-21_01h00.58.595,Info_measure_main_exp,2022.2.2,Win32,59.90893841,,,,,,,,,,,,,,,,,,masks/mask_005.jpg,,,,,,,,,,,,,,,,,,,,,,,,,,,,,,,,,,,,,,,,,,,0,1,1,4,1,,,,,,,,,,,,,,,,,,,,,,,,,,,,,,,,,,,,,,,,,,,,,,
652630,001,2022-11-21_01h00.58.595,Info_measure_main_exp,2022.2.2,Win32,59.90893841,,,,,,,,,,,,,,,,,,masks/mask_003.jpg,,,,,,,,,,,,,,,,,,,,,,,,,,,,,,,,,,,,,,,,,,,0,2,2,2,1,,,,,,,,,,,,,,,,,,,,,,,,,,,,,,,,,,,,,,,,,,,,,,
652630,001,2022-11-21_01h00.58.595,Info_measure_main_exp,2022.2.2,Win32,59.90893841,,,,,,,,,,,,,,,,,,masks/mask_001.jpg,,,,,,,,,,,,,,,,,,,,,,,,,,,,,,,,,,,,,,,,,,,0,3,3,0,1,,,,,,,,,,,,,,,,,,,,,,,,,,,,,,,,,,,,,,,,,,,,,,
652630,001,2022-11-21_01h00.58.595,Info_measure_main_exp,2022.2.2,Win32,59.90893841,,,,,,,,,,,,,,,,,,masks/mask_004.jpg,,,,,,,,,,,,,,,,,,,,,,,,,,,,,,,,,,,,,,,,,,,0,4,4,3,1,,,,,,,,,,,,,,,,,,,,,,,,,,,,,,,,,,,,,,,,,,,,,,
652630,001,2022-11-21_01h00.58.595,Info_measure_main_exp,2022.2.2,Win32,59.90893841,,,,,,,,,,,,,,,,,,masks/mask_005.jpg,,,,,,,,,,,,,,,,,,,,,,,,,,,,,,,,,,,,,,,,,,,,,,,,0,0,0,4,1,,,,,,,,,,,,,,,,,,,,,,,,,,,,,,,,,,,,,,,,,
652630,001,2022-11-21_01h00.58.595,Info_measure_main_exp,2022.2.2,Win32,59.90893841,,,,,,,,,,,,,,,,,,masks/mask_004.jpg,,,,,,,,,,,,,,,,,,,,,,,,,,,,,,,,,,,,,,,,,,,,,,,,0,1,1,3,1,,,,,,,,,,,,,,,,,,,,,,,,,,,,,,,,,,,,,,,,,
652630,001,2022-11-21_01h00.58.595,Info_measure_main_exp,2022.2.2,Win32,59.90893841,,,,,,,,,,,,,,,,,,masks/mask_001.jpg,,,,,,,,,,,,,,,,,,,,,,,,,,,,,,,,,,,,,,,,,,,,,,,,0,2,2,0,1,,,,,,,,,,,,,,,,,,,,,,,,,,,,,,,,,,,,,,,,,
652630,001,2022-11-21_01h00.58.595,Info_measure_main_exp,2022.2.2,Win32,59.90893841,,,,,,,,,,,,,,,,,,masks/mask_002.jpg,,,,,,,,,,,,,,,,,,,,,,,,,,,,,,,,,,,,,,,,,,,,,,,,0,3,3,1,1,,,,,,,,,,,,,,,,,,,,,,,,,,,,,,,,,,,,,,,,,
652630,001,2022-11-21_01h00.58.595,Info_measure_main_exp,2022.2.2,Win32,59.90893841,,,,,,,,,,,,,,,,,,masks/mask_003.jpg,,,,,,,,,,,,,,,,,,,,,,,,,,,,,,,,,,,,,,,,,,,,,,,,0,4,4,2,1,,,,,,,,,,,,,,,,,,,,,,,,,,,,,,,,,,,,,,,,,
652630,001,2022-11-21_01h00.58.595,Info_measure_main_exp,2022.2.2,Win32,59.90893841,,,,,,,,,,,,,,,,,,,,,,,,,,,,,,7,1.117,1,,,,,,,,,,,,0,131,5,5,2238,2214,absent_patch/patch0002238.jpg,absent_patch/patch0002214.jpg,,,,,,,,,,,,,,,,,,,,0.0275,0.108499985,1,0,0,response1disk,5,-0.001999969,-0.000499992,1,0,0,center_square,0,4,4,81,1,,,,,,,,,,,,,,,,,,,,,,,
652630,001,2022-11-21_01h00.58.595,Info_measure_main_exp,2022.2.2,Win32,59.90893841,,,,,,,,,,,,,,,,,,masks/mask_003.jpg,,,,,,,,,,,,,,,,,,,,,,,,,,,,,,,,,,,,,,,,,,,0,0,0,2,1,,,,,,,,,,,,,,,,,,,,,,,,,,,,,,,,,,,,,,,,,,,,,,
652630,001,2022-11-21_01h00.58.595,Info_measure_main_exp,2022.2.2,Win32,59.90893841,,,,,,,,,,,,,,,,,,masks/mask_005.jpg,,,,,,,,,,,,,,,,,,,,,,,,,,,,,,,,,,,,,,,,,,,0,1,1,4,1,,,,,,,,,,,,,,,,,,,,,,,,,,,,,,,,,,,,,,,,,,,,,,
652630,001,2022-11-21_01h00.58.595,Info_measure_main_exp,2022.2.2,Win32,59.90893841,,,,,,,,,,,,,,,,,,masks/mask_001.jpg,,,,,,,,,,,,,,,,,,,,,,,,,,,,,,,,,,,,,,,,,,,0,2,2,0,1,,,,,,,,,,,,,,,,,,,,,,,,,,,,,,,,,,,,,,,,,,,,,,
652630,001,2022-11-21_01h00.58.595,Info_measure_main_exp,2022.2.2,Win32,59.90893841,,,,,,,,,,,,,,,,,,masks/mask_002.jpg,,,,,,,,,,,,,,,,,,,,,,,,,,,,,,,,,,,,,,,,,,,0,3,3,1,1,,,,,,,,,,,,,,,,,,,,,,,,,,,,,,,,,,,,,,,,,,,,,,
652630,001,2022-11-21_01h00.58.595,Info_measure_main_exp,2022.2.2,Win32,59.90893841,,,,,,,,,,,,,,,,,,masks/mask_004.jpg,,,,,,,,,,,,,,,,,,,,,,,,,,,,,,,,,,,,,,,,,,,0,4,4,3,1,,,,,,,,,,,,,,,,,,,,,,,,,,,,,,,,,,,,,,,,,,,,,,
652630,001,2022-11-21_01h00.58.595,Info_measure_main_exp,2022.2.2,Win32,59.90893841,,,,,,,,,,,,,,,,,,masks/mask_005.jpg,,,,,,,,,,,,,,,,,,,,,,,,,,,,,,,,,,,,,,,,,,,,,,,,0,0,0,4,1,,,,,,,,,,,,,,,,,,,,,,,,,,,,,,,,,,,,,,,,,
652630,001,2022-11-21_01h00.58.595,Info_measure_main_exp,2022.2.2,Win32,59.90893841,,,,,,,,,,,,,,,,,,masks/mask_001.jpg,,,,,,,,,,,,,,,,,,,,,,,,,,,,,,,,,,,,,,,,,,,,,,,,0,1,1,0,1,,,,,,,,,,,,,,,,,,,,,,,,,,,,,,,,,,,,,,,,,
652630,001,2022-11-21_01h00.58.595,Info_measure_main_exp,2022.2.2,Win32,59.90893841,,,,,,,,,,,,,,,,,,masks/mask_004.jpg,,,,,,,,,,,,,,,,,,,,,,,,,,,,,,,,,,,,,,,,,,,,,,,,0,2,2,3,1,,,,,,,,,,,,,,,,,,,,,,,,,,,,,,,,,,,,,,,,,
652630,001,2022-11-21_01h00.58.595,Info_measure_main_exp,2022.2.2,Win32,59.90893841,,,,,,,,,,,,,,,,,,masks/mask_003.jpg,,,,,,,,,,,,,,,,,,,,,,,,,,,,,,,,,,,,,,,,,,,,,,,,0,3,3,2,1,,,,,,,,,,,,,,,,,,,,,,,,,,,,,,,,,,,,,,,,,
652630,001,2022-11-21_01h00.58.595,Info_measure_main_exp,2022.2.2,Win32,59.90893841,,,,,,,,,,,,,,,,,,masks/mask_002.jpg,,,,,,,,,,,,,,,,,,,,,,,,,,,,,,,,,,,,,,,,,,,,,,,,0,4,4,1,1,,,,,,,,,,,,,,,,,,,,,,,,,,,,,,,,,,,,,,,,,
652630,001,2022-11-21_01h00.58.595,Info_measure_main_exp,2022.2.2,Win32,59.90893841,,,,,,,,,,,,,,,,,,,,,,,,,,,,,,5,1.3644,1,,,,,,,,,,,,0,131,5,5,1974,2250,absent_patch/patch0001974.jpg,absent_patch/patch0002250.jpg,,,,,,,,,,,,,,,,,,,,0.075500031,-0.042999992,1,0,0,response3disk,6,-0.006999969,0.0075,1,0,0,center_square,0,5,5,55,1,,,,,,,,,,,,,,,,,,,,,,,
652630,001,2022-11-21_01h00.58.595,Info_measure_main_exp,2022.2.2,Win32,59.90893841,,,,,,,,,,,,,,,,,,masks/mask_002.jpg,,,,,,,,,,,,,,,,,,,,,,,,,,,,,,,,,,,,,,,,,,,0,0,0,1,1,,,,,,,,,,,,,,,,,,,,,,,,,,,,,,,,,,,,,,,,,,,,,,
652630,001,2022-11-21_01h00.58.595,Info_measure_main_exp,2022.2.2,Win32,59.90893841,,,,,,,,,,,,,,,,,,masks/mask_003.jpg,,,,,,,,,,,,,,,,,,,,,,,,,,,,,,,,,,,,,,,,,,,0,1,1,2,1,,,,,,,,,,,,,,,,,,,,,,,,,,,,,,,,,,,,,,,,,,,,,,
652630,001,2022-11-21_01h00.58.595,Info_measure_main_exp,2022.2.2,Win32,59.90893841,,,,,,,,,,,,,,,,,,masks/mask_001.jpg,,,,,,,,,,,,,,,,,,,,,,,,,,,,,,,,,,,,,,,,,,,0,2,2,0,1,,,,,,,,,,,,,,,,,,,,,,,,,,,,,,,,,,,,,,,,,,,,,,
652630,001,2022-11-21_01h00.58.595,Info_measure_main_exp,2022.2.2,Win32,59.90893841,,,,,,,,,,,,,,,,,,masks/mask_005.jpg,,,,,,,,,,,,,,,,,,,,,,,,,,,,,,,,,,,,,,,,,,,0,3,3,4,1,,,,,,,,,,,,,,,,,,,,,,,,,,,,,,,,,,,,,,,,,,,,,,
652630,001,2022-11-21_01h00.58.595,Info_measure_main_exp,2022.2.2,Win32,59.90893841,,,,,,,,,,,,,,,,,,masks/mask_004.jpg,,,,,,,,,,,,,,,,,,,,,,,,,,,,,,,,,,,,,,,,,,,0,4,4,3,1,,,,,,,,,,,,,,,,,,,,,,,,,,,,,,,,,,,,,,,,,,,,,,
652630,001,2022-11-21_01h00.58.595,Info_measure_main_exp,2022.2.2,Win32,59.90893841,,,,,,,,,,,,,,,,,,masks/mask_003.jpg,,,,,,,,,,,,,,,,,,,,,,,,,,,,,,,,,,,,,,,,,,,,,,,,0,0,0,2,1,,,,,,,,,,,,,,,,,,,,,,,,,,,,,,,,,,,,,,,,,
652630,001,2022-11-21_01h00.58.595,Info_measure_main_exp,2022.2.2,Win32,59.90893841,,,,,,,,,,,,,,,,,,masks/mask_002.jpg,,,,,,,,,,,,,,,,,,,,,,,,,,,,,,,,,,,,,,,,,,,,,,,,0,1,1,1,1,,,,,,,,,,,,,,,,,,,,,,,,,,,,,,,,,,,,,,,,,
652630,001,2022-11-21_01h00.58.595,Info_measure_main_exp,2022.2.2,Win32,59.90893841,,,,,,,,,,,,,,,,,,masks/mask_005.jpg,,,,,,,,,,,,,,,,,,,,,,,,,,,,,,,,,,,,,,,,,,,,,,,,0,2,2,4,1,,,,,,,,,,,,,,,,,,,,,,,,,,,,,,,,,,,,,,,,,
652630,001,2022-11-21_01h00.58.595,Info_measure_main_exp,2022.2.2,Win32,59.90893841,,,,,,,,,,,,,,,,,,masks/mask_004.jpg,,,,,,,,,,,,,,,,,,,,,,,,,,,,,,,,,,,,,,,,,,,,,,,,0,3,3,3,1,,,,,,,,,,,,,,,,,,,,,,,,,,,,,,,,,,,,,,,,,
652630,001,2022-11-21_01h00.58.595,Info_measure_main_exp,2022.2.2,Win32,59.90893841,,,,,,,,,,,,,,,,,,masks/mask_001.jpg,,,,,,,,,,,,,,,,,,,,,,,,,,,,,,,,,,,,,,,,,,,,,,,,0,4,4,0,1,,,,,,,,,,,,,,,,,,,,,,,,,,,,,,,,,,,,,,,,,
652630,001,2022-11-21_01h00.58.595,Info_measure_main_exp,2022.2.2,Win32,59.90893841,,,,,,,,,,,,,,,,,,,,,,,,,,,,,,7,0.9998,1,,,,,,,,,,,,0,131,5,5,1986,1950,absent_patch/patch0001986.jpg,absent_patch/patch0001950.jpg,,,,,,,,,,,,,,,,,,,,0.0275,0.080999985,1,0,0,response1disk,7,0.003000031,0.001499977,1,0,0,center_square,0,6,6,15,1,,,,,,,,,,,,,,,,,,,,,,,
652630,001,2022-11-21_01h00.58.595,Info_measure_main_exp,2022.2.2,Win32,59.90893841,,,,,,,,,,,,,,,,,,masks/mask_003.jpg,,,,,,,,,,,,,,,,,,,,,,,,,,,,,,,,,,,,,,,,,,,0,0,0,2,1,,,,,,,,,,,,,,,,,,,,,,,,,,,,,,,,,,,,,,,,,,,,,,
652630,001,2022-11-21_01h00.58.595,Info_measure_main_exp,2022.2.2,Win32,59.90893841,,,,,,,,,,,,,,,,,,masks/mask_004.jpg,,,,,,,,,,,,,,,,,,,,,,,,,,,,,,,,,,,,,,,,,,,0,1,1,3,1,,,,,,,,,,,,,,,,,,,,,,,,,,,,,,,,,,,,,,,,,,,,,,
652630,001,2022-11-21_01h00.58.595,Info_measure_main_exp,2022.2.2,Win32,59.90893841,,,,,,,,,,,,,,,,,,masks/mask_002.jpg,,,,,,,,,,,,,,,,,,,,,,,,,,,,,,,,,,,,,,,,,,,0,2,2,1,1,,,,,,,,,,,,,,,,,,,,,,,,,,,,,,,,,,,,,,,,,,,,,,
652630,001,2022-11-21_01h00.58.595,Info_measure_main_exp,2022.2.2,Win32,59.90893841,,,,,,,,,,,,,,,,,,masks/mask_005.jpg,,,,,,,,,,,,,,,,,,,,,,,,,,,,,,,,,,,,,,,,,,,0,3,3,4,1,,,,,,,,,,,,,,,,,,,,,,,,,,,,,,,,,,,,,,,,,,,,,,
652630,001,2022-11-21_01h00.58.595,Info_measure_main_exp,2022.2.2,Win32,59.90893841,,,,,,,,,,,,,,,,,,masks/mask_001.jpg,,,,,,,,,,,,,,,,,,,,,,,,,,,,,,,,,,,,,,,,,,,0,4,4,0,1,,,,,,,,,,,,,,,,,,,,,,,,,,,,,,,,,,,,,,,,,,,,,,
652630,001,2022-11-21_01h00.58.595,Info_measure_main_exp,2022.2.2,Win32,59.90893841,,,,,,,,,,,,,,,,,,masks/mask_003.jpg,,,,,,,,,,,,,,,,,,,,,,,,,,,,,,,,,,,,,,,,,,,,,,,,0,0,0,2,1,,,,,,,,,,,,,,,,,,,,,,,,,,,,,,,,,,,,,,,,,
652630,001,2022-11-21_01h00.58.595,Info_measure_main_exp,2022.2.2,Win32,59.90893841,,,,,,,,,,,,,,,,,,masks/mask_001.jpg,,,,,,,,,,,,,,,,,,,,,,,,,,,,,,,,,,,,,,,,,,,,,,,,0,1,1,0,1,,,,,,,,,,,,,,,,,,,,,,,,,,,,,,,,,,,,,,,,,
652630,001,2022-11-21_01h00.58.595,Info_measure_main_exp,2022.2.2,Win32,59.90893841,,,,,,,,,,,,,,,,,,masks/mask_004.jpg,,,,,,,,,,,,,,,,,,,,,,,,,,,,,,,,,,,,,,,,,,,,,,,,0,2,2,3,1,,,,,,,,,,,,,,,,,,,,,,,,,,,,,,,,,,,,,,,,,
652630,001,2022-11-21_01h00.58.595,Info_measure_main_exp,2022.2.2,Win32,59.90893841,,,,,,,,,,,,,,,,,,masks/mask_002.jpg,,,,,,,,,,,,,,,,,,,,,,,,,,,,,,,,,,,,,,,,,,,,,,,,0,3,3,1,1,,,,,,,,,,,,,,,,,,,,,,,,,,,,,,,,,,,,,,,,,
652630,001,2022-11-21_01h00.58.595,Info_measure_main_exp,2022.2.2,Win32,59.90893841,,,,,,,,,,,,,,,,,,masks/mask_005.jpg,,,,,,,,,,,,,,,,,,,,,,,,,,,,,,,,,,,,,,,,,,,,,,,,0,4,4,4,1,,,,,,,,,,,,,,,,,,,,,,,,,,,,,,,,,,,,,,,,,
652630,001,2022-11-21_01h00.58.595,Info_measure_main_exp,2022.2.2,Win32,59.90893841,,,,,,,,,,,,,,,,,,,,,,,,,,,,,,0,0.7641,1,,,,,,,,,,,,0,131,5,5,2142,2142,absent_patch/patch0002142.jpg,absent_patch/patch0002142.jpg,,,,,,,,,,,,,,,,,,,,-0.041999969,0.121499977,1,0,0,response7disk,8,-0.005999985,0.0025,1,0,0,center_square,0,7,7,13,1,,,,,,,,,,,,,,,,,,,,,,,
652630,001,2022-11-21_01h00.58.595,Info_measure_main_exp,2022.2.2,Win32,59.90893841,,,,,,,,,,,,,,,,,,masks/mask_001.jpg,,,,,,,,,,,,,,,,,,,,,,,,,,,,,,,,,,,,,,,,,,,0,0,0,0,1,,,,,,,,,,,,,,,,,,,,,,,,,,,,,,,,,,,,,,,,,,,,,,
652630,001,2022-11-21_01h00.58.595,Info_measure_main_exp,2022.2.2,Win32,59.90893841,,,,,,,,,,,,,,,,,,masks/mask_003.jpg,,,,,,,,,,,,,,,,,,,,,,,,,,,,,,,,,,,,,,,,,,,0,1,1,2,1,,,,,,,,,,,,,,,,,,,,,,,,,,,,,,,,,,,,,,,,,,,,,,
652630,001,2022-11-21_01h00.58.595,Info_measure_main_exp,2022.2.2,Win32,59.90893841,,,,,,,,,,,,,,,,,,masks/mask_004.jpg,,,,,,,,,,,,,,,,,,,,,,,,,,,,,,,,,,,,,,,,,,,0,2,2,3,1,,,,,,,,,,,,,,,,,,,,,,,,,,,,,,,,,,,,,,,,,,,,,,
652630,001,2022-11-21_01h00.58.595,Info_measure_main_exp,2022.2.2,Win32,59.90893841,,,,,,,,,,,,,,,,,,masks/mask_002.jpg,,,,,,,,,,,,,,,,,,,,,,,,,,,,,,,,,,,,,,,,,,,0,3,3,1,1,,,,,,,,,,,,,,,,,,,,,,,,,,,,,,,,,,,,,,,,,,,,,,
652630,001,2022-11-21_01h00.58.595,Info_measure_main_exp,2022.2.2,Win32,59.90893841,,,,,,,,,,,,,,,,,,masks/mask_005.jpg,,,,,,,,,,,,,,,,,,,,,,,,,,,,,,,,,,,,,,,,,,,0,4,4,4,1,,,,,,,,,,,,,,,,,,,,,,,,,,,,,,,,,,,,,,,,,,,,,,
652630,001,2022-11-21_01h00.58.595,Info_measure_main_exp,2022.2.2,Win32,59.90893841,,,,,,,,,,,,,,,,,,masks/mask_002.jpg,,,,,,,,,,,,,,,,,,,,,,,,,,,,,,,,,,,,,,,,,,,,,,,,0,0,0,1,1,,,,,,,,,,,,,,,,,,,,,,,,,,,,,,,,,,,,,,,,,
652630,001,2022-11-21_01h00.58.595,Info_measure_main_exp,2022.2.2,Win32,59.90893841,,,,,,,,,,,,,,,,,,masks/mask_004.jpg,,,,,,,,,,,,,,,,,,,,,,,,,,,,,,,,,,,,,,,,,,,,,,,,0,1,1,3,1,,,,,,,,,,,,,,,,,,,,,,,,,,,,,,,,,,,,,,,,,
652630,001,2022-11-21_01h00.58.595,Info_measure_main_exp,2022.2.2,Win32,59.90893841,,,,,,,,,,,,,,,,,,masks/mask_003.jpg,,,,,,,,,,,,,,,,,,,,,,,,,,,,,,,,,,,,,,,,,,,,,,,,0,2,2,2,1,,,,,,,,,,,,,,,,,,,,,,,,,,,,,,,,,,,,,,,,,
652630,001,2022-11-21_01h00.58.595,Info_measure_main_exp,2022.2.2,Win32,59.90893841,,,,,,,,,,,,,,,,,,masks/mask_001.jpg,,,,,,,,,,,,,,,,,,,,,,,,,,,,,,,,,,,,,,,,,,,,,,,,0,3,3,0,1,,,,,,,,,,,,,,,,,,,,,,,,,,,,,,,,,,,,,,,,,
652630,001,2022-11-21_01h00.58.595,Info_measure_main_exp,2022.2.2,Win32,59.90893841,,,,,,,,,,,,,,,,,,masks/mask_005.jpg,,,,,,,,,,,,,,,,,,,,,,,,,,,,,,,,,,,,,,,,,,,,,,,,0,4,4,4,1,,,,,,,,,,,,,,,,,,,,,,,,,,,,,,,,,,,,,,,,,
652630,001,2022-11-21_01h00.58.595,Info_measure_main_exp,2022.2.2,Win32,59.90893841,,,,,,,,,,,,,,,,,,,,,,,,,,,,,,3,1.5006,1,,,,,,,,,,,,1,131,5,5,2250,1,absent_patch/patch0002250.jpg,present_patch/cong_131_5_a.jpg,,,,,,,,,,,,,,,,,,,,-0.050999985,-0.055499992,1,0,0,response5disk,9,-0.000999985,0.012999992,1,0,0,center_square,0,8,8,5,1,,,,,,,,,,,,,,,,,,,,,,,
652630,001,2022-11-21_01h00.58.595,Info_measure_main_exp,2022.2.2,Win32,59.90893841,,,,,,,,,,,,,,,,,,masks/mask_002.jpg,,,,,,,,,,,,,,,,,,,,,,,,,,,,,,,,,,,,,,,,,,,0,0,0,1,1,,,,,,,,,,,,,,,,,,,,,,,,,,,,,,,,,,,,,,,,,,,,,,
652630,001,2022-11-21_01h00.58.595,Info_measure_main_exp,2022.2.2,Win32,59.90893841,,,,,,,,,,,,,,,,,,masks/mask_001.jpg,,,,,,,,,,,,,,,,,,,,,,,,,,,,,,,,,,,,,,,,,,,0,1,1,0,1,,,,,,,,,,,,,,,,,,,,,,,,,,,,,,,,,,,,,,,,,,,,,,
652630,001,2022-11-21_01h00.58.595,Info_measure_main_exp,2022.2.2,Win32,59.90893841,,,,,,,,,,,,,,,,,,masks/mask_003.jpg,,,,,,,,,,,,,,,,,,,,,,,,,,,,,,,,,,,,,,,,,,,0,2,2,2,1,,,,,,,,,,,,,,,,,,,,,,,,,,,,,,,,,,,,,,,,,,,,,,
652630,001,2022-11-21_01h00.58.595,Info_measure_main_exp,2022.2.2,Win32,59.90893841,,,,,,,,,,,,,,,,,,masks/mask_005.jpg,,,,,,,,,,,,,,,,,,,,,,,,,,,,,,,,,,,,,,,,,,,0,3,3,4,1,,,,,,,,,,,,,,,,,,,,,,,,,,,,,,,,,,,,,,,,,,,,,,
652630,001,2022-11-21_01h00.58.595,Info_measure_main_exp,2022.2.2,Win32,59.90893841,,,,,,,,,,,,,,,,,,masks/mask_004.jpg,,,,,,,,,,,,,,,,,,,,,,,,,,,,,,,,,,,,,,,,,,,0,4,4,3,1,,,,,,,,,,,,,,,,,,,,,,,,,,,,,,,,,,,,,,,,,,,,,,
652630,001,2022-11-21_01h00.58.595,Info_measure_main_exp,2022.2.2,Win32,59.90893841,,,,,,,,,,,,,,,,,,masks/mask_005.jpg,,,,,,,,,,,,,,,,,,,,,,,,,,,,,,,,,,,,,,,,,,,,,,,,0,0,0,4,1,,,,,,,,,,,,,,,,,,,,,,,,,,,,,,,,,,,,,,,,,
652630,001,2022-11-21_01h00.58.595,Info_measure_main_exp,2022.2.2,Win32,59.90893841,,,,,,,,,,,,,,,,,,masks/mask_003.jpg,,,,,,,,,,,,,,,,,,,,,,,,,,,,,,,,,,,,,,,,,,,,,,,,0,1,1,2,1,,,,,,,,,,,,,,,,,,,,,,,,,,,,,,,,,,,,,,,,,
652630,001,2022-11-21_01h00.58.595,Info_measure_main_exp,2022.2.2,Win32,59.90893841,,,,,,,,,,,,,,,,,,masks/mask_004.jpg,,,,,,,,,,,,,,,,,,,,,,,,,,,,,,,,,,,,,,,,,,,,,,,,0,2,2,3,1,,,,,,,,,,,,,,,,,,,,,,,,,,,,,,,,,,,,,,,,,
652630,001,2022-11-21_01h00.58.595,Info_measure_main_exp,2022.2.2,Win32,59.90893841,,,,,,,,,,,,,,,,,,masks/mask_001.jpg,,,,,,,,,,,,,,,,,,,,,,,,,,,,,,,,,,,,,,,,,,,,,,,,0,3,3,0,1,,,,,,,,,,,,,,,,,,,,,,,,,,,,,,,,,,,,,,,,,
652630,001,2022-11-21_01h00.58.595,Info_measure_main_exp,2022.2.2,Win32,59.90893841,,,,,,,,,,,,,,,,,,masks/mask_002.jpg,,,,,,,,,,,,,,,,,,,,,,,,,,,,,,,,,,,,,,,,,,,,,,,,0,4,4,1,1,,,,,,,,,,,,,,,,,,,,,,,,,,,,,,,,,,,,,,,,,
652630,001,2022-11-21_01h00.58.595,Info_measure_main_exp,2022.2.2,Win32,59.90893841,,,,,,,,,,,,,,,,,,,,,,,,,,,,,,7,1.364,1,,,,,,,,,,,,1,131,5,5,2190,1,absent_patch/patch0002190.jpg,present_patch/cong_131_5_a.jpg,,,,,,,,,,,,,,,,,,,,0.066500015,0.101499977,1,0,0,response1disk,10,0.002000046,-0.003500023,1,0,0,center_square,0,9,9,64,1,,,,,,,,,,,,,,,,,,,,,,,
652630,001,2022-11-21_01h00.58.595,Info_measure_main_exp,2022.2.2,Win32,59.90893841,,,,,,,,,,,,,,,,,,masks/mask_005.jpg,,,,,,,,,,,,,,,,,,,,,,,,,,,,,,,,,,,,,,,,,,,0,0,0,4,1,,,,,,,,,,,,,,,,,,,,,,,,,,,,,,,,,,,,,,,,,,,,,,
652630,001,2022-11-21_01h00.58.595,Info_measure_main_exp,2022.2.2,Win32,59.90893841,,,,,,,,,,,,,,,,,,masks/mask_003.jpg,,,,,,,,,,,,,,,,,,,,,,,,,,,,,,,,,,,,,,,,,,,0,1,1,2,1,,,,,,,,,,,,,,,,,,,,,,,,,,,,,,,,,,,,,,,,,,,,,,
652630,001,2022-11-21_01h00.58.595,Info_measure_main_exp,2022.2.2,Win32,59.90893841,,,,,,,,,,,,,,,,,,masks/mask_001.jpg,,,,,,,,,,,,,,,,,,,,,,,,,,,,,,,,,,,,,,,,,,,0,2,2,0,1,,,,,,,,,,,,,,,,,,,,,,,,,,,,,,,,,,,,,,,,,,,,,,
652630,001,2022-11-21_01h00.58.595,Info_measure_main_exp,2022.2.2,Win32,59.90893841,,,,,,,,,,,,,,,,,,masks/mask_004.jpg,,,,,,,,,,,,,,,,,,,,,,,,,,,,,,,,,,,,,,,,,,,0,3,3,3,1,,,,,,,,,,,,,,,,,,,,,,,,,,,,,,,,,,,,,,,,,,,,,,
652630,001,2022-11-21_01h00.58.595,Info_measure_main_exp,2022.2.2,Win32,59.90893841,,,,,,,,,,,,,,,,,,masks/mask_002.jpg,,,,,,,,,,,,,,,,,,,,,,,,,,,,,,,,,,,,,,,,,,,0,4,4,1,1,,,,,,,,,,,,,,,,,,,,,,,,,,,,,,,,,,,,,,,,,,,,,,
652630,001,2022-11-21_01h00.58.595,Info_measure_main_exp,2022.2.2,Win32,59.90893841,,,,,,,,,,,,,,,,,,masks/mask_004.jpg,,,,,,,,,,,,,,,,,,,,,,,,,,,,,,,,,,,,,,,,,,,,,,,,0,0,0,3,1,,,,,,,,,,,,,,,,,,,,,,,,,,,,,,,,,,,,,,,,,
652630,001,2022-11-21_01h00.58.595,Info_measure_main_exp,2022.2.2,Win32,59.90893841,,,,,,,,,,,,,,,,,,masks/mask_002.jpg,,,,,,,,,,,,,,,,,,,,,,,,,,,,,,,,,,,,,,,,,,,,,,,,0,1,1,1,1,,,,,,,,,,,,,,,,,,,,,,,,,,,,,,,,,,,,,,,,,
652630,001,2022-11-21_01h00.58.595,Info_measure_main_exp,2022.2.2,Win32,59.90893841,,,,,,,,,,,,,,,,,,masks/mask_001.jpg,,,,,,,,,,,,,,,,,,,,,,,,,,,,,,,,,,,,,,,,,,,,,,,,0,2,2,0,1,,,,,,,,,,,,,,,,,,,,,,,,,,,,,,,,,,,,,,,,,
652630,001,2022-11-21_01h00.58.595,Info_measure_main_exp,2022.2.2,Win32,59.90893841,,,,,,,,,,,,,,,,,,masks/mask_005.jpg,,,,,,,,,,,,,,,,,,,,,,,,,,,,,,,,,,,,,,,,,,,,,,,,0,3,3,4,1,,,,,,,,,,,,,,,,,,,,,,,,,,,,,,,,,,,,,,,,,
652630,001,2022-11-21_01h00.58.595,Info_measure_main_exp,2022.2.2,Win32,59.90893841,,,,,,,,,,,,,,,,,,masks/mask_003.jpg,,,,,,,,,,,,,,,,,,,,,,,,,,,,,,,,,,,,,,,,,,,,,,,,0,4,4,2,1,,,,,,,,,,,,,,,,,,,,,,,,,,,,,,,,,,,,,,,,,
652630,001,2022-11-21_01h00.58.595,Info_measure_main_exp,2022.2.2,Win32,59.90893841,,,,,,,,,,,,,,,,,,,,,,,,,,,,,,6,1.3466,1,,,,,,,,,,,,0,131,5,5,2214,2178,absent_patch/patch0002214.jpg,absent_patch/patch0002178.jpg,,,,,,,,,,,,,,,,,,,,0.126500015,0.033999977,1,0,0,response1disk,11,-0.001500015,0.002999992,1,0,0,center_square,0,10,10,62,1,,,,,,,,,,,,,,,,,,,,,,,
652630,001,2022-11-21_01h00.58.595,Info_measure_main_exp,2022.2.2,Win32,59.90893841,,,,,,,,,,,,,,,,,,masks/mask_001.jpg,,,,,,,,,,,,,,,,,,,,,,,,,,,,,,,,,,,,,,,,,,,0,0,0,0,1,,,,,,,,,,,,,,,,,,,,,,,,,,,,,,,,,,,,,,,,,,,,,,
652630,001,2022-11-21_01h00.58.595,Info_measure_main_exp,2022.2.2,Win32,59.90893841,,,,,,,,,,,,,,,,,,masks/mask_004.jpg,,,,,,,,,,,,,,,,,,,,,,,,,,,,,,,,,,,,,,,,,,,0,1,1,3,1,,,,,,,,,,,,,,,,,,,,,,,,,,,,,,,,,,,,,,,,,,,,,,
652630,001,2022-11-21_01h00.58.595,Info_measure_main_exp,2022.2.2,Win32,59.90893841,,,,,,,,,,,,,,,,,,masks/mask_005.jpg,,,,,,,,,,,,,,,,,,,,,,,,,,,,,,,,,,,,,,,,,,,0,2,2,4,1,,,,,,,,,,,,,,,,,,,,,,,,,,,,,,,,,,,,,,,,,,,,,,
652630,001,2022-11-21_01h00.58.595,Info_measure_main_exp,2022.2.2,Win32,59.90893841,,,,,,,,,,,,,,,,,,masks/mask_003.jpg,,,,,,,,,,,,,,,,,,,,,,,,,,,,,,,,,,,,,,,,,,,0,3,3,2,1,,,,,,,,,,,,,,,,,,,,,,,,,,,,,,,,,,,,,,,,,,,,,,
652630,001,2022-11-21_01h00.58.595,Info_measure_main_exp,2022.2.2,Win32,59.90893841,,,,,,,,,,,,,,,,,,masks/mask_002.jpg,,,,,,,,,,,,,,,,,,,,,,,,,,,,,,,,,,,,,,,,,,,0,4,4,1,1,,,,,,,,,,,,,,,,,,,,,,,,,,,,,,,,,,,,,,,,,,,,,,
652630,001,2022-11-21_01h00.58.595,Info_measure_main_exp,2022.2.2,Win32,59.90893841,,,,,,,,,,,,,,,,,,masks/mask_001.jpg,,,,,,,,,,,,,,,,,,,,,,,,,,,,,,,,,,,,,,,,,,,,,,,,0,0,0,0,1,,,,,,,,,,,,,,,,,,,,,,,,,,,,,,,,,,,,,,,,,
652630,001,2022-11-21_01h00.58.595,Info_measure_main_exp,2022.2.2,Win32,59.90893841,,,,,,,,,,,,,,,,,,masks/mask_003.jpg,,,,,,,,,,,,,,,,,,,,,,,,,,,,,,,,,,,,,,,,,,,,,,,,0,1,1,2,1,,,,,,,,,,,,,,,,,,,,,,,,,,,,,,,,,,,,,,,,,
652630,001,2022-11-21_01h00.58.595,Info_measure_main_exp,2022.2.2,Win32,59.90893841,,,,,,,,,,,,,,,,,,masks/mask_004.jpg,,,,,,,,,,,,,,,,,,,,,,,,,,,,,,,,,,,,,,,,,,,,,,,,0,2,2,3,1,,,,,,,,,,,,,,,,,,,,,,,,,,,,,,,,,,,,,,,,,
652630,001,2022-11-21_01h00.58.595,Info_measure_main_exp,2022.2.2,Win32,59.90893841,,,,,,,,,,,,,,,,,,masks/mask_005.jpg,,,,,,,,,,,,,,,,,,,,,,,,,,,,,,,,,,,,,,,,,,,,,,,,0,3,3,4,1,,,,,,,,,,,,,,,,,,,,,,,,,,,,,,,,,,,,,,,,,
652630,001,2022-11-21_01h00.58.595,Info_measure_main_exp,2022.2.2,Win32,59.90893841,,,,,,,,,,,,,,,,,,masks/mask_002.jpg,,,,,,,,,,,,,,,,,,,,,,,,,,,,,,,,,,,,,,,,,,,,,,,,0,4,4,1,1,,,,,,,,,,,,,,,,,,,,,,,,,,,,,,,,,,,,,,,,,
652630,001,2022-11-21_01h00.58.595,Info_measure_main_exp,2022.2.2,Win32,59.90893841,,,,,,,,,,,,,,,,,,,,,,,,,,,,,,5,1.0337,1,,,,,,,,,,,,0,131,5,5,1974,2298,absent_patch/patch0001974.jpg,absent_patch/patch0002298.jpg,,,,,,,,,,,,,,,,,,,,0.105999985,-0.072000008,1,0,0,response3disk,12,-0.011500015,0.003999977,1,0,0,center_square,0,11,11,6,1,,,,,,,,,,,,,,,,,,,,,,,
652630,001,2022-11-21_01h00.58.595,Info_measure_main_exp,2022.2.2,Win32,59.90893841,,,,,,,,,,,,,,,,,,masks/mask_005.jpg,,,,,,,,,,,,,,,,,,,,,,,,,,,,,,,,,,,,,,,,,,,0,0,0,4,1,,,,,,,,,,,,,,,,,,,,,,,,,,,,,,,,,,,,,,,,,,,,,,
652630,001,2022-11-21_01h00.58.595,Info_measure_main_exp,2022.2.2,Win32,59.90893841,,,,,,,,,,,,,,,,,,masks/mask_004.jpg,,,,,,,,,,,,,,,,,,,,,,,,,,,,,,,,,,,,,,,,,,,0,1,1,3,1,,,,,,,,,,,,,,,,,,,,,,,,,,,,,,,,,,,,,,,,,,,,,,
652630,001,2022-11-21_01h00.58.595,Info_measure_main_exp,2022.2.2,Win32,59.90893841,,,,,,,,,,,,,,,,,,masks/mask_002.jpg,,,,,,,,,,,,,,,,,,,,,,,,,,,,,,,,,,,,,,,,,,,0,2,2,1,1,,,,,,,,,,,,,,,,,,,,,,,,,,,,,,,,,,,,,,,,,,,,,,
652630,001,2022-11-21_01h00.58.595,Info_measure_main_exp,2022.2.2,Win32,59.90893841,,,,,,,,,,,,,,,,,,masks/mask_003.jpg,,,,,,,,,,,,,,,,,,,,,,,,,,,,,,,,,,,,,,,,,,,0,3,3,2,1,,,,,,,,,,,,,,,,,,,,,,,,,,,,,,,,,,,,,,,,,,,,,,
652630,001,2022-11-21_01h00.58.595,Info_measure_main_exp,2022.2.2,Win32,59.90893841,,,,,,,,,,,,,,,,,,masks/mask_001.jpg,,,,,,,,,,,,,,,,,,,,,,,,,,,,,,,,,,,,,,,,,,,0,4,4,0,1,,,,,,,,,,,,,,,,,,,,,,,,,,,,,,,,,,,,,,,,,,,,,,
652630,001,2022-11-21_01h00.58.595,Info_measure_main_exp,2022.2.2,Win32,59.90893841,,,,,,,,,,,,,,,,,,masks/mask_003.jpg,,,,,,,,,,,,,,,,,,,,,,,,,,,,,,,,,,,,,,,,,,,,,,,,0,0,0,2,1,,,,,,,,,,,,,,,,,,,,,,,,,,,,,,,,,,,,,,,,,
652630,001,2022-11-21_01h00.58.595,Info_measure_main_exp,2022.2.2,Win32,59.90893841,,,,,,,,,,,,,,,,,,masks/mask_002.jpg,,,,,,,,,,,,,,,,,,,,,,,,,,,,,,,,,,,,,,,,,,,,,,,,0,1,1,1,1,,,,,,,,,,,,,,,,,,,,,,,,,,,,,,,,,,,,,,,,,
652630,001,2022-11-21_01h00.58.595,Info_measure_main_exp,2022.2.2,Win32,59.90893841,,,,,,,,,,,,,,,,,,masks/mask_004.jpg,,,,,,,,,,,,,,,,,,,,,,,,,,,,,,,,,,,,,,,,,,,,,,,,0,2,2,3,1,,,,,,,,,,,,,,,,,,,,,,,,,,,,,,,,,,,,,,,,,
652630,001,2022-11-21_01h00.58.595,Info_measure_main_exp,2022.2.2,Win32,59.90893841,,,,,,,,,,,,,,,,,,masks/mask_005.jpg,,,,,,,,,,,,,,,,,,,,,,,,,,,,,,,,,,,,,,,,,,,,,,,,0,3,3,4,1,,,,,,,,,,,,,,,,,,,,,,,,,,,,,,,,,,,,,,,,,
652630,001,2022-11-21_01h00.58.595,Info_measure_main_exp,2022.2.2,Win32,59.90893841,,,,,,,,,,,,,,,,,,masks/mask_001.jpg,,,,,,,,,,,,,,,,,,,,,,,,,,,,,,,,,,,,,,,,,,,,,,,,0,4,4,0,1,,,,,,,,,,,,,,,,,,,,,,,,,,,,,,,,,,,,,,,,,
652630,001,2022-11-21_01h00.58.595,Info_measure_main_exp,2022.2.2,Win32,59.90893841,,,,,,,,,,,,,,,,,,,,,,,,,,,,,,6,1.8448,1,,,,,,,,,,,,0,131,5,5,2250,2238,absent_patch/patch0002250.jpg,absent_patch/patch0002238.jpg,,,,,,,,,,,,,,,,,,,,0.135,0.05,1,0,0,response1disk,13,0,0,1,0,0,center_square,0,12,12,110,1,,,,,,,,,,,,,,,,,,,,,,,
652630,001,2022-11-21_01h00.58.595,Info_measure_main_exp,2022.2.2,Win32,59.90893841,,,,,,,,,,,,,,,,,,masks/mask_004.jpg,,,,,,,,,,,,,,,,,,,,,,,,,,,,,,,,,,,,,,,,,,,0,0,0,3,1,,,,,,,,,,,,,,,,,,,,,,,,,,,,,,,,,,,,,,,,,,,,,,
652630,001,2022-11-21_01h00.58.595,Info_measure_main_exp,2022.2.2,Win32,59.90893841,,,,,,,,,,,,,,,,,,masks/mask_002.jpg,,,,,,,,,,,,,,,,,,,,,,,,,,,,,,,,,,,,,,,,,,,0,1,1,1,1,,,,,,,,,,,,,,,,,,,,,,,,,,,,,,,,,,,,,,,,,,,,,,
652630,001,2022-11-21_01h00.58.595,Info_measure_main_exp,2022.2.2,Win32,59.90893841,,,,,,,,,,,,,,,,,,masks/mask_003.jpg,,,,,,,,,,,,,,,,,,,,,,,,,,,,,,,,,,,,,,,,,,,0,2,2,2,1,,,,,,,,,,,,,,,,,,,,,,,,,,,,,,,,,,,,,,,,,,,,,,
652630,001,2022-11-21_01h00.58.595,Info_measure_main_exp,2022.2.2,Win32,59.90893841,,,,,,,,,,,,,,,,,,masks/mask_001.jpg,,,,,,,,,,,,,,,,,,,,,,,,,,,,,,,,,,,,,,,,,,,0,3,3,0,1,,,,,,,,,,,,,,,,,,,,,,,,,,,,,,,,,,,,,,,,,,,,,,
652630,001,2022-11-21_01h00.58.595,Info_measure_main_exp,2022.2.2,Win32,59.90893841,,,,,,,,,,,,,,,,,,masks/mask_005.jpg,,,,,,,,,,,,,,,,,,,,,,,,,,,,,,,,,,,,,,,,,,,0,4,4,4,1,,,,,,,,,,,,,,,,,,,,,,,,,,,,,,,,,,,,,,,,,,,,,,
652630,001,2022-11-21_01h00.58.595,Info_measure_main_exp,2022.2.2,Win32,59.90893841,,,,,,,,,,,,,,,,,,masks/mask_004.jpg,,,,,,,,,,,,,,,,,,,,,,,,,,,,,,,,,,,,,,,,,,,,,,,,0,0,0,3,1,,,,,,,,,,,,,,,,,,,,,,,,,,,,,,,,,,,,,,,,,
652630,001,2022-11-21_01h00.58.595,Info_measure_main_exp,2022.2.2,Win32,59.90893841,,,,,,,,,,,,,,,,,,masks/mask_002.jpg,,,,,,,,,,,,,,,,,,,,,,,,,,,,,,,,,,,,,,,,,,,,,,,,0,1,1,1,1,,,,,,,,,,,,,,,,,,,,,,,,,,,,,,,,,,,,,,,,,
652630,001,2022-11-21_01h00.58.595,Info_measure_main_exp,2022.2.2,Win32,59.90893841,,,,,,,,,,,,,,,,,,masks/mask_003.jpg,,,,,,,,,,,,,,,,,,,,,,,,,,,,,,,,,,,,,,,,,,,,,,,,0,2,2,2,1,,,,,,,,,,,,,,,,,,,,,,,,,,,,,,,,,,,,,,,,,
652630,001,2022-11-21_01h00.58.595,Info_measure_main_exp,2022.2.2,Win32,59.90893841,,,,,,,,,,,,,,,,,,masks/mask_005.jpg,,,,,,,,,,,,,,,,,,,,,,,,,,,,,,,,,,,,,,,,,,,,,,,,0,3,3,4,1,,,,,,,,,,,,,,,,,,,,,,,,,,,,,,,,,,,,,,,,,
652630,001,2022-11-21_01h00.58.595,Info_measure_main_exp,2022.2.2,Win32,59.90893841,,,,,,,,,,,,,,,,,,masks/mask_001.jpg,,,,,,,,,,,,,,,,,,,,,,,,,,,,,,,,,,,,,,,,,,,,,,,,0,4,4,0,1,,,,,,,,,,,,,,,,,,,,,,,,,,,,,,,,,,,,,,,,,
652630,001,2022-11-21_01h00.58.595,Info_measure_main_exp,2022.2.2,Win32,59.90893841,,,,,,,,,,,,,,,,,,,,,,,,,,,,,,6,1.7026,1,,,,,,,,,,,,0,131,5,5,2214,2142,absent_patch/patch0002214.jpg,absent_patch/patch0002142.jpg,,,,,,,,,,,,,,,,,,,,0.120500031,0.060999985,1,0,0,response1disk,14,0.005500031,-0.004500008,1,0,0,center_square,0,13,13,102,1,,,,,,,,,,,,,,,,,,,,,,,
652630,001,2022-11-21_01h00.58.595,Info_measure_main_exp,2022.2.2,Win32,59.90893841,,,,,,,,,,,,,,,,,,masks/mask_005.jpg,,,,,,,,,,,,,,,,,,,,,,,,,,,,,,,,,,,,,,,,,,,0,0,0,4,1,,,,,,,,,,,,,,,,,,,,,,,,,,,,,,,,,,,,,,,,,,,,,,
652630,001,2022-11-21_01h00.58.595,Info_measure_main_exp,2022.2.2,Win32,59.90893841,,,,,,,,,,,,,,,,,,masks/mask_004.jpg,,,,,,,,,,,,,,,,,,,,,,,,,,,,,,,,,,,,,,,,,,,0,1,1,3,1,,,,,,,,,,,,,,,,,,,,,,,,,,,,,,,,,,,,,,,,,,,,,,
652630,001,2022-11-21_01h00.58.595,Info_measure_main_exp,2022.2.2,Win32,59.90893841,,,,,,,,,,,,,,,,,,masks/mask_003.jpg,,,,,,,,,,,,,,,,,,,,,,,,,,,,,,,,,,,,,,,,,,,0,2,2,2,1,,,,,,,,,,,,,,,,,,,,,,,,,,,,,,,,,,,,,,,,,,,,,,
652630,001,2022-11-21_01h00.58.595,Info_measure_main_exp,2022.2.2,Win32,59.90893841,,,,,,,,,,,,,,,,,,masks/mask_001.jpg,,,,,,,,,,,,,,,,,,,,,,,,,,,,,,,,,,,,,,,,,,,0,3,3,0,1,,,,,,,,,,,,,,,,,,,,,,,,,,,,,,,,,,,,,,,,,,,,,,
652630,001,2022-11-21_01h00.58.595,Info_measure_main_exp,2022.2.2,Win32,59.90893841,,,,,,,,,,,,,,,,,,masks/mask_002.jpg,,,,,,,,,,,,,,,,,,,,,,,,,,,,,,,,,,,,,,,,,,,0,4,4,1,1,,,,,,,,,,,,,,,,,,,,,,,,,,,,,,,,,,,,,,,,,,,,,,
652630,001,2022-11-21_01h00.58.595,Info_measure_main_exp,2022.2.2,Win32,59.90893841,,,,,,,,,,,,,,,,,,masks/mask_002.jpg,,,,,,,,,,,,,,,,,,,,,,,,,,,,,,,,,,,,,,,,,,,,,,,,0,0,0,1,1,,,,,,,,,,,,,,,,,,,,,,,,,,,,,,,,,,,,,,,,,
652630,001,2022-11-21_01h00.58.595,Info_measure_main_exp,2022.2.2,Win32,59.90893841,,,,,,,,,,,,,,,,,,masks/mask_004.jpg,,,,,,,,,,,,,,,,,,,,,,,,,,,,,,,,,,,,,,,,,,,,,,,,0,1,1,3,1,,,,,,,,,,,,,,,,,,,,,,,,,,,,,,,,,,,,,,,,,
652630,001,2022-11-21_01h00.58.595,Info_measure_main_exp,2022.2.2,Win32,59.90893841,,,,,,,,,,,,,,,,,,masks/mask_003.jpg,,,,,,,,,,,,,,,,,,,,,,,,,,,,,,,,,,,,,,,,,,,,,,,,0,2,2,2,1,,,,,,,,,,,,,,,,,,,,,,,,,,,,,,,,,,,,,,,,,
652630,001,2022-11-21_01h00.58.595,Info_measure_main_exp,2022.2.2,Win32,59.90893841,,,,,,,,,,,,,,,,,,masks/mask_001.jpg,,,,,,,,,,,,,,,,,,,,,,,,,,,,,,,,,,,,,,,,,,,,,,,,0,3,3,0,1,,,,,,,,,,,,,,,,,,,,,,,,,,,,,,,,,,,,,,,,,
652630,001,2022-11-21_01h00.58.595,Info_measure_main_exp,2022.2.2,Win32,59.90893841,,,,,,,,,,,,,,,,,,masks/mask_005.jpg,,,,,,,,,,,,,,,,,,,,,,,,,,,,,,,,,,,,,,,,,,,,,,,,0,4,4,4,1,,,,,,,,,,,,,,,,,,,,,,,,,,,,,,,,,,,,,,,,,
652630,001,2022-11-21_01h00.58.595,Info_measure_main_exp,2022.2.2,Win32,59.90893841,,,,,,,,,,,,,,,,,,,,,,,,,,,,,,4,1.221,1,,,,,,,,,,,,0,131,5,5,2166,2154,absent_patch/patch0002166.jpg,absent_patch/patch0002154.jpg,,,,,,,,,,,,,,,,,,,,0.033499985,-0.125,1,0,0,response3disk,15,0,-0.003500023,1,0,0,center_square,0,14,14,79,1,,,,,,,,,,,,,,,,,,,,,,,
652630,001,2022-11-21_01h00.58.595,Info_measure_main_exp,2022.2.2,Win32,59.90893841,,,,,,,,,,,,,,,,,,masks/mask_002.jpg,,,,,,,,,,,,,,,,,,,,,,,,,,,,,,,,,,,,,,,,,,,0,0,0,1,1,,,,,,,,,,,,,,,,,,,,,,,,,,,,,,,,,,,,,,,,,,,,,,
652630,001,2022-11-21_01h00.58.595,Info_measure_main_exp,2022.2.2,Win32,59.90893841,,,,,,,,,,,,,,,,,,masks/mask_001.jpg,,,,,,,,,,,,,,,,,,,,,,,,,,,,,,,,,,,,,,,,,,,0,1,1,0,1,,,,,,,,,,,,,,,,,,,,,,,,,,,,,,,,,,,,,,,,,,,,,,
652630,001,2022-11-21_01h00.58.595,Info_measure_main_exp,2022.2.2,Win32,59.90893841,,,,,,,,,,,,,,,,,,masks/mask_005.jpg,,,,,,,,,,,,,,,,,,,,,,,,,,,,,,,,,,,,,,,,,,,0,2,2,4,1,,,,,,,,,,,,,,,,,,,,,,,,,,,,,,,,,,,,,,,,,,,,,,
652630,001,2022-11-21_01h00.58.595,Info_measure_main_exp,2022.2.2,Win32,59.90893841,,,,,,,,,,,,,,,,,,masks/mask_003.jpg,,,,,,,,,,,,,,,,,,,,,,,,,,,,,,,,,,,,,,,,,,,0,3,3,2,1,,,,,,,,,,,,,,,,,,,,,,,,,,,,,,,,,,,,,,,,,,,,,,
652630,001,2022-11-21_01h00.58.595,Info_measure_main_exp,2022.2.2,Win32,59.90893841,,,,,,,,,,,,,,,,,,masks/mask_004.jpg,,,,,,,,,,,,,,,,,,,,,,,,,,,,,,,,,,,,,,,,,,,0,4,4,3,1,,,,,,,,,,,,,,,,,,,,,,,,,,,,,,,,,,,,,,,,,,,,,,
652630,001,2022-11-21_01h00.58.595,Info_measure_main_exp,2022.2.2,Win32,59.90893841,,,,,,,,,,,,,,,,,,masks/mask_003.jpg,,,,,,,,,,,,,,,,,,,,,,,,,,,,,,,,,,,,,,,,,,,,,,,,0,0,0,2,1,,,,,,,,,,,,,,,,,,,,,,,,,,,,,,,,,,,,,,,,,
652630,001,2022-11-21_01h00.58.595,Info_measure_main_exp,2022.2.2,Win32,59.90893841,,,,,,,,,,,,,,,,,,masks/mask_004.jpg,,,,,,,,,,,,,,,,,,,,,,,,,,,,,,,,,,,,,,,,,,,,,,,,0,1,1,3,1,,,,,,,,,,,,,,,,,,,,,,,,,,,,,,,,,,,,,,,,,
652630,001,2022-11-21_01h00.58.595,Info_measure_main_exp,2022.2.2,Win32,59.90893841,,,,,,,,,,,,,,,,,,masks/mask_002.jpg,,,,,,,,,,,,,,,,,,,,,,,,,,,,,,,,,,,,,,,,,,,,,,,,0,2,2,1,1,,,,,,,,,,,,,,,,,,,,,,,,,,,,,,,,,,,,,,,,,
652630,001,2022-11-21_01h00.58.595,Info_measure_main_exp,2022.2.2,Win32,59.90893841,,,,,,,,,,,,,,,,,,masks/mask_001.jpg,,,,,,,,,,,,,,,,,,,,,,,,,,,,,,,,,,,,,,,,,,,,,,,,0,3,3,0,1,,,,,,,,,,,,,,,,,,,,,,,,,,,,,,,,,,,,,,,,,
652630,001,2022-11-21_01h00.58.595,Info_measure_main_exp,2022.2.2,Win32,59.90893841,,,,,,,,,,,,,,,,,,masks/mask_005.jpg,,,,,,,,,,,,,,,,,,,,,,,,,,,,,,,,,,,,,,,,,,,,,,,,0,4,4,4,1,,,,,,,,,,,,,,,,,,,,,,,,,,,,,,,,,,,,,,,,,
652630,001,2022-11-21_01h00.58.595,Info_measure_main_exp,2022.2.2,Win32,59.90893841,,,,,,,,,,,,,,,,,,,,,,,,,,,,,,0,1.839,1,,,,,,,,,,,,0,131,5,5,2082,2082,absent_patch/patch0002082.jpg,absent_patch/patch0002082.jpg,,,,,,,,,,,,,,,,,,,,-0.057999954,0.129500008,1,0,0,response7disk,16,0.003499985,0.005999985,1,0,0,center_square,0,15,15,74,1,,,,,,,,,,,,,,,,,,,,,,,
652630,001,2022-11-21_01h00.58.595,Info_measure_main_exp,2022.2.2,Win32,59.90893841,,,,,,,,,,,,,,,,,,masks/mask_005.jpg,,,,,,,,,,,,,,,,,,,,,,,,,,,,,,,,,,,,,,,,,,,0,0,0,4,1,,,,,,,,,,,,,,,,,,,,,,,,,,,,,,,,,,,,,,,,,,,,,,
652630,001,2022-11-21_01h00.58.595,Info_measure_main_exp,2022.2.2,Win32,59.90893841,,,,,,,,,,,,,,,,,,masks/mask_004.jpg,,,,,,,,,,,,,,,,,,,,,,,,,,,,,,,,,,,,,,,,,,,0,1,1,3,1,,,,,,,,,,,,,,,,,,,,,,,,,,,,,,,,,,,,,,,,,,,,,,
652630,001,2022-11-21_01h00.58.595,Info_measure_main_exp,2022.2.2,Win32,59.90893841,,,,,,,,,,,,,,,,,,masks/mask_003.jpg,,,,,,,,,,,,,,,,,,,,,,,,,,,,,,,,,,,,,,,,,,,0,2,2,2,1,,,,,,,,,,,,,,,,,,,,,,,,,,,,,,,,,,,,,,,,,,,,,,
652630,001,2022-11-21_01h00.58.595,Info_measure_main_exp,2022.2.2,Win32,59.90893841,,,,,,,,,,,,,,,,,,masks/mask_002.jpg,,,,,,,,,,,,,,,,,,,,,,,,,,,,,,,,,,,,,,,,,,,0,3,3,1,1,,,,,,,,,,,,,,,,,,,,,,,,,,,,,,,,,,,,,,,,,,,,,,
652630,001,2022-11-21_01h00.58.595,Info_measure_main_exp,2022.2.2,Win32,59.90893841,,,,,,,,,,,,,,,,,,masks/mask_001.jpg,,,,,,,,,,,,,,,,,,,,,,,,,,,,,,,,,,,,,,,,,,,0,4,4,0,1,,,,,,,,,,,,,,,,,,,,,,,,,,,,,,,,,,,,,,,,,,,,,,
652630,001,2022-11-21_01h00.58.595,Info_measure_main_exp,2022.2.2,Win32,59.90893841,,,,,,,,,,,,,,,,,,masks/mask_005.jpg,,,,,,,,,,,,,,,,,,,,,,,,,,,,,,,,,,,,,,,,,,,,,,,,0,0,0,4,1,,,,,,,,,,,,,,,,,,,,,,,,,,,,,,,,,,,,,,,,,
652630,001,2022-11-21_01h00.58.595,Info_measure_main_exp,2022.2.2,Win32,59.90893841,,,,,,,,,,,,,,,,,,masks/mask_004.jpg,,,,,,,,,,,,,,,,,,,,,,,,,,,,,,,,,,,,,,,,,,,,,,,,0,1,1,3,1,,,,,,,,,,,,,,,,,,,,,,,,,,,,,,,,,,,,,,,,,
652630,001,2022-11-21_01h00.58.595,Info_measure_main_exp,2022.2.2,Win32,59.90893841,,,,,,,,,,,,,,,,,,masks/mask_003.jpg,,,,,,,,,,,,,,,,,,,,,,,,,,,,,,,,,,,,,,,,,,,,,,,,0,2,2,2,1,,,,,,,,,,,,,,,,,,,,,,,,,,,,,,,,,,,,,,,,,
652630,001,2022-11-21_01h00.58.595,Info_measure_main_exp,2022.2.2,Win32,59.90893841,,,,,,,,,,,,,,,,,,masks/mask_001.jpg,,,,,,,,,,,,,,,,,,,,,,,,,,,,,,,,,,,,,,,,,,,,,,,,0,3,3,0,1,,,,,,,,,,,,,,,,,,,,,,,,,,,,,,,,,,,,,,,,,
652630,001,2022-11-21_01h00.58.595,Info_measure_main_exp,2022.2.2,Win32,59.90893841,,,,,,,,,,,,,,,,,,masks/mask_002.jpg,,,,,,,,,,,,,,,,,,,,,,,,,,,,,,,,,,,,,,,,,,,,,,,,0,4,4,1,1,,,,,,,,,,,,,,,,,,,,,,,,,,,,,,,,,,,,,,,,,
652630,001,2022-11-21_01h00.58.595,Info_measure_main_exp,2022.2.2,Win32,59.90893841,,,,,,,,,,,,,,,,,,,,,,,,,,,,,,5,2.062,1,,,,,,,,,,,,0,131,5,5,2154,2238,absent_patch/patch0002154.jpg,absent_patch/patch0002238.jpg,,,,,,,,,,,,,,,,,,,,0.0875,-0.026000023,1,0,0,response3disk,17,-0.000999985,0.002999992,1,0,0,center_square,0,16,16,21,1,,,,,,,,,,,,,,,,,,,,,,,
652630,001,2022-11-21_01h00.58.595,Info_measure_main_exp,2022.2.2,Win32,59.90893841,,,,,,,,,,,,,,,,,,masks/mask_004.jpg,,,,,,,,,,,,,,,,,,,,,,,,,,,,,,,,,,,,,,,,,,,0,0,0,3,1,,,,,,,,,,,,,,,,,,,,,,,,,,,,,,,,,,,,,,,,,,,,,,
652630,001,2022-11-21_01h00.58.595,Info_measure_main_exp,2022.2.2,Win32,59.90893841,,,,,,,,,,,,,,,,,,masks/mask_005.jpg,,,,,,,,,,,,,,,,,,,,,,,,,,,,,,,,,,,,,,,,,,,0,1,1,4,1,,,,,,,,,,,,,,,,,,,,,,,,,,,,,,,,,,,,,,,,,,,,,,
652630,001,2022-11-21_01h00.58.595,Info_measure_main_exp,2022.2.2,Win32,59.90893841,,,,,,,,,,,,,,,,,,masks/mask_002.jpg,,,,,,,,,,,,,,,,,,,,,,,,,,,,,,,,,,,,,,,,,,,0,2,2,1,1,,,,,,,,,,,,,,,,,,,,,,,,,,,,,,,,,,,,,,,,,,,,,,
652630,001,2022-11-21_01h00.58.595,Info_measure_main_exp,2022.2.2,Win32,59.90893841,,,,,,,,,,,,,,,,,,masks/mask_001.jpg,,,,,,,,,,,,,,,,,,,,,,,,,,,,,,,,,,,,,,,,,,,0,3,3,0,1,,,,,,,,,,,,,,,,,,,,,,,,,,,,,,,,,,,,,,,,,,,,,,
652630,001,2022-11-21_01h00.58.595,Info_measure_main_exp,2022.2.2,Win32,59.90893841,,,,,,,,,,,,,,,,,,masks/mask_003.jpg,,,,,,,,,,,,,,,,,,,,,,,,,,,,,,,,,,,,,,,,,,,0,4,4,2,1,,,,,,,,,,,,,,,,,,,,,,,,,,,,,,,,,,,,,,,,,,,,,,
652630,001,2022-11-21_01h00.58.595,Info_measure_main_exp,2022.2.2,Win32,59.90893841,,,,,,,,,,,,,,,,,,masks/mask_005.jpg,,,,,,,,,,,,,,,,,,,,,,,,,,,,,,,,,,,,,,,,,,,,,,,,0,0,0,4,1,,,,,,,,,,,,,,,,,,,,,,,,,,,,,,,,,,,,,,,,,
652630,001,2022-11-21_01h00.58.595,Info_measure_main_exp,2022.2.2,Win32,59.90893841,,,,,,,,,,,,,,,,,,masks/mask_004.jpg,,,,,,,,,,,,,,,,,,,,,,,,,,,,,,,,,,,,,,,,,,,,,,,,0,1,1,3,1,,,,,,,,,,,,,,,,,,,,,,,,,,,,,,,,,,,,,,,,,
652630,001,2022-11-21_01h00.58.595,Info_measure_main_exp,2022.2.2,Win32,59.90893841,,,,,,,,,,,,,,,,,,masks/mask_002.jpg,,,,,,,,,,,,,,,,,,,,,,,,,,,,,,,,,,,,,,,,,,,,,,,,0,2,2,1,1,,,,,,,,,,,,,,,,,,,,,,,,,,,,,,,,,,,,,,,,,
652630,001,2022-11-21_01h00.58.595,Info_measure_main_exp,2022.2.2,Win32,59.90893841,,,,,,,,,,,,,,,,,,masks/mask_001.jpg,,,,,,,,,,,,,,,,,,,,,,,,,,,,,,,,,,,,,,,,,,,,,,,,0,3,3,0,1,,,,,,,,,,,,,,,,,,,,,,,,,,,,,,,,,,,,,,,,,
652630,001,2022-11-21_01h00.58.595,Info_measure_main_exp,2022.2.2,Win32,59.90893841,,,,,,,,,,,,,,,,,,masks/mask_003.jpg,,,,,,,,,,,,,,,,,,,,,,,,,,,,,,,,,,,,,,,,,,,,,,,,0,4,4,2,1,,,,,,,,,,,,,,,,,,,,,,,,,,,,,,,,,,,,,,,,,
652630,001,2022-11-21_01h00.58.595,Info_measure_main_exp,2022.2.2,Win32,59.90893841,,,,,,,,,,,,,,,,,,,,,,,,,,,,,,0,0.7241,1,,,,,,,,,,,,0,131,5,5,2214,2214,absent_patch/patch0002214.jpg,absent_patch/patch0002214.jpg,,,,,,,,,,,,,,,,,,,,-0.052999954,0.0875,1,0,0,response7disk,18,0.002000046,0.0025,1,0,0,center_square,0,17,17,115,1,,,,,,,,,,,,,,,,,,,,,,,
652630,001,2022-11-21_01h00.58.595,Info_measure_main_exp,2022.2.2,Win32,59.90893841,,,,,,,,,,,,,,,,,,masks/mask_001.jpg,,,,,,,,,,,,,,,,,,,,,,,,,,,,,,,,,,,,,,,,,,,0,0,0,0,1,,,,,,,,,,,,,,,,,,,,,,,,,,,,,,,,,,,,,,,,,,,,,,
652630,001,2022-11-21_01h00.58.595,Info_measure_main_exp,2022.2.2,Win32,59.90893841,,,,,,,,,,,,,,,,,,masks/mask_005.jpg,,,,,,,,,,,,,,,,,,,,,,,,,,,,,,,,,,,,,,,,,,,0,1,1,4,1,,,,,,,,,,,,,,,,,,,,,,,,,,,,,,,,,,,,,,,,,,,,,,
652630,001,2022-11-21_01h00.58.595,Info_measure_main_exp,2022.2.2,Win32,59.90893841,,,,,,,,,,,,,,,,,,masks/mask_004.jpg,,,,,,,,,,,,,,,,,,,,,,,,,,,,,,,,,,,,,,,,,,,0,2,2,3,1,,,,,,,,,,,,,,,,,,,,,,,,,,,,,,,,,,,,,,,,,,,,,,
652630,001,2022-11-21_01h00.58.595,Info_measure_main_exp,2022.2.2,Win32,59.90893841,,,,,,,,,,,,,,,,,,masks/mask_003.jpg,,,,,,,,,,,,,,,,,,,,,,,,,,,,,,,,,,,,,,,,,,,0,3,3,2,1,,,,,,,,,,,,,,,,,,,,,,,,,,,,,,,,,,,,,,,,,,,,,,
652630,001,2022-11-21_01h00.58.595,Info_measure_main_exp,2022.2.2,Win32,59.90893841,,,,,,,,,,,,,,,,,,masks/mask_002.jpg,,,,,,,,,,,,,,,,,,,,,,,,,,,,,,,,,,,,,,,,,,,0,4,4,1,1,,,,,,,,,,,,,,,,,,,,,,,,,,,,,,,,,,,,,,,,,,,,,,
652630,001,2022-11-21_01h00.58.595,Info_measure_main_exp,2022.2.2,Win32,59.90893841,,,,,,,,,,,,,,,,,,masks/mask_005.jpg,,,,,,,,,,,,,,,,,,,,,,,,,,,,,,,,,,,,,,,,,,,,,,,,0,0,0,4,1,,,,,,,,,,,,,,,,,,,,,,,,,,,,,,,,,,,,,,,,,
652630,001,2022-11-21_01h00.58.595,Info_measure_main_exp,2022.2.2,Win32,59.90893841,,,,,,,,,,,,,,,,,,masks/mask_003.jpg,,,,,,,,,,,,,,,,,,,,,,,,,,,,,,,,,,,,,,,,,,,,,,,,0,1,1,2,1,,,,,,,,,,,,,,,,,,,,,,,,,,,,,,,,,,,,,,,,,
652630,001,2022-11-21_01h00.58.595,Info_measure_main_exp,2022.2.2,Win32,59.90893841,,,,,,,,,,,,,,,,,,masks/mask_002.jpg,,,,,,,,,,,,,,,,,,,,,,,,,,,,,,,,,,,,,,,,,,,,,,,,0,2,2,1,1,,,,,,,,,,,,,,,,,,,,,,,,,,,,,,,,,,,,,,,,,
652630,001,2022-11-21_01h00.58.595,Info_measure_main_exp,2022.2.2,Win32,59.90893841,,,,,,,,,,,,,,,,,,masks/mask_004.jpg,,,,,,,,,,,,,,,,,,,,,,,,,,,,,,,,,,,,,,,,,,,,,,,,0,3,3,3,1,,,,,,,,,,,,,,,,,,,,,,,,,,,,,,,,,,,,,,,,,
652630,001,2022-11-21_01h00.58.595,Info_measure_main_exp,2022.2.2,Win32,59.90893841,,,,,,,,,,,,,,,,,,masks/mask_001.jpg,,,,,,,,,,,,,,,,,,,,,,,,,,,,,,,,,,,,,,,,,,,,,,,,0,4,4,0,1,,,,,,,,,,,,,,,,,,,,,,,,,,,,,,,,,,,,,,,,,
652630,001,2022-11-21_01h00.58.595,Info_measure_main_exp,2022.2.2,Win32,59.90893841,,,,,,,,,,,,,,,,,,,,,,,,,,,,,,4,1.6539,1,,,,,,,,,,,,0,131,5,5,2082,2178,absent_patch/patch0002082.jpg,absent_patch/patch0002178.jpg,,,,,,,,,,,,,,,,,,,,0.067000046,-0.089500008,1,0,0,response3disk,19,0.01,-0.002000008,1,0,0,center_square,0,18,18,2,1,,,,,,,,,,,,,,,,,,,,,,,
652630,001,2022-11-21_01h00.58.595,Info_measure_main_exp,2022.2.2,Win32,59.90893841,,,,,,,,,,,,,,,,,,masks/mask_002.jpg,,,,,,,,,,,,,,,,,,,,,,,,,,,,,,,,,,,,,,,,,,,0,0,0,1,1,,,,,,,,,,,,,,,,,,,,,,,,,,,,,,,,,,,,,,,,,,,,,,
652630,001,2022-11-21_01h00.58.595,Info_measure_main_exp,2022.2.2,Win32,59.90893841,,,,,,,,,,,,,,,,,,masks/mask_003.jpg,,,,,,,,,,,,,,,,,,,,,,,,,,,,,,,,,,,,,,,,,,,0,1,1,2,1,,,,,,,,,,,,,,,,,,,,,,,,,,,,,,,,,,,,,,,,,,,,,,
652630,001,2022-11-21_01h00.58.595,Info_measure_main_exp,2022.2.2,Win32,59.90893841,,,,,,,,,,,,,,,,,,masks/mask_004.jpg,,,,,,,,,,,,,,,,,,,,,,,,,,,,,,,,,,,,,,,,,,,0,2,2,3,1,,,,,,,,,,,,,,,,,,,,,,,,,,,,,,,,,,,,,,,,,,,,,,
652630,001,2022-11-21_01h00.58.595,Info_measure_main_exp,2022.2.2,Win32,59.90893841,,,,,,,,,,,,,,,,,,masks/mask_001.jpg,,,,,,,,,,,,,,,,,,,,,,,,,,,,,,,,,,,,,,,,,,,0,3,3,0,1,,,,,,,,,,,,,,,,,,,,,,,,,,,,,,,,,,,,,,,,,,,,,,
652630,001,2022-11-21_01h00.58.595,Info_measure_main_exp,2022.2.2,Win32,59.90893841,,,,,,,,,,,,,,,,,,masks/mask_005.jpg,,,,,,,,,,,,,,,,,,,,,,,,,,,,,,,,,,,,,,,,,,,0,4,4,4,1,,,,,,,,,,,,,,,,,,,,,,,,,,,,,,,,,,,,,,,,,,,,,,
652630,001,2022-11-21_01h00.58.595,Info_measure_main_exp,2022.2.2,Win32,59.90893841,,,,,,,,,,,,,,,,,,masks/mask_001.jpg,,,,,,,,,,,,,,,,,,,,,,,,,,,,,,,,,,,,,,,,,,,,,,,,0,0,0,0,1,,,,,,,,,,,,,,,,,,,,,,,,,,,,,,,,,,,,,,,,,
652630,001,2022-11-21_01h00.58.595,Info_measure_main_exp,2022.2.2,Win32,59.90893841,,,,,,,,,,,,,,,,,,masks/mask_004.jpg,,,,,,,,,,,,,,,,,,,,,,,,,,,,,,,,,,,,,,,,,,,,,,,,0,1,1,3,1,,,,,,,,,,,,,,,,,,,,,,,,,,,,,,,,,,,,,,,,,
652630,001,2022-11-21_01h00.58.595,Info_measure_main_exp,2022.2.2,Win32,59.90893841,,,,,,,,,,,,,,,,,,masks/mask_003.jpg,,,,,,,,,,,,,,,,,,,,,,,,,,,,,,,,,,,,,,,,,,,,,,,,0,2,2,2,1,,,,,,,,,,,,,,,,,,,,,,,,,,,,,,,,,,,,,,,,,
652630,001,2022-11-21_01h00.58.595,Info_measure_main_exp,2022.2.2,Win32,59.90893841,,,,,,,,,,,,,,,,,,masks/mask_002.jpg,,,,,,,,,,,,,,,,,,,,,,,,,,,,,,,,,,,,,,,,,,,,,,,,0,3,3,1,1,,,,,,,,,,,,,,,,,,,,,,,,,,,,,,,,,,,,,,,,,
652630,001,2022-11-21_01h00.58.595,Info_measure_main_exp,2022.2.2,Win32,59.90893841,,,,,,,,,,,,,,,,,,masks/mask_005.jpg,,,,,,,,,,,,,,,,,,,,,,,,,,,,,,,,,,,,,,,,,,,,,,,,0,4,4,4,1,,,,,,,,,,,,,,,,,,,,,,,,,,,,,,,,,,,,,,,,,
652630,001,2022-11-21_01h00.58.595,Info_measure_main_exp,2022.2.2,Win32,59.90893841,,,,,,,,,,,,,,,,,,,,,,,,,,,,,,5,2.2186,1,,,,,,,,,,,,0,131,5,5,2274,2214,absent_patch/patch0002274.jpg,absent_patch/patch0002214.jpg,,,,,,,,,,,,,,,,,,,,0.102000046,-0.033500023,1,0,0,response3disk,20,-0.004000015,0.0075,1,0,0,center_square,0,19,19,11,1,,,,,,,,,,,,,,,,,,,,,,,
652630,001,2022-11-21_01h00.58.595,Info_measure_main_exp,2022.2.2,Win32,59.90893841,,,,,,,,,,,,,,,,,,masks/mask_004.jpg,,,,,,,,,,,,,,,,,,,,,,,,,,,,,,,,,,,,,,,,,,,0,0,0,3,1,,,,,,,,,,,,,,,,,,,,,,,,,,,,,,,,,,,,,,,,,,,,,,
652630,001,2022-11-21_01h00.58.595,Info_measure_main_exp,2022.2.2,Win32,59.90893841,,,,,,,,,,,,,,,,,,masks/mask_005.jpg,,,,,,,,,,,,,,,,,,,,,,,,,,,,,,,,,,,,,,,,,,,0,1,1,4,1,,,,,,,,,,,,,,,,,,,,,,,,,,,,,,,,,,,,,,,,,,,,,,
652630,001,2022-11-21_01h00.58.595,Info_measure_main_exp,2022.2.2,Win32,59.90893841,,,,,,,,,,,,,,,,,,masks/mask_001.jpg,,,,,,,,,,,,,,,,,,,,,,,,,,,,,,,,,,,,,,,,,,,0,2,2,0,1,,,,,,,,,,,,,,,,,,,,,,,,,,,,,,,,,,,,,,,,,,,,,,
652630,001,2022-11-21_01h00.58.595,Info_measure_main_exp,2022.2.2,Win32,59.90893841,,,,,,,,,,,,,,,,,,masks/mask_002.jpg,,,,,,,,,,,,,,,,,,,,,,,,,,,,,,,,,,,,,,,,,,,0,3,3,1,1,,,,,,,,,,,,,,,,,,,,,,,,,,,,,,,,,,,,,,,,,,,,,,
652630,001,2022-11-21_01h00.58.595,Info_measure_main_exp,2022.2.2,Win32,59.90893841,,,,,,,,,,,,,,,,,,masks/mask_003.jpg,,,,,,,,,,,,,,,,,,,,,,,,,,,,,,,,,,,,,,,,,,,0,4,4,2,1,,,,,,,,,,,,,,,,,,,,,,,,,,,,,,,,,,,,,,,,,,,,,,
652630,001,2022-11-21_01h00.58.595,Info_measure_main_exp,2022.2.2,Win32,59.90893841,,,,,,,,,,,,,,,,,,masks/mask_001.jpg,,,,,,,,,,,,,,,,,,,,,,,,,,,,,,,,,,,,,,,,,,,,,,,,0,0,0,0,1,,,,,,,,,,,,,,,,,,,,,,,,,,,,,,,,,,,,,,,,,
652630,001,2022-11-21_01h00.58.595,Info_measure_main_exp,2022.2.2,Win32,59.90893841,,,,,,,,,,,,,,,,,,masks/mask_002.jpg,,,,,,,,,,,,,,,,,,,,,,,,,,,,,,,,,,,,,,,,,,,,,,,,0,1,1,1,1,,,,,,,,,,,,,,,,,,,,,,,,,,,,,,,,,,,,,,,,,
652630,001,2022-11-21_01h00.58.595,Info_measure_main_exp,2022.2.2,Win32,59.90893841,,,,,,,,,,,,,,,,,,masks/mask_005.jpg,,,,,,,,,,,,,,,,,,,,,,,,,,,,,,,,,,,,,,,,,,,,,,,,0,2,2,4,1,,,,,,,,,,,,,,,,,,,,,,,,,,,,,,,,,,,,,,,,,
652630,001,2022-11-21_01h00.58.595,Info_measure_main_exp,2022.2.2,Win32,59.90893841,,,,,,,,,,,,,,,,,,masks/mask_003.jpg,,,,,,,,,,,,,,,,,,,,,,,,,,,,,,,,,,,,,,,,,,,,,,,,0,3,3,2,1,,,,,,,,,,,,,,,,,,,,,,,,,,,,,,,,,,,,,,,,,
652630,001,2022-11-21_01h00.58.595,Info_measure_main_exp,2022.2.2,Win32,59.90893841,,,,,,,,,,,,,,,,,,masks/mask_004.jpg,,,,,,,,,,,,,,,,,,,,,,,,,,,,,,,,,,,,,,,,,,,,,,,,0,4,4,3,1,,,,,,,,,,,,,,,,,,,,,,,,,,,,,,,,,,,,,,,,,
652630,001,2022-11-21_01h00.58.595,Info_measure_main_exp,2022.2.2,Win32,59.90893841,,,,,,,,,,,,,,,,,,,,,,,,,,,,,,6,3.7,1,,,,,,,,,,,,0,131,5,5,2178,1986,absent_patch/patch0002178.jpg,absent_patch/patch0001986.jpg,,,,,,,,,,,,,,,,,,,,0.092000046,0.033999977,1,0,0,response1disk,21,-0.009499969,-0.009500008,1,0,0,center_square,0,20,20,46,1,,,,,,,,,,,,,,,,,,,,,,,
652630,001,2022-11-21_01h00.58.595,Info_measure_main_exp,2022.2.2,Win32,59.90893841,,,,,,,,,,,,,,,,,,masks/mask_003.jpg,,,,,,,,,,,,,,,,,,,,,,,,,,,,,,,,,,,,,,,,,,,0,0,0,2,1,,,,,,,,,,,,,,,,,,,,,,,,,,,,,,,,,,,,,,,,,,,,,,
652630,001,2022-11-21_01h00.58.595,Info_measure_main_exp,2022.2.2,Win32,59.90893841,,,,,,,,,,,,,,,,,,masks/mask_002.jpg,,,,,,,,,,,,,,,,,,,,,,,,,,,,,,,,,,,,,,,,,,,0,1,1,1,1,,,,,,,,,,,,,,,,,,,,,,,,,,,,,,,,,,,,,,,,,,,,,,
652630,001,2022-11-21_01h00.58.595,Info_measure_main_exp,2022.2.2,Win32,59.90893841,,,,,,,,,,,,,,,,,,masks/mask_005.jpg,,,,,,,,,,,,,,,,,,,,,,,,,,,,,,,,,,,,,,,,,,,0,2,2,4,1,,,,,,,,,,,,,,,,,,,,,,,,,,,,,,,,,,,,,,,,,,,,,,
652630,001,2022-11-21_01h00.58.595,Info_measure_main_exp,2022.2.2,Win32,59.90893841,,,,,,,,,,,,,,,,,,masks/mask_004.jpg,,,,,,,,,,,,,,,,,,,,,,,,,,,,,,,,,,,,,,,,,,,0,3,3,3,1,,,,,,,,,,,,,,,,,,,,,,,,,,,,,,,,,,,,,,,,,,,,,,
652630,001,2022-11-21_01h00.58.595,Info_measure_main_exp,2022.2.2,Win32,59.90893841,,,,,,,,,,,,,,,,,,masks/mask_001.jpg,,,,,,,,,,,,,,,,,,,,,,,,,,,,,,,,,,,,,,,,,,,0,4,4,0,1,,,,,,,,,,,,,,,,,,,,,,,,,,,,,,,,,,,,,,,,,,,,,,
652630,001,2022-11-21_01h00.58.595,Info_measure_main_exp,2022.2.2,Win32,59.90893841,,,,,,,,,,,,,,,,,,masks/mask_001.jpg,,,,,,,,,,,,,,,,,,,,,,,,,,,,,,,,,,,,,,,,,,,,,,,,0,0,0,0,1,,,,,,,,,,,,,,,,,,,,,,,,,,,,,,,,,,,,,,,,,
652630,001,2022-11-21_01h00.58.595,Info_measure_main_exp,2022.2.2,Win32,59.90893841,,,,,,,,,,,,,,,,,,masks/mask_002.jpg,,,,,,,,,,,,,,,,,,,,,,,,,,,,,,,,,,,,,,,,,,,,,,,,0,1,1,1,1,,,,,,,,,,,,,,,,,,,,,,,,,,,,,,,,,,,,,,,,,
652630,001,2022-11-21_01h00.58.595,Info_measure_main_exp,2022.2.2,Win32,59.90893841,,,,,,,,,,,,,,,,,,masks/mask_005.jpg,,,,,,,,,,,,,,,,,,,,,,,,,,,,,,,,,,,,,,,,,,,,,,,,0,2,2,4,1,,,,,,,,,,,,,,,,,,,,,,,,,,,,,,,,,,,,,,,,,
652630,001,2022-11-21_01h00.58.595,Info_measure_main_exp,2022.2.2,Win32,59.90893841,,,,,,,,,,,,,,,,,,masks/mask_003.jpg,,,,,,,,,,,,,,,,,,,,,,,,,,,,,,,,,,,,,,,,,,,,,,,,0,3,3,2,1,,,,,,,,,,,,,,,,,,,,,,,,,,,,,,,,,,,,,,,,,
652630,001,2022-11-21_01h00.58.595,Info_measure_main_exp,2022.2.2,Win32,59.90893841,,,,,,,,,,,,,,,,,,masks/mask_004.jpg,,,,,,,,,,,,,,,,,,,,,,,,,,,,,,,,,,,,,,,,,,,,,,,,0,4,4,3,1,,,,,,,,,,,,,,,,,,,,,,,,,,,,,,,,,,,,,,,,,
652630,001,2022-11-21_01h00.58.595,Info_measure_main_exp,2022.2.2,Win32,59.90893841,,,,,,,,,,,,,,,,,,,,,,,,,,,,,,2,1.7774,1,,,,,,,,,,,,0,131,5,5,2082,1974,absent_patch/patch0002082.jpg,absent_patch/patch0001974.jpg,,,,,,,,,,,,,,,,,,,,-0.0775,-0.039500008,1,0,0,response5disk,22,0.005,-0.006500015,1,0,0,center_square,0,21,21,26,1,,,,,,,,,,,,,,,,,,,,,,,
652630,001,2022-11-21_01h00.58.595,Info_measure_main_exp,2022.2.2,Win32,59.90893841,,,,,,,,,,,,,,,,,,masks/mask_001.jpg,,,,,,,,,,,,,,,,,,,,,,,,,,,,,,,,,,,,,,,,,,,0,0,0,0,1,,,,,,,,,,,,,,,,,,,,,,,,,,,,,,,,,,,,,,,,,,,,,,
652630,001,2022-11-21_01h00.58.595,Info_measure_main_exp,2022.2.2,Win32,59.90893841,,,,,,,,,,,,,,,,,,masks/mask_004.jpg,,,,,,,,,,,,,,,,,,,,,,,,,,,,,,,,,,,,,,,,,,,0,1,1,3,1,,,,,,,,,,,,,,,,,,,,,,,,,,,,,,,,,,,,,,,,,,,,,,
652630,001,2022-11-21_01h00.58.595,Info_measure_main_exp,2022.2.2,Win32,59.90893841,,,,,,,,,,,,,,,,,,masks/mask_003.jpg,,,,,,,,,,,,,,,,,,,,,,,,,,,,,,,,,,,,,,,,,,,0,2,2,2,1,,,,,,,,,,,,,,,,,,,,,,,,,,,,,,,,,,,,,,,,,,,,,,
652630,001,2022-11-21_01h00.58.595,Info_measure_main_exp,2022.2.2,Win32,59.90893841,,,,,,,,,,,,,,,,,,masks/mask_005.jpg,,,,,,,,,,,,,,,,,,,,,,,,,,,,,,,,,,,,,,,,,,,0,3,3,4,1,,,,,,,,,,,,,,,,,,,,,,,,,,,,,,,,,,,,,,,,,,,,,,
652630,001,2022-11-21_01h00.58.595,Info_measure_main_exp,2022.2.2,Win32,59.90893841,,,,,,,,,,,,,,,,,,masks/mask_002.jpg,,,,,,,,,,,,,,,,,,,,,,,,,,,,,,,,,,,,,,,,,,,0,4,4,1,1,,,,,,,,,,,,,,,,,,,,,,,,,,,,,,,,,,,,,,,,,,,,,,
652630,001,2022-11-21_01h00.58.595,Info_measure_main_exp,2022.2.2,Win32,59.90893841,,,,,,,,,,,,,,,,,,masks/mask_003.jpg,,,,,,,,,,,,,,,,,,,,,,,,,,,,,,,,,,,,,,,,,,,,,,,,0,0,0,2,1,,,,,,,,,,,,,,,,,,,,,,,,,,,,,,,,,,,,,,,,,
652630,001,2022-11-21_01h00.58.595,Info_measure_main_exp,2022.2.2,Win32,59.90893841,,,,,,,,,,,,,,,,,,masks/mask_002.jpg,,,,,,,,,,,,,,,,,,,,,,,,,,,,,,,,,,,,,,,,,,,,,,,,0,1,1,1,1,,,,,,,,,,,,,,,,,,,,,,,,,,,,,,,,,,,,,,,,,
652630,001,2022-11-21_01h00.58.595,Info_measure_main_exp,2022.2.2,Win32,59.90893841,,,,,,,,,,,,,,,,,,masks/mask_005.jpg,,,,,,,,,,,,,,,,,,,,,,,,,,,,,,,,,,,,,,,,,,,,,,,,0,2,2,4,1,,,,,,,,,,,,,,,,,,,,,,,,,,,,,,,,,,,,,,,,,
652630,001,2022-11-21_01h00.58.595,Info_measure_main_exp,2022.2.2,Win32,59.90893841,,,,,,,,,,,,,,,,,,masks/mask_001.jpg,,,,,,,,,,,,,,,,,,,,,,,,,,,,,,,,,,,,,,,,,,,,,,,,0,3,3,0,1,,,,,,,,,,,,,,,,,,,,,,,,,,,,,,,,,,,,,,,,,
652630,001,2022-11-21_01h00.58.595,Info_measure_main_exp,2022.2.2,Win32,59.90893841,,,,,,,,,,,,,,,,,,masks/mask_004.jpg,,,,,,,,,,,,,,,,,,,,,,,,,,,,,,,,,,,,,,,,,,,,,,,,0,4,4,3,1,,,,,,,,,,,,,,,,,,,,,,,,,,,,,,,,,,,,,,,,,
652630,001,2022-11-21_01h00.58.595,Info_measure_main_exp,2022.2.2,Win32,59.90893841,,,,,,,,,,,,,,,,,,,,,,,,,,,,,,4,1.7357,1,,,,,,,,,,,,0,131,5,5,2190,2166,absent_patch/patch0002190.jpg,absent_patch/patch0002166.jpg,,,,,,,,,,,,,,,,,,,,0.052000046,-0.072000008,1,0,0,response3disk,23,0.000999985,-0.002999992,1,0,0,center_square,0,22,22,50,1,,,,,,,,,,,,,,,,,,,,,,,
652630,001,2022-11-21_01h00.58.595,Info_measure_main_exp,2022.2.2,Win32,59.90893841,,,,,,,,,,,,,,,,,,masks/mask_004.jpg,,,,,,,,,,,,,,,,,,,,,,,,,,,,,,,,,,,,,,,,,,,0,0,0,3,1,,,,,,,,,,,,,,,,,,,,,,,,,,,,,,,,,,,,,,,,,,,,,,
652630,001,2022-11-21_01h00.58.595,Info_measure_main_exp,2022.2.2,Win32,59.90893841,,,,,,,,,,,,,,,,,,masks/mask_003.jpg,,,,,,,,,,,,,,,,,,,,,,,,,,,,,,,,,,,,,,,,,,,0,1,1,2,1,,,,,,,,,,,,,,,,,,,,,,,,,,,,,,,,,,,,,,,,,,,,,,
652630,001,2022-11-21_01h00.58.595,Info_measure_main_exp,2022.2.2,Win32,59.90893841,,,,,,,,,,,,,,,,,,masks/mask_005.jpg,,,,,,,,,,,,,,,,,,,,,,,,,,,,,,,,,,,,,,,,,,,0,2,2,4,1,,,,,,,,,,,,,,,,,,,,,,,,,,,,,,,,,,,,,,,,,,,,,,
652630,001,2022-11-21_01h00.58.595,Info_measure_main_exp,2022.2.2,Win32,59.90893841,,,,,,,,,,,,,,,,,,masks/mask_001.jpg,,,,,,,,,,,,,,,,,,,,,,,,,,,,,,,,,,,,,,,,,,,0,3,3,0,1,,,,,,,,,,,,,,,,,,,,,,,,,,,,,,,,,,,,,,,,,,,,,,
652630,001,2022-11-21_01h00.58.595,Info_measure_main_exp,2022.2.2,Win32,59.90893841,,,,,,,,,,,,,,,,,,masks/mask_002.jpg,,,,,,,,,,,,,,,,,,,,,,,,,,,,,,,,,,,,,,,,,,,0,4,4,1,1,,,,,,,,,,,,,,,,,,,,,,,,,,,,,,,,,,,,,,,,,,,,,,
652630,001,2022-11-21_01h00.58.595,Info_measure_main_exp,2022.2.2,Win32,59.90893841,,,,,,,,,,,,,,,,,,masks/mask_003.jpg,,,,,,,,,,,,,,,,,,,,,,,,,,,,,,,,,,,,,,,,,,,,,,,,0,0,0,2,1,,,,,,,,,,,,,,,,,,,,,,,,,,,,,,,,,,,,,,,,,
652630,001,2022-11-21_01h00.58.595,Info_measure_main_exp,2022.2.2,Win32,59.90893841,,,,,,,,,,,,,,,,,,masks/mask_005.jpg,,,,,,,,,,,,,,,,,,,,,,,,,,,,,,,,,,,,,,,,,,,,,,,,0,1,1,4,1,,,,,,,,,,,,,,,,,,,,,,,,,,,,,,,,,,,,,,,,,
652630,001,2022-11-21_01h00.58.595,Info_measure_main_exp,2022.2.2,Win32,59.90893841,,,,,,,,,,,,,,,,,,masks/mask_002.jpg,,,,,,,,,,,,,,,,,,,,,,,,,,,,,,,,,,,,,,,,,,,,,,,,0,2,2,1,1,,,,,,,,,,,,,,,,,,,,,,,,,,,,,,,,,,,,,,,,,
652630,001,2022-11-21_01h00.58.595,Info_measure_main_exp,2022.2.2,Win32,59.90893841,,,,,,,,,,,,,,,,,,masks/mask_004.jpg,,,,,,,,,,,,,,,,,,,,,,,,,,,,,,,,,,,,,,,,,,,,,,,,0,3,3,3,1,,,,,,,,,,,,,,,,,,,,,,,,,,,,,,,,,,,,,,,,,
652630,001,2022-11-21_01h00.58.595,Info_measure_main_exp,2022.2.2,Win32,59.90893841,,,,,,,,,,,,,,,,,,masks/mask_001.jpg,,,,,,,,,,,,,,,,,,,,,,,,,,,,,,,,,,,,,,,,,,,,,,,,0,4,4,0,1,,,,,,,,,,,,,,,,,,,,,,,,,,,,,,,,,,,,,,,,,
652630,001,2022-11-21_01h00.58.595,Info_measure_main_exp,2022.2.2,Win32,59.90893841,,,,,,,,,,,,,,,,,,,,,,,,,,,,,,5,2.3168,1,,,,,,,,,,,,0,131,5,5,2190,1974,absent_patch/patch0002190.jpg,absent_patch/patch0001974.jpg,,,,,,,,,,,,,,,,,,,,0.095500031,-0.030499992,1,0,0,response3disk,24,0.008499985,-0.006000023,1,0,0,center_square,0,23,23,119,1,,,,,,,,,,,,,,,,,,,,,,,
652630,001,2022-11-21_01h00.58.595,Info_measure_main_exp,2022.2.2,Win32,59.90893841,,,,,,,,,,,,,,,,,,masks/mask_002.jpg,,,,,,,,,,,,,,,,,,,,,,,,,,,,,,,,,,,,,,,,,,,0,0,0,1,1,,,,,,,,,,,,,,,,,,,,,,,,,,,,,,,,,,,,,,,,,,,,,,
652630,001,2022-11-21_01h00.58.595,Info_measure_main_exp,2022.2.2,Win32,59.90893841,,,,,,,,,,,,,,,,,,masks/mask_001.jpg,,,,,,,,,,,,,,,,,,,,,,,,,,,,,,,,,,,,,,,,,,,0,1,1,0,1,,,,,,,,,,,,,,,,,,,,,,,,,,,,,,,,,,,,,,,,,,,,,,
652630,001,2022-11-21_01h00.58.595,Info_measure_main_exp,2022.2.2,Win32,59.90893841,,,,,,,,,,,,,,,,,,masks/mask_004.jpg,,,,,,,,,,,,,,,,,,,,,,,,,,,,,,,,,,,,,,,,,,,0,2,2,3,1,,,,,,,,,,,,,,,,,,,,,,,,,,,,,,,,,,,,,,,,,,,,,,
652630,001,2022-11-21_01h00.58.595,Info_measure_main_exp,2022.2.2,Win32,59.90893841,,,,,,,,,,,,,,,,,,masks/mask_003.jpg,,,,,,,,,,,,,,,,,,,,,,,,,,,,,,,,,,,,,,,,,,,0,3,3,2,1,,,,,,,,,,,,,,,,,,,,,,,,,,,,,,,,,,,,,,,,,,,,,,
652630,001,2022-11-21_01h00.58.595,Info_measure_main_exp,2022.2.2,Win32,59.90893841,,,,,,,,,,,,,,,,,,masks/mask_005.jpg,,,,,,,,,,,,,,,,,,,,,,,,,,,,,,,,,,,,,,,,,,,0,4,4,4,1,,,,,,,,,,,,,,,,,,,,,,,,,,,,,,,,,,,,,,,,,,,,,,
652630,001,2022-11-21_01h00.58.595,Info_measure_main_exp,2022.2.2,Win32,59.90893841,,,,,,,,,,,,,,,,,,masks/mask_002.jpg,,,,,,,,,,,,,,,,,,,,,,,,,,,,,,,,,,,,,,,,,,,,,,,,0,0,0,1,1,,,,,,,,,,,,,,,,,,,,,,,,,,,,,,,,,,,,,,,,,
652630,001,2022-11-21_01h00.58.595,Info_measure_main_exp,2022.2.2,Win32,59.90893841,,,,,,,,,,,,,,,,,,masks/mask_004.jpg,,,,,,,,,,,,,,,,,,,,,,,,,,,,,,,,,,,,,,,,,,,,,,,,0,1,1,3,1,,,,,,,,,,,,,,,,,,,,,,,,,,,,,,,,,,,,,,,,,
652630,001,2022-11-21_01h00.58.595,Info_measure_main_exp,2022.2.2,Win32,59.90893841,,,,,,,,,,,,,,,,,,masks/mask_005.jpg,,,,,,,,,,,,,,,,,,,,,,,,,,,,,,,,,,,,,,,,,,,,,,,,0,2,2,4,1,,,,,,,,,,,,,,,,,,,,,,,,,,,,,,,,,,,,,,,,,
652630,001,2022-11-21_01h00.58.595,Info_measure_main_exp,2022.2.2,Win32,59.90893841,,,,,,,,,,,,,,,,,,masks/mask_003.jpg,,,,,,,,,,,,,,,,,,,,,,,,,,,,,,,,,,,,,,,,,,,,,,,,0,3,3,2,1,,,,,,,,,,,,,,,,,,,,,,,,,,,,,,,,,,,,,,,,,
652630,001,2022-11-21_01h00.58.595,Info_measure_main_exp,2022.2.2,Win32,59.90893841,,,,,,,,,,,,,,,,,,masks/mask_001.jpg,,,,,,,,,,,,,,,,,,,,,,,,,,,,,,,,,,,,,,,,,,,,,,,,0,4,4,0,1,,,,,,,,,,,,,,,,,,,,,,,,,,,,,,,,,,,,,,,,,
652630,001,2022-11-21_01h00.58.595,Info_measure_main_exp,2022.2.2,Win32,59.90893841,,,,,,,,,,,,,,,,,,,,,,,,,,,,,,3,1.2272,1,,,,,,,,,,,,0,131,5,5,1974,2166,absent_patch/patch0001974.jpg,absent_patch/patch0002166.jpg,,,,,,,,,,,,,,,,,,,,-0.039499969,-0.085,1,0,0,response5disk,25,-0.001999969,0.0075,1,0,0,center_square,0,24,24,77,1,,,,,,,,,,,,,,,,,,,,,,,
652630,001,2022-11-21_01h00.58.595,Info_measure_main_exp,2022.2.2,Win32,59.90893841,,,,,,,,,,,,,,,,,,masks/mask_002.jpg,,,,,,,,,,,,,,,,,,,,,,,,,,,,,,,,,,,,,,,,,,,0,0,0,1,1,,,,,,,,,,,,,,,,,,,,,,,,,,,,,,,,,,,,,,,,,,,,,,
652630,001,2022-11-21_01h00.58.595,Info_measure_main_exp,2022.2.2,Win32,59.90893841,,,,,,,,,,,,,,,,,,masks/mask_003.jpg,,,,,,,,,,,,,,,,,,,,,,,,,,,,,,,,,,,,,,,,,,,0,1,1,2,1,,,,,,,,,,,,,,,,,,,,,,,,,,,,,,,,,,,,,,,,,,,,,,
652630,001,2022-11-21_01h00.58.595,Info_measure_main_exp,2022.2.2,Win32,59.90893841,,,,,,,,,,,,,,,,,,masks/mask_001.jpg,,,,,,,,,,,,,,,,,,,,,,,,,,,,,,,,,,,,,,,,,,,0,2,2,0,1,,,,,,,,,,,,,,,,,,,,,,,,,,,,,,,,,,,,,,,,,,,,,,
652630,001,2022-11-21_01h00.58.595,Info_measure_main_exp,2022.2.2,Win32,59.90893841,,,,,,,,,,,,,,,,,,masks/mask_005.jpg,,,,,,,,,,,,,,,,,,,,,,,,,,,,,,,,,,,,,,,,,,,0,3,3,4,1,,,,,,,,,,,,,,,,,,,,,,,,,,,,,,,,,,,,,,,,,,,,,,
652630,001,2022-11-21_01h00.58.595,Info_measure_main_exp,2022.2.2,Win32,59.90893841,,,,,,,,,,,,,,,,,,masks/mask_004.jpg,,,,,,,,,,,,,,,,,,,,,,,,,,,,,,,,,,,,,,,,,,,0,4,4,3,1,,,,,,,,,,,,,,,,,,,,,,,,,,,,,,,,,,,,,,,,,,,,,,
652630,001,2022-11-21_01h00.58.595,Info_measure_main_exp,2022.2.2,Win32,59.90893841,,,,,,,,,,,,,,,,,,masks/mask_002.jpg,,,,,,,,,,,,,,,,,,,,,,,,,,,,,,,,,,,,,,,,,,,,,,,,0,0,0,1,1,,,,,,,,,,,,,,,,,,,,,,,,,,,,,,,,,,,,,,,,,
652630,001,2022-11-21_01h00.58.595,Info_measure_main_exp,2022.2.2,Win32,59.90893841,,,,,,,,,,,,,,,,,,masks/mask_003.jpg,,,,,,,,,,,,,,,,,,,,,,,,,,,,,,,,,,,,,,,,,,,,,,,,0,1,1,2,1,,,,,,,,,,,,,,,,,,,,,,,,,,,,,,,,,,,,,,,,,
652630,001,2022-11-21_01h00.58.595,Info_measure_main_exp,2022.2.2,Win32,59.90893841,,,,,,,,,,,,,,,,,,masks/mask_001.jpg,,,,,,,,,,,,,,,,,,,,,,,,,,,,,,,,,,,,,,,,,,,,,,,,0,2,2,0,1,,,,,,,,,,,,,,,,,,,,,,,,,,,,,,,,,,,,,,,,,
652630,001,2022-11-21_01h00.58.595,Info_measure_main_exp,2022.2.2,Win32,59.90893841,,,,,,,,,,,,,,,,,,masks/mask_005.jpg,,,,,,,,,,,,,,,,,,,,,,,,,,,,,,,,,,,,,,,,,,,,,,,,0,3,3,4,1,,,,,,,,,,,,,,,,,,,,,,,,,,,,,,,,,,,,,,,,,
652630,001,2022-11-21_01h00.58.595,Info_measure_main_exp,2022.2.2,Win32,59.90893841,,,,,,,,,,,,,,,,,,masks/mask_004.jpg,,,,,,,,,,,,,,,,,,,,,,,,,,,,,,,,,,,,,,,,,,,,,,,,0,4,4,3,1,,,,,,,,,,,,,,,,,,,,,,,,,,,,,,,,,,,,,,,,,
652630,001,2022-11-21_01h00.58.595,Info_measure_main_exp,2022.2.2,Win32,59.90893841,,,,,,,,,,,,,,,,,,,,,,,,,,,,,,4,1.2352,1,,,,,,,,,,,,0,131,5,5,2250,2142,absent_patch/patch0002250.jpg,absent_patch/patch0002142.jpg,,,,,,,,,,,,,,,,,,,,0.0675,-0.104500008,1,0,0,response3disk,26,0.0025,0.015,1,0,0,center_square,0,25,25,71,1,,,,,,,,,,,,,,,,,,,,,,,
652630,001,2022-11-21_01h00.58.595,Info_measure_main_exp,2022.2.2,Win32,59.90893841,,,,,,,,,,,,,,,,,,masks/mask_002.jpg,,,,,,,,,,,,,,,,,,,,,,,,,,,,,,,,,,,,,,,,,,,0,0,0,1,1,,,,,,,,,,,,,,,,,,,,,,,,,,,,,,,,,,,,,,,,,,,,,,
652630,001,2022-11-21_01h00.58.595,Info_measure_main_exp,2022.2.2,Win32,59.90893841,,,,,,,,,,,,,,,,,,masks/mask_001.jpg,,,,,,,,,,,,,,,,,,,,,,,,,,,,,,,,,,,,,,,,,,,0,1,1,0,1,,,,,,,,,,,,,,,,,,,,,,,,,,,,,,,,,,,,,,,,,,,,,,
652630,001,2022-11-21_01h00.58.595,Info_measure_main_exp,2022.2.2,Win32,59.90893841,,,,,,,,,,,,,,,,,,masks/mask_005.jpg,,,,,,,,,,,,,,,,,,,,,,,,,,,,,,,,,,,,,,,,,,,0,2,2,4,1,,,,,,,,,,,,,,,,,,,,,,,,,,,,,,,,,,,,,,,,,,,,,,
652630,001,2022-11-21_01h00.58.595,Info_measure_main_exp,2022.2.2,Win32,59.90893841,,,,,,,,,,,,,,,,,,masks/mask_003.jpg,,,,,,,,,,,,,,,,,,,,,,,,,,,,,,,,,,,,,,,,,,,0,3,3,2,1,,,,,,,,,,,,,,,,,,,,,,,,,,,,,,,,,,,,,,,,,,,,,,
652630,001,2022-11-21_01h00.58.595,Info_measure_main_exp,2022.2.2,Win32,59.90893841,,,,,,,,,,,,,,,,,,masks/mask_004.jpg,,,,,,,,,,,,,,,,,,,,,,,,,,,,,,,,,,,,,,,,,,,0,4,4,3,1,,,,,,,,,,,,,,,,,,,,,,,,,,,,,,,,,,,,,,,,,,,,,,
652630,001,2022-11-21_01h00.58.595,Info_measure_main_exp,2022.2.2,Win32,59.90893841,,,,,,,,,,,,,,,,,,masks/mask_001.jpg,,,,,,,,,,,,,,,,,,,,,,,,,,,,,,,,,,,,,,,,,,,,,,,,0,0,0,0,1,,,,,,,,,,,,,,,,,,,,,,,,,,,,,,,,,,,,,,,,,
652630,001,2022-11-21_01h00.58.595,Info_measure_main_exp,2022.2.2,Win32,59.90893841,,,,,,,,,,,,,,,,,,masks/mask_003.jpg,,,,,,,,,,,,,,,,,,,,,,,,,,,,,,,,,,,,,,,,,,,,,,,,0,1,1,2,1,,,,,,,,,,,,,,,,,,,,,,,,,,,,,,,,,,,,,,,,,
652630,001,2022-11-21_01h00.58.595,Info_measure_main_exp,2022.2.2,Win32,59.90893841,,,,,,,,,,,,,,,,,,masks/mask_004.jpg,,,,,,,,,,,,,,,,,,,,,,,,,,,,,,,,,,,,,,,,,,,,,,,,0,2,2,3,1,,,,,,,,,,,,,,,,,,,,,,,,,,,,,,,,,,,,,,,,,
652630,001,2022-11-21_01h00.58.595,Info_measure_main_exp,2022.2.2,Win32,59.90893841,,,,,,,,,,,,,,,,,,masks/mask_005.jpg,,,,,,,,,,,,,,,,,,,,,,,,,,,,,,,,,,,,,,,,,,,,,,,,0,3,3,4,1,,,,,,,,,,,,,,,,,,,,,,,,,,,,,,,,,,,,,,,,,
652630,001,2022-11-21_01h00.58.595,Info_measure_main_exp,2022.2.2,Win32,59.90893841,,,,,,,,,,,,,,,,,,masks/mask_002.jpg,,,,,,,,,,,,,,,,,,,,,,,,,,,,,,,,,,,,,,,,,,,,,,,,0,4,4,1,1,,,,,,,,,,,,,,,,,,,,,,,,,,,,,,,,,,,,,,,,,
652630,001,2022-11-21_01h00.58.595,Info_measure_main_exp,2022.2.2,Win32,59.90893841,,,,,,,,,,,,,,,,,,,,,,,,,,,,,,4,1.9435,1,,,,,,,,,,,,0,131,5,5,2190,2082,absent_patch/patch0002190.jpg,absent_patch/patch0002082.jpg,,,,,,,,,,,,,,,,,,,,0.036500015,-0.053500023,1,0,0,response3disk,27,-0.005499954,0.003999977,1,0,0,center_square,0,26,26,112,1,,,,,,,,,,,,,,,,,,,,,,,
652630,001,2022-11-21_01h00.58.595,Info_measure_main_exp,2022.2.2,Win32,59.90893841,,,,,,,,,,,,,,,,,,masks/mask_002.jpg,,,,,,,,,,,,,,,,,,,,,,,,,,,,,,,,,,,,,,,,,,,0,0,0,1,1,,,,,,,,,,,,,,,,,,,,,,,,,,,,,,,,,,,,,,,,,,,,,,
652630,001,2022-11-21_01h00.58.595,Info_measure_main_exp,2022.2.2,Win32,59.90893841,,,,,,,,,,,,,,,,,,masks/mask_005.jpg,,,,,,,,,,,,,,,,,,,,,,,,,,,,,,,,,,,,,,,,,,,0,1,1,4,1,,,,,,,,,,,,,,,,,,,,,,,,,,,,,,,,,,,,,,,,,,,,,,
652630,001,2022-11-21_01h00.58.595,Info_measure_main_exp,2022.2.2,Win32,59.90893841,,,,,,,,,,,,,,,,,,masks/mask_004.jpg,,,,,,,,,,,,,,,,,,,,,,,,,,,,,,,,,,,,,,,,,,,0,2,2,3,1,,,,,,,,,,,,,,,,,,,,,,,,,,,,,,,,,,,,,,,,,,,,,,
652630,001,2022-11-21_01h00.58.595,Info_measure_main_exp,2022.2.2,Win32,59.90893841,,,,,,,,,,,,,,,,,,masks/mask_001.jpg,,,,,,,,,,,,,,,,,,,,,,,,,,,,,,,,,,,,,,,,,,,0,3,3,0,1,,,,,,,,,,,,,,,,,,,,,,,,,,,,,,,,,,,,,,,,,,,,,,
652630,001,2022-11-21_01h00.58.595,Info_measure_main_exp,2022.2.2,Win32,59.90893841,,,,,,,,,,,,,,,,,,masks/mask_003.jpg,,,,,,,,,,,,,,,,,,,,,,,,,,,,,,,,,,,,,,,,,,,0,4,4,2,1,,,,,,,,,,,,,,,,,,,,,,,,,,,,,,,,,,,,,,,,,,,,,,
652630,001,2022-11-21_01h00.58.595,Info_measure_main_exp,2022.2.2,Win32,59.90893841,,,,,,,,,,,,,,,,,,masks/mask_005.jpg,,,,,,,,,,,,,,,,,,,,,,,,,,,,,,,,,,,,,,,,,,,,,,,,0,0,0,4,1,,,,,,,,,,,,,,,,,,,,,,,,,,,,,,,,,,,,,,,,,
652630,001,2022-11-21_01h00.58.595,Info_measure_main_exp,2022.2.2,Win32,59.90893841,,,,,,,,,,,,,,,,,,masks/mask_001.jpg,,,,,,,,,,,,,,,,,,,,,,,,,,,,,,,,,,,,,,,,,,,,,,,,0,1,1,0,1,,,,,,,,,,,,,,,,,,,,,,,,,,,,,,,,,,,,,,,,,
652630,001,2022-11-21_01h00.58.595,Info_measure_main_exp,2022.2.2,Win32,59.90893841,,,,,,,,,,,,,,,,,,masks/mask_002.jpg,,,,,,,,,,,,,,,,,,,,,,,,,,,,,,,,,,,,,,,,,,,,,,,,0,2,2,1,1,,,,,,,,,,,,,,,,,,,,,,,,,,,,,,,,,,,,,,,,,
652630,001,2022-11-21_01h00.58.595,Info_measure_main_exp,2022.2.2,Win32,59.90893841,,,,,,,,,,,,,,,,,,masks/mask_003.jpg,,,,,,,,,,,,,,,,,,,,,,,,,,,,,,,,,,,,,,,,,,,,,,,,0,3,3,2,1,,,,,,,,,,,,,,,,,,,,,,,,,,,,,,,,,,,,,,,,,
652630,001,2022-11-21_01h00.58.595,Info_measure_main_exp,2022.2.2,Win32,59.90893841,,,,,,,,,,,,,,,,,,masks/mask_004.jpg,,,,,,,,,,,,,,,,,,,,,,,,,,,,,,,,,,,,,,,,,,,,,,,,0,4,4,3,1,,,,,,,,,,,,,,,,,,,,,,,,,,,,,,,,,,,,,,,,,
652630,001,2022-11-21_01h00.58.595,Info_measure_main_exp,2022.2.2,Win32,59.90893841,,,,,,,,,,,,,,,,,,,,,,,,,,,,,,5,4.1911,1,,,,,,,,,,,,0,131,5,5,2274,2178,absent_patch/patch0002274.jpg,absent_patch/patch0002178.jpg,,,,,,,,,,,,,,,,,,,,0.115,-0.044500008,1,0,0,response3disk,28,0.005,0.0075,1,0,0,center_square,0,27,27,117,1,,,,,,,,,,,,,,,,,,,,,,,
652630,001,2022-11-21_01h00.58.595,Info_measure_main_exp,2022.2.2,Win32,59.90893841,,,,,,,,,,,,,,,,,,masks/mask_002.jpg,,,,,,,,,,,,,,,,,,,,,,,,,,,,,,,,,,,,,,,,,,,0,0,0,1,1,,,,,,,,,,,,,,,,,,,,,,,,,,,,,,,,,,,,,,,,,,,,,,
652630,001,2022-11-21_01h00.58.595,Info_measure_main_exp,2022.2.2,Win32,59.90893841,,,,,,,,,,,,,,,,,,masks/mask_005.jpg,,,,,,,,,,,,,,,,,,,,,,,,,,,,,,,,,,,,,,,,,,,0,1,1,4,1,,,,,,,,,,,,,,,,,,,,,,,,,,,,,,,,,,,,,,,,,,,,,,
652630,001,2022-11-21_01h00.58.595,Info_measure_main_exp,2022.2.2,Win32,59.90893841,,,,,,,,,,,,,,,,,,masks/mask_003.jpg,,,,,,,,,,,,,,,,,,,,,,,,,,,,,,,,,,,,,,,,,,,0,2,2,2,1,,,,,,,,,,,,,,,,,,,,,,,,,,,,,,,,,,,,,,,,,,,,,,
652630,001,2022-11-21_01h00.58.595,Info_measure_main_exp,2022.2.2,Win32,59.90893841,,,,,,,,,,,,,,,,,,masks/mask_004.jpg,,,,,,,,,,,,,,,,,,,,,,,,,,,,,,,,,,,,,,,,,,,0,3,3,3,1,,,,,,,,,,,,,,,,,,,,,,,,,,,,,,,,,,,,,,,,,,,,,,
652630,001,2022-11-21_01h00.58.595,Info_measure_main_exp,2022.2.2,Win32,59.90893841,,,,,,,,,,,,,,,,,,masks/mask_001.jpg,,,,,,,,,,,,,,,,,,,,,,,,,,,,,,,,,,,,,,,,,,,0,4,4,0,1,,,,,,,,,,,,,,,,,,,,,,,,,,,,,,,,,,,,,,,,,,,,,,
652630,001,2022-11-21_01h00.58.595,Info_measure_main_exp,2022.2.2,Win32,59.90893841,,,,,,,,,,,,,,,,,,masks/mask_003.jpg,,,,,,,,,,,,,,,,,,,,,,,,,,,,,,,,,,,,,,,,,,,,,,,,0,0,0,2,1,,,,,,,,,,,,,,,,,,,,,,,,,,,,,,,,,,,,,,,,,
652630,001,2022-11-21_01h00.58.595,Info_measure_main_exp,2022.2.2,Win32,59.90893841,,,,,,,,,,,,,,,,,,masks/mask_002.jpg,,,,,,,,,,,,,,,,,,,,,,,,,,,,,,,,,,,,,,,,,,,,,,,,0,1,1,1,1,,,,,,,,,,,,,,,,,,,,,,,,,,,,,,,,,,,,,,,,,
652630,001,2022-11-21_01h00.58.595,Info_measure_main_exp,2022.2.2,Win32,59.90893841,,,,,,,,,,,,,,,,,,masks/mask_001.jpg,,,,,,,,,,,,,,,,,,,,,,,,,,,,,,,,,,,,,,,,,,,,,,,,0,2,2,0,1,,,,,,,,,,,,,,,,,,,,,,,,,,,,,,,,,,,,,,,,,
652630,001,2022-11-21_01h00.58.595,Info_measure_main_exp,2022.2.2,Win32,59.90893841,,,,,,,,,,,,,,,,,,masks/mask_005.jpg,,,,,,,,,,,,,,,,,,,,,,,,,,,,,,,,,,,,,,,,,,,,,,,,0,3,3,4,1,,,,,,,,,,,,,,,,,,,,,,,,,,,,,,,,,,,,,,,,,
652630,001,2022-11-21_01h00.58.595,Info_measure_main_exp,2022.2.2,Win32,59.90893841,,,,,,,,,,,,,,,,,,masks/mask_004.jpg,,,,,,,,,,,,,,,,,,,,,,,,,,,,,,,,,,,,,,,,,,,,,,,,0,4,4,3,1,,,,,,,,,,,,,,,,,,,,,,,,,,,,,,,,,,,,,,,,,
652630,001,2022-11-21_01h00.58.595,Info_measure_main_exp,2022.2.2,Win32,59.90893841,,,,,,,,,,,,,,,,,,,,,,,,,,,,,,6,1.3208,1,,,,,,,,,,,,0,131,5,5,1974,2238,absent_patch/patch0001974.jpg,absent_patch/patch0002238.jpg,,,,,,,,,,,,,,,,,,,,0.106500015,0.044500008,1,0,0,response1disk,29,0.007000046,0.002000008,1,0,0,center_square,0,28,28,95,1,,,,,,,,,,,,,,,,,,,,,,,
652630,001,2022-11-21_01h00.58.595,Info_measure_main_exp,2022.2.2,Win32,59.90893841,,,,,,,,,,,,,,,,,,masks/mask_001.jpg,,,,,,,,,,,,,,,,,,,,,,,,,,,,,,,,,,,,,,,,,,,0,0,0,0,1,,,,,,,,,,,,,,,,,,,,,,,,,,,,,,,,,,,,,,,,,,,,,,
652630,001,2022-11-21_01h00.58.595,Info_measure_main_exp,2022.2.2,Win32,59.90893841,,,,,,,,,,,,,,,,,,masks/mask_004.jpg,,,,,,,,,,,,,,,,,,,,,,,,,,,,,,,,,,,,,,,,,,,0,1,1,3,1,,,,,,,,,,,,,,,,,,,,,,,,,,,,,,,,,,,,,,,,,,,,,,
652630,001,2022-11-21_01h00.58.595,Info_measure_main_exp,2022.2.2,Win32,59.90893841,,,,,,,,,,,,,,,,,,masks/mask_002.jpg,,,,,,,,,,,,,,,,,,,,,,,,,,,,,,,,,,,,,,,,,,,0,2,2,1,1,,,,,,,,,,,,,,,,,,,,,,,,,,,,,,,,,,,,,,,,,,,,,,
652630,001,2022-11-21_01h00.58.595,Info_measure_main_exp,2022.2.2,Win32,59.90893841,,,,,,,,,,,,,,,,,,masks/mask_003.jpg,,,,,,,,,,,,,,,,,,,,,,,,,,,,,,,,,,,,,,,,,,,0,3,3,2,1,,,,,,,,,,,,,,,,,,,,,,,,,,,,,,,,,,,,,,,,,,,,,,
652630,001,2022-11-21_01h00.58.595,Info_measure_main_exp,2022.2.2,Win32,59.90893841,,,,,,,,,,,,,,,,,,masks/mask_005.jpg,,,,,,,,,,,,,,,,,,,,,,,,,,,,,,,,,,,,,,,,,,,0,4,4,4,1,,,,,,,,,,,,,,,,,,,,,,,,,,,,,,,,,,,,,,,,,,,,,,
652630,001,2022-11-21_01h00.58.595,Info_measure_main_exp,2022.2.2,Win32,59.90893841,,,,,,,,,,,,,,,,,,masks/mask_002.jpg,,,,,,,,,,,,,,,,,,,,,,,,,,,,,,,,,,,,,,,,,,,,,,,,0,0,0,1,1,,,,,,,,,,,,,,,,,,,,,,,,,,,,,,,,,,,,,,,,,
652630,001,2022-11-21_01h00.58.595,Info_measure_main_exp,2022.2.2,Win32,59.90893841,,,,,,,,,,,,,,,,,,masks/mask_003.jpg,,,,,,,,,,,,,,,,,,,,,,,,,,,,,,,,,,,,,,,,,,,,,,,,0,1,1,2,1,,,,,,,,,,,,,,,,,,,,,,,,,,,,,,,,,,,,,,,,,
652630,001,2022-11-21_01h00.58.595,Info_measure_main_exp,2022.2.2,Win32,59.90893841,,,,,,,,,,,,,,,,,,masks/mask_001.jpg,,,,,,,,,,,,,,,,,,,,,,,,,,,,,,,,,,,,,,,,,,,,,,,,0,2,2,0,1,,,,,,,,,,,,,,,,,,,,,,,,,,,,,,,,,,,,,,,,,
652630,001,2022-11-21_01h00.58.595,Info_measure_main_exp,2022.2.2,Win32,59.90893841,,,,,,,,,,,,,,,,,,masks/mask_005.jpg,,,,,,,,,,,,,,,,,,,,,,,,,,,,,,,,,,,,,,,,,,,,,,,,0,3,3,4,1,,,,,,,,,,,,,,,,,,,,,,,,,,,,,,,,,,,,,,,,,
652630,001,2022-11-21_01h00.58.595,Info_measure_main_exp,2022.2.2,Win32,59.90893841,,,,,,,,,,,,,,,,,,masks/mask_004.jpg,,,,,,,,,,,,,,,,,,,,,,,,,,,,,,,,,,,,,,,,,,,,,,,,0,4,4,3,1,,,,,,,,,,,,,,,,,,,,,,,,,,,,,,,,,,,,,,,,,
652630,001,2022-11-21_01h00.58.595,Info_measure_main_exp,2022.2.2,Win32,59.90893841,,,,,,,,,,,,,,,,,,,,,,,,,,,,,,0,0.6902,1,,,,,,,,,,,,1,131,5,5,1,1,present_patch/cong_131_5_a.jpg,present_patch/cong_131_5_a.jpg,,,,,,,,,,,,,,,,,,,,-0.054499969,0.094500008,1,0,0,response7disk,30,-0.000999985,-0.002000008,1,0,0,center_square,0,29,29,30,1,,,,,,,,,,,,,,,,,,,,,,,
652630,001,2022-11-21_01h00.58.595,Info_measure_main_exp,2022.2.2,Win32,59.90893841,,,,,,,,,,,,,,,,,,masks/mask_004.jpg,,,,,,,,,,,,,,,,,,,,,,,,,,,,,,,,,,,,,,,,,,,0,0,0,3,1,,,,,,,,,,,,,,,,,,,,,,,,,,,,,,,,,,,,,,,,,,,,,,
652630,001,2022-11-21_01h00.58.595,Info_measure_main_exp,2022.2.2,Win32,59.90893841,,,,,,,,,,,,,,,,,,masks/mask_003.jpg,,,,,,,,,,,,,,,,,,,,,,,,,,,,,,,,,,,,,,,,,,,0,1,1,2,1,,,,,,,,,,,,,,,,,,,,,,,,,,,,,,,,,,,,,,,,,,,,,,
652630,001,2022-11-21_01h00.58.595,Info_measure_main_exp,2022.2.2,Win32,59.90893841,,,,,,,,,,,,,,,,,,masks/mask_002.jpg,,,,,,,,,,,,,,,,,,,,,,,,,,,,,,,,,,,,,,,,,,,0,2,2,1,1,,,,,,,,,,,,,,,,,,,,,,,,,,,,,,,,,,,,,,,,,,,,,,
652630,001,2022-11-21_01h00.58.595,Info_measure_main_exp,2022.2.2,Win32,59.90893841,,,,,,,,,,,,,,,,,,masks/mask_001.jpg,,,,,,,,,,,,,,,,,,,,,,,,,,,,,,,,,,,,,,,,,,,0,3,3,0,1,,,,,,,,,,,,,,,,,,,,,,,,,,,,,,,,,,,,,,,,,,,,,,
652630,001,2022-11-21_01h00.58.595,Info_measure_main_exp,2022.2.2,Win32,59.90893841,,,,,,,,,,,,,,,,,,masks/mask_005.jpg,,,,,,,,,,,,,,,,,,,,,,,,,,,,,,,,,,,,,,,,,,,0,4,4,4,1,,,,,,,,,,,,,,,,,,,,,,,,,,,,,,,,,,,,,,,,,,,,,,
652630,001,2022-11-21_01h00.58.595,Info_measure_main_exp,2022.2.2,Win32,59.90893841,,,,,,,,,,,,,,,,,,masks/mask_004.jpg,,,,,,,,,,,,,,,,,,,,,,,,,,,,,,,,,,,,,,,,,,,,,,,,0,0,0,3,1,,,,,,,,,,,,,,,,,,,,,,,,,,,,,,,,,,,,,,,,,
652630,001,2022-11-21_01h00.58.595,Info_measure_main_exp,2022.2.2,Win32,59.90893841,,,,,,,,,,,,,,,,,,masks/mask_005.jpg,,,,,,,,,,,,,,,,,,,,,,,,,,,,,,,,,,,,,,,,,,,,,,,,0,1,1,4,1,,,,,,,,,,,,,,,,,,,,,,,,,,,,,,,,,,,,,,,,,
652630,001,2022-11-21_01h00.58.595,Info_measure_main_exp,2022.2.2,Win32,59.90893841,,,,,,,,,,,,,,,,,,masks/mask_002.jpg,,,,,,,,,,,,,,,,,,,,,,,,,,,,,,,,,,,,,,,,,,,,,,,,0,2,2,1,1,,,,,,,,,,,,,,,,,,,,,,,,,,,,,,,,,,,,,,,,,
652630,001,2022-11-21_01h00.58.595,Info_measure_main_exp,2022.2.2,Win32,59.90893841,,,,,,,,,,,,,,,,,,masks/mask_001.jpg,,,,,,,,,,,,,,,,,,,,,,,,,,,,,,,,,,,,,,,,,,,,,,,,0,3,3,0,1,,,,,,,,,,,,,,,,,,,,,,,,,,,,,,,,,,,,,,,,,
652630,001,2022-11-21_01h00.58.595,Info_measure_main_exp,2022.2.2,Win32,59.90893841,,,,,,,,,,,,,,,,,,masks/mask_003.jpg,,,,,,,,,,,,,,,,,,,,,,,,,,,,,,,,,,,,,,,,,,,,,,,,0,4,4,2,1,,,,,,,,,,,,,,,,,,,,,,,,,,,,,,,,,,,,,,,,,
652630,001,2022-11-21_01h00.58.595,Info_measure_main_exp,2022.2.2,Win32,59.90893841,,,,,,,,,,,,,,,,,,,,,,,,,,,,,,4,2.5491,1,,,,,,,,,,,,0,131,5,5,2142,2238,absent_patch/patch0002142.jpg,absent_patch/patch0002238.jpg,,,,,,,,,,,,,,,,,,,,0.014500046,-0.057000008,1,0,0,response3disk,31,-0.000999985,-0.000499992,1,0,0,center_square,0,30,30,101,1,,,,,,,,,,,,,,,,,,,,,,,
652630,001,2022-11-21_01h00.58.595,Info_measure_main_exp,2022.2.2,Win32,59.90893841,,,,,,,,,,,,,,,,,,masks/mask_005.jpg,,,,,,,,,,,,,,,,,,,,,,,,,,,,,,,,,,,,,,,,,,,0,0,0,4,1,,,,,,,,,,,,,,,,,,,,,,,,,,,,,,,,,,,,,,,,,,,,,,
652630,001,2022-11-21_01h00.58.595,Info_measure_main_exp,2022.2.2,Win32,59.90893841,,,,,,,,,,,,,,,,,,masks/mask_004.jpg,,,,,,,,,,,,,,,,,,,,,,,,,,,,,,,,,,,,,,,,,,,0,1,1,3,1,,,,,,,,,,,,,,,,,,,,,,,,,,,,,,,,,,,,,,,,,,,,,,
652630,001,2022-11-21_01h00.58.595,Info_measure_main_exp,2022.2.2,Win32,59.90893841,,,,,,,,,,,,,,,,,,masks/mask_002.jpg,,,,,,,,,,,,,,,,,,,,,,,,,,,,,,,,,,,,,,,,,,,0,2,2,1,1,,,,,,,,,,,,,,,,,,,,,,,,,,,,,,,,,,,,,,,,,,,,,,
652630,001,2022-11-21_01h00.58.595,Info_measure_main_exp,2022.2.2,Win32,59.90893841,,,,,,,,,,,,,,,,,,masks/mask_001.jpg,,,,,,,,,,,,,,,,,,,,,,,,,,,,,,,,,,,,,,,,,,,0,3,3,0,1,,,,,,,,,,,,,,,,,,,,,,,,,,,,,,,,,,,,,,,,,,,,,,
652630,001,2022-11-21_01h00.58.595,Info_measure_main_exp,2022.2.2,Win32,59.90893841,,,,,,,,,,,,,,,,,,masks/mask_003.jpg,,,,,,,,,,,,,,,,,,,,,,,,,,,,,,,,,,,,,,,,,,,0,4,4,2,1,,,,,,,,,,,,,,,,,,,,,,,,,,,,,,,,,,,,,,,,,,,,,,
652630,001,2022-11-21_01h00.58.595,Info_measure_main_exp,2022.2.2,Win32,59.90893841,,,,,,,,,,,,,,,,,,masks/mask_003.jpg,,,,,,,,,,,,,,,,,,,,,,,,,,,,,,,,,,,,,,,,,,,,,,,,0,0,0,2,1,,,,,,,,,,,,,,,,,,,,,,,,,,,,,,,,,,,,,,,,,
652630,001,2022-11-21_01h00.58.595,Info_measure_main_exp,2022.2.2,Win32,59.90893841,,,,,,,,,,,,,,,,,,masks/mask_005.jpg,,,,,,,,,,,,,,,,,,,,,,,,,,,,,,,,,,,,,,,,,,,,,,,,0,1,1,4,1,,,,,,,,,,,,,,,,,,,,,,,,,,,,,,,,,,,,,,,,,
652630,001,2022-11-21_01h00.58.595,Info_measure_main_exp,2022.2.2,Win32,59.90893841,,,,,,,,,,,,,,,,,,masks/mask_002.jpg,,,,,,,,,,,,,,,,,,,,,,,,,,,,,,,,,,,,,,,,,,,,,,,,0,2,2,1,1,,,,,,,,,,,,,,,,,,,,,,,,,,,,,,,,,,,,,,,,,
652630,001,2022-11-21_01h00.58.595,Info_measure_main_exp,2022.2.2,Win32,59.90893841,,,,,,,,,,,,,,,,,,masks/mask_001.jpg,,,,,,,,,,,,,,,,,,,,,,,,,,,,,,,,,,,,,,,,,,,,,,,,0,3,3,0,1,,,,,,,,,,,,,,,,,,,,,,,,,,,,,,,,,,,,,,,,,
652630,001,2022-11-21_01h00.58.595,Info_measure_main_exp,2022.2.2,Win32,59.90893841,,,,,,,,,,,,,,,,,,masks/mask_004.jpg,,,,,,,,,,,,,,,,,,,,,,,,,,,,,,,,,,,,,,,,,,,,,,,,0,4,4,3,1,,,,,,,,,,,,,,,,,,,,,,,,,,,,,,,,,,,,,,,,,
652630,001,2022-11-21_01h00.58.595,Info_measure_main_exp,2022.2.2,Win32,59.90893841,,,,,,,,,,,,,,,,,,,,,,,,,,,,,,6,1.2597,1,,,,,,,,,,,,0,131,5,5,2154,2190,absent_patch/patch0002154.jpg,absent_patch/patch0002190.jpg,,,,,,,,,,,,,,,,,,,,0.169500046,0.028999977,1,0,0,response1disk,32,-0.000999985,-0.005,1,0,0,center_square,0,31,31,68,1,,,,,,,,,,,,,,,,,,,,,,,
652630,001,2022-11-21_01h00.58.595,Info_measure_main_exp,2022.2.2,Win32,59.90893841,,,,,,,,,,,,,,,,,,masks/mask_004.jpg,,,,,,,,,,,,,,,,,,,,,,,,,,,,,,,,,,,,,,,,,,,0,0,0,3,1,,,,,,,,,,,,,,,,,,,,,,,,,,,,,,,,,,,,,,,,,,,,,,
652630,001,2022-11-21_01h00.58.595,Info_measure_main_exp,2022.2.2,Win32,59.90893841,,,,,,,,,,,,,,,,,,masks/mask_005.jpg,,,,,,,,,,,,,,,,,,,,,,,,,,,,,,,,,,,,,,,,,,,0,1,1,4,1,,,,,,,,,,,,,,,,,,,,,,,,,,,,,,,,,,,,,,,,,,,,,,
652630,001,2022-11-21_01h00.58.595,Info_measure_main_exp,2022.2.2,Win32,59.90893841,,,,,,,,,,,,,,,,,,masks/mask_002.jpg,,,,,,,,,,,,,,,,,,,,,,,,,,,,,,,,,,,,,,,,,,,0,2,2,1,1,,,,,,,,,,,,,,,,,,,,,,,,,,,,,,,,,,,,,,,,,,,,,,
652630,001,2022-11-21_01h00.58.595,Info_measure_main_exp,2022.2.2,Win32,59.90893841,,,,,,,,,,,,,,,,,,masks/mask_001.jpg,,,,,,,,,,,,,,,,,,,,,,,,,,,,,,,,,,,,,,,,,,,0,3,3,0,1,,,,,,,,,,,,,,,,,,,,,,,,,,,,,,,,,,,,,,,,,,,,,,
652630,001,2022-11-21_01h00.58.595,Info_measure_main_exp,2022.2.2,Win32,59.90893841,,,,,,,,,,,,,,,,,,masks/mask_003.jpg,,,,,,,,,,,,,,,,,,,,,,,,,,,,,,,,,,,,,,,,,,,0,4,4,2,1,,,,,,,,,,,,,,,,,,,,,,,,,,,,,,,,,,,,,,,,,,,,,,
652630,001,2022-11-21_01h00.58.595,Info_measure_main_exp,2022.2.2,Win32,59.90893841,,,,,,,,,,,,,,,,,,masks/mask_003.jpg,,,,,,,,,,,,,,,,,,,,,,,,,,,,,,,,,,,,,,,,,,,,,,,,0,0,0,2,1,,,,,,,,,,,,,,,,,,,,,,,,,,,,,,,,,,,,,,,,,
652630,001,2022-11-21_01h00.58.595,Info_measure_main_exp,2022.2.2,Win32,59.90893841,,,,,,,,,,,,,,,,,,masks/mask_004.jpg,,,,,,,,,,,,,,,,,,,,,,,,,,,,,,,,,,,,,,,,,,,,,,,,0,1,1,3,1,,,,,,,,,,,,,,,,,,,,,,,,,,,,,,,,,,,,,,,,,
652630,001,2022-11-21_01h00.58.595,Info_measure_main_exp,2022.2.2,Win32,59.90893841,,,,,,,,,,,,,,,,,,masks/mask_005.jpg,,,,,,,,,,,,,,,,,,,,,,,,,,,,,,,,,,,,,,,,,,,,,,,,0,2,2,4,1,,,,,,,,,,,,,,,,,,,,,,,,,,,,,,,,,,,,,,,,,
652630,001,2022-11-21_01h00.58.595,Info_measure_main_exp,2022.2.2,Win32,59.90893841,,,,,,,,,,,,,,,,,,masks/mask_002.jpg,,,,,,,,,,,,,,,,,,,,,,,,,,,,,,,,,,,,,,,,,,,,,,,,0,3,3,1,1,,,,,,,,,,,,,,,,,,,,,,,,,,,,,,,,,,,,,,,,,
652630,001,2022-11-21_01h00.58.595,Info_measure_main_exp,2022.2.2,Win32,59.90893841,,,,,,,,,,,,,,,,,,masks/mask_001.jpg,,,,,,,,,,,,,,,,,,,,,,,,,,,,,,,,,,,,,,,,,,,,,,,,0,4,4,0,1,,,,,,,,,,,,,,,,,,,,,,,,,,,,,,,,,,,,,,,,,
652630,001,2022-11-21_01h00.58.595,Info_measure_main_exp,2022.2.2,Win32,59.90893841,,,,,,,,,,,,,,,,,,,,,,,,,,,,,,6,0.9316,1,,,,,,,,,,,,0,131,5,5,2214,1986,absent_patch/patch0002214.jpg,absent_patch/patch0001986.jpg,,,,,,,,,,,,,,,,,,,,0.125999985,0.044500008,1,0,0,response1disk,33,0.001500015,0.003499985,1,0,0,center_square,0,32,32,34,1,,,,,,,,,,,,,,,,,,,,,,,
652630,001,2022-11-21_01h00.58.595,Info_measure_main_exp,2022.2.2,Win32,59.90893841,,,,,,,,,,,,,,,,,,masks/mask_005.jpg,,,,,,,,,,,,,,,,,,,,,,,,,,,,,,,,,,,,,,,,,,,0,0,0,4,1,,,,,,,,,,,,,,,,,,,,,,,,,,,,,,,,,,,,,,,,,,,,,,
652630,001,2022-11-21_01h00.58.595,Info_measure_main_exp,2022.2.2,Win32,59.90893841,,,,,,,,,,,,,,,,,,masks/mask_004.jpg,,,,,,,,,,,,,,,,,,,,,,,,,,,,,,,,,,,,,,,,,,,0,1,1,3,1,,,,,,,,,,,,,,,,,,,,,,,,,,,,,,,,,,,,,,,,,,,,,,
652630,001,2022-11-21_01h00.58.595,Info_measure_main_exp,2022.2.2,Win32,59.90893841,,,,,,,,,,,,,,,,,,masks/mask_002.jpg,,,,,,,,,,,,,,,,,,,,,,,,,,,,,,,,,,,,,,,,,,,0,2,2,1,1,,,,,,,,,,,,,,,,,,,,,,,,,,,,,,,,,,,,,,,,,,,,,,
652630,001,2022-11-21_01h00.58.595,Info_measure_main_exp,2022.2.2,Win32,59.90893841,,,,,,,,,,,,,,,,,,masks/mask_003.jpg,,,,,,,,,,,,,,,,,,,,,,,,,,,,,,,,,,,,,,,,,,,0,3,3,2,1,,,,,,,,,,,,,,,,,,,,,,,,,,,,,,,,,,,,,,,,,,,,,,
652630,001,2022-11-21_01h00.58.595,Info_measure_main_exp,2022.2.2,Win32,59.90893841,,,,,,,,,,,,,,,,,,masks/mask_001.jpg,,,,,,,,,,,,,,,,,,,,,,,,,,,,,,,,,,,,,,,,,,,0,4,4,0,1,,,,,,,,,,,,,,,,,,,,,,,,,,,,,,,,,,,,,,,,,,,,,,
652630,001,2022-11-21_01h00.58.595,Info_measure_main_exp,2022.2.2,Win32,59.90893841,,,,,,,,,,,,,,,,,,masks/mask_005.jpg,,,,,,,,,,,,,,,,,,,,,,,,,,,,,,,,,,,,,,,,,,,,,,,,0,0,0,4,1,,,,,,,,,,,,,,,,,,,,,,,,,,,,,,,,,,,,,,,,,
652630,001,2022-11-21_01h00.58.595,Info_measure_main_exp,2022.2.2,Win32,59.90893841,,,,,,,,,,,,,,,,,,masks/mask_002.jpg,,,,,,,,,,,,,,,,,,,,,,,,,,,,,,,,,,,,,,,,,,,,,,,,0,1,1,1,1,,,,,,,,,,,,,,,,,,,,,,,,,,,,,,,,,,,,,,,,,
652630,001,2022-11-21_01h00.58.595,Info_measure_main_exp,2022.2.2,Win32,59.90893841,,,,,,,,,,,,,,,,,,masks/mask_001.jpg,,,,,,,,,,,,,,,,,,,,,,,,,,,,,,,,,,,,,,,,,,,,,,,,0,2,2,0,1,,,,,,,,,,,,,,,,,,,,,,,,,,,,,,,,,,,,,,,,,
652630,001,2022-11-21_01h00.58.595,Info_measure_main_exp,2022.2.2,Win32,59.90893841,,,,,,,,,,,,,,,,,,masks/mask_003.jpg,,,,,,,,,,,,,,,,,,,,,,,,,,,,,,,,,,,,,,,,,,,,,,,,0,3,3,2,1,,,,,,,,,,,,,,,,,,,,,,,,,,,,,,,,,,,,,,,,,
652630,001,2022-11-21_01h00.58.595,Info_measure_main_exp,2022.2.2,Win32,59.90893841,,,,,,,,,,,,,,,,,,masks/mask_004.jpg,,,,,,,,,,,,,,,,,,,,,,,,,,,,,,,,,,,,,,,,,,,,,,,,0,4,4,3,1,,,,,,,,,,,,,,,,,,,,,,,,,,,,,,,,,,,,,,,,,
652630,001,2022-11-21_01h00.58.595,Info_measure_main_exp,2022.2.2,Win32,59.90893841,,,,,,,,,,,,,,,,,,,,,,,,,,,,,,6,2.2541,1,,,,,,,,,,,,0,131,5,5,2154,2250,absent_patch/patch0002154.jpg,absent_patch/patch0002250.jpg,,,,,,,,,,,,,,,,,,,,0.095,0.063499985,1,0,0,response1disk,34,0.000999985,0.001499977,1,0,0,center_square,0,33,33,108,1,,,,,,,,,,,,,,,,,,,,,,,
652630,001,2022-11-21_01h00.58.595,Info_measure_main_exp,2022.2.2,Win32,59.90893841,,,,,,,,,,,,,,,,,,masks/mask_004.jpg,,,,,,,,,,,,,,,,,,,,,,,,,,,,,,,,,,,,,,,,,,,0,0,0,3,1,,,,,,,,,,,,,,,,,,,,,,,,,,,,,,,,,,,,,,,,,,,,,,
652630,001,2022-11-21_01h00.58.595,Info_measure_main_exp,2022.2.2,Win32,59.90893841,,,,,,,,,,,,,,,,,,masks/mask_003.jpg,,,,,,,,,,,,,,,,,,,,,,,,,,,,,,,,,,,,,,,,,,,0,1,1,2,1,,,,,,,,,,,,,,,,,,,,,,,,,,,,,,,,,,,,,,,,,,,,,,
652630,001,2022-11-21_01h00.58.595,Info_measure_main_exp,2022.2.2,Win32,59.90893841,,,,,,,,,,,,,,,,,,masks/mask_001.jpg,,,,,,,,,,,,,,,,,,,,,,,,,,,,,,,,,,,,,,,,,,,0,2,2,0,1,,,,,,,,,,,,,,,,,,,,,,,,,,,,,,,,,,,,,,,,,,,,,,
652630,001,2022-11-21_01h00.58.595,Info_measure_main_exp,2022.2.2,Win32,59.90893841,,,,,,,,,,,,,,,,,,masks/mask_002.jpg,,,,,,,,,,,,,,,,,,,,,,,,,,,,,,,,,,,,,,,,,,,0,3,3,1,1,,,,,,,,,,,,,,,,,,,,,,,,,,,,,,,,,,,,,,,,,,,,,,
652630,001,2022-11-21_01h00.58.595,Info_measure_main_exp,2022.2.2,Win32,59.90893841,,,,,,,,,,,,,,,,,,masks/mask_005.jpg,,,,,,,,,,,,,,,,,,,,,,,,,,,,,,,,,,,,,,,,,,,0,4,4,4,1,,,,,,,,,,,,,,,,,,,,,,,,,,,,,,,,,,,,,,,,,,,,,,
652630,001,2022-11-21_01h00.58.595,Info_measure_main_exp,2022.2.2,Win32,59.90893841,,,,,,,,,,,,,,,,,,masks/mask_005.jpg,,,,,,,,,,,,,,,,,,,,,,,,,,,,,,,,,,,,,,,,,,,,,,,,0,0,0,4,1,,,,,,,,,,,,,,,,,,,,,,,,,,,,,,,,,,,,,,,,,
652630,001,2022-11-21_01h00.58.595,Info_measure_main_exp,2022.2.2,Win32,59.90893841,,,,,,,,,,,,,,,,,,masks/mask_003.jpg,,,,,,,,,,,,,,,,,,,,,,,,,,,,,,,,,,,,,,,,,,,,,,,,0,1,1,2,1,,,,,,,,,,,,,,,,,,,,,,,,,,,,,,,,,,,,,,,,,
652630,001,2022-11-21_01h00.58.595,Info_measure_main_exp,2022.2.2,Win32,59.90893841,,,,,,,,,,,,,,,,,,masks/mask_001.jpg,,,,,,,,,,,,,,,,,,,,,,,,,,,,,,,,,,,,,,,,,,,,,,,,0,2,2,0,1,,,,,,,,,,,,,,,,,,,,,,,,,,,,,,,,,,,,,,,,,
652630,001,2022-11-21_01h00.58.595,Info_measure_main_exp,2022.2.2,Win32,59.90893841,,,,,,,,,,,,,,,,,,masks/mask_002.jpg,,,,,,,,,,,,,,,,,,,,,,,,,,,,,,,,,,,,,,,,,,,,,,,,0,3,3,1,1,,,,,,,,,,,,,,,,,,,,,,,,,,,,,,,,,,,,,,,,,
