participant,session,date,expName,psychopyVersion,OS,frameRate,space_press_continue.keys,space_press_continue.rt,space_press_continue_2.keys,space_press_continue_2.rt,space_press_continue_3.keys,space_press_continue_3.rt,space_press_continue_4.keys,space_press_continue_4.rt,space_press_continue_5.keys,space_press_continue_5.rt,space_press_continue_6.keys,space_press_continue_6.rt,prac_mask_loop_1.thisRepN,prac_mask_loop_1.thisTrialN,prac_mask_loop_1.thisN,prac_mask_loop_1.thisIndex,prac_mask_loop_1.ran,mask_name,prac_mask_loop_2.thisRepN,prac_mask_loop_2.thisTrialN,prac_mask_loop_2.thisN,prac_mask_loop_2.thisIndex,prac_mask_loop_2.ran,mouse_2.x,mouse_2.y,mouse_2.leftButton,mouse_2.midButton,mouse_2.rightButton,mouse_2.clicked_name,similarity,response_time,Pass,mouse_12.x,mouse_12.y,mouse_12.leftButton,mouse_12.midButton,mouse_12.rightButton,mouse_12.clicked_name,prac_loop.thisRepN,prac_loop.thisTrialN,prac_loop.thisN,prac_loop.thisIndex,prac_loop.ran,Pair_type,Image_num,Patch_1_loc,Patch_2_loc,Patch_1_info,Patch_2_info,Patch_1_name,Patch_2_name,mouse_1.x,mouse_1.y,mouse_1.leftButton,mouse_1.midButton,mouse_1.rightButton,mouse_1.time,mouse_1.clicked_name,space_press_continue_7.keys,space_press_continue_7.rt,mask_loop.thisRepN,mask_loop.thisTrialN,mask_loop.thisN,mask_loop.thisIndex,mask_loop.ran,mask_loop_2.thisRepN,mask_loop_2.thisTrialN,mask_loop_2.thisN,mask_loop_2.thisIndex,mask_loop_2.ran,mouse.x,mouse.y,mouse.leftButton,mouse.midButton,mouse.rightButton,mouse.clicked_name,trialNumber,mouse_11.x,mouse_11.y,mouse_11.leftButton,mouse_11.midButton,mouse_11.rightButton,mouse_11.clicked_name,first_pass_loop.thisRepN,first_pass_loop.thisTrialN,first_pass_loop.thisN,first_pass_loop.thisIndex,first_pass_loop.ran,mask_loop_3.thisRepN,mask_loop_3.thisTrialN,mask_loop_3.thisN,mask_loop_3.thisIndex,mask_loop_3.ran,mask_loop_4.thisRepN,mask_loop_4.thisTrialN,mask_loop_4.thisN,mask_loop_4.thisIndex,mask_loop_4.ran,mouse_3.x,mouse_3.y,mouse_3.leftButton,mouse_3.midButton,mouse_3.rightButton,mouse_3.clicked_name,double_pass_loop.thisRepN,double_pass_loop.thisTrialN,double_pass_loop.thisN,double_pass_loop.thisIndex,double_pass_loop.ran,space_exit.keys,space_exit.rt
653028,001,2022-11-20_23h53.52.656,Info_measure_main_exp,2022.2.2,Win32,59.75500448,,,,,,,,,,,,,,,,,,,,,,,,,,,,,,,,,,,,,,,,,,,,,,,,,,,,,,,,,,,,,,,,,,,,,,,,,,,,,,,,,,,,,,,,,,,,,,,,,,,,,,,,,,,,,,,
653028,001,2022-11-20_23h53.52.656,Info_measure_main_exp,2022.2.2,Win32,59.75500448,,,,,,,,,,,,,,,,,,,,,,,,,,,,,,,,,,,,,,,,,,,,,,,,,,,,,,,,,,,,,,,,,,,,,,,,,,,,,,,,,,,,,,,,,,,,,,,,,,,,,,,,,,,,,,,
653028,001,2022-11-20_23h53.52.656,Info_measure_main_exp,2022.2.2,Win32,59.75500448,space,8.8732,,,,,,,,,,,,,,,,,,,,,,,,,,,,,,,,,,,,,,,,,,,,,,,,,,,,,,,,,,,,,,,,,,,,,,,,,,,,,,,,,,,,,,,,,,,,,,,,,,,,,,,,,,,,,
653028,001,2022-11-20_23h53.52.656,Info_measure_main_exp,2022.2.2,Win32,59.75500448,,,space,14.0329,,,,,,,,,,,,,,,,,,,,,,,,,,,,,,,,,,,,,,,,,,,,,,,,,,,,,,,,,,,,,,,,,,,,,,,,,,,,,,,,,,,,,,,,,,,,,,,,,,,,,,,,,,,
653028,001,2022-11-20_23h53.52.656,Info_measure_main_exp,2022.2.2,Win32,59.75500448,,,,,space,2.5295,,,,,,,,,,,,,,,,,,,,,,,,,,,,,,,,,,,,,,,,,,,,,,,,,,,,,,,,,,,,,,,,,,,,,,,,,,,,,,,,,,,,,,,,,,,,,,,,,,,,,,,,,
653028,001,2022-11-20_23h53.52.656,Info_measure_main_exp,2022.2.2,Win32,59.75500448,,,,,,,space,18.215,,,,,,,,,,,,,,,,,,,,,,,,,,,,,,,,,,,,,,,,,,,,,,,,,,,,,,,,,,,,,,,,,,,,,,,,,,,,,,,,,,,,,,,,,,,,,,,,,,,,,,,
653028,001,2022-11-20_23h53.52.656,Info_measure_main_exp,2022.2.2,Win32,59.75500448,,,,,,,,,space,7.3967,,,,,,,,,,,,,,,,,,,,,,,,,,,,,,,,,,,,,,,,,,,,,,,,,,,,,,,,,,,,,,,,,,,,,,,,,,,,,,,,,,,,,,,,,,,,,,,,,,,,,
653028,001,2022-11-20_23h53.52.656,Info_measure_main_exp,2022.2.2,Win32,59.75500448,,,,,,,,,,,space,2.7236,,,,,,,,,,,,,,,,,,,,,,,,,,,,,,,,,,,,,,,,,,,,,,,,,,,,,,,,,,,,,,,,,,,,,,,,,,,,,,,,,,,,,,,,,,,,,,,,,,,
653028,001,2022-11-20_23h53.52.656,Info_measure_main_exp,2022.2.2,Win32,59.75500448,,,,,,,,,,,,,0,0,0,2,1,masks/mask_003.jpg,,,,,,,,,,,,,,,,,,,,,,,,,,,,,,,,,,,,,,,,,,,,,,,,,,,,,,,,,,,,,,,,,,,,,,,,,,,,,,,,,,,,,,,,,,,,,
653028,001,2022-11-20_23h53.52.656,Info_measure_main_exp,2022.2.2,Win32,59.75500448,,,,,,,,,,,,,0,1,1,4,1,masks/mask_005.jpg,,,,,,,,,,,,,,,,,,,,,,,,,,,,,,,,,,,,,,,,,,,,,,,,,,,,,,,,,,,,,,,,,,,,,,,,,,,,,,,,,,,,,,,,,,,,,
653028,001,2022-11-20_23h53.52.656,Info_measure_main_exp,2022.2.2,Win32,59.75500448,,,,,,,,,,,,,0,2,2,0,1,masks/mask_001.jpg,,,,,,,,,,,,,,,,,,,,,,,,,,,,,,,,,,,,,,,,,,,,,,,,,,,,,,,,,,,,,,,,,,,,,,,,,,,,,,,,,,,,,,,,,,,,,
653028,001,2022-11-20_23h53.52.656,Info_measure_main_exp,2022.2.2,Win32,59.75500448,,,,,,,,,,,,,0,3,3,3,1,masks/mask_004.jpg,,,,,,,,,,,,,,,,,,,,,,,,,,,,,,,,,,,,,,,,,,,,,,,,,,,,,,,,,,,,,,,,,,,,,,,,,,,,,,,,,,,,,,,,,,,,,
653028,001,2022-11-20_23h53.52.656,Info_measure_main_exp,2022.2.2,Win32,59.75500448,,,,,,,,,,,,,0,4,4,1,1,masks/mask_002.jpg,,,,,,,,,,,,,,,,,,,,,,,,,,,,,,,,,,,,,,,,,,,,,,,,,,,,,,,,,,,,,,,,,,,,,,,,,,,,,,,,,,,,,,,,,,,,,
653028,001,2022-11-20_23h53.52.656,Info_measure_main_exp,2022.2.2,Win32,59.75500448,,,,,,,,,,,,,,,,,,masks/mask_001.jpg,0,0,0,0,1,,,,,,,,,,,,,,,,,,,,,,,,,,,,,,,,,,,,,,,,,,,,,,,,,,,,,,,,,,,,,,,,,,,,,,,,,,,,,,,,,,,,,,,,
653028,001,2022-11-20_23h53.52.656,Info_measure_main_exp,2022.2.2,Win32,59.75500448,,,,,,,,,,,,,,,,,,masks/mask_005.jpg,0,1,1,4,1,,,,,,,,,,,,,,,,,,,,,,,,,,,,,,,,,,,,,,,,,,,,,,,,,,,,,,,,,,,,,,,,,,,,,,,,,,,,,,,,,,,,,,,,
653028,001,2022-11-20_23h53.52.656,Info_measure_main_exp,2022.2.2,Win32,59.75500448,,,,,,,,,,,,,,,,,,masks/mask_002.jpg,0,2,2,1,1,,,,,,,,,,,,,,,,,,,,,,,,,,,,,,,,,,,,,,,,,,,,,,,,,,,,,,,,,,,,,,,,,,,,,,,,,,,,,,,,,,,,,,,,
653028,001,2022-11-20_23h53.52.656,Info_measure_main_exp,2022.2.2,Win32,59.75500448,,,,,,,,,,,,,,,,,,masks/mask_003.jpg,0,3,3,2,1,,,,,,,,,,,,,,,,,,,,,,,,,,,,,,,,,,,,,,,,,,,,,,,,,,,,,,,,,,,,,,,,,,,,,,,,,,,,,,,,,,,,,,,,
653028,001,2022-11-20_23h53.52.656,Info_measure_main_exp,2022.2.2,Win32,59.75500448,,,,,,,,,,,,,,,,,,masks/mask_004.jpg,0,4,4,3,1,,,,,,,,,,,,,,,,,,,,,,,,,,,,,,,,,,,,,,,,,,,,,,,,,,,,,,,,,,,,,,,,,,,,,,,,,,,,,,,,,,,,,,,,
653028,001,2022-11-20_23h53.52.656,Info_measure_main_exp,2022.2.2,Win32,59.75500448,,,,,,,,,,,,,,,,,,,,,,,,-0.037962949,-0.089814822,1,0,0,response5disk,3,59.5195,1,0.005555541,0.002777771,1,0,0,center_square,0,0,0,0,1,0,131,5,5,2370,2406,prac_patch/patch0002370.jpg,prac_patch/patch0002406.jpg,,,,,,,,,,,,,,,,,,,,,,,,,,,,,,,,,,,,,,,,,,,,,,,,,,,,,,,,,,,,
653028,001,2022-11-20_23h53.52.656,Info_measure_main_exp,2022.2.2,Win32,59.75500448,,,,,,,,,,,,,0,0,0,1,1,masks/mask_002.jpg,,,,,,,,,,,,,,,,,,,,,,,,,,,,,,,,,,,,,,,,,,,,,,,,,,,,,,,,,,,,,,,,,,,,,,,,,,,,,,,,,,,,,,,,,,,,,
653028,001,2022-11-20_23h53.52.656,Info_measure_main_exp,2022.2.2,Win32,59.75500448,,,,,,,,,,,,,0,1,1,0,1,masks/mask_001.jpg,,,,,,,,,,,,,,,,,,,,,,,,,,,,,,,,,,,,,,,,,,,,,,,,,,,,,,,,,,,,,,,,,,,,,,,,,,,,,,,,,,,,,,,,,,,,,
653028,001,2022-11-20_23h53.52.656,Info_measure_main_exp,2022.2.2,Win32,59.75500448,,,,,,,,,,,,,0,2,2,3,1,masks/mask_004.jpg,,,,,,,,,,,,,,,,,,,,,,,,,,,,,,,,,,,,,,,,,,,,,,,,,,,,,,,,,,,,,,,,,,,,,,,,,,,,,,,,,,,,,,,,,,,,,
653028,001,2022-11-20_23h53.52.656,Info_measure_main_exp,2022.2.2,Win32,59.75500448,,,,,,,,,,,,,0,3,3,2,1,masks/mask_003.jpg,,,,,,,,,,,,,,,,,,,,,,,,,,,,,,,,,,,,,,,,,,,,,,,,,,,,,,,,,,,,,,,,,,,,,,,,,,,,,,,,,,,,,,,,,,,,,
653028,001,2022-11-20_23h53.52.656,Info_measure_main_exp,2022.2.2,Win32,59.75500448,,,,,,,,,,,,,0,4,4,4,1,masks/mask_005.jpg,,,,,,,,,,,,,,,,,,,,,,,,,,,,,,,,,,,,,,,,,,,,,,,,,,,,,,,,,,,,,,,,,,,,,,,,,,,,,,,,,,,,,,,,,,,,,
653028,001,2022-11-20_23h53.52.656,Info_measure_main_exp,2022.2.2,Win32,59.75500448,,,,,,,,,,,,,,,,,,masks/mask_002.jpg,0,0,0,1,1,,,,,,,,,,,,,,,,,,,,,,,,,,,,,,,,,,,,,,,,,,,,,,,,,,,,,,,,,,,,,,,,,,,,,,,,,,,,,,,,,,,,,,,,
653028,001,2022-11-20_23h53.52.656,Info_measure_main_exp,2022.2.2,Win32,59.75500448,,,,,,,,,,,,,,,,,,masks/mask_005.jpg,0,1,1,4,1,,,,,,,,,,,,,,,,,,,,,,,,,,,,,,,,,,,,,,,,,,,,,,,,,,,,,,,,,,,,,,,,,,,,,,,,,,,,,,,,,,,,,,,,
653028,001,2022-11-20_23h53.52.656,Info_measure_main_exp,2022.2.2,Win32,59.75500448,,,,,,,,,,,,,,,,,,masks/mask_003.jpg,0,2,2,2,1,,,,,,,,,,,,,,,,,,,,,,,,,,,,,,,,,,,,,,,,,,,,,,,,,,,,,,,,,,,,,,,,,,,,,,,,,,,,,,,,,,,,,,,,
653028,001,2022-11-20_23h53.52.656,Info_measure_main_exp,2022.2.2,Win32,59.75500448,,,,,,,,,,,,,,,,,,masks/mask_004.jpg,0,3,3,3,1,,,,,,,,,,,,,,,,,,,,,,,,,,,,,,,,,,,,,,,,,,,,,,,,,,,,,,,,,,,,,,,,,,,,,,,,,,,,,,,,,,,,,,,,
653028,001,2022-11-20_23h53.52.656,Info_measure_main_exp,2022.2.2,Win32,59.75500448,,,,,,,,,,,,,,,,,,masks/mask_001.jpg,0,4,4,0,1,,,,,,,,,,,,,,,,,,,,,,,,,,,,,,,,,,,,,,,,,,,,,,,,,,,,,,,,,,,,,,,,,,,,,,,,,,,,,,,,,,,,,,,,
653028,001,2022-11-20_23h53.52.656,Info_measure_main_exp,2022.2.2,Win32,59.75500448,,,,,,,,,,,,,,,,,,,,,,,,-0.079629616,0.01666666,1,0,0,response7disk,1,72.2054,1,0.002777806,-0.010185206,1,0,0,center_square,0,1,1,1,1,0,131,5,5,2514,2490,prac_patch/patch0002514.jpg,prac_patch/patch0002490.jpg,,,,,,,,,,,,,,,,,,,,,,,,,,,,,,,,,,,,,,,,,,,,,,,,,,,,,,,,,,,,
653028,001,2022-11-20_23h53.52.656,Info_measure_main_exp,2022.2.2,Win32,59.75500448,,,,,,,,,,,,,0,0,0,4,1,masks/mask_005.jpg,,,,,,,,,,,,,,,,,,,,,,,,,,,,,,,,,,,,,,,,,,,,,,,,,,,,,,,,,,,,,,,,,,,,,,,,,,,,,,,,,,,,,,,,,,,,,
653028,001,2022-11-20_23h53.52.656,Info_measure_main_exp,2022.2.2,Win32,59.75500448,,,,,,,,,,,,,0,1,1,0,1,masks/mask_001.jpg,,,,,,,,,,,,,,,,,,,,,,,,,,,,,,,,,,,,,,,,,,,,,,,,,,,,,,,,,,,,,,,,,,,,,,,,,,,,,,,,,,,,,,,,,,,,,
653028,001,2022-11-20_23h53.52.656,Info_measure_main_exp,2022.2.2,Win32,59.75500448,,,,,,,,,,,,,0,2,2,1,1,masks/mask_002.jpg,,,,,,,,,,,,,,,,,,,,,,,,,,,,,,,,,,,,,,,,,,,,,,,,,,,,,,,,,,,,,,,,,,,,,,,,,,,,,,,,,,,,,,,,,,,,,
653028,001,2022-11-20_23h53.52.656,Info_measure_main_exp,2022.2.2,Win32,59.75500448,,,,,,,,,,,,,0,3,3,2,1,masks/mask_003.jpg,,,,,,,,,,,,,,,,,,,,,,,,,,,,,,,,,,,,,,,,,,,,,,,,,,,,,,,,,,,,,,,,,,,,,,,,,,,,,,,,,,,,,,,,,,,,,
653028,001,2022-11-20_23h53.52.656,Info_measure_main_exp,2022.2.2,Win32,59.75500448,,,,,,,,,,,,,0,4,4,3,1,masks/mask_004.jpg,,,,,,,,,,,,,,,,,,,,,,,,,,,,,,,,,,,,,,,,,,,,,,,,,,,,,,,,,,,,,,,,,,,,,,,,,,,,,,,,,,,,,,,,,,,,,
653028,001,2022-11-20_23h53.52.656,Info_measure_main_exp,2022.2.2,Win32,59.75500448,,,,,,,,,,,,,,,,,,masks/mask_003.jpg,0,0,0,2,1,,,,,,,,,,,,,,,,,,,,,,,,,,,,,,,,,,,,,,,,,,,,,,,,,,,,,,,,,,,,,,,,,,,,,,,,,,,,,,,,,,,,,,,,
653028,001,2022-11-20_23h53.52.656,Info_measure_main_exp,2022.2.2,Win32,59.75500448,,,,,,,,,,,,,,,,,,masks/mask_005.jpg,0,1,1,4,1,,,,,,,,,,,,,,,,,,,,,,,,,,,,,,,,,,,,,,,,,,,,,,,,,,,,,,,,,,,,,,,,,,,,,,,,,,,,,,,,,,,,,,,,
653028,001,2022-11-20_23h53.52.656,Info_measure_main_exp,2022.2.2,Win32,59.75500448,,,,,,,,,,,,,,,,,,masks/mask_001.jpg,0,2,2,0,1,,,,,,,,,,,,,,,,,,,,,,,,,,,,,,,,,,,,,,,,,,,,,,,,,,,,,,,,,,,,,,,,,,,,,,,,,,,,,,,,,,,,,,,,
653028,001,2022-11-20_23h53.52.656,Info_measure_main_exp,2022.2.2,Win32,59.75500448,,,,,,,,,,,,,,,,,,masks/mask_002.jpg,0,3,3,1,1,,,,,,,,,,,,,,,,,,,,,,,,,,,,,,,,,,,,,,,,,,,,,,,,,,,,,,,,,,,,,,,,,,,,,,,,,,,,,,,,,,,,,,,,
653028,001,2022-11-20_23h53.52.656,Info_measure_main_exp,2022.2.2,Win32,59.75500448,,,,,,,,,,,,,,,,,,masks/mask_004.jpg,0,4,4,3,1,,,,,,,,,,,,,,,,,,,,,,,,,,,,,,,,,,,,,,,,,,,,,,,,,,,,,,,,,,,,,,,,,,,,,,,,,,,,,,,,,,,,,,,,
653028,001,2022-11-20_23h53.52.656,Info_measure_main_exp,2022.2.2,Win32,59.75500448,,,,,,,,,,,,,,,,,,,,,,,,-0.064814815,0.138888889,1,0,0,response7disk,0,80.198,1,0.000925912,-0.005555577,1,0,0,center_square,0,2,2,2,1,0,131,5,5,2526,2526,prac_patch/patch0002526.jpg,prac_patch/patch0002526.jpg,,,,,,,,,,,,,,,,,,,,,,,,,,,,,,,,,,,,,,,,,,,,,,,,,,,,,,,,,,,,
653028,001,2022-11-20_23h53.52.656,Info_measure_main_exp,2022.2.2,Win32,59.75500448,,,,,,,,,,,,,,,,,,,,,,,,,,,,,,,,,,,,,,,,,,,,,,,,,,,,,,,,,,,space,1.6631,,,,,,,,,,,,,,,,,,,,,,,,,,,,,,,,,,,,,,,,,,,,,,,,,,,
653028,001,2022-11-20_23h53.52.656,Info_measure_main_exp,2022.2.2,Win32,59.75500448,,,,,,,,,,,,,,,,,,masks/mask_001.jpg,,,,,,,,,,,,,,,,,,,,,,,,,,,,,,,,,,,,,,,,,,,0,0,0,0,1,,,,,,,,,,,,,,,,,,,,,,,,,,,,,,,,,,,,,,,,,,,,,,
653028,001,2022-11-20_23h53.52.656,Info_measure_main_exp,2022.2.2,Win32,59.75500448,,,,,,,,,,,,,,,,,,masks/mask_004.jpg,,,,,,,,,,,,,,,,,,,,,,,,,,,,,,,,,,,,,,,,,,,0,1,1,3,1,,,,,,,,,,,,,,,,,,,,,,,,,,,,,,,,,,,,,,,,,,,,,,
653028,001,2022-11-20_23h53.52.656,Info_measure_main_exp,2022.2.2,Win32,59.75500448,,,,,,,,,,,,,,,,,,masks/mask_005.jpg,,,,,,,,,,,,,,,,,,,,,,,,,,,,,,,,,,,,,,,,,,,0,2,2,4,1,,,,,,,,,,,,,,,,,,,,,,,,,,,,,,,,,,,,,,,,,,,,,,
653028,001,2022-11-20_23h53.52.656,Info_measure_main_exp,2022.2.2,Win32,59.75500448,,,,,,,,,,,,,,,,,,masks/mask_003.jpg,,,,,,,,,,,,,,,,,,,,,,,,,,,,,,,,,,,,,,,,,,,0,3,3,2,1,,,,,,,,,,,,,,,,,,,,,,,,,,,,,,,,,,,,,,,,,,,,,,
653028,001,2022-11-20_23h53.52.656,Info_measure_main_exp,2022.2.2,Win32,59.75500448,,,,,,,,,,,,,,,,,,masks/mask_002.jpg,,,,,,,,,,,,,,,,,,,,,,,,,,,,,,,,,,,,,,,,,,,0,4,4,1,1,,,,,,,,,,,,,,,,,,,,,,,,,,,,,,,,,,,,,,,,,,,,,,
653028,001,2022-11-20_23h53.52.656,Info_measure_main_exp,2022.2.2,Win32,59.75500448,,,,,,,,,,,,,,,,,,masks/mask_001.jpg,,,,,,,,,,,,,,,,,,,,,,,,,,,,,,,,,,,,,,,,,,,,,,,,0,0,0,0,1,,,,,,,,,,,,,,,,,,,,,,,,,,,,,,,,,,,,,,,,,
653028,001,2022-11-20_23h53.52.656,Info_measure_main_exp,2022.2.2,Win32,59.75500448,,,,,,,,,,,,,,,,,,masks/mask_003.jpg,,,,,,,,,,,,,,,,,,,,,,,,,,,,,,,,,,,,,,,,,,,,,,,,0,1,1,2,1,,,,,,,,,,,,,,,,,,,,,,,,,,,,,,,,,,,,,,,,,
653028,001,2022-11-20_23h53.52.656,Info_measure_main_exp,2022.2.2,Win32,59.75500448,,,,,,,,,,,,,,,,,,masks/mask_004.jpg,,,,,,,,,,,,,,,,,,,,,,,,,,,,,,,,,,,,,,,,,,,,,,,,0,2,2,3,1,,,,,,,,,,,,,,,,,,,,,,,,,,,,,,,,,,,,,,,,,
653028,001,2022-11-20_23h53.52.656,Info_measure_main_exp,2022.2.2,Win32,59.75500448,,,,,,,,,,,,,,,,,,masks/mask_002.jpg,,,,,,,,,,,,,,,,,,,,,,,,,,,,,,,,,,,,,,,,,,,,,,,,0,3,3,1,1,,,,,,,,,,,,,,,,,,,,,,,,,,,,,,,,,,,,,,,,,
653028,001,2022-11-20_23h53.52.656,Info_measure_main_exp,2022.2.2,Win32,59.75500448,,,,,,,,,,,,,,,,,,masks/mask_005.jpg,,,,,,,,,,,,,,,,,,,,,,,,,,,,,,,,,,,,,,,,,,,,,,,,0,4,4,4,1,,,,,,,,,,,,,,,,,,,,,,,,,,,,,,,,,,,,,,,,,
653028,001,2022-11-20_23h53.52.656,Info_measure_main_exp,2022.2.2,Win32,59.75500448,,,,,,,,,,,,,,,,,,,,,,,,,,,,,,5,2.281,1,,,,,,,,,,,,0,131,5,5,2178,2166,absent_patch/patch0002178.jpg,absent_patch/patch0002166.jpg,,,,,,,,,,,,,,,,,,,,0.115740741,-0.024074095,1,0,0,response3disk,1,0.00462963,0.011111118,1,0,0,center_square,0,0,0,72,1,,,,,,,,,,,,,,,,,,,,,,,
653028,001,2022-11-20_23h53.52.656,Info_measure_main_exp,2022.2.2,Win32,59.75500448,,,,,,,,,,,,,,,,,,masks/mask_001.jpg,,,,,,,,,,,,,,,,,,,,,,,,,,,,,,,,,,,,,,,,,,,0,0,0,0,1,,,,,,,,,,,,,,,,,,,,,,,,,,,,,,,,,,,,,,,,,,,,,,
653028,001,2022-11-20_23h53.52.656,Info_measure_main_exp,2022.2.2,Win32,59.75500448,,,,,,,,,,,,,,,,,,masks/mask_003.jpg,,,,,,,,,,,,,,,,,,,,,,,,,,,,,,,,,,,,,,,,,,,0,1,1,2,1,,,,,,,,,,,,,,,,,,,,,,,,,,,,,,,,,,,,,,,,,,,,,,
653028,001,2022-11-20_23h53.52.656,Info_measure_main_exp,2022.2.2,Win32,59.75500448,,,,,,,,,,,,,,,,,,masks/mask_004.jpg,,,,,,,,,,,,,,,,,,,,,,,,,,,,,,,,,,,,,,,,,,,0,2,2,3,1,,,,,,,,,,,,,,,,,,,,,,,,,,,,,,,,,,,,,,,,,,,,,,
653028,001,2022-11-20_23h53.52.656,Info_measure_main_exp,2022.2.2,Win32,59.75500448,,,,,,,,,,,,,,,,,,masks/mask_005.jpg,,,,,,,,,,,,,,,,,,,,,,,,,,,,,,,,,,,,,,,,,,,0,3,3,4,1,,,,,,,,,,,,,,,,,,,,,,,,,,,,,,,,,,,,,,,,,,,,,,
653028,001,2022-11-20_23h53.52.656,Info_measure_main_exp,2022.2.2,Win32,59.75500448,,,,,,,,,,,,,,,,,,masks/mask_002.jpg,,,,,,,,,,,,,,,,,,,,,,,,,,,,,,,,,,,,,,,,,,,0,4,4,1,1,,,,,,,,,,,,,,,,,,,,,,,,,,,,,,,,,,,,,,,,,,,,,,
653028,001,2022-11-20_23h53.52.656,Info_measure_main_exp,2022.2.2,Win32,59.75500448,,,,,,,,,,,,,,,,,,masks/mask_003.jpg,,,,,,,,,,,,,,,,,,,,,,,,,,,,,,,,,,,,,,,,,,,,,,,,0,0,0,2,1,,,,,,,,,,,,,,,,,,,,,,,,,,,,,,,,,,,,,,,,,
653028,001,2022-11-20_23h53.52.656,Info_measure_main_exp,2022.2.2,Win32,59.75500448,,,,,,,,,,,,,,,,,,masks/mask_002.jpg,,,,,,,,,,,,,,,,,,,,,,,,,,,,,,,,,,,,,,,,,,,,,,,,0,1,1,1,1,,,,,,,,,,,,,,,,,,,,,,,,,,,,,,,,,,,,,,,,,
653028,001,2022-11-20_23h53.52.656,Info_measure_main_exp,2022.2.2,Win32,59.75500448,,,,,,,,,,,,,,,,,,masks/mask_001.jpg,,,,,,,,,,,,,,,,,,,,,,,,,,,,,,,,,,,,,,,,,,,,,,,,0,2,2,0,1,,,,,,,,,,,,,,,,,,,,,,,,,,,,,,,,,,,,,,,,,
653028,001,2022-11-20_23h53.52.656,Info_measure_main_exp,2022.2.2,Win32,59.75500448,,,,,,,,,,,,,,,,,,masks/mask_005.jpg,,,,,,,,,,,,,,,,,,,,,,,,,,,,,,,,,,,,,,,,,,,,,,,,0,3,3,4,1,,,,,,,,,,,,,,,,,,,,,,,,,,,,,,,,,,,,,,,,,
653028,001,2022-11-20_23h53.52.656,Info_measure_main_exp,2022.2.2,Win32,59.75500448,,,,,,,,,,,,,,,,,,masks/mask_004.jpg,,,,,,,,,,,,,,,,,,,,,,,,,,,,,,,,,,,,,,,,,,,,,,,,0,4,4,3,1,,,,,,,,,,,,,,,,,,,,,,,,,,,,,,,,,,,,,,,,,
653028,001,2022-11-20_23h53.52.656,Info_measure_main_exp,2022.2.2,Win32,59.75500448,,,,,,,,,,,,,,,,,,,,,,,,,,,,,,4,2.8467,1,,,,,,,,,,,,0,131,5,5,2082,2250,absent_patch/patch0002082.jpg,absent_patch/patch0002250.jpg,,,,,,,,,,,,,,,,,,,,0.02870369,-0.075925933,1,0,0,response3disk,2,-0.00462963,-0.0074074,1,0,0,center_square,0,1,1,3,1,,,,,,,,,,,,,,,,,,,,,,,
653028,001,2022-11-20_23h53.52.656,Info_measure_main_exp,2022.2.2,Win32,59.75500448,,,,,,,,,,,,,,,,,,masks/mask_004.jpg,,,,,,,,,,,,,,,,,,,,,,,,,,,,,,,,,,,,,,,,,,,0,0,0,3,1,,,,,,,,,,,,,,,,,,,,,,,,,,,,,,,,,,,,,,,,,,,,,,
653028,001,2022-11-20_23h53.52.656,Info_measure_main_exp,2022.2.2,Win32,59.75500448,,,,,,,,,,,,,,,,,,masks/mask_001.jpg,,,,,,,,,,,,,,,,,,,,,,,,,,,,,,,,,,,,,,,,,,,0,1,1,0,1,,,,,,,,,,,,,,,,,,,,,,,,,,,,,,,,,,,,,,,,,,,,,,
653028,001,2022-11-20_23h53.52.656,Info_measure_main_exp,2022.2.2,Win32,59.75500448,,,,,,,,,,,,,,,,,,masks/mask_002.jpg,,,,,,,,,,,,,,,,,,,,,,,,,,,,,,,,,,,,,,,,,,,0,2,2,1,1,,,,,,,,,,,,,,,,,,,,,,,,,,,,,,,,,,,,,,,,,,,,,,
653028,001,2022-11-20_23h53.52.656,Info_measure_main_exp,2022.2.2,Win32,59.75500448,,,,,,,,,,,,,,,,,,masks/mask_005.jpg,,,,,,,,,,,,,,,,,,,,,,,,,,,,,,,,,,,,,,,,,,,0,3,3,4,1,,,,,,,,,,,,,,,,,,,,,,,,,,,,,,,,,,,,,,,,,,,,,,
653028,001,2022-11-20_23h53.52.656,Info_measure_main_exp,2022.2.2,Win32,59.75500448,,,,,,,,,,,,,,,,,,masks/mask_003.jpg,,,,,,,,,,,,,,,,,,,,,,,,,,,,,,,,,,,,,,,,,,,0,4,4,2,1,,,,,,,,,,,,,,,,,,,,,,,,,,,,,,,,,,,,,,,,,,,,,,
653028,001,2022-11-20_23h53.52.656,Info_measure_main_exp,2022.2.2,Win32,59.75500448,,,,,,,,,,,,,,,,,,masks/mask_003.jpg,,,,,,,,,,,,,,,,,,,,,,,,,,,,,,,,,,,,,,,,,,,,,,,,0,0,0,2,1,,,,,,,,,,,,,,,,,,,,,,,,,,,,,,,,,,,,,,,,,
653028,001,2022-11-20_23h53.52.656,Info_measure_main_exp,2022.2.2,Win32,59.75500448,,,,,,,,,,,,,,,,,,masks/mask_002.jpg,,,,,,,,,,,,,,,,,,,,,,,,,,,,,,,,,,,,,,,,,,,,,,,,0,1,1,1,1,,,,,,,,,,,,,,,,,,,,,,,,,,,,,,,,,,,,,,,,,
653028,001,2022-11-20_23h53.52.656,Info_measure_main_exp,2022.2.2,Win32,59.75500448,,,,,,,,,,,,,,,,,,masks/mask_004.jpg,,,,,,,,,,,,,,,,,,,,,,,,,,,,,,,,,,,,,,,,,,,,,,,,0,2,2,3,1,,,,,,,,,,,,,,,,,,,,,,,,,,,,,,,,,,,,,,,,,
653028,001,2022-11-20_23h53.52.656,Info_measure_main_exp,2022.2.2,Win32,59.75500448,,,,,,,,,,,,,,,,,,masks/mask_005.jpg,,,,,,,,,,,,,,,,,,,,,,,,,,,,,,,,,,,,,,,,,,,,,,,,0,3,3,4,1,,,,,,,,,,,,,,,,,,,,,,,,,,,,,,,,,,,,,,,,,
653028,001,2022-11-20_23h53.52.656,Info_measure_main_exp,2022.2.2,Win32,59.75500448,,,,,,,,,,,,,,,,,,masks/mask_001.jpg,,,,,,,,,,,,,,,,,,,,,,,,,,,,,,,,,,,,,,,,,,,,,,,,0,4,4,0,1,,,,,,,,,,,,,,,,,,,,,,,,,,,,,,,,,,,,,,,,,
653028,001,2022-11-20_23h53.52.656,Info_measure_main_exp,2022.2.2,Win32,59.75500448,,,,,,,,,,,,,,,,,,,,,,,,,,,,,,5,4.745,1,,,,,,,,,,,,0,131,5,5,2250,2178,absent_patch/patch0002250.jpg,absent_patch/patch0002178.jpg,,,,,,,,,,,,,,,,,,,,0.068518533,-0.048148155,1,0,0,response3disk,3,0.001851894,-0.003703718,1,0,0,center_square,0,2,2,48,1,,,,,,,,,,,,,,,,,,,,,,,
653028,001,2022-11-20_23h53.52.656,Info_measure_main_exp,2022.2.2,Win32,59.75500448,,,,,,,,,,,,,,,,,,masks/mask_001.jpg,,,,,,,,,,,,,,,,,,,,,,,,,,,,,,,,,,,,,,,,,,,0,0,0,0,1,,,,,,,,,,,,,,,,,,,,,,,,,,,,,,,,,,,,,,,,,,,,,,
653028,001,2022-11-20_23h53.52.656,Info_measure_main_exp,2022.2.2,Win32,59.75500448,,,,,,,,,,,,,,,,,,masks/mask_004.jpg,,,,,,,,,,,,,,,,,,,,,,,,,,,,,,,,,,,,,,,,,,,0,1,1,3,1,,,,,,,,,,,,,,,,,,,,,,,,,,,,,,,,,,,,,,,,,,,,,,
653028,001,2022-11-20_23h53.52.656,Info_measure_main_exp,2022.2.2,Win32,59.75500448,,,,,,,,,,,,,,,,,,masks/mask_005.jpg,,,,,,,,,,,,,,,,,,,,,,,,,,,,,,,,,,,,,,,,,,,0,2,2,4,1,,,,,,,,,,,,,,,,,,,,,,,,,,,,,,,,,,,,,,,,,,,,,,
653028,001,2022-11-20_23h53.52.656,Info_measure_main_exp,2022.2.2,Win32,59.75500448,,,,,,,,,,,,,,,,,,masks/mask_002.jpg,,,,,,,,,,,,,,,,,,,,,,,,,,,,,,,,,,,,,,,,,,,0,3,3,1,1,,,,,,,,,,,,,,,,,,,,,,,,,,,,,,,,,,,,,,,,,,,,,,
653028,001,2022-11-20_23h53.52.656,Info_measure_main_exp,2022.2.2,Win32,59.75500448,,,,,,,,,,,,,,,,,,masks/mask_003.jpg,,,,,,,,,,,,,,,,,,,,,,,,,,,,,,,,,,,,,,,,,,,0,4,4,2,1,,,,,,,,,,,,,,,,,,,,,,,,,,,,,,,,,,,,,,,,,,,,,,
653028,001,2022-11-20_23h53.52.656,Info_measure_main_exp,2022.2.2,Win32,59.75500448,,,,,,,,,,,,,,,,,,masks/mask_005.jpg,,,,,,,,,,,,,,,,,,,,,,,,,,,,,,,,,,,,,,,,,,,,,,,,0,0,0,4,1,,,,,,,,,,,,,,,,,,,,,,,,,,,,,,,,,,,,,,,,,
653028,001,2022-11-20_23h53.52.656,Info_measure_main_exp,2022.2.2,Win32,59.75500448,,,,,,,,,,,,,,,,,,masks/mask_001.jpg,,,,,,,,,,,,,,,,,,,,,,,,,,,,,,,,,,,,,,,,,,,,,,,,0,1,1,0,1,,,,,,,,,,,,,,,,,,,,,,,,,,,,,,,,,,,,,,,,,
653028,001,2022-11-20_23h53.52.656,Info_measure_main_exp,2022.2.2,Win32,59.75500448,,,,,,,,,,,,,,,,,,masks/mask_002.jpg,,,,,,,,,,,,,,,,,,,,,,,,,,,,,,,,,,,,,,,,,,,,,,,,0,2,2,1,1,,,,,,,,,,,,,,,,,,,,,,,,,,,,,,,,,,,,,,,,,
653028,001,2022-11-20_23h53.52.656,Info_measure_main_exp,2022.2.2,Win32,59.75500448,,,,,,,,,,,,,,,,,,masks/mask_004.jpg,,,,,,,,,,,,,,,,,,,,,,,,,,,,,,,,,,,,,,,,,,,,,,,,0,3,3,3,1,,,,,,,,,,,,,,,,,,,,,,,,,,,,,,,,,,,,,,,,,
653028,001,2022-11-20_23h53.52.656,Info_measure_main_exp,2022.2.2,Win32,59.75500448,,,,,,,,,,,,,,,,,,masks/mask_003.jpg,,,,,,,,,,,,,,,,,,,,,,,,,,,,,,,,,,,,,,,,,,,,,,,,0,4,4,2,1,,,,,,,,,,,,,,,,,,,,,,,,,,,,,,,,,,,,,,,,,
653028,001,2022-11-20_23h53.52.656,Info_measure_main_exp,2022.2.2,Win32,59.75500448,,,,,,,,,,,,,,,,,,,,,,,,,,,,,,3,4.362,1,,,,,,,,,,,,0,131,5,5,2274,2250,absent_patch/patch0002274.jpg,absent_patch/patch0002250.jpg,,,,,,,,,,,,,,,,,,,,-0.010185171,-0.067592586,1,0,0,response5disk,4,-0.000925912,-0.00462963,1,0,0,center_square,0,3,3,28,1,,,,,,,,,,,,,,,,,,,,,,,
653028,001,2022-11-20_23h53.52.656,Info_measure_main_exp,2022.2.2,Win32,59.75500448,,,,,,,,,,,,,,,,,,masks/mask_002.jpg,,,,,,,,,,,,,,,,,,,,,,,,,,,,,,,,,,,,,,,,,,,0,0,0,1,1,,,,,,,,,,,,,,,,,,,,,,,,,,,,,,,,,,,,,,,,,,,,,,
653028,001,2022-11-20_23h53.52.656,Info_measure_main_exp,2022.2.2,Win32,59.75500448,,,,,,,,,,,,,,,,,,masks/mask_003.jpg,,,,,,,,,,,,,,,,,,,,,,,,,,,,,,,,,,,,,,,,,,,0,1,1,2,1,,,,,,,,,,,,,,,,,,,,,,,,,,,,,,,,,,,,,,,,,,,,,,
653028,001,2022-11-20_23h53.52.656,Info_measure_main_exp,2022.2.2,Win32,59.75500448,,,,,,,,,,,,,,,,,,masks/mask_004.jpg,,,,,,,,,,,,,,,,,,,,,,,,,,,,,,,,,,,,,,,,,,,0,2,2,3,1,,,,,,,,,,,,,,,,,,,,,,,,,,,,,,,,,,,,,,,,,,,,,,
653028,001,2022-11-20_23h53.52.656,Info_measure_main_exp,2022.2.2,Win32,59.75500448,,,,,,,,,,,,,,,,,,masks/mask_005.jpg,,,,,,,,,,,,,,,,,,,,,,,,,,,,,,,,,,,,,,,,,,,0,3,3,4,1,,,,,,,,,,,,,,,,,,,,,,,,,,,,,,,,,,,,,,,,,,,,,,
653028,001,2022-11-20_23h53.52.656,Info_measure_main_exp,2022.2.2,Win32,59.75500448,,,,,,,,,,,,,,,,,,masks/mask_001.jpg,,,,,,,,,,,,,,,,,,,,,,,,,,,,,,,,,,,,,,,,,,,0,4,4,0,1,,,,,,,,,,,,,,,,,,,,,,,,,,,,,,,,,,,,,,,,,,,,,,
653028,001,2022-11-20_23h53.52.656,Info_measure_main_exp,2022.2.2,Win32,59.75500448,,,,,,,,,,,,,,,,,,masks/mask_002.jpg,,,,,,,,,,,,,,,,,,,,,,,,,,,,,,,,,,,,,,,,,,,,,,,,0,0,0,1,1,,,,,,,,,,,,,,,,,,,,,,,,,,,,,,,,,,,,,,,,,
653028,001,2022-11-20_23h53.52.656,Info_measure_main_exp,2022.2.2,Win32,59.75500448,,,,,,,,,,,,,,,,,,masks/mask_005.jpg,,,,,,,,,,,,,,,,,,,,,,,,,,,,,,,,,,,,,,,,,,,,,,,,0,1,1,4,1,,,,,,,,,,,,,,,,,,,,,,,,,,,,,,,,,,,,,,,,,
653028,001,2022-11-20_23h53.52.656,Info_measure_main_exp,2022.2.2,Win32,59.75500448,,,,,,,,,,,,,,,,,,masks/mask_004.jpg,,,,,,,,,,,,,,,,,,,,,,,,,,,,,,,,,,,,,,,,,,,,,,,,0,2,2,3,1,,,,,,,,,,,,,,,,,,,,,,,,,,,,,,,,,,,,,,,,,
653028,001,2022-11-20_23h53.52.656,Info_measure_main_exp,2022.2.2,Win32,59.75500448,,,,,,,,,,,,,,,,,,masks/mask_001.jpg,,,,,,,,,,,,,,,,,,,,,,,,,,,,,,,,,,,,,,,,,,,,,,,,0,3,3,0,1,,,,,,,,,,,,,,,,,,,,,,,,,,,,,,,,,,,,,,,,,
653028,001,2022-11-20_23h53.52.656,Info_measure_main_exp,2022.2.2,Win32,59.75500448,,,,,,,,,,,,,,,,,,masks/mask_003.jpg,,,,,,,,,,,,,,,,,,,,,,,,,,,,,,,,,,,,,,,,,,,,,,,,0,4,4,2,1,,,,,,,,,,,,,,,,,,,,,,,,,,,,,,,,,,,,,,,,,
653028,001,2022-11-20_23h53.52.656,Info_measure_main_exp,2022.2.2,Win32,59.75500448,,,,,,,,,,,,,,,,,,,,,,,,,,,,,,3,2.8637,1,,,,,,,,,,,,1,131,5,5,1,2274,present_patch/cong_131_5_a.jpg,absent_patch/patch0002274.jpg,,,,,,,,,,,,,,,,,,,,-0.037962949,-0.070370392,1,0,0,response5disk,5,-0.003703718,-0.003703718,1,0,0,center_square,0,4,4,105,1,,,,,,,,,,,,,,,,,,,,,,,
653028,001,2022-11-20_23h53.52.656,Info_measure_main_exp,2022.2.2,Win32,59.75500448,,,,,,,,,,,,,,,,,,masks/mask_002.jpg,,,,,,,,,,,,,,,,,,,,,,,,,,,,,,,,,,,,,,,,,,,0,0,0,1,1,,,,,,,,,,,,,,,,,,,,,,,,,,,,,,,,,,,,,,,,,,,,,,
653028,001,2022-11-20_23h53.52.656,Info_measure_main_exp,2022.2.2,Win32,59.75500448,,,,,,,,,,,,,,,,,,masks/mask_001.jpg,,,,,,,,,,,,,,,,,,,,,,,,,,,,,,,,,,,,,,,,,,,0,1,1,0,1,,,,,,,,,,,,,,,,,,,,,,,,,,,,,,,,,,,,,,,,,,,,,,
653028,001,2022-11-20_23h53.52.656,Info_measure_main_exp,2022.2.2,Win32,59.75500448,,,,,,,,,,,,,,,,,,masks/mask_004.jpg,,,,,,,,,,,,,,,,,,,,,,,,,,,,,,,,,,,,,,,,,,,0,2,2,3,1,,,,,,,,,,,,,,,,,,,,,,,,,,,,,,,,,,,,,,,,,,,,,,
653028,001,2022-11-20_23h53.52.656,Info_measure_main_exp,2022.2.2,Win32,59.75500448,,,,,,,,,,,,,,,,,,masks/mask_003.jpg,,,,,,,,,,,,,,,,,,,,,,,,,,,,,,,,,,,,,,,,,,,0,3,3,2,1,,,,,,,,,,,,,,,,,,,,,,,,,,,,,,,,,,,,,,,,,,,,,,
653028,001,2022-11-20_23h53.52.656,Info_measure_main_exp,2022.2.2,Win32,59.75500448,,,,,,,,,,,,,,,,,,masks/mask_005.jpg,,,,,,,,,,,,,,,,,,,,,,,,,,,,,,,,,,,,,,,,,,,0,4,4,4,1,,,,,,,,,,,,,,,,,,,,,,,,,,,,,,,,,,,,,,,,,,,,,,
653028,001,2022-11-20_23h53.52.656,Info_measure_main_exp,2022.2.2,Win32,59.75500448,,,,,,,,,,,,,,,,,,masks/mask_005.jpg,,,,,,,,,,,,,,,,,,,,,,,,,,,,,,,,,,,,,,,,,,,,,,,,0,0,0,4,1,,,,,,,,,,,,,,,,,,,,,,,,,,,,,,,,,,,,,,,,,
653028,001,2022-11-20_23h53.52.656,Info_measure_main_exp,2022.2.2,Win32,59.75500448,,,,,,,,,,,,,,,,,,masks/mask_001.jpg,,,,,,,,,,,,,,,,,,,,,,,,,,,,,,,,,,,,,,,,,,,,,,,,0,1,1,0,1,,,,,,,,,,,,,,,,,,,,,,,,,,,,,,,,,,,,,,,,,
653028,001,2022-11-20_23h53.52.656,Info_measure_main_exp,2022.2.2,Win32,59.75500448,,,,,,,,,,,,,,,,,,masks/mask_003.jpg,,,,,,,,,,,,,,,,,,,,,,,,,,,,,,,,,,,,,,,,,,,,,,,,0,2,2,2,1,,,,,,,,,,,,,,,,,,,,,,,,,,,,,,,,,,,,,,,,,
653028,001,2022-11-20_23h53.52.656,Info_measure_main_exp,2022.2.2,Win32,59.75500448,,,,,,,,,,,,,,,,,,masks/mask_002.jpg,,,,,,,,,,,,,,,,,,,,,,,,,,,,,,,,,,,,,,,,,,,,,,,,0,3,3,1,1,,,,,,,,,,,,,,,,,,,,,,,,,,,,,,,,,,,,,,,,,
653028,001,2022-11-20_23h53.52.656,Info_measure_main_exp,2022.2.2,Win32,59.75500448,,,,,,,,,,,,,,,,,,masks/mask_004.jpg,,,,,,,,,,,,,,,,,,,,,,,,,,,,,,,,,,,,,,,,,,,,,,,,0,4,4,3,1,,,,,,,,,,,,,,,,,,,,,,,,,,,,,,,,,,,,,,,,,
653028,001,2022-11-20_23h53.52.656,Info_measure_main_exp,2022.2.2,Win32,59.75500448,,,,,,,,,,,,,,,,,,,,,,,,,,,,,,4,3.2635,1,,,,,,,,,,,,0,131,5,5,2190,2166,absent_patch/patch0002190.jpg,absent_patch/patch0002166.jpg,,,,,,,,,,,,,,,,,,,,0.02870369,-0.053703697,1,0,0,response3disk,6,0.001851894,-0.011111118,1,0,0,center_square,0,5,5,50,1,,,,,,,,,,,,,,,,,,,,,,,
653028,001,2022-11-20_23h53.52.656,Info_measure_main_exp,2022.2.2,Win32,59.75500448,,,,,,,,,,,,,,,,,,masks/mask_002.jpg,,,,,,,,,,,,,,,,,,,,,,,,,,,,,,,,,,,,,,,,,,,0,0,0,1,1,,,,,,,,,,,,,,,,,,,,,,,,,,,,,,,,,,,,,,,,,,,,,,
653028,001,2022-11-20_23h53.52.656,Info_measure_main_exp,2022.2.2,Win32,59.75500448,,,,,,,,,,,,,,,,,,masks/mask_004.jpg,,,,,,,,,,,,,,,,,,,,,,,,,,,,,,,,,,,,,,,,,,,0,1,1,3,1,,,,,,,,,,,,,,,,,,,,,,,,,,,,,,,,,,,,,,,,,,,,,,
653028,001,2022-11-20_23h53.52.656,Info_measure_main_exp,2022.2.2,Win32,59.75500448,,,,,,,,,,,,,,,,,,masks/mask_001.jpg,,,,,,,,,,,,,,,,,,,,,,,,,,,,,,,,,,,,,,,,,,,0,2,2,0,1,,,,,,,,,,,,,,,,,,,,,,,,,,,,,,,,,,,,,,,,,,,,,,
653028,001,2022-11-20_23h53.52.656,Info_measure_main_exp,2022.2.2,Win32,59.75500448,,,,,,,,,,,,,,,,,,masks/mask_003.jpg,,,,,,,,,,,,,,,,,,,,,,,,,,,,,,,,,,,,,,,,,,,0,3,3,2,1,,,,,,,,,,,,,,,,,,,,,,,,,,,,,,,,,,,,,,,,,,,,,,
653028,001,2022-11-20_23h53.52.656,Info_measure_main_exp,2022.2.2,Win32,59.75500448,,,,,,,,,,,,,,,,,,masks/mask_005.jpg,,,,,,,,,,,,,,,,,,,,,,,,,,,,,,,,,,,,,,,,,,,0,4,4,4,1,,,,,,,,,,,,,,,,,,,,,,,,,,,,,,,,,,,,,,,,,,,,,,
653028,001,2022-11-20_23h53.52.656,Info_measure_main_exp,2022.2.2,Win32,59.75500448,,,,,,,,,,,,,,,,,,masks/mask_003.jpg,,,,,,,,,,,,,,,,,,,,,,,,,,,,,,,,,,,,,,,,,,,,,,,,0,0,0,2,1,,,,,,,,,,,,,,,,,,,,,,,,,,,,,,,,,,,,,,,,,
653028,001,2022-11-20_23h53.52.656,Info_measure_main_exp,2022.2.2,Win32,59.75500448,,,,,,,,,,,,,,,,,,masks/mask_002.jpg,,,,,,,,,,,,,,,,,,,,,,,,,,,,,,,,,,,,,,,,,,,,,,,,0,1,1,1,1,,,,,,,,,,,,,,,,,,,,,,,,,,,,,,,,,,,,,,,,,
653028,001,2022-11-20_23h53.52.656,Info_measure_main_exp,2022.2.2,Win32,59.75500448,,,,,,,,,,,,,,,,,,masks/mask_004.jpg,,,,,,,,,,,,,,,,,,,,,,,,,,,,,,,,,,,,,,,,,,,,,,,,0,2,2,3,1,,,,,,,,,,,,,,,,,,,,,,,,,,,,,,,,,,,,,,,,,
653028,001,2022-11-20_23h53.52.656,Info_measure_main_exp,2022.2.2,Win32,59.75500448,,,,,,,,,,,,,,,,,,masks/mask_005.jpg,,,,,,,,,,,,,,,,,,,,,,,,,,,,,,,,,,,,,,,,,,,,,,,,0,3,3,4,1,,,,,,,,,,,,,,,,,,,,,,,,,,,,,,,,,,,,,,,,,
653028,001,2022-11-20_23h53.52.656,Info_measure_main_exp,2022.2.2,Win32,59.75500448,,,,,,,,,,,,,,,,,,masks/mask_001.jpg,,,,,,,,,,,,,,,,,,,,,,,,,,,,,,,,,,,,,,,,,,,,,,,,0,4,4,0,1,,,,,,,,,,,,,,,,,,,,,,,,,,,,,,,,,,,,,,,,,
653028,001,2022-11-20_23h53.52.656,Info_measure_main_exp,2022.2.2,Win32,59.75500448,,,,,,,,,,,,,,,,,,,,,,,,,,,,,,2,1.9814,1,,,,,,,,,,,,0,131,5,5,2274,2238,absent_patch/patch0002274.jpg,absent_patch/patch0002238.jpg,,,,,,,,,,,,,,,,,,,,-0.075925898,-0.034259266,1,0,0,response5disk,7,-0.008333347,-0.00462963,1,0,0,center_square,0,6,6,91,1,,,,,,,,,,,,,,,,,,,,,,,
653028,001,2022-11-20_23h53.52.656,Info_measure_main_exp,2022.2.2,Win32,59.75500448,,,,,,,,,,,,,,,,,,masks/mask_003.jpg,,,,,,,,,,,,,,,,,,,,,,,,,,,,,,,,,,,,,,,,,,,0,0,0,2,1,,,,,,,,,,,,,,,,,,,,,,,,,,,,,,,,,,,,,,,,,,,,,,
653028,001,2022-11-20_23h53.52.656,Info_measure_main_exp,2022.2.2,Win32,59.75500448,,,,,,,,,,,,,,,,,,masks/mask_002.jpg,,,,,,,,,,,,,,,,,,,,,,,,,,,,,,,,,,,,,,,,,,,0,1,1,1,1,,,,,,,,,,,,,,,,,,,,,,,,,,,,,,,,,,,,,,,,,,,,,,
653028,001,2022-11-20_23h53.52.656,Info_measure_main_exp,2022.2.2,Win32,59.75500448,,,,,,,,,,,,,,,,,,masks/mask_004.jpg,,,,,,,,,,,,,,,,,,,,,,,,,,,,,,,,,,,,,,,,,,,0,2,2,3,1,,,,,,,,,,,,,,,,,,,,,,,,,,,,,,,,,,,,,,,,,,,,,,
653028,001,2022-11-20_23h53.52.656,Info_measure_main_exp,2022.2.2,Win32,59.75500448,,,,,,,,,,,,,,,,,,masks/mask_005.jpg,,,,,,,,,,,,,,,,,,,,,,,,,,,,,,,,,,,,,,,,,,,0,3,3,4,1,,,,,,,,,,,,,,,,,,,,,,,,,,,,,,,,,,,,,,,,,,,,,,
653028,001,2022-11-20_23h53.52.656,Info_measure_main_exp,2022.2.2,Win32,59.75500448,,,,,,,,,,,,,,,,,,masks/mask_001.jpg,,,,,,,,,,,,,,,,,,,,,,,,,,,,,,,,,,,,,,,,,,,0,4,4,0,1,,,,,,,,,,,,,,,,,,,,,,,,,,,,,,,,,,,,,,,,,,,,,,
653028,001,2022-11-20_23h53.52.656,Info_measure_main_exp,2022.2.2,Win32,59.75500448,,,,,,,,,,,,,,,,,,masks/mask_005.jpg,,,,,,,,,,,,,,,,,,,,,,,,,,,,,,,,,,,,,,,,,,,,,,,,0,0,0,4,1,,,,,,,,,,,,,,,,,,,,,,,,,,,,,,,,,,,,,,,,,
653028,001,2022-11-20_23h53.52.656,Info_measure_main_exp,2022.2.2,Win32,59.75500448,,,,,,,,,,,,,,,,,,masks/mask_003.jpg,,,,,,,,,,,,,,,,,,,,,,,,,,,,,,,,,,,,,,,,,,,,,,,,0,1,1,2,1,,,,,,,,,,,,,,,,,,,,,,,,,,,,,,,,,,,,,,,,,
653028,001,2022-11-20_23h53.52.656,Info_measure_main_exp,2022.2.2,Win32,59.75500448,,,,,,,,,,,,,,,,,,masks/mask_001.jpg,,,,,,,,,,,,,,,,,,,,,,,,,,,,,,,,,,,,,,,,,,,,,,,,0,2,2,0,1,,,,,,,,,,,,,,,,,,,,,,,,,,,,,,,,,,,,,,,,,
653028,001,2022-11-20_23h53.52.656,Info_measure_main_exp,2022.2.2,Win32,59.75500448,,,,,,,,,,,,,,,,,,masks/mask_002.jpg,,,,,,,,,,,,,,,,,,,,,,,,,,,,,,,,,,,,,,,,,,,,,,,,0,3,3,1,1,,,,,,,,,,,,,,,,,,,,,,,,,,,,,,,,,,,,,,,,,
653028,001,2022-11-20_23h53.52.656,Info_measure_main_exp,2022.2.2,Win32,59.75500448,,,,,,,,,,,,,,,,,,masks/mask_004.jpg,,,,,,,,,,,,,,,,,,,,,,,,,,,,,,,,,,,,,,,,,,,,,,,,0,4,4,3,1,,,,,,,,,,,,,,,,,,,,,,,,,,,,,,,,,,,,,,,,,
653028,001,2022-11-20_23h53.52.656,Info_measure_main_exp,2022.2.2,Win32,59.75500448,,,,,,,,,,,,,,,,,,,,,,,,,,,,,,1,1.1494,1,,,,,,,,,,,,0,131,5,5,1974,1950,absent_patch/patch0001974.jpg,absent_patch/patch0001950.jpg,,,,,,,,,,,,,,,,,,,,-0.085185157,0.048148155,1,0,0,response7disk,8,-0.00462963,0.006481489,1,0,0,center_square,0,7,7,17,1,,,,,,,,,,,,,,,,,,,,,,,
653028,001,2022-11-20_23h53.52.656,Info_measure_main_exp,2022.2.2,Win32,59.75500448,,,,,,,,,,,,,,,,,,masks/mask_003.jpg,,,,,,,,,,,,,,,,,,,,,,,,,,,,,,,,,,,,,,,,,,,0,0,0,2,1,,,,,,,,,,,,,,,,,,,,,,,,,,,,,,,,,,,,,,,,,,,,,,
653028,001,2022-11-20_23h53.52.656,Info_measure_main_exp,2022.2.2,Win32,59.75500448,,,,,,,,,,,,,,,,,,masks/mask_001.jpg,,,,,,,,,,,,,,,,,,,,,,,,,,,,,,,,,,,,,,,,,,,0,1,1,0,1,,,,,,,,,,,,,,,,,,,,,,,,,,,,,,,,,,,,,,,,,,,,,,
653028,001,2022-11-20_23h53.52.656,Info_measure_main_exp,2022.2.2,Win32,59.75500448,,,,,,,,,,,,,,,,,,masks/mask_004.jpg,,,,,,,,,,,,,,,,,,,,,,,,,,,,,,,,,,,,,,,,,,,0,2,2,3,1,,,,,,,,,,,,,,,,,,,,,,,,,,,,,,,,,,,,,,,,,,,,,,
653028,001,2022-11-20_23h53.52.656,Info_measure_main_exp,2022.2.2,Win32,59.75500448,,,,,,,,,,,,,,,,,,masks/mask_002.jpg,,,,,,,,,,,,,,,,,,,,,,,,,,,,,,,,,,,,,,,,,,,0,3,3,1,1,,,,,,,,,,,,,,,,,,,,,,,,,,,,,,,,,,,,,,,,,,,,,,
653028,001,2022-11-20_23h53.52.656,Info_measure_main_exp,2022.2.2,Win32,59.75500448,,,,,,,,,,,,,,,,,,masks/mask_005.jpg,,,,,,,,,,,,,,,,,,,,,,,,,,,,,,,,,,,,,,,,,,,0,4,4,4,1,,,,,,,,,,,,,,,,,,,,,,,,,,,,,,,,,,,,,,,,,,,,,,
653028,001,2022-11-20_23h53.52.656,Info_measure_main_exp,2022.2.2,Win32,59.75500448,,,,,,,,,,,,,,,,,,masks/mask_001.jpg,,,,,,,,,,,,,,,,,,,,,,,,,,,,,,,,,,,,,,,,,,,,,,,,0,0,0,0,1,,,,,,,,,,,,,,,,,,,,,,,,,,,,,,,,,,,,,,,,,
653028,001,2022-11-20_23h53.52.656,Info_measure_main_exp,2022.2.2,Win32,59.75500448,,,,,,,,,,,,,,,,,,masks/mask_004.jpg,,,,,,,,,,,,,,,,,,,,,,,,,,,,,,,,,,,,,,,,,,,,,,,,0,1,1,3,1,,,,,,,,,,,,,,,,,,,,,,,,,,,,,,,,,,,,,,,,,
653028,001,2022-11-20_23h53.52.656,Info_measure_main_exp,2022.2.2,Win32,59.75500448,,,,,,,,,,,,,,,,,,masks/mask_003.jpg,,,,,,,,,,,,,,,,,,,,,,,,,,,,,,,,,,,,,,,,,,,,,,,,0,2,2,2,1,,,,,,,,,,,,,,,,,,,,,,,,,,,,,,,,,,,,,,,,,
653028,001,2022-11-20_23h53.52.656,Info_measure_main_exp,2022.2.2,Win32,59.75500448,,,,,,,,,,,,,,,,,,masks/mask_002.jpg,,,,,,,,,,,,,,,,,,,,,,,,,,,,,,,,,,,,,,,,,,,,,,,,0,3,3,1,1,,,,,,,,,,,,,,,,,,,,,,,,,,,,,,,,,,,,,,,,,
653028,001,2022-11-20_23h53.52.656,Info_measure_main_exp,2022.2.2,Win32,59.75500448,,,,,,,,,,,,,,,,,,masks/mask_005.jpg,,,,,,,,,,,,,,,,,,,,,,,,,,,,,,,,,,,,,,,,,,,,,,,,0,4,4,4,1,,,,,,,,,,,,,,,,,,,,,,,,,,,,,,,,,,,,,,,,,
653028,001,2022-11-20_23h53.52.656,Info_measure_main_exp,2022.2.2,Win32,59.75500448,,,,,,,,,,,,,,,,,,,,,,,,,,,,,,5,2.5969,1,,,,,,,,,,,,0,131,5,5,2190,2250,absent_patch/patch0002190.jpg,absent_patch/patch0002250.jpg,,,,,,,,,,,,,,,,,,,,0.079629616,-0.056481503,1,0,0,response3disk,9,0.006481524,-0.002777771,1,0,0,center_square,0,8,8,93,1,,,,,,,,,,,,,,,,,,,,,,,
653028,001,2022-11-20_23h53.52.656,Info_measure_main_exp,2022.2.2,Win32,59.75500448,,,,,,,,,,,,,,,,,,masks/mask_001.jpg,,,,,,,,,,,,,,,,,,,,,,,,,,,,,,,,,,,,,,,,,,,0,0,0,0,1,,,,,,,,,,,,,,,,,,,,,,,,,,,,,,,,,,,,,,,,,,,,,,
653028,001,2022-11-20_23h53.52.656,Info_measure_main_exp,2022.2.2,Win32,59.75500448,,,,,,,,,,,,,,,,,,masks/mask_005.jpg,,,,,,,,,,,,,,,,,,,,,,,,,,,,,,,,,,,,,,,,,,,0,1,1,4,1,,,,,,,,,,,,,,,,,,,,,,,,,,,,,,,,,,,,,,,,,,,,,,
653028,001,2022-11-20_23h53.52.656,Info_measure_main_exp,2022.2.2,Win32,59.75500448,,,,,,,,,,,,,,,,,,masks/mask_003.jpg,,,,,,,,,,,,,,,,,,,,,,,,,,,,,,,,,,,,,,,,,,,0,2,2,2,1,,,,,,,,,,,,,,,,,,,,,,,,,,,,,,,,,,,,,,,,,,,,,,
653028,001,2022-11-20_23h53.52.656,Info_measure_main_exp,2022.2.2,Win32,59.75500448,,,,,,,,,,,,,,,,,,masks/mask_002.jpg,,,,,,,,,,,,,,,,,,,,,,,,,,,,,,,,,,,,,,,,,,,0,3,3,1,1,,,,,,,,,,,,,,,,,,,,,,,,,,,,,,,,,,,,,,,,,,,,,,
653028,001,2022-11-20_23h53.52.656,Info_measure_main_exp,2022.2.2,Win32,59.75500448,,,,,,,,,,,,,,,,,,masks/mask_004.jpg,,,,,,,,,,,,,,,,,,,,,,,,,,,,,,,,,,,,,,,,,,,0,4,4,3,1,,,,,,,,,,,,,,,,,,,,,,,,,,,,,,,,,,,,,,,,,,,,,,
653028,001,2022-11-20_23h53.52.656,Info_measure_main_exp,2022.2.2,Win32,59.75500448,,,,,,,,,,,,,,,,,,masks/mask_004.jpg,,,,,,,,,,,,,,,,,,,,,,,,,,,,,,,,,,,,,,,,,,,,,,,,0,0,0,3,1,,,,,,,,,,,,,,,,,,,,,,,,,,,,,,,,,,,,,,,,,
653028,001,2022-11-20_23h53.52.656,Info_measure_main_exp,2022.2.2,Win32,59.75500448,,,,,,,,,,,,,,,,,,masks/mask_005.jpg,,,,,,,,,,,,,,,,,,,,,,,,,,,,,,,,,,,,,,,,,,,,,,,,0,1,1,4,1,,,,,,,,,,,,,,,,,,,,,,,,,,,,,,,,,,,,,,,,,
653028,001,2022-11-20_23h53.52.656,Info_measure_main_exp,2022.2.2,Win32,59.75500448,,,,,,,,,,,,,,,,,,masks/mask_001.jpg,,,,,,,,,,,,,,,,,,,,,,,,,,,,,,,,,,,,,,,,,,,,,,,,0,2,2,0,1,,,,,,,,,,,,,,,,,,,,,,,,,,,,,,,,,,,,,,,,,
653028,001,2022-11-20_23h53.52.656,Info_measure_main_exp,2022.2.2,Win32,59.75500448,,,,,,,,,,,,,,,,,,masks/mask_003.jpg,,,,,,,,,,,,,,,,,,,,,,,,,,,,,,,,,,,,,,,,,,,,,,,,0,3,3,2,1,,,,,,,,,,,,,,,,,,,,,,,,,,,,,,,,,,,,,,,,,
653028,001,2022-11-20_23h53.52.656,Info_measure_main_exp,2022.2.2,Win32,59.75500448,,,,,,,,,,,,,,,,,,masks/mask_002.jpg,,,,,,,,,,,,,,,,,,,,,,,,,,,,,,,,,,,,,,,,,,,,,,,,0,4,4,1,1,,,,,,,,,,,,,,,,,,,,,,,,,,,,,,,,,,,,,,,,,
653028,001,2022-11-20_23h53.52.656,Info_measure_main_exp,2022.2.2,Win32,59.75500448,,,,,,,,,,,,,,,,,,,,,,,,,,,,,,0,0.7825,1,,,,,,,,,,,,0,131,5,5,2250,2250,absent_patch/patch0002250.jpg,absent_patch/patch0002250.jpg,,,,,,,,,,,,,,,,,,,,-0.045370384,0.100925905,1,0,0,response7disk,10,0.000925912,0.009259259,1,0,0,center_square,0,9,9,56,1,,,,,,,,,,,,,,,,,,,,,,,
653028,001,2022-11-20_23h53.52.656,Info_measure_main_exp,2022.2.2,Win32,59.75500448,,,,,,,,,,,,,,,,,,masks/mask_004.jpg,,,,,,,,,,,,,,,,,,,,,,,,,,,,,,,,,,,,,,,,,,,0,0,0,3,1,,,,,,,,,,,,,,,,,,,,,,,,,,,,,,,,,,,,,,,,,,,,,,
653028,001,2022-11-20_23h53.52.656,Info_measure_main_exp,2022.2.2,Win32,59.75500448,,,,,,,,,,,,,,,,,,masks/mask_001.jpg,,,,,,,,,,,,,,,,,,,,,,,,,,,,,,,,,,,,,,,,,,,0,1,1,0,1,,,,,,,,,,,,,,,,,,,,,,,,,,,,,,,,,,,,,,,,,,,,,,
653028,001,2022-11-20_23h53.52.656,Info_measure_main_exp,2022.2.2,Win32,59.75500448,,,,,,,,,,,,,,,,,,masks/mask_003.jpg,,,,,,,,,,,,,,,,,,,,,,,,,,,,,,,,,,,,,,,,,,,0,2,2,2,1,,,,,,,,,,,,,,,,,,,,,,,,,,,,,,,,,,,,,,,,,,,,,,
653028,001,2022-11-20_23h53.52.656,Info_measure_main_exp,2022.2.2,Win32,59.75500448,,,,,,,,,,,,,,,,,,masks/mask_005.jpg,,,,,,,,,,,,,,,,,,,,,,,,,,,,,,,,,,,,,,,,,,,0,3,3,4,1,,,,,,,,,,,,,,,,,,,,,,,,,,,,,,,,,,,,,,,,,,,,,,
653028,001,2022-11-20_23h53.52.656,Info_measure_main_exp,2022.2.2,Win32,59.75500448,,,,,,,,,,,,,,,,,,masks/mask_002.jpg,,,,,,,,,,,,,,,,,,,,,,,,,,,,,,,,,,,,,,,,,,,0,4,4,1,1,,,,,,,,,,,,,,,,,,,,,,,,,,,,,,,,,,,,,,,,,,,,,,
653028,001,2022-11-20_23h53.52.656,Info_measure_main_exp,2022.2.2,Win32,59.75500448,,,,,,,,,,,,,,,,,,masks/mask_004.jpg,,,,,,,,,,,,,,,,,,,,,,,,,,,,,,,,,,,,,,,,,,,,,,,,0,0,0,3,1,,,,,,,,,,,,,,,,,,,,,,,,,,,,,,,,,,,,,,,,,
653028,001,2022-11-20_23h53.52.656,Info_measure_main_exp,2022.2.2,Win32,59.75500448,,,,,,,,,,,,,,,,,,masks/mask_001.jpg,,,,,,,,,,,,,,,,,,,,,,,,,,,,,,,,,,,,,,,,,,,,,,,,0,1,1,0,1,,,,,,,,,,,,,,,,,,,,,,,,,,,,,,,,,,,,,,,,,
653028,001,2022-11-20_23h53.52.656,Info_measure_main_exp,2022.2.2,Win32,59.75500448,,,,,,,,,,,,,,,,,,masks/mask_003.jpg,,,,,,,,,,,,,,,,,,,,,,,,,,,,,,,,,,,,,,,,,,,,,,,,0,2,2,2,1,,,,,,,,,,,,,,,,,,,,,,,,,,,,,,,,,,,,,,,,,
653028,001,2022-11-20_23h53.52.656,Info_measure_main_exp,2022.2.2,Win32,59.75500448,,,,,,,,,,,,,,,,,,masks/mask_005.jpg,,,,,,,,,,,,,,,,,,,,,,,,,,,,,,,,,,,,,,,,,,,,,,,,0,3,3,4,1,,,,,,,,,,,,,,,,,,,,,,,,,,,,,,,,,,,,,,,,,
653028,001,2022-11-20_23h53.52.656,Info_measure_main_exp,2022.2.2,Win32,59.75500448,,,,,,,,,,,,,,,,,,masks/mask_002.jpg,,,,,,,,,,,,,,,,,,,,,,,,,,,,,,,,,,,,,,,,,,,,,,,,0,4,4,1,1,,,,,,,,,,,,,,,,,,,,,,,,,,,,,,,,,,,,,,,,,
653028,001,2022-11-20_23h53.52.656,Info_measure_main_exp,2022.2.2,Win32,59.75500448,,,,,,,,,,,,,,,,,,,,,,,,,,,,,,3,7.2262,1,,,,,,,,,,,,0,131,5,5,2190,1986,absent_patch/patch0002190.jpg,absent_patch/patch0001986.jpg,,,,,,,,,,,,,,,,,,,,-0.010185171,-0.079629651,1,0,0,response5disk,11,-0.001851824,-0.005555577,1,0,0,center_square,0,10,10,111,1,,,,,,,,,,,,,,,,,,,,,,,
653028,001,2022-11-20_23h53.52.656,Info_measure_main_exp,2022.2.2,Win32,59.75500448,,,,,,,,,,,,,,,,,,masks/mask_003.jpg,,,,,,,,,,,,,,,,,,,,,,,,,,,,,,,,,,,,,,,,,,,0,0,0,2,1,,,,,,,,,,,,,,,,,,,,,,,,,,,,,,,,,,,,,,,,,,,,,,
653028,001,2022-11-20_23h53.52.656,Info_measure_main_exp,2022.2.2,Win32,59.75500448,,,,,,,,,,,,,,,,,,masks/mask_001.jpg,,,,,,,,,,,,,,,,,,,,,,,,,,,,,,,,,,,,,,,,,,,0,1,1,0,1,,,,,,,,,,,,,,,,,,,,,,,,,,,,,,,,,,,,,,,,,,,,,,
653028,001,2022-11-20_23h53.52.656,Info_measure_main_exp,2022.2.2,Win32,59.75500448,,,,,,,,,,,,,,,,,,masks/mask_002.jpg,,,,,,,,,,,,,,,,,,,,,,,,,,,,,,,,,,,,,,,,,,,0,2,2,1,1,,,,,,,,,,,,,,,,,,,,,,,,,,,,,,,,,,,,,,,,,,,,,,
653028,001,2022-11-20_23h53.52.656,Info_measure_main_exp,2022.2.2,Win32,59.75500448,,,,,,,,,,,,,,,,,,masks/mask_005.jpg,,,,,,,,,,,,,,,,,,,,,,,,,,,,,,,,,,,,,,,,,,,0,3,3,4,1,,,,,,,,,,,,,,,,,,,,,,,,,,,,,,,,,,,,,,,,,,,,,,
653028,001,2022-11-20_23h53.52.656,Info_measure_main_exp,2022.2.2,Win32,59.75500448,,,,,,,,,,,,,,,,,,masks/mask_004.jpg,,,,,,,,,,,,,,,,,,,,,,,,,,,,,,,,,,,,,,,,,,,0,4,4,3,1,,,,,,,,,,,,,,,,,,,,,,,,,,,,,,,,,,,,,,,,,,,,,,
653028,001,2022-11-20_23h53.52.656,Info_measure_main_exp,2022.2.2,Win32,59.75500448,,,,,,,,,,,,,,,,,,masks/mask_002.jpg,,,,,,,,,,,,,,,,,,,,,,,,,,,,,,,,,,,,,,,,,,,,,,,,0,0,0,1,1,,,,,,,,,,,,,,,,,,,,,,,,,,,,,,,,,,,,,,,,,
653028,001,2022-11-20_23h53.52.656,Info_measure_main_exp,2022.2.2,Win32,59.75500448,,,,,,,,,,,,,,,,,,masks/mask_004.jpg,,,,,,,,,,,,,,,,,,,,,,,,,,,,,,,,,,,,,,,,,,,,,,,,0,1,1,3,1,,,,,,,,,,,,,,,,,,,,,,,,,,,,,,,,,,,,,,,,,
653028,001,2022-11-20_23h53.52.656,Info_measure_main_exp,2022.2.2,Win32,59.75500448,,,,,,,,,,,,,,,,,,masks/mask_005.jpg,,,,,,,,,,,,,,,,,,,,,,,,,,,,,,,,,,,,,,,,,,,,,,,,0,2,2,4,1,,,,,,,,,,,,,,,,,,,,,,,,,,,,,,,,,,,,,,,,,
653028,001,2022-11-20_23h53.52.656,Info_measure_main_exp,2022.2.2,Win32,59.75500448,,,,,,,,,,,,,,,,,,masks/mask_001.jpg,,,,,,,,,,,,,,,,,,,,,,,,,,,,,,,,,,,,,,,,,,,,,,,,0,3,3,0,1,,,,,,,,,,,,,,,,,,,,,,,,,,,,,,,,,,,,,,,,,
653028,001,2022-11-20_23h53.52.656,Info_measure_main_exp,2022.2.2,Win32,59.75500448,,,,,,,,,,,,,,,,,,masks/mask_003.jpg,,,,,,,,,,,,,,,,,,,,,,,,,,,,,,,,,,,,,,,,,,,,,,,,0,4,4,2,1,,,,,,,,,,,,,,,,,,,,,,,,,,,,,,,,,,,,,,,,,
653028,001,2022-11-20_23h53.52.656,Info_measure_main_exp,2022.2.2,Win32,59.75500448,,,,,,,,,,,,,,,,,,,,,,,,,,,,,,4,3.3629,1,,,,,,,,,,,,0,131,5,5,2190,2238,absent_patch/patch0002190.jpg,absent_patch/patch0002238.jpg,,,,,,,,,,,,,,,,,,,,0.050000014,-0.077777792,1,0,0,response3disk,12,0,-0.0074074,1,0,0,center_square,0,11,11,53,1,,,,,,,,,,,,,,,,,,,,,,,
653028,001,2022-11-20_23h53.52.656,Info_measure_main_exp,2022.2.2,Win32,59.75500448,,,,,,,,,,,,,,,,,,masks/mask_004.jpg,,,,,,,,,,,,,,,,,,,,,,,,,,,,,,,,,,,,,,,,,,,0,0,0,3,1,,,,,,,,,,,,,,,,,,,,,,,,,,,,,,,,,,,,,,,,,,,,,,
653028,001,2022-11-20_23h53.52.656,Info_measure_main_exp,2022.2.2,Win32,59.75500448,,,,,,,,,,,,,,,,,,masks/mask_003.jpg,,,,,,,,,,,,,,,,,,,,,,,,,,,,,,,,,,,,,,,,,,,0,1,1,2,1,,,,,,,,,,,,,,,,,,,,,,,,,,,,,,,,,,,,,,,,,,,,,,
653028,001,2022-11-20_23h53.52.656,Info_measure_main_exp,2022.2.2,Win32,59.75500448,,,,,,,,,,,,,,,,,,masks/mask_001.jpg,,,,,,,,,,,,,,,,,,,,,,,,,,,,,,,,,,,,,,,,,,,0,2,2,0,1,,,,,,,,,,,,,,,,,,,,,,,,,,,,,,,,,,,,,,,,,,,,,,
653028,001,2022-11-20_23h53.52.656,Info_measure_main_exp,2022.2.2,Win32,59.75500448,,,,,,,,,,,,,,,,,,masks/mask_005.jpg,,,,,,,,,,,,,,,,,,,,,,,,,,,,,,,,,,,,,,,,,,,0,3,3,4,1,,,,,,,,,,,,,,,,,,,,,,,,,,,,,,,,,,,,,,,,,,,,,,
653028,001,2022-11-20_23h53.52.656,Info_measure_main_exp,2022.2.2,Win32,59.75500448,,,,,,,,,,,,,,,,,,masks/mask_002.jpg,,,,,,,,,,,,,,,,,,,,,,,,,,,,,,,,,,,,,,,,,,,0,4,4,1,1,,,,,,,,,,,,,,,,,,,,,,,,,,,,,,,,,,,,,,,,,,,,,,
653028,001,2022-11-20_23h53.52.656,Info_measure_main_exp,2022.2.2,Win32,59.75500448,,,,,,,,,,,,,,,,,,masks/mask_005.jpg,,,,,,,,,,,,,,,,,,,,,,,,,,,,,,,,,,,,,,,,,,,,,,,,0,0,0,4,1,,,,,,,,,,,,,,,,,,,,,,,,,,,,,,,,,,,,,,,,,
653028,001,2022-11-20_23h53.52.656,Info_measure_main_exp,2022.2.2,Win32,59.75500448,,,,,,,,,,,,,,,,,,masks/mask_001.jpg,,,,,,,,,,,,,,,,,,,,,,,,,,,,,,,,,,,,,,,,,,,,,,,,0,1,1,0,1,,,,,,,,,,,,,,,,,,,,,,,,,,,,,,,,,,,,,,,,,
653028,001,2022-11-20_23h53.52.656,Info_measure_main_exp,2022.2.2,Win32,59.75500448,,,,,,,,,,,,,,,,,,masks/mask_004.jpg,,,,,,,,,,,,,,,,,,,,,,,,,,,,,,,,,,,,,,,,,,,,,,,,0,2,2,3,1,,,,,,,,,,,,,,,,,,,,,,,,,,,,,,,,,,,,,,,,,
653028,001,2022-11-20_23h53.52.656,Info_measure_main_exp,2022.2.2,Win32,59.75500448,,,,,,,,,,,,,,,,,,masks/mask_003.jpg,,,,,,,,,,,,,,,,,,,,,,,,,,,,,,,,,,,,,,,,,,,,,,,,0,3,3,2,1,,,,,,,,,,,,,,,,,,,,,,,,,,,,,,,,,,,,,,,,,
653028,001,2022-11-20_23h53.52.656,Info_measure_main_exp,2022.2.2,Win32,59.75500448,,,,,,,,,,,,,,,,,,masks/mask_002.jpg,,,,,,,,,,,,,,,,,,,,,,,,,,,,,,,,,,,,,,,,,,,,,,,,0,4,4,1,1,,,,,,,,,,,,,,,,,,,,,,,,,,,,,,,,,,,,,,,,,
653028,001,2022-11-20_23h53.52.656,Info_measure_main_exp,2022.2.2,Win32,59.75500448,,,,,,,,,,,,,,,,,,,,,,,,,,,,,,3,3.413,1,,,,,,,,,,,,0,131,5,5,2082,2178,absent_patch/patch0002082.jpg,absent_patch/patch0002178.jpg,,,,,,,,,,,,,,,,,,,,-0.042592578,-0.08888891,1,0,0,response5disk,13,0.000925912,-0.008333347,1,0,0,center_square,0,12,12,2,1,,,,,,,,,,,,,,,,,,,,,,,
653028,001,2022-11-20_23h53.52.656,Info_measure_main_exp,2022.2.2,Win32,59.75500448,,,,,,,,,,,,,,,,,,masks/mask_003.jpg,,,,,,,,,,,,,,,,,,,,,,,,,,,,,,,,,,,,,,,,,,,0,0,0,2,1,,,,,,,,,,,,,,,,,,,,,,,,,,,,,,,,,,,,,,,,,,,,,,
653028,001,2022-11-20_23h53.52.656,Info_measure_main_exp,2022.2.2,Win32,59.75500448,,,,,,,,,,,,,,,,,,masks/mask_002.jpg,,,,,,,,,,,,,,,,,,,,,,,,,,,,,,,,,,,,,,,,,,,0,1,1,1,1,,,,,,,,,,,,,,,,,,,,,,,,,,,,,,,,,,,,,,,,,,,,,,
653028,001,2022-11-20_23h53.52.656,Info_measure_main_exp,2022.2.2,Win32,59.75500448,,,,,,,,,,,,,,,,,,masks/mask_004.jpg,,,,,,,,,,,,,,,,,,,,,,,,,,,,,,,,,,,,,,,,,,,0,2,2,3,1,,,,,,,,,,,,,,,,,,,,,,,,,,,,,,,,,,,,,,,,,,,,,,
653028,001,2022-11-20_23h53.52.656,Info_measure_main_exp,2022.2.2,Win32,59.75500448,,,,,,,,,,,,,,,,,,masks/mask_005.jpg,,,,,,,,,,,,,,,,,,,,,,,,,,,,,,,,,,,,,,,,,,,0,3,3,4,1,,,,,,,,,,,,,,,,,,,,,,,,,,,,,,,,,,,,,,,,,,,,,,
653028,001,2022-11-20_23h53.52.656,Info_measure_main_exp,2022.2.2,Win32,59.75500448,,,,,,,,,,,,,,,,,,masks/mask_001.jpg,,,,,,,,,,,,,,,,,,,,,,,,,,,,,,,,,,,,,,,,,,,0,4,4,0,1,,,,,,,,,,,,,,,,,,,,,,,,,,,,,,,,,,,,,,,,,,,,,,
653028,001,2022-11-20_23h53.52.656,Info_measure_main_exp,2022.2.2,Win32,59.75500448,,,,,,,,,,,,,,,,,,masks/mask_002.jpg,,,,,,,,,,,,,,,,,,,,,,,,,,,,,,,,,,,,,,,,,,,,,,,,0,0,0,1,1,,,,,,,,,,,,,,,,,,,,,,,,,,,,,,,,,,,,,,,,,
653028,001,2022-11-20_23h53.52.656,Info_measure_main_exp,2022.2.2,Win32,59.75500448,,,,,,,,,,,,,,,,,,masks/mask_005.jpg,,,,,,,,,,,,,,,,,,,,,,,,,,,,,,,,,,,,,,,,,,,,,,,,0,1,1,4,1,,,,,,,,,,,,,,,,,,,,,,,,,,,,,,,,,,,,,,,,,
653028,001,2022-11-20_23h53.52.656,Info_measure_main_exp,2022.2.2,Win32,59.75500448,,,,,,,,,,,,,,,,,,masks/mask_003.jpg,,,,,,,,,,,,,,,,,,,,,,,,,,,,,,,,,,,,,,,,,,,,,,,,0,2,2,2,1,,,,,,,,,,,,,,,,,,,,,,,,,,,,,,,,,,,,,,,,,
653028,001,2022-11-20_23h53.52.656,Info_measure_main_exp,2022.2.2,Win32,59.75500448,,,,,,,,,,,,,,,,,,masks/mask_004.jpg,,,,,,,,,,,,,,,,,,,,,,,,,,,,,,,,,,,,,,,,,,,,,,,,0,3,3,3,1,,,,,,,,,,,,,,,,,,,,,,,,,,,,,,,,,,,,,,,,,
653028,001,2022-11-20_23h53.52.656,Info_measure_main_exp,2022.2.2,Win32,59.75500448,,,,,,,,,,,,,,,,,,masks/mask_001.jpg,,,,,,,,,,,,,,,,,,,,,,,,,,,,,,,,,,,,,,,,,,,,,,,,0,4,4,0,1,,,,,,,,,,,,,,,,,,,,,,,,,,,,,,,,,,,,,,,,,
653028,001,2022-11-20_23h53.52.656,Info_measure_main_exp,2022.2.2,Win32,59.75500448,,,,,,,,,,,,,,,,,,,,,,,,,,,,,,0,1.7152,1,,,,,,,,,,,,0,131,5,5,1974,1974,absent_patch/patch0001974.jpg,absent_patch/patch0001974.jpg,,,,,,,,,,,,,,,,,,,,-0.029629601,0.109259252,1,0,0,response7disk,14,0.014814801,-0.011111118,1,0,0,center_square,0,13,13,113,1,,,,,,,,,,,,,,,,,,,,,,,
653028,001,2022-11-20_23h53.52.656,Info_measure_main_exp,2022.2.2,Win32,59.75500448,,,,,,,,,,,,,,,,,,masks/mask_005.jpg,,,,,,,,,,,,,,,,,,,,,,,,,,,,,,,,,,,,,,,,,,,0,0,0,4,1,,,,,,,,,,,,,,,,,,,,,,,,,,,,,,,,,,,,,,,,,,,,,,
653028,001,2022-11-20_23h53.52.656,Info_measure_main_exp,2022.2.2,Win32,59.75500448,,,,,,,,,,,,,,,,,,masks/mask_001.jpg,,,,,,,,,,,,,,,,,,,,,,,,,,,,,,,,,,,,,,,,,,,0,1,1,0,1,,,,,,,,,,,,,,,,,,,,,,,,,,,,,,,,,,,,,,,,,,,,,,
653028,001,2022-11-20_23h53.52.656,Info_measure_main_exp,2022.2.2,Win32,59.75500448,,,,,,,,,,,,,,,,,,masks/mask_004.jpg,,,,,,,,,,,,,,,,,,,,,,,,,,,,,,,,,,,,,,,,,,,0,2,2,3,1,,,,,,,,,,,,,,,,,,,,,,,,,,,,,,,,,,,,,,,,,,,,,,
653028,001,2022-11-20_23h53.52.656,Info_measure_main_exp,2022.2.2,Win32,59.75500448,,,,,,,,,,,,,,,,,,masks/mask_002.jpg,,,,,,,,,,,,,,,,,,,,,,,,,,,,,,,,,,,,,,,,,,,0,3,3,1,1,,,,,,,,,,,,,,,,,,,,,,,,,,,,,,,,,,,,,,,,,,,,,,
653028,001,2022-11-20_23h53.52.656,Info_measure_main_exp,2022.2.2,Win32,59.75500448,,,,,,,,,,,,,,,,,,masks/mask_003.jpg,,,,,,,,,,,,,,,,,,,,,,,,,,,,,,,,,,,,,,,,,,,0,4,4,2,1,,,,,,,,,,,,,,,,,,,,,,,,,,,,,,,,,,,,,,,,,,,,,,
653028,001,2022-11-20_23h53.52.656,Info_measure_main_exp,2022.2.2,Win32,59.75500448,,,,,,,,,,,,,,,,,,masks/mask_004.jpg,,,,,,,,,,,,,,,,,,,,,,,,,,,,,,,,,,,,,,,,,,,,,,,,0,0,0,3,1,,,,,,,,,,,,,,,,,,,,,,,,,,,,,,,,,,,,,,,,,
653028,001,2022-11-20_23h53.52.656,Info_measure_main_exp,2022.2.2,Win32,59.75500448,,,,,,,,,,,,,,,,,,masks/mask_005.jpg,,,,,,,,,,,,,,,,,,,,,,,,,,,,,,,,,,,,,,,,,,,,,,,,0,1,1,4,1,,,,,,,,,,,,,,,,,,,,,,,,,,,,,,,,,,,,,,,,,
653028,001,2022-11-20_23h53.52.656,Info_measure_main_exp,2022.2.2,Win32,59.75500448,,,,,,,,,,,,,,,,,,masks/mask_003.jpg,,,,,,,,,,,,,,,,,,,,,,,,,,,,,,,,,,,,,,,,,,,,,,,,0,2,2,2,1,,,,,,,,,,,,,,,,,,,,,,,,,,,,,,,,,,,,,,,,,
653028,001,2022-11-20_23h53.52.656,Info_measure_main_exp,2022.2.2,Win32,59.75500448,,,,,,,,,,,,,,,,,,masks/mask_002.jpg,,,,,,,,,,,,,,,,,,,,,,,,,,,,,,,,,,,,,,,,,,,,,,,,0,3,3,1,1,,,,,,,,,,,,,,,,,,,,,,,,,,,,,,,,,,,,,,,,,
653028,001,2022-11-20_23h53.52.656,Info_measure_main_exp,2022.2.2,Win32,59.75500448,,,,,,,,,,,,,,,,,,masks/mask_001.jpg,,,,,,,,,,,,,,,,,,,,,,,,,,,,,,,,,,,,,,,,,,,,,,,,0,4,4,0,1,,,,,,,,,,,,,,,,,,,,,,,,,,,,,,,,,,,,,,,,,
653028,001,2022-11-20_23h53.52.656,Info_measure_main_exp,2022.2.2,Win32,59.75500448,,,,,,,,,,,,,,,,,,,,,,,,,,,,,,0,0.5994,1,,,,,,,,,,,,0,131,5,5,2154,2154,absent_patch/patch0002154.jpg,absent_patch/patch0002154.jpg,,,,,,,,,,,,,,,,,,,,-0.012962977,0.099999993,1,0,0,response7disk,15,0.009259259,-0.006481489,1,0,0,center_square,0,14,14,89,1,,,,,,,,,,,,,,,,,,,,,,,
653028,001,2022-11-20_23h53.52.656,Info_measure_main_exp,2022.2.2,Win32,59.75500448,,,,,,,,,,,,,,,,,,masks/mask_005.jpg,,,,,,,,,,,,,,,,,,,,,,,,,,,,,,,,,,,,,,,,,,,0,0,0,4,1,,,,,,,,,,,,,,,,,,,,,,,,,,,,,,,,,,,,,,,,,,,,,,
653028,001,2022-11-20_23h53.52.656,Info_measure_main_exp,2022.2.2,Win32,59.75500448,,,,,,,,,,,,,,,,,,masks/mask_002.jpg,,,,,,,,,,,,,,,,,,,,,,,,,,,,,,,,,,,,,,,,,,,0,1,1,1,1,,,,,,,,,,,,,,,,,,,,,,,,,,,,,,,,,,,,,,,,,,,,,,
653028,001,2022-11-20_23h53.52.656,Info_measure_main_exp,2022.2.2,Win32,59.75500448,,,,,,,,,,,,,,,,,,masks/mask_003.jpg,,,,,,,,,,,,,,,,,,,,,,,,,,,,,,,,,,,,,,,,,,,0,2,2,2,1,,,,,,,,,,,,,,,,,,,,,,,,,,,,,,,,,,,,,,,,,,,,,,
653028,001,2022-11-20_23h53.52.656,Info_measure_main_exp,2022.2.2,Win32,59.75500448,,,,,,,,,,,,,,,,,,masks/mask_004.jpg,,,,,,,,,,,,,,,,,,,,,,,,,,,,,,,,,,,,,,,,,,,0,3,3,3,1,,,,,,,,,,,,,,,,,,,,,,,,,,,,,,,,,,,,,,,,,,,,,,
653028,001,2022-11-20_23h53.52.656,Info_measure_main_exp,2022.2.2,Win32,59.75500448,,,,,,,,,,,,,,,,,,masks/mask_001.jpg,,,,,,,,,,,,,,,,,,,,,,,,,,,,,,,,,,,,,,,,,,,0,4,4,0,1,,,,,,,,,,,,,,,,,,,,,,,,,,,,,,,,,,,,,,,,,,,,,,
653028,001,2022-11-20_23h53.52.656,Info_measure_main_exp,2022.2.2,Win32,59.75500448,,,,,,,,,,,,,,,,,,masks/mask_003.jpg,,,,,,,,,,,,,,,,,,,,,,,,,,,,,,,,,,,,,,,,,,,,,,,,0,0,0,2,1,,,,,,,,,,,,,,,,,,,,,,,,,,,,,,,,,,,,,,,,,
653028,001,2022-11-20_23h53.52.656,Info_measure_main_exp,2022.2.2,Win32,59.75500448,,,,,,,,,,,,,,,,,,masks/mask_002.jpg,,,,,,,,,,,,,,,,,,,,,,,,,,,,,,,,,,,,,,,,,,,,,,,,0,1,1,1,1,,,,,,,,,,,,,,,,,,,,,,,,,,,,,,,,,,,,,,,,,
653028,001,2022-11-20_23h53.52.656,Info_measure_main_exp,2022.2.2,Win32,59.75500448,,,,,,,,,,,,,,,,,,masks/mask_005.jpg,,,,,,,,,,,,,,,,,,,,,,,,,,,,,,,,,,,,,,,,,,,,,,,,0,2,2,4,1,,,,,,,,,,,,,,,,,,,,,,,,,,,,,,,,,,,,,,,,,
653028,001,2022-11-20_23h53.52.656,Info_measure_main_exp,2022.2.2,Win32,59.75500448,,,,,,,,,,,,,,,,,,masks/mask_001.jpg,,,,,,,,,,,,,,,,,,,,,,,,,,,,,,,,,,,,,,,,,,,,,,,,0,3,3,0,1,,,,,,,,,,,,,,,,,,,,,,,,,,,,,,,,,,,,,,,,,
653028,001,2022-11-20_23h53.52.656,Info_measure_main_exp,2022.2.2,Win32,59.75500448,,,,,,,,,,,,,,,,,,masks/mask_004.jpg,,,,,,,,,,,,,,,,,,,,,,,,,,,,,,,,,,,,,,,,,,,,,,,,0,4,4,3,1,,,,,,,,,,,,,,,,,,,,,,,,,,,,,,,,,,,,,,,,,
653028,001,2022-11-20_23h53.52.656,Info_measure_main_exp,2022.2.2,Win32,59.75500448,,,,,,,,,,,,,,,,,,,,,,,,,,,,,,7,1.6153,1,,,,,,,,,,,,1,131,5,5,1,2214,present_patch/cong_131_5_a.jpg,absent_patch/patch0002214.jpg,,,,,,,,,,,,,,,,,,,,0.080555598,0.11296297,1,0,0,response1disk,16,-0.005555541,0.001851859,1,0,0,center_square,0,15,15,4,1,,,,,,,,,,,,,,,,,,,,,,,
653028,001,2022-11-20_23h53.52.656,Info_measure_main_exp,2022.2.2,Win32,59.75500448,,,,,,,,,,,,,,,,,,masks/mask_001.jpg,,,,,,,,,,,,,,,,,,,,,,,,,,,,,,,,,,,,,,,,,,,0,0,0,0,1,,,,,,,,,,,,,,,,,,,,,,,,,,,,,,,,,,,,,,,,,,,,,,
653028,001,2022-11-20_23h53.52.656,Info_measure_main_exp,2022.2.2,Win32,59.75500448,,,,,,,,,,,,,,,,,,masks/mask_004.jpg,,,,,,,,,,,,,,,,,,,,,,,,,,,,,,,,,,,,,,,,,,,0,1,1,3,1,,,,,,,,,,,,,,,,,,,,,,,,,,,,,,,,,,,,,,,,,,,,,,
653028,001,2022-11-20_23h53.52.656,Info_measure_main_exp,2022.2.2,Win32,59.75500448,,,,,,,,,,,,,,,,,,masks/mask_003.jpg,,,,,,,,,,,,,,,,,,,,,,,,,,,,,,,,,,,,,,,,,,,0,2,2,2,1,,,,,,,,,,,,,,,,,,,,,,,,,,,,,,,,,,,,,,,,,,,,,,
653028,001,2022-11-20_23h53.52.656,Info_measure_main_exp,2022.2.2,Win32,59.75500448,,,,,,,,,,,,,,,,,,masks/mask_002.jpg,,,,,,,,,,,,,,,,,,,,,,,,,,,,,,,,,,,,,,,,,,,0,3,3,1,1,,,,,,,,,,,,,,,,,,,,,,,,,,,,,,,,,,,,,,,,,,,,,,
653028,001,2022-11-20_23h53.52.656,Info_measure_main_exp,2022.2.2,Win32,59.75500448,,,,,,,,,,,,,,,,,,masks/mask_005.jpg,,,,,,,,,,,,,,,,,,,,,,,,,,,,,,,,,,,,,,,,,,,0,4,4,4,1,,,,,,,,,,,,,,,,,,,,,,,,,,,,,,,,,,,,,,,,,,,,,,
653028,001,2022-11-20_23h53.52.656,Info_measure_main_exp,2022.2.2,Win32,59.75500448,,,,,,,,,,,,,,,,,,masks/mask_005.jpg,,,,,,,,,,,,,,,,,,,,,,,,,,,,,,,,,,,,,,,,,,,,,,,,0,0,0,4,1,,,,,,,,,,,,,,,,,,,,,,,,,,,,,,,,,,,,,,,,,
653028,001,2022-11-20_23h53.52.656,Info_measure_main_exp,2022.2.2,Win32,59.75500448,,,,,,,,,,,,,,,,,,masks/mask_003.jpg,,,,,,,,,,,,,,,,,,,,,,,,,,,,,,,,,,,,,,,,,,,,,,,,0,1,1,2,1,,,,,,,,,,,,,,,,,,,,,,,,,,,,,,,,,,,,,,,,,
653028,001,2022-11-20_23h53.52.656,Info_measure_main_exp,2022.2.2,Win32,59.75500448,,,,,,,,,,,,,,,,,,masks/mask_002.jpg,,,,,,,,,,,,,,,,,,,,,,,,,,,,,,,,,,,,,,,,,,,,,,,,0,2,2,1,1,,,,,,,,,,,,,,,,,,,,,,,,,,,,,,,,,,,,,,,,,
653028,001,2022-11-20_23h53.52.656,Info_measure_main_exp,2022.2.2,Win32,59.75500448,,,,,,,,,,,,,,,,,,masks/mask_004.jpg,,,,,,,,,,,,,,,,,,,,,,,,,,,,,,,,,,,,,,,,,,,,,,,,0,3,3,3,1,,,,,,,,,,,,,,,,,,,,,,,,,,,,,,,,,,,,,,,,,
653028,001,2022-11-20_23h53.52.656,Info_measure_main_exp,2022.2.2,Win32,59.75500448,,,,,,,,,,,,,,,,,,masks/mask_001.jpg,,,,,,,,,,,,,,,,,,,,,,,,,,,,,,,,,,,,,,,,,,,,,,,,0,4,4,0,1,,,,,,,,,,,,,,,,,,,,,,,,,,,,,,,,,,,,,,,,,
653028,001,2022-11-20_23h53.52.656,Info_measure_main_exp,2022.2.2,Win32,59.75500448,,,,,,,,,,,,,,,,,,,,,,,,,,,,,,7,2.8641,1,,,,,,,,,,,,1,131,5,5,2250,1,absent_patch/patch0002250.jpg,present_patch/cong_131_5_a.jpg,,,,,,,,,,,,,,,,,,,,0.073148162,0.10833334,1,0,0,response1disk,17,0.006481524,0.0074074,1,0,0,center_square,0,16,16,5,1,,,,,,,,,,,,,,,,,,,,,,,
653028,001,2022-11-20_23h53.52.656,Info_measure_main_exp,2022.2.2,Win32,59.75500448,,,,,,,,,,,,,,,,,,masks/mask_004.jpg,,,,,,,,,,,,,,,,,,,,,,,,,,,,,,,,,,,,,,,,,,,0,0,0,3,1,,,,,,,,,,,,,,,,,,,,,,,,,,,,,,,,,,,,,,,,,,,,,,
653028,001,2022-11-20_23h53.52.656,Info_measure_main_exp,2022.2.2,Win32,59.75500448,,,,,,,,,,,,,,,,,,masks/mask_002.jpg,,,,,,,,,,,,,,,,,,,,,,,,,,,,,,,,,,,,,,,,,,,0,1,1,1,1,,,,,,,,,,,,,,,,,,,,,,,,,,,,,,,,,,,,,,,,,,,,,,
653028,001,2022-11-20_23h53.52.656,Info_measure_main_exp,2022.2.2,Win32,59.75500448,,,,,,,,,,,,,,,,,,masks/mask_001.jpg,,,,,,,,,,,,,,,,,,,,,,,,,,,,,,,,,,,,,,,,,,,0,2,2,0,1,,,,,,,,,,,,,,,,,,,,,,,,,,,,,,,,,,,,,,,,,,,,,,
653028,001,2022-11-20_23h53.52.656,Info_measure_main_exp,2022.2.2,Win32,59.75500448,,,,,,,,,,,,,,,,,,masks/mask_003.jpg,,,,,,,,,,,,,,,,,,,,,,,,,,,,,,,,,,,,,,,,,,,0,3,3,2,1,,,,,,,,,,,,,,,,,,,,,,,,,,,,,,,,,,,,,,,,,,,,,,
653028,001,2022-11-20_23h53.52.656,Info_measure_main_exp,2022.2.2,Win32,59.75500448,,,,,,,,,,,,,,,,,,masks/mask_005.jpg,,,,,,,,,,,,,,,,,,,,,,,,,,,,,,,,,,,,,,,,,,,0,4,4,4,1,,,,,,,,,,,,,,,,,,,,,,,,,,,,,,,,,,,,,,,,,,,,,,
653028,001,2022-11-20_23h53.52.656,Info_measure_main_exp,2022.2.2,Win32,59.75500448,,,,,,,,,,,,,,,,,,masks/mask_004.jpg,,,,,,,,,,,,,,,,,,,,,,,,,,,,,,,,,,,,,,,,,,,,,,,,0,0,0,3,1,,,,,,,,,,,,,,,,,,,,,,,,,,,,,,,,,,,,,,,,,
653028,001,2022-11-20_23h53.52.656,Info_measure_main_exp,2022.2.2,Win32,59.75500448,,,,,,,,,,,,,,,,,,masks/mask_001.jpg,,,,,,,,,,,,,,,,,,,,,,,,,,,,,,,,,,,,,,,,,,,,,,,,0,1,1,0,1,,,,,,,,,,,,,,,,,,,,,,,,,,,,,,,,,,,,,,,,,
653028,001,2022-11-20_23h53.52.656,Info_measure_main_exp,2022.2.2,Win32,59.75500448,,,,,,,,,,,,,,,,,,masks/mask_005.jpg,,,,,,,,,,,,,,,,,,,,,,,,,,,,,,,,,,,,,,,,,,,,,,,,0,2,2,4,1,,,,,,,,,,,,,,,,,,,,,,,,,,,,,,,,,,,,,,,,,
653028,001,2022-11-20_23h53.52.656,Info_measure_main_exp,2022.2.2,Win32,59.75500448,,,,,,,,,,,,,,,,,,masks/mask_002.jpg,,,,,,,,,,,,,,,,,,,,,,,,,,,,,,,,,,,,,,,,,,,,,,,,0,3,3,1,1,,,,,,,,,,,,,,,,,,,,,,,,,,,,,,,,,,,,,,,,,
653028,001,2022-11-20_23h53.52.656,Info_measure_main_exp,2022.2.2,Win32,59.75500448,,,,,,,,,,,,,,,,,,masks/mask_003.jpg,,,,,,,,,,,,,,,,,,,,,,,,,,,,,,,,,,,,,,,,,,,,,,,,0,4,4,2,1,,,,,,,,,,,,,,,,,,,,,,,,,,,,,,,,,,,,,,,,,
653028,001,2022-11-20_23h53.52.656,Info_measure_main_exp,2022.2.2,Win32,59.75500448,,,,,,,,,,,,,,,,,,,,,,,,,,,,,,3,1.748,1,,,,,,,,,,,,1,131,5,5,1,2166,present_patch/cong_131_5_a.jpg,absent_patch/patch0002166.jpg,,,,,,,,,,,,,,,,,,,,-0.029629601,-0.080555563,1,0,0,response5disk,18,-0.008333347,0.00462963,1,0,0,center_square,0,17,17,54,1,,,,,,,,,,,,,,,,,,,,,,,
653028,001,2022-11-20_23h53.52.656,Info_measure_main_exp,2022.2.2,Win32,59.75500448,,,,,,,,,,,,,,,,,,masks/mask_004.jpg,,,,,,,,,,,,,,,,,,,,,,,,,,,,,,,,,,,,,,,,,,,0,0,0,3,1,,,,,,,,,,,,,,,,,,,,,,,,,,,,,,,,,,,,,,,,,,,,,,
653028,001,2022-11-20_23h53.52.656,Info_measure_main_exp,2022.2.2,Win32,59.75500448,,,,,,,,,,,,,,,,,,masks/mask_002.jpg,,,,,,,,,,,,,,,,,,,,,,,,,,,,,,,,,,,,,,,,,,,0,1,1,1,1,,,,,,,,,,,,,,,,,,,,,,,,,,,,,,,,,,,,,,,,,,,,,,
653028,001,2022-11-20_23h53.52.656,Info_measure_main_exp,2022.2.2,Win32,59.75500448,,,,,,,,,,,,,,,,,,masks/mask_001.jpg,,,,,,,,,,,,,,,,,,,,,,,,,,,,,,,,,,,,,,,,,,,0,2,2,0,1,,,,,,,,,,,,,,,,,,,,,,,,,,,,,,,,,,,,,,,,,,,,,,
653028,001,2022-11-20_23h53.52.656,Info_measure_main_exp,2022.2.2,Win32,59.75500448,,,,,,,,,,,,,,,,,,masks/mask_003.jpg,,,,,,,,,,,,,,,,,,,,,,,,,,,,,,,,,,,,,,,,,,,0,3,3,2,1,,,,,,,,,,,,,,,,,,,,,,,,,,,,,,,,,,,,,,,,,,,,,,
653028,001,2022-11-20_23h53.52.656,Info_measure_main_exp,2022.2.2,Win32,59.75500448,,,,,,,,,,,,,,,,,,masks/mask_005.jpg,,,,,,,,,,,,,,,,,,,,,,,,,,,,,,,,,,,,,,,,,,,0,4,4,4,1,,,,,,,,,,,,,,,,,,,,,,,,,,,,,,,,,,,,,,,,,,,,,,
653028,001,2022-11-20_23h53.52.656,Info_measure_main_exp,2022.2.2,Win32,59.75500448,,,,,,,,,,,,,,,,,,masks/mask_005.jpg,,,,,,,,,,,,,,,,,,,,,,,,,,,,,,,,,,,,,,,,,,,,,,,,0,0,0,4,1,,,,,,,,,,,,,,,,,,,,,,,,,,,,,,,,,,,,,,,,,
653028,001,2022-11-20_23h53.52.656,Info_measure_main_exp,2022.2.2,Win32,59.75500448,,,,,,,,,,,,,,,,,,masks/mask_001.jpg,,,,,,,,,,,,,,,,,,,,,,,,,,,,,,,,,,,,,,,,,,,,,,,,0,1,1,0,1,,,,,,,,,,,,,,,,,,,,,,,,,,,,,,,,,,,,,,,,,
653028,001,2022-11-20_23h53.52.656,Info_measure_main_exp,2022.2.2,Win32,59.75500448,,,,,,,,,,,,,,,,,,masks/mask_002.jpg,,,,,,,,,,,,,,,,,,,,,,,,,,,,,,,,,,,,,,,,,,,,,,,,0,2,2,1,1,,,,,,,,,,,,,,,,,,,,,,,,,,,,,,,,,,,,,,,,,
653028,001,2022-11-20_23h53.52.656,Info_measure_main_exp,2022.2.2,Win32,59.75500448,,,,,,,,,,,,,,,,,,masks/mask_003.jpg,,,,,,,,,,,,,,,,,,,,,,,,,,,,,,,,,,,,,,,,,,,,,,,,0,3,3,2,1,,,,,,,,,,,,,,,,,,,,,,,,,,,,,,,,,,,,,,,,,
653028,001,2022-11-20_23h53.52.656,Info_measure_main_exp,2022.2.2,Win32,59.75500448,,,,,,,,,,,,,,,,,,masks/mask_004.jpg,,,,,,,,,,,,,,,,,,,,,,,,,,,,,,,,,,,,,,,,,,,,,,,,0,4,4,3,1,,,,,,,,,,,,,,,,,,,,,,,,,,,,,,,,,,,,,,,,,
653028,001,2022-11-20_23h53.52.656,Info_measure_main_exp,2022.2.2,Win32,59.75500448,,,,,,,,,,,,,,,,,,,,,,,,,,,,,,0,0.8325,1,,,,,,,,,,,,0,131,5,5,1986,1986,absent_patch/patch0001986.jpg,absent_patch/patch0001986.jpg,,,,,,,,,,,,,,,,,,,,-0.022222236,0.094444452,1,0,0,response7disk,19,-0.002777735,0.003703683,1,0,0,center_square,0,18,18,19,1,,,,,,,,,,,,,,,,,,,,,,,
653028,001,2022-11-20_23h53.52.656,Info_measure_main_exp,2022.2.2,Win32,59.75500448,,,,,,,,,,,,,,,,,,masks/mask_002.jpg,,,,,,,,,,,,,,,,,,,,,,,,,,,,,,,,,,,,,,,,,,,0,0,0,1,1,,,,,,,,,,,,,,,,,,,,,,,,,,,,,,,,,,,,,,,,,,,,,,
653028,001,2022-11-20_23h53.52.656,Info_measure_main_exp,2022.2.2,Win32,59.75500448,,,,,,,,,,,,,,,,,,masks/mask_003.jpg,,,,,,,,,,,,,,,,,,,,,,,,,,,,,,,,,,,,,,,,,,,0,1,1,2,1,,,,,,,,,,,,,,,,,,,,,,,,,,,,,,,,,,,,,,,,,,,,,,
653028,001,2022-11-20_23h53.52.656,Info_measure_main_exp,2022.2.2,Win32,59.75500448,,,,,,,,,,,,,,,,,,masks/mask_005.jpg,,,,,,,,,,,,,,,,,,,,,,,,,,,,,,,,,,,,,,,,,,,0,2,2,4,1,,,,,,,,,,,,,,,,,,,,,,,,,,,,,,,,,,,,,,,,,,,,,,
653028,001,2022-11-20_23h53.52.656,Info_measure_main_exp,2022.2.2,Win32,59.75500448,,,,,,,,,,,,,,,,,,masks/mask_001.jpg,,,,,,,,,,,,,,,,,,,,,,,,,,,,,,,,,,,,,,,,,,,0,3,3,0,1,,,,,,,,,,,,,,,,,,,,,,,,,,,,,,,,,,,,,,,,,,,,,,
653028,001,2022-11-20_23h53.52.656,Info_measure_main_exp,2022.2.2,Win32,59.75500448,,,,,,,,,,,,,,,,,,masks/mask_004.jpg,,,,,,,,,,,,,,,,,,,,,,,,,,,,,,,,,,,,,,,,,,,0,4,4,3,1,,,,,,,,,,,,,,,,,,,,,,,,,,,,,,,,,,,,,,,,,,,,,,
653028,001,2022-11-20_23h53.52.656,Info_measure_main_exp,2022.2.2,Win32,59.75500448,,,,,,,,,,,,,,,,,,masks/mask_001.jpg,,,,,,,,,,,,,,,,,,,,,,,,,,,,,,,,,,,,,,,,,,,,,,,,0,0,0,0,1,,,,,,,,,,,,,,,,,,,,,,,,,,,,,,,,,,,,,,,,,
653028,001,2022-11-20_23h53.52.656,Info_measure_main_exp,2022.2.2,Win32,59.75500448,,,,,,,,,,,,,,,,,,masks/mask_004.jpg,,,,,,,,,,,,,,,,,,,,,,,,,,,,,,,,,,,,,,,,,,,,,,,,0,1,1,3,1,,,,,,,,,,,,,,,,,,,,,,,,,,,,,,,,,,,,,,,,,
653028,001,2022-11-20_23h53.52.656,Info_measure_main_exp,2022.2.2,Win32,59.75500448,,,,,,,,,,,,,,,,,,masks/mask_005.jpg,,,,,,,,,,,,,,,,,,,,,,,,,,,,,,,,,,,,,,,,,,,,,,,,0,2,2,4,1,,,,,,,,,,,,,,,,,,,,,,,,,,,,,,,,,,,,,,,,,
653028,001,2022-11-20_23h53.52.656,Info_measure_main_exp,2022.2.2,Win32,59.75500448,,,,,,,,,,,,,,,,,,masks/mask_002.jpg,,,,,,,,,,,,,,,,,,,,,,,,,,,,,,,,,,,,,,,,,,,,,,,,0,3,3,1,1,,,,,,,,,,,,,,,,,,,,,,,,,,,,,,,,,,,,,,,,,
653028,001,2022-11-20_23h53.52.656,Info_measure_main_exp,2022.2.2,Win32,59.75500448,,,,,,,,,,,,,,,,,,masks/mask_003.jpg,,,,,,,,,,,,,,,,,,,,,,,,,,,,,,,,,,,,,,,,,,,,,,,,0,4,4,2,1,,,,,,,,,,,,,,,,,,,,,,,,,,,,,,,,,,,,,,,,,
653028,001,2022-11-20_23h53.52.656,Info_measure_main_exp,2022.2.2,Win32,59.75500448,,,,,,,,,,,,,,,,,,,,,,,,,,,,,,2,2.5308,1,,,,,,,,,,,,1,131,5,5,1,1986,present_patch/cong_131_5_a.jpg,absent_patch/patch0001986.jpg,,,,,,,,,,,,,,,,,,,,-0.108333305,-0.074074074,1,0,0,response5disk,20,-0.012962977,0.000925912,1,0,0,center_square,0,19,19,106,1,,,,,,,,,,,,,,,,,,,,,,,
653028,001,2022-11-20_23h53.52.656,Info_measure_main_exp,2022.2.2,Win32,59.75500448,,,,,,,,,,,,,,,,,,masks/mask_003.jpg,,,,,,,,,,,,,,,,,,,,,,,,,,,,,,,,,,,,,,,,,,,0,0,0,2,1,,,,,,,,,,,,,,,,,,,,,,,,,,,,,,,,,,,,,,,,,,,,,,
653028,001,2022-11-20_23h53.52.656,Info_measure_main_exp,2022.2.2,Win32,59.75500448,,,,,,,,,,,,,,,,,,masks/mask_005.jpg,,,,,,,,,,,,,,,,,,,,,,,,,,,,,,,,,,,,,,,,,,,0,1,1,4,1,,,,,,,,,,,,,,,,,,,,,,,,,,,,,,,,,,,,,,,,,,,,,,
653028,001,2022-11-20_23h53.52.656,Info_measure_main_exp,2022.2.2,Win32,59.75500448,,,,,,,,,,,,,,,,,,masks/mask_002.jpg,,,,,,,,,,,,,,,,,,,,,,,,,,,,,,,,,,,,,,,,,,,0,2,2,1,1,,,,,,,,,,,,,,,,,,,,,,,,,,,,,,,,,,,,,,,,,,,,,,
653028,001,2022-11-20_23h53.52.656,Info_measure_main_exp,2022.2.2,Win32,59.75500448,,,,,,,,,,,,,,,,,,masks/mask_004.jpg,,,,,,,,,,,,,,,,,,,,,,,,,,,,,,,,,,,,,,,,,,,0,3,3,3,1,,,,,,,,,,,,,,,,,,,,,,,,,,,,,,,,,,,,,,,,,,,,,,
653028,001,2022-11-20_23h53.52.656,Info_measure_main_exp,2022.2.2,Win32,59.75500448,,,,,,,,,,,,,,,,,,masks/mask_001.jpg,,,,,,,,,,,,,,,,,,,,,,,,,,,,,,,,,,,,,,,,,,,0,4,4,0,1,,,,,,,,,,,,,,,,,,,,,,,,,,,,,,,,,,,,,,,,,,,,,,
653028,001,2022-11-20_23h53.52.656,Info_measure_main_exp,2022.2.2,Win32,59.75500448,,,,,,,,,,,,,,,,,,masks/mask_001.jpg,,,,,,,,,,,,,,,,,,,,,,,,,,,,,,,,,,,,,,,,,,,,,,,,0,0,0,0,1,,,,,,,,,,,,,,,,,,,,,,,,,,,,,,,,,,,,,,,,,
653028,001,2022-11-20_23h53.52.656,Info_measure_main_exp,2022.2.2,Win32,59.75500448,,,,,,,,,,,,,,,,,,masks/mask_003.jpg,,,,,,,,,,,,,,,,,,,,,,,,,,,,,,,,,,,,,,,,,,,,,,,,0,1,1,2,1,,,,,,,,,,,,,,,,,,,,,,,,,,,,,,,,,,,,,,,,,
653028,001,2022-11-20_23h53.52.656,Info_measure_main_exp,2022.2.2,Win32,59.75500448,,,,,,,,,,,,,,,,,,masks/mask_005.jpg,,,,,,,,,,,,,,,,,,,,,,,,,,,,,,,,,,,,,,,,,,,,,,,,0,2,2,4,1,,,,,,,,,,,,,,,,,,,,,,,,,,,,,,,,,,,,,,,,,
653028,001,2022-11-20_23h53.52.656,Info_measure_main_exp,2022.2.2,Win32,59.75500448,,,,,,,,,,,,,,,,,,masks/mask_002.jpg,,,,,,,,,,,,,,,,,,,,,,,,,,,,,,,,,,,,,,,,,,,,,,,,0,3,3,1,1,,,,,,,,,,,,,,,,,,,,,,,,,,,,,,,,,,,,,,,,,
653028,001,2022-11-20_23h53.52.656,Info_measure_main_exp,2022.2.2,Win32,59.75500448,,,,,,,,,,,,,,,,,,masks/mask_004.jpg,,,,,,,,,,,,,,,,,,,,,,,,,,,,,,,,,,,,,,,,,,,,,,,,0,4,4,3,1,,,,,,,,,,,,,,,,,,,,,,,,,,,,,,,,,,,,,,,,,
653028,001,2022-11-20_23h53.52.656,Info_measure_main_exp,2022.2.2,Win32,59.75500448,,,,,,,,,,,,,,,,,,,,,,,,,,,,,,3,1.449,1,,,,,,,,,,,,0,131,5,5,2298,2190,absent_patch/patch0002298.jpg,absent_patch/patch0002190.jpg,,,,,,,,,,,,,,,,,,,,-0.036111125,-0.101851852,1,0,0,response5disk,21,0.00462963,-0.002777771,1,0,0,center_square,0,20,20,20,1,,,,,,,,,,,,,,,,,,,,,,,
653028,001,2022-11-20_23h53.52.656,Info_measure_main_exp,2022.2.2,Win32,59.75500448,,,,,,,,,,,,,,,,,,masks/mask_002.jpg,,,,,,,,,,,,,,,,,,,,,,,,,,,,,,,,,,,,,,,,,,,0,0,0,1,1,,,,,,,,,,,,,,,,,,,,,,,,,,,,,,,,,,,,,,,,,,,,,,
653028,001,2022-11-20_23h53.52.656,Info_measure_main_exp,2022.2.2,Win32,59.75500448,,,,,,,,,,,,,,,,,,masks/mask_004.jpg,,,,,,,,,,,,,,,,,,,,,,,,,,,,,,,,,,,,,,,,,,,0,1,1,3,1,,,,,,,,,,,,,,,,,,,,,,,,,,,,,,,,,,,,,,,,,,,,,,
653028,001,2022-11-20_23h53.52.656,Info_measure_main_exp,2022.2.2,Win32,59.75500448,,,,,,,,,,,,,,,,,,masks/mask_003.jpg,,,,,,,,,,,,,,,,,,,,,,,,,,,,,,,,,,,,,,,,,,,0,2,2,2,1,,,,,,,,,,,,,,,,,,,,,,,,,,,,,,,,,,,,,,,,,,,,,,
653028,001,2022-11-20_23h53.52.656,Info_measure_main_exp,2022.2.2,Win32,59.75500448,,,,,,,,,,,,,,,,,,masks/mask_001.jpg,,,,,,,,,,,,,,,,,,,,,,,,,,,,,,,,,,,,,,,,,,,0,3,3,0,1,,,,,,,,,,,,,,,,,,,,,,,,,,,,,,,,,,,,,,,,,,,,,,
653028,001,2022-11-20_23h53.52.656,Info_measure_main_exp,2022.2.2,Win32,59.75500448,,,,,,,,,,,,,,,,,,masks/mask_005.jpg,,,,,,,,,,,,,,,,,,,,,,,,,,,,,,,,,,,,,,,,,,,0,4,4,4,1,,,,,,,,,,,,,,,,,,,,,,,,,,,,,,,,,,,,,,,,,,,,,,
653028,001,2022-11-20_23h53.52.656,Info_measure_main_exp,2022.2.2,Win32,59.75500448,,,,,,,,,,,,,,,,,,masks/mask_005.jpg,,,,,,,,,,,,,,,,,,,,,,,,,,,,,,,,,,,,,,,,,,,,,,,,0,0,0,4,1,,,,,,,,,,,,,,,,,,,,,,,,,,,,,,,,,,,,,,,,,
653028,001,2022-11-20_23h53.52.656,Info_measure_main_exp,2022.2.2,Win32,59.75500448,,,,,,,,,,,,,,,,,,masks/mask_001.jpg,,,,,,,,,,,,,,,,,,,,,,,,,,,,,,,,,,,,,,,,,,,,,,,,0,1,1,0,1,,,,,,,,,,,,,,,,,,,,,,,,,,,,,,,,,,,,,,,,,
653028,001,2022-11-20_23h53.52.656,Info_measure_main_exp,2022.2.2,Win32,59.75500448,,,,,,,,,,,,,,,,,,masks/mask_002.jpg,,,,,,,,,,,,,,,,,,,,,,,,,,,,,,,,,,,,,,,,,,,,,,,,0,2,2,1,1,,,,,,,,,,,,,,,,,,,,,,,,,,,,,,,,,,,,,,,,,
653028,001,2022-11-20_23h53.52.656,Info_measure_main_exp,2022.2.2,Win32,59.75500448,,,,,,,,,,,,,,,,,,masks/mask_004.jpg,,,,,,,,,,,,,,,,,,,,,,,,,,,,,,,,,,,,,,,,,,,,,,,,0,3,3,3,1,,,,,,,,,,,,,,,,,,,,,,,,,,,,,,,,,,,,,,,,,
653028,001,2022-11-20_23h53.52.656,Info_measure_main_exp,2022.2.2,Win32,59.75500448,,,,,,,,,,,,,,,,,,masks/mask_003.jpg,,,,,,,,,,,,,,,,,,,,,,,,,,,,,,,,,,,,,,,,,,,,,,,,0,4,4,2,1,,,,,,,,,,,,,,,,,,,,,,,,,,,,,,,,,,,,,,,,,
653028,001,2022-11-20_23h53.52.656,Info_measure_main_exp,2022.2.2,Win32,59.75500448,,,,,,,,,,,,,,,,,,,,,,,,,,,,,,3,5.0613,1,,,,,,,,,,,,0,131,5,5,2250,2142,absent_patch/patch0002250.jpg,absent_patch/patch0002142.jpg,,,,,,,,,,,,,,,,,,,,-0.050000014,-0.119444459,1,0,0,response5disk,22,-0.010185171,0.005555541,1,0,0,center_square,0,21,21,71,1,,,,,,,,,,,,,,,,,,,,,,,
653028,001,2022-11-20_23h53.52.656,Info_measure_main_exp,2022.2.2,Win32,59.75500448,,,,,,,,,,,,,,,,,,masks/mask_002.jpg,,,,,,,,,,,,,,,,,,,,,,,,,,,,,,,,,,,,,,,,,,,0,0,0,1,1,,,,,,,,,,,,,,,,,,,,,,,,,,,,,,,,,,,,,,,,,,,,,,
653028,001,2022-11-20_23h53.52.656,Info_measure_main_exp,2022.2.2,Win32,59.75500448,,,,,,,,,,,,,,,,,,masks/mask_005.jpg,,,,,,,,,,,,,,,,,,,,,,,,,,,,,,,,,,,,,,,,,,,0,1,1,4,1,,,,,,,,,,,,,,,,,,,,,,,,,,,,,,,,,,,,,,,,,,,,,,
653028,001,2022-11-20_23h53.52.656,Info_measure_main_exp,2022.2.2,Win32,59.75500448,,,,,,,,,,,,,,,,,,masks/mask_004.jpg,,,,,,,,,,,,,,,,,,,,,,,,,,,,,,,,,,,,,,,,,,,0,2,2,3,1,,,,,,,,,,,,,,,,,,,,,,,,,,,,,,,,,,,,,,,,,,,,,,
653028,001,2022-11-20_23h53.52.656,Info_measure_main_exp,2022.2.2,Win32,59.75500448,,,,,,,,,,,,,,,,,,masks/mask_003.jpg,,,,,,,,,,,,,,,,,,,,,,,,,,,,,,,,,,,,,,,,,,,0,3,3,2,1,,,,,,,,,,,,,,,,,,,,,,,,,,,,,,,,,,,,,,,,,,,,,,
653028,001,2022-11-20_23h53.52.656,Info_measure_main_exp,2022.2.2,Win32,59.75500448,,,,,,,,,,,,,,,,,,masks/mask_001.jpg,,,,,,,,,,,,,,,,,,,,,,,,,,,,,,,,,,,,,,,,,,,0,4,4,0,1,,,,,,,,,,,,,,,,,,,,,,,,,,,,,,,,,,,,,,,,,,,,,,
653028,001,2022-11-20_23h53.52.656,Info_measure_main_exp,2022.2.2,Win32,59.75500448,,,,,,,,,,,,,,,,,,masks/mask_005.jpg,,,,,,,,,,,,,,,,,,,,,,,,,,,,,,,,,,,,,,,,,,,,,,,,0,0,0,4,1,,,,,,,,,,,,,,,,,,,,,,,,,,,,,,,,,,,,,,,,,
653028,001,2022-11-20_23h53.52.656,Info_measure_main_exp,2022.2.2,Win32,59.75500448,,,,,,,,,,,,,,,,,,masks/mask_003.jpg,,,,,,,,,,,,,,,,,,,,,,,,,,,,,,,,,,,,,,,,,,,,,,,,0,1,1,2,1,,,,,,,,,,,,,,,,,,,,,,,,,,,,,,,,,,,,,,,,,
653028,001,2022-11-20_23h53.52.656,Info_measure_main_exp,2022.2.2,Win32,59.75500448,,,,,,,,,,,,,,,,,,masks/mask_004.jpg,,,,,,,,,,,,,,,,,,,,,,,,,,,,,,,,,,,,,,,,,,,,,,,,0,2,2,3,1,,,,,,,,,,,,,,,,,,,,,,,,,,,,,,,,,,,,,,,,,
653028,001,2022-11-20_23h53.52.656,Info_measure_main_exp,2022.2.2,Win32,59.75500448,,,,,,,,,,,,,,,,,,masks/mask_002.jpg,,,,,,,,,,,,,,,,,,,,,,,,,,,,,,,,,,,,,,,,,,,,,,,,0,3,3,1,1,,,,,,,,,,,,,,,,,,,,,,,,,,,,,,,,,,,,,,,,,
653028,001,2022-11-20_23h53.52.656,Info_measure_main_exp,2022.2.2,Win32,59.75500448,,,,,,,,,,,,,,,,,,masks/mask_001.jpg,,,,,,,,,,,,,,,,,,,,,,,,,,,,,,,,,,,,,,,,,,,,,,,,0,4,4,0,1,,,,,,,,,,,,,,,,,,,,,,,,,,,,,,,,,,,,,,,,,
653028,001,2022-11-20_23h53.52.656,Info_measure_main_exp,2022.2.2,Win32,59.75500448,,,,,,,,,,,,,,,,,,,,,,,,,,,,,,0,0.5824,1,,,,,,,,,,,,0,131,5,5,2190,2190,absent_patch/patch0002190.jpg,absent_patch/patch0002190.jpg,,,,,,,,,,,,,,,,,,,,-0.069444444,0.12962963,1,0,0,response7disk,23,-0.005555541,-0.005555577,1,0,0,center_square,0,22,22,86,1,,,,,,,,,,,,,,,,,,,,,,,
653028,001,2022-11-20_23h53.52.656,Info_measure_main_exp,2022.2.2,Win32,59.75500448,,,,,,,,,,,,,,,,,,masks/mask_002.jpg,,,,,,,,,,,,,,,,,,,,,,,,,,,,,,,,,,,,,,,,,,,0,0,0,1,1,,,,,,,,,,,,,,,,,,,,,,,,,,,,,,,,,,,,,,,,,,,,,,
653028,001,2022-11-20_23h53.52.656,Info_measure_main_exp,2022.2.2,Win32,59.75500448,,,,,,,,,,,,,,,,,,masks/mask_005.jpg,,,,,,,,,,,,,,,,,,,,,,,,,,,,,,,,,,,,,,,,,,,0,1,1,4,1,,,,,,,,,,,,,,,,,,,,,,,,,,,,,,,,,,,,,,,,,,,,,,
653028,001,2022-11-20_23h53.52.656,Info_measure_main_exp,2022.2.2,Win32,59.75500448,,,,,,,,,,,,,,,,,,masks/mask_001.jpg,,,,,,,,,,,,,,,,,,,,,,,,,,,,,,,,,,,,,,,,,,,0,2,2,0,1,,,,,,,,,,,,,,,,,,,,,,,,,,,,,,,,,,,,,,,,,,,,,,
653028,001,2022-11-20_23h53.52.656,Info_measure_main_exp,2022.2.2,Win32,59.75500448,,,,,,,,,,,,,,,,,,masks/mask_004.jpg,,,,,,,,,,,,,,,,,,,,,,,,,,,,,,,,,,,,,,,,,,,0,3,3,3,1,,,,,,,,,,,,,,,,,,,,,,,,,,,,,,,,,,,,,,,,,,,,,,
653028,001,2022-11-20_23h53.52.656,Info_measure_main_exp,2022.2.2,Win32,59.75500448,,,,,,,,,,,,,,,,,,masks/mask_003.jpg,,,,,,,,,,,,,,,,,,,,,,,,,,,,,,,,,,,,,,,,,,,0,4,4,2,1,,,,,,,,,,,,,,,,,,,,,,,,,,,,,,,,,,,,,,,,,,,,,,
653028,001,2022-11-20_23h53.52.656,Info_measure_main_exp,2022.2.2,Win32,59.75500448,,,,,,,,,,,,,,,,,,masks/mask_002.jpg,,,,,,,,,,,,,,,,,,,,,,,,,,,,,,,,,,,,,,,,,,,,,,,,0,0,0,1,1,,,,,,,,,,,,,,,,,,,,,,,,,,,,,,,,,,,,,,,,,
653028,001,2022-11-20_23h53.52.656,Info_measure_main_exp,2022.2.2,Win32,59.75500448,,,,,,,,,,,,,,,,,,masks/mask_003.jpg,,,,,,,,,,,,,,,,,,,,,,,,,,,,,,,,,,,,,,,,,,,,,,,,0,1,1,2,1,,,,,,,,,,,,,,,,,,,,,,,,,,,,,,,,,,,,,,,,,
653028,001,2022-11-20_23h53.52.656,Info_measure_main_exp,2022.2.2,Win32,59.75500448,,,,,,,,,,,,,,,,,,masks/mask_004.jpg,,,,,,,,,,,,,,,,,,,,,,,,,,,,,,,,,,,,,,,,,,,,,,,,0,2,2,3,1,,,,,,,,,,,,,,,,,,,,,,,,,,,,,,,,,,,,,,,,,
653028,001,2022-11-20_23h53.52.656,Info_measure_main_exp,2022.2.2,Win32,59.75500448,,,,,,,,,,,,,,,,,,masks/mask_005.jpg,,,,,,,,,,,,,,,,,,,,,,,,,,,,,,,,,,,,,,,,,,,,,,,,0,3,3,4,1,,,,,,,,,,,,,,,,,,,,,,,,,,,,,,,,,,,,,,,,,
653028,001,2022-11-20_23h53.52.656,Info_measure_main_exp,2022.2.2,Win32,59.75500448,,,,,,,,,,,,,,,,,,masks/mask_001.jpg,,,,,,,,,,,,,,,,,,,,,,,,,,,,,,,,,,,,,,,,,,,,,,,,0,4,4,0,1,,,,,,,,,,,,,,,,,,,,,,,,,,,,,,,,,,,,,,,,,
653028,001,2022-11-20_23h53.52.656,Info_measure_main_exp,2022.2.2,Win32,59.75500448,,,,,,,,,,,,,,,,,,,,,,,,,,,,,,6,2.2977,1,,,,,,,,,,,,0,131,5,5,1974,2250,absent_patch/patch0001974.jpg,absent_patch/patch0002250.jpg,,,,,,,,,,,,,,,,,,,,0.133333347,0.03611109,1,0,0,response1disk,24,0.002777806,0.003703683,1,0,0,center_square,0,23,23,55,1,,,,,,,,,,,,,,,,,,,,,,,
653028,001,2022-11-20_23h53.52.656,Info_measure_main_exp,2022.2.2,Win32,59.75500448,,,,,,,,,,,,,,,,,,masks/mask_001.jpg,,,,,,,,,,,,,,,,,,,,,,,,,,,,,,,,,,,,,,,,,,,0,0,0,0,1,,,,,,,,,,,,,,,,,,,,,,,,,,,,,,,,,,,,,,,,,,,,,,
653028,001,2022-11-20_23h53.52.656,Info_measure_main_exp,2022.2.2,Win32,59.75500448,,,,,,,,,,,,,,,,,,masks/mask_002.jpg,,,,,,,,,,,,,,,,,,,,,,,,,,,,,,,,,,,,,,,,,,,0,1,1,1,1,,,,,,,,,,,,,,,,,,,,,,,,,,,,,,,,,,,,,,,,,,,,,,
653028,001,2022-11-20_23h53.52.656,Info_measure_main_exp,2022.2.2,Win32,59.75500448,,,,,,,,,,,,,,,,,,masks/mask_004.jpg,,,,,,,,,,,,,,,,,,,,,,,,,,,,,,,,,,,,,,,,,,,0,2,2,3,1,,,,,,,,,,,,,,,,,,,,,,,,,,,,,,,,,,,,,,,,,,,,,,
653028,001,2022-11-20_23h53.52.656,Info_measure_main_exp,2022.2.2,Win32,59.75500448,,,,,,,,,,,,,,,,,,masks/mask_005.jpg,,,,,,,,,,,,,,,,,,,,,,,,,,,,,,,,,,,,,,,,,,,0,3,3,4,1,,,,,,,,,,,,,,,,,,,,,,,,,,,,,,,,,,,,,,,,,,,,,,
653028,001,2022-11-20_23h53.52.656,Info_measure_main_exp,2022.2.2,Win32,59.75500448,,,,,,,,,,,,,,,,,,masks/mask_003.jpg,,,,,,,,,,,,,,,,,,,,,,,,,,,,,,,,,,,,,,,,,,,0,4,4,2,1,,,,,,,,,,,,,,,,,,,,,,,,,,,,,,,,,,,,,,,,,,,,,,
653028,001,2022-11-20_23h53.52.656,Info_measure_main_exp,2022.2.2,Win32,59.75500448,,,,,,,,,,,,,,,,,,masks/mask_004.jpg,,,,,,,,,,,,,,,,,,,,,,,,,,,,,,,,,,,,,,,,,,,,,,,,0,0,0,3,1,,,,,,,,,,,,,,,,,,,,,,,,,,,,,,,,,,,,,,,,,
653028,001,2022-11-20_23h53.52.656,Info_measure_main_exp,2022.2.2,Win32,59.75500448,,,,,,,,,,,,,,,,,,masks/mask_002.jpg,,,,,,,,,,,,,,,,,,,,,,,,,,,,,,,,,,,,,,,,,,,,,,,,0,1,1,1,1,,,,,,,,,,,,,,,,,,,,,,,,,,,,,,,,,,,,,,,,,
653028,001,2022-11-20_23h53.52.656,Info_measure_main_exp,2022.2.2,Win32,59.75500448,,,,,,,,,,,,,,,,,,masks/mask_001.jpg,,,,,,,,,,,,,,,,,,,,,,,,,,,,,,,,,,,,,,,,,,,,,,,,0,2,2,0,1,,,,,,,,,,,,,,,,,,,,,,,,,,,,,,,,,,,,,,,,,
653028,001,2022-11-20_23h53.52.656,Info_measure_main_exp,2022.2.2,Win32,59.75500448,,,,,,,,,,,,,,,,,,masks/mask_003.jpg,,,,,,,,,,,,,,,,,,,,,,,,,,,,,,,,,,,,,,,,,,,,,,,,0,3,3,2,1,,,,,,,,,,,,,,,,,,,,,,,,,,,,,,,,,,,,,,,,,
653028,001,2022-11-20_23h53.52.656,Info_measure_main_exp,2022.2.2,Win32,59.75500448,,,,,,,,,,,,,,,,,,masks/mask_005.jpg,,,,,,,,,,,,,,,,,,,,,,,,,,,,,,,,,,,,,,,,,,,,,,,,0,4,4,4,1,,,,,,,,,,,,,,,,,,,,,,,,,,,,,,,,,,,,,,,,,
653028,001,2022-11-20_23h53.52.656,Info_measure_main_exp,2022.2.2,Win32,59.75500448,,,,,,,,,,,,,,,,,,,,,,,,,,,,,,5,1.8147,1,,,,,,,,,,,,0,131,5,5,2154,2250,absent_patch/patch0002154.jpg,absent_patch/patch0002250.jpg,,,,,,,,,,,,,,,,,,,,0.113888917,-0.087037051,1,0,0,response3disk,25,-0.008333347,-0.003703718,1,0,0,center_square,0,24,24,108,1,,,,,,,,,,,,,,,,,,,,,,,
653028,001,2022-11-20_23h53.52.656,Info_measure_main_exp,2022.2.2,Win32,59.75500448,,,,,,,,,,,,,,,,,,masks/mask_004.jpg,,,,,,,,,,,,,,,,,,,,,,,,,,,,,,,,,,,,,,,,,,,0,0,0,3,1,,,,,,,,,,,,,,,,,,,,,,,,,,,,,,,,,,,,,,,,,,,,,,
653028,001,2022-11-20_23h53.52.656,Info_measure_main_exp,2022.2.2,Win32,59.75500448,,,,,,,,,,,,,,,,,,masks/mask_002.jpg,,,,,,,,,,,,,,,,,,,,,,,,,,,,,,,,,,,,,,,,,,,0,1,1,1,1,,,,,,,,,,,,,,,,,,,,,,,,,,,,,,,,,,,,,,,,,,,,,,
653028,001,2022-11-20_23h53.52.656,Info_measure_main_exp,2022.2.2,Win32,59.75500448,,,,,,,,,,,,,,,,,,masks/mask_005.jpg,,,,,,,,,,,,,,,,,,,,,,,,,,,,,,,,,,,,,,,,,,,0,2,2,4,1,,,,,,,,,,,,,,,,,,,,,,,,,,,,,,,,,,,,,,,,,,,,,,
653028,001,2022-11-20_23h53.52.656,Info_measure_main_exp,2022.2.2,Win32,59.75500448,,,,,,,,,,,,,,,,,,masks/mask_001.jpg,,,,,,,,,,,,,,,,,,,,,,,,,,,,,,,,,,,,,,,,,,,0,3,3,0,1,,,,,,,,,,,,,,,,,,,,,,,,,,,,,,,,,,,,,,,,,,,,,,
653028,001,2022-11-20_23h53.52.656,Info_measure_main_exp,2022.2.2,Win32,59.75500448,,,,,,,,,,,,,,,,,,masks/mask_003.jpg,,,,,,,,,,,,,,,,,,,,,,,,,,,,,,,,,,,,,,,,,,,0,4,4,2,1,,,,,,,,,,,,,,,,,,,,,,,,,,,,,,,,,,,,,,,,,,,,,,
653028,001,2022-11-20_23h53.52.656,Info_measure_main_exp,2022.2.2,Win32,59.75500448,,,,,,,,,,,,,,,,,,masks/mask_003.jpg,,,,,,,,,,,,,,,,,,,,,,,,,,,,,,,,,,,,,,,,,,,,,,,,0,0,0,2,1,,,,,,,,,,,,,,,,,,,,,,,,,,,,,,,,,,,,,,,,,
653028,001,2022-11-20_23h53.52.656,Info_measure_main_exp,2022.2.2,Win32,59.75500448,,,,,,,,,,,,,,,,,,masks/mask_004.jpg,,,,,,,,,,,,,,,,,,,,,,,,,,,,,,,,,,,,,,,,,,,,,,,,0,1,1,3,1,,,,,,,,,,,,,,,,,,,,,,,,,,,,,,,,,,,,,,,,,
653028,001,2022-11-20_23h53.52.656,Info_measure_main_exp,2022.2.2,Win32,59.75500448,,,,,,,,,,,,,,,,,,masks/mask_002.jpg,,,,,,,,,,,,,,,,,,,,,,,,,,,,,,,,,,,,,,,,,,,,,,,,0,2,2,1,1,,,,,,,,,,,,,,,,,,,,,,,,,,,,,,,,,,,,,,,,,
653028,001,2022-11-20_23h53.52.656,Info_measure_main_exp,2022.2.2,Win32,59.75500448,,,,,,,,,,,,,,,,,,masks/mask_005.jpg,,,,,,,,,,,,,,,,,,,,,,,,,,,,,,,,,,,,,,,,,,,,,,,,0,3,3,4,1,,,,,,,,,,,,,,,,,,,,,,,,,,,,,,,,,,,,,,,,,
653028,001,2022-11-20_23h53.52.656,Info_measure_main_exp,2022.2.2,Win32,59.75500448,,,,,,,,,,,,,,,,,,masks/mask_001.jpg,,,,,,,,,,,,,,,,,,,,,,,,,,,,,,,,,,,,,,,,,,,,,,,,0,4,4,0,1,,,,,,,,,,,,,,,,,,,,,,,,,,,,,,,,,,,,,,,,,
653028,001,2022-11-20_23h53.52.656,Info_measure_main_exp,2022.2.2,Win32,59.75500448,,,,,,,,,,,,,,,,,,,,,,,,,,,,,,0,0.5495,1,,,,,,,,,,,,0,131,5,5,2142,2142,absent_patch/patch0002142.jpg,absent_patch/patch0002142.jpg,,,,,,,,,,,,,,,,,,,,-0.037037037,0.113888882,1,0,0,response7disk,26,-0.003703718,0.003703683,1,0,0,center_square,0,25,25,13,1,,,,,,,,,,,,,,,,,,,,,,,
653028,001,2022-11-20_23h53.52.656,Info_measure_main_exp,2022.2.2,Win32,59.75500448,,,,,,,,,,,,,,,,,,masks/mask_003.jpg,,,,,,,,,,,,,,,,,,,,,,,,,,,,,,,,,,,,,,,,,,,0,0,0,2,1,,,,,,,,,,,,,,,,,,,,,,,,,,,,,,,,,,,,,,,,,,,,,,
653028,001,2022-11-20_23h53.52.656,Info_measure_main_exp,2022.2.2,Win32,59.75500448,,,,,,,,,,,,,,,,,,masks/mask_001.jpg,,,,,,,,,,,,,,,,,,,,,,,,,,,,,,,,,,,,,,,,,,,0,1,1,0,1,,,,,,,,,,,,,,,,,,,,,,,,,,,,,,,,,,,,,,,,,,,,,,
653028,001,2022-11-20_23h53.52.656,Info_measure_main_exp,2022.2.2,Win32,59.75500448,,,,,,,,,,,,,,,,,,masks/mask_002.jpg,,,,,,,,,,,,,,,,,,,,,,,,,,,,,,,,,,,,,,,,,,,0,2,2,1,1,,,,,,,,,,,,,,,,,,,,,,,,,,,,,,,,,,,,,,,,,,,,,,
653028,001,2022-11-20_23h53.52.656,Info_measure_main_exp,2022.2.2,Win32,59.75500448,,,,,,,,,,,,,,,,,,masks/mask_004.jpg,,,,,,,,,,,,,,,,,,,,,,,,,,,,,,,,,,,,,,,,,,,0,3,3,3,1,,,,,,,,,,,,,,,,,,,,,,,,,,,,,,,,,,,,,,,,,,,,,,
653028,001,2022-11-20_23h53.52.656,Info_measure_main_exp,2022.2.2,Win32,59.75500448,,,,,,,,,,,,,,,,,,masks/mask_005.jpg,,,,,,,,,,,,,,,,,,,,,,,,,,,,,,,,,,,,,,,,,,,0,4,4,4,1,,,,,,,,,,,,,,,,,,,,,,,,,,,,,,,,,,,,,,,,,,,,,,
653028,001,2022-11-20_23h53.52.656,Info_measure_main_exp,2022.2.2,Win32,59.75500448,,,,,,,,,,,,,,,,,,masks/mask_001.jpg,,,,,,,,,,,,,,,,,,,,,,,,,,,,,,,,,,,,,,,,,,,,,,,,0,0,0,0,1,,,,,,,,,,,,,,,,,,,,,,,,,,,,,,,,,,,,,,,,,
653028,001,2022-11-20_23h53.52.656,Info_measure_main_exp,2022.2.2,Win32,59.75500448,,,,,,,,,,,,,,,,,,masks/mask_003.jpg,,,,,,,,,,,,,,,,,,,,,,,,,,,,,,,,,,,,,,,,,,,,,,,,0,1,1,2,1,,,,,,,,,,,,,,,,,,,,,,,,,,,,,,,,,,,,,,,,,
653028,001,2022-11-20_23h53.52.656,Info_measure_main_exp,2022.2.2,Win32,59.75500448,,,,,,,,,,,,,,,,,,masks/mask_002.jpg,,,,,,,,,,,,,,,,,,,,,,,,,,,,,,,,,,,,,,,,,,,,,,,,0,2,2,1,1,,,,,,,,,,,,,,,,,,,,,,,,,,,,,,,,,,,,,,,,,
653028,001,2022-11-20_23h53.52.656,Info_measure_main_exp,2022.2.2,Win32,59.75500448,,,,,,,,,,,,,,,,,,masks/mask_005.jpg,,,,,,,,,,,,,,,,,,,,,,,,,,,,,,,,,,,,,,,,,,,,,,,,0,3,3,4,1,,,,,,,,,,,,,,,,,,,,,,,,,,,,,,,,,,,,,,,,,
653028,001,2022-11-20_23h53.52.656,Info_measure_main_exp,2022.2.2,Win32,59.75500448,,,,,,,,,,,,,,,,,,masks/mask_004.jpg,,,,,,,,,,,,,,,,,,,,,,,,,,,,,,,,,,,,,,,,,,,,,,,,0,4,4,3,1,,,,,,,,,,,,,,,,,,,,,,,,,,,,,,,,,,,,,,,,,
653028,001,2022-11-20_23h53.52.656,Info_measure_main_exp,2022.2.2,Win32,59.75500448,,,,,,,,,,,,,,,,,,,,,,,,,,,,,,3,2.1976,1,,,,,,,,,,,,0,131,5,5,1986,2274,absent_patch/patch0001986.jpg,absent_patch/patch0002274.jpg,,,,,,,,,,,,,,,,,,,,-0.061111097,-0.097222222,1,0,0,response5disk,27,0.000925912,0.000925912,1,0,0,center_square,0,26,26,7,1,,,,,,,,,,,,,,,,,,,,,,,
653028,001,2022-11-20_23h53.52.656,Info_measure_main_exp,2022.2.2,Win32,59.75500448,,,,,,,,,,,,,,,,,,masks/mask_004.jpg,,,,,,,,,,,,,,,,,,,,,,,,,,,,,,,,,,,,,,,,,,,0,0,0,3,1,,,,,,,,,,,,,,,,,,,,,,,,,,,,,,,,,,,,,,,,,,,,,,
653028,001,2022-11-20_23h53.52.656,Info_measure_main_exp,2022.2.2,Win32,59.75500448,,,,,,,,,,,,,,,,,,masks/mask_003.jpg,,,,,,,,,,,,,,,,,,,,,,,,,,,,,,,,,,,,,,,,,,,0,1,1,2,1,,,,,,,,,,,,,,,,,,,,,,,,,,,,,,,,,,,,,,,,,,,,,,
653028,001,2022-11-20_23h53.52.656,Info_measure_main_exp,2022.2.2,Win32,59.75500448,,,,,,,,,,,,,,,,,,masks/mask_001.jpg,,,,,,,,,,,,,,,,,,,,,,,,,,,,,,,,,,,,,,,,,,,0,2,2,0,1,,,,,,,,,,,,,,,,,,,,,,,,,,,,,,,,,,,,,,,,,,,,,,
653028,001,2022-11-20_23h53.52.656,Info_measure_main_exp,2022.2.2,Win32,59.75500448,,,,,,,,,,,,,,,,,,masks/mask_002.jpg,,,,,,,,,,,,,,,,,,,,,,,,,,,,,,,,,,,,,,,,,,,0,3,3,1,1,,,,,,,,,,,,,,,,,,,,,,,,,,,,,,,,,,,,,,,,,,,,,,
653028,001,2022-11-20_23h53.52.656,Info_measure_main_exp,2022.2.2,Win32,59.75500448,,,,,,,,,,,,,,,,,,masks/mask_005.jpg,,,,,,,,,,,,,,,,,,,,,,,,,,,,,,,,,,,,,,,,,,,0,4,4,4,1,,,,,,,,,,,,,,,,,,,,,,,,,,,,,,,,,,,,,,,,,,,,,,
653028,001,2022-11-20_23h53.52.656,Info_measure_main_exp,2022.2.2,Win32,59.75500448,,,,,,,,,,,,,,,,,,masks/mask_003.jpg,,,,,,,,,,,,,,,,,,,,,,,,,,,,,,,,,,,,,,,,,,,,,,,,0,0,0,2,1,,,,,,,,,,,,,,,,,,,,,,,,,,,,,,,,,,,,,,,,,
653028,001,2022-11-20_23h53.52.656,Info_measure_main_exp,2022.2.2,Win32,59.75500448,,,,,,,,,,,,,,,,,,masks/mask_002.jpg,,,,,,,,,,,,,,,,,,,,,,,,,,,,,,,,,,,,,,,,,,,,,,,,0,1,1,1,1,,,,,,,,,,,,,,,,,,,,,,,,,,,,,,,,,,,,,,,,,
653028,001,2022-11-20_23h53.52.656,Info_measure_main_exp,2022.2.2,Win32,59.75500448,,,,,,,,,,,,,,,,,,masks/mask_004.jpg,,,,,,,,,,,,,,,,,,,,,,,,,,,,,,,,,,,,,,,,,,,,,,,,0,2,2,3,1,,,,,,,,,,,,,,,,,,,,,,,,,,,,,,,,,,,,,,,,,
653028,001,2022-11-20_23h53.52.656,Info_measure_main_exp,2022.2.2,Win32,59.75500448,,,,,,,,,,,,,,,,,,masks/mask_001.jpg,,,,,,,,,,,,,,,,,,,,,,,,,,,,,,,,,,,,,,,,,,,,,,,,0,3,3,0,1,,,,,,,,,,,,,,,,,,,,,,,,,,,,,,,,,,,,,,,,,
653028,001,2022-11-20_23h53.52.656,Info_measure_main_exp,2022.2.2,Win32,59.75500448,,,,,,,,,,,,,,,,,,masks/mask_005.jpg,,,,,,,,,,,,,,,,,,,,,,,,,,,,,,,,,,,,,,,,,,,,,,,,0,4,4,4,1,,,,,,,,,,,,,,,,,,,,,,,,,,,,,,,,,,,,,,,,,
653028,001,2022-11-20_23h53.52.656,Info_measure_main_exp,2022.2.2,Win32,59.75500448,,,,,,,,,,,,,,,,,,,,,,,,,,,,,,2,2.9475,1,,,,,,,,,,,,1,131,5,5,2238,1,absent_patch/patch0002238.jpg,present_patch/cong_131_5_a.jpg,,,,,,,,,,,,,,,,,,,,-0.077777792,-0.047222243,1,0,0,response5disk,28,0.008333347,-0.009259259,1,0,0,center_square,0,27,27,104,1,,,,,,,,,,,,,,,,,,,,,,,
653028,001,2022-11-20_23h53.52.656,Info_measure_main_exp,2022.2.2,Win32,59.75500448,,,,,,,,,,,,,,,,,,masks/mask_002.jpg,,,,,,,,,,,,,,,,,,,,,,,,,,,,,,,,,,,,,,,,,,,0,0,0,1,1,,,,,,,,,,,,,,,,,,,,,,,,,,,,,,,,,,,,,,,,,,,,,,
653028,001,2022-11-20_23h53.52.656,Info_measure_main_exp,2022.2.2,Win32,59.75500448,,,,,,,,,,,,,,,,,,masks/mask_004.jpg,,,,,,,,,,,,,,,,,,,,,,,,,,,,,,,,,,,,,,,,,,,0,1,1,3,1,,,,,,,,,,,,,,,,,,,,,,,,,,,,,,,,,,,,,,,,,,,,,,
653028,001,2022-11-20_23h53.52.656,Info_measure_main_exp,2022.2.2,Win32,59.75500448,,,,,,,,,,,,,,,,,,masks/mask_003.jpg,,,,,,,,,,,,,,,,,,,,,,,,,,,,,,,,,,,,,,,,,,,0,2,2,2,1,,,,,,,,,,,,,,,,,,,,,,,,,,,,,,,,,,,,,,,,,,,,,,
653028,001,2022-11-20_23h53.52.656,Info_measure_main_exp,2022.2.2,Win32,59.75500448,,,,,,,,,,,,,,,,,,masks/mask_001.jpg,,,,,,,,,,,,,,,,,,,,,,,,,,,,,,,,,,,,,,,,,,,0,3,3,0,1,,,,,,,,,,,,,,,,,,,,,,,,,,,,,,,,,,,,,,,,,,,,,,
653028,001,2022-11-20_23h53.52.656,Info_measure_main_exp,2022.2.2,Win32,59.75500448,,,,,,,,,,,,,,,,,,masks/mask_005.jpg,,,,,,,,,,,,,,,,,,,,,,,,,,,,,,,,,,,,,,,,,,,0,4,4,4,1,,,,,,,,,,,,,,,,,,,,,,,,,,,,,,,,,,,,,,,,,,,,,,
653028,001,2022-11-20_23h53.52.656,Info_measure_main_exp,2022.2.2,Win32,59.75500448,,,,,,,,,,,,,,,,,,masks/mask_001.jpg,,,,,,,,,,,,,,,,,,,,,,,,,,,,,,,,,,,,,,,,,,,,,,,,0,0,0,0,1,,,,,,,,,,,,,,,,,,,,,,,,,,,,,,,,,,,,,,,,,
653028,001,2022-11-20_23h53.52.656,Info_measure_main_exp,2022.2.2,Win32,59.75500448,,,,,,,,,,,,,,,,,,masks/mask_004.jpg,,,,,,,,,,,,,,,,,,,,,,,,,,,,,,,,,,,,,,,,,,,,,,,,0,1,1,3,1,,,,,,,,,,,,,,,,,,,,,,,,,,,,,,,,,,,,,,,,,
653028,001,2022-11-20_23h53.52.656,Info_measure_main_exp,2022.2.2,Win32,59.75500448,,,,,,,,,,,,,,,,,,masks/mask_003.jpg,,,,,,,,,,,,,,,,,,,,,,,,,,,,,,,,,,,,,,,,,,,,,,,,0,2,2,2,1,,,,,,,,,,,,,,,,,,,,,,,,,,,,,,,,,,,,,,,,,
653028,001,2022-11-20_23h53.52.656,Info_measure_main_exp,2022.2.2,Win32,59.75500448,,,,,,,,,,,,,,,,,,masks/mask_002.jpg,,,,,,,,,,,,,,,,,,,,,,,,,,,,,,,,,,,,,,,,,,,,,,,,0,3,3,1,1,,,,,,,,,,,,,,,,,,,,,,,,,,,,,,,,,,,,,,,,,
653028,001,2022-11-20_23h53.52.656,Info_measure_main_exp,2022.2.2,Win32,59.75500448,,,,,,,,,,,,,,,,,,masks/mask_005.jpg,,,,,,,,,,,,,,,,,,,,,,,,,,,,,,,,,,,,,,,,,,,,,,,,0,4,4,4,1,,,,,,,,,,,,,,,,,,,,,,,,,,,,,,,,,,,,,,,,,
653028,001,2022-11-20_23h53.52.656,Info_measure_main_exp,2022.2.2,Win32,59.75500448,,,,,,,,,,,,,,,,,,,,,,,,,,,,,,5,1.1654,1,,,,,,,,,,,,0,131,5,5,1974,2238,absent_patch/patch0001974.jpg,absent_patch/patch0002238.jpg,,,,,,,,,,,,,,,,,,,,0.12037037,-0.044444437,1,0,0,response3disk,29,-0.006481453,-0.002777771,1,0,0,center_square,0,28,28,95,1,,,,,,,,,,,,,,,,,,,,,,,
653028,001,2022-11-20_23h53.52.656,Info_measure_main_exp,2022.2.2,Win32,59.75500448,,,,,,,,,,,,,,,,,,masks/mask_003.jpg,,,,,,,,,,,,,,,,,,,,,,,,,,,,,,,,,,,,,,,,,,,0,0,0,2,1,,,,,,,,,,,,,,,,,,,,,,,,,,,,,,,,,,,,,,,,,,,,,,
653028,001,2022-11-20_23h53.52.656,Info_measure_main_exp,2022.2.2,Win32,59.75500448,,,,,,,,,,,,,,,,,,masks/mask_001.jpg,,,,,,,,,,,,,,,,,,,,,,,,,,,,,,,,,,,,,,,,,,,0,1,1,0,1,,,,,,,,,,,,,,,,,,,,,,,,,,,,,,,,,,,,,,,,,,,,,,
653028,001,2022-11-20_23h53.52.656,Info_measure_main_exp,2022.2.2,Win32,59.75500448,,,,,,,,,,,,,,,,,,masks/mask_005.jpg,,,,,,,,,,,,,,,,,,,,,,,,,,,,,,,,,,,,,,,,,,,0,2,2,4,1,,,,,,,,,,,,,,,,,,,,,,,,,,,,,,,,,,,,,,,,,,,,,,
653028,001,2022-11-20_23h53.52.656,Info_measure_main_exp,2022.2.2,Win32,59.75500448,,,,,,,,,,,,,,,,,,masks/mask_004.jpg,,,,,,,,,,,,,,,,,,,,,,,,,,,,,,,,,,,,,,,,,,,0,3,3,3,1,,,,,,,,,,,,,,,,,,,,,,,,,,,,,,,,,,,,,,,,,,,,,,
653028,001,2022-11-20_23h53.52.656,Info_measure_main_exp,2022.2.2,Win32,59.75500448,,,,,,,,,,,,,,,,,,masks/mask_002.jpg,,,,,,,,,,,,,,,,,,,,,,,,,,,,,,,,,,,,,,,,,,,0,4,4,1,1,,,,,,,,,,,,,,,,,,,,,,,,,,,,,,,,,,,,,,,,,,,,,,
653028,001,2022-11-20_23h53.52.656,Info_measure_main_exp,2022.2.2,Win32,59.75500448,,,,,,,,,,,,,,,,,,masks/mask_001.jpg,,,,,,,,,,,,,,,,,,,,,,,,,,,,,,,,,,,,,,,,,,,,,,,,0,0,0,0,1,,,,,,,,,,,,,,,,,,,,,,,,,,,,,,,,,,,,,,,,,
653028,001,2022-11-20_23h53.52.656,Info_measure_main_exp,2022.2.2,Win32,59.75500448,,,,,,,,,,,,,,,,,,masks/mask_003.jpg,,,,,,,,,,,,,,,,,,,,,,,,,,,,,,,,,,,,,,,,,,,,,,,,0,1,1,2,1,,,,,,,,,,,,,,,,,,,,,,,,,,,,,,,,,,,,,,,,,
653028,001,2022-11-20_23h53.52.656,Info_measure_main_exp,2022.2.2,Win32,59.75500448,,,,,,,,,,,,,,,,,,masks/mask_002.jpg,,,,,,,,,,,,,,,,,,,,,,,,,,,,,,,,,,,,,,,,,,,,,,,,0,2,2,1,1,,,,,,,,,,,,,,,,,,,,,,,,,,,,,,,,,,,,,,,,,
653028,001,2022-11-20_23h53.52.656,Info_measure_main_exp,2022.2.2,Win32,59.75500448,,,,,,,,,,,,,,,,,,masks/mask_005.jpg,,,,,,,,,,,,,,,,,,,,,,,,,,,,,,,,,,,,,,,,,,,,,,,,0,3,3,4,1,,,,,,,,,,,,,,,,,,,,,,,,,,,,,,,,,,,,,,,,,
653028,001,2022-11-20_23h53.52.656,Info_measure_main_exp,2022.2.2,Win32,59.75500448,,,,,,,,,,,,,,,,,,masks/mask_004.jpg,,,,,,,,,,,,,,,,,,,,,,,,,,,,,,,,,,,,,,,,,,,,,,,,0,4,4,3,1,,,,,,,,,,,,,,,,,,,,,,,,,,,,,,,,,,,,,,,,,
653028,001,2022-11-20_23h53.52.656,Info_measure_main_exp,2022.2.2,Win32,59.75500448,,,,,,,,,,,,,,,,,,,,,,,,,,,,,,6,1.2656,1,,,,,,,,,,,,0,131,5,5,2082,1986,absent_patch/patch0002082.jpg,absent_patch/patch0001986.jpg,,,,,,,,,,,,,,,,,,,,0.139814801,0.080555563,1,0,0,response1disk,30,-0.00462963,-0.00462963,1,0,0,center_square,0,29,29,94,1,,,,,,,,,,,,,,,,,,,,,,,
653028,001,2022-11-20_23h53.52.656,Info_measure_main_exp,2022.2.2,Win32,59.75500448,,,,,,,,,,,,,,,,,,masks/mask_004.jpg,,,,,,,,,,,,,,,,,,,,,,,,,,,,,,,,,,,,,,,,,,,0,0,0,3,1,,,,,,,,,,,,,,,,,,,,,,,,,,,,,,,,,,,,,,,,,,,,,,
653028,001,2022-11-20_23h53.52.656,Info_measure_main_exp,2022.2.2,Win32,59.75500448,,,,,,,,,,,,,,,,,,masks/mask_001.jpg,,,,,,,,,,,,,,,,,,,,,,,,,,,,,,,,,,,,,,,,,,,0,1,1,0,1,,,,,,,,,,,,,,,,,,,,,,,,,,,,,,,,,,,,,,,,,,,,,,
653028,001,2022-11-20_23h53.52.656,Info_measure_main_exp,2022.2.2,Win32,59.75500448,,,,,,,,,,,,,,,,,,masks/mask_003.jpg,,,,,,,,,,,,,,,,,,,,,,,,,,,,,,,,,,,,,,,,,,,0,2,2,2,1,,,,,,,,,,,,,,,,,,,,,,,,,,,,,,,,,,,,,,,,,,,,,,
653028,001,2022-11-20_23h53.52.656,Info_measure_main_exp,2022.2.2,Win32,59.75500448,,,,,,,,,,,,,,,,,,masks/mask_002.jpg,,,,,,,,,,,,,,,,,,,,,,,,,,,,,,,,,,,,,,,,,,,0,3,3,1,1,,,,,,,,,,,,,,,,,,,,,,,,,,,,,,,,,,,,,,,,,,,,,,
653028,001,2022-11-20_23h53.52.656,Info_measure_main_exp,2022.2.2,Win32,59.75500448,,,,,,,,,,,,,,,,,,masks/mask_005.jpg,,,,,,,,,,,,,,,,,,,,,,,,,,,,,,,,,,,,,,,,,,,0,4,4,4,1,,,,,,,,,,,,,,,,,,,,,,,,,,,,,,,,,,,,,,,,,,,,,,
653028,001,2022-11-20_23h53.52.656,Info_measure_main_exp,2022.2.2,Win32,59.75500448,,,,,,,,,,,,,,,,,,masks/mask_004.jpg,,,,,,,,,,,,,,,,,,,,,,,,,,,,,,,,,,,,,,,,,,,,,,,,0,0,0,3,1,,,,,,,,,,,,,,,,,,,,,,,,,,,,,,,,,,,,,,,,,
653028,001,2022-11-20_23h53.52.656,Info_measure_main_exp,2022.2.2,Win32,59.75500448,,,,,,,,,,,,,,,,,,masks/mask_005.jpg,,,,,,,,,,,,,,,,,,,,,,,,,,,,,,,,,,,,,,,,,,,,,,,,0,1,1,4,1,,,,,,,,,,,,,,,,,,,,,,,,,,,,,,,,,,,,,,,,,
653028,001,2022-11-20_23h53.52.656,Info_measure_main_exp,2022.2.2,Win32,59.75500448,,,,,,,,,,,,,,,,,,masks/mask_001.jpg,,,,,,,,,,,,,,,,,,,,,,,,,,,,,,,,,,,,,,,,,,,,,,,,0,2,2,0,1,,,,,,,,,,,,,,,,,,,,,,,,,,,,,,,,,,,,,,,,,
653028,001,2022-11-20_23h53.52.656,Info_measure_main_exp,2022.2.2,Win32,59.75500448,,,,,,,,,,,,,,,,,,masks/mask_003.jpg,,,,,,,,,,,,,,,,,,,,,,,,,,,,,,,,,,,,,,,,,,,,,,,,0,3,3,2,1,,,,,,,,,,,,,,,,,,,,,,,,,,,,,,,,,,,,,,,,,
653028,001,2022-11-20_23h53.52.656,Info_measure_main_exp,2022.2.2,Win32,59.75500448,,,,,,,,,,,,,,,,,,masks/mask_002.jpg,,,,,,,,,,,,,,,,,,,,,,,,,,,,,,,,,,,,,,,,,,,,,,,,0,4,4,1,1,,,,,,,,,,,,,,,,,,,,,,,,,,,,,,,,,,,,,,,,,
653028,001,2022-11-20_23h53.52.656,Info_measure_main_exp,2022.2.2,Win32,59.75500448,,,,,,,,,,,,,,,,,,,,,,,,,,,,,,1,1.3818,1,,,,,,,,,,,,0,131,5,5,2274,2166,absent_patch/patch0002274.jpg,absent_patch/patch0002166.jpg,,,,,,,,,,,,,,,,,,,,-0.099999958,0.046296296,1,0,0,response7disk,31,-0.002777735,0.005555541,1,0,0,center_square,0,30,30,78,1,,,,,,,,,,,,,,,,,,,,,,,
653028,001,2022-11-20_23h53.52.656,Info_measure_main_exp,2022.2.2,Win32,59.75500448,,,,,,,,,,,,,,,,,,masks/mask_005.jpg,,,,,,,,,,,,,,,,,,,,,,,,,,,,,,,,,,,,,,,,,,,0,0,0,4,1,,,,,,,,,,,,,,,,,,,,,,,,,,,,,,,,,,,,,,,,,,,,,,
653028,001,2022-11-20_23h53.52.656,Info_measure_main_exp,2022.2.2,Win32,59.75500448,,,,,,,,,,,,,,,,,,masks/mask_003.jpg,,,,,,,,,,,,,,,,,,,,,,,,,,,,,,,,,,,,,,,,,,,0,1,1,2,1,,,,,,,,,,,,,,,,,,,,,,,,,,,,,,,,,,,,,,,,,,,,,,
653028,001,2022-11-20_23h53.52.656,Info_measure_main_exp,2022.2.2,Win32,59.75500448,,,,,,,,,,,,,,,,,,masks/mask_004.jpg,,,,,,,,,,,,,,,,,,,,,,,,,,,,,,,,,,,,,,,,,,,0,2,2,3,1,,,,,,,,,,,,,,,,,,,,,,,,,,,,,,,,,,,,,,,,,,,,,,
653028,001,2022-11-20_23h53.52.656,Info_measure_main_exp,2022.2.2,Win32,59.75500448,,,,,,,,,,,,,,,,,,masks/mask_001.jpg,,,,,,,,,,,,,,,,,,,,,,,,,,,,,,,,,,,,,,,,,,,0,3,3,0,1,,,,,,,,,,,,,,,,,,,,,,,,,,,,,,,,,,,,,,,,,,,,,,
653028,001,2022-11-20_23h53.52.656,Info_measure_main_exp,2022.2.2,Win32,59.75500448,,,,,,,,,,,,,,,,,,masks/mask_002.jpg,,,,,,,,,,,,,,,,,,,,,,,,,,,,,,,,,,,,,,,,,,,0,4,4,1,1,,,,,,,,,,,,,,,,,,,,,,,,,,,,,,,,,,,,,,,,,,,,,,
653028,001,2022-11-20_23h53.52.656,Info_measure_main_exp,2022.2.2,Win32,59.75500448,,,,,,,,,,,,,,,,,,masks/mask_003.jpg,,,,,,,,,,,,,,,,,,,,,,,,,,,,,,,,,,,,,,,,,,,,,,,,0,0,0,2,1,,,,,,,,,,,,,,,,,,,,,,,,,,,,,,,,,,,,,,,,,
653028,001,2022-11-20_23h53.52.656,Info_measure_main_exp,2022.2.2,Win32,59.75500448,,,,,,,,,,,,,,,,,,masks/mask_001.jpg,,,,,,,,,,,,,,,,,,,,,,,,,,,,,,,,,,,,,,,,,,,,,,,,0,1,1,0,1,,,,,,,,,,,,,,,,,,,,,,,,,,,,,,,,,,,,,,,,,
653028,001,2022-11-20_23h53.52.656,Info_measure_main_exp,2022.2.2,Win32,59.75500448,,,,,,,,,,,,,,,,,,masks/mask_002.jpg,,,,,,,,,,,,,,,,,,,,,,,,,,,,,,,,,,,,,,,,,,,,,,,,0,2,2,1,1,,,,,,,,,,,,,,,,,,,,,,,,,,,,,,,,,,,,,,,,,
653028,001,2022-11-20_23h53.52.656,Info_measure_main_exp,2022.2.2,Win32,59.75500448,,,,,,,,,,,,,,,,,,masks/mask_004.jpg,,,,,,,,,,,,,,,,,,,,,,,,,,,,,,,,,,,,,,,,,,,,,,,,0,3,3,3,1,,,,,,,,,,,,,,,,,,,,,,,,,,,,,,,,,,,,,,,,,
653028,001,2022-11-20_23h53.52.656,Info_measure_main_exp,2022.2.2,Win32,59.75500448,,,,,,,,,,,,,,,,,,masks/mask_005.jpg,,,,,,,,,,,,,,,,,,,,,,,,,,,,,,,,,,,,,,,,,,,,,,,,0,4,4,4,1,,,,,,,,,,,,,,,,,,,,,,,,,,,,,,,,,,,,,,,,,
653028,001,2022-11-20_23h53.52.656,Info_measure_main_exp,2022.2.2,Win32,59.75500448,,,,,,,,,,,,,,,,,,,,,,,,,,,,,,4,2.747,1,,,,,,,,,,,,0,131,5,5,2154,2190,absent_patch/patch0002154.jpg,absent_patch/patch0002190.jpg,,,,,,,,,,,,,,,,,,,,0.077777792,-0.115740741,1,0,0,response3disk,32,0.009259259,-0.006481489,1,0,0,center_square,0,31,31,68,1,,,,,,,,,,,,,,,,,,,,,,,
653028,001,2022-11-20_23h53.52.656,Info_measure_main_exp,2022.2.2,Win32,59.75500448,,,,,,,,,,,,,,,,,,masks/mask_002.jpg,,,,,,,,,,,,,,,,,,,,,,,,,,,,,,,,,,,,,,,,,,,0,0,0,1,1,,,,,,,,,,,,,,,,,,,,,,,,,,,,,,,,,,,,,,,,,,,,,,
653028,001,2022-11-20_23h53.52.656,Info_measure_main_exp,2022.2.2,Win32,59.75500448,,,,,,,,,,,,,,,,,,masks/mask_003.jpg,,,,,,,,,,,,,,,,,,,,,,,,,,,,,,,,,,,,,,,,,,,0,1,1,2,1,,,,,,,,,,,,,,,,,,,,,,,,,,,,,,,,,,,,,,,,,,,,,,
653028,001,2022-11-20_23h53.52.656,Info_measure_main_exp,2022.2.2,Win32,59.75500448,,,,,,,,,,,,,,,,,,masks/mask_001.jpg,,,,,,,,,,,,,,,,,,,,,,,,,,,,,,,,,,,,,,,,,,,0,2,2,0,1,,,,,,,,,,,,,,,,,,,,,,,,,,,,,,,,,,,,,,,,,,,,,,
653028,001,2022-11-20_23h53.52.656,Info_measure_main_exp,2022.2.2,Win32,59.75500448,,,,,,,,,,,,,,,,,,masks/mask_004.jpg,,,,,,,,,,,,,,,,,,,,,,,,,,,,,,,,,,,,,,,,,,,0,3,3,3,1,,,,,,,,,,,,,,,,,,,,,,,,,,,,,,,,,,,,,,,,,,,,,,
653028,001,2022-11-20_23h53.52.656,Info_measure_main_exp,2022.2.2,Win32,59.75500448,,,,,,,,,,,,,,,,,,masks/mask_005.jpg,,,,,,,,,,,,,,,,,,,,,,,,,,,,,,,,,,,,,,,,,,,0,4,4,4,1,,,,,,,,,,,,,,,,,,,,,,,,,,,,,,,,,,,,,,,,,,,,,,
653028,001,2022-11-20_23h53.52.656,Info_measure_main_exp,2022.2.2,Win32,59.75500448,,,,,,,,,,,,,,,,,,masks/mask_004.jpg,,,,,,,,,,,,,,,,,,,,,,,,,,,,,,,,,,,,,,,,,,,,,,,,0,0,0,3,1,,,,,,,,,,,,,,,,,,,,,,,,,,,,,,,,,,,,,,,,,
653028,001,2022-11-20_23h53.52.656,Info_measure_main_exp,2022.2.2,Win32,59.75500448,,,,,,,,,,,,,,,,,,masks/mask_005.jpg,,,,,,,,,,,,,,,,,,,,,,,,,,,,,,,,,,,,,,,,,,,,,,,,0,1,1,4,1,,,,,,,,,,,,,,,,,,,,,,,,,,,,,,,,,,,,,,,,,
653028,001,2022-11-20_23h53.52.656,Info_measure_main_exp,2022.2.2,Win32,59.75500448,,,,,,,,,,,,,,,,,,masks/mask_002.jpg,,,,,,,,,,,,,,,,,,,,,,,,,,,,,,,,,,,,,,,,,,,,,,,,0,2,2,1,1,,,,,,,,,,,,,,,,,,,,,,,,,,,,,,,,,,,,,,,,,
653028,001,2022-11-20_23h53.52.656,Info_measure_main_exp,2022.2.2,Win32,59.75500448,,,,,,,,,,,,,,,,,,masks/mask_001.jpg,,,,,,,,,,,,,,,,,,,,,,,,,,,,,,,,,,,,,,,,,,,,,,,,0,3,3,0,1,,,,,,,,,,,,,,,,,,,,,,,,,,,,,,,,,,,,,,,,,
653028,001,2022-11-20_23h53.52.656,Info_measure_main_exp,2022.2.2,Win32,59.75500448,,,,,,,,,,,,,,,,,,masks/mask_003.jpg,,,,,,,,,,,,,,,,,,,,,,,,,,,,,,,,,,,,,,,,,,,,,,,,0,4,4,2,1,,,,,,,,,,,,,,,,,,,,,,,,,,,,,,,,,,,,,,,,,
653028,001,2022-11-20_23h53.52.656,Info_measure_main_exp,2022.2.2,Win32,59.75500448,,,,,,,,,,,,,,,,,,,,,,,,,,,,,,5,1.8482,1,,,,,,,,,,,,0,131,5,5,2190,2178,absent_patch/patch0002190.jpg,absent_patch/patch0002178.jpg,,,,,,,,,,,,,,,,,,,,0.138888889,-0.025000007,1,0,0,response3disk,33,-0.012036995,-0.001851859,1,0,0,center_square,0,32,32,14,1,,,,,,,,,,,,,,,,,,,,,,,
653028,001,2022-11-20_23h53.52.656,Info_measure_main_exp,2022.2.2,Win32,59.75500448,,,,,,,,,,,,,,,,,,masks/mask_003.jpg,,,,,,,,,,,,,,,,,,,,,,,,,,,,,,,,,,,,,,,,,,,0,0,0,2,1,,,,,,,,,,,,,,,,,,,,,,,,,,,,,,,,,,,,,,,,,,,,,,
653028,001,2022-11-20_23h53.52.656,Info_measure_main_exp,2022.2.2,Win32,59.75500448,,,,,,,,,,,,,,,,,,masks/mask_005.jpg,,,,,,,,,,,,,,,,,,,,,,,,,,,,,,,,,,,,,,,,,,,0,1,1,4,1,,,,,,,,,,,,,,,,,,,,,,,,,,,,,,,,,,,,,,,,,,,,,,
653028,001,2022-11-20_23h53.52.656,Info_measure_main_exp,2022.2.2,Win32,59.75500448,,,,,,,,,,,,,,,,,,masks/mask_001.jpg,,,,,,,,,,,,,,,,,,,,,,,,,,,,,,,,,,,,,,,,,,,0,2,2,0,1,,,,,,,,,,,,,,,,,,,,,,,,,,,,,,,,,,,,,,,,,,,,,,
653028,001,2022-11-20_23h53.52.656,Info_measure_main_exp,2022.2.2,Win32,59.75500448,,,,,,,,,,,,,,,,,,masks/mask_002.jpg,,,,,,,,,,,,,,,,,,,,,,,,,,,,,,,,,,,,,,,,,,,0,3,3,1,1,,,,,,,,,,,,,,,,,,,,,,,,,,,,,,,,,,,,,,,,,,,,,,
653028,001,2022-11-20_23h53.52.656,Info_measure_main_exp,2022.2.2,Win32,59.75500448,,,,,,,,,,,,,,,,,,masks/mask_004.jpg,,,,,,,,,,,,,,,,,,,,,,,,,,,,,,,,,,,,,,,,,,,0,4,4,3,1,,,,,,,,,,,,,,,,,,,,,,,,,,,,,,,,,,,,,,,,,,,,,,
653028,001,2022-11-20_23h53.52.656,Info_measure_main_exp,2022.2.2,Win32,59.75500448,,,,,,,,,,,,,,,,,,masks/mask_004.jpg,,,,,,,,,,,,,,,,,,,,,,,,,,,,,,,,,,,,,,,,,,,,,,,,0,0,0,3,1,,,,,,,,,,,,,,,,,,,,,,,,,,,,,,,,,,,,,,,,,
653028,001,2022-11-20_23h53.52.656,Info_measure_main_exp,2022.2.2,Win32,59.75500448,,,,,,,,,,,,,,,,,,masks/mask_001.jpg,,,,,,,,,,,,,,,,,,,,,,,,,,,,,,,,,,,,,,,,,,,,,,,,0,1,1,0,1,,,,,,,,,,,,,,,,,,,,,,,,,,,,,,,,,,,,,,,,,
653028,001,2022-11-20_23h53.52.656,Info_measure_main_exp,2022.2.2,Win32,59.75500448,,,,,,,,,,,,,,,,,,masks/mask_005.jpg,,,,,,,,,,,,,,,,,,,,,,,,,,,,,,,,,,,,,,,,,,,,,,,,0,2,2,4,1,,,,,,,,,,,,,,,,,,,,,,,,,,,,,,,,,,,,,,,,,
653028,001,2022-11-20_23h53.52.656,Info_measure_main_exp,2022.2.2,Win32,59.75500448,,,,,,,,,,,,,,,,,,masks/mask_002.jpg,,,,,,,,,,,,,,,,,,,,,,,,,,,,,,,,,,,,,,,,,,,,,,,,0,3,3,1,1,,,,,,,,,,,,,,,,,,,,,,,,,,,,,,,,,,,,,,,,,
653028,001,2022-11-20_23h53.52.656,Info_measure_main_exp,2022.2.2,Win32,59.75500448,,,,,,,,,,,,,,,,,,masks/mask_003.jpg,,,,,,,,,,,,,,,,,,,,,,,,,,,,,,,,,,,,,,,,,,,,,,,,0,4,4,2,1,,,,,,,,,,,,,,,,,,,,,,,,,,,,,,,,,,,,,,,,,
653028,001,2022-11-20_23h53.52.656,Info_measure_main_exp,2022.2.2,Win32,59.75500448,,,,,,,,,,,,,,,,,,,,,,,,,,,,,,4,1.6648,1,,,,,,,,,,,,0,131,5,5,2250,2166,absent_patch/patch0002250.jpg,absent_patch/patch0002166.jpg,,,,,,,,,,,,,,,,,,,,0.069444444,-0.111111111,1,0,0,response3disk,34,0.000925912,0.002777771,1,0,0,center_square,0,33,33,60,1,,,,,,,,,,,,,,,,,,,,,,,
653028,001,2022-11-20_23h53.52.656,Info_measure_main_exp,2022.2.2,Win32,59.75500448,,,,,,,,,,,,,,,,,,masks/mask_001.jpg,,,,,,,,,,,,,,,,,,,,,,,,,,,,,,,,,,,,,,,,,,,0,0,0,0,1,,,,,,,,,,,,,,,,,,,,,,,,,,,,,,,,,,,,,,,,,,,,,,
653028,001,2022-11-20_23h53.52.656,Info_measure_main_exp,2022.2.2,Win32,59.75500448,,,,,,,,,,,,,,,,,,masks/mask_003.jpg,,,,,,,,,,,,,,,,,,,,,,,,,,,,,,,,,,,,,,,,,,,0,1,1,2,1,,,,,,,,,,,,,,,,,,,,,,,,,,,,,,,,,,,,,,,,,,,,,,
653028,001,2022-11-20_23h53.52.656,Info_measure_main_exp,2022.2.2,Win32,59.75500448,,,,,,,,,,,,,,,,,,masks/mask_005.jpg,,,,,,,,,,,,,,,,,,,,,,,,,,,,,,,,,,,,,,,,,,,0,2,2,4,1,,,,,,,,,,,,,,,,,,,,,,,,,,,,,,,,,,,,,,,,,,,,,,
653028,001,2022-11-20_23h53.52.656,Info_measure_main_exp,2022.2.2,Win32,59.75500448,,,,,,,,,,,,,,,,,,masks/mask_002.jpg,,,,,,,,,,,,,,,,,,,,,,,,,,,,,,,,,,,,,,,,,,,0,3,3,1,1,,,,,,,,,,,,,,,,,,,,,,,,,,,,,,,,,,,,,,,,,,,,,,
653028,001,2022-11-20_23h53.52.656,Info_measure_main_exp,2022.2.2,Win32,59.75500448,,,,,,,,,,,,,,,,,,masks/mask_004.jpg,,,,,,,,,,,,,,,,,,,,,,,,,,,,,,,,,,,,,,,,,,,0,4,4,3,1,,,,,,,,,,,,,,,,,,,,,,,,,,,,,,,,,,,,,,,,,,,,,,
653028,001,2022-11-20_23h53.52.656,Info_measure_main_exp,2022.2.2,Win32,59.75500448,,,,,,,,,,,,,,,,,,masks/mask_005.jpg,,,,,,,,,,,,,,,,,,,,,,,,,,,,,,,,,,,,,,,,,,,,,,,,0,0,0,4,1,,,,,,,,,,,,,,,,,,,,,,,,,,,,,,,,,,,,,,,,,
653028,001,2022-11-20_23h53.52.656,Info_measure_main_exp,2022.2.2,Win32,59.75500448,,,,,,,,,,,,,,,,,,masks/mask_002.jpg,,,,,,,,,,,,,,,,,,,,,,,,,,,,,,,,,,,,,,,,,,,,,,,,0,1,1,1,1,,,,,,,,,,,,,,,,,,,,,,,,,,,,,,,,,,,,,,,,,
653028,001,2022-11-20_23h53.52.656,Info_measure_main_exp,2022.2.2,Win32,59.75500448,,,,,,,,,,,,,,,,,,masks/mask_004.jpg,,,,,,,,,,,,,,,,,,,,,,,,,,,,,,,,,,,,,,,,,,,,,,,,0,2,2,3,1,,,,,,,,,,,,,,,,,,,,,,,,,,,,,,,,,,,,,,,,,
653028,001,2022-11-20_23h53.52.656,Info_measure_main_exp,2022.2.2,Win32,59.75500448,,,,,,,,,,,,,,,,,,masks/mask_003.jpg,,,,,,,,,,,,,,,,,,,,,,,,,,,,,,,,,,,,,,,,,,,,,,,,0,3,3,2,1,,,,,,,,,,,,,,,,,,,,,,,,,,,,,,,,,,,,,,,,,
