participant,session,date,expName,psychopyVersion,OS,frameRate,space_press_continue.keys,space_press_continue.rt,space_press_continue_2.keys,space_press_continue_2.rt,space_press_continue_3.keys,space_press_continue_3.rt,space_press_continue_4.keys,space_press_continue_4.rt,space_press_continue_5.keys,space_press_continue_5.rt,space_press_continue_6.keys,space_press_continue_6.rt,prac_mask_loop_1.thisRepN,prac_mask_loop_1.thisTrialN,prac_mask_loop_1.thisN,prac_mask_loop_1.thisIndex,prac_mask_loop_1.ran,mask_name,prac_mask_loop_2.thisRepN,prac_mask_loop_2.thisTrialN,prac_mask_loop_2.thisN,prac_mask_loop_2.thisIndex,prac_mask_loop_2.ran,mouse_2.x,mouse_2.y,mouse_2.leftButton,mouse_2.midButton,mouse_2.rightButton,mouse_2.clicked_name,similarity,response_time,Pass,mouse_12.x,mouse_12.y,mouse_12.leftButton,mouse_12.midButton,mouse_12.rightButton,mouse_12.clicked_name,prac_loop.thisRepN,prac_loop.thisTrialN,prac_loop.thisN,prac_loop.thisIndex,prac_loop.ran,Pair_type,Image_num,Patch_1_loc,Patch_2_loc,Patch_1_info,Patch_2_info,Patch_1_name,Patch_2_name,mouse_1.x,mouse_1.y,mouse_1.leftButton,mouse_1.midButton,mouse_1.rightButton,mouse_1.time,mouse_1.clicked_name,space_press_continue_7.keys,space_press_continue_7.rt,mask_loop.thisRepN,mask_loop.thisTrialN,mask_loop.thisN,mask_loop.thisIndex,mask_loop.ran,mask_loop_2.thisRepN,mask_loop_2.thisTrialN,mask_loop_2.thisN,mask_loop_2.thisIndex,mask_loop_2.ran,mouse.x,mouse.y,mouse.leftButton,mouse.midButton,mouse.rightButton,mouse.clicked_name,trialNumber,mouse_11.x,mouse_11.y,mouse_11.leftButton,mouse_11.midButton,mouse_11.rightButton,mouse_11.clicked_name,first_pass_loop.thisRepN,first_pass_loop.thisTrialN,first_pass_loop.thisN,first_pass_loop.thisIndex,first_pass_loop.ran,mask_loop_3.thisRepN,mask_loop_3.thisTrialN,mask_loop_3.thisN,mask_loop_3.thisIndex,mask_loop_3.ran,mask_loop_4.thisRepN,mask_loop_4.thisTrialN,mask_loop_4.thisN,mask_loop_4.thisIndex,mask_loop_4.ran,mouse_3.x,mouse_3.y,mouse_3.leftButton,mouse_3.midButton,mouse_3.rightButton,mouse_3.clicked_name,double_pass_loop.thisRepN,double_pass_loop.thisTrialN,double_pass_loop.thisN,double_pass_loop.thisIndex,double_pass_loop.ran,space_exit.keys,space_exit.rt
653141,001,2022-11-20_17h48.58.984,Info_measure_main_exp,2022.2.2,MacIntel,59.94125757,,,,,,,,,,,,,,,,,,,,,,,,,,,,,,,,,,,,,,,,,,,,,,,,,,,,,,,,,,,,,,,,,,,,,,,,,,,,,,,,,,,,,,,,,,,,,,,,,,,,,,,,,,,,,,,
653141,001,2022-11-20_17h48.58.984,Info_measure_main_exp,2022.2.2,MacIntel,59.94125757,,,,,,,,,,,,,,,,,,,,,,,,,,,,,,,,,,,,,,,,,,,,,,,,,,,,,,,,,,,,,,,,,,,,,,,,,,,,,,,,,,,,,,,,,,,,,,,,,,,,,,,,,,,,,,,
653141,001,2022-11-20_17h48.58.984,Info_measure_main_exp,2022.2.2,MacIntel,59.94125757,space,40.3425,,,,,,,,,,,,,,,,,,,,,,,,,,,,,,,,,,,,,,,,,,,,,,,,,,,,,,,,,,,,,,,,,,,,,,,,,,,,,,,,,,,,,,,,,,,,,,,,,,,,,,,,,,,,,
653141,001,2022-11-20_17h48.58.984,Info_measure_main_exp,2022.2.2,MacIntel,59.94125757,,,space,17.057,,,,,,,,,,,,,,,,,,,,,,,,,,,,,,,,,,,,,,,,,,,,,,,,,,,,,,,,,,,,,,,,,,,,,,,,,,,,,,,,,,,,,,,,,,,,,,,,,,,,,,,,,,,
653141,001,2022-11-20_17h48.58.984,Info_measure_main_exp,2022.2.2,MacIntel,59.94125757,,,,,space,9.0001,,,,,,,,,,,,,,,,,,,,,,,,,,,,,,,,,,,,,,,,,,,,,,,,,,,,,,,,,,,,,,,,,,,,,,,,,,,,,,,,,,,,,,,,,,,,,,,,,,,,,,,,,
653141,001,2022-11-20_17h48.58.984,Info_measure_main_exp,2022.2.2,MacIntel,59.94125757,,,,,,,space,30.4461,,,,,,,,,,,,,,,,,,,,,,,,,,,,,,,,,,,,,,,,,,,,,,,,,,,,,,,,,,,,,,,,,,,,,,,,,,,,,,,,,,,,,,,,,,,,,,,,,,,,,,,
653141,001,2022-11-20_17h48.58.984,Info_measure_main_exp,2022.2.2,MacIntel,59.94125757,,,,,,,,,space,6.0804,,,,,,,,,,,,,,,,,,,,,,,,,,,,,,,,,,,,,,,,,,,,,,,,,,,,,,,,,,,,,,,,,,,,,,,,,,,,,,,,,,,,,,,,,,,,,,,,,,,,,
653141,001,2022-11-20_17h48.58.984,Info_measure_main_exp,2022.2.2,MacIntel,59.94125757,,,,,,,,,,,space,4.2253,,,,,,,,,,,,,,,,,,,,,,,,,,,,,,,,,,,,,,,,,,,,,,,,,,,,,,,,,,,,,,,,,,,,,,,,,,,,,,,,,,,,,,,,,,,,,,,,,,,
653141,001,2022-11-20_17h48.58.984,Info_measure_main_exp,2022.2.2,MacIntel,59.94125757,,,,,,,,,,,,,0,0,0,2,1,masks/mask_003.jpg,,,,,,,,,,,,,,,,,,,,,,,,,,,,,,,,,,,,,,,,,,,,,,,,,,,,,,,,,,,,,,,,,,,,,,,,,,,,,,,,,,,,,,,,,,,,,
653141,001,2022-11-20_17h48.58.984,Info_measure_main_exp,2022.2.2,MacIntel,59.94125757,,,,,,,,,,,,,0,1,1,4,1,masks/mask_005.jpg,,,,,,,,,,,,,,,,,,,,,,,,,,,,,,,,,,,,,,,,,,,,,,,,,,,,,,,,,,,,,,,,,,,,,,,,,,,,,,,,,,,,,,,,,,,,,
653141,001,2022-11-20_17h48.58.984,Info_measure_main_exp,2022.2.2,MacIntel,59.94125757,,,,,,,,,,,,,0,2,2,1,1,masks/mask_002.jpg,,,,,,,,,,,,,,,,,,,,,,,,,,,,,,,,,,,,,,,,,,,,,,,,,,,,,,,,,,,,,,,,,,,,,,,,,,,,,,,,,,,,,,,,,,,,,
653141,001,2022-11-20_17h48.58.984,Info_measure_main_exp,2022.2.2,MacIntel,59.94125757,,,,,,,,,,,,,0,3,3,0,1,masks/mask_001.jpg,,,,,,,,,,,,,,,,,,,,,,,,,,,,,,,,,,,,,,,,,,,,,,,,,,,,,,,,,,,,,,,,,,,,,,,,,,,,,,,,,,,,,,,,,,,,,
653141,001,2022-11-20_17h48.58.984,Info_measure_main_exp,2022.2.2,MacIntel,59.94125757,,,,,,,,,,,,,0,4,4,3,1,masks/mask_004.jpg,,,,,,,,,,,,,,,,,,,,,,,,,,,,,,,,,,,,,,,,,,,,,,,,,,,,,,,,,,,,,,,,,,,,,,,,,,,,,,,,,,,,,,,,,,,,,
653141,001,2022-11-20_17h48.58.984,Info_measure_main_exp,2022.2.2,MacIntel,59.94125757,,,,,,,,,,,,,,,,,,masks/mask_003.jpg,0,0,0,2,1,,,,,,,,,,,,,,,,,,,,,,,,,,,,,,,,,,,,,,,,,,,,,,,,,,,,,,,,,,,,,,,,,,,,,,,,,,,,,,,,,,,,,,,,
653141,001,2022-11-20_17h48.58.984,Info_measure_main_exp,2022.2.2,MacIntel,59.94125757,,,,,,,,,,,,,,,,,,masks/mask_002.jpg,0,1,1,1,1,,,,,,,,,,,,,,,,,,,,,,,,,,,,,,,,,,,,,,,,,,,,,,,,,,,,,,,,,,,,,,,,,,,,,,,,,,,,,,,,,,,,,,,,
653141,001,2022-11-20_17h48.58.984,Info_measure_main_exp,2022.2.2,MacIntel,59.94125757,,,,,,,,,,,,,,,,,,masks/mask_004.jpg,0,2,2,3,1,,,,,,,,,,,,,,,,,,,,,,,,,,,,,,,,,,,,,,,,,,,,,,,,,,,,,,,,,,,,,,,,,,,,,,,,,,,,,,,,,,,,,,,,
653141,001,2022-11-20_17h48.58.984,Info_measure_main_exp,2022.2.2,MacIntel,59.94125757,,,,,,,,,,,,,,,,,,masks/mask_001.jpg,0,3,3,0,1,,,,,,,,,,,,,,,,,,,,,,,,,,,,,,,,,,,,,,,,,,,,,,,,,,,,,,,,,,,,,,,,,,,,,,,,,,,,,,,,,,,,,,,,
653141,001,2022-11-20_17h48.58.984,Info_measure_main_exp,2022.2.2,MacIntel,59.94125757,,,,,,,,,,,,,,,,,,masks/mask_005.jpg,0,4,4,4,1,,,,,,,,,,,,,,,,,,,,,,,,,,,,,,,,,,,,,,,,,,,,,,,,,,,,,,,,,,,,,,,,,,,,,,,,,,,,,,,,,,,,,,,,
653141,001,2022-11-20_17h48.58.984,Info_measure_main_exp,2022.2.2,MacIntel,59.94125757,,,,,,,,,,,,,,,,,,,,,,,,0.08104022,-0.161910446,1,0,0,response3disk,4,114.5012,1,2.53183E-05,-0.000130208,1,0,0,center_square,0,0,0,0,1,0,131,5,5,2370,2406,prac_patch/patch0002370.jpg,prac_patch/patch0002406.jpg,,,,,,,,,,,,,,,,,,,,,,,,,,,,,,,,,,,,,,,,,,,,,,,,,,,,,,,,,,,,
653141,001,2022-11-20_17h48.58.984,Info_measure_main_exp,2022.2.2,MacIntel,59.94125757,,,,,,,,,,,,,0,0,0,0,1,masks/mask_001.jpg,,,,,,,,,,,,,,,,,,,,,,,,,,,,,,,,,,,,,,,,,,,,,,,,,,,,,,,,,,,,,,,,,,,,,,,,,,,,,,,,,,,,,,,,,,,,,
653141,001,2022-11-20_17h48.58.984,Info_measure_main_exp,2022.2.2,MacIntel,59.94125757,,,,,,,,,,,,,0,1,1,2,1,masks/mask_003.jpg,,,,,,,,,,,,,,,,,,,,,,,,,,,,,,,,,,,,,,,,,,,,,,,,,,,,,,,,,,,,,,,,,,,,,,,,,,,,,,,,,,,,,,,,,,,,,
653141,001,2022-11-20_17h48.58.984,Info_measure_main_exp,2022.2.2,MacIntel,59.94125757,,,,,,,,,,,,,0,2,2,3,1,masks/mask_004.jpg,,,,,,,,,,,,,,,,,,,,,,,,,,,,,,,,,,,,,,,,,,,,,,,,,,,,,,,,,,,,,,,,,,,,,,,,,,,,,,,,,,,,,,,,,,,,,
653141,001,2022-11-20_17h48.58.984,Info_measure_main_exp,2022.2.2,MacIntel,59.94125757,,,,,,,,,,,,,0,3,3,4,1,masks/mask_005.jpg,,,,,,,,,,,,,,,,,,,,,,,,,,,,,,,,,,,,,,,,,,,,,,,,,,,,,,,,,,,,,,,,,,,,,,,,,,,,,,,,,,,,,,,,,,,,,
653141,001,2022-11-20_17h48.58.984,Info_measure_main_exp,2022.2.2,MacIntel,59.94125757,,,,,,,,,,,,,0,4,4,1,1,masks/mask_002.jpg,,,,,,,,,,,,,,,,,,,,,,,,,,,,,,,,,,,,,,,,,,,,,,,,,,,,,,,,,,,,,,,,,,,,,,,,,,,,,,,,,,,,,,,,,,,,,
653141,001,2022-11-20_17h48.58.984,Info_measure_main_exp,2022.2.2,MacIntel,59.94125757,,,,,,,,,,,,,,,,,,masks/mask_003.jpg,0,0,0,2,1,,,,,,,,,,,,,,,,,,,,,,,,,,,,,,,,,,,,,,,,,,,,,,,,,,,,,,,,,,,,,,,,,,,,,,,,,,,,,,,,,,,,,,,,
653141,001,2022-11-20_17h48.58.984,Info_measure_main_exp,2022.2.2,MacIntel,59.94125757,,,,,,,,,,,,,,,,,,masks/mask_001.jpg,0,1,1,0,1,,,,,,,,,,,,,,,,,,,,,,,,,,,,,,,,,,,,,,,,,,,,,,,,,,,,,,,,,,,,,,,,,,,,,,,,,,,,,,,,,,,,,,,,
653141,001,2022-11-20_17h48.58.984,Info_measure_main_exp,2022.2.2,MacIntel,59.94125757,,,,,,,,,,,,,,,,,,masks/mask_005.jpg,0,2,2,4,1,,,,,,,,,,,,,,,,,,,,,,,,,,,,,,,,,,,,,,,,,,,,,,,,,,,,,,,,,,,,,,,,,,,,,,,,,,,,,,,,,,,,,,,,
653141,001,2022-11-20_17h48.58.984,Info_measure_main_exp,2022.2.2,MacIntel,59.94125757,,,,,,,,,,,,,,,,,,masks/mask_004.jpg,0,3,3,3,1,,,,,,,,,,,,,,,,,,,,,,,,,,,,,,,,,,,,,,,,,,,,,,,,,,,,,,,,,,,,,,,,,,,,,,,,,,,,,,,,,,,,,,,,
653141,001,2022-11-20_17h48.58.984,Info_measure_main_exp,2022.2.2,MacIntel,59.94125757,,,,,,,,,,,,,,,,,,masks/mask_002.jpg,0,4,4,1,1,,,,,,,,,,,,,,,,,,,,,,,,,,,,,,,,,,,,,,,,,,,,,,,,,,,,,,,,,,,,,,,,,,,,,,,,,,,,,,,,,,,,,,,,
653141,001,2022-11-20_17h48.58.984,Info_measure_main_exp,2022.2.2,MacIntel,59.94125757,,,,,,,,,,,,,,,,,,,,,,,,-0.04203559,0.145131655,1,0,0,response7disk,0,125.1085,1,0.000918692,-0.004191985,1,0,0,center_square,0,1,1,2,1,0,131,5,5,2526,2526,prac_patch/patch0002526.jpg,prac_patch/patch0002526.jpg,,,,,,,,,,,,,,,,,,,,,,,,,,,,,,,,,,,,,,,,,,,,,,,,,,,,,,,,,,,,
653141,001,2022-11-20_17h48.58.984,Info_measure_main_exp,2022.2.2,MacIntel,59.94125757,,,,,,,,,,,,,0,0,0,2,1,masks/mask_003.jpg,,,,,,,,,,,,,,,,,,,,,,,,,,,,,,,,,,,,,,,,,,,,,,,,,,,,,,,,,,,,,,,,,,,,,,,,,,,,,,,,,,,,,,,,,,,,,
653141,001,2022-11-20_17h48.58.984,Info_measure_main_exp,2022.2.2,MacIntel,59.94125757,,,,,,,,,,,,,0,1,1,0,1,masks/mask_001.jpg,,,,,,,,,,,,,,,,,,,,,,,,,,,,,,,,,,,,,,,,,,,,,,,,,,,,,,,,,,,,,,,,,,,,,,,,,,,,,,,,,,,,,,,,,,,,,
653141,001,2022-11-20_17h48.58.984,Info_measure_main_exp,2022.2.2,MacIntel,59.94125757,,,,,,,,,,,,,0,2,2,4,1,masks/mask_005.jpg,,,,,,,,,,,,,,,,,,,,,,,,,,,,,,,,,,,,,,,,,,,,,,,,,,,,,,,,,,,,,,,,,,,,,,,,,,,,,,,,,,,,,,,,,,,,,
653141,001,2022-11-20_17h48.58.984,Info_measure_main_exp,2022.2.2,MacIntel,59.94125757,,,,,,,,,,,,,0,3,3,3,1,masks/mask_004.jpg,,,,,,,,,,,,,,,,,,,,,,,,,,,,,,,,,,,,,,,,,,,,,,,,,,,,,,,,,,,,,,,,,,,,,,,,,,,,,,,,,,,,,,,,,,,,,
653141,001,2022-11-20_17h48.58.984,Info_measure_main_exp,2022.2.2,MacIntel,59.94125757,,,,,,,,,,,,,0,4,4,1,1,masks/mask_002.jpg,,,,,,,,,,,,,,,,,,,,,,,,,,,,,,,,,,,,,,,,,,,,,,,,,,,,,,,,,,,,,,,,,,,,,,,,,,,,,,,,,,,,,,,,,,,,,
653141,001,2022-11-20_17h48.58.984,Info_measure_main_exp,2022.2.2,MacIntel,59.94125757,,,,,,,,,,,,,,,,,,masks/mask_002.jpg,0,0,0,1,1,,,,,,,,,,,,,,,,,,,,,,,,,,,,,,,,,,,,,,,,,,,,,,,,,,,,,,,,,,,,,,,,,,,,,,,,,,,,,,,,,,,,,,,,
653141,001,2022-11-20_17h48.58.984,Info_measure_main_exp,2022.2.2,MacIntel,59.94125757,,,,,,,,,,,,,,,,,,masks/mask_005.jpg,0,1,1,4,1,,,,,,,,,,,,,,,,,,,,,,,,,,,,,,,,,,,,,,,,,,,,,,,,,,,,,,,,,,,,,,,,,,,,,,,,,,,,,,,,,,,,,,,,
653141,001,2022-11-20_17h48.58.984,Info_measure_main_exp,2022.2.2,MacIntel,59.94125757,,,,,,,,,,,,,,,,,,masks/mask_003.jpg,0,2,2,2,1,,,,,,,,,,,,,,,,,,,,,,,,,,,,,,,,,,,,,,,,,,,,,,,,,,,,,,,,,,,,,,,,,,,,,,,,,,,,,,,,,,,,,,,,
653141,001,2022-11-20_17h48.58.984,Info_measure_main_exp,2022.2.2,MacIntel,59.94125757,,,,,,,,,,,,,,,,,,masks/mask_001.jpg,0,3,3,0,1,,,,,,,,,,,,,,,,,,,,,,,,,,,,,,,,,,,,,,,,,,,,,,,,,,,,,,,,,,,,,,,,,,,,,,,,,,,,,,,,,,,,,,,,
653141,001,2022-11-20_17h48.58.984,Info_measure_main_exp,2022.2.2,MacIntel,59.94125757,,,,,,,,,,,,,,,,,,masks/mask_004.jpg,0,4,4,3,1,,,,,,,,,,,,,,,,,,,,,,,,,,,,,,,,,,,,,,,,,,,,,,,,,,,,,,,,,,,,,,,,,,,,,,,,,,,,,,,,,,,,,,,,
653141,001,2022-11-20_17h48.58.984,Info_measure_main_exp,2022.2.2,MacIntel,59.94125757,,,,,,,,,,,,,,,,,,,,,,,,-0.065209057,-0.109649884,1,0,0,response5disk,3,138.053,1,-0.006022135,-0.003497541,1,0,0,center_square,0,2,2,1,1,0,131,5,5,2514,2490,prac_patch/patch0002514.jpg,prac_patch/patch0002490.jpg,,,,,,,,,,,,,,,,,,,,,,,,,,,,,,,,,,,,,,,,,,,,,,,,,,,,,,,,,,,,
653141,001,2022-11-20_17h48.58.984,Info_measure_main_exp,2022.2.2,MacIntel,59.94125757,,,,,,,,,,,,,,,,,,,,,,,,,,,,,,,,,,,,,,,,,,,,,,,,,,,,,,,,,,,space,108.1291,,,,,,,,,,,,,,,,,,,,,,,,,,,,,,,,,,,,,,,,,,,,,,,,,,,
653141,001,2022-11-20_17h48.58.984,Info_measure_main_exp,2022.2.2,MacIntel,59.94125757,,,,,,,,,,,,,,,,,,masks/mask_003.jpg,,,,,,,,,,,,,,,,,,,,,,,,,,,,,,,,,,,,,,,,,,,0,0,0,2,1,,,,,,,,,,,,,,,,,,,,,,,,,,,,,,,,,,,,,,,,,,,,,,
653141,001,2022-11-20_17h48.58.984,Info_measure_main_exp,2022.2.2,MacIntel,59.94125757,,,,,,,,,,,,,,,,,,masks/mask_002.jpg,,,,,,,,,,,,,,,,,,,,,,,,,,,,,,,,,,,,,,,,,,,0,1,1,1,1,,,,,,,,,,,,,,,,,,,,,,,,,,,,,,,,,,,,,,,,,,,,,,
653141,001,2022-11-20_17h48.58.984,Info_measure_main_exp,2022.2.2,MacIntel,59.94125757,,,,,,,,,,,,,,,,,,masks/mask_004.jpg,,,,,,,,,,,,,,,,,,,,,,,,,,,,,,,,,,,,,,,,,,,0,2,2,3,1,,,,,,,,,,,,,,,,,,,,,,,,,,,,,,,,,,,,,,,,,,,,,,
653141,001,2022-11-20_17h48.58.984,Info_measure_main_exp,2022.2.2,MacIntel,59.94125757,,,,,,,,,,,,,,,,,,masks/mask_005.jpg,,,,,,,,,,,,,,,,,,,,,,,,,,,,,,,,,,,,,,,,,,,0,3,3,4,1,,,,,,,,,,,,,,,,,,,,,,,,,,,,,,,,,,,,,,,,,,,,,,
653141,001,2022-11-20_17h48.58.984,Info_measure_main_exp,2022.2.2,MacIntel,59.94125757,,,,,,,,,,,,,,,,,,masks/mask_001.jpg,,,,,,,,,,,,,,,,,,,,,,,,,,,,,,,,,,,,,,,,,,,0,4,4,0,1,,,,,,,,,,,,,,,,,,,,,,,,,,,,,,,,,,,,,,,,,,,,,,
653141,001,2022-11-20_17h48.58.984,Info_measure_main_exp,2022.2.2,MacIntel,59.94125757,,,,,,,,,,,,,,,,,,masks/mask_002.jpg,,,,,,,,,,,,,,,,,,,,,,,,,,,,,,,,,,,,,,,,,,,,,,,,0,0,0,1,1,,,,,,,,,,,,,,,,,,,,,,,,,,,,,,,,,,,,,,,,,
653141,001,2022-11-20_17h48.58.984,Info_measure_main_exp,2022.2.2,MacIntel,59.94125757,,,,,,,,,,,,,,,,,,masks/mask_004.jpg,,,,,,,,,,,,,,,,,,,,,,,,,,,,,,,,,,,,,,,,,,,,,,,,0,1,1,3,1,,,,,,,,,,,,,,,,,,,,,,,,,,,,,,,,,,,,,,,,,
653141,001,2022-11-20_17h48.58.984,Info_measure_main_exp,2022.2.2,MacIntel,59.94125757,,,,,,,,,,,,,,,,,,masks/mask_003.jpg,,,,,,,,,,,,,,,,,,,,,,,,,,,,,,,,,,,,,,,,,,,,,,,,0,2,2,2,1,,,,,,,,,,,,,,,,,,,,,,,,,,,,,,,,,,,,,,,,,
653141,001,2022-11-20_17h48.58.984,Info_measure_main_exp,2022.2.2,MacIntel,59.94125757,,,,,,,,,,,,,,,,,,masks/mask_005.jpg,,,,,,,,,,,,,,,,,,,,,,,,,,,,,,,,,,,,,,,,,,,,,,,,0,3,3,4,1,,,,,,,,,,,,,,,,,,,,,,,,,,,,,,,,,,,,,,,,,
653141,001,2022-11-20_17h48.58.984,Info_measure_main_exp,2022.2.2,MacIntel,59.94125757,,,,,,,,,,,,,,,,,,masks/mask_001.jpg,,,,,,,,,,,,,,,,,,,,,,,,,,,,,,,,,,,,,,,,,,,,,,,,0,4,4,0,1,,,,,,,,,,,,,,,,,,,,,,,,,,,,,,,,,,,,,,,,,
653141,001,2022-11-20_17h48.58.984,Info_measure_main_exp,2022.2.2,MacIntel,59.94125757,,,,,,,,,,,,,,,,,,,,,,,,,,,,,,7,1.0867,1,,,,,,,,,,,,0,131,5,5,2250,2298,absent_patch/patch0002250.jpg,absent_patch/patch0002298.jpg,,,,,,,,,,,,,,,,,,,,0.077336516,0.153634983,1,0,0,response1disk,1,-0.008206742,-0.00306713,1,0,0,center_square,0,0,0,59,1,,,,,,,,,,,,,,,,,,,,,,,
653141,001,2022-11-20_17h48.58.984,Info_measure_main_exp,2022.2.2,MacIntel,59.94125757,,,,,,,,,,,,,,,,,,masks/mask_004.jpg,,,,,,,,,,,,,,,,,,,,,,,,,,,,,,,,,,,,,,,,,,,0,0,0,3,1,,,,,,,,,,,,,,,,,,,,,,,,,,,,,,,,,,,,,,,,,,,,,,
653141,001,2022-11-20_17h48.58.984,Info_measure_main_exp,2022.2.2,MacIntel,59.94125757,,,,,,,,,,,,,,,,,,masks/mask_003.jpg,,,,,,,,,,,,,,,,,,,,,,,,,,,,,,,,,,,,,,,,,,,0,1,1,2,1,,,,,,,,,,,,,,,,,,,,,,,,,,,,,,,,,,,,,,,,,,,,,,
653141,001,2022-11-20_17h48.58.984,Info_measure_main_exp,2022.2.2,MacIntel,59.94125757,,,,,,,,,,,,,,,,,,masks/mask_002.jpg,,,,,,,,,,,,,,,,,,,,,,,,,,,,,,,,,,,,,,,,,,,0,2,2,1,1,,,,,,,,,,,,,,,,,,,,,,,,,,,,,,,,,,,,,,,,,,,,,,
653141,001,2022-11-20_17h48.58.984,Info_measure_main_exp,2022.2.2,MacIntel,59.94125757,,,,,,,,,,,,,,,,,,masks/mask_001.jpg,,,,,,,,,,,,,,,,,,,,,,,,,,,,,,,,,,,,,,,,,,,0,3,3,0,1,,,,,,,,,,,,,,,,,,,,,,,,,,,,,,,,,,,,,,,,,,,,,,
653141,001,2022-11-20_17h48.58.984,Info_measure_main_exp,2022.2.2,MacIntel,59.94125757,,,,,,,,,,,,,,,,,,masks/mask_005.jpg,,,,,,,,,,,,,,,,,,,,,,,,,,,,,,,,,,,,,,,,,,,0,4,4,4,1,,,,,,,,,,,,,,,,,,,,,,,,,,,,,,,,,,,,,,,,,,,,,,
653141,001,2022-11-20_17h48.58.984,Info_measure_main_exp,2022.2.2,MacIntel,59.94125757,,,,,,,,,,,,,,,,,,masks/mask_002.jpg,,,,,,,,,,,,,,,,,,,,,,,,,,,,,,,,,,,,,,,,,,,,,,,,0,0,0,1,1,,,,,,,,,,,,,,,,,,,,,,,,,,,,,,,,,,,,,,,,,
653141,001,2022-11-20_17h48.58.984,Info_measure_main_exp,2022.2.2,MacIntel,59.94125757,,,,,,,,,,,,,,,,,,masks/mask_003.jpg,,,,,,,,,,,,,,,,,,,,,,,,,,,,,,,,,,,,,,,,,,,,,,,,0,1,1,2,1,,,,,,,,,,,,,,,,,,,,,,,,,,,,,,,,,,,,,,,,,
653141,001,2022-11-20_17h48.58.984,Info_measure_main_exp,2022.2.2,MacIntel,59.94125757,,,,,,,,,,,,,,,,,,masks/mask_001.jpg,,,,,,,,,,,,,,,,,,,,,,,,,,,,,,,,,,,,,,,,,,,,,,,,0,2,2,0,1,,,,,,,,,,,,,,,,,,,,,,,,,,,,,,,,,,,,,,,,,
653141,001,2022-11-20_17h48.58.984,Info_measure_main_exp,2022.2.2,MacIntel,59.94125757,,,,,,,,,,,,,,,,,,masks/mask_005.jpg,,,,,,,,,,,,,,,,,,,,,,,,,,,,,,,,,,,,,,,,,,,,,,,,0,3,3,4,1,,,,,,,,,,,,,,,,,,,,,,,,,,,,,,,,,,,,,,,,,
653141,001,2022-11-20_17h48.58.984,Info_measure_main_exp,2022.2.2,MacIntel,59.94125757,,,,,,,,,,,,,,,,,,masks/mask_004.jpg,,,,,,,,,,,,,,,,,,,,,,,,,,,,,,,,,,,,,,,,,,,,,,,,0,4,4,3,1,,,,,,,,,,,,,,,,,,,,,,,,,,,,,,,,,,,,,,,,,
653141,001,2022-11-20_17h48.58.984,Info_measure_main_exp,2022.2.2,MacIntel,59.94125757,,,,,,,,,,,,,,,,,,,,,,,,,,,,,,7,0.9506,1,,,,,,,,,,,,0,131,5,5,2274,2214,absent_patch/patch0002274.jpg,absent_patch/patch0002214.jpg,,,,,,,,,,,,,,,,,,,,0.031315104,0.102282263,1,0,0,response1disk,2,-0.000976563,-0.005219184,1,0,0,center_square,0,1,1,11,1,,,,,,,,,,,,,,,,,,,,,,,
653141,001,2022-11-20_17h48.58.984,Info_measure_main_exp,2022.2.2,MacIntel,59.94125757,,,,,,,,,,,,,,,,,,masks/mask_003.jpg,,,,,,,,,,,,,,,,,,,,,,,,,,,,,,,,,,,,,,,,,,,0,0,0,2,1,,,,,,,,,,,,,,,,,,,,,,,,,,,,,,,,,,,,,,,,,,,,,,
653141,001,2022-11-20_17h48.58.984,Info_measure_main_exp,2022.2.2,MacIntel,59.94125757,,,,,,,,,,,,,,,,,,masks/mask_001.jpg,,,,,,,,,,,,,,,,,,,,,,,,,,,,,,,,,,,,,,,,,,,0,1,1,0,1,,,,,,,,,,,,,,,,,,,,,,,,,,,,,,,,,,,,,,,,,,,,,,
653141,001,2022-11-20_17h48.58.984,Info_measure_main_exp,2022.2.2,MacIntel,59.94125757,,,,,,,,,,,,,,,,,,masks/mask_002.jpg,,,,,,,,,,,,,,,,,,,,,,,,,,,,,,,,,,,,,,,,,,,0,2,2,1,1,,,,,,,,,,,,,,,,,,,,,,,,,,,,,,,,,,,,,,,,,,,,,,
653141,001,2022-11-20_17h48.58.984,Info_measure_main_exp,2022.2.2,MacIntel,59.94125757,,,,,,,,,,,,,,,,,,masks/mask_005.jpg,,,,,,,,,,,,,,,,,,,,,,,,,,,,,,,,,,,,,,,,,,,0,3,3,4,1,,,,,,,,,,,,,,,,,,,,,,,,,,,,,,,,,,,,,,,,,,,,,,
653141,001,2022-11-20_17h48.58.984,Info_measure_main_exp,2022.2.2,MacIntel,59.94125757,,,,,,,,,,,,,,,,,,masks/mask_004.jpg,,,,,,,,,,,,,,,,,,,,,,,,,,,,,,,,,,,,,,,,,,,0,4,4,3,1,,,,,,,,,,,,,,,,,,,,,,,,,,,,,,,,,,,,,,,,,,,,,,
653141,001,2022-11-20_17h48.58.984,Info_measure_main_exp,2022.2.2,MacIntel,59.94125757,,,,,,,,,,,,,,,,,,masks/mask_002.jpg,,,,,,,,,,,,,,,,,,,,,,,,,,,,,,,,,,,,,,,,,,,,,,,,0,0,0,1,1,,,,,,,,,,,,,,,,,,,,,,,,,,,,,,,,,,,,,,,,,
653141,001,2022-11-20_17h48.58.984,Info_measure_main_exp,2022.2.2,MacIntel,59.94125757,,,,,,,,,,,,,,,,,,masks/mask_001.jpg,,,,,,,,,,,,,,,,,,,,,,,,,,,,,,,,,,,,,,,,,,,,,,,,0,1,1,0,1,,,,,,,,,,,,,,,,,,,,,,,,,,,,,,,,,,,,,,,,,
653141,001,2022-11-20_17h48.58.984,Info_measure_main_exp,2022.2.2,MacIntel,59.94125757,,,,,,,,,,,,,,,,,,masks/mask_005.jpg,,,,,,,,,,,,,,,,,,,,,,,,,,,,,,,,,,,,,,,,,,,,,,,,0,2,2,4,1,,,,,,,,,,,,,,,,,,,,,,,,,,,,,,,,,,,,,,,,,
653141,001,2022-11-20_17h48.58.984,Info_measure_main_exp,2022.2.2,MacIntel,59.94125757,,,,,,,,,,,,,,,,,,masks/mask_004.jpg,,,,,,,,,,,,,,,,,,,,,,,,,,,,,,,,,,,,,,,,,,,,,,,,0,3,3,3,1,,,,,,,,,,,,,,,,,,,,,,,,,,,,,,,,,,,,,,,,,
653141,001,2022-11-20_17h48.58.984,Info_measure_main_exp,2022.2.2,MacIntel,59.94125757,,,,,,,,,,,,,,,,,,masks/mask_003.jpg,,,,,,,,,,,,,,,,,,,,,,,,,,,,,,,,,,,,,,,,,,,,,,,,0,4,4,2,1,,,,,,,,,,,,,,,,,,,,,,,,,,,,,,,,,,,,,,,,,
653141,001,2022-11-20_17h48.58.984,Info_measure_main_exp,2022.2.2,MacIntel,59.94125757,,,,,,,,,,,,,,,,,,,,,,,,,,,,,,2,3.5315,1,,,,,,,,,,,,0,131,5,5,2298,2190,absent_patch/patch0002298.jpg,absent_patch/patch0002190.jpg,,,,,,,,,,,,,,,,,,,,-0.104354745,-0.067433449,1,0,0,response5disk,3,-0.003530093,-0.00474537,1,0,0,center_square,0,2,2,20,1,,,,,,,,,,,,,,,,,,,,,,,
653141,001,2022-11-20_17h48.58.984,Info_measure_main_exp,2022.2.2,MacIntel,59.94125757,,,,,,,,,,,,,,,,,,masks/mask_003.jpg,,,,,,,,,,,,,,,,,,,,,,,,,,,,,,,,,,,,,,,,,,,0,0,0,2,1,,,,,,,,,,,,,,,,,,,,,,,,,,,,,,,,,,,,,,,,,,,,,,
653141,001,2022-11-20_17h48.58.984,Info_measure_main_exp,2022.2.2,MacIntel,59.94125757,,,,,,,,,,,,,,,,,,masks/mask_001.jpg,,,,,,,,,,,,,,,,,,,,,,,,,,,,,,,,,,,,,,,,,,,0,1,1,0,1,,,,,,,,,,,,,,,,,,,,,,,,,,,,,,,,,,,,,,,,,,,,,,
653141,001,2022-11-20_17h48.58.984,Info_measure_main_exp,2022.2.2,MacIntel,59.94125757,,,,,,,,,,,,,,,,,,masks/mask_004.jpg,,,,,,,,,,,,,,,,,,,,,,,,,,,,,,,,,,,,,,,,,,,0,2,2,3,1,,,,,,,,,,,,,,,,,,,,,,,,,,,,,,,,,,,,,,,,,,,,,,
653141,001,2022-11-20_17h48.58.984,Info_measure_main_exp,2022.2.2,MacIntel,59.94125757,,,,,,,,,,,,,,,,,,masks/mask_005.jpg,,,,,,,,,,,,,,,,,,,,,,,,,,,,,,,,,,,,,,,,,,,0,3,3,4,1,,,,,,,,,,,,,,,,,,,,,,,,,,,,,,,,,,,,,,,,,,,,,,
653141,001,2022-11-20_17h48.58.984,Info_measure_main_exp,2022.2.2,MacIntel,59.94125757,,,,,,,,,,,,,,,,,,masks/mask_002.jpg,,,,,,,,,,,,,,,,,,,,,,,,,,,,,,,,,,,,,,,,,,,0,4,4,1,1,,,,,,,,,,,,,,,,,,,,,,,,,,,,,,,,,,,,,,,,,,,,,,
653141,001,2022-11-20_17h48.58.984,Info_measure_main_exp,2022.2.2,MacIntel,59.94125757,,,,,,,,,,,,,,,,,,masks/mask_002.jpg,,,,,,,,,,,,,,,,,,,,,,,,,,,,,,,,,,,,,,,,,,,,,,,,0,0,0,1,1,,,,,,,,,,,,,,,,,,,,,,,,,,,,,,,,,,,,,,,,,
653141,001,2022-11-20_17h48.58.984,Info_measure_main_exp,2022.2.2,MacIntel,59.94125757,,,,,,,,,,,,,,,,,,masks/mask_004.jpg,,,,,,,,,,,,,,,,,,,,,,,,,,,,,,,,,,,,,,,,,,,,,,,,0,1,1,3,1,,,,,,,,,,,,,,,,,,,,,,,,,,,,,,,,,,,,,,,,,
653141,001,2022-11-20_17h48.58.984,Info_measure_main_exp,2022.2.2,MacIntel,59.94125757,,,,,,,,,,,,,,,,,,masks/mask_005.jpg,,,,,,,,,,,,,,,,,,,,,,,,,,,,,,,,,,,,,,,,,,,,,,,,0,2,2,4,1,,,,,,,,,,,,,,,,,,,,,,,,,,,,,,,,,,,,,,,,,
653141,001,2022-11-20_17h48.58.984,Info_measure_main_exp,2022.2.2,MacIntel,59.94125757,,,,,,,,,,,,,,,,,,masks/mask_001.jpg,,,,,,,,,,,,,,,,,,,,,,,,,,,,,,,,,,,,,,,,,,,,,,,,0,3,3,0,1,,,,,,,,,,,,,,,,,,,,,,,,,,,,,,,,,,,,,,,,,
653141,001,2022-11-20_17h48.58.984,Info_measure_main_exp,2022.2.2,MacIntel,59.94125757,,,,,,,,,,,,,,,,,,masks/mask_003.jpg,,,,,,,,,,,,,,,,,,,,,,,,,,,,,,,,,,,,,,,,,,,,,,,,0,4,4,2,1,,,,,,,,,,,,,,,,,,,,,,,,,,,,,,,,,,,,,,,,,
653141,001,2022-11-20_17h48.58.984,Info_measure_main_exp,2022.2.2,MacIntel,59.94125757,,,,,,,,,,,,,,,,,,,,,,,,,,,,,,2,1.4799,1,,,,,,,,,,,,0,131,5,5,2178,2142,absent_patch/patch0002178.jpg,absent_patch/patch0002142.jpg,,,,,,,,,,,,,,,,,,,,-0.12421875,-0.064919705,1,0,0,response5disk,4,-0.002470341,0.005428964,1,0,0,center_square,0,3,3,41,1,,,,,,,,,,,,,,,,,,,,,,,
653141,001,2022-11-20_17h48.58.984,Info_measure_main_exp,2022.2.2,MacIntel,59.94125757,,,,,,,,,,,,,,,,,,masks/mask_001.jpg,,,,,,,,,,,,,,,,,,,,,,,,,,,,,,,,,,,,,,,,,,,0,0,0,0,1,,,,,,,,,,,,,,,,,,,,,,,,,,,,,,,,,,,,,,,,,,,,,,
653141,001,2022-11-20_17h48.58.984,Info_measure_main_exp,2022.2.2,MacIntel,59.94125757,,,,,,,,,,,,,,,,,,masks/mask_005.jpg,,,,,,,,,,,,,,,,,,,,,,,,,,,,,,,,,,,,,,,,,,,0,1,1,4,1,,,,,,,,,,,,,,,,,,,,,,,,,,,,,,,,,,,,,,,,,,,,,,
653141,001,2022-11-20_17h48.58.984,Info_measure_main_exp,2022.2.2,MacIntel,59.94125757,,,,,,,,,,,,,,,,,,masks/mask_002.jpg,,,,,,,,,,,,,,,,,,,,,,,,,,,,,,,,,,,,,,,,,,,0,2,2,1,1,,,,,,,,,,,,,,,,,,,,,,,,,,,,,,,,,,,,,,,,,,,,,,
653141,001,2022-11-20_17h48.58.984,Info_measure_main_exp,2022.2.2,MacIntel,59.94125757,,,,,,,,,,,,,,,,,,masks/mask_004.jpg,,,,,,,,,,,,,,,,,,,,,,,,,,,,,,,,,,,,,,,,,,,0,3,3,3,1,,,,,,,,,,,,,,,,,,,,,,,,,,,,,,,,,,,,,,,,,,,,,,
653141,001,2022-11-20_17h48.58.984,Info_measure_main_exp,2022.2.2,MacIntel,59.94125757,,,,,,,,,,,,,,,,,,masks/mask_003.jpg,,,,,,,,,,,,,,,,,,,,,,,,,,,,,,,,,,,,,,,,,,,0,4,4,2,1,,,,,,,,,,,,,,,,,,,,,,,,,,,,,,,,,,,,,,,,,,,,,,
653141,001,2022-11-20_17h48.58.984,Info_measure_main_exp,2022.2.2,MacIntel,59.94125757,,,,,,,,,,,,,,,,,,masks/mask_004.jpg,,,,,,,,,,,,,,,,,,,,,,,,,,,,,,,,,,,,,,,,,,,,,,,,0,0,0,3,1,,,,,,,,,,,,,,,,,,,,,,,,,,,,,,,,,,,,,,,,,
653141,001,2022-11-20_17h48.58.984,Info_measure_main_exp,2022.2.2,MacIntel,59.94125757,,,,,,,,,,,,,,,,,,masks/mask_001.jpg,,,,,,,,,,,,,,,,,,,,,,,,,,,,,,,,,,,,,,,,,,,,,,,,0,1,1,0,1,,,,,,,,,,,,,,,,,,,,,,,,,,,,,,,,,,,,,,,,,
653141,001,2022-11-20_17h48.58.984,Info_measure_main_exp,2022.2.2,MacIntel,59.94125757,,,,,,,,,,,,,,,,,,masks/mask_002.jpg,,,,,,,,,,,,,,,,,,,,,,,,,,,,,,,,,,,,,,,,,,,,,,,,0,2,2,1,1,,,,,,,,,,,,,,,,,,,,,,,,,,,,,,,,,,,,,,,,,
653141,001,2022-11-20_17h48.58.984,Info_measure_main_exp,2022.2.2,MacIntel,59.94125757,,,,,,,,,,,,,,,,,,masks/mask_003.jpg,,,,,,,,,,,,,,,,,,,,,,,,,,,,,,,,,,,,,,,,,,,,,,,,0,3,3,2,1,,,,,,,,,,,,,,,,,,,,,,,,,,,,,,,,,,,,,,,,,
653141,001,2022-11-20_17h48.58.984,Info_measure_main_exp,2022.2.2,MacIntel,59.94125757,,,,,,,,,,,,,,,,,,masks/mask_005.jpg,,,,,,,,,,,,,,,,,,,,,,,,,,,,,,,,,,,,,,,,,,,,,,,,0,4,4,4,1,,,,,,,,,,,,,,,,,,,,,,,,,,,,,,,,,,,,,,,,,
653141,001,2022-11-20_17h48.58.984,Info_measure_main_exp,2022.2.2,MacIntel,59.94125757,,,,,,,,,,,,,,,,,,,,,,,,,,,,,,4,4.2531,1,,,,,,,,,,,,0,131,5,5,2250,1950,absent_patch/patch0002250.jpg,absent_patch/patch0001950.jpg,,,,,,,,,,,,,,,,,,,,0.028490307,-0.087735098,1,0,0,response3disk,5,0.003584346,-0.009613715,1,0,0,center_square,0,4,4,16,1,,,,,,,,,,,,,,,,,,,,,,,
653141,001,2022-11-20_17h48.58.984,Info_measure_main_exp,2022.2.2,MacIntel,59.94125757,,,,,,,,,,,,,,,,,,masks/mask_005.jpg,,,,,,,,,,,,,,,,,,,,,,,,,,,,,,,,,,,,,,,,,,,0,0,0,4,1,,,,,,,,,,,,,,,,,,,,,,,,,,,,,,,,,,,,,,,,,,,,,,
653141,001,2022-11-20_17h48.58.984,Info_measure_main_exp,2022.2.2,MacIntel,59.94125757,,,,,,,,,,,,,,,,,,masks/mask_001.jpg,,,,,,,,,,,,,,,,,,,,,,,,,,,,,,,,,,,,,,,,,,,0,1,1,0,1,,,,,,,,,,,,,,,,,,,,,,,,,,,,,,,,,,,,,,,,,,,,,,
653141,001,2022-11-20_17h48.58.984,Info_measure_main_exp,2022.2.2,MacIntel,59.94125757,,,,,,,,,,,,,,,,,,masks/mask_004.jpg,,,,,,,,,,,,,,,,,,,,,,,,,,,,,,,,,,,,,,,,,,,0,2,2,3,1,,,,,,,,,,,,,,,,,,,,,,,,,,,,,,,,,,,,,,,,,,,,,,
653141,001,2022-11-20_17h48.58.984,Info_measure_main_exp,2022.2.2,MacIntel,59.94125757,,,,,,,,,,,,,,,,,,masks/mask_002.jpg,,,,,,,,,,,,,,,,,,,,,,,,,,,,,,,,,,,,,,,,,,,0,3,3,1,1,,,,,,,,,,,,,,,,,,,,,,,,,,,,,,,,,,,,,,,,,,,,,,
653141,001,2022-11-20_17h48.58.984,Info_measure_main_exp,2022.2.2,MacIntel,59.94125757,,,,,,,,,,,,,,,,,,masks/mask_003.jpg,,,,,,,,,,,,,,,,,,,,,,,,,,,,,,,,,,,,,,,,,,,0,4,4,2,1,,,,,,,,,,,,,,,,,,,,,,,,,,,,,,,,,,,,,,,,,,,,,,
653141,001,2022-11-20_17h48.58.984,Info_measure_main_exp,2022.2.2,MacIntel,59.94125757,,,,,,,,,,,,,,,,,,masks/mask_002.jpg,,,,,,,,,,,,,,,,,,,,,,,,,,,,,,,,,,,,,,,,,,,,,,,,0,0,0,1,1,,,,,,,,,,,,,,,,,,,,,,,,,,,,,,,,,,,,,,,,,
653141,001,2022-11-20_17h48.58.984,Info_measure_main_exp,2022.2.2,MacIntel,59.94125757,,,,,,,,,,,,,,,,,,masks/mask_003.jpg,,,,,,,,,,,,,,,,,,,,,,,,,,,,,,,,,,,,,,,,,,,,,,,,0,1,1,2,1,,,,,,,,,,,,,,,,,,,,,,,,,,,,,,,,,,,,,,,,,
653141,001,2022-11-20_17h48.58.984,Info_measure_main_exp,2022.2.2,MacIntel,59.94125757,,,,,,,,,,,,,,,,,,masks/mask_004.jpg,,,,,,,,,,,,,,,,,,,,,,,,,,,,,,,,,,,,,,,,,,,,,,,,0,2,2,3,1,,,,,,,,,,,,,,,,,,,,,,,,,,,,,,,,,,,,,,,,,
653141,001,2022-11-20_17h48.58.984,Info_measure_main_exp,2022.2.2,MacIntel,59.94125757,,,,,,,,,,,,,,,,,,masks/mask_001.jpg,,,,,,,,,,,,,,,,,,,,,,,,,,,,,,,,,,,,,,,,,,,,,,,,0,3,3,0,1,,,,,,,,,,,,,,,,,,,,,,,,,,,,,,,,,,,,,,,,,
653141,001,2022-11-20_17h48.58.984,Info_measure_main_exp,2022.2.2,MacIntel,59.94125757,,,,,,,,,,,,,,,,,,masks/mask_005.jpg,,,,,,,,,,,,,,,,,,,,,,,,,,,,,,,,,,,,,,,,,,,,,,,,0,4,4,4,1,,,,,,,,,,,,,,,,,,,,,,,,,,,,,,,,,,,,,,,,,
653141,001,2022-11-20_17h48.58.984,Info_measure_main_exp,2022.2.2,MacIntel,59.94125757,,,,,,,,,,,,,,,,,,,,,,,,,,,,,,0,0.951,1,,,,,,,,,,,,0,131,5,5,1986,1986,absent_patch/patch0001986.jpg,absent_patch/patch0001986.jpg,,,,,,,,,,,,,,,,,,,,-0.072413918,0.161559606,1,0,0,response7disk,6,-0.004054543,-0.007146991,1,0,0,center_square,0,5,5,19,1,,,,,,,,,,,,,,,,,,,,,,,
653141,001,2022-11-20_17h48.58.984,Info_measure_main_exp,2022.2.2,MacIntel,59.94125757,,,,,,,,,,,,,,,,,,masks/mask_005.jpg,,,,,,,,,,,,,,,,,,,,,,,,,,,,,,,,,,,,,,,,,,,0,0,0,4,1,,,,,,,,,,,,,,,,,,,,,,,,,,,,,,,,,,,,,,,,,,,,,,
653141,001,2022-11-20_17h48.58.984,Info_measure_main_exp,2022.2.2,MacIntel,59.94125757,,,,,,,,,,,,,,,,,,masks/mask_001.jpg,,,,,,,,,,,,,,,,,,,,,,,,,,,,,,,,,,,,,,,,,,,0,1,1,0,1,,,,,,,,,,,,,,,,,,,,,,,,,,,,,,,,,,,,,,,,,,,,,,
653141,001,2022-11-20_17h48.58.984,Info_measure_main_exp,2022.2.2,MacIntel,59.94125757,,,,,,,,,,,,,,,,,,masks/mask_003.jpg,,,,,,,,,,,,,,,,,,,,,,,,,,,,,,,,,,,,,,,,,,,0,2,2,2,1,,,,,,,,,,,,,,,,,,,,,,,,,,,,,,,,,,,,,,,,,,,,,,
653141,001,2022-11-20_17h48.58.984,Info_measure_main_exp,2022.2.2,MacIntel,59.94125757,,,,,,,,,,,,,,,,,,masks/mask_004.jpg,,,,,,,,,,,,,,,,,,,,,,,,,,,,,,,,,,,,,,,,,,,0,3,3,3,1,,,,,,,,,,,,,,,,,,,,,,,,,,,,,,,,,,,,,,,,,,,,,,
653141,001,2022-11-20_17h48.58.984,Info_measure_main_exp,2022.2.2,MacIntel,59.94125757,,,,,,,,,,,,,,,,,,masks/mask_002.jpg,,,,,,,,,,,,,,,,,,,,,,,,,,,,,,,,,,,,,,,,,,,0,4,4,1,1,,,,,,,,,,,,,,,,,,,,,,,,,,,,,,,,,,,,,,,,,,,,,,
653141,001,2022-11-20_17h48.58.984,Info_measure_main_exp,2022.2.2,MacIntel,59.94125757,,,,,,,,,,,,,,,,,,masks/mask_003.jpg,,,,,,,,,,,,,,,,,,,,,,,,,,,,,,,,,,,,,,,,,,,,,,,,0,0,0,2,1,,,,,,,,,,,,,,,,,,,,,,,,,,,,,,,,,,,,,,,,,
653141,001,2022-11-20_17h48.58.984,Info_measure_main_exp,2022.2.2,MacIntel,59.94125757,,,,,,,,,,,,,,,,,,masks/mask_002.jpg,,,,,,,,,,,,,,,,,,,,,,,,,,,,,,,,,,,,,,,,,,,,,,,,0,1,1,1,1,,,,,,,,,,,,,,,,,,,,,,,,,,,,,,,,,,,,,,,,,
653141,001,2022-11-20_17h48.58.984,Info_measure_main_exp,2022.2.2,MacIntel,59.94125757,,,,,,,,,,,,,,,,,,masks/mask_001.jpg,,,,,,,,,,,,,,,,,,,,,,,,,,,,,,,,,,,,,,,,,,,,,,,,0,2,2,0,1,,,,,,,,,,,,,,,,,,,,,,,,,,,,,,,,,,,,,,,,,
653141,001,2022-11-20_17h48.58.984,Info_measure_main_exp,2022.2.2,MacIntel,59.94125757,,,,,,,,,,,,,,,,,,masks/mask_004.jpg,,,,,,,,,,,,,,,,,,,,,,,,,,,,,,,,,,,,,,,,,,,,,,,,0,3,3,3,1,,,,,,,,,,,,,,,,,,,,,,,,,,,,,,,,,,,,,,,,,
653141,001,2022-11-20_17h48.58.984,Info_measure_main_exp,2022.2.2,MacIntel,59.94125757,,,,,,,,,,,,,,,,,,masks/mask_005.jpg,,,,,,,,,,,,,,,,,,,,,,,,,,,,,,,,,,,,,,,,,,,,,,,,0,4,4,4,1,,,,,,,,,,,,,,,,,,,,,,,,,,,,,,,,,,,,,,,,,
653141,001,2022-11-20_17h48.58.984,Info_measure_main_exp,2022.2.2,MacIntel,59.94125757,,,,,,,,,,,,,,,,,,,,,,,,,,,,,,6,5.1882,1,,,,,,,,,,,,0,131,5,5,2190,2238,absent_patch/patch0002190.jpg,absent_patch/patch0002238.jpg,,,,,,,,,,,,,,,,,,,,0.10827908,0.076110388,1,0,0,response1disk,7,0.006322338,-0.003298611,1,0,0,center_square,0,6,6,53,1,,,,,,,,,,,,,,,,,,,,,,,
653141,001,2022-11-20_17h48.58.984,Info_measure_main_exp,2022.2.2,MacIntel,59.94125757,,,,,,,,,,,,,,,,,,masks/mask_003.jpg,,,,,,,,,,,,,,,,,,,,,,,,,,,,,,,,,,,,,,,,,,,0,0,0,2,1,,,,,,,,,,,,,,,,,,,,,,,,,,,,,,,,,,,,,,,,,,,,,,
653141,001,2022-11-20_17h48.58.984,Info_measure_main_exp,2022.2.2,MacIntel,59.94125757,,,,,,,,,,,,,,,,,,masks/mask_004.jpg,,,,,,,,,,,,,,,,,,,,,,,,,,,,,,,,,,,,,,,,,,,0,1,1,3,1,,,,,,,,,,,,,,,,,,,,,,,,,,,,,,,,,,,,,,,,,,,,,,
653141,001,2022-11-20_17h48.58.984,Info_measure_main_exp,2022.2.2,MacIntel,59.94125757,,,,,,,,,,,,,,,,,,masks/mask_001.jpg,,,,,,,,,,,,,,,,,,,,,,,,,,,,,,,,,,,,,,,,,,,0,2,2,0,1,,,,,,,,,,,,,,,,,,,,,,,,,,,,,,,,,,,,,,,,,,,,,,
653141,001,2022-11-20_17h48.58.984,Info_measure_main_exp,2022.2.2,MacIntel,59.94125757,,,,,,,,,,,,,,,,,,masks/mask_005.jpg,,,,,,,,,,,,,,,,,,,,,,,,,,,,,,,,,,,,,,,,,,,0,3,3,4,1,,,,,,,,,,,,,,,,,,,,,,,,,,,,,,,,,,,,,,,,,,,,,,
653141,001,2022-11-20_17h48.58.984,Info_measure_main_exp,2022.2.2,MacIntel,59.94125757,,,,,,,,,,,,,,,,,,masks/mask_002.jpg,,,,,,,,,,,,,,,,,,,,,,,,,,,,,,,,,,,,,,,,,,,0,4,4,1,1,,,,,,,,,,,,,,,,,,,,,,,,,,,,,,,,,,,,,,,,,,,,,,
653141,001,2022-11-20_17h48.58.984,Info_measure_main_exp,2022.2.2,MacIntel,59.94125757,,,,,,,,,,,,,,,,,,masks/mask_005.jpg,,,,,,,,,,,,,,,,,,,,,,,,,,,,,,,,,,,,,,,,,,,,,,,,0,0,0,4,1,,,,,,,,,,,,,,,,,,,,,,,,,,,,,,,,,,,,,,,,,
653141,001,2022-11-20_17h48.58.984,Info_measure_main_exp,2022.2.2,MacIntel,59.94125757,,,,,,,,,,,,,,,,,,masks/mask_002.jpg,,,,,,,,,,,,,,,,,,,,,,,,,,,,,,,,,,,,,,,,,,,,,,,,0,1,1,1,1,,,,,,,,,,,,,,,,,,,,,,,,,,,,,,,,,,,,,,,,,
653141,001,2022-11-20_17h48.58.984,Info_measure_main_exp,2022.2.2,MacIntel,59.94125757,,,,,,,,,,,,,,,,,,masks/mask_003.jpg,,,,,,,,,,,,,,,,,,,,,,,,,,,,,,,,,,,,,,,,,,,,,,,,0,2,2,2,1,,,,,,,,,,,,,,,,,,,,,,,,,,,,,,,,,,,,,,,,,
653141,001,2022-11-20_17h48.58.984,Info_measure_main_exp,2022.2.2,MacIntel,59.94125757,,,,,,,,,,,,,,,,,,masks/mask_004.jpg,,,,,,,,,,,,,,,,,,,,,,,,,,,,,,,,,,,,,,,,,,,,,,,,0,3,3,3,1,,,,,,,,,,,,,,,,,,,,,,,,,,,,,,,,,,,,,,,,,
653141,001,2022-11-20_17h48.58.984,Info_measure_main_exp,2022.2.2,MacIntel,59.94125757,,,,,,,,,,,,,,,,,,masks/mask_001.jpg,,,,,,,,,,,,,,,,,,,,,,,,,,,,,,,,,,,,,,,,,,,,,,,,0,4,4,0,1,,,,,,,,,,,,,,,,,,,,,,,,,,,,,,,,,,,,,,,,,
653141,001,2022-11-20_17h48.58.984,Info_measure_main_exp,2022.2.2,MacIntel,59.94125757,,,,,,,,,,,,,,,,,,,,,,,,,,,,,,7,1.3356,1,,,,,,,,,,,,0,131,5,5,2142,2166,absent_patch/patch0002142.jpg,absent_patch/patch0002166.jpg,,,,,,,,,,,,,,,,,,,,0.05405816,0.14296875,1,0,0,response1disk,8,-0.008839699,-0.010007957,1,0,0,center_square,0,7,7,66,1,,,,,,,,,,,,,,,,,,,,,,,
653141,001,2022-11-20_17h48.58.984,Info_measure_main_exp,2022.2.2,MacIntel,59.94125757,,,,,,,,,,,,,,,,,,masks/mask_001.jpg,,,,,,,,,,,,,,,,,,,,,,,,,,,,,,,,,,,,,,,,,,,0,0,0,0,1,,,,,,,,,,,,,,,,,,,,,,,,,,,,,,,,,,,,,,,,,,,,,,
653141,001,2022-11-20_17h48.58.984,Info_measure_main_exp,2022.2.2,MacIntel,59.94125757,,,,,,,,,,,,,,,,,,masks/mask_003.jpg,,,,,,,,,,,,,,,,,,,,,,,,,,,,,,,,,,,,,,,,,,,0,1,1,2,1,,,,,,,,,,,,,,,,,,,,,,,,,,,,,,,,,,,,,,,,,,,,,,
653141,001,2022-11-20_17h48.58.984,Info_measure_main_exp,2022.2.2,MacIntel,59.94125757,,,,,,,,,,,,,,,,,,masks/mask_004.jpg,,,,,,,,,,,,,,,,,,,,,,,,,,,,,,,,,,,,,,,,,,,0,2,2,3,1,,,,,,,,,,,,,,,,,,,,,,,,,,,,,,,,,,,,,,,,,,,,,,
653141,001,2022-11-20_17h48.58.984,Info_measure_main_exp,2022.2.2,MacIntel,59.94125757,,,,,,,,,,,,,,,,,,masks/mask_005.jpg,,,,,,,,,,,,,,,,,,,,,,,,,,,,,,,,,,,,,,,,,,,0,3,3,4,1,,,,,,,,,,,,,,,,,,,,,,,,,,,,,,,,,,,,,,,,,,,,,,
653141,001,2022-11-20_17h48.58.984,Info_measure_main_exp,2022.2.2,MacIntel,59.94125757,,,,,,,,,,,,,,,,,,masks/mask_002.jpg,,,,,,,,,,,,,,,,,,,,,,,,,,,,,,,,,,,,,,,,,,,0,4,4,1,1,,,,,,,,,,,,,,,,,,,,,,,,,,,,,,,,,,,,,,,,,,,,,,
653141,001,2022-11-20_17h48.58.984,Info_measure_main_exp,2022.2.2,MacIntel,59.94125757,,,,,,,,,,,,,,,,,,masks/mask_003.jpg,,,,,,,,,,,,,,,,,,,,,,,,,,,,,,,,,,,,,,,,,,,,,,,,0,0,0,2,1,,,,,,,,,,,,,,,,,,,,,,,,,,,,,,,,,,,,,,,,,
653141,001,2022-11-20_17h48.58.984,Info_measure_main_exp,2022.2.2,MacIntel,59.94125757,,,,,,,,,,,,,,,,,,masks/mask_001.jpg,,,,,,,,,,,,,,,,,,,,,,,,,,,,,,,,,,,,,,,,,,,,,,,,0,1,1,0,1,,,,,,,,,,,,,,,,,,,,,,,,,,,,,,,,,,,,,,,,,
653141,001,2022-11-20_17h48.58.984,Info_measure_main_exp,2022.2.2,MacIntel,59.94125757,,,,,,,,,,,,,,,,,,masks/mask_004.jpg,,,,,,,,,,,,,,,,,,,,,,,,,,,,,,,,,,,,,,,,,,,,,,,,0,2,2,3,1,,,,,,,,,,,,,,,,,,,,,,,,,,,,,,,,,,,,,,,,,
653141,001,2022-11-20_17h48.58.984,Info_measure_main_exp,2022.2.2,MacIntel,59.94125757,,,,,,,,,,,,,,,,,,masks/mask_005.jpg,,,,,,,,,,,,,,,,,,,,,,,,,,,,,,,,,,,,,,,,,,,,,,,,0,3,3,4,1,,,,,,,,,,,,,,,,,,,,,,,,,,,,,,,,,,,,,,,,,
653141,001,2022-11-20_17h48.58.984,Info_measure_main_exp,2022.2.2,MacIntel,59.94125757,,,,,,,,,,,,,,,,,,masks/mask_002.jpg,,,,,,,,,,,,,,,,,,,,,,,,,,,,,,,,,,,,,,,,,,,,,,,,0,4,4,1,1,,,,,,,,,,,,,,,,,,,,,,,,,,,,,,,,,,,,,,,,,
653141,001,2022-11-20_17h48.58.984,Info_measure_main_exp,2022.2.2,MacIntel,59.94125757,,,,,,,,,,,,,,,,,,,,,,,,,,,,,,3,1.9868,1,,,,,,,,,,,,0,131,5,5,2274,2166,absent_patch/patch0002274.jpg,absent_patch/patch0002166.jpg,,,,,,,,,,,,,,,,,,,,-0.020688657,-0.1471318,1,0,0,response5disk,9,0.005595341,0.001956742,1,0,0,center_square,0,8,8,78,1,,,,,,,,,,,,,,,,,,,,,,,
653141,001,2022-11-20_17h48.58.984,Info_measure_main_exp,2022.2.2,MacIntel,59.94125757,,,,,,,,,,,,,,,,,,masks/mask_002.jpg,,,,,,,,,,,,,,,,,,,,,,,,,,,,,,,,,,,,,,,,,,,0,0,0,1,1,,,,,,,,,,,,,,,,,,,,,,,,,,,,,,,,,,,,,,,,,,,,,,
653141,001,2022-11-20_17h48.58.984,Info_measure_main_exp,2022.2.2,MacIntel,59.94125757,,,,,,,,,,,,,,,,,,masks/mask_004.jpg,,,,,,,,,,,,,,,,,,,,,,,,,,,,,,,,,,,,,,,,,,,0,1,1,3,1,,,,,,,,,,,,,,,,,,,,,,,,,,,,,,,,,,,,,,,,,,,,,,
653141,001,2022-11-20_17h48.58.984,Info_measure_main_exp,2022.2.2,MacIntel,59.94125757,,,,,,,,,,,,,,,,,,masks/mask_005.jpg,,,,,,,,,,,,,,,,,,,,,,,,,,,,,,,,,,,,,,,,,,,0,2,2,4,1,,,,,,,,,,,,,,,,,,,,,,,,,,,,,,,,,,,,,,,,,,,,,,
653141,001,2022-11-20_17h48.58.984,Info_measure_main_exp,2022.2.2,MacIntel,59.94125757,,,,,,,,,,,,,,,,,,masks/mask_001.jpg,,,,,,,,,,,,,,,,,,,,,,,,,,,,,,,,,,,,,,,,,,,0,3,3,0,1,,,,,,,,,,,,,,,,,,,,,,,,,,,,,,,,,,,,,,,,,,,,,,
653141,001,2022-11-20_17h48.58.984,Info_measure_main_exp,2022.2.2,MacIntel,59.94125757,,,,,,,,,,,,,,,,,,masks/mask_003.jpg,,,,,,,,,,,,,,,,,,,,,,,,,,,,,,,,,,,,,,,,,,,0,4,4,2,1,,,,,,,,,,,,,,,,,,,,,,,,,,,,,,,,,,,,,,,,,,,,,,
653141,001,2022-11-20_17h48.58.984,Info_measure_main_exp,2022.2.2,MacIntel,59.94125757,,,,,,,,,,,,,,,,,,masks/mask_004.jpg,,,,,,,,,,,,,,,,,,,,,,,,,,,,,,,,,,,,,,,,,,,,,,,,0,0,0,3,1,,,,,,,,,,,,,,,,,,,,,,,,,,,,,,,,,,,,,,,,,
653141,001,2022-11-20_17h48.58.984,Info_measure_main_exp,2022.2.2,MacIntel,59.94125757,,,,,,,,,,,,,,,,,,masks/mask_005.jpg,,,,,,,,,,,,,,,,,,,,,,,,,,,,,,,,,,,,,,,,,,,,,,,,0,1,1,4,1,,,,,,,,,,,,,,,,,,,,,,,,,,,,,,,,,,,,,,,,,
653141,001,2022-11-20_17h48.58.984,Info_measure_main_exp,2022.2.2,MacIntel,59.94125757,,,,,,,,,,,,,,,,,,masks/mask_002.jpg,,,,,,,,,,,,,,,,,,,,,,,,,,,,,,,,,,,,,,,,,,,,,,,,0,2,2,1,1,,,,,,,,,,,,,,,,,,,,,,,,,,,,,,,,,,,,,,,,,
653141,001,2022-11-20_17h48.58.984,Info_measure_main_exp,2022.2.2,MacIntel,59.94125757,,,,,,,,,,,,,,,,,,masks/mask_001.jpg,,,,,,,,,,,,,,,,,,,,,,,,,,,,,,,,,,,,,,,,,,,,,,,,0,3,3,0,1,,,,,,,,,,,,,,,,,,,,,,,,,,,,,,,,,,,,,,,,,
653141,001,2022-11-20_17h48.58.984,Info_measure_main_exp,2022.2.2,MacIntel,59.94125757,,,,,,,,,,,,,,,,,,masks/mask_003.jpg,,,,,,,,,,,,,,,,,,,,,,,,,,,,,,,,,,,,,,,,,,,,,,,,0,4,4,2,1,,,,,,,,,,,,,,,,,,,,,,,,,,,,,,,,,,,,,,,,,
653141,001,2022-11-20_17h48.58.984,Info_measure_main_exp,2022.2.2,MacIntel,59.94125757,,,,,,,,,,,,,,,,,,,,,,,,,,,,,,7,1.7642,1,,,,,,,,,,,,0,131,5,5,2274,2142,absent_patch/patch0002274.jpg,absent_patch/patch0002142.jpg,,,,,,,,,,,,,,,,,,,,0.090516493,0.105295139,1,0,0,response1disk,10,0.001092303,-0.009678819,1,0,0,center_square,0,9,9,75,1,,,,,,,,,,,,,,,,,,,,,,,
653141,001,2022-11-20_17h48.58.984,Info_measure_main_exp,2022.2.2,MacIntel,59.94125757,,,,,,,,,,,,,,,,,,masks/mask_001.jpg,,,,,,,,,,,,,,,,,,,,,,,,,,,,,,,,,,,,,,,,,,,0,0,0,0,1,,,,,,,,,,,,,,,,,,,,,,,,,,,,,,,,,,,,,,,,,,,,,,
653141,001,2022-11-20_17h48.58.984,Info_measure_main_exp,2022.2.2,MacIntel,59.94125757,,,,,,,,,,,,,,,,,,masks/mask_005.jpg,,,,,,,,,,,,,,,,,,,,,,,,,,,,,,,,,,,,,,,,,,,0,1,1,4,1,,,,,,,,,,,,,,,,,,,,,,,,,,,,,,,,,,,,,,,,,,,,,,
653141,001,2022-11-20_17h48.58.984,Info_measure_main_exp,2022.2.2,MacIntel,59.94125757,,,,,,,,,,,,,,,,,,masks/mask_003.jpg,,,,,,,,,,,,,,,,,,,,,,,,,,,,,,,,,,,,,,,,,,,0,2,2,2,1,,,,,,,,,,,,,,,,,,,,,,,,,,,,,,,,,,,,,,,,,,,,,,
653141,001,2022-11-20_17h48.58.984,Info_measure_main_exp,2022.2.2,MacIntel,59.94125757,,,,,,,,,,,,,,,,,,masks/mask_002.jpg,,,,,,,,,,,,,,,,,,,,,,,,,,,,,,,,,,,,,,,,,,,0,3,3,1,1,,,,,,,,,,,,,,,,,,,,,,,,,,,,,,,,,,,,,,,,,,,,,,
653141,001,2022-11-20_17h48.58.984,Info_measure_main_exp,2022.2.2,MacIntel,59.94125757,,,,,,,,,,,,,,,,,,masks/mask_004.jpg,,,,,,,,,,,,,,,,,,,,,,,,,,,,,,,,,,,,,,,,,,,0,4,4,3,1,,,,,,,,,,,,,,,,,,,,,,,,,,,,,,,,,,,,,,,,,,,,,,
653141,001,2022-11-20_17h48.58.984,Info_measure_main_exp,2022.2.2,MacIntel,59.94125757,,,,,,,,,,,,,,,,,,masks/mask_002.jpg,,,,,,,,,,,,,,,,,,,,,,,,,,,,,,,,,,,,,,,,,,,,,,,,0,0,0,1,1,,,,,,,,,,,,,,,,,,,,,,,,,,,,,,,,,,,,,,,,,
653141,001,2022-11-20_17h48.58.984,Info_measure_main_exp,2022.2.2,MacIntel,59.94125757,,,,,,,,,,,,,,,,,,masks/mask_005.jpg,,,,,,,,,,,,,,,,,,,,,,,,,,,,,,,,,,,,,,,,,,,,,,,,0,1,1,4,1,,,,,,,,,,,,,,,,,,,,,,,,,,,,,,,,,,,,,,,,,
653141,001,2022-11-20_17h48.58.984,Info_measure_main_exp,2022.2.2,MacIntel,59.94125757,,,,,,,,,,,,,,,,,,masks/mask_003.jpg,,,,,,,,,,,,,,,,,,,,,,,,,,,,,,,,,,,,,,,,,,,,,,,,0,2,2,2,1,,,,,,,,,,,,,,,,,,,,,,,,,,,,,,,,,,,,,,,,,
653141,001,2022-11-20_17h48.58.984,Info_measure_main_exp,2022.2.2,MacIntel,59.94125757,,,,,,,,,,,,,,,,,,masks/mask_004.jpg,,,,,,,,,,,,,,,,,,,,,,,,,,,,,,,,,,,,,,,,,,,,,,,,0,3,3,3,1,,,,,,,,,,,,,,,,,,,,,,,,,,,,,,,,,,,,,,,,,
653141,001,2022-11-20_17h48.58.984,Info_measure_main_exp,2022.2.2,MacIntel,59.94125757,,,,,,,,,,,,,,,,,,masks/mask_001.jpg,,,,,,,,,,,,,,,,,,,,,,,,,,,,,,,,,,,,,,,,,,,,,,,,0,4,4,0,1,,,,,,,,,,,,,,,,,,,,,,,,,,,,,,,,,,,,,,,,,
653141,001,2022-11-20_17h48.58.984,Info_measure_main_exp,2022.2.2,MacIntel,59.94125757,,,,,,,,,,,,,,,,,,,,,,,,,,,,,,3,2.1853,1,,,,,,,,,,,,0,131,5,5,1986,2274,absent_patch/patch0001986.jpg,absent_patch/patch0002274.jpg,,,,,,,,,,,,,,,,,,,,-0.058789063,-0.117173032,1,0,0,response5disk,11,0.001786748,0.008517795,1,0,0,center_square,0,10,10,7,1,,,,,,,,,,,,,,,,,,,,,,,
653141,001,2022-11-20_17h48.58.984,Info_measure_main_exp,2022.2.2,MacIntel,59.94125757,,,,,,,,,,,,,,,,,,masks/mask_004.jpg,,,,,,,,,,,,,,,,,,,,,,,,,,,,,,,,,,,,,,,,,,,0,0,0,3,1,,,,,,,,,,,,,,,,,,,,,,,,,,,,,,,,,,,,,,,,,,,,,,
653141,001,2022-11-20_17h48.58.984,Info_measure_main_exp,2022.2.2,MacIntel,59.94125757,,,,,,,,,,,,,,,,,,masks/mask_005.jpg,,,,,,,,,,,,,,,,,,,,,,,,,,,,,,,,,,,,,,,,,,,0,1,1,4,1,,,,,,,,,,,,,,,,,,,,,,,,,,,,,,,,,,,,,,,,,,,,,,
653141,001,2022-11-20_17h48.58.984,Info_measure_main_exp,2022.2.2,MacIntel,59.94125757,,,,,,,,,,,,,,,,,,masks/mask_002.jpg,,,,,,,,,,,,,,,,,,,,,,,,,,,,,,,,,,,,,,,,,,,0,2,2,1,1,,,,,,,,,,,,,,,,,,,,,,,,,,,,,,,,,,,,,,,,,,,,,,
653141,001,2022-11-20_17h48.58.984,Info_measure_main_exp,2022.2.2,MacIntel,59.94125757,,,,,,,,,,,,,,,,,,masks/mask_003.jpg,,,,,,,,,,,,,,,,,,,,,,,,,,,,,,,,,,,,,,,,,,,0,3,3,2,1,,,,,,,,,,,,,,,,,,,,,,,,,,,,,,,,,,,,,,,,,,,,,,
653141,001,2022-11-20_17h48.58.984,Info_measure_main_exp,2022.2.2,MacIntel,59.94125757,,,,,,,,,,,,,,,,,,masks/mask_001.jpg,,,,,,,,,,,,,,,,,,,,,,,,,,,,,,,,,,,,,,,,,,,0,4,4,0,1,,,,,,,,,,,,,,,,,,,,,,,,,,,,,,,,,,,,,,,,,,,,,,
653141,001,2022-11-20_17h48.58.984,Info_measure_main_exp,2022.2.2,MacIntel,59.94125757,,,,,,,,,,,,,,,,,,masks/mask_004.jpg,,,,,,,,,,,,,,,,,,,,,,,,,,,,,,,,,,,,,,,,,,,,,,,,0,0,0,3,1,,,,,,,,,,,,,,,,,,,,,,,,,,,,,,,,,,,,,,,,,
653141,001,2022-11-20_17h48.58.984,Info_measure_main_exp,2022.2.2,MacIntel,59.94125757,,,,,,,,,,,,,,,,,,masks/mask_003.jpg,,,,,,,,,,,,,,,,,,,,,,,,,,,,,,,,,,,,,,,,,,,,,,,,0,1,1,2,1,,,,,,,,,,,,,,,,,,,,,,,,,,,,,,,,,,,,,,,,,
653141,001,2022-11-20_17h48.58.984,Info_measure_main_exp,2022.2.2,MacIntel,59.94125757,,,,,,,,,,,,,,,,,,masks/mask_005.jpg,,,,,,,,,,,,,,,,,,,,,,,,,,,,,,,,,,,,,,,,,,,,,,,,0,2,2,4,1,,,,,,,,,,,,,,,,,,,,,,,,,,,,,,,,,,,,,,,,,
653141,001,2022-11-20_17h48.58.984,Info_measure_main_exp,2022.2.2,MacIntel,59.94125757,,,,,,,,,,,,,,,,,,masks/mask_002.jpg,,,,,,,,,,,,,,,,,,,,,,,,,,,,,,,,,,,,,,,,,,,,,,,,0,3,3,1,1,,,,,,,,,,,,,,,,,,,,,,,,,,,,,,,,,,,,,,,,,
653141,001,2022-11-20_17h48.58.984,Info_measure_main_exp,2022.2.2,MacIntel,59.94125757,,,,,,,,,,,,,,,,,,masks/mask_001.jpg,,,,,,,,,,,,,,,,,,,,,,,,,,,,,,,,,,,,,,,,,,,,,,,,0,4,4,0,1,,,,,,,,,,,,,,,,,,,,,,,,,,,,,,,,,,,,,,,,,
653141,001,2022-11-20_17h48.58.984,Info_measure_main_exp,2022.2.2,MacIntel,59.94125757,,,,,,,,,,,,,,,,,,,,,,,,,,,,,,7,0.7162,1,,,,,,,,,,,,0,131,5,5,2274,1974,absent_patch/patch0002274.jpg,absent_patch/patch0001974.jpg,,,,,,,,,,,,,,,,,,,,0.054289641,0.101812066,1,0,0,response1disk,12,0.006159578,0.006076389,1,0,0,center_square,0,11,11,90,1,,,,,,,,,,,,,,,,,,,,,,,
653141,001,2022-11-20_17h48.58.984,Info_measure_main_exp,2022.2.2,MacIntel,59.94125757,,,,,,,,,,,,,,,,,,masks/mask_001.jpg,,,,,,,,,,,,,,,,,,,,,,,,,,,,,,,,,,,,,,,,,,,0,0,0,0,1,,,,,,,,,,,,,,,,,,,,,,,,,,,,,,,,,,,,,,,,,,,,,,
653141,001,2022-11-20_17h48.58.984,Info_measure_main_exp,2022.2.2,MacIntel,59.94125757,,,,,,,,,,,,,,,,,,masks/mask_003.jpg,,,,,,,,,,,,,,,,,,,,,,,,,,,,,,,,,,,,,,,,,,,0,1,1,2,1,,,,,,,,,,,,,,,,,,,,,,,,,,,,,,,,,,,,,,,,,,,,,,
653141,001,2022-11-20_17h48.58.984,Info_measure_main_exp,2022.2.2,MacIntel,59.94125757,,,,,,,,,,,,,,,,,,masks/mask_005.jpg,,,,,,,,,,,,,,,,,,,,,,,,,,,,,,,,,,,,,,,,,,,0,2,2,4,1,,,,,,,,,,,,,,,,,,,,,,,,,,,,,,,,,,,,,,,,,,,,,,
653141,001,2022-11-20_17h48.58.984,Info_measure_main_exp,2022.2.2,MacIntel,59.94125757,,,,,,,,,,,,,,,,,,masks/mask_002.jpg,,,,,,,,,,,,,,,,,,,,,,,,,,,,,,,,,,,,,,,,,,,0,3,3,1,1,,,,,,,,,,,,,,,,,,,,,,,,,,,,,,,,,,,,,,,,,,,,,,
653141,001,2022-11-20_17h48.58.984,Info_measure_main_exp,2022.2.2,MacIntel,59.94125757,,,,,,,,,,,,,,,,,,masks/mask_004.jpg,,,,,,,,,,,,,,,,,,,,,,,,,,,,,,,,,,,,,,,,,,,0,4,4,3,1,,,,,,,,,,,,,,,,,,,,,,,,,,,,,,,,,,,,,,,,,,,,,,
653141,001,2022-11-20_17h48.58.984,Info_measure_main_exp,2022.2.2,MacIntel,59.94125757,,,,,,,,,,,,,,,,,,masks/mask_003.jpg,,,,,,,,,,,,,,,,,,,,,,,,,,,,,,,,,,,,,,,,,,,,,,,,0,0,0,2,1,,,,,,,,,,,,,,,,,,,,,,,,,,,,,,,,,,,,,,,,,
653141,001,2022-11-20_17h48.58.984,Info_measure_main_exp,2022.2.2,MacIntel,59.94125757,,,,,,,,,,,,,,,,,,masks/mask_004.jpg,,,,,,,,,,,,,,,,,,,,,,,,,,,,,,,,,,,,,,,,,,,,,,,,0,1,1,3,1,,,,,,,,,,,,,,,,,,,,,,,,,,,,,,,,,,,,,,,,,
653141,001,2022-11-20_17h48.58.984,Info_measure_main_exp,2022.2.2,MacIntel,59.94125757,,,,,,,,,,,,,,,,,,masks/mask_005.jpg,,,,,,,,,,,,,,,,,,,,,,,,,,,,,,,,,,,,,,,,,,,,,,,,0,2,2,4,1,,,,,,,,,,,,,,,,,,,,,,,,,,,,,,,,,,,,,,,,,
653141,001,2022-11-20_17h48.58.984,Info_measure_main_exp,2022.2.2,MacIntel,59.94125757,,,,,,,,,,,,,,,,,,masks/mask_001.jpg,,,,,,,,,,,,,,,,,,,,,,,,,,,,,,,,,,,,,,,,,,,,,,,,0,3,3,0,1,,,,,,,,,,,,,,,,,,,,,,,,,,,,,,,,,,,,,,,,,
653141,001,2022-11-20_17h48.58.984,Info_measure_main_exp,2022.2.2,MacIntel,59.94125757,,,,,,,,,,,,,,,,,,masks/mask_002.jpg,,,,,,,,,,,,,,,,,,,,,,,,,,,,,,,,,,,,,,,,,,,,,,,,0,4,4,1,1,,,,,,,,,,,,,,,,,,,,,,,,,,,,,,,,,,,,,,,,,
653141,001,2022-11-20_17h48.58.984,Info_measure_main_exp,2022.2.2,MacIntel,59.94125757,,,,,,,,,,,,,,,,,,,,,,,,,,,,,,3,2.8205,1,,,,,,,,,,,,0,131,5,5,1974,2178,absent_patch/patch0001974.jpg,absent_patch/patch0002178.jpg,,,,,,,,,,,,,,,,,,,,-0.071477141,-0.146104601,1,0,0,response5disk,13,-0.003251591,0.006054688,1,0,0,center_square,0,12,12,44,1,,,,,,,,,,,,,,,,,,,,,,,
653141,001,2022-11-20_17h48.58.984,Info_measure_main_exp,2022.2.2,MacIntel,59.94125757,,,,,,,,,,,,,,,,,,masks/mask_005.jpg,,,,,,,,,,,,,,,,,,,,,,,,,,,,,,,,,,,,,,,,,,,0,0,0,4,1,,,,,,,,,,,,,,,,,,,,,,,,,,,,,,,,,,,,,,,,,,,,,,
653141,001,2022-11-20_17h48.58.984,Info_measure_main_exp,2022.2.2,MacIntel,59.94125757,,,,,,,,,,,,,,,,,,masks/mask_003.jpg,,,,,,,,,,,,,,,,,,,,,,,,,,,,,,,,,,,,,,,,,,,0,1,1,2,1,,,,,,,,,,,,,,,,,,,,,,,,,,,,,,,,,,,,,,,,,,,,,,
653141,001,2022-11-20_17h48.58.984,Info_measure_main_exp,2022.2.2,MacIntel,59.94125757,,,,,,,,,,,,,,,,,,masks/mask_004.jpg,,,,,,,,,,,,,,,,,,,,,,,,,,,,,,,,,,,,,,,,,,,0,2,2,3,1,,,,,,,,,,,,,,,,,,,,,,,,,,,,,,,,,,,,,,,,,,,,,,
653141,001,2022-11-20_17h48.58.984,Info_measure_main_exp,2022.2.2,MacIntel,59.94125757,,,,,,,,,,,,,,,,,,masks/mask_001.jpg,,,,,,,,,,,,,,,,,,,,,,,,,,,,,,,,,,,,,,,,,,,0,3,3,0,1,,,,,,,,,,,,,,,,,,,,,,,,,,,,,,,,,,,,,,,,,,,,,,
653141,001,2022-11-20_17h48.58.984,Info_measure_main_exp,2022.2.2,MacIntel,59.94125757,,,,,,,,,,,,,,,,,,masks/mask_002.jpg,,,,,,,,,,,,,,,,,,,,,,,,,,,,,,,,,,,,,,,,,,,0,4,4,1,1,,,,,,,,,,,,,,,,,,,,,,,,,,,,,,,,,,,,,,,,,,,,,,
653141,001,2022-11-20_17h48.58.984,Info_measure_main_exp,2022.2.2,MacIntel,59.94125757,,,,,,,,,,,,,,,,,,masks/mask_001.jpg,,,,,,,,,,,,,,,,,,,,,,,,,,,,,,,,,,,,,,,,,,,,,,,,0,0,0,0,1,,,,,,,,,,,,,,,,,,,,,,,,,,,,,,,,,,,,,,,,,
653141,001,2022-11-20_17h48.58.984,Info_measure_main_exp,2022.2.2,MacIntel,59.94125757,,,,,,,,,,,,,,,,,,masks/mask_002.jpg,,,,,,,,,,,,,,,,,,,,,,,,,,,,,,,,,,,,,,,,,,,,,,,,0,1,1,1,1,,,,,,,,,,,,,,,,,,,,,,,,,,,,,,,,,,,,,,,,,
653141,001,2022-11-20_17h48.58.984,Info_measure_main_exp,2022.2.2,MacIntel,59.94125757,,,,,,,,,,,,,,,,,,masks/mask_003.jpg,,,,,,,,,,,,,,,,,,,,,,,,,,,,,,,,,,,,,,,,,,,,,,,,0,2,2,2,1,,,,,,,,,,,,,,,,,,,,,,,,,,,,,,,,,,,,,,,,,
653141,001,2022-11-20_17h48.58.984,Info_measure_main_exp,2022.2.2,MacIntel,59.94125757,,,,,,,,,,,,,,,,,,masks/mask_004.jpg,,,,,,,,,,,,,,,,,,,,,,,,,,,,,,,,,,,,,,,,,,,,,,,,0,3,3,3,1,,,,,,,,,,,,,,,,,,,,,,,,,,,,,,,,,,,,,,,,,
653141,001,2022-11-20_17h48.58.984,Info_measure_main_exp,2022.2.2,MacIntel,59.94125757,,,,,,,,,,,,,,,,,,masks/mask_005.jpg,,,,,,,,,,,,,,,,,,,,,,,,,,,,,,,,,,,,,,,,,,,,,,,,0,4,4,4,1,,,,,,,,,,,,,,,,,,,,,,,,,,,,,,,,,,,,,,,,,
653141,001,2022-11-20_17h48.58.984,Info_measure_main_exp,2022.2.2,MacIntel,59.94125757,,,,,,,,,,,,,,,,,,,,,,,,,,,,,,3,1.8354,1,,,,,,,,,,,,0,131,5,5,2274,2238,absent_patch/patch0002274.jpg,absent_patch/patch0002238.jpg,,,,,,,,,,,,,,,,,,,,-0.041579861,-0.095851418,1,0,0,response5disk,14,-0.008883102,-0.002651186,1,0,0,center_square,0,13,13,91,1,,,,,,,,,,,,,,,,,,,,,,,
653141,001,2022-11-20_17h48.58.984,Info_measure_main_exp,2022.2.2,MacIntel,59.94125757,,,,,,,,,,,,,,,,,,masks/mask_001.jpg,,,,,,,,,,,,,,,,,,,,,,,,,,,,,,,,,,,,,,,,,,,0,0,0,0,1,,,,,,,,,,,,,,,,,,,,,,,,,,,,,,,,,,,,,,,,,,,,,,
653141,001,2022-11-20_17h48.58.984,Info_measure_main_exp,2022.2.2,MacIntel,59.94125757,,,,,,,,,,,,,,,,,,masks/mask_002.jpg,,,,,,,,,,,,,,,,,,,,,,,,,,,,,,,,,,,,,,,,,,,0,1,1,1,1,,,,,,,,,,,,,,,,,,,,,,,,,,,,,,,,,,,,,,,,,,,,,,
653141,001,2022-11-20_17h48.58.984,Info_measure_main_exp,2022.2.2,MacIntel,59.94125757,,,,,,,,,,,,,,,,,,masks/mask_003.jpg,,,,,,,,,,,,,,,,,,,,,,,,,,,,,,,,,,,,,,,,,,,0,2,2,2,1,,,,,,,,,,,,,,,,,,,,,,,,,,,,,,,,,,,,,,,,,,,,,,
653141,001,2022-11-20_17h48.58.984,Info_measure_main_exp,2022.2.2,MacIntel,59.94125757,,,,,,,,,,,,,,,,,,masks/mask_004.jpg,,,,,,,,,,,,,,,,,,,,,,,,,,,,,,,,,,,,,,,,,,,0,3,3,3,1,,,,,,,,,,,,,,,,,,,,,,,,,,,,,,,,,,,,,,,,,,,,,,
653141,001,2022-11-20_17h48.58.984,Info_measure_main_exp,2022.2.2,MacIntel,59.94125757,,,,,,,,,,,,,,,,,,masks/mask_005.jpg,,,,,,,,,,,,,,,,,,,,,,,,,,,,,,,,,,,,,,,,,,,0,4,4,4,1,,,,,,,,,,,,,,,,,,,,,,,,,,,,,,,,,,,,,,,,,,,,,,
653141,001,2022-11-20_17h48.58.984,Info_measure_main_exp,2022.2.2,MacIntel,59.94125757,,,,,,,,,,,,,,,,,,masks/mask_004.jpg,,,,,,,,,,,,,,,,,,,,,,,,,,,,,,,,,,,,,,,,,,,,,,,,0,0,0,3,1,,,,,,,,,,,,,,,,,,,,,,,,,,,,,,,,,,,,,,,,,
653141,001,2022-11-20_17h48.58.984,Info_measure_main_exp,2022.2.2,MacIntel,59.94125757,,,,,,,,,,,,,,,,,,masks/mask_005.jpg,,,,,,,,,,,,,,,,,,,,,,,,,,,,,,,,,,,,,,,,,,,,,,,,0,1,1,4,1,,,,,,,,,,,,,,,,,,,,,,,,,,,,,,,,,,,,,,,,,
653141,001,2022-11-20_17h48.58.984,Info_measure_main_exp,2022.2.2,MacIntel,59.94125757,,,,,,,,,,,,,,,,,,masks/mask_001.jpg,,,,,,,,,,,,,,,,,,,,,,,,,,,,,,,,,,,,,,,,,,,,,,,,0,2,2,0,1,,,,,,,,,,,,,,,,,,,,,,,,,,,,,,,,,,,,,,,,,
653141,001,2022-11-20_17h48.58.984,Info_measure_main_exp,2022.2.2,MacIntel,59.94125757,,,,,,,,,,,,,,,,,,masks/mask_002.jpg,,,,,,,,,,,,,,,,,,,,,,,,,,,,,,,,,,,,,,,,,,,,,,,,0,3,3,1,1,,,,,,,,,,,,,,,,,,,,,,,,,,,,,,,,,,,,,,,,,
653141,001,2022-11-20_17h48.58.984,Info_measure_main_exp,2022.2.2,MacIntel,59.94125757,,,,,,,,,,,,,,,,,,masks/mask_003.jpg,,,,,,,,,,,,,,,,,,,,,,,,,,,,,,,,,,,,,,,,,,,,,,,,0,4,4,2,1,,,,,,,,,,,,,,,,,,,,,,,,,,,,,,,,,,,,,,,,,
653141,001,2022-11-20_17h48.58.984,Info_measure_main_exp,2022.2.2,MacIntel,59.94125757,,,,,,,,,,,,,,,,,,,,,,,,,,,,,,3,0.7336,1,,,,,,,,,,,,0,131,5,5,1986,2238,absent_patch/patch0001986.jpg,absent_patch/patch0002238.jpg,,,,,,,,,,,,,,,,,,,,-0.022092014,-0.120768229,1,0,0,response5disk,15,0.003718171,0.00728805,1,0,0,center_square,0,14,14,31,1,,,,,,,,,,,,,,,,,,,,,,,
653141,001,2022-11-20_17h48.58.984,Info_measure_main_exp,2022.2.2,MacIntel,59.94125757,,,,,,,,,,,,,,,,,,masks/mask_004.jpg,,,,,,,,,,,,,,,,,,,,,,,,,,,,,,,,,,,,,,,,,,,0,0,0,3,1,,,,,,,,,,,,,,,,,,,,,,,,,,,,,,,,,,,,,,,,,,,,,,
653141,001,2022-11-20_17h48.58.984,Info_measure_main_exp,2022.2.2,MacIntel,59.94125757,,,,,,,,,,,,,,,,,,masks/mask_005.jpg,,,,,,,,,,,,,,,,,,,,,,,,,,,,,,,,,,,,,,,,,,,0,1,1,4,1,,,,,,,,,,,,,,,,,,,,,,,,,,,,,,,,,,,,,,,,,,,,,,
653141,001,2022-11-20_17h48.58.984,Info_measure_main_exp,2022.2.2,MacIntel,59.94125757,,,,,,,,,,,,,,,,,,masks/mask_001.jpg,,,,,,,,,,,,,,,,,,,,,,,,,,,,,,,,,,,,,,,,,,,0,2,2,0,1,,,,,,,,,,,,,,,,,,,,,,,,,,,,,,,,,,,,,,,,,,,,,,
653141,001,2022-11-20_17h48.58.984,Info_measure_main_exp,2022.2.2,MacIntel,59.94125757,,,,,,,,,,,,,,,,,,masks/mask_002.jpg,,,,,,,,,,,,,,,,,,,,,,,,,,,,,,,,,,,,,,,,,,,0,3,3,1,1,,,,,,,,,,,,,,,,,,,,,,,,,,,,,,,,,,,,,,,,,,,,,,
653141,001,2022-11-20_17h48.58.984,Info_measure_main_exp,2022.2.2,MacIntel,59.94125757,,,,,,,,,,,,,,,,,,masks/mask_003.jpg,,,,,,,,,,,,,,,,,,,,,,,,,,,,,,,,,,,,,,,,,,,0,4,4,2,1,,,,,,,,,,,,,,,,,,,,,,,,,,,,,,,,,,,,,,,,,,,,,,
653141,001,2022-11-20_17h48.58.984,Info_measure_main_exp,2022.2.2,MacIntel,59.94125757,,,,,,,,,,,,,,,,,,masks/mask_005.jpg,,,,,,,,,,,,,,,,,,,,,,,,,,,,,,,,,,,,,,,,,,,,,,,,0,0,0,4,1,,,,,,,,,,,,,,,,,,,,,,,,,,,,,,,,,,,,,,,,,
653141,001,2022-11-20_17h48.58.984,Info_measure_main_exp,2022.2.2,MacIntel,59.94125757,,,,,,,,,,,,,,,,,,masks/mask_003.jpg,,,,,,,,,,,,,,,,,,,,,,,,,,,,,,,,,,,,,,,,,,,,,,,,0,1,1,2,1,,,,,,,,,,,,,,,,,,,,,,,,,,,,,,,,,,,,,,,,,
653141,001,2022-11-20_17h48.58.984,Info_measure_main_exp,2022.2.2,MacIntel,59.94125757,,,,,,,,,,,,,,,,,,masks/mask_004.jpg,,,,,,,,,,,,,,,,,,,,,,,,,,,,,,,,,,,,,,,,,,,,,,,,0,2,2,3,1,,,,,,,,,,,,,,,,,,,,,,,,,,,,,,,,,,,,,,,,,
653141,001,2022-11-20_17h48.58.984,Info_measure_main_exp,2022.2.2,MacIntel,59.94125757,,,,,,,,,,,,,,,,,,masks/mask_002.jpg,,,,,,,,,,,,,,,,,,,,,,,,,,,,,,,,,,,,,,,,,,,,,,,,0,3,3,1,1,,,,,,,,,,,,,,,,,,,,,,,,,,,,,,,,,,,,,,,,,
653141,001,2022-11-20_17h48.58.984,Info_measure_main_exp,2022.2.2,MacIntel,59.94125757,,,,,,,,,,,,,,,,,,masks/mask_001.jpg,,,,,,,,,,,,,,,,,,,,,,,,,,,,,,,,,,,,,,,,,,,,,,,,0,4,4,0,1,,,,,,,,,,,,,,,,,,,,,,,,,,,,,,,,,,,,,,,,,
653141,001,2022-11-20_17h48.58.984,Info_measure_main_exp,2022.2.2,MacIntel,59.94125757,,,,,,,,,,,,,,,,,,,,,,,,,,,,,,7,0.668,1,,,,,,,,,,,,0,131,5,5,2250,2214,absent_patch/patch0002250.jpg,absent_patch/patch0002214.jpg,,,,,,,,,,,,,,,,,,,,0.035756655,0.093261719,1,0,0,response1disk,16,-0.012073206,-0.007306134,1,0,0,center_square,0,15,15,97,1,,,,,,,,,,,,,,,,,,,,,,,
653141,001,2022-11-20_17h48.58.984,Info_measure_main_exp,2022.2.2,MacIntel,59.94125757,,,,,,,,,,,,,,,,,,masks/mask_004.jpg,,,,,,,,,,,,,,,,,,,,,,,,,,,,,,,,,,,,,,,,,,,0,0,0,3,1,,,,,,,,,,,,,,,,,,,,,,,,,,,,,,,,,,,,,,,,,,,,,,
653141,001,2022-11-20_17h48.58.984,Info_measure_main_exp,2022.2.2,MacIntel,59.94125757,,,,,,,,,,,,,,,,,,masks/mask_005.jpg,,,,,,,,,,,,,,,,,,,,,,,,,,,,,,,,,,,,,,,,,,,0,1,1,4,1,,,,,,,,,,,,,,,,,,,,,,,,,,,,,,,,,,,,,,,,,,,,,,
653141,001,2022-11-20_17h48.58.984,Info_measure_main_exp,2022.2.2,MacIntel,59.94125757,,,,,,,,,,,,,,,,,,masks/mask_002.jpg,,,,,,,,,,,,,,,,,,,,,,,,,,,,,,,,,,,,,,,,,,,0,2,2,1,1,,,,,,,,,,,,,,,,,,,,,,,,,,,,,,,,,,,,,,,,,,,,,,
653141,001,2022-11-20_17h48.58.984,Info_measure_main_exp,2022.2.2,MacIntel,59.94125757,,,,,,,,,,,,,,,,,,masks/mask_001.jpg,,,,,,,,,,,,,,,,,,,,,,,,,,,,,,,,,,,,,,,,,,,0,3,3,0,1,,,,,,,,,,,,,,,,,,,,,,,,,,,,,,,,,,,,,,,,,,,,,,
653141,001,2022-11-20_17h48.58.984,Info_measure_main_exp,2022.2.2,MacIntel,59.94125757,,,,,,,,,,,,,,,,,,masks/mask_003.jpg,,,,,,,,,,,,,,,,,,,,,,,,,,,,,,,,,,,,,,,,,,,0,4,4,2,1,,,,,,,,,,,,,,,,,,,,,,,,,,,,,,,,,,,,,,,,,,,,,,
653141,001,2022-11-20_17h48.58.984,Info_measure_main_exp,2022.2.2,MacIntel,59.94125757,,,,,,,,,,,,,,,,,,masks/mask_005.jpg,,,,,,,,,,,,,,,,,,,,,,,,,,,,,,,,,,,,,,,,,,,,,,,,0,0,0,4,1,,,,,,,,,,,,,,,,,,,,,,,,,,,,,,,,,,,,,,,,,
653141,001,2022-11-20_17h48.58.984,Info_measure_main_exp,2022.2.2,MacIntel,59.94125757,,,,,,,,,,,,,,,,,,masks/mask_004.jpg,,,,,,,,,,,,,,,,,,,,,,,,,,,,,,,,,,,,,,,,,,,,,,,,0,1,1,3,1,,,,,,,,,,,,,,,,,,,,,,,,,,,,,,,,,,,,,,,,,
653141,001,2022-11-20_17h48.58.984,Info_measure_main_exp,2022.2.2,MacIntel,59.94125757,,,,,,,,,,,,,,,,,,masks/mask_003.jpg,,,,,,,,,,,,,,,,,,,,,,,,,,,,,,,,,,,,,,,,,,,,,,,,0,2,2,2,1,,,,,,,,,,,,,,,,,,,,,,,,,,,,,,,,,,,,,,,,,
653141,001,2022-11-20_17h48.58.984,Info_measure_main_exp,2022.2.2,MacIntel,59.94125757,,,,,,,,,,,,,,,,,,masks/mask_002.jpg,,,,,,,,,,,,,,,,,,,,,,,,,,,,,,,,,,,,,,,,,,,,,,,,0,3,3,1,1,,,,,,,,,,,,,,,,,,,,,,,,,,,,,,,,,,,,,,,,,
653141,001,2022-11-20_17h48.58.984,Info_measure_main_exp,2022.2.2,MacIntel,59.94125757,,,,,,,,,,,,,,,,,,masks/mask_001.jpg,,,,,,,,,,,,,,,,,,,,,,,,,,,,,,,,,,,,,,,,,,,,,,,,0,4,4,0,1,,,,,,,,,,,,,,,,,,,,,,,,,,,,,,,,,,,,,,,,,
653141,001,2022-11-20_17h48.58.984,Info_measure_main_exp,2022.2.2,MacIntel,59.94125757,,,,,,,,,,,,,,,,,,,,,,,,,,,,,,0,0.8335,1,,,,,,,,,,,,0,131,5,5,2142,2142,absent_patch/patch0002142.jpg,absent_patch/patch0002142.jpg,,,,,,,,,,,,,,,,,,,,-0.061288339,0.149128328,1,0,0,response7disk,17,-0.001070602,-0.005533854,1,0,0,center_square,0,16,16,13,1,,,,,,,,,,,,,,,,,,,,,,,
653141,001,2022-11-20_17h48.58.984,Info_measure_main_exp,2022.2.2,MacIntel,59.94125757,,,,,,,,,,,,,,,,,,masks/mask_003.jpg,,,,,,,,,,,,,,,,,,,,,,,,,,,,,,,,,,,,,,,,,,,0,0,0,2,1,,,,,,,,,,,,,,,,,,,,,,,,,,,,,,,,,,,,,,,,,,,,,,
653141,001,2022-11-20_17h48.58.984,Info_measure_main_exp,2022.2.2,MacIntel,59.94125757,,,,,,,,,,,,,,,,,,masks/mask_002.jpg,,,,,,,,,,,,,,,,,,,,,,,,,,,,,,,,,,,,,,,,,,,0,1,1,1,1,,,,,,,,,,,,,,,,,,,,,,,,,,,,,,,,,,,,,,,,,,,,,,
653141,001,2022-11-20_17h48.58.984,Info_measure_main_exp,2022.2.2,MacIntel,59.94125757,,,,,,,,,,,,,,,,,,masks/mask_001.jpg,,,,,,,,,,,,,,,,,,,,,,,,,,,,,,,,,,,,,,,,,,,0,2,2,0,1,,,,,,,,,,,,,,,,,,,,,,,,,,,,,,,,,,,,,,,,,,,,,,
653141,001,2022-11-20_17h48.58.984,Info_measure_main_exp,2022.2.2,MacIntel,59.94125757,,,,,,,,,,,,,,,,,,masks/mask_004.jpg,,,,,,,,,,,,,,,,,,,,,,,,,,,,,,,,,,,,,,,,,,,0,3,3,3,1,,,,,,,,,,,,,,,,,,,,,,,,,,,,,,,,,,,,,,,,,,,,,,
653141,001,2022-11-20_17h48.58.984,Info_measure_main_exp,2022.2.2,MacIntel,59.94125757,,,,,,,,,,,,,,,,,,masks/mask_005.jpg,,,,,,,,,,,,,,,,,,,,,,,,,,,,,,,,,,,,,,,,,,,0,4,4,4,1,,,,,,,,,,,,,,,,,,,,,,,,,,,,,,,,,,,,,,,,,,,,,,
653141,001,2022-11-20_17h48.58.984,Info_measure_main_exp,2022.2.2,MacIntel,59.94125757,,,,,,,,,,,,,,,,,,masks/mask_003.jpg,,,,,,,,,,,,,,,,,,,,,,,,,,,,,,,,,,,,,,,,,,,,,,,,0,0,0,2,1,,,,,,,,,,,,,,,,,,,,,,,,,,,,,,,,,,,,,,,,,
653141,001,2022-11-20_17h48.58.984,Info_measure_main_exp,2022.2.2,MacIntel,59.94125757,,,,,,,,,,,,,,,,,,masks/mask_001.jpg,,,,,,,,,,,,,,,,,,,,,,,,,,,,,,,,,,,,,,,,,,,,,,,,0,1,1,0,1,,,,,,,,,,,,,,,,,,,,,,,,,,,,,,,,,,,,,,,,,
653141,001,2022-11-20_17h48.58.984,Info_measure_main_exp,2022.2.2,MacIntel,59.94125757,,,,,,,,,,,,,,,,,,masks/mask_005.jpg,,,,,,,,,,,,,,,,,,,,,,,,,,,,,,,,,,,,,,,,,,,,,,,,0,2,2,4,1,,,,,,,,,,,,,,,,,,,,,,,,,,,,,,,,,,,,,,,,,
653141,001,2022-11-20_17h48.58.984,Info_measure_main_exp,2022.2.2,MacIntel,59.94125757,,,,,,,,,,,,,,,,,,masks/mask_002.jpg,,,,,,,,,,,,,,,,,,,,,,,,,,,,,,,,,,,,,,,,,,,,,,,,0,3,3,1,1,,,,,,,,,,,,,,,,,,,,,,,,,,,,,,,,,,,,,,,,,
653141,001,2022-11-20_17h48.58.984,Info_measure_main_exp,2022.2.2,MacIntel,59.94125757,,,,,,,,,,,,,,,,,,masks/mask_004.jpg,,,,,,,,,,,,,,,,,,,,,,,,,,,,,,,,,,,,,,,,,,,,,,,,0,4,4,3,1,,,,,,,,,,,,,,,,,,,,,,,,,,,,,,,,,,,,,,,,,
653141,001,2022-11-20_17h48.58.984,Info_measure_main_exp,2022.2.2,MacIntel,59.94125757,,,,,,,,,,,,,,,,,,,,,,,,,,,,,,3,1.3228,1,,,,,,,,,,,,0,131,5,5,2274,2154,absent_patch/patch0002274.jpg,absent_patch/patch0002154.jpg,,,,,,,,,,,,,,,,,,,,-0.061610243,-0.114605035,1,0,0,response5disk,18,-0.011830874,-0.008156105,1,0,0,center_square,0,17,17,23,1,,,,,,,,,,,,,,,,,,,,,,,
653141,001,2022-11-20_17h48.58.984,Info_measure_main_exp,2022.2.2,MacIntel,59.94125757,,,,,,,,,,,,,,,,,,masks/mask_003.jpg,,,,,,,,,,,,,,,,,,,,,,,,,,,,,,,,,,,,,,,,,,,0,0,0,2,1,,,,,,,,,,,,,,,,,,,,,,,,,,,,,,,,,,,,,,,,,,,,,,
653141,001,2022-11-20_17h48.58.984,Info_measure_main_exp,2022.2.2,MacIntel,59.94125757,,,,,,,,,,,,,,,,,,masks/mask_002.jpg,,,,,,,,,,,,,,,,,,,,,,,,,,,,,,,,,,,,,,,,,,,0,1,1,1,1,,,,,,,,,,,,,,,,,,,,,,,,,,,,,,,,,,,,,,,,,,,,,,
653141,001,2022-11-20_17h48.58.984,Info_measure_main_exp,2022.2.2,MacIntel,59.94125757,,,,,,,,,,,,,,,,,,masks/mask_004.jpg,,,,,,,,,,,,,,,,,,,,,,,,,,,,,,,,,,,,,,,,,,,0,2,2,3,1,,,,,,,,,,,,,,,,,,,,,,,,,,,,,,,,,,,,,,,,,,,,,,
653141,001,2022-11-20_17h48.58.984,Info_measure_main_exp,2022.2.2,MacIntel,59.94125757,,,,,,,,,,,,,,,,,,masks/mask_001.jpg,,,,,,,,,,,,,,,,,,,,,,,,,,,,,,,,,,,,,,,,,,,0,3,3,0,1,,,,,,,,,,,,,,,,,,,,,,,,,,,,,,,,,,,,,,,,,,,,,,
653141,001,2022-11-20_17h48.58.984,Info_measure_main_exp,2022.2.2,MacIntel,59.94125757,,,,,,,,,,,,,,,,,,masks/mask_005.jpg,,,,,,,,,,,,,,,,,,,,,,,,,,,,,,,,,,,,,,,,,,,0,4,4,4,1,,,,,,,,,,,,,,,,,,,,,,,,,,,,,,,,,,,,,,,,,,,,,,
653141,001,2022-11-20_17h48.58.984,Info_measure_main_exp,2022.2.2,MacIntel,59.94125757,,,,,,,,,,,,,,,,,,masks/mask_001.jpg,,,,,,,,,,,,,,,,,,,,,,,,,,,,,,,,,,,,,,,,,,,,,,,,0,0,0,0,1,,,,,,,,,,,,,,,,,,,,,,,,,,,,,,,,,,,,,,,,,
653141,001,2022-11-20_17h48.58.984,Info_measure_main_exp,2022.2.2,MacIntel,59.94125757,,,,,,,,,,,,,,,,,,masks/mask_004.jpg,,,,,,,,,,,,,,,,,,,,,,,,,,,,,,,,,,,,,,,,,,,,,,,,0,1,1,3,1,,,,,,,,,,,,,,,,,,,,,,,,,,,,,,,,,,,,,,,,,
653141,001,2022-11-20_17h48.58.984,Info_measure_main_exp,2022.2.2,MacIntel,59.94125757,,,,,,,,,,,,,,,,,,masks/mask_005.jpg,,,,,,,,,,,,,,,,,,,,,,,,,,,,,,,,,,,,,,,,,,,,,,,,0,2,2,4,1,,,,,,,,,,,,,,,,,,,,,,,,,,,,,,,,,,,,,,,,,
653141,001,2022-11-20_17h48.58.984,Info_measure_main_exp,2022.2.2,MacIntel,59.94125757,,,,,,,,,,,,,,,,,,masks/mask_003.jpg,,,,,,,,,,,,,,,,,,,,,,,,,,,,,,,,,,,,,,,,,,,,,,,,0,3,3,2,1,,,,,,,,,,,,,,,,,,,,,,,,,,,,,,,,,,,,,,,,,
653141,001,2022-11-20_17h48.58.984,Info_measure_main_exp,2022.2.2,MacIntel,59.94125757,,,,,,,,,,,,,,,,,,masks/mask_002.jpg,,,,,,,,,,,,,,,,,,,,,,,,,,,,,,,,,,,,,,,,,,,,,,,,0,4,4,1,1,,,,,,,,,,,,,,,,,,,,,,,,,,,,,,,,,,,,,,,,,
653141,001,2022-11-20_17h48.58.984,Info_measure_main_exp,2022.2.2,MacIntel,59.94125757,,,,,,,,,,,,,,,,,,,,,,,,,,,,,,4,4.8028,1,,,,,,,,,,,,0,131,5,5,2082,2178,absent_patch/patch0002082.jpg,absent_patch/patch0002178.jpg,,,,,,,,,,,,,,,,,,,,0.036664497,-0.1205693,1,0,0,response3disk,19,-0.003349248,0.000372541,1,0,0,center_square,0,18,18,2,1,,,,,,,,,,,,,,,,,,,,,,,
653141,001,2022-11-20_17h48.58.984,Info_measure_main_exp,2022.2.2,MacIntel,59.94125757,,,,,,,,,,,,,,,,,,masks/mask_002.jpg,,,,,,,,,,,,,,,,,,,,,,,,,,,,,,,,,,,,,,,,,,,0,0,0,1,1,,,,,,,,,,,,,,,,,,,,,,,,,,,,,,,,,,,,,,,,,,,,,,
653141,001,2022-11-20_17h48.58.984,Info_measure_main_exp,2022.2.2,MacIntel,59.94125757,,,,,,,,,,,,,,,,,,masks/mask_004.jpg,,,,,,,,,,,,,,,,,,,,,,,,,,,,,,,,,,,,,,,,,,,0,1,1,3,1,,,,,,,,,,,,,,,,,,,,,,,,,,,,,,,,,,,,,,,,,,,,,,
653141,001,2022-11-20_17h48.58.984,Info_measure_main_exp,2022.2.2,MacIntel,59.94125757,,,,,,,,,,,,,,,,,,masks/mask_003.jpg,,,,,,,,,,,,,,,,,,,,,,,,,,,,,,,,,,,,,,,,,,,0,2,2,2,1,,,,,,,,,,,,,,,,,,,,,,,,,,,,,,,,,,,,,,,,,,,,,,
653141,001,2022-11-20_17h48.58.984,Info_measure_main_exp,2022.2.2,MacIntel,59.94125757,,,,,,,,,,,,,,,,,,masks/mask_001.jpg,,,,,,,,,,,,,,,,,,,,,,,,,,,,,,,,,,,,,,,,,,,0,3,3,0,1,,,,,,,,,,,,,,,,,,,,,,,,,,,,,,,,,,,,,,,,,,,,,,
653141,001,2022-11-20_17h48.58.984,Info_measure_main_exp,2022.2.2,MacIntel,59.94125757,,,,,,,,,,,,,,,,,,masks/mask_005.jpg,,,,,,,,,,,,,,,,,,,,,,,,,,,,,,,,,,,,,,,,,,,0,4,4,4,1,,,,,,,,,,,,,,,,,,,,,,,,,,,,,,,,,,,,,,,,,,,,,,
653141,001,2022-11-20_17h48.58.984,Info_measure_main_exp,2022.2.2,MacIntel,59.94125757,,,,,,,,,,,,,,,,,,masks/mask_002.jpg,,,,,,,,,,,,,,,,,,,,,,,,,,,,,,,,,,,,,,,,,,,,,,,,0,0,0,1,1,,,,,,,,,,,,,,,,,,,,,,,,,,,,,,,,,,,,,,,,,
653141,001,2022-11-20_17h48.58.984,Info_measure_main_exp,2022.2.2,MacIntel,59.94125757,,,,,,,,,,,,,,,,,,masks/mask_005.jpg,,,,,,,,,,,,,,,,,,,,,,,,,,,,,,,,,,,,,,,,,,,,,,,,0,1,1,4,1,,,,,,,,,,,,,,,,,,,,,,,,,,,,,,,,,,,,,,,,,
653141,001,2022-11-20_17h48.58.984,Info_measure_main_exp,2022.2.2,MacIntel,59.94125757,,,,,,,,,,,,,,,,,,masks/mask_001.jpg,,,,,,,,,,,,,,,,,,,,,,,,,,,,,,,,,,,,,,,,,,,,,,,,0,2,2,0,1,,,,,,,,,,,,,,,,,,,,,,,,,,,,,,,,,,,,,,,,,
653141,001,2022-11-20_17h48.58.984,Info_measure_main_exp,2022.2.2,MacIntel,59.94125757,,,,,,,,,,,,,,,,,,masks/mask_004.jpg,,,,,,,,,,,,,,,,,,,,,,,,,,,,,,,,,,,,,,,,,,,,,,,,0,3,3,3,1,,,,,,,,,,,,,,,,,,,,,,,,,,,,,,,,,,,,,,,,,
653141,001,2022-11-20_17h48.58.984,Info_measure_main_exp,2022.2.2,MacIntel,59.94125757,,,,,,,,,,,,,,,,,,masks/mask_003.jpg,,,,,,,,,,,,,,,,,,,,,,,,,,,,,,,,,,,,,,,,,,,,,,,,0,4,4,2,1,,,,,,,,,,,,,,,,,,,,,,,,,,,,,,,,,,,,,,,,,
653141,001,2022-11-20_17h48.58.984,Info_measure_main_exp,2022.2.2,MacIntel,59.94125757,,,,,,,,,,,,,,,,,,,,,,,,,,,,,,7,1.2504,1,,,,,,,,,,,,0,131,5,5,2178,2154,absent_patch/patch0002178.jpg,absent_patch/patch0002154.jpg,,,,,,,,,,,,,,,,,,,,0.051634838,0.079879196,1,0,0,response1disk,20,0.004528356,0.001703559,1,0,0,center_square,0,19,19,63,1,,,,,,,,,,,,,,,,,,,,,,,
653141,001,2022-11-20_17h48.58.984,Info_measure_main_exp,2022.2.2,MacIntel,59.94125757,,,,,,,,,,,,,,,,,,masks/mask_004.jpg,,,,,,,,,,,,,,,,,,,,,,,,,,,,,,,,,,,,,,,,,,,0,0,0,3,1,,,,,,,,,,,,,,,,,,,,,,,,,,,,,,,,,,,,,,,,,,,,,,
653141,001,2022-11-20_17h48.58.984,Info_measure_main_exp,2022.2.2,MacIntel,59.94125757,,,,,,,,,,,,,,,,,,masks/mask_005.jpg,,,,,,,,,,,,,,,,,,,,,,,,,,,,,,,,,,,,,,,,,,,0,1,1,4,1,,,,,,,,,,,,,,,,,,,,,,,,,,,,,,,,,,,,,,,,,,,,,,
653141,001,2022-11-20_17h48.58.984,Info_measure_main_exp,2022.2.2,MacIntel,59.94125757,,,,,,,,,,,,,,,,,,masks/mask_003.jpg,,,,,,,,,,,,,,,,,,,,,,,,,,,,,,,,,,,,,,,,,,,0,2,2,2,1,,,,,,,,,,,,,,,,,,,,,,,,,,,,,,,,,,,,,,,,,,,,,,
653141,001,2022-11-20_17h48.58.984,Info_measure_main_exp,2022.2.2,MacIntel,59.94125757,,,,,,,,,,,,,,,,,,masks/mask_001.jpg,,,,,,,,,,,,,,,,,,,,,,,,,,,,,,,,,,,,,,,,,,,0,3,3,0,1,,,,,,,,,,,,,,,,,,,,,,,,,,,,,,,,,,,,,,,,,,,,,,
653141,001,2022-11-20_17h48.58.984,Info_measure_main_exp,2022.2.2,MacIntel,59.94125757,,,,,,,,,,,,,,,,,,masks/mask_002.jpg,,,,,,,,,,,,,,,,,,,,,,,,,,,,,,,,,,,,,,,,,,,0,4,4,1,1,,,,,,,,,,,,,,,,,,,,,,,,,,,,,,,,,,,,,,,,,,,,,,
653141,001,2022-11-20_17h48.58.984,Info_measure_main_exp,2022.2.2,MacIntel,59.94125757,,,,,,,,,,,,,,,,,,masks/mask_004.jpg,,,,,,,,,,,,,,,,,,,,,,,,,,,,,,,,,,,,,,,,,,,,,,,,0,0,0,3,1,,,,,,,,,,,,,,,,,,,,,,,,,,,,,,,,,,,,,,,,,
653141,001,2022-11-20_17h48.58.984,Info_measure_main_exp,2022.2.2,MacIntel,59.94125757,,,,,,,,,,,,,,,,,,masks/mask_003.jpg,,,,,,,,,,,,,,,,,,,,,,,,,,,,,,,,,,,,,,,,,,,,,,,,0,1,1,2,1,,,,,,,,,,,,,,,,,,,,,,,,,,,,,,,,,,,,,,,,,
653141,001,2022-11-20_17h48.58.984,Info_measure_main_exp,2022.2.2,MacIntel,59.94125757,,,,,,,,,,,,,,,,,,masks/mask_001.jpg,,,,,,,,,,,,,,,,,,,,,,,,,,,,,,,,,,,,,,,,,,,,,,,,0,2,2,0,1,,,,,,,,,,,,,,,,,,,,,,,,,,,,,,,,,,,,,,,,,
653141,001,2022-11-20_17h48.58.984,Info_measure_main_exp,2022.2.2,MacIntel,59.94125757,,,,,,,,,,,,,,,,,,masks/mask_005.jpg,,,,,,,,,,,,,,,,,,,,,,,,,,,,,,,,,,,,,,,,,,,,,,,,0,3,3,4,1,,,,,,,,,,,,,,,,,,,,,,,,,,,,,,,,,,,,,,,,,
653141,001,2022-11-20_17h48.58.984,Info_measure_main_exp,2022.2.2,MacIntel,59.94125757,,,,,,,,,,,,,,,,,,masks/mask_002.jpg,,,,,,,,,,,,,,,,,,,,,,,,,,,,,,,,,,,,,,,,,,,,,,,,0,4,4,1,1,,,,,,,,,,,,,,,,,,,,,,,,,,,,,,,,,,,,,,,,,
653141,001,2022-11-20_17h48.58.984,Info_measure_main_exp,2022.2.2,MacIntel,59.94125757,,,,,,,,,,,,,,,,,,,,,,,,,,,,,,0,0.5495,1,,,,,,,,,,,,1,131,5,5,1,1,present_patch/cong_131_5_a.jpg,present_patch/cong_131_5_a.jpg,,,,,,,,,,,,,,,,,,,,-0.042541956,0.087518084,1,0,0,response7disk,21,-0.004380064,0.003331163,1,0,0,center_square,0,20,20,30,1,,,,,,,,,,,,,,,,,,,,,,,
653141,001,2022-11-20_17h48.58.984,Info_measure_main_exp,2022.2.2,MacIntel,59.94125757,,,,,,,,,,,,,,,,,,masks/mask_005.jpg,,,,,,,,,,,,,,,,,,,,,,,,,,,,,,,,,,,,,,,,,,,0,0,0,4,1,,,,,,,,,,,,,,,,,,,,,,,,,,,,,,,,,,,,,,,,,,,,,,
653141,001,2022-11-20_17h48.58.984,Info_measure_main_exp,2022.2.2,MacIntel,59.94125757,,,,,,,,,,,,,,,,,,masks/mask_002.jpg,,,,,,,,,,,,,,,,,,,,,,,,,,,,,,,,,,,,,,,,,,,0,1,1,1,1,,,,,,,,,,,,,,,,,,,,,,,,,,,,,,,,,,,,,,,,,,,,,,
653141,001,2022-11-20_17h48.58.984,Info_measure_main_exp,2022.2.2,MacIntel,59.94125757,,,,,,,,,,,,,,,,,,masks/mask_004.jpg,,,,,,,,,,,,,,,,,,,,,,,,,,,,,,,,,,,,,,,,,,,0,2,2,3,1,,,,,,,,,,,,,,,,,,,,,,,,,,,,,,,,,,,,,,,,,,,,,,
653141,001,2022-11-20_17h48.58.984,Info_measure_main_exp,2022.2.2,MacIntel,59.94125757,,,,,,,,,,,,,,,,,,masks/mask_001.jpg,,,,,,,,,,,,,,,,,,,,,,,,,,,,,,,,,,,,,,,,,,,0,3,3,0,1,,,,,,,,,,,,,,,,,,,,,,,,,,,,,,,,,,,,,,,,,,,,,,
653141,001,2022-11-20_17h48.58.984,Info_measure_main_exp,2022.2.2,MacIntel,59.94125757,,,,,,,,,,,,,,,,,,masks/mask_003.jpg,,,,,,,,,,,,,,,,,,,,,,,,,,,,,,,,,,,,,,,,,,,0,4,4,2,1,,,,,,,,,,,,,,,,,,,,,,,,,,,,,,,,,,,,,,,,,,,,,,
653141,001,2022-11-20_17h48.58.984,Info_measure_main_exp,2022.2.2,MacIntel,59.94125757,,,,,,,,,,,,,,,,,,masks/mask_002.jpg,,,,,,,,,,,,,,,,,,,,,,,,,,,,,,,,,,,,,,,,,,,,,,,,0,0,0,1,1,,,,,,,,,,,,,,,,,,,,,,,,,,,,,,,,,,,,,,,,,
653141,001,2022-11-20_17h48.58.984,Info_measure_main_exp,2022.2.2,MacIntel,59.94125757,,,,,,,,,,,,,,,,,,masks/mask_005.jpg,,,,,,,,,,,,,,,,,,,,,,,,,,,,,,,,,,,,,,,,,,,,,,,,0,1,1,4,1,,,,,,,,,,,,,,,,,,,,,,,,,,,,,,,,,,,,,,,,,
653141,001,2022-11-20_17h48.58.984,Info_measure_main_exp,2022.2.2,MacIntel,59.94125757,,,,,,,,,,,,,,,,,,masks/mask_003.jpg,,,,,,,,,,,,,,,,,,,,,,,,,,,,,,,,,,,,,,,,,,,,,,,,0,2,2,2,1,,,,,,,,,,,,,,,,,,,,,,,,,,,,,,,,,,,,,,,,,
653141,001,2022-11-20_17h48.58.984,Info_measure_main_exp,2022.2.2,MacIntel,59.94125757,,,,,,,,,,,,,,,,,,masks/mask_004.jpg,,,,,,,,,,,,,,,,,,,,,,,,,,,,,,,,,,,,,,,,,,,,,,,,0,3,3,3,1,,,,,,,,,,,,,,,,,,,,,,,,,,,,,,,,,,,,,,,,,
653141,001,2022-11-20_17h48.58.984,Info_measure_main_exp,2022.2.2,MacIntel,59.94125757,,,,,,,,,,,,,,,,,,masks/mask_001.jpg,,,,,,,,,,,,,,,,,,,,,,,,,,,,,,,,,,,,,,,,,,,,,,,,0,4,4,0,1,,,,,,,,,,,,,,,,,,,,,,,,,,,,,,,,,,,,,,,,,
653141,001,2022-11-20_17h48.58.984,Info_measure_main_exp,2022.2.2,MacIntel,59.94125757,,,,,,,,,,,,,,,,,,,,,,,,,,,,,,0,0.468,1,,,,,,,,,,,,0,131,5,5,1974,1974,absent_patch/patch0001974.jpg,absent_patch/patch0001974.jpg,,,,,,,,,,,,,,,,,,,,-0.05041956,0.145822483,1,0,0,response7disk,22,-0.000383391,-0.010452836,1,0,0,center_square,0,21,21,113,1,,,,,,,,,,,,,,,,,,,,,,,
653141,001,2022-11-20_17h48.58.984,Info_measure_main_exp,2022.2.2,MacIntel,59.94125757,,,,,,,,,,,,,,,,,,masks/mask_002.jpg,,,,,,,,,,,,,,,,,,,,,,,,,,,,,,,,,,,,,,,,,,,0,0,0,1,1,,,,,,,,,,,,,,,,,,,,,,,,,,,,,,,,,,,,,,,,,,,,,,
653141,001,2022-11-20_17h48.58.984,Info_measure_main_exp,2022.2.2,MacIntel,59.94125757,,,,,,,,,,,,,,,,,,masks/mask_004.jpg,,,,,,,,,,,,,,,,,,,,,,,,,,,,,,,,,,,,,,,,,,,0,1,1,3,1,,,,,,,,,,,,,,,,,,,,,,,,,,,,,,,,,,,,,,,,,,,,,,
653141,001,2022-11-20_17h48.58.984,Info_measure_main_exp,2022.2.2,MacIntel,59.94125757,,,,,,,,,,,,,,,,,,masks/mask_001.jpg,,,,,,,,,,,,,,,,,,,,,,,,,,,,,,,,,,,,,,,,,,,0,2,2,0,1,,,,,,,,,,,,,,,,,,,,,,,,,,,,,,,,,,,,,,,,,,,,,,
653141,001,2022-11-20_17h48.58.984,Info_measure_main_exp,2022.2.2,MacIntel,59.94125757,,,,,,,,,,,,,,,,,,masks/mask_005.jpg,,,,,,,,,,,,,,,,,,,,,,,,,,,,,,,,,,,,,,,,,,,0,3,3,4,1,,,,,,,,,,,,,,,,,,,,,,,,,,,,,,,,,,,,,,,,,,,,,,
653141,001,2022-11-20_17h48.58.984,Info_measure_main_exp,2022.2.2,MacIntel,59.94125757,,,,,,,,,,,,,,,,,,masks/mask_003.jpg,,,,,,,,,,,,,,,,,,,,,,,,,,,,,,,,,,,,,,,,,,,0,4,4,2,1,,,,,,,,,,,,,,,,,,,,,,,,,,,,,,,,,,,,,,,,,,,,,,
653141,001,2022-11-20_17h48.58.984,Info_measure_main_exp,2022.2.2,MacIntel,59.94125757,,,,,,,,,,,,,,,,,,masks/mask_001.jpg,,,,,,,,,,,,,,,,,,,,,,,,,,,,,,,,,,,,,,,,,,,,,,,,0,0,0,0,1,,,,,,,,,,,,,,,,,,,,,,,,,,,,,,,,,,,,,,,,,
653141,001,2022-11-20_17h48.58.984,Info_measure_main_exp,2022.2.2,MacIntel,59.94125757,,,,,,,,,,,,,,,,,,masks/mask_003.jpg,,,,,,,,,,,,,,,,,,,,,,,,,,,,,,,,,,,,,,,,,,,,,,,,0,1,1,2,1,,,,,,,,,,,,,,,,,,,,,,,,,,,,,,,,,,,,,,,,,
653141,001,2022-11-20_17h48.58.984,Info_measure_main_exp,2022.2.2,MacIntel,59.94125757,,,,,,,,,,,,,,,,,,masks/mask_004.jpg,,,,,,,,,,,,,,,,,,,,,,,,,,,,,,,,,,,,,,,,,,,,,,,,0,2,2,3,1,,,,,,,,,,,,,,,,,,,,,,,,,,,,,,,,,,,,,,,,,
653141,001,2022-11-20_17h48.58.984,Info_measure_main_exp,2022.2.2,MacIntel,59.94125757,,,,,,,,,,,,,,,,,,masks/mask_002.jpg,,,,,,,,,,,,,,,,,,,,,,,,,,,,,,,,,,,,,,,,,,,,,,,,0,3,3,1,1,,,,,,,,,,,,,,,,,,,,,,,,,,,,,,,,,,,,,,,,,
653141,001,2022-11-20_17h48.58.984,Info_measure_main_exp,2022.2.2,MacIntel,59.94125757,,,,,,,,,,,,,,,,,,masks/mask_005.jpg,,,,,,,,,,,,,,,,,,,,,,,,,,,,,,,,,,,,,,,,,,,,,,,,0,4,4,4,1,,,,,,,,,,,,,,,,,,,,,,,,,,,,,,,,,,,,,,,,,
653141,001,2022-11-20_17h48.58.984,Info_measure_main_exp,2022.2.2,MacIntel,59.94125757,,,,,,,,,,,,,,,,,,,,,,,,,,,,,,0,0.7518,1,,,,,,,,,,,,0,131,5,5,1986,1974,absent_patch/patch0001986.jpg,absent_patch/patch0001974.jpg,,,,,,,,,,,,,,,,,,,,-0.040436921,0.100481047,1,0,0,response7disk,23,-0.00322989,0.006691262,1,0,0,center_square,0,22,22,25,1,,,,,,,,,,,,,,,,,,,,,,,
653141,001,2022-11-20_17h48.58.984,Info_measure_main_exp,2022.2.2,MacIntel,59.94125757,,,,,,,,,,,,,,,,,,masks/mask_001.jpg,,,,,,,,,,,,,,,,,,,,,,,,,,,,,,,,,,,,,,,,,,,0,0,0,0,1,,,,,,,,,,,,,,,,,,,,,,,,,,,,,,,,,,,,,,,,,,,,,,
653141,001,2022-11-20_17h48.58.984,Info_measure_main_exp,2022.2.2,MacIntel,59.94125757,,,,,,,,,,,,,,,,,,masks/mask_005.jpg,,,,,,,,,,,,,,,,,,,,,,,,,,,,,,,,,,,,,,,,,,,0,1,1,4,1,,,,,,,,,,,,,,,,,,,,,,,,,,,,,,,,,,,,,,,,,,,,,,
653141,001,2022-11-20_17h48.58.984,Info_measure_main_exp,2022.2.2,MacIntel,59.94125757,,,,,,,,,,,,,,,,,,masks/mask_002.jpg,,,,,,,,,,,,,,,,,,,,,,,,,,,,,,,,,,,,,,,,,,,0,2,2,1,1,,,,,,,,,,,,,,,,,,,,,,,,,,,,,,,,,,,,,,,,,,,,,,
653141,001,2022-11-20_17h48.58.984,Info_measure_main_exp,2022.2.2,MacIntel,59.94125757,,,,,,,,,,,,,,,,,,masks/mask_003.jpg,,,,,,,,,,,,,,,,,,,,,,,,,,,,,,,,,,,,,,,,,,,0,3,3,2,1,,,,,,,,,,,,,,,,,,,,,,,,,,,,,,,,,,,,,,,,,,,,,,
653141,001,2022-11-20_17h48.58.984,Info_measure_main_exp,2022.2.2,MacIntel,59.94125757,,,,,,,,,,,,,,,,,,masks/mask_004.jpg,,,,,,,,,,,,,,,,,,,,,,,,,,,,,,,,,,,,,,,,,,,0,4,4,3,1,,,,,,,,,,,,,,,,,,,,,,,,,,,,,,,,,,,,,,,,,,,,,,
653141,001,2022-11-20_17h48.58.984,Info_measure_main_exp,2022.2.2,MacIntel,59.94125757,,,,,,,,,,,,,,,,,,masks/mask_001.jpg,,,,,,,,,,,,,,,,,,,,,,,,,,,,,,,,,,,,,,,,,,,,,,,,0,0,0,0,1,,,,,,,,,,,,,,,,,,,,,,,,,,,,,,,,,,,,,,,,,
653141,001,2022-11-20_17h48.58.984,Info_measure_main_exp,2022.2.2,MacIntel,59.94125757,,,,,,,,,,,,,,,,,,masks/mask_004.jpg,,,,,,,,,,,,,,,,,,,,,,,,,,,,,,,,,,,,,,,,,,,,,,,,0,1,1,3,1,,,,,,,,,,,,,,,,,,,,,,,,,,,,,,,,,,,,,,,,,
653141,001,2022-11-20_17h48.58.984,Info_measure_main_exp,2022.2.2,MacIntel,59.94125757,,,,,,,,,,,,,,,,,,masks/mask_002.jpg,,,,,,,,,,,,,,,,,,,,,,,,,,,,,,,,,,,,,,,,,,,,,,,,0,2,2,1,1,,,,,,,,,,,,,,,,,,,,,,,,,,,,,,,,,,,,,,,,,
653141,001,2022-11-20_17h48.58.984,Info_measure_main_exp,2022.2.2,MacIntel,59.94125757,,,,,,,,,,,,,,,,,,masks/mask_003.jpg,,,,,,,,,,,,,,,,,,,,,,,,,,,,,,,,,,,,,,,,,,,,,,,,0,3,3,2,1,,,,,,,,,,,,,,,,,,,,,,,,,,,,,,,,,,,,,,,,,
653141,001,2022-11-20_17h48.58.984,Info_measure_main_exp,2022.2.2,MacIntel,59.94125757,,,,,,,,,,,,,,,,,,masks/mask_005.jpg,,,,,,,,,,,,,,,,,,,,,,,,,,,,,,,,,,,,,,,,,,,,,,,,0,4,4,4,1,,,,,,,,,,,,,,,,,,,,,,,,,,,,,,,,,,,,,,,,,
653141,001,2022-11-20_17h48.58.984,Info_measure_main_exp,2022.2.2,MacIntel,59.94125757,,,,,,,,,,,,,,,,,,,,,,,,,,,,,,7,0.6167,1,,,,,,,,,,,,0,131,5,5,2142,2082,absent_patch/patch0002142.jpg,absent_patch/patch0002082.jpg,,,,,,,,,,,,,,,,,,,,0.04015842,0.135941117,1,0,0,response1disk,24,0.001117622,0.000405093,1,0,0,center_square,0,23,23,88,1,,,,,,,,,,,,,,,,,,,,,,,
653141,001,2022-11-20_17h48.58.984,Info_measure_main_exp,2022.2.2,MacIntel,59.94125757,,,,,,,,,,,,,,,,,,masks/mask_003.jpg,,,,,,,,,,,,,,,,,,,,,,,,,,,,,,,,,,,,,,,,,,,0,0,0,2,1,,,,,,,,,,,,,,,,,,,,,,,,,,,,,,,,,,,,,,,,,,,,,,
653141,001,2022-11-20_17h48.58.984,Info_measure_main_exp,2022.2.2,MacIntel,59.94125757,,,,,,,,,,,,,,,,,,masks/mask_004.jpg,,,,,,,,,,,,,,,,,,,,,,,,,,,,,,,,,,,,,,,,,,,0,1,1,3,1,,,,,,,,,,,,,,,,,,,,,,,,,,,,,,,,,,,,,,,,,,,,,,
653141,001,2022-11-20_17h48.58.984,Info_measure_main_exp,2022.2.2,MacIntel,59.94125757,,,,,,,,,,,,,,,,,,masks/mask_001.jpg,,,,,,,,,,,,,,,,,,,,,,,,,,,,,,,,,,,,,,,,,,,0,2,2,0,1,,,,,,,,,,,,,,,,,,,,,,,,,,,,,,,,,,,,,,,,,,,,,,
653141,001,2022-11-20_17h48.58.984,Info_measure_main_exp,2022.2.2,MacIntel,59.94125757,,,,,,,,,,,,,,,,,,masks/mask_002.jpg,,,,,,,,,,,,,,,,,,,,,,,,,,,,,,,,,,,,,,,,,,,0,3,3,1,1,,,,,,,,,,,,,,,,,,,,,,,,,,,,,,,,,,,,,,,,,,,,,,
653141,001,2022-11-20_17h48.58.984,Info_measure_main_exp,2022.2.2,MacIntel,59.94125757,,,,,,,,,,,,,,,,,,masks/mask_005.jpg,,,,,,,,,,,,,,,,,,,,,,,,,,,,,,,,,,,,,,,,,,,0,4,4,4,1,,,,,,,,,,,,,,,,,,,,,,,,,,,,,,,,,,,,,,,,,,,,,,
653141,001,2022-11-20_17h48.58.984,Info_measure_main_exp,2022.2.2,MacIntel,59.94125757,,,,,,,,,,,,,,,,,,masks/mask_003.jpg,,,,,,,,,,,,,,,,,,,,,,,,,,,,,,,,,,,,,,,,,,,,,,,,0,0,0,2,1,,,,,,,,,,,,,,,,,,,,,,,,,,,,,,,,,,,,,,,,,
653141,001,2022-11-20_17h48.58.984,Info_measure_main_exp,2022.2.2,MacIntel,59.94125757,,,,,,,,,,,,,,,,,,masks/mask_001.jpg,,,,,,,,,,,,,,,,,,,,,,,,,,,,,,,,,,,,,,,,,,,,,,,,0,1,1,0,1,,,,,,,,,,,,,,,,,,,,,,,,,,,,,,,,,,,,,,,,,
653141,001,2022-11-20_17h48.58.984,Info_measure_main_exp,2022.2.2,MacIntel,59.94125757,,,,,,,,,,,,,,,,,,masks/mask_002.jpg,,,,,,,,,,,,,,,,,,,,,,,,,,,,,,,,,,,,,,,,,,,,,,,,0,2,2,1,1,,,,,,,,,,,,,,,,,,,,,,,,,,,,,,,,,,,,,,,,,
653141,001,2022-11-20_17h48.58.984,Info_measure_main_exp,2022.2.2,MacIntel,59.94125757,,,,,,,,,,,,,,,,,,masks/mask_004.jpg,,,,,,,,,,,,,,,,,,,,,,,,,,,,,,,,,,,,,,,,,,,,,,,,0,3,3,3,1,,,,,,,,,,,,,,,,,,,,,,,,,,,,,,,,,,,,,,,,,
653141,001,2022-11-20_17h48.58.984,Info_measure_main_exp,2022.2.2,MacIntel,59.94125757,,,,,,,,,,,,,,,,,,masks/mask_005.jpg,,,,,,,,,,,,,,,,,,,,,,,,,,,,,,,,,,,,,,,,,,,,,,,,0,4,4,4,1,,,,,,,,,,,,,,,,,,,,,,,,,,,,,,,,,,,,,,,,,
653141,001,2022-11-20_17h48.58.984,Info_measure_main_exp,2022.2.2,MacIntel,59.94125757,,,,,,,,,,,,,,,,,,,,,,,,,,,,,,3,1.0332,1,,,,,,,,,,,,0,131,5,5,2154,2238,absent_patch/patch0002154.jpg,absent_patch/patch0002238.jpg,,,,,,,,,,,,,,,,,,,,-0.029824942,-0.107121672,1,0,0,response5disk,25,-0.007696759,-0.007678675,1,0,0,center_square,0,24,24,21,1,,,,,,,,,,,,,,,,,,,,,,,
653141,001,2022-11-20_17h48.58.984,Info_measure_main_exp,2022.2.2,MacIntel,59.94125757,,,,,,,,,,,,,,,,,,masks/mask_002.jpg,,,,,,,,,,,,,,,,,,,,,,,,,,,,,,,,,,,,,,,,,,,0,0,0,1,1,,,,,,,,,,,,,,,,,,,,,,,,,,,,,,,,,,,,,,,,,,,,,,
653141,001,2022-11-20_17h48.58.984,Info_measure_main_exp,2022.2.2,MacIntel,59.94125757,,,,,,,,,,,,,,,,,,masks/mask_004.jpg,,,,,,,,,,,,,,,,,,,,,,,,,,,,,,,,,,,,,,,,,,,0,1,1,3,1,,,,,,,,,,,,,,,,,,,,,,,,,,,,,,,,,,,,,,,,,,,,,,
653141,001,2022-11-20_17h48.58.984,Info_measure_main_exp,2022.2.2,MacIntel,59.94125757,,,,,,,,,,,,,,,,,,masks/mask_001.jpg,,,,,,,,,,,,,,,,,,,,,,,,,,,,,,,,,,,,,,,,,,,0,2,2,0,1,,,,,,,,,,,,,,,,,,,,,,,,,,,,,,,,,,,,,,,,,,,,,,
653141,001,2022-11-20_17h48.58.984,Info_measure_main_exp,2022.2.2,MacIntel,59.94125757,,,,,,,,,,,,,,,,,,masks/mask_003.jpg,,,,,,,,,,,,,,,,,,,,,,,,,,,,,,,,,,,,,,,,,,,0,3,3,2,1,,,,,,,,,,,,,,,,,,,,,,,,,,,,,,,,,,,,,,,,,,,,,,
653141,001,2022-11-20_17h48.58.984,Info_measure_main_exp,2022.2.2,MacIntel,59.94125757,,,,,,,,,,,,,,,,,,masks/mask_005.jpg,,,,,,,,,,,,,,,,,,,,,,,,,,,,,,,,,,,,,,,,,,,0,4,4,4,1,,,,,,,,,,,,,,,,,,,,,,,,,,,,,,,,,,,,,,,,,,,,,,
653141,001,2022-11-20_17h48.58.984,Info_measure_main_exp,2022.2.2,MacIntel,59.94125757,,,,,,,,,,,,,,,,,,masks/mask_004.jpg,,,,,,,,,,,,,,,,,,,,,,,,,,,,,,,,,,,,,,,,,,,,,,,,0,0,0,3,1,,,,,,,,,,,,,,,,,,,,,,,,,,,,,,,,,,,,,,,,,
653141,001,2022-11-20_17h48.58.984,Info_measure_main_exp,2022.2.2,MacIntel,59.94125757,,,,,,,,,,,,,,,,,,masks/mask_003.jpg,,,,,,,,,,,,,,,,,,,,,,,,,,,,,,,,,,,,,,,,,,,,,,,,0,1,1,2,1,,,,,,,,,,,,,,,,,,,,,,,,,,,,,,,,,,,,,,,,,
653141,001,2022-11-20_17h48.58.984,Info_measure_main_exp,2022.2.2,MacIntel,59.94125757,,,,,,,,,,,,,,,,,,masks/mask_002.jpg,,,,,,,,,,,,,,,,,,,,,,,,,,,,,,,,,,,,,,,,,,,,,,,,0,2,2,1,1,,,,,,,,,,,,,,,,,,,,,,,,,,,,,,,,,,,,,,,,,
653141,001,2022-11-20_17h48.58.984,Info_measure_main_exp,2022.2.2,MacIntel,59.94125757,,,,,,,,,,,,,,,,,,masks/mask_005.jpg,,,,,,,,,,,,,,,,,,,,,,,,,,,,,,,,,,,,,,,,,,,,,,,,0,3,3,4,1,,,,,,,,,,,,,,,,,,,,,,,,,,,,,,,,,,,,,,,,,
653141,001,2022-11-20_17h48.58.984,Info_measure_main_exp,2022.2.2,MacIntel,59.94125757,,,,,,,,,,,,,,,,,,masks/mask_001.jpg,,,,,,,,,,,,,,,,,,,,,,,,,,,,,,,,,,,,,,,,,,,,,,,,0,4,4,0,1,,,,,,,,,,,,,,,,,,,,,,,,,,,,,,,,,,,,,,,,,
653141,001,2022-11-20_17h48.58.984,Info_measure_main_exp,2022.2.2,MacIntel,59.94125757,,,,,,,,,,,,,,,,,,,,,,,,,,,,,,0,1.4837,1,,,,,,,,,,,,0,131,5,5,2166,2166,absent_patch/patch0002166.jpg,absent_patch/patch0002166.jpg,,,,,,,,,,,,,,,,,,,,-0.085358796,0.147829861,1,0,0,response7disk,26,-0.013624855,0.003956887,1,0,0,center_square,0,25,25,42,1,,,,,,,,,,,,,,,,,,,,,,,
653141,001,2022-11-20_17h48.58.984,Info_measure_main_exp,2022.2.2,MacIntel,59.94125757,,,,,,,,,,,,,,,,,,masks/mask_004.jpg,,,,,,,,,,,,,,,,,,,,,,,,,,,,,,,,,,,,,,,,,,,0,0,0,3,1,,,,,,,,,,,,,,,,,,,,,,,,,,,,,,,,,,,,,,,,,,,,,,
653141,001,2022-11-20_17h48.58.984,Info_measure_main_exp,2022.2.2,MacIntel,59.94125757,,,,,,,,,,,,,,,,,,masks/mask_002.jpg,,,,,,,,,,,,,,,,,,,,,,,,,,,,,,,,,,,,,,,,,,,0,1,1,1,1,,,,,,,,,,,,,,,,,,,,,,,,,,,,,,,,,,,,,,,,,,,,,,
653141,001,2022-11-20_17h48.58.984,Info_measure_main_exp,2022.2.2,MacIntel,59.94125757,,,,,,,,,,,,,,,,,,masks/mask_005.jpg,,,,,,,,,,,,,,,,,,,,,,,,,,,,,,,,,,,,,,,,,,,0,2,2,4,1,,,,,,,,,,,,,,,,,,,,,,,,,,,,,,,,,,,,,,,,,,,,,,
653141,001,2022-11-20_17h48.58.984,Info_measure_main_exp,2022.2.2,MacIntel,59.94125757,,,,,,,,,,,,,,,,,,masks/mask_001.jpg,,,,,,,,,,,,,,,,,,,,,,,,,,,,,,,,,,,,,,,,,,,0,3,3,0,1,,,,,,,,,,,,,,,,,,,,,,,,,,,,,,,,,,,,,,,,,,,,,,
653141,001,2022-11-20_17h48.58.984,Info_measure_main_exp,2022.2.2,MacIntel,59.94125757,,,,,,,,,,,,,,,,,,masks/mask_003.jpg,,,,,,,,,,,,,,,,,,,,,,,,,,,,,,,,,,,,,,,,,,,0,4,4,2,1,,,,,,,,,,,,,,,,,,,,,,,,,,,,,,,,,,,,,,,,,,,,,,
653141,001,2022-11-20_17h48.58.984,Info_measure_main_exp,2022.2.2,MacIntel,59.94125757,,,,,,,,,,,,,,,,,,masks/mask_004.jpg,,,,,,,,,,,,,,,,,,,,,,,,,,,,,,,,,,,,,,,,,,,,,,,,0,0,0,3,1,,,,,,,,,,,,,,,,,,,,,,,,,,,,,,,,,,,,,,,,,
653141,001,2022-11-20_17h48.58.984,Info_measure_main_exp,2022.2.2,MacIntel,59.94125757,,,,,,,,,,,,,,,,,,masks/mask_003.jpg,,,,,,,,,,,,,,,,,,,,,,,,,,,,,,,,,,,,,,,,,,,,,,,,0,1,1,2,1,,,,,,,,,,,,,,,,,,,,,,,,,,,,,,,,,,,,,,,,,
653141,001,2022-11-20_17h48.58.984,Info_measure_main_exp,2022.2.2,MacIntel,59.94125757,,,,,,,,,,,,,,,,,,masks/mask_002.jpg,,,,,,,,,,,,,,,,,,,,,,,,,,,,,,,,,,,,,,,,,,,,,,,,0,2,2,1,1,,,,,,,,,,,,,,,,,,,,,,,,,,,,,,,,,,,,,,,,,
653141,001,2022-11-20_17h48.58.984,Info_measure_main_exp,2022.2.2,MacIntel,59.94125757,,,,,,,,,,,,,,,,,,masks/mask_001.jpg,,,,,,,,,,,,,,,,,,,,,,,,,,,,,,,,,,,,,,,,,,,,,,,,0,3,3,0,1,,,,,,,,,,,,,,,,,,,,,,,,,,,,,,,,,,,,,,,,,
653141,001,2022-11-20_17h48.58.984,Info_measure_main_exp,2022.2.2,MacIntel,59.94125757,,,,,,,,,,,,,,,,,,masks/mask_005.jpg,,,,,,,,,,,,,,,,,,,,,,,,,,,,,,,,,,,,,,,,,,,,,,,,0,4,4,4,1,,,,,,,,,,,,,,,,,,,,,,,,,,,,,,,,,,,,,,,,,
653141,001,2022-11-20_17h48.58.984,Info_measure_main_exp,2022.2.2,MacIntel,59.94125757,,,,,,,,,,,,,,,,,,,,,,,,,,,,,,7,0.9009,1,,,,,,,,,,,,0,131,5,5,2250,2166,absent_patch/patch0002250.jpg,absent_patch/patch0002166.jpg,,,,,,,,,,,,,,,,,,,,0.058959057,0.176034433,1,0,0,response1disk,27,-0.004542824,-0.00416305,1,0,0,center_square,0,26,26,60,1,,,,,,,,,,,,,,,,,,,,,,,
653141,001,2022-11-20_17h48.58.984,Info_measure_main_exp,2022.2.2,MacIntel,59.94125757,,,,,,,,,,,,,,,,,,masks/mask_005.jpg,,,,,,,,,,,,,,,,,,,,,,,,,,,,,,,,,,,,,,,,,,,0,0,0,4,1,,,,,,,,,,,,,,,,,,,,,,,,,,,,,,,,,,,,,,,,,,,,,,
653141,001,2022-11-20_17h48.58.984,Info_measure_main_exp,2022.2.2,MacIntel,59.94125757,,,,,,,,,,,,,,,,,,masks/mask_003.jpg,,,,,,,,,,,,,,,,,,,,,,,,,,,,,,,,,,,,,,,,,,,0,1,1,2,1,,,,,,,,,,,,,,,,,,,,,,,,,,,,,,,,,,,,,,,,,,,,,,
653141,001,2022-11-20_17h48.58.984,Info_measure_main_exp,2022.2.2,MacIntel,59.94125757,,,,,,,,,,,,,,,,,,masks/mask_002.jpg,,,,,,,,,,,,,,,,,,,,,,,,,,,,,,,,,,,,,,,,,,,0,2,2,1,1,,,,,,,,,,,,,,,,,,,,,,,,,,,,,,,,,,,,,,,,,,,,,,
653141,001,2022-11-20_17h48.58.984,Info_measure_main_exp,2022.2.2,MacIntel,59.94125757,,,,,,,,,,,,,,,,,,masks/mask_001.jpg,,,,,,,,,,,,,,,,,,,,,,,,,,,,,,,,,,,,,,,,,,,0,3,3,0,1,,,,,,,,,,,,,,,,,,,,,,,,,,,,,,,,,,,,,,,,,,,,,,
653141,001,2022-11-20_17h48.58.984,Info_measure_main_exp,2022.2.2,MacIntel,59.94125757,,,,,,,,,,,,,,,,,,masks/mask_004.jpg,,,,,,,,,,,,,,,,,,,,,,,,,,,,,,,,,,,,,,,,,,,0,4,4,3,1,,,,,,,,,,,,,,,,,,,,,,,,,,,,,,,,,,,,,,,,,,,,,,
653141,001,2022-11-20_17h48.58.984,Info_measure_main_exp,2022.2.2,MacIntel,59.94125757,,,,,,,,,,,,,,,,,,masks/mask_002.jpg,,,,,,,,,,,,,,,,,,,,,,,,,,,,,,,,,,,,,,,,,,,,,,,,0,0,0,1,1,,,,,,,,,,,,,,,,,,,,,,,,,,,,,,,,,,,,,,,,,
653141,001,2022-11-20_17h48.58.984,Info_measure_main_exp,2022.2.2,MacIntel,59.94125757,,,,,,,,,,,,,,,,,,masks/mask_005.jpg,,,,,,,,,,,,,,,,,,,,,,,,,,,,,,,,,,,,,,,,,,,,,,,,0,1,1,4,1,,,,,,,,,,,,,,,,,,,,,,,,,,,,,,,,,,,,,,,,,
653141,001,2022-11-20_17h48.58.984,Info_measure_main_exp,2022.2.2,MacIntel,59.94125757,,,,,,,,,,,,,,,,,,masks/mask_001.jpg,,,,,,,,,,,,,,,,,,,,,,,,,,,,,,,,,,,,,,,,,,,,,,,,0,2,2,0,1,,,,,,,,,,,,,,,,,,,,,,,,,,,,,,,,,,,,,,,,,
653141,001,2022-11-20_17h48.58.984,Info_measure_main_exp,2022.2.2,MacIntel,59.94125757,,,,,,,,,,,,,,,,,,masks/mask_003.jpg,,,,,,,,,,,,,,,,,,,,,,,,,,,,,,,,,,,,,,,,,,,,,,,,0,3,3,2,1,,,,,,,,,,,,,,,,,,,,,,,,,,,,,,,,,,,,,,,,,
653141,001,2022-11-20_17h48.58.984,Info_measure_main_exp,2022.2.2,MacIntel,59.94125757,,,,,,,,,,,,,,,,,,masks/mask_004.jpg,,,,,,,,,,,,,,,,,,,,,,,,,,,,,,,,,,,,,,,,,,,,,,,,0,4,4,3,1,,,,,,,,,,,,,,,,,,,,,,,,,,,,,,,,,,,,,,,,,
653141,001,2022-11-20_17h48.58.984,Info_measure_main_exp,2022.2.2,MacIntel,59.94125757,,,,,,,,,,,,,,,,,,,,,,,,,,,,,,6,2.7027,1,,,,,,,,,,,,0,131,5,5,2214,2166,absent_patch/patch0002214.jpg,absent_patch/patch0002166.jpg,,,,,,,,,,,,,,,,,,,,0.141532841,0.060000723,1,0,0,response1disk,28,0.015603299,-0.001801215,1,0,0,center_square,0,27,27,109,1,,,,,,,,,,,,,,,,,,,,,,,
653141,001,2022-11-20_17h48.58.984,Info_measure_main_exp,2022.2.2,MacIntel,59.94125757,,,,,,,,,,,,,,,,,,masks/mask_004.jpg,,,,,,,,,,,,,,,,,,,,,,,,,,,,,,,,,,,,,,,,,,,0,0,0,3,1,,,,,,,,,,,,,,,,,,,,,,,,,,,,,,,,,,,,,,,,,,,,,,
653141,001,2022-11-20_17h48.58.984,Info_measure_main_exp,2022.2.2,MacIntel,59.94125757,,,,,,,,,,,,,,,,,,masks/mask_002.jpg,,,,,,,,,,,,,,,,,,,,,,,,,,,,,,,,,,,,,,,,,,,0,1,1,1,1,,,,,,,,,,,,,,,,,,,,,,,,,,,,,,,,,,,,,,,,,,,,,,
653141,001,2022-11-20_17h48.58.984,Info_measure_main_exp,2022.2.2,MacIntel,59.94125757,,,,,,,,,,,,,,,,,,masks/mask_003.jpg,,,,,,,,,,,,,,,,,,,,,,,,,,,,,,,,,,,,,,,,,,,0,2,2,2,1,,,,,,,,,,,,,,,,,,,,,,,,,,,,,,,,,,,,,,,,,,,,,,
653141,001,2022-11-20_17h48.58.984,Info_measure_main_exp,2022.2.2,MacIntel,59.94125757,,,,,,,,,,,,,,,,,,masks/mask_005.jpg,,,,,,,,,,,,,,,,,,,,,,,,,,,,,,,,,,,,,,,,,,,0,3,3,4,1,,,,,,,,,,,,,,,,,,,,,,,,,,,,,,,,,,,,,,,,,,,,,,
653141,001,2022-11-20_17h48.58.984,Info_measure_main_exp,2022.2.2,MacIntel,59.94125757,,,,,,,,,,,,,,,,,,masks/mask_001.jpg,,,,,,,,,,,,,,,,,,,,,,,,,,,,,,,,,,,,,,,,,,,0,4,4,0,1,,,,,,,,,,,,,,,,,,,,,,,,,,,,,,,,,,,,,,,,,,,,,,
653141,001,2022-11-20_17h48.58.984,Info_measure_main_exp,2022.2.2,MacIntel,59.94125757,,,,,,,,,,,,,,,,,,masks/mask_003.jpg,,,,,,,,,,,,,,,,,,,,,,,,,,,,,,,,,,,,,,,,,,,,,,,,0,0,0,2,1,,,,,,,,,,,,,,,,,,,,,,,,,,,,,,,,,,,,,,,,,
653141,001,2022-11-20_17h48.58.984,Info_measure_main_exp,2022.2.2,MacIntel,59.94125757,,,,,,,,,,,,,,,,,,masks/mask_005.jpg,,,,,,,,,,,,,,,,,,,,,,,,,,,,,,,,,,,,,,,,,,,,,,,,0,1,1,4,1,,,,,,,,,,,,,,,,,,,,,,,,,,,,,,,,,,,,,,,,,
653141,001,2022-11-20_17h48.58.984,Info_measure_main_exp,2022.2.2,MacIntel,59.94125757,,,,,,,,,,,,,,,,,,masks/mask_002.jpg,,,,,,,,,,,,,,,,,,,,,,,,,,,,,,,,,,,,,,,,,,,,,,,,0,2,2,1,1,,,,,,,,,,,,,,,,,,,,,,,,,,,,,,,,,,,,,,,,,
653141,001,2022-11-20_17h48.58.984,Info_measure_main_exp,2022.2.2,MacIntel,59.94125757,,,,,,,,,,,,,,,,,,masks/mask_001.jpg,,,,,,,,,,,,,,,,,,,,,,,,,,,,,,,,,,,,,,,,,,,,,,,,0,3,3,0,1,,,,,,,,,,,,,,,,,,,,,,,,,,,,,,,,,,,,,,,,,
653141,001,2022-11-20_17h48.58.984,Info_measure_main_exp,2022.2.2,MacIntel,59.94125757,,,,,,,,,,,,,,,,,,masks/mask_004.jpg,,,,,,,,,,,,,,,,,,,,,,,,,,,,,,,,,,,,,,,,,,,,,,,,0,4,4,3,1,,,,,,,,,,,,,,,,,,,,,,,,,,,,,,,,,,,,,,,,,
653141,001,2022-11-20_17h48.58.984,Info_measure_main_exp,2022.2.2,MacIntel,59.94125757,,,,,,,,,,,,,,,,,,,,,,,,,,,,,,7,0.7677,1,,,,,,,,,,,,0,131,5,5,1950,2178,absent_patch/patch0001950.jpg,absent_patch/patch0002178.jpg,,,,,,,,,,,,,,,,,,,,0.079202836,0.12182798,1,0,0,response1disk,29,-0.002188223,0.009968171,1,0,0,center_square,0,28,28,61,1,,,,,,,,,,,,,,,,,,,,,,,
653141,001,2022-11-20_17h48.58.984,Info_measure_main_exp,2022.2.2,MacIntel,59.94125757,,,,,,,,,,,,,,,,,,masks/mask_002.jpg,,,,,,,,,,,,,,,,,,,,,,,,,,,,,,,,,,,,,,,,,,,0,0,0,1,1,,,,,,,,,,,,,,,,,,,,,,,,,,,,,,,,,,,,,,,,,,,,,,
653141,001,2022-11-20_17h48.58.984,Info_measure_main_exp,2022.2.2,MacIntel,59.94125757,,,,,,,,,,,,,,,,,,masks/mask_003.jpg,,,,,,,,,,,,,,,,,,,,,,,,,,,,,,,,,,,,,,,,,,,0,1,1,2,1,,,,,,,,,,,,,,,,,,,,,,,,,,,,,,,,,,,,,,,,,,,,,,
653141,001,2022-11-20_17h48.58.984,Info_measure_main_exp,2022.2.2,MacIntel,59.94125757,,,,,,,,,,,,,,,,,,masks/mask_001.jpg,,,,,,,,,,,,,,,,,,,,,,,,,,,,,,,,,,,,,,,,,,,0,2,2,0,1,,,,,,,,,,,,,,,,,,,,,,,,,,,,,,,,,,,,,,,,,,,,,,
653141,001,2022-11-20_17h48.58.984,Info_measure_main_exp,2022.2.2,MacIntel,59.94125757,,,,,,,,,,,,,,,,,,masks/mask_005.jpg,,,,,,,,,,,,,,,,,,,,,,,,,,,,,,,,,,,,,,,,,,,0,3,3,4,1,,,,,,,,,,,,,,,,,,,,,,,,,,,,,,,,,,,,,,,,,,,,,,
653141,001,2022-11-20_17h48.58.984,Info_measure_main_exp,2022.2.2,MacIntel,59.94125757,,,,,,,,,,,,,,,,,,masks/mask_004.jpg,,,,,,,,,,,,,,,,,,,,,,,,,,,,,,,,,,,,,,,,,,,0,4,4,3,1,,,,,,,,,,,,,,,,,,,,,,,,,,,,,,,,,,,,,,,,,,,,,,
653141,001,2022-11-20_17h48.58.984,Info_measure_main_exp,2022.2.2,MacIntel,59.94125757,,,,,,,,,,,,,,,,,,masks/mask_002.jpg,,,,,,,,,,,,,,,,,,,,,,,,,,,,,,,,,,,,,,,,,,,,,,,,0,0,0,1,1,,,,,,,,,,,,,,,,,,,,,,,,,,,,,,,,,,,,,,,,,
653141,001,2022-11-20_17h48.58.984,Info_measure_main_exp,2022.2.2,MacIntel,59.94125757,,,,,,,,,,,,,,,,,,masks/mask_003.jpg,,,,,,,,,,,,,,,,,,,,,,,,,,,,,,,,,,,,,,,,,,,,,,,,0,1,1,2,1,,,,,,,,,,,,,,,,,,,,,,,,,,,,,,,,,,,,,,,,,
653141,001,2022-11-20_17h48.58.984,Info_measure_main_exp,2022.2.2,MacIntel,59.94125757,,,,,,,,,,,,,,,,,,masks/mask_004.jpg,,,,,,,,,,,,,,,,,,,,,,,,,,,,,,,,,,,,,,,,,,,,,,,,0,2,2,3,1,,,,,,,,,,,,,,,,,,,,,,,,,,,,,,,,,,,,,,,,,
653141,001,2022-11-20_17h48.58.984,Info_measure_main_exp,2022.2.2,MacIntel,59.94125757,,,,,,,,,,,,,,,,,,masks/mask_005.jpg,,,,,,,,,,,,,,,,,,,,,,,,,,,,,,,,,,,,,,,,,,,,,,,,0,3,3,4,1,,,,,,,,,,,,,,,,,,,,,,,,,,,,,,,,,,,,,,,,,
653141,001,2022-11-20_17h48.58.984,Info_measure_main_exp,2022.2.2,MacIntel,59.94125757,,,,,,,,,,,,,,,,,,masks/mask_001.jpg,,,,,,,,,,,,,,,,,,,,,,,,,,,,,,,,,,,,,,,,,,,,,,,,0,4,4,0,1,,,,,,,,,,,,,,,,,,,,,,,,,,,,,,,,,,,,,,,,,
653141,001,2022-11-20_17h48.58.984,Info_measure_main_exp,2022.2.2,MacIntel,59.94125757,,,,,,,,,,,,,,,,,,,,,,,,,,,,,,7,0.6003,1,,,,,,,,,,,,1,131,5,5,1,1974,present_patch/cong_131_5_a.jpg,absent_patch/patch0001974.jpg,,,,,,,,,,,,,,,,,,,,0.038057002,0.120337818,1,0,0,response1disk,30,0.00327691,0.002549913,1,0,0,center_square,0,29,29,69,1,,,,,,,,,,,,,,,,,,,,,,,
653141,001,2022-11-20_17h48.58.984,Info_measure_main_exp,2022.2.2,MacIntel,59.94125757,,,,,,,,,,,,,,,,,,masks/mask_001.jpg,,,,,,,,,,,,,,,,,,,,,,,,,,,,,,,,,,,,,,,,,,,0,0,0,0,1,,,,,,,,,,,,,,,,,,,,,,,,,,,,,,,,,,,,,,,,,,,,,,
653141,001,2022-11-20_17h48.58.984,Info_measure_main_exp,2022.2.2,MacIntel,59.94125757,,,,,,,,,,,,,,,,,,masks/mask_002.jpg,,,,,,,,,,,,,,,,,,,,,,,,,,,,,,,,,,,,,,,,,,,0,1,1,1,1,,,,,,,,,,,,,,,,,,,,,,,,,,,,,,,,,,,,,,,,,,,,,,
653141,001,2022-11-20_17h48.58.984,Info_measure_main_exp,2022.2.2,MacIntel,59.94125757,,,,,,,,,,,,,,,,,,masks/mask_005.jpg,,,,,,,,,,,,,,,,,,,,,,,,,,,,,,,,,,,,,,,,,,,0,2,2,4,1,,,,,,,,,,,,,,,,,,,,,,,,,,,,,,,,,,,,,,,,,,,,,,
653141,001,2022-11-20_17h48.58.984,Info_measure_main_exp,2022.2.2,MacIntel,59.94125757,,,,,,,,,,,,,,,,,,masks/mask_003.jpg,,,,,,,,,,,,,,,,,,,,,,,,,,,,,,,,,,,,,,,,,,,0,3,3,2,1,,,,,,,,,,,,,,,,,,,,,,,,,,,,,,,,,,,,,,,,,,,,,,
653141,001,2022-11-20_17h48.58.984,Info_measure_main_exp,2022.2.2,MacIntel,59.94125757,,,,,,,,,,,,,,,,,,masks/mask_004.jpg,,,,,,,,,,,,,,,,,,,,,,,,,,,,,,,,,,,,,,,,,,,0,4,4,3,1,,,,,,,,,,,,,,,,,,,,,,,,,,,,,,,,,,,,,,,,,,,,,,
653141,001,2022-11-20_17h48.58.984,Info_measure_main_exp,2022.2.2,MacIntel,59.94125757,,,,,,,,,,,,,,,,,,masks/mask_001.jpg,,,,,,,,,,,,,,,,,,,,,,,,,,,,,,,,,,,,,,,,,,,,,,,,0,0,0,0,1,,,,,,,,,,,,,,,,,,,,,,,,,,,,,,,,,,,,,,,,,
653141,001,2022-11-20_17h48.58.984,Info_measure_main_exp,2022.2.2,MacIntel,59.94125757,,,,,,,,,,,,,,,,,,masks/mask_004.jpg,,,,,,,,,,,,,,,,,,,,,,,,,,,,,,,,,,,,,,,,,,,,,,,,0,1,1,3,1,,,,,,,,,,,,,,,,,,,,,,,,,,,,,,,,,,,,,,,,,
653141,001,2022-11-20_17h48.58.984,Info_measure_main_exp,2022.2.2,MacIntel,59.94125757,,,,,,,,,,,,,,,,,,masks/mask_005.jpg,,,,,,,,,,,,,,,,,,,,,,,,,,,,,,,,,,,,,,,,,,,,,,,,0,2,2,4,1,,,,,,,,,,,,,,,,,,,,,,,,,,,,,,,,,,,,,,,,,
653141,001,2022-11-20_17h48.58.984,Info_measure_main_exp,2022.2.2,MacIntel,59.94125757,,,,,,,,,,,,,,,,,,masks/mask_002.jpg,,,,,,,,,,,,,,,,,,,,,,,,,,,,,,,,,,,,,,,,,,,,,,,,0,3,3,1,1,,,,,,,,,,,,,,,,,,,,,,,,,,,,,,,,,,,,,,,,,
653141,001,2022-11-20_17h48.58.984,Info_measure_main_exp,2022.2.2,MacIntel,59.94125757,,,,,,,,,,,,,,,,,,masks/mask_003.jpg,,,,,,,,,,,,,,,,,,,,,,,,,,,,,,,,,,,,,,,,,,,,,,,,0,4,4,2,1,,,,,,,,,,,,,,,,,,,,,,,,,,,,,,,,,,,,,,,,,
653141,001,2022-11-20_17h48.58.984,Info_measure_main_exp,2022.2.2,MacIntel,59.94125757,,,,,,,,,,,,,,,,,,,,,,,,,,,,,,7,0.6335,1,,,,,,,,,,,,0,131,5,5,2082,2166,absent_patch/patch0002082.jpg,absent_patch/patch0002166.jpg,,,,,,,,,,,,,,,,,,,,0.067831308,0.149269387,1,0,0,response1disk,31,-0.003938802,-0.00052445,1,0,0,center_square,0,30,30,43,1,,,,,,,,,,,,,,,,,,,,,,,
653141,001,2022-11-20_17h48.58.984,Info_measure_main_exp,2022.2.2,MacIntel,59.94125757,,,,,,,,,,,,,,,,,,masks/mask_005.jpg,,,,,,,,,,,,,,,,,,,,,,,,,,,,,,,,,,,,,,,,,,,0,0,0,4,1,,,,,,,,,,,,,,,,,,,,,,,,,,,,,,,,,,,,,,,,,,,,,,
653141,001,2022-11-20_17h48.58.984,Info_measure_main_exp,2022.2.2,MacIntel,59.94125757,,,,,,,,,,,,,,,,,,masks/mask_003.jpg,,,,,,,,,,,,,,,,,,,,,,,,,,,,,,,,,,,,,,,,,,,0,1,1,2,1,,,,,,,,,,,,,,,,,,,,,,,,,,,,,,,,,,,,,,,,,,,,,,
653141,001,2022-11-20_17h48.58.984,Info_measure_main_exp,2022.2.2,MacIntel,59.94125757,,,,,,,,,,,,,,,,,,masks/mask_004.jpg,,,,,,,,,,,,,,,,,,,,,,,,,,,,,,,,,,,,,,,,,,,0,2,2,3,1,,,,,,,,,,,,,,,,,,,,,,,,,,,,,,,,,,,,,,,,,,,,,,
653141,001,2022-11-20_17h48.58.984,Info_measure_main_exp,2022.2.2,MacIntel,59.94125757,,,,,,,,,,,,,,,,,,masks/mask_001.jpg,,,,,,,,,,,,,,,,,,,,,,,,,,,,,,,,,,,,,,,,,,,0,3,3,0,1,,,,,,,,,,,,,,,,,,,,,,,,,,,,,,,,,,,,,,,,,,,,,,
653141,001,2022-11-20_17h48.58.984,Info_measure_main_exp,2022.2.2,MacIntel,59.94125757,,,,,,,,,,,,,,,,,,masks/mask_002.jpg,,,,,,,,,,,,,,,,,,,,,,,,,,,,,,,,,,,,,,,,,,,0,4,4,1,1,,,,,,,,,,,,,,,,,,,,,,,,,,,,,,,,,,,,,,,,,,,,,,
653141,001,2022-11-20_17h48.58.984,Info_measure_main_exp,2022.2.2,MacIntel,59.94125757,,,,,,,,,,,,,,,,,,masks/mask_005.jpg,,,,,,,,,,,,,,,,,,,,,,,,,,,,,,,,,,,,,,,,,,,,,,,,0,0,0,4,1,,,,,,,,,,,,,,,,,,,,,,,,,,,,,,,,,,,,,,,,,
653141,001,2022-11-20_17h48.58.984,Info_measure_main_exp,2022.2.2,MacIntel,59.94125757,,,,,,,,,,,,,,,,,,masks/mask_004.jpg,,,,,,,,,,,,,,,,,,,,,,,,,,,,,,,,,,,,,,,,,,,,,,,,0,1,1,3,1,,,,,,,,,,,,,,,,,,,,,,,,,,,,,,,,,,,,,,,,,
653141,001,2022-11-20_17h48.58.984,Info_measure_main_exp,2022.2.2,MacIntel,59.94125757,,,,,,,,,,,,,,,,,,masks/mask_001.jpg,,,,,,,,,,,,,,,,,,,,,,,,,,,,,,,,,,,,,,,,,,,,,,,,0,2,2,0,1,,,,,,,,,,,,,,,,,,,,,,,,,,,,,,,,,,,,,,,,,
653141,001,2022-11-20_17h48.58.984,Info_measure_main_exp,2022.2.2,MacIntel,59.94125757,,,,,,,,,,,,,,,,,,masks/mask_003.jpg,,,,,,,,,,,,,,,,,,,,,,,,,,,,,,,,,,,,,,,,,,,,,,,,0,3,3,2,1,,,,,,,,,,,,,,,,,,,,,,,,,,,,,,,,,,,,,,,,,
653141,001,2022-11-20_17h48.58.984,Info_measure_main_exp,2022.2.2,MacIntel,59.94125757,,,,,,,,,,,,,,,,,,masks/mask_002.jpg,,,,,,,,,,,,,,,,,,,,,,,,,,,,,,,,,,,,,,,,,,,,,,,,0,4,4,1,1,,,,,,,,,,,,,,,,,,,,,,,,,,,,,,,,,,,,,,,,,
653141,001,2022-11-20_17h48.58.984,Info_measure_main_exp,2022.2.2,MacIntel,59.94125757,,,,,,,,,,,,,,,,,,,,,,,,,,,,,,7,1.0005,1,,,,,,,,,,,,0,131,5,5,2298,2178,absent_patch/patch0002298.jpg,absent_patch/patch0002178.jpg,,,,,,,,,,,,,,,,,,,,0.040165654,0.085948351,1,0,0,response1disk,32,0.006448929,0.002369068,1,0,0,center_square,0,31,31,84,1,,,,,,,,,,,,,,,,,,,,,,,
653141,001,2022-11-20_17h48.58.984,Info_measure_main_exp,2022.2.2,MacIntel,59.94125757,,,,,,,,,,,,,,,,,,masks/mask_002.jpg,,,,,,,,,,,,,,,,,,,,,,,,,,,,,,,,,,,,,,,,,,,0,0,0,1,1,,,,,,,,,,,,,,,,,,,,,,,,,,,,,,,,,,,,,,,,,,,,,,
653141,001,2022-11-20_17h48.58.984,Info_measure_main_exp,2022.2.2,MacIntel,59.94125757,,,,,,,,,,,,,,,,,,masks/mask_003.jpg,,,,,,,,,,,,,,,,,,,,,,,,,,,,,,,,,,,,,,,,,,,0,1,1,2,1,,,,,,,,,,,,,,,,,,,,,,,,,,,,,,,,,,,,,,,,,,,,,,
653141,001,2022-11-20_17h48.58.984,Info_measure_main_exp,2022.2.2,MacIntel,59.94125757,,,,,,,,,,,,,,,,,,masks/mask_004.jpg,,,,,,,,,,,,,,,,,,,,,,,,,,,,,,,,,,,,,,,,,,,0,2,2,3,1,,,,,,,,,,,,,,,,,,,,,,,,,,,,,,,,,,,,,,,,,,,,,,
653141,001,2022-11-20_17h48.58.984,Info_measure_main_exp,2022.2.2,MacIntel,59.94125757,,,,,,,,,,,,,,,,,,masks/mask_001.jpg,,,,,,,,,,,,,,,,,,,,,,,,,,,,,,,,,,,,,,,,,,,0,3,3,0,1,,,,,,,,,,,,,,,,,,,,,,,,,,,,,,,,,,,,,,,,,,,,,,
653141,001,2022-11-20_17h48.58.984,Info_measure_main_exp,2022.2.2,MacIntel,59.94125757,,,,,,,,,,,,,,,,,,masks/mask_005.jpg,,,,,,,,,,,,,,,,,,,,,,,,,,,,,,,,,,,,,,,,,,,0,4,4,4,1,,,,,,,,,,,,,,,,,,,,,,,,,,,,,,,,,,,,,,,,,,,,,,
653141,001,2022-11-20_17h48.58.984,Info_measure_main_exp,2022.2.2,MacIntel,59.94125757,,,,,,,,,,,,,,,,,,masks/mask_001.jpg,,,,,,,,,,,,,,,,,,,,,,,,,,,,,,,,,,,,,,,,,,,,,,,,0,0,0,0,1,,,,,,,,,,,,,,,,,,,,,,,,,,,,,,,,,,,,,,,,,
653141,001,2022-11-20_17h48.58.984,Info_measure_main_exp,2022.2.2,MacIntel,59.94125757,,,,,,,,,,,,,,,,,,masks/mask_005.jpg,,,,,,,,,,,,,,,,,,,,,,,,,,,,,,,,,,,,,,,,,,,,,,,,0,1,1,4,1,,,,,,,,,,,,,,,,,,,,,,,,,,,,,,,,,,,,,,,,,
653141,001,2022-11-20_17h48.58.984,Info_measure_main_exp,2022.2.2,MacIntel,59.94125757,,,,,,,,,,,,,,,,,,masks/mask_002.jpg,,,,,,,,,,,,,,,,,,,,,,,,,,,,,,,,,,,,,,,,,,,,,,,,0,2,2,1,1,,,,,,,,,,,,,,,,,,,,,,,,,,,,,,,,,,,,,,,,,
653141,001,2022-11-20_17h48.58.984,Info_measure_main_exp,2022.2.2,MacIntel,59.94125757,,,,,,,,,,,,,,,,,,masks/mask_004.jpg,,,,,,,,,,,,,,,,,,,,,,,,,,,,,,,,,,,,,,,,,,,,,,,,0,3,3,3,1,,,,,,,,,,,,,,,,,,,,,,,,,,,,,,,,,,,,,,,,,
653141,001,2022-11-20_17h48.58.984,Info_measure_main_exp,2022.2.2,MacIntel,59.94125757,,,,,,,,,,,,,,,,,,masks/mask_003.jpg,,,,,,,,,,,,,,,,,,,,,,,,,,,,,,,,,,,,,,,,,,,,,,,,0,4,4,2,1,,,,,,,,,,,,,,,,,,,,,,,,,,,,,,,,,,,,,,,,,
653141,001,2022-11-20_17h48.58.984,Info_measure_main_exp,2022.2.2,MacIntel,59.94125757,,,,,,,,,,,,,,,,,,,,,,,,,,,,,,6,1.8857,1,,,,,,,,,,,,0,131,5,5,1974,2298,absent_patch/patch0001974.jpg,absent_patch/patch0002298.jpg,,,,,,,,,,,,,,,,,,,,0.076732494,0.045446325,1,0,0,response1disk,33,0.006217448,-0.001859086,1,0,0,center_square,0,32,32,6,1,,,,,,,,,,,,,,,,,,,,,,,
653141,001,2022-11-20_17h48.58.984,Info_measure_main_exp,2022.2.2,MacIntel,59.94125757,,,,,,,,,,,,,,,,,,masks/mask_003.jpg,,,,,,,,,,,,,,,,,,,,,,,,,,,,,,,,,,,,,,,,,,,0,0,0,2,1,,,,,,,,,,,,,,,,,,,,,,,,,,,,,,,,,,,,,,,,,,,,,,
653141,001,2022-11-20_17h48.58.984,Info_measure_main_exp,2022.2.2,MacIntel,59.94125757,,,,,,,,,,,,,,,,,,masks/mask_005.jpg,,,,,,,,,,,,,,,,,,,,,,,,,,,,,,,,,,,,,,,,,,,0,1,1,4,1,,,,,,,,,,,,,,,,,,,,,,,,,,,,,,,,,,,,,,,,,,,,,,
653141,001,2022-11-20_17h48.58.984,Info_measure_main_exp,2022.2.2,MacIntel,59.94125757,,,,,,,,,,,,,,,,,,masks/mask_004.jpg,,,,,,,,,,,,,,,,,,,,,,,,,,,,,,,,,,,,,,,,,,,0,2,2,3,1,,,,,,,,,,,,,,,,,,,,,,,,,,,,,,,,,,,,,,,,,,,,,,
653141,001,2022-11-20_17h48.58.984,Info_measure_main_exp,2022.2.2,MacIntel,59.94125757,,,,,,,,,,,,,,,,,,masks/mask_002.jpg,,,,,,,,,,,,,,,,,,,,,,,,,,,,,,,,,,,,,,,,,,,0,3,3,1,1,,,,,,,,,,,,,,,,,,,,,,,,,,,,,,,,,,,,,,,,,,,,,,
653141,001,2022-11-20_17h48.58.984,Info_measure_main_exp,2022.2.2,MacIntel,59.94125757,,,,,,,,,,,,,,,,,,masks/mask_001.jpg,,,,,,,,,,,,,,,,,,,,,,,,,,,,,,,,,,,,,,,,,,,0,4,4,0,1,,,,,,,,,,,,,,,,,,,,,,,,,,,,,,,,,,,,,,,,,,,,,,
653141,001,2022-11-20_17h48.58.984,Info_measure_main_exp,2022.2.2,MacIntel,59.94125757,,,,,,,,,,,,,,,,,,masks/mask_003.jpg,,,,,,,,,,,,,,,,,,,,,,,,,,,,,,,,,,,,,,,,,,,,,,,,0,0,0,2,1,,,,,,,,,,,,,,,,,,,,,,,,,,,,,,,,,,,,,,,,,
653141,001,2022-11-20_17h48.58.984,Info_measure_main_exp,2022.2.2,MacIntel,59.94125757,,,,,,,,,,,,,,,,,,masks/mask_004.jpg,,,,,,,,,,,,,,,,,,,,,,,,,,,,,,,,,,,,,,,,,,,,,,,,0,1,1,3,1,,,,,,,,,,,,,,,,,,,,,,,,,,,,,,,,,,,,,,,,,
653141,001,2022-11-20_17h48.58.984,Info_measure_main_exp,2022.2.2,MacIntel,59.94125757,,,,,,,,,,,,,,,,,,masks/mask_002.jpg,,,,,,,,,,,,,,,,,,,,,,,,,,,,,,,,,,,,,,,,,,,,,,,,0,2,2,1,1,,,,,,,,,,,,,,,,,,,,,,,,,,,,,,,,,,,,,,,,,
653141,001,2022-11-20_17h48.58.984,Info_measure_main_exp,2022.2.2,MacIntel,59.94125757,,,,,,,,,,,,,,,,,,masks/mask_001.jpg,,,,,,,,,,,,,,,,,,,,,,,,,,,,,,,,,,,,,,,,,,,,,,,,0,3,3,0,1,,,,,,,,,,,,,,,,,,,,,,,,,,,,,,,,,,,,,,,,,
653141,001,2022-11-20_17h48.58.984,Info_measure_main_exp,2022.2.2,MacIntel,59.94125757,,,,,,,,,,,,,,,,,,masks/mask_005.jpg,,,,,,,,,,,,,,,,,,,,,,,,,,,,,,,,,,,,,,,,,,,,,,,,0,4,4,4,1,,,,,,,,,,,,,,,,,,,,,,,,,,,,,,,,,,,,,,,,,
653141,001,2022-11-20_17h48.58.984,Info_measure_main_exp,2022.2.2,MacIntel,59.94125757,,,,,,,,,,,,,,,,,,,,,,,,,,,,,,2,3.8708,1,,,,,,,,,,,,0,131,5,5,1986,2154,absent_patch/patch0001986.jpg,absent_patch/patch0002154.jpg,,,,,,,,,,,,,,,,,,,,-0.081752749,-0.03375651,1,0,0,response5disk,34,-0.00405816,-0.001367187,1,0,0,center_square,0,33,33,36,1,,,,,,,,,,,,,,,,,,,,,,,
653141,001,2022-11-20_17h48.58.984,Info_measure_main_exp,2022.2.2,MacIntel,59.94125757,,,,,,,,,,,,,,,,,,masks/mask_005.jpg,,,,,,,,,,,,,,,,,,,,,,,,,,,,,,,,,,,,,,,,,,,0,0,0,4,1,,,,,,,,,,,,,,,,,,,,,,,,,,,,,,,,,,,,,,,,,,,,,,
653141,001,2022-11-20_17h48.58.984,Info_measure_main_exp,2022.2.2,MacIntel,59.94125757,,,,,,,,,,,,,,,,,,masks/mask_004.jpg,,,,,,,,,,,,,,,,,,,,,,,,,,,,,,,,,,,,,,,,,,,0,1,1,3,1,,,,,,,,,,,,,,,,,,,,,,,,,,,,,,,,,,,,,,,,,,,,,,
653141,001,2022-11-20_17h48.58.984,Info_measure_main_exp,2022.2.2,MacIntel,59.94125757,,,,,,,,,,,,,,,,,,masks/mask_001.jpg,,,,,,,,,,,,,,,,,,,,,,,,,,,,,,,,,,,,,,,,,,,0,2,2,0,1,,,,,,,,,,,,,,,,,,,,,,,,,,,,,,,,,,,,,,,,,,,,,,
