participant,session,date,expName,psychopyVersion,OS,frameRate,space_press_continue.keys,space_press_continue.rt,space_press_continue_2.keys,space_press_continue_2.rt,space_press_continue_3.keys,space_press_continue_3.rt,space_press_continue_4.keys,space_press_continue_4.rt,space_press_continue_5.keys,space_press_continue_5.rt,space_press_continue_6.keys,space_press_continue_6.rt,prac_mask_loop_1.thisRepN,prac_mask_loop_1.thisTrialN,prac_mask_loop_1.thisN,prac_mask_loop_1.thisIndex,prac_mask_loop_1.ran,mask_name,prac_mask_loop_2.thisRepN,prac_mask_loop_2.thisTrialN,prac_mask_loop_2.thisN,prac_mask_loop_2.thisIndex,prac_mask_loop_2.ran,mouse_2.x,mouse_2.y,mouse_2.leftButton,mouse_2.midButton,mouse_2.rightButton,mouse_2.clicked_name,similarity,response_time,Pass,mouse_12.x,mouse_12.y,mouse_12.leftButton,mouse_12.midButton,mouse_12.rightButton,mouse_12.clicked_name,prac_loop.thisRepN,prac_loop.thisTrialN,prac_loop.thisN,prac_loop.thisIndex,prac_loop.ran,Pair_type,Image_num,Patch_1_loc,Patch_2_loc,Patch_1_info,Patch_2_info,Patch_1_name,Patch_2_name,mouse_1.x,mouse_1.y,mouse_1.leftButton,mouse_1.midButton,mouse_1.rightButton,mouse_1.time,mouse_1.clicked_name,space_press_continue_7.keys,space_press_continue_7.rt,mask_loop.thisRepN,mask_loop.thisTrialN,mask_loop.thisN,mask_loop.thisIndex,mask_loop.ran,mask_loop_2.thisRepN,mask_loop_2.thisTrialN,mask_loop_2.thisN,mask_loop_2.thisIndex,mask_loop_2.ran,mouse.x,mouse.y,mouse.leftButton,mouse.midButton,mouse.rightButton,mouse.clicked_name,trialNumber,mouse_11.x,mouse_11.y,mouse_11.leftButton,mouse_11.midButton,mouse_11.rightButton,mouse_11.clicked_name,first_pass_loop.thisRepN,first_pass_loop.thisTrialN,first_pass_loop.thisN,first_pass_loop.thisIndex,first_pass_loop.ran,mask_loop_3.thisRepN,mask_loop_3.thisTrialN,mask_loop_3.thisN,mask_loop_3.thisIndex,mask_loop_3.ran,mask_loop_4.thisRepN,mask_loop_4.thisTrialN,mask_loop_4.thisN,mask_loop_4.thisIndex,mask_loop_4.ran,mouse_3.x,mouse_3.y,mouse_3.leftButton,mouse_3.midButton,mouse_3.rightButton,mouse_3.clicked_name,double_pass_loop.thisRepN,double_pass_loop.thisTrialN,double_pass_loop.thisN,double_pass_loop.thisIndex,double_pass_loop.ran,space_exit.keys,space_exit.rt
661162,001,2022-11-13_18h01.01.892,Info_measure_main_exp,2022.2.2,Win32,59.58055291,,,,,,,,,,,,,,,,,,,,,,,,,,,,,,,,,,,,,,,,,,,,,,,,,,,,,,,,,,,,,,,,,,,,,,,,,,,,,,,,,,,,,,,,,,,,,,,,,,,,,,,,,,,,,,,
661162,001,2022-11-13_18h01.01.892,Info_measure_main_exp,2022.2.2,Win32,59.58055291,,,,,,,,,,,,,,,,,,,,,,,,,,,,,,,,,,,,,,,,,,,,,,,,,,,,,,,,,,,,,,,,,,,,,,,,,,,,,,,,,,,,,,,,,,,,,,,,,,,,,,,,,,,,,,,
661162,001,2022-11-13_18h01.01.892,Info_measure_main_exp,2022.2.2,Win32,59.58055291,space,41.1132,,,,,,,,,,,,,,,,,,,,,,,,,,,,,,,,,,,,,,,,,,,,,,,,,,,,,,,,,,,,,,,,,,,,,,,,,,,,,,,,,,,,,,,,,,,,,,,,,,,,,,,,,,,,,
661162,001,2022-11-13_18h01.01.892,Info_measure_main_exp,2022.2.2,Win32,59.58055291,,,space,389.2424,,,,,,,,,,,,,,,,,,,,,,,,,,,,,,,,,,,,,,,,,,,,,,,,,,,,,,,,,,,,,,,,,,,,,,,,,,,,,,,,,,,,,,,,,,,,,,,,,,,,,,,,,,,
661162,001,2022-11-13_18h01.01.892,Info_measure_main_exp,2022.2.2,Win32,59.58055291,,,,,space,6.0781,,,,,,,,,,,,,,,,,,,,,,,,,,,,,,,,,,,,,,,,,,,,,,,,,,,,,,,,,,,,,,,,,,,,,,,,,,,,,,,,,,,,,,,,,,,,,,,,,,,,,,,,,
661162,001,2022-11-13_18h01.01.892,Info_measure_main_exp,2022.2.2,Win32,59.58055291,,,,,,,space,19.2421,,,,,,,,,,,,,,,,,,,,,,,,,,,,,,,,,,,,,,,,,,,,,,,,,,,,,,,,,,,,,,,,,,,,,,,,,,,,,,,,,,,,,,,,,,,,,,,,,,,,,,,
661162,001,2022-11-13_18h01.01.892,Info_measure_main_exp,2022.2.2,Win32,59.58055291,,,,,,,,,space,8.4531,,,,,,,,,,,,,,,,,,,,,,,,,,,,,,,,,,,,,,,,,,,,,,,,,,,,,,,,,,,,,,,,,,,,,,,,,,,,,,,,,,,,,,,,,,,,,,,,,,,,,
661162,001,2022-11-13_18h01.01.892,Info_measure_main_exp,2022.2.2,Win32,59.58055291,,,,,,,,,,,space,87.2414,,,,,,,,,,,,,,,,,,,,,,,,,,,,,,,,,,,,,,,,,,,,,,,,,,,,,,,,,,,,,,,,,,,,,,,,,,,,,,,,,,,,,,,,,,,,,,,,,,,
661162,001,2022-11-13_18h01.01.892,Info_measure_main_exp,2022.2.2,Win32,59.58055291,,,,,,,,,,,,,0,0,0,1,1,masks/mask_002.jpg,,,,,,,,,,,,,,,,,,,,,,,,,,,,,,,,,,,,,,,,,,,,,,,,,,,,,,,,,,,,,,,,,,,,,,,,,,,,,,,,,,,,,,,,,,,,,
661162,001,2022-11-13_18h01.01.892,Info_measure_main_exp,2022.2.2,Win32,59.58055291,,,,,,,,,,,,,0,1,1,0,1,masks/mask_001.jpg,,,,,,,,,,,,,,,,,,,,,,,,,,,,,,,,,,,,,,,,,,,,,,,,,,,,,,,,,,,,,,,,,,,,,,,,,,,,,,,,,,,,,,,,,,,,,
661162,001,2022-11-13_18h01.01.892,Info_measure_main_exp,2022.2.2,Win32,59.58055291,,,,,,,,,,,,,0,2,2,2,1,masks/mask_003.jpg,,,,,,,,,,,,,,,,,,,,,,,,,,,,,,,,,,,,,,,,,,,,,,,,,,,,,,,,,,,,,,,,,,,,,,,,,,,,,,,,,,,,,,,,,,,,,
661162,001,2022-11-13_18h01.01.892,Info_measure_main_exp,2022.2.2,Win32,59.58055291,,,,,,,,,,,,,0,3,3,3,1,masks/mask_004.jpg,,,,,,,,,,,,,,,,,,,,,,,,,,,,,,,,,,,,,,,,,,,,,,,,,,,,,,,,,,,,,,,,,,,,,,,,,,,,,,,,,,,,,,,,,,,,,
661162,001,2022-11-13_18h01.01.892,Info_measure_main_exp,2022.2.2,Win32,59.58055291,,,,,,,,,,,,,0,4,4,4,1,masks/mask_005.jpg,,,,,,,,,,,,,,,,,,,,,,,,,,,,,,,,,,,,,,,,,,,,,,,,,,,,,,,,,,,,,,,,,,,,,,,,,,,,,,,,,,,,,,,,,,,,,
661162,001,2022-11-13_18h01.01.892,Info_measure_main_exp,2022.2.2,Win32,59.58055291,,,,,,,,,,,,,,,,,,masks/mask_005.jpg,0,0,0,4,1,,,,,,,,,,,,,,,,,,,,,,,,,,,,,,,,,,,,,,,,,,,,,,,,,,,,,,,,,,,,,,,,,,,,,,,,,,,,,,,,,,,,,,,,
661162,001,2022-11-13_18h01.01.892,Info_measure_main_exp,2022.2.2,Win32,59.58055291,,,,,,,,,,,,,,,,,,masks/mask_004.jpg,0,1,1,3,1,,,,,,,,,,,,,,,,,,,,,,,,,,,,,,,,,,,,,,,,,,,,,,,,,,,,,,,,,,,,,,,,,,,,,,,,,,,,,,,,,,,,,,,,
661162,001,2022-11-13_18h01.01.892,Info_measure_main_exp,2022.2.2,Win32,59.58055291,,,,,,,,,,,,,,,,,,masks/mask_003.jpg,0,2,2,2,1,,,,,,,,,,,,,,,,,,,,,,,,,,,,,,,,,,,,,,,,,,,,,,,,,,,,,,,,,,,,,,,,,,,,,,,,,,,,,,,,,,,,,,,,
661162,001,2022-11-13_18h01.01.892,Info_measure_main_exp,2022.2.2,Win32,59.58055291,,,,,,,,,,,,,,,,,,masks/mask_002.jpg,0,3,3,1,1,,,,,,,,,,,,,,,,,,,,,,,,,,,,,,,,,,,,,,,,,,,,,,,,,,,,,,,,,,,,,,,,,,,,,,,,,,,,,,,,,,,,,,,,
661162,001,2022-11-13_18h01.01.892,Info_measure_main_exp,2022.2.2,Win32,59.58055291,,,,,,,,,,,,,,,,,,masks/mask_001.jpg,0,4,4,0,1,,,,,,,,,,,,,,,,,,,,,,,,,,,,,,,,,,,,,,,,,,,,,,,,,,,,,,,,,,,,,,,,,,,,,,,,,,,,,,,,,,,,,,,,
661162,001,2022-11-13_18h01.01.892,Info_measure_main_exp,2022.2.2,Win32,59.58055291,,,,,,,,,,,,,,,,,,,,,,,,0.072916667,0.110677083,1,0,0,response1disk,7,558.3554,1,-0.005208333,-0.00390625,1,0,0,center_square,0,0,0,0,1,0,131,5,5,2370,2406,prac_patch/patch0002370.jpg,prac_patch/patch0002406.jpg,,,,,,,,,,,,,,,,,,,,,,,,,,,,,,,,,,,,,,,,,,,,,,,,,,,,,,,,,,,,
661162,001,2022-11-13_18h01.01.892,Info_measure_main_exp,2022.2.2,Win32,59.58055291,,,,,,,,,,,,,0,0,0,1,1,masks/mask_002.jpg,,,,,,,,,,,,,,,,,,,,,,,,,,,,,,,,,,,,,,,,,,,,,,,,,,,,,,,,,,,,,,,,,,,,,,,,,,,,,,,,,,,,,,,,,,,,,
661162,001,2022-11-13_18h01.01.892,Info_measure_main_exp,2022.2.2,Win32,59.58055291,,,,,,,,,,,,,0,1,1,3,1,masks/mask_004.jpg,,,,,,,,,,,,,,,,,,,,,,,,,,,,,,,,,,,,,,,,,,,,,,,,,,,,,,,,,,,,,,,,,,,,,,,,,,,,,,,,,,,,,,,,,,,,,
661162,001,2022-11-13_18h01.01.892,Info_measure_main_exp,2022.2.2,Win32,59.58055291,,,,,,,,,,,,,0,2,2,0,1,masks/mask_001.jpg,,,,,,,,,,,,,,,,,,,,,,,,,,,,,,,,,,,,,,,,,,,,,,,,,,,,,,,,,,,,,,,,,,,,,,,,,,,,,,,,,,,,,,,,,,,,,
661162,001,2022-11-13_18h01.01.892,Info_measure_main_exp,2022.2.2,Win32,59.58055291,,,,,,,,,,,,,0,3,3,2,1,masks/mask_003.jpg,,,,,,,,,,,,,,,,,,,,,,,,,,,,,,,,,,,,,,,,,,,,,,,,,,,,,,,,,,,,,,,,,,,,,,,,,,,,,,,,,,,,,,,,,,,,,
661162,001,2022-11-13_18h01.01.892,Info_measure_main_exp,2022.2.2,Win32,59.58055291,,,,,,,,,,,,,0,4,4,4,1,masks/mask_005.jpg,,,,,,,,,,,,,,,,,,,,,,,,,,,,,,,,,,,,,,,,,,,,,,,,,,,,,,,,,,,,,,,,,,,,,,,,,,,,,,,,,,,,,,,,,,,,,
661162,001,2022-11-13_18h01.01.892,Info_measure_main_exp,2022.2.2,Win32,59.58055291,,,,,,,,,,,,,,,,,,masks/mask_004.jpg,0,0,0,3,1,,,,,,,,,,,,,,,,,,,,,,,,,,,,,,,,,,,,,,,,,,,,,,,,,,,,,,,,,,,,,,,,,,,,,,,,,,,,,,,,,,,,,,,,
661162,001,2022-11-13_18h01.01.892,Info_measure_main_exp,2022.2.2,Win32,59.58055291,,,,,,,,,,,,,,,,,,masks/mask_003.jpg,0,1,1,2,1,,,,,,,,,,,,,,,,,,,,,,,,,,,,,,,,,,,,,,,,,,,,,,,,,,,,,,,,,,,,,,,,,,,,,,,,,,,,,,,,,,,,,,,,
661162,001,2022-11-13_18h01.01.892,Info_measure_main_exp,2022.2.2,Win32,59.58055291,,,,,,,,,,,,,,,,,,masks/mask_001.jpg,0,2,2,0,1,,,,,,,,,,,,,,,,,,,,,,,,,,,,,,,,,,,,,,,,,,,,,,,,,,,,,,,,,,,,,,,,,,,,,,,,,,,,,,,,,,,,,,,,
661162,001,2022-11-13_18h01.01.892,Info_measure_main_exp,2022.2.2,Win32,59.58055291,,,,,,,,,,,,,,,,,,masks/mask_005.jpg,0,3,3,4,1,,,,,,,,,,,,,,,,,,,,,,,,,,,,,,,,,,,,,,,,,,,,,,,,,,,,,,,,,,,,,,,,,,,,,,,,,,,,,,,,,,,,,,,,
661162,001,2022-11-13_18h01.01.892,Info_measure_main_exp,2022.2.2,Win32,59.58055291,,,,,,,,,,,,,,,,,,masks/mask_002.jpg,0,4,4,1,1,,,,,,,,,,,,,,,,,,,,,,,,,,,,,,,,,,,,,,,,,,,,,,,,,,,,,,,,,,,,,,,,,,,,,,,,,,,,,,,,,,,,,,,,
661162,001,2022-11-13_18h01.01.892,Info_measure_main_exp,2022.2.2,Win32,59.58055291,,,,,,,,,,,,,,,,,,,,,,,,-0.104166667,-0.057291667,1,0,0,response5disk,2,570.9235,1,-0.00390625,-0.009114583,1,0,0,center_square,0,1,1,2,1,0,131,5,5,2526,2526,prac_patch/patch0002526.jpg,prac_patch/patch0002526.jpg,,,,,,,,,,,,,,,,,,,,,,,,,,,,,,,,,,,,,,,,,,,,,,,,,,,,,,,,,,,,
661162,001,2022-11-13_18h01.01.892,Info_measure_main_exp,2022.2.2,Win32,59.58055291,,,,,,,,,,,,,0,0,0,2,1,masks/mask_003.jpg,,,,,,,,,,,,,,,,,,,,,,,,,,,,,,,,,,,,,,,,,,,,,,,,,,,,,,,,,,,,,,,,,,,,,,,,,,,,,,,,,,,,,,,,,,,,,
661162,001,2022-11-13_18h01.01.892,Info_measure_main_exp,2022.2.2,Win32,59.58055291,,,,,,,,,,,,,0,1,1,4,1,masks/mask_005.jpg,,,,,,,,,,,,,,,,,,,,,,,,,,,,,,,,,,,,,,,,,,,,,,,,,,,,,,,,,,,,,,,,,,,,,,,,,,,,,,,,,,,,,,,,,,,,,
661162,001,2022-11-13_18h01.01.892,Info_measure_main_exp,2022.2.2,Win32,59.58055291,,,,,,,,,,,,,0,2,2,1,1,masks/mask_002.jpg,,,,,,,,,,,,,,,,,,,,,,,,,,,,,,,,,,,,,,,,,,,,,,,,,,,,,,,,,,,,,,,,,,,,,,,,,,,,,,,,,,,,,,,,,,,,,
661162,001,2022-11-13_18h01.01.892,Info_measure_main_exp,2022.2.2,Win32,59.58055291,,,,,,,,,,,,,0,3,3,0,1,masks/mask_001.jpg,,,,,,,,,,,,,,,,,,,,,,,,,,,,,,,,,,,,,,,,,,,,,,,,,,,,,,,,,,,,,,,,,,,,,,,,,,,,,,,,,,,,,,,,,,,,,
661162,001,2022-11-13_18h01.01.892,Info_measure_main_exp,2022.2.2,Win32,59.58055291,,,,,,,,,,,,,0,4,4,3,1,masks/mask_004.jpg,,,,,,,,,,,,,,,,,,,,,,,,,,,,,,,,,,,,,,,,,,,,,,,,,,,,,,,,,,,,,,,,,,,,,,,,,,,,,,,,,,,,,,,,,,,,,
661162,001,2022-11-13_18h01.01.892,Info_measure_main_exp,2022.2.2,Win32,59.58055291,,,,,,,,,,,,,,,,,,masks/mask_001.jpg,0,0,0,0,1,,,,,,,,,,,,,,,,,,,,,,,,,,,,,,,,,,,,,,,,,,,,,,,,,,,,,,,,,,,,,,,,,,,,,,,,,,,,,,,,,,,,,,,,
661162,001,2022-11-13_18h01.01.892,Info_measure_main_exp,2022.2.2,Win32,59.58055291,,,,,,,,,,,,,,,,,,masks/mask_004.jpg,0,1,1,3,1,,,,,,,,,,,,,,,,,,,,,,,,,,,,,,,,,,,,,,,,,,,,,,,,,,,,,,,,,,,,,,,,,,,,,,,,,,,,,,,,,,,,,,,,
661162,001,2022-11-13_18h01.01.892,Info_measure_main_exp,2022.2.2,Win32,59.58055291,,,,,,,,,,,,,,,,,,masks/mask_003.jpg,0,2,2,2,1,,,,,,,,,,,,,,,,,,,,,,,,,,,,,,,,,,,,,,,,,,,,,,,,,,,,,,,,,,,,,,,,,,,,,,,,,,,,,,,,,,,,,,,,
661162,001,2022-11-13_18h01.01.892,Info_measure_main_exp,2022.2.2,Win32,59.58055291,,,,,,,,,,,,,,,,,,masks/mask_005.jpg,0,3,3,4,1,,,,,,,,,,,,,,,,,,,,,,,,,,,,,,,,,,,,,,,,,,,,,,,,,,,,,,,,,,,,,,,,,,,,,,,,,,,,,,,,,,,,,,,,
661162,001,2022-11-13_18h01.01.892,Info_measure_main_exp,2022.2.2,Win32,59.58055291,,,,,,,,,,,,,,,,,,masks/mask_002.jpg,0,4,4,1,1,,,,,,,,,,,,,,,,,,,,,,,,,,,,,,,,,,,,,,,,,,,,,,,,,,,,,,,,,,,,,,,,,,,,,,,,,,,,,,,,,,,,,,,,
661162,001,2022-11-13_18h01.01.892,Info_measure_main_exp,2022.2.2,Win32,59.58055291,,,,,,,,,,,,,,,,,,,,,,,,-0.041666667,0.08203125,1,0,0,response7disk,0,690.1923,1,0.005208333,0.001302083,1,0,0,center_square,0,2,2,1,1,0,131,5,5,2514,2490,prac_patch/patch0002514.jpg,prac_patch/patch0002490.jpg,,,,,,,,,,,,,,,,,,,,,,,,,,,,,,,,,,,,,,,,,,,,,,,,,,,,,,,,,,,,
661162,001,2022-11-13_18h01.01.892,Info_measure_main_exp,2022.2.2,Win32,59.58055291,,,,,,,,,,,,,,,,,,,,,,,,,,,,,,,,,,,,,,,,,,,,,,,,,,,,,,,,,,,space,3.909,,,,,,,,,,,,,,,,,,,,,,,,,,,,,,,,,,,,,,,,,,,,,,,,,,,
661162,001,2022-11-13_18h01.01.892,Info_measure_main_exp,2022.2.2,Win32,59.58055291,,,,,,,,,,,,,,,,,,masks/mask_003.jpg,,,,,,,,,,,,,,,,,,,,,,,,,,,,,,,,,,,,,,,,,,,0,0,0,2,1,,,,,,,,,,,,,,,,,,,,,,,,,,,,,,,,,,,,,,,,,,,,,,
661162,001,2022-11-13_18h01.01.892,Info_measure_main_exp,2022.2.2,Win32,59.58055291,,,,,,,,,,,,,,,,,,masks/mask_004.jpg,,,,,,,,,,,,,,,,,,,,,,,,,,,,,,,,,,,,,,,,,,,0,1,1,3,1,,,,,,,,,,,,,,,,,,,,,,,,,,,,,,,,,,,,,,,,,,,,,,
661162,001,2022-11-13_18h01.01.892,Info_measure_main_exp,2022.2.2,Win32,59.58055291,,,,,,,,,,,,,,,,,,masks/mask_001.jpg,,,,,,,,,,,,,,,,,,,,,,,,,,,,,,,,,,,,,,,,,,,0,2,2,0,1,,,,,,,,,,,,,,,,,,,,,,,,,,,,,,,,,,,,,,,,,,,,,,
661162,001,2022-11-13_18h01.01.892,Info_measure_main_exp,2022.2.2,Win32,59.58055291,,,,,,,,,,,,,,,,,,masks/mask_005.jpg,,,,,,,,,,,,,,,,,,,,,,,,,,,,,,,,,,,,,,,,,,,0,3,3,4,1,,,,,,,,,,,,,,,,,,,,,,,,,,,,,,,,,,,,,,,,,,,,,,
661162,001,2022-11-13_18h01.01.892,Info_measure_main_exp,2022.2.2,Win32,59.58055291,,,,,,,,,,,,,,,,,,masks/mask_002.jpg,,,,,,,,,,,,,,,,,,,,,,,,,,,,,,,,,,,,,,,,,,,0,4,4,1,1,,,,,,,,,,,,,,,,,,,,,,,,,,,,,,,,,,,,,,,,,,,,,,
661162,001,2022-11-13_18h01.01.892,Info_measure_main_exp,2022.2.2,Win32,59.58055291,,,,,,,,,,,,,,,,,,masks/mask_002.jpg,,,,,,,,,,,,,,,,,,,,,,,,,,,,,,,,,,,,,,,,,,,,,,,,0,0,0,1,1,,,,,,,,,,,,,,,,,,,,,,,,,,,,,,,,,,,,,,,,,
661162,001,2022-11-13_18h01.01.892,Info_measure_main_exp,2022.2.2,Win32,59.58055291,,,,,,,,,,,,,,,,,,masks/mask_004.jpg,,,,,,,,,,,,,,,,,,,,,,,,,,,,,,,,,,,,,,,,,,,,,,,,0,1,1,3,1,,,,,,,,,,,,,,,,,,,,,,,,,,,,,,,,,,,,,,,,,
661162,001,2022-11-13_18h01.01.892,Info_measure_main_exp,2022.2.2,Win32,59.58055291,,,,,,,,,,,,,,,,,,masks/mask_005.jpg,,,,,,,,,,,,,,,,,,,,,,,,,,,,,,,,,,,,,,,,,,,,,,,,0,2,2,4,1,,,,,,,,,,,,,,,,,,,,,,,,,,,,,,,,,,,,,,,,,
661162,001,2022-11-13_18h01.01.892,Info_measure_main_exp,2022.2.2,Win32,59.58055291,,,,,,,,,,,,,,,,,,masks/mask_003.jpg,,,,,,,,,,,,,,,,,,,,,,,,,,,,,,,,,,,,,,,,,,,,,,,,0,3,3,2,1,,,,,,,,,,,,,,,,,,,,,,,,,,,,,,,,,,,,,,,,,
661162,001,2022-11-13_18h01.01.892,Info_measure_main_exp,2022.2.2,Win32,59.58055291,,,,,,,,,,,,,,,,,,masks/mask_001.jpg,,,,,,,,,,,,,,,,,,,,,,,,,,,,,,,,,,,,,,,,,,,,,,,,0,4,4,0,1,,,,,,,,,,,,,,,,,,,,,,,,,,,,,,,,,,,,,,,,,
661162,001,2022-11-13_18h01.01.892,Info_measure_main_exp,2022.2.2,Win32,59.58055291,,,,,,,,,,,,,,,,,,,,,,,,,,,,,,6,3.1334,1,,,,,,,,,,,,0,131,5,5,2214,2082,absent_patch/patch0002214.jpg,absent_patch/patch0002082.jpg,,,,,,,,,,,,,,,,,,,,0.091145833,0.041666667,1,0,0,response1disk,1,-0.002604167,-0.002604167,1,0,0,center_square,0,0,0,103,1,,,,,,,,,,,,,,,,,,,,,,,
661162,001,2022-11-13_18h01.01.892,Info_measure_main_exp,2022.2.2,Win32,59.58055291,,,,,,,,,,,,,,,,,,masks/mask_001.jpg,,,,,,,,,,,,,,,,,,,,,,,,,,,,,,,,,,,,,,,,,,,0,0,0,0,1,,,,,,,,,,,,,,,,,,,,,,,,,,,,,,,,,,,,,,,,,,,,,,
661162,001,2022-11-13_18h01.01.892,Info_measure_main_exp,2022.2.2,Win32,59.58055291,,,,,,,,,,,,,,,,,,masks/mask_003.jpg,,,,,,,,,,,,,,,,,,,,,,,,,,,,,,,,,,,,,,,,,,,0,1,1,2,1,,,,,,,,,,,,,,,,,,,,,,,,,,,,,,,,,,,,,,,,,,,,,,
661162,001,2022-11-13_18h01.01.892,Info_measure_main_exp,2022.2.2,Win32,59.58055291,,,,,,,,,,,,,,,,,,masks/mask_005.jpg,,,,,,,,,,,,,,,,,,,,,,,,,,,,,,,,,,,,,,,,,,,0,2,2,4,1,,,,,,,,,,,,,,,,,,,,,,,,,,,,,,,,,,,,,,,,,,,,,,
661162,001,2022-11-13_18h01.01.892,Info_measure_main_exp,2022.2.2,Win32,59.58055291,,,,,,,,,,,,,,,,,,masks/mask_002.jpg,,,,,,,,,,,,,,,,,,,,,,,,,,,,,,,,,,,,,,,,,,,0,3,3,1,1,,,,,,,,,,,,,,,,,,,,,,,,,,,,,,,,,,,,,,,,,,,,,,
661162,001,2022-11-13_18h01.01.892,Info_measure_main_exp,2022.2.2,Win32,59.58055291,,,,,,,,,,,,,,,,,,masks/mask_004.jpg,,,,,,,,,,,,,,,,,,,,,,,,,,,,,,,,,,,,,,,,,,,0,4,4,3,1,,,,,,,,,,,,,,,,,,,,,,,,,,,,,,,,,,,,,,,,,,,,,,
661162,001,2022-11-13_18h01.01.892,Info_measure_main_exp,2022.2.2,Win32,59.58055291,,,,,,,,,,,,,,,,,,masks/mask_004.jpg,,,,,,,,,,,,,,,,,,,,,,,,,,,,,,,,,,,,,,,,,,,,,,,,0,0,0,3,1,,,,,,,,,,,,,,,,,,,,,,,,,,,,,,,,,,,,,,,,,
661162,001,2022-11-13_18h01.01.892,Info_measure_main_exp,2022.2.2,Win32,59.58055291,,,,,,,,,,,,,,,,,,masks/mask_002.jpg,,,,,,,,,,,,,,,,,,,,,,,,,,,,,,,,,,,,,,,,,,,,,,,,0,1,1,1,1,,,,,,,,,,,,,,,,,,,,,,,,,,,,,,,,,,,,,,,,,
661162,001,2022-11-13_18h01.01.892,Info_measure_main_exp,2022.2.2,Win32,59.58055291,,,,,,,,,,,,,,,,,,masks/mask_003.jpg,,,,,,,,,,,,,,,,,,,,,,,,,,,,,,,,,,,,,,,,,,,,,,,,0,2,2,2,1,,,,,,,,,,,,,,,,,,,,,,,,,,,,,,,,,,,,,,,,,
661162,001,2022-11-13_18h01.01.892,Info_measure_main_exp,2022.2.2,Win32,59.58055291,,,,,,,,,,,,,,,,,,masks/mask_005.jpg,,,,,,,,,,,,,,,,,,,,,,,,,,,,,,,,,,,,,,,,,,,,,,,,0,3,3,4,1,,,,,,,,,,,,,,,,,,,,,,,,,,,,,,,,,,,,,,,,,
661162,001,2022-11-13_18h01.01.892,Info_measure_main_exp,2022.2.2,Win32,59.58055291,,,,,,,,,,,,,,,,,,masks/mask_001.jpg,,,,,,,,,,,,,,,,,,,,,,,,,,,,,,,,,,,,,,,,,,,,,,,,0,4,4,0,1,,,,,,,,,,,,,,,,,,,,,,,,,,,,,,,,,,,,,,,,,
661162,001,2022-11-13_18h01.01.892,Info_measure_main_exp,2022.2.2,Win32,59.58055291,,,,,,,,,,,,,,,,,,,,,,,,,,,,,,7,1.6165,1,,,,,,,,,,,,0,131,5,5,2250,2178,absent_patch/patch0002250.jpg,absent_patch/patch0002178.jpg,,,,,,,,,,,,,,,,,,,,0.026041667,0.162760417,1,0,0,response1disk,2,-0.00390625,-0.002604167,1,0,0,center_square,0,1,1,48,1,,,,,,,,,,,,,,,,,,,,,,,
661162,001,2022-11-13_18h01.01.892,Info_measure_main_exp,2022.2.2,Win32,59.58055291,,,,,,,,,,,,,,,,,,masks/mask_002.jpg,,,,,,,,,,,,,,,,,,,,,,,,,,,,,,,,,,,,,,,,,,,0,0,0,1,1,,,,,,,,,,,,,,,,,,,,,,,,,,,,,,,,,,,,,,,,,,,,,,
661162,001,2022-11-13_18h01.01.892,Info_measure_main_exp,2022.2.2,Win32,59.58055291,,,,,,,,,,,,,,,,,,masks/mask_004.jpg,,,,,,,,,,,,,,,,,,,,,,,,,,,,,,,,,,,,,,,,,,,0,1,1,3,1,,,,,,,,,,,,,,,,,,,,,,,,,,,,,,,,,,,,,,,,,,,,,,
661162,001,2022-11-13_18h01.01.892,Info_measure_main_exp,2022.2.2,Win32,59.58055291,,,,,,,,,,,,,,,,,,masks/mask_003.jpg,,,,,,,,,,,,,,,,,,,,,,,,,,,,,,,,,,,,,,,,,,,0,2,2,2,1,,,,,,,,,,,,,,,,,,,,,,,,,,,,,,,,,,,,,,,,,,,,,,
661162,001,2022-11-13_18h01.01.892,Info_measure_main_exp,2022.2.2,Win32,59.58055291,,,,,,,,,,,,,,,,,,masks/mask_005.jpg,,,,,,,,,,,,,,,,,,,,,,,,,,,,,,,,,,,,,,,,,,,0,3,3,4,1,,,,,,,,,,,,,,,,,,,,,,,,,,,,,,,,,,,,,,,,,,,,,,
661162,001,2022-11-13_18h01.01.892,Info_measure_main_exp,2022.2.2,Win32,59.58055291,,,,,,,,,,,,,,,,,,masks/mask_001.jpg,,,,,,,,,,,,,,,,,,,,,,,,,,,,,,,,,,,,,,,,,,,0,4,4,0,1,,,,,,,,,,,,,,,,,,,,,,,,,,,,,,,,,,,,,,,,,,,,,,
661162,001,2022-11-13_18h01.01.892,Info_measure_main_exp,2022.2.2,Win32,59.58055291,,,,,,,,,,,,,,,,,,masks/mask_004.jpg,,,,,,,,,,,,,,,,,,,,,,,,,,,,,,,,,,,,,,,,,,,,,,,,0,0,0,3,1,,,,,,,,,,,,,,,,,,,,,,,,,,,,,,,,,,,,,,,,,
661162,001,2022-11-13_18h01.01.892,Info_measure_main_exp,2022.2.2,Win32,59.58055291,,,,,,,,,,,,,,,,,,masks/mask_005.jpg,,,,,,,,,,,,,,,,,,,,,,,,,,,,,,,,,,,,,,,,,,,,,,,,0,1,1,4,1,,,,,,,,,,,,,,,,,,,,,,,,,,,,,,,,,,,,,,,,,
661162,001,2022-11-13_18h01.01.892,Info_measure_main_exp,2022.2.2,Win32,59.58055291,,,,,,,,,,,,,,,,,,masks/mask_003.jpg,,,,,,,,,,,,,,,,,,,,,,,,,,,,,,,,,,,,,,,,,,,,,,,,0,2,2,2,1,,,,,,,,,,,,,,,,,,,,,,,,,,,,,,,,,,,,,,,,,
661162,001,2022-11-13_18h01.01.892,Info_measure_main_exp,2022.2.2,Win32,59.58055291,,,,,,,,,,,,,,,,,,masks/mask_002.jpg,,,,,,,,,,,,,,,,,,,,,,,,,,,,,,,,,,,,,,,,,,,,,,,,0,3,3,1,1,,,,,,,,,,,,,,,,,,,,,,,,,,,,,,,,,,,,,,,,,
661162,001,2022-11-13_18h01.01.892,Info_measure_main_exp,2022.2.2,Win32,59.58055291,,,,,,,,,,,,,,,,,,masks/mask_001.jpg,,,,,,,,,,,,,,,,,,,,,,,,,,,,,,,,,,,,,,,,,,,,,,,,0,4,4,0,1,,,,,,,,,,,,,,,,,,,,,,,,,,,,,,,,,,,,,,,,,
661162,001,2022-11-13_18h01.01.892,Info_measure_main_exp,2022.2.2,Win32,59.58055291,,,,,,,,,,,,,,,,,,,,,,,,,,,,,,7,0.9988,1,,,,,,,,,,,,0,131,5,5,2298,2274,absent_patch/patch0002298.jpg,absent_patch/patch0002274.jpg,,,,,,,,,,,,,,,,,,,,0.028645833,0.095052083,1,0,0,response1disk,3,0.002604167,0.006510417,1,0,0,center_square,0,2,2,1,1,,,,,,,,,,,,,,,,,,,,,,,
661162,001,2022-11-13_18h01.01.892,Info_measure_main_exp,2022.2.2,Win32,59.58055291,,,,,,,,,,,,,,,,,,masks/mask_005.jpg,,,,,,,,,,,,,,,,,,,,,,,,,,,,,,,,,,,,,,,,,,,0,0,0,4,1,,,,,,,,,,,,,,,,,,,,,,,,,,,,,,,,,,,,,,,,,,,,,,
661162,001,2022-11-13_18h01.01.892,Info_measure_main_exp,2022.2.2,Win32,59.58055291,,,,,,,,,,,,,,,,,,masks/mask_004.jpg,,,,,,,,,,,,,,,,,,,,,,,,,,,,,,,,,,,,,,,,,,,0,1,1,3,1,,,,,,,,,,,,,,,,,,,,,,,,,,,,,,,,,,,,,,,,,,,,,,
661162,001,2022-11-13_18h01.01.892,Info_measure_main_exp,2022.2.2,Win32,59.58055291,,,,,,,,,,,,,,,,,,masks/mask_002.jpg,,,,,,,,,,,,,,,,,,,,,,,,,,,,,,,,,,,,,,,,,,,0,2,2,1,1,,,,,,,,,,,,,,,,,,,,,,,,,,,,,,,,,,,,,,,,,,,,,,
661162,001,2022-11-13_18h01.01.892,Info_measure_main_exp,2022.2.2,Win32,59.58055291,,,,,,,,,,,,,,,,,,masks/mask_003.jpg,,,,,,,,,,,,,,,,,,,,,,,,,,,,,,,,,,,,,,,,,,,0,3,3,2,1,,,,,,,,,,,,,,,,,,,,,,,,,,,,,,,,,,,,,,,,,,,,,,
661162,001,2022-11-13_18h01.01.892,Info_measure_main_exp,2022.2.2,Win32,59.58055291,,,,,,,,,,,,,,,,,,masks/mask_001.jpg,,,,,,,,,,,,,,,,,,,,,,,,,,,,,,,,,,,,,,,,,,,0,4,4,0,1,,,,,,,,,,,,,,,,,,,,,,,,,,,,,,,,,,,,,,,,,,,,,,
661162,001,2022-11-13_18h01.01.892,Info_measure_main_exp,2022.2.2,Win32,59.58055291,,,,,,,,,,,,,,,,,,masks/mask_005.jpg,,,,,,,,,,,,,,,,,,,,,,,,,,,,,,,,,,,,,,,,,,,,,,,,0,0,0,4,1,,,,,,,,,,,,,,,,,,,,,,,,,,,,,,,,,,,,,,,,,
661162,001,2022-11-13_18h01.01.892,Info_measure_main_exp,2022.2.2,Win32,59.58055291,,,,,,,,,,,,,,,,,,masks/mask_004.jpg,,,,,,,,,,,,,,,,,,,,,,,,,,,,,,,,,,,,,,,,,,,,,,,,0,1,1,3,1,,,,,,,,,,,,,,,,,,,,,,,,,,,,,,,,,,,,,,,,,
661162,001,2022-11-13_18h01.01.892,Info_measure_main_exp,2022.2.2,Win32,59.58055291,,,,,,,,,,,,,,,,,,masks/mask_003.jpg,,,,,,,,,,,,,,,,,,,,,,,,,,,,,,,,,,,,,,,,,,,,,,,,0,2,2,2,1,,,,,,,,,,,,,,,,,,,,,,,,,,,,,,,,,,,,,,,,,
661162,001,2022-11-13_18h01.01.892,Info_measure_main_exp,2022.2.2,Win32,59.58055291,,,,,,,,,,,,,,,,,,masks/mask_001.jpg,,,,,,,,,,,,,,,,,,,,,,,,,,,,,,,,,,,,,,,,,,,,,,,,0,3,3,0,1,,,,,,,,,,,,,,,,,,,,,,,,,,,,,,,,,,,,,,,,,
661162,001,2022-11-13_18h01.01.892,Info_measure_main_exp,2022.2.2,Win32,59.58055291,,,,,,,,,,,,,,,,,,masks/mask_002.jpg,,,,,,,,,,,,,,,,,,,,,,,,,,,,,,,,,,,,,,,,,,,,,,,,0,4,4,1,1,,,,,,,,,,,,,,,,,,,,,,,,,,,,,,,,,,,,,,,,,
661162,001,2022-11-13_18h01.01.892,Info_measure_main_exp,2022.2.2,Win32,59.58055291,,,,,,,,,,,,,,,,,,,,,,,,,,,,,,5,2.0829,1,,,,,,,,,,,,0,131,5,5,2178,2178,absent_patch/patch0002178.jpg,absent_patch/patch0002178.jpg,,,,,,,,,,,,,,,,,,,,0.109375,-0.016927083,1,0,0,response3disk,4,0.001302083,-0.005208333,1,0,0,center_square,0,3,3,98,1,,,,,,,,,,,,,,,,,,,,,,,
661162,001,2022-11-13_18h01.01.892,Info_measure_main_exp,2022.2.2,Win32,59.58055291,,,,,,,,,,,,,,,,,,masks/mask_005.jpg,,,,,,,,,,,,,,,,,,,,,,,,,,,,,,,,,,,,,,,,,,,0,0,0,4,1,,,,,,,,,,,,,,,,,,,,,,,,,,,,,,,,,,,,,,,,,,,,,,
661162,001,2022-11-13_18h01.01.892,Info_measure_main_exp,2022.2.2,Win32,59.58055291,,,,,,,,,,,,,,,,,,masks/mask_003.jpg,,,,,,,,,,,,,,,,,,,,,,,,,,,,,,,,,,,,,,,,,,,0,1,1,2,1,,,,,,,,,,,,,,,,,,,,,,,,,,,,,,,,,,,,,,,,,,,,,,
661162,001,2022-11-13_18h01.01.892,Info_measure_main_exp,2022.2.2,Win32,59.58055291,,,,,,,,,,,,,,,,,,masks/mask_001.jpg,,,,,,,,,,,,,,,,,,,,,,,,,,,,,,,,,,,,,,,,,,,0,2,2,0,1,,,,,,,,,,,,,,,,,,,,,,,,,,,,,,,,,,,,,,,,,,,,,,
661162,001,2022-11-13_18h01.01.892,Info_measure_main_exp,2022.2.2,Win32,59.58055291,,,,,,,,,,,,,,,,,,masks/mask_004.jpg,,,,,,,,,,,,,,,,,,,,,,,,,,,,,,,,,,,,,,,,,,,0,3,3,3,1,,,,,,,,,,,,,,,,,,,,,,,,,,,,,,,,,,,,,,,,,,,,,,
661162,001,2022-11-13_18h01.01.892,Info_measure_main_exp,2022.2.2,Win32,59.58055291,,,,,,,,,,,,,,,,,,masks/mask_002.jpg,,,,,,,,,,,,,,,,,,,,,,,,,,,,,,,,,,,,,,,,,,,0,4,4,1,1,,,,,,,,,,,,,,,,,,,,,,,,,,,,,,,,,,,,,,,,,,,,,,
661162,001,2022-11-13_18h01.01.892,Info_measure_main_exp,2022.2.2,Win32,59.58055291,,,,,,,,,,,,,,,,,,masks/mask_002.jpg,,,,,,,,,,,,,,,,,,,,,,,,,,,,,,,,,,,,,,,,,,,,,,,,0,0,0,1,1,,,,,,,,,,,,,,,,,,,,,,,,,,,,,,,,,,,,,,,,,
661162,001,2022-11-13_18h01.01.892,Info_measure_main_exp,2022.2.2,Win32,59.58055291,,,,,,,,,,,,,,,,,,masks/mask_003.jpg,,,,,,,,,,,,,,,,,,,,,,,,,,,,,,,,,,,,,,,,,,,,,,,,0,1,1,2,1,,,,,,,,,,,,,,,,,,,,,,,,,,,,,,,,,,,,,,,,,
661162,001,2022-11-13_18h01.01.892,Info_measure_main_exp,2022.2.2,Win32,59.58055291,,,,,,,,,,,,,,,,,,masks/mask_005.jpg,,,,,,,,,,,,,,,,,,,,,,,,,,,,,,,,,,,,,,,,,,,,,,,,0,2,2,4,1,,,,,,,,,,,,,,,,,,,,,,,,,,,,,,,,,,,,,,,,,
661162,001,2022-11-13_18h01.01.892,Info_measure_main_exp,2022.2.2,Win32,59.58055291,,,,,,,,,,,,,,,,,,masks/mask_001.jpg,,,,,,,,,,,,,,,,,,,,,,,,,,,,,,,,,,,,,,,,,,,,,,,,0,3,3,0,1,,,,,,,,,,,,,,,,,,,,,,,,,,,,,,,,,,,,,,,,,
661162,001,2022-11-13_18h01.01.892,Info_measure_main_exp,2022.2.2,Win32,59.58055291,,,,,,,,,,,,,,,,,,masks/mask_004.jpg,,,,,,,,,,,,,,,,,,,,,,,,,,,,,,,,,,,,,,,,,,,,,,,,0,4,4,3,1,,,,,,,,,,,,,,,,,,,,,,,,,,,,,,,,,,,,,,,,,
661162,001,2022-11-13_18h01.01.892,Info_measure_main_exp,2022.2.2,Win32,59.58055291,,,,,,,,,,,,,,,,,,,,,,,,,,,,,,3,15.1294,1,,,,,,,,,,,,1,131,5,5,2238,1,absent_patch/patch0002238.jpg,present_patch/cong_131_5_a.jpg,,,,,,,,,,,,,,,,,,,,-0.016927083,-0.07421875,1,0,0,response5disk,5,0.00390625,-0.0078125,1,0,0,center_square,0,4,4,104,1,,,,,,,,,,,,,,,,,,,,,,,
661162,001,2022-11-13_18h01.01.892,Info_measure_main_exp,2022.2.2,Win32,59.58055291,,,,,,,,,,,,,,,,,,masks/mask_001.jpg,,,,,,,,,,,,,,,,,,,,,,,,,,,,,,,,,,,,,,,,,,,0,0,0,0,1,,,,,,,,,,,,,,,,,,,,,,,,,,,,,,,,,,,,,,,,,,,,,,
661162,001,2022-11-13_18h01.01.892,Info_measure_main_exp,2022.2.2,Win32,59.58055291,,,,,,,,,,,,,,,,,,masks/mask_004.jpg,,,,,,,,,,,,,,,,,,,,,,,,,,,,,,,,,,,,,,,,,,,0,1,1,3,1,,,,,,,,,,,,,,,,,,,,,,,,,,,,,,,,,,,,,,,,,,,,,,
661162,001,2022-11-13_18h01.01.892,Info_measure_main_exp,2022.2.2,Win32,59.58055291,,,,,,,,,,,,,,,,,,masks/mask_003.jpg,,,,,,,,,,,,,,,,,,,,,,,,,,,,,,,,,,,,,,,,,,,0,2,2,2,1,,,,,,,,,,,,,,,,,,,,,,,,,,,,,,,,,,,,,,,,,,,,,,
661162,001,2022-11-13_18h01.01.892,Info_measure_main_exp,2022.2.2,Win32,59.58055291,,,,,,,,,,,,,,,,,,masks/mask_005.jpg,,,,,,,,,,,,,,,,,,,,,,,,,,,,,,,,,,,,,,,,,,,0,3,3,4,1,,,,,,,,,,,,,,,,,,,,,,,,,,,,,,,,,,,,,,,,,,,,,,
661162,001,2022-11-13_18h01.01.892,Info_measure_main_exp,2022.2.2,Win32,59.58055291,,,,,,,,,,,,,,,,,,masks/mask_002.jpg,,,,,,,,,,,,,,,,,,,,,,,,,,,,,,,,,,,,,,,,,,,0,4,4,1,1,,,,,,,,,,,,,,,,,,,,,,,,,,,,,,,,,,,,,,,,,,,,,,
661162,001,2022-11-13_18h01.01.892,Info_measure_main_exp,2022.2.2,Win32,59.58055291,,,,,,,,,,,,,,,,,,masks/mask_001.jpg,,,,,,,,,,,,,,,,,,,,,,,,,,,,,,,,,,,,,,,,,,,,,,,,0,0,0,0,1,,,,,,,,,,,,,,,,,,,,,,,,,,,,,,,,,,,,,,,,,
661162,001,2022-11-13_18h01.01.892,Info_measure_main_exp,2022.2.2,Win32,59.58055291,,,,,,,,,,,,,,,,,,masks/mask_005.jpg,,,,,,,,,,,,,,,,,,,,,,,,,,,,,,,,,,,,,,,,,,,,,,,,0,1,1,4,1,,,,,,,,,,,,,,,,,,,,,,,,,,,,,,,,,,,,,,,,,
661162,001,2022-11-13_18h01.01.892,Info_measure_main_exp,2022.2.2,Win32,59.58055291,,,,,,,,,,,,,,,,,,masks/mask_002.jpg,,,,,,,,,,,,,,,,,,,,,,,,,,,,,,,,,,,,,,,,,,,,,,,,0,2,2,1,1,,,,,,,,,,,,,,,,,,,,,,,,,,,,,,,,,,,,,,,,,
661162,001,2022-11-13_18h01.01.892,Info_measure_main_exp,2022.2.2,Win32,59.58055291,,,,,,,,,,,,,,,,,,masks/mask_003.jpg,,,,,,,,,,,,,,,,,,,,,,,,,,,,,,,,,,,,,,,,,,,,,,,,0,3,3,2,1,,,,,,,,,,,,,,,,,,,,,,,,,,,,,,,,,,,,,,,,,
661162,001,2022-11-13_18h01.01.892,Info_measure_main_exp,2022.2.2,Win32,59.58055291,,,,,,,,,,,,,,,,,,masks/mask_004.jpg,,,,,,,,,,,,,,,,,,,,,,,,,,,,,,,,,,,,,,,,,,,,,,,,0,4,4,3,1,,,,,,,,,,,,,,,,,,,,,,,,,,,,,,,,,,,,,,,,,
661162,001,2022-11-13_18h01.01.892,Info_measure_main_exp,2022.2.2,Win32,59.58055291,,,,,,,,,,,,,,,,,,,,,,,,,,,,,,7,1.2167,1,,,,,,,,,,,,0,131,5,5,1986,1974,absent_patch/patch0001986.jpg,absent_patch/patch0001974.jpg,,,,,,,,,,,,,,,,,,,,0.0234375,0.104166667,1,0,0,response1disk,6,0.002604167,0.002604167,1,0,0,center_square,0,5,5,25,1,,,,,,,,,,,,,,,,,,,,,,,
661162,001,2022-11-13_18h01.01.892,Info_measure_main_exp,2022.2.2,Win32,59.58055291,,,,,,,,,,,,,,,,,,masks/mask_001.jpg,,,,,,,,,,,,,,,,,,,,,,,,,,,,,,,,,,,,,,,,,,,0,0,0,0,1,,,,,,,,,,,,,,,,,,,,,,,,,,,,,,,,,,,,,,,,,,,,,,
661162,001,2022-11-13_18h01.01.892,Info_measure_main_exp,2022.2.2,Win32,59.58055291,,,,,,,,,,,,,,,,,,masks/mask_004.jpg,,,,,,,,,,,,,,,,,,,,,,,,,,,,,,,,,,,,,,,,,,,0,1,1,3,1,,,,,,,,,,,,,,,,,,,,,,,,,,,,,,,,,,,,,,,,,,,,,,
661162,001,2022-11-13_18h01.01.892,Info_measure_main_exp,2022.2.2,Win32,59.58055291,,,,,,,,,,,,,,,,,,masks/mask_003.jpg,,,,,,,,,,,,,,,,,,,,,,,,,,,,,,,,,,,,,,,,,,,0,2,2,2,1,,,,,,,,,,,,,,,,,,,,,,,,,,,,,,,,,,,,,,,,,,,,,,
661162,001,2022-11-13_18h01.01.892,Info_measure_main_exp,2022.2.2,Win32,59.58055291,,,,,,,,,,,,,,,,,,masks/mask_005.jpg,,,,,,,,,,,,,,,,,,,,,,,,,,,,,,,,,,,,,,,,,,,0,3,3,4,1,,,,,,,,,,,,,,,,,,,,,,,,,,,,,,,,,,,,,,,,,,,,,,
661162,001,2022-11-13_18h01.01.892,Info_measure_main_exp,2022.2.2,Win32,59.58055291,,,,,,,,,,,,,,,,,,masks/mask_002.jpg,,,,,,,,,,,,,,,,,,,,,,,,,,,,,,,,,,,,,,,,,,,0,4,4,1,1,,,,,,,,,,,,,,,,,,,,,,,,,,,,,,,,,,,,,,,,,,,,,,
661162,001,2022-11-13_18h01.01.892,Info_measure_main_exp,2022.2.2,Win32,59.58055291,,,,,,,,,,,,,,,,,,masks/mask_001.jpg,,,,,,,,,,,,,,,,,,,,,,,,,,,,,,,,,,,,,,,,,,,,,,,,0,0,0,0,1,,,,,,,,,,,,,,,,,,,,,,,,,,,,,,,,,,,,,,,,,
661162,001,2022-11-13_18h01.01.892,Info_measure_main_exp,2022.2.2,Win32,59.58055291,,,,,,,,,,,,,,,,,,masks/mask_004.jpg,,,,,,,,,,,,,,,,,,,,,,,,,,,,,,,,,,,,,,,,,,,,,,,,0,1,1,3,1,,,,,,,,,,,,,,,,,,,,,,,,,,,,,,,,,,,,,,,,,
661162,001,2022-11-13_18h01.01.892,Info_measure_main_exp,2022.2.2,Win32,59.58055291,,,,,,,,,,,,,,,,,,masks/mask_005.jpg,,,,,,,,,,,,,,,,,,,,,,,,,,,,,,,,,,,,,,,,,,,,,,,,0,2,2,4,1,,,,,,,,,,,,,,,,,,,,,,,,,,,,,,,,,,,,,,,,,
661162,001,2022-11-13_18h01.01.892,Info_measure_main_exp,2022.2.2,Win32,59.58055291,,,,,,,,,,,,,,,,,,masks/mask_002.jpg,,,,,,,,,,,,,,,,,,,,,,,,,,,,,,,,,,,,,,,,,,,,,,,,0,3,3,1,1,,,,,,,,,,,,,,,,,,,,,,,,,,,,,,,,,,,,,,,,,
661162,001,2022-11-13_18h01.01.892,Info_measure_main_exp,2022.2.2,Win32,59.58055291,,,,,,,,,,,,,,,,,,masks/mask_003.jpg,,,,,,,,,,,,,,,,,,,,,,,,,,,,,,,,,,,,,,,,,,,,,,,,0,4,4,2,1,,,,,,,,,,,,,,,,,,,,,,,,,,,,,,,,,,,,,,,,,
661162,001,2022-11-13_18h01.01.892,Info_measure_main_exp,2022.2.2,Win32,59.58055291,,,,,,,,,,,,,,,,,,,,,,,,,,,,,,6,1.5165,1,,,,,,,,,,,,1,131,5,5,1,2166,present_patch/cong_131_5_a.jpg,absent_patch/patch0002166.jpg,,,,,,,,,,,,,,,,,,,,0.0625,0.0390625,1,0,0,response1disk,7,0.006510417,-0.002604167,1,0,0,center_square,0,6,6,54,1,,,,,,,,,,,,,,,,,,,,,,,
661162,001,2022-11-13_18h01.01.892,Info_measure_main_exp,2022.2.2,Win32,59.58055291,,,,,,,,,,,,,,,,,,masks/mask_002.jpg,,,,,,,,,,,,,,,,,,,,,,,,,,,,,,,,,,,,,,,,,,,0,0,0,1,1,,,,,,,,,,,,,,,,,,,,,,,,,,,,,,,,,,,,,,,,,,,,,,
661162,001,2022-11-13_18h01.01.892,Info_measure_main_exp,2022.2.2,Win32,59.58055291,,,,,,,,,,,,,,,,,,masks/mask_001.jpg,,,,,,,,,,,,,,,,,,,,,,,,,,,,,,,,,,,,,,,,,,,0,1,1,0,1,,,,,,,,,,,,,,,,,,,,,,,,,,,,,,,,,,,,,,,,,,,,,,
661162,001,2022-11-13_18h01.01.892,Info_measure_main_exp,2022.2.2,Win32,59.58055291,,,,,,,,,,,,,,,,,,masks/mask_003.jpg,,,,,,,,,,,,,,,,,,,,,,,,,,,,,,,,,,,,,,,,,,,0,2,2,2,1,,,,,,,,,,,,,,,,,,,,,,,,,,,,,,,,,,,,,,,,,,,,,,
661162,001,2022-11-13_18h01.01.892,Info_measure_main_exp,2022.2.2,Win32,59.58055291,,,,,,,,,,,,,,,,,,masks/mask_005.jpg,,,,,,,,,,,,,,,,,,,,,,,,,,,,,,,,,,,,,,,,,,,0,3,3,4,1,,,,,,,,,,,,,,,,,,,,,,,,,,,,,,,,,,,,,,,,,,,,,,
661162,001,2022-11-13_18h01.01.892,Info_measure_main_exp,2022.2.2,Win32,59.58055291,,,,,,,,,,,,,,,,,,masks/mask_004.jpg,,,,,,,,,,,,,,,,,,,,,,,,,,,,,,,,,,,,,,,,,,,0,4,4,3,1,,,,,,,,,,,,,,,,,,,,,,,,,,,,,,,,,,,,,,,,,,,,,,
661162,001,2022-11-13_18h01.01.892,Info_measure_main_exp,2022.2.2,Win32,59.58055291,,,,,,,,,,,,,,,,,,masks/mask_003.jpg,,,,,,,,,,,,,,,,,,,,,,,,,,,,,,,,,,,,,,,,,,,,,,,,0,0,0,2,1,,,,,,,,,,,,,,,,,,,,,,,,,,,,,,,,,,,,,,,,,
661162,001,2022-11-13_18h01.01.892,Info_measure_main_exp,2022.2.2,Win32,59.58055291,,,,,,,,,,,,,,,,,,masks/mask_004.jpg,,,,,,,,,,,,,,,,,,,,,,,,,,,,,,,,,,,,,,,,,,,,,,,,0,1,1,3,1,,,,,,,,,,,,,,,,,,,,,,,,,,,,,,,,,,,,,,,,,
661162,001,2022-11-13_18h01.01.892,Info_measure_main_exp,2022.2.2,Win32,59.58055291,,,,,,,,,,,,,,,,,,masks/mask_005.jpg,,,,,,,,,,,,,,,,,,,,,,,,,,,,,,,,,,,,,,,,,,,,,,,,0,2,2,4,1,,,,,,,,,,,,,,,,,,,,,,,,,,,,,,,,,,,,,,,,,
661162,001,2022-11-13_18h01.01.892,Info_measure_main_exp,2022.2.2,Win32,59.58055291,,,,,,,,,,,,,,,,,,masks/mask_002.jpg,,,,,,,,,,,,,,,,,,,,,,,,,,,,,,,,,,,,,,,,,,,,,,,,0,3,3,1,1,,,,,,,,,,,,,,,,,,,,,,,,,,,,,,,,,,,,,,,,,
661162,001,2022-11-13_18h01.01.892,Info_measure_main_exp,2022.2.2,Win32,59.58055291,,,,,,,,,,,,,,,,,,masks/mask_001.jpg,,,,,,,,,,,,,,,,,,,,,,,,,,,,,,,,,,,,,,,,,,,,,,,,0,4,4,0,1,,,,,,,,,,,,,,,,,,,,,,,,,,,,,,,,,,,,,,,,,
661162,001,2022-11-13_18h01.01.892,Info_measure_main_exp,2022.2.2,Win32,59.58055291,,,,,,,,,,,,,,,,,,,,,,,,,,,,,,4,2.3829,1,,,,,,,,,,,,0,131,5,5,2178,2154,absent_patch/patch0002178.jpg,absent_patch/patch0002154.jpg,,,,,,,,,,,,,,,,,,,,0.032552083,-0.091145833,1,0,0,response3disk,8,-0.001302083,0.005208333,1,0,0,center_square,0,7,7,63,1,,,,,,,,,,,,,,,,,,,,,,,
661162,001,2022-11-13_18h01.01.892,Info_measure_main_exp,2022.2.2,Win32,59.58055291,,,,,,,,,,,,,,,,,,masks/mask_001.jpg,,,,,,,,,,,,,,,,,,,,,,,,,,,,,,,,,,,,,,,,,,,0,0,0,0,1,,,,,,,,,,,,,,,,,,,,,,,,,,,,,,,,,,,,,,,,,,,,,,
661162,001,2022-11-13_18h01.01.892,Info_measure_main_exp,2022.2.2,Win32,59.58055291,,,,,,,,,,,,,,,,,,masks/mask_003.jpg,,,,,,,,,,,,,,,,,,,,,,,,,,,,,,,,,,,,,,,,,,,0,1,1,2,1,,,,,,,,,,,,,,,,,,,,,,,,,,,,,,,,,,,,,,,,,,,,,,
661162,001,2022-11-13_18h01.01.892,Info_measure_main_exp,2022.2.2,Win32,59.58055291,,,,,,,,,,,,,,,,,,masks/mask_004.jpg,,,,,,,,,,,,,,,,,,,,,,,,,,,,,,,,,,,,,,,,,,,0,2,2,3,1,,,,,,,,,,,,,,,,,,,,,,,,,,,,,,,,,,,,,,,,,,,,,,
661162,001,2022-11-13_18h01.01.892,Info_measure_main_exp,2022.2.2,Win32,59.58055291,,,,,,,,,,,,,,,,,,masks/mask_002.jpg,,,,,,,,,,,,,,,,,,,,,,,,,,,,,,,,,,,,,,,,,,,0,3,3,1,1,,,,,,,,,,,,,,,,,,,,,,,,,,,,,,,,,,,,,,,,,,,,,,
661162,001,2022-11-13_18h01.01.892,Info_measure_main_exp,2022.2.2,Win32,59.58055291,,,,,,,,,,,,,,,,,,masks/mask_005.jpg,,,,,,,,,,,,,,,,,,,,,,,,,,,,,,,,,,,,,,,,,,,0,4,4,4,1,,,,,,,,,,,,,,,,,,,,,,,,,,,,,,,,,,,,,,,,,,,,,,
661162,001,2022-11-13_18h01.01.892,Info_measure_main_exp,2022.2.2,Win32,59.58055291,,,,,,,,,,,,,,,,,,masks/mask_001.jpg,,,,,,,,,,,,,,,,,,,,,,,,,,,,,,,,,,,,,,,,,,,,,,,,0,0,0,0,1,,,,,,,,,,,,,,,,,,,,,,,,,,,,,,,,,,,,,,,,,
661162,001,2022-11-13_18h01.01.892,Info_measure_main_exp,2022.2.2,Win32,59.58055291,,,,,,,,,,,,,,,,,,masks/mask_003.jpg,,,,,,,,,,,,,,,,,,,,,,,,,,,,,,,,,,,,,,,,,,,,,,,,0,1,1,2,1,,,,,,,,,,,,,,,,,,,,,,,,,,,,,,,,,,,,,,,,,
661162,001,2022-11-13_18h01.01.892,Info_measure_main_exp,2022.2.2,Win32,59.58055291,,,,,,,,,,,,,,,,,,masks/mask_002.jpg,,,,,,,,,,,,,,,,,,,,,,,,,,,,,,,,,,,,,,,,,,,,,,,,0,2,2,1,1,,,,,,,,,,,,,,,,,,,,,,,,,,,,,,,,,,,,,,,,,
661162,001,2022-11-13_18h01.01.892,Info_measure_main_exp,2022.2.2,Win32,59.58055291,,,,,,,,,,,,,,,,,,masks/mask_004.jpg,,,,,,,,,,,,,,,,,,,,,,,,,,,,,,,,,,,,,,,,,,,,,,,,0,3,3,3,1,,,,,,,,,,,,,,,,,,,,,,,,,,,,,,,,,,,,,,,,,
661162,001,2022-11-13_18h01.01.892,Info_measure_main_exp,2022.2.2,Win32,59.58055291,,,,,,,,,,,,,,,,,,masks/mask_005.jpg,,,,,,,,,,,,,,,,,,,,,,,,,,,,,,,,,,,,,,,,,,,,,,,,0,4,4,4,1,,,,,,,,,,,,,,,,,,,,,,,,,,,,,,,,,,,,,,,,,
661162,001,2022-11-13_18h01.01.892,Info_measure_main_exp,2022.2.2,Win32,59.58055291,,,,,,,,,,,,,,,,,,,,,,,,,,,,,,7,0.9669,1,,,,,,,,,,,,0,131,5,5,2082,2154,absent_patch/patch0002082.jpg,absent_patch/patch0002154.jpg,,,,,,,,,,,,,,,,,,,,0.029947917,0.078125,1,0,0,response1disk,9,0.005208333,-0.005208333,1,0,0,center_square,0,8,8,33,1,,,,,,,,,,,,,,,,,,,,,,,
661162,001,2022-11-13_18h01.01.892,Info_measure_main_exp,2022.2.2,Win32,59.58055291,,,,,,,,,,,,,,,,,,masks/mask_003.jpg,,,,,,,,,,,,,,,,,,,,,,,,,,,,,,,,,,,,,,,,,,,0,0,0,2,1,,,,,,,,,,,,,,,,,,,,,,,,,,,,,,,,,,,,,,,,,,,,,,
661162,001,2022-11-13_18h01.01.892,Info_measure_main_exp,2022.2.2,Win32,59.58055291,,,,,,,,,,,,,,,,,,masks/mask_004.jpg,,,,,,,,,,,,,,,,,,,,,,,,,,,,,,,,,,,,,,,,,,,0,1,1,3,1,,,,,,,,,,,,,,,,,,,,,,,,,,,,,,,,,,,,,,,,,,,,,,
661162,001,2022-11-13_18h01.01.892,Info_measure_main_exp,2022.2.2,Win32,59.58055291,,,,,,,,,,,,,,,,,,masks/mask_001.jpg,,,,,,,,,,,,,,,,,,,,,,,,,,,,,,,,,,,,,,,,,,,0,2,2,0,1,,,,,,,,,,,,,,,,,,,,,,,,,,,,,,,,,,,,,,,,,,,,,,
661162,001,2022-11-13_18h01.01.892,Info_measure_main_exp,2022.2.2,Win32,59.58055291,,,,,,,,,,,,,,,,,,masks/mask_002.jpg,,,,,,,,,,,,,,,,,,,,,,,,,,,,,,,,,,,,,,,,,,,0,3,3,1,1,,,,,,,,,,,,,,,,,,,,,,,,,,,,,,,,,,,,,,,,,,,,,,
661162,001,2022-11-13_18h01.01.892,Info_measure_main_exp,2022.2.2,Win32,59.58055291,,,,,,,,,,,,,,,,,,masks/mask_005.jpg,,,,,,,,,,,,,,,,,,,,,,,,,,,,,,,,,,,,,,,,,,,0,4,4,4,1,,,,,,,,,,,,,,,,,,,,,,,,,,,,,,,,,,,,,,,,,,,,,,
661162,001,2022-11-13_18h01.01.892,Info_measure_main_exp,2022.2.2,Win32,59.58055291,,,,,,,,,,,,,,,,,,masks/mask_004.jpg,,,,,,,,,,,,,,,,,,,,,,,,,,,,,,,,,,,,,,,,,,,,,,,,0,0,0,3,1,,,,,,,,,,,,,,,,,,,,,,,,,,,,,,,,,,,,,,,,,
661162,001,2022-11-13_18h01.01.892,Info_measure_main_exp,2022.2.2,Win32,59.58055291,,,,,,,,,,,,,,,,,,masks/mask_003.jpg,,,,,,,,,,,,,,,,,,,,,,,,,,,,,,,,,,,,,,,,,,,,,,,,0,1,1,2,1,,,,,,,,,,,,,,,,,,,,,,,,,,,,,,,,,,,,,,,,,
661162,001,2022-11-13_18h01.01.892,Info_measure_main_exp,2022.2.2,Win32,59.58055291,,,,,,,,,,,,,,,,,,masks/mask_002.jpg,,,,,,,,,,,,,,,,,,,,,,,,,,,,,,,,,,,,,,,,,,,,,,,,0,2,2,1,1,,,,,,,,,,,,,,,,,,,,,,,,,,,,,,,,,,,,,,,,,
661162,001,2022-11-13_18h01.01.892,Info_measure_main_exp,2022.2.2,Win32,59.58055291,,,,,,,,,,,,,,,,,,masks/mask_001.jpg,,,,,,,,,,,,,,,,,,,,,,,,,,,,,,,,,,,,,,,,,,,,,,,,0,3,3,0,1,,,,,,,,,,,,,,,,,,,,,,,,,,,,,,,,,,,,,,,,,
661162,001,2022-11-13_18h01.01.892,Info_measure_main_exp,2022.2.2,Win32,59.58055291,,,,,,,,,,,,,,,,,,masks/mask_005.jpg,,,,,,,,,,,,,,,,,,,,,,,,,,,,,,,,,,,,,,,,,,,,,,,,0,4,4,4,1,,,,,,,,,,,,,,,,,,,,,,,,,,,,,,,,,,,,,,,,,
661162,001,2022-11-13_18h01.01.892,Info_measure_main_exp,2022.2.2,Win32,59.58055291,,,,,,,,,,,,,,,,,,,,,,,,,,,,,,7,1.5496,1,,,,,,,,,,,,0,131,5,5,2274,2142,absent_patch/patch0002274.jpg,absent_patch/patch0002142.jpg,,,,,,,,,,,,,,,,,,,,0.044270833,0.1015625,1,0,0,response1disk,10,0.002604167,0.001302083,1,0,0,center_square,0,9,9,75,1,,,,,,,,,,,,,,,,,,,,,,,
661162,001,2022-11-13_18h01.01.892,Info_measure_main_exp,2022.2.2,Win32,59.58055291,,,,,,,,,,,,,,,,,,masks/mask_004.jpg,,,,,,,,,,,,,,,,,,,,,,,,,,,,,,,,,,,,,,,,,,,0,0,0,3,1,,,,,,,,,,,,,,,,,,,,,,,,,,,,,,,,,,,,,,,,,,,,,,
661162,001,2022-11-13_18h01.01.892,Info_measure_main_exp,2022.2.2,Win32,59.58055291,,,,,,,,,,,,,,,,,,masks/mask_001.jpg,,,,,,,,,,,,,,,,,,,,,,,,,,,,,,,,,,,,,,,,,,,0,1,1,0,1,,,,,,,,,,,,,,,,,,,,,,,,,,,,,,,,,,,,,,,,,,,,,,
661162,001,2022-11-13_18h01.01.892,Info_measure_main_exp,2022.2.2,Win32,59.58055291,,,,,,,,,,,,,,,,,,masks/mask_005.jpg,,,,,,,,,,,,,,,,,,,,,,,,,,,,,,,,,,,,,,,,,,,0,2,2,4,1,,,,,,,,,,,,,,,,,,,,,,,,,,,,,,,,,,,,,,,,,,,,,,
661162,001,2022-11-13_18h01.01.892,Info_measure_main_exp,2022.2.2,Win32,59.58055291,,,,,,,,,,,,,,,,,,masks/mask_002.jpg,,,,,,,,,,,,,,,,,,,,,,,,,,,,,,,,,,,,,,,,,,,0,3,3,1,1,,,,,,,,,,,,,,,,,,,,,,,,,,,,,,,,,,,,,,,,,,,,,,
661162,001,2022-11-13_18h01.01.892,Info_measure_main_exp,2022.2.2,Win32,59.58055291,,,,,,,,,,,,,,,,,,masks/mask_003.jpg,,,,,,,,,,,,,,,,,,,,,,,,,,,,,,,,,,,,,,,,,,,0,4,4,2,1,,,,,,,,,,,,,,,,,,,,,,,,,,,,,,,,,,,,,,,,,,,,,,
661162,001,2022-11-13_18h01.01.892,Info_measure_main_exp,2022.2.2,Win32,59.58055291,,,,,,,,,,,,,,,,,,masks/mask_001.jpg,,,,,,,,,,,,,,,,,,,,,,,,,,,,,,,,,,,,,,,,,,,,,,,,0,0,0,0,1,,,,,,,,,,,,,,,,,,,,,,,,,,,,,,,,,,,,,,,,,
661162,001,2022-11-13_18h01.01.892,Info_measure_main_exp,2022.2.2,Win32,59.58055291,,,,,,,,,,,,,,,,,,masks/mask_003.jpg,,,,,,,,,,,,,,,,,,,,,,,,,,,,,,,,,,,,,,,,,,,,,,,,0,1,1,2,1,,,,,,,,,,,,,,,,,,,,,,,,,,,,,,,,,,,,,,,,,
661162,001,2022-11-13_18h01.01.892,Info_measure_main_exp,2022.2.2,Win32,59.58055291,,,,,,,,,,,,,,,,,,masks/mask_002.jpg,,,,,,,,,,,,,,,,,,,,,,,,,,,,,,,,,,,,,,,,,,,,,,,,0,2,2,1,1,,,,,,,,,,,,,,,,,,,,,,,,,,,,,,,,,,,,,,,,,
661162,001,2022-11-13_18h01.01.892,Info_measure_main_exp,2022.2.2,Win32,59.58055291,,,,,,,,,,,,,,,,,,masks/mask_004.jpg,,,,,,,,,,,,,,,,,,,,,,,,,,,,,,,,,,,,,,,,,,,,,,,,0,3,3,3,1,,,,,,,,,,,,,,,,,,,,,,,,,,,,,,,,,,,,,,,,,
661162,001,2022-11-13_18h01.01.892,Info_measure_main_exp,2022.2.2,Win32,59.58055291,,,,,,,,,,,,,,,,,,masks/mask_005.jpg,,,,,,,,,,,,,,,,,,,,,,,,,,,,,,,,,,,,,,,,,,,,,,,,0,4,4,4,1,,,,,,,,,,,,,,,,,,,,,,,,,,,,,,,,,,,,,,,,,
661162,001,2022-11-13_18h01.01.892,Info_measure_main_exp,2022.2.2,Win32,59.58055291,,,,,,,,,,,,,,,,,,,,,,,,,,,,,,6,4.5655,1,,,,,,,,,,,,0,131,5,5,2238,2298,absent_patch/patch0002238.jpg,absent_patch/patch0002298.jpg,,,,,,,,,,,,,,,,,,,,0.114583333,0.044270833,1,0,0,response1disk,11,0.005208333,0.006510417,1,0,0,center_square,0,10,10,51,1,,,,,,,,,,,,,,,,,,,,,,,
661162,001,2022-11-13_18h01.01.892,Info_measure_main_exp,2022.2.2,Win32,59.58055291,,,,,,,,,,,,,,,,,,masks/mask_005.jpg,,,,,,,,,,,,,,,,,,,,,,,,,,,,,,,,,,,,,,,,,,,0,0,0,4,1,,,,,,,,,,,,,,,,,,,,,,,,,,,,,,,,,,,,,,,,,,,,,,
661162,001,2022-11-13_18h01.01.892,Info_measure_main_exp,2022.2.2,Win32,59.58055291,,,,,,,,,,,,,,,,,,masks/mask_004.jpg,,,,,,,,,,,,,,,,,,,,,,,,,,,,,,,,,,,,,,,,,,,0,1,1,3,1,,,,,,,,,,,,,,,,,,,,,,,,,,,,,,,,,,,,,,,,,,,,,,
661162,001,2022-11-13_18h01.01.892,Info_measure_main_exp,2022.2.2,Win32,59.58055291,,,,,,,,,,,,,,,,,,masks/mask_002.jpg,,,,,,,,,,,,,,,,,,,,,,,,,,,,,,,,,,,,,,,,,,,0,2,2,1,1,,,,,,,,,,,,,,,,,,,,,,,,,,,,,,,,,,,,,,,,,,,,,,
661162,001,2022-11-13_18h01.01.892,Info_measure_main_exp,2022.2.2,Win32,59.58055291,,,,,,,,,,,,,,,,,,masks/mask_001.jpg,,,,,,,,,,,,,,,,,,,,,,,,,,,,,,,,,,,,,,,,,,,0,3,3,0,1,,,,,,,,,,,,,,,,,,,,,,,,,,,,,,,,,,,,,,,,,,,,,,
661162,001,2022-11-13_18h01.01.892,Info_measure_main_exp,2022.2.2,Win32,59.58055291,,,,,,,,,,,,,,,,,,masks/mask_003.jpg,,,,,,,,,,,,,,,,,,,,,,,,,,,,,,,,,,,,,,,,,,,0,4,4,2,1,,,,,,,,,,,,,,,,,,,,,,,,,,,,,,,,,,,,,,,,,,,,,,
661162,001,2022-11-13_18h01.01.892,Info_measure_main_exp,2022.2.2,Win32,59.58055291,,,,,,,,,,,,,,,,,,masks/mask_004.jpg,,,,,,,,,,,,,,,,,,,,,,,,,,,,,,,,,,,,,,,,,,,,,,,,0,0,0,3,1,,,,,,,,,,,,,,,,,,,,,,,,,,,,,,,,,,,,,,,,,
661162,001,2022-11-13_18h01.01.892,Info_measure_main_exp,2022.2.2,Win32,59.58055291,,,,,,,,,,,,,,,,,,masks/mask_005.jpg,,,,,,,,,,,,,,,,,,,,,,,,,,,,,,,,,,,,,,,,,,,,,,,,0,1,1,4,1,,,,,,,,,,,,,,,,,,,,,,,,,,,,,,,,,,,,,,,,,
661162,001,2022-11-13_18h01.01.892,Info_measure_main_exp,2022.2.2,Win32,59.58055291,,,,,,,,,,,,,,,,,,masks/mask_002.jpg,,,,,,,,,,,,,,,,,,,,,,,,,,,,,,,,,,,,,,,,,,,,,,,,0,2,2,1,1,,,,,,,,,,,,,,,,,,,,,,,,,,,,,,,,,,,,,,,,,
661162,001,2022-11-13_18h01.01.892,Info_measure_main_exp,2022.2.2,Win32,59.58055291,,,,,,,,,,,,,,,,,,masks/mask_001.jpg,,,,,,,,,,,,,,,,,,,,,,,,,,,,,,,,,,,,,,,,,,,,,,,,0,3,3,0,1,,,,,,,,,,,,,,,,,,,,,,,,,,,,,,,,,,,,,,,,,
661162,001,2022-11-13_18h01.01.892,Info_measure_main_exp,2022.2.2,Win32,59.58055291,,,,,,,,,,,,,,,,,,masks/mask_003.jpg,,,,,,,,,,,,,,,,,,,,,,,,,,,,,,,,,,,,,,,,,,,,,,,,0,4,4,2,1,,,,,,,,,,,,,,,,,,,,,,,,,,,,,,,,,,,,,,,,,
661162,001,2022-11-13_18h01.01.892,Info_measure_main_exp,2022.2.2,Win32,59.58055291,,,,,,,,,,,,,,,,,,,,,,,,,,,,,,7,1.9165,1,,,,,,,,,,,,0,131,5,5,1950,2298,absent_patch/patch0001950.jpg,absent_patch/patch0002298.jpg,,,,,,,,,,,,,,,,,,,,0.044270833,0.119791667,1,0,0,response1disk,12,0.009114583,0.002604167,1,0,0,center_square,0,11,11,18,1,,,,,,,,,,,,,,,,,,,,,,,
661162,001,2022-11-13_18h01.01.892,Info_measure_main_exp,2022.2.2,Win32,59.58055291,,,,,,,,,,,,,,,,,,masks/mask_004.jpg,,,,,,,,,,,,,,,,,,,,,,,,,,,,,,,,,,,,,,,,,,,0,0,0,3,1,,,,,,,,,,,,,,,,,,,,,,,,,,,,,,,,,,,,,,,,,,,,,,
661162,001,2022-11-13_18h01.01.892,Info_measure_main_exp,2022.2.2,Win32,59.58055291,,,,,,,,,,,,,,,,,,masks/mask_005.jpg,,,,,,,,,,,,,,,,,,,,,,,,,,,,,,,,,,,,,,,,,,,0,1,1,4,1,,,,,,,,,,,,,,,,,,,,,,,,,,,,,,,,,,,,,,,,,,,,,,
661162,001,2022-11-13_18h01.01.892,Info_measure_main_exp,2022.2.2,Win32,59.58055291,,,,,,,,,,,,,,,,,,masks/mask_002.jpg,,,,,,,,,,,,,,,,,,,,,,,,,,,,,,,,,,,,,,,,,,,0,2,2,1,1,,,,,,,,,,,,,,,,,,,,,,,,,,,,,,,,,,,,,,,,,,,,,,
661162,001,2022-11-13_18h01.01.892,Info_measure_main_exp,2022.2.2,Win32,59.58055291,,,,,,,,,,,,,,,,,,masks/mask_003.jpg,,,,,,,,,,,,,,,,,,,,,,,,,,,,,,,,,,,,,,,,,,,0,3,3,2,1,,,,,,,,,,,,,,,,,,,,,,,,,,,,,,,,,,,,,,,,,,,,,,
661162,001,2022-11-13_18h01.01.892,Info_measure_main_exp,2022.2.2,Win32,59.58055291,,,,,,,,,,,,,,,,,,masks/mask_001.jpg,,,,,,,,,,,,,,,,,,,,,,,,,,,,,,,,,,,,,,,,,,,0,4,4,0,1,,,,,,,,,,,,,,,,,,,,,,,,,,,,,,,,,,,,,,,,,,,,,,
661162,001,2022-11-13_18h01.01.892,Info_measure_main_exp,2022.2.2,Win32,59.58055291,,,,,,,,,,,,,,,,,,masks/mask_002.jpg,,,,,,,,,,,,,,,,,,,,,,,,,,,,,,,,,,,,,,,,,,,,,,,,0,0,0,1,1,,,,,,,,,,,,,,,,,,,,,,,,,,,,,,,,,,,,,,,,,
661162,001,2022-11-13_18h01.01.892,Info_measure_main_exp,2022.2.2,Win32,59.58055291,,,,,,,,,,,,,,,,,,masks/mask_001.jpg,,,,,,,,,,,,,,,,,,,,,,,,,,,,,,,,,,,,,,,,,,,,,,,,0,1,1,0,1,,,,,,,,,,,,,,,,,,,,,,,,,,,,,,,,,,,,,,,,,
661162,001,2022-11-13_18h01.01.892,Info_measure_main_exp,2022.2.2,Win32,59.58055291,,,,,,,,,,,,,,,,,,masks/mask_004.jpg,,,,,,,,,,,,,,,,,,,,,,,,,,,,,,,,,,,,,,,,,,,,,,,,0,2,2,3,1,,,,,,,,,,,,,,,,,,,,,,,,,,,,,,,,,,,,,,,,,
661162,001,2022-11-13_18h01.01.892,Info_measure_main_exp,2022.2.2,Win32,59.58055291,,,,,,,,,,,,,,,,,,masks/mask_005.jpg,,,,,,,,,,,,,,,,,,,,,,,,,,,,,,,,,,,,,,,,,,,,,,,,0,3,3,4,1,,,,,,,,,,,,,,,,,,,,,,,,,,,,,,,,,,,,,,,,,
661162,001,2022-11-13_18h01.01.892,Info_measure_main_exp,2022.2.2,Win32,59.58055291,,,,,,,,,,,,,,,,,,masks/mask_003.jpg,,,,,,,,,,,,,,,,,,,,,,,,,,,,,,,,,,,,,,,,,,,,,,,,0,4,4,2,1,,,,,,,,,,,,,,,,,,,,,,,,,,,,,,,,,,,,,,,,,
661162,001,2022-11-13_18h01.01.892,Info_measure_main_exp,2022.2.2,Win32,59.58055291,,,,,,,,,,,,,,,,,,,,,,,,,,,,,,0,1.3493,1,,,,,,,,,,,,0,131,5,5,2190,2190,absent_patch/patch0002190.jpg,absent_patch/patch0002190.jpg,,,,,,,,,,,,,,,,,,,,-0.03515625,0.0859375,1,0,0,response7disk,13,-0.006510417,-0.0078125,1,0,0,center_square,0,12,12,86,1,,,,,,,,,,,,,,,,,,,,,,,
661162,001,2022-11-13_18h01.01.892,Info_measure_main_exp,2022.2.2,Win32,59.58055291,,,,,,,,,,,,,,,,,,masks/mask_003.jpg,,,,,,,,,,,,,,,,,,,,,,,,,,,,,,,,,,,,,,,,,,,0,0,0,2,1,,,,,,,,,,,,,,,,,,,,,,,,,,,,,,,,,,,,,,,,,,,,,,
661162,001,2022-11-13_18h01.01.892,Info_measure_main_exp,2022.2.2,Win32,59.58055291,,,,,,,,,,,,,,,,,,masks/mask_001.jpg,,,,,,,,,,,,,,,,,,,,,,,,,,,,,,,,,,,,,,,,,,,0,1,1,0,1,,,,,,,,,,,,,,,,,,,,,,,,,,,,,,,,,,,,,,,,,,,,,,
661162,001,2022-11-13_18h01.01.892,Info_measure_main_exp,2022.2.2,Win32,59.58055291,,,,,,,,,,,,,,,,,,masks/mask_005.jpg,,,,,,,,,,,,,,,,,,,,,,,,,,,,,,,,,,,,,,,,,,,0,2,2,4,1,,,,,,,,,,,,,,,,,,,,,,,,,,,,,,,,,,,,,,,,,,,,,,
661162,001,2022-11-13_18h01.01.892,Info_measure_main_exp,2022.2.2,Win32,59.58055291,,,,,,,,,,,,,,,,,,masks/mask_002.jpg,,,,,,,,,,,,,,,,,,,,,,,,,,,,,,,,,,,,,,,,,,,0,3,3,1,1,,,,,,,,,,,,,,,,,,,,,,,,,,,,,,,,,,,,,,,,,,,,,,
661162,001,2022-11-13_18h01.01.892,Info_measure_main_exp,2022.2.2,Win32,59.58055291,,,,,,,,,,,,,,,,,,masks/mask_004.jpg,,,,,,,,,,,,,,,,,,,,,,,,,,,,,,,,,,,,,,,,,,,0,4,4,3,1,,,,,,,,,,,,,,,,,,,,,,,,,,,,,,,,,,,,,,,,,,,,,,
661162,001,2022-11-13_18h01.01.892,Info_measure_main_exp,2022.2.2,Win32,59.58055291,,,,,,,,,,,,,,,,,,masks/mask_001.jpg,,,,,,,,,,,,,,,,,,,,,,,,,,,,,,,,,,,,,,,,,,,,,,,,0,0,0,0,1,,,,,,,,,,,,,,,,,,,,,,,,,,,,,,,,,,,,,,,,,
661162,001,2022-11-13_18h01.01.892,Info_measure_main_exp,2022.2.2,Win32,59.58055291,,,,,,,,,,,,,,,,,,masks/mask_002.jpg,,,,,,,,,,,,,,,,,,,,,,,,,,,,,,,,,,,,,,,,,,,,,,,,0,1,1,1,1,,,,,,,,,,,,,,,,,,,,,,,,,,,,,,,,,,,,,,,,,
661162,001,2022-11-13_18h01.01.892,Info_measure_main_exp,2022.2.2,Win32,59.58055291,,,,,,,,,,,,,,,,,,masks/mask_005.jpg,,,,,,,,,,,,,,,,,,,,,,,,,,,,,,,,,,,,,,,,,,,,,,,,0,2,2,4,1,,,,,,,,,,,,,,,,,,,,,,,,,,,,,,,,,,,,,,,,,
661162,001,2022-11-13_18h01.01.892,Info_measure_main_exp,2022.2.2,Win32,59.58055291,,,,,,,,,,,,,,,,,,masks/mask_003.jpg,,,,,,,,,,,,,,,,,,,,,,,,,,,,,,,,,,,,,,,,,,,,,,,,0,3,3,2,1,,,,,,,,,,,,,,,,,,,,,,,,,,,,,,,,,,,,,,,,,
661162,001,2022-11-13_18h01.01.892,Info_measure_main_exp,2022.2.2,Win32,59.58055291,,,,,,,,,,,,,,,,,,masks/mask_004.jpg,,,,,,,,,,,,,,,,,,,,,,,,,,,,,,,,,,,,,,,,,,,,,,,,0,4,4,3,1,,,,,,,,,,,,,,,,,,,,,,,,,,,,,,,,,,,,,,,,,
661162,001,2022-11-13_18h01.01.892,Info_measure_main_exp,2022.2.2,Win32,59.58055291,,,,,,,,,,,,,,,,,,,,,,,,,,,,,,7,1.7329,1,,,,,,,,,,,,1,131,5,5,2250,1,absent_patch/patch0002250.jpg,present_patch/cong_131_5_a.jpg,,,,,,,,,,,,,,,,,,,,0.049479167,0.084635417,1,0,0,response1disk,14,-0.001302083,-0.005208333,1,0,0,center_square,0,13,13,5,1,,,,,,,,,,,,,,,,,,,,,,,
661162,001,2022-11-13_18h01.01.892,Info_measure_main_exp,2022.2.2,Win32,59.58055291,,,,,,,,,,,,,,,,,,masks/mask_005.jpg,,,,,,,,,,,,,,,,,,,,,,,,,,,,,,,,,,,,,,,,,,,0,0,0,4,1,,,,,,,,,,,,,,,,,,,,,,,,,,,,,,,,,,,,,,,,,,,,,,
661162,001,2022-11-13_18h01.01.892,Info_measure_main_exp,2022.2.2,Win32,59.58055291,,,,,,,,,,,,,,,,,,masks/mask_003.jpg,,,,,,,,,,,,,,,,,,,,,,,,,,,,,,,,,,,,,,,,,,,0,1,1,2,1,,,,,,,,,,,,,,,,,,,,,,,,,,,,,,,,,,,,,,,,,,,,,,
661162,001,2022-11-13_18h01.01.892,Info_measure_main_exp,2022.2.2,Win32,59.58055291,,,,,,,,,,,,,,,,,,masks/mask_002.jpg,,,,,,,,,,,,,,,,,,,,,,,,,,,,,,,,,,,,,,,,,,,0,2,2,1,1,,,,,,,,,,,,,,,,,,,,,,,,,,,,,,,,,,,,,,,,,,,,,,
661162,001,2022-11-13_18h01.01.892,Info_measure_main_exp,2022.2.2,Win32,59.58055291,,,,,,,,,,,,,,,,,,masks/mask_001.jpg,,,,,,,,,,,,,,,,,,,,,,,,,,,,,,,,,,,,,,,,,,,0,3,3,0,1,,,,,,,,,,,,,,,,,,,,,,,,,,,,,,,,,,,,,,,,,,,,,,
661162,001,2022-11-13_18h01.01.892,Info_measure_main_exp,2022.2.2,Win32,59.58055291,,,,,,,,,,,,,,,,,,masks/mask_004.jpg,,,,,,,,,,,,,,,,,,,,,,,,,,,,,,,,,,,,,,,,,,,0,4,4,3,1,,,,,,,,,,,,,,,,,,,,,,,,,,,,,,,,,,,,,,,,,,,,,,
661162,001,2022-11-13_18h01.01.892,Info_measure_main_exp,2022.2.2,Win32,59.58055291,,,,,,,,,,,,,,,,,,masks/mask_001.jpg,,,,,,,,,,,,,,,,,,,,,,,,,,,,,,,,,,,,,,,,,,,,,,,,0,0,0,0,1,,,,,,,,,,,,,,,,,,,,,,,,,,,,,,,,,,,,,,,,,
661162,001,2022-11-13_18h01.01.892,Info_measure_main_exp,2022.2.2,Win32,59.58055291,,,,,,,,,,,,,,,,,,masks/mask_002.jpg,,,,,,,,,,,,,,,,,,,,,,,,,,,,,,,,,,,,,,,,,,,,,,,,0,1,1,1,1,,,,,,,,,,,,,,,,,,,,,,,,,,,,,,,,,,,,,,,,,
661162,001,2022-11-13_18h01.01.892,Info_measure_main_exp,2022.2.2,Win32,59.58055291,,,,,,,,,,,,,,,,,,masks/mask_005.jpg,,,,,,,,,,,,,,,,,,,,,,,,,,,,,,,,,,,,,,,,,,,,,,,,0,2,2,4,1,,,,,,,,,,,,,,,,,,,,,,,,,,,,,,,,,,,,,,,,,
661162,001,2022-11-13_18h01.01.892,Info_measure_main_exp,2022.2.2,Win32,59.58055291,,,,,,,,,,,,,,,,,,masks/mask_004.jpg,,,,,,,,,,,,,,,,,,,,,,,,,,,,,,,,,,,,,,,,,,,,,,,,0,3,3,3,1,,,,,,,,,,,,,,,,,,,,,,,,,,,,,,,,,,,,,,,,,
661162,001,2022-11-13_18h01.01.892,Info_measure_main_exp,2022.2.2,Win32,59.58055291,,,,,,,,,,,,,,,,,,masks/mask_003.jpg,,,,,,,,,,,,,,,,,,,,,,,,,,,,,,,,,,,,,,,,,,,,,,,,0,4,4,2,1,,,,,,,,,,,,,,,,,,,,,,,,,,,,,,,,,,,,,,,,,
661162,001,2022-11-13_18h01.01.892,Info_measure_main_exp,2022.2.2,Win32,59.58055291,,,,,,,,,,,,,,,,,,,,,,,,,,,,,,0,0.8498,1,,,,,,,,,,,,0,131,5,5,1986,1986,absent_patch/patch0001986.jpg,absent_patch/patch0001986.jpg,,,,,,,,,,,,,,,,,,,,-0.0234375,0.091145833,1,0,0,response7disk,15,0.001302083,-0.005208333,1,0,0,center_square,0,14,14,19,1,,,,,,,,,,,,,,,,,,,,,,,
661162,001,2022-11-13_18h01.01.892,Info_measure_main_exp,2022.2.2,Win32,59.58055291,,,,,,,,,,,,,,,,,,masks/mask_005.jpg,,,,,,,,,,,,,,,,,,,,,,,,,,,,,,,,,,,,,,,,,,,0,0,0,4,1,,,,,,,,,,,,,,,,,,,,,,,,,,,,,,,,,,,,,,,,,,,,,,
661162,001,2022-11-13_18h01.01.892,Info_measure_main_exp,2022.2.2,Win32,59.58055291,,,,,,,,,,,,,,,,,,masks/mask_004.jpg,,,,,,,,,,,,,,,,,,,,,,,,,,,,,,,,,,,,,,,,,,,0,1,1,3,1,,,,,,,,,,,,,,,,,,,,,,,,,,,,,,,,,,,,,,,,,,,,,,
661162,001,2022-11-13_18h01.01.892,Info_measure_main_exp,2022.2.2,Win32,59.58055291,,,,,,,,,,,,,,,,,,masks/mask_003.jpg,,,,,,,,,,,,,,,,,,,,,,,,,,,,,,,,,,,,,,,,,,,0,2,2,2,1,,,,,,,,,,,,,,,,,,,,,,,,,,,,,,,,,,,,,,,,,,,,,,
661162,001,2022-11-13_18h01.01.892,Info_measure_main_exp,2022.2.2,Win32,59.58055291,,,,,,,,,,,,,,,,,,masks/mask_002.jpg,,,,,,,,,,,,,,,,,,,,,,,,,,,,,,,,,,,,,,,,,,,0,3,3,1,1,,,,,,,,,,,,,,,,,,,,,,,,,,,,,,,,,,,,,,,,,,,,,,
661162,001,2022-11-13_18h01.01.892,Info_measure_main_exp,2022.2.2,Win32,59.58055291,,,,,,,,,,,,,,,,,,masks/mask_001.jpg,,,,,,,,,,,,,,,,,,,,,,,,,,,,,,,,,,,,,,,,,,,0,4,4,0,1,,,,,,,,,,,,,,,,,,,,,,,,,,,,,,,,,,,,,,,,,,,,,,
661162,001,2022-11-13_18h01.01.892,Info_measure_main_exp,2022.2.2,Win32,59.58055291,,,,,,,,,,,,,,,,,,masks/mask_003.jpg,,,,,,,,,,,,,,,,,,,,,,,,,,,,,,,,,,,,,,,,,,,,,,,,0,0,0,2,1,,,,,,,,,,,,,,,,,,,,,,,,,,,,,,,,,,,,,,,,,
661162,001,2022-11-13_18h01.01.892,Info_measure_main_exp,2022.2.2,Win32,59.58055291,,,,,,,,,,,,,,,,,,masks/mask_002.jpg,,,,,,,,,,,,,,,,,,,,,,,,,,,,,,,,,,,,,,,,,,,,,,,,0,1,1,1,1,,,,,,,,,,,,,,,,,,,,,,,,,,,,,,,,,,,,,,,,,
661162,001,2022-11-13_18h01.01.892,Info_measure_main_exp,2022.2.2,Win32,59.58055291,,,,,,,,,,,,,,,,,,masks/mask_004.jpg,,,,,,,,,,,,,,,,,,,,,,,,,,,,,,,,,,,,,,,,,,,,,,,,0,2,2,3,1,,,,,,,,,,,,,,,,,,,,,,,,,,,,,,,,,,,,,,,,,
661162,001,2022-11-13_18h01.01.892,Info_measure_main_exp,2022.2.2,Win32,59.58055291,,,,,,,,,,,,,,,,,,masks/mask_005.jpg,,,,,,,,,,,,,,,,,,,,,,,,,,,,,,,,,,,,,,,,,,,,,,,,0,3,3,4,1,,,,,,,,,,,,,,,,,,,,,,,,,,,,,,,,,,,,,,,,,
661162,001,2022-11-13_18h01.01.892,Info_measure_main_exp,2022.2.2,Win32,59.58055291,,,,,,,,,,,,,,,,,,masks/mask_001.jpg,,,,,,,,,,,,,,,,,,,,,,,,,,,,,,,,,,,,,,,,,,,,,,,,0,4,4,0,1,,,,,,,,,,,,,,,,,,,,,,,,,,,,,,,,,,,,,,,,,
661162,001,2022-11-13_18h01.01.892,Info_measure_main_exp,2022.2.2,Win32,59.58055291,,,,,,,,,,,,,,,,,,,,,,,,,,,,,,5,14.1132,1,,,,,,,,,,,,0,131,5,5,1950,2178,absent_patch/patch0001950.jpg,absent_patch/patch0002178.jpg,,,,,,,,,,,,,,,,,,,,0.078125,-0.0546875,1,0,0,response3disk,16,-0.006510417,-0.006510417,1,0,0,center_square,0,15,15,61,1,,,,,,,,,,,,,,,,,,,,,,,
661162,001,2022-11-13_18h01.01.892,Info_measure_main_exp,2022.2.2,Win32,59.58055291,,,,,,,,,,,,,,,,,,masks/mask_003.jpg,,,,,,,,,,,,,,,,,,,,,,,,,,,,,,,,,,,,,,,,,,,0,0,0,2,1,,,,,,,,,,,,,,,,,,,,,,,,,,,,,,,,,,,,,,,,,,,,,,
661162,001,2022-11-13_18h01.01.892,Info_measure_main_exp,2022.2.2,Win32,59.58055291,,,,,,,,,,,,,,,,,,masks/mask_001.jpg,,,,,,,,,,,,,,,,,,,,,,,,,,,,,,,,,,,,,,,,,,,0,1,1,0,1,,,,,,,,,,,,,,,,,,,,,,,,,,,,,,,,,,,,,,,,,,,,,,
661162,001,2022-11-13_18h01.01.892,Info_measure_main_exp,2022.2.2,Win32,59.58055291,,,,,,,,,,,,,,,,,,masks/mask_005.jpg,,,,,,,,,,,,,,,,,,,,,,,,,,,,,,,,,,,,,,,,,,,0,2,2,4,1,,,,,,,,,,,,,,,,,,,,,,,,,,,,,,,,,,,,,,,,,,,,,,
661162,001,2022-11-13_18h01.01.892,Info_measure_main_exp,2022.2.2,Win32,59.58055291,,,,,,,,,,,,,,,,,,masks/mask_004.jpg,,,,,,,,,,,,,,,,,,,,,,,,,,,,,,,,,,,,,,,,,,,0,3,3,3,1,,,,,,,,,,,,,,,,,,,,,,,,,,,,,,,,,,,,,,,,,,,,,,
661162,001,2022-11-13_18h01.01.892,Info_measure_main_exp,2022.2.2,Win32,59.58055291,,,,,,,,,,,,,,,,,,masks/mask_002.jpg,,,,,,,,,,,,,,,,,,,,,,,,,,,,,,,,,,,,,,,,,,,0,4,4,1,1,,,,,,,,,,,,,,,,,,,,,,,,,,,,,,,,,,,,,,,,,,,,,,
661162,001,2022-11-13_18h01.01.892,Info_measure_main_exp,2022.2.2,Win32,59.58055291,,,,,,,,,,,,,,,,,,masks/mask_002.jpg,,,,,,,,,,,,,,,,,,,,,,,,,,,,,,,,,,,,,,,,,,,,,,,,0,0,0,1,1,,,,,,,,,,,,,,,,,,,,,,,,,,,,,,,,,,,,,,,,,
661162,001,2022-11-13_18h01.01.892,Info_measure_main_exp,2022.2.2,Win32,59.58055291,,,,,,,,,,,,,,,,,,masks/mask_001.jpg,,,,,,,,,,,,,,,,,,,,,,,,,,,,,,,,,,,,,,,,,,,,,,,,0,1,1,0,1,,,,,,,,,,,,,,,,,,,,,,,,,,,,,,,,,,,,,,,,,
661162,001,2022-11-13_18h01.01.892,Info_measure_main_exp,2022.2.2,Win32,59.58055291,,,,,,,,,,,,,,,,,,masks/mask_004.jpg,,,,,,,,,,,,,,,,,,,,,,,,,,,,,,,,,,,,,,,,,,,,,,,,0,2,2,3,1,,,,,,,,,,,,,,,,,,,,,,,,,,,,,,,,,,,,,,,,,
661162,001,2022-11-13_18h01.01.892,Info_measure_main_exp,2022.2.2,Win32,59.58055291,,,,,,,,,,,,,,,,,,masks/mask_003.jpg,,,,,,,,,,,,,,,,,,,,,,,,,,,,,,,,,,,,,,,,,,,,,,,,0,3,3,2,1,,,,,,,,,,,,,,,,,,,,,,,,,,,,,,,,,,,,,,,,,
661162,001,2022-11-13_18h01.01.892,Info_measure_main_exp,2022.2.2,Win32,59.58055291,,,,,,,,,,,,,,,,,,masks/mask_005.jpg,,,,,,,,,,,,,,,,,,,,,,,,,,,,,,,,,,,,,,,,,,,,,,,,0,4,4,4,1,,,,,,,,,,,,,,,,,,,,,,,,,,,,,,,,,,,,,,,,,
661162,001,2022-11-13_18h01.01.892,Info_measure_main_exp,2022.2.2,Win32,59.58055291,,,,,,,,,,,,,,,,,,,,,,,,,,,,,,3,1.383,1,,,,,,,,,,,,1,131,5,5,1,1986,present_patch/cong_131_5_a.jpg,absent_patch/patch0001986.jpg,,,,,,,,,,,,,,,,,,,,-0.0390625,-0.055989583,1,0,0,response5disk,17,0.00390625,-0.001302083,1,0,0,center_square,0,16,16,106,1,,,,,,,,,,,,,,,,,,,,,,,
661162,001,2022-11-13_18h01.01.892,Info_measure_main_exp,2022.2.2,Win32,59.58055291,,,,,,,,,,,,,,,,,,masks/mask_005.jpg,,,,,,,,,,,,,,,,,,,,,,,,,,,,,,,,,,,,,,,,,,,0,0,0,4,1,,,,,,,,,,,,,,,,,,,,,,,,,,,,,,,,,,,,,,,,,,,,,,
661162,001,2022-11-13_18h01.01.892,Info_measure_main_exp,2022.2.2,Win32,59.58055291,,,,,,,,,,,,,,,,,,masks/mask_002.jpg,,,,,,,,,,,,,,,,,,,,,,,,,,,,,,,,,,,,,,,,,,,0,1,1,1,1,,,,,,,,,,,,,,,,,,,,,,,,,,,,,,,,,,,,,,,,,,,,,,
661162,001,2022-11-13_18h01.01.892,Info_measure_main_exp,2022.2.2,Win32,59.58055291,,,,,,,,,,,,,,,,,,masks/mask_004.jpg,,,,,,,,,,,,,,,,,,,,,,,,,,,,,,,,,,,,,,,,,,,0,2,2,3,1,,,,,,,,,,,,,,,,,,,,,,,,,,,,,,,,,,,,,,,,,,,,,,
661162,001,2022-11-13_18h01.01.892,Info_measure_main_exp,2022.2.2,Win32,59.58055291,,,,,,,,,,,,,,,,,,masks/mask_003.jpg,,,,,,,,,,,,,,,,,,,,,,,,,,,,,,,,,,,,,,,,,,,0,3,3,2,1,,,,,,,,,,,,,,,,,,,,,,,,,,,,,,,,,,,,,,,,,,,,,,
661162,001,2022-11-13_18h01.01.892,Info_measure_main_exp,2022.2.2,Win32,59.58055291,,,,,,,,,,,,,,,,,,masks/mask_001.jpg,,,,,,,,,,,,,,,,,,,,,,,,,,,,,,,,,,,,,,,,,,,0,4,4,0,1,,,,,,,,,,,,,,,,,,,,,,,,,,,,,,,,,,,,,,,,,,,,,,
661162,001,2022-11-13_18h01.01.892,Info_measure_main_exp,2022.2.2,Win32,59.58055291,,,,,,,,,,,,,,,,,,masks/mask_002.jpg,,,,,,,,,,,,,,,,,,,,,,,,,,,,,,,,,,,,,,,,,,,,,,,,0,0,0,1,1,,,,,,,,,,,,,,,,,,,,,,,,,,,,,,,,,,,,,,,,,
661162,001,2022-11-13_18h01.01.892,Info_measure_main_exp,2022.2.2,Win32,59.58055291,,,,,,,,,,,,,,,,,,masks/mask_001.jpg,,,,,,,,,,,,,,,,,,,,,,,,,,,,,,,,,,,,,,,,,,,,,,,,0,1,1,0,1,,,,,,,,,,,,,,,,,,,,,,,,,,,,,,,,,,,,,,,,,
661162,001,2022-11-13_18h01.01.892,Info_measure_main_exp,2022.2.2,Win32,59.58055291,,,,,,,,,,,,,,,,,,masks/mask_004.jpg,,,,,,,,,,,,,,,,,,,,,,,,,,,,,,,,,,,,,,,,,,,,,,,,0,2,2,3,1,,,,,,,,,,,,,,,,,,,,,,,,,,,,,,,,,,,,,,,,,
661162,001,2022-11-13_18h01.01.892,Info_measure_main_exp,2022.2.2,Win32,59.58055291,,,,,,,,,,,,,,,,,,masks/mask_005.jpg,,,,,,,,,,,,,,,,,,,,,,,,,,,,,,,,,,,,,,,,,,,,,,,,0,3,3,4,1,,,,,,,,,,,,,,,,,,,,,,,,,,,,,,,,,,,,,,,,,
661162,001,2022-11-13_18h01.01.892,Info_measure_main_exp,2022.2.2,Win32,59.58055291,,,,,,,,,,,,,,,,,,masks/mask_003.jpg,,,,,,,,,,,,,,,,,,,,,,,,,,,,,,,,,,,,,,,,,,,,,,,,0,4,4,2,1,,,,,,,,,,,,,,,,,,,,,,,,,,,,,,,,,,,,,,,,,
661162,001,2022-11-13_18h01.01.892,Info_measure_main_exp,2022.2.2,Win32,59.58055291,,,,,,,,,,,,,,,,,,,,,,,,,,,,,,7,0.7999,1,,,,,,,,,,,,0,131,5,5,2274,1950,absent_patch/patch0002274.jpg,absent_patch/patch0001950.jpg,,,,,,,,,,,,,,,,,,,,0.024739583,0.072916667,1,0,0,response1disk,18,0.00390625,0.002604167,1,0,0,center_square,0,17,17,10,1,,,,,,,,,,,,,,,,,,,,,,,
661162,001,2022-11-13_18h01.01.892,Info_measure_main_exp,2022.2.2,Win32,59.58055291,,,,,,,,,,,,,,,,,,masks/mask_001.jpg,,,,,,,,,,,,,,,,,,,,,,,,,,,,,,,,,,,,,,,,,,,0,0,0,0,1,,,,,,,,,,,,,,,,,,,,,,,,,,,,,,,,,,,,,,,,,,,,,,
661162,001,2022-11-13_18h01.01.892,Info_measure_main_exp,2022.2.2,Win32,59.58055291,,,,,,,,,,,,,,,,,,masks/mask_002.jpg,,,,,,,,,,,,,,,,,,,,,,,,,,,,,,,,,,,,,,,,,,,0,1,1,1,1,,,,,,,,,,,,,,,,,,,,,,,,,,,,,,,,,,,,,,,,,,,,,,
661162,001,2022-11-13_18h01.01.892,Info_measure_main_exp,2022.2.2,Win32,59.58055291,,,,,,,,,,,,,,,,,,masks/mask_003.jpg,,,,,,,,,,,,,,,,,,,,,,,,,,,,,,,,,,,,,,,,,,,0,2,2,2,1,,,,,,,,,,,,,,,,,,,,,,,,,,,,,,,,,,,,,,,,,,,,,,
661162,001,2022-11-13_18h01.01.892,Info_measure_main_exp,2022.2.2,Win32,59.58055291,,,,,,,,,,,,,,,,,,masks/mask_004.jpg,,,,,,,,,,,,,,,,,,,,,,,,,,,,,,,,,,,,,,,,,,,0,3,3,3,1,,,,,,,,,,,,,,,,,,,,,,,,,,,,,,,,,,,,,,,,,,,,,,
661162,001,2022-11-13_18h01.01.892,Info_measure_main_exp,2022.2.2,Win32,59.58055291,,,,,,,,,,,,,,,,,,masks/mask_005.jpg,,,,,,,,,,,,,,,,,,,,,,,,,,,,,,,,,,,,,,,,,,,0,4,4,4,1,,,,,,,,,,,,,,,,,,,,,,,,,,,,,,,,,,,,,,,,,,,,,,
661162,001,2022-11-13_18h01.01.892,Info_measure_main_exp,2022.2.2,Win32,59.58055291,,,,,,,,,,,,,,,,,,masks/mask_005.jpg,,,,,,,,,,,,,,,,,,,,,,,,,,,,,,,,,,,,,,,,,,,,,,,,0,0,0,4,1,,,,,,,,,,,,,,,,,,,,,,,,,,,,,,,,,,,,,,,,,
661162,001,2022-11-13_18h01.01.892,Info_measure_main_exp,2022.2.2,Win32,59.58055291,,,,,,,,,,,,,,,,,,masks/mask_001.jpg,,,,,,,,,,,,,,,,,,,,,,,,,,,,,,,,,,,,,,,,,,,,,,,,0,1,1,0,1,,,,,,,,,,,,,,,,,,,,,,,,,,,,,,,,,,,,,,,,,
661162,001,2022-11-13_18h01.01.892,Info_measure_main_exp,2022.2.2,Win32,59.58055291,,,,,,,,,,,,,,,,,,masks/mask_002.jpg,,,,,,,,,,,,,,,,,,,,,,,,,,,,,,,,,,,,,,,,,,,,,,,,0,2,2,1,1,,,,,,,,,,,,,,,,,,,,,,,,,,,,,,,,,,,,,,,,,
661162,001,2022-11-13_18h01.01.892,Info_measure_main_exp,2022.2.2,Win32,59.58055291,,,,,,,,,,,,,,,,,,masks/mask_004.jpg,,,,,,,,,,,,,,,,,,,,,,,,,,,,,,,,,,,,,,,,,,,,,,,,0,3,3,3,1,,,,,,,,,,,,,,,,,,,,,,,,,,,,,,,,,,,,,,,,,
661162,001,2022-11-13_18h01.01.892,Info_measure_main_exp,2022.2.2,Win32,59.58055291,,,,,,,,,,,,,,,,,,masks/mask_003.jpg,,,,,,,,,,,,,,,,,,,,,,,,,,,,,,,,,,,,,,,,,,,,,,,,0,4,4,2,1,,,,,,,,,,,,,,,,,,,,,,,,,,,,,,,,,,,,,,,,,
661162,001,2022-11-13_18h01.01.892,Info_measure_main_exp,2022.2.2,Win32,59.58055291,,,,,,,,,,,,,,,,,,,,,,,,,,,,,,3,1.8662,1,,,,,,,,,,,,0,131,5,5,2238,2166,absent_patch/patch0002238.jpg,absent_patch/patch0002166.jpg,,,,,,,,,,,,,,,,,,,,-0.014322917,-0.033854167,1,0,0,response5disk,19,-0.002604167,0.001302083,1,0,0,center_square,0,18,18,118,1,,,,,,,,,,,,,,,,,,,,,,,
661162,001,2022-11-13_18h01.01.892,Info_measure_main_exp,2022.2.2,Win32,59.58055291,,,,,,,,,,,,,,,,,,masks/mask_005.jpg,,,,,,,,,,,,,,,,,,,,,,,,,,,,,,,,,,,,,,,,,,,0,0,0,4,1,,,,,,,,,,,,,,,,,,,,,,,,,,,,,,,,,,,,,,,,,,,,,,
661162,001,2022-11-13_18h01.01.892,Info_measure_main_exp,2022.2.2,Win32,59.58055291,,,,,,,,,,,,,,,,,,masks/mask_002.jpg,,,,,,,,,,,,,,,,,,,,,,,,,,,,,,,,,,,,,,,,,,,0,1,1,1,1,,,,,,,,,,,,,,,,,,,,,,,,,,,,,,,,,,,,,,,,,,,,,,
661162,001,2022-11-13_18h01.01.892,Info_measure_main_exp,2022.2.2,Win32,59.58055291,,,,,,,,,,,,,,,,,,masks/mask_004.jpg,,,,,,,,,,,,,,,,,,,,,,,,,,,,,,,,,,,,,,,,,,,0,2,2,3,1,,,,,,,,,,,,,,,,,,,,,,,,,,,,,,,,,,,,,,,,,,,,,,
661162,001,2022-11-13_18h01.01.892,Info_measure_main_exp,2022.2.2,Win32,59.58055291,,,,,,,,,,,,,,,,,,masks/mask_001.jpg,,,,,,,,,,,,,,,,,,,,,,,,,,,,,,,,,,,,,,,,,,,0,3,3,0,1,,,,,,,,,,,,,,,,,,,,,,,,,,,,,,,,,,,,,,,,,,,,,,
661162,001,2022-11-13_18h01.01.892,Info_measure_main_exp,2022.2.2,Win32,59.58055291,,,,,,,,,,,,,,,,,,masks/mask_003.jpg,,,,,,,,,,,,,,,,,,,,,,,,,,,,,,,,,,,,,,,,,,,0,4,4,2,1,,,,,,,,,,,,,,,,,,,,,,,,,,,,,,,,,,,,,,,,,,,,,,
661162,001,2022-11-13_18h01.01.892,Info_measure_main_exp,2022.2.2,Win32,59.58055291,,,,,,,,,,,,,,,,,,masks/mask_005.jpg,,,,,,,,,,,,,,,,,,,,,,,,,,,,,,,,,,,,,,,,,,,,,,,,0,0,0,4,1,,,,,,,,,,,,,,,,,,,,,,,,,,,,,,,,,,,,,,,,,
661162,001,2022-11-13_18h01.01.892,Info_measure_main_exp,2022.2.2,Win32,59.58055291,,,,,,,,,,,,,,,,,,masks/mask_003.jpg,,,,,,,,,,,,,,,,,,,,,,,,,,,,,,,,,,,,,,,,,,,,,,,,0,1,1,2,1,,,,,,,,,,,,,,,,,,,,,,,,,,,,,,,,,,,,,,,,,
661162,001,2022-11-13_18h01.01.892,Info_measure_main_exp,2022.2.2,Win32,59.58055291,,,,,,,,,,,,,,,,,,masks/mask_004.jpg,,,,,,,,,,,,,,,,,,,,,,,,,,,,,,,,,,,,,,,,,,,,,,,,0,2,2,3,1,,,,,,,,,,,,,,,,,,,,,,,,,,,,,,,,,,,,,,,,,
661162,001,2022-11-13_18h01.01.892,Info_measure_main_exp,2022.2.2,Win32,59.58055291,,,,,,,,,,,,,,,,,,masks/mask_002.jpg,,,,,,,,,,,,,,,,,,,,,,,,,,,,,,,,,,,,,,,,,,,,,,,,0,3,3,1,1,,,,,,,,,,,,,,,,,,,,,,,,,,,,,,,,,,,,,,,,,
661162,001,2022-11-13_18h01.01.892,Info_measure_main_exp,2022.2.2,Win32,59.58055291,,,,,,,,,,,,,,,,,,masks/mask_001.jpg,,,,,,,,,,,,,,,,,,,,,,,,,,,,,,,,,,,,,,,,,,,,,,,,0,4,4,0,1,,,,,,,,,,,,,,,,,,,,,,,,,,,,,,,,,,,,,,,,,
661162,001,2022-11-13_18h01.01.892,Info_measure_main_exp,2022.2.2,Win32,59.58055291,,,,,,,,,,,,,,,,,,,,,,,,,,,,,,4,3.8494,1,,,,,,,,,,,,0,131,5,5,2178,1986,absent_patch/patch0002178.jpg,absent_patch/patch0001986.jpg,,,,,,,,,,,,,,,,,,,,0.026041667,-0.0703125,1,0,0,response3disk,20,0.005208333,-0.010416667,1,0,0,center_square,0,19,19,46,1,,,,,,,,,,,,,,,,,,,,,,,
661162,001,2022-11-13_18h01.01.892,Info_measure_main_exp,2022.2.2,Win32,59.58055291,,,,,,,,,,,,,,,,,,masks/mask_004.jpg,,,,,,,,,,,,,,,,,,,,,,,,,,,,,,,,,,,,,,,,,,,0,0,0,3,1,,,,,,,,,,,,,,,,,,,,,,,,,,,,,,,,,,,,,,,,,,,,,,
661162,001,2022-11-13_18h01.01.892,Info_measure_main_exp,2022.2.2,Win32,59.58055291,,,,,,,,,,,,,,,,,,masks/mask_003.jpg,,,,,,,,,,,,,,,,,,,,,,,,,,,,,,,,,,,,,,,,,,,0,1,1,2,1,,,,,,,,,,,,,,,,,,,,,,,,,,,,,,,,,,,,,,,,,,,,,,
661162,001,2022-11-13_18h01.01.892,Info_measure_main_exp,2022.2.2,Win32,59.58055291,,,,,,,,,,,,,,,,,,masks/mask_001.jpg,,,,,,,,,,,,,,,,,,,,,,,,,,,,,,,,,,,,,,,,,,,0,2,2,0,1,,,,,,,,,,,,,,,,,,,,,,,,,,,,,,,,,,,,,,,,,,,,,,
661162,001,2022-11-13_18h01.01.892,Info_measure_main_exp,2022.2.2,Win32,59.58055291,,,,,,,,,,,,,,,,,,masks/mask_005.jpg,,,,,,,,,,,,,,,,,,,,,,,,,,,,,,,,,,,,,,,,,,,0,3,3,4,1,,,,,,,,,,,,,,,,,,,,,,,,,,,,,,,,,,,,,,,,,,,,,,
661162,001,2022-11-13_18h01.01.892,Info_measure_main_exp,2022.2.2,Win32,59.58055291,,,,,,,,,,,,,,,,,,masks/mask_002.jpg,,,,,,,,,,,,,,,,,,,,,,,,,,,,,,,,,,,,,,,,,,,0,4,4,1,1,,,,,,,,,,,,,,,,,,,,,,,,,,,,,,,,,,,,,,,,,,,,,,
661162,001,2022-11-13_18h01.01.892,Info_measure_main_exp,2022.2.2,Win32,59.58055291,,,,,,,,,,,,,,,,,,masks/mask_002.jpg,,,,,,,,,,,,,,,,,,,,,,,,,,,,,,,,,,,,,,,,,,,,,,,,0,0,0,1,1,,,,,,,,,,,,,,,,,,,,,,,,,,,,,,,,,,,,,,,,,
661162,001,2022-11-13_18h01.01.892,Info_measure_main_exp,2022.2.2,Win32,59.58055291,,,,,,,,,,,,,,,,,,masks/mask_003.jpg,,,,,,,,,,,,,,,,,,,,,,,,,,,,,,,,,,,,,,,,,,,,,,,,0,1,1,2,1,,,,,,,,,,,,,,,,,,,,,,,,,,,,,,,,,,,,,,,,,
661162,001,2022-11-13_18h01.01.892,Info_measure_main_exp,2022.2.2,Win32,59.58055291,,,,,,,,,,,,,,,,,,masks/mask_001.jpg,,,,,,,,,,,,,,,,,,,,,,,,,,,,,,,,,,,,,,,,,,,,,,,,0,2,2,0,1,,,,,,,,,,,,,,,,,,,,,,,,,,,,,,,,,,,,,,,,,
661162,001,2022-11-13_18h01.01.892,Info_measure_main_exp,2022.2.2,Win32,59.58055291,,,,,,,,,,,,,,,,,,masks/mask_005.jpg,,,,,,,,,,,,,,,,,,,,,,,,,,,,,,,,,,,,,,,,,,,,,,,,0,3,3,4,1,,,,,,,,,,,,,,,,,,,,,,,,,,,,,,,,,,,,,,,,,
661162,001,2022-11-13_18h01.01.892,Info_measure_main_exp,2022.2.2,Win32,59.58055291,,,,,,,,,,,,,,,,,,masks/mask_004.jpg,,,,,,,,,,,,,,,,,,,,,,,,,,,,,,,,,,,,,,,,,,,,,,,,0,4,4,3,1,,,,,,,,,,,,,,,,,,,,,,,,,,,,,,,,,,,,,,,,,
661162,001,2022-11-13_18h01.01.892,Info_measure_main_exp,2022.2.2,Win32,59.58055291,,,,,,,,,,,,,,,,,,,,,,,,,,,,,,7,1.5997,1,,,,,,,,,,,,0,131,5,5,2082,2178,absent_patch/patch0002082.jpg,absent_patch/patch0002178.jpg,,,,,,,,,,,,,,,,,,,,0.032552083,0.046875,1,0,0,response1disk,21,-0.00390625,-0.001302083,1,0,0,center_square,0,20,20,2,1,,,,,,,,,,,,,,,,,,,,,,,
661162,001,2022-11-13_18h01.01.892,Info_measure_main_exp,2022.2.2,Win32,59.58055291,,,,,,,,,,,,,,,,,,masks/mask_003.jpg,,,,,,,,,,,,,,,,,,,,,,,,,,,,,,,,,,,,,,,,,,,0,0,0,2,1,,,,,,,,,,,,,,,,,,,,,,,,,,,,,,,,,,,,,,,,,,,,,,
661162,001,2022-11-13_18h01.01.892,Info_measure_main_exp,2022.2.2,Win32,59.58055291,,,,,,,,,,,,,,,,,,masks/mask_005.jpg,,,,,,,,,,,,,,,,,,,,,,,,,,,,,,,,,,,,,,,,,,,0,1,1,4,1,,,,,,,,,,,,,,,,,,,,,,,,,,,,,,,,,,,,,,,,,,,,,,
661162,001,2022-11-13_18h01.01.892,Info_measure_main_exp,2022.2.2,Win32,59.58055291,,,,,,,,,,,,,,,,,,masks/mask_001.jpg,,,,,,,,,,,,,,,,,,,,,,,,,,,,,,,,,,,,,,,,,,,0,2,2,0,1,,,,,,,,,,,,,,,,,,,,,,,,,,,,,,,,,,,,,,,,,,,,,,
661162,001,2022-11-13_18h01.01.892,Info_measure_main_exp,2022.2.2,Win32,59.58055291,,,,,,,,,,,,,,,,,,masks/mask_002.jpg,,,,,,,,,,,,,,,,,,,,,,,,,,,,,,,,,,,,,,,,,,,0,3,3,1,1,,,,,,,,,,,,,,,,,,,,,,,,,,,,,,,,,,,,,,,,,,,,,,
661162,001,2022-11-13_18h01.01.892,Info_measure_main_exp,2022.2.2,Win32,59.58055291,,,,,,,,,,,,,,,,,,masks/mask_004.jpg,,,,,,,,,,,,,,,,,,,,,,,,,,,,,,,,,,,,,,,,,,,0,4,4,3,1,,,,,,,,,,,,,,,,,,,,,,,,,,,,,,,,,,,,,,,,,,,,,,
661162,001,2022-11-13_18h01.01.892,Info_measure_main_exp,2022.2.2,Win32,59.58055291,,,,,,,,,,,,,,,,,,masks/mask_005.jpg,,,,,,,,,,,,,,,,,,,,,,,,,,,,,,,,,,,,,,,,,,,,,,,,0,0,0,4,1,,,,,,,,,,,,,,,,,,,,,,,,,,,,,,,,,,,,,,,,,
661162,001,2022-11-13_18h01.01.892,Info_measure_main_exp,2022.2.2,Win32,59.58055291,,,,,,,,,,,,,,,,,,masks/mask_001.jpg,,,,,,,,,,,,,,,,,,,,,,,,,,,,,,,,,,,,,,,,,,,,,,,,0,1,1,0,1,,,,,,,,,,,,,,,,,,,,,,,,,,,,,,,,,,,,,,,,,
661162,001,2022-11-13_18h01.01.892,Info_measure_main_exp,2022.2.2,Win32,59.58055291,,,,,,,,,,,,,,,,,,masks/mask_002.jpg,,,,,,,,,,,,,,,,,,,,,,,,,,,,,,,,,,,,,,,,,,,,,,,,0,2,2,1,1,,,,,,,,,,,,,,,,,,,,,,,,,,,,,,,,,,,,,,,,,
661162,001,2022-11-13_18h01.01.892,Info_measure_main_exp,2022.2.2,Win32,59.58055291,,,,,,,,,,,,,,,,,,masks/mask_003.jpg,,,,,,,,,,,,,,,,,,,,,,,,,,,,,,,,,,,,,,,,,,,,,,,,0,3,3,2,1,,,,,,,,,,,,,,,,,,,,,,,,,,,,,,,,,,,,,,,,,
661162,001,2022-11-13_18h01.01.892,Info_measure_main_exp,2022.2.2,Win32,59.58055291,,,,,,,,,,,,,,,,,,masks/mask_004.jpg,,,,,,,,,,,,,,,,,,,,,,,,,,,,,,,,,,,,,,,,,,,,,,,,0,4,4,3,1,,,,,,,,,,,,,,,,,,,,,,,,,,,,,,,,,,,,,,,,,
661162,001,2022-11-13_18h01.01.892,Info_measure_main_exp,2022.2.2,Win32,59.58055291,,,,,,,,,,,,,,,,,,,,,,,,,,,,,,3,2.3997,1,,,,,,,,,,,,0,131,5,5,2142,2166,absent_patch/patch0002142.jpg,absent_patch/patch0002166.jpg,,,,,,,,,,,,,,,,,,,,-0.044270833,-0.126302083,1,0,0,response5disk,22,0,0.005208333,1,0,0,center_square,0,21,21,66,1,,,,,,,,,,,,,,,,,,,,,,,
661162,001,2022-11-13_18h01.01.892,Info_measure_main_exp,2022.2.2,Win32,59.58055291,,,,,,,,,,,,,,,,,,masks/mask_002.jpg,,,,,,,,,,,,,,,,,,,,,,,,,,,,,,,,,,,,,,,,,,,0,0,0,1,1,,,,,,,,,,,,,,,,,,,,,,,,,,,,,,,,,,,,,,,,,,,,,,
661162,001,2022-11-13_18h01.01.892,Info_measure_main_exp,2022.2.2,Win32,59.58055291,,,,,,,,,,,,,,,,,,masks/mask_001.jpg,,,,,,,,,,,,,,,,,,,,,,,,,,,,,,,,,,,,,,,,,,,0,1,1,0,1,,,,,,,,,,,,,,,,,,,,,,,,,,,,,,,,,,,,,,,,,,,,,,
661162,001,2022-11-13_18h01.01.892,Info_measure_main_exp,2022.2.2,Win32,59.58055291,,,,,,,,,,,,,,,,,,masks/mask_003.jpg,,,,,,,,,,,,,,,,,,,,,,,,,,,,,,,,,,,,,,,,,,,0,2,2,2,1,,,,,,,,,,,,,,,,,,,,,,,,,,,,,,,,,,,,,,,,,,,,,,
661162,001,2022-11-13_18h01.01.892,Info_measure_main_exp,2022.2.2,Win32,59.58055291,,,,,,,,,,,,,,,,,,masks/mask_004.jpg,,,,,,,,,,,,,,,,,,,,,,,,,,,,,,,,,,,,,,,,,,,0,3,3,3,1,,,,,,,,,,,,,,,,,,,,,,,,,,,,,,,,,,,,,,,,,,,,,,
661162,001,2022-11-13_18h01.01.892,Info_measure_main_exp,2022.2.2,Win32,59.58055291,,,,,,,,,,,,,,,,,,masks/mask_005.jpg,,,,,,,,,,,,,,,,,,,,,,,,,,,,,,,,,,,,,,,,,,,0,4,4,4,1,,,,,,,,,,,,,,,,,,,,,,,,,,,,,,,,,,,,,,,,,,,,,,
661162,001,2022-11-13_18h01.01.892,Info_measure_main_exp,2022.2.2,Win32,59.58055291,,,,,,,,,,,,,,,,,,masks/mask_004.jpg,,,,,,,,,,,,,,,,,,,,,,,,,,,,,,,,,,,,,,,,,,,,,,,,0,0,0,3,1,,,,,,,,,,,,,,,,,,,,,,,,,,,,,,,,,,,,,,,,,
661162,001,2022-11-13_18h01.01.892,Info_measure_main_exp,2022.2.2,Win32,59.58055291,,,,,,,,,,,,,,,,,,masks/mask_002.jpg,,,,,,,,,,,,,,,,,,,,,,,,,,,,,,,,,,,,,,,,,,,,,,,,0,1,1,1,1,,,,,,,,,,,,,,,,,,,,,,,,,,,,,,,,,,,,,,,,,
661162,001,2022-11-13_18h01.01.892,Info_measure_main_exp,2022.2.2,Win32,59.58055291,,,,,,,,,,,,,,,,,,masks/mask_003.jpg,,,,,,,,,,,,,,,,,,,,,,,,,,,,,,,,,,,,,,,,,,,,,,,,0,2,2,2,1,,,,,,,,,,,,,,,,,,,,,,,,,,,,,,,,,,,,,,,,,
661162,001,2022-11-13_18h01.01.892,Info_measure_main_exp,2022.2.2,Win32,59.58055291,,,,,,,,,,,,,,,,,,masks/mask_001.jpg,,,,,,,,,,,,,,,,,,,,,,,,,,,,,,,,,,,,,,,,,,,,,,,,0,3,3,0,1,,,,,,,,,,,,,,,,,,,,,,,,,,,,,,,,,,,,,,,,,
661162,001,2022-11-13_18h01.01.892,Info_measure_main_exp,2022.2.2,Win32,59.58055291,,,,,,,,,,,,,,,,,,masks/mask_005.jpg,,,,,,,,,,,,,,,,,,,,,,,,,,,,,,,,,,,,,,,,,,,,,,,,0,4,4,4,1,,,,,,,,,,,,,,,,,,,,,,,,,,,,,,,,,,,,,,,,,
661162,001,2022-11-13_18h01.01.892,Info_measure_main_exp,2022.2.2,Win32,59.58055291,,,,,,,,,,,,,,,,,,,,,,,,,,,,,,7,0.7667,1,,,,,,,,,,,,0,131,5,5,2250,2238,absent_patch/patch0002250.jpg,absent_patch/patch0002238.jpg,,,,,,,,,,,,,,,,,,,,0.037760417,0.072916667,1,0,0,response1disk,23,-0.00390625,-0.006510417,1,0,0,center_square,0,22,22,110,1,,,,,,,,,,,,,,,,,,,,,,,
661162,001,2022-11-13_18h01.01.892,Info_measure_main_exp,2022.2.2,Win32,59.58055291,,,,,,,,,,,,,,,,,,masks/mask_004.jpg,,,,,,,,,,,,,,,,,,,,,,,,,,,,,,,,,,,,,,,,,,,0,0,0,3,1,,,,,,,,,,,,,,,,,,,,,,,,,,,,,,,,,,,,,,,,,,,,,,
661162,001,2022-11-13_18h01.01.892,Info_measure_main_exp,2022.2.2,Win32,59.58055291,,,,,,,,,,,,,,,,,,masks/mask_001.jpg,,,,,,,,,,,,,,,,,,,,,,,,,,,,,,,,,,,,,,,,,,,0,1,1,0,1,,,,,,,,,,,,,,,,,,,,,,,,,,,,,,,,,,,,,,,,,,,,,,
661162,001,2022-11-13_18h01.01.892,Info_measure_main_exp,2022.2.2,Win32,59.58055291,,,,,,,,,,,,,,,,,,masks/mask_002.jpg,,,,,,,,,,,,,,,,,,,,,,,,,,,,,,,,,,,,,,,,,,,0,2,2,1,1,,,,,,,,,,,,,,,,,,,,,,,,,,,,,,,,,,,,,,,,,,,,,,
661162,001,2022-11-13_18h01.01.892,Info_measure_main_exp,2022.2.2,Win32,59.58055291,,,,,,,,,,,,,,,,,,masks/mask_005.jpg,,,,,,,,,,,,,,,,,,,,,,,,,,,,,,,,,,,,,,,,,,,0,3,3,4,1,,,,,,,,,,,,,,,,,,,,,,,,,,,,,,,,,,,,,,,,,,,,,,
661162,001,2022-11-13_18h01.01.892,Info_measure_main_exp,2022.2.2,Win32,59.58055291,,,,,,,,,,,,,,,,,,masks/mask_003.jpg,,,,,,,,,,,,,,,,,,,,,,,,,,,,,,,,,,,,,,,,,,,0,4,4,2,1,,,,,,,,,,,,,,,,,,,,,,,,,,,,,,,,,,,,,,,,,,,,,,
661162,001,2022-11-13_18h01.01.892,Info_measure_main_exp,2022.2.2,Win32,59.58055291,,,,,,,,,,,,,,,,,,masks/mask_003.jpg,,,,,,,,,,,,,,,,,,,,,,,,,,,,,,,,,,,,,,,,,,,,,,,,0,0,0,2,1,,,,,,,,,,,,,,,,,,,,,,,,,,,,,,,,,,,,,,,,,
661162,001,2022-11-13_18h01.01.892,Info_measure_main_exp,2022.2.2,Win32,59.58055291,,,,,,,,,,,,,,,,,,masks/mask_005.jpg,,,,,,,,,,,,,,,,,,,,,,,,,,,,,,,,,,,,,,,,,,,,,,,,0,1,1,4,1,,,,,,,,,,,,,,,,,,,,,,,,,,,,,,,,,,,,,,,,,
661162,001,2022-11-13_18h01.01.892,Info_measure_main_exp,2022.2.2,Win32,59.58055291,,,,,,,,,,,,,,,,,,masks/mask_001.jpg,,,,,,,,,,,,,,,,,,,,,,,,,,,,,,,,,,,,,,,,,,,,,,,,0,2,2,0,1,,,,,,,,,,,,,,,,,,,,,,,,,,,,,,,,,,,,,,,,,
661162,001,2022-11-13_18h01.01.892,Info_measure_main_exp,2022.2.2,Win32,59.58055291,,,,,,,,,,,,,,,,,,masks/mask_004.jpg,,,,,,,,,,,,,,,,,,,,,,,,,,,,,,,,,,,,,,,,,,,,,,,,0,3,3,3,1,,,,,,,,,,,,,,,,,,,,,,,,,,,,,,,,,,,,,,,,,
661162,001,2022-11-13_18h01.01.892,Info_measure_main_exp,2022.2.2,Win32,59.58055291,,,,,,,,,,,,,,,,,,masks/mask_002.jpg,,,,,,,,,,,,,,,,,,,,,,,,,,,,,,,,,,,,,,,,,,,,,,,,0,4,4,1,1,,,,,,,,,,,,,,,,,,,,,,,,,,,,,,,,,,,,,,,,,
661162,001,2022-11-13_18h01.01.892,Info_measure_main_exp,2022.2.2,Win32,59.58055291,,,,,,,,,,,,,,,,,,,,,,,,,,,,,,3,1.9495,1,,,,,,,,,,,,0,131,5,5,2190,1974,absent_patch/patch0002190.jpg,absent_patch/patch0001974.jpg,,,,,,,,,,,,,,,,,,,,-0.033854167,-0.07421875,1,0,0,response5disk,24,0.00390625,0.0078125,1,0,0,center_square,0,23,23,119,1,,,,,,,,,,,,,,,,,,,,,,,
661162,001,2022-11-13_18h01.01.892,Info_measure_main_exp,2022.2.2,Win32,59.58055291,,,,,,,,,,,,,,,,,,masks/mask_005.jpg,,,,,,,,,,,,,,,,,,,,,,,,,,,,,,,,,,,,,,,,,,,0,0,0,4,1,,,,,,,,,,,,,,,,,,,,,,,,,,,,,,,,,,,,,,,,,,,,,,
661162,001,2022-11-13_18h01.01.892,Info_measure_main_exp,2022.2.2,Win32,59.58055291,,,,,,,,,,,,,,,,,,masks/mask_001.jpg,,,,,,,,,,,,,,,,,,,,,,,,,,,,,,,,,,,,,,,,,,,0,1,1,0,1,,,,,,,,,,,,,,,,,,,,,,,,,,,,,,,,,,,,,,,,,,,,,,
661162,001,2022-11-13_18h01.01.892,Info_measure_main_exp,2022.2.2,Win32,59.58055291,,,,,,,,,,,,,,,,,,masks/mask_004.jpg,,,,,,,,,,,,,,,,,,,,,,,,,,,,,,,,,,,,,,,,,,,0,2,2,3,1,,,,,,,,,,,,,,,,,,,,,,,,,,,,,,,,,,,,,,,,,,,,,,
661162,001,2022-11-13_18h01.01.892,Info_measure_main_exp,2022.2.2,Win32,59.58055291,,,,,,,,,,,,,,,,,,masks/mask_002.jpg,,,,,,,,,,,,,,,,,,,,,,,,,,,,,,,,,,,,,,,,,,,0,3,3,1,1,,,,,,,,,,,,,,,,,,,,,,,,,,,,,,,,,,,,,,,,,,,,,,
661162,001,2022-11-13_18h01.01.892,Info_measure_main_exp,2022.2.2,Win32,59.58055291,,,,,,,,,,,,,,,,,,masks/mask_003.jpg,,,,,,,,,,,,,,,,,,,,,,,,,,,,,,,,,,,,,,,,,,,0,4,4,2,1,,,,,,,,,,,,,,,,,,,,,,,,,,,,,,,,,,,,,,,,,,,,,,
661162,001,2022-11-13_18h01.01.892,Info_measure_main_exp,2022.2.2,Win32,59.58055291,,,,,,,,,,,,,,,,,,masks/mask_005.jpg,,,,,,,,,,,,,,,,,,,,,,,,,,,,,,,,,,,,,,,,,,,,,,,,0,0,0,4,1,,,,,,,,,,,,,,,,,,,,,,,,,,,,,,,,,,,,,,,,,
661162,001,2022-11-13_18h01.01.892,Info_measure_main_exp,2022.2.2,Win32,59.58055291,,,,,,,,,,,,,,,,,,masks/mask_001.jpg,,,,,,,,,,,,,,,,,,,,,,,,,,,,,,,,,,,,,,,,,,,,,,,,0,1,1,0,1,,,,,,,,,,,,,,,,,,,,,,,,,,,,,,,,,,,,,,,,,
661162,001,2022-11-13_18h01.01.892,Info_measure_main_exp,2022.2.2,Win32,59.58055291,,,,,,,,,,,,,,,,,,masks/mask_002.jpg,,,,,,,,,,,,,,,,,,,,,,,,,,,,,,,,,,,,,,,,,,,,,,,,0,2,2,1,1,,,,,,,,,,,,,,,,,,,,,,,,,,,,,,,,,,,,,,,,,
661162,001,2022-11-13_18h01.01.892,Info_measure_main_exp,2022.2.2,Win32,59.58055291,,,,,,,,,,,,,,,,,,masks/mask_004.jpg,,,,,,,,,,,,,,,,,,,,,,,,,,,,,,,,,,,,,,,,,,,,,,,,0,3,3,3,1,,,,,,,,,,,,,,,,,,,,,,,,,,,,,,,,,,,,,,,,,
661162,001,2022-11-13_18h01.01.892,Info_measure_main_exp,2022.2.2,Win32,59.58055291,,,,,,,,,,,,,,,,,,masks/mask_003.jpg,,,,,,,,,,,,,,,,,,,,,,,,,,,,,,,,,,,,,,,,,,,,,,,,0,4,4,2,1,,,,,,,,,,,,,,,,,,,,,,,,,,,,,,,,,,,,,,,,,
661162,001,2022-11-13_18h01.01.892,Info_measure_main_exp,2022.2.2,Win32,59.58055291,,,,,,,,,,,,,,,,,,,,,,,,,,,,,,3,1.3165,1,,,,,,,,,,,,0,131,5,5,2274,2250,absent_patch/patch0002274.jpg,absent_patch/patch0002250.jpg,,,,,,,,,,,,,,,,,,,,-0.040364583,-0.067708333,1,0,0,response5disk,25,0.001302083,-0.010416667,1,0,0,center_square,0,24,24,28,1,,,,,,,,,,,,,,,,,,,,,,,
661162,001,2022-11-13_18h01.01.892,Info_measure_main_exp,2022.2.2,Win32,59.58055291,,,,,,,,,,,,,,,,,,masks/mask_004.jpg,,,,,,,,,,,,,,,,,,,,,,,,,,,,,,,,,,,,,,,,,,,0,0,0,3,1,,,,,,,,,,,,,,,,,,,,,,,,,,,,,,,,,,,,,,,,,,,,,,
661162,001,2022-11-13_18h01.01.892,Info_measure_main_exp,2022.2.2,Win32,59.58055291,,,,,,,,,,,,,,,,,,masks/mask_002.jpg,,,,,,,,,,,,,,,,,,,,,,,,,,,,,,,,,,,,,,,,,,,0,1,1,1,1,,,,,,,,,,,,,,,,,,,,,,,,,,,,,,,,,,,,,,,,,,,,,,
661162,001,2022-11-13_18h01.01.892,Info_measure_main_exp,2022.2.2,Win32,59.58055291,,,,,,,,,,,,,,,,,,masks/mask_005.jpg,,,,,,,,,,,,,,,,,,,,,,,,,,,,,,,,,,,,,,,,,,,0,2,2,4,1,,,,,,,,,,,,,,,,,,,,,,,,,,,,,,,,,,,,,,,,,,,,,,
661162,001,2022-11-13_18h01.01.892,Info_measure_main_exp,2022.2.2,Win32,59.58055291,,,,,,,,,,,,,,,,,,masks/mask_003.jpg,,,,,,,,,,,,,,,,,,,,,,,,,,,,,,,,,,,,,,,,,,,0,3,3,2,1,,,,,,,,,,,,,,,,,,,,,,,,,,,,,,,,,,,,,,,,,,,,,,
661162,001,2022-11-13_18h01.01.892,Info_measure_main_exp,2022.2.2,Win32,59.58055291,,,,,,,,,,,,,,,,,,masks/mask_001.jpg,,,,,,,,,,,,,,,,,,,,,,,,,,,,,,,,,,,,,,,,,,,0,4,4,0,1,,,,,,,,,,,,,,,,,,,,,,,,,,,,,,,,,,,,,,,,,,,,,,
661162,001,2022-11-13_18h01.01.892,Info_measure_main_exp,2022.2.2,Win32,59.58055291,,,,,,,,,,,,,,,,,,masks/mask_002.jpg,,,,,,,,,,,,,,,,,,,,,,,,,,,,,,,,,,,,,,,,,,,,,,,,0,0,0,1,1,,,,,,,,,,,,,,,,,,,,,,,,,,,,,,,,,,,,,,,,,
661162,001,2022-11-13_18h01.01.892,Info_measure_main_exp,2022.2.2,Win32,59.58055291,,,,,,,,,,,,,,,,,,masks/mask_003.jpg,,,,,,,,,,,,,,,,,,,,,,,,,,,,,,,,,,,,,,,,,,,,,,,,0,1,1,2,1,,,,,,,,,,,,,,,,,,,,,,,,,,,,,,,,,,,,,,,,,
661162,001,2022-11-13_18h01.01.892,Info_measure_main_exp,2022.2.2,Win32,59.58055291,,,,,,,,,,,,,,,,,,masks/mask_005.jpg,,,,,,,,,,,,,,,,,,,,,,,,,,,,,,,,,,,,,,,,,,,,,,,,0,2,2,4,1,,,,,,,,,,,,,,,,,,,,,,,,,,,,,,,,,,,,,,,,,
661162,001,2022-11-13_18h01.01.892,Info_measure_main_exp,2022.2.2,Win32,59.58055291,,,,,,,,,,,,,,,,,,masks/mask_004.jpg,,,,,,,,,,,,,,,,,,,,,,,,,,,,,,,,,,,,,,,,,,,,,,,,0,3,3,3,1,,,,,,,,,,,,,,,,,,,,,,,,,,,,,,,,,,,,,,,,,
661162,001,2022-11-13_18h01.01.892,Info_measure_main_exp,2022.2.2,Win32,59.58055291,,,,,,,,,,,,,,,,,,masks/mask_001.jpg,,,,,,,,,,,,,,,,,,,,,,,,,,,,,,,,,,,,,,,,,,,,,,,,0,4,4,0,1,,,,,,,,,,,,,,,,,,,,,,,,,,,,,,,,,,,,,,,,,
661162,001,2022-11-13_18h01.01.892,Info_measure_main_exp,2022.2.2,Win32,59.58055291,,,,,,,,,,,,,,,,,,,,,,,,,,,,,,6,2.3162,1,,,,,,,,,,,,0,131,5,5,2178,2238,absent_patch/patch0002178.jpg,absent_patch/patch0002238.jpg,,,,,,,,,,,,,,,,,,,,0.088541667,0.06640625,1,0,0,response1disk,26,0.009114583,0.002604167,1,0,0,center_square,0,25,25,57,1,,,,,,,,,,,,,,,,,,,,,,,
661162,001,2022-11-13_18h01.01.892,Info_measure_main_exp,2022.2.2,Win32,59.58055291,,,,,,,,,,,,,,,,,,masks/mask_004.jpg,,,,,,,,,,,,,,,,,,,,,,,,,,,,,,,,,,,,,,,,,,,0,0,0,3,1,,,,,,,,,,,,,,,,,,,,,,,,,,,,,,,,,,,,,,,,,,,,,,
661162,001,2022-11-13_18h01.01.892,Info_measure_main_exp,2022.2.2,Win32,59.58055291,,,,,,,,,,,,,,,,,,masks/mask_001.jpg,,,,,,,,,,,,,,,,,,,,,,,,,,,,,,,,,,,,,,,,,,,0,1,1,0,1,,,,,,,,,,,,,,,,,,,,,,,,,,,,,,,,,,,,,,,,,,,,,,
661162,001,2022-11-13_18h01.01.892,Info_measure_main_exp,2022.2.2,Win32,59.58055291,,,,,,,,,,,,,,,,,,masks/mask_005.jpg,,,,,,,,,,,,,,,,,,,,,,,,,,,,,,,,,,,,,,,,,,,0,2,2,4,1,,,,,,,,,,,,,,,,,,,,,,,,,,,,,,,,,,,,,,,,,,,,,,
661162,001,2022-11-13_18h01.01.892,Info_measure_main_exp,2022.2.2,Win32,59.58055291,,,,,,,,,,,,,,,,,,masks/mask_003.jpg,,,,,,,,,,,,,,,,,,,,,,,,,,,,,,,,,,,,,,,,,,,0,3,3,2,1,,,,,,,,,,,,,,,,,,,,,,,,,,,,,,,,,,,,,,,,,,,,,,
661162,001,2022-11-13_18h01.01.892,Info_measure_main_exp,2022.2.2,Win32,59.58055291,,,,,,,,,,,,,,,,,,masks/mask_002.jpg,,,,,,,,,,,,,,,,,,,,,,,,,,,,,,,,,,,,,,,,,,,0,4,4,1,1,,,,,,,,,,,,,,,,,,,,,,,,,,,,,,,,,,,,,,,,,,,,,,
661162,001,2022-11-13_18h01.01.892,Info_measure_main_exp,2022.2.2,Win32,59.58055291,,,,,,,,,,,,,,,,,,masks/mask_003.jpg,,,,,,,,,,,,,,,,,,,,,,,,,,,,,,,,,,,,,,,,,,,,,,,,0,0,0,2,1,,,,,,,,,,,,,,,,,,,,,,,,,,,,,,,,,,,,,,,,,
661162,001,2022-11-13_18h01.01.892,Info_measure_main_exp,2022.2.2,Win32,59.58055291,,,,,,,,,,,,,,,,,,masks/mask_005.jpg,,,,,,,,,,,,,,,,,,,,,,,,,,,,,,,,,,,,,,,,,,,,,,,,0,1,1,4,1,,,,,,,,,,,,,,,,,,,,,,,,,,,,,,,,,,,,,,,,,
661162,001,2022-11-13_18h01.01.892,Info_measure_main_exp,2022.2.2,Win32,59.58055291,,,,,,,,,,,,,,,,,,masks/mask_001.jpg,,,,,,,,,,,,,,,,,,,,,,,,,,,,,,,,,,,,,,,,,,,,,,,,0,2,2,0,1,,,,,,,,,,,,,,,,,,,,,,,,,,,,,,,,,,,,,,,,,
661162,001,2022-11-13_18h01.01.892,Info_measure_main_exp,2022.2.2,Win32,59.58055291,,,,,,,,,,,,,,,,,,masks/mask_002.jpg,,,,,,,,,,,,,,,,,,,,,,,,,,,,,,,,,,,,,,,,,,,,,,,,0,3,3,1,1,,,,,,,,,,,,,,,,,,,,,,,,,,,,,,,,,,,,,,,,,
661162,001,2022-11-13_18h01.01.892,Info_measure_main_exp,2022.2.2,Win32,59.58055291,,,,,,,,,,,,,,,,,,masks/mask_004.jpg,,,,,,,,,,,,,,,,,,,,,,,,,,,,,,,,,,,,,,,,,,,,,,,,0,4,4,3,1,,,,,,,,,,,,,,,,,,,,,,,,,,,,,,,,,,,,,,,,,
661162,001,2022-11-13_18h01.01.892,Info_measure_main_exp,2022.2.2,Win32,59.58055291,,,,,,,,,,,,,,,,,,,,,,,,,,,,,,7,1.1334,1,,,,,,,,,,,,0,131,5,5,2214,2166,absent_patch/patch0002214.jpg,absent_patch/patch0002166.jpg,,,,,,,,,,,,,,,,,,,,0.0546875,0.114583333,1,0,0,response1disk,27,0.005208333,-0.002604167,1,0,0,center_square,0,26,26,109,1,,,,,,,,,,,,,,,,,,,,,,,
661162,001,2022-11-13_18h01.01.892,Info_measure_main_exp,2022.2.2,Win32,59.58055291,,,,,,,,,,,,,,,,,,masks/mask_004.jpg,,,,,,,,,,,,,,,,,,,,,,,,,,,,,,,,,,,,,,,,,,,0,0,0,3,1,,,,,,,,,,,,,,,,,,,,,,,,,,,,,,,,,,,,,,,,,,,,,,
661162,001,2022-11-13_18h01.01.892,Info_measure_main_exp,2022.2.2,Win32,59.58055291,,,,,,,,,,,,,,,,,,masks/mask_003.jpg,,,,,,,,,,,,,,,,,,,,,,,,,,,,,,,,,,,,,,,,,,,0,1,1,2,1,,,,,,,,,,,,,,,,,,,,,,,,,,,,,,,,,,,,,,,,,,,,,,
661162,001,2022-11-13_18h01.01.892,Info_measure_main_exp,2022.2.2,Win32,59.58055291,,,,,,,,,,,,,,,,,,masks/mask_005.jpg,,,,,,,,,,,,,,,,,,,,,,,,,,,,,,,,,,,,,,,,,,,0,2,2,4,1,,,,,,,,,,,,,,,,,,,,,,,,,,,,,,,,,,,,,,,,,,,,,,
661162,001,2022-11-13_18h01.01.892,Info_measure_main_exp,2022.2.2,Win32,59.58055291,,,,,,,,,,,,,,,,,,masks/mask_002.jpg,,,,,,,,,,,,,,,,,,,,,,,,,,,,,,,,,,,,,,,,,,,0,3,3,1,1,,,,,,,,,,,,,,,,,,,,,,,,,,,,,,,,,,,,,,,,,,,,,,
661162,001,2022-11-13_18h01.01.892,Info_measure_main_exp,2022.2.2,Win32,59.58055291,,,,,,,,,,,,,,,,,,masks/mask_001.jpg,,,,,,,,,,,,,,,,,,,,,,,,,,,,,,,,,,,,,,,,,,,0,4,4,0,1,,,,,,,,,,,,,,,,,,,,,,,,,,,,,,,,,,,,,,,,,,,,,,
661162,001,2022-11-13_18h01.01.892,Info_measure_main_exp,2022.2.2,Win32,59.58055291,,,,,,,,,,,,,,,,,,masks/mask_003.jpg,,,,,,,,,,,,,,,,,,,,,,,,,,,,,,,,,,,,,,,,,,,,,,,,0,0,0,2,1,,,,,,,,,,,,,,,,,,,,,,,,,,,,,,,,,,,,,,,,,
661162,001,2022-11-13_18h01.01.892,Info_measure_main_exp,2022.2.2,Win32,59.58055291,,,,,,,,,,,,,,,,,,masks/mask_004.jpg,,,,,,,,,,,,,,,,,,,,,,,,,,,,,,,,,,,,,,,,,,,,,,,,0,1,1,3,1,,,,,,,,,,,,,,,,,,,,,,,,,,,,,,,,,,,,,,,,,
661162,001,2022-11-13_18h01.01.892,Info_measure_main_exp,2022.2.2,Win32,59.58055291,,,,,,,,,,,,,,,,,,masks/mask_005.jpg,,,,,,,,,,,,,,,,,,,,,,,,,,,,,,,,,,,,,,,,,,,,,,,,0,2,2,4,1,,,,,,,,,,,,,,,,,,,,,,,,,,,,,,,,,,,,,,,,,
661162,001,2022-11-13_18h01.01.892,Info_measure_main_exp,2022.2.2,Win32,59.58055291,,,,,,,,,,,,,,,,,,masks/mask_001.jpg,,,,,,,,,,,,,,,,,,,,,,,,,,,,,,,,,,,,,,,,,,,,,,,,0,3,3,0,1,,,,,,,,,,,,,,,,,,,,,,,,,,,,,,,,,,,,,,,,,
661162,001,2022-11-13_18h01.01.892,Info_measure_main_exp,2022.2.2,Win32,59.58055291,,,,,,,,,,,,,,,,,,masks/mask_002.jpg,,,,,,,,,,,,,,,,,,,,,,,,,,,,,,,,,,,,,,,,,,,,,,,,0,4,4,1,1,,,,,,,,,,,,,,,,,,,,,,,,,,,,,,,,,,,,,,,,,
661162,001,2022-11-13_18h01.01.892,Info_measure_main_exp,2022.2.2,Win32,59.58055291,,,,,,,,,,,,,,,,,,,,,,,,,,,,,,0,60.984,1,,,,,,,,,,,,1,131,5,5,1,1,present_patch/cong_131_5_a.jpg,present_patch/cong_131_5_a.jpg,,,,,,,,,,,,,,,,,,,,-0.01953125,0.0703125,1,0,0,response7disk,28,-0.00390625,0.01171875,1,0,0,center_square,0,27,27,30,1,,,,,,,,,,,,,,,,,,,,,,,
661162,001,2022-11-13_18h01.01.892,Info_measure_main_exp,2022.2.2,Win32,59.58055291,,,,,,,,,,,,,,,,,,masks/mask_003.jpg,,,,,,,,,,,,,,,,,,,,,,,,,,,,,,,,,,,,,,,,,,,0,0,0,2,1,,,,,,,,,,,,,,,,,,,,,,,,,,,,,,,,,,,,,,,,,,,,,,
661162,001,2022-11-13_18h01.01.892,Info_measure_main_exp,2022.2.2,Win32,59.58055291,,,,,,,,,,,,,,,,,,masks/mask_004.jpg,,,,,,,,,,,,,,,,,,,,,,,,,,,,,,,,,,,,,,,,,,,0,1,1,3,1,,,,,,,,,,,,,,,,,,,,,,,,,,,,,,,,,,,,,,,,,,,,,,
661162,001,2022-11-13_18h01.01.892,Info_measure_main_exp,2022.2.2,Win32,59.58055291,,,,,,,,,,,,,,,,,,masks/mask_005.jpg,,,,,,,,,,,,,,,,,,,,,,,,,,,,,,,,,,,,,,,,,,,0,2,2,4,1,,,,,,,,,,,,,,,,,,,,,,,,,,,,,,,,,,,,,,,,,,,,,,
661162,001,2022-11-13_18h01.01.892,Info_measure_main_exp,2022.2.2,Win32,59.58055291,,,,,,,,,,,,,,,,,,masks/mask_001.jpg,,,,,,,,,,,,,,,,,,,,,,,,,,,,,,,,,,,,,,,,,,,0,3,3,0,1,,,,,,,,,,,,,,,,,,,,,,,,,,,,,,,,,,,,,,,,,,,,,,
661162,001,2022-11-13_18h01.01.892,Info_measure_main_exp,2022.2.2,Win32,59.58055291,,,,,,,,,,,,,,,,,,masks/mask_002.jpg,,,,,,,,,,,,,,,,,,,,,,,,,,,,,,,,,,,,,,,,,,,0,4,4,1,1,,,,,,,,,,,,,,,,,,,,,,,,,,,,,,,,,,,,,,,,,,,,,,
661162,001,2022-11-13_18h01.01.892,Info_measure_main_exp,2022.2.2,Win32,59.58055291,,,,,,,,,,,,,,,,,,masks/mask_005.jpg,,,,,,,,,,,,,,,,,,,,,,,,,,,,,,,,,,,,,,,,,,,,,,,,0,0,0,4,1,,,,,,,,,,,,,,,,,,,,,,,,,,,,,,,,,,,,,,,,,
661162,001,2022-11-13_18h01.01.892,Info_measure_main_exp,2022.2.2,Win32,59.58055291,,,,,,,,,,,,,,,,,,masks/mask_001.jpg,,,,,,,,,,,,,,,,,,,,,,,,,,,,,,,,,,,,,,,,,,,,,,,,0,1,1,0,1,,,,,,,,,,,,,,,,,,,,,,,,,,,,,,,,,,,,,,,,,
661162,001,2022-11-13_18h01.01.892,Info_measure_main_exp,2022.2.2,Win32,59.58055291,,,,,,,,,,,,,,,,,,masks/mask_004.jpg,,,,,,,,,,,,,,,,,,,,,,,,,,,,,,,,,,,,,,,,,,,,,,,,0,2,2,3,1,,,,,,,,,,,,,,,,,,,,,,,,,,,,,,,,,,,,,,,,,
661162,001,2022-11-13_18h01.01.892,Info_measure_main_exp,2022.2.2,Win32,59.58055291,,,,,,,,,,,,,,,,,,masks/mask_003.jpg,,,,,,,,,,,,,,,,,,,,,,,,,,,,,,,,,,,,,,,,,,,,,,,,0,3,3,2,1,,,,,,,,,,,,,,,,,,,,,,,,,,,,,,,,,,,,,,,,,
661162,001,2022-11-13_18h01.01.892,Info_measure_main_exp,2022.2.2,Win32,59.58055291,,,,,,,,,,,,,,,,,,masks/mask_002.jpg,,,,,,,,,,,,,,,,,,,,,,,,,,,,,,,,,,,,,,,,,,,,,,,,0,4,4,1,1,,,,,,,,,,,,,,,,,,,,,,,,,,,,,,,,,,,,,,,,,
661162,001,2022-11-13_18h01.01.892,Info_measure_main_exp,2022.2.2,Win32,59.58055291,,,,,,,,,,,,,,,,,,,,,,,,,,,,,,6,1.8331,1,,,,,,,,,,,,0,131,5,5,2214,2178,absent_patch/patch0002214.jpg,absent_patch/patch0002178.jpg,,,,,,,,,,,,,,,,,,,,0.087239583,0.006510417,1,0,0,response1disk,29,0.005208333,-0.010416667,1,0,0,center_square,0,28,28,62,1,,,,,,,,,,,,,,,,,,,,,,,
661162,001,2022-11-13_18h01.01.892,Info_measure_main_exp,2022.2.2,Win32,59.58055291,,,,,,,,,,,,,,,,,,masks/mask_004.jpg,,,,,,,,,,,,,,,,,,,,,,,,,,,,,,,,,,,,,,,,,,,0,0,0,3,1,,,,,,,,,,,,,,,,,,,,,,,,,,,,,,,,,,,,,,,,,,,,,,
661162,001,2022-11-13_18h01.01.892,Info_measure_main_exp,2022.2.2,Win32,59.58055291,,,,,,,,,,,,,,,,,,masks/mask_005.jpg,,,,,,,,,,,,,,,,,,,,,,,,,,,,,,,,,,,,,,,,,,,0,1,1,4,1,,,,,,,,,,,,,,,,,,,,,,,,,,,,,,,,,,,,,,,,,,,,,,
661162,001,2022-11-13_18h01.01.892,Info_measure_main_exp,2022.2.2,Win32,59.58055291,,,,,,,,,,,,,,,,,,masks/mask_002.jpg,,,,,,,,,,,,,,,,,,,,,,,,,,,,,,,,,,,,,,,,,,,0,2,2,1,1,,,,,,,,,,,,,,,,,,,,,,,,,,,,,,,,,,,,,,,,,,,,,,
661162,001,2022-11-13_18h01.01.892,Info_measure_main_exp,2022.2.2,Win32,59.58055291,,,,,,,,,,,,,,,,,,masks/mask_003.jpg,,,,,,,,,,,,,,,,,,,,,,,,,,,,,,,,,,,,,,,,,,,0,3,3,2,1,,,,,,,,,,,,,,,,,,,,,,,,,,,,,,,,,,,,,,,,,,,,,,
661162,001,2022-11-13_18h01.01.892,Info_measure_main_exp,2022.2.2,Win32,59.58055291,,,,,,,,,,,,,,,,,,masks/mask_001.jpg,,,,,,,,,,,,,,,,,,,,,,,,,,,,,,,,,,,,,,,,,,,0,4,4,0,1,,,,,,,,,,,,,,,,,,,,,,,,,,,,,,,,,,,,,,,,,,,,,,
661162,001,2022-11-13_18h01.01.892,Info_measure_main_exp,2022.2.2,Win32,59.58055291,,,,,,,,,,,,,,,,,,masks/mask_002.jpg,,,,,,,,,,,,,,,,,,,,,,,,,,,,,,,,,,,,,,,,,,,,,,,,0,0,0,1,1,,,,,,,,,,,,,,,,,,,,,,,,,,,,,,,,,,,,,,,,,
661162,001,2022-11-13_18h01.01.892,Info_measure_main_exp,2022.2.2,Win32,59.58055291,,,,,,,,,,,,,,,,,,masks/mask_001.jpg,,,,,,,,,,,,,,,,,,,,,,,,,,,,,,,,,,,,,,,,,,,,,,,,0,1,1,0,1,,,,,,,,,,,,,,,,,,,,,,,,,,,,,,,,,,,,,,,,,
661162,001,2022-11-13_18h01.01.892,Info_measure_main_exp,2022.2.2,Win32,59.58055291,,,,,,,,,,,,,,,,,,masks/mask_003.jpg,,,,,,,,,,,,,,,,,,,,,,,,,,,,,,,,,,,,,,,,,,,,,,,,0,2,2,2,1,,,,,,,,,,,,,,,,,,,,,,,,,,,,,,,,,,,,,,,,,
661162,001,2022-11-13_18h01.01.892,Info_measure_main_exp,2022.2.2,Win32,59.58055291,,,,,,,,,,,,,,,,,,masks/mask_004.jpg,,,,,,,,,,,,,,,,,,,,,,,,,,,,,,,,,,,,,,,,,,,,,,,,0,3,3,3,1,,,,,,,,,,,,,,,,,,,,,,,,,,,,,,,,,,,,,,,,,
661162,001,2022-11-13_18h01.01.892,Info_measure_main_exp,2022.2.2,Win32,59.58055291,,,,,,,,,,,,,,,,,,masks/mask_005.jpg,,,,,,,,,,,,,,,,,,,,,,,,,,,,,,,,,,,,,,,,,,,,,,,,0,4,4,4,1,,,,,,,,,,,,,,,,,,,,,,,,,,,,,,,,,,,,,,,,,
661162,001,2022-11-13_18h01.01.892,Info_measure_main_exp,2022.2.2,Win32,59.58055291,,,,,,,,,,,,,,,,,,,,,,,,,,,,,,4,1.1993,1,,,,,,,,,,,,0,131,5,5,2154,1950,absent_patch/patch0002154.jpg,absent_patch/patch0001950.jpg,,,,,,,,,,,,,,,,,,,,0.010416667,-0.059895833,1,0,0,response3disk,30,0.002604167,-0.0078125,1,0,0,center_square,0,29,29,96,1,,,,,,,,,,,,,,,,,,,,,,,
661162,001,2022-11-13_18h01.01.892,Info_measure_main_exp,2022.2.2,Win32,59.58055291,,,,,,,,,,,,,,,,,,masks/mask_004.jpg,,,,,,,,,,,,,,,,,,,,,,,,,,,,,,,,,,,,,,,,,,,0,0,0,3,1,,,,,,,,,,,,,,,,,,,,,,,,,,,,,,,,,,,,,,,,,,,,,,
661162,001,2022-11-13_18h01.01.892,Info_measure_main_exp,2022.2.2,Win32,59.58055291,,,,,,,,,,,,,,,,,,masks/mask_005.jpg,,,,,,,,,,,,,,,,,,,,,,,,,,,,,,,,,,,,,,,,,,,0,1,1,4,1,,,,,,,,,,,,,,,,,,,,,,,,,,,,,,,,,,,,,,,,,,,,,,
661162,001,2022-11-13_18h01.01.892,Info_measure_main_exp,2022.2.2,Win32,59.58055291,,,,,,,,,,,,,,,,,,masks/mask_003.jpg,,,,,,,,,,,,,,,,,,,,,,,,,,,,,,,,,,,,,,,,,,,0,2,2,2,1,,,,,,,,,,,,,,,,,,,,,,,,,,,,,,,,,,,,,,,,,,,,,,
661162,001,2022-11-13_18h01.01.892,Info_measure_main_exp,2022.2.2,Win32,59.58055291,,,,,,,,,,,,,,,,,,masks/mask_002.jpg,,,,,,,,,,,,,,,,,,,,,,,,,,,,,,,,,,,,,,,,,,,0,3,3,1,1,,,,,,,,,,,,,,,,,,,,,,,,,,,,,,,,,,,,,,,,,,,,,,
661162,001,2022-11-13_18h01.01.892,Info_measure_main_exp,2022.2.2,Win32,59.58055291,,,,,,,,,,,,,,,,,,masks/mask_001.jpg,,,,,,,,,,,,,,,,,,,,,,,,,,,,,,,,,,,,,,,,,,,0,4,4,0,1,,,,,,,,,,,,,,,,,,,,,,,,,,,,,,,,,,,,,,,,,,,,,,
661162,001,2022-11-13_18h01.01.892,Info_measure_main_exp,2022.2.2,Win32,59.58055291,,,,,,,,,,,,,,,,,,masks/mask_003.jpg,,,,,,,,,,,,,,,,,,,,,,,,,,,,,,,,,,,,,,,,,,,,,,,,0,0,0,2,1,,,,,,,,,,,,,,,,,,,,,,,,,,,,,,,,,,,,,,,,,
661162,001,2022-11-13_18h01.01.892,Info_measure_main_exp,2022.2.2,Win32,59.58055291,,,,,,,,,,,,,,,,,,masks/mask_005.jpg,,,,,,,,,,,,,,,,,,,,,,,,,,,,,,,,,,,,,,,,,,,,,,,,0,1,1,4,1,,,,,,,,,,,,,,,,,,,,,,,,,,,,,,,,,,,,,,,,,
661162,001,2022-11-13_18h01.01.892,Info_measure_main_exp,2022.2.2,Win32,59.58055291,,,,,,,,,,,,,,,,,,masks/mask_001.jpg,,,,,,,,,,,,,,,,,,,,,,,,,,,,,,,,,,,,,,,,,,,,,,,,0,2,2,0,1,,,,,,,,,,,,,,,,,,,,,,,,,,,,,,,,,,,,,,,,,
661162,001,2022-11-13_18h01.01.892,Info_measure_main_exp,2022.2.2,Win32,59.58055291,,,,,,,,,,,,,,,,,,masks/mask_002.jpg,,,,,,,,,,,,,,,,,,,,,,,,,,,,,,,,,,,,,,,,,,,,,,,,0,3,3,1,1,,,,,,,,,,,,,,,,,,,,,,,,,,,,,,,,,,,,,,,,,
661162,001,2022-11-13_18h01.01.892,Info_measure_main_exp,2022.2.2,Win32,59.58055291,,,,,,,,,,,,,,,,,,masks/mask_004.jpg,,,,,,,,,,,,,,,,,,,,,,,,,,,,,,,,,,,,,,,,,,,,,,,,0,4,4,3,1,,,,,,,,,,,,,,,,,,,,,,,,,,,,,,,,,,,,,,,,,
661162,001,2022-11-13_18h01.01.892,Info_measure_main_exp,2022.2.2,Win32,59.58055291,,,,,,,,,,,,,,,,,,,,,,,,,,,,,,7,0.6164,1,,,,,,,,,,,,1,131,5,5,2298,1,absent_patch/patch0002298.jpg,present_patch/cong_131_5_a.jpg,,,,,,,,,,,,,,,,,,,,0.080729167,0.125,1,0,0,response1disk,31,0.001302083,-0.001302083,1,0,0,center_square,0,30,30,45,1,,,,,,,,,,,,,,,,,,,,,,,
661162,001,2022-11-13_18h01.01.892,Info_measure_main_exp,2022.2.2,Win32,59.58055291,,,,,,,,,,,,,,,,,,masks/mask_005.jpg,,,,,,,,,,,,,,,,,,,,,,,,,,,,,,,,,,,,,,,,,,,0,0,0,4,1,,,,,,,,,,,,,,,,,,,,,,,,,,,,,,,,,,,,,,,,,,,,,,
661162,001,2022-11-13_18h01.01.892,Info_measure_main_exp,2022.2.2,Win32,59.58055291,,,,,,,,,,,,,,,,,,masks/mask_003.jpg,,,,,,,,,,,,,,,,,,,,,,,,,,,,,,,,,,,,,,,,,,,0,1,1,2,1,,,,,,,,,,,,,,,,,,,,,,,,,,,,,,,,,,,,,,,,,,,,,,
661162,001,2022-11-13_18h01.01.892,Info_measure_main_exp,2022.2.2,Win32,59.58055291,,,,,,,,,,,,,,,,,,masks/mask_002.jpg,,,,,,,,,,,,,,,,,,,,,,,,,,,,,,,,,,,,,,,,,,,0,2,2,1,1,,,,,,,,,,,,,,,,,,,,,,,,,,,,,,,,,,,,,,,,,,,,,,
661162,001,2022-11-13_18h01.01.892,Info_measure_main_exp,2022.2.2,Win32,59.58055291,,,,,,,,,,,,,,,,,,masks/mask_004.jpg,,,,,,,,,,,,,,,,,,,,,,,,,,,,,,,,,,,,,,,,,,,0,3,3,3,1,,,,,,,,,,,,,,,,,,,,,,,,,,,,,,,,,,,,,,,,,,,,,,
661162,001,2022-11-13_18h01.01.892,Info_measure_main_exp,2022.2.2,Win32,59.58055291,,,,,,,,,,,,,,,,,,masks/mask_001.jpg,,,,,,,,,,,,,,,,,,,,,,,,,,,,,,,,,,,,,,,,,,,0,4,4,0,1,,,,,,,,,,,,,,,,,,,,,,,,,,,,,,,,,,,,,,,,,,,,,,
661162,001,2022-11-13_18h01.01.892,Info_measure_main_exp,2022.2.2,Win32,59.58055291,,,,,,,,,,,,,,,,,,masks/mask_002.jpg,,,,,,,,,,,,,,,,,,,,,,,,,,,,,,,,,,,,,,,,,,,,,,,,0,0,0,1,1,,,,,,,,,,,,,,,,,,,,,,,,,,,,,,,,,,,,,,,,,
661162,001,2022-11-13_18h01.01.892,Info_measure_main_exp,2022.2.2,Win32,59.58055291,,,,,,,,,,,,,,,,,,masks/mask_005.jpg,,,,,,,,,,,,,,,,,,,,,,,,,,,,,,,,,,,,,,,,,,,,,,,,0,1,1,4,1,,,,,,,,,,,,,,,,,,,,,,,,,,,,,,,,,,,,,,,,,
661162,001,2022-11-13_18h01.01.892,Info_measure_main_exp,2022.2.2,Win32,59.58055291,,,,,,,,,,,,,,,,,,masks/mask_004.jpg,,,,,,,,,,,,,,,,,,,,,,,,,,,,,,,,,,,,,,,,,,,,,,,,0,2,2,3,1,,,,,,,,,,,,,,,,,,,,,,,,,,,,,,,,,,,,,,,,,
661162,001,2022-11-13_18h01.01.892,Info_measure_main_exp,2022.2.2,Win32,59.58055291,,,,,,,,,,,,,,,,,,masks/mask_001.jpg,,,,,,,,,,,,,,,,,,,,,,,,,,,,,,,,,,,,,,,,,,,,,,,,0,3,3,0,1,,,,,,,,,,,,,,,,,,,,,,,,,,,,,,,,,,,,,,,,,
661162,001,2022-11-13_18h01.01.892,Info_measure_main_exp,2022.2.2,Win32,59.58055291,,,,,,,,,,,,,,,,,,masks/mask_003.jpg,,,,,,,,,,,,,,,,,,,,,,,,,,,,,,,,,,,,,,,,,,,,,,,,0,4,4,2,1,,,,,,,,,,,,,,,,,,,,,,,,,,,,,,,,,,,,,,,,,
661162,001,2022-11-13_18h01.01.892,Info_measure_main_exp,2022.2.2,Win32,59.58055291,,,,,,,,,,,,,,,,,,,,,,,,,,,,,,7,0.9665,1,,,,,,,,,,,,1,131,5,5,1,2142,present_patch/cong_131_5_a.jpg,absent_patch/patch0002142.jpg,,,,,,,,,,,,,,,,,,,,0.048177083,0.072916667,1,0,0,response1disk,32,-0.00390625,-0.013020833,1,0,0,center_square,0,31,31,80,1,,,,,,,,,,,,,,,,,,,,,,,
661162,001,2022-11-13_18h01.01.892,Info_measure_main_exp,2022.2.2,Win32,59.58055291,,,,,,,,,,,,,,,,,,masks/mask_003.jpg,,,,,,,,,,,,,,,,,,,,,,,,,,,,,,,,,,,,,,,,,,,0,0,0,2,1,,,,,,,,,,,,,,,,,,,,,,,,,,,,,,,,,,,,,,,,,,,,,,
661162,001,2022-11-13_18h01.01.892,Info_measure_main_exp,2022.2.2,Win32,59.58055291,,,,,,,,,,,,,,,,,,masks/mask_001.jpg,,,,,,,,,,,,,,,,,,,,,,,,,,,,,,,,,,,,,,,,,,,0,1,1,0,1,,,,,,,,,,,,,,,,,,,,,,,,,,,,,,,,,,,,,,,,,,,,,,
661162,001,2022-11-13_18h01.01.892,Info_measure_main_exp,2022.2.2,Win32,59.58055291,,,,,,,,,,,,,,,,,,masks/mask_005.jpg,,,,,,,,,,,,,,,,,,,,,,,,,,,,,,,,,,,,,,,,,,,0,2,2,4,1,,,,,,,,,,,,,,,,,,,,,,,,,,,,,,,,,,,,,,,,,,,,,,
661162,001,2022-11-13_18h01.01.892,Info_measure_main_exp,2022.2.2,Win32,59.58055291,,,,,,,,,,,,,,,,,,masks/mask_002.jpg,,,,,,,,,,,,,,,,,,,,,,,,,,,,,,,,,,,,,,,,,,,0,3,3,1,1,,,,,,,,,,,,,,,,,,,,,,,,,,,,,,,,,,,,,,,,,,,,,,
661162,001,2022-11-13_18h01.01.892,Info_measure_main_exp,2022.2.2,Win32,59.58055291,,,,,,,,,,,,,,,,,,masks/mask_004.jpg,,,,,,,,,,,,,,,,,,,,,,,,,,,,,,,,,,,,,,,,,,,0,4,4,3,1,,,,,,,,,,,,,,,,,,,,,,,,,,,,,,,,,,,,,,,,,,,,,,
661162,001,2022-11-13_18h01.01.892,Info_measure_main_exp,2022.2.2,Win32,59.58055291,,,,,,,,,,,,,,,,,,masks/mask_002.jpg,,,,,,,,,,,,,,,,,,,,,,,,,,,,,,,,,,,,,,,,,,,,,,,,0,0,0,1,1,,,,,,,,,,,,,,,,,,,,,,,,,,,,,,,,,,,,,,,,,
661162,001,2022-11-13_18h01.01.892,Info_measure_main_exp,2022.2.2,Win32,59.58055291,,,,,,,,,,,,,,,,,,masks/mask_004.jpg,,,,,,,,,,,,,,,,,,,,,,,,,,,,,,,,,,,,,,,,,,,,,,,,0,1,1,3,1,,,,,,,,,,,,,,,,,,,,,,,,,,,,,,,,,,,,,,,,,
661162,001,2022-11-13_18h01.01.892,Info_measure_main_exp,2022.2.2,Win32,59.58055291,,,,,,,,,,,,,,,,,,masks/mask_005.jpg,,,,,,,,,,,,,,,,,,,,,,,,,,,,,,,,,,,,,,,,,,,,,,,,0,2,2,4,1,,,,,,,,,,,,,,,,,,,,,,,,,,,,,,,,,,,,,,,,,
661162,001,2022-11-13_18h01.01.892,Info_measure_main_exp,2022.2.2,Win32,59.58055291,,,,,,,,,,,,,,,,,,masks/mask_001.jpg,,,,,,,,,,,,,,,,,,,,,,,,,,,,,,,,,,,,,,,,,,,,,,,,0,3,3,0,1,,,,,,,,,,,,,,,,,,,,,,,,,,,,,,,,,,,,,,,,,
661162,001,2022-11-13_18h01.01.892,Info_measure_main_exp,2022.2.2,Win32,59.58055291,,,,,,,,,,,,,,,,,,masks/mask_003.jpg,,,,,,,,,,,,,,,,,,,,,,,,,,,,,,,,,,,,,,,,,,,,,,,,0,4,4,2,1,,,,,,,,,,,,,,,,,,,,,,,,,,,,,,,,,,,,,,,,,
661162,001,2022-11-13_18h01.01.892,Info_measure_main_exp,2022.2.2,Win32,59.58055291,,,,,,,,,,,,,,,,,,,,,,,,,,,,,,5,2.233,1,,,,,,,,,,,,0,131,5,5,2142,2190,absent_patch/patch0002142.jpg,absent_patch/patch0002190.jpg,,,,,,,,,,,,,,,,,,,,0.063802083,-0.01953125,1,0,0,response3disk,33,0.00390625,-0.01171875,1,0,0,center_square,0,32,32,70,1,,,,,,,,,,,,,,,,,,,,,,,
661162,001,2022-11-13_18h01.01.892,Info_measure_main_exp,2022.2.2,Win32,59.58055291,,,,,,,,,,,,,,,,,,masks/mask_002.jpg,,,,,,,,,,,,,,,,,,,,,,,,,,,,,,,,,,,,,,,,,,,0,0,0,1,1,,,,,,,,,,,,,,,,,,,,,,,,,,,,,,,,,,,,,,,,,,,,,,
661162,001,2022-11-13_18h01.01.892,Info_measure_main_exp,2022.2.2,Win32,59.58055291,,,,,,,,,,,,,,,,,,masks/mask_003.jpg,,,,,,,,,,,,,,,,,,,,,,,,,,,,,,,,,,,,,,,,,,,0,1,1,2,1,,,,,,,,,,,,,,,,,,,,,,,,,,,,,,,,,,,,,,,,,,,,,,
661162,001,2022-11-13_18h01.01.892,Info_measure_main_exp,2022.2.2,Win32,59.58055291,,,,,,,,,,,,,,,,,,masks/mask_001.jpg,,,,,,,,,,,,,,,,,,,,,,,,,,,,,,,,,,,,,,,,,,,0,2,2,0,1,,,,,,,,,,,,,,,,,,,,,,,,,,,,,,,,,,,,,,,,,,,,,,
661162,001,2022-11-13_18h01.01.892,Info_measure_main_exp,2022.2.2,Win32,59.58055291,,,,,,,,,,,,,,,,,,masks/mask_005.jpg,,,,,,,,,,,,,,,,,,,,,,,,,,,,,,,,,,,,,,,,,,,0,3,3,4,1,,,,,,,,,,,,,,,,,,,,,,,,,,,,,,,,,,,,,,,,,,,,,,
661162,001,2022-11-13_18h01.01.892,Info_measure_main_exp,2022.2.2,Win32,59.58055291,,,,,,,,,,,,,,,,,,masks/mask_004.jpg,,,,,,,,,,,,,,,,,,,,,,,,,,,,,,,,,,,,,,,,,,,0,4,4,3,1,,,,,,,,,,,,,,,,,,,,,,,,,,,,,,,,,,,,,,,,,,,,,,
661162,001,2022-11-13_18h01.01.892,Info_measure_main_exp,2022.2.2,Win32,59.58055291,,,,,,,,,,,,,,,,,,masks/mask_003.jpg,,,,,,,,,,,,,,,,,,,,,,,,,,,,,,,,,,,,,,,,,,,,,,,,0,0,0,2,1,,,,,,,,,,,,,,,,,,,,,,,,,,,,,,,,,,,,,,,,,
661162,001,2022-11-13_18h01.01.892,Info_measure_main_exp,2022.2.2,Win32,59.58055291,,,,,,,,,,,,,,,,,,masks/mask_005.jpg,,,,,,,,,,,,,,,,,,,,,,,,,,,,,,,,,,,,,,,,,,,,,,,,0,1,1,4,1,,,,,,,,,,,,,,,,,,,,,,,,,,,,,,,,,,,,,,,,,
661162,001,2022-11-13_18h01.01.892,Info_measure_main_exp,2022.2.2,Win32,59.58055291,,,,,,,,,,,,,,,,,,masks/mask_004.jpg,,,,,,,,,,,,,,,,,,,,,,,,,,,,,,,,,,,,,,,,,,,,,,,,0,2,2,3,1,,,,,,,,,,,,,,,,,,,,,,,,,,,,,,,,,,,,,,,,,
661162,001,2022-11-13_18h01.01.892,Info_measure_main_exp,2022.2.2,Win32,59.58055291,,,,,,,,,,,,,,,,,,masks/mask_002.jpg,,,,,,,,,,,,,,,,,,,,,,,,,,,,,,,,,,,,,,,,,,,,,,,,0,3,3,1,1,,,,,,,,,,,,,,,,,,,,,,,,,,,,,,,,,,,,,,,,,
661162,001,2022-11-13_18h01.01.892,Info_measure_main_exp,2022.2.2,Win32,59.58055291,,,,,,,,,,,,,,,,,,masks/mask_001.jpg,,,,,,,,,,,,,,,,,,,,,,,,,,,,,,,,,,,,,,,,,,,,,,,,0,4,4,0,1,,,,,,,,,,,,,,,,,,,,,,,,,,,,,,,,,,,,,,,,,
661162,001,2022-11-13_18h01.01.892,Info_measure_main_exp,2022.2.2,Win32,59.58055291,,,,,,,,,,,,,,,,,,,,,,,,,,,,,,2,2.3831,1,,,,,,,,,,,,0,131,5,5,2190,2082,absent_patch/patch0002190.jpg,absent_patch/patch0002082.jpg,,,,,,,,,,,,,,,,,,,,-0.0859375,-0.05859375,1,0,0,response5disk,34,0,0,1,0,0,center_square,0,33,33,112,1,,,,,,,,,,,,,,,,,,,,,,,
661162,001,2022-11-13_18h01.01.892,Info_measure_main_exp,2022.2.2,Win32,59.58055291,,,,,,,,,,,,,,,,,,masks/mask_004.jpg,,,,,,,,,,,,,,,,,,,,,,,,,,,,,,,,,,,,,,,,,,,0,0,0,3,1,,,,,,,,,,,,,,,,,,,,,,,,,,,,,,,,,,,,,,,,,,,,,,
661162,001,2022-11-13_18h01.01.892,Info_measure_main_exp,2022.2.2,Win32,59.58055291,,,,,,,,,,,,,,,,,,masks/mask_003.jpg,,,,,,,,,,,,,,,,,,,,,,,,,,,,,,,,,,,,,,,,,,,0,1,1,2,1,,,,,,,,,,,,,,,,,,,,,,,,,,,,,,,,,,,,,,,,,,,,,,
661162,001,2022-11-13_18h01.01.892,Info_measure_main_exp,2022.2.2,Win32,59.58055291,,,,,,,,,,,,,,,,,,masks/mask_002.jpg,,,,,,,,,,,,,,,,,,,,,,,,,,,,,,,,,,,,,,,,,,,0,2,2,1,1,,,,,,,,,,,,,,,,,,,,,,,,,,,,,,,,,,,,,,,,,,,,,,
661162,001,2022-11-13_18h01.01.892,Info_measure_main_exp,2022.2.2,Win32,59.58055291,,,,,,,,,,,,,,,,,,masks/mask_005.jpg,,,,,,,,,,,,,,,,,,,,,,,,,,,,,,,,,,,,,,,,,,,0,3,3,4,1,,,,,,,,,,,,,,,,,,,,,,,,,,,,,,,,,,,,,,,,,,,,,,
661162,001,2022-11-13_18h01.01.892,Info_measure_main_exp,2022.2.2,Win32,59.58055291,,,,,,,,,,,,,,,,,,masks/mask_001.jpg,,,,,,,,,,,,,,,,,,,,,,,,,,,,,,,,,,,,,,,,,,,0,4,4,0,1,,,,,,,,,,,,,,,,,,,,,,,,,,,,,,,,,,,,,,,,,,,,,,
661162,001,2022-11-13_18h01.01.892,Info_measure_main_exp,2022.2.2,Win32,59.58055291,,,,,,,,,,,,,,,,,,masks/mask_003.jpg,,,,,,,,,,,,,,,,,,,,,,,,,,,,,,,,,,,,,,,,,,,,,,,,0,0,0,2,1,,,,,,,,,,,,,,,,,,,,,,,,,,,,,,,,,,,,,,,,,
661162,001,2022-11-13_18h01.01.892,Info_measure_main_exp,2022.2.2,Win32,59.58055291,,,,,,,,,,,,,,,,,,masks/mask_001.jpg,,,,,,,,,,,,,,,,,,,,,,,,,,,,,,,,,,,,,,,,,,,,,,,,0,1,1,0,1,,,,,,,,,,,,,,,,,,,,,,,,,,,,,,,,,,,,,,,,,
661162,001,2022-11-13_18h01.01.892,Info_measure_main_exp,2022.2.2,Win32,59.58055291,,,,,,,,,,,,,,,,,,masks/mask_004.jpg,,,,,,,,,,,,,,,,,,,,,,,,,,,,,,,,,,,,,,,,,,,,,,,,0,2,2,3,1,,,,,,,,,,,,,,,,,,,,,,,,,,,,,,,,,,,,,,,,,
661162,001,2022-11-13_18h01.01.892,Info_measure_main_exp,2022.2.2,Win32,59.58055291,,,,,,,,,,,,,,,,,,masks/mask_005.jpg,,,,,,,,,,,,,,,,,,,,,,,,,,,,,,,,,,,,,,,,,,,,,,,,0,3,3,4,1,,,,,,,,,,,,,,,,,,,,,,,,,,,,,,,,,,,,,,,,,
