participant,session,date,expName,psychopyVersion,OS,frameRate,space_press_continue.keys,space_press_continue.rt,space_press_continue_2.keys,space_press_continue_2.rt,space_press_continue_3.keys,space_press_continue_3.rt,space_press_continue_4.keys,space_press_continue_4.rt,space_press_continue_5.keys,space_press_continue_5.rt,space_press_continue_6.keys,space_press_continue_6.rt,prac_mask_loop_1.thisRepN,prac_mask_loop_1.thisTrialN,prac_mask_loop_1.thisN,prac_mask_loop_1.thisIndex,prac_mask_loop_1.ran,mask_name,prac_mask_loop_2.thisRepN,prac_mask_loop_2.thisTrialN,prac_mask_loop_2.thisN,prac_mask_loop_2.thisIndex,prac_mask_loop_2.ran,mouse_2.x,mouse_2.y,mouse_2.leftButton,mouse_2.midButton,mouse_2.rightButton,mouse_2.clicked_name,similarity,response_time,Pass,mouse_12.x,mouse_12.y,mouse_12.leftButton,mouse_12.midButton,mouse_12.rightButton,mouse_12.clicked_name,prac_loop.thisRepN,prac_loop.thisTrialN,prac_loop.thisN,prac_loop.thisIndex,prac_loop.ran,Pair_type,Image_num,Patch_1_loc,Patch_2_loc,Patch_1_info,Patch_2_info,Patch_1_name,Patch_2_name,mouse_1.x,mouse_1.y,mouse_1.leftButton,mouse_1.midButton,mouse_1.rightButton,mouse_1.time,mouse_1.clicked_name,space_press_continue_7.keys,space_press_continue_7.rt,mask_loop.thisRepN,mask_loop.thisTrialN,mask_loop.thisN,mask_loop.thisIndex,mask_loop.ran,mask_loop_2.thisRepN,mask_loop_2.thisTrialN,mask_loop_2.thisN,mask_loop_2.thisIndex,mask_loop_2.ran,mouse.x,mouse.y,mouse.leftButton,mouse.midButton,mouse.rightButton,mouse.clicked_name,trialNumber,mouse_11.x,mouse_11.y,mouse_11.leftButton,mouse_11.midButton,mouse_11.rightButton,mouse_11.clicked_name,first_pass_loop.thisRepN,first_pass_loop.thisTrialN,first_pass_loop.thisN,first_pass_loop.thisIndex,first_pass_loop.ran,mask_loop_3.thisRepN,mask_loop_3.thisTrialN,mask_loop_3.thisN,mask_loop_3.thisIndex,mask_loop_3.ran,mask_loop_4.thisRepN,mask_loop_4.thisTrialN,mask_loop_4.thisN,mask_loop_4.thisIndex,mask_loop_4.ran,mouse_3.x,mouse_3.y,mouse_3.leftButton,mouse_3.midButton,mouse_3.rightButton,mouse_3.clicked_name,double_pass_loop.thisRepN,double_pass_loop.thisTrialN,double_pass_loop.thisN,double_pass_loop.thisIndex,double_pass_loop.ran,space_exit.keys,space_exit.rt
661414,001,2022-11-20_23h57.33.458,Info_measure_main_exp,2022.2.2,Win32,74.96251874,,,,,,,,,,,,,,,,,,,,,,,,,,,,,,,,,,,,,,,,,,,,,,,,,,,,,,,,,,,,,,,,,,,,,,,,,,,,,,,,,,,,,,,,,,,,,,,,,,,,,,,,,,,,,,,
661414,001,2022-11-20_23h57.33.458,Info_measure_main_exp,2022.2.2,Win32,74.96251874,,,,,,,,,,,,,,,,,,,,,,,,,,,,,,,,,,,,,,,,,,,,,,,,,,,,,,,,,,,,,,,,,,,,,,,,,,,,,,,,,,,,,,,,,,,,,,,,,,,,,,,,,,,,,,,
661414,001,2022-11-20_23h57.33.458,Info_measure_main_exp,2022.2.2,Win32,74.96251874,space,7.191,,,,,,,,,,,,,,,,,,,,,,,,,,,,,,,,,,,,,,,,,,,,,,,,,,,,,,,,,,,,,,,,,,,,,,,,,,,,,,,,,,,,,,,,,,,,,,,,,,,,,,,,,,,,,
661414,001,2022-11-20_23h57.33.458,Info_measure_main_exp,2022.2.2,Win32,74.96251874,,,space,283.23,,,,,,,,,,,,,,,,,,,,,,,,,,,,,,,,,,,,,,,,,,,,,,,,,,,,,,,,,,,,,,,,,,,,,,,,,,,,,,,,,,,,,,,,,,,,,,,,,,,,,,,,,,,
661414,001,2022-11-20_23h57.33.458,Info_measure_main_exp,2022.2.2,Win32,74.96251874,,,,,space,16.211,,,,,,,,,,,,,,,,,,,,,,,,,,,,,,,,,,,,,,,,,,,,,,,,,,,,,,,,,,,,,,,,,,,,,,,,,,,,,,,,,,,,,,,,,,,,,,,,,,,,,,,,,
661414,001,2022-11-20_23h57.33.458,Info_measure_main_exp,2022.2.2,Win32,74.96251874,,,,,,,space,20.994,,,,,,,,,,,,,,,,,,,,,,,,,,,,,,,,,,,,,,,,,,,,,,,,,,,,,,,,,,,,,,,,,,,,,,,,,,,,,,,,,,,,,,,,,,,,,,,,,,,,,,,
661414,001,2022-11-20_23h57.33.458,Info_measure_main_exp,2022.2.2,Win32,74.96251874,,,,,,,,,space,39.58,,,,,,,,,,,,,,,,,,,,,,,,,,,,,,,,,,,,,,,,,,,,,,,,,,,,,,,,,,,,,,,,,,,,,,,,,,,,,,,,,,,,,,,,,,,,,,,,,,,,,
661414,001,2022-11-20_23h57.33.458,Info_measure_main_exp,2022.2.2,Win32,74.96251874,,,,,,,,,,,space,0.478,,,,,,,,,,,,,,,,,,,,,,,,,,,,,,,,,,,,,,,,,,,,,,,,,,,,,,,,,,,,,,,,,,,,,,,,,,,,,,,,,,,,,,,,,,,,,,,,,,,
661414,001,2022-11-20_23h57.33.458,Info_measure_main_exp,2022.2.2,Win32,74.96251874,,,,,,,,,,,,,0,0,0,1,1,masks/mask_002.jpg,,,,,,,,,,,,,,,,,,,,,,,,,,,,,,,,,,,,,,,,,,,,,,,,,,,,,,,,,,,,,,,,,,,,,,,,,,,,,,,,,,,,,,,,,,,,,
661414,001,2022-11-20_23h57.33.458,Info_measure_main_exp,2022.2.2,Win32,74.96251874,,,,,,,,,,,,,0,1,1,3,1,masks/mask_004.jpg,,,,,,,,,,,,,,,,,,,,,,,,,,,,,,,,,,,,,,,,,,,,,,,,,,,,,,,,,,,,,,,,,,,,,,,,,,,,,,,,,,,,,,,,,,,,,
661414,001,2022-11-20_23h57.33.458,Info_measure_main_exp,2022.2.2,Win32,74.96251874,,,,,,,,,,,,,0,2,2,2,1,masks/mask_003.jpg,,,,,,,,,,,,,,,,,,,,,,,,,,,,,,,,,,,,,,,,,,,,,,,,,,,,,,,,,,,,,,,,,,,,,,,,,,,,,,,,,,,,,,,,,,,,,
661414,001,2022-11-20_23h57.33.458,Info_measure_main_exp,2022.2.2,Win32,74.96251874,,,,,,,,,,,,,0,3,3,0,1,masks/mask_001.jpg,,,,,,,,,,,,,,,,,,,,,,,,,,,,,,,,,,,,,,,,,,,,,,,,,,,,,,,,,,,,,,,,,,,,,,,,,,,,,,,,,,,,,,,,,,,,,
661414,001,2022-11-20_23h57.33.458,Info_measure_main_exp,2022.2.2,Win32,74.96251874,,,,,,,,,,,,,0,4,4,4,1,masks/mask_005.jpg,,,,,,,,,,,,,,,,,,,,,,,,,,,,,,,,,,,,,,,,,,,,,,,,,,,,,,,,,,,,,,,,,,,,,,,,,,,,,,,,,,,,,,,,,,,,,
661414,001,2022-11-20_23h57.33.458,Info_measure_main_exp,2022.2.2,Win32,74.96251874,,,,,,,,,,,,,,,,,,masks/mask_005.jpg,0,0,0,4,1,,,,,,,,,,,,,,,,,,,,,,,,,,,,,,,,,,,,,,,,,,,,,,,,,,,,,,,,,,,,,,,,,,,,,,,,,,,,,,,,,,,,,,,,
661414,001,2022-11-20_23h57.33.458,Info_measure_main_exp,2022.2.2,Win32,74.96251874,,,,,,,,,,,,,,,,,,masks/mask_004.jpg,0,1,1,3,1,,,,,,,,,,,,,,,,,,,,,,,,,,,,,,,,,,,,,,,,,,,,,,,,,,,,,,,,,,,,,,,,,,,,,,,,,,,,,,,,,,,,,,,,
661414,001,2022-11-20_23h57.33.458,Info_measure_main_exp,2022.2.2,Win32,74.96251874,,,,,,,,,,,,,,,,,,masks/mask_003.jpg,0,2,2,2,1,,,,,,,,,,,,,,,,,,,,,,,,,,,,,,,,,,,,,,,,,,,,,,,,,,,,,,,,,,,,,,,,,,,,,,,,,,,,,,,,,,,,,,,,
661414,001,2022-11-20_23h57.33.458,Info_measure_main_exp,2022.2.2,Win32,74.96251874,,,,,,,,,,,,,,,,,,masks/mask_001.jpg,0,3,3,0,1,,,,,,,,,,,,,,,,,,,,,,,,,,,,,,,,,,,,,,,,,,,,,,,,,,,,,,,,,,,,,,,,,,,,,,,,,,,,,,,,,,,,,,,,
661414,001,2022-11-20_23h57.33.458,Info_measure_main_exp,2022.2.2,Win32,74.96251874,,,,,,,,,,,,,,,,,,masks/mask_002.jpg,0,4,4,1,1,,,,,,,,,,,,,,,,,,,,,,,,,,,,,,,,,,,,,,,,,,,,,,,,,,,,,,,,,,,,,,,,,,,,,,,,,,,,,,,,,,,,,,,,
661414,001,2022-11-20_23h57.33.458,Info_measure_main_exp,2022.2.2,Win32,74.96251874,,,,,,,,,,,,,,,,,,,,,,,,0.052777778,0.124074074,1,0,0,response1disk,7,379.477,1,0.001851852,-0.005555556,1,0,0,center_square,0,0,0,0,1,0,131,5,5,2370,2406,prac_patch/patch0002370.jpg,prac_patch/patch0002406.jpg,,,,,,,,,,,,,,,,,,,,,,,,,,,,,,,,,,,,,,,,,,,,,,,,,,,,,,,,,,,,
661414,001,2022-11-20_23h57.33.458,Info_measure_main_exp,2022.2.2,Win32,74.96251874,,,,,,,,,,,,,0,0,0,2,1,masks/mask_003.jpg,,,,,,,,,,,,,,,,,,,,,,,,,,,,,,,,,,,,,,,,,,,,,,,,,,,,,,,,,,,,,,,,,,,,,,,,,,,,,,,,,,,,,,,,,,,,,
661414,001,2022-11-20_23h57.33.458,Info_measure_main_exp,2022.2.2,Win32,74.96251874,,,,,,,,,,,,,0,1,1,3,1,masks/mask_004.jpg,,,,,,,,,,,,,,,,,,,,,,,,,,,,,,,,,,,,,,,,,,,,,,,,,,,,,,,,,,,,,,,,,,,,,,,,,,,,,,,,,,,,,,,,,,,,,
661414,001,2022-11-20_23h57.33.458,Info_measure_main_exp,2022.2.2,Win32,74.96251874,,,,,,,,,,,,,0,2,2,4,1,masks/mask_005.jpg,,,,,,,,,,,,,,,,,,,,,,,,,,,,,,,,,,,,,,,,,,,,,,,,,,,,,,,,,,,,,,,,,,,,,,,,,,,,,,,,,,,,,,,,,,,,,
661414,001,2022-11-20_23h57.33.458,Info_measure_main_exp,2022.2.2,Win32,74.96251874,,,,,,,,,,,,,0,3,3,0,1,masks/mask_001.jpg,,,,,,,,,,,,,,,,,,,,,,,,,,,,,,,,,,,,,,,,,,,,,,,,,,,,,,,,,,,,,,,,,,,,,,,,,,,,,,,,,,,,,,,,,,,,,
661414,001,2022-11-20_23h57.33.458,Info_measure_main_exp,2022.2.2,Win32,74.96251874,,,,,,,,,,,,,0,4,4,1,1,masks/mask_002.jpg,,,,,,,,,,,,,,,,,,,,,,,,,,,,,,,,,,,,,,,,,,,,,,,,,,,,,,,,,,,,,,,,,,,,,,,,,,,,,,,,,,,,,,,,,,,,,
661414,001,2022-11-20_23h57.33.458,Info_measure_main_exp,2022.2.2,Win32,74.96251874,,,,,,,,,,,,,,,,,,masks/mask_003.jpg,0,0,0,2,1,,,,,,,,,,,,,,,,,,,,,,,,,,,,,,,,,,,,,,,,,,,,,,,,,,,,,,,,,,,,,,,,,,,,,,,,,,,,,,,,,,,,,,,,
661414,001,2022-11-20_23h57.33.458,Info_measure_main_exp,2022.2.2,Win32,74.96251874,,,,,,,,,,,,,,,,,,masks/mask_004.jpg,0,1,1,3,1,,,,,,,,,,,,,,,,,,,,,,,,,,,,,,,,,,,,,,,,,,,,,,,,,,,,,,,,,,,,,,,,,,,,,,,,,,,,,,,,,,,,,,,,
661414,001,2022-11-20_23h57.33.458,Info_measure_main_exp,2022.2.2,Win32,74.96251874,,,,,,,,,,,,,,,,,,masks/mask_005.jpg,0,2,2,4,1,,,,,,,,,,,,,,,,,,,,,,,,,,,,,,,,,,,,,,,,,,,,,,,,,,,,,,,,,,,,,,,,,,,,,,,,,,,,,,,,,,,,,,,,
661414,001,2022-11-20_23h57.33.458,Info_measure_main_exp,2022.2.2,Win32,74.96251874,,,,,,,,,,,,,,,,,,masks/mask_002.jpg,0,3,3,1,1,,,,,,,,,,,,,,,,,,,,,,,,,,,,,,,,,,,,,,,,,,,,,,,,,,,,,,,,,,,,,,,,,,,,,,,,,,,,,,,,,,,,,,,,
661414,001,2022-11-20_23h57.33.458,Info_measure_main_exp,2022.2.2,Win32,74.96251874,,,,,,,,,,,,,,,,,,masks/mask_001.jpg,0,4,4,0,1,,,,,,,,,,,,,,,,,,,,,,,,,,,,,,,,,,,,,,,,,,,,,,,,,,,,,,,,,,,,,,,,,,,,,,,,,,,,,,,,,,,,,,,,
661414,001,2022-11-20_23h57.33.458,Info_measure_main_exp,2022.2.2,Win32,74.96251874,,,,,,,,,,,,,,,,,,,,,,,,0.04537037,-0.05462963,1,0,0,response3disk,4,399.171,1,0.012962963,-0.000925926,1,0,0,center_square,0,1,1,2,1,0,131,5,5,2526,2526,prac_patch/patch0002526.jpg,prac_patch/patch0002526.jpg,,,,,,,,,,,,,,,,,,,,,,,,,,,,,,,,,,,,,,,,,,,,,,,,,,,,,,,,,,,,
661414,001,2022-11-20_23h57.33.458,Info_measure_main_exp,2022.2.2,Win32,74.96251874,,,,,,,,,,,,,0,0,0,3,1,masks/mask_004.jpg,,,,,,,,,,,,,,,,,,,,,,,,,,,,,,,,,,,,,,,,,,,,,,,,,,,,,,,,,,,,,,,,,,,,,,,,,,,,,,,,,,,,,,,,,,,,,
661414,001,2022-11-20_23h57.33.458,Info_measure_main_exp,2022.2.2,Win32,74.96251874,,,,,,,,,,,,,0,1,1,2,1,masks/mask_003.jpg,,,,,,,,,,,,,,,,,,,,,,,,,,,,,,,,,,,,,,,,,,,,,,,,,,,,,,,,,,,,,,,,,,,,,,,,,,,,,,,,,,,,,,,,,,,,,
661414,001,2022-11-20_23h57.33.458,Info_measure_main_exp,2022.2.2,Win32,74.96251874,,,,,,,,,,,,,0,2,2,0,1,masks/mask_001.jpg,,,,,,,,,,,,,,,,,,,,,,,,,,,,,,,,,,,,,,,,,,,,,,,,,,,,,,,,,,,,,,,,,,,,,,,,,,,,,,,,,,,,,,,,,,,,,
661414,001,2022-11-20_23h57.33.458,Info_measure_main_exp,2022.2.2,Win32,74.96251874,,,,,,,,,,,,,0,3,3,1,1,masks/mask_002.jpg,,,,,,,,,,,,,,,,,,,,,,,,,,,,,,,,,,,,,,,,,,,,,,,,,,,,,,,,,,,,,,,,,,,,,,,,,,,,,,,,,,,,,,,,,,,,,
661414,001,2022-11-20_23h57.33.458,Info_measure_main_exp,2022.2.2,Win32,74.96251874,,,,,,,,,,,,,0,4,4,4,1,masks/mask_005.jpg,,,,,,,,,,,,,,,,,,,,,,,,,,,,,,,,,,,,,,,,,,,,,,,,,,,,,,,,,,,,,,,,,,,,,,,,,,,,,,,,,,,,,,,,,,,,,
661414,001,2022-11-20_23h57.33.458,Info_measure_main_exp,2022.2.2,Win32,74.96251874,,,,,,,,,,,,,,,,,,masks/mask_001.jpg,0,0,0,0,1,,,,,,,,,,,,,,,,,,,,,,,,,,,,,,,,,,,,,,,,,,,,,,,,,,,,,,,,,,,,,,,,,,,,,,,,,,,,,,,,,,,,,,,,
661414,001,2022-11-20_23h57.33.458,Info_measure_main_exp,2022.2.2,Win32,74.96251874,,,,,,,,,,,,,,,,,,masks/mask_005.jpg,0,1,1,4,1,,,,,,,,,,,,,,,,,,,,,,,,,,,,,,,,,,,,,,,,,,,,,,,,,,,,,,,,,,,,,,,,,,,,,,,,,,,,,,,,,,,,,,,,
661414,001,2022-11-20_23h57.33.458,Info_measure_main_exp,2022.2.2,Win32,74.96251874,,,,,,,,,,,,,,,,,,masks/mask_004.jpg,0,2,2,3,1,,,,,,,,,,,,,,,,,,,,,,,,,,,,,,,,,,,,,,,,,,,,,,,,,,,,,,,,,,,,,,,,,,,,,,,,,,,,,,,,,,,,,,,,
661414,001,2022-11-20_23h57.33.458,Info_measure_main_exp,2022.2.2,Win32,74.96251874,,,,,,,,,,,,,,,,,,masks/mask_003.jpg,0,3,3,2,1,,,,,,,,,,,,,,,,,,,,,,,,,,,,,,,,,,,,,,,,,,,,,,,,,,,,,,,,,,,,,,,,,,,,,,,,,,,,,,,,,,,,,,,,
661414,001,2022-11-20_23h57.33.458,Info_measure_main_exp,2022.2.2,Win32,74.96251874,,,,,,,,,,,,,,,,,,masks/mask_002.jpg,0,4,4,1,1,,,,,,,,,,,,,,,,,,,,,,,,,,,,,,,,,,,,,,,,,,,,,,,,,,,,,,,,,,,,,,,,,,,,,,,,,,,,,,,,,,,,,,,,
661414,001,2022-11-20_23h57.33.458,Info_measure_main_exp,2022.2.2,Win32,74.96251874,,,,,,,,,,,,,,,,,,,,,,,,0.119444444,-0.039814815,1,0,0,response3disk,5,410.997,1,0,0.00462963,1,0,0,center_square,0,2,2,1,1,0,131,5,5,2514,2490,prac_patch/patch0002514.jpg,prac_patch/patch0002490.jpg,,,,,,,,,,,,,,,,,,,,,,,,,,,,,,,,,,,,,,,,,,,,,,,,,,,,,,,,,,,,
661414,001,2022-11-20_23h57.33.458,Info_measure_main_exp,2022.2.2,Win32,74.96251874,,,,,,,,,,,,,,,,,,,,,,,,,,,,,,,,,,,,,,,,,,,,,,,,,,,,,,,,,,,space,2.827,,,,,,,,,,,,,,,,,,,,,,,,,,,,,,,,,,,,,,,,,,,,,,,,,,,
661414,001,2022-11-20_23h57.33.458,Info_measure_main_exp,2022.2.2,Win32,74.96251874,,,,,,,,,,,,,,,,,,masks/mask_002.jpg,,,,,,,,,,,,,,,,,,,,,,,,,,,,,,,,,,,,,,,,,,,0,0,0,1,1,,,,,,,,,,,,,,,,,,,,,,,,,,,,,,,,,,,,,,,,,,,,,,
661414,001,2022-11-20_23h57.33.458,Info_measure_main_exp,2022.2.2,Win32,74.96251874,,,,,,,,,,,,,,,,,,masks/mask_005.jpg,,,,,,,,,,,,,,,,,,,,,,,,,,,,,,,,,,,,,,,,,,,0,1,1,4,1,,,,,,,,,,,,,,,,,,,,,,,,,,,,,,,,,,,,,,,,,,,,,,
661414,001,2022-11-20_23h57.33.458,Info_measure_main_exp,2022.2.2,Win32,74.96251874,,,,,,,,,,,,,,,,,,masks/mask_004.jpg,,,,,,,,,,,,,,,,,,,,,,,,,,,,,,,,,,,,,,,,,,,0,2,2,3,1,,,,,,,,,,,,,,,,,,,,,,,,,,,,,,,,,,,,,,,,,,,,,,
661414,001,2022-11-20_23h57.33.458,Info_measure_main_exp,2022.2.2,Win32,74.96251874,,,,,,,,,,,,,,,,,,masks/mask_001.jpg,,,,,,,,,,,,,,,,,,,,,,,,,,,,,,,,,,,,,,,,,,,0,3,3,0,1,,,,,,,,,,,,,,,,,,,,,,,,,,,,,,,,,,,,,,,,,,,,,,
661414,001,2022-11-20_23h57.33.458,Info_measure_main_exp,2022.2.2,Win32,74.96251874,,,,,,,,,,,,,,,,,,masks/mask_003.jpg,,,,,,,,,,,,,,,,,,,,,,,,,,,,,,,,,,,,,,,,,,,0,4,4,2,1,,,,,,,,,,,,,,,,,,,,,,,,,,,,,,,,,,,,,,,,,,,,,,
661414,001,2022-11-20_23h57.33.458,Info_measure_main_exp,2022.2.2,Win32,74.96251874,,,,,,,,,,,,,,,,,,masks/mask_005.jpg,,,,,,,,,,,,,,,,,,,,,,,,,,,,,,,,,,,,,,,,,,,,,,,,0,0,0,4,1,,,,,,,,,,,,,,,,,,,,,,,,,,,,,,,,,,,,,,,,,
661414,001,2022-11-20_23h57.33.458,Info_measure_main_exp,2022.2.2,Win32,74.96251874,,,,,,,,,,,,,,,,,,masks/mask_002.jpg,,,,,,,,,,,,,,,,,,,,,,,,,,,,,,,,,,,,,,,,,,,,,,,,0,1,1,1,1,,,,,,,,,,,,,,,,,,,,,,,,,,,,,,,,,,,,,,,,,
661414,001,2022-11-20_23h57.33.458,Info_measure_main_exp,2022.2.2,Win32,74.96251874,,,,,,,,,,,,,,,,,,masks/mask_001.jpg,,,,,,,,,,,,,,,,,,,,,,,,,,,,,,,,,,,,,,,,,,,,,,,,0,2,2,0,1,,,,,,,,,,,,,,,,,,,,,,,,,,,,,,,,,,,,,,,,,
661414,001,2022-11-20_23h57.33.458,Info_measure_main_exp,2022.2.2,Win32,74.96251874,,,,,,,,,,,,,,,,,,masks/mask_004.jpg,,,,,,,,,,,,,,,,,,,,,,,,,,,,,,,,,,,,,,,,,,,,,,,,0,3,3,3,1,,,,,,,,,,,,,,,,,,,,,,,,,,,,,,,,,,,,,,,,,
661414,001,2022-11-20_23h57.33.458,Info_measure_main_exp,2022.2.2,Win32,74.96251874,,,,,,,,,,,,,,,,,,masks/mask_003.jpg,,,,,,,,,,,,,,,,,,,,,,,,,,,,,,,,,,,,,,,,,,,,,,,,0,4,4,2,1,,,,,,,,,,,,,,,,,,,,,,,,,,,,,,,,,,,,,,,,,
661414,001,2022-11-20_23h57.33.458,Info_measure_main_exp,2022.2.2,Win32,74.96251874,,,,,,,,,,,,,,,,,,,,,,,,,,,,,,7,1.973,1,,,,,,,,,,,,1,131,5,5,2238,1,absent_patch/patch0002238.jpg,present_patch/cong_131_5_a.jpg,,,,,,,,,,,,,,,,,,,,0.105555556,0.169444444,1,0,0,response1disk,1,0,0.00462963,1,0,0,center_square,0,0,0,104,1,,,,,,,,,,,,,,,,,,,,,,,
661414,001,2022-11-20_23h57.33.458,Info_measure_main_exp,2022.2.2,Win32,74.96251874,,,,,,,,,,,,,,,,,,masks/mask_003.jpg,,,,,,,,,,,,,,,,,,,,,,,,,,,,,,,,,,,,,,,,,,,0,0,0,2,1,,,,,,,,,,,,,,,,,,,,,,,,,,,,,,,,,,,,,,,,,,,,,,
661414,001,2022-11-20_23h57.33.458,Info_measure_main_exp,2022.2.2,Win32,74.96251874,,,,,,,,,,,,,,,,,,masks/mask_002.jpg,,,,,,,,,,,,,,,,,,,,,,,,,,,,,,,,,,,,,,,,,,,0,1,1,1,1,,,,,,,,,,,,,,,,,,,,,,,,,,,,,,,,,,,,,,,,,,,,,,
661414,001,2022-11-20_23h57.33.458,Info_measure_main_exp,2022.2.2,Win32,74.96251874,,,,,,,,,,,,,,,,,,masks/mask_005.jpg,,,,,,,,,,,,,,,,,,,,,,,,,,,,,,,,,,,,,,,,,,,0,2,2,4,1,,,,,,,,,,,,,,,,,,,,,,,,,,,,,,,,,,,,,,,,,,,,,,
661414,001,2022-11-20_23h57.33.458,Info_measure_main_exp,2022.2.2,Win32,74.96251874,,,,,,,,,,,,,,,,,,masks/mask_004.jpg,,,,,,,,,,,,,,,,,,,,,,,,,,,,,,,,,,,,,,,,,,,0,3,3,3,1,,,,,,,,,,,,,,,,,,,,,,,,,,,,,,,,,,,,,,,,,,,,,,
661414,001,2022-11-20_23h57.33.458,Info_measure_main_exp,2022.2.2,Win32,74.96251874,,,,,,,,,,,,,,,,,,masks/mask_001.jpg,,,,,,,,,,,,,,,,,,,,,,,,,,,,,,,,,,,,,,,,,,,0,4,4,0,1,,,,,,,,,,,,,,,,,,,,,,,,,,,,,,,,,,,,,,,,,,,,,,
661414,001,2022-11-20_23h57.33.458,Info_measure_main_exp,2022.2.2,Win32,74.96251874,,,,,,,,,,,,,,,,,,masks/mask_001.jpg,,,,,,,,,,,,,,,,,,,,,,,,,,,,,,,,,,,,,,,,,,,,,,,,0,0,0,0,1,,,,,,,,,,,,,,,,,,,,,,,,,,,,,,,,,,,,,,,,,
661414,001,2022-11-20_23h57.33.458,Info_measure_main_exp,2022.2.2,Win32,74.96251874,,,,,,,,,,,,,,,,,,masks/mask_003.jpg,,,,,,,,,,,,,,,,,,,,,,,,,,,,,,,,,,,,,,,,,,,,,,,,0,1,1,2,1,,,,,,,,,,,,,,,,,,,,,,,,,,,,,,,,,,,,,,,,,
661414,001,2022-11-20_23h57.33.458,Info_measure_main_exp,2022.2.2,Win32,74.96251874,,,,,,,,,,,,,,,,,,masks/mask_004.jpg,,,,,,,,,,,,,,,,,,,,,,,,,,,,,,,,,,,,,,,,,,,,,,,,0,2,2,3,1,,,,,,,,,,,,,,,,,,,,,,,,,,,,,,,,,,,,,,,,,
661414,001,2022-11-20_23h57.33.458,Info_measure_main_exp,2022.2.2,Win32,74.96251874,,,,,,,,,,,,,,,,,,masks/mask_005.jpg,,,,,,,,,,,,,,,,,,,,,,,,,,,,,,,,,,,,,,,,,,,,,,,,0,3,3,4,1,,,,,,,,,,,,,,,,,,,,,,,,,,,,,,,,,,,,,,,,,
661414,001,2022-11-20_23h57.33.458,Info_measure_main_exp,2022.2.2,Win32,74.96251874,,,,,,,,,,,,,,,,,,masks/mask_002.jpg,,,,,,,,,,,,,,,,,,,,,,,,,,,,,,,,,,,,,,,,,,,,,,,,0,4,4,1,1,,,,,,,,,,,,,,,,,,,,,,,,,,,,,,,,,,,,,,,,,
661414,001,2022-11-20_23h57.33.458,Info_measure_main_exp,2022.2.2,Win32,74.96251874,,,,,,,,,,,,,,,,,,,,,,,,,,,,,,7,1.84,1,,,,,,,,,,,,1,131,5,5,1950,1,absent_patch/patch0001950.jpg,present_patch/cong_131_5_a.jpg,,,,,,,,,,,,,,,,,,,,0.04537037,0.1,1,0,0,response1disk,2,0.005555556,0.012962963,1,0,0,center_square,0,1,1,39,1,,,,,,,,,,,,,,,,,,,,,,,
661414,001,2022-11-20_23h57.33.458,Info_measure_main_exp,2022.2.2,Win32,74.96251874,,,,,,,,,,,,,,,,,,masks/mask_001.jpg,,,,,,,,,,,,,,,,,,,,,,,,,,,,,,,,,,,,,,,,,,,0,0,0,0,1,,,,,,,,,,,,,,,,,,,,,,,,,,,,,,,,,,,,,,,,,,,,,,
661414,001,2022-11-20_23h57.33.458,Info_measure_main_exp,2022.2.2,Win32,74.96251874,,,,,,,,,,,,,,,,,,masks/mask_005.jpg,,,,,,,,,,,,,,,,,,,,,,,,,,,,,,,,,,,,,,,,,,,0,1,1,4,1,,,,,,,,,,,,,,,,,,,,,,,,,,,,,,,,,,,,,,,,,,,,,,
661414,001,2022-11-20_23h57.33.458,Info_measure_main_exp,2022.2.2,Win32,74.96251874,,,,,,,,,,,,,,,,,,masks/mask_003.jpg,,,,,,,,,,,,,,,,,,,,,,,,,,,,,,,,,,,,,,,,,,,0,2,2,2,1,,,,,,,,,,,,,,,,,,,,,,,,,,,,,,,,,,,,,,,,,,,,,,
661414,001,2022-11-20_23h57.33.458,Info_measure_main_exp,2022.2.2,Win32,74.96251874,,,,,,,,,,,,,,,,,,masks/mask_002.jpg,,,,,,,,,,,,,,,,,,,,,,,,,,,,,,,,,,,,,,,,,,,0,3,3,1,1,,,,,,,,,,,,,,,,,,,,,,,,,,,,,,,,,,,,,,,,,,,,,,
661414,001,2022-11-20_23h57.33.458,Info_measure_main_exp,2022.2.2,Win32,74.96251874,,,,,,,,,,,,,,,,,,masks/mask_004.jpg,,,,,,,,,,,,,,,,,,,,,,,,,,,,,,,,,,,,,,,,,,,0,4,4,3,1,,,,,,,,,,,,,,,,,,,,,,,,,,,,,,,,,,,,,,,,,,,,,,
661414,001,2022-11-20_23h57.33.458,Info_measure_main_exp,2022.2.2,Win32,74.96251874,,,,,,,,,,,,,,,,,,masks/mask_003.jpg,,,,,,,,,,,,,,,,,,,,,,,,,,,,,,,,,,,,,,,,,,,,,,,,0,0,0,2,1,,,,,,,,,,,,,,,,,,,,,,,,,,,,,,,,,,,,,,,,,
661414,001,2022-11-20_23h57.33.458,Info_measure_main_exp,2022.2.2,Win32,74.96251874,,,,,,,,,,,,,,,,,,masks/mask_002.jpg,,,,,,,,,,,,,,,,,,,,,,,,,,,,,,,,,,,,,,,,,,,,,,,,0,1,1,1,1,,,,,,,,,,,,,,,,,,,,,,,,,,,,,,,,,,,,,,,,,
661414,001,2022-11-20_23h57.33.458,Info_measure_main_exp,2022.2.2,Win32,74.96251874,,,,,,,,,,,,,,,,,,masks/mask_005.jpg,,,,,,,,,,,,,,,,,,,,,,,,,,,,,,,,,,,,,,,,,,,,,,,,0,2,2,4,1,,,,,,,,,,,,,,,,,,,,,,,,,,,,,,,,,,,,,,,,,
661414,001,2022-11-20_23h57.33.458,Info_measure_main_exp,2022.2.2,Win32,74.96251874,,,,,,,,,,,,,,,,,,masks/mask_004.jpg,,,,,,,,,,,,,,,,,,,,,,,,,,,,,,,,,,,,,,,,,,,,,,,,0,3,3,3,1,,,,,,,,,,,,,,,,,,,,,,,,,,,,,,,,,,,,,,,,,
661414,001,2022-11-20_23h57.33.458,Info_measure_main_exp,2022.2.2,Win32,74.96251874,,,,,,,,,,,,,,,,,,masks/mask_001.jpg,,,,,,,,,,,,,,,,,,,,,,,,,,,,,,,,,,,,,,,,,,,,,,,,0,4,4,0,1,,,,,,,,,,,,,,,,,,,,,,,,,,,,,,,,,,,,,,,,,
661414,001,2022-11-20_23h57.33.458,Info_measure_main_exp,2022.2.2,Win32,74.96251874,,,,,,,,,,,,,,,,,,,,,,,,,,,,,,5,2.826,1,,,,,,,,,,,,0,131,5,5,2190,2214,absent_patch/patch0002190.jpg,absent_patch/patch0002214.jpg,,,,,,,,,,,,,,,,,,,,0.00462963,-0.000925926,1,0,0,response3disk,3,0.005555556,-0.003703704,1,0,0,center_square,0,2,2,35,1,,,,,,,,,,,,,,,,,,,,,,,
661414,001,2022-11-20_23h57.33.458,Info_measure_main_exp,2022.2.2,Win32,74.96251874,,,,,,,,,,,,,,,,,,masks/mask_003.jpg,,,,,,,,,,,,,,,,,,,,,,,,,,,,,,,,,,,,,,,,,,,0,0,0,2,1,,,,,,,,,,,,,,,,,,,,,,,,,,,,,,,,,,,,,,,,,,,,,,
661414,001,2022-11-20_23h57.33.458,Info_measure_main_exp,2022.2.2,Win32,74.96251874,,,,,,,,,,,,,,,,,,masks/mask_001.jpg,,,,,,,,,,,,,,,,,,,,,,,,,,,,,,,,,,,,,,,,,,,0,1,1,0,1,,,,,,,,,,,,,,,,,,,,,,,,,,,,,,,,,,,,,,,,,,,,,,
661414,001,2022-11-20_23h57.33.458,Info_measure_main_exp,2022.2.2,Win32,74.96251874,,,,,,,,,,,,,,,,,,masks/mask_004.jpg,,,,,,,,,,,,,,,,,,,,,,,,,,,,,,,,,,,,,,,,,,,0,2,2,3,1,,,,,,,,,,,,,,,,,,,,,,,,,,,,,,,,,,,,,,,,,,,,,,
661414,001,2022-11-20_23h57.33.458,Info_measure_main_exp,2022.2.2,Win32,74.96251874,,,,,,,,,,,,,,,,,,masks/mask_005.jpg,,,,,,,,,,,,,,,,,,,,,,,,,,,,,,,,,,,,,,,,,,,0,3,3,4,1,,,,,,,,,,,,,,,,,,,,,,,,,,,,,,,,,,,,,,,,,,,,,,
661414,001,2022-11-20_23h57.33.458,Info_measure_main_exp,2022.2.2,Win32,74.96251874,,,,,,,,,,,,,,,,,,masks/mask_002.jpg,,,,,,,,,,,,,,,,,,,,,,,,,,,,,,,,,,,,,,,,,,,0,4,4,1,1,,,,,,,,,,,,,,,,,,,,,,,,,,,,,,,,,,,,,,,,,,,,,,
661414,001,2022-11-20_23h57.33.458,Info_measure_main_exp,2022.2.2,Win32,74.96251874,,,,,,,,,,,,,,,,,,masks/mask_005.jpg,,,,,,,,,,,,,,,,,,,,,,,,,,,,,,,,,,,,,,,,,,,,,,,,0,0,0,4,1,,,,,,,,,,,,,,,,,,,,,,,,,,,,,,,,,,,,,,,,,
661414,001,2022-11-20_23h57.33.458,Info_measure_main_exp,2022.2.2,Win32,74.96251874,,,,,,,,,,,,,,,,,,masks/mask_004.jpg,,,,,,,,,,,,,,,,,,,,,,,,,,,,,,,,,,,,,,,,,,,,,,,,0,1,1,3,1,,,,,,,,,,,,,,,,,,,,,,,,,,,,,,,,,,,,,,,,,
661414,001,2022-11-20_23h57.33.458,Info_measure_main_exp,2022.2.2,Win32,74.96251874,,,,,,,,,,,,,,,,,,masks/mask_001.jpg,,,,,,,,,,,,,,,,,,,,,,,,,,,,,,,,,,,,,,,,,,,,,,,,0,2,2,0,1,,,,,,,,,,,,,,,,,,,,,,,,,,,,,,,,,,,,,,,,,
661414,001,2022-11-20_23h57.33.458,Info_measure_main_exp,2022.2.2,Win32,74.96251874,,,,,,,,,,,,,,,,,,masks/mask_002.jpg,,,,,,,,,,,,,,,,,,,,,,,,,,,,,,,,,,,,,,,,,,,,,,,,0,3,3,1,1,,,,,,,,,,,,,,,,,,,,,,,,,,,,,,,,,,,,,,,,,
661414,001,2022-11-20_23h57.33.458,Info_measure_main_exp,2022.2.2,Win32,74.96251874,,,,,,,,,,,,,,,,,,masks/mask_003.jpg,,,,,,,,,,,,,,,,,,,,,,,,,,,,,,,,,,,,,,,,,,,,,,,,0,4,4,2,1,,,,,,,,,,,,,,,,,,,,,,,,,,,,,,,,,,,,,,,,,
661414,001,2022-11-20_23h57.33.458,Info_measure_main_exp,2022.2.2,Win32,74.96251874,,,,,,,,,,,,,,,,,,,,,,,,,,,,,,7,1.387,1,,,,,,,,,,,,0,131,5,5,2154,2238,absent_patch/patch0002154.jpg,absent_patch/patch0002238.jpg,,,,,,,,,,,,,,,,,,,,0.074074074,0.112962963,1,0,0,response1disk,4,0.006481481,0.002777778,1,0,0,center_square,0,3,3,21,1,,,,,,,,,,,,,,,,,,,,,,,
661414,001,2022-11-20_23h57.33.458,Info_measure_main_exp,2022.2.2,Win32,74.96251874,,,,,,,,,,,,,,,,,,masks/mask_002.jpg,,,,,,,,,,,,,,,,,,,,,,,,,,,,,,,,,,,,,,,,,,,0,0,0,1,1,,,,,,,,,,,,,,,,,,,,,,,,,,,,,,,,,,,,,,,,,,,,,,
661414,001,2022-11-20_23h57.33.458,Info_measure_main_exp,2022.2.2,Win32,74.96251874,,,,,,,,,,,,,,,,,,masks/mask_005.jpg,,,,,,,,,,,,,,,,,,,,,,,,,,,,,,,,,,,,,,,,,,,0,1,1,4,1,,,,,,,,,,,,,,,,,,,,,,,,,,,,,,,,,,,,,,,,,,,,,,
661414,001,2022-11-20_23h57.33.458,Info_measure_main_exp,2022.2.2,Win32,74.96251874,,,,,,,,,,,,,,,,,,masks/mask_003.jpg,,,,,,,,,,,,,,,,,,,,,,,,,,,,,,,,,,,,,,,,,,,0,2,2,2,1,,,,,,,,,,,,,,,,,,,,,,,,,,,,,,,,,,,,,,,,,,,,,,
661414,001,2022-11-20_23h57.33.458,Info_measure_main_exp,2022.2.2,Win32,74.96251874,,,,,,,,,,,,,,,,,,masks/mask_004.jpg,,,,,,,,,,,,,,,,,,,,,,,,,,,,,,,,,,,,,,,,,,,0,3,3,3,1,,,,,,,,,,,,,,,,,,,,,,,,,,,,,,,,,,,,,,,,,,,,,,
661414,001,2022-11-20_23h57.33.458,Info_measure_main_exp,2022.2.2,Win32,74.96251874,,,,,,,,,,,,,,,,,,masks/mask_001.jpg,,,,,,,,,,,,,,,,,,,,,,,,,,,,,,,,,,,,,,,,,,,0,4,4,0,1,,,,,,,,,,,,,,,,,,,,,,,,,,,,,,,,,,,,,,,,,,,,,,
661414,001,2022-11-20_23h57.33.458,Info_measure_main_exp,2022.2.2,Win32,74.96251874,,,,,,,,,,,,,,,,,,masks/mask_004.jpg,,,,,,,,,,,,,,,,,,,,,,,,,,,,,,,,,,,,,,,,,,,,,,,,0,0,0,3,1,,,,,,,,,,,,,,,,,,,,,,,,,,,,,,,,,,,,,,,,,
661414,001,2022-11-20_23h57.33.458,Info_measure_main_exp,2022.2.2,Win32,74.96251874,,,,,,,,,,,,,,,,,,masks/mask_003.jpg,,,,,,,,,,,,,,,,,,,,,,,,,,,,,,,,,,,,,,,,,,,,,,,,0,1,1,2,1,,,,,,,,,,,,,,,,,,,,,,,,,,,,,,,,,,,,,,,,,
661414,001,2022-11-20_23h57.33.458,Info_measure_main_exp,2022.2.2,Win32,74.96251874,,,,,,,,,,,,,,,,,,masks/mask_002.jpg,,,,,,,,,,,,,,,,,,,,,,,,,,,,,,,,,,,,,,,,,,,,,,,,0,2,2,1,1,,,,,,,,,,,,,,,,,,,,,,,,,,,,,,,,,,,,,,,,,
661414,001,2022-11-20_23h57.33.458,Info_measure_main_exp,2022.2.2,Win32,74.96251874,,,,,,,,,,,,,,,,,,masks/mask_005.jpg,,,,,,,,,,,,,,,,,,,,,,,,,,,,,,,,,,,,,,,,,,,,,,,,0,3,3,4,1,,,,,,,,,,,,,,,,,,,,,,,,,,,,,,,,,,,,,,,,,
661414,001,2022-11-20_23h57.33.458,Info_measure_main_exp,2022.2.2,Win32,74.96251874,,,,,,,,,,,,,,,,,,masks/mask_001.jpg,,,,,,,,,,,,,,,,,,,,,,,,,,,,,,,,,,,,,,,,,,,,,,,,0,4,4,0,1,,,,,,,,,,,,,,,,,,,,,,,,,,,,,,,,,,,,,,,,,
661414,001,2022-11-20_23h57.33.458,Info_measure_main_exp,2022.2.2,Win32,74.96251874,,,,,,,,,,,,,,,,,,,,,,,,,,,,,,7,1.707,1,,,,,,,,,,,,0,131,5,5,2154,2190,absent_patch/patch0002154.jpg,absent_patch/patch0002190.jpg,,,,,,,,,,,,,,,,,,,,0.002777778,0.015740741,1,0,0,response1disk,5,0.00462963,-0.002777778,1,0,0,center_square,0,4,4,68,1,,,,,,,,,,,,,,,,,,,,,,,
661414,001,2022-11-20_23h57.33.458,Info_measure_main_exp,2022.2.2,Win32,74.96251874,,,,,,,,,,,,,,,,,,masks/mask_001.jpg,,,,,,,,,,,,,,,,,,,,,,,,,,,,,,,,,,,,,,,,,,,0,0,0,0,1,,,,,,,,,,,,,,,,,,,,,,,,,,,,,,,,,,,,,,,,,,,,,,
661414,001,2022-11-20_23h57.33.458,Info_measure_main_exp,2022.2.2,Win32,74.96251874,,,,,,,,,,,,,,,,,,masks/mask_003.jpg,,,,,,,,,,,,,,,,,,,,,,,,,,,,,,,,,,,,,,,,,,,0,1,1,2,1,,,,,,,,,,,,,,,,,,,,,,,,,,,,,,,,,,,,,,,,,,,,,,
661414,001,2022-11-20_23h57.33.458,Info_measure_main_exp,2022.2.2,Win32,74.96251874,,,,,,,,,,,,,,,,,,masks/mask_004.jpg,,,,,,,,,,,,,,,,,,,,,,,,,,,,,,,,,,,,,,,,,,,0,2,2,3,1,,,,,,,,,,,,,,,,,,,,,,,,,,,,,,,,,,,,,,,,,,,,,,
661414,001,2022-11-20_23h57.33.458,Info_measure_main_exp,2022.2.2,Win32,74.96251874,,,,,,,,,,,,,,,,,,masks/mask_002.jpg,,,,,,,,,,,,,,,,,,,,,,,,,,,,,,,,,,,,,,,,,,,0,3,3,1,1,,,,,,,,,,,,,,,,,,,,,,,,,,,,,,,,,,,,,,,,,,,,,,
661414,001,2022-11-20_23h57.33.458,Info_measure_main_exp,2022.2.2,Win32,74.96251874,,,,,,,,,,,,,,,,,,masks/mask_005.jpg,,,,,,,,,,,,,,,,,,,,,,,,,,,,,,,,,,,,,,,,,,,0,4,4,4,1,,,,,,,,,,,,,,,,,,,,,,,,,,,,,,,,,,,,,,,,,,,,,,
661414,001,2022-11-20_23h57.33.458,Info_measure_main_exp,2022.2.2,Win32,74.96251874,,,,,,,,,,,,,,,,,,masks/mask_003.jpg,,,,,,,,,,,,,,,,,,,,,,,,,,,,,,,,,,,,,,,,,,,,,,,,0,0,0,2,1,,,,,,,,,,,,,,,,,,,,,,,,,,,,,,,,,,,,,,,,,
661414,001,2022-11-20_23h57.33.458,Info_measure_main_exp,2022.2.2,Win32,74.96251874,,,,,,,,,,,,,,,,,,masks/mask_004.jpg,,,,,,,,,,,,,,,,,,,,,,,,,,,,,,,,,,,,,,,,,,,,,,,,0,1,1,3,1,,,,,,,,,,,,,,,,,,,,,,,,,,,,,,,,,,,,,,,,,
661414,001,2022-11-20_23h57.33.458,Info_measure_main_exp,2022.2.2,Win32,74.96251874,,,,,,,,,,,,,,,,,,masks/mask_005.jpg,,,,,,,,,,,,,,,,,,,,,,,,,,,,,,,,,,,,,,,,,,,,,,,,0,2,2,4,1,,,,,,,,,,,,,,,,,,,,,,,,,,,,,,,,,,,,,,,,,
661414,001,2022-11-20_23h57.33.458,Info_measure_main_exp,2022.2.2,Win32,74.96251874,,,,,,,,,,,,,,,,,,masks/mask_001.jpg,,,,,,,,,,,,,,,,,,,,,,,,,,,,,,,,,,,,,,,,,,,,,,,,0,3,3,0,1,,,,,,,,,,,,,,,,,,,,,,,,,,,,,,,,,,,,,,,,,
661414,001,2022-11-20_23h57.33.458,Info_measure_main_exp,2022.2.2,Win32,74.96251874,,,,,,,,,,,,,,,,,,masks/mask_002.jpg,,,,,,,,,,,,,,,,,,,,,,,,,,,,,,,,,,,,,,,,,,,,,,,,0,4,4,1,1,,,,,,,,,,,,,,,,,,,,,,,,,,,,,,,,,,,,,,,,,
661414,001,2022-11-20_23h57.33.458,Info_measure_main_exp,2022.2.2,Win32,74.96251874,,,,,,,,,,,,,,,,,,,,,,,,,,,,,,5,1.734,1,,,,,,,,,,,,0,131,5,5,2298,2214,absent_patch/patch0002298.jpg,absent_patch/patch0002214.jpg,,,,,,,,,,,,,,,,,,,,0.133333333,-0.065740741,1,0,0,response3disk,6,-0.000925926,0,1,0,0,center_square,0,5,5,99,1,,,,,,,,,,,,,,,,,,,,,,,
661414,001,2022-11-20_23h57.33.458,Info_measure_main_exp,2022.2.2,Win32,74.96251874,,,,,,,,,,,,,,,,,,masks/mask_002.jpg,,,,,,,,,,,,,,,,,,,,,,,,,,,,,,,,,,,,,,,,,,,0,0,0,1,1,,,,,,,,,,,,,,,,,,,,,,,,,,,,,,,,,,,,,,,,,,,,,,
661414,001,2022-11-20_23h57.33.458,Info_measure_main_exp,2022.2.2,Win32,74.96251874,,,,,,,,,,,,,,,,,,masks/mask_003.jpg,,,,,,,,,,,,,,,,,,,,,,,,,,,,,,,,,,,,,,,,,,,0,1,1,2,1,,,,,,,,,,,,,,,,,,,,,,,,,,,,,,,,,,,,,,,,,,,,,,
661414,001,2022-11-20_23h57.33.458,Info_measure_main_exp,2022.2.2,Win32,74.96251874,,,,,,,,,,,,,,,,,,masks/mask_001.jpg,,,,,,,,,,,,,,,,,,,,,,,,,,,,,,,,,,,,,,,,,,,0,2,2,0,1,,,,,,,,,,,,,,,,,,,,,,,,,,,,,,,,,,,,,,,,,,,,,,
661414,001,2022-11-20_23h57.33.458,Info_measure_main_exp,2022.2.2,Win32,74.96251874,,,,,,,,,,,,,,,,,,masks/mask_004.jpg,,,,,,,,,,,,,,,,,,,,,,,,,,,,,,,,,,,,,,,,,,,0,3,3,3,1,,,,,,,,,,,,,,,,,,,,,,,,,,,,,,,,,,,,,,,,,,,,,,
661414,001,2022-11-20_23h57.33.458,Info_measure_main_exp,2022.2.2,Win32,74.96251874,,,,,,,,,,,,,,,,,,masks/mask_005.jpg,,,,,,,,,,,,,,,,,,,,,,,,,,,,,,,,,,,,,,,,,,,0,4,4,4,1,,,,,,,,,,,,,,,,,,,,,,,,,,,,,,,,,,,,,,,,,,,,,,
661414,001,2022-11-20_23h57.33.458,Info_measure_main_exp,2022.2.2,Win32,74.96251874,,,,,,,,,,,,,,,,,,masks/mask_001.jpg,,,,,,,,,,,,,,,,,,,,,,,,,,,,,,,,,,,,,,,,,,,,,,,,0,0,0,0,1,,,,,,,,,,,,,,,,,,,,,,,,,,,,,,,,,,,,,,,,,
661414,001,2022-11-20_23h57.33.458,Info_measure_main_exp,2022.2.2,Win32,74.96251874,,,,,,,,,,,,,,,,,,masks/mask_003.jpg,,,,,,,,,,,,,,,,,,,,,,,,,,,,,,,,,,,,,,,,,,,,,,,,0,1,1,2,1,,,,,,,,,,,,,,,,,,,,,,,,,,,,,,,,,,,,,,,,,
661414,001,2022-11-20_23h57.33.458,Info_measure_main_exp,2022.2.2,Win32,74.96251874,,,,,,,,,,,,,,,,,,masks/mask_004.jpg,,,,,,,,,,,,,,,,,,,,,,,,,,,,,,,,,,,,,,,,,,,,,,,,0,2,2,3,1,,,,,,,,,,,,,,,,,,,,,,,,,,,,,,,,,,,,,,,,,
661414,001,2022-11-20_23h57.33.458,Info_measure_main_exp,2022.2.2,Win32,74.96251874,,,,,,,,,,,,,,,,,,masks/mask_002.jpg,,,,,,,,,,,,,,,,,,,,,,,,,,,,,,,,,,,,,,,,,,,,,,,,0,3,3,1,1,,,,,,,,,,,,,,,,,,,,,,,,,,,,,,,,,,,,,,,,,
661414,001,2022-11-20_23h57.33.458,Info_measure_main_exp,2022.2.2,Win32,74.96251874,,,,,,,,,,,,,,,,,,masks/mask_005.jpg,,,,,,,,,,,,,,,,,,,,,,,,,,,,,,,,,,,,,,,,,,,,,,,,0,4,4,4,1,,,,,,,,,,,,,,,,,,,,,,,,,,,,,,,,,,,,,,,,,
661414,001,2022-11-20_23h57.33.458,Info_measure_main_exp,2022.2.2,Win32,74.96251874,,,,,,,,,,,,,,,,,,,,,,,,,,,,,,7,1.106,1,,,,,,,,,,,,1,131,5,5,1,2178,present_patch/cong_131_5_a.jpg,absent_patch/patch0002178.jpg,,,,,,,,,,,,,,,,,,,,0.046296296,0.100925926,1,0,0,response1disk,7,-0.000925926,0.005555556,1,0,0,center_square,0,6,6,40,1,,,,,,,,,,,,,,,,,,,,,,,
661414,001,2022-11-20_23h57.33.458,Info_measure_main_exp,2022.2.2,Win32,74.96251874,,,,,,,,,,,,,,,,,,masks/mask_004.jpg,,,,,,,,,,,,,,,,,,,,,,,,,,,,,,,,,,,,,,,,,,,0,0,0,3,1,,,,,,,,,,,,,,,,,,,,,,,,,,,,,,,,,,,,,,,,,,,,,,
661414,001,2022-11-20_23h57.33.458,Info_measure_main_exp,2022.2.2,Win32,74.96251874,,,,,,,,,,,,,,,,,,masks/mask_003.jpg,,,,,,,,,,,,,,,,,,,,,,,,,,,,,,,,,,,,,,,,,,,0,1,1,2,1,,,,,,,,,,,,,,,,,,,,,,,,,,,,,,,,,,,,,,,,,,,,,,
661414,001,2022-11-20_23h57.33.458,Info_measure_main_exp,2022.2.2,Win32,74.96251874,,,,,,,,,,,,,,,,,,masks/mask_005.jpg,,,,,,,,,,,,,,,,,,,,,,,,,,,,,,,,,,,,,,,,,,,0,2,2,4,1,,,,,,,,,,,,,,,,,,,,,,,,,,,,,,,,,,,,,,,,,,,,,,
661414,001,2022-11-20_23h57.33.458,Info_measure_main_exp,2022.2.2,Win32,74.96251874,,,,,,,,,,,,,,,,,,masks/mask_001.jpg,,,,,,,,,,,,,,,,,,,,,,,,,,,,,,,,,,,,,,,,,,,0,3,3,0,1,,,,,,,,,,,,,,,,,,,,,,,,,,,,,,,,,,,,,,,,,,,,,,
661414,001,2022-11-20_23h57.33.458,Info_measure_main_exp,2022.2.2,Win32,74.96251874,,,,,,,,,,,,,,,,,,masks/mask_002.jpg,,,,,,,,,,,,,,,,,,,,,,,,,,,,,,,,,,,,,,,,,,,0,4,4,1,1,,,,,,,,,,,,,,,,,,,,,,,,,,,,,,,,,,,,,,,,,,,,,,
661414,001,2022-11-20_23h57.33.458,Info_measure_main_exp,2022.2.2,Win32,74.96251874,,,,,,,,,,,,,,,,,,masks/mask_005.jpg,,,,,,,,,,,,,,,,,,,,,,,,,,,,,,,,,,,,,,,,,,,,,,,,0,0,0,4,1,,,,,,,,,,,,,,,,,,,,,,,,,,,,,,,,,,,,,,,,,
661414,001,2022-11-20_23h57.33.458,Info_measure_main_exp,2022.2.2,Win32,74.96251874,,,,,,,,,,,,,,,,,,masks/mask_002.jpg,,,,,,,,,,,,,,,,,,,,,,,,,,,,,,,,,,,,,,,,,,,,,,,,0,1,1,1,1,,,,,,,,,,,,,,,,,,,,,,,,,,,,,,,,,,,,,,,,,
661414,001,2022-11-20_23h57.33.458,Info_measure_main_exp,2022.2.2,Win32,74.96251874,,,,,,,,,,,,,,,,,,masks/mask_001.jpg,,,,,,,,,,,,,,,,,,,,,,,,,,,,,,,,,,,,,,,,,,,,,,,,0,2,2,0,1,,,,,,,,,,,,,,,,,,,,,,,,,,,,,,,,,,,,,,,,,
661414,001,2022-11-20_23h57.33.458,Info_measure_main_exp,2022.2.2,Win32,74.96251874,,,,,,,,,,,,,,,,,,masks/mask_003.jpg,,,,,,,,,,,,,,,,,,,,,,,,,,,,,,,,,,,,,,,,,,,,,,,,0,3,3,2,1,,,,,,,,,,,,,,,,,,,,,,,,,,,,,,,,,,,,,,,,,
661414,001,2022-11-20_23h57.33.458,Info_measure_main_exp,2022.2.2,Win32,74.96251874,,,,,,,,,,,,,,,,,,masks/mask_004.jpg,,,,,,,,,,,,,,,,,,,,,,,,,,,,,,,,,,,,,,,,,,,,,,,,0,4,4,3,1,,,,,,,,,,,,,,,,,,,,,,,,,,,,,,,,,,,,,,,,,
661414,001,2022-11-20_23h57.33.458,Info_measure_main_exp,2022.2.2,Win32,74.96251874,,,,,,,,,,,,,,,,,,,,,,,,,,,,,,0,0.96,1,,,,,,,,,,,,0,131,5,5,2298,2298,absent_patch/patch0002298.jpg,absent_patch/patch0002298.jpg,,,,,,,,,,,,,,,,,,,,-0.040740741,0.159259259,1,0,0,response7disk,8,-0.002777778,-0.010185185,1,0,0,center_square,0,7,7,37,1,,,,,,,,,,,,,,,,,,,,,,,
661414,001,2022-11-20_23h57.33.458,Info_measure_main_exp,2022.2.2,Win32,74.96251874,,,,,,,,,,,,,,,,,,masks/mask_003.jpg,,,,,,,,,,,,,,,,,,,,,,,,,,,,,,,,,,,,,,,,,,,0,0,0,2,1,,,,,,,,,,,,,,,,,,,,,,,,,,,,,,,,,,,,,,,,,,,,,,
661414,001,2022-11-20_23h57.33.458,Info_measure_main_exp,2022.2.2,Win32,74.96251874,,,,,,,,,,,,,,,,,,masks/mask_004.jpg,,,,,,,,,,,,,,,,,,,,,,,,,,,,,,,,,,,,,,,,,,,0,1,1,3,1,,,,,,,,,,,,,,,,,,,,,,,,,,,,,,,,,,,,,,,,,,,,,,
661414,001,2022-11-20_23h57.33.458,Info_measure_main_exp,2022.2.2,Win32,74.96251874,,,,,,,,,,,,,,,,,,masks/mask_002.jpg,,,,,,,,,,,,,,,,,,,,,,,,,,,,,,,,,,,,,,,,,,,0,2,2,1,1,,,,,,,,,,,,,,,,,,,,,,,,,,,,,,,,,,,,,,,,,,,,,,
661414,001,2022-11-20_23h57.33.458,Info_measure_main_exp,2022.2.2,Win32,74.96251874,,,,,,,,,,,,,,,,,,masks/mask_005.jpg,,,,,,,,,,,,,,,,,,,,,,,,,,,,,,,,,,,,,,,,,,,0,3,3,4,1,,,,,,,,,,,,,,,,,,,,,,,,,,,,,,,,,,,,,,,,,,,,,,
661414,001,2022-11-20_23h57.33.458,Info_measure_main_exp,2022.2.2,Win32,74.96251874,,,,,,,,,,,,,,,,,,masks/mask_001.jpg,,,,,,,,,,,,,,,,,,,,,,,,,,,,,,,,,,,,,,,,,,,0,4,4,0,1,,,,,,,,,,,,,,,,,,,,,,,,,,,,,,,,,,,,,,,,,,,,,,
661414,001,2022-11-20_23h57.33.458,Info_measure_main_exp,2022.2.2,Win32,74.96251874,,,,,,,,,,,,,,,,,,masks/mask_004.jpg,,,,,,,,,,,,,,,,,,,,,,,,,,,,,,,,,,,,,,,,,,,,,,,,0,0,0,3,1,,,,,,,,,,,,,,,,,,,,,,,,,,,,,,,,,,,,,,,,,
661414,001,2022-11-20_23h57.33.458,Info_measure_main_exp,2022.2.2,Win32,74.96251874,,,,,,,,,,,,,,,,,,masks/mask_002.jpg,,,,,,,,,,,,,,,,,,,,,,,,,,,,,,,,,,,,,,,,,,,,,,,,0,1,1,1,1,,,,,,,,,,,,,,,,,,,,,,,,,,,,,,,,,,,,,,,,,
661414,001,2022-11-20_23h57.33.458,Info_measure_main_exp,2022.2.2,Win32,74.96251874,,,,,,,,,,,,,,,,,,masks/mask_005.jpg,,,,,,,,,,,,,,,,,,,,,,,,,,,,,,,,,,,,,,,,,,,,,,,,0,2,2,4,1,,,,,,,,,,,,,,,,,,,,,,,,,,,,,,,,,,,,,,,,,
661414,001,2022-11-20_23h57.33.458,Info_measure_main_exp,2022.2.2,Win32,74.96251874,,,,,,,,,,,,,,,,,,masks/mask_003.jpg,,,,,,,,,,,,,,,,,,,,,,,,,,,,,,,,,,,,,,,,,,,,,,,,0,3,3,2,1,,,,,,,,,,,,,,,,,,,,,,,,,,,,,,,,,,,,,,,,,
661414,001,2022-11-20_23h57.33.458,Info_measure_main_exp,2022.2.2,Win32,74.96251874,,,,,,,,,,,,,,,,,,masks/mask_001.jpg,,,,,,,,,,,,,,,,,,,,,,,,,,,,,,,,,,,,,,,,,,,,,,,,0,4,4,0,1,,,,,,,,,,,,,,,,,,,,,,,,,,,,,,,,,,,,,,,,,
661414,001,2022-11-20_23h57.33.458,Info_measure_main_exp,2022.2.2,Win32,74.96251874,,,,,,,,,,,,,,,,,,,,,,,,,,,,,,5,1.081,1,,,,,,,,,,,,0,131,5,5,1950,2142,absent_patch/patch0001950.jpg,absent_patch/patch0002142.jpg,,,,,,,,,,,,,,,,,,,,0.112037037,-0.066666667,1,0,0,response3disk,9,0.006481481,0.006481481,1,0,0,center_square,0,8,8,83,1,,,,,,,,,,,,,,,,,,,,,,,
661414,001,2022-11-20_23h57.33.458,Info_measure_main_exp,2022.2.2,Win32,74.96251874,,,,,,,,,,,,,,,,,,masks/mask_001.jpg,,,,,,,,,,,,,,,,,,,,,,,,,,,,,,,,,,,,,,,,,,,0,0,0,0,1,,,,,,,,,,,,,,,,,,,,,,,,,,,,,,,,,,,,,,,,,,,,,,
661414,001,2022-11-20_23h57.33.458,Info_measure_main_exp,2022.2.2,Win32,74.96251874,,,,,,,,,,,,,,,,,,masks/mask_003.jpg,,,,,,,,,,,,,,,,,,,,,,,,,,,,,,,,,,,,,,,,,,,0,1,1,2,1,,,,,,,,,,,,,,,,,,,,,,,,,,,,,,,,,,,,,,,,,,,,,,
661414,001,2022-11-20_23h57.33.458,Info_measure_main_exp,2022.2.2,Win32,74.96251874,,,,,,,,,,,,,,,,,,masks/mask_005.jpg,,,,,,,,,,,,,,,,,,,,,,,,,,,,,,,,,,,,,,,,,,,0,2,2,4,1,,,,,,,,,,,,,,,,,,,,,,,,,,,,,,,,,,,,,,,,,,,,,,
661414,001,2022-11-20_23h57.33.458,Info_measure_main_exp,2022.2.2,Win32,74.96251874,,,,,,,,,,,,,,,,,,masks/mask_002.jpg,,,,,,,,,,,,,,,,,,,,,,,,,,,,,,,,,,,,,,,,,,,0,3,3,1,1,,,,,,,,,,,,,,,,,,,,,,,,,,,,,,,,,,,,,,,,,,,,,,
661414,001,2022-11-20_23h57.33.458,Info_measure_main_exp,2022.2.2,Win32,74.96251874,,,,,,,,,,,,,,,,,,masks/mask_004.jpg,,,,,,,,,,,,,,,,,,,,,,,,,,,,,,,,,,,,,,,,,,,0,4,4,3,1,,,,,,,,,,,,,,,,,,,,,,,,,,,,,,,,,,,,,,,,,,,,,,
661414,001,2022-11-20_23h57.33.458,Info_measure_main_exp,2022.2.2,Win32,74.96251874,,,,,,,,,,,,,,,,,,masks/mask_002.jpg,,,,,,,,,,,,,,,,,,,,,,,,,,,,,,,,,,,,,,,,,,,,,,,,0,0,0,1,1,,,,,,,,,,,,,,,,,,,,,,,,,,,,,,,,,,,,,,,,,
661414,001,2022-11-20_23h57.33.458,Info_measure_main_exp,2022.2.2,Win32,74.96251874,,,,,,,,,,,,,,,,,,masks/mask_004.jpg,,,,,,,,,,,,,,,,,,,,,,,,,,,,,,,,,,,,,,,,,,,,,,,,0,1,1,3,1,,,,,,,,,,,,,,,,,,,,,,,,,,,,,,,,,,,,,,,,,
661414,001,2022-11-20_23h57.33.458,Info_measure_main_exp,2022.2.2,Win32,74.96251874,,,,,,,,,,,,,,,,,,masks/mask_001.jpg,,,,,,,,,,,,,,,,,,,,,,,,,,,,,,,,,,,,,,,,,,,,,,,,0,2,2,0,1,,,,,,,,,,,,,,,,,,,,,,,,,,,,,,,,,,,,,,,,,
661414,001,2022-11-20_23h57.33.458,Info_measure_main_exp,2022.2.2,Win32,74.96251874,,,,,,,,,,,,,,,,,,masks/mask_005.jpg,,,,,,,,,,,,,,,,,,,,,,,,,,,,,,,,,,,,,,,,,,,,,,,,0,3,3,4,1,,,,,,,,,,,,,,,,,,,,,,,,,,,,,,,,,,,,,,,,,
661414,001,2022-11-20_23h57.33.458,Info_measure_main_exp,2022.2.2,Win32,74.96251874,,,,,,,,,,,,,,,,,,masks/mask_003.jpg,,,,,,,,,,,,,,,,,,,,,,,,,,,,,,,,,,,,,,,,,,,,,,,,0,4,4,2,1,,,,,,,,,,,,,,,,,,,,,,,,,,,,,,,,,,,,,,,,,
661414,001,2022-11-20_23h57.33.458,Info_measure_main_exp,2022.2.2,Win32,74.96251874,,,,,,,,,,,,,,,,,,,,,,,,,,,,,,0,0.693,1,,,,,,,,,,,,0,131,5,5,1986,2142,absent_patch/patch0001986.jpg,absent_patch/patch0002142.jpg,,,,,,,,,,,,,,,,,,,,-0.023148148,0.096296296,1,0,0,response7disk,10,0.006481481,0.00462963,1,0,0,center_square,0,9,9,76,1,,,,,,,,,,,,,,,,,,,,,,,
661414,001,2022-11-20_23h57.33.458,Info_measure_main_exp,2022.2.2,Win32,74.96251874,,,,,,,,,,,,,,,,,,masks/mask_002.jpg,,,,,,,,,,,,,,,,,,,,,,,,,,,,,,,,,,,,,,,,,,,0,0,0,1,1,,,,,,,,,,,,,,,,,,,,,,,,,,,,,,,,,,,,,,,,,,,,,,
661414,001,2022-11-20_23h57.33.458,Info_measure_main_exp,2022.2.2,Win32,74.96251874,,,,,,,,,,,,,,,,,,masks/mask_005.jpg,,,,,,,,,,,,,,,,,,,,,,,,,,,,,,,,,,,,,,,,,,,0,1,1,4,1,,,,,,,,,,,,,,,,,,,,,,,,,,,,,,,,,,,,,,,,,,,,,,
661414,001,2022-11-20_23h57.33.458,Info_measure_main_exp,2022.2.2,Win32,74.96251874,,,,,,,,,,,,,,,,,,masks/mask_001.jpg,,,,,,,,,,,,,,,,,,,,,,,,,,,,,,,,,,,,,,,,,,,0,2,2,0,1,,,,,,,,,,,,,,,,,,,,,,,,,,,,,,,,,,,,,,,,,,,,,,
661414,001,2022-11-20_23h57.33.458,Info_measure_main_exp,2022.2.2,Win32,74.96251874,,,,,,,,,,,,,,,,,,masks/mask_004.jpg,,,,,,,,,,,,,,,,,,,,,,,,,,,,,,,,,,,,,,,,,,,0,3,3,3,1,,,,,,,,,,,,,,,,,,,,,,,,,,,,,,,,,,,,,,,,,,,,,,
661414,001,2022-11-20_23h57.33.458,Info_measure_main_exp,2022.2.2,Win32,74.96251874,,,,,,,,,,,,,,,,,,masks/mask_003.jpg,,,,,,,,,,,,,,,,,,,,,,,,,,,,,,,,,,,,,,,,,,,0,4,4,2,1,,,,,,,,,,,,,,,,,,,,,,,,,,,,,,,,,,,,,,,,,,,,,,
661414,001,2022-11-20_23h57.33.458,Info_measure_main_exp,2022.2.2,Win32,74.96251874,,,,,,,,,,,,,,,,,,masks/mask_002.jpg,,,,,,,,,,,,,,,,,,,,,,,,,,,,,,,,,,,,,,,,,,,,,,,,0,0,0,1,1,,,,,,,,,,,,,,,,,,,,,,,,,,,,,,,,,,,,,,,,,
661414,001,2022-11-20_23h57.33.458,Info_measure_main_exp,2022.2.2,Win32,74.96251874,,,,,,,,,,,,,,,,,,masks/mask_003.jpg,,,,,,,,,,,,,,,,,,,,,,,,,,,,,,,,,,,,,,,,,,,,,,,,0,1,1,2,1,,,,,,,,,,,,,,,,,,,,,,,,,,,,,,,,,,,,,,,,,
661414,001,2022-11-20_23h57.33.458,Info_measure_main_exp,2022.2.2,Win32,74.96251874,,,,,,,,,,,,,,,,,,masks/mask_005.jpg,,,,,,,,,,,,,,,,,,,,,,,,,,,,,,,,,,,,,,,,,,,,,,,,0,2,2,4,1,,,,,,,,,,,,,,,,,,,,,,,,,,,,,,,,,,,,,,,,,
661414,001,2022-11-20_23h57.33.458,Info_measure_main_exp,2022.2.2,Win32,74.96251874,,,,,,,,,,,,,,,,,,masks/mask_004.jpg,,,,,,,,,,,,,,,,,,,,,,,,,,,,,,,,,,,,,,,,,,,,,,,,0,3,3,3,1,,,,,,,,,,,,,,,,,,,,,,,,,,,,,,,,,,,,,,,,,
661414,001,2022-11-20_23h57.33.458,Info_measure_main_exp,2022.2.2,Win32,74.96251874,,,,,,,,,,,,,,,,,,masks/mask_001.jpg,,,,,,,,,,,,,,,,,,,,,,,,,,,,,,,,,,,,,,,,,,,,,,,,0,4,4,0,1,,,,,,,,,,,,,,,,,,,,,,,,,,,,,,,,,,,,,,,,,
661414,001,2022-11-20_23h57.33.458,Info_measure_main_exp,2022.2.2,Win32,74.96251874,,,,,,,,,,,,,,,,,,,,,,,,,,,,,,6,1.547,1,,,,,,,,,,,,1,131,5,5,1,2274,present_patch/cong_131_5_a.jpg,absent_patch/patch0002274.jpg,,,,,,,,,,,,,,,,,,,,0.09537037,0.091666667,1,0,0,response1disk,11,0.003703704,-0.001851852,1,0,0,center_square,0,10,10,105,1,,,,,,,,,,,,,,,,,,,,,,,
661414,001,2022-11-20_23h57.33.458,Info_measure_main_exp,2022.2.2,Win32,74.96251874,,,,,,,,,,,,,,,,,,masks/mask_004.jpg,,,,,,,,,,,,,,,,,,,,,,,,,,,,,,,,,,,,,,,,,,,0,0,0,3,1,,,,,,,,,,,,,,,,,,,,,,,,,,,,,,,,,,,,,,,,,,,,,,
661414,001,2022-11-20_23h57.33.458,Info_measure_main_exp,2022.2.2,Win32,74.96251874,,,,,,,,,,,,,,,,,,masks/mask_005.jpg,,,,,,,,,,,,,,,,,,,,,,,,,,,,,,,,,,,,,,,,,,,0,1,1,4,1,,,,,,,,,,,,,,,,,,,,,,,,,,,,,,,,,,,,,,,,,,,,,,
661414,001,2022-11-20_23h57.33.458,Info_measure_main_exp,2022.2.2,Win32,74.96251874,,,,,,,,,,,,,,,,,,masks/mask_003.jpg,,,,,,,,,,,,,,,,,,,,,,,,,,,,,,,,,,,,,,,,,,,0,2,2,2,1,,,,,,,,,,,,,,,,,,,,,,,,,,,,,,,,,,,,,,,,,,,,,,
661414,001,2022-11-20_23h57.33.458,Info_measure_main_exp,2022.2.2,Win32,74.96251874,,,,,,,,,,,,,,,,,,masks/mask_002.jpg,,,,,,,,,,,,,,,,,,,,,,,,,,,,,,,,,,,,,,,,,,,0,3,3,1,1,,,,,,,,,,,,,,,,,,,,,,,,,,,,,,,,,,,,,,,,,,,,,,
661414,001,2022-11-20_23h57.33.458,Info_measure_main_exp,2022.2.2,Win32,74.96251874,,,,,,,,,,,,,,,,,,masks/mask_001.jpg,,,,,,,,,,,,,,,,,,,,,,,,,,,,,,,,,,,,,,,,,,,0,4,4,0,1,,,,,,,,,,,,,,,,,,,,,,,,,,,,,,,,,,,,,,,,,,,,,,
661414,001,2022-11-20_23h57.33.458,Info_measure_main_exp,2022.2.2,Win32,74.96251874,,,,,,,,,,,,,,,,,,masks/mask_002.jpg,,,,,,,,,,,,,,,,,,,,,,,,,,,,,,,,,,,,,,,,,,,,,,,,0,0,0,1,1,,,,,,,,,,,,,,,,,,,,,,,,,,,,,,,,,,,,,,,,,
661414,001,2022-11-20_23h57.33.458,Info_measure_main_exp,2022.2.2,Win32,74.96251874,,,,,,,,,,,,,,,,,,masks/mask_005.jpg,,,,,,,,,,,,,,,,,,,,,,,,,,,,,,,,,,,,,,,,,,,,,,,,0,1,1,4,1,,,,,,,,,,,,,,,,,,,,,,,,,,,,,,,,,,,,,,,,,
661414,001,2022-11-20_23h57.33.458,Info_measure_main_exp,2022.2.2,Win32,74.96251874,,,,,,,,,,,,,,,,,,masks/mask_003.jpg,,,,,,,,,,,,,,,,,,,,,,,,,,,,,,,,,,,,,,,,,,,,,,,,0,2,2,2,1,,,,,,,,,,,,,,,,,,,,,,,,,,,,,,,,,,,,,,,,,
661414,001,2022-11-20_23h57.33.458,Info_measure_main_exp,2022.2.2,Win32,74.96251874,,,,,,,,,,,,,,,,,,masks/mask_001.jpg,,,,,,,,,,,,,,,,,,,,,,,,,,,,,,,,,,,,,,,,,,,,,,,,0,3,3,0,1,,,,,,,,,,,,,,,,,,,,,,,,,,,,,,,,,,,,,,,,,
661414,001,2022-11-20_23h57.33.458,Info_measure_main_exp,2022.2.2,Win32,74.96251874,,,,,,,,,,,,,,,,,,masks/mask_004.jpg,,,,,,,,,,,,,,,,,,,,,,,,,,,,,,,,,,,,,,,,,,,,,,,,0,4,4,3,1,,,,,,,,,,,,,,,,,,,,,,,,,,,,,,,,,,,,,,,,,
661414,001,2022-11-20_23h57.33.458,Info_measure_main_exp,2022.2.2,Win32,74.96251874,,,,,,,,,,,,,,,,,,,,,,,,,,,,,,7,1.026,1,,,,,,,,,,,,0,131,5,5,1974,2166,absent_patch/patch0001974.jpg,absent_patch/patch0002166.jpg,,,,,,,,,,,,,,,,,,,,0.082407407,0.131481481,1,0,0,response1disk,12,0.015740741,0.012962963,1,0,0,center_square,0,11,11,77,1,,,,,,,,,,,,,,,,,,,,,,,
661414,001,2022-11-20_23h57.33.458,Info_measure_main_exp,2022.2.2,Win32,74.96251874,,,,,,,,,,,,,,,,,,masks/mask_003.jpg,,,,,,,,,,,,,,,,,,,,,,,,,,,,,,,,,,,,,,,,,,,0,0,0,2,1,,,,,,,,,,,,,,,,,,,,,,,,,,,,,,,,,,,,,,,,,,,,,,
661414,001,2022-11-20_23h57.33.458,Info_measure_main_exp,2022.2.2,Win32,74.96251874,,,,,,,,,,,,,,,,,,masks/mask_002.jpg,,,,,,,,,,,,,,,,,,,,,,,,,,,,,,,,,,,,,,,,,,,0,1,1,1,1,,,,,,,,,,,,,,,,,,,,,,,,,,,,,,,,,,,,,,,,,,,,,,
661414,001,2022-11-20_23h57.33.458,Info_measure_main_exp,2022.2.2,Win32,74.96251874,,,,,,,,,,,,,,,,,,masks/mask_004.jpg,,,,,,,,,,,,,,,,,,,,,,,,,,,,,,,,,,,,,,,,,,,0,2,2,3,1,,,,,,,,,,,,,,,,,,,,,,,,,,,,,,,,,,,,,,,,,,,,,,
661414,001,2022-11-20_23h57.33.458,Info_measure_main_exp,2022.2.2,Win32,74.96251874,,,,,,,,,,,,,,,,,,masks/mask_005.jpg,,,,,,,,,,,,,,,,,,,,,,,,,,,,,,,,,,,,,,,,,,,0,3,3,4,1,,,,,,,,,,,,,,,,,,,,,,,,,,,,,,,,,,,,,,,,,,,,,,
661414,001,2022-11-20_23h57.33.458,Info_measure_main_exp,2022.2.2,Win32,74.96251874,,,,,,,,,,,,,,,,,,masks/mask_001.jpg,,,,,,,,,,,,,,,,,,,,,,,,,,,,,,,,,,,,,,,,,,,0,4,4,0,1,,,,,,,,,,,,,,,,,,,,,,,,,,,,,,,,,,,,,,,,,,,,,,
661414,001,2022-11-20_23h57.33.458,Info_measure_main_exp,2022.2.2,Win32,74.96251874,,,,,,,,,,,,,,,,,,masks/mask_003.jpg,,,,,,,,,,,,,,,,,,,,,,,,,,,,,,,,,,,,,,,,,,,,,,,,0,0,0,2,1,,,,,,,,,,,,,,,,,,,,,,,,,,,,,,,,,,,,,,,,,
661414,001,2022-11-20_23h57.33.458,Info_measure_main_exp,2022.2.2,Win32,74.96251874,,,,,,,,,,,,,,,,,,masks/mask_005.jpg,,,,,,,,,,,,,,,,,,,,,,,,,,,,,,,,,,,,,,,,,,,,,,,,0,1,1,4,1,,,,,,,,,,,,,,,,,,,,,,,,,,,,,,,,,,,,,,,,,
661414,001,2022-11-20_23h57.33.458,Info_measure_main_exp,2022.2.2,Win32,74.96251874,,,,,,,,,,,,,,,,,,masks/mask_001.jpg,,,,,,,,,,,,,,,,,,,,,,,,,,,,,,,,,,,,,,,,,,,,,,,,0,2,2,0,1,,,,,,,,,,,,,,,,,,,,,,,,,,,,,,,,,,,,,,,,,
661414,001,2022-11-20_23h57.33.458,Info_measure_main_exp,2022.2.2,Win32,74.96251874,,,,,,,,,,,,,,,,,,masks/mask_004.jpg,,,,,,,,,,,,,,,,,,,,,,,,,,,,,,,,,,,,,,,,,,,,,,,,0,3,3,3,1,,,,,,,,,,,,,,,,,,,,,,,,,,,,,,,,,,,,,,,,,
661414,001,2022-11-20_23h57.33.458,Info_measure_main_exp,2022.2.2,Win32,74.96251874,,,,,,,,,,,,,,,,,,masks/mask_002.jpg,,,,,,,,,,,,,,,,,,,,,,,,,,,,,,,,,,,,,,,,,,,,,,,,0,4,4,1,1,,,,,,,,,,,,,,,,,,,,,,,,,,,,,,,,,,,,,,,,,
661414,001,2022-11-20_23h57.33.458,Info_measure_main_exp,2022.2.2,Win32,74.96251874,,,,,,,,,,,,,,,,,,,,,,,,,,,,,,7,3.986,1,,,,,,,,,,,,0,131,5,5,2250,2238,absent_patch/patch0002250.jpg,absent_patch/patch0002238.jpg,,,,,,,,,,,,,,,,,,,,0.093518519,0.14537037,1,0,0,response1disk,13,0.015740741,0.005555556,1,0,0,center_square,0,12,12,110,1,,,,,,,,,,,,,,,,,,,,,,,
661414,001,2022-11-20_23h57.33.458,Info_measure_main_exp,2022.2.2,Win32,74.96251874,,,,,,,,,,,,,,,,,,masks/mask_004.jpg,,,,,,,,,,,,,,,,,,,,,,,,,,,,,,,,,,,,,,,,,,,0,0,0,3,1,,,,,,,,,,,,,,,,,,,,,,,,,,,,,,,,,,,,,,,,,,,,,,
661414,001,2022-11-20_23h57.33.458,Info_measure_main_exp,2022.2.2,Win32,74.96251874,,,,,,,,,,,,,,,,,,masks/mask_001.jpg,,,,,,,,,,,,,,,,,,,,,,,,,,,,,,,,,,,,,,,,,,,0,1,1,0,1,,,,,,,,,,,,,,,,,,,,,,,,,,,,,,,,,,,,,,,,,,,,,,
661414,001,2022-11-20_23h57.33.458,Info_measure_main_exp,2022.2.2,Win32,74.96251874,,,,,,,,,,,,,,,,,,masks/mask_003.jpg,,,,,,,,,,,,,,,,,,,,,,,,,,,,,,,,,,,,,,,,,,,0,2,2,2,1,,,,,,,,,,,,,,,,,,,,,,,,,,,,,,,,,,,,,,,,,,,,,,
661414,001,2022-11-20_23h57.33.458,Info_measure_main_exp,2022.2.2,Win32,74.96251874,,,,,,,,,,,,,,,,,,masks/mask_002.jpg,,,,,,,,,,,,,,,,,,,,,,,,,,,,,,,,,,,,,,,,,,,0,3,3,1,1,,,,,,,,,,,,,,,,,,,,,,,,,,,,,,,,,,,,,,,,,,,,,,
661414,001,2022-11-20_23h57.33.458,Info_measure_main_exp,2022.2.2,Win32,74.96251874,,,,,,,,,,,,,,,,,,masks/mask_005.jpg,,,,,,,,,,,,,,,,,,,,,,,,,,,,,,,,,,,,,,,,,,,0,4,4,4,1,,,,,,,,,,,,,,,,,,,,,,,,,,,,,,,,,,,,,,,,,,,,,,
661414,001,2022-11-20_23h57.33.458,Info_measure_main_exp,2022.2.2,Win32,74.96251874,,,,,,,,,,,,,,,,,,masks/mask_003.jpg,,,,,,,,,,,,,,,,,,,,,,,,,,,,,,,,,,,,,,,,,,,,,,,,0,0,0,2,1,,,,,,,,,,,,,,,,,,,,,,,,,,,,,,,,,,,,,,,,,
661414,001,2022-11-20_23h57.33.458,Info_measure_main_exp,2022.2.2,Win32,74.96251874,,,,,,,,,,,,,,,,,,masks/mask_001.jpg,,,,,,,,,,,,,,,,,,,,,,,,,,,,,,,,,,,,,,,,,,,,,,,,0,1,1,0,1,,,,,,,,,,,,,,,,,,,,,,,,,,,,,,,,,,,,,,,,,
661414,001,2022-11-20_23h57.33.458,Info_measure_main_exp,2022.2.2,Win32,74.96251874,,,,,,,,,,,,,,,,,,masks/mask_004.jpg,,,,,,,,,,,,,,,,,,,,,,,,,,,,,,,,,,,,,,,,,,,,,,,,0,2,2,3,1,,,,,,,,,,,,,,,,,,,,,,,,,,,,,,,,,,,,,,,,,
661414,001,2022-11-20_23h57.33.458,Info_measure_main_exp,2022.2.2,Win32,74.96251874,,,,,,,,,,,,,,,,,,masks/mask_002.jpg,,,,,,,,,,,,,,,,,,,,,,,,,,,,,,,,,,,,,,,,,,,,,,,,0,3,3,1,1,,,,,,,,,,,,,,,,,,,,,,,,,,,,,,,,,,,,,,,,,
661414,001,2022-11-20_23h57.33.458,Info_measure_main_exp,2022.2.2,Win32,74.96251874,,,,,,,,,,,,,,,,,,masks/mask_005.jpg,,,,,,,,,,,,,,,,,,,,,,,,,,,,,,,,,,,,,,,,,,,,,,,,0,4,4,4,1,,,,,,,,,,,,,,,,,,,,,,,,,,,,,,,,,,,,,,,,,
661414,001,2022-11-20_23h57.33.458,Info_measure_main_exp,2022.2.2,Win32,74.96251874,,,,,,,,,,,,,,,,,,,,,,,,,,,,,,7,1.108,1,,,,,,,,,,,,0,131,5,5,2190,2250,absent_patch/patch0002190.jpg,absent_patch/patch0002250.jpg,,,,,,,,,,,,,,,,,,,,0.013888889,0.046296296,1,0,0,response1disk,14,0.012037037,0.012962963,1,0,0,center_square,0,13,13,93,1,,,,,,,,,,,,,,,,,,,,,,,
661414,001,2022-11-20_23h57.33.458,Info_measure_main_exp,2022.2.2,Win32,74.96251874,,,,,,,,,,,,,,,,,,masks/mask_004.jpg,,,,,,,,,,,,,,,,,,,,,,,,,,,,,,,,,,,,,,,,,,,0,0,0,3,1,,,,,,,,,,,,,,,,,,,,,,,,,,,,,,,,,,,,,,,,,,,,,,
661414,001,2022-11-20_23h57.33.458,Info_measure_main_exp,2022.2.2,Win32,74.96251874,,,,,,,,,,,,,,,,,,masks/mask_002.jpg,,,,,,,,,,,,,,,,,,,,,,,,,,,,,,,,,,,,,,,,,,,0,1,1,1,1,,,,,,,,,,,,,,,,,,,,,,,,,,,,,,,,,,,,,,,,,,,,,,
661414,001,2022-11-20_23h57.33.458,Info_measure_main_exp,2022.2.2,Win32,74.96251874,,,,,,,,,,,,,,,,,,masks/mask_003.jpg,,,,,,,,,,,,,,,,,,,,,,,,,,,,,,,,,,,,,,,,,,,0,2,2,2,1,,,,,,,,,,,,,,,,,,,,,,,,,,,,,,,,,,,,,,,,,,,,,,
661414,001,2022-11-20_23h57.33.458,Info_measure_main_exp,2022.2.2,Win32,74.96251874,,,,,,,,,,,,,,,,,,masks/mask_005.jpg,,,,,,,,,,,,,,,,,,,,,,,,,,,,,,,,,,,,,,,,,,,0,3,3,4,1,,,,,,,,,,,,,,,,,,,,,,,,,,,,,,,,,,,,,,,,,,,,,,
661414,001,2022-11-20_23h57.33.458,Info_measure_main_exp,2022.2.2,Win32,74.96251874,,,,,,,,,,,,,,,,,,masks/mask_001.jpg,,,,,,,,,,,,,,,,,,,,,,,,,,,,,,,,,,,,,,,,,,,0,4,4,0,1,,,,,,,,,,,,,,,,,,,,,,,,,,,,,,,,,,,,,,,,,,,,,,
661414,001,2022-11-20_23h57.33.458,Info_measure_main_exp,2022.2.2,Win32,74.96251874,,,,,,,,,,,,,,,,,,masks/mask_003.jpg,,,,,,,,,,,,,,,,,,,,,,,,,,,,,,,,,,,,,,,,,,,,,,,,0,0,0,2,1,,,,,,,,,,,,,,,,,,,,,,,,,,,,,,,,,,,,,,,,,
661414,001,2022-11-20_23h57.33.458,Info_measure_main_exp,2022.2.2,Win32,74.96251874,,,,,,,,,,,,,,,,,,masks/mask_001.jpg,,,,,,,,,,,,,,,,,,,,,,,,,,,,,,,,,,,,,,,,,,,,,,,,0,1,1,0,1,,,,,,,,,,,,,,,,,,,,,,,,,,,,,,,,,,,,,,,,,
661414,001,2022-11-20_23h57.33.458,Info_measure_main_exp,2022.2.2,Win32,74.96251874,,,,,,,,,,,,,,,,,,masks/mask_005.jpg,,,,,,,,,,,,,,,,,,,,,,,,,,,,,,,,,,,,,,,,,,,,,,,,0,2,2,4,1,,,,,,,,,,,,,,,,,,,,,,,,,,,,,,,,,,,,,,,,,
661414,001,2022-11-20_23h57.33.458,Info_measure_main_exp,2022.2.2,Win32,74.96251874,,,,,,,,,,,,,,,,,,masks/mask_004.jpg,,,,,,,,,,,,,,,,,,,,,,,,,,,,,,,,,,,,,,,,,,,,,,,,0,3,3,3,1,,,,,,,,,,,,,,,,,,,,,,,,,,,,,,,,,,,,,,,,,
661414,001,2022-11-20_23h57.33.458,Info_measure_main_exp,2022.2.2,Win32,74.96251874,,,,,,,,,,,,,,,,,,masks/mask_002.jpg,,,,,,,,,,,,,,,,,,,,,,,,,,,,,,,,,,,,,,,,,,,,,,,,0,4,4,1,1,,,,,,,,,,,,,,,,,,,,,,,,,,,,,,,,,,,,,,,,,
661414,001,2022-11-20_23h57.33.458,Info_measure_main_exp,2022.2.2,Win32,74.96251874,,,,,,,,,,,,,,,,,,,,,,,,,,,,,,7,0.893,1,,,,,,,,,,,,0,131,5,5,1950,2166,absent_patch/patch0001950.jpg,absent_patch/patch0002166.jpg,,,,,,,,,,,,,,,,,,,,0.038888889,0.126851852,1,0,0,response1disk,15,-0.00462963,0.008333333,1,0,0,center_square,0,14,14,0,1,,,,,,,,,,,,,,,,,,,,,,,
661414,001,2022-11-20_23h57.33.458,Info_measure_main_exp,2022.2.2,Win32,74.96251874,,,,,,,,,,,,,,,,,,masks/mask_005.jpg,,,,,,,,,,,,,,,,,,,,,,,,,,,,,,,,,,,,,,,,,,,0,0,0,4,1,,,,,,,,,,,,,,,,,,,,,,,,,,,,,,,,,,,,,,,,,,,,,,
661414,001,2022-11-20_23h57.33.458,Info_measure_main_exp,2022.2.2,Win32,74.96251874,,,,,,,,,,,,,,,,,,masks/mask_001.jpg,,,,,,,,,,,,,,,,,,,,,,,,,,,,,,,,,,,,,,,,,,,0,1,1,0,1,,,,,,,,,,,,,,,,,,,,,,,,,,,,,,,,,,,,,,,,,,,,,,
661414,001,2022-11-20_23h57.33.458,Info_measure_main_exp,2022.2.2,Win32,74.96251874,,,,,,,,,,,,,,,,,,masks/mask_004.jpg,,,,,,,,,,,,,,,,,,,,,,,,,,,,,,,,,,,,,,,,,,,0,2,2,3,1,,,,,,,,,,,,,,,,,,,,,,,,,,,,,,,,,,,,,,,,,,,,,,
661414,001,2022-11-20_23h57.33.458,Info_measure_main_exp,2022.2.2,Win32,74.96251874,,,,,,,,,,,,,,,,,,masks/mask_002.jpg,,,,,,,,,,,,,,,,,,,,,,,,,,,,,,,,,,,,,,,,,,,0,3,3,1,1,,,,,,,,,,,,,,,,,,,,,,,,,,,,,,,,,,,,,,,,,,,,,,
661414,001,2022-11-20_23h57.33.458,Info_measure_main_exp,2022.2.2,Win32,74.96251874,,,,,,,,,,,,,,,,,,masks/mask_003.jpg,,,,,,,,,,,,,,,,,,,,,,,,,,,,,,,,,,,,,,,,,,,0,4,4,2,1,,,,,,,,,,,,,,,,,,,,,,,,,,,,,,,,,,,,,,,,,,,,,,
661414,001,2022-11-20_23h57.33.458,Info_measure_main_exp,2022.2.2,Win32,74.96251874,,,,,,,,,,,,,,,,,,masks/mask_001.jpg,,,,,,,,,,,,,,,,,,,,,,,,,,,,,,,,,,,,,,,,,,,,,,,,0,0,0,0,1,,,,,,,,,,,,,,,,,,,,,,,,,,,,,,,,,,,,,,,,,
661414,001,2022-11-20_23h57.33.458,Info_measure_main_exp,2022.2.2,Win32,74.96251874,,,,,,,,,,,,,,,,,,masks/mask_002.jpg,,,,,,,,,,,,,,,,,,,,,,,,,,,,,,,,,,,,,,,,,,,,,,,,0,1,1,1,1,,,,,,,,,,,,,,,,,,,,,,,,,,,,,,,,,,,,,,,,,
661414,001,2022-11-20_23h57.33.458,Info_measure_main_exp,2022.2.2,Win32,74.96251874,,,,,,,,,,,,,,,,,,masks/mask_004.jpg,,,,,,,,,,,,,,,,,,,,,,,,,,,,,,,,,,,,,,,,,,,,,,,,0,2,2,3,1,,,,,,,,,,,,,,,,,,,,,,,,,,,,,,,,,,,,,,,,,
661414,001,2022-11-20_23h57.33.458,Info_measure_main_exp,2022.2.2,Win32,74.96251874,,,,,,,,,,,,,,,,,,masks/mask_003.jpg,,,,,,,,,,,,,,,,,,,,,,,,,,,,,,,,,,,,,,,,,,,,,,,,0,3,3,2,1,,,,,,,,,,,,,,,,,,,,,,,,,,,,,,,,,,,,,,,,,
661414,001,2022-11-20_23h57.33.458,Info_measure_main_exp,2022.2.2,Win32,74.96251874,,,,,,,,,,,,,,,,,,masks/mask_005.jpg,,,,,,,,,,,,,,,,,,,,,,,,,,,,,,,,,,,,,,,,,,,,,,,,0,4,4,4,1,,,,,,,,,,,,,,,,,,,,,,,,,,,,,,,,,,,,,,,,,
661414,001,2022-11-20_23h57.33.458,Info_measure_main_exp,2022.2.2,Win32,74.96251874,,,,,,,,,,,,,,,,,,,,,,,,,,,,,,7,0.64,1,,,,,,,,,,,,0,131,5,5,2250,2298,absent_patch/patch0002250.jpg,absent_patch/patch0002298.jpg,,,,,,,,,,,,,,,,,,,,0.025,0.087037037,1,0,0,response1disk,16,0.010185185,0.011111111,1,0,0,center_square,0,15,15,59,1,,,,,,,,,,,,,,,,,,,,,,,
661414,001,2022-11-20_23h57.33.458,Info_measure_main_exp,2022.2.2,Win32,74.96251874,,,,,,,,,,,,,,,,,,masks/mask_005.jpg,,,,,,,,,,,,,,,,,,,,,,,,,,,,,,,,,,,,,,,,,,,0,0,0,4,1,,,,,,,,,,,,,,,,,,,,,,,,,,,,,,,,,,,,,,,,,,,,,,
661414,001,2022-11-20_23h57.33.458,Info_measure_main_exp,2022.2.2,Win32,74.96251874,,,,,,,,,,,,,,,,,,masks/mask_004.jpg,,,,,,,,,,,,,,,,,,,,,,,,,,,,,,,,,,,,,,,,,,,0,1,1,3,1,,,,,,,,,,,,,,,,,,,,,,,,,,,,,,,,,,,,,,,,,,,,,,
661414,001,2022-11-20_23h57.33.458,Info_measure_main_exp,2022.2.2,Win32,74.96251874,,,,,,,,,,,,,,,,,,masks/mask_003.jpg,,,,,,,,,,,,,,,,,,,,,,,,,,,,,,,,,,,,,,,,,,,0,2,2,2,1,,,,,,,,,,,,,,,,,,,,,,,,,,,,,,,,,,,,,,,,,,,,,,
661414,001,2022-11-20_23h57.33.458,Info_measure_main_exp,2022.2.2,Win32,74.96251874,,,,,,,,,,,,,,,,,,masks/mask_002.jpg,,,,,,,,,,,,,,,,,,,,,,,,,,,,,,,,,,,,,,,,,,,0,3,3,1,1,,,,,,,,,,,,,,,,,,,,,,,,,,,,,,,,,,,,,,,,,,,,,,
661414,001,2022-11-20_23h57.33.458,Info_measure_main_exp,2022.2.2,Win32,74.96251874,,,,,,,,,,,,,,,,,,masks/mask_001.jpg,,,,,,,,,,,,,,,,,,,,,,,,,,,,,,,,,,,,,,,,,,,0,4,4,0,1,,,,,,,,,,,,,,,,,,,,,,,,,,,,,,,,,,,,,,,,,,,,,,
661414,001,2022-11-20_23h57.33.458,Info_measure_main_exp,2022.2.2,Win32,74.96251874,,,,,,,,,,,,,,,,,,masks/mask_005.jpg,,,,,,,,,,,,,,,,,,,,,,,,,,,,,,,,,,,,,,,,,,,,,,,,0,0,0,4,1,,,,,,,,,,,,,,,,,,,,,,,,,,,,,,,,,,,,,,,,,
661414,001,2022-11-20_23h57.33.458,Info_measure_main_exp,2022.2.2,Win32,74.96251874,,,,,,,,,,,,,,,,,,masks/mask_003.jpg,,,,,,,,,,,,,,,,,,,,,,,,,,,,,,,,,,,,,,,,,,,,,,,,0,1,1,2,1,,,,,,,,,,,,,,,,,,,,,,,,,,,,,,,,,,,,,,,,,
661414,001,2022-11-20_23h57.33.458,Info_measure_main_exp,2022.2.2,Win32,74.96251874,,,,,,,,,,,,,,,,,,masks/mask_004.jpg,,,,,,,,,,,,,,,,,,,,,,,,,,,,,,,,,,,,,,,,,,,,,,,,0,2,2,3,1,,,,,,,,,,,,,,,,,,,,,,,,,,,,,,,,,,,,,,,,,
661414,001,2022-11-20_23h57.33.458,Info_measure_main_exp,2022.2.2,Win32,74.96251874,,,,,,,,,,,,,,,,,,masks/mask_002.jpg,,,,,,,,,,,,,,,,,,,,,,,,,,,,,,,,,,,,,,,,,,,,,,,,0,3,3,1,1,,,,,,,,,,,,,,,,,,,,,,,,,,,,,,,,,,,,,,,,,
661414,001,2022-11-20_23h57.33.458,Info_measure_main_exp,2022.2.2,Win32,74.96251874,,,,,,,,,,,,,,,,,,masks/mask_001.jpg,,,,,,,,,,,,,,,,,,,,,,,,,,,,,,,,,,,,,,,,,,,,,,,,0,4,4,0,1,,,,,,,,,,,,,,,,,,,,,,,,,,,,,,,,,,,,,,,,,
661414,001,2022-11-20_23h57.33.458,Info_measure_main_exp,2022.2.2,Win32,74.96251874,,,,,,,,,,,,,,,,,,,,,,,,,,,,,,7,0.707,1,,,,,,,,,,,,0,131,5,5,2298,1986,absent_patch/patch0002298.jpg,absent_patch/patch0001986.jpg,,,,,,,,,,,,,,,,,,,,0.025925926,0.083333333,1,0,0,response1disk,17,0.00462963,0.008333333,1,0,0,center_square,0,16,16,32,1,,,,,,,,,,,,,,,,,,,,,,,
661414,001,2022-11-20_23h57.33.458,Info_measure_main_exp,2022.2.2,Win32,74.96251874,,,,,,,,,,,,,,,,,,masks/mask_002.jpg,,,,,,,,,,,,,,,,,,,,,,,,,,,,,,,,,,,,,,,,,,,0,0,0,1,1,,,,,,,,,,,,,,,,,,,,,,,,,,,,,,,,,,,,,,,,,,,,,,
661414,001,2022-11-20_23h57.33.458,Info_measure_main_exp,2022.2.2,Win32,74.96251874,,,,,,,,,,,,,,,,,,masks/mask_003.jpg,,,,,,,,,,,,,,,,,,,,,,,,,,,,,,,,,,,,,,,,,,,0,1,1,2,1,,,,,,,,,,,,,,,,,,,,,,,,,,,,,,,,,,,,,,,,,,,,,,
661414,001,2022-11-20_23h57.33.458,Info_measure_main_exp,2022.2.2,Win32,74.96251874,,,,,,,,,,,,,,,,,,masks/mask_005.jpg,,,,,,,,,,,,,,,,,,,,,,,,,,,,,,,,,,,,,,,,,,,0,2,2,4,1,,,,,,,,,,,,,,,,,,,,,,,,,,,,,,,,,,,,,,,,,,,,,,
661414,001,2022-11-20_23h57.33.458,Info_measure_main_exp,2022.2.2,Win32,74.96251874,,,,,,,,,,,,,,,,,,masks/mask_004.jpg,,,,,,,,,,,,,,,,,,,,,,,,,,,,,,,,,,,,,,,,,,,0,3,3,3,1,,,,,,,,,,,,,,,,,,,,,,,,,,,,,,,,,,,,,,,,,,,,,,
661414,001,2022-11-20_23h57.33.458,Info_measure_main_exp,2022.2.2,Win32,74.96251874,,,,,,,,,,,,,,,,,,masks/mask_001.jpg,,,,,,,,,,,,,,,,,,,,,,,,,,,,,,,,,,,,,,,,,,,0,4,4,0,1,,,,,,,,,,,,,,,,,,,,,,,,,,,,,,,,,,,,,,,,,,,,,,
661414,001,2022-11-20_23h57.33.458,Info_measure_main_exp,2022.2.2,Win32,74.96251874,,,,,,,,,,,,,,,,,,masks/mask_002.jpg,,,,,,,,,,,,,,,,,,,,,,,,,,,,,,,,,,,,,,,,,,,,,,,,0,0,0,1,1,,,,,,,,,,,,,,,,,,,,,,,,,,,,,,,,,,,,,,,,,
661414,001,2022-11-20_23h57.33.458,Info_measure_main_exp,2022.2.2,Win32,74.96251874,,,,,,,,,,,,,,,,,,masks/mask_005.jpg,,,,,,,,,,,,,,,,,,,,,,,,,,,,,,,,,,,,,,,,,,,,,,,,0,1,1,4,1,,,,,,,,,,,,,,,,,,,,,,,,,,,,,,,,,,,,,,,,,
661414,001,2022-11-20_23h57.33.458,Info_measure_main_exp,2022.2.2,Win32,74.96251874,,,,,,,,,,,,,,,,,,masks/mask_001.jpg,,,,,,,,,,,,,,,,,,,,,,,,,,,,,,,,,,,,,,,,,,,,,,,,0,2,2,0,1,,,,,,,,,,,,,,,,,,,,,,,,,,,,,,,,,,,,,,,,,
661414,001,2022-11-20_23h57.33.458,Info_measure_main_exp,2022.2.2,Win32,74.96251874,,,,,,,,,,,,,,,,,,masks/mask_004.jpg,,,,,,,,,,,,,,,,,,,,,,,,,,,,,,,,,,,,,,,,,,,,,,,,0,3,3,3,1,,,,,,,,,,,,,,,,,,,,,,,,,,,,,,,,,,,,,,,,,
661414,001,2022-11-20_23h57.33.458,Info_measure_main_exp,2022.2.2,Win32,74.96251874,,,,,,,,,,,,,,,,,,masks/mask_003.jpg,,,,,,,,,,,,,,,,,,,,,,,,,,,,,,,,,,,,,,,,,,,,,,,,0,4,4,2,1,,,,,,,,,,,,,,,,,,,,,,,,,,,,,,,,,,,,,,,,,
661414,001,2022-11-20_23h57.33.458,Info_measure_main_exp,2022.2.2,Win32,74.96251874,,,,,,,,,,,,,,,,,,,,,,,,,,,,,,0,0.559,1,,,,,,,,,,,,0,131,5,5,2214,2214,absent_patch/patch0002214.jpg,absent_patch/patch0002214.jpg,,,,,,,,,,,,,,,,,,,,-0.037037037,0.10462963,1,0,0,response7disk,18,0.002777778,-0.001851852,1,0,0,center_square,0,17,17,115,1,,,,,,,,,,,,,,,,,,,,,,,
661414,001,2022-11-20_23h57.33.458,Info_measure_main_exp,2022.2.2,Win32,74.96251874,,,,,,,,,,,,,,,,,,masks/mask_001.jpg,,,,,,,,,,,,,,,,,,,,,,,,,,,,,,,,,,,,,,,,,,,0,0,0,0,1,,,,,,,,,,,,,,,,,,,,,,,,,,,,,,,,,,,,,,,,,,,,,,
661414,001,2022-11-20_23h57.33.458,Info_measure_main_exp,2022.2.2,Win32,74.96251874,,,,,,,,,,,,,,,,,,masks/mask_005.jpg,,,,,,,,,,,,,,,,,,,,,,,,,,,,,,,,,,,,,,,,,,,0,1,1,4,1,,,,,,,,,,,,,,,,,,,,,,,,,,,,,,,,,,,,,,,,,,,,,,
661414,001,2022-11-20_23h57.33.458,Info_measure_main_exp,2022.2.2,Win32,74.96251874,,,,,,,,,,,,,,,,,,masks/mask_004.jpg,,,,,,,,,,,,,,,,,,,,,,,,,,,,,,,,,,,,,,,,,,,0,2,2,3,1,,,,,,,,,,,,,,,,,,,,,,,,,,,,,,,,,,,,,,,,,,,,,,
661414,001,2022-11-20_23h57.33.458,Info_measure_main_exp,2022.2.2,Win32,74.96251874,,,,,,,,,,,,,,,,,,masks/mask_003.jpg,,,,,,,,,,,,,,,,,,,,,,,,,,,,,,,,,,,,,,,,,,,0,3,3,2,1,,,,,,,,,,,,,,,,,,,,,,,,,,,,,,,,,,,,,,,,,,,,,,
661414,001,2022-11-20_23h57.33.458,Info_measure_main_exp,2022.2.2,Win32,74.96251874,,,,,,,,,,,,,,,,,,masks/mask_002.jpg,,,,,,,,,,,,,,,,,,,,,,,,,,,,,,,,,,,,,,,,,,,0,4,4,1,1,,,,,,,,,,,,,,,,,,,,,,,,,,,,,,,,,,,,,,,,,,,,,,
661414,001,2022-11-20_23h57.33.458,Info_measure_main_exp,2022.2.2,Win32,74.96251874,,,,,,,,,,,,,,,,,,masks/mask_001.jpg,,,,,,,,,,,,,,,,,,,,,,,,,,,,,,,,,,,,,,,,,,,,,,,,0,0,0,0,1,,,,,,,,,,,,,,,,,,,,,,,,,,,,,,,,,,,,,,,,,
661414,001,2022-11-20_23h57.33.458,Info_measure_main_exp,2022.2.2,Win32,74.96251874,,,,,,,,,,,,,,,,,,masks/mask_004.jpg,,,,,,,,,,,,,,,,,,,,,,,,,,,,,,,,,,,,,,,,,,,,,,,,0,1,1,3,1,,,,,,,,,,,,,,,,,,,,,,,,,,,,,,,,,,,,,,,,,
661414,001,2022-11-20_23h57.33.458,Info_measure_main_exp,2022.2.2,Win32,74.96251874,,,,,,,,,,,,,,,,,,masks/mask_002.jpg,,,,,,,,,,,,,,,,,,,,,,,,,,,,,,,,,,,,,,,,,,,,,,,,0,2,2,1,1,,,,,,,,,,,,,,,,,,,,,,,,,,,,,,,,,,,,,,,,,
661414,001,2022-11-20_23h57.33.458,Info_measure_main_exp,2022.2.2,Win32,74.96251874,,,,,,,,,,,,,,,,,,masks/mask_005.jpg,,,,,,,,,,,,,,,,,,,,,,,,,,,,,,,,,,,,,,,,,,,,,,,,0,3,3,4,1,,,,,,,,,,,,,,,,,,,,,,,,,,,,,,,,,,,,,,,,,
661414,001,2022-11-20_23h57.33.458,Info_measure_main_exp,2022.2.2,Win32,74.96251874,,,,,,,,,,,,,,,,,,masks/mask_003.jpg,,,,,,,,,,,,,,,,,,,,,,,,,,,,,,,,,,,,,,,,,,,,,,,,0,4,4,2,1,,,,,,,,,,,,,,,,,,,,,,,,,,,,,,,,,,,,,,,,,
661414,001,2022-11-20_23h57.33.458,Info_measure_main_exp,2022.2.2,Win32,74.96251874,,,,,,,,,,,,,,,,,,,,,,,,,,,,,,6,1.948,1,,,,,,,,,,,,0,131,5,5,2082,2166,absent_patch/patch0002082.jpg,absent_patch/patch0002166.jpg,,,,,,,,,,,,,,,,,,,,0.148148148,0.024074074,1,0,0,response1disk,19,0.014814815,-0.002777778,1,0,0,center_square,0,18,18,43,1,,,,,,,,,,,,,,,,,,,,,,,
661414,001,2022-11-20_23h57.33.458,Info_measure_main_exp,2022.2.2,Win32,74.96251874,,,,,,,,,,,,,,,,,,masks/mask_002.jpg,,,,,,,,,,,,,,,,,,,,,,,,,,,,,,,,,,,,,,,,,,,0,0,0,1,1,,,,,,,,,,,,,,,,,,,,,,,,,,,,,,,,,,,,,,,,,,,,,,
661414,001,2022-11-20_23h57.33.458,Info_measure_main_exp,2022.2.2,Win32,74.96251874,,,,,,,,,,,,,,,,,,masks/mask_003.jpg,,,,,,,,,,,,,,,,,,,,,,,,,,,,,,,,,,,,,,,,,,,0,1,1,2,1,,,,,,,,,,,,,,,,,,,,,,,,,,,,,,,,,,,,,,,,,,,,,,
661414,001,2022-11-20_23h57.33.458,Info_measure_main_exp,2022.2.2,Win32,74.96251874,,,,,,,,,,,,,,,,,,masks/mask_005.jpg,,,,,,,,,,,,,,,,,,,,,,,,,,,,,,,,,,,,,,,,,,,0,2,2,4,1,,,,,,,,,,,,,,,,,,,,,,,,,,,,,,,,,,,,,,,,,,,,,,
661414,001,2022-11-20_23h57.33.458,Info_measure_main_exp,2022.2.2,Win32,74.96251874,,,,,,,,,,,,,,,,,,masks/mask_004.jpg,,,,,,,,,,,,,,,,,,,,,,,,,,,,,,,,,,,,,,,,,,,0,3,3,3,1,,,,,,,,,,,,,,,,,,,,,,,,,,,,,,,,,,,,,,,,,,,,,,
661414,001,2022-11-20_23h57.33.458,Info_measure_main_exp,2022.2.2,Win32,74.96251874,,,,,,,,,,,,,,,,,,masks/mask_001.jpg,,,,,,,,,,,,,,,,,,,,,,,,,,,,,,,,,,,,,,,,,,,0,4,4,0,1,,,,,,,,,,,,,,,,,,,,,,,,,,,,,,,,,,,,,,,,,,,,,,
661414,001,2022-11-20_23h57.33.458,Info_measure_main_exp,2022.2.2,Win32,74.96251874,,,,,,,,,,,,,,,,,,masks/mask_002.jpg,,,,,,,,,,,,,,,,,,,,,,,,,,,,,,,,,,,,,,,,,,,,,,,,0,0,0,1,1,,,,,,,,,,,,,,,,,,,,,,,,,,,,,,,,,,,,,,,,,
661414,001,2022-11-20_23h57.33.458,Info_measure_main_exp,2022.2.2,Win32,74.96251874,,,,,,,,,,,,,,,,,,masks/mask_004.jpg,,,,,,,,,,,,,,,,,,,,,,,,,,,,,,,,,,,,,,,,,,,,,,,,0,1,1,3,1,,,,,,,,,,,,,,,,,,,,,,,,,,,,,,,,,,,,,,,,,
661414,001,2022-11-20_23h57.33.458,Info_measure_main_exp,2022.2.2,Win32,74.96251874,,,,,,,,,,,,,,,,,,masks/mask_001.jpg,,,,,,,,,,,,,,,,,,,,,,,,,,,,,,,,,,,,,,,,,,,,,,,,0,2,2,0,1,,,,,,,,,,,,,,,,,,,,,,,,,,,,,,,,,,,,,,,,,
661414,001,2022-11-20_23h57.33.458,Info_measure_main_exp,2022.2.2,Win32,74.96251874,,,,,,,,,,,,,,,,,,masks/mask_003.jpg,,,,,,,,,,,,,,,,,,,,,,,,,,,,,,,,,,,,,,,,,,,,,,,,0,3,3,2,1,,,,,,,,,,,,,,,,,,,,,,,,,,,,,,,,,,,,,,,,,
661414,001,2022-11-20_23h57.33.458,Info_measure_main_exp,2022.2.2,Win32,74.96251874,,,,,,,,,,,,,,,,,,masks/mask_005.jpg,,,,,,,,,,,,,,,,,,,,,,,,,,,,,,,,,,,,,,,,,,,,,,,,0,4,4,4,1,,,,,,,,,,,,,,,,,,,,,,,,,,,,,,,,,,,,,,,,,
661414,001,2022-11-20_23h57.33.458,Info_measure_main_exp,2022.2.2,Win32,74.96251874,,,,,,,,,,,,,,,,,,,,,,,,,,,,,,4,1.533,1,,,,,,,,,,,,0,131,5,5,2250,1950,absent_patch/patch0002250.jpg,absent_patch/patch0001950.jpg,,,,,,,,,,,,,,,,,,,,0.042592593,-0.138888889,1,0,0,response3disk,20,-0.009259259,-0.009259259,1,0,0,center_square,0,19,19,16,1,,,,,,,,,,,,,,,,,,,,,,,
661414,001,2022-11-20_23h57.33.458,Info_measure_main_exp,2022.2.2,Win32,74.96251874,,,,,,,,,,,,,,,,,,masks/mask_004.jpg,,,,,,,,,,,,,,,,,,,,,,,,,,,,,,,,,,,,,,,,,,,0,0,0,3,1,,,,,,,,,,,,,,,,,,,,,,,,,,,,,,,,,,,,,,,,,,,,,,
661414,001,2022-11-20_23h57.33.458,Info_measure_main_exp,2022.2.2,Win32,74.96251874,,,,,,,,,,,,,,,,,,masks/mask_001.jpg,,,,,,,,,,,,,,,,,,,,,,,,,,,,,,,,,,,,,,,,,,,0,1,1,0,1,,,,,,,,,,,,,,,,,,,,,,,,,,,,,,,,,,,,,,,,,,,,,,
661414,001,2022-11-20_23h57.33.458,Info_measure_main_exp,2022.2.2,Win32,74.96251874,,,,,,,,,,,,,,,,,,masks/mask_003.jpg,,,,,,,,,,,,,,,,,,,,,,,,,,,,,,,,,,,,,,,,,,,0,2,2,2,1,,,,,,,,,,,,,,,,,,,,,,,,,,,,,,,,,,,,,,,,,,,,,,
661414,001,2022-11-20_23h57.33.458,Info_measure_main_exp,2022.2.2,Win32,74.96251874,,,,,,,,,,,,,,,,,,masks/mask_005.jpg,,,,,,,,,,,,,,,,,,,,,,,,,,,,,,,,,,,,,,,,,,,0,3,3,4,1,,,,,,,,,,,,,,,,,,,,,,,,,,,,,,,,,,,,,,,,,,,,,,
661414,001,2022-11-20_23h57.33.458,Info_measure_main_exp,2022.2.2,Win32,74.96251874,,,,,,,,,,,,,,,,,,masks/mask_002.jpg,,,,,,,,,,,,,,,,,,,,,,,,,,,,,,,,,,,,,,,,,,,0,4,4,1,1,,,,,,,,,,,,,,,,,,,,,,,,,,,,,,,,,,,,,,,,,,,,,,
661414,001,2022-11-20_23h57.33.458,Info_measure_main_exp,2022.2.2,Win32,74.96251874,,,,,,,,,,,,,,,,,,masks/mask_004.jpg,,,,,,,,,,,,,,,,,,,,,,,,,,,,,,,,,,,,,,,,,,,,,,,,0,0,0,3,1,,,,,,,,,,,,,,,,,,,,,,,,,,,,,,,,,,,,,,,,,
661414,001,2022-11-20_23h57.33.458,Info_measure_main_exp,2022.2.2,Win32,74.96251874,,,,,,,,,,,,,,,,,,masks/mask_002.jpg,,,,,,,,,,,,,,,,,,,,,,,,,,,,,,,,,,,,,,,,,,,,,,,,0,1,1,1,1,,,,,,,,,,,,,,,,,,,,,,,,,,,,,,,,,,,,,,,,,
661414,001,2022-11-20_23h57.33.458,Info_measure_main_exp,2022.2.2,Win32,74.96251874,,,,,,,,,,,,,,,,,,masks/mask_005.jpg,,,,,,,,,,,,,,,,,,,,,,,,,,,,,,,,,,,,,,,,,,,,,,,,0,2,2,4,1,,,,,,,,,,,,,,,,,,,,,,,,,,,,,,,,,,,,,,,,,
661414,001,2022-11-20_23h57.33.458,Info_measure_main_exp,2022.2.2,Win32,74.96251874,,,,,,,,,,,,,,,,,,masks/mask_001.jpg,,,,,,,,,,,,,,,,,,,,,,,,,,,,,,,,,,,,,,,,,,,,,,,,0,3,3,0,1,,,,,,,,,,,,,,,,,,,,,,,,,,,,,,,,,,,,,,,,,
661414,001,2022-11-20_23h57.33.458,Info_measure_main_exp,2022.2.2,Win32,74.96251874,,,,,,,,,,,,,,,,,,masks/mask_003.jpg,,,,,,,,,,,,,,,,,,,,,,,,,,,,,,,,,,,,,,,,,,,,,,,,0,4,4,2,1,,,,,,,,,,,,,,,,,,,,,,,,,,,,,,,,,,,,,,,,,
661414,001,2022-11-20_23h57.33.458,Info_measure_main_exp,2022.2.2,Win32,74.96251874,,,,,,,,,,,,,,,,,,,,,,,,,,,,,,7,0.734,1,,,,,,,,,,,,0,131,5,5,2214,1986,absent_patch/patch0002214.jpg,absent_patch/patch0001986.jpg,,,,,,,,,,,,,,,,,,,,0.051851852,0.090740741,1,0,0,response1disk,21,0.009259259,0.012037037,1,0,0,center_square,0,20,20,34,1,,,,,,,,,,,,,,,,,,,,,,,
661414,001,2022-11-20_23h57.33.458,Info_measure_main_exp,2022.2.2,Win32,74.96251874,,,,,,,,,,,,,,,,,,masks/mask_002.jpg,,,,,,,,,,,,,,,,,,,,,,,,,,,,,,,,,,,,,,,,,,,0,0,0,1,1,,,,,,,,,,,,,,,,,,,,,,,,,,,,,,,,,,,,,,,,,,,,,,
661414,001,2022-11-20_23h57.33.458,Info_measure_main_exp,2022.2.2,Win32,74.96251874,,,,,,,,,,,,,,,,,,masks/mask_003.jpg,,,,,,,,,,,,,,,,,,,,,,,,,,,,,,,,,,,,,,,,,,,0,1,1,2,1,,,,,,,,,,,,,,,,,,,,,,,,,,,,,,,,,,,,,,,,,,,,,,
661414,001,2022-11-20_23h57.33.458,Info_measure_main_exp,2022.2.2,Win32,74.96251874,,,,,,,,,,,,,,,,,,masks/mask_001.jpg,,,,,,,,,,,,,,,,,,,,,,,,,,,,,,,,,,,,,,,,,,,0,2,2,0,1,,,,,,,,,,,,,,,,,,,,,,,,,,,,,,,,,,,,,,,,,,,,,,
661414,001,2022-11-20_23h57.33.458,Info_measure_main_exp,2022.2.2,Win32,74.96251874,,,,,,,,,,,,,,,,,,masks/mask_004.jpg,,,,,,,,,,,,,,,,,,,,,,,,,,,,,,,,,,,,,,,,,,,0,3,3,3,1,,,,,,,,,,,,,,,,,,,,,,,,,,,,,,,,,,,,,,,,,,,,,,
661414,001,2022-11-20_23h57.33.458,Info_measure_main_exp,2022.2.2,Win32,74.96251874,,,,,,,,,,,,,,,,,,masks/mask_005.jpg,,,,,,,,,,,,,,,,,,,,,,,,,,,,,,,,,,,,,,,,,,,0,4,4,4,1,,,,,,,,,,,,,,,,,,,,,,,,,,,,,,,,,,,,,,,,,,,,,,
661414,001,2022-11-20_23h57.33.458,Info_measure_main_exp,2022.2.2,Win32,74.96251874,,,,,,,,,,,,,,,,,,masks/mask_001.jpg,,,,,,,,,,,,,,,,,,,,,,,,,,,,,,,,,,,,,,,,,,,,,,,,0,0,0,0,1,,,,,,,,,,,,,,,,,,,,,,,,,,,,,,,,,,,,,,,,,
661414,001,2022-11-20_23h57.33.458,Info_measure_main_exp,2022.2.2,Win32,74.96251874,,,,,,,,,,,,,,,,,,masks/mask_004.jpg,,,,,,,,,,,,,,,,,,,,,,,,,,,,,,,,,,,,,,,,,,,,,,,,0,1,1,3,1,,,,,,,,,,,,,,,,,,,,,,,,,,,,,,,,,,,,,,,,,
661414,001,2022-11-20_23h57.33.458,Info_measure_main_exp,2022.2.2,Win32,74.96251874,,,,,,,,,,,,,,,,,,masks/mask_002.jpg,,,,,,,,,,,,,,,,,,,,,,,,,,,,,,,,,,,,,,,,,,,,,,,,0,2,2,1,1,,,,,,,,,,,,,,,,,,,,,,,,,,,,,,,,,,,,,,,,,
661414,001,2022-11-20_23h57.33.458,Info_measure_main_exp,2022.2.2,Win32,74.96251874,,,,,,,,,,,,,,,,,,masks/mask_003.jpg,,,,,,,,,,,,,,,,,,,,,,,,,,,,,,,,,,,,,,,,,,,,,,,,0,3,3,2,1,,,,,,,,,,,,,,,,,,,,,,,,,,,,,,,,,,,,,,,,,
661414,001,2022-11-20_23h57.33.458,Info_measure_main_exp,2022.2.2,Win32,74.96251874,,,,,,,,,,,,,,,,,,masks/mask_005.jpg,,,,,,,,,,,,,,,,,,,,,,,,,,,,,,,,,,,,,,,,,,,,,,,,0,4,4,4,1,,,,,,,,,,,,,,,,,,,,,,,,,,,,,,,,,,,,,,,,,
661414,001,2022-11-20_23h57.33.458,Info_measure_main_exp,2022.2.2,Win32,74.96251874,,,,,,,,,,,,,,,,,,,,,,,,,,,,,,0,0.787,1,,,,,,,,,,,,0,131,5,5,2082,2082,absent_patch/patch0002082.jpg,absent_patch/patch0002082.jpg,,,,,,,,,,,,,,,,,,,,-0.008333333,0.111111111,1,0,0,response7disk,22,0.005555556,0.000925926,1,0,0,center_square,0,21,21,74,1,,,,,,,,,,,,,,,,,,,,,,,
661414,001,2022-11-20_23h57.33.458,Info_measure_main_exp,2022.2.2,Win32,74.96251874,,,,,,,,,,,,,,,,,,masks/mask_005.jpg,,,,,,,,,,,,,,,,,,,,,,,,,,,,,,,,,,,,,,,,,,,0,0,0,4,1,,,,,,,,,,,,,,,,,,,,,,,,,,,,,,,,,,,,,,,,,,,,,,
661414,001,2022-11-20_23h57.33.458,Info_measure_main_exp,2022.2.2,Win32,74.96251874,,,,,,,,,,,,,,,,,,masks/mask_004.jpg,,,,,,,,,,,,,,,,,,,,,,,,,,,,,,,,,,,,,,,,,,,0,1,1,3,1,,,,,,,,,,,,,,,,,,,,,,,,,,,,,,,,,,,,,,,,,,,,,,
661414,001,2022-11-20_23h57.33.458,Info_measure_main_exp,2022.2.2,Win32,74.96251874,,,,,,,,,,,,,,,,,,masks/mask_002.jpg,,,,,,,,,,,,,,,,,,,,,,,,,,,,,,,,,,,,,,,,,,,0,2,2,1,1,,,,,,,,,,,,,,,,,,,,,,,,,,,,,,,,,,,,,,,,,,,,,,
661414,001,2022-11-20_23h57.33.458,Info_measure_main_exp,2022.2.2,Win32,74.96251874,,,,,,,,,,,,,,,,,,masks/mask_001.jpg,,,,,,,,,,,,,,,,,,,,,,,,,,,,,,,,,,,,,,,,,,,0,3,3,0,1,,,,,,,,,,,,,,,,,,,,,,,,,,,,,,,,,,,,,,,,,,,,,,
661414,001,2022-11-20_23h57.33.458,Info_measure_main_exp,2022.2.2,Win32,74.96251874,,,,,,,,,,,,,,,,,,masks/mask_003.jpg,,,,,,,,,,,,,,,,,,,,,,,,,,,,,,,,,,,,,,,,,,,0,4,4,2,1,,,,,,,,,,,,,,,,,,,,,,,,,,,,,,,,,,,,,,,,,,,,,,
661414,001,2022-11-20_23h57.33.458,Info_measure_main_exp,2022.2.2,Win32,74.96251874,,,,,,,,,,,,,,,,,,masks/mask_005.jpg,,,,,,,,,,,,,,,,,,,,,,,,,,,,,,,,,,,,,,,,,,,,,,,,0,0,0,4,1,,,,,,,,,,,,,,,,,,,,,,,,,,,,,,,,,,,,,,,,,
661414,001,2022-11-20_23h57.33.458,Info_measure_main_exp,2022.2.2,Win32,74.96251874,,,,,,,,,,,,,,,,,,masks/mask_004.jpg,,,,,,,,,,,,,,,,,,,,,,,,,,,,,,,,,,,,,,,,,,,,,,,,0,1,1,3,1,,,,,,,,,,,,,,,,,,,,,,,,,,,,,,,,,,,,,,,,,
661414,001,2022-11-20_23h57.33.458,Info_measure_main_exp,2022.2.2,Win32,74.96251874,,,,,,,,,,,,,,,,,,masks/mask_003.jpg,,,,,,,,,,,,,,,,,,,,,,,,,,,,,,,,,,,,,,,,,,,,,,,,0,2,2,2,1,,,,,,,,,,,,,,,,,,,,,,,,,,,,,,,,,,,,,,,,,
661414,001,2022-11-20_23h57.33.458,Info_measure_main_exp,2022.2.2,Win32,74.96251874,,,,,,,,,,,,,,,,,,masks/mask_002.jpg,,,,,,,,,,,,,,,,,,,,,,,,,,,,,,,,,,,,,,,,,,,,,,,,0,3,3,1,1,,,,,,,,,,,,,,,,,,,,,,,,,,,,,,,,,,,,,,,,,
661414,001,2022-11-20_23h57.33.458,Info_measure_main_exp,2022.2.2,Win32,74.96251874,,,,,,,,,,,,,,,,,,masks/mask_001.jpg,,,,,,,,,,,,,,,,,,,,,,,,,,,,,,,,,,,,,,,,,,,,,,,,0,4,4,0,1,,,,,,,,,,,,,,,,,,,,,,,,,,,,,,,,,,,,,,,,,
661414,001,2022-11-20_23h57.33.458,Info_measure_main_exp,2022.2.2,Win32,74.96251874,,,,,,,,,,,,,,,,,,,,,,,,,,,,,,4,0.68,1,,,,,,,,,,,,0,131,5,5,2274,2250,absent_patch/patch0002274.jpg,absent_patch/patch0002250.jpg,,,,,,,,,,,,,,,,,,,,0.102777778,-0.121296296,1,0,0,response3disk,23,0.011111111,-0.012962963,1,0,0,center_square,0,22,22,28,1,,,,,,,,,,,,,,,,,,,,,,,
661414,001,2022-11-20_23h57.33.458,Info_measure_main_exp,2022.2.2,Win32,74.96251874,,,,,,,,,,,,,,,,,,masks/mask_005.jpg,,,,,,,,,,,,,,,,,,,,,,,,,,,,,,,,,,,,,,,,,,,0,0,0,4,1,,,,,,,,,,,,,,,,,,,,,,,,,,,,,,,,,,,,,,,,,,,,,,
661414,001,2022-11-20_23h57.33.458,Info_measure_main_exp,2022.2.2,Win32,74.96251874,,,,,,,,,,,,,,,,,,masks/mask_004.jpg,,,,,,,,,,,,,,,,,,,,,,,,,,,,,,,,,,,,,,,,,,,0,1,1,3,1,,,,,,,,,,,,,,,,,,,,,,,,,,,,,,,,,,,,,,,,,,,,,,
661414,001,2022-11-20_23h57.33.458,Info_measure_main_exp,2022.2.2,Win32,74.96251874,,,,,,,,,,,,,,,,,,masks/mask_001.jpg,,,,,,,,,,,,,,,,,,,,,,,,,,,,,,,,,,,,,,,,,,,0,2,2,0,1,,,,,,,,,,,,,,,,,,,,,,,,,,,,,,,,,,,,,,,,,,,,,,
661414,001,2022-11-20_23h57.33.458,Info_measure_main_exp,2022.2.2,Win32,74.96251874,,,,,,,,,,,,,,,,,,masks/mask_002.jpg,,,,,,,,,,,,,,,,,,,,,,,,,,,,,,,,,,,,,,,,,,,0,3,3,1,1,,,,,,,,,,,,,,,,,,,,,,,,,,,,,,,,,,,,,,,,,,,,,,
661414,001,2022-11-20_23h57.33.458,Info_measure_main_exp,2022.2.2,Win32,74.96251874,,,,,,,,,,,,,,,,,,masks/mask_003.jpg,,,,,,,,,,,,,,,,,,,,,,,,,,,,,,,,,,,,,,,,,,,0,4,4,2,1,,,,,,,,,,,,,,,,,,,,,,,,,,,,,,,,,,,,,,,,,,,,,,
661414,001,2022-11-20_23h57.33.458,Info_measure_main_exp,2022.2.2,Win32,74.96251874,,,,,,,,,,,,,,,,,,masks/mask_001.jpg,,,,,,,,,,,,,,,,,,,,,,,,,,,,,,,,,,,,,,,,,,,,,,,,0,0,0,0,1,,,,,,,,,,,,,,,,,,,,,,,,,,,,,,,,,,,,,,,,,
661414,001,2022-11-20_23h57.33.458,Info_measure_main_exp,2022.2.2,Win32,74.96251874,,,,,,,,,,,,,,,,,,masks/mask_005.jpg,,,,,,,,,,,,,,,,,,,,,,,,,,,,,,,,,,,,,,,,,,,,,,,,0,1,1,4,1,,,,,,,,,,,,,,,,,,,,,,,,,,,,,,,,,,,,,,,,,
661414,001,2022-11-20_23h57.33.458,Info_measure_main_exp,2022.2.2,Win32,74.96251874,,,,,,,,,,,,,,,,,,masks/mask_003.jpg,,,,,,,,,,,,,,,,,,,,,,,,,,,,,,,,,,,,,,,,,,,,,,,,0,2,2,2,1,,,,,,,,,,,,,,,,,,,,,,,,,,,,,,,,,,,,,,,,,
661414,001,2022-11-20_23h57.33.458,Info_measure_main_exp,2022.2.2,Win32,74.96251874,,,,,,,,,,,,,,,,,,masks/mask_004.jpg,,,,,,,,,,,,,,,,,,,,,,,,,,,,,,,,,,,,,,,,,,,,,,,,0,3,3,3,1,,,,,,,,,,,,,,,,,,,,,,,,,,,,,,,,,,,,,,,,,
661414,001,2022-11-20_23h57.33.458,Info_measure_main_exp,2022.2.2,Win32,74.96251874,,,,,,,,,,,,,,,,,,masks/mask_002.jpg,,,,,,,,,,,,,,,,,,,,,,,,,,,,,,,,,,,,,,,,,,,,,,,,0,4,4,1,1,,,,,,,,,,,,,,,,,,,,,,,,,,,,,,,,,,,,,,,,,
661414,001,2022-11-20_23h57.33.458,Info_measure_main_exp,2022.2.2,Win32,74.96251874,,,,,,,,,,,,,,,,,,,,,,,,,,,,,,2,1,1,,,,,,,,,,,,0,131,5,5,2214,2082,absent_patch/patch0002214.jpg,absent_patch/patch0002082.jpg,,,,,,,,,,,,,,,,,,,,-0.096296296,-0.032407407,1,0,0,response5disk,24,-0.012962963,-0.010185185,1,0,0,center_square,0,23,23,103,1,,,,,,,,,,,,,,,,,,,,,,,
661414,001,2022-11-20_23h57.33.458,Info_measure_main_exp,2022.2.2,Win32,74.96251874,,,,,,,,,,,,,,,,,,masks/mask_005.jpg,,,,,,,,,,,,,,,,,,,,,,,,,,,,,,,,,,,,,,,,,,,0,0,0,4,1,,,,,,,,,,,,,,,,,,,,,,,,,,,,,,,,,,,,,,,,,,,,,,
661414,001,2022-11-20_23h57.33.458,Info_measure_main_exp,2022.2.2,Win32,74.96251874,,,,,,,,,,,,,,,,,,masks/mask_001.jpg,,,,,,,,,,,,,,,,,,,,,,,,,,,,,,,,,,,,,,,,,,,0,1,1,0,1,,,,,,,,,,,,,,,,,,,,,,,,,,,,,,,,,,,,,,,,,,,,,,
661414,001,2022-11-20_23h57.33.458,Info_measure_main_exp,2022.2.2,Win32,74.96251874,,,,,,,,,,,,,,,,,,masks/mask_002.jpg,,,,,,,,,,,,,,,,,,,,,,,,,,,,,,,,,,,,,,,,,,,0,2,2,1,1,,,,,,,,,,,,,,,,,,,,,,,,,,,,,,,,,,,,,,,,,,,,,,
661414,001,2022-11-20_23h57.33.458,Info_measure_main_exp,2022.2.2,Win32,74.96251874,,,,,,,,,,,,,,,,,,masks/mask_003.jpg,,,,,,,,,,,,,,,,,,,,,,,,,,,,,,,,,,,,,,,,,,,0,3,3,2,1,,,,,,,,,,,,,,,,,,,,,,,,,,,,,,,,,,,,,,,,,,,,,,
661414,001,2022-11-20_23h57.33.458,Info_measure_main_exp,2022.2.2,Win32,74.96251874,,,,,,,,,,,,,,,,,,masks/mask_004.jpg,,,,,,,,,,,,,,,,,,,,,,,,,,,,,,,,,,,,,,,,,,,0,4,4,3,1,,,,,,,,,,,,,,,,,,,,,,,,,,,,,,,,,,,,,,,,,,,,,,
661414,001,2022-11-20_23h57.33.458,Info_measure_main_exp,2022.2.2,Win32,74.96251874,,,,,,,,,,,,,,,,,,masks/mask_003.jpg,,,,,,,,,,,,,,,,,,,,,,,,,,,,,,,,,,,,,,,,,,,,,,,,0,0,0,2,1,,,,,,,,,,,,,,,,,,,,,,,,,,,,,,,,,,,,,,,,,
661414,001,2022-11-20_23h57.33.458,Info_measure_main_exp,2022.2.2,Win32,74.96251874,,,,,,,,,,,,,,,,,,masks/mask_001.jpg,,,,,,,,,,,,,,,,,,,,,,,,,,,,,,,,,,,,,,,,,,,,,,,,0,1,1,0,1,,,,,,,,,,,,,,,,,,,,,,,,,,,,,,,,,,,,,,,,,
661414,001,2022-11-20_23h57.33.458,Info_measure_main_exp,2022.2.2,Win32,74.96251874,,,,,,,,,,,,,,,,,,masks/mask_004.jpg,,,,,,,,,,,,,,,,,,,,,,,,,,,,,,,,,,,,,,,,,,,,,,,,0,2,2,3,1,,,,,,,,,,,,,,,,,,,,,,,,,,,,,,,,,,,,,,,,,
661414,001,2022-11-20_23h57.33.458,Info_measure_main_exp,2022.2.2,Win32,74.96251874,,,,,,,,,,,,,,,,,,masks/mask_002.jpg,,,,,,,,,,,,,,,,,,,,,,,,,,,,,,,,,,,,,,,,,,,,,,,,0,3,3,1,1,,,,,,,,,,,,,,,,,,,,,,,,,,,,,,,,,,,,,,,,,
661414,001,2022-11-20_23h57.33.458,Info_measure_main_exp,2022.2.2,Win32,74.96251874,,,,,,,,,,,,,,,,,,masks/mask_005.jpg,,,,,,,,,,,,,,,,,,,,,,,,,,,,,,,,,,,,,,,,,,,,,,,,0,4,4,4,1,,,,,,,,,,,,,,,,,,,,,,,,,,,,,,,,,,,,,,,,,
661414,001,2022-11-20_23h57.33.458,Info_measure_main_exp,2022.2.2,Win32,74.96251874,,,,,,,,,,,,,,,,,,,,,,,,,,,,,,7,0.787,1,,,,,,,,,,,,0,131,5,5,2250,2166,absent_patch/patch0002250.jpg,absent_patch/patch0002166.jpg,,,,,,,,,,,,,,,,,,,,0.075,0.125,1,0,0,response1disk,25,-0.001851852,-0.00462963,1,0,0,center_square,0,24,24,60,1,,,,,,,,,,,,,,,,,,,,,,,
661414,001,2022-11-20_23h57.33.458,Info_measure_main_exp,2022.2.2,Win32,74.96251874,,,,,,,,,,,,,,,,,,masks/mask_004.jpg,,,,,,,,,,,,,,,,,,,,,,,,,,,,,,,,,,,,,,,,,,,0,0,0,3,1,,,,,,,,,,,,,,,,,,,,,,,,,,,,,,,,,,,,,,,,,,,,,,
661414,001,2022-11-20_23h57.33.458,Info_measure_main_exp,2022.2.2,Win32,74.96251874,,,,,,,,,,,,,,,,,,masks/mask_001.jpg,,,,,,,,,,,,,,,,,,,,,,,,,,,,,,,,,,,,,,,,,,,0,1,1,0,1,,,,,,,,,,,,,,,,,,,,,,,,,,,,,,,,,,,,,,,,,,,,,,
661414,001,2022-11-20_23h57.33.458,Info_measure_main_exp,2022.2.2,Win32,74.96251874,,,,,,,,,,,,,,,,,,masks/mask_005.jpg,,,,,,,,,,,,,,,,,,,,,,,,,,,,,,,,,,,,,,,,,,,0,2,2,4,1,,,,,,,,,,,,,,,,,,,,,,,,,,,,,,,,,,,,,,,,,,,,,,
661414,001,2022-11-20_23h57.33.458,Info_measure_main_exp,2022.2.2,Win32,74.96251874,,,,,,,,,,,,,,,,,,masks/mask_003.jpg,,,,,,,,,,,,,,,,,,,,,,,,,,,,,,,,,,,,,,,,,,,0,3,3,2,1,,,,,,,,,,,,,,,,,,,,,,,,,,,,,,,,,,,,,,,,,,,,,,
661414,001,2022-11-20_23h57.33.458,Info_measure_main_exp,2022.2.2,Win32,74.96251874,,,,,,,,,,,,,,,,,,masks/mask_002.jpg,,,,,,,,,,,,,,,,,,,,,,,,,,,,,,,,,,,,,,,,,,,0,4,4,1,1,,,,,,,,,,,,,,,,,,,,,,,,,,,,,,,,,,,,,,,,,,,,,,
661414,001,2022-11-20_23h57.33.458,Info_measure_main_exp,2022.2.2,Win32,74.96251874,,,,,,,,,,,,,,,,,,masks/mask_004.jpg,,,,,,,,,,,,,,,,,,,,,,,,,,,,,,,,,,,,,,,,,,,,,,,,0,0,0,3,1,,,,,,,,,,,,,,,,,,,,,,,,,,,,,,,,,,,,,,,,,
661414,001,2022-11-20_23h57.33.458,Info_measure_main_exp,2022.2.2,Win32,74.96251874,,,,,,,,,,,,,,,,,,masks/mask_002.jpg,,,,,,,,,,,,,,,,,,,,,,,,,,,,,,,,,,,,,,,,,,,,,,,,0,1,1,1,1,,,,,,,,,,,,,,,,,,,,,,,,,,,,,,,,,,,,,,,,,
661414,001,2022-11-20_23h57.33.458,Info_measure_main_exp,2022.2.2,Win32,74.96251874,,,,,,,,,,,,,,,,,,masks/mask_003.jpg,,,,,,,,,,,,,,,,,,,,,,,,,,,,,,,,,,,,,,,,,,,,,,,,0,2,2,2,1,,,,,,,,,,,,,,,,,,,,,,,,,,,,,,,,,,,,,,,,,
661414,001,2022-11-20_23h57.33.458,Info_measure_main_exp,2022.2.2,Win32,74.96251874,,,,,,,,,,,,,,,,,,masks/mask_001.jpg,,,,,,,,,,,,,,,,,,,,,,,,,,,,,,,,,,,,,,,,,,,,,,,,0,3,3,0,1,,,,,,,,,,,,,,,,,,,,,,,,,,,,,,,,,,,,,,,,,
661414,001,2022-11-20_23h57.33.458,Info_measure_main_exp,2022.2.2,Win32,74.96251874,,,,,,,,,,,,,,,,,,masks/mask_005.jpg,,,,,,,,,,,,,,,,,,,,,,,,,,,,,,,,,,,,,,,,,,,,,,,,0,4,4,4,1,,,,,,,,,,,,,,,,,,,,,,,,,,,,,,,,,,,,,,,,,
661414,001,2022-11-20_23h57.33.458,Info_measure_main_exp,2022.2.2,Win32,74.96251874,,,,,,,,,,,,,,,,,,,,,,,,,,,,,,4,0.641,1,,,,,,,,,,,,0,131,5,5,1974,2178,absent_patch/patch0001974.jpg,absent_patch/patch0002178.jpg,,,,,,,,,,,,,,,,,,,,0.027777778,-0.100925926,1,0,0,response3disk,26,0.002777778,-0.008333333,1,0,0,center_square,0,25,25,44,1,,,,,,,,,,,,,,,,,,,,,,,
661414,001,2022-11-20_23h57.33.458,Info_measure_main_exp,2022.2.2,Win32,74.96251874,,,,,,,,,,,,,,,,,,masks/mask_003.jpg,,,,,,,,,,,,,,,,,,,,,,,,,,,,,,,,,,,,,,,,,,,0,0,0,2,1,,,,,,,,,,,,,,,,,,,,,,,,,,,,,,,,,,,,,,,,,,,,,,
661414,001,2022-11-20_23h57.33.458,Info_measure_main_exp,2022.2.2,Win32,74.96251874,,,,,,,,,,,,,,,,,,masks/mask_005.jpg,,,,,,,,,,,,,,,,,,,,,,,,,,,,,,,,,,,,,,,,,,,0,1,1,4,1,,,,,,,,,,,,,,,,,,,,,,,,,,,,,,,,,,,,,,,,,,,,,,
661414,001,2022-11-20_23h57.33.458,Info_measure_main_exp,2022.2.2,Win32,74.96251874,,,,,,,,,,,,,,,,,,masks/mask_001.jpg,,,,,,,,,,,,,,,,,,,,,,,,,,,,,,,,,,,,,,,,,,,0,2,2,0,1,,,,,,,,,,,,,,,,,,,,,,,,,,,,,,,,,,,,,,,,,,,,,,
661414,001,2022-11-20_23h57.33.458,Info_measure_main_exp,2022.2.2,Win32,74.96251874,,,,,,,,,,,,,,,,,,masks/mask_002.jpg,,,,,,,,,,,,,,,,,,,,,,,,,,,,,,,,,,,,,,,,,,,0,3,3,1,1,,,,,,,,,,,,,,,,,,,,,,,,,,,,,,,,,,,,,,,,,,,,,,
661414,001,2022-11-20_23h57.33.458,Info_measure_main_exp,2022.2.2,Win32,74.96251874,,,,,,,,,,,,,,,,,,masks/mask_004.jpg,,,,,,,,,,,,,,,,,,,,,,,,,,,,,,,,,,,,,,,,,,,0,4,4,3,1,,,,,,,,,,,,,,,,,,,,,,,,,,,,,,,,,,,,,,,,,,,,,,
661414,001,2022-11-20_23h57.33.458,Info_measure_main_exp,2022.2.2,Win32,74.96251874,,,,,,,,,,,,,,,,,,masks/mask_004.jpg,,,,,,,,,,,,,,,,,,,,,,,,,,,,,,,,,,,,,,,,,,,,,,,,0,0,0,3,1,,,,,,,,,,,,,,,,,,,,,,,,,,,,,,,,,,,,,,,,,
661414,001,2022-11-20_23h57.33.458,Info_measure_main_exp,2022.2.2,Win32,74.96251874,,,,,,,,,,,,,,,,,,masks/mask_001.jpg,,,,,,,,,,,,,,,,,,,,,,,,,,,,,,,,,,,,,,,,,,,,,,,,0,1,1,0,1,,,,,,,,,,,,,,,,,,,,,,,,,,,,,,,,,,,,,,,,,
661414,001,2022-11-20_23h57.33.458,Info_measure_main_exp,2022.2.2,Win32,74.96251874,,,,,,,,,,,,,,,,,,masks/mask_005.jpg,,,,,,,,,,,,,,,,,,,,,,,,,,,,,,,,,,,,,,,,,,,,,,,,0,2,2,4,1,,,,,,,,,,,,,,,,,,,,,,,,,,,,,,,,,,,,,,,,,
661414,001,2022-11-20_23h57.33.458,Info_measure_main_exp,2022.2.2,Win32,74.96251874,,,,,,,,,,,,,,,,,,masks/mask_003.jpg,,,,,,,,,,,,,,,,,,,,,,,,,,,,,,,,,,,,,,,,,,,,,,,,0,3,3,2,1,,,,,,,,,,,,,,,,,,,,,,,,,,,,,,,,,,,,,,,,,
661414,001,2022-11-20_23h57.33.458,Info_measure_main_exp,2022.2.2,Win32,74.96251874,,,,,,,,,,,,,,,,,,masks/mask_002.jpg,,,,,,,,,,,,,,,,,,,,,,,,,,,,,,,,,,,,,,,,,,,,,,,,0,4,4,1,1,,,,,,,,,,,,,,,,,,,,,,,,,,,,,,,,,,,,,,,,,
661414,001,2022-11-20_23h57.33.458,Info_measure_main_exp,2022.2.2,Win32,74.96251874,,,,,,,,,,,,,,,,,,,,,,,,,,,,,,7,0.721,1,,,,,,,,,,,,0,131,5,5,2178,2166,absent_patch/patch0002178.jpg,absent_patch/patch0002166.jpg,,,,,,,,,,,,,,,,,,,,0.072222222,0.140740741,1,0,0,response1disk,27,0.005555556,0.002777778,1,0,0,center_square,0,26,26,72,1,,,,,,,,,,,,,,,,,,,,,,,
661414,001,2022-11-20_23h57.33.458,Info_measure_main_exp,2022.2.2,Win32,74.96251874,,,,,,,,,,,,,,,,,,masks/mask_003.jpg,,,,,,,,,,,,,,,,,,,,,,,,,,,,,,,,,,,,,,,,,,,0,0,0,2,1,,,,,,,,,,,,,,,,,,,,,,,,,,,,,,,,,,,,,,,,,,,,,,
661414,001,2022-11-20_23h57.33.458,Info_measure_main_exp,2022.2.2,Win32,74.96251874,,,,,,,,,,,,,,,,,,masks/mask_001.jpg,,,,,,,,,,,,,,,,,,,,,,,,,,,,,,,,,,,,,,,,,,,0,1,1,0,1,,,,,,,,,,,,,,,,,,,,,,,,,,,,,,,,,,,,,,,,,,,,,,
661414,001,2022-11-20_23h57.33.458,Info_measure_main_exp,2022.2.2,Win32,74.96251874,,,,,,,,,,,,,,,,,,masks/mask_005.jpg,,,,,,,,,,,,,,,,,,,,,,,,,,,,,,,,,,,,,,,,,,,0,2,2,4,1,,,,,,,,,,,,,,,,,,,,,,,,,,,,,,,,,,,,,,,,,,,,,,
661414,001,2022-11-20_23h57.33.458,Info_measure_main_exp,2022.2.2,Win32,74.96251874,,,,,,,,,,,,,,,,,,masks/mask_004.jpg,,,,,,,,,,,,,,,,,,,,,,,,,,,,,,,,,,,,,,,,,,,0,3,3,3,1,,,,,,,,,,,,,,,,,,,,,,,,,,,,,,,,,,,,,,,,,,,,,,
661414,001,2022-11-20_23h57.33.458,Info_measure_main_exp,2022.2.2,Win32,74.96251874,,,,,,,,,,,,,,,,,,masks/mask_002.jpg,,,,,,,,,,,,,,,,,,,,,,,,,,,,,,,,,,,,,,,,,,,0,4,4,1,1,,,,,,,,,,,,,,,,,,,,,,,,,,,,,,,,,,,,,,,,,,,,,,
661414,001,2022-11-20_23h57.33.458,Info_measure_main_exp,2022.2.2,Win32,74.96251874,,,,,,,,,,,,,,,,,,masks/mask_004.jpg,,,,,,,,,,,,,,,,,,,,,,,,,,,,,,,,,,,,,,,,,,,,,,,,0,0,0,3,1,,,,,,,,,,,,,,,,,,,,,,,,,,,,,,,,,,,,,,,,,
661414,001,2022-11-20_23h57.33.458,Info_measure_main_exp,2022.2.2,Win32,74.96251874,,,,,,,,,,,,,,,,,,masks/mask_003.jpg,,,,,,,,,,,,,,,,,,,,,,,,,,,,,,,,,,,,,,,,,,,,,,,,0,1,1,2,1,,,,,,,,,,,,,,,,,,,,,,,,,,,,,,,,,,,,,,,,,
661414,001,2022-11-20_23h57.33.458,Info_measure_main_exp,2022.2.2,Win32,74.96251874,,,,,,,,,,,,,,,,,,masks/mask_002.jpg,,,,,,,,,,,,,,,,,,,,,,,,,,,,,,,,,,,,,,,,,,,,,,,,0,2,2,1,1,,,,,,,,,,,,,,,,,,,,,,,,,,,,,,,,,,,,,,,,,
661414,001,2022-11-20_23h57.33.458,Info_measure_main_exp,2022.2.2,Win32,74.96251874,,,,,,,,,,,,,,,,,,masks/mask_001.jpg,,,,,,,,,,,,,,,,,,,,,,,,,,,,,,,,,,,,,,,,,,,,,,,,0,3,3,0,1,,,,,,,,,,,,,,,,,,,,,,,,,,,,,,,,,,,,,,,,,
661414,001,2022-11-20_23h57.33.458,Info_measure_main_exp,2022.2.2,Win32,74.96251874,,,,,,,,,,,,,,,,,,masks/mask_005.jpg,,,,,,,,,,,,,,,,,,,,,,,,,,,,,,,,,,,,,,,,,,,,,,,,0,4,4,4,1,,,,,,,,,,,,,,,,,,,,,,,,,,,,,,,,,,,,,,,,,
661414,001,2022-11-20_23h57.33.458,Info_measure_main_exp,2022.2.2,Win32,74.96251874,,,,,,,,,,,,,,,,,,,,,,,,,,,,,,5,1.094,1,,,,,,,,,,,,0,131,5,5,2250,1986,absent_patch/patch0002250.jpg,absent_patch/patch0001986.jpg,,,,,,,,,,,,,,,,,,,,0.083333333,-0.022222222,1,0,0,response3disk,28,0.003703704,0.00462963,1,0,0,center_square,0,27,27,29,1,,,,,,,,,,,,,,,,,,,,,,,
661414,001,2022-11-20_23h57.33.458,Info_measure_main_exp,2022.2.2,Win32,74.96251874,,,,,,,,,,,,,,,,,,masks/mask_004.jpg,,,,,,,,,,,,,,,,,,,,,,,,,,,,,,,,,,,,,,,,,,,0,0,0,3,1,,,,,,,,,,,,,,,,,,,,,,,,,,,,,,,,,,,,,,,,,,,,,,
661414,001,2022-11-20_23h57.33.458,Info_measure_main_exp,2022.2.2,Win32,74.96251874,,,,,,,,,,,,,,,,,,masks/mask_005.jpg,,,,,,,,,,,,,,,,,,,,,,,,,,,,,,,,,,,,,,,,,,,0,1,1,4,1,,,,,,,,,,,,,,,,,,,,,,,,,,,,,,,,,,,,,,,,,,,,,,
661414,001,2022-11-20_23h57.33.458,Info_measure_main_exp,2022.2.2,Win32,74.96251874,,,,,,,,,,,,,,,,,,masks/mask_003.jpg,,,,,,,,,,,,,,,,,,,,,,,,,,,,,,,,,,,,,,,,,,,0,2,2,2,1,,,,,,,,,,,,,,,,,,,,,,,,,,,,,,,,,,,,,,,,,,,,,,
661414,001,2022-11-20_23h57.33.458,Info_measure_main_exp,2022.2.2,Win32,74.96251874,,,,,,,,,,,,,,,,,,masks/mask_001.jpg,,,,,,,,,,,,,,,,,,,,,,,,,,,,,,,,,,,,,,,,,,,0,3,3,0,1,,,,,,,,,,,,,,,,,,,,,,,,,,,,,,,,,,,,,,,,,,,,,,
661414,001,2022-11-20_23h57.33.458,Info_measure_main_exp,2022.2.2,Win32,74.96251874,,,,,,,,,,,,,,,,,,masks/mask_002.jpg,,,,,,,,,,,,,,,,,,,,,,,,,,,,,,,,,,,,,,,,,,,0,4,4,1,1,,,,,,,,,,,,,,,,,,,,,,,,,,,,,,,,,,,,,,,,,,,,,,
661414,001,2022-11-20_23h57.33.458,Info_measure_main_exp,2022.2.2,Win32,74.96251874,,,,,,,,,,,,,,,,,,masks/mask_002.jpg,,,,,,,,,,,,,,,,,,,,,,,,,,,,,,,,,,,,,,,,,,,,,,,,0,0,0,1,1,,,,,,,,,,,,,,,,,,,,,,,,,,,,,,,,,,,,,,,,,
661414,001,2022-11-20_23h57.33.458,Info_measure_main_exp,2022.2.2,Win32,74.96251874,,,,,,,,,,,,,,,,,,masks/mask_004.jpg,,,,,,,,,,,,,,,,,,,,,,,,,,,,,,,,,,,,,,,,,,,,,,,,0,1,1,3,1,,,,,,,,,,,,,,,,,,,,,,,,,,,,,,,,,,,,,,,,,
661414,001,2022-11-20_23h57.33.458,Info_measure_main_exp,2022.2.2,Win32,74.96251874,,,,,,,,,,,,,,,,,,masks/mask_003.jpg,,,,,,,,,,,,,,,,,,,,,,,,,,,,,,,,,,,,,,,,,,,,,,,,0,2,2,2,1,,,,,,,,,,,,,,,,,,,,,,,,,,,,,,,,,,,,,,,,,
661414,001,2022-11-20_23h57.33.458,Info_measure_main_exp,2022.2.2,Win32,74.96251874,,,,,,,,,,,,,,,,,,masks/mask_001.jpg,,,,,,,,,,,,,,,,,,,,,,,,,,,,,,,,,,,,,,,,,,,,,,,,0,3,3,0,1,,,,,,,,,,,,,,,,,,,,,,,,,,,,,,,,,,,,,,,,,
661414,001,2022-11-20_23h57.33.458,Info_measure_main_exp,2022.2.2,Win32,74.96251874,,,,,,,,,,,,,,,,,,masks/mask_005.jpg,,,,,,,,,,,,,,,,,,,,,,,,,,,,,,,,,,,,,,,,,,,,,,,,0,4,4,4,1,,,,,,,,,,,,,,,,,,,,,,,,,,,,,,,,,,,,,,,,,
661414,001,2022-11-20_23h57.33.458,Info_measure_main_exp,2022.2.2,Win32,74.96251874,,,,,,,,,,,,,,,,,,,,,,,,,,,,,,7,0.653,1,,,,,,,,,,,,0,131,5,5,2274,2190,absent_patch/patch0002274.jpg,absent_patch/patch0002190.jpg,,,,,,,,,,,,,,,,,,,,0.043518519,0.099074074,1,0,0,response1disk,29,0.001851852,0.005555556,1,0,0,center_square,0,28,28,116,1,,,,,,,,,,,,,,,,,,,,,,,
661414,001,2022-11-20_23h57.33.458,Info_measure_main_exp,2022.2.2,Win32,74.96251874,,,,,,,,,,,,,,,,,,masks/mask_005.jpg,,,,,,,,,,,,,,,,,,,,,,,,,,,,,,,,,,,,,,,,,,,0,0,0,4,1,,,,,,,,,,,,,,,,,,,,,,,,,,,,,,,,,,,,,,,,,,,,,,
661414,001,2022-11-20_23h57.33.458,Info_measure_main_exp,2022.2.2,Win32,74.96251874,,,,,,,,,,,,,,,,,,masks/mask_002.jpg,,,,,,,,,,,,,,,,,,,,,,,,,,,,,,,,,,,,,,,,,,,0,1,1,1,1,,,,,,,,,,,,,,,,,,,,,,,,,,,,,,,,,,,,,,,,,,,,,,
661414,001,2022-11-20_23h57.33.458,Info_measure_main_exp,2022.2.2,Win32,74.96251874,,,,,,,,,,,,,,,,,,masks/mask_003.jpg,,,,,,,,,,,,,,,,,,,,,,,,,,,,,,,,,,,,,,,,,,,0,2,2,2,1,,,,,,,,,,,,,,,,,,,,,,,,,,,,,,,,,,,,,,,,,,,,,,
661414,001,2022-11-20_23h57.33.458,Info_measure_main_exp,2022.2.2,Win32,74.96251874,,,,,,,,,,,,,,,,,,masks/mask_001.jpg,,,,,,,,,,,,,,,,,,,,,,,,,,,,,,,,,,,,,,,,,,,0,3,3,0,1,,,,,,,,,,,,,,,,,,,,,,,,,,,,,,,,,,,,,,,,,,,,,,
661414,001,2022-11-20_23h57.33.458,Info_measure_main_exp,2022.2.2,Win32,74.96251874,,,,,,,,,,,,,,,,,,masks/mask_004.jpg,,,,,,,,,,,,,,,,,,,,,,,,,,,,,,,,,,,,,,,,,,,0,4,4,3,1,,,,,,,,,,,,,,,,,,,,,,,,,,,,,,,,,,,,,,,,,,,,,,
661414,001,2022-11-20_23h57.33.458,Info_measure_main_exp,2022.2.2,Win32,74.96251874,,,,,,,,,,,,,,,,,,masks/mask_004.jpg,,,,,,,,,,,,,,,,,,,,,,,,,,,,,,,,,,,,,,,,,,,,,,,,0,0,0,3,1,,,,,,,,,,,,,,,,,,,,,,,,,,,,,,,,,,,,,,,,,
661414,001,2022-11-20_23h57.33.458,Info_measure_main_exp,2022.2.2,Win32,74.96251874,,,,,,,,,,,,,,,,,,masks/mask_002.jpg,,,,,,,,,,,,,,,,,,,,,,,,,,,,,,,,,,,,,,,,,,,,,,,,0,1,1,1,1,,,,,,,,,,,,,,,,,,,,,,,,,,,,,,,,,,,,,,,,,
661414,001,2022-11-20_23h57.33.458,Info_measure_main_exp,2022.2.2,Win32,74.96251874,,,,,,,,,,,,,,,,,,masks/mask_003.jpg,,,,,,,,,,,,,,,,,,,,,,,,,,,,,,,,,,,,,,,,,,,,,,,,0,2,2,2,1,,,,,,,,,,,,,,,,,,,,,,,,,,,,,,,,,,,,,,,,,
661414,001,2022-11-20_23h57.33.458,Info_measure_main_exp,2022.2.2,Win32,74.96251874,,,,,,,,,,,,,,,,,,masks/mask_001.jpg,,,,,,,,,,,,,,,,,,,,,,,,,,,,,,,,,,,,,,,,,,,,,,,,0,3,3,0,1,,,,,,,,,,,,,,,,,,,,,,,,,,,,,,,,,,,,,,,,,
661414,001,2022-11-20_23h57.33.458,Info_measure_main_exp,2022.2.2,Win32,74.96251874,,,,,,,,,,,,,,,,,,masks/mask_005.jpg,,,,,,,,,,,,,,,,,,,,,,,,,,,,,,,,,,,,,,,,,,,,,,,,0,4,4,4,1,,,,,,,,,,,,,,,,,,,,,,,,,,,,,,,,,,,,,,,,,
661414,001,2022-11-20_23h57.33.458,Info_measure_main_exp,2022.2.2,Win32,74.96251874,,,,,,,,,,,,,,,,,,,,,,,,,,,,,,7,0.56,1,,,,,,,,,,,,1,131,5,5,1,2214,present_patch/cong_131_5_a.jpg,absent_patch/patch0002214.jpg,,,,,,,,,,,,,,,,,,,,0.066666667,0.130555556,1,0,0,response1disk,30,0.00462963,-0.000925926,1,0,0,center_square,0,29,29,4,1,,,,,,,,,,,,,,,,,,,,,,,
661414,001,2022-11-20_23h57.33.458,Info_measure_main_exp,2022.2.2,Win32,74.96251874,,,,,,,,,,,,,,,,,,masks/mask_003.jpg,,,,,,,,,,,,,,,,,,,,,,,,,,,,,,,,,,,,,,,,,,,0,0,0,2,1,,,,,,,,,,,,,,,,,,,,,,,,,,,,,,,,,,,,,,,,,,,,,,
661414,001,2022-11-20_23h57.33.458,Info_measure_main_exp,2022.2.2,Win32,74.96251874,,,,,,,,,,,,,,,,,,masks/mask_005.jpg,,,,,,,,,,,,,,,,,,,,,,,,,,,,,,,,,,,,,,,,,,,0,1,1,4,1,,,,,,,,,,,,,,,,,,,,,,,,,,,,,,,,,,,,,,,,,,,,,,
661414,001,2022-11-20_23h57.33.458,Info_measure_main_exp,2022.2.2,Win32,74.96251874,,,,,,,,,,,,,,,,,,masks/mask_002.jpg,,,,,,,,,,,,,,,,,,,,,,,,,,,,,,,,,,,,,,,,,,,0,2,2,1,1,,,,,,,,,,,,,,,,,,,,,,,,,,,,,,,,,,,,,,,,,,,,,,
661414,001,2022-11-20_23h57.33.458,Info_measure_main_exp,2022.2.2,Win32,74.96251874,,,,,,,,,,,,,,,,,,masks/mask_001.jpg,,,,,,,,,,,,,,,,,,,,,,,,,,,,,,,,,,,,,,,,,,,0,3,3,0,1,,,,,,,,,,,,,,,,,,,,,,,,,,,,,,,,,,,,,,,,,,,,,,
661414,001,2022-11-20_23h57.33.458,Info_measure_main_exp,2022.2.2,Win32,74.96251874,,,,,,,,,,,,,,,,,,masks/mask_004.jpg,,,,,,,,,,,,,,,,,,,,,,,,,,,,,,,,,,,,,,,,,,,0,4,4,3,1,,,,,,,,,,,,,,,,,,,,,,,,,,,,,,,,,,,,,,,,,,,,,,
661414,001,2022-11-20_23h57.33.458,Info_measure_main_exp,2022.2.2,Win32,74.96251874,,,,,,,,,,,,,,,,,,masks/mask_001.jpg,,,,,,,,,,,,,,,,,,,,,,,,,,,,,,,,,,,,,,,,,,,,,,,,0,0,0,0,1,,,,,,,,,,,,,,,,,,,,,,,,,,,,,,,,,,,,,,,,,
661414,001,2022-11-20_23h57.33.458,Info_measure_main_exp,2022.2.2,Win32,74.96251874,,,,,,,,,,,,,,,,,,masks/mask_003.jpg,,,,,,,,,,,,,,,,,,,,,,,,,,,,,,,,,,,,,,,,,,,,,,,,0,1,1,2,1,,,,,,,,,,,,,,,,,,,,,,,,,,,,,,,,,,,,,,,,,
661414,001,2022-11-20_23h57.33.458,Info_measure_main_exp,2022.2.2,Win32,74.96251874,,,,,,,,,,,,,,,,,,masks/mask_004.jpg,,,,,,,,,,,,,,,,,,,,,,,,,,,,,,,,,,,,,,,,,,,,,,,,0,2,2,3,1,,,,,,,,,,,,,,,,,,,,,,,,,,,,,,,,,,,,,,,,,
661414,001,2022-11-20_23h57.33.458,Info_measure_main_exp,2022.2.2,Win32,74.96251874,,,,,,,,,,,,,,,,,,masks/mask_002.jpg,,,,,,,,,,,,,,,,,,,,,,,,,,,,,,,,,,,,,,,,,,,,,,,,0,3,3,1,1,,,,,,,,,,,,,,,,,,,,,,,,,,,,,,,,,,,,,,,,,
661414,001,2022-11-20_23h57.33.458,Info_measure_main_exp,2022.2.2,Win32,74.96251874,,,,,,,,,,,,,,,,,,masks/mask_005.jpg,,,,,,,,,,,,,,,,,,,,,,,,,,,,,,,,,,,,,,,,,,,,,,,,0,4,4,4,1,,,,,,,,,,,,,,,,,,,,,,,,,,,,,,,,,,,,,,,,,
661414,001,2022-11-20_23h57.33.458,Info_measure_main_exp,2022.2.2,Win32,74.96251874,,,,,,,,,,,,,,,,,,,,,,,,,,,,,,4,1.387,1,,,,,,,,,,,,0,131,5,5,2082,2250,absent_patch/patch0002082.jpg,absent_patch/patch0002250.jpg,,,,,,,,,,,,,,,,,,,,0.065740741,-0.105555556,1,0,0,response3disk,31,0.008333333,0,1,0,0,center_square,0,30,30,3,1,,,,,,,,,,,,,,,,,,,,,,,
661414,001,2022-11-20_23h57.33.458,Info_measure_main_exp,2022.2.2,Win32,74.96251874,,,,,,,,,,,,,,,,,,masks/mask_004.jpg,,,,,,,,,,,,,,,,,,,,,,,,,,,,,,,,,,,,,,,,,,,0,0,0,3,1,,,,,,,,,,,,,,,,,,,,,,,,,,,,,,,,,,,,,,,,,,,,,,
661414,001,2022-11-20_23h57.33.458,Info_measure_main_exp,2022.2.2,Win32,74.96251874,,,,,,,,,,,,,,,,,,masks/mask_003.jpg,,,,,,,,,,,,,,,,,,,,,,,,,,,,,,,,,,,,,,,,,,,0,1,1,2,1,,,,,,,,,,,,,,,,,,,,,,,,,,,,,,,,,,,,,,,,,,,,,,
661414,001,2022-11-20_23h57.33.458,Info_measure_main_exp,2022.2.2,Win32,74.96251874,,,,,,,,,,,,,,,,,,masks/mask_001.jpg,,,,,,,,,,,,,,,,,,,,,,,,,,,,,,,,,,,,,,,,,,,0,2,2,0,1,,,,,,,,,,,,,,,,,,,,,,,,,,,,,,,,,,,,,,,,,,,,,,
661414,001,2022-11-20_23h57.33.458,Info_measure_main_exp,2022.2.2,Win32,74.96251874,,,,,,,,,,,,,,,,,,masks/mask_002.jpg,,,,,,,,,,,,,,,,,,,,,,,,,,,,,,,,,,,,,,,,,,,0,3,3,1,1,,,,,,,,,,,,,,,,,,,,,,,,,,,,,,,,,,,,,,,,,,,,,,
661414,001,2022-11-20_23h57.33.458,Info_measure_main_exp,2022.2.2,Win32,74.96251874,,,,,,,,,,,,,,,,,,masks/mask_005.jpg,,,,,,,,,,,,,,,,,,,,,,,,,,,,,,,,,,,,,,,,,,,0,4,4,4,1,,,,,,,,,,,,,,,,,,,,,,,,,,,,,,,,,,,,,,,,,,,,,,
661414,001,2022-11-20_23h57.33.458,Info_measure_main_exp,2022.2.2,Win32,74.96251874,,,,,,,,,,,,,,,,,,masks/mask_002.jpg,,,,,,,,,,,,,,,,,,,,,,,,,,,,,,,,,,,,,,,,,,,,,,,,0,0,0,1,1,,,,,,,,,,,,,,,,,,,,,,,,,,,,,,,,,,,,,,,,,
661414,001,2022-11-20_23h57.33.458,Info_measure_main_exp,2022.2.2,Win32,74.96251874,,,,,,,,,,,,,,,,,,masks/mask_005.jpg,,,,,,,,,,,,,,,,,,,,,,,,,,,,,,,,,,,,,,,,,,,,,,,,0,1,1,4,1,,,,,,,,,,,,,,,,,,,,,,,,,,,,,,,,,,,,,,,,,
661414,001,2022-11-20_23h57.33.458,Info_measure_main_exp,2022.2.2,Win32,74.96251874,,,,,,,,,,,,,,,,,,masks/mask_003.jpg,,,,,,,,,,,,,,,,,,,,,,,,,,,,,,,,,,,,,,,,,,,,,,,,0,2,2,2,1,,,,,,,,,,,,,,,,,,,,,,,,,,,,,,,,,,,,,,,,,
661414,001,2022-11-20_23h57.33.458,Info_measure_main_exp,2022.2.2,Win32,74.96251874,,,,,,,,,,,,,,,,,,masks/mask_001.jpg,,,,,,,,,,,,,,,,,,,,,,,,,,,,,,,,,,,,,,,,,,,,,,,,0,3,3,0,1,,,,,,,,,,,,,,,,,,,,,,,,,,,,,,,,,,,,,,,,,
661414,001,2022-11-20_23h57.33.458,Info_measure_main_exp,2022.2.2,Win32,74.96251874,,,,,,,,,,,,,,,,,,masks/mask_004.jpg,,,,,,,,,,,,,,,,,,,,,,,,,,,,,,,,,,,,,,,,,,,,,,,,0,4,4,3,1,,,,,,,,,,,,,,,,,,,,,,,,,,,,,,,,,,,,,,,,,
661414,001,2022-11-20_23h57.33.458,Info_measure_main_exp,2022.2.2,Win32,74.96251874,,,,,,,,,,,,,,,,,,,,,,,,,,,,,,3,1.426,1,,,,,,,,,,,,0,131,5,5,2274,2142,absent_patch/patch0002274.jpg,absent_patch/patch0002142.jpg,,,,,,,,,,,,,,,,,,,,-0.087962963,-0.113888889,1,0,0,response5disk,32,0.00462963,0.000925926,1,0,0,center_square,0,31,31,75,1,,,,,,,,,,,,,,,,,,,,,,,
661414,001,2022-11-20_23h57.33.458,Info_measure_main_exp,2022.2.2,Win32,74.96251874,,,,,,,,,,,,,,,,,,masks/mask_004.jpg,,,,,,,,,,,,,,,,,,,,,,,,,,,,,,,,,,,,,,,,,,,0,0,0,3,1,,,,,,,,,,,,,,,,,,,,,,,,,,,,,,,,,,,,,,,,,,,,,,
661414,001,2022-11-20_23h57.33.458,Info_measure_main_exp,2022.2.2,Win32,74.96251874,,,,,,,,,,,,,,,,,,masks/mask_001.jpg,,,,,,,,,,,,,,,,,,,,,,,,,,,,,,,,,,,,,,,,,,,0,1,1,0,1,,,,,,,,,,,,,,,,,,,,,,,,,,,,,,,,,,,,,,,,,,,,,,
661414,001,2022-11-20_23h57.33.458,Info_measure_main_exp,2022.2.2,Win32,74.96251874,,,,,,,,,,,,,,,,,,masks/mask_002.jpg,,,,,,,,,,,,,,,,,,,,,,,,,,,,,,,,,,,,,,,,,,,0,2,2,1,1,,,,,,,,,,,,,,,,,,,,,,,,,,,,,,,,,,,,,,,,,,,,,,
661414,001,2022-11-20_23h57.33.458,Info_measure_main_exp,2022.2.2,Win32,74.96251874,,,,,,,,,,,,,,,,,,masks/mask_003.jpg,,,,,,,,,,,,,,,,,,,,,,,,,,,,,,,,,,,,,,,,,,,0,3,3,2,1,,,,,,,,,,,,,,,,,,,,,,,,,,,,,,,,,,,,,,,,,,,,,,
661414,001,2022-11-20_23h57.33.458,Info_measure_main_exp,2022.2.2,Win32,74.96251874,,,,,,,,,,,,,,,,,,masks/mask_005.jpg,,,,,,,,,,,,,,,,,,,,,,,,,,,,,,,,,,,,,,,,,,,0,4,4,4,1,,,,,,,,,,,,,,,,,,,,,,,,,,,,,,,,,,,,,,,,,,,,,,
661414,001,2022-11-20_23h57.33.458,Info_measure_main_exp,2022.2.2,Win32,74.96251874,,,,,,,,,,,,,,,,,,masks/mask_001.jpg,,,,,,,,,,,,,,,,,,,,,,,,,,,,,,,,,,,,,,,,,,,,,,,,0,0,0,0,1,,,,,,,,,,,,,,,,,,,,,,,,,,,,,,,,,,,,,,,,,
661414,001,2022-11-20_23h57.33.458,Info_measure_main_exp,2022.2.2,Win32,74.96251874,,,,,,,,,,,,,,,,,,masks/mask_003.jpg,,,,,,,,,,,,,,,,,,,,,,,,,,,,,,,,,,,,,,,,,,,,,,,,0,1,1,2,1,,,,,,,,,,,,,,,,,,,,,,,,,,,,,,,,,,,,,,,,,
661414,001,2022-11-20_23h57.33.458,Info_measure_main_exp,2022.2.2,Win32,74.96251874,,,,,,,,,,,,,,,,,,masks/mask_004.jpg,,,,,,,,,,,,,,,,,,,,,,,,,,,,,,,,,,,,,,,,,,,,,,,,0,2,2,3,1,,,,,,,,,,,,,,,,,,,,,,,,,,,,,,,,,,,,,,,,,
661414,001,2022-11-20_23h57.33.458,Info_measure_main_exp,2022.2.2,Win32,74.96251874,,,,,,,,,,,,,,,,,,masks/mask_005.jpg,,,,,,,,,,,,,,,,,,,,,,,,,,,,,,,,,,,,,,,,,,,,,,,,0,3,3,4,1,,,,,,,,,,,,,,,,,,,,,,,,,,,,,,,,,,,,,,,,,
661414,001,2022-11-20_23h57.33.458,Info_measure_main_exp,2022.2.2,Win32,74.96251874,,,,,,,,,,,,,,,,,,masks/mask_002.jpg,,,,,,,,,,,,,,,,,,,,,,,,,,,,,,,,,,,,,,,,,,,,,,,,0,4,4,1,1,,,,,,,,,,,,,,,,,,,,,,,,,,,,,,,,,,,,,,,,,
661414,001,2022-11-20_23h57.33.458,Info_measure_main_exp,2022.2.2,Win32,74.96251874,,,,,,,,,,,,,,,,,,,,,,,,,,,,,,5,1.159,1,,,,,,,,,,,,0,131,5,5,2214,2178,absent_patch/patch0002214.jpg,absent_patch/patch0002178.jpg,,,,,,,,,,,,,,,,,,,,0.044444444,-0.013888889,1,0,0,response3disk,33,0.005555556,-0.00462963,1,0,0,center_square,0,32,32,62,1,,,,,,,,,,,,,,,,,,,,,,,
661414,001,2022-11-20_23h57.33.458,Info_measure_main_exp,2022.2.2,Win32,74.96251874,,,,,,,,,,,,,,,,,,masks/mask_003.jpg,,,,,,,,,,,,,,,,,,,,,,,,,,,,,,,,,,,,,,,,,,,0,0,0,2,1,,,,,,,,,,,,,,,,,,,,,,,,,,,,,,,,,,,,,,,,,,,,,,
661414,001,2022-11-20_23h57.33.458,Info_measure_main_exp,2022.2.2,Win32,74.96251874,,,,,,,,,,,,,,,,,,masks/mask_005.jpg,,,,,,,,,,,,,,,,,,,,,,,,,,,,,,,,,,,,,,,,,,,0,1,1,4,1,,,,,,,,,,,,,,,,,,,,,,,,,,,,,,,,,,,,,,,,,,,,,,
661414,001,2022-11-20_23h57.33.458,Info_measure_main_exp,2022.2.2,Win32,74.96251874,,,,,,,,,,,,,,,,,,masks/mask_004.jpg,,,,,,,,,,,,,,,,,,,,,,,,,,,,,,,,,,,,,,,,,,,0,2,2,3,1,,,,,,,,,,,,,,,,,,,,,,,,,,,,,,,,,,,,,,,,,,,,,,
661414,001,2022-11-20_23h57.33.458,Info_measure_main_exp,2022.2.2,Win32,74.96251874,,,,,,,,,,,,,,,,,,masks/mask_001.jpg,,,,,,,,,,,,,,,,,,,,,,,,,,,,,,,,,,,,,,,,,,,0,3,3,0,1,,,,,,,,,,,,,,,,,,,,,,,,,,,,,,,,,,,,,,,,,,,,,,
661414,001,2022-11-20_23h57.33.458,Info_measure_main_exp,2022.2.2,Win32,74.96251874,,,,,,,,,,,,,,,,,,masks/mask_002.jpg,,,,,,,,,,,,,,,,,,,,,,,,,,,,,,,,,,,,,,,,,,,0,4,4,1,1,,,,,,,,,,,,,,,,,,,,,,,,,,,,,,,,,,,,,,,,,,,,,,
661414,001,2022-11-20_23h57.33.458,Info_measure_main_exp,2022.2.2,Win32,74.96251874,,,,,,,,,,,,,,,,,,masks/mask_003.jpg,,,,,,,,,,,,,,,,,,,,,,,,,,,,,,,,,,,,,,,,,,,,,,,,0,0,0,2,1,,,,,,,,,,,,,,,,,,,,,,,,,,,,,,,,,,,,,,,,,
661414,001,2022-11-20_23h57.33.458,Info_measure_main_exp,2022.2.2,Win32,74.96251874,,,,,,,,,,,,,,,,,,masks/mask_004.jpg,,,,,,,,,,,,,,,,,,,,,,,,,,,,,,,,,,,,,,,,,,,,,,,,0,1,1,3,1,,,,,,,,,,,,,,,,,,,,,,,,,,,,,,,,,,,,,,,,,
661414,001,2022-11-20_23h57.33.458,Info_measure_main_exp,2022.2.2,Win32,74.96251874,,,,,,,,,,,,,,,,,,masks/mask_005.jpg,,,,,,,,,,,,,,,,,,,,,,,,,,,,,,,,,,,,,,,,,,,,,,,,0,2,2,4,1,,,,,,,,,,,,,,,,,,,,,,,,,,,,,,,,,,,,,,,,,
661414,001,2022-11-20_23h57.33.458,Info_measure_main_exp,2022.2.2,Win32,74.96251874,,,,,,,,,,,,,,,,,,masks/mask_002.jpg,,,,,,,,,,,,,,,,,,,,,,,,,,,,,,,,,,,,,,,,,,,,,,,,0,3,3,1,1,,,,,,,,,,,,,,,,,,,,,,,,,,,,,,,,,,,,,,,,,
661414,001,2022-11-20_23h57.33.458,Info_measure_main_exp,2022.2.2,Win32,74.96251874,,,,,,,,,,,,,,,,,,masks/mask_001.jpg,,,,,,,,,,,,,,,,,,,,,,,,,,,,,,,,,,,,,,,,,,,,,,,,0,4,4,0,1,,,,,,,,,,,,,,,,,,,,,,,,,,,,,,,,,,,,,,,,,
661414,001,2022-11-20_23h57.33.458,Info_measure_main_exp,2022.2.2,Win32,74.96251874,,,,,,,,,,,,,,,,,,,,,,,,,,,,,,6,1.253,1,,,,,,,,,,,,0,131,5,5,2298,2190,absent_patch/patch0002298.jpg,absent_patch/patch0002190.jpg,,,,,,,,,,,,,,,,,,,,0.119444444,0.044444444,1,0,0,response1disk,34,0.007407407,0.00462963,1,0,0,center_square,0,33,33,20,1,,,,,,,,,,,,,,,,,,,,,,,
661414,001,2022-11-20_23h57.33.458,Info_measure_main_exp,2022.2.2,Win32,74.96251874,,,,,,,,,,,,,,,,,,masks/mask_004.jpg,,,,,,,,,,,,,,,,,,,,,,,,,,,,,,,,,,,,,,,,,,,0,0,0,3,1,,,,,,,,,,,,,,,,,,,,,,,,,,,,,,,,,,,,,,,,,,,,,,
661414,001,2022-11-20_23h57.33.458,Info_measure_main_exp,2022.2.2,Win32,74.96251874,,,,,,,,,,,,,,,,,,masks/mask_002.jpg,,,,,,,,,,,,,,,,,,,,,,,,,,,,,,,,,,,,,,,,,,,0,1,1,1,1,,,,,,,,,,,,,,,,,,,,,,,,,,,,,,,,,,,,,,,,,,,,,,
661414,001,2022-11-20_23h57.33.458,Info_measure_main_exp,2022.2.2,Win32,74.96251874,,,,,,,,,,,,,,,,,,masks/mask_001.jpg,,,,,,,,,,,,,,,,,,,,,,,,,,,,,,,,,,,,,,,,,,,0,2,2,0,1,,,,,,,,,,,,,,,,,,,,,,,,,,,,,,,,,,,,,,,,,,,,,,
661414,001,2022-11-20_23h57.33.458,Info_measure_main_exp,2022.2.2,Win32,74.96251874,,,,,,,,,,,,,,,,,,masks/mask_005.jpg,,,,,,,,,,,,,,,,,,,,,,,,,,,,,,,,,,,,,,,,,,,0,3,3,4,1,,,,,,,,,,,,,,,,,,,,,,,,,,,,,,,,,,,,,,,,,,,,,,
661414,001,2022-11-20_23h57.33.458,Info_measure_main_exp,2022.2.2,Win32,74.96251874,,,,,,,,,,,,,,,,,,masks/mask_003.jpg,,,,,,,,,,,,,,,,,,,,,,,,,,,,,,,,,,,,,,,,,,,0,4,4,2,1,,,,,,,,,,,,,,,,,,,,,,,,,,,,,,,,,,,,,,,,,,,,,,
661414,001,2022-11-20_23h57.33.458,Info_measure_main_exp,2022.2.2,Win32,74.96251874,,,,,,,,,,,,,,,,,,masks/mask_002.jpg,,,,,,,,,,,,,,,,,,,,,,,,,,,,,,,,,,,,,,,,,,,,,,,,0,0,0,1,1,,,,,,,,,,,,,,,,,,,,,,,,,,,,,,,,,,,,,,,,,
661414,001,2022-11-20_23h57.33.458,Info_measure_main_exp,2022.2.2,Win32,74.96251874,,,,,,,,,,,,,,,,,,masks/mask_001.jpg,,,,,,,,,,,,,,,,,,,,,,,,,,,,,,,,,,,,,,,,,,,,,,,,0,1,1,0,1,,,,,,,,,,,,,,,,,,,,,,,,,,,,,,,,,,,,,,,,,
661414,001,2022-11-20_23h57.33.458,Info_measure_main_exp,2022.2.2,Win32,74.96251874,,,,,,,,,,,,,,,,,,masks/mask_003.jpg,,,,,,,,,,,,,,,,,,,,,,,,,,,,,,,,,,,,,,,,,,,,,,,,0,2,2,2,1,,,,,,,,,,,,,,,,,,,,,,,,,,,,,,,,,,,,,,,,,
661414,001,2022-11-20_23h57.33.458,Info_measure_main_exp,2022.2.2,Win32,74.96251874,,,,,,,,,,,,,,,,,,masks/mask_004.jpg,,,,,,,,,,,,,,,,,,,,,,,,,,,,,,,,,,,,,,,,,,,,,,,,0,3,3,3,1,,,,,,,,,,,,,,,,,,,,,,,,,,,,,,,,,,,,,,,,,
