participant,session,date,expName,psychopyVersion,OS,frameRate,space_press_continue.keys,space_press_continue.rt,space_press_continue_2.keys,space_press_continue_2.rt,space_press_continue_3.keys,space_press_continue_3.rt,space_press_continue_4.keys,space_press_continue_4.rt,space_press_continue_5.keys,space_press_continue_5.rt,space_press_continue_6.keys,space_press_continue_6.rt,prac_mask_loop_1.thisRepN,prac_mask_loop_1.thisTrialN,prac_mask_loop_1.thisN,prac_mask_loop_1.thisIndex,prac_mask_loop_1.ran,mask_name,prac_mask_loop_2.thisRepN,prac_mask_loop_2.thisTrialN,prac_mask_loop_2.thisN,prac_mask_loop_2.thisIndex,prac_mask_loop_2.ran,mouse_2.x,mouse_2.y,mouse_2.leftButton,mouse_2.midButton,mouse_2.rightButton,mouse_2.clicked_name,similarity,response_time,Pass,mouse_12.x,mouse_12.y,mouse_12.leftButton,mouse_12.midButton,mouse_12.rightButton,mouse_12.clicked_name,prac_loop.thisRepN,prac_loop.thisTrialN,prac_loop.thisN,prac_loop.thisIndex,prac_loop.ran,Pair_type,Image_num,Patch_1_loc,Patch_2_loc,Patch_1_info,Patch_2_info,Patch_1_name,Patch_2_name,mouse_1.x,mouse_1.y,mouse_1.leftButton,mouse_1.midButton,mouse_1.rightButton,mouse_1.time,mouse_1.clicked_name,space_press_continue_7.keys,space_press_continue_7.rt,mask_loop.thisRepN,mask_loop.thisTrialN,mask_loop.thisN,mask_loop.thisIndex,mask_loop.ran,mask_loop_2.thisRepN,mask_loop_2.thisTrialN,mask_loop_2.thisN,mask_loop_2.thisIndex,mask_loop_2.ran,mouse.x,mouse.y,mouse.leftButton,mouse.midButton,mouse.rightButton,mouse.clicked_name,trialNumber,mouse_11.x,mouse_11.y,mouse_11.leftButton,mouse_11.midButton,mouse_11.rightButton,mouse_11.clicked_name,first_pass_loop.thisRepN,first_pass_loop.thisTrialN,first_pass_loop.thisN,first_pass_loop.thisIndex,first_pass_loop.ran,mask_loop_3.thisRepN,mask_loop_3.thisTrialN,mask_loop_3.thisN,mask_loop_3.thisIndex,mask_loop_3.ran,mask_loop_4.thisRepN,mask_loop_4.thisTrialN,mask_loop_4.thisN,mask_loop_4.thisIndex,mask_loop_4.ran,mouse_3.x,mouse_3.y,mouse_3.leftButton,mouse_3.midButton,mouse_3.rightButton,mouse_3.clicked_name,double_pass_loop.thisRepN,double_pass_loop.thisTrialN,double_pass_loop.thisN,double_pass_loop.thisIndex,double_pass_loop.ran,space_exit.keys,space_exit.rt
666628,001,2022-11-20_23h52.20.154,Info_measure_main_exp,2022.2.2,Win32,60.08893162,,,,,,,,,,,,,,,,,,,,,,,,,,,,,,,,,,,,,,,,,,,,,,,,,,,,,,,,,,,,,,,,,,,,,,,,,,,,,,,,,,,,,,,,,,,,,,,,,,,,,,,,,,,,,,,
666628,001,2022-11-20_23h52.20.154,Info_measure_main_exp,2022.2.2,Win32,60.08893162,,,,,,,,,,,,,,,,,,,,,,,,,,,,,,,,,,,,,,,,,,,,,,,,,,,,,,,,,,,,,,,,,,,,,,,,,,,,,,,,,,,,,,,,,,,,,,,,,,,,,,,,,,,,,,,
666628,001,2022-11-20_23h52.20.154,Info_measure_main_exp,2022.2.2,Win32,60.08893162,space,7.6987,,,,,,,,,,,,,,,,,,,,,,,,,,,,,,,,,,,,,,,,,,,,,,,,,,,,,,,,,,,,,,,,,,,,,,,,,,,,,,,,,,,,,,,,,,,,,,,,,,,,,,,,,,,,,
666628,001,2022-11-20_23h52.20.154,Info_measure_main_exp,2022.2.2,Win32,60.08893162,,,space,16.6076,,,,,,,,,,,,,,,,,,,,,,,,,,,,,,,,,,,,,,,,,,,,,,,,,,,,,,,,,,,,,,,,,,,,,,,,,,,,,,,,,,,,,,,,,,,,,,,,,,,,,,,,,,,
666628,001,2022-11-20_23h52.20.154,Info_measure_main_exp,2022.2.2,Win32,60.08893162,,,,,space,9.6305,,,,,,,,,,,,,,,,,,,,,,,,,,,,,,,,,,,,,,,,,,,,,,,,,,,,,,,,,,,,,,,,,,,,,,,,,,,,,,,,,,,,,,,,,,,,,,,,,,,,,,,,,
666628,001,2022-11-20_23h52.20.154,Info_measure_main_exp,2022.2.2,Win32,60.08893162,,,,,,,space,13.6655,,,,,,,,,,,,,,,,,,,,,,,,,,,,,,,,,,,,,,,,,,,,,,,,,,,,,,,,,,,,,,,,,,,,,,,,,,,,,,,,,,,,,,,,,,,,,,,,,,,,,,,
666628,001,2022-11-20_23h52.20.154,Info_measure_main_exp,2022.2.2,Win32,60.08893162,,,,,,,,,space,7.8688,,,,,,,,,,,,,,,,,,,,,,,,,,,,,,,,,,,,,,,,,,,,,,,,,,,,,,,,,,,,,,,,,,,,,,,,,,,,,,,,,,,,,,,,,,,,,,,,,,,,,
666628,001,2022-11-20_23h52.20.154,Info_measure_main_exp,2022.2.2,Win32,60.08893162,,,,,,,,,,,space,5.4915,,,,,,,,,,,,,,,,,,,,,,,,,,,,,,,,,,,,,,,,,,,,,,,,,,,,,,,,,,,,,,,,,,,,,,,,,,,,,,,,,,,,,,,,,,,,,,,,,,,
666628,001,2022-11-20_23h52.20.154,Info_measure_main_exp,2022.2.2,Win32,60.08893162,,,,,,,,,,,,,0,0,0,3,1,masks/mask_004.jpg,,,,,,,,,,,,,,,,,,,,,,,,,,,,,,,,,,,,,,,,,,,,,,,,,,,,,,,,,,,,,,,,,,,,,,,,,,,,,,,,,,,,,,,,,,,,,
666628,001,2022-11-20_23h52.20.154,Info_measure_main_exp,2022.2.2,Win32,60.08893162,,,,,,,,,,,,,0,1,1,0,1,masks/mask_001.jpg,,,,,,,,,,,,,,,,,,,,,,,,,,,,,,,,,,,,,,,,,,,,,,,,,,,,,,,,,,,,,,,,,,,,,,,,,,,,,,,,,,,,,,,,,,,,,
666628,001,2022-11-20_23h52.20.154,Info_measure_main_exp,2022.2.2,Win32,60.08893162,,,,,,,,,,,,,0,2,2,4,1,masks/mask_005.jpg,,,,,,,,,,,,,,,,,,,,,,,,,,,,,,,,,,,,,,,,,,,,,,,,,,,,,,,,,,,,,,,,,,,,,,,,,,,,,,,,,,,,,,,,,,,,,
666628,001,2022-11-20_23h52.20.154,Info_measure_main_exp,2022.2.2,Win32,60.08893162,,,,,,,,,,,,,0,3,3,2,1,masks/mask_003.jpg,,,,,,,,,,,,,,,,,,,,,,,,,,,,,,,,,,,,,,,,,,,,,,,,,,,,,,,,,,,,,,,,,,,,,,,,,,,,,,,,,,,,,,,,,,,,,
666628,001,2022-11-20_23h52.20.154,Info_measure_main_exp,2022.2.2,Win32,60.08893162,,,,,,,,,,,,,0,4,4,1,1,masks/mask_002.jpg,,,,,,,,,,,,,,,,,,,,,,,,,,,,,,,,,,,,,,,,,,,,,,,,,,,,,,,,,,,,,,,,,,,,,,,,,,,,,,,,,,,,,,,,,,,,,
666628,001,2022-11-20_23h52.20.154,Info_measure_main_exp,2022.2.2,Win32,60.08893162,,,,,,,,,,,,,,,,,,masks/mask_003.jpg,0,0,0,2,1,,,,,,,,,,,,,,,,,,,,,,,,,,,,,,,,,,,,,,,,,,,,,,,,,,,,,,,,,,,,,,,,,,,,,,,,,,,,,,,,,,,,,,,,
666628,001,2022-11-20_23h52.20.154,Info_measure_main_exp,2022.2.2,Win32,60.08893162,,,,,,,,,,,,,,,,,,masks/mask_005.jpg,0,1,1,4,1,,,,,,,,,,,,,,,,,,,,,,,,,,,,,,,,,,,,,,,,,,,,,,,,,,,,,,,,,,,,,,,,,,,,,,,,,,,,,,,,,,,,,,,,
666628,001,2022-11-20_23h52.20.154,Info_measure_main_exp,2022.2.2,Win32,60.08893162,,,,,,,,,,,,,,,,,,masks/mask_001.jpg,0,2,2,0,1,,,,,,,,,,,,,,,,,,,,,,,,,,,,,,,,,,,,,,,,,,,,,,,,,,,,,,,,,,,,,,,,,,,,,,,,,,,,,,,,,,,,,,,,
666628,001,2022-11-20_23h52.20.154,Info_measure_main_exp,2022.2.2,Win32,60.08893162,,,,,,,,,,,,,,,,,,masks/mask_002.jpg,0,3,3,1,1,,,,,,,,,,,,,,,,,,,,,,,,,,,,,,,,,,,,,,,,,,,,,,,,,,,,,,,,,,,,,,,,,,,,,,,,,,,,,,,,,,,,,,,,
666628,001,2022-11-20_23h52.20.154,Info_measure_main_exp,2022.2.2,Win32,60.08893162,,,,,,,,,,,,,,,,,,masks/mask_004.jpg,0,4,4,3,1,,,,,,,,,,,,,,,,,,,,,,,,,,,,,,,,,,,,,,,,,,,,,,,,,,,,,,,,,,,,,,,,,,,,,,,,,,,,,,,,,,,,,,,,
666628,001,2022-11-20_23h52.20.154,Info_measure_main_exp,2022.2.2,Win32,60.08893162,,,,,,,,,,,,,,,,,,,,,,,,-0.047222222,-0.113888889,1,0,0,response5disk,3,66.4727,1,-0.003703704,-0.001851852,1,0,0,center_square,0,0,0,1,1,0,131,5,5,2514,2490,prac_patch/patch0002514.jpg,prac_patch/patch0002490.jpg,,,,,,,,,,,,,,,,,,,,,,,,,,,,,,,,,,,,,,,,,,,,,,,,,,,,,,,,,,,,
666628,001,2022-11-20_23h52.20.154,Info_measure_main_exp,2022.2.2,Win32,60.08893162,,,,,,,,,,,,,0,0,0,3,1,masks/mask_004.jpg,,,,,,,,,,,,,,,,,,,,,,,,,,,,,,,,,,,,,,,,,,,,,,,,,,,,,,,,,,,,,,,,,,,,,,,,,,,,,,,,,,,,,,,,,,,,,
666628,001,2022-11-20_23h52.20.154,Info_measure_main_exp,2022.2.2,Win32,60.08893162,,,,,,,,,,,,,0,1,1,4,1,masks/mask_005.jpg,,,,,,,,,,,,,,,,,,,,,,,,,,,,,,,,,,,,,,,,,,,,,,,,,,,,,,,,,,,,,,,,,,,,,,,,,,,,,,,,,,,,,,,,,,,,,
666628,001,2022-11-20_23h52.20.154,Info_measure_main_exp,2022.2.2,Win32,60.08893162,,,,,,,,,,,,,0,2,2,0,1,masks/mask_001.jpg,,,,,,,,,,,,,,,,,,,,,,,,,,,,,,,,,,,,,,,,,,,,,,,,,,,,,,,,,,,,,,,,,,,,,,,,,,,,,,,,,,,,,,,,,,,,,
666628,001,2022-11-20_23h52.20.154,Info_measure_main_exp,2022.2.2,Win32,60.08893162,,,,,,,,,,,,,0,3,3,2,1,masks/mask_003.jpg,,,,,,,,,,,,,,,,,,,,,,,,,,,,,,,,,,,,,,,,,,,,,,,,,,,,,,,,,,,,,,,,,,,,,,,,,,,,,,,,,,,,,,,,,,,,,
666628,001,2022-11-20_23h52.20.154,Info_measure_main_exp,2022.2.2,Win32,60.08893162,,,,,,,,,,,,,0,4,4,1,1,masks/mask_002.jpg,,,,,,,,,,,,,,,,,,,,,,,,,,,,,,,,,,,,,,,,,,,,,,,,,,,,,,,,,,,,,,,,,,,,,,,,,,,,,,,,,,,,,,,,,,,,,
666628,001,2022-11-20_23h52.20.154,Info_measure_main_exp,2022.2.2,Win32,60.08893162,,,,,,,,,,,,,,,,,,masks/mask_003.jpg,0,0,0,2,1,,,,,,,,,,,,,,,,,,,,,,,,,,,,,,,,,,,,,,,,,,,,,,,,,,,,,,,,,,,,,,,,,,,,,,,,,,,,,,,,,,,,,,,,
666628,001,2022-11-20_23h52.20.154,Info_measure_main_exp,2022.2.2,Win32,60.08893162,,,,,,,,,,,,,,,,,,masks/mask_005.jpg,0,1,1,4,1,,,,,,,,,,,,,,,,,,,,,,,,,,,,,,,,,,,,,,,,,,,,,,,,,,,,,,,,,,,,,,,,,,,,,,,,,,,,,,,,,,,,,,,,
666628,001,2022-11-20_23h52.20.154,Info_measure_main_exp,2022.2.2,Win32,60.08893162,,,,,,,,,,,,,,,,,,masks/mask_004.jpg,0,2,2,3,1,,,,,,,,,,,,,,,,,,,,,,,,,,,,,,,,,,,,,,,,,,,,,,,,,,,,,,,,,,,,,,,,,,,,,,,,,,,,,,,,,,,,,,,,
666628,001,2022-11-20_23h52.20.154,Info_measure_main_exp,2022.2.2,Win32,60.08893162,,,,,,,,,,,,,,,,,,masks/mask_002.jpg,0,3,3,1,1,,,,,,,,,,,,,,,,,,,,,,,,,,,,,,,,,,,,,,,,,,,,,,,,,,,,,,,,,,,,,,,,,,,,,,,,,,,,,,,,,,,,,,,,
666628,001,2022-11-20_23h52.20.154,Info_measure_main_exp,2022.2.2,Win32,60.08893162,,,,,,,,,,,,,,,,,,masks/mask_001.jpg,0,4,4,0,1,,,,,,,,,,,,,,,,,,,,,,,,,,,,,,,,,,,,,,,,,,,,,,,,,,,,,,,,,,,,,,,,,,,,,,,,,,,,,,,,,,,,,,,,
666628,001,2022-11-20_23h52.20.154,Info_measure_main_exp,2022.2.2,Win32,60.08893162,,,,,,,,,,,,,,,,,,,,,,,,-0.065740741,0.119444444,1,0,0,response7disk,0,81.233,1,0.001851852,0.002777778,1,0,0,center_square,0,1,1,2,1,0,131,5,5,2526,2526,prac_patch/patch0002526.jpg,prac_patch/patch0002526.jpg,,,,,,,,,,,,,,,,,,,,,,,,,,,,,,,,,,,,,,,,,,,,,,,,,,,,,,,,,,,,
666628,001,2022-11-20_23h52.20.154,Info_measure_main_exp,2022.2.2,Win32,60.08893162,,,,,,,,,,,,,0,0,0,4,1,masks/mask_005.jpg,,,,,,,,,,,,,,,,,,,,,,,,,,,,,,,,,,,,,,,,,,,,,,,,,,,,,,,,,,,,,,,,,,,,,,,,,,,,,,,,,,,,,,,,,,,,,
666628,001,2022-11-20_23h52.20.154,Info_measure_main_exp,2022.2.2,Win32,60.08893162,,,,,,,,,,,,,0,1,1,2,1,masks/mask_003.jpg,,,,,,,,,,,,,,,,,,,,,,,,,,,,,,,,,,,,,,,,,,,,,,,,,,,,,,,,,,,,,,,,,,,,,,,,,,,,,,,,,,,,,,,,,,,,,
666628,001,2022-11-20_23h52.20.154,Info_measure_main_exp,2022.2.2,Win32,60.08893162,,,,,,,,,,,,,0,2,2,0,1,masks/mask_001.jpg,,,,,,,,,,,,,,,,,,,,,,,,,,,,,,,,,,,,,,,,,,,,,,,,,,,,,,,,,,,,,,,,,,,,,,,,,,,,,,,,,,,,,,,,,,,,,
666628,001,2022-11-20_23h52.20.154,Info_measure_main_exp,2022.2.2,Win32,60.08893162,,,,,,,,,,,,,0,3,3,3,1,masks/mask_004.jpg,,,,,,,,,,,,,,,,,,,,,,,,,,,,,,,,,,,,,,,,,,,,,,,,,,,,,,,,,,,,,,,,,,,,,,,,,,,,,,,,,,,,,,,,,,,,,
666628,001,2022-11-20_23h52.20.154,Info_measure_main_exp,2022.2.2,Win32,60.08893162,,,,,,,,,,,,,0,4,4,1,1,masks/mask_002.jpg,,,,,,,,,,,,,,,,,,,,,,,,,,,,,,,,,,,,,,,,,,,,,,,,,,,,,,,,,,,,,,,,,,,,,,,,,,,,,,,,,,,,,,,,,,,,,
666628,001,2022-11-20_23h52.20.154,Info_measure_main_exp,2022.2.2,Win32,60.08893162,,,,,,,,,,,,,,,,,,masks/mask_002.jpg,0,0,0,1,1,,,,,,,,,,,,,,,,,,,,,,,,,,,,,,,,,,,,,,,,,,,,,,,,,,,,,,,,,,,,,,,,,,,,,,,,,,,,,,,,,,,,,,,,
666628,001,2022-11-20_23h52.20.154,Info_measure_main_exp,2022.2.2,Win32,60.08893162,,,,,,,,,,,,,,,,,,masks/mask_001.jpg,0,1,1,0,1,,,,,,,,,,,,,,,,,,,,,,,,,,,,,,,,,,,,,,,,,,,,,,,,,,,,,,,,,,,,,,,,,,,,,,,,,,,,,,,,,,,,,,,,
666628,001,2022-11-20_23h52.20.154,Info_measure_main_exp,2022.2.2,Win32,60.08893162,,,,,,,,,,,,,,,,,,masks/mask_003.jpg,0,2,2,2,1,,,,,,,,,,,,,,,,,,,,,,,,,,,,,,,,,,,,,,,,,,,,,,,,,,,,,,,,,,,,,,,,,,,,,,,,,,,,,,,,,,,,,,,,
666628,001,2022-11-20_23h52.20.154,Info_measure_main_exp,2022.2.2,Win32,60.08893162,,,,,,,,,,,,,,,,,,masks/mask_004.jpg,0,3,3,3,1,,,,,,,,,,,,,,,,,,,,,,,,,,,,,,,,,,,,,,,,,,,,,,,,,,,,,,,,,,,,,,,,,,,,,,,,,,,,,,,,,,,,,,,,
666628,001,2022-11-20_23h52.20.154,Info_measure_main_exp,2022.2.2,Win32,60.08893162,,,,,,,,,,,,,,,,,,masks/mask_005.jpg,0,4,4,4,1,,,,,,,,,,,,,,,,,,,,,,,,,,,,,,,,,,,,,,,,,,,,,,,,,,,,,,,,,,,,,,,,,,,,,,,,,,,,,,,,,,,,,,,,
666628,001,2022-11-20_23h52.20.154,Info_measure_main_exp,2022.2.2,Win32,60.08893162,,,,,,,,,,,,,,,,,,,,,,,,0.053703704,0.091666667,1,0,0,response1disk,7,90.3338,1,0.007407407,0.000925926,1,0,0,center_square,0,2,2,0,1,0,131,5,5,2370,2406,prac_patch/patch0002370.jpg,prac_patch/patch0002406.jpg,,,,,,,,,,,,,,,,,,,,,,,,,,,,,,,,,,,,,,,,,,,,,,,,,,,,,,,,,,,,
666628,001,2022-11-20_23h52.20.154,Info_measure_main_exp,2022.2.2,Win32,60.08893162,,,,,,,,,,,,,,,,,,,,,,,,,,,,,,,,,,,,,,,,,,,,,,,,,,,,,,,,,,,space,3.446,,,,,,,,,,,,,,,,,,,,,,,,,,,,,,,,,,,,,,,,,,,,,,,,,,,
666628,001,2022-11-20_23h52.20.154,Info_measure_main_exp,2022.2.2,Win32,60.08893162,,,,,,,,,,,,,,,,,,masks/mask_005.jpg,,,,,,,,,,,,,,,,,,,,,,,,,,,,,,,,,,,,,,,,,,,0,0,0,4,1,,,,,,,,,,,,,,,,,,,,,,,,,,,,,,,,,,,,,,,,,,,,,,
666628,001,2022-11-20_23h52.20.154,Info_measure_main_exp,2022.2.2,Win32,60.08893162,,,,,,,,,,,,,,,,,,masks/mask_002.jpg,,,,,,,,,,,,,,,,,,,,,,,,,,,,,,,,,,,,,,,,,,,0,1,1,1,1,,,,,,,,,,,,,,,,,,,,,,,,,,,,,,,,,,,,,,,,,,,,,,
666628,001,2022-11-20_23h52.20.154,Info_measure_main_exp,2022.2.2,Win32,60.08893162,,,,,,,,,,,,,,,,,,masks/mask_004.jpg,,,,,,,,,,,,,,,,,,,,,,,,,,,,,,,,,,,,,,,,,,,0,2,2,3,1,,,,,,,,,,,,,,,,,,,,,,,,,,,,,,,,,,,,,,,,,,,,,,
666628,001,2022-11-20_23h52.20.154,Info_measure_main_exp,2022.2.2,Win32,60.08893162,,,,,,,,,,,,,,,,,,masks/mask_001.jpg,,,,,,,,,,,,,,,,,,,,,,,,,,,,,,,,,,,,,,,,,,,0,3,3,0,1,,,,,,,,,,,,,,,,,,,,,,,,,,,,,,,,,,,,,,,,,,,,,,
666628,001,2022-11-20_23h52.20.154,Info_measure_main_exp,2022.2.2,Win32,60.08893162,,,,,,,,,,,,,,,,,,masks/mask_003.jpg,,,,,,,,,,,,,,,,,,,,,,,,,,,,,,,,,,,,,,,,,,,0,4,4,2,1,,,,,,,,,,,,,,,,,,,,,,,,,,,,,,,,,,,,,,,,,,,,,,
666628,001,2022-11-20_23h52.20.154,Info_measure_main_exp,2022.2.2,Win32,60.08893162,,,,,,,,,,,,,,,,,,masks/mask_001.jpg,,,,,,,,,,,,,,,,,,,,,,,,,,,,,,,,,,,,,,,,,,,,,,,,0,0,0,0,1,,,,,,,,,,,,,,,,,,,,,,,,,,,,,,,,,,,,,,,,,
666628,001,2022-11-20_23h52.20.154,Info_measure_main_exp,2022.2.2,Win32,60.08893162,,,,,,,,,,,,,,,,,,masks/mask_002.jpg,,,,,,,,,,,,,,,,,,,,,,,,,,,,,,,,,,,,,,,,,,,,,,,,0,1,1,1,1,,,,,,,,,,,,,,,,,,,,,,,,,,,,,,,,,,,,,,,,,
666628,001,2022-11-20_23h52.20.154,Info_measure_main_exp,2022.2.2,Win32,60.08893162,,,,,,,,,,,,,,,,,,masks/mask_004.jpg,,,,,,,,,,,,,,,,,,,,,,,,,,,,,,,,,,,,,,,,,,,,,,,,0,2,2,3,1,,,,,,,,,,,,,,,,,,,,,,,,,,,,,,,,,,,,,,,,,
666628,001,2022-11-20_23h52.20.154,Info_measure_main_exp,2022.2.2,Win32,60.08893162,,,,,,,,,,,,,,,,,,masks/mask_003.jpg,,,,,,,,,,,,,,,,,,,,,,,,,,,,,,,,,,,,,,,,,,,,,,,,0,3,3,2,1,,,,,,,,,,,,,,,,,,,,,,,,,,,,,,,,,,,,,,,,,
666628,001,2022-11-20_23h52.20.154,Info_measure_main_exp,2022.2.2,Win32,60.08893162,,,,,,,,,,,,,,,,,,masks/mask_005.jpg,,,,,,,,,,,,,,,,,,,,,,,,,,,,,,,,,,,,,,,,,,,,,,,,0,4,4,4,1,,,,,,,,,,,,,,,,,,,,,,,,,,,,,,,,,,,,,,,,,
666628,001,2022-11-20_23h52.20.154,Info_measure_main_exp,2022.2.2,Win32,60.08893162,,,,,,,,,,,,,,,,,,,,,,,,,,,,,,0,1.9506,1,,,,,,,,,,,,0,131,5,5,2250,2250,absent_patch/patch0002250.jpg,absent_patch/patch0002250.jpg,,,,,,,,,,,,,,,,,,,,-0.09537037,0.143518519,1,0,0,response7disk,1,-0.007407407,0.005555556,1,0,0,center_square,0,0,0,56,1,,,,,,,,,,,,,,,,,,,,,,,
666628,001,2022-11-20_23h52.20.154,Info_measure_main_exp,2022.2.2,Win32,60.08893162,,,,,,,,,,,,,,,,,,masks/mask_003.jpg,,,,,,,,,,,,,,,,,,,,,,,,,,,,,,,,,,,,,,,,,,,0,0,0,2,1,,,,,,,,,,,,,,,,,,,,,,,,,,,,,,,,,,,,,,,,,,,,,,
666628,001,2022-11-20_23h52.20.154,Info_measure_main_exp,2022.2.2,Win32,60.08893162,,,,,,,,,,,,,,,,,,masks/mask_001.jpg,,,,,,,,,,,,,,,,,,,,,,,,,,,,,,,,,,,,,,,,,,,0,1,1,0,1,,,,,,,,,,,,,,,,,,,,,,,,,,,,,,,,,,,,,,,,,,,,,,
666628,001,2022-11-20_23h52.20.154,Info_measure_main_exp,2022.2.2,Win32,60.08893162,,,,,,,,,,,,,,,,,,masks/mask_005.jpg,,,,,,,,,,,,,,,,,,,,,,,,,,,,,,,,,,,,,,,,,,,0,2,2,4,1,,,,,,,,,,,,,,,,,,,,,,,,,,,,,,,,,,,,,,,,,,,,,,
666628,001,2022-11-20_23h52.20.154,Info_measure_main_exp,2022.2.2,Win32,60.08893162,,,,,,,,,,,,,,,,,,masks/mask_004.jpg,,,,,,,,,,,,,,,,,,,,,,,,,,,,,,,,,,,,,,,,,,,0,3,3,3,1,,,,,,,,,,,,,,,,,,,,,,,,,,,,,,,,,,,,,,,,,,,,,,
666628,001,2022-11-20_23h52.20.154,Info_measure_main_exp,2022.2.2,Win32,60.08893162,,,,,,,,,,,,,,,,,,masks/mask_002.jpg,,,,,,,,,,,,,,,,,,,,,,,,,,,,,,,,,,,,,,,,,,,0,4,4,1,1,,,,,,,,,,,,,,,,,,,,,,,,,,,,,,,,,,,,,,,,,,,,,,
666628,001,2022-11-20_23h52.20.154,Info_measure_main_exp,2022.2.2,Win32,60.08893162,,,,,,,,,,,,,,,,,,masks/mask_004.jpg,,,,,,,,,,,,,,,,,,,,,,,,,,,,,,,,,,,,,,,,,,,,,,,,0,0,0,3,1,,,,,,,,,,,,,,,,,,,,,,,,,,,,,,,,,,,,,,,,,
666628,001,2022-11-20_23h52.20.154,Info_measure_main_exp,2022.2.2,Win32,60.08893162,,,,,,,,,,,,,,,,,,masks/mask_005.jpg,,,,,,,,,,,,,,,,,,,,,,,,,,,,,,,,,,,,,,,,,,,,,,,,0,1,1,4,1,,,,,,,,,,,,,,,,,,,,,,,,,,,,,,,,,,,,,,,,,
666628,001,2022-11-20_23h52.20.154,Info_measure_main_exp,2022.2.2,Win32,60.08893162,,,,,,,,,,,,,,,,,,masks/mask_003.jpg,,,,,,,,,,,,,,,,,,,,,,,,,,,,,,,,,,,,,,,,,,,,,,,,0,2,2,2,1,,,,,,,,,,,,,,,,,,,,,,,,,,,,,,,,,,,,,,,,,
666628,001,2022-11-20_23h52.20.154,Info_measure_main_exp,2022.2.2,Win32,60.08893162,,,,,,,,,,,,,,,,,,masks/mask_001.jpg,,,,,,,,,,,,,,,,,,,,,,,,,,,,,,,,,,,,,,,,,,,,,,,,0,3,3,0,1,,,,,,,,,,,,,,,,,,,,,,,,,,,,,,,,,,,,,,,,,
666628,001,2022-11-20_23h52.20.154,Info_measure_main_exp,2022.2.2,Win32,60.08893162,,,,,,,,,,,,,,,,,,masks/mask_002.jpg,,,,,,,,,,,,,,,,,,,,,,,,,,,,,,,,,,,,,,,,,,,,,,,,0,4,4,1,1,,,,,,,,,,,,,,,,,,,,,,,,,,,,,,,,,,,,,,,,,
666628,001,2022-11-20_23h52.20.154,Info_measure_main_exp,2022.2.2,Win32,60.08893162,,,,,,,,,,,,,,,,,,,,,,,,,,,,,,7,0.7833,1,,,,,,,,,,,,0,131,5,5,2274,1950,absent_patch/patch0002274.jpg,absent_patch/patch0001950.jpg,,,,,,,,,,,,,,,,,,,,0.053703704,0.114814815,1,0,0,response1disk,2,0.000925926,0.006481481,1,0,0,center_square,0,1,1,10,1,,,,,,,,,,,,,,,,,,,,,,,
666628,001,2022-11-20_23h52.20.154,Info_measure_main_exp,2022.2.2,Win32,60.08893162,,,,,,,,,,,,,,,,,,masks/mask_003.jpg,,,,,,,,,,,,,,,,,,,,,,,,,,,,,,,,,,,,,,,,,,,0,0,0,2,1,,,,,,,,,,,,,,,,,,,,,,,,,,,,,,,,,,,,,,,,,,,,,,
666628,001,2022-11-20_23h52.20.154,Info_measure_main_exp,2022.2.2,Win32,60.08893162,,,,,,,,,,,,,,,,,,masks/mask_005.jpg,,,,,,,,,,,,,,,,,,,,,,,,,,,,,,,,,,,,,,,,,,,0,1,1,4,1,,,,,,,,,,,,,,,,,,,,,,,,,,,,,,,,,,,,,,,,,,,,,,
666628,001,2022-11-20_23h52.20.154,Info_measure_main_exp,2022.2.2,Win32,60.08893162,,,,,,,,,,,,,,,,,,masks/mask_004.jpg,,,,,,,,,,,,,,,,,,,,,,,,,,,,,,,,,,,,,,,,,,,0,2,2,3,1,,,,,,,,,,,,,,,,,,,,,,,,,,,,,,,,,,,,,,,,,,,,,,
666628,001,2022-11-20_23h52.20.154,Info_measure_main_exp,2022.2.2,Win32,60.08893162,,,,,,,,,,,,,,,,,,masks/mask_002.jpg,,,,,,,,,,,,,,,,,,,,,,,,,,,,,,,,,,,,,,,,,,,0,3,3,1,1,,,,,,,,,,,,,,,,,,,,,,,,,,,,,,,,,,,,,,,,,,,,,,
666628,001,2022-11-20_23h52.20.154,Info_measure_main_exp,2022.2.2,Win32,60.08893162,,,,,,,,,,,,,,,,,,masks/mask_001.jpg,,,,,,,,,,,,,,,,,,,,,,,,,,,,,,,,,,,,,,,,,,,0,4,4,0,1,,,,,,,,,,,,,,,,,,,,,,,,,,,,,,,,,,,,,,,,,,,,,,
666628,001,2022-11-20_23h52.20.154,Info_measure_main_exp,2022.2.2,Win32,60.08893162,,,,,,,,,,,,,,,,,,masks/mask_001.jpg,,,,,,,,,,,,,,,,,,,,,,,,,,,,,,,,,,,,,,,,,,,,,,,,0,0,0,0,1,,,,,,,,,,,,,,,,,,,,,,,,,,,,,,,,,,,,,,,,,
666628,001,2022-11-20_23h52.20.154,Info_measure_main_exp,2022.2.2,Win32,60.08893162,,,,,,,,,,,,,,,,,,masks/mask_002.jpg,,,,,,,,,,,,,,,,,,,,,,,,,,,,,,,,,,,,,,,,,,,,,,,,0,1,1,1,1,,,,,,,,,,,,,,,,,,,,,,,,,,,,,,,,,,,,,,,,,
666628,001,2022-11-20_23h52.20.154,Info_measure_main_exp,2022.2.2,Win32,60.08893162,,,,,,,,,,,,,,,,,,masks/mask_004.jpg,,,,,,,,,,,,,,,,,,,,,,,,,,,,,,,,,,,,,,,,,,,,,,,,0,2,2,3,1,,,,,,,,,,,,,,,,,,,,,,,,,,,,,,,,,,,,,,,,,
666628,001,2022-11-20_23h52.20.154,Info_measure_main_exp,2022.2.2,Win32,60.08893162,,,,,,,,,,,,,,,,,,masks/mask_005.jpg,,,,,,,,,,,,,,,,,,,,,,,,,,,,,,,,,,,,,,,,,,,,,,,,0,3,3,4,1,,,,,,,,,,,,,,,,,,,,,,,,,,,,,,,,,,,,,,,,,
666628,001,2022-11-20_23h52.20.154,Info_measure_main_exp,2022.2.2,Win32,60.08893162,,,,,,,,,,,,,,,,,,masks/mask_003.jpg,,,,,,,,,,,,,,,,,,,,,,,,,,,,,,,,,,,,,,,,,,,,,,,,0,4,4,2,1,,,,,,,,,,,,,,,,,,,,,,,,,,,,,,,,,,,,,,,,,
666628,001,2022-11-20_23h52.20.154,Info_measure_main_exp,2022.2.2,Win32,60.08893162,,,,,,,,,,,,,,,,,,,,,,,,,,,,,,3,4.2505,1,,,,,,,,,,,,0,131,5,5,2190,2178,absent_patch/patch0002190.jpg,absent_patch/patch0002178.jpg,,,,,,,,,,,,,,,,,,,,-0.014814815,-0.113888889,1,0,0,response5disk,3,-0.002777778,-0.003703704,1,0,0,center_square,0,2,2,14,1,,,,,,,,,,,,,,,,,,,,,,,
666628,001,2022-11-20_23h52.20.154,Info_measure_main_exp,2022.2.2,Win32,60.08893162,,,,,,,,,,,,,,,,,,masks/mask_003.jpg,,,,,,,,,,,,,,,,,,,,,,,,,,,,,,,,,,,,,,,,,,,0,0,0,2,1,,,,,,,,,,,,,,,,,,,,,,,,,,,,,,,,,,,,,,,,,,,,,,
666628,001,2022-11-20_23h52.20.154,Info_measure_main_exp,2022.2.2,Win32,60.08893162,,,,,,,,,,,,,,,,,,masks/mask_005.jpg,,,,,,,,,,,,,,,,,,,,,,,,,,,,,,,,,,,,,,,,,,,0,1,1,4,1,,,,,,,,,,,,,,,,,,,,,,,,,,,,,,,,,,,,,,,,,,,,,,
666628,001,2022-11-20_23h52.20.154,Info_measure_main_exp,2022.2.2,Win32,60.08893162,,,,,,,,,,,,,,,,,,masks/mask_002.jpg,,,,,,,,,,,,,,,,,,,,,,,,,,,,,,,,,,,,,,,,,,,0,2,2,1,1,,,,,,,,,,,,,,,,,,,,,,,,,,,,,,,,,,,,,,,,,,,,,,
666628,001,2022-11-20_23h52.20.154,Info_measure_main_exp,2022.2.2,Win32,60.08893162,,,,,,,,,,,,,,,,,,masks/mask_001.jpg,,,,,,,,,,,,,,,,,,,,,,,,,,,,,,,,,,,,,,,,,,,0,3,3,0,1,,,,,,,,,,,,,,,,,,,,,,,,,,,,,,,,,,,,,,,,,,,,,,
666628,001,2022-11-20_23h52.20.154,Info_measure_main_exp,2022.2.2,Win32,60.08893162,,,,,,,,,,,,,,,,,,masks/mask_004.jpg,,,,,,,,,,,,,,,,,,,,,,,,,,,,,,,,,,,,,,,,,,,0,4,4,3,1,,,,,,,,,,,,,,,,,,,,,,,,,,,,,,,,,,,,,,,,,,,,,,
666628,001,2022-11-20_23h52.20.154,Info_measure_main_exp,2022.2.2,Win32,60.08893162,,,,,,,,,,,,,,,,,,masks/mask_001.jpg,,,,,,,,,,,,,,,,,,,,,,,,,,,,,,,,,,,,,,,,,,,,,,,,0,0,0,0,1,,,,,,,,,,,,,,,,,,,,,,,,,,,,,,,,,,,,,,,,,
666628,001,2022-11-20_23h52.20.154,Info_measure_main_exp,2022.2.2,Win32,60.08893162,,,,,,,,,,,,,,,,,,masks/mask_005.jpg,,,,,,,,,,,,,,,,,,,,,,,,,,,,,,,,,,,,,,,,,,,,,,,,0,1,1,4,1,,,,,,,,,,,,,,,,,,,,,,,,,,,,,,,,,,,,,,,,,
666628,001,2022-11-20_23h52.20.154,Info_measure_main_exp,2022.2.2,Win32,60.08893162,,,,,,,,,,,,,,,,,,masks/mask_004.jpg,,,,,,,,,,,,,,,,,,,,,,,,,,,,,,,,,,,,,,,,,,,,,,,,0,2,2,3,1,,,,,,,,,,,,,,,,,,,,,,,,,,,,,,,,,,,,,,,,,
666628,001,2022-11-20_23h52.20.154,Info_measure_main_exp,2022.2.2,Win32,60.08893162,,,,,,,,,,,,,,,,,,masks/mask_002.jpg,,,,,,,,,,,,,,,,,,,,,,,,,,,,,,,,,,,,,,,,,,,,,,,,0,3,3,1,1,,,,,,,,,,,,,,,,,,,,,,,,,,,,,,,,,,,,,,,,,
666628,001,2022-11-20_23h52.20.154,Info_measure_main_exp,2022.2.2,Win32,60.08893162,,,,,,,,,,,,,,,,,,masks/mask_003.jpg,,,,,,,,,,,,,,,,,,,,,,,,,,,,,,,,,,,,,,,,,,,,,,,,0,4,4,2,1,,,,,,,,,,,,,,,,,,,,,,,,,,,,,,,,,,,,,,,,,
666628,001,2022-11-20_23h52.20.154,Info_measure_main_exp,2022.2.2,Win32,60.08893162,,,,,,,,,,,,,,,,,,,,,,,,,,,,,,7,1.7002,1,,,,,,,,,,,,0,131,5,5,2154,2250,absent_patch/patch0002154.jpg,absent_patch/patch0002250.jpg,,,,,,,,,,,,,,,,,,,,0.055555556,0.107407407,1,0,0,response1disk,4,0.006481481,0.007407407,1,0,0,center_square,0,3,3,108,1,,,,,,,,,,,,,,,,,,,,,,,
666628,001,2022-11-20_23h52.20.154,Info_measure_main_exp,2022.2.2,Win32,60.08893162,,,,,,,,,,,,,,,,,,masks/mask_001.jpg,,,,,,,,,,,,,,,,,,,,,,,,,,,,,,,,,,,,,,,,,,,0,0,0,0,1,,,,,,,,,,,,,,,,,,,,,,,,,,,,,,,,,,,,,,,,,,,,,,
666628,001,2022-11-20_23h52.20.154,Info_measure_main_exp,2022.2.2,Win32,60.08893162,,,,,,,,,,,,,,,,,,masks/mask_002.jpg,,,,,,,,,,,,,,,,,,,,,,,,,,,,,,,,,,,,,,,,,,,0,1,1,1,1,,,,,,,,,,,,,,,,,,,,,,,,,,,,,,,,,,,,,,,,,,,,,,
666628,001,2022-11-20_23h52.20.154,Info_measure_main_exp,2022.2.2,Win32,60.08893162,,,,,,,,,,,,,,,,,,masks/mask_004.jpg,,,,,,,,,,,,,,,,,,,,,,,,,,,,,,,,,,,,,,,,,,,0,2,2,3,1,,,,,,,,,,,,,,,,,,,,,,,,,,,,,,,,,,,,,,,,,,,,,,
666628,001,2022-11-20_23h52.20.154,Info_measure_main_exp,2022.2.2,Win32,60.08893162,,,,,,,,,,,,,,,,,,masks/mask_003.jpg,,,,,,,,,,,,,,,,,,,,,,,,,,,,,,,,,,,,,,,,,,,0,3,3,2,1,,,,,,,,,,,,,,,,,,,,,,,,,,,,,,,,,,,,,,,,,,,,,,
666628,001,2022-11-20_23h52.20.154,Info_measure_main_exp,2022.2.2,Win32,60.08893162,,,,,,,,,,,,,,,,,,masks/mask_005.jpg,,,,,,,,,,,,,,,,,,,,,,,,,,,,,,,,,,,,,,,,,,,0,4,4,4,1,,,,,,,,,,,,,,,,,,,,,,,,,,,,,,,,,,,,,,,,,,,,,,
666628,001,2022-11-20_23h52.20.154,Info_measure_main_exp,2022.2.2,Win32,60.08893162,,,,,,,,,,,,,,,,,,masks/mask_003.jpg,,,,,,,,,,,,,,,,,,,,,,,,,,,,,,,,,,,,,,,,,,,,,,,,0,0,0,2,1,,,,,,,,,,,,,,,,,,,,,,,,,,,,,,,,,,,,,,,,,
666628,001,2022-11-20_23h52.20.154,Info_measure_main_exp,2022.2.2,Win32,60.08893162,,,,,,,,,,,,,,,,,,masks/mask_005.jpg,,,,,,,,,,,,,,,,,,,,,,,,,,,,,,,,,,,,,,,,,,,,,,,,0,1,1,4,1,,,,,,,,,,,,,,,,,,,,,,,,,,,,,,,,,,,,,,,,,
666628,001,2022-11-20_23h52.20.154,Info_measure_main_exp,2022.2.2,Win32,60.08893162,,,,,,,,,,,,,,,,,,masks/mask_002.jpg,,,,,,,,,,,,,,,,,,,,,,,,,,,,,,,,,,,,,,,,,,,,,,,,0,2,2,1,1,,,,,,,,,,,,,,,,,,,,,,,,,,,,,,,,,,,,,,,,,
666628,001,2022-11-20_23h52.20.154,Info_measure_main_exp,2022.2.2,Win32,60.08893162,,,,,,,,,,,,,,,,,,masks/mask_001.jpg,,,,,,,,,,,,,,,,,,,,,,,,,,,,,,,,,,,,,,,,,,,,,,,,0,3,3,0,1,,,,,,,,,,,,,,,,,,,,,,,,,,,,,,,,,,,,,,,,,
666628,001,2022-11-20_23h52.20.154,Info_measure_main_exp,2022.2.2,Win32,60.08893162,,,,,,,,,,,,,,,,,,masks/mask_004.jpg,,,,,,,,,,,,,,,,,,,,,,,,,,,,,,,,,,,,,,,,,,,,,,,,0,4,4,3,1,,,,,,,,,,,,,,,,,,,,,,,,,,,,,,,,,,,,,,,,,
666628,001,2022-11-20_23h52.20.154,Info_measure_main_exp,2022.2.2,Win32,60.08893162,,,,,,,,,,,,,,,,,,,,,,,,,,,,,,7,2.3837,1,,,,,,,,,,,,0,131,5,5,1950,2238,absent_patch/patch0001950.jpg,absent_patch/patch0002238.jpg,,,,,,,,,,,,,,,,,,,,0.044444444,0.109259259,1,0,0,response1disk,5,0.001851852,0.00462963,1,0,0,center_square,0,4,4,8,1,,,,,,,,,,,,,,,,,,,,,,,
666628,001,2022-11-20_23h52.20.154,Info_measure_main_exp,2022.2.2,Win32,60.08893162,,,,,,,,,,,,,,,,,,masks/mask_001.jpg,,,,,,,,,,,,,,,,,,,,,,,,,,,,,,,,,,,,,,,,,,,0,0,0,0,1,,,,,,,,,,,,,,,,,,,,,,,,,,,,,,,,,,,,,,,,,,,,,,
666628,001,2022-11-20_23h52.20.154,Info_measure_main_exp,2022.2.2,Win32,60.08893162,,,,,,,,,,,,,,,,,,masks/mask_002.jpg,,,,,,,,,,,,,,,,,,,,,,,,,,,,,,,,,,,,,,,,,,,0,1,1,1,1,,,,,,,,,,,,,,,,,,,,,,,,,,,,,,,,,,,,,,,,,,,,,,
666628,001,2022-11-20_23h52.20.154,Info_measure_main_exp,2022.2.2,Win32,60.08893162,,,,,,,,,,,,,,,,,,masks/mask_003.jpg,,,,,,,,,,,,,,,,,,,,,,,,,,,,,,,,,,,,,,,,,,,0,2,2,2,1,,,,,,,,,,,,,,,,,,,,,,,,,,,,,,,,,,,,,,,,,,,,,,
666628,001,2022-11-20_23h52.20.154,Info_measure_main_exp,2022.2.2,Win32,60.08893162,,,,,,,,,,,,,,,,,,masks/mask_005.jpg,,,,,,,,,,,,,,,,,,,,,,,,,,,,,,,,,,,,,,,,,,,0,3,3,4,1,,,,,,,,,,,,,,,,,,,,,,,,,,,,,,,,,,,,,,,,,,,,,,
666628,001,2022-11-20_23h52.20.154,Info_measure_main_exp,2022.2.2,Win32,60.08893162,,,,,,,,,,,,,,,,,,masks/mask_004.jpg,,,,,,,,,,,,,,,,,,,,,,,,,,,,,,,,,,,,,,,,,,,0,4,4,3,1,,,,,,,,,,,,,,,,,,,,,,,,,,,,,,,,,,,,,,,,,,,,,,
666628,001,2022-11-20_23h52.20.154,Info_measure_main_exp,2022.2.2,Win32,60.08893162,,,,,,,,,,,,,,,,,,masks/mask_001.jpg,,,,,,,,,,,,,,,,,,,,,,,,,,,,,,,,,,,,,,,,,,,,,,,,0,0,0,0,1,,,,,,,,,,,,,,,,,,,,,,,,,,,,,,,,,,,,,,,,,
666628,001,2022-11-20_23h52.20.154,Info_measure_main_exp,2022.2.2,Win32,60.08893162,,,,,,,,,,,,,,,,,,masks/mask_005.jpg,,,,,,,,,,,,,,,,,,,,,,,,,,,,,,,,,,,,,,,,,,,,,,,,0,1,1,4,1,,,,,,,,,,,,,,,,,,,,,,,,,,,,,,,,,,,,,,,,,
666628,001,2022-11-20_23h52.20.154,Info_measure_main_exp,2022.2.2,Win32,60.08893162,,,,,,,,,,,,,,,,,,masks/mask_002.jpg,,,,,,,,,,,,,,,,,,,,,,,,,,,,,,,,,,,,,,,,,,,,,,,,0,2,2,1,1,,,,,,,,,,,,,,,,,,,,,,,,,,,,,,,,,,,,,,,,,
666628,001,2022-11-20_23h52.20.154,Info_measure_main_exp,2022.2.2,Win32,60.08893162,,,,,,,,,,,,,,,,,,masks/mask_003.jpg,,,,,,,,,,,,,,,,,,,,,,,,,,,,,,,,,,,,,,,,,,,,,,,,0,3,3,2,1,,,,,,,,,,,,,,,,,,,,,,,,,,,,,,,,,,,,,,,,,
666628,001,2022-11-20_23h52.20.154,Info_measure_main_exp,2022.2.2,Win32,60.08893162,,,,,,,,,,,,,,,,,,masks/mask_004.jpg,,,,,,,,,,,,,,,,,,,,,,,,,,,,,,,,,,,,,,,,,,,,,,,,0,4,4,3,1,,,,,,,,,,,,,,,,,,,,,,,,,,,,,,,,,,,,,,,,,
666628,001,2022-11-20_23h52.20.154,Info_measure_main_exp,2022.2.2,Win32,60.08893162,,,,,,,,,,,,,,,,,,,,,,,,,,,,,,4,2.7169,1,,,,,,,,,,,,0,131,5,5,2274,2238,absent_patch/patch0002274.jpg,absent_patch/patch0002238.jpg,,,,,,,,,,,,,,,,,,,,0.028703704,-0.102777778,1,0,0,response3disk,6,0.002777778,-0.006481481,1,0,0,center_square,0,5,5,91,1,,,,,,,,,,,,,,,,,,,,,,,
666628,001,2022-11-20_23h52.20.154,Info_measure_main_exp,2022.2.2,Win32,60.08893162,,,,,,,,,,,,,,,,,,masks/mask_004.jpg,,,,,,,,,,,,,,,,,,,,,,,,,,,,,,,,,,,,,,,,,,,0,0,0,3,1,,,,,,,,,,,,,,,,,,,,,,,,,,,,,,,,,,,,,,,,,,,,,,
666628,001,2022-11-20_23h52.20.154,Info_measure_main_exp,2022.2.2,Win32,60.08893162,,,,,,,,,,,,,,,,,,masks/mask_001.jpg,,,,,,,,,,,,,,,,,,,,,,,,,,,,,,,,,,,,,,,,,,,0,1,1,0,1,,,,,,,,,,,,,,,,,,,,,,,,,,,,,,,,,,,,,,,,,,,,,,
666628,001,2022-11-20_23h52.20.154,Info_measure_main_exp,2022.2.2,Win32,60.08893162,,,,,,,,,,,,,,,,,,masks/mask_005.jpg,,,,,,,,,,,,,,,,,,,,,,,,,,,,,,,,,,,,,,,,,,,0,2,2,4,1,,,,,,,,,,,,,,,,,,,,,,,,,,,,,,,,,,,,,,,,,,,,,,
666628,001,2022-11-20_23h52.20.154,Info_measure_main_exp,2022.2.2,Win32,60.08893162,,,,,,,,,,,,,,,,,,masks/mask_002.jpg,,,,,,,,,,,,,,,,,,,,,,,,,,,,,,,,,,,,,,,,,,,0,3,3,1,1,,,,,,,,,,,,,,,,,,,,,,,,,,,,,,,,,,,,,,,,,,,,,,
666628,001,2022-11-20_23h52.20.154,Info_measure_main_exp,2022.2.2,Win32,60.08893162,,,,,,,,,,,,,,,,,,masks/mask_003.jpg,,,,,,,,,,,,,,,,,,,,,,,,,,,,,,,,,,,,,,,,,,,0,4,4,2,1,,,,,,,,,,,,,,,,,,,,,,,,,,,,,,,,,,,,,,,,,,,,,,
666628,001,2022-11-20_23h52.20.154,Info_measure_main_exp,2022.2.2,Win32,60.08893162,,,,,,,,,,,,,,,,,,masks/mask_003.jpg,,,,,,,,,,,,,,,,,,,,,,,,,,,,,,,,,,,,,,,,,,,,,,,,0,0,0,2,1,,,,,,,,,,,,,,,,,,,,,,,,,,,,,,,,,,,,,,,,,
666628,001,2022-11-20_23h52.20.154,Info_measure_main_exp,2022.2.2,Win32,60.08893162,,,,,,,,,,,,,,,,,,masks/mask_005.jpg,,,,,,,,,,,,,,,,,,,,,,,,,,,,,,,,,,,,,,,,,,,,,,,,0,1,1,4,1,,,,,,,,,,,,,,,,,,,,,,,,,,,,,,,,,,,,,,,,,
666628,001,2022-11-20_23h52.20.154,Info_measure_main_exp,2022.2.2,Win32,60.08893162,,,,,,,,,,,,,,,,,,masks/mask_001.jpg,,,,,,,,,,,,,,,,,,,,,,,,,,,,,,,,,,,,,,,,,,,,,,,,0,2,2,0,1,,,,,,,,,,,,,,,,,,,,,,,,,,,,,,,,,,,,,,,,,
666628,001,2022-11-20_23h52.20.154,Info_measure_main_exp,2022.2.2,Win32,60.08893162,,,,,,,,,,,,,,,,,,masks/mask_004.jpg,,,,,,,,,,,,,,,,,,,,,,,,,,,,,,,,,,,,,,,,,,,,,,,,0,3,3,3,1,,,,,,,,,,,,,,,,,,,,,,,,,,,,,,,,,,,,,,,,,
666628,001,2022-11-20_23h52.20.154,Info_measure_main_exp,2022.2.2,Win32,60.08893162,,,,,,,,,,,,,,,,,,masks/mask_002.jpg,,,,,,,,,,,,,,,,,,,,,,,,,,,,,,,,,,,,,,,,,,,,,,,,0,4,4,1,1,,,,,,,,,,,,,,,,,,,,,,,,,,,,,,,,,,,,,,,,,
666628,001,2022-11-20_23h52.20.154,Info_measure_main_exp,2022.2.2,Win32,60.08893162,,,,,,,,,,,,,,,,,,,,,,,,,,,,,,0,1.6339,1,,,,,,,,,,,,0,131,5,5,2298,2298,absent_patch/patch0002298.jpg,absent_patch/patch0002298.jpg,,,,,,,,,,,,,,,,,,,,-0.061111111,0.108333333,1,0,0,response7disk,7,0,0,1,0,0,center_square,0,6,6,37,1,,,,,,,,,,,,,,,,,,,,,,,
666628,001,2022-11-20_23h52.20.154,Info_measure_main_exp,2022.2.2,Win32,60.08893162,,,,,,,,,,,,,,,,,,masks/mask_001.jpg,,,,,,,,,,,,,,,,,,,,,,,,,,,,,,,,,,,,,,,,,,,0,0,0,0,1,,,,,,,,,,,,,,,,,,,,,,,,,,,,,,,,,,,,,,,,,,,,,,
666628,001,2022-11-20_23h52.20.154,Info_measure_main_exp,2022.2.2,Win32,60.08893162,,,,,,,,,,,,,,,,,,masks/mask_004.jpg,,,,,,,,,,,,,,,,,,,,,,,,,,,,,,,,,,,,,,,,,,,0,1,1,3,1,,,,,,,,,,,,,,,,,,,,,,,,,,,,,,,,,,,,,,,,,,,,,,
666628,001,2022-11-20_23h52.20.154,Info_measure_main_exp,2022.2.2,Win32,60.08893162,,,,,,,,,,,,,,,,,,masks/mask_005.jpg,,,,,,,,,,,,,,,,,,,,,,,,,,,,,,,,,,,,,,,,,,,0,2,2,4,1,,,,,,,,,,,,,,,,,,,,,,,,,,,,,,,,,,,,,,,,,,,,,,
666628,001,2022-11-20_23h52.20.154,Info_measure_main_exp,2022.2.2,Win32,60.08893162,,,,,,,,,,,,,,,,,,masks/mask_002.jpg,,,,,,,,,,,,,,,,,,,,,,,,,,,,,,,,,,,,,,,,,,,0,3,3,1,1,,,,,,,,,,,,,,,,,,,,,,,,,,,,,,,,,,,,,,,,,,,,,,
666628,001,2022-11-20_23h52.20.154,Info_measure_main_exp,2022.2.2,Win32,60.08893162,,,,,,,,,,,,,,,,,,masks/mask_003.jpg,,,,,,,,,,,,,,,,,,,,,,,,,,,,,,,,,,,,,,,,,,,0,4,4,2,1,,,,,,,,,,,,,,,,,,,,,,,,,,,,,,,,,,,,,,,,,,,,,,
666628,001,2022-11-20_23h52.20.154,Info_measure_main_exp,2022.2.2,Win32,60.08893162,,,,,,,,,,,,,,,,,,masks/mask_005.jpg,,,,,,,,,,,,,,,,,,,,,,,,,,,,,,,,,,,,,,,,,,,,,,,,0,0,0,4,1,,,,,,,,,,,,,,,,,,,,,,,,,,,,,,,,,,,,,,,,,
666628,001,2022-11-20_23h52.20.154,Info_measure_main_exp,2022.2.2,Win32,60.08893162,,,,,,,,,,,,,,,,,,masks/mask_004.jpg,,,,,,,,,,,,,,,,,,,,,,,,,,,,,,,,,,,,,,,,,,,,,,,,0,1,1,3,1,,,,,,,,,,,,,,,,,,,,,,,,,,,,,,,,,,,,,,,,,
666628,001,2022-11-20_23h52.20.154,Info_measure_main_exp,2022.2.2,Win32,60.08893162,,,,,,,,,,,,,,,,,,masks/mask_003.jpg,,,,,,,,,,,,,,,,,,,,,,,,,,,,,,,,,,,,,,,,,,,,,,,,0,2,2,2,1,,,,,,,,,,,,,,,,,,,,,,,,,,,,,,,,,,,,,,,,,
666628,001,2022-11-20_23h52.20.154,Info_measure_main_exp,2022.2.2,Win32,60.08893162,,,,,,,,,,,,,,,,,,masks/mask_001.jpg,,,,,,,,,,,,,,,,,,,,,,,,,,,,,,,,,,,,,,,,,,,,,,,,0,3,3,0,1,,,,,,,,,,,,,,,,,,,,,,,,,,,,,,,,,,,,,,,,,
666628,001,2022-11-20_23h52.20.154,Info_measure_main_exp,2022.2.2,Win32,60.08893162,,,,,,,,,,,,,,,,,,masks/mask_002.jpg,,,,,,,,,,,,,,,,,,,,,,,,,,,,,,,,,,,,,,,,,,,,,,,,0,4,4,1,1,,,,,,,,,,,,,,,,,,,,,,,,,,,,,,,,,,,,,,,,,
666628,001,2022-11-20_23h52.20.154,Info_measure_main_exp,2022.2.2,Win32,60.08893162,,,,,,,,,,,,,,,,,,,,,,,,,,,,,,5,7.2507,1,,,,,,,,,,,,0,131,5,5,2082,2166,absent_patch/patch0002082.jpg,absent_patch/patch0002166.jpg,,,,,,,,,,,,,,,,,,,,0.093518519,-0.080555556,1,0,0,response3disk,8,0.002777778,0.00462963,1,0,0,center_square,0,7,7,43,1,,,,,,,,,,,,,,,,,,,,,,,
666628,001,2022-11-20_23h52.20.154,Info_measure_main_exp,2022.2.2,Win32,60.08893162,,,,,,,,,,,,,,,,,,masks/mask_002.jpg,,,,,,,,,,,,,,,,,,,,,,,,,,,,,,,,,,,,,,,,,,,0,0,0,1,1,,,,,,,,,,,,,,,,,,,,,,,,,,,,,,,,,,,,,,,,,,,,,,
666628,001,2022-11-20_23h52.20.154,Info_measure_main_exp,2022.2.2,Win32,60.08893162,,,,,,,,,,,,,,,,,,masks/mask_005.jpg,,,,,,,,,,,,,,,,,,,,,,,,,,,,,,,,,,,,,,,,,,,0,1,1,4,1,,,,,,,,,,,,,,,,,,,,,,,,,,,,,,,,,,,,,,,,,,,,,,
666628,001,2022-11-20_23h52.20.154,Info_measure_main_exp,2022.2.2,Win32,60.08893162,,,,,,,,,,,,,,,,,,masks/mask_003.jpg,,,,,,,,,,,,,,,,,,,,,,,,,,,,,,,,,,,,,,,,,,,0,2,2,2,1,,,,,,,,,,,,,,,,,,,,,,,,,,,,,,,,,,,,,,,,,,,,,,
666628,001,2022-11-20_23h52.20.154,Info_measure_main_exp,2022.2.2,Win32,60.08893162,,,,,,,,,,,,,,,,,,masks/mask_004.jpg,,,,,,,,,,,,,,,,,,,,,,,,,,,,,,,,,,,,,,,,,,,0,3,3,3,1,,,,,,,,,,,,,,,,,,,,,,,,,,,,,,,,,,,,,,,,,,,,,,
666628,001,2022-11-20_23h52.20.154,Info_measure_main_exp,2022.2.2,Win32,60.08893162,,,,,,,,,,,,,,,,,,masks/mask_001.jpg,,,,,,,,,,,,,,,,,,,,,,,,,,,,,,,,,,,,,,,,,,,0,4,4,0,1,,,,,,,,,,,,,,,,,,,,,,,,,,,,,,,,,,,,,,,,,,,,,,
666628,001,2022-11-20_23h52.20.154,Info_measure_main_exp,2022.2.2,Win32,60.08893162,,,,,,,,,,,,,,,,,,masks/mask_003.jpg,,,,,,,,,,,,,,,,,,,,,,,,,,,,,,,,,,,,,,,,,,,,,,,,0,0,0,2,1,,,,,,,,,,,,,,,,,,,,,,,,,,,,,,,,,,,,,,,,,
666628,001,2022-11-20_23h52.20.154,Info_measure_main_exp,2022.2.2,Win32,60.08893162,,,,,,,,,,,,,,,,,,masks/mask_004.jpg,,,,,,,,,,,,,,,,,,,,,,,,,,,,,,,,,,,,,,,,,,,,,,,,0,1,1,3,1,,,,,,,,,,,,,,,,,,,,,,,,,,,,,,,,,,,,,,,,,
666628,001,2022-11-20_23h52.20.154,Info_measure_main_exp,2022.2.2,Win32,60.08893162,,,,,,,,,,,,,,,,,,masks/mask_002.jpg,,,,,,,,,,,,,,,,,,,,,,,,,,,,,,,,,,,,,,,,,,,,,,,,0,2,2,1,1,,,,,,,,,,,,,,,,,,,,,,,,,,,,,,,,,,,,,,,,,
666628,001,2022-11-20_23h52.20.154,Info_measure_main_exp,2022.2.2,Win32,60.08893162,,,,,,,,,,,,,,,,,,masks/mask_001.jpg,,,,,,,,,,,,,,,,,,,,,,,,,,,,,,,,,,,,,,,,,,,,,,,,0,3,3,0,1,,,,,,,,,,,,,,,,,,,,,,,,,,,,,,,,,,,,,,,,,
666628,001,2022-11-20_23h52.20.154,Info_measure_main_exp,2022.2.2,Win32,60.08893162,,,,,,,,,,,,,,,,,,masks/mask_005.jpg,,,,,,,,,,,,,,,,,,,,,,,,,,,,,,,,,,,,,,,,,,,,,,,,0,4,4,4,1,,,,,,,,,,,,,,,,,,,,,,,,,,,,,,,,,,,,,,,,,
666628,001,2022-11-20_23h52.20.154,Info_measure_main_exp,2022.2.2,Win32,60.08893162,,,,,,,,,,,,,,,,,,,,,,,,,,,,,,7,0.8667,1,,,,,,,,,,,,1,131,5,5,1,2178,present_patch/cong_131_5_a.jpg,absent_patch/patch0002178.jpg,,,,,,,,,,,,,,,,,,,,0.028703704,0.109259259,1,0,0,response1disk,9,0.002777778,0,1,0,0,center_square,0,8,8,40,1,,,,,,,,,,,,,,,,,,,,,,,
666628,001,2022-11-20_23h52.20.154,Info_measure_main_exp,2022.2.2,Win32,60.08893162,,,,,,,,,,,,,,,,,,masks/mask_005.jpg,,,,,,,,,,,,,,,,,,,,,,,,,,,,,,,,,,,,,,,,,,,0,0,0,4,1,,,,,,,,,,,,,,,,,,,,,,,,,,,,,,,,,,,,,,,,,,,,,,
666628,001,2022-11-20_23h52.20.154,Info_measure_main_exp,2022.2.2,Win32,60.08893162,,,,,,,,,,,,,,,,,,masks/mask_003.jpg,,,,,,,,,,,,,,,,,,,,,,,,,,,,,,,,,,,,,,,,,,,0,1,1,2,1,,,,,,,,,,,,,,,,,,,,,,,,,,,,,,,,,,,,,,,,,,,,,,
666628,001,2022-11-20_23h52.20.154,Info_measure_main_exp,2022.2.2,Win32,60.08893162,,,,,,,,,,,,,,,,,,masks/mask_001.jpg,,,,,,,,,,,,,,,,,,,,,,,,,,,,,,,,,,,,,,,,,,,0,2,2,0,1,,,,,,,,,,,,,,,,,,,,,,,,,,,,,,,,,,,,,,,,,,,,,,
666628,001,2022-11-20_23h52.20.154,Info_measure_main_exp,2022.2.2,Win32,60.08893162,,,,,,,,,,,,,,,,,,masks/mask_004.jpg,,,,,,,,,,,,,,,,,,,,,,,,,,,,,,,,,,,,,,,,,,,0,3,3,3,1,,,,,,,,,,,,,,,,,,,,,,,,,,,,,,,,,,,,,,,,,,,,,,
666628,001,2022-11-20_23h52.20.154,Info_measure_main_exp,2022.2.2,Win32,60.08893162,,,,,,,,,,,,,,,,,,masks/mask_002.jpg,,,,,,,,,,,,,,,,,,,,,,,,,,,,,,,,,,,,,,,,,,,0,4,4,1,1,,,,,,,,,,,,,,,,,,,,,,,,,,,,,,,,,,,,,,,,,,,,,,
666628,001,2022-11-20_23h52.20.154,Info_measure_main_exp,2022.2.2,Win32,60.08893162,,,,,,,,,,,,,,,,,,masks/mask_001.jpg,,,,,,,,,,,,,,,,,,,,,,,,,,,,,,,,,,,,,,,,,,,,,,,,0,0,0,0,1,,,,,,,,,,,,,,,,,,,,,,,,,,,,,,,,,,,,,,,,,
666628,001,2022-11-20_23h52.20.154,Info_measure_main_exp,2022.2.2,Win32,60.08893162,,,,,,,,,,,,,,,,,,masks/mask_005.jpg,,,,,,,,,,,,,,,,,,,,,,,,,,,,,,,,,,,,,,,,,,,,,,,,0,1,1,4,1,,,,,,,,,,,,,,,,,,,,,,,,,,,,,,,,,,,,,,,,,
666628,001,2022-11-20_23h52.20.154,Info_measure_main_exp,2022.2.2,Win32,60.08893162,,,,,,,,,,,,,,,,,,masks/mask_004.jpg,,,,,,,,,,,,,,,,,,,,,,,,,,,,,,,,,,,,,,,,,,,,,,,,0,2,2,3,1,,,,,,,,,,,,,,,,,,,,,,,,,,,,,,,,,,,,,,,,,
666628,001,2022-11-20_23h52.20.154,Info_measure_main_exp,2022.2.2,Win32,60.08893162,,,,,,,,,,,,,,,,,,masks/mask_002.jpg,,,,,,,,,,,,,,,,,,,,,,,,,,,,,,,,,,,,,,,,,,,,,,,,0,3,3,1,1,,,,,,,,,,,,,,,,,,,,,,,,,,,,,,,,,,,,,,,,,
666628,001,2022-11-20_23h52.20.154,Info_measure_main_exp,2022.2.2,Win32,60.08893162,,,,,,,,,,,,,,,,,,masks/mask_003.jpg,,,,,,,,,,,,,,,,,,,,,,,,,,,,,,,,,,,,,,,,,,,,,,,,0,4,4,2,1,,,,,,,,,,,,,,,,,,,,,,,,,,,,,,,,,,,,,,,,,
666628,001,2022-11-20_23h52.20.154,Info_measure_main_exp,2022.2.2,Win32,60.08893162,,,,,,,,,,,,,,,,,,,,,,,,,,,,,,7,0.8849,1,,,,,,,,,,,,0,131,5,5,2214,1986,absent_patch/patch0002214.jpg,absent_patch/patch0001986.jpg,,,,,,,,,,,,,,,,,,,,0.069444444,0.126851852,1,0,0,response1disk,10,-0.002777778,0.005555556,1,0,0,center_square,0,9,9,34,1,,,,,,,,,,,,,,,,,,,,,,,
666628,001,2022-11-20_23h52.20.154,Info_measure_main_exp,2022.2.2,Win32,60.08893162,,,,,,,,,,,,,,,,,,masks/mask_002.jpg,,,,,,,,,,,,,,,,,,,,,,,,,,,,,,,,,,,,,,,,,,,0,0,0,1,1,,,,,,,,,,,,,,,,,,,,,,,,,,,,,,,,,,,,,,,,,,,,,,
666628,001,2022-11-20_23h52.20.154,Info_measure_main_exp,2022.2.2,Win32,60.08893162,,,,,,,,,,,,,,,,,,masks/mask_005.jpg,,,,,,,,,,,,,,,,,,,,,,,,,,,,,,,,,,,,,,,,,,,0,1,1,4,1,,,,,,,,,,,,,,,,,,,,,,,,,,,,,,,,,,,,,,,,,,,,,,
666628,001,2022-11-20_23h52.20.154,Info_measure_main_exp,2022.2.2,Win32,60.08893162,,,,,,,,,,,,,,,,,,masks/mask_001.jpg,,,,,,,,,,,,,,,,,,,,,,,,,,,,,,,,,,,,,,,,,,,0,2,2,0,1,,,,,,,,,,,,,,,,,,,,,,,,,,,,,,,,,,,,,,,,,,,,,,
666628,001,2022-11-20_23h52.20.154,Info_measure_main_exp,2022.2.2,Win32,60.08893162,,,,,,,,,,,,,,,,,,masks/mask_003.jpg,,,,,,,,,,,,,,,,,,,,,,,,,,,,,,,,,,,,,,,,,,,0,3,3,2,1,,,,,,,,,,,,,,,,,,,,,,,,,,,,,,,,,,,,,,,,,,,,,,
666628,001,2022-11-20_23h52.20.154,Info_measure_main_exp,2022.2.2,Win32,60.08893162,,,,,,,,,,,,,,,,,,masks/mask_004.jpg,,,,,,,,,,,,,,,,,,,,,,,,,,,,,,,,,,,,,,,,,,,0,4,4,3,1,,,,,,,,,,,,,,,,,,,,,,,,,,,,,,,,,,,,,,,,,,,,,,
666628,001,2022-11-20_23h52.20.154,Info_measure_main_exp,2022.2.2,Win32,60.08893162,,,,,,,,,,,,,,,,,,masks/mask_002.jpg,,,,,,,,,,,,,,,,,,,,,,,,,,,,,,,,,,,,,,,,,,,,,,,,0,0,0,1,1,,,,,,,,,,,,,,,,,,,,,,,,,,,,,,,,,,,,,,,,,
666628,001,2022-11-20_23h52.20.154,Info_measure_main_exp,2022.2.2,Win32,60.08893162,,,,,,,,,,,,,,,,,,masks/mask_003.jpg,,,,,,,,,,,,,,,,,,,,,,,,,,,,,,,,,,,,,,,,,,,,,,,,0,1,1,2,1,,,,,,,,,,,,,,,,,,,,,,,,,,,,,,,,,,,,,,,,,
666628,001,2022-11-20_23h52.20.154,Info_measure_main_exp,2022.2.2,Win32,60.08893162,,,,,,,,,,,,,,,,,,masks/mask_001.jpg,,,,,,,,,,,,,,,,,,,,,,,,,,,,,,,,,,,,,,,,,,,,,,,,0,2,2,0,1,,,,,,,,,,,,,,,,,,,,,,,,,,,,,,,,,,,,,,,,,
666628,001,2022-11-20_23h52.20.154,Info_measure_main_exp,2022.2.2,Win32,60.08893162,,,,,,,,,,,,,,,,,,masks/mask_004.jpg,,,,,,,,,,,,,,,,,,,,,,,,,,,,,,,,,,,,,,,,,,,,,,,,0,3,3,3,1,,,,,,,,,,,,,,,,,,,,,,,,,,,,,,,,,,,,,,,,,
666628,001,2022-11-20_23h52.20.154,Info_measure_main_exp,2022.2.2,Win32,60.08893162,,,,,,,,,,,,,,,,,,masks/mask_005.jpg,,,,,,,,,,,,,,,,,,,,,,,,,,,,,,,,,,,,,,,,,,,,,,,,0,4,4,4,1,,,,,,,,,,,,,,,,,,,,,,,,,,,,,,,,,,,,,,,,,
666628,001,2022-11-20_23h52.20.154,Info_measure_main_exp,2022.2.2,Win32,60.08893162,,,,,,,,,,,,,,,,,,,,,,,,,,,,,,0,0.7668,1,,,,,,,,,,,,0,131,5,5,2190,2190,absent_patch/patch0002190.jpg,absent_patch/patch0002190.jpg,,,,,,,,,,,,,,,,,,,,-0.02962963,0.102777778,1,0,0,response7disk,11,0.002777778,0.00462963,1,0,0,center_square,0,10,10,86,1,,,,,,,,,,,,,,,,,,,,,,,
666628,001,2022-11-20_23h52.20.154,Info_measure_main_exp,2022.2.2,Win32,60.08893162,,,,,,,,,,,,,,,,,,masks/mask_005.jpg,,,,,,,,,,,,,,,,,,,,,,,,,,,,,,,,,,,,,,,,,,,0,0,0,4,1,,,,,,,,,,,,,,,,,,,,,,,,,,,,,,,,,,,,,,,,,,,,,,
666628,001,2022-11-20_23h52.20.154,Info_measure_main_exp,2022.2.2,Win32,60.08893162,,,,,,,,,,,,,,,,,,masks/mask_003.jpg,,,,,,,,,,,,,,,,,,,,,,,,,,,,,,,,,,,,,,,,,,,0,1,1,2,1,,,,,,,,,,,,,,,,,,,,,,,,,,,,,,,,,,,,,,,,,,,,,,
666628,001,2022-11-20_23h52.20.154,Info_measure_main_exp,2022.2.2,Win32,60.08893162,,,,,,,,,,,,,,,,,,masks/mask_002.jpg,,,,,,,,,,,,,,,,,,,,,,,,,,,,,,,,,,,,,,,,,,,0,2,2,1,1,,,,,,,,,,,,,,,,,,,,,,,,,,,,,,,,,,,,,,,,,,,,,,
666628,001,2022-11-20_23h52.20.154,Info_measure_main_exp,2022.2.2,Win32,60.08893162,,,,,,,,,,,,,,,,,,masks/mask_001.jpg,,,,,,,,,,,,,,,,,,,,,,,,,,,,,,,,,,,,,,,,,,,0,3,3,0,1,,,,,,,,,,,,,,,,,,,,,,,,,,,,,,,,,,,,,,,,,,,,,,
666628,001,2022-11-20_23h52.20.154,Info_measure_main_exp,2022.2.2,Win32,60.08893162,,,,,,,,,,,,,,,,,,masks/mask_004.jpg,,,,,,,,,,,,,,,,,,,,,,,,,,,,,,,,,,,,,,,,,,,0,4,4,3,1,,,,,,,,,,,,,,,,,,,,,,,,,,,,,,,,,,,,,,,,,,,,,,
666628,001,2022-11-20_23h52.20.154,Info_measure_main_exp,2022.2.2,Win32,60.08893162,,,,,,,,,,,,,,,,,,masks/mask_005.jpg,,,,,,,,,,,,,,,,,,,,,,,,,,,,,,,,,,,,,,,,,,,,,,,,0,0,0,4,1,,,,,,,,,,,,,,,,,,,,,,,,,,,,,,,,,,,,,,,,,
666628,001,2022-11-20_23h52.20.154,Info_measure_main_exp,2022.2.2,Win32,60.08893162,,,,,,,,,,,,,,,,,,masks/mask_004.jpg,,,,,,,,,,,,,,,,,,,,,,,,,,,,,,,,,,,,,,,,,,,,,,,,0,1,1,3,1,,,,,,,,,,,,,,,,,,,,,,,,,,,,,,,,,,,,,,,,,
666628,001,2022-11-20_23h52.20.154,Info_measure_main_exp,2022.2.2,Win32,60.08893162,,,,,,,,,,,,,,,,,,masks/mask_001.jpg,,,,,,,,,,,,,,,,,,,,,,,,,,,,,,,,,,,,,,,,,,,,,,,,0,2,2,0,1,,,,,,,,,,,,,,,,,,,,,,,,,,,,,,,,,,,,,,,,,
666628,001,2022-11-20_23h52.20.154,Info_measure_main_exp,2022.2.2,Win32,60.08893162,,,,,,,,,,,,,,,,,,masks/mask_003.jpg,,,,,,,,,,,,,,,,,,,,,,,,,,,,,,,,,,,,,,,,,,,,,,,,0,3,3,2,1,,,,,,,,,,,,,,,,,,,,,,,,,,,,,,,,,,,,,,,,,
666628,001,2022-11-20_23h52.20.154,Info_measure_main_exp,2022.2.2,Win32,60.08893162,,,,,,,,,,,,,,,,,,masks/mask_002.jpg,,,,,,,,,,,,,,,,,,,,,,,,,,,,,,,,,,,,,,,,,,,,,,,,0,4,4,1,1,,,,,,,,,,,,,,,,,,,,,,,,,,,,,,,,,,,,,,,,,
666628,001,2022-11-20_23h52.20.154,Info_measure_main_exp,2022.2.2,Win32,60.08893162,,,,,,,,,,,,,,,,,,,,,,,,,,,,,,6,1.2667,1,,,,,,,,,,,,0,131,5,5,2082,2238,absent_patch/patch0002082.jpg,absent_patch/patch0002238.jpg,,,,,,,,,,,,,,,,,,,,0.112962963,0.042592593,1,0,0,response1disk,12,0.002777778,0.009259259,1,0,0,center_square,0,11,11,22,1,,,,,,,,,,,,,,,,,,,,,,,
666628,001,2022-11-20_23h52.20.154,Info_measure_main_exp,2022.2.2,Win32,60.08893162,,,,,,,,,,,,,,,,,,masks/mask_003.jpg,,,,,,,,,,,,,,,,,,,,,,,,,,,,,,,,,,,,,,,,,,,0,0,0,2,1,,,,,,,,,,,,,,,,,,,,,,,,,,,,,,,,,,,,,,,,,,,,,,
666628,001,2022-11-20_23h52.20.154,Info_measure_main_exp,2022.2.2,Win32,60.08893162,,,,,,,,,,,,,,,,,,masks/mask_005.jpg,,,,,,,,,,,,,,,,,,,,,,,,,,,,,,,,,,,,,,,,,,,0,1,1,4,1,,,,,,,,,,,,,,,,,,,,,,,,,,,,,,,,,,,,,,,,,,,,,,
666628,001,2022-11-20_23h52.20.154,Info_measure_main_exp,2022.2.2,Win32,60.08893162,,,,,,,,,,,,,,,,,,masks/mask_004.jpg,,,,,,,,,,,,,,,,,,,,,,,,,,,,,,,,,,,,,,,,,,,0,2,2,3,1,,,,,,,,,,,,,,,,,,,,,,,,,,,,,,,,,,,,,,,,,,,,,,
666628,001,2022-11-20_23h52.20.154,Info_measure_main_exp,2022.2.2,Win32,60.08893162,,,,,,,,,,,,,,,,,,masks/mask_001.jpg,,,,,,,,,,,,,,,,,,,,,,,,,,,,,,,,,,,,,,,,,,,0,3,3,0,1,,,,,,,,,,,,,,,,,,,,,,,,,,,,,,,,,,,,,,,,,,,,,,
666628,001,2022-11-20_23h52.20.154,Info_measure_main_exp,2022.2.2,Win32,60.08893162,,,,,,,,,,,,,,,,,,masks/mask_002.jpg,,,,,,,,,,,,,,,,,,,,,,,,,,,,,,,,,,,,,,,,,,,0,4,4,1,1,,,,,,,,,,,,,,,,,,,,,,,,,,,,,,,,,,,,,,,,,,,,,,
666628,001,2022-11-20_23h52.20.154,Info_measure_main_exp,2022.2.2,Win32,60.08893162,,,,,,,,,,,,,,,,,,masks/mask_004.jpg,,,,,,,,,,,,,,,,,,,,,,,,,,,,,,,,,,,,,,,,,,,,,,,,0,0,0,3,1,,,,,,,,,,,,,,,,,,,,,,,,,,,,,,,,,,,,,,,,,
666628,001,2022-11-20_23h52.20.154,Info_measure_main_exp,2022.2.2,Win32,60.08893162,,,,,,,,,,,,,,,,,,masks/mask_005.jpg,,,,,,,,,,,,,,,,,,,,,,,,,,,,,,,,,,,,,,,,,,,,,,,,0,1,1,4,1,,,,,,,,,,,,,,,,,,,,,,,,,,,,,,,,,,,,,,,,,
666628,001,2022-11-20_23h52.20.154,Info_measure_main_exp,2022.2.2,Win32,60.08893162,,,,,,,,,,,,,,,,,,masks/mask_002.jpg,,,,,,,,,,,,,,,,,,,,,,,,,,,,,,,,,,,,,,,,,,,,,,,,0,2,2,1,1,,,,,,,,,,,,,,,,,,,,,,,,,,,,,,,,,,,,,,,,,
666628,001,2022-11-20_23h52.20.154,Info_measure_main_exp,2022.2.2,Win32,60.08893162,,,,,,,,,,,,,,,,,,masks/mask_003.jpg,,,,,,,,,,,,,,,,,,,,,,,,,,,,,,,,,,,,,,,,,,,,,,,,0,3,3,2,1,,,,,,,,,,,,,,,,,,,,,,,,,,,,,,,,,,,,,,,,,
666628,001,2022-11-20_23h52.20.154,Info_measure_main_exp,2022.2.2,Win32,60.08893162,,,,,,,,,,,,,,,,,,masks/mask_001.jpg,,,,,,,,,,,,,,,,,,,,,,,,,,,,,,,,,,,,,,,,,,,,,,,,0,4,4,0,1,,,,,,,,,,,,,,,,,,,,,,,,,,,,,,,,,,,,,,,,,
666628,001,2022-11-20_23h52.20.154,Info_measure_main_exp,2022.2.2,Win32,60.08893162,,,,,,,,,,,,,,,,,,,,,,,,,,,,,,6,1.6001,1,,,,,,,,,,,,0,131,5,5,2190,1950,absent_patch/patch0002190.jpg,absent_patch/patch0001950.jpg,,,,,,,,,,,,,,,,,,,,0.103703704,0.040740741,1,0,0,response1disk,13,0.010185185,0.003703704,1,0,0,center_square,0,12,12,73,1,,,,,,,,,,,,,,,,,,,,,,,
666628,001,2022-11-20_23h52.20.154,Info_measure_main_exp,2022.2.2,Win32,60.08893162,,,,,,,,,,,,,,,,,,masks/mask_001.jpg,,,,,,,,,,,,,,,,,,,,,,,,,,,,,,,,,,,,,,,,,,,0,0,0,0,1,,,,,,,,,,,,,,,,,,,,,,,,,,,,,,,,,,,,,,,,,,,,,,
666628,001,2022-11-20_23h52.20.154,Info_measure_main_exp,2022.2.2,Win32,60.08893162,,,,,,,,,,,,,,,,,,masks/mask_005.jpg,,,,,,,,,,,,,,,,,,,,,,,,,,,,,,,,,,,,,,,,,,,0,1,1,4,1,,,,,,,,,,,,,,,,,,,,,,,,,,,,,,,,,,,,,,,,,,,,,,
666628,001,2022-11-20_23h52.20.154,Info_measure_main_exp,2022.2.2,Win32,60.08893162,,,,,,,,,,,,,,,,,,masks/mask_003.jpg,,,,,,,,,,,,,,,,,,,,,,,,,,,,,,,,,,,,,,,,,,,0,2,2,2,1,,,,,,,,,,,,,,,,,,,,,,,,,,,,,,,,,,,,,,,,,,,,,,
666628,001,2022-11-20_23h52.20.154,Info_measure_main_exp,2022.2.2,Win32,60.08893162,,,,,,,,,,,,,,,,,,masks/mask_002.jpg,,,,,,,,,,,,,,,,,,,,,,,,,,,,,,,,,,,,,,,,,,,0,3,3,1,1,,,,,,,,,,,,,,,,,,,,,,,,,,,,,,,,,,,,,,,,,,,,,,
666628,001,2022-11-20_23h52.20.154,Info_measure_main_exp,2022.2.2,Win32,60.08893162,,,,,,,,,,,,,,,,,,masks/mask_004.jpg,,,,,,,,,,,,,,,,,,,,,,,,,,,,,,,,,,,,,,,,,,,0,4,4,3,1,,,,,,,,,,,,,,,,,,,,,,,,,,,,,,,,,,,,,,,,,,,,,,
666628,001,2022-11-20_23h52.20.154,Info_measure_main_exp,2022.2.2,Win32,60.08893162,,,,,,,,,,,,,,,,,,masks/mask_004.jpg,,,,,,,,,,,,,,,,,,,,,,,,,,,,,,,,,,,,,,,,,,,,,,,,0,0,0,3,1,,,,,,,,,,,,,,,,,,,,,,,,,,,,,,,,,,,,,,,,,
666628,001,2022-11-20_23h52.20.154,Info_measure_main_exp,2022.2.2,Win32,60.08893162,,,,,,,,,,,,,,,,,,masks/mask_002.jpg,,,,,,,,,,,,,,,,,,,,,,,,,,,,,,,,,,,,,,,,,,,,,,,,0,1,1,1,1,,,,,,,,,,,,,,,,,,,,,,,,,,,,,,,,,,,,,,,,,
666628,001,2022-11-20_23h52.20.154,Info_measure_main_exp,2022.2.2,Win32,60.08893162,,,,,,,,,,,,,,,,,,masks/mask_005.jpg,,,,,,,,,,,,,,,,,,,,,,,,,,,,,,,,,,,,,,,,,,,,,,,,0,2,2,4,1,,,,,,,,,,,,,,,,,,,,,,,,,,,,,,,,,,,,,,,,,
666628,001,2022-11-20_23h52.20.154,Info_measure_main_exp,2022.2.2,Win32,60.08893162,,,,,,,,,,,,,,,,,,masks/mask_001.jpg,,,,,,,,,,,,,,,,,,,,,,,,,,,,,,,,,,,,,,,,,,,,,,,,0,3,3,0,1,,,,,,,,,,,,,,,,,,,,,,,,,,,,,,,,,,,,,,,,,
666628,001,2022-11-20_23h52.20.154,Info_measure_main_exp,2022.2.2,Win32,60.08893162,,,,,,,,,,,,,,,,,,masks/mask_003.jpg,,,,,,,,,,,,,,,,,,,,,,,,,,,,,,,,,,,,,,,,,,,,,,,,0,4,4,2,1,,,,,,,,,,,,,,,,,,,,,,,,,,,,,,,,,,,,,,,,,
666628,001,2022-11-20_23h52.20.154,Info_measure_main_exp,2022.2.2,Win32,60.08893162,,,,,,,,,,,,,,,,,,,,,,,,,,,,,,7,1.5164,1,,,,,,,,,,,,1,131,5,5,2190,1,absent_patch/patch0002190.jpg,present_patch/cong_131_5_a.jpg,,,,,,,,,,,,,,,,,,,,0.061111111,0.117592593,1,0,0,response1disk,14,-0.001851852,0.008333333,1,0,0,center_square,0,13,13,64,1,,,,,,,,,,,,,,,,,,,,,,,
666628,001,2022-11-20_23h52.20.154,Info_measure_main_exp,2022.2.2,Win32,60.08893162,,,,,,,,,,,,,,,,,,masks/mask_005.jpg,,,,,,,,,,,,,,,,,,,,,,,,,,,,,,,,,,,,,,,,,,,0,0,0,4,1,,,,,,,,,,,,,,,,,,,,,,,,,,,,,,,,,,,,,,,,,,,,,,
666628,001,2022-11-20_23h52.20.154,Info_measure_main_exp,2022.2.2,Win32,60.08893162,,,,,,,,,,,,,,,,,,masks/mask_002.jpg,,,,,,,,,,,,,,,,,,,,,,,,,,,,,,,,,,,,,,,,,,,0,1,1,1,1,,,,,,,,,,,,,,,,,,,,,,,,,,,,,,,,,,,,,,,,,,,,,,
666628,001,2022-11-20_23h52.20.154,Info_measure_main_exp,2022.2.2,Win32,60.08893162,,,,,,,,,,,,,,,,,,masks/mask_001.jpg,,,,,,,,,,,,,,,,,,,,,,,,,,,,,,,,,,,,,,,,,,,0,2,2,0,1,,,,,,,,,,,,,,,,,,,,,,,,,,,,,,,,,,,,,,,,,,,,,,
666628,001,2022-11-20_23h52.20.154,Info_measure_main_exp,2022.2.2,Win32,60.08893162,,,,,,,,,,,,,,,,,,masks/mask_004.jpg,,,,,,,,,,,,,,,,,,,,,,,,,,,,,,,,,,,,,,,,,,,0,3,3,3,1,,,,,,,,,,,,,,,,,,,,,,,,,,,,,,,,,,,,,,,,,,,,,,
666628,001,2022-11-20_23h52.20.154,Info_measure_main_exp,2022.2.2,Win32,60.08893162,,,,,,,,,,,,,,,,,,masks/mask_003.jpg,,,,,,,,,,,,,,,,,,,,,,,,,,,,,,,,,,,,,,,,,,,0,4,4,2,1,,,,,,,,,,,,,,,,,,,,,,,,,,,,,,,,,,,,,,,,,,,,,,
666628,001,2022-11-20_23h52.20.154,Info_measure_main_exp,2022.2.2,Win32,60.08893162,,,,,,,,,,,,,,,,,,masks/mask_001.jpg,,,,,,,,,,,,,,,,,,,,,,,,,,,,,,,,,,,,,,,,,,,,,,,,0,0,0,0,1,,,,,,,,,,,,,,,,,,,,,,,,,,,,,,,,,,,,,,,,,
666628,001,2022-11-20_23h52.20.154,Info_measure_main_exp,2022.2.2,Win32,60.08893162,,,,,,,,,,,,,,,,,,masks/mask_003.jpg,,,,,,,,,,,,,,,,,,,,,,,,,,,,,,,,,,,,,,,,,,,,,,,,0,1,1,2,1,,,,,,,,,,,,,,,,,,,,,,,,,,,,,,,,,,,,,,,,,
666628,001,2022-11-20_23h52.20.154,Info_measure_main_exp,2022.2.2,Win32,60.08893162,,,,,,,,,,,,,,,,,,masks/mask_004.jpg,,,,,,,,,,,,,,,,,,,,,,,,,,,,,,,,,,,,,,,,,,,,,,,,0,2,2,3,1,,,,,,,,,,,,,,,,,,,,,,,,,,,,,,,,,,,,,,,,,
666628,001,2022-11-20_23h52.20.154,Info_measure_main_exp,2022.2.2,Win32,60.08893162,,,,,,,,,,,,,,,,,,masks/mask_005.jpg,,,,,,,,,,,,,,,,,,,,,,,,,,,,,,,,,,,,,,,,,,,,,,,,0,3,3,4,1,,,,,,,,,,,,,,,,,,,,,,,,,,,,,,,,,,,,,,,,,
666628,001,2022-11-20_23h52.20.154,Info_measure_main_exp,2022.2.2,Win32,60.08893162,,,,,,,,,,,,,,,,,,masks/mask_002.jpg,,,,,,,,,,,,,,,,,,,,,,,,,,,,,,,,,,,,,,,,,,,,,,,,0,4,4,1,1,,,,,,,,,,,,,,,,,,,,,,,,,,,,,,,,,,,,,,,,,
666628,001,2022-11-20_23h52.20.154,Info_measure_main_exp,2022.2.2,Win32,60.08893162,,,,,,,,,,,,,,,,,,,,,,,,,,,,,,7,0.7333,1,,,,,,,,,,,,0,131,5,5,1974,2214,absent_patch/patch0001974.jpg,absent_patch/patch0002214.jpg,,,,,,,,,,,,,,,,,,,,0.036111111,0.12037037,1,0,0,response1disk,15,0.003703704,0.001851852,1,0,0,center_square,0,14,14,24,1,,,,,,,,,,,,,,,,,,,,,,,
666628,001,2022-11-20_23h52.20.154,Info_measure_main_exp,2022.2.2,Win32,60.08893162,,,,,,,,,,,,,,,,,,masks/mask_004.jpg,,,,,,,,,,,,,,,,,,,,,,,,,,,,,,,,,,,,,,,,,,,0,0,0,3,1,,,,,,,,,,,,,,,,,,,,,,,,,,,,,,,,,,,,,,,,,,,,,,
666628,001,2022-11-20_23h52.20.154,Info_measure_main_exp,2022.2.2,Win32,60.08893162,,,,,,,,,,,,,,,,,,masks/mask_005.jpg,,,,,,,,,,,,,,,,,,,,,,,,,,,,,,,,,,,,,,,,,,,0,1,1,4,1,,,,,,,,,,,,,,,,,,,,,,,,,,,,,,,,,,,,,,,,,,,,,,
666628,001,2022-11-20_23h52.20.154,Info_measure_main_exp,2022.2.2,Win32,60.08893162,,,,,,,,,,,,,,,,,,masks/mask_003.jpg,,,,,,,,,,,,,,,,,,,,,,,,,,,,,,,,,,,,,,,,,,,0,2,2,2,1,,,,,,,,,,,,,,,,,,,,,,,,,,,,,,,,,,,,,,,,,,,,,,
666628,001,2022-11-20_23h52.20.154,Info_measure_main_exp,2022.2.2,Win32,60.08893162,,,,,,,,,,,,,,,,,,masks/mask_002.jpg,,,,,,,,,,,,,,,,,,,,,,,,,,,,,,,,,,,,,,,,,,,0,3,3,1,1,,,,,,,,,,,,,,,,,,,,,,,,,,,,,,,,,,,,,,,,,,,,,,
666628,001,2022-11-20_23h52.20.154,Info_measure_main_exp,2022.2.2,Win32,60.08893162,,,,,,,,,,,,,,,,,,masks/mask_001.jpg,,,,,,,,,,,,,,,,,,,,,,,,,,,,,,,,,,,,,,,,,,,0,4,4,0,1,,,,,,,,,,,,,,,,,,,,,,,,,,,,,,,,,,,,,,,,,,,,,,
666628,001,2022-11-20_23h52.20.154,Info_measure_main_exp,2022.2.2,Win32,60.08893162,,,,,,,,,,,,,,,,,,masks/mask_004.jpg,,,,,,,,,,,,,,,,,,,,,,,,,,,,,,,,,,,,,,,,,,,,,,,,0,0,0,3,1,,,,,,,,,,,,,,,,,,,,,,,,,,,,,,,,,,,,,,,,,
666628,001,2022-11-20_23h52.20.154,Info_measure_main_exp,2022.2.2,Win32,60.08893162,,,,,,,,,,,,,,,,,,masks/mask_002.jpg,,,,,,,,,,,,,,,,,,,,,,,,,,,,,,,,,,,,,,,,,,,,,,,,0,1,1,1,1,,,,,,,,,,,,,,,,,,,,,,,,,,,,,,,,,,,,,,,,,
666628,001,2022-11-20_23h52.20.154,Info_measure_main_exp,2022.2.2,Win32,60.08893162,,,,,,,,,,,,,,,,,,masks/mask_005.jpg,,,,,,,,,,,,,,,,,,,,,,,,,,,,,,,,,,,,,,,,,,,,,,,,0,2,2,4,1,,,,,,,,,,,,,,,,,,,,,,,,,,,,,,,,,,,,,,,,,
666628,001,2022-11-20_23h52.20.154,Info_measure_main_exp,2022.2.2,Win32,60.08893162,,,,,,,,,,,,,,,,,,masks/mask_001.jpg,,,,,,,,,,,,,,,,,,,,,,,,,,,,,,,,,,,,,,,,,,,,,,,,0,3,3,0,1,,,,,,,,,,,,,,,,,,,,,,,,,,,,,,,,,,,,,,,,,
666628,001,2022-11-20_23h52.20.154,Info_measure_main_exp,2022.2.2,Win32,60.08893162,,,,,,,,,,,,,,,,,,masks/mask_003.jpg,,,,,,,,,,,,,,,,,,,,,,,,,,,,,,,,,,,,,,,,,,,,,,,,0,4,4,2,1,,,,,,,,,,,,,,,,,,,,,,,,,,,,,,,,,,,,,,,,,
666628,001,2022-11-20_23h52.20.154,Info_measure_main_exp,2022.2.2,Win32,60.08893162,,,,,,,,,,,,,,,,,,,,,,,,,,,,,,4,1.567,1,,,,,,,,,,,,0,131,5,5,2274,2154,absent_patch/patch0002274.jpg,absent_patch/patch0002154.jpg,,,,,,,,,,,,,,,,,,,,0.099074074,-0.134259259,1,0,0,response3disk,16,-0.001851852,0.003703704,1,0,0,center_square,0,15,15,23,1,,,,,,,,,,,,,,,,,,,,,,,
666628,001,2022-11-20_23h52.20.154,Info_measure_main_exp,2022.2.2,Win32,60.08893162,,,,,,,,,,,,,,,,,,masks/mask_004.jpg,,,,,,,,,,,,,,,,,,,,,,,,,,,,,,,,,,,,,,,,,,,0,0,0,3,1,,,,,,,,,,,,,,,,,,,,,,,,,,,,,,,,,,,,,,,,,,,,,,
666628,001,2022-11-20_23h52.20.154,Info_measure_main_exp,2022.2.2,Win32,60.08893162,,,,,,,,,,,,,,,,,,masks/mask_005.jpg,,,,,,,,,,,,,,,,,,,,,,,,,,,,,,,,,,,,,,,,,,,0,1,1,4,1,,,,,,,,,,,,,,,,,,,,,,,,,,,,,,,,,,,,,,,,,,,,,,
666628,001,2022-11-20_23h52.20.154,Info_measure_main_exp,2022.2.2,Win32,60.08893162,,,,,,,,,,,,,,,,,,masks/mask_003.jpg,,,,,,,,,,,,,,,,,,,,,,,,,,,,,,,,,,,,,,,,,,,0,2,2,2,1,,,,,,,,,,,,,,,,,,,,,,,,,,,,,,,,,,,,,,,,,,,,,,
666628,001,2022-11-20_23h52.20.154,Info_measure_main_exp,2022.2.2,Win32,60.08893162,,,,,,,,,,,,,,,,,,masks/mask_002.jpg,,,,,,,,,,,,,,,,,,,,,,,,,,,,,,,,,,,,,,,,,,,0,3,3,1,1,,,,,,,,,,,,,,,,,,,,,,,,,,,,,,,,,,,,,,,,,,,,,,
666628,001,2022-11-20_23h52.20.154,Info_measure_main_exp,2022.2.2,Win32,60.08893162,,,,,,,,,,,,,,,,,,masks/mask_001.jpg,,,,,,,,,,,,,,,,,,,,,,,,,,,,,,,,,,,,,,,,,,,0,4,4,0,1,,,,,,,,,,,,,,,,,,,,,,,,,,,,,,,,,,,,,,,,,,,,,,
666628,001,2022-11-20_23h52.20.154,Info_measure_main_exp,2022.2.2,Win32,60.08893162,,,,,,,,,,,,,,,,,,masks/mask_002.jpg,,,,,,,,,,,,,,,,,,,,,,,,,,,,,,,,,,,,,,,,,,,,,,,,0,0,0,1,1,,,,,,,,,,,,,,,,,,,,,,,,,,,,,,,,,,,,,,,,,
666628,001,2022-11-20_23h52.20.154,Info_measure_main_exp,2022.2.2,Win32,60.08893162,,,,,,,,,,,,,,,,,,masks/mask_005.jpg,,,,,,,,,,,,,,,,,,,,,,,,,,,,,,,,,,,,,,,,,,,,,,,,0,1,1,4,1,,,,,,,,,,,,,,,,,,,,,,,,,,,,,,,,,,,,,,,,,
666628,001,2022-11-20_23h52.20.154,Info_measure_main_exp,2022.2.2,Win32,60.08893162,,,,,,,,,,,,,,,,,,masks/mask_004.jpg,,,,,,,,,,,,,,,,,,,,,,,,,,,,,,,,,,,,,,,,,,,,,,,,0,2,2,3,1,,,,,,,,,,,,,,,,,,,,,,,,,,,,,,,,,,,,,,,,,
666628,001,2022-11-20_23h52.20.154,Info_measure_main_exp,2022.2.2,Win32,60.08893162,,,,,,,,,,,,,,,,,,masks/mask_001.jpg,,,,,,,,,,,,,,,,,,,,,,,,,,,,,,,,,,,,,,,,,,,,,,,,0,3,3,0,1,,,,,,,,,,,,,,,,,,,,,,,,,,,,,,,,,,,,,,,,,
666628,001,2022-11-20_23h52.20.154,Info_measure_main_exp,2022.2.2,Win32,60.08893162,,,,,,,,,,,,,,,,,,masks/mask_003.jpg,,,,,,,,,,,,,,,,,,,,,,,,,,,,,,,,,,,,,,,,,,,,,,,,0,4,4,2,1,,,,,,,,,,,,,,,,,,,,,,,,,,,,,,,,,,,,,,,,,
666628,001,2022-11-20_23h52.20.154,Info_measure_main_exp,2022.2.2,Win32,60.08893162,,,,,,,,,,,,,,,,,,,,,,,,,,,,,,4,1.3834,1,,,,,,,,,,,,0,131,5,5,2190,2082,absent_patch/patch0002190.jpg,absent_patch/patch0002082.jpg,,,,,,,,,,,,,,,,,,,,0.076851852,-0.135185185,1,0,0,response3disk,17,0.008333333,-0.007407407,1,0,0,center_square,0,16,16,112,1,,,,,,,,,,,,,,,,,,,,,,,
666628,001,2022-11-20_23h52.20.154,Info_measure_main_exp,2022.2.2,Win32,60.08893162,,,,,,,,,,,,,,,,,,masks/mask_003.jpg,,,,,,,,,,,,,,,,,,,,,,,,,,,,,,,,,,,,,,,,,,,0,0,0,2,1,,,,,,,,,,,,,,,,,,,,,,,,,,,,,,,,,,,,,,,,,,,,,,
666628,001,2022-11-20_23h52.20.154,Info_measure_main_exp,2022.2.2,Win32,60.08893162,,,,,,,,,,,,,,,,,,masks/mask_004.jpg,,,,,,,,,,,,,,,,,,,,,,,,,,,,,,,,,,,,,,,,,,,0,1,1,3,1,,,,,,,,,,,,,,,,,,,,,,,,,,,,,,,,,,,,,,,,,,,,,,
666628,001,2022-11-20_23h52.20.154,Info_measure_main_exp,2022.2.2,Win32,60.08893162,,,,,,,,,,,,,,,,,,masks/mask_001.jpg,,,,,,,,,,,,,,,,,,,,,,,,,,,,,,,,,,,,,,,,,,,0,2,2,0,1,,,,,,,,,,,,,,,,,,,,,,,,,,,,,,,,,,,,,,,,,,,,,,
666628,001,2022-11-20_23h52.20.154,Info_measure_main_exp,2022.2.2,Win32,60.08893162,,,,,,,,,,,,,,,,,,masks/mask_002.jpg,,,,,,,,,,,,,,,,,,,,,,,,,,,,,,,,,,,,,,,,,,,0,3,3,1,1,,,,,,,,,,,,,,,,,,,,,,,,,,,,,,,,,,,,,,,,,,,,,,
666628,001,2022-11-20_23h52.20.154,Info_measure_main_exp,2022.2.2,Win32,60.08893162,,,,,,,,,,,,,,,,,,masks/mask_005.jpg,,,,,,,,,,,,,,,,,,,,,,,,,,,,,,,,,,,,,,,,,,,0,4,4,4,1,,,,,,,,,,,,,,,,,,,,,,,,,,,,,,,,,,,,,,,,,,,,,,
666628,001,2022-11-20_23h52.20.154,Info_measure_main_exp,2022.2.2,Win32,60.08893162,,,,,,,,,,,,,,,,,,masks/mask_004.jpg,,,,,,,,,,,,,,,,,,,,,,,,,,,,,,,,,,,,,,,,,,,,,,,,0,0,0,3,1,,,,,,,,,,,,,,,,,,,,,,,,,,,,,,,,,,,,,,,,,
666628,001,2022-11-20_23h52.20.154,Info_measure_main_exp,2022.2.2,Win32,60.08893162,,,,,,,,,,,,,,,,,,masks/mask_002.jpg,,,,,,,,,,,,,,,,,,,,,,,,,,,,,,,,,,,,,,,,,,,,,,,,0,1,1,1,1,,,,,,,,,,,,,,,,,,,,,,,,,,,,,,,,,,,,,,,,,
666628,001,2022-11-20_23h52.20.154,Info_measure_main_exp,2022.2.2,Win32,60.08893162,,,,,,,,,,,,,,,,,,masks/mask_005.jpg,,,,,,,,,,,,,,,,,,,,,,,,,,,,,,,,,,,,,,,,,,,,,,,,0,2,2,4,1,,,,,,,,,,,,,,,,,,,,,,,,,,,,,,,,,,,,,,,,,
666628,001,2022-11-20_23h52.20.154,Info_measure_main_exp,2022.2.2,Win32,60.08893162,,,,,,,,,,,,,,,,,,masks/mask_003.jpg,,,,,,,,,,,,,,,,,,,,,,,,,,,,,,,,,,,,,,,,,,,,,,,,0,3,3,2,1,,,,,,,,,,,,,,,,,,,,,,,,,,,,,,,,,,,,,,,,,
666628,001,2022-11-20_23h52.20.154,Info_measure_main_exp,2022.2.2,Win32,60.08893162,,,,,,,,,,,,,,,,,,masks/mask_001.jpg,,,,,,,,,,,,,,,,,,,,,,,,,,,,,,,,,,,,,,,,,,,,,,,,0,4,4,0,1,,,,,,,,,,,,,,,,,,,,,,,,,,,,,,,,,,,,,,,,,
666628,001,2022-11-20_23h52.20.154,Info_measure_main_exp,2022.2.2,Win32,60.08893162,,,,,,,,,,,,,,,,,,,,,,,,,,,,,,4,2.0834,1,,,,,,,,,,,,1,131,5,5,2250,1,absent_patch/patch0002250.jpg,present_patch/cong_131_5_a.jpg,,,,,,,,,,,,,,,,,,,,0.072222222,-0.109259259,1,0,0,response3disk,18,0.002777778,-0.006481481,1,0,0,center_square,0,17,17,5,1,,,,,,,,,,,,,,,,,,,,,,,
666628,001,2022-11-20_23h52.20.154,Info_measure_main_exp,2022.2.2,Win32,60.08893162,,,,,,,,,,,,,,,,,,masks/mask_004.jpg,,,,,,,,,,,,,,,,,,,,,,,,,,,,,,,,,,,,,,,,,,,0,0,0,3,1,,,,,,,,,,,,,,,,,,,,,,,,,,,,,,,,,,,,,,,,,,,,,,
666628,001,2022-11-20_23h52.20.154,Info_measure_main_exp,2022.2.2,Win32,60.08893162,,,,,,,,,,,,,,,,,,masks/mask_003.jpg,,,,,,,,,,,,,,,,,,,,,,,,,,,,,,,,,,,,,,,,,,,0,1,1,2,1,,,,,,,,,,,,,,,,,,,,,,,,,,,,,,,,,,,,,,,,,,,,,,
666628,001,2022-11-20_23h52.20.154,Info_measure_main_exp,2022.2.2,Win32,60.08893162,,,,,,,,,,,,,,,,,,masks/mask_001.jpg,,,,,,,,,,,,,,,,,,,,,,,,,,,,,,,,,,,,,,,,,,,0,2,2,0,1,,,,,,,,,,,,,,,,,,,,,,,,,,,,,,,,,,,,,,,,,,,,,,
666628,001,2022-11-20_23h52.20.154,Info_measure_main_exp,2022.2.2,Win32,60.08893162,,,,,,,,,,,,,,,,,,masks/mask_002.jpg,,,,,,,,,,,,,,,,,,,,,,,,,,,,,,,,,,,,,,,,,,,0,3,3,1,1,,,,,,,,,,,,,,,,,,,,,,,,,,,,,,,,,,,,,,,,,,,,,,
666628,001,2022-11-20_23h52.20.154,Info_measure_main_exp,2022.2.2,Win32,60.08893162,,,,,,,,,,,,,,,,,,masks/mask_005.jpg,,,,,,,,,,,,,,,,,,,,,,,,,,,,,,,,,,,,,,,,,,,0,4,4,4,1,,,,,,,,,,,,,,,,,,,,,,,,,,,,,,,,,,,,,,,,,,,,,,
666628,001,2022-11-20_23h52.20.154,Info_measure_main_exp,2022.2.2,Win32,60.08893162,,,,,,,,,,,,,,,,,,masks/mask_001.jpg,,,,,,,,,,,,,,,,,,,,,,,,,,,,,,,,,,,,,,,,,,,,,,,,0,0,0,0,1,,,,,,,,,,,,,,,,,,,,,,,,,,,,,,,,,,,,,,,,,
666628,001,2022-11-20_23h52.20.154,Info_measure_main_exp,2022.2.2,Win32,60.08893162,,,,,,,,,,,,,,,,,,masks/mask_005.jpg,,,,,,,,,,,,,,,,,,,,,,,,,,,,,,,,,,,,,,,,,,,,,,,,0,1,1,4,1,,,,,,,,,,,,,,,,,,,,,,,,,,,,,,,,,,,,,,,,,
666628,001,2022-11-20_23h52.20.154,Info_measure_main_exp,2022.2.2,Win32,60.08893162,,,,,,,,,,,,,,,,,,masks/mask_002.jpg,,,,,,,,,,,,,,,,,,,,,,,,,,,,,,,,,,,,,,,,,,,,,,,,0,2,2,1,1,,,,,,,,,,,,,,,,,,,,,,,,,,,,,,,,,,,,,,,,,
666628,001,2022-11-20_23h52.20.154,Info_measure_main_exp,2022.2.2,Win32,60.08893162,,,,,,,,,,,,,,,,,,masks/mask_004.jpg,,,,,,,,,,,,,,,,,,,,,,,,,,,,,,,,,,,,,,,,,,,,,,,,0,3,3,3,1,,,,,,,,,,,,,,,,,,,,,,,,,,,,,,,,,,,,,,,,,
666628,001,2022-11-20_23h52.20.154,Info_measure_main_exp,2022.2.2,Win32,60.08893162,,,,,,,,,,,,,,,,,,masks/mask_003.jpg,,,,,,,,,,,,,,,,,,,,,,,,,,,,,,,,,,,,,,,,,,,,,,,,0,4,4,2,1,,,,,,,,,,,,,,,,,,,,,,,,,,,,,,,,,,,,,,,,,
666628,001,2022-11-20_23h52.20.154,Info_measure_main_exp,2022.2.2,Win32,60.08893162,,,,,,,,,,,,,,,,,,,,,,,,,,,,,,4,0.7334,1,,,,,,,,,,,,0,131,5,5,2238,2298,absent_patch/patch0002238.jpg,absent_patch/patch0002298.jpg,,,,,,,,,,,,,,,,,,,,0.05462963,-0.112037037,1,0,0,response3disk,19,0.005555556,-0.001851852,1,0,0,center_square,0,18,18,51,1,,,,,,,,,,,,,,,,,,,,,,,
666628,001,2022-11-20_23h52.20.154,Info_measure_main_exp,2022.2.2,Win32,60.08893162,,,,,,,,,,,,,,,,,,masks/mask_005.jpg,,,,,,,,,,,,,,,,,,,,,,,,,,,,,,,,,,,,,,,,,,,0,0,0,4,1,,,,,,,,,,,,,,,,,,,,,,,,,,,,,,,,,,,,,,,,,,,,,,
666628,001,2022-11-20_23h52.20.154,Info_measure_main_exp,2022.2.2,Win32,60.08893162,,,,,,,,,,,,,,,,,,masks/mask_004.jpg,,,,,,,,,,,,,,,,,,,,,,,,,,,,,,,,,,,,,,,,,,,0,1,1,3,1,,,,,,,,,,,,,,,,,,,,,,,,,,,,,,,,,,,,,,,,,,,,,,
666628,001,2022-11-20_23h52.20.154,Info_measure_main_exp,2022.2.2,Win32,60.08893162,,,,,,,,,,,,,,,,,,masks/mask_001.jpg,,,,,,,,,,,,,,,,,,,,,,,,,,,,,,,,,,,,,,,,,,,0,2,2,0,1,,,,,,,,,,,,,,,,,,,,,,,,,,,,,,,,,,,,,,,,,,,,,,
666628,001,2022-11-20_23h52.20.154,Info_measure_main_exp,2022.2.2,Win32,60.08893162,,,,,,,,,,,,,,,,,,masks/mask_003.jpg,,,,,,,,,,,,,,,,,,,,,,,,,,,,,,,,,,,,,,,,,,,0,3,3,2,1,,,,,,,,,,,,,,,,,,,,,,,,,,,,,,,,,,,,,,,,,,,,,,
666628,001,2022-11-20_23h52.20.154,Info_measure_main_exp,2022.2.2,Win32,60.08893162,,,,,,,,,,,,,,,,,,masks/mask_002.jpg,,,,,,,,,,,,,,,,,,,,,,,,,,,,,,,,,,,,,,,,,,,0,4,4,1,1,,,,,,,,,,,,,,,,,,,,,,,,,,,,,,,,,,,,,,,,,,,,,,
666628,001,2022-11-20_23h52.20.154,Info_measure_main_exp,2022.2.2,Win32,60.08893162,,,,,,,,,,,,,,,,,,masks/mask_003.jpg,,,,,,,,,,,,,,,,,,,,,,,,,,,,,,,,,,,,,,,,,,,,,,,,0,0,0,2,1,,,,,,,,,,,,,,,,,,,,,,,,,,,,,,,,,,,,,,,,,
666628,001,2022-11-20_23h52.20.154,Info_measure_main_exp,2022.2.2,Win32,60.08893162,,,,,,,,,,,,,,,,,,masks/mask_001.jpg,,,,,,,,,,,,,,,,,,,,,,,,,,,,,,,,,,,,,,,,,,,,,,,,0,1,1,0,1,,,,,,,,,,,,,,,,,,,,,,,,,,,,,,,,,,,,,,,,,
666628,001,2022-11-20_23h52.20.154,Info_measure_main_exp,2022.2.2,Win32,60.08893162,,,,,,,,,,,,,,,,,,masks/mask_004.jpg,,,,,,,,,,,,,,,,,,,,,,,,,,,,,,,,,,,,,,,,,,,,,,,,0,2,2,3,1,,,,,,,,,,,,,,,,,,,,,,,,,,,,,,,,,,,,,,,,,
666628,001,2022-11-20_23h52.20.154,Info_measure_main_exp,2022.2.2,Win32,60.08893162,,,,,,,,,,,,,,,,,,masks/mask_005.jpg,,,,,,,,,,,,,,,,,,,,,,,,,,,,,,,,,,,,,,,,,,,,,,,,0,3,3,4,1,,,,,,,,,,,,,,,,,,,,,,,,,,,,,,,,,,,,,,,,,
666628,001,2022-11-20_23h52.20.154,Info_measure_main_exp,2022.2.2,Win32,60.08893162,,,,,,,,,,,,,,,,,,masks/mask_002.jpg,,,,,,,,,,,,,,,,,,,,,,,,,,,,,,,,,,,,,,,,,,,,,,,,0,4,4,1,1,,,,,,,,,,,,,,,,,,,,,,,,,,,,,,,,,,,,,,,,,
666628,001,2022-11-20_23h52.20.154,Info_measure_main_exp,2022.2.2,Win32,60.08893162,,,,,,,,,,,,,,,,,,,,,,,,,,,,,,7,3.6339,1,,,,,,,,,,,,0,131,5,5,1950,2214,absent_patch/patch0001950.jpg,absent_patch/patch0002214.jpg,,,,,,,,,,,,,,,,,,,,0.04537037,0.092592593,1,0,0,response1disk,20,-0.009259259,-0.00462963,1,0,0,center_square,0,19,19,85,1,,,,,,,,,,,,,,,,,,,,,,,
666628,001,2022-11-20_23h52.20.154,Info_measure_main_exp,2022.2.2,Win32,60.08893162,,,,,,,,,,,,,,,,,,masks/mask_003.jpg,,,,,,,,,,,,,,,,,,,,,,,,,,,,,,,,,,,,,,,,,,,0,0,0,2,1,,,,,,,,,,,,,,,,,,,,,,,,,,,,,,,,,,,,,,,,,,,,,,
666628,001,2022-11-20_23h52.20.154,Info_measure_main_exp,2022.2.2,Win32,60.08893162,,,,,,,,,,,,,,,,,,masks/mask_005.jpg,,,,,,,,,,,,,,,,,,,,,,,,,,,,,,,,,,,,,,,,,,,0,1,1,4,1,,,,,,,,,,,,,,,,,,,,,,,,,,,,,,,,,,,,,,,,,,,,,,
666628,001,2022-11-20_23h52.20.154,Info_measure_main_exp,2022.2.2,Win32,60.08893162,,,,,,,,,,,,,,,,,,masks/mask_001.jpg,,,,,,,,,,,,,,,,,,,,,,,,,,,,,,,,,,,,,,,,,,,0,2,2,0,1,,,,,,,,,,,,,,,,,,,,,,,,,,,,,,,,,,,,,,,,,,,,,,
666628,001,2022-11-20_23h52.20.154,Info_measure_main_exp,2022.2.2,Win32,60.08893162,,,,,,,,,,,,,,,,,,masks/mask_004.jpg,,,,,,,,,,,,,,,,,,,,,,,,,,,,,,,,,,,,,,,,,,,0,3,3,3,1,,,,,,,,,,,,,,,,,,,,,,,,,,,,,,,,,,,,,,,,,,,,,,
666628,001,2022-11-20_23h52.20.154,Info_measure_main_exp,2022.2.2,Win32,60.08893162,,,,,,,,,,,,,,,,,,masks/mask_002.jpg,,,,,,,,,,,,,,,,,,,,,,,,,,,,,,,,,,,,,,,,,,,0,4,4,1,1,,,,,,,,,,,,,,,,,,,,,,,,,,,,,,,,,,,,,,,,,,,,,,
666628,001,2022-11-20_23h52.20.154,Info_measure_main_exp,2022.2.2,Win32,60.08893162,,,,,,,,,,,,,,,,,,masks/mask_004.jpg,,,,,,,,,,,,,,,,,,,,,,,,,,,,,,,,,,,,,,,,,,,,,,,,0,0,0,3,1,,,,,,,,,,,,,,,,,,,,,,,,,,,,,,,,,,,,,,,,,
666628,001,2022-11-20_23h52.20.154,Info_measure_main_exp,2022.2.2,Win32,60.08893162,,,,,,,,,,,,,,,,,,masks/mask_005.jpg,,,,,,,,,,,,,,,,,,,,,,,,,,,,,,,,,,,,,,,,,,,,,,,,0,1,1,4,1,,,,,,,,,,,,,,,,,,,,,,,,,,,,,,,,,,,,,,,,,
666628,001,2022-11-20_23h52.20.154,Info_measure_main_exp,2022.2.2,Win32,60.08893162,,,,,,,,,,,,,,,,,,masks/mask_003.jpg,,,,,,,,,,,,,,,,,,,,,,,,,,,,,,,,,,,,,,,,,,,,,,,,0,2,2,2,1,,,,,,,,,,,,,,,,,,,,,,,,,,,,,,,,,,,,,,,,,
666628,001,2022-11-20_23h52.20.154,Info_measure_main_exp,2022.2.2,Win32,60.08893162,,,,,,,,,,,,,,,,,,masks/mask_001.jpg,,,,,,,,,,,,,,,,,,,,,,,,,,,,,,,,,,,,,,,,,,,,,,,,0,3,3,0,1,,,,,,,,,,,,,,,,,,,,,,,,,,,,,,,,,,,,,,,,,
666628,001,2022-11-20_23h52.20.154,Info_measure_main_exp,2022.2.2,Win32,60.08893162,,,,,,,,,,,,,,,,,,masks/mask_002.jpg,,,,,,,,,,,,,,,,,,,,,,,,,,,,,,,,,,,,,,,,,,,,,,,,0,4,4,1,1,,,,,,,,,,,,,,,,,,,,,,,,,,,,,,,,,,,,,,,,,
666628,001,2022-11-20_23h52.20.154,Info_measure_main_exp,2022.2.2,Win32,60.08893162,,,,,,,,,,,,,,,,,,,,,,,,,,,,,,5,0.8499,1,,,,,,,,,,,,0,131,5,5,2082,2250,absent_patch/patch0002082.jpg,absent_patch/patch0002250.jpg,,,,,,,,,,,,,,,,,,,,0.125925926,-0.043518519,1,0,0,response3disk,21,-0.00462963,-0.002777778,1,0,0,center_square,0,20,20,3,1,,,,,,,,,,,,,,,,,,,,,,,
666628,001,2022-11-20_23h52.20.154,Info_measure_main_exp,2022.2.2,Win32,60.08893162,,,,,,,,,,,,,,,,,,masks/mask_005.jpg,,,,,,,,,,,,,,,,,,,,,,,,,,,,,,,,,,,,,,,,,,,0,0,0,4,1,,,,,,,,,,,,,,,,,,,,,,,,,,,,,,,,,,,,,,,,,,,,,,
666628,001,2022-11-20_23h52.20.154,Info_measure_main_exp,2022.2.2,Win32,60.08893162,,,,,,,,,,,,,,,,,,masks/mask_002.jpg,,,,,,,,,,,,,,,,,,,,,,,,,,,,,,,,,,,,,,,,,,,0,1,1,1,1,,,,,,,,,,,,,,,,,,,,,,,,,,,,,,,,,,,,,,,,,,,,,,
666628,001,2022-11-20_23h52.20.154,Info_measure_main_exp,2022.2.2,Win32,60.08893162,,,,,,,,,,,,,,,,,,masks/mask_001.jpg,,,,,,,,,,,,,,,,,,,,,,,,,,,,,,,,,,,,,,,,,,,0,2,2,0,1,,,,,,,,,,,,,,,,,,,,,,,,,,,,,,,,,,,,,,,,,,,,,,
666628,001,2022-11-20_23h52.20.154,Info_measure_main_exp,2022.2.2,Win32,60.08893162,,,,,,,,,,,,,,,,,,masks/mask_004.jpg,,,,,,,,,,,,,,,,,,,,,,,,,,,,,,,,,,,,,,,,,,,0,3,3,3,1,,,,,,,,,,,,,,,,,,,,,,,,,,,,,,,,,,,,,,,,,,,,,,
666628,001,2022-11-20_23h52.20.154,Info_measure_main_exp,2022.2.2,Win32,60.08893162,,,,,,,,,,,,,,,,,,masks/mask_003.jpg,,,,,,,,,,,,,,,,,,,,,,,,,,,,,,,,,,,,,,,,,,,0,4,4,2,1,,,,,,,,,,,,,,,,,,,,,,,,,,,,,,,,,,,,,,,,,,,,,,
666628,001,2022-11-20_23h52.20.154,Info_measure_main_exp,2022.2.2,Win32,60.08893162,,,,,,,,,,,,,,,,,,masks/mask_002.jpg,,,,,,,,,,,,,,,,,,,,,,,,,,,,,,,,,,,,,,,,,,,,,,,,0,0,0,1,1,,,,,,,,,,,,,,,,,,,,,,,,,,,,,,,,,,,,,,,,,
666628,001,2022-11-20_23h52.20.154,Info_measure_main_exp,2022.2.2,Win32,60.08893162,,,,,,,,,,,,,,,,,,masks/mask_004.jpg,,,,,,,,,,,,,,,,,,,,,,,,,,,,,,,,,,,,,,,,,,,,,,,,0,1,1,3,1,,,,,,,,,,,,,,,,,,,,,,,,,,,,,,,,,,,,,,,,,
666628,001,2022-11-20_23h52.20.154,Info_measure_main_exp,2022.2.2,Win32,60.08893162,,,,,,,,,,,,,,,,,,masks/mask_001.jpg,,,,,,,,,,,,,,,,,,,,,,,,,,,,,,,,,,,,,,,,,,,,,,,,0,2,2,0,1,,,,,,,,,,,,,,,,,,,,,,,,,,,,,,,,,,,,,,,,,
666628,001,2022-11-20_23h52.20.154,Info_measure_main_exp,2022.2.2,Win32,60.08893162,,,,,,,,,,,,,,,,,,masks/mask_005.jpg,,,,,,,,,,,,,,,,,,,,,,,,,,,,,,,,,,,,,,,,,,,,,,,,0,3,3,4,1,,,,,,,,,,,,,,,,,,,,,,,,,,,,,,,,,,,,,,,,,
666628,001,2022-11-20_23h52.20.154,Info_measure_main_exp,2022.2.2,Win32,60.08893162,,,,,,,,,,,,,,,,,,masks/mask_003.jpg,,,,,,,,,,,,,,,,,,,,,,,,,,,,,,,,,,,,,,,,,,,,,,,,0,4,4,2,1,,,,,,,,,,,,,,,,,,,,,,,,,,,,,,,,,,,,,,,,,
666628,001,2022-11-20_23h52.20.154,Info_measure_main_exp,2022.2.2,Win32,60.08893162,,,,,,,,,,,,,,,,,,,,,,,,,,,,,,5,0.75,1,,,,,,,,,,,,0,131,5,5,2298,2178,absent_patch/patch0002298.jpg,absent_patch/patch0002178.jpg,,,,,,,,,,,,,,,,,,,,0.073148148,-0.039814815,1,0,0,response3disk,22,-0.008333333,-0.000925926,1,0,0,center_square,0,21,21,84,1,,,,,,,,,,,,,,,,,,,,,,,
666628,001,2022-11-20_23h52.20.154,Info_measure_main_exp,2022.2.2,Win32,60.08893162,,,,,,,,,,,,,,,,,,masks/mask_003.jpg,,,,,,,,,,,,,,,,,,,,,,,,,,,,,,,,,,,,,,,,,,,0,0,0,2,1,,,,,,,,,,,,,,,,,,,,,,,,,,,,,,,,,,,,,,,,,,,,,,
666628,001,2022-11-20_23h52.20.154,Info_measure_main_exp,2022.2.2,Win32,60.08893162,,,,,,,,,,,,,,,,,,masks/mask_005.jpg,,,,,,,,,,,,,,,,,,,,,,,,,,,,,,,,,,,,,,,,,,,0,1,1,4,1,,,,,,,,,,,,,,,,,,,,,,,,,,,,,,,,,,,,,,,,,,,,,,
666628,001,2022-11-20_23h52.20.154,Info_measure_main_exp,2022.2.2,Win32,60.08893162,,,,,,,,,,,,,,,,,,masks/mask_002.jpg,,,,,,,,,,,,,,,,,,,,,,,,,,,,,,,,,,,,,,,,,,,0,2,2,1,1,,,,,,,,,,,,,,,,,,,,,,,,,,,,,,,,,,,,,,,,,,,,,,
666628,001,2022-11-20_23h52.20.154,Info_measure_main_exp,2022.2.2,Win32,60.08893162,,,,,,,,,,,,,,,,,,masks/mask_004.jpg,,,,,,,,,,,,,,,,,,,,,,,,,,,,,,,,,,,,,,,,,,,0,3,3,3,1,,,,,,,,,,,,,,,,,,,,,,,,,,,,,,,,,,,,,,,,,,,,,,
666628,001,2022-11-20_23h52.20.154,Info_measure_main_exp,2022.2.2,Win32,60.08893162,,,,,,,,,,,,,,,,,,masks/mask_001.jpg,,,,,,,,,,,,,,,,,,,,,,,,,,,,,,,,,,,,,,,,,,,0,4,4,0,1,,,,,,,,,,,,,,,,,,,,,,,,,,,,,,,,,,,,,,,,,,,,,,
666628,001,2022-11-20_23h52.20.154,Info_measure_main_exp,2022.2.2,Win32,60.08893162,,,,,,,,,,,,,,,,,,masks/mask_003.jpg,,,,,,,,,,,,,,,,,,,,,,,,,,,,,,,,,,,,,,,,,,,,,,,,0,0,0,2,1,,,,,,,,,,,,,,,,,,,,,,,,,,,,,,,,,,,,,,,,,
666628,001,2022-11-20_23h52.20.154,Info_measure_main_exp,2022.2.2,Win32,60.08893162,,,,,,,,,,,,,,,,,,masks/mask_002.jpg,,,,,,,,,,,,,,,,,,,,,,,,,,,,,,,,,,,,,,,,,,,,,,,,0,1,1,1,1,,,,,,,,,,,,,,,,,,,,,,,,,,,,,,,,,,,,,,,,,
666628,001,2022-11-20_23h52.20.154,Info_measure_main_exp,2022.2.2,Win32,60.08893162,,,,,,,,,,,,,,,,,,masks/mask_001.jpg,,,,,,,,,,,,,,,,,,,,,,,,,,,,,,,,,,,,,,,,,,,,,,,,0,2,2,0,1,,,,,,,,,,,,,,,,,,,,,,,,,,,,,,,,,,,,,,,,,
666628,001,2022-11-20_23h52.20.154,Info_measure_main_exp,2022.2.2,Win32,60.08893162,,,,,,,,,,,,,,,,,,masks/mask_005.jpg,,,,,,,,,,,,,,,,,,,,,,,,,,,,,,,,,,,,,,,,,,,,,,,,0,3,3,4,1,,,,,,,,,,,,,,,,,,,,,,,,,,,,,,,,,,,,,,,,,
666628,001,2022-11-20_23h52.20.154,Info_measure_main_exp,2022.2.2,Win32,60.08893162,,,,,,,,,,,,,,,,,,masks/mask_004.jpg,,,,,,,,,,,,,,,,,,,,,,,,,,,,,,,,,,,,,,,,,,,,,,,,0,4,4,3,1,,,,,,,,,,,,,,,,,,,,,,,,,,,,,,,,,,,,,,,,,
666628,001,2022-11-20_23h52.20.154,Info_measure_main_exp,2022.2.2,Win32,60.08893162,,,,,,,,,,,,,,,,,,,,,,,,,,,,,,7,0.6667,1,,,,,,,,,,,,0,131,5,5,2250,2178,absent_patch/patch0002250.jpg,absent_patch/patch0002178.jpg,,,,,,,,,,,,,,,,,,,,0.042592593,0.108333333,1,0,0,response1disk,23,0.006481481,0.008333333,1,0,0,center_square,0,22,22,48,1,,,,,,,,,,,,,,,,,,,,,,,
666628,001,2022-11-20_23h52.20.154,Info_measure_main_exp,2022.2.2,Win32,60.08893162,,,,,,,,,,,,,,,,,,masks/mask_001.jpg,,,,,,,,,,,,,,,,,,,,,,,,,,,,,,,,,,,,,,,,,,,0,0,0,0,1,,,,,,,,,,,,,,,,,,,,,,,,,,,,,,,,,,,,,,,,,,,,,,
666628,001,2022-11-20_23h52.20.154,Info_measure_main_exp,2022.2.2,Win32,60.08893162,,,,,,,,,,,,,,,,,,masks/mask_005.jpg,,,,,,,,,,,,,,,,,,,,,,,,,,,,,,,,,,,,,,,,,,,0,1,1,4,1,,,,,,,,,,,,,,,,,,,,,,,,,,,,,,,,,,,,,,,,,,,,,,
666628,001,2022-11-20_23h52.20.154,Info_measure_main_exp,2022.2.2,Win32,60.08893162,,,,,,,,,,,,,,,,,,masks/mask_004.jpg,,,,,,,,,,,,,,,,,,,,,,,,,,,,,,,,,,,,,,,,,,,0,2,2,3,1,,,,,,,,,,,,,,,,,,,,,,,,,,,,,,,,,,,,,,,,,,,,,,
666628,001,2022-11-20_23h52.20.154,Info_measure_main_exp,2022.2.2,Win32,60.08893162,,,,,,,,,,,,,,,,,,masks/mask_003.jpg,,,,,,,,,,,,,,,,,,,,,,,,,,,,,,,,,,,,,,,,,,,0,3,3,2,1,,,,,,,,,,,,,,,,,,,,,,,,,,,,,,,,,,,,,,,,,,,,,,
666628,001,2022-11-20_23h52.20.154,Info_measure_main_exp,2022.2.2,Win32,60.08893162,,,,,,,,,,,,,,,,,,masks/mask_002.jpg,,,,,,,,,,,,,,,,,,,,,,,,,,,,,,,,,,,,,,,,,,,0,4,4,1,1,,,,,,,,,,,,,,,,,,,,,,,,,,,,,,,,,,,,,,,,,,,,,,
666628,001,2022-11-20_23h52.20.154,Info_measure_main_exp,2022.2.2,Win32,60.08893162,,,,,,,,,,,,,,,,,,masks/mask_001.jpg,,,,,,,,,,,,,,,,,,,,,,,,,,,,,,,,,,,,,,,,,,,,,,,,0,0,0,0,1,,,,,,,,,,,,,,,,,,,,,,,,,,,,,,,,,,,,,,,,,
666628,001,2022-11-20_23h52.20.154,Info_measure_main_exp,2022.2.2,Win32,60.08893162,,,,,,,,,,,,,,,,,,masks/mask_004.jpg,,,,,,,,,,,,,,,,,,,,,,,,,,,,,,,,,,,,,,,,,,,,,,,,0,1,1,3,1,,,,,,,,,,,,,,,,,,,,,,,,,,,,,,,,,,,,,,,,,
666628,001,2022-11-20_23h52.20.154,Info_measure_main_exp,2022.2.2,Win32,60.08893162,,,,,,,,,,,,,,,,,,masks/mask_002.jpg,,,,,,,,,,,,,,,,,,,,,,,,,,,,,,,,,,,,,,,,,,,,,,,,0,2,2,1,1,,,,,,,,,,,,,,,,,,,,,,,,,,,,,,,,,,,,,,,,,
666628,001,2022-11-20_23h52.20.154,Info_measure_main_exp,2022.2.2,Win32,60.08893162,,,,,,,,,,,,,,,,,,masks/mask_003.jpg,,,,,,,,,,,,,,,,,,,,,,,,,,,,,,,,,,,,,,,,,,,,,,,,0,3,3,2,1,,,,,,,,,,,,,,,,,,,,,,,,,,,,,,,,,,,,,,,,,
666628,001,2022-11-20_23h52.20.154,Info_measure_main_exp,2022.2.2,Win32,60.08893162,,,,,,,,,,,,,,,,,,masks/mask_005.jpg,,,,,,,,,,,,,,,,,,,,,,,,,,,,,,,,,,,,,,,,,,,,,,,,0,4,4,4,1,,,,,,,,,,,,,,,,,,,,,,,,,,,,,,,,,,,,,,,,,
666628,001,2022-11-20_23h52.20.154,Info_measure_main_exp,2022.2.2,Win32,60.08893162,,,,,,,,,,,,,,,,,,,,,,,,,,,,,,2,1.6169,1,,,,,,,,,,,,1,131,5,5,1,2154,present_patch/cong_131_5_a.jpg,absent_patch/patch0002154.jpg,,,,,,,,,,,,,,,,,,,,-0.118518519,-0.042592593,1,0,0,response5disk,24,-0.000925926,0.002777778,1,0,0,center_square,0,23,23,87,1,,,,,,,,,,,,,,,,,,,,,,,
666628,001,2022-11-20_23h52.20.154,Info_measure_main_exp,2022.2.2,Win32,60.08893162,,,,,,,,,,,,,,,,,,masks/mask_002.jpg,,,,,,,,,,,,,,,,,,,,,,,,,,,,,,,,,,,,,,,,,,,0,0,0,1,1,,,,,,,,,,,,,,,,,,,,,,,,,,,,,,,,,,,,,,,,,,,,,,
666628,001,2022-11-20_23h52.20.154,Info_measure_main_exp,2022.2.2,Win32,60.08893162,,,,,,,,,,,,,,,,,,masks/mask_001.jpg,,,,,,,,,,,,,,,,,,,,,,,,,,,,,,,,,,,,,,,,,,,0,1,1,0,1,,,,,,,,,,,,,,,,,,,,,,,,,,,,,,,,,,,,,,,,,,,,,,
666628,001,2022-11-20_23h52.20.154,Info_measure_main_exp,2022.2.2,Win32,60.08893162,,,,,,,,,,,,,,,,,,masks/mask_005.jpg,,,,,,,,,,,,,,,,,,,,,,,,,,,,,,,,,,,,,,,,,,,0,2,2,4,1,,,,,,,,,,,,,,,,,,,,,,,,,,,,,,,,,,,,,,,,,,,,,,
666628,001,2022-11-20_23h52.20.154,Info_measure_main_exp,2022.2.2,Win32,60.08893162,,,,,,,,,,,,,,,,,,masks/mask_004.jpg,,,,,,,,,,,,,,,,,,,,,,,,,,,,,,,,,,,,,,,,,,,0,3,3,3,1,,,,,,,,,,,,,,,,,,,,,,,,,,,,,,,,,,,,,,,,,,,,,,
666628,001,2022-11-20_23h52.20.154,Info_measure_main_exp,2022.2.2,Win32,60.08893162,,,,,,,,,,,,,,,,,,masks/mask_003.jpg,,,,,,,,,,,,,,,,,,,,,,,,,,,,,,,,,,,,,,,,,,,0,4,4,2,1,,,,,,,,,,,,,,,,,,,,,,,,,,,,,,,,,,,,,,,,,,,,,,
666628,001,2022-11-20_23h52.20.154,Info_measure_main_exp,2022.2.2,Win32,60.08893162,,,,,,,,,,,,,,,,,,masks/mask_001.jpg,,,,,,,,,,,,,,,,,,,,,,,,,,,,,,,,,,,,,,,,,,,,,,,,0,0,0,0,1,,,,,,,,,,,,,,,,,,,,,,,,,,,,,,,,,,,,,,,,,
666628,001,2022-11-20_23h52.20.154,Info_measure_main_exp,2022.2.2,Win32,60.08893162,,,,,,,,,,,,,,,,,,masks/mask_003.jpg,,,,,,,,,,,,,,,,,,,,,,,,,,,,,,,,,,,,,,,,,,,,,,,,0,1,1,2,1,,,,,,,,,,,,,,,,,,,,,,,,,,,,,,,,,,,,,,,,,
666628,001,2022-11-20_23h52.20.154,Info_measure_main_exp,2022.2.2,Win32,60.08893162,,,,,,,,,,,,,,,,,,masks/mask_002.jpg,,,,,,,,,,,,,,,,,,,,,,,,,,,,,,,,,,,,,,,,,,,,,,,,0,2,2,1,1,,,,,,,,,,,,,,,,,,,,,,,,,,,,,,,,,,,,,,,,,
666628,001,2022-11-20_23h52.20.154,Info_measure_main_exp,2022.2.2,Win32,60.08893162,,,,,,,,,,,,,,,,,,masks/mask_005.jpg,,,,,,,,,,,,,,,,,,,,,,,,,,,,,,,,,,,,,,,,,,,,,,,,0,3,3,4,1,,,,,,,,,,,,,,,,,,,,,,,,,,,,,,,,,,,,,,,,,
666628,001,2022-11-20_23h52.20.154,Info_measure_main_exp,2022.2.2,Win32,60.08893162,,,,,,,,,,,,,,,,,,masks/mask_004.jpg,,,,,,,,,,,,,,,,,,,,,,,,,,,,,,,,,,,,,,,,,,,,,,,,0,4,4,3,1,,,,,,,,,,,,,,,,,,,,,,,,,,,,,,,,,,,,,,,,,
666628,001,2022-11-20_23h52.20.154,Info_measure_main_exp,2022.2.2,Win32,60.08893162,,,,,,,,,,,,,,,,,,,,,,,,,,,,,,5,1.3333,1,,,,,,,,,,,,0,131,5,5,1986,2142,absent_patch/patch0001986.jpg,absent_patch/patch0002142.jpg,,,,,,,,,,,,,,,,,,,,0.125,-0.064814815,1,0,0,response3disk,25,-0.009259259,-0.012037037,1,0,0,center_square,0,24,24,76,1,,,,,,,,,,,,,,,,,,,,,,,
666628,001,2022-11-20_23h52.20.154,Info_measure_main_exp,2022.2.2,Win32,60.08893162,,,,,,,,,,,,,,,,,,masks/mask_004.jpg,,,,,,,,,,,,,,,,,,,,,,,,,,,,,,,,,,,,,,,,,,,0,0,0,3,1,,,,,,,,,,,,,,,,,,,,,,,,,,,,,,,,,,,,,,,,,,,,,,
666628,001,2022-11-20_23h52.20.154,Info_measure_main_exp,2022.2.2,Win32,60.08893162,,,,,,,,,,,,,,,,,,masks/mask_002.jpg,,,,,,,,,,,,,,,,,,,,,,,,,,,,,,,,,,,,,,,,,,,0,1,1,1,1,,,,,,,,,,,,,,,,,,,,,,,,,,,,,,,,,,,,,,,,,,,,,,
666628,001,2022-11-20_23h52.20.154,Info_measure_main_exp,2022.2.2,Win32,60.08893162,,,,,,,,,,,,,,,,,,masks/mask_001.jpg,,,,,,,,,,,,,,,,,,,,,,,,,,,,,,,,,,,,,,,,,,,0,2,2,0,1,,,,,,,,,,,,,,,,,,,,,,,,,,,,,,,,,,,,,,,,,,,,,,
666628,001,2022-11-20_23h52.20.154,Info_measure_main_exp,2022.2.2,Win32,60.08893162,,,,,,,,,,,,,,,,,,masks/mask_005.jpg,,,,,,,,,,,,,,,,,,,,,,,,,,,,,,,,,,,,,,,,,,,0,3,3,4,1,,,,,,,,,,,,,,,,,,,,,,,,,,,,,,,,,,,,,,,,,,,,,,
666628,001,2022-11-20_23h52.20.154,Info_measure_main_exp,2022.2.2,Win32,60.08893162,,,,,,,,,,,,,,,,,,masks/mask_003.jpg,,,,,,,,,,,,,,,,,,,,,,,,,,,,,,,,,,,,,,,,,,,0,4,4,2,1,,,,,,,,,,,,,,,,,,,,,,,,,,,,,,,,,,,,,,,,,,,,,,
666628,001,2022-11-20_23h52.20.154,Info_measure_main_exp,2022.2.2,Win32,60.08893162,,,,,,,,,,,,,,,,,,masks/mask_002.jpg,,,,,,,,,,,,,,,,,,,,,,,,,,,,,,,,,,,,,,,,,,,,,,,,0,0,0,1,1,,,,,,,,,,,,,,,,,,,,,,,,,,,,,,,,,,,,,,,,,
666628,001,2022-11-20_23h52.20.154,Info_measure_main_exp,2022.2.2,Win32,60.08893162,,,,,,,,,,,,,,,,,,masks/mask_005.jpg,,,,,,,,,,,,,,,,,,,,,,,,,,,,,,,,,,,,,,,,,,,,,,,,0,1,1,4,1,,,,,,,,,,,,,,,,,,,,,,,,,,,,,,,,,,,,,,,,,
666628,001,2022-11-20_23h52.20.154,Info_measure_main_exp,2022.2.2,Win32,60.08893162,,,,,,,,,,,,,,,,,,masks/mask_003.jpg,,,,,,,,,,,,,,,,,,,,,,,,,,,,,,,,,,,,,,,,,,,,,,,,0,2,2,2,1,,,,,,,,,,,,,,,,,,,,,,,,,,,,,,,,,,,,,,,,,
666628,001,2022-11-20_23h52.20.154,Info_measure_main_exp,2022.2.2,Win32,60.08893162,,,,,,,,,,,,,,,,,,masks/mask_004.jpg,,,,,,,,,,,,,,,,,,,,,,,,,,,,,,,,,,,,,,,,,,,,,,,,0,3,3,3,1,,,,,,,,,,,,,,,,,,,,,,,,,,,,,,,,,,,,,,,,,
666628,001,2022-11-20_23h52.20.154,Info_measure_main_exp,2022.2.2,Win32,60.08893162,,,,,,,,,,,,,,,,,,masks/mask_001.jpg,,,,,,,,,,,,,,,,,,,,,,,,,,,,,,,,,,,,,,,,,,,,,,,,0,4,4,0,1,,,,,,,,,,,,,,,,,,,,,,,,,,,,,,,,,,,,,,,,,
666628,001,2022-11-20_23h52.20.154,Info_measure_main_exp,2022.2.2,Win32,60.08893162,,,,,,,,,,,,,,,,,,,,,,,,,,,,,,7,0.9668,1,,,,,,,,,,,,0,131,5,5,2214,2142,absent_patch/patch0002214.jpg,absent_patch/patch0002142.jpg,,,,,,,,,,,,,,,,,,,,0.042592593,0.094444444,1,0,0,response1disk,26,0.000925926,-0.014814815,1,0,0,center_square,0,25,25,102,1,,,,,,,,,,,,,,,,,,,,,,,
666628,001,2022-11-20_23h52.20.154,Info_measure_main_exp,2022.2.2,Win32,60.08893162,,,,,,,,,,,,,,,,,,masks/mask_001.jpg,,,,,,,,,,,,,,,,,,,,,,,,,,,,,,,,,,,,,,,,,,,0,0,0,0,1,,,,,,,,,,,,,,,,,,,,,,,,,,,,,,,,,,,,,,,,,,,,,,
666628,001,2022-11-20_23h52.20.154,Info_measure_main_exp,2022.2.2,Win32,60.08893162,,,,,,,,,,,,,,,,,,masks/mask_002.jpg,,,,,,,,,,,,,,,,,,,,,,,,,,,,,,,,,,,,,,,,,,,0,1,1,1,1,,,,,,,,,,,,,,,,,,,,,,,,,,,,,,,,,,,,,,,,,,,,,,
666628,001,2022-11-20_23h52.20.154,Info_measure_main_exp,2022.2.2,Win32,60.08893162,,,,,,,,,,,,,,,,,,masks/mask_003.jpg,,,,,,,,,,,,,,,,,,,,,,,,,,,,,,,,,,,,,,,,,,,0,2,2,2,1,,,,,,,,,,,,,,,,,,,,,,,,,,,,,,,,,,,,,,,,,,,,,,
666628,001,2022-11-20_23h52.20.154,Info_measure_main_exp,2022.2.2,Win32,60.08893162,,,,,,,,,,,,,,,,,,masks/mask_005.jpg,,,,,,,,,,,,,,,,,,,,,,,,,,,,,,,,,,,,,,,,,,,0,3,3,4,1,,,,,,,,,,,,,,,,,,,,,,,,,,,,,,,,,,,,,,,,,,,,,,
666628,001,2022-11-20_23h52.20.154,Info_measure_main_exp,2022.2.2,Win32,60.08893162,,,,,,,,,,,,,,,,,,masks/mask_004.jpg,,,,,,,,,,,,,,,,,,,,,,,,,,,,,,,,,,,,,,,,,,,0,4,4,3,1,,,,,,,,,,,,,,,,,,,,,,,,,,,,,,,,,,,,,,,,,,,,,,
666628,001,2022-11-20_23h52.20.154,Info_measure_main_exp,2022.2.2,Win32,60.08893162,,,,,,,,,,,,,,,,,,masks/mask_002.jpg,,,,,,,,,,,,,,,,,,,,,,,,,,,,,,,,,,,,,,,,,,,,,,,,0,0,0,1,1,,,,,,,,,,,,,,,,,,,,,,,,,,,,,,,,,,,,,,,,,
666628,001,2022-11-20_23h52.20.154,Info_measure_main_exp,2022.2.2,Win32,60.08893162,,,,,,,,,,,,,,,,,,masks/mask_001.jpg,,,,,,,,,,,,,,,,,,,,,,,,,,,,,,,,,,,,,,,,,,,,,,,,0,1,1,0,1,,,,,,,,,,,,,,,,,,,,,,,,,,,,,,,,,,,,,,,,,
666628,001,2022-11-20_23h52.20.154,Info_measure_main_exp,2022.2.2,Win32,60.08893162,,,,,,,,,,,,,,,,,,masks/mask_004.jpg,,,,,,,,,,,,,,,,,,,,,,,,,,,,,,,,,,,,,,,,,,,,,,,,0,2,2,3,1,,,,,,,,,,,,,,,,,,,,,,,,,,,,,,,,,,,,,,,,,
666628,001,2022-11-20_23h52.20.154,Info_measure_main_exp,2022.2.2,Win32,60.08893162,,,,,,,,,,,,,,,,,,masks/mask_005.jpg,,,,,,,,,,,,,,,,,,,,,,,,,,,,,,,,,,,,,,,,,,,,,,,,0,3,3,4,1,,,,,,,,,,,,,,,,,,,,,,,,,,,,,,,,,,,,,,,,,
666628,001,2022-11-20_23h52.20.154,Info_measure_main_exp,2022.2.2,Win32,60.08893162,,,,,,,,,,,,,,,,,,masks/mask_003.jpg,,,,,,,,,,,,,,,,,,,,,,,,,,,,,,,,,,,,,,,,,,,,,,,,0,4,4,2,1,,,,,,,,,,,,,,,,,,,,,,,,,,,,,,,,,,,,,,,,,
666628,001,2022-11-20_23h52.20.154,Info_measure_main_exp,2022.2.2,Win32,60.08893162,,,,,,,,,,,,,,,,,,,,,,,,,,,,,,2,1.3668,1,,,,,,,,,,,,0,131,5,5,2298,2190,absent_patch/patch0002298.jpg,absent_patch/patch0002190.jpg,,,,,,,,,,,,,,,,,,,,-0.100925926,-0.07037037,1,0,0,response5disk,27,-0.00462963,-0.002777778,1,0,0,center_square,0,26,26,20,1,,,,,,,,,,,,,,,,,,,,,,,
666628,001,2022-11-20_23h52.20.154,Info_measure_main_exp,2022.2.2,Win32,60.08893162,,,,,,,,,,,,,,,,,,masks/mask_001.jpg,,,,,,,,,,,,,,,,,,,,,,,,,,,,,,,,,,,,,,,,,,,0,0,0,0,1,,,,,,,,,,,,,,,,,,,,,,,,,,,,,,,,,,,,,,,,,,,,,,
666628,001,2022-11-20_23h52.20.154,Info_measure_main_exp,2022.2.2,Win32,60.08893162,,,,,,,,,,,,,,,,,,masks/mask_004.jpg,,,,,,,,,,,,,,,,,,,,,,,,,,,,,,,,,,,,,,,,,,,0,1,1,3,1,,,,,,,,,,,,,,,,,,,,,,,,,,,,,,,,,,,,,,,,,,,,,,
666628,001,2022-11-20_23h52.20.154,Info_measure_main_exp,2022.2.2,Win32,60.08893162,,,,,,,,,,,,,,,,,,masks/mask_005.jpg,,,,,,,,,,,,,,,,,,,,,,,,,,,,,,,,,,,,,,,,,,,0,2,2,4,1,,,,,,,,,,,,,,,,,,,,,,,,,,,,,,,,,,,,,,,,,,,,,,
666628,001,2022-11-20_23h52.20.154,Info_measure_main_exp,2022.2.2,Win32,60.08893162,,,,,,,,,,,,,,,,,,masks/mask_002.jpg,,,,,,,,,,,,,,,,,,,,,,,,,,,,,,,,,,,,,,,,,,,0,3,3,1,1,,,,,,,,,,,,,,,,,,,,,,,,,,,,,,,,,,,,,,,,,,,,,,
666628,001,2022-11-20_23h52.20.154,Info_measure_main_exp,2022.2.2,Win32,60.08893162,,,,,,,,,,,,,,,,,,masks/mask_003.jpg,,,,,,,,,,,,,,,,,,,,,,,,,,,,,,,,,,,,,,,,,,,0,4,4,2,1,,,,,,,,,,,,,,,,,,,,,,,,,,,,,,,,,,,,,,,,,,,,,,
666628,001,2022-11-20_23h52.20.154,Info_measure_main_exp,2022.2.2,Win32,60.08893162,,,,,,,,,,,,,,,,,,masks/mask_002.jpg,,,,,,,,,,,,,,,,,,,,,,,,,,,,,,,,,,,,,,,,,,,,,,,,0,0,0,1,1,,,,,,,,,,,,,,,,,,,,,,,,,,,,,,,,,,,,,,,,,
666628,001,2022-11-20_23h52.20.154,Info_measure_main_exp,2022.2.2,Win32,60.08893162,,,,,,,,,,,,,,,,,,masks/mask_005.jpg,,,,,,,,,,,,,,,,,,,,,,,,,,,,,,,,,,,,,,,,,,,,,,,,0,1,1,4,1,,,,,,,,,,,,,,,,,,,,,,,,,,,,,,,,,,,,,,,,,
666628,001,2022-11-20_23h52.20.154,Info_measure_main_exp,2022.2.2,Win32,60.08893162,,,,,,,,,,,,,,,,,,masks/mask_003.jpg,,,,,,,,,,,,,,,,,,,,,,,,,,,,,,,,,,,,,,,,,,,,,,,,0,2,2,2,1,,,,,,,,,,,,,,,,,,,,,,,,,,,,,,,,,,,,,,,,,
666628,001,2022-11-20_23h52.20.154,Info_measure_main_exp,2022.2.2,Win32,60.08893162,,,,,,,,,,,,,,,,,,masks/mask_001.jpg,,,,,,,,,,,,,,,,,,,,,,,,,,,,,,,,,,,,,,,,,,,,,,,,0,3,3,0,1,,,,,,,,,,,,,,,,,,,,,,,,,,,,,,,,,,,,,,,,,
666628,001,2022-11-20_23h52.20.154,Info_measure_main_exp,2022.2.2,Win32,60.08893162,,,,,,,,,,,,,,,,,,masks/mask_004.jpg,,,,,,,,,,,,,,,,,,,,,,,,,,,,,,,,,,,,,,,,,,,,,,,,0,4,4,3,1,,,,,,,,,,,,,,,,,,,,,,,,,,,,,,,,,,,,,,,,,
666628,001,2022-11-20_23h52.20.154,Info_measure_main_exp,2022.2.2,Win32,60.08893162,,,,,,,,,,,,,,,,,,,,,,,,,,,,,,0,0.8834,1,,,,,,,,,,,,1,131,5,5,1,1,present_patch/cong_131_5_a.jpg,present_patch/cong_131_5_a.jpg,,,,,,,,,,,,,,,,,,,,-0.033333333,0.110185185,1,0,0,response7disk,28,-0.001851852,-0.002777778,1,0,0,center_square,0,27,27,30,1,,,,,,,,,,,,,,,,,,,,,,,
666628,001,2022-11-20_23h52.20.154,Info_measure_main_exp,2022.2.2,Win32,60.08893162,,,,,,,,,,,,,,,,,,masks/mask_005.jpg,,,,,,,,,,,,,,,,,,,,,,,,,,,,,,,,,,,,,,,,,,,0,0,0,4,1,,,,,,,,,,,,,,,,,,,,,,,,,,,,,,,,,,,,,,,,,,,,,,
666628,001,2022-11-20_23h52.20.154,Info_measure_main_exp,2022.2.2,Win32,60.08893162,,,,,,,,,,,,,,,,,,masks/mask_002.jpg,,,,,,,,,,,,,,,,,,,,,,,,,,,,,,,,,,,,,,,,,,,0,1,1,1,1,,,,,,,,,,,,,,,,,,,,,,,,,,,,,,,,,,,,,,,,,,,,,,
666628,001,2022-11-20_23h52.20.154,Info_measure_main_exp,2022.2.2,Win32,60.08893162,,,,,,,,,,,,,,,,,,masks/mask_001.jpg,,,,,,,,,,,,,,,,,,,,,,,,,,,,,,,,,,,,,,,,,,,0,2,2,0,1,,,,,,,,,,,,,,,,,,,,,,,,,,,,,,,,,,,,,,,,,,,,,,
666628,001,2022-11-20_23h52.20.154,Info_measure_main_exp,2022.2.2,Win32,60.08893162,,,,,,,,,,,,,,,,,,masks/mask_004.jpg,,,,,,,,,,,,,,,,,,,,,,,,,,,,,,,,,,,,,,,,,,,0,3,3,3,1,,,,,,,,,,,,,,,,,,,,,,,,,,,,,,,,,,,,,,,,,,,,,,
666628,001,2022-11-20_23h52.20.154,Info_measure_main_exp,2022.2.2,Win32,60.08893162,,,,,,,,,,,,,,,,,,masks/mask_003.jpg,,,,,,,,,,,,,,,,,,,,,,,,,,,,,,,,,,,,,,,,,,,0,4,4,2,1,,,,,,,,,,,,,,,,,,,,,,,,,,,,,,,,,,,,,,,,,,,,,,
666628,001,2022-11-20_23h52.20.154,Info_measure_main_exp,2022.2.2,Win32,60.08893162,,,,,,,,,,,,,,,,,,masks/mask_001.jpg,,,,,,,,,,,,,,,,,,,,,,,,,,,,,,,,,,,,,,,,,,,,,,,,0,0,0,0,1,,,,,,,,,,,,,,,,,,,,,,,,,,,,,,,,,,,,,,,,,
666628,001,2022-11-20_23h52.20.154,Info_measure_main_exp,2022.2.2,Win32,60.08893162,,,,,,,,,,,,,,,,,,masks/mask_004.jpg,,,,,,,,,,,,,,,,,,,,,,,,,,,,,,,,,,,,,,,,,,,,,,,,0,1,1,3,1,,,,,,,,,,,,,,,,,,,,,,,,,,,,,,,,,,,,,,,,,
666628,001,2022-11-20_23h52.20.154,Info_measure_main_exp,2022.2.2,Win32,60.08893162,,,,,,,,,,,,,,,,,,masks/mask_003.jpg,,,,,,,,,,,,,,,,,,,,,,,,,,,,,,,,,,,,,,,,,,,,,,,,0,2,2,2,1,,,,,,,,,,,,,,,,,,,,,,,,,,,,,,,,,,,,,,,,,
666628,001,2022-11-20_23h52.20.154,Info_measure_main_exp,2022.2.2,Win32,60.08893162,,,,,,,,,,,,,,,,,,masks/mask_002.jpg,,,,,,,,,,,,,,,,,,,,,,,,,,,,,,,,,,,,,,,,,,,,,,,,0,3,3,1,1,,,,,,,,,,,,,,,,,,,,,,,,,,,,,,,,,,,,,,,,,
666628,001,2022-11-20_23h52.20.154,Info_measure_main_exp,2022.2.2,Win32,60.08893162,,,,,,,,,,,,,,,,,,masks/mask_005.jpg,,,,,,,,,,,,,,,,,,,,,,,,,,,,,,,,,,,,,,,,,,,,,,,,0,4,4,4,1,,,,,,,,,,,,,,,,,,,,,,,,,,,,,,,,,,,,,,,,,
666628,001,2022-11-20_23h52.20.154,Info_measure_main_exp,2022.2.2,Win32,60.08893162,,,,,,,,,,,,,,,,,,,,,,,,,,,,,,5,1.7502,1,,,,,,,,,,,,1,131,5,5,1,2142,present_patch/cong_131_5_a.jpg,absent_patch/patch0002142.jpg,,,,,,,,,,,,,,,,,,,,0.118518519,-0.085185185,1,0,0,response3disk,29,-0.005555556,0.007407407,1,0,0,center_square,0,28,28,80,1,,,,,,,,,,,,,,,,,,,,,,,
666628,001,2022-11-20_23h52.20.154,Info_measure_main_exp,2022.2.2,Win32,60.08893162,,,,,,,,,,,,,,,,,,masks/mask_002.jpg,,,,,,,,,,,,,,,,,,,,,,,,,,,,,,,,,,,,,,,,,,,0,0,0,1,1,,,,,,,,,,,,,,,,,,,,,,,,,,,,,,,,,,,,,,,,,,,,,,
666628,001,2022-11-20_23h52.20.154,Info_measure_main_exp,2022.2.2,Win32,60.08893162,,,,,,,,,,,,,,,,,,masks/mask_003.jpg,,,,,,,,,,,,,,,,,,,,,,,,,,,,,,,,,,,,,,,,,,,0,1,1,2,1,,,,,,,,,,,,,,,,,,,,,,,,,,,,,,,,,,,,,,,,,,,,,,
666628,001,2022-11-20_23h52.20.154,Info_measure_main_exp,2022.2.2,Win32,60.08893162,,,,,,,,,,,,,,,,,,masks/mask_004.jpg,,,,,,,,,,,,,,,,,,,,,,,,,,,,,,,,,,,,,,,,,,,0,2,2,3,1,,,,,,,,,,,,,,,,,,,,,,,,,,,,,,,,,,,,,,,,,,,,,,
666628,001,2022-11-20_23h52.20.154,Info_measure_main_exp,2022.2.2,Win32,60.08893162,,,,,,,,,,,,,,,,,,masks/mask_005.jpg,,,,,,,,,,,,,,,,,,,,,,,,,,,,,,,,,,,,,,,,,,,0,3,3,4,1,,,,,,,,,,,,,,,,,,,,,,,,,,,,,,,,,,,,,,,,,,,,,,
666628,001,2022-11-20_23h52.20.154,Info_measure_main_exp,2022.2.2,Win32,60.08893162,,,,,,,,,,,,,,,,,,masks/mask_001.jpg,,,,,,,,,,,,,,,,,,,,,,,,,,,,,,,,,,,,,,,,,,,0,4,4,0,1,,,,,,,,,,,,,,,,,,,,,,,,,,,,,,,,,,,,,,,,,,,,,,
666628,001,2022-11-20_23h52.20.154,Info_measure_main_exp,2022.2.2,Win32,60.08893162,,,,,,,,,,,,,,,,,,masks/mask_001.jpg,,,,,,,,,,,,,,,,,,,,,,,,,,,,,,,,,,,,,,,,,,,,,,,,0,0,0,0,1,,,,,,,,,,,,,,,,,,,,,,,,,,,,,,,,,,,,,,,,,
666628,001,2022-11-20_23h52.20.154,Info_measure_main_exp,2022.2.2,Win32,60.08893162,,,,,,,,,,,,,,,,,,masks/mask_003.jpg,,,,,,,,,,,,,,,,,,,,,,,,,,,,,,,,,,,,,,,,,,,,,,,,0,1,1,2,1,,,,,,,,,,,,,,,,,,,,,,,,,,,,,,,,,,,,,,,,,
666628,001,2022-11-20_23h52.20.154,Info_measure_main_exp,2022.2.2,Win32,60.08893162,,,,,,,,,,,,,,,,,,masks/mask_005.jpg,,,,,,,,,,,,,,,,,,,,,,,,,,,,,,,,,,,,,,,,,,,,,,,,0,2,2,4,1,,,,,,,,,,,,,,,,,,,,,,,,,,,,,,,,,,,,,,,,,
666628,001,2022-11-20_23h52.20.154,Info_measure_main_exp,2022.2.2,Win32,60.08893162,,,,,,,,,,,,,,,,,,masks/mask_004.jpg,,,,,,,,,,,,,,,,,,,,,,,,,,,,,,,,,,,,,,,,,,,,,,,,0,3,3,3,1,,,,,,,,,,,,,,,,,,,,,,,,,,,,,,,,,,,,,,,,,
666628,001,2022-11-20_23h52.20.154,Info_measure_main_exp,2022.2.2,Win32,60.08893162,,,,,,,,,,,,,,,,,,masks/mask_002.jpg,,,,,,,,,,,,,,,,,,,,,,,,,,,,,,,,,,,,,,,,,,,,,,,,0,4,4,1,1,,,,,,,,,,,,,,,,,,,,,,,,,,,,,,,,,,,,,,,,,
666628,001,2022-11-20_23h52.20.154,Info_measure_main_exp,2022.2.2,Win32,60.08893162,,,,,,,,,,,,,,,,,,,,,,,,,,,,,,7,0.8668,1,,,,,,,,,,,,1,131,5,5,1950,1,absent_patch/patch0001950.jpg,present_patch/cong_131_5_a.jpg,,,,,,,,,,,,,,,,,,,,0.038888889,0.121296296,1,0,0,response1disk,30,-0.011111111,-0.001851852,1,0,0,center_square,0,29,29,39,1,,,,,,,,,,,,,,,,,,,,,,,
666628,001,2022-11-20_23h52.20.154,Info_measure_main_exp,2022.2.2,Win32,60.08893162,,,,,,,,,,,,,,,,,,masks/mask_005.jpg,,,,,,,,,,,,,,,,,,,,,,,,,,,,,,,,,,,,,,,,,,,0,0,0,4,1,,,,,,,,,,,,,,,,,,,,,,,,,,,,,,,,,,,,,,,,,,,,,,
666628,001,2022-11-20_23h52.20.154,Info_measure_main_exp,2022.2.2,Win32,60.08893162,,,,,,,,,,,,,,,,,,masks/mask_003.jpg,,,,,,,,,,,,,,,,,,,,,,,,,,,,,,,,,,,,,,,,,,,0,1,1,2,1,,,,,,,,,,,,,,,,,,,,,,,,,,,,,,,,,,,,,,,,,,,,,,
666628,001,2022-11-20_23h52.20.154,Info_measure_main_exp,2022.2.2,Win32,60.08893162,,,,,,,,,,,,,,,,,,masks/mask_001.jpg,,,,,,,,,,,,,,,,,,,,,,,,,,,,,,,,,,,,,,,,,,,0,2,2,0,1,,,,,,,,,,,,,,,,,,,,,,,,,,,,,,,,,,,,,,,,,,,,,,
666628,001,2022-11-20_23h52.20.154,Info_measure_main_exp,2022.2.2,Win32,60.08893162,,,,,,,,,,,,,,,,,,masks/mask_002.jpg,,,,,,,,,,,,,,,,,,,,,,,,,,,,,,,,,,,,,,,,,,,0,3,3,1,1,,,,,,,,,,,,,,,,,,,,,,,,,,,,,,,,,,,,,,,,,,,,,,
666628,001,2022-11-20_23h52.20.154,Info_measure_main_exp,2022.2.2,Win32,60.08893162,,,,,,,,,,,,,,,,,,masks/mask_004.jpg,,,,,,,,,,,,,,,,,,,,,,,,,,,,,,,,,,,,,,,,,,,0,4,4,3,1,,,,,,,,,,,,,,,,,,,,,,,,,,,,,,,,,,,,,,,,,,,,,,
666628,001,2022-11-20_23h52.20.154,Info_measure_main_exp,2022.2.2,Win32,60.08893162,,,,,,,,,,,,,,,,,,masks/mask_001.jpg,,,,,,,,,,,,,,,,,,,,,,,,,,,,,,,,,,,,,,,,,,,,,,,,0,0,0,0,1,,,,,,,,,,,,,,,,,,,,,,,,,,,,,,,,,,,,,,,,,
666628,001,2022-11-20_23h52.20.154,Info_measure_main_exp,2022.2.2,Win32,60.08893162,,,,,,,,,,,,,,,,,,masks/mask_004.jpg,,,,,,,,,,,,,,,,,,,,,,,,,,,,,,,,,,,,,,,,,,,,,,,,0,1,1,3,1,,,,,,,,,,,,,,,,,,,,,,,,,,,,,,,,,,,,,,,,,
666628,001,2022-11-20_23h52.20.154,Info_measure_main_exp,2022.2.2,Win32,60.08893162,,,,,,,,,,,,,,,,,,masks/mask_005.jpg,,,,,,,,,,,,,,,,,,,,,,,,,,,,,,,,,,,,,,,,,,,,,,,,0,2,2,4,1,,,,,,,,,,,,,,,,,,,,,,,,,,,,,,,,,,,,,,,,,
666628,001,2022-11-20_23h52.20.154,Info_measure_main_exp,2022.2.2,Win32,60.08893162,,,,,,,,,,,,,,,,,,masks/mask_002.jpg,,,,,,,,,,,,,,,,,,,,,,,,,,,,,,,,,,,,,,,,,,,,,,,,0,3,3,1,1,,,,,,,,,,,,,,,,,,,,,,,,,,,,,,,,,,,,,,,,,
666628,001,2022-11-20_23h52.20.154,Info_measure_main_exp,2022.2.2,Win32,60.08893162,,,,,,,,,,,,,,,,,,masks/mask_003.jpg,,,,,,,,,,,,,,,,,,,,,,,,,,,,,,,,,,,,,,,,,,,,,,,,0,4,4,2,1,,,,,,,,,,,,,,,,,,,,,,,,,,,,,,,,,,,,,,,,,
666628,001,2022-11-20_23h52.20.154,Info_measure_main_exp,2022.2.2,Win32,60.08893162,,,,,,,,,,,,,,,,,,,,,,,,,,,,,,5,0.9504,1,,,,,,,,,,,,0,131,5,5,1974,2166,absent_patch/patch0001974.jpg,absent_patch/patch0002166.jpg,,,,,,,,,,,,,,,,,,,,0.116666667,-0.02037037,1,0,0,response3disk,31,0.005555556,0.000925926,1,0,0,center_square,0,30,30,77,1,,,,,,,,,,,,,,,,,,,,,,,
666628,001,2022-11-20_23h52.20.154,Info_measure_main_exp,2022.2.2,Win32,60.08893162,,,,,,,,,,,,,,,,,,masks/mask_005.jpg,,,,,,,,,,,,,,,,,,,,,,,,,,,,,,,,,,,,,,,,,,,0,0,0,4,1,,,,,,,,,,,,,,,,,,,,,,,,,,,,,,,,,,,,,,,,,,,,,,
666628,001,2022-11-20_23h52.20.154,Info_measure_main_exp,2022.2.2,Win32,60.08893162,,,,,,,,,,,,,,,,,,masks/mask_001.jpg,,,,,,,,,,,,,,,,,,,,,,,,,,,,,,,,,,,,,,,,,,,0,1,1,0,1,,,,,,,,,,,,,,,,,,,,,,,,,,,,,,,,,,,,,,,,,,,,,,
666628,001,2022-11-20_23h52.20.154,Info_measure_main_exp,2022.2.2,Win32,60.08893162,,,,,,,,,,,,,,,,,,masks/mask_003.jpg,,,,,,,,,,,,,,,,,,,,,,,,,,,,,,,,,,,,,,,,,,,0,2,2,2,1,,,,,,,,,,,,,,,,,,,,,,,,,,,,,,,,,,,,,,,,,,,,,,
666628,001,2022-11-20_23h52.20.154,Info_measure_main_exp,2022.2.2,Win32,60.08893162,,,,,,,,,,,,,,,,,,masks/mask_002.jpg,,,,,,,,,,,,,,,,,,,,,,,,,,,,,,,,,,,,,,,,,,,0,3,3,1,1,,,,,,,,,,,,,,,,,,,,,,,,,,,,,,,,,,,,,,,,,,,,,,
666628,001,2022-11-20_23h52.20.154,Info_measure_main_exp,2022.2.2,Win32,60.08893162,,,,,,,,,,,,,,,,,,masks/mask_004.jpg,,,,,,,,,,,,,,,,,,,,,,,,,,,,,,,,,,,,,,,,,,,0,4,4,3,1,,,,,,,,,,,,,,,,,,,,,,,,,,,,,,,,,,,,,,,,,,,,,,
666628,001,2022-11-20_23h52.20.154,Info_measure_main_exp,2022.2.2,Win32,60.08893162,,,,,,,,,,,,,,,,,,masks/mask_005.jpg,,,,,,,,,,,,,,,,,,,,,,,,,,,,,,,,,,,,,,,,,,,,,,,,0,0,0,4,1,,,,,,,,,,,,,,,,,,,,,,,,,,,,,,,,,,,,,,,,,
666628,001,2022-11-20_23h52.20.154,Info_measure_main_exp,2022.2.2,Win32,60.08893162,,,,,,,,,,,,,,,,,,masks/mask_002.jpg,,,,,,,,,,,,,,,,,,,,,,,,,,,,,,,,,,,,,,,,,,,,,,,,0,1,1,1,1,,,,,,,,,,,,,,,,,,,,,,,,,,,,,,,,,,,,,,,,,
666628,001,2022-11-20_23h52.20.154,Info_measure_main_exp,2022.2.2,Win32,60.08893162,,,,,,,,,,,,,,,,,,masks/mask_004.jpg,,,,,,,,,,,,,,,,,,,,,,,,,,,,,,,,,,,,,,,,,,,,,,,,0,2,2,3,1,,,,,,,,,,,,,,,,,,,,,,,,,,,,,,,,,,,,,,,,,
666628,001,2022-11-20_23h52.20.154,Info_measure_main_exp,2022.2.2,Win32,60.08893162,,,,,,,,,,,,,,,,,,masks/mask_001.jpg,,,,,,,,,,,,,,,,,,,,,,,,,,,,,,,,,,,,,,,,,,,,,,,,0,3,3,0,1,,,,,,,,,,,,,,,,,,,,,,,,,,,,,,,,,,,,,,,,,
666628,001,2022-11-20_23h52.20.154,Info_measure_main_exp,2022.2.2,Win32,60.08893162,,,,,,,,,,,,,,,,,,masks/mask_003.jpg,,,,,,,,,,,,,,,,,,,,,,,,,,,,,,,,,,,,,,,,,,,,,,,,0,4,4,2,1,,,,,,,,,,,,,,,,,,,,,,,,,,,,,,,,,,,,,,,,,
666628,001,2022-11-20_23h52.20.154,Info_measure_main_exp,2022.2.2,Win32,60.08893162,,,,,,,,,,,,,,,,,,,,,,,,,,,,,,5,0.884,1,,,,,,,,,,,,0,131,5,5,2190,1974,absent_patch/patch0002190.jpg,absent_patch/patch0001974.jpg,,,,,,,,,,,,,,,,,,,,0.098148148,-0.057407407,1,0,0,response3disk,32,0.013888889,-0.012037037,1,0,0,center_square,0,31,31,119,1,,,,,,,,,,,,,,,,,,,,,,,
666628,001,2022-11-20_23h52.20.154,Info_measure_main_exp,2022.2.2,Win32,60.08893162,,,,,,,,,,,,,,,,,,masks/mask_003.jpg,,,,,,,,,,,,,,,,,,,,,,,,,,,,,,,,,,,,,,,,,,,0,0,0,2,1,,,,,,,,,,,,,,,,,,,,,,,,,,,,,,,,,,,,,,,,,,,,,,
666628,001,2022-11-20_23h52.20.154,Info_measure_main_exp,2022.2.2,Win32,60.08893162,,,,,,,,,,,,,,,,,,masks/mask_004.jpg,,,,,,,,,,,,,,,,,,,,,,,,,,,,,,,,,,,,,,,,,,,0,1,1,3,1,,,,,,,,,,,,,,,,,,,,,,,,,,,,,,,,,,,,,,,,,,,,,,
666628,001,2022-11-20_23h52.20.154,Info_measure_main_exp,2022.2.2,Win32,60.08893162,,,,,,,,,,,,,,,,,,masks/mask_002.jpg,,,,,,,,,,,,,,,,,,,,,,,,,,,,,,,,,,,,,,,,,,,0,2,2,1,1,,,,,,,,,,,,,,,,,,,,,,,,,,,,,,,,,,,,,,,,,,,,,,
666628,001,2022-11-20_23h52.20.154,Info_measure_main_exp,2022.2.2,Win32,60.08893162,,,,,,,,,,,,,,,,,,masks/mask_001.jpg,,,,,,,,,,,,,,,,,,,,,,,,,,,,,,,,,,,,,,,,,,,0,3,3,0,1,,,,,,,,,,,,,,,,,,,,,,,,,,,,,,,,,,,,,,,,,,,,,,
666628,001,2022-11-20_23h52.20.154,Info_measure_main_exp,2022.2.2,Win32,60.08893162,,,,,,,,,,,,,,,,,,masks/mask_005.jpg,,,,,,,,,,,,,,,,,,,,,,,,,,,,,,,,,,,,,,,,,,,0,4,4,4,1,,,,,,,,,,,,,,,,,,,,,,,,,,,,,,,,,,,,,,,,,,,,,,
666628,001,2022-11-20_23h52.20.154,Info_measure_main_exp,2022.2.2,Win32,60.08893162,,,,,,,,,,,,,,,,,,masks/mask_004.jpg,,,,,,,,,,,,,,,,,,,,,,,,,,,,,,,,,,,,,,,,,,,,,,,,0,0,0,3,1,,,,,,,,,,,,,,,,,,,,,,,,,,,,,,,,,,,,,,,,,
666628,001,2022-11-20_23h52.20.154,Info_measure_main_exp,2022.2.2,Win32,60.08893162,,,,,,,,,,,,,,,,,,masks/mask_001.jpg,,,,,,,,,,,,,,,,,,,,,,,,,,,,,,,,,,,,,,,,,,,,,,,,0,1,1,0,1,,,,,,,,,,,,,,,,,,,,,,,,,,,,,,,,,,,,,,,,,
666628,001,2022-11-20_23h52.20.154,Info_measure_main_exp,2022.2.2,Win32,60.08893162,,,,,,,,,,,,,,,,,,masks/mask_005.jpg,,,,,,,,,,,,,,,,,,,,,,,,,,,,,,,,,,,,,,,,,,,,,,,,0,2,2,4,1,,,,,,,,,,,,,,,,,,,,,,,,,,,,,,,,,,,,,,,,,
666628,001,2022-11-20_23h52.20.154,Info_measure_main_exp,2022.2.2,Win32,60.08893162,,,,,,,,,,,,,,,,,,masks/mask_002.jpg,,,,,,,,,,,,,,,,,,,,,,,,,,,,,,,,,,,,,,,,,,,,,,,,0,3,3,1,1,,,,,,,,,,,,,,,,,,,,,,,,,,,,,,,,,,,,,,,,,
666628,001,2022-11-20_23h52.20.154,Info_measure_main_exp,2022.2.2,Win32,60.08893162,,,,,,,,,,,,,,,,,,masks/mask_003.jpg,,,,,,,,,,,,,,,,,,,,,,,,,,,,,,,,,,,,,,,,,,,,,,,,0,4,4,2,1,,,,,,,,,,,,,,,,,,,,,,,,,,,,,,,,,,,,,,,,,
666628,001,2022-11-20_23h52.20.154,Info_measure_main_exp,2022.2.2,Win32,60.08893162,,,,,,,,,,,,,,,,,,,,,,,,,,,,,,7,1.6002,1,,,,,,,,,,,,0,131,5,5,2274,2190,absent_patch/patch0002274.jpg,absent_patch/patch0002190.jpg,,,,,,,,,,,,,,,,,,,,0.060185185,0.116666667,1,0,0,response1disk,33,0.008333333,0,1,0,0,center_square,0,32,32,116,1,,,,,,,,,,,,,,,,,,,,,,,
666628,001,2022-11-20_23h52.20.154,Info_measure_main_exp,2022.2.2,Win32,60.08893162,,,,,,,,,,,,,,,,,,masks/mask_004.jpg,,,,,,,,,,,,,,,,,,,,,,,,,,,,,,,,,,,,,,,,,,,0,0,0,3,1,,,,,,,,,,,,,,,,,,,,,,,,,,,,,,,,,,,,,,,,,,,,,,
666628,001,2022-11-20_23h52.20.154,Info_measure_main_exp,2022.2.2,Win32,60.08893162,,,,,,,,,,,,,,,,,,masks/mask_002.jpg,,,,,,,,,,,,,,,,,,,,,,,,,,,,,,,,,,,,,,,,,,,0,1,1,1,1,,,,,,,,,,,,,,,,,,,,,,,,,,,,,,,,,,,,,,,,,,,,,,
666628,001,2022-11-20_23h52.20.154,Info_measure_main_exp,2022.2.2,Win32,60.08893162,,,,,,,,,,,,,,,,,,masks/mask_005.jpg,,,,,,,,,,,,,,,,,,,,,,,,,,,,,,,,,,,,,,,,,,,0,2,2,4,1,,,,,,,,,,,,,,,,,,,,,,,,,,,,,,,,,,,,,,,,,,,,,,
666628,001,2022-11-20_23h52.20.154,Info_measure_main_exp,2022.2.2,Win32,60.08893162,,,,,,,,,,,,,,,,,,masks/mask_003.jpg,,,,,,,,,,,,,,,,,,,,,,,,,,,,,,,,,,,,,,,,,,,0,3,3,2,1,,,,,,,,,,,,,,,,,,,,,,,,,,,,,,,,,,,,,,,,,,,,,,
666628,001,2022-11-20_23h52.20.154,Info_measure_main_exp,2022.2.2,Win32,60.08893162,,,,,,,,,,,,,,,,,,masks/mask_001.jpg,,,,,,,,,,,,,,,,,,,,,,,,,,,,,,,,,,,,,,,,,,,0,4,4,0,1,,,,,,,,,,,,,,,,,,,,,,,,,,,,,,,,,,,,,,,,,,,,,,
666628,001,2022-11-20_23h52.20.154,Info_measure_main_exp,2022.2.2,Win32,60.08893162,,,,,,,,,,,,,,,,,,masks/mask_004.jpg,,,,,,,,,,,,,,,,,,,,,,,,,,,,,,,,,,,,,,,,,,,,,,,,0,0,0,3,1,,,,,,,,,,,,,,,,,,,,,,,,,,,,,,,,,,,,,,,,,
666628,001,2022-11-20_23h52.20.154,Info_measure_main_exp,2022.2.2,Win32,60.08893162,,,,,,,,,,,,,,,,,,masks/mask_003.jpg,,,,,,,,,,,,,,,,,,,,,,,,,,,,,,,,,,,,,,,,,,,,,,,,0,1,1,2,1,,,,,,,,,,,,,,,,,,,,,,,,,,,,,,,,,,,,,,,,,
666628,001,2022-11-20_23h52.20.154,Info_measure_main_exp,2022.2.2,Win32,60.08893162,,,,,,,,,,,,,,,,,,masks/mask_005.jpg,,,,,,,,,,,,,,,,,,,,,,,,,,,,,,,,,,,,,,,,,,,,,,,,0,2,2,4,1,,,,,,,,,,,,,,,,,,,,,,,,,,,,,,,,,,,,,,,,,
666628,001,2022-11-20_23h52.20.154,Info_measure_main_exp,2022.2.2,Win32,60.08893162,,,,,,,,,,,,,,,,,,masks/mask_001.jpg,,,,,,,,,,,,,,,,,,,,,,,,,,,,,,,,,,,,,,,,,,,,,,,,0,3,3,0,1,,,,,,,,,,,,,,,,,,,,,,,,,,,,,,,,,,,,,,,,,
666628,001,2022-11-20_23h52.20.154,Info_measure_main_exp,2022.2.2,Win32,60.08893162,,,,,,,,,,,,,,,,,,masks/mask_002.jpg,,,,,,,,,,,,,,,,,,,,,,,,,,,,,,,,,,,,,,,,,,,,,,,,0,4,4,1,1,,,,,,,,,,,,,,,,,,,,,,,,,,,,,,,,,,,,,,,,,
666628,001,2022-11-20_23h52.20.154,Info_measure_main_exp,2022.2.2,Win32,60.08893162,,,,,,,,,,,,,,,,,,,,,,,,,,,,,,6,1.8338,1,,,,,,,,,,,,0,131,5,5,2250,1950,absent_patch/patch0002250.jpg,absent_patch/patch0001950.jpg,,,,,,,,,,,,,,,,,,,,0.12037037,0.044444444,1,0,0,response1disk,34,-0.010185185,0.00462963,1,0,0,center_square,0,33,33,16,1,,,,,,,,,,,,,,,,,,,,,,,
666628,001,2022-11-20_23h52.20.154,Info_measure_main_exp,2022.2.2,Win32,60.08893162,,,,,,,,,,,,,,,,,,masks/mask_002.jpg,,,,,,,,,,,,,,,,,,,,,,,,,,,,,,,,,,,,,,,,,,,0,0,0,1,1,,,,,,,,,,,,,,,,,,,,,,,,,,,,,,,,,,,,,,,,,,,,,,
666628,001,2022-11-20_23h52.20.154,Info_measure_main_exp,2022.2.2,Win32,60.08893162,,,,,,,,,,,,,,,,,,masks/mask_003.jpg,,,,,,,,,,,,,,,,,,,,,,,,,,,,,,,,,,,,,,,,,,,0,1,1,2,1,,,,,,,,,,,,,,,,,,,,,,,,,,,,,,,,,,,,,,,,,,,,,,
666628,001,2022-11-20_23h52.20.154,Info_measure_main_exp,2022.2.2,Win32,60.08893162,,,,,,,,,,,,,,,,,,masks/mask_004.jpg,,,,,,,,,,,,,,,,,,,,,,,,,,,,,,,,,,,,,,,,,,,0,2,2,3,1,,,,,,,,,,,,,,,,,,,,,,,,,,,,,,,,,,,,,,,,,,,,,,
666628,001,2022-11-20_23h52.20.154,Info_measure_main_exp,2022.2.2,Win32,60.08893162,,,,,,,,,,,,,,,,,,masks/mask_001.jpg,,,,,,,,,,,,,,,,,,,,,,,,,,,,,,,,,,,,,,,,,,,0,3,3,0,1,,,,,,,,,,,,,,,,,,,,,,,,,,,,,,,,,,,,,,,,,,,,,,
666628,001,2022-11-20_23h52.20.154,Info_measure_main_exp,2022.2.2,Win32,60.08893162,,,,,,,,,,,,,,,,,,masks/mask_005.jpg,,,,,,,,,,,,,,,,,,,,,,,,,,,,,,,,,,,,,,,,,,,0,4,4,4,1,,,,,,,,,,,,,,,,,,,,,,,,,,,,,,,,,,,,,,,,,,,,,,
666628,001,2022-11-20_23h52.20.154,Info_measure_main_exp,2022.2.2,Win32,60.08893162,,,,,,,,,,,,,,,,,,masks/mask_002.jpg,,,,,,,,,,,,,,,,,,,,,,,,,,,,,,,,,,,,,,,,,,,,,,,,0,0,0,1,1,,,,,,,,,,,,,,,,,,,,,,,,,,,,,,,,,,,,,,,,,
666628,001,2022-11-20_23h52.20.154,Info_measure_main_exp,2022.2.2,Win32,60.08893162,,,,,,,,,,,,,,,,,,masks/mask_005.jpg,,,,,,,,,,,,,,,,,,,,,,,,,,,,,,,,,,,,,,,,,,,,,,,,0,1,1,4,1,,,,,,,,,,,,,,,,,,,,,,,,,,,,,,,,,,,,,,,,,
666628,001,2022-11-20_23h52.20.154,Info_measure_main_exp,2022.2.2,Win32,60.08893162,,,,,,,,,,,,,,,,,,masks/mask_004.jpg,,,,,,,,,,,,,,,,,,,,,,,,,,,,,,,,,,,,,,,,,,,,,,,,0,2,2,3,1,,,,,,,,,,,,,,,,,,,,,,,,,,,,,,,,,,,,,,,,,
666628,001,2022-11-20_23h52.20.154,Info_measure_main_exp,2022.2.2,Win32,60.08893162,,,,,,,,,,,,,,,,,,masks/mask_003.jpg,,,,,,,,,,,,,,,,,,,,,,,,,,,,,,,,,,,,,,,,,,,,,,,,0,3,3,2,1,,,,,,,,,,,,,,,,,,,,,,,,,,,,,,,,,,,,,,,,,
