Trial_number,Pair_type,Image_num,Patch_1_loc,Patch_2_loc,Patch_1_info,Patch_2_info,Patch_1_name,Patch_2_name,mask_name,first_pass_loop.thisRepN,first_pass_loop.thisTrialN,first_pass_loop.thisN,first_pass_loop.thisIndex,mask_loop.thisRepN,mask_loop.thisTrialN,mask_loop.thisN,mask_loop.thisIndex,mask_loop_2.thisRepN,mask_loop_2.thisTrialN,mask_loop_2.thisN,mask_loop_2.thisIndex,double_pass_loop.thisRepN,double_pass_loop.thisTrialN,double_pass_loop.thisN,double_pass_loop.thisIndex,mask_loop_3.thisRepN,mask_loop_3.thisTrialN,mask_loop_3.thisN,mask_loop_3.thisIndex,mask_loop_4.thisRepN,mask_loop_4.thisTrialN,mask_loop_4.thisN,mask_loop_4.thisIndex,mouse_1.x,mouse_1.y,mouse_1.leftButton,mouse_1.midButton,mouse_1.rightButton,mouse_1.time,mouse_1.clicked_name,first_patch.started,first_patch.stopped,second_patch.started,second_patch.stopped,mouse.started,text_23.started,mouse.x,mouse.y,mouse.leftButton,mouse.midButton,mouse.rightButton,mouse.clicked_name,similarity,response_time,Pass,mouse_11.started,mouse_11.x,mouse_11.y,mouse_11.leftButton,mouse_11.midButton,mouse_11.rightButton,mouse_11.clicked_name,participant,session,date,expName,psychopyVersion,frameRate,
,,,,,,,,,,,,,,,,,,,,,,,,,,,,,,,,,,[0.003703703703703704],[-0.004629629629629629],[1],[0],[0],[0.9850260999996863],['center_square'],,,,,,,,,,,,,,,,,,,,,,,667511,001,2022-11-03_11h39.14.505,Info_measure_main_exp,2022.2.2,145.28126452827547,
4,0,131,5,5,2238,1950,absent_patch/patch0002238.jpg,absent_patch/patch0001950.jpg,masks/mask_004.jpg,0,0,0,3,0,0,0,3,,,,,,,,,,,,,,,,,,,,,,,,8.0586358999999,8.267759800000022,,,,,,,,,,,,,,,,,,,,,667511,001,2022-11-03_11h39.14.505,Info_measure_main_exp,2022.2.2,145.28126452827547,
4,0,131,5,5,2238,1950,absent_patch/patch0002238.jpg,absent_patch/patch0001950.jpg,masks/mask_001.jpg,0,0,0,3,0,1,1,0,,,,,,,,,,,,,,,,,,,,,,,,,,,,,,,,,,,,,,,,,,,,,,667511,001,2022-11-03_11h39.14.505,Info_measure_main_exp,2022.2.2,145.28126452827547,
4,0,131,5,5,2238,1950,absent_patch/patch0002238.jpg,absent_patch/patch0001950.jpg,masks/mask_003.jpg,0,0,0,3,0,2,2,2,,,,,,,,,,,,,,,,,,,,,,,,,,,,,,,,,,,,,,,,,,,,,,667511,001,2022-11-03_11h39.14.505,Info_measure_main_exp,2022.2.2,145.28126452827547,
4,0,131,5,5,2238,1950,absent_patch/patch0002238.jpg,absent_patch/patch0001950.jpg,masks/mask_002.jpg,0,0,0,3,0,3,3,1,,,,,,,,,,,,,,,,,,,,,,,,,,,,,,,,,,,,,,,,,,,,,,667511,001,2022-11-03_11h39.14.505,Info_measure_main_exp,2022.2.2,145.28126452827547,
4,0,131,5,5,2238,1950,absent_patch/patch0002238.jpg,absent_patch/patch0001950.jpg,masks/mask_005.jpg,0,0,0,3,0,4,4,4,,,,,,,,,,,,,,,,,,,,,,,,,,,,,,,,,,,,,,,,,,,,,,667511,001,2022-11-03_11h39.14.505,Info_measure_main_exp,2022.2.2,145.28126452827547,
4,0,131,5,5,2238,1950,absent_patch/patch0002238.jpg,absent_patch/patch0001950.jpg,masks/mask_002.jpg,0,0,0,3,,,,,0,0,0,1,,,,,,,,,,,,,,,,,,,,,,9.058873100000255,9.267641899999944,,,,,,,,,,,,,,,,,,,667511,001,2022-11-03_11h39.14.505,Info_measure_main_exp,2022.2.2,145.28126452827547,
4,0,131,5,5,2238,1950,absent_patch/patch0002238.jpg,absent_patch/patch0001950.jpg,masks/mask_001.jpg,0,0,0,3,,,,,0,1,1,0,,,,,,,,,,,,,,,,,,,,,,,,,,,,,,,,,,,,,,,,,,667511,001,2022-11-03_11h39.14.505,Info_measure_main_exp,2022.2.2,145.28126452827547,
4,0,131,5,5,2238,1950,absent_patch/patch0002238.jpg,absent_patch/patch0001950.jpg,masks/mask_005.jpg,0,0,0,3,,,,,0,2,2,4,,,,,,,,,,,,,,,,,,,,,,,,,,,,,,,,,,,,,,,,,,667511,001,2022-11-03_11h39.14.505,Info_measure_main_exp,2022.2.2,145.28126452827547,
4,0,131,5,5,2238,1950,absent_patch/patch0002238.jpg,absent_patch/patch0001950.jpg,masks/mask_004.jpg,0,0,0,3,,,,,0,3,3,3,,,,,,,,,,,,,,,,,,,,,,,,,,,,,,,,,,,,,,,,,,667511,001,2022-11-03_11h39.14.505,Info_measure_main_exp,2022.2.2,145.28126452827547,
4,0,131,5,5,2238,1950,absent_patch/patch0002238.jpg,absent_patch/patch0001950.jpg,masks/mask_003.jpg,0,0,0,3,,,,,0,4,4,2,,,,,,,,,,,,,,,,,,,,,,,,,,,,,,,,,,,,,,,,,,667511,001,2022-11-03_11h39.14.505,Info_measure_main_exp,2022.2.2,145.28126452827547,
4,0,131,5,5,2238,1950,absent_patch/patch0002238.jpg,absent_patch/patch0001950.jpg,,0,0,0,3,,,,,,,,,,,,,,,,,,,,,,,,,,,,,,,,0.0058109999999942374,9.565662400000292,0.12222222222222222,0.05,1,0,0,response1disk,6,1.9941604999999072,1,1.920000022437307e-05,0.003703703703703704,0.010185185185185186,1,0,0,center_square_2,667511,001,2022-11-03_11h39.14.505,Info_measure_main_exp,2022.2.2,145.28126452827547,
15,0,131,5,5,1950,2166,absent_patch/patch0001950.jpg,absent_patch/patch0002166.jpg,masks/mask_005.jpg,0,1,1,14,0,0,0,4,,,,,,,,,,,,,,,,,,,,,,,,13.02423090000002,13.232842800000071,,,,,,,,,,,,,,,,,,,,,667511,001,2022-11-03_11h39.14.505,Info_measure_main_exp,2022.2.2,145.28126452827547,
15,0,131,5,5,1950,2166,absent_patch/patch0001950.jpg,absent_patch/patch0002166.jpg,masks/mask_004.jpg,0,1,1,14,0,1,1,3,,,,,,,,,,,,,,,,,,,,,,,,,,,,,,,,,,,,,,,,,,,,,,667511,001,2022-11-03_11h39.14.505,Info_measure_main_exp,2022.2.2,145.28126452827547,
15,0,131,5,5,1950,2166,absent_patch/patch0001950.jpg,absent_patch/patch0002166.jpg,masks/mask_002.jpg,0,1,1,14,0,2,2,1,,,,,,,,,,,,,,,,,,,,,,,,,,,,,,,,,,,,,,,,,,,,,,667511,001,2022-11-03_11h39.14.505,Info_measure_main_exp,2022.2.2,145.28126452827547,
15,0,131,5,5,1950,2166,absent_patch/patch0001950.jpg,absent_patch/patch0002166.jpg,masks/mask_003.jpg,0,1,1,14,0,3,3,2,,,,,,,,,,,,,,,,,,,,,,,,,,,,,,,,,,,,,,,,,,,,,,667511,001,2022-11-03_11h39.14.505,Info_measure_main_exp,2022.2.2,145.28126452827547,
15,0,131,5,5,1950,2166,absent_patch/patch0001950.jpg,absent_patch/patch0002166.jpg,masks/mask_001.jpg,0,1,1,14,0,4,4,0,,,,,,,,,,,,,,,,,,,,,,,,,,,,,,,,,,,,,,,,,,,,,,667511,001,2022-11-03_11h39.14.505,Info_measure_main_exp,2022.2.2,145.28126452827547,
15,0,131,5,5,1950,2166,absent_patch/patch0001950.jpg,absent_patch/patch0002166.jpg,masks/mask_004.jpg,0,1,1,14,,,,,0,0,0,3,,,,,,,,,,,,,,,,,,,,,,14.024183600000015,14.229201500000272,,,,,,,,,,,,,,,,,,,667511,001,2022-11-03_11h39.14.505,Info_measure_main_exp,2022.2.2,145.28126452827547,
15,0,131,5,5,1950,2166,absent_patch/patch0001950.jpg,absent_patch/patch0002166.jpg,masks/mask_002.jpg,0,1,1,14,,,,,0,1,1,1,,,,,,,,,,,,,,,,,,,,,,,,,,,,,,,,,,,,,,,,,,667511,001,2022-11-03_11h39.14.505,Info_measure_main_exp,2022.2.2,145.28126452827547,
15,0,131,5,5,1950,2166,absent_patch/patch0001950.jpg,absent_patch/patch0002166.jpg,masks/mask_003.jpg,0,1,1,14,,,,,0,2,2,2,,,,,,,,,,,,,,,,,,,,,,,,,,,,,,,,,,,,,,,,,,667511,001,2022-11-03_11h39.14.505,Info_measure_main_exp,2022.2.2,145.28126452827547,
15,0,131,5,5,1950,2166,absent_patch/patch0001950.jpg,absent_patch/patch0002166.jpg,masks/mask_005.jpg,0,1,1,14,,,,,0,3,3,4,,,,,,,,,,,,,,,,,,,,,,,,,,,,,,,,,,,,,,,,,,667511,001,2022-11-03_11h39.14.505,Info_measure_main_exp,2022.2.2,145.28126452827547,
15,0,131,5,5,1950,2166,absent_patch/patch0001950.jpg,absent_patch/patch0002166.jpg,masks/mask_001.jpg,0,1,1,14,,,,,0,4,4,0,,,,,,,,,,,,,,,,,,,,,,,,,,,,,,,,,,,,,,,,,,667511,001,2022-11-03_11h39.14.505,Info_measure_main_exp,2022.2.2,145.28126452827547,
15,0,131,5,5,1950,2166,absent_patch/patch0001950.jpg,absent_patch/patch0002166.jpg,,0,1,1,14,,,,,,,,,,,,,,,,,,,,,,,,,,,,,,,,0.005720400000427617,14.531236799999988,0.017592592592592594,-0.12129629629629629,1,0,0,response3disk,4,1.3410338999997293,1,1.9100000372418435e-05,0.0,0.001851851851851852,1,0,0,center_square_2,667511,001,2022-11-03_11h39.14.505,Info_measure_main_exp,2022.2.2,145.28126452827547,
1,1,131,5,5,1986,1,absent_patch/patch0001986.jpg,present_patch/cong_131_5_a.jpg,masks/mask_002.jpg,0,2,2,0,0,0,0,1,,,,,,,,,,,,,,,,,,,,,,,,17.100681400000212,17.30941470000016,,,,,,,,,,,,,,,,,,,,,667511,001,2022-11-03_11h39.14.505,Info_measure_main_exp,2022.2.2,145.28126452827547,
1,1,131,5,5,1986,1,absent_patch/patch0001986.jpg,present_patch/cong_131_5_a.jpg,masks/mask_004.jpg,0,2,2,0,0,1,1,3,,,,,,,,,,,,,,,,,,,,,,,,,,,,,,,,,,,,,,,,,,,,,,667511,001,2022-11-03_11h39.14.505,Info_measure_main_exp,2022.2.2,145.28126452827547,
1,1,131,5,5,1986,1,absent_patch/patch0001986.jpg,present_patch/cong_131_5_a.jpg,masks/mask_003.jpg,0,2,2,0,0,2,2,2,,,,,,,,,,,,,,,,,,,,,,,,,,,,,,,,,,,,,,,,,,,,,,667511,001,2022-11-03_11h39.14.505,Info_measure_main_exp,2022.2.2,145.28126452827547,
1,1,131,5,5,1986,1,absent_patch/patch0001986.jpg,present_patch/cong_131_5_a.jpg,masks/mask_001.jpg,0,2,2,0,0,3,3,0,,,,,,,,,,,,,,,,,,,,,,,,,,,,,,,,,,,,,,,,,,,,,,667511,001,2022-11-03_11h39.14.505,Info_measure_main_exp,2022.2.2,145.28126452827547,
1,1,131,5,5,1986,1,absent_patch/patch0001986.jpg,present_patch/cong_131_5_a.jpg,masks/mask_005.jpg,0,2,2,0,0,4,4,4,,,,,,,,,,,,,,,,,,,,,,,,,,,,,,,,,,,,,,,,,,,,,,667511,001,2022-11-03_11h39.14.505,Info_measure_main_exp,2022.2.2,145.28126452827547,
1,1,131,5,5,1986,1,absent_patch/patch0001986.jpg,present_patch/cong_131_5_a.jpg,masks/mask_003.jpg,0,2,2,0,,,,,0,0,0,2,,,,,,,,,,,,,,,,,,,,,,18.10065910000003,18.304580500000156,,,,,,,,,,,,,,,,,,,667511,001,2022-11-03_11h39.14.505,Info_measure_main_exp,2022.2.2,145.28126452827547,
1,1,131,5,5,1986,1,absent_patch/patch0001986.jpg,present_patch/cong_131_5_a.jpg,masks/mask_002.jpg,0,2,2,0,,,,,0,1,1,1,,,,,,,,,,,,,,,,,,,,,,,,,,,,,,,,,,,,,,,,,,667511,001,2022-11-03_11h39.14.505,Info_measure_main_exp,2022.2.2,145.28126452827547,
1,1,131,5,5,1986,1,absent_patch/patch0001986.jpg,present_patch/cong_131_5_a.jpg,masks/mask_001.jpg,0,2,2,0,,,,,0,2,2,0,,,,,,,,,,,,,,,,,,,,,,,,,,,,,,,,,,,,,,,,,,667511,001,2022-11-03_11h39.14.505,Info_measure_main_exp,2022.2.2,145.28126452827547,
1,1,131,5,5,1986,1,absent_patch/patch0001986.jpg,present_patch/cong_131_5_a.jpg,masks/mask_004.jpg,0,2,2,0,,,,,0,3,3,3,,,,,,,,,,,,,,,,,,,,,,,,,,,,,,,,,,,,,,,,,,667511,001,2022-11-03_11h39.14.505,Info_measure_main_exp,2022.2.2,145.28126452827547,
1,1,131,5,5,1986,1,absent_patch/patch0001986.jpg,present_patch/cong_131_5_a.jpg,masks/mask_005.jpg,0,2,2,0,,,,,0,4,4,4,,,,,,,,,,,,,,,,,,,,,,,,,,,,,,,,,,,,,,,,,,667511,001,2022-11-03_11h39.14.505,Info_measure_main_exp,2022.2.2,145.28126452827547,
1,1,131,5,5,1986,1,absent_patch/patch0001986.jpg,present_patch/cong_131_5_a.jpg,,0,2,2,0,,,,,,,,,,,,,,,,,,,,,,,,,,,,,,,,0.0061190999999780615,18.60775169999988,-0.15555555555555556,-0.04351851851851852,1,0,0,response5disk,2,1.396372899999733,1,1.6599999980826396e-05,-0.004629629629629629,0.008333333333333333,1,0,0,center_square_2,667511,001,2022-11-03_11h39.14.505,Info_measure_main_exp,2022.2.2,145.28126452827547,
6,0,131,5,5,1974,2238,absent_patch/patch0001974.jpg,absent_patch/patch0002238.jpg,masks/mask_003.jpg,0,3,3,5,0,0,0,2,,,,,,,,,,,,,,,,,,,,,,,,22.73953470000015,22.94832260000021,,,,,,,,,,,,,,,,,,,,,667511,001,2022-11-03_11h39.14.505,Info_measure_main_exp,2022.2.2,145.28126452827547,
6,0,131,5,5,1974,2238,absent_patch/patch0001974.jpg,absent_patch/patch0002238.jpg,masks/mask_005.jpg,0,3,3,5,0,1,1,4,,,,,,,,,,,,,,,,,,,,,,,,,,,,,,,,,,,,,,,,,,,,,,667511,001,2022-11-03_11h39.14.505,Info_measure_main_exp,2022.2.2,145.28126452827547,
6,0,131,5,5,1974,2238,absent_patch/patch0001974.jpg,absent_patch/patch0002238.jpg,masks/mask_004.jpg,0,3,3,5,0,2,2,3,,,,,,,,,,,,,,,,,,,,,,,,,,,,,,,,,,,,,,,,,,,,,,667511,001,2022-11-03_11h39.14.505,Info_measure_main_exp,2022.2.2,145.28126452827547,
6,0,131,5,5,1974,2238,absent_patch/patch0001974.jpg,absent_patch/patch0002238.jpg,masks/mask_001.jpg,0,3,3,5,0,3,3,0,,,,,,,,,,,,,,,,,,,,,,,,,,,,,,,,,,,,,,,,,,,,,,667511,001,2022-11-03_11h39.14.505,Info_measure_main_exp,2022.2.2,145.28126452827547,
6,0,131,5,5,1974,2238,absent_patch/patch0001974.jpg,absent_patch/patch0002238.jpg,masks/mask_002.jpg,0,3,3,5,0,4,4,1,,,,,,,,,,,,,,,,,,,,,,,,,,,,,,,,,,,,,,,,,,,,,,667511,001,2022-11-03_11h39.14.505,Info_measure_main_exp,2022.2.2,145.28126452827547,
6,0,131,5,5,1974,2238,absent_patch/patch0001974.jpg,absent_patch/patch0002238.jpg,masks/mask_003.jpg,0,3,3,5,,,,,0,0,0,2,,,,,,,,,,,,,,,,,,,,,,23.73961650000001,23.94349390000025,,,,,,,,,,,,,,,,,,,667511,001,2022-11-03_11h39.14.505,Info_measure_main_exp,2022.2.2,145.28126452827547,
6,0,131,5,5,1974,2238,absent_patch/patch0001974.jpg,absent_patch/patch0002238.jpg,masks/mask_005.jpg,0,3,3,5,,,,,0,1,1,4,,,,,,,,,,,,,,,,,,,,,,,,,,,,,,,,,,,,,,,,,,667511,001,2022-11-03_11h39.14.505,Info_measure_main_exp,2022.2.2,145.28126452827547,
6,0,131,5,5,1974,2238,absent_patch/patch0001974.jpg,absent_patch/patch0002238.jpg,masks/mask_001.jpg,0,3,3,5,,,,,0,2,2,0,,,,,,,,,,,,,,,,,,,,,,,,,,,,,,,,,,,,,,,,,,667511,001,2022-11-03_11h39.14.505,Info_measure_main_exp,2022.2.2,145.28126452827547,
6,0,131,5,5,1974,2238,absent_patch/patch0001974.jpg,absent_patch/patch0002238.jpg,masks/mask_004.jpg,0,3,3,5,,,,,0,3,3,3,,,,,,,,,,,,,,,,,,,,,,,,,,,,,,,,,,,,,,,,,,667511,001,2022-11-03_11h39.14.505,Info_measure_main_exp,2022.2.2,145.28126452827547,
6,0,131,5,5,1974,2238,absent_patch/patch0001974.jpg,absent_patch/patch0002238.jpg,masks/mask_002.jpg,0,3,3,5,,,,,0,4,4,1,,,,,,,,,,,,,,,,,,,,,,,,,,,,,,,,,,,,,,,,,,667511,001,2022-11-03_11h39.14.505,Info_measure_main_exp,2022.2.2,145.28126452827547,
6,0,131,5,5,1974,2238,absent_patch/patch0001974.jpg,absent_patch/patch0002238.jpg,,0,3,3,5,,,,,,,,,,,,,,,,,,,,,,,,,,,,,,,,0.005881700000372803,24.246467400000256,0.09537037037037037,0.053703703703703705,1,0,0,response1disk,6,3.1188634000000093,1,1.7100000150094274e-05,-0.003703703703703704,0.002777777777777778,1,0,0,center_square_2,667511,001,2022-11-03_11h39.14.505,Info_measure_main_exp,2022.2.2,145.28126452827547,
10,0,131,5,5,1974,2166,absent_patch/patch0001974.jpg,absent_patch/patch0002166.jpg,masks/mask_003.jpg,0,4,4,9,0,0,0,2,,,,,,,,,,,,,,,,,,,,,,,,28.579788000000008,28.788456600000245,,,,,,,,,,,,,,,,,,,,,667511,001,2022-11-03_11h39.14.505,Info_measure_main_exp,2022.2.2,145.28126452827547,
10,0,131,5,5,1974,2166,absent_patch/patch0001974.jpg,absent_patch/patch0002166.jpg,masks/mask_004.jpg,0,4,4,9,0,1,1,3,,,,,,,,,,,,,,,,,,,,,,,,,,,,,,,,,,,,,,,,,,,,,,667511,001,2022-11-03_11h39.14.505,Info_measure_main_exp,2022.2.2,145.28126452827547,
10,0,131,5,5,1974,2166,absent_patch/patch0001974.jpg,absent_patch/patch0002166.jpg,masks/mask_001.jpg,0,4,4,9,0,2,2,0,,,,,,,,,,,,,,,,,,,,,,,,,,,,,,,,,,,,,,,,,,,,,,667511,001,2022-11-03_11h39.14.505,Info_measure_main_exp,2022.2.2,145.28126452827547,
10,0,131,5,5,1974,2166,absent_patch/patch0001974.jpg,absent_patch/patch0002166.jpg,masks/mask_002.jpg,0,4,4,9,0,3,3,1,,,,,,,,,,,,,,,,,,,,,,,,,,,,,,,,,,,,,,,,,,,,,,667511,001,2022-11-03_11h39.14.505,Info_measure_main_exp,2022.2.2,145.28126452827547,
10,0,131,5,5,1974,2166,absent_patch/patch0001974.jpg,absent_patch/patch0002166.jpg,masks/mask_005.jpg,0,4,4,9,0,4,4,4,,,,,,,,,,,,,,,,,,,,,,,,,,,,,,,,,,,,,,,,,,,,,,667511,001,2022-11-03_11h39.14.505,Info_measure_main_exp,2022.2.2,145.28126452827547,
10,0,131,5,5,1974,2166,absent_patch/patch0001974.jpg,absent_patch/patch0002166.jpg,masks/mask_002.jpg,0,4,4,9,,,,,0,0,0,1,,,,,,,,,,,,,,,,,,,,,,29.579803699999957,29.78454580000016,,,,,,,,,,,,,,,,,,,667511,001,2022-11-03_11h39.14.505,Info_measure_main_exp,2022.2.2,145.28126452827547,
10,0,131,5,5,1974,2166,absent_patch/patch0001974.jpg,absent_patch/patch0002166.jpg,masks/mask_005.jpg,0,4,4,9,,,,,0,1,1,4,,,,,,,,,,,,,,,,,,,,,,,,,,,,,,,,,,,,,,,,,,667511,001,2022-11-03_11h39.14.505,Info_measure_main_exp,2022.2.2,145.28126452827547,
10,0,131,5,5,1974,2166,absent_patch/patch0001974.jpg,absent_patch/patch0002166.jpg,masks/mask_004.jpg,0,4,4,9,,,,,0,2,2,3,,,,,,,,,,,,,,,,,,,,,,,,,,,,,,,,,,,,,,,,,,667511,001,2022-11-03_11h39.14.505,Info_measure_main_exp,2022.2.2,145.28126452827547,
10,0,131,5,5,1974,2166,absent_patch/patch0001974.jpg,absent_patch/patch0002166.jpg,masks/mask_003.jpg,0,4,4,9,,,,,0,3,3,2,,,,,,,,,,,,,,,,,,,,,,,,,,,,,,,,,,,,,,,,,,667511,001,2022-11-03_11h39.14.505,Info_measure_main_exp,2022.2.2,145.28126452827547,
10,0,131,5,5,1974,2166,absent_patch/patch0001974.jpg,absent_patch/patch0002166.jpg,masks/mask_001.jpg,0,4,4,9,,,,,0,4,4,0,,,,,,,,,,,,,,,,,,,,,,,,,,,,,,,,,,,,,,,,,,667511,001,2022-11-03_11h39.14.505,Info_measure_main_exp,2022.2.2,145.28126452827547,
10,0,131,5,5,1974,2166,absent_patch/patch0001974.jpg,absent_patch/patch0002166.jpg,,0,4,4,9,,,,,,,,,,,,,,,,,,,,,,,,,,,,,,,,0.005634399999962625,30.0868531000001,-0.08611111111111111,0.022222222222222223,1,0,0,response7disk,1,3.181843800000024,1,1.9099999917671084e-05,-0.006481481481481481,0.001851851851851852,1,0,0,center_square_2,667511,001,2022-11-03_11h39.14.505,Info_measure_main_exp,2022.2.2,145.28126452827547,
5,1,131,5,5,1,2166,present_patch/cong_131_5_a.jpg,absent_patch/patch0002166.jpg,masks/mask_005.jpg,0,5,5,4,0,0,0,4,,,,,,,,,,,,,,,,,,,,,,,,34.2601823,34.469125500000246,,,,,,,,,,,,,,,,,,,,,667511,001,2022-11-03_11h39.14.505,Info_measure_main_exp,2022.2.2,145.28126452827547,
5,1,131,5,5,1,2166,present_patch/cong_131_5_a.jpg,absent_patch/patch0002166.jpg,masks/mask_004.jpg,0,5,5,4,0,1,1,3,,,,,,,,,,,,,,,,,,,,,,,,,,,,,,,,,,,,,,,,,,,,,,667511,001,2022-11-03_11h39.14.505,Info_measure_main_exp,2022.2.2,145.28126452827547,
5,1,131,5,5,1,2166,present_patch/cong_131_5_a.jpg,absent_patch/patch0002166.jpg,masks/mask_001.jpg,0,5,5,4,0,2,2,0,,,,,,,,,,,,,,,,,,,,,,,,,,,,,,,,,,,,,,,,,,,,,,667511,001,2022-11-03_11h39.14.505,Info_measure_main_exp,2022.2.2,145.28126452827547,
5,1,131,5,5,1,2166,present_patch/cong_131_5_a.jpg,absent_patch/patch0002166.jpg,masks/mask_003.jpg,0,5,5,4,0,3,3,2,,,,,,,,,,,,,,,,,,,,,,,,,,,,,,,,,,,,,,,,,,,,,,667511,001,2022-11-03_11h39.14.505,Info_measure_main_exp,2022.2.2,145.28126452827547,
5,1,131,5,5,1,2166,present_patch/cong_131_5_a.jpg,absent_patch/patch0002166.jpg,masks/mask_002.jpg,0,5,5,4,0,4,4,1,,,,,,,,,,,,,,,,,,,,,,,,,,,,,,,,,,,,,,,,,,,,,,667511,001,2022-11-03_11h39.14.505,Info_measure_main_exp,2022.2.2,145.28126452827547,
5,1,131,5,5,1,2166,present_patch/cong_131_5_a.jpg,absent_patch/patch0002166.jpg,masks/mask_002.jpg,0,5,5,4,,,,,0,0,0,1,,,,,,,,,,,,,,,,,,,,,,35.260349399999996,35.464476900000136,,,,,,,,,,,,,,,,,,,667511,001,2022-11-03_11h39.14.505,Info_measure_main_exp,2022.2.2,145.28126452827547,
5,1,131,5,5,1,2166,present_patch/cong_131_5_a.jpg,absent_patch/patch0002166.jpg,masks/mask_001.jpg,0,5,5,4,,,,,0,1,1,0,,,,,,,,,,,,,,,,,,,,,,,,,,,,,,,,,,,,,,,,,,667511,001,2022-11-03_11h39.14.505,Info_measure_main_exp,2022.2.2,145.28126452827547,
5,1,131,5,5,1,2166,present_patch/cong_131_5_a.jpg,absent_patch/patch0002166.jpg,masks/mask_003.jpg,0,5,5,4,,,,,0,2,2,2,,,,,,,,,,,,,,,,,,,,,,,,,,,,,,,,,,,,,,,,,,667511,001,2022-11-03_11h39.14.505,Info_measure_main_exp,2022.2.2,145.28126452827547,
5,1,131,5,5,1,2166,present_patch/cong_131_5_a.jpg,absent_patch/patch0002166.jpg,masks/mask_004.jpg,0,5,5,4,,,,,0,3,3,3,,,,,,,,,,,,,,,,,,,,,,,,,,,,,,,,,,,,,,,,,,667511,001,2022-11-03_11h39.14.505,Info_measure_main_exp,2022.2.2,145.28126452827547,
5,1,131,5,5,1,2166,present_patch/cong_131_5_a.jpg,absent_patch/patch0002166.jpg,masks/mask_005.jpg,0,5,5,4,,,,,0,4,4,4,,,,,,,,,,,,,,,,,,,,,,,,,,,,,,,,,,,,,,,,,,667511,001,2022-11-03_11h39.14.505,Info_measure_main_exp,2022.2.2,145.28126452827547,
5,1,131,5,5,1,2166,present_patch/cong_131_5_a.jpg,absent_patch/patch0002166.jpg,,0,5,5,4,,,,,,,,,,,,,,,,,,,,,,,,,,,,,,,,0.005528200000298966,35.76739290000023,0.1537037037037037,0.02962962962962963,1,0,0,response1disk,6,3.112481900000148,1,1.7800000023271423e-05,-0.002777777777777778,0.006481481481481481,1,0,0,center_square_2,667511,001,2022-11-03_11h39.14.505,Info_measure_main_exp,2022.2.2,145.28126452827547,
13,1,131,5,5,1950,1,absent_patch/patch0001950.jpg,present_patch/cong_131_5_a.jpg,masks/mask_002.jpg,0,6,6,12,0,0,0,1,,,,,,,,,,,,,,,,,,,,,,,,40.02416050000011,40.233060099999875,,,,,,,,,,,,,,,,,,,,,667511,001,2022-11-03_11h39.14.505,Info_measure_main_exp,2022.2.2,145.28126452827547,
13,1,131,5,5,1950,1,absent_patch/patch0001950.jpg,present_patch/cong_131_5_a.jpg,masks/mask_004.jpg,0,6,6,12,0,1,1,3,,,,,,,,,,,,,,,,,,,,,,,,,,,,,,,,,,,,,,,,,,,,,,667511,001,2022-11-03_11h39.14.505,Info_measure_main_exp,2022.2.2,145.28126452827547,
13,1,131,5,5,1950,1,absent_patch/patch0001950.jpg,present_patch/cong_131_5_a.jpg,masks/mask_005.jpg,0,6,6,12,0,2,2,4,,,,,,,,,,,,,,,,,,,,,,,,,,,,,,,,,,,,,,,,,,,,,,667511,001,2022-11-03_11h39.14.505,Info_measure_main_exp,2022.2.2,145.28126452827547,
13,1,131,5,5,1950,1,absent_patch/patch0001950.jpg,present_patch/cong_131_5_a.jpg,masks/mask_003.jpg,0,6,6,12,0,3,3,2,,,,,,,,,,,,,,,,,,,,,,,,,,,,,,,,,,,,,,,,,,,,,,667511,001,2022-11-03_11h39.14.505,Info_measure_main_exp,2022.2.2,145.28126452827547,
13,1,131,5,5,1950,1,absent_patch/patch0001950.jpg,present_patch/cong_131_5_a.jpg,masks/mask_001.jpg,0,6,6,12,0,4,4,0,,,,,,,,,,,,,,,,,,,,,,,,,,,,,,,,,,,,,,,,,,,,,,667511,001,2022-11-03_11h39.14.505,Info_measure_main_exp,2022.2.2,145.28126452827547,
13,1,131,5,5,1950,1,absent_patch/patch0001950.jpg,present_patch/cong_131_5_a.jpg,masks/mask_001.jpg,0,6,6,12,,,,,0,0,0,0,,,,,,,,,,,,,,,,,,,,,,41.02410360000022,41.229369900000165,,,,,,,,,,,,,,,,,,,667511,001,2022-11-03_11h39.14.505,Info_measure_main_exp,2022.2.2,145.28126452827547,
13,1,131,5,5,1950,1,absent_patch/patch0001950.jpg,present_patch/cong_131_5_a.jpg,masks/mask_003.jpg,0,6,6,12,,,,,0,1,1,2,,,,,,,,,,,,,,,,,,,,,,,,,,,,,,,,,,,,,,,,,,667511,001,2022-11-03_11h39.14.505,Info_measure_main_exp,2022.2.2,145.28126452827547,
13,1,131,5,5,1950,1,absent_patch/patch0001950.jpg,present_patch/cong_131_5_a.jpg,masks/mask_002.jpg,0,6,6,12,,,,,0,2,2,1,,,,,,,,,,,,,,,,,,,,,,,,,,,,,,,,,,,,,,,,,,667511,001,2022-11-03_11h39.14.505,Info_measure_main_exp,2022.2.2,145.28126452827547,
13,1,131,5,5,1950,1,absent_patch/patch0001950.jpg,present_patch/cong_131_5_a.jpg,masks/mask_004.jpg,0,6,6,12,,,,,0,3,3,3,,,,,,,,,,,,,,,,,,,,,,,,,,,,,,,,,,,,,,,,,,667511,001,2022-11-03_11h39.14.505,Info_measure_main_exp,2022.2.2,145.28126452827547,
13,1,131,5,5,1950,1,absent_patch/patch0001950.jpg,present_patch/cong_131_5_a.jpg,masks/mask_005.jpg,0,6,6,12,,,,,0,4,4,4,,,,,,,,,,,,,,,,,,,,,,,,,,,,,,,,,,,,,,,,,,667511,001,2022-11-03_11h39.14.505,Info_measure_main_exp,2022.2.2,145.28126452827547,
13,1,131,5,5,1950,1,absent_patch/patch0001950.jpg,present_patch/cong_131_5_a.jpg,,0,6,6,12,,,,,,,,,,,,,,,,,,,,,,,,,,,,,,,,0.005167900000287773,41.5310929000002,0.03333333333333333,-0.11574074074074074,1,0,0,response3disk,4,0.8689611999998306,1,1.8400000044493936e-05,0.000925925925925926,0.010185185185185186,1,0,0,center_square_2,667511,001,2022-11-03_11h39.14.505,Info_measure_main_exp,2022.2.2,145.28126452827547,
3,0,131,5,5,1950,1974,absent_patch/patch0001950.jpg,absent_patch/patch0001974.jpg,masks/mask_001.jpg,0,7,7,2,0,0,0,0,,,,,,,,,,,,,,,,,,,,,,,,43.44775040000013,43.656563800000185,,,,,,,,,,,,,,,,,,,,,667511,001,2022-11-03_11h39.14.505,Info_measure_main_exp,2022.2.2,145.28126452827547,
3,0,131,5,5,1950,1974,absent_patch/patch0001950.jpg,absent_patch/patch0001974.jpg,masks/mask_004.jpg,0,7,7,2,0,1,1,3,,,,,,,,,,,,,,,,,,,,,,,,,,,,,,,,,,,,,,,,,,,,,,667511,001,2022-11-03_11h39.14.505,Info_measure_main_exp,2022.2.2,145.28126452827547,
3,0,131,5,5,1950,1974,absent_patch/patch0001950.jpg,absent_patch/patch0001974.jpg,masks/mask_005.jpg,0,7,7,2,0,2,2,4,,,,,,,,,,,,,,,,,,,,,,,,,,,,,,,,,,,,,,,,,,,,,,667511,001,2022-11-03_11h39.14.505,Info_measure_main_exp,2022.2.2,145.28126452827547,
3,0,131,5,5,1950,1974,absent_patch/patch0001950.jpg,absent_patch/patch0001974.jpg,masks/mask_003.jpg,0,7,7,2,0,3,3,2,,,,,,,,,,,,,,,,,,,,,,,,,,,,,,,,,,,,,,,,,,,,,,667511,001,2022-11-03_11h39.14.505,Info_measure_main_exp,2022.2.2,145.28126452827547,
3,0,131,5,5,1950,1974,absent_patch/patch0001950.jpg,absent_patch/patch0001974.jpg,masks/mask_002.jpg,0,7,7,2,0,4,4,1,,,,,,,,,,,,,,,,,,,,,,,,,,,,,,,,,,,,,,,,,,,,,,667511,001,2022-11-03_11h39.14.505,Info_measure_main_exp,2022.2.2,145.28126452827547,
3,0,131,5,5,1950,1974,absent_patch/patch0001950.jpg,absent_patch/patch0001974.jpg,masks/mask_005.jpg,0,7,7,2,,,,,0,0,0,4,,,,,,,,,,,,,,,,,,,,,,44.44770120000021,44.65233399999988,,,,,,,,,,,,,,,,,,,667511,001,2022-11-03_11h39.14.505,Info_measure_main_exp,2022.2.2,145.28126452827547,
3,0,131,5,5,1950,1974,absent_patch/patch0001950.jpg,absent_patch/patch0001974.jpg,masks/mask_003.jpg,0,7,7,2,,,,,0,1,1,2,,,,,,,,,,,,,,,,,,,,,,,,,,,,,,,,,,,,,,,,,,667511,001,2022-11-03_11h39.14.505,Info_measure_main_exp,2022.2.2,145.28126452827547,
3,0,131,5,5,1950,1974,absent_patch/patch0001950.jpg,absent_patch/patch0001974.jpg,masks/mask_001.jpg,0,7,7,2,,,,,0,2,2,0,,,,,,,,,,,,,,,,,,,,,,,,,,,,,,,,,,,,,,,,,,667511,001,2022-11-03_11h39.14.505,Info_measure_main_exp,2022.2.2,145.28126452827547,
3,0,131,5,5,1950,1974,absent_patch/patch0001950.jpg,absent_patch/patch0001974.jpg,masks/mask_002.jpg,0,7,7,2,,,,,0,3,3,1,,,,,,,,,,,,,,,,,,,,,,,,,,,,,,,,,,,,,,,,,,667511,001,2022-11-03_11h39.14.505,Info_measure_main_exp,2022.2.2,145.28126452827547,
3,0,131,5,5,1950,1974,absent_patch/patch0001950.jpg,absent_patch/patch0001974.jpg,masks/mask_004.jpg,0,7,7,2,,,,,0,4,4,3,,,,,,,,,,,,,,,,,,,,,,,,,,,,,,,,,,,,,,,,,,667511,001,2022-11-03_11h39.14.505,Info_measure_main_exp,2022.2.2,145.28126452827547,
3,0,131,5,5,1950,1974,absent_patch/patch0001950.jpg,absent_patch/patch0001974.jpg,,0,7,7,2,,,,,,,,,,,,,,,,,,,,,,,,,,,,,,,,0.005767500000274595,44.954693000000134,-0.09259259259259259,0.05648148148148148,1,0,0,response7disk,1,1.5705613000000085,1,1.699999984339229e-05,0.003703703703703704,-0.003703703703703704,1,0,0,center_square_2,667511,001,2022-11-03_11h39.14.505,Info_measure_main_exp,2022.2.2,145.28126452827547,
7,0,131,5,5,1986,2238,absent_patch/patch0001986.jpg,absent_patch/patch0002238.jpg,masks/mask_001.jpg,0,8,8,6,0,0,0,0,,,,,,,,,,,,,,,,,,,,,,,,47.517361900000196,47.72591330000023,,,,,,,,,,,,,,,,,,,,,667511,001,2022-11-03_11h39.14.505,Info_measure_main_exp,2022.2.2,145.28126452827547,
7,0,131,5,5,1986,2238,absent_patch/patch0001986.jpg,absent_patch/patch0002238.jpg,masks/mask_002.jpg,0,8,8,6,0,1,1,1,,,,,,,,,,,,,,,,,,,,,,,,,,,,,,,,,,,,,,,,,,,,,,667511,001,2022-11-03_11h39.14.505,Info_measure_main_exp,2022.2.2,145.28126452827547,
7,0,131,5,5,1986,2238,absent_patch/patch0001986.jpg,absent_patch/patch0002238.jpg,masks/mask_003.jpg,0,8,8,6,0,2,2,2,,,,,,,,,,,,,,,,,,,,,,,,,,,,,,,,,,,,,,,,,,,,,,667511,001,2022-11-03_11h39.14.505,Info_measure_main_exp,2022.2.2,145.28126452827547,
7,0,131,5,5,1986,2238,absent_patch/patch0001986.jpg,absent_patch/patch0002238.jpg,masks/mask_004.jpg,0,8,8,6,0,3,3,3,,,,,,,,,,,,,,,,,,,,,,,,,,,,,,,,,,,,,,,,,,,,,,667511,001,2022-11-03_11h39.14.505,Info_measure_main_exp,2022.2.2,145.28126452827547,
7,0,131,5,5,1986,2238,absent_patch/patch0001986.jpg,absent_patch/patch0002238.jpg,masks/mask_005.jpg,0,8,8,6,0,4,4,4,,,,,,,,,,,,,,,,,,,,,,,,,,,,,,,,,,,,,,,,,,,,,,667511,001,2022-11-03_11h39.14.505,Info_measure_main_exp,2022.2.2,145.28126452827547,
7,0,131,5,5,1986,2238,absent_patch/patch0001986.jpg,absent_patch/patch0002238.jpg,masks/mask_005.jpg,0,8,8,6,,,,,0,0,0,4,,,,,,,,,,,,,,,,,,,,,,48.51735180000014,48.72106780000013,,,,,,,,,,,,,,,,,,,667511,001,2022-11-03_11h39.14.505,Info_measure_main_exp,2022.2.2,145.28126452827547,
7,0,131,5,5,1986,2238,absent_patch/patch0001986.jpg,absent_patch/patch0002238.jpg,masks/mask_002.jpg,0,8,8,6,,,,,0,1,1,1,,,,,,,,,,,,,,,,,,,,,,,,,,,,,,,,,,,,,,,,,,667511,001,2022-11-03_11h39.14.505,Info_measure_main_exp,2022.2.2,145.28126452827547,
7,0,131,5,5,1986,2238,absent_patch/patch0001986.jpg,absent_patch/patch0002238.jpg,masks/mask_004.jpg,0,8,8,6,,,,,0,2,2,3,,,,,,,,,,,,,,,,,,,,,,,,,,,,,,,,,,,,,,,,,,667511,001,2022-11-03_11h39.14.505,Info_measure_main_exp,2022.2.2,145.28126452827547,
7,0,131,5,5,1986,2238,absent_patch/patch0001986.jpg,absent_patch/patch0002238.jpg,masks/mask_003.jpg,0,8,8,6,,,,,0,3,3,2,,,,,,,,,,,,,,,,,,,,,,,,,,,,,,,,,,,,,,,,,,667511,001,2022-11-03_11h39.14.505,Info_measure_main_exp,2022.2.2,145.28126452827547,
7,0,131,5,5,1986,2238,absent_patch/patch0001986.jpg,absent_patch/patch0002238.jpg,masks/mask_001.jpg,0,8,8,6,,,,,0,4,4,0,,,,,,,,,,,,,,,,,,,,,,,,,,,,,,,,,,,,,,,,,,667511,001,2022-11-03_11h39.14.505,Info_measure_main_exp,2022.2.2,145.28126452827547,
7,0,131,5,5,1986,2238,absent_patch/patch0001986.jpg,absent_patch/patch0002238.jpg,,0,8,8,6,,,,,,,,,,,,,,,,,,,,,,,,,,,,,,,,0.005830900000091788,49.02432660000022,0.1287037037037037,0.05185185185185185,1,0,0,response1disk,6,1.5567424999999275,1,1.9499999780236976e-05,-0.004629629629629629,-0.011111111111111112,1,0,0,center_square_2,667511,001,2022-11-03_11h39.14.505,Info_measure_main_exp,2022.2.2,145.28126452827547,
9,0,131,5,5,1986,1950,absent_patch/patch0001986.jpg,absent_patch/patch0001950.jpg,masks/mask_003.jpg,0,9,9,8,0,0,0,2,,,,,,,,,,,,,,,,,,,,,,,,51.57303120000006,51.78161039999986,,,,,,,,,,,,,,,,,,,,,667511,001,2022-11-03_11h39.14.505,Info_measure_main_exp,2022.2.2,145.28126452827547,
9,0,131,5,5,1986,1950,absent_patch/patch0001986.jpg,absent_patch/patch0001950.jpg,masks/mask_002.jpg,0,9,9,8,0,1,1,1,,,,,,,,,,,,,,,,,,,,,,,,,,,,,,,,,,,,,,,,,,,,,,667511,001,2022-11-03_11h39.14.505,Info_measure_main_exp,2022.2.2,145.28126452827547,
9,0,131,5,5,1986,1950,absent_patch/patch0001986.jpg,absent_patch/patch0001950.jpg,masks/mask_005.jpg,0,9,9,8,0,2,2,4,,,,,,,,,,,,,,,,,,,,,,,,,,,,,,,,,,,,,,,,,,,,,,667511,001,2022-11-03_11h39.14.505,Info_measure_main_exp,2022.2.2,145.28126452827547,
9,0,131,5,5,1986,1950,absent_patch/patch0001986.jpg,absent_patch/patch0001950.jpg,masks/mask_001.jpg,0,9,9,8,0,3,3,0,,,,,,,,,,,,,,,,,,,,,,,,,,,,,,,,,,,,,,,,,,,,,,667511,001,2022-11-03_11h39.14.505,Info_measure_main_exp,2022.2.2,145.28126452827547,
9,0,131,5,5,1986,1950,absent_patch/patch0001986.jpg,absent_patch/patch0001950.jpg,masks/mask_004.jpg,0,9,9,8,0,4,4,3,,,,,,,,,,,,,,,,,,,,,,,,,,,,,,,,,,,,,,,,,,,,,,667511,001,2022-11-03_11h39.14.505,Info_measure_main_exp,2022.2.2,145.28126452827547,
9,0,131,5,5,1986,1950,absent_patch/patch0001986.jpg,absent_patch/patch0001950.jpg,masks/mask_001.jpg,0,9,9,8,,,,,0,0,0,0,,,,,,,,,,,,,,,,,,,,,,52.57296429999997,52.78092000000015,,,,,,,,,,,,,,,,,,,667511,001,2022-11-03_11h39.14.505,Info_measure_main_exp,2022.2.2,145.28126452827547,
9,0,131,5,5,1986,1950,absent_patch/patch0001986.jpg,absent_patch/patch0001950.jpg,masks/mask_003.jpg,0,9,9,8,,,,,0,1,1,2,,,,,,,,,,,,,,,,,,,,,,,,,,,,,,,,,,,,,,,,,,667511,001,2022-11-03_11h39.14.505,Info_measure_main_exp,2022.2.2,145.28126452827547,
9,0,131,5,5,1986,1950,absent_patch/patch0001986.jpg,absent_patch/patch0001950.jpg,masks/mask_005.jpg,0,9,9,8,,,,,0,2,2,4,,,,,,,,,,,,,,,,,,,,,,,,,,,,,,,,,,,,,,,,,,667511,001,2022-11-03_11h39.14.505,Info_measure_main_exp,2022.2.2,145.28126452827547,
9,0,131,5,5,1986,1950,absent_patch/patch0001986.jpg,absent_patch/patch0001950.jpg,masks/mask_004.jpg,0,9,9,8,,,,,0,3,3,3,,,,,,,,,,,,,,,,,,,,,,,,,,,,,,,,,,,,,,,,,,667511,001,2022-11-03_11h39.14.505,Info_measure_main_exp,2022.2.2,145.28126452827547,
9,0,131,5,5,1986,1950,absent_patch/patch0001986.jpg,absent_patch/patch0001950.jpg,masks/mask_002.jpg,0,9,9,8,,,,,0,4,4,1,,,,,,,,,,,,,,,,,,,,,,,,,,,,,,,,,,,,,,,,,,667511,001,2022-11-03_11h39.14.505,Info_measure_main_exp,2022.2.2,145.28126452827547,
9,0,131,5,5,1986,1950,absent_patch/patch0001986.jpg,absent_patch/patch0001950.jpg,,0,9,9,8,,,,,,,,,,,,,,,,,,,,,,,,,,,,,,,,0.005923600000642182,53.079963500000304,0.04537037037037037,-0.13240740740740742,1,0,0,response3disk,4,1.2161058000001503,1,1.7999999727180693e-05,-0.003703703703703704,-0.003703703703703704,1,0,0,center_square_2,667511,001,2022-11-03_11h39.14.505,Info_measure_main_exp,2022.2.2,145.28126452827547,
14,1,131,5,5,1974,1,absent_patch/patch0001974.jpg,present_patch/cong_131_5_a.jpg,masks/mask_004.jpg,0,10,10,13,0,0,0,3,,,,,,,,,,,,,,,,,,,,,,,,55.60775139999987,55.81139489999987,,,,,,,,,,,,,,,,,,,,,667511,001,2022-11-03_11h39.14.505,Info_measure_main_exp,2022.2.2,145.28126452827547,
14,1,131,5,5,1974,1,absent_patch/patch0001974.jpg,present_patch/cong_131_5_a.jpg,masks/mask_001.jpg,0,10,10,13,0,1,1,0,,,,,,,,,,,,,,,,,,,,,,,,,,,,,,,,,,,,,,,,,,,,,,667511,001,2022-11-03_11h39.14.505,Info_measure_main_exp,2022.2.2,145.28126452827547,
14,1,131,5,5,1974,1,absent_patch/patch0001974.jpg,present_patch/cong_131_5_a.jpg,masks/mask_002.jpg,0,10,10,13,0,2,2,1,,,,,,,,,,,,,,,,,,,,,,,,,,,,,,,,,,,,,,,,,,,,,,667511,001,2022-11-03_11h39.14.505,Info_measure_main_exp,2022.2.2,145.28126452827547,
14,1,131,5,5,1974,1,absent_patch/patch0001974.jpg,present_patch/cong_131_5_a.jpg,masks/mask_003.jpg,0,10,10,13,0,3,3,2,,,,,,,,,,,,,,,,,,,,,,,,,,,,,,,,,,,,,,,,,,,,,,667511,001,2022-11-03_11h39.14.505,Info_measure_main_exp,2022.2.2,145.28126452827547,
14,1,131,5,5,1974,1,absent_patch/patch0001974.jpg,present_patch/cong_131_5_a.jpg,masks/mask_005.jpg,0,10,10,13,0,4,4,4,,,,,,,,,,,,,,,,,,,,,,,,,,,,,,,,,,,,,,,,,,,,,,667511,001,2022-11-03_11h39.14.505,Info_measure_main_exp,2022.2.2,145.28126452827547,
14,1,131,5,5,1974,1,absent_patch/patch0001974.jpg,present_patch/cong_131_5_a.jpg,masks/mask_004.jpg,0,10,10,13,,,,,0,0,0,3,,,,,,,,,,,,,,,,,,,,,,56.60787410000012,56.812515800000256,,,,,,,,,,,,,,,,,,,667511,001,2022-11-03_11h39.14.505,Info_measure_main_exp,2022.2.2,145.28126452827547,
14,1,131,5,5,1974,1,absent_patch/patch0001974.jpg,present_patch/cong_131_5_a.jpg,masks/mask_001.jpg,0,10,10,13,,,,,0,1,1,0,,,,,,,,,,,,,,,,,,,,,,,,,,,,,,,,,,,,,,,,,,667511,001,2022-11-03_11h39.14.505,Info_measure_main_exp,2022.2.2,145.28126452827547,
14,1,131,5,5,1974,1,absent_patch/patch0001974.jpg,present_patch/cong_131_5_a.jpg,masks/mask_003.jpg,0,10,10,13,,,,,0,2,2,2,,,,,,,,,,,,,,,,,,,,,,,,,,,,,,,,,,,,,,,,,,667511,001,2022-11-03_11h39.14.505,Info_measure_main_exp,2022.2.2,145.28126452827547,
14,1,131,5,5,1974,1,absent_patch/patch0001974.jpg,present_patch/cong_131_5_a.jpg,masks/mask_005.jpg,0,10,10,13,,,,,0,3,3,4,,,,,,,,,,,,,,,,,,,,,,,,,,,,,,,,,,,,,,,,,,667511,001,2022-11-03_11h39.14.505,Info_measure_main_exp,2022.2.2,145.28126452827547,
14,1,131,5,5,1974,1,absent_patch/patch0001974.jpg,present_patch/cong_131_5_a.jpg,masks/mask_002.jpg,0,10,10,13,,,,,0,4,4,1,,,,,,,,,,,,,,,,,,,,,,,,,,,,,,,,,,,,,,,,,,667511,001,2022-11-03_11h39.14.505,Info_measure_main_exp,2022.2.2,145.28126452827547,
14,1,131,5,5,1974,1,absent_patch/patch0001974.jpg,present_patch/cong_131_5_a.jpg,,0,10,10,13,,,,,,,,,,,,,,,,,,,,,,,,,,,,,,,,0.005763200000274082,57.11438159999989,0.1675925925925926,0.06296296296296296,1,0,0,response1disk,6,2.58386019999989,1,1.8900000213761814e-05,-0.001851851851851852,0.000925925925925926,1,0,0,center_square_2,667511,001,2022-11-03_11h39.14.505,Info_measure_main_exp,2022.2.2,145.28126452827547,
12,1,131,5,5,1,2238,present_patch/cong_131_5_a.jpg,absent_patch/patch0002238.jpg,masks/mask_001.jpg,0,11,11,11,0,0,0,0,,,,,,,,,,,,,,,,,,,,,,,,60.82298680000031,61.03150030000006,,,,,,,,,,,,,,,,,,,,,667511,001,2022-11-03_11h39.14.505,Info_measure_main_exp,2022.2.2,145.28126452827547,
12,1,131,5,5,1,2238,present_patch/cong_131_5_a.jpg,absent_patch/patch0002238.jpg,masks/mask_004.jpg,0,11,11,11,0,1,1,3,,,,,,,,,,,,,,,,,,,,,,,,,,,,,,,,,,,,,,,,,,,,,,667511,001,2022-11-03_11h39.14.505,Info_measure_main_exp,2022.2.2,145.28126452827547,
12,1,131,5,5,1,2238,present_patch/cong_131_5_a.jpg,absent_patch/patch0002238.jpg,masks/mask_005.jpg,0,11,11,11,0,2,2,4,,,,,,,,,,,,,,,,,,,,,,,,,,,,,,,,,,,,,,,,,,,,,,667511,001,2022-11-03_11h39.14.505,Info_measure_main_exp,2022.2.2,145.28126452827547,
12,1,131,5,5,1,2238,present_patch/cong_131_5_a.jpg,absent_patch/patch0002238.jpg,masks/mask_003.jpg,0,11,11,11,0,3,3,2,,,,,,,,,,,,,,,,,,,,,,,,,,,,,,,,,,,,,,,,,,,,,,667511,001,2022-11-03_11h39.14.505,Info_measure_main_exp,2022.2.2,145.28126452827547,
12,1,131,5,5,1,2238,present_patch/cong_131_5_a.jpg,absent_patch/patch0002238.jpg,masks/mask_002.jpg,0,11,11,11,0,4,4,1,,,,,,,,,,,,,,,,,,,,,,,,,,,,,,,,,,,,,,,,,,,,,,667511,001,2022-11-03_11h39.14.505,Info_measure_main_exp,2022.2.2,145.28126452827547,
12,1,131,5,5,1,2238,present_patch/cong_131_5_a.jpg,absent_patch/patch0002238.jpg,masks/mask_001.jpg,0,11,11,11,,,,,0,0,0,0,,,,,,,,,,,,,,,,,,,,,,61.822891600000276,62.02776300000005,,,,,,,,,,,,,,,,,,,667511,001,2022-11-03_11h39.14.505,Info_measure_main_exp,2022.2.2,145.28126452827547,
12,1,131,5,5,1,2238,present_patch/cong_131_5_a.jpg,absent_patch/patch0002238.jpg,masks/mask_003.jpg,0,11,11,11,,,,,0,1,1,2,,,,,,,,,,,,,,,,,,,,,,,,,,,,,,,,,,,,,,,,,,667511,001,2022-11-03_11h39.14.505,Info_measure_main_exp,2022.2.2,145.28126452827547,
12,1,131,5,5,1,2238,present_patch/cong_131_5_a.jpg,absent_patch/patch0002238.jpg,masks/mask_005.jpg,0,11,11,11,,,,,0,2,2,4,,,,,,,,,,,,,,,,,,,,,,,,,,,,,,,,,,,,,,,,,,667511,001,2022-11-03_11h39.14.505,Info_measure_main_exp,2022.2.2,145.28126452827547,
12,1,131,5,5,1,2238,present_patch/cong_131_5_a.jpg,absent_patch/patch0002238.jpg,masks/mask_002.jpg,0,11,11,11,,,,,0,3,3,1,,,,,,,,,,,,,,,,,,,,,,,,,,,,,,,,,,,,,,,,,,667511,001,2022-11-03_11h39.14.505,Info_measure_main_exp,2022.2.2,145.28126452827547,
12,1,131,5,5,1,2238,present_patch/cong_131_5_a.jpg,absent_patch/patch0002238.jpg,masks/mask_004.jpg,0,11,11,11,,,,,0,4,4,3,,,,,,,,,,,,,,,,,,,,,,,,,,,,,,,,,,,,,,,,,,667511,001,2022-11-03_11h39.14.505,Info_measure_main_exp,2022.2.2,145.28126452827547,
12,1,131,5,5,1,2238,present_patch/cong_131_5_a.jpg,absent_patch/patch0002238.jpg,,0,11,11,11,,,,,,,,,,,,,,,,,,,,,,,,,,,,,,,,0.005571000000600179,62.32984269999997,0.125,0.05462962962962963,1,0,0,response1disk,6,2.2715550000002622,1,1.7899999875226058e-05,0.000925925925925926,-0.000925925925925926,1,0,0,center_square_2,667511,001,2022-11-03_11h39.14.505,Info_measure_main_exp,2022.2.2,145.28126452827547,
8,0,131,5,5,1974,1986,absent_patch/patch0001974.jpg,absent_patch/patch0001986.jpg,masks/mask_003.jpg,0,12,12,7,0,0,0,2,,,,,,,,,,,,,,,,,,,,,,,,65.64223690000017,65.85110729999997,,,,,,,,,,,,,,,,,,,,,667511,001,2022-11-03_11h39.14.505,Info_measure_main_exp,2022.2.2,145.28126452827547,
8,0,131,5,5,1974,1986,absent_patch/patch0001974.jpg,absent_patch/patch0001986.jpg,masks/mask_005.jpg,0,12,12,7,0,1,1,4,,,,,,,,,,,,,,,,,,,,,,,,,,,,,,,,,,,,,,,,,,,,,,667511,001,2022-11-03_11h39.14.505,Info_measure_main_exp,2022.2.2,145.28126452827547,
8,0,131,5,5,1974,1986,absent_patch/patch0001974.jpg,absent_patch/patch0001986.jpg,masks/mask_004.jpg,0,12,12,7,0,2,2,3,,,,,,,,,,,,,,,,,,,,,,,,,,,,,,,,,,,,,,,,,,,,,,667511,001,2022-11-03_11h39.14.505,Info_measure_main_exp,2022.2.2,145.28126452827547,
8,0,131,5,5,1974,1986,absent_patch/patch0001974.jpg,absent_patch/patch0001986.jpg,masks/mask_002.jpg,0,12,12,7,0,3,3,1,,,,,,,,,,,,,,,,,,,,,,,,,,,,,,,,,,,,,,,,,,,,,,667511,001,2022-11-03_11h39.14.505,Info_measure_main_exp,2022.2.2,145.28126452827547,
8,0,131,5,5,1974,1986,absent_patch/patch0001974.jpg,absent_patch/patch0001986.jpg,masks/mask_001.jpg,0,12,12,7,0,4,4,0,,,,,,,,,,,,,,,,,,,,,,,,,,,,,,,,,,,,,,,,,,,,,,667511,001,2022-11-03_11h39.14.505,Info_measure_main_exp,2022.2.2,145.28126452827547,
8,0,131,5,5,1974,1986,absent_patch/patch0001974.jpg,absent_patch/patch0001986.jpg,masks/mask_003.jpg,0,12,12,7,,,,,0,0,0,2,,,,,,,,,,,,,,,,,,,,,,66.64219129999992,66.8457142000002,,,,,,,,,,,,,,,,,,,667511,001,2022-11-03_11h39.14.505,Info_measure_main_exp,2022.2.2,145.28126452827547,
8,0,131,5,5,1974,1986,absent_patch/patch0001974.jpg,absent_patch/patch0001986.jpg,masks/mask_005.jpg,0,12,12,7,,,,,0,1,1,4,,,,,,,,,,,,,,,,,,,,,,,,,,,,,,,,,,,,,,,,,,667511,001,2022-11-03_11h39.14.505,Info_measure_main_exp,2022.2.2,145.28126452827547,
8,0,131,5,5,1974,1986,absent_patch/patch0001974.jpg,absent_patch/patch0001986.jpg,masks/mask_002.jpg,0,12,12,7,,,,,0,2,2,1,,,,,,,,,,,,,,,,,,,,,,,,,,,,,,,,,,,,,,,,,,667511,001,2022-11-03_11h39.14.505,Info_measure_main_exp,2022.2.2,145.28126452827547,
8,0,131,5,5,1974,1986,absent_patch/patch0001974.jpg,absent_patch/patch0001986.jpg,masks/mask_004.jpg,0,12,12,7,,,,,0,3,3,3,,,,,,,,,,,,,,,,,,,,,,,,,,,,,,,,,,,,,,,,,,667511,001,2022-11-03_11h39.14.505,Info_measure_main_exp,2022.2.2,145.28126452827547,
8,0,131,5,5,1974,1986,absent_patch/patch0001974.jpg,absent_patch/patch0001986.jpg,masks/mask_001.jpg,0,12,12,7,,,,,0,4,4,0,,,,,,,,,,,,,,,,,,,,,,,,,,,,,,,,,,,,,,,,,,667511,001,2022-11-03_11h39.14.505,Info_measure_main_exp,2022.2.2,145.28126452827547,
8,0,131,5,5,1974,1986,absent_patch/patch0001974.jpg,absent_patch/patch0001986.jpg,,0,12,12,7,,,,,,,,,,,,,,,,,,,,,,,,,,,,,,,,0.005794000000150845,67.14920919999986,0.05555555555555555,0.1361111111111111,1,0,0,response1disk,7,0.39665469999999914,1,1.9099999917671084e-05,0.003703703703703704,-0.006481481481481481,1,0,0,center_square_2,667511,001,2022-11-03_11h39.14.505,Info_measure_main_exp,2022.2.2,145.28126452827547,
11,0,131,5,5,2238,2166,absent_patch/patch0002238.jpg,absent_patch/patch0002166.jpg,masks/mask_004.jpg,0,13,13,10,0,0,0,3,,,,,,,,,,,,,,,,,,,,,,,,68.57980350000025,68.78833729999997,,,,,,,,,,,,,,,,,,,,,667511,001,2022-11-03_11h39.14.505,Info_measure_main_exp,2022.2.2,145.28126452827547,
11,0,131,5,5,2238,2166,absent_patch/patch0002238.jpg,absent_patch/patch0002166.jpg,masks/mask_002.jpg,0,13,13,10,0,1,1,1,,,,,,,,,,,,,,,,,,,,,,,,,,,,,,,,,,,,,,,,,,,,,,667511,001,2022-11-03_11h39.14.505,Info_measure_main_exp,2022.2.2,145.28126452827547,
11,0,131,5,5,2238,2166,absent_patch/patch0002238.jpg,absent_patch/patch0002166.jpg,masks/mask_005.jpg,0,13,13,10,0,2,2,4,,,,,,,,,,,,,,,,,,,,,,,,,,,,,,,,,,,,,,,,,,,,,,667511,001,2022-11-03_11h39.14.505,Info_measure_main_exp,2022.2.2,145.28126452827547,
11,0,131,5,5,2238,2166,absent_patch/patch0002238.jpg,absent_patch/patch0002166.jpg,masks/mask_003.jpg,0,13,13,10,0,3,3,2,,,,,,,,,,,,,,,,,,,,,,,,,,,,,,,,,,,,,,,,,,,,,,667511,001,2022-11-03_11h39.14.505,Info_measure_main_exp,2022.2.2,145.28126452827547,
11,0,131,5,5,2238,2166,absent_patch/patch0002238.jpg,absent_patch/patch0002166.jpg,masks/mask_001.jpg,0,13,13,10,0,4,4,0,,,,,,,,,,,,,,,,,,,,,,,,,,,,,,,,,,,,,,,,,,,,,,667511,001,2022-11-03_11h39.14.505,Info_measure_main_exp,2022.2.2,145.28126452827547,
11,0,131,5,5,2238,2166,absent_patch/patch0002238.jpg,absent_patch/patch0002166.jpg,masks/mask_004.jpg,0,13,13,10,,,,,0,0,0,3,,,,,,,,,,,,,,,,,,,,,,69.5797679000002,69.78362199999992,,,,,,,,,,,,,,,,,,,667511,001,2022-11-03_11h39.14.505,Info_measure_main_exp,2022.2.2,145.28126452827547,
11,0,131,5,5,2238,2166,absent_patch/patch0002238.jpg,absent_patch/patch0002166.jpg,masks/mask_005.jpg,0,13,13,10,,,,,0,1,1,4,,,,,,,,,,,,,,,,,,,,,,,,,,,,,,,,,,,,,,,,,,667511,001,2022-11-03_11h39.14.505,Info_measure_main_exp,2022.2.2,145.28126452827547,
11,0,131,5,5,2238,2166,absent_patch/patch0002238.jpg,absent_patch/patch0002166.jpg,masks/mask_002.jpg,0,13,13,10,,,,,0,2,2,1,,,,,,,,,,,,,,,,,,,,,,,,,,,,,,,,,,,,,,,,,,667511,001,2022-11-03_11h39.14.505,Info_measure_main_exp,2022.2.2,145.28126452827547,
11,0,131,5,5,2238,2166,absent_patch/patch0002238.jpg,absent_patch/patch0002166.jpg,masks/mask_001.jpg,0,13,13,10,,,,,0,3,3,0,,,,,,,,,,,,,,,,,,,,,,,,,,,,,,,,,,,,,,,,,,667511,001,2022-11-03_11h39.14.505,Info_measure_main_exp,2022.2.2,145.28126452827547,
11,0,131,5,5,2238,2166,absent_patch/patch0002238.jpg,absent_patch/patch0002166.jpg,masks/mask_003.jpg,0,13,13,10,,,,,0,4,4,2,,,,,,,,,,,,,,,,,,,,,,,,,,,,,,,,,,,,,,,,,,667511,001,2022-11-03_11h39.14.505,Info_measure_main_exp,2022.2.2,145.28126452827547,
11,0,131,5,5,2238,2166,absent_patch/patch0002238.jpg,absent_patch/patch0002166.jpg,,0,13,13,10,,,,,,,,,,,,,,,,,,,,,,,,,,,,,,,,0.005767800000285206,70.08680430000004,-0.14166666666666666,-0.002777777777777778,1,0,0,response5disk,2,1.1607630999997127,1,1.8600000203150557e-05,-0.000925925925925926,-0.001851851851851852,1,0,0,center_square_2,667511,001,2022-11-03_11h39.14.505,Info_measure_main_exp,2022.2.2,145.28126452827547,
2,0,131,5,5,2166,1986,absent_patch/patch0002166.jpg,absent_patch/patch0001986.jpg,masks/mask_005.jpg,0,14,14,1,0,0,0,4,,,,,,,,,,,,,,,,,,,,,,,,72.31594050000012,72.52448950000007,,,,,,,,,,,,,,,,,,,,,667511,001,2022-11-03_11h39.14.505,Info_measure_main_exp,2022.2.2,145.28126452827547,
2,0,131,5,5,2166,1986,absent_patch/patch0002166.jpg,absent_patch/patch0001986.jpg,masks/mask_002.jpg,0,14,14,1,0,1,1,1,,,,,,,,,,,,,,,,,,,,,,,,,,,,,,,,,,,,,,,,,,,,,,667511,001,2022-11-03_11h39.14.505,Info_measure_main_exp,2022.2.2,145.28126452827547,
2,0,131,5,5,2166,1986,absent_patch/patch0002166.jpg,absent_patch/patch0001986.jpg,masks/mask_004.jpg,0,14,14,1,0,2,2,3,,,,,,,,,,,,,,,,,,,,,,,,,,,,,,,,,,,,,,,,,,,,,,667511,001,2022-11-03_11h39.14.505,Info_measure_main_exp,2022.2.2,145.28126452827547,
2,0,131,5,5,2166,1986,absent_patch/patch0002166.jpg,absent_patch/patch0001986.jpg,masks/mask_001.jpg,0,14,14,1,0,3,3,0,,,,,,,,,,,,,,,,,,,,,,,,,,,,,,,,,,,,,,,,,,,,,,667511,001,2022-11-03_11h39.14.505,Info_measure_main_exp,2022.2.2,145.28126452827547,
2,0,131,5,5,2166,1986,absent_patch/patch0002166.jpg,absent_patch/patch0001986.jpg,masks/mask_003.jpg,0,14,14,1,0,4,4,2,,,,,,,,,,,,,,,,,,,,,,,,,,,,,,,,,,,,,,,,,,,,,,667511,001,2022-11-03_11h39.14.505,Info_measure_main_exp,2022.2.2,145.28126452827547,
2,0,131,5,5,2166,1986,absent_patch/patch0002166.jpg,absent_patch/patch0001986.jpg,masks/mask_004.jpg,0,14,14,1,,,,,0,0,0,3,,,,,,,,,,,,,,,,,,,,,,73.3159298999999,73.51989159999994,,,,,,,,,,,,,,,,,,,667511,001,2022-11-03_11h39.14.505,Info_measure_main_exp,2022.2.2,145.28126452827547,
2,0,131,5,5,2166,1986,absent_patch/patch0002166.jpg,absent_patch/patch0001986.jpg,masks/mask_001.jpg,0,14,14,1,,,,,0,1,1,0,,,,,,,,,,,,,,,,,,,,,,,,,,,,,,,,,,,,,,,,,,667511,001,2022-11-03_11h39.14.505,Info_measure_main_exp,2022.2.2,145.28126452827547,
2,0,131,5,5,2166,1986,absent_patch/patch0002166.jpg,absent_patch/patch0001986.jpg,masks/mask_003.jpg,0,14,14,1,,,,,0,2,2,2,,,,,,,,,,,,,,,,,,,,,,,,,,,,,,,,,,,,,,,,,,667511,001,2022-11-03_11h39.14.505,Info_measure_main_exp,2022.2.2,145.28126452827547,
2,0,131,5,5,2166,1986,absent_patch/patch0002166.jpg,absent_patch/patch0001986.jpg,masks/mask_002.jpg,0,14,14,1,,,,,0,3,3,1,,,,,,,,,,,,,,,,,,,,,,,,,,,,,,,,,,,,,,,,,,667511,001,2022-11-03_11h39.14.505,Info_measure_main_exp,2022.2.2,145.28126452827547,
2,0,131,5,5,2166,1986,absent_patch/patch0002166.jpg,absent_patch/patch0001986.jpg,masks/mask_005.jpg,0,14,14,1,,,,,0,4,4,4,,,,,,,,,,,,,,,,,,,,,,,,,,,,,,,,,,,,,,,,,,667511,001,2022-11-03_11h39.14.505,Info_measure_main_exp,2022.2.2,145.28126452827547,
2,0,131,5,5,2166,1986,absent_patch/patch0002166.jpg,absent_patch/patch0001986.jpg,,0,14,14,1,,,,,,,,,,,,,,,,,,,,,,,,,,,,,,,,0.0058227000004080764,73.82296320000023,0.07592592592592592,0.11944444444444445,1,0,0,response1disk,7,1.53552929999978,1,1.7999999727180693e-05,0.002777777777777778,-0.007407407407407408,1,0,0,center_square_2,667511,001,2022-11-03_11h39.14.505,Info_measure_main_exp,2022.2.2,145.28126452827547,
4,0,131,5,5,2238,1950,absent_patch/patch0002238.jpg,absent_patch/patch0001950.jpg,masks/mask_004.jpg,,,,,,,,,,,,,0,0,0,3,0,0,0,3,,,,,,,,,,,,,,76.39235589999998,76.60105380000005,,,,,,,,,,,,,,,,,,,667511,001,2022-11-03_11h39.14.505,Info_measure_main_exp,2022.2.2,145.28126452827547,
4,0,131,5,5,2238,1950,absent_patch/patch0002238.jpg,absent_patch/patch0001950.jpg,masks/mask_005.jpg,,,,,,,,,,,,,0,0,0,3,0,1,1,4,,,,,,,,,,,,,,,,,,,,,,,,,,,,,,,,,,667511,001,2022-11-03_11h39.14.505,Info_measure_main_exp,2022.2.2,145.28126452827547,
4,0,131,5,5,2238,1950,absent_patch/patch0002238.jpg,absent_patch/patch0001950.jpg,masks/mask_002.jpg,,,,,,,,,,,,,0,0,0,3,0,2,2,1,,,,,,,,,,,,,,,,,,,,,,,,,,,,,,,,,,667511,001,2022-11-03_11h39.14.505,Info_measure_main_exp,2022.2.2,145.28126452827547,
4,0,131,5,5,2238,1950,absent_patch/patch0002238.jpg,absent_patch/patch0001950.jpg,masks/mask_003.jpg,,,,,,,,,,,,,0,0,0,3,0,3,3,2,,,,,,,,,,,,,,,,,,,,,,,,,,,,,,,,,,667511,001,2022-11-03_11h39.14.505,Info_measure_main_exp,2022.2.2,145.28126452827547,
4,0,131,5,5,2238,1950,absent_patch/patch0002238.jpg,absent_patch/patch0001950.jpg,masks/mask_001.jpg,,,,,,,,,,,,,0,0,0,3,0,4,4,0,,,,,,,,,,,,,,,,,,,,,,,,,,,,,,,,,,667511,001,2022-11-03_11h39.14.505,Info_measure_main_exp,2022.2.2,145.28126452827547,
4,0,131,5,5,2238,1950,absent_patch/patch0002238.jpg,absent_patch/patch0001950.jpg,masks/mask_002.jpg,,,,,,,,,,,,,0,0,0,3,,,,,0,0,0,1,,,,,,,,77.39236860000028,77.59709320000002,,,,,,,,,,,,,,,,,,,,,667511,001,2022-11-03_11h39.14.505,Info_measure_main_exp,2022.2.2,145.28126452827547,
4,0,131,5,5,2238,1950,absent_patch/patch0002238.jpg,absent_patch/patch0001950.jpg,masks/mask_005.jpg,,,,,,,,,,,,,0,0,0,3,,,,,0,1,1,4,,,,,,,,,,,,,,,,,,,,,,,,,,,,,,667511,001,2022-11-03_11h39.14.505,Info_measure_main_exp,2022.2.2,145.28126452827547,
4,0,131,5,5,2238,1950,absent_patch/patch0002238.jpg,absent_patch/patch0001950.jpg,masks/mask_003.jpg,,,,,,,,,,,,,0,0,0,3,,,,,0,2,2,2,,,,,,,,,,,,,,,,,,,,,,,,,,,,,,667511,001,2022-11-03_11h39.14.505,Info_measure_main_exp,2022.2.2,145.28126452827547,
4,0,131,5,5,2238,1950,absent_patch/patch0002238.jpg,absent_patch/patch0001950.jpg,masks/mask_001.jpg,,,,,,,,,,,,,0,0,0,3,,,,,0,3,3,0,,,,,,,,,,,,,,,,,,,,,,,,,,,,,,667511,001,2022-11-03_11h39.14.505,Info_measure_main_exp,2022.2.2,145.28126452827547,
4,0,131,5,5,2238,1950,absent_patch/patch0002238.jpg,absent_patch/patch0001950.jpg,masks/mask_004.jpg,,,,,,,,,,,,,0,0,0,3,,,,,0,4,4,3,,,,,,,,,,,,,,,,,,,,,,,,,,,,,,667511,001,2022-11-03_11h39.14.505,Info_measure_main_exp,2022.2.2,145.28126452827547,
4,0,131,5,5,2238,1950,absent_patch/patch0002238.jpg,absent_patch/patch0001950.jpg,,,,,,,,,,,,,,0,0,0,3,,,,,,,,,,,,,,,,,,,,0.005772699999852193,77.89908689999993,0.12037037037037036,0.07962962962962963,1,0,0,response1disk,6,0.4740052000001924,1,2.119999999194988e-05,-0.005555555555555556,0.0,1,0,0,center_square_2,667511,001,2022-11-03_11h39.14.505,Info_measure_main_exp,2022.2.2,145.28126452827547,
1,1,131,5,5,1986,1,absent_patch/patch0001986.jpg,present_patch/cong_131_5_a.jpg,masks/mask_001.jpg,,,,,,,,,,,,,0,1,1,0,0,0,0,0,,,,,,,,,,,,,,79.39266420000013,79.6010725000001,,,,,,,,,,,,,,,,,,,667511,001,2022-11-03_11h39.14.505,Info_measure_main_exp,2022.2.2,145.28126452827547,
1,1,131,5,5,1986,1,absent_patch/patch0001986.jpg,present_patch/cong_131_5_a.jpg,masks/mask_002.jpg,,,,,,,,,,,,,0,1,1,0,0,1,1,1,,,,,,,,,,,,,,,,,,,,,,,,,,,,,,,,,,667511,001,2022-11-03_11h39.14.505,Info_measure_main_exp,2022.2.2,145.28126452827547,
1,1,131,5,5,1986,1,absent_patch/patch0001986.jpg,present_patch/cong_131_5_a.jpg,masks/mask_003.jpg,,,,,,,,,,,,,0,1,1,0,0,2,2,2,,,,,,,,,,,,,,,,,,,,,,,,,,,,,,,,,,667511,001,2022-11-03_11h39.14.505,Info_measure_main_exp,2022.2.2,145.28126452827547,
1,1,131,5,5,1986,1,absent_patch/patch0001986.jpg,present_patch/cong_131_5_a.jpg,masks/mask_005.jpg,,,,,,,,,,,,,0,1,1,0,0,3,3,4,,,,,,,,,,,,,,,,,,,,,,,,,,,,,,,,,,667511,001,2022-11-03_11h39.14.505,Info_measure_main_exp,2022.2.2,145.28126452827547,
1,1,131,5,5,1986,1,absent_patch/patch0001986.jpg,present_patch/cong_131_5_a.jpg,masks/mask_004.jpg,,,,,,,,,,,,,0,1,1,0,0,4,4,3,,,,,,,,,,,,,,,,,,,,,,,,,,,,,,,,,,667511,001,2022-11-03_11h39.14.505,Info_measure_main_exp,2022.2.2,145.28126452827547,
1,1,131,5,5,1986,1,absent_patch/patch0001986.jpg,present_patch/cong_131_5_a.jpg,masks/mask_002.jpg,,,,,,,,,,,,,0,1,1,0,,,,,0,0,0,1,,,,,,,,80.39236819999996,80.59654260000025,,,,,,,,,,,,,,,,,,,,,667511,001,2022-11-03_11h39.14.505,Info_measure_main_exp,2022.2.2,145.28126452827547,
1,1,131,5,5,1986,1,absent_patch/patch0001986.jpg,present_patch/cong_131_5_a.jpg,masks/mask_001.jpg,,,,,,,,,,,,,0,1,1,0,,,,,0,1,1,0,,,,,,,,,,,,,,,,,,,,,,,,,,,,,,667511,001,2022-11-03_11h39.14.505,Info_measure_main_exp,2022.2.2,145.28126452827547,
1,1,131,5,5,1986,1,absent_patch/patch0001986.jpg,present_patch/cong_131_5_a.jpg,masks/mask_003.jpg,,,,,,,,,,,,,0,1,1,0,,,,,0,2,2,2,,,,,,,,,,,,,,,,,,,,,,,,,,,,,,667511,001,2022-11-03_11h39.14.505,Info_measure_main_exp,2022.2.2,145.28126452827547,
1,1,131,5,5,1986,1,absent_patch/patch0001986.jpg,present_patch/cong_131_5_a.jpg,masks/mask_004.jpg,,,,,,,,,,,,,0,1,1,0,,,,,0,3,3,3,,,,,,,,,,,,,,,,,,,,,,,,,,,,,,667511,001,2022-11-03_11h39.14.505,Info_measure_main_exp,2022.2.2,145.28126452827547,
1,1,131,5,5,1986,1,absent_patch/patch0001986.jpg,present_patch/cong_131_5_a.jpg,masks/mask_005.jpg,,,,,,,,,,,,,0,1,1,0,,,,,0,4,4,4,,,,,,,,,,,,,,,,,,,,,,,,,,,,,,667511,001,2022-11-03_11h39.14.505,Info_measure_main_exp,2022.2.2,145.28126452827547,
1,1,131,5,5,1986,1,absent_patch/patch0001986.jpg,present_patch/cong_131_5_a.jpg,,,,,,,,,,,,,,0,1,1,0,,,,,,,,,,,,,,,,,,,,0.005702000000383123,80.89935520000017,0.024074074074074074,-0.13240740740740742,1,0,0,response3disk,4,2.9105515999999625,1,1.7800000023271423e-05,-0.013888888888888888,-0.009259259259259259,1,0,0,center_square_2,667511,001,2022-11-03_11h39.14.505,Info_measure_main_exp,2022.2.2,145.28126452827547,
14,1,131,5,5,1974,1,absent_patch/patch0001974.jpg,present_patch/cong_131_5_a.jpg,masks/mask_002.jpg,,,,,,,,,,,,,0,2,2,13,0,0,0,1,,,,,,,,,,,,,,84.81595070000003,85.02444520000017,,,,,,,,,,,,,,,,,,,667511,001,2022-11-03_11h39.14.505,Info_measure_main_exp,2022.2.2,145.28126452827547,
14,1,131,5,5,1974,1,absent_patch/patch0001974.jpg,present_patch/cong_131_5_a.jpg,masks/mask_001.jpg,,,,,,,,,,,,,0,2,2,13,0,1,1,0,,,,,,,,,,,,,,,,,,,,,,,,,,,,,,,,,,667511,001,2022-11-03_11h39.14.505,Info_measure_main_exp,2022.2.2,145.28126452827547,
14,1,131,5,5,1974,1,absent_patch/patch0001974.jpg,present_patch/cong_131_5_a.jpg,masks/mask_004.jpg,,,,,,,,,,,,,0,2,2,13,0,2,2,3,,,,,,,,,,,,,,,,,,,,,,,,,,,,,,,,,,667511,001,2022-11-03_11h39.14.505,Info_measure_main_exp,2022.2.2,145.28126452827547,
14,1,131,5,5,1974,1,absent_patch/patch0001974.jpg,present_patch/cong_131_5_a.jpg,masks/mask_003.jpg,,,,,,,,,,,,,0,2,2,13,0,3,3,2,,,,,,,,,,,,,,,,,,,,,,,,,,,,,,,,,,667511,001,2022-11-03_11h39.14.505,Info_measure_main_exp,2022.2.2,145.28126452827547,
14,1,131,5,5,1974,1,absent_patch/patch0001974.jpg,present_patch/cong_131_5_a.jpg,masks/mask_005.jpg,,,,,,,,,,,,,0,2,2,13,0,4,4,4,,,,,,,,,,,,,,,,,,,,,,,,,,,,,,,,,,667511,001,2022-11-03_11h39.14.505,Info_measure_main_exp,2022.2.2,145.28126452827547,
14,1,131,5,5,1974,1,absent_patch/patch0001974.jpg,present_patch/cong_131_5_a.jpg,masks/mask_003.jpg,,,,,,,,,,,,,0,2,2,13,,,,,0,0,0,2,,,,,,,,85.81592510000019,86.02028210000026,,,,,,,,,,,,,,,,,,,,,667511,001,2022-11-03_11h39.14.505,Info_measure_main_exp,2022.2.2,145.28126452827547,
14,1,131,5,5,1974,1,absent_patch/patch0001974.jpg,present_patch/cong_131_5_a.jpg,masks/mask_004.jpg,,,,,,,,,,,,,0,2,2,13,,,,,0,1,1,3,,,,,,,,,,,,,,,,,,,,,,,,,,,,,,667511,001,2022-11-03_11h39.14.505,Info_measure_main_exp,2022.2.2,145.28126452827547,
14,1,131,5,5,1974,1,absent_patch/patch0001974.jpg,present_patch/cong_131_5_a.jpg,masks/mask_002.jpg,,,,,,,,,,,,,0,2,2,13,,,,,0,2,2,1,,,,,,,,,,,,,,,,,,,,,,,,,,,,,,667511,001,2022-11-03_11h39.14.505,Info_measure_main_exp,2022.2.2,145.28126452827547,
14,1,131,5,5,1974,1,absent_patch/patch0001974.jpg,present_patch/cong_131_5_a.jpg,masks/mask_005.jpg,,,,,,,,,,,,,0,2,2,13,,,,,0,3,3,4,,,,,,,,,,,,,,,,,,,,,,,,,,,,,,667511,001,2022-11-03_11h39.14.505,Info_measure_main_exp,2022.2.2,145.28126452827547,
14,1,131,5,5,1974,1,absent_patch/patch0001974.jpg,present_patch/cong_131_5_a.jpg,masks/mask_001.jpg,,,,,,,,,,,,,0,2,2,13,,,,,0,4,4,0,,,,,,,,,,,,,,,,,,,,,,,,,,,,,,667511,001,2022-11-03_11h39.14.505,Info_measure_main_exp,2022.2.2,145.28126452827547,
14,1,131,5,5,1974,1,absent_patch/patch0001974.jpg,present_patch/cong_131_5_a.jpg,,,,,,,,,,,,,,0,2,2,13,,,,,,,,,,,,,,,,,,,,0.005799600000500504,86.32289949999995,-0.11944444444444445,-0.03611111111111111,1,0,0,response5disk,2,1.0356206999999813,1,1.7500000012660166e-05,0.0,0.004629629629629629,1,0,0,center_square_2,667511,001,2022-11-03_11h39.14.505,Info_measure_main_exp,2022.2.2,145.28126452827547,
13,1,131,5,5,1950,1,absent_patch/patch0001950.jpg,present_patch/cong_131_5_a.jpg,masks/mask_002.jpg,,,,,,,,,,,,,0,3,3,12,0,0,0,1,,,,,,,,,,,,,,88.92689870000004,89.13583410000001,,,,,,,,,,,,,,,,,,,667511,001,2022-11-03_11h39.14.505,Info_measure_main_exp,2022.2.2,145.28126452827547,
13,1,131,5,5,1950,1,absent_patch/patch0001950.jpg,present_patch/cong_131_5_a.jpg,masks/mask_005.jpg,,,,,,,,,,,,,0,3,3,12,0,1,1,4,,,,,,,,,,,,,,,,,,,,,,,,,,,,,,,,,,667511,001,2022-11-03_11h39.14.505,Info_measure_main_exp,2022.2.2,145.28126452827547,
13,1,131,5,5,1950,1,absent_patch/patch0001950.jpg,present_patch/cong_131_5_a.jpg,masks/mask_004.jpg,,,,,,,,,,,,,0,3,3,12,0,2,2,3,,,,,,,,,,,,,,,,,,,,,,,,,,,,,,,,,,667511,001,2022-11-03_11h39.14.505,Info_measure_main_exp,2022.2.2,145.28126452827547,
13,1,131,5,5,1950,1,absent_patch/patch0001950.jpg,present_patch/cong_131_5_a.jpg,masks/mask_003.jpg,,,,,,,,,,,,,0,3,3,12,0,3,3,2,,,,,,,,,,,,,,,,,,,,,,,,,,,,,,,,,,667511,001,2022-11-03_11h39.14.505,Info_measure_main_exp,2022.2.2,145.28126452827547,
13,1,131,5,5,1950,1,absent_patch/patch0001950.jpg,present_patch/cong_131_5_a.jpg,masks/mask_001.jpg,,,,,,,,,,,,,0,3,3,12,0,4,4,0,,,,,,,,,,,,,,,,,,,,,,,,,,,,,,,,,,667511,001,2022-11-03_11h39.14.505,Info_measure_main_exp,2022.2.2,145.28126452827547,
13,1,131,5,5,1950,1,absent_patch/patch0001950.jpg,present_patch/cong_131_5_a.jpg,masks/mask_005.jpg,,,,,,,,,,,,,0,3,3,12,,,,,0,0,0,4,,,,,,,,89.9268849,90.13059109999995,,,,,,,,,,,,,,,,,,,,,667511,001,2022-11-03_11h39.14.505,Info_measure_main_exp,2022.2.2,145.28126452827547,
13,1,131,5,5,1950,1,absent_patch/patch0001950.jpg,present_patch/cong_131_5_a.jpg,masks/mask_004.jpg,,,,,,,,,,,,,0,3,3,12,,,,,0,1,1,3,,,,,,,,,,,,,,,,,,,,,,,,,,,,,,667511,001,2022-11-03_11h39.14.505,Info_measure_main_exp,2022.2.2,145.28126452827547,
13,1,131,5,5,1950,1,absent_patch/patch0001950.jpg,present_patch/cong_131_5_a.jpg,masks/mask_003.jpg,,,,,,,,,,,,,0,3,3,12,,,,,0,2,2,2,,,,,,,,,,,,,,,,,,,,,,,,,,,,,,667511,001,2022-11-03_11h39.14.505,Info_measure_main_exp,2022.2.2,145.28126452827547,
13,1,131,5,5,1950,1,absent_patch/patch0001950.jpg,present_patch/cong_131_5_a.jpg,masks/mask_002.jpg,,,,,,,,,,,,,0,3,3,12,,,,,0,3,3,1,,,,,,,,,,,,,,,,,,,,,,,,,,,,,,667511,001,2022-11-03_11h39.14.505,Info_measure_main_exp,2022.2.2,145.28126452827547,
13,1,131,5,5,1950,1,absent_patch/patch0001950.jpg,present_patch/cong_131_5_a.jpg,masks/mask_001.jpg,,,,,,,,,,,,,0,3,3,12,,,,,0,4,4,0,,,,,,,,,,,,,,,,,,,,,,,,,,,,,,667511,001,2022-11-03_11h39.14.505,Info_measure_main_exp,2022.2.2,145.28126452827547,
13,1,131,5,5,1950,1,absent_patch/patch0001950.jpg,present_patch/cong_131_5_a.jpg,,,,,,,,,,,,,,0,3,3,12,,,,,,,,,,,,,,,,,,,,0.006188000000292959,90.43359150000015,0.06481481481481481,0.13425925925925927,1,0,0,response1disk,7,1.028439299999718,1,1.9099999917671084e-05,-0.001851851851851852,0.005555555555555556,1,0,0,center_square_2,667511,001,2022-11-03_11h39.14.505,Info_measure_main_exp,2022.2.2,145.28126452827547,
12,1,131,5,5,1,2238,present_patch/cong_131_5_a.jpg,absent_patch/patch0002238.jpg,masks/mask_005.jpg,,,,,,,,,,,,,0,4,4,11,0,0,0,4,,,,,,,,,,,,,,92.57986110000002,92.7882783,,,,,,,,,,,,,,,,,,,667511,001,2022-11-03_11h39.14.505,Info_measure_main_exp,2022.2.2,145.28126452827547,
12,1,131,5,5,1,2238,present_patch/cong_131_5_a.jpg,absent_patch/patch0002238.jpg,masks/mask_004.jpg,,,,,,,,,,,,,0,4,4,11,0,1,1,3,,,,,,,,,,,,,,,,,,,,,,,,,,,,,,,,,,667511,001,2022-11-03_11h39.14.505,Info_measure_main_exp,2022.2.2,145.28126452827547,
12,1,131,5,5,1,2238,present_patch/cong_131_5_a.jpg,absent_patch/patch0002238.jpg,masks/mask_002.jpg,,,,,,,,,,,,,0,4,4,11,0,2,2,1,,,,,,,,,,,,,,,,,,,,,,,,,,,,,,,,,,667511,001,2022-11-03_11h39.14.505,Info_measure_main_exp,2022.2.2,145.28126452827547,
12,1,131,5,5,1,2238,present_patch/cong_131_5_a.jpg,absent_patch/patch0002238.jpg,masks/mask_003.jpg,,,,,,,,,,,,,0,4,4,11,0,3,3,2,,,,,,,,,,,,,,,,,,,,,,,,,,,,,,,,,,667511,001,2022-11-03_11h39.14.505,Info_measure_main_exp,2022.2.2,145.28126452827547,
12,1,131,5,5,1,2238,present_patch/cong_131_5_a.jpg,absent_patch/patch0002238.jpg,masks/mask_001.jpg,,,,,,,,,,,,,0,4,4,11,0,4,4,0,,,,,,,,,,,,,,,,,,,,,,,,,,,,,,,,,,667511,001,2022-11-03_11h39.14.505,Info_measure_main_exp,2022.2.2,145.28126452827547,
12,1,131,5,5,1,2238,present_patch/cong_131_5_a.jpg,absent_patch/patch0002238.jpg,masks/mask_002.jpg,,,,,,,,,,,,,0,4,4,11,,,,,0,0,0,1,,,,,,,,93.5797934000002,93.78431200000023,,,,,,,,,,,,,,,,,,,,,667511,001,2022-11-03_11h39.14.505,Info_measure_main_exp,2022.2.2,145.28126452827547,
12,1,131,5,5,1,2238,present_patch/cong_131_5_a.jpg,absent_patch/patch0002238.jpg,masks/mask_003.jpg,,,,,,,,,,,,,0,4,4,11,,,,,0,1,1,2,,,,,,,,,,,,,,,,,,,,,,,,,,,,,,667511,001,2022-11-03_11h39.14.505,Info_measure_main_exp,2022.2.2,145.28126452827547,
12,1,131,5,5,1,2238,present_patch/cong_131_5_a.jpg,absent_patch/patch0002238.jpg,masks/mask_004.jpg,,,,,,,,,,,,,0,4,4,11,,,,,0,2,2,3,,,,,,,,,,,,,,,,,,,,,,,,,,,,,,667511,001,2022-11-03_11h39.14.505,Info_measure_main_exp,2022.2.2,145.28126452827547,
12,1,131,5,5,1,2238,present_patch/cong_131_5_a.jpg,absent_patch/patch0002238.jpg,masks/mask_005.jpg,,,,,,,,,,,,,0,4,4,11,,,,,0,3,3,4,,,,,,,,,,,,,,,,,,,,,,,,,,,,,,667511,001,2022-11-03_11h39.14.505,Info_measure_main_exp,2022.2.2,145.28126452827547,
12,1,131,5,5,1,2238,present_patch/cong_131_5_a.jpg,absent_patch/patch0002238.jpg,masks/mask_001.jpg,,,,,,,,,,,,,0,4,4,11,,,,,0,4,4,0,,,,,,,,,,,,,,,,,,,,,,,,,,,,,,667511,001,2022-11-03_11h39.14.505,Info_measure_main_exp,2022.2.2,145.28126452827547,
12,1,131,5,5,1,2238,present_patch/cong_131_5_a.jpg,absent_patch/patch0002238.jpg,,,,,,,,,,,,,,0,4,4,11,,,,,,,,,,,,,,,,,,,,0.005729100000280596,94.08680340000001,0.1111111111111111,-0.021296296296296296,1,0,0,response3disk,5,3.3132384999998976,1,1.8600000203150557e-05,0.003703703703703704,-0.007407407407407408,1,0,0,center_square_2,667511,001,2022-11-03_11h39.14.505,Info_measure_main_exp,2022.2.2,145.28126452827547,
10,0,131,5,5,1974,2166,absent_patch/patch0001974.jpg,absent_patch/patch0002166.jpg,masks/mask_004.jpg,,,,,,,,,,,,,0,5,5,9,0,0,0,3,,,,,,,,,,,,,,98.4895706000002,98.69363090000024,,,,,,,,,,,,,,,,,,,667511,001,2022-11-03_11h39.14.505,Info_measure_main_exp,2022.2.2,145.28126452827547,
10,0,131,5,5,1974,2166,absent_patch/patch0001974.jpg,absent_patch/patch0002166.jpg,masks/mask_005.jpg,,,,,,,,,,,,,0,5,5,9,0,1,1,4,,,,,,,,,,,,,,,,,,,,,,,,,,,,,,,,,,667511,001,2022-11-03_11h39.14.505,Info_measure_main_exp,2022.2.2,145.28126452827547,
10,0,131,5,5,1974,2166,absent_patch/patch0001974.jpg,absent_patch/patch0002166.jpg,masks/mask_003.jpg,,,,,,,,,,,,,0,5,5,9,0,2,2,2,,,,,,,,,,,,,,,,,,,,,,,,,,,,,,,,,,667511,001,2022-11-03_11h39.14.505,Info_measure_main_exp,2022.2.2,145.28126452827547,
10,0,131,5,5,1974,2166,absent_patch/patch0001974.jpg,absent_patch/patch0002166.jpg,masks/mask_001.jpg,,,,,,,,,,,,,0,5,5,9,0,3,3,0,,,,,,,,,,,,,,,,,,,,,,,,,,,,,,,,,,667511,001,2022-11-03_11h39.14.505,Info_measure_main_exp,2022.2.2,145.28126452827547,
10,0,131,5,5,1974,2166,absent_patch/patch0001974.jpg,absent_patch/patch0002166.jpg,masks/mask_002.jpg,,,,,,,,,,,,,0,5,5,9,0,4,4,1,,,,,,,,,,,,,,,,,,,,,,,,,,,,,,,,,,667511,001,2022-11-03_11h39.14.505,Info_measure_main_exp,2022.2.2,145.28126452827547,
10,0,131,5,5,1974,2166,absent_patch/patch0001974.jpg,absent_patch/patch0002166.jpg,masks/mask_001.jpg,,,,,,,,,,,,,0,5,5,9,,,,,0,0,0,0,,,,,,,,99.4896431000002,99.69451160000017,,,,,,,,,,,,,,,,,,,,,667511,001,2022-11-03_11h39.14.505,Info_measure_main_exp,2022.2.2,145.28126452827547,
10,0,131,5,5,1974,2166,absent_patch/patch0001974.jpg,absent_patch/patch0002166.jpg,masks/mask_003.jpg,,,,,,,,,,,,,0,5,5,9,,,,,0,1,1,2,,,,,,,,,,,,,,,,,,,,,,,,,,,,,,667511,001,2022-11-03_11h39.14.505,Info_measure_main_exp,2022.2.2,145.28126452827547,
10,0,131,5,5,1974,2166,absent_patch/patch0001974.jpg,absent_patch/patch0002166.jpg,masks/mask_005.jpg,,,,,,,,,,,,,0,5,5,9,,,,,0,2,2,4,,,,,,,,,,,,,,,,,,,,,,,,,,,,,,667511,001,2022-11-03_11h39.14.505,Info_measure_main_exp,2022.2.2,145.28126452827547,
10,0,131,5,5,1974,2166,absent_patch/patch0001974.jpg,absent_patch/patch0002166.jpg,masks/mask_002.jpg,,,,,,,,,,,,,0,5,5,9,,,,,0,3,3,1,,,,,,,,,,,,,,,,,,,,,,,,,,,,,,667511,001,2022-11-03_11h39.14.505,Info_measure_main_exp,2022.2.2,145.28126452827547,
10,0,131,5,5,1974,2166,absent_patch/patch0001974.jpg,absent_patch/patch0002166.jpg,masks/mask_004.jpg,,,,,,,,,,,,,0,5,5,9,,,,,0,4,4,3,,,,,,,,,,,,,,,,,,,,,,,,,,,,,,667511,001,2022-11-03_11h39.14.505,Info_measure_main_exp,2022.2.2,145.28126452827547,
10,0,131,5,5,1974,2166,absent_patch/patch0001974.jpg,absent_patch/patch0002166.jpg,,,,,,,,,,,,,,0,5,5,9,,,,,,,,,,,,,,,,,,,,0.0055336000000352215,99.99692099999993,0.13518518518518519,0.08888888888888889,1,0,0,response1disk,6,0.8756032999999661,1,1.740000016070553e-05,0.007407407407407408,-0.005555555555555556,1,0,0,center_square_2,667511,001,2022-11-03_11h39.14.505,Info_measure_main_exp,2022.2.2,145.28126452827547,
2,0,131,5,5,2166,1986,absent_patch/patch0002166.jpg,absent_patch/patch0001986.jpg,masks/mask_004.jpg,,,,,,,,,,,,,0,6,6,1,0,0,0,3,,,,,,,,,,,,,,101.93380909999996,102.1428235000003,,,,,,,,,,,,,,,,,,,667511,001,2022-11-03_11h39.14.505,Info_measure_main_exp,2022.2.2,145.28126452827547,
2,0,131,5,5,2166,1986,absent_patch/patch0002166.jpg,absent_patch/patch0001986.jpg,masks/mask_003.jpg,,,,,,,,,,,,,0,6,6,1,0,1,1,2,,,,,,,,,,,,,,,,,,,,,,,,,,,,,,,,,,667511,001,2022-11-03_11h39.14.505,Info_measure_main_exp,2022.2.2,145.28126452827547,
2,0,131,5,5,2166,1986,absent_patch/patch0002166.jpg,absent_patch/patch0001986.jpg,masks/mask_002.jpg,,,,,,,,,,,,,0,6,6,1,0,2,2,1,,,,,,,,,,,,,,,,,,,,,,,,,,,,,,,,,,667511,001,2022-11-03_11h39.14.505,Info_measure_main_exp,2022.2.2,145.28126452827547,
2,0,131,5,5,2166,1986,absent_patch/patch0002166.jpg,absent_patch/patch0001986.jpg,masks/mask_005.jpg,,,,,,,,,,,,,0,6,6,1,0,3,3,4,,,,,,,,,,,,,,,,,,,,,,,,,,,,,,,,,,667511,001,2022-11-03_11h39.14.505,Info_measure_main_exp,2022.2.2,145.28126452827547,
2,0,131,5,5,2166,1986,absent_patch/patch0002166.jpg,absent_patch/patch0001986.jpg,masks/mask_001.jpg,,,,,,,,,,,,,0,6,6,1,0,4,4,0,,,,,,,,,,,,,,,,,,,,,,,,,,,,,,,,,,667511,001,2022-11-03_11h39.14.505,Info_measure_main_exp,2022.2.2,145.28126452827547,
2,0,131,5,5,2166,1986,absent_patch/patch0002166.jpg,absent_patch/patch0001986.jpg,masks/mask_005.jpg,,,,,,,,,,,,,0,6,6,1,,,,,0,0,0,4,,,,,,,,102.9344059,103.1382120000003,,,,,,,,,,,,,,,,,,,,,667511,001,2022-11-03_11h39.14.505,Info_measure_main_exp,2022.2.2,145.28126452827547,
2,0,131,5,5,2166,1986,absent_patch/patch0002166.jpg,absent_patch/patch0001986.jpg,masks/mask_003.jpg,,,,,,,,,,,,,0,6,6,1,,,,,0,1,1,2,,,,,,,,,,,,,,,,,,,,,,,,,,,,,,667511,001,2022-11-03_11h39.14.505,Info_measure_main_exp,2022.2.2,145.28126452827547,
2,0,131,5,5,2166,1986,absent_patch/patch0002166.jpg,absent_patch/patch0001986.jpg,masks/mask_002.jpg,,,,,,,,,,,,,0,6,6,1,,,,,0,2,2,1,,,,,,,,,,,,,,,,,,,,,,,,,,,,,,667511,001,2022-11-03_11h39.14.505,Info_measure_main_exp,2022.2.2,145.28126452827547,
2,0,131,5,5,2166,1986,absent_patch/patch0002166.jpg,absent_patch/patch0001986.jpg,masks/mask_001.jpg,,,,,,,,,,,,,0,6,6,1,,,,,0,3,3,0,,,,,,,,,,,,,,,,,,,,,,,,,,,,,,667511,001,2022-11-03_11h39.14.505,Info_measure_main_exp,2022.2.2,145.28126452827547,
2,0,131,5,5,2166,1986,absent_patch/patch0002166.jpg,absent_patch/patch0001986.jpg,masks/mask_004.jpg,,,,,,,,,,,,,0,6,6,1,,,,,0,4,4,3,,,,,,,,,,,,,,,,,,,,,,,,,,,,,,667511,001,2022-11-03_11h39.14.505,Info_measure_main_exp,2022.2.2,145.28126452827547,
2,0,131,5,5,2166,1986,absent_patch/patch0002166.jpg,absent_patch/patch0001986.jpg,,,,,,,,,,,,,,0,6,6,1,,,,,,,,,,,,,,,,,,,,0.006332100000236096,103.4406627000003,0.07037037037037037,0.13055555555555556,1,0,0,response1disk,7,1.5421008999996957,1,1.7699999716569437e-05,0.009259259259259259,-0.010185185185185186,1,0,0,center_square_2,667511,001,2022-11-03_11h39.14.505,Info_measure_main_exp,2022.2.2,145.28126452827547,
7,0,131,5,5,1986,2238,absent_patch/patch0001986.jpg,absent_patch/patch0002238.jpg,masks/mask_004.jpg,,,,,,,,,,,,,0,7,7,6,0,0,0,3,,,,,,,,,,,,,,106.19785860000002,106.40638850000005,,,,,,,,,,,,,,,,,,,667511,001,2022-11-03_11h39.14.505,Info_measure_main_exp,2022.2.2,145.28126452827547,
7,0,131,5,5,1986,2238,absent_patch/patch0001986.jpg,absent_patch/patch0002238.jpg,masks/mask_001.jpg,,,,,,,,,,,,,0,7,7,6,0,1,1,0,,,,,,,,,,,,,,,,,,,,,,,,,,,,,,,,,,667511,001,2022-11-03_11h39.14.505,Info_measure_main_exp,2022.2.2,145.28126452827547,
7,0,131,5,5,1986,2238,absent_patch/patch0001986.jpg,absent_patch/patch0002238.jpg,masks/mask_002.jpg,,,,,,,,,,,,,0,7,7,6,0,2,2,1,,,,,,,,,,,,,,,,,,,,,,,,,,,,,,,,,,667511,001,2022-11-03_11h39.14.505,Info_measure_main_exp,2022.2.2,145.28126452827547,
7,0,131,5,5,1986,2238,absent_patch/patch0001986.jpg,absent_patch/patch0002238.jpg,masks/mask_003.jpg,,,,,,,,,,,,,0,7,7,6,0,3,3,2,,,,,,,,,,,,,,,,,,,,,,,,,,,,,,,,,,667511,001,2022-11-03_11h39.14.505,Info_measure_main_exp,2022.2.2,145.28126452827547,
7,0,131,5,5,1986,2238,absent_patch/patch0001986.jpg,absent_patch/patch0002238.jpg,masks/mask_005.jpg,,,,,,,,,,,,,0,7,7,6,0,4,4,4,,,,,,,,,,,,,,,,,,,,,,,,,,,,,,,,,,667511,001,2022-11-03_11h39.14.505,Info_measure_main_exp,2022.2.2,145.28126452827547,
7,0,131,5,5,1986,2238,absent_patch/patch0001986.jpg,absent_patch/patch0002238.jpg,masks/mask_002.jpg,,,,,,,,,,,,,0,7,7,6,,,,,0,0,0,1,,,,,,,,107.1978497,107.40140939999992,,,,,,,,,,,,,,,,,,,,,667511,001,2022-11-03_11h39.14.505,Info_measure_main_exp,2022.2.2,145.28126452827547,
7,0,131,5,5,1986,2238,absent_patch/patch0001986.jpg,absent_patch/patch0002238.jpg,masks/mask_003.jpg,,,,,,,,,,,,,0,7,7,6,,,,,0,1,1,2,,,,,,,,,,,,,,,,,,,,,,,,,,,,,,667511,001,2022-11-03_11h39.14.505,Info_measure_main_exp,2022.2.2,145.28126452827547,
7,0,131,5,5,1986,2238,absent_patch/patch0001986.jpg,absent_patch/patch0002238.jpg,masks/mask_001.jpg,,,,,,,,,,,,,0,7,7,6,,,,,0,2,2,0,,,,,,,,,,,,,,,,,,,,,,,,,,,,,,667511,001,2022-11-03_11h39.14.505,Info_measure_main_exp,2022.2.2,145.28126452827547,
7,0,131,5,5,1986,2238,absent_patch/patch0001986.jpg,absent_patch/patch0002238.jpg,masks/mask_004.jpg,,,,,,,,,,,,,0,7,7,6,,,,,0,3,3,3,,,,,,,,,,,,,,,,,,,,,,,,,,,,,,667511,001,2022-11-03_11h39.14.505,Info_measure_main_exp,2022.2.2,145.28126452827547,
7,0,131,5,5,1986,2238,absent_patch/patch0001986.jpg,absent_patch/patch0002238.jpg,masks/mask_005.jpg,,,,,,,,,,,,,0,7,7,6,,,,,0,4,4,4,,,,,,,,,,,,,,,,,,,,,,,,,,,,,,667511,001,2022-11-03_11h39.14.505,Info_measure_main_exp,2022.2.2,145.28126452827547,
7,0,131,5,5,1986,2238,absent_patch/patch0001986.jpg,absent_patch/patch0002238.jpg,,,,,,,,,,,,,,0,7,7,6,,,,,,,,,,,,,,,,,,,,0.005744100000356411,107.70491560000028,-0.0787037037037037,0.023148148148148147,1,0,0,response7disk,1,1.2439782000001287,1,1.8400000044493936e-05,0.005555555555555556,-0.004629629629629629,1,0,0,center_square_2,667511,001,2022-11-03_11h39.14.505,Info_measure_main_exp,2022.2.2,145.28126452827547,
9,0,131,5,5,1986,1950,absent_patch/patch0001986.jpg,absent_patch/patch0001950.jpg,masks/mask_005.jpg,,,,,,,,,,,,,0,8,8,8,0,0,0,4,,,,,,,,,,,,,,109.90646049999987,110.11490700000013,,,,,,,,,,,,,,,,,,,667511,001,2022-11-03_11h39.14.505,Info_measure_main_exp,2022.2.2,145.28126452827547,
9,0,131,5,5,1986,1950,absent_patch/patch0001986.jpg,absent_patch/patch0001950.jpg,masks/mask_003.jpg,,,,,,,,,,,,,0,8,8,8,0,1,1,2,,,,,,,,,,,,,,,,,,,,,,,,,,,,,,,,,,667511,001,2022-11-03_11h39.14.505,Info_measure_main_exp,2022.2.2,145.28126452827547,
9,0,131,5,5,1986,1950,absent_patch/patch0001986.jpg,absent_patch/patch0001950.jpg,masks/mask_004.jpg,,,,,,,,,,,,,0,8,8,8,0,2,2,3,,,,,,,,,,,,,,,,,,,,,,,,,,,,,,,,,,667511,001,2022-11-03_11h39.14.505,Info_measure_main_exp,2022.2.2,145.28126452827547,
9,0,131,5,5,1986,1950,absent_patch/patch0001986.jpg,absent_patch/patch0001950.jpg,masks/mask_002.jpg,,,,,,,,,,,,,0,8,8,8,0,3,3,1,,,,,,,,,,,,,,,,,,,,,,,,,,,,,,,,,,667511,001,2022-11-03_11h39.14.505,Info_measure_main_exp,2022.2.2,145.28126452827547,
9,0,131,5,5,1986,1950,absent_patch/patch0001986.jpg,absent_patch/patch0001950.jpg,masks/mask_001.jpg,,,,,,,,,,,,,0,8,8,8,0,4,4,0,,,,,,,,,,,,,,,,,,,,,,,,,,,,,,,,,,667511,001,2022-11-03_11h39.14.505,Info_measure_main_exp,2022.2.2,145.28126452827547,
9,0,131,5,5,1986,1950,absent_patch/patch0001986.jpg,absent_patch/patch0001950.jpg,masks/mask_003.jpg,,,,,,,,,,,,,0,8,8,8,,,,,0,0,0,2,,,,,,,,110.90643499999987,111.11492050000015,,,,,,,,,,,,,,,,,,,,,667511,001,2022-11-03_11h39.14.505,Info_measure_main_exp,2022.2.2,145.28126452827547,
9,0,131,5,5,1986,1950,absent_patch/patch0001986.jpg,absent_patch/patch0001950.jpg,masks/mask_002.jpg,,,,,,,,,,,,,0,8,8,8,,,,,0,1,1,1,,,,,,,,,,,,,,,,,,,,,,,,,,,,,,667511,001,2022-11-03_11h39.14.505,Info_measure_main_exp,2022.2.2,145.28126452827547,
9,0,131,5,5,1986,1950,absent_patch/patch0001986.jpg,absent_patch/patch0001950.jpg,masks/mask_001.jpg,,,,,,,,,,,,,0,8,8,8,,,,,0,2,2,0,,,,,,,,,,,,,,,,,,,,,,,,,,,,,,667511,001,2022-11-03_11h39.14.505,Info_measure_main_exp,2022.2.2,145.28126452827547,
9,0,131,5,5,1986,1950,absent_patch/patch0001986.jpg,absent_patch/patch0001950.jpg,masks/mask_005.jpg,,,,,,,,,,,,,0,8,8,8,,,,,0,3,3,4,,,,,,,,,,,,,,,,,,,,,,,,,,,,,,667511,001,2022-11-03_11h39.14.505,Info_measure_main_exp,2022.2.2,145.28126452827547,
9,0,131,5,5,1986,1950,absent_patch/patch0001986.jpg,absent_patch/patch0001950.jpg,masks/mask_004.jpg,,,,,,,,,,,,,0,8,8,8,,,,,0,4,4,3,,,,,,,,,,,,,,,,,,,,,,,,,,,,,,667511,001,2022-11-03_11h39.14.505,Info_measure_main_exp,2022.2.2,145.28126452827547,
9,0,131,5,5,1986,1950,absent_patch/patch0001986.jpg,absent_patch/patch0001950.jpg,,,,,,,,,,,,,,0,8,8,8,,,,,,,,,,,,,,,,,,,,0.005409500000496337,111.41303610000023,0.11944444444444445,0.06018518518518518,1,0,0,response1disk,6,3.3699397000000317,1,2.049999966402538e-05,0.000925925925925926,0.002777777777777778,1,0,0,center_square_2,667511,001,2022-11-03_11h39.14.505,Info_measure_main_exp,2022.2.2,145.28126452827547,
6,0,131,5,5,1974,2238,absent_patch/patch0001974.jpg,absent_patch/patch0002238.jpg,masks/mask_002.jpg,,,,,,,,,,,,,0,9,9,5,0,0,0,1,,,,,,,,,,,,,,115.88540280000007,116.09394520000023,,,,,,,,,,,,,,,,,,,667511,001,2022-11-03_11h39.14.505,Info_measure_main_exp,2022.2.2,145.28126452827547,
6,0,131,5,5,1974,2238,absent_patch/patch0001974.jpg,absent_patch/patch0002238.jpg,masks/mask_003.jpg,,,,,,,,,,,,,0,9,9,5,0,1,1,2,,,,,,,,,,,,,,,,,,,,,,,,,,,,,,,,,,667511,001,2022-11-03_11h39.14.505,Info_measure_main_exp,2022.2.2,145.28126452827547,
6,0,131,5,5,1974,2238,absent_patch/patch0001974.jpg,absent_patch/patch0002238.jpg,masks/mask_001.jpg,,,,,,,,,,,,,0,9,9,5,0,2,2,0,,,,,,,,,,,,,,,,,,,,,,,,,,,,,,,,,,667511,001,2022-11-03_11h39.14.505,Info_measure_main_exp,2022.2.2,145.28126452827547,
6,0,131,5,5,1974,2238,absent_patch/patch0001974.jpg,absent_patch/patch0002238.jpg,masks/mask_005.jpg,,,,,,,,,,,,,0,9,9,5,0,3,3,4,,,,,,,,,,,,,,,,,,,,,,,,,,,,,,,,,,667511,001,2022-11-03_11h39.14.505,Info_measure_main_exp,2022.2.2,145.28126452827547,
6,0,131,5,5,1974,2238,absent_patch/patch0001974.jpg,absent_patch/patch0002238.jpg,masks/mask_004.jpg,,,,,,,,,,,,,0,9,9,5,0,4,4,3,,,,,,,,,,,,,,,,,,,,,,,,,,,,,,,,,,667511,001,2022-11-03_11h39.14.505,Info_measure_main_exp,2022.2.2,145.28126452827547,
6,0,131,5,5,1974,2238,absent_patch/patch0001974.jpg,absent_patch/patch0002238.jpg,masks/mask_004.jpg,,,,,,,,,,,,,0,9,9,5,,,,,0,0,0,3,,,,,,,,116.88543789999994,117.08993050000026,,,,,,,,,,,,,,,,,,,,,667511,001,2022-11-03_11h39.14.505,Info_measure_main_exp,2022.2.2,145.28126452827547,
6,0,131,5,5,1974,2238,absent_patch/patch0001974.jpg,absent_patch/patch0002238.jpg,masks/mask_003.jpg,,,,,,,,,,,,,0,9,9,5,,,,,0,1,1,2,,,,,,,,,,,,,,,,,,,,,,,,,,,,,,667511,001,2022-11-03_11h39.14.505,Info_measure_main_exp,2022.2.2,145.28126452827547,
6,0,131,5,5,1974,2238,absent_patch/patch0001974.jpg,absent_patch/patch0002238.jpg,masks/mask_005.jpg,,,,,,,,,,,,,0,9,9,5,,,,,0,2,2,4,,,,,,,,,,,,,,,,,,,,,,,,,,,,,,667511,001,2022-11-03_11h39.14.505,Info_measure_main_exp,2022.2.2,145.28126452827547,
6,0,131,5,5,1974,2238,absent_patch/patch0001974.jpg,absent_patch/patch0002238.jpg,masks/mask_002.jpg,,,,,,,,,,,,,0,9,9,5,,,,,0,3,3,1,,,,,,,,,,,,,,,,,,,,,,,,,,,,,,667511,001,2022-11-03_11h39.14.505,Info_measure_main_exp,2022.2.2,145.28126452827547,
6,0,131,5,5,1974,2238,absent_patch/patch0001974.jpg,absent_patch/patch0002238.jpg,masks/mask_001.jpg,,,,,,,,,,,,,0,9,9,5,,,,,0,4,4,0,,,,,,,,,,,,,,,,,,,,,,,,,,,,,,667511,001,2022-11-03_11h39.14.505,Info_measure_main_exp,2022.2.2,145.28126452827547,
6,0,131,5,5,1974,2238,absent_patch/patch0001974.jpg,absent_patch/patch0002238.jpg,,,,,,,,,,,,,,0,9,9,5,,,,,,,,,,,,,,,,,,,,0.005754499999966356,117.39241530000027,0.06111111111111111,0.10925925925925926,1,0,0,response1disk,7,0.7091489999997975,1,1.7299999854003545e-05,0.000925925925925926,-0.002777777777777778,1,0,0,center_square_2,667511,001,2022-11-03_11h39.14.505,Info_measure_main_exp,2022.2.2,145.28126452827547,
15,0,131,5,5,1950,2166,absent_patch/patch0001950.jpg,absent_patch/patch0002166.jpg,masks/mask_005.jpg,,,,,,,,,,,,,0,10,10,14,0,0,0,4,,,,,,,,,,,,,,119.72570510000014,119.9343045999999,,,,,,,,,,,,,,,,,,,667511,001,2022-11-03_11h39.14.505,Info_measure_main_exp,2022.2.2,145.28126452827547,
15,0,131,5,5,1950,2166,absent_patch/patch0001950.jpg,absent_patch/patch0002166.jpg,masks/mask_001.jpg,,,,,,,,,,,,,0,10,10,14,0,1,1,0,,,,,,,,,,,,,,,,,,,,,,,,,,,,,,,,,,667511,001,2022-11-03_11h39.14.505,Info_measure_main_exp,2022.2.2,145.28126452827547,
15,0,131,5,5,1950,2166,absent_patch/patch0001950.jpg,absent_patch/patch0002166.jpg,masks/mask_003.jpg,,,,,,,,,,,,,0,10,10,14,0,2,2,2,,,,,,,,,,,,,,,,,,,,,,,,,,,,,,,,,,667511,001,2022-11-03_11h39.14.505,Info_measure_main_exp,2022.2.2,145.28126452827547,
15,0,131,5,5,1950,2166,absent_patch/patch0001950.jpg,absent_patch/patch0002166.jpg,masks/mask_002.jpg,,,,,,,,,,,,,0,10,10,14,0,3,3,1,,,,,,,,,,,,,,,,,,,,,,,,,,,,,,,,,,667511,001,2022-11-03_11h39.14.505,Info_measure_main_exp,2022.2.2,145.28126452827547,
15,0,131,5,5,1950,2166,absent_patch/patch0001950.jpg,absent_patch/patch0002166.jpg,masks/mask_004.jpg,,,,,,,,,,,,,0,10,10,14,0,4,4,3,,,,,,,,,,,,,,,,,,,,,,,,,,,,,,,,,,667511,001,2022-11-03_11h39.14.505,Info_measure_main_exp,2022.2.2,145.28126452827547,
15,0,131,5,5,1950,2166,absent_patch/patch0001950.jpg,absent_patch/patch0002166.jpg,masks/mask_003.jpg,,,,,,,,,,,,,0,10,10,14,,,,,0,0,0,2,,,,,,,,120.72569090000025,120.93060199999991,,,,,,,,,,,,,,,,,,,,,667511,001,2022-11-03_11h39.14.505,Info_measure_main_exp,2022.2.2,145.28126452827547,
15,0,131,5,5,1950,2166,absent_patch/patch0001950.jpg,absent_patch/patch0002166.jpg,masks/mask_001.jpg,,,,,,,,,,,,,0,10,10,14,,,,,0,1,1,0,,,,,,,,,,,,,,,,,,,,,,,,,,,,,,667511,001,2022-11-03_11h39.14.505,Info_measure_main_exp,2022.2.2,145.28126452827547,
15,0,131,5,5,1950,2166,absent_patch/patch0001950.jpg,absent_patch/patch0002166.jpg,masks/mask_002.jpg,,,,,,,,,,,,,0,10,10,14,,,,,0,2,2,1,,,,,,,,,,,,,,,,,,,,,,,,,,,,,,667511,001,2022-11-03_11h39.14.505,Info_measure_main_exp,2022.2.2,145.28126452827547,
15,0,131,5,5,1950,2166,absent_patch/patch0001950.jpg,absent_patch/patch0002166.jpg,masks/mask_005.jpg,,,,,,,,,,,,,0,10,10,14,,,,,0,3,3,4,,,,,,,,,,,,,,,,,,,,,,,,,,,,,,667511,001,2022-11-03_11h39.14.505,Info_measure_main_exp,2022.2.2,145.28126452827547,
15,0,131,5,5,1950,2166,absent_patch/patch0001950.jpg,absent_patch/patch0002166.jpg,masks/mask_004.jpg,,,,,,,,,,,,,0,10,10,14,,,,,0,4,4,3,,,,,,,,,,,,,,,,,,,,,,,,,,,,,,667511,001,2022-11-03_11h39.14.505,Info_measure_main_exp,2022.2.2,145.28126452827547,
15,0,131,5,5,1950,2166,absent_patch/patch0001950.jpg,absent_patch/patch0002166.jpg,,,,,,,,,,,,,,0,10,10,14,,,,,,,,,,,,,,,,,,,,0.005659100000229955,121.2319937000002,0.10833333333333334,-0.05,1,0,0,response3disk,5,0.7718345000002955,1,1.7800000023271423e-05,-0.007407407407407408,0.0,1,0,0,center_square_2,667511,001,2022-11-03_11h39.14.505,Info_measure_main_exp,2022.2.2,145.28126452827547,
11,0,131,5,5,2238,2166,absent_patch/patch0002238.jpg,absent_patch/patch0002166.jpg,masks/mask_005.jpg,,,,,,,,,,,,,0,11,11,10,0,0,0,4,,,,,,,,,,,,,,122.97599790000004,123.1844114999999,,,,,,,,,,,,,,,,,,,667511,001,2022-11-03_11h39.14.505,Info_measure_main_exp,2022.2.2,145.28126452827547,
11,0,131,5,5,2238,2166,absent_patch/patch0002238.jpg,absent_patch/patch0002166.jpg,masks/mask_004.jpg,,,,,,,,,,,,,0,11,11,10,0,1,1,3,,,,,,,,,,,,,,,,,,,,,,,,,,,,,,,,,,667511,001,2022-11-03_11h39.14.505,Info_measure_main_exp,2022.2.2,145.28126452827547,
11,0,131,5,5,2238,2166,absent_patch/patch0002238.jpg,absent_patch/patch0002166.jpg,masks/mask_003.jpg,,,,,,,,,,,,,0,11,11,10,0,2,2,2,,,,,,,,,,,,,,,,,,,,,,,,,,,,,,,,,,667511,001,2022-11-03_11h39.14.505,Info_measure_main_exp,2022.2.2,145.28126452827547,
11,0,131,5,5,2238,2166,absent_patch/patch0002238.jpg,absent_patch/patch0002166.jpg,masks/mask_002.jpg,,,,,,,,,,,,,0,11,11,10,0,3,3,1,,,,,,,,,,,,,,,,,,,,,,,,,,,,,,,,,,667511,001,2022-11-03_11h39.14.505,Info_measure_main_exp,2022.2.2,145.28126452827547,
11,0,131,5,5,2238,2166,absent_patch/patch0002238.jpg,absent_patch/patch0002166.jpg,masks/mask_001.jpg,,,,,,,,,,,,,0,11,11,10,0,4,4,0,,,,,,,,,,,,,,,,,,,,,,,,,,,,,,,,,,667511,001,2022-11-03_11h39.14.505,Info_measure_main_exp,2022.2.2,145.28126452827547,
11,0,131,5,5,2238,2166,absent_patch/patch0002238.jpg,absent_patch/patch0002166.jpg,masks/mask_004.jpg,,,,,,,,,,,,,0,11,11,10,,,,,0,0,0,3,,,,,,,,123.97580939999989,124.1807518999999,,,,,,,,,,,,,,,,,,,,,667511,001,2022-11-03_11h39.14.505,Info_measure_main_exp,2022.2.2,145.28126452827547,
11,0,131,5,5,2238,2166,absent_patch/patch0002238.jpg,absent_patch/patch0002166.jpg,masks/mask_005.jpg,,,,,,,,,,,,,0,11,11,10,,,,,0,1,1,4,,,,,,,,,,,,,,,,,,,,,,,,,,,,,,667511,001,2022-11-03_11h39.14.505,Info_measure_main_exp,2022.2.2,145.28126452827547,
11,0,131,5,5,2238,2166,absent_patch/patch0002238.jpg,absent_patch/patch0002166.jpg,masks/mask_003.jpg,,,,,,,,,,,,,0,11,11,10,,,,,0,2,2,2,,,,,,,,,,,,,,,,,,,,,,,,,,,,,,667511,001,2022-11-03_11h39.14.505,Info_measure_main_exp,2022.2.2,145.28126452827547,
11,0,131,5,5,2238,2166,absent_patch/patch0002238.jpg,absent_patch/patch0002166.jpg,masks/mask_001.jpg,,,,,,,,,,,,,0,11,11,10,,,,,0,3,3,0,,,,,,,,,,,,,,,,,,,,,,,,,,,,,,667511,001,2022-11-03_11h39.14.505,Info_measure_main_exp,2022.2.2,145.28126452827547,
11,0,131,5,5,2238,2166,absent_patch/patch0002238.jpg,absent_patch/patch0002166.jpg,masks/mask_002.jpg,,,,,,,,,,,,,0,11,11,10,,,,,0,4,4,1,,,,,,,,,,,,,,,,,,,,,,,,,,,,,,667511,001,2022-11-03_11h39.14.505,Info_measure_main_exp,2022.2.2,145.28126452827547,
11,0,131,5,5,2238,2166,absent_patch/patch0002238.jpg,absent_patch/patch0002166.jpg,,,,,,,,,,,,,,0,11,11,10,,,,,,,,,,,,,,,,,,,,0.005542300000342948,124.48255900000004,0.04537037037037037,-0.06851851851851852,1,0,0,response3disk,4,0.8616762999999992,1,1.810000003388268e-05,0.001851851851851852,0.005555555555555556,1,0,0,center_square_2,667511,001,2022-11-03_11h39.14.505,Info_measure_main_exp,2022.2.2,145.28126452827547,
5,1,131,5,5,1,2166,present_patch/cong_131_5_a.jpg,absent_patch/patch0002166.jpg,masks/mask_003.jpg,,,,,,,,,,,,,0,12,12,4,0,0,0,2,,,,,,,,,,,,,,126.2951449000002,126.50385580000011,,,,,,,,,,,,,,,,,,,667511,001,2022-11-03_11h39.14.505,Info_measure_main_exp,2022.2.2,145.28126452827547,
5,1,131,5,5,1,2166,present_patch/cong_131_5_a.jpg,absent_patch/patch0002166.jpg,masks/mask_004.jpg,,,,,,,,,,,,,0,12,12,4,0,1,1,3,,,,,,,,,,,,,,,,,,,,,,,,,,,,,,,,,,667511,001,2022-11-03_11h39.14.505,Info_measure_main_exp,2022.2.2,145.28126452827547,
5,1,131,5,5,1,2166,present_patch/cong_131_5_a.jpg,absent_patch/patch0002166.jpg,masks/mask_002.jpg,,,,,,,,,,,,,0,12,12,4,0,2,2,1,,,,,,,,,,,,,,,,,,,,,,,,,,,,,,,,,,667511,001,2022-11-03_11h39.14.505,Info_measure_main_exp,2022.2.2,145.28126452827547,
5,1,131,5,5,1,2166,present_patch/cong_131_5_a.jpg,absent_patch/patch0002166.jpg,masks/mask_001.jpg,,,,,,,,,,,,,0,12,12,4,0,3,3,0,,,,,,,,,,,,,,,,,,,,,,,,,,,,,,,,,,667511,001,2022-11-03_11h39.14.505,Info_measure_main_exp,2022.2.2,145.28126452827547,
5,1,131,5,5,1,2166,present_patch/cong_131_5_a.jpg,absent_patch/patch0002166.jpg,masks/mask_005.jpg,,,,,,,,,,,,,0,12,12,4,0,4,4,4,,,,,,,,,,,,,,,,,,,,,,,,,,,,,,,,,,667511,001,2022-11-03_11h39.14.505,Info_measure_main_exp,2022.2.2,145.28126452827547,
5,1,131,5,5,1,2166,present_patch/cong_131_5_a.jpg,absent_patch/patch0002166.jpg,masks/mask_005.jpg,,,,,,,,,,,,,0,12,12,4,,,,,0,0,0,4,,,,,,,,127.29513799999995,127.4993370000002,,,,,,,,,,,,,,,,,,,,,667511,001,2022-11-03_11h39.14.505,Info_measure_main_exp,2022.2.2,145.28126452827547,
5,1,131,5,5,1,2166,present_patch/cong_131_5_a.jpg,absent_patch/patch0002166.jpg,masks/mask_004.jpg,,,,,,,,,,,,,0,12,12,4,,,,,0,1,1,3,,,,,,,,,,,,,,,,,,,,,,,,,,,,,,667511,001,2022-11-03_11h39.14.505,Info_measure_main_exp,2022.2.2,145.28126452827547,
5,1,131,5,5,1,2166,present_patch/cong_131_5_a.jpg,absent_patch/patch0002166.jpg,masks/mask_002.jpg,,,,,,,,,,,,,0,12,12,4,,,,,0,2,2,1,,,,,,,,,,,,,,,,,,,,,,,,,,,,,,667511,001,2022-11-03_11h39.14.505,Info_measure_main_exp,2022.2.2,145.28126452827547,
5,1,131,5,5,1,2166,present_patch/cong_131_5_a.jpg,absent_patch/patch0002166.jpg,masks/mask_003.jpg,,,,,,,,,,,,,0,12,12,4,,,,,0,3,3,2,,,,,,,,,,,,,,,,,,,,,,,,,,,,,,667511,001,2022-11-03_11h39.14.505,Info_measure_main_exp,2022.2.2,145.28126452827547,
5,1,131,5,5,1,2166,present_patch/cong_131_5_a.jpg,absent_patch/patch0002166.jpg,masks/mask_001.jpg,,,,,,,,,,,,,0,12,12,4,,,,,0,4,4,0,,,,,,,,,,,,,,,,,,,,,,,,,,,,,,667511,001,2022-11-03_11h39.14.505,Info_measure_main_exp,2022.2.2,145.28126452827547,
5,1,131,5,5,1,2166,present_patch/cong_131_5_a.jpg,absent_patch/patch0002166.jpg,,,,,,,,,,,,,,0,12,12,4,,,,,,,,,,,,,,,,,,,,0.005715300000247225,127.80221400000028,0.15092592592592594,0.03611111111111111,1,0,0,response1disk,6,1.7091027000001304,1,1.7299999854003545e-05,0.013888888888888888,-0.001851851851851852,1,0,0,center_square_2,667511,001,2022-11-03_11h39.14.505,Info_measure_main_exp,2022.2.2,145.28126452827547,
3,0,131,5,5,1950,1974,absent_patch/patch0001950.jpg,absent_patch/patch0001974.jpg,masks/mask_003.jpg,,,,,,,,,,,,,0,13,13,2,0,0,0,2,,,,,,,,,,,,,,130.66992269999992,130.87881960000004,,,,,,,,,,,,,,,,,,,667511,001,2022-11-03_11h39.14.505,Info_measure_main_exp,2022.2.2,145.28126452827547,
3,0,131,5,5,1950,1974,absent_patch/patch0001950.jpg,absent_patch/patch0001974.jpg,masks/mask_004.jpg,,,,,,,,,,,,,0,13,13,2,0,1,1,3,,,,,,,,,,,,,,,,,,,,,,,,,,,,,,,,,,667511,001,2022-11-03_11h39.14.505,Info_measure_main_exp,2022.2.2,145.28126452827547,
3,0,131,5,5,1950,1974,absent_patch/patch0001950.jpg,absent_patch/patch0001974.jpg,masks/mask_002.jpg,,,,,,,,,,,,,0,13,13,2,0,2,2,1,,,,,,,,,,,,,,,,,,,,,,,,,,,,,,,,,,667511,001,2022-11-03_11h39.14.505,Info_measure_main_exp,2022.2.2,145.28126452827547,
3,0,131,5,5,1950,1974,absent_patch/patch0001950.jpg,absent_patch/patch0001974.jpg,masks/mask_005.jpg,,,,,,,,,,,,,0,13,13,2,0,3,3,4,,,,,,,,,,,,,,,,,,,,,,,,,,,,,,,,,,667511,001,2022-11-03_11h39.14.505,Info_measure_main_exp,2022.2.2,145.28126452827547,
3,0,131,5,5,1950,1974,absent_patch/patch0001950.jpg,absent_patch/patch0001974.jpg,masks/mask_001.jpg,,,,,,,,,,,,,0,13,13,2,0,4,4,0,,,,,,,,,,,,,,,,,,,,,,,,,,,,,,,,,,667511,001,2022-11-03_11h39.14.505,Info_measure_main_exp,2022.2.2,145.28126452827547,
3,0,131,5,5,1950,1974,absent_patch/patch0001950.jpg,absent_patch/patch0001974.jpg,masks/mask_004.jpg,,,,,,,,,,,,,0,13,13,2,,,,,0,0,0,3,,,,,,,,131.66985380000006,131.87818730000026,,,,,,,,,,,,,,,,,,,,,667511,001,2022-11-03_11h39.14.505,Info_measure_main_exp,2022.2.2,145.28126452827547,
3,0,131,5,5,1950,1974,absent_patch/patch0001950.jpg,absent_patch/patch0001974.jpg,masks/mask_003.jpg,,,,,,,,,,,,,0,13,13,2,,,,,0,1,1,2,,,,,,,,,,,,,,,,,,,,,,,,,,,,,,667511,001,2022-11-03_11h39.14.505,Info_measure_main_exp,2022.2.2,145.28126452827547,
3,0,131,5,5,1950,1974,absent_patch/patch0001950.jpg,absent_patch/patch0001974.jpg,masks/mask_001.jpg,,,,,,,,,,,,,0,13,13,2,,,,,0,2,2,0,,,,,,,,,,,,,,,,,,,,,,,,,,,,,,667511,001,2022-11-03_11h39.14.505,Info_measure_main_exp,2022.2.2,145.28126452827547,
3,0,131,5,5,1950,1974,absent_patch/patch0001950.jpg,absent_patch/patch0001974.jpg,masks/mask_005.jpg,,,,,,,,,,,,,0,13,13,2,,,,,0,3,3,4,,,,,,,,,,,,,,,,,,,,,,,,,,,,,,667511,001,2022-11-03_11h39.14.505,Info_measure_main_exp,2022.2.2,145.28126452827547,
3,0,131,5,5,1950,1974,absent_patch/patch0001950.jpg,absent_patch/patch0001974.jpg,masks/mask_002.jpg,,,,,,,,,,,,,0,13,13,2,,,,,0,4,4,1,,,,,,,,,,,,,,,,,,,,,,,,,,,,,,667511,001,2022-11-03_11h39.14.505,Info_measure_main_exp,2022.2.2,145.28126452827547,
3,0,131,5,5,1950,1974,absent_patch/patch0001950.jpg,absent_patch/patch0001974.jpg,,,,,,,,,,,,,,0,13,13,2,,,,,,,,,,,,,,,,,,,,0.00585640000008425,132.17713890000005,-0.08981481481481482,0.037037037037037035,1,0,0,response7disk,1,0.8409512999996878,1,1.8199999885837315e-05,0.006481481481481481,0.002777777777777778,1,0,0,center_square_2,667511,001,2022-11-03_11h39.14.505,Info_measure_main_exp,2022.2.2,145.28126452827547,
8,0,131,5,5,1974,1986,absent_patch/patch0001974.jpg,absent_patch/patch0001986.jpg,masks/mask_002.jpg,,,,,,,,,,,,,0,14,14,7,0,0,0,1,,,,,,,,,,,,,,134.03129080000008,134.2397436000001,,,,,,,,,,,,,,,,,,,667511,001,2022-11-03_11h39.14.505,Info_measure_main_exp,2022.2.2,145.28126452827547,
8,0,131,5,5,1974,1986,absent_patch/patch0001974.jpg,absent_patch/patch0001986.jpg,masks/mask_004.jpg,,,,,,,,,,,,,0,14,14,7,0,1,1,3,,,,,,,,,,,,,,,,,,,,,,,,,,,,,,,,,,667511,001,2022-11-03_11h39.14.505,Info_measure_main_exp,2022.2.2,145.28126452827547,
8,0,131,5,5,1974,1986,absent_patch/patch0001974.jpg,absent_patch/patch0001986.jpg,masks/mask_001.jpg,,,,,,,,,,,,,0,14,14,7,0,2,2,0,,,,,,,,,,,,,,,,,,,,,,,,,,,,,,,,,,667511,001,2022-11-03_11h39.14.505,Info_measure_main_exp,2022.2.2,145.28126452827547,
8,0,131,5,5,1974,1986,absent_patch/patch0001974.jpg,absent_patch/patch0001986.jpg,masks/mask_005.jpg,,,,,,,,,,,,,0,14,14,7,0,3,3,4,,,,,,,,,,,,,,,,,,,,,,,,,,,,,,,,,,667511,001,2022-11-03_11h39.14.505,Info_measure_main_exp,2022.2.2,145.28126452827547,
8,0,131,5,5,1974,1986,absent_patch/patch0001974.jpg,absent_patch/patch0001986.jpg,masks/mask_003.jpg,,,,,,,,,,,,,0,14,14,7,0,4,4,2,,,,,,,,,,,,,,,,,,,,,,,,,,,,,,,,,,667511,001,2022-11-03_11h39.14.505,Info_measure_main_exp,2022.2.2,145.28126452827547,
8,0,131,5,5,1974,1986,absent_patch/patch0001974.jpg,absent_patch/patch0001986.jpg,masks/mask_001.jpg,,,,,,,,,,,,,0,14,14,7,,,,,0,0,0,0,,,,,,,,135.03123860000005,135.23576330000014,,,,,,,,,,,,,,,,,,,,,667511,001,2022-11-03_11h39.14.505,Info_measure_main_exp,2022.2.2,145.28126452827547,
8,0,131,5,5,1974,1986,absent_patch/patch0001974.jpg,absent_patch/patch0001986.jpg,masks/mask_005.jpg,,,,,,,,,,,,,0,14,14,7,,,,,0,1,1,4,,,,,,,,,,,,,,,,,,,,,,,,,,,,,,667511,001,2022-11-03_11h39.14.505,Info_measure_main_exp,2022.2.2,145.28126452827547,
8,0,131,5,5,1974,1986,absent_patch/patch0001974.jpg,absent_patch/patch0001986.jpg,masks/mask_003.jpg,,,,,,,,,,,,,0,14,14,7,,,,,0,2,2,2,,,,,,,,,,,,,,,,,,,,,,,,,,,,,,667511,001,2022-11-03_11h39.14.505,Info_measure_main_exp,2022.2.2,145.28126452827547,
8,0,131,5,5,1974,1986,absent_patch/patch0001974.jpg,absent_patch/patch0001986.jpg,masks/mask_004.jpg,,,,,,,,,,,,,0,14,14,7,,,,,0,3,3,3,,,,,,,,,,,,,,,,,,,,,,,,,,,,,,667511,001,2022-11-03_11h39.14.505,Info_measure_main_exp,2022.2.2,145.28126452827547,
8,0,131,5,5,1974,1986,absent_patch/patch0001974.jpg,absent_patch/patch0001986.jpg,masks/mask_002.jpg,,,,,,,,,,,,,0,14,14,7,,,,,0,4,4,1,,,,,,,,,,,,,,,,,,,,,,,,,,,,,,667511,001,2022-11-03_11h39.14.505,Info_measure_main_exp,2022.2.2,145.28126452827547,
8,0,131,5,5,1974,1986,absent_patch/patch0001974.jpg,absent_patch/patch0001986.jpg,,,,,,,,,,,,,,0,14,14,7,,,,,,,,,,,,,,,,,,,,0.005790799999886076,135.53821610000023,0.06574074074074074,0.10740740740740741,1,0,0,response1disk,7,1.2646091000001434,1,1.7500000012660166e-05,0.009259259259259259,-0.009259259259259259,1,0,0,center_square_2,667511,001,2022-11-03_11h39.14.505,Info_measure_main_exp,2022.2.2,145.28126452827547,
