participant,session,date,expName,psychopyVersion,OS,frameRate,space_press_continue.keys,space_press_continue.rt,space_press_continue_2.keys,space_press_continue_2.rt,space_press_continue_3.keys,space_press_continue_3.rt,space_press_continue_4.keys,space_press_continue_4.rt,space_press_continue_5.keys,space_press_continue_5.rt,space_press_continue_6.keys,space_press_continue_6.rt,prac_mask_loop_1.thisRepN,prac_mask_loop_1.thisTrialN,prac_mask_loop_1.thisN,prac_mask_loop_1.thisIndex,prac_mask_loop_1.ran,mask_name,prac_mask_loop_2.thisRepN,prac_mask_loop_2.thisTrialN,prac_mask_loop_2.thisN,prac_mask_loop_2.thisIndex,prac_mask_loop_2.ran,mouse_2.x,mouse_2.y,mouse_2.leftButton,mouse_2.midButton,mouse_2.rightButton,mouse_2.clicked_name,similarity,response_time,Pass,mouse_12.x,mouse_12.y,mouse_12.leftButton,mouse_12.midButton,mouse_12.rightButton,mouse_12.clicked_name,prac_loop.thisRepN,prac_loop.thisTrialN,prac_loop.thisN,prac_loop.thisIndex,prac_loop.ran,Pair_type,Image_num,Patch_1_loc,Patch_2_loc,Patch_1_info,Patch_2_info,Patch_1_name,Patch_2_name,mouse_1.x,mouse_1.y,mouse_1.leftButton,mouse_1.midButton,mouse_1.rightButton,mouse_1.time,mouse_1.clicked_name,space_press_continue_7.keys,space_press_continue_7.rt,mask_loop.thisRepN,mask_loop.thisTrialN,mask_loop.thisN,mask_loop.thisIndex,mask_loop.ran,mask_loop_2.thisRepN,mask_loop_2.thisTrialN,mask_loop_2.thisN,mask_loop_2.thisIndex,mask_loop_2.ran,mouse.x,mouse.y,mouse.leftButton,mouse.midButton,mouse.rightButton,mouse.clicked_name,trialNumber,mouse_11.x,mouse_11.y,mouse_11.leftButton,mouse_11.midButton,mouse_11.rightButton,mouse_11.clicked_name,first_pass_loop.thisRepN,first_pass_loop.thisTrialN,first_pass_loop.thisN,first_pass_loop.thisIndex,first_pass_loop.ran,mask_loop_3.thisRepN,mask_loop_3.thisTrialN,mask_loop_3.thisN,mask_loop_3.thisIndex,mask_loop_3.ran,mask_loop_4.thisRepN,mask_loop_4.thisTrialN,mask_loop_4.thisN,mask_loop_4.thisIndex,mask_loop_4.ran,mouse_3.x,mouse_3.y,mouse_3.leftButton,mouse_3.midButton,mouse_3.rightButton,mouse_3.clicked_name,double_pass_loop.thisRepN,double_pass_loop.thisTrialN,double_pass_loop.thisN,double_pass_loop.thisIndex,double_pass_loop.ran,space_exit.keys,space_exit.rt
669374,001,2022-11-21_24h01.35.016,Info_measure_main_exp,2022.2.2,Win32,59.96282305,,,,,,,,,,,,,,,,,,,,,,,,,,,,,,,,,,,,,,,,,,,,,,,,,,,,,,,,,,,,,,,,,,,,,,,,,,,,,,,,,,,,,,,,,,,,,,,,,,,,,,,,,,,,,,,
669374,001,2022-11-21_24h01.35.016,Info_measure_main_exp,2022.2.2,Win32,59.96282305,,,,,,,,,,,,,,,,,,,,,,,,,,,,,,,,,,,,,,,,,,,,,,,,,,,,,,,,,,,,,,,,,,,,,,,,,,,,,,,,,,,,,,,,,,,,,,,,,,,,,,,,,,,,,,,
669374,001,2022-11-21_24h01.35.016,Info_measure_main_exp,2022.2.2,Win32,59.96282305,space,2.9123,,,,,,,,,,,,,,,,,,,,,,,,,,,,,,,,,,,,,,,,,,,,,,,,,,,,,,,,,,,,,,,,,,,,,,,,,,,,,,,,,,,,,,,,,,,,,,,,,,,,,,,,,,,,,
669374,001,2022-11-21_24h01.35.016,Info_measure_main_exp,2022.2.2,Win32,59.96282305,,,space,6.1401,,,,,,,,,,,,,,,,,,,,,,,,,,,,,,,,,,,,,,,,,,,,,,,,,,,,,,,,,,,,,,,,,,,,,,,,,,,,,,,,,,,,,,,,,,,,,,,,,,,,,,,,,,,
669374,001,2022-11-21_24h01.35.016,Info_measure_main_exp,2022.2.2,Win32,59.96282305,,,,,space,4.2821,,,,,,,,,,,,,,,,,,,,,,,,,,,,,,,,,,,,,,,,,,,,,,,,,,,,,,,,,,,,,,,,,,,,,,,,,,,,,,,,,,,,,,,,,,,,,,,,,,,,,,,,,
669374,001,2022-11-21_24h01.35.016,Info_measure_main_exp,2022.2.2,Win32,59.96282305,,,,,,,space,10.9612,,,,,,,,,,,,,,,,,,,,,,,,,,,,,,,,,,,,,,,,,,,,,,,,,,,,,,,,,,,,,,,,,,,,,,,,,,,,,,,,,,,,,,,,,,,,,,,,,,,,,,,
669374,001,2022-11-21_24h01.35.016,Info_measure_main_exp,2022.2.2,Win32,59.96282305,,,,,,,,,space,4.5455,,,,,,,,,,,,,,,,,,,,,,,,,,,,,,,,,,,,,,,,,,,,,,,,,,,,,,,,,,,,,,,,,,,,,,,,,,,,,,,,,,,,,,,,,,,,,,,,,,,,,
669374,001,2022-11-21_24h01.35.016,Info_measure_main_exp,2022.2.2,Win32,59.96282305,,,,,,,,,,,space,3.1785,,,,,,,,,,,,,,,,,,,,,,,,,,,,,,,,,,,,,,,,,,,,,,,,,,,,,,,,,,,,,,,,,,,,,,,,,,,,,,,,,,,,,,,,,,,,,,,,,,,
669374,001,2022-11-21_24h01.35.016,Info_measure_main_exp,2022.2.2,Win32,59.96282305,,,,,,,,,,,,,0,0,0,3,1,masks/mask_004.jpg,,,,,,,,,,,,,,,,,,,,,,,,,,,,,,,,,,,,,,,,,,,,,,,,,,,,,,,,,,,,,,,,,,,,,,,,,,,,,,,,,,,,,,,,,,,,,
669374,001,2022-11-21_24h01.35.016,Info_measure_main_exp,2022.2.2,Win32,59.96282305,,,,,,,,,,,,,0,1,1,4,1,masks/mask_005.jpg,,,,,,,,,,,,,,,,,,,,,,,,,,,,,,,,,,,,,,,,,,,,,,,,,,,,,,,,,,,,,,,,,,,,,,,,,,,,,,,,,,,,,,,,,,,,,
669374,001,2022-11-21_24h01.35.016,Info_measure_main_exp,2022.2.2,Win32,59.96282305,,,,,,,,,,,,,0,2,2,0,1,masks/mask_001.jpg,,,,,,,,,,,,,,,,,,,,,,,,,,,,,,,,,,,,,,,,,,,,,,,,,,,,,,,,,,,,,,,,,,,,,,,,,,,,,,,,,,,,,,,,,,,,,
669374,001,2022-11-21_24h01.35.016,Info_measure_main_exp,2022.2.2,Win32,59.96282305,,,,,,,,,,,,,0,3,3,2,1,masks/mask_003.jpg,,,,,,,,,,,,,,,,,,,,,,,,,,,,,,,,,,,,,,,,,,,,,,,,,,,,,,,,,,,,,,,,,,,,,,,,,,,,,,,,,,,,,,,,,,,,,
669374,001,2022-11-21_24h01.35.016,Info_measure_main_exp,2022.2.2,Win32,59.96282305,,,,,,,,,,,,,0,4,4,1,1,masks/mask_002.jpg,,,,,,,,,,,,,,,,,,,,,,,,,,,,,,,,,,,,,,,,,,,,,,,,,,,,,,,,,,,,,,,,,,,,,,,,,,,,,,,,,,,,,,,,,,,,,
669374,001,2022-11-21_24h01.35.016,Info_measure_main_exp,2022.2.2,Win32,59.96282305,,,,,,,,,,,,,,,,,,masks/mask_004.jpg,0,0,0,3,1,,,,,,,,,,,,,,,,,,,,,,,,,,,,,,,,,,,,,,,,,,,,,,,,,,,,,,,,,,,,,,,,,,,,,,,,,,,,,,,,,,,,,,,,
669374,001,2022-11-21_24h01.35.016,Info_measure_main_exp,2022.2.2,Win32,59.96282305,,,,,,,,,,,,,,,,,,masks/mask_003.jpg,0,1,1,2,1,,,,,,,,,,,,,,,,,,,,,,,,,,,,,,,,,,,,,,,,,,,,,,,,,,,,,,,,,,,,,,,,,,,,,,,,,,,,,,,,,,,,,,,,
669374,001,2022-11-21_24h01.35.016,Info_measure_main_exp,2022.2.2,Win32,59.96282305,,,,,,,,,,,,,,,,,,masks/mask_002.jpg,0,2,2,1,1,,,,,,,,,,,,,,,,,,,,,,,,,,,,,,,,,,,,,,,,,,,,,,,,,,,,,,,,,,,,,,,,,,,,,,,,,,,,,,,,,,,,,,,,
669374,001,2022-11-21_24h01.35.016,Info_measure_main_exp,2022.2.2,Win32,59.96282305,,,,,,,,,,,,,,,,,,masks/mask_005.jpg,0,3,3,4,1,,,,,,,,,,,,,,,,,,,,,,,,,,,,,,,,,,,,,,,,,,,,,,,,,,,,,,,,,,,,,,,,,,,,,,,,,,,,,,,,,,,,,,,,
669374,001,2022-11-21_24h01.35.016,Info_measure_main_exp,2022.2.2,Win32,59.96282305,,,,,,,,,,,,,,,,,,masks/mask_001.jpg,0,4,4,0,1,,,,,,,,,,,,,,,,,,,,,,,,,,,,,,,,,,,,,,,,,,,,,,,,,,,,,,,,,,,,,,,,,,,,,,,,,,,,,,,,,,,,,,,,
669374,001,2022-11-21_24h01.35.016,Info_measure_main_exp,2022.2.2,Win32,59.96282305,,,,,,,,,,,,,,,,,,,,,,,,-0.063143881,-0.138750436,1,0,0,response5disk,3,37.3433,1,-0.003988036,-0.00182786,1,0,0,center_square,0,0,0,1,1,0,131,5,5,2514,2490,prac_patch/patch0002514.jpg,prac_patch/patch0002490.jpg,,,,,,,,,,,,,,,,,,,,,,,,,,,,,,,,,,,,,,,,,,,,,,,,,,,,,,,,,,,,
669374,001,2022-11-21_24h01.35.016,Info_measure_main_exp,2022.2.2,Win32,59.96282305,,,,,,,,,,,,,0,0,0,3,1,masks/mask_004.jpg,,,,,,,,,,,,,,,,,,,,,,,,,,,,,,,,,,,,,,,,,,,,,,,,,,,,,,,,,,,,,,,,,,,,,,,,,,,,,,,,,,,,,,,,,,,,,
669374,001,2022-11-21_24h01.35.016,Info_measure_main_exp,2022.2.2,Win32,59.96282305,,,,,,,,,,,,,0,1,1,2,1,masks/mask_003.jpg,,,,,,,,,,,,,,,,,,,,,,,,,,,,,,,,,,,,,,,,,,,,,,,,,,,,,,,,,,,,,,,,,,,,,,,,,,,,,,,,,,,,,,,,,,,,,
669374,001,2022-11-21_24h01.35.016,Info_measure_main_exp,2022.2.2,Win32,59.96282305,,,,,,,,,,,,,0,2,2,0,1,masks/mask_001.jpg,,,,,,,,,,,,,,,,,,,,,,,,,,,,,,,,,,,,,,,,,,,,,,,,,,,,,,,,,,,,,,,,,,,,,,,,,,,,,,,,,,,,,,,,,,,,,
669374,001,2022-11-21_24h01.35.016,Info_measure_main_exp,2022.2.2,Win32,59.96282305,,,,,,,,,,,,,0,3,3,1,1,masks/mask_002.jpg,,,,,,,,,,,,,,,,,,,,,,,,,,,,,,,,,,,,,,,,,,,,,,,,,,,,,,,,,,,,,,,,,,,,,,,,,,,,,,,,,,,,,,,,,,,,,
669374,001,2022-11-21_24h01.35.016,Info_measure_main_exp,2022.2.2,Win32,59.96282305,,,,,,,,,,,,,0,4,4,4,1,masks/mask_005.jpg,,,,,,,,,,,,,,,,,,,,,,,,,,,,,,,,,,,,,,,,,,,,,,,,,,,,,,,,,,,,,,,,,,,,,,,,,,,,,,,,,,,,,,,,,,,,,
669374,001,2022-11-21_24h01.35.016,Info_measure_main_exp,2022.2.2,Win32,59.96282305,,,,,,,,,,,,,,,,,,masks/mask_005.jpg,0,0,0,4,1,,,,,,,,,,,,,,,,,,,,,,,,,,,,,,,,,,,,,,,,,,,,,,,,,,,,,,,,,,,,,,,,,,,,,,,,,,,,,,,,,,,,,,,,
669374,001,2022-11-21_24h01.35.016,Info_measure_main_exp,2022.2.2,Win32,59.96282305,,,,,,,,,,,,,,,,,,masks/mask_004.jpg,0,1,1,3,1,,,,,,,,,,,,,,,,,,,,,,,,,,,,,,,,,,,,,,,,,,,,,,,,,,,,,,,,,,,,,,,,,,,,,,,,,,,,,,,,,,,,,,,,
669374,001,2022-11-21_24h01.35.016,Info_measure_main_exp,2022.2.2,Win32,59.96282305,,,,,,,,,,,,,,,,,,masks/mask_001.jpg,0,2,2,0,1,,,,,,,,,,,,,,,,,,,,,,,,,,,,,,,,,,,,,,,,,,,,,,,,,,,,,,,,,,,,,,,,,,,,,,,,,,,,,,,,,,,,,,,,
669374,001,2022-11-21_24h01.35.016,Info_measure_main_exp,2022.2.2,Win32,59.96282305,,,,,,,,,,,,,,,,,,masks/mask_003.jpg,0,3,3,2,1,,,,,,,,,,,,,,,,,,,,,,,,,,,,,,,,,,,,,,,,,,,,,,,,,,,,,,,,,,,,,,,,,,,,,,,,,,,,,,,,,,,,,,,,
669374,001,2022-11-21_24h01.35.016,Info_measure_main_exp,2022.2.2,Win32,59.96282305,,,,,,,,,,,,,,,,,,masks/mask_002.jpg,0,4,4,1,1,,,,,,,,,,,,,,,,,,,,,,,,,,,,,,,,,,,,,,,,,,,,,,,,,,,,,,,,,,,,,,,,,,,,,,,,,,,,,,,,,,,,,,,,
669374,001,2022-11-21_24h01.35.016,Info_measure_main_exp,2022.2.2,Win32,59.96282305,,,,,,,,,,,,,,,,,,,,,,,,-0.114323655,0.048022589,1,0,0,response7disk,1,47.2583,1,-0.004652668,0.001495513,1,0,0,center_square,0,1,1,2,1,0,131,5,5,2526,2526,prac_patch/patch0002526.jpg,prac_patch/patch0002526.jpg,,,,,,,,,,,,,,,,,,,,,,,,,,,,,,,,,,,,,,,,,,,,,,,,,,,,,,,,,,,,
669374,001,2022-11-21_24h01.35.016,Info_measure_main_exp,2022.2.2,Win32,59.96282305,,,,,,,,,,,,,0,0,0,1,1,masks/mask_002.jpg,,,,,,,,,,,,,,,,,,,,,,,,,,,,,,,,,,,,,,,,,,,,,,,,,,,,,,,,,,,,,,,,,,,,,,,,,,,,,,,,,,,,,,,,,,,,,
669374,001,2022-11-21_24h01.35.016,Info_measure_main_exp,2022.2.2,Win32,59.96282305,,,,,,,,,,,,,0,1,1,3,1,masks/mask_004.jpg,,,,,,,,,,,,,,,,,,,,,,,,,,,,,,,,,,,,,,,,,,,,,,,,,,,,,,,,,,,,,,,,,,,,,,,,,,,,,,,,,,,,,,,,,,,,,
669374,001,2022-11-21_24h01.35.016,Info_measure_main_exp,2022.2.2,Win32,59.96282305,,,,,,,,,,,,,0,2,2,2,1,masks/mask_003.jpg,,,,,,,,,,,,,,,,,,,,,,,,,,,,,,,,,,,,,,,,,,,,,,,,,,,,,,,,,,,,,,,,,,,,,,,,,,,,,,,,,,,,,,,,,,,,,
669374,001,2022-11-21_24h01.35.016,Info_measure_main_exp,2022.2.2,Win32,59.96282305,,,,,,,,,,,,,0,3,3,4,1,masks/mask_005.jpg,,,,,,,,,,,,,,,,,,,,,,,,,,,,,,,,,,,,,,,,,,,,,,,,,,,,,,,,,,,,,,,,,,,,,,,,,,,,,,,,,,,,,,,,,,,,,
669374,001,2022-11-21_24h01.35.016,Info_measure_main_exp,2022.2.2,Win32,59.96282305,,,,,,,,,,,,,0,4,4,0,1,masks/mask_001.jpg,,,,,,,,,,,,,,,,,,,,,,,,,,,,,,,,,,,,,,,,,,,,,,,,,,,,,,,,,,,,,,,,,,,,,,,,,,,,,,,,,,,,,,,,,,,,,
669374,001,2022-11-21_24h01.35.016,Info_measure_main_exp,2022.2.2,Win32,59.96282305,,,,,,,,,,,,,,,,,,masks/mask_002.jpg,0,0,0,1,1,,,,,,,,,,,,,,,,,,,,,,,,,,,,,,,,,,,,,,,,,,,,,,,,,,,,,,,,,,,,,,,,,,,,,,,,,,,,,,,,,,,,,,,,
669374,001,2022-11-21_24h01.35.016,Info_measure_main_exp,2022.2.2,Win32,59.96282305,,,,,,,,,,,,,,,,,,masks/mask_005.jpg,0,1,1,4,1,,,,,,,,,,,,,,,,,,,,,,,,,,,,,,,,,,,,,,,,,,,,,,,,,,,,,,,,,,,,,,,,,,,,,,,,,,,,,,,,,,,,,,,,
669374,001,2022-11-21_24h01.35.016,Info_measure_main_exp,2022.2.2,Win32,59.96282305,,,,,,,,,,,,,,,,,,masks/mask_003.jpg,0,2,2,2,1,,,,,,,,,,,,,,,,,,,,,,,,,,,,,,,,,,,,,,,,,,,,,,,,,,,,,,,,,,,,,,,,,,,,,,,,,,,,,,,,,,,,,,,,
669374,001,2022-11-21_24h01.35.016,Info_measure_main_exp,2022.2.2,Win32,59.96282305,,,,,,,,,,,,,,,,,,masks/mask_004.jpg,0,3,3,3,1,,,,,,,,,,,,,,,,,,,,,,,,,,,,,,,,,,,,,,,,,,,,,,,,,,,,,,,,,,,,,,,,,,,,,,,,,,,,,,,,,,,,,,,,
669374,001,2022-11-21_24h01.35.016,Info_measure_main_exp,2022.2.2,Win32,59.96282305,,,,,,,,,,,,,,,,,,masks/mask_001.jpg,0,4,4,0,1,,,,,,,,,,,,,,,,,,,,,,,,,,,,,,,,,,,,,,,,,,,,,,,,,,,,,,,,,,,,,,,,,,,,,,,,,,,,,,,,,,,,,,,,
669374,001,2022-11-21_24h01.35.016,Info_measure_main_exp,2022.2.2,Win32,59.96282305,,,,,,,,,,,,,,,,,,,,,,,,0.061149924,-0.11482222,1,0,0,response3disk,4,56.876,1,0.000664693,-0.003157215,1,0,0,center_square,0,2,2,0,1,0,131,5,5,2370,2406,prac_patch/patch0002370.jpg,prac_patch/patch0002406.jpg,,,,,,,,,,,,,,,,,,,,,,,,,,,,,,,,,,,,,,,,,,,,,,,,,,,,,,,,,,,,
669374,001,2022-11-21_24h01.35.016,Info_measure_main_exp,2022.2.2,Win32,59.96282305,,,,,,,,,,,,,,,,,,,,,,,,,,,,,,,,,,,,,,,,,,,,,,,,,,,,,,,,,,,space,1.1672,,,,,,,,,,,,,,,,,,,,,,,,,,,,,,,,,,,,,,,,,,,,,,,,,,,
669374,001,2022-11-21_24h01.35.016,Info_measure_main_exp,2022.2.2,Win32,59.96282305,,,,,,,,,,,,,,,,,,masks/mask_003.jpg,,,,,,,,,,,,,,,,,,,,,,,,,,,,,,,,,,,,,,,,,,,0,0,0,2,1,,,,,,,,,,,,,,,,,,,,,,,,,,,,,,,,,,,,,,,,,,,,,,
669374,001,2022-11-21_24h01.35.016,Info_measure_main_exp,2022.2.2,Win32,59.96282305,,,,,,,,,,,,,,,,,,masks/mask_004.jpg,,,,,,,,,,,,,,,,,,,,,,,,,,,,,,,,,,,,,,,,,,,0,1,1,3,1,,,,,,,,,,,,,,,,,,,,,,,,,,,,,,,,,,,,,,,,,,,,,,
669374,001,2022-11-21_24h01.35.016,Info_measure_main_exp,2022.2.2,Win32,59.96282305,,,,,,,,,,,,,,,,,,masks/mask_002.jpg,,,,,,,,,,,,,,,,,,,,,,,,,,,,,,,,,,,,,,,,,,,0,2,2,1,1,,,,,,,,,,,,,,,,,,,,,,,,,,,,,,,,,,,,,,,,,,,,,,
669374,001,2022-11-21_24h01.35.016,Info_measure_main_exp,2022.2.2,Win32,59.96282305,,,,,,,,,,,,,,,,,,masks/mask_005.jpg,,,,,,,,,,,,,,,,,,,,,,,,,,,,,,,,,,,,,,,,,,,0,3,3,4,1,,,,,,,,,,,,,,,,,,,,,,,,,,,,,,,,,,,,,,,,,,,,,,
669374,001,2022-11-21_24h01.35.016,Info_measure_main_exp,2022.2.2,Win32,59.96282305,,,,,,,,,,,,,,,,,,masks/mask_001.jpg,,,,,,,,,,,,,,,,,,,,,,,,,,,,,,,,,,,,,,,,,,,0,4,4,0,1,,,,,,,,,,,,,,,,,,,,,,,,,,,,,,,,,,,,,,,,,,,,,,
669374,001,2022-11-21_24h01.35.016,Info_measure_main_exp,2022.2.2,Win32,59.96282305,,,,,,,,,,,,,,,,,,masks/mask_001.jpg,,,,,,,,,,,,,,,,,,,,,,,,,,,,,,,,,,,,,,,,,,,,,,,,0,0,0,0,1,,,,,,,,,,,,,,,,,,,,,,,,,,,,,,,,,,,,,,,,,
669374,001,2022-11-21_24h01.35.016,Info_measure_main_exp,2022.2.2,Win32,59.96282305,,,,,,,,,,,,,,,,,,masks/mask_005.jpg,,,,,,,,,,,,,,,,,,,,,,,,,,,,,,,,,,,,,,,,,,,,,,,,0,1,1,4,1,,,,,,,,,,,,,,,,,,,,,,,,,,,,,,,,,,,,,,,,,
669374,001,2022-11-21_24h01.35.016,Info_measure_main_exp,2022.2.2,Win32,59.96282305,,,,,,,,,,,,,,,,,,masks/mask_002.jpg,,,,,,,,,,,,,,,,,,,,,,,,,,,,,,,,,,,,,,,,,,,,,,,,0,2,2,1,1,,,,,,,,,,,,,,,,,,,,,,,,,,,,,,,,,,,,,,,,,
669374,001,2022-11-21_24h01.35.016,Info_measure_main_exp,2022.2.2,Win32,59.96282305,,,,,,,,,,,,,,,,,,masks/mask_003.jpg,,,,,,,,,,,,,,,,,,,,,,,,,,,,,,,,,,,,,,,,,,,,,,,,0,3,3,2,1,,,,,,,,,,,,,,,,,,,,,,,,,,,,,,,,,,,,,,,,,
669374,001,2022-11-21_24h01.35.016,Info_measure_main_exp,2022.2.2,Win32,59.96282305,,,,,,,,,,,,,,,,,,masks/mask_004.jpg,,,,,,,,,,,,,,,,,,,,,,,,,,,,,,,,,,,,,,,,,,,,,,,,0,4,4,3,1,,,,,,,,,,,,,,,,,,,,,,,,,,,,,,,,,,,,,,,,,
669374,001,2022-11-21_24h01.35.016,Info_measure_main_exp,2022.2.2,Win32,59.96282305,,,,,,,,,,,,,,,,,,,,,,,,,,,,,,6,2.5515,1,,,,,,,,,,,,0,131,5,5,2190,1974,absent_patch/patch0002190.jpg,absent_patch/patch0001974.jpg,,,,,,,,,,,,,,,,,,,,0.11033568,0.042705197,1,0,0,response1disk,1,-0.006646686,-0.003821878,1,0,0,center_square,0,0,0,119,1,,,,,,,,,,,,,,,,,,,,,,,
669374,001,2022-11-21_24h01.35.016,Info_measure_main_exp,2022.2.2,Win32,59.96282305,,,,,,,,,,,,,,,,,,masks/mask_002.jpg,,,,,,,,,,,,,,,,,,,,,,,,,,,,,,,,,,,,,,,,,,,0,0,0,1,1,,,,,,,,,,,,,,,,,,,,,,,,,,,,,,,,,,,,,,,,,,,,,,
669374,001,2022-11-21_24h01.35.016,Info_measure_main_exp,2022.2.2,Win32,59.96282305,,,,,,,,,,,,,,,,,,masks/mask_001.jpg,,,,,,,,,,,,,,,,,,,,,,,,,,,,,,,,,,,,,,,,,,,0,1,1,0,1,,,,,,,,,,,,,,,,,,,,,,,,,,,,,,,,,,,,,,,,,,,,,,
669374,001,2022-11-21_24h01.35.016,Info_measure_main_exp,2022.2.2,Win32,59.96282305,,,,,,,,,,,,,,,,,,masks/mask_005.jpg,,,,,,,,,,,,,,,,,,,,,,,,,,,,,,,,,,,,,,,,,,,0,2,2,4,1,,,,,,,,,,,,,,,,,,,,,,,,,,,,,,,,,,,,,,,,,,,,,,
669374,001,2022-11-21_24h01.35.016,Info_measure_main_exp,2022.2.2,Win32,59.96282305,,,,,,,,,,,,,,,,,,masks/mask_003.jpg,,,,,,,,,,,,,,,,,,,,,,,,,,,,,,,,,,,,,,,,,,,0,3,3,2,1,,,,,,,,,,,,,,,,,,,,,,,,,,,,,,,,,,,,,,,,,,,,,,
669374,001,2022-11-21_24h01.35.016,Info_measure_main_exp,2022.2.2,Win32,59.96282305,,,,,,,,,,,,,,,,,,masks/mask_004.jpg,,,,,,,,,,,,,,,,,,,,,,,,,,,,,,,,,,,,,,,,,,,0,4,4,3,1,,,,,,,,,,,,,,,,,,,,,,,,,,,,,,,,,,,,,,,,,,,,,,
669374,001,2022-11-21_24h01.35.016,Info_measure_main_exp,2022.2.2,Win32,59.96282305,,,,,,,,,,,,,,,,,,masks/mask_003.jpg,,,,,,,,,,,,,,,,,,,,,,,,,,,,,,,,,,,,,,,,,,,,,,,,0,0,0,2,1,,,,,,,,,,,,,,,,,,,,,,,,,,,,,,,,,,,,,,,,,
669374,001,2022-11-21_24h01.35.016,Info_measure_main_exp,2022.2.2,Win32,59.96282305,,,,,,,,,,,,,,,,,,masks/mask_002.jpg,,,,,,,,,,,,,,,,,,,,,,,,,,,,,,,,,,,,,,,,,,,,,,,,0,1,1,1,1,,,,,,,,,,,,,,,,,,,,,,,,,,,,,,,,,,,,,,,,,
669374,001,2022-11-21_24h01.35.016,Info_measure_main_exp,2022.2.2,Win32,59.96282305,,,,,,,,,,,,,,,,,,masks/mask_001.jpg,,,,,,,,,,,,,,,,,,,,,,,,,,,,,,,,,,,,,,,,,,,,,,,,0,2,2,0,1,,,,,,,,,,,,,,,,,,,,,,,,,,,,,,,,,,,,,,,,,
669374,001,2022-11-21_24h01.35.016,Info_measure_main_exp,2022.2.2,Win32,59.96282305,,,,,,,,,,,,,,,,,,masks/mask_005.jpg,,,,,,,,,,,,,,,,,,,,,,,,,,,,,,,,,,,,,,,,,,,,,,,,0,3,3,4,1,,,,,,,,,,,,,,,,,,,,,,,,,,,,,,,,,,,,,,,,,
669374,001,2022-11-21_24h01.35.016,Info_measure_main_exp,2022.2.2,Win32,59.96282305,,,,,,,,,,,,,,,,,,masks/mask_004.jpg,,,,,,,,,,,,,,,,,,,,,,,,,,,,,,,,,,,,,,,,,,,,,,,,0,4,4,3,1,,,,,,,,,,,,,,,,,,,,,,,,,,,,,,,,,,,,,,,,,
669374,001,2022-11-21_24h01.35.016,Info_measure_main_exp,2022.2.2,Win32,59.96282305,,,,,,,,,,,,,,,,,,,,,,,,,,,,,,2,1.4835,1,,,,,,,,,,,,0,131,5,5,1986,2154,absent_patch/patch0001986.jpg,absent_patch/patch0002154.jpg,,,,,,,,,,,,,,,,,,,,-0.116982366,-0.072283151,1,0,0,response5disk,2,-0.001329325,0.001495513,1,0,0,center_square,0,1,1,36,1,,,,,,,,,,,,,,,,,,,,,,,
669374,001,2022-11-21_24h01.35.016,Info_measure_main_exp,2022.2.2,Win32,59.96282305,,,,,,,,,,,,,,,,,,masks/mask_002.jpg,,,,,,,,,,,,,,,,,,,,,,,,,,,,,,,,,,,,,,,,,,,0,0,0,1,1,,,,,,,,,,,,,,,,,,,,,,,,,,,,,,,,,,,,,,,,,,,,,,
669374,001,2022-11-21_24h01.35.016,Info_measure_main_exp,2022.2.2,Win32,59.96282305,,,,,,,,,,,,,,,,,,masks/mask_005.jpg,,,,,,,,,,,,,,,,,,,,,,,,,,,,,,,,,,,,,,,,,,,0,1,1,4,1,,,,,,,,,,,,,,,,,,,,,,,,,,,,,,,,,,,,,,,,,,,,,,
669374,001,2022-11-21_24h01.35.016,Info_measure_main_exp,2022.2.2,Win32,59.96282305,,,,,,,,,,,,,,,,,,masks/mask_003.jpg,,,,,,,,,,,,,,,,,,,,,,,,,,,,,,,,,,,,,,,,,,,0,2,2,2,1,,,,,,,,,,,,,,,,,,,,,,,,,,,,,,,,,,,,,,,,,,,,,,
669374,001,2022-11-21_24h01.35.016,Info_measure_main_exp,2022.2.2,Win32,59.96282305,,,,,,,,,,,,,,,,,,masks/mask_001.jpg,,,,,,,,,,,,,,,,,,,,,,,,,,,,,,,,,,,,,,,,,,,0,3,3,0,1,,,,,,,,,,,,,,,,,,,,,,,,,,,,,,,,,,,,,,,,,,,,,,
669374,001,2022-11-21_24h01.35.016,Info_measure_main_exp,2022.2.2,Win32,59.96282305,,,,,,,,,,,,,,,,,,masks/mask_004.jpg,,,,,,,,,,,,,,,,,,,,,,,,,,,,,,,,,,,,,,,,,,,0,4,4,3,1,,,,,,,,,,,,,,,,,,,,,,,,,,,,,,,,,,,,,,,,,,,,,,
669374,001,2022-11-21_24h01.35.016,Info_measure_main_exp,2022.2.2,Win32,59.96282305,,,,,,,,,,,,,,,,,,masks/mask_004.jpg,,,,,,,,,,,,,,,,,,,,,,,,,,,,,,,,,,,,,,,,,,,,,,,,0,0,0,3,1,,,,,,,,,,,,,,,,,,,,,,,,,,,,,,,,,,,,,,,,,
669374,001,2022-11-21_24h01.35.016,Info_measure_main_exp,2022.2.2,Win32,59.96282305,,,,,,,,,,,,,,,,,,masks/mask_002.jpg,,,,,,,,,,,,,,,,,,,,,,,,,,,,,,,,,,,,,,,,,,,,,,,,0,1,1,1,1,,,,,,,,,,,,,,,,,,,,,,,,,,,,,,,,,,,,,,,,,
669374,001,2022-11-21_24h01.35.016,Info_measure_main_exp,2022.2.2,Win32,59.96282305,,,,,,,,,,,,,,,,,,masks/mask_001.jpg,,,,,,,,,,,,,,,,,,,,,,,,,,,,,,,,,,,,,,,,,,,,,,,,0,2,2,0,1,,,,,,,,,,,,,,,,,,,,,,,,,,,,,,,,,,,,,,,,,
669374,001,2022-11-21_24h01.35.016,Info_measure_main_exp,2022.2.2,Win32,59.96282305,,,,,,,,,,,,,,,,,,masks/mask_003.jpg,,,,,,,,,,,,,,,,,,,,,,,,,,,,,,,,,,,,,,,,,,,,,,,,0,3,3,2,1,,,,,,,,,,,,,,,,,,,,,,,,,,,,,,,,,,,,,,,,,
669374,001,2022-11-21_24h01.35.016,Info_measure_main_exp,2022.2.2,Win32,59.96282305,,,,,,,,,,,,,,,,,,masks/mask_005.jpg,,,,,,,,,,,,,,,,,,,,,,,,,,,,,,,,,,,,,,,,,,,,,,,,0,4,4,4,1,,,,,,,,,,,,,,,,,,,,,,,,,,,,,,,,,,,,,,,,,
669374,001,2022-11-21_24h01.35.016,Info_measure_main_exp,2022.2.2,Win32,59.96282305,,,,,,,,,,,,,,,,,,,,,,,,,,,,,,0,1.25,1,,,,,,,,,,,,0,131,5,5,2178,2178,absent_patch/patch0002178.jpg,absent_patch/patch0002178.jpg,,,,,,,,,,,,,,,,,,,,-0.053838485,0.126453951,1,0,0,response7disk,3,0.000664693,0.000830821,1,0,0,center_square,0,2,2,98,1,,,,,,,,,,,,,,,,,,,,,,,
669374,001,2022-11-21_24h01.35.016,Info_measure_main_exp,2022.2.2,Win32,59.96282305,,,,,,,,,,,,,,,,,,masks/mask_002.jpg,,,,,,,,,,,,,,,,,,,,,,,,,,,,,,,,,,,,,,,,,,,0,0,0,1,1,,,,,,,,,,,,,,,,,,,,,,,,,,,,,,,,,,,,,,,,,,,,,,
669374,001,2022-11-21_24h01.35.016,Info_measure_main_exp,2022.2.2,Win32,59.96282305,,,,,,,,,,,,,,,,,,masks/mask_003.jpg,,,,,,,,,,,,,,,,,,,,,,,,,,,,,,,,,,,,,,,,,,,0,1,1,2,1,,,,,,,,,,,,,,,,,,,,,,,,,,,,,,,,,,,,,,,,,,,,,,
669374,001,2022-11-21_24h01.35.016,Info_measure_main_exp,2022.2.2,Win32,59.96282305,,,,,,,,,,,,,,,,,,masks/mask_004.jpg,,,,,,,,,,,,,,,,,,,,,,,,,,,,,,,,,,,,,,,,,,,0,2,2,3,1,,,,,,,,,,,,,,,,,,,,,,,,,,,,,,,,,,,,,,,,,,,,,,
669374,001,2022-11-21_24h01.35.016,Info_measure_main_exp,2022.2.2,Win32,59.96282305,,,,,,,,,,,,,,,,,,masks/mask_001.jpg,,,,,,,,,,,,,,,,,,,,,,,,,,,,,,,,,,,,,,,,,,,0,3,3,0,1,,,,,,,,,,,,,,,,,,,,,,,,,,,,,,,,,,,,,,,,,,,,,,
669374,001,2022-11-21_24h01.35.016,Info_measure_main_exp,2022.2.2,Win32,59.96282305,,,,,,,,,,,,,,,,,,masks/mask_005.jpg,,,,,,,,,,,,,,,,,,,,,,,,,,,,,,,,,,,,,,,,,,,0,4,4,4,1,,,,,,,,,,,,,,,,,,,,,,,,,,,,,,,,,,,,,,,,,,,,,,
669374,001,2022-11-21_24h01.35.016,Info_measure_main_exp,2022.2.2,Win32,59.96282305,,,,,,,,,,,,,,,,,,masks/mask_002.jpg,,,,,,,,,,,,,,,,,,,,,,,,,,,,,,,,,,,,,,,,,,,,,,,,0,0,0,1,1,,,,,,,,,,,,,,,,,,,,,,,,,,,,,,,,,,,,,,,,,
669374,001,2022-11-21_24h01.35.016,Info_measure_main_exp,2022.2.2,Win32,59.96282305,,,,,,,,,,,,,,,,,,masks/mask_001.jpg,,,,,,,,,,,,,,,,,,,,,,,,,,,,,,,,,,,,,,,,,,,,,,,,0,1,1,0,1,,,,,,,,,,,,,,,,,,,,,,,,,,,,,,,,,,,,,,,,,
669374,001,2022-11-21_24h01.35.016,Info_measure_main_exp,2022.2.2,Win32,59.96282305,,,,,,,,,,,,,,,,,,masks/mask_004.jpg,,,,,,,,,,,,,,,,,,,,,,,,,,,,,,,,,,,,,,,,,,,,,,,,0,2,2,3,1,,,,,,,,,,,,,,,,,,,,,,,,,,,,,,,,,,,,,,,,,
669374,001,2022-11-21_24h01.35.016,Info_measure_main_exp,2022.2.2,Win32,59.96282305,,,,,,,,,,,,,,,,,,masks/mask_003.jpg,,,,,,,,,,,,,,,,,,,,,,,,,,,,,,,,,,,,,,,,,,,,,,,,0,3,3,2,1,,,,,,,,,,,,,,,,,,,,,,,,,,,,,,,,,,,,,,,,,
669374,001,2022-11-21_24h01.35.016,Info_measure_main_exp,2022.2.2,Win32,59.96282305,,,,,,,,,,,,,,,,,,masks/mask_005.jpg,,,,,,,,,,,,,,,,,,,,,,,,,,,,,,,,,,,,,,,,,,,,,,,,0,4,4,4,1,,,,,,,,,,,,,,,,,,,,,,,,,,,,,,,,,,,,,,,,,
669374,001,2022-11-21_24h01.35.016,Info_measure_main_exp,2022.2.2,Win32,59.96282305,,,,,,,,,,,,,,,,,,,,,,,,,,,,,,3,1.5835,1,,,,,,,,,,,,0,131,5,5,2298,2190,absent_patch/patch0002298.jpg,absent_patch/patch0002190.jpg,,,,,,,,,,,,,,,,,,,,-0.053838485,-0.100199402,1,0,0,response5disk,4,-0.007976072,-0.003157215,1,0,0,center_square,0,3,3,20,1,,,,,,,,,,,,,,,,,,,,,,,
669374,001,2022-11-21_24h01.35.016,Info_measure_main_exp,2022.2.2,Win32,59.96282305,,,,,,,,,,,,,,,,,,masks/mask_001.jpg,,,,,,,,,,,,,,,,,,,,,,,,,,,,,,,,,,,,,,,,,,,0,0,0,0,1,,,,,,,,,,,,,,,,,,,,,,,,,,,,,,,,,,,,,,,,,,,,,,
669374,001,2022-11-21_24h01.35.016,Info_measure_main_exp,2022.2.2,Win32,59.96282305,,,,,,,,,,,,,,,,,,masks/mask_003.jpg,,,,,,,,,,,,,,,,,,,,,,,,,,,,,,,,,,,,,,,,,,,0,1,1,2,1,,,,,,,,,,,,,,,,,,,,,,,,,,,,,,,,,,,,,,,,,,,,,,
669374,001,2022-11-21_24h01.35.016,Info_measure_main_exp,2022.2.2,Win32,59.96282305,,,,,,,,,,,,,,,,,,masks/mask_005.jpg,,,,,,,,,,,,,,,,,,,,,,,,,,,,,,,,,,,,,,,,,,,0,2,2,4,1,,,,,,,,,,,,,,,,,,,,,,,,,,,,,,,,,,,,,,,,,,,,,,
669374,001,2022-11-21_24h01.35.016,Info_measure_main_exp,2022.2.2,Win32,59.96282305,,,,,,,,,,,,,,,,,,masks/mask_004.jpg,,,,,,,,,,,,,,,,,,,,,,,,,,,,,,,,,,,,,,,,,,,0,3,3,3,1,,,,,,,,,,,,,,,,,,,,,,,,,,,,,,,,,,,,,,,,,,,,,,
669374,001,2022-11-21_24h01.35.016,Info_measure_main_exp,2022.2.2,Win32,59.96282305,,,,,,,,,,,,,,,,,,masks/mask_002.jpg,,,,,,,,,,,,,,,,,,,,,,,,,,,,,,,,,,,,,,,,,,,0,4,4,1,1,,,,,,,,,,,,,,,,,,,,,,,,,,,,,,,,,,,,,,,,,,,,,,
669374,001,2022-11-21_24h01.35.016,Info_measure_main_exp,2022.2.2,Win32,59.96282305,,,,,,,,,,,,,,,,,,masks/mask_001.jpg,,,,,,,,,,,,,,,,,,,,,,,,,,,,,,,,,,,,,,,,,,,,,,,,0,0,0,0,1,,,,,,,,,,,,,,,,,,,,,,,,,,,,,,,,,,,,,,,,,
669374,001,2022-11-21_24h01.35.016,Info_measure_main_exp,2022.2.2,Win32,59.96282305,,,,,,,,,,,,,,,,,,masks/mask_003.jpg,,,,,,,,,,,,,,,,,,,,,,,,,,,,,,,,,,,,,,,,,,,,,,,,0,1,1,2,1,,,,,,,,,,,,,,,,,,,,,,,,,,,,,,,,,,,,,,,,,
669374,001,2022-11-21_24h01.35.016,Info_measure_main_exp,2022.2.2,Win32,59.96282305,,,,,,,,,,,,,,,,,,masks/mask_004.jpg,,,,,,,,,,,,,,,,,,,,,,,,,,,,,,,,,,,,,,,,,,,,,,,,0,2,2,3,1,,,,,,,,,,,,,,,,,,,,,,,,,,,,,,,,,,,,,,,,,
669374,001,2022-11-21_24h01.35.016,Info_measure_main_exp,2022.2.2,Win32,59.96282305,,,,,,,,,,,,,,,,,,masks/mask_002.jpg,,,,,,,,,,,,,,,,,,,,,,,,,,,,,,,,,,,,,,,,,,,,,,,,0,3,3,1,1,,,,,,,,,,,,,,,,,,,,,,,,,,,,,,,,,,,,,,,,,
669374,001,2022-11-21_24h01.35.016,Info_measure_main_exp,2022.2.2,Win32,59.96282305,,,,,,,,,,,,,,,,,,masks/mask_005.jpg,,,,,,,,,,,,,,,,,,,,,,,,,,,,,,,,,,,,,,,,,,,,,,,,0,4,4,4,1,,,,,,,,,,,,,,,,,,,,,,,,,,,,,,,,,,,,,,,,,
669374,001,2022-11-21_24h01.35.016,Info_measure_main_exp,2022.2.2,Win32,59.96282305,,,,,,,,,,,,,,,,,,,,,,,,,,,,,,0,0.9669,1,,,,,,,,,,,,0,131,5,5,2154,2154,absent_patch/patch0002154.jpg,absent_patch/patch0002154.jpg,,,,,,,,,,,,,,,,,,,,-0.041874377,0.119142572,1,0,0,response7disk,5,0.003323404,0.001495513,1,0,0,center_square,0,4,4,89,1,,,,,,,,,,,,,,,,,,,,,,,
669374,001,2022-11-21_24h01.35.016,Info_measure_main_exp,2022.2.2,Win32,59.96282305,,,,,,,,,,,,,,,,,,masks/mask_003.jpg,,,,,,,,,,,,,,,,,,,,,,,,,,,,,,,,,,,,,,,,,,,0,0,0,2,1,,,,,,,,,,,,,,,,,,,,,,,,,,,,,,,,,,,,,,,,,,,,,,
669374,001,2022-11-21_24h01.35.016,Info_measure_main_exp,2022.2.2,Win32,59.96282305,,,,,,,,,,,,,,,,,,masks/mask_002.jpg,,,,,,,,,,,,,,,,,,,,,,,,,,,,,,,,,,,,,,,,,,,0,1,1,1,1,,,,,,,,,,,,,,,,,,,,,,,,,,,,,,,,,,,,,,,,,,,,,,
669374,001,2022-11-21_24h01.35.016,Info_measure_main_exp,2022.2.2,Win32,59.96282305,,,,,,,,,,,,,,,,,,masks/mask_001.jpg,,,,,,,,,,,,,,,,,,,,,,,,,,,,,,,,,,,,,,,,,,,0,2,2,0,1,,,,,,,,,,,,,,,,,,,,,,,,,,,,,,,,,,,,,,,,,,,,,,
669374,001,2022-11-21_24h01.35.016,Info_measure_main_exp,2022.2.2,Win32,59.96282305,,,,,,,,,,,,,,,,,,masks/mask_004.jpg,,,,,,,,,,,,,,,,,,,,,,,,,,,,,,,,,,,,,,,,,,,0,3,3,3,1,,,,,,,,,,,,,,,,,,,,,,,,,,,,,,,,,,,,,,,,,,,,,,
669374,001,2022-11-21_24h01.35.016,Info_measure_main_exp,2022.2.2,Win32,59.96282305,,,,,,,,,,,,,,,,,,masks/mask_005.jpg,,,,,,,,,,,,,,,,,,,,,,,,,,,,,,,,,,,,,,,,,,,0,4,4,4,1,,,,,,,,,,,,,,,,,,,,,,,,,,,,,,,,,,,,,,,,,,,,,,
669374,001,2022-11-21_24h01.35.016,Info_measure_main_exp,2022.2.2,Win32,59.96282305,,,,,,,,,,,,,,,,,,masks/mask_005.jpg,,,,,,,,,,,,,,,,,,,,,,,,,,,,,,,,,,,,,,,,,,,,,,,,0,0,0,4,1,,,,,,,,,,,,,,,,,,,,,,,,,,,,,,,,,,,,,,,,,
669374,001,2022-11-21_24h01.35.016,Info_measure_main_exp,2022.2.2,Win32,59.96282305,,,,,,,,,,,,,,,,,,masks/mask_003.jpg,,,,,,,,,,,,,,,,,,,,,,,,,,,,,,,,,,,,,,,,,,,,,,,,0,1,1,2,1,,,,,,,,,,,,,,,,,,,,,,,,,,,,,,,,,,,,,,,,,
669374,001,2022-11-21_24h01.35.016,Info_measure_main_exp,2022.2.2,Win32,59.96282305,,,,,,,,,,,,,,,,,,masks/mask_002.jpg,,,,,,,,,,,,,,,,,,,,,,,,,,,,,,,,,,,,,,,,,,,,,,,,0,2,2,1,1,,,,,,,,,,,,,,,,,,,,,,,,,,,,,,,,,,,,,,,,,
669374,001,2022-11-21_24h01.35.016,Info_measure_main_exp,2022.2.2,Win32,59.96282305,,,,,,,,,,,,,,,,,,masks/mask_001.jpg,,,,,,,,,,,,,,,,,,,,,,,,,,,,,,,,,,,,,,,,,,,,,,,,0,3,3,0,1,,,,,,,,,,,,,,,,,,,,,,,,,,,,,,,,,,,,,,,,,
669374,001,2022-11-21_24h01.35.016,Info_measure_main_exp,2022.2.2,Win32,59.96282305,,,,,,,,,,,,,,,,,,masks/mask_004.jpg,,,,,,,,,,,,,,,,,,,,,,,,,,,,,,,,,,,,,,,,,,,,,,,,0,4,4,3,1,,,,,,,,,,,,,,,,,,,,,,,,,,,,,,,,,,,,,,,,,
669374,001,2022-11-21_24h01.35.016,Info_measure_main_exp,2022.2.2,Win32,59.96282305,,,,,,,,,,,,,,,,,,,,,,,,,,,,,,6,1.2168,1,,,,,,,,,,,,1,131,5,5,2082,1,absent_patch/patch0002082.jpg,present_patch/cong_131_5_a.jpg,,,,,,,,,,,,,,,,,,,,0.139581256,0.059986696,1,0,0,response1disk,6,-0.005982054,-0.002492522,1,0,0,center_square,0,5,5,65,1,,,,,,,,,,,,,,,,,,,,,,,
669374,001,2022-11-21_24h01.35.016,Info_measure_main_exp,2022.2.2,Win32,59.96282305,,,,,,,,,,,,,,,,,,masks/mask_003.jpg,,,,,,,,,,,,,,,,,,,,,,,,,,,,,,,,,,,,,,,,,,,0,0,0,2,1,,,,,,,,,,,,,,,,,,,,,,,,,,,,,,,,,,,,,,,,,,,,,,
669374,001,2022-11-21_24h01.35.016,Info_measure_main_exp,2022.2.2,Win32,59.96282305,,,,,,,,,,,,,,,,,,masks/mask_002.jpg,,,,,,,,,,,,,,,,,,,,,,,,,,,,,,,,,,,,,,,,,,,0,1,1,1,1,,,,,,,,,,,,,,,,,,,,,,,,,,,,,,,,,,,,,,,,,,,,,,
669374,001,2022-11-21_24h01.35.016,Info_measure_main_exp,2022.2.2,Win32,59.96282305,,,,,,,,,,,,,,,,,,masks/mask_004.jpg,,,,,,,,,,,,,,,,,,,,,,,,,,,,,,,,,,,,,,,,,,,0,2,2,3,1,,,,,,,,,,,,,,,,,,,,,,,,,,,,,,,,,,,,,,,,,,,,,,
669374,001,2022-11-21_24h01.35.016,Info_measure_main_exp,2022.2.2,Win32,59.96282305,,,,,,,,,,,,,,,,,,masks/mask_005.jpg,,,,,,,,,,,,,,,,,,,,,,,,,,,,,,,,,,,,,,,,,,,0,3,3,4,1,,,,,,,,,,,,,,,,,,,,,,,,,,,,,,,,,,,,,,,,,,,,,,
669374,001,2022-11-21_24h01.35.016,Info_measure_main_exp,2022.2.2,Win32,59.96282305,,,,,,,,,,,,,,,,,,masks/mask_001.jpg,,,,,,,,,,,,,,,,,,,,,,,,,,,,,,,,,,,,,,,,,,,0,4,4,0,1,,,,,,,,,,,,,,,,,,,,,,,,,,,,,,,,,,,,,,,,,,,,,,
669374,001,2022-11-21_24h01.35.016,Info_measure_main_exp,2022.2.2,Win32,59.96282305,,,,,,,,,,,,,,,,,,masks/mask_003.jpg,,,,,,,,,,,,,,,,,,,,,,,,,,,,,,,,,,,,,,,,,,,,,,,,0,0,0,2,1,,,,,,,,,,,,,,,,,,,,,,,,,,,,,,,,,,,,,,,,,
669374,001,2022-11-21_24h01.35.016,Info_measure_main_exp,2022.2.2,Win32,59.96282305,,,,,,,,,,,,,,,,,,masks/mask_005.jpg,,,,,,,,,,,,,,,,,,,,,,,,,,,,,,,,,,,,,,,,,,,,,,,,0,1,1,4,1,,,,,,,,,,,,,,,,,,,,,,,,,,,,,,,,,,,,,,,,,
669374,001,2022-11-21_24h01.35.016,Info_measure_main_exp,2022.2.2,Win32,59.96282305,,,,,,,,,,,,,,,,,,masks/mask_001.jpg,,,,,,,,,,,,,,,,,,,,,,,,,,,,,,,,,,,,,,,,,,,,,,,,0,2,2,0,1,,,,,,,,,,,,,,,,,,,,,,,,,,,,,,,,,,,,,,,,,
669374,001,2022-11-21_24h01.35.016,Info_measure_main_exp,2022.2.2,Win32,59.96282305,,,,,,,,,,,,,,,,,,masks/mask_002.jpg,,,,,,,,,,,,,,,,,,,,,,,,,,,,,,,,,,,,,,,,,,,,,,,,0,3,3,1,1,,,,,,,,,,,,,,,,,,,,,,,,,,,,,,,,,,,,,,,,,
669374,001,2022-11-21_24h01.35.016,Info_measure_main_exp,2022.2.2,Win32,59.96282305,,,,,,,,,,,,,,,,,,masks/mask_004.jpg,,,,,,,,,,,,,,,,,,,,,,,,,,,,,,,,,,,,,,,,,,,,,,,,0,4,4,3,1,,,,,,,,,,,,,,,,,,,,,,,,,,,,,,,,,,,,,,,,,
669374,001,2022-11-21_24h01.35.016,Info_measure_main_exp,2022.2.2,Win32,59.96282305,,,,,,,,,,,,,,,,,,,,,,,,,,,,,,3,1.302,1,,,,,,,,,,,,0,131,5,5,2214,2142,absent_patch/patch0002214.jpg,absent_patch/patch0002142.jpg,,,,,,,,,,,,,,,,,,,,-0.04519772,-0.088899987,1,0,0,response5disk,7,-0.007311379,-0.005151233,1,0,0,center_square,0,6,6,102,1,,,,,,,,,,,,,,,,,,,,,,,
669374,001,2022-11-21_24h01.35.016,Info_measure_main_exp,2022.2.2,Win32,59.96282305,,,,,,,,,,,,,,,,,,masks/mask_005.jpg,,,,,,,,,,,,,,,,,,,,,,,,,,,,,,,,,,,,,,,,,,,0,0,0,4,1,,,,,,,,,,,,,,,,,,,,,,,,,,,,,,,,,,,,,,,,,,,,,,
669374,001,2022-11-21_24h01.35.016,Info_measure_main_exp,2022.2.2,Win32,59.96282305,,,,,,,,,,,,,,,,,,masks/mask_002.jpg,,,,,,,,,,,,,,,,,,,,,,,,,,,,,,,,,,,,,,,,,,,0,1,1,1,1,,,,,,,,,,,,,,,,,,,,,,,,,,,,,,,,,,,,,,,,,,,,,,
669374,001,2022-11-21_24h01.35.016,Info_measure_main_exp,2022.2.2,Win32,59.96282305,,,,,,,,,,,,,,,,,,masks/mask_004.jpg,,,,,,,,,,,,,,,,,,,,,,,,,,,,,,,,,,,,,,,,,,,0,2,2,3,1,,,,,,,,,,,,,,,,,,,,,,,,,,,,,,,,,,,,,,,,,,,,,,
669374,001,2022-11-21_24h01.35.016,Info_measure_main_exp,2022.2.2,Win32,59.96282305,,,,,,,,,,,,,,,,,,masks/mask_001.jpg,,,,,,,,,,,,,,,,,,,,,,,,,,,,,,,,,,,,,,,,,,,0,3,3,0,1,,,,,,,,,,,,,,,,,,,,,,,,,,,,,,,,,,,,,,,,,,,,,,
669374,001,2022-11-21_24h01.35.016,Info_measure_main_exp,2022.2.2,Win32,59.96282305,,,,,,,,,,,,,,,,,,masks/mask_003.jpg,,,,,,,,,,,,,,,,,,,,,,,,,,,,,,,,,,,,,,,,,,,0,4,4,2,1,,,,,,,,,,,,,,,,,,,,,,,,,,,,,,,,,,,,,,,,,,,,,,
669374,001,2022-11-21_24h01.35.016,Info_measure_main_exp,2022.2.2,Win32,59.96282305,,,,,,,,,,,,,,,,,,masks/mask_005.jpg,,,,,,,,,,,,,,,,,,,,,,,,,,,,,,,,,,,,,,,,,,,,,,,,0,0,0,4,1,,,,,,,,,,,,,,,,,,,,,,,,,,,,,,,,,,,,,,,,,
669374,001,2022-11-21_24h01.35.016,Info_measure_main_exp,2022.2.2,Win32,59.96282305,,,,,,,,,,,,,,,,,,masks/mask_002.jpg,,,,,,,,,,,,,,,,,,,,,,,,,,,,,,,,,,,,,,,,,,,,,,,,0,1,1,1,1,,,,,,,,,,,,,,,,,,,,,,,,,,,,,,,,,,,,,,,,,
669374,001,2022-11-21_24h01.35.016,Info_measure_main_exp,2022.2.2,Win32,59.96282305,,,,,,,,,,,,,,,,,,masks/mask_003.jpg,,,,,,,,,,,,,,,,,,,,,,,,,,,,,,,,,,,,,,,,,,,,,,,,0,2,2,2,1,,,,,,,,,,,,,,,,,,,,,,,,,,,,,,,,,,,,,,,,,
669374,001,2022-11-21_24h01.35.016,Info_measure_main_exp,2022.2.2,Win32,59.96282305,,,,,,,,,,,,,,,,,,masks/mask_001.jpg,,,,,,,,,,,,,,,,,,,,,,,,,,,,,,,,,,,,,,,,,,,,,,,,0,3,3,0,1,,,,,,,,,,,,,,,,,,,,,,,,,,,,,,,,,,,,,,,,,
669374,001,2022-11-21_24h01.35.016,Info_measure_main_exp,2022.2.2,Win32,59.96282305,,,,,,,,,,,,,,,,,,masks/mask_004.jpg,,,,,,,,,,,,,,,,,,,,,,,,,,,,,,,,,,,,,,,,,,,,,,,,0,4,4,3,1,,,,,,,,,,,,,,,,,,,,,,,,,,,,,,,,,,,,,,,,,
669374,001,2022-11-21_24h01.35.016,Info_measure_main_exp,2022.2.2,Win32,59.96282305,,,,,,,,,,,,,,,,,,,,,,,,,,,,,,0,0.8504,1,,,,,,,,,,,,0,131,5,5,1986,1986,absent_patch/patch0001986.jpg,absent_patch/patch0001986.jpg,,,,,,,,,,,,,,,,,,,,-0.009305397,0.081920894,1,0,0,response7disk,8,-0.003323343,0.011465603,1,0,0,center_square,0,7,7,19,1,,,,,,,,,,,,,,,,,,,,,,,
669374,001,2022-11-21_24h01.35.016,Info_measure_main_exp,2022.2.2,Win32,59.96282305,,,,,,,,,,,,,,,,,,masks/mask_005.jpg,,,,,,,,,,,,,,,,,,,,,,,,,,,,,,,,,,,,,,,,,,,0,0,0,4,1,,,,,,,,,,,,,,,,,,,,,,,,,,,,,,,,,,,,,,,,,,,,,,
669374,001,2022-11-21_24h01.35.016,Info_measure_main_exp,2022.2.2,Win32,59.96282305,,,,,,,,,,,,,,,,,,masks/mask_001.jpg,,,,,,,,,,,,,,,,,,,,,,,,,,,,,,,,,,,,,,,,,,,0,1,1,0,1,,,,,,,,,,,,,,,,,,,,,,,,,,,,,,,,,,,,,,,,,,,,,,
669374,001,2022-11-21_24h01.35.016,Info_measure_main_exp,2022.2.2,Win32,59.96282305,,,,,,,,,,,,,,,,,,masks/mask_003.jpg,,,,,,,,,,,,,,,,,,,,,,,,,,,,,,,,,,,,,,,,,,,0,2,2,2,1,,,,,,,,,,,,,,,,,,,,,,,,,,,,,,,,,,,,,,,,,,,,,,
669374,001,2022-11-21_24h01.35.016,Info_measure_main_exp,2022.2.2,Win32,59.96282305,,,,,,,,,,,,,,,,,,masks/mask_002.jpg,,,,,,,,,,,,,,,,,,,,,,,,,,,,,,,,,,,,,,,,,,,0,3,3,1,1,,,,,,,,,,,,,,,,,,,,,,,,,,,,,,,,,,,,,,,,,,,,,,
669374,001,2022-11-21_24h01.35.016,Info_measure_main_exp,2022.2.2,Win32,59.96282305,,,,,,,,,,,,,,,,,,masks/mask_004.jpg,,,,,,,,,,,,,,,,,,,,,,,,,,,,,,,,,,,,,,,,,,,0,4,4,3,1,,,,,,,,,,,,,,,,,,,,,,,,,,,,,,,,,,,,,,,,,,,,,,
669374,001,2022-11-21_24h01.35.016,Info_measure_main_exp,2022.2.2,Win32,59.96282305,,,,,,,,,,,,,,,,,,masks/mask_002.jpg,,,,,,,,,,,,,,,,,,,,,,,,,,,,,,,,,,,,,,,,,,,,,,,,0,0,0,1,1,,,,,,,,,,,,,,,,,,,,,,,,,,,,,,,,,,,,,,,,,
669374,001,2022-11-21_24h01.35.016,Info_measure_main_exp,2022.2.2,Win32,59.96282305,,,,,,,,,,,,,,,,,,masks/mask_004.jpg,,,,,,,,,,,,,,,,,,,,,,,,,,,,,,,,,,,,,,,,,,,,,,,,0,1,1,3,1,,,,,,,,,,,,,,,,,,,,,,,,,,,,,,,,,,,,,,,,,
669374,001,2022-11-21_24h01.35.016,Info_measure_main_exp,2022.2.2,Win32,59.96282305,,,,,,,,,,,,,,,,,,masks/mask_001.jpg,,,,,,,,,,,,,,,,,,,,,,,,,,,,,,,,,,,,,,,,,,,,,,,,0,2,2,0,1,,,,,,,,,,,,,,,,,,,,,,,,,,,,,,,,,,,,,,,,,
669374,001,2022-11-21_24h01.35.016,Info_measure_main_exp,2022.2.2,Win32,59.96282305,,,,,,,,,,,,,,,,,,masks/mask_005.jpg,,,,,,,,,,,,,,,,,,,,,,,,,,,,,,,,,,,,,,,,,,,,,,,,0,3,3,4,1,,,,,,,,,,,,,,,,,,,,,,,,,,,,,,,,,,,,,,,,,
669374,001,2022-11-21_24h01.35.016,Info_measure_main_exp,2022.2.2,Win32,59.96282305,,,,,,,,,,,,,,,,,,masks/mask_003.jpg,,,,,,,,,,,,,,,,,,,,,,,,,,,,,,,,,,,,,,,,,,,,,,,,0,4,4,2,1,,,,,,,,,,,,,,,,,,,,,,,,,,,,,,,,,,,,,,,,,
669374,001,2022-11-21_24h01.35.016,Info_measure_main_exp,2022.2.2,Win32,59.96282305,,,,,,,,,,,,,,,,,,,,,,,,,,,,,,3,1.7669,1,,,,,,,,,,,,0,131,5,5,2190,2178,absent_patch/patch0002190.jpg,absent_patch/patch0002178.jpg,,,,,,,,,,,,,,,,,,,,-0.037886341,-0.100199402,1,0,0,response5disk,9,0.003323404,0.009471585,1,0,0,center_square,0,8,8,14,1,,,,,,,,,,,,,,,,,,,,,,,
669374,001,2022-11-21_24h01.35.016,Info_measure_main_exp,2022.2.2,Win32,59.96282305,,,,,,,,,,,,,,,,,,masks/mask_002.jpg,,,,,,,,,,,,,,,,,,,,,,,,,,,,,,,,,,,,,,,,,,,0,0,0,1,1,,,,,,,,,,,,,,,,,,,,,,,,,,,,,,,,,,,,,,,,,,,,,,
669374,001,2022-11-21_24h01.35.016,Info_measure_main_exp,2022.2.2,Win32,59.96282305,,,,,,,,,,,,,,,,,,masks/mask_003.jpg,,,,,,,,,,,,,,,,,,,,,,,,,,,,,,,,,,,,,,,,,,,0,1,1,2,1,,,,,,,,,,,,,,,,,,,,,,,,,,,,,,,,,,,,,,,,,,,,,,
669374,001,2022-11-21_24h01.35.016,Info_measure_main_exp,2022.2.2,Win32,59.96282305,,,,,,,,,,,,,,,,,,masks/mask_004.jpg,,,,,,,,,,,,,,,,,,,,,,,,,,,,,,,,,,,,,,,,,,,0,2,2,3,1,,,,,,,,,,,,,,,,,,,,,,,,,,,,,,,,,,,,,,,,,,,,,,
669374,001,2022-11-21_24h01.35.016,Info_measure_main_exp,2022.2.2,Win32,59.96282305,,,,,,,,,,,,,,,,,,masks/mask_001.jpg,,,,,,,,,,,,,,,,,,,,,,,,,,,,,,,,,,,,,,,,,,,0,3,3,0,1,,,,,,,,,,,,,,,,,,,,,,,,,,,,,,,,,,,,,,,,,,,,,,
669374,001,2022-11-21_24h01.35.016,Info_measure_main_exp,2022.2.2,Win32,59.96282305,,,,,,,,,,,,,,,,,,masks/mask_005.jpg,,,,,,,,,,,,,,,,,,,,,,,,,,,,,,,,,,,,,,,,,,,0,4,4,4,1,,,,,,,,,,,,,,,,,,,,,,,,,,,,,,,,,,,,,,,,,,,,,,
669374,001,2022-11-21_24h01.35.016,Info_measure_main_exp,2022.2.2,Win32,59.96282305,,,,,,,,,,,,,,,,,,masks/mask_005.jpg,,,,,,,,,,,,,,,,,,,,,,,,,,,,,,,,,,,,,,,,,,,,,,,,0,0,0,4,1,,,,,,,,,,,,,,,,,,,,,,,,,,,,,,,,,,,,,,,,,
669374,001,2022-11-21_24h01.35.016,Info_measure_main_exp,2022.2.2,Win32,59.96282305,,,,,,,,,,,,,,,,,,masks/mask_003.jpg,,,,,,,,,,,,,,,,,,,,,,,,,,,,,,,,,,,,,,,,,,,,,,,,0,1,1,2,1,,,,,,,,,,,,,,,,,,,,,,,,,,,,,,,,,,,,,,,,,
669374,001,2022-11-21_24h01.35.016,Info_measure_main_exp,2022.2.2,Win32,59.96282305,,,,,,,,,,,,,,,,,,masks/mask_001.jpg,,,,,,,,,,,,,,,,,,,,,,,,,,,,,,,,,,,,,,,,,,,,,,,,0,2,2,0,1,,,,,,,,,,,,,,,,,,,,,,,,,,,,,,,,,,,,,,,,,
669374,001,2022-11-21_24h01.35.016,Info_measure_main_exp,2022.2.2,Win32,59.96282305,,,,,,,,,,,,,,,,,,masks/mask_002.jpg,,,,,,,,,,,,,,,,,,,,,,,,,,,,,,,,,,,,,,,,,,,,,,,,0,3,3,1,1,,,,,,,,,,,,,,,,,,,,,,,,,,,,,,,,,,,,,,,,,
669374,001,2022-11-21_24h01.35.016,Info_measure_main_exp,2022.2.2,Win32,59.96282305,,,,,,,,,,,,,,,,,,masks/mask_004.jpg,,,,,,,,,,,,,,,,,,,,,,,,,,,,,,,,,,,,,,,,,,,,,,,,0,4,4,3,1,,,,,,,,,,,,,,,,,,,,,,,,,,,,,,,,,,,,,,,,,
669374,001,2022-11-21_24h01.35.016,Info_measure_main_exp,2022.2.2,Win32,59.96282305,,,,,,,,,,,,,,,,,,,,,,,,,,,,,,7,1.1337,1,,,,,,,,,,,,0,131,5,5,2178,2166,absent_patch/patch0002178.jpg,absent_patch/patch0002166.jpg,,,,,,,,,,,,,,,,,,,,0.068461303,0.14107677,1,0,0,response1disk,10,0.001329386,0.000166158,1,0,0,center_square,0,9,9,72,1,,,,,,,,,,,,,,,,,,,,,,,
669374,001,2022-11-21_24h01.35.016,Info_measure_main_exp,2022.2.2,Win32,59.96282305,,,,,,,,,,,,,,,,,,masks/mask_005.jpg,,,,,,,,,,,,,,,,,,,,,,,,,,,,,,,,,,,,,,,,,,,0,0,0,4,1,,,,,,,,,,,,,,,,,,,,,,,,,,,,,,,,,,,,,,,,,,,,,,
669374,001,2022-11-21_24h01.35.016,Info_measure_main_exp,2022.2.2,Win32,59.96282305,,,,,,,,,,,,,,,,,,masks/mask_004.jpg,,,,,,,,,,,,,,,,,,,,,,,,,,,,,,,,,,,,,,,,,,,0,1,1,3,1,,,,,,,,,,,,,,,,,,,,,,,,,,,,,,,,,,,,,,,,,,,,,,
669374,001,2022-11-21_24h01.35.016,Info_measure_main_exp,2022.2.2,Win32,59.96282305,,,,,,,,,,,,,,,,,,masks/mask_003.jpg,,,,,,,,,,,,,,,,,,,,,,,,,,,,,,,,,,,,,,,,,,,0,2,2,2,1,,,,,,,,,,,,,,,,,,,,,,,,,,,,,,,,,,,,,,,,,,,,,,
669374,001,2022-11-21_24h01.35.016,Info_measure_main_exp,2022.2.2,Win32,59.96282305,,,,,,,,,,,,,,,,,,masks/mask_001.jpg,,,,,,,,,,,,,,,,,,,,,,,,,,,,,,,,,,,,,,,,,,,0,3,3,0,1,,,,,,,,,,,,,,,,,,,,,,,,,,,,,,,,,,,,,,,,,,,,,,
669374,001,2022-11-21_24h01.35.016,Info_measure_main_exp,2022.2.2,Win32,59.96282305,,,,,,,,,,,,,,,,,,masks/mask_002.jpg,,,,,,,,,,,,,,,,,,,,,,,,,,,,,,,,,,,,,,,,,,,0,4,4,1,1,,,,,,,,,,,,,,,,,,,,,,,,,,,,,,,,,,,,,,,,,,,,,,
669374,001,2022-11-21_24h01.35.016,Info_measure_main_exp,2022.2.2,Win32,59.96282305,,,,,,,,,,,,,,,,,,masks/mask_001.jpg,,,,,,,,,,,,,,,,,,,,,,,,,,,,,,,,,,,,,,,,,,,,,,,,0,0,0,0,1,,,,,,,,,,,,,,,,,,,,,,,,,,,,,,,,,,,,,,,,,
669374,001,2022-11-21_24h01.35.016,Info_measure_main_exp,2022.2.2,Win32,59.96282305,,,,,,,,,,,,,,,,,,masks/mask_003.jpg,,,,,,,,,,,,,,,,,,,,,,,,,,,,,,,,,,,,,,,,,,,,,,,,0,1,1,2,1,,,,,,,,,,,,,,,,,,,,,,,,,,,,,,,,,,,,,,,,,
669374,001,2022-11-21_24h01.35.016,Info_measure_main_exp,2022.2.2,Win32,59.96282305,,,,,,,,,,,,,,,,,,masks/mask_005.jpg,,,,,,,,,,,,,,,,,,,,,,,,,,,,,,,,,,,,,,,,,,,,,,,,0,2,2,4,1,,,,,,,,,,,,,,,,,,,,,,,,,,,,,,,,,,,,,,,,,
669374,001,2022-11-21_24h01.35.016,Info_measure_main_exp,2022.2.2,Win32,59.96282305,,,,,,,,,,,,,,,,,,masks/mask_002.jpg,,,,,,,,,,,,,,,,,,,,,,,,,,,,,,,,,,,,,,,,,,,,,,,,0,3,3,1,1,,,,,,,,,,,,,,,,,,,,,,,,,,,,,,,,,,,,,,,,,
669374,001,2022-11-21_24h01.35.016,Info_measure_main_exp,2022.2.2,Win32,59.96282305,,,,,,,,,,,,,,,,,,masks/mask_004.jpg,,,,,,,,,,,,,,,,,,,,,,,,,,,,,,,,,,,,,,,,,,,,,,,,0,4,4,3,1,,,,,,,,,,,,,,,,,,,,,,,,,,,,,,,,,,,,,,,,,
669374,001,2022-11-21_24h01.35.016,Info_measure_main_exp,2022.2.2,Win32,59.96282305,,,,,,,,,,,,,,,,,,,,,,,,,,,,,,0,0.8689,1,,,,,,,,,,,,0,131,5,5,2250,2250,absent_patch/patch0002250.jpg,absent_patch/patch0002250.jpg,,,,,,,,,,,,,,,,,,,,-0.028580883,0.099867055,1,0,0,response7disk,11,0.002658711,0.012130266,1,0,0,center_square,0,10,10,56,1,,,,,,,,,,,,,,,,,,,,,,,
669374,001,2022-11-21_24h01.35.016,Info_measure_main_exp,2022.2.2,Win32,59.96282305,,,,,,,,,,,,,,,,,,masks/mask_005.jpg,,,,,,,,,,,,,,,,,,,,,,,,,,,,,,,,,,,,,,,,,,,0,0,0,4,1,,,,,,,,,,,,,,,,,,,,,,,,,,,,,,,,,,,,,,,,,,,,,,
669374,001,2022-11-21_24h01.35.016,Info_measure_main_exp,2022.2.2,Win32,59.96282305,,,,,,,,,,,,,,,,,,masks/mask_001.jpg,,,,,,,,,,,,,,,,,,,,,,,,,,,,,,,,,,,,,,,,,,,0,1,1,0,1,,,,,,,,,,,,,,,,,,,,,,,,,,,,,,,,,,,,,,,,,,,,,,
669374,001,2022-11-21_24h01.35.016,Info_measure_main_exp,2022.2.2,Win32,59.96282305,,,,,,,,,,,,,,,,,,masks/mask_003.jpg,,,,,,,,,,,,,,,,,,,,,,,,,,,,,,,,,,,,,,,,,,,0,2,2,2,1,,,,,,,,,,,,,,,,,,,,,,,,,,,,,,,,,,,,,,,,,,,,,,
669374,001,2022-11-21_24h01.35.016,Info_measure_main_exp,2022.2.2,Win32,59.96282305,,,,,,,,,,,,,,,,,,masks/mask_002.jpg,,,,,,,,,,,,,,,,,,,,,,,,,,,,,,,,,,,,,,,,,,,0,3,3,1,1,,,,,,,,,,,,,,,,,,,,,,,,,,,,,,,,,,,,,,,,,,,,,,
669374,001,2022-11-21_24h01.35.016,Info_measure_main_exp,2022.2.2,Win32,59.96282305,,,,,,,,,,,,,,,,,,masks/mask_004.jpg,,,,,,,,,,,,,,,,,,,,,,,,,,,,,,,,,,,,,,,,,,,0,4,4,3,1,,,,,,,,,,,,,,,,,,,,,,,,,,,,,,,,,,,,,,,,,,,,,,
669374,001,2022-11-21_24h01.35.016,Info_measure_main_exp,2022.2.2,Win32,59.96282305,,,,,,,,,,,,,,,,,,masks/mask_004.jpg,,,,,,,,,,,,,,,,,,,,,,,,,,,,,,,,,,,,,,,,,,,,,,,,0,0,0,3,1,,,,,,,,,,,,,,,,,,,,,,,,,,,,,,,,,,,,,,,,,
669374,001,2022-11-21_24h01.35.016,Info_measure_main_exp,2022.2.2,Win32,59.96282305,,,,,,,,,,,,,,,,,,masks/mask_001.jpg,,,,,,,,,,,,,,,,,,,,,,,,,,,,,,,,,,,,,,,,,,,,,,,,0,1,1,0,1,,,,,,,,,,,,,,,,,,,,,,,,,,,,,,,,,,,,,,,,,
669374,001,2022-11-21_24h01.35.016,Info_measure_main_exp,2022.2.2,Win32,59.96282305,,,,,,,,,,,,,,,,,,masks/mask_005.jpg,,,,,,,,,,,,,,,,,,,,,,,,,,,,,,,,,,,,,,,,,,,,,,,,0,2,2,4,1,,,,,,,,,,,,,,,,,,,,,,,,,,,,,,,,,,,,,,,,,
669374,001,2022-11-21_24h01.35.016,Info_measure_main_exp,2022.2.2,Win32,59.96282305,,,,,,,,,,,,,,,,,,masks/mask_003.jpg,,,,,,,,,,,,,,,,,,,,,,,,,,,,,,,,,,,,,,,,,,,,,,,,0,3,3,2,1,,,,,,,,,,,,,,,,,,,,,,,,,,,,,,,,,,,,,,,,,
669374,001,2022-11-21_24h01.35.016,Info_measure_main_exp,2022.2.2,Win32,59.96282305,,,,,,,,,,,,,,,,,,masks/mask_002.jpg,,,,,,,,,,,,,,,,,,,,,,,,,,,,,,,,,,,,,,,,,,,,,,,,0,4,4,1,1,,,,,,,,,,,,,,,,,,,,,,,,,,,,,,,,,,,,,,,,,
669374,001,2022-11-21_24h01.35.016,Info_measure_main_exp,2022.2.2,Win32,59.96282305,,,,,,,,,,,,,,,,,,,,,,,,,,,,,,7,1.982,1,,,,,,,,,,,,0,131,5,5,2274,2082,absent_patch/patch0002274.jpg,absent_patch/patch0002082.jpg,,,,,,,,,,,,,,,,,,,,0.064473267,0.105184447,1,0,0,response1disk,12,0.000664693,0.007477567,1,0,0,center_square,0,11,11,100,1,,,,,,,,,,,,,,,,,,,,,,,
669374,001,2022-11-21_24h01.35.016,Info_measure_main_exp,2022.2.2,Win32,59.96282305,,,,,,,,,,,,,,,,,,masks/mask_005.jpg,,,,,,,,,,,,,,,,,,,,,,,,,,,,,,,,,,,,,,,,,,,0,0,0,4,1,,,,,,,,,,,,,,,,,,,,,,,,,,,,,,,,,,,,,,,,,,,,,,
669374,001,2022-11-21_24h01.35.016,Info_measure_main_exp,2022.2.2,Win32,59.96282305,,,,,,,,,,,,,,,,,,masks/mask_003.jpg,,,,,,,,,,,,,,,,,,,,,,,,,,,,,,,,,,,,,,,,,,,0,1,1,2,1,,,,,,,,,,,,,,,,,,,,,,,,,,,,,,,,,,,,,,,,,,,,,,
669374,001,2022-11-21_24h01.35.016,Info_measure_main_exp,2022.2.2,Win32,59.96282305,,,,,,,,,,,,,,,,,,masks/mask_001.jpg,,,,,,,,,,,,,,,,,,,,,,,,,,,,,,,,,,,,,,,,,,,0,2,2,0,1,,,,,,,,,,,,,,,,,,,,,,,,,,,,,,,,,,,,,,,,,,,,,,
669374,001,2022-11-21_24h01.35.016,Info_measure_main_exp,2022.2.2,Win32,59.96282305,,,,,,,,,,,,,,,,,,masks/mask_002.jpg,,,,,,,,,,,,,,,,,,,,,,,,,,,,,,,,,,,,,,,,,,,0,3,3,1,1,,,,,,,,,,,,,,,,,,,,,,,,,,,,,,,,,,,,,,,,,,,,,,
669374,001,2022-11-21_24h01.35.016,Info_measure_main_exp,2022.2.2,Win32,59.96282305,,,,,,,,,,,,,,,,,,masks/mask_004.jpg,,,,,,,,,,,,,,,,,,,,,,,,,,,,,,,,,,,,,,,,,,,0,4,4,3,1,,,,,,,,,,,,,,,,,,,,,,,,,,,,,,,,,,,,,,,,,,,,,,
669374,001,2022-11-21_24h01.35.016,Info_measure_main_exp,2022.2.2,Win32,59.96282305,,,,,,,,,,,,,,,,,,masks/mask_001.jpg,,,,,,,,,,,,,,,,,,,,,,,,,,,,,,,,,,,,,,,,,,,,,,,,0,0,0,0,1,,,,,,,,,,,,,,,,,,,,,,,,,,,,,,,,,,,,,,,,,
669374,001,2022-11-21_24h01.35.016,Info_measure_main_exp,2022.2.2,Win32,59.96282305,,,,,,,,,,,,,,,,,,masks/mask_002.jpg,,,,,,,,,,,,,,,,,,,,,,,,,,,,,,,,,,,,,,,,,,,,,,,,0,1,1,1,1,,,,,,,,,,,,,,,,,,,,,,,,,,,,,,,,,,,,,,,,,
669374,001,2022-11-21_24h01.35.016,Info_measure_main_exp,2022.2.2,Win32,59.96282305,,,,,,,,,,,,,,,,,,masks/mask_003.jpg,,,,,,,,,,,,,,,,,,,,,,,,,,,,,,,,,,,,,,,,,,,,,,,,0,2,2,2,1,,,,,,,,,,,,,,,,,,,,,,,,,,,,,,,,,,,,,,,,,
669374,001,2022-11-21_24h01.35.016,Info_measure_main_exp,2022.2.2,Win32,59.96282305,,,,,,,,,,,,,,,,,,masks/mask_005.jpg,,,,,,,,,,,,,,,,,,,,,,,,,,,,,,,,,,,,,,,,,,,,,,,,0,3,3,4,1,,,,,,,,,,,,,,,,,,,,,,,,,,,,,,,,,,,,,,,,,
669374,001,2022-11-21_24h01.35.016,Info_measure_main_exp,2022.2.2,Win32,59.96282305,,,,,,,,,,,,,,,,,,masks/mask_004.jpg,,,,,,,,,,,,,,,,,,,,,,,,,,,,,,,,,,,,,,,,,,,,,,,,0,4,4,3,1,,,,,,,,,,,,,,,,,,,,,,,,,,,,,,,,,,,,,,,,,
669374,001,2022-11-21_24h01.35.016,Info_measure_main_exp,2022.2.2,Win32,59.96282305,,,,,,,,,,,,,,,,,,,,,,,,,,,,,,0,0.7506,1,,,,,,,,,,,,0,131,5,5,2238,2238,absent_patch/patch0002238.jpg,absent_patch/patch0002238.jpg,,,,,,,,,,,,,,,,,,,,-0.052509099,0.083250249,1,0,0,response7disk,13,-0.005317361,0.004818856,1,0,0,center_square,0,12,12,58,1,,,,,,,,,,,,,,,,,,,,,,,
669374,001,2022-11-21_24h01.35.016,Info_measure_main_exp,2022.2.2,Win32,59.96282305,,,,,,,,,,,,,,,,,,masks/mask_003.jpg,,,,,,,,,,,,,,,,,,,,,,,,,,,,,,,,,,,,,,,,,,,0,0,0,2,1,,,,,,,,,,,,,,,,,,,,,,,,,,,,,,,,,,,,,,,,,,,,,,
669374,001,2022-11-21_24h01.35.016,Info_measure_main_exp,2022.2.2,Win32,59.96282305,,,,,,,,,,,,,,,,,,masks/mask_001.jpg,,,,,,,,,,,,,,,,,,,,,,,,,,,,,,,,,,,,,,,,,,,0,1,1,0,1,,,,,,,,,,,,,,,,,,,,,,,,,,,,,,,,,,,,,,,,,,,,,,
669374,001,2022-11-21_24h01.35.016,Info_measure_main_exp,2022.2.2,Win32,59.96282305,,,,,,,,,,,,,,,,,,masks/mask_005.jpg,,,,,,,,,,,,,,,,,,,,,,,,,,,,,,,,,,,,,,,,,,,0,2,2,4,1,,,,,,,,,,,,,,,,,,,,,,,,,,,,,,,,,,,,,,,,,,,,,,
669374,001,2022-11-21_24h01.35.016,Info_measure_main_exp,2022.2.2,Win32,59.96282305,,,,,,,,,,,,,,,,,,masks/mask_002.jpg,,,,,,,,,,,,,,,,,,,,,,,,,,,,,,,,,,,,,,,,,,,0,3,3,1,1,,,,,,,,,,,,,,,,,,,,,,,,,,,,,,,,,,,,,,,,,,,,,,
669374,001,2022-11-21_24h01.35.016,Info_measure_main_exp,2022.2.2,Win32,59.96282305,,,,,,,,,,,,,,,,,,masks/mask_004.jpg,,,,,,,,,,,,,,,,,,,,,,,,,,,,,,,,,,,,,,,,,,,0,4,4,3,1,,,,,,,,,,,,,,,,,,,,,,,,,,,,,,,,,,,,,,,,,,,,,,
669374,001,2022-11-21_24h01.35.016,Info_measure_main_exp,2022.2.2,Win32,59.96282305,,,,,,,,,,,,,,,,,,masks/mask_001.jpg,,,,,,,,,,,,,,,,,,,,,,,,,,,,,,,,,,,,,,,,,,,,,,,,0,0,0,0,1,,,,,,,,,,,,,,,,,,,,,,,,,,,,,,,,,,,,,,,,,
669374,001,2022-11-21_24h01.35.016,Info_measure_main_exp,2022.2.2,Win32,59.96282305,,,,,,,,,,,,,,,,,,masks/mask_002.jpg,,,,,,,,,,,,,,,,,,,,,,,,,,,,,,,,,,,,,,,,,,,,,,,,0,1,1,1,1,,,,,,,,,,,,,,,,,,,,,,,,,,,,,,,,,,,,,,,,,
669374,001,2022-11-21_24h01.35.016,Info_measure_main_exp,2022.2.2,Win32,59.96282305,,,,,,,,,,,,,,,,,,masks/mask_004.jpg,,,,,,,,,,,,,,,,,,,,,,,,,,,,,,,,,,,,,,,,,,,,,,,,0,2,2,3,1,,,,,,,,,,,,,,,,,,,,,,,,,,,,,,,,,,,,,,,,,
669374,001,2022-11-21_24h01.35.016,Info_measure_main_exp,2022.2.2,Win32,59.96282305,,,,,,,,,,,,,,,,,,masks/mask_003.jpg,,,,,,,,,,,,,,,,,,,,,,,,,,,,,,,,,,,,,,,,,,,,,,,,0,3,3,2,1,,,,,,,,,,,,,,,,,,,,,,,,,,,,,,,,,,,,,,,,,
669374,001,2022-11-21_24h01.35.016,Info_measure_main_exp,2022.2.2,Win32,59.96282305,,,,,,,,,,,,,,,,,,masks/mask_005.jpg,,,,,,,,,,,,,,,,,,,,,,,,,,,,,,,,,,,,,,,,,,,,,,,,0,4,4,4,1,,,,,,,,,,,,,,,,,,,,,,,,,,,,,,,,,,,,,,,,,
669374,001,2022-11-21_24h01.35.016,Info_measure_main_exp,2022.2.2,Win32,59.96282305,,,,,,,,,,,,,,,,,,,,,,,,,,,,,,6,1.4338,1,,,,,,,,,,,,0,131,5,5,2190,1950,absent_patch/patch0002190.jpg,absent_patch/patch0001950.jpg,,,,,,,,,,,,,,,,,,,,0.071120014,0.046693233,1,0,0,response1disk,14,0,-0.005151233,1,0,0,center_square,0,13,13,73,1,,,,,,,,,,,,,,,,,,,,,,,
669374,001,2022-11-21_24h01.35.016,Info_measure_main_exp,2022.2.2,Win32,59.96282305,,,,,,,,,,,,,,,,,,masks/mask_004.jpg,,,,,,,,,,,,,,,,,,,,,,,,,,,,,,,,,,,,,,,,,,,0,0,0,3,1,,,,,,,,,,,,,,,,,,,,,,,,,,,,,,,,,,,,,,,,,,,,,,
669374,001,2022-11-21_24h01.35.016,Info_measure_main_exp,2022.2.2,Win32,59.96282305,,,,,,,,,,,,,,,,,,masks/mask_003.jpg,,,,,,,,,,,,,,,,,,,,,,,,,,,,,,,,,,,,,,,,,,,0,1,1,2,1,,,,,,,,,,,,,,,,,,,,,,,,,,,,,,,,,,,,,,,,,,,,,,
669374,001,2022-11-21_24h01.35.016,Info_measure_main_exp,2022.2.2,Win32,59.96282305,,,,,,,,,,,,,,,,,,masks/mask_005.jpg,,,,,,,,,,,,,,,,,,,,,,,,,,,,,,,,,,,,,,,,,,,0,2,2,4,1,,,,,,,,,,,,,,,,,,,,,,,,,,,,,,,,,,,,,,,,,,,,,,
669374,001,2022-11-21_24h01.35.016,Info_measure_main_exp,2022.2.2,Win32,59.96282305,,,,,,,,,,,,,,,,,,masks/mask_001.jpg,,,,,,,,,,,,,,,,,,,,,,,,,,,,,,,,,,,,,,,,,,,0,3,3,0,1,,,,,,,,,,,,,,,,,,,,,,,,,,,,,,,,,,,,,,,,,,,,,,
669374,001,2022-11-21_24h01.35.016,Info_measure_main_exp,2022.2.2,Win32,59.96282305,,,,,,,,,,,,,,,,,,masks/mask_002.jpg,,,,,,,,,,,,,,,,,,,,,,,,,,,,,,,,,,,,,,,,,,,0,4,4,1,1,,,,,,,,,,,,,,,,,,,,,,,,,,,,,,,,,,,,,,,,,,,,,,
669374,001,2022-11-21_24h01.35.016,Info_measure_main_exp,2022.2.2,Win32,59.96282305,,,,,,,,,,,,,,,,,,masks/mask_003.jpg,,,,,,,,,,,,,,,,,,,,,,,,,,,,,,,,,,,,,,,,,,,,,,,,0,0,0,2,1,,,,,,,,,,,,,,,,,,,,,,,,,,,,,,,,,,,,,,,,,
669374,001,2022-11-21_24h01.35.016,Info_measure_main_exp,2022.2.2,Win32,59.96282305,,,,,,,,,,,,,,,,,,masks/mask_005.jpg,,,,,,,,,,,,,,,,,,,,,,,,,,,,,,,,,,,,,,,,,,,,,,,,0,1,1,4,1,,,,,,,,,,,,,,,,,,,,,,,,,,,,,,,,,,,,,,,,,
669374,001,2022-11-21_24h01.35.016,Info_measure_main_exp,2022.2.2,Win32,59.96282305,,,,,,,,,,,,,,,,,,masks/mask_001.jpg,,,,,,,,,,,,,,,,,,,,,,,,,,,,,,,,,,,,,,,,,,,,,,,,0,2,2,0,1,,,,,,,,,,,,,,,,,,,,,,,,,,,,,,,,,,,,,,,,,
669374,001,2022-11-21_24h01.35.016,Info_measure_main_exp,2022.2.2,Win32,59.96282305,,,,,,,,,,,,,,,,,,masks/mask_002.jpg,,,,,,,,,,,,,,,,,,,,,,,,,,,,,,,,,,,,,,,,,,,,,,,,0,3,3,1,1,,,,,,,,,,,,,,,,,,,,,,,,,,,,,,,,,,,,,,,,,
669374,001,2022-11-21_24h01.35.016,Info_measure_main_exp,2022.2.2,Win32,59.96282305,,,,,,,,,,,,,,,,,,masks/mask_004.jpg,,,,,,,,,,,,,,,,,,,,,,,,,,,,,,,,,,,,,,,,,,,,,,,,0,4,4,3,1,,,,,,,,,,,,,,,,,,,,,,,,,,,,,,,,,,,,,,,,,
669374,001,2022-11-21_24h01.35.016,Info_measure_main_exp,2022.2.2,Win32,59.96282305,,,,,,,,,,,,,,,,,,,,,,,,,,,,,,6,1.1166,1,,,,,,,,,,,,0,131,5,5,2250,2178,absent_patch/patch0002250.jpg,absent_patch/patch0002178.jpg,,,,,,,,,,,,,,,,,,,,0.105018319,0.046693233,1,0,0,response1disk,15,-0.005317361,-0.013127305,1,0,0,center_square,0,14,14,48,1,,,,,,,,,,,,,,,,,,,,,,,
669374,001,2022-11-21_24h01.35.016,Info_measure_main_exp,2022.2.2,Win32,59.96282305,,,,,,,,,,,,,,,,,,masks/mask_002.jpg,,,,,,,,,,,,,,,,,,,,,,,,,,,,,,,,,,,,,,,,,,,0,0,0,1,1,,,,,,,,,,,,,,,,,,,,,,,,,,,,,,,,,,,,,,,,,,,,,,
669374,001,2022-11-21_24h01.35.016,Info_measure_main_exp,2022.2.2,Win32,59.96282305,,,,,,,,,,,,,,,,,,masks/mask_001.jpg,,,,,,,,,,,,,,,,,,,,,,,,,,,,,,,,,,,,,,,,,,,0,1,1,0,1,,,,,,,,,,,,,,,,,,,,,,,,,,,,,,,,,,,,,,,,,,,,,,
669374,001,2022-11-21_24h01.35.016,Info_measure_main_exp,2022.2.2,Win32,59.96282305,,,,,,,,,,,,,,,,,,masks/mask_003.jpg,,,,,,,,,,,,,,,,,,,,,,,,,,,,,,,,,,,,,,,,,,,0,2,2,2,1,,,,,,,,,,,,,,,,,,,,,,,,,,,,,,,,,,,,,,,,,,,,,,
669374,001,2022-11-21_24h01.35.016,Info_measure_main_exp,2022.2.2,Win32,59.96282305,,,,,,,,,,,,,,,,,,masks/mask_004.jpg,,,,,,,,,,,,,,,,,,,,,,,,,,,,,,,,,,,,,,,,,,,0,3,3,3,1,,,,,,,,,,,,,,,,,,,,,,,,,,,,,,,,,,,,,,,,,,,,,,
669374,001,2022-11-21_24h01.35.016,Info_measure_main_exp,2022.2.2,Win32,59.96282305,,,,,,,,,,,,,,,,,,masks/mask_005.jpg,,,,,,,,,,,,,,,,,,,,,,,,,,,,,,,,,,,,,,,,,,,0,4,4,4,1,,,,,,,,,,,,,,,,,,,,,,,,,,,,,,,,,,,,,,,,,,,,,,
669374,001,2022-11-21_24h01.35.016,Info_measure_main_exp,2022.2.2,Win32,59.96282305,,,,,,,,,,,,,,,,,,masks/mask_002.jpg,,,,,,,,,,,,,,,,,,,,,,,,,,,,,,,,,,,,,,,,,,,,,,,,0,0,0,1,1,,,,,,,,,,,,,,,,,,,,,,,,,,,,,,,,,,,,,,,,,
669374,001,2022-11-21_24h01.35.016,Info_measure_main_exp,2022.2.2,Win32,59.96282305,,,,,,,,,,,,,,,,,,masks/mask_003.jpg,,,,,,,,,,,,,,,,,,,,,,,,,,,,,,,,,,,,,,,,,,,,,,,,0,1,1,2,1,,,,,,,,,,,,,,,,,,,,,,,,,,,,,,,,,,,,,,,,,
669374,001,2022-11-21_24h01.35.016,Info_measure_main_exp,2022.2.2,Win32,59.96282305,,,,,,,,,,,,,,,,,,masks/mask_004.jpg,,,,,,,,,,,,,,,,,,,,,,,,,,,,,,,,,,,,,,,,,,,,,,,,0,2,2,3,1,,,,,,,,,,,,,,,,,,,,,,,,,,,,,,,,,,,,,,,,,
669374,001,2022-11-21_24h01.35.016,Info_measure_main_exp,2022.2.2,Win32,59.96282305,,,,,,,,,,,,,,,,,,masks/mask_001.jpg,,,,,,,,,,,,,,,,,,,,,,,,,,,,,,,,,,,,,,,,,,,,,,,,0,3,3,0,1,,,,,,,,,,,,,,,,,,,,,,,,,,,,,,,,,,,,,,,,,
669374,001,2022-11-21_24h01.35.016,Info_measure_main_exp,2022.2.2,Win32,59.96282305,,,,,,,,,,,,,,,,,,masks/mask_005.jpg,,,,,,,,,,,,,,,,,,,,,,,,,,,,,,,,,,,,,,,,,,,,,,,,0,4,4,4,1,,,,,,,,,,,,,,,,,,,,,,,,,,,,,,,,,,,,,,,,,
669374,001,2022-11-21_24h01.35.016,Info_measure_main_exp,2022.2.2,Win32,59.96282305,,,,,,,,,,,,,,,,,,,,,,,,,,,,,,6,1.5666,1,,,,,,,,,,,,0,131,5,5,2082,2166,absent_patch/patch0002082.jpg,absent_patch/patch0002166.jpg,,,,,,,,,,,,,,,,,,,,0.116317734,0.040046517,1,0,0,response1disk,16,0.002658711,-0.000498504,1,0,0,center_square,0,15,15,43,1,,,,,,,,,,,,,,,,,,,,,,,
669374,001,2022-11-21_24h01.35.016,Info_measure_main_exp,2022.2.2,Win32,59.96282305,,,,,,,,,,,,,,,,,,masks/mask_003.jpg,,,,,,,,,,,,,,,,,,,,,,,,,,,,,,,,,,,,,,,,,,,0,0,0,2,1,,,,,,,,,,,,,,,,,,,,,,,,,,,,,,,,,,,,,,,,,,,,,,
669374,001,2022-11-21_24h01.35.016,Info_measure_main_exp,2022.2.2,Win32,59.96282305,,,,,,,,,,,,,,,,,,masks/mask_005.jpg,,,,,,,,,,,,,,,,,,,,,,,,,,,,,,,,,,,,,,,,,,,0,1,1,4,1,,,,,,,,,,,,,,,,,,,,,,,,,,,,,,,,,,,,,,,,,,,,,,
669374,001,2022-11-21_24h01.35.016,Info_measure_main_exp,2022.2.2,Win32,59.96282305,,,,,,,,,,,,,,,,,,masks/mask_002.jpg,,,,,,,,,,,,,,,,,,,,,,,,,,,,,,,,,,,,,,,,,,,0,2,2,1,1,,,,,,,,,,,,,,,,,,,,,,,,,,,,,,,,,,,,,,,,,,,,,,
669374,001,2022-11-21_24h01.35.016,Info_measure_main_exp,2022.2.2,Win32,59.96282305,,,,,,,,,,,,,,,,,,masks/mask_001.jpg,,,,,,,,,,,,,,,,,,,,,,,,,,,,,,,,,,,,,,,,,,,0,3,3,0,1,,,,,,,,,,,,,,,,,,,,,,,,,,,,,,,,,,,,,,,,,,,,,,
669374,001,2022-11-21_24h01.35.016,Info_measure_main_exp,2022.2.2,Win32,59.96282305,,,,,,,,,,,,,,,,,,masks/mask_004.jpg,,,,,,,,,,,,,,,,,,,,,,,,,,,,,,,,,,,,,,,,,,,0,4,4,3,1,,,,,,,,,,,,,,,,,,,,,,,,,,,,,,,,,,,,,,,,,,,,,,
669374,001,2022-11-21_24h01.35.016,Info_measure_main_exp,2022.2.2,Win32,59.96282305,,,,,,,,,,,,,,,,,,masks/mask_002.jpg,,,,,,,,,,,,,,,,,,,,,,,,,,,,,,,,,,,,,,,,,,,,,,,,0,0,0,1,1,,,,,,,,,,,,,,,,,,,,,,,,,,,,,,,,,,,,,,,,,
669374,001,2022-11-21_24h01.35.016,Info_measure_main_exp,2022.2.2,Win32,59.96282305,,,,,,,,,,,,,,,,,,masks/mask_003.jpg,,,,,,,,,,,,,,,,,,,,,,,,,,,,,,,,,,,,,,,,,,,,,,,,0,1,1,2,1,,,,,,,,,,,,,,,,,,,,,,,,,,,,,,,,,,,,,,,,,
669374,001,2022-11-21_24h01.35.016,Info_measure_main_exp,2022.2.2,Win32,59.96282305,,,,,,,,,,,,,,,,,,masks/mask_001.jpg,,,,,,,,,,,,,,,,,,,,,,,,,,,,,,,,,,,,,,,,,,,,,,,,0,2,2,0,1,,,,,,,,,,,,,,,,,,,,,,,,,,,,,,,,,,,,,,,,,
669374,001,2022-11-21_24h01.35.016,Info_measure_main_exp,2022.2.2,Win32,59.96282305,,,,,,,,,,,,,,,,,,masks/mask_004.jpg,,,,,,,,,,,,,,,,,,,,,,,,,,,,,,,,,,,,,,,,,,,,,,,,0,3,3,3,1,,,,,,,,,,,,,,,,,,,,,,,,,,,,,,,,,,,,,,,,,
669374,001,2022-11-21_24h01.35.016,Info_measure_main_exp,2022.2.2,Win32,59.96282305,,,,,,,,,,,,,,,,,,masks/mask_005.jpg,,,,,,,,,,,,,,,,,,,,,,,,,,,,,,,,,,,,,,,,,,,,,,,,0,4,4,4,1,,,,,,,,,,,,,,,,,,,,,,,,,,,,,,,,,,,,,,,,,
669374,001,2022-11-21_24h01.35.016,Info_measure_main_exp,2022.2.2,Win32,59.96282305,,,,,,,,,,,,,,,,,,,,,,,,,,,,,,7,1.25,1,,,,,,,,,,,,0,131,5,5,1974,2250,absent_patch/patch0001974.jpg,absent_patch/patch0002250.jpg,,,,,,,,,,,,,,,,,,,,0.049850449,0.08590893,1,0,0,response1disk,17,0.005317422,-0.002492522,1,0,0,center_square,0,16,16,55,1,,,,,,,,,,,,,,,,,,,,,,,
669374,001,2022-11-21_24h01.35.016,Info_measure_main_exp,2022.2.2,Win32,59.96282305,,,,,,,,,,,,,,,,,,masks/mask_003.jpg,,,,,,,,,,,,,,,,,,,,,,,,,,,,,,,,,,,,,,,,,,,0,0,0,2,1,,,,,,,,,,,,,,,,,,,,,,,,,,,,,,,,,,,,,,,,,,,,,,
669374,001,2022-11-21_24h01.35.016,Info_measure_main_exp,2022.2.2,Win32,59.96282305,,,,,,,,,,,,,,,,,,masks/mask_005.jpg,,,,,,,,,,,,,,,,,,,,,,,,,,,,,,,,,,,,,,,,,,,0,1,1,4,1,,,,,,,,,,,,,,,,,,,,,,,,,,,,,,,,,,,,,,,,,,,,,,
669374,001,2022-11-21_24h01.35.016,Info_measure_main_exp,2022.2.2,Win32,59.96282305,,,,,,,,,,,,,,,,,,masks/mask_002.jpg,,,,,,,,,,,,,,,,,,,,,,,,,,,,,,,,,,,,,,,,,,,0,2,2,1,1,,,,,,,,,,,,,,,,,,,,,,,,,,,,,,,,,,,,,,,,,,,,,,
669374,001,2022-11-21_24h01.35.016,Info_measure_main_exp,2022.2.2,Win32,59.96282305,,,,,,,,,,,,,,,,,,masks/mask_004.jpg,,,,,,,,,,,,,,,,,,,,,,,,,,,,,,,,,,,,,,,,,,,0,3,3,3,1,,,,,,,,,,,,,,,,,,,,,,,,,,,,,,,,,,,,,,,,,,,,,,
669374,001,2022-11-21_24h01.35.016,Info_measure_main_exp,2022.2.2,Win32,59.96282305,,,,,,,,,,,,,,,,,,masks/mask_001.jpg,,,,,,,,,,,,,,,,,,,,,,,,,,,,,,,,,,,,,,,,,,,0,4,4,0,1,,,,,,,,,,,,,,,,,,,,,,,,,,,,,,,,,,,,,,,,,,,,,,
669374,001,2022-11-21_24h01.35.016,Info_measure_main_exp,2022.2.2,Win32,59.96282305,,,,,,,,,,,,,,,,,,masks/mask_002.jpg,,,,,,,,,,,,,,,,,,,,,,,,,,,,,,,,,,,,,,,,,,,,,,,,0,0,0,1,1,,,,,,,,,,,,,,,,,,,,,,,,,,,,,,,,,,,,,,,,,
669374,001,2022-11-21_24h01.35.016,Info_measure_main_exp,2022.2.2,Win32,59.96282305,,,,,,,,,,,,,,,,,,masks/mask_005.jpg,,,,,,,,,,,,,,,,,,,,,,,,,,,,,,,,,,,,,,,,,,,,,,,,0,1,1,4,1,,,,,,,,,,,,,,,,,,,,,,,,,,,,,,,,,,,,,,,,,
669374,001,2022-11-21_24h01.35.016,Info_measure_main_exp,2022.2.2,Win32,59.96282305,,,,,,,,,,,,,,,,,,masks/mask_001.jpg,,,,,,,,,,,,,,,,,,,,,,,,,,,,,,,,,,,,,,,,,,,,,,,,0,2,2,0,1,,,,,,,,,,,,,,,,,,,,,,,,,,,,,,,,,,,,,,,,,
669374,001,2022-11-21_24h01.35.016,Info_measure_main_exp,2022.2.2,Win32,59.96282305,,,,,,,,,,,,,,,,,,masks/mask_004.jpg,,,,,,,,,,,,,,,,,,,,,,,,,,,,,,,,,,,,,,,,,,,,,,,,0,3,3,3,1,,,,,,,,,,,,,,,,,,,,,,,,,,,,,,,,,,,,,,,,,
669374,001,2022-11-21_24h01.35.016,Info_measure_main_exp,2022.2.2,Win32,59.96282305,,,,,,,,,,,,,,,,,,masks/mask_003.jpg,,,,,,,,,,,,,,,,,,,,,,,,,,,,,,,,,,,,,,,,,,,,,,,,0,4,4,2,1,,,,,,,,,,,,,,,,,,,,,,,,,,,,,,,,,,,,,,,,,
669374,001,2022-11-21_24h01.35.016,Info_measure_main_exp,2022.2.2,Win32,59.96282305,,,,,,,,,,,,,,,,,,,,,,,,,,,,,,7,1.2344,1,,,,,,,,,,,,0,131,5,5,2178,2238,absent_patch/patch0002178.jpg,absent_patch/patch0002238.jpg,,,,,,,,,,,,,,,,,,,,0.025922233,0.132436005,1,0,0,response1disk,18,-0.005317361,0.000830821,1,0,0,center_square,0,17,17,57,1,,,,,,,,,,,,,,,,,,,,,,,
669374,001,2022-11-21_24h01.35.016,Info_measure_main_exp,2022.2.2,Win32,59.96282305,,,,,,,,,,,,,,,,,,masks/mask_005.jpg,,,,,,,,,,,,,,,,,,,,,,,,,,,,,,,,,,,,,,,,,,,0,0,0,4,1,,,,,,,,,,,,,,,,,,,,,,,,,,,,,,,,,,,,,,,,,,,,,,
669374,001,2022-11-21_24h01.35.016,Info_measure_main_exp,2022.2.2,Win32,59.96282305,,,,,,,,,,,,,,,,,,masks/mask_003.jpg,,,,,,,,,,,,,,,,,,,,,,,,,,,,,,,,,,,,,,,,,,,0,1,1,2,1,,,,,,,,,,,,,,,,,,,,,,,,,,,,,,,,,,,,,,,,,,,,,,
669374,001,2022-11-21_24h01.35.016,Info_measure_main_exp,2022.2.2,Win32,59.96282305,,,,,,,,,,,,,,,,,,masks/mask_002.jpg,,,,,,,,,,,,,,,,,,,,,,,,,,,,,,,,,,,,,,,,,,,0,2,2,1,1,,,,,,,,,,,,,,,,,,,,,,,,,,,,,,,,,,,,,,,,,,,,,,
669374,001,2022-11-21_24h01.35.016,Info_measure_main_exp,2022.2.2,Win32,59.96282305,,,,,,,,,,,,,,,,,,masks/mask_004.jpg,,,,,,,,,,,,,,,,,,,,,,,,,,,,,,,,,,,,,,,,,,,0,3,3,3,1,,,,,,,,,,,,,,,,,,,,,,,,,,,,,,,,,,,,,,,,,,,,,,
669374,001,2022-11-21_24h01.35.016,Info_measure_main_exp,2022.2.2,Win32,59.96282305,,,,,,,,,,,,,,,,,,masks/mask_001.jpg,,,,,,,,,,,,,,,,,,,,,,,,,,,,,,,,,,,,,,,,,,,0,4,4,0,1,,,,,,,,,,,,,,,,,,,,,,,,,,,,,,,,,,,,,,,,,,,,,,
669374,001,2022-11-21_24h01.35.016,Info_measure_main_exp,2022.2.2,Win32,59.96282305,,,,,,,,,,,,,,,,,,masks/mask_002.jpg,,,,,,,,,,,,,,,,,,,,,,,,,,,,,,,,,,,,,,,,,,,,,,,,0,0,0,1,1,,,,,,,,,,,,,,,,,,,,,,,,,,,,,,,,,,,,,,,,,
669374,001,2022-11-21_24h01.35.016,Info_measure_main_exp,2022.2.2,Win32,59.96282305,,,,,,,,,,,,,,,,,,masks/mask_001.jpg,,,,,,,,,,,,,,,,,,,,,,,,,,,,,,,,,,,,,,,,,,,,,,,,0,1,1,0,1,,,,,,,,,,,,,,,,,,,,,,,,,,,,,,,,,,,,,,,,,
669374,001,2022-11-21_24h01.35.016,Info_measure_main_exp,2022.2.2,Win32,59.96282305,,,,,,,,,,,,,,,,,,masks/mask_003.jpg,,,,,,,,,,,,,,,,,,,,,,,,,,,,,,,,,,,,,,,,,,,,,,,,0,2,2,2,1,,,,,,,,,,,,,,,,,,,,,,,,,,,,,,,,,,,,,,,,,
669374,001,2022-11-21_24h01.35.016,Info_measure_main_exp,2022.2.2,Win32,59.96282305,,,,,,,,,,,,,,,,,,masks/mask_004.jpg,,,,,,,,,,,,,,,,,,,,,,,,,,,,,,,,,,,,,,,,,,,,,,,,0,3,3,3,1,,,,,,,,,,,,,,,,,,,,,,,,,,,,,,,,,,,,,,,,,
669374,001,2022-11-21_24h01.35.016,Info_measure_main_exp,2022.2.2,Win32,59.96282305,,,,,,,,,,,,,,,,,,masks/mask_005.jpg,,,,,,,,,,,,,,,,,,,,,,,,,,,,,,,,,,,,,,,,,,,,,,,,0,4,4,4,1,,,,,,,,,,,,,,,,,,,,,,,,,,,,,,,,,,,,,,,,,
669374,001,2022-11-21_24h01.35.016,Info_measure_main_exp,2022.2.2,Win32,59.96282305,,,,,,,,,,,,,,,,,,,,,,,,,,,,,,6,1.5665,1,,,,,,,,,,,,0,131,5,5,2154,1950,absent_patch/patch0002154.jpg,absent_patch/patch0001950.jpg,,,,,,,,,,,,,,,,,,,,0.106347644,0.033399801,1,0,0,response1disk,19,-0.001994018,0.015453639,1,0,0,center_square,0,18,18,96,1,,,,,,,,,,,,,,,,,,,,,,,
669374,001,2022-11-21_24h01.35.016,Info_measure_main_exp,2022.2.2,Win32,59.96282305,,,,,,,,,,,,,,,,,,masks/mask_005.jpg,,,,,,,,,,,,,,,,,,,,,,,,,,,,,,,,,,,,,,,,,,,0,0,0,4,1,,,,,,,,,,,,,,,,,,,,,,,,,,,,,,,,,,,,,,,,,,,,,,
669374,001,2022-11-21_24h01.35.016,Info_measure_main_exp,2022.2.2,Win32,59.96282305,,,,,,,,,,,,,,,,,,masks/mask_002.jpg,,,,,,,,,,,,,,,,,,,,,,,,,,,,,,,,,,,,,,,,,,,0,1,1,1,1,,,,,,,,,,,,,,,,,,,,,,,,,,,,,,,,,,,,,,,,,,,,,,
669374,001,2022-11-21_24h01.35.016,Info_measure_main_exp,2022.2.2,Win32,59.96282305,,,,,,,,,,,,,,,,,,masks/mask_001.jpg,,,,,,,,,,,,,,,,,,,,,,,,,,,,,,,,,,,,,,,,,,,0,2,2,0,1,,,,,,,,,,,,,,,,,,,,,,,,,,,,,,,,,,,,,,,,,,,,,,
669374,001,2022-11-21_24h01.35.016,Info_measure_main_exp,2022.2.2,Win32,59.96282305,,,,,,,,,,,,,,,,,,masks/mask_003.jpg,,,,,,,,,,,,,,,,,,,,,,,,,,,,,,,,,,,,,,,,,,,0,3,3,2,1,,,,,,,,,,,,,,,,,,,,,,,,,,,,,,,,,,,,,,,,,,,,,,
669374,001,2022-11-21_24h01.35.016,Info_measure_main_exp,2022.2.2,Win32,59.96282305,,,,,,,,,,,,,,,,,,masks/mask_004.jpg,,,,,,,,,,,,,,,,,,,,,,,,,,,,,,,,,,,,,,,,,,,0,4,4,3,1,,,,,,,,,,,,,,,,,,,,,,,,,,,,,,,,,,,,,,,,,,,,,,
669374,001,2022-11-21_24h01.35.016,Info_measure_main_exp,2022.2.2,Win32,59.96282305,,,,,,,,,,,,,,,,,,masks/mask_001.jpg,,,,,,,,,,,,,,,,,,,,,,,,,,,,,,,,,,,,,,,,,,,,,,,,0,0,0,0,1,,,,,,,,,,,,,,,,,,,,,,,,,,,,,,,,,,,,,,,,,
669374,001,2022-11-21_24h01.35.016,Info_measure_main_exp,2022.2.2,Win32,59.96282305,,,,,,,,,,,,,,,,,,masks/mask_003.jpg,,,,,,,,,,,,,,,,,,,,,,,,,,,,,,,,,,,,,,,,,,,,,,,,0,1,1,2,1,,,,,,,,,,,,,,,,,,,,,,,,,,,,,,,,,,,,,,,,,
669374,001,2022-11-21_24h01.35.016,Info_measure_main_exp,2022.2.2,Win32,59.96282305,,,,,,,,,,,,,,,,,,masks/mask_002.jpg,,,,,,,,,,,,,,,,,,,,,,,,,,,,,,,,,,,,,,,,,,,,,,,,0,2,2,1,1,,,,,,,,,,,,,,,,,,,,,,,,,,,,,,,,,,,,,,,,,
669374,001,2022-11-21_24h01.35.016,Info_measure_main_exp,2022.2.2,Win32,59.96282305,,,,,,,,,,,,,,,,,,masks/mask_005.jpg,,,,,,,,,,,,,,,,,,,,,,,,,,,,,,,,,,,,,,,,,,,,,,,,0,3,3,4,1,,,,,,,,,,,,,,,,,,,,,,,,,,,,,,,,,,,,,,,,,
669374,001,2022-11-21_24h01.35.016,Info_measure_main_exp,2022.2.2,Win32,59.96282305,,,,,,,,,,,,,,,,,,masks/mask_004.jpg,,,,,,,,,,,,,,,,,,,,,,,,,,,,,,,,,,,,,,,,,,,,,,,,0,4,4,3,1,,,,,,,,,,,,,,,,,,,,,,,,,,,,,,,,,,,,,,,,,
669374,001,2022-11-21_24h01.35.016,Info_measure_main_exp,2022.2.2,Win32,59.96282305,,,,,,,,,,,,,,,,,,,,,,,,,,,,,,2,1.3004,1,,,,,,,,,,,,0,131,5,5,2166,2154,absent_patch/patch0002166.jpg,absent_patch/patch0002154.jpg,,,,,,,,,,,,,,,,,,,,-0.113659023,-0.039714231,1,0,0,response5disk,20,-0.001994018,-0.009139269,1,0,0,center_square,0,19,19,79,1,,,,,,,,,,,,,,,,,,,,,,,
669374,001,2022-11-21_24h01.35.016,Info_measure_main_exp,2022.2.2,Win32,59.96282305,,,,,,,,,,,,,,,,,,masks/mask_002.jpg,,,,,,,,,,,,,,,,,,,,,,,,,,,,,,,,,,,,,,,,,,,0,0,0,1,1,,,,,,,,,,,,,,,,,,,,,,,,,,,,,,,,,,,,,,,,,,,,,,
669374,001,2022-11-21_24h01.35.016,Info_measure_main_exp,2022.2.2,Win32,59.96282305,,,,,,,,,,,,,,,,,,masks/mask_001.jpg,,,,,,,,,,,,,,,,,,,,,,,,,,,,,,,,,,,,,,,,,,,0,1,1,0,1,,,,,,,,,,,,,,,,,,,,,,,,,,,,,,,,,,,,,,,,,,,,,,
669374,001,2022-11-21_24h01.35.016,Info_measure_main_exp,2022.2.2,Win32,59.96282305,,,,,,,,,,,,,,,,,,masks/mask_005.jpg,,,,,,,,,,,,,,,,,,,,,,,,,,,,,,,,,,,,,,,,,,,0,2,2,4,1,,,,,,,,,,,,,,,,,,,,,,,,,,,,,,,,,,,,,,,,,,,,,,
669374,001,2022-11-21_24h01.35.016,Info_measure_main_exp,2022.2.2,Win32,59.96282305,,,,,,,,,,,,,,,,,,masks/mask_004.jpg,,,,,,,,,,,,,,,,,,,,,,,,,,,,,,,,,,,,,,,,,,,0,3,3,3,1,,,,,,,,,,,,,,,,,,,,,,,,,,,,,,,,,,,,,,,,,,,,,,
669374,001,2022-11-21_24h01.35.016,Info_measure_main_exp,2022.2.2,Win32,59.96282305,,,,,,,,,,,,,,,,,,masks/mask_003.jpg,,,,,,,,,,,,,,,,,,,,,,,,,,,,,,,,,,,,,,,,,,,0,4,4,2,1,,,,,,,,,,,,,,,,,,,,,,,,,,,,,,,,,,,,,,,,,,,,,,
669374,001,2022-11-21_24h01.35.016,Info_measure_main_exp,2022.2.2,Win32,59.96282305,,,,,,,,,,,,,,,,,,masks/mask_003.jpg,,,,,,,,,,,,,,,,,,,,,,,,,,,,,,,,,,,,,,,,,,,,,,,,0,0,0,2,1,,,,,,,,,,,,,,,,,,,,,,,,,,,,,,,,,,,,,,,,,
669374,001,2022-11-21_24h01.35.016,Info_measure_main_exp,2022.2.2,Win32,59.96282305,,,,,,,,,,,,,,,,,,masks/mask_004.jpg,,,,,,,,,,,,,,,,,,,,,,,,,,,,,,,,,,,,,,,,,,,,,,,,0,1,1,3,1,,,,,,,,,,,,,,,,,,,,,,,,,,,,,,,,,,,,,,,,,
669374,001,2022-11-21_24h01.35.016,Info_measure_main_exp,2022.2.2,Win32,59.96282305,,,,,,,,,,,,,,,,,,masks/mask_001.jpg,,,,,,,,,,,,,,,,,,,,,,,,,,,,,,,,,,,,,,,,,,,,,,,,0,2,2,0,1,,,,,,,,,,,,,,,,,,,,,,,,,,,,,,,,,,,,,,,,,
669374,001,2022-11-21_24h01.35.016,Info_measure_main_exp,2022.2.2,Win32,59.96282305,,,,,,,,,,,,,,,,,,masks/mask_002.jpg,,,,,,,,,,,,,,,,,,,,,,,,,,,,,,,,,,,,,,,,,,,,,,,,0,3,3,1,1,,,,,,,,,,,,,,,,,,,,,,,,,,,,,,,,,,,,,,,,,
669374,001,2022-11-21_24h01.35.016,Info_measure_main_exp,2022.2.2,Win32,59.96282305,,,,,,,,,,,,,,,,,,masks/mask_005.jpg,,,,,,,,,,,,,,,,,,,,,,,,,,,,,,,,,,,,,,,,,,,,,,,,0,4,4,4,1,,,,,,,,,,,,,,,,,,,,,,,,,,,,,,,,,,,,,,,,,
669374,001,2022-11-21_24h01.35.016,Info_measure_main_exp,2022.2.2,Win32,59.96282305,,,,,,,,,,,,,,,,,,,,,,,,,,,,,,3,1.0668,1,,,,,,,,,,,,0,131,5,5,2154,2238,absent_patch/patch0002154.jpg,absent_patch/patch0002238.jpg,,,,,,,,,,,,,,,,,,,,-0.049850449,-0.083582626,1,0,0,response5disk,21,0.003988036,-0.00182786,1,0,0,center_square,0,20,20,21,1,,,,,,,,,,,,,,,,,,,,,,,
669374,001,2022-11-21_24h01.35.016,Info_measure_main_exp,2022.2.2,Win32,59.96282305,,,,,,,,,,,,,,,,,,masks/mask_002.jpg,,,,,,,,,,,,,,,,,,,,,,,,,,,,,,,,,,,,,,,,,,,0,0,0,1,1,,,,,,,,,,,,,,,,,,,,,,,,,,,,,,,,,,,,,,,,,,,,,,
669374,001,2022-11-21_24h01.35.016,Info_measure_main_exp,2022.2.2,Win32,59.96282305,,,,,,,,,,,,,,,,,,masks/mask_005.jpg,,,,,,,,,,,,,,,,,,,,,,,,,,,,,,,,,,,,,,,,,,,0,1,1,4,1,,,,,,,,,,,,,,,,,,,,,,,,,,,,,,,,,,,,,,,,,,,,,,
669374,001,2022-11-21_24h01.35.016,Info_measure_main_exp,2022.2.2,Win32,59.96282305,,,,,,,,,,,,,,,,,,masks/mask_004.jpg,,,,,,,,,,,,,,,,,,,,,,,,,,,,,,,,,,,,,,,,,,,0,2,2,3,1,,,,,,,,,,,,,,,,,,,,,,,,,,,,,,,,,,,,,,,,,,,,,,
669374,001,2022-11-21_24h01.35.016,Info_measure_main_exp,2022.2.2,Win32,59.96282305,,,,,,,,,,,,,,,,,,masks/mask_003.jpg,,,,,,,,,,,,,,,,,,,,,,,,,,,,,,,,,,,,,,,,,,,0,3,3,2,1,,,,,,,,,,,,,,,,,,,,,,,,,,,,,,,,,,,,,,,,,,,,,,
669374,001,2022-11-21_24h01.35.016,Info_measure_main_exp,2022.2.2,Win32,59.96282305,,,,,,,,,,,,,,,,,,masks/mask_001.jpg,,,,,,,,,,,,,,,,,,,,,,,,,,,,,,,,,,,,,,,,,,,0,4,4,0,1,,,,,,,,,,,,,,,,,,,,,,,,,,,,,,,,,,,,,,,,,,,,,,
669374,001,2022-11-21_24h01.35.016,Info_measure_main_exp,2022.2.2,Win32,59.96282305,,,,,,,,,,,,,,,,,,masks/mask_001.jpg,,,,,,,,,,,,,,,,,,,,,,,,,,,,,,,,,,,,,,,,,,,,,,,,0,0,0,0,1,,,,,,,,,,,,,,,,,,,,,,,,,,,,,,,,,,,,,,,,,
669374,001,2022-11-21_24h01.35.016,Info_measure_main_exp,2022.2.2,Win32,59.96282305,,,,,,,,,,,,,,,,,,masks/mask_005.jpg,,,,,,,,,,,,,,,,,,,,,,,,,,,,,,,,,,,,,,,,,,,,,,,,0,1,1,4,1,,,,,,,,,,,,,,,,,,,,,,,,,,,,,,,,,,,,,,,,,
669374,001,2022-11-21_24h01.35.016,Info_measure_main_exp,2022.2.2,Win32,59.96282305,,,,,,,,,,,,,,,,,,masks/mask_004.jpg,,,,,,,,,,,,,,,,,,,,,,,,,,,,,,,,,,,,,,,,,,,,,,,,0,2,2,3,1,,,,,,,,,,,,,,,,,,,,,,,,,,,,,,,,,,,,,,,,,
669374,001,2022-11-21_24h01.35.016,Info_measure_main_exp,2022.2.2,Win32,59.96282305,,,,,,,,,,,,,,,,,,masks/mask_002.jpg,,,,,,,,,,,,,,,,,,,,,,,,,,,,,,,,,,,,,,,,,,,,,,,,0,3,3,1,1,,,,,,,,,,,,,,,,,,,,,,,,,,,,,,,,,,,,,,,,,
669374,001,2022-11-21_24h01.35.016,Info_measure_main_exp,2022.2.2,Win32,59.96282305,,,,,,,,,,,,,,,,,,masks/mask_003.jpg,,,,,,,,,,,,,,,,,,,,,,,,,,,,,,,,,,,,,,,,,,,,,,,,0,4,4,2,1,,,,,,,,,,,,,,,,,,,,,,,,,,,,,,,,,,,,,,,,,
669374,001,2022-11-21_24h01.35.016,Info_measure_main_exp,2022.2.2,Win32,59.96282305,,,,,,,,,,,,,,,,,,,,,,,,,,,,,,4,1.8503,1,,,,,,,,,,,,0,131,5,5,2298,2178,absent_patch/patch0002298.jpg,absent_patch/patch0002178.jpg,,,,,,,,,,,,,,,,,,,,0.051844467,-0.097540752,1,0,0,response3disk,22,-0.006646686,0.007477567,1,0,0,center_square,0,21,21,84,1,,,,,,,,,,,,,,,,,,,,,,,
669374,001,2022-11-21_24h01.35.016,Info_measure_main_exp,2022.2.2,Win32,59.96282305,,,,,,,,,,,,,,,,,,masks/mask_004.jpg,,,,,,,,,,,,,,,,,,,,,,,,,,,,,,,,,,,,,,,,,,,0,0,0,3,1,,,,,,,,,,,,,,,,,,,,,,,,,,,,,,,,,,,,,,,,,,,,,,
669374,001,2022-11-21_24h01.35.016,Info_measure_main_exp,2022.2.2,Win32,59.96282305,,,,,,,,,,,,,,,,,,masks/mask_003.jpg,,,,,,,,,,,,,,,,,,,,,,,,,,,,,,,,,,,,,,,,,,,0,1,1,2,1,,,,,,,,,,,,,,,,,,,,,,,,,,,,,,,,,,,,,,,,,,,,,,
669374,001,2022-11-21_24h01.35.016,Info_measure_main_exp,2022.2.2,Win32,59.96282305,,,,,,,,,,,,,,,,,,masks/mask_001.jpg,,,,,,,,,,,,,,,,,,,,,,,,,,,,,,,,,,,,,,,,,,,0,2,2,0,1,,,,,,,,,,,,,,,,,,,,,,,,,,,,,,,,,,,,,,,,,,,,,,
669374,001,2022-11-21_24h01.35.016,Info_measure_main_exp,2022.2.2,Win32,59.96282305,,,,,,,,,,,,,,,,,,masks/mask_002.jpg,,,,,,,,,,,,,,,,,,,,,,,,,,,,,,,,,,,,,,,,,,,0,3,3,1,1,,,,,,,,,,,,,,,,,,,,,,,,,,,,,,,,,,,,,,,,,,,,,,
669374,001,2022-11-21_24h01.35.016,Info_measure_main_exp,2022.2.2,Win32,59.96282305,,,,,,,,,,,,,,,,,,masks/mask_005.jpg,,,,,,,,,,,,,,,,,,,,,,,,,,,,,,,,,,,,,,,,,,,0,4,4,4,1,,,,,,,,,,,,,,,,,,,,,,,,,,,,,,,,,,,,,,,,,,,,,,
669374,001,2022-11-21_24h01.35.016,Info_measure_main_exp,2022.2.2,Win32,59.96282305,,,,,,,,,,,,,,,,,,masks/mask_005.jpg,,,,,,,,,,,,,,,,,,,,,,,,,,,,,,,,,,,,,,,,,,,,,,,,0,0,0,4,1,,,,,,,,,,,,,,,,,,,,,,,,,,,,,,,,,,,,,,,,,
669374,001,2022-11-21_24h01.35.016,Info_measure_main_exp,2022.2.2,Win32,59.96282305,,,,,,,,,,,,,,,,,,masks/mask_001.jpg,,,,,,,,,,,,,,,,,,,,,,,,,,,,,,,,,,,,,,,,,,,,,,,,0,1,1,0,1,,,,,,,,,,,,,,,,,,,,,,,,,,,,,,,,,,,,,,,,,
669374,001,2022-11-21_24h01.35.016,Info_measure_main_exp,2022.2.2,Win32,59.96282305,,,,,,,,,,,,,,,,,,masks/mask_002.jpg,,,,,,,,,,,,,,,,,,,,,,,,,,,,,,,,,,,,,,,,,,,,,,,,0,2,2,1,1,,,,,,,,,,,,,,,,,,,,,,,,,,,,,,,,,,,,,,,,,
669374,001,2022-11-21_24h01.35.016,Info_measure_main_exp,2022.2.2,Win32,59.96282305,,,,,,,,,,,,,,,,,,masks/mask_004.jpg,,,,,,,,,,,,,,,,,,,,,,,,,,,,,,,,,,,,,,,,,,,,,,,,0,3,3,3,1,,,,,,,,,,,,,,,,,,,,,,,,,,,,,,,,,,,,,,,,,
669374,001,2022-11-21_24h01.35.016,Info_measure_main_exp,2022.2.2,Win32,59.96282305,,,,,,,,,,,,,,,,,,masks/mask_003.jpg,,,,,,,,,,,,,,,,,,,,,,,,,,,,,,,,,,,,,,,,,,,,,,,,0,4,4,2,1,,,,,,,,,,,,,,,,,,,,,,,,,,,,,,,,,,,,,,,,,
669374,001,2022-11-21_24h01.35.016,Info_measure_main_exp,2022.2.2,Win32,59.96282305,,,,,,,,,,,,,,,,,,,,,,,,,,,,,,4,2.1836,1,,,,,,,,,,,,0,131,5,5,2250,2298,absent_patch/patch0002250.jpg,absent_patch/patch0002298.jpg,,,,,,,,,,,,,,,,,,,,0.049850449,-0.101528788,1,0,0,response3disk,23,0.001994018,0.008806892,1,0,0,center_square,0,22,22,59,1,,,,,,,,,,,,,,,,,,,,,,,
669374,001,2022-11-21_24h01.35.016,Info_measure_main_exp,2022.2.2,Win32,59.96282305,,,,,,,,,,,,,,,,,,masks/mask_003.jpg,,,,,,,,,,,,,,,,,,,,,,,,,,,,,,,,,,,,,,,,,,,0,0,0,2,1,,,,,,,,,,,,,,,,,,,,,,,,,,,,,,,,,,,,,,,,,,,,,,
669374,001,2022-11-21_24h01.35.016,Info_measure_main_exp,2022.2.2,Win32,59.96282305,,,,,,,,,,,,,,,,,,masks/mask_002.jpg,,,,,,,,,,,,,,,,,,,,,,,,,,,,,,,,,,,,,,,,,,,0,1,1,1,1,,,,,,,,,,,,,,,,,,,,,,,,,,,,,,,,,,,,,,,,,,,,,,
669374,001,2022-11-21_24h01.35.016,Info_measure_main_exp,2022.2.2,Win32,59.96282305,,,,,,,,,,,,,,,,,,masks/mask_004.jpg,,,,,,,,,,,,,,,,,,,,,,,,,,,,,,,,,,,,,,,,,,,0,2,2,3,1,,,,,,,,,,,,,,,,,,,,,,,,,,,,,,,,,,,,,,,,,,,,,,
669374,001,2022-11-21_24h01.35.016,Info_measure_main_exp,2022.2.2,Win32,59.96282305,,,,,,,,,,,,,,,,,,masks/mask_001.jpg,,,,,,,,,,,,,,,,,,,,,,,,,,,,,,,,,,,,,,,,,,,0,3,3,0,1,,,,,,,,,,,,,,,,,,,,,,,,,,,,,,,,,,,,,,,,,,,,,,
669374,001,2022-11-21_24h01.35.016,Info_measure_main_exp,2022.2.2,Win32,59.96282305,,,,,,,,,,,,,,,,,,masks/mask_005.jpg,,,,,,,,,,,,,,,,,,,,,,,,,,,,,,,,,,,,,,,,,,,0,4,4,4,1,,,,,,,,,,,,,,,,,,,,,,,,,,,,,,,,,,,,,,,,,,,,,,
669374,001,2022-11-21_24h01.35.016,Info_measure_main_exp,2022.2.2,Win32,59.96282305,,,,,,,,,,,,,,,,,,masks/mask_004.jpg,,,,,,,,,,,,,,,,,,,,,,,,,,,,,,,,,,,,,,,,,,,,,,,,0,0,0,3,1,,,,,,,,,,,,,,,,,,,,,,,,,,,,,,,,,,,,,,,,,
669374,001,2022-11-21_24h01.35.016,Info_measure_main_exp,2022.2.2,Win32,59.96282305,,,,,,,,,,,,,,,,,,masks/mask_001.jpg,,,,,,,,,,,,,,,,,,,,,,,,,,,,,,,,,,,,,,,,,,,,,,,,0,1,1,0,1,,,,,,,,,,,,,,,,,,,,,,,,,,,,,,,,,,,,,,,,,
669374,001,2022-11-21_24h01.35.016,Info_measure_main_exp,2022.2.2,Win32,59.96282305,,,,,,,,,,,,,,,,,,masks/mask_005.jpg,,,,,,,,,,,,,,,,,,,,,,,,,,,,,,,,,,,,,,,,,,,,,,,,0,2,2,4,1,,,,,,,,,,,,,,,,,,,,,,,,,,,,,,,,,,,,,,,,,
669374,001,2022-11-21_24h01.35.016,Info_measure_main_exp,2022.2.2,Win32,59.96282305,,,,,,,,,,,,,,,,,,masks/mask_002.jpg,,,,,,,,,,,,,,,,,,,,,,,,,,,,,,,,,,,,,,,,,,,,,,,,0,3,3,1,1,,,,,,,,,,,,,,,,,,,,,,,,,,,,,,,,,,,,,,,,,
669374,001,2022-11-21_24h01.35.016,Info_measure_main_exp,2022.2.2,Win32,59.96282305,,,,,,,,,,,,,,,,,,masks/mask_003.jpg,,,,,,,,,,,,,,,,,,,,,,,,,,,,,,,,,,,,,,,,,,,,,,,,0,4,4,2,1,,,,,,,,,,,,,,,,,,,,,,,,,,,,,,,,,,,,,,,,,
669374,001,2022-11-21_24h01.35.016,Info_measure_main_exp,2022.2.2,Win32,59.96282305,,,,,,,,,,,,,,,,,,,,,,,,,,,,,,3,1.3171,1,,,,,,,,,,,,1,131,5,5,1,2166,present_patch/cong_131_5_a.jpg,absent_patch/patch0002166.jpg,,,,,,,,,,,,,,,,,,,,-0.03522763,-0.066301097,1,0,0,response5disk,24,0.004652729,0.003489531,1,0,0,center_square,0,23,23,54,1,,,,,,,,,,,,,,,,,,,,,,,
669374,001,2022-11-21_24h01.35.016,Info_measure_main_exp,2022.2.2,Win32,59.96282305,,,,,,,,,,,,,,,,,,masks/mask_003.jpg,,,,,,,,,,,,,,,,,,,,,,,,,,,,,,,,,,,,,,,,,,,0,0,0,2,1,,,,,,,,,,,,,,,,,,,,,,,,,,,,,,,,,,,,,,,,,,,,,,
669374,001,2022-11-21_24h01.35.016,Info_measure_main_exp,2022.2.2,Win32,59.96282305,,,,,,,,,,,,,,,,,,masks/mask_004.jpg,,,,,,,,,,,,,,,,,,,,,,,,,,,,,,,,,,,,,,,,,,,0,1,1,3,1,,,,,,,,,,,,,,,,,,,,,,,,,,,,,,,,,,,,,,,,,,,,,,
669374,001,2022-11-21_24h01.35.016,Info_measure_main_exp,2022.2.2,Win32,59.96282305,,,,,,,,,,,,,,,,,,masks/mask_002.jpg,,,,,,,,,,,,,,,,,,,,,,,,,,,,,,,,,,,,,,,,,,,0,2,2,1,1,,,,,,,,,,,,,,,,,,,,,,,,,,,,,,,,,,,,,,,,,,,,,,
669374,001,2022-11-21_24h01.35.016,Info_measure_main_exp,2022.2.2,Win32,59.96282305,,,,,,,,,,,,,,,,,,masks/mask_001.jpg,,,,,,,,,,,,,,,,,,,,,,,,,,,,,,,,,,,,,,,,,,,0,3,3,0,1,,,,,,,,,,,,,,,,,,,,,,,,,,,,,,,,,,,,,,,,,,,,,,
669374,001,2022-11-21_24h01.35.016,Info_measure_main_exp,2022.2.2,Win32,59.96282305,,,,,,,,,,,,,,,,,,masks/mask_005.jpg,,,,,,,,,,,,,,,,,,,,,,,,,,,,,,,,,,,,,,,,,,,0,4,4,4,1,,,,,,,,,,,,,,,,,,,,,,,,,,,,,,,,,,,,,,,,,,,,,,
669374,001,2022-11-21_24h01.35.016,Info_measure_main_exp,2022.2.2,Win32,59.96282305,,,,,,,,,,,,,,,,,,masks/mask_002.jpg,,,,,,,,,,,,,,,,,,,,,,,,,,,,,,,,,,,,,,,,,,,,,,,,0,0,0,1,1,,,,,,,,,,,,,,,,,,,,,,,,,,,,,,,,,,,,,,,,,
669374,001,2022-11-21_24h01.35.016,Info_measure_main_exp,2022.2.2,Win32,59.96282305,,,,,,,,,,,,,,,,,,masks/mask_005.jpg,,,,,,,,,,,,,,,,,,,,,,,,,,,,,,,,,,,,,,,,,,,,,,,,0,1,1,4,1,,,,,,,,,,,,,,,,,,,,,,,,,,,,,,,,,,,,,,,,,
669374,001,2022-11-21_24h01.35.016,Info_measure_main_exp,2022.2.2,Win32,59.96282305,,,,,,,,,,,,,,,,,,masks/mask_003.jpg,,,,,,,,,,,,,,,,,,,,,,,,,,,,,,,,,,,,,,,,,,,,,,,,0,2,2,2,1,,,,,,,,,,,,,,,,,,,,,,,,,,,,,,,,,,,,,,,,,
669374,001,2022-11-21_24h01.35.016,Info_measure_main_exp,2022.2.2,Win32,59.96282305,,,,,,,,,,,,,,,,,,masks/mask_004.jpg,,,,,,,,,,,,,,,,,,,,,,,,,,,,,,,,,,,,,,,,,,,,,,,,0,3,3,3,1,,,,,,,,,,,,,,,,,,,,,,,,,,,,,,,,,,,,,,,,,
669374,001,2022-11-21_24h01.35.016,Info_measure_main_exp,2022.2.2,Win32,59.96282305,,,,,,,,,,,,,,,,,,masks/mask_001.jpg,,,,,,,,,,,,,,,,,,,,,,,,,,,,,,,,,,,,,,,,,,,,,,,,0,4,4,0,1,,,,,,,,,,,,,,,,,,,,,,,,,,,,,,,,,,,,,,,,,
669374,001,2022-11-21_24h01.35.016,Info_measure_main_exp,2022.2.2,Win32,59.96282305,,,,,,,,,,,,,,,,,,,,,,,,,,,,,,5,0.9009,1,,,,,,,,,,,,1,131,5,5,1,2178,present_patch/cong_131_5_a.jpg,absent_patch/patch0002178.jpg,,,,,,,,,,,,,,,,,,,,0.090395501,-0.011133287,1,0,0,response3disk,25,0.001329386,0.012794928,1,0,0,center_square,0,24,24,40,1,,,,,,,,,,,,,,,,,,,,,,,
669374,001,2022-11-21_24h01.35.016,Info_measure_main_exp,2022.2.2,Win32,59.96282305,,,,,,,,,,,,,,,,,,masks/mask_004.jpg,,,,,,,,,,,,,,,,,,,,,,,,,,,,,,,,,,,,,,,,,,,0,0,0,3,1,,,,,,,,,,,,,,,,,,,,,,,,,,,,,,,,,,,,,,,,,,,,,,
669374,001,2022-11-21_24h01.35.016,Info_measure_main_exp,2022.2.2,Win32,59.96282305,,,,,,,,,,,,,,,,,,masks/mask_005.jpg,,,,,,,,,,,,,,,,,,,,,,,,,,,,,,,,,,,,,,,,,,,0,1,1,4,1,,,,,,,,,,,,,,,,,,,,,,,,,,,,,,,,,,,,,,,,,,,,,,
669374,001,2022-11-21_24h01.35.016,Info_measure_main_exp,2022.2.2,Win32,59.96282305,,,,,,,,,,,,,,,,,,masks/mask_001.jpg,,,,,,,,,,,,,,,,,,,,,,,,,,,,,,,,,,,,,,,,,,,0,2,2,0,1,,,,,,,,,,,,,,,,,,,,,,,,,,,,,,,,,,,,,,,,,,,,,,
669374,001,2022-11-21_24h01.35.016,Info_measure_main_exp,2022.2.2,Win32,59.96282305,,,,,,,,,,,,,,,,,,masks/mask_003.jpg,,,,,,,,,,,,,,,,,,,,,,,,,,,,,,,,,,,,,,,,,,,0,3,3,2,1,,,,,,,,,,,,,,,,,,,,,,,,,,,,,,,,,,,,,,,,,,,,,,
669374,001,2022-11-21_24h01.35.016,Info_measure_main_exp,2022.2.2,Win32,59.96282305,,,,,,,,,,,,,,,,,,masks/mask_002.jpg,,,,,,,,,,,,,,,,,,,,,,,,,,,,,,,,,,,,,,,,,,,0,4,4,1,1,,,,,,,,,,,,,,,,,,,,,,,,,,,,,,,,,,,,,,,,,,,,,,
669374,001,2022-11-21_24h01.35.016,Info_measure_main_exp,2022.2.2,Win32,59.96282305,,,,,,,,,,,,,,,,,,masks/mask_002.jpg,,,,,,,,,,,,,,,,,,,,,,,,,,,,,,,,,,,,,,,,,,,,,,,,0,0,0,1,1,,,,,,,,,,,,,,,,,,,,,,,,,,,,,,,,,,,,,,,,,
669374,001,2022-11-21_24h01.35.016,Info_measure_main_exp,2022.2.2,Win32,59.96282305,,,,,,,,,,,,,,,,,,masks/mask_001.jpg,,,,,,,,,,,,,,,,,,,,,,,,,,,,,,,,,,,,,,,,,,,,,,,,0,1,1,0,1,,,,,,,,,,,,,,,,,,,,,,,,,,,,,,,,,,,,,,,,,
669374,001,2022-11-21_24h01.35.016,Info_measure_main_exp,2022.2.2,Win32,59.96282305,,,,,,,,,,,,,,,,,,masks/mask_005.jpg,,,,,,,,,,,,,,,,,,,,,,,,,,,,,,,,,,,,,,,,,,,,,,,,0,2,2,4,1,,,,,,,,,,,,,,,,,,,,,,,,,,,,,,,,,,,,,,,,,
669374,001,2022-11-21_24h01.35.016,Info_measure_main_exp,2022.2.2,Win32,59.96282305,,,,,,,,,,,,,,,,,,masks/mask_004.jpg,,,,,,,,,,,,,,,,,,,,,,,,,,,,,,,,,,,,,,,,,,,,,,,,0,3,3,3,1,,,,,,,,,,,,,,,,,,,,,,,,,,,,,,,,,,,,,,,,,
669374,001,2022-11-21_24h01.35.016,Info_measure_main_exp,2022.2.2,Win32,59.96282305,,,,,,,,,,,,,,,,,,masks/mask_003.jpg,,,,,,,,,,,,,,,,,,,,,,,,,,,,,,,,,,,,,,,,,,,,,,,,0,4,4,2,1,,,,,,,,,,,,,,,,,,,,,,,,,,,,,,,,,,,,,,,,,
669374,001,2022-11-21_24h01.35.016,Info_measure_main_exp,2022.2.2,Win32,59.96282305,,,,,,,,,,,,,,,,,,,,,,,,,,,,,,3,2.5172,1,,,,,,,,,,,,0,131,5,5,2250,2166,absent_patch/patch0002250.jpg,absent_patch/patch0002166.jpg,,,,,,,,,,,,,,,,,,,,-0.045862413,-0.105516824,1,0,0,response5disk,26,0.009305458,0.002160176,1,0,0,center_square,0,25,25,60,1,,,,,,,,,,,,,,,,,,,,,,,
669374,001,2022-11-21_24h01.35.016,Info_measure_main_exp,2022.2.2,Win32,59.96282305,,,,,,,,,,,,,,,,,,masks/mask_002.jpg,,,,,,,,,,,,,,,,,,,,,,,,,,,,,,,,,,,,,,,,,,,0,0,0,1,1,,,,,,,,,,,,,,,,,,,,,,,,,,,,,,,,,,,,,,,,,,,,,,
669374,001,2022-11-21_24h01.35.016,Info_measure_main_exp,2022.2.2,Win32,59.96282305,,,,,,,,,,,,,,,,,,masks/mask_001.jpg,,,,,,,,,,,,,,,,,,,,,,,,,,,,,,,,,,,,,,,,,,,0,1,1,0,1,,,,,,,,,,,,,,,,,,,,,,,,,,,,,,,,,,,,,,,,,,,,,,
669374,001,2022-11-21_24h01.35.016,Info_measure_main_exp,2022.2.2,Win32,59.96282305,,,,,,,,,,,,,,,,,,masks/mask_004.jpg,,,,,,,,,,,,,,,,,,,,,,,,,,,,,,,,,,,,,,,,,,,0,2,2,3,1,,,,,,,,,,,,,,,,,,,,,,,,,,,,,,,,,,,,,,,,,,,,,,
669374,001,2022-11-21_24h01.35.016,Info_measure_main_exp,2022.2.2,Win32,59.96282305,,,,,,,,,,,,,,,,,,masks/mask_003.jpg,,,,,,,,,,,,,,,,,,,,,,,,,,,,,,,,,,,,,,,,,,,0,3,3,2,1,,,,,,,,,,,,,,,,,,,,,,,,,,,,,,,,,,,,,,,,,,,,,,
669374,001,2022-11-21_24h01.35.016,Info_measure_main_exp,2022.2.2,Win32,59.96282305,,,,,,,,,,,,,,,,,,masks/mask_005.jpg,,,,,,,,,,,,,,,,,,,,,,,,,,,,,,,,,,,,,,,,,,,0,4,4,4,1,,,,,,,,,,,,,,,,,,,,,,,,,,,,,,,,,,,,,,,,,,,,,,
669374,001,2022-11-21_24h01.35.016,Info_measure_main_exp,2022.2.2,Win32,59.96282305,,,,,,,,,,,,,,,,,,masks/mask_004.jpg,,,,,,,,,,,,,,,,,,,,,,,,,,,,,,,,,,,,,,,,,,,,,,,,0,0,0,3,1,,,,,,,,,,,,,,,,,,,,,,,,,,,,,,,,,,,,,,,,,
669374,001,2022-11-21_24h01.35.016,Info_measure_main_exp,2022.2.2,Win32,59.96282305,,,,,,,,,,,,,,,,,,masks/mask_002.jpg,,,,,,,,,,,,,,,,,,,,,,,,,,,,,,,,,,,,,,,,,,,,,,,,0,1,1,1,1,,,,,,,,,,,,,,,,,,,,,,,,,,,,,,,,,,,,,,,,,
669374,001,2022-11-21_24h01.35.016,Info_measure_main_exp,2022.2.2,Win32,59.96282305,,,,,,,,,,,,,,,,,,masks/mask_001.jpg,,,,,,,,,,,,,,,,,,,,,,,,,,,,,,,,,,,,,,,,,,,,,,,,0,2,2,0,1,,,,,,,,,,,,,,,,,,,,,,,,,,,,,,,,,,,,,,,,,
669374,001,2022-11-21_24h01.35.016,Info_measure_main_exp,2022.2.2,Win32,59.96282305,,,,,,,,,,,,,,,,,,masks/mask_005.jpg,,,,,,,,,,,,,,,,,,,,,,,,,,,,,,,,,,,,,,,,,,,,,,,,0,3,3,4,1,,,,,,,,,,,,,,,,,,,,,,,,,,,,,,,,,,,,,,,,,
669374,001,2022-11-21_24h01.35.016,Info_measure_main_exp,2022.2.2,Win32,59.96282305,,,,,,,,,,,,,,,,,,masks/mask_003.jpg,,,,,,,,,,,,,,,,,,,,,,,,,,,,,,,,,,,,,,,,,,,,,,,,0,4,4,2,1,,,,,,,,,,,,,,,,,,,,,,,,,,,,,,,,,,,,,,,,,
669374,001,2022-11-21_24h01.35.016,Info_measure_main_exp,2022.2.2,Win32,59.96282305,,,,,,,,,,,,,,,,,,,,,,,,,,,,,,6,1.1503,1,,,,,,,,,,,,0,131,5,5,1950,2166,absent_patch/patch0001950.jpg,absent_patch/patch0002166.jpg,,,,,,,,,,,,,,,,,,,,0.148222021,0.046693233,1,0,0,response1disk,27,0.011299476,-0.009139269,1,0,0,center_square,0,26,26,0,1,,,,,,,,,,,,,,,,,,,,,,,
669374,001,2022-11-21_24h01.35.016,Info_measure_main_exp,2022.2.2,Win32,59.96282305,,,,,,,,,,,,,,,,,,masks/mask_001.jpg,,,,,,,,,,,,,,,,,,,,,,,,,,,,,,,,,,,,,,,,,,,0,0,0,0,1,,,,,,,,,,,,,,,,,,,,,,,,,,,,,,,,,,,,,,,,,,,,,,
669374,001,2022-11-21_24h01.35.016,Info_measure_main_exp,2022.2.2,Win32,59.96282305,,,,,,,,,,,,,,,,,,masks/mask_004.jpg,,,,,,,,,,,,,,,,,,,,,,,,,,,,,,,,,,,,,,,,,,,0,1,1,3,1,,,,,,,,,,,,,,,,,,,,,,,,,,,,,,,,,,,,,,,,,,,,,,
669374,001,2022-11-21_24h01.35.016,Info_measure_main_exp,2022.2.2,Win32,59.96282305,,,,,,,,,,,,,,,,,,masks/mask_002.jpg,,,,,,,,,,,,,,,,,,,,,,,,,,,,,,,,,,,,,,,,,,,0,2,2,1,1,,,,,,,,,,,,,,,,,,,,,,,,,,,,,,,,,,,,,,,,,,,,,,
669374,001,2022-11-21_24h01.35.016,Info_measure_main_exp,2022.2.2,Win32,59.96282305,,,,,,,,,,,,,,,,,,masks/mask_005.jpg,,,,,,,,,,,,,,,,,,,,,,,,,,,,,,,,,,,,,,,,,,,0,3,3,4,1,,,,,,,,,,,,,,,,,,,,,,,,,,,,,,,,,,,,,,,,,,,,,,
669374,001,2022-11-21_24h01.35.016,Info_measure_main_exp,2022.2.2,Win32,59.96282305,,,,,,,,,,,,,,,,,,masks/mask_003.jpg,,,,,,,,,,,,,,,,,,,,,,,,,,,,,,,,,,,,,,,,,,,0,4,4,2,1,,,,,,,,,,,,,,,,,,,,,,,,,,,,,,,,,,,,,,,,,,,,,,
669374,001,2022-11-21_24h01.35.016,Info_measure_main_exp,2022.2.2,Win32,59.96282305,,,,,,,,,,,,,,,,,,masks/mask_002.jpg,,,,,,,,,,,,,,,,,,,,,,,,,,,,,,,,,,,,,,,,,,,,,,,,0,0,0,1,1,,,,,,,,,,,,,,,,,,,,,,,,,,,,,,,,,,,,,,,,,
669374,001,2022-11-21_24h01.35.016,Info_measure_main_exp,2022.2.2,Win32,59.96282305,,,,,,,,,,,,,,,,,,masks/mask_003.jpg,,,,,,,,,,,,,,,,,,,,,,,,,,,,,,,,,,,,,,,,,,,,,,,,0,1,1,2,1,,,,,,,,,,,,,,,,,,,,,,,,,,,,,,,,,,,,,,,,,
669374,001,2022-11-21_24h01.35.016,Info_measure_main_exp,2022.2.2,Win32,59.96282305,,,,,,,,,,,,,,,,,,masks/mask_004.jpg,,,,,,,,,,,,,,,,,,,,,,,,,,,,,,,,,,,,,,,,,,,,,,,,0,2,2,3,1,,,,,,,,,,,,,,,,,,,,,,,,,,,,,,,,,,,,,,,,,
669374,001,2022-11-21_24h01.35.016,Info_measure_main_exp,2022.2.2,Win32,59.96282305,,,,,,,,,,,,,,,,,,masks/mask_005.jpg,,,,,,,,,,,,,,,,,,,,,,,,,,,,,,,,,,,,,,,,,,,,,,,,0,3,3,4,1,,,,,,,,,,,,,,,,,,,,,,,,,,,,,,,,,,,,,,,,,
669374,001,2022-11-21_24h01.35.016,Info_measure_main_exp,2022.2.2,Win32,59.96282305,,,,,,,,,,,,,,,,,,masks/mask_001.jpg,,,,,,,,,,,,,,,,,,,,,,,,,,,,,,,,,,,,,,,,,,,,,,,,0,4,4,0,1,,,,,,,,,,,,,,,,,,,,,,,,,,,,,,,,,,,,,,,,,
669374,001,2022-11-21_24h01.35.016,Info_measure_main_exp,2022.2.2,Win32,59.96282305,,,,,,,,,,,,,,,,,,,,,,,,,,,,,,6,0.9504,1,,,,,,,,,,,,0,131,5,5,2082,2154,absent_patch/patch0002082.jpg,absent_patch/patch0002154.jpg,,,,,,,,,,,,,,,,,,,,0.117647059,0.046693233,1,0,0,response1disk,28,0.001994018,-0.01445663,1,0,0,center_square,0,27,27,33,1,,,,,,,,,,,,,,,,,,,,,,,
669374,001,2022-11-21_24h01.35.016,Info_measure_main_exp,2022.2.2,Win32,59.96282305,,,,,,,,,,,,,,,,,,masks/mask_002.jpg,,,,,,,,,,,,,,,,,,,,,,,,,,,,,,,,,,,,,,,,,,,0,0,0,1,1,,,,,,,,,,,,,,,,,,,,,,,,,,,,,,,,,,,,,,,,,,,,,,
669374,001,2022-11-21_24h01.35.016,Info_measure_main_exp,2022.2.2,Win32,59.96282305,,,,,,,,,,,,,,,,,,masks/mask_004.jpg,,,,,,,,,,,,,,,,,,,,,,,,,,,,,,,,,,,,,,,,,,,0,1,1,3,1,,,,,,,,,,,,,,,,,,,,,,,,,,,,,,,,,,,,,,,,,,,,,,
669374,001,2022-11-21_24h01.35.016,Info_measure_main_exp,2022.2.2,Win32,59.96282305,,,,,,,,,,,,,,,,,,masks/mask_003.jpg,,,,,,,,,,,,,,,,,,,,,,,,,,,,,,,,,,,,,,,,,,,0,2,2,2,1,,,,,,,,,,,,,,,,,,,,,,,,,,,,,,,,,,,,,,,,,,,,,,
669374,001,2022-11-21_24h01.35.016,Info_measure_main_exp,2022.2.2,Win32,59.96282305,,,,,,,,,,,,,,,,,,masks/mask_005.jpg,,,,,,,,,,,,,,,,,,,,,,,,,,,,,,,,,,,,,,,,,,,0,3,3,4,1,,,,,,,,,,,,,,,,,,,,,,,,,,,,,,,,,,,,,,,,,,,,,,
669374,001,2022-11-21_24h01.35.016,Info_measure_main_exp,2022.2.2,Win32,59.96282305,,,,,,,,,,,,,,,,,,masks/mask_001.jpg,,,,,,,,,,,,,,,,,,,,,,,,,,,,,,,,,,,,,,,,,,,0,4,4,0,1,,,,,,,,,,,,,,,,,,,,,,,,,,,,,,,,,,,,,,,,,,,,,,
669374,001,2022-11-21_24h01.35.016,Info_measure_main_exp,2022.2.2,Win32,59.96282305,,,,,,,,,,,,,,,,,,masks/mask_005.jpg,,,,,,,,,,,,,,,,,,,,,,,,,,,,,,,,,,,,,,,,,,,,,,,,0,0,0,4,1,,,,,,,,,,,,,,,,,,,,,,,,,,,,,,,,,,,,,,,,,
669374,001,2022-11-21_24h01.35.016,Info_measure_main_exp,2022.2.2,Win32,59.96282305,,,,,,,,,,,,,,,,,,masks/mask_002.jpg,,,,,,,,,,,,,,,,,,,,,,,,,,,,,,,,,,,,,,,,,,,,,,,,0,1,1,1,1,,,,,,,,,,,,,,,,,,,,,,,,,,,,,,,,,,,,,,,,,
669374,001,2022-11-21_24h01.35.016,Info_measure_main_exp,2022.2.2,Win32,59.96282305,,,,,,,,,,,,,,,,,,masks/mask_004.jpg,,,,,,,,,,,,,,,,,,,,,,,,,,,,,,,,,,,,,,,,,,,,,,,,0,2,2,3,1,,,,,,,,,,,,,,,,,,,,,,,,,,,,,,,,,,,,,,,,,
669374,001,2022-11-21_24h01.35.016,Info_measure_main_exp,2022.2.2,Win32,59.96282305,,,,,,,,,,,,,,,,,,masks/mask_001.jpg,,,,,,,,,,,,,,,,,,,,,,,,,,,,,,,,,,,,,,,,,,,,,,,,0,3,3,0,1,,,,,,,,,,,,,,,,,,,,,,,,,,,,,,,,,,,,,,,,,
669374,001,2022-11-21_24h01.35.016,Info_measure_main_exp,2022.2.2,Win32,59.96282305,,,,,,,,,,,,,,,,,,masks/mask_003.jpg,,,,,,,,,,,,,,,,,,,,,,,,,,,,,,,,,,,,,,,,,,,,,,,,0,4,4,2,1,,,,,,,,,,,,,,,,,,,,,,,,,,,,,,,,,,,,,,,,,
669374,001,2022-11-21_24h01.35.016,Info_measure_main_exp,2022.2.2,Win32,59.96282305,,,,,,,,,,,,,,,,,,,,,,,,,,,,,,3,1.3833,1,,,,,,,,,,,,0,131,5,5,2190,2214,absent_patch/patch0002190.jpg,absent_patch/patch0002214.jpg,,,,,,,,,,,,,,,,,,,,-0.039215666,-0.077600572,1,0,0,response5disk,29,-0.009305397,-0.008474576,1,0,0,center_square,0,28,28,35,1,,,,,,,,,,,,,,,,,,,,,,,
669374,001,2022-11-21_24h01.35.016,Info_measure_main_exp,2022.2.2,Win32,59.96282305,,,,,,,,,,,,,,,,,,masks/mask_002.jpg,,,,,,,,,,,,,,,,,,,,,,,,,,,,,,,,,,,,,,,,,,,0,0,0,1,1,,,,,,,,,,,,,,,,,,,,,,,,,,,,,,,,,,,,,,,,,,,,,,
669374,001,2022-11-21_24h01.35.016,Info_measure_main_exp,2022.2.2,Win32,59.96282305,,,,,,,,,,,,,,,,,,masks/mask_004.jpg,,,,,,,,,,,,,,,,,,,,,,,,,,,,,,,,,,,,,,,,,,,0,1,1,3,1,,,,,,,,,,,,,,,,,,,,,,,,,,,,,,,,,,,,,,,,,,,,,,
669374,001,2022-11-21_24h01.35.016,Info_measure_main_exp,2022.2.2,Win32,59.96282305,,,,,,,,,,,,,,,,,,masks/mask_003.jpg,,,,,,,,,,,,,,,,,,,,,,,,,,,,,,,,,,,,,,,,,,,0,2,2,2,1,,,,,,,,,,,,,,,,,,,,,,,,,,,,,,,,,,,,,,,,,,,,,,
669374,001,2022-11-21_24h01.35.016,Info_measure_main_exp,2022.2.2,Win32,59.96282305,,,,,,,,,,,,,,,,,,masks/mask_005.jpg,,,,,,,,,,,,,,,,,,,,,,,,,,,,,,,,,,,,,,,,,,,0,3,3,4,1,,,,,,,,,,,,,,,,,,,,,,,,,,,,,,,,,,,,,,,,,,,,,,
669374,001,2022-11-21_24h01.35.016,Info_measure_main_exp,2022.2.2,Win32,59.96282305,,,,,,,,,,,,,,,,,,masks/mask_001.jpg,,,,,,,,,,,,,,,,,,,,,,,,,,,,,,,,,,,,,,,,,,,0,4,4,0,1,,,,,,,,,,,,,,,,,,,,,,,,,,,,,,,,,,,,,,,,,,,,,,
669374,001,2022-11-21_24h01.35.016,Info_measure_main_exp,2022.2.2,Win32,59.96282305,,,,,,,,,,,,,,,,,,masks/mask_002.jpg,,,,,,,,,,,,,,,,,,,,,,,,,,,,,,,,,,,,,,,,,,,,,,,,0,0,0,1,1,,,,,,,,,,,,,,,,,,,,,,,,,,,,,,,,,,,,,,,,,
669374,001,2022-11-21_24h01.35.016,Info_measure_main_exp,2022.2.2,Win32,59.96282305,,,,,,,,,,,,,,,,,,masks/mask_004.jpg,,,,,,,,,,,,,,,,,,,,,,,,,,,,,,,,,,,,,,,,,,,,,,,,0,1,1,3,1,,,,,,,,,,,,,,,,,,,,,,,,,,,,,,,,,,,,,,,,,
669374,001,2022-11-21_24h01.35.016,Info_measure_main_exp,2022.2.2,Win32,59.96282305,,,,,,,,,,,,,,,,,,masks/mask_005.jpg,,,,,,,,,,,,,,,,,,,,,,,,,,,,,,,,,,,,,,,,,,,,,,,,0,2,2,4,1,,,,,,,,,,,,,,,,,,,,,,,,,,,,,,,,,,,,,,,,,
669374,001,2022-11-21_24h01.35.016,Info_measure_main_exp,2022.2.2,Win32,59.96282305,,,,,,,,,,,,,,,,,,masks/mask_001.jpg,,,,,,,,,,,,,,,,,,,,,,,,,,,,,,,,,,,,,,,,,,,,,,,,0,3,3,0,1,,,,,,,,,,,,,,,,,,,,,,,,,,,,,,,,,,,,,,,,,
669374,001,2022-11-21_24h01.35.016,Info_measure_main_exp,2022.2.2,Win32,59.96282305,,,,,,,,,,,,,,,,,,masks/mask_003.jpg,,,,,,,,,,,,,,,,,,,,,,,,,,,,,,,,,,,,,,,,,,,,,,,,0,4,4,2,1,,,,,,,,,,,,,,,,,,,,,,,,,,,,,,,,,,,,,,,,,
669374,001,2022-11-21_24h01.35.016,Info_measure_main_exp,2022.2.2,Win32,59.96282305,,,,,,,,,,,,,,,,,,,,,,,,,,,,,,3,0.9,1,,,,,,,,,,,,0,131,5,5,1950,2298,absent_patch/patch0001950.jpg,absent_patch/patch0002298.jpg,,,,,,,,,,,,,,,,,,,,-0.007311379,-0.047690303,1,0,0,response5disk,30,0.00731144,-0.011133287,1,0,0,center_square,0,29,29,18,1,,,,,,,,,,,,,,,,,,,,,,,
669374,001,2022-11-21_24h01.35.016,Info_measure_main_exp,2022.2.2,Win32,59.96282305,,,,,,,,,,,,,,,,,,masks/mask_001.jpg,,,,,,,,,,,,,,,,,,,,,,,,,,,,,,,,,,,,,,,,,,,0,0,0,0,1,,,,,,,,,,,,,,,,,,,,,,,,,,,,,,,,,,,,,,,,,,,,,,
669374,001,2022-11-21_24h01.35.016,Info_measure_main_exp,2022.2.2,Win32,59.96282305,,,,,,,,,,,,,,,,,,masks/mask_004.jpg,,,,,,,,,,,,,,,,,,,,,,,,,,,,,,,,,,,,,,,,,,,0,1,1,3,1,,,,,,,,,,,,,,,,,,,,,,,,,,,,,,,,,,,,,,,,,,,,,,
669374,001,2022-11-21_24h01.35.016,Info_measure_main_exp,2022.2.2,Win32,59.96282305,,,,,,,,,,,,,,,,,,masks/mask_005.jpg,,,,,,,,,,,,,,,,,,,,,,,,,,,,,,,,,,,,,,,,,,,0,2,2,4,1,,,,,,,,,,,,,,,,,,,,,,,,,,,,,,,,,,,,,,,,,,,,,,
669374,001,2022-11-21_24h01.35.016,Info_measure_main_exp,2022.2.2,Win32,59.96282305,,,,,,,,,,,,,,,,,,masks/mask_003.jpg,,,,,,,,,,,,,,,,,,,,,,,,,,,,,,,,,,,,,,,,,,,0,3,3,2,1,,,,,,,,,,,,,,,,,,,,,,,,,,,,,,,,,,,,,,,,,,,,,,
669374,001,2022-11-21_24h01.35.016,Info_measure_main_exp,2022.2.2,Win32,59.96282305,,,,,,,,,,,,,,,,,,masks/mask_002.jpg,,,,,,,,,,,,,,,,,,,,,,,,,,,,,,,,,,,,,,,,,,,0,4,4,1,1,,,,,,,,,,,,,,,,,,,,,,,,,,,,,,,,,,,,,,,,,,,,,,
669374,001,2022-11-21_24h01.35.016,Info_measure_main_exp,2022.2.2,Win32,59.96282305,,,,,,,,,,,,,,,,,,masks/mask_005.jpg,,,,,,,,,,,,,,,,,,,,,,,,,,,,,,,,,,,,,,,,,,,,,,,,0,0,0,4,1,,,,,,,,,,,,,,,,,,,,,,,,,,,,,,,,,,,,,,,,,
669374,001,2022-11-21_24h01.35.016,Info_measure_main_exp,2022.2.2,Win32,59.96282305,,,,,,,,,,,,,,,,,,masks/mask_001.jpg,,,,,,,,,,,,,,,,,,,,,,,,,,,,,,,,,,,,,,,,,,,,,,,,0,1,1,0,1,,,,,,,,,,,,,,,,,,,,,,,,,,,,,,,,,,,,,,,,,
669374,001,2022-11-21_24h01.35.016,Info_measure_main_exp,2022.2.2,Win32,59.96282305,,,,,,,,,,,,,,,,,,masks/mask_002.jpg,,,,,,,,,,,,,,,,,,,,,,,,,,,,,,,,,,,,,,,,,,,,,,,,0,2,2,1,1,,,,,,,,,,,,,,,,,,,,,,,,,,,,,,,,,,,,,,,,,
669374,001,2022-11-21_24h01.35.016,Info_measure_main_exp,2022.2.2,Win32,59.96282305,,,,,,,,,,,,,,,,,,masks/mask_003.jpg,,,,,,,,,,,,,,,,,,,,,,,,,,,,,,,,,,,,,,,,,,,,,,,,0,3,3,2,1,,,,,,,,,,,,,,,,,,,,,,,,,,,,,,,,,,,,,,,,,
669374,001,2022-11-21_24h01.35.016,Info_measure_main_exp,2022.2.2,Win32,59.96282305,,,,,,,,,,,,,,,,,,masks/mask_004.jpg,,,,,,,,,,,,,,,,,,,,,,,,,,,,,,,,,,,,,,,,,,,,,,,,0,4,4,3,1,,,,,,,,,,,,,,,,,,,,,,,,,,,,,,,,,,,,,,,,,
669374,001,2022-11-21_24h01.35.016,Info_measure_main_exp,2022.2.2,Win32,59.96282305,,,,,,,,,,,,,,,,,,,,,,,,,,,,,,0,0.817,1,,,,,,,,,,,,0,131,5,5,2274,2274,absent_patch/patch0002274.jpg,absent_patch/patch0002274.jpg,,,,,,,,,,,,,,,,,,,,-0.037221648,0.06596875,1,0,0,response7disk,31,-0.005982054,-0.00448654,1,0,0,center_square,0,30,30,114,1,,,,,,,,,,,,,,,,,,,,,,,
669374,001,2022-11-21_24h01.35.016,Info_measure_main_exp,2022.2.2,Win32,59.96282305,,,,,,,,,,,,,,,,,,masks/mask_004.jpg,,,,,,,,,,,,,,,,,,,,,,,,,,,,,,,,,,,,,,,,,,,0,0,0,3,1,,,,,,,,,,,,,,,,,,,,,,,,,,,,,,,,,,,,,,,,,,,,,,
669374,001,2022-11-21_24h01.35.016,Info_measure_main_exp,2022.2.2,Win32,59.96282305,,,,,,,,,,,,,,,,,,masks/mask_005.jpg,,,,,,,,,,,,,,,,,,,,,,,,,,,,,,,,,,,,,,,,,,,0,1,1,4,1,,,,,,,,,,,,,,,,,,,,,,,,,,,,,,,,,,,,,,,,,,,,,,
669374,001,2022-11-21_24h01.35.016,Info_measure_main_exp,2022.2.2,Win32,59.96282305,,,,,,,,,,,,,,,,,,masks/mask_003.jpg,,,,,,,,,,,,,,,,,,,,,,,,,,,,,,,,,,,,,,,,,,,0,2,2,2,1,,,,,,,,,,,,,,,,,,,,,,,,,,,,,,,,,,,,,,,,,,,,,,
669374,001,2022-11-21_24h01.35.016,Info_measure_main_exp,2022.2.2,Win32,59.96282305,,,,,,,,,,,,,,,,,,masks/mask_002.jpg,,,,,,,,,,,,,,,,,,,,,,,,,,,,,,,,,,,,,,,,,,,0,3,3,1,1,,,,,,,,,,,,,,,,,,,,,,,,,,,,,,,,,,,,,,,,,,,,,,
669374,001,2022-11-21_24h01.35.016,Info_measure_main_exp,2022.2.2,Win32,59.96282305,,,,,,,,,,,,,,,,,,masks/mask_001.jpg,,,,,,,,,,,,,,,,,,,,,,,,,,,,,,,,,,,,,,,,,,,0,4,4,0,1,,,,,,,,,,,,,,,,,,,,,,,,,,,,,,,,,,,,,,,,,,,,,,
669374,001,2022-11-21_24h01.35.016,Info_measure_main_exp,2022.2.2,Win32,59.96282305,,,,,,,,,,,,,,,,,,masks/mask_005.jpg,,,,,,,,,,,,,,,,,,,,,,,,,,,,,,,,,,,,,,,,,,,,,,,,0,0,0,4,1,,,,,,,,,,,,,,,,,,,,,,,,,,,,,,,,,,,,,,,,,
669374,001,2022-11-21_24h01.35.016,Info_measure_main_exp,2022.2.2,Win32,59.96282305,,,,,,,,,,,,,,,,,,masks/mask_001.jpg,,,,,,,,,,,,,,,,,,,,,,,,,,,,,,,,,,,,,,,,,,,,,,,,0,1,1,0,1,,,,,,,,,,,,,,,,,,,,,,,,,,,,,,,,,,,,,,,,,
669374,001,2022-11-21_24h01.35.016,Info_measure_main_exp,2022.2.2,Win32,59.96282305,,,,,,,,,,,,,,,,,,masks/mask_003.jpg,,,,,,,,,,,,,,,,,,,,,,,,,,,,,,,,,,,,,,,,,,,,,,,,0,2,2,2,1,,,,,,,,,,,,,,,,,,,,,,,,,,,,,,,,,,,,,,,,,
669374,001,2022-11-21_24h01.35.016,Info_measure_main_exp,2022.2.2,Win32,59.96282305,,,,,,,,,,,,,,,,,,masks/mask_002.jpg,,,,,,,,,,,,,,,,,,,,,,,,,,,,,,,,,,,,,,,,,,,,,,,,0,3,3,1,1,,,,,,,,,,,,,,,,,,,,,,,,,,,,,,,,,,,,,,,,,
669374,001,2022-11-21_24h01.35.016,Info_measure_main_exp,2022.2.2,Win32,59.96282305,,,,,,,,,,,,,,,,,,masks/mask_004.jpg,,,,,,,,,,,,,,,,,,,,,,,,,,,,,,,,,,,,,,,,,,,,,,,,0,4,4,3,1,,,,,,,,,,,,,,,,,,,,,,,,,,,,,,,,,,,,,,,,,
669374,001,2022-11-21_24h01.35.016,Info_measure_main_exp,2022.2.2,Win32,59.96282305,,,,,,,,,,,,,,,,,,,,,,,,,,,,,,5,1.2334,1,,,,,,,,,,,,0,131,5,5,2238,2214,absent_patch/patch0002238.jpg,absent_patch/patch0002214.jpg,,,,,,,,,,,,,,,,,,,,0.113659023,-0.022432702,1,0,0,response3disk,32,-0.005982054,0.005483549,1,0,0,center_square,0,31,31,81,1,,,,,,,,,,,,,,,,,,,,,,,
669374,001,2022-11-21_24h01.35.016,Info_measure_main_exp,2022.2.2,Win32,59.96282305,,,,,,,,,,,,,,,,,,masks/mask_003.jpg,,,,,,,,,,,,,,,,,,,,,,,,,,,,,,,,,,,,,,,,,,,0,0,0,2,1,,,,,,,,,,,,,,,,,,,,,,,,,,,,,,,,,,,,,,,,,,,,,,
669374,001,2022-11-21_24h01.35.016,Info_measure_main_exp,2022.2.2,Win32,59.96282305,,,,,,,,,,,,,,,,,,masks/mask_005.jpg,,,,,,,,,,,,,,,,,,,,,,,,,,,,,,,,,,,,,,,,,,,0,1,1,4,1,,,,,,,,,,,,,,,,,,,,,,,,,,,,,,,,,,,,,,,,,,,,,,
669374,001,2022-11-21_24h01.35.016,Info_measure_main_exp,2022.2.2,Win32,59.96282305,,,,,,,,,,,,,,,,,,masks/mask_004.jpg,,,,,,,,,,,,,,,,,,,,,,,,,,,,,,,,,,,,,,,,,,,0,2,2,3,1,,,,,,,,,,,,,,,,,,,,,,,,,,,,,,,,,,,,,,,,,,,,,,
669374,001,2022-11-21_24h01.35.016,Info_measure_main_exp,2022.2.2,Win32,59.96282305,,,,,,,,,,,,,,,,,,masks/mask_001.jpg,,,,,,,,,,,,,,,,,,,,,,,,,,,,,,,,,,,,,,,,,,,0,3,3,0,1,,,,,,,,,,,,,,,,,,,,,,,,,,,,,,,,,,,,,,,,,,,,,,
669374,001,2022-11-21_24h01.35.016,Info_measure_main_exp,2022.2.2,Win32,59.96282305,,,,,,,,,,,,,,,,,,masks/mask_002.jpg,,,,,,,,,,,,,,,,,,,,,,,,,,,,,,,,,,,,,,,,,,,0,4,4,1,1,,,,,,,,,,,,,,,,,,,,,,,,,,,,,,,,,,,,,,,,,,,,,,
669374,001,2022-11-21_24h01.35.016,Info_measure_main_exp,2022.2.2,Win32,59.96282305,,,,,,,,,,,,,,,,,,masks/mask_004.jpg,,,,,,,,,,,,,,,,,,,,,,,,,,,,,,,,,,,,,,,,,,,,,,,,0,0,0,3,1,,,,,,,,,,,,,,,,,,,,,,,,,,,,,,,,,,,,,,,,,
669374,001,2022-11-21_24h01.35.016,Info_measure_main_exp,2022.2.2,Win32,59.96282305,,,,,,,,,,,,,,,,,,masks/mask_001.jpg,,,,,,,,,,,,,,,,,,,,,,,,,,,,,,,,,,,,,,,,,,,,,,,,0,1,1,0,1,,,,,,,,,,,,,,,,,,,,,,,,,,,,,,,,,,,,,,,,,
669374,001,2022-11-21_24h01.35.016,Info_measure_main_exp,2022.2.2,Win32,59.96282305,,,,,,,,,,,,,,,,,,masks/mask_005.jpg,,,,,,,,,,,,,,,,,,,,,,,,,,,,,,,,,,,,,,,,,,,,,,,,0,2,2,4,1,,,,,,,,,,,,,,,,,,,,,,,,,,,,,,,,,,,,,,,,,
669374,001,2022-11-21_24h01.35.016,Info_measure_main_exp,2022.2.2,Win32,59.96282305,,,,,,,,,,,,,,,,,,masks/mask_002.jpg,,,,,,,,,,,,,,,,,,,,,,,,,,,,,,,,,,,,,,,,,,,,,,,,0,3,3,1,1,,,,,,,,,,,,,,,,,,,,,,,,,,,,,,,,,,,,,,,,,
669374,001,2022-11-21_24h01.35.016,Info_measure_main_exp,2022.2.2,Win32,59.96282305,,,,,,,,,,,,,,,,,,masks/mask_003.jpg,,,,,,,,,,,,,,,,,,,,,,,,,,,,,,,,,,,,,,,,,,,,,,,,0,4,4,2,1,,,,,,,,,,,,,,,,,,,,,,,,,,,,,,,,,,,,,,,,,
669374,001,2022-11-21_24h01.35.016,Info_measure_main_exp,2022.2.2,Win32,59.96282305,,,,,,,,,,,,,,,,,,,,,,,,,,,,,,6,1.984,1,,,,,,,,,,,,0,131,5,5,2250,2214,absent_patch/patch0002250.jpg,absent_patch/patch0002214.jpg,,,,,,,,,,,,,,,,,,,,0.142239967,0.084579574,1,0,0,response1disk,33,0.006646747,-0.001163197,1,0,0,center_square,0,32,32,97,1,,,,,,,,,,,,,,,,,,,,,,,
669374,001,2022-11-21_24h01.35.016,Info_measure_main_exp,2022.2.2,Win32,59.96282305,,,,,,,,,,,,,,,,,,masks/mask_002.jpg,,,,,,,,,,,,,,,,,,,,,,,,,,,,,,,,,,,,,,,,,,,0,0,0,1,1,,,,,,,,,,,,,,,,,,,,,,,,,,,,,,,,,,,,,,,,,,,,,,
669374,001,2022-11-21_24h01.35.016,Info_measure_main_exp,2022.2.2,Win32,59.96282305,,,,,,,,,,,,,,,,,,masks/mask_005.jpg,,,,,,,,,,,,,,,,,,,,,,,,,,,,,,,,,,,,,,,,,,,0,1,1,4,1,,,,,,,,,,,,,,,,,,,,,,,,,,,,,,,,,,,,,,,,,,,,,,
669374,001,2022-11-21_24h01.35.016,Info_measure_main_exp,2022.2.2,Win32,59.96282305,,,,,,,,,,,,,,,,,,masks/mask_003.jpg,,,,,,,,,,,,,,,,,,,,,,,,,,,,,,,,,,,,,,,,,,,0,2,2,2,1,,,,,,,,,,,,,,,,,,,,,,,,,,,,,,,,,,,,,,,,,,,,,,
669374,001,2022-11-21_24h01.35.016,Info_measure_main_exp,2022.2.2,Win32,59.96282305,,,,,,,,,,,,,,,,,,masks/mask_004.jpg,,,,,,,,,,,,,,,,,,,,,,,,,,,,,,,,,,,,,,,,,,,0,3,3,3,1,,,,,,,,,,,,,,,,,,,,,,,,,,,,,,,,,,,,,,,,,,,,,,
669374,001,2022-11-21_24h01.35.016,Info_measure_main_exp,2022.2.2,Win32,59.96282305,,,,,,,,,,,,,,,,,,masks/mask_001.jpg,,,,,,,,,,,,,,,,,,,,,,,,,,,,,,,,,,,,,,,,,,,0,4,4,0,1,,,,,,,,,,,,,,,,,,,,,,,,,,,,,,,,,,,,,,,,,,,,,,
669374,001,2022-11-21_24h01.35.016,Info_measure_main_exp,2022.2.2,Win32,59.96282305,,,,,,,,,,,,,,,,,,masks/mask_005.jpg,,,,,,,,,,,,,,,,,,,,,,,,,,,,,,,,,,,,,,,,,,,,,,,,0,0,0,4,1,,,,,,,,,,,,,,,,,,,,,,,,,,,,,,,,,,,,,,,,,
669374,001,2022-11-21_24h01.35.016,Info_measure_main_exp,2022.2.2,Win32,59.96282305,,,,,,,,,,,,,,,,,,masks/mask_004.jpg,,,,,,,,,,,,,,,,,,,,,,,,,,,,,,,,,,,,,,,,,,,,,,,,0,1,1,3,1,,,,,,,,,,,,,,,,,,,,,,,,,,,,,,,,,,,,,,,,,
669374,001,2022-11-21_24h01.35.016,Info_measure_main_exp,2022.2.2,Win32,59.96282305,,,,,,,,,,,,,,,,,,masks/mask_003.jpg,,,,,,,,,,,,,,,,,,,,,,,,,,,,,,,,,,,,,,,,,,,,,,,,0,2,2,2,1,,,,,,,,,,,,,,,,,,,,,,,,,,,,,,,,,,,,,,,,,
669374,001,2022-11-21_24h01.35.016,Info_measure_main_exp,2022.2.2,Win32,59.96282305,,,,,,,,,,,,,,,,,,masks/mask_001.jpg,,,,,,,,,,,,,,,,,,,,,,,,,,,,,,,,,,,,,,,,,,,,,,,,0,3,3,0,1,,,,,,,,,,,,,,,,,,,,,,,,,,,,,,,,,,,,,,,,,
669374,001,2022-11-21_24h01.35.016,Info_measure_main_exp,2022.2.2,Win32,59.96282305,,,,,,,,,,,,,,,,,,masks/mask_002.jpg,,,,,,,,,,,,,,,,,,,,,,,,,,,,,,,,,,,,,,,,,,,,,,,,0,4,4,1,1,,,,,,,,,,,,,,,,,,,,,,,,,,,,,,,,,,,,,,,,,
669374,001,2022-11-21_24h01.35.016,Info_measure_main_exp,2022.2.2,Win32,59.96282305,,,,,,,,,,,,,,,,,,,,,,,,,,,,,,2,1.2996,1,,,,,,,,,,,,0,131,5,5,2298,2142,absent_patch/patch0002298.jpg,absent_patch/patch0002142.jpg,,,,,,,,,,,,,,,,,,,,-0.125623131,-0.035726195,1,0,0,response5disk,34,-0.005317361,0.000830821,1,0,0,center_square,0,33,33,49,1,,,,,,,,,,,,,,,,,,,,,,,
669374,001,2022-11-21_24h01.35.016,Info_measure_main_exp,2022.2.2,Win32,59.96282305,,,,,,,,,,,,,,,,,,masks/mask_001.jpg,,,,,,,,,,,,,,,,,,,,,,,,,,,,,,,,,,,,,,,,,,,0,0,0,0,1,,,,,,,,,,,,,,,,,,,,,,,,,,,,,,,,,,,,,,,,,,,,,,
669374,001,2022-11-21_24h01.35.016,Info_measure_main_exp,2022.2.2,Win32,59.96282305,,,,,,,,,,,,,,,,,,masks/mask_002.jpg,,,,,,,,,,,,,,,,,,,,,,,,,,,,,,,,,,,,,,,,,,,0,1,1,1,1,,,,,,,,,,,,,,,,,,,,,,,,,,,,,,,,,,,,,,,,,,,,,,
669374,001,2022-11-21_24h01.35.016,Info_measure_main_exp,2022.2.2,Win32,59.96282305,,,,,,,,,,,,,,,,,,masks/mask_003.jpg,,,,,,,,,,,,,,,,,,,,,,,,,,,,,,,,,,,,,,,,,,,0,2,2,2,1,,,,,,,,,,,,,,,,,,,,,,,,,,,,,,,,,,,,,,,,,,,,,,
669374,001,2022-11-21_24h01.35.016,Info_measure_main_exp,2022.2.2,Win32,59.96282305,,,,,,,,,,,,,,,,,,masks/mask_004.jpg,,,,,,,,,,,,,,,,,,,,,,,,,,,,,,,,,,,,,,,,,,,0,3,3,3,1,,,,,,,,,,,,,,,,,,,,,,,,,,,,,,,,,,,,,,,,,,,,,,
669374,001,2022-11-21_24h01.35.016,Info_measure_main_exp,2022.2.2,Win32,59.96282305,,,,,,,,,,,,,,,,,,masks/mask_005.jpg,,,,,,,,,,,,,,,,,,,,,,,,,,,,,,,,,,,,,,,,,,,0,4,4,4,1,,,,,,,,,,,,,,,,,,,,,,,,,,,,,,,,,,,,,,,,,,,,,,
669374,001,2022-11-21_24h01.35.016,Info_measure_main_exp,2022.2.2,Win32,59.96282305,,,,,,,,,,,,,,,,,,masks/mask_003.jpg,,,,,,,,,,,,,,,,,,,,,,,,,,,,,,,,,,,,,,,,,,,,,,,,0,0,0,2,1,,,,,,,,,,,,,,,,,,,,,,,,,,,,,,,,,,,,,,,,,
669374,001,2022-11-21_24h01.35.016,Info_measure_main_exp,2022.2.2,Win32,59.96282305,,,,,,,,,,,,,,,,,,masks/mask_004.jpg,,,,,,,,,,,,,,,,,,,,,,,,,,,,,,,,,,,,,,,,,,,,,,,,0,1,1,3,1,,,,,,,,,,,,,,,,,,,,,,,,,,,,,,,,,,,,,,,,,
669374,001,2022-11-21_24h01.35.016,Info_measure_main_exp,2022.2.2,Win32,59.96282305,,,,,,,,,,,,,,,,,,masks/mask_005.jpg,,,,,,,,,,,,,,,,,,,,,,,,,,,,,,,,,,,,,,,,,,,,,,,,0,2,2,4,1,,,,,,,,,,,,,,,,,,,,,,,,,,,,,,,,,,,,,,,,,
669374,001,2022-11-21_24h01.35.016,Info_measure_main_exp,2022.2.2,Win32,59.96282305,,,,,,,,,,,,,,,,,,masks/mask_002.jpg,,,,,,,,,,,,,,,,,,,,,,,,,,,,,,,,,,,,,,,,,,,,,,,,0,3,3,1,1,,,,,,,,,,,,,,,,,,,,,,,,,,,,,,,,,,,,,,,,,
