participant,session,date,expName,psychopyVersion,OS,frameRate,space_press_continue.keys,space_press_continue.rt,space_press_continue_2.keys,space_press_continue_2.rt,space_press_continue_3.keys,space_press_continue_3.rt,space_press_continue_4.keys,space_press_continue_4.rt,space_press_continue_5.keys,space_press_continue_5.rt,space_press_continue_6.keys,space_press_continue_6.rt,prac_mask_loop_1.thisRepN,prac_mask_loop_1.thisTrialN,prac_mask_loop_1.thisN,prac_mask_loop_1.thisIndex,prac_mask_loop_1.ran,mask_name,prac_mask_loop_2.thisRepN,prac_mask_loop_2.thisTrialN,prac_mask_loop_2.thisN,prac_mask_loop_2.thisIndex,prac_mask_loop_2.ran,mouse_2.x,mouse_2.y,mouse_2.leftButton,mouse_2.midButton,mouse_2.rightButton,mouse_2.clicked_name,similarity,response_time,Pass,mouse_12.x,mouse_12.y,mouse_12.leftButton,mouse_12.midButton,mouse_12.rightButton,mouse_12.clicked_name,prac_loop.thisRepN,prac_loop.thisTrialN,prac_loop.thisN,prac_loop.thisIndex,prac_loop.ran,Pair_type,Image_num,Patch_1_loc,Patch_2_loc,Patch_1_info,Patch_2_info,Patch_1_name,Patch_2_name,mouse_1.x,mouse_1.y,mouse_1.leftButton,mouse_1.midButton,mouse_1.rightButton,mouse_1.time,mouse_1.clicked_name,space_press_continue_7.keys,space_press_continue_7.rt,mask_loop.thisRepN,mask_loop.thisTrialN,mask_loop.thisN,mask_loop.thisIndex,mask_loop.ran,mask_loop_2.thisRepN,mask_loop_2.thisTrialN,mask_loop_2.thisN,mask_loop_2.thisIndex,mask_loop_2.ran,mouse.x,mouse.y,mouse.leftButton,mouse.midButton,mouse.rightButton,mouse.clicked_name,trialNumber,mouse_11.x,mouse_11.y,mouse_11.leftButton,mouse_11.midButton,mouse_11.rightButton,mouse_11.clicked_name,first_pass_loop.thisRepN,first_pass_loop.thisTrialN,first_pass_loop.thisN,first_pass_loop.thisIndex,first_pass_loop.ran,mask_loop_3.thisRepN,mask_loop_3.thisTrialN,mask_loop_3.thisN,mask_loop_3.thisIndex,mask_loop_3.ran,mask_loop_4.thisRepN,mask_loop_4.thisTrialN,mask_loop_4.thisN,mask_loop_4.thisIndex,mask_loop_4.ran,mouse_3.x,mouse_3.y,mouse_3.leftButton,mouse_3.midButton,mouse_3.rightButton,mouse_3.clicked_name,double_pass_loop.thisRepN,double_pass_loop.thisTrialN,double_pass_loop.thisN,double_pass_loop.thisIndex,double_pass_loop.ran,space_exit.keys,space_exit.rt
670798,001,2022-11-20_16h52.26.496,Info_measure_main_exp,2022.2.2,Win32,60.13590715,,,,,,,,,,,,,,,,,,,,,,,,,,,,,,,,,,,,,,,,,,,,,,,,,,,,,,,,,,,,,,,,,,,,,,,,,,,,,,,,,,,,,,,,,,,,,,,,,,,,,,,,,,,,,,,
670798,001,2022-11-20_16h52.26.496,Info_measure_main_exp,2022.2.2,Win32,60.13590715,,,,,,,,,,,,,,,,,,,,,,,,,,,,,,,,,,,,,,,,,,,,,,,,,,,,,,,,,,,,,,,,,,,,,,,,,,,,,,,,,,,,,,,,,,,,,,,,,,,,,,,,,,,,,,,
670798,001,2022-11-20_16h52.26.496,Info_measure_main_exp,2022.2.2,Win32,60.13590715,space,8.0275,,,,,,,,,,,,,,,,,,,,,,,,,,,,,,,,,,,,,,,,,,,,,,,,,,,,,,,,,,,,,,,,,,,,,,,,,,,,,,,,,,,,,,,,,,,,,,,,,,,,,,,,,,,,,
670798,001,2022-11-20_16h52.26.496,Info_measure_main_exp,2022.2.2,Win32,60.13590715,,,space,17.3523,,,,,,,,,,,,,,,,,,,,,,,,,,,,,,,,,,,,,,,,,,,,,,,,,,,,,,,,,,,,,,,,,,,,,,,,,,,,,,,,,,,,,,,,,,,,,,,,,,,,,,,,,,,
670798,001,2022-11-20_16h52.26.496,Info_measure_main_exp,2022.2.2,Win32,60.13590715,,,,,space,10.7628,,,,,,,,,,,,,,,,,,,,,,,,,,,,,,,,,,,,,,,,,,,,,,,,,,,,,,,,,,,,,,,,,,,,,,,,,,,,,,,,,,,,,,,,,,,,,,,,,,,,,,,,,
670798,001,2022-11-20_16h52.26.496,Info_measure_main_exp,2022.2.2,Win32,60.13590715,,,,,,,space,32.8453,,,,,,,,,,,,,,,,,,,,,,,,,,,,,,,,,,,,,,,,,,,,,,,,,,,,,,,,,,,,,,,,,,,,,,,,,,,,,,,,,,,,,,,,,,,,,,,,,,,,,,,
670798,001,2022-11-20_16h52.26.496,Info_measure_main_exp,2022.2.2,Win32,60.13590715,,,,,,,,,space,16.4145,,,,,,,,,,,,,,,,,,,,,,,,,,,,,,,,,,,,,,,,,,,,,,,,,,,,,,,,,,,,,,,,,,,,,,,,,,,,,,,,,,,,,,,,,,,,,,,,,,,,,
670798,001,2022-11-20_16h52.26.496,Info_measure_main_exp,2022.2.2,Win32,60.13590715,,,,,,,,,,,space,9.0034,,,,,,,,,,,,,,,,,,,,,,,,,,,,,,,,,,,,,,,,,,,,,,,,,,,,,,,,,,,,,,,,,,,,,,,,,,,,,,,,,,,,,,,,,,,,,,,,,,,
670798,001,2022-11-20_16h52.26.496,Info_measure_main_exp,2022.2.2,Win32,60.13590715,,,,,,,,,,,,,0,0,0,3,1,masks/mask_004.jpg,,,,,,,,,,,,,,,,,,,,,,,,,,,,,,,,,,,,,,,,,,,,,,,,,,,,,,,,,,,,,,,,,,,,,,,,,,,,,,,,,,,,,,,,,,,,,
670798,001,2022-11-20_16h52.26.496,Info_measure_main_exp,2022.2.2,Win32,60.13590715,,,,,,,,,,,,,0,1,1,2,1,masks/mask_003.jpg,,,,,,,,,,,,,,,,,,,,,,,,,,,,,,,,,,,,,,,,,,,,,,,,,,,,,,,,,,,,,,,,,,,,,,,,,,,,,,,,,,,,,,,,,,,,,
670798,001,2022-11-20_16h52.26.496,Info_measure_main_exp,2022.2.2,Win32,60.13590715,,,,,,,,,,,,,0,2,2,4,1,masks/mask_005.jpg,,,,,,,,,,,,,,,,,,,,,,,,,,,,,,,,,,,,,,,,,,,,,,,,,,,,,,,,,,,,,,,,,,,,,,,,,,,,,,,,,,,,,,,,,,,,,
670798,001,2022-11-20_16h52.26.496,Info_measure_main_exp,2022.2.2,Win32,60.13590715,,,,,,,,,,,,,0,3,3,0,1,masks/mask_001.jpg,,,,,,,,,,,,,,,,,,,,,,,,,,,,,,,,,,,,,,,,,,,,,,,,,,,,,,,,,,,,,,,,,,,,,,,,,,,,,,,,,,,,,,,,,,,,,
670798,001,2022-11-20_16h52.26.496,Info_measure_main_exp,2022.2.2,Win32,60.13590715,,,,,,,,,,,,,0,4,4,1,1,masks/mask_002.jpg,,,,,,,,,,,,,,,,,,,,,,,,,,,,,,,,,,,,,,,,,,,,,,,,,,,,,,,,,,,,,,,,,,,,,,,,,,,,,,,,,,,,,,,,,,,,,
670798,001,2022-11-20_16h52.26.496,Info_measure_main_exp,2022.2.2,Win32,60.13590715,,,,,,,,,,,,,,,,,,masks/mask_004.jpg,0,0,0,3,1,,,,,,,,,,,,,,,,,,,,,,,,,,,,,,,,,,,,,,,,,,,,,,,,,,,,,,,,,,,,,,,,,,,,,,,,,,,,,,,,,,,,,,,,
670798,001,2022-11-20_16h52.26.496,Info_measure_main_exp,2022.2.2,Win32,60.13590715,,,,,,,,,,,,,,,,,,masks/mask_002.jpg,0,1,1,1,1,,,,,,,,,,,,,,,,,,,,,,,,,,,,,,,,,,,,,,,,,,,,,,,,,,,,,,,,,,,,,,,,,,,,,,,,,,,,,,,,,,,,,,,,
670798,001,2022-11-20_16h52.26.496,Info_measure_main_exp,2022.2.2,Win32,60.13590715,,,,,,,,,,,,,,,,,,masks/mask_003.jpg,0,2,2,2,1,,,,,,,,,,,,,,,,,,,,,,,,,,,,,,,,,,,,,,,,,,,,,,,,,,,,,,,,,,,,,,,,,,,,,,,,,,,,,,,,,,,,,,,,
670798,001,2022-11-20_16h52.26.496,Info_measure_main_exp,2022.2.2,Win32,60.13590715,,,,,,,,,,,,,,,,,,masks/mask_005.jpg,0,3,3,4,1,,,,,,,,,,,,,,,,,,,,,,,,,,,,,,,,,,,,,,,,,,,,,,,,,,,,,,,,,,,,,,,,,,,,,,,,,,,,,,,,,,,,,,,,
670798,001,2022-11-20_16h52.26.496,Info_measure_main_exp,2022.2.2,Win32,60.13590715,,,,,,,,,,,,,,,,,,masks/mask_001.jpg,0,4,4,0,1,,,,,,,,,,,,,,,,,,,,,,,,,,,,,,,,,,,,,,,,,,,,,,,,,,,,,,,,,,,,,,,,,,,,,,,,,,,,,,,,,,,,,,,,
670798,001,2022-11-20_16h52.26.496,Info_measure_main_exp,2022.2.2,Win32,60.13590715,,,,,,,,,,,,,,,,,,,,,,,,-0.061197917,0.126302083,1,0,0,response7disk,0,99.9308,1,0.001302083,0.006510417,1,0,0,center_square,0,0,0,2,1,0,131,5,5,2526,2526,prac_patch/patch0002526.jpg,prac_patch/patch0002526.jpg,,,,,,,,,,,,,,,,,,,,,,,,,,,,,,,,,,,,,,,,,,,,,,,,,,,,,,,,,,,,
670798,001,2022-11-20_16h52.26.496,Info_measure_main_exp,2022.2.2,Win32,60.13590715,,,,,,,,,,,,,0,0,0,4,1,masks/mask_005.jpg,,,,,,,,,,,,,,,,,,,,,,,,,,,,,,,,,,,,,,,,,,,,,,,,,,,,,,,,,,,,,,,,,,,,,,,,,,,,,,,,,,,,,,,,,,,,,
670798,001,2022-11-20_16h52.26.496,Info_measure_main_exp,2022.2.2,Win32,60.13590715,,,,,,,,,,,,,0,1,1,1,1,masks/mask_002.jpg,,,,,,,,,,,,,,,,,,,,,,,,,,,,,,,,,,,,,,,,,,,,,,,,,,,,,,,,,,,,,,,,,,,,,,,,,,,,,,,,,,,,,,,,,,,,,
670798,001,2022-11-20_16h52.26.496,Info_measure_main_exp,2022.2.2,Win32,60.13590715,,,,,,,,,,,,,0,2,2,3,1,masks/mask_004.jpg,,,,,,,,,,,,,,,,,,,,,,,,,,,,,,,,,,,,,,,,,,,,,,,,,,,,,,,,,,,,,,,,,,,,,,,,,,,,,,,,,,,,,,,,,,,,,
670798,001,2022-11-20_16h52.26.496,Info_measure_main_exp,2022.2.2,Win32,60.13590715,,,,,,,,,,,,,0,3,3,2,1,masks/mask_003.jpg,,,,,,,,,,,,,,,,,,,,,,,,,,,,,,,,,,,,,,,,,,,,,,,,,,,,,,,,,,,,,,,,,,,,,,,,,,,,,,,,,,,,,,,,,,,,,
670798,001,2022-11-20_16h52.26.496,Info_measure_main_exp,2022.2.2,Win32,60.13590715,,,,,,,,,,,,,0,4,4,0,1,masks/mask_001.jpg,,,,,,,,,,,,,,,,,,,,,,,,,,,,,,,,,,,,,,,,,,,,,,,,,,,,,,,,,,,,,,,,,,,,,,,,,,,,,,,,,,,,,,,,,,,,,
670798,001,2022-11-20_16h52.26.496,Info_measure_main_exp,2022.2.2,Win32,60.13590715,,,,,,,,,,,,,,,,,,masks/mask_005.jpg,0,0,0,4,1,,,,,,,,,,,,,,,,,,,,,,,,,,,,,,,,,,,,,,,,,,,,,,,,,,,,,,,,,,,,,,,,,,,,,,,,,,,,,,,,,,,,,,,,
670798,001,2022-11-20_16h52.26.496,Info_measure_main_exp,2022.2.2,Win32,60.13590715,,,,,,,,,,,,,,,,,,masks/mask_003.jpg,0,1,1,2,1,,,,,,,,,,,,,,,,,,,,,,,,,,,,,,,,,,,,,,,,,,,,,,,,,,,,,,,,,,,,,,,,,,,,,,,,,,,,,,,,,,,,,,,,
670798,001,2022-11-20_16h52.26.496,Info_measure_main_exp,2022.2.2,Win32,60.13590715,,,,,,,,,,,,,,,,,,masks/mask_002.jpg,0,2,2,1,1,,,,,,,,,,,,,,,,,,,,,,,,,,,,,,,,,,,,,,,,,,,,,,,,,,,,,,,,,,,,,,,,,,,,,,,,,,,,,,,,,,,,,,,,
670798,001,2022-11-20_16h52.26.496,Info_measure_main_exp,2022.2.2,Win32,60.13590715,,,,,,,,,,,,,,,,,,masks/mask_001.jpg,0,3,3,0,1,,,,,,,,,,,,,,,,,,,,,,,,,,,,,,,,,,,,,,,,,,,,,,,,,,,,,,,,,,,,,,,,,,,,,,,,,,,,,,,,,,,,,,,,
670798,001,2022-11-20_16h52.26.496,Info_measure_main_exp,2022.2.2,Win32,60.13590715,,,,,,,,,,,,,,,,,,masks/mask_004.jpg,0,4,4,3,1,,,,,,,,,,,,,,,,,,,,,,,,,,,,,,,,,,,,,,,,,,,,,,,,,,,,,,,,,,,,,,,,,,,,,,,,,,,,,,,,,,,,,,,,
670798,001,2022-11-20_16h52.26.496,Info_measure_main_exp,2022.2.2,Win32,60.13590715,,,,,,,,,,,,,,,,,,,,,,,,0.052083333,0.119791667,1,0,0,response1disk,7,114.9204,1,0.00390625,-0.00390625,1,0,0,center_square,0,1,1,1,1,0,131,5,5,2514,2490,prac_patch/patch0002514.jpg,prac_patch/patch0002490.jpg,,,,,,,,,,,,,,,,,,,,,,,,,,,,,,,,,,,,,,,,,,,,,,,,,,,,,,,,,,,,
670798,001,2022-11-20_16h52.26.496,Info_measure_main_exp,2022.2.2,Win32,60.13590715,,,,,,,,,,,,,0,0,0,0,1,masks/mask_001.jpg,,,,,,,,,,,,,,,,,,,,,,,,,,,,,,,,,,,,,,,,,,,,,,,,,,,,,,,,,,,,,,,,,,,,,,,,,,,,,,,,,,,,,,,,,,,,,
670798,001,2022-11-20_16h52.26.496,Info_measure_main_exp,2022.2.2,Win32,60.13590715,,,,,,,,,,,,,0,1,1,1,1,masks/mask_002.jpg,,,,,,,,,,,,,,,,,,,,,,,,,,,,,,,,,,,,,,,,,,,,,,,,,,,,,,,,,,,,,,,,,,,,,,,,,,,,,,,,,,,,,,,,,,,,,
670798,001,2022-11-20_16h52.26.496,Info_measure_main_exp,2022.2.2,Win32,60.13590715,,,,,,,,,,,,,0,2,2,3,1,masks/mask_004.jpg,,,,,,,,,,,,,,,,,,,,,,,,,,,,,,,,,,,,,,,,,,,,,,,,,,,,,,,,,,,,,,,,,,,,,,,,,,,,,,,,,,,,,,,,,,,,,
670798,001,2022-11-20_16h52.26.496,Info_measure_main_exp,2022.2.2,Win32,60.13590715,,,,,,,,,,,,,0,3,3,4,1,masks/mask_005.jpg,,,,,,,,,,,,,,,,,,,,,,,,,,,,,,,,,,,,,,,,,,,,,,,,,,,,,,,,,,,,,,,,,,,,,,,,,,,,,,,,,,,,,,,,,,,,,
670798,001,2022-11-20_16h52.26.496,Info_measure_main_exp,2022.2.2,Win32,60.13590715,,,,,,,,,,,,,0,4,4,2,1,masks/mask_003.jpg,,,,,,,,,,,,,,,,,,,,,,,,,,,,,,,,,,,,,,,,,,,,,,,,,,,,,,,,,,,,,,,,,,,,,,,,,,,,,,,,,,,,,,,,,,,,,
670798,001,2022-11-20_16h52.26.496,Info_measure_main_exp,2022.2.2,Win32,60.13590715,,,,,,,,,,,,,,,,,,masks/mask_003.jpg,0,0,0,2,1,,,,,,,,,,,,,,,,,,,,,,,,,,,,,,,,,,,,,,,,,,,,,,,,,,,,,,,,,,,,,,,,,,,,,,,,,,,,,,,,,,,,,,,,
670798,001,2022-11-20_16h52.26.496,Info_measure_main_exp,2022.2.2,Win32,60.13590715,,,,,,,,,,,,,,,,,,masks/mask_002.jpg,0,1,1,1,1,,,,,,,,,,,,,,,,,,,,,,,,,,,,,,,,,,,,,,,,,,,,,,,,,,,,,,,,,,,,,,,,,,,,,,,,,,,,,,,,,,,,,,,,
670798,001,2022-11-20_16h52.26.496,Info_measure_main_exp,2022.2.2,Win32,60.13590715,,,,,,,,,,,,,,,,,,masks/mask_001.jpg,0,2,2,0,1,,,,,,,,,,,,,,,,,,,,,,,,,,,,,,,,,,,,,,,,,,,,,,,,,,,,,,,,,,,,,,,,,,,,,,,,,,,,,,,,,,,,,,,,
670798,001,2022-11-20_16h52.26.496,Info_measure_main_exp,2022.2.2,Win32,60.13590715,,,,,,,,,,,,,,,,,,masks/mask_004.jpg,0,3,3,3,1,,,,,,,,,,,,,,,,,,,,,,,,,,,,,,,,,,,,,,,,,,,,,,,,,,,,,,,,,,,,,,,,,,,,,,,,,,,,,,,,,,,,,,,,
670798,001,2022-11-20_16h52.26.496,Info_measure_main_exp,2022.2.2,Win32,60.13590715,,,,,,,,,,,,,,,,,,masks/mask_005.jpg,0,4,4,4,1,,,,,,,,,,,,,,,,,,,,,,,,,,,,,,,,,,,,,,,,,,,,,,,,,,,,,,,,,,,,,,,,,,,,,,,,,,,,,,,,,,,,,,,,
670798,001,2022-11-20_16h52.26.496,Info_measure_main_exp,2022.2.2,Win32,60.13590715,,,,,,,,,,,,,,,,,,,,,,,,0.045572917,0.100260417,1,0,0,response1disk,7,127.5345,1,-0.001302083,0.00390625,1,0,0,center_square,0,2,2,0,1,0,131,5,5,2370,2406,prac_patch/patch0002370.jpg,prac_patch/patch0002406.jpg,,,,,,,,,,,,,,,,,,,,,,,,,,,,,,,,,,,,,,,,,,,,,,,,,,,,,,,,,,,,
670798,001,2022-11-20_16h52.26.496,Info_measure_main_exp,2022.2.2,Win32,60.13590715,,,,,,,,,,,,,,,,,,,,,,,,,,,,,,,,,,,,,,,,,,,,,,,,,,,,,,,,,,,space,3.0976,,,,,,,,,,,,,,,,,,,,,,,,,,,,,,,,,,,,,,,,,,,,,,,,,,,
670798,001,2022-11-20_16h52.26.496,Info_measure_main_exp,2022.2.2,Win32,60.13590715,,,,,,,,,,,,,,,,,,masks/mask_001.jpg,,,,,,,,,,,,,,,,,,,,,,,,,,,,,,,,,,,,,,,,,,,0,0,0,0,1,,,,,,,,,,,,,,,,,,,,,,,,,,,,,,,,,,,,,,,,,,,,,,
670798,001,2022-11-20_16h52.26.496,Info_measure_main_exp,2022.2.2,Win32,60.13590715,,,,,,,,,,,,,,,,,,masks/mask_005.jpg,,,,,,,,,,,,,,,,,,,,,,,,,,,,,,,,,,,,,,,,,,,0,1,1,4,1,,,,,,,,,,,,,,,,,,,,,,,,,,,,,,,,,,,,,,,,,,,,,,
670798,001,2022-11-20_16h52.26.496,Info_measure_main_exp,2022.2.2,Win32,60.13590715,,,,,,,,,,,,,,,,,,masks/mask_004.jpg,,,,,,,,,,,,,,,,,,,,,,,,,,,,,,,,,,,,,,,,,,,0,2,2,3,1,,,,,,,,,,,,,,,,,,,,,,,,,,,,,,,,,,,,,,,,,,,,,,
670798,001,2022-11-20_16h52.26.496,Info_measure_main_exp,2022.2.2,Win32,60.13590715,,,,,,,,,,,,,,,,,,masks/mask_002.jpg,,,,,,,,,,,,,,,,,,,,,,,,,,,,,,,,,,,,,,,,,,,0,3,3,1,1,,,,,,,,,,,,,,,,,,,,,,,,,,,,,,,,,,,,,,,,,,,,,,
670798,001,2022-11-20_16h52.26.496,Info_measure_main_exp,2022.2.2,Win32,60.13590715,,,,,,,,,,,,,,,,,,masks/mask_003.jpg,,,,,,,,,,,,,,,,,,,,,,,,,,,,,,,,,,,,,,,,,,,0,4,4,2,1,,,,,,,,,,,,,,,,,,,,,,,,,,,,,,,,,,,,,,,,,,,,,,
670798,001,2022-11-20_16h52.26.496,Info_measure_main_exp,2022.2.2,Win32,60.13590715,,,,,,,,,,,,,,,,,,masks/mask_005.jpg,,,,,,,,,,,,,,,,,,,,,,,,,,,,,,,,,,,,,,,,,,,,,,,,0,0,0,4,1,,,,,,,,,,,,,,,,,,,,,,,,,,,,,,,,,,,,,,,,,
670798,001,2022-11-20_16h52.26.496,Info_measure_main_exp,2022.2.2,Win32,60.13590715,,,,,,,,,,,,,,,,,,masks/mask_003.jpg,,,,,,,,,,,,,,,,,,,,,,,,,,,,,,,,,,,,,,,,,,,,,,,,0,1,1,2,1,,,,,,,,,,,,,,,,,,,,,,,,,,,,,,,,,,,,,,,,,
670798,001,2022-11-20_16h52.26.496,Info_measure_main_exp,2022.2.2,Win32,60.13590715,,,,,,,,,,,,,,,,,,masks/mask_001.jpg,,,,,,,,,,,,,,,,,,,,,,,,,,,,,,,,,,,,,,,,,,,,,,,,0,2,2,0,1,,,,,,,,,,,,,,,,,,,,,,,,,,,,,,,,,,,,,,,,,
670798,001,2022-11-20_16h52.26.496,Info_measure_main_exp,2022.2.2,Win32,60.13590715,,,,,,,,,,,,,,,,,,masks/mask_002.jpg,,,,,,,,,,,,,,,,,,,,,,,,,,,,,,,,,,,,,,,,,,,,,,,,0,3,3,1,1,,,,,,,,,,,,,,,,,,,,,,,,,,,,,,,,,,,,,,,,,
670798,001,2022-11-20_16h52.26.496,Info_measure_main_exp,2022.2.2,Win32,60.13590715,,,,,,,,,,,,,,,,,,masks/mask_004.jpg,,,,,,,,,,,,,,,,,,,,,,,,,,,,,,,,,,,,,,,,,,,,,,,,0,4,4,3,1,,,,,,,,,,,,,,,,,,,,,,,,,,,,,,,,,,,,,,,,,
670798,001,2022-11-20_16h52.26.496,Info_measure_main_exp,2022.2.2,Win32,60.13590715,,,,,,,,,,,,,,,,,,,,,,,,,,,,,,3,2.5163,1,,,,,,,,,,,,0,131,5,5,2250,1950,absent_patch/patch0002250.jpg,absent_patch/patch0001950.jpg,,,,,,,,,,,,,,,,,,,,-0.024739583,-0.07421875,1,0,0,response5disk,1,0.001302083,0.001302083,1,0,0,center_square,0,0,0,16,1,,,,,,,,,,,,,,,,,,,,,,,
670798,001,2022-11-20_16h52.26.496,Info_measure_main_exp,2022.2.2,Win32,60.13590715,,,,,,,,,,,,,,,,,,masks/mask_005.jpg,,,,,,,,,,,,,,,,,,,,,,,,,,,,,,,,,,,,,,,,,,,0,0,0,4,1,,,,,,,,,,,,,,,,,,,,,,,,,,,,,,,,,,,,,,,,,,,,,,
670798,001,2022-11-20_16h52.26.496,Info_measure_main_exp,2022.2.2,Win32,60.13590715,,,,,,,,,,,,,,,,,,masks/mask_003.jpg,,,,,,,,,,,,,,,,,,,,,,,,,,,,,,,,,,,,,,,,,,,0,1,1,2,1,,,,,,,,,,,,,,,,,,,,,,,,,,,,,,,,,,,,,,,,,,,,,,
670798,001,2022-11-20_16h52.26.496,Info_measure_main_exp,2022.2.2,Win32,60.13590715,,,,,,,,,,,,,,,,,,masks/mask_004.jpg,,,,,,,,,,,,,,,,,,,,,,,,,,,,,,,,,,,,,,,,,,,0,2,2,3,1,,,,,,,,,,,,,,,,,,,,,,,,,,,,,,,,,,,,,,,,,,,,,,
670798,001,2022-11-20_16h52.26.496,Info_measure_main_exp,2022.2.2,Win32,60.13590715,,,,,,,,,,,,,,,,,,masks/mask_001.jpg,,,,,,,,,,,,,,,,,,,,,,,,,,,,,,,,,,,,,,,,,,,0,3,3,0,1,,,,,,,,,,,,,,,,,,,,,,,,,,,,,,,,,,,,,,,,,,,,,,
670798,001,2022-11-20_16h52.26.496,Info_measure_main_exp,2022.2.2,Win32,60.13590715,,,,,,,,,,,,,,,,,,masks/mask_002.jpg,,,,,,,,,,,,,,,,,,,,,,,,,,,,,,,,,,,,,,,,,,,0,4,4,1,1,,,,,,,,,,,,,,,,,,,,,,,,,,,,,,,,,,,,,,,,,,,,,,
670798,001,2022-11-20_16h52.26.496,Info_measure_main_exp,2022.2.2,Win32,60.13590715,,,,,,,,,,,,,,,,,,masks/mask_005.jpg,,,,,,,,,,,,,,,,,,,,,,,,,,,,,,,,,,,,,,,,,,,,,,,,0,0,0,4,1,,,,,,,,,,,,,,,,,,,,,,,,,,,,,,,,,,,,,,,,,
670798,001,2022-11-20_16h52.26.496,Info_measure_main_exp,2022.2.2,Win32,60.13590715,,,,,,,,,,,,,,,,,,masks/mask_002.jpg,,,,,,,,,,,,,,,,,,,,,,,,,,,,,,,,,,,,,,,,,,,,,,,,0,1,1,1,1,,,,,,,,,,,,,,,,,,,,,,,,,,,,,,,,,,,,,,,,,
670798,001,2022-11-20_16h52.26.496,Info_measure_main_exp,2022.2.2,Win32,60.13590715,,,,,,,,,,,,,,,,,,masks/mask_004.jpg,,,,,,,,,,,,,,,,,,,,,,,,,,,,,,,,,,,,,,,,,,,,,,,,0,2,2,3,1,,,,,,,,,,,,,,,,,,,,,,,,,,,,,,,,,,,,,,,,,
670798,001,2022-11-20_16h52.26.496,Info_measure_main_exp,2022.2.2,Win32,60.13590715,,,,,,,,,,,,,,,,,,masks/mask_003.jpg,,,,,,,,,,,,,,,,,,,,,,,,,,,,,,,,,,,,,,,,,,,,,,,,0,3,3,2,1,,,,,,,,,,,,,,,,,,,,,,,,,,,,,,,,,,,,,,,,,
670798,001,2022-11-20_16h52.26.496,Info_measure_main_exp,2022.2.2,Win32,60.13590715,,,,,,,,,,,,,,,,,,masks/mask_001.jpg,,,,,,,,,,,,,,,,,,,,,,,,,,,,,,,,,,,,,,,,,,,,,,,,0,4,4,0,1,,,,,,,,,,,,,,,,,,,,,,,,,,,,,,,,,,,,,,,,,
670798,001,2022-11-20_16h52.26.496,Info_measure_main_exp,2022.2.2,Win32,60.13590715,,,,,,,,,,,,,,,,,,,,,,,,,,,,,,6,1.083,1,,,,,,,,,,,,0,131,5,5,2142,2154,absent_patch/patch0002142.jpg,absent_patch/patch0002154.jpg,,,,,,,,,,,,,,,,,,,,0.095052083,0.059895833,1,0,0,response1disk,2,-0.005208333,0.001302083,1,0,0,center_square,0,1,1,9,1,,,,,,,,,,,,,,,,,,,,,,,
670798,001,2022-11-20_16h52.26.496,Info_measure_main_exp,2022.2.2,Win32,60.13590715,,,,,,,,,,,,,,,,,,masks/mask_001.jpg,,,,,,,,,,,,,,,,,,,,,,,,,,,,,,,,,,,,,,,,,,,0,0,0,0,1,,,,,,,,,,,,,,,,,,,,,,,,,,,,,,,,,,,,,,,,,,,,,,
670798,001,2022-11-20_16h52.26.496,Info_measure_main_exp,2022.2.2,Win32,60.13590715,,,,,,,,,,,,,,,,,,masks/mask_004.jpg,,,,,,,,,,,,,,,,,,,,,,,,,,,,,,,,,,,,,,,,,,,0,1,1,3,1,,,,,,,,,,,,,,,,,,,,,,,,,,,,,,,,,,,,,,,,,,,,,,
670798,001,2022-11-20_16h52.26.496,Info_measure_main_exp,2022.2.2,Win32,60.13590715,,,,,,,,,,,,,,,,,,masks/mask_003.jpg,,,,,,,,,,,,,,,,,,,,,,,,,,,,,,,,,,,,,,,,,,,0,2,2,2,1,,,,,,,,,,,,,,,,,,,,,,,,,,,,,,,,,,,,,,,,,,,,,,
670798,001,2022-11-20_16h52.26.496,Info_measure_main_exp,2022.2.2,Win32,60.13590715,,,,,,,,,,,,,,,,,,masks/mask_002.jpg,,,,,,,,,,,,,,,,,,,,,,,,,,,,,,,,,,,,,,,,,,,0,3,3,1,1,,,,,,,,,,,,,,,,,,,,,,,,,,,,,,,,,,,,,,,,,,,,,,
670798,001,2022-11-20_16h52.26.496,Info_measure_main_exp,2022.2.2,Win32,60.13590715,,,,,,,,,,,,,,,,,,masks/mask_005.jpg,,,,,,,,,,,,,,,,,,,,,,,,,,,,,,,,,,,,,,,,,,,0,4,4,4,1,,,,,,,,,,,,,,,,,,,,,,,,,,,,,,,,,,,,,,,,,,,,,,
670798,001,2022-11-20_16h52.26.496,Info_measure_main_exp,2022.2.2,Win32,60.13590715,,,,,,,,,,,,,,,,,,masks/mask_004.jpg,,,,,,,,,,,,,,,,,,,,,,,,,,,,,,,,,,,,,,,,,,,,,,,,0,0,0,3,1,,,,,,,,,,,,,,,,,,,,,,,,,,,,,,,,,,,,,,,,,
670798,001,2022-11-20_16h52.26.496,Info_measure_main_exp,2022.2.2,Win32,60.13590715,,,,,,,,,,,,,,,,,,masks/mask_001.jpg,,,,,,,,,,,,,,,,,,,,,,,,,,,,,,,,,,,,,,,,,,,,,,,,0,1,1,0,1,,,,,,,,,,,,,,,,,,,,,,,,,,,,,,,,,,,,,,,,,
670798,001,2022-11-20_16h52.26.496,Info_measure_main_exp,2022.2.2,Win32,60.13590715,,,,,,,,,,,,,,,,,,masks/mask_003.jpg,,,,,,,,,,,,,,,,,,,,,,,,,,,,,,,,,,,,,,,,,,,,,,,,0,2,2,2,1,,,,,,,,,,,,,,,,,,,,,,,,,,,,,,,,,,,,,,,,,
670798,001,2022-11-20_16h52.26.496,Info_measure_main_exp,2022.2.2,Win32,60.13590715,,,,,,,,,,,,,,,,,,masks/mask_005.jpg,,,,,,,,,,,,,,,,,,,,,,,,,,,,,,,,,,,,,,,,,,,,,,,,0,3,3,4,1,,,,,,,,,,,,,,,,,,,,,,,,,,,,,,,,,,,,,,,,,
670798,001,2022-11-20_16h52.26.496,Info_measure_main_exp,2022.2.2,Win32,60.13590715,,,,,,,,,,,,,,,,,,masks/mask_002.jpg,,,,,,,,,,,,,,,,,,,,,,,,,,,,,,,,,,,,,,,,,,,,,,,,0,4,4,1,1,,,,,,,,,,,,,,,,,,,,,,,,,,,,,,,,,,,,,,,,,
670798,001,2022-11-20_16h52.26.496,Info_measure_main_exp,2022.2.2,Win32,60.13590715,,,,,,,,,,,,,,,,,,,,,,,,,,,,,,7,0.9164,1,,,,,,,,,,,,0,131,5,5,2154,2298,absent_patch/patch0002154.jpg,absent_patch/patch0002298.jpg,,,,,,,,,,,,,,,,,,,,0.036458333,0.08203125,1,0,0,response1disk,3,-0.00390625,-0.005208333,1,0,0,center_square,0,2,2,27,1,,,,,,,,,,,,,,,,,,,,,,,
670798,001,2022-11-20_16h52.26.496,Info_measure_main_exp,2022.2.2,Win32,60.13590715,,,,,,,,,,,,,,,,,,masks/mask_003.jpg,,,,,,,,,,,,,,,,,,,,,,,,,,,,,,,,,,,,,,,,,,,0,0,0,2,1,,,,,,,,,,,,,,,,,,,,,,,,,,,,,,,,,,,,,,,,,,,,,,
670798,001,2022-11-20_16h52.26.496,Info_measure_main_exp,2022.2.2,Win32,60.13590715,,,,,,,,,,,,,,,,,,masks/mask_002.jpg,,,,,,,,,,,,,,,,,,,,,,,,,,,,,,,,,,,,,,,,,,,0,1,1,1,1,,,,,,,,,,,,,,,,,,,,,,,,,,,,,,,,,,,,,,,,,,,,,,
670798,001,2022-11-20_16h52.26.496,Info_measure_main_exp,2022.2.2,Win32,60.13590715,,,,,,,,,,,,,,,,,,masks/mask_004.jpg,,,,,,,,,,,,,,,,,,,,,,,,,,,,,,,,,,,,,,,,,,,0,2,2,3,1,,,,,,,,,,,,,,,,,,,,,,,,,,,,,,,,,,,,,,,,,,,,,,
670798,001,2022-11-20_16h52.26.496,Info_measure_main_exp,2022.2.2,Win32,60.13590715,,,,,,,,,,,,,,,,,,masks/mask_005.jpg,,,,,,,,,,,,,,,,,,,,,,,,,,,,,,,,,,,,,,,,,,,0,3,3,4,1,,,,,,,,,,,,,,,,,,,,,,,,,,,,,,,,,,,,,,,,,,,,,,
670798,001,2022-11-20_16h52.26.496,Info_measure_main_exp,2022.2.2,Win32,60.13590715,,,,,,,,,,,,,,,,,,masks/mask_001.jpg,,,,,,,,,,,,,,,,,,,,,,,,,,,,,,,,,,,,,,,,,,,0,4,4,0,1,,,,,,,,,,,,,,,,,,,,,,,,,,,,,,,,,,,,,,,,,,,,,,
670798,001,2022-11-20_16h52.26.496,Info_measure_main_exp,2022.2.2,Win32,60.13590715,,,,,,,,,,,,,,,,,,masks/mask_001.jpg,,,,,,,,,,,,,,,,,,,,,,,,,,,,,,,,,,,,,,,,,,,,,,,,0,0,0,0,1,,,,,,,,,,,,,,,,,,,,,,,,,,,,,,,,,,,,,,,,,
670798,001,2022-11-20_16h52.26.496,Info_measure_main_exp,2022.2.2,Win32,60.13590715,,,,,,,,,,,,,,,,,,masks/mask_005.jpg,,,,,,,,,,,,,,,,,,,,,,,,,,,,,,,,,,,,,,,,,,,,,,,,0,1,1,4,1,,,,,,,,,,,,,,,,,,,,,,,,,,,,,,,,,,,,,,,,,
670798,001,2022-11-20_16h52.26.496,Info_measure_main_exp,2022.2.2,Win32,60.13590715,,,,,,,,,,,,,,,,,,masks/mask_003.jpg,,,,,,,,,,,,,,,,,,,,,,,,,,,,,,,,,,,,,,,,,,,,,,,,0,2,2,2,1,,,,,,,,,,,,,,,,,,,,,,,,,,,,,,,,,,,,,,,,,
670798,001,2022-11-20_16h52.26.496,Info_measure_main_exp,2022.2.2,Win32,60.13590715,,,,,,,,,,,,,,,,,,masks/mask_004.jpg,,,,,,,,,,,,,,,,,,,,,,,,,,,,,,,,,,,,,,,,,,,,,,,,0,3,3,3,1,,,,,,,,,,,,,,,,,,,,,,,,,,,,,,,,,,,,,,,,,
670798,001,2022-11-20_16h52.26.496,Info_measure_main_exp,2022.2.2,Win32,60.13590715,,,,,,,,,,,,,,,,,,masks/mask_002.jpg,,,,,,,,,,,,,,,,,,,,,,,,,,,,,,,,,,,,,,,,,,,,,,,,0,4,4,1,1,,,,,,,,,,,,,,,,,,,,,,,,,,,,,,,,,,,,,,,,,
670798,001,2022-11-20_16h52.26.496,Info_measure_main_exp,2022.2.2,Win32,60.13590715,,,,,,,,,,,,,,,,,,,,,,,,,,,,,,7,0.9665,1,,,,,,,,,,,,0,131,5,5,1986,1950,absent_patch/patch0001986.jpg,absent_patch/patch0001950.jpg,,,,,,,,,,,,,,,,,,,,0.03125,0.076822917,1,0,0,response1disk,4,0.002604167,0.00390625,1,0,0,center_square,0,3,3,15,1,,,,,,,,,,,,,,,,,,,,,,,
670798,001,2022-11-20_16h52.26.496,Info_measure_main_exp,2022.2.2,Win32,60.13590715,,,,,,,,,,,,,,,,,,masks/mask_001.jpg,,,,,,,,,,,,,,,,,,,,,,,,,,,,,,,,,,,,,,,,,,,0,0,0,0,1,,,,,,,,,,,,,,,,,,,,,,,,,,,,,,,,,,,,,,,,,,,,,,
670798,001,2022-11-20_16h52.26.496,Info_measure_main_exp,2022.2.2,Win32,60.13590715,,,,,,,,,,,,,,,,,,masks/mask_002.jpg,,,,,,,,,,,,,,,,,,,,,,,,,,,,,,,,,,,,,,,,,,,0,1,1,1,1,,,,,,,,,,,,,,,,,,,,,,,,,,,,,,,,,,,,,,,,,,,,,,
670798,001,2022-11-20_16h52.26.496,Info_measure_main_exp,2022.2.2,Win32,60.13590715,,,,,,,,,,,,,,,,,,masks/mask_003.jpg,,,,,,,,,,,,,,,,,,,,,,,,,,,,,,,,,,,,,,,,,,,0,2,2,2,1,,,,,,,,,,,,,,,,,,,,,,,,,,,,,,,,,,,,,,,,,,,,,,
670798,001,2022-11-20_16h52.26.496,Info_measure_main_exp,2022.2.2,Win32,60.13590715,,,,,,,,,,,,,,,,,,masks/mask_005.jpg,,,,,,,,,,,,,,,,,,,,,,,,,,,,,,,,,,,,,,,,,,,0,3,3,4,1,,,,,,,,,,,,,,,,,,,,,,,,,,,,,,,,,,,,,,,,,,,,,,
670798,001,2022-11-20_16h52.26.496,Info_measure_main_exp,2022.2.2,Win32,60.13590715,,,,,,,,,,,,,,,,,,masks/mask_004.jpg,,,,,,,,,,,,,,,,,,,,,,,,,,,,,,,,,,,,,,,,,,,0,4,4,3,1,,,,,,,,,,,,,,,,,,,,,,,,,,,,,,,,,,,,,,,,,,,,,,
670798,001,2022-11-20_16h52.26.496,Info_measure_main_exp,2022.2.2,Win32,60.13590715,,,,,,,,,,,,,,,,,,masks/mask_003.jpg,,,,,,,,,,,,,,,,,,,,,,,,,,,,,,,,,,,,,,,,,,,,,,,,0,0,0,2,1,,,,,,,,,,,,,,,,,,,,,,,,,,,,,,,,,,,,,,,,,
670798,001,2022-11-20_16h52.26.496,Info_measure_main_exp,2022.2.2,Win32,60.13590715,,,,,,,,,,,,,,,,,,masks/mask_005.jpg,,,,,,,,,,,,,,,,,,,,,,,,,,,,,,,,,,,,,,,,,,,,,,,,0,1,1,4,1,,,,,,,,,,,,,,,,,,,,,,,,,,,,,,,,,,,,,,,,,
670798,001,2022-11-20_16h52.26.496,Info_measure_main_exp,2022.2.2,Win32,60.13590715,,,,,,,,,,,,,,,,,,masks/mask_001.jpg,,,,,,,,,,,,,,,,,,,,,,,,,,,,,,,,,,,,,,,,,,,,,,,,0,2,2,0,1,,,,,,,,,,,,,,,,,,,,,,,,,,,,,,,,,,,,,,,,,
670798,001,2022-11-20_16h52.26.496,Info_measure_main_exp,2022.2.2,Win32,60.13590715,,,,,,,,,,,,,,,,,,masks/mask_002.jpg,,,,,,,,,,,,,,,,,,,,,,,,,,,,,,,,,,,,,,,,,,,,,,,,0,3,3,1,1,,,,,,,,,,,,,,,,,,,,,,,,,,,,,,,,,,,,,,,,,
670798,001,2022-11-20_16h52.26.496,Info_measure_main_exp,2022.2.2,Win32,60.13590715,,,,,,,,,,,,,,,,,,masks/mask_004.jpg,,,,,,,,,,,,,,,,,,,,,,,,,,,,,,,,,,,,,,,,,,,,,,,,0,4,4,3,1,,,,,,,,,,,,,,,,,,,,,,,,,,,,,,,,,,,,,,,,,
670798,001,2022-11-20_16h52.26.496,Info_measure_main_exp,2022.2.2,Win32,60.13590715,,,,,,,,,,,,,,,,,,,,,,,,,,,,,,7,0.8332,1,,,,,,,,,,,,0,131,5,5,2166,1986,absent_patch/patch0002166.jpg,absent_patch/patch0001986.jpg,,,,,,,,,,,,,,,,,,,,0.041666667,0.096354167,1,0,0,response1disk,5,0.005208333,0.005208333,1,0,0,center_square,0,4,4,47,1,,,,,,,,,,,,,,,,,,,,,,,
670798,001,2022-11-20_16h52.26.496,Info_measure_main_exp,2022.2.2,Win32,60.13590715,,,,,,,,,,,,,,,,,,masks/mask_003.jpg,,,,,,,,,,,,,,,,,,,,,,,,,,,,,,,,,,,,,,,,,,,0,0,0,2,1,,,,,,,,,,,,,,,,,,,,,,,,,,,,,,,,,,,,,,,,,,,,,,
670798,001,2022-11-20_16h52.26.496,Info_measure_main_exp,2022.2.2,Win32,60.13590715,,,,,,,,,,,,,,,,,,masks/mask_002.jpg,,,,,,,,,,,,,,,,,,,,,,,,,,,,,,,,,,,,,,,,,,,0,1,1,1,1,,,,,,,,,,,,,,,,,,,,,,,,,,,,,,,,,,,,,,,,,,,,,,
670798,001,2022-11-20_16h52.26.496,Info_measure_main_exp,2022.2.2,Win32,60.13590715,,,,,,,,,,,,,,,,,,masks/mask_005.jpg,,,,,,,,,,,,,,,,,,,,,,,,,,,,,,,,,,,,,,,,,,,0,2,2,4,1,,,,,,,,,,,,,,,,,,,,,,,,,,,,,,,,,,,,,,,,,,,,,,
670798,001,2022-11-20_16h52.26.496,Info_measure_main_exp,2022.2.2,Win32,60.13590715,,,,,,,,,,,,,,,,,,masks/mask_001.jpg,,,,,,,,,,,,,,,,,,,,,,,,,,,,,,,,,,,,,,,,,,,0,3,3,0,1,,,,,,,,,,,,,,,,,,,,,,,,,,,,,,,,,,,,,,,,,,,,,,
670798,001,2022-11-20_16h52.26.496,Info_measure_main_exp,2022.2.2,Win32,60.13590715,,,,,,,,,,,,,,,,,,masks/mask_004.jpg,,,,,,,,,,,,,,,,,,,,,,,,,,,,,,,,,,,,,,,,,,,0,4,4,3,1,,,,,,,,,,,,,,,,,,,,,,,,,,,,,,,,,,,,,,,,,,,,,,
670798,001,2022-11-20_16h52.26.496,Info_measure_main_exp,2022.2.2,Win32,60.13590715,,,,,,,,,,,,,,,,,,masks/mask_004.jpg,,,,,,,,,,,,,,,,,,,,,,,,,,,,,,,,,,,,,,,,,,,,,,,,0,0,0,3,1,,,,,,,,,,,,,,,,,,,,,,,,,,,,,,,,,,,,,,,,,
670798,001,2022-11-20_16h52.26.496,Info_measure_main_exp,2022.2.2,Win32,60.13590715,,,,,,,,,,,,,,,,,,masks/mask_002.jpg,,,,,,,,,,,,,,,,,,,,,,,,,,,,,,,,,,,,,,,,,,,,,,,,0,1,1,1,1,,,,,,,,,,,,,,,,,,,,,,,,,,,,,,,,,,,,,,,,,
670798,001,2022-11-20_16h52.26.496,Info_measure_main_exp,2022.2.2,Win32,60.13590715,,,,,,,,,,,,,,,,,,masks/mask_005.jpg,,,,,,,,,,,,,,,,,,,,,,,,,,,,,,,,,,,,,,,,,,,,,,,,0,2,2,4,1,,,,,,,,,,,,,,,,,,,,,,,,,,,,,,,,,,,,,,,,,
670798,001,2022-11-20_16h52.26.496,Info_measure_main_exp,2022.2.2,Win32,60.13590715,,,,,,,,,,,,,,,,,,masks/mask_003.jpg,,,,,,,,,,,,,,,,,,,,,,,,,,,,,,,,,,,,,,,,,,,,,,,,0,3,3,2,1,,,,,,,,,,,,,,,,,,,,,,,,,,,,,,,,,,,,,,,,,
670798,001,2022-11-20_16h52.26.496,Info_measure_main_exp,2022.2.2,Win32,60.13590715,,,,,,,,,,,,,,,,,,masks/mask_001.jpg,,,,,,,,,,,,,,,,,,,,,,,,,,,,,,,,,,,,,,,,,,,,,,,,0,4,4,0,1,,,,,,,,,,,,,,,,,,,,,,,,,,,,,,,,,,,,,,,,,
670798,001,2022-11-20_16h52.26.496,Info_measure_main_exp,2022.2.2,Win32,60.13590715,,,,,,,,,,,,,,,,,,,,,,,,,,,,,,5,1.3663,1,,,,,,,,,,,,0,131,5,5,2142,2238,absent_patch/patch0002142.jpg,absent_patch/patch0002238.jpg,,,,,,,,,,,,,,,,,,,,0.088541667,-0.040364583,1,0,0,response3disk,6,0.00390625,-0.001302083,1,0,0,center_square,0,5,5,101,1,,,,,,,,,,,,,,,,,,,,,,,
670798,001,2022-11-20_16h52.26.496,Info_measure_main_exp,2022.2.2,Win32,60.13590715,,,,,,,,,,,,,,,,,,masks/mask_005.jpg,,,,,,,,,,,,,,,,,,,,,,,,,,,,,,,,,,,,,,,,,,,0,0,0,4,1,,,,,,,,,,,,,,,,,,,,,,,,,,,,,,,,,,,,,,,,,,,,,,
670798,001,2022-11-20_16h52.26.496,Info_measure_main_exp,2022.2.2,Win32,60.13590715,,,,,,,,,,,,,,,,,,masks/mask_004.jpg,,,,,,,,,,,,,,,,,,,,,,,,,,,,,,,,,,,,,,,,,,,0,1,1,3,1,,,,,,,,,,,,,,,,,,,,,,,,,,,,,,,,,,,,,,,,,,,,,,
670798,001,2022-11-20_16h52.26.496,Info_measure_main_exp,2022.2.2,Win32,60.13590715,,,,,,,,,,,,,,,,,,masks/mask_001.jpg,,,,,,,,,,,,,,,,,,,,,,,,,,,,,,,,,,,,,,,,,,,0,2,2,0,1,,,,,,,,,,,,,,,,,,,,,,,,,,,,,,,,,,,,,,,,,,,,,,
670798,001,2022-11-20_16h52.26.496,Info_measure_main_exp,2022.2.2,Win32,60.13590715,,,,,,,,,,,,,,,,,,masks/mask_003.jpg,,,,,,,,,,,,,,,,,,,,,,,,,,,,,,,,,,,,,,,,,,,0,3,3,2,1,,,,,,,,,,,,,,,,,,,,,,,,,,,,,,,,,,,,,,,,,,,,,,
670798,001,2022-11-20_16h52.26.496,Info_measure_main_exp,2022.2.2,Win32,60.13590715,,,,,,,,,,,,,,,,,,masks/mask_002.jpg,,,,,,,,,,,,,,,,,,,,,,,,,,,,,,,,,,,,,,,,,,,0,4,4,1,1,,,,,,,,,,,,,,,,,,,,,,,,,,,,,,,,,,,,,,,,,,,,,,
670798,001,2022-11-20_16h52.26.496,Info_measure_main_exp,2022.2.2,Win32,60.13590715,,,,,,,,,,,,,,,,,,masks/mask_004.jpg,,,,,,,,,,,,,,,,,,,,,,,,,,,,,,,,,,,,,,,,,,,,,,,,0,0,0,3,1,,,,,,,,,,,,,,,,,,,,,,,,,,,,,,,,,,,,,,,,,
670798,001,2022-11-20_16h52.26.496,Info_measure_main_exp,2022.2.2,Win32,60.13590715,,,,,,,,,,,,,,,,,,masks/mask_001.jpg,,,,,,,,,,,,,,,,,,,,,,,,,,,,,,,,,,,,,,,,,,,,,,,,0,1,1,0,1,,,,,,,,,,,,,,,,,,,,,,,,,,,,,,,,,,,,,,,,,
670798,001,2022-11-20_16h52.26.496,Info_measure_main_exp,2022.2.2,Win32,60.13590715,,,,,,,,,,,,,,,,,,masks/mask_005.jpg,,,,,,,,,,,,,,,,,,,,,,,,,,,,,,,,,,,,,,,,,,,,,,,,0,2,2,4,1,,,,,,,,,,,,,,,,,,,,,,,,,,,,,,,,,,,,,,,,,
670798,001,2022-11-20_16h52.26.496,Info_measure_main_exp,2022.2.2,Win32,60.13590715,,,,,,,,,,,,,,,,,,masks/mask_002.jpg,,,,,,,,,,,,,,,,,,,,,,,,,,,,,,,,,,,,,,,,,,,,,,,,0,3,3,1,1,,,,,,,,,,,,,,,,,,,,,,,,,,,,,,,,,,,,,,,,,
670798,001,2022-11-20_16h52.26.496,Info_measure_main_exp,2022.2.2,Win32,60.13590715,,,,,,,,,,,,,,,,,,masks/mask_003.jpg,,,,,,,,,,,,,,,,,,,,,,,,,,,,,,,,,,,,,,,,,,,,,,,,0,4,4,2,1,,,,,,,,,,,,,,,,,,,,,,,,,,,,,,,,,,,,,,,,,
670798,001,2022-11-20_16h52.26.496,Info_measure_main_exp,2022.2.2,Win32,60.13590715,,,,,,,,,,,,,,,,,,,,,,,,,,,,,,4,1.7496,1,,,,,,,,,,,,0,131,5,5,1986,2238,absent_patch/patch0001986.jpg,absent_patch/patch0002238.jpg,,,,,,,,,,,,,,,,,,,,0.02734375,-0.0703125,1,0,0,response3disk,7,0,0.006510417,1,0,0,center_square,0,6,6,31,1,,,,,,,,,,,,,,,,,,,,,,,
670798,001,2022-11-20_16h52.26.496,Info_measure_main_exp,2022.2.2,Win32,60.13590715,,,,,,,,,,,,,,,,,,masks/mask_004.jpg,,,,,,,,,,,,,,,,,,,,,,,,,,,,,,,,,,,,,,,,,,,0,0,0,3,1,,,,,,,,,,,,,,,,,,,,,,,,,,,,,,,,,,,,,,,,,,,,,,
670798,001,2022-11-20_16h52.26.496,Info_measure_main_exp,2022.2.2,Win32,60.13590715,,,,,,,,,,,,,,,,,,masks/mask_005.jpg,,,,,,,,,,,,,,,,,,,,,,,,,,,,,,,,,,,,,,,,,,,0,1,1,4,1,,,,,,,,,,,,,,,,,,,,,,,,,,,,,,,,,,,,,,,,,,,,,,
670798,001,2022-11-20_16h52.26.496,Info_measure_main_exp,2022.2.2,Win32,60.13590715,,,,,,,,,,,,,,,,,,masks/mask_001.jpg,,,,,,,,,,,,,,,,,,,,,,,,,,,,,,,,,,,,,,,,,,,0,2,2,0,1,,,,,,,,,,,,,,,,,,,,,,,,,,,,,,,,,,,,,,,,,,,,,,
670798,001,2022-11-20_16h52.26.496,Info_measure_main_exp,2022.2.2,Win32,60.13590715,,,,,,,,,,,,,,,,,,masks/mask_003.jpg,,,,,,,,,,,,,,,,,,,,,,,,,,,,,,,,,,,,,,,,,,,0,3,3,2,1,,,,,,,,,,,,,,,,,,,,,,,,,,,,,,,,,,,,,,,,,,,,,,
670798,001,2022-11-20_16h52.26.496,Info_measure_main_exp,2022.2.2,Win32,60.13590715,,,,,,,,,,,,,,,,,,masks/mask_002.jpg,,,,,,,,,,,,,,,,,,,,,,,,,,,,,,,,,,,,,,,,,,,0,4,4,1,1,,,,,,,,,,,,,,,,,,,,,,,,,,,,,,,,,,,,,,,,,,,,,,
670798,001,2022-11-20_16h52.26.496,Info_measure_main_exp,2022.2.2,Win32,60.13590715,,,,,,,,,,,,,,,,,,masks/mask_005.jpg,,,,,,,,,,,,,,,,,,,,,,,,,,,,,,,,,,,,,,,,,,,,,,,,0,0,0,4,1,,,,,,,,,,,,,,,,,,,,,,,,,,,,,,,,,,,,,,,,,
670798,001,2022-11-20_16h52.26.496,Info_measure_main_exp,2022.2.2,Win32,60.13590715,,,,,,,,,,,,,,,,,,masks/mask_003.jpg,,,,,,,,,,,,,,,,,,,,,,,,,,,,,,,,,,,,,,,,,,,,,,,,0,1,1,2,1,,,,,,,,,,,,,,,,,,,,,,,,,,,,,,,,,,,,,,,,,
670798,001,2022-11-20_16h52.26.496,Info_measure_main_exp,2022.2.2,Win32,60.13590715,,,,,,,,,,,,,,,,,,masks/mask_004.jpg,,,,,,,,,,,,,,,,,,,,,,,,,,,,,,,,,,,,,,,,,,,,,,,,0,2,2,3,1,,,,,,,,,,,,,,,,,,,,,,,,,,,,,,,,,,,,,,,,,
670798,001,2022-11-20_16h52.26.496,Info_measure_main_exp,2022.2.2,Win32,60.13590715,,,,,,,,,,,,,,,,,,masks/mask_002.jpg,,,,,,,,,,,,,,,,,,,,,,,,,,,,,,,,,,,,,,,,,,,,,,,,0,3,3,1,1,,,,,,,,,,,,,,,,,,,,,,,,,,,,,,,,,,,,,,,,,
670798,001,2022-11-20_16h52.26.496,Info_measure_main_exp,2022.2.2,Win32,60.13590715,,,,,,,,,,,,,,,,,,masks/mask_001.jpg,,,,,,,,,,,,,,,,,,,,,,,,,,,,,,,,,,,,,,,,,,,,,,,,0,4,4,0,1,,,,,,,,,,,,,,,,,,,,,,,,,,,,,,,,,,,,,,,,,
670798,001,2022-11-20_16h52.26.496,Info_measure_main_exp,2022.2.2,Win32,60.13590715,,,,,,,,,,,,,,,,,,,,,,,,,,,,,,6,1.5669,1,,,,,,,,,,,,0,131,5,5,2082,1986,absent_patch/patch0002082.jpg,absent_patch/patch0001986.jpg,,,,,,,,,,,,,,,,,,,,0.126302083,0.026041667,1,0,0,response1disk,8,-0.00390625,0.00390625,1,0,0,center_square,0,7,7,94,1,,,,,,,,,,,,,,,,,,,,,,,
670798,001,2022-11-20_16h52.26.496,Info_measure_main_exp,2022.2.2,Win32,60.13590715,,,,,,,,,,,,,,,,,,masks/mask_001.jpg,,,,,,,,,,,,,,,,,,,,,,,,,,,,,,,,,,,,,,,,,,,0,0,0,0,1,,,,,,,,,,,,,,,,,,,,,,,,,,,,,,,,,,,,,,,,,,,,,,
670798,001,2022-11-20_16h52.26.496,Info_measure_main_exp,2022.2.2,Win32,60.13590715,,,,,,,,,,,,,,,,,,masks/mask_004.jpg,,,,,,,,,,,,,,,,,,,,,,,,,,,,,,,,,,,,,,,,,,,0,1,1,3,1,,,,,,,,,,,,,,,,,,,,,,,,,,,,,,,,,,,,,,,,,,,,,,
670798,001,2022-11-20_16h52.26.496,Info_measure_main_exp,2022.2.2,Win32,60.13590715,,,,,,,,,,,,,,,,,,masks/mask_003.jpg,,,,,,,,,,,,,,,,,,,,,,,,,,,,,,,,,,,,,,,,,,,0,2,2,2,1,,,,,,,,,,,,,,,,,,,,,,,,,,,,,,,,,,,,,,,,,,,,,,
670798,001,2022-11-20_16h52.26.496,Info_measure_main_exp,2022.2.2,Win32,60.13590715,,,,,,,,,,,,,,,,,,masks/mask_005.jpg,,,,,,,,,,,,,,,,,,,,,,,,,,,,,,,,,,,,,,,,,,,0,3,3,4,1,,,,,,,,,,,,,,,,,,,,,,,,,,,,,,,,,,,,,,,,,,,,,,
670798,001,2022-11-20_16h52.26.496,Info_measure_main_exp,2022.2.2,Win32,60.13590715,,,,,,,,,,,,,,,,,,masks/mask_002.jpg,,,,,,,,,,,,,,,,,,,,,,,,,,,,,,,,,,,,,,,,,,,0,4,4,1,1,,,,,,,,,,,,,,,,,,,,,,,,,,,,,,,,,,,,,,,,,,,,,,
670798,001,2022-11-20_16h52.26.496,Info_measure_main_exp,2022.2.2,Win32,60.13590715,,,,,,,,,,,,,,,,,,masks/mask_001.jpg,,,,,,,,,,,,,,,,,,,,,,,,,,,,,,,,,,,,,,,,,,,,,,,,0,0,0,0,1,,,,,,,,,,,,,,,,,,,,,,,,,,,,,,,,,,,,,,,,,
670798,001,2022-11-20_16h52.26.496,Info_measure_main_exp,2022.2.2,Win32,60.13590715,,,,,,,,,,,,,,,,,,masks/mask_002.jpg,,,,,,,,,,,,,,,,,,,,,,,,,,,,,,,,,,,,,,,,,,,,,,,,0,1,1,1,1,,,,,,,,,,,,,,,,,,,,,,,,,,,,,,,,,,,,,,,,,
670798,001,2022-11-20_16h52.26.496,Info_measure_main_exp,2022.2.2,Win32,60.13590715,,,,,,,,,,,,,,,,,,masks/mask_003.jpg,,,,,,,,,,,,,,,,,,,,,,,,,,,,,,,,,,,,,,,,,,,,,,,,0,2,2,2,1,,,,,,,,,,,,,,,,,,,,,,,,,,,,,,,,,,,,,,,,,
670798,001,2022-11-20_16h52.26.496,Info_measure_main_exp,2022.2.2,Win32,60.13590715,,,,,,,,,,,,,,,,,,masks/mask_005.jpg,,,,,,,,,,,,,,,,,,,,,,,,,,,,,,,,,,,,,,,,,,,,,,,,0,3,3,4,1,,,,,,,,,,,,,,,,,,,,,,,,,,,,,,,,,,,,,,,,,
670798,001,2022-11-20_16h52.26.496,Info_measure_main_exp,2022.2.2,Win32,60.13590715,,,,,,,,,,,,,,,,,,masks/mask_004.jpg,,,,,,,,,,,,,,,,,,,,,,,,,,,,,,,,,,,,,,,,,,,,,,,,0,4,4,3,1,,,,,,,,,,,,,,,,,,,,,,,,,,,,,,,,,,,,,,,,,
670798,001,2022-11-20_16h52.26.496,Info_measure_main_exp,2022.2.2,Win32,60.13590715,,,,,,,,,,,,,,,,,,,,,,,,,,,,,,2,1.0499,1,,,,,,,,,,,,0,131,5,5,2190,1974,absent_patch/patch0002190.jpg,absent_patch/patch0001974.jpg,,,,,,,,,,,,,,,,,,,,-0.071614583,-0.0234375,1,0,0,response5disk,9,0,0.001302083,1,0,0,center_square,0,8,8,119,1,,,,,,,,,,,,,,,,,,,,,,,
670798,001,2022-11-20_16h52.26.496,Info_measure_main_exp,2022.2.2,Win32,60.13590715,,,,,,,,,,,,,,,,,,masks/mask_002.jpg,,,,,,,,,,,,,,,,,,,,,,,,,,,,,,,,,,,,,,,,,,,0,0,0,1,1,,,,,,,,,,,,,,,,,,,,,,,,,,,,,,,,,,,,,,,,,,,,,,
670798,001,2022-11-20_16h52.26.496,Info_measure_main_exp,2022.2.2,Win32,60.13590715,,,,,,,,,,,,,,,,,,masks/mask_005.jpg,,,,,,,,,,,,,,,,,,,,,,,,,,,,,,,,,,,,,,,,,,,0,1,1,4,1,,,,,,,,,,,,,,,,,,,,,,,,,,,,,,,,,,,,,,,,,,,,,,
670798,001,2022-11-20_16h52.26.496,Info_measure_main_exp,2022.2.2,Win32,60.13590715,,,,,,,,,,,,,,,,,,masks/mask_003.jpg,,,,,,,,,,,,,,,,,,,,,,,,,,,,,,,,,,,,,,,,,,,0,2,2,2,1,,,,,,,,,,,,,,,,,,,,,,,,,,,,,,,,,,,,,,,,,,,,,,
670798,001,2022-11-20_16h52.26.496,Info_measure_main_exp,2022.2.2,Win32,60.13590715,,,,,,,,,,,,,,,,,,masks/mask_001.jpg,,,,,,,,,,,,,,,,,,,,,,,,,,,,,,,,,,,,,,,,,,,0,3,3,0,1,,,,,,,,,,,,,,,,,,,,,,,,,,,,,,,,,,,,,,,,,,,,,,
670798,001,2022-11-20_16h52.26.496,Info_measure_main_exp,2022.2.2,Win32,60.13590715,,,,,,,,,,,,,,,,,,masks/mask_004.jpg,,,,,,,,,,,,,,,,,,,,,,,,,,,,,,,,,,,,,,,,,,,0,4,4,3,1,,,,,,,,,,,,,,,,,,,,,,,,,,,,,,,,,,,,,,,,,,,,,,
670798,001,2022-11-20_16h52.26.496,Info_measure_main_exp,2022.2.2,Win32,60.13590715,,,,,,,,,,,,,,,,,,masks/mask_004.jpg,,,,,,,,,,,,,,,,,,,,,,,,,,,,,,,,,,,,,,,,,,,,,,,,0,0,0,3,1,,,,,,,,,,,,,,,,,,,,,,,,,,,,,,,,,,,,,,,,,
670798,001,2022-11-20_16h52.26.496,Info_measure_main_exp,2022.2.2,Win32,60.13590715,,,,,,,,,,,,,,,,,,masks/mask_002.jpg,,,,,,,,,,,,,,,,,,,,,,,,,,,,,,,,,,,,,,,,,,,,,,,,0,1,1,1,1,,,,,,,,,,,,,,,,,,,,,,,,,,,,,,,,,,,,,,,,,
670798,001,2022-11-20_16h52.26.496,Info_measure_main_exp,2022.2.2,Win32,60.13590715,,,,,,,,,,,,,,,,,,masks/mask_005.jpg,,,,,,,,,,,,,,,,,,,,,,,,,,,,,,,,,,,,,,,,,,,,,,,,0,2,2,4,1,,,,,,,,,,,,,,,,,,,,,,,,,,,,,,,,,,,,,,,,,
670798,001,2022-11-20_16h52.26.496,Info_measure_main_exp,2022.2.2,Win32,60.13590715,,,,,,,,,,,,,,,,,,masks/mask_003.jpg,,,,,,,,,,,,,,,,,,,,,,,,,,,,,,,,,,,,,,,,,,,,,,,,0,3,3,2,1,,,,,,,,,,,,,,,,,,,,,,,,,,,,,,,,,,,,,,,,,
670798,001,2022-11-20_16h52.26.496,Info_measure_main_exp,2022.2.2,Win32,60.13590715,,,,,,,,,,,,,,,,,,masks/mask_001.jpg,,,,,,,,,,,,,,,,,,,,,,,,,,,,,,,,,,,,,,,,,,,,,,,,0,4,4,0,1,,,,,,,,,,,,,,,,,,,,,,,,,,,,,,,,,,,,,,,,,
670798,001,2022-11-20_16h52.26.496,Info_measure_main_exp,2022.2.2,Win32,60.13590715,,,,,,,,,,,,,,,,,,,,,,,,,,,,,,4,2.1663,1,,,,,,,,,,,,0,131,5,5,2250,2298,absent_patch/patch0002250.jpg,absent_patch/patch0002298.jpg,,,,,,,,,,,,,,,,,,,,0.028645833,-0.069010417,1,0,0,response3disk,10,0.0078125,0.010416667,1,0,0,center_square,0,9,9,59,1,,,,,,,,,,,,,,,,,,,,,,,
670798,001,2022-11-20_16h52.26.496,Info_measure_main_exp,2022.2.2,Win32,60.13590715,,,,,,,,,,,,,,,,,,masks/mask_004.jpg,,,,,,,,,,,,,,,,,,,,,,,,,,,,,,,,,,,,,,,,,,,0,0,0,3,1,,,,,,,,,,,,,,,,,,,,,,,,,,,,,,,,,,,,,,,,,,,,,,
670798,001,2022-11-20_16h52.26.496,Info_measure_main_exp,2022.2.2,Win32,60.13590715,,,,,,,,,,,,,,,,,,masks/mask_003.jpg,,,,,,,,,,,,,,,,,,,,,,,,,,,,,,,,,,,,,,,,,,,0,1,1,2,1,,,,,,,,,,,,,,,,,,,,,,,,,,,,,,,,,,,,,,,,,,,,,,
670798,001,2022-11-20_16h52.26.496,Info_measure_main_exp,2022.2.2,Win32,60.13590715,,,,,,,,,,,,,,,,,,masks/mask_001.jpg,,,,,,,,,,,,,,,,,,,,,,,,,,,,,,,,,,,,,,,,,,,0,2,2,0,1,,,,,,,,,,,,,,,,,,,,,,,,,,,,,,,,,,,,,,,,,,,,,,
670798,001,2022-11-20_16h52.26.496,Info_measure_main_exp,2022.2.2,Win32,60.13590715,,,,,,,,,,,,,,,,,,masks/mask_002.jpg,,,,,,,,,,,,,,,,,,,,,,,,,,,,,,,,,,,,,,,,,,,0,3,3,1,1,,,,,,,,,,,,,,,,,,,,,,,,,,,,,,,,,,,,,,,,,,,,,,
670798,001,2022-11-20_16h52.26.496,Info_measure_main_exp,2022.2.2,Win32,60.13590715,,,,,,,,,,,,,,,,,,masks/mask_005.jpg,,,,,,,,,,,,,,,,,,,,,,,,,,,,,,,,,,,,,,,,,,,0,4,4,4,1,,,,,,,,,,,,,,,,,,,,,,,,,,,,,,,,,,,,,,,,,,,,,,
670798,001,2022-11-20_16h52.26.496,Info_measure_main_exp,2022.2.2,Win32,60.13590715,,,,,,,,,,,,,,,,,,masks/mask_001.jpg,,,,,,,,,,,,,,,,,,,,,,,,,,,,,,,,,,,,,,,,,,,,,,,,0,0,0,0,1,,,,,,,,,,,,,,,,,,,,,,,,,,,,,,,,,,,,,,,,,
670798,001,2022-11-20_16h52.26.496,Info_measure_main_exp,2022.2.2,Win32,60.13590715,,,,,,,,,,,,,,,,,,masks/mask_005.jpg,,,,,,,,,,,,,,,,,,,,,,,,,,,,,,,,,,,,,,,,,,,,,,,,0,1,1,4,1,,,,,,,,,,,,,,,,,,,,,,,,,,,,,,,,,,,,,,,,,
670798,001,2022-11-20_16h52.26.496,Info_measure_main_exp,2022.2.2,Win32,60.13590715,,,,,,,,,,,,,,,,,,masks/mask_003.jpg,,,,,,,,,,,,,,,,,,,,,,,,,,,,,,,,,,,,,,,,,,,,,,,,0,2,2,2,1,,,,,,,,,,,,,,,,,,,,,,,,,,,,,,,,,,,,,,,,,
670798,001,2022-11-20_16h52.26.496,Info_measure_main_exp,2022.2.2,Win32,60.13590715,,,,,,,,,,,,,,,,,,masks/mask_004.jpg,,,,,,,,,,,,,,,,,,,,,,,,,,,,,,,,,,,,,,,,,,,,,,,,0,3,3,3,1,,,,,,,,,,,,,,,,,,,,,,,,,,,,,,,,,,,,,,,,,
670798,001,2022-11-20_16h52.26.496,Info_measure_main_exp,2022.2.2,Win32,60.13590715,,,,,,,,,,,,,,,,,,masks/mask_002.jpg,,,,,,,,,,,,,,,,,,,,,,,,,,,,,,,,,,,,,,,,,,,,,,,,0,4,4,1,1,,,,,,,,,,,,,,,,,,,,,,,,,,,,,,,,,,,,,,,,,
670798,001,2022-11-20_16h52.26.496,Info_measure_main_exp,2022.2.2,Win32,60.13590715,,,,,,,,,,,,,,,,,,,,,,,,,,,,,,1,1.2832,1,,,,,,,,,,,,0,131,5,5,2274,2238,absent_patch/patch0002274.jpg,absent_patch/patch0002238.jpg,,,,,,,,,,,,,,,,,,,,-0.053385417,0.022135417,1,0,0,response7disk,11,0.006510417,-0.002604167,1,0,0,center_square,0,10,10,91,1,,,,,,,,,,,,,,,,,,,,,,,
670798,001,2022-11-20_16h52.26.496,Info_measure_main_exp,2022.2.2,Win32,60.13590715,,,,,,,,,,,,,,,,,,masks/mask_004.jpg,,,,,,,,,,,,,,,,,,,,,,,,,,,,,,,,,,,,,,,,,,,0,0,0,3,1,,,,,,,,,,,,,,,,,,,,,,,,,,,,,,,,,,,,,,,,,,,,,,
670798,001,2022-11-20_16h52.26.496,Info_measure_main_exp,2022.2.2,Win32,60.13590715,,,,,,,,,,,,,,,,,,masks/mask_005.jpg,,,,,,,,,,,,,,,,,,,,,,,,,,,,,,,,,,,,,,,,,,,0,1,1,4,1,,,,,,,,,,,,,,,,,,,,,,,,,,,,,,,,,,,,,,,,,,,,,,
670798,001,2022-11-20_16h52.26.496,Info_measure_main_exp,2022.2.2,Win32,60.13590715,,,,,,,,,,,,,,,,,,masks/mask_002.jpg,,,,,,,,,,,,,,,,,,,,,,,,,,,,,,,,,,,,,,,,,,,0,2,2,1,1,,,,,,,,,,,,,,,,,,,,,,,,,,,,,,,,,,,,,,,,,,,,,,
670798,001,2022-11-20_16h52.26.496,Info_measure_main_exp,2022.2.2,Win32,60.13590715,,,,,,,,,,,,,,,,,,masks/mask_001.jpg,,,,,,,,,,,,,,,,,,,,,,,,,,,,,,,,,,,,,,,,,,,0,3,3,0,1,,,,,,,,,,,,,,,,,,,,,,,,,,,,,,,,,,,,,,,,,,,,,,
670798,001,2022-11-20_16h52.26.496,Info_measure_main_exp,2022.2.2,Win32,60.13590715,,,,,,,,,,,,,,,,,,masks/mask_003.jpg,,,,,,,,,,,,,,,,,,,,,,,,,,,,,,,,,,,,,,,,,,,0,4,4,2,1,,,,,,,,,,,,,,,,,,,,,,,,,,,,,,,,,,,,,,,,,,,,,,
670798,001,2022-11-20_16h52.26.496,Info_measure_main_exp,2022.2.2,Win32,60.13590715,,,,,,,,,,,,,,,,,,masks/mask_002.jpg,,,,,,,,,,,,,,,,,,,,,,,,,,,,,,,,,,,,,,,,,,,,,,,,0,0,0,1,1,,,,,,,,,,,,,,,,,,,,,,,,,,,,,,,,,,,,,,,,,
670798,001,2022-11-20_16h52.26.496,Info_measure_main_exp,2022.2.2,Win32,60.13590715,,,,,,,,,,,,,,,,,,masks/mask_003.jpg,,,,,,,,,,,,,,,,,,,,,,,,,,,,,,,,,,,,,,,,,,,,,,,,0,1,1,2,1,,,,,,,,,,,,,,,,,,,,,,,,,,,,,,,,,,,,,,,,,
670798,001,2022-11-20_16h52.26.496,Info_measure_main_exp,2022.2.2,Win32,60.13590715,,,,,,,,,,,,,,,,,,masks/mask_005.jpg,,,,,,,,,,,,,,,,,,,,,,,,,,,,,,,,,,,,,,,,,,,,,,,,0,2,2,4,1,,,,,,,,,,,,,,,,,,,,,,,,,,,,,,,,,,,,,,,,,
670798,001,2022-11-20_16h52.26.496,Info_measure_main_exp,2022.2.2,Win32,60.13590715,,,,,,,,,,,,,,,,,,masks/mask_001.jpg,,,,,,,,,,,,,,,,,,,,,,,,,,,,,,,,,,,,,,,,,,,,,,,,0,3,3,0,1,,,,,,,,,,,,,,,,,,,,,,,,,,,,,,,,,,,,,,,,,
670798,001,2022-11-20_16h52.26.496,Info_measure_main_exp,2022.2.2,Win32,60.13590715,,,,,,,,,,,,,,,,,,masks/mask_004.jpg,,,,,,,,,,,,,,,,,,,,,,,,,,,,,,,,,,,,,,,,,,,,,,,,0,4,4,3,1,,,,,,,,,,,,,,,,,,,,,,,,,,,,,,,,,,,,,,,,,
670798,001,2022-11-20_16h52.26.496,Info_measure_main_exp,2022.2.2,Win32,60.13590715,,,,,,,,,,,,,,,,,,,,,,,,,,,,,,5,1.2164,1,,,,,,,,,,,,0,131,5,5,1950,2178,absent_patch/patch0001950.jpg,absent_patch/patch0002178.jpg,,,,,,,,,,,,,,,,,,,,0.080729167,-0.024739583,1,0,0,response3disk,12,-0.001302083,-0.006510417,1,0,0,center_square,0,11,11,61,1,,,,,,,,,,,,,,,,,,,,,,,
670798,001,2022-11-20_16h52.26.496,Info_measure_main_exp,2022.2.2,Win32,60.13590715,,,,,,,,,,,,,,,,,,masks/mask_001.jpg,,,,,,,,,,,,,,,,,,,,,,,,,,,,,,,,,,,,,,,,,,,0,0,0,0,1,,,,,,,,,,,,,,,,,,,,,,,,,,,,,,,,,,,,,,,,,,,,,,
670798,001,2022-11-20_16h52.26.496,Info_measure_main_exp,2022.2.2,Win32,60.13590715,,,,,,,,,,,,,,,,,,masks/mask_005.jpg,,,,,,,,,,,,,,,,,,,,,,,,,,,,,,,,,,,,,,,,,,,0,1,1,4,1,,,,,,,,,,,,,,,,,,,,,,,,,,,,,,,,,,,,,,,,,,,,,,
670798,001,2022-11-20_16h52.26.496,Info_measure_main_exp,2022.2.2,Win32,60.13590715,,,,,,,,,,,,,,,,,,masks/mask_004.jpg,,,,,,,,,,,,,,,,,,,,,,,,,,,,,,,,,,,,,,,,,,,0,2,2,3,1,,,,,,,,,,,,,,,,,,,,,,,,,,,,,,,,,,,,,,,,,,,,,,
670798,001,2022-11-20_16h52.26.496,Info_measure_main_exp,2022.2.2,Win32,60.13590715,,,,,,,,,,,,,,,,,,masks/mask_003.jpg,,,,,,,,,,,,,,,,,,,,,,,,,,,,,,,,,,,,,,,,,,,0,3,3,2,1,,,,,,,,,,,,,,,,,,,,,,,,,,,,,,,,,,,,,,,,,,,,,,
670798,001,2022-11-20_16h52.26.496,Info_measure_main_exp,2022.2.2,Win32,60.13590715,,,,,,,,,,,,,,,,,,masks/mask_002.jpg,,,,,,,,,,,,,,,,,,,,,,,,,,,,,,,,,,,,,,,,,,,0,4,4,1,1,,,,,,,,,,,,,,,,,,,,,,,,,,,,,,,,,,,,,,,,,,,,,,
670798,001,2022-11-20_16h52.26.496,Info_measure_main_exp,2022.2.2,Win32,60.13590715,,,,,,,,,,,,,,,,,,masks/mask_004.jpg,,,,,,,,,,,,,,,,,,,,,,,,,,,,,,,,,,,,,,,,,,,,,,,,0,0,0,3,1,,,,,,,,,,,,,,,,,,,,,,,,,,,,,,,,,,,,,,,,,
670798,001,2022-11-20_16h52.26.496,Info_measure_main_exp,2022.2.2,Win32,60.13590715,,,,,,,,,,,,,,,,,,masks/mask_002.jpg,,,,,,,,,,,,,,,,,,,,,,,,,,,,,,,,,,,,,,,,,,,,,,,,0,1,1,1,1,,,,,,,,,,,,,,,,,,,,,,,,,,,,,,,,,,,,,,,,,
670798,001,2022-11-20_16h52.26.496,Info_measure_main_exp,2022.2.2,Win32,60.13590715,,,,,,,,,,,,,,,,,,masks/mask_005.jpg,,,,,,,,,,,,,,,,,,,,,,,,,,,,,,,,,,,,,,,,,,,,,,,,0,2,2,4,1,,,,,,,,,,,,,,,,,,,,,,,,,,,,,,,,,,,,,,,,,
670798,001,2022-11-20_16h52.26.496,Info_measure_main_exp,2022.2.2,Win32,60.13590715,,,,,,,,,,,,,,,,,,masks/mask_001.jpg,,,,,,,,,,,,,,,,,,,,,,,,,,,,,,,,,,,,,,,,,,,,,,,,0,3,3,0,1,,,,,,,,,,,,,,,,,,,,,,,,,,,,,,,,,,,,,,,,,
670798,001,2022-11-20_16h52.26.496,Info_measure_main_exp,2022.2.2,Win32,60.13590715,,,,,,,,,,,,,,,,,,masks/mask_003.jpg,,,,,,,,,,,,,,,,,,,,,,,,,,,,,,,,,,,,,,,,,,,,,,,,0,4,4,2,1,,,,,,,,,,,,,,,,,,,,,,,,,,,,,,,,,,,,,,,,,
670798,001,2022-11-20_16h52.26.496,Info_measure_main_exp,2022.2.2,Win32,60.13590715,,,,,,,,,,,,,,,,,,,,,,,,,,,,,,4,1.4497,1,,,,,,,,,,,,0,131,5,5,2298,2274,absent_patch/patch0002298.jpg,absent_patch/patch0002274.jpg,,,,,,,,,,,,,,,,,,,,0.028645833,-0.048177083,1,0,0,response3disk,13,-0.002604167,0,1,0,0,center_square,0,12,12,1,1,,,,,,,,,,,,,,,,,,,,,,,
670798,001,2022-11-20_16h52.26.496,Info_measure_main_exp,2022.2.2,Win32,60.13590715,,,,,,,,,,,,,,,,,,masks/mask_005.jpg,,,,,,,,,,,,,,,,,,,,,,,,,,,,,,,,,,,,,,,,,,,0,0,0,4,1,,,,,,,,,,,,,,,,,,,,,,,,,,,,,,,,,,,,,,,,,,,,,,
670798,001,2022-11-20_16h52.26.496,Info_measure_main_exp,2022.2.2,Win32,60.13590715,,,,,,,,,,,,,,,,,,masks/mask_001.jpg,,,,,,,,,,,,,,,,,,,,,,,,,,,,,,,,,,,,,,,,,,,0,1,1,0,1,,,,,,,,,,,,,,,,,,,,,,,,,,,,,,,,,,,,,,,,,,,,,,
670798,001,2022-11-20_16h52.26.496,Info_measure_main_exp,2022.2.2,Win32,60.13590715,,,,,,,,,,,,,,,,,,masks/mask_002.jpg,,,,,,,,,,,,,,,,,,,,,,,,,,,,,,,,,,,,,,,,,,,0,2,2,1,1,,,,,,,,,,,,,,,,,,,,,,,,,,,,,,,,,,,,,,,,,,,,,,
670798,001,2022-11-20_16h52.26.496,Info_measure_main_exp,2022.2.2,Win32,60.13590715,,,,,,,,,,,,,,,,,,masks/mask_003.jpg,,,,,,,,,,,,,,,,,,,,,,,,,,,,,,,,,,,,,,,,,,,0,3,3,2,1,,,,,,,,,,,,,,,,,,,,,,,,,,,,,,,,,,,,,,,,,,,,,,
670798,001,2022-11-20_16h52.26.496,Info_measure_main_exp,2022.2.2,Win32,60.13590715,,,,,,,,,,,,,,,,,,masks/mask_004.jpg,,,,,,,,,,,,,,,,,,,,,,,,,,,,,,,,,,,,,,,,,,,0,4,4,3,1,,,,,,,,,,,,,,,,,,,,,,,,,,,,,,,,,,,,,,,,,,,,,,
670798,001,2022-11-20_16h52.26.496,Info_measure_main_exp,2022.2.2,Win32,60.13590715,,,,,,,,,,,,,,,,,,masks/mask_004.jpg,,,,,,,,,,,,,,,,,,,,,,,,,,,,,,,,,,,,,,,,,,,,,,,,0,0,0,3,1,,,,,,,,,,,,,,,,,,,,,,,,,,,,,,,,,,,,,,,,,
670798,001,2022-11-20_16h52.26.496,Info_measure_main_exp,2022.2.2,Win32,60.13590715,,,,,,,,,,,,,,,,,,masks/mask_001.jpg,,,,,,,,,,,,,,,,,,,,,,,,,,,,,,,,,,,,,,,,,,,,,,,,0,1,1,0,1,,,,,,,,,,,,,,,,,,,,,,,,,,,,,,,,,,,,,,,,,
670798,001,2022-11-20_16h52.26.496,Info_measure_main_exp,2022.2.2,Win32,60.13590715,,,,,,,,,,,,,,,,,,masks/mask_002.jpg,,,,,,,,,,,,,,,,,,,,,,,,,,,,,,,,,,,,,,,,,,,,,,,,0,2,2,1,1,,,,,,,,,,,,,,,,,,,,,,,,,,,,,,,,,,,,,,,,,
670798,001,2022-11-20_16h52.26.496,Info_measure_main_exp,2022.2.2,Win32,60.13590715,,,,,,,,,,,,,,,,,,masks/mask_005.jpg,,,,,,,,,,,,,,,,,,,,,,,,,,,,,,,,,,,,,,,,,,,,,,,,0,3,3,4,1,,,,,,,,,,,,,,,,,,,,,,,,,,,,,,,,,,,,,,,,,
670798,001,2022-11-20_16h52.26.496,Info_measure_main_exp,2022.2.2,Win32,60.13590715,,,,,,,,,,,,,,,,,,masks/mask_003.jpg,,,,,,,,,,,,,,,,,,,,,,,,,,,,,,,,,,,,,,,,,,,,,,,,0,4,4,2,1,,,,,,,,,,,,,,,,,,,,,,,,,,,,,,,,,,,,,,,,,
670798,001,2022-11-20_16h52.26.496,Info_measure_main_exp,2022.2.2,Win32,60.13590715,,,,,,,,,,,,,,,,,,,,,,,,,,,,,,5,1.6164,1,,,,,,,,,,,,0,131,5,5,1974,2142,absent_patch/patch0001974.jpg,absent_patch/patch0002142.jpg,,,,,,,,,,,,,,,,,,,,0.17578125,-0.04296875,1,0,0,response3disk,14,0.001302083,0.001302083,1,0,0,center_square,0,13,13,38,1,,,,,,,,,,,,,,,,,,,,,,,
670798,001,2022-11-20_16h52.26.496,Info_measure_main_exp,2022.2.2,Win32,60.13590715,,,,,,,,,,,,,,,,,,masks/mask_004.jpg,,,,,,,,,,,,,,,,,,,,,,,,,,,,,,,,,,,,,,,,,,,0,0,0,3,1,,,,,,,,,,,,,,,,,,,,,,,,,,,,,,,,,,,,,,,,,,,,,,
670798,001,2022-11-20_16h52.26.496,Info_measure_main_exp,2022.2.2,Win32,60.13590715,,,,,,,,,,,,,,,,,,masks/mask_003.jpg,,,,,,,,,,,,,,,,,,,,,,,,,,,,,,,,,,,,,,,,,,,0,1,1,2,1,,,,,,,,,,,,,,,,,,,,,,,,,,,,,,,,,,,,,,,,,,,,,,
670798,001,2022-11-20_16h52.26.496,Info_measure_main_exp,2022.2.2,Win32,60.13590715,,,,,,,,,,,,,,,,,,masks/mask_002.jpg,,,,,,,,,,,,,,,,,,,,,,,,,,,,,,,,,,,,,,,,,,,0,2,2,1,1,,,,,,,,,,,,,,,,,,,,,,,,,,,,,,,,,,,,,,,,,,,,,,
670798,001,2022-11-20_16h52.26.496,Info_measure_main_exp,2022.2.2,Win32,60.13590715,,,,,,,,,,,,,,,,,,masks/mask_005.jpg,,,,,,,,,,,,,,,,,,,,,,,,,,,,,,,,,,,,,,,,,,,0,3,3,4,1,,,,,,,,,,,,,,,,,,,,,,,,,,,,,,,,,,,,,,,,,,,,,,
670798,001,2022-11-20_16h52.26.496,Info_measure_main_exp,2022.2.2,Win32,60.13590715,,,,,,,,,,,,,,,,,,masks/mask_001.jpg,,,,,,,,,,,,,,,,,,,,,,,,,,,,,,,,,,,,,,,,,,,0,4,4,0,1,,,,,,,,,,,,,,,,,,,,,,,,,,,,,,,,,,,,,,,,,,,,,,
670798,001,2022-11-20_16h52.26.496,Info_measure_main_exp,2022.2.2,Win32,60.13590715,,,,,,,,,,,,,,,,,,masks/mask_004.jpg,,,,,,,,,,,,,,,,,,,,,,,,,,,,,,,,,,,,,,,,,,,,,,,,0,0,0,3,1,,,,,,,,,,,,,,,,,,,,,,,,,,,,,,,,,,,,,,,,,
670798,001,2022-11-20_16h52.26.496,Info_measure_main_exp,2022.2.2,Win32,60.13590715,,,,,,,,,,,,,,,,,,masks/mask_002.jpg,,,,,,,,,,,,,,,,,,,,,,,,,,,,,,,,,,,,,,,,,,,,,,,,0,1,1,1,1,,,,,,,,,,,,,,,,,,,,,,,,,,,,,,,,,,,,,,,,,
670798,001,2022-11-20_16h52.26.496,Info_measure_main_exp,2022.2.2,Win32,60.13590715,,,,,,,,,,,,,,,,,,masks/mask_001.jpg,,,,,,,,,,,,,,,,,,,,,,,,,,,,,,,,,,,,,,,,,,,,,,,,0,2,2,0,1,,,,,,,,,,,,,,,,,,,,,,,,,,,,,,,,,,,,,,,,,
670798,001,2022-11-20_16h52.26.496,Info_measure_main_exp,2022.2.2,Win32,60.13590715,,,,,,,,,,,,,,,,,,masks/mask_003.jpg,,,,,,,,,,,,,,,,,,,,,,,,,,,,,,,,,,,,,,,,,,,,,,,,0,3,3,2,1,,,,,,,,,,,,,,,,,,,,,,,,,,,,,,,,,,,,,,,,,
670798,001,2022-11-20_16h52.26.496,Info_measure_main_exp,2022.2.2,Win32,60.13590715,,,,,,,,,,,,,,,,,,masks/mask_005.jpg,,,,,,,,,,,,,,,,,,,,,,,,,,,,,,,,,,,,,,,,,,,,,,,,0,4,4,4,1,,,,,,,,,,,,,,,,,,,,,,,,,,,,,,,,,,,,,,,,,
670798,001,2022-11-20_16h52.26.496,Info_measure_main_exp,2022.2.2,Win32,60.13590715,,,,,,,,,,,,,,,,,,,,,,,,,,,,,,6,1.4329,1,,,,,,,,,,,,0,131,5,5,2298,2214,absent_patch/patch0002298.jpg,absent_patch/patch0002214.jpg,,,,,,,,,,,,,,,,,,,,0.109375,0.046875,1,0,0,response1disk,15,-0.005208333,0.013020833,1,0,0,center_square,0,14,14,99,1,,,,,,,,,,,,,,,,,,,,,,,
670798,001,2022-11-20_16h52.26.496,Info_measure_main_exp,2022.2.2,Win32,60.13590715,,,,,,,,,,,,,,,,,,masks/mask_005.jpg,,,,,,,,,,,,,,,,,,,,,,,,,,,,,,,,,,,,,,,,,,,0,0,0,4,1,,,,,,,,,,,,,,,,,,,,,,,,,,,,,,,,,,,,,,,,,,,,,,
670798,001,2022-11-20_16h52.26.496,Info_measure_main_exp,2022.2.2,Win32,60.13590715,,,,,,,,,,,,,,,,,,masks/mask_002.jpg,,,,,,,,,,,,,,,,,,,,,,,,,,,,,,,,,,,,,,,,,,,0,1,1,1,1,,,,,,,,,,,,,,,,,,,,,,,,,,,,,,,,,,,,,,,,,,,,,,
670798,001,2022-11-20_16h52.26.496,Info_measure_main_exp,2022.2.2,Win32,60.13590715,,,,,,,,,,,,,,,,,,masks/mask_003.jpg,,,,,,,,,,,,,,,,,,,,,,,,,,,,,,,,,,,,,,,,,,,0,2,2,2,1,,,,,,,,,,,,,,,,,,,,,,,,,,,,,,,,,,,,,,,,,,,,,,
670798,001,2022-11-20_16h52.26.496,Info_measure_main_exp,2022.2.2,Win32,60.13590715,,,,,,,,,,,,,,,,,,masks/mask_004.jpg,,,,,,,,,,,,,,,,,,,,,,,,,,,,,,,,,,,,,,,,,,,0,3,3,3,1,,,,,,,,,,,,,,,,,,,,,,,,,,,,,,,,,,,,,,,,,,,,,,
670798,001,2022-11-20_16h52.26.496,Info_measure_main_exp,2022.2.2,Win32,60.13590715,,,,,,,,,,,,,,,,,,masks/mask_001.jpg,,,,,,,,,,,,,,,,,,,,,,,,,,,,,,,,,,,,,,,,,,,0,4,4,0,1,,,,,,,,,,,,,,,,,,,,,,,,,,,,,,,,,,,,,,,,,,,,,,
670798,001,2022-11-20_16h52.26.496,Info_measure_main_exp,2022.2.2,Win32,60.13590715,,,,,,,,,,,,,,,,,,masks/mask_001.jpg,,,,,,,,,,,,,,,,,,,,,,,,,,,,,,,,,,,,,,,,,,,,,,,,0,0,0,0,1,,,,,,,,,,,,,,,,,,,,,,,,,,,,,,,,,,,,,,,,,
670798,001,2022-11-20_16h52.26.496,Info_measure_main_exp,2022.2.2,Win32,60.13590715,,,,,,,,,,,,,,,,,,masks/mask_002.jpg,,,,,,,,,,,,,,,,,,,,,,,,,,,,,,,,,,,,,,,,,,,,,,,,0,1,1,1,1,,,,,,,,,,,,,,,,,,,,,,,,,,,,,,,,,,,,,,,,,
670798,001,2022-11-20_16h52.26.496,Info_measure_main_exp,2022.2.2,Win32,60.13590715,,,,,,,,,,,,,,,,,,masks/mask_003.jpg,,,,,,,,,,,,,,,,,,,,,,,,,,,,,,,,,,,,,,,,,,,,,,,,0,2,2,2,1,,,,,,,,,,,,,,,,,,,,,,,,,,,,,,,,,,,,,,,,,
670798,001,2022-11-20_16h52.26.496,Info_measure_main_exp,2022.2.2,Win32,60.13590715,,,,,,,,,,,,,,,,,,masks/mask_005.jpg,,,,,,,,,,,,,,,,,,,,,,,,,,,,,,,,,,,,,,,,,,,,,,,,0,3,3,4,1,,,,,,,,,,,,,,,,,,,,,,,,,,,,,,,,,,,,,,,,,
670798,001,2022-11-20_16h52.26.496,Info_measure_main_exp,2022.2.2,Win32,60.13590715,,,,,,,,,,,,,,,,,,masks/mask_004.jpg,,,,,,,,,,,,,,,,,,,,,,,,,,,,,,,,,,,,,,,,,,,,,,,,0,4,4,3,1,,,,,,,,,,,,,,,,,,,,,,,,,,,,,,,,,,,,,,,,,
670798,001,2022-11-20_16h52.26.496,Info_measure_main_exp,2022.2.2,Win32,60.13590715,,,,,,,,,,,,,,,,,,,,,,,,,,,,,,0,0.8163,1,,,,,,,,,,,,0,131,5,5,2298,2298,absent_patch/patch0002298.jpg,absent_patch/patch0002298.jpg,,,,,,,,,,,,,,,,,,,,-0.024739583,0.09375,1,0,0,response7disk,16,-0.005208333,0.00390625,1,0,0,center_square,0,15,15,37,1,,,,,,,,,,,,,,,,,,,,,,,
670798,001,2022-11-20_16h52.26.496,Info_measure_main_exp,2022.2.2,Win32,60.13590715,,,,,,,,,,,,,,,,,,masks/mask_002.jpg,,,,,,,,,,,,,,,,,,,,,,,,,,,,,,,,,,,,,,,,,,,0,0,0,1,1,,,,,,,,,,,,,,,,,,,,,,,,,,,,,,,,,,,,,,,,,,,,,,
670798,001,2022-11-20_16h52.26.496,Info_measure_main_exp,2022.2.2,Win32,60.13590715,,,,,,,,,,,,,,,,,,masks/mask_001.jpg,,,,,,,,,,,,,,,,,,,,,,,,,,,,,,,,,,,,,,,,,,,0,1,1,0,1,,,,,,,,,,,,,,,,,,,,,,,,,,,,,,,,,,,,,,,,,,,,,,
670798,001,2022-11-20_16h52.26.496,Info_measure_main_exp,2022.2.2,Win32,60.13590715,,,,,,,,,,,,,,,,,,masks/mask_003.jpg,,,,,,,,,,,,,,,,,,,,,,,,,,,,,,,,,,,,,,,,,,,0,2,2,2,1,,,,,,,,,,,,,,,,,,,,,,,,,,,,,,,,,,,,,,,,,,,,,,
670798,001,2022-11-20_16h52.26.496,Info_measure_main_exp,2022.2.2,Win32,60.13590715,,,,,,,,,,,,,,,,,,masks/mask_004.jpg,,,,,,,,,,,,,,,,,,,,,,,,,,,,,,,,,,,,,,,,,,,0,3,3,3,1,,,,,,,,,,,,,,,,,,,,,,,,,,,,,,,,,,,,,,,,,,,,,,
670798,001,2022-11-20_16h52.26.496,Info_measure_main_exp,2022.2.2,Win32,60.13590715,,,,,,,,,,,,,,,,,,masks/mask_005.jpg,,,,,,,,,,,,,,,,,,,,,,,,,,,,,,,,,,,,,,,,,,,0,4,4,4,1,,,,,,,,,,,,,,,,,,,,,,,,,,,,,,,,,,,,,,,,,,,,,,
670798,001,2022-11-20_16h52.26.496,Info_measure_main_exp,2022.2.2,Win32,60.13590715,,,,,,,,,,,,,,,,,,masks/mask_004.jpg,,,,,,,,,,,,,,,,,,,,,,,,,,,,,,,,,,,,,,,,,,,,,,,,0,0,0,3,1,,,,,,,,,,,,,,,,,,,,,,,,,,,,,,,,,,,,,,,,,
670798,001,2022-11-20_16h52.26.496,Info_measure_main_exp,2022.2.2,Win32,60.13590715,,,,,,,,,,,,,,,,,,masks/mask_003.jpg,,,,,,,,,,,,,,,,,,,,,,,,,,,,,,,,,,,,,,,,,,,,,,,,0,1,1,2,1,,,,,,,,,,,,,,,,,,,,,,,,,,,,,,,,,,,,,,,,,
670798,001,2022-11-20_16h52.26.496,Info_measure_main_exp,2022.2.2,Win32,60.13590715,,,,,,,,,,,,,,,,,,masks/mask_001.jpg,,,,,,,,,,,,,,,,,,,,,,,,,,,,,,,,,,,,,,,,,,,,,,,,0,2,2,0,1,,,,,,,,,,,,,,,,,,,,,,,,,,,,,,,,,,,,,,,,,
670798,001,2022-11-20_16h52.26.496,Info_measure_main_exp,2022.2.2,Win32,60.13590715,,,,,,,,,,,,,,,,,,masks/mask_002.jpg,,,,,,,,,,,,,,,,,,,,,,,,,,,,,,,,,,,,,,,,,,,,,,,,0,3,3,1,1,,,,,,,,,,,,,,,,,,,,,,,,,,,,,,,,,,,,,,,,,
670798,001,2022-11-20_16h52.26.496,Info_measure_main_exp,2022.2.2,Win32,60.13590715,,,,,,,,,,,,,,,,,,masks/mask_005.jpg,,,,,,,,,,,,,,,,,,,,,,,,,,,,,,,,,,,,,,,,,,,,,,,,0,4,4,4,1,,,,,,,,,,,,,,,,,,,,,,,,,,,,,,,,,,,,,,,,,
670798,001,2022-11-20_16h52.26.496,Info_measure_main_exp,2022.2.2,Win32,60.13590715,,,,,,,,,,,,,,,,,,,,,,,,,,,,,,2,1.1498,1,,,,,,,,,,,,0,131,5,5,2142,2166,absent_patch/patch0002142.jpg,absent_patch/patch0002166.jpg,,,,,,,,,,,,,,,,,,,,-0.065104167,-0.020833333,1,0,0,response5disk,17,0,-0.00390625,1,0,0,center_square,0,16,16,66,1,,,,,,,,,,,,,,,,,,,,,,,
670798,001,2022-11-20_16h52.26.496,Info_measure_main_exp,2022.2.2,Win32,60.13590715,,,,,,,,,,,,,,,,,,masks/mask_004.jpg,,,,,,,,,,,,,,,,,,,,,,,,,,,,,,,,,,,,,,,,,,,0,0,0,3,1,,,,,,,,,,,,,,,,,,,,,,,,,,,,,,,,,,,,,,,,,,,,,,
670798,001,2022-11-20_16h52.26.496,Info_measure_main_exp,2022.2.2,Win32,60.13590715,,,,,,,,,,,,,,,,,,masks/mask_001.jpg,,,,,,,,,,,,,,,,,,,,,,,,,,,,,,,,,,,,,,,,,,,0,1,1,0,1,,,,,,,,,,,,,,,,,,,,,,,,,,,,,,,,,,,,,,,,,,,,,,
670798,001,2022-11-20_16h52.26.496,Info_measure_main_exp,2022.2.2,Win32,60.13590715,,,,,,,,,,,,,,,,,,masks/mask_003.jpg,,,,,,,,,,,,,,,,,,,,,,,,,,,,,,,,,,,,,,,,,,,0,2,2,2,1,,,,,,,,,,,,,,,,,,,,,,,,,,,,,,,,,,,,,,,,,,,,,,
670798,001,2022-11-20_16h52.26.496,Info_measure_main_exp,2022.2.2,Win32,60.13590715,,,,,,,,,,,,,,,,,,masks/mask_005.jpg,,,,,,,,,,,,,,,,,,,,,,,,,,,,,,,,,,,,,,,,,,,0,3,3,4,1,,,,,,,,,,,,,,,,,,,,,,,,,,,,,,,,,,,,,,,,,,,,,,
670798,001,2022-11-20_16h52.26.496,Info_measure_main_exp,2022.2.2,Win32,60.13590715,,,,,,,,,,,,,,,,,,masks/mask_002.jpg,,,,,,,,,,,,,,,,,,,,,,,,,,,,,,,,,,,,,,,,,,,0,4,4,1,1,,,,,,,,,,,,,,,,,,,,,,,,,,,,,,,,,,,,,,,,,,,,,,
670798,001,2022-11-20_16h52.26.496,Info_measure_main_exp,2022.2.2,Win32,60.13590715,,,,,,,,,,,,,,,,,,masks/mask_005.jpg,,,,,,,,,,,,,,,,,,,,,,,,,,,,,,,,,,,,,,,,,,,,,,,,0,0,0,4,1,,,,,,,,,,,,,,,,,,,,,,,,,,,,,,,,,,,,,,,,,
670798,001,2022-11-20_16h52.26.496,Info_measure_main_exp,2022.2.2,Win32,60.13590715,,,,,,,,,,,,,,,,,,masks/mask_004.jpg,,,,,,,,,,,,,,,,,,,,,,,,,,,,,,,,,,,,,,,,,,,,,,,,0,1,1,3,1,,,,,,,,,,,,,,,,,,,,,,,,,,,,,,,,,,,,,,,,,
670798,001,2022-11-20_16h52.26.496,Info_measure_main_exp,2022.2.2,Win32,60.13590715,,,,,,,,,,,,,,,,,,masks/mask_001.jpg,,,,,,,,,,,,,,,,,,,,,,,,,,,,,,,,,,,,,,,,,,,,,,,,0,2,2,0,1,,,,,,,,,,,,,,,,,,,,,,,,,,,,,,,,,,,,,,,,,
670798,001,2022-11-20_16h52.26.496,Info_measure_main_exp,2022.2.2,Win32,60.13590715,,,,,,,,,,,,,,,,,,masks/mask_002.jpg,,,,,,,,,,,,,,,,,,,,,,,,,,,,,,,,,,,,,,,,,,,,,,,,0,3,3,1,1,,,,,,,,,,,,,,,,,,,,,,,,,,,,,,,,,,,,,,,,,
670798,001,2022-11-20_16h52.26.496,Info_measure_main_exp,2022.2.2,Win32,60.13590715,,,,,,,,,,,,,,,,,,masks/mask_003.jpg,,,,,,,,,,,,,,,,,,,,,,,,,,,,,,,,,,,,,,,,,,,,,,,,0,4,4,2,1,,,,,,,,,,,,,,,,,,,,,,,,,,,,,,,,,,,,,,,,,
670798,001,2022-11-20_16h52.26.496,Info_measure_main_exp,2022.2.2,Win32,60.13590715,,,,,,,,,,,,,,,,,,,,,,,,,,,,,,6,0.9997,1,,,,,,,,,,,,0,131,5,5,2274,2190,absent_patch/patch0002274.jpg,absent_patch/patch0002190.jpg,,,,,,,,,,,,,,,,,,,,0.100260417,0.032552083,1,0,0,response1disk,18,-0.002604167,0.002604167,1,0,0,center_square,0,17,17,116,1,,,,,,,,,,,,,,,,,,,,,,,
670798,001,2022-11-20_16h52.26.496,Info_measure_main_exp,2022.2.2,Win32,60.13590715,,,,,,,,,,,,,,,,,,masks/mask_005.jpg,,,,,,,,,,,,,,,,,,,,,,,,,,,,,,,,,,,,,,,,,,,0,0,0,4,1,,,,,,,,,,,,,,,,,,,,,,,,,,,,,,,,,,,,,,,,,,,,,,
670798,001,2022-11-20_16h52.26.496,Info_measure_main_exp,2022.2.2,Win32,60.13590715,,,,,,,,,,,,,,,,,,masks/mask_004.jpg,,,,,,,,,,,,,,,,,,,,,,,,,,,,,,,,,,,,,,,,,,,0,1,1,3,1,,,,,,,,,,,,,,,,,,,,,,,,,,,,,,,,,,,,,,,,,,,,,,
670798,001,2022-11-20_16h52.26.496,Info_measure_main_exp,2022.2.2,Win32,60.13590715,,,,,,,,,,,,,,,,,,masks/mask_003.jpg,,,,,,,,,,,,,,,,,,,,,,,,,,,,,,,,,,,,,,,,,,,0,2,2,2,1,,,,,,,,,,,,,,,,,,,,,,,,,,,,,,,,,,,,,,,,,,,,,,
670798,001,2022-11-20_16h52.26.496,Info_measure_main_exp,2022.2.2,Win32,60.13590715,,,,,,,,,,,,,,,,,,masks/mask_002.jpg,,,,,,,,,,,,,,,,,,,,,,,,,,,,,,,,,,,,,,,,,,,0,3,3,1,1,,,,,,,,,,,,,,,,,,,,,,,,,,,,,,,,,,,,,,,,,,,,,,
670798,001,2022-11-20_16h52.26.496,Info_measure_main_exp,2022.2.2,Win32,60.13590715,,,,,,,,,,,,,,,,,,masks/mask_001.jpg,,,,,,,,,,,,,,,,,,,,,,,,,,,,,,,,,,,,,,,,,,,0,4,4,0,1,,,,,,,,,,,,,,,,,,,,,,,,,,,,,,,,,,,,,,,,,,,,,,
670798,001,2022-11-20_16h52.26.496,Info_measure_main_exp,2022.2.2,Win32,60.13590715,,,,,,,,,,,,,,,,,,masks/mask_004.jpg,,,,,,,,,,,,,,,,,,,,,,,,,,,,,,,,,,,,,,,,,,,,,,,,0,0,0,3,1,,,,,,,,,,,,,,,,,,,,,,,,,,,,,,,,,,,,,,,,,
670798,001,2022-11-20_16h52.26.496,Info_measure_main_exp,2022.2.2,Win32,60.13590715,,,,,,,,,,,,,,,,,,masks/mask_005.jpg,,,,,,,,,,,,,,,,,,,,,,,,,,,,,,,,,,,,,,,,,,,,,,,,0,1,1,4,1,,,,,,,,,,,,,,,,,,,,,,,,,,,,,,,,,,,,,,,,,
670798,001,2022-11-20_16h52.26.496,Info_measure_main_exp,2022.2.2,Win32,60.13590715,,,,,,,,,,,,,,,,,,masks/mask_003.jpg,,,,,,,,,,,,,,,,,,,,,,,,,,,,,,,,,,,,,,,,,,,,,,,,0,2,2,2,1,,,,,,,,,,,,,,,,,,,,,,,,,,,,,,,,,,,,,,,,,
670798,001,2022-11-20_16h52.26.496,Info_measure_main_exp,2022.2.2,Win32,60.13590715,,,,,,,,,,,,,,,,,,masks/mask_001.jpg,,,,,,,,,,,,,,,,,,,,,,,,,,,,,,,,,,,,,,,,,,,,,,,,0,3,3,0,1,,,,,,,,,,,,,,,,,,,,,,,,,,,,,,,,,,,,,,,,,
670798,001,2022-11-20_16h52.26.496,Info_measure_main_exp,2022.2.2,Win32,60.13590715,,,,,,,,,,,,,,,,,,masks/mask_002.jpg,,,,,,,,,,,,,,,,,,,,,,,,,,,,,,,,,,,,,,,,,,,,,,,,0,4,4,1,1,,,,,,,,,,,,,,,,,,,,,,,,,,,,,,,,,,,,,,,,,
670798,001,2022-11-20_16h52.26.496,Info_measure_main_exp,2022.2.2,Win32,60.13590715,,,,,,,,,,,,,,,,,,,,,,,,,,,,,,3,2.1994,1,,,,,,,,,,,,0,131,5,5,1950,2166,absent_patch/patch0001950.jpg,absent_patch/patch0002166.jpg,,,,,,,,,,,,,,,,,,,,-0.065104167,-0.09765625,1,0,0,response5disk,19,0,0.009114583,1,0,0,center_square,0,18,18,0,1,,,,,,,,,,,,,,,,,,,,,,,
670798,001,2022-11-20_16h52.26.496,Info_measure_main_exp,2022.2.2,Win32,60.13590715,,,,,,,,,,,,,,,,,,masks/mask_003.jpg,,,,,,,,,,,,,,,,,,,,,,,,,,,,,,,,,,,,,,,,,,,0,0,0,2,1,,,,,,,,,,,,,,,,,,,,,,,,,,,,,,,,,,,,,,,,,,,,,,
670798,001,2022-11-20_16h52.26.496,Info_measure_main_exp,2022.2.2,Win32,60.13590715,,,,,,,,,,,,,,,,,,masks/mask_005.jpg,,,,,,,,,,,,,,,,,,,,,,,,,,,,,,,,,,,,,,,,,,,0,1,1,4,1,,,,,,,,,,,,,,,,,,,,,,,,,,,,,,,,,,,,,,,,,,,,,,
670798,001,2022-11-20_16h52.26.496,Info_measure_main_exp,2022.2.2,Win32,60.13590715,,,,,,,,,,,,,,,,,,masks/mask_004.jpg,,,,,,,,,,,,,,,,,,,,,,,,,,,,,,,,,,,,,,,,,,,0,2,2,3,1,,,,,,,,,,,,,,,,,,,,,,,,,,,,,,,,,,,,,,,,,,,,,,
670798,001,2022-11-20_16h52.26.496,Info_measure_main_exp,2022.2.2,Win32,60.13590715,,,,,,,,,,,,,,,,,,masks/mask_002.jpg,,,,,,,,,,,,,,,,,,,,,,,,,,,,,,,,,,,,,,,,,,,0,3,3,1,1,,,,,,,,,,,,,,,,,,,,,,,,,,,,,,,,,,,,,,,,,,,,,,
670798,001,2022-11-20_16h52.26.496,Info_measure_main_exp,2022.2.2,Win32,60.13590715,,,,,,,,,,,,,,,,,,masks/mask_001.jpg,,,,,,,,,,,,,,,,,,,,,,,,,,,,,,,,,,,,,,,,,,,0,4,4,0,1,,,,,,,,,,,,,,,,,,,,,,,,,,,,,,,,,,,,,,,,,,,,,,
670798,001,2022-11-20_16h52.26.496,Info_measure_main_exp,2022.2.2,Win32,60.13590715,,,,,,,,,,,,,,,,,,masks/mask_003.jpg,,,,,,,,,,,,,,,,,,,,,,,,,,,,,,,,,,,,,,,,,,,,,,,,0,0,0,2,1,,,,,,,,,,,,,,,,,,,,,,,,,,,,,,,,,,,,,,,,,
670798,001,2022-11-20_16h52.26.496,Info_measure_main_exp,2022.2.2,Win32,60.13590715,,,,,,,,,,,,,,,,,,masks/mask_002.jpg,,,,,,,,,,,,,,,,,,,,,,,,,,,,,,,,,,,,,,,,,,,,,,,,0,1,1,1,1,,,,,,,,,,,,,,,,,,,,,,,,,,,,,,,,,,,,,,,,,
670798,001,2022-11-20_16h52.26.496,Info_measure_main_exp,2022.2.2,Win32,60.13590715,,,,,,,,,,,,,,,,,,masks/mask_001.jpg,,,,,,,,,,,,,,,,,,,,,,,,,,,,,,,,,,,,,,,,,,,,,,,,0,2,2,0,1,,,,,,,,,,,,,,,,,,,,,,,,,,,,,,,,,,,,,,,,,
670798,001,2022-11-20_16h52.26.496,Info_measure_main_exp,2022.2.2,Win32,60.13590715,,,,,,,,,,,,,,,,,,masks/mask_005.jpg,,,,,,,,,,,,,,,,,,,,,,,,,,,,,,,,,,,,,,,,,,,,,,,,0,3,3,4,1,,,,,,,,,,,,,,,,,,,,,,,,,,,,,,,,,,,,,,,,,
670798,001,2022-11-20_16h52.26.496,Info_measure_main_exp,2022.2.2,Win32,60.13590715,,,,,,,,,,,,,,,,,,masks/mask_004.jpg,,,,,,,,,,,,,,,,,,,,,,,,,,,,,,,,,,,,,,,,,,,,,,,,0,4,4,3,1,,,,,,,,,,,,,,,,,,,,,,,,,,,,,,,,,,,,,,,,,
670798,001,2022-11-20_16h52.26.496,Info_measure_main_exp,2022.2.2,Win32,60.13590715,,,,,,,,,,,,,,,,,,,,,,,,,,,,,,2,1.1167,1,,,,,,,,,,,,0,131,5,5,2082,2298,absent_patch/patch0002082.jpg,absent_patch/patch0002298.jpg,,,,,,,,,,,,,,,,,,,,-0.08984375,-0.03515625,1,0,0,response5disk,20,0.010416667,0.01171875,1,0,0,center_square,0,19,19,107,1,,,,,,,,,,,,,,,,,,,,,,,
670798,001,2022-11-20_16h52.26.496,Info_measure_main_exp,2022.2.2,Win32,60.13590715,,,,,,,,,,,,,,,,,,masks/mask_005.jpg,,,,,,,,,,,,,,,,,,,,,,,,,,,,,,,,,,,,,,,,,,,0,0,0,4,1,,,,,,,,,,,,,,,,,,,,,,,,,,,,,,,,,,,,,,,,,,,,,,
670798,001,2022-11-20_16h52.26.496,Info_measure_main_exp,2022.2.2,Win32,60.13590715,,,,,,,,,,,,,,,,,,masks/mask_002.jpg,,,,,,,,,,,,,,,,,,,,,,,,,,,,,,,,,,,,,,,,,,,0,1,1,1,1,,,,,,,,,,,,,,,,,,,,,,,,,,,,,,,,,,,,,,,,,,,,,,
670798,001,2022-11-20_16h52.26.496,Info_measure_main_exp,2022.2.2,Win32,60.13590715,,,,,,,,,,,,,,,,,,masks/mask_004.jpg,,,,,,,,,,,,,,,,,,,,,,,,,,,,,,,,,,,,,,,,,,,0,2,2,3,1,,,,,,,,,,,,,,,,,,,,,,,,,,,,,,,,,,,,,,,,,,,,,,
670798,001,2022-11-20_16h52.26.496,Info_measure_main_exp,2022.2.2,Win32,60.13590715,,,,,,,,,,,,,,,,,,masks/mask_001.jpg,,,,,,,,,,,,,,,,,,,,,,,,,,,,,,,,,,,,,,,,,,,0,3,3,0,1,,,,,,,,,,,,,,,,,,,,,,,,,,,,,,,,,,,,,,,,,,,,,,
670798,001,2022-11-20_16h52.26.496,Info_measure_main_exp,2022.2.2,Win32,60.13590715,,,,,,,,,,,,,,,,,,masks/mask_003.jpg,,,,,,,,,,,,,,,,,,,,,,,,,,,,,,,,,,,,,,,,,,,0,4,4,2,1,,,,,,,,,,,,,,,,,,,,,,,,,,,,,,,,,,,,,,,,,,,,,,
670798,001,2022-11-20_16h52.26.496,Info_measure_main_exp,2022.2.2,Win32,60.13590715,,,,,,,,,,,,,,,,,,masks/mask_002.jpg,,,,,,,,,,,,,,,,,,,,,,,,,,,,,,,,,,,,,,,,,,,,,,,,0,0,0,1,1,,,,,,,,,,,,,,,,,,,,,,,,,,,,,,,,,,,,,,,,,
670798,001,2022-11-20_16h52.26.496,Info_measure_main_exp,2022.2.2,Win32,60.13590715,,,,,,,,,,,,,,,,,,masks/mask_003.jpg,,,,,,,,,,,,,,,,,,,,,,,,,,,,,,,,,,,,,,,,,,,,,,,,0,1,1,2,1,,,,,,,,,,,,,,,,,,,,,,,,,,,,,,,,,,,,,,,,,
670798,001,2022-11-20_16h52.26.496,Info_measure_main_exp,2022.2.2,Win32,60.13590715,,,,,,,,,,,,,,,,,,masks/mask_004.jpg,,,,,,,,,,,,,,,,,,,,,,,,,,,,,,,,,,,,,,,,,,,,,,,,0,2,2,3,1,,,,,,,,,,,,,,,,,,,,,,,,,,,,,,,,,,,,,,,,,
670798,001,2022-11-20_16h52.26.496,Info_measure_main_exp,2022.2.2,Win32,60.13590715,,,,,,,,,,,,,,,,,,masks/mask_005.jpg,,,,,,,,,,,,,,,,,,,,,,,,,,,,,,,,,,,,,,,,,,,,,,,,0,3,3,4,1,,,,,,,,,,,,,,,,,,,,,,,,,,,,,,,,,,,,,,,,,
670798,001,2022-11-20_16h52.26.496,Info_measure_main_exp,2022.2.2,Win32,60.13590715,,,,,,,,,,,,,,,,,,masks/mask_001.jpg,,,,,,,,,,,,,,,,,,,,,,,,,,,,,,,,,,,,,,,,,,,,,,,,0,4,4,0,1,,,,,,,,,,,,,,,,,,,,,,,,,,,,,,,,,,,,,,,,,
670798,001,2022-11-20_16h52.26.496,Info_measure_main_exp,2022.2.2,Win32,60.13590715,,,,,,,,,,,,,,,,,,,,,,,,,,,,,,7,0.7997,1,,,,,,,,,,,,1,131,5,5,1,1974,present_patch/cong_131_5_a.jpg,absent_patch/patch0001974.jpg,,,,,,,,,,,,,,,,,,,,0.026041667,0.098958333,1,0,0,response1disk,21,-0.002604167,0,1,0,0,center_square,0,20,20,69,1,,,,,,,,,,,,,,,,,,,,,,,
670798,001,2022-11-20_16h52.26.496,Info_measure_main_exp,2022.2.2,Win32,60.13590715,,,,,,,,,,,,,,,,,,masks/mask_005.jpg,,,,,,,,,,,,,,,,,,,,,,,,,,,,,,,,,,,,,,,,,,,0,0,0,4,1,,,,,,,,,,,,,,,,,,,,,,,,,,,,,,,,,,,,,,,,,,,,,,
670798,001,2022-11-20_16h52.26.496,Info_measure_main_exp,2022.2.2,Win32,60.13590715,,,,,,,,,,,,,,,,,,masks/mask_001.jpg,,,,,,,,,,,,,,,,,,,,,,,,,,,,,,,,,,,,,,,,,,,0,1,1,0,1,,,,,,,,,,,,,,,,,,,,,,,,,,,,,,,,,,,,,,,,,,,,,,
670798,001,2022-11-20_16h52.26.496,Info_measure_main_exp,2022.2.2,Win32,60.13590715,,,,,,,,,,,,,,,,,,masks/mask_002.jpg,,,,,,,,,,,,,,,,,,,,,,,,,,,,,,,,,,,,,,,,,,,0,2,2,1,1,,,,,,,,,,,,,,,,,,,,,,,,,,,,,,,,,,,,,,,,,,,,,,
670798,001,2022-11-20_16h52.26.496,Info_measure_main_exp,2022.2.2,Win32,60.13590715,,,,,,,,,,,,,,,,,,masks/mask_004.jpg,,,,,,,,,,,,,,,,,,,,,,,,,,,,,,,,,,,,,,,,,,,0,3,3,3,1,,,,,,,,,,,,,,,,,,,,,,,,,,,,,,,,,,,,,,,,,,,,,,
670798,001,2022-11-20_16h52.26.496,Info_measure_main_exp,2022.2.2,Win32,60.13590715,,,,,,,,,,,,,,,,,,masks/mask_003.jpg,,,,,,,,,,,,,,,,,,,,,,,,,,,,,,,,,,,,,,,,,,,0,4,4,2,1,,,,,,,,,,,,,,,,,,,,,,,,,,,,,,,,,,,,,,,,,,,,,,
670798,001,2022-11-20_16h52.26.496,Info_measure_main_exp,2022.2.2,Win32,60.13590715,,,,,,,,,,,,,,,,,,masks/mask_005.jpg,,,,,,,,,,,,,,,,,,,,,,,,,,,,,,,,,,,,,,,,,,,,,,,,0,0,0,4,1,,,,,,,,,,,,,,,,,,,,,,,,,,,,,,,,,,,,,,,,,
670798,001,2022-11-20_16h52.26.496,Info_measure_main_exp,2022.2.2,Win32,60.13590715,,,,,,,,,,,,,,,,,,masks/mask_004.jpg,,,,,,,,,,,,,,,,,,,,,,,,,,,,,,,,,,,,,,,,,,,,,,,,0,1,1,3,1,,,,,,,,,,,,,,,,,,,,,,,,,,,,,,,,,,,,,,,,,
670798,001,2022-11-20_16h52.26.496,Info_measure_main_exp,2022.2.2,Win32,60.13590715,,,,,,,,,,,,,,,,,,masks/mask_002.jpg,,,,,,,,,,,,,,,,,,,,,,,,,,,,,,,,,,,,,,,,,,,,,,,,0,2,2,1,1,,,,,,,,,,,,,,,,,,,,,,,,,,,,,,,,,,,,,,,,,
670798,001,2022-11-20_16h52.26.496,Info_measure_main_exp,2022.2.2,Win32,60.13590715,,,,,,,,,,,,,,,,,,masks/mask_001.jpg,,,,,,,,,,,,,,,,,,,,,,,,,,,,,,,,,,,,,,,,,,,,,,,,0,3,3,0,1,,,,,,,,,,,,,,,,,,,,,,,,,,,,,,,,,,,,,,,,,
670798,001,2022-11-20_16h52.26.496,Info_measure_main_exp,2022.2.2,Win32,60.13590715,,,,,,,,,,,,,,,,,,masks/mask_003.jpg,,,,,,,,,,,,,,,,,,,,,,,,,,,,,,,,,,,,,,,,,,,,,,,,0,4,4,2,1,,,,,,,,,,,,,,,,,,,,,,,,,,,,,,,,,,,,,,,,,
670798,001,2022-11-20_16h52.26.496,Info_measure_main_exp,2022.2.2,Win32,60.13590715,,,,,,,,,,,,,,,,,,,,,,,,,,,,,,7,0.783,1,,,,,,,,,,,,0,131,5,5,1986,1974,absent_patch/patch0001986.jpg,absent_patch/patch0001974.jpg,,,,,,,,,,,,,,,,,,,,0.053385417,0.078125,1,0,0,response1disk,22,-0.001302083,-0.00390625,1,0,0,center_square,0,21,21,25,1,,,,,,,,,,,,,,,,,,,,,,,
670798,001,2022-11-20_16h52.26.496,Info_measure_main_exp,2022.2.2,Win32,60.13590715,,,,,,,,,,,,,,,,,,masks/mask_005.jpg,,,,,,,,,,,,,,,,,,,,,,,,,,,,,,,,,,,,,,,,,,,0,0,0,4,1,,,,,,,,,,,,,,,,,,,,,,,,,,,,,,,,,,,,,,,,,,,,,,
670798,001,2022-11-20_16h52.26.496,Info_measure_main_exp,2022.2.2,Win32,60.13590715,,,,,,,,,,,,,,,,,,masks/mask_002.jpg,,,,,,,,,,,,,,,,,,,,,,,,,,,,,,,,,,,,,,,,,,,0,1,1,1,1,,,,,,,,,,,,,,,,,,,,,,,,,,,,,,,,,,,,,,,,,,,,,,
670798,001,2022-11-20_16h52.26.496,Info_measure_main_exp,2022.2.2,Win32,60.13590715,,,,,,,,,,,,,,,,,,masks/mask_001.jpg,,,,,,,,,,,,,,,,,,,,,,,,,,,,,,,,,,,,,,,,,,,0,2,2,0,1,,,,,,,,,,,,,,,,,,,,,,,,,,,,,,,,,,,,,,,,,,,,,,
670798,001,2022-11-20_16h52.26.496,Info_measure_main_exp,2022.2.2,Win32,60.13590715,,,,,,,,,,,,,,,,,,masks/mask_004.jpg,,,,,,,,,,,,,,,,,,,,,,,,,,,,,,,,,,,,,,,,,,,0,3,3,3,1,,,,,,,,,,,,,,,,,,,,,,,,,,,,,,,,,,,,,,,,,,,,,,
670798,001,2022-11-20_16h52.26.496,Info_measure_main_exp,2022.2.2,Win32,60.13590715,,,,,,,,,,,,,,,,,,masks/mask_003.jpg,,,,,,,,,,,,,,,,,,,,,,,,,,,,,,,,,,,,,,,,,,,0,4,4,2,1,,,,,,,,,,,,,,,,,,,,,,,,,,,,,,,,,,,,,,,,,,,,,,
670798,001,2022-11-20_16h52.26.496,Info_measure_main_exp,2022.2.2,Win32,60.13590715,,,,,,,,,,,,,,,,,,masks/mask_002.jpg,,,,,,,,,,,,,,,,,,,,,,,,,,,,,,,,,,,,,,,,,,,,,,,,0,0,0,1,1,,,,,,,,,,,,,,,,,,,,,,,,,,,,,,,,,,,,,,,,,
670798,001,2022-11-20_16h52.26.496,Info_measure_main_exp,2022.2.2,Win32,60.13590715,,,,,,,,,,,,,,,,,,masks/mask_001.jpg,,,,,,,,,,,,,,,,,,,,,,,,,,,,,,,,,,,,,,,,,,,,,,,,0,1,1,0,1,,,,,,,,,,,,,,,,,,,,,,,,,,,,,,,,,,,,,,,,,
670798,001,2022-11-20_16h52.26.496,Info_measure_main_exp,2022.2.2,Win32,60.13590715,,,,,,,,,,,,,,,,,,masks/mask_004.jpg,,,,,,,,,,,,,,,,,,,,,,,,,,,,,,,,,,,,,,,,,,,,,,,,0,2,2,3,1,,,,,,,,,,,,,,,,,,,,,,,,,,,,,,,,,,,,,,,,,
670798,001,2022-11-20_16h52.26.496,Info_measure_main_exp,2022.2.2,Win32,60.13590715,,,,,,,,,,,,,,,,,,masks/mask_005.jpg,,,,,,,,,,,,,,,,,,,,,,,,,,,,,,,,,,,,,,,,,,,,,,,,0,3,3,4,1,,,,,,,,,,,,,,,,,,,,,,,,,,,,,,,,,,,,,,,,,
670798,001,2022-11-20_16h52.26.496,Info_measure_main_exp,2022.2.2,Win32,60.13590715,,,,,,,,,,,,,,,,,,masks/mask_003.jpg,,,,,,,,,,,,,,,,,,,,,,,,,,,,,,,,,,,,,,,,,,,,,,,,0,4,4,2,1,,,,,,,,,,,,,,,,,,,,,,,,,,,,,,,,,,,,,,,,,
670798,001,2022-11-20_16h52.26.496,Info_measure_main_exp,2022.2.2,Win32,60.13590715,,,,,,,,,,,,,,,,,,,,,,,,,,,,,,0,0.7165,1,,,,,,,,,,,,0,131,5,5,2178,2178,absent_patch/patch0002178.jpg,absent_patch/patch0002178.jpg,,,,,,,,,,,,,,,,,,,,-0.046875,0.096354167,1,0,0,response7disk,23,0.002604167,0.00390625,1,0,0,center_square,0,22,22,98,1,,,,,,,,,,,,,,,,,,,,,,,
670798,001,2022-11-20_16h52.26.496,Info_measure_main_exp,2022.2.2,Win32,60.13590715,,,,,,,,,,,,,,,,,,masks/mask_002.jpg,,,,,,,,,,,,,,,,,,,,,,,,,,,,,,,,,,,,,,,,,,,0,0,0,1,1,,,,,,,,,,,,,,,,,,,,,,,,,,,,,,,,,,,,,,,,,,,,,,
670798,001,2022-11-20_16h52.26.496,Info_measure_main_exp,2022.2.2,Win32,60.13590715,,,,,,,,,,,,,,,,,,masks/mask_003.jpg,,,,,,,,,,,,,,,,,,,,,,,,,,,,,,,,,,,,,,,,,,,0,1,1,2,1,,,,,,,,,,,,,,,,,,,,,,,,,,,,,,,,,,,,,,,,,,,,,,
670798,001,2022-11-20_16h52.26.496,Info_measure_main_exp,2022.2.2,Win32,60.13590715,,,,,,,,,,,,,,,,,,masks/mask_001.jpg,,,,,,,,,,,,,,,,,,,,,,,,,,,,,,,,,,,,,,,,,,,0,2,2,0,1,,,,,,,,,,,,,,,,,,,,,,,,,,,,,,,,,,,,,,,,,,,,,,
670798,001,2022-11-20_16h52.26.496,Info_measure_main_exp,2022.2.2,Win32,60.13590715,,,,,,,,,,,,,,,,,,masks/mask_005.jpg,,,,,,,,,,,,,,,,,,,,,,,,,,,,,,,,,,,,,,,,,,,0,3,3,4,1,,,,,,,,,,,,,,,,,,,,,,,,,,,,,,,,,,,,,,,,,,,,,,
670798,001,2022-11-20_16h52.26.496,Info_measure_main_exp,2022.2.2,Win32,60.13590715,,,,,,,,,,,,,,,,,,masks/mask_004.jpg,,,,,,,,,,,,,,,,,,,,,,,,,,,,,,,,,,,,,,,,,,,0,4,4,3,1,,,,,,,,,,,,,,,,,,,,,,,,,,,,,,,,,,,,,,,,,,,,,,
670798,001,2022-11-20_16h52.26.496,Info_measure_main_exp,2022.2.2,Win32,60.13590715,,,,,,,,,,,,,,,,,,masks/mask_003.jpg,,,,,,,,,,,,,,,,,,,,,,,,,,,,,,,,,,,,,,,,,,,,,,,,0,0,0,2,1,,,,,,,,,,,,,,,,,,,,,,,,,,,,,,,,,,,,,,,,,
670798,001,2022-11-20_16h52.26.496,Info_measure_main_exp,2022.2.2,Win32,60.13590715,,,,,,,,,,,,,,,,,,masks/mask_004.jpg,,,,,,,,,,,,,,,,,,,,,,,,,,,,,,,,,,,,,,,,,,,,,,,,0,1,1,3,1,,,,,,,,,,,,,,,,,,,,,,,,,,,,,,,,,,,,,,,,,
670798,001,2022-11-20_16h52.26.496,Info_measure_main_exp,2022.2.2,Win32,60.13590715,,,,,,,,,,,,,,,,,,masks/mask_002.jpg,,,,,,,,,,,,,,,,,,,,,,,,,,,,,,,,,,,,,,,,,,,,,,,,0,2,2,1,1,,,,,,,,,,,,,,,,,,,,,,,,,,,,,,,,,,,,,,,,,
670798,001,2022-11-20_16h52.26.496,Info_measure_main_exp,2022.2.2,Win32,60.13590715,,,,,,,,,,,,,,,,,,masks/mask_001.jpg,,,,,,,,,,,,,,,,,,,,,,,,,,,,,,,,,,,,,,,,,,,,,,,,0,3,3,0,1,,,,,,,,,,,,,,,,,,,,,,,,,,,,,,,,,,,,,,,,,
670798,001,2022-11-20_16h52.26.496,Info_measure_main_exp,2022.2.2,Win32,60.13590715,,,,,,,,,,,,,,,,,,masks/mask_005.jpg,,,,,,,,,,,,,,,,,,,,,,,,,,,,,,,,,,,,,,,,,,,,,,,,0,4,4,4,1,,,,,,,,,,,,,,,,,,,,,,,,,,,,,,,,,,,,,,,,,
670798,001,2022-11-20_16h52.26.496,Info_measure_main_exp,2022.2.2,Win32,60.13590715,,,,,,,,,,,,,,,,,,,,,,,,,,,,,,6,1.4996,1,,,,,,,,,,,,0,131,5,5,2190,2238,absent_patch/patch0002190.jpg,absent_patch/patch0002238.jpg,,,,,,,,,,,,,,,,,,,,0.126302083,0.033854167,1,0,0,response1disk,24,0.006510417,0.00390625,1,0,0,center_square,0,23,23,53,1,,,,,,,,,,,,,,,,,,,,,,,
670798,001,2022-11-20_16h52.26.496,Info_measure_main_exp,2022.2.2,Win32,60.13590715,,,,,,,,,,,,,,,,,,masks/mask_005.jpg,,,,,,,,,,,,,,,,,,,,,,,,,,,,,,,,,,,,,,,,,,,0,0,0,4,1,,,,,,,,,,,,,,,,,,,,,,,,,,,,,,,,,,,,,,,,,,,,,,
670798,001,2022-11-20_16h52.26.496,Info_measure_main_exp,2022.2.2,Win32,60.13590715,,,,,,,,,,,,,,,,,,masks/mask_001.jpg,,,,,,,,,,,,,,,,,,,,,,,,,,,,,,,,,,,,,,,,,,,0,1,1,0,1,,,,,,,,,,,,,,,,,,,,,,,,,,,,,,,,,,,,,,,,,,,,,,
670798,001,2022-11-20_16h52.26.496,Info_measure_main_exp,2022.2.2,Win32,60.13590715,,,,,,,,,,,,,,,,,,masks/mask_002.jpg,,,,,,,,,,,,,,,,,,,,,,,,,,,,,,,,,,,,,,,,,,,0,2,2,1,1,,,,,,,,,,,,,,,,,,,,,,,,,,,,,,,,,,,,,,,,,,,,,,
670798,001,2022-11-20_16h52.26.496,Info_measure_main_exp,2022.2.2,Win32,60.13590715,,,,,,,,,,,,,,,,,,masks/mask_004.jpg,,,,,,,,,,,,,,,,,,,,,,,,,,,,,,,,,,,,,,,,,,,0,3,3,3,1,,,,,,,,,,,,,,,,,,,,,,,,,,,,,,,,,,,,,,,,,,,,,,
670798,001,2022-11-20_16h52.26.496,Info_measure_main_exp,2022.2.2,Win32,60.13590715,,,,,,,,,,,,,,,,,,masks/mask_003.jpg,,,,,,,,,,,,,,,,,,,,,,,,,,,,,,,,,,,,,,,,,,,0,4,4,2,1,,,,,,,,,,,,,,,,,,,,,,,,,,,,,,,,,,,,,,,,,,,,,,
670798,001,2022-11-20_16h52.26.496,Info_measure_main_exp,2022.2.2,Win32,60.13590715,,,,,,,,,,,,,,,,,,masks/mask_001.jpg,,,,,,,,,,,,,,,,,,,,,,,,,,,,,,,,,,,,,,,,,,,,,,,,0,0,0,0,1,,,,,,,,,,,,,,,,,,,,,,,,,,,,,,,,,,,,,,,,,
670798,001,2022-11-20_16h52.26.496,Info_measure_main_exp,2022.2.2,Win32,60.13590715,,,,,,,,,,,,,,,,,,masks/mask_005.jpg,,,,,,,,,,,,,,,,,,,,,,,,,,,,,,,,,,,,,,,,,,,,,,,,0,1,1,4,1,,,,,,,,,,,,,,,,,,,,,,,,,,,,,,,,,,,,,,,,,
670798,001,2022-11-20_16h52.26.496,Info_measure_main_exp,2022.2.2,Win32,60.13590715,,,,,,,,,,,,,,,,,,masks/mask_002.jpg,,,,,,,,,,,,,,,,,,,,,,,,,,,,,,,,,,,,,,,,,,,,,,,,0,2,2,1,1,,,,,,,,,,,,,,,,,,,,,,,,,,,,,,,,,,,,,,,,,
670798,001,2022-11-20_16h52.26.496,Info_measure_main_exp,2022.2.2,Win32,60.13590715,,,,,,,,,,,,,,,,,,masks/mask_004.jpg,,,,,,,,,,,,,,,,,,,,,,,,,,,,,,,,,,,,,,,,,,,,,,,,0,3,3,3,1,,,,,,,,,,,,,,,,,,,,,,,,,,,,,,,,,,,,,,,,,
670798,001,2022-11-20_16h52.26.496,Info_measure_main_exp,2022.2.2,Win32,60.13590715,,,,,,,,,,,,,,,,,,masks/mask_003.jpg,,,,,,,,,,,,,,,,,,,,,,,,,,,,,,,,,,,,,,,,,,,,,,,,0,4,4,2,1,,,,,,,,,,,,,,,,,,,,,,,,,,,,,,,,,,,,,,,,,
670798,001,2022-11-20_16h52.26.496,Info_measure_main_exp,2022.2.2,Win32,60.13590715,,,,,,,,,,,,,,,,,,,,,,,,,,,,,,7,1.5163,1,,,,,,,,,,,,0,131,5,5,2274,2082,absent_patch/patch0002274.jpg,absent_patch/patch0002082.jpg,,,,,,,,,,,,,,,,,,,,0.05078125,0.091145833,1,0,0,response1disk,25,-0.001302083,-0.006510417,1,0,0,center_square,0,24,24,100,1,,,,,,,,,,,,,,,,,,,,,,,
670798,001,2022-11-20_16h52.26.496,Info_measure_main_exp,2022.2.2,Win32,60.13590715,,,,,,,,,,,,,,,,,,masks/mask_004.jpg,,,,,,,,,,,,,,,,,,,,,,,,,,,,,,,,,,,,,,,,,,,0,0,0,3,1,,,,,,,,,,,,,,,,,,,,,,,,,,,,,,,,,,,,,,,,,,,,,,
670798,001,2022-11-20_16h52.26.496,Info_measure_main_exp,2022.2.2,Win32,60.13590715,,,,,,,,,,,,,,,,,,masks/mask_001.jpg,,,,,,,,,,,,,,,,,,,,,,,,,,,,,,,,,,,,,,,,,,,0,1,1,0,1,,,,,,,,,,,,,,,,,,,,,,,,,,,,,,,,,,,,,,,,,,,,,,
670798,001,2022-11-20_16h52.26.496,Info_measure_main_exp,2022.2.2,Win32,60.13590715,,,,,,,,,,,,,,,,,,masks/mask_002.jpg,,,,,,,,,,,,,,,,,,,,,,,,,,,,,,,,,,,,,,,,,,,0,2,2,1,1,,,,,,,,,,,,,,,,,,,,,,,,,,,,,,,,,,,,,,,,,,,,,,
670798,001,2022-11-20_16h52.26.496,Info_measure_main_exp,2022.2.2,Win32,60.13590715,,,,,,,,,,,,,,,,,,masks/mask_005.jpg,,,,,,,,,,,,,,,,,,,,,,,,,,,,,,,,,,,,,,,,,,,0,3,3,4,1,,,,,,,,,,,,,,,,,,,,,,,,,,,,,,,,,,,,,,,,,,,,,,
670798,001,2022-11-20_16h52.26.496,Info_measure_main_exp,2022.2.2,Win32,60.13590715,,,,,,,,,,,,,,,,,,masks/mask_003.jpg,,,,,,,,,,,,,,,,,,,,,,,,,,,,,,,,,,,,,,,,,,,0,4,4,2,1,,,,,,,,,,,,,,,,,,,,,,,,,,,,,,,,,,,,,,,,,,,,,,
670798,001,2022-11-20_16h52.26.496,Info_measure_main_exp,2022.2.2,Win32,60.13590715,,,,,,,,,,,,,,,,,,masks/mask_004.jpg,,,,,,,,,,,,,,,,,,,,,,,,,,,,,,,,,,,,,,,,,,,,,,,,0,0,0,3,1,,,,,,,,,,,,,,,,,,,,,,,,,,,,,,,,,,,,,,,,,
670798,001,2022-11-20_16h52.26.496,Info_measure_main_exp,2022.2.2,Win32,60.13590715,,,,,,,,,,,,,,,,,,masks/mask_003.jpg,,,,,,,,,,,,,,,,,,,,,,,,,,,,,,,,,,,,,,,,,,,,,,,,0,1,1,2,1,,,,,,,,,,,,,,,,,,,,,,,,,,,,,,,,,,,,,,,,,
670798,001,2022-11-20_16h52.26.496,Info_measure_main_exp,2022.2.2,Win32,60.13590715,,,,,,,,,,,,,,,,,,masks/mask_005.jpg,,,,,,,,,,,,,,,,,,,,,,,,,,,,,,,,,,,,,,,,,,,,,,,,0,2,2,4,1,,,,,,,,,,,,,,,,,,,,,,,,,,,,,,,,,,,,,,,,,
670798,001,2022-11-20_16h52.26.496,Info_measure_main_exp,2022.2.2,Win32,60.13590715,,,,,,,,,,,,,,,,,,masks/mask_002.jpg,,,,,,,,,,,,,,,,,,,,,,,,,,,,,,,,,,,,,,,,,,,,,,,,0,3,3,1,1,,,,,,,,,,,,,,,,,,,,,,,,,,,,,,,,,,,,,,,,,
670798,001,2022-11-20_16h52.26.496,Info_measure_main_exp,2022.2.2,Win32,60.13590715,,,,,,,,,,,,,,,,,,masks/mask_001.jpg,,,,,,,,,,,,,,,,,,,,,,,,,,,,,,,,,,,,,,,,,,,,,,,,0,4,4,0,1,,,,,,,,,,,,,,,,,,,,,,,,,,,,,,,,,,,,,,,,,
670798,001,2022-11-20_16h52.26.496,Info_measure_main_exp,2022.2.2,Win32,60.13590715,,,,,,,,,,,,,,,,,,,,,,,,,,,,,,4,1.4497,1,,,,,,,,,,,,0,131,5,5,2082,2166,absent_patch/patch0002082.jpg,absent_patch/patch0002166.jpg,,,,,,,,,,,,,,,,,,,,0.04296875,-0.06640625,1,0,0,response3disk,26,-0.001302083,0.005208333,1,0,0,center_square,0,25,25,43,1,,,,,,,,,,,,,,,,,,,,,,,
670798,001,2022-11-20_16h52.26.496,Info_measure_main_exp,2022.2.2,Win32,60.13590715,,,,,,,,,,,,,,,,,,masks/mask_003.jpg,,,,,,,,,,,,,,,,,,,,,,,,,,,,,,,,,,,,,,,,,,,0,0,0,2,1,,,,,,,,,,,,,,,,,,,,,,,,,,,,,,,,,,,,,,,,,,,,,,
670798,001,2022-11-20_16h52.26.496,Info_measure_main_exp,2022.2.2,Win32,60.13590715,,,,,,,,,,,,,,,,,,masks/mask_005.jpg,,,,,,,,,,,,,,,,,,,,,,,,,,,,,,,,,,,,,,,,,,,0,1,1,4,1,,,,,,,,,,,,,,,,,,,,,,,,,,,,,,,,,,,,,,,,,,,,,,
670798,001,2022-11-20_16h52.26.496,Info_measure_main_exp,2022.2.2,Win32,60.13590715,,,,,,,,,,,,,,,,,,masks/mask_002.jpg,,,,,,,,,,,,,,,,,,,,,,,,,,,,,,,,,,,,,,,,,,,0,2,2,1,1,,,,,,,,,,,,,,,,,,,,,,,,,,,,,,,,,,,,,,,,,,,,,,
670798,001,2022-11-20_16h52.26.496,Info_measure_main_exp,2022.2.2,Win32,60.13590715,,,,,,,,,,,,,,,,,,masks/mask_004.jpg,,,,,,,,,,,,,,,,,,,,,,,,,,,,,,,,,,,,,,,,,,,0,3,3,3,1,,,,,,,,,,,,,,,,,,,,,,,,,,,,,,,,,,,,,,,,,,,,,,
670798,001,2022-11-20_16h52.26.496,Info_measure_main_exp,2022.2.2,Win32,60.13590715,,,,,,,,,,,,,,,,,,masks/mask_001.jpg,,,,,,,,,,,,,,,,,,,,,,,,,,,,,,,,,,,,,,,,,,,0,4,4,0,1,,,,,,,,,,,,,,,,,,,,,,,,,,,,,,,,,,,,,,,,,,,,,,
670798,001,2022-11-20_16h52.26.496,Info_measure_main_exp,2022.2.2,Win32,60.13590715,,,,,,,,,,,,,,,,,,masks/mask_004.jpg,,,,,,,,,,,,,,,,,,,,,,,,,,,,,,,,,,,,,,,,,,,,,,,,0,0,0,3,1,,,,,,,,,,,,,,,,,,,,,,,,,,,,,,,,,,,,,,,,,
670798,001,2022-11-20_16h52.26.496,Info_measure_main_exp,2022.2.2,Win32,60.13590715,,,,,,,,,,,,,,,,,,masks/mask_005.jpg,,,,,,,,,,,,,,,,,,,,,,,,,,,,,,,,,,,,,,,,,,,,,,,,0,1,1,4,1,,,,,,,,,,,,,,,,,,,,,,,,,,,,,,,,,,,,,,,,,
670798,001,2022-11-20_16h52.26.496,Info_measure_main_exp,2022.2.2,Win32,60.13590715,,,,,,,,,,,,,,,,,,masks/mask_001.jpg,,,,,,,,,,,,,,,,,,,,,,,,,,,,,,,,,,,,,,,,,,,,,,,,0,2,2,0,1,,,,,,,,,,,,,,,,,,,,,,,,,,,,,,,,,,,,,,,,,
670798,001,2022-11-20_16h52.26.496,Info_measure_main_exp,2022.2.2,Win32,60.13590715,,,,,,,,,,,,,,,,,,masks/mask_002.jpg,,,,,,,,,,,,,,,,,,,,,,,,,,,,,,,,,,,,,,,,,,,,,,,,0,3,3,1,1,,,,,,,,,,,,,,,,,,,,,,,,,,,,,,,,,,,,,,,,,
670798,001,2022-11-20_16h52.26.496,Info_measure_main_exp,2022.2.2,Win32,60.13590715,,,,,,,,,,,,,,,,,,masks/mask_003.jpg,,,,,,,,,,,,,,,,,,,,,,,,,,,,,,,,,,,,,,,,,,,,,,,,0,4,4,2,1,,,,,,,,,,,,,,,,,,,,,,,,,,,,,,,,,,,,,,,,,
670798,001,2022-11-20_16h52.26.496,Info_measure_main_exp,2022.2.2,Win32,60.13590715,,,,,,,,,,,,,,,,,,,,,,,,,,,,,,3,2.866,1,,,,,,,,,,,,0,131,5,5,2214,2166,absent_patch/patch0002214.jpg,absent_patch/patch0002166.jpg,,,,,,,,,,,,,,,,,,,,-0.04296875,-0.080729167,1,0,0,response5disk,27,0,-0.001302083,1,0,0,center_square,0,26,26,109,1,,,,,,,,,,,,,,,,,,,,,,,
670798,001,2022-11-20_16h52.26.496,Info_measure_main_exp,2022.2.2,Win32,60.13590715,,,,,,,,,,,,,,,,,,masks/mask_005.jpg,,,,,,,,,,,,,,,,,,,,,,,,,,,,,,,,,,,,,,,,,,,0,0,0,4,1,,,,,,,,,,,,,,,,,,,,,,,,,,,,,,,,,,,,,,,,,,,,,,
670798,001,2022-11-20_16h52.26.496,Info_measure_main_exp,2022.2.2,Win32,60.13590715,,,,,,,,,,,,,,,,,,masks/mask_002.jpg,,,,,,,,,,,,,,,,,,,,,,,,,,,,,,,,,,,,,,,,,,,0,1,1,1,1,,,,,,,,,,,,,,,,,,,,,,,,,,,,,,,,,,,,,,,,,,,,,,
670798,001,2022-11-20_16h52.26.496,Info_measure_main_exp,2022.2.2,Win32,60.13590715,,,,,,,,,,,,,,,,,,masks/mask_003.jpg,,,,,,,,,,,,,,,,,,,,,,,,,,,,,,,,,,,,,,,,,,,0,2,2,2,1,,,,,,,,,,,,,,,,,,,,,,,,,,,,,,,,,,,,,,,,,,,,,,
670798,001,2022-11-20_16h52.26.496,Info_measure_main_exp,2022.2.2,Win32,60.13590715,,,,,,,,,,,,,,,,,,masks/mask_001.jpg,,,,,,,,,,,,,,,,,,,,,,,,,,,,,,,,,,,,,,,,,,,0,3,3,0,1,,,,,,,,,,,,,,,,,,,,,,,,,,,,,,,,,,,,,,,,,,,,,,
670798,001,2022-11-20_16h52.26.496,Info_measure_main_exp,2022.2.2,Win32,60.13590715,,,,,,,,,,,,,,,,,,masks/mask_004.jpg,,,,,,,,,,,,,,,,,,,,,,,,,,,,,,,,,,,,,,,,,,,0,4,4,3,1,,,,,,,,,,,,,,,,,,,,,,,,,,,,,,,,,,,,,,,,,,,,,,
670798,001,2022-11-20_16h52.26.496,Info_measure_main_exp,2022.2.2,Win32,60.13590715,,,,,,,,,,,,,,,,,,masks/mask_004.jpg,,,,,,,,,,,,,,,,,,,,,,,,,,,,,,,,,,,,,,,,,,,,,,,,0,0,0,3,1,,,,,,,,,,,,,,,,,,,,,,,,,,,,,,,,,,,,,,,,,
670798,001,2022-11-20_16h52.26.496,Info_measure_main_exp,2022.2.2,Win32,60.13590715,,,,,,,,,,,,,,,,,,masks/mask_002.jpg,,,,,,,,,,,,,,,,,,,,,,,,,,,,,,,,,,,,,,,,,,,,,,,,0,1,1,1,1,,,,,,,,,,,,,,,,,,,,,,,,,,,,,,,,,,,,,,,,,
670798,001,2022-11-20_16h52.26.496,Info_measure_main_exp,2022.2.2,Win32,60.13590715,,,,,,,,,,,,,,,,,,masks/mask_001.jpg,,,,,,,,,,,,,,,,,,,,,,,,,,,,,,,,,,,,,,,,,,,,,,,,0,2,2,0,1,,,,,,,,,,,,,,,,,,,,,,,,,,,,,,,,,,,,,,,,,
670798,001,2022-11-20_16h52.26.496,Info_measure_main_exp,2022.2.2,Win32,60.13590715,,,,,,,,,,,,,,,,,,masks/mask_005.jpg,,,,,,,,,,,,,,,,,,,,,,,,,,,,,,,,,,,,,,,,,,,,,,,,0,3,3,4,1,,,,,,,,,,,,,,,,,,,,,,,,,,,,,,,,,,,,,,,,,
670798,001,2022-11-20_16h52.26.496,Info_measure_main_exp,2022.2.2,Win32,60.13590715,,,,,,,,,,,,,,,,,,masks/mask_003.jpg,,,,,,,,,,,,,,,,,,,,,,,,,,,,,,,,,,,,,,,,,,,,,,,,0,4,4,2,1,,,,,,,,,,,,,,,,,,,,,,,,,,,,,,,,,,,,,,,,,
670798,001,2022-11-20_16h52.26.496,Info_measure_main_exp,2022.2.2,Win32,60.13590715,,,,,,,,,,,,,,,,,,,,,,,,,,,,,,5,1.233,1,,,,,,,,,,,,0,131,5,5,1974,2166,absent_patch/patch0001974.jpg,absent_patch/patch0002166.jpg,,,,,,,,,,,,,,,,,,,,0.06640625,-0.036458333,1,0,0,response3disk,28,-0.0078125,0,1,0,0,center_square,0,27,27,77,1,,,,,,,,,,,,,,,,,,,,,,,
670798,001,2022-11-20_16h52.26.496,Info_measure_main_exp,2022.2.2,Win32,60.13590715,,,,,,,,,,,,,,,,,,masks/mask_002.jpg,,,,,,,,,,,,,,,,,,,,,,,,,,,,,,,,,,,,,,,,,,,0,0,0,1,1,,,,,,,,,,,,,,,,,,,,,,,,,,,,,,,,,,,,,,,,,,,,,,
670798,001,2022-11-20_16h52.26.496,Info_measure_main_exp,2022.2.2,Win32,60.13590715,,,,,,,,,,,,,,,,,,masks/mask_003.jpg,,,,,,,,,,,,,,,,,,,,,,,,,,,,,,,,,,,,,,,,,,,0,1,1,2,1,,,,,,,,,,,,,,,,,,,,,,,,,,,,,,,,,,,,,,,,,,,,,,
670798,001,2022-11-20_16h52.26.496,Info_measure_main_exp,2022.2.2,Win32,60.13590715,,,,,,,,,,,,,,,,,,masks/mask_001.jpg,,,,,,,,,,,,,,,,,,,,,,,,,,,,,,,,,,,,,,,,,,,0,2,2,0,1,,,,,,,,,,,,,,,,,,,,,,,,,,,,,,,,,,,,,,,,,,,,,,
670798,001,2022-11-20_16h52.26.496,Info_measure_main_exp,2022.2.2,Win32,60.13590715,,,,,,,,,,,,,,,,,,masks/mask_005.jpg,,,,,,,,,,,,,,,,,,,,,,,,,,,,,,,,,,,,,,,,,,,0,3,3,4,1,,,,,,,,,,,,,,,,,,,,,,,,,,,,,,,,,,,,,,,,,,,,,,
670798,001,2022-11-20_16h52.26.496,Info_measure_main_exp,2022.2.2,Win32,60.13590715,,,,,,,,,,,,,,,,,,masks/mask_004.jpg,,,,,,,,,,,,,,,,,,,,,,,,,,,,,,,,,,,,,,,,,,,0,4,4,3,1,,,,,,,,,,,,,,,,,,,,,,,,,,,,,,,,,,,,,,,,,,,,,,
670798,001,2022-11-20_16h52.26.496,Info_measure_main_exp,2022.2.2,Win32,60.13590715,,,,,,,,,,,,,,,,,,masks/mask_003.jpg,,,,,,,,,,,,,,,,,,,,,,,,,,,,,,,,,,,,,,,,,,,,,,,,0,0,0,2,1,,,,,,,,,,,,,,,,,,,,,,,,,,,,,,,,,,,,,,,,,
670798,001,2022-11-20_16h52.26.496,Info_measure_main_exp,2022.2.2,Win32,60.13590715,,,,,,,,,,,,,,,,,,masks/mask_002.jpg,,,,,,,,,,,,,,,,,,,,,,,,,,,,,,,,,,,,,,,,,,,,,,,,0,1,1,1,1,,,,,,,,,,,,,,,,,,,,,,,,,,,,,,,,,,,,,,,,,
670798,001,2022-11-20_16h52.26.496,Info_measure_main_exp,2022.2.2,Win32,60.13590715,,,,,,,,,,,,,,,,,,masks/mask_001.jpg,,,,,,,,,,,,,,,,,,,,,,,,,,,,,,,,,,,,,,,,,,,,,,,,0,2,2,0,1,,,,,,,,,,,,,,,,,,,,,,,,,,,,,,,,,,,,,,,,,
670798,001,2022-11-20_16h52.26.496,Info_measure_main_exp,2022.2.2,Win32,60.13590715,,,,,,,,,,,,,,,,,,masks/mask_004.jpg,,,,,,,,,,,,,,,,,,,,,,,,,,,,,,,,,,,,,,,,,,,,,,,,0,3,3,3,1,,,,,,,,,,,,,,,,,,,,,,,,,,,,,,,,,,,,,,,,,
670798,001,2022-11-20_16h52.26.496,Info_measure_main_exp,2022.2.2,Win32,60.13590715,,,,,,,,,,,,,,,,,,masks/mask_005.jpg,,,,,,,,,,,,,,,,,,,,,,,,,,,,,,,,,,,,,,,,,,,,,,,,0,4,4,4,1,,,,,,,,,,,,,,,,,,,,,,,,,,,,,,,,,,,,,,,,,
670798,001,2022-11-20_16h52.26.496,Info_measure_main_exp,2022.2.2,Win32,60.13590715,,,,,,,,,,,,,,,,,,,,,,,,,,,,,,4,1.5997,1,,,,,,,,,,,,0,131,5,5,2082,2178,absent_patch/patch0002082.jpg,absent_patch/patch0002178.jpg,,,,,,,,,,,,,,,,,,,,0.037760417,-0.088541667,1,0,0,response3disk,29,-0.00390625,0.0078125,1,0,0,center_square,0,28,28,2,1,,,,,,,,,,,,,,,,,,,,,,,
670798,001,2022-11-20_16h52.26.496,Info_measure_main_exp,2022.2.2,Win32,60.13590715,,,,,,,,,,,,,,,,,,masks/mask_003.jpg,,,,,,,,,,,,,,,,,,,,,,,,,,,,,,,,,,,,,,,,,,,0,0,0,2,1,,,,,,,,,,,,,,,,,,,,,,,,,,,,,,,,,,,,,,,,,,,,,,
670798,001,2022-11-20_16h52.26.496,Info_measure_main_exp,2022.2.2,Win32,60.13590715,,,,,,,,,,,,,,,,,,masks/mask_002.jpg,,,,,,,,,,,,,,,,,,,,,,,,,,,,,,,,,,,,,,,,,,,0,1,1,1,1,,,,,,,,,,,,,,,,,,,,,,,,,,,,,,,,,,,,,,,,,,,,,,
670798,001,2022-11-20_16h52.26.496,Info_measure_main_exp,2022.2.2,Win32,60.13590715,,,,,,,,,,,,,,,,,,masks/mask_005.jpg,,,,,,,,,,,,,,,,,,,,,,,,,,,,,,,,,,,,,,,,,,,0,2,2,4,1,,,,,,,,,,,,,,,,,,,,,,,,,,,,,,,,,,,,,,,,,,,,,,
670798,001,2022-11-20_16h52.26.496,Info_measure_main_exp,2022.2.2,Win32,60.13590715,,,,,,,,,,,,,,,,,,masks/mask_001.jpg,,,,,,,,,,,,,,,,,,,,,,,,,,,,,,,,,,,,,,,,,,,0,3,3,0,1,,,,,,,,,,,,,,,,,,,,,,,,,,,,,,,,,,,,,,,,,,,,,,
670798,001,2022-11-20_16h52.26.496,Info_measure_main_exp,2022.2.2,Win32,60.13590715,,,,,,,,,,,,,,,,,,masks/mask_004.jpg,,,,,,,,,,,,,,,,,,,,,,,,,,,,,,,,,,,,,,,,,,,0,4,4,3,1,,,,,,,,,,,,,,,,,,,,,,,,,,,,,,,,,,,,,,,,,,,,,,
670798,001,2022-11-20_16h52.26.496,Info_measure_main_exp,2022.2.2,Win32,60.13590715,,,,,,,,,,,,,,,,,,masks/mask_004.jpg,,,,,,,,,,,,,,,,,,,,,,,,,,,,,,,,,,,,,,,,,,,,,,,,0,0,0,3,1,,,,,,,,,,,,,,,,,,,,,,,,,,,,,,,,,,,,,,,,,
670798,001,2022-11-20_16h52.26.496,Info_measure_main_exp,2022.2.2,Win32,60.13590715,,,,,,,,,,,,,,,,,,masks/mask_001.jpg,,,,,,,,,,,,,,,,,,,,,,,,,,,,,,,,,,,,,,,,,,,,,,,,0,1,1,0,1,,,,,,,,,,,,,,,,,,,,,,,,,,,,,,,,,,,,,,,,,
670798,001,2022-11-20_16h52.26.496,Info_measure_main_exp,2022.2.2,Win32,60.13590715,,,,,,,,,,,,,,,,,,masks/mask_002.jpg,,,,,,,,,,,,,,,,,,,,,,,,,,,,,,,,,,,,,,,,,,,,,,,,0,2,2,1,1,,,,,,,,,,,,,,,,,,,,,,,,,,,,,,,,,,,,,,,,,
670798,001,2022-11-20_16h52.26.496,Info_measure_main_exp,2022.2.2,Win32,60.13590715,,,,,,,,,,,,,,,,,,masks/mask_005.jpg,,,,,,,,,,,,,,,,,,,,,,,,,,,,,,,,,,,,,,,,,,,,,,,,0,3,3,4,1,,,,,,,,,,,,,,,,,,,,,,,,,,,,,,,,,,,,,,,,,
670798,001,2022-11-20_16h52.26.496,Info_measure_main_exp,2022.2.2,Win32,60.13590715,,,,,,,,,,,,,,,,,,masks/mask_003.jpg,,,,,,,,,,,,,,,,,,,,,,,,,,,,,,,,,,,,,,,,,,,,,,,,0,4,4,2,1,,,,,,,,,,,,,,,,,,,,,,,,,,,,,,,,,,,,,,,,,
670798,001,2022-11-20_16h52.26.496,Info_measure_main_exp,2022.2.2,Win32,60.13590715,,,,,,,,,,,,,,,,,,,,,,,,,,,,,,6,0.9165,1,,,,,,,,,,,,0,131,5,5,2154,2250,absent_patch/patch0002154.jpg,absent_patch/patch0002250.jpg,,,,,,,,,,,,,,,,,,,,0.109375,0.037760417,1,0,0,response1disk,30,-0.001302083,-0.001302083,1,0,0,center_square,0,29,29,108,1,,,,,,,,,,,,,,,,,,,,,,,
670798,001,2022-11-20_16h52.26.496,Info_measure_main_exp,2022.2.2,Win32,60.13590715,,,,,,,,,,,,,,,,,,masks/mask_005.jpg,,,,,,,,,,,,,,,,,,,,,,,,,,,,,,,,,,,,,,,,,,,0,0,0,4,1,,,,,,,,,,,,,,,,,,,,,,,,,,,,,,,,,,,,,,,,,,,,,,
670798,001,2022-11-20_16h52.26.496,Info_measure_main_exp,2022.2.2,Win32,60.13590715,,,,,,,,,,,,,,,,,,masks/mask_004.jpg,,,,,,,,,,,,,,,,,,,,,,,,,,,,,,,,,,,,,,,,,,,0,1,1,3,1,,,,,,,,,,,,,,,,,,,,,,,,,,,,,,,,,,,,,,,,,,,,,,
670798,001,2022-11-20_16h52.26.496,Info_measure_main_exp,2022.2.2,Win32,60.13590715,,,,,,,,,,,,,,,,,,masks/mask_003.jpg,,,,,,,,,,,,,,,,,,,,,,,,,,,,,,,,,,,,,,,,,,,0,2,2,2,1,,,,,,,,,,,,,,,,,,,,,,,,,,,,,,,,,,,,,,,,,,,,,,
670798,001,2022-11-20_16h52.26.496,Info_measure_main_exp,2022.2.2,Win32,60.13590715,,,,,,,,,,,,,,,,,,masks/mask_002.jpg,,,,,,,,,,,,,,,,,,,,,,,,,,,,,,,,,,,,,,,,,,,0,3,3,1,1,,,,,,,,,,,,,,,,,,,,,,,,,,,,,,,,,,,,,,,,,,,,,,
670798,001,2022-11-20_16h52.26.496,Info_measure_main_exp,2022.2.2,Win32,60.13590715,,,,,,,,,,,,,,,,,,masks/mask_001.jpg,,,,,,,,,,,,,,,,,,,,,,,,,,,,,,,,,,,,,,,,,,,0,4,4,0,1,,,,,,,,,,,,,,,,,,,,,,,,,,,,,,,,,,,,,,,,,,,,,,
670798,001,2022-11-20_16h52.26.496,Info_measure_main_exp,2022.2.2,Win32,60.13590715,,,,,,,,,,,,,,,,,,masks/mask_005.jpg,,,,,,,,,,,,,,,,,,,,,,,,,,,,,,,,,,,,,,,,,,,,,,,,0,0,0,4,1,,,,,,,,,,,,,,,,,,,,,,,,,,,,,,,,,,,,,,,,,
670798,001,2022-11-20_16h52.26.496,Info_measure_main_exp,2022.2.2,Win32,60.13590715,,,,,,,,,,,,,,,,,,masks/mask_001.jpg,,,,,,,,,,,,,,,,,,,,,,,,,,,,,,,,,,,,,,,,,,,,,,,,0,1,1,0,1,,,,,,,,,,,,,,,,,,,,,,,,,,,,,,,,,,,,,,,,,
670798,001,2022-11-20_16h52.26.496,Info_measure_main_exp,2022.2.2,Win32,60.13590715,,,,,,,,,,,,,,,,,,masks/mask_002.jpg,,,,,,,,,,,,,,,,,,,,,,,,,,,,,,,,,,,,,,,,,,,,,,,,0,2,2,1,1,,,,,,,,,,,,,,,,,,,,,,,,,,,,,,,,,,,,,,,,,
670798,001,2022-11-20_16h52.26.496,Info_measure_main_exp,2022.2.2,Win32,60.13590715,,,,,,,,,,,,,,,,,,masks/mask_004.jpg,,,,,,,,,,,,,,,,,,,,,,,,,,,,,,,,,,,,,,,,,,,,,,,,0,3,3,3,1,,,,,,,,,,,,,,,,,,,,,,,,,,,,,,,,,,,,,,,,,
670798,001,2022-11-20_16h52.26.496,Info_measure_main_exp,2022.2.2,Win32,60.13590715,,,,,,,,,,,,,,,,,,masks/mask_003.jpg,,,,,,,,,,,,,,,,,,,,,,,,,,,,,,,,,,,,,,,,,,,,,,,,0,4,4,2,1,,,,,,,,,,,,,,,,,,,,,,,,,,,,,,,,,,,,,,,,,
670798,001,2022-11-20_16h52.26.496,Info_measure_main_exp,2022.2.2,Win32,60.13590715,,,,,,,,,,,,,,,,,,,,,,,,,,,,,,6,0.9663,1,,,,,,,,,,,,0,131,5,5,2082,2238,absent_patch/patch0002082.jpg,absent_patch/patch0002238.jpg,,,,,,,,,,,,,,,,,,,,0.139322917,0.03515625,1,0,0,response1disk,31,0.00390625,-0.00390625,1,0,0,center_square,0,30,30,22,1,,,,,,,,,,,,,,,,,,,,,,,
670798,001,2022-11-20_16h52.26.496,Info_measure_main_exp,2022.2.2,Win32,60.13590715,,,,,,,,,,,,,,,,,,masks/mask_002.jpg,,,,,,,,,,,,,,,,,,,,,,,,,,,,,,,,,,,,,,,,,,,0,0,0,1,1,,,,,,,,,,,,,,,,,,,,,,,,,,,,,,,,,,,,,,,,,,,,,,
670798,001,2022-11-20_16h52.26.496,Info_measure_main_exp,2022.2.2,Win32,60.13590715,,,,,,,,,,,,,,,,,,masks/mask_001.jpg,,,,,,,,,,,,,,,,,,,,,,,,,,,,,,,,,,,,,,,,,,,0,1,1,0,1,,,,,,,,,,,,,,,,,,,,,,,,,,,,,,,,,,,,,,,,,,,,,,
670798,001,2022-11-20_16h52.26.496,Info_measure_main_exp,2022.2.2,Win32,60.13590715,,,,,,,,,,,,,,,,,,masks/mask_004.jpg,,,,,,,,,,,,,,,,,,,,,,,,,,,,,,,,,,,,,,,,,,,0,2,2,3,1,,,,,,,,,,,,,,,,,,,,,,,,,,,,,,,,,,,,,,,,,,,,,,
670798,001,2022-11-20_16h52.26.496,Info_measure_main_exp,2022.2.2,Win32,60.13590715,,,,,,,,,,,,,,,,,,masks/mask_005.jpg,,,,,,,,,,,,,,,,,,,,,,,,,,,,,,,,,,,,,,,,,,,0,3,3,4,1,,,,,,,,,,,,,,,,,,,,,,,,,,,,,,,,,,,,,,,,,,,,,,
670798,001,2022-11-20_16h52.26.496,Info_measure_main_exp,2022.2.2,Win32,60.13590715,,,,,,,,,,,,,,,,,,masks/mask_003.jpg,,,,,,,,,,,,,,,,,,,,,,,,,,,,,,,,,,,,,,,,,,,0,4,4,2,1,,,,,,,,,,,,,,,,,,,,,,,,,,,,,,,,,,,,,,,,,,,,,,
670798,001,2022-11-20_16h52.26.496,Info_measure_main_exp,2022.2.2,Win32,60.13590715,,,,,,,,,,,,,,,,,,masks/mask_002.jpg,,,,,,,,,,,,,,,,,,,,,,,,,,,,,,,,,,,,,,,,,,,,,,,,0,0,0,1,1,,,,,,,,,,,,,,,,,,,,,,,,,,,,,,,,,,,,,,,,,
670798,001,2022-11-20_16h52.26.496,Info_measure_main_exp,2022.2.2,Win32,60.13590715,,,,,,,,,,,,,,,,,,masks/mask_003.jpg,,,,,,,,,,,,,,,,,,,,,,,,,,,,,,,,,,,,,,,,,,,,,,,,0,1,1,2,1,,,,,,,,,,,,,,,,,,,,,,,,,,,,,,,,,,,,,,,,,
670798,001,2022-11-20_16h52.26.496,Info_measure_main_exp,2022.2.2,Win32,60.13590715,,,,,,,,,,,,,,,,,,masks/mask_004.jpg,,,,,,,,,,,,,,,,,,,,,,,,,,,,,,,,,,,,,,,,,,,,,,,,0,2,2,3,1,,,,,,,,,,,,,,,,,,,,,,,,,,,,,,,,,,,,,,,,,
670798,001,2022-11-20_16h52.26.496,Info_measure_main_exp,2022.2.2,Win32,60.13590715,,,,,,,,,,,,,,,,,,masks/mask_005.jpg,,,,,,,,,,,,,,,,,,,,,,,,,,,,,,,,,,,,,,,,,,,,,,,,0,3,3,4,1,,,,,,,,,,,,,,,,,,,,,,,,,,,,,,,,,,,,,,,,,
670798,001,2022-11-20_16h52.26.496,Info_measure_main_exp,2022.2.2,Win32,60.13590715,,,,,,,,,,,,,,,,,,masks/mask_001.jpg,,,,,,,,,,,,,,,,,,,,,,,,,,,,,,,,,,,,,,,,,,,,,,,,0,4,4,0,1,,,,,,,,,,,,,,,,,,,,,,,,,,,,,,,,,,,,,,,,,
670798,001,2022-11-20_16h52.26.496,Info_measure_main_exp,2022.2.2,Win32,60.13590715,,,,,,,,,,,,,,,,,,,,,,,,,,,,,,5,1.383,1,,,,,,,,,,,,0,131,5,5,2274,2214,absent_patch/patch0002274.jpg,absent_patch/patch0002214.jpg,,,,,,,,,,,,,,,,,,,,0.10546875,-0.0625,1,0,0,response3disk,32,0,-0.006510417,1,0,0,center_square,0,31,31,11,1,,,,,,,,,,,,,,,,,,,,,,,
670798,001,2022-11-20_16h52.26.496,Info_measure_main_exp,2022.2.2,Win32,60.13590715,,,,,,,,,,,,,,,,,,masks/mask_003.jpg,,,,,,,,,,,,,,,,,,,,,,,,,,,,,,,,,,,,,,,,,,,0,0,0,2,1,,,,,,,,,,,,,,,,,,,,,,,,,,,,,,,,,,,,,,,,,,,,,,
670798,001,2022-11-20_16h52.26.496,Info_measure_main_exp,2022.2.2,Win32,60.13590715,,,,,,,,,,,,,,,,,,masks/mask_002.jpg,,,,,,,,,,,,,,,,,,,,,,,,,,,,,,,,,,,,,,,,,,,0,1,1,1,1,,,,,,,,,,,,,,,,,,,,,,,,,,,,,,,,,,,,,,,,,,,,,,
670798,001,2022-11-20_16h52.26.496,Info_measure_main_exp,2022.2.2,Win32,60.13590715,,,,,,,,,,,,,,,,,,masks/mask_004.jpg,,,,,,,,,,,,,,,,,,,,,,,,,,,,,,,,,,,,,,,,,,,0,2,2,3,1,,,,,,,,,,,,,,,,,,,,,,,,,,,,,,,,,,,,,,,,,,,,,,
670798,001,2022-11-20_16h52.26.496,Info_measure_main_exp,2022.2.2,Win32,60.13590715,,,,,,,,,,,,,,,,,,masks/mask_005.jpg,,,,,,,,,,,,,,,,,,,,,,,,,,,,,,,,,,,,,,,,,,,0,3,3,4,1,,,,,,,,,,,,,,,,,,,,,,,,,,,,,,,,,,,,,,,,,,,,,,
670798,001,2022-11-20_16h52.26.496,Info_measure_main_exp,2022.2.2,Win32,60.13590715,,,,,,,,,,,,,,,,,,masks/mask_001.jpg,,,,,,,,,,,,,,,,,,,,,,,,,,,,,,,,,,,,,,,,,,,0,4,4,0,1,,,,,,,,,,,,,,,,,,,,,,,,,,,,,,,,,,,,,,,,,,,,,,
670798,001,2022-11-20_16h52.26.496,Info_measure_main_exp,2022.2.2,Win32,60.13590715,,,,,,,,,,,,,,,,,,masks/mask_003.jpg,,,,,,,,,,,,,,,,,,,,,,,,,,,,,,,,,,,,,,,,,,,,,,,,0,0,0,2,1,,,,,,,,,,,,,,,,,,,,,,,,,,,,,,,,,,,,,,,,,
670798,001,2022-11-20_16h52.26.496,Info_measure_main_exp,2022.2.2,Win32,60.13590715,,,,,,,,,,,,,,,,,,masks/mask_005.jpg,,,,,,,,,,,,,,,,,,,,,,,,,,,,,,,,,,,,,,,,,,,,,,,,0,1,1,4,1,,,,,,,,,,,,,,,,,,,,,,,,,,,,,,,,,,,,,,,,,
670798,001,2022-11-20_16h52.26.496,Info_measure_main_exp,2022.2.2,Win32,60.13590715,,,,,,,,,,,,,,,,,,masks/mask_002.jpg,,,,,,,,,,,,,,,,,,,,,,,,,,,,,,,,,,,,,,,,,,,,,,,,0,2,2,1,1,,,,,,,,,,,,,,,,,,,,,,,,,,,,,,,,,,,,,,,,,
670798,001,2022-11-20_16h52.26.496,Info_measure_main_exp,2022.2.2,Win32,60.13590715,,,,,,,,,,,,,,,,,,masks/mask_001.jpg,,,,,,,,,,,,,,,,,,,,,,,,,,,,,,,,,,,,,,,,,,,,,,,,0,3,3,0,1,,,,,,,,,,,,,,,,,,,,,,,,,,,,,,,,,,,,,,,,,
670798,001,2022-11-20_16h52.26.496,Info_measure_main_exp,2022.2.2,Win32,60.13590715,,,,,,,,,,,,,,,,,,masks/mask_004.jpg,,,,,,,,,,,,,,,,,,,,,,,,,,,,,,,,,,,,,,,,,,,,,,,,0,4,4,3,1,,,,,,,,,,,,,,,,,,,,,,,,,,,,,,,,,,,,,,,,,
670798,001,2022-11-20_16h52.26.496,Info_measure_main_exp,2022.2.2,Win32,60.13590715,,,,,,,,,,,,,,,,,,,,,,,,,,,,,,5,1.0998,1,,,,,,,,,,,,0,131,5,5,2214,1986,absent_patch/patch0002214.jpg,absent_patch/patch0001986.jpg,,,,,,,,,,,,,,,,,,,,0.125,-0.01953125,1,0,0,response3disk,33,0,-0.001302083,1,0,0,center_square,0,32,32,34,1,,,,,,,,,,,,,,,,,,,,,,,
670798,001,2022-11-20_16h52.26.496,Info_measure_main_exp,2022.2.2,Win32,60.13590715,,,,,,,,,,,,,,,,,,masks/mask_002.jpg,,,,,,,,,,,,,,,,,,,,,,,,,,,,,,,,,,,,,,,,,,,0,0,0,1,1,,,,,,,,,,,,,,,,,,,,,,,,,,,,,,,,,,,,,,,,,,,,,,
670798,001,2022-11-20_16h52.26.496,Info_measure_main_exp,2022.2.2,Win32,60.13590715,,,,,,,,,,,,,,,,,,masks/mask_001.jpg,,,,,,,,,,,,,,,,,,,,,,,,,,,,,,,,,,,,,,,,,,,0,1,1,0,1,,,,,,,,,,,,,,,,,,,,,,,,,,,,,,,,,,,,,,,,,,,,,,
670798,001,2022-11-20_16h52.26.496,Info_measure_main_exp,2022.2.2,Win32,60.13590715,,,,,,,,,,,,,,,,,,masks/mask_004.jpg,,,,,,,,,,,,,,,,,,,,,,,,,,,,,,,,,,,,,,,,,,,0,2,2,3,1,,,,,,,,,,,,,,,,,,,,,,,,,,,,,,,,,,,,,,,,,,,,,,
670798,001,2022-11-20_16h52.26.496,Info_measure_main_exp,2022.2.2,Win32,60.13590715,,,,,,,,,,,,,,,,,,masks/mask_005.jpg,,,,,,,,,,,,,,,,,,,,,,,,,,,,,,,,,,,,,,,,,,,0,3,3,4,1,,,,,,,,,,,,,,,,,,,,,,,,,,,,,,,,,,,,,,,,,,,,,,
670798,001,2022-11-20_16h52.26.496,Info_measure_main_exp,2022.2.2,Win32,60.13590715,,,,,,,,,,,,,,,,,,masks/mask_003.jpg,,,,,,,,,,,,,,,,,,,,,,,,,,,,,,,,,,,,,,,,,,,0,4,4,2,1,,,,,,,,,,,,,,,,,,,,,,,,,,,,,,,,,,,,,,,,,,,,,,
670798,001,2022-11-20_16h52.26.496,Info_measure_main_exp,2022.2.2,Win32,60.13590715,,,,,,,,,,,,,,,,,,masks/mask_002.jpg,,,,,,,,,,,,,,,,,,,,,,,,,,,,,,,,,,,,,,,,,,,,,,,,0,0,0,1,1,,,,,,,,,,,,,,,,,,,,,,,,,,,,,,,,,,,,,,,,,
670798,001,2022-11-20_16h52.26.496,Info_measure_main_exp,2022.2.2,Win32,60.13590715,,,,,,,,,,,,,,,,,,masks/mask_004.jpg,,,,,,,,,,,,,,,,,,,,,,,,,,,,,,,,,,,,,,,,,,,,,,,,0,1,1,3,1,,,,,,,,,,,,,,,,,,,,,,,,,,,,,,,,,,,,,,,,,
670798,001,2022-11-20_16h52.26.496,Info_measure_main_exp,2022.2.2,Win32,60.13590715,,,,,,,,,,,,,,,,,,masks/mask_003.jpg,,,,,,,,,,,,,,,,,,,,,,,,,,,,,,,,,,,,,,,,,,,,,,,,0,2,2,2,1,,,,,,,,,,,,,,,,,,,,,,,,,,,,,,,,,,,,,,,,,
670798,001,2022-11-20_16h52.26.496,Info_measure_main_exp,2022.2.2,Win32,60.13590715,,,,,,,,,,,,,,,,,,masks/mask_001.jpg,,,,,,,,,,,,,,,,,,,,,,,,,,,,,,,,,,,,,,,,,,,,,,,,0,3,3,0,1,,,,,,,,,,,,,,,,,,,,,,,,,,,,,,,,,,,,,,,,,
670798,001,2022-11-20_16h52.26.496,Info_measure_main_exp,2022.2.2,Win32,60.13590715,,,,,,,,,,,,,,,,,,masks/mask_005.jpg,,,,,,,,,,,,,,,,,,,,,,,,,,,,,,,,,,,,,,,,,,,,,,,,0,4,4,4,1,,,,,,,,,,,,,,,,,,,,,,,,,,,,,,,,,,,,,,,,,
670798,001,2022-11-20_16h52.26.496,Info_measure_main_exp,2022.2.2,Win32,60.13590715,,,,,,,,,,,,,,,,,,,,,,,,,,,,,,6,1.0331,1,,,,,,,,,,,,0,131,5,5,2274,1974,absent_patch/patch0002274.jpg,absent_patch/patch0001974.jpg,,,,,,,,,,,,,,,,,,,,0.109375,0.09765625,1,0,0,response1disk,34,-0.001302083,0.005208333,1,0,0,center_square,0,33,33,90,1,,,,,,,,,,,,,,,,,,,,,,,
670798,001,2022-11-20_16h52.26.496,Info_measure_main_exp,2022.2.2,Win32,60.13590715,,,,,,,,,,,,,,,,,,masks/mask_003.jpg,,,,,,,,,,,,,,,,,,,,,,,,,,,,,,,,,,,,,,,,,,,0,0,0,2,1,,,,,,,,,,,,,,,,,,,,,,,,,,,,,,,,,,,,,,,,,,,,,,
670798,001,2022-11-20_16h52.26.496,Info_measure_main_exp,2022.2.2,Win32,60.13590715,,,,,,,,,,,,,,,,,,masks/mask_001.jpg,,,,,,,,,,,,,,,,,,,,,,,,,,,,,,,,,,,,,,,,,,,0,1,1,0,1,,,,,,,,,,,,,,,,,,,,,,,,,,,,,,,,,,,,,,,,,,,,,,
670798,001,2022-11-20_16h52.26.496,Info_measure_main_exp,2022.2.2,Win32,60.13590715,,,,,,,,,,,,,,,,,,masks/mask_002.jpg,,,,,,,,,,,,,,,,,,,,,,,,,,,,,,,,,,,,,,,,,,,0,2,2,1,1,,,,,,,,,,,,,,,,,,,,,,,,,,,,,,,,,,,,,,,,,,,,,,
670798,001,2022-11-20_16h52.26.496,Info_measure_main_exp,2022.2.2,Win32,60.13590715,,,,,,,,,,,,,,,,,,masks/mask_005.jpg,,,,,,,,,,,,,,,,,,,,,,,,,,,,,,,,,,,,,,,,,,,0,3,3,4,1,,,,,,,,,,,,,,,,,,,,,,,,,,,,,,,,,,,,,,,,,,,,,,
670798,001,2022-11-20_16h52.26.496,Info_measure_main_exp,2022.2.2,Win32,60.13590715,,,,,,,,,,,,,,,,,,masks/mask_004.jpg,,,,,,,,,,,,,,,,,,,,,,,,,,,,,,,,,,,,,,,,,,,0,4,4,3,1,,,,,,,,,,,,,,,,,,,,,,,,,,,,,,,,,,,,,,,,,,,,,,
670798,001,2022-11-20_16h52.26.496,Info_measure_main_exp,2022.2.2,Win32,60.13590715,,,,,,,,,,,,,,,,,,masks/mask_005.jpg,,,,,,,,,,,,,,,,,,,,,,,,,,,,,,,,,,,,,,,,,,,,,,,,0,0,0,4,1,,,,,,,,,,,,,,,,,,,,,,,,,,,,,,,,,,,,,,,,,
670798,001,2022-11-20_16h52.26.496,Info_measure_main_exp,2022.2.2,Win32,60.13590715,,,,,,,,,,,,,,,,,,masks/mask_004.jpg,,,,,,,,,,,,,,,,,,,,,,,,,,,,,,,,,,,,,,,,,,,,,,,,0,1,1,3,1,,,,,,,,,,,,,,,,,,,,,,,,,,,,,,,,,,,,,,,,,
670798,001,2022-11-20_16h52.26.496,Info_measure_main_exp,2022.2.2,Win32,60.13590715,,,,,,,,,,,,,,,,,,masks/mask_002.jpg,,,,,,,,,,,,,,,,,,,,,,,,,,,,,,,,,,,,,,,,,,,,,,,,0,2,2,1,1,,,,,,,,,,,,,,,,,,,,,,,,,,,,,,,,,,,,,,,,,
670798,001,2022-11-20_16h52.26.496,Info_measure_main_exp,2022.2.2,Win32,60.13590715,,,,,,,,,,,,,,,,,,masks/mask_001.jpg,,,,,,,,,,,,,,,,,,,,,,,,,,,,,,,,,,,,,,,,,,,,,,,,0,3,3,0,1,,,,,,,,,,,,,,,,,,,,,,,,,,,,,,,,,,,,,,,,,
