participant,session,date,expName,psychopyVersion,OS,frameRate,space_press_continue.keys,space_press_continue.rt,space_press_continue_2.keys,space_press_continue_2.rt,space_press_continue_3.keys,space_press_continue_3.rt,space_press_continue_4.keys,space_press_continue_4.rt,space_press_continue_5.keys,space_press_continue_5.rt,space_press_continue_6.keys,space_press_continue_6.rt,prac_mask_loop_1.thisRepN,prac_mask_loop_1.thisTrialN,prac_mask_loop_1.thisN,prac_mask_loop_1.thisIndex,prac_mask_loop_1.ran,mask_name,prac_mask_loop_2.thisRepN,prac_mask_loop_2.thisTrialN,prac_mask_loop_2.thisN,prac_mask_loop_2.thisIndex,prac_mask_loop_2.ran,mouse_2.x,mouse_2.y,mouse_2.leftButton,mouse_2.midButton,mouse_2.rightButton,mouse_2.clicked_name,similarity,response_time,Pass,mouse_12.x,mouse_12.y,mouse_12.leftButton,mouse_12.midButton,mouse_12.rightButton,mouse_12.clicked_name,prac_loop.thisRepN,prac_loop.thisTrialN,prac_loop.thisN,prac_loop.thisIndex,prac_loop.ran,Pair_type,Image_num,Patch_1_loc,Patch_2_loc,Patch_1_info,Patch_2_info,Patch_1_name,Patch_2_name,mouse_1.x,mouse_1.y,mouse_1.leftButton,mouse_1.midButton,mouse_1.rightButton,mouse_1.time,mouse_1.clicked_name,space_press_continue_7.keys,space_press_continue_7.rt,mask_loop.thisRepN,mask_loop.thisTrialN,mask_loop.thisN,mask_loop.thisIndex,mask_loop.ran,mask_loop_2.thisRepN,mask_loop_2.thisTrialN,mask_loop_2.thisN,mask_loop_2.thisIndex,mask_loop_2.ran,mouse.x,mouse.y,mouse.leftButton,mouse.midButton,mouse.rightButton,mouse.clicked_name,trialNumber,mouse_11.x,mouse_11.y,mouse_11.leftButton,mouse_11.midButton,mouse_11.rightButton,mouse_11.clicked_name,first_pass_loop.thisRepN,first_pass_loop.thisTrialN,first_pass_loop.thisN,first_pass_loop.thisIndex,first_pass_loop.ran,mask_loop_3.thisRepN,mask_loop_3.thisTrialN,mask_loop_3.thisN,mask_loop_3.thisIndex,mask_loop_3.ran,mask_loop_4.thisRepN,mask_loop_4.thisTrialN,mask_loop_4.thisN,mask_loop_4.thisIndex,mask_loop_4.ran,mouse_3.x,mouse_3.y,mouse_3.leftButton,mouse_3.midButton,mouse_3.rightButton,mouse_3.clicked_name,double_pass_loop.thisRepN,double_pass_loop.thisTrialN,double_pass_loop.thisN,double_pass_loop.thisIndex,double_pass_loop.ran,space_exit.keys,space_exit.rt
685449,001,2022-11-21_02h02.42.385,Info_measure_main_exp,2022.2.2,Win32,57.82686636,,,,,,,,,,,,,,,,,,,,,,,,,,,,,,,,,,,,,,,,,,,,,,,,,,,,,,,,,,,,,,,,,,,,,,,,,,,,,,,,,,,,,,,,,,,,,,,,,,,,,,,,,,,,,,,
685449,001,2022-11-21_02h02.42.385,Info_measure_main_exp,2022.2.2,Win32,57.82686636,,,,,,,,,,,,,,,,,,,,,,,,,,,,,,,,,,,,,,,,,,,,,,,,,,,,,,,,,,,,,,,,,,,,,,,,,,,,,,,,,,,,,,,,,,,,,,,,,,,,,,,,,,,,,,,
685449,001,2022-11-21_02h02.42.385,Info_measure_main_exp,2022.2.2,Win32,57.82686636,space,28.6772,,,,,,,,,,,,,,,,,,,,,,,,,,,,,,,,,,,,,,,,,,,,,,,,,,,,,,,,,,,,,,,,,,,,,,,,,,,,,,,,,,,,,,,,,,,,,,,,,,,,,,,,,,,,,
685449,001,2022-11-21_02h02.42.385,Info_measure_main_exp,2022.2.2,Win32,57.82686636,,,space,25.9248,,,,,,,,,,,,,,,,,,,,,,,,,,,,,,,,,,,,,,,,,,,,,,,,,,,,,,,,,,,,,,,,,,,,,,,,,,,,,,,,,,,,,,,,,,,,,,,,,,,,,,,,,,,
685449,001,2022-11-21_02h02.42.385,Info_measure_main_exp,2022.2.2,Win32,57.82686636,,,,,space,11.8523,,,,,,,,,,,,,,,,,,,,,,,,,,,,,,,,,,,,,,,,,,,,,,,,,,,,,,,,,,,,,,,,,,,,,,,,,,,,,,,,,,,,,,,,,,,,,,,,,,,,,,,,,
685449,001,2022-11-21_02h02.42.385,Info_measure_main_exp,2022.2.2,Win32,57.82686636,,,,,,,space,21.1839,,,,,,,,,,,,,,,,,,,,,,,,,,,,,,,,,,,,,,,,,,,,,,,,,,,,,,,,,,,,,,,,,,,,,,,,,,,,,,,,,,,,,,,,,,,,,,,,,,,,,,,
685449,001,2022-11-21_02h02.42.385,Info_measure_main_exp,2022.2.2,Win32,57.82686636,,,,,,,,,space,18.0658,,,,,,,,,,,,,,,,,,,,,,,,,,,,,,,,,,,,,,,,,,,,,,,,,,,,,,,,,,,,,,,,,,,,,,,,,,,,,,,,,,,,,,,,,,,,,,,,,,,,,
685449,001,2022-11-21_02h02.42.385,Info_measure_main_exp,2022.2.2,Win32,57.82686636,,,,,,,,,,,space,9.5116,,,,,,,,,,,,,,,,,,,,,,,,,,,,,,,,,,,,,,,,,,,,,,,,,,,,,,,,,,,,,,,,,,,,,,,,,,,,,,,,,,,,,,,,,,,,,,,,,,,
685449,001,2022-11-21_02h02.42.385,Info_measure_main_exp,2022.2.2,Win32,57.82686636,,,,,,,,,,,,,0,0,0,1,1,masks/mask_002.jpg,,,,,,,,,,,,,,,,,,,,,,,,,,,,,,,,,,,,,,,,,,,,,,,,,,,,,,,,,,,,,,,,,,,,,,,,,,,,,,,,,,,,,,,,,,,,,
685449,001,2022-11-21_02h02.42.385,Info_measure_main_exp,2022.2.2,Win32,57.82686636,,,,,,,,,,,,,0,1,1,2,1,masks/mask_003.jpg,,,,,,,,,,,,,,,,,,,,,,,,,,,,,,,,,,,,,,,,,,,,,,,,,,,,,,,,,,,,,,,,,,,,,,,,,,,,,,,,,,,,,,,,,,,,,
685449,001,2022-11-21_02h02.42.385,Info_measure_main_exp,2022.2.2,Win32,57.82686636,,,,,,,,,,,,,0,2,2,4,1,masks/mask_005.jpg,,,,,,,,,,,,,,,,,,,,,,,,,,,,,,,,,,,,,,,,,,,,,,,,,,,,,,,,,,,,,,,,,,,,,,,,,,,,,,,,,,,,,,,,,,,,,
685449,001,2022-11-21_02h02.42.385,Info_measure_main_exp,2022.2.2,Win32,57.82686636,,,,,,,,,,,,,0,3,3,0,1,masks/mask_001.jpg,,,,,,,,,,,,,,,,,,,,,,,,,,,,,,,,,,,,,,,,,,,,,,,,,,,,,,,,,,,,,,,,,,,,,,,,,,,,,,,,,,,,,,,,,,,,,
685449,001,2022-11-21_02h02.42.385,Info_measure_main_exp,2022.2.2,Win32,57.82686636,,,,,,,,,,,,,0,4,4,3,1,masks/mask_004.jpg,,,,,,,,,,,,,,,,,,,,,,,,,,,,,,,,,,,,,,,,,,,,,,,,,,,,,,,,,,,,,,,,,,,,,,,,,,,,,,,,,,,,,,,,,,,,,
685449,001,2022-11-21_02h02.42.385,Info_measure_main_exp,2022.2.2,Win32,57.82686636,,,,,,,,,,,,,,,,,,masks/mask_005.jpg,0,0,0,4,1,,,,,,,,,,,,,,,,,,,,,,,,,,,,,,,,,,,,,,,,,,,,,,,,,,,,,,,,,,,,,,,,,,,,,,,,,,,,,,,,,,,,,,,,
685449,001,2022-11-21_02h02.42.385,Info_measure_main_exp,2022.2.2,Win32,57.82686636,,,,,,,,,,,,,,,,,,masks/mask_001.jpg,0,1,1,0,1,,,,,,,,,,,,,,,,,,,,,,,,,,,,,,,,,,,,,,,,,,,,,,,,,,,,,,,,,,,,,,,,,,,,,,,,,,,,,,,,,,,,,,,,
685449,001,2022-11-21_02h02.42.385,Info_measure_main_exp,2022.2.2,Win32,57.82686636,,,,,,,,,,,,,,,,,,masks/mask_003.jpg,0,2,2,2,1,,,,,,,,,,,,,,,,,,,,,,,,,,,,,,,,,,,,,,,,,,,,,,,,,,,,,,,,,,,,,,,,,,,,,,,,,,,,,,,,,,,,,,,,
685449,001,2022-11-21_02h02.42.385,Info_measure_main_exp,2022.2.2,Win32,57.82686636,,,,,,,,,,,,,,,,,,masks/mask_004.jpg,0,3,3,3,1,,,,,,,,,,,,,,,,,,,,,,,,,,,,,,,,,,,,,,,,,,,,,,,,,,,,,,,,,,,,,,,,,,,,,,,,,,,,,,,,,,,,,,,,
685449,001,2022-11-21_02h02.42.385,Info_measure_main_exp,2022.2.2,Win32,57.82686636,,,,,,,,,,,,,,,,,,masks/mask_002.jpg,0,4,4,1,1,,,,,,,,,,,,,,,,,,,,,,,,,,,,,,,,,,,,,,,,,,,,,,,,,,,,,,,,,,,,,,,,,,,,,,,,,,,,,,,,,,,,,,,,
685449,001,2022-11-21_02h02.42.385,Info_measure_main_exp,2022.2.2,Win32,57.82686636,,,,,,,,,,,,,,,,,,,,,,,,0.140625,-0.037760417,1,0,0,response3disk,5,122.8216,1,0,-0.001302083,1,0,0,center_square,0,0,0,0,1,0,131,5,5,2370,2406,prac_patch/patch0002370.jpg,prac_patch/patch0002406.jpg,,,,,,,,,,,,,,,,,,,,,,,,,,,,,,,,,,,,,,,,,,,,,,,,,,,,,,,,,,,,
685449,001,2022-11-21_02h02.42.385,Info_measure_main_exp,2022.2.2,Win32,57.82686636,,,,,,,,,,,,,0,0,0,3,1,masks/mask_004.jpg,,,,,,,,,,,,,,,,,,,,,,,,,,,,,,,,,,,,,,,,,,,,,,,,,,,,,,,,,,,,,,,,,,,,,,,,,,,,,,,,,,,,,,,,,,,,,
685449,001,2022-11-21_02h02.42.385,Info_measure_main_exp,2022.2.2,Win32,57.82686636,,,,,,,,,,,,,0,1,1,2,1,masks/mask_003.jpg,,,,,,,,,,,,,,,,,,,,,,,,,,,,,,,,,,,,,,,,,,,,,,,,,,,,,,,,,,,,,,,,,,,,,,,,,,,,,,,,,,,,,,,,,,,,,
685449,001,2022-11-21_02h02.42.385,Info_measure_main_exp,2022.2.2,Win32,57.82686636,,,,,,,,,,,,,0,2,2,0,1,masks/mask_001.jpg,,,,,,,,,,,,,,,,,,,,,,,,,,,,,,,,,,,,,,,,,,,,,,,,,,,,,,,,,,,,,,,,,,,,,,,,,,,,,,,,,,,,,,,,,,,,,
685449,001,2022-11-21_02h02.42.385,Info_measure_main_exp,2022.2.2,Win32,57.82686636,,,,,,,,,,,,,0,3,3,4,1,masks/mask_005.jpg,,,,,,,,,,,,,,,,,,,,,,,,,,,,,,,,,,,,,,,,,,,,,,,,,,,,,,,,,,,,,,,,,,,,,,,,,,,,,,,,,,,,,,,,,,,,,
685449,001,2022-11-21_02h02.42.385,Info_measure_main_exp,2022.2.2,Win32,57.82686636,,,,,,,,,,,,,0,4,4,1,1,masks/mask_002.jpg,,,,,,,,,,,,,,,,,,,,,,,,,,,,,,,,,,,,,,,,,,,,,,,,,,,,,,,,,,,,,,,,,,,,,,,,,,,,,,,,,,,,,,,,,,,,,
685449,001,2022-11-21_02h02.42.385,Info_measure_main_exp,2022.2.2,Win32,57.82686636,,,,,,,,,,,,,,,,,,masks/mask_004.jpg,0,0,0,3,1,,,,,,,,,,,,,,,,,,,,,,,,,,,,,,,,,,,,,,,,,,,,,,,,,,,,,,,,,,,,,,,,,,,,,,,,,,,,,,,,,,,,,,,,
685449,001,2022-11-21_02h02.42.385,Info_measure_main_exp,2022.2.2,Win32,57.82686636,,,,,,,,,,,,,,,,,,masks/mask_003.jpg,0,1,1,2,1,,,,,,,,,,,,,,,,,,,,,,,,,,,,,,,,,,,,,,,,,,,,,,,,,,,,,,,,,,,,,,,,,,,,,,,,,,,,,,,,,,,,,,,,
685449,001,2022-11-21_02h02.42.385,Info_measure_main_exp,2022.2.2,Win32,57.82686636,,,,,,,,,,,,,,,,,,masks/mask_005.jpg,0,2,2,4,1,,,,,,,,,,,,,,,,,,,,,,,,,,,,,,,,,,,,,,,,,,,,,,,,,,,,,,,,,,,,,,,,,,,,,,,,,,,,,,,,,,,,,,,,
685449,001,2022-11-21_02h02.42.385,Info_measure_main_exp,2022.2.2,Win32,57.82686636,,,,,,,,,,,,,,,,,,masks/mask_001.jpg,0,3,3,0,1,,,,,,,,,,,,,,,,,,,,,,,,,,,,,,,,,,,,,,,,,,,,,,,,,,,,,,,,,,,,,,,,,,,,,,,,,,,,,,,,,,,,,,,,
685449,001,2022-11-21_02h02.42.385,Info_measure_main_exp,2022.2.2,Win32,57.82686636,,,,,,,,,,,,,,,,,,masks/mask_002.jpg,0,4,4,1,1,,,,,,,,,,,,,,,,,,,,,,,,,,,,,,,,,,,,,,,,,,,,,,,,,,,,,,,,,,,,,,,,,,,,,,,,,,,,,,,,,,,,,,,,
685449,001,2022-11-21_02h02.42.385,Info_measure_main_exp,2022.2.2,Win32,57.82686636,,,,,,,,,,,,,,,,,,,,,,,,-0.141927083,0.119791667,1,0,0,response7disk,1,140.4543,1,-0.001302083,-0.00390625,1,0,0,center_square,0,1,1,2,1,0,131,5,5,2526,2526,prac_patch/patch0002526.jpg,prac_patch/patch0002526.jpg,,,,,,,,,,,,,,,,,,,,,,,,,,,,,,,,,,,,,,,,,,,,,,,,,,,,,,,,,,,,
685449,001,2022-11-21_02h02.42.385,Info_measure_main_exp,2022.2.2,Win32,57.82686636,,,,,,,,,,,,,0,0,0,2,1,masks/mask_003.jpg,,,,,,,,,,,,,,,,,,,,,,,,,,,,,,,,,,,,,,,,,,,,,,,,,,,,,,,,,,,,,,,,,,,,,,,,,,,,,,,,,,,,,,,,,,,,,
685449,001,2022-11-21_02h02.42.385,Info_measure_main_exp,2022.2.2,Win32,57.82686636,,,,,,,,,,,,,0,1,1,1,1,masks/mask_002.jpg,,,,,,,,,,,,,,,,,,,,,,,,,,,,,,,,,,,,,,,,,,,,,,,,,,,,,,,,,,,,,,,,,,,,,,,,,,,,,,,,,,,,,,,,,,,,,
685449,001,2022-11-21_02h02.42.385,Info_measure_main_exp,2022.2.2,Win32,57.82686636,,,,,,,,,,,,,0,2,2,4,1,masks/mask_005.jpg,,,,,,,,,,,,,,,,,,,,,,,,,,,,,,,,,,,,,,,,,,,,,,,,,,,,,,,,,,,,,,,,,,,,,,,,,,,,,,,,,,,,,,,,,,,,,
685449,001,2022-11-21_02h02.42.385,Info_measure_main_exp,2022.2.2,Win32,57.82686636,,,,,,,,,,,,,0,3,3,3,1,masks/mask_004.jpg,,,,,,,,,,,,,,,,,,,,,,,,,,,,,,,,,,,,,,,,,,,,,,,,,,,,,,,,,,,,,,,,,,,,,,,,,,,,,,,,,,,,,,,,,,,,,
685449,001,2022-11-21_02h02.42.385,Info_measure_main_exp,2022.2.2,Win32,57.82686636,,,,,,,,,,,,,0,4,4,0,1,masks/mask_001.jpg,,,,,,,,,,,,,,,,,,,,,,,,,,,,,,,,,,,,,,,,,,,,,,,,,,,,,,,,,,,,,,,,,,,,,,,,,,,,,,,,,,,,,,,,,,,,,
685449,001,2022-11-21_02h02.42.385,Info_measure_main_exp,2022.2.2,Win32,57.82686636,,,,,,,,,,,,,,,,,,masks/mask_002.jpg,0,0,0,1,1,,,,,,,,,,,,,,,,,,,,,,,,,,,,,,,,,,,,,,,,,,,,,,,,,,,,,,,,,,,,,,,,,,,,,,,,,,,,,,,,,,,,,,,,
685449,001,2022-11-21_02h02.42.385,Info_measure_main_exp,2022.2.2,Win32,57.82686636,,,,,,,,,,,,,,,,,,masks/mask_003.jpg,0,1,1,2,1,,,,,,,,,,,,,,,,,,,,,,,,,,,,,,,,,,,,,,,,,,,,,,,,,,,,,,,,,,,,,,,,,,,,,,,,,,,,,,,,,,,,,,,,
685449,001,2022-11-21_02h02.42.385,Info_measure_main_exp,2022.2.2,Win32,57.82686636,,,,,,,,,,,,,,,,,,masks/mask_001.jpg,0,2,2,0,1,,,,,,,,,,,,,,,,,,,,,,,,,,,,,,,,,,,,,,,,,,,,,,,,,,,,,,,,,,,,,,,,,,,,,,,,,,,,,,,,,,,,,,,,
685449,001,2022-11-21_02h02.42.385,Info_measure_main_exp,2022.2.2,Win32,57.82686636,,,,,,,,,,,,,,,,,,masks/mask_005.jpg,0,3,3,4,1,,,,,,,,,,,,,,,,,,,,,,,,,,,,,,,,,,,,,,,,,,,,,,,,,,,,,,,,,,,,,,,,,,,,,,,,,,,,,,,,,,,,,,,,
685449,001,2022-11-21_02h02.42.385,Info_measure_main_exp,2022.2.2,Win32,57.82686636,,,,,,,,,,,,,,,,,,masks/mask_004.jpg,0,4,4,3,1,,,,,,,,,,,,,,,,,,,,,,,,,,,,,,,,,,,,,,,,,,,,,,,,,,,,,,,,,,,,,,,,,,,,,,,,,,,,,,,,,,,,,,,,
685449,001,2022-11-21_02h02.42.385,Info_measure_main_exp,2022.2.2,Win32,57.82686636,,,,,,,,,,,,,,,,,,,,,,,,0.016927083,0.052083333,1,0,0,response1disk,7,150.4343,1,0.001302083,0,1,0,0,center_square,0,2,2,1,1,0,131,5,5,2514,2490,prac_patch/patch0002514.jpg,prac_patch/patch0002490.jpg,,,,,,,,,,,,,,,,,,,,,,,,,,,,,,,,,,,,,,,,,,,,,,,,,,,,,,,,,,,,
685449,001,2022-11-21_02h02.42.385,Info_measure_main_exp,2022.2.2,Win32,57.82686636,,,,,,,,,,,,,,,,,,,,,,,,,,,,,,,,,,,,,,,,,,,,,,,,,,,,,,,,,,,space,2.3105,,,,,,,,,,,,,,,,,,,,,,,,,,,,,,,,,,,,,,,,,,,,,,,,,,,
685449,001,2022-11-21_02h02.42.385,Info_measure_main_exp,2022.2.2,Win32,57.82686636,,,,,,,,,,,,,,,,,,masks/mask_001.jpg,,,,,,,,,,,,,,,,,,,,,,,,,,,,,,,,,,,,,,,,,,,0,0,0,0,1,,,,,,,,,,,,,,,,,,,,,,,,,,,,,,,,,,,,,,,,,,,,,,
685449,001,2022-11-21_02h02.42.385,Info_measure_main_exp,2022.2.2,Win32,57.82686636,,,,,,,,,,,,,,,,,,masks/mask_004.jpg,,,,,,,,,,,,,,,,,,,,,,,,,,,,,,,,,,,,,,,,,,,0,1,1,3,1,,,,,,,,,,,,,,,,,,,,,,,,,,,,,,,,,,,,,,,,,,,,,,
685449,001,2022-11-21_02h02.42.385,Info_measure_main_exp,2022.2.2,Win32,57.82686636,,,,,,,,,,,,,,,,,,masks/mask_002.jpg,,,,,,,,,,,,,,,,,,,,,,,,,,,,,,,,,,,,,,,,,,,0,2,2,1,1,,,,,,,,,,,,,,,,,,,,,,,,,,,,,,,,,,,,,,,,,,,,,,
685449,001,2022-11-21_02h02.42.385,Info_measure_main_exp,2022.2.2,Win32,57.82686636,,,,,,,,,,,,,,,,,,masks/mask_003.jpg,,,,,,,,,,,,,,,,,,,,,,,,,,,,,,,,,,,,,,,,,,,0,3,3,2,1,,,,,,,,,,,,,,,,,,,,,,,,,,,,,,,,,,,,,,,,,,,,,,
685449,001,2022-11-21_02h02.42.385,Info_measure_main_exp,2022.2.2,Win32,57.82686636,,,,,,,,,,,,,,,,,,masks/mask_005.jpg,,,,,,,,,,,,,,,,,,,,,,,,,,,,,,,,,,,,,,,,,,,0,4,4,4,1,,,,,,,,,,,,,,,,,,,,,,,,,,,,,,,,,,,,,,,,,,,,,,
685449,001,2022-11-21_02h02.42.385,Info_measure_main_exp,2022.2.2,Win32,57.82686636,,,,,,,,,,,,,,,,,,masks/mask_001.jpg,,,,,,,,,,,,,,,,,,,,,,,,,,,,,,,,,,,,,,,,,,,,,,,,0,0,0,0,1,,,,,,,,,,,,,,,,,,,,,,,,,,,,,,,,,,,,,,,,,
685449,001,2022-11-21_02h02.42.385,Info_measure_main_exp,2022.2.2,Win32,57.82686636,,,,,,,,,,,,,,,,,,masks/mask_002.jpg,,,,,,,,,,,,,,,,,,,,,,,,,,,,,,,,,,,,,,,,,,,,,,,,0,1,1,1,1,,,,,,,,,,,,,,,,,,,,,,,,,,,,,,,,,,,,,,,,,
685449,001,2022-11-21_02h02.42.385,Info_measure_main_exp,2022.2.2,Win32,57.82686636,,,,,,,,,,,,,,,,,,masks/mask_004.jpg,,,,,,,,,,,,,,,,,,,,,,,,,,,,,,,,,,,,,,,,,,,,,,,,0,2,2,3,1,,,,,,,,,,,,,,,,,,,,,,,,,,,,,,,,,,,,,,,,,
685449,001,2022-11-21_02h02.42.385,Info_measure_main_exp,2022.2.2,Win32,57.82686636,,,,,,,,,,,,,,,,,,masks/mask_003.jpg,,,,,,,,,,,,,,,,,,,,,,,,,,,,,,,,,,,,,,,,,,,,,,,,0,3,3,2,1,,,,,,,,,,,,,,,,,,,,,,,,,,,,,,,,,,,,,,,,,
685449,001,2022-11-21_02h02.42.385,Info_measure_main_exp,2022.2.2,Win32,57.82686636,,,,,,,,,,,,,,,,,,masks/mask_005.jpg,,,,,,,,,,,,,,,,,,,,,,,,,,,,,,,,,,,,,,,,,,,,,,,,0,4,4,4,1,,,,,,,,,,,,,,,,,,,,,,,,,,,,,,,,,,,,,,,,,
685449,001,2022-11-21_02h02.42.385,Info_measure_main_exp,2022.2.2,Win32,57.82686636,,,,,,,,,,,,,,,,,,,,,,,,,,,,,,7,3.754,1,,,,,,,,,,,,1,131,5,5,1,2142,present_patch/cong_131_5_a.jpg,absent_patch/patch0002142.jpg,,,,,,,,,,,,,,,,,,,,0.01953125,0.100260417,1,0,0,response1disk,1,-0.001302083,0.002604167,1,0,0,center_square,0,0,0,80,1,,,,,,,,,,,,,,,,,,,,,,,
685449,001,2022-11-21_02h02.42.385,Info_measure_main_exp,2022.2.2,Win32,57.82686636,,,,,,,,,,,,,,,,,,masks/mask_002.jpg,,,,,,,,,,,,,,,,,,,,,,,,,,,,,,,,,,,,,,,,,,,0,0,0,1,1,,,,,,,,,,,,,,,,,,,,,,,,,,,,,,,,,,,,,,,,,,,,,,
685449,001,2022-11-21_02h02.42.385,Info_measure_main_exp,2022.2.2,Win32,57.82686636,,,,,,,,,,,,,,,,,,masks/mask_004.jpg,,,,,,,,,,,,,,,,,,,,,,,,,,,,,,,,,,,,,,,,,,,0,1,1,3,1,,,,,,,,,,,,,,,,,,,,,,,,,,,,,,,,,,,,,,,,,,,,,,
685449,001,2022-11-21_02h02.42.385,Info_measure_main_exp,2022.2.2,Win32,57.82686636,,,,,,,,,,,,,,,,,,masks/mask_005.jpg,,,,,,,,,,,,,,,,,,,,,,,,,,,,,,,,,,,,,,,,,,,0,2,2,4,1,,,,,,,,,,,,,,,,,,,,,,,,,,,,,,,,,,,,,,,,,,,,,,
685449,001,2022-11-21_02h02.42.385,Info_measure_main_exp,2022.2.2,Win32,57.82686636,,,,,,,,,,,,,,,,,,masks/mask_003.jpg,,,,,,,,,,,,,,,,,,,,,,,,,,,,,,,,,,,,,,,,,,,0,3,3,2,1,,,,,,,,,,,,,,,,,,,,,,,,,,,,,,,,,,,,,,,,,,,,,,
685449,001,2022-11-21_02h02.42.385,Info_measure_main_exp,2022.2.2,Win32,57.82686636,,,,,,,,,,,,,,,,,,masks/mask_001.jpg,,,,,,,,,,,,,,,,,,,,,,,,,,,,,,,,,,,,,,,,,,,0,4,4,0,1,,,,,,,,,,,,,,,,,,,,,,,,,,,,,,,,,,,,,,,,,,,,,,
685449,001,2022-11-21_02h02.42.385,Info_measure_main_exp,2022.2.2,Win32,57.82686636,,,,,,,,,,,,,,,,,,masks/mask_004.jpg,,,,,,,,,,,,,,,,,,,,,,,,,,,,,,,,,,,,,,,,,,,,,,,,0,0,0,3,1,,,,,,,,,,,,,,,,,,,,,,,,,,,,,,,,,,,,,,,,,
685449,001,2022-11-21_02h02.42.385,Info_measure_main_exp,2022.2.2,Win32,57.82686636,,,,,,,,,,,,,,,,,,masks/mask_003.jpg,,,,,,,,,,,,,,,,,,,,,,,,,,,,,,,,,,,,,,,,,,,,,,,,0,1,1,2,1,,,,,,,,,,,,,,,,,,,,,,,,,,,,,,,,,,,,,,,,,
685449,001,2022-11-21_02h02.42.385,Info_measure_main_exp,2022.2.2,Win32,57.82686636,,,,,,,,,,,,,,,,,,masks/mask_001.jpg,,,,,,,,,,,,,,,,,,,,,,,,,,,,,,,,,,,,,,,,,,,,,,,,0,2,2,0,1,,,,,,,,,,,,,,,,,,,,,,,,,,,,,,,,,,,,,,,,,
685449,001,2022-11-21_02h02.42.385,Info_measure_main_exp,2022.2.2,Win32,57.82686636,,,,,,,,,,,,,,,,,,masks/mask_002.jpg,,,,,,,,,,,,,,,,,,,,,,,,,,,,,,,,,,,,,,,,,,,,,,,,0,3,3,1,1,,,,,,,,,,,,,,,,,,,,,,,,,,,,,,,,,,,,,,,,,
685449,001,2022-11-21_02h02.42.385,Info_measure_main_exp,2022.2.2,Win32,57.82686636,,,,,,,,,,,,,,,,,,masks/mask_005.jpg,,,,,,,,,,,,,,,,,,,,,,,,,,,,,,,,,,,,,,,,,,,,,,,,0,4,4,4,1,,,,,,,,,,,,,,,,,,,,,,,,,,,,,,,,,,,,,,,,,
685449,001,2022-11-21_02h02.42.385,Info_measure_main_exp,2022.2.2,Win32,57.82686636,,,,,,,,,,,,,,,,,,,,,,,,,,,,,,5,3.2001,1,,,,,,,,,,,,0,131,5,5,2166,2154,absent_patch/patch0002166.jpg,absent_patch/patch0002154.jpg,,,,,,,,,,,,,,,,,,,,0.048177083,-0.020833333,1,0,0,response3disk,2,0.002604167,0.002604167,1,0,0,center_square,0,1,1,79,1,,,,,,,,,,,,,,,,,,,,,,,
685449,001,2022-11-21_02h02.42.385,Info_measure_main_exp,2022.2.2,Win32,57.82686636,,,,,,,,,,,,,,,,,,masks/mask_004.jpg,,,,,,,,,,,,,,,,,,,,,,,,,,,,,,,,,,,,,,,,,,,0,0,0,3,1,,,,,,,,,,,,,,,,,,,,,,,,,,,,,,,,,,,,,,,,,,,,,,
685449,001,2022-11-21_02h02.42.385,Info_measure_main_exp,2022.2.2,Win32,57.82686636,,,,,,,,,,,,,,,,,,masks/mask_001.jpg,,,,,,,,,,,,,,,,,,,,,,,,,,,,,,,,,,,,,,,,,,,0,1,1,0,1,,,,,,,,,,,,,,,,,,,,,,,,,,,,,,,,,,,,,,,,,,,,,,
685449,001,2022-11-21_02h02.42.385,Info_measure_main_exp,2022.2.2,Win32,57.82686636,,,,,,,,,,,,,,,,,,masks/mask_002.jpg,,,,,,,,,,,,,,,,,,,,,,,,,,,,,,,,,,,,,,,,,,,0,2,2,1,1,,,,,,,,,,,,,,,,,,,,,,,,,,,,,,,,,,,,,,,,,,,,,,
685449,001,2022-11-21_02h02.42.385,Info_measure_main_exp,2022.2.2,Win32,57.82686636,,,,,,,,,,,,,,,,,,masks/mask_005.jpg,,,,,,,,,,,,,,,,,,,,,,,,,,,,,,,,,,,,,,,,,,,0,3,3,4,1,,,,,,,,,,,,,,,,,,,,,,,,,,,,,,,,,,,,,,,,,,,,,,
685449,001,2022-11-21_02h02.42.385,Info_measure_main_exp,2022.2.2,Win32,57.82686636,,,,,,,,,,,,,,,,,,masks/mask_003.jpg,,,,,,,,,,,,,,,,,,,,,,,,,,,,,,,,,,,,,,,,,,,0,4,4,2,1,,,,,,,,,,,,,,,,,,,,,,,,,,,,,,,,,,,,,,,,,,,,,,
685449,001,2022-11-21_02h02.42.385,Info_measure_main_exp,2022.2.2,Win32,57.82686636,,,,,,,,,,,,,,,,,,masks/mask_002.jpg,,,,,,,,,,,,,,,,,,,,,,,,,,,,,,,,,,,,,,,,,,,,,,,,0,0,0,1,1,,,,,,,,,,,,,,,,,,,,,,,,,,,,,,,,,,,,,,,,,
685449,001,2022-11-21_02h02.42.385,Info_measure_main_exp,2022.2.2,Win32,57.82686636,,,,,,,,,,,,,,,,,,masks/mask_003.jpg,,,,,,,,,,,,,,,,,,,,,,,,,,,,,,,,,,,,,,,,,,,,,,,,0,1,1,2,1,,,,,,,,,,,,,,,,,,,,,,,,,,,,,,,,,,,,,,,,,
685449,001,2022-11-21_02h02.42.385,Info_measure_main_exp,2022.2.2,Win32,57.82686636,,,,,,,,,,,,,,,,,,masks/mask_004.jpg,,,,,,,,,,,,,,,,,,,,,,,,,,,,,,,,,,,,,,,,,,,,,,,,0,2,2,3,1,,,,,,,,,,,,,,,,,,,,,,,,,,,,,,,,,,,,,,,,,
685449,001,2022-11-21_02h02.42.385,Info_measure_main_exp,2022.2.2,Win32,57.82686636,,,,,,,,,,,,,,,,,,masks/mask_005.jpg,,,,,,,,,,,,,,,,,,,,,,,,,,,,,,,,,,,,,,,,,,,,,,,,0,3,3,4,1,,,,,,,,,,,,,,,,,,,,,,,,,,,,,,,,,,,,,,,,,
685449,001,2022-11-21_02h02.42.385,Info_measure_main_exp,2022.2.2,Win32,57.82686636,,,,,,,,,,,,,,,,,,masks/mask_001.jpg,,,,,,,,,,,,,,,,,,,,,,,,,,,,,,,,,,,,,,,,,,,,,,,,0,4,4,0,1,,,,,,,,,,,,,,,,,,,,,,,,,,,,,,,,,,,,,,,,,
685449,001,2022-11-21_02h02.42.385,Info_measure_main_exp,2022.2.2,Win32,57.82686636,,,,,,,,,,,,,,,,,,,,,,,,,,,,,,1,2.3784,1,,,,,,,,,,,,0,131,5,5,2154,2214,absent_patch/patch0002154.jpg,absent_patch/patch0002214.jpg,,,,,,,,,,,,,,,,,,,,-0.065104167,0.0234375,1,0,0,response7disk,3,-0.001302083,0.002604167,1,0,0,center_square,0,2,2,67,1,,,,,,,,,,,,,,,,,,,,,,,
685449,001,2022-11-21_02h02.42.385,Info_measure_main_exp,2022.2.2,Win32,57.82686636,,,,,,,,,,,,,,,,,,masks/mask_002.jpg,,,,,,,,,,,,,,,,,,,,,,,,,,,,,,,,,,,,,,,,,,,0,0,0,1,1,,,,,,,,,,,,,,,,,,,,,,,,,,,,,,,,,,,,,,,,,,,,,,
685449,001,2022-11-21_02h02.42.385,Info_measure_main_exp,2022.2.2,Win32,57.82686636,,,,,,,,,,,,,,,,,,masks/mask_001.jpg,,,,,,,,,,,,,,,,,,,,,,,,,,,,,,,,,,,,,,,,,,,0,1,1,0,1,,,,,,,,,,,,,,,,,,,,,,,,,,,,,,,,,,,,,,,,,,,,,,
685449,001,2022-11-21_02h02.42.385,Info_measure_main_exp,2022.2.2,Win32,57.82686636,,,,,,,,,,,,,,,,,,masks/mask_003.jpg,,,,,,,,,,,,,,,,,,,,,,,,,,,,,,,,,,,,,,,,,,,0,2,2,2,1,,,,,,,,,,,,,,,,,,,,,,,,,,,,,,,,,,,,,,,,,,,,,,
685449,001,2022-11-21_02h02.42.385,Info_measure_main_exp,2022.2.2,Win32,57.82686636,,,,,,,,,,,,,,,,,,masks/mask_004.jpg,,,,,,,,,,,,,,,,,,,,,,,,,,,,,,,,,,,,,,,,,,,0,3,3,3,1,,,,,,,,,,,,,,,,,,,,,,,,,,,,,,,,,,,,,,,,,,,,,,
685449,001,2022-11-21_02h02.42.385,Info_measure_main_exp,2022.2.2,Win32,57.82686636,,,,,,,,,,,,,,,,,,masks/mask_005.jpg,,,,,,,,,,,,,,,,,,,,,,,,,,,,,,,,,,,,,,,,,,,0,4,4,4,1,,,,,,,,,,,,,,,,,,,,,,,,,,,,,,,,,,,,,,,,,,,,,,
685449,001,2022-11-21_02h02.42.385,Info_measure_main_exp,2022.2.2,Win32,57.82686636,,,,,,,,,,,,,,,,,,masks/mask_001.jpg,,,,,,,,,,,,,,,,,,,,,,,,,,,,,,,,,,,,,,,,,,,,,,,,0,0,0,0,1,,,,,,,,,,,,,,,,,,,,,,,,,,,,,,,,,,,,,,,,,
685449,001,2022-11-21_02h02.42.385,Info_measure_main_exp,2022.2.2,Win32,57.82686636,,,,,,,,,,,,,,,,,,masks/mask_004.jpg,,,,,,,,,,,,,,,,,,,,,,,,,,,,,,,,,,,,,,,,,,,,,,,,0,1,1,3,1,,,,,,,,,,,,,,,,,,,,,,,,,,,,,,,,,,,,,,,,,
685449,001,2022-11-21_02h02.42.385,Info_measure_main_exp,2022.2.2,Win32,57.82686636,,,,,,,,,,,,,,,,,,masks/mask_005.jpg,,,,,,,,,,,,,,,,,,,,,,,,,,,,,,,,,,,,,,,,,,,,,,,,0,2,2,4,1,,,,,,,,,,,,,,,,,,,,,,,,,,,,,,,,,,,,,,,,,
685449,001,2022-11-21_02h02.42.385,Info_measure_main_exp,2022.2.2,Win32,57.82686636,,,,,,,,,,,,,,,,,,masks/mask_003.jpg,,,,,,,,,,,,,,,,,,,,,,,,,,,,,,,,,,,,,,,,,,,,,,,,0,3,3,2,1,,,,,,,,,,,,,,,,,,,,,,,,,,,,,,,,,,,,,,,,,
685449,001,2022-11-21_02h02.42.385,Info_measure_main_exp,2022.2.2,Win32,57.82686636,,,,,,,,,,,,,,,,,,masks/mask_002.jpg,,,,,,,,,,,,,,,,,,,,,,,,,,,,,,,,,,,,,,,,,,,,,,,,0,4,4,1,1,,,,,,,,,,,,,,,,,,,,,,,,,,,,,,,,,,,,,,,,,
685449,001,2022-11-21_02h02.42.385,Info_measure_main_exp,2022.2.2,Win32,57.82686636,,,,,,,,,,,,,,,,,,,,,,,,,,,,,,4,2.6397,1,,,,,,,,,,,,0,131,5,5,1986,1986,absent_patch/patch0001986.jpg,absent_patch/patch0001986.jpg,,,,,,,,,,,,,,,,,,,,0.018229167,-0.06640625,1,0,0,response3disk,4,0,0.00390625,1,0,0,center_square,0,3,3,19,1,,,,,,,,,,,,,,,,,,,,,,,
685449,001,2022-11-21_02h02.42.385,Info_measure_main_exp,2022.2.2,Win32,57.82686636,,,,,,,,,,,,,,,,,,masks/mask_005.jpg,,,,,,,,,,,,,,,,,,,,,,,,,,,,,,,,,,,,,,,,,,,0,0,0,4,1,,,,,,,,,,,,,,,,,,,,,,,,,,,,,,,,,,,,,,,,,,,,,,
685449,001,2022-11-21_02h02.42.385,Info_measure_main_exp,2022.2.2,Win32,57.82686636,,,,,,,,,,,,,,,,,,masks/mask_004.jpg,,,,,,,,,,,,,,,,,,,,,,,,,,,,,,,,,,,,,,,,,,,0,1,1,3,1,,,,,,,,,,,,,,,,,,,,,,,,,,,,,,,,,,,,,,,,,,,,,,
685449,001,2022-11-21_02h02.42.385,Info_measure_main_exp,2022.2.2,Win32,57.82686636,,,,,,,,,,,,,,,,,,masks/mask_003.jpg,,,,,,,,,,,,,,,,,,,,,,,,,,,,,,,,,,,,,,,,,,,0,2,2,2,1,,,,,,,,,,,,,,,,,,,,,,,,,,,,,,,,,,,,,,,,,,,,,,
685449,001,2022-11-21_02h02.42.385,Info_measure_main_exp,2022.2.2,Win32,57.82686636,,,,,,,,,,,,,,,,,,masks/mask_001.jpg,,,,,,,,,,,,,,,,,,,,,,,,,,,,,,,,,,,,,,,,,,,0,3,3,0,1,,,,,,,,,,,,,,,,,,,,,,,,,,,,,,,,,,,,,,,,,,,,,,
685449,001,2022-11-21_02h02.42.385,Info_measure_main_exp,2022.2.2,Win32,57.82686636,,,,,,,,,,,,,,,,,,masks/mask_002.jpg,,,,,,,,,,,,,,,,,,,,,,,,,,,,,,,,,,,,,,,,,,,0,4,4,1,1,,,,,,,,,,,,,,,,,,,,,,,,,,,,,,,,,,,,,,,,,,,,,,
685449,001,2022-11-21_02h02.42.385,Info_measure_main_exp,2022.2.2,Win32,57.82686636,,,,,,,,,,,,,,,,,,masks/mask_003.jpg,,,,,,,,,,,,,,,,,,,,,,,,,,,,,,,,,,,,,,,,,,,,,,,,0,0,0,2,1,,,,,,,,,,,,,,,,,,,,,,,,,,,,,,,,,,,,,,,,,
685449,001,2022-11-21_02h02.42.385,Info_measure_main_exp,2022.2.2,Win32,57.82686636,,,,,,,,,,,,,,,,,,masks/mask_004.jpg,,,,,,,,,,,,,,,,,,,,,,,,,,,,,,,,,,,,,,,,,,,,,,,,0,1,1,3,1,,,,,,,,,,,,,,,,,,,,,,,,,,,,,,,,,,,,,,,,,
685449,001,2022-11-21_02h02.42.385,Info_measure_main_exp,2022.2.2,Win32,57.82686636,,,,,,,,,,,,,,,,,,masks/mask_005.jpg,,,,,,,,,,,,,,,,,,,,,,,,,,,,,,,,,,,,,,,,,,,,,,,,0,2,2,4,1,,,,,,,,,,,,,,,,,,,,,,,,,,,,,,,,,,,,,,,,,
685449,001,2022-11-21_02h02.42.385,Info_measure_main_exp,2022.2.2,Win32,57.82686636,,,,,,,,,,,,,,,,,,masks/mask_001.jpg,,,,,,,,,,,,,,,,,,,,,,,,,,,,,,,,,,,,,,,,,,,,,,,,0,3,3,0,1,,,,,,,,,,,,,,,,,,,,,,,,,,,,,,,,,,,,,,,,,
685449,001,2022-11-21_02h02.42.385,Info_measure_main_exp,2022.2.2,Win32,57.82686636,,,,,,,,,,,,,,,,,,masks/mask_002.jpg,,,,,,,,,,,,,,,,,,,,,,,,,,,,,,,,,,,,,,,,,,,,,,,,0,4,4,1,1,,,,,,,,,,,,,,,,,,,,,,,,,,,,,,,,,,,,,,,,,
685449,001,2022-11-21_02h02.42.385,Info_measure_main_exp,2022.2.2,Win32,57.82686636,,,,,,,,,,,,,,,,,,,,,,,,,,,,,,1,1.45,1,,,,,,,,,,,,1,131,5,5,1,1,present_patch/cong_131_5_a.jpg,present_patch/cong_131_5_a.jpg,,,,,,,,,,,,,,,,,,,,-0.10546875,0.036458333,1,0,0,response7disk,5,-0.00390625,0.00390625,1,0,0,center_square,0,4,4,30,1,,,,,,,,,,,,,,,,,,,,,,,
685449,001,2022-11-21_02h02.42.385,Info_measure_main_exp,2022.2.2,Win32,57.82686636,,,,,,,,,,,,,,,,,,masks/mask_003.jpg,,,,,,,,,,,,,,,,,,,,,,,,,,,,,,,,,,,,,,,,,,,0,0,0,2,1,,,,,,,,,,,,,,,,,,,,,,,,,,,,,,,,,,,,,,,,,,,,,,
685449,001,2022-11-21_02h02.42.385,Info_measure_main_exp,2022.2.2,Win32,57.82686636,,,,,,,,,,,,,,,,,,masks/mask_002.jpg,,,,,,,,,,,,,,,,,,,,,,,,,,,,,,,,,,,,,,,,,,,0,1,1,1,1,,,,,,,,,,,,,,,,,,,,,,,,,,,,,,,,,,,,,,,,,,,,,,
685449,001,2022-11-21_02h02.42.385,Info_measure_main_exp,2022.2.2,Win32,57.82686636,,,,,,,,,,,,,,,,,,masks/mask_005.jpg,,,,,,,,,,,,,,,,,,,,,,,,,,,,,,,,,,,,,,,,,,,0,2,2,4,1,,,,,,,,,,,,,,,,,,,,,,,,,,,,,,,,,,,,,,,,,,,,,,
685449,001,2022-11-21_02h02.42.385,Info_measure_main_exp,2022.2.2,Win32,57.82686636,,,,,,,,,,,,,,,,,,masks/mask_001.jpg,,,,,,,,,,,,,,,,,,,,,,,,,,,,,,,,,,,,,,,,,,,0,3,3,0,1,,,,,,,,,,,,,,,,,,,,,,,,,,,,,,,,,,,,,,,,,,,,,,
685449,001,2022-11-21_02h02.42.385,Info_measure_main_exp,2022.2.2,Win32,57.82686636,,,,,,,,,,,,,,,,,,masks/mask_004.jpg,,,,,,,,,,,,,,,,,,,,,,,,,,,,,,,,,,,,,,,,,,,0,4,4,3,1,,,,,,,,,,,,,,,,,,,,,,,,,,,,,,,,,,,,,,,,,,,,,,
685449,001,2022-11-21_02h02.42.385,Info_measure_main_exp,2022.2.2,Win32,57.82686636,,,,,,,,,,,,,,,,,,masks/mask_005.jpg,,,,,,,,,,,,,,,,,,,,,,,,,,,,,,,,,,,,,,,,,,,,,,,,0,0,0,4,1,,,,,,,,,,,,,,,,,,,,,,,,,,,,,,,,,,,,,,,,,
685449,001,2022-11-21_02h02.42.385,Info_measure_main_exp,2022.2.2,Win32,57.82686636,,,,,,,,,,,,,,,,,,masks/mask_001.jpg,,,,,,,,,,,,,,,,,,,,,,,,,,,,,,,,,,,,,,,,,,,,,,,,0,1,1,0,1,,,,,,,,,,,,,,,,,,,,,,,,,,,,,,,,,,,,,,,,,
685449,001,2022-11-21_02h02.42.385,Info_measure_main_exp,2022.2.2,Win32,57.82686636,,,,,,,,,,,,,,,,,,masks/mask_002.jpg,,,,,,,,,,,,,,,,,,,,,,,,,,,,,,,,,,,,,,,,,,,,,,,,0,2,2,1,1,,,,,,,,,,,,,,,,,,,,,,,,,,,,,,,,,,,,,,,,,
685449,001,2022-11-21_02h02.42.385,Info_measure_main_exp,2022.2.2,Win32,57.82686636,,,,,,,,,,,,,,,,,,masks/mask_004.jpg,,,,,,,,,,,,,,,,,,,,,,,,,,,,,,,,,,,,,,,,,,,,,,,,0,3,3,3,1,,,,,,,,,,,,,,,,,,,,,,,,,,,,,,,,,,,,,,,,,
685449,001,2022-11-21_02h02.42.385,Info_measure_main_exp,2022.2.2,Win32,57.82686636,,,,,,,,,,,,,,,,,,masks/mask_003.jpg,,,,,,,,,,,,,,,,,,,,,,,,,,,,,,,,,,,,,,,,,,,,,,,,0,4,4,2,1,,,,,,,,,,,,,,,,,,,,,,,,,,,,,,,,,,,,,,,,,
685449,001,2022-11-21_02h02.42.385,Info_measure_main_exp,2022.2.2,Win32,57.82686636,,,,,,,,,,,,,,,,,,,,,,,,,,,,,,6,2.7643,1,,,,,,,,,,,,1,131,5,5,1,2274,present_patch/cong_131_5_a.jpg,absent_patch/patch0002274.jpg,,,,,,,,,,,,,,,,,,,,0.08203125,0.028645833,1,0,0,response1disk,6,-0.001302083,-0.002604167,1,0,0,center_square,0,5,5,105,1,,,,,,,,,,,,,,,,,,,,,,,
685449,001,2022-11-21_02h02.42.385,Info_measure_main_exp,2022.2.2,Win32,57.82686636,,,,,,,,,,,,,,,,,,masks/mask_004.jpg,,,,,,,,,,,,,,,,,,,,,,,,,,,,,,,,,,,,,,,,,,,0,0,0,3,1,,,,,,,,,,,,,,,,,,,,,,,,,,,,,,,,,,,,,,,,,,,,,,
685449,001,2022-11-21_02h02.42.385,Info_measure_main_exp,2022.2.2,Win32,57.82686636,,,,,,,,,,,,,,,,,,masks/mask_005.jpg,,,,,,,,,,,,,,,,,,,,,,,,,,,,,,,,,,,,,,,,,,,0,1,1,4,1,,,,,,,,,,,,,,,,,,,,,,,,,,,,,,,,,,,,,,,,,,,,,,
685449,001,2022-11-21_02h02.42.385,Info_measure_main_exp,2022.2.2,Win32,57.82686636,,,,,,,,,,,,,,,,,,masks/mask_002.jpg,,,,,,,,,,,,,,,,,,,,,,,,,,,,,,,,,,,,,,,,,,,0,2,2,1,1,,,,,,,,,,,,,,,,,,,,,,,,,,,,,,,,,,,,,,,,,,,,,,
685449,001,2022-11-21_02h02.42.385,Info_measure_main_exp,2022.2.2,Win32,57.82686636,,,,,,,,,,,,,,,,,,masks/mask_001.jpg,,,,,,,,,,,,,,,,,,,,,,,,,,,,,,,,,,,,,,,,,,,0,3,3,0,1,,,,,,,,,,,,,,,,,,,,,,,,,,,,,,,,,,,,,,,,,,,,,,
685449,001,2022-11-21_02h02.42.385,Info_measure_main_exp,2022.2.2,Win32,57.82686636,,,,,,,,,,,,,,,,,,masks/mask_003.jpg,,,,,,,,,,,,,,,,,,,,,,,,,,,,,,,,,,,,,,,,,,,0,4,4,2,1,,,,,,,,,,,,,,,,,,,,,,,,,,,,,,,,,,,,,,,,,,,,,,
685449,001,2022-11-21_02h02.42.385,Info_measure_main_exp,2022.2.2,Win32,57.82686636,,,,,,,,,,,,,,,,,,masks/mask_004.jpg,,,,,,,,,,,,,,,,,,,,,,,,,,,,,,,,,,,,,,,,,,,,,,,,0,0,0,3,1,,,,,,,,,,,,,,,,,,,,,,,,,,,,,,,,,,,,,,,,,
685449,001,2022-11-21_02h02.42.385,Info_measure_main_exp,2022.2.2,Win32,57.82686636,,,,,,,,,,,,,,,,,,masks/mask_001.jpg,,,,,,,,,,,,,,,,,,,,,,,,,,,,,,,,,,,,,,,,,,,,,,,,0,1,1,0,1,,,,,,,,,,,,,,,,,,,,,,,,,,,,,,,,,,,,,,,,,
685449,001,2022-11-21_02h02.42.385,Info_measure_main_exp,2022.2.2,Win32,57.82686636,,,,,,,,,,,,,,,,,,masks/mask_002.jpg,,,,,,,,,,,,,,,,,,,,,,,,,,,,,,,,,,,,,,,,,,,,,,,,0,2,2,1,1,,,,,,,,,,,,,,,,,,,,,,,,,,,,,,,,,,,,,,,,,
685449,001,2022-11-21_02h02.42.385,Info_measure_main_exp,2022.2.2,Win32,57.82686636,,,,,,,,,,,,,,,,,,masks/mask_005.jpg,,,,,,,,,,,,,,,,,,,,,,,,,,,,,,,,,,,,,,,,,,,,,,,,0,3,3,4,1,,,,,,,,,,,,,,,,,,,,,,,,,,,,,,,,,,,,,,,,,
685449,001,2022-11-21_02h02.42.385,Info_measure_main_exp,2022.2.2,Win32,57.82686636,,,,,,,,,,,,,,,,,,masks/mask_003.jpg,,,,,,,,,,,,,,,,,,,,,,,,,,,,,,,,,,,,,,,,,,,,,,,,0,4,4,2,1,,,,,,,,,,,,,,,,,,,,,,,,,,,,,,,,,,,,,,,,,
685449,001,2022-11-21_02h02.42.385,Info_measure_main_exp,2022.2.2,Win32,57.82686636,,,,,,,,,,,,,,,,,,,,,,,,,,,,,,7,1.5438,1,,,,,,,,,,,,0,131,5,5,2178,1986,absent_patch/patch0002178.jpg,absent_patch/patch0001986.jpg,,,,,,,,,,,,,,,,,,,,0.014322917,0.0703125,1,0,0,response1disk,7,0.002604167,0.002604167,1,0,0,center_square,0,6,6,46,1,,,,,,,,,,,,,,,,,,,,,,,
685449,001,2022-11-21_02h02.42.385,Info_measure_main_exp,2022.2.2,Win32,57.82686636,,,,,,,,,,,,,,,,,,masks/mask_005.jpg,,,,,,,,,,,,,,,,,,,,,,,,,,,,,,,,,,,,,,,,,,,0,0,0,4,1,,,,,,,,,,,,,,,,,,,,,,,,,,,,,,,,,,,,,,,,,,,,,,
685449,001,2022-11-21_02h02.42.385,Info_measure_main_exp,2022.2.2,Win32,57.82686636,,,,,,,,,,,,,,,,,,masks/mask_003.jpg,,,,,,,,,,,,,,,,,,,,,,,,,,,,,,,,,,,,,,,,,,,0,1,1,2,1,,,,,,,,,,,,,,,,,,,,,,,,,,,,,,,,,,,,,,,,,,,,,,
685449,001,2022-11-21_02h02.42.385,Info_measure_main_exp,2022.2.2,Win32,57.82686636,,,,,,,,,,,,,,,,,,masks/mask_002.jpg,,,,,,,,,,,,,,,,,,,,,,,,,,,,,,,,,,,,,,,,,,,0,2,2,1,1,,,,,,,,,,,,,,,,,,,,,,,,,,,,,,,,,,,,,,,,,,,,,,
685449,001,2022-11-21_02h02.42.385,Info_measure_main_exp,2022.2.2,Win32,57.82686636,,,,,,,,,,,,,,,,,,masks/mask_001.jpg,,,,,,,,,,,,,,,,,,,,,,,,,,,,,,,,,,,,,,,,,,,0,3,3,0,1,,,,,,,,,,,,,,,,,,,,,,,,,,,,,,,,,,,,,,,,,,,,,,
685449,001,2022-11-21_02h02.42.385,Info_measure_main_exp,2022.2.2,Win32,57.82686636,,,,,,,,,,,,,,,,,,masks/mask_004.jpg,,,,,,,,,,,,,,,,,,,,,,,,,,,,,,,,,,,,,,,,,,,0,4,4,3,1,,,,,,,,,,,,,,,,,,,,,,,,,,,,,,,,,,,,,,,,,,,,,,
685449,001,2022-11-21_02h02.42.385,Info_measure_main_exp,2022.2.2,Win32,57.82686636,,,,,,,,,,,,,,,,,,masks/mask_002.jpg,,,,,,,,,,,,,,,,,,,,,,,,,,,,,,,,,,,,,,,,,,,,,,,,0,0,0,1,1,,,,,,,,,,,,,,,,,,,,,,,,,,,,,,,,,,,,,,,,,
685449,001,2022-11-21_02h02.42.385,Info_measure_main_exp,2022.2.2,Win32,57.82686636,,,,,,,,,,,,,,,,,,masks/mask_004.jpg,,,,,,,,,,,,,,,,,,,,,,,,,,,,,,,,,,,,,,,,,,,,,,,,0,1,1,3,1,,,,,,,,,,,,,,,,,,,,,,,,,,,,,,,,,,,,,,,,,
685449,001,2022-11-21_02h02.42.385,Info_measure_main_exp,2022.2.2,Win32,57.82686636,,,,,,,,,,,,,,,,,,masks/mask_005.jpg,,,,,,,,,,,,,,,,,,,,,,,,,,,,,,,,,,,,,,,,,,,,,,,,0,2,2,4,1,,,,,,,,,,,,,,,,,,,,,,,,,,,,,,,,,,,,,,,,,
685449,001,2022-11-21_02h02.42.385,Info_measure_main_exp,2022.2.2,Win32,57.82686636,,,,,,,,,,,,,,,,,,masks/mask_003.jpg,,,,,,,,,,,,,,,,,,,,,,,,,,,,,,,,,,,,,,,,,,,,,,,,0,3,3,2,1,,,,,,,,,,,,,,,,,,,,,,,,,,,,,,,,,,,,,,,,,
685449,001,2022-11-21_02h02.42.385,Info_measure_main_exp,2022.2.2,Win32,57.82686636,,,,,,,,,,,,,,,,,,masks/mask_001.jpg,,,,,,,,,,,,,,,,,,,,,,,,,,,,,,,,,,,,,,,,,,,,,,,,0,4,4,0,1,,,,,,,,,,,,,,,,,,,,,,,,,,,,,,,,,,,,,,,,,
685449,001,2022-11-21_02h02.42.385,Info_measure_main_exp,2022.2.2,Win32,57.82686636,,,,,,,,,,,,,,,,,,,,,,,,,,,,,,7,1.752,1,,,,,,,,,,,,0,131,5,5,1986,1950,absent_patch/patch0001986.jpg,absent_patch/patch0001950.jpg,,,,,,,,,,,,,,,,,,,,0.0078125,0.065104167,1,0,0,response1disk,8,-0.002604167,-0.006510417,1,0,0,center_square,0,7,7,15,1,,,,,,,,,,,,,,,,,,,,,,,
685449,001,2022-11-21_02h02.42.385,Info_measure_main_exp,2022.2.2,Win32,57.82686636,,,,,,,,,,,,,,,,,,masks/mask_001.jpg,,,,,,,,,,,,,,,,,,,,,,,,,,,,,,,,,,,,,,,,,,,0,0,0,0,1,,,,,,,,,,,,,,,,,,,,,,,,,,,,,,,,,,,,,,,,,,,,,,
685449,001,2022-11-21_02h02.42.385,Info_measure_main_exp,2022.2.2,Win32,57.82686636,,,,,,,,,,,,,,,,,,masks/mask_004.jpg,,,,,,,,,,,,,,,,,,,,,,,,,,,,,,,,,,,,,,,,,,,0,1,1,3,1,,,,,,,,,,,,,,,,,,,,,,,,,,,,,,,,,,,,,,,,,,,,,,
685449,001,2022-11-21_02h02.42.385,Info_measure_main_exp,2022.2.2,Win32,57.82686636,,,,,,,,,,,,,,,,,,masks/mask_003.jpg,,,,,,,,,,,,,,,,,,,,,,,,,,,,,,,,,,,,,,,,,,,0,2,2,2,1,,,,,,,,,,,,,,,,,,,,,,,,,,,,,,,,,,,,,,,,,,,,,,
685449,001,2022-11-21_02h02.42.385,Info_measure_main_exp,2022.2.2,Win32,57.82686636,,,,,,,,,,,,,,,,,,masks/mask_005.jpg,,,,,,,,,,,,,,,,,,,,,,,,,,,,,,,,,,,,,,,,,,,0,3,3,4,1,,,,,,,,,,,,,,,,,,,,,,,,,,,,,,,,,,,,,,,,,,,,,,
685449,001,2022-11-21_02h02.42.385,Info_measure_main_exp,2022.2.2,Win32,57.82686636,,,,,,,,,,,,,,,,,,masks/mask_002.jpg,,,,,,,,,,,,,,,,,,,,,,,,,,,,,,,,,,,,,,,,,,,0,4,4,1,1,,,,,,,,,,,,,,,,,,,,,,,,,,,,,,,,,,,,,,,,,,,,,,
685449,001,2022-11-21_02h02.42.385,Info_measure_main_exp,2022.2.2,Win32,57.82686636,,,,,,,,,,,,,,,,,,masks/mask_002.jpg,,,,,,,,,,,,,,,,,,,,,,,,,,,,,,,,,,,,,,,,,,,,,,,,0,0,0,1,1,,,,,,,,,,,,,,,,,,,,,,,,,,,,,,,,,,,,,,,,,
685449,001,2022-11-21_02h02.42.385,Info_measure_main_exp,2022.2.2,Win32,57.82686636,,,,,,,,,,,,,,,,,,masks/mask_004.jpg,,,,,,,,,,,,,,,,,,,,,,,,,,,,,,,,,,,,,,,,,,,,,,,,0,1,1,3,1,,,,,,,,,,,,,,,,,,,,,,,,,,,,,,,,,,,,,,,,,
685449,001,2022-11-21_02h02.42.385,Info_measure_main_exp,2022.2.2,Win32,57.82686636,,,,,,,,,,,,,,,,,,masks/mask_005.jpg,,,,,,,,,,,,,,,,,,,,,,,,,,,,,,,,,,,,,,,,,,,,,,,,0,2,2,4,1,,,,,,,,,,,,,,,,,,,,,,,,,,,,,,,,,,,,,,,,,
685449,001,2022-11-21_02h02.42.385,Info_measure_main_exp,2022.2.2,Win32,57.82686636,,,,,,,,,,,,,,,,,,masks/mask_003.jpg,,,,,,,,,,,,,,,,,,,,,,,,,,,,,,,,,,,,,,,,,,,,,,,,0,3,3,2,1,,,,,,,,,,,,,,,,,,,,,,,,,,,,,,,,,,,,,,,,,
685449,001,2022-11-21_02h02.42.385,Info_measure_main_exp,2022.2.2,Win32,57.82686636,,,,,,,,,,,,,,,,,,masks/mask_001.jpg,,,,,,,,,,,,,,,,,,,,,,,,,,,,,,,,,,,,,,,,,,,,,,,,0,4,4,0,1,,,,,,,,,,,,,,,,,,,,,,,,,,,,,,,,,,,,,,,,,
685449,001,2022-11-21_02h02.42.385,Info_measure_main_exp,2022.2.2,Win32,57.82686636,,,,,,,,,,,,,,,,,,,,,,,,,,,,,,7,1.6013,1,,,,,,,,,,,,0,131,5,5,2166,1986,absent_patch/patch0002166.jpg,absent_patch/patch0001986.jpg,,,,,,,,,,,,,,,,,,,,0.044270833,0.09375,1,0,0,response1disk,9,0.002604167,-0.001302083,1,0,0,center_square,0,8,8,47,1,,,,,,,,,,,,,,,,,,,,,,,
685449,001,2022-11-21_02h02.42.385,Info_measure_main_exp,2022.2.2,Win32,57.82686636,,,,,,,,,,,,,,,,,,masks/mask_001.jpg,,,,,,,,,,,,,,,,,,,,,,,,,,,,,,,,,,,,,,,,,,,0,0,0,0,1,,,,,,,,,,,,,,,,,,,,,,,,,,,,,,,,,,,,,,,,,,,,,,
685449,001,2022-11-21_02h02.42.385,Info_measure_main_exp,2022.2.2,Win32,57.82686636,,,,,,,,,,,,,,,,,,masks/mask_005.jpg,,,,,,,,,,,,,,,,,,,,,,,,,,,,,,,,,,,,,,,,,,,0,1,1,4,1,,,,,,,,,,,,,,,,,,,,,,,,,,,,,,,,,,,,,,,,,,,,,,
685449,001,2022-11-21_02h02.42.385,Info_measure_main_exp,2022.2.2,Win32,57.82686636,,,,,,,,,,,,,,,,,,masks/mask_004.jpg,,,,,,,,,,,,,,,,,,,,,,,,,,,,,,,,,,,,,,,,,,,0,2,2,3,1,,,,,,,,,,,,,,,,,,,,,,,,,,,,,,,,,,,,,,,,,,,,,,
685449,001,2022-11-21_02h02.42.385,Info_measure_main_exp,2022.2.2,Win32,57.82686636,,,,,,,,,,,,,,,,,,masks/mask_003.jpg,,,,,,,,,,,,,,,,,,,,,,,,,,,,,,,,,,,,,,,,,,,0,3,3,2,1,,,,,,,,,,,,,,,,,,,,,,,,,,,,,,,,,,,,,,,,,,,,,,
685449,001,2022-11-21_02h02.42.385,Info_measure_main_exp,2022.2.2,Win32,57.82686636,,,,,,,,,,,,,,,,,,masks/mask_002.jpg,,,,,,,,,,,,,,,,,,,,,,,,,,,,,,,,,,,,,,,,,,,0,4,4,1,1,,,,,,,,,,,,,,,,,,,,,,,,,,,,,,,,,,,,,,,,,,,,,,
685449,001,2022-11-21_02h02.42.385,Info_measure_main_exp,2022.2.2,Win32,57.82686636,,,,,,,,,,,,,,,,,,masks/mask_001.jpg,,,,,,,,,,,,,,,,,,,,,,,,,,,,,,,,,,,,,,,,,,,,,,,,0,0,0,0,1,,,,,,,,,,,,,,,,,,,,,,,,,,,,,,,,,,,,,,,,,
685449,001,2022-11-21_02h02.42.385,Info_measure_main_exp,2022.2.2,Win32,57.82686636,,,,,,,,,,,,,,,,,,masks/mask_003.jpg,,,,,,,,,,,,,,,,,,,,,,,,,,,,,,,,,,,,,,,,,,,,,,,,0,1,1,2,1,,,,,,,,,,,,,,,,,,,,,,,,,,,,,,,,,,,,,,,,,
685449,001,2022-11-21_02h02.42.385,Info_measure_main_exp,2022.2.2,Win32,57.82686636,,,,,,,,,,,,,,,,,,masks/mask_002.jpg,,,,,,,,,,,,,,,,,,,,,,,,,,,,,,,,,,,,,,,,,,,,,,,,0,2,2,1,1,,,,,,,,,,,,,,,,,,,,,,,,,,,,,,,,,,,,,,,,,
685449,001,2022-11-21_02h02.42.385,Info_measure_main_exp,2022.2.2,Win32,57.82686636,,,,,,,,,,,,,,,,,,masks/mask_004.jpg,,,,,,,,,,,,,,,,,,,,,,,,,,,,,,,,,,,,,,,,,,,,,,,,0,3,3,3,1,,,,,,,,,,,,,,,,,,,,,,,,,,,,,,,,,,,,,,,,,
685449,001,2022-11-21_02h02.42.385,Info_measure_main_exp,2022.2.2,Win32,57.82686636,,,,,,,,,,,,,,,,,,masks/mask_005.jpg,,,,,,,,,,,,,,,,,,,,,,,,,,,,,,,,,,,,,,,,,,,,,,,,0,4,4,4,1,,,,,,,,,,,,,,,,,,,,,,,,,,,,,,,,,,,,,,,,,
685449,001,2022-11-21_02h02.42.385,Info_measure_main_exp,2022.2.2,Win32,57.82686636,,,,,,,,,,,,,,,,,,,,,,,,,,,,,,5,1.8206,1,,,,,,,,,,,,0,131,5,5,2190,1974,absent_patch/patch0002190.jpg,absent_patch/patch0001974.jpg,,,,,,,,,,,,,,,,,,,,0.052083333,-0.01171875,1,0,0,response3disk,10,-0.00390625,0.002604167,1,0,0,center_square,0,9,9,119,1,,,,,,,,,,,,,,,,,,,,,,,
685449,001,2022-11-21_02h02.42.385,Info_measure_main_exp,2022.2.2,Win32,57.82686636,,,,,,,,,,,,,,,,,,masks/mask_001.jpg,,,,,,,,,,,,,,,,,,,,,,,,,,,,,,,,,,,,,,,,,,,0,0,0,0,1,,,,,,,,,,,,,,,,,,,,,,,,,,,,,,,,,,,,,,,,,,,,,,
685449,001,2022-11-21_02h02.42.385,Info_measure_main_exp,2022.2.2,Win32,57.82686636,,,,,,,,,,,,,,,,,,masks/mask_002.jpg,,,,,,,,,,,,,,,,,,,,,,,,,,,,,,,,,,,,,,,,,,,0,1,1,1,1,,,,,,,,,,,,,,,,,,,,,,,,,,,,,,,,,,,,,,,,,,,,,,
685449,001,2022-11-21_02h02.42.385,Info_measure_main_exp,2022.2.2,Win32,57.82686636,,,,,,,,,,,,,,,,,,masks/mask_004.jpg,,,,,,,,,,,,,,,,,,,,,,,,,,,,,,,,,,,,,,,,,,,0,2,2,3,1,,,,,,,,,,,,,,,,,,,,,,,,,,,,,,,,,,,,,,,,,,,,,,
685449,001,2022-11-21_02h02.42.385,Info_measure_main_exp,2022.2.2,Win32,57.82686636,,,,,,,,,,,,,,,,,,masks/mask_005.jpg,,,,,,,,,,,,,,,,,,,,,,,,,,,,,,,,,,,,,,,,,,,0,3,3,4,1,,,,,,,,,,,,,,,,,,,,,,,,,,,,,,,,,,,,,,,,,,,,,,
685449,001,2022-11-21_02h02.42.385,Info_measure_main_exp,2022.2.2,Win32,57.82686636,,,,,,,,,,,,,,,,,,masks/mask_003.jpg,,,,,,,,,,,,,,,,,,,,,,,,,,,,,,,,,,,,,,,,,,,0,4,4,2,1,,,,,,,,,,,,,,,,,,,,,,,,,,,,,,,,,,,,,,,,,,,,,,
685449,001,2022-11-21_02h02.42.385,Info_measure_main_exp,2022.2.2,Win32,57.82686636,,,,,,,,,,,,,,,,,,masks/mask_002.jpg,,,,,,,,,,,,,,,,,,,,,,,,,,,,,,,,,,,,,,,,,,,,,,,,0,0,0,1,1,,,,,,,,,,,,,,,,,,,,,,,,,,,,,,,,,,,,,,,,,
685449,001,2022-11-21_02h02.42.385,Info_measure_main_exp,2022.2.2,Win32,57.82686636,,,,,,,,,,,,,,,,,,masks/mask_001.jpg,,,,,,,,,,,,,,,,,,,,,,,,,,,,,,,,,,,,,,,,,,,,,,,,0,1,1,0,1,,,,,,,,,,,,,,,,,,,,,,,,,,,,,,,,,,,,,,,,,
685449,001,2022-11-21_02h02.42.385,Info_measure_main_exp,2022.2.2,Win32,57.82686636,,,,,,,,,,,,,,,,,,masks/mask_004.jpg,,,,,,,,,,,,,,,,,,,,,,,,,,,,,,,,,,,,,,,,,,,,,,,,0,2,2,3,1,,,,,,,,,,,,,,,,,,,,,,,,,,,,,,,,,,,,,,,,,
685449,001,2022-11-21_02h02.42.385,Info_measure_main_exp,2022.2.2,Win32,57.82686636,,,,,,,,,,,,,,,,,,masks/mask_003.jpg,,,,,,,,,,,,,,,,,,,,,,,,,,,,,,,,,,,,,,,,,,,,,,,,0,3,3,2,1,,,,,,,,,,,,,,,,,,,,,,,,,,,,,,,,,,,,,,,,,
685449,001,2022-11-21_02h02.42.385,Info_measure_main_exp,2022.2.2,Win32,57.82686636,,,,,,,,,,,,,,,,,,masks/mask_005.jpg,,,,,,,,,,,,,,,,,,,,,,,,,,,,,,,,,,,,,,,,,,,,,,,,0,4,4,4,1,,,,,,,,,,,,,,,,,,,,,,,,,,,,,,,,,,,,,,,,,
685449,001,2022-11-21_02h02.42.385,Info_measure_main_exp,2022.2.2,Win32,57.82686636,,,,,,,,,,,,,,,,,,,,,,,,,,,,,,3,2.4301,1,,,,,,,,,,,,0,131,5,5,2082,2298,absent_patch/patch0002082.jpg,absent_patch/patch0002298.jpg,,,,,,,,,,,,,,,,,,,,-0.048177083,-0.088541667,1,0,0,response5disk,11,0,0.001302083,1,0,0,center_square,0,10,10,107,1,,,,,,,,,,,,,,,,,,,,,,,
685449,001,2022-11-21_02h02.42.385,Info_measure_main_exp,2022.2.2,Win32,57.82686636,,,,,,,,,,,,,,,,,,masks/mask_002.jpg,,,,,,,,,,,,,,,,,,,,,,,,,,,,,,,,,,,,,,,,,,,0,0,0,1,1,,,,,,,,,,,,,,,,,,,,,,,,,,,,,,,,,,,,,,,,,,,,,,
685449,001,2022-11-21_02h02.42.385,Info_measure_main_exp,2022.2.2,Win32,57.82686636,,,,,,,,,,,,,,,,,,masks/mask_003.jpg,,,,,,,,,,,,,,,,,,,,,,,,,,,,,,,,,,,,,,,,,,,0,1,1,2,1,,,,,,,,,,,,,,,,,,,,,,,,,,,,,,,,,,,,,,,,,,,,,,
685449,001,2022-11-21_02h02.42.385,Info_measure_main_exp,2022.2.2,Win32,57.82686636,,,,,,,,,,,,,,,,,,masks/mask_005.jpg,,,,,,,,,,,,,,,,,,,,,,,,,,,,,,,,,,,,,,,,,,,0,2,2,4,1,,,,,,,,,,,,,,,,,,,,,,,,,,,,,,,,,,,,,,,,,,,,,,
685449,001,2022-11-21_02h02.42.385,Info_measure_main_exp,2022.2.2,Win32,57.82686636,,,,,,,,,,,,,,,,,,masks/mask_001.jpg,,,,,,,,,,,,,,,,,,,,,,,,,,,,,,,,,,,,,,,,,,,0,3,3,0,1,,,,,,,,,,,,,,,,,,,,,,,,,,,,,,,,,,,,,,,,,,,,,,
685449,001,2022-11-21_02h02.42.385,Info_measure_main_exp,2022.2.2,Win32,57.82686636,,,,,,,,,,,,,,,,,,masks/mask_004.jpg,,,,,,,,,,,,,,,,,,,,,,,,,,,,,,,,,,,,,,,,,,,0,4,4,3,1,,,,,,,,,,,,,,,,,,,,,,,,,,,,,,,,,,,,,,,,,,,,,,
685449,001,2022-11-21_02h02.42.385,Info_measure_main_exp,2022.2.2,Win32,57.82686636,,,,,,,,,,,,,,,,,,masks/mask_004.jpg,,,,,,,,,,,,,,,,,,,,,,,,,,,,,,,,,,,,,,,,,,,,,,,,0,0,0,3,1,,,,,,,,,,,,,,,,,,,,,,,,,,,,,,,,,,,,,,,,,
685449,001,2022-11-21_02h02.42.385,Info_measure_main_exp,2022.2.2,Win32,57.82686636,,,,,,,,,,,,,,,,,,masks/mask_003.jpg,,,,,,,,,,,,,,,,,,,,,,,,,,,,,,,,,,,,,,,,,,,,,,,,0,1,1,2,1,,,,,,,,,,,,,,,,,,,,,,,,,,,,,,,,,,,,,,,,,
685449,001,2022-11-21_02h02.42.385,Info_measure_main_exp,2022.2.2,Win32,57.82686636,,,,,,,,,,,,,,,,,,masks/mask_005.jpg,,,,,,,,,,,,,,,,,,,,,,,,,,,,,,,,,,,,,,,,,,,,,,,,0,2,2,4,1,,,,,,,,,,,,,,,,,,,,,,,,,,,,,,,,,,,,,,,,,
685449,001,2022-11-21_02h02.42.385,Info_measure_main_exp,2022.2.2,Win32,57.82686636,,,,,,,,,,,,,,,,,,masks/mask_002.jpg,,,,,,,,,,,,,,,,,,,,,,,,,,,,,,,,,,,,,,,,,,,,,,,,0,3,3,1,1,,,,,,,,,,,,,,,,,,,,,,,,,,,,,,,,,,,,,,,,,
685449,001,2022-11-21_02h02.42.385,Info_measure_main_exp,2022.2.2,Win32,57.82686636,,,,,,,,,,,,,,,,,,masks/mask_001.jpg,,,,,,,,,,,,,,,,,,,,,,,,,,,,,,,,,,,,,,,,,,,,,,,,0,4,4,0,1,,,,,,,,,,,,,,,,,,,,,,,,,,,,,,,,,,,,,,,,,
685449,001,2022-11-21_02h02.42.385,Info_measure_main_exp,2022.2.2,Win32,57.82686636,,,,,,,,,,,,,,,,,,,,,,,,,,,,,,4,1.6551,1,,,,,,,,,,,,0,131,5,5,2178,2154,absent_patch/patch0002178.jpg,absent_patch/patch0002154.jpg,,,,,,,,,,,,,,,,,,,,0.024739583,-0.057291667,1,0,0,response3disk,12,0.002604167,-0.005208333,1,0,0,center_square,0,11,11,63,1,,,,,,,,,,,,,,,,,,,,,,,
685449,001,2022-11-21_02h02.42.385,Info_measure_main_exp,2022.2.2,Win32,57.82686636,,,,,,,,,,,,,,,,,,masks/mask_005.jpg,,,,,,,,,,,,,,,,,,,,,,,,,,,,,,,,,,,,,,,,,,,0,0,0,4,1,,,,,,,,,,,,,,,,,,,,,,,,,,,,,,,,,,,,,,,,,,,,,,
685449,001,2022-11-21_02h02.42.385,Info_measure_main_exp,2022.2.2,Win32,57.82686636,,,,,,,,,,,,,,,,,,masks/mask_003.jpg,,,,,,,,,,,,,,,,,,,,,,,,,,,,,,,,,,,,,,,,,,,0,1,1,2,1,,,,,,,,,,,,,,,,,,,,,,,,,,,,,,,,,,,,,,,,,,,,,,
685449,001,2022-11-21_02h02.42.385,Info_measure_main_exp,2022.2.2,Win32,57.82686636,,,,,,,,,,,,,,,,,,masks/mask_004.jpg,,,,,,,,,,,,,,,,,,,,,,,,,,,,,,,,,,,,,,,,,,,0,2,2,3,1,,,,,,,,,,,,,,,,,,,,,,,,,,,,,,,,,,,,,,,,,,,,,,
685449,001,2022-11-21_02h02.42.385,Info_measure_main_exp,2022.2.2,Win32,57.82686636,,,,,,,,,,,,,,,,,,masks/mask_002.jpg,,,,,,,,,,,,,,,,,,,,,,,,,,,,,,,,,,,,,,,,,,,0,3,3,1,1,,,,,,,,,,,,,,,,,,,,,,,,,,,,,,,,,,,,,,,,,,,,,,
685449,001,2022-11-21_02h02.42.385,Info_measure_main_exp,2022.2.2,Win32,57.82686636,,,,,,,,,,,,,,,,,,masks/mask_001.jpg,,,,,,,,,,,,,,,,,,,,,,,,,,,,,,,,,,,,,,,,,,,0,4,4,0,1,,,,,,,,,,,,,,,,,,,,,,,,,,,,,,,,,,,,,,,,,,,,,,
685449,001,2022-11-21_02h02.42.385,Info_measure_main_exp,2022.2.2,Win32,57.82686636,,,,,,,,,,,,,,,,,,masks/mask_001.jpg,,,,,,,,,,,,,,,,,,,,,,,,,,,,,,,,,,,,,,,,,,,,,,,,0,0,0,0,1,,,,,,,,,,,,,,,,,,,,,,,,,,,,,,,,,,,,,,,,,
685449,001,2022-11-21_02h02.42.385,Info_measure_main_exp,2022.2.2,Win32,57.82686636,,,,,,,,,,,,,,,,,,masks/mask_002.jpg,,,,,,,,,,,,,,,,,,,,,,,,,,,,,,,,,,,,,,,,,,,,,,,,0,1,1,1,1,,,,,,,,,,,,,,,,,,,,,,,,,,,,,,,,,,,,,,,,,
685449,001,2022-11-21_02h02.42.385,Info_measure_main_exp,2022.2.2,Win32,57.82686636,,,,,,,,,,,,,,,,,,masks/mask_005.jpg,,,,,,,,,,,,,,,,,,,,,,,,,,,,,,,,,,,,,,,,,,,,,,,,0,2,2,4,1,,,,,,,,,,,,,,,,,,,,,,,,,,,,,,,,,,,,,,,,,
685449,001,2022-11-21_02h02.42.385,Info_measure_main_exp,2022.2.2,Win32,57.82686636,,,,,,,,,,,,,,,,,,masks/mask_003.jpg,,,,,,,,,,,,,,,,,,,,,,,,,,,,,,,,,,,,,,,,,,,,,,,,0,3,3,2,1,,,,,,,,,,,,,,,,,,,,,,,,,,,,,,,,,,,,,,,,,
685449,001,2022-11-21_02h02.42.385,Info_measure_main_exp,2022.2.2,Win32,57.82686636,,,,,,,,,,,,,,,,,,masks/mask_004.jpg,,,,,,,,,,,,,,,,,,,,,,,,,,,,,,,,,,,,,,,,,,,,,,,,0,4,4,3,1,,,,,,,,,,,,,,,,,,,,,,,,,,,,,,,,,,,,,,,,,
685449,001,2022-11-21_02h02.42.385,Info_measure_main_exp,2022.2.2,Win32,57.82686636,,,,,,,,,,,,,,,,,,,,,,,,,,,,,,4,2.7276,1,,,,,,,,,,,,0,131,5,5,1974,1950,absent_patch/patch0001974.jpg,absent_patch/patch0001950.jpg,,,,,,,,,,,,,,,,,,,,0.024739583,-0.040364583,1,0,0,response3disk,13,-0.009114583,-0.005208333,1,0,0,center_square,0,12,12,17,1,,,,,,,,,,,,,,,,,,,,,,,
685449,001,2022-11-21_02h02.42.385,Info_measure_main_exp,2022.2.2,Win32,57.82686636,,,,,,,,,,,,,,,,,,masks/mask_005.jpg,,,,,,,,,,,,,,,,,,,,,,,,,,,,,,,,,,,,,,,,,,,0,0,0,4,1,,,,,,,,,,,,,,,,,,,,,,,,,,,,,,,,,,,,,,,,,,,,,,
685449,001,2022-11-21_02h02.42.385,Info_measure_main_exp,2022.2.2,Win32,57.82686636,,,,,,,,,,,,,,,,,,masks/mask_001.jpg,,,,,,,,,,,,,,,,,,,,,,,,,,,,,,,,,,,,,,,,,,,0,1,1,0,1,,,,,,,,,,,,,,,,,,,,,,,,,,,,,,,,,,,,,,,,,,,,,,
685449,001,2022-11-21_02h02.42.385,Info_measure_main_exp,2022.2.2,Win32,57.82686636,,,,,,,,,,,,,,,,,,masks/mask_002.jpg,,,,,,,,,,,,,,,,,,,,,,,,,,,,,,,,,,,,,,,,,,,0,2,2,1,1,,,,,,,,,,,,,,,,,,,,,,,,,,,,,,,,,,,,,,,,,,,,,,
685449,001,2022-11-21_02h02.42.385,Info_measure_main_exp,2022.2.2,Win32,57.82686636,,,,,,,,,,,,,,,,,,masks/mask_004.jpg,,,,,,,,,,,,,,,,,,,,,,,,,,,,,,,,,,,,,,,,,,,0,3,3,3,1,,,,,,,,,,,,,,,,,,,,,,,,,,,,,,,,,,,,,,,,,,,,,,
685449,001,2022-11-21_02h02.42.385,Info_measure_main_exp,2022.2.2,Win32,57.82686636,,,,,,,,,,,,,,,,,,masks/mask_003.jpg,,,,,,,,,,,,,,,,,,,,,,,,,,,,,,,,,,,,,,,,,,,0,4,4,2,1,,,,,,,,,,,,,,,,,,,,,,,,,,,,,,,,,,,,,,,,,,,,,,
685449,001,2022-11-21_02h02.42.385,Info_measure_main_exp,2022.2.2,Win32,57.82686636,,,,,,,,,,,,,,,,,,masks/mask_003.jpg,,,,,,,,,,,,,,,,,,,,,,,,,,,,,,,,,,,,,,,,,,,,,,,,0,0,0,2,1,,,,,,,,,,,,,,,,,,,,,,,,,,,,,,,,,,,,,,,,,
685449,001,2022-11-21_02h02.42.385,Info_measure_main_exp,2022.2.2,Win32,57.82686636,,,,,,,,,,,,,,,,,,masks/mask_001.jpg,,,,,,,,,,,,,,,,,,,,,,,,,,,,,,,,,,,,,,,,,,,,,,,,0,1,1,0,1,,,,,,,,,,,,,,,,,,,,,,,,,,,,,,,,,,,,,,,,,
685449,001,2022-11-21_02h02.42.385,Info_measure_main_exp,2022.2.2,Win32,57.82686636,,,,,,,,,,,,,,,,,,masks/mask_004.jpg,,,,,,,,,,,,,,,,,,,,,,,,,,,,,,,,,,,,,,,,,,,,,,,,0,2,2,3,1,,,,,,,,,,,,,,,,,,,,,,,,,,,,,,,,,,,,,,,,,
685449,001,2022-11-21_02h02.42.385,Info_measure_main_exp,2022.2.2,Win32,57.82686636,,,,,,,,,,,,,,,,,,masks/mask_005.jpg,,,,,,,,,,,,,,,,,,,,,,,,,,,,,,,,,,,,,,,,,,,,,,,,0,3,3,4,1,,,,,,,,,,,,,,,,,,,,,,,,,,,,,,,,,,,,,,,,,
685449,001,2022-11-21_02h02.42.385,Info_measure_main_exp,2022.2.2,Win32,57.82686636,,,,,,,,,,,,,,,,,,masks/mask_002.jpg,,,,,,,,,,,,,,,,,,,,,,,,,,,,,,,,,,,,,,,,,,,,,,,,0,4,4,1,1,,,,,,,,,,,,,,,,,,,,,,,,,,,,,,,,,,,,,,,,,
685449,001,2022-11-21_02h02.42.385,Info_measure_main_exp,2022.2.2,Win32,57.82686636,,,,,,,,,,,,,,,,,,,,,,,,,,,,,,0,1.9641,1,,,,,,,,,,,,0,131,5,5,2082,1974,absent_patch/patch0002082.jpg,absent_patch/patch0001974.jpg,,,,,,,,,,,,,,,,,,,,-0.0390625,0.09375,1,0,0,response7disk,14,0.001302083,-0.00390625,1,0,0,center_square,0,13,13,26,1,,,,,,,,,,,,,,,,,,,,,,,
685449,001,2022-11-21_02h02.42.385,Info_measure_main_exp,2022.2.2,Win32,57.82686636,,,,,,,,,,,,,,,,,,masks/mask_005.jpg,,,,,,,,,,,,,,,,,,,,,,,,,,,,,,,,,,,,,,,,,,,0,0,0,4,1,,,,,,,,,,,,,,,,,,,,,,,,,,,,,,,,,,,,,,,,,,,,,,
685449,001,2022-11-21_02h02.42.385,Info_measure_main_exp,2022.2.2,Win32,57.82686636,,,,,,,,,,,,,,,,,,masks/mask_004.jpg,,,,,,,,,,,,,,,,,,,,,,,,,,,,,,,,,,,,,,,,,,,0,1,1,3,1,,,,,,,,,,,,,,,,,,,,,,,,,,,,,,,,,,,,,,,,,,,,,,
685449,001,2022-11-21_02h02.42.385,Info_measure_main_exp,2022.2.2,Win32,57.82686636,,,,,,,,,,,,,,,,,,masks/mask_001.jpg,,,,,,,,,,,,,,,,,,,,,,,,,,,,,,,,,,,,,,,,,,,0,2,2,0,1,,,,,,,,,,,,,,,,,,,,,,,,,,,,,,,,,,,,,,,,,,,,,,
685449,001,2022-11-21_02h02.42.385,Info_measure_main_exp,2022.2.2,Win32,57.82686636,,,,,,,,,,,,,,,,,,masks/mask_003.jpg,,,,,,,,,,,,,,,,,,,,,,,,,,,,,,,,,,,,,,,,,,,0,3,3,2,1,,,,,,,,,,,,,,,,,,,,,,,,,,,,,,,,,,,,,,,,,,,,,,
685449,001,2022-11-21_02h02.42.385,Info_measure_main_exp,2022.2.2,Win32,57.82686636,,,,,,,,,,,,,,,,,,masks/mask_002.jpg,,,,,,,,,,,,,,,,,,,,,,,,,,,,,,,,,,,,,,,,,,,0,4,4,1,1,,,,,,,,,,,,,,,,,,,,,,,,,,,,,,,,,,,,,,,,,,,,,,
685449,001,2022-11-21_02h02.42.385,Info_measure_main_exp,2022.2.2,Win32,57.82686636,,,,,,,,,,,,,,,,,,masks/mask_004.jpg,,,,,,,,,,,,,,,,,,,,,,,,,,,,,,,,,,,,,,,,,,,,,,,,0,0,0,3,1,,,,,,,,,,,,,,,,,,,,,,,,,,,,,,,,,,,,,,,,,
685449,001,2022-11-21_02h02.42.385,Info_measure_main_exp,2022.2.2,Win32,57.82686636,,,,,,,,,,,,,,,,,,masks/mask_005.jpg,,,,,,,,,,,,,,,,,,,,,,,,,,,,,,,,,,,,,,,,,,,,,,,,0,1,1,4,1,,,,,,,,,,,,,,,,,,,,,,,,,,,,,,,,,,,,,,,,,
685449,001,2022-11-21_02h02.42.385,Info_measure_main_exp,2022.2.2,Win32,57.82686636,,,,,,,,,,,,,,,,,,masks/mask_001.jpg,,,,,,,,,,,,,,,,,,,,,,,,,,,,,,,,,,,,,,,,,,,,,,,,0,2,2,0,1,,,,,,,,,,,,,,,,,,,,,,,,,,,,,,,,,,,,,,,,,
685449,001,2022-11-21_02h02.42.385,Info_measure_main_exp,2022.2.2,Win32,57.82686636,,,,,,,,,,,,,,,,,,masks/mask_003.jpg,,,,,,,,,,,,,,,,,,,,,,,,,,,,,,,,,,,,,,,,,,,,,,,,0,3,3,2,1,,,,,,,,,,,,,,,,,,,,,,,,,,,,,,,,,,,,,,,,,
685449,001,2022-11-21_02h02.42.385,Info_measure_main_exp,2022.2.2,Win32,57.82686636,,,,,,,,,,,,,,,,,,masks/mask_002.jpg,,,,,,,,,,,,,,,,,,,,,,,,,,,,,,,,,,,,,,,,,,,,,,,,0,4,4,1,1,,,,,,,,,,,,,,,,,,,,,,,,,,,,,,,,,,,,,,,,,
685449,001,2022-11-21_02h02.42.385,Info_measure_main_exp,2022.2.2,Win32,57.82686636,,,,,,,,,,,,,,,,,,,,,,,,,,,,,,4,1.8801,1,,,,,,,,,,,,0,131,5,5,1950,2082,absent_patch/patch0001950.jpg,absent_patch/patch0002082.jpg,,,,,,,,,,,,,,,,,,,,0.014322917,-0.046875,1,0,0,response3disk,15,-0.002604167,0.001302083,1,0,0,center_square,0,14,14,12,1,,,,,,,,,,,,,,,,,,,,,,,
685449,001,2022-11-21_02h02.42.385,Info_measure_main_exp,2022.2.2,Win32,57.82686636,,,,,,,,,,,,,,,,,,masks/mask_002.jpg,,,,,,,,,,,,,,,,,,,,,,,,,,,,,,,,,,,,,,,,,,,0,0,0,1,1,,,,,,,,,,,,,,,,,,,,,,,,,,,,,,,,,,,,,,,,,,,,,,
685449,001,2022-11-21_02h02.42.385,Info_measure_main_exp,2022.2.2,Win32,57.82686636,,,,,,,,,,,,,,,,,,masks/mask_005.jpg,,,,,,,,,,,,,,,,,,,,,,,,,,,,,,,,,,,,,,,,,,,0,1,1,4,1,,,,,,,,,,,,,,,,,,,,,,,,,,,,,,,,,,,,,,,,,,,,,,
685449,001,2022-11-21_02h02.42.385,Info_measure_main_exp,2022.2.2,Win32,57.82686636,,,,,,,,,,,,,,,,,,masks/mask_004.jpg,,,,,,,,,,,,,,,,,,,,,,,,,,,,,,,,,,,,,,,,,,,0,2,2,3,1,,,,,,,,,,,,,,,,,,,,,,,,,,,,,,,,,,,,,,,,,,,,,,
685449,001,2022-11-21_02h02.42.385,Info_measure_main_exp,2022.2.2,Win32,57.82686636,,,,,,,,,,,,,,,,,,masks/mask_001.jpg,,,,,,,,,,,,,,,,,,,,,,,,,,,,,,,,,,,,,,,,,,,0,3,3,0,1,,,,,,,,,,,,,,,,,,,,,,,,,,,,,,,,,,,,,,,,,,,,,,
685449,001,2022-11-21_02h02.42.385,Info_measure_main_exp,2022.2.2,Win32,57.82686636,,,,,,,,,,,,,,,,,,masks/mask_003.jpg,,,,,,,,,,,,,,,,,,,,,,,,,,,,,,,,,,,,,,,,,,,0,4,4,2,1,,,,,,,,,,,,,,,,,,,,,,,,,,,,,,,,,,,,,,,,,,,,,,
685449,001,2022-11-21_02h02.42.385,Info_measure_main_exp,2022.2.2,Win32,57.82686636,,,,,,,,,,,,,,,,,,masks/mask_002.jpg,,,,,,,,,,,,,,,,,,,,,,,,,,,,,,,,,,,,,,,,,,,,,,,,0,0,0,1,1,,,,,,,,,,,,,,,,,,,,,,,,,,,,,,,,,,,,,,,,,
685449,001,2022-11-21_02h02.42.385,Info_measure_main_exp,2022.2.2,Win32,57.82686636,,,,,,,,,,,,,,,,,,masks/mask_003.jpg,,,,,,,,,,,,,,,,,,,,,,,,,,,,,,,,,,,,,,,,,,,,,,,,0,1,1,2,1,,,,,,,,,,,,,,,,,,,,,,,,,,,,,,,,,,,,,,,,,
685449,001,2022-11-21_02h02.42.385,Info_measure_main_exp,2022.2.2,Win32,57.82686636,,,,,,,,,,,,,,,,,,masks/mask_001.jpg,,,,,,,,,,,,,,,,,,,,,,,,,,,,,,,,,,,,,,,,,,,,,,,,0,2,2,0,1,,,,,,,,,,,,,,,,,,,,,,,,,,,,,,,,,,,,,,,,,
685449,001,2022-11-21_02h02.42.385,Info_measure_main_exp,2022.2.2,Win32,57.82686636,,,,,,,,,,,,,,,,,,masks/mask_005.jpg,,,,,,,,,,,,,,,,,,,,,,,,,,,,,,,,,,,,,,,,,,,,,,,,0,3,3,4,1,,,,,,,,,,,,,,,,,,,,,,,,,,,,,,,,,,,,,,,,,
685449,001,2022-11-21_02h02.42.385,Info_measure_main_exp,2022.2.2,Win32,57.82686636,,,,,,,,,,,,,,,,,,masks/mask_004.jpg,,,,,,,,,,,,,,,,,,,,,,,,,,,,,,,,,,,,,,,,,,,,,,,,0,4,4,3,1,,,,,,,,,,,,,,,,,,,,,,,,,,,,,,,,,,,,,,,,,
685449,001,2022-11-21_02h02.42.385,Info_measure_main_exp,2022.2.2,Win32,57.82686636,,,,,,,,,,,,,,,,,,,,,,,,,,,,,,7,1.4986,1,,,,,,,,,,,,0,131,5,5,2238,2214,absent_patch/patch0002238.jpg,absent_patch/patch0002214.jpg,,,,,,,,,,,,,,,,,,,,0.033854167,0.104166667,1,0,0,response1disk,16,0.001302083,0.005208333,1,0,0,center_square,0,15,15,81,1,,,,,,,,,,,,,,,,,,,,,,,
685449,001,2022-11-21_02h02.42.385,Info_measure_main_exp,2022.2.2,Win32,57.82686636,,,,,,,,,,,,,,,,,,masks/mask_002.jpg,,,,,,,,,,,,,,,,,,,,,,,,,,,,,,,,,,,,,,,,,,,0,0,0,1,1,,,,,,,,,,,,,,,,,,,,,,,,,,,,,,,,,,,,,,,,,,,,,,
685449,001,2022-11-21_02h02.42.385,Info_measure_main_exp,2022.2.2,Win32,57.82686636,,,,,,,,,,,,,,,,,,masks/mask_005.jpg,,,,,,,,,,,,,,,,,,,,,,,,,,,,,,,,,,,,,,,,,,,0,1,1,4,1,,,,,,,,,,,,,,,,,,,,,,,,,,,,,,,,,,,,,,,,,,,,,,
685449,001,2022-11-21_02h02.42.385,Info_measure_main_exp,2022.2.2,Win32,57.82686636,,,,,,,,,,,,,,,,,,masks/mask_001.jpg,,,,,,,,,,,,,,,,,,,,,,,,,,,,,,,,,,,,,,,,,,,0,2,2,0,1,,,,,,,,,,,,,,,,,,,,,,,,,,,,,,,,,,,,,,,,,,,,,,
685449,001,2022-11-21_02h02.42.385,Info_measure_main_exp,2022.2.2,Win32,57.82686636,,,,,,,,,,,,,,,,,,masks/mask_003.jpg,,,,,,,,,,,,,,,,,,,,,,,,,,,,,,,,,,,,,,,,,,,0,3,3,2,1,,,,,,,,,,,,,,,,,,,,,,,,,,,,,,,,,,,,,,,,,,,,,,
685449,001,2022-11-21_02h02.42.385,Info_measure_main_exp,2022.2.2,Win32,57.82686636,,,,,,,,,,,,,,,,,,masks/mask_004.jpg,,,,,,,,,,,,,,,,,,,,,,,,,,,,,,,,,,,,,,,,,,,0,4,4,3,1,,,,,,,,,,,,,,,,,,,,,,,,,,,,,,,,,,,,,,,,,,,,,,
685449,001,2022-11-21_02h02.42.385,Info_measure_main_exp,2022.2.2,Win32,57.82686636,,,,,,,,,,,,,,,,,,masks/mask_002.jpg,,,,,,,,,,,,,,,,,,,,,,,,,,,,,,,,,,,,,,,,,,,,,,,,0,0,0,1,1,,,,,,,,,,,,,,,,,,,,,,,,,,,,,,,,,,,,,,,,,
685449,001,2022-11-21_02h02.42.385,Info_measure_main_exp,2022.2.2,Win32,57.82686636,,,,,,,,,,,,,,,,,,masks/mask_001.jpg,,,,,,,,,,,,,,,,,,,,,,,,,,,,,,,,,,,,,,,,,,,,,,,,0,1,1,0,1,,,,,,,,,,,,,,,,,,,,,,,,,,,,,,,,,,,,,,,,,
685449,001,2022-11-21_02h02.42.385,Info_measure_main_exp,2022.2.2,Win32,57.82686636,,,,,,,,,,,,,,,,,,masks/mask_005.jpg,,,,,,,,,,,,,,,,,,,,,,,,,,,,,,,,,,,,,,,,,,,,,,,,0,2,2,4,1,,,,,,,,,,,,,,,,,,,,,,,,,,,,,,,,,,,,,,,,,
685449,001,2022-11-21_02h02.42.385,Info_measure_main_exp,2022.2.2,Win32,57.82686636,,,,,,,,,,,,,,,,,,masks/mask_004.jpg,,,,,,,,,,,,,,,,,,,,,,,,,,,,,,,,,,,,,,,,,,,,,,,,0,3,3,3,1,,,,,,,,,,,,,,,,,,,,,,,,,,,,,,,,,,,,,,,,,
685449,001,2022-11-21_02h02.42.385,Info_measure_main_exp,2022.2.2,Win32,57.82686636,,,,,,,,,,,,,,,,,,masks/mask_003.jpg,,,,,,,,,,,,,,,,,,,,,,,,,,,,,,,,,,,,,,,,,,,,,,,,0,4,4,2,1,,,,,,,,,,,,,,,,,,,,,,,,,,,,,,,,,,,,,,,,,
685449,001,2022-11-21_02h02.42.385,Info_measure_main_exp,2022.2.2,Win32,57.82686636,,,,,,,,,,,,,,,,,,,,,,,,,,,,,,0,1.5604,1,,,,,,,,,,,,0,131,5,5,2274,2142,absent_patch/patch0002274.jpg,absent_patch/patch0002142.jpg,,,,,,,,,,,,,,,,,,,,-0.0390625,0.096354167,1,0,0,response7disk,17,-0.002604167,-0.005208333,1,0,0,center_square,0,16,16,75,1,,,,,,,,,,,,,,,,,,,,,,,
685449,001,2022-11-21_02h02.42.385,Info_measure_main_exp,2022.2.2,Win32,57.82686636,,,,,,,,,,,,,,,,,,masks/mask_001.jpg,,,,,,,,,,,,,,,,,,,,,,,,,,,,,,,,,,,,,,,,,,,0,0,0,0,1,,,,,,,,,,,,,,,,,,,,,,,,,,,,,,,,,,,,,,,,,,,,,,
685449,001,2022-11-21_02h02.42.385,Info_measure_main_exp,2022.2.2,Win32,57.82686636,,,,,,,,,,,,,,,,,,masks/mask_005.jpg,,,,,,,,,,,,,,,,,,,,,,,,,,,,,,,,,,,,,,,,,,,0,1,1,4,1,,,,,,,,,,,,,,,,,,,,,,,,,,,,,,,,,,,,,,,,,,,,,,
685449,001,2022-11-21_02h02.42.385,Info_measure_main_exp,2022.2.2,Win32,57.82686636,,,,,,,,,,,,,,,,,,masks/mask_003.jpg,,,,,,,,,,,,,,,,,,,,,,,,,,,,,,,,,,,,,,,,,,,0,2,2,2,1,,,,,,,,,,,,,,,,,,,,,,,,,,,,,,,,,,,,,,,,,,,,,,
685449,001,2022-11-21_02h02.42.385,Info_measure_main_exp,2022.2.2,Win32,57.82686636,,,,,,,,,,,,,,,,,,masks/mask_002.jpg,,,,,,,,,,,,,,,,,,,,,,,,,,,,,,,,,,,,,,,,,,,0,3,3,1,1,,,,,,,,,,,,,,,,,,,,,,,,,,,,,,,,,,,,,,,,,,,,,,
685449,001,2022-11-21_02h02.42.385,Info_measure_main_exp,2022.2.2,Win32,57.82686636,,,,,,,,,,,,,,,,,,masks/mask_004.jpg,,,,,,,,,,,,,,,,,,,,,,,,,,,,,,,,,,,,,,,,,,,0,4,4,3,1,,,,,,,,,,,,,,,,,,,,,,,,,,,,,,,,,,,,,,,,,,,,,,
685449,001,2022-11-21_02h02.42.385,Info_measure_main_exp,2022.2.2,Win32,57.82686636,,,,,,,,,,,,,,,,,,masks/mask_001.jpg,,,,,,,,,,,,,,,,,,,,,,,,,,,,,,,,,,,,,,,,,,,,,,,,0,0,0,0,1,,,,,,,,,,,,,,,,,,,,,,,,,,,,,,,,,,,,,,,,,
685449,001,2022-11-21_02h02.42.385,Info_measure_main_exp,2022.2.2,Win32,57.82686636,,,,,,,,,,,,,,,,,,masks/mask_004.jpg,,,,,,,,,,,,,,,,,,,,,,,,,,,,,,,,,,,,,,,,,,,,,,,,0,1,1,3,1,,,,,,,,,,,,,,,,,,,,,,,,,,,,,,,,,,,,,,,,,
685449,001,2022-11-21_02h02.42.385,Info_measure_main_exp,2022.2.2,Win32,57.82686636,,,,,,,,,,,,,,,,,,masks/mask_005.jpg,,,,,,,,,,,,,,,,,,,,,,,,,,,,,,,,,,,,,,,,,,,,,,,,0,2,2,4,1,,,,,,,,,,,,,,,,,,,,,,,,,,,,,,,,,,,,,,,,,
685449,001,2022-11-21_02h02.42.385,Info_measure_main_exp,2022.2.2,Win32,57.82686636,,,,,,,,,,,,,,,,,,masks/mask_003.jpg,,,,,,,,,,,,,,,,,,,,,,,,,,,,,,,,,,,,,,,,,,,,,,,,0,3,3,2,1,,,,,,,,,,,,,,,,,,,,,,,,,,,,,,,,,,,,,,,,,
685449,001,2022-11-21_02h02.42.385,Info_measure_main_exp,2022.2.2,Win32,57.82686636,,,,,,,,,,,,,,,,,,masks/mask_002.jpg,,,,,,,,,,,,,,,,,,,,,,,,,,,,,,,,,,,,,,,,,,,,,,,,0,4,4,1,1,,,,,,,,,,,,,,,,,,,,,,,,,,,,,,,,,,,,,,,,,
685449,001,2022-11-21_02h02.42.385,Info_measure_main_exp,2022.2.2,Win32,57.82686636,,,,,,,,,,,,,,,,,,,,,,,,,,,,,,0,1.5646,1,,,,,,,,,,,,0,131,5,5,2274,2250,absent_patch/patch0002274.jpg,absent_patch/patch0002250.jpg,,,,,,,,,,,,,,,,,,,,-0.020833333,0.07421875,1,0,0,response7disk,18,-0.005208333,-0.001302083,1,0,0,center_square,0,17,17,28,1,,,,,,,,,,,,,,,,,,,,,,,
685449,001,2022-11-21_02h02.42.385,Info_measure_main_exp,2022.2.2,Win32,57.82686636,,,,,,,,,,,,,,,,,,masks/mask_005.jpg,,,,,,,,,,,,,,,,,,,,,,,,,,,,,,,,,,,,,,,,,,,0,0,0,4,1,,,,,,,,,,,,,,,,,,,,,,,,,,,,,,,,,,,,,,,,,,,,,,
685449,001,2022-11-21_02h02.42.385,Info_measure_main_exp,2022.2.2,Win32,57.82686636,,,,,,,,,,,,,,,,,,masks/mask_003.jpg,,,,,,,,,,,,,,,,,,,,,,,,,,,,,,,,,,,,,,,,,,,0,1,1,2,1,,,,,,,,,,,,,,,,,,,,,,,,,,,,,,,,,,,,,,,,,,,,,,
685449,001,2022-11-21_02h02.42.385,Info_measure_main_exp,2022.2.2,Win32,57.82686636,,,,,,,,,,,,,,,,,,masks/mask_001.jpg,,,,,,,,,,,,,,,,,,,,,,,,,,,,,,,,,,,,,,,,,,,0,2,2,0,1,,,,,,,,,,,,,,,,,,,,,,,,,,,,,,,,,,,,,,,,,,,,,,
685449,001,2022-11-21_02h02.42.385,Info_measure_main_exp,2022.2.2,Win32,57.82686636,,,,,,,,,,,,,,,,,,masks/mask_004.jpg,,,,,,,,,,,,,,,,,,,,,,,,,,,,,,,,,,,,,,,,,,,0,3,3,3,1,,,,,,,,,,,,,,,,,,,,,,,,,,,,,,,,,,,,,,,,,,,,,,
685449,001,2022-11-21_02h02.42.385,Info_measure_main_exp,2022.2.2,Win32,57.82686636,,,,,,,,,,,,,,,,,,masks/mask_002.jpg,,,,,,,,,,,,,,,,,,,,,,,,,,,,,,,,,,,,,,,,,,,0,4,4,1,1,,,,,,,,,,,,,,,,,,,,,,,,,,,,,,,,,,,,,,,,,,,,,,
685449,001,2022-11-21_02h02.42.385,Info_measure_main_exp,2022.2.2,Win32,57.82686636,,,,,,,,,,,,,,,,,,masks/mask_005.jpg,,,,,,,,,,,,,,,,,,,,,,,,,,,,,,,,,,,,,,,,,,,,,,,,0,0,0,4,1,,,,,,,,,,,,,,,,,,,,,,,,,,,,,,,,,,,,,,,,,
685449,001,2022-11-21_02h02.42.385,Info_measure_main_exp,2022.2.2,Win32,57.82686636,,,,,,,,,,,,,,,,,,masks/mask_004.jpg,,,,,,,,,,,,,,,,,,,,,,,,,,,,,,,,,,,,,,,,,,,,,,,,0,1,1,3,1,,,,,,,,,,,,,,,,,,,,,,,,,,,,,,,,,,,,,,,,,
685449,001,2022-11-21_02h02.42.385,Info_measure_main_exp,2022.2.2,Win32,57.82686636,,,,,,,,,,,,,,,,,,masks/mask_001.jpg,,,,,,,,,,,,,,,,,,,,,,,,,,,,,,,,,,,,,,,,,,,,,,,,0,2,2,0,1,,,,,,,,,,,,,,,,,,,,,,,,,,,,,,,,,,,,,,,,,
685449,001,2022-11-21_02h02.42.385,Info_measure_main_exp,2022.2.2,Win32,57.82686636,,,,,,,,,,,,,,,,,,masks/mask_002.jpg,,,,,,,,,,,,,,,,,,,,,,,,,,,,,,,,,,,,,,,,,,,,,,,,0,3,3,1,1,,,,,,,,,,,,,,,,,,,,,,,,,,,,,,,,,,,,,,,,,
685449,001,2022-11-21_02h02.42.385,Info_measure_main_exp,2022.2.2,Win32,57.82686636,,,,,,,,,,,,,,,,,,masks/mask_003.jpg,,,,,,,,,,,,,,,,,,,,,,,,,,,,,,,,,,,,,,,,,,,,,,,,0,4,4,2,1,,,,,,,,,,,,,,,,,,,,,,,,,,,,,,,,,,,,,,,,,
685449,001,2022-11-21_02h02.42.385,Info_measure_main_exp,2022.2.2,Win32,57.82686636,,,,,,,,,,,,,,,,,,,,,,,,,,,,,,3,2.0061,1,,,,,,,,,,,,0,131,5,5,1950,2238,absent_patch/patch0001950.jpg,absent_patch/patch0002238.jpg,,,,,,,,,,,,,,,,,,,,-0.018229167,-0.078125,1,0,0,response5disk,19,-0.001302083,0.002604167,1,0,0,center_square,0,18,18,8,1,,,,,,,,,,,,,,,,,,,,,,,
685449,001,2022-11-21_02h02.42.385,Info_measure_main_exp,2022.2.2,Win32,57.82686636,,,,,,,,,,,,,,,,,,masks/mask_004.jpg,,,,,,,,,,,,,,,,,,,,,,,,,,,,,,,,,,,,,,,,,,,0,0,0,3,1,,,,,,,,,,,,,,,,,,,,,,,,,,,,,,,,,,,,,,,,,,,,,,
685449,001,2022-11-21_02h02.42.385,Info_measure_main_exp,2022.2.2,Win32,57.82686636,,,,,,,,,,,,,,,,,,masks/mask_005.jpg,,,,,,,,,,,,,,,,,,,,,,,,,,,,,,,,,,,,,,,,,,,0,1,1,4,1,,,,,,,,,,,,,,,,,,,,,,,,,,,,,,,,,,,,,,,,,,,,,,
685449,001,2022-11-21_02h02.42.385,Info_measure_main_exp,2022.2.2,Win32,57.82686636,,,,,,,,,,,,,,,,,,masks/mask_001.jpg,,,,,,,,,,,,,,,,,,,,,,,,,,,,,,,,,,,,,,,,,,,0,2,2,0,1,,,,,,,,,,,,,,,,,,,,,,,,,,,,,,,,,,,,,,,,,,,,,,
685449,001,2022-11-21_02h02.42.385,Info_measure_main_exp,2022.2.2,Win32,57.82686636,,,,,,,,,,,,,,,,,,masks/mask_003.jpg,,,,,,,,,,,,,,,,,,,,,,,,,,,,,,,,,,,,,,,,,,,0,3,3,2,1,,,,,,,,,,,,,,,,,,,,,,,,,,,,,,,,,,,,,,,,,,,,,,
685449,001,2022-11-21_02h02.42.385,Info_measure_main_exp,2022.2.2,Win32,57.82686636,,,,,,,,,,,,,,,,,,masks/mask_002.jpg,,,,,,,,,,,,,,,,,,,,,,,,,,,,,,,,,,,,,,,,,,,0,4,4,1,1,,,,,,,,,,,,,,,,,,,,,,,,,,,,,,,,,,,,,,,,,,,,,,
685449,001,2022-11-21_02h02.42.385,Info_measure_main_exp,2022.2.2,Win32,57.82686636,,,,,,,,,,,,,,,,,,masks/mask_001.jpg,,,,,,,,,,,,,,,,,,,,,,,,,,,,,,,,,,,,,,,,,,,,,,,,0,0,0,0,1,,,,,,,,,,,,,,,,,,,,,,,,,,,,,,,,,,,,,,,,,
685449,001,2022-11-21_02h02.42.385,Info_measure_main_exp,2022.2.2,Win32,57.82686636,,,,,,,,,,,,,,,,,,masks/mask_002.jpg,,,,,,,,,,,,,,,,,,,,,,,,,,,,,,,,,,,,,,,,,,,,,,,,0,1,1,1,1,,,,,,,,,,,,,,,,,,,,,,,,,,,,,,,,,,,,,,,,,
685449,001,2022-11-21_02h02.42.385,Info_measure_main_exp,2022.2.2,Win32,57.82686636,,,,,,,,,,,,,,,,,,masks/mask_003.jpg,,,,,,,,,,,,,,,,,,,,,,,,,,,,,,,,,,,,,,,,,,,,,,,,0,2,2,2,1,,,,,,,,,,,,,,,,,,,,,,,,,,,,,,,,,,,,,,,,,
685449,001,2022-11-21_02h02.42.385,Info_measure_main_exp,2022.2.2,Win32,57.82686636,,,,,,,,,,,,,,,,,,masks/mask_005.jpg,,,,,,,,,,,,,,,,,,,,,,,,,,,,,,,,,,,,,,,,,,,,,,,,0,3,3,4,1,,,,,,,,,,,,,,,,,,,,,,,,,,,,,,,,,,,,,,,,,
685449,001,2022-11-21_02h02.42.385,Info_measure_main_exp,2022.2.2,Win32,57.82686636,,,,,,,,,,,,,,,,,,masks/mask_004.jpg,,,,,,,,,,,,,,,,,,,,,,,,,,,,,,,,,,,,,,,,,,,,,,,,0,4,4,3,1,,,,,,,,,,,,,,,,,,,,,,,,,,,,,,,,,,,,,,,,,
685449,001,2022-11-21_02h02.42.385,Info_measure_main_exp,2022.2.2,Win32,57.82686636,,,,,,,,,,,,,,,,,,,,,,,,,,,,,,7,1.4531,1,,,,,,,,,,,,1,131,5,5,2298,1,absent_patch/patch0002298.jpg,present_patch/cong_131_5_a.jpg,,,,,,,,,,,,,,,,,,,,0.0390625,0.072916667,1,0,0,response1disk,20,0.0078125,0.001302083,1,0,0,center_square,0,19,19,45,1,,,,,,,,,,,,,,,,,,,,,,,
685449,001,2022-11-21_02h02.42.385,Info_measure_main_exp,2022.2.2,Win32,57.82686636,,,,,,,,,,,,,,,,,,masks/mask_005.jpg,,,,,,,,,,,,,,,,,,,,,,,,,,,,,,,,,,,,,,,,,,,0,0,0,4,1,,,,,,,,,,,,,,,,,,,,,,,,,,,,,,,,,,,,,,,,,,,,,,
685449,001,2022-11-21_02h02.42.385,Info_measure_main_exp,2022.2.2,Win32,57.82686636,,,,,,,,,,,,,,,,,,masks/mask_004.jpg,,,,,,,,,,,,,,,,,,,,,,,,,,,,,,,,,,,,,,,,,,,0,1,1,3,1,,,,,,,,,,,,,,,,,,,,,,,,,,,,,,,,,,,,,,,,,,,,,,
685449,001,2022-11-21_02h02.42.385,Info_measure_main_exp,2022.2.2,Win32,57.82686636,,,,,,,,,,,,,,,,,,masks/mask_001.jpg,,,,,,,,,,,,,,,,,,,,,,,,,,,,,,,,,,,,,,,,,,,0,2,2,0,1,,,,,,,,,,,,,,,,,,,,,,,,,,,,,,,,,,,,,,,,,,,,,,
685449,001,2022-11-21_02h02.42.385,Info_measure_main_exp,2022.2.2,Win32,57.82686636,,,,,,,,,,,,,,,,,,masks/mask_002.jpg,,,,,,,,,,,,,,,,,,,,,,,,,,,,,,,,,,,,,,,,,,,0,3,3,1,1,,,,,,,,,,,,,,,,,,,,,,,,,,,,,,,,,,,,,,,,,,,,,,
685449,001,2022-11-21_02h02.42.385,Info_measure_main_exp,2022.2.2,Win32,57.82686636,,,,,,,,,,,,,,,,,,masks/mask_003.jpg,,,,,,,,,,,,,,,,,,,,,,,,,,,,,,,,,,,,,,,,,,,0,4,4,2,1,,,,,,,,,,,,,,,,,,,,,,,,,,,,,,,,,,,,,,,,,,,,,,
685449,001,2022-11-21_02h02.42.385,Info_measure_main_exp,2022.2.2,Win32,57.82686636,,,,,,,,,,,,,,,,,,masks/mask_005.jpg,,,,,,,,,,,,,,,,,,,,,,,,,,,,,,,,,,,,,,,,,,,,,,,,0,0,0,4,1,,,,,,,,,,,,,,,,,,,,,,,,,,,,,,,,,,,,,,,,,
685449,001,2022-11-21_02h02.42.385,Info_measure_main_exp,2022.2.2,Win32,57.82686636,,,,,,,,,,,,,,,,,,masks/mask_002.jpg,,,,,,,,,,,,,,,,,,,,,,,,,,,,,,,,,,,,,,,,,,,,,,,,0,1,1,1,1,,,,,,,,,,,,,,,,,,,,,,,,,,,,,,,,,,,,,,,,,
685449,001,2022-11-21_02h02.42.385,Info_measure_main_exp,2022.2.2,Win32,57.82686636,,,,,,,,,,,,,,,,,,masks/mask_004.jpg,,,,,,,,,,,,,,,,,,,,,,,,,,,,,,,,,,,,,,,,,,,,,,,,0,2,2,3,1,,,,,,,,,,,,,,,,,,,,,,,,,,,,,,,,,,,,,,,,,
685449,001,2022-11-21_02h02.42.385,Info_measure_main_exp,2022.2.2,Win32,57.82686636,,,,,,,,,,,,,,,,,,masks/mask_001.jpg,,,,,,,,,,,,,,,,,,,,,,,,,,,,,,,,,,,,,,,,,,,,,,,,0,3,3,0,1,,,,,,,,,,,,,,,,,,,,,,,,,,,,,,,,,,,,,,,,,
685449,001,2022-11-21_02h02.42.385,Info_measure_main_exp,2022.2.2,Win32,57.82686636,,,,,,,,,,,,,,,,,,masks/mask_003.jpg,,,,,,,,,,,,,,,,,,,,,,,,,,,,,,,,,,,,,,,,,,,,,,,,0,4,4,2,1,,,,,,,,,,,,,,,,,,,,,,,,,,,,,,,,,,,,,,,,,
685449,001,2022-11-21_02h02.42.385,Info_measure_main_exp,2022.2.2,Win32,57.82686636,,,,,,,,,,,,,,,,,,,,,,,,,,,,,,7,2.1575,1,,,,,,,,,,,,0,131,5,5,2250,1950,absent_patch/patch0002250.jpg,absent_patch/patch0001950.jpg,,,,,,,,,,,,,,,,,,,,0.01953125,0.067708333,1,0,0,response1disk,21,-0.00390625,0.00390625,1,0,0,center_square,0,20,20,16,1,,,,,,,,,,,,,,,,,,,,,,,
685449,001,2022-11-21_02h02.42.385,Info_measure_main_exp,2022.2.2,Win32,57.82686636,,,,,,,,,,,,,,,,,,masks/mask_002.jpg,,,,,,,,,,,,,,,,,,,,,,,,,,,,,,,,,,,,,,,,,,,0,0,0,1,1,,,,,,,,,,,,,,,,,,,,,,,,,,,,,,,,,,,,,,,,,,,,,,
685449,001,2022-11-21_02h02.42.385,Info_measure_main_exp,2022.2.2,Win32,57.82686636,,,,,,,,,,,,,,,,,,masks/mask_004.jpg,,,,,,,,,,,,,,,,,,,,,,,,,,,,,,,,,,,,,,,,,,,0,1,1,3,1,,,,,,,,,,,,,,,,,,,,,,,,,,,,,,,,,,,,,,,,,,,,,,
685449,001,2022-11-21_02h02.42.385,Info_measure_main_exp,2022.2.2,Win32,57.82686636,,,,,,,,,,,,,,,,,,masks/mask_003.jpg,,,,,,,,,,,,,,,,,,,,,,,,,,,,,,,,,,,,,,,,,,,0,2,2,2,1,,,,,,,,,,,,,,,,,,,,,,,,,,,,,,,,,,,,,,,,,,,,,,
685449,001,2022-11-21_02h02.42.385,Info_measure_main_exp,2022.2.2,Win32,57.82686636,,,,,,,,,,,,,,,,,,masks/mask_001.jpg,,,,,,,,,,,,,,,,,,,,,,,,,,,,,,,,,,,,,,,,,,,0,3,3,0,1,,,,,,,,,,,,,,,,,,,,,,,,,,,,,,,,,,,,,,,,,,,,,,
685449,001,2022-11-21_02h02.42.385,Info_measure_main_exp,2022.2.2,Win32,57.82686636,,,,,,,,,,,,,,,,,,masks/mask_005.jpg,,,,,,,,,,,,,,,,,,,,,,,,,,,,,,,,,,,,,,,,,,,0,4,4,4,1,,,,,,,,,,,,,,,,,,,,,,,,,,,,,,,,,,,,,,,,,,,,,,
685449,001,2022-11-21_02h02.42.385,Info_measure_main_exp,2022.2.2,Win32,57.82686636,,,,,,,,,,,,,,,,,,masks/mask_002.jpg,,,,,,,,,,,,,,,,,,,,,,,,,,,,,,,,,,,,,,,,,,,,,,,,0,0,0,1,1,,,,,,,,,,,,,,,,,,,,,,,,,,,,,,,,,,,,,,,,,
685449,001,2022-11-21_02h02.42.385,Info_measure_main_exp,2022.2.2,Win32,57.82686636,,,,,,,,,,,,,,,,,,masks/mask_004.jpg,,,,,,,,,,,,,,,,,,,,,,,,,,,,,,,,,,,,,,,,,,,,,,,,0,1,1,3,1,,,,,,,,,,,,,,,,,,,,,,,,,,,,,,,,,,,,,,,,,
685449,001,2022-11-21_02h02.42.385,Info_measure_main_exp,2022.2.2,Win32,57.82686636,,,,,,,,,,,,,,,,,,masks/mask_003.jpg,,,,,,,,,,,,,,,,,,,,,,,,,,,,,,,,,,,,,,,,,,,,,,,,0,2,2,2,1,,,,,,,,,,,,,,,,,,,,,,,,,,,,,,,,,,,,,,,,,
685449,001,2022-11-21_02h02.42.385,Info_measure_main_exp,2022.2.2,Win32,57.82686636,,,,,,,,,,,,,,,,,,masks/mask_001.jpg,,,,,,,,,,,,,,,,,,,,,,,,,,,,,,,,,,,,,,,,,,,,,,,,0,3,3,0,1,,,,,,,,,,,,,,,,,,,,,,,,,,,,,,,,,,,,,,,,,
685449,001,2022-11-21_02h02.42.385,Info_measure_main_exp,2022.2.2,Win32,57.82686636,,,,,,,,,,,,,,,,,,masks/mask_005.jpg,,,,,,,,,,,,,,,,,,,,,,,,,,,,,,,,,,,,,,,,,,,,,,,,0,4,4,4,1,,,,,,,,,,,,,,,,,,,,,,,,,,,,,,,,,,,,,,,,,
685449,001,2022-11-21_02h02.42.385,Info_measure_main_exp,2022.2.2,Win32,57.82686636,,,,,,,,,,,,,,,,,,,,,,,,,,,,,,7,2.0918,1,,,,,,,,,,,,0,131,5,5,2142,2166,absent_patch/patch0002142.jpg,absent_patch/patch0002166.jpg,,,,,,,,,,,,,,,,,,,,0.029947917,0.072916667,1,0,0,response1disk,22,-0.001302083,-0.001302083,1,0,0,center_square,0,21,21,66,1,,,,,,,,,,,,,,,,,,,,,,,
685449,001,2022-11-21_02h02.42.385,Info_measure_main_exp,2022.2.2,Win32,57.82686636,,,,,,,,,,,,,,,,,,masks/mask_004.jpg,,,,,,,,,,,,,,,,,,,,,,,,,,,,,,,,,,,,,,,,,,,0,0,0,3,1,,,,,,,,,,,,,,,,,,,,,,,,,,,,,,,,,,,,,,,,,,,,,,
685449,001,2022-11-21_02h02.42.385,Info_measure_main_exp,2022.2.2,Win32,57.82686636,,,,,,,,,,,,,,,,,,masks/mask_002.jpg,,,,,,,,,,,,,,,,,,,,,,,,,,,,,,,,,,,,,,,,,,,0,1,1,1,1,,,,,,,,,,,,,,,,,,,,,,,,,,,,,,,,,,,,,,,,,,,,,,
685449,001,2022-11-21_02h02.42.385,Info_measure_main_exp,2022.2.2,Win32,57.82686636,,,,,,,,,,,,,,,,,,masks/mask_005.jpg,,,,,,,,,,,,,,,,,,,,,,,,,,,,,,,,,,,,,,,,,,,0,2,2,4,1,,,,,,,,,,,,,,,,,,,,,,,,,,,,,,,,,,,,,,,,,,,,,,
685449,001,2022-11-21_02h02.42.385,Info_measure_main_exp,2022.2.2,Win32,57.82686636,,,,,,,,,,,,,,,,,,masks/mask_001.jpg,,,,,,,,,,,,,,,,,,,,,,,,,,,,,,,,,,,,,,,,,,,0,3,3,0,1,,,,,,,,,,,,,,,,,,,,,,,,,,,,,,,,,,,,,,,,,,,,,,
685449,001,2022-11-21_02h02.42.385,Info_measure_main_exp,2022.2.2,Win32,57.82686636,,,,,,,,,,,,,,,,,,masks/mask_003.jpg,,,,,,,,,,,,,,,,,,,,,,,,,,,,,,,,,,,,,,,,,,,0,4,4,2,1,,,,,,,,,,,,,,,,,,,,,,,,,,,,,,,,,,,,,,,,,,,,,,
685449,001,2022-11-21_02h02.42.385,Info_measure_main_exp,2022.2.2,Win32,57.82686636,,,,,,,,,,,,,,,,,,masks/mask_002.jpg,,,,,,,,,,,,,,,,,,,,,,,,,,,,,,,,,,,,,,,,,,,,,,,,0,0,0,1,1,,,,,,,,,,,,,,,,,,,,,,,,,,,,,,,,,,,,,,,,,
685449,001,2022-11-21_02h02.42.385,Info_measure_main_exp,2022.2.2,Win32,57.82686636,,,,,,,,,,,,,,,,,,masks/mask_001.jpg,,,,,,,,,,,,,,,,,,,,,,,,,,,,,,,,,,,,,,,,,,,,,,,,0,1,1,0,1,,,,,,,,,,,,,,,,,,,,,,,,,,,,,,,,,,,,,,,,,
685449,001,2022-11-21_02h02.42.385,Info_measure_main_exp,2022.2.2,Win32,57.82686636,,,,,,,,,,,,,,,,,,masks/mask_005.jpg,,,,,,,,,,,,,,,,,,,,,,,,,,,,,,,,,,,,,,,,,,,,,,,,0,2,2,4,1,,,,,,,,,,,,,,,,,,,,,,,,,,,,,,,,,,,,,,,,,
685449,001,2022-11-21_02h02.42.385,Info_measure_main_exp,2022.2.2,Win32,57.82686636,,,,,,,,,,,,,,,,,,masks/mask_003.jpg,,,,,,,,,,,,,,,,,,,,,,,,,,,,,,,,,,,,,,,,,,,,,,,,0,3,3,2,1,,,,,,,,,,,,,,,,,,,,,,,,,,,,,,,,,,,,,,,,,
685449,001,2022-11-21_02h02.42.385,Info_measure_main_exp,2022.2.2,Win32,57.82686636,,,,,,,,,,,,,,,,,,masks/mask_004.jpg,,,,,,,,,,,,,,,,,,,,,,,,,,,,,,,,,,,,,,,,,,,,,,,,0,4,4,3,1,,,,,,,,,,,,,,,,,,,,,,,,,,,,,,,,,,,,,,,,,
685449,001,2022-11-21_02h02.42.385,Info_measure_main_exp,2022.2.2,Win32,57.82686636,,,,,,,,,,,,,,,,,,,,,,,,,,,,,,4,2.5723,1,,,,,,,,,,,,0,131,5,5,2082,2154,absent_patch/patch0002082.jpg,absent_patch/patch0002154.jpg,,,,,,,,,,,,,,,,,,,,0.022135417,-0.071614583,1,0,0,response3disk,23,0.002604167,0,1,0,0,center_square,0,22,22,33,1,,,,,,,,,,,,,,,,,,,,,,,
685449,001,2022-11-21_02h02.42.385,Info_measure_main_exp,2022.2.2,Win32,57.82686636,,,,,,,,,,,,,,,,,,masks/mask_002.jpg,,,,,,,,,,,,,,,,,,,,,,,,,,,,,,,,,,,,,,,,,,,0,0,0,1,1,,,,,,,,,,,,,,,,,,,,,,,,,,,,,,,,,,,,,,,,,,,,,,
685449,001,2022-11-21_02h02.42.385,Info_measure_main_exp,2022.2.2,Win32,57.82686636,,,,,,,,,,,,,,,,,,masks/mask_004.jpg,,,,,,,,,,,,,,,,,,,,,,,,,,,,,,,,,,,,,,,,,,,0,1,1,3,1,,,,,,,,,,,,,,,,,,,,,,,,,,,,,,,,,,,,,,,,,,,,,,
685449,001,2022-11-21_02h02.42.385,Info_measure_main_exp,2022.2.2,Win32,57.82686636,,,,,,,,,,,,,,,,,,masks/mask_005.jpg,,,,,,,,,,,,,,,,,,,,,,,,,,,,,,,,,,,,,,,,,,,0,2,2,4,1,,,,,,,,,,,,,,,,,,,,,,,,,,,,,,,,,,,,,,,,,,,,,,
685449,001,2022-11-21_02h02.42.385,Info_measure_main_exp,2022.2.2,Win32,57.82686636,,,,,,,,,,,,,,,,,,masks/mask_003.jpg,,,,,,,,,,,,,,,,,,,,,,,,,,,,,,,,,,,,,,,,,,,0,3,3,2,1,,,,,,,,,,,,,,,,,,,,,,,,,,,,,,,,,,,,,,,,,,,,,,
685449,001,2022-11-21_02h02.42.385,Info_measure_main_exp,2022.2.2,Win32,57.82686636,,,,,,,,,,,,,,,,,,masks/mask_001.jpg,,,,,,,,,,,,,,,,,,,,,,,,,,,,,,,,,,,,,,,,,,,0,4,4,0,1,,,,,,,,,,,,,,,,,,,,,,,,,,,,,,,,,,,,,,,,,,,,,,
685449,001,2022-11-21_02h02.42.385,Info_measure_main_exp,2022.2.2,Win32,57.82686636,,,,,,,,,,,,,,,,,,masks/mask_001.jpg,,,,,,,,,,,,,,,,,,,,,,,,,,,,,,,,,,,,,,,,,,,,,,,,0,0,0,0,1,,,,,,,,,,,,,,,,,,,,,,,,,,,,,,,,,,,,,,,,,
685449,001,2022-11-21_02h02.42.385,Info_measure_main_exp,2022.2.2,Win32,57.82686636,,,,,,,,,,,,,,,,,,masks/mask_004.jpg,,,,,,,,,,,,,,,,,,,,,,,,,,,,,,,,,,,,,,,,,,,,,,,,0,1,1,3,1,,,,,,,,,,,,,,,,,,,,,,,,,,,,,,,,,,,,,,,,,
685449,001,2022-11-21_02h02.42.385,Info_measure_main_exp,2022.2.2,Win32,57.82686636,,,,,,,,,,,,,,,,,,masks/mask_005.jpg,,,,,,,,,,,,,,,,,,,,,,,,,,,,,,,,,,,,,,,,,,,,,,,,0,2,2,4,1,,,,,,,,,,,,,,,,,,,,,,,,,,,,,,,,,,,,,,,,,
685449,001,2022-11-21_02h02.42.385,Info_measure_main_exp,2022.2.2,Win32,57.82686636,,,,,,,,,,,,,,,,,,masks/mask_003.jpg,,,,,,,,,,,,,,,,,,,,,,,,,,,,,,,,,,,,,,,,,,,,,,,,0,3,3,2,1,,,,,,,,,,,,,,,,,,,,,,,,,,,,,,,,,,,,,,,,,
685449,001,2022-11-21_02h02.42.385,Info_measure_main_exp,2022.2.2,Win32,57.82686636,,,,,,,,,,,,,,,,,,masks/mask_002.jpg,,,,,,,,,,,,,,,,,,,,,,,,,,,,,,,,,,,,,,,,,,,,,,,,0,4,4,1,1,,,,,,,,,,,,,,,,,,,,,,,,,,,,,,,,,,,,,,,,,
685449,001,2022-11-21_02h02.42.385,Info_measure_main_exp,2022.2.2,Win32,57.82686636,,,,,,,,,,,,,,,,,,,,,,,,,,,,,,5,4.3527,1,,,,,,,,,,,,0,131,5,5,2274,2082,absent_patch/patch0002274.jpg,absent_patch/patch0002082.jpg,,,,,,,,,,,,,,,,,,,,0.059895833,-0.020833333,1,0,0,response3disk,24,-0.006510417,0.0078125,1,0,0,center_square,0,23,23,100,1,,,,,,,,,,,,,,,,,,,,,,,
685449,001,2022-11-21_02h02.42.385,Info_measure_main_exp,2022.2.2,Win32,57.82686636,,,,,,,,,,,,,,,,,,masks/mask_005.jpg,,,,,,,,,,,,,,,,,,,,,,,,,,,,,,,,,,,,,,,,,,,0,0,0,4,1,,,,,,,,,,,,,,,,,,,,,,,,,,,,,,,,,,,,,,,,,,,,,,
685449,001,2022-11-21_02h02.42.385,Info_measure_main_exp,2022.2.2,Win32,57.82686636,,,,,,,,,,,,,,,,,,masks/mask_003.jpg,,,,,,,,,,,,,,,,,,,,,,,,,,,,,,,,,,,,,,,,,,,0,1,1,2,1,,,,,,,,,,,,,,,,,,,,,,,,,,,,,,,,,,,,,,,,,,,,,,
685449,001,2022-11-21_02h02.42.385,Info_measure_main_exp,2022.2.2,Win32,57.82686636,,,,,,,,,,,,,,,,,,masks/mask_002.jpg,,,,,,,,,,,,,,,,,,,,,,,,,,,,,,,,,,,,,,,,,,,0,2,2,1,1,,,,,,,,,,,,,,,,,,,,,,,,,,,,,,,,,,,,,,,,,,,,,,
685449,001,2022-11-21_02h02.42.385,Info_measure_main_exp,2022.2.2,Win32,57.82686636,,,,,,,,,,,,,,,,,,masks/mask_004.jpg,,,,,,,,,,,,,,,,,,,,,,,,,,,,,,,,,,,,,,,,,,,0,3,3,3,1,,,,,,,,,,,,,,,,,,,,,,,,,,,,,,,,,,,,,,,,,,,,,,
685449,001,2022-11-21_02h02.42.385,Info_measure_main_exp,2022.2.2,Win32,57.82686636,,,,,,,,,,,,,,,,,,masks/mask_001.jpg,,,,,,,,,,,,,,,,,,,,,,,,,,,,,,,,,,,,,,,,,,,0,4,4,0,1,,,,,,,,,,,,,,,,,,,,,,,,,,,,,,,,,,,,,,,,,,,,,,
685449,001,2022-11-21_02h02.42.385,Info_measure_main_exp,2022.2.2,Win32,57.82686636,,,,,,,,,,,,,,,,,,masks/mask_005.jpg,,,,,,,,,,,,,,,,,,,,,,,,,,,,,,,,,,,,,,,,,,,,,,,,0,0,0,4,1,,,,,,,,,,,,,,,,,,,,,,,,,,,,,,,,,,,,,,,,,
685449,001,2022-11-21_02h02.42.385,Info_measure_main_exp,2022.2.2,Win32,57.82686636,,,,,,,,,,,,,,,,,,masks/mask_002.jpg,,,,,,,,,,,,,,,,,,,,,,,,,,,,,,,,,,,,,,,,,,,,,,,,0,1,1,1,1,,,,,,,,,,,,,,,,,,,,,,,,,,,,,,,,,,,,,,,,,
685449,001,2022-11-21_02h02.42.385,Info_measure_main_exp,2022.2.2,Win32,57.82686636,,,,,,,,,,,,,,,,,,masks/mask_001.jpg,,,,,,,,,,,,,,,,,,,,,,,,,,,,,,,,,,,,,,,,,,,,,,,,0,2,2,0,1,,,,,,,,,,,,,,,,,,,,,,,,,,,,,,,,,,,,,,,,,
685449,001,2022-11-21_02h02.42.385,Info_measure_main_exp,2022.2.2,Win32,57.82686636,,,,,,,,,,,,,,,,,,masks/mask_003.jpg,,,,,,,,,,,,,,,,,,,,,,,,,,,,,,,,,,,,,,,,,,,,,,,,0,3,3,2,1,,,,,,,,,,,,,,,,,,,,,,,,,,,,,,,,,,,,,,,,,
685449,001,2022-11-21_02h02.42.385,Info_measure_main_exp,2022.2.2,Win32,57.82686636,,,,,,,,,,,,,,,,,,masks/mask_004.jpg,,,,,,,,,,,,,,,,,,,,,,,,,,,,,,,,,,,,,,,,,,,,,,,,0,4,4,3,1,,,,,,,,,,,,,,,,,,,,,,,,,,,,,,,,,,,,,,,,,
685449,001,2022-11-21_02h02.42.385,Info_measure_main_exp,2022.2.2,Win32,57.82686636,,,,,,,,,,,,,,,,,,,,,,,,,,,,,,2,2.4326,1,,,,,,,,,,,,0,131,5,5,1950,2166,absent_patch/patch0001950.jpg,absent_patch/patch0002166.jpg,,,,,,,,,,,,,,,,,,,,-0.083333333,-0.03515625,1,0,0,response5disk,25,-0.002604167,-0.001302083,1,0,0,center_square,0,24,24,0,1,,,,,,,,,,,,,,,,,,,,,,,
685449,001,2022-11-21_02h02.42.385,Info_measure_main_exp,2022.2.2,Win32,57.82686636,,,,,,,,,,,,,,,,,,masks/mask_005.jpg,,,,,,,,,,,,,,,,,,,,,,,,,,,,,,,,,,,,,,,,,,,0,0,0,4,1,,,,,,,,,,,,,,,,,,,,,,,,,,,,,,,,,,,,,,,,,,,,,,
685449,001,2022-11-21_02h02.42.385,Info_measure_main_exp,2022.2.2,Win32,57.82686636,,,,,,,,,,,,,,,,,,masks/mask_003.jpg,,,,,,,,,,,,,,,,,,,,,,,,,,,,,,,,,,,,,,,,,,,0,1,1,2,1,,,,,,,,,,,,,,,,,,,,,,,,,,,,,,,,,,,,,,,,,,,,,,
685449,001,2022-11-21_02h02.42.385,Info_measure_main_exp,2022.2.2,Win32,57.82686636,,,,,,,,,,,,,,,,,,masks/mask_002.jpg,,,,,,,,,,,,,,,,,,,,,,,,,,,,,,,,,,,,,,,,,,,0,2,2,1,1,,,,,,,,,,,,,,,,,,,,,,,,,,,,,,,,,,,,,,,,,,,,,,
685449,001,2022-11-21_02h02.42.385,Info_measure_main_exp,2022.2.2,Win32,57.82686636,,,,,,,,,,,,,,,,,,masks/mask_001.jpg,,,,,,,,,,,,,,,,,,,,,,,,,,,,,,,,,,,,,,,,,,,0,3,3,0,1,,,,,,,,,,,,,,,,,,,,,,,,,,,,,,,,,,,,,,,,,,,,,,
685449,001,2022-11-21_02h02.42.385,Info_measure_main_exp,2022.2.2,Win32,57.82686636,,,,,,,,,,,,,,,,,,masks/mask_004.jpg,,,,,,,,,,,,,,,,,,,,,,,,,,,,,,,,,,,,,,,,,,,0,4,4,3,1,,,,,,,,,,,,,,,,,,,,,,,,,,,,,,,,,,,,,,,,,,,,,,
685449,001,2022-11-21_02h02.42.385,Info_measure_main_exp,2022.2.2,Win32,57.82686636,,,,,,,,,,,,,,,,,,masks/mask_003.jpg,,,,,,,,,,,,,,,,,,,,,,,,,,,,,,,,,,,,,,,,,,,,,,,,0,0,0,2,1,,,,,,,,,,,,,,,,,,,,,,,,,,,,,,,,,,,,,,,,,
685449,001,2022-11-21_02h02.42.385,Info_measure_main_exp,2022.2.2,Win32,57.82686636,,,,,,,,,,,,,,,,,,masks/mask_004.jpg,,,,,,,,,,,,,,,,,,,,,,,,,,,,,,,,,,,,,,,,,,,,,,,,0,1,1,3,1,,,,,,,,,,,,,,,,,,,,,,,,,,,,,,,,,,,,,,,,,
685449,001,2022-11-21_02h02.42.385,Info_measure_main_exp,2022.2.2,Win32,57.82686636,,,,,,,,,,,,,,,,,,masks/mask_005.jpg,,,,,,,,,,,,,,,,,,,,,,,,,,,,,,,,,,,,,,,,,,,,,,,,0,2,2,4,1,,,,,,,,,,,,,,,,,,,,,,,,,,,,,,,,,,,,,,,,,
685449,001,2022-11-21_02h02.42.385,Info_measure_main_exp,2022.2.2,Win32,57.82686636,,,,,,,,,,,,,,,,,,masks/mask_001.jpg,,,,,,,,,,,,,,,,,,,,,,,,,,,,,,,,,,,,,,,,,,,,,,,,0,3,3,0,1,,,,,,,,,,,,,,,,,,,,,,,,,,,,,,,,,,,,,,,,,
685449,001,2022-11-21_02h02.42.385,Info_measure_main_exp,2022.2.2,Win32,57.82686636,,,,,,,,,,,,,,,,,,masks/mask_002.jpg,,,,,,,,,,,,,,,,,,,,,,,,,,,,,,,,,,,,,,,,,,,,,,,,0,4,4,1,1,,,,,,,,,,,,,,,,,,,,,,,,,,,,,,,,,,,,,,,,,
685449,001,2022-11-21_02h02.42.385,Info_measure_main_exp,2022.2.2,Win32,57.82686636,,,,,,,,,,,,,,,,,,,,,,,,,,,,,,6,2.5929,1,,,,,,,,,,,,0,131,5,5,1986,2274,absent_patch/patch0001986.jpg,absent_patch/patch0002274.jpg,,,,,,,,,,,,,,,,,,,,0.09765625,0.02734375,1,0,0,response1disk,26,0.00390625,0.001302083,1,0,0,center_square,0,25,25,7,1,,,,,,,,,,,,,,,,,,,,,,,
685449,001,2022-11-21_02h02.42.385,Info_measure_main_exp,2022.2.2,Win32,57.82686636,,,,,,,,,,,,,,,,,,masks/mask_003.jpg,,,,,,,,,,,,,,,,,,,,,,,,,,,,,,,,,,,,,,,,,,,0,0,0,2,1,,,,,,,,,,,,,,,,,,,,,,,,,,,,,,,,,,,,,,,,,,,,,,
685449,001,2022-11-21_02h02.42.385,Info_measure_main_exp,2022.2.2,Win32,57.82686636,,,,,,,,,,,,,,,,,,masks/mask_001.jpg,,,,,,,,,,,,,,,,,,,,,,,,,,,,,,,,,,,,,,,,,,,0,1,1,0,1,,,,,,,,,,,,,,,,,,,,,,,,,,,,,,,,,,,,,,,,,,,,,,
685449,001,2022-11-21_02h02.42.385,Info_measure_main_exp,2022.2.2,Win32,57.82686636,,,,,,,,,,,,,,,,,,masks/mask_002.jpg,,,,,,,,,,,,,,,,,,,,,,,,,,,,,,,,,,,,,,,,,,,0,2,2,1,1,,,,,,,,,,,,,,,,,,,,,,,,,,,,,,,,,,,,,,,,,,,,,,
685449,001,2022-11-21_02h02.42.385,Info_measure_main_exp,2022.2.2,Win32,57.82686636,,,,,,,,,,,,,,,,,,masks/mask_004.jpg,,,,,,,,,,,,,,,,,,,,,,,,,,,,,,,,,,,,,,,,,,,0,3,3,3,1,,,,,,,,,,,,,,,,,,,,,,,,,,,,,,,,,,,,,,,,,,,,,,
685449,001,2022-11-21_02h02.42.385,Info_measure_main_exp,2022.2.2,Win32,57.82686636,,,,,,,,,,,,,,,,,,masks/mask_005.jpg,,,,,,,,,,,,,,,,,,,,,,,,,,,,,,,,,,,,,,,,,,,0,4,4,4,1,,,,,,,,,,,,,,,,,,,,,,,,,,,,,,,,,,,,,,,,,,,,,,
685449,001,2022-11-21_02h02.42.385,Info_measure_main_exp,2022.2.2,Win32,57.82686636,,,,,,,,,,,,,,,,,,masks/mask_002.jpg,,,,,,,,,,,,,,,,,,,,,,,,,,,,,,,,,,,,,,,,,,,,,,,,0,0,0,1,1,,,,,,,,,,,,,,,,,,,,,,,,,,,,,,,,,,,,,,,,,
685449,001,2022-11-21_02h02.42.385,Info_measure_main_exp,2022.2.2,Win32,57.82686636,,,,,,,,,,,,,,,,,,masks/mask_005.jpg,,,,,,,,,,,,,,,,,,,,,,,,,,,,,,,,,,,,,,,,,,,,,,,,0,1,1,4,1,,,,,,,,,,,,,,,,,,,,,,,,,,,,,,,,,,,,,,,,,
685449,001,2022-11-21_02h02.42.385,Info_measure_main_exp,2022.2.2,Win32,57.82686636,,,,,,,,,,,,,,,,,,masks/mask_004.jpg,,,,,,,,,,,,,,,,,,,,,,,,,,,,,,,,,,,,,,,,,,,,,,,,0,2,2,3,1,,,,,,,,,,,,,,,,,,,,,,,,,,,,,,,,,,,,,,,,,
685449,001,2022-11-21_02h02.42.385,Info_measure_main_exp,2022.2.2,Win32,57.82686636,,,,,,,,,,,,,,,,,,masks/mask_001.jpg,,,,,,,,,,,,,,,,,,,,,,,,,,,,,,,,,,,,,,,,,,,,,,,,0,3,3,0,1,,,,,,,,,,,,,,,,,,,,,,,,,,,,,,,,,,,,,,,,,
685449,001,2022-11-21_02h02.42.385,Info_measure_main_exp,2022.2.2,Win32,57.82686636,,,,,,,,,,,,,,,,,,masks/mask_003.jpg,,,,,,,,,,,,,,,,,,,,,,,,,,,,,,,,,,,,,,,,,,,,,,,,0,4,4,2,1,,,,,,,,,,,,,,,,,,,,,,,,,,,,,,,,,,,,,,,,,
685449,001,2022-11-21_02h02.42.385,Info_measure_main_exp,2022.2.2,Win32,57.82686636,,,,,,,,,,,,,,,,,,,,,,,,,,,,,,7,2.3374,1,,,,,,,,,,,,0,131,5,5,2178,2238,absent_patch/patch0002178.jpg,absent_patch/patch0002238.jpg,,,,,,,,,,,,,,,,,,,,0.046875,0.1015625,1,0,0,response1disk,27,0.005208333,0.00390625,1,0,0,center_square,0,26,26,57,1,,,,,,,,,,,,,,,,,,,,,,,
685449,001,2022-11-21_02h02.42.385,Info_measure_main_exp,2022.2.2,Win32,57.82686636,,,,,,,,,,,,,,,,,,masks/mask_002.jpg,,,,,,,,,,,,,,,,,,,,,,,,,,,,,,,,,,,,,,,,,,,0,0,0,1,1,,,,,,,,,,,,,,,,,,,,,,,,,,,,,,,,,,,,,,,,,,,,,,
685449,001,2022-11-21_02h02.42.385,Info_measure_main_exp,2022.2.2,Win32,57.82686636,,,,,,,,,,,,,,,,,,masks/mask_003.jpg,,,,,,,,,,,,,,,,,,,,,,,,,,,,,,,,,,,,,,,,,,,0,1,1,2,1,,,,,,,,,,,,,,,,,,,,,,,,,,,,,,,,,,,,,,,,,,,,,,
685449,001,2022-11-21_02h02.42.385,Info_measure_main_exp,2022.2.2,Win32,57.82686636,,,,,,,,,,,,,,,,,,masks/mask_005.jpg,,,,,,,,,,,,,,,,,,,,,,,,,,,,,,,,,,,,,,,,,,,0,2,2,4,1,,,,,,,,,,,,,,,,,,,,,,,,,,,,,,,,,,,,,,,,,,,,,,
685449,001,2022-11-21_02h02.42.385,Info_measure_main_exp,2022.2.2,Win32,57.82686636,,,,,,,,,,,,,,,,,,masks/mask_004.jpg,,,,,,,,,,,,,,,,,,,,,,,,,,,,,,,,,,,,,,,,,,,0,3,3,3,1,,,,,,,,,,,,,,,,,,,,,,,,,,,,,,,,,,,,,,,,,,,,,,
685449,001,2022-11-21_02h02.42.385,Info_measure_main_exp,2022.2.2,Win32,57.82686636,,,,,,,,,,,,,,,,,,masks/mask_001.jpg,,,,,,,,,,,,,,,,,,,,,,,,,,,,,,,,,,,,,,,,,,,0,4,4,0,1,,,,,,,,,,,,,,,,,,,,,,,,,,,,,,,,,,,,,,,,,,,,,,
685449,001,2022-11-21_02h02.42.385,Info_measure_main_exp,2022.2.2,Win32,57.82686636,,,,,,,,,,,,,,,,,,masks/mask_005.jpg,,,,,,,,,,,,,,,,,,,,,,,,,,,,,,,,,,,,,,,,,,,,,,,,0,0,0,4,1,,,,,,,,,,,,,,,,,,,,,,,,,,,,,,,,,,,,,,,,,
685449,001,2022-11-21_02h02.42.385,Info_measure_main_exp,2022.2.2,Win32,57.82686636,,,,,,,,,,,,,,,,,,masks/mask_003.jpg,,,,,,,,,,,,,,,,,,,,,,,,,,,,,,,,,,,,,,,,,,,,,,,,0,1,1,2,1,,,,,,,,,,,,,,,,,,,,,,,,,,,,,,,,,,,,,,,,,
685449,001,2022-11-21_02h02.42.385,Info_measure_main_exp,2022.2.2,Win32,57.82686636,,,,,,,,,,,,,,,,,,masks/mask_002.jpg,,,,,,,,,,,,,,,,,,,,,,,,,,,,,,,,,,,,,,,,,,,,,,,,0,2,2,1,1,,,,,,,,,,,,,,,,,,,,,,,,,,,,,,,,,,,,,,,,,
685449,001,2022-11-21_02h02.42.385,Info_measure_main_exp,2022.2.2,Win32,57.82686636,,,,,,,,,,,,,,,,,,masks/mask_004.jpg,,,,,,,,,,,,,,,,,,,,,,,,,,,,,,,,,,,,,,,,,,,,,,,,0,3,3,3,1,,,,,,,,,,,,,,,,,,,,,,,,,,,,,,,,,,,,,,,,,
685449,001,2022-11-21_02h02.42.385,Info_measure_main_exp,2022.2.2,Win32,57.82686636,,,,,,,,,,,,,,,,,,masks/mask_001.jpg,,,,,,,,,,,,,,,,,,,,,,,,,,,,,,,,,,,,,,,,,,,,,,,,0,4,4,0,1,,,,,,,,,,,,,,,,,,,,,,,,,,,,,,,,,,,,,,,,,
685449,001,2022-11-21_02h02.42.385,Info_measure_main_exp,2022.2.2,Win32,57.82686636,,,,,,,,,,,,,,,,,,,,,,,,,,,,,,0,1.2574,1,,,,,,,,,,,,0,131,5,5,2166,2166,absent_patch/patch0002166.jpg,absent_patch/patch0002166.jpg,,,,,,,,,,,,,,,,,,,,-0.0234375,0.063802083,1,0,0,response7disk,28,-0.006510417,-0.002604167,1,0,0,center_square,0,27,27,42,1,,,,,,,,,,,,,,,,,,,,,,,
685449,001,2022-11-21_02h02.42.385,Info_measure_main_exp,2022.2.2,Win32,57.82686636,,,,,,,,,,,,,,,,,,masks/mask_002.jpg,,,,,,,,,,,,,,,,,,,,,,,,,,,,,,,,,,,,,,,,,,,0,0,0,1,1,,,,,,,,,,,,,,,,,,,,,,,,,,,,,,,,,,,,,,,,,,,,,,
685449,001,2022-11-21_02h02.42.385,Info_measure_main_exp,2022.2.2,Win32,57.82686636,,,,,,,,,,,,,,,,,,masks/mask_004.jpg,,,,,,,,,,,,,,,,,,,,,,,,,,,,,,,,,,,,,,,,,,,0,1,1,3,1,,,,,,,,,,,,,,,,,,,,,,,,,,,,,,,,,,,,,,,,,,,,,,
685449,001,2022-11-21_02h02.42.385,Info_measure_main_exp,2022.2.2,Win32,57.82686636,,,,,,,,,,,,,,,,,,masks/mask_005.jpg,,,,,,,,,,,,,,,,,,,,,,,,,,,,,,,,,,,,,,,,,,,0,2,2,4,1,,,,,,,,,,,,,,,,,,,,,,,,,,,,,,,,,,,,,,,,,,,,,,
685449,001,2022-11-21_02h02.42.385,Info_measure_main_exp,2022.2.2,Win32,57.82686636,,,,,,,,,,,,,,,,,,masks/mask_003.jpg,,,,,,,,,,,,,,,,,,,,,,,,,,,,,,,,,,,,,,,,,,,0,3,3,2,1,,,,,,,,,,,,,,,,,,,,,,,,,,,,,,,,,,,,,,,,,,,,,,
685449,001,2022-11-21_02h02.42.385,Info_measure_main_exp,2022.2.2,Win32,57.82686636,,,,,,,,,,,,,,,,,,masks/mask_001.jpg,,,,,,,,,,,,,,,,,,,,,,,,,,,,,,,,,,,,,,,,,,,0,4,4,0,1,,,,,,,,,,,,,,,,,,,,,,,,,,,,,,,,,,,,,,,,,,,,,,
685449,001,2022-11-21_02h02.42.385,Info_measure_main_exp,2022.2.2,Win32,57.82686636,,,,,,,,,,,,,,,,,,masks/mask_004.jpg,,,,,,,,,,,,,,,,,,,,,,,,,,,,,,,,,,,,,,,,,,,,,,,,0,0,0,3,1,,,,,,,,,,,,,,,,,,,,,,,,,,,,,,,,,,,,,,,,,
685449,001,2022-11-21_02h02.42.385,Info_measure_main_exp,2022.2.2,Win32,57.82686636,,,,,,,,,,,,,,,,,,masks/mask_003.jpg,,,,,,,,,,,,,,,,,,,,,,,,,,,,,,,,,,,,,,,,,,,,,,,,0,1,1,2,1,,,,,,,,,,,,,,,,,,,,,,,,,,,,,,,,,,,,,,,,,
685449,001,2022-11-21_02h02.42.385,Info_measure_main_exp,2022.2.2,Win32,57.82686636,,,,,,,,,,,,,,,,,,masks/mask_001.jpg,,,,,,,,,,,,,,,,,,,,,,,,,,,,,,,,,,,,,,,,,,,,,,,,0,2,2,0,1,,,,,,,,,,,,,,,,,,,,,,,,,,,,,,,,,,,,,,,,,
685449,001,2022-11-21_02h02.42.385,Info_measure_main_exp,2022.2.2,Win32,57.82686636,,,,,,,,,,,,,,,,,,masks/mask_005.jpg,,,,,,,,,,,,,,,,,,,,,,,,,,,,,,,,,,,,,,,,,,,,,,,,0,3,3,4,1,,,,,,,,,,,,,,,,,,,,,,,,,,,,,,,,,,,,,,,,,
685449,001,2022-11-21_02h02.42.385,Info_measure_main_exp,2022.2.2,Win32,57.82686636,,,,,,,,,,,,,,,,,,masks/mask_002.jpg,,,,,,,,,,,,,,,,,,,,,,,,,,,,,,,,,,,,,,,,,,,,,,,,0,4,4,1,1,,,,,,,,,,,,,,,,,,,,,,,,,,,,,,,,,,,,,,,,,
685449,001,2022-11-21_02h02.42.385,Info_measure_main_exp,2022.2.2,Win32,57.82686636,,,,,,,,,,,,,,,,,,,,,,,,,,,,,,0,1.0368,1,,,,,,,,,,,,0,131,5,5,2238,2238,absent_patch/patch0002238.jpg,absent_patch/patch0002238.jpg,,,,,,,,,,,,,,,,,,,,-0.022135417,0.0703125,1,0,0,response7disk,29,0.001302083,-0.006510417,1,0,0,center_square,0,28,28,58,1,,,,,,,,,,,,,,,,,,,,,,,
685449,001,2022-11-21_02h02.42.385,Info_measure_main_exp,2022.2.2,Win32,57.82686636,,,,,,,,,,,,,,,,,,masks/mask_001.jpg,,,,,,,,,,,,,,,,,,,,,,,,,,,,,,,,,,,,,,,,,,,0,0,0,0,1,,,,,,,,,,,,,,,,,,,,,,,,,,,,,,,,,,,,,,,,,,,,,,
685449,001,2022-11-21_02h02.42.385,Info_measure_main_exp,2022.2.2,Win32,57.82686636,,,,,,,,,,,,,,,,,,masks/mask_004.jpg,,,,,,,,,,,,,,,,,,,,,,,,,,,,,,,,,,,,,,,,,,,0,1,1,3,1,,,,,,,,,,,,,,,,,,,,,,,,,,,,,,,,,,,,,,,,,,,,,,
685449,001,2022-11-21_02h02.42.385,Info_measure_main_exp,2022.2.2,Win32,57.82686636,,,,,,,,,,,,,,,,,,masks/mask_003.jpg,,,,,,,,,,,,,,,,,,,,,,,,,,,,,,,,,,,,,,,,,,,0,2,2,2,1,,,,,,,,,,,,,,,,,,,,,,,,,,,,,,,,,,,,,,,,,,,,,,
685449,001,2022-11-21_02h02.42.385,Info_measure_main_exp,2022.2.2,Win32,57.82686636,,,,,,,,,,,,,,,,,,masks/mask_005.jpg,,,,,,,,,,,,,,,,,,,,,,,,,,,,,,,,,,,,,,,,,,,0,3,3,4,1,,,,,,,,,,,,,,,,,,,,,,,,,,,,,,,,,,,,,,,,,,,,,,
685449,001,2022-11-21_02h02.42.385,Info_measure_main_exp,2022.2.2,Win32,57.82686636,,,,,,,,,,,,,,,,,,masks/mask_002.jpg,,,,,,,,,,,,,,,,,,,,,,,,,,,,,,,,,,,,,,,,,,,0,4,4,1,1,,,,,,,,,,,,,,,,,,,,,,,,,,,,,,,,,,,,,,,,,,,,,,
685449,001,2022-11-21_02h02.42.385,Info_measure_main_exp,2022.2.2,Win32,57.82686636,,,,,,,,,,,,,,,,,,masks/mask_001.jpg,,,,,,,,,,,,,,,,,,,,,,,,,,,,,,,,,,,,,,,,,,,,,,,,0,0,0,0,1,,,,,,,,,,,,,,,,,,,,,,,,,,,,,,,,,,,,,,,,,
685449,001,2022-11-21_02h02.42.385,Info_measure_main_exp,2022.2.2,Win32,57.82686636,,,,,,,,,,,,,,,,,,masks/mask_005.jpg,,,,,,,,,,,,,,,,,,,,,,,,,,,,,,,,,,,,,,,,,,,,,,,,0,1,1,4,1,,,,,,,,,,,,,,,,,,,,,,,,,,,,,,,,,,,,,,,,,
685449,001,2022-11-21_02h02.42.385,Info_measure_main_exp,2022.2.2,Win32,57.82686636,,,,,,,,,,,,,,,,,,masks/mask_003.jpg,,,,,,,,,,,,,,,,,,,,,,,,,,,,,,,,,,,,,,,,,,,,,,,,0,2,2,2,1,,,,,,,,,,,,,,,,,,,,,,,,,,,,,,,,,,,,,,,,,
685449,001,2022-11-21_02h02.42.385,Info_measure_main_exp,2022.2.2,Win32,57.82686636,,,,,,,,,,,,,,,,,,masks/mask_002.jpg,,,,,,,,,,,,,,,,,,,,,,,,,,,,,,,,,,,,,,,,,,,,,,,,0,3,3,1,1,,,,,,,,,,,,,,,,,,,,,,,,,,,,,,,,,,,,,,,,,
685449,001,2022-11-21_02h02.42.385,Info_measure_main_exp,2022.2.2,Win32,57.82686636,,,,,,,,,,,,,,,,,,masks/mask_004.jpg,,,,,,,,,,,,,,,,,,,,,,,,,,,,,,,,,,,,,,,,,,,,,,,,0,4,4,3,1,,,,,,,,,,,,,,,,,,,,,,,,,,,,,,,,,,,,,,,,,
685449,001,2022-11-21_02h02.42.385,Info_measure_main_exp,2022.2.2,Win32,57.82686636,,,,,,,,,,,,,,,,,,,,,,,,,,,,,,4,2.0335,1,,,,,,,,,,,,0,131,5,5,2190,2166,absent_patch/patch0002190.jpg,absent_patch/patch0002166.jpg,,,,,,,,,,,,,,,,,,,,0.014322917,-0.041666667,1,0,0,response3disk,30,-0.00390625,0.0078125,1,0,0,center_square,0,29,29,50,1,,,,,,,,,,,,,,,,,,,,,,,
685449,001,2022-11-21_02h02.42.385,Info_measure_main_exp,2022.2.2,Win32,57.82686636,,,,,,,,,,,,,,,,,,masks/mask_001.jpg,,,,,,,,,,,,,,,,,,,,,,,,,,,,,,,,,,,,,,,,,,,0,0,0,0,1,,,,,,,,,,,,,,,,,,,,,,,,,,,,,,,,,,,,,,,,,,,,,,
685449,001,2022-11-21_02h02.42.385,Info_measure_main_exp,2022.2.2,Win32,57.82686636,,,,,,,,,,,,,,,,,,masks/mask_005.jpg,,,,,,,,,,,,,,,,,,,,,,,,,,,,,,,,,,,,,,,,,,,0,1,1,4,1,,,,,,,,,,,,,,,,,,,,,,,,,,,,,,,,,,,,,,,,,,,,,,
685449,001,2022-11-21_02h02.42.385,Info_measure_main_exp,2022.2.2,Win32,57.82686636,,,,,,,,,,,,,,,,,,masks/mask_004.jpg,,,,,,,,,,,,,,,,,,,,,,,,,,,,,,,,,,,,,,,,,,,0,2,2,3,1,,,,,,,,,,,,,,,,,,,,,,,,,,,,,,,,,,,,,,,,,,,,,,
685449,001,2022-11-21_02h02.42.385,Info_measure_main_exp,2022.2.2,Win32,57.82686636,,,,,,,,,,,,,,,,,,masks/mask_003.jpg,,,,,,,,,,,,,,,,,,,,,,,,,,,,,,,,,,,,,,,,,,,0,3,3,2,1,,,,,,,,,,,,,,,,,,,,,,,,,,,,,,,,,,,,,,,,,,,,,,
685449,001,2022-11-21_02h02.42.385,Info_measure_main_exp,2022.2.2,Win32,57.82686636,,,,,,,,,,,,,,,,,,masks/mask_002.jpg,,,,,,,,,,,,,,,,,,,,,,,,,,,,,,,,,,,,,,,,,,,0,4,4,1,1,,,,,,,,,,,,,,,,,,,,,,,,,,,,,,,,,,,,,,,,,,,,,,
685449,001,2022-11-21_02h02.42.385,Info_measure_main_exp,2022.2.2,Win32,57.82686636,,,,,,,,,,,,,,,,,,masks/mask_005.jpg,,,,,,,,,,,,,,,,,,,,,,,,,,,,,,,,,,,,,,,,,,,,,,,,0,0,0,4,1,,,,,,,,,,,,,,,,,,,,,,,,,,,,,,,,,,,,,,,,,
685449,001,2022-11-21_02h02.42.385,Info_measure_main_exp,2022.2.2,Win32,57.82686636,,,,,,,,,,,,,,,,,,masks/mask_003.jpg,,,,,,,,,,,,,,,,,,,,,,,,,,,,,,,,,,,,,,,,,,,,,,,,0,1,1,2,1,,,,,,,,,,,,,,,,,,,,,,,,,,,,,,,,,,,,,,,,,
685449,001,2022-11-21_02h02.42.385,Info_measure_main_exp,2022.2.2,Win32,57.82686636,,,,,,,,,,,,,,,,,,masks/mask_002.jpg,,,,,,,,,,,,,,,,,,,,,,,,,,,,,,,,,,,,,,,,,,,,,,,,0,2,2,1,1,,,,,,,,,,,,,,,,,,,,,,,,,,,,,,,,,,,,,,,,,
685449,001,2022-11-21_02h02.42.385,Info_measure_main_exp,2022.2.2,Win32,57.82686636,,,,,,,,,,,,,,,,,,masks/mask_001.jpg,,,,,,,,,,,,,,,,,,,,,,,,,,,,,,,,,,,,,,,,,,,,,,,,0,3,3,0,1,,,,,,,,,,,,,,,,,,,,,,,,,,,,,,,,,,,,,,,,,
685449,001,2022-11-21_02h02.42.385,Info_measure_main_exp,2022.2.2,Win32,57.82686636,,,,,,,,,,,,,,,,,,masks/mask_004.jpg,,,,,,,,,,,,,,,,,,,,,,,,,,,,,,,,,,,,,,,,,,,,,,,,0,4,4,3,1,,,,,,,,,,,,,,,,,,,,,,,,,,,,,,,,,,,,,,,,,
685449,001,2022-11-21_02h02.42.385,Info_measure_main_exp,2022.2.2,Win32,57.82686636,,,,,,,,,,,,,,,,,,,,,,,,,,,,,,3,1.8222,1,,,,,,,,,,,,0,131,5,5,2154,2250,absent_patch/patch0002154.jpg,absent_patch/patch0002250.jpg,,,,,,,,,,,,,,,,,,,,-0.014322917,-0.061197917,1,0,0,response5disk,31,0.002604167,0,1,0,0,center_square,0,30,30,108,1,,,,,,,,,,,,,,,,,,,,,,,
685449,001,2022-11-21_02h02.42.385,Info_measure_main_exp,2022.2.2,Win32,57.82686636,,,,,,,,,,,,,,,,,,masks/mask_001.jpg,,,,,,,,,,,,,,,,,,,,,,,,,,,,,,,,,,,,,,,,,,,0,0,0,0,1,,,,,,,,,,,,,,,,,,,,,,,,,,,,,,,,,,,,,,,,,,,,,,
685449,001,2022-11-21_02h02.42.385,Info_measure_main_exp,2022.2.2,Win32,57.82686636,,,,,,,,,,,,,,,,,,masks/mask_003.jpg,,,,,,,,,,,,,,,,,,,,,,,,,,,,,,,,,,,,,,,,,,,0,1,1,2,1,,,,,,,,,,,,,,,,,,,,,,,,,,,,,,,,,,,,,,,,,,,,,,
685449,001,2022-11-21_02h02.42.385,Info_measure_main_exp,2022.2.2,Win32,57.82686636,,,,,,,,,,,,,,,,,,masks/mask_002.jpg,,,,,,,,,,,,,,,,,,,,,,,,,,,,,,,,,,,,,,,,,,,0,2,2,1,1,,,,,,,,,,,,,,,,,,,,,,,,,,,,,,,,,,,,,,,,,,,,,,
685449,001,2022-11-21_02h02.42.385,Info_measure_main_exp,2022.2.2,Win32,57.82686636,,,,,,,,,,,,,,,,,,masks/mask_004.jpg,,,,,,,,,,,,,,,,,,,,,,,,,,,,,,,,,,,,,,,,,,,0,3,3,3,1,,,,,,,,,,,,,,,,,,,,,,,,,,,,,,,,,,,,,,,,,,,,,,
685449,001,2022-11-21_02h02.42.385,Info_measure_main_exp,2022.2.2,Win32,57.82686636,,,,,,,,,,,,,,,,,,masks/mask_005.jpg,,,,,,,,,,,,,,,,,,,,,,,,,,,,,,,,,,,,,,,,,,,0,4,4,4,1,,,,,,,,,,,,,,,,,,,,,,,,,,,,,,,,,,,,,,,,,,,,,,
685449,001,2022-11-21_02h02.42.385,Info_measure_main_exp,2022.2.2,Win32,57.82686636,,,,,,,,,,,,,,,,,,masks/mask_004.jpg,,,,,,,,,,,,,,,,,,,,,,,,,,,,,,,,,,,,,,,,,,,,,,,,0,0,0,3,1,,,,,,,,,,,,,,,,,,,,,,,,,,,,,,,,,,,,,,,,,
685449,001,2022-11-21_02h02.42.385,Info_measure_main_exp,2022.2.2,Win32,57.82686636,,,,,,,,,,,,,,,,,,masks/mask_003.jpg,,,,,,,,,,,,,,,,,,,,,,,,,,,,,,,,,,,,,,,,,,,,,,,,0,1,1,2,1,,,,,,,,,,,,,,,,,,,,,,,,,,,,,,,,,,,,,,,,,
685449,001,2022-11-21_02h02.42.385,Info_measure_main_exp,2022.2.2,Win32,57.82686636,,,,,,,,,,,,,,,,,,masks/mask_001.jpg,,,,,,,,,,,,,,,,,,,,,,,,,,,,,,,,,,,,,,,,,,,,,,,,0,2,2,0,1,,,,,,,,,,,,,,,,,,,,,,,,,,,,,,,,,,,,,,,,,
685449,001,2022-11-21_02h02.42.385,Info_measure_main_exp,2022.2.2,Win32,57.82686636,,,,,,,,,,,,,,,,,,masks/mask_002.jpg,,,,,,,,,,,,,,,,,,,,,,,,,,,,,,,,,,,,,,,,,,,,,,,,0,3,3,1,1,,,,,,,,,,,,,,,,,,,,,,,,,,,,,,,,,,,,,,,,,
685449,001,2022-11-21_02h02.42.385,Info_measure_main_exp,2022.2.2,Win32,57.82686636,,,,,,,,,,,,,,,,,,masks/mask_005.jpg,,,,,,,,,,,,,,,,,,,,,,,,,,,,,,,,,,,,,,,,,,,,,,,,0,4,4,4,1,,,,,,,,,,,,,,,,,,,,,,,,,,,,,,,,,,,,,,,,,
685449,001,2022-11-21_02h02.42.385,Info_measure_main_exp,2022.2.2,Win32,57.82686636,,,,,,,,,,,,,,,,,,,,,,,,,,,,,,4,2.1876,1,,,,,,,,,,,,1,131,5,5,1,2154,present_patch/cong_131_5_a.jpg,absent_patch/patch0002154.jpg,,,,,,,,,,,,,,,,,,,,0.0078125,-0.048177083,1,0,0,response3disk,32,-0.002604167,-0.002604167,1,0,0,center_square,0,31,31,87,1,,,,,,,,,,,,,,,,,,,,,,,
685449,001,2022-11-21_02h02.42.385,Info_measure_main_exp,2022.2.2,Win32,57.82686636,,,,,,,,,,,,,,,,,,masks/mask_002.jpg,,,,,,,,,,,,,,,,,,,,,,,,,,,,,,,,,,,,,,,,,,,0,0,0,1,1,,,,,,,,,,,,,,,,,,,,,,,,,,,,,,,,,,,,,,,,,,,,,,
685449,001,2022-11-21_02h02.42.385,Info_measure_main_exp,2022.2.2,Win32,57.82686636,,,,,,,,,,,,,,,,,,masks/mask_005.jpg,,,,,,,,,,,,,,,,,,,,,,,,,,,,,,,,,,,,,,,,,,,0,1,1,4,1,,,,,,,,,,,,,,,,,,,,,,,,,,,,,,,,,,,,,,,,,,,,,,
685449,001,2022-11-21_02h02.42.385,Info_measure_main_exp,2022.2.2,Win32,57.82686636,,,,,,,,,,,,,,,,,,masks/mask_001.jpg,,,,,,,,,,,,,,,,,,,,,,,,,,,,,,,,,,,,,,,,,,,0,2,2,0,1,,,,,,,,,,,,,,,,,,,,,,,,,,,,,,,,,,,,,,,,,,,,,,
685449,001,2022-11-21_02h02.42.385,Info_measure_main_exp,2022.2.2,Win32,57.82686636,,,,,,,,,,,,,,,,,,masks/mask_003.jpg,,,,,,,,,,,,,,,,,,,,,,,,,,,,,,,,,,,,,,,,,,,0,3,3,2,1,,,,,,,,,,,,,,,,,,,,,,,,,,,,,,,,,,,,,,,,,,,,,,
685449,001,2022-11-21_02h02.42.385,Info_measure_main_exp,2022.2.2,Win32,57.82686636,,,,,,,,,,,,,,,,,,masks/mask_004.jpg,,,,,,,,,,,,,,,,,,,,,,,,,,,,,,,,,,,,,,,,,,,0,4,4,3,1,,,,,,,,,,,,,,,,,,,,,,,,,,,,,,,,,,,,,,,,,,,,,,
685449,001,2022-11-21_02h02.42.385,Info_measure_main_exp,2022.2.2,Win32,57.82686636,,,,,,,,,,,,,,,,,,masks/mask_003.jpg,,,,,,,,,,,,,,,,,,,,,,,,,,,,,,,,,,,,,,,,,,,,,,,,0,0,0,2,1,,,,,,,,,,,,,,,,,,,,,,,,,,,,,,,,,,,,,,,,,
685449,001,2022-11-21_02h02.42.385,Info_measure_main_exp,2022.2.2,Win32,57.82686636,,,,,,,,,,,,,,,,,,masks/mask_001.jpg,,,,,,,,,,,,,,,,,,,,,,,,,,,,,,,,,,,,,,,,,,,,,,,,0,1,1,0,1,,,,,,,,,,,,,,,,,,,,,,,,,,,,,,,,,,,,,,,,,
685449,001,2022-11-21_02h02.42.385,Info_measure_main_exp,2022.2.2,Win32,57.82686636,,,,,,,,,,,,,,,,,,masks/mask_004.jpg,,,,,,,,,,,,,,,,,,,,,,,,,,,,,,,,,,,,,,,,,,,,,,,,0,2,2,3,1,,,,,,,,,,,,,,,,,,,,,,,,,,,,,,,,,,,,,,,,,
685449,001,2022-11-21_02h02.42.385,Info_measure_main_exp,2022.2.2,Win32,57.82686636,,,,,,,,,,,,,,,,,,masks/mask_005.jpg,,,,,,,,,,,,,,,,,,,,,,,,,,,,,,,,,,,,,,,,,,,,,,,,0,3,3,4,1,,,,,,,,,,,,,,,,,,,,,,,,,,,,,,,,,,,,,,,,,
685449,001,2022-11-21_02h02.42.385,Info_measure_main_exp,2022.2.2,Win32,57.82686636,,,,,,,,,,,,,,,,,,masks/mask_002.jpg,,,,,,,,,,,,,,,,,,,,,,,,,,,,,,,,,,,,,,,,,,,,,,,,0,4,4,1,1,,,,,,,,,,,,,,,,,,,,,,,,,,,,,,,,,,,,,,,,,
685449,001,2022-11-21_02h02.42.385,Info_measure_main_exp,2022.2.2,Win32,57.82686636,,,,,,,,,,,,,,,,,,,,,,,,,,,,,,5,1.5149,1,,,,,,,,,,,,0,131,5,5,2082,2250,absent_patch/patch0002082.jpg,absent_patch/patch0002250.jpg,,,,,,,,,,,,,,,,,,,,0.040364583,-0.00390625,1,0,0,response3disk,33,-0.001302083,0.001302083,1,0,0,center_square,0,32,32,3,1,,,,,,,,,,,,,,,,,,,,,,,
685449,001,2022-11-21_02h02.42.385,Info_measure_main_exp,2022.2.2,Win32,57.82686636,,,,,,,,,,,,,,,,,,masks/mask_004.jpg,,,,,,,,,,,,,,,,,,,,,,,,,,,,,,,,,,,,,,,,,,,0,0,0,3,1,,,,,,,,,,,,,,,,,,,,,,,,,,,,,,,,,,,,,,,,,,,,,,
685449,001,2022-11-21_02h02.42.385,Info_measure_main_exp,2022.2.2,Win32,57.82686636,,,,,,,,,,,,,,,,,,masks/mask_005.jpg,,,,,,,,,,,,,,,,,,,,,,,,,,,,,,,,,,,,,,,,,,,0,1,1,4,1,,,,,,,,,,,,,,,,,,,,,,,,,,,,,,,,,,,,,,,,,,,,,,
685449,001,2022-11-21_02h02.42.385,Info_measure_main_exp,2022.2.2,Win32,57.82686636,,,,,,,,,,,,,,,,,,masks/mask_001.jpg,,,,,,,,,,,,,,,,,,,,,,,,,,,,,,,,,,,,,,,,,,,0,2,2,0,1,,,,,,,,,,,,,,,,,,,,,,,,,,,,,,,,,,,,,,,,,,,,,,
685449,001,2022-11-21_02h02.42.385,Info_measure_main_exp,2022.2.2,Win32,57.82686636,,,,,,,,,,,,,,,,,,masks/mask_003.jpg,,,,,,,,,,,,,,,,,,,,,,,,,,,,,,,,,,,,,,,,,,,0,3,3,2,1,,,,,,,,,,,,,,,,,,,,,,,,,,,,,,,,,,,,,,,,,,,,,,
685449,001,2022-11-21_02h02.42.385,Info_measure_main_exp,2022.2.2,Win32,57.82686636,,,,,,,,,,,,,,,,,,masks/mask_002.jpg,,,,,,,,,,,,,,,,,,,,,,,,,,,,,,,,,,,,,,,,,,,0,4,4,1,1,,,,,,,,,,,,,,,,,,,,,,,,,,,,,,,,,,,,,,,,,,,,,,
685449,001,2022-11-21_02h02.42.385,Info_measure_main_exp,2022.2.2,Win32,57.82686636,,,,,,,,,,,,,,,,,,masks/mask_001.jpg,,,,,,,,,,,,,,,,,,,,,,,,,,,,,,,,,,,,,,,,,,,,,,,,0,0,0,0,1,,,,,,,,,,,,,,,,,,,,,,,,,,,,,,,,,,,,,,,,,
685449,001,2022-11-21_02h02.42.385,Info_measure_main_exp,2022.2.2,Win32,57.82686636,,,,,,,,,,,,,,,,,,masks/mask_002.jpg,,,,,,,,,,,,,,,,,,,,,,,,,,,,,,,,,,,,,,,,,,,,,,,,0,1,1,1,1,,,,,,,,,,,,,,,,,,,,,,,,,,,,,,,,,,,,,,,,,
685449,001,2022-11-21_02h02.42.385,Info_measure_main_exp,2022.2.2,Win32,57.82686636,,,,,,,,,,,,,,,,,,masks/mask_005.jpg,,,,,,,,,,,,,,,,,,,,,,,,,,,,,,,,,,,,,,,,,,,,,,,,0,2,2,4,1,,,,,,,,,,,,,,,,,,,,,,,,,,,,,,,,,,,,,,,,,
685449,001,2022-11-21_02h02.42.385,Info_measure_main_exp,2022.2.2,Win32,57.82686636,,,,,,,,,,,,,,,,,,masks/mask_003.jpg,,,,,,,,,,,,,,,,,,,,,,,,,,,,,,,,,,,,,,,,,,,,,,,,0,3,3,2,1,,,,,,,,,,,,,,,,,,,,,,,,,,,,,,,,,,,,,,,,,
685449,001,2022-11-21_02h02.42.385,Info_measure_main_exp,2022.2.2,Win32,57.82686636,,,,,,,,,,,,,,,,,,masks/mask_004.jpg,,,,,,,,,,,,,,,,,,,,,,,,,,,,,,,,,,,,,,,,,,,,,,,,0,4,4,3,1,,,,,,,,,,,,,,,,,,,,,,,,,,,,,,,,,,,,,,,,,
685449,001,2022-11-21_02h02.42.385,Info_measure_main_exp,2022.2.2,Win32,57.82686636,,,,,,,,,,,,,,,,,,,,,,,,,,,,,,4,3.1147,1,,,,,,,,,,,,1,131,5,5,1950,1,absent_patch/patch0001950.jpg,present_patch/cong_131_5_a.jpg,,,,,,,,,,,,,,,,,,,,0.040364583,-0.0625,1,0,0,response3disk,34,-0.002604167,-0.001302083,1,0,0,center_square,0,33,33,39,1,,,,,,,,,,,,,,,,,,,,,,,
685449,001,2022-11-21_02h02.42.385,Info_measure_main_exp,2022.2.2,Win32,57.82686636,,,,,,,,,,,,,,,,,,masks/mask_001.jpg,,,,,,,,,,,,,,,,,,,,,,,,,,,,,,,,,,,,,,,,,,,0,0,0,0,1,,,,,,,,,,,,,,,,,,,,,,,,,,,,,,,,,,,,,,,,,,,,,,
685449,001,2022-11-21_02h02.42.385,Info_measure_main_exp,2022.2.2,Win32,57.82686636,,,,,,,,,,,,,,,,,,masks/mask_002.jpg,,,,,,,,,,,,,,,,,,,,,,,,,,,,,,,,,,,,,,,,,,,0,1,1,1,1,,,,,,,,,,,,,,,,,,,,,,,,,,,,,,,,,,,,,,,,,,,,,,
685449,001,2022-11-21_02h02.42.385,Info_measure_main_exp,2022.2.2,Win32,57.82686636,,,,,,,,,,,,,,,,,,masks/mask_004.jpg,,,,,,,,,,,,,,,,,,,,,,,,,,,,,,,,,,,,,,,,,,,0,2,2,3,1,,,,,,,,,,,,,,,,,,,,,,,,,,,,,,,,,,,,,,,,,,,,,,
685449,001,2022-11-21_02h02.42.385,Info_measure_main_exp,2022.2.2,Win32,57.82686636,,,,,,,,,,,,,,,,,,masks/mask_005.jpg,,,,,,,,,,,,,,,,,,,,,,,,,,,,,,,,,,,,,,,,,,,0,3,3,4,1,,,,,,,,,,,,,,,,,,,,,,,,,,,,,,,,,,,,,,,,,,,,,,
685449,001,2022-11-21_02h02.42.385,Info_measure_main_exp,2022.2.2,Win32,57.82686636,,,,,,,,,,,,,,,,,,masks/mask_003.jpg,,,,,,,,,,,,,,,,,,,,,,,,,,,,,,,,,,,,,,,,,,,0,4,4,2,1,,,,,,,,,,,,,,,,,,,,,,,,,,,,,,,,,,,,,,,,,,,,,,
685449,001,2022-11-21_02h02.42.385,Info_measure_main_exp,2022.2.2,Win32,57.82686636,,,,,,,,,,,,,,,,,,masks/mask_001.jpg,,,,,,,,,,,,,,,,,,,,,,,,,,,,,,,,,,,,,,,,,,,,,,,,0,0,0,0,1,,,,,,,,,,,,,,,,,,,,,,,,,,,,,,,,,,,,,,,,,
685449,001,2022-11-21_02h02.42.385,Info_measure_main_exp,2022.2.2,Win32,57.82686636,,,,,,,,,,,,,,,,,,masks/mask_002.jpg,,,,,,,,,,,,,,,,,,,,,,,,,,,,,,,,,,,,,,,,,,,,,,,,0,1,1,1,1,,,,,,,,,,,,,,,,,,,,,,,,,,,,,,,,,,,,,,,,,
685449,001,2022-11-21_02h02.42.385,Info_measure_main_exp,2022.2.2,Win32,57.82686636,,,,,,,,,,,,,,,,,,masks/mask_004.jpg,,,,,,,,,,,,,,,,,,,,,,,,,,,,,,,,,,,,,,,,,,,,,,,,0,2,2,3,1,,,,,,,,,,,,,,,,,,,,,,,,,,,,,,,,,,,,,,,,,
685449,001,2022-11-21_02h02.42.385,Info_measure_main_exp,2022.2.2,Win32,57.82686636,,,,,,,,,,,,,,,,,,masks/mask_005.jpg,,,,,,,,,,,,,,,,,,,,,,,,,,,,,,,,,,,,,,,,,,,,,,,,0,3,3,4,1,,,,,,,,,,,,,,,,,,,,,,,,,,,,,,,,,,,,,,,,,
