participant,session,date,expName,psychopyVersion,OS,frameRate,space_press_continue.keys,space_press_continue.rt,space_press_continue_2.keys,space_press_continue_2.rt,space_press_continue_3.keys,space_press_continue_3.rt,space_press_continue_4.keys,space_press_continue_4.rt,space_press_continue_5.keys,space_press_continue_5.rt,space_press_continue_6.keys,space_press_continue_6.rt,prac_mask_loop_1.thisRepN,prac_mask_loop_1.thisTrialN,prac_mask_loop_1.thisN,prac_mask_loop_1.thisIndex,prac_mask_loop_1.ran,mask_name,prac_mask_loop_2.thisRepN,prac_mask_loop_2.thisTrialN,prac_mask_loop_2.thisN,prac_mask_loop_2.thisIndex,prac_mask_loop_2.ran,mouse_2.x,mouse_2.y,mouse_2.leftButton,mouse_2.midButton,mouse_2.rightButton,mouse_2.clicked_name,similarity,response_time,Pass,mouse_12.x,mouse_12.y,mouse_12.leftButton,mouse_12.midButton,mouse_12.rightButton,mouse_12.clicked_name,prac_loop.thisRepN,prac_loop.thisTrialN,prac_loop.thisN,prac_loop.thisIndex,prac_loop.ran,Pair_type,Image_num,Patch_1_loc,Patch_2_loc,Patch_1_info,Patch_2_info,Patch_1_name,Patch_2_name,mouse_1.x,mouse_1.y,mouse_1.leftButton,mouse_1.midButton,mouse_1.rightButton,mouse_1.time,mouse_1.clicked_name,space_press_continue_7.keys,space_press_continue_7.rt,mask_loop.thisRepN,mask_loop.thisTrialN,mask_loop.thisN,mask_loop.thisIndex,mask_loop.ran,mask_loop_2.thisRepN,mask_loop_2.thisTrialN,mask_loop_2.thisN,mask_loop_2.thisIndex,mask_loop_2.ran,mouse.x,mouse.y,mouse.leftButton,mouse.midButton,mouse.rightButton,mouse.clicked_name,trialNumber,mouse_11.x,mouse_11.y,mouse_11.leftButton,mouse_11.midButton,mouse_11.rightButton,mouse_11.clicked_name,first_pass_loop.thisRepN,first_pass_loop.thisTrialN,first_pass_loop.thisN,first_pass_loop.thisIndex,first_pass_loop.ran,mask_loop_3.thisRepN,mask_loop_3.thisTrialN,mask_loop_3.thisN,mask_loop_3.thisIndex,mask_loop_3.ran,mask_loop_4.thisRepN,mask_loop_4.thisTrialN,mask_loop_4.thisN,mask_loop_4.thisIndex,mask_loop_4.ran,mouse_3.x,mouse_3.y,mouse_3.leftButton,mouse_3.midButton,mouse_3.rightButton,mouse_3.clicked_name,double_pass_loop.thisRepN,double_pass_loop.thisTrialN,double_pass_loop.thisN,double_pass_loop.thisIndex,double_pass_loop.ran,space_exit.keys,space_exit.rt
685903,001,2022-11-21_24h56.44.849,Info_measure_main_exp,2022.2.2,Win32,58.55829478,,,,,,,,,,,,,,,,,,,,,,,,,,,,,,,,,,,,,,,,,,,,,,,,,,,,,,,,,,,,,,,,,,,,,,,,,,,,,,,,,,,,,,,,,,,,,,,,,,,,,,,,,,,,,,,
685903,001,2022-11-21_24h56.44.849,Info_measure_main_exp,2022.2.2,Win32,58.55829478,,,,,,,,,,,,,,,,,,,,,,,,,,,,,,,,,,,,,,,,,,,,,,,,,,,,,,,,,,,,,,,,,,,,,,,,,,,,,,,,,,,,,,,,,,,,,,,,,,,,,,,,,,,,,,,
685903,001,2022-11-21_24h56.44.849,Info_measure_main_exp,2022.2.2,Win32,58.55829478,space,19.212,,,,,,,,,,,,,,,,,,,,,,,,,,,,,,,,,,,,,,,,,,,,,,,,,,,,,,,,,,,,,,,,,,,,,,,,,,,,,,,,,,,,,,,,,,,,,,,,,,,,,,,,,,,,,
685903,001,2022-11-21_24h56.44.849,Info_measure_main_exp,2022.2.2,Win32,58.55829478,,,space,19.1437,,,,,,,,,,,,,,,,,,,,,,,,,,,,,,,,,,,,,,,,,,,,,,,,,,,,,,,,,,,,,,,,,,,,,,,,,,,,,,,,,,,,,,,,,,,,,,,,,,,,,,,,,,,
685903,001,2022-11-21_24h56.44.849,Info_measure_main_exp,2022.2.2,Win32,58.55829478,,,,,space,5.8429,,,,,,,,,,,,,,,,,,,,,,,,,,,,,,,,,,,,,,,,,,,,,,,,,,,,,,,,,,,,,,,,,,,,,,,,,,,,,,,,,,,,,,,,,,,,,,,,,,,,,,,,,
685903,001,2022-11-21_24h56.44.849,Info_measure_main_exp,2022.2.2,Win32,58.55829478,,,,,,,space,23.5058,,,,,,,,,,,,,,,,,,,,,,,,,,,,,,,,,,,,,,,,,,,,,,,,,,,,,,,,,,,,,,,,,,,,,,,,,,,,,,,,,,,,,,,,,,,,,,,,,,,,,,,
685903,001,2022-11-21_24h56.44.849,Info_measure_main_exp,2022.2.2,Win32,58.55829478,,,,,,,,,space,7.6349,,,,,,,,,,,,,,,,,,,,,,,,,,,,,,,,,,,,,,,,,,,,,,,,,,,,,,,,,,,,,,,,,,,,,,,,,,,,,,,,,,,,,,,,,,,,,,,,,,,,,
685903,001,2022-11-21_24h56.44.849,Info_measure_main_exp,2022.2.2,Win32,58.55829478,,,,,,,,,,,space,3.2302,,,,,,,,,,,,,,,,,,,,,,,,,,,,,,,,,,,,,,,,,,,,,,,,,,,,,,,,,,,,,,,,,,,,,,,,,,,,,,,,,,,,,,,,,,,,,,,,,,,
685903,001,2022-11-21_24h56.44.849,Info_measure_main_exp,2022.2.2,Win32,58.55829478,,,,,,,,,,,,,0,0,0,1,1,masks/mask_002.jpg,,,,,,,,,,,,,,,,,,,,,,,,,,,,,,,,,,,,,,,,,,,,,,,,,,,,,,,,,,,,,,,,,,,,,,,,,,,,,,,,,,,,,,,,,,,,,
685903,001,2022-11-21_24h56.44.849,Info_measure_main_exp,2022.2.2,Win32,58.55829478,,,,,,,,,,,,,0,1,1,3,1,masks/mask_004.jpg,,,,,,,,,,,,,,,,,,,,,,,,,,,,,,,,,,,,,,,,,,,,,,,,,,,,,,,,,,,,,,,,,,,,,,,,,,,,,,,,,,,,,,,,,,,,,
685903,001,2022-11-21_24h56.44.849,Info_measure_main_exp,2022.2.2,Win32,58.55829478,,,,,,,,,,,,,0,2,2,2,1,masks/mask_003.jpg,,,,,,,,,,,,,,,,,,,,,,,,,,,,,,,,,,,,,,,,,,,,,,,,,,,,,,,,,,,,,,,,,,,,,,,,,,,,,,,,,,,,,,,,,,,,,
685903,001,2022-11-21_24h56.44.849,Info_measure_main_exp,2022.2.2,Win32,58.55829478,,,,,,,,,,,,,0,3,3,0,1,masks/mask_001.jpg,,,,,,,,,,,,,,,,,,,,,,,,,,,,,,,,,,,,,,,,,,,,,,,,,,,,,,,,,,,,,,,,,,,,,,,,,,,,,,,,,,,,,,,,,,,,,
685903,001,2022-11-21_24h56.44.849,Info_measure_main_exp,2022.2.2,Win32,58.55829478,,,,,,,,,,,,,0,4,4,4,1,masks/mask_005.jpg,,,,,,,,,,,,,,,,,,,,,,,,,,,,,,,,,,,,,,,,,,,,,,,,,,,,,,,,,,,,,,,,,,,,,,,,,,,,,,,,,,,,,,,,,,,,,
685903,001,2022-11-21_24h56.44.849,Info_measure_main_exp,2022.2.2,Win32,58.55829478,,,,,,,,,,,,,,,,,,masks/mask_003.jpg,0,0,0,2,1,,,,,,,,,,,,,,,,,,,,,,,,,,,,,,,,,,,,,,,,,,,,,,,,,,,,,,,,,,,,,,,,,,,,,,,,,,,,,,,,,,,,,,,,
685903,001,2022-11-21_24h56.44.849,Info_measure_main_exp,2022.2.2,Win32,58.55829478,,,,,,,,,,,,,,,,,,masks/mask_005.jpg,0,1,1,4,1,,,,,,,,,,,,,,,,,,,,,,,,,,,,,,,,,,,,,,,,,,,,,,,,,,,,,,,,,,,,,,,,,,,,,,,,,,,,,,,,,,,,,,,,
685903,001,2022-11-21_24h56.44.849,Info_measure_main_exp,2022.2.2,Win32,58.55829478,,,,,,,,,,,,,,,,,,masks/mask_004.jpg,0,2,2,3,1,,,,,,,,,,,,,,,,,,,,,,,,,,,,,,,,,,,,,,,,,,,,,,,,,,,,,,,,,,,,,,,,,,,,,,,,,,,,,,,,,,,,,,,,
685903,001,2022-11-21_24h56.44.849,Info_measure_main_exp,2022.2.2,Win32,58.55829478,,,,,,,,,,,,,,,,,,masks/mask_002.jpg,0,3,3,1,1,,,,,,,,,,,,,,,,,,,,,,,,,,,,,,,,,,,,,,,,,,,,,,,,,,,,,,,,,,,,,,,,,,,,,,,,,,,,,,,,,,,,,,,,
685903,001,2022-11-21_24h56.44.849,Info_measure_main_exp,2022.2.2,Win32,58.55829478,,,,,,,,,,,,,,,,,,masks/mask_001.jpg,0,4,4,0,1,,,,,,,,,,,,,,,,,,,,,,,,,,,,,,,,,,,,,,,,,,,,,,,,,,,,,,,,,,,,,,,,,,,,,,,,,,,,,,,,,,,,,,,,
685903,001,2022-11-21_24h56.44.849,Info_measure_main_exp,2022.2.2,Win32,58.55829478,,,,,,,,,,,,,,,,,,,,,,,,-0.032552083,-0.106770833,1,0,0,response5disk,3,82.7538,1,-0.005208333,0.00390625,1,0,0,center_square,0,0,0,0,1,0,131,5,5,2370,2406,prac_patch/patch0002370.jpg,prac_patch/patch0002406.jpg,,,,,,,,,,,,,,,,,,,,,,,,,,,,,,,,,,,,,,,,,,,,,,,,,,,,,,,,,,,,
685903,001,2022-11-21_24h56.44.849,Info_measure_main_exp,2022.2.2,Win32,58.55829478,,,,,,,,,,,,,0,0,0,4,1,masks/mask_005.jpg,,,,,,,,,,,,,,,,,,,,,,,,,,,,,,,,,,,,,,,,,,,,,,,,,,,,,,,,,,,,,,,,,,,,,,,,,,,,,,,,,,,,,,,,,,,,,
685903,001,2022-11-21_24h56.44.849,Info_measure_main_exp,2022.2.2,Win32,58.55829478,,,,,,,,,,,,,0,1,1,1,1,masks/mask_002.jpg,,,,,,,,,,,,,,,,,,,,,,,,,,,,,,,,,,,,,,,,,,,,,,,,,,,,,,,,,,,,,,,,,,,,,,,,,,,,,,,,,,,,,,,,,,,,,
685903,001,2022-11-21_24h56.44.849,Info_measure_main_exp,2022.2.2,Win32,58.55829478,,,,,,,,,,,,,0,2,2,0,1,masks/mask_001.jpg,,,,,,,,,,,,,,,,,,,,,,,,,,,,,,,,,,,,,,,,,,,,,,,,,,,,,,,,,,,,,,,,,,,,,,,,,,,,,,,,,,,,,,,,,,,,,
685903,001,2022-11-21_24h56.44.849,Info_measure_main_exp,2022.2.2,Win32,58.55829478,,,,,,,,,,,,,0,3,3,3,1,masks/mask_004.jpg,,,,,,,,,,,,,,,,,,,,,,,,,,,,,,,,,,,,,,,,,,,,,,,,,,,,,,,,,,,,,,,,,,,,,,,,,,,,,,,,,,,,,,,,,,,,,
685903,001,2022-11-21_24h56.44.849,Info_measure_main_exp,2022.2.2,Win32,58.55829478,,,,,,,,,,,,,0,4,4,2,1,masks/mask_003.jpg,,,,,,,,,,,,,,,,,,,,,,,,,,,,,,,,,,,,,,,,,,,,,,,,,,,,,,,,,,,,,,,,,,,,,,,,,,,,,,,,,,,,,,,,,,,,,
685903,001,2022-11-21_24h56.44.849,Info_measure_main_exp,2022.2.2,Win32,58.55829478,,,,,,,,,,,,,,,,,,masks/mask_004.jpg,0,0,0,3,1,,,,,,,,,,,,,,,,,,,,,,,,,,,,,,,,,,,,,,,,,,,,,,,,,,,,,,,,,,,,,,,,,,,,,,,,,,,,,,,,,,,,,,,,
685903,001,2022-11-21_24h56.44.849,Info_measure_main_exp,2022.2.2,Win32,58.55829478,,,,,,,,,,,,,,,,,,masks/mask_005.jpg,0,1,1,4,1,,,,,,,,,,,,,,,,,,,,,,,,,,,,,,,,,,,,,,,,,,,,,,,,,,,,,,,,,,,,,,,,,,,,,,,,,,,,,,,,,,,,,,,,
685903,001,2022-11-21_24h56.44.849,Info_measure_main_exp,2022.2.2,Win32,58.55829478,,,,,,,,,,,,,,,,,,masks/mask_002.jpg,0,2,2,1,1,,,,,,,,,,,,,,,,,,,,,,,,,,,,,,,,,,,,,,,,,,,,,,,,,,,,,,,,,,,,,,,,,,,,,,,,,,,,,,,,,,,,,,,,
685903,001,2022-11-21_24h56.44.849,Info_measure_main_exp,2022.2.2,Win32,58.55829478,,,,,,,,,,,,,,,,,,masks/mask_001.jpg,0,3,3,0,1,,,,,,,,,,,,,,,,,,,,,,,,,,,,,,,,,,,,,,,,,,,,,,,,,,,,,,,,,,,,,,,,,,,,,,,,,,,,,,,,,,,,,,,,
685903,001,2022-11-21_24h56.44.849,Info_measure_main_exp,2022.2.2,Win32,58.55829478,,,,,,,,,,,,,,,,,,masks/mask_003.jpg,0,4,4,2,1,,,,,,,,,,,,,,,,,,,,,,,,,,,,,,,,,,,,,,,,,,,,,,,,,,,,,,,,,,,,,,,,,,,,,,,,,,,,,,,,,,,,,,,,
685903,001,2022-11-21_24h56.44.849,Info_measure_main_exp,2022.2.2,Win32,58.55829478,,,,,,,,,,,,,,,,,,,,,,,,0.055989583,-0.115885417,1,0,0,response3disk,4,111.931,1,-0.006510417,-0.001302083,1,0,0,center_square,0,1,1,1,1,0,131,5,5,2514,2490,prac_patch/patch0002514.jpg,prac_patch/patch0002490.jpg,,,,,,,,,,,,,,,,,,,,,,,,,,,,,,,,,,,,,,,,,,,,,,,,,,,,,,,,,,,,
685903,001,2022-11-21_24h56.44.849,Info_measure_main_exp,2022.2.2,Win32,58.55829478,,,,,,,,,,,,,0,0,0,3,1,masks/mask_004.jpg,,,,,,,,,,,,,,,,,,,,,,,,,,,,,,,,,,,,,,,,,,,,,,,,,,,,,,,,,,,,,,,,,,,,,,,,,,,,,,,,,,,,,,,,,,,,,
685903,001,2022-11-21_24h56.44.849,Info_measure_main_exp,2022.2.2,Win32,58.55829478,,,,,,,,,,,,,0,1,1,4,1,masks/mask_005.jpg,,,,,,,,,,,,,,,,,,,,,,,,,,,,,,,,,,,,,,,,,,,,,,,,,,,,,,,,,,,,,,,,,,,,,,,,,,,,,,,,,,,,,,,,,,,,,
685903,001,2022-11-21_24h56.44.849,Info_measure_main_exp,2022.2.2,Win32,58.55829478,,,,,,,,,,,,,0,2,2,0,1,masks/mask_001.jpg,,,,,,,,,,,,,,,,,,,,,,,,,,,,,,,,,,,,,,,,,,,,,,,,,,,,,,,,,,,,,,,,,,,,,,,,,,,,,,,,,,,,,,,,,,,,,
685903,001,2022-11-21_24h56.44.849,Info_measure_main_exp,2022.2.2,Win32,58.55829478,,,,,,,,,,,,,0,3,3,2,1,masks/mask_003.jpg,,,,,,,,,,,,,,,,,,,,,,,,,,,,,,,,,,,,,,,,,,,,,,,,,,,,,,,,,,,,,,,,,,,,,,,,,,,,,,,,,,,,,,,,,,,,,
685903,001,2022-11-21_24h56.44.849,Info_measure_main_exp,2022.2.2,Win32,58.55829478,,,,,,,,,,,,,0,4,4,1,1,masks/mask_002.jpg,,,,,,,,,,,,,,,,,,,,,,,,,,,,,,,,,,,,,,,,,,,,,,,,,,,,,,,,,,,,,,,,,,,,,,,,,,,,,,,,,,,,,,,,,,,,,
685903,001,2022-11-21_24h56.44.849,Info_measure_main_exp,2022.2.2,Win32,58.55829478,,,,,,,,,,,,,,,,,,masks/mask_003.jpg,0,0,0,2,1,,,,,,,,,,,,,,,,,,,,,,,,,,,,,,,,,,,,,,,,,,,,,,,,,,,,,,,,,,,,,,,,,,,,,,,,,,,,,,,,,,,,,,,,
685903,001,2022-11-21_24h56.44.849,Info_measure_main_exp,2022.2.2,Win32,58.55829478,,,,,,,,,,,,,,,,,,masks/mask_001.jpg,0,1,1,0,1,,,,,,,,,,,,,,,,,,,,,,,,,,,,,,,,,,,,,,,,,,,,,,,,,,,,,,,,,,,,,,,,,,,,,,,,,,,,,,,,,,,,,,,,
685903,001,2022-11-21_24h56.44.849,Info_measure_main_exp,2022.2.2,Win32,58.55829478,,,,,,,,,,,,,,,,,,masks/mask_002.jpg,0,2,2,1,1,,,,,,,,,,,,,,,,,,,,,,,,,,,,,,,,,,,,,,,,,,,,,,,,,,,,,,,,,,,,,,,,,,,,,,,,,,,,,,,,,,,,,,,,
685903,001,2022-11-21_24h56.44.849,Info_measure_main_exp,2022.2.2,Win32,58.55829478,,,,,,,,,,,,,,,,,,masks/mask_004.jpg,0,3,3,3,1,,,,,,,,,,,,,,,,,,,,,,,,,,,,,,,,,,,,,,,,,,,,,,,,,,,,,,,,,,,,,,,,,,,,,,,,,,,,,,,,,,,,,,,,
685903,001,2022-11-21_24h56.44.849,Info_measure_main_exp,2022.2.2,Win32,58.55829478,,,,,,,,,,,,,,,,,,masks/mask_005.jpg,0,4,4,4,1,,,,,,,,,,,,,,,,,,,,,,,,,,,,,,,,,,,,,,,,,,,,,,,,,,,,,,,,,,,,,,,,,,,,,,,,,,,,,,,,,,,,,,,,
685903,001,2022-11-21_24h56.44.849,Info_measure_main_exp,2022.2.2,Win32,58.55829478,,,,,,,,,,,,,,,,,,,,,,,,-0.0625,0.16015625,1,0,0,response7disk,0,121.6479,1,-0.005208333,0.00390625,1,0,0,center_square,0,2,2,2,1,0,131,5,5,2526,2526,prac_patch/patch0002526.jpg,prac_patch/patch0002526.jpg,,,,,,,,,,,,,,,,,,,,,,,,,,,,,,,,,,,,,,,,,,,,,,,,,,,,,,,,,,,,
685903,001,2022-11-21_24h56.44.849,Info_measure_main_exp,2022.2.2,Win32,58.55829478,,,,,,,,,,,,,,,,,,,,,,,,,,,,,,,,,,,,,,,,,,,,,,,,,,,,,,,,,,,space,1.8557,,,,,,,,,,,,,,,,,,,,,,,,,,,,,,,,,,,,,,,,,,,,,,,,,,,
685903,001,2022-11-21_24h56.44.849,Info_measure_main_exp,2022.2.2,Win32,58.55829478,,,,,,,,,,,,,,,,,,masks/mask_003.jpg,,,,,,,,,,,,,,,,,,,,,,,,,,,,,,,,,,,,,,,,,,,0,0,0,2,1,,,,,,,,,,,,,,,,,,,,,,,,,,,,,,,,,,,,,,,,,,,,,,
685903,001,2022-11-21_24h56.44.849,Info_measure_main_exp,2022.2.2,Win32,58.55829478,,,,,,,,,,,,,,,,,,masks/mask_001.jpg,,,,,,,,,,,,,,,,,,,,,,,,,,,,,,,,,,,,,,,,,,,0,1,1,0,1,,,,,,,,,,,,,,,,,,,,,,,,,,,,,,,,,,,,,,,,,,,,,,
685903,001,2022-11-21_24h56.44.849,Info_measure_main_exp,2022.2.2,Win32,58.55829478,,,,,,,,,,,,,,,,,,masks/mask_004.jpg,,,,,,,,,,,,,,,,,,,,,,,,,,,,,,,,,,,,,,,,,,,0,2,2,3,1,,,,,,,,,,,,,,,,,,,,,,,,,,,,,,,,,,,,,,,,,,,,,,
685903,001,2022-11-21_24h56.44.849,Info_measure_main_exp,2022.2.2,Win32,58.55829478,,,,,,,,,,,,,,,,,,masks/mask_005.jpg,,,,,,,,,,,,,,,,,,,,,,,,,,,,,,,,,,,,,,,,,,,0,3,3,4,1,,,,,,,,,,,,,,,,,,,,,,,,,,,,,,,,,,,,,,,,,,,,,,
685903,001,2022-11-21_24h56.44.849,Info_measure_main_exp,2022.2.2,Win32,58.55829478,,,,,,,,,,,,,,,,,,masks/mask_002.jpg,,,,,,,,,,,,,,,,,,,,,,,,,,,,,,,,,,,,,,,,,,,0,4,4,1,1,,,,,,,,,,,,,,,,,,,,,,,,,,,,,,,,,,,,,,,,,,,,,,
685903,001,2022-11-21_24h56.44.849,Info_measure_main_exp,2022.2.2,Win32,58.55829478,,,,,,,,,,,,,,,,,,masks/mask_003.jpg,,,,,,,,,,,,,,,,,,,,,,,,,,,,,,,,,,,,,,,,,,,,,,,,0,0,0,2,1,,,,,,,,,,,,,,,,,,,,,,,,,,,,,,,,,,,,,,,,,
685903,001,2022-11-21_24h56.44.849,Info_measure_main_exp,2022.2.2,Win32,58.55829478,,,,,,,,,,,,,,,,,,masks/mask_005.jpg,,,,,,,,,,,,,,,,,,,,,,,,,,,,,,,,,,,,,,,,,,,,,,,,0,1,1,4,1,,,,,,,,,,,,,,,,,,,,,,,,,,,,,,,,,,,,,,,,,
685903,001,2022-11-21_24h56.44.849,Info_measure_main_exp,2022.2.2,Win32,58.55829478,,,,,,,,,,,,,,,,,,masks/mask_004.jpg,,,,,,,,,,,,,,,,,,,,,,,,,,,,,,,,,,,,,,,,,,,,,,,,0,2,2,3,1,,,,,,,,,,,,,,,,,,,,,,,,,,,,,,,,,,,,,,,,,
685903,001,2022-11-21_24h56.44.849,Info_measure_main_exp,2022.2.2,Win32,58.55829478,,,,,,,,,,,,,,,,,,masks/mask_002.jpg,,,,,,,,,,,,,,,,,,,,,,,,,,,,,,,,,,,,,,,,,,,,,,,,0,3,3,1,1,,,,,,,,,,,,,,,,,,,,,,,,,,,,,,,,,,,,,,,,,
685903,001,2022-11-21_24h56.44.849,Info_measure_main_exp,2022.2.2,Win32,58.55829478,,,,,,,,,,,,,,,,,,masks/mask_001.jpg,,,,,,,,,,,,,,,,,,,,,,,,,,,,,,,,,,,,,,,,,,,,,,,,0,4,4,0,1,,,,,,,,,,,,,,,,,,,,,,,,,,,,,,,,,,,,,,,,,
685903,001,2022-11-21_24h56.44.849,Info_measure_main_exp,2022.2.2,Win32,58.55829478,,,,,,,,,,,,,,,,,,,,,,,,,,,,,,4,3.3365,1,,,,,,,,,,,,1,131,5,5,1950,1,absent_patch/patch0001950.jpg,present_patch/cong_131_5_a.jpg,,,,,,,,,,,,,,,,,,,,0.046875,-0.131510417,1,0,0,response3disk,1,-0.0078125,0.005208333,1,0,0,center_square,0,0,0,39,1,,,,,,,,,,,,,,,,,,,,,,,
685903,001,2022-11-21_24h56.44.849,Info_measure_main_exp,2022.2.2,Win32,58.55829478,,,,,,,,,,,,,,,,,,masks/mask_001.jpg,,,,,,,,,,,,,,,,,,,,,,,,,,,,,,,,,,,,,,,,,,,0,0,0,0,1,,,,,,,,,,,,,,,,,,,,,,,,,,,,,,,,,,,,,,,,,,,,,,
685903,001,2022-11-21_24h56.44.849,Info_measure_main_exp,2022.2.2,Win32,58.55829478,,,,,,,,,,,,,,,,,,masks/mask_004.jpg,,,,,,,,,,,,,,,,,,,,,,,,,,,,,,,,,,,,,,,,,,,0,1,1,3,1,,,,,,,,,,,,,,,,,,,,,,,,,,,,,,,,,,,,,,,,,,,,,,
685903,001,2022-11-21_24h56.44.849,Info_measure_main_exp,2022.2.2,Win32,58.55829478,,,,,,,,,,,,,,,,,,masks/mask_002.jpg,,,,,,,,,,,,,,,,,,,,,,,,,,,,,,,,,,,,,,,,,,,0,2,2,1,1,,,,,,,,,,,,,,,,,,,,,,,,,,,,,,,,,,,,,,,,,,,,,,
685903,001,2022-11-21_24h56.44.849,Info_measure_main_exp,2022.2.2,Win32,58.55829478,,,,,,,,,,,,,,,,,,masks/mask_005.jpg,,,,,,,,,,,,,,,,,,,,,,,,,,,,,,,,,,,,,,,,,,,0,3,3,4,1,,,,,,,,,,,,,,,,,,,,,,,,,,,,,,,,,,,,,,,,,,,,,,
685903,001,2022-11-21_24h56.44.849,Info_measure_main_exp,2022.2.2,Win32,58.55829478,,,,,,,,,,,,,,,,,,masks/mask_003.jpg,,,,,,,,,,,,,,,,,,,,,,,,,,,,,,,,,,,,,,,,,,,0,4,4,2,1,,,,,,,,,,,,,,,,,,,,,,,,,,,,,,,,,,,,,,,,,,,,,,
685903,001,2022-11-21_24h56.44.849,Info_measure_main_exp,2022.2.2,Win32,58.55829478,,,,,,,,,,,,,,,,,,masks/mask_001.jpg,,,,,,,,,,,,,,,,,,,,,,,,,,,,,,,,,,,,,,,,,,,,,,,,0,0,0,0,1,,,,,,,,,,,,,,,,,,,,,,,,,,,,,,,,,,,,,,,,,
685903,001,2022-11-21_24h56.44.849,Info_measure_main_exp,2022.2.2,Win32,58.55829478,,,,,,,,,,,,,,,,,,masks/mask_005.jpg,,,,,,,,,,,,,,,,,,,,,,,,,,,,,,,,,,,,,,,,,,,,,,,,0,1,1,4,1,,,,,,,,,,,,,,,,,,,,,,,,,,,,,,,,,,,,,,,,,
685903,001,2022-11-21_24h56.44.849,Info_measure_main_exp,2022.2.2,Win32,58.55829478,,,,,,,,,,,,,,,,,,masks/mask_003.jpg,,,,,,,,,,,,,,,,,,,,,,,,,,,,,,,,,,,,,,,,,,,,,,,,0,2,2,2,1,,,,,,,,,,,,,,,,,,,,,,,,,,,,,,,,,,,,,,,,,
685903,001,2022-11-21_24h56.44.849,Info_measure_main_exp,2022.2.2,Win32,58.55829478,,,,,,,,,,,,,,,,,,masks/mask_002.jpg,,,,,,,,,,,,,,,,,,,,,,,,,,,,,,,,,,,,,,,,,,,,,,,,0,3,3,1,1,,,,,,,,,,,,,,,,,,,,,,,,,,,,,,,,,,,,,,,,,
685903,001,2022-11-21_24h56.44.849,Info_measure_main_exp,2022.2.2,Win32,58.55829478,,,,,,,,,,,,,,,,,,masks/mask_004.jpg,,,,,,,,,,,,,,,,,,,,,,,,,,,,,,,,,,,,,,,,,,,,,,,,0,4,4,3,1,,,,,,,,,,,,,,,,,,,,,,,,,,,,,,,,,,,,,,,,,
685903,001,2022-11-21_24h56.44.849,Info_measure_main_exp,2022.2.2,Win32,58.55829478,,,,,,,,,,,,,,,,,,,,,,,,,,,,,,5,2.3402,1,,,,,,,,,,,,0,131,5,5,1950,2082,absent_patch/patch0001950.jpg,absent_patch/patch0002082.jpg,,,,,,,,,,,,,,,,,,,,0.108072917,-0.040364583,1,0,0,response3disk,2,0.00390625,-0.002604167,1,0,0,center_square,0,1,1,12,1,,,,,,,,,,,,,,,,,,,,,,,
685903,001,2022-11-21_24h56.44.849,Info_measure_main_exp,2022.2.2,Win32,58.55829478,,,,,,,,,,,,,,,,,,masks/mask_004.jpg,,,,,,,,,,,,,,,,,,,,,,,,,,,,,,,,,,,,,,,,,,,0,0,0,3,1,,,,,,,,,,,,,,,,,,,,,,,,,,,,,,,,,,,,,,,,,,,,,,
685903,001,2022-11-21_24h56.44.849,Info_measure_main_exp,2022.2.2,Win32,58.55829478,,,,,,,,,,,,,,,,,,masks/mask_005.jpg,,,,,,,,,,,,,,,,,,,,,,,,,,,,,,,,,,,,,,,,,,,0,1,1,4,1,,,,,,,,,,,,,,,,,,,,,,,,,,,,,,,,,,,,,,,,,,,,,,
685903,001,2022-11-21_24h56.44.849,Info_measure_main_exp,2022.2.2,Win32,58.55829478,,,,,,,,,,,,,,,,,,masks/mask_001.jpg,,,,,,,,,,,,,,,,,,,,,,,,,,,,,,,,,,,,,,,,,,,0,2,2,0,1,,,,,,,,,,,,,,,,,,,,,,,,,,,,,,,,,,,,,,,,,,,,,,
685903,001,2022-11-21_24h56.44.849,Info_measure_main_exp,2022.2.2,Win32,58.55829478,,,,,,,,,,,,,,,,,,masks/mask_003.jpg,,,,,,,,,,,,,,,,,,,,,,,,,,,,,,,,,,,,,,,,,,,0,3,3,2,1,,,,,,,,,,,,,,,,,,,,,,,,,,,,,,,,,,,,,,,,,,,,,,
685903,001,2022-11-21_24h56.44.849,Info_measure_main_exp,2022.2.2,Win32,58.55829478,,,,,,,,,,,,,,,,,,masks/mask_002.jpg,,,,,,,,,,,,,,,,,,,,,,,,,,,,,,,,,,,,,,,,,,,0,4,4,1,1,,,,,,,,,,,,,,,,,,,,,,,,,,,,,,,,,,,,,,,,,,,,,,
685903,001,2022-11-21_24h56.44.849,Info_measure_main_exp,2022.2.2,Win32,58.55829478,,,,,,,,,,,,,,,,,,masks/mask_004.jpg,,,,,,,,,,,,,,,,,,,,,,,,,,,,,,,,,,,,,,,,,,,,,,,,0,0,0,3,1,,,,,,,,,,,,,,,,,,,,,,,,,,,,,,,,,,,,,,,,,
685903,001,2022-11-21_24h56.44.849,Info_measure_main_exp,2022.2.2,Win32,58.55829478,,,,,,,,,,,,,,,,,,masks/mask_002.jpg,,,,,,,,,,,,,,,,,,,,,,,,,,,,,,,,,,,,,,,,,,,,,,,,0,1,1,1,1,,,,,,,,,,,,,,,,,,,,,,,,,,,,,,,,,,,,,,,,,
685903,001,2022-11-21_24h56.44.849,Info_measure_main_exp,2022.2.2,Win32,58.55829478,,,,,,,,,,,,,,,,,,masks/mask_003.jpg,,,,,,,,,,,,,,,,,,,,,,,,,,,,,,,,,,,,,,,,,,,,,,,,0,2,2,2,1,,,,,,,,,,,,,,,,,,,,,,,,,,,,,,,,,,,,,,,,,
685903,001,2022-11-21_24h56.44.849,Info_measure_main_exp,2022.2.2,Win32,58.55829478,,,,,,,,,,,,,,,,,,masks/mask_001.jpg,,,,,,,,,,,,,,,,,,,,,,,,,,,,,,,,,,,,,,,,,,,,,,,,0,3,3,0,1,,,,,,,,,,,,,,,,,,,,,,,,,,,,,,,,,,,,,,,,,
685903,001,2022-11-21_24h56.44.849,Info_measure_main_exp,2022.2.2,Win32,58.55829478,,,,,,,,,,,,,,,,,,masks/mask_005.jpg,,,,,,,,,,,,,,,,,,,,,,,,,,,,,,,,,,,,,,,,,,,,,,,,0,4,4,4,1,,,,,,,,,,,,,,,,,,,,,,,,,,,,,,,,,,,,,,,,,
685903,001,2022-11-21_24h56.44.849,Info_measure_main_exp,2022.2.2,Win32,58.55829478,,,,,,,,,,,,,,,,,,,,,,,,,,,,,,2,1.2499,1,,,,,,,,,,,,0,131,5,5,2082,2082,absent_patch/patch0002082.jpg,absent_patch/patch0002082.jpg,,,,,,,,,,,,,,,,,,,,-0.115885417,-0.028645833,1,0,0,response5disk,3,0,0.002604167,1,0,0,center_square,0,2,2,74,1,,,,,,,,,,,,,,,,,,,,,,,
685903,001,2022-11-21_24h56.44.849,Info_measure_main_exp,2022.2.2,Win32,58.55829478,,,,,,,,,,,,,,,,,,masks/mask_005.jpg,,,,,,,,,,,,,,,,,,,,,,,,,,,,,,,,,,,,,,,,,,,0,0,0,4,1,,,,,,,,,,,,,,,,,,,,,,,,,,,,,,,,,,,,,,,,,,,,,,
685903,001,2022-11-21_24h56.44.849,Info_measure_main_exp,2022.2.2,Win32,58.55829478,,,,,,,,,,,,,,,,,,masks/mask_002.jpg,,,,,,,,,,,,,,,,,,,,,,,,,,,,,,,,,,,,,,,,,,,0,1,1,1,1,,,,,,,,,,,,,,,,,,,,,,,,,,,,,,,,,,,,,,,,,,,,,,
685903,001,2022-11-21_24h56.44.849,Info_measure_main_exp,2022.2.2,Win32,58.55829478,,,,,,,,,,,,,,,,,,masks/mask_004.jpg,,,,,,,,,,,,,,,,,,,,,,,,,,,,,,,,,,,,,,,,,,,0,2,2,3,1,,,,,,,,,,,,,,,,,,,,,,,,,,,,,,,,,,,,,,,,,,,,,,
685903,001,2022-11-21_24h56.44.849,Info_measure_main_exp,2022.2.2,Win32,58.55829478,,,,,,,,,,,,,,,,,,masks/mask_003.jpg,,,,,,,,,,,,,,,,,,,,,,,,,,,,,,,,,,,,,,,,,,,0,3,3,2,1,,,,,,,,,,,,,,,,,,,,,,,,,,,,,,,,,,,,,,,,,,,,,,
685903,001,2022-11-21_24h56.44.849,Info_measure_main_exp,2022.2.2,Win32,58.55829478,,,,,,,,,,,,,,,,,,masks/mask_001.jpg,,,,,,,,,,,,,,,,,,,,,,,,,,,,,,,,,,,,,,,,,,,0,4,4,0,1,,,,,,,,,,,,,,,,,,,,,,,,,,,,,,,,,,,,,,,,,,,,,,
685903,001,2022-11-21_24h56.44.849,Info_measure_main_exp,2022.2.2,Win32,58.55829478,,,,,,,,,,,,,,,,,,masks/mask_004.jpg,,,,,,,,,,,,,,,,,,,,,,,,,,,,,,,,,,,,,,,,,,,,,,,,0,0,0,3,1,,,,,,,,,,,,,,,,,,,,,,,,,,,,,,,,,,,,,,,,,
685903,001,2022-11-21_24h56.44.849,Info_measure_main_exp,2022.2.2,Win32,58.55829478,,,,,,,,,,,,,,,,,,masks/mask_001.jpg,,,,,,,,,,,,,,,,,,,,,,,,,,,,,,,,,,,,,,,,,,,,,,,,0,1,1,0,1,,,,,,,,,,,,,,,,,,,,,,,,,,,,,,,,,,,,,,,,,
685903,001,2022-11-21_24h56.44.849,Info_measure_main_exp,2022.2.2,Win32,58.55829478,,,,,,,,,,,,,,,,,,masks/mask_003.jpg,,,,,,,,,,,,,,,,,,,,,,,,,,,,,,,,,,,,,,,,,,,,,,,,0,2,2,2,1,,,,,,,,,,,,,,,,,,,,,,,,,,,,,,,,,,,,,,,,,
685903,001,2022-11-21_24h56.44.849,Info_measure_main_exp,2022.2.2,Win32,58.55829478,,,,,,,,,,,,,,,,,,masks/mask_005.jpg,,,,,,,,,,,,,,,,,,,,,,,,,,,,,,,,,,,,,,,,,,,,,,,,0,3,3,4,1,,,,,,,,,,,,,,,,,,,,,,,,,,,,,,,,,,,,,,,,,
685903,001,2022-11-21_24h56.44.849,Info_measure_main_exp,2022.2.2,Win32,58.55829478,,,,,,,,,,,,,,,,,,masks/mask_002.jpg,,,,,,,,,,,,,,,,,,,,,,,,,,,,,,,,,,,,,,,,,,,,,,,,0,4,4,1,1,,,,,,,,,,,,,,,,,,,,,,,,,,,,,,,,,,,,,,,,,
685903,001,2022-11-21_24h56.44.849,Info_measure_main_exp,2022.2.2,Win32,58.55829478,,,,,,,,,,,,,,,,,,,,,,,,,,,,,,6,1.0187,1,,,,,,,,,,,,0,131,5,5,2274,2082,absent_patch/patch0002274.jpg,absent_patch/patch0002082.jpg,,,,,,,,,,,,,,,,,,,,0.104166667,0.028645833,1,0,0,response1disk,4,-0.00390625,0,1,0,0,center_square,0,3,3,100,1,,,,,,,,,,,,,,,,,,,,,,,
685903,001,2022-11-21_24h56.44.849,Info_measure_main_exp,2022.2.2,Win32,58.55829478,,,,,,,,,,,,,,,,,,masks/mask_003.jpg,,,,,,,,,,,,,,,,,,,,,,,,,,,,,,,,,,,,,,,,,,,0,0,0,2,1,,,,,,,,,,,,,,,,,,,,,,,,,,,,,,,,,,,,,,,,,,,,,,
685903,001,2022-11-21_24h56.44.849,Info_measure_main_exp,2022.2.2,Win32,58.55829478,,,,,,,,,,,,,,,,,,masks/mask_002.jpg,,,,,,,,,,,,,,,,,,,,,,,,,,,,,,,,,,,,,,,,,,,0,1,1,1,1,,,,,,,,,,,,,,,,,,,,,,,,,,,,,,,,,,,,,,,,,,,,,,
685903,001,2022-11-21_24h56.44.849,Info_measure_main_exp,2022.2.2,Win32,58.55829478,,,,,,,,,,,,,,,,,,masks/mask_004.jpg,,,,,,,,,,,,,,,,,,,,,,,,,,,,,,,,,,,,,,,,,,,0,2,2,3,1,,,,,,,,,,,,,,,,,,,,,,,,,,,,,,,,,,,,,,,,,,,,,,
685903,001,2022-11-21_24h56.44.849,Info_measure_main_exp,2022.2.2,Win32,58.55829478,,,,,,,,,,,,,,,,,,masks/mask_001.jpg,,,,,,,,,,,,,,,,,,,,,,,,,,,,,,,,,,,,,,,,,,,0,3,3,0,1,,,,,,,,,,,,,,,,,,,,,,,,,,,,,,,,,,,,,,,,,,,,,,
685903,001,2022-11-21_24h56.44.849,Info_measure_main_exp,2022.2.2,Win32,58.55829478,,,,,,,,,,,,,,,,,,masks/mask_005.jpg,,,,,,,,,,,,,,,,,,,,,,,,,,,,,,,,,,,,,,,,,,,0,4,4,4,1,,,,,,,,,,,,,,,,,,,,,,,,,,,,,,,,,,,,,,,,,,,,,,
685903,001,2022-11-21_24h56.44.849,Info_measure_main_exp,2022.2.2,Win32,58.55829478,,,,,,,,,,,,,,,,,,masks/mask_004.jpg,,,,,,,,,,,,,,,,,,,,,,,,,,,,,,,,,,,,,,,,,,,,,,,,0,0,0,3,1,,,,,,,,,,,,,,,,,,,,,,,,,,,,,,,,,,,,,,,,,
685903,001,2022-11-21_24h56.44.849,Info_measure_main_exp,2022.2.2,Win32,58.55829478,,,,,,,,,,,,,,,,,,masks/mask_005.jpg,,,,,,,,,,,,,,,,,,,,,,,,,,,,,,,,,,,,,,,,,,,,,,,,0,1,1,4,1,,,,,,,,,,,,,,,,,,,,,,,,,,,,,,,,,,,,,,,,,
685903,001,2022-11-21_24h56.44.849,Info_measure_main_exp,2022.2.2,Win32,58.55829478,,,,,,,,,,,,,,,,,,masks/mask_001.jpg,,,,,,,,,,,,,,,,,,,,,,,,,,,,,,,,,,,,,,,,,,,,,,,,0,2,2,0,1,,,,,,,,,,,,,,,,,,,,,,,,,,,,,,,,,,,,,,,,,
685903,001,2022-11-21_24h56.44.849,Info_measure_main_exp,2022.2.2,Win32,58.55829478,,,,,,,,,,,,,,,,,,masks/mask_002.jpg,,,,,,,,,,,,,,,,,,,,,,,,,,,,,,,,,,,,,,,,,,,,,,,,0,3,3,1,1,,,,,,,,,,,,,,,,,,,,,,,,,,,,,,,,,,,,,,,,,
685903,001,2022-11-21_24h56.44.849,Info_measure_main_exp,2022.2.2,Win32,58.55829478,,,,,,,,,,,,,,,,,,masks/mask_003.jpg,,,,,,,,,,,,,,,,,,,,,,,,,,,,,,,,,,,,,,,,,,,,,,,,0,4,4,2,1,,,,,,,,,,,,,,,,,,,,,,,,,,,,,,,,,,,,,,,,,
685903,001,2022-11-21_24h56.44.849,Info_measure_main_exp,2022.2.2,Win32,58.55829478,,,,,,,,,,,,,,,,,,,,,,,,,,,,,,7,1.4635,1,,,,,,,,,,,,0,131,5,5,2082,2178,absent_patch/patch0002082.jpg,absent_patch/patch0002178.jpg,,,,,,,,,,,,,,,,,,,,0.057291667,0.1015625,1,0,0,response1disk,5,0.00390625,-0.00390625,1,0,0,center_square,0,4,4,2,1,,,,,,,,,,,,,,,,,,,,,,,
685903,001,2022-11-21_24h56.44.849,Info_measure_main_exp,2022.2.2,Win32,58.55829478,,,,,,,,,,,,,,,,,,masks/mask_003.jpg,,,,,,,,,,,,,,,,,,,,,,,,,,,,,,,,,,,,,,,,,,,0,0,0,2,1,,,,,,,,,,,,,,,,,,,,,,,,,,,,,,,,,,,,,,,,,,,,,,
685903,001,2022-11-21_24h56.44.849,Info_measure_main_exp,2022.2.2,Win32,58.55829478,,,,,,,,,,,,,,,,,,masks/mask_005.jpg,,,,,,,,,,,,,,,,,,,,,,,,,,,,,,,,,,,,,,,,,,,0,1,1,4,1,,,,,,,,,,,,,,,,,,,,,,,,,,,,,,,,,,,,,,,,,,,,,,
685903,001,2022-11-21_24h56.44.849,Info_measure_main_exp,2022.2.2,Win32,58.55829478,,,,,,,,,,,,,,,,,,masks/mask_004.jpg,,,,,,,,,,,,,,,,,,,,,,,,,,,,,,,,,,,,,,,,,,,0,2,2,3,1,,,,,,,,,,,,,,,,,,,,,,,,,,,,,,,,,,,,,,,,,,,,,,
685903,001,2022-11-21_24h56.44.849,Info_measure_main_exp,2022.2.2,Win32,58.55829478,,,,,,,,,,,,,,,,,,masks/mask_001.jpg,,,,,,,,,,,,,,,,,,,,,,,,,,,,,,,,,,,,,,,,,,,0,3,3,0,1,,,,,,,,,,,,,,,,,,,,,,,,,,,,,,,,,,,,,,,,,,,,,,
685903,001,2022-11-21_24h56.44.849,Info_measure_main_exp,2022.2.2,Win32,58.55829478,,,,,,,,,,,,,,,,,,masks/mask_002.jpg,,,,,,,,,,,,,,,,,,,,,,,,,,,,,,,,,,,,,,,,,,,0,4,4,1,1,,,,,,,,,,,,,,,,,,,,,,,,,,,,,,,,,,,,,,,,,,,,,,
685903,001,2022-11-21_24h56.44.849,Info_measure_main_exp,2022.2.2,Win32,58.55829478,,,,,,,,,,,,,,,,,,masks/mask_003.jpg,,,,,,,,,,,,,,,,,,,,,,,,,,,,,,,,,,,,,,,,,,,,,,,,0,0,0,2,1,,,,,,,,,,,,,,,,,,,,,,,,,,,,,,,,,,,,,,,,,
685903,001,2022-11-21_24h56.44.849,Info_measure_main_exp,2022.2.2,Win32,58.55829478,,,,,,,,,,,,,,,,,,masks/mask_004.jpg,,,,,,,,,,,,,,,,,,,,,,,,,,,,,,,,,,,,,,,,,,,,,,,,0,1,1,3,1,,,,,,,,,,,,,,,,,,,,,,,,,,,,,,,,,,,,,,,,,
685903,001,2022-11-21_24h56.44.849,Info_measure_main_exp,2022.2.2,Win32,58.55829478,,,,,,,,,,,,,,,,,,masks/mask_001.jpg,,,,,,,,,,,,,,,,,,,,,,,,,,,,,,,,,,,,,,,,,,,,,,,,0,2,2,0,1,,,,,,,,,,,,,,,,,,,,,,,,,,,,,,,,,,,,,,,,,
685903,001,2022-11-21_24h56.44.849,Info_measure_main_exp,2022.2.2,Win32,58.55829478,,,,,,,,,,,,,,,,,,masks/mask_002.jpg,,,,,,,,,,,,,,,,,,,,,,,,,,,,,,,,,,,,,,,,,,,,,,,,0,3,3,1,1,,,,,,,,,,,,,,,,,,,,,,,,,,,,,,,,,,,,,,,,,
685903,001,2022-11-21_24h56.44.849,Info_measure_main_exp,2022.2.2,Win32,58.55829478,,,,,,,,,,,,,,,,,,masks/mask_005.jpg,,,,,,,,,,,,,,,,,,,,,,,,,,,,,,,,,,,,,,,,,,,,,,,,0,4,4,4,1,,,,,,,,,,,,,,,,,,,,,,,,,,,,,,,,,,,,,,,,,
685903,001,2022-11-21_24h56.44.849,Info_measure_main_exp,2022.2.2,Win32,58.55829478,,,,,,,,,,,,,,,,,,,,,,,,,,,,,,7,0.845,1,,,,,,,,,,,,0,131,5,5,2238,2298,absent_patch/patch0002238.jpg,absent_patch/patch0002298.jpg,,,,,,,,,,,,,,,,,,,,0.071614583,0.102864583,1,0,0,response1disk,6,0.001302083,0,1,0,0,center_square,0,5,5,51,1,,,,,,,,,,,,,,,,,,,,,,,
685903,001,2022-11-21_24h56.44.849,Info_measure_main_exp,2022.2.2,Win32,58.55829478,,,,,,,,,,,,,,,,,,masks/mask_005.jpg,,,,,,,,,,,,,,,,,,,,,,,,,,,,,,,,,,,,,,,,,,,0,0,0,4,1,,,,,,,,,,,,,,,,,,,,,,,,,,,,,,,,,,,,,,,,,,,,,,
685903,001,2022-11-21_24h56.44.849,Info_measure_main_exp,2022.2.2,Win32,58.55829478,,,,,,,,,,,,,,,,,,masks/mask_002.jpg,,,,,,,,,,,,,,,,,,,,,,,,,,,,,,,,,,,,,,,,,,,0,1,1,1,1,,,,,,,,,,,,,,,,,,,,,,,,,,,,,,,,,,,,,,,,,,,,,,
685903,001,2022-11-21_24h56.44.849,Info_measure_main_exp,2022.2.2,Win32,58.55829478,,,,,,,,,,,,,,,,,,masks/mask_001.jpg,,,,,,,,,,,,,,,,,,,,,,,,,,,,,,,,,,,,,,,,,,,0,2,2,0,1,,,,,,,,,,,,,,,,,,,,,,,,,,,,,,,,,,,,,,,,,,,,,,
685903,001,2022-11-21_24h56.44.849,Info_measure_main_exp,2022.2.2,Win32,58.55829478,,,,,,,,,,,,,,,,,,masks/mask_003.jpg,,,,,,,,,,,,,,,,,,,,,,,,,,,,,,,,,,,,,,,,,,,0,3,3,2,1,,,,,,,,,,,,,,,,,,,,,,,,,,,,,,,,,,,,,,,,,,,,,,
685903,001,2022-11-21_24h56.44.849,Info_measure_main_exp,2022.2.2,Win32,58.55829478,,,,,,,,,,,,,,,,,,masks/mask_004.jpg,,,,,,,,,,,,,,,,,,,,,,,,,,,,,,,,,,,,,,,,,,,0,4,4,3,1,,,,,,,,,,,,,,,,,,,,,,,,,,,,,,,,,,,,,,,,,,,,,,
685903,001,2022-11-21_24h56.44.849,Info_measure_main_exp,2022.2.2,Win32,58.55829478,,,,,,,,,,,,,,,,,,masks/mask_004.jpg,,,,,,,,,,,,,,,,,,,,,,,,,,,,,,,,,,,,,,,,,,,,,,,,0,0,0,3,1,,,,,,,,,,,,,,,,,,,,,,,,,,,,,,,,,,,,,,,,,
685903,001,2022-11-21_24h56.44.849,Info_measure_main_exp,2022.2.2,Win32,58.55829478,,,,,,,,,,,,,,,,,,masks/mask_001.jpg,,,,,,,,,,,,,,,,,,,,,,,,,,,,,,,,,,,,,,,,,,,,,,,,0,1,1,0,1,,,,,,,,,,,,,,,,,,,,,,,,,,,,,,,,,,,,,,,,,
685903,001,2022-11-21_24h56.44.849,Info_measure_main_exp,2022.2.2,Win32,58.55829478,,,,,,,,,,,,,,,,,,masks/mask_003.jpg,,,,,,,,,,,,,,,,,,,,,,,,,,,,,,,,,,,,,,,,,,,,,,,,0,2,2,2,1,,,,,,,,,,,,,,,,,,,,,,,,,,,,,,,,,,,,,,,,,
685903,001,2022-11-21_24h56.44.849,Info_measure_main_exp,2022.2.2,Win32,58.55829478,,,,,,,,,,,,,,,,,,masks/mask_002.jpg,,,,,,,,,,,,,,,,,,,,,,,,,,,,,,,,,,,,,,,,,,,,,,,,0,3,3,1,1,,,,,,,,,,,,,,,,,,,,,,,,,,,,,,,,,,,,,,,,,
685903,001,2022-11-21_24h56.44.849,Info_measure_main_exp,2022.2.2,Win32,58.55829478,,,,,,,,,,,,,,,,,,masks/mask_005.jpg,,,,,,,,,,,,,,,,,,,,,,,,,,,,,,,,,,,,,,,,,,,,,,,,0,4,4,4,1,,,,,,,,,,,,,,,,,,,,,,,,,,,,,,,,,,,,,,,,,
685903,001,2022-11-21_24h56.44.849,Info_measure_main_exp,2022.2.2,Win32,58.55829478,,,,,,,,,,,,,,,,,,,,,,,,,,,,,,4,1.3586,1,,,,,,,,,,,,0,131,5,5,2298,2214,absent_patch/patch0002298.jpg,absent_patch/patch0002214.jpg,,,,,,,,,,,,,,,,,,,,0.010416667,-0.1015625,1,0,0,response3disk,7,0.002604167,0.001302083,1,0,0,center_square,0,6,6,99,1,,,,,,,,,,,,,,,,,,,,,,,
685903,001,2022-11-21_24h56.44.849,Info_measure_main_exp,2022.2.2,Win32,58.55829478,,,,,,,,,,,,,,,,,,masks/mask_002.jpg,,,,,,,,,,,,,,,,,,,,,,,,,,,,,,,,,,,,,,,,,,,0,0,0,1,1,,,,,,,,,,,,,,,,,,,,,,,,,,,,,,,,,,,,,,,,,,,,,,
685903,001,2022-11-21_24h56.44.849,Info_measure_main_exp,2022.2.2,Win32,58.55829478,,,,,,,,,,,,,,,,,,masks/mask_004.jpg,,,,,,,,,,,,,,,,,,,,,,,,,,,,,,,,,,,,,,,,,,,0,1,1,3,1,,,,,,,,,,,,,,,,,,,,,,,,,,,,,,,,,,,,,,,,,,,,,,
685903,001,2022-11-21_24h56.44.849,Info_measure_main_exp,2022.2.2,Win32,58.55829478,,,,,,,,,,,,,,,,,,masks/mask_001.jpg,,,,,,,,,,,,,,,,,,,,,,,,,,,,,,,,,,,,,,,,,,,0,2,2,0,1,,,,,,,,,,,,,,,,,,,,,,,,,,,,,,,,,,,,,,,,,,,,,,
685903,001,2022-11-21_24h56.44.849,Info_measure_main_exp,2022.2.2,Win32,58.55829478,,,,,,,,,,,,,,,,,,masks/mask_003.jpg,,,,,,,,,,,,,,,,,,,,,,,,,,,,,,,,,,,,,,,,,,,0,3,3,2,1,,,,,,,,,,,,,,,,,,,,,,,,,,,,,,,,,,,,,,,,,,,,,,
685903,001,2022-11-21_24h56.44.849,Info_measure_main_exp,2022.2.2,Win32,58.55829478,,,,,,,,,,,,,,,,,,masks/mask_005.jpg,,,,,,,,,,,,,,,,,,,,,,,,,,,,,,,,,,,,,,,,,,,0,4,4,4,1,,,,,,,,,,,,,,,,,,,,,,,,,,,,,,,,,,,,,,,,,,,,,,
685903,001,2022-11-21_24h56.44.849,Info_measure_main_exp,2022.2.2,Win32,58.55829478,,,,,,,,,,,,,,,,,,masks/mask_005.jpg,,,,,,,,,,,,,,,,,,,,,,,,,,,,,,,,,,,,,,,,,,,,,,,,0,0,0,4,1,,,,,,,,,,,,,,,,,,,,,,,,,,,,,,,,,,,,,,,,,
685903,001,2022-11-21_24h56.44.849,Info_measure_main_exp,2022.2.2,Win32,58.55829478,,,,,,,,,,,,,,,,,,masks/mask_002.jpg,,,,,,,,,,,,,,,,,,,,,,,,,,,,,,,,,,,,,,,,,,,,,,,,0,1,1,1,1,,,,,,,,,,,,,,,,,,,,,,,,,,,,,,,,,,,,,,,,,
685903,001,2022-11-21_24h56.44.849,Info_measure_main_exp,2022.2.2,Win32,58.55829478,,,,,,,,,,,,,,,,,,masks/mask_001.jpg,,,,,,,,,,,,,,,,,,,,,,,,,,,,,,,,,,,,,,,,,,,,,,,,0,2,2,0,1,,,,,,,,,,,,,,,,,,,,,,,,,,,,,,,,,,,,,,,,,
685903,001,2022-11-21_24h56.44.849,Info_measure_main_exp,2022.2.2,Win32,58.55829478,,,,,,,,,,,,,,,,,,masks/mask_003.jpg,,,,,,,,,,,,,,,,,,,,,,,,,,,,,,,,,,,,,,,,,,,,,,,,0,3,3,2,1,,,,,,,,,,,,,,,,,,,,,,,,,,,,,,,,,,,,,,,,,
685903,001,2022-11-21_24h56.44.849,Info_measure_main_exp,2022.2.2,Win32,58.55829478,,,,,,,,,,,,,,,,,,masks/mask_004.jpg,,,,,,,,,,,,,,,,,,,,,,,,,,,,,,,,,,,,,,,,,,,,,,,,0,4,4,3,1,,,,,,,,,,,,,,,,,,,,,,,,,,,,,,,,,,,,,,,,,
685903,001,2022-11-21_24h56.44.849,Info_measure_main_exp,2022.2.2,Win32,58.55829478,,,,,,,,,,,,,,,,,,,,,,,,,,,,,,7,0.9191,1,,,,,,,,,,,,0,131,5,5,2250,2298,absent_patch/patch0002250.jpg,absent_patch/patch0002298.jpg,,,,,,,,,,,,,,,,,,,,0.045572917,0.08203125,1,0,0,response1disk,8,0.005208333,0.010416667,1,0,0,center_square,0,7,7,59,1,,,,,,,,,,,,,,,,,,,,,,,
685903,001,2022-11-21_24h56.44.849,Info_measure_main_exp,2022.2.2,Win32,58.55829478,,,,,,,,,,,,,,,,,,masks/mask_004.jpg,,,,,,,,,,,,,,,,,,,,,,,,,,,,,,,,,,,,,,,,,,,0,0,0,3,1,,,,,,,,,,,,,,,,,,,,,,,,,,,,,,,,,,,,,,,,,,,,,,
685903,001,2022-11-21_24h56.44.849,Info_measure_main_exp,2022.2.2,Win32,58.55829478,,,,,,,,,,,,,,,,,,masks/mask_003.jpg,,,,,,,,,,,,,,,,,,,,,,,,,,,,,,,,,,,,,,,,,,,0,1,1,2,1,,,,,,,,,,,,,,,,,,,,,,,,,,,,,,,,,,,,,,,,,,,,,,
685903,001,2022-11-21_24h56.44.849,Info_measure_main_exp,2022.2.2,Win32,58.55829478,,,,,,,,,,,,,,,,,,masks/mask_005.jpg,,,,,,,,,,,,,,,,,,,,,,,,,,,,,,,,,,,,,,,,,,,0,2,2,4,1,,,,,,,,,,,,,,,,,,,,,,,,,,,,,,,,,,,,,,,,,,,,,,
685903,001,2022-11-21_24h56.44.849,Info_measure_main_exp,2022.2.2,Win32,58.55829478,,,,,,,,,,,,,,,,,,masks/mask_002.jpg,,,,,,,,,,,,,,,,,,,,,,,,,,,,,,,,,,,,,,,,,,,0,3,3,1,1,,,,,,,,,,,,,,,,,,,,,,,,,,,,,,,,,,,,,,,,,,,,,,
685903,001,2022-11-21_24h56.44.849,Info_measure_main_exp,2022.2.2,Win32,58.55829478,,,,,,,,,,,,,,,,,,masks/mask_001.jpg,,,,,,,,,,,,,,,,,,,,,,,,,,,,,,,,,,,,,,,,,,,0,4,4,0,1,,,,,,,,,,,,,,,,,,,,,,,,,,,,,,,,,,,,,,,,,,,,,,
685903,001,2022-11-21_24h56.44.849,Info_measure_main_exp,2022.2.2,Win32,58.55829478,,,,,,,,,,,,,,,,,,masks/mask_003.jpg,,,,,,,,,,,,,,,,,,,,,,,,,,,,,,,,,,,,,,,,,,,,,,,,0,0,0,2,1,,,,,,,,,,,,,,,,,,,,,,,,,,,,,,,,,,,,,,,,,
685903,001,2022-11-21_24h56.44.849,Info_measure_main_exp,2022.2.2,Win32,58.55829478,,,,,,,,,,,,,,,,,,masks/mask_005.jpg,,,,,,,,,,,,,,,,,,,,,,,,,,,,,,,,,,,,,,,,,,,,,,,,0,1,1,4,1,,,,,,,,,,,,,,,,,,,,,,,,,,,,,,,,,,,,,,,,,
685903,001,2022-11-21_24h56.44.849,Info_measure_main_exp,2022.2.2,Win32,58.55829478,,,,,,,,,,,,,,,,,,masks/mask_004.jpg,,,,,,,,,,,,,,,,,,,,,,,,,,,,,,,,,,,,,,,,,,,,,,,,0,2,2,3,1,,,,,,,,,,,,,,,,,,,,,,,,,,,,,,,,,,,,,,,,,
685903,001,2022-11-21_24h56.44.849,Info_measure_main_exp,2022.2.2,Win32,58.55829478,,,,,,,,,,,,,,,,,,masks/mask_001.jpg,,,,,,,,,,,,,,,,,,,,,,,,,,,,,,,,,,,,,,,,,,,,,,,,0,3,3,0,1,,,,,,,,,,,,,,,,,,,,,,,,,,,,,,,,,,,,,,,,,
685903,001,2022-11-21_24h56.44.849,Info_measure_main_exp,2022.2.2,Win32,58.55829478,,,,,,,,,,,,,,,,,,masks/mask_002.jpg,,,,,,,,,,,,,,,,,,,,,,,,,,,,,,,,,,,,,,,,,,,,,,,,0,4,4,1,1,,,,,,,,,,,,,,,,,,,,,,,,,,,,,,,,,,,,,,,,,
685903,001,2022-11-21_24h56.44.849,Info_measure_main_exp,2022.2.2,Win32,58.55829478,,,,,,,,,,,,,,,,,,,,,,,,,,,,,,3,1.4219,1,,,,,,,,,,,,0,131,5,5,2082,2298,absent_patch/patch0002082.jpg,absent_patch/patch0002298.jpg,,,,,,,,,,,,,,,,,,,,-0.06640625,-0.122395833,1,0,0,response5disk,9,-0.00390625,-0.009114583,1,0,0,center_square,0,8,8,107,1,,,,,,,,,,,,,,,,,,,,,,,
685903,001,2022-11-21_24h56.44.849,Info_measure_main_exp,2022.2.2,Win32,58.55829478,,,,,,,,,,,,,,,,,,masks/mask_002.jpg,,,,,,,,,,,,,,,,,,,,,,,,,,,,,,,,,,,,,,,,,,,0,0,0,1,1,,,,,,,,,,,,,,,,,,,,,,,,,,,,,,,,,,,,,,,,,,,,,,
685903,001,2022-11-21_24h56.44.849,Info_measure_main_exp,2022.2.2,Win32,58.55829478,,,,,,,,,,,,,,,,,,masks/mask_003.jpg,,,,,,,,,,,,,,,,,,,,,,,,,,,,,,,,,,,,,,,,,,,0,1,1,2,1,,,,,,,,,,,,,,,,,,,,,,,,,,,,,,,,,,,,,,,,,,,,,,
685903,001,2022-11-21_24h56.44.849,Info_measure_main_exp,2022.2.2,Win32,58.55829478,,,,,,,,,,,,,,,,,,masks/mask_001.jpg,,,,,,,,,,,,,,,,,,,,,,,,,,,,,,,,,,,,,,,,,,,0,2,2,0,1,,,,,,,,,,,,,,,,,,,,,,,,,,,,,,,,,,,,,,,,,,,,,,
685903,001,2022-11-21_24h56.44.849,Info_measure_main_exp,2022.2.2,Win32,58.55829478,,,,,,,,,,,,,,,,,,masks/mask_005.jpg,,,,,,,,,,,,,,,,,,,,,,,,,,,,,,,,,,,,,,,,,,,0,3,3,4,1,,,,,,,,,,,,,,,,,,,,,,,,,,,,,,,,,,,,,,,,,,,,,,
685903,001,2022-11-21_24h56.44.849,Info_measure_main_exp,2022.2.2,Win32,58.55829478,,,,,,,,,,,,,,,,,,masks/mask_004.jpg,,,,,,,,,,,,,,,,,,,,,,,,,,,,,,,,,,,,,,,,,,,0,4,4,3,1,,,,,,,,,,,,,,,,,,,,,,,,,,,,,,,,,,,,,,,,,,,,,,
685903,001,2022-11-21_24h56.44.849,Info_measure_main_exp,2022.2.2,Win32,58.55829478,,,,,,,,,,,,,,,,,,masks/mask_002.jpg,,,,,,,,,,,,,,,,,,,,,,,,,,,,,,,,,,,,,,,,,,,,,,,,0,0,0,1,1,,,,,,,,,,,,,,,,,,,,,,,,,,,,,,,,,,,,,,,,,
685903,001,2022-11-21_24h56.44.849,Info_measure_main_exp,2022.2.2,Win32,58.55829478,,,,,,,,,,,,,,,,,,masks/mask_001.jpg,,,,,,,,,,,,,,,,,,,,,,,,,,,,,,,,,,,,,,,,,,,,,,,,0,1,1,0,1,,,,,,,,,,,,,,,,,,,,,,,,,,,,,,,,,,,,,,,,,
685903,001,2022-11-21_24h56.44.849,Info_measure_main_exp,2022.2.2,Win32,58.55829478,,,,,,,,,,,,,,,,,,masks/mask_005.jpg,,,,,,,,,,,,,,,,,,,,,,,,,,,,,,,,,,,,,,,,,,,,,,,,0,2,2,4,1,,,,,,,,,,,,,,,,,,,,,,,,,,,,,,,,,,,,,,,,,
685903,001,2022-11-21_24h56.44.849,Info_measure_main_exp,2022.2.2,Win32,58.55829478,,,,,,,,,,,,,,,,,,masks/mask_003.jpg,,,,,,,,,,,,,,,,,,,,,,,,,,,,,,,,,,,,,,,,,,,,,,,,0,3,3,2,1,,,,,,,,,,,,,,,,,,,,,,,,,,,,,,,,,,,,,,,,,
685903,001,2022-11-21_24h56.44.849,Info_measure_main_exp,2022.2.2,Win32,58.55829478,,,,,,,,,,,,,,,,,,masks/mask_004.jpg,,,,,,,,,,,,,,,,,,,,,,,,,,,,,,,,,,,,,,,,,,,,,,,,0,4,4,3,1,,,,,,,,,,,,,,,,,,,,,,,,,,,,,,,,,,,,,,,,,
685903,001,2022-11-21_24h56.44.849,Info_measure_main_exp,2022.2.2,Win32,58.55829478,,,,,,,,,,,,,,,,,,,,,,,,,,,,,,6,1.363,1,,,,,,,,,,,,0,131,5,5,2142,2154,absent_patch/patch0002142.jpg,absent_patch/patch0002154.jpg,,,,,,,,,,,,,,,,,,,,0.110677083,0.046875,1,0,0,response1disk,10,0.005208333,-0.00390625,1,0,0,center_square,0,9,9,9,1,,,,,,,,,,,,,,,,,,,,,,,
685903,001,2022-11-21_24h56.44.849,Info_measure_main_exp,2022.2.2,Win32,58.55829478,,,,,,,,,,,,,,,,,,masks/mask_002.jpg,,,,,,,,,,,,,,,,,,,,,,,,,,,,,,,,,,,,,,,,,,,0,0,0,1,1,,,,,,,,,,,,,,,,,,,,,,,,,,,,,,,,,,,,,,,,,,,,,,
685903,001,2022-11-21_24h56.44.849,Info_measure_main_exp,2022.2.2,Win32,58.55829478,,,,,,,,,,,,,,,,,,masks/mask_001.jpg,,,,,,,,,,,,,,,,,,,,,,,,,,,,,,,,,,,,,,,,,,,0,1,1,0,1,,,,,,,,,,,,,,,,,,,,,,,,,,,,,,,,,,,,,,,,,,,,,,
685903,001,2022-11-21_24h56.44.849,Info_measure_main_exp,2022.2.2,Win32,58.55829478,,,,,,,,,,,,,,,,,,masks/mask_003.jpg,,,,,,,,,,,,,,,,,,,,,,,,,,,,,,,,,,,,,,,,,,,0,2,2,2,1,,,,,,,,,,,,,,,,,,,,,,,,,,,,,,,,,,,,,,,,,,,,,,
685903,001,2022-11-21_24h56.44.849,Info_measure_main_exp,2022.2.2,Win32,58.55829478,,,,,,,,,,,,,,,,,,masks/mask_004.jpg,,,,,,,,,,,,,,,,,,,,,,,,,,,,,,,,,,,,,,,,,,,0,3,3,3,1,,,,,,,,,,,,,,,,,,,,,,,,,,,,,,,,,,,,,,,,,,,,,,
685903,001,2022-11-21_24h56.44.849,Info_measure_main_exp,2022.2.2,Win32,58.55829478,,,,,,,,,,,,,,,,,,masks/mask_005.jpg,,,,,,,,,,,,,,,,,,,,,,,,,,,,,,,,,,,,,,,,,,,0,4,4,4,1,,,,,,,,,,,,,,,,,,,,,,,,,,,,,,,,,,,,,,,,,,,,,,
685903,001,2022-11-21_24h56.44.849,Info_measure_main_exp,2022.2.2,Win32,58.55829478,,,,,,,,,,,,,,,,,,masks/mask_001.jpg,,,,,,,,,,,,,,,,,,,,,,,,,,,,,,,,,,,,,,,,,,,,,,,,0,0,0,0,1,,,,,,,,,,,,,,,,,,,,,,,,,,,,,,,,,,,,,,,,,
685903,001,2022-11-21_24h56.44.849,Info_measure_main_exp,2022.2.2,Win32,58.55829478,,,,,,,,,,,,,,,,,,masks/mask_004.jpg,,,,,,,,,,,,,,,,,,,,,,,,,,,,,,,,,,,,,,,,,,,,,,,,0,1,1,3,1,,,,,,,,,,,,,,,,,,,,,,,,,,,,,,,,,,,,,,,,,
685903,001,2022-11-21_24h56.44.849,Info_measure_main_exp,2022.2.2,Win32,58.55829478,,,,,,,,,,,,,,,,,,masks/mask_002.jpg,,,,,,,,,,,,,,,,,,,,,,,,,,,,,,,,,,,,,,,,,,,,,,,,0,2,2,1,1,,,,,,,,,,,,,,,,,,,,,,,,,,,,,,,,,,,,,,,,,
685903,001,2022-11-21_24h56.44.849,Info_measure_main_exp,2022.2.2,Win32,58.55829478,,,,,,,,,,,,,,,,,,masks/mask_003.jpg,,,,,,,,,,,,,,,,,,,,,,,,,,,,,,,,,,,,,,,,,,,,,,,,0,3,3,2,1,,,,,,,,,,,,,,,,,,,,,,,,,,,,,,,,,,,,,,,,,
685903,001,2022-11-21_24h56.44.849,Info_measure_main_exp,2022.2.2,Win32,58.55829478,,,,,,,,,,,,,,,,,,masks/mask_005.jpg,,,,,,,,,,,,,,,,,,,,,,,,,,,,,,,,,,,,,,,,,,,,,,,,0,4,4,4,1,,,,,,,,,,,,,,,,,,,,,,,,,,,,,,,,,,,,,,,,,
685903,001,2022-11-21_24h56.44.849,Info_measure_main_exp,2022.2.2,Win32,58.55829478,,,,,,,,,,,,,,,,,,,,,,,,,,,,,,0,0.8231,1,,,,,,,,,,,,0,131,5,5,2154,2154,absent_patch/patch0002154.jpg,absent_patch/patch0002154.jpg,,,,,,,,,,,,,,,,,,,,-0.059895833,0.131510417,1,0,0,response7disk,11,0.006510417,0.001302083,1,0,0,center_square,0,10,10,89,1,,,,,,,,,,,,,,,,,,,,,,,
685903,001,2022-11-21_24h56.44.849,Info_measure_main_exp,2022.2.2,Win32,58.55829478,,,,,,,,,,,,,,,,,,masks/mask_005.jpg,,,,,,,,,,,,,,,,,,,,,,,,,,,,,,,,,,,,,,,,,,,0,0,0,4,1,,,,,,,,,,,,,,,,,,,,,,,,,,,,,,,,,,,,,,,,,,,,,,
685903,001,2022-11-21_24h56.44.849,Info_measure_main_exp,2022.2.2,Win32,58.55829478,,,,,,,,,,,,,,,,,,masks/mask_001.jpg,,,,,,,,,,,,,,,,,,,,,,,,,,,,,,,,,,,,,,,,,,,0,1,1,0,1,,,,,,,,,,,,,,,,,,,,,,,,,,,,,,,,,,,,,,,,,,,,,,
685903,001,2022-11-21_24h56.44.849,Info_measure_main_exp,2022.2.2,Win32,58.55829478,,,,,,,,,,,,,,,,,,masks/mask_004.jpg,,,,,,,,,,,,,,,,,,,,,,,,,,,,,,,,,,,,,,,,,,,0,2,2,3,1,,,,,,,,,,,,,,,,,,,,,,,,,,,,,,,,,,,,,,,,,,,,,,
685903,001,2022-11-21_24h56.44.849,Info_measure_main_exp,2022.2.2,Win32,58.55829478,,,,,,,,,,,,,,,,,,masks/mask_002.jpg,,,,,,,,,,,,,,,,,,,,,,,,,,,,,,,,,,,,,,,,,,,0,3,3,1,1,,,,,,,,,,,,,,,,,,,,,,,,,,,,,,,,,,,,,,,,,,,,,,
685903,001,2022-11-21_24h56.44.849,Info_measure_main_exp,2022.2.2,Win32,58.55829478,,,,,,,,,,,,,,,,,,masks/mask_003.jpg,,,,,,,,,,,,,,,,,,,,,,,,,,,,,,,,,,,,,,,,,,,0,4,4,2,1,,,,,,,,,,,,,,,,,,,,,,,,,,,,,,,,,,,,,,,,,,,,,,
685903,001,2022-11-21_24h56.44.849,Info_measure_main_exp,2022.2.2,Win32,58.55829478,,,,,,,,,,,,,,,,,,masks/mask_004.jpg,,,,,,,,,,,,,,,,,,,,,,,,,,,,,,,,,,,,,,,,,,,,,,,,0,0,0,3,1,,,,,,,,,,,,,,,,,,,,,,,,,,,,,,,,,,,,,,,,,
685903,001,2022-11-21_24h56.44.849,Info_measure_main_exp,2022.2.2,Win32,58.55829478,,,,,,,,,,,,,,,,,,masks/mask_003.jpg,,,,,,,,,,,,,,,,,,,,,,,,,,,,,,,,,,,,,,,,,,,,,,,,0,1,1,2,1,,,,,,,,,,,,,,,,,,,,,,,,,,,,,,,,,,,,,,,,,
685903,001,2022-11-21_24h56.44.849,Info_measure_main_exp,2022.2.2,Win32,58.55829478,,,,,,,,,,,,,,,,,,masks/mask_002.jpg,,,,,,,,,,,,,,,,,,,,,,,,,,,,,,,,,,,,,,,,,,,,,,,,0,2,2,1,1,,,,,,,,,,,,,,,,,,,,,,,,,,,,,,,,,,,,,,,,,
685903,001,2022-11-21_24h56.44.849,Info_measure_main_exp,2022.2.2,Win32,58.55829478,,,,,,,,,,,,,,,,,,masks/mask_005.jpg,,,,,,,,,,,,,,,,,,,,,,,,,,,,,,,,,,,,,,,,,,,,,,,,0,3,3,4,1,,,,,,,,,,,,,,,,,,,,,,,,,,,,,,,,,,,,,,,,,
685903,001,2022-11-21_24h56.44.849,Info_measure_main_exp,2022.2.2,Win32,58.55829478,,,,,,,,,,,,,,,,,,masks/mask_001.jpg,,,,,,,,,,,,,,,,,,,,,,,,,,,,,,,,,,,,,,,,,,,,,,,,0,4,4,0,1,,,,,,,,,,,,,,,,,,,,,,,,,,,,,,,,,,,,,,,,,
685903,001,2022-11-21_24h56.44.849,Info_measure_main_exp,2022.2.2,Win32,58.55829478,,,,,,,,,,,,,,,,,,,,,,,,,,,,,,5,1.9352,1,,,,,,,,,,,,0,131,5,5,2238,2166,absent_patch/patch0002238.jpg,absent_patch/patch0002166.jpg,,,,,,,,,,,,,,,,,,,,0.1171875,-0.09375,1,0,0,response3disk,12,-0.002604167,0.005208333,1,0,0,center_square,0,11,11,118,1,,,,,,,,,,,,,,,,,,,,,,,
685903,001,2022-11-21_24h56.44.849,Info_measure_main_exp,2022.2.2,Win32,58.55829478,,,,,,,,,,,,,,,,,,masks/mask_001.jpg,,,,,,,,,,,,,,,,,,,,,,,,,,,,,,,,,,,,,,,,,,,0,0,0,0,1,,,,,,,,,,,,,,,,,,,,,,,,,,,,,,,,,,,,,,,,,,,,,,
685903,001,2022-11-21_24h56.44.849,Info_measure_main_exp,2022.2.2,Win32,58.55829478,,,,,,,,,,,,,,,,,,masks/mask_002.jpg,,,,,,,,,,,,,,,,,,,,,,,,,,,,,,,,,,,,,,,,,,,0,1,1,1,1,,,,,,,,,,,,,,,,,,,,,,,,,,,,,,,,,,,,,,,,,,,,,,
685903,001,2022-11-21_24h56.44.849,Info_measure_main_exp,2022.2.2,Win32,58.55829478,,,,,,,,,,,,,,,,,,masks/mask_004.jpg,,,,,,,,,,,,,,,,,,,,,,,,,,,,,,,,,,,,,,,,,,,0,2,2,3,1,,,,,,,,,,,,,,,,,,,,,,,,,,,,,,,,,,,,,,,,,,,,,,
685903,001,2022-11-21_24h56.44.849,Info_measure_main_exp,2022.2.2,Win32,58.55829478,,,,,,,,,,,,,,,,,,masks/mask_005.jpg,,,,,,,,,,,,,,,,,,,,,,,,,,,,,,,,,,,,,,,,,,,0,3,3,4,1,,,,,,,,,,,,,,,,,,,,,,,,,,,,,,,,,,,,,,,,,,,,,,
685903,001,2022-11-21_24h56.44.849,Info_measure_main_exp,2022.2.2,Win32,58.55829478,,,,,,,,,,,,,,,,,,masks/mask_003.jpg,,,,,,,,,,,,,,,,,,,,,,,,,,,,,,,,,,,,,,,,,,,0,4,4,2,1,,,,,,,,,,,,,,,,,,,,,,,,,,,,,,,,,,,,,,,,,,,,,,
685903,001,2022-11-21_24h56.44.849,Info_measure_main_exp,2022.2.2,Win32,58.55829478,,,,,,,,,,,,,,,,,,masks/mask_004.jpg,,,,,,,,,,,,,,,,,,,,,,,,,,,,,,,,,,,,,,,,,,,,,,,,0,0,0,3,1,,,,,,,,,,,,,,,,,,,,,,,,,,,,,,,,,,,,,,,,,
685903,001,2022-11-21_24h56.44.849,Info_measure_main_exp,2022.2.2,Win32,58.55829478,,,,,,,,,,,,,,,,,,masks/mask_005.jpg,,,,,,,,,,,,,,,,,,,,,,,,,,,,,,,,,,,,,,,,,,,,,,,,0,1,1,4,1,,,,,,,,,,,,,,,,,,,,,,,,,,,,,,,,,,,,,,,,,
685903,001,2022-11-21_24h56.44.849,Info_measure_main_exp,2022.2.2,Win32,58.55829478,,,,,,,,,,,,,,,,,,masks/mask_003.jpg,,,,,,,,,,,,,,,,,,,,,,,,,,,,,,,,,,,,,,,,,,,,,,,,0,2,2,2,1,,,,,,,,,,,,,,,,,,,,,,,,,,,,,,,,,,,,,,,,,
685903,001,2022-11-21_24h56.44.849,Info_measure_main_exp,2022.2.2,Win32,58.55829478,,,,,,,,,,,,,,,,,,masks/mask_001.jpg,,,,,,,,,,,,,,,,,,,,,,,,,,,,,,,,,,,,,,,,,,,,,,,,0,3,3,0,1,,,,,,,,,,,,,,,,,,,,,,,,,,,,,,,,,,,,,,,,,
685903,001,2022-11-21_24h56.44.849,Info_measure_main_exp,2022.2.2,Win32,58.55829478,,,,,,,,,,,,,,,,,,masks/mask_002.jpg,,,,,,,,,,,,,,,,,,,,,,,,,,,,,,,,,,,,,,,,,,,,,,,,0,4,4,1,1,,,,,,,,,,,,,,,,,,,,,,,,,,,,,,,,,,,,,,,,,
685903,001,2022-11-21_24h56.44.849,Info_measure_main_exp,2022.2.2,Win32,58.55829478,,,,,,,,,,,,,,,,,,,,,,,,,,,,,,3,1.4496,1,,,,,,,,,,,,0,131,5,5,2142,2142,absent_patch/patch0002142.jpg,absent_patch/patch0002142.jpg,,,,,,,,,,,,,,,,,,,,-0.03515625,-0.095052083,1,0,0,response5disk,13,0.002604167,-0.009114583,1,0,0,center_square,0,12,12,13,1,,,,,,,,,,,,,,,,,,,,,,,
685903,001,2022-11-21_24h56.44.849,Info_measure_main_exp,2022.2.2,Win32,58.55829478,,,,,,,,,,,,,,,,,,masks/mask_002.jpg,,,,,,,,,,,,,,,,,,,,,,,,,,,,,,,,,,,,,,,,,,,0,0,0,1,1,,,,,,,,,,,,,,,,,,,,,,,,,,,,,,,,,,,,,,,,,,,,,,
685903,001,2022-11-21_24h56.44.849,Info_measure_main_exp,2022.2.2,Win32,58.55829478,,,,,,,,,,,,,,,,,,masks/mask_005.jpg,,,,,,,,,,,,,,,,,,,,,,,,,,,,,,,,,,,,,,,,,,,0,1,1,4,1,,,,,,,,,,,,,,,,,,,,,,,,,,,,,,,,,,,,,,,,,,,,,,
685903,001,2022-11-21_24h56.44.849,Info_measure_main_exp,2022.2.2,Win32,58.55829478,,,,,,,,,,,,,,,,,,masks/mask_004.jpg,,,,,,,,,,,,,,,,,,,,,,,,,,,,,,,,,,,,,,,,,,,0,2,2,3,1,,,,,,,,,,,,,,,,,,,,,,,,,,,,,,,,,,,,,,,,,,,,,,
685903,001,2022-11-21_24h56.44.849,Info_measure_main_exp,2022.2.2,Win32,58.55829478,,,,,,,,,,,,,,,,,,masks/mask_003.jpg,,,,,,,,,,,,,,,,,,,,,,,,,,,,,,,,,,,,,,,,,,,0,3,3,2,1,,,,,,,,,,,,,,,,,,,,,,,,,,,,,,,,,,,,,,,,,,,,,,
685903,001,2022-11-21_24h56.44.849,Info_measure_main_exp,2022.2.2,Win32,58.55829478,,,,,,,,,,,,,,,,,,masks/mask_001.jpg,,,,,,,,,,,,,,,,,,,,,,,,,,,,,,,,,,,,,,,,,,,0,4,4,0,1,,,,,,,,,,,,,,,,,,,,,,,,,,,,,,,,,,,,,,,,,,,,,,
685903,001,2022-11-21_24h56.44.849,Info_measure_main_exp,2022.2.2,Win32,58.55829478,,,,,,,,,,,,,,,,,,masks/mask_004.jpg,,,,,,,,,,,,,,,,,,,,,,,,,,,,,,,,,,,,,,,,,,,,,,,,0,0,0,3,1,,,,,,,,,,,,,,,,,,,,,,,,,,,,,,,,,,,,,,,,,
685903,001,2022-11-21_24h56.44.849,Info_measure_main_exp,2022.2.2,Win32,58.55829478,,,,,,,,,,,,,,,,,,masks/mask_001.jpg,,,,,,,,,,,,,,,,,,,,,,,,,,,,,,,,,,,,,,,,,,,,,,,,0,1,1,0,1,,,,,,,,,,,,,,,,,,,,,,,,,,,,,,,,,,,,,,,,,
685903,001,2022-11-21_24h56.44.849,Info_measure_main_exp,2022.2.2,Win32,58.55829478,,,,,,,,,,,,,,,,,,masks/mask_005.jpg,,,,,,,,,,,,,,,,,,,,,,,,,,,,,,,,,,,,,,,,,,,,,,,,0,2,2,4,1,,,,,,,,,,,,,,,,,,,,,,,,,,,,,,,,,,,,,,,,,
685903,001,2022-11-21_24h56.44.849,Info_measure_main_exp,2022.2.2,Win32,58.55829478,,,,,,,,,,,,,,,,,,masks/mask_002.jpg,,,,,,,,,,,,,,,,,,,,,,,,,,,,,,,,,,,,,,,,,,,,,,,,0,3,3,1,1,,,,,,,,,,,,,,,,,,,,,,,,,,,,,,,,,,,,,,,,,
685903,001,2022-11-21_24h56.44.849,Info_measure_main_exp,2022.2.2,Win32,58.55829478,,,,,,,,,,,,,,,,,,masks/mask_003.jpg,,,,,,,,,,,,,,,,,,,,,,,,,,,,,,,,,,,,,,,,,,,,,,,,0,4,4,2,1,,,,,,,,,,,,,,,,,,,,,,,,,,,,,,,,,,,,,,,,,
685903,001,2022-11-21_24h56.44.849,Info_measure_main_exp,2022.2.2,Win32,58.55829478,,,,,,,,,,,,,,,,,,,,,,,,,,,,,,4,1.2233,1,,,,,,,,,,,,0,131,5,5,2274,2166,absent_patch/patch0002274.jpg,absent_patch/patch0002166.jpg,,,,,,,,,,,,,,,,,,,,0.022135417,-0.095052083,1,0,0,response3disk,14,0.006510417,-0.005208333,1,0,0,center_square,0,13,13,78,1,,,,,,,,,,,,,,,,,,,,,,,
685903,001,2022-11-21_24h56.44.849,Info_measure_main_exp,2022.2.2,Win32,58.55829478,,,,,,,,,,,,,,,,,,masks/mask_001.jpg,,,,,,,,,,,,,,,,,,,,,,,,,,,,,,,,,,,,,,,,,,,0,0,0,0,1,,,,,,,,,,,,,,,,,,,,,,,,,,,,,,,,,,,,,,,,,,,,,,
685903,001,2022-11-21_24h56.44.849,Info_measure_main_exp,2022.2.2,Win32,58.55829478,,,,,,,,,,,,,,,,,,masks/mask_005.jpg,,,,,,,,,,,,,,,,,,,,,,,,,,,,,,,,,,,,,,,,,,,0,1,1,4,1,,,,,,,,,,,,,,,,,,,,,,,,,,,,,,,,,,,,,,,,,,,,,,
685903,001,2022-11-21_24h56.44.849,Info_measure_main_exp,2022.2.2,Win32,58.55829478,,,,,,,,,,,,,,,,,,masks/mask_002.jpg,,,,,,,,,,,,,,,,,,,,,,,,,,,,,,,,,,,,,,,,,,,0,2,2,1,1,,,,,,,,,,,,,,,,,,,,,,,,,,,,,,,,,,,,,,,,,,,,,,
685903,001,2022-11-21_24h56.44.849,Info_measure_main_exp,2022.2.2,Win32,58.55829478,,,,,,,,,,,,,,,,,,masks/mask_004.jpg,,,,,,,,,,,,,,,,,,,,,,,,,,,,,,,,,,,,,,,,,,,0,3,3,3,1,,,,,,,,,,,,,,,,,,,,,,,,,,,,,,,,,,,,,,,,,,,,,,
685903,001,2022-11-21_24h56.44.849,Info_measure_main_exp,2022.2.2,Win32,58.55829478,,,,,,,,,,,,,,,,,,masks/mask_003.jpg,,,,,,,,,,,,,,,,,,,,,,,,,,,,,,,,,,,,,,,,,,,0,4,4,2,1,,,,,,,,,,,,,,,,,,,,,,,,,,,,,,,,,,,,,,,,,,,,,,
685903,001,2022-11-21_24h56.44.849,Info_measure_main_exp,2022.2.2,Win32,58.55829478,,,,,,,,,,,,,,,,,,masks/mask_001.jpg,,,,,,,,,,,,,,,,,,,,,,,,,,,,,,,,,,,,,,,,,,,,,,,,0,0,0,0,1,,,,,,,,,,,,,,,,,,,,,,,,,,,,,,,,,,,,,,,,,
685903,001,2022-11-21_24h56.44.849,Info_measure_main_exp,2022.2.2,Win32,58.55829478,,,,,,,,,,,,,,,,,,masks/mask_005.jpg,,,,,,,,,,,,,,,,,,,,,,,,,,,,,,,,,,,,,,,,,,,,,,,,0,1,1,4,1,,,,,,,,,,,,,,,,,,,,,,,,,,,,,,,,,,,,,,,,,
685903,001,2022-11-21_24h56.44.849,Info_measure_main_exp,2022.2.2,Win32,58.55829478,,,,,,,,,,,,,,,,,,masks/mask_003.jpg,,,,,,,,,,,,,,,,,,,,,,,,,,,,,,,,,,,,,,,,,,,,,,,,0,2,2,2,1,,,,,,,,,,,,,,,,,,,,,,,,,,,,,,,,,,,,,,,,,
685903,001,2022-11-21_24h56.44.849,Info_measure_main_exp,2022.2.2,Win32,58.55829478,,,,,,,,,,,,,,,,,,masks/mask_004.jpg,,,,,,,,,,,,,,,,,,,,,,,,,,,,,,,,,,,,,,,,,,,,,,,,0,3,3,3,1,,,,,,,,,,,,,,,,,,,,,,,,,,,,,,,,,,,,,,,,,
685903,001,2022-11-21_24h56.44.849,Info_measure_main_exp,2022.2.2,Win32,58.55829478,,,,,,,,,,,,,,,,,,masks/mask_002.jpg,,,,,,,,,,,,,,,,,,,,,,,,,,,,,,,,,,,,,,,,,,,,,,,,0,4,4,1,1,,,,,,,,,,,,,,,,,,,,,,,,,,,,,,,,,,,,,,,,,
685903,001,2022-11-21_24h56.44.849,Info_measure_main_exp,2022.2.2,Win32,58.55829478,,,,,,,,,,,,,,,,,,,,,,,,,,,,,,6,1.2031,1,,,,,,,,,,,,0,131,5,5,2214,1986,absent_patch/patch0002214.jpg,absent_patch/patch0001986.jpg,,,,,,,,,,,,,,,,,,,,0.123697917,0.03515625,1,0,0,response1disk,15,0.005208333,0,1,0,0,center_square,0,14,14,34,1,,,,,,,,,,,,,,,,,,,,,,,
685903,001,2022-11-21_24h56.44.849,Info_measure_main_exp,2022.2.2,Win32,58.55829478,,,,,,,,,,,,,,,,,,masks/mask_001.jpg,,,,,,,,,,,,,,,,,,,,,,,,,,,,,,,,,,,,,,,,,,,0,0,0,0,1,,,,,,,,,,,,,,,,,,,,,,,,,,,,,,,,,,,,,,,,,,,,,,
685903,001,2022-11-21_24h56.44.849,Info_measure_main_exp,2022.2.2,Win32,58.55829478,,,,,,,,,,,,,,,,,,masks/mask_004.jpg,,,,,,,,,,,,,,,,,,,,,,,,,,,,,,,,,,,,,,,,,,,0,1,1,3,1,,,,,,,,,,,,,,,,,,,,,,,,,,,,,,,,,,,,,,,,,,,,,,
685903,001,2022-11-21_24h56.44.849,Info_measure_main_exp,2022.2.2,Win32,58.55829478,,,,,,,,,,,,,,,,,,masks/mask_005.jpg,,,,,,,,,,,,,,,,,,,,,,,,,,,,,,,,,,,,,,,,,,,0,2,2,4,1,,,,,,,,,,,,,,,,,,,,,,,,,,,,,,,,,,,,,,,,,,,,,,
685903,001,2022-11-21_24h56.44.849,Info_measure_main_exp,2022.2.2,Win32,58.55829478,,,,,,,,,,,,,,,,,,masks/mask_002.jpg,,,,,,,,,,,,,,,,,,,,,,,,,,,,,,,,,,,,,,,,,,,0,3,3,1,1,,,,,,,,,,,,,,,,,,,,,,,,,,,,,,,,,,,,,,,,,,,,,,
685903,001,2022-11-21_24h56.44.849,Info_measure_main_exp,2022.2.2,Win32,58.55829478,,,,,,,,,,,,,,,,,,masks/mask_003.jpg,,,,,,,,,,,,,,,,,,,,,,,,,,,,,,,,,,,,,,,,,,,0,4,4,2,1,,,,,,,,,,,,,,,,,,,,,,,,,,,,,,,,,,,,,,,,,,,,,,
685903,001,2022-11-21_24h56.44.849,Info_measure_main_exp,2022.2.2,Win32,58.55829478,,,,,,,,,,,,,,,,,,masks/mask_002.jpg,,,,,,,,,,,,,,,,,,,,,,,,,,,,,,,,,,,,,,,,,,,,,,,,0,0,0,1,1,,,,,,,,,,,,,,,,,,,,,,,,,,,,,,,,,,,,,,,,,
685903,001,2022-11-21_24h56.44.849,Info_measure_main_exp,2022.2.2,Win32,58.55829478,,,,,,,,,,,,,,,,,,masks/mask_004.jpg,,,,,,,,,,,,,,,,,,,,,,,,,,,,,,,,,,,,,,,,,,,,,,,,0,1,1,3,1,,,,,,,,,,,,,,,,,,,,,,,,,,,,,,,,,,,,,,,,,
685903,001,2022-11-21_24h56.44.849,Info_measure_main_exp,2022.2.2,Win32,58.55829478,,,,,,,,,,,,,,,,,,masks/mask_003.jpg,,,,,,,,,,,,,,,,,,,,,,,,,,,,,,,,,,,,,,,,,,,,,,,,0,2,2,2,1,,,,,,,,,,,,,,,,,,,,,,,,,,,,,,,,,,,,,,,,,
685903,001,2022-11-21_24h56.44.849,Info_measure_main_exp,2022.2.2,Win32,58.55829478,,,,,,,,,,,,,,,,,,masks/mask_005.jpg,,,,,,,,,,,,,,,,,,,,,,,,,,,,,,,,,,,,,,,,,,,,,,,,0,3,3,4,1,,,,,,,,,,,,,,,,,,,,,,,,,,,,,,,,,,,,,,,,,
685903,001,2022-11-21_24h56.44.849,Info_measure_main_exp,2022.2.2,Win32,58.55829478,,,,,,,,,,,,,,,,,,masks/mask_001.jpg,,,,,,,,,,,,,,,,,,,,,,,,,,,,,,,,,,,,,,,,,,,,,,,,0,4,4,0,1,,,,,,,,,,,,,,,,,,,,,,,,,,,,,,,,,,,,,,,,,
685903,001,2022-11-21_24h56.44.849,Info_measure_main_exp,2022.2.2,Win32,58.55829478,,,,,,,,,,,,,,,,,,,,,,,,,,,,,,0,0.783,1,,,,,,,,,,,,0,131,5,5,2190,2190,absent_patch/patch0002190.jpg,absent_patch/patch0002190.jpg,,,,,,,,,,,,,,,,,,,,-0.028645833,0.076822917,1,0,0,response7disk,16,-0.002604167,0.005208333,1,0,0,center_square,0,15,15,86,1,,,,,,,,,,,,,,,,,,,,,,,
685903,001,2022-11-21_24h56.44.849,Info_measure_main_exp,2022.2.2,Win32,58.55829478,,,,,,,,,,,,,,,,,,masks/mask_004.jpg,,,,,,,,,,,,,,,,,,,,,,,,,,,,,,,,,,,,,,,,,,,0,0,0,3,1,,,,,,,,,,,,,,,,,,,,,,,,,,,,,,,,,,,,,,,,,,,,,,
685903,001,2022-11-21_24h56.44.849,Info_measure_main_exp,2022.2.2,Win32,58.55829478,,,,,,,,,,,,,,,,,,masks/mask_001.jpg,,,,,,,,,,,,,,,,,,,,,,,,,,,,,,,,,,,,,,,,,,,0,1,1,0,1,,,,,,,,,,,,,,,,,,,,,,,,,,,,,,,,,,,,,,,,,,,,,,
685903,001,2022-11-21_24h56.44.849,Info_measure_main_exp,2022.2.2,Win32,58.55829478,,,,,,,,,,,,,,,,,,masks/mask_003.jpg,,,,,,,,,,,,,,,,,,,,,,,,,,,,,,,,,,,,,,,,,,,0,2,2,2,1,,,,,,,,,,,,,,,,,,,,,,,,,,,,,,,,,,,,,,,,,,,,,,
685903,001,2022-11-21_24h56.44.849,Info_measure_main_exp,2022.2.2,Win32,58.55829478,,,,,,,,,,,,,,,,,,masks/mask_002.jpg,,,,,,,,,,,,,,,,,,,,,,,,,,,,,,,,,,,,,,,,,,,0,3,3,1,1,,,,,,,,,,,,,,,,,,,,,,,,,,,,,,,,,,,,,,,,,,,,,,
685903,001,2022-11-21_24h56.44.849,Info_measure_main_exp,2022.2.2,Win32,58.55829478,,,,,,,,,,,,,,,,,,masks/mask_005.jpg,,,,,,,,,,,,,,,,,,,,,,,,,,,,,,,,,,,,,,,,,,,0,4,4,4,1,,,,,,,,,,,,,,,,,,,,,,,,,,,,,,,,,,,,,,,,,,,,,,
685903,001,2022-11-21_24h56.44.849,Info_measure_main_exp,2022.2.2,Win32,58.55829478,,,,,,,,,,,,,,,,,,masks/mask_005.jpg,,,,,,,,,,,,,,,,,,,,,,,,,,,,,,,,,,,,,,,,,,,,,,,,0,0,0,4,1,,,,,,,,,,,,,,,,,,,,,,,,,,,,,,,,,,,,,,,,,
685903,001,2022-11-21_24h56.44.849,Info_measure_main_exp,2022.2.2,Win32,58.55829478,,,,,,,,,,,,,,,,,,masks/mask_003.jpg,,,,,,,,,,,,,,,,,,,,,,,,,,,,,,,,,,,,,,,,,,,,,,,,0,1,1,2,1,,,,,,,,,,,,,,,,,,,,,,,,,,,,,,,,,,,,,,,,,
685903,001,2022-11-21_24h56.44.849,Info_measure_main_exp,2022.2.2,Win32,58.55829478,,,,,,,,,,,,,,,,,,masks/mask_002.jpg,,,,,,,,,,,,,,,,,,,,,,,,,,,,,,,,,,,,,,,,,,,,,,,,0,2,2,1,1,,,,,,,,,,,,,,,,,,,,,,,,,,,,,,,,,,,,,,,,,
685903,001,2022-11-21_24h56.44.849,Info_measure_main_exp,2022.2.2,Win32,58.55829478,,,,,,,,,,,,,,,,,,masks/mask_001.jpg,,,,,,,,,,,,,,,,,,,,,,,,,,,,,,,,,,,,,,,,,,,,,,,,0,3,3,0,1,,,,,,,,,,,,,,,,,,,,,,,,,,,,,,,,,,,,,,,,,
685903,001,2022-11-21_24h56.44.849,Info_measure_main_exp,2022.2.2,Win32,58.55829478,,,,,,,,,,,,,,,,,,masks/mask_004.jpg,,,,,,,,,,,,,,,,,,,,,,,,,,,,,,,,,,,,,,,,,,,,,,,,0,4,4,3,1,,,,,,,,,,,,,,,,,,,,,,,,,,,,,,,,,,,,,,,,,
685903,001,2022-11-21_24h56.44.849,Info_measure_main_exp,2022.2.2,Win32,58.55829478,,,,,,,,,,,,,,,,,,,,,,,,,,,,,,1,1.4468,1,,,,,,,,,,,,0,131,5,5,2298,2190,absent_patch/patch0002298.jpg,absent_patch/patch0002190.jpg,,,,,,,,,,,,,,,,,,,,-0.151041667,0.018229167,1,0,0,response7disk,17,0.013020833,-0.002604167,1,0,0,center_square,0,16,16,20,1,,,,,,,,,,,,,,,,,,,,,,,
685903,001,2022-11-21_24h56.44.849,Info_measure_main_exp,2022.2.2,Win32,58.55829478,,,,,,,,,,,,,,,,,,masks/mask_001.jpg,,,,,,,,,,,,,,,,,,,,,,,,,,,,,,,,,,,,,,,,,,,0,0,0,0,1,,,,,,,,,,,,,,,,,,,,,,,,,,,,,,,,,,,,,,,,,,,,,,
685903,001,2022-11-21_24h56.44.849,Info_measure_main_exp,2022.2.2,Win32,58.55829478,,,,,,,,,,,,,,,,,,masks/mask_002.jpg,,,,,,,,,,,,,,,,,,,,,,,,,,,,,,,,,,,,,,,,,,,0,1,1,1,1,,,,,,,,,,,,,,,,,,,,,,,,,,,,,,,,,,,,,,,,,,,,,,
685903,001,2022-11-21_24h56.44.849,Info_measure_main_exp,2022.2.2,Win32,58.55829478,,,,,,,,,,,,,,,,,,masks/mask_003.jpg,,,,,,,,,,,,,,,,,,,,,,,,,,,,,,,,,,,,,,,,,,,0,2,2,2,1,,,,,,,,,,,,,,,,,,,,,,,,,,,,,,,,,,,,,,,,,,,,,,
685903,001,2022-11-21_24h56.44.849,Info_measure_main_exp,2022.2.2,Win32,58.55829478,,,,,,,,,,,,,,,,,,masks/mask_005.jpg,,,,,,,,,,,,,,,,,,,,,,,,,,,,,,,,,,,,,,,,,,,0,3,3,4,1,,,,,,,,,,,,,,,,,,,,,,,,,,,,,,,,,,,,,,,,,,,,,,
685903,001,2022-11-21_24h56.44.849,Info_measure_main_exp,2022.2.2,Win32,58.55829478,,,,,,,,,,,,,,,,,,masks/mask_004.jpg,,,,,,,,,,,,,,,,,,,,,,,,,,,,,,,,,,,,,,,,,,,0,4,4,3,1,,,,,,,,,,,,,,,,,,,,,,,,,,,,,,,,,,,,,,,,,,,,,,
685903,001,2022-11-21_24h56.44.849,Info_measure_main_exp,2022.2.2,Win32,58.55829478,,,,,,,,,,,,,,,,,,masks/mask_001.jpg,,,,,,,,,,,,,,,,,,,,,,,,,,,,,,,,,,,,,,,,,,,,,,,,0,0,0,0,1,,,,,,,,,,,,,,,,,,,,,,,,,,,,,,,,,,,,,,,,,
685903,001,2022-11-21_24h56.44.849,Info_measure_main_exp,2022.2.2,Win32,58.55829478,,,,,,,,,,,,,,,,,,masks/mask_002.jpg,,,,,,,,,,,,,,,,,,,,,,,,,,,,,,,,,,,,,,,,,,,,,,,,0,1,1,1,1,,,,,,,,,,,,,,,,,,,,,,,,,,,,,,,,,,,,,,,,,
685903,001,2022-11-21_24h56.44.849,Info_measure_main_exp,2022.2.2,Win32,58.55829478,,,,,,,,,,,,,,,,,,masks/mask_003.jpg,,,,,,,,,,,,,,,,,,,,,,,,,,,,,,,,,,,,,,,,,,,,,,,,0,2,2,2,1,,,,,,,,,,,,,,,,,,,,,,,,,,,,,,,,,,,,,,,,,
685903,001,2022-11-21_24h56.44.849,Info_measure_main_exp,2022.2.2,Win32,58.55829478,,,,,,,,,,,,,,,,,,masks/mask_005.jpg,,,,,,,,,,,,,,,,,,,,,,,,,,,,,,,,,,,,,,,,,,,,,,,,0,3,3,4,1,,,,,,,,,,,,,,,,,,,,,,,,,,,,,,,,,,,,,,,,,
685903,001,2022-11-21_24h56.44.849,Info_measure_main_exp,2022.2.2,Win32,58.55829478,,,,,,,,,,,,,,,,,,masks/mask_004.jpg,,,,,,,,,,,,,,,,,,,,,,,,,,,,,,,,,,,,,,,,,,,,,,,,0,4,4,3,1,,,,,,,,,,,,,,,,,,,,,,,,,,,,,,,,,,,,,,,,,
685903,001,2022-11-21_24h56.44.849,Info_measure_main_exp,2022.2.2,Win32,58.55829478,,,,,,,,,,,,,,,,,,,,,,,,,,,,,,6,0.8683,1,,,,,,,,,,,,0,131,5,5,2082,2166,absent_patch/patch0002082.jpg,absent_patch/patch0002166.jpg,,,,,,,,,,,,,,,,,,,,0.102864583,0.044270833,1,0,0,response1disk,18,0.009114583,-0.005208333,1,0,0,center_square,0,17,17,43,1,,,,,,,,,,,,,,,,,,,,,,,
685903,001,2022-11-21_24h56.44.849,Info_measure_main_exp,2022.2.2,Win32,58.55829478,,,,,,,,,,,,,,,,,,masks/mask_004.jpg,,,,,,,,,,,,,,,,,,,,,,,,,,,,,,,,,,,,,,,,,,,0,0,0,3,1,,,,,,,,,,,,,,,,,,,,,,,,,,,,,,,,,,,,,,,,,,,,,,
685903,001,2022-11-21_24h56.44.849,Info_measure_main_exp,2022.2.2,Win32,58.55829478,,,,,,,,,,,,,,,,,,masks/mask_002.jpg,,,,,,,,,,,,,,,,,,,,,,,,,,,,,,,,,,,,,,,,,,,0,1,1,1,1,,,,,,,,,,,,,,,,,,,,,,,,,,,,,,,,,,,,,,,,,,,,,,
685903,001,2022-11-21_24h56.44.849,Info_measure_main_exp,2022.2.2,Win32,58.55829478,,,,,,,,,,,,,,,,,,masks/mask_001.jpg,,,,,,,,,,,,,,,,,,,,,,,,,,,,,,,,,,,,,,,,,,,0,2,2,0,1,,,,,,,,,,,,,,,,,,,,,,,,,,,,,,,,,,,,,,,,,,,,,,
685903,001,2022-11-21_24h56.44.849,Info_measure_main_exp,2022.2.2,Win32,58.55829478,,,,,,,,,,,,,,,,,,masks/mask_005.jpg,,,,,,,,,,,,,,,,,,,,,,,,,,,,,,,,,,,,,,,,,,,0,3,3,4,1,,,,,,,,,,,,,,,,,,,,,,,,,,,,,,,,,,,,,,,,,,,,,,
685903,001,2022-11-21_24h56.44.849,Info_measure_main_exp,2022.2.2,Win32,58.55829478,,,,,,,,,,,,,,,,,,masks/mask_003.jpg,,,,,,,,,,,,,,,,,,,,,,,,,,,,,,,,,,,,,,,,,,,0,4,4,2,1,,,,,,,,,,,,,,,,,,,,,,,,,,,,,,,,,,,,,,,,,,,,,,
685903,001,2022-11-21_24h56.44.849,Info_measure_main_exp,2022.2.2,Win32,58.55829478,,,,,,,,,,,,,,,,,,masks/mask_003.jpg,,,,,,,,,,,,,,,,,,,,,,,,,,,,,,,,,,,,,,,,,,,,,,,,0,0,0,2,1,,,,,,,,,,,,,,,,,,,,,,,,,,,,,,,,,,,,,,,,,
685903,001,2022-11-21_24h56.44.849,Info_measure_main_exp,2022.2.2,Win32,58.55829478,,,,,,,,,,,,,,,,,,masks/mask_002.jpg,,,,,,,,,,,,,,,,,,,,,,,,,,,,,,,,,,,,,,,,,,,,,,,,0,1,1,1,1,,,,,,,,,,,,,,,,,,,,,,,,,,,,,,,,,,,,,,,,,
685903,001,2022-11-21_24h56.44.849,Info_measure_main_exp,2022.2.2,Win32,58.55829478,,,,,,,,,,,,,,,,,,masks/mask_001.jpg,,,,,,,,,,,,,,,,,,,,,,,,,,,,,,,,,,,,,,,,,,,,,,,,0,2,2,0,1,,,,,,,,,,,,,,,,,,,,,,,,,,,,,,,,,,,,,,,,,
685903,001,2022-11-21_24h56.44.849,Info_measure_main_exp,2022.2.2,Win32,58.55829478,,,,,,,,,,,,,,,,,,masks/mask_005.jpg,,,,,,,,,,,,,,,,,,,,,,,,,,,,,,,,,,,,,,,,,,,,,,,,0,3,3,4,1,,,,,,,,,,,,,,,,,,,,,,,,,,,,,,,,,,,,,,,,,
685903,001,2022-11-21_24h56.44.849,Info_measure_main_exp,2022.2.2,Win32,58.55829478,,,,,,,,,,,,,,,,,,masks/mask_004.jpg,,,,,,,,,,,,,,,,,,,,,,,,,,,,,,,,,,,,,,,,,,,,,,,,0,4,4,3,1,,,,,,,,,,,,,,,,,,,,,,,,,,,,,,,,,,,,,,,,,
685903,001,2022-11-21_24h56.44.849,Info_measure_main_exp,2022.2.2,Win32,58.55829478,,,,,,,,,,,,,,,,,,,,,,,,,,,,,,7,0.7124,1,,,,,,,,,,,,0,131,5,5,1974,2214,absent_patch/patch0001974.jpg,absent_patch/patch0002214.jpg,,,,,,,,,,,,,,,,,,,,0.049479167,0.106770833,1,0,0,response1disk,19,-0.00390625,-0.001302083,1,0,0,center_square,0,18,18,24,1,,,,,,,,,,,,,,,,,,,,,,,
685903,001,2022-11-21_24h56.44.849,Info_measure_main_exp,2022.2.2,Win32,58.55829478,,,,,,,,,,,,,,,,,,masks/mask_003.jpg,,,,,,,,,,,,,,,,,,,,,,,,,,,,,,,,,,,,,,,,,,,0,0,0,2,1,,,,,,,,,,,,,,,,,,,,,,,,,,,,,,,,,,,,,,,,,,,,,,
685903,001,2022-11-21_24h56.44.849,Info_measure_main_exp,2022.2.2,Win32,58.55829478,,,,,,,,,,,,,,,,,,masks/mask_004.jpg,,,,,,,,,,,,,,,,,,,,,,,,,,,,,,,,,,,,,,,,,,,0,1,1,3,1,,,,,,,,,,,,,,,,,,,,,,,,,,,,,,,,,,,,,,,,,,,,,,
685903,001,2022-11-21_24h56.44.849,Info_measure_main_exp,2022.2.2,Win32,58.55829478,,,,,,,,,,,,,,,,,,masks/mask_001.jpg,,,,,,,,,,,,,,,,,,,,,,,,,,,,,,,,,,,,,,,,,,,0,2,2,0,1,,,,,,,,,,,,,,,,,,,,,,,,,,,,,,,,,,,,,,,,,,,,,,
685903,001,2022-11-21_24h56.44.849,Info_measure_main_exp,2022.2.2,Win32,58.55829478,,,,,,,,,,,,,,,,,,masks/mask_002.jpg,,,,,,,,,,,,,,,,,,,,,,,,,,,,,,,,,,,,,,,,,,,0,3,3,1,1,,,,,,,,,,,,,,,,,,,,,,,,,,,,,,,,,,,,,,,,,,,,,,
685903,001,2022-11-21_24h56.44.849,Info_measure_main_exp,2022.2.2,Win32,58.55829478,,,,,,,,,,,,,,,,,,masks/mask_005.jpg,,,,,,,,,,,,,,,,,,,,,,,,,,,,,,,,,,,,,,,,,,,0,4,4,4,1,,,,,,,,,,,,,,,,,,,,,,,,,,,,,,,,,,,,,,,,,,,,,,
685903,001,2022-11-21_24h56.44.849,Info_measure_main_exp,2022.2.2,Win32,58.55829478,,,,,,,,,,,,,,,,,,masks/mask_001.jpg,,,,,,,,,,,,,,,,,,,,,,,,,,,,,,,,,,,,,,,,,,,,,,,,0,0,0,0,1,,,,,,,,,,,,,,,,,,,,,,,,,,,,,,,,,,,,,,,,,
685903,001,2022-11-21_24h56.44.849,Info_measure_main_exp,2022.2.2,Win32,58.55829478,,,,,,,,,,,,,,,,,,masks/mask_004.jpg,,,,,,,,,,,,,,,,,,,,,,,,,,,,,,,,,,,,,,,,,,,,,,,,0,1,1,3,1,,,,,,,,,,,,,,,,,,,,,,,,,,,,,,,,,,,,,,,,,
685903,001,2022-11-21_24h56.44.849,Info_measure_main_exp,2022.2.2,Win32,58.55829478,,,,,,,,,,,,,,,,,,masks/mask_003.jpg,,,,,,,,,,,,,,,,,,,,,,,,,,,,,,,,,,,,,,,,,,,,,,,,0,2,2,2,1,,,,,,,,,,,,,,,,,,,,,,,,,,,,,,,,,,,,,,,,,
685903,001,2022-11-21_24h56.44.849,Info_measure_main_exp,2022.2.2,Win32,58.55829478,,,,,,,,,,,,,,,,,,masks/mask_002.jpg,,,,,,,,,,,,,,,,,,,,,,,,,,,,,,,,,,,,,,,,,,,,,,,,0,3,3,1,1,,,,,,,,,,,,,,,,,,,,,,,,,,,,,,,,,,,,,,,,,
685903,001,2022-11-21_24h56.44.849,Info_measure_main_exp,2022.2.2,Win32,58.55829478,,,,,,,,,,,,,,,,,,masks/mask_005.jpg,,,,,,,,,,,,,,,,,,,,,,,,,,,,,,,,,,,,,,,,,,,,,,,,0,4,4,4,1,,,,,,,,,,,,,,,,,,,,,,,,,,,,,,,,,,,,,,,,,
685903,001,2022-11-21_24h56.44.849,Info_measure_main_exp,2022.2.2,Win32,58.55829478,,,,,,,,,,,,,,,,,,,,,,,,,,,,,,7,0.7838,1,,,,,,,,,,,,0,131,5,5,2274,2190,absent_patch/patch0002274.jpg,absent_patch/patch0002190.jpg,,,,,,,,,,,,,,,,,,,,0.04296875,0.076822917,1,0,0,response1disk,20,-0.005208333,-0.00390625,1,0,0,center_square,0,19,19,116,1,,,,,,,,,,,,,,,,,,,,,,,
685903,001,2022-11-21_24h56.44.849,Info_measure_main_exp,2022.2.2,Win32,58.55829478,,,,,,,,,,,,,,,,,,masks/mask_004.jpg,,,,,,,,,,,,,,,,,,,,,,,,,,,,,,,,,,,,,,,,,,,0,0,0,3,1,,,,,,,,,,,,,,,,,,,,,,,,,,,,,,,,,,,,,,,,,,,,,,
685903,001,2022-11-21_24h56.44.849,Info_measure_main_exp,2022.2.2,Win32,58.55829478,,,,,,,,,,,,,,,,,,masks/mask_001.jpg,,,,,,,,,,,,,,,,,,,,,,,,,,,,,,,,,,,,,,,,,,,0,1,1,0,1,,,,,,,,,,,,,,,,,,,,,,,,,,,,,,,,,,,,,,,,,,,,,,
685903,001,2022-11-21_24h56.44.849,Info_measure_main_exp,2022.2.2,Win32,58.55829478,,,,,,,,,,,,,,,,,,masks/mask_005.jpg,,,,,,,,,,,,,,,,,,,,,,,,,,,,,,,,,,,,,,,,,,,0,2,2,4,1,,,,,,,,,,,,,,,,,,,,,,,,,,,,,,,,,,,,,,,,,,,,,,
685903,001,2022-11-21_24h56.44.849,Info_measure_main_exp,2022.2.2,Win32,58.55829478,,,,,,,,,,,,,,,,,,masks/mask_002.jpg,,,,,,,,,,,,,,,,,,,,,,,,,,,,,,,,,,,,,,,,,,,0,3,3,1,1,,,,,,,,,,,,,,,,,,,,,,,,,,,,,,,,,,,,,,,,,,,,,,
685903,001,2022-11-21_24h56.44.849,Info_measure_main_exp,2022.2.2,Win32,58.55829478,,,,,,,,,,,,,,,,,,masks/mask_003.jpg,,,,,,,,,,,,,,,,,,,,,,,,,,,,,,,,,,,,,,,,,,,0,4,4,2,1,,,,,,,,,,,,,,,,,,,,,,,,,,,,,,,,,,,,,,,,,,,,,,
685903,001,2022-11-21_24h56.44.849,Info_measure_main_exp,2022.2.2,Win32,58.55829478,,,,,,,,,,,,,,,,,,masks/mask_004.jpg,,,,,,,,,,,,,,,,,,,,,,,,,,,,,,,,,,,,,,,,,,,,,,,,0,0,0,3,1,,,,,,,,,,,,,,,,,,,,,,,,,,,,,,,,,,,,,,,,,
685903,001,2022-11-21_24h56.44.849,Info_measure_main_exp,2022.2.2,Win32,58.55829478,,,,,,,,,,,,,,,,,,masks/mask_003.jpg,,,,,,,,,,,,,,,,,,,,,,,,,,,,,,,,,,,,,,,,,,,,,,,,0,1,1,2,1,,,,,,,,,,,,,,,,,,,,,,,,,,,,,,,,,,,,,,,,,
685903,001,2022-11-21_24h56.44.849,Info_measure_main_exp,2022.2.2,Win32,58.55829478,,,,,,,,,,,,,,,,,,masks/mask_005.jpg,,,,,,,,,,,,,,,,,,,,,,,,,,,,,,,,,,,,,,,,,,,,,,,,0,2,2,4,1,,,,,,,,,,,,,,,,,,,,,,,,,,,,,,,,,,,,,,,,,
685903,001,2022-11-21_24h56.44.849,Info_measure_main_exp,2022.2.2,Win32,58.55829478,,,,,,,,,,,,,,,,,,masks/mask_001.jpg,,,,,,,,,,,,,,,,,,,,,,,,,,,,,,,,,,,,,,,,,,,,,,,,0,3,3,0,1,,,,,,,,,,,,,,,,,,,,,,,,,,,,,,,,,,,,,,,,,
685903,001,2022-11-21_24h56.44.849,Info_measure_main_exp,2022.2.2,Win32,58.55829478,,,,,,,,,,,,,,,,,,masks/mask_002.jpg,,,,,,,,,,,,,,,,,,,,,,,,,,,,,,,,,,,,,,,,,,,,,,,,0,4,4,1,1,,,,,,,,,,,,,,,,,,,,,,,,,,,,,,,,,,,,,,,,,
685903,001,2022-11-21_24h56.44.849,Info_measure_main_exp,2022.2.2,Win32,58.55829478,,,,,,,,,,,,,,,,,,,,,,,,,,,,,,4,0.9363,1,,,,,,,,,,,,0,131,5,5,1986,2274,absent_patch/patch0001986.jpg,absent_patch/patch0002274.jpg,,,,,,,,,,,,,,,,,,,,0.026041667,-0.091145833,1,0,0,response3disk,21,0.002604167,-0.006510417,1,0,0,center_square,0,20,20,7,1,,,,,,,,,,,,,,,,,,,,,,,
685903,001,2022-11-21_24h56.44.849,Info_measure_main_exp,2022.2.2,Win32,58.55829478,,,,,,,,,,,,,,,,,,masks/mask_002.jpg,,,,,,,,,,,,,,,,,,,,,,,,,,,,,,,,,,,,,,,,,,,0,0,0,1,1,,,,,,,,,,,,,,,,,,,,,,,,,,,,,,,,,,,,,,,,,,,,,,
685903,001,2022-11-21_24h56.44.849,Info_measure_main_exp,2022.2.2,Win32,58.55829478,,,,,,,,,,,,,,,,,,masks/mask_001.jpg,,,,,,,,,,,,,,,,,,,,,,,,,,,,,,,,,,,,,,,,,,,0,1,1,0,1,,,,,,,,,,,,,,,,,,,,,,,,,,,,,,,,,,,,,,,,,,,,,,
685903,001,2022-11-21_24h56.44.849,Info_measure_main_exp,2022.2.2,Win32,58.55829478,,,,,,,,,,,,,,,,,,masks/mask_004.jpg,,,,,,,,,,,,,,,,,,,,,,,,,,,,,,,,,,,,,,,,,,,0,2,2,3,1,,,,,,,,,,,,,,,,,,,,,,,,,,,,,,,,,,,,,,,,,,,,,,
685903,001,2022-11-21_24h56.44.849,Info_measure_main_exp,2022.2.2,Win32,58.55829478,,,,,,,,,,,,,,,,,,masks/mask_005.jpg,,,,,,,,,,,,,,,,,,,,,,,,,,,,,,,,,,,,,,,,,,,0,3,3,4,1,,,,,,,,,,,,,,,,,,,,,,,,,,,,,,,,,,,,,,,,,,,,,,
685903,001,2022-11-21_24h56.44.849,Info_measure_main_exp,2022.2.2,Win32,58.55829478,,,,,,,,,,,,,,,,,,masks/mask_003.jpg,,,,,,,,,,,,,,,,,,,,,,,,,,,,,,,,,,,,,,,,,,,0,4,4,2,1,,,,,,,,,,,,,,,,,,,,,,,,,,,,,,,,,,,,,,,,,,,,,,
685903,001,2022-11-21_24h56.44.849,Info_measure_main_exp,2022.2.2,Win32,58.55829478,,,,,,,,,,,,,,,,,,masks/mask_003.jpg,,,,,,,,,,,,,,,,,,,,,,,,,,,,,,,,,,,,,,,,,,,,,,,,0,0,0,2,1,,,,,,,,,,,,,,,,,,,,,,,,,,,,,,,,,,,,,,,,,
685903,001,2022-11-21_24h56.44.849,Info_measure_main_exp,2022.2.2,Win32,58.55829478,,,,,,,,,,,,,,,,,,masks/mask_004.jpg,,,,,,,,,,,,,,,,,,,,,,,,,,,,,,,,,,,,,,,,,,,,,,,,0,1,1,3,1,,,,,,,,,,,,,,,,,,,,,,,,,,,,,,,,,,,,,,,,,
685903,001,2022-11-21_24h56.44.849,Info_measure_main_exp,2022.2.2,Win32,58.55829478,,,,,,,,,,,,,,,,,,masks/mask_002.jpg,,,,,,,,,,,,,,,,,,,,,,,,,,,,,,,,,,,,,,,,,,,,,,,,0,2,2,1,1,,,,,,,,,,,,,,,,,,,,,,,,,,,,,,,,,,,,,,,,,
685903,001,2022-11-21_24h56.44.849,Info_measure_main_exp,2022.2.2,Win32,58.55829478,,,,,,,,,,,,,,,,,,masks/mask_005.jpg,,,,,,,,,,,,,,,,,,,,,,,,,,,,,,,,,,,,,,,,,,,,,,,,0,3,3,4,1,,,,,,,,,,,,,,,,,,,,,,,,,,,,,,,,,,,,,,,,,
685903,001,2022-11-21_24h56.44.849,Info_measure_main_exp,2022.2.2,Win32,58.55829478,,,,,,,,,,,,,,,,,,masks/mask_001.jpg,,,,,,,,,,,,,,,,,,,,,,,,,,,,,,,,,,,,,,,,,,,,,,,,0,4,4,0,1,,,,,,,,,,,,,,,,,,,,,,,,,,,,,,,,,,,,,,,,,
685903,001,2022-11-21_24h56.44.849,Info_measure_main_exp,2022.2.2,Win32,58.55829478,,,,,,,,,,,,,,,,,,,,,,,,,,,,,,3,0.9332,1,,,,,,,,,,,,0,131,5,5,2190,2214,absent_patch/patch0002190.jpg,absent_patch/patch0002214.jpg,,,,,,,,,,,,,,,,,,,,-0.029947917,-0.048177083,1,0,0,response5disk,22,0.010416667,0.002604167,1,0,0,center_square,0,21,21,35,1,,,,,,,,,,,,,,,,,,,,,,,
685903,001,2022-11-21_24h56.44.849,Info_measure_main_exp,2022.2.2,Win32,58.55829478,,,,,,,,,,,,,,,,,,masks/mask_002.jpg,,,,,,,,,,,,,,,,,,,,,,,,,,,,,,,,,,,,,,,,,,,0,0,0,1,1,,,,,,,,,,,,,,,,,,,,,,,,,,,,,,,,,,,,,,,,,,,,,,
685903,001,2022-11-21_24h56.44.849,Info_measure_main_exp,2022.2.2,Win32,58.55829478,,,,,,,,,,,,,,,,,,masks/mask_003.jpg,,,,,,,,,,,,,,,,,,,,,,,,,,,,,,,,,,,,,,,,,,,0,1,1,2,1,,,,,,,,,,,,,,,,,,,,,,,,,,,,,,,,,,,,,,,,,,,,,,
685903,001,2022-11-21_24h56.44.849,Info_measure_main_exp,2022.2.2,Win32,58.55829478,,,,,,,,,,,,,,,,,,masks/mask_004.jpg,,,,,,,,,,,,,,,,,,,,,,,,,,,,,,,,,,,,,,,,,,,0,2,2,3,1,,,,,,,,,,,,,,,,,,,,,,,,,,,,,,,,,,,,,,,,,,,,,,
685903,001,2022-11-21_24h56.44.849,Info_measure_main_exp,2022.2.2,Win32,58.55829478,,,,,,,,,,,,,,,,,,masks/mask_001.jpg,,,,,,,,,,,,,,,,,,,,,,,,,,,,,,,,,,,,,,,,,,,0,3,3,0,1,,,,,,,,,,,,,,,,,,,,,,,,,,,,,,,,,,,,,,,,,,,,,,
685903,001,2022-11-21_24h56.44.849,Info_measure_main_exp,2022.2.2,Win32,58.55829478,,,,,,,,,,,,,,,,,,masks/mask_005.jpg,,,,,,,,,,,,,,,,,,,,,,,,,,,,,,,,,,,,,,,,,,,0,4,4,4,1,,,,,,,,,,,,,,,,,,,,,,,,,,,,,,,,,,,,,,,,,,,,,,
685903,001,2022-11-21_24h56.44.849,Info_measure_main_exp,2022.2.2,Win32,58.55829478,,,,,,,,,,,,,,,,,,masks/mask_003.jpg,,,,,,,,,,,,,,,,,,,,,,,,,,,,,,,,,,,,,,,,,,,,,,,,0,0,0,2,1,,,,,,,,,,,,,,,,,,,,,,,,,,,,,,,,,,,,,,,,,
685903,001,2022-11-21_24h56.44.849,Info_measure_main_exp,2022.2.2,Win32,58.55829478,,,,,,,,,,,,,,,,,,masks/mask_004.jpg,,,,,,,,,,,,,,,,,,,,,,,,,,,,,,,,,,,,,,,,,,,,,,,,0,1,1,3,1,,,,,,,,,,,,,,,,,,,,,,,,,,,,,,,,,,,,,,,,,
685903,001,2022-11-21_24h56.44.849,Info_measure_main_exp,2022.2.2,Win32,58.55829478,,,,,,,,,,,,,,,,,,masks/mask_001.jpg,,,,,,,,,,,,,,,,,,,,,,,,,,,,,,,,,,,,,,,,,,,,,,,,0,2,2,0,1,,,,,,,,,,,,,,,,,,,,,,,,,,,,,,,,,,,,,,,,,
685903,001,2022-11-21_24h56.44.849,Info_measure_main_exp,2022.2.2,Win32,58.55829478,,,,,,,,,,,,,,,,,,masks/mask_002.jpg,,,,,,,,,,,,,,,,,,,,,,,,,,,,,,,,,,,,,,,,,,,,,,,,0,3,3,1,1,,,,,,,,,,,,,,,,,,,,,,,,,,,,,,,,,,,,,,,,,
685903,001,2022-11-21_24h56.44.849,Info_measure_main_exp,2022.2.2,Win32,58.55829478,,,,,,,,,,,,,,,,,,masks/mask_005.jpg,,,,,,,,,,,,,,,,,,,,,,,,,,,,,,,,,,,,,,,,,,,,,,,,0,4,4,4,1,,,,,,,,,,,,,,,,,,,,,,,,,,,,,,,,,,,,,,,,,
685903,001,2022-11-21_24h56.44.849,Info_measure_main_exp,2022.2.2,Win32,58.55829478,,,,,,,,,,,,,,,,,,,,,,,,,,,,,,7,0.9515,1,,,,,,,,,,,,0,131,5,5,1986,1950,absent_patch/patch0001986.jpg,absent_patch/patch0001950.jpg,,,,,,,,,,,,,,,,,,,,0.057291667,0.104166667,1,0,0,response1disk,23,-0.002604167,-0.001302083,1,0,0,center_square,0,22,22,15,1,,,,,,,,,,,,,,,,,,,,,,,
685903,001,2022-11-21_24h56.44.849,Info_measure_main_exp,2022.2.2,Win32,58.55829478,,,,,,,,,,,,,,,,,,masks/mask_002.jpg,,,,,,,,,,,,,,,,,,,,,,,,,,,,,,,,,,,,,,,,,,,0,0,0,1,1,,,,,,,,,,,,,,,,,,,,,,,,,,,,,,,,,,,,,,,,,,,,,,
685903,001,2022-11-21_24h56.44.849,Info_measure_main_exp,2022.2.2,Win32,58.55829478,,,,,,,,,,,,,,,,,,masks/mask_003.jpg,,,,,,,,,,,,,,,,,,,,,,,,,,,,,,,,,,,,,,,,,,,0,1,1,2,1,,,,,,,,,,,,,,,,,,,,,,,,,,,,,,,,,,,,,,,,,,,,,,
685903,001,2022-11-21_24h56.44.849,Info_measure_main_exp,2022.2.2,Win32,58.55829478,,,,,,,,,,,,,,,,,,masks/mask_005.jpg,,,,,,,,,,,,,,,,,,,,,,,,,,,,,,,,,,,,,,,,,,,0,2,2,4,1,,,,,,,,,,,,,,,,,,,,,,,,,,,,,,,,,,,,,,,,,,,,,,
685903,001,2022-11-21_24h56.44.849,Info_measure_main_exp,2022.2.2,Win32,58.55829478,,,,,,,,,,,,,,,,,,masks/mask_004.jpg,,,,,,,,,,,,,,,,,,,,,,,,,,,,,,,,,,,,,,,,,,,0,3,3,3,1,,,,,,,,,,,,,,,,,,,,,,,,,,,,,,,,,,,,,,,,,,,,,,
685903,001,2022-11-21_24h56.44.849,Info_measure_main_exp,2022.2.2,Win32,58.55829478,,,,,,,,,,,,,,,,,,masks/mask_001.jpg,,,,,,,,,,,,,,,,,,,,,,,,,,,,,,,,,,,,,,,,,,,0,4,4,0,1,,,,,,,,,,,,,,,,,,,,,,,,,,,,,,,,,,,,,,,,,,,,,,
685903,001,2022-11-21_24h56.44.849,Info_measure_main_exp,2022.2.2,Win32,58.55829478,,,,,,,,,,,,,,,,,,masks/mask_003.jpg,,,,,,,,,,,,,,,,,,,,,,,,,,,,,,,,,,,,,,,,,,,,,,,,0,0,0,2,1,,,,,,,,,,,,,,,,,,,,,,,,,,,,,,,,,,,,,,,,,
685903,001,2022-11-21_24h56.44.849,Info_measure_main_exp,2022.2.2,Win32,58.55829478,,,,,,,,,,,,,,,,,,masks/mask_004.jpg,,,,,,,,,,,,,,,,,,,,,,,,,,,,,,,,,,,,,,,,,,,,,,,,0,1,1,3,1,,,,,,,,,,,,,,,,,,,,,,,,,,,,,,,,,,,,,,,,,
685903,001,2022-11-21_24h56.44.849,Info_measure_main_exp,2022.2.2,Win32,58.55829478,,,,,,,,,,,,,,,,,,masks/mask_001.jpg,,,,,,,,,,,,,,,,,,,,,,,,,,,,,,,,,,,,,,,,,,,,,,,,0,2,2,0,1,,,,,,,,,,,,,,,,,,,,,,,,,,,,,,,,,,,,,,,,,
685903,001,2022-11-21_24h56.44.849,Info_measure_main_exp,2022.2.2,Win32,58.55829478,,,,,,,,,,,,,,,,,,masks/mask_002.jpg,,,,,,,,,,,,,,,,,,,,,,,,,,,,,,,,,,,,,,,,,,,,,,,,0,3,3,1,1,,,,,,,,,,,,,,,,,,,,,,,,,,,,,,,,,,,,,,,,,
685903,001,2022-11-21_24h56.44.849,Info_measure_main_exp,2022.2.2,Win32,58.55829478,,,,,,,,,,,,,,,,,,masks/mask_005.jpg,,,,,,,,,,,,,,,,,,,,,,,,,,,,,,,,,,,,,,,,,,,,,,,,0,4,4,4,1,,,,,,,,,,,,,,,,,,,,,,,,,,,,,,,,,,,,,,,,,
685903,001,2022-11-21_24h56.44.849,Info_measure_main_exp,2022.2.2,Win32,58.55829478,,,,,,,,,,,,,,,,,,,,,,,,,,,,,,3,1.5361,1,,,,,,,,,,,,1,131,5,5,1,2274,present_patch/cong_131_5_a.jpg,absent_patch/patch0002274.jpg,,,,,,,,,,,,,,,,,,,,-0.0390625,-0.123697917,1,0,0,response5disk,24,0.009114583,0.006510417,1,0,0,center_square,0,23,23,105,1,,,,,,,,,,,,,,,,,,,,,,,
685903,001,2022-11-21_24h56.44.849,Info_measure_main_exp,2022.2.2,Win32,58.55829478,,,,,,,,,,,,,,,,,,masks/mask_002.jpg,,,,,,,,,,,,,,,,,,,,,,,,,,,,,,,,,,,,,,,,,,,0,0,0,1,1,,,,,,,,,,,,,,,,,,,,,,,,,,,,,,,,,,,,,,,,,,,,,,
685903,001,2022-11-21_24h56.44.849,Info_measure_main_exp,2022.2.2,Win32,58.55829478,,,,,,,,,,,,,,,,,,masks/mask_003.jpg,,,,,,,,,,,,,,,,,,,,,,,,,,,,,,,,,,,,,,,,,,,0,1,1,2,1,,,,,,,,,,,,,,,,,,,,,,,,,,,,,,,,,,,,,,,,,,,,,,
685903,001,2022-11-21_24h56.44.849,Info_measure_main_exp,2022.2.2,Win32,58.55829478,,,,,,,,,,,,,,,,,,masks/mask_005.jpg,,,,,,,,,,,,,,,,,,,,,,,,,,,,,,,,,,,,,,,,,,,0,2,2,4,1,,,,,,,,,,,,,,,,,,,,,,,,,,,,,,,,,,,,,,,,,,,,,,
685903,001,2022-11-21_24h56.44.849,Info_measure_main_exp,2022.2.2,Win32,58.55829478,,,,,,,,,,,,,,,,,,masks/mask_004.jpg,,,,,,,,,,,,,,,,,,,,,,,,,,,,,,,,,,,,,,,,,,,0,3,3,3,1,,,,,,,,,,,,,,,,,,,,,,,,,,,,,,,,,,,,,,,,,,,,,,
685903,001,2022-11-21_24h56.44.849,Info_measure_main_exp,2022.2.2,Win32,58.55829478,,,,,,,,,,,,,,,,,,masks/mask_001.jpg,,,,,,,,,,,,,,,,,,,,,,,,,,,,,,,,,,,,,,,,,,,0,4,4,0,1,,,,,,,,,,,,,,,,,,,,,,,,,,,,,,,,,,,,,,,,,,,,,,
685903,001,2022-11-21_24h56.44.849,Info_measure_main_exp,2022.2.2,Win32,58.55829478,,,,,,,,,,,,,,,,,,masks/mask_005.jpg,,,,,,,,,,,,,,,,,,,,,,,,,,,,,,,,,,,,,,,,,,,,,,,,0,0,0,4,1,,,,,,,,,,,,,,,,,,,,,,,,,,,,,,,,,,,,,,,,,
685903,001,2022-11-21_24h56.44.849,Info_measure_main_exp,2022.2.2,Win32,58.55829478,,,,,,,,,,,,,,,,,,masks/mask_003.jpg,,,,,,,,,,,,,,,,,,,,,,,,,,,,,,,,,,,,,,,,,,,,,,,,0,1,1,2,1,,,,,,,,,,,,,,,,,,,,,,,,,,,,,,,,,,,,,,,,,
685903,001,2022-11-21_24h56.44.849,Info_measure_main_exp,2022.2.2,Win32,58.55829478,,,,,,,,,,,,,,,,,,masks/mask_002.jpg,,,,,,,,,,,,,,,,,,,,,,,,,,,,,,,,,,,,,,,,,,,,,,,,0,2,2,1,1,,,,,,,,,,,,,,,,,,,,,,,,,,,,,,,,,,,,,,,,,
685903,001,2022-11-21_24h56.44.849,Info_measure_main_exp,2022.2.2,Win32,58.55829478,,,,,,,,,,,,,,,,,,masks/mask_004.jpg,,,,,,,,,,,,,,,,,,,,,,,,,,,,,,,,,,,,,,,,,,,,,,,,0,3,3,3,1,,,,,,,,,,,,,,,,,,,,,,,,,,,,,,,,,,,,,,,,,
685903,001,2022-11-21_24h56.44.849,Info_measure_main_exp,2022.2.2,Win32,58.55829478,,,,,,,,,,,,,,,,,,masks/mask_001.jpg,,,,,,,,,,,,,,,,,,,,,,,,,,,,,,,,,,,,,,,,,,,,,,,,0,4,4,0,1,,,,,,,,,,,,,,,,,,,,,,,,,,,,,,,,,,,,,,,,,
685903,001,2022-11-21_24h56.44.849,Info_measure_main_exp,2022.2.2,Win32,58.55829478,,,,,,,,,,,,,,,,,,,,,,,,,,,,,,4,1.2667,1,,,,,,,,,,,,0,131,5,5,2214,2142,absent_patch/patch0002214.jpg,absent_patch/patch0002142.jpg,,,,,,,,,,,,,,,,,,,,0.040364583,-0.102864583,1,0,0,response3disk,25,0.0078125,-0.002604167,1,0,0,center_square,0,24,24,102,1,,,,,,,,,,,,,,,,,,,,,,,
685903,001,2022-11-21_24h56.44.849,Info_measure_main_exp,2022.2.2,Win32,58.55829478,,,,,,,,,,,,,,,,,,masks/mask_001.jpg,,,,,,,,,,,,,,,,,,,,,,,,,,,,,,,,,,,,,,,,,,,0,0,0,0,1,,,,,,,,,,,,,,,,,,,,,,,,,,,,,,,,,,,,,,,,,,,,,,
685903,001,2022-11-21_24h56.44.849,Info_measure_main_exp,2022.2.2,Win32,58.55829478,,,,,,,,,,,,,,,,,,masks/mask_004.jpg,,,,,,,,,,,,,,,,,,,,,,,,,,,,,,,,,,,,,,,,,,,0,1,1,3,1,,,,,,,,,,,,,,,,,,,,,,,,,,,,,,,,,,,,,,,,,,,,,,
685903,001,2022-11-21_24h56.44.849,Info_measure_main_exp,2022.2.2,Win32,58.55829478,,,,,,,,,,,,,,,,,,masks/mask_005.jpg,,,,,,,,,,,,,,,,,,,,,,,,,,,,,,,,,,,,,,,,,,,0,2,2,4,1,,,,,,,,,,,,,,,,,,,,,,,,,,,,,,,,,,,,,,,,,,,,,,
685903,001,2022-11-21_24h56.44.849,Info_measure_main_exp,2022.2.2,Win32,58.55829478,,,,,,,,,,,,,,,,,,masks/mask_003.jpg,,,,,,,,,,,,,,,,,,,,,,,,,,,,,,,,,,,,,,,,,,,0,3,3,2,1,,,,,,,,,,,,,,,,,,,,,,,,,,,,,,,,,,,,,,,,,,,,,,
685903,001,2022-11-21_24h56.44.849,Info_measure_main_exp,2022.2.2,Win32,58.55829478,,,,,,,,,,,,,,,,,,masks/mask_002.jpg,,,,,,,,,,,,,,,,,,,,,,,,,,,,,,,,,,,,,,,,,,,0,4,4,1,1,,,,,,,,,,,,,,,,,,,,,,,,,,,,,,,,,,,,,,,,,,,,,,
685903,001,2022-11-21_24h56.44.849,Info_measure_main_exp,2022.2.2,Win32,58.55829478,,,,,,,,,,,,,,,,,,masks/mask_004.jpg,,,,,,,,,,,,,,,,,,,,,,,,,,,,,,,,,,,,,,,,,,,,,,,,0,0,0,3,1,,,,,,,,,,,,,,,,,,,,,,,,,,,,,,,,,,,,,,,,,
685903,001,2022-11-21_24h56.44.849,Info_measure_main_exp,2022.2.2,Win32,58.55829478,,,,,,,,,,,,,,,,,,masks/mask_001.jpg,,,,,,,,,,,,,,,,,,,,,,,,,,,,,,,,,,,,,,,,,,,,,,,,0,1,1,0,1,,,,,,,,,,,,,,,,,,,,,,,,,,,,,,,,,,,,,,,,,
685903,001,2022-11-21_24h56.44.849,Info_measure_main_exp,2022.2.2,Win32,58.55829478,,,,,,,,,,,,,,,,,,masks/mask_003.jpg,,,,,,,,,,,,,,,,,,,,,,,,,,,,,,,,,,,,,,,,,,,,,,,,0,2,2,2,1,,,,,,,,,,,,,,,,,,,,,,,,,,,,,,,,,,,,,,,,,
685903,001,2022-11-21_24h56.44.849,Info_measure_main_exp,2022.2.2,Win32,58.55829478,,,,,,,,,,,,,,,,,,masks/mask_002.jpg,,,,,,,,,,,,,,,,,,,,,,,,,,,,,,,,,,,,,,,,,,,,,,,,0,3,3,1,1,,,,,,,,,,,,,,,,,,,,,,,,,,,,,,,,,,,,,,,,,
685903,001,2022-11-21_24h56.44.849,Info_measure_main_exp,2022.2.2,Win32,58.55829478,,,,,,,,,,,,,,,,,,masks/mask_005.jpg,,,,,,,,,,,,,,,,,,,,,,,,,,,,,,,,,,,,,,,,,,,,,,,,0,4,4,4,1,,,,,,,,,,,,,,,,,,,,,,,,,,,,,,,,,,,,,,,,,
685903,001,2022-11-21_24h56.44.849,Info_measure_main_exp,2022.2.2,Win32,58.55829478,,,,,,,,,,,,,,,,,,,,,,,,,,,,,,6,1.1996,1,,,,,,,,,,,,1,131,5,5,2190,1,absent_patch/patch0002190.jpg,present_patch/cong_131_5_a.jpg,,,,,,,,,,,,,,,,,,,,0.08203125,0.02734375,1,0,0,response1disk,26,-0.009114583,0,1,0,0,center_square,0,25,25,64,1,,,,,,,,,,,,,,,,,,,,,,,
685903,001,2022-11-21_24h56.44.849,Info_measure_main_exp,2022.2.2,Win32,58.55829478,,,,,,,,,,,,,,,,,,masks/mask_005.jpg,,,,,,,,,,,,,,,,,,,,,,,,,,,,,,,,,,,,,,,,,,,0,0,0,4,1,,,,,,,,,,,,,,,,,,,,,,,,,,,,,,,,,,,,,,,,,,,,,,
685903,001,2022-11-21_24h56.44.849,Info_measure_main_exp,2022.2.2,Win32,58.55829478,,,,,,,,,,,,,,,,,,masks/mask_004.jpg,,,,,,,,,,,,,,,,,,,,,,,,,,,,,,,,,,,,,,,,,,,0,1,1,3,1,,,,,,,,,,,,,,,,,,,,,,,,,,,,,,,,,,,,,,,,,,,,,,
685903,001,2022-11-21_24h56.44.849,Info_measure_main_exp,2022.2.2,Win32,58.55829478,,,,,,,,,,,,,,,,,,masks/mask_003.jpg,,,,,,,,,,,,,,,,,,,,,,,,,,,,,,,,,,,,,,,,,,,0,2,2,2,1,,,,,,,,,,,,,,,,,,,,,,,,,,,,,,,,,,,,,,,,,,,,,,
685903,001,2022-11-21_24h56.44.849,Info_measure_main_exp,2022.2.2,Win32,58.55829478,,,,,,,,,,,,,,,,,,masks/mask_001.jpg,,,,,,,,,,,,,,,,,,,,,,,,,,,,,,,,,,,,,,,,,,,0,3,3,0,1,,,,,,,,,,,,,,,,,,,,,,,,,,,,,,,,,,,,,,,,,,,,,,
685903,001,2022-11-21_24h56.44.849,Info_measure_main_exp,2022.2.2,Win32,58.55829478,,,,,,,,,,,,,,,,,,masks/mask_002.jpg,,,,,,,,,,,,,,,,,,,,,,,,,,,,,,,,,,,,,,,,,,,0,4,4,1,1,,,,,,,,,,,,,,,,,,,,,,,,,,,,,,,,,,,,,,,,,,,,,,
685903,001,2022-11-21_24h56.44.849,Info_measure_main_exp,2022.2.2,Win32,58.55829478,,,,,,,,,,,,,,,,,,masks/mask_004.jpg,,,,,,,,,,,,,,,,,,,,,,,,,,,,,,,,,,,,,,,,,,,,,,,,0,0,0,3,1,,,,,,,,,,,,,,,,,,,,,,,,,,,,,,,,,,,,,,,,,
685903,001,2022-11-21_24h56.44.849,Info_measure_main_exp,2022.2.2,Win32,58.55829478,,,,,,,,,,,,,,,,,,masks/mask_005.jpg,,,,,,,,,,,,,,,,,,,,,,,,,,,,,,,,,,,,,,,,,,,,,,,,0,1,1,4,1,,,,,,,,,,,,,,,,,,,,,,,,,,,,,,,,,,,,,,,,,
685903,001,2022-11-21_24h56.44.849,Info_measure_main_exp,2022.2.2,Win32,58.55829478,,,,,,,,,,,,,,,,,,masks/mask_002.jpg,,,,,,,,,,,,,,,,,,,,,,,,,,,,,,,,,,,,,,,,,,,,,,,,0,2,2,1,1,,,,,,,,,,,,,,,,,,,,,,,,,,,,,,,,,,,,,,,,,
685903,001,2022-11-21_24h56.44.849,Info_measure_main_exp,2022.2.2,Win32,58.55829478,,,,,,,,,,,,,,,,,,masks/mask_001.jpg,,,,,,,,,,,,,,,,,,,,,,,,,,,,,,,,,,,,,,,,,,,,,,,,0,3,3,0,1,,,,,,,,,,,,,,,,,,,,,,,,,,,,,,,,,,,,,,,,,
685903,001,2022-11-21_24h56.44.849,Info_measure_main_exp,2022.2.2,Win32,58.55829478,,,,,,,,,,,,,,,,,,masks/mask_003.jpg,,,,,,,,,,,,,,,,,,,,,,,,,,,,,,,,,,,,,,,,,,,,,,,,0,4,4,2,1,,,,,,,,,,,,,,,,,,,,,,,,,,,,,,,,,,,,,,,,,
685903,001,2022-11-21_24h56.44.849,Info_measure_main_exp,2022.2.2,Win32,58.55829478,,,,,,,,,,,,,,,,,,,,,,,,,,,,,,7,0.9501,1,,,,,,,,,,,,0,131,5,5,2250,2214,absent_patch/patch0002250.jpg,absent_patch/patch0002214.jpg,,,,,,,,,,,,,,,,,,,,0.05859375,0.09765625,1,0,0,response1disk,27,0.001302083,0.00390625,1,0,0,center_square,0,26,26,97,1,,,,,,,,,,,,,,,,,,,,,,,
685903,001,2022-11-21_24h56.44.849,Info_measure_main_exp,2022.2.2,Win32,58.55829478,,,,,,,,,,,,,,,,,,masks/mask_003.jpg,,,,,,,,,,,,,,,,,,,,,,,,,,,,,,,,,,,,,,,,,,,0,0,0,2,1,,,,,,,,,,,,,,,,,,,,,,,,,,,,,,,,,,,,,,,,,,,,,,
685903,001,2022-11-21_24h56.44.849,Info_measure_main_exp,2022.2.2,Win32,58.55829478,,,,,,,,,,,,,,,,,,masks/mask_002.jpg,,,,,,,,,,,,,,,,,,,,,,,,,,,,,,,,,,,,,,,,,,,0,1,1,1,1,,,,,,,,,,,,,,,,,,,,,,,,,,,,,,,,,,,,,,,,,,,,,,
685903,001,2022-11-21_24h56.44.849,Info_measure_main_exp,2022.2.2,Win32,58.55829478,,,,,,,,,,,,,,,,,,masks/mask_004.jpg,,,,,,,,,,,,,,,,,,,,,,,,,,,,,,,,,,,,,,,,,,,0,2,2,3,1,,,,,,,,,,,,,,,,,,,,,,,,,,,,,,,,,,,,,,,,,,,,,,
685903,001,2022-11-21_24h56.44.849,Info_measure_main_exp,2022.2.2,Win32,58.55829478,,,,,,,,,,,,,,,,,,masks/mask_001.jpg,,,,,,,,,,,,,,,,,,,,,,,,,,,,,,,,,,,,,,,,,,,0,3,3,0,1,,,,,,,,,,,,,,,,,,,,,,,,,,,,,,,,,,,,,,,,,,,,,,
685903,001,2022-11-21_24h56.44.849,Info_measure_main_exp,2022.2.2,Win32,58.55829478,,,,,,,,,,,,,,,,,,masks/mask_005.jpg,,,,,,,,,,,,,,,,,,,,,,,,,,,,,,,,,,,,,,,,,,,0,4,4,4,1,,,,,,,,,,,,,,,,,,,,,,,,,,,,,,,,,,,,,,,,,,,,,,
685903,001,2022-11-21_24h56.44.849,Info_measure_main_exp,2022.2.2,Win32,58.55829478,,,,,,,,,,,,,,,,,,masks/mask_001.jpg,,,,,,,,,,,,,,,,,,,,,,,,,,,,,,,,,,,,,,,,,,,,,,,,0,0,0,0,1,,,,,,,,,,,,,,,,,,,,,,,,,,,,,,,,,,,,,,,,,
685903,001,2022-11-21_24h56.44.849,Info_measure_main_exp,2022.2.2,Win32,58.55829478,,,,,,,,,,,,,,,,,,masks/mask_005.jpg,,,,,,,,,,,,,,,,,,,,,,,,,,,,,,,,,,,,,,,,,,,,,,,,0,1,1,4,1,,,,,,,,,,,,,,,,,,,,,,,,,,,,,,,,,,,,,,,,,
685903,001,2022-11-21_24h56.44.849,Info_measure_main_exp,2022.2.2,Win32,58.55829478,,,,,,,,,,,,,,,,,,masks/mask_003.jpg,,,,,,,,,,,,,,,,,,,,,,,,,,,,,,,,,,,,,,,,,,,,,,,,0,2,2,2,1,,,,,,,,,,,,,,,,,,,,,,,,,,,,,,,,,,,,,,,,,
685903,001,2022-11-21_24h56.44.849,Info_measure_main_exp,2022.2.2,Win32,58.55829478,,,,,,,,,,,,,,,,,,masks/mask_004.jpg,,,,,,,,,,,,,,,,,,,,,,,,,,,,,,,,,,,,,,,,,,,,,,,,0,3,3,3,1,,,,,,,,,,,,,,,,,,,,,,,,,,,,,,,,,,,,,,,,,
685903,001,2022-11-21_24h56.44.849,Info_measure_main_exp,2022.2.2,Win32,58.55829478,,,,,,,,,,,,,,,,,,masks/mask_002.jpg,,,,,,,,,,,,,,,,,,,,,,,,,,,,,,,,,,,,,,,,,,,,,,,,0,4,4,1,1,,,,,,,,,,,,,,,,,,,,,,,,,,,,,,,,,,,,,,,,,
685903,001,2022-11-21_24h56.44.849,Info_measure_main_exp,2022.2.2,Win32,58.55829478,,,,,,,,,,,,,,,,,,,,,,,,,,,,,,4,1.1492,1,,,,,,,,,,,,0,131,5,5,2298,2274,absent_patch/patch0002298.jpg,absent_patch/patch0002274.jpg,,,,,,,,,,,,,,,,,,,,0.013020833,-0.11328125,1,0,0,response3disk,28,0.002604167,0.001302083,1,0,0,center_square,0,27,27,1,1,,,,,,,,,,,,,,,,,,,,,,,
685903,001,2022-11-21_24h56.44.849,Info_measure_main_exp,2022.2.2,Win32,58.55829478,,,,,,,,,,,,,,,,,,masks/mask_005.jpg,,,,,,,,,,,,,,,,,,,,,,,,,,,,,,,,,,,,,,,,,,,0,0,0,4,1,,,,,,,,,,,,,,,,,,,,,,,,,,,,,,,,,,,,,,,,,,,,,,
685903,001,2022-11-21_24h56.44.849,Info_measure_main_exp,2022.2.2,Win32,58.55829478,,,,,,,,,,,,,,,,,,masks/mask_003.jpg,,,,,,,,,,,,,,,,,,,,,,,,,,,,,,,,,,,,,,,,,,,0,1,1,2,1,,,,,,,,,,,,,,,,,,,,,,,,,,,,,,,,,,,,,,,,,,,,,,
685903,001,2022-11-21_24h56.44.849,Info_measure_main_exp,2022.2.2,Win32,58.55829478,,,,,,,,,,,,,,,,,,masks/mask_002.jpg,,,,,,,,,,,,,,,,,,,,,,,,,,,,,,,,,,,,,,,,,,,0,2,2,1,1,,,,,,,,,,,,,,,,,,,,,,,,,,,,,,,,,,,,,,,,,,,,,,
685903,001,2022-11-21_24h56.44.849,Info_measure_main_exp,2022.2.2,Win32,58.55829478,,,,,,,,,,,,,,,,,,masks/mask_004.jpg,,,,,,,,,,,,,,,,,,,,,,,,,,,,,,,,,,,,,,,,,,,0,3,3,3,1,,,,,,,,,,,,,,,,,,,,,,,,,,,,,,,,,,,,,,,,,,,,,,
685903,001,2022-11-21_24h56.44.849,Info_measure_main_exp,2022.2.2,Win32,58.55829478,,,,,,,,,,,,,,,,,,masks/mask_001.jpg,,,,,,,,,,,,,,,,,,,,,,,,,,,,,,,,,,,,,,,,,,,0,4,4,0,1,,,,,,,,,,,,,,,,,,,,,,,,,,,,,,,,,,,,,,,,,,,,,,
685903,001,2022-11-21_24h56.44.849,Info_measure_main_exp,2022.2.2,Win32,58.55829478,,,,,,,,,,,,,,,,,,masks/mask_004.jpg,,,,,,,,,,,,,,,,,,,,,,,,,,,,,,,,,,,,,,,,,,,,,,,,0,0,0,3,1,,,,,,,,,,,,,,,,,,,,,,,,,,,,,,,,,,,,,,,,,
685903,001,2022-11-21_24h56.44.849,Info_measure_main_exp,2022.2.2,Win32,58.55829478,,,,,,,,,,,,,,,,,,masks/mask_005.jpg,,,,,,,,,,,,,,,,,,,,,,,,,,,,,,,,,,,,,,,,,,,,,,,,0,1,1,4,1,,,,,,,,,,,,,,,,,,,,,,,,,,,,,,,,,,,,,,,,,
685903,001,2022-11-21_24h56.44.849,Info_measure_main_exp,2022.2.2,Win32,58.55829478,,,,,,,,,,,,,,,,,,masks/mask_001.jpg,,,,,,,,,,,,,,,,,,,,,,,,,,,,,,,,,,,,,,,,,,,,,,,,0,2,2,0,1,,,,,,,,,,,,,,,,,,,,,,,,,,,,,,,,,,,,,,,,,
685903,001,2022-11-21_24h56.44.849,Info_measure_main_exp,2022.2.2,Win32,58.55829478,,,,,,,,,,,,,,,,,,masks/mask_003.jpg,,,,,,,,,,,,,,,,,,,,,,,,,,,,,,,,,,,,,,,,,,,,,,,,0,3,3,2,1,,,,,,,,,,,,,,,,,,,,,,,,,,,,,,,,,,,,,,,,,
685903,001,2022-11-21_24h56.44.849,Info_measure_main_exp,2022.2.2,Win32,58.55829478,,,,,,,,,,,,,,,,,,masks/mask_002.jpg,,,,,,,,,,,,,,,,,,,,,,,,,,,,,,,,,,,,,,,,,,,,,,,,0,4,4,1,1,,,,,,,,,,,,,,,,,,,,,,,,,,,,,,,,,,,,,,,,,
685903,001,2022-11-21_24h56.44.849,Info_measure_main_exp,2022.2.2,Win32,58.55829478,,,,,,,,,,,,,,,,,,,,,,,,,,,,,,7,0.7671,1,,,,,,,,,,,,0,131,5,5,2082,1986,absent_patch/patch0002082.jpg,absent_patch/patch0001986.jpg,,,,,,,,,,,,,,,,,,,,0.037760417,0.087239583,1,0,0,response1disk,29,0.00390625,0.005208333,1,0,0,center_square,0,28,28,94,1,,,,,,,,,,,,,,,,,,,,,,,
685903,001,2022-11-21_24h56.44.849,Info_measure_main_exp,2022.2.2,Win32,58.55829478,,,,,,,,,,,,,,,,,,masks/mask_004.jpg,,,,,,,,,,,,,,,,,,,,,,,,,,,,,,,,,,,,,,,,,,,0,0,0,3,1,,,,,,,,,,,,,,,,,,,,,,,,,,,,,,,,,,,,,,,,,,,,,,
685903,001,2022-11-21_24h56.44.849,Info_measure_main_exp,2022.2.2,Win32,58.55829478,,,,,,,,,,,,,,,,,,masks/mask_003.jpg,,,,,,,,,,,,,,,,,,,,,,,,,,,,,,,,,,,,,,,,,,,0,1,1,2,1,,,,,,,,,,,,,,,,,,,,,,,,,,,,,,,,,,,,,,,,,,,,,,
685903,001,2022-11-21_24h56.44.849,Info_measure_main_exp,2022.2.2,Win32,58.55829478,,,,,,,,,,,,,,,,,,masks/mask_005.jpg,,,,,,,,,,,,,,,,,,,,,,,,,,,,,,,,,,,,,,,,,,,0,2,2,4,1,,,,,,,,,,,,,,,,,,,,,,,,,,,,,,,,,,,,,,,,,,,,,,
685903,001,2022-11-21_24h56.44.849,Info_measure_main_exp,2022.2.2,Win32,58.55829478,,,,,,,,,,,,,,,,,,masks/mask_002.jpg,,,,,,,,,,,,,,,,,,,,,,,,,,,,,,,,,,,,,,,,,,,0,3,3,1,1,,,,,,,,,,,,,,,,,,,,,,,,,,,,,,,,,,,,,,,,,,,,,,
685903,001,2022-11-21_24h56.44.849,Info_measure_main_exp,2022.2.2,Win32,58.55829478,,,,,,,,,,,,,,,,,,masks/mask_001.jpg,,,,,,,,,,,,,,,,,,,,,,,,,,,,,,,,,,,,,,,,,,,0,4,4,0,1,,,,,,,,,,,,,,,,,,,,,,,,,,,,,,,,,,,,,,,,,,,,,,
685903,001,2022-11-21_24h56.44.849,Info_measure_main_exp,2022.2.2,Win32,58.55829478,,,,,,,,,,,,,,,,,,masks/mask_005.jpg,,,,,,,,,,,,,,,,,,,,,,,,,,,,,,,,,,,,,,,,,,,,,,,,0,0,0,4,1,,,,,,,,,,,,,,,,,,,,,,,,,,,,,,,,,,,,,,,,,
685903,001,2022-11-21_24h56.44.849,Info_measure_main_exp,2022.2.2,Win32,58.55829478,,,,,,,,,,,,,,,,,,masks/mask_003.jpg,,,,,,,,,,,,,,,,,,,,,,,,,,,,,,,,,,,,,,,,,,,,,,,,0,1,1,2,1,,,,,,,,,,,,,,,,,,,,,,,,,,,,,,,,,,,,,,,,,
685903,001,2022-11-21_24h56.44.849,Info_measure_main_exp,2022.2.2,Win32,58.55829478,,,,,,,,,,,,,,,,,,masks/mask_002.jpg,,,,,,,,,,,,,,,,,,,,,,,,,,,,,,,,,,,,,,,,,,,,,,,,0,2,2,1,1,,,,,,,,,,,,,,,,,,,,,,,,,,,,,,,,,,,,,,,,,
685903,001,2022-11-21_24h56.44.849,Info_measure_main_exp,2022.2.2,Win32,58.55829478,,,,,,,,,,,,,,,,,,masks/mask_004.jpg,,,,,,,,,,,,,,,,,,,,,,,,,,,,,,,,,,,,,,,,,,,,,,,,0,3,3,3,1,,,,,,,,,,,,,,,,,,,,,,,,,,,,,,,,,,,,,,,,,
685903,001,2022-11-21_24h56.44.849,Info_measure_main_exp,2022.2.2,Win32,58.55829478,,,,,,,,,,,,,,,,,,masks/mask_001.jpg,,,,,,,,,,,,,,,,,,,,,,,,,,,,,,,,,,,,,,,,,,,,,,,,0,4,4,0,1,,,,,,,,,,,,,,,,,,,,,,,,,,,,,,,,,,,,,,,,,
685903,001,2022-11-21_24h56.44.849,Info_measure_main_exp,2022.2.2,Win32,58.55829478,,,,,,,,,,,,,,,,,,,,,,,,,,,,,,3,1.1835,1,,,,,,,,,,,,0,131,5,5,1986,2154,absent_patch/patch0001986.jpg,absent_patch/patch0002154.jpg,,,,,,,,,,,,,,,,,,,,-0.061197917,-0.114583333,1,0,0,response5disk,30,-0.006510417,-0.009114583,1,0,0,center_square,0,29,29,36,1,,,,,,,,,,,,,,,,,,,,,,,
685903,001,2022-11-21_24h56.44.849,Info_measure_main_exp,2022.2.2,Win32,58.55829478,,,,,,,,,,,,,,,,,,masks/mask_001.jpg,,,,,,,,,,,,,,,,,,,,,,,,,,,,,,,,,,,,,,,,,,,0,0,0,0,1,,,,,,,,,,,,,,,,,,,,,,,,,,,,,,,,,,,,,,,,,,,,,,
685903,001,2022-11-21_24h56.44.849,Info_measure_main_exp,2022.2.2,Win32,58.55829478,,,,,,,,,,,,,,,,,,masks/mask_002.jpg,,,,,,,,,,,,,,,,,,,,,,,,,,,,,,,,,,,,,,,,,,,0,1,1,1,1,,,,,,,,,,,,,,,,,,,,,,,,,,,,,,,,,,,,,,,,,,,,,,
685903,001,2022-11-21_24h56.44.849,Info_measure_main_exp,2022.2.2,Win32,58.55829478,,,,,,,,,,,,,,,,,,masks/mask_005.jpg,,,,,,,,,,,,,,,,,,,,,,,,,,,,,,,,,,,,,,,,,,,0,2,2,4,1,,,,,,,,,,,,,,,,,,,,,,,,,,,,,,,,,,,,,,,,,,,,,,
685903,001,2022-11-21_24h56.44.849,Info_measure_main_exp,2022.2.2,Win32,58.55829478,,,,,,,,,,,,,,,,,,masks/mask_003.jpg,,,,,,,,,,,,,,,,,,,,,,,,,,,,,,,,,,,,,,,,,,,0,3,3,2,1,,,,,,,,,,,,,,,,,,,,,,,,,,,,,,,,,,,,,,,,,,,,,,
685903,001,2022-11-21_24h56.44.849,Info_measure_main_exp,2022.2.2,Win32,58.55829478,,,,,,,,,,,,,,,,,,masks/mask_004.jpg,,,,,,,,,,,,,,,,,,,,,,,,,,,,,,,,,,,,,,,,,,,0,4,4,3,1,,,,,,,,,,,,,,,,,,,,,,,,,,,,,,,,,,,,,,,,,,,,,,
685903,001,2022-11-21_24h56.44.849,Info_measure_main_exp,2022.2.2,Win32,58.55829478,,,,,,,,,,,,,,,,,,masks/mask_003.jpg,,,,,,,,,,,,,,,,,,,,,,,,,,,,,,,,,,,,,,,,,,,,,,,,0,0,0,2,1,,,,,,,,,,,,,,,,,,,,,,,,,,,,,,,,,,,,,,,,,
685903,001,2022-11-21_24h56.44.849,Info_measure_main_exp,2022.2.2,Win32,58.55829478,,,,,,,,,,,,,,,,,,masks/mask_001.jpg,,,,,,,,,,,,,,,,,,,,,,,,,,,,,,,,,,,,,,,,,,,,,,,,0,1,1,0,1,,,,,,,,,,,,,,,,,,,,,,,,,,,,,,,,,,,,,,,,,
685903,001,2022-11-21_24h56.44.849,Info_measure_main_exp,2022.2.2,Win32,58.55829478,,,,,,,,,,,,,,,,,,masks/mask_005.jpg,,,,,,,,,,,,,,,,,,,,,,,,,,,,,,,,,,,,,,,,,,,,,,,,0,2,2,4,1,,,,,,,,,,,,,,,,,,,,,,,,,,,,,,,,,,,,,,,,,
685903,001,2022-11-21_24h56.44.849,Info_measure_main_exp,2022.2.2,Win32,58.55829478,,,,,,,,,,,,,,,,,,masks/mask_004.jpg,,,,,,,,,,,,,,,,,,,,,,,,,,,,,,,,,,,,,,,,,,,,,,,,0,3,3,3,1,,,,,,,,,,,,,,,,,,,,,,,,,,,,,,,,,,,,,,,,,
685903,001,2022-11-21_24h56.44.849,Info_measure_main_exp,2022.2.2,Win32,58.55829478,,,,,,,,,,,,,,,,,,masks/mask_002.jpg,,,,,,,,,,,,,,,,,,,,,,,,,,,,,,,,,,,,,,,,,,,,,,,,0,4,4,1,1,,,,,,,,,,,,,,,,,,,,,,,,,,,,,,,,,,,,,,,,,
685903,001,2022-11-21_24h56.44.849,Info_measure_main_exp,2022.2.2,Win32,58.55829478,,,,,,,,,,,,,,,,,,,,,,,,,,,,,,3,0.6855,1,,,,,,,,,,,,1,131,5,5,1,2154,present_patch/cong_131_5_a.jpg,absent_patch/patch0002154.jpg,,,,,,,,,,,,,,,,,,,,-0.0390625,-0.07421875,1,0,0,response5disk,31,-0.0078125,-0.002604167,1,0,0,center_square,0,30,30,87,1,,,,,,,,,,,,,,,,,,,,,,,
685903,001,2022-11-21_24h56.44.849,Info_measure_main_exp,2022.2.2,Win32,58.55829478,,,,,,,,,,,,,,,,,,masks/mask_002.jpg,,,,,,,,,,,,,,,,,,,,,,,,,,,,,,,,,,,,,,,,,,,0,0,0,1,1,,,,,,,,,,,,,,,,,,,,,,,,,,,,,,,,,,,,,,,,,,,,,,
685903,001,2022-11-21_24h56.44.849,Info_measure_main_exp,2022.2.2,Win32,58.55829478,,,,,,,,,,,,,,,,,,masks/mask_001.jpg,,,,,,,,,,,,,,,,,,,,,,,,,,,,,,,,,,,,,,,,,,,0,1,1,0,1,,,,,,,,,,,,,,,,,,,,,,,,,,,,,,,,,,,,,,,,,,,,,,
685903,001,2022-11-21_24h56.44.849,Info_measure_main_exp,2022.2.2,Win32,58.55829478,,,,,,,,,,,,,,,,,,masks/mask_003.jpg,,,,,,,,,,,,,,,,,,,,,,,,,,,,,,,,,,,,,,,,,,,0,2,2,2,1,,,,,,,,,,,,,,,,,,,,,,,,,,,,,,,,,,,,,,,,,,,,,,
685903,001,2022-11-21_24h56.44.849,Info_measure_main_exp,2022.2.2,Win32,58.55829478,,,,,,,,,,,,,,,,,,masks/mask_004.jpg,,,,,,,,,,,,,,,,,,,,,,,,,,,,,,,,,,,,,,,,,,,0,3,3,3,1,,,,,,,,,,,,,,,,,,,,,,,,,,,,,,,,,,,,,,,,,,,,,,
685903,001,2022-11-21_24h56.44.849,Info_measure_main_exp,2022.2.2,Win32,58.55829478,,,,,,,,,,,,,,,,,,masks/mask_005.jpg,,,,,,,,,,,,,,,,,,,,,,,,,,,,,,,,,,,,,,,,,,,0,4,4,4,1,,,,,,,,,,,,,,,,,,,,,,,,,,,,,,,,,,,,,,,,,,,,,,
685903,001,2022-11-21_24h56.44.849,Info_measure_main_exp,2022.2.2,Win32,58.55829478,,,,,,,,,,,,,,,,,,masks/mask_005.jpg,,,,,,,,,,,,,,,,,,,,,,,,,,,,,,,,,,,,,,,,,,,,,,,,0,0,0,4,1,,,,,,,,,,,,,,,,,,,,,,,,,,,,,,,,,,,,,,,,,
685903,001,2022-11-21_24h56.44.849,Info_measure_main_exp,2022.2.2,Win32,58.55829478,,,,,,,,,,,,,,,,,,masks/mask_002.jpg,,,,,,,,,,,,,,,,,,,,,,,,,,,,,,,,,,,,,,,,,,,,,,,,0,1,1,1,1,,,,,,,,,,,,,,,,,,,,,,,,,,,,,,,,,,,,,,,,,
685903,001,2022-11-21_24h56.44.849,Info_measure_main_exp,2022.2.2,Win32,58.55829478,,,,,,,,,,,,,,,,,,masks/mask_003.jpg,,,,,,,,,,,,,,,,,,,,,,,,,,,,,,,,,,,,,,,,,,,,,,,,0,2,2,2,1,,,,,,,,,,,,,,,,,,,,,,,,,,,,,,,,,,,,,,,,,
685903,001,2022-11-21_24h56.44.849,Info_measure_main_exp,2022.2.2,Win32,58.55829478,,,,,,,,,,,,,,,,,,masks/mask_001.jpg,,,,,,,,,,,,,,,,,,,,,,,,,,,,,,,,,,,,,,,,,,,,,,,,0,3,3,0,1,,,,,,,,,,,,,,,,,,,,,,,,,,,,,,,,,,,,,,,,,
685903,001,2022-11-21_24h56.44.849,Info_measure_main_exp,2022.2.2,Win32,58.55829478,,,,,,,,,,,,,,,,,,masks/mask_004.jpg,,,,,,,,,,,,,,,,,,,,,,,,,,,,,,,,,,,,,,,,,,,,,,,,0,4,4,3,1,,,,,,,,,,,,,,,,,,,,,,,,,,,,,,,,,,,,,,,,,
685903,001,2022-11-21_24h56.44.849,Info_measure_main_exp,2022.2.2,Win32,58.55829478,,,,,,,,,,,,,,,,,,,,,,,,,,,,,,5,1.0683,1,,,,,,,,,,,,0,131,5,5,2166,2154,absent_patch/patch0002166.jpg,absent_patch/patch0002154.jpg,,,,,,,,,,,,,,,,,,,,0.104166667,-0.033854167,1,0,0,response3disk,32,0.01171875,0,1,0,0,center_square,0,31,31,79,1,,,,,,,,,,,,,,,,,,,,,,,
685903,001,2022-11-21_24h56.44.849,Info_measure_main_exp,2022.2.2,Win32,58.55829478,,,,,,,,,,,,,,,,,,masks/mask_005.jpg,,,,,,,,,,,,,,,,,,,,,,,,,,,,,,,,,,,,,,,,,,,0,0,0,4,1,,,,,,,,,,,,,,,,,,,,,,,,,,,,,,,,,,,,,,,,,,,,,,
685903,001,2022-11-21_24h56.44.849,Info_measure_main_exp,2022.2.2,Win32,58.55829478,,,,,,,,,,,,,,,,,,masks/mask_001.jpg,,,,,,,,,,,,,,,,,,,,,,,,,,,,,,,,,,,,,,,,,,,0,1,1,0,1,,,,,,,,,,,,,,,,,,,,,,,,,,,,,,,,,,,,,,,,,,,,,,
685903,001,2022-11-21_24h56.44.849,Info_measure_main_exp,2022.2.2,Win32,58.55829478,,,,,,,,,,,,,,,,,,masks/mask_004.jpg,,,,,,,,,,,,,,,,,,,,,,,,,,,,,,,,,,,,,,,,,,,0,2,2,3,1,,,,,,,,,,,,,,,,,,,,,,,,,,,,,,,,,,,,,,,,,,,,,,
685903,001,2022-11-21_24h56.44.849,Info_measure_main_exp,2022.2.2,Win32,58.55829478,,,,,,,,,,,,,,,,,,masks/mask_003.jpg,,,,,,,,,,,,,,,,,,,,,,,,,,,,,,,,,,,,,,,,,,,0,3,3,2,1,,,,,,,,,,,,,,,,,,,,,,,,,,,,,,,,,,,,,,,,,,,,,,
685903,001,2022-11-21_24h56.44.849,Info_measure_main_exp,2022.2.2,Win32,58.55829478,,,,,,,,,,,,,,,,,,masks/mask_002.jpg,,,,,,,,,,,,,,,,,,,,,,,,,,,,,,,,,,,,,,,,,,,0,4,4,1,1,,,,,,,,,,,,,,,,,,,,,,,,,,,,,,,,,,,,,,,,,,,,,,
685903,001,2022-11-21_24h56.44.849,Info_measure_main_exp,2022.2.2,Win32,58.55829478,,,,,,,,,,,,,,,,,,masks/mask_004.jpg,,,,,,,,,,,,,,,,,,,,,,,,,,,,,,,,,,,,,,,,,,,,,,,,0,0,0,3,1,,,,,,,,,,,,,,,,,,,,,,,,,,,,,,,,,,,,,,,,,
685903,001,2022-11-21_24h56.44.849,Info_measure_main_exp,2022.2.2,Win32,58.55829478,,,,,,,,,,,,,,,,,,masks/mask_005.jpg,,,,,,,,,,,,,,,,,,,,,,,,,,,,,,,,,,,,,,,,,,,,,,,,0,1,1,4,1,,,,,,,,,,,,,,,,,,,,,,,,,,,,,,,,,,,,,,,,,
685903,001,2022-11-21_24h56.44.849,Info_measure_main_exp,2022.2.2,Win32,58.55829478,,,,,,,,,,,,,,,,,,masks/mask_003.jpg,,,,,,,,,,,,,,,,,,,,,,,,,,,,,,,,,,,,,,,,,,,,,,,,0,2,2,2,1,,,,,,,,,,,,,,,,,,,,,,,,,,,,,,,,,,,,,,,,,
685903,001,2022-11-21_24h56.44.849,Info_measure_main_exp,2022.2.2,Win32,58.55829478,,,,,,,,,,,,,,,,,,masks/mask_002.jpg,,,,,,,,,,,,,,,,,,,,,,,,,,,,,,,,,,,,,,,,,,,,,,,,0,3,3,1,1,,,,,,,,,,,,,,,,,,,,,,,,,,,,,,,,,,,,,,,,,
685903,001,2022-11-21_24h56.44.849,Info_measure_main_exp,2022.2.2,Win32,58.55829478,,,,,,,,,,,,,,,,,,masks/mask_001.jpg,,,,,,,,,,,,,,,,,,,,,,,,,,,,,,,,,,,,,,,,,,,,,,,,0,4,4,0,1,,,,,,,,,,,,,,,,,,,,,,,,,,,,,,,,,,,,,,,,,
685903,001,2022-11-21_24h56.44.849,Info_measure_main_exp,2022.2.2,Win32,58.55829478,,,,,,,,,,,,,,,,,,,,,,,,,,,,,,7,1.0353,1,,,,,,,,,,,,0,131,5,5,2298,1986,absent_patch/patch0002298.jpg,absent_patch/patch0001986.jpg,,,,,,,,,,,,,,,,,,,,0.065104167,0.110677083,1,0,0,response1disk,33,0,0.00390625,1,0,0,center_square,0,32,32,32,1,,,,,,,,,,,,,,,,,,,,,,,
685903,001,2022-11-21_24h56.44.849,Info_measure_main_exp,2022.2.2,Win32,58.55829478,,,,,,,,,,,,,,,,,,masks/mask_003.jpg,,,,,,,,,,,,,,,,,,,,,,,,,,,,,,,,,,,,,,,,,,,0,0,0,2,1,,,,,,,,,,,,,,,,,,,,,,,,,,,,,,,,,,,,,,,,,,,,,,
685903,001,2022-11-21_24h56.44.849,Info_measure_main_exp,2022.2.2,Win32,58.55829478,,,,,,,,,,,,,,,,,,masks/mask_002.jpg,,,,,,,,,,,,,,,,,,,,,,,,,,,,,,,,,,,,,,,,,,,0,1,1,1,1,,,,,,,,,,,,,,,,,,,,,,,,,,,,,,,,,,,,,,,,,,,,,,
685903,001,2022-11-21_24h56.44.849,Info_measure_main_exp,2022.2.2,Win32,58.55829478,,,,,,,,,,,,,,,,,,masks/mask_005.jpg,,,,,,,,,,,,,,,,,,,,,,,,,,,,,,,,,,,,,,,,,,,0,2,2,4,1,,,,,,,,,,,,,,,,,,,,,,,,,,,,,,,,,,,,,,,,,,,,,,
685903,001,2022-11-21_24h56.44.849,Info_measure_main_exp,2022.2.2,Win32,58.55829478,,,,,,,,,,,,,,,,,,masks/mask_004.jpg,,,,,,,,,,,,,,,,,,,,,,,,,,,,,,,,,,,,,,,,,,,0,3,3,3,1,,,,,,,,,,,,,,,,,,,,,,,,,,,,,,,,,,,,,,,,,,,,,,
685903,001,2022-11-21_24h56.44.849,Info_measure_main_exp,2022.2.2,Win32,58.55829478,,,,,,,,,,,,,,,,,,masks/mask_001.jpg,,,,,,,,,,,,,,,,,,,,,,,,,,,,,,,,,,,,,,,,,,,0,4,4,0,1,,,,,,,,,,,,,,,,,,,,,,,,,,,,,,,,,,,,,,,,,,,,,,
685903,001,2022-11-21_24h56.44.849,Info_measure_main_exp,2022.2.2,Win32,58.55829478,,,,,,,,,,,,,,,,,,masks/mask_003.jpg,,,,,,,,,,,,,,,,,,,,,,,,,,,,,,,,,,,,,,,,,,,,,,,,0,0,0,2,1,,,,,,,,,,,,,,,,,,,,,,,,,,,,,,,,,,,,,,,,,
685903,001,2022-11-21_24h56.44.849,Info_measure_main_exp,2022.2.2,Win32,58.55829478,,,,,,,,,,,,,,,,,,masks/mask_001.jpg,,,,,,,,,,,,,,,,,,,,,,,,,,,,,,,,,,,,,,,,,,,,,,,,0,1,1,0,1,,,,,,,,,,,,,,,,,,,,,,,,,,,,,,,,,,,,,,,,,
685903,001,2022-11-21_24h56.44.849,Info_measure_main_exp,2022.2.2,Win32,58.55829478,,,,,,,,,,,,,,,,,,masks/mask_004.jpg,,,,,,,,,,,,,,,,,,,,,,,,,,,,,,,,,,,,,,,,,,,,,,,,0,2,2,3,1,,,,,,,,,,,,,,,,,,,,,,,,,,,,,,,,,,,,,,,,,
685903,001,2022-11-21_24h56.44.849,Info_measure_main_exp,2022.2.2,Win32,58.55829478,,,,,,,,,,,,,,,,,,masks/mask_002.jpg,,,,,,,,,,,,,,,,,,,,,,,,,,,,,,,,,,,,,,,,,,,,,,,,0,3,3,1,1,,,,,,,,,,,,,,,,,,,,,,,,,,,,,,,,,,,,,,,,,
685903,001,2022-11-21_24h56.44.849,Info_measure_main_exp,2022.2.2,Win32,58.55829478,,,,,,,,,,,,,,,,,,masks/mask_005.jpg,,,,,,,,,,,,,,,,,,,,,,,,,,,,,,,,,,,,,,,,,,,,,,,,0,4,4,4,1,,,,,,,,,,,,,,,,,,,,,,,,,,,,,,,,,,,,,,,,,
685903,001,2022-11-21_24h56.44.849,Info_measure_main_exp,2022.2.2,Win32,58.55829478,,,,,,,,,,,,,,,,,,,,,,,,,,,,,,4,1.8451,1,,,,,,,,,,,,0,131,5,5,1950,2214,absent_patch/patch0001950.jpg,absent_patch/patch0002214.jpg,,,,,,,,,,,,,,,,,,,,0.018229167,-0.052083333,1,0,0,response3disk,34,0.0078125,0.006510417,1,0,0,center_square,0,33,33,85,1,,,,,,,,,,,,,,,,,,,,,,,
685903,001,2022-11-21_24h56.44.849,Info_measure_main_exp,2022.2.2,Win32,58.55829478,,,,,,,,,,,,,,,,,,masks/mask_005.jpg,,,,,,,,,,,,,,,,,,,,,,,,,,,,,,,,,,,,,,,,,,,0,0,0,4,1,,,,,,,,,,,,,,,,,,,,,,,,,,,,,,,,,,,,,,,,,,,,,,
685903,001,2022-11-21_24h56.44.849,Info_measure_main_exp,2022.2.2,Win32,58.55829478,,,,,,,,,,,,,,,,,,masks/mask_003.jpg,,,,,,,,,,,,,,,,,,,,,,,,,,,,,,,,,,,,,,,,,,,0,1,1,2,1,,,,,,,,,,,,,,,,,,,,,,,,,,,,,,,,,,,,,,,,,,,,,,
685903,001,2022-11-21_24h56.44.849,Info_measure_main_exp,2022.2.2,Win32,58.55829478,,,,,,,,,,,,,,,,,,masks/mask_001.jpg,,,,,,,,,,,,,,,,,,,,,,,,,,,,,,,,,,,,,,,,,,,0,2,2,0,1,,,,,,,,,,,,,,,,,,,,,,,,,,,,,,,,,,,,,,,,,,,,,,
685903,001,2022-11-21_24h56.44.849,Info_measure_main_exp,2022.2.2,Win32,58.55829478,,,,,,,,,,,,,,,,,,masks/mask_004.jpg,,,,,,,,,,,,,,,,,,,,,,,,,,,,,,,,,,,,,,,,,,,0,3,3,3,1,,,,,,,,,,,,,,,,,,,,,,,,,,,,,,,,,,,,,,,,,,,,,,
685903,001,2022-11-21_24h56.44.849,Info_measure_main_exp,2022.2.2,Win32,58.55829478,,,,,,,,,,,,,,,,,,masks/mask_002.jpg,,,,,,,,,,,,,,,,,,,,,,,,,,,,,,,,,,,,,,,,,,,0,4,4,1,1,,,,,,,,,,,,,,,,,,,,,,,,,,,,,,,,,,,,,,,,,,,,,,
685903,001,2022-11-21_24h56.44.849,Info_measure_main_exp,2022.2.2,Win32,58.55829478,,,,,,,,,,,,,,,,,,masks/mask_005.jpg,,,,,,,,,,,,,,,,,,,,,,,,,,,,,,,,,,,,,,,,,,,,,,,,0,0,0,4,1,,,,,,,,,,,,,,,,,,,,,,,,,,,,,,,,,,,,,,,,,
685903,001,2022-11-21_24h56.44.849,Info_measure_main_exp,2022.2.2,Win32,58.55829478,,,,,,,,,,,,,,,,,,masks/mask_002.jpg,,,,,,,,,,,,,,,,,,,,,,,,,,,,,,,,,,,,,,,,,,,,,,,,0,1,1,1,1,,,,,,,,,,,,,,,,,,,,,,,,,,,,,,,,,,,,,,,,,
685903,001,2022-11-21_24h56.44.849,Info_measure_main_exp,2022.2.2,Win32,58.55829478,,,,,,,,,,,,,,,,,,masks/mask_001.jpg,,,,,,,,,,,,,,,,,,,,,,,,,,,,,,,,,,,,,,,,,,,,,,,,0,2,2,0,1,,,,,,,,,,,,,,,,,,,,,,,,,,,,,,,,,,,,,,,,,
685903,001,2022-11-21_24h56.44.849,Info_measure_main_exp,2022.2.2,Win32,58.55829478,,,,,,,,,,,,,,,,,,masks/mask_004.jpg,,,,,,,,,,,,,,,,,,,,,,,,,,,,,,,,,,,,,,,,,,,,,,,,0,3,3,3,1,,,,,,,,,,,,,,,,,,,,,,,,,,,,,,,,,,,,,,,,,
