participant,session,date,expName,psychopyVersion,OS,frameRate,space_press_continue.keys,space_press_continue.rt,space_press_continue_2.keys,space_press_continue_2.rt,space_press_continue_3.keys,space_press_continue_3.rt,space_press_continue_4.keys,space_press_continue_4.rt,space_press_continue_5.keys,space_press_continue_5.rt,space_press_continue_6.keys,space_press_continue_6.rt,prac_mask_loop_1.thisRepN,prac_mask_loop_1.thisTrialN,prac_mask_loop_1.thisN,prac_mask_loop_1.thisIndex,prac_mask_loop_1.ran,mask_name,prac_mask_loop_2.thisRepN,prac_mask_loop_2.thisTrialN,prac_mask_loop_2.thisN,prac_mask_loop_2.thisIndex,prac_mask_loop_2.ran,mouse_2.x,mouse_2.y,mouse_2.leftButton,mouse_2.midButton,mouse_2.rightButton,mouse_2.clicked_name,similarity,response_time,Pass,mouse_12.x,mouse_12.y,mouse_12.leftButton,mouse_12.midButton,mouse_12.rightButton,mouse_12.clicked_name,prac_loop.thisRepN,prac_loop.thisTrialN,prac_loop.thisN,prac_loop.thisIndex,prac_loop.ran,Pair_type,Image_num,Patch_1_loc,Patch_2_loc,Patch_1_info,Patch_2_info,Patch_1_name,Patch_2_name,mouse_1.x,mouse_1.y,mouse_1.leftButton,mouse_1.midButton,mouse_1.rightButton,mouse_1.time,mouse_1.clicked_name,space_press_continue_7.keys,space_press_continue_7.rt,mask_loop.thisRepN,mask_loop.thisTrialN,mask_loop.thisN,mask_loop.thisIndex,mask_loop.ran,mask_loop_2.thisRepN,mask_loop_2.thisTrialN,mask_loop_2.thisN,mask_loop_2.thisIndex,mask_loop_2.ran,mouse.x,mouse.y,mouse.leftButton,mouse.midButton,mouse.rightButton,mouse.clicked_name,trialNumber,mouse_11.x,mouse_11.y,mouse_11.leftButton,mouse_11.midButton,mouse_11.rightButton,mouse_11.clicked_name,first_pass_loop.thisRepN,first_pass_loop.thisTrialN,first_pass_loop.thisN,first_pass_loop.thisIndex,first_pass_loop.ran,mask_loop_3.thisRepN,mask_loop_3.thisTrialN,mask_loop_3.thisN,mask_loop_3.thisIndex,mask_loop_3.ran,mask_loop_4.thisRepN,mask_loop_4.thisTrialN,mask_loop_4.thisN,mask_loop_4.thisIndex,mask_loop_4.ran,mouse_3.x,mouse_3.y,mouse_3.leftButton,mouse_3.midButton,mouse_3.rightButton,mouse_3.clicked_name,double_pass_loop.thisRepN,double_pass_loop.thisTrialN,double_pass_loop.thisN,double_pass_loop.thisIndex,double_pass_loop.ran,space_exit.keys,space_exit.rt
686955,001,2022-11-21_01h47.35.819,Info_measure_main_exp,2022.2.2,Win32,59.40711697,,,,,,,,,,,,,,,,,,,,,,,,,,,,,,,,,,,,,,,,,,,,,,,,,,,,,,,,,,,,,,,,,,,,,,,,,,,,,,,,,,,,,,,,,,,,,,,,,,,,,,,,,,,,,,,
686955,001,2022-11-21_01h47.35.819,Info_measure_main_exp,2022.2.2,Win32,59.40711697,,,,,,,,,,,,,,,,,,,,,,,,,,,,,,,,,,,,,,,,,,,,,,,,,,,,,,,,,,,,,,,,,,,,,,,,,,,,,,,,,,,,,,,,,,,,,,,,,,,,,,,,,,,,,,,
686955,001,2022-11-21_01h47.35.819,Info_measure_main_exp,2022.2.2,Win32,59.40711697,space,22.8468,,,,,,,,,,,,,,,,,,,,,,,,,,,,,,,,,,,,,,,,,,,,,,,,,,,,,,,,,,,,,,,,,,,,,,,,,,,,,,,,,,,,,,,,,,,,,,,,,,,,,,,,,,,,,
686955,001,2022-11-21_01h47.35.819,Info_measure_main_exp,2022.2.2,Win32,59.40711697,,,space,39.1771,,,,,,,,,,,,,,,,,,,,,,,,,,,,,,,,,,,,,,,,,,,,,,,,,,,,,,,,,,,,,,,,,,,,,,,,,,,,,,,,,,,,,,,,,,,,,,,,,,,,,,,,,,,
686955,001,2022-11-21_01h47.35.819,Info_measure_main_exp,2022.2.2,Win32,59.40711697,,,,,space,13.6807,,,,,,,,,,,,,,,,,,,,,,,,,,,,,,,,,,,,,,,,,,,,,,,,,,,,,,,,,,,,,,,,,,,,,,,,,,,,,,,,,,,,,,,,,,,,,,,,,,,,,,,,,
686955,001,2022-11-21_01h47.35.819,Info_measure_main_exp,2022.2.2,Win32,59.40711697,,,,,,,space,28.4521,,,,,,,,,,,,,,,,,,,,,,,,,,,,,,,,,,,,,,,,,,,,,,,,,,,,,,,,,,,,,,,,,,,,,,,,,,,,,,,,,,,,,,,,,,,,,,,,,,,,,,,
686955,001,2022-11-21_01h47.35.819,Info_measure_main_exp,2022.2.2,Win32,59.40711697,,,,,,,,,space,25.5547,,,,,,,,,,,,,,,,,,,,,,,,,,,,,,,,,,,,,,,,,,,,,,,,,,,,,,,,,,,,,,,,,,,,,,,,,,,,,,,,,,,,,,,,,,,,,,,,,,,,,
686955,001,2022-11-21_01h47.35.819,Info_measure_main_exp,2022.2.2,Win32,59.40711697,,,,,,,,,,,space,4.9775,,,,,,,,,,,,,,,,,,,,,,,,,,,,,,,,,,,,,,,,,,,,,,,,,,,,,,,,,,,,,,,,,,,,,,,,,,,,,,,,,,,,,,,,,,,,,,,,,,,
686955,001,2022-11-21_01h47.35.819,Info_measure_main_exp,2022.2.2,Win32,59.40711697,,,,,,,,,,,,,0,0,0,4,1,masks/mask_005.jpg,,,,,,,,,,,,,,,,,,,,,,,,,,,,,,,,,,,,,,,,,,,,,,,,,,,,,,,,,,,,,,,,,,,,,,,,,,,,,,,,,,,,,,,,,,,,,
686955,001,2022-11-21_01h47.35.819,Info_measure_main_exp,2022.2.2,Win32,59.40711697,,,,,,,,,,,,,0,1,1,2,1,masks/mask_003.jpg,,,,,,,,,,,,,,,,,,,,,,,,,,,,,,,,,,,,,,,,,,,,,,,,,,,,,,,,,,,,,,,,,,,,,,,,,,,,,,,,,,,,,,,,,,,,,
686955,001,2022-11-21_01h47.35.819,Info_measure_main_exp,2022.2.2,Win32,59.40711697,,,,,,,,,,,,,0,2,2,0,1,masks/mask_001.jpg,,,,,,,,,,,,,,,,,,,,,,,,,,,,,,,,,,,,,,,,,,,,,,,,,,,,,,,,,,,,,,,,,,,,,,,,,,,,,,,,,,,,,,,,,,,,,
686955,001,2022-11-21_01h47.35.819,Info_measure_main_exp,2022.2.2,Win32,59.40711697,,,,,,,,,,,,,0,3,3,3,1,masks/mask_004.jpg,,,,,,,,,,,,,,,,,,,,,,,,,,,,,,,,,,,,,,,,,,,,,,,,,,,,,,,,,,,,,,,,,,,,,,,,,,,,,,,,,,,,,,,,,,,,,
686955,001,2022-11-21_01h47.35.819,Info_measure_main_exp,2022.2.2,Win32,59.40711697,,,,,,,,,,,,,0,4,4,1,1,masks/mask_002.jpg,,,,,,,,,,,,,,,,,,,,,,,,,,,,,,,,,,,,,,,,,,,,,,,,,,,,,,,,,,,,,,,,,,,,,,,,,,,,,,,,,,,,,,,,,,,,,
686955,001,2022-11-21_01h47.35.819,Info_measure_main_exp,2022.2.2,Win32,59.40711697,,,,,,,,,,,,,,,,,,masks/mask_004.jpg,0,0,0,3,1,,,,,,,,,,,,,,,,,,,,,,,,,,,,,,,,,,,,,,,,,,,,,,,,,,,,,,,,,,,,,,,,,,,,,,,,,,,,,,,,,,,,,,,,
686955,001,2022-11-21_01h47.35.819,Info_measure_main_exp,2022.2.2,Win32,59.40711697,,,,,,,,,,,,,,,,,,masks/mask_003.jpg,0,1,1,2,1,,,,,,,,,,,,,,,,,,,,,,,,,,,,,,,,,,,,,,,,,,,,,,,,,,,,,,,,,,,,,,,,,,,,,,,,,,,,,,,,,,,,,,,,
686955,001,2022-11-21_01h47.35.819,Info_measure_main_exp,2022.2.2,Win32,59.40711697,,,,,,,,,,,,,,,,,,masks/mask_002.jpg,0,2,2,1,1,,,,,,,,,,,,,,,,,,,,,,,,,,,,,,,,,,,,,,,,,,,,,,,,,,,,,,,,,,,,,,,,,,,,,,,,,,,,,,,,,,,,,,,,
686955,001,2022-11-21_01h47.35.819,Info_measure_main_exp,2022.2.2,Win32,59.40711697,,,,,,,,,,,,,,,,,,masks/mask_005.jpg,0,3,3,4,1,,,,,,,,,,,,,,,,,,,,,,,,,,,,,,,,,,,,,,,,,,,,,,,,,,,,,,,,,,,,,,,,,,,,,,,,,,,,,,,,,,,,,,,,
686955,001,2022-11-21_01h47.35.819,Info_measure_main_exp,2022.2.2,Win32,59.40711697,,,,,,,,,,,,,,,,,,masks/mask_001.jpg,0,4,4,0,1,,,,,,,,,,,,,,,,,,,,,,,,,,,,,,,,,,,,,,,,,,,,,,,,,,,,,,,,,,,,,,,,,,,,,,,,,,,,,,,,,,,,,,,,
686955,001,2022-11-21_01h47.35.819,Info_measure_main_exp,2022.2.2,Win32,59.40711697,,,,,,,,,,,,,,,,,,,,,,,,0.138888889,0.094444452,1,0,0,response1disk,6,144.7689,1,0,0.014814801,0,0,1,center_square,0,0,0,1,1,0,131,5,5,2514,2490,prac_patch/patch0002514.jpg,prac_patch/patch0002490.jpg,,,,,,,,,,,,,,,,,,,,,,,,,,,,,,,,,,,,,,,,,,,,,,,,,,,,,,,,,,,,
686955,001,2022-11-21_01h47.35.819,Info_measure_main_exp,2022.2.2,Win32,59.40711697,,,,,,,,,,,,,0,0,0,1,1,masks/mask_002.jpg,,,,,,,,,,,,,,,,,,,,,,,,,,,,,,,,,,,,,,,,,,,,,,,,,,,,,,,,,,,,,,,,,,,,,,,,,,,,,,,,,,,,,,,,,,,,,
686955,001,2022-11-21_01h47.35.819,Info_measure_main_exp,2022.2.2,Win32,59.40711697,,,,,,,,,,,,,0,1,1,4,1,masks/mask_005.jpg,,,,,,,,,,,,,,,,,,,,,,,,,,,,,,,,,,,,,,,,,,,,,,,,,,,,,,,,,,,,,,,,,,,,,,,,,,,,,,,,,,,,,,,,,,,,,
686955,001,2022-11-21_01h47.35.819,Info_measure_main_exp,2022.2.2,Win32,59.40711697,,,,,,,,,,,,,0,2,2,2,1,masks/mask_003.jpg,,,,,,,,,,,,,,,,,,,,,,,,,,,,,,,,,,,,,,,,,,,,,,,,,,,,,,,,,,,,,,,,,,,,,,,,,,,,,,,,,,,,,,,,,,,,,
686955,001,2022-11-21_01h47.35.819,Info_measure_main_exp,2022.2.2,Win32,59.40711697,,,,,,,,,,,,,0,3,3,3,1,masks/mask_004.jpg,,,,,,,,,,,,,,,,,,,,,,,,,,,,,,,,,,,,,,,,,,,,,,,,,,,,,,,,,,,,,,,,,,,,,,,,,,,,,,,,,,,,,,,,,,,,,
686955,001,2022-11-21_01h47.35.819,Info_measure_main_exp,2022.2.2,Win32,59.40711697,,,,,,,,,,,,,0,4,4,0,1,masks/mask_001.jpg,,,,,,,,,,,,,,,,,,,,,,,,,,,,,,,,,,,,,,,,,,,,,,,,,,,,,,,,,,,,,,,,,,,,,,,,,,,,,,,,,,,,,,,,,,,,,
686955,001,2022-11-21_01h47.35.819,Info_measure_main_exp,2022.2.2,Win32,59.40711697,,,,,,,,,,,,,,,,,,masks/mask_003.jpg,0,0,0,2,1,,,,,,,,,,,,,,,,,,,,,,,,,,,,,,,,,,,,,,,,,,,,,,,,,,,,,,,,,,,,,,,,,,,,,,,,,,,,,,,,,,,,,,,,
686955,001,2022-11-21_01h47.35.819,Info_measure_main_exp,2022.2.2,Win32,59.40711697,,,,,,,,,,,,,,,,,,masks/mask_001.jpg,0,1,1,0,1,,,,,,,,,,,,,,,,,,,,,,,,,,,,,,,,,,,,,,,,,,,,,,,,,,,,,,,,,,,,,,,,,,,,,,,,,,,,,,,,,,,,,,,,
686955,001,2022-11-21_01h47.35.819,Info_measure_main_exp,2022.2.2,Win32,59.40711697,,,,,,,,,,,,,,,,,,masks/mask_005.jpg,0,2,2,4,1,,,,,,,,,,,,,,,,,,,,,,,,,,,,,,,,,,,,,,,,,,,,,,,,,,,,,,,,,,,,,,,,,,,,,,,,,,,,,,,,,,,,,,,,
686955,001,2022-11-21_01h47.35.819,Info_measure_main_exp,2022.2.2,Win32,59.40711697,,,,,,,,,,,,,,,,,,masks/mask_002.jpg,0,3,3,1,1,,,,,,,,,,,,,,,,,,,,,,,,,,,,,,,,,,,,,,,,,,,,,,,,,,,,,,,,,,,,,,,,,,,,,,,,,,,,,,,,,,,,,,,,
686955,001,2022-11-21_01h47.35.819,Info_measure_main_exp,2022.2.2,Win32,59.40711697,,,,,,,,,,,,,,,,,,masks/mask_004.jpg,0,4,4,3,1,,,,,,,,,,,,,,,,,,,,,,,,,,,,,,,,,,,,,,,,,,,,,,,,,,,,,,,,,,,,,,,,,,,,,,,,,,,,,,,,,,,,,,,,
686955,001,2022-11-21_01h47.35.819,Info_measure_main_exp,2022.2.2,Win32,59.40711697,,,,,,,,,,,,,,,,,,,,,,,,0.074074074,0.025000007,1,0,0,response1disk,6,169.9377,1,0,0.00462963,0,0,1,center_square,0,1,1,0,1,0,131,5,5,2370,2406,prac_patch/patch0002370.jpg,prac_patch/patch0002406.jpg,,,,,,,,,,,,,,,,,,,,,,,,,,,,,,,,,,,,,,,,,,,,,,,,,,,,,,,,,,,,
686955,001,2022-11-21_01h47.35.819,Info_measure_main_exp,2022.2.2,Win32,59.40711697,,,,,,,,,,,,,0,0,0,1,1,masks/mask_002.jpg,,,,,,,,,,,,,,,,,,,,,,,,,,,,,,,,,,,,,,,,,,,,,,,,,,,,,,,,,,,,,,,,,,,,,,,,,,,,,,,,,,,,,,,,,,,,,
686955,001,2022-11-21_01h47.35.819,Info_measure_main_exp,2022.2.2,Win32,59.40711697,,,,,,,,,,,,,0,1,1,4,1,masks/mask_005.jpg,,,,,,,,,,,,,,,,,,,,,,,,,,,,,,,,,,,,,,,,,,,,,,,,,,,,,,,,,,,,,,,,,,,,,,,,,,,,,,,,,,,,,,,,,,,,,
686955,001,2022-11-21_01h47.35.819,Info_measure_main_exp,2022.2.2,Win32,59.40711697,,,,,,,,,,,,,0,2,2,0,1,masks/mask_001.jpg,,,,,,,,,,,,,,,,,,,,,,,,,,,,,,,,,,,,,,,,,,,,,,,,,,,,,,,,,,,,,,,,,,,,,,,,,,,,,,,,,,,,,,,,,,,,,
686955,001,2022-11-21_01h47.35.819,Info_measure_main_exp,2022.2.2,Win32,59.40711697,,,,,,,,,,,,,0,3,3,2,1,masks/mask_003.jpg,,,,,,,,,,,,,,,,,,,,,,,,,,,,,,,,,,,,,,,,,,,,,,,,,,,,,,,,,,,,,,,,,,,,,,,,,,,,,,,,,,,,,,,,,,,,,
686955,001,2022-11-21_01h47.35.819,Info_measure_main_exp,2022.2.2,Win32,59.40711697,,,,,,,,,,,,,0,4,4,3,1,masks/mask_004.jpg,,,,,,,,,,,,,,,,,,,,,,,,,,,,,,,,,,,,,,,,,,,,,,,,,,,,,,,,,,,,,,,,,,,,,,,,,,,,,,,,,,,,,,,,,,,,,
686955,001,2022-11-21_01h47.35.819,Info_measure_main_exp,2022.2.2,Win32,59.40711697,,,,,,,,,,,,,,,,,,masks/mask_001.jpg,0,0,0,0,1,,,,,,,,,,,,,,,,,,,,,,,,,,,,,,,,,,,,,,,,,,,,,,,,,,,,,,,,,,,,,,,,,,,,,,,,,,,,,,,,,,,,,,,,
686955,001,2022-11-21_01h47.35.819,Info_measure_main_exp,2022.2.2,Win32,59.40711697,,,,,,,,,,,,,,,,,,masks/mask_005.jpg,0,1,1,4,1,,,,,,,,,,,,,,,,,,,,,,,,,,,,,,,,,,,,,,,,,,,,,,,,,,,,,,,,,,,,,,,,,,,,,,,,,,,,,,,,,,,,,,,,
686955,001,2022-11-21_01h47.35.819,Info_measure_main_exp,2022.2.2,Win32,59.40711697,,,,,,,,,,,,,,,,,,masks/mask_002.jpg,0,2,2,1,1,,,,,,,,,,,,,,,,,,,,,,,,,,,,,,,,,,,,,,,,,,,,,,,,,,,,,,,,,,,,,,,,,,,,,,,,,,,,,,,,,,,,,,,,
686955,001,2022-11-21_01h47.35.819,Info_measure_main_exp,2022.2.2,Win32,59.40711697,,,,,,,,,,,,,,,,,,masks/mask_003.jpg,0,3,3,2,1,,,,,,,,,,,,,,,,,,,,,,,,,,,,,,,,,,,,,,,,,,,,,,,,,,,,,,,,,,,,,,,,,,,,,,,,,,,,,,,,,,,,,,,,
686955,001,2022-11-21_01h47.35.819,Info_measure_main_exp,2022.2.2,Win32,59.40711697,,,,,,,,,,,,,,,,,,masks/mask_004.jpg,0,4,4,3,1,,,,,,,,,,,,,,,,,,,,,,,,,,,,,,,,,,,,,,,,,,,,,,,,,,,,,,,,,,,,,,,,,,,,,,,,,,,,,,,,,,,,,,,,
686955,001,2022-11-21_01h47.35.819,Info_measure_main_exp,2022.2.2,Win32,59.40711697,,,,,,,,,,,,,,,,,,,,,,,,-0.074074074,-0.114814829,1,0,0,response5disk,3,181.4715,1,-0.00462963,0.00462963,1,0,0,center_square,0,2,2,2,1,0,131,5,5,2526,2526,prac_patch/patch0002526.jpg,prac_patch/patch0002526.jpg,,,,,,,,,,,,,,,,,,,,,,,,,,,,,,,,,,,,,,,,,,,,,,,,,,,,,,,,,,,,
686955,001,2022-11-21_01h47.35.819,Info_measure_main_exp,2022.2.2,Win32,59.40711697,,,,,,,,,,,,,,,,,,,,,,,,,,,,,,,,,,,,,,,,,,,,,,,,,,,,,,,,,,,space,3.5198,,,,,,,,,,,,,,,,,,,,,,,,,,,,,,,,,,,,,,,,,,,,,,,,,,,
686955,001,2022-11-21_01h47.35.819,Info_measure_main_exp,2022.2.2,Win32,59.40711697,,,,,,,,,,,,,,,,,,masks/mask_004.jpg,,,,,,,,,,,,,,,,,,,,,,,,,,,,,,,,,,,,,,,,,,,0,0,0,3,1,,,,,,,,,,,,,,,,,,,,,,,,,,,,,,,,,,,,,,,,,,,,,,
686955,001,2022-11-21_01h47.35.819,Info_measure_main_exp,2022.2.2,Win32,59.40711697,,,,,,,,,,,,,,,,,,masks/mask_003.jpg,,,,,,,,,,,,,,,,,,,,,,,,,,,,,,,,,,,,,,,,,,,0,1,1,2,1,,,,,,,,,,,,,,,,,,,,,,,,,,,,,,,,,,,,,,,,,,,,,,
686955,001,2022-11-21_01h47.35.819,Info_measure_main_exp,2022.2.2,Win32,59.40711697,,,,,,,,,,,,,,,,,,masks/mask_001.jpg,,,,,,,,,,,,,,,,,,,,,,,,,,,,,,,,,,,,,,,,,,,0,2,2,0,1,,,,,,,,,,,,,,,,,,,,,,,,,,,,,,,,,,,,,,,,,,,,,,
686955,001,2022-11-21_01h47.35.819,Info_measure_main_exp,2022.2.2,Win32,59.40711697,,,,,,,,,,,,,,,,,,masks/mask_005.jpg,,,,,,,,,,,,,,,,,,,,,,,,,,,,,,,,,,,,,,,,,,,0,3,3,4,1,,,,,,,,,,,,,,,,,,,,,,,,,,,,,,,,,,,,,,,,,,,,,,
686955,001,2022-11-21_01h47.35.819,Info_measure_main_exp,2022.2.2,Win32,59.40711697,,,,,,,,,,,,,,,,,,masks/mask_002.jpg,,,,,,,,,,,,,,,,,,,,,,,,,,,,,,,,,,,,,,,,,,,0,4,4,1,1,,,,,,,,,,,,,,,,,,,,,,,,,,,,,,,,,,,,,,,,,,,,,,
686955,001,2022-11-21_01h47.35.819,Info_measure_main_exp,2022.2.2,Win32,59.40711697,,,,,,,,,,,,,,,,,,masks/mask_004.jpg,,,,,,,,,,,,,,,,,,,,,,,,,,,,,,,,,,,,,,,,,,,,,,,,0,0,0,3,1,,,,,,,,,,,,,,,,,,,,,,,,,,,,,,,,,,,,,,,,,
686955,001,2022-11-21_01h47.35.819,Info_measure_main_exp,2022.2.2,Win32,59.40711697,,,,,,,,,,,,,,,,,,masks/mask_002.jpg,,,,,,,,,,,,,,,,,,,,,,,,,,,,,,,,,,,,,,,,,,,,,,,,0,1,1,1,1,,,,,,,,,,,,,,,,,,,,,,,,,,,,,,,,,,,,,,,,,
686955,001,2022-11-21_01h47.35.819,Info_measure_main_exp,2022.2.2,Win32,59.40711697,,,,,,,,,,,,,,,,,,masks/mask_005.jpg,,,,,,,,,,,,,,,,,,,,,,,,,,,,,,,,,,,,,,,,,,,,,,,,0,2,2,4,1,,,,,,,,,,,,,,,,,,,,,,,,,,,,,,,,,,,,,,,,,
686955,001,2022-11-21_01h47.35.819,Info_measure_main_exp,2022.2.2,Win32,59.40711697,,,,,,,,,,,,,,,,,,masks/mask_001.jpg,,,,,,,,,,,,,,,,,,,,,,,,,,,,,,,,,,,,,,,,,,,,,,,,0,3,3,0,1,,,,,,,,,,,,,,,,,,,,,,,,,,,,,,,,,,,,,,,,,
686955,001,2022-11-21_01h47.35.819,Info_measure_main_exp,2022.2.2,Win32,59.40711697,,,,,,,,,,,,,,,,,,masks/mask_003.jpg,,,,,,,,,,,,,,,,,,,,,,,,,,,,,,,,,,,,,,,,,,,,,,,,0,4,4,2,1,,,,,,,,,,,,,,,,,,,,,,,,,,,,,,,,,,,,,,,,,
686955,001,2022-11-21_01h47.35.819,Info_measure_main_exp,2022.2.2,Win32,59.40711697,,,,,,,,,,,,,,,,,,,,,,,,,,,,,,5,4.8351,1,,,,,,,,,,,,0,131,5,5,2142,2166,absent_patch/patch0002142.jpg,absent_patch/patch0002166.jpg,,,,,,,,,,,,,,,,,,,,0.124074088,-0.078703704,1,0,0,response3disk,1,0.000925912,-0.000925947,1,0,0,center_square,0,0,0,66,1,,,,,,,,,,,,,,,,,,,,,,,
686955,001,2022-11-21_01h47.35.819,Info_measure_main_exp,2022.2.2,Win32,59.40711697,,,,,,,,,,,,,,,,,,masks/mask_001.jpg,,,,,,,,,,,,,,,,,,,,,,,,,,,,,,,,,,,,,,,,,,,0,0,0,0,1,,,,,,,,,,,,,,,,,,,,,,,,,,,,,,,,,,,,,,,,,,,,,,
686955,001,2022-11-21_01h47.35.819,Info_measure_main_exp,2022.2.2,Win32,59.40711697,,,,,,,,,,,,,,,,,,masks/mask_004.jpg,,,,,,,,,,,,,,,,,,,,,,,,,,,,,,,,,,,,,,,,,,,0,1,1,3,1,,,,,,,,,,,,,,,,,,,,,,,,,,,,,,,,,,,,,,,,,,,,,,
686955,001,2022-11-21_01h47.35.819,Info_measure_main_exp,2022.2.2,Win32,59.40711697,,,,,,,,,,,,,,,,,,masks/mask_005.jpg,,,,,,,,,,,,,,,,,,,,,,,,,,,,,,,,,,,,,,,,,,,0,2,2,4,1,,,,,,,,,,,,,,,,,,,,,,,,,,,,,,,,,,,,,,,,,,,,,,
686955,001,2022-11-21_01h47.35.819,Info_measure_main_exp,2022.2.2,Win32,59.40711697,,,,,,,,,,,,,,,,,,masks/mask_002.jpg,,,,,,,,,,,,,,,,,,,,,,,,,,,,,,,,,,,,,,,,,,,0,3,3,1,1,,,,,,,,,,,,,,,,,,,,,,,,,,,,,,,,,,,,,,,,,,,,,,
686955,001,2022-11-21_01h47.35.819,Info_measure_main_exp,2022.2.2,Win32,59.40711697,,,,,,,,,,,,,,,,,,masks/mask_003.jpg,,,,,,,,,,,,,,,,,,,,,,,,,,,,,,,,,,,,,,,,,,,0,4,4,2,1,,,,,,,,,,,,,,,,,,,,,,,,,,,,,,,,,,,,,,,,,,,,,,
686955,001,2022-11-21_01h47.35.819,Info_measure_main_exp,2022.2.2,Win32,59.40711697,,,,,,,,,,,,,,,,,,masks/mask_003.jpg,,,,,,,,,,,,,,,,,,,,,,,,,,,,,,,,,,,,,,,,,,,,,,,,0,0,0,2,1,,,,,,,,,,,,,,,,,,,,,,,,,,,,,,,,,,,,,,,,,
686955,001,2022-11-21_01h47.35.819,Info_measure_main_exp,2022.2.2,Win32,59.40711697,,,,,,,,,,,,,,,,,,masks/mask_005.jpg,,,,,,,,,,,,,,,,,,,,,,,,,,,,,,,,,,,,,,,,,,,,,,,,0,1,1,4,1,,,,,,,,,,,,,,,,,,,,,,,,,,,,,,,,,,,,,,,,,
686955,001,2022-11-21_01h47.35.819,Info_measure_main_exp,2022.2.2,Win32,59.40711697,,,,,,,,,,,,,,,,,,masks/mask_004.jpg,,,,,,,,,,,,,,,,,,,,,,,,,,,,,,,,,,,,,,,,,,,,,,,,0,2,2,3,1,,,,,,,,,,,,,,,,,,,,,,,,,,,,,,,,,,,,,,,,,
686955,001,2022-11-21_01h47.35.819,Info_measure_main_exp,2022.2.2,Win32,59.40711697,,,,,,,,,,,,,,,,,,masks/mask_002.jpg,,,,,,,,,,,,,,,,,,,,,,,,,,,,,,,,,,,,,,,,,,,,,,,,0,3,3,1,1,,,,,,,,,,,,,,,,,,,,,,,,,,,,,,,,,,,,,,,,,
686955,001,2022-11-21_01h47.35.819,Info_measure_main_exp,2022.2.2,Win32,59.40711697,,,,,,,,,,,,,,,,,,masks/mask_001.jpg,,,,,,,,,,,,,,,,,,,,,,,,,,,,,,,,,,,,,,,,,,,,,,,,0,4,4,0,1,,,,,,,,,,,,,,,,,,,,,,,,,,,,,,,,,,,,,,,,,
686955,001,2022-11-21_01h47.35.819,Info_measure_main_exp,2022.2.2,Win32,59.40711697,,,,,,,,,,,,,,,,,,,,,,,,,,,,,,4,3.4019,1,,,,,,,,,,,,0,131,5,5,2178,2238,absent_patch/patch0002178.jpg,absent_patch/patch0002238.jpg,,,,,,,,,,,,,,,,,,,,0.050925926,-0.131481524,1,0,0,response3disk,2,0.005555541,0.0074074,1,0,0,center_square,0,1,1,57,1,,,,,,,,,,,,,,,,,,,,,,,
686955,001,2022-11-21_01h47.35.819,Info_measure_main_exp,2022.2.2,Win32,59.40711697,,,,,,,,,,,,,,,,,,masks/mask_001.jpg,,,,,,,,,,,,,,,,,,,,,,,,,,,,,,,,,,,,,,,,,,,0,0,0,0,1,,,,,,,,,,,,,,,,,,,,,,,,,,,,,,,,,,,,,,,,,,,,,,
686955,001,2022-11-21_01h47.35.819,Info_measure_main_exp,2022.2.2,Win32,59.40711697,,,,,,,,,,,,,,,,,,masks/mask_004.jpg,,,,,,,,,,,,,,,,,,,,,,,,,,,,,,,,,,,,,,,,,,,0,1,1,3,1,,,,,,,,,,,,,,,,,,,,,,,,,,,,,,,,,,,,,,,,,,,,,,
686955,001,2022-11-21_01h47.35.819,Info_measure_main_exp,2022.2.2,Win32,59.40711697,,,,,,,,,,,,,,,,,,masks/mask_003.jpg,,,,,,,,,,,,,,,,,,,,,,,,,,,,,,,,,,,,,,,,,,,0,2,2,2,1,,,,,,,,,,,,,,,,,,,,,,,,,,,,,,,,,,,,,,,,,,,,,,
686955,001,2022-11-21_01h47.35.819,Info_measure_main_exp,2022.2.2,Win32,59.40711697,,,,,,,,,,,,,,,,,,masks/mask_002.jpg,,,,,,,,,,,,,,,,,,,,,,,,,,,,,,,,,,,,,,,,,,,0,3,3,1,1,,,,,,,,,,,,,,,,,,,,,,,,,,,,,,,,,,,,,,,,,,,,,,
686955,001,2022-11-21_01h47.35.819,Info_measure_main_exp,2022.2.2,Win32,59.40711697,,,,,,,,,,,,,,,,,,masks/mask_005.jpg,,,,,,,,,,,,,,,,,,,,,,,,,,,,,,,,,,,,,,,,,,,0,4,4,4,1,,,,,,,,,,,,,,,,,,,,,,,,,,,,,,,,,,,,,,,,,,,,,,
686955,001,2022-11-21_01h47.35.819,Info_measure_main_exp,2022.2.2,Win32,59.40711697,,,,,,,,,,,,,,,,,,masks/mask_004.jpg,,,,,,,,,,,,,,,,,,,,,,,,,,,,,,,,,,,,,,,,,,,,,,,,0,0,0,3,1,,,,,,,,,,,,,,,,,,,,,,,,,,,,,,,,,,,,,,,,,
686955,001,2022-11-21_01h47.35.819,Info_measure_main_exp,2022.2.2,Win32,59.40711697,,,,,,,,,,,,,,,,,,masks/mask_002.jpg,,,,,,,,,,,,,,,,,,,,,,,,,,,,,,,,,,,,,,,,,,,,,,,,0,1,1,1,1,,,,,,,,,,,,,,,,,,,,,,,,,,,,,,,,,,,,,,,,,
686955,001,2022-11-21_01h47.35.819,Info_measure_main_exp,2022.2.2,Win32,59.40711697,,,,,,,,,,,,,,,,,,masks/mask_001.jpg,,,,,,,,,,,,,,,,,,,,,,,,,,,,,,,,,,,,,,,,,,,,,,,,0,2,2,0,1,,,,,,,,,,,,,,,,,,,,,,,,,,,,,,,,,,,,,,,,,
686955,001,2022-11-21_01h47.35.819,Info_measure_main_exp,2022.2.2,Win32,59.40711697,,,,,,,,,,,,,,,,,,masks/mask_003.jpg,,,,,,,,,,,,,,,,,,,,,,,,,,,,,,,,,,,,,,,,,,,,,,,,0,3,3,2,1,,,,,,,,,,,,,,,,,,,,,,,,,,,,,,,,,,,,,,,,,
686955,001,2022-11-21_01h47.35.819,Info_measure_main_exp,2022.2.2,Win32,59.40711697,,,,,,,,,,,,,,,,,,masks/mask_005.jpg,,,,,,,,,,,,,,,,,,,,,,,,,,,,,,,,,,,,,,,,,,,,,,,,0,4,4,4,1,,,,,,,,,,,,,,,,,,,,,,,,,,,,,,,,,,,,,,,,,
686955,001,2022-11-21_01h47.35.819,Info_measure_main_exp,2022.2.2,Win32,59.40711697,,,,,,,,,,,,,,,,,,,,,,,,,,,,,,6,2.4701,1,,,,,,,,,,,,0,131,5,5,2190,1986,absent_patch/patch0002190.jpg,absent_patch/patch0001986.jpg,,,,,,,,,,,,,,,,,,,,0.088888875,0.035185178,1,0,0,response1disk,3,0.002777806,0.001851859,1,0,0,center_square,0,2,2,111,1,,,,,,,,,,,,,,,,,,,,,,,
686955,001,2022-11-21_01h47.35.819,Info_measure_main_exp,2022.2.2,Win32,59.40711697,,,,,,,,,,,,,,,,,,masks/mask_005.jpg,,,,,,,,,,,,,,,,,,,,,,,,,,,,,,,,,,,,,,,,,,,0,0,0,4,1,,,,,,,,,,,,,,,,,,,,,,,,,,,,,,,,,,,,,,,,,,,,,,
686955,001,2022-11-21_01h47.35.819,Info_measure_main_exp,2022.2.2,Win32,59.40711697,,,,,,,,,,,,,,,,,,masks/mask_002.jpg,,,,,,,,,,,,,,,,,,,,,,,,,,,,,,,,,,,,,,,,,,,0,1,1,1,1,,,,,,,,,,,,,,,,,,,,,,,,,,,,,,,,,,,,,,,,,,,,,,
686955,001,2022-11-21_01h47.35.819,Info_measure_main_exp,2022.2.2,Win32,59.40711697,,,,,,,,,,,,,,,,,,masks/mask_004.jpg,,,,,,,,,,,,,,,,,,,,,,,,,,,,,,,,,,,,,,,,,,,0,2,2,3,1,,,,,,,,,,,,,,,,,,,,,,,,,,,,,,,,,,,,,,,,,,,,,,
686955,001,2022-11-21_01h47.35.819,Info_measure_main_exp,2022.2.2,Win32,59.40711697,,,,,,,,,,,,,,,,,,masks/mask_003.jpg,,,,,,,,,,,,,,,,,,,,,,,,,,,,,,,,,,,,,,,,,,,0,3,3,2,1,,,,,,,,,,,,,,,,,,,,,,,,,,,,,,,,,,,,,,,,,,,,,,
686955,001,2022-11-21_01h47.35.819,Info_measure_main_exp,2022.2.2,Win32,59.40711697,,,,,,,,,,,,,,,,,,masks/mask_001.jpg,,,,,,,,,,,,,,,,,,,,,,,,,,,,,,,,,,,,,,,,,,,0,4,4,0,1,,,,,,,,,,,,,,,,,,,,,,,,,,,,,,,,,,,,,,,,,,,,,,
686955,001,2022-11-21_01h47.35.819,Info_measure_main_exp,2022.2.2,Win32,59.40711697,,,,,,,,,,,,,,,,,,masks/mask_004.jpg,,,,,,,,,,,,,,,,,,,,,,,,,,,,,,,,,,,,,,,,,,,,,,,,0,0,0,3,1,,,,,,,,,,,,,,,,,,,,,,,,,,,,,,,,,,,,,,,,,
686955,001,2022-11-21_01h47.35.819,Info_measure_main_exp,2022.2.2,Win32,59.40711697,,,,,,,,,,,,,,,,,,masks/mask_001.jpg,,,,,,,,,,,,,,,,,,,,,,,,,,,,,,,,,,,,,,,,,,,,,,,,0,1,1,0,1,,,,,,,,,,,,,,,,,,,,,,,,,,,,,,,,,,,,,,,,,
686955,001,2022-11-21_01h47.35.819,Info_measure_main_exp,2022.2.2,Win32,59.40711697,,,,,,,,,,,,,,,,,,masks/mask_002.jpg,,,,,,,,,,,,,,,,,,,,,,,,,,,,,,,,,,,,,,,,,,,,,,,,0,2,2,1,1,,,,,,,,,,,,,,,,,,,,,,,,,,,,,,,,,,,,,,,,,
686955,001,2022-11-21_01h47.35.819,Info_measure_main_exp,2022.2.2,Win32,59.40711697,,,,,,,,,,,,,,,,,,masks/mask_005.jpg,,,,,,,,,,,,,,,,,,,,,,,,,,,,,,,,,,,,,,,,,,,,,,,,0,3,3,4,1,,,,,,,,,,,,,,,,,,,,,,,,,,,,,,,,,,,,,,,,,
686955,001,2022-11-21_01h47.35.819,Info_measure_main_exp,2022.2.2,Win32,59.40711697,,,,,,,,,,,,,,,,,,masks/mask_003.jpg,,,,,,,,,,,,,,,,,,,,,,,,,,,,,,,,,,,,,,,,,,,,,,,,0,4,4,2,1,,,,,,,,,,,,,,,,,,,,,,,,,,,,,,,,,,,,,,,,,
686955,001,2022-11-21_01h47.35.819,Info_measure_main_exp,2022.2.2,Win32,59.40711697,,,,,,,,,,,,,,,,,,,,,,,,,,,,,,0,1.9834,1,,,,,,,,,,,,0,131,5,5,2178,2178,absent_patch/patch0002178.jpg,absent_patch/patch0002178.jpg,,,,,,,,,,,,,,,,,,,,-0.039814772,0.068518497,1,0,0,response7disk,4,0.012037065,0.00462963,1,0,0,center_square,0,3,3,98,1,,,,,,,,,,,,,,,,,,,,,,,
686955,001,2022-11-21_01h47.35.819,Info_measure_main_exp,2022.2.2,Win32,59.40711697,,,,,,,,,,,,,,,,,,masks/mask_004.jpg,,,,,,,,,,,,,,,,,,,,,,,,,,,,,,,,,,,,,,,,,,,0,0,0,3,1,,,,,,,,,,,,,,,,,,,,,,,,,,,,,,,,,,,,,,,,,,,,,,
686955,001,2022-11-21_01h47.35.819,Info_measure_main_exp,2022.2.2,Win32,59.40711697,,,,,,,,,,,,,,,,,,masks/mask_002.jpg,,,,,,,,,,,,,,,,,,,,,,,,,,,,,,,,,,,,,,,,,,,0,1,1,1,1,,,,,,,,,,,,,,,,,,,,,,,,,,,,,,,,,,,,,,,,,,,,,,
686955,001,2022-11-21_01h47.35.819,Info_measure_main_exp,2022.2.2,Win32,59.40711697,,,,,,,,,,,,,,,,,,masks/mask_005.jpg,,,,,,,,,,,,,,,,,,,,,,,,,,,,,,,,,,,,,,,,,,,0,2,2,4,1,,,,,,,,,,,,,,,,,,,,,,,,,,,,,,,,,,,,,,,,,,,,,,
686955,001,2022-11-21_01h47.35.819,Info_measure_main_exp,2022.2.2,Win32,59.40711697,,,,,,,,,,,,,,,,,,masks/mask_003.jpg,,,,,,,,,,,,,,,,,,,,,,,,,,,,,,,,,,,,,,,,,,,0,3,3,2,1,,,,,,,,,,,,,,,,,,,,,,,,,,,,,,,,,,,,,,,,,,,,,,
686955,001,2022-11-21_01h47.35.819,Info_measure_main_exp,2022.2.2,Win32,59.40711697,,,,,,,,,,,,,,,,,,masks/mask_001.jpg,,,,,,,,,,,,,,,,,,,,,,,,,,,,,,,,,,,,,,,,,,,0,4,4,0,1,,,,,,,,,,,,,,,,,,,,,,,,,,,,,,,,,,,,,,,,,,,,,,
686955,001,2022-11-21_01h47.35.819,Info_measure_main_exp,2022.2.2,Win32,59.40711697,,,,,,,,,,,,,,,,,,masks/mask_005.jpg,,,,,,,,,,,,,,,,,,,,,,,,,,,,,,,,,,,,,,,,,,,,,,,,0,0,0,4,1,,,,,,,,,,,,,,,,,,,,,,,,,,,,,,,,,,,,,,,,,
686955,001,2022-11-21_01h47.35.819,Info_measure_main_exp,2022.2.2,Win32,59.40711697,,,,,,,,,,,,,,,,,,masks/mask_004.jpg,,,,,,,,,,,,,,,,,,,,,,,,,,,,,,,,,,,,,,,,,,,,,,,,0,1,1,3,1,,,,,,,,,,,,,,,,,,,,,,,,,,,,,,,,,,,,,,,,,
686955,001,2022-11-21_01h47.35.819,Info_measure_main_exp,2022.2.2,Win32,59.40711697,,,,,,,,,,,,,,,,,,masks/mask_002.jpg,,,,,,,,,,,,,,,,,,,,,,,,,,,,,,,,,,,,,,,,,,,,,,,,0,2,2,1,1,,,,,,,,,,,,,,,,,,,,,,,,,,,,,,,,,,,,,,,,,
686955,001,2022-11-21_01h47.35.819,Info_measure_main_exp,2022.2.2,Win32,59.40711697,,,,,,,,,,,,,,,,,,masks/mask_001.jpg,,,,,,,,,,,,,,,,,,,,,,,,,,,,,,,,,,,,,,,,,,,,,,,,0,3,3,0,1,,,,,,,,,,,,,,,,,,,,,,,,,,,,,,,,,,,,,,,,,
686955,001,2022-11-21_01h47.35.819,Info_measure_main_exp,2022.2.2,Win32,59.40711697,,,,,,,,,,,,,,,,,,masks/mask_003.jpg,,,,,,,,,,,,,,,,,,,,,,,,,,,,,,,,,,,,,,,,,,,,,,,,0,4,4,2,1,,,,,,,,,,,,,,,,,,,,,,,,,,,,,,,,,,,,,,,,,
686955,001,2022-11-21_01h47.35.819,Info_measure_main_exp,2022.2.2,Win32,59.40711697,,,,,,,,,,,,,,,,,,,,,,,,,,,,,,7,1.3164,1,,,,,,,,,,,,0,131,5,5,1974,2214,absent_patch/patch0001974.jpg,absent_patch/patch0002214.jpg,,,,,,,,,,,,,,,,,,,,0.050925926,0.081481474,1,0,0,response1disk,5,0.003703718,0.0074074,1,0,0,center_square,0,4,4,24,1,,,,,,,,,,,,,,,,,,,,,,,
686955,001,2022-11-21_01h47.35.819,Info_measure_main_exp,2022.2.2,Win32,59.40711697,,,,,,,,,,,,,,,,,,masks/mask_005.jpg,,,,,,,,,,,,,,,,,,,,,,,,,,,,,,,,,,,,,,,,,,,0,0,0,4,1,,,,,,,,,,,,,,,,,,,,,,,,,,,,,,,,,,,,,,,,,,,,,,
686955,001,2022-11-21_01h47.35.819,Info_measure_main_exp,2022.2.2,Win32,59.40711697,,,,,,,,,,,,,,,,,,masks/mask_003.jpg,,,,,,,,,,,,,,,,,,,,,,,,,,,,,,,,,,,,,,,,,,,0,1,1,2,1,,,,,,,,,,,,,,,,,,,,,,,,,,,,,,,,,,,,,,,,,,,,,,
686955,001,2022-11-21_01h47.35.819,Info_measure_main_exp,2022.2.2,Win32,59.40711697,,,,,,,,,,,,,,,,,,masks/mask_002.jpg,,,,,,,,,,,,,,,,,,,,,,,,,,,,,,,,,,,,,,,,,,,0,2,2,1,1,,,,,,,,,,,,,,,,,,,,,,,,,,,,,,,,,,,,,,,,,,,,,,
686955,001,2022-11-21_01h47.35.819,Info_measure_main_exp,2022.2.2,Win32,59.40711697,,,,,,,,,,,,,,,,,,masks/mask_001.jpg,,,,,,,,,,,,,,,,,,,,,,,,,,,,,,,,,,,,,,,,,,,0,3,3,0,1,,,,,,,,,,,,,,,,,,,,,,,,,,,,,,,,,,,,,,,,,,,,,,
686955,001,2022-11-21_01h47.35.819,Info_measure_main_exp,2022.2.2,Win32,59.40711697,,,,,,,,,,,,,,,,,,masks/mask_004.jpg,,,,,,,,,,,,,,,,,,,,,,,,,,,,,,,,,,,,,,,,,,,0,4,4,3,1,,,,,,,,,,,,,,,,,,,,,,,,,,,,,,,,,,,,,,,,,,,,,,
686955,001,2022-11-21_01h47.35.819,Info_measure_main_exp,2022.2.2,Win32,59.40711697,,,,,,,,,,,,,,,,,,masks/mask_004.jpg,,,,,,,,,,,,,,,,,,,,,,,,,,,,,,,,,,,,,,,,,,,,,,,,0,0,0,3,1,,,,,,,,,,,,,,,,,,,,,,,,,,,,,,,,,,,,,,,,,
686955,001,2022-11-21_01h47.35.819,Info_measure_main_exp,2022.2.2,Win32,59.40711697,,,,,,,,,,,,,,,,,,masks/mask_001.jpg,,,,,,,,,,,,,,,,,,,,,,,,,,,,,,,,,,,,,,,,,,,,,,,,0,1,1,0,1,,,,,,,,,,,,,,,,,,,,,,,,,,,,,,,,,,,,,,,,,
686955,001,2022-11-21_01h47.35.819,Info_measure_main_exp,2022.2.2,Win32,59.40711697,,,,,,,,,,,,,,,,,,masks/mask_002.jpg,,,,,,,,,,,,,,,,,,,,,,,,,,,,,,,,,,,,,,,,,,,,,,,,0,2,2,1,1,,,,,,,,,,,,,,,,,,,,,,,,,,,,,,,,,,,,,,,,,
686955,001,2022-11-21_01h47.35.819,Info_measure_main_exp,2022.2.2,Win32,59.40711697,,,,,,,,,,,,,,,,,,masks/mask_005.jpg,,,,,,,,,,,,,,,,,,,,,,,,,,,,,,,,,,,,,,,,,,,,,,,,0,3,3,4,1,,,,,,,,,,,,,,,,,,,,,,,,,,,,,,,,,,,,,,,,,
686955,001,2022-11-21_01h47.35.819,Info_measure_main_exp,2022.2.2,Win32,59.40711697,,,,,,,,,,,,,,,,,,masks/mask_003.jpg,,,,,,,,,,,,,,,,,,,,,,,,,,,,,,,,,,,,,,,,,,,,,,,,0,4,4,2,1,,,,,,,,,,,,,,,,,,,,,,,,,,,,,,,,,,,,,,,,,
686955,001,2022-11-21_01h47.35.819,Info_measure_main_exp,2022.2.2,Win32,59.40711697,,,,,,,,,,,,,,,,,,,,,,,,,,,,,,7,1.0834,1,,,,,,,,,,,,0,131,5,5,2154,2214,absent_patch/patch0002154.jpg,absent_patch/patch0002214.jpg,,,,,,,,,,,,,,,,,,,,0.033333319,0.091666645,1,0,0,response1disk,6,0.008333347,0.010185171,1,0,0,center_square,0,5,5,67,1,,,,,,,,,,,,,,,,,,,,,,,
686955,001,2022-11-21_01h47.35.819,Info_measure_main_exp,2022.2.2,Win32,59.40711697,,,,,,,,,,,,,,,,,,masks/mask_005.jpg,,,,,,,,,,,,,,,,,,,,,,,,,,,,,,,,,,,,,,,,,,,0,0,0,4,1,,,,,,,,,,,,,,,,,,,,,,,,,,,,,,,,,,,,,,,,,,,,,,
686955,001,2022-11-21_01h47.35.819,Info_measure_main_exp,2022.2.2,Win32,59.40711697,,,,,,,,,,,,,,,,,,masks/mask_002.jpg,,,,,,,,,,,,,,,,,,,,,,,,,,,,,,,,,,,,,,,,,,,0,1,1,1,1,,,,,,,,,,,,,,,,,,,,,,,,,,,,,,,,,,,,,,,,,,,,,,
686955,001,2022-11-21_01h47.35.819,Info_measure_main_exp,2022.2.2,Win32,59.40711697,,,,,,,,,,,,,,,,,,masks/mask_003.jpg,,,,,,,,,,,,,,,,,,,,,,,,,,,,,,,,,,,,,,,,,,,0,2,2,2,1,,,,,,,,,,,,,,,,,,,,,,,,,,,,,,,,,,,,,,,,,,,,,,
686955,001,2022-11-21_01h47.35.819,Info_measure_main_exp,2022.2.2,Win32,59.40711697,,,,,,,,,,,,,,,,,,masks/mask_004.jpg,,,,,,,,,,,,,,,,,,,,,,,,,,,,,,,,,,,,,,,,,,,0,3,3,3,1,,,,,,,,,,,,,,,,,,,,,,,,,,,,,,,,,,,,,,,,,,,,,,
686955,001,2022-11-21_01h47.35.819,Info_measure_main_exp,2022.2.2,Win32,59.40711697,,,,,,,,,,,,,,,,,,masks/mask_001.jpg,,,,,,,,,,,,,,,,,,,,,,,,,,,,,,,,,,,,,,,,,,,0,4,4,0,1,,,,,,,,,,,,,,,,,,,,,,,,,,,,,,,,,,,,,,,,,,,,,,
686955,001,2022-11-21_01h47.35.819,Info_measure_main_exp,2022.2.2,Win32,59.40711697,,,,,,,,,,,,,,,,,,masks/mask_001.jpg,,,,,,,,,,,,,,,,,,,,,,,,,,,,,,,,,,,,,,,,,,,,,,,,0,0,0,0,1,,,,,,,,,,,,,,,,,,,,,,,,,,,,,,,,,,,,,,,,,
686955,001,2022-11-21_01h47.35.819,Info_measure_main_exp,2022.2.2,Win32,59.40711697,,,,,,,,,,,,,,,,,,masks/mask_002.jpg,,,,,,,,,,,,,,,,,,,,,,,,,,,,,,,,,,,,,,,,,,,,,,,,0,1,1,1,1,,,,,,,,,,,,,,,,,,,,,,,,,,,,,,,,,,,,,,,,,
686955,001,2022-11-21_01h47.35.819,Info_measure_main_exp,2022.2.2,Win32,59.40711697,,,,,,,,,,,,,,,,,,masks/mask_003.jpg,,,,,,,,,,,,,,,,,,,,,,,,,,,,,,,,,,,,,,,,,,,,,,,,0,2,2,2,1,,,,,,,,,,,,,,,,,,,,,,,,,,,,,,,,,,,,,,,,,
686955,001,2022-11-21_01h47.35.819,Info_measure_main_exp,2022.2.2,Win32,59.40711697,,,,,,,,,,,,,,,,,,masks/mask_004.jpg,,,,,,,,,,,,,,,,,,,,,,,,,,,,,,,,,,,,,,,,,,,,,,,,0,3,3,3,1,,,,,,,,,,,,,,,,,,,,,,,,,,,,,,,,,,,,,,,,,
686955,001,2022-11-21_01h47.35.819,Info_measure_main_exp,2022.2.2,Win32,59.40711697,,,,,,,,,,,,,,,,,,masks/mask_005.jpg,,,,,,,,,,,,,,,,,,,,,,,,,,,,,,,,,,,,,,,,,,,,,,,,0,4,4,4,1,,,,,,,,,,,,,,,,,,,,,,,,,,,,,,,,,,,,,,,,,
686955,001,2022-11-21_01h47.35.819,Info_measure_main_exp,2022.2.2,Win32,59.40711697,,,,,,,,,,,,,,,,,,,,,,,,,,,,,,7,1.1503,1,,,,,,,,,,,,0,131,5,5,2154,1974,absent_patch/patch0002154.jpg,absent_patch/patch0001974.jpg,,,,,,,,,,,,,,,,,,,,0.040740755,0.091666645,1,0,0,response1disk,7,0.002777806,0,1,0,0,center_square,0,6,6,82,1,,,,,,,,,,,,,,,,,,,,,,,
686955,001,2022-11-21_01h47.35.819,Info_measure_main_exp,2022.2.2,Win32,59.40711697,,,,,,,,,,,,,,,,,,masks/mask_003.jpg,,,,,,,,,,,,,,,,,,,,,,,,,,,,,,,,,,,,,,,,,,,0,0,0,2,1,,,,,,,,,,,,,,,,,,,,,,,,,,,,,,,,,,,,,,,,,,,,,,
686955,001,2022-11-21_01h47.35.819,Info_measure_main_exp,2022.2.2,Win32,59.40711697,,,,,,,,,,,,,,,,,,masks/mask_002.jpg,,,,,,,,,,,,,,,,,,,,,,,,,,,,,,,,,,,,,,,,,,,0,1,1,1,1,,,,,,,,,,,,,,,,,,,,,,,,,,,,,,,,,,,,,,,,,,,,,,
686955,001,2022-11-21_01h47.35.819,Info_measure_main_exp,2022.2.2,Win32,59.40711697,,,,,,,,,,,,,,,,,,masks/mask_004.jpg,,,,,,,,,,,,,,,,,,,,,,,,,,,,,,,,,,,,,,,,,,,0,2,2,3,1,,,,,,,,,,,,,,,,,,,,,,,,,,,,,,,,,,,,,,,,,,,,,,
686955,001,2022-11-21_01h47.35.819,Info_measure_main_exp,2022.2.2,Win32,59.40711697,,,,,,,,,,,,,,,,,,masks/mask_001.jpg,,,,,,,,,,,,,,,,,,,,,,,,,,,,,,,,,,,,,,,,,,,0,3,3,0,1,,,,,,,,,,,,,,,,,,,,,,,,,,,,,,,,,,,,,,,,,,,,,,
686955,001,2022-11-21_01h47.35.819,Info_measure_main_exp,2022.2.2,Win32,59.40711697,,,,,,,,,,,,,,,,,,masks/mask_005.jpg,,,,,,,,,,,,,,,,,,,,,,,,,,,,,,,,,,,,,,,,,,,0,4,4,4,1,,,,,,,,,,,,,,,,,,,,,,,,,,,,,,,,,,,,,,,,,,,,,,
686955,001,2022-11-21_01h47.35.819,Info_measure_main_exp,2022.2.2,Win32,59.40711697,,,,,,,,,,,,,,,,,,masks/mask_002.jpg,,,,,,,,,,,,,,,,,,,,,,,,,,,,,,,,,,,,,,,,,,,,,,,,0,0,0,1,1,,,,,,,,,,,,,,,,,,,,,,,,,,,,,,,,,,,,,,,,,
686955,001,2022-11-21_01h47.35.819,Info_measure_main_exp,2022.2.2,Win32,59.40711697,,,,,,,,,,,,,,,,,,masks/mask_001.jpg,,,,,,,,,,,,,,,,,,,,,,,,,,,,,,,,,,,,,,,,,,,,,,,,0,1,1,0,1,,,,,,,,,,,,,,,,,,,,,,,,,,,,,,,,,,,,,,,,,
686955,001,2022-11-21_01h47.35.819,Info_measure_main_exp,2022.2.2,Win32,59.40711697,,,,,,,,,,,,,,,,,,masks/mask_003.jpg,,,,,,,,,,,,,,,,,,,,,,,,,,,,,,,,,,,,,,,,,,,,,,,,0,2,2,2,1,,,,,,,,,,,,,,,,,,,,,,,,,,,,,,,,,,,,,,,,,
686955,001,2022-11-21_01h47.35.819,Info_measure_main_exp,2022.2.2,Win32,59.40711697,,,,,,,,,,,,,,,,,,masks/mask_004.jpg,,,,,,,,,,,,,,,,,,,,,,,,,,,,,,,,,,,,,,,,,,,,,,,,0,3,3,3,1,,,,,,,,,,,,,,,,,,,,,,,,,,,,,,,,,,,,,,,,,
686955,001,2022-11-21_01h47.35.819,Info_measure_main_exp,2022.2.2,Win32,59.40711697,,,,,,,,,,,,,,,,,,masks/mask_005.jpg,,,,,,,,,,,,,,,,,,,,,,,,,,,,,,,,,,,,,,,,,,,,,,,,0,4,4,4,1,,,,,,,,,,,,,,,,,,,,,,,,,,,,,,,,,,,,,,,,,
686955,001,2022-11-21_01h47.35.819,Info_measure_main_exp,2022.2.2,Win32,59.40711697,,,,,,,,,,,,,,,,,,,,,,,,,,,,,,7,1.4829,1,,,,,,,,,,,,0,131,5,5,2154,2250,absent_patch/patch0002154.jpg,absent_patch/patch0002250.jpg,,,,,,,,,,,,,,,,,,,,0.030555584,0.076851845,1,0,0,response1disk,8,0.003703718,0.006481489,1,0,0,center_square,0,7,7,108,1,,,,,,,,,,,,,,,,,,,,,,,
686955,001,2022-11-21_01h47.35.819,Info_measure_main_exp,2022.2.2,Win32,59.40711697,,,,,,,,,,,,,,,,,,masks/mask_003.jpg,,,,,,,,,,,,,,,,,,,,,,,,,,,,,,,,,,,,,,,,,,,0,0,0,2,1,,,,,,,,,,,,,,,,,,,,,,,,,,,,,,,,,,,,,,,,,,,,,,
686955,001,2022-11-21_01h47.35.819,Info_measure_main_exp,2022.2.2,Win32,59.40711697,,,,,,,,,,,,,,,,,,masks/mask_001.jpg,,,,,,,,,,,,,,,,,,,,,,,,,,,,,,,,,,,,,,,,,,,0,1,1,0,1,,,,,,,,,,,,,,,,,,,,,,,,,,,,,,,,,,,,,,,,,,,,,,
686955,001,2022-11-21_01h47.35.819,Info_measure_main_exp,2022.2.2,Win32,59.40711697,,,,,,,,,,,,,,,,,,masks/mask_005.jpg,,,,,,,,,,,,,,,,,,,,,,,,,,,,,,,,,,,,,,,,,,,0,2,2,4,1,,,,,,,,,,,,,,,,,,,,,,,,,,,,,,,,,,,,,,,,,,,,,,
686955,001,2022-11-21_01h47.35.819,Info_measure_main_exp,2022.2.2,Win32,59.40711697,,,,,,,,,,,,,,,,,,masks/mask_002.jpg,,,,,,,,,,,,,,,,,,,,,,,,,,,,,,,,,,,,,,,,,,,0,3,3,1,1,,,,,,,,,,,,,,,,,,,,,,,,,,,,,,,,,,,,,,,,,,,,,,
686955,001,2022-11-21_01h47.35.819,Info_measure_main_exp,2022.2.2,Win32,59.40711697,,,,,,,,,,,,,,,,,,masks/mask_004.jpg,,,,,,,,,,,,,,,,,,,,,,,,,,,,,,,,,,,,,,,,,,,0,4,4,3,1,,,,,,,,,,,,,,,,,,,,,,,,,,,,,,,,,,,,,,,,,,,,,,
686955,001,2022-11-21_01h47.35.819,Info_measure_main_exp,2022.2.2,Win32,59.40711697,,,,,,,,,,,,,,,,,,masks/mask_005.jpg,,,,,,,,,,,,,,,,,,,,,,,,,,,,,,,,,,,,,,,,,,,,,,,,0,0,0,4,1,,,,,,,,,,,,,,,,,,,,,,,,,,,,,,,,,,,,,,,,,
686955,001,2022-11-21_01h47.35.819,Info_measure_main_exp,2022.2.2,Win32,59.40711697,,,,,,,,,,,,,,,,,,masks/mask_003.jpg,,,,,,,,,,,,,,,,,,,,,,,,,,,,,,,,,,,,,,,,,,,,,,,,0,1,1,2,1,,,,,,,,,,,,,,,,,,,,,,,,,,,,,,,,,,,,,,,,,
686955,001,2022-11-21_01h47.35.819,Info_measure_main_exp,2022.2.2,Win32,59.40711697,,,,,,,,,,,,,,,,,,masks/mask_004.jpg,,,,,,,,,,,,,,,,,,,,,,,,,,,,,,,,,,,,,,,,,,,,,,,,0,2,2,3,1,,,,,,,,,,,,,,,,,,,,,,,,,,,,,,,,,,,,,,,,,
686955,001,2022-11-21_01h47.35.819,Info_measure_main_exp,2022.2.2,Win32,59.40711697,,,,,,,,,,,,,,,,,,masks/mask_001.jpg,,,,,,,,,,,,,,,,,,,,,,,,,,,,,,,,,,,,,,,,,,,,,,,,0,3,3,0,1,,,,,,,,,,,,,,,,,,,,,,,,,,,,,,,,,,,,,,,,,
686955,001,2022-11-21_01h47.35.819,Info_measure_main_exp,2022.2.2,Win32,59.40711697,,,,,,,,,,,,,,,,,,masks/mask_002.jpg,,,,,,,,,,,,,,,,,,,,,,,,,,,,,,,,,,,,,,,,,,,,,,,,0,4,4,1,1,,,,,,,,,,,,,,,,,,,,,,,,,,,,,,,,,,,,,,,,,
686955,001,2022-11-21_01h47.35.819,Info_measure_main_exp,2022.2.2,Win32,59.40711697,,,,,,,,,,,,,,,,,,,,,,,,,,,,,,0,1.3823,1,,,,,,,,,,,,1,131,5,5,1,2274,present_patch/cong_131_5_a.jpg,absent_patch/patch0002274.jpg,,,,,,,,,,,,,,,,,,,,-0.054629644,0.099999993,1,0,0,response7disk,9,0.002777806,0.010185171,1,0,0,center_square,0,8,8,105,1,,,,,,,,,,,,,,,,,,,,,,,
686955,001,2022-11-21_01h47.35.819,Info_measure_main_exp,2022.2.2,Win32,59.40711697,,,,,,,,,,,,,,,,,,masks/mask_005.jpg,,,,,,,,,,,,,,,,,,,,,,,,,,,,,,,,,,,,,,,,,,,0,0,0,4,1,,,,,,,,,,,,,,,,,,,,,,,,,,,,,,,,,,,,,,,,,,,,,,
686955,001,2022-11-21_01h47.35.819,Info_measure_main_exp,2022.2.2,Win32,59.40711697,,,,,,,,,,,,,,,,,,masks/mask_003.jpg,,,,,,,,,,,,,,,,,,,,,,,,,,,,,,,,,,,,,,,,,,,0,1,1,2,1,,,,,,,,,,,,,,,,,,,,,,,,,,,,,,,,,,,,,,,,,,,,,,
686955,001,2022-11-21_01h47.35.819,Info_measure_main_exp,2022.2.2,Win32,59.40711697,,,,,,,,,,,,,,,,,,masks/mask_001.jpg,,,,,,,,,,,,,,,,,,,,,,,,,,,,,,,,,,,,,,,,,,,0,2,2,0,1,,,,,,,,,,,,,,,,,,,,,,,,,,,,,,,,,,,,,,,,,,,,,,
686955,001,2022-11-21_01h47.35.819,Info_measure_main_exp,2022.2.2,Win32,59.40711697,,,,,,,,,,,,,,,,,,masks/mask_002.jpg,,,,,,,,,,,,,,,,,,,,,,,,,,,,,,,,,,,,,,,,,,,0,3,3,1,1,,,,,,,,,,,,,,,,,,,,,,,,,,,,,,,,,,,,,,,,,,,,,,
686955,001,2022-11-21_01h47.35.819,Info_measure_main_exp,2022.2.2,Win32,59.40711697,,,,,,,,,,,,,,,,,,masks/mask_004.jpg,,,,,,,,,,,,,,,,,,,,,,,,,,,,,,,,,,,,,,,,,,,0,4,4,3,1,,,,,,,,,,,,,,,,,,,,,,,,,,,,,,,,,,,,,,,,,,,,,,
686955,001,2022-11-21_01h47.35.819,Info_measure_main_exp,2022.2.2,Win32,59.40711697,,,,,,,,,,,,,,,,,,masks/mask_001.jpg,,,,,,,,,,,,,,,,,,,,,,,,,,,,,,,,,,,,,,,,,,,,,,,,0,0,0,0,1,,,,,,,,,,,,,,,,,,,,,,,,,,,,,,,,,,,,,,,,,
686955,001,2022-11-21_01h47.35.819,Info_measure_main_exp,2022.2.2,Win32,59.40711697,,,,,,,,,,,,,,,,,,masks/mask_002.jpg,,,,,,,,,,,,,,,,,,,,,,,,,,,,,,,,,,,,,,,,,,,,,,,,0,1,1,1,1,,,,,,,,,,,,,,,,,,,,,,,,,,,,,,,,,,,,,,,,,
686955,001,2022-11-21_01h47.35.819,Info_measure_main_exp,2022.2.2,Win32,59.40711697,,,,,,,,,,,,,,,,,,masks/mask_004.jpg,,,,,,,,,,,,,,,,,,,,,,,,,,,,,,,,,,,,,,,,,,,,,,,,0,2,2,3,1,,,,,,,,,,,,,,,,,,,,,,,,,,,,,,,,,,,,,,,,,
686955,001,2022-11-21_01h47.35.819,Info_measure_main_exp,2022.2.2,Win32,59.40711697,,,,,,,,,,,,,,,,,,masks/mask_005.jpg,,,,,,,,,,,,,,,,,,,,,,,,,,,,,,,,,,,,,,,,,,,,,,,,0,3,3,4,1,,,,,,,,,,,,,,,,,,,,,,,,,,,,,,,,,,,,,,,,,
686955,001,2022-11-21_01h47.35.819,Info_measure_main_exp,2022.2.2,Win32,59.40711697,,,,,,,,,,,,,,,,,,masks/mask_003.jpg,,,,,,,,,,,,,,,,,,,,,,,,,,,,,,,,,,,,,,,,,,,,,,,,0,4,4,2,1,,,,,,,,,,,,,,,,,,,,,,,,,,,,,,,,,,,,,,,,,
686955,001,2022-11-21_01h47.35.819,Info_measure_main_exp,2022.2.2,Win32,59.40711697,,,,,,,,,,,,,,,,,,,,,,,,,,,,,,3,2.4329,1,,,,,,,,,,,,0,131,5,5,1974,2178,absent_patch/patch0001974.jpg,absent_patch/patch0002178.jpg,,,,,,,,,,,,,,,,,,,,-0.075925898,-0.109259288,1,0,0,response5disk,10,0.003703718,0.011111118,1,0,0,center_square,0,9,9,44,1,,,,,,,,,,,,,,,,,,,,,,,
686955,001,2022-11-21_01h47.35.819,Info_measure_main_exp,2022.2.2,Win32,59.40711697,,,,,,,,,,,,,,,,,,masks/mask_005.jpg,,,,,,,,,,,,,,,,,,,,,,,,,,,,,,,,,,,,,,,,,,,0,0,0,4,1,,,,,,,,,,,,,,,,,,,,,,,,,,,,,,,,,,,,,,,,,,,,,,
686955,001,2022-11-21_01h47.35.819,Info_measure_main_exp,2022.2.2,Win32,59.40711697,,,,,,,,,,,,,,,,,,masks/mask_001.jpg,,,,,,,,,,,,,,,,,,,,,,,,,,,,,,,,,,,,,,,,,,,0,1,1,0,1,,,,,,,,,,,,,,,,,,,,,,,,,,,,,,,,,,,,,,,,,,,,,,
686955,001,2022-11-21_01h47.35.819,Info_measure_main_exp,2022.2.2,Win32,59.40711697,,,,,,,,,,,,,,,,,,masks/mask_004.jpg,,,,,,,,,,,,,,,,,,,,,,,,,,,,,,,,,,,,,,,,,,,0,2,2,3,1,,,,,,,,,,,,,,,,,,,,,,,,,,,,,,,,,,,,,,,,,,,,,,
686955,001,2022-11-21_01h47.35.819,Info_measure_main_exp,2022.2.2,Win32,59.40711697,,,,,,,,,,,,,,,,,,masks/mask_002.jpg,,,,,,,,,,,,,,,,,,,,,,,,,,,,,,,,,,,,,,,,,,,0,3,3,1,1,,,,,,,,,,,,,,,,,,,,,,,,,,,,,,,,,,,,,,,,,,,,,,
686955,001,2022-11-21_01h47.35.819,Info_measure_main_exp,2022.2.2,Win32,59.40711697,,,,,,,,,,,,,,,,,,masks/mask_003.jpg,,,,,,,,,,,,,,,,,,,,,,,,,,,,,,,,,,,,,,,,,,,0,4,4,2,1,,,,,,,,,,,,,,,,,,,,,,,,,,,,,,,,,,,,,,,,,,,,,,
686955,001,2022-11-21_01h47.35.819,Info_measure_main_exp,2022.2.2,Win32,59.40711697,,,,,,,,,,,,,,,,,,masks/mask_004.jpg,,,,,,,,,,,,,,,,,,,,,,,,,,,,,,,,,,,,,,,,,,,,,,,,0,0,0,3,1,,,,,,,,,,,,,,,,,,,,,,,,,,,,,,,,,,,,,,,,,
686955,001,2022-11-21_01h47.35.819,Info_measure_main_exp,2022.2.2,Win32,59.40711697,,,,,,,,,,,,,,,,,,masks/mask_002.jpg,,,,,,,,,,,,,,,,,,,,,,,,,,,,,,,,,,,,,,,,,,,,,,,,0,1,1,1,1,,,,,,,,,,,,,,,,,,,,,,,,,,,,,,,,,,,,,,,,,
686955,001,2022-11-21_01h47.35.819,Info_measure_main_exp,2022.2.2,Win32,59.40711697,,,,,,,,,,,,,,,,,,masks/mask_003.jpg,,,,,,,,,,,,,,,,,,,,,,,,,,,,,,,,,,,,,,,,,,,,,,,,0,2,2,2,1,,,,,,,,,,,,,,,,,,,,,,,,,,,,,,,,,,,,,,,,,
686955,001,2022-11-21_01h47.35.819,Info_measure_main_exp,2022.2.2,Win32,59.40711697,,,,,,,,,,,,,,,,,,masks/mask_001.jpg,,,,,,,,,,,,,,,,,,,,,,,,,,,,,,,,,,,,,,,,,,,,,,,,0,3,3,0,1,,,,,,,,,,,,,,,,,,,,,,,,,,,,,,,,,,,,,,,,,
686955,001,2022-11-21_01h47.35.819,Info_measure_main_exp,2022.2.2,Win32,59.40711697,,,,,,,,,,,,,,,,,,masks/mask_005.jpg,,,,,,,,,,,,,,,,,,,,,,,,,,,,,,,,,,,,,,,,,,,,,,,,0,4,4,4,1,,,,,,,,,,,,,,,,,,,,,,,,,,,,,,,,,,,,,,,,,
686955,001,2022-11-21_01h47.35.819,Info_measure_main_exp,2022.2.2,Win32,59.40711697,,,,,,,,,,,,,,,,,,,,,,,,,,,,,,7,0.898,1,,,,,,,,,,,,0,131,5,5,2274,2214,absent_patch/patch0002274.jpg,absent_patch/patch0002214.jpg,,,,,,,,,,,,,,,,,,,,0.031481496,0.063888868,1,0,0,response1disk,11,0.006481524,0.01203703,1,0,0,center_square,0,10,10,11,1,,,,,,,,,,,,,,,,,,,,,,,
686955,001,2022-11-21_01h47.35.819,Info_measure_main_exp,2022.2.2,Win32,59.40711697,,,,,,,,,,,,,,,,,,masks/mask_002.jpg,,,,,,,,,,,,,,,,,,,,,,,,,,,,,,,,,,,,,,,,,,,0,0,0,1,1,,,,,,,,,,,,,,,,,,,,,,,,,,,,,,,,,,,,,,,,,,,,,,
686955,001,2022-11-21_01h47.35.819,Info_measure_main_exp,2022.2.2,Win32,59.40711697,,,,,,,,,,,,,,,,,,masks/mask_003.jpg,,,,,,,,,,,,,,,,,,,,,,,,,,,,,,,,,,,,,,,,,,,0,1,1,2,1,,,,,,,,,,,,,,,,,,,,,,,,,,,,,,,,,,,,,,,,,,,,,,
686955,001,2022-11-21_01h47.35.819,Info_measure_main_exp,2022.2.2,Win32,59.40711697,,,,,,,,,,,,,,,,,,masks/mask_005.jpg,,,,,,,,,,,,,,,,,,,,,,,,,,,,,,,,,,,,,,,,,,,0,2,2,4,1,,,,,,,,,,,,,,,,,,,,,,,,,,,,,,,,,,,,,,,,,,,,,,
686955,001,2022-11-21_01h47.35.819,Info_measure_main_exp,2022.2.2,Win32,59.40711697,,,,,,,,,,,,,,,,,,masks/mask_001.jpg,,,,,,,,,,,,,,,,,,,,,,,,,,,,,,,,,,,,,,,,,,,0,3,3,0,1,,,,,,,,,,,,,,,,,,,,,,,,,,,,,,,,,,,,,,,,,,,,,,
686955,001,2022-11-21_01h47.35.819,Info_measure_main_exp,2022.2.2,Win32,59.40711697,,,,,,,,,,,,,,,,,,masks/mask_004.jpg,,,,,,,,,,,,,,,,,,,,,,,,,,,,,,,,,,,,,,,,,,,0,4,4,3,1,,,,,,,,,,,,,,,,,,,,,,,,,,,,,,,,,,,,,,,,,,,,,,
686955,001,2022-11-21_01h47.35.819,Info_measure_main_exp,2022.2.2,Win32,59.40711697,,,,,,,,,,,,,,,,,,masks/mask_004.jpg,,,,,,,,,,,,,,,,,,,,,,,,,,,,,,,,,,,,,,,,,,,,,,,,0,0,0,3,1,,,,,,,,,,,,,,,,,,,,,,,,,,,,,,,,,,,,,,,,,
686955,001,2022-11-21_01h47.35.819,Info_measure_main_exp,2022.2.2,Win32,59.40711697,,,,,,,,,,,,,,,,,,masks/mask_001.jpg,,,,,,,,,,,,,,,,,,,,,,,,,,,,,,,,,,,,,,,,,,,,,,,,0,1,1,0,1,,,,,,,,,,,,,,,,,,,,,,,,,,,,,,,,,,,,,,,,,
686955,001,2022-11-21_01h47.35.819,Info_measure_main_exp,2022.2.2,Win32,59.40711697,,,,,,,,,,,,,,,,,,masks/mask_003.jpg,,,,,,,,,,,,,,,,,,,,,,,,,,,,,,,,,,,,,,,,,,,,,,,,0,2,2,2,1,,,,,,,,,,,,,,,,,,,,,,,,,,,,,,,,,,,,,,,,,
686955,001,2022-11-21_01h47.35.819,Info_measure_main_exp,2022.2.2,Win32,59.40711697,,,,,,,,,,,,,,,,,,masks/mask_002.jpg,,,,,,,,,,,,,,,,,,,,,,,,,,,,,,,,,,,,,,,,,,,,,,,,0,3,3,1,1,,,,,,,,,,,,,,,,,,,,,,,,,,,,,,,,,,,,,,,,,
686955,001,2022-11-21_01h47.35.819,Info_measure_main_exp,2022.2.2,Win32,59.40711697,,,,,,,,,,,,,,,,,,masks/mask_005.jpg,,,,,,,,,,,,,,,,,,,,,,,,,,,,,,,,,,,,,,,,,,,,,,,,0,4,4,4,1,,,,,,,,,,,,,,,,,,,,,,,,,,,,,,,,,,,,,,,,,
686955,001,2022-11-21_01h47.35.819,Info_measure_main_exp,2022.2.2,Win32,59.40711697,,,,,,,,,,,,,,,,,,,,,,,,,,,,,,6,2.6014,1,,,,,,,,,,,,0,131,5,5,2082,2178,absent_patch/patch0002082.jpg,absent_patch/patch0002178.jpg,,,,,,,,,,,,,,,,,,,,0.084259245,0.045370349,1,0,0,response1disk,12,0.000925912,0.002777771,1,0,0,center_square,0,11,11,2,1,,,,,,,,,,,,,,,,,,,,,,,
686955,001,2022-11-21_01h47.35.819,Info_measure_main_exp,2022.2.2,Win32,59.40711697,,,,,,,,,,,,,,,,,,masks/mask_001.jpg,,,,,,,,,,,,,,,,,,,,,,,,,,,,,,,,,,,,,,,,,,,0,0,0,0,1,,,,,,,,,,,,,,,,,,,,,,,,,,,,,,,,,,,,,,,,,,,,,,
686955,001,2022-11-21_01h47.35.819,Info_measure_main_exp,2022.2.2,Win32,59.40711697,,,,,,,,,,,,,,,,,,masks/mask_005.jpg,,,,,,,,,,,,,,,,,,,,,,,,,,,,,,,,,,,,,,,,,,,0,1,1,4,1,,,,,,,,,,,,,,,,,,,,,,,,,,,,,,,,,,,,,,,,,,,,,,
686955,001,2022-11-21_01h47.35.819,Info_measure_main_exp,2022.2.2,Win32,59.40711697,,,,,,,,,,,,,,,,,,masks/mask_002.jpg,,,,,,,,,,,,,,,,,,,,,,,,,,,,,,,,,,,,,,,,,,,0,2,2,1,1,,,,,,,,,,,,,,,,,,,,,,,,,,,,,,,,,,,,,,,,,,,,,,
686955,001,2022-11-21_01h47.35.819,Info_measure_main_exp,2022.2.2,Win32,59.40711697,,,,,,,,,,,,,,,,,,masks/mask_004.jpg,,,,,,,,,,,,,,,,,,,,,,,,,,,,,,,,,,,,,,,,,,,0,3,3,3,1,,,,,,,,,,,,,,,,,,,,,,,,,,,,,,,,,,,,,,,,,,,,,,
686955,001,2022-11-21_01h47.35.819,Info_measure_main_exp,2022.2.2,Win32,59.40711697,,,,,,,,,,,,,,,,,,masks/mask_003.jpg,,,,,,,,,,,,,,,,,,,,,,,,,,,,,,,,,,,,,,,,,,,0,4,4,2,1,,,,,,,,,,,,,,,,,,,,,,,,,,,,,,,,,,,,,,,,,,,,,,
686955,001,2022-11-21_01h47.35.819,Info_measure_main_exp,2022.2.2,Win32,59.40711697,,,,,,,,,,,,,,,,,,masks/mask_001.jpg,,,,,,,,,,,,,,,,,,,,,,,,,,,,,,,,,,,,,,,,,,,,,,,,0,0,0,0,1,,,,,,,,,,,,,,,,,,,,,,,,,,,,,,,,,,,,,,,,,
686955,001,2022-11-21_01h47.35.819,Info_measure_main_exp,2022.2.2,Win32,59.40711697,,,,,,,,,,,,,,,,,,masks/mask_003.jpg,,,,,,,,,,,,,,,,,,,,,,,,,,,,,,,,,,,,,,,,,,,,,,,,0,1,1,2,1,,,,,,,,,,,,,,,,,,,,,,,,,,,,,,,,,,,,,,,,,
686955,001,2022-11-21_01h47.35.819,Info_measure_main_exp,2022.2.2,Win32,59.40711697,,,,,,,,,,,,,,,,,,masks/mask_002.jpg,,,,,,,,,,,,,,,,,,,,,,,,,,,,,,,,,,,,,,,,,,,,,,,,0,2,2,1,1,,,,,,,,,,,,,,,,,,,,,,,,,,,,,,,,,,,,,,,,,
686955,001,2022-11-21_01h47.35.819,Info_measure_main_exp,2022.2.2,Win32,59.40711697,,,,,,,,,,,,,,,,,,masks/mask_004.jpg,,,,,,,,,,,,,,,,,,,,,,,,,,,,,,,,,,,,,,,,,,,,,,,,0,3,3,3,1,,,,,,,,,,,,,,,,,,,,,,,,,,,,,,,,,,,,,,,,,
686955,001,2022-11-21_01h47.35.819,Info_measure_main_exp,2022.2.2,Win32,59.40711697,,,,,,,,,,,,,,,,,,masks/mask_005.jpg,,,,,,,,,,,,,,,,,,,,,,,,,,,,,,,,,,,,,,,,,,,,,,,,0,4,4,4,1,,,,,,,,,,,,,,,,,,,,,,,,,,,,,,,,,,,,,,,,,
686955,001,2022-11-21_01h47.35.819,Info_measure_main_exp,2022.2.2,Win32,59.40711697,,,,,,,,,,,,,,,,,,,,,,,,,,,,,,0,1.1667,1,,,,,,,,,,,,0,131,5,5,2154,2154,absent_patch/patch0002154.jpg,absent_patch/patch0002154.jpg,,,,,,,,,,,,,,,,,,,,-0.022222236,0.068518497,1,0,0,response7disk,13,0.000925912,0.009259259,1,0,0,center_square,0,12,12,89,1,,,,,,,,,,,,,,,,,,,,,,,
686955,001,2022-11-21_01h47.35.819,Info_measure_main_exp,2022.2.2,Win32,59.40711697,,,,,,,,,,,,,,,,,,masks/mask_002.jpg,,,,,,,,,,,,,,,,,,,,,,,,,,,,,,,,,,,,,,,,,,,0,0,0,1,1,,,,,,,,,,,,,,,,,,,,,,,,,,,,,,,,,,,,,,,,,,,,,,
686955,001,2022-11-21_01h47.35.819,Info_measure_main_exp,2022.2.2,Win32,59.40711697,,,,,,,,,,,,,,,,,,masks/mask_005.jpg,,,,,,,,,,,,,,,,,,,,,,,,,,,,,,,,,,,,,,,,,,,0,1,1,4,1,,,,,,,,,,,,,,,,,,,,,,,,,,,,,,,,,,,,,,,,,,,,,,
686955,001,2022-11-21_01h47.35.819,Info_measure_main_exp,2022.2.2,Win32,59.40711697,,,,,,,,,,,,,,,,,,masks/mask_003.jpg,,,,,,,,,,,,,,,,,,,,,,,,,,,,,,,,,,,,,,,,,,,0,2,2,2,1,,,,,,,,,,,,,,,,,,,,,,,,,,,,,,,,,,,,,,,,,,,,,,
686955,001,2022-11-21_01h47.35.819,Info_measure_main_exp,2022.2.2,Win32,59.40711697,,,,,,,,,,,,,,,,,,masks/mask_004.jpg,,,,,,,,,,,,,,,,,,,,,,,,,,,,,,,,,,,,,,,,,,,0,3,3,3,1,,,,,,,,,,,,,,,,,,,,,,,,,,,,,,,,,,,,,,,,,,,,,,
686955,001,2022-11-21_01h47.35.819,Info_measure_main_exp,2022.2.2,Win32,59.40711697,,,,,,,,,,,,,,,,,,masks/mask_001.jpg,,,,,,,,,,,,,,,,,,,,,,,,,,,,,,,,,,,,,,,,,,,0,4,4,0,1,,,,,,,,,,,,,,,,,,,,,,,,,,,,,,,,,,,,,,,,,,,,,,
686955,001,2022-11-21_01h47.35.819,Info_measure_main_exp,2022.2.2,Win32,59.40711697,,,,,,,,,,,,,,,,,,masks/mask_001.jpg,,,,,,,,,,,,,,,,,,,,,,,,,,,,,,,,,,,,,,,,,,,,,,,,0,0,0,0,1,,,,,,,,,,,,,,,,,,,,,,,,,,,,,,,,,,,,,,,,,
686955,001,2022-11-21_01h47.35.819,Info_measure_main_exp,2022.2.2,Win32,59.40711697,,,,,,,,,,,,,,,,,,masks/mask_004.jpg,,,,,,,,,,,,,,,,,,,,,,,,,,,,,,,,,,,,,,,,,,,,,,,,0,1,1,3,1,,,,,,,,,,,,,,,,,,,,,,,,,,,,,,,,,,,,,,,,,
686955,001,2022-11-21_01h47.35.819,Info_measure_main_exp,2022.2.2,Win32,59.40711697,,,,,,,,,,,,,,,,,,masks/mask_003.jpg,,,,,,,,,,,,,,,,,,,,,,,,,,,,,,,,,,,,,,,,,,,,,,,,0,2,2,2,1,,,,,,,,,,,,,,,,,,,,,,,,,,,,,,,,,,,,,,,,,
686955,001,2022-11-21_01h47.35.819,Info_measure_main_exp,2022.2.2,Win32,59.40711697,,,,,,,,,,,,,,,,,,masks/mask_005.jpg,,,,,,,,,,,,,,,,,,,,,,,,,,,,,,,,,,,,,,,,,,,,,,,,0,3,3,4,1,,,,,,,,,,,,,,,,,,,,,,,,,,,,,,,,,,,,,,,,,
686955,001,2022-11-21_01h47.35.819,Info_measure_main_exp,2022.2.2,Win32,59.40711697,,,,,,,,,,,,,,,,,,masks/mask_002.jpg,,,,,,,,,,,,,,,,,,,,,,,,,,,,,,,,,,,,,,,,,,,,,,,,0,4,4,1,1,,,,,,,,,,,,,,,,,,,,,,,,,,,,,,,,,,,,,,,,,
686955,001,2022-11-21_01h47.35.819,Info_measure_main_exp,2022.2.2,Win32,59.40711697,,,,,,,,,,,,,,,,,,,,,,,,,,,,,,0,1.0663,1,,,,,,,,,,,,0,131,5,5,2274,2274,absent_patch/patch0002274.jpg,absent_patch/patch0002274.jpg,,,,,,,,,,,,,,,,,,,,-0.065740727,0.163888896,1,0,0,response7disk,14,0.00462963,0.012962942,1,0,0,center_square,0,13,13,114,1,,,,,,,,,,,,,,,,,,,,,,,
686955,001,2022-11-21_01h47.35.819,Info_measure_main_exp,2022.2.2,Win32,59.40711697,,,,,,,,,,,,,,,,,,masks/mask_001.jpg,,,,,,,,,,,,,,,,,,,,,,,,,,,,,,,,,,,,,,,,,,,0,0,0,0,1,,,,,,,,,,,,,,,,,,,,,,,,,,,,,,,,,,,,,,,,,,,,,,
686955,001,2022-11-21_01h47.35.819,Info_measure_main_exp,2022.2.2,Win32,59.40711697,,,,,,,,,,,,,,,,,,masks/mask_003.jpg,,,,,,,,,,,,,,,,,,,,,,,,,,,,,,,,,,,,,,,,,,,0,1,1,2,1,,,,,,,,,,,,,,,,,,,,,,,,,,,,,,,,,,,,,,,,,,,,,,
686955,001,2022-11-21_01h47.35.819,Info_measure_main_exp,2022.2.2,Win32,59.40711697,,,,,,,,,,,,,,,,,,masks/mask_002.jpg,,,,,,,,,,,,,,,,,,,,,,,,,,,,,,,,,,,,,,,,,,,0,2,2,1,1,,,,,,,,,,,,,,,,,,,,,,,,,,,,,,,,,,,,,,,,,,,,,,
686955,001,2022-11-21_01h47.35.819,Info_measure_main_exp,2022.2.2,Win32,59.40711697,,,,,,,,,,,,,,,,,,masks/mask_004.jpg,,,,,,,,,,,,,,,,,,,,,,,,,,,,,,,,,,,,,,,,,,,0,3,3,3,1,,,,,,,,,,,,,,,,,,,,,,,,,,,,,,,,,,,,,,,,,,,,,,
686955,001,2022-11-21_01h47.35.819,Info_measure_main_exp,2022.2.2,Win32,59.40711697,,,,,,,,,,,,,,,,,,masks/mask_005.jpg,,,,,,,,,,,,,,,,,,,,,,,,,,,,,,,,,,,,,,,,,,,0,4,4,4,1,,,,,,,,,,,,,,,,,,,,,,,,,,,,,,,,,,,,,,,,,,,,,,
686955,001,2022-11-21_01h47.35.819,Info_measure_main_exp,2022.2.2,Win32,59.40711697,,,,,,,,,,,,,,,,,,masks/mask_005.jpg,,,,,,,,,,,,,,,,,,,,,,,,,,,,,,,,,,,,,,,,,,,,,,,,0,0,0,4,1,,,,,,,,,,,,,,,,,,,,,,,,,,,,,,,,,,,,,,,,,
686955,001,2022-11-21_01h47.35.819,Info_measure_main_exp,2022.2.2,Win32,59.40711697,,,,,,,,,,,,,,,,,,masks/mask_002.jpg,,,,,,,,,,,,,,,,,,,,,,,,,,,,,,,,,,,,,,,,,,,,,,,,0,1,1,1,1,,,,,,,,,,,,,,,,,,,,,,,,,,,,,,,,,,,,,,,,,
686955,001,2022-11-21_01h47.35.819,Info_measure_main_exp,2022.2.2,Win32,59.40711697,,,,,,,,,,,,,,,,,,masks/mask_004.jpg,,,,,,,,,,,,,,,,,,,,,,,,,,,,,,,,,,,,,,,,,,,,,,,,0,2,2,3,1,,,,,,,,,,,,,,,,,,,,,,,,,,,,,,,,,,,,,,,,,
686955,001,2022-11-21_01h47.35.819,Info_measure_main_exp,2022.2.2,Win32,59.40711697,,,,,,,,,,,,,,,,,,masks/mask_001.jpg,,,,,,,,,,,,,,,,,,,,,,,,,,,,,,,,,,,,,,,,,,,,,,,,0,3,3,0,1,,,,,,,,,,,,,,,,,,,,,,,,,,,,,,,,,,,,,,,,,
686955,001,2022-11-21_01h47.35.819,Info_measure_main_exp,2022.2.2,Win32,59.40711697,,,,,,,,,,,,,,,,,,masks/mask_003.jpg,,,,,,,,,,,,,,,,,,,,,,,,,,,,,,,,,,,,,,,,,,,,,,,,0,4,4,2,1,,,,,,,,,,,,,,,,,,,,,,,,,,,,,,,,,,,,,,,,,
686955,001,2022-11-21_01h47.35.819,Info_measure_main_exp,2022.2.2,Win32,59.40711697,,,,,,,,,,,,,,,,,,,,,,,,,,,,,,2,2.2661,1,,,,,,,,,,,,1,131,5,5,1,2166,present_patch/cong_131_5_a.jpg,absent_patch/patch0002166.jpg,,,,,,,,,,,,,,,,,,,,-0.099074046,-0.065740762,1,0,0,response5disk,15,0,0.002777771,1,0,0,center_square,0,14,14,54,1,,,,,,,,,,,,,,,,,,,,,,,
686955,001,2022-11-21_01h47.35.819,Info_measure_main_exp,2022.2.2,Win32,59.40711697,,,,,,,,,,,,,,,,,,masks/mask_001.jpg,,,,,,,,,,,,,,,,,,,,,,,,,,,,,,,,,,,,,,,,,,,0,0,0,0,1,,,,,,,,,,,,,,,,,,,,,,,,,,,,,,,,,,,,,,,,,,,,,,
686955,001,2022-11-21_01h47.35.819,Info_measure_main_exp,2022.2.2,Win32,59.40711697,,,,,,,,,,,,,,,,,,masks/mask_005.jpg,,,,,,,,,,,,,,,,,,,,,,,,,,,,,,,,,,,,,,,,,,,0,1,1,4,1,,,,,,,,,,,,,,,,,,,,,,,,,,,,,,,,,,,,,,,,,,,,,,
686955,001,2022-11-21_01h47.35.819,Info_measure_main_exp,2022.2.2,Win32,59.40711697,,,,,,,,,,,,,,,,,,masks/mask_002.jpg,,,,,,,,,,,,,,,,,,,,,,,,,,,,,,,,,,,,,,,,,,,0,2,2,1,1,,,,,,,,,,,,,,,,,,,,,,,,,,,,,,,,,,,,,,,,,,,,,,
686955,001,2022-11-21_01h47.35.819,Info_measure_main_exp,2022.2.2,Win32,59.40711697,,,,,,,,,,,,,,,,,,masks/mask_003.jpg,,,,,,,,,,,,,,,,,,,,,,,,,,,,,,,,,,,,,,,,,,,0,3,3,2,1,,,,,,,,,,,,,,,,,,,,,,,,,,,,,,,,,,,,,,,,,,,,,,
686955,001,2022-11-21_01h47.35.819,Info_measure_main_exp,2022.2.2,Win32,59.40711697,,,,,,,,,,,,,,,,,,masks/mask_004.jpg,,,,,,,,,,,,,,,,,,,,,,,,,,,,,,,,,,,,,,,,,,,0,4,4,3,1,,,,,,,,,,,,,,,,,,,,,,,,,,,,,,,,,,,,,,,,,,,,,,
686955,001,2022-11-21_01h47.35.819,Info_measure_main_exp,2022.2.2,Win32,59.40711697,,,,,,,,,,,,,,,,,,masks/mask_002.jpg,,,,,,,,,,,,,,,,,,,,,,,,,,,,,,,,,,,,,,,,,,,,,,,,0,0,0,1,1,,,,,,,,,,,,,,,,,,,,,,,,,,,,,,,,,,,,,,,,,
686955,001,2022-11-21_01h47.35.819,Info_measure_main_exp,2022.2.2,Win32,59.40711697,,,,,,,,,,,,,,,,,,masks/mask_005.jpg,,,,,,,,,,,,,,,,,,,,,,,,,,,,,,,,,,,,,,,,,,,,,,,,0,1,1,4,1,,,,,,,,,,,,,,,,,,,,,,,,,,,,,,,,,,,,,,,,,
686955,001,2022-11-21_01h47.35.819,Info_measure_main_exp,2022.2.2,Win32,59.40711697,,,,,,,,,,,,,,,,,,masks/mask_003.jpg,,,,,,,,,,,,,,,,,,,,,,,,,,,,,,,,,,,,,,,,,,,,,,,,0,2,2,2,1,,,,,,,,,,,,,,,,,,,,,,,,,,,,,,,,,,,,,,,,,
686955,001,2022-11-21_01h47.35.819,Info_measure_main_exp,2022.2.2,Win32,59.40711697,,,,,,,,,,,,,,,,,,masks/mask_004.jpg,,,,,,,,,,,,,,,,,,,,,,,,,,,,,,,,,,,,,,,,,,,,,,,,0,3,3,3,1,,,,,,,,,,,,,,,,,,,,,,,,,,,,,,,,,,,,,,,,,
686955,001,2022-11-21_01h47.35.819,Info_measure_main_exp,2022.2.2,Win32,59.40711697,,,,,,,,,,,,,,,,,,masks/mask_001.jpg,,,,,,,,,,,,,,,,,,,,,,,,,,,,,,,,,,,,,,,,,,,,,,,,0,4,4,0,1,,,,,,,,,,,,,,,,,,,,,,,,,,,,,,,,,,,,,,,,,
686955,001,2022-11-21_01h47.35.819,Info_measure_main_exp,2022.2.2,Win32,59.40711697,,,,,,,,,,,,,,,,,,,,,,,,,,,,,,6,2.0192,1,,,,,,,,,,,,0,131,5,5,2178,2142,absent_patch/patch0002178.jpg,absent_patch/patch0002142.jpg,,,,,,,,,,,,,,,,,,,,0.122222265,0.014814801,1,0,0,response1disk,16,-0.005555541,-0.01203703,1,0,0,center_square,0,15,15,41,1,,,,,,,,,,,,,,,,,,,,,,,
686955,001,2022-11-21_01h47.35.819,Info_measure_main_exp,2022.2.2,Win32,59.40711697,,,,,,,,,,,,,,,,,,masks/mask_004.jpg,,,,,,,,,,,,,,,,,,,,,,,,,,,,,,,,,,,,,,,,,,,0,0,0,3,1,,,,,,,,,,,,,,,,,,,,,,,,,,,,,,,,,,,,,,,,,,,,,,
686955,001,2022-11-21_01h47.35.819,Info_measure_main_exp,2022.2.2,Win32,59.40711697,,,,,,,,,,,,,,,,,,masks/mask_002.jpg,,,,,,,,,,,,,,,,,,,,,,,,,,,,,,,,,,,,,,,,,,,0,1,1,1,1,,,,,,,,,,,,,,,,,,,,,,,,,,,,,,,,,,,,,,,,,,,,,,
686955,001,2022-11-21_01h47.35.819,Info_measure_main_exp,2022.2.2,Win32,59.40711697,,,,,,,,,,,,,,,,,,masks/mask_005.jpg,,,,,,,,,,,,,,,,,,,,,,,,,,,,,,,,,,,,,,,,,,,0,2,2,4,1,,,,,,,,,,,,,,,,,,,,,,,,,,,,,,,,,,,,,,,,,,,,,,
686955,001,2022-11-21_01h47.35.819,Info_measure_main_exp,2022.2.2,Win32,59.40711697,,,,,,,,,,,,,,,,,,masks/mask_003.jpg,,,,,,,,,,,,,,,,,,,,,,,,,,,,,,,,,,,,,,,,,,,0,3,3,2,1,,,,,,,,,,,,,,,,,,,,,,,,,,,,,,,,,,,,,,,,,,,,,,
686955,001,2022-11-21_01h47.35.819,Info_measure_main_exp,2022.2.2,Win32,59.40711697,,,,,,,,,,,,,,,,,,masks/mask_001.jpg,,,,,,,,,,,,,,,,,,,,,,,,,,,,,,,,,,,,,,,,,,,0,4,4,0,1,,,,,,,,,,,,,,,,,,,,,,,,,,,,,,,,,,,,,,,,,,,,,,
686955,001,2022-11-21_01h47.35.819,Info_measure_main_exp,2022.2.2,Win32,59.40711697,,,,,,,,,,,,,,,,,,masks/mask_003.jpg,,,,,,,,,,,,,,,,,,,,,,,,,,,,,,,,,,,,,,,,,,,,,,,,0,0,0,2,1,,,,,,,,,,,,,,,,,,,,,,,,,,,,,,,,,,,,,,,,,
686955,001,2022-11-21_01h47.35.819,Info_measure_main_exp,2022.2.2,Win32,59.40711697,,,,,,,,,,,,,,,,,,masks/mask_005.jpg,,,,,,,,,,,,,,,,,,,,,,,,,,,,,,,,,,,,,,,,,,,,,,,,0,1,1,4,1,,,,,,,,,,,,,,,,,,,,,,,,,,,,,,,,,,,,,,,,,
686955,001,2022-11-21_01h47.35.819,Info_measure_main_exp,2022.2.2,Win32,59.40711697,,,,,,,,,,,,,,,,,,masks/mask_001.jpg,,,,,,,,,,,,,,,,,,,,,,,,,,,,,,,,,,,,,,,,,,,,,,,,0,2,2,0,1,,,,,,,,,,,,,,,,,,,,,,,,,,,,,,,,,,,,,,,,,
686955,001,2022-11-21_01h47.35.819,Info_measure_main_exp,2022.2.2,Win32,59.40711697,,,,,,,,,,,,,,,,,,masks/mask_004.jpg,,,,,,,,,,,,,,,,,,,,,,,,,,,,,,,,,,,,,,,,,,,,,,,,0,3,3,3,1,,,,,,,,,,,,,,,,,,,,,,,,,,,,,,,,,,,,,,,,,
686955,001,2022-11-21_01h47.35.819,Info_measure_main_exp,2022.2.2,Win32,59.40711697,,,,,,,,,,,,,,,,,,masks/mask_002.jpg,,,,,,,,,,,,,,,,,,,,,,,,,,,,,,,,,,,,,,,,,,,,,,,,0,4,4,1,1,,,,,,,,,,,,,,,,,,,,,,,,,,,,,,,,,,,,,,,,,
686955,001,2022-11-21_01h47.35.819,Info_measure_main_exp,2022.2.2,Win32,59.40711697,,,,,,,,,,,,,,,,,,,,,,,,,,,,,,7,1.7243,1,,,,,,,,,,,,1,131,5,5,1,1974,present_patch/cong_131_5_a.jpg,absent_patch/patch0001974.jpg,,,,,,,,,,,,,,,,,,,,0.044444473,0.116666653,1,0,0,response1disk,17,0.000925912,-0.001851859,1,0,0,center_square,0,16,16,69,1,,,,,,,,,,,,,,,,,,,,,,,
686955,001,2022-11-21_01h47.35.819,Info_measure_main_exp,2022.2.2,Win32,59.40711697,,,,,,,,,,,,,,,,,,masks/mask_003.jpg,,,,,,,,,,,,,,,,,,,,,,,,,,,,,,,,,,,,,,,,,,,0,0,0,2,1,,,,,,,,,,,,,,,,,,,,,,,,,,,,,,,,,,,,,,,,,,,,,,
686955,001,2022-11-21_01h47.35.819,Info_measure_main_exp,2022.2.2,Win32,59.40711697,,,,,,,,,,,,,,,,,,masks/mask_002.jpg,,,,,,,,,,,,,,,,,,,,,,,,,,,,,,,,,,,,,,,,,,,0,1,1,1,1,,,,,,,,,,,,,,,,,,,,,,,,,,,,,,,,,,,,,,,,,,,,,,
686955,001,2022-11-21_01h47.35.819,Info_measure_main_exp,2022.2.2,Win32,59.40711697,,,,,,,,,,,,,,,,,,masks/mask_001.jpg,,,,,,,,,,,,,,,,,,,,,,,,,,,,,,,,,,,,,,,,,,,0,2,2,0,1,,,,,,,,,,,,,,,,,,,,,,,,,,,,,,,,,,,,,,,,,,,,,,
686955,001,2022-11-21_01h47.35.819,Info_measure_main_exp,2022.2.2,Win32,59.40711697,,,,,,,,,,,,,,,,,,masks/mask_005.jpg,,,,,,,,,,,,,,,,,,,,,,,,,,,,,,,,,,,,,,,,,,,0,3,3,4,1,,,,,,,,,,,,,,,,,,,,,,,,,,,,,,,,,,,,,,,,,,,,,,
686955,001,2022-11-21_01h47.35.819,Info_measure_main_exp,2022.2.2,Win32,59.40711697,,,,,,,,,,,,,,,,,,masks/mask_004.jpg,,,,,,,,,,,,,,,,,,,,,,,,,,,,,,,,,,,,,,,,,,,0,4,4,3,1,,,,,,,,,,,,,,,,,,,,,,,,,,,,,,,,,,,,,,,,,,,,,,
686955,001,2022-11-21_01h47.35.819,Info_measure_main_exp,2022.2.2,Win32,59.40711697,,,,,,,,,,,,,,,,,,masks/mask_002.jpg,,,,,,,,,,,,,,,,,,,,,,,,,,,,,,,,,,,,,,,,,,,,,,,,0,0,0,1,1,,,,,,,,,,,,,,,,,,,,,,,,,,,,,,,,,,,,,,,,,
686955,001,2022-11-21_01h47.35.819,Info_measure_main_exp,2022.2.2,Win32,59.40711697,,,,,,,,,,,,,,,,,,masks/mask_001.jpg,,,,,,,,,,,,,,,,,,,,,,,,,,,,,,,,,,,,,,,,,,,,,,,,0,1,1,0,1,,,,,,,,,,,,,,,,,,,,,,,,,,,,,,,,,,,,,,,,,
686955,001,2022-11-21_01h47.35.819,Info_measure_main_exp,2022.2.2,Win32,59.40711697,,,,,,,,,,,,,,,,,,masks/mask_003.jpg,,,,,,,,,,,,,,,,,,,,,,,,,,,,,,,,,,,,,,,,,,,,,,,,0,2,2,2,1,,,,,,,,,,,,,,,,,,,,,,,,,,,,,,,,,,,,,,,,,
686955,001,2022-11-21_01h47.35.819,Info_measure_main_exp,2022.2.2,Win32,59.40711697,,,,,,,,,,,,,,,,,,masks/mask_004.jpg,,,,,,,,,,,,,,,,,,,,,,,,,,,,,,,,,,,,,,,,,,,,,,,,0,3,3,3,1,,,,,,,,,,,,,,,,,,,,,,,,,,,,,,,,,,,,,,,,,
686955,001,2022-11-21_01h47.35.819,Info_measure_main_exp,2022.2.2,Win32,59.40711697,,,,,,,,,,,,,,,,,,masks/mask_005.jpg,,,,,,,,,,,,,,,,,,,,,,,,,,,,,,,,,,,,,,,,,,,,,,,,0,4,4,4,1,,,,,,,,,,,,,,,,,,,,,,,,,,,,,,,,,,,,,,,,,
686955,001,2022-11-21_01h47.35.819,Info_measure_main_exp,2022.2.2,Win32,59.40711697,,,,,,,,,,,,,,,,,,,,,,,,,,,,,,7,1.1993,1,,,,,,,,,,,,0,131,5,5,2178,1986,absent_patch/patch0002178.jpg,absent_patch/patch0001986.jpg,,,,,,,,,,,,,,,,,,,,0.027777778,0.071296303,1,0,0,response1disk,18,0.00462963,-0.00462963,1,0,0,center_square,0,17,17,46,1,,,,,,,,,,,,,,,,,,,,,,,
686955,001,2022-11-21_01h47.35.819,Info_measure_main_exp,2022.2.2,Win32,59.40711697,,,,,,,,,,,,,,,,,,masks/mask_004.jpg,,,,,,,,,,,,,,,,,,,,,,,,,,,,,,,,,,,,,,,,,,,0,0,0,3,1,,,,,,,,,,,,,,,,,,,,,,,,,,,,,,,,,,,,,,,,,,,,,,
686955,001,2022-11-21_01h47.35.819,Info_measure_main_exp,2022.2.2,Win32,59.40711697,,,,,,,,,,,,,,,,,,masks/mask_001.jpg,,,,,,,,,,,,,,,,,,,,,,,,,,,,,,,,,,,,,,,,,,,0,1,1,0,1,,,,,,,,,,,,,,,,,,,,,,,,,,,,,,,,,,,,,,,,,,,,,,
686955,001,2022-11-21_01h47.35.819,Info_measure_main_exp,2022.2.2,Win32,59.40711697,,,,,,,,,,,,,,,,,,masks/mask_005.jpg,,,,,,,,,,,,,,,,,,,,,,,,,,,,,,,,,,,,,,,,,,,0,2,2,4,1,,,,,,,,,,,,,,,,,,,,,,,,,,,,,,,,,,,,,,,,,,,,,,
686955,001,2022-11-21_01h47.35.819,Info_measure_main_exp,2022.2.2,Win32,59.40711697,,,,,,,,,,,,,,,,,,masks/mask_003.jpg,,,,,,,,,,,,,,,,,,,,,,,,,,,,,,,,,,,,,,,,,,,0,3,3,2,1,,,,,,,,,,,,,,,,,,,,,,,,,,,,,,,,,,,,,,,,,,,,,,
686955,001,2022-11-21_01h47.35.819,Info_measure_main_exp,2022.2.2,Win32,59.40711697,,,,,,,,,,,,,,,,,,masks/mask_002.jpg,,,,,,,,,,,,,,,,,,,,,,,,,,,,,,,,,,,,,,,,,,,0,4,4,1,1,,,,,,,,,,,,,,,,,,,,,,,,,,,,,,,,,,,,,,,,,,,,,,
686955,001,2022-11-21_01h47.35.819,Info_measure_main_exp,2022.2.2,Win32,59.40711697,,,,,,,,,,,,,,,,,,masks/mask_001.jpg,,,,,,,,,,,,,,,,,,,,,,,,,,,,,,,,,,,,,,,,,,,,,,,,0,0,0,0,1,,,,,,,,,,,,,,,,,,,,,,,,,,,,,,,,,,,,,,,,,
686955,001,2022-11-21_01h47.35.819,Info_measure_main_exp,2022.2.2,Win32,59.40711697,,,,,,,,,,,,,,,,,,masks/mask_005.jpg,,,,,,,,,,,,,,,,,,,,,,,,,,,,,,,,,,,,,,,,,,,,,,,,0,1,1,4,1,,,,,,,,,,,,,,,,,,,,,,,,,,,,,,,,,,,,,,,,,
686955,001,2022-11-21_01h47.35.819,Info_measure_main_exp,2022.2.2,Win32,59.40711697,,,,,,,,,,,,,,,,,,masks/mask_004.jpg,,,,,,,,,,,,,,,,,,,,,,,,,,,,,,,,,,,,,,,,,,,,,,,,0,2,2,3,1,,,,,,,,,,,,,,,,,,,,,,,,,,,,,,,,,,,,,,,,,
686955,001,2022-11-21_01h47.35.819,Info_measure_main_exp,2022.2.2,Win32,59.40711697,,,,,,,,,,,,,,,,,,masks/mask_002.jpg,,,,,,,,,,,,,,,,,,,,,,,,,,,,,,,,,,,,,,,,,,,,,,,,0,3,3,1,1,,,,,,,,,,,,,,,,,,,,,,,,,,,,,,,,,,,,,,,,,
686955,001,2022-11-21_01h47.35.819,Info_measure_main_exp,2022.2.2,Win32,59.40711697,,,,,,,,,,,,,,,,,,masks/mask_003.jpg,,,,,,,,,,,,,,,,,,,,,,,,,,,,,,,,,,,,,,,,,,,,,,,,0,4,4,2,1,,,,,,,,,,,,,,,,,,,,,,,,,,,,,,,,,,,,,,,,,
686955,001,2022-11-21_01h47.35.819,Info_measure_main_exp,2022.2.2,Win32,59.40711697,,,,,,,,,,,,,,,,,,,,,,,,,,,,,,6,1.5665,1,,,,,,,,,,,,0,131,5,5,2178,2166,absent_patch/patch0002178.jpg,absent_patch/patch0002166.jpg,,,,,,,,,,,,,,,,,,,,0.127777806,0.075925933,1,0,0,response1disk,19,-0.006481453,-0.00462963,1,0,0,center_square,0,18,18,72,1,,,,,,,,,,,,,,,,,,,,,,,
686955,001,2022-11-21_01h47.35.819,Info_measure_main_exp,2022.2.2,Win32,59.40711697,,,,,,,,,,,,,,,,,,masks/mask_005.jpg,,,,,,,,,,,,,,,,,,,,,,,,,,,,,,,,,,,,,,,,,,,0,0,0,4,1,,,,,,,,,,,,,,,,,,,,,,,,,,,,,,,,,,,,,,,,,,,,,,
686955,001,2022-11-21_01h47.35.819,Info_measure_main_exp,2022.2.2,Win32,59.40711697,,,,,,,,,,,,,,,,,,masks/mask_004.jpg,,,,,,,,,,,,,,,,,,,,,,,,,,,,,,,,,,,,,,,,,,,0,1,1,3,1,,,,,,,,,,,,,,,,,,,,,,,,,,,,,,,,,,,,,,,,,,,,,,
686955,001,2022-11-21_01h47.35.819,Info_measure_main_exp,2022.2.2,Win32,59.40711697,,,,,,,,,,,,,,,,,,masks/mask_003.jpg,,,,,,,,,,,,,,,,,,,,,,,,,,,,,,,,,,,,,,,,,,,0,2,2,2,1,,,,,,,,,,,,,,,,,,,,,,,,,,,,,,,,,,,,,,,,,,,,,,
686955,001,2022-11-21_01h47.35.819,Info_measure_main_exp,2022.2.2,Win32,59.40711697,,,,,,,,,,,,,,,,,,masks/mask_001.jpg,,,,,,,,,,,,,,,,,,,,,,,,,,,,,,,,,,,,,,,,,,,0,3,3,0,1,,,,,,,,,,,,,,,,,,,,,,,,,,,,,,,,,,,,,,,,,,,,,,
686955,001,2022-11-21_01h47.35.819,Info_measure_main_exp,2022.2.2,Win32,59.40711697,,,,,,,,,,,,,,,,,,masks/mask_002.jpg,,,,,,,,,,,,,,,,,,,,,,,,,,,,,,,,,,,,,,,,,,,0,4,4,1,1,,,,,,,,,,,,,,,,,,,,,,,,,,,,,,,,,,,,,,,,,,,,,,
686955,001,2022-11-21_01h47.35.819,Info_measure_main_exp,2022.2.2,Win32,59.40711697,,,,,,,,,,,,,,,,,,masks/mask_003.jpg,,,,,,,,,,,,,,,,,,,,,,,,,,,,,,,,,,,,,,,,,,,,,,,,0,0,0,2,1,,,,,,,,,,,,,,,,,,,,,,,,,,,,,,,,,,,,,,,,,
686955,001,2022-11-21_01h47.35.819,Info_measure_main_exp,2022.2.2,Win32,59.40711697,,,,,,,,,,,,,,,,,,masks/mask_005.jpg,,,,,,,,,,,,,,,,,,,,,,,,,,,,,,,,,,,,,,,,,,,,,,,,0,1,1,4,1,,,,,,,,,,,,,,,,,,,,,,,,,,,,,,,,,,,,,,,,,
686955,001,2022-11-21_01h47.35.819,Info_measure_main_exp,2022.2.2,Win32,59.40711697,,,,,,,,,,,,,,,,,,masks/mask_001.jpg,,,,,,,,,,,,,,,,,,,,,,,,,,,,,,,,,,,,,,,,,,,,,,,,0,2,2,0,1,,,,,,,,,,,,,,,,,,,,,,,,,,,,,,,,,,,,,,,,,
686955,001,2022-11-21_01h47.35.819,Info_measure_main_exp,2022.2.2,Win32,59.40711697,,,,,,,,,,,,,,,,,,masks/mask_004.jpg,,,,,,,,,,,,,,,,,,,,,,,,,,,,,,,,,,,,,,,,,,,,,,,,0,3,3,3,1,,,,,,,,,,,,,,,,,,,,,,,,,,,,,,,,,,,,,,,,,
686955,001,2022-11-21_01h47.35.819,Info_measure_main_exp,2022.2.2,Win32,59.40711697,,,,,,,,,,,,,,,,,,masks/mask_002.jpg,,,,,,,,,,,,,,,,,,,,,,,,,,,,,,,,,,,,,,,,,,,,,,,,0,4,4,1,1,,,,,,,,,,,,,,,,,,,,,,,,,,,,,,,,,,,,,,,,,
686955,001,2022-11-21_01h47.35.819,Info_measure_main_exp,2022.2.2,Win32,59.40711697,,,,,,,,,,,,,,,,,,,,,,,,,,,,,,7,0.9007,1,,,,,,,,,,,,0,131,5,5,2250,1986,absent_patch/patch0002250.jpg,absent_patch/patch0001986.jpg,,,,,,,,,,,,,,,,,,,,0.022222236,0.087962963,1,0,0,response1disk,20,0.00462963,-0.0074074,1,0,0,center_square,0,19,19,29,1,,,,,,,,,,,,,,,,,,,,,,,
686955,001,2022-11-21_01h47.35.819,Info_measure_main_exp,2022.2.2,Win32,59.40711697,,,,,,,,,,,,,,,,,,masks/mask_001.jpg,,,,,,,,,,,,,,,,,,,,,,,,,,,,,,,,,,,,,,,,,,,0,0,0,0,1,,,,,,,,,,,,,,,,,,,,,,,,,,,,,,,,,,,,,,,,,,,,,,
686955,001,2022-11-21_01h47.35.819,Info_measure_main_exp,2022.2.2,Win32,59.40711697,,,,,,,,,,,,,,,,,,masks/mask_004.jpg,,,,,,,,,,,,,,,,,,,,,,,,,,,,,,,,,,,,,,,,,,,0,1,1,3,1,,,,,,,,,,,,,,,,,,,,,,,,,,,,,,,,,,,,,,,,,,,,,,
686955,001,2022-11-21_01h47.35.819,Info_measure_main_exp,2022.2.2,Win32,59.40711697,,,,,,,,,,,,,,,,,,masks/mask_003.jpg,,,,,,,,,,,,,,,,,,,,,,,,,,,,,,,,,,,,,,,,,,,0,2,2,2,1,,,,,,,,,,,,,,,,,,,,,,,,,,,,,,,,,,,,,,,,,,,,,,
686955,001,2022-11-21_01h47.35.819,Info_measure_main_exp,2022.2.2,Win32,59.40711697,,,,,,,,,,,,,,,,,,masks/mask_002.jpg,,,,,,,,,,,,,,,,,,,,,,,,,,,,,,,,,,,,,,,,,,,0,3,3,1,1,,,,,,,,,,,,,,,,,,,,,,,,,,,,,,,,,,,,,,,,,,,,,,
686955,001,2022-11-21_01h47.35.819,Info_measure_main_exp,2022.2.2,Win32,59.40711697,,,,,,,,,,,,,,,,,,masks/mask_005.jpg,,,,,,,,,,,,,,,,,,,,,,,,,,,,,,,,,,,,,,,,,,,0,4,4,4,1,,,,,,,,,,,,,,,,,,,,,,,,,,,,,,,,,,,,,,,,,,,,,,
686955,001,2022-11-21_01h47.35.819,Info_measure_main_exp,2022.2.2,Win32,59.40711697,,,,,,,,,,,,,,,,,,masks/mask_005.jpg,,,,,,,,,,,,,,,,,,,,,,,,,,,,,,,,,,,,,,,,,,,,,,,,0,0,0,4,1,,,,,,,,,,,,,,,,,,,,,,,,,,,,,,,,,,,,,,,,,
686955,001,2022-11-21_01h47.35.819,Info_measure_main_exp,2022.2.2,Win32,59.40711697,,,,,,,,,,,,,,,,,,masks/mask_001.jpg,,,,,,,,,,,,,,,,,,,,,,,,,,,,,,,,,,,,,,,,,,,,,,,,0,1,1,0,1,,,,,,,,,,,,,,,,,,,,,,,,,,,,,,,,,,,,,,,,,
686955,001,2022-11-21_01h47.35.819,Info_measure_main_exp,2022.2.2,Win32,59.40711697,,,,,,,,,,,,,,,,,,masks/mask_002.jpg,,,,,,,,,,,,,,,,,,,,,,,,,,,,,,,,,,,,,,,,,,,,,,,,0,2,2,1,1,,,,,,,,,,,,,,,,,,,,,,,,,,,,,,,,,,,,,,,,,
686955,001,2022-11-21_01h47.35.819,Info_measure_main_exp,2022.2.2,Win32,59.40711697,,,,,,,,,,,,,,,,,,masks/mask_004.jpg,,,,,,,,,,,,,,,,,,,,,,,,,,,,,,,,,,,,,,,,,,,,,,,,0,3,3,3,1,,,,,,,,,,,,,,,,,,,,,,,,,,,,,,,,,,,,,,,,,
686955,001,2022-11-21_01h47.35.819,Info_measure_main_exp,2022.2.2,Win32,59.40711697,,,,,,,,,,,,,,,,,,masks/mask_003.jpg,,,,,,,,,,,,,,,,,,,,,,,,,,,,,,,,,,,,,,,,,,,,,,,,0,4,4,2,1,,,,,,,,,,,,,,,,,,,,,,,,,,,,,,,,,,,,,,,,,
686955,001,2022-11-21_01h47.35.819,Info_measure_main_exp,2022.2.2,Win32,59.40711697,,,,,,,,,,,,,,,,,,,,,,,,,,,,,,0,1.6338,1,,,,,,,,,,,,0,131,5,5,2190,2082,absent_patch/patch0002190.jpg,absent_patch/patch0002082.jpg,,,,,,,,,,,,,,,,,,,,-0.054629644,0.102777764,1,0,0,response7disk,21,0.001851894,0.005555541,1,0,0,center_square,0,20,20,112,1,,,,,,,,,,,,,,,,,,,,,,,
686955,001,2022-11-21_01h47.35.819,Info_measure_main_exp,2022.2.2,Win32,59.40711697,,,,,,,,,,,,,,,,,,masks/mask_002.jpg,,,,,,,,,,,,,,,,,,,,,,,,,,,,,,,,,,,,,,,,,,,0,0,0,1,1,,,,,,,,,,,,,,,,,,,,,,,,,,,,,,,,,,,,,,,,,,,,,,
686955,001,2022-11-21_01h47.35.819,Info_measure_main_exp,2022.2.2,Win32,59.40711697,,,,,,,,,,,,,,,,,,masks/mask_003.jpg,,,,,,,,,,,,,,,,,,,,,,,,,,,,,,,,,,,,,,,,,,,0,1,1,2,1,,,,,,,,,,,,,,,,,,,,,,,,,,,,,,,,,,,,,,,,,,,,,,
686955,001,2022-11-21_01h47.35.819,Info_measure_main_exp,2022.2.2,Win32,59.40711697,,,,,,,,,,,,,,,,,,masks/mask_004.jpg,,,,,,,,,,,,,,,,,,,,,,,,,,,,,,,,,,,,,,,,,,,0,2,2,3,1,,,,,,,,,,,,,,,,,,,,,,,,,,,,,,,,,,,,,,,,,,,,,,
686955,001,2022-11-21_01h47.35.819,Info_measure_main_exp,2022.2.2,Win32,59.40711697,,,,,,,,,,,,,,,,,,masks/mask_001.jpg,,,,,,,,,,,,,,,,,,,,,,,,,,,,,,,,,,,,,,,,,,,0,3,3,0,1,,,,,,,,,,,,,,,,,,,,,,,,,,,,,,,,,,,,,,,,,,,,,,
686955,001,2022-11-21_01h47.35.819,Info_measure_main_exp,2022.2.2,Win32,59.40711697,,,,,,,,,,,,,,,,,,masks/mask_005.jpg,,,,,,,,,,,,,,,,,,,,,,,,,,,,,,,,,,,,,,,,,,,0,4,4,4,1,,,,,,,,,,,,,,,,,,,,,,,,,,,,,,,,,,,,,,,,,,,,,,
686955,001,2022-11-21_01h47.35.819,Info_measure_main_exp,2022.2.2,Win32,59.40711697,,,,,,,,,,,,,,,,,,masks/mask_005.jpg,,,,,,,,,,,,,,,,,,,,,,,,,,,,,,,,,,,,,,,,,,,,,,,,0,0,0,4,1,,,,,,,,,,,,,,,,,,,,,,,,,,,,,,,,,,,,,,,,,
686955,001,2022-11-21_01h47.35.819,Info_measure_main_exp,2022.2.2,Win32,59.40711697,,,,,,,,,,,,,,,,,,masks/mask_003.jpg,,,,,,,,,,,,,,,,,,,,,,,,,,,,,,,,,,,,,,,,,,,,,,,,0,1,1,2,1,,,,,,,,,,,,,,,,,,,,,,,,,,,,,,,,,,,,,,,,,
686955,001,2022-11-21_01h47.35.819,Info_measure_main_exp,2022.2.2,Win32,59.40711697,,,,,,,,,,,,,,,,,,masks/mask_002.jpg,,,,,,,,,,,,,,,,,,,,,,,,,,,,,,,,,,,,,,,,,,,,,,,,0,2,2,1,1,,,,,,,,,,,,,,,,,,,,,,,,,,,,,,,,,,,,,,,,,
686955,001,2022-11-21_01h47.35.819,Info_measure_main_exp,2022.2.2,Win32,59.40711697,,,,,,,,,,,,,,,,,,masks/mask_001.jpg,,,,,,,,,,,,,,,,,,,,,,,,,,,,,,,,,,,,,,,,,,,,,,,,0,3,3,0,1,,,,,,,,,,,,,,,,,,,,,,,,,,,,,,,,,,,,,,,,,
686955,001,2022-11-21_01h47.35.819,Info_measure_main_exp,2022.2.2,Win32,59.40711697,,,,,,,,,,,,,,,,,,masks/mask_004.jpg,,,,,,,,,,,,,,,,,,,,,,,,,,,,,,,,,,,,,,,,,,,,,,,,0,4,4,3,1,,,,,,,,,,,,,,,,,,,,,,,,,,,,,,,,,,,,,,,,,
686955,001,2022-11-21_01h47.35.819,Info_measure_main_exp,2022.2.2,Win32,59.40711697,,,,,,,,,,,,,,,,,,,,,,,,,,,,,,7,1.3848,1,,,,,,,,,,,,1,131,5,5,2250,1,absent_patch/patch0002250.jpg,present_patch/cong_131_5_a.jpg,,,,,,,,,,,,,,,,,,,,0.084259245,0.1175926,1,0,0,response1disk,22,0.013888889,0.003703683,1,0,0,center_square,0,21,21,5,1,,,,,,,,,,,,,,,,,,,,,,,
686955,001,2022-11-21_01h47.35.819,Info_measure_main_exp,2022.2.2,Win32,59.40711697,,,,,,,,,,,,,,,,,,masks/mask_003.jpg,,,,,,,,,,,,,,,,,,,,,,,,,,,,,,,,,,,,,,,,,,,0,0,0,2,1,,,,,,,,,,,,,,,,,,,,,,,,,,,,,,,,,,,,,,,,,,,,,,
686955,001,2022-11-21_01h47.35.819,Info_measure_main_exp,2022.2.2,Win32,59.40711697,,,,,,,,,,,,,,,,,,masks/mask_001.jpg,,,,,,,,,,,,,,,,,,,,,,,,,,,,,,,,,,,,,,,,,,,0,1,1,0,1,,,,,,,,,,,,,,,,,,,,,,,,,,,,,,,,,,,,,,,,,,,,,,
686955,001,2022-11-21_01h47.35.819,Info_measure_main_exp,2022.2.2,Win32,59.40711697,,,,,,,,,,,,,,,,,,masks/mask_005.jpg,,,,,,,,,,,,,,,,,,,,,,,,,,,,,,,,,,,,,,,,,,,0,2,2,4,1,,,,,,,,,,,,,,,,,,,,,,,,,,,,,,,,,,,,,,,,,,,,,,
686955,001,2022-11-21_01h47.35.819,Info_measure_main_exp,2022.2.2,Win32,59.40711697,,,,,,,,,,,,,,,,,,masks/mask_004.jpg,,,,,,,,,,,,,,,,,,,,,,,,,,,,,,,,,,,,,,,,,,,0,3,3,3,1,,,,,,,,,,,,,,,,,,,,,,,,,,,,,,,,,,,,,,,,,,,,,,
686955,001,2022-11-21_01h47.35.819,Info_measure_main_exp,2022.2.2,Win32,59.40711697,,,,,,,,,,,,,,,,,,masks/mask_002.jpg,,,,,,,,,,,,,,,,,,,,,,,,,,,,,,,,,,,,,,,,,,,0,4,4,1,1,,,,,,,,,,,,,,,,,,,,,,,,,,,,,,,,,,,,,,,,,,,,,,
686955,001,2022-11-21_01h47.35.819,Info_measure_main_exp,2022.2.2,Win32,59.40711697,,,,,,,,,,,,,,,,,,masks/mask_001.jpg,,,,,,,,,,,,,,,,,,,,,,,,,,,,,,,,,,,,,,,,,,,,,,,,0,0,0,0,1,,,,,,,,,,,,,,,,,,,,,,,,,,,,,,,,,,,,,,,,,
686955,001,2022-11-21_01h47.35.819,Info_measure_main_exp,2022.2.2,Win32,59.40711697,,,,,,,,,,,,,,,,,,masks/mask_005.jpg,,,,,,,,,,,,,,,,,,,,,,,,,,,,,,,,,,,,,,,,,,,,,,,,0,1,1,4,1,,,,,,,,,,,,,,,,,,,,,,,,,,,,,,,,,,,,,,,,,
686955,001,2022-11-21_01h47.35.819,Info_measure_main_exp,2022.2.2,Win32,59.40711697,,,,,,,,,,,,,,,,,,masks/mask_002.jpg,,,,,,,,,,,,,,,,,,,,,,,,,,,,,,,,,,,,,,,,,,,,,,,,0,2,2,1,1,,,,,,,,,,,,,,,,,,,,,,,,,,,,,,,,,,,,,,,,,
686955,001,2022-11-21_01h47.35.819,Info_measure_main_exp,2022.2.2,Win32,59.40711697,,,,,,,,,,,,,,,,,,masks/mask_004.jpg,,,,,,,,,,,,,,,,,,,,,,,,,,,,,,,,,,,,,,,,,,,,,,,,0,3,3,3,1,,,,,,,,,,,,,,,,,,,,,,,,,,,,,,,,,,,,,,,,,
686955,001,2022-11-21_01h47.35.819,Info_measure_main_exp,2022.2.2,Win32,59.40711697,,,,,,,,,,,,,,,,,,masks/mask_003.jpg,,,,,,,,,,,,,,,,,,,,,,,,,,,,,,,,,,,,,,,,,,,,,,,,0,4,4,2,1,,,,,,,,,,,,,,,,,,,,,,,,,,,,,,,,,,,,,,,,,
686955,001,2022-11-21_01h47.35.819,Info_measure_main_exp,2022.2.2,Win32,59.40711697,,,,,,,,,,,,,,,,,,,,,,,,,,,,,,5,2.2515,1,,,,,,,,,,,,0,131,5,5,2190,2178,absent_patch/patch0002190.jpg,absent_patch/patch0002178.jpg,,,,,,,,,,,,,,,,,,,,0.115740741,-0.015740748,1,0,0,response3disk,23,0.002777806,0.01203703,1,0,0,center_square,0,22,22,14,1,,,,,,,,,,,,,,,,,,,,,,,
686955,001,2022-11-21_01h47.35.819,Info_measure_main_exp,2022.2.2,Win32,59.40711697,,,,,,,,,,,,,,,,,,masks/mask_004.jpg,,,,,,,,,,,,,,,,,,,,,,,,,,,,,,,,,,,,,,,,,,,0,0,0,3,1,,,,,,,,,,,,,,,,,,,,,,,,,,,,,,,,,,,,,,,,,,,,,,
686955,001,2022-11-21_01h47.35.819,Info_measure_main_exp,2022.2.2,Win32,59.40711697,,,,,,,,,,,,,,,,,,masks/mask_001.jpg,,,,,,,,,,,,,,,,,,,,,,,,,,,,,,,,,,,,,,,,,,,0,1,1,0,1,,,,,,,,,,,,,,,,,,,,,,,,,,,,,,,,,,,,,,,,,,,,,,
686955,001,2022-11-21_01h47.35.819,Info_measure_main_exp,2022.2.2,Win32,59.40711697,,,,,,,,,,,,,,,,,,masks/mask_003.jpg,,,,,,,,,,,,,,,,,,,,,,,,,,,,,,,,,,,,,,,,,,,0,2,2,2,1,,,,,,,,,,,,,,,,,,,,,,,,,,,,,,,,,,,,,,,,,,,,,,
686955,001,2022-11-21_01h47.35.819,Info_measure_main_exp,2022.2.2,Win32,59.40711697,,,,,,,,,,,,,,,,,,masks/mask_005.jpg,,,,,,,,,,,,,,,,,,,,,,,,,,,,,,,,,,,,,,,,,,,0,3,3,4,1,,,,,,,,,,,,,,,,,,,,,,,,,,,,,,,,,,,,,,,,,,,,,,
686955,001,2022-11-21_01h47.35.819,Info_measure_main_exp,2022.2.2,Win32,59.40711697,,,,,,,,,,,,,,,,,,masks/mask_002.jpg,,,,,,,,,,,,,,,,,,,,,,,,,,,,,,,,,,,,,,,,,,,0,4,4,1,1,,,,,,,,,,,,,,,,,,,,,,,,,,,,,,,,,,,,,,,,,,,,,,
686955,001,2022-11-21_01h47.35.819,Info_measure_main_exp,2022.2.2,Win32,59.40711697,,,,,,,,,,,,,,,,,,masks/mask_001.jpg,,,,,,,,,,,,,,,,,,,,,,,,,,,,,,,,,,,,,,,,,,,,,,,,0,0,0,0,1,,,,,,,,,,,,,,,,,,,,,,,,,,,,,,,,,,,,,,,,,
686955,001,2022-11-21_01h47.35.819,Info_measure_main_exp,2022.2.2,Win32,59.40711697,,,,,,,,,,,,,,,,,,masks/mask_002.jpg,,,,,,,,,,,,,,,,,,,,,,,,,,,,,,,,,,,,,,,,,,,,,,,,0,1,1,1,1,,,,,,,,,,,,,,,,,,,,,,,,,,,,,,,,,,,,,,,,,
686955,001,2022-11-21_01h47.35.819,Info_measure_main_exp,2022.2.2,Win32,59.40711697,,,,,,,,,,,,,,,,,,masks/mask_003.jpg,,,,,,,,,,,,,,,,,,,,,,,,,,,,,,,,,,,,,,,,,,,,,,,,0,2,2,2,1,,,,,,,,,,,,,,,,,,,,,,,,,,,,,,,,,,,,,,,,,
686955,001,2022-11-21_01h47.35.819,Info_measure_main_exp,2022.2.2,Win32,59.40711697,,,,,,,,,,,,,,,,,,masks/mask_005.jpg,,,,,,,,,,,,,,,,,,,,,,,,,,,,,,,,,,,,,,,,,,,,,,,,0,3,3,4,1,,,,,,,,,,,,,,,,,,,,,,,,,,,,,,,,,,,,,,,,,
686955,001,2022-11-21_01h47.35.819,Info_measure_main_exp,2022.2.2,Win32,59.40711697,,,,,,,,,,,,,,,,,,masks/mask_004.jpg,,,,,,,,,,,,,,,,,,,,,,,,,,,,,,,,,,,,,,,,,,,,,,,,0,4,4,3,1,,,,,,,,,,,,,,,,,,,,,,,,,,,,,,,,,,,,,,,,,
686955,001,2022-11-21_01h47.35.819,Info_measure_main_exp,2022.2.2,Win32,59.40711697,,,,,,,,,,,,,,,,,,,,,,,,,,,,,,7,2.1892,1,,,,,,,,,,,,1,131,5,5,1,2142,present_patch/cong_131_5_a.jpg,absent_patch/patch0002142.jpg,,,,,,,,,,,,,,,,,,,,0.055555556,0.099999993,1,0,0,response1disk,24,0.013888889,0.013888889,1,0,0,center_square,0,23,23,80,1,,,,,,,,,,,,,,,,,,,,,,,
686955,001,2022-11-21_01h47.35.819,Info_measure_main_exp,2022.2.2,Win32,59.40711697,,,,,,,,,,,,,,,,,,masks/mask_004.jpg,,,,,,,,,,,,,,,,,,,,,,,,,,,,,,,,,,,,,,,,,,,0,0,0,3,1,,,,,,,,,,,,,,,,,,,,,,,,,,,,,,,,,,,,,,,,,,,,,,
686955,001,2022-11-21_01h47.35.819,Info_measure_main_exp,2022.2.2,Win32,59.40711697,,,,,,,,,,,,,,,,,,masks/mask_002.jpg,,,,,,,,,,,,,,,,,,,,,,,,,,,,,,,,,,,,,,,,,,,0,1,1,1,1,,,,,,,,,,,,,,,,,,,,,,,,,,,,,,,,,,,,,,,,,,,,,,
686955,001,2022-11-21_01h47.35.819,Info_measure_main_exp,2022.2.2,Win32,59.40711697,,,,,,,,,,,,,,,,,,masks/mask_001.jpg,,,,,,,,,,,,,,,,,,,,,,,,,,,,,,,,,,,,,,,,,,,0,2,2,0,1,,,,,,,,,,,,,,,,,,,,,,,,,,,,,,,,,,,,,,,,,,,,,,
686955,001,2022-11-21_01h47.35.819,Info_measure_main_exp,2022.2.2,Win32,59.40711697,,,,,,,,,,,,,,,,,,masks/mask_005.jpg,,,,,,,,,,,,,,,,,,,,,,,,,,,,,,,,,,,,,,,,,,,0,3,3,4,1,,,,,,,,,,,,,,,,,,,,,,,,,,,,,,,,,,,,,,,,,,,,,,
686955,001,2022-11-21_01h47.35.819,Info_measure_main_exp,2022.2.2,Win32,59.40711697,,,,,,,,,,,,,,,,,,masks/mask_003.jpg,,,,,,,,,,,,,,,,,,,,,,,,,,,,,,,,,,,,,,,,,,,0,4,4,2,1,,,,,,,,,,,,,,,,,,,,,,,,,,,,,,,,,,,,,,,,,,,,,,
686955,001,2022-11-21_01h47.35.819,Info_measure_main_exp,2022.2.2,Win32,59.40711697,,,,,,,,,,,,,,,,,,masks/mask_002.jpg,,,,,,,,,,,,,,,,,,,,,,,,,,,,,,,,,,,,,,,,,,,,,,,,0,0,0,1,1,,,,,,,,,,,,,,,,,,,,,,,,,,,,,,,,,,,,,,,,,
686955,001,2022-11-21_01h47.35.819,Info_measure_main_exp,2022.2.2,Win32,59.40711697,,,,,,,,,,,,,,,,,,masks/mask_005.jpg,,,,,,,,,,,,,,,,,,,,,,,,,,,,,,,,,,,,,,,,,,,,,,,,0,1,1,4,1,,,,,,,,,,,,,,,,,,,,,,,,,,,,,,,,,,,,,,,,,
686955,001,2022-11-21_01h47.35.819,Info_measure_main_exp,2022.2.2,Win32,59.40711697,,,,,,,,,,,,,,,,,,masks/mask_001.jpg,,,,,,,,,,,,,,,,,,,,,,,,,,,,,,,,,,,,,,,,,,,,,,,,0,2,2,0,1,,,,,,,,,,,,,,,,,,,,,,,,,,,,,,,,,,,,,,,,,
686955,001,2022-11-21_01h47.35.819,Info_measure_main_exp,2022.2.2,Win32,59.40711697,,,,,,,,,,,,,,,,,,masks/mask_004.jpg,,,,,,,,,,,,,,,,,,,,,,,,,,,,,,,,,,,,,,,,,,,,,,,,0,3,3,3,1,,,,,,,,,,,,,,,,,,,,,,,,,,,,,,,,,,,,,,,,,
686955,001,2022-11-21_01h47.35.819,Info_measure_main_exp,2022.2.2,Win32,59.40711697,,,,,,,,,,,,,,,,,,masks/mask_003.jpg,,,,,,,,,,,,,,,,,,,,,,,,,,,,,,,,,,,,,,,,,,,,,,,,0,4,4,2,1,,,,,,,,,,,,,,,,,,,,,,,,,,,,,,,,,,,,,,,,,
686955,001,2022-11-21_01h47.35.819,Info_measure_main_exp,2022.2.2,Win32,59.40711697,,,,,,,,,,,,,,,,,,,,,,,,,,,,,,7,1.0856,1,,,,,,,,,,,,0,131,5,5,2274,2178,absent_patch/patch0002274.jpg,absent_patch/patch0002178.jpg,,,,,,,,,,,,,,,,,,,,0.018518519,0.04074072,1,0,0,response1disk,25,0.00462963,-0.003703718,1,0,0,center_square,0,24,24,117,1,,,,,,,,,,,,,,,,,,,,,,,
686955,001,2022-11-21_01h47.35.819,Info_measure_main_exp,2022.2.2,Win32,59.40711697,,,,,,,,,,,,,,,,,,masks/mask_003.jpg,,,,,,,,,,,,,,,,,,,,,,,,,,,,,,,,,,,,,,,,,,,0,0,0,2,1,,,,,,,,,,,,,,,,,,,,,,,,,,,,,,,,,,,,,,,,,,,,,,
686955,001,2022-11-21_01h47.35.819,Info_measure_main_exp,2022.2.2,Win32,59.40711697,,,,,,,,,,,,,,,,,,masks/mask_002.jpg,,,,,,,,,,,,,,,,,,,,,,,,,,,,,,,,,,,,,,,,,,,0,1,1,1,1,,,,,,,,,,,,,,,,,,,,,,,,,,,,,,,,,,,,,,,,,,,,,,
686955,001,2022-11-21_01h47.35.819,Info_measure_main_exp,2022.2.2,Win32,59.40711697,,,,,,,,,,,,,,,,,,masks/mask_004.jpg,,,,,,,,,,,,,,,,,,,,,,,,,,,,,,,,,,,,,,,,,,,0,2,2,3,1,,,,,,,,,,,,,,,,,,,,,,,,,,,,,,,,,,,,,,,,,,,,,,
686955,001,2022-11-21_01h47.35.819,Info_measure_main_exp,2022.2.2,Win32,59.40711697,,,,,,,,,,,,,,,,,,masks/mask_001.jpg,,,,,,,,,,,,,,,,,,,,,,,,,,,,,,,,,,,,,,,,,,,0,3,3,0,1,,,,,,,,,,,,,,,,,,,,,,,,,,,,,,,,,,,,,,,,,,,,,,
686955,001,2022-11-21_01h47.35.819,Info_measure_main_exp,2022.2.2,Win32,59.40711697,,,,,,,,,,,,,,,,,,masks/mask_005.jpg,,,,,,,,,,,,,,,,,,,,,,,,,,,,,,,,,,,,,,,,,,,0,4,4,4,1,,,,,,,,,,,,,,,,,,,,,,,,,,,,,,,,,,,,,,,,,,,,,,
686955,001,2022-11-21_01h47.35.819,Info_measure_main_exp,2022.2.2,Win32,59.40711697,,,,,,,,,,,,,,,,,,masks/mask_002.jpg,,,,,,,,,,,,,,,,,,,,,,,,,,,,,,,,,,,,,,,,,,,,,,,,0,0,0,1,1,,,,,,,,,,,,,,,,,,,,,,,,,,,,,,,,,,,,,,,,,
686955,001,2022-11-21_01h47.35.819,Info_measure_main_exp,2022.2.2,Win32,59.40711697,,,,,,,,,,,,,,,,,,masks/mask_004.jpg,,,,,,,,,,,,,,,,,,,,,,,,,,,,,,,,,,,,,,,,,,,,,,,,0,1,1,3,1,,,,,,,,,,,,,,,,,,,,,,,,,,,,,,,,,,,,,,,,,
686955,001,2022-11-21_01h47.35.819,Info_measure_main_exp,2022.2.2,Win32,59.40711697,,,,,,,,,,,,,,,,,,masks/mask_003.jpg,,,,,,,,,,,,,,,,,,,,,,,,,,,,,,,,,,,,,,,,,,,,,,,,0,2,2,2,1,,,,,,,,,,,,,,,,,,,,,,,,,,,,,,,,,,,,,,,,,
686955,001,2022-11-21_01h47.35.819,Info_measure_main_exp,2022.2.2,Win32,59.40711697,,,,,,,,,,,,,,,,,,masks/mask_001.jpg,,,,,,,,,,,,,,,,,,,,,,,,,,,,,,,,,,,,,,,,,,,,,,,,0,3,3,0,1,,,,,,,,,,,,,,,,,,,,,,,,,,,,,,,,,,,,,,,,,
686955,001,2022-11-21_01h47.35.819,Info_measure_main_exp,2022.2.2,Win32,59.40711697,,,,,,,,,,,,,,,,,,masks/mask_005.jpg,,,,,,,,,,,,,,,,,,,,,,,,,,,,,,,,,,,,,,,,,,,,,,,,0,4,4,4,1,,,,,,,,,,,,,,,,,,,,,,,,,,,,,,,,,,,,,,,,,
686955,001,2022-11-21_01h47.35.819,Info_measure_main_exp,2022.2.2,Win32,59.40711697,,,,,,,,,,,,,,,,,,,,,,,,,,,,,,2,2.2464,1,,,,,,,,,,,,0,131,5,5,2274,2238,absent_patch/patch0002274.jpg,absent_patch/patch0002238.jpg,,,,,,,,,,,,,,,,,,,,-0.119444459,-0.035185178,1,0,0,response5disk,26,0.010185171,0.0074074,1,0,0,center_square,0,25,25,91,1,,,,,,,,,,,,,,,,,,,,,,,
686955,001,2022-11-21_01h47.35.819,Info_measure_main_exp,2022.2.2,Win32,59.40711697,,,,,,,,,,,,,,,,,,masks/mask_004.jpg,,,,,,,,,,,,,,,,,,,,,,,,,,,,,,,,,,,,,,,,,,,0,0,0,3,1,,,,,,,,,,,,,,,,,,,,,,,,,,,,,,,,,,,,,,,,,,,,,,
686955,001,2022-11-21_01h47.35.819,Info_measure_main_exp,2022.2.2,Win32,59.40711697,,,,,,,,,,,,,,,,,,masks/mask_003.jpg,,,,,,,,,,,,,,,,,,,,,,,,,,,,,,,,,,,,,,,,,,,0,1,1,2,1,,,,,,,,,,,,,,,,,,,,,,,,,,,,,,,,,,,,,,,,,,,,,,
686955,001,2022-11-21_01h47.35.819,Info_measure_main_exp,2022.2.2,Win32,59.40711697,,,,,,,,,,,,,,,,,,masks/mask_002.jpg,,,,,,,,,,,,,,,,,,,,,,,,,,,,,,,,,,,,,,,,,,,0,2,2,1,1,,,,,,,,,,,,,,,,,,,,,,,,,,,,,,,,,,,,,,,,,,,,,,
686955,001,2022-11-21_01h47.35.819,Info_measure_main_exp,2022.2.2,Win32,59.40711697,,,,,,,,,,,,,,,,,,masks/mask_001.jpg,,,,,,,,,,,,,,,,,,,,,,,,,,,,,,,,,,,,,,,,,,,0,3,3,0,1,,,,,,,,,,,,,,,,,,,,,,,,,,,,,,,,,,,,,,,,,,,,,,
686955,001,2022-11-21_01h47.35.819,Info_measure_main_exp,2022.2.2,Win32,59.40711697,,,,,,,,,,,,,,,,,,masks/mask_005.jpg,,,,,,,,,,,,,,,,,,,,,,,,,,,,,,,,,,,,,,,,,,,0,4,4,4,1,,,,,,,,,,,,,,,,,,,,,,,,,,,,,,,,,,,,,,,,,,,,,,
686955,001,2022-11-21_01h47.35.819,Info_measure_main_exp,2022.2.2,Win32,59.40711697,,,,,,,,,,,,,,,,,,masks/mask_003.jpg,,,,,,,,,,,,,,,,,,,,,,,,,,,,,,,,,,,,,,,,,,,,,,,,0,0,0,2,1,,,,,,,,,,,,,,,,,,,,,,,,,,,,,,,,,,,,,,,,,
686955,001,2022-11-21_01h47.35.819,Info_measure_main_exp,2022.2.2,Win32,59.40711697,,,,,,,,,,,,,,,,,,masks/mask_005.jpg,,,,,,,,,,,,,,,,,,,,,,,,,,,,,,,,,,,,,,,,,,,,,,,,0,1,1,4,1,,,,,,,,,,,,,,,,,,,,,,,,,,,,,,,,,,,,,,,,,
686955,001,2022-11-21_01h47.35.819,Info_measure_main_exp,2022.2.2,Win32,59.40711697,,,,,,,,,,,,,,,,,,masks/mask_004.jpg,,,,,,,,,,,,,,,,,,,,,,,,,,,,,,,,,,,,,,,,,,,,,,,,0,2,2,3,1,,,,,,,,,,,,,,,,,,,,,,,,,,,,,,,,,,,,,,,,,
686955,001,2022-11-21_01h47.35.819,Info_measure_main_exp,2022.2.2,Win32,59.40711697,,,,,,,,,,,,,,,,,,masks/mask_002.jpg,,,,,,,,,,,,,,,,,,,,,,,,,,,,,,,,,,,,,,,,,,,,,,,,0,3,3,1,1,,,,,,,,,,,,,,,,,,,,,,,,,,,,,,,,,,,,,,,,,
686955,001,2022-11-21_01h47.35.819,Info_measure_main_exp,2022.2.2,Win32,59.40711697,,,,,,,,,,,,,,,,,,masks/mask_001.jpg,,,,,,,,,,,,,,,,,,,,,,,,,,,,,,,,,,,,,,,,,,,,,,,,0,4,4,0,1,,,,,,,,,,,,,,,,,,,,,,,,,,,,,,,,,,,,,,,,,
686955,001,2022-11-21_01h47.35.819,Info_measure_main_exp,2022.2.2,Win32,59.40711697,,,,,,,,,,,,,,,,,,,,,,,,,,,,,,0,1.3023,1,,,,,,,,,,,,0,131,5,5,2250,2298,absent_patch/patch0002250.jpg,absent_patch/patch0002298.jpg,,,,,,,,,,,,,,,,,,,,-0.032407407,0.074074074,1,0,0,response7disk,27,0.006481524,-0.00462963,1,0,0,center_square,0,26,26,59,1,,,,,,,,,,,,,,,,,,,,,,,
686955,001,2022-11-21_01h47.35.819,Info_measure_main_exp,2022.2.2,Win32,59.40711697,,,,,,,,,,,,,,,,,,masks/mask_004.jpg,,,,,,,,,,,,,,,,,,,,,,,,,,,,,,,,,,,,,,,,,,,0,0,0,3,1,,,,,,,,,,,,,,,,,,,,,,,,,,,,,,,,,,,,,,,,,,,,,,
686955,001,2022-11-21_01h47.35.819,Info_measure_main_exp,2022.2.2,Win32,59.40711697,,,,,,,,,,,,,,,,,,masks/mask_001.jpg,,,,,,,,,,,,,,,,,,,,,,,,,,,,,,,,,,,,,,,,,,,0,1,1,0,1,,,,,,,,,,,,,,,,,,,,,,,,,,,,,,,,,,,,,,,,,,,,,,
686955,001,2022-11-21_01h47.35.819,Info_measure_main_exp,2022.2.2,Win32,59.40711697,,,,,,,,,,,,,,,,,,masks/mask_002.jpg,,,,,,,,,,,,,,,,,,,,,,,,,,,,,,,,,,,,,,,,,,,0,2,2,1,1,,,,,,,,,,,,,,,,,,,,,,,,,,,,,,,,,,,,,,,,,,,,,,
686955,001,2022-11-21_01h47.35.819,Info_measure_main_exp,2022.2.2,Win32,59.40711697,,,,,,,,,,,,,,,,,,masks/mask_005.jpg,,,,,,,,,,,,,,,,,,,,,,,,,,,,,,,,,,,,,,,,,,,0,3,3,4,1,,,,,,,,,,,,,,,,,,,,,,,,,,,,,,,,,,,,,,,,,,,,,,
686955,001,2022-11-21_01h47.35.819,Info_measure_main_exp,2022.2.2,Win32,59.40711697,,,,,,,,,,,,,,,,,,masks/mask_003.jpg,,,,,,,,,,,,,,,,,,,,,,,,,,,,,,,,,,,,,,,,,,,0,4,4,2,1,,,,,,,,,,,,,,,,,,,,,,,,,,,,,,,,,,,,,,,,,,,,,,
686955,001,2022-11-21_01h47.35.819,Info_measure_main_exp,2022.2.2,Win32,59.40711697,,,,,,,,,,,,,,,,,,masks/mask_003.jpg,,,,,,,,,,,,,,,,,,,,,,,,,,,,,,,,,,,,,,,,,,,,,,,,0,0,0,2,1,,,,,,,,,,,,,,,,,,,,,,,,,,,,,,,,,,,,,,,,,
686955,001,2022-11-21_01h47.35.819,Info_measure_main_exp,2022.2.2,Win32,59.40711697,,,,,,,,,,,,,,,,,,masks/mask_005.jpg,,,,,,,,,,,,,,,,,,,,,,,,,,,,,,,,,,,,,,,,,,,,,,,,0,1,1,4,1,,,,,,,,,,,,,,,,,,,,,,,,,,,,,,,,,,,,,,,,,
686955,001,2022-11-21_01h47.35.819,Info_measure_main_exp,2022.2.2,Win32,59.40711697,,,,,,,,,,,,,,,,,,masks/mask_002.jpg,,,,,,,,,,,,,,,,,,,,,,,,,,,,,,,,,,,,,,,,,,,,,,,,0,2,2,1,1,,,,,,,,,,,,,,,,,,,,,,,,,,,,,,,,,,,,,,,,,
686955,001,2022-11-21_01h47.35.819,Info_measure_main_exp,2022.2.2,Win32,59.40711697,,,,,,,,,,,,,,,,,,masks/mask_004.jpg,,,,,,,,,,,,,,,,,,,,,,,,,,,,,,,,,,,,,,,,,,,,,,,,0,3,3,3,1,,,,,,,,,,,,,,,,,,,,,,,,,,,,,,,,,,,,,,,,,
686955,001,2022-11-21_01h47.35.819,Info_measure_main_exp,2022.2.2,Win32,59.40711697,,,,,,,,,,,,,,,,,,masks/mask_001.jpg,,,,,,,,,,,,,,,,,,,,,,,,,,,,,,,,,,,,,,,,,,,,,,,,0,4,4,0,1,,,,,,,,,,,,,,,,,,,,,,,,,,,,,,,,,,,,,,,,,
686955,001,2022-11-21_01h47.35.819,Info_measure_main_exp,2022.2.2,Win32,59.40711697,,,,,,,,,,,,,,,,,,,,,,,,,,,,,,7,0.9075,1,,,,,,,,,,,,0,131,5,5,2214,2166,absent_patch/patch0002214.jpg,absent_patch/patch0002166.jpg,,,,,,,,,,,,,,,,,,,,0.02407406,0.137962942,1,0,0,response1disk,28,0,0.005555541,1,0,0,center_square,0,27,27,109,1,,,,,,,,,,,,,,,,,,,,,,,
686955,001,2022-11-21_01h47.35.819,Info_measure_main_exp,2022.2.2,Win32,59.40711697,,,,,,,,,,,,,,,,,,masks/mask_001.jpg,,,,,,,,,,,,,,,,,,,,,,,,,,,,,,,,,,,,,,,,,,,0,0,0,0,1,,,,,,,,,,,,,,,,,,,,,,,,,,,,,,,,,,,,,,,,,,,,,,
686955,001,2022-11-21_01h47.35.819,Info_measure_main_exp,2022.2.2,Win32,59.40711697,,,,,,,,,,,,,,,,,,masks/mask_005.jpg,,,,,,,,,,,,,,,,,,,,,,,,,,,,,,,,,,,,,,,,,,,0,1,1,4,1,,,,,,,,,,,,,,,,,,,,,,,,,,,,,,,,,,,,,,,,,,,,,,
686955,001,2022-11-21_01h47.35.819,Info_measure_main_exp,2022.2.2,Win32,59.40711697,,,,,,,,,,,,,,,,,,masks/mask_003.jpg,,,,,,,,,,,,,,,,,,,,,,,,,,,,,,,,,,,,,,,,,,,0,2,2,2,1,,,,,,,,,,,,,,,,,,,,,,,,,,,,,,,,,,,,,,,,,,,,,,
686955,001,2022-11-21_01h47.35.819,Info_measure_main_exp,2022.2.2,Win32,59.40711697,,,,,,,,,,,,,,,,,,masks/mask_002.jpg,,,,,,,,,,,,,,,,,,,,,,,,,,,,,,,,,,,,,,,,,,,0,3,3,1,1,,,,,,,,,,,,,,,,,,,,,,,,,,,,,,,,,,,,,,,,,,,,,,
686955,001,2022-11-21_01h47.35.819,Info_measure_main_exp,2022.2.2,Win32,59.40711697,,,,,,,,,,,,,,,,,,masks/mask_004.jpg,,,,,,,,,,,,,,,,,,,,,,,,,,,,,,,,,,,,,,,,,,,0,4,4,3,1,,,,,,,,,,,,,,,,,,,,,,,,,,,,,,,,,,,,,,,,,,,,,,
686955,001,2022-11-21_01h47.35.819,Info_measure_main_exp,2022.2.2,Win32,59.40711697,,,,,,,,,,,,,,,,,,masks/mask_002.jpg,,,,,,,,,,,,,,,,,,,,,,,,,,,,,,,,,,,,,,,,,,,,,,,,0,0,0,1,1,,,,,,,,,,,,,,,,,,,,,,,,,,,,,,,,,,,,,,,,,
686955,001,2022-11-21_01h47.35.819,Info_measure_main_exp,2022.2.2,Win32,59.40711697,,,,,,,,,,,,,,,,,,masks/mask_005.jpg,,,,,,,,,,,,,,,,,,,,,,,,,,,,,,,,,,,,,,,,,,,,,,,,0,1,1,4,1,,,,,,,,,,,,,,,,,,,,,,,,,,,,,,,,,,,,,,,,,
686955,001,2022-11-21_01h47.35.819,Info_measure_main_exp,2022.2.2,Win32,59.40711697,,,,,,,,,,,,,,,,,,masks/mask_003.jpg,,,,,,,,,,,,,,,,,,,,,,,,,,,,,,,,,,,,,,,,,,,,,,,,0,2,2,2,1,,,,,,,,,,,,,,,,,,,,,,,,,,,,,,,,,,,,,,,,,
686955,001,2022-11-21_01h47.35.819,Info_measure_main_exp,2022.2.2,Win32,59.40711697,,,,,,,,,,,,,,,,,,masks/mask_001.jpg,,,,,,,,,,,,,,,,,,,,,,,,,,,,,,,,,,,,,,,,,,,,,,,,0,3,3,0,1,,,,,,,,,,,,,,,,,,,,,,,,,,,,,,,,,,,,,,,,,
686955,001,2022-11-21_01h47.35.819,Info_measure_main_exp,2022.2.2,Win32,59.40711697,,,,,,,,,,,,,,,,,,masks/mask_004.jpg,,,,,,,,,,,,,,,,,,,,,,,,,,,,,,,,,,,,,,,,,,,,,,,,0,4,4,3,1,,,,,,,,,,,,,,,,,,,,,,,,,,,,,,,,,,,,,,,,,
686955,001,2022-11-21_01h47.35.819,Info_measure_main_exp,2022.2.2,Win32,59.40711697,,,,,,,,,,,,,,,,,,,,,,,,,,,,,,7,0.9015,1,,,,,,,,,,,,0,131,5,5,1974,2238,absent_patch/patch0001974.jpg,absent_patch/patch0002238.jpg,,,,,,,,,,,,,,,,,,,,0.035185213,0.135185171,1,0,0,response1disk,29,0.003703718,0.0074074,1,0,0,center_square,0,28,28,95,1,,,,,,,,,,,,,,,,,,,,,,,
686955,001,2022-11-21_01h47.35.819,Info_measure_main_exp,2022.2.2,Win32,59.40711697,,,,,,,,,,,,,,,,,,masks/mask_003.jpg,,,,,,,,,,,,,,,,,,,,,,,,,,,,,,,,,,,,,,,,,,,0,0,0,2,1,,,,,,,,,,,,,,,,,,,,,,,,,,,,,,,,,,,,,,,,,,,,,,
686955,001,2022-11-21_01h47.35.819,Info_measure_main_exp,2022.2.2,Win32,59.40711697,,,,,,,,,,,,,,,,,,masks/mask_005.jpg,,,,,,,,,,,,,,,,,,,,,,,,,,,,,,,,,,,,,,,,,,,0,1,1,4,1,,,,,,,,,,,,,,,,,,,,,,,,,,,,,,,,,,,,,,,,,,,,,,
686955,001,2022-11-21_01h47.35.819,Info_measure_main_exp,2022.2.2,Win32,59.40711697,,,,,,,,,,,,,,,,,,masks/mask_002.jpg,,,,,,,,,,,,,,,,,,,,,,,,,,,,,,,,,,,,,,,,,,,0,2,2,1,1,,,,,,,,,,,,,,,,,,,,,,,,,,,,,,,,,,,,,,,,,,,,,,
686955,001,2022-11-21_01h47.35.819,Info_measure_main_exp,2022.2.2,Win32,59.40711697,,,,,,,,,,,,,,,,,,masks/mask_004.jpg,,,,,,,,,,,,,,,,,,,,,,,,,,,,,,,,,,,,,,,,,,,0,3,3,3,1,,,,,,,,,,,,,,,,,,,,,,,,,,,,,,,,,,,,,,,,,,,,,,
686955,001,2022-11-21_01h47.35.819,Info_measure_main_exp,2022.2.2,Win32,59.40711697,,,,,,,,,,,,,,,,,,masks/mask_001.jpg,,,,,,,,,,,,,,,,,,,,,,,,,,,,,,,,,,,,,,,,,,,0,4,4,0,1,,,,,,,,,,,,,,,,,,,,,,,,,,,,,,,,,,,,,,,,,,,,,,
686955,001,2022-11-21_01h47.35.819,Info_measure_main_exp,2022.2.2,Win32,59.40711697,,,,,,,,,,,,,,,,,,masks/mask_004.jpg,,,,,,,,,,,,,,,,,,,,,,,,,,,,,,,,,,,,,,,,,,,,,,,,0,0,0,3,1,,,,,,,,,,,,,,,,,,,,,,,,,,,,,,,,,,,,,,,,,
686955,001,2022-11-21_01h47.35.819,Info_measure_main_exp,2022.2.2,Win32,59.40711697,,,,,,,,,,,,,,,,,,masks/mask_002.jpg,,,,,,,,,,,,,,,,,,,,,,,,,,,,,,,,,,,,,,,,,,,,,,,,0,1,1,1,1,,,,,,,,,,,,,,,,,,,,,,,,,,,,,,,,,,,,,,,,,
686955,001,2022-11-21_01h47.35.819,Info_measure_main_exp,2022.2.2,Win32,59.40711697,,,,,,,,,,,,,,,,,,masks/mask_001.jpg,,,,,,,,,,,,,,,,,,,,,,,,,,,,,,,,,,,,,,,,,,,,,,,,0,2,2,0,1,,,,,,,,,,,,,,,,,,,,,,,,,,,,,,,,,,,,,,,,,
686955,001,2022-11-21_01h47.35.819,Info_measure_main_exp,2022.2.2,Win32,59.40711697,,,,,,,,,,,,,,,,,,masks/mask_003.jpg,,,,,,,,,,,,,,,,,,,,,,,,,,,,,,,,,,,,,,,,,,,,,,,,0,3,3,2,1,,,,,,,,,,,,,,,,,,,,,,,,,,,,,,,,,,,,,,,,,
686955,001,2022-11-21_01h47.35.819,Info_measure_main_exp,2022.2.2,Win32,59.40711697,,,,,,,,,,,,,,,,,,masks/mask_005.jpg,,,,,,,,,,,,,,,,,,,,,,,,,,,,,,,,,,,,,,,,,,,,,,,,0,4,4,4,1,,,,,,,,,,,,,,,,,,,,,,,,,,,,,,,,,,,,,,,,,
686955,001,2022-11-21_01h47.35.819,Info_measure_main_exp,2022.2.2,Win32,59.40711697,,,,,,,,,,,,,,,,,,,,,,,,,,,,,,6,1.8518,1,,,,,,,,,,,,0,131,5,5,1950,2142,absent_patch/patch0001950.jpg,absent_patch/patch0002142.jpg,,,,,,,,,,,,,,,,,,,,0.087962963,0.047222208,1,0,0,response1disk,30,-0.005555541,-0.000925947,1,0,0,center_square,0,29,29,83,1,,,,,,,,,,,,,,,,,,,,,,,
686955,001,2022-11-21_01h47.35.819,Info_measure_main_exp,2022.2.2,Win32,59.40711697,,,,,,,,,,,,,,,,,,masks/mask_005.jpg,,,,,,,,,,,,,,,,,,,,,,,,,,,,,,,,,,,,,,,,,,,0,0,0,4,1,,,,,,,,,,,,,,,,,,,,,,,,,,,,,,,,,,,,,,,,,,,,,,
686955,001,2022-11-21_01h47.35.819,Info_measure_main_exp,2022.2.2,Win32,59.40711697,,,,,,,,,,,,,,,,,,masks/mask_004.jpg,,,,,,,,,,,,,,,,,,,,,,,,,,,,,,,,,,,,,,,,,,,0,1,1,3,1,,,,,,,,,,,,,,,,,,,,,,,,,,,,,,,,,,,,,,,,,,,,,,
686955,001,2022-11-21_01h47.35.819,Info_measure_main_exp,2022.2.2,Win32,59.40711697,,,,,,,,,,,,,,,,,,masks/mask_002.jpg,,,,,,,,,,,,,,,,,,,,,,,,,,,,,,,,,,,,,,,,,,,0,2,2,1,1,,,,,,,,,,,,,,,,,,,,,,,,,,,,,,,,,,,,,,,,,,,,,,
686955,001,2022-11-21_01h47.35.819,Info_measure_main_exp,2022.2.2,Win32,59.40711697,,,,,,,,,,,,,,,,,,masks/mask_001.jpg,,,,,,,,,,,,,,,,,,,,,,,,,,,,,,,,,,,,,,,,,,,0,3,3,0,1,,,,,,,,,,,,,,,,,,,,,,,,,,,,,,,,,,,,,,,,,,,,,,
686955,001,2022-11-21_01h47.35.819,Info_measure_main_exp,2022.2.2,Win32,59.40711697,,,,,,,,,,,,,,,,,,masks/mask_003.jpg,,,,,,,,,,,,,,,,,,,,,,,,,,,,,,,,,,,,,,,,,,,0,4,4,2,1,,,,,,,,,,,,,,,,,,,,,,,,,,,,,,,,,,,,,,,,,,,,,,
686955,001,2022-11-21_01h47.35.819,Info_measure_main_exp,2022.2.2,Win32,59.40711697,,,,,,,,,,,,,,,,,,masks/mask_005.jpg,,,,,,,,,,,,,,,,,,,,,,,,,,,,,,,,,,,,,,,,,,,,,,,,0,0,0,4,1,,,,,,,,,,,,,,,,,,,,,,,,,,,,,,,,,,,,,,,,,
686955,001,2022-11-21_01h47.35.819,Info_measure_main_exp,2022.2.2,Win32,59.40711697,,,,,,,,,,,,,,,,,,masks/mask_003.jpg,,,,,,,,,,,,,,,,,,,,,,,,,,,,,,,,,,,,,,,,,,,,,,,,0,1,1,2,1,,,,,,,,,,,,,,,,,,,,,,,,,,,,,,,,,,,,,,,,,
686955,001,2022-11-21_01h47.35.819,Info_measure_main_exp,2022.2.2,Win32,59.40711697,,,,,,,,,,,,,,,,,,masks/mask_004.jpg,,,,,,,,,,,,,,,,,,,,,,,,,,,,,,,,,,,,,,,,,,,,,,,,0,2,2,3,1,,,,,,,,,,,,,,,,,,,,,,,,,,,,,,,,,,,,,,,,,
686955,001,2022-11-21_01h47.35.819,Info_measure_main_exp,2022.2.2,Win32,59.40711697,,,,,,,,,,,,,,,,,,masks/mask_002.jpg,,,,,,,,,,,,,,,,,,,,,,,,,,,,,,,,,,,,,,,,,,,,,,,,0,3,3,1,1,,,,,,,,,,,,,,,,,,,,,,,,,,,,,,,,,,,,,,,,,
686955,001,2022-11-21_01h47.35.819,Info_measure_main_exp,2022.2.2,Win32,59.40711697,,,,,,,,,,,,,,,,,,masks/mask_001.jpg,,,,,,,,,,,,,,,,,,,,,,,,,,,,,,,,,,,,,,,,,,,,,,,,0,4,4,0,1,,,,,,,,,,,,,,,,,,,,,,,,,,,,,,,,,,,,,,,,,
686955,001,2022-11-21_01h47.35.819,Info_measure_main_exp,2022.2.2,Win32,59.40711697,,,,,,,,,,,,,,,,,,,,,,,,,,,,,,7,1.3355,1,,,,,,,,,,,,0,131,5,5,2190,2238,absent_patch/patch0002190.jpg,absent_patch/patch0002238.jpg,,,,,,,,,,,,,,,,,,,,0.008333347,0.082407386,1,0,0,response1disk,31,0.001851894,-0.003703718,1,0,0,center_square,0,30,30,53,1,,,,,,,,,,,,,,,,,,,,,,,
686955,001,2022-11-21_01h47.35.819,Info_measure_main_exp,2022.2.2,Win32,59.40711697,,,,,,,,,,,,,,,,,,masks/mask_003.jpg,,,,,,,,,,,,,,,,,,,,,,,,,,,,,,,,,,,,,,,,,,,0,0,0,2,1,,,,,,,,,,,,,,,,,,,,,,,,,,,,,,,,,,,,,,,,,,,,,,
686955,001,2022-11-21_01h47.35.819,Info_measure_main_exp,2022.2.2,Win32,59.40711697,,,,,,,,,,,,,,,,,,masks/mask_004.jpg,,,,,,,,,,,,,,,,,,,,,,,,,,,,,,,,,,,,,,,,,,,0,1,1,3,1,,,,,,,,,,,,,,,,,,,,,,,,,,,,,,,,,,,,,,,,,,,,,,
686955,001,2022-11-21_01h47.35.819,Info_measure_main_exp,2022.2.2,Win32,59.40711697,,,,,,,,,,,,,,,,,,masks/mask_005.jpg,,,,,,,,,,,,,,,,,,,,,,,,,,,,,,,,,,,,,,,,,,,0,2,2,4,1,,,,,,,,,,,,,,,,,,,,,,,,,,,,,,,,,,,,,,,,,,,,,,
686955,001,2022-11-21_01h47.35.819,Info_measure_main_exp,2022.2.2,Win32,59.40711697,,,,,,,,,,,,,,,,,,masks/mask_001.jpg,,,,,,,,,,,,,,,,,,,,,,,,,,,,,,,,,,,,,,,,,,,0,3,3,0,1,,,,,,,,,,,,,,,,,,,,,,,,,,,,,,,,,,,,,,,,,,,,,,
686955,001,2022-11-21_01h47.35.819,Info_measure_main_exp,2022.2.2,Win32,59.40711697,,,,,,,,,,,,,,,,,,masks/mask_002.jpg,,,,,,,,,,,,,,,,,,,,,,,,,,,,,,,,,,,,,,,,,,,0,4,4,1,1,,,,,,,,,,,,,,,,,,,,,,,,,,,,,,,,,,,,,,,,,,,,,,
686955,001,2022-11-21_01h47.35.819,Info_measure_main_exp,2022.2.2,Win32,59.40711697,,,,,,,,,,,,,,,,,,masks/mask_003.jpg,,,,,,,,,,,,,,,,,,,,,,,,,,,,,,,,,,,,,,,,,,,,,,,,0,0,0,2,1,,,,,,,,,,,,,,,,,,,,,,,,,,,,,,,,,,,,,,,,,
686955,001,2022-11-21_01h47.35.819,Info_measure_main_exp,2022.2.2,Win32,59.40711697,,,,,,,,,,,,,,,,,,masks/mask_004.jpg,,,,,,,,,,,,,,,,,,,,,,,,,,,,,,,,,,,,,,,,,,,,,,,,0,1,1,3,1,,,,,,,,,,,,,,,,,,,,,,,,,,,,,,,,,,,,,,,,,
686955,001,2022-11-21_01h47.35.819,Info_measure_main_exp,2022.2.2,Win32,59.40711697,,,,,,,,,,,,,,,,,,masks/mask_002.jpg,,,,,,,,,,,,,,,,,,,,,,,,,,,,,,,,,,,,,,,,,,,,,,,,0,2,2,1,1,,,,,,,,,,,,,,,,,,,,,,,,,,,,,,,,,,,,,,,,,
686955,001,2022-11-21_01h47.35.819,Info_measure_main_exp,2022.2.2,Win32,59.40711697,,,,,,,,,,,,,,,,,,masks/mask_001.jpg,,,,,,,,,,,,,,,,,,,,,,,,,,,,,,,,,,,,,,,,,,,,,,,,0,3,3,0,1,,,,,,,,,,,,,,,,,,,,,,,,,,,,,,,,,,,,,,,,,
686955,001,2022-11-21_01h47.35.819,Info_measure_main_exp,2022.2.2,Win32,59.40711697,,,,,,,,,,,,,,,,,,masks/mask_005.jpg,,,,,,,,,,,,,,,,,,,,,,,,,,,,,,,,,,,,,,,,,,,,,,,,0,4,4,4,1,,,,,,,,,,,,,,,,,,,,,,,,,,,,,,,,,,,,,,,,,
686955,001,2022-11-21_01h47.35.819,Info_measure_main_exp,2022.2.2,Win32,59.40711697,,,,,,,,,,,,,,,,,,,,,,,,,,,,,,7,0.8668,1,,,,,,,,,,,,0,131,5,5,1974,2250,absent_patch/patch0001974.jpg,absent_patch/patch0002250.jpg,,,,,,,,,,,,,,,,,,,,0.014814801,0.057407414,1,0,0,response1disk,32,0.001851894,0.000925912,1,0,0,center_square,0,31,31,55,1,,,,,,,,,,,,,,,,,,,,,,,
686955,001,2022-11-21_01h47.35.819,Info_measure_main_exp,2022.2.2,Win32,59.40711697,,,,,,,,,,,,,,,,,,masks/mask_002.jpg,,,,,,,,,,,,,,,,,,,,,,,,,,,,,,,,,,,,,,,,,,,0,0,0,1,1,,,,,,,,,,,,,,,,,,,,,,,,,,,,,,,,,,,,,,,,,,,,,,
686955,001,2022-11-21_01h47.35.819,Info_measure_main_exp,2022.2.2,Win32,59.40711697,,,,,,,,,,,,,,,,,,masks/mask_001.jpg,,,,,,,,,,,,,,,,,,,,,,,,,,,,,,,,,,,,,,,,,,,0,1,1,0,1,,,,,,,,,,,,,,,,,,,,,,,,,,,,,,,,,,,,,,,,,,,,,,
686955,001,2022-11-21_01h47.35.819,Info_measure_main_exp,2022.2.2,Win32,59.40711697,,,,,,,,,,,,,,,,,,masks/mask_004.jpg,,,,,,,,,,,,,,,,,,,,,,,,,,,,,,,,,,,,,,,,,,,0,2,2,3,1,,,,,,,,,,,,,,,,,,,,,,,,,,,,,,,,,,,,,,,,,,,,,,
686955,001,2022-11-21_01h47.35.819,Info_measure_main_exp,2022.2.2,Win32,59.40711697,,,,,,,,,,,,,,,,,,masks/mask_003.jpg,,,,,,,,,,,,,,,,,,,,,,,,,,,,,,,,,,,,,,,,,,,0,3,3,2,1,,,,,,,,,,,,,,,,,,,,,,,,,,,,,,,,,,,,,,,,,,,,,,
686955,001,2022-11-21_01h47.35.819,Info_measure_main_exp,2022.2.2,Win32,59.40711697,,,,,,,,,,,,,,,,,,masks/mask_005.jpg,,,,,,,,,,,,,,,,,,,,,,,,,,,,,,,,,,,,,,,,,,,0,4,4,4,1,,,,,,,,,,,,,,,,,,,,,,,,,,,,,,,,,,,,,,,,,,,,,,
686955,001,2022-11-21_01h47.35.819,Info_measure_main_exp,2022.2.2,Win32,59.40711697,,,,,,,,,,,,,,,,,,masks/mask_004.jpg,,,,,,,,,,,,,,,,,,,,,,,,,,,,,,,,,,,,,,,,,,,,,,,,0,0,0,3,1,,,,,,,,,,,,,,,,,,,,,,,,,,,,,,,,,,,,,,,,,
686955,001,2022-11-21_01h47.35.819,Info_measure_main_exp,2022.2.2,Win32,59.40711697,,,,,,,,,,,,,,,,,,masks/mask_005.jpg,,,,,,,,,,,,,,,,,,,,,,,,,,,,,,,,,,,,,,,,,,,,,,,,0,1,1,4,1,,,,,,,,,,,,,,,,,,,,,,,,,,,,,,,,,,,,,,,,,
686955,001,2022-11-21_01h47.35.819,Info_measure_main_exp,2022.2.2,Win32,59.40711697,,,,,,,,,,,,,,,,,,masks/mask_002.jpg,,,,,,,,,,,,,,,,,,,,,,,,,,,,,,,,,,,,,,,,,,,,,,,,0,2,2,1,1,,,,,,,,,,,,,,,,,,,,,,,,,,,,,,,,,,,,,,,,,
686955,001,2022-11-21_01h47.35.819,Info_measure_main_exp,2022.2.2,Win32,59.40711697,,,,,,,,,,,,,,,,,,masks/mask_003.jpg,,,,,,,,,,,,,,,,,,,,,,,,,,,,,,,,,,,,,,,,,,,,,,,,0,3,3,2,1,,,,,,,,,,,,,,,,,,,,,,,,,,,,,,,,,,,,,,,,,
686955,001,2022-11-21_01h47.35.819,Info_measure_main_exp,2022.2.2,Win32,59.40711697,,,,,,,,,,,,,,,,,,masks/mask_001.jpg,,,,,,,,,,,,,,,,,,,,,,,,,,,,,,,,,,,,,,,,,,,,,,,,0,4,4,0,1,,,,,,,,,,,,,,,,,,,,,,,,,,,,,,,,,,,,,,,,,
686955,001,2022-11-21_01h47.35.819,Info_measure_main_exp,2022.2.2,Win32,59.40711697,,,,,,,,,,,,,,,,,,,,,,,,,,,,,,7,0.7832,1,,,,,,,,,,,,0,131,5,5,2082,2250,absent_patch/patch0002082.jpg,absent_patch/patch0002250.jpg,,,,,,,,,,,,,,,,,,,,0.027777778,0.138888889,1,0,0,response1disk,33,0.008333347,0.011111118,1,0,0,center_square,0,32,32,3,1,,,,,,,,,,,,,,,,,,,,,,,
686955,001,2022-11-21_01h47.35.819,Info_measure_main_exp,2022.2.2,Win32,59.40711697,,,,,,,,,,,,,,,,,,masks/mask_005.jpg,,,,,,,,,,,,,,,,,,,,,,,,,,,,,,,,,,,,,,,,,,,0,0,0,4,1,,,,,,,,,,,,,,,,,,,,,,,,,,,,,,,,,,,,,,,,,,,,,,
686955,001,2022-11-21_01h47.35.819,Info_measure_main_exp,2022.2.2,Win32,59.40711697,,,,,,,,,,,,,,,,,,masks/mask_003.jpg,,,,,,,,,,,,,,,,,,,,,,,,,,,,,,,,,,,,,,,,,,,0,1,1,2,1,,,,,,,,,,,,,,,,,,,,,,,,,,,,,,,,,,,,,,,,,,,,,,
686955,001,2022-11-21_01h47.35.819,Info_measure_main_exp,2022.2.2,Win32,59.40711697,,,,,,,,,,,,,,,,,,masks/mask_001.jpg,,,,,,,,,,,,,,,,,,,,,,,,,,,,,,,,,,,,,,,,,,,0,2,2,0,1,,,,,,,,,,,,,,,,,,,,,,,,,,,,,,,,,,,,,,,,,,,,,,
686955,001,2022-11-21_01h47.35.819,Info_measure_main_exp,2022.2.2,Win32,59.40711697,,,,,,,,,,,,,,,,,,masks/mask_002.jpg,,,,,,,,,,,,,,,,,,,,,,,,,,,,,,,,,,,,,,,,,,,0,3,3,1,1,,,,,,,,,,,,,,,,,,,,,,,,,,,,,,,,,,,,,,,,,,,,,,
686955,001,2022-11-21_01h47.35.819,Info_measure_main_exp,2022.2.2,Win32,59.40711697,,,,,,,,,,,,,,,,,,masks/mask_004.jpg,,,,,,,,,,,,,,,,,,,,,,,,,,,,,,,,,,,,,,,,,,,0,4,4,3,1,,,,,,,,,,,,,,,,,,,,,,,,,,,,,,,,,,,,,,,,,,,,,,
686955,001,2022-11-21_01h47.35.819,Info_measure_main_exp,2022.2.2,Win32,59.40711697,,,,,,,,,,,,,,,,,,masks/mask_002.jpg,,,,,,,,,,,,,,,,,,,,,,,,,,,,,,,,,,,,,,,,,,,,,,,,0,0,0,1,1,,,,,,,,,,,,,,,,,,,,,,,,,,,,,,,,,,,,,,,,,
686955,001,2022-11-21_01h47.35.819,Info_measure_main_exp,2022.2.2,Win32,59.40711697,,,,,,,,,,,,,,,,,,masks/mask_003.jpg,,,,,,,,,,,,,,,,,,,,,,,,,,,,,,,,,,,,,,,,,,,,,,,,0,1,1,2,1,,,,,,,,,,,,,,,,,,,,,,,,,,,,,,,,,,,,,,,,,
686955,001,2022-11-21_01h47.35.819,Info_measure_main_exp,2022.2.2,Win32,59.40711697,,,,,,,,,,,,,,,,,,masks/mask_005.jpg,,,,,,,,,,,,,,,,,,,,,,,,,,,,,,,,,,,,,,,,,,,,,,,,0,2,2,4,1,,,,,,,,,,,,,,,,,,,,,,,,,,,,,,,,,,,,,,,,,
686955,001,2022-11-21_01h47.35.819,Info_measure_main_exp,2022.2.2,Win32,59.40711697,,,,,,,,,,,,,,,,,,masks/mask_004.jpg,,,,,,,,,,,,,,,,,,,,,,,,,,,,,,,,,,,,,,,,,,,,,,,,0,3,3,3,1,,,,,,,,,,,,,,,,,,,,,,,,,,,,,,,,,,,,,,,,,
686955,001,2022-11-21_01h47.35.819,Info_measure_main_exp,2022.2.2,Win32,59.40711697,,,,,,,,,,,,,,,,,,masks/mask_001.jpg,,,,,,,,,,,,,,,,,,,,,,,,,,,,,,,,,,,,,,,,,,,,,,,,0,4,4,0,1,,,,,,,,,,,,,,,,,,,,,,,,,,,,,,,,,,,,,,,,,
686955,001,2022-11-21_01h47.35.819,Info_measure_main_exp,2022.2.2,Win32,59.40711697,,,,,,,,,,,,,,,,,,,,,,,,,,,,,,7,1.1321,1,,,,,,,,,,,,1,131,5,5,2190,1,absent_patch/patch0002190.jpg,present_patch/cong_131_5_a.jpg,,,,,,,,,,,,,,,,,,,,0.086111139,0.151851831,1,0,0,response1disk,34,0.002777806,0,1,0,0,center_square,0,33,33,64,1,,,,,,,,,,,,,,,,,,,,,,,
686955,001,2022-11-21_01h47.35.819,Info_measure_main_exp,2022.2.2,Win32,59.40711697,,,,,,,,,,,,,,,,,,masks/mask_002.jpg,,,,,,,,,,,,,,,,,,,,,,,,,,,,,,,,,,,,,,,,,,,0,0,0,1,1,,,,,,,,,,,,,,,,,,,,,,,,,,,,,,,,,,,,,,,,,,,,,,
686955,001,2022-11-21_01h47.35.819,Info_measure_main_exp,2022.2.2,Win32,59.40711697,,,,,,,,,,,,,,,,,,masks/mask_005.jpg,,,,,,,,,,,,,,,,,,,,,,,,,,,,,,,,,,,,,,,,,,,0,1,1,4,1,,,,,,,,,,,,,,,,,,,,,,,,,,,,,,,,,,,,,,,,,,,,,,
686955,001,2022-11-21_01h47.35.819,Info_measure_main_exp,2022.2.2,Win32,59.40711697,,,,,,,,,,,,,,,,,,masks/mask_001.jpg,,,,,,,,,,,,,,,,,,,,,,,,,,,,,,,,,,,,,,,,,,,0,2,2,0,1,,,,,,,,,,,,,,,,,,,,,,,,,,,,,,,,,,,,,,,,,,,,,,
686955,001,2022-11-21_01h47.35.819,Info_measure_main_exp,2022.2.2,Win32,59.40711697,,,,,,,,,,,,,,,,,,masks/mask_004.jpg,,,,,,,,,,,,,,,,,,,,,,,,,,,,,,,,,,,,,,,,,,,0,3,3,3,1,,,,,,,,,,,,,,,,,,,,,,,,,,,,,,,,,,,,,,,,,,,,,,
686955,001,2022-11-21_01h47.35.819,Info_measure_main_exp,2022.2.2,Win32,59.40711697,,,,,,,,,,,,,,,,,,masks/mask_003.jpg,,,,,,,,,,,,,,,,,,,,,,,,,,,,,,,,,,,,,,,,,,,0,4,4,2,1,,,,,,,,,,,,,,,,,,,,,,,,,,,,,,,,,,,,,,,,,,,,,,
686955,001,2022-11-21_01h47.35.819,Info_measure_main_exp,2022.2.2,Win32,59.40711697,,,,,,,,,,,,,,,,,,masks/mask_004.jpg,,,,,,,,,,,,,,,,,,,,,,,,,,,,,,,,,,,,,,,,,,,,,,,,0,0,0,3,1,,,,,,,,,,,,,,,,,,,,,,,,,,,,,,,,,,,,,,,,,
686955,001,2022-11-21_01h47.35.819,Info_measure_main_exp,2022.2.2,Win32,59.40711697,,,,,,,,,,,,,,,,,,masks/mask_003.jpg,,,,,,,,,,,,,,,,,,,,,,,,,,,,,,,,,,,,,,,,,,,,,,,,0,1,1,2,1,,,,,,,,,,,,,,,,,,,,,,,,,,,,,,,,,,,,,,,,,
686955,001,2022-11-21_01h47.35.819,Info_measure_main_exp,2022.2.2,Win32,59.40711697,,,,,,,,,,,,,,,,,,masks/mask_005.jpg,,,,,,,,,,,,,,,,,,,,,,,,,,,,,,,,,,,,,,,,,,,,,,,,0,2,2,4,1,,,,,,,,,,,,,,,,,,,,,,,,,,,,,,,,,,,,,,,,,
686955,001,2022-11-21_01h47.35.819,Info_measure_main_exp,2022.2.2,Win32,59.40711697,,,,,,,,,,,,,,,,,,masks/mask_002.jpg,,,,,,,,,,,,,,,,,,,,,,,,,,,,,,,,,,,,,,,,,,,,,,,,0,3,3,1,1,,,,,,,,,,,,,,,,,,,,,,,,,,,,,,,,,,,,,,,,,
