participant,session,date,expName,psychopyVersion,OS,frameRate,space_press_continue.keys,space_press_continue.rt,space_press_continue_2.keys,space_press_continue_2.rt,space_press_continue_3.keys,space_press_continue_3.rt,space_press_continue_4.keys,space_press_continue_4.rt,space_press_continue_5.keys,space_press_continue_5.rt,space_press_continue_6.keys,space_press_continue_6.rt,prac_mask_loop_1.thisRepN,prac_mask_loop_1.thisTrialN,prac_mask_loop_1.thisN,prac_mask_loop_1.thisIndex,prac_mask_loop_1.ran,mask_name,prac_mask_loop_2.thisRepN,prac_mask_loop_2.thisTrialN,prac_mask_loop_2.thisN,prac_mask_loop_2.thisIndex,prac_mask_loop_2.ran,mouse_2.x,mouse_2.y,mouse_2.leftButton,mouse_2.midButton,mouse_2.rightButton,mouse_2.clicked_name,similarity,response_time,Pass,mouse_12.x,mouse_12.y,mouse_12.leftButton,mouse_12.midButton,mouse_12.rightButton,mouse_12.clicked_name,prac_loop.thisRepN,prac_loop.thisTrialN,prac_loop.thisN,prac_loop.thisIndex,prac_loop.ran,Pair_type,Image_num,Patch_1_loc,Patch_2_loc,Patch_1_info,Patch_2_info,Patch_1_name,Patch_2_name,mouse_1.x,mouse_1.y,mouse_1.leftButton,mouse_1.midButton,mouse_1.rightButton,mouse_1.time,mouse_1.clicked_name,space_press_continue_7.keys,space_press_continue_7.rt,mask_loop.thisRepN,mask_loop.thisTrialN,mask_loop.thisN,mask_loop.thisIndex,mask_loop.ran,mask_loop_2.thisRepN,mask_loop_2.thisTrialN,mask_loop_2.thisN,mask_loop_2.thisIndex,mask_loop_2.ran,mouse.x,mouse.y,mouse.leftButton,mouse.midButton,mouse.rightButton,mouse.clicked_name,trialNumber,mouse_11.x,mouse_11.y,mouse_11.leftButton,mouse_11.midButton,mouse_11.rightButton,mouse_11.clicked_name,first_pass_loop.thisRepN,first_pass_loop.thisTrialN,first_pass_loop.thisN,first_pass_loop.thisIndex,first_pass_loop.ran,mask_loop_3.thisRepN,mask_loop_3.thisTrialN,mask_loop_3.thisN,mask_loop_3.thisIndex,mask_loop_3.ran,mask_loop_4.thisRepN,mask_loop_4.thisTrialN,mask_loop_4.thisN,mask_loop_4.thisIndex,mask_loop_4.ran,mouse_3.x,mouse_3.y,mouse_3.leftButton,mouse_3.midButton,mouse_3.rightButton,mouse_3.clicked_name,double_pass_loop.thisRepN,double_pass_loop.thisTrialN,double_pass_loop.thisN,double_pass_loop.thisIndex,double_pass_loop.ran,space_exit.keys,space_exit.rt
689121,001,2022-11-20_23h51.56.088,Info_measure_main_exp,2022.2.2,Win32,144.1545337,,,,,,,,,,,,,,,,,,,,,,,,,,,,,,,,,,,,,,,,,,,,,,,,,,,,,,,,,,,,,,,,,,,,,,,,,,,,,,,,,,,,,,,,,,,,,,,,,,,,,,,,,,,,,,,
689121,001,2022-11-20_23h51.56.088,Info_measure_main_exp,2022.2.2,Win32,144.1545337,,,,,,,,,,,,,,,,,,,,,,,,,,,,,,,,,,,,,,,,,,,,,,,,,,,,,,,,,,,,,,,,,,,,,,,,,,,,,,,,,,,,,,,,,,,,,,,,,,,,,,,,,,,,,,,
689121,001,2022-11-20_23h51.56.088,Info_measure_main_exp,2022.2.2,Win32,144.1545337,space,11.8773,,,,,,,,,,,,,,,,,,,,,,,,,,,,,,,,,,,,,,,,,,,,,,,,,,,,,,,,,,,,,,,,,,,,,,,,,,,,,,,,,,,,,,,,,,,,,,,,,,,,,,,,,,,,,
689121,001,2022-11-20_23h51.56.088,Info_measure_main_exp,2022.2.2,Win32,144.1545337,,,space,17.0279,,,,,,,,,,,,,,,,,,,,,,,,,,,,,,,,,,,,,,,,,,,,,,,,,,,,,,,,,,,,,,,,,,,,,,,,,,,,,,,,,,,,,,,,,,,,,,,,,,,,,,,,,,,
689121,001,2022-11-20_23h51.56.088,Info_measure_main_exp,2022.2.2,Win32,144.1545337,,,,,space,10.9944,,,,,,,,,,,,,,,,,,,,,,,,,,,,,,,,,,,,,,,,,,,,,,,,,,,,,,,,,,,,,,,,,,,,,,,,,,,,,,,,,,,,,,,,,,,,,,,,,,,,,,,,,
689121,001,2022-11-20_23h51.56.088,Info_measure_main_exp,2022.2.2,Win32,144.1545337,,,,,,,space,23.5614,,,,,,,,,,,,,,,,,,,,,,,,,,,,,,,,,,,,,,,,,,,,,,,,,,,,,,,,,,,,,,,,,,,,,,,,,,,,,,,,,,,,,,,,,,,,,,,,,,,,,,,
689121,001,2022-11-20_23h51.56.088,Info_measure_main_exp,2022.2.2,Win32,144.1545337,,,,,,,,,space,7.9973,,,,,,,,,,,,,,,,,,,,,,,,,,,,,,,,,,,,,,,,,,,,,,,,,,,,,,,,,,,,,,,,,,,,,,,,,,,,,,,,,,,,,,,,,,,,,,,,,,,,,
689121,001,2022-11-20_23h51.56.088,Info_measure_main_exp,2022.2.2,Win32,144.1545337,,,,,,,,,,,space,7.0473,,,,,,,,,,,,,,,,,,,,,,,,,,,,,,,,,,,,,,,,,,,,,,,,,,,,,,,,,,,,,,,,,,,,,,,,,,,,,,,,,,,,,,,,,,,,,,,,,,,
689121,001,2022-11-20_23h51.56.088,Info_measure_main_exp,2022.2.2,Win32,144.1545337,,,,,,,,,,,,,0,0,0,0,1,masks/mask_001.jpg,,,,,,,,,,,,,,,,,,,,,,,,,,,,,,,,,,,,,,,,,,,,,,,,,,,,,,,,,,,,,,,,,,,,,,,,,,,,,,,,,,,,,,,,,,,,,
689121,001,2022-11-20_23h51.56.088,Info_measure_main_exp,2022.2.2,Win32,144.1545337,,,,,,,,,,,,,0,1,1,4,1,masks/mask_005.jpg,,,,,,,,,,,,,,,,,,,,,,,,,,,,,,,,,,,,,,,,,,,,,,,,,,,,,,,,,,,,,,,,,,,,,,,,,,,,,,,,,,,,,,,,,,,,,
689121,001,2022-11-20_23h51.56.088,Info_measure_main_exp,2022.2.2,Win32,144.1545337,,,,,,,,,,,,,0,2,2,2,1,masks/mask_003.jpg,,,,,,,,,,,,,,,,,,,,,,,,,,,,,,,,,,,,,,,,,,,,,,,,,,,,,,,,,,,,,,,,,,,,,,,,,,,,,,,,,,,,,,,,,,,,,
689121,001,2022-11-20_23h51.56.088,Info_measure_main_exp,2022.2.2,Win32,144.1545337,,,,,,,,,,,,,0,3,3,1,1,masks/mask_002.jpg,,,,,,,,,,,,,,,,,,,,,,,,,,,,,,,,,,,,,,,,,,,,,,,,,,,,,,,,,,,,,,,,,,,,,,,,,,,,,,,,,,,,,,,,,,,,,
689121,001,2022-11-20_23h51.56.088,Info_measure_main_exp,2022.2.2,Win32,144.1545337,,,,,,,,,,,,,0,4,4,3,1,masks/mask_004.jpg,,,,,,,,,,,,,,,,,,,,,,,,,,,,,,,,,,,,,,,,,,,,,,,,,,,,,,,,,,,,,,,,,,,,,,,,,,,,,,,,,,,,,,,,,,,,,
689121,001,2022-11-20_23h51.56.088,Info_measure_main_exp,2022.2.2,Win32,144.1545337,,,,,,,,,,,,,,,,,,masks/mask_004.jpg,0,0,0,3,1,,,,,,,,,,,,,,,,,,,,,,,,,,,,,,,,,,,,,,,,,,,,,,,,,,,,,,,,,,,,,,,,,,,,,,,,,,,,,,,,,,,,,,,,
689121,001,2022-11-20_23h51.56.088,Info_measure_main_exp,2022.2.2,Win32,144.1545337,,,,,,,,,,,,,,,,,,masks/mask_002.jpg,0,1,1,1,1,,,,,,,,,,,,,,,,,,,,,,,,,,,,,,,,,,,,,,,,,,,,,,,,,,,,,,,,,,,,,,,,,,,,,,,,,,,,,,,,,,,,,,,,
689121,001,2022-11-20_23h51.56.088,Info_measure_main_exp,2022.2.2,Win32,144.1545337,,,,,,,,,,,,,,,,,,masks/mask_005.jpg,0,2,2,4,1,,,,,,,,,,,,,,,,,,,,,,,,,,,,,,,,,,,,,,,,,,,,,,,,,,,,,,,,,,,,,,,,,,,,,,,,,,,,,,,,,,,,,,,,
689121,001,2022-11-20_23h51.56.088,Info_measure_main_exp,2022.2.2,Win32,144.1545337,,,,,,,,,,,,,,,,,,masks/mask_003.jpg,0,3,3,2,1,,,,,,,,,,,,,,,,,,,,,,,,,,,,,,,,,,,,,,,,,,,,,,,,,,,,,,,,,,,,,,,,,,,,,,,,,,,,,,,,,,,,,,,,
689121,001,2022-11-20_23h51.56.088,Info_measure_main_exp,2022.2.2,Win32,144.1545337,,,,,,,,,,,,,,,,,,masks/mask_001.jpg,0,4,4,0,1,,,,,,,,,,,,,,,,,,,,,,,,,,,,,,,,,,,,,,,,,,,,,,,,,,,,,,,,,,,,,,,,,,,,,,,,,,,,,,,,,,,,,,,,
689121,001,2022-11-20_23h51.56.088,Info_measure_main_exp,2022.2.2,Win32,144.1545337,,,,,,,,,,,,,,,,,,,,,,,,0.077777778,-0.17037037,1,0,0,response3disk,4,85.3739,1,-0.000925926,0.000925926,1,0,0,center_square,0,0,0,1,1,0,131,5,5,2514,2490,prac_patch/patch0002514.jpg,prac_patch/patch0002490.jpg,,,,,,,,,,,,,,,,,,,,,,,,,,,,,,,,,,,,,,,,,,,,,,,,,,,,,,,,,,,,
689121,001,2022-11-20_23h51.56.088,Info_measure_main_exp,2022.2.2,Win32,144.1545337,,,,,,,,,,,,,0,0,0,4,1,masks/mask_005.jpg,,,,,,,,,,,,,,,,,,,,,,,,,,,,,,,,,,,,,,,,,,,,,,,,,,,,,,,,,,,,,,,,,,,,,,,,,,,,,,,,,,,,,,,,,,,,,
689121,001,2022-11-20_23h51.56.088,Info_measure_main_exp,2022.2.2,Win32,144.1545337,,,,,,,,,,,,,0,1,1,1,1,masks/mask_002.jpg,,,,,,,,,,,,,,,,,,,,,,,,,,,,,,,,,,,,,,,,,,,,,,,,,,,,,,,,,,,,,,,,,,,,,,,,,,,,,,,,,,,,,,,,,,,,,
689121,001,2022-11-20_23h51.56.088,Info_measure_main_exp,2022.2.2,Win32,144.1545337,,,,,,,,,,,,,0,2,2,2,1,masks/mask_003.jpg,,,,,,,,,,,,,,,,,,,,,,,,,,,,,,,,,,,,,,,,,,,,,,,,,,,,,,,,,,,,,,,,,,,,,,,,,,,,,,,,,,,,,,,,,,,,,
689121,001,2022-11-20_23h51.56.088,Info_measure_main_exp,2022.2.2,Win32,144.1545337,,,,,,,,,,,,,0,3,3,0,1,masks/mask_001.jpg,,,,,,,,,,,,,,,,,,,,,,,,,,,,,,,,,,,,,,,,,,,,,,,,,,,,,,,,,,,,,,,,,,,,,,,,,,,,,,,,,,,,,,,,,,,,,
689121,001,2022-11-20_23h51.56.088,Info_measure_main_exp,2022.2.2,Win32,144.1545337,,,,,,,,,,,,,0,4,4,3,1,masks/mask_004.jpg,,,,,,,,,,,,,,,,,,,,,,,,,,,,,,,,,,,,,,,,,,,,,,,,,,,,,,,,,,,,,,,,,,,,,,,,,,,,,,,,,,,,,,,,,,,,,
689121,001,2022-11-20_23h51.56.088,Info_measure_main_exp,2022.2.2,Win32,144.1545337,,,,,,,,,,,,,,,,,,masks/mask_003.jpg,0,0,0,2,1,,,,,,,,,,,,,,,,,,,,,,,,,,,,,,,,,,,,,,,,,,,,,,,,,,,,,,,,,,,,,,,,,,,,,,,,,,,,,,,,,,,,,,,,
689121,001,2022-11-20_23h51.56.088,Info_measure_main_exp,2022.2.2,Win32,144.1545337,,,,,,,,,,,,,,,,,,masks/mask_002.jpg,0,1,1,1,1,,,,,,,,,,,,,,,,,,,,,,,,,,,,,,,,,,,,,,,,,,,,,,,,,,,,,,,,,,,,,,,,,,,,,,,,,,,,,,,,,,,,,,,,
689121,001,2022-11-20_23h51.56.088,Info_measure_main_exp,2022.2.2,Win32,144.1545337,,,,,,,,,,,,,,,,,,masks/mask_005.jpg,0,2,2,4,1,,,,,,,,,,,,,,,,,,,,,,,,,,,,,,,,,,,,,,,,,,,,,,,,,,,,,,,,,,,,,,,,,,,,,,,,,,,,,,,,,,,,,,,,
689121,001,2022-11-20_23h51.56.088,Info_measure_main_exp,2022.2.2,Win32,144.1545337,,,,,,,,,,,,,,,,,,masks/mask_001.jpg,0,3,3,0,1,,,,,,,,,,,,,,,,,,,,,,,,,,,,,,,,,,,,,,,,,,,,,,,,,,,,,,,,,,,,,,,,,,,,,,,,,,,,,,,,,,,,,,,,
689121,001,2022-11-20_23h51.56.088,Info_measure_main_exp,2022.2.2,Win32,144.1545337,,,,,,,,,,,,,,,,,,masks/mask_004.jpg,0,4,4,3,1,,,,,,,,,,,,,,,,,,,,,,,,,,,,,,,,,,,,,,,,,,,,,,,,,,,,,,,,,,,,,,,,,,,,,,,,,,,,,,,,,,,,,,,,
689121,001,2022-11-20_23h51.56.088,Info_measure_main_exp,2022.2.2,Win32,144.1545337,,,,,,,,,,,,,,,,,,,,,,,,0.042592593,0.093518519,1,0,0,response1disk,7,101.3267,1,0.001851852,-0.006481481,1,0,0,center_square,0,1,1,0,1,0,131,5,5,2370,2406,prac_patch/patch0002370.jpg,prac_patch/patch0002406.jpg,,,,,,,,,,,,,,,,,,,,,,,,,,,,,,,,,,,,,,,,,,,,,,,,,,,,,,,,,,,,
689121,001,2022-11-20_23h51.56.088,Info_measure_main_exp,2022.2.2,Win32,144.1545337,,,,,,,,,,,,,0,0,0,4,1,masks/mask_005.jpg,,,,,,,,,,,,,,,,,,,,,,,,,,,,,,,,,,,,,,,,,,,,,,,,,,,,,,,,,,,,,,,,,,,,,,,,,,,,,,,,,,,,,,,,,,,,,
689121,001,2022-11-20_23h51.56.088,Info_measure_main_exp,2022.2.2,Win32,144.1545337,,,,,,,,,,,,,0,1,1,2,1,masks/mask_003.jpg,,,,,,,,,,,,,,,,,,,,,,,,,,,,,,,,,,,,,,,,,,,,,,,,,,,,,,,,,,,,,,,,,,,,,,,,,,,,,,,,,,,,,,,,,,,,,
689121,001,2022-11-20_23h51.56.088,Info_measure_main_exp,2022.2.2,Win32,144.1545337,,,,,,,,,,,,,0,2,2,0,1,masks/mask_001.jpg,,,,,,,,,,,,,,,,,,,,,,,,,,,,,,,,,,,,,,,,,,,,,,,,,,,,,,,,,,,,,,,,,,,,,,,,,,,,,,,,,,,,,,,,,,,,,
689121,001,2022-11-20_23h51.56.088,Info_measure_main_exp,2022.2.2,Win32,144.1545337,,,,,,,,,,,,,0,3,3,3,1,masks/mask_004.jpg,,,,,,,,,,,,,,,,,,,,,,,,,,,,,,,,,,,,,,,,,,,,,,,,,,,,,,,,,,,,,,,,,,,,,,,,,,,,,,,,,,,,,,,,,,,,,
689121,001,2022-11-20_23h51.56.088,Info_measure_main_exp,2022.2.2,Win32,144.1545337,,,,,,,,,,,,,0,4,4,1,1,masks/mask_002.jpg,,,,,,,,,,,,,,,,,,,,,,,,,,,,,,,,,,,,,,,,,,,,,,,,,,,,,,,,,,,,,,,,,,,,,,,,,,,,,,,,,,,,,,,,,,,,,
689121,001,2022-11-20_23h51.56.088,Info_measure_main_exp,2022.2.2,Win32,144.1545337,,,,,,,,,,,,,,,,,,masks/mask_002.jpg,0,0,0,1,1,,,,,,,,,,,,,,,,,,,,,,,,,,,,,,,,,,,,,,,,,,,,,,,,,,,,,,,,,,,,,,,,,,,,,,,,,,,,,,,,,,,,,,,,
689121,001,2022-11-20_23h51.56.088,Info_measure_main_exp,2022.2.2,Win32,144.1545337,,,,,,,,,,,,,,,,,,masks/mask_001.jpg,0,1,1,0,1,,,,,,,,,,,,,,,,,,,,,,,,,,,,,,,,,,,,,,,,,,,,,,,,,,,,,,,,,,,,,,,,,,,,,,,,,,,,,,,,,,,,,,,,
689121,001,2022-11-20_23h51.56.088,Info_measure_main_exp,2022.2.2,Win32,144.1545337,,,,,,,,,,,,,,,,,,masks/mask_003.jpg,0,2,2,2,1,,,,,,,,,,,,,,,,,,,,,,,,,,,,,,,,,,,,,,,,,,,,,,,,,,,,,,,,,,,,,,,,,,,,,,,,,,,,,,,,,,,,,,,,
689121,001,2022-11-20_23h51.56.088,Info_measure_main_exp,2022.2.2,Win32,144.1545337,,,,,,,,,,,,,,,,,,masks/mask_005.jpg,0,3,3,4,1,,,,,,,,,,,,,,,,,,,,,,,,,,,,,,,,,,,,,,,,,,,,,,,,,,,,,,,,,,,,,,,,,,,,,,,,,,,,,,,,,,,,,,,,
689121,001,2022-11-20_23h51.56.088,Info_measure_main_exp,2022.2.2,Win32,144.1545337,,,,,,,,,,,,,,,,,,masks/mask_004.jpg,0,4,4,3,1,,,,,,,,,,,,,,,,,,,,,,,,,,,,,,,,,,,,,,,,,,,,,,,,,,,,,,,,,,,,,,,,,,,,,,,,,,,,,,,,,,,,,,,,
689121,001,2022-11-20_23h51.56.088,Info_measure_main_exp,2022.2.2,Win32,144.1545337,,,,,,,,,,,,,,,,,,,,,,,,-0.097222222,0.014814815,1,0,0,response7disk,1,111.5076,1,-0.003703704,-0.00462963,1,0,0,center_square,0,2,2,2,1,0,131,5,5,2526,2526,prac_patch/patch0002526.jpg,prac_patch/patch0002526.jpg,,,,,,,,,,,,,,,,,,,,,,,,,,,,,,,,,,,,,,,,,,,,,,,,,,,,,,,,,,,,
689121,001,2022-11-20_23h51.56.088,Info_measure_main_exp,2022.2.2,Win32,144.1545337,,,,,,,,,,,,,,,,,,,,,,,,,,,,,,,,,,,,,,,,,,,,,,,,,,,,,,,,,,,space,3.8016,,,,,,,,,,,,,,,,,,,,,,,,,,,,,,,,,,,,,,,,,,,,,,,,,,,
689121,001,2022-11-20_23h51.56.088,Info_measure_main_exp,2022.2.2,Win32,144.1545337,,,,,,,,,,,,,,,,,,masks/mask_002.jpg,,,,,,,,,,,,,,,,,,,,,,,,,,,,,,,,,,,,,,,,,,,0,0,0,1,1,,,,,,,,,,,,,,,,,,,,,,,,,,,,,,,,,,,,,,,,,,,,,,
689121,001,2022-11-20_23h51.56.088,Info_measure_main_exp,2022.2.2,Win32,144.1545337,,,,,,,,,,,,,,,,,,masks/mask_005.jpg,,,,,,,,,,,,,,,,,,,,,,,,,,,,,,,,,,,,,,,,,,,0,1,1,4,1,,,,,,,,,,,,,,,,,,,,,,,,,,,,,,,,,,,,,,,,,,,,,,
689121,001,2022-11-20_23h51.56.088,Info_measure_main_exp,2022.2.2,Win32,144.1545337,,,,,,,,,,,,,,,,,,masks/mask_004.jpg,,,,,,,,,,,,,,,,,,,,,,,,,,,,,,,,,,,,,,,,,,,0,2,2,3,1,,,,,,,,,,,,,,,,,,,,,,,,,,,,,,,,,,,,,,,,,,,,,,
689121,001,2022-11-20_23h51.56.088,Info_measure_main_exp,2022.2.2,Win32,144.1545337,,,,,,,,,,,,,,,,,,masks/mask_001.jpg,,,,,,,,,,,,,,,,,,,,,,,,,,,,,,,,,,,,,,,,,,,0,3,3,0,1,,,,,,,,,,,,,,,,,,,,,,,,,,,,,,,,,,,,,,,,,,,,,,
689121,001,2022-11-20_23h51.56.088,Info_measure_main_exp,2022.2.2,Win32,144.1545337,,,,,,,,,,,,,,,,,,masks/mask_003.jpg,,,,,,,,,,,,,,,,,,,,,,,,,,,,,,,,,,,,,,,,,,,0,4,4,2,1,,,,,,,,,,,,,,,,,,,,,,,,,,,,,,,,,,,,,,,,,,,,,,
689121,001,2022-11-20_23h51.56.088,Info_measure_main_exp,2022.2.2,Win32,144.1545337,,,,,,,,,,,,,,,,,,masks/mask_003.jpg,,,,,,,,,,,,,,,,,,,,,,,,,,,,,,,,,,,,,,,,,,,,,,,,0,0,0,2,1,,,,,,,,,,,,,,,,,,,,,,,,,,,,,,,,,,,,,,,,,
689121,001,2022-11-20_23h51.56.088,Info_measure_main_exp,2022.2.2,Win32,144.1545337,,,,,,,,,,,,,,,,,,masks/mask_001.jpg,,,,,,,,,,,,,,,,,,,,,,,,,,,,,,,,,,,,,,,,,,,,,,,,0,1,1,0,1,,,,,,,,,,,,,,,,,,,,,,,,,,,,,,,,,,,,,,,,,
689121,001,2022-11-20_23h51.56.088,Info_measure_main_exp,2022.2.2,Win32,144.1545337,,,,,,,,,,,,,,,,,,masks/mask_002.jpg,,,,,,,,,,,,,,,,,,,,,,,,,,,,,,,,,,,,,,,,,,,,,,,,0,2,2,1,1,,,,,,,,,,,,,,,,,,,,,,,,,,,,,,,,,,,,,,,,,
689121,001,2022-11-20_23h51.56.088,Info_measure_main_exp,2022.2.2,Win32,144.1545337,,,,,,,,,,,,,,,,,,masks/mask_005.jpg,,,,,,,,,,,,,,,,,,,,,,,,,,,,,,,,,,,,,,,,,,,,,,,,0,3,3,4,1,,,,,,,,,,,,,,,,,,,,,,,,,,,,,,,,,,,,,,,,,
689121,001,2022-11-20_23h51.56.088,Info_measure_main_exp,2022.2.2,Win32,144.1545337,,,,,,,,,,,,,,,,,,masks/mask_004.jpg,,,,,,,,,,,,,,,,,,,,,,,,,,,,,,,,,,,,,,,,,,,,,,,,0,4,4,3,1,,,,,,,,,,,,,,,,,,,,,,,,,,,,,,,,,,,,,,,,,
689121,001,2022-11-20_23h51.56.088,Info_measure_main_exp,2022.2.2,Win32,144.1545337,,,,,,,,,,,,,,,,,,,,,,,,,,,,,,7,0.889,1,,,,,,,,,,,,0,131,5,5,2082,2238,absent_patch/patch0002082.jpg,absent_patch/patch0002238.jpg,,,,,,,,,,,,,,,,,,,,0.075,0.130555556,1,0,0,response1disk,1,-0.003703704,0,1,0,0,center_square,0,0,0,22,1,,,,,,,,,,,,,,,,,,,,,,,
689121,001,2022-11-20_23h51.56.088,Info_measure_main_exp,2022.2.2,Win32,144.1545337,,,,,,,,,,,,,,,,,,masks/mask_005.jpg,,,,,,,,,,,,,,,,,,,,,,,,,,,,,,,,,,,,,,,,,,,0,0,0,4,1,,,,,,,,,,,,,,,,,,,,,,,,,,,,,,,,,,,,,,,,,,,,,,
689121,001,2022-11-20_23h51.56.088,Info_measure_main_exp,2022.2.2,Win32,144.1545337,,,,,,,,,,,,,,,,,,masks/mask_004.jpg,,,,,,,,,,,,,,,,,,,,,,,,,,,,,,,,,,,,,,,,,,,0,1,1,3,1,,,,,,,,,,,,,,,,,,,,,,,,,,,,,,,,,,,,,,,,,,,,,,
689121,001,2022-11-20_23h51.56.088,Info_measure_main_exp,2022.2.2,Win32,144.1545337,,,,,,,,,,,,,,,,,,masks/mask_001.jpg,,,,,,,,,,,,,,,,,,,,,,,,,,,,,,,,,,,,,,,,,,,0,2,2,0,1,,,,,,,,,,,,,,,,,,,,,,,,,,,,,,,,,,,,,,,,,,,,,,
689121,001,2022-11-20_23h51.56.088,Info_measure_main_exp,2022.2.2,Win32,144.1545337,,,,,,,,,,,,,,,,,,masks/mask_002.jpg,,,,,,,,,,,,,,,,,,,,,,,,,,,,,,,,,,,,,,,,,,,0,3,3,1,1,,,,,,,,,,,,,,,,,,,,,,,,,,,,,,,,,,,,,,,,,,,,,,
689121,001,2022-11-20_23h51.56.088,Info_measure_main_exp,2022.2.2,Win32,144.1545337,,,,,,,,,,,,,,,,,,masks/mask_003.jpg,,,,,,,,,,,,,,,,,,,,,,,,,,,,,,,,,,,,,,,,,,,0,4,4,2,1,,,,,,,,,,,,,,,,,,,,,,,,,,,,,,,,,,,,,,,,,,,,,,
689121,001,2022-11-20_23h51.56.088,Info_measure_main_exp,2022.2.2,Win32,144.1545337,,,,,,,,,,,,,,,,,,masks/mask_001.jpg,,,,,,,,,,,,,,,,,,,,,,,,,,,,,,,,,,,,,,,,,,,,,,,,0,0,0,0,1,,,,,,,,,,,,,,,,,,,,,,,,,,,,,,,,,,,,,,,,,
689121,001,2022-11-20_23h51.56.088,Info_measure_main_exp,2022.2.2,Win32,144.1545337,,,,,,,,,,,,,,,,,,masks/mask_003.jpg,,,,,,,,,,,,,,,,,,,,,,,,,,,,,,,,,,,,,,,,,,,,,,,,0,1,1,2,1,,,,,,,,,,,,,,,,,,,,,,,,,,,,,,,,,,,,,,,,,
689121,001,2022-11-20_23h51.56.088,Info_measure_main_exp,2022.2.2,Win32,144.1545337,,,,,,,,,,,,,,,,,,masks/mask_002.jpg,,,,,,,,,,,,,,,,,,,,,,,,,,,,,,,,,,,,,,,,,,,,,,,,0,2,2,1,1,,,,,,,,,,,,,,,,,,,,,,,,,,,,,,,,,,,,,,,,,
689121,001,2022-11-20_23h51.56.088,Info_measure_main_exp,2022.2.2,Win32,144.1545337,,,,,,,,,,,,,,,,,,masks/mask_005.jpg,,,,,,,,,,,,,,,,,,,,,,,,,,,,,,,,,,,,,,,,,,,,,,,,0,3,3,4,1,,,,,,,,,,,,,,,,,,,,,,,,,,,,,,,,,,,,,,,,,
689121,001,2022-11-20_23h51.56.088,Info_measure_main_exp,2022.2.2,Win32,144.1545337,,,,,,,,,,,,,,,,,,masks/mask_004.jpg,,,,,,,,,,,,,,,,,,,,,,,,,,,,,,,,,,,,,,,,,,,,,,,,0,4,4,3,1,,,,,,,,,,,,,,,,,,,,,,,,,,,,,,,,,,,,,,,,,
689121,001,2022-11-20_23h51.56.088,Info_measure_main_exp,2022.2.2,Win32,144.1545337,,,,,,,,,,,,,,,,,,,,,,,,,,,,,,7,0.6658,1,,,,,,,,,,,,0,131,5,5,2250,2178,absent_patch/patch0002250.jpg,absent_patch/patch0002178.jpg,,,,,,,,,,,,,,,,,,,,0.091666667,0.14537037,1,0,0,response1disk,2,0.003703704,0.002777778,1,0,0,center_square,0,1,1,48,1,,,,,,,,,,,,,,,,,,,,,,,
689121,001,2022-11-20_23h51.56.088,Info_measure_main_exp,2022.2.2,Win32,144.1545337,,,,,,,,,,,,,,,,,,masks/mask_001.jpg,,,,,,,,,,,,,,,,,,,,,,,,,,,,,,,,,,,,,,,,,,,0,0,0,0,1,,,,,,,,,,,,,,,,,,,,,,,,,,,,,,,,,,,,,,,,,,,,,,
689121,001,2022-11-20_23h51.56.088,Info_measure_main_exp,2022.2.2,Win32,144.1545337,,,,,,,,,,,,,,,,,,masks/mask_004.jpg,,,,,,,,,,,,,,,,,,,,,,,,,,,,,,,,,,,,,,,,,,,0,1,1,3,1,,,,,,,,,,,,,,,,,,,,,,,,,,,,,,,,,,,,,,,,,,,,,,
689121,001,2022-11-20_23h51.56.088,Info_measure_main_exp,2022.2.2,Win32,144.1545337,,,,,,,,,,,,,,,,,,masks/mask_005.jpg,,,,,,,,,,,,,,,,,,,,,,,,,,,,,,,,,,,,,,,,,,,0,2,2,4,1,,,,,,,,,,,,,,,,,,,,,,,,,,,,,,,,,,,,,,,,,,,,,,
689121,001,2022-11-20_23h51.56.088,Info_measure_main_exp,2022.2.2,Win32,144.1545337,,,,,,,,,,,,,,,,,,masks/mask_002.jpg,,,,,,,,,,,,,,,,,,,,,,,,,,,,,,,,,,,,,,,,,,,0,3,3,1,1,,,,,,,,,,,,,,,,,,,,,,,,,,,,,,,,,,,,,,,,,,,,,,
689121,001,2022-11-20_23h51.56.088,Info_measure_main_exp,2022.2.2,Win32,144.1545337,,,,,,,,,,,,,,,,,,masks/mask_003.jpg,,,,,,,,,,,,,,,,,,,,,,,,,,,,,,,,,,,,,,,,,,,0,4,4,2,1,,,,,,,,,,,,,,,,,,,,,,,,,,,,,,,,,,,,,,,,,,,,,,
689121,001,2022-11-20_23h51.56.088,Info_measure_main_exp,2022.2.2,Win32,144.1545337,,,,,,,,,,,,,,,,,,masks/mask_005.jpg,,,,,,,,,,,,,,,,,,,,,,,,,,,,,,,,,,,,,,,,,,,,,,,,0,0,0,4,1,,,,,,,,,,,,,,,,,,,,,,,,,,,,,,,,,,,,,,,,,
689121,001,2022-11-20_23h51.56.088,Info_measure_main_exp,2022.2.2,Win32,144.1545337,,,,,,,,,,,,,,,,,,masks/mask_004.jpg,,,,,,,,,,,,,,,,,,,,,,,,,,,,,,,,,,,,,,,,,,,,,,,,0,1,1,3,1,,,,,,,,,,,,,,,,,,,,,,,,,,,,,,,,,,,,,,,,,
689121,001,2022-11-20_23h51.56.088,Info_measure_main_exp,2022.2.2,Win32,144.1545337,,,,,,,,,,,,,,,,,,masks/mask_001.jpg,,,,,,,,,,,,,,,,,,,,,,,,,,,,,,,,,,,,,,,,,,,,,,,,0,2,2,0,1,,,,,,,,,,,,,,,,,,,,,,,,,,,,,,,,,,,,,,,,,
689121,001,2022-11-20_23h51.56.088,Info_measure_main_exp,2022.2.2,Win32,144.1545337,,,,,,,,,,,,,,,,,,masks/mask_002.jpg,,,,,,,,,,,,,,,,,,,,,,,,,,,,,,,,,,,,,,,,,,,,,,,,0,3,3,1,1,,,,,,,,,,,,,,,,,,,,,,,,,,,,,,,,,,,,,,,,,
689121,001,2022-11-20_23h51.56.088,Info_measure_main_exp,2022.2.2,Win32,144.1545337,,,,,,,,,,,,,,,,,,masks/mask_003.jpg,,,,,,,,,,,,,,,,,,,,,,,,,,,,,,,,,,,,,,,,,,,,,,,,0,4,4,2,1,,,,,,,,,,,,,,,,,,,,,,,,,,,,,,,,,,,,,,,,,
689121,001,2022-11-20_23h51.56.088,Info_measure_main_exp,2022.2.2,Win32,144.1545337,,,,,,,,,,,,,,,,,,,,,,,,,,,,,,5,1.5278,1,,,,,,,,,,,,0,131,5,5,2142,2166,absent_patch/patch0002142.jpg,absent_patch/patch0002166.jpg,,,,,,,,,,,,,,,,,,,,0.123148148,-0.028703704,1,0,0,response3disk,3,-0.003703704,-0.000925926,1,0,0,center_square,0,2,2,66,1,,,,,,,,,,,,,,,,,,,,,,,
689121,001,2022-11-20_23h51.56.088,Info_measure_main_exp,2022.2.2,Win32,144.1545337,,,,,,,,,,,,,,,,,,masks/mask_003.jpg,,,,,,,,,,,,,,,,,,,,,,,,,,,,,,,,,,,,,,,,,,,0,0,0,2,1,,,,,,,,,,,,,,,,,,,,,,,,,,,,,,,,,,,,,,,,,,,,,,
689121,001,2022-11-20_23h51.56.088,Info_measure_main_exp,2022.2.2,Win32,144.1545337,,,,,,,,,,,,,,,,,,masks/mask_001.jpg,,,,,,,,,,,,,,,,,,,,,,,,,,,,,,,,,,,,,,,,,,,0,1,1,0,1,,,,,,,,,,,,,,,,,,,,,,,,,,,,,,,,,,,,,,,,,,,,,,
689121,001,2022-11-20_23h51.56.088,Info_measure_main_exp,2022.2.2,Win32,144.1545337,,,,,,,,,,,,,,,,,,masks/mask_002.jpg,,,,,,,,,,,,,,,,,,,,,,,,,,,,,,,,,,,,,,,,,,,0,2,2,1,1,,,,,,,,,,,,,,,,,,,,,,,,,,,,,,,,,,,,,,,,,,,,,,
689121,001,2022-11-20_23h51.56.088,Info_measure_main_exp,2022.2.2,Win32,144.1545337,,,,,,,,,,,,,,,,,,masks/mask_005.jpg,,,,,,,,,,,,,,,,,,,,,,,,,,,,,,,,,,,,,,,,,,,0,3,3,4,1,,,,,,,,,,,,,,,,,,,,,,,,,,,,,,,,,,,,,,,,,,,,,,
689121,001,2022-11-20_23h51.56.088,Info_measure_main_exp,2022.2.2,Win32,144.1545337,,,,,,,,,,,,,,,,,,masks/mask_004.jpg,,,,,,,,,,,,,,,,,,,,,,,,,,,,,,,,,,,,,,,,,,,0,4,4,3,1,,,,,,,,,,,,,,,,,,,,,,,,,,,,,,,,,,,,,,,,,,,,,,
689121,001,2022-11-20_23h51.56.088,Info_measure_main_exp,2022.2.2,Win32,144.1545337,,,,,,,,,,,,,,,,,,masks/mask_003.jpg,,,,,,,,,,,,,,,,,,,,,,,,,,,,,,,,,,,,,,,,,,,,,,,,0,0,0,2,1,,,,,,,,,,,,,,,,,,,,,,,,,,,,,,,,,,,,,,,,,
689121,001,2022-11-20_23h51.56.088,Info_measure_main_exp,2022.2.2,Win32,144.1545337,,,,,,,,,,,,,,,,,,masks/mask_002.jpg,,,,,,,,,,,,,,,,,,,,,,,,,,,,,,,,,,,,,,,,,,,,,,,,0,1,1,1,1,,,,,,,,,,,,,,,,,,,,,,,,,,,,,,,,,,,,,,,,,
689121,001,2022-11-20_23h51.56.088,Info_measure_main_exp,2022.2.2,Win32,144.1545337,,,,,,,,,,,,,,,,,,masks/mask_005.jpg,,,,,,,,,,,,,,,,,,,,,,,,,,,,,,,,,,,,,,,,,,,,,,,,0,2,2,4,1,,,,,,,,,,,,,,,,,,,,,,,,,,,,,,,,,,,,,,,,,
689121,001,2022-11-20_23h51.56.088,Info_measure_main_exp,2022.2.2,Win32,144.1545337,,,,,,,,,,,,,,,,,,masks/mask_004.jpg,,,,,,,,,,,,,,,,,,,,,,,,,,,,,,,,,,,,,,,,,,,,,,,,0,3,3,3,1,,,,,,,,,,,,,,,,,,,,,,,,,,,,,,,,,,,,,,,,,
689121,001,2022-11-20_23h51.56.088,Info_measure_main_exp,2022.2.2,Win32,144.1545337,,,,,,,,,,,,,,,,,,masks/mask_001.jpg,,,,,,,,,,,,,,,,,,,,,,,,,,,,,,,,,,,,,,,,,,,,,,,,0,4,4,0,1,,,,,,,,,,,,,,,,,,,,,,,,,,,,,,,,,,,,,,,,,
689121,001,2022-11-20_23h51.56.088,Info_measure_main_exp,2022.2.2,Win32,144.1545337,,,,,,,,,,,,,,,,,,,,,,,,,,,,,,7,0.5903,1,,,,,,,,,,,,0,131,5,5,2166,2154,absent_patch/patch0002166.jpg,absent_patch/patch0002154.jpg,,,,,,,,,,,,,,,,,,,,0.05462963,0.12037037,1,0,0,response1disk,4,0.007407407,0.014814815,1,0,0,center_square,0,3,3,79,1,,,,,,,,,,,,,,,,,,,,,,,
689121,001,2022-11-20_23h51.56.088,Info_measure_main_exp,2022.2.2,Win32,144.1545337,,,,,,,,,,,,,,,,,,masks/mask_004.jpg,,,,,,,,,,,,,,,,,,,,,,,,,,,,,,,,,,,,,,,,,,,0,0,0,3,1,,,,,,,,,,,,,,,,,,,,,,,,,,,,,,,,,,,,,,,,,,,,,,
689121,001,2022-11-20_23h51.56.088,Info_measure_main_exp,2022.2.2,Win32,144.1545337,,,,,,,,,,,,,,,,,,masks/mask_005.jpg,,,,,,,,,,,,,,,,,,,,,,,,,,,,,,,,,,,,,,,,,,,0,1,1,4,1,,,,,,,,,,,,,,,,,,,,,,,,,,,,,,,,,,,,,,,,,,,,,,
689121,001,2022-11-20_23h51.56.088,Info_measure_main_exp,2022.2.2,Win32,144.1545337,,,,,,,,,,,,,,,,,,masks/mask_002.jpg,,,,,,,,,,,,,,,,,,,,,,,,,,,,,,,,,,,,,,,,,,,0,2,2,1,1,,,,,,,,,,,,,,,,,,,,,,,,,,,,,,,,,,,,,,,,,,,,,,
689121,001,2022-11-20_23h51.56.088,Info_measure_main_exp,2022.2.2,Win32,144.1545337,,,,,,,,,,,,,,,,,,masks/mask_003.jpg,,,,,,,,,,,,,,,,,,,,,,,,,,,,,,,,,,,,,,,,,,,0,3,3,2,1,,,,,,,,,,,,,,,,,,,,,,,,,,,,,,,,,,,,,,,,,,,,,,
689121,001,2022-11-20_23h51.56.088,Info_measure_main_exp,2022.2.2,Win32,144.1545337,,,,,,,,,,,,,,,,,,masks/mask_001.jpg,,,,,,,,,,,,,,,,,,,,,,,,,,,,,,,,,,,,,,,,,,,0,4,4,0,1,,,,,,,,,,,,,,,,,,,,,,,,,,,,,,,,,,,,,,,,,,,,,,
689121,001,2022-11-20_23h51.56.088,Info_measure_main_exp,2022.2.2,Win32,144.1545337,,,,,,,,,,,,,,,,,,masks/mask_003.jpg,,,,,,,,,,,,,,,,,,,,,,,,,,,,,,,,,,,,,,,,,,,,,,,,0,0,0,2,1,,,,,,,,,,,,,,,,,,,,,,,,,,,,,,,,,,,,,,,,,
689121,001,2022-11-20_23h51.56.088,Info_measure_main_exp,2022.2.2,Win32,144.1545337,,,,,,,,,,,,,,,,,,masks/mask_002.jpg,,,,,,,,,,,,,,,,,,,,,,,,,,,,,,,,,,,,,,,,,,,,,,,,0,1,1,1,1,,,,,,,,,,,,,,,,,,,,,,,,,,,,,,,,,,,,,,,,,
689121,001,2022-11-20_23h51.56.088,Info_measure_main_exp,2022.2.2,Win32,144.1545337,,,,,,,,,,,,,,,,,,masks/mask_001.jpg,,,,,,,,,,,,,,,,,,,,,,,,,,,,,,,,,,,,,,,,,,,,,,,,0,2,2,0,1,,,,,,,,,,,,,,,,,,,,,,,,,,,,,,,,,,,,,,,,,
689121,001,2022-11-20_23h51.56.088,Info_measure_main_exp,2022.2.2,Win32,144.1545337,,,,,,,,,,,,,,,,,,masks/mask_005.jpg,,,,,,,,,,,,,,,,,,,,,,,,,,,,,,,,,,,,,,,,,,,,,,,,0,3,3,4,1,,,,,,,,,,,,,,,,,,,,,,,,,,,,,,,,,,,,,,,,,
689121,001,2022-11-20_23h51.56.088,Info_measure_main_exp,2022.2.2,Win32,144.1545337,,,,,,,,,,,,,,,,,,masks/mask_004.jpg,,,,,,,,,,,,,,,,,,,,,,,,,,,,,,,,,,,,,,,,,,,,,,,,0,4,4,3,1,,,,,,,,,,,,,,,,,,,,,,,,,,,,,,,,,,,,,,,,,
689121,001,2022-11-20_23h51.56.088,Info_measure_main_exp,2022.2.2,Win32,144.1545337,,,,,,,,,,,,,,,,,,,,,,,,,,,,,,6,2.014,1,,,,,,,,,,,,0,131,5,5,2298,2190,absent_patch/patch0002298.jpg,absent_patch/patch0002190.jpg,,,,,,,,,,,,,,,,,,,,0.138888889,0.030555556,1,0,0,response1disk,5,0.002777778,-0.005555556,1,0,0,center_square,0,4,4,20,1,,,,,,,,,,,,,,,,,,,,,,,
689121,001,2022-11-20_23h51.56.088,Info_measure_main_exp,2022.2.2,Win32,144.1545337,,,,,,,,,,,,,,,,,,masks/mask_003.jpg,,,,,,,,,,,,,,,,,,,,,,,,,,,,,,,,,,,,,,,,,,,0,0,0,2,1,,,,,,,,,,,,,,,,,,,,,,,,,,,,,,,,,,,,,,,,,,,,,,
689121,001,2022-11-20_23h51.56.088,Info_measure_main_exp,2022.2.2,Win32,144.1545337,,,,,,,,,,,,,,,,,,masks/mask_005.jpg,,,,,,,,,,,,,,,,,,,,,,,,,,,,,,,,,,,,,,,,,,,0,1,1,4,1,,,,,,,,,,,,,,,,,,,,,,,,,,,,,,,,,,,,,,,,,,,,,,
689121,001,2022-11-20_23h51.56.088,Info_measure_main_exp,2022.2.2,Win32,144.1545337,,,,,,,,,,,,,,,,,,masks/mask_004.jpg,,,,,,,,,,,,,,,,,,,,,,,,,,,,,,,,,,,,,,,,,,,0,2,2,3,1,,,,,,,,,,,,,,,,,,,,,,,,,,,,,,,,,,,,,,,,,,,,,,
689121,001,2022-11-20_23h51.56.088,Info_measure_main_exp,2022.2.2,Win32,144.1545337,,,,,,,,,,,,,,,,,,masks/mask_002.jpg,,,,,,,,,,,,,,,,,,,,,,,,,,,,,,,,,,,,,,,,,,,0,3,3,1,1,,,,,,,,,,,,,,,,,,,,,,,,,,,,,,,,,,,,,,,,,,,,,,
689121,001,2022-11-20_23h51.56.088,Info_measure_main_exp,2022.2.2,Win32,144.1545337,,,,,,,,,,,,,,,,,,masks/mask_001.jpg,,,,,,,,,,,,,,,,,,,,,,,,,,,,,,,,,,,,,,,,,,,0,4,4,0,1,,,,,,,,,,,,,,,,,,,,,,,,,,,,,,,,,,,,,,,,,,,,,,
689121,001,2022-11-20_23h51.56.088,Info_measure_main_exp,2022.2.2,Win32,144.1545337,,,,,,,,,,,,,,,,,,masks/mask_004.jpg,,,,,,,,,,,,,,,,,,,,,,,,,,,,,,,,,,,,,,,,,,,,,,,,0,0,0,3,1,,,,,,,,,,,,,,,,,,,,,,,,,,,,,,,,,,,,,,,,,
689121,001,2022-11-20_23h51.56.088,Info_measure_main_exp,2022.2.2,Win32,144.1545337,,,,,,,,,,,,,,,,,,masks/mask_002.jpg,,,,,,,,,,,,,,,,,,,,,,,,,,,,,,,,,,,,,,,,,,,,,,,,0,1,1,1,1,,,,,,,,,,,,,,,,,,,,,,,,,,,,,,,,,,,,,,,,,
689121,001,2022-11-20_23h51.56.088,Info_measure_main_exp,2022.2.2,Win32,144.1545337,,,,,,,,,,,,,,,,,,masks/mask_005.jpg,,,,,,,,,,,,,,,,,,,,,,,,,,,,,,,,,,,,,,,,,,,,,,,,0,2,2,4,1,,,,,,,,,,,,,,,,,,,,,,,,,,,,,,,,,,,,,,,,,
689121,001,2022-11-20_23h51.56.088,Info_measure_main_exp,2022.2.2,Win32,144.1545337,,,,,,,,,,,,,,,,,,masks/mask_001.jpg,,,,,,,,,,,,,,,,,,,,,,,,,,,,,,,,,,,,,,,,,,,,,,,,0,3,3,0,1,,,,,,,,,,,,,,,,,,,,,,,,,,,,,,,,,,,,,,,,,
689121,001,2022-11-20_23h51.56.088,Info_measure_main_exp,2022.2.2,Win32,144.1545337,,,,,,,,,,,,,,,,,,masks/mask_003.jpg,,,,,,,,,,,,,,,,,,,,,,,,,,,,,,,,,,,,,,,,,,,,,,,,0,4,4,2,1,,,,,,,,,,,,,,,,,,,,,,,,,,,,,,,,,,,,,,,,,
689121,001,2022-11-20_23h51.56.088,Info_measure_main_exp,2022.2.2,Win32,144.1545337,,,,,,,,,,,,,,,,,,,,,,,,,,,,,,7,0.57,1,,,,,,,,,,,,0,131,5,5,2274,2214,absent_patch/patch0002274.jpg,absent_patch/patch0002214.jpg,,,,,,,,,,,,,,,,,,,,0.055555556,0.088888889,1,0,0,response1disk,6,0.008333333,0.008333333,1,0,0,center_square,0,5,5,11,1,,,,,,,,,,,,,,,,,,,,,,,
689121,001,2022-11-20_23h51.56.088,Info_measure_main_exp,2022.2.2,Win32,144.1545337,,,,,,,,,,,,,,,,,,masks/mask_003.jpg,,,,,,,,,,,,,,,,,,,,,,,,,,,,,,,,,,,,,,,,,,,0,0,0,2,1,,,,,,,,,,,,,,,,,,,,,,,,,,,,,,,,,,,,,,,,,,,,,,
689121,001,2022-11-20_23h51.56.088,Info_measure_main_exp,2022.2.2,Win32,144.1545337,,,,,,,,,,,,,,,,,,masks/mask_005.jpg,,,,,,,,,,,,,,,,,,,,,,,,,,,,,,,,,,,,,,,,,,,0,1,1,4,1,,,,,,,,,,,,,,,,,,,,,,,,,,,,,,,,,,,,,,,,,,,,,,
689121,001,2022-11-20_23h51.56.088,Info_measure_main_exp,2022.2.2,Win32,144.1545337,,,,,,,,,,,,,,,,,,masks/mask_002.jpg,,,,,,,,,,,,,,,,,,,,,,,,,,,,,,,,,,,,,,,,,,,0,2,2,1,1,,,,,,,,,,,,,,,,,,,,,,,,,,,,,,,,,,,,,,,,,,,,,,
689121,001,2022-11-20_23h51.56.088,Info_measure_main_exp,2022.2.2,Win32,144.1545337,,,,,,,,,,,,,,,,,,masks/mask_004.jpg,,,,,,,,,,,,,,,,,,,,,,,,,,,,,,,,,,,,,,,,,,,0,3,3,3,1,,,,,,,,,,,,,,,,,,,,,,,,,,,,,,,,,,,,,,,,,,,,,,
689121,001,2022-11-20_23h51.56.088,Info_measure_main_exp,2022.2.2,Win32,144.1545337,,,,,,,,,,,,,,,,,,masks/mask_001.jpg,,,,,,,,,,,,,,,,,,,,,,,,,,,,,,,,,,,,,,,,,,,0,4,4,0,1,,,,,,,,,,,,,,,,,,,,,,,,,,,,,,,,,,,,,,,,,,,,,,
689121,001,2022-11-20_23h51.56.088,Info_measure_main_exp,2022.2.2,Win32,144.1545337,,,,,,,,,,,,,,,,,,masks/mask_002.jpg,,,,,,,,,,,,,,,,,,,,,,,,,,,,,,,,,,,,,,,,,,,,,,,,0,0,0,1,1,,,,,,,,,,,,,,,,,,,,,,,,,,,,,,,,,,,,,,,,,
689121,001,2022-11-20_23h51.56.088,Info_measure_main_exp,2022.2.2,Win32,144.1545337,,,,,,,,,,,,,,,,,,masks/mask_001.jpg,,,,,,,,,,,,,,,,,,,,,,,,,,,,,,,,,,,,,,,,,,,,,,,,0,1,1,0,1,,,,,,,,,,,,,,,,,,,,,,,,,,,,,,,,,,,,,,,,,
689121,001,2022-11-20_23h51.56.088,Info_measure_main_exp,2022.2.2,Win32,144.1545337,,,,,,,,,,,,,,,,,,masks/mask_004.jpg,,,,,,,,,,,,,,,,,,,,,,,,,,,,,,,,,,,,,,,,,,,,,,,,0,2,2,3,1,,,,,,,,,,,,,,,,,,,,,,,,,,,,,,,,,,,,,,,,,
689121,001,2022-11-20_23h51.56.088,Info_measure_main_exp,2022.2.2,Win32,144.1545337,,,,,,,,,,,,,,,,,,masks/mask_005.jpg,,,,,,,,,,,,,,,,,,,,,,,,,,,,,,,,,,,,,,,,,,,,,,,,0,3,3,4,1,,,,,,,,,,,,,,,,,,,,,,,,,,,,,,,,,,,,,,,,,
689121,001,2022-11-20_23h51.56.088,Info_measure_main_exp,2022.2.2,Win32,144.1545337,,,,,,,,,,,,,,,,,,masks/mask_003.jpg,,,,,,,,,,,,,,,,,,,,,,,,,,,,,,,,,,,,,,,,,,,,,,,,0,4,4,2,1,,,,,,,,,,,,,,,,,,,,,,,,,,,,,,,,,,,,,,,,,
689121,001,2022-11-20_23h51.56.088,Info_measure_main_exp,2022.2.2,Win32,144.1545337,,,,,,,,,,,,,,,,,,,,,,,,,,,,,,7,0.4793,1,,,,,,,,,,,,1,131,5,5,2190,1,absent_patch/patch0002190.jpg,present_patch/cong_131_5_a.jpg,,,,,,,,,,,,,,,,,,,,0.043518519,0.098148148,1,0,0,response1disk,7,0,-0.000925926,1,0,0,center_square,0,6,6,64,1,,,,,,,,,,,,,,,,,,,,,,,
689121,001,2022-11-20_23h51.56.088,Info_measure_main_exp,2022.2.2,Win32,144.1545337,,,,,,,,,,,,,,,,,,masks/mask_004.jpg,,,,,,,,,,,,,,,,,,,,,,,,,,,,,,,,,,,,,,,,,,,0,0,0,3,1,,,,,,,,,,,,,,,,,,,,,,,,,,,,,,,,,,,,,,,,,,,,,,
689121,001,2022-11-20_23h51.56.088,Info_measure_main_exp,2022.2.2,Win32,144.1545337,,,,,,,,,,,,,,,,,,masks/mask_003.jpg,,,,,,,,,,,,,,,,,,,,,,,,,,,,,,,,,,,,,,,,,,,0,1,1,2,1,,,,,,,,,,,,,,,,,,,,,,,,,,,,,,,,,,,,,,,,,,,,,,
689121,001,2022-11-20_23h51.56.088,Info_measure_main_exp,2022.2.2,Win32,144.1545337,,,,,,,,,,,,,,,,,,masks/mask_005.jpg,,,,,,,,,,,,,,,,,,,,,,,,,,,,,,,,,,,,,,,,,,,0,2,2,4,1,,,,,,,,,,,,,,,,,,,,,,,,,,,,,,,,,,,,,,,,,,,,,,
689121,001,2022-11-20_23h51.56.088,Info_measure_main_exp,2022.2.2,Win32,144.1545337,,,,,,,,,,,,,,,,,,masks/mask_001.jpg,,,,,,,,,,,,,,,,,,,,,,,,,,,,,,,,,,,,,,,,,,,0,3,3,0,1,,,,,,,,,,,,,,,,,,,,,,,,,,,,,,,,,,,,,,,,,,,,,,
689121,001,2022-11-20_23h51.56.088,Info_measure_main_exp,2022.2.2,Win32,144.1545337,,,,,,,,,,,,,,,,,,masks/mask_002.jpg,,,,,,,,,,,,,,,,,,,,,,,,,,,,,,,,,,,,,,,,,,,0,4,4,1,1,,,,,,,,,,,,,,,,,,,,,,,,,,,,,,,,,,,,,,,,,,,,,,
689121,001,2022-11-20_23h51.56.088,Info_measure_main_exp,2022.2.2,Win32,144.1545337,,,,,,,,,,,,,,,,,,masks/mask_005.jpg,,,,,,,,,,,,,,,,,,,,,,,,,,,,,,,,,,,,,,,,,,,,,,,,0,0,0,4,1,,,,,,,,,,,,,,,,,,,,,,,,,,,,,,,,,,,,,,,,,
689121,001,2022-11-20_23h51.56.088,Info_measure_main_exp,2022.2.2,Win32,144.1545337,,,,,,,,,,,,,,,,,,masks/mask_004.jpg,,,,,,,,,,,,,,,,,,,,,,,,,,,,,,,,,,,,,,,,,,,,,,,,0,1,1,3,1,,,,,,,,,,,,,,,,,,,,,,,,,,,,,,,,,,,,,,,,,
689121,001,2022-11-20_23h51.56.088,Info_measure_main_exp,2022.2.2,Win32,144.1545337,,,,,,,,,,,,,,,,,,masks/mask_003.jpg,,,,,,,,,,,,,,,,,,,,,,,,,,,,,,,,,,,,,,,,,,,,,,,,0,2,2,2,1,,,,,,,,,,,,,,,,,,,,,,,,,,,,,,,,,,,,,,,,,
689121,001,2022-11-20_23h51.56.088,Info_measure_main_exp,2022.2.2,Win32,144.1545337,,,,,,,,,,,,,,,,,,masks/mask_001.jpg,,,,,,,,,,,,,,,,,,,,,,,,,,,,,,,,,,,,,,,,,,,,,,,,0,3,3,0,1,,,,,,,,,,,,,,,,,,,,,,,,,,,,,,,,,,,,,,,,,
689121,001,2022-11-20_23h51.56.088,Info_measure_main_exp,2022.2.2,Win32,144.1545337,,,,,,,,,,,,,,,,,,masks/mask_002.jpg,,,,,,,,,,,,,,,,,,,,,,,,,,,,,,,,,,,,,,,,,,,,,,,,0,4,4,1,1,,,,,,,,,,,,,,,,,,,,,,,,,,,,,,,,,,,,,,,,,
689121,001,2022-11-20_23h51.56.088,Info_measure_main_exp,2022.2.2,Win32,144.1545337,,,,,,,,,,,,,,,,,,,,,,,,,,,,,,6,1.0281,1,,,,,,,,,,,,0,131,5,5,2250,2142,absent_patch/patch0002250.jpg,absent_patch/patch0002142.jpg,,,,,,,,,,,,,,,,,,,,0.114814815,0.035185185,1,0,0,response1disk,8,0.015740741,-0.000925926,1,0,0,center_square,0,7,7,71,1,,,,,,,,,,,,,,,,,,,,,,,
689121,001,2022-11-20_23h51.56.088,Info_measure_main_exp,2022.2.2,Win32,144.1545337,,,,,,,,,,,,,,,,,,masks/mask_001.jpg,,,,,,,,,,,,,,,,,,,,,,,,,,,,,,,,,,,,,,,,,,,0,0,0,0,1,,,,,,,,,,,,,,,,,,,,,,,,,,,,,,,,,,,,,,,,,,,,,,
689121,001,2022-11-20_23h51.56.088,Info_measure_main_exp,2022.2.2,Win32,144.1545337,,,,,,,,,,,,,,,,,,masks/mask_004.jpg,,,,,,,,,,,,,,,,,,,,,,,,,,,,,,,,,,,,,,,,,,,0,1,1,3,1,,,,,,,,,,,,,,,,,,,,,,,,,,,,,,,,,,,,,,,,,,,,,,
689121,001,2022-11-20_23h51.56.088,Info_measure_main_exp,2022.2.2,Win32,144.1545337,,,,,,,,,,,,,,,,,,masks/mask_002.jpg,,,,,,,,,,,,,,,,,,,,,,,,,,,,,,,,,,,,,,,,,,,0,2,2,1,1,,,,,,,,,,,,,,,,,,,,,,,,,,,,,,,,,,,,,,,,,,,,,,
689121,001,2022-11-20_23h51.56.088,Info_measure_main_exp,2022.2.2,Win32,144.1545337,,,,,,,,,,,,,,,,,,masks/mask_005.jpg,,,,,,,,,,,,,,,,,,,,,,,,,,,,,,,,,,,,,,,,,,,0,3,3,4,1,,,,,,,,,,,,,,,,,,,,,,,,,,,,,,,,,,,,,,,,,,,,,,
689121,001,2022-11-20_23h51.56.088,Info_measure_main_exp,2022.2.2,Win32,144.1545337,,,,,,,,,,,,,,,,,,masks/mask_003.jpg,,,,,,,,,,,,,,,,,,,,,,,,,,,,,,,,,,,,,,,,,,,0,4,4,2,1,,,,,,,,,,,,,,,,,,,,,,,,,,,,,,,,,,,,,,,,,,,,,,
689121,001,2022-11-20_23h51.56.088,Info_measure_main_exp,2022.2.2,Win32,144.1545337,,,,,,,,,,,,,,,,,,masks/mask_004.jpg,,,,,,,,,,,,,,,,,,,,,,,,,,,,,,,,,,,,,,,,,,,,,,,,0,0,0,3,1,,,,,,,,,,,,,,,,,,,,,,,,,,,,,,,,,,,,,,,,,
689121,001,2022-11-20_23h51.56.088,Info_measure_main_exp,2022.2.2,Win32,144.1545337,,,,,,,,,,,,,,,,,,masks/mask_002.jpg,,,,,,,,,,,,,,,,,,,,,,,,,,,,,,,,,,,,,,,,,,,,,,,,0,1,1,1,1,,,,,,,,,,,,,,,,,,,,,,,,,,,,,,,,,,,,,,,,,
689121,001,2022-11-20_23h51.56.088,Info_measure_main_exp,2022.2.2,Win32,144.1545337,,,,,,,,,,,,,,,,,,masks/mask_003.jpg,,,,,,,,,,,,,,,,,,,,,,,,,,,,,,,,,,,,,,,,,,,,,,,,0,2,2,2,1,,,,,,,,,,,,,,,,,,,,,,,,,,,,,,,,,,,,,,,,,
689121,001,2022-11-20_23h51.56.088,Info_measure_main_exp,2022.2.2,Win32,144.1545337,,,,,,,,,,,,,,,,,,masks/mask_001.jpg,,,,,,,,,,,,,,,,,,,,,,,,,,,,,,,,,,,,,,,,,,,,,,,,0,3,3,0,1,,,,,,,,,,,,,,,,,,,,,,,,,,,,,,,,,,,,,,,,,
689121,001,2022-11-20_23h51.56.088,Info_measure_main_exp,2022.2.2,Win32,144.1545337,,,,,,,,,,,,,,,,,,masks/mask_005.jpg,,,,,,,,,,,,,,,,,,,,,,,,,,,,,,,,,,,,,,,,,,,,,,,,0,4,4,4,1,,,,,,,,,,,,,,,,,,,,,,,,,,,,,,,,,,,,,,,,,
689121,001,2022-11-20_23h51.56.088,Info_measure_main_exp,2022.2.2,Win32,144.1545337,,,,,,,,,,,,,,,,,,,,,,,,,,,,,,0,0.8681,1,,,,,,,,,,,,0,131,5,5,2166,2166,absent_patch/patch0002166.jpg,absent_patch/patch0002166.jpg,,,,,,,,,,,,,,,,,,,,-0.073148148,0.144444444,1,0,0,response7disk,9,0,0.003703704,1,0,0,center_square,0,8,8,42,1,,,,,,,,,,,,,,,,,,,,,,,
689121,001,2022-11-20_23h51.56.088,Info_measure_main_exp,2022.2.2,Win32,144.1545337,,,,,,,,,,,,,,,,,,masks/mask_005.jpg,,,,,,,,,,,,,,,,,,,,,,,,,,,,,,,,,,,,,,,,,,,0,0,0,4,1,,,,,,,,,,,,,,,,,,,,,,,,,,,,,,,,,,,,,,,,,,,,,,
689121,001,2022-11-20_23h51.56.088,Info_measure_main_exp,2022.2.2,Win32,144.1545337,,,,,,,,,,,,,,,,,,masks/mask_002.jpg,,,,,,,,,,,,,,,,,,,,,,,,,,,,,,,,,,,,,,,,,,,0,1,1,1,1,,,,,,,,,,,,,,,,,,,,,,,,,,,,,,,,,,,,,,,,,,,,,,
689121,001,2022-11-20_23h51.56.088,Info_measure_main_exp,2022.2.2,Win32,144.1545337,,,,,,,,,,,,,,,,,,masks/mask_003.jpg,,,,,,,,,,,,,,,,,,,,,,,,,,,,,,,,,,,,,,,,,,,0,2,2,2,1,,,,,,,,,,,,,,,,,,,,,,,,,,,,,,,,,,,,,,,,,,,,,,
689121,001,2022-11-20_23h51.56.088,Info_measure_main_exp,2022.2.2,Win32,144.1545337,,,,,,,,,,,,,,,,,,masks/mask_004.jpg,,,,,,,,,,,,,,,,,,,,,,,,,,,,,,,,,,,,,,,,,,,0,3,3,3,1,,,,,,,,,,,,,,,,,,,,,,,,,,,,,,,,,,,,,,,,,,,,,,
689121,001,2022-11-20_23h51.56.088,Info_measure_main_exp,2022.2.2,Win32,144.1545337,,,,,,,,,,,,,,,,,,masks/mask_001.jpg,,,,,,,,,,,,,,,,,,,,,,,,,,,,,,,,,,,,,,,,,,,0,4,4,0,1,,,,,,,,,,,,,,,,,,,,,,,,,,,,,,,,,,,,,,,,,,,,,,
689121,001,2022-11-20_23h51.56.088,Info_measure_main_exp,2022.2.2,Win32,144.1545337,,,,,,,,,,,,,,,,,,masks/mask_003.jpg,,,,,,,,,,,,,,,,,,,,,,,,,,,,,,,,,,,,,,,,,,,,,,,,0,0,0,2,1,,,,,,,,,,,,,,,,,,,,,,,,,,,,,,,,,,,,,,,,,
689121,001,2022-11-20_23h51.56.088,Info_measure_main_exp,2022.2.2,Win32,144.1545337,,,,,,,,,,,,,,,,,,masks/mask_005.jpg,,,,,,,,,,,,,,,,,,,,,,,,,,,,,,,,,,,,,,,,,,,,,,,,0,1,1,4,1,,,,,,,,,,,,,,,,,,,,,,,,,,,,,,,,,,,,,,,,,
689121,001,2022-11-20_23h51.56.088,Info_measure_main_exp,2022.2.2,Win32,144.1545337,,,,,,,,,,,,,,,,,,masks/mask_001.jpg,,,,,,,,,,,,,,,,,,,,,,,,,,,,,,,,,,,,,,,,,,,,,,,,0,2,2,0,1,,,,,,,,,,,,,,,,,,,,,,,,,,,,,,,,,,,,,,,,,
689121,001,2022-11-20_23h51.56.088,Info_measure_main_exp,2022.2.2,Win32,144.1545337,,,,,,,,,,,,,,,,,,masks/mask_004.jpg,,,,,,,,,,,,,,,,,,,,,,,,,,,,,,,,,,,,,,,,,,,,,,,,0,3,3,3,1,,,,,,,,,,,,,,,,,,,,,,,,,,,,,,,,,,,,,,,,,
689121,001,2022-11-20_23h51.56.088,Info_measure_main_exp,2022.2.2,Win32,144.1545337,,,,,,,,,,,,,,,,,,masks/mask_002.jpg,,,,,,,,,,,,,,,,,,,,,,,,,,,,,,,,,,,,,,,,,,,,,,,,0,4,4,1,1,,,,,,,,,,,,,,,,,,,,,,,,,,,,,,,,,,,,,,,,,
689121,001,2022-11-20_23h51.56.088,Info_measure_main_exp,2022.2.2,Win32,144.1545337,,,,,,,,,,,,,,,,,,,,,,,,,,,,,,7,0.75,1,,,,,,,,,,,,0,131,5,5,2214,2166,absent_patch/patch0002214.jpg,absent_patch/patch0002166.jpg,,,,,,,,,,,,,,,,,,,,0.044444444,0.097222222,1,0,0,response1disk,10,0.007407407,0.006481481,1,0,0,center_square,0,9,9,109,1,,,,,,,,,,,,,,,,,,,,,,,
689121,001,2022-11-20_23h51.56.088,Info_measure_main_exp,2022.2.2,Win32,144.1545337,,,,,,,,,,,,,,,,,,masks/mask_001.jpg,,,,,,,,,,,,,,,,,,,,,,,,,,,,,,,,,,,,,,,,,,,0,0,0,0,1,,,,,,,,,,,,,,,,,,,,,,,,,,,,,,,,,,,,,,,,,,,,,,
689121,001,2022-11-20_23h51.56.088,Info_measure_main_exp,2022.2.2,Win32,144.1545337,,,,,,,,,,,,,,,,,,masks/mask_005.jpg,,,,,,,,,,,,,,,,,,,,,,,,,,,,,,,,,,,,,,,,,,,0,1,1,4,1,,,,,,,,,,,,,,,,,,,,,,,,,,,,,,,,,,,,,,,,,,,,,,
689121,001,2022-11-20_23h51.56.088,Info_measure_main_exp,2022.2.2,Win32,144.1545337,,,,,,,,,,,,,,,,,,masks/mask_004.jpg,,,,,,,,,,,,,,,,,,,,,,,,,,,,,,,,,,,,,,,,,,,0,2,2,3,1,,,,,,,,,,,,,,,,,,,,,,,,,,,,,,,,,,,,,,,,,,,,,,
689121,001,2022-11-20_23h51.56.088,Info_measure_main_exp,2022.2.2,Win32,144.1545337,,,,,,,,,,,,,,,,,,masks/mask_003.jpg,,,,,,,,,,,,,,,,,,,,,,,,,,,,,,,,,,,,,,,,,,,0,3,3,2,1,,,,,,,,,,,,,,,,,,,,,,,,,,,,,,,,,,,,,,,,,,,,,,
689121,001,2022-11-20_23h51.56.088,Info_measure_main_exp,2022.2.2,Win32,144.1545337,,,,,,,,,,,,,,,,,,masks/mask_002.jpg,,,,,,,,,,,,,,,,,,,,,,,,,,,,,,,,,,,,,,,,,,,0,4,4,1,1,,,,,,,,,,,,,,,,,,,,,,,,,,,,,,,,,,,,,,,,,,,,,,
689121,001,2022-11-20_23h51.56.088,Info_measure_main_exp,2022.2.2,Win32,144.1545337,,,,,,,,,,,,,,,,,,masks/mask_004.jpg,,,,,,,,,,,,,,,,,,,,,,,,,,,,,,,,,,,,,,,,,,,,,,,,0,0,0,3,1,,,,,,,,,,,,,,,,,,,,,,,,,,,,,,,,,,,,,,,,,
689121,001,2022-11-20_23h51.56.088,Info_measure_main_exp,2022.2.2,Win32,144.1545337,,,,,,,,,,,,,,,,,,masks/mask_005.jpg,,,,,,,,,,,,,,,,,,,,,,,,,,,,,,,,,,,,,,,,,,,,,,,,0,1,1,4,1,,,,,,,,,,,,,,,,,,,,,,,,,,,,,,,,,,,,,,,,,
689121,001,2022-11-20_23h51.56.088,Info_measure_main_exp,2022.2.2,Win32,144.1545337,,,,,,,,,,,,,,,,,,masks/mask_001.jpg,,,,,,,,,,,,,,,,,,,,,,,,,,,,,,,,,,,,,,,,,,,,,,,,0,2,2,0,1,,,,,,,,,,,,,,,,,,,,,,,,,,,,,,,,,,,,,,,,,
689121,001,2022-11-20_23h51.56.088,Info_measure_main_exp,2022.2.2,Win32,144.1545337,,,,,,,,,,,,,,,,,,masks/mask_002.jpg,,,,,,,,,,,,,,,,,,,,,,,,,,,,,,,,,,,,,,,,,,,,,,,,0,3,3,1,1,,,,,,,,,,,,,,,,,,,,,,,,,,,,,,,,,,,,,,,,,
689121,001,2022-11-20_23h51.56.088,Info_measure_main_exp,2022.2.2,Win32,144.1545337,,,,,,,,,,,,,,,,,,masks/mask_003.jpg,,,,,,,,,,,,,,,,,,,,,,,,,,,,,,,,,,,,,,,,,,,,,,,,0,4,4,2,1,,,,,,,,,,,,,,,,,,,,,,,,,,,,,,,,,,,,,,,,,
689121,001,2022-11-20_23h51.56.088,Info_measure_main_exp,2022.2.2,Win32,144.1545337,,,,,,,,,,,,,,,,,,,,,,,,,,,,,,7,0.5,1,,,,,,,,,,,,0,131,5,5,2214,1986,absent_patch/patch0002214.jpg,absent_patch/patch0001986.jpg,,,,,,,,,,,,,,,,,,,,0.034259259,0.086111111,1,0,0,response1disk,11,0.008333333,0.000925926,1,0,0,center_square,0,10,10,34,1,,,,,,,,,,,,,,,,,,,,,,,
689121,001,2022-11-20_23h51.56.088,Info_measure_main_exp,2022.2.2,Win32,144.1545337,,,,,,,,,,,,,,,,,,masks/mask_001.jpg,,,,,,,,,,,,,,,,,,,,,,,,,,,,,,,,,,,,,,,,,,,0,0,0,0,1,,,,,,,,,,,,,,,,,,,,,,,,,,,,,,,,,,,,,,,,,,,,,,
689121,001,2022-11-20_23h51.56.088,Info_measure_main_exp,2022.2.2,Win32,144.1545337,,,,,,,,,,,,,,,,,,masks/mask_005.jpg,,,,,,,,,,,,,,,,,,,,,,,,,,,,,,,,,,,,,,,,,,,0,1,1,4,1,,,,,,,,,,,,,,,,,,,,,,,,,,,,,,,,,,,,,,,,,,,,,,
689121,001,2022-11-20_23h51.56.088,Info_measure_main_exp,2022.2.2,Win32,144.1545337,,,,,,,,,,,,,,,,,,masks/mask_003.jpg,,,,,,,,,,,,,,,,,,,,,,,,,,,,,,,,,,,,,,,,,,,0,2,2,2,1,,,,,,,,,,,,,,,,,,,,,,,,,,,,,,,,,,,,,,,,,,,,,,
689121,001,2022-11-20_23h51.56.088,Info_measure_main_exp,2022.2.2,Win32,144.1545337,,,,,,,,,,,,,,,,,,masks/mask_004.jpg,,,,,,,,,,,,,,,,,,,,,,,,,,,,,,,,,,,,,,,,,,,0,3,3,3,1,,,,,,,,,,,,,,,,,,,,,,,,,,,,,,,,,,,,,,,,,,,,,,
689121,001,2022-11-20_23h51.56.088,Info_measure_main_exp,2022.2.2,Win32,144.1545337,,,,,,,,,,,,,,,,,,masks/mask_002.jpg,,,,,,,,,,,,,,,,,,,,,,,,,,,,,,,,,,,,,,,,,,,0,4,4,1,1,,,,,,,,,,,,,,,,,,,,,,,,,,,,,,,,,,,,,,,,,,,,,,
689121,001,2022-11-20_23h51.56.088,Info_measure_main_exp,2022.2.2,Win32,144.1545337,,,,,,,,,,,,,,,,,,masks/mask_002.jpg,,,,,,,,,,,,,,,,,,,,,,,,,,,,,,,,,,,,,,,,,,,,,,,,0,0,0,1,1,,,,,,,,,,,,,,,,,,,,,,,,,,,,,,,,,,,,,,,,,
689121,001,2022-11-20_23h51.56.088,Info_measure_main_exp,2022.2.2,Win32,144.1545337,,,,,,,,,,,,,,,,,,masks/mask_005.jpg,,,,,,,,,,,,,,,,,,,,,,,,,,,,,,,,,,,,,,,,,,,,,,,,0,1,1,4,1,,,,,,,,,,,,,,,,,,,,,,,,,,,,,,,,,,,,,,,,,
689121,001,2022-11-20_23h51.56.088,Info_measure_main_exp,2022.2.2,Win32,144.1545337,,,,,,,,,,,,,,,,,,masks/mask_003.jpg,,,,,,,,,,,,,,,,,,,,,,,,,,,,,,,,,,,,,,,,,,,,,,,,0,2,2,2,1,,,,,,,,,,,,,,,,,,,,,,,,,,,,,,,,,,,,,,,,,
689121,001,2022-11-20_23h51.56.088,Info_measure_main_exp,2022.2.2,Win32,144.1545337,,,,,,,,,,,,,,,,,,masks/mask_004.jpg,,,,,,,,,,,,,,,,,,,,,,,,,,,,,,,,,,,,,,,,,,,,,,,,0,3,3,3,1,,,,,,,,,,,,,,,,,,,,,,,,,,,,,,,,,,,,,,,,,
689121,001,2022-11-20_23h51.56.088,Info_measure_main_exp,2022.2.2,Win32,144.1545337,,,,,,,,,,,,,,,,,,masks/mask_001.jpg,,,,,,,,,,,,,,,,,,,,,,,,,,,,,,,,,,,,,,,,,,,,,,,,0,4,4,0,1,,,,,,,,,,,,,,,,,,,,,,,,,,,,,,,,,,,,,,,,,
689121,001,2022-11-20_23h51.56.088,Info_measure_main_exp,2022.2.2,Win32,144.1545337,,,,,,,,,,,,,,,,,,,,,,,,,,,,,,6,1.507,1,,,,,,,,,,,,0,131,5,5,2190,1974,absent_patch/patch0002190.jpg,absent_patch/patch0001974.jpg,,,,,,,,,,,,,,,,,,,,0.102777778,0.013888889,1,0,0,response1disk,12,0.000925926,0.002777778,1,0,0,center_square,0,11,11,119,1,,,,,,,,,,,,,,,,,,,,,,,
689121,001,2022-11-20_23h51.56.088,Info_measure_main_exp,2022.2.2,Win32,144.1545337,,,,,,,,,,,,,,,,,,masks/mask_003.jpg,,,,,,,,,,,,,,,,,,,,,,,,,,,,,,,,,,,,,,,,,,,0,0,0,2,1,,,,,,,,,,,,,,,,,,,,,,,,,,,,,,,,,,,,,,,,,,,,,,
689121,001,2022-11-20_23h51.56.088,Info_measure_main_exp,2022.2.2,Win32,144.1545337,,,,,,,,,,,,,,,,,,masks/mask_004.jpg,,,,,,,,,,,,,,,,,,,,,,,,,,,,,,,,,,,,,,,,,,,0,1,1,3,1,,,,,,,,,,,,,,,,,,,,,,,,,,,,,,,,,,,,,,,,,,,,,,
689121,001,2022-11-20_23h51.56.088,Info_measure_main_exp,2022.2.2,Win32,144.1545337,,,,,,,,,,,,,,,,,,masks/mask_001.jpg,,,,,,,,,,,,,,,,,,,,,,,,,,,,,,,,,,,,,,,,,,,0,2,2,0,1,,,,,,,,,,,,,,,,,,,,,,,,,,,,,,,,,,,,,,,,,,,,,,
689121,001,2022-11-20_23h51.56.088,Info_measure_main_exp,2022.2.2,Win32,144.1545337,,,,,,,,,,,,,,,,,,masks/mask_005.jpg,,,,,,,,,,,,,,,,,,,,,,,,,,,,,,,,,,,,,,,,,,,0,3,3,4,1,,,,,,,,,,,,,,,,,,,,,,,,,,,,,,,,,,,,,,,,,,,,,,
689121,001,2022-11-20_23h51.56.088,Info_measure_main_exp,2022.2.2,Win32,144.1545337,,,,,,,,,,,,,,,,,,masks/mask_002.jpg,,,,,,,,,,,,,,,,,,,,,,,,,,,,,,,,,,,,,,,,,,,0,4,4,1,1,,,,,,,,,,,,,,,,,,,,,,,,,,,,,,,,,,,,,,,,,,,,,,
689121,001,2022-11-20_23h51.56.088,Info_measure_main_exp,2022.2.2,Win32,144.1545337,,,,,,,,,,,,,,,,,,masks/mask_001.jpg,,,,,,,,,,,,,,,,,,,,,,,,,,,,,,,,,,,,,,,,,,,,,,,,0,0,0,0,1,,,,,,,,,,,,,,,,,,,,,,,,,,,,,,,,,,,,,,,,,
689121,001,2022-11-20_23h51.56.088,Info_measure_main_exp,2022.2.2,Win32,144.1545337,,,,,,,,,,,,,,,,,,masks/mask_005.jpg,,,,,,,,,,,,,,,,,,,,,,,,,,,,,,,,,,,,,,,,,,,,,,,,0,1,1,4,1,,,,,,,,,,,,,,,,,,,,,,,,,,,,,,,,,,,,,,,,,
689121,001,2022-11-20_23h51.56.088,Info_measure_main_exp,2022.2.2,Win32,144.1545337,,,,,,,,,,,,,,,,,,masks/mask_002.jpg,,,,,,,,,,,,,,,,,,,,,,,,,,,,,,,,,,,,,,,,,,,,,,,,0,2,2,1,1,,,,,,,,,,,,,,,,,,,,,,,,,,,,,,,,,,,,,,,,,
689121,001,2022-11-20_23h51.56.088,Info_measure_main_exp,2022.2.2,Win32,144.1545337,,,,,,,,,,,,,,,,,,masks/mask_003.jpg,,,,,,,,,,,,,,,,,,,,,,,,,,,,,,,,,,,,,,,,,,,,,,,,0,3,3,2,1,,,,,,,,,,,,,,,,,,,,,,,,,,,,,,,,,,,,,,,,,
689121,001,2022-11-20_23h51.56.088,Info_measure_main_exp,2022.2.2,Win32,144.1545337,,,,,,,,,,,,,,,,,,masks/mask_004.jpg,,,,,,,,,,,,,,,,,,,,,,,,,,,,,,,,,,,,,,,,,,,,,,,,0,4,4,3,1,,,,,,,,,,,,,,,,,,,,,,,,,,,,,,,,,,,,,,,,,
689121,001,2022-11-20_23h51.56.088,Info_measure_main_exp,2022.2.2,Win32,144.1545337,,,,,,,,,,,,,,,,,,,,,,,,,,,,,,7,0.4028,1,,,,,,,,,,,,0,131,5,5,2082,1986,absent_patch/patch0002082.jpg,absent_patch/patch0001986.jpg,,,,,,,,,,,,,,,,,,,,0.02962963,0.087037037,1,0,0,response1disk,13,0.003703704,0.007407407,1,0,0,center_square,0,12,12,94,1,,,,,,,,,,,,,,,,,,,,,,,
689121,001,2022-11-20_23h51.56.088,Info_measure_main_exp,2022.2.2,Win32,144.1545337,,,,,,,,,,,,,,,,,,masks/mask_001.jpg,,,,,,,,,,,,,,,,,,,,,,,,,,,,,,,,,,,,,,,,,,,0,0,0,0,1,,,,,,,,,,,,,,,,,,,,,,,,,,,,,,,,,,,,,,,,,,,,,,
689121,001,2022-11-20_23h51.56.088,Info_measure_main_exp,2022.2.2,Win32,144.1545337,,,,,,,,,,,,,,,,,,masks/mask_005.jpg,,,,,,,,,,,,,,,,,,,,,,,,,,,,,,,,,,,,,,,,,,,0,1,1,4,1,,,,,,,,,,,,,,,,,,,,,,,,,,,,,,,,,,,,,,,,,,,,,,
689121,001,2022-11-20_23h51.56.088,Info_measure_main_exp,2022.2.2,Win32,144.1545337,,,,,,,,,,,,,,,,,,masks/mask_003.jpg,,,,,,,,,,,,,,,,,,,,,,,,,,,,,,,,,,,,,,,,,,,0,2,2,2,1,,,,,,,,,,,,,,,,,,,,,,,,,,,,,,,,,,,,,,,,,,,,,,
689121,001,2022-11-20_23h51.56.088,Info_measure_main_exp,2022.2.2,Win32,144.1545337,,,,,,,,,,,,,,,,,,masks/mask_004.jpg,,,,,,,,,,,,,,,,,,,,,,,,,,,,,,,,,,,,,,,,,,,0,3,3,3,1,,,,,,,,,,,,,,,,,,,,,,,,,,,,,,,,,,,,,,,,,,,,,,
689121,001,2022-11-20_23h51.56.088,Info_measure_main_exp,2022.2.2,Win32,144.1545337,,,,,,,,,,,,,,,,,,masks/mask_002.jpg,,,,,,,,,,,,,,,,,,,,,,,,,,,,,,,,,,,,,,,,,,,0,4,4,1,1,,,,,,,,,,,,,,,,,,,,,,,,,,,,,,,,,,,,,,,,,,,,,,
689121,001,2022-11-20_23h51.56.088,Info_measure_main_exp,2022.2.2,Win32,144.1545337,,,,,,,,,,,,,,,,,,masks/mask_004.jpg,,,,,,,,,,,,,,,,,,,,,,,,,,,,,,,,,,,,,,,,,,,,,,,,0,0,0,3,1,,,,,,,,,,,,,,,,,,,,,,,,,,,,,,,,,,,,,,,,,
689121,001,2022-11-20_23h51.56.088,Info_measure_main_exp,2022.2.2,Win32,144.1545337,,,,,,,,,,,,,,,,,,masks/mask_001.jpg,,,,,,,,,,,,,,,,,,,,,,,,,,,,,,,,,,,,,,,,,,,,,,,,0,1,1,0,1,,,,,,,,,,,,,,,,,,,,,,,,,,,,,,,,,,,,,,,,,
689121,001,2022-11-20_23h51.56.088,Info_measure_main_exp,2022.2.2,Win32,144.1545337,,,,,,,,,,,,,,,,,,masks/mask_002.jpg,,,,,,,,,,,,,,,,,,,,,,,,,,,,,,,,,,,,,,,,,,,,,,,,0,2,2,1,1,,,,,,,,,,,,,,,,,,,,,,,,,,,,,,,,,,,,,,,,,
689121,001,2022-11-20_23h51.56.088,Info_measure_main_exp,2022.2.2,Win32,144.1545337,,,,,,,,,,,,,,,,,,masks/mask_003.jpg,,,,,,,,,,,,,,,,,,,,,,,,,,,,,,,,,,,,,,,,,,,,,,,,0,3,3,2,1,,,,,,,,,,,,,,,,,,,,,,,,,,,,,,,,,,,,,,,,,
689121,001,2022-11-20_23h51.56.088,Info_measure_main_exp,2022.2.2,Win32,144.1545337,,,,,,,,,,,,,,,,,,masks/mask_005.jpg,,,,,,,,,,,,,,,,,,,,,,,,,,,,,,,,,,,,,,,,,,,,,,,,0,4,4,4,1,,,,,,,,,,,,,,,,,,,,,,,,,,,,,,,,,,,,,,,,,
689121,001,2022-11-20_23h51.56.088,Info_measure_main_exp,2022.2.2,Win32,144.1545337,,,,,,,,,,,,,,,,,,,,,,,,,,,,,,7,1.1328,1,,,,,,,,,,,,0,131,5,5,2154,1974,absent_patch/patch0002154.jpg,absent_patch/patch0001974.jpg,,,,,,,,,,,,,,,,,,,,0.024074074,0.071296296,1,0,0,response1disk,14,0.010185185,0.009259259,1,0,0,center_square,0,13,13,82,1,,,,,,,,,,,,,,,,,,,,,,,
689121,001,2022-11-20_23h51.56.088,Info_measure_main_exp,2022.2.2,Win32,144.1545337,,,,,,,,,,,,,,,,,,masks/mask_002.jpg,,,,,,,,,,,,,,,,,,,,,,,,,,,,,,,,,,,,,,,,,,,0,0,0,1,1,,,,,,,,,,,,,,,,,,,,,,,,,,,,,,,,,,,,,,,,,,,,,,
689121,001,2022-11-20_23h51.56.088,Info_measure_main_exp,2022.2.2,Win32,144.1545337,,,,,,,,,,,,,,,,,,masks/mask_001.jpg,,,,,,,,,,,,,,,,,,,,,,,,,,,,,,,,,,,,,,,,,,,0,1,1,0,1,,,,,,,,,,,,,,,,,,,,,,,,,,,,,,,,,,,,,,,,,,,,,,
689121,001,2022-11-20_23h51.56.088,Info_measure_main_exp,2022.2.2,Win32,144.1545337,,,,,,,,,,,,,,,,,,masks/mask_003.jpg,,,,,,,,,,,,,,,,,,,,,,,,,,,,,,,,,,,,,,,,,,,0,2,2,2,1,,,,,,,,,,,,,,,,,,,,,,,,,,,,,,,,,,,,,,,,,,,,,,
689121,001,2022-11-20_23h51.56.088,Info_measure_main_exp,2022.2.2,Win32,144.1545337,,,,,,,,,,,,,,,,,,masks/mask_004.jpg,,,,,,,,,,,,,,,,,,,,,,,,,,,,,,,,,,,,,,,,,,,0,3,3,3,1,,,,,,,,,,,,,,,,,,,,,,,,,,,,,,,,,,,,,,,,,,,,,,
689121,001,2022-11-20_23h51.56.088,Info_measure_main_exp,2022.2.2,Win32,144.1545337,,,,,,,,,,,,,,,,,,masks/mask_005.jpg,,,,,,,,,,,,,,,,,,,,,,,,,,,,,,,,,,,,,,,,,,,0,4,4,4,1,,,,,,,,,,,,,,,,,,,,,,,,,,,,,,,,,,,,,,,,,,,,,,
689121,001,2022-11-20_23h51.56.088,Info_measure_main_exp,2022.2.2,Win32,144.1545337,,,,,,,,,,,,,,,,,,masks/mask_003.jpg,,,,,,,,,,,,,,,,,,,,,,,,,,,,,,,,,,,,,,,,,,,,,,,,0,0,0,2,1,,,,,,,,,,,,,,,,,,,,,,,,,,,,,,,,,,,,,,,,,
689121,001,2022-11-20_23h51.56.088,Info_measure_main_exp,2022.2.2,Win32,144.1545337,,,,,,,,,,,,,,,,,,masks/mask_005.jpg,,,,,,,,,,,,,,,,,,,,,,,,,,,,,,,,,,,,,,,,,,,,,,,,0,1,1,4,1,,,,,,,,,,,,,,,,,,,,,,,,,,,,,,,,,,,,,,,,,
689121,001,2022-11-20_23h51.56.088,Info_measure_main_exp,2022.2.2,Win32,144.1545337,,,,,,,,,,,,,,,,,,masks/mask_001.jpg,,,,,,,,,,,,,,,,,,,,,,,,,,,,,,,,,,,,,,,,,,,,,,,,0,2,2,0,1,,,,,,,,,,,,,,,,,,,,,,,,,,,,,,,,,,,,,,,,,
689121,001,2022-11-20_23h51.56.088,Info_measure_main_exp,2022.2.2,Win32,144.1545337,,,,,,,,,,,,,,,,,,masks/mask_002.jpg,,,,,,,,,,,,,,,,,,,,,,,,,,,,,,,,,,,,,,,,,,,,,,,,0,3,3,1,1,,,,,,,,,,,,,,,,,,,,,,,,,,,,,,,,,,,,,,,,,
689121,001,2022-11-20_23h51.56.088,Info_measure_main_exp,2022.2.2,Win32,144.1545337,,,,,,,,,,,,,,,,,,masks/mask_004.jpg,,,,,,,,,,,,,,,,,,,,,,,,,,,,,,,,,,,,,,,,,,,,,,,,0,4,4,3,1,,,,,,,,,,,,,,,,,,,,,,,,,,,,,,,,,,,,,,,,,
689121,001,2022-11-20_23h51.56.088,Info_measure_main_exp,2022.2.2,Win32,144.1545337,,,,,,,,,,,,,,,,,,,,,,,,,,,,,,5,1.1667,1,,,,,,,,,,,,0,131,5,5,1974,1950,absent_patch/patch0001974.jpg,absent_patch/patch0001950.jpg,,,,,,,,,,,,,,,,,,,,0.097222222,-0.016666667,1,0,0,response3disk,15,0.012962963,-0.00462963,1,0,0,center_square,0,14,14,17,1,,,,,,,,,,,,,,,,,,,,,,,
689121,001,2022-11-20_23h51.56.088,Info_measure_main_exp,2022.2.2,Win32,144.1545337,,,,,,,,,,,,,,,,,,masks/mask_001.jpg,,,,,,,,,,,,,,,,,,,,,,,,,,,,,,,,,,,,,,,,,,,0,0,0,0,1,,,,,,,,,,,,,,,,,,,,,,,,,,,,,,,,,,,,,,,,,,,,,,
689121,001,2022-11-20_23h51.56.088,Info_measure_main_exp,2022.2.2,Win32,144.1545337,,,,,,,,,,,,,,,,,,masks/mask_005.jpg,,,,,,,,,,,,,,,,,,,,,,,,,,,,,,,,,,,,,,,,,,,0,1,1,4,1,,,,,,,,,,,,,,,,,,,,,,,,,,,,,,,,,,,,,,,,,,,,,,
689121,001,2022-11-20_23h51.56.088,Info_measure_main_exp,2022.2.2,Win32,144.1545337,,,,,,,,,,,,,,,,,,masks/mask_002.jpg,,,,,,,,,,,,,,,,,,,,,,,,,,,,,,,,,,,,,,,,,,,0,2,2,1,1,,,,,,,,,,,,,,,,,,,,,,,,,,,,,,,,,,,,,,,,,,,,,,
689121,001,2022-11-20_23h51.56.088,Info_measure_main_exp,2022.2.2,Win32,144.1545337,,,,,,,,,,,,,,,,,,masks/mask_004.jpg,,,,,,,,,,,,,,,,,,,,,,,,,,,,,,,,,,,,,,,,,,,0,3,3,3,1,,,,,,,,,,,,,,,,,,,,,,,,,,,,,,,,,,,,,,,,,,,,,,
689121,001,2022-11-20_23h51.56.088,Info_measure_main_exp,2022.2.2,Win32,144.1545337,,,,,,,,,,,,,,,,,,masks/mask_003.jpg,,,,,,,,,,,,,,,,,,,,,,,,,,,,,,,,,,,,,,,,,,,0,4,4,2,1,,,,,,,,,,,,,,,,,,,,,,,,,,,,,,,,,,,,,,,,,,,,,,
689121,001,2022-11-20_23h51.56.088,Info_measure_main_exp,2022.2.2,Win32,144.1545337,,,,,,,,,,,,,,,,,,masks/mask_004.jpg,,,,,,,,,,,,,,,,,,,,,,,,,,,,,,,,,,,,,,,,,,,,,,,,0,0,0,3,1,,,,,,,,,,,,,,,,,,,,,,,,,,,,,,,,,,,,,,,,,
689121,001,2022-11-20_23h51.56.088,Info_measure_main_exp,2022.2.2,Win32,144.1545337,,,,,,,,,,,,,,,,,,masks/mask_001.jpg,,,,,,,,,,,,,,,,,,,,,,,,,,,,,,,,,,,,,,,,,,,,,,,,0,1,1,0,1,,,,,,,,,,,,,,,,,,,,,,,,,,,,,,,,,,,,,,,,,
689121,001,2022-11-20_23h51.56.088,Info_measure_main_exp,2022.2.2,Win32,144.1545337,,,,,,,,,,,,,,,,,,masks/mask_003.jpg,,,,,,,,,,,,,,,,,,,,,,,,,,,,,,,,,,,,,,,,,,,,,,,,0,2,2,2,1,,,,,,,,,,,,,,,,,,,,,,,,,,,,,,,,,,,,,,,,,
689121,001,2022-11-20_23h51.56.088,Info_measure_main_exp,2022.2.2,Win32,144.1545337,,,,,,,,,,,,,,,,,,masks/mask_002.jpg,,,,,,,,,,,,,,,,,,,,,,,,,,,,,,,,,,,,,,,,,,,,,,,,0,3,3,1,1,,,,,,,,,,,,,,,,,,,,,,,,,,,,,,,,,,,,,,,,,
689121,001,2022-11-20_23h51.56.088,Info_measure_main_exp,2022.2.2,Win32,144.1545337,,,,,,,,,,,,,,,,,,masks/mask_005.jpg,,,,,,,,,,,,,,,,,,,,,,,,,,,,,,,,,,,,,,,,,,,,,,,,0,4,4,4,1,,,,,,,,,,,,,,,,,,,,,,,,,,,,,,,,,,,,,,,,,
689121,001,2022-11-20_23h51.56.088,Info_measure_main_exp,2022.2.2,Win32,144.1545337,,,,,,,,,,,,,,,,,,,,,,,,,,,,,,7,0.493,1,,,,,,,,,,,,0,131,5,5,2154,2190,absent_patch/patch0002154.jpg,absent_patch/patch0002190.jpg,,,,,,,,,,,,,,,,,,,,0.031481481,0.065740741,1,0,0,response1disk,16,0.000925926,0.010185185,1,0,0,center_square,0,15,15,68,1,,,,,,,,,,,,,,,,,,,,,,,
689121,001,2022-11-20_23h51.56.088,Info_measure_main_exp,2022.2.2,Win32,144.1545337,,,,,,,,,,,,,,,,,,masks/mask_004.jpg,,,,,,,,,,,,,,,,,,,,,,,,,,,,,,,,,,,,,,,,,,,0,0,0,3,1,,,,,,,,,,,,,,,,,,,,,,,,,,,,,,,,,,,,,,,,,,,,,,
689121,001,2022-11-20_23h51.56.088,Info_measure_main_exp,2022.2.2,Win32,144.1545337,,,,,,,,,,,,,,,,,,masks/mask_005.jpg,,,,,,,,,,,,,,,,,,,,,,,,,,,,,,,,,,,,,,,,,,,0,1,1,4,1,,,,,,,,,,,,,,,,,,,,,,,,,,,,,,,,,,,,,,,,,,,,,,
689121,001,2022-11-20_23h51.56.088,Info_measure_main_exp,2022.2.2,Win32,144.1545337,,,,,,,,,,,,,,,,,,masks/mask_001.jpg,,,,,,,,,,,,,,,,,,,,,,,,,,,,,,,,,,,,,,,,,,,0,2,2,0,1,,,,,,,,,,,,,,,,,,,,,,,,,,,,,,,,,,,,,,,,,,,,,,
689121,001,2022-11-20_23h51.56.088,Info_measure_main_exp,2022.2.2,Win32,144.1545337,,,,,,,,,,,,,,,,,,masks/mask_003.jpg,,,,,,,,,,,,,,,,,,,,,,,,,,,,,,,,,,,,,,,,,,,0,3,3,2,1,,,,,,,,,,,,,,,,,,,,,,,,,,,,,,,,,,,,,,,,,,,,,,
689121,001,2022-11-20_23h51.56.088,Info_measure_main_exp,2022.2.2,Win32,144.1545337,,,,,,,,,,,,,,,,,,masks/mask_002.jpg,,,,,,,,,,,,,,,,,,,,,,,,,,,,,,,,,,,,,,,,,,,0,4,4,1,1,,,,,,,,,,,,,,,,,,,,,,,,,,,,,,,,,,,,,,,,,,,,,,
689121,001,2022-11-20_23h51.56.088,Info_measure_main_exp,2022.2.2,Win32,144.1545337,,,,,,,,,,,,,,,,,,masks/mask_005.jpg,,,,,,,,,,,,,,,,,,,,,,,,,,,,,,,,,,,,,,,,,,,,,,,,0,0,0,4,1,,,,,,,,,,,,,,,,,,,,,,,,,,,,,,,,,,,,,,,,,
689121,001,2022-11-20_23h51.56.088,Info_measure_main_exp,2022.2.2,Win32,144.1545337,,,,,,,,,,,,,,,,,,masks/mask_001.jpg,,,,,,,,,,,,,,,,,,,,,,,,,,,,,,,,,,,,,,,,,,,,,,,,0,1,1,0,1,,,,,,,,,,,,,,,,,,,,,,,,,,,,,,,,,,,,,,,,,
689121,001,2022-11-20_23h51.56.088,Info_measure_main_exp,2022.2.2,Win32,144.1545337,,,,,,,,,,,,,,,,,,masks/mask_003.jpg,,,,,,,,,,,,,,,,,,,,,,,,,,,,,,,,,,,,,,,,,,,,,,,,0,2,2,2,1,,,,,,,,,,,,,,,,,,,,,,,,,,,,,,,,,,,,,,,,,
689121,001,2022-11-20_23h51.56.088,Info_measure_main_exp,2022.2.2,Win32,144.1545337,,,,,,,,,,,,,,,,,,masks/mask_002.jpg,,,,,,,,,,,,,,,,,,,,,,,,,,,,,,,,,,,,,,,,,,,,,,,,0,3,3,1,1,,,,,,,,,,,,,,,,,,,,,,,,,,,,,,,,,,,,,,,,,
689121,001,2022-11-20_23h51.56.088,Info_measure_main_exp,2022.2.2,Win32,144.1545337,,,,,,,,,,,,,,,,,,masks/mask_004.jpg,,,,,,,,,,,,,,,,,,,,,,,,,,,,,,,,,,,,,,,,,,,,,,,,0,4,4,3,1,,,,,,,,,,,,,,,,,,,,,,,,,,,,,,,,,,,,,,,,,
689121,001,2022-11-20_23h51.56.088,Info_measure_main_exp,2022.2.2,Win32,144.1545337,,,,,,,,,,,,,,,,,,,,,,,,,,,,,,7,1.4306,1,,,,,,,,,,,,0,131,5,5,2298,2142,absent_patch/patch0002298.jpg,absent_patch/patch0002142.jpg,,,,,,,,,,,,,,,,,,,,0.040740741,0.07037037,1,0,0,response1disk,17,0.006481481,-0.001851852,1,0,0,center_square,0,16,16,49,1,,,,,,,,,,,,,,,,,,,,,,,
689121,001,2022-11-20_23h51.56.088,Info_measure_main_exp,2022.2.2,Win32,144.1545337,,,,,,,,,,,,,,,,,,masks/mask_004.jpg,,,,,,,,,,,,,,,,,,,,,,,,,,,,,,,,,,,,,,,,,,,0,0,0,3,1,,,,,,,,,,,,,,,,,,,,,,,,,,,,,,,,,,,,,,,,,,,,,,
689121,001,2022-11-20_23h51.56.088,Info_measure_main_exp,2022.2.2,Win32,144.1545337,,,,,,,,,,,,,,,,,,masks/mask_001.jpg,,,,,,,,,,,,,,,,,,,,,,,,,,,,,,,,,,,,,,,,,,,0,1,1,0,1,,,,,,,,,,,,,,,,,,,,,,,,,,,,,,,,,,,,,,,,,,,,,,
689121,001,2022-11-20_23h51.56.088,Info_measure_main_exp,2022.2.2,Win32,144.1545337,,,,,,,,,,,,,,,,,,masks/mask_005.jpg,,,,,,,,,,,,,,,,,,,,,,,,,,,,,,,,,,,,,,,,,,,0,2,2,4,1,,,,,,,,,,,,,,,,,,,,,,,,,,,,,,,,,,,,,,,,,,,,,,
689121,001,2022-11-20_23h51.56.088,Info_measure_main_exp,2022.2.2,Win32,144.1545337,,,,,,,,,,,,,,,,,,masks/mask_002.jpg,,,,,,,,,,,,,,,,,,,,,,,,,,,,,,,,,,,,,,,,,,,0,3,3,1,1,,,,,,,,,,,,,,,,,,,,,,,,,,,,,,,,,,,,,,,,,,,,,,
689121,001,2022-11-20_23h51.56.088,Info_measure_main_exp,2022.2.2,Win32,144.1545337,,,,,,,,,,,,,,,,,,masks/mask_003.jpg,,,,,,,,,,,,,,,,,,,,,,,,,,,,,,,,,,,,,,,,,,,0,4,4,2,1,,,,,,,,,,,,,,,,,,,,,,,,,,,,,,,,,,,,,,,,,,,,,,
689121,001,2022-11-20_23h51.56.088,Info_measure_main_exp,2022.2.2,Win32,144.1545337,,,,,,,,,,,,,,,,,,masks/mask_001.jpg,,,,,,,,,,,,,,,,,,,,,,,,,,,,,,,,,,,,,,,,,,,,,,,,0,0,0,0,1,,,,,,,,,,,,,,,,,,,,,,,,,,,,,,,,,,,,,,,,,
689121,001,2022-11-20_23h51.56.088,Info_measure_main_exp,2022.2.2,Win32,144.1545337,,,,,,,,,,,,,,,,,,masks/mask_003.jpg,,,,,,,,,,,,,,,,,,,,,,,,,,,,,,,,,,,,,,,,,,,,,,,,0,1,1,2,1,,,,,,,,,,,,,,,,,,,,,,,,,,,,,,,,,,,,,,,,,
689121,001,2022-11-20_23h51.56.088,Info_measure_main_exp,2022.2.2,Win32,144.1545337,,,,,,,,,,,,,,,,,,masks/mask_005.jpg,,,,,,,,,,,,,,,,,,,,,,,,,,,,,,,,,,,,,,,,,,,,,,,,0,2,2,4,1,,,,,,,,,,,,,,,,,,,,,,,,,,,,,,,,,,,,,,,,,
689121,001,2022-11-20_23h51.56.088,Info_measure_main_exp,2022.2.2,Win32,144.1545337,,,,,,,,,,,,,,,,,,masks/mask_002.jpg,,,,,,,,,,,,,,,,,,,,,,,,,,,,,,,,,,,,,,,,,,,,,,,,0,3,3,1,1,,,,,,,,,,,,,,,,,,,,,,,,,,,,,,,,,,,,,,,,,
689121,001,2022-11-20_23h51.56.088,Info_measure_main_exp,2022.2.2,Win32,144.1545337,,,,,,,,,,,,,,,,,,masks/mask_004.jpg,,,,,,,,,,,,,,,,,,,,,,,,,,,,,,,,,,,,,,,,,,,,,,,,0,4,4,3,1,,,,,,,,,,,,,,,,,,,,,,,,,,,,,,,,,,,,,,,,,
689121,001,2022-11-20_23h51.56.088,Info_measure_main_exp,2022.2.2,Win32,144.1545337,,,,,,,,,,,,,,,,,,,,,,,,,,,,,,7,0.8196,1,,,,,,,,,,,,0,131,5,5,2250,2214,absent_patch/patch0002250.jpg,absent_patch/patch0002214.jpg,,,,,,,,,,,,,,,,,,,,0.023148148,0.101851852,1,0,0,response1disk,18,0.001851852,0.000925926,1,0,0,center_square,0,17,17,97,1,,,,,,,,,,,,,,,,,,,,,,,
689121,001,2022-11-20_23h51.56.088,Info_measure_main_exp,2022.2.2,Win32,144.1545337,,,,,,,,,,,,,,,,,,masks/mask_004.jpg,,,,,,,,,,,,,,,,,,,,,,,,,,,,,,,,,,,,,,,,,,,0,0,0,3,1,,,,,,,,,,,,,,,,,,,,,,,,,,,,,,,,,,,,,,,,,,,,,,
689121,001,2022-11-20_23h51.56.088,Info_measure_main_exp,2022.2.2,Win32,144.1545337,,,,,,,,,,,,,,,,,,masks/mask_003.jpg,,,,,,,,,,,,,,,,,,,,,,,,,,,,,,,,,,,,,,,,,,,0,1,1,2,1,,,,,,,,,,,,,,,,,,,,,,,,,,,,,,,,,,,,,,,,,,,,,,
689121,001,2022-11-20_23h51.56.088,Info_measure_main_exp,2022.2.2,Win32,144.1545337,,,,,,,,,,,,,,,,,,masks/mask_002.jpg,,,,,,,,,,,,,,,,,,,,,,,,,,,,,,,,,,,,,,,,,,,0,2,2,1,1,,,,,,,,,,,,,,,,,,,,,,,,,,,,,,,,,,,,,,,,,,,,,,
689121,001,2022-11-20_23h51.56.088,Info_measure_main_exp,2022.2.2,Win32,144.1545337,,,,,,,,,,,,,,,,,,masks/mask_001.jpg,,,,,,,,,,,,,,,,,,,,,,,,,,,,,,,,,,,,,,,,,,,0,3,3,0,1,,,,,,,,,,,,,,,,,,,,,,,,,,,,,,,,,,,,,,,,,,,,,,
689121,001,2022-11-20_23h51.56.088,Info_measure_main_exp,2022.2.2,Win32,144.1545337,,,,,,,,,,,,,,,,,,masks/mask_005.jpg,,,,,,,,,,,,,,,,,,,,,,,,,,,,,,,,,,,,,,,,,,,0,4,4,4,1,,,,,,,,,,,,,,,,,,,,,,,,,,,,,,,,,,,,,,,,,,,,,,
689121,001,2022-11-20_23h51.56.088,Info_measure_main_exp,2022.2.2,Win32,144.1545337,,,,,,,,,,,,,,,,,,masks/mask_004.jpg,,,,,,,,,,,,,,,,,,,,,,,,,,,,,,,,,,,,,,,,,,,,,,,,0,0,0,3,1,,,,,,,,,,,,,,,,,,,,,,,,,,,,,,,,,,,,,,,,,
689121,001,2022-11-20_23h51.56.088,Info_measure_main_exp,2022.2.2,Win32,144.1545337,,,,,,,,,,,,,,,,,,masks/mask_001.jpg,,,,,,,,,,,,,,,,,,,,,,,,,,,,,,,,,,,,,,,,,,,,,,,,0,1,1,0,1,,,,,,,,,,,,,,,,,,,,,,,,,,,,,,,,,,,,,,,,,
689121,001,2022-11-20_23h51.56.088,Info_measure_main_exp,2022.2.2,Win32,144.1545337,,,,,,,,,,,,,,,,,,masks/mask_005.jpg,,,,,,,,,,,,,,,,,,,,,,,,,,,,,,,,,,,,,,,,,,,,,,,,0,2,2,4,1,,,,,,,,,,,,,,,,,,,,,,,,,,,,,,,,,,,,,,,,,
689121,001,2022-11-20_23h51.56.088,Info_measure_main_exp,2022.2.2,Win32,144.1545337,,,,,,,,,,,,,,,,,,masks/mask_003.jpg,,,,,,,,,,,,,,,,,,,,,,,,,,,,,,,,,,,,,,,,,,,,,,,,0,3,3,2,1,,,,,,,,,,,,,,,,,,,,,,,,,,,,,,,,,,,,,,,,,
689121,001,2022-11-20_23h51.56.088,Info_measure_main_exp,2022.2.2,Win32,144.1545337,,,,,,,,,,,,,,,,,,masks/mask_002.jpg,,,,,,,,,,,,,,,,,,,,,,,,,,,,,,,,,,,,,,,,,,,,,,,,0,4,4,1,1,,,,,,,,,,,,,,,,,,,,,,,,,,,,,,,,,,,,,,,,,
689121,001,2022-11-20_23h51.56.088,Info_measure_main_exp,2022.2.2,Win32,144.1545337,,,,,,,,,,,,,,,,,,,,,,,,,,,,,,7,0.368,1,,,,,,,,,,,,1,131,5,5,1,2166,present_patch/cong_131_5_a.jpg,absent_patch/patch0002166.jpg,,,,,,,,,,,,,,,,,,,,0.034259259,0.069444444,1,0,0,response1disk,19,-0.008333333,0.007407407,1,0,0,center_square,0,18,18,54,1,,,,,,,,,,,,,,,,,,,,,,,
689121,001,2022-11-20_23h51.56.088,Info_measure_main_exp,2022.2.2,Win32,144.1545337,,,,,,,,,,,,,,,,,,masks/mask_001.jpg,,,,,,,,,,,,,,,,,,,,,,,,,,,,,,,,,,,,,,,,,,,0,0,0,0,1,,,,,,,,,,,,,,,,,,,,,,,,,,,,,,,,,,,,,,,,,,,,,,
689121,001,2022-11-20_23h51.56.088,Info_measure_main_exp,2022.2.2,Win32,144.1545337,,,,,,,,,,,,,,,,,,masks/mask_004.jpg,,,,,,,,,,,,,,,,,,,,,,,,,,,,,,,,,,,,,,,,,,,0,1,1,3,1,,,,,,,,,,,,,,,,,,,,,,,,,,,,,,,,,,,,,,,,,,,,,,
689121,001,2022-11-20_23h51.56.088,Info_measure_main_exp,2022.2.2,Win32,144.1545337,,,,,,,,,,,,,,,,,,masks/mask_005.jpg,,,,,,,,,,,,,,,,,,,,,,,,,,,,,,,,,,,,,,,,,,,0,2,2,4,1,,,,,,,,,,,,,,,,,,,,,,,,,,,,,,,,,,,,,,,,,,,,,,
689121,001,2022-11-20_23h51.56.088,Info_measure_main_exp,2022.2.2,Win32,144.1545337,,,,,,,,,,,,,,,,,,masks/mask_002.jpg,,,,,,,,,,,,,,,,,,,,,,,,,,,,,,,,,,,,,,,,,,,0,3,3,1,1,,,,,,,,,,,,,,,,,,,,,,,,,,,,,,,,,,,,,,,,,,,,,,
689121,001,2022-11-20_23h51.56.088,Info_measure_main_exp,2022.2.2,Win32,144.1545337,,,,,,,,,,,,,,,,,,masks/mask_003.jpg,,,,,,,,,,,,,,,,,,,,,,,,,,,,,,,,,,,,,,,,,,,0,4,4,2,1,,,,,,,,,,,,,,,,,,,,,,,,,,,,,,,,,,,,,,,,,,,,,,
689121,001,2022-11-20_23h51.56.088,Info_measure_main_exp,2022.2.2,Win32,144.1545337,,,,,,,,,,,,,,,,,,masks/mask_005.jpg,,,,,,,,,,,,,,,,,,,,,,,,,,,,,,,,,,,,,,,,,,,,,,,,0,0,0,4,1,,,,,,,,,,,,,,,,,,,,,,,,,,,,,,,,,,,,,,,,,
689121,001,2022-11-20_23h51.56.088,Info_measure_main_exp,2022.2.2,Win32,144.1545337,,,,,,,,,,,,,,,,,,masks/mask_004.jpg,,,,,,,,,,,,,,,,,,,,,,,,,,,,,,,,,,,,,,,,,,,,,,,,0,1,1,3,1,,,,,,,,,,,,,,,,,,,,,,,,,,,,,,,,,,,,,,,,,
689121,001,2022-11-20_23h51.56.088,Info_measure_main_exp,2022.2.2,Win32,144.1545337,,,,,,,,,,,,,,,,,,masks/mask_001.jpg,,,,,,,,,,,,,,,,,,,,,,,,,,,,,,,,,,,,,,,,,,,,,,,,0,2,2,0,1,,,,,,,,,,,,,,,,,,,,,,,,,,,,,,,,,,,,,,,,,
689121,001,2022-11-20_23h51.56.088,Info_measure_main_exp,2022.2.2,Win32,144.1545337,,,,,,,,,,,,,,,,,,masks/mask_002.jpg,,,,,,,,,,,,,,,,,,,,,,,,,,,,,,,,,,,,,,,,,,,,,,,,0,3,3,1,1,,,,,,,,,,,,,,,,,,,,,,,,,,,,,,,,,,,,,,,,,
689121,001,2022-11-20_23h51.56.088,Info_measure_main_exp,2022.2.2,Win32,144.1545337,,,,,,,,,,,,,,,,,,masks/mask_003.jpg,,,,,,,,,,,,,,,,,,,,,,,,,,,,,,,,,,,,,,,,,,,,,,,,0,4,4,2,1,,,,,,,,,,,,,,,,,,,,,,,,,,,,,,,,,,,,,,,,,
689121,001,2022-11-20_23h51.56.088,Info_measure_main_exp,2022.2.2,Win32,144.1545337,,,,,,,,,,,,,,,,,,,,,,,,,,,,,,7,0.4792,1,,,,,,,,,,,,0,131,5,5,2274,2250,absent_patch/patch0002274.jpg,absent_patch/patch0002250.jpg,,,,,,,,,,,,,,,,,,,,0.02037037,0.065740741,1,0,0,response1disk,20,-0.001851852,0.002777778,1,0,0,center_square,0,19,19,28,1,,,,,,,,,,,,,,,,,,,,,,,
689121,001,2022-11-20_23h51.56.088,Info_measure_main_exp,2022.2.2,Win32,144.1545337,,,,,,,,,,,,,,,,,,masks/mask_005.jpg,,,,,,,,,,,,,,,,,,,,,,,,,,,,,,,,,,,,,,,,,,,0,0,0,4,1,,,,,,,,,,,,,,,,,,,,,,,,,,,,,,,,,,,,,,,,,,,,,,
689121,001,2022-11-20_23h51.56.088,Info_measure_main_exp,2022.2.2,Win32,144.1545337,,,,,,,,,,,,,,,,,,masks/mask_004.jpg,,,,,,,,,,,,,,,,,,,,,,,,,,,,,,,,,,,,,,,,,,,0,1,1,3,1,,,,,,,,,,,,,,,,,,,,,,,,,,,,,,,,,,,,,,,,,,,,,,
689121,001,2022-11-20_23h51.56.088,Info_measure_main_exp,2022.2.2,Win32,144.1545337,,,,,,,,,,,,,,,,,,masks/mask_002.jpg,,,,,,,,,,,,,,,,,,,,,,,,,,,,,,,,,,,,,,,,,,,0,2,2,1,1,,,,,,,,,,,,,,,,,,,,,,,,,,,,,,,,,,,,,,,,,,,,,,
689121,001,2022-11-20_23h51.56.088,Info_measure_main_exp,2022.2.2,Win32,144.1545337,,,,,,,,,,,,,,,,,,masks/mask_001.jpg,,,,,,,,,,,,,,,,,,,,,,,,,,,,,,,,,,,,,,,,,,,0,3,3,0,1,,,,,,,,,,,,,,,,,,,,,,,,,,,,,,,,,,,,,,,,,,,,,,
689121,001,2022-11-20_23h51.56.088,Info_measure_main_exp,2022.2.2,Win32,144.1545337,,,,,,,,,,,,,,,,,,masks/mask_003.jpg,,,,,,,,,,,,,,,,,,,,,,,,,,,,,,,,,,,,,,,,,,,0,4,4,2,1,,,,,,,,,,,,,,,,,,,,,,,,,,,,,,,,,,,,,,,,,,,,,,
689121,001,2022-11-20_23h51.56.088,Info_measure_main_exp,2022.2.2,Win32,144.1545337,,,,,,,,,,,,,,,,,,masks/mask_004.jpg,,,,,,,,,,,,,,,,,,,,,,,,,,,,,,,,,,,,,,,,,,,,,,,,0,0,0,3,1,,,,,,,,,,,,,,,,,,,,,,,,,,,,,,,,,,,,,,,,,
689121,001,2022-11-20_23h51.56.088,Info_measure_main_exp,2022.2.2,Win32,144.1545337,,,,,,,,,,,,,,,,,,masks/mask_002.jpg,,,,,,,,,,,,,,,,,,,,,,,,,,,,,,,,,,,,,,,,,,,,,,,,0,1,1,1,1,,,,,,,,,,,,,,,,,,,,,,,,,,,,,,,,,,,,,,,,,
689121,001,2022-11-20_23h51.56.088,Info_measure_main_exp,2022.2.2,Win32,144.1545337,,,,,,,,,,,,,,,,,,masks/mask_001.jpg,,,,,,,,,,,,,,,,,,,,,,,,,,,,,,,,,,,,,,,,,,,,,,,,0,2,2,0,1,,,,,,,,,,,,,,,,,,,,,,,,,,,,,,,,,,,,,,,,,
689121,001,2022-11-20_23h51.56.088,Info_measure_main_exp,2022.2.2,Win32,144.1545337,,,,,,,,,,,,,,,,,,masks/mask_003.jpg,,,,,,,,,,,,,,,,,,,,,,,,,,,,,,,,,,,,,,,,,,,,,,,,0,3,3,2,1,,,,,,,,,,,,,,,,,,,,,,,,,,,,,,,,,,,,,,,,,
689121,001,2022-11-20_23h51.56.088,Info_measure_main_exp,2022.2.2,Win32,144.1545337,,,,,,,,,,,,,,,,,,masks/mask_005.jpg,,,,,,,,,,,,,,,,,,,,,,,,,,,,,,,,,,,,,,,,,,,,,,,,0,4,4,4,1,,,,,,,,,,,,,,,,,,,,,,,,,,,,,,,,,,,,,,,,,
689121,001,2022-11-20_23h51.56.088,Info_measure_main_exp,2022.2.2,Win32,144.1545337,,,,,,,,,,,,,,,,,,,,,,,,,,,,,,0,0.3532,1,,,,,,,,,,,,1,131,5,5,1,1,present_patch/cong_131_5_a.jpg,present_patch/cong_131_5_a.jpg,,,,,,,,,,,,,,,,,,,,-0.044444444,0.102777778,1,0,0,response7disk,21,0.005555556,0.007407407,1,0,0,center_square,0,20,20,30,1,,,,,,,,,,,,,,,,,,,,,,,
689121,001,2022-11-20_23h51.56.088,Info_measure_main_exp,2022.2.2,Win32,144.1545337,,,,,,,,,,,,,,,,,,masks/mask_001.jpg,,,,,,,,,,,,,,,,,,,,,,,,,,,,,,,,,,,,,,,,,,,0,0,0,0,1,,,,,,,,,,,,,,,,,,,,,,,,,,,,,,,,,,,,,,,,,,,,,,
689121,001,2022-11-20_23h51.56.088,Info_measure_main_exp,2022.2.2,Win32,144.1545337,,,,,,,,,,,,,,,,,,masks/mask_002.jpg,,,,,,,,,,,,,,,,,,,,,,,,,,,,,,,,,,,,,,,,,,,0,1,1,1,1,,,,,,,,,,,,,,,,,,,,,,,,,,,,,,,,,,,,,,,,,,,,,,
689121,001,2022-11-20_23h51.56.088,Info_measure_main_exp,2022.2.2,Win32,144.1545337,,,,,,,,,,,,,,,,,,masks/mask_004.jpg,,,,,,,,,,,,,,,,,,,,,,,,,,,,,,,,,,,,,,,,,,,0,2,2,3,1,,,,,,,,,,,,,,,,,,,,,,,,,,,,,,,,,,,,,,,,,,,,,,
689121,001,2022-11-20_23h51.56.088,Info_measure_main_exp,2022.2.2,Win32,144.1545337,,,,,,,,,,,,,,,,,,masks/mask_003.jpg,,,,,,,,,,,,,,,,,,,,,,,,,,,,,,,,,,,,,,,,,,,0,3,3,2,1,,,,,,,,,,,,,,,,,,,,,,,,,,,,,,,,,,,,,,,,,,,,,,
689121,001,2022-11-20_23h51.56.088,Info_measure_main_exp,2022.2.2,Win32,144.1545337,,,,,,,,,,,,,,,,,,masks/mask_005.jpg,,,,,,,,,,,,,,,,,,,,,,,,,,,,,,,,,,,,,,,,,,,0,4,4,4,1,,,,,,,,,,,,,,,,,,,,,,,,,,,,,,,,,,,,,,,,,,,,,,
689121,001,2022-11-20_23h51.56.088,Info_measure_main_exp,2022.2.2,Win32,144.1545337,,,,,,,,,,,,,,,,,,masks/mask_002.jpg,,,,,,,,,,,,,,,,,,,,,,,,,,,,,,,,,,,,,,,,,,,,,,,,0,0,0,1,1,,,,,,,,,,,,,,,,,,,,,,,,,,,,,,,,,,,,,,,,,
689121,001,2022-11-20_23h51.56.088,Info_measure_main_exp,2022.2.2,Win32,144.1545337,,,,,,,,,,,,,,,,,,masks/mask_005.jpg,,,,,,,,,,,,,,,,,,,,,,,,,,,,,,,,,,,,,,,,,,,,,,,,0,1,1,4,1,,,,,,,,,,,,,,,,,,,,,,,,,,,,,,,,,,,,,,,,,
689121,001,2022-11-20_23h51.56.088,Info_measure_main_exp,2022.2.2,Win32,144.1545337,,,,,,,,,,,,,,,,,,masks/mask_003.jpg,,,,,,,,,,,,,,,,,,,,,,,,,,,,,,,,,,,,,,,,,,,,,,,,0,2,2,2,1,,,,,,,,,,,,,,,,,,,,,,,,,,,,,,,,,,,,,,,,,
689121,001,2022-11-20_23h51.56.088,Info_measure_main_exp,2022.2.2,Win32,144.1545337,,,,,,,,,,,,,,,,,,masks/mask_001.jpg,,,,,,,,,,,,,,,,,,,,,,,,,,,,,,,,,,,,,,,,,,,,,,,,0,3,3,0,1,,,,,,,,,,,,,,,,,,,,,,,,,,,,,,,,,,,,,,,,,
689121,001,2022-11-20_23h51.56.088,Info_measure_main_exp,2022.2.2,Win32,144.1545337,,,,,,,,,,,,,,,,,,masks/mask_004.jpg,,,,,,,,,,,,,,,,,,,,,,,,,,,,,,,,,,,,,,,,,,,,,,,,0,4,4,3,1,,,,,,,,,,,,,,,,,,,,,,,,,,,,,,,,,,,,,,,,,
689121,001,2022-11-20_23h51.56.088,Info_measure_main_exp,2022.2.2,Win32,144.1545337,,,,,,,,,,,,,,,,,,,,,,,,,,,,,,2,1.6251,1,,,,,,,,,,,,0,131,5,5,2082,2082,absent_patch/patch0002082.jpg,absent_patch/patch0002082.jpg,,,,,,,,,,,,,,,,,,,,-0.084259259,-0.049074074,1,0,0,response5disk,22,0,0.001851852,1,0,0,center_square,0,21,21,74,1,,,,,,,,,,,,,,,,,,,,,,,
689121,001,2022-11-20_23h51.56.088,Info_measure_main_exp,2022.2.2,Win32,144.1545337,,,,,,,,,,,,,,,,,,masks/mask_001.jpg,,,,,,,,,,,,,,,,,,,,,,,,,,,,,,,,,,,,,,,,,,,0,0,0,0,1,,,,,,,,,,,,,,,,,,,,,,,,,,,,,,,,,,,,,,,,,,,,,,
689121,001,2022-11-20_23h51.56.088,Info_measure_main_exp,2022.2.2,Win32,144.1545337,,,,,,,,,,,,,,,,,,masks/mask_002.jpg,,,,,,,,,,,,,,,,,,,,,,,,,,,,,,,,,,,,,,,,,,,0,1,1,1,1,,,,,,,,,,,,,,,,,,,,,,,,,,,,,,,,,,,,,,,,,,,,,,
689121,001,2022-11-20_23h51.56.088,Info_measure_main_exp,2022.2.2,Win32,144.1545337,,,,,,,,,,,,,,,,,,masks/mask_003.jpg,,,,,,,,,,,,,,,,,,,,,,,,,,,,,,,,,,,,,,,,,,,0,2,2,2,1,,,,,,,,,,,,,,,,,,,,,,,,,,,,,,,,,,,,,,,,,,,,,,
689121,001,2022-11-20_23h51.56.088,Info_measure_main_exp,2022.2.2,Win32,144.1545337,,,,,,,,,,,,,,,,,,masks/mask_004.jpg,,,,,,,,,,,,,,,,,,,,,,,,,,,,,,,,,,,,,,,,,,,0,3,3,3,1,,,,,,,,,,,,,,,,,,,,,,,,,,,,,,,,,,,,,,,,,,,,,,
689121,001,2022-11-20_23h51.56.088,Info_measure_main_exp,2022.2.2,Win32,144.1545337,,,,,,,,,,,,,,,,,,masks/mask_005.jpg,,,,,,,,,,,,,,,,,,,,,,,,,,,,,,,,,,,,,,,,,,,0,4,4,4,1,,,,,,,,,,,,,,,,,,,,,,,,,,,,,,,,,,,,,,,,,,,,,,
689121,001,2022-11-20_23h51.56.088,Info_measure_main_exp,2022.2.2,Win32,144.1545337,,,,,,,,,,,,,,,,,,masks/mask_002.jpg,,,,,,,,,,,,,,,,,,,,,,,,,,,,,,,,,,,,,,,,,,,,,,,,0,0,0,1,1,,,,,,,,,,,,,,,,,,,,,,,,,,,,,,,,,,,,,,,,,
689121,001,2022-11-20_23h51.56.088,Info_measure_main_exp,2022.2.2,Win32,144.1545337,,,,,,,,,,,,,,,,,,masks/mask_003.jpg,,,,,,,,,,,,,,,,,,,,,,,,,,,,,,,,,,,,,,,,,,,,,,,,0,1,1,2,1,,,,,,,,,,,,,,,,,,,,,,,,,,,,,,,,,,,,,,,,,
689121,001,2022-11-20_23h51.56.088,Info_measure_main_exp,2022.2.2,Win32,144.1545337,,,,,,,,,,,,,,,,,,masks/mask_005.jpg,,,,,,,,,,,,,,,,,,,,,,,,,,,,,,,,,,,,,,,,,,,,,,,,0,2,2,4,1,,,,,,,,,,,,,,,,,,,,,,,,,,,,,,,,,,,,,,,,,
689121,001,2022-11-20_23h51.56.088,Info_measure_main_exp,2022.2.2,Win32,144.1545337,,,,,,,,,,,,,,,,,,masks/mask_004.jpg,,,,,,,,,,,,,,,,,,,,,,,,,,,,,,,,,,,,,,,,,,,,,,,,0,3,3,3,1,,,,,,,,,,,,,,,,,,,,,,,,,,,,,,,,,,,,,,,,,
689121,001,2022-11-20_23h51.56.088,Info_measure_main_exp,2022.2.2,Win32,144.1545337,,,,,,,,,,,,,,,,,,masks/mask_001.jpg,,,,,,,,,,,,,,,,,,,,,,,,,,,,,,,,,,,,,,,,,,,,,,,,0,4,4,0,1,,,,,,,,,,,,,,,,,,,,,,,,,,,,,,,,,,,,,,,,,
689121,001,2022-11-20_23h51.56.088,Info_measure_main_exp,2022.2.2,Win32,144.1545337,,,,,,,,,,,,,,,,,,,,,,,,,,,,,,7,1.5138,1,,,,,,,,,,,,0,131,5,5,2238,2166,absent_patch/patch0002238.jpg,absent_patch/patch0002166.jpg,,,,,,,,,,,,,,,,,,,,0.086111111,0.10462963,1,0,0,response1disk,23,0.009259259,0.001851852,1,0,0,center_square,0,22,22,118,1,,,,,,,,,,,,,,,,,,,,,,,
689121,001,2022-11-20_23h51.56.088,Info_measure_main_exp,2022.2.2,Win32,144.1545337,,,,,,,,,,,,,,,,,,masks/mask_001.jpg,,,,,,,,,,,,,,,,,,,,,,,,,,,,,,,,,,,,,,,,,,,0,0,0,0,1,,,,,,,,,,,,,,,,,,,,,,,,,,,,,,,,,,,,,,,,,,,,,,
689121,001,2022-11-20_23h51.56.088,Info_measure_main_exp,2022.2.2,Win32,144.1545337,,,,,,,,,,,,,,,,,,masks/mask_002.jpg,,,,,,,,,,,,,,,,,,,,,,,,,,,,,,,,,,,,,,,,,,,0,1,1,1,1,,,,,,,,,,,,,,,,,,,,,,,,,,,,,,,,,,,,,,,,,,,,,,
689121,001,2022-11-20_23h51.56.088,Info_measure_main_exp,2022.2.2,Win32,144.1545337,,,,,,,,,,,,,,,,,,masks/mask_004.jpg,,,,,,,,,,,,,,,,,,,,,,,,,,,,,,,,,,,,,,,,,,,0,2,2,3,1,,,,,,,,,,,,,,,,,,,,,,,,,,,,,,,,,,,,,,,,,,,,,,
689121,001,2022-11-20_23h51.56.088,Info_measure_main_exp,2022.2.2,Win32,144.1545337,,,,,,,,,,,,,,,,,,masks/mask_003.jpg,,,,,,,,,,,,,,,,,,,,,,,,,,,,,,,,,,,,,,,,,,,0,3,3,2,1,,,,,,,,,,,,,,,,,,,,,,,,,,,,,,,,,,,,,,,,,,,,,,
689121,001,2022-11-20_23h51.56.088,Info_measure_main_exp,2022.2.2,Win32,144.1545337,,,,,,,,,,,,,,,,,,masks/mask_005.jpg,,,,,,,,,,,,,,,,,,,,,,,,,,,,,,,,,,,,,,,,,,,0,4,4,4,1,,,,,,,,,,,,,,,,,,,,,,,,,,,,,,,,,,,,,,,,,,,,,,
689121,001,2022-11-20_23h51.56.088,Info_measure_main_exp,2022.2.2,Win32,144.1545337,,,,,,,,,,,,,,,,,,masks/mask_005.jpg,,,,,,,,,,,,,,,,,,,,,,,,,,,,,,,,,,,,,,,,,,,,,,,,0,0,0,4,1,,,,,,,,,,,,,,,,,,,,,,,,,,,,,,,,,,,,,,,,,
689121,001,2022-11-20_23h51.56.088,Info_measure_main_exp,2022.2.2,Win32,144.1545337,,,,,,,,,,,,,,,,,,masks/mask_002.jpg,,,,,,,,,,,,,,,,,,,,,,,,,,,,,,,,,,,,,,,,,,,,,,,,0,1,1,1,1,,,,,,,,,,,,,,,,,,,,,,,,,,,,,,,,,,,,,,,,,
689121,001,2022-11-20_23h51.56.088,Info_measure_main_exp,2022.2.2,Win32,144.1545337,,,,,,,,,,,,,,,,,,masks/mask_001.jpg,,,,,,,,,,,,,,,,,,,,,,,,,,,,,,,,,,,,,,,,,,,,,,,,0,2,2,0,1,,,,,,,,,,,,,,,,,,,,,,,,,,,,,,,,,,,,,,,,,
689121,001,2022-11-20_23h51.56.088,Info_measure_main_exp,2022.2.2,Win32,144.1545337,,,,,,,,,,,,,,,,,,masks/mask_003.jpg,,,,,,,,,,,,,,,,,,,,,,,,,,,,,,,,,,,,,,,,,,,,,,,,0,3,3,2,1,,,,,,,,,,,,,,,,,,,,,,,,,,,,,,,,,,,,,,,,,
689121,001,2022-11-20_23h51.56.088,Info_measure_main_exp,2022.2.2,Win32,144.1545337,,,,,,,,,,,,,,,,,,masks/mask_004.jpg,,,,,,,,,,,,,,,,,,,,,,,,,,,,,,,,,,,,,,,,,,,,,,,,0,4,4,3,1,,,,,,,,,,,,,,,,,,,,,,,,,,,,,,,,,,,,,,,,,
689121,001,2022-11-20_23h51.56.088,Info_measure_main_exp,2022.2.2,Win32,144.1545337,,,,,,,,,,,,,,,,,,,,,,,,,,,,,,7,0.9583,1,,,,,,,,,,,,0,131,5,5,2250,2238,absent_patch/patch0002250.jpg,absent_patch/patch0002238.jpg,,,,,,,,,,,,,,,,,,,,0.04537037,0.094444444,1,0,0,response1disk,24,0.007407407,-0.008333333,1,0,0,center_square,0,23,23,110,1,,,,,,,,,,,,,,,,,,,,,,,
689121,001,2022-11-20_23h51.56.088,Info_measure_main_exp,2022.2.2,Win32,144.1545337,,,,,,,,,,,,,,,,,,masks/mask_005.jpg,,,,,,,,,,,,,,,,,,,,,,,,,,,,,,,,,,,,,,,,,,,0,0,0,4,1,,,,,,,,,,,,,,,,,,,,,,,,,,,,,,,,,,,,,,,,,,,,,,
689121,001,2022-11-20_23h51.56.088,Info_measure_main_exp,2022.2.2,Win32,144.1545337,,,,,,,,,,,,,,,,,,masks/mask_001.jpg,,,,,,,,,,,,,,,,,,,,,,,,,,,,,,,,,,,,,,,,,,,0,1,1,0,1,,,,,,,,,,,,,,,,,,,,,,,,,,,,,,,,,,,,,,,,,,,,,,
689121,001,2022-11-20_23h51.56.088,Info_measure_main_exp,2022.2.2,Win32,144.1545337,,,,,,,,,,,,,,,,,,masks/mask_003.jpg,,,,,,,,,,,,,,,,,,,,,,,,,,,,,,,,,,,,,,,,,,,0,2,2,2,1,,,,,,,,,,,,,,,,,,,,,,,,,,,,,,,,,,,,,,,,,,,,,,
689121,001,2022-11-20_23h51.56.088,Info_measure_main_exp,2022.2.2,Win32,144.1545337,,,,,,,,,,,,,,,,,,masks/mask_004.jpg,,,,,,,,,,,,,,,,,,,,,,,,,,,,,,,,,,,,,,,,,,,0,3,3,3,1,,,,,,,,,,,,,,,,,,,,,,,,,,,,,,,,,,,,,,,,,,,,,,
689121,001,2022-11-20_23h51.56.088,Info_measure_main_exp,2022.2.2,Win32,144.1545337,,,,,,,,,,,,,,,,,,masks/mask_002.jpg,,,,,,,,,,,,,,,,,,,,,,,,,,,,,,,,,,,,,,,,,,,0,4,4,1,1,,,,,,,,,,,,,,,,,,,,,,,,,,,,,,,,,,,,,,,,,,,,,,
689121,001,2022-11-20_23h51.56.088,Info_measure_main_exp,2022.2.2,Win32,144.1545337,,,,,,,,,,,,,,,,,,masks/mask_005.jpg,,,,,,,,,,,,,,,,,,,,,,,,,,,,,,,,,,,,,,,,,,,,,,,,0,0,0,4,1,,,,,,,,,,,,,,,,,,,,,,,,,,,,,,,,,,,,,,,,,
689121,001,2022-11-20_23h51.56.088,Info_measure_main_exp,2022.2.2,Win32,144.1545337,,,,,,,,,,,,,,,,,,masks/mask_002.jpg,,,,,,,,,,,,,,,,,,,,,,,,,,,,,,,,,,,,,,,,,,,,,,,,0,1,1,1,1,,,,,,,,,,,,,,,,,,,,,,,,,,,,,,,,,,,,,,,,,
689121,001,2022-11-20_23h51.56.088,Info_measure_main_exp,2022.2.2,Win32,144.1545337,,,,,,,,,,,,,,,,,,masks/mask_001.jpg,,,,,,,,,,,,,,,,,,,,,,,,,,,,,,,,,,,,,,,,,,,,,,,,0,2,2,0,1,,,,,,,,,,,,,,,,,,,,,,,,,,,,,,,,,,,,,,,,,
689121,001,2022-11-20_23h51.56.088,Info_measure_main_exp,2022.2.2,Win32,144.1545337,,,,,,,,,,,,,,,,,,masks/mask_004.jpg,,,,,,,,,,,,,,,,,,,,,,,,,,,,,,,,,,,,,,,,,,,,,,,,0,3,3,3,1,,,,,,,,,,,,,,,,,,,,,,,,,,,,,,,,,,,,,,,,,
689121,001,2022-11-20_23h51.56.088,Info_measure_main_exp,2022.2.2,Win32,144.1545337,,,,,,,,,,,,,,,,,,masks/mask_003.jpg,,,,,,,,,,,,,,,,,,,,,,,,,,,,,,,,,,,,,,,,,,,,,,,,0,4,4,2,1,,,,,,,,,,,,,,,,,,,,,,,,,,,,,,,,,,,,,,,,,
689121,001,2022-11-20_23h51.56.088,Info_measure_main_exp,2022.2.2,Win32,144.1545337,,,,,,,,,,,,,,,,,,,,,,,,,,,,,,7,0.4236,1,,,,,,,,,,,,0,131,5,5,1950,2166,absent_patch/patch0001950.jpg,absent_patch/patch0002166.jpg,,,,,,,,,,,,,,,,,,,,0.030555556,0.083333333,1,0,0,response1disk,25,-0.000925926,0.003703704,1,0,0,center_square,0,24,24,0,1,,,,,,,,,,,,,,,,,,,,,,,
689121,001,2022-11-20_23h51.56.088,Info_measure_main_exp,2022.2.2,Win32,144.1545337,,,,,,,,,,,,,,,,,,masks/mask_004.jpg,,,,,,,,,,,,,,,,,,,,,,,,,,,,,,,,,,,,,,,,,,,0,0,0,3,1,,,,,,,,,,,,,,,,,,,,,,,,,,,,,,,,,,,,,,,,,,,,,,
689121,001,2022-11-20_23h51.56.088,Info_measure_main_exp,2022.2.2,Win32,144.1545337,,,,,,,,,,,,,,,,,,masks/mask_005.jpg,,,,,,,,,,,,,,,,,,,,,,,,,,,,,,,,,,,,,,,,,,,0,1,1,4,1,,,,,,,,,,,,,,,,,,,,,,,,,,,,,,,,,,,,,,,,,,,,,,
689121,001,2022-11-20_23h51.56.088,Info_measure_main_exp,2022.2.2,Win32,144.1545337,,,,,,,,,,,,,,,,,,masks/mask_002.jpg,,,,,,,,,,,,,,,,,,,,,,,,,,,,,,,,,,,,,,,,,,,0,2,2,1,1,,,,,,,,,,,,,,,,,,,,,,,,,,,,,,,,,,,,,,,,,,,,,,
689121,001,2022-11-20_23h51.56.088,Info_measure_main_exp,2022.2.2,Win32,144.1545337,,,,,,,,,,,,,,,,,,masks/mask_001.jpg,,,,,,,,,,,,,,,,,,,,,,,,,,,,,,,,,,,,,,,,,,,0,3,3,0,1,,,,,,,,,,,,,,,,,,,,,,,,,,,,,,,,,,,,,,,,,,,,,,
689121,001,2022-11-20_23h51.56.088,Info_measure_main_exp,2022.2.2,Win32,144.1545337,,,,,,,,,,,,,,,,,,masks/mask_003.jpg,,,,,,,,,,,,,,,,,,,,,,,,,,,,,,,,,,,,,,,,,,,0,4,4,2,1,,,,,,,,,,,,,,,,,,,,,,,,,,,,,,,,,,,,,,,,,,,,,,
689121,001,2022-11-20_23h51.56.088,Info_measure_main_exp,2022.2.2,Win32,144.1545337,,,,,,,,,,,,,,,,,,masks/mask_001.jpg,,,,,,,,,,,,,,,,,,,,,,,,,,,,,,,,,,,,,,,,,,,,,,,,0,0,0,0,1,,,,,,,,,,,,,,,,,,,,,,,,,,,,,,,,,,,,,,,,,
689121,001,2022-11-20_23h51.56.088,Info_measure_main_exp,2022.2.2,Win32,144.1545337,,,,,,,,,,,,,,,,,,masks/mask_004.jpg,,,,,,,,,,,,,,,,,,,,,,,,,,,,,,,,,,,,,,,,,,,,,,,,0,1,1,3,1,,,,,,,,,,,,,,,,,,,,,,,,,,,,,,,,,,,,,,,,,
689121,001,2022-11-20_23h51.56.088,Info_measure_main_exp,2022.2.2,Win32,144.1545337,,,,,,,,,,,,,,,,,,masks/mask_002.jpg,,,,,,,,,,,,,,,,,,,,,,,,,,,,,,,,,,,,,,,,,,,,,,,,0,2,2,1,1,,,,,,,,,,,,,,,,,,,,,,,,,,,,,,,,,,,,,,,,,
689121,001,2022-11-20_23h51.56.088,Info_measure_main_exp,2022.2.2,Win32,144.1545337,,,,,,,,,,,,,,,,,,masks/mask_003.jpg,,,,,,,,,,,,,,,,,,,,,,,,,,,,,,,,,,,,,,,,,,,,,,,,0,3,3,2,1,,,,,,,,,,,,,,,,,,,,,,,,,,,,,,,,,,,,,,,,,
689121,001,2022-11-20_23h51.56.088,Info_measure_main_exp,2022.2.2,Win32,144.1545337,,,,,,,,,,,,,,,,,,masks/mask_005.jpg,,,,,,,,,,,,,,,,,,,,,,,,,,,,,,,,,,,,,,,,,,,,,,,,0,4,4,4,1,,,,,,,,,,,,,,,,,,,,,,,,,,,,,,,,,,,,,,,,,
689121,001,2022-11-20_23h51.56.088,Info_measure_main_exp,2022.2.2,Win32,144.1545337,,,,,,,,,,,,,,,,,,,,,,,,,,,,,,7,1.118,1,,,,,,,,,,,,0,131,5,5,1986,2274,absent_patch/patch0001986.jpg,absent_patch/patch0002274.jpg,,,,,,,,,,,,,,,,,,,,0.04537037,0.076851852,1,0,0,response1disk,26,-0.000925926,-0.00462963,1,0,0,center_square,0,25,25,7,1,,,,,,,,,,,,,,,,,,,,,,,
689121,001,2022-11-20_23h51.56.088,Info_measure_main_exp,2022.2.2,Win32,144.1545337,,,,,,,,,,,,,,,,,,masks/mask_001.jpg,,,,,,,,,,,,,,,,,,,,,,,,,,,,,,,,,,,,,,,,,,,0,0,0,0,1,,,,,,,,,,,,,,,,,,,,,,,,,,,,,,,,,,,,,,,,,,,,,,
689121,001,2022-11-20_23h51.56.088,Info_measure_main_exp,2022.2.2,Win32,144.1545337,,,,,,,,,,,,,,,,,,masks/mask_003.jpg,,,,,,,,,,,,,,,,,,,,,,,,,,,,,,,,,,,,,,,,,,,0,1,1,2,1,,,,,,,,,,,,,,,,,,,,,,,,,,,,,,,,,,,,,,,,,,,,,,
689121,001,2022-11-20_23h51.56.088,Info_measure_main_exp,2022.2.2,Win32,144.1545337,,,,,,,,,,,,,,,,,,masks/mask_004.jpg,,,,,,,,,,,,,,,,,,,,,,,,,,,,,,,,,,,,,,,,,,,0,2,2,3,1,,,,,,,,,,,,,,,,,,,,,,,,,,,,,,,,,,,,,,,,,,,,,,
689121,001,2022-11-20_23h51.56.088,Info_measure_main_exp,2022.2.2,Win32,144.1545337,,,,,,,,,,,,,,,,,,masks/mask_005.jpg,,,,,,,,,,,,,,,,,,,,,,,,,,,,,,,,,,,,,,,,,,,0,3,3,4,1,,,,,,,,,,,,,,,,,,,,,,,,,,,,,,,,,,,,,,,,,,,,,,
689121,001,2022-11-20_23h51.56.088,Info_measure_main_exp,2022.2.2,Win32,144.1545337,,,,,,,,,,,,,,,,,,masks/mask_002.jpg,,,,,,,,,,,,,,,,,,,,,,,,,,,,,,,,,,,,,,,,,,,0,4,4,1,1,,,,,,,,,,,,,,,,,,,,,,,,,,,,,,,,,,,,,,,,,,,,,,
689121,001,2022-11-20_23h51.56.088,Info_measure_main_exp,2022.2.2,Win32,144.1545337,,,,,,,,,,,,,,,,,,masks/mask_001.jpg,,,,,,,,,,,,,,,,,,,,,,,,,,,,,,,,,,,,,,,,,,,,,,,,0,0,0,0,1,,,,,,,,,,,,,,,,,,,,,,,,,,,,,,,,,,,,,,,,,
689121,001,2022-11-20_23h51.56.088,Info_measure_main_exp,2022.2.2,Win32,144.1545337,,,,,,,,,,,,,,,,,,masks/mask_003.jpg,,,,,,,,,,,,,,,,,,,,,,,,,,,,,,,,,,,,,,,,,,,,,,,,0,1,1,2,1,,,,,,,,,,,,,,,,,,,,,,,,,,,,,,,,,,,,,,,,,
689121,001,2022-11-20_23h51.56.088,Info_measure_main_exp,2022.2.2,Win32,144.1545337,,,,,,,,,,,,,,,,,,masks/mask_004.jpg,,,,,,,,,,,,,,,,,,,,,,,,,,,,,,,,,,,,,,,,,,,,,,,,0,2,2,3,1,,,,,,,,,,,,,,,,,,,,,,,,,,,,,,,,,,,,,,,,,
689121,001,2022-11-20_23h51.56.088,Info_measure_main_exp,2022.2.2,Win32,144.1545337,,,,,,,,,,,,,,,,,,masks/mask_002.jpg,,,,,,,,,,,,,,,,,,,,,,,,,,,,,,,,,,,,,,,,,,,,,,,,0,3,3,1,1,,,,,,,,,,,,,,,,,,,,,,,,,,,,,,,,,,,,,,,,,
689121,001,2022-11-20_23h51.56.088,Info_measure_main_exp,2022.2.2,Win32,144.1545337,,,,,,,,,,,,,,,,,,masks/mask_005.jpg,,,,,,,,,,,,,,,,,,,,,,,,,,,,,,,,,,,,,,,,,,,,,,,,0,4,4,4,1,,,,,,,,,,,,,,,,,,,,,,,,,,,,,,,,,,,,,,,,,
689121,001,2022-11-20_23h51.56.088,Info_measure_main_exp,2022.2.2,Win32,144.1545337,,,,,,,,,,,,,,,,,,,,,,,,,,,,,,7,0.389,1,,,,,,,,,,,,0,131,5,5,2190,1986,absent_patch/patch0002190.jpg,absent_patch/patch0001986.jpg,,,,,,,,,,,,,,,,,,,,0.025,0.067592593,1,0,0,response1disk,27,0.00462963,-0.001851852,1,0,0,center_square,0,26,26,111,1,,,,,,,,,,,,,,,,,,,,,,,
689121,001,2022-11-20_23h51.56.088,Info_measure_main_exp,2022.2.2,Win32,144.1545337,,,,,,,,,,,,,,,,,,masks/mask_001.jpg,,,,,,,,,,,,,,,,,,,,,,,,,,,,,,,,,,,,,,,,,,,0,0,0,0,1,,,,,,,,,,,,,,,,,,,,,,,,,,,,,,,,,,,,,,,,,,,,,,
689121,001,2022-11-20_23h51.56.088,Info_measure_main_exp,2022.2.2,Win32,144.1545337,,,,,,,,,,,,,,,,,,masks/mask_004.jpg,,,,,,,,,,,,,,,,,,,,,,,,,,,,,,,,,,,,,,,,,,,0,1,1,3,1,,,,,,,,,,,,,,,,,,,,,,,,,,,,,,,,,,,,,,,,,,,,,,
689121,001,2022-11-20_23h51.56.088,Info_measure_main_exp,2022.2.2,Win32,144.1545337,,,,,,,,,,,,,,,,,,masks/mask_003.jpg,,,,,,,,,,,,,,,,,,,,,,,,,,,,,,,,,,,,,,,,,,,0,2,2,2,1,,,,,,,,,,,,,,,,,,,,,,,,,,,,,,,,,,,,,,,,,,,,,,
689121,001,2022-11-20_23h51.56.088,Info_measure_main_exp,2022.2.2,Win32,144.1545337,,,,,,,,,,,,,,,,,,masks/mask_002.jpg,,,,,,,,,,,,,,,,,,,,,,,,,,,,,,,,,,,,,,,,,,,0,3,3,1,1,,,,,,,,,,,,,,,,,,,,,,,,,,,,,,,,,,,,,,,,,,,,,,
689121,001,2022-11-20_23h51.56.088,Info_measure_main_exp,2022.2.2,Win32,144.1545337,,,,,,,,,,,,,,,,,,masks/mask_005.jpg,,,,,,,,,,,,,,,,,,,,,,,,,,,,,,,,,,,,,,,,,,,0,4,4,4,1,,,,,,,,,,,,,,,,,,,,,,,,,,,,,,,,,,,,,,,,,,,,,,
689121,001,2022-11-20_23h51.56.088,Info_measure_main_exp,2022.2.2,Win32,144.1545337,,,,,,,,,,,,,,,,,,masks/mask_005.jpg,,,,,,,,,,,,,,,,,,,,,,,,,,,,,,,,,,,,,,,,,,,,,,,,0,0,0,4,1,,,,,,,,,,,,,,,,,,,,,,,,,,,,,,,,,,,,,,,,,
689121,001,2022-11-20_23h51.56.088,Info_measure_main_exp,2022.2.2,Win32,144.1545337,,,,,,,,,,,,,,,,,,masks/mask_001.jpg,,,,,,,,,,,,,,,,,,,,,,,,,,,,,,,,,,,,,,,,,,,,,,,,0,1,1,0,1,,,,,,,,,,,,,,,,,,,,,,,,,,,,,,,,,,,,,,,,,
689121,001,2022-11-20_23h51.56.088,Info_measure_main_exp,2022.2.2,Win32,144.1545337,,,,,,,,,,,,,,,,,,masks/mask_002.jpg,,,,,,,,,,,,,,,,,,,,,,,,,,,,,,,,,,,,,,,,,,,,,,,,0,2,2,1,1,,,,,,,,,,,,,,,,,,,,,,,,,,,,,,,,,,,,,,,,,
689121,001,2022-11-20_23h51.56.088,Info_measure_main_exp,2022.2.2,Win32,144.1545337,,,,,,,,,,,,,,,,,,masks/mask_004.jpg,,,,,,,,,,,,,,,,,,,,,,,,,,,,,,,,,,,,,,,,,,,,,,,,0,3,3,3,1,,,,,,,,,,,,,,,,,,,,,,,,,,,,,,,,,,,,,,,,,
689121,001,2022-11-20_23h51.56.088,Info_measure_main_exp,2022.2.2,Win32,144.1545337,,,,,,,,,,,,,,,,,,masks/mask_003.jpg,,,,,,,,,,,,,,,,,,,,,,,,,,,,,,,,,,,,,,,,,,,,,,,,0,4,4,2,1,,,,,,,,,,,,,,,,,,,,,,,,,,,,,,,,,,,,,,,,,
689121,001,2022-11-20_23h51.56.088,Info_measure_main_exp,2022.2.2,Win32,144.1545337,,,,,,,,,,,,,,,,,,,,,,,,,,,,,,6,0.9028,1,,,,,,,,,,,,0,131,5,5,2250,1950,absent_patch/patch0002250.jpg,absent_patch/patch0001950.jpg,,,,,,,,,,,,,,,,,,,,0.089814815,0.024074074,1,0,0,response1disk,28,0.008333333,-0.007407407,1,0,0,center_square,0,27,27,16,1,,,,,,,,,,,,,,,,,,,,,,,
689121,001,2022-11-20_23h51.56.088,Info_measure_main_exp,2022.2.2,Win32,144.1545337,,,,,,,,,,,,,,,,,,masks/mask_003.jpg,,,,,,,,,,,,,,,,,,,,,,,,,,,,,,,,,,,,,,,,,,,0,0,0,2,1,,,,,,,,,,,,,,,,,,,,,,,,,,,,,,,,,,,,,,,,,,,,,,
689121,001,2022-11-20_23h51.56.088,Info_measure_main_exp,2022.2.2,Win32,144.1545337,,,,,,,,,,,,,,,,,,masks/mask_001.jpg,,,,,,,,,,,,,,,,,,,,,,,,,,,,,,,,,,,,,,,,,,,0,1,1,0,1,,,,,,,,,,,,,,,,,,,,,,,,,,,,,,,,,,,,,,,,,,,,,,
689121,001,2022-11-20_23h51.56.088,Info_measure_main_exp,2022.2.2,Win32,144.1545337,,,,,,,,,,,,,,,,,,masks/mask_005.jpg,,,,,,,,,,,,,,,,,,,,,,,,,,,,,,,,,,,,,,,,,,,0,2,2,4,1,,,,,,,,,,,,,,,,,,,,,,,,,,,,,,,,,,,,,,,,,,,,,,
689121,001,2022-11-20_23h51.56.088,Info_measure_main_exp,2022.2.2,Win32,144.1545337,,,,,,,,,,,,,,,,,,masks/mask_004.jpg,,,,,,,,,,,,,,,,,,,,,,,,,,,,,,,,,,,,,,,,,,,0,3,3,3,1,,,,,,,,,,,,,,,,,,,,,,,,,,,,,,,,,,,,,,,,,,,,,,
689121,001,2022-11-20_23h51.56.088,Info_measure_main_exp,2022.2.2,Win32,144.1545337,,,,,,,,,,,,,,,,,,masks/mask_002.jpg,,,,,,,,,,,,,,,,,,,,,,,,,,,,,,,,,,,,,,,,,,,0,4,4,1,1,,,,,,,,,,,,,,,,,,,,,,,,,,,,,,,,,,,,,,,,,,,,,,
689121,001,2022-11-20_23h51.56.088,Info_measure_main_exp,2022.2.2,Win32,144.1545337,,,,,,,,,,,,,,,,,,masks/mask_002.jpg,,,,,,,,,,,,,,,,,,,,,,,,,,,,,,,,,,,,,,,,,,,,,,,,0,0,0,1,1,,,,,,,,,,,,,,,,,,,,,,,,,,,,,,,,,,,,,,,,,
689121,001,2022-11-20_23h51.56.088,Info_measure_main_exp,2022.2.2,Win32,144.1545337,,,,,,,,,,,,,,,,,,masks/mask_001.jpg,,,,,,,,,,,,,,,,,,,,,,,,,,,,,,,,,,,,,,,,,,,,,,,,0,1,1,0,1,,,,,,,,,,,,,,,,,,,,,,,,,,,,,,,,,,,,,,,,,
689121,001,2022-11-20_23h51.56.088,Info_measure_main_exp,2022.2.2,Win32,144.1545337,,,,,,,,,,,,,,,,,,masks/mask_004.jpg,,,,,,,,,,,,,,,,,,,,,,,,,,,,,,,,,,,,,,,,,,,,,,,,0,2,2,3,1,,,,,,,,,,,,,,,,,,,,,,,,,,,,,,,,,,,,,,,,,
689121,001,2022-11-20_23h51.56.088,Info_measure_main_exp,2022.2.2,Win32,144.1545337,,,,,,,,,,,,,,,,,,masks/mask_005.jpg,,,,,,,,,,,,,,,,,,,,,,,,,,,,,,,,,,,,,,,,,,,,,,,,0,3,3,4,1,,,,,,,,,,,,,,,,,,,,,,,,,,,,,,,,,,,,,,,,,
689121,001,2022-11-20_23h51.56.088,Info_measure_main_exp,2022.2.2,Win32,144.1545337,,,,,,,,,,,,,,,,,,masks/mask_003.jpg,,,,,,,,,,,,,,,,,,,,,,,,,,,,,,,,,,,,,,,,,,,,,,,,0,4,4,2,1,,,,,,,,,,,,,,,,,,,,,,,,,,,,,,,,,,,,,,,,,
689121,001,2022-11-20_23h51.56.088,Info_measure_main_exp,2022.2.2,Win32,144.1545337,,,,,,,,,,,,,,,,,,,,,,,,,,,,,,6,0.3958,1,,,,,,,,,,,,1,131,5,5,2238,1,absent_patch/patch0002238.jpg,present_patch/cong_131_5_a.jpg,,,,,,,,,,,,,,,,,,,,0.04537037,0.032407407,1,0,0,response1disk,29,-0.008333333,0.000925926,1,0,0,center_square,0,28,28,104,1,,,,,,,,,,,,,,,,,,,,,,,
689121,001,2022-11-20_23h51.56.088,Info_measure_main_exp,2022.2.2,Win32,144.1545337,,,,,,,,,,,,,,,,,,masks/mask_004.jpg,,,,,,,,,,,,,,,,,,,,,,,,,,,,,,,,,,,,,,,,,,,0,0,0,3,1,,,,,,,,,,,,,,,,,,,,,,,,,,,,,,,,,,,,,,,,,,,,,,
689121,001,2022-11-20_23h51.56.088,Info_measure_main_exp,2022.2.2,Win32,144.1545337,,,,,,,,,,,,,,,,,,masks/mask_002.jpg,,,,,,,,,,,,,,,,,,,,,,,,,,,,,,,,,,,,,,,,,,,0,1,1,1,1,,,,,,,,,,,,,,,,,,,,,,,,,,,,,,,,,,,,,,,,,,,,,,
689121,001,2022-11-20_23h51.56.088,Info_measure_main_exp,2022.2.2,Win32,144.1545337,,,,,,,,,,,,,,,,,,masks/mask_005.jpg,,,,,,,,,,,,,,,,,,,,,,,,,,,,,,,,,,,,,,,,,,,0,2,2,4,1,,,,,,,,,,,,,,,,,,,,,,,,,,,,,,,,,,,,,,,,,,,,,,
689121,001,2022-11-20_23h51.56.088,Info_measure_main_exp,2022.2.2,Win32,144.1545337,,,,,,,,,,,,,,,,,,masks/mask_001.jpg,,,,,,,,,,,,,,,,,,,,,,,,,,,,,,,,,,,,,,,,,,,0,3,3,0,1,,,,,,,,,,,,,,,,,,,,,,,,,,,,,,,,,,,,,,,,,,,,,,
689121,001,2022-11-20_23h51.56.088,Info_measure_main_exp,2022.2.2,Win32,144.1545337,,,,,,,,,,,,,,,,,,masks/mask_003.jpg,,,,,,,,,,,,,,,,,,,,,,,,,,,,,,,,,,,,,,,,,,,0,4,4,2,1,,,,,,,,,,,,,,,,,,,,,,,,,,,,,,,,,,,,,,,,,,,,,,
689121,001,2022-11-20_23h51.56.088,Info_measure_main_exp,2022.2.2,Win32,144.1545337,,,,,,,,,,,,,,,,,,masks/mask_003.jpg,,,,,,,,,,,,,,,,,,,,,,,,,,,,,,,,,,,,,,,,,,,,,,,,0,0,0,2,1,,,,,,,,,,,,,,,,,,,,,,,,,,,,,,,,,,,,,,,,,
689121,001,2022-11-20_23h51.56.088,Info_measure_main_exp,2022.2.2,Win32,144.1545337,,,,,,,,,,,,,,,,,,masks/mask_005.jpg,,,,,,,,,,,,,,,,,,,,,,,,,,,,,,,,,,,,,,,,,,,,,,,,0,1,1,4,1,,,,,,,,,,,,,,,,,,,,,,,,,,,,,,,,,,,,,,,,,
689121,001,2022-11-20_23h51.56.088,Info_measure_main_exp,2022.2.2,Win32,144.1545337,,,,,,,,,,,,,,,,,,masks/mask_001.jpg,,,,,,,,,,,,,,,,,,,,,,,,,,,,,,,,,,,,,,,,,,,,,,,,0,2,2,0,1,,,,,,,,,,,,,,,,,,,,,,,,,,,,,,,,,,,,,,,,,
689121,001,2022-11-20_23h51.56.088,Info_measure_main_exp,2022.2.2,Win32,144.1545337,,,,,,,,,,,,,,,,,,masks/mask_004.jpg,,,,,,,,,,,,,,,,,,,,,,,,,,,,,,,,,,,,,,,,,,,,,,,,0,3,3,3,1,,,,,,,,,,,,,,,,,,,,,,,,,,,,,,,,,,,,,,,,,
689121,001,2022-11-20_23h51.56.088,Info_measure_main_exp,2022.2.2,Win32,144.1545337,,,,,,,,,,,,,,,,,,masks/mask_002.jpg,,,,,,,,,,,,,,,,,,,,,,,,,,,,,,,,,,,,,,,,,,,,,,,,0,4,4,1,1,,,,,,,,,,,,,,,,,,,,,,,,,,,,,,,,,,,,,,,,,
689121,001,2022-11-20_23h51.56.088,Info_measure_main_exp,2022.2.2,Win32,144.1545337,,,,,,,,,,,,,,,,,,,,,,,,,,,,,,7,0.3055,1,,,,,,,,,,,,1,131,5,5,1950,1,absent_patch/patch0001950.jpg,present_patch/cong_131_5_a.jpg,,,,,,,,,,,,,,,,,,,,0.022222222,0.085185185,1,0,0,response1disk,30,0.001851852,0.012962963,1,0,0,center_square,0,29,29,39,1,,,,,,,,,,,,,,,,,,,,,,,
689121,001,2022-11-20_23h51.56.088,Info_measure_main_exp,2022.2.2,Win32,144.1545337,,,,,,,,,,,,,,,,,,masks/mask_001.jpg,,,,,,,,,,,,,,,,,,,,,,,,,,,,,,,,,,,,,,,,,,,0,0,0,0,1,,,,,,,,,,,,,,,,,,,,,,,,,,,,,,,,,,,,,,,,,,,,,,
689121,001,2022-11-20_23h51.56.088,Info_measure_main_exp,2022.2.2,Win32,144.1545337,,,,,,,,,,,,,,,,,,masks/mask_004.jpg,,,,,,,,,,,,,,,,,,,,,,,,,,,,,,,,,,,,,,,,,,,0,1,1,3,1,,,,,,,,,,,,,,,,,,,,,,,,,,,,,,,,,,,,,,,,,,,,,,
689121,001,2022-11-20_23h51.56.088,Info_measure_main_exp,2022.2.2,Win32,144.1545337,,,,,,,,,,,,,,,,,,masks/mask_003.jpg,,,,,,,,,,,,,,,,,,,,,,,,,,,,,,,,,,,,,,,,,,,0,2,2,2,1,,,,,,,,,,,,,,,,,,,,,,,,,,,,,,,,,,,,,,,,,,,,,,
689121,001,2022-11-20_23h51.56.088,Info_measure_main_exp,2022.2.2,Win32,144.1545337,,,,,,,,,,,,,,,,,,masks/mask_002.jpg,,,,,,,,,,,,,,,,,,,,,,,,,,,,,,,,,,,,,,,,,,,0,3,3,1,1,,,,,,,,,,,,,,,,,,,,,,,,,,,,,,,,,,,,,,,,,,,,,,
689121,001,2022-11-20_23h51.56.088,Info_measure_main_exp,2022.2.2,Win32,144.1545337,,,,,,,,,,,,,,,,,,masks/mask_005.jpg,,,,,,,,,,,,,,,,,,,,,,,,,,,,,,,,,,,,,,,,,,,0,4,4,4,1,,,,,,,,,,,,,,,,,,,,,,,,,,,,,,,,,,,,,,,,,,,,,,
689121,001,2022-11-20_23h51.56.088,Info_measure_main_exp,2022.2.2,Win32,144.1545337,,,,,,,,,,,,,,,,,,masks/mask_001.jpg,,,,,,,,,,,,,,,,,,,,,,,,,,,,,,,,,,,,,,,,,,,,,,,,0,0,0,0,1,,,,,,,,,,,,,,,,,,,,,,,,,,,,,,,,,,,,,,,,,
689121,001,2022-11-20_23h51.56.088,Info_measure_main_exp,2022.2.2,Win32,144.1545337,,,,,,,,,,,,,,,,,,masks/mask_005.jpg,,,,,,,,,,,,,,,,,,,,,,,,,,,,,,,,,,,,,,,,,,,,,,,,0,1,1,4,1,,,,,,,,,,,,,,,,,,,,,,,,,,,,,,,,,,,,,,,,,
689121,001,2022-11-20_23h51.56.088,Info_measure_main_exp,2022.2.2,Win32,144.1545337,,,,,,,,,,,,,,,,,,masks/mask_004.jpg,,,,,,,,,,,,,,,,,,,,,,,,,,,,,,,,,,,,,,,,,,,,,,,,0,2,2,3,1,,,,,,,,,,,,,,,,,,,,,,,,,,,,,,,,,,,,,,,,,
689121,001,2022-11-20_23h51.56.088,Info_measure_main_exp,2022.2.2,Win32,144.1545337,,,,,,,,,,,,,,,,,,masks/mask_003.jpg,,,,,,,,,,,,,,,,,,,,,,,,,,,,,,,,,,,,,,,,,,,,,,,,0,3,3,2,1,,,,,,,,,,,,,,,,,,,,,,,,,,,,,,,,,,,,,,,,,
689121,001,2022-11-20_23h51.56.088,Info_measure_main_exp,2022.2.2,Win32,144.1545337,,,,,,,,,,,,,,,,,,masks/mask_002.jpg,,,,,,,,,,,,,,,,,,,,,,,,,,,,,,,,,,,,,,,,,,,,,,,,0,4,4,1,1,,,,,,,,,,,,,,,,,,,,,,,,,,,,,,,,,,,,,,,,,
689121,001,2022-11-20_23h51.56.088,Info_measure_main_exp,2022.2.2,Win32,144.1545337,,,,,,,,,,,,,,,,,,,,,,,,,,,,,,7,0.4236,1,,,,,,,,,,,,1,131,5,5,1,1974,present_patch/cong_131_5_a.jpg,absent_patch/patch0001974.jpg,,,,,,,,,,,,,,,,,,,,0.026851852,0.087037037,1,0,0,response1disk,31,0.005555556,0.009259259,1,0,0,center_square,0,30,30,69,1,,,,,,,,,,,,,,,,,,,,,,,
689121,001,2022-11-20_23h51.56.088,Info_measure_main_exp,2022.2.2,Win32,144.1545337,,,,,,,,,,,,,,,,,,masks/mask_003.jpg,,,,,,,,,,,,,,,,,,,,,,,,,,,,,,,,,,,,,,,,,,,0,0,0,2,1,,,,,,,,,,,,,,,,,,,,,,,,,,,,,,,,,,,,,,,,,,,,,,
689121,001,2022-11-20_23h51.56.088,Info_measure_main_exp,2022.2.2,Win32,144.1545337,,,,,,,,,,,,,,,,,,masks/mask_002.jpg,,,,,,,,,,,,,,,,,,,,,,,,,,,,,,,,,,,,,,,,,,,0,1,1,1,1,,,,,,,,,,,,,,,,,,,,,,,,,,,,,,,,,,,,,,,,,,,,,,
689121,001,2022-11-20_23h51.56.088,Info_measure_main_exp,2022.2.2,Win32,144.1545337,,,,,,,,,,,,,,,,,,masks/mask_004.jpg,,,,,,,,,,,,,,,,,,,,,,,,,,,,,,,,,,,,,,,,,,,0,2,2,3,1,,,,,,,,,,,,,,,,,,,,,,,,,,,,,,,,,,,,,,,,,,,,,,
689121,001,2022-11-20_23h51.56.088,Info_measure_main_exp,2022.2.2,Win32,144.1545337,,,,,,,,,,,,,,,,,,masks/mask_001.jpg,,,,,,,,,,,,,,,,,,,,,,,,,,,,,,,,,,,,,,,,,,,0,3,3,0,1,,,,,,,,,,,,,,,,,,,,,,,,,,,,,,,,,,,,,,,,,,,,,,
689121,001,2022-11-20_23h51.56.088,Info_measure_main_exp,2022.2.2,Win32,144.1545337,,,,,,,,,,,,,,,,,,masks/mask_005.jpg,,,,,,,,,,,,,,,,,,,,,,,,,,,,,,,,,,,,,,,,,,,0,4,4,4,1,,,,,,,,,,,,,,,,,,,,,,,,,,,,,,,,,,,,,,,,,,,,,,
689121,001,2022-11-20_23h51.56.088,Info_measure_main_exp,2022.2.2,Win32,144.1545337,,,,,,,,,,,,,,,,,,masks/mask_004.jpg,,,,,,,,,,,,,,,,,,,,,,,,,,,,,,,,,,,,,,,,,,,,,,,,0,0,0,3,1,,,,,,,,,,,,,,,,,,,,,,,,,,,,,,,,,,,,,,,,,
689121,001,2022-11-20_23h51.56.088,Info_measure_main_exp,2022.2.2,Win32,144.1545337,,,,,,,,,,,,,,,,,,masks/mask_003.jpg,,,,,,,,,,,,,,,,,,,,,,,,,,,,,,,,,,,,,,,,,,,,,,,,0,1,1,2,1,,,,,,,,,,,,,,,,,,,,,,,,,,,,,,,,,,,,,,,,,
689121,001,2022-11-20_23h51.56.088,Info_measure_main_exp,2022.2.2,Win32,144.1545337,,,,,,,,,,,,,,,,,,masks/mask_005.jpg,,,,,,,,,,,,,,,,,,,,,,,,,,,,,,,,,,,,,,,,,,,,,,,,0,2,2,4,1,,,,,,,,,,,,,,,,,,,,,,,,,,,,,,,,,,,,,,,,,
689121,001,2022-11-20_23h51.56.088,Info_measure_main_exp,2022.2.2,Win32,144.1545337,,,,,,,,,,,,,,,,,,masks/mask_002.jpg,,,,,,,,,,,,,,,,,,,,,,,,,,,,,,,,,,,,,,,,,,,,,,,,0,3,3,1,1,,,,,,,,,,,,,,,,,,,,,,,,,,,,,,,,,,,,,,,,,
689121,001,2022-11-20_23h51.56.088,Info_measure_main_exp,2022.2.2,Win32,144.1545337,,,,,,,,,,,,,,,,,,masks/mask_001.jpg,,,,,,,,,,,,,,,,,,,,,,,,,,,,,,,,,,,,,,,,,,,,,,,,0,4,4,0,1,,,,,,,,,,,,,,,,,,,,,,,,,,,,,,,,,,,,,,,,,
689121,001,2022-11-20_23h51.56.088,Info_measure_main_exp,2022.2.2,Win32,144.1545337,,,,,,,,,,,,,,,,,,,,,,,,,,,,,,7,0.3958,1,,,,,,,,,,,,0,131,5,5,2298,1986,absent_patch/patch0002298.jpg,absent_patch/patch0001986.jpg,,,,,,,,,,,,,,,,,,,,0.027777778,0.065740741,1,0,0,response1disk,32,0,0.006481481,1,0,0,center_square,0,31,31,32,1,,,,,,,,,,,,,,,,,,,,,,,
689121,001,2022-11-20_23h51.56.088,Info_measure_main_exp,2022.2.2,Win32,144.1545337,,,,,,,,,,,,,,,,,,masks/mask_001.jpg,,,,,,,,,,,,,,,,,,,,,,,,,,,,,,,,,,,,,,,,,,,0,0,0,0,1,,,,,,,,,,,,,,,,,,,,,,,,,,,,,,,,,,,,,,,,,,,,,,
689121,001,2022-11-20_23h51.56.088,Info_measure_main_exp,2022.2.2,Win32,144.1545337,,,,,,,,,,,,,,,,,,masks/mask_004.jpg,,,,,,,,,,,,,,,,,,,,,,,,,,,,,,,,,,,,,,,,,,,0,1,1,3,1,,,,,,,,,,,,,,,,,,,,,,,,,,,,,,,,,,,,,,,,,,,,,,
689121,001,2022-11-20_23h51.56.088,Info_measure_main_exp,2022.2.2,Win32,144.1545337,,,,,,,,,,,,,,,,,,masks/mask_005.jpg,,,,,,,,,,,,,,,,,,,,,,,,,,,,,,,,,,,,,,,,,,,0,2,2,4,1,,,,,,,,,,,,,,,,,,,,,,,,,,,,,,,,,,,,,,,,,,,,,,
689121,001,2022-11-20_23h51.56.088,Info_measure_main_exp,2022.2.2,Win32,144.1545337,,,,,,,,,,,,,,,,,,masks/mask_003.jpg,,,,,,,,,,,,,,,,,,,,,,,,,,,,,,,,,,,,,,,,,,,0,3,3,2,1,,,,,,,,,,,,,,,,,,,,,,,,,,,,,,,,,,,,,,,,,,,,,,
689121,001,2022-11-20_23h51.56.088,Info_measure_main_exp,2022.2.2,Win32,144.1545337,,,,,,,,,,,,,,,,,,masks/mask_002.jpg,,,,,,,,,,,,,,,,,,,,,,,,,,,,,,,,,,,,,,,,,,,0,4,4,1,1,,,,,,,,,,,,,,,,,,,,,,,,,,,,,,,,,,,,,,,,,,,,,,
689121,001,2022-11-20_23h51.56.088,Info_measure_main_exp,2022.2.2,Win32,144.1545337,,,,,,,,,,,,,,,,,,masks/mask_002.jpg,,,,,,,,,,,,,,,,,,,,,,,,,,,,,,,,,,,,,,,,,,,,,,,,0,0,0,1,1,,,,,,,,,,,,,,,,,,,,,,,,,,,,,,,,,,,,,,,,,
689121,001,2022-11-20_23h51.56.088,Info_measure_main_exp,2022.2.2,Win32,144.1545337,,,,,,,,,,,,,,,,,,masks/mask_001.jpg,,,,,,,,,,,,,,,,,,,,,,,,,,,,,,,,,,,,,,,,,,,,,,,,0,1,1,0,1,,,,,,,,,,,,,,,,,,,,,,,,,,,,,,,,,,,,,,,,,
689121,001,2022-11-20_23h51.56.088,Info_measure_main_exp,2022.2.2,Win32,144.1545337,,,,,,,,,,,,,,,,,,masks/mask_004.jpg,,,,,,,,,,,,,,,,,,,,,,,,,,,,,,,,,,,,,,,,,,,,,,,,0,2,2,3,1,,,,,,,,,,,,,,,,,,,,,,,,,,,,,,,,,,,,,,,,,
689121,001,2022-11-20_23h51.56.088,Info_measure_main_exp,2022.2.2,Win32,144.1545337,,,,,,,,,,,,,,,,,,masks/mask_005.jpg,,,,,,,,,,,,,,,,,,,,,,,,,,,,,,,,,,,,,,,,,,,,,,,,0,3,3,4,1,,,,,,,,,,,,,,,,,,,,,,,,,,,,,,,,,,,,,,,,,
689121,001,2022-11-20_23h51.56.088,Info_measure_main_exp,2022.2.2,Win32,144.1545337,,,,,,,,,,,,,,,,,,masks/mask_003.jpg,,,,,,,,,,,,,,,,,,,,,,,,,,,,,,,,,,,,,,,,,,,,,,,,0,4,4,2,1,,,,,,,,,,,,,,,,,,,,,,,,,,,,,,,,,,,,,,,,,
689121,001,2022-11-20_23h51.56.088,Info_measure_main_exp,2022.2.2,Win32,144.1545337,,,,,,,,,,,,,,,,,,,,,,,,,,,,,,6,0.7718,1,,,,,,,,,,,,0,131,5,5,2082,2250,absent_patch/patch0002082.jpg,absent_patch/patch0002250.jpg,,,,,,,,,,,,,,,,,,,,0.053703704,0.012037037,1,0,0,response1disk,33,0.007407407,0.000925926,1,0,0,center_square,0,32,32,3,1,,,,,,,,,,,,,,,,,,,,,,,
689121,001,2022-11-20_23h51.56.088,Info_measure_main_exp,2022.2.2,Win32,144.1545337,,,,,,,,,,,,,,,,,,masks/mask_002.jpg,,,,,,,,,,,,,,,,,,,,,,,,,,,,,,,,,,,,,,,,,,,0,0,0,1,1,,,,,,,,,,,,,,,,,,,,,,,,,,,,,,,,,,,,,,,,,,,,,,
689121,001,2022-11-20_23h51.56.088,Info_measure_main_exp,2022.2.2,Win32,144.1545337,,,,,,,,,,,,,,,,,,masks/mask_004.jpg,,,,,,,,,,,,,,,,,,,,,,,,,,,,,,,,,,,,,,,,,,,0,1,1,3,1,,,,,,,,,,,,,,,,,,,,,,,,,,,,,,,,,,,,,,,,,,,,,,
689121,001,2022-11-20_23h51.56.088,Info_measure_main_exp,2022.2.2,Win32,144.1545337,,,,,,,,,,,,,,,,,,masks/mask_005.jpg,,,,,,,,,,,,,,,,,,,,,,,,,,,,,,,,,,,,,,,,,,,0,2,2,4,1,,,,,,,,,,,,,,,,,,,,,,,,,,,,,,,,,,,,,,,,,,,,,,
689121,001,2022-11-20_23h51.56.088,Info_measure_main_exp,2022.2.2,Win32,144.1545337,,,,,,,,,,,,,,,,,,masks/mask_003.jpg,,,,,,,,,,,,,,,,,,,,,,,,,,,,,,,,,,,,,,,,,,,0,3,3,2,1,,,,,,,,,,,,,,,,,,,,,,,,,,,,,,,,,,,,,,,,,,,,,,
689121,001,2022-11-20_23h51.56.088,Info_measure_main_exp,2022.2.2,Win32,144.1545337,,,,,,,,,,,,,,,,,,masks/mask_001.jpg,,,,,,,,,,,,,,,,,,,,,,,,,,,,,,,,,,,,,,,,,,,0,4,4,0,1,,,,,,,,,,,,,,,,,,,,,,,,,,,,,,,,,,,,,,,,,,,,,,
689121,001,2022-11-20_23h51.56.088,Info_measure_main_exp,2022.2.2,Win32,144.1545337,,,,,,,,,,,,,,,,,,masks/mask_004.jpg,,,,,,,,,,,,,,,,,,,,,,,,,,,,,,,,,,,,,,,,,,,,,,,,0,0,0,3,1,,,,,,,,,,,,,,,,,,,,,,,,,,,,,,,,,,,,,,,,,
689121,001,2022-11-20_23h51.56.088,Info_measure_main_exp,2022.2.2,Win32,144.1545337,,,,,,,,,,,,,,,,,,masks/mask_001.jpg,,,,,,,,,,,,,,,,,,,,,,,,,,,,,,,,,,,,,,,,,,,,,,,,0,1,1,0,1,,,,,,,,,,,,,,,,,,,,,,,,,,,,,,,,,,,,,,,,,
689121,001,2022-11-20_23h51.56.088,Info_measure_main_exp,2022.2.2,Win32,144.1545337,,,,,,,,,,,,,,,,,,masks/mask_005.jpg,,,,,,,,,,,,,,,,,,,,,,,,,,,,,,,,,,,,,,,,,,,,,,,,0,2,2,4,1,,,,,,,,,,,,,,,,,,,,,,,,,,,,,,,,,,,,,,,,,
689121,001,2022-11-20_23h51.56.088,Info_measure_main_exp,2022.2.2,Win32,144.1545337,,,,,,,,,,,,,,,,,,masks/mask_003.jpg,,,,,,,,,,,,,,,,,,,,,,,,,,,,,,,,,,,,,,,,,,,,,,,,0,3,3,2,1,,,,,,,,,,,,,,,,,,,,,,,,,,,,,,,,,,,,,,,,,
689121,001,2022-11-20_23h51.56.088,Info_measure_main_exp,2022.2.2,Win32,144.1545337,,,,,,,,,,,,,,,,,,masks/mask_002.jpg,,,,,,,,,,,,,,,,,,,,,,,,,,,,,,,,,,,,,,,,,,,,,,,,0,4,4,1,1,,,,,,,,,,,,,,,,,,,,,,,,,,,,,,,,,,,,,,,,,
689121,001,2022-11-20_23h51.56.088,Info_measure_main_exp,2022.2.2,Win32,144.1545337,,,,,,,,,,,,,,,,,,,,,,,,,,,,,,7,0.5842,1,,,,,,,,,,,,0,131,5,5,2274,1974,absent_patch/patch0002274.jpg,absent_patch/patch0001974.jpg,,,,,,,,,,,,,,,,,,,,0.040740741,0.07962963,1,0,0,response1disk,34,0.009259259,0.00462963,1,0,0,center_square,0,33,33,90,1,,,,,,,,,,,,,,,,,,,,,,,
689121,001,2022-11-20_23h51.56.088,Info_measure_main_exp,2022.2.2,Win32,144.1545337,,,,,,,,,,,,,,,,,,masks/mask_002.jpg,,,,,,,,,,,,,,,,,,,,,,,,,,,,,,,,,,,,,,,,,,,0,0,0,1,1,,,,,,,,,,,,,,,,,,,,,,,,,,,,,,,,,,,,,,,,,,,,,,
689121,001,2022-11-20_23h51.56.088,Info_measure_main_exp,2022.2.2,Win32,144.1545337,,,,,,,,,,,,,,,,,,masks/mask_005.jpg,,,,,,,,,,,,,,,,,,,,,,,,,,,,,,,,,,,,,,,,,,,0,1,1,4,1,,,,,,,,,,,,,,,,,,,,,,,,,,,,,,,,,,,,,,,,,,,,,,
689121,001,2022-11-20_23h51.56.088,Info_measure_main_exp,2022.2.2,Win32,144.1545337,,,,,,,,,,,,,,,,,,masks/mask_003.jpg,,,,,,,,,,,,,,,,,,,,,,,,,,,,,,,,,,,,,,,,,,,0,2,2,2,1,,,,,,,,,,,,,,,,,,,,,,,,,,,,,,,,,,,,,,,,,,,,,,
689121,001,2022-11-20_23h51.56.088,Info_measure_main_exp,2022.2.2,Win32,144.1545337,,,,,,,,,,,,,,,,,,masks/mask_004.jpg,,,,,,,,,,,,,,,,,,,,,,,,,,,,,,,,,,,,,,,,,,,0,3,3,3,1,,,,,,,,,,,,,,,,,,,,,,,,,,,,,,,,,,,,,,,,,,,,,,
689121,001,2022-11-20_23h51.56.088,Info_measure_main_exp,2022.2.2,Win32,144.1545337,,,,,,,,,,,,,,,,,,masks/mask_001.jpg,,,,,,,,,,,,,,,,,,,,,,,,,,,,,,,,,,,,,,,,,,,0,4,4,0,1,,,,,,,,,,,,,,,,,,,,,,,,,,,,,,,,,,,,,,,,,,,,,,
689121,001,2022-11-20_23h51.56.088,Info_measure_main_exp,2022.2.2,Win32,144.1545337,,,,,,,,,,,,,,,,,,masks/mask_001.jpg,,,,,,,,,,,,,,,,,,,,,,,,,,,,,,,,,,,,,,,,,,,,,,,,0,0,0,0,1,,,,,,,,,,,,,,,,,,,,,,,,,,,,,,,,,,,,,,,,,
689121,001,2022-11-20_23h51.56.088,Info_measure_main_exp,2022.2.2,Win32,144.1545337,,,,,,,,,,,,,,,,,,masks/mask_002.jpg,,,,,,,,,,,,,,,,,,,,,,,,,,,,,,,,,,,,,,,,,,,,,,,,0,1,1,1,1,,,,,,,,,,,,,,,,,,,,,,,,,,,,,,,,,,,,,,,,,
689121,001,2022-11-20_23h51.56.088,Info_measure_main_exp,2022.2.2,Win32,144.1545337,,,,,,,,,,,,,,,,,,masks/mask_004.jpg,,,,,,,,,,,,,,,,,,,,,,,,,,,,,,,,,,,,,,,,,,,,,,,,0,2,2,3,1,,,,,,,,,,,,,,,,,,,,,,,,,,,,,,,,,,,,,,,,,
689121,001,2022-11-20_23h51.56.088,Info_measure_main_exp,2022.2.2,Win32,144.1545337,,,,,,,,,,,,,,,,,,masks/mask_005.jpg,,,,,,,,,,,,,,,,,,,,,,,,,,,,,,,,,,,,,,,,,,,,,,,,0,3,3,4,1,,,,,,,,,,,,,,,,,,,,,,,,,,,,,,,,,,,,,,,,,
