participant,session,date,expName,psychopyVersion,OS,frameRate,space_press_continue.keys,space_press_continue.rt,space_press_continue_2.keys,space_press_continue_2.rt,space_press_continue_3.keys,space_press_continue_3.rt,space_press_continue_4.keys,space_press_continue_4.rt,space_press_continue_5.keys,space_press_continue_5.rt,space_press_continue_6.keys,space_press_continue_6.rt,prac_mask_loop_1.thisRepN,prac_mask_loop_1.thisTrialN,prac_mask_loop_1.thisN,prac_mask_loop_1.thisIndex,prac_mask_loop_1.ran,mask_name,prac_mask_loop_2.thisRepN,prac_mask_loop_2.thisTrialN,prac_mask_loop_2.thisN,prac_mask_loop_2.thisIndex,prac_mask_loop_2.ran,mouse_2.x,mouse_2.y,mouse_2.leftButton,mouse_2.midButton,mouse_2.rightButton,mouse_2.clicked_name,similarity,response_time,Pass,mouse_12.x,mouse_12.y,mouse_12.leftButton,mouse_12.midButton,mouse_12.rightButton,mouse_12.clicked_name,prac_loop.thisRepN,prac_loop.thisTrialN,prac_loop.thisN,prac_loop.thisIndex,prac_loop.ran,Pair_type,Image_num,Patch_1_loc,Patch_2_loc,Patch_1_info,Patch_2_info,Patch_1_name,Patch_2_name,mouse_1.x,mouse_1.y,mouse_1.leftButton,mouse_1.midButton,mouse_1.rightButton,mouse_1.time,mouse_1.clicked_name,space_press_continue_7.keys,space_press_continue_7.rt,mask_loop.thisRepN,mask_loop.thisTrialN,mask_loop.thisN,mask_loop.thisIndex,mask_loop.ran,mask_loop_2.thisRepN,mask_loop_2.thisTrialN,mask_loop_2.thisN,mask_loop_2.thisIndex,mask_loop_2.ran,mouse.x,mouse.y,mouse.leftButton,mouse.midButton,mouse.rightButton,mouse.clicked_name,trialNumber,mouse_11.x,mouse_11.y,mouse_11.leftButton,mouse_11.midButton,mouse_11.rightButton,mouse_11.clicked_name,first_pass_loop.thisRepN,first_pass_loop.thisTrialN,first_pass_loop.thisN,first_pass_loop.thisIndex,first_pass_loop.ran,mask_loop_3.thisRepN,mask_loop_3.thisTrialN,mask_loop_3.thisN,mask_loop_3.thisIndex,mask_loop_3.ran,mask_loop_4.thisRepN,mask_loop_4.thisTrialN,mask_loop_4.thisN,mask_loop_4.thisIndex,mask_loop_4.ran,mouse_3.x,mouse_3.y,mouse_3.leftButton,mouse_3.midButton,mouse_3.rightButton,mouse_3.clicked_name,double_pass_loop.thisRepN,double_pass_loop.thisTrialN,double_pass_loop.thisN,double_pass_loop.thisIndex,double_pass_loop.ran,space_exit.keys,space_exit.rt
706639,001,2022-11-13_23h27.39.771,Info_measure_main_exp,2022.2.2,Win32,144.3626389,,,,,,,,,,,,,,,,,,,,,,,,,,,,,,,,,,,,,,,,,,,,,,,,,,,,,,,,,,,,,,,,,,,,,,,,,,,,,,,,,,,,,,,,,,,,,,,,,,,,,,,,,,,,,,,
706639,001,2022-11-13_23h27.39.771,Info_measure_main_exp,2022.2.2,Win32,144.3626389,,,,,,,,,,,,,,,,,,,,,,,,,,,,,,,,,,,,,,,,,,,,,,,,,,,,,,,,,,,,,,,,,,,,,,,,,,,,,,,,,,,,,,,,,,,,,,,,,,,,,,,,,,,,,,,
706639,001,2022-11-13_23h27.39.771,Info_measure_main_exp,2022.2.2,Win32,144.3626389,space,10.2567,,,,,,,,,,,,,,,,,,,,,,,,,,,,,,,,,,,,,,,,,,,,,,,,,,,,,,,,,,,,,,,,,,,,,,,,,,,,,,,,,,,,,,,,,,,,,,,,,,,,,,,,,,,,,
706639,001,2022-11-13_23h27.39.771,Info_measure_main_exp,2022.2.2,Win32,144.3626389,,,space,6.8298,,,,,,,,,,,,,,,,,,,,,,,,,,,,,,,,,,,,,,,,,,,,,,,,,,,,,,,,,,,,,,,,,,,,,,,,,,,,,,,,,,,,,,,,,,,,,,,,,,,,,,,,,,,
706639,001,2022-11-13_23h27.39.771,Info_measure_main_exp,2022.2.2,Win32,144.3626389,,,,,space,4.6783,,,,,,,,,,,,,,,,,,,,,,,,,,,,,,,,,,,,,,,,,,,,,,,,,,,,,,,,,,,,,,,,,,,,,,,,,,,,,,,,,,,,,,,,,,,,,,,,,,,,,,,,,
706639,001,2022-11-13_23h27.39.771,Info_measure_main_exp,2022.2.2,Win32,144.3626389,,,,,,,space,4.6736,,,,,,,,,,,,,,,,,,,,,,,,,,,,,,,,,,,,,,,,,,,,,,,,,,,,,,,,,,,,,,,,,,,,,,,,,,,,,,,,,,,,,,,,,,,,,,,,,,,,,,,
706639,001,2022-11-13_23h27.39.771,Info_measure_main_exp,2022.2.2,Win32,144.3626389,,,,,,,,,space,5.0453,,,,,,,,,,,,,,,,,,,,,,,,,,,,,,,,,,,,,,,,,,,,,,,,,,,,,,,,,,,,,,,,,,,,,,,,,,,,,,,,,,,,,,,,,,,,,,,,,,,,,
706639,001,2022-11-13_23h27.39.771,Info_measure_main_exp,2022.2.2,Win32,144.3626389,,,,,,,,,,,space,1.797,,,,,,,,,,,,,,,,,,,,,,,,,,,,,,,,,,,,,,,,,,,,,,,,,,,,,,,,,,,,,,,,,,,,,,,,,,,,,,,,,,,,,,,,,,,,,,,,,,,
706639,001,2022-11-13_23h27.39.771,Info_measure_main_exp,2022.2.2,Win32,144.3626389,,,,,,,,,,,,,0,0,0,4,1,masks/mask_005.jpg,,,,,,,,,,,,,,,,,,,,,,,,,,,,,,,,,,,,,,,,,,,,,,,,,,,,,,,,,,,,,,,,,,,,,,,,,,,,,,,,,,,,,,,,,,,,,
706639,001,2022-11-13_23h27.39.771,Info_measure_main_exp,2022.2.2,Win32,144.3626389,,,,,,,,,,,,,0,1,1,1,1,masks/mask_002.jpg,,,,,,,,,,,,,,,,,,,,,,,,,,,,,,,,,,,,,,,,,,,,,,,,,,,,,,,,,,,,,,,,,,,,,,,,,,,,,,,,,,,,,,,,,,,,,
706639,001,2022-11-13_23h27.39.771,Info_measure_main_exp,2022.2.2,Win32,144.3626389,,,,,,,,,,,,,0,2,2,0,1,masks/mask_001.jpg,,,,,,,,,,,,,,,,,,,,,,,,,,,,,,,,,,,,,,,,,,,,,,,,,,,,,,,,,,,,,,,,,,,,,,,,,,,,,,,,,,,,,,,,,,,,,
706639,001,2022-11-13_23h27.39.771,Info_measure_main_exp,2022.2.2,Win32,144.3626389,,,,,,,,,,,,,0,3,3,2,1,masks/mask_003.jpg,,,,,,,,,,,,,,,,,,,,,,,,,,,,,,,,,,,,,,,,,,,,,,,,,,,,,,,,,,,,,,,,,,,,,,,,,,,,,,,,,,,,,,,,,,,,,
706639,001,2022-11-13_23h27.39.771,Info_measure_main_exp,2022.2.2,Win32,144.3626389,,,,,,,,,,,,,0,4,4,3,1,masks/mask_004.jpg,,,,,,,,,,,,,,,,,,,,,,,,,,,,,,,,,,,,,,,,,,,,,,,,,,,,,,,,,,,,,,,,,,,,,,,,,,,,,,,,,,,,,,,,,,,,,
706639,001,2022-11-13_23h27.39.771,Info_measure_main_exp,2022.2.2,Win32,144.3626389,,,,,,,,,,,,,,,,,,masks/mask_004.jpg,0,0,0,3,1,,,,,,,,,,,,,,,,,,,,,,,,,,,,,,,,,,,,,,,,,,,,,,,,,,,,,,,,,,,,,,,,,,,,,,,,,,,,,,,,,,,,,,,,
706639,001,2022-11-13_23h27.39.771,Info_measure_main_exp,2022.2.2,Win32,144.3626389,,,,,,,,,,,,,,,,,,masks/mask_003.jpg,0,1,1,2,1,,,,,,,,,,,,,,,,,,,,,,,,,,,,,,,,,,,,,,,,,,,,,,,,,,,,,,,,,,,,,,,,,,,,,,,,,,,,,,,,,,,,,,,,
706639,001,2022-11-13_23h27.39.771,Info_measure_main_exp,2022.2.2,Win32,144.3626389,,,,,,,,,,,,,,,,,,masks/mask_002.jpg,0,2,2,1,1,,,,,,,,,,,,,,,,,,,,,,,,,,,,,,,,,,,,,,,,,,,,,,,,,,,,,,,,,,,,,,,,,,,,,,,,,,,,,,,,,,,,,,,,
706639,001,2022-11-13_23h27.39.771,Info_measure_main_exp,2022.2.2,Win32,144.3626389,,,,,,,,,,,,,,,,,,masks/mask_001.jpg,0,3,3,0,1,,,,,,,,,,,,,,,,,,,,,,,,,,,,,,,,,,,,,,,,,,,,,,,,,,,,,,,,,,,,,,,,,,,,,,,,,,,,,,,,,,,,,,,,
706639,001,2022-11-13_23h27.39.771,Info_measure_main_exp,2022.2.2,Win32,144.3626389,,,,,,,,,,,,,,,,,,masks/mask_005.jpg,0,4,4,4,1,,,,,,,,,,,,,,,,,,,,,,,,,,,,,,,,,,,,,,,,,,,,,,,,,,,,,,,,,,,,,,,,,,,,,,,,,,,,,,,,,,,,,,,,
706639,001,2022-11-13_23h27.39.771,Info_measure_main_exp,2022.2.2,Win32,144.3626389,,,,,,,,,,,,,,,,,,,,,,,,0.049074074,0.138888889,1,0,0,response1disk,7,41.8731,1,-0.000925926,0,1,0,0,center_square,0,0,0,2,1,0,131,5,5,2526,2526,prac_patch/patch0002526.jpg,prac_patch/patch0002526.jpg,,,,,,,,,,,,,,,,,,,,,,,,,,,,,,,,,,,,,,,,,,,,,,,,,,,,,,,,,,,,
706639,001,2022-11-13_23h27.39.771,Info_measure_main_exp,2022.2.2,Win32,144.3626389,,,,,,,,,,,,,0,0,0,0,1,masks/mask_001.jpg,,,,,,,,,,,,,,,,,,,,,,,,,,,,,,,,,,,,,,,,,,,,,,,,,,,,,,,,,,,,,,,,,,,,,,,,,,,,,,,,,,,,,,,,,,,,,
706639,001,2022-11-13_23h27.39.771,Info_measure_main_exp,2022.2.2,Win32,144.3626389,,,,,,,,,,,,,0,1,1,4,1,masks/mask_005.jpg,,,,,,,,,,,,,,,,,,,,,,,,,,,,,,,,,,,,,,,,,,,,,,,,,,,,,,,,,,,,,,,,,,,,,,,,,,,,,,,,,,,,,,,,,,,,,
706639,001,2022-11-13_23h27.39.771,Info_measure_main_exp,2022.2.2,Win32,144.3626389,,,,,,,,,,,,,0,2,2,1,1,masks/mask_002.jpg,,,,,,,,,,,,,,,,,,,,,,,,,,,,,,,,,,,,,,,,,,,,,,,,,,,,,,,,,,,,,,,,,,,,,,,,,,,,,,,,,,,,,,,,,,,,,
706639,001,2022-11-13_23h27.39.771,Info_measure_main_exp,2022.2.2,Win32,144.3626389,,,,,,,,,,,,,0,3,3,2,1,masks/mask_003.jpg,,,,,,,,,,,,,,,,,,,,,,,,,,,,,,,,,,,,,,,,,,,,,,,,,,,,,,,,,,,,,,,,,,,,,,,,,,,,,,,,,,,,,,,,,,,,,
706639,001,2022-11-13_23h27.39.771,Info_measure_main_exp,2022.2.2,Win32,144.3626389,,,,,,,,,,,,,0,4,4,3,1,masks/mask_004.jpg,,,,,,,,,,,,,,,,,,,,,,,,,,,,,,,,,,,,,,,,,,,,,,,,,,,,,,,,,,,,,,,,,,,,,,,,,,,,,,,,,,,,,,,,,,,,,
706639,001,2022-11-13_23h27.39.771,Info_measure_main_exp,2022.2.2,Win32,144.3626389,,,,,,,,,,,,,,,,,,masks/mask_001.jpg,0,0,0,0,1,,,,,,,,,,,,,,,,,,,,,,,,,,,,,,,,,,,,,,,,,,,,,,,,,,,,,,,,,,,,,,,,,,,,,,,,,,,,,,,,,,,,,,,,
706639,001,2022-11-13_23h27.39.771,Info_measure_main_exp,2022.2.2,Win32,144.3626389,,,,,,,,,,,,,,,,,,masks/mask_004.jpg,0,1,1,3,1,,,,,,,,,,,,,,,,,,,,,,,,,,,,,,,,,,,,,,,,,,,,,,,,,,,,,,,,,,,,,,,,,,,,,,,,,,,,,,,,,,,,,,,,
706639,001,2022-11-13_23h27.39.771,Info_measure_main_exp,2022.2.2,Win32,144.3626389,,,,,,,,,,,,,,,,,,masks/mask_002.jpg,0,2,2,1,1,,,,,,,,,,,,,,,,,,,,,,,,,,,,,,,,,,,,,,,,,,,,,,,,,,,,,,,,,,,,,,,,,,,,,,,,,,,,,,,,,,,,,,,,
706639,001,2022-11-13_23h27.39.771,Info_measure_main_exp,2022.2.2,Win32,144.3626389,,,,,,,,,,,,,,,,,,masks/mask_005.jpg,0,3,3,4,1,,,,,,,,,,,,,,,,,,,,,,,,,,,,,,,,,,,,,,,,,,,,,,,,,,,,,,,,,,,,,,,,,,,,,,,,,,,,,,,,,,,,,,,,
706639,001,2022-11-13_23h27.39.771,Info_measure_main_exp,2022.2.2,Win32,144.3626389,,,,,,,,,,,,,,,,,,masks/mask_003.jpg,0,4,4,2,1,,,,,,,,,,,,,,,,,,,,,,,,,,,,,,,,,,,,,,,,,,,,,,,,,,,,,,,,,,,,,,,,,,,,,,,,,,,,,,,,,,,,,,,,
706639,001,2022-11-13_23h27.39.771,Info_measure_main_exp,2022.2.2,Win32,144.3626389,,,,,,,,,,,,,,,,,,,,,,,,0.062037037,0.1,1,0,0,response1disk,7,54.5405,1,-0.001851852,-0.000925926,1,0,0,center_square,0,1,1,1,1,0,131,5,5,2514,2490,prac_patch/patch0002514.jpg,prac_patch/patch0002490.jpg,,,,,,,,,,,,,,,,,,,,,,,,,,,,,,,,,,,,,,,,,,,,,,,,,,,,,,,,,,,,
706639,001,2022-11-13_23h27.39.771,Info_measure_main_exp,2022.2.2,Win32,144.3626389,,,,,,,,,,,,,0,0,0,4,1,masks/mask_005.jpg,,,,,,,,,,,,,,,,,,,,,,,,,,,,,,,,,,,,,,,,,,,,,,,,,,,,,,,,,,,,,,,,,,,,,,,,,,,,,,,,,,,,,,,,,,,,,
706639,001,2022-11-13_23h27.39.771,Info_measure_main_exp,2022.2.2,Win32,144.3626389,,,,,,,,,,,,,0,1,1,0,1,masks/mask_001.jpg,,,,,,,,,,,,,,,,,,,,,,,,,,,,,,,,,,,,,,,,,,,,,,,,,,,,,,,,,,,,,,,,,,,,,,,,,,,,,,,,,,,,,,,,,,,,,
706639,001,2022-11-13_23h27.39.771,Info_measure_main_exp,2022.2.2,Win32,144.3626389,,,,,,,,,,,,,0,2,2,1,1,masks/mask_002.jpg,,,,,,,,,,,,,,,,,,,,,,,,,,,,,,,,,,,,,,,,,,,,,,,,,,,,,,,,,,,,,,,,,,,,,,,,,,,,,,,,,,,,,,,,,,,,,
706639,001,2022-11-13_23h27.39.771,Info_measure_main_exp,2022.2.2,Win32,144.3626389,,,,,,,,,,,,,0,3,3,2,1,masks/mask_003.jpg,,,,,,,,,,,,,,,,,,,,,,,,,,,,,,,,,,,,,,,,,,,,,,,,,,,,,,,,,,,,,,,,,,,,,,,,,,,,,,,,,,,,,,,,,,,,,
706639,001,2022-11-13_23h27.39.771,Info_measure_main_exp,2022.2.2,Win32,144.3626389,,,,,,,,,,,,,0,4,4,3,1,masks/mask_004.jpg,,,,,,,,,,,,,,,,,,,,,,,,,,,,,,,,,,,,,,,,,,,,,,,,,,,,,,,,,,,,,,,,,,,,,,,,,,,,,,,,,,,,,,,,,,,,,
706639,001,2022-11-13_23h27.39.771,Info_measure_main_exp,2022.2.2,Win32,144.3626389,,,,,,,,,,,,,,,,,,masks/mask_005.jpg,0,0,0,4,1,,,,,,,,,,,,,,,,,,,,,,,,,,,,,,,,,,,,,,,,,,,,,,,,,,,,,,,,,,,,,,,,,,,,,,,,,,,,,,,,,,,,,,,,
706639,001,2022-11-13_23h27.39.771,Info_measure_main_exp,2022.2.2,Win32,144.3626389,,,,,,,,,,,,,,,,,,masks/mask_001.jpg,0,1,1,0,1,,,,,,,,,,,,,,,,,,,,,,,,,,,,,,,,,,,,,,,,,,,,,,,,,,,,,,,,,,,,,,,,,,,,,,,,,,,,,,,,,,,,,,,,
706639,001,2022-11-13_23h27.39.771,Info_measure_main_exp,2022.2.2,Win32,144.3626389,,,,,,,,,,,,,,,,,,masks/mask_002.jpg,0,2,2,1,1,,,,,,,,,,,,,,,,,,,,,,,,,,,,,,,,,,,,,,,,,,,,,,,,,,,,,,,,,,,,,,,,,,,,,,,,,,,,,,,,,,,,,,,,
706639,001,2022-11-13_23h27.39.771,Info_measure_main_exp,2022.2.2,Win32,144.3626389,,,,,,,,,,,,,,,,,,masks/mask_003.jpg,0,3,3,2,1,,,,,,,,,,,,,,,,,,,,,,,,,,,,,,,,,,,,,,,,,,,,,,,,,,,,,,,,,,,,,,,,,,,,,,,,,,,,,,,,,,,,,,,,
706639,001,2022-11-13_23h27.39.771,Info_measure_main_exp,2022.2.2,Win32,144.3626389,,,,,,,,,,,,,,,,,,masks/mask_004.jpg,0,4,4,3,1,,,,,,,,,,,,,,,,,,,,,,,,,,,,,,,,,,,,,,,,,,,,,,,,,,,,,,,,,,,,,,,,,,,,,,,,,,,,,,,,,,,,,,,,
706639,001,2022-11-13_23h27.39.771,Info_measure_main_exp,2022.2.2,Win32,144.3626389,,,,,,,,,,,,,,,,,,,,,,,,0.042592593,0.089814815,1,0,0,response1disk,7,67.2089,1,-0.005555556,0.011111111,1,0,0,center_square,0,2,2,0,1,0,131,5,5,2370,2406,prac_patch/patch0002370.jpg,prac_patch/patch0002406.jpg,,,,,,,,,,,,,,,,,,,,,,,,,,,,,,,,,,,,,,,,,,,,,,,,,,,,,,,,,,,,
706639,001,2022-11-13_23h27.39.771,Info_measure_main_exp,2022.2.2,Win32,144.3626389,,,,,,,,,,,,,,,,,,,,,,,,,,,,,,,,,,,,,,,,,,,,,,,,,,,,0.001851852,-0.028703704,1,0,0,8.4508,,space,9.4899,,,,,,,,,,,,,,,,,,,,,,,,,,,,,,,,,,,,,,,,,,,,,,,,,,,
706639,001,2022-11-13_23h27.39.771,Info_measure_main_exp,2022.2.2,Win32,144.3626389,,,,,,,,,,,,,,,,,,masks/mask_005.jpg,,,,,,,,,,,,,,,,,,,,,,,,,,,,,,,,,,,,,,,,,,,0,0,0,4,1,,,,,,,,,,,,,,,,,,,,,,,,,,,,,,,,,,,,,,,,,,,,,,
706639,001,2022-11-13_23h27.39.771,Info_measure_main_exp,2022.2.2,Win32,144.3626389,,,,,,,,,,,,,,,,,,masks/mask_002.jpg,,,,,,,,,,,,,,,,,,,,,,,,,,,,,,,,,,,,,,,,,,,0,1,1,1,1,,,,,,,,,,,,,,,,,,,,,,,,,,,,,,,,,,,,,,,,,,,,,,
706639,001,2022-11-13_23h27.39.771,Info_measure_main_exp,2022.2.2,Win32,144.3626389,,,,,,,,,,,,,,,,,,masks/mask_003.jpg,,,,,,,,,,,,,,,,,,,,,,,,,,,,,,,,,,,,,,,,,,,0,2,2,2,1,,,,,,,,,,,,,,,,,,,,,,,,,,,,,,,,,,,,,,,,,,,,,,
706639,001,2022-11-13_23h27.39.771,Info_measure_main_exp,2022.2.2,Win32,144.3626389,,,,,,,,,,,,,,,,,,masks/mask_004.jpg,,,,,,,,,,,,,,,,,,,,,,,,,,,,,,,,,,,,,,,,,,,0,3,3,3,1,,,,,,,,,,,,,,,,,,,,,,,,,,,,,,,,,,,,,,,,,,,,,,
706639,001,2022-11-13_23h27.39.771,Info_measure_main_exp,2022.2.2,Win32,144.3626389,,,,,,,,,,,,,,,,,,masks/mask_001.jpg,,,,,,,,,,,,,,,,,,,,,,,,,,,,,,,,,,,,,,,,,,,0,4,4,0,1,,,,,,,,,,,,,,,,,,,,,,,,,,,,,,,,,,,,,,,,,,,,,,
706639,001,2022-11-13_23h27.39.771,Info_measure_main_exp,2022.2.2,Win32,144.3626389,,,,,,,,,,,,,,,,,,masks/mask_005.jpg,,,,,,,,,,,,,,,,,,,,,,,,,,,,,,,,,,,,,,,,,,,,,,,,0,0,0,4,1,,,,,,,,,,,,,,,,,,,,,,,,,,,,,,,,,,,,,,,,,
706639,001,2022-11-13_23h27.39.771,Info_measure_main_exp,2022.2.2,Win32,144.3626389,,,,,,,,,,,,,,,,,,masks/mask_003.jpg,,,,,,,,,,,,,,,,,,,,,,,,,,,,,,,,,,,,,,,,,,,,,,,,0,1,1,2,1,,,,,,,,,,,,,,,,,,,,,,,,,,,,,,,,,,,,,,,,,
706639,001,2022-11-13_23h27.39.771,Info_measure_main_exp,2022.2.2,Win32,144.3626389,,,,,,,,,,,,,,,,,,masks/mask_002.jpg,,,,,,,,,,,,,,,,,,,,,,,,,,,,,,,,,,,,,,,,,,,,,,,,0,2,2,1,1,,,,,,,,,,,,,,,,,,,,,,,,,,,,,,,,,,,,,,,,,
706639,001,2022-11-13_23h27.39.771,Info_measure_main_exp,2022.2.2,Win32,144.3626389,,,,,,,,,,,,,,,,,,masks/mask_001.jpg,,,,,,,,,,,,,,,,,,,,,,,,,,,,,,,,,,,,,,,,,,,,,,,,0,3,3,0,1,,,,,,,,,,,,,,,,,,,,,,,,,,,,,,,,,,,,,,,,,
706639,001,2022-11-13_23h27.39.771,Info_measure_main_exp,2022.2.2,Win32,144.3626389,,,,,,,,,,,,,,,,,,masks/mask_004.jpg,,,,,,,,,,,,,,,,,,,,,,,,,,,,,,,,,,,,,,,,,,,,,,,,0,4,4,3,1,,,,,,,,,,,,,,,,,,,,,,,,,,,,,,,,,,,,,,,,,
706639,001,2022-11-13_23h27.39.771,Info_measure_main_exp,2022.2.2,Win32,144.3626389,,,,,,,,,,,,,,,,,,,,,,,,,,,,,,0,1.2015,1,,,,,,,,,,,,0,131,5,5,2082,2082,absent_patch/patch0002082.jpg,absent_patch/patch0002082.jpg,,,,,,,,,,,,,,,,,,,,-0.041666667,0.099074074,1,0,0,response7disk,1,0.001851852,-0.001851852,1,0,0,center_square,0,0,0,74,1,,,,,,,,,,,,,,,,,,,,,,,
706639,001,2022-11-13_23h27.39.771,Info_measure_main_exp,2022.2.2,Win32,144.3626389,,,,,,,,,,,,,,,,,,masks/mask_001.jpg,,,,,,,,,,,,,,,,,,,,,,,,,,,,,,,,,,,,,,,,,,,0,0,0,0,1,,,,,,,,,,,,,,,,,,,,,,,,,,,,,,,,,,,,,,,,,,,,,,
706639,001,2022-11-13_23h27.39.771,Info_measure_main_exp,2022.2.2,Win32,144.3626389,,,,,,,,,,,,,,,,,,masks/mask_005.jpg,,,,,,,,,,,,,,,,,,,,,,,,,,,,,,,,,,,,,,,,,,,0,1,1,4,1,,,,,,,,,,,,,,,,,,,,,,,,,,,,,,,,,,,,,,,,,,,,,,
706639,001,2022-11-13_23h27.39.771,Info_measure_main_exp,2022.2.2,Win32,144.3626389,,,,,,,,,,,,,,,,,,masks/mask_002.jpg,,,,,,,,,,,,,,,,,,,,,,,,,,,,,,,,,,,,,,,,,,,0,2,2,1,1,,,,,,,,,,,,,,,,,,,,,,,,,,,,,,,,,,,,,,,,,,,,,,
706639,001,2022-11-13_23h27.39.771,Info_measure_main_exp,2022.2.2,Win32,144.3626389,,,,,,,,,,,,,,,,,,masks/mask_004.jpg,,,,,,,,,,,,,,,,,,,,,,,,,,,,,,,,,,,,,,,,,,,0,3,3,3,1,,,,,,,,,,,,,,,,,,,,,,,,,,,,,,,,,,,,,,,,,,,,,,
706639,001,2022-11-13_23h27.39.771,Info_measure_main_exp,2022.2.2,Win32,144.3626389,,,,,,,,,,,,,,,,,,masks/mask_003.jpg,,,,,,,,,,,,,,,,,,,,,,,,,,,,,,,,,,,,,,,,,,,0,4,4,2,1,,,,,,,,,,,,,,,,,,,,,,,,,,,,,,,,,,,,,,,,,,,,,,
706639,001,2022-11-13_23h27.39.771,Info_measure_main_exp,2022.2.2,Win32,144.3626389,,,,,,,,,,,,,,,,,,masks/mask_001.jpg,,,,,,,,,,,,,,,,,,,,,,,,,,,,,,,,,,,,,,,,,,,,,,,,0,0,0,0,1,,,,,,,,,,,,,,,,,,,,,,,,,,,,,,,,,,,,,,,,,
706639,001,2022-11-13_23h27.39.771,Info_measure_main_exp,2022.2.2,Win32,144.3626389,,,,,,,,,,,,,,,,,,masks/mask_005.jpg,,,,,,,,,,,,,,,,,,,,,,,,,,,,,,,,,,,,,,,,,,,,,,,,0,1,1,4,1,,,,,,,,,,,,,,,,,,,,,,,,,,,,,,,,,,,,,,,,,
706639,001,2022-11-13_23h27.39.771,Info_measure_main_exp,2022.2.2,Win32,144.3626389,,,,,,,,,,,,,,,,,,masks/mask_002.jpg,,,,,,,,,,,,,,,,,,,,,,,,,,,,,,,,,,,,,,,,,,,,,,,,0,2,2,1,1,,,,,,,,,,,,,,,,,,,,,,,,,,,,,,,,,,,,,,,,,
706639,001,2022-11-13_23h27.39.771,Info_measure_main_exp,2022.2.2,Win32,144.3626389,,,,,,,,,,,,,,,,,,masks/mask_003.jpg,,,,,,,,,,,,,,,,,,,,,,,,,,,,,,,,,,,,,,,,,,,,,,,,0,3,3,2,1,,,,,,,,,,,,,,,,,,,,,,,,,,,,,,,,,,,,,,,,,
706639,001,2022-11-13_23h27.39.771,Info_measure_main_exp,2022.2.2,Win32,144.3626389,,,,,,,,,,,,,,,,,,masks/mask_004.jpg,,,,,,,,,,,,,,,,,,,,,,,,,,,,,,,,,,,,,,,,,,,,,,,,0,4,4,3,1,,,,,,,,,,,,,,,,,,,,,,,,,,,,,,,,,,,,,,,,,
706639,001,2022-11-13_23h27.39.771,Info_measure_main_exp,2022.2.2,Win32,144.3626389,,,,,,,,,,,,,,,,,,,,,,,,,,,,,,0,0.8542,1,,,,,,,,,,,,0,131,5,5,2274,2274,absent_patch/patch0002274.jpg,absent_patch/patch0002274.jpg,,,,,,,,,,,,,,,,,,,,-0.032407407,0.075,1,0,0,response7disk,2,-0.00462963,0,1,0,0,center_square,0,1,1,114,1,,,,,,,,,,,,,,,,,,,,,,,
706639,001,2022-11-13_23h27.39.771,Info_measure_main_exp,2022.2.2,Win32,144.3626389,,,,,,,,,,,,,,,,,,masks/mask_003.jpg,,,,,,,,,,,,,,,,,,,,,,,,,,,,,,,,,,,,,,,,,,,0,0,0,2,1,,,,,,,,,,,,,,,,,,,,,,,,,,,,,,,,,,,,,,,,,,,,,,
706639,001,2022-11-13_23h27.39.771,Info_measure_main_exp,2022.2.2,Win32,144.3626389,,,,,,,,,,,,,,,,,,masks/mask_005.jpg,,,,,,,,,,,,,,,,,,,,,,,,,,,,,,,,,,,,,,,,,,,0,1,1,4,1,,,,,,,,,,,,,,,,,,,,,,,,,,,,,,,,,,,,,,,,,,,,,,
706639,001,2022-11-13_23h27.39.771,Info_measure_main_exp,2022.2.2,Win32,144.3626389,,,,,,,,,,,,,,,,,,masks/mask_002.jpg,,,,,,,,,,,,,,,,,,,,,,,,,,,,,,,,,,,,,,,,,,,0,2,2,1,1,,,,,,,,,,,,,,,,,,,,,,,,,,,,,,,,,,,,,,,,,,,,,,
706639,001,2022-11-13_23h27.39.771,Info_measure_main_exp,2022.2.2,Win32,144.3626389,,,,,,,,,,,,,,,,,,masks/mask_004.jpg,,,,,,,,,,,,,,,,,,,,,,,,,,,,,,,,,,,,,,,,,,,0,3,3,3,1,,,,,,,,,,,,,,,,,,,,,,,,,,,,,,,,,,,,,,,,,,,,,,
706639,001,2022-11-13_23h27.39.771,Info_measure_main_exp,2022.2.2,Win32,144.3626389,,,,,,,,,,,,,,,,,,masks/mask_001.jpg,,,,,,,,,,,,,,,,,,,,,,,,,,,,,,,,,,,,,,,,,,,0,4,4,0,1,,,,,,,,,,,,,,,,,,,,,,,,,,,,,,,,,,,,,,,,,,,,,,
706639,001,2022-11-13_23h27.39.771,Info_measure_main_exp,2022.2.2,Win32,144.3626389,,,,,,,,,,,,,,,,,,masks/mask_003.jpg,,,,,,,,,,,,,,,,,,,,,,,,,,,,,,,,,,,,,,,,,,,,,,,,0,0,0,2,1,,,,,,,,,,,,,,,,,,,,,,,,,,,,,,,,,,,,,,,,,
706639,001,2022-11-13_23h27.39.771,Info_measure_main_exp,2022.2.2,Win32,144.3626389,,,,,,,,,,,,,,,,,,masks/mask_005.jpg,,,,,,,,,,,,,,,,,,,,,,,,,,,,,,,,,,,,,,,,,,,,,,,,0,1,1,4,1,,,,,,,,,,,,,,,,,,,,,,,,,,,,,,,,,,,,,,,,,
706639,001,2022-11-13_23h27.39.771,Info_measure_main_exp,2022.2.2,Win32,144.3626389,,,,,,,,,,,,,,,,,,masks/mask_001.jpg,,,,,,,,,,,,,,,,,,,,,,,,,,,,,,,,,,,,,,,,,,,,,,,,0,2,2,0,1,,,,,,,,,,,,,,,,,,,,,,,,,,,,,,,,,,,,,,,,,
706639,001,2022-11-13_23h27.39.771,Info_measure_main_exp,2022.2.2,Win32,144.3626389,,,,,,,,,,,,,,,,,,masks/mask_004.jpg,,,,,,,,,,,,,,,,,,,,,,,,,,,,,,,,,,,,,,,,,,,,,,,,0,3,3,3,1,,,,,,,,,,,,,,,,,,,,,,,,,,,,,,,,,,,,,,,,,
706639,001,2022-11-13_23h27.39.771,Info_measure_main_exp,2022.2.2,Win32,144.3626389,,,,,,,,,,,,,,,,,,masks/mask_002.jpg,,,,,,,,,,,,,,,,,,,,,,,,,,,,,,,,,,,,,,,,,,,,,,,,0,4,4,1,1,,,,,,,,,,,,,,,,,,,,,,,,,,,,,,,,,,,,,,,,,
706639,001,2022-11-13_23h27.39.771,Info_measure_main_exp,2022.2.2,Win32,144.3626389,,,,,,,,,,,,,,,,,,,,,,,,,,,,,,7,0.7224,1,,,,,,,,,,,,0,131,5,5,2166,2298,absent_patch/patch0002166.jpg,absent_patch/patch0002298.jpg,,,,,,,,,,,,,,,,,,,,0.061111111,0.09537037,1,0,0,response1disk,3,-0.005555556,-0.002777778,1,0,0,center_square,0,2,2,52,1,,,,,,,,,,,,,,,,,,,,,,,
706639,001,2022-11-13_23h27.39.771,Info_measure_main_exp,2022.2.2,Win32,144.3626389,,,,,,,,,,,,,,,,,,masks/mask_002.jpg,,,,,,,,,,,,,,,,,,,,,,,,,,,,,,,,,,,,,,,,,,,0,0,0,1,1,,,,,,,,,,,,,,,,,,,,,,,,,,,,,,,,,,,,,,,,,,,,,,
706639,001,2022-11-13_23h27.39.771,Info_measure_main_exp,2022.2.2,Win32,144.3626389,,,,,,,,,,,,,,,,,,masks/mask_005.jpg,,,,,,,,,,,,,,,,,,,,,,,,,,,,,,,,,,,,,,,,,,,0,1,1,4,1,,,,,,,,,,,,,,,,,,,,,,,,,,,,,,,,,,,,,,,,,,,,,,
706639,001,2022-11-13_23h27.39.771,Info_measure_main_exp,2022.2.2,Win32,144.3626389,,,,,,,,,,,,,,,,,,masks/mask_001.jpg,,,,,,,,,,,,,,,,,,,,,,,,,,,,,,,,,,,,,,,,,,,0,2,2,0,1,,,,,,,,,,,,,,,,,,,,,,,,,,,,,,,,,,,,,,,,,,,,,,
706639,001,2022-11-13_23h27.39.771,Info_measure_main_exp,2022.2.2,Win32,144.3626389,,,,,,,,,,,,,,,,,,masks/mask_003.jpg,,,,,,,,,,,,,,,,,,,,,,,,,,,,,,,,,,,,,,,,,,,0,3,3,2,1,,,,,,,,,,,,,,,,,,,,,,,,,,,,,,,,,,,,,,,,,,,,,,
706639,001,2022-11-13_23h27.39.771,Info_measure_main_exp,2022.2.2,Win32,144.3626389,,,,,,,,,,,,,,,,,,masks/mask_004.jpg,,,,,,,,,,,,,,,,,,,,,,,,,,,,,,,,,,,,,,,,,,,0,4,4,3,1,,,,,,,,,,,,,,,,,,,,,,,,,,,,,,,,,,,,,,,,,,,,,,
706639,001,2022-11-13_23h27.39.771,Info_measure_main_exp,2022.2.2,Win32,144.3626389,,,,,,,,,,,,,,,,,,masks/mask_005.jpg,,,,,,,,,,,,,,,,,,,,,,,,,,,,,,,,,,,,,,,,,,,,,,,,0,0,0,4,1,,,,,,,,,,,,,,,,,,,,,,,,,,,,,,,,,,,,,,,,,
706639,001,2022-11-13_23h27.39.771,Info_measure_main_exp,2022.2.2,Win32,144.3626389,,,,,,,,,,,,,,,,,,masks/mask_003.jpg,,,,,,,,,,,,,,,,,,,,,,,,,,,,,,,,,,,,,,,,,,,,,,,,0,1,1,2,1,,,,,,,,,,,,,,,,,,,,,,,,,,,,,,,,,,,,,,,,,
706639,001,2022-11-13_23h27.39.771,Info_measure_main_exp,2022.2.2,Win32,144.3626389,,,,,,,,,,,,,,,,,,masks/mask_001.jpg,,,,,,,,,,,,,,,,,,,,,,,,,,,,,,,,,,,,,,,,,,,,,,,,0,2,2,0,1,,,,,,,,,,,,,,,,,,,,,,,,,,,,,,,,,,,,,,,,,
706639,001,2022-11-13_23h27.39.771,Info_measure_main_exp,2022.2.2,Win32,144.3626389,,,,,,,,,,,,,,,,,,masks/mask_002.jpg,,,,,,,,,,,,,,,,,,,,,,,,,,,,,,,,,,,,,,,,,,,,,,,,0,3,3,1,1,,,,,,,,,,,,,,,,,,,,,,,,,,,,,,,,,,,,,,,,,
706639,001,2022-11-13_23h27.39.771,Info_measure_main_exp,2022.2.2,Win32,144.3626389,,,,,,,,,,,,,,,,,,masks/mask_004.jpg,,,,,,,,,,,,,,,,,,,,,,,,,,,,,,,,,,,,,,,,,,,,,,,,0,4,4,3,1,,,,,,,,,,,,,,,,,,,,,,,,,,,,,,,,,,,,,,,,,
706639,001,2022-11-13_23h27.39.771,Info_measure_main_exp,2022.2.2,Win32,144.3626389,,,,,,,,,,,,,,,,,,,,,,,,,,,,,,0,0.7777,1,,,,,,,,,,,,0,131,5,5,1986,1986,absent_patch/patch0001986.jpg,absent_patch/patch0001986.jpg,,,,,,,,,,,,,,,,,,,,-0.016666667,0.096296296,1,0,0,response7disk,4,-0.005555556,0.007407407,1,0,0,center_square,0,3,3,19,1,,,,,,,,,,,,,,,,,,,,,,,
706639,001,2022-11-13_23h27.39.771,Info_measure_main_exp,2022.2.2,Win32,144.3626389,,,,,,,,,,,,,,,,,,masks/mask_005.jpg,,,,,,,,,,,,,,,,,,,,,,,,,,,,,,,,,,,,,,,,,,,0,0,0,4,1,,,,,,,,,,,,,,,,,,,,,,,,,,,,,,,,,,,,,,,,,,,,,,
706639,001,2022-11-13_23h27.39.771,Info_measure_main_exp,2022.2.2,Win32,144.3626389,,,,,,,,,,,,,,,,,,masks/mask_002.jpg,,,,,,,,,,,,,,,,,,,,,,,,,,,,,,,,,,,,,,,,,,,0,1,1,1,1,,,,,,,,,,,,,,,,,,,,,,,,,,,,,,,,,,,,,,,,,,,,,,
706639,001,2022-11-13_23h27.39.771,Info_measure_main_exp,2022.2.2,Win32,144.3626389,,,,,,,,,,,,,,,,,,masks/mask_004.jpg,,,,,,,,,,,,,,,,,,,,,,,,,,,,,,,,,,,,,,,,,,,0,2,2,3,1,,,,,,,,,,,,,,,,,,,,,,,,,,,,,,,,,,,,,,,,,,,,,,
706639,001,2022-11-13_23h27.39.771,Info_measure_main_exp,2022.2.2,Win32,144.3626389,,,,,,,,,,,,,,,,,,masks/mask_001.jpg,,,,,,,,,,,,,,,,,,,,,,,,,,,,,,,,,,,,,,,,,,,0,3,3,0,1,,,,,,,,,,,,,,,,,,,,,,,,,,,,,,,,,,,,,,,,,,,,,,
706639,001,2022-11-13_23h27.39.771,Info_measure_main_exp,2022.2.2,Win32,144.3626389,,,,,,,,,,,,,,,,,,masks/mask_003.jpg,,,,,,,,,,,,,,,,,,,,,,,,,,,,,,,,,,,,,,,,,,,0,4,4,2,1,,,,,,,,,,,,,,,,,,,,,,,,,,,,,,,,,,,,,,,,,,,,,,
706639,001,2022-11-13_23h27.39.771,Info_measure_main_exp,2022.2.2,Win32,144.3626389,,,,,,,,,,,,,,,,,,masks/mask_003.jpg,,,,,,,,,,,,,,,,,,,,,,,,,,,,,,,,,,,,,,,,,,,,,,,,0,0,0,2,1,,,,,,,,,,,,,,,,,,,,,,,,,,,,,,,,,,,,,,,,,
706639,001,2022-11-13_23h27.39.771,Info_measure_main_exp,2022.2.2,Win32,144.3626389,,,,,,,,,,,,,,,,,,masks/mask_002.jpg,,,,,,,,,,,,,,,,,,,,,,,,,,,,,,,,,,,,,,,,,,,,,,,,0,1,1,1,1,,,,,,,,,,,,,,,,,,,,,,,,,,,,,,,,,,,,,,,,,
706639,001,2022-11-13_23h27.39.771,Info_measure_main_exp,2022.2.2,Win32,144.3626389,,,,,,,,,,,,,,,,,,masks/mask_001.jpg,,,,,,,,,,,,,,,,,,,,,,,,,,,,,,,,,,,,,,,,,,,,,,,,0,2,2,0,1,,,,,,,,,,,,,,,,,,,,,,,,,,,,,,,,,,,,,,,,,
706639,001,2022-11-13_23h27.39.771,Info_measure_main_exp,2022.2.2,Win32,144.3626389,,,,,,,,,,,,,,,,,,masks/mask_005.jpg,,,,,,,,,,,,,,,,,,,,,,,,,,,,,,,,,,,,,,,,,,,,,,,,0,3,3,4,1,,,,,,,,,,,,,,,,,,,,,,,,,,,,,,,,,,,,,,,,,
706639,001,2022-11-13_23h27.39.771,Info_measure_main_exp,2022.2.2,Win32,144.3626389,,,,,,,,,,,,,,,,,,masks/mask_004.jpg,,,,,,,,,,,,,,,,,,,,,,,,,,,,,,,,,,,,,,,,,,,,,,,,0,4,4,3,1,,,,,,,,,,,,,,,,,,,,,,,,,,,,,,,,,,,,,,,,,
706639,001,2022-11-13_23h27.39.771,Info_measure_main_exp,2022.2.2,Win32,144.3626389,,,,,,,,,,,,,,,,,,,,,,,,,,,,,,7,1.507,1,,,,,,,,,,,,0,131,5,5,2082,1974,absent_patch/patch0002082.jpg,absent_patch/patch0001974.jpg,,,,,,,,,,,,,,,,,,,,0.053703704,0.09537037,1,0,0,response1disk,5,0.003703704,0.00462963,1,0,0,center_square,0,4,4,26,1,,,,,,,,,,,,,,,,,,,,,,,
706639,001,2022-11-13_23h27.39.771,Info_measure_main_exp,2022.2.2,Win32,144.3626389,,,,,,,,,,,,,,,,,,masks/mask_005.jpg,,,,,,,,,,,,,,,,,,,,,,,,,,,,,,,,,,,,,,,,,,,0,0,0,4,1,,,,,,,,,,,,,,,,,,,,,,,,,,,,,,,,,,,,,,,,,,,,,,
706639,001,2022-11-13_23h27.39.771,Info_measure_main_exp,2022.2.2,Win32,144.3626389,,,,,,,,,,,,,,,,,,masks/mask_004.jpg,,,,,,,,,,,,,,,,,,,,,,,,,,,,,,,,,,,,,,,,,,,0,1,1,3,1,,,,,,,,,,,,,,,,,,,,,,,,,,,,,,,,,,,,,,,,,,,,,,
706639,001,2022-11-13_23h27.39.771,Info_measure_main_exp,2022.2.2,Win32,144.3626389,,,,,,,,,,,,,,,,,,masks/mask_003.jpg,,,,,,,,,,,,,,,,,,,,,,,,,,,,,,,,,,,,,,,,,,,0,2,2,2,1,,,,,,,,,,,,,,,,,,,,,,,,,,,,,,,,,,,,,,,,,,,,,,
706639,001,2022-11-13_23h27.39.771,Info_measure_main_exp,2022.2.2,Win32,144.3626389,,,,,,,,,,,,,,,,,,masks/mask_002.jpg,,,,,,,,,,,,,,,,,,,,,,,,,,,,,,,,,,,,,,,,,,,0,3,3,1,1,,,,,,,,,,,,,,,,,,,,,,,,,,,,,,,,,,,,,,,,,,,,,,
706639,001,2022-11-13_23h27.39.771,Info_measure_main_exp,2022.2.2,Win32,144.3626389,,,,,,,,,,,,,,,,,,masks/mask_001.jpg,,,,,,,,,,,,,,,,,,,,,,,,,,,,,,,,,,,,,,,,,,,0,4,4,0,1,,,,,,,,,,,,,,,,,,,,,,,,,,,,,,,,,,,,,,,,,,,,,,
706639,001,2022-11-13_23h27.39.771,Info_measure_main_exp,2022.2.2,Win32,144.3626389,,,,,,,,,,,,,,,,,,masks/mask_005.jpg,,,,,,,,,,,,,,,,,,,,,,,,,,,,,,,,,,,,,,,,,,,,,,,,0,0,0,4,1,,,,,,,,,,,,,,,,,,,,,,,,,,,,,,,,,,,,,,,,,
706639,001,2022-11-13_23h27.39.771,Info_measure_main_exp,2022.2.2,Win32,144.3626389,,,,,,,,,,,,,,,,,,masks/mask_003.jpg,,,,,,,,,,,,,,,,,,,,,,,,,,,,,,,,,,,,,,,,,,,,,,,,0,1,1,2,1,,,,,,,,,,,,,,,,,,,,,,,,,,,,,,,,,,,,,,,,,
706639,001,2022-11-13_23h27.39.771,Info_measure_main_exp,2022.2.2,Win32,144.3626389,,,,,,,,,,,,,,,,,,masks/mask_002.jpg,,,,,,,,,,,,,,,,,,,,,,,,,,,,,,,,,,,,,,,,,,,,,,,,0,2,2,1,1,,,,,,,,,,,,,,,,,,,,,,,,,,,,,,,,,,,,,,,,,
706639,001,2022-11-13_23h27.39.771,Info_measure_main_exp,2022.2.2,Win32,144.3626389,,,,,,,,,,,,,,,,,,masks/mask_004.jpg,,,,,,,,,,,,,,,,,,,,,,,,,,,,,,,,,,,,,,,,,,,,,,,,0,3,3,3,1,,,,,,,,,,,,,,,,,,,,,,,,,,,,,,,,,,,,,,,,,
706639,001,2022-11-13_23h27.39.771,Info_measure_main_exp,2022.2.2,Win32,144.3626389,,,,,,,,,,,,,,,,,,masks/mask_001.jpg,,,,,,,,,,,,,,,,,,,,,,,,,,,,,,,,,,,,,,,,,,,,,,,,0,4,4,0,1,,,,,,,,,,,,,,,,,,,,,,,,,,,,,,,,,,,,,,,,,
706639,001,2022-11-13_23h27.39.771,Info_measure_main_exp,2022.2.2,Win32,144.3626389,,,,,,,,,,,,,,,,,,,,,,,,,,,,,,7,0.5417,1,,,,,,,,,,,,1,131,5,5,2298,1,absent_patch/patch0002298.jpg,present_patch/cong_131_5_a.jpg,,,,,,,,,,,,,,,,,,,,0.027777778,0.073148148,1,0,0,response1disk,6,0.003703704,-0.002777778,1,0,0,center_square,0,5,5,45,1,,,,,,,,,,,,,,,,,,,,,,,
706639,001,2022-11-13_23h27.39.771,Info_measure_main_exp,2022.2.2,Win32,144.3626389,,,,,,,,,,,,,,,,,,masks/mask_004.jpg,,,,,,,,,,,,,,,,,,,,,,,,,,,,,,,,,,,,,,,,,,,0,0,0,3,1,,,,,,,,,,,,,,,,,,,,,,,,,,,,,,,,,,,,,,,,,,,,,,
706639,001,2022-11-13_23h27.39.771,Info_measure_main_exp,2022.2.2,Win32,144.3626389,,,,,,,,,,,,,,,,,,masks/mask_003.jpg,,,,,,,,,,,,,,,,,,,,,,,,,,,,,,,,,,,,,,,,,,,0,1,1,2,1,,,,,,,,,,,,,,,,,,,,,,,,,,,,,,,,,,,,,,,,,,,,,,
706639,001,2022-11-13_23h27.39.771,Info_measure_main_exp,2022.2.2,Win32,144.3626389,,,,,,,,,,,,,,,,,,masks/mask_001.jpg,,,,,,,,,,,,,,,,,,,,,,,,,,,,,,,,,,,,,,,,,,,0,2,2,0,1,,,,,,,,,,,,,,,,,,,,,,,,,,,,,,,,,,,,,,,,,,,,,,
706639,001,2022-11-13_23h27.39.771,Info_measure_main_exp,2022.2.2,Win32,144.3626389,,,,,,,,,,,,,,,,,,masks/mask_005.jpg,,,,,,,,,,,,,,,,,,,,,,,,,,,,,,,,,,,,,,,,,,,0,3,3,4,1,,,,,,,,,,,,,,,,,,,,,,,,,,,,,,,,,,,,,,,,,,,,,,
706639,001,2022-11-13_23h27.39.771,Info_measure_main_exp,2022.2.2,Win32,144.3626389,,,,,,,,,,,,,,,,,,masks/mask_002.jpg,,,,,,,,,,,,,,,,,,,,,,,,,,,,,,,,,,,,,,,,,,,0,4,4,1,1,,,,,,,,,,,,,,,,,,,,,,,,,,,,,,,,,,,,,,,,,,,,,,
706639,001,2022-11-13_23h27.39.771,Info_measure_main_exp,2022.2.2,Win32,144.3626389,,,,,,,,,,,,,,,,,,masks/mask_002.jpg,,,,,,,,,,,,,,,,,,,,,,,,,,,,,,,,,,,,,,,,,,,,,,,,0,0,0,1,1,,,,,,,,,,,,,,,,,,,,,,,,,,,,,,,,,,,,,,,,,
706639,001,2022-11-13_23h27.39.771,Info_measure_main_exp,2022.2.2,Win32,144.3626389,,,,,,,,,,,,,,,,,,masks/mask_004.jpg,,,,,,,,,,,,,,,,,,,,,,,,,,,,,,,,,,,,,,,,,,,,,,,,0,1,1,3,1,,,,,,,,,,,,,,,,,,,,,,,,,,,,,,,,,,,,,,,,,
706639,001,2022-11-13_23h27.39.771,Info_measure_main_exp,2022.2.2,Win32,144.3626389,,,,,,,,,,,,,,,,,,masks/mask_003.jpg,,,,,,,,,,,,,,,,,,,,,,,,,,,,,,,,,,,,,,,,,,,,,,,,0,2,2,2,1,,,,,,,,,,,,,,,,,,,,,,,,,,,,,,,,,,,,,,,,,
706639,001,2022-11-13_23h27.39.771,Info_measure_main_exp,2022.2.2,Win32,144.3626389,,,,,,,,,,,,,,,,,,masks/mask_005.jpg,,,,,,,,,,,,,,,,,,,,,,,,,,,,,,,,,,,,,,,,,,,,,,,,0,3,3,4,1,,,,,,,,,,,,,,,,,,,,,,,,,,,,,,,,,,,,,,,,,
706639,001,2022-11-13_23h27.39.771,Info_measure_main_exp,2022.2.2,Win32,144.3626389,,,,,,,,,,,,,,,,,,masks/mask_001.jpg,,,,,,,,,,,,,,,,,,,,,,,,,,,,,,,,,,,,,,,,,,,,,,,,0,4,4,0,1,,,,,,,,,,,,,,,,,,,,,,,,,,,,,,,,,,,,,,,,,
706639,001,2022-11-13_23h27.39.771,Info_measure_main_exp,2022.2.2,Win32,144.3626389,,,,,,,,,,,,,,,,,,,,,,,,,,,,,,7,0.5901,1,,,,,,,,,,,,0,131,5,5,2298,2274,absent_patch/patch0002298.jpg,absent_patch/patch0002274.jpg,,,,,,,,,,,,,,,,,,,,0.02962963,0.057407407,1,0,0,response1disk,7,-0.009259259,0.009259259,1,0,0,center_square,0,6,6,1,1,,,,,,,,,,,,,,,,,,,,,,,
706639,001,2022-11-13_23h27.39.771,Info_measure_main_exp,2022.2.2,Win32,144.3626389,,,,,,,,,,,,,,,,,,masks/mask_002.jpg,,,,,,,,,,,,,,,,,,,,,,,,,,,,,,,,,,,,,,,,,,,0,0,0,1,1,,,,,,,,,,,,,,,,,,,,,,,,,,,,,,,,,,,,,,,,,,,,,,
706639,001,2022-11-13_23h27.39.771,Info_measure_main_exp,2022.2.2,Win32,144.3626389,,,,,,,,,,,,,,,,,,masks/mask_004.jpg,,,,,,,,,,,,,,,,,,,,,,,,,,,,,,,,,,,,,,,,,,,0,1,1,3,1,,,,,,,,,,,,,,,,,,,,,,,,,,,,,,,,,,,,,,,,,,,,,,
706639,001,2022-11-13_23h27.39.771,Info_measure_main_exp,2022.2.2,Win32,144.3626389,,,,,,,,,,,,,,,,,,masks/mask_001.jpg,,,,,,,,,,,,,,,,,,,,,,,,,,,,,,,,,,,,,,,,,,,0,2,2,0,1,,,,,,,,,,,,,,,,,,,,,,,,,,,,,,,,,,,,,,,,,,,,,,
706639,001,2022-11-13_23h27.39.771,Info_measure_main_exp,2022.2.2,Win32,144.3626389,,,,,,,,,,,,,,,,,,masks/mask_003.jpg,,,,,,,,,,,,,,,,,,,,,,,,,,,,,,,,,,,,,,,,,,,0,3,3,2,1,,,,,,,,,,,,,,,,,,,,,,,,,,,,,,,,,,,,,,,,,,,,,,
706639,001,2022-11-13_23h27.39.771,Info_measure_main_exp,2022.2.2,Win32,144.3626389,,,,,,,,,,,,,,,,,,masks/mask_005.jpg,,,,,,,,,,,,,,,,,,,,,,,,,,,,,,,,,,,,,,,,,,,0,4,4,4,1,,,,,,,,,,,,,,,,,,,,,,,,,,,,,,,,,,,,,,,,,,,,,,
706639,001,2022-11-13_23h27.39.771,Info_measure_main_exp,2022.2.2,Win32,144.3626389,,,,,,,,,,,,,,,,,,masks/mask_002.jpg,,,,,,,,,,,,,,,,,,,,,,,,,,,,,,,,,,,,,,,,,,,,,,,,0,0,0,1,1,,,,,,,,,,,,,,,,,,,,,,,,,,,,,,,,,,,,,,,,,
706639,001,2022-11-13_23h27.39.771,Info_measure_main_exp,2022.2.2,Win32,144.3626389,,,,,,,,,,,,,,,,,,masks/mask_003.jpg,,,,,,,,,,,,,,,,,,,,,,,,,,,,,,,,,,,,,,,,,,,,,,,,0,1,1,2,1,,,,,,,,,,,,,,,,,,,,,,,,,,,,,,,,,,,,,,,,,
706639,001,2022-11-13_23h27.39.771,Info_measure_main_exp,2022.2.2,Win32,144.3626389,,,,,,,,,,,,,,,,,,masks/mask_001.jpg,,,,,,,,,,,,,,,,,,,,,,,,,,,,,,,,,,,,,,,,,,,,,,,,0,2,2,0,1,,,,,,,,,,,,,,,,,,,,,,,,,,,,,,,,,,,,,,,,,
706639,001,2022-11-13_23h27.39.771,Info_measure_main_exp,2022.2.2,Win32,144.3626389,,,,,,,,,,,,,,,,,,masks/mask_005.jpg,,,,,,,,,,,,,,,,,,,,,,,,,,,,,,,,,,,,,,,,,,,,,,,,0,3,3,4,1,,,,,,,,,,,,,,,,,,,,,,,,,,,,,,,,,,,,,,,,,
706639,001,2022-11-13_23h27.39.771,Info_measure_main_exp,2022.2.2,Win32,144.3626389,,,,,,,,,,,,,,,,,,masks/mask_004.jpg,,,,,,,,,,,,,,,,,,,,,,,,,,,,,,,,,,,,,,,,,,,,,,,,0,4,4,3,1,,,,,,,,,,,,,,,,,,,,,,,,,,,,,,,,,,,,,,,,,
706639,001,2022-11-13_23h27.39.771,Info_measure_main_exp,2022.2.2,Win32,144.3626389,,,,,,,,,,,,,,,,,,,,,,,,,,,,,,0,0.6389,1,,,,,,,,,,,,0,131,5,5,2250,2250,absent_patch/patch0002250.jpg,absent_patch/patch0002250.jpg,,,,,,,,,,,,,,,,,,,,-0.018518519,0.074074074,1,0,0,response7disk,8,0.010185185,0.006481481,1,0,0,center_square,0,7,7,56,1,,,,,,,,,,,,,,,,,,,,,,,
706639,001,2022-11-13_23h27.39.771,Info_measure_main_exp,2022.2.2,Win32,144.3626389,,,,,,,,,,,,,,,,,,masks/mask_004.jpg,,,,,,,,,,,,,,,,,,,,,,,,,,,,,,,,,,,,,,,,,,,0,0,0,3,1,,,,,,,,,,,,,,,,,,,,,,,,,,,,,,,,,,,,,,,,,,,,,,
706639,001,2022-11-13_23h27.39.771,Info_measure_main_exp,2022.2.2,Win32,144.3626389,,,,,,,,,,,,,,,,,,masks/mask_003.jpg,,,,,,,,,,,,,,,,,,,,,,,,,,,,,,,,,,,,,,,,,,,0,1,1,2,1,,,,,,,,,,,,,,,,,,,,,,,,,,,,,,,,,,,,,,,,,,,,,,
706639,001,2022-11-13_23h27.39.771,Info_measure_main_exp,2022.2.2,Win32,144.3626389,,,,,,,,,,,,,,,,,,masks/mask_002.jpg,,,,,,,,,,,,,,,,,,,,,,,,,,,,,,,,,,,,,,,,,,,0,2,2,1,1,,,,,,,,,,,,,,,,,,,,,,,,,,,,,,,,,,,,,,,,,,,,,,
706639,001,2022-11-13_23h27.39.771,Info_measure_main_exp,2022.2.2,Win32,144.3626389,,,,,,,,,,,,,,,,,,masks/mask_005.jpg,,,,,,,,,,,,,,,,,,,,,,,,,,,,,,,,,,,,,,,,,,,0,3,3,4,1,,,,,,,,,,,,,,,,,,,,,,,,,,,,,,,,,,,,,,,,,,,,,,
706639,001,2022-11-13_23h27.39.771,Info_measure_main_exp,2022.2.2,Win32,144.3626389,,,,,,,,,,,,,,,,,,masks/mask_001.jpg,,,,,,,,,,,,,,,,,,,,,,,,,,,,,,,,,,,,,,,,,,,0,4,4,0,1,,,,,,,,,,,,,,,,,,,,,,,,,,,,,,,,,,,,,,,,,,,,,,
706639,001,2022-11-13_23h27.39.771,Info_measure_main_exp,2022.2.2,Win32,144.3626389,,,,,,,,,,,,,,,,,,masks/mask_002.jpg,,,,,,,,,,,,,,,,,,,,,,,,,,,,,,,,,,,,,,,,,,,,,,,,0,0,0,1,1,,,,,,,,,,,,,,,,,,,,,,,,,,,,,,,,,,,,,,,,,
706639,001,2022-11-13_23h27.39.771,Info_measure_main_exp,2022.2.2,Win32,144.3626389,,,,,,,,,,,,,,,,,,masks/mask_004.jpg,,,,,,,,,,,,,,,,,,,,,,,,,,,,,,,,,,,,,,,,,,,,,,,,0,1,1,3,1,,,,,,,,,,,,,,,,,,,,,,,,,,,,,,,,,,,,,,,,,
706639,001,2022-11-13_23h27.39.771,Info_measure_main_exp,2022.2.2,Win32,144.3626389,,,,,,,,,,,,,,,,,,masks/mask_003.jpg,,,,,,,,,,,,,,,,,,,,,,,,,,,,,,,,,,,,,,,,,,,,,,,,0,2,2,2,1,,,,,,,,,,,,,,,,,,,,,,,,,,,,,,,,,,,,,,,,,
706639,001,2022-11-13_23h27.39.771,Info_measure_main_exp,2022.2.2,Win32,144.3626389,,,,,,,,,,,,,,,,,,masks/mask_001.jpg,,,,,,,,,,,,,,,,,,,,,,,,,,,,,,,,,,,,,,,,,,,,,,,,0,3,3,0,1,,,,,,,,,,,,,,,,,,,,,,,,,,,,,,,,,,,,,,,,,
706639,001,2022-11-13_23h27.39.771,Info_measure_main_exp,2022.2.2,Win32,144.3626389,,,,,,,,,,,,,,,,,,masks/mask_005.jpg,,,,,,,,,,,,,,,,,,,,,,,,,,,,,,,,,,,,,,,,,,,,,,,,0,4,4,4,1,,,,,,,,,,,,,,,,,,,,,,,,,,,,,,,,,,,,,,,,,
706639,001,2022-11-13_23h27.39.771,Info_measure_main_exp,2022.2.2,Win32,144.3626389,,,,,,,,,,,,,,,,,,,,,,,,,,,,,,7,1.2293,1,,,,,,,,,,,,0,131,5,5,2154,2238,absent_patch/patch0002154.jpg,absent_patch/patch0002238.jpg,,,,,,,,,,,,,,,,,,,,0.043518519,0.076851852,1,0,0,response1disk,9,0.005555556,0.010185185,1,0,0,center_square,0,8,8,21,1,,,,,,,,,,,,,,,,,,,,,,,
706639,001,2022-11-13_23h27.39.771,Info_measure_main_exp,2022.2.2,Win32,144.3626389,,,,,,,,,,,,,,,,,,masks/mask_002.jpg,,,,,,,,,,,,,,,,,,,,,,,,,,,,,,,,,,,,,,,,,,,0,0,0,1,1,,,,,,,,,,,,,,,,,,,,,,,,,,,,,,,,,,,,,,,,,,,,,,
706639,001,2022-11-13_23h27.39.771,Info_measure_main_exp,2022.2.2,Win32,144.3626389,,,,,,,,,,,,,,,,,,masks/mask_003.jpg,,,,,,,,,,,,,,,,,,,,,,,,,,,,,,,,,,,,,,,,,,,0,1,1,2,1,,,,,,,,,,,,,,,,,,,,,,,,,,,,,,,,,,,,,,,,,,,,,,
706639,001,2022-11-13_23h27.39.771,Info_measure_main_exp,2022.2.2,Win32,144.3626389,,,,,,,,,,,,,,,,,,masks/mask_001.jpg,,,,,,,,,,,,,,,,,,,,,,,,,,,,,,,,,,,,,,,,,,,0,2,2,0,1,,,,,,,,,,,,,,,,,,,,,,,,,,,,,,,,,,,,,,,,,,,,,,
706639,001,2022-11-13_23h27.39.771,Info_measure_main_exp,2022.2.2,Win32,144.3626389,,,,,,,,,,,,,,,,,,masks/mask_004.jpg,,,,,,,,,,,,,,,,,,,,,,,,,,,,,,,,,,,,,,,,,,,0,3,3,3,1,,,,,,,,,,,,,,,,,,,,,,,,,,,,,,,,,,,,,,,,,,,,,,
706639,001,2022-11-13_23h27.39.771,Info_measure_main_exp,2022.2.2,Win32,144.3626389,,,,,,,,,,,,,,,,,,masks/mask_005.jpg,,,,,,,,,,,,,,,,,,,,,,,,,,,,,,,,,,,,,,,,,,,0,4,4,4,1,,,,,,,,,,,,,,,,,,,,,,,,,,,,,,,,,,,,,,,,,,,,,,
706639,001,2022-11-13_23h27.39.771,Info_measure_main_exp,2022.2.2,Win32,144.3626389,,,,,,,,,,,,,,,,,,masks/mask_005.jpg,,,,,,,,,,,,,,,,,,,,,,,,,,,,,,,,,,,,,,,,,,,,,,,,0,0,0,4,1,,,,,,,,,,,,,,,,,,,,,,,,,,,,,,,,,,,,,,,,,
706639,001,2022-11-13_23h27.39.771,Info_measure_main_exp,2022.2.2,Win32,144.3626389,,,,,,,,,,,,,,,,,,masks/mask_004.jpg,,,,,,,,,,,,,,,,,,,,,,,,,,,,,,,,,,,,,,,,,,,,,,,,0,1,1,3,1,,,,,,,,,,,,,,,,,,,,,,,,,,,,,,,,,,,,,,,,,
706639,001,2022-11-13_23h27.39.771,Info_measure_main_exp,2022.2.2,Win32,144.3626389,,,,,,,,,,,,,,,,,,masks/mask_003.jpg,,,,,,,,,,,,,,,,,,,,,,,,,,,,,,,,,,,,,,,,,,,,,,,,0,2,2,2,1,,,,,,,,,,,,,,,,,,,,,,,,,,,,,,,,,,,,,,,,,
706639,001,2022-11-13_23h27.39.771,Info_measure_main_exp,2022.2.2,Win32,144.3626389,,,,,,,,,,,,,,,,,,masks/mask_002.jpg,,,,,,,,,,,,,,,,,,,,,,,,,,,,,,,,,,,,,,,,,,,,,,,,0,3,3,1,1,,,,,,,,,,,,,,,,,,,,,,,,,,,,,,,,,,,,,,,,,
706639,001,2022-11-13_23h27.39.771,Info_measure_main_exp,2022.2.2,Win32,144.3626389,,,,,,,,,,,,,,,,,,masks/mask_001.jpg,,,,,,,,,,,,,,,,,,,,,,,,,,,,,,,,,,,,,,,,,,,,,,,,0,4,4,0,1,,,,,,,,,,,,,,,,,,,,,,,,,,,,,,,,,,,,,,,,,
706639,001,2022-11-13_23h27.39.771,Info_measure_main_exp,2022.2.2,Win32,144.3626389,,,,,,,,,,,,,,,,,,,,,,,,,,,,,,4,2.2639,1,,,,,,,,,,,,0,131,5,5,1974,2178,absent_patch/patch0001974.jpg,absent_patch/patch0002178.jpg,,,,,,,,,,,,,,,,,,,,0.02037037,-0.072222222,1,0,0,response3disk,10,-0.010185185,0.002777778,1,0,0,center_square,0,9,9,44,1,,,,,,,,,,,,,,,,,,,,,,,
706639,001,2022-11-13_23h27.39.771,Info_measure_main_exp,2022.2.2,Win32,144.3626389,,,,,,,,,,,,,,,,,,masks/mask_002.jpg,,,,,,,,,,,,,,,,,,,,,,,,,,,,,,,,,,,,,,,,,,,0,0,0,1,1,,,,,,,,,,,,,,,,,,,,,,,,,,,,,,,,,,,,,,,,,,,,,,
706639,001,2022-11-13_23h27.39.771,Info_measure_main_exp,2022.2.2,Win32,144.3626389,,,,,,,,,,,,,,,,,,masks/mask_005.jpg,,,,,,,,,,,,,,,,,,,,,,,,,,,,,,,,,,,,,,,,,,,0,1,1,4,1,,,,,,,,,,,,,,,,,,,,,,,,,,,,,,,,,,,,,,,,,,,,,,
706639,001,2022-11-13_23h27.39.771,Info_measure_main_exp,2022.2.2,Win32,144.3626389,,,,,,,,,,,,,,,,,,masks/mask_003.jpg,,,,,,,,,,,,,,,,,,,,,,,,,,,,,,,,,,,,,,,,,,,0,2,2,2,1,,,,,,,,,,,,,,,,,,,,,,,,,,,,,,,,,,,,,,,,,,,,,,
706639,001,2022-11-13_23h27.39.771,Info_measure_main_exp,2022.2.2,Win32,144.3626389,,,,,,,,,,,,,,,,,,masks/mask_004.jpg,,,,,,,,,,,,,,,,,,,,,,,,,,,,,,,,,,,,,,,,,,,0,3,3,3,1,,,,,,,,,,,,,,,,,,,,,,,,,,,,,,,,,,,,,,,,,,,,,,
706639,001,2022-11-13_23h27.39.771,Info_measure_main_exp,2022.2.2,Win32,144.3626389,,,,,,,,,,,,,,,,,,masks/mask_001.jpg,,,,,,,,,,,,,,,,,,,,,,,,,,,,,,,,,,,,,,,,,,,0,4,4,0,1,,,,,,,,,,,,,,,,,,,,,,,,,,,,,,,,,,,,,,,,,,,,,,
706639,001,2022-11-13_23h27.39.771,Info_measure_main_exp,2022.2.2,Win32,144.3626389,,,,,,,,,,,,,,,,,,masks/mask_005.jpg,,,,,,,,,,,,,,,,,,,,,,,,,,,,,,,,,,,,,,,,,,,,,,,,0,0,0,4,1,,,,,,,,,,,,,,,,,,,,,,,,,,,,,,,,,,,,,,,,,
706639,001,2022-11-13_23h27.39.771,Info_measure_main_exp,2022.2.2,Win32,144.3626389,,,,,,,,,,,,,,,,,,masks/mask_001.jpg,,,,,,,,,,,,,,,,,,,,,,,,,,,,,,,,,,,,,,,,,,,,,,,,0,1,1,0,1,,,,,,,,,,,,,,,,,,,,,,,,,,,,,,,,,,,,,,,,,
706639,001,2022-11-13_23h27.39.771,Info_measure_main_exp,2022.2.2,Win32,144.3626389,,,,,,,,,,,,,,,,,,masks/mask_002.jpg,,,,,,,,,,,,,,,,,,,,,,,,,,,,,,,,,,,,,,,,,,,,,,,,0,2,2,1,1,,,,,,,,,,,,,,,,,,,,,,,,,,,,,,,,,,,,,,,,,
706639,001,2022-11-13_23h27.39.771,Info_measure_main_exp,2022.2.2,Win32,144.3626389,,,,,,,,,,,,,,,,,,masks/mask_004.jpg,,,,,,,,,,,,,,,,,,,,,,,,,,,,,,,,,,,,,,,,,,,,,,,,0,3,3,3,1,,,,,,,,,,,,,,,,,,,,,,,,,,,,,,,,,,,,,,,,,
706639,001,2022-11-13_23h27.39.771,Info_measure_main_exp,2022.2.2,Win32,144.3626389,,,,,,,,,,,,,,,,,,masks/mask_003.jpg,,,,,,,,,,,,,,,,,,,,,,,,,,,,,,,,,,,,,,,,,,,,,,,,0,4,4,2,1,,,,,,,,,,,,,,,,,,,,,,,,,,,,,,,,,,,,,,,,,
706639,001,2022-11-13_23h27.39.771,Info_measure_main_exp,2022.2.2,Win32,144.3626389,,,,,,,,,,,,,,,,,,,,,,,,,,,,,,7,2.7364,1,,,,,,,,,,,,0,131,5,5,2298,2298,absent_patch/patch0002298.jpg,absent_patch/patch0002298.jpg,,,,,,,,,,,,,,,,,,,,0.040740741,0.084259259,1,0,0,response1disk,11,0.00462963,-0.001851852,1,0,0,center_square,0,10,10,37,1,,,,,,,,,,,,,,,,,,,,,,,
706639,001,2022-11-13_23h27.39.771,Info_measure_main_exp,2022.2.2,Win32,144.3626389,,,,,,,,,,,,,,,,,,masks/mask_005.jpg,,,,,,,,,,,,,,,,,,,,,,,,,,,,,,,,,,,,,,,,,,,0,0,0,4,1,,,,,,,,,,,,,,,,,,,,,,,,,,,,,,,,,,,,,,,,,,,,,,
706639,001,2022-11-13_23h27.39.771,Info_measure_main_exp,2022.2.2,Win32,144.3626389,,,,,,,,,,,,,,,,,,masks/mask_002.jpg,,,,,,,,,,,,,,,,,,,,,,,,,,,,,,,,,,,,,,,,,,,0,1,1,1,1,,,,,,,,,,,,,,,,,,,,,,,,,,,,,,,,,,,,,,,,,,,,,,
706639,001,2022-11-13_23h27.39.771,Info_measure_main_exp,2022.2.2,Win32,144.3626389,,,,,,,,,,,,,,,,,,masks/mask_001.jpg,,,,,,,,,,,,,,,,,,,,,,,,,,,,,,,,,,,,,,,,,,,0,2,2,0,1,,,,,,,,,,,,,,,,,,,,,,,,,,,,,,,,,,,,,,,,,,,,,,
706639,001,2022-11-13_23h27.39.771,Info_measure_main_exp,2022.2.2,Win32,144.3626389,,,,,,,,,,,,,,,,,,masks/mask_004.jpg,,,,,,,,,,,,,,,,,,,,,,,,,,,,,,,,,,,,,,,,,,,0,3,3,3,1,,,,,,,,,,,,,,,,,,,,,,,,,,,,,,,,,,,,,,,,,,,,,,
706639,001,2022-11-13_23h27.39.771,Info_measure_main_exp,2022.2.2,Win32,144.3626389,,,,,,,,,,,,,,,,,,masks/mask_003.jpg,,,,,,,,,,,,,,,,,,,,,,,,,,,,,,,,,,,,,,,,,,,0,4,4,2,1,,,,,,,,,,,,,,,,,,,,,,,,,,,,,,,,,,,,,,,,,,,,,,
706639,001,2022-11-13_23h27.39.771,Info_measure_main_exp,2022.2.2,Win32,144.3626389,,,,,,,,,,,,,,,,,,masks/mask_003.jpg,,,,,,,,,,,,,,,,,,,,,,,,,,,,,,,,,,,,,,,,,,,,,,,,0,0,0,2,1,,,,,,,,,,,,,,,,,,,,,,,,,,,,,,,,,,,,,,,,,
706639,001,2022-11-13_23h27.39.771,Info_measure_main_exp,2022.2.2,Win32,144.3626389,,,,,,,,,,,,,,,,,,masks/mask_005.jpg,,,,,,,,,,,,,,,,,,,,,,,,,,,,,,,,,,,,,,,,,,,,,,,,0,1,1,4,1,,,,,,,,,,,,,,,,,,,,,,,,,,,,,,,,,,,,,,,,,
706639,001,2022-11-13_23h27.39.771,Info_measure_main_exp,2022.2.2,Win32,144.3626389,,,,,,,,,,,,,,,,,,masks/mask_002.jpg,,,,,,,,,,,,,,,,,,,,,,,,,,,,,,,,,,,,,,,,,,,,,,,,0,2,2,1,1,,,,,,,,,,,,,,,,,,,,,,,,,,,,,,,,,,,,,,,,,
706639,001,2022-11-13_23h27.39.771,Info_measure_main_exp,2022.2.2,Win32,144.3626389,,,,,,,,,,,,,,,,,,masks/mask_004.jpg,,,,,,,,,,,,,,,,,,,,,,,,,,,,,,,,,,,,,,,,,,,,,,,,0,3,3,3,1,,,,,,,,,,,,,,,,,,,,,,,,,,,,,,,,,,,,,,,,,
706639,001,2022-11-13_23h27.39.771,Info_measure_main_exp,2022.2.2,Win32,144.3626389,,,,,,,,,,,,,,,,,,masks/mask_001.jpg,,,,,,,,,,,,,,,,,,,,,,,,,,,,,,,,,,,,,,,,,,,,,,,,0,4,4,0,1,,,,,,,,,,,,,,,,,,,,,,,,,,,,,,,,,,,,,,,,,
706639,001,2022-11-13_23h27.39.771,Info_measure_main_exp,2022.2.2,Win32,144.3626389,,,,,,,,,,,,,,,,,,,,,,,,,,,,,,4,1.3957,1,,,,,,,,,,,,0,131,5,5,2298,2190,absent_patch/patch0002298.jpg,absent_patch/patch0002190.jpg,,,,,,,,,,,,,,,,,,,,0.02037037,-0.053703704,1,0,0,response3disk,12,-0.000925926,0.008333333,1,0,0,center_square,0,11,11,20,1,,,,,,,,,,,,,,,,,,,,,,,
706639,001,2022-11-13_23h27.39.771,Info_measure_main_exp,2022.2.2,Win32,144.3626389,,,,,,,,,,,,,,,,,,masks/mask_003.jpg,,,,,,,,,,,,,,,,,,,,,,,,,,,,,,,,,,,,,,,,,,,0,0,0,2,1,,,,,,,,,,,,,,,,,,,,,,,,,,,,,,,,,,,,,,,,,,,,,,
706639,001,2022-11-13_23h27.39.771,Info_measure_main_exp,2022.2.2,Win32,144.3626389,,,,,,,,,,,,,,,,,,masks/mask_001.jpg,,,,,,,,,,,,,,,,,,,,,,,,,,,,,,,,,,,,,,,,,,,0,1,1,0,1,,,,,,,,,,,,,,,,,,,,,,,,,,,,,,,,,,,,,,,,,,,,,,
706639,001,2022-11-13_23h27.39.771,Info_measure_main_exp,2022.2.2,Win32,144.3626389,,,,,,,,,,,,,,,,,,masks/mask_004.jpg,,,,,,,,,,,,,,,,,,,,,,,,,,,,,,,,,,,,,,,,,,,0,2,2,3,1,,,,,,,,,,,,,,,,,,,,,,,,,,,,,,,,,,,,,,,,,,,,,,
706639,001,2022-11-13_23h27.39.771,Info_measure_main_exp,2022.2.2,Win32,144.3626389,,,,,,,,,,,,,,,,,,masks/mask_005.jpg,,,,,,,,,,,,,,,,,,,,,,,,,,,,,,,,,,,,,,,,,,,0,3,3,4,1,,,,,,,,,,,,,,,,,,,,,,,,,,,,,,,,,,,,,,,,,,,,,,
706639,001,2022-11-13_23h27.39.771,Info_measure_main_exp,2022.2.2,Win32,144.3626389,,,,,,,,,,,,,,,,,,masks/mask_002.jpg,,,,,,,,,,,,,,,,,,,,,,,,,,,,,,,,,,,,,,,,,,,0,4,4,1,1,,,,,,,,,,,,,,,,,,,,,,,,,,,,,,,,,,,,,,,,,,,,,,
706639,001,2022-11-13_23h27.39.771,Info_measure_main_exp,2022.2.2,Win32,144.3626389,,,,,,,,,,,,,,,,,,masks/mask_001.jpg,,,,,,,,,,,,,,,,,,,,,,,,,,,,,,,,,,,,,,,,,,,,,,,,0,0,0,0,1,,,,,,,,,,,,,,,,,,,,,,,,,,,,,,,,,,,,,,,,,
706639,001,2022-11-13_23h27.39.771,Info_measure_main_exp,2022.2.2,Win32,144.3626389,,,,,,,,,,,,,,,,,,masks/mask_004.jpg,,,,,,,,,,,,,,,,,,,,,,,,,,,,,,,,,,,,,,,,,,,,,,,,0,1,1,3,1,,,,,,,,,,,,,,,,,,,,,,,,,,,,,,,,,,,,,,,,,
706639,001,2022-11-13_23h27.39.771,Info_measure_main_exp,2022.2.2,Win32,144.3626389,,,,,,,,,,,,,,,,,,masks/mask_002.jpg,,,,,,,,,,,,,,,,,,,,,,,,,,,,,,,,,,,,,,,,,,,,,,,,0,2,2,1,1,,,,,,,,,,,,,,,,,,,,,,,,,,,,,,,,,,,,,,,,,
706639,001,2022-11-13_23h27.39.771,Info_measure_main_exp,2022.2.2,Win32,144.3626389,,,,,,,,,,,,,,,,,,masks/mask_005.jpg,,,,,,,,,,,,,,,,,,,,,,,,,,,,,,,,,,,,,,,,,,,,,,,,0,3,3,4,1,,,,,,,,,,,,,,,,,,,,,,,,,,,,,,,,,,,,,,,,,
706639,001,2022-11-13_23h27.39.771,Info_measure_main_exp,2022.2.2,Win32,144.3626389,,,,,,,,,,,,,,,,,,masks/mask_003.jpg,,,,,,,,,,,,,,,,,,,,,,,,,,,,,,,,,,,,,,,,,,,,,,,,0,4,4,2,1,,,,,,,,,,,,,,,,,,,,,,,,,,,,,,,,,,,,,,,,,
706639,001,2022-11-13_23h27.39.771,Info_measure_main_exp,2022.2.2,Win32,144.3626389,,,,,,,,,,,,,,,,,,,,,,,,,,,,,,7,0.7012,1,,,,,,,,,,,,0,131,5,5,2274,2190,absent_patch/patch0002274.jpg,absent_patch/patch0002190.jpg,,,,,,,,,,,,,,,,,,,,0.042592593,0.085185185,1,0,0,response1disk,13,-0.000925926,0,1,0,0,center_square,0,12,12,116,1,,,,,,,,,,,,,,,,,,,,,,,
706639,001,2022-11-13_23h27.39.771,Info_measure_main_exp,2022.2.2,Win32,144.3626389,,,,,,,,,,,,,,,,,,masks/mask_003.jpg,,,,,,,,,,,,,,,,,,,,,,,,,,,,,,,,,,,,,,,,,,,0,0,0,2,1,,,,,,,,,,,,,,,,,,,,,,,,,,,,,,,,,,,,,,,,,,,,,,
706639,001,2022-11-13_23h27.39.771,Info_measure_main_exp,2022.2.2,Win32,144.3626389,,,,,,,,,,,,,,,,,,masks/mask_001.jpg,,,,,,,,,,,,,,,,,,,,,,,,,,,,,,,,,,,,,,,,,,,0,1,1,0,1,,,,,,,,,,,,,,,,,,,,,,,,,,,,,,,,,,,,,,,,,,,,,,
706639,001,2022-11-13_23h27.39.771,Info_measure_main_exp,2022.2.2,Win32,144.3626389,,,,,,,,,,,,,,,,,,masks/mask_002.jpg,,,,,,,,,,,,,,,,,,,,,,,,,,,,,,,,,,,,,,,,,,,0,2,2,1,1,,,,,,,,,,,,,,,,,,,,,,,,,,,,,,,,,,,,,,,,,,,,,,
706639,001,2022-11-13_23h27.39.771,Info_measure_main_exp,2022.2.2,Win32,144.3626389,,,,,,,,,,,,,,,,,,masks/mask_005.jpg,,,,,,,,,,,,,,,,,,,,,,,,,,,,,,,,,,,,,,,,,,,0,3,3,4,1,,,,,,,,,,,,,,,,,,,,,,,,,,,,,,,,,,,,,,,,,,,,,,
706639,001,2022-11-13_23h27.39.771,Info_measure_main_exp,2022.2.2,Win32,144.3626389,,,,,,,,,,,,,,,,,,masks/mask_004.jpg,,,,,,,,,,,,,,,,,,,,,,,,,,,,,,,,,,,,,,,,,,,0,4,4,3,1,,,,,,,,,,,,,,,,,,,,,,,,,,,,,,,,,,,,,,,,,,,,,,
706639,001,2022-11-13_23h27.39.771,Info_measure_main_exp,2022.2.2,Win32,144.3626389,,,,,,,,,,,,,,,,,,masks/mask_001.jpg,,,,,,,,,,,,,,,,,,,,,,,,,,,,,,,,,,,,,,,,,,,,,,,,0,0,0,0,1,,,,,,,,,,,,,,,,,,,,,,,,,,,,,,,,,,,,,,,,,
706639,001,2022-11-13_23h27.39.771,Info_measure_main_exp,2022.2.2,Win32,144.3626389,,,,,,,,,,,,,,,,,,masks/mask_005.jpg,,,,,,,,,,,,,,,,,,,,,,,,,,,,,,,,,,,,,,,,,,,,,,,,0,1,1,4,1,,,,,,,,,,,,,,,,,,,,,,,,,,,,,,,,,,,,,,,,,
706639,001,2022-11-13_23h27.39.771,Info_measure_main_exp,2022.2.2,Win32,144.3626389,,,,,,,,,,,,,,,,,,masks/mask_003.jpg,,,,,,,,,,,,,,,,,,,,,,,,,,,,,,,,,,,,,,,,,,,,,,,,0,2,2,2,1,,,,,,,,,,,,,,,,,,,,,,,,,,,,,,,,,,,,,,,,,
706639,001,2022-11-13_23h27.39.771,Info_measure_main_exp,2022.2.2,Win32,144.3626389,,,,,,,,,,,,,,,,,,masks/mask_002.jpg,,,,,,,,,,,,,,,,,,,,,,,,,,,,,,,,,,,,,,,,,,,,,,,,0,3,3,1,1,,,,,,,,,,,,,,,,,,,,,,,,,,,,,,,,,,,,,,,,,
706639,001,2022-11-13_23h27.39.771,Info_measure_main_exp,2022.2.2,Win32,144.3626389,,,,,,,,,,,,,,,,,,masks/mask_004.jpg,,,,,,,,,,,,,,,,,,,,,,,,,,,,,,,,,,,,,,,,,,,,,,,,0,4,4,3,1,,,,,,,,,,,,,,,,,,,,,,,,,,,,,,,,,,,,,,,,,
706639,001,2022-11-13_23h27.39.771,Info_measure_main_exp,2022.2.2,Win32,144.3626389,,,,,,,,,,,,,,,,,,,,,,,,,,,,,,7,0.4473,1,,,,,,,,,,,,0,131,5,5,2250,2166,absent_patch/patch0002250.jpg,absent_patch/patch0002166.jpg,,,,,,,,,,,,,,,,,,,,0.025925926,0.072222222,1,0,0,response1disk,14,-0.002777778,0.003703704,1,0,0,center_square,0,13,13,60,1,,,,,,,,,,,,,,,,,,,,,,,
706639,001,2022-11-13_23h27.39.771,Info_measure_main_exp,2022.2.2,Win32,144.3626389,,,,,,,,,,,,,,,,,,masks/mask_001.jpg,,,,,,,,,,,,,,,,,,,,,,,,,,,,,,,,,,,,,,,,,,,0,0,0,0,1,,,,,,,,,,,,,,,,,,,,,,,,,,,,,,,,,,,,,,,,,,,,,,
706639,001,2022-11-13_23h27.39.771,Info_measure_main_exp,2022.2.2,Win32,144.3626389,,,,,,,,,,,,,,,,,,masks/mask_002.jpg,,,,,,,,,,,,,,,,,,,,,,,,,,,,,,,,,,,,,,,,,,,0,1,1,1,1,,,,,,,,,,,,,,,,,,,,,,,,,,,,,,,,,,,,,,,,,,,,,,
706639,001,2022-11-13_23h27.39.771,Info_measure_main_exp,2022.2.2,Win32,144.3626389,,,,,,,,,,,,,,,,,,masks/mask_003.jpg,,,,,,,,,,,,,,,,,,,,,,,,,,,,,,,,,,,,,,,,,,,0,2,2,2,1,,,,,,,,,,,,,,,,,,,,,,,,,,,,,,,,,,,,,,,,,,,,,,
706639,001,2022-11-13_23h27.39.771,Info_measure_main_exp,2022.2.2,Win32,144.3626389,,,,,,,,,,,,,,,,,,masks/mask_005.jpg,,,,,,,,,,,,,,,,,,,,,,,,,,,,,,,,,,,,,,,,,,,0,3,3,4,1,,,,,,,,,,,,,,,,,,,,,,,,,,,,,,,,,,,,,,,,,,,,,,
706639,001,2022-11-13_23h27.39.771,Info_measure_main_exp,2022.2.2,Win32,144.3626389,,,,,,,,,,,,,,,,,,masks/mask_004.jpg,,,,,,,,,,,,,,,,,,,,,,,,,,,,,,,,,,,,,,,,,,,0,4,4,3,1,,,,,,,,,,,,,,,,,,,,,,,,,,,,,,,,,,,,,,,,,,,,,,
706639,001,2022-11-13_23h27.39.771,Info_measure_main_exp,2022.2.2,Win32,144.3626389,,,,,,,,,,,,,,,,,,masks/mask_002.jpg,,,,,,,,,,,,,,,,,,,,,,,,,,,,,,,,,,,,,,,,,,,,,,,,0,0,0,1,1,,,,,,,,,,,,,,,,,,,,,,,,,,,,,,,,,,,,,,,,,
706639,001,2022-11-13_23h27.39.771,Info_measure_main_exp,2022.2.2,Win32,144.3626389,,,,,,,,,,,,,,,,,,masks/mask_003.jpg,,,,,,,,,,,,,,,,,,,,,,,,,,,,,,,,,,,,,,,,,,,,,,,,0,1,1,2,1,,,,,,,,,,,,,,,,,,,,,,,,,,,,,,,,,,,,,,,,,
706639,001,2022-11-13_23h27.39.771,Info_measure_main_exp,2022.2.2,Win32,144.3626389,,,,,,,,,,,,,,,,,,masks/mask_005.jpg,,,,,,,,,,,,,,,,,,,,,,,,,,,,,,,,,,,,,,,,,,,,,,,,0,2,2,4,1,,,,,,,,,,,,,,,,,,,,,,,,,,,,,,,,,,,,,,,,,
706639,001,2022-11-13_23h27.39.771,Info_measure_main_exp,2022.2.2,Win32,144.3626389,,,,,,,,,,,,,,,,,,masks/mask_004.jpg,,,,,,,,,,,,,,,,,,,,,,,,,,,,,,,,,,,,,,,,,,,,,,,,0,3,3,3,1,,,,,,,,,,,,,,,,,,,,,,,,,,,,,,,,,,,,,,,,,
706639,001,2022-11-13_23h27.39.771,Info_measure_main_exp,2022.2.2,Win32,144.3626389,,,,,,,,,,,,,,,,,,masks/mask_001.jpg,,,,,,,,,,,,,,,,,,,,,,,,,,,,,,,,,,,,,,,,,,,,,,,,0,4,4,0,1,,,,,,,,,,,,,,,,,,,,,,,,,,,,,,,,,,,,,,,,,
706639,001,2022-11-13_23h27.39.771,Info_measure_main_exp,2022.2.2,Win32,144.3626389,,,,,,,,,,,,,,,,,,,,,,,,,,,,,,7,0.5012,1,,,,,,,,,,,,0,131,5,5,2082,2238,absent_patch/patch0002082.jpg,absent_patch/patch0002238.jpg,,,,,,,,,,,,,,,,,,,,0.044444444,0.084259259,1,0,0,response1disk,15,0.012962963,0.013888889,1,0,0,center_square,0,14,14,22,1,,,,,,,,,,,,,,,,,,,,,,,
706639,001,2022-11-13_23h27.39.771,Info_measure_main_exp,2022.2.2,Win32,144.3626389,,,,,,,,,,,,,,,,,,masks/mask_001.jpg,,,,,,,,,,,,,,,,,,,,,,,,,,,,,,,,,,,,,,,,,,,0,0,0,0,1,,,,,,,,,,,,,,,,,,,,,,,,,,,,,,,,,,,,,,,,,,,,,,
706639,001,2022-11-13_23h27.39.771,Info_measure_main_exp,2022.2.2,Win32,144.3626389,,,,,,,,,,,,,,,,,,masks/mask_005.jpg,,,,,,,,,,,,,,,,,,,,,,,,,,,,,,,,,,,,,,,,,,,0,1,1,4,1,,,,,,,,,,,,,,,,,,,,,,,,,,,,,,,,,,,,,,,,,,,,,,
706639,001,2022-11-13_23h27.39.771,Info_measure_main_exp,2022.2.2,Win32,144.3626389,,,,,,,,,,,,,,,,,,masks/mask_003.jpg,,,,,,,,,,,,,,,,,,,,,,,,,,,,,,,,,,,,,,,,,,,0,2,2,2,1,,,,,,,,,,,,,,,,,,,,,,,,,,,,,,,,,,,,,,,,,,,,,,
706639,001,2022-11-13_23h27.39.771,Info_measure_main_exp,2022.2.2,Win32,144.3626389,,,,,,,,,,,,,,,,,,masks/mask_002.jpg,,,,,,,,,,,,,,,,,,,,,,,,,,,,,,,,,,,,,,,,,,,0,3,3,1,1,,,,,,,,,,,,,,,,,,,,,,,,,,,,,,,,,,,,,,,,,,,,,,
706639,001,2022-11-13_23h27.39.771,Info_measure_main_exp,2022.2.2,Win32,144.3626389,,,,,,,,,,,,,,,,,,masks/mask_004.jpg,,,,,,,,,,,,,,,,,,,,,,,,,,,,,,,,,,,,,,,,,,,0,4,4,3,1,,,,,,,,,,,,,,,,,,,,,,,,,,,,,,,,,,,,,,,,,,,,,,
706639,001,2022-11-13_23h27.39.771,Info_measure_main_exp,2022.2.2,Win32,144.3626389,,,,,,,,,,,,,,,,,,masks/mask_002.jpg,,,,,,,,,,,,,,,,,,,,,,,,,,,,,,,,,,,,,,,,,,,,,,,,0,0,0,1,1,,,,,,,,,,,,,,,,,,,,,,,,,,,,,,,,,,,,,,,,,
706639,001,2022-11-13_23h27.39.771,Info_measure_main_exp,2022.2.2,Win32,144.3626389,,,,,,,,,,,,,,,,,,masks/mask_004.jpg,,,,,,,,,,,,,,,,,,,,,,,,,,,,,,,,,,,,,,,,,,,,,,,,0,1,1,3,1,,,,,,,,,,,,,,,,,,,,,,,,,,,,,,,,,,,,,,,,,
706639,001,2022-11-13_23h27.39.771,Info_measure_main_exp,2022.2.2,Win32,144.3626389,,,,,,,,,,,,,,,,,,masks/mask_003.jpg,,,,,,,,,,,,,,,,,,,,,,,,,,,,,,,,,,,,,,,,,,,,,,,,0,2,2,2,1,,,,,,,,,,,,,,,,,,,,,,,,,,,,,,,,,,,,,,,,,
706639,001,2022-11-13_23h27.39.771,Info_measure_main_exp,2022.2.2,Win32,144.3626389,,,,,,,,,,,,,,,,,,masks/mask_001.jpg,,,,,,,,,,,,,,,,,,,,,,,,,,,,,,,,,,,,,,,,,,,,,,,,0,3,3,0,1,,,,,,,,,,,,,,,,,,,,,,,,,,,,,,,,,,,,,,,,,
706639,001,2022-11-13_23h27.39.771,Info_measure_main_exp,2022.2.2,Win32,144.3626389,,,,,,,,,,,,,,,,,,masks/mask_005.jpg,,,,,,,,,,,,,,,,,,,,,,,,,,,,,,,,,,,,,,,,,,,,,,,,0,4,4,4,1,,,,,,,,,,,,,,,,,,,,,,,,,,,,,,,,,,,,,,,,,
706639,001,2022-11-13_23h27.39.771,Info_measure_main_exp,2022.2.2,Win32,144.3626389,,,,,,,,,,,,,,,,,,,,,,,,,,,,,,7,0.6599,1,,,,,,,,,,,,0,131,5,5,1986,2238,absent_patch/patch0001986.jpg,absent_patch/patch0002238.jpg,,,,,,,,,,,,,,,,,,,,0.026851852,0.090740741,1,0,0,response1disk,16,-0.001851852,0.010185185,1,0,0,center_square,0,15,15,31,1,,,,,,,,,,,,,,,,,,,,,,,
706639,001,2022-11-13_23h27.39.771,Info_measure_main_exp,2022.2.2,Win32,144.3626389,,,,,,,,,,,,,,,,,,masks/mask_004.jpg,,,,,,,,,,,,,,,,,,,,,,,,,,,,,,,,,,,,,,,,,,,0,0,0,3,1,,,,,,,,,,,,,,,,,,,,,,,,,,,,,,,,,,,,,,,,,,,,,,
706639,001,2022-11-13_23h27.39.771,Info_measure_main_exp,2022.2.2,Win32,144.3626389,,,,,,,,,,,,,,,,,,masks/mask_005.jpg,,,,,,,,,,,,,,,,,,,,,,,,,,,,,,,,,,,,,,,,,,,0,1,1,4,1,,,,,,,,,,,,,,,,,,,,,,,,,,,,,,,,,,,,,,,,,,,,,,
706639,001,2022-11-13_23h27.39.771,Info_measure_main_exp,2022.2.2,Win32,144.3626389,,,,,,,,,,,,,,,,,,masks/mask_002.jpg,,,,,,,,,,,,,,,,,,,,,,,,,,,,,,,,,,,,,,,,,,,0,2,2,1,1,,,,,,,,,,,,,,,,,,,,,,,,,,,,,,,,,,,,,,,,,,,,,,
706639,001,2022-11-13_23h27.39.771,Info_measure_main_exp,2022.2.2,Win32,144.3626389,,,,,,,,,,,,,,,,,,masks/mask_003.jpg,,,,,,,,,,,,,,,,,,,,,,,,,,,,,,,,,,,,,,,,,,,0,3,3,2,1,,,,,,,,,,,,,,,,,,,,,,,,,,,,,,,,,,,,,,,,,,,,,,
706639,001,2022-11-13_23h27.39.771,Info_measure_main_exp,2022.2.2,Win32,144.3626389,,,,,,,,,,,,,,,,,,masks/mask_001.jpg,,,,,,,,,,,,,,,,,,,,,,,,,,,,,,,,,,,,,,,,,,,0,4,4,0,1,,,,,,,,,,,,,,,,,,,,,,,,,,,,,,,,,,,,,,,,,,,,,,
706639,001,2022-11-13_23h27.39.771,Info_measure_main_exp,2022.2.2,Win32,144.3626389,,,,,,,,,,,,,,,,,,masks/mask_004.jpg,,,,,,,,,,,,,,,,,,,,,,,,,,,,,,,,,,,,,,,,,,,,,,,,0,0,0,3,1,,,,,,,,,,,,,,,,,,,,,,,,,,,,,,,,,,,,,,,,,
706639,001,2022-11-13_23h27.39.771,Info_measure_main_exp,2022.2.2,Win32,144.3626389,,,,,,,,,,,,,,,,,,masks/mask_003.jpg,,,,,,,,,,,,,,,,,,,,,,,,,,,,,,,,,,,,,,,,,,,,,,,,0,1,1,2,1,,,,,,,,,,,,,,,,,,,,,,,,,,,,,,,,,,,,,,,,,
706639,001,2022-11-13_23h27.39.771,Info_measure_main_exp,2022.2.2,Win32,144.3626389,,,,,,,,,,,,,,,,,,masks/mask_002.jpg,,,,,,,,,,,,,,,,,,,,,,,,,,,,,,,,,,,,,,,,,,,,,,,,0,2,2,1,1,,,,,,,,,,,,,,,,,,,,,,,,,,,,,,,,,,,,,,,,,
706639,001,2022-11-13_23h27.39.771,Info_measure_main_exp,2022.2.2,Win32,144.3626389,,,,,,,,,,,,,,,,,,masks/mask_001.jpg,,,,,,,,,,,,,,,,,,,,,,,,,,,,,,,,,,,,,,,,,,,,,,,,0,3,3,0,1,,,,,,,,,,,,,,,,,,,,,,,,,,,,,,,,,,,,,,,,,
706639,001,2022-11-13_23h27.39.771,Info_measure_main_exp,2022.2.2,Win32,144.3626389,,,,,,,,,,,,,,,,,,masks/mask_005.jpg,,,,,,,,,,,,,,,,,,,,,,,,,,,,,,,,,,,,,,,,,,,,,,,,0,4,4,4,1,,,,,,,,,,,,,,,,,,,,,,,,,,,,,,,,,,,,,,,,,
706639,001,2022-11-13_23h27.39.771,Info_measure_main_exp,2022.2.2,Win32,144.3626389,,,,,,,,,,,,,,,,,,,,,,,,,,,,,,7,0.8888,1,,,,,,,,,,,,0,131,5,5,1986,2142,absent_patch/patch0001986.jpg,absent_patch/patch0002142.jpg,,,,,,,,,,,,,,,,,,,,0.047222222,0.074074074,1,0,0,response1disk,17,-0.00462963,-0.005555556,1,0,0,center_square,0,16,16,76,1,,,,,,,,,,,,,,,,,,,,,,,
706639,001,2022-11-13_23h27.39.771,Info_measure_main_exp,2022.2.2,Win32,144.3626389,,,,,,,,,,,,,,,,,,masks/mask_003.jpg,,,,,,,,,,,,,,,,,,,,,,,,,,,,,,,,,,,,,,,,,,,0,0,0,2,1,,,,,,,,,,,,,,,,,,,,,,,,,,,,,,,,,,,,,,,,,,,,,,
706639,001,2022-11-13_23h27.39.771,Info_measure_main_exp,2022.2.2,Win32,144.3626389,,,,,,,,,,,,,,,,,,masks/mask_005.jpg,,,,,,,,,,,,,,,,,,,,,,,,,,,,,,,,,,,,,,,,,,,0,1,1,4,1,,,,,,,,,,,,,,,,,,,,,,,,,,,,,,,,,,,,,,,,,,,,,,
706639,001,2022-11-13_23h27.39.771,Info_measure_main_exp,2022.2.2,Win32,144.3626389,,,,,,,,,,,,,,,,,,masks/mask_001.jpg,,,,,,,,,,,,,,,,,,,,,,,,,,,,,,,,,,,,,,,,,,,0,2,2,0,1,,,,,,,,,,,,,,,,,,,,,,,,,,,,,,,,,,,,,,,,,,,,,,
706639,001,2022-11-13_23h27.39.771,Info_measure_main_exp,2022.2.2,Win32,144.3626389,,,,,,,,,,,,,,,,,,masks/mask_002.jpg,,,,,,,,,,,,,,,,,,,,,,,,,,,,,,,,,,,,,,,,,,,0,3,3,1,1,,,,,,,,,,,,,,,,,,,,,,,,,,,,,,,,,,,,,,,,,,,,,,
706639,001,2022-11-13_23h27.39.771,Info_measure_main_exp,2022.2.2,Win32,144.3626389,,,,,,,,,,,,,,,,,,masks/mask_004.jpg,,,,,,,,,,,,,,,,,,,,,,,,,,,,,,,,,,,,,,,,,,,0,4,4,3,1,,,,,,,,,,,,,,,,,,,,,,,,,,,,,,,,,,,,,,,,,,,,,,
706639,001,2022-11-13_23h27.39.771,Info_measure_main_exp,2022.2.2,Win32,144.3626389,,,,,,,,,,,,,,,,,,masks/mask_003.jpg,,,,,,,,,,,,,,,,,,,,,,,,,,,,,,,,,,,,,,,,,,,,,,,,0,0,0,2,1,,,,,,,,,,,,,,,,,,,,,,,,,,,,,,,,,,,,,,,,,
706639,001,2022-11-13_23h27.39.771,Info_measure_main_exp,2022.2.2,Win32,144.3626389,,,,,,,,,,,,,,,,,,masks/mask_005.jpg,,,,,,,,,,,,,,,,,,,,,,,,,,,,,,,,,,,,,,,,,,,,,,,,0,1,1,4,1,,,,,,,,,,,,,,,,,,,,,,,,,,,,,,,,,,,,,,,,,
706639,001,2022-11-13_23h27.39.771,Info_measure_main_exp,2022.2.2,Win32,144.3626389,,,,,,,,,,,,,,,,,,masks/mask_004.jpg,,,,,,,,,,,,,,,,,,,,,,,,,,,,,,,,,,,,,,,,,,,,,,,,0,2,2,3,1,,,,,,,,,,,,,,,,,,,,,,,,,,,,,,,,,,,,,,,,,
706639,001,2022-11-13_23h27.39.771,Info_measure_main_exp,2022.2.2,Win32,144.3626389,,,,,,,,,,,,,,,,,,masks/mask_001.jpg,,,,,,,,,,,,,,,,,,,,,,,,,,,,,,,,,,,,,,,,,,,,,,,,0,3,3,0,1,,,,,,,,,,,,,,,,,,,,,,,,,,,,,,,,,,,,,,,,,
706639,001,2022-11-13_23h27.39.771,Info_measure_main_exp,2022.2.2,Win32,144.3626389,,,,,,,,,,,,,,,,,,masks/mask_002.jpg,,,,,,,,,,,,,,,,,,,,,,,,,,,,,,,,,,,,,,,,,,,,,,,,0,4,4,1,1,,,,,,,,,,,,,,,,,,,,,,,,,,,,,,,,,,,,,,,,,
706639,001,2022-11-13_23h27.39.771,Info_measure_main_exp,2022.2.2,Win32,144.3626389,,,,,,,,,,,,,,,,,,,,,,,,,,,,,,7,0.4071,1,,,,,,,,,,,,0,131,5,5,2190,1986,absent_patch/patch0002190.jpg,absent_patch/patch0001986.jpg,,,,,,,,,,,,,,,,,,,,0.061111111,0.107407407,1,0,0,response1disk,18,0.000925926,0.006481481,1,0,0,center_square,0,17,17,111,1,,,,,,,,,,,,,,,,,,,,,,,
706639,001,2022-11-13_23h27.39.771,Info_measure_main_exp,2022.2.2,Win32,144.3626389,,,,,,,,,,,,,,,,,,masks/mask_004.jpg,,,,,,,,,,,,,,,,,,,,,,,,,,,,,,,,,,,,,,,,,,,0,0,0,3,1,,,,,,,,,,,,,,,,,,,,,,,,,,,,,,,,,,,,,,,,,,,,,,
706639,001,2022-11-13_23h27.39.771,Info_measure_main_exp,2022.2.2,Win32,144.3626389,,,,,,,,,,,,,,,,,,masks/mask_003.jpg,,,,,,,,,,,,,,,,,,,,,,,,,,,,,,,,,,,,,,,,,,,0,1,1,2,1,,,,,,,,,,,,,,,,,,,,,,,,,,,,,,,,,,,,,,,,,,,,,,
706639,001,2022-11-13_23h27.39.771,Info_measure_main_exp,2022.2.2,Win32,144.3626389,,,,,,,,,,,,,,,,,,masks/mask_001.jpg,,,,,,,,,,,,,,,,,,,,,,,,,,,,,,,,,,,,,,,,,,,0,2,2,0,1,,,,,,,,,,,,,,,,,,,,,,,,,,,,,,,,,,,,,,,,,,,,,,
706639,001,2022-11-13_23h27.39.771,Info_measure_main_exp,2022.2.2,Win32,144.3626389,,,,,,,,,,,,,,,,,,masks/mask_002.jpg,,,,,,,,,,,,,,,,,,,,,,,,,,,,,,,,,,,,,,,,,,,0,3,3,1,1,,,,,,,,,,,,,,,,,,,,,,,,,,,,,,,,,,,,,,,,,,,,,,
706639,001,2022-11-13_23h27.39.771,Info_measure_main_exp,2022.2.2,Win32,144.3626389,,,,,,,,,,,,,,,,,,masks/mask_005.jpg,,,,,,,,,,,,,,,,,,,,,,,,,,,,,,,,,,,,,,,,,,,0,4,4,4,1,,,,,,,,,,,,,,,,,,,,,,,,,,,,,,,,,,,,,,,,,,,,,,
706639,001,2022-11-13_23h27.39.771,Info_measure_main_exp,2022.2.2,Win32,144.3626389,,,,,,,,,,,,,,,,,,masks/mask_005.jpg,,,,,,,,,,,,,,,,,,,,,,,,,,,,,,,,,,,,,,,,,,,,,,,,0,0,0,4,1,,,,,,,,,,,,,,,,,,,,,,,,,,,,,,,,,,,,,,,,,
706639,001,2022-11-13_23h27.39.771,Info_measure_main_exp,2022.2.2,Win32,144.3626389,,,,,,,,,,,,,,,,,,masks/mask_004.jpg,,,,,,,,,,,,,,,,,,,,,,,,,,,,,,,,,,,,,,,,,,,,,,,,0,1,1,3,1,,,,,,,,,,,,,,,,,,,,,,,,,,,,,,,,,,,,,,,,,
706639,001,2022-11-13_23h27.39.771,Info_measure_main_exp,2022.2.2,Win32,144.3626389,,,,,,,,,,,,,,,,,,masks/mask_001.jpg,,,,,,,,,,,,,,,,,,,,,,,,,,,,,,,,,,,,,,,,,,,,,,,,0,2,2,0,1,,,,,,,,,,,,,,,,,,,,,,,,,,,,,,,,,,,,,,,,,
706639,001,2022-11-13_23h27.39.771,Info_measure_main_exp,2022.2.2,Win32,144.3626389,,,,,,,,,,,,,,,,,,masks/mask_003.jpg,,,,,,,,,,,,,,,,,,,,,,,,,,,,,,,,,,,,,,,,,,,,,,,,0,3,3,2,1,,,,,,,,,,,,,,,,,,,,,,,,,,,,,,,,,,,,,,,,,
706639,001,2022-11-13_23h27.39.771,Info_measure_main_exp,2022.2.2,Win32,144.3626389,,,,,,,,,,,,,,,,,,masks/mask_002.jpg,,,,,,,,,,,,,,,,,,,,,,,,,,,,,,,,,,,,,,,,,,,,,,,,0,4,4,1,1,,,,,,,,,,,,,,,,,,,,,,,,,,,,,,,,,,,,,,,,,
706639,001,2022-11-13_23h27.39.771,Info_measure_main_exp,2022.2.2,Win32,144.3626389,,,,,,,,,,,,,,,,,,,,,,,,,,,,,,7,0.4305,1,,,,,,,,,,,,0,131,5,5,1950,2238,absent_patch/patch0001950.jpg,absent_patch/patch0002238.jpg,,,,,,,,,,,,,,,,,,,,0.052777778,0.09537037,1,0,0,response1disk,19,0.006481481,0.008333333,1,0,0,center_square,0,18,18,8,1,,,,,,,,,,,,,,,,,,,,,,,
706639,001,2022-11-13_23h27.39.771,Info_measure_main_exp,2022.2.2,Win32,144.3626389,,,,,,,,,,,,,,,,,,masks/mask_004.jpg,,,,,,,,,,,,,,,,,,,,,,,,,,,,,,,,,,,,,,,,,,,0,0,0,3,1,,,,,,,,,,,,,,,,,,,,,,,,,,,,,,,,,,,,,,,,,,,,,,
706639,001,2022-11-13_23h27.39.771,Info_measure_main_exp,2022.2.2,Win32,144.3626389,,,,,,,,,,,,,,,,,,masks/mask_002.jpg,,,,,,,,,,,,,,,,,,,,,,,,,,,,,,,,,,,,,,,,,,,0,1,1,1,1,,,,,,,,,,,,,,,,,,,,,,,,,,,,,,,,,,,,,,,,,,,,,,
706639,001,2022-11-13_23h27.39.771,Info_measure_main_exp,2022.2.2,Win32,144.3626389,,,,,,,,,,,,,,,,,,masks/mask_005.jpg,,,,,,,,,,,,,,,,,,,,,,,,,,,,,,,,,,,,,,,,,,,0,2,2,4,1,,,,,,,,,,,,,,,,,,,,,,,,,,,,,,,,,,,,,,,,,,,,,,
706639,001,2022-11-13_23h27.39.771,Info_measure_main_exp,2022.2.2,Win32,144.3626389,,,,,,,,,,,,,,,,,,masks/mask_003.jpg,,,,,,,,,,,,,,,,,,,,,,,,,,,,,,,,,,,,,,,,,,,0,3,3,2,1,,,,,,,,,,,,,,,,,,,,,,,,,,,,,,,,,,,,,,,,,,,,,,
706639,001,2022-11-13_23h27.39.771,Info_measure_main_exp,2022.2.2,Win32,144.3626389,,,,,,,,,,,,,,,,,,masks/mask_001.jpg,,,,,,,,,,,,,,,,,,,,,,,,,,,,,,,,,,,,,,,,,,,0,4,4,0,1,,,,,,,,,,,,,,,,,,,,,,,,,,,,,,,,,,,,,,,,,,,,,,
706639,001,2022-11-13_23h27.39.771,Info_measure_main_exp,2022.2.2,Win32,144.3626389,,,,,,,,,,,,,,,,,,masks/mask_002.jpg,,,,,,,,,,,,,,,,,,,,,,,,,,,,,,,,,,,,,,,,,,,,,,,,0,0,0,1,1,,,,,,,,,,,,,,,,,,,,,,,,,,,,,,,,,,,,,,,,,
706639,001,2022-11-13_23h27.39.771,Info_measure_main_exp,2022.2.2,Win32,144.3626389,,,,,,,,,,,,,,,,,,masks/mask_001.jpg,,,,,,,,,,,,,,,,,,,,,,,,,,,,,,,,,,,,,,,,,,,,,,,,0,1,1,0,1,,,,,,,,,,,,,,,,,,,,,,,,,,,,,,,,,,,,,,,,,
706639,001,2022-11-13_23h27.39.771,Info_measure_main_exp,2022.2.2,Win32,144.3626389,,,,,,,,,,,,,,,,,,masks/mask_005.jpg,,,,,,,,,,,,,,,,,,,,,,,,,,,,,,,,,,,,,,,,,,,,,,,,0,2,2,4,1,,,,,,,,,,,,,,,,,,,,,,,,,,,,,,,,,,,,,,,,,
706639,001,2022-11-13_23h27.39.771,Info_measure_main_exp,2022.2.2,Win32,144.3626389,,,,,,,,,,,,,,,,,,masks/mask_004.jpg,,,,,,,,,,,,,,,,,,,,,,,,,,,,,,,,,,,,,,,,,,,,,,,,0,3,3,3,1,,,,,,,,,,,,,,,,,,,,,,,,,,,,,,,,,,,,,,,,,
706639,001,2022-11-13_23h27.39.771,Info_measure_main_exp,2022.2.2,Win32,144.3626389,,,,,,,,,,,,,,,,,,masks/mask_003.jpg,,,,,,,,,,,,,,,,,,,,,,,,,,,,,,,,,,,,,,,,,,,,,,,,0,4,4,2,1,,,,,,,,,,,,,,,,,,,,,,,,,,,,,,,,,,,,,,,,,
706639,001,2022-11-13_23h27.39.771,Info_measure_main_exp,2022.2.2,Win32,144.3626389,,,,,,,,,,,,,,,,,,,,,,,,,,,,,,7,0.486,1,,,,,,,,,,,,0,131,5,5,2154,2250,absent_patch/patch0002154.jpg,absent_patch/patch0002250.jpg,,,,,,,,,,,,,,,,,,,,0.048148148,0.083333333,1,0,0,response1disk,20,-0.000925926,0.009259259,1,0,0,center_square,0,19,19,108,1,,,,,,,,,,,,,,,,,,,,,,,
706639,001,2022-11-13_23h27.39.771,Info_measure_main_exp,2022.2.2,Win32,144.3626389,,,,,,,,,,,,,,,,,,masks/mask_004.jpg,,,,,,,,,,,,,,,,,,,,,,,,,,,,,,,,,,,,,,,,,,,0,0,0,3,1,,,,,,,,,,,,,,,,,,,,,,,,,,,,,,,,,,,,,,,,,,,,,,
706639,001,2022-11-13_23h27.39.771,Info_measure_main_exp,2022.2.2,Win32,144.3626389,,,,,,,,,,,,,,,,,,masks/mask_002.jpg,,,,,,,,,,,,,,,,,,,,,,,,,,,,,,,,,,,,,,,,,,,0,1,1,1,1,,,,,,,,,,,,,,,,,,,,,,,,,,,,,,,,,,,,,,,,,,,,,,
706639,001,2022-11-13_23h27.39.771,Info_measure_main_exp,2022.2.2,Win32,144.3626389,,,,,,,,,,,,,,,,,,masks/mask_005.jpg,,,,,,,,,,,,,,,,,,,,,,,,,,,,,,,,,,,,,,,,,,,0,2,2,4,1,,,,,,,,,,,,,,,,,,,,,,,,,,,,,,,,,,,,,,,,,,,,,,
706639,001,2022-11-13_23h27.39.771,Info_measure_main_exp,2022.2.2,Win32,144.3626389,,,,,,,,,,,,,,,,,,masks/mask_003.jpg,,,,,,,,,,,,,,,,,,,,,,,,,,,,,,,,,,,,,,,,,,,0,3,3,2,1,,,,,,,,,,,,,,,,,,,,,,,,,,,,,,,,,,,,,,,,,,,,,,
706639,001,2022-11-13_23h27.39.771,Info_measure_main_exp,2022.2.2,Win32,144.3626389,,,,,,,,,,,,,,,,,,masks/mask_001.jpg,,,,,,,,,,,,,,,,,,,,,,,,,,,,,,,,,,,,,,,,,,,0,4,4,0,1,,,,,,,,,,,,,,,,,,,,,,,,,,,,,,,,,,,,,,,,,,,,,,
706639,001,2022-11-13_23h27.39.771,Info_measure_main_exp,2022.2.2,Win32,144.3626389,,,,,,,,,,,,,,,,,,masks/mask_005.jpg,,,,,,,,,,,,,,,,,,,,,,,,,,,,,,,,,,,,,,,,,,,,,,,,0,0,0,4,1,,,,,,,,,,,,,,,,,,,,,,,,,,,,,,,,,,,,,,,,,
706639,001,2022-11-13_23h27.39.771,Info_measure_main_exp,2022.2.2,Win32,144.3626389,,,,,,,,,,,,,,,,,,masks/mask_001.jpg,,,,,,,,,,,,,,,,,,,,,,,,,,,,,,,,,,,,,,,,,,,,,,,,0,1,1,0,1,,,,,,,,,,,,,,,,,,,,,,,,,,,,,,,,,,,,,,,,,
706639,001,2022-11-13_23h27.39.771,Info_measure_main_exp,2022.2.2,Win32,144.3626389,,,,,,,,,,,,,,,,,,masks/mask_002.jpg,,,,,,,,,,,,,,,,,,,,,,,,,,,,,,,,,,,,,,,,,,,,,,,,0,2,2,1,1,,,,,,,,,,,,,,,,,,,,,,,,,,,,,,,,,,,,,,,,,
706639,001,2022-11-13_23h27.39.771,Info_measure_main_exp,2022.2.2,Win32,144.3626389,,,,,,,,,,,,,,,,,,masks/mask_004.jpg,,,,,,,,,,,,,,,,,,,,,,,,,,,,,,,,,,,,,,,,,,,,,,,,0,3,3,3,1,,,,,,,,,,,,,,,,,,,,,,,,,,,,,,,,,,,,,,,,,
706639,001,2022-11-13_23h27.39.771,Info_measure_main_exp,2022.2.2,Win32,144.3626389,,,,,,,,,,,,,,,,,,masks/mask_003.jpg,,,,,,,,,,,,,,,,,,,,,,,,,,,,,,,,,,,,,,,,,,,,,,,,0,4,4,2,1,,,,,,,,,,,,,,,,,,,,,,,,,,,,,,,,,,,,,,,,,
706639,001,2022-11-13_23h27.39.771,Info_measure_main_exp,2022.2.2,Win32,144.3626389,,,,,,,,,,,,,,,,,,,,,,,,,,,,,,7,0.4583,1,,,,,,,,,,,,0,131,5,5,2250,2298,absent_patch/patch0002250.jpg,absent_patch/patch0002298.jpg,,,,,,,,,,,,,,,,,,,,0.018518519,0.047222222,1,0,0,response1disk,21,-0.001851852,0.001851852,1,0,0,center_square,0,20,20,59,1,,,,,,,,,,,,,,,,,,,,,,,
706639,001,2022-11-13_23h27.39.771,Info_measure_main_exp,2022.2.2,Win32,144.3626389,,,,,,,,,,,,,,,,,,masks/mask_002.jpg,,,,,,,,,,,,,,,,,,,,,,,,,,,,,,,,,,,,,,,,,,,0,0,0,1,1,,,,,,,,,,,,,,,,,,,,,,,,,,,,,,,,,,,,,,,,,,,,,,
706639,001,2022-11-13_23h27.39.771,Info_measure_main_exp,2022.2.2,Win32,144.3626389,,,,,,,,,,,,,,,,,,masks/mask_001.jpg,,,,,,,,,,,,,,,,,,,,,,,,,,,,,,,,,,,,,,,,,,,0,1,1,0,1,,,,,,,,,,,,,,,,,,,,,,,,,,,,,,,,,,,,,,,,,,,,,,
706639,001,2022-11-13_23h27.39.771,Info_measure_main_exp,2022.2.2,Win32,144.3626389,,,,,,,,,,,,,,,,,,masks/mask_005.jpg,,,,,,,,,,,,,,,,,,,,,,,,,,,,,,,,,,,,,,,,,,,0,2,2,4,1,,,,,,,,,,,,,,,,,,,,,,,,,,,,,,,,,,,,,,,,,,,,,,
706639,001,2022-11-13_23h27.39.771,Info_measure_main_exp,2022.2.2,Win32,144.3626389,,,,,,,,,,,,,,,,,,masks/mask_003.jpg,,,,,,,,,,,,,,,,,,,,,,,,,,,,,,,,,,,,,,,,,,,0,3,3,2,1,,,,,,,,,,,,,,,,,,,,,,,,,,,,,,,,,,,,,,,,,,,,,,
706639,001,2022-11-13_23h27.39.771,Info_measure_main_exp,2022.2.2,Win32,144.3626389,,,,,,,,,,,,,,,,,,masks/mask_004.jpg,,,,,,,,,,,,,,,,,,,,,,,,,,,,,,,,,,,,,,,,,,,0,4,4,3,1,,,,,,,,,,,,,,,,,,,,,,,,,,,,,,,,,,,,,,,,,,,,,,
706639,001,2022-11-13_23h27.39.771,Info_measure_main_exp,2022.2.2,Win32,144.3626389,,,,,,,,,,,,,,,,,,masks/mask_004.jpg,,,,,,,,,,,,,,,,,,,,,,,,,,,,,,,,,,,,,,,,,,,,,,,,0,0,0,3,1,,,,,,,,,,,,,,,,,,,,,,,,,,,,,,,,,,,,,,,,,
706639,001,2022-11-13_23h27.39.771,Info_measure_main_exp,2022.2.2,Win32,144.3626389,,,,,,,,,,,,,,,,,,masks/mask_005.jpg,,,,,,,,,,,,,,,,,,,,,,,,,,,,,,,,,,,,,,,,,,,,,,,,0,1,1,4,1,,,,,,,,,,,,,,,,,,,,,,,,,,,,,,,,,,,,,,,,,
706639,001,2022-11-13_23h27.39.771,Info_measure_main_exp,2022.2.2,Win32,144.3626389,,,,,,,,,,,,,,,,,,masks/mask_002.jpg,,,,,,,,,,,,,,,,,,,,,,,,,,,,,,,,,,,,,,,,,,,,,,,,0,2,2,1,1,,,,,,,,,,,,,,,,,,,,,,,,,,,,,,,,,,,,,,,,,
706639,001,2022-11-13_23h27.39.771,Info_measure_main_exp,2022.2.2,Win32,144.3626389,,,,,,,,,,,,,,,,,,masks/mask_001.jpg,,,,,,,,,,,,,,,,,,,,,,,,,,,,,,,,,,,,,,,,,,,,,,,,0,3,3,0,1,,,,,,,,,,,,,,,,,,,,,,,,,,,,,,,,,,,,,,,,,
706639,001,2022-11-13_23h27.39.771,Info_measure_main_exp,2022.2.2,Win32,144.3626389,,,,,,,,,,,,,,,,,,masks/mask_003.jpg,,,,,,,,,,,,,,,,,,,,,,,,,,,,,,,,,,,,,,,,,,,,,,,,0,4,4,2,1,,,,,,,,,,,,,,,,,,,,,,,,,,,,,,,,,,,,,,,,,
706639,001,2022-11-13_23h27.39.771,Info_measure_main_exp,2022.2.2,Win32,144.3626389,,,,,,,,,,,,,,,,,,,,,,,,,,,,,,7,0.557,1,,,,,,,,,,,,0,131,5,5,2154,2214,absent_patch/patch0002154.jpg,absent_patch/patch0002214.jpg,,,,,,,,,,,,,,,,,,,,0.009259259,0.02037037,1,0,0,response1disk,22,0.005555556,0.003703704,1,0,0,center_square,0,21,21,67,1,,,,,,,,,,,,,,,,,,,,,,,
706639,001,2022-11-13_23h27.39.771,Info_measure_main_exp,2022.2.2,Win32,144.3626389,,,,,,,,,,,,,,,,,,masks/mask_003.jpg,,,,,,,,,,,,,,,,,,,,,,,,,,,,,,,,,,,,,,,,,,,0,0,0,2,1,,,,,,,,,,,,,,,,,,,,,,,,,,,,,,,,,,,,,,,,,,,,,,
706639,001,2022-11-13_23h27.39.771,Info_measure_main_exp,2022.2.2,Win32,144.3626389,,,,,,,,,,,,,,,,,,masks/mask_005.jpg,,,,,,,,,,,,,,,,,,,,,,,,,,,,,,,,,,,,,,,,,,,0,1,1,4,1,,,,,,,,,,,,,,,,,,,,,,,,,,,,,,,,,,,,,,,,,,,,,,
706639,001,2022-11-13_23h27.39.771,Info_measure_main_exp,2022.2.2,Win32,144.3626389,,,,,,,,,,,,,,,,,,masks/mask_001.jpg,,,,,,,,,,,,,,,,,,,,,,,,,,,,,,,,,,,,,,,,,,,0,2,2,0,1,,,,,,,,,,,,,,,,,,,,,,,,,,,,,,,,,,,,,,,,,,,,,,
706639,001,2022-11-13_23h27.39.771,Info_measure_main_exp,2022.2.2,Win32,144.3626389,,,,,,,,,,,,,,,,,,masks/mask_002.jpg,,,,,,,,,,,,,,,,,,,,,,,,,,,,,,,,,,,,,,,,,,,0,3,3,1,1,,,,,,,,,,,,,,,,,,,,,,,,,,,,,,,,,,,,,,,,,,,,,,
706639,001,2022-11-13_23h27.39.771,Info_measure_main_exp,2022.2.2,Win32,144.3626389,,,,,,,,,,,,,,,,,,masks/mask_004.jpg,,,,,,,,,,,,,,,,,,,,,,,,,,,,,,,,,,,,,,,,,,,0,4,4,3,1,,,,,,,,,,,,,,,,,,,,,,,,,,,,,,,,,,,,,,,,,,,,,,
706639,001,2022-11-13_23h27.39.771,Info_measure_main_exp,2022.2.2,Win32,144.3626389,,,,,,,,,,,,,,,,,,masks/mask_003.jpg,,,,,,,,,,,,,,,,,,,,,,,,,,,,,,,,,,,,,,,,,,,,,,,,0,0,0,2,1,,,,,,,,,,,,,,,,,,,,,,,,,,,,,,,,,,,,,,,,,
706639,001,2022-11-13_23h27.39.771,Info_measure_main_exp,2022.2.2,Win32,144.3626389,,,,,,,,,,,,,,,,,,masks/mask_004.jpg,,,,,,,,,,,,,,,,,,,,,,,,,,,,,,,,,,,,,,,,,,,,,,,,0,1,1,3,1,,,,,,,,,,,,,,,,,,,,,,,,,,,,,,,,,,,,,,,,,
706639,001,2022-11-13_23h27.39.771,Info_measure_main_exp,2022.2.2,Win32,144.3626389,,,,,,,,,,,,,,,,,,masks/mask_001.jpg,,,,,,,,,,,,,,,,,,,,,,,,,,,,,,,,,,,,,,,,,,,,,,,,0,2,2,0,1,,,,,,,,,,,,,,,,,,,,,,,,,,,,,,,,,,,,,,,,,
706639,001,2022-11-13_23h27.39.771,Info_measure_main_exp,2022.2.2,Win32,144.3626389,,,,,,,,,,,,,,,,,,masks/mask_002.jpg,,,,,,,,,,,,,,,,,,,,,,,,,,,,,,,,,,,,,,,,,,,,,,,,0,3,3,1,1,,,,,,,,,,,,,,,,,,,,,,,,,,,,,,,,,,,,,,,,,
706639,001,2022-11-13_23h27.39.771,Info_measure_main_exp,2022.2.2,Win32,144.3626389,,,,,,,,,,,,,,,,,,masks/mask_005.jpg,,,,,,,,,,,,,,,,,,,,,,,,,,,,,,,,,,,,,,,,,,,,,,,,0,4,4,4,1,,,,,,,,,,,,,,,,,,,,,,,,,,,,,,,,,,,,,,,,,
706639,001,2022-11-13_23h27.39.771,Info_measure_main_exp,2022.2.2,Win32,144.3626389,,,,,,,,,,,,,,,,,,,,,,,,,,,,,,0,0.5277,1,,,,,,,,,,,,0,131,5,5,2142,2142,absent_patch/patch0002142.jpg,absent_patch/patch0002142.jpg,,,,,,,,,,,,,,,,,,,,-0.053703704,0.082407407,1,0,0,response7disk,23,-0.000925926,-0.001851852,1,0,0,center_square,0,22,22,13,1,,,,,,,,,,,,,,,,,,,,,,,
706639,001,2022-11-13_23h27.39.771,Info_measure_main_exp,2022.2.2,Win32,144.3626389,,,,,,,,,,,,,,,,,,masks/mask_002.jpg,,,,,,,,,,,,,,,,,,,,,,,,,,,,,,,,,,,,,,,,,,,0,0,0,1,1,,,,,,,,,,,,,,,,,,,,,,,,,,,,,,,,,,,,,,,,,,,,,,
706639,001,2022-11-13_23h27.39.771,Info_measure_main_exp,2022.2.2,Win32,144.3626389,,,,,,,,,,,,,,,,,,masks/mask_005.jpg,,,,,,,,,,,,,,,,,,,,,,,,,,,,,,,,,,,,,,,,,,,0,1,1,4,1,,,,,,,,,,,,,,,,,,,,,,,,,,,,,,,,,,,,,,,,,,,,,,
706639,001,2022-11-13_23h27.39.771,Info_measure_main_exp,2022.2.2,Win32,144.3626389,,,,,,,,,,,,,,,,,,masks/mask_001.jpg,,,,,,,,,,,,,,,,,,,,,,,,,,,,,,,,,,,,,,,,,,,0,2,2,0,1,,,,,,,,,,,,,,,,,,,,,,,,,,,,,,,,,,,,,,,,,,,,,,
706639,001,2022-11-13_23h27.39.771,Info_measure_main_exp,2022.2.2,Win32,144.3626389,,,,,,,,,,,,,,,,,,masks/mask_004.jpg,,,,,,,,,,,,,,,,,,,,,,,,,,,,,,,,,,,,,,,,,,,0,3,3,3,1,,,,,,,,,,,,,,,,,,,,,,,,,,,,,,,,,,,,,,,,,,,,,,
706639,001,2022-11-13_23h27.39.771,Info_measure_main_exp,2022.2.2,Win32,144.3626389,,,,,,,,,,,,,,,,,,masks/mask_003.jpg,,,,,,,,,,,,,,,,,,,,,,,,,,,,,,,,,,,,,,,,,,,0,4,4,2,1,,,,,,,,,,,,,,,,,,,,,,,,,,,,,,,,,,,,,,,,,,,,,,
706639,001,2022-11-13_23h27.39.771,Info_measure_main_exp,2022.2.2,Win32,144.3626389,,,,,,,,,,,,,,,,,,masks/mask_001.jpg,,,,,,,,,,,,,,,,,,,,,,,,,,,,,,,,,,,,,,,,,,,,,,,,0,0,0,0,1,,,,,,,,,,,,,,,,,,,,,,,,,,,,,,,,,,,,,,,,,
706639,001,2022-11-13_23h27.39.771,Info_measure_main_exp,2022.2.2,Win32,144.3626389,,,,,,,,,,,,,,,,,,masks/mask_005.jpg,,,,,,,,,,,,,,,,,,,,,,,,,,,,,,,,,,,,,,,,,,,,,,,,0,1,1,4,1,,,,,,,,,,,,,,,,,,,,,,,,,,,,,,,,,,,,,,,,,
706639,001,2022-11-13_23h27.39.771,Info_measure_main_exp,2022.2.2,Win32,144.3626389,,,,,,,,,,,,,,,,,,masks/mask_004.jpg,,,,,,,,,,,,,,,,,,,,,,,,,,,,,,,,,,,,,,,,,,,,,,,,0,2,2,3,1,,,,,,,,,,,,,,,,,,,,,,,,,,,,,,,,,,,,,,,,,
706639,001,2022-11-13_23h27.39.771,Info_measure_main_exp,2022.2.2,Win32,144.3626389,,,,,,,,,,,,,,,,,,masks/mask_002.jpg,,,,,,,,,,,,,,,,,,,,,,,,,,,,,,,,,,,,,,,,,,,,,,,,0,3,3,1,1,,,,,,,,,,,,,,,,,,,,,,,,,,,,,,,,,,,,,,,,,
706639,001,2022-11-13_23h27.39.771,Info_measure_main_exp,2022.2.2,Win32,144.3626389,,,,,,,,,,,,,,,,,,masks/mask_003.jpg,,,,,,,,,,,,,,,,,,,,,,,,,,,,,,,,,,,,,,,,,,,,,,,,0,4,4,2,1,,,,,,,,,,,,,,,,,,,,,,,,,,,,,,,,,,,,,,,,,
706639,001,2022-11-13_23h27.39.771,Info_measure_main_exp,2022.2.2,Win32,144.3626389,,,,,,,,,,,,,,,,,,,,,,,,,,,,,,7,0.419,1,,,,,,,,,,,,0,131,5,5,2214,2166,absent_patch/patch0002214.jpg,absent_patch/patch0002166.jpg,,,,,,,,,,,,,,,,,,,,0.036111111,0.076851852,1,0,0,response1disk,24,0.002777778,0.009259259,1,0,0,center_square,0,23,23,109,1,,,,,,,,,,,,,,,,,,,,,,,
706639,001,2022-11-13_23h27.39.771,Info_measure_main_exp,2022.2.2,Win32,144.3626389,,,,,,,,,,,,,,,,,,masks/mask_005.jpg,,,,,,,,,,,,,,,,,,,,,,,,,,,,,,,,,,,,,,,,,,,0,0,0,4,1,,,,,,,,,,,,,,,,,,,,,,,,,,,,,,,,,,,,,,,,,,,,,,
706639,001,2022-11-13_23h27.39.771,Info_measure_main_exp,2022.2.2,Win32,144.3626389,,,,,,,,,,,,,,,,,,masks/mask_003.jpg,,,,,,,,,,,,,,,,,,,,,,,,,,,,,,,,,,,,,,,,,,,0,1,1,2,1,,,,,,,,,,,,,,,,,,,,,,,,,,,,,,,,,,,,,,,,,,,,,,
706639,001,2022-11-13_23h27.39.771,Info_measure_main_exp,2022.2.2,Win32,144.3626389,,,,,,,,,,,,,,,,,,masks/mask_004.jpg,,,,,,,,,,,,,,,,,,,,,,,,,,,,,,,,,,,,,,,,,,,0,2,2,3,1,,,,,,,,,,,,,,,,,,,,,,,,,,,,,,,,,,,,,,,,,,,,,,
706639,001,2022-11-13_23h27.39.771,Info_measure_main_exp,2022.2.2,Win32,144.3626389,,,,,,,,,,,,,,,,,,masks/mask_001.jpg,,,,,,,,,,,,,,,,,,,,,,,,,,,,,,,,,,,,,,,,,,,0,3,3,0,1,,,,,,,,,,,,,,,,,,,,,,,,,,,,,,,,,,,,,,,,,,,,,,
706639,001,2022-11-13_23h27.39.771,Info_measure_main_exp,2022.2.2,Win32,144.3626389,,,,,,,,,,,,,,,,,,masks/mask_002.jpg,,,,,,,,,,,,,,,,,,,,,,,,,,,,,,,,,,,,,,,,,,,0,4,4,1,1,,,,,,,,,,,,,,,,,,,,,,,,,,,,,,,,,,,,,,,,,,,,,,
706639,001,2022-11-13_23h27.39.771,Info_measure_main_exp,2022.2.2,Win32,144.3626389,,,,,,,,,,,,,,,,,,masks/mask_004.jpg,,,,,,,,,,,,,,,,,,,,,,,,,,,,,,,,,,,,,,,,,,,,,,,,0,0,0,3,1,,,,,,,,,,,,,,,,,,,,,,,,,,,,,,,,,,,,,,,,,
706639,001,2022-11-13_23h27.39.771,Info_measure_main_exp,2022.2.2,Win32,144.3626389,,,,,,,,,,,,,,,,,,masks/mask_002.jpg,,,,,,,,,,,,,,,,,,,,,,,,,,,,,,,,,,,,,,,,,,,,,,,,0,1,1,1,1,,,,,,,,,,,,,,,,,,,,,,,,,,,,,,,,,,,,,,,,,
706639,001,2022-11-13_23h27.39.771,Info_measure_main_exp,2022.2.2,Win32,144.3626389,,,,,,,,,,,,,,,,,,masks/mask_005.jpg,,,,,,,,,,,,,,,,,,,,,,,,,,,,,,,,,,,,,,,,,,,,,,,,0,2,2,4,1,,,,,,,,,,,,,,,,,,,,,,,,,,,,,,,,,,,,,,,,,
706639,001,2022-11-13_23h27.39.771,Info_measure_main_exp,2022.2.2,Win32,144.3626389,,,,,,,,,,,,,,,,,,masks/mask_003.jpg,,,,,,,,,,,,,,,,,,,,,,,,,,,,,,,,,,,,,,,,,,,,,,,,0,3,3,2,1,,,,,,,,,,,,,,,,,,,,,,,,,,,,,,,,,,,,,,,,,
706639,001,2022-11-13_23h27.39.771,Info_measure_main_exp,2022.2.2,Win32,144.3626389,,,,,,,,,,,,,,,,,,masks/mask_001.jpg,,,,,,,,,,,,,,,,,,,,,,,,,,,,,,,,,,,,,,,,,,,,,,,,0,4,4,0,1,,,,,,,,,,,,,,,,,,,,,,,,,,,,,,,,,,,,,,,,,
706639,001,2022-11-13_23h27.39.771,Info_measure_main_exp,2022.2.2,Win32,144.3626389,,,,,,,,,,,,,,,,,,,,,,,,,,,,,,7,0.3829,1,,,,,,,,,,,,1,131,5,5,2250,1,absent_patch/patch0002250.jpg,present_patch/cong_131_5_a.jpg,,,,,,,,,,,,,,,,,,,,0.037037037,0.056481481,1,0,0,response1disk,25,0.000925926,0.005555556,1,0,0,center_square,0,24,24,5,1,,,,,,,,,,,,,,,,,,,,,,,
706639,001,2022-11-13_23h27.39.771,Info_measure_main_exp,2022.2.2,Win32,144.3626389,,,,,,,,,,,,,,,,,,masks/mask_005.jpg,,,,,,,,,,,,,,,,,,,,,,,,,,,,,,,,,,,,,,,,,,,0,0,0,4,1,,,,,,,,,,,,,,,,,,,,,,,,,,,,,,,,,,,,,,,,,,,,,,
706639,001,2022-11-13_23h27.39.771,Info_measure_main_exp,2022.2.2,Win32,144.3626389,,,,,,,,,,,,,,,,,,masks/mask_004.jpg,,,,,,,,,,,,,,,,,,,,,,,,,,,,,,,,,,,,,,,,,,,0,1,1,3,1,,,,,,,,,,,,,,,,,,,,,,,,,,,,,,,,,,,,,,,,,,,,,,
706639,001,2022-11-13_23h27.39.771,Info_measure_main_exp,2022.2.2,Win32,144.3626389,,,,,,,,,,,,,,,,,,masks/mask_003.jpg,,,,,,,,,,,,,,,,,,,,,,,,,,,,,,,,,,,,,,,,,,,0,2,2,2,1,,,,,,,,,,,,,,,,,,,,,,,,,,,,,,,,,,,,,,,,,,,,,,
706639,001,2022-11-13_23h27.39.771,Info_measure_main_exp,2022.2.2,Win32,144.3626389,,,,,,,,,,,,,,,,,,masks/mask_001.jpg,,,,,,,,,,,,,,,,,,,,,,,,,,,,,,,,,,,,,,,,,,,0,3,3,0,1,,,,,,,,,,,,,,,,,,,,,,,,,,,,,,,,,,,,,,,,,,,,,,
706639,001,2022-11-13_23h27.39.771,Info_measure_main_exp,2022.2.2,Win32,144.3626389,,,,,,,,,,,,,,,,,,masks/mask_002.jpg,,,,,,,,,,,,,,,,,,,,,,,,,,,,,,,,,,,,,,,,,,,0,4,4,1,1,,,,,,,,,,,,,,,,,,,,,,,,,,,,,,,,,,,,,,,,,,,,,,
706639,001,2022-11-13_23h27.39.771,Info_measure_main_exp,2022.2.2,Win32,144.3626389,,,,,,,,,,,,,,,,,,masks/mask_003.jpg,,,,,,,,,,,,,,,,,,,,,,,,,,,,,,,,,,,,,,,,,,,,,,,,0,0,0,2,1,,,,,,,,,,,,,,,,,,,,,,,,,,,,,,,,,,,,,,,,,
706639,001,2022-11-13_23h27.39.771,Info_measure_main_exp,2022.2.2,Win32,144.3626389,,,,,,,,,,,,,,,,,,masks/mask_001.jpg,,,,,,,,,,,,,,,,,,,,,,,,,,,,,,,,,,,,,,,,,,,,,,,,0,1,1,0,1,,,,,,,,,,,,,,,,,,,,,,,,,,,,,,,,,,,,,,,,,
706639,001,2022-11-13_23h27.39.771,Info_measure_main_exp,2022.2.2,Win32,144.3626389,,,,,,,,,,,,,,,,,,masks/mask_005.jpg,,,,,,,,,,,,,,,,,,,,,,,,,,,,,,,,,,,,,,,,,,,,,,,,0,2,2,4,1,,,,,,,,,,,,,,,,,,,,,,,,,,,,,,,,,,,,,,,,,
706639,001,2022-11-13_23h27.39.771,Info_measure_main_exp,2022.2.2,Win32,144.3626389,,,,,,,,,,,,,,,,,,masks/mask_002.jpg,,,,,,,,,,,,,,,,,,,,,,,,,,,,,,,,,,,,,,,,,,,,,,,,0,3,3,1,1,,,,,,,,,,,,,,,,,,,,,,,,,,,,,,,,,,,,,,,,,
706639,001,2022-11-13_23h27.39.771,Info_measure_main_exp,2022.2.2,Win32,144.3626389,,,,,,,,,,,,,,,,,,masks/mask_004.jpg,,,,,,,,,,,,,,,,,,,,,,,,,,,,,,,,,,,,,,,,,,,,,,,,0,4,4,3,1,,,,,,,,,,,,,,,,,,,,,,,,,,,,,,,,,,,,,,,,,
706639,001,2022-11-13_23h27.39.771,Info_measure_main_exp,2022.2.2,Win32,144.3626389,,,,,,,,,,,,,,,,,,,,,,,,,,,,,,3,0.8888,1,,,,,,,,,,,,0,131,5,5,1974,1950,absent_patch/patch0001974.jpg,absent_patch/patch0001950.jpg,,,,,,,,,,,,,,,,,,,,-0.015740741,-0.023148148,1,0,0,response5disk,26,0.002777778,0.011111111,1,0,0,center_square,0,25,25,17,1,,,,,,,,,,,,,,,,,,,,,,,
706639,001,2022-11-13_23h27.39.771,Info_measure_main_exp,2022.2.2,Win32,144.3626389,,,,,,,,,,,,,,,,,,masks/mask_001.jpg,,,,,,,,,,,,,,,,,,,,,,,,,,,,,,,,,,,,,,,,,,,0,0,0,0,1,,,,,,,,,,,,,,,,,,,,,,,,,,,,,,,,,,,,,,,,,,,,,,
706639,001,2022-11-13_23h27.39.771,Info_measure_main_exp,2022.2.2,Win32,144.3626389,,,,,,,,,,,,,,,,,,masks/mask_005.jpg,,,,,,,,,,,,,,,,,,,,,,,,,,,,,,,,,,,,,,,,,,,0,1,1,4,1,,,,,,,,,,,,,,,,,,,,,,,,,,,,,,,,,,,,,,,,,,,,,,
706639,001,2022-11-13_23h27.39.771,Info_measure_main_exp,2022.2.2,Win32,144.3626389,,,,,,,,,,,,,,,,,,masks/mask_004.jpg,,,,,,,,,,,,,,,,,,,,,,,,,,,,,,,,,,,,,,,,,,,0,2,2,3,1,,,,,,,,,,,,,,,,,,,,,,,,,,,,,,,,,,,,,,,,,,,,,,
706639,001,2022-11-13_23h27.39.771,Info_measure_main_exp,2022.2.2,Win32,144.3626389,,,,,,,,,,,,,,,,,,masks/mask_002.jpg,,,,,,,,,,,,,,,,,,,,,,,,,,,,,,,,,,,,,,,,,,,0,3,3,1,1,,,,,,,,,,,,,,,,,,,,,,,,,,,,,,,,,,,,,,,,,,,,,,
706639,001,2022-11-13_23h27.39.771,Info_measure_main_exp,2022.2.2,Win32,144.3626389,,,,,,,,,,,,,,,,,,masks/mask_003.jpg,,,,,,,,,,,,,,,,,,,,,,,,,,,,,,,,,,,,,,,,,,,0,4,4,2,1,,,,,,,,,,,,,,,,,,,,,,,,,,,,,,,,,,,,,,,,,,,,,,
706639,001,2022-11-13_23h27.39.771,Info_measure_main_exp,2022.2.2,Win32,144.3626389,,,,,,,,,,,,,,,,,,masks/mask_004.jpg,,,,,,,,,,,,,,,,,,,,,,,,,,,,,,,,,,,,,,,,,,,,,,,,0,0,0,3,1,,,,,,,,,,,,,,,,,,,,,,,,,,,,,,,,,,,,,,,,,
706639,001,2022-11-13_23h27.39.771,Info_measure_main_exp,2022.2.2,Win32,144.3626389,,,,,,,,,,,,,,,,,,masks/mask_001.jpg,,,,,,,,,,,,,,,,,,,,,,,,,,,,,,,,,,,,,,,,,,,,,,,,0,1,1,0,1,,,,,,,,,,,,,,,,,,,,,,,,,,,,,,,,,,,,,,,,,
706639,001,2022-11-13_23h27.39.771,Info_measure_main_exp,2022.2.2,Win32,144.3626389,,,,,,,,,,,,,,,,,,masks/mask_002.jpg,,,,,,,,,,,,,,,,,,,,,,,,,,,,,,,,,,,,,,,,,,,,,,,,0,2,2,1,1,,,,,,,,,,,,,,,,,,,,,,,,,,,,,,,,,,,,,,,,,
706639,001,2022-11-13_23h27.39.771,Info_measure_main_exp,2022.2.2,Win32,144.3626389,,,,,,,,,,,,,,,,,,masks/mask_003.jpg,,,,,,,,,,,,,,,,,,,,,,,,,,,,,,,,,,,,,,,,,,,,,,,,0,3,3,2,1,,,,,,,,,,,,,,,,,,,,,,,,,,,,,,,,,,,,,,,,,
706639,001,2022-11-13_23h27.39.771,Info_measure_main_exp,2022.2.2,Win32,144.3626389,,,,,,,,,,,,,,,,,,masks/mask_005.jpg,,,,,,,,,,,,,,,,,,,,,,,,,,,,,,,,,,,,,,,,,,,,,,,,0,4,4,4,1,,,,,,,,,,,,,,,,,,,,,,,,,,,,,,,,,,,,,,,,,
706639,001,2022-11-13_23h27.39.771,Info_measure_main_exp,2022.2.2,Win32,144.3626389,,,,,,,,,,,,,,,,,,,,,,,,,,,,,,7,0.6249,1,,,,,,,,,,,,0,131,5,5,2250,2142,absent_patch/patch0002250.jpg,absent_patch/patch0002142.jpg,,,,,,,,,,,,,,,,,,,,0.041666667,0.092592593,1,0,0,response1disk,27,0.003703704,0.011111111,1,0,0,center_square,0,26,26,71,1,,,,,,,,,,,,,,,,,,,,,,,
706639,001,2022-11-13_23h27.39.771,Info_measure_main_exp,2022.2.2,Win32,144.3626389,,,,,,,,,,,,,,,,,,masks/mask_003.jpg,,,,,,,,,,,,,,,,,,,,,,,,,,,,,,,,,,,,,,,,,,,0,0,0,2,1,,,,,,,,,,,,,,,,,,,,,,,,,,,,,,,,,,,,,,,,,,,,,,
706639,001,2022-11-13_23h27.39.771,Info_measure_main_exp,2022.2.2,Win32,144.3626389,,,,,,,,,,,,,,,,,,masks/mask_002.jpg,,,,,,,,,,,,,,,,,,,,,,,,,,,,,,,,,,,,,,,,,,,0,1,1,1,1,,,,,,,,,,,,,,,,,,,,,,,,,,,,,,,,,,,,,,,,,,,,,,
706639,001,2022-11-13_23h27.39.771,Info_measure_main_exp,2022.2.2,Win32,144.3626389,,,,,,,,,,,,,,,,,,masks/mask_005.jpg,,,,,,,,,,,,,,,,,,,,,,,,,,,,,,,,,,,,,,,,,,,0,2,2,4,1,,,,,,,,,,,,,,,,,,,,,,,,,,,,,,,,,,,,,,,,,,,,,,
706639,001,2022-11-13_23h27.39.771,Info_measure_main_exp,2022.2.2,Win32,144.3626389,,,,,,,,,,,,,,,,,,masks/mask_004.jpg,,,,,,,,,,,,,,,,,,,,,,,,,,,,,,,,,,,,,,,,,,,0,3,3,3,1,,,,,,,,,,,,,,,,,,,,,,,,,,,,,,,,,,,,,,,,,,,,,,
706639,001,2022-11-13_23h27.39.771,Info_measure_main_exp,2022.2.2,Win32,144.3626389,,,,,,,,,,,,,,,,,,masks/mask_001.jpg,,,,,,,,,,,,,,,,,,,,,,,,,,,,,,,,,,,,,,,,,,,0,4,4,0,1,,,,,,,,,,,,,,,,,,,,,,,,,,,,,,,,,,,,,,,,,,,,,,
706639,001,2022-11-13_23h27.39.771,Info_measure_main_exp,2022.2.2,Win32,144.3626389,,,,,,,,,,,,,,,,,,masks/mask_002.jpg,,,,,,,,,,,,,,,,,,,,,,,,,,,,,,,,,,,,,,,,,,,,,,,,0,0,0,1,1,,,,,,,,,,,,,,,,,,,,,,,,,,,,,,,,,,,,,,,,,
706639,001,2022-11-13_23h27.39.771,Info_measure_main_exp,2022.2.2,Win32,144.3626389,,,,,,,,,,,,,,,,,,masks/mask_005.jpg,,,,,,,,,,,,,,,,,,,,,,,,,,,,,,,,,,,,,,,,,,,,,,,,0,1,1,4,1,,,,,,,,,,,,,,,,,,,,,,,,,,,,,,,,,,,,,,,,,
706639,001,2022-11-13_23h27.39.771,Info_measure_main_exp,2022.2.2,Win32,144.3626389,,,,,,,,,,,,,,,,,,masks/mask_003.jpg,,,,,,,,,,,,,,,,,,,,,,,,,,,,,,,,,,,,,,,,,,,,,,,,0,2,2,2,1,,,,,,,,,,,,,,,,,,,,,,,,,,,,,,,,,,,,,,,,,
706639,001,2022-11-13_23h27.39.771,Info_measure_main_exp,2022.2.2,Win32,144.3626389,,,,,,,,,,,,,,,,,,masks/mask_004.jpg,,,,,,,,,,,,,,,,,,,,,,,,,,,,,,,,,,,,,,,,,,,,,,,,0,3,3,3,1,,,,,,,,,,,,,,,,,,,,,,,,,,,,,,,,,,,,,,,,,
706639,001,2022-11-13_23h27.39.771,Info_measure_main_exp,2022.2.2,Win32,144.3626389,,,,,,,,,,,,,,,,,,masks/mask_001.jpg,,,,,,,,,,,,,,,,,,,,,,,,,,,,,,,,,,,,,,,,,,,,,,,,0,4,4,0,1,,,,,,,,,,,,,,,,,,,,,,,,,,,,,,,,,,,,,,,,,
706639,001,2022-11-13_23h27.39.771,Info_measure_main_exp,2022.2.2,Win32,144.3626389,,,,,,,,,,,,,,,,,,,,,,,,,,,,,,7,0.3681,1,,,,,,,,,,,,0,131,5,5,2274,2142,absent_patch/patch0002274.jpg,absent_patch/patch0002142.jpg,,,,,,,,,,,,,,,,,,,,0.035185185,0.075925926,1,0,0,response1disk,28,0.007407407,0.012037037,1,0,0,center_square,0,27,27,75,1,,,,,,,,,,,,,,,,,,,,,,,
706639,001,2022-11-13_23h27.39.771,Info_measure_main_exp,2022.2.2,Win32,144.3626389,,,,,,,,,,,,,,,,,,masks/mask_004.jpg,,,,,,,,,,,,,,,,,,,,,,,,,,,,,,,,,,,,,,,,,,,0,0,0,3,1,,,,,,,,,,,,,,,,,,,,,,,,,,,,,,,,,,,,,,,,,,,,,,
706639,001,2022-11-13_23h27.39.771,Info_measure_main_exp,2022.2.2,Win32,144.3626389,,,,,,,,,,,,,,,,,,masks/mask_001.jpg,,,,,,,,,,,,,,,,,,,,,,,,,,,,,,,,,,,,,,,,,,,0,1,1,0,1,,,,,,,,,,,,,,,,,,,,,,,,,,,,,,,,,,,,,,,,,,,,,,
706639,001,2022-11-13_23h27.39.771,Info_measure_main_exp,2022.2.2,Win32,144.3626389,,,,,,,,,,,,,,,,,,masks/mask_003.jpg,,,,,,,,,,,,,,,,,,,,,,,,,,,,,,,,,,,,,,,,,,,0,2,2,2,1,,,,,,,,,,,,,,,,,,,,,,,,,,,,,,,,,,,,,,,,,,,,,,
706639,001,2022-11-13_23h27.39.771,Info_measure_main_exp,2022.2.2,Win32,144.3626389,,,,,,,,,,,,,,,,,,masks/mask_005.jpg,,,,,,,,,,,,,,,,,,,,,,,,,,,,,,,,,,,,,,,,,,,0,3,3,4,1,,,,,,,,,,,,,,,,,,,,,,,,,,,,,,,,,,,,,,,,,,,,,,
706639,001,2022-11-13_23h27.39.771,Info_measure_main_exp,2022.2.2,Win32,144.3626389,,,,,,,,,,,,,,,,,,masks/mask_002.jpg,,,,,,,,,,,,,,,,,,,,,,,,,,,,,,,,,,,,,,,,,,,0,4,4,1,1,,,,,,,,,,,,,,,,,,,,,,,,,,,,,,,,,,,,,,,,,,,,,,
706639,001,2022-11-13_23h27.39.771,Info_measure_main_exp,2022.2.2,Win32,144.3626389,,,,,,,,,,,,,,,,,,masks/mask_002.jpg,,,,,,,,,,,,,,,,,,,,,,,,,,,,,,,,,,,,,,,,,,,,,,,,0,0,0,1,1,,,,,,,,,,,,,,,,,,,,,,,,,,,,,,,,,,,,,,,,,
706639,001,2022-11-13_23h27.39.771,Info_measure_main_exp,2022.2.2,Win32,144.3626389,,,,,,,,,,,,,,,,,,masks/mask_001.jpg,,,,,,,,,,,,,,,,,,,,,,,,,,,,,,,,,,,,,,,,,,,,,,,,0,1,1,0,1,,,,,,,,,,,,,,,,,,,,,,,,,,,,,,,,,,,,,,,,,
706639,001,2022-11-13_23h27.39.771,Info_measure_main_exp,2022.2.2,Win32,144.3626389,,,,,,,,,,,,,,,,,,masks/mask_003.jpg,,,,,,,,,,,,,,,,,,,,,,,,,,,,,,,,,,,,,,,,,,,,,,,,0,2,2,2,1,,,,,,,,,,,,,,,,,,,,,,,,,,,,,,,,,,,,,,,,,
706639,001,2022-11-13_23h27.39.771,Info_measure_main_exp,2022.2.2,Win32,144.3626389,,,,,,,,,,,,,,,,,,masks/mask_005.jpg,,,,,,,,,,,,,,,,,,,,,,,,,,,,,,,,,,,,,,,,,,,,,,,,0,3,3,4,1,,,,,,,,,,,,,,,,,,,,,,,,,,,,,,,,,,,,,,,,,
706639,001,2022-11-13_23h27.39.771,Info_measure_main_exp,2022.2.2,Win32,144.3626389,,,,,,,,,,,,,,,,,,masks/mask_004.jpg,,,,,,,,,,,,,,,,,,,,,,,,,,,,,,,,,,,,,,,,,,,,,,,,0,4,4,3,1,,,,,,,,,,,,,,,,,,,,,,,,,,,,,,,,,,,,,,,,,
706639,001,2022-11-13_23h27.39.771,Info_measure_main_exp,2022.2.2,Win32,144.3626389,,,,,,,,,,,,,,,,,,,,,,,,,,,,,,0,0.4721,1,,,,,,,,,,,,0,131,5,5,2214,2214,absent_patch/patch0002214.jpg,absent_patch/patch0002214.jpg,,,,,,,,,,,,,,,,,,,,-0.037037037,0.083333333,1,0,0,response7disk,29,-0.008333333,0.012037037,1,0,0,center_square,0,28,28,115,1,,,,,,,,,,,,,,,,,,,,,,,
706639,001,2022-11-13_23h27.39.771,Info_measure_main_exp,2022.2.2,Win32,144.3626389,,,,,,,,,,,,,,,,,,masks/mask_003.jpg,,,,,,,,,,,,,,,,,,,,,,,,,,,,,,,,,,,,,,,,,,,0,0,0,2,1,,,,,,,,,,,,,,,,,,,,,,,,,,,,,,,,,,,,,,,,,,,,,,
706639,001,2022-11-13_23h27.39.771,Info_measure_main_exp,2022.2.2,Win32,144.3626389,,,,,,,,,,,,,,,,,,masks/mask_005.jpg,,,,,,,,,,,,,,,,,,,,,,,,,,,,,,,,,,,,,,,,,,,0,1,1,4,1,,,,,,,,,,,,,,,,,,,,,,,,,,,,,,,,,,,,,,,,,,,,,,
706639,001,2022-11-13_23h27.39.771,Info_measure_main_exp,2022.2.2,Win32,144.3626389,,,,,,,,,,,,,,,,,,masks/mask_002.jpg,,,,,,,,,,,,,,,,,,,,,,,,,,,,,,,,,,,,,,,,,,,0,2,2,1,1,,,,,,,,,,,,,,,,,,,,,,,,,,,,,,,,,,,,,,,,,,,,,,
706639,001,2022-11-13_23h27.39.771,Info_measure_main_exp,2022.2.2,Win32,144.3626389,,,,,,,,,,,,,,,,,,masks/mask_004.jpg,,,,,,,,,,,,,,,,,,,,,,,,,,,,,,,,,,,,,,,,,,,0,3,3,3,1,,,,,,,,,,,,,,,,,,,,,,,,,,,,,,,,,,,,,,,,,,,,,,
706639,001,2022-11-13_23h27.39.771,Info_measure_main_exp,2022.2.2,Win32,144.3626389,,,,,,,,,,,,,,,,,,masks/mask_001.jpg,,,,,,,,,,,,,,,,,,,,,,,,,,,,,,,,,,,,,,,,,,,0,4,4,0,1,,,,,,,,,,,,,,,,,,,,,,,,,,,,,,,,,,,,,,,,,,,,,,
706639,001,2022-11-13_23h27.39.771,Info_measure_main_exp,2022.2.2,Win32,144.3626389,,,,,,,,,,,,,,,,,,masks/mask_001.jpg,,,,,,,,,,,,,,,,,,,,,,,,,,,,,,,,,,,,,,,,,,,,,,,,0,0,0,0,1,,,,,,,,,,,,,,,,,,,,,,,,,,,,,,,,,,,,,,,,,
706639,001,2022-11-13_23h27.39.771,Info_measure_main_exp,2022.2.2,Win32,144.3626389,,,,,,,,,,,,,,,,,,masks/mask_003.jpg,,,,,,,,,,,,,,,,,,,,,,,,,,,,,,,,,,,,,,,,,,,,,,,,0,1,1,2,1,,,,,,,,,,,,,,,,,,,,,,,,,,,,,,,,,,,,,,,,,
706639,001,2022-11-13_23h27.39.771,Info_measure_main_exp,2022.2.2,Win32,144.3626389,,,,,,,,,,,,,,,,,,masks/mask_005.jpg,,,,,,,,,,,,,,,,,,,,,,,,,,,,,,,,,,,,,,,,,,,,,,,,0,2,2,4,1,,,,,,,,,,,,,,,,,,,,,,,,,,,,,,,,,,,,,,,,,
706639,001,2022-11-13_23h27.39.771,Info_measure_main_exp,2022.2.2,Win32,144.3626389,,,,,,,,,,,,,,,,,,masks/mask_002.jpg,,,,,,,,,,,,,,,,,,,,,,,,,,,,,,,,,,,,,,,,,,,,,,,,0,3,3,1,1,,,,,,,,,,,,,,,,,,,,,,,,,,,,,,,,,,,,,,,,,
706639,001,2022-11-13_23h27.39.771,Info_measure_main_exp,2022.2.2,Win32,144.3626389,,,,,,,,,,,,,,,,,,masks/mask_004.jpg,,,,,,,,,,,,,,,,,,,,,,,,,,,,,,,,,,,,,,,,,,,,,,,,0,4,4,3,1,,,,,,,,,,,,,,,,,,,,,,,,,,,,,,,,,,,,,,,,,
706639,001,2022-11-13_23h27.39.771,Info_measure_main_exp,2022.2.2,Win32,144.3626389,,,,,,,,,,,,,,,,,,,,,,,,,,,,,,7,1.0696,1,,,,,,,,,,,,0,131,5,5,2274,2082,absent_patch/patch0002274.jpg,absent_patch/patch0002082.jpg,,,,,,,,,,,,,,,,,,,,0.043518519,0.071296296,1,0,0,response1disk,30,0.005555556,0.012037037,1,0,0,center_square,0,29,29,100,1,,,,,,,,,,,,,,,,,,,,,,,
706639,001,2022-11-13_23h27.39.771,Info_measure_main_exp,2022.2.2,Win32,144.3626389,,,,,,,,,,,,,,,,,,masks/mask_003.jpg,,,,,,,,,,,,,,,,,,,,,,,,,,,,,,,,,,,,,,,,,,,0,0,0,2,1,,,,,,,,,,,,,,,,,,,,,,,,,,,,,,,,,,,,,,,,,,,,,,
706639,001,2022-11-13_23h27.39.771,Info_measure_main_exp,2022.2.2,Win32,144.3626389,,,,,,,,,,,,,,,,,,masks/mask_004.jpg,,,,,,,,,,,,,,,,,,,,,,,,,,,,,,,,,,,,,,,,,,,0,1,1,3,1,,,,,,,,,,,,,,,,,,,,,,,,,,,,,,,,,,,,,,,,,,,,,,
706639,001,2022-11-13_23h27.39.771,Info_measure_main_exp,2022.2.2,Win32,144.3626389,,,,,,,,,,,,,,,,,,masks/mask_001.jpg,,,,,,,,,,,,,,,,,,,,,,,,,,,,,,,,,,,,,,,,,,,0,2,2,0,1,,,,,,,,,,,,,,,,,,,,,,,,,,,,,,,,,,,,,,,,,,,,,,
706639,001,2022-11-13_23h27.39.771,Info_measure_main_exp,2022.2.2,Win32,144.3626389,,,,,,,,,,,,,,,,,,masks/mask_002.jpg,,,,,,,,,,,,,,,,,,,,,,,,,,,,,,,,,,,,,,,,,,,0,3,3,1,1,,,,,,,,,,,,,,,,,,,,,,,,,,,,,,,,,,,,,,,,,,,,,,
706639,001,2022-11-13_23h27.39.771,Info_measure_main_exp,2022.2.2,Win32,144.3626389,,,,,,,,,,,,,,,,,,masks/mask_005.jpg,,,,,,,,,,,,,,,,,,,,,,,,,,,,,,,,,,,,,,,,,,,0,4,4,4,1,,,,,,,,,,,,,,,,,,,,,,,,,,,,,,,,,,,,,,,,,,,,,,
706639,001,2022-11-13_23h27.39.771,Info_measure_main_exp,2022.2.2,Win32,144.3626389,,,,,,,,,,,,,,,,,,masks/mask_005.jpg,,,,,,,,,,,,,,,,,,,,,,,,,,,,,,,,,,,,,,,,,,,,,,,,0,0,0,4,1,,,,,,,,,,,,,,,,,,,,,,,,,,,,,,,,,,,,,,,,,
706639,001,2022-11-13_23h27.39.771,Info_measure_main_exp,2022.2.2,Win32,144.3626389,,,,,,,,,,,,,,,,,,masks/mask_003.jpg,,,,,,,,,,,,,,,,,,,,,,,,,,,,,,,,,,,,,,,,,,,,,,,,0,1,1,2,1,,,,,,,,,,,,,,,,,,,,,,,,,,,,,,,,,,,,,,,,,
706639,001,2022-11-13_23h27.39.771,Info_measure_main_exp,2022.2.2,Win32,144.3626389,,,,,,,,,,,,,,,,,,masks/mask_001.jpg,,,,,,,,,,,,,,,,,,,,,,,,,,,,,,,,,,,,,,,,,,,,,,,,0,2,2,0,1,,,,,,,,,,,,,,,,,,,,,,,,,,,,,,,,,,,,,,,,,
706639,001,2022-11-13_23h27.39.771,Info_measure_main_exp,2022.2.2,Win32,144.3626389,,,,,,,,,,,,,,,,,,masks/mask_002.jpg,,,,,,,,,,,,,,,,,,,,,,,,,,,,,,,,,,,,,,,,,,,,,,,,0,3,3,1,1,,,,,,,,,,,,,,,,,,,,,,,,,,,,,,,,,,,,,,,,,
706639,001,2022-11-13_23h27.39.771,Info_measure_main_exp,2022.2.2,Win32,144.3626389,,,,,,,,,,,,,,,,,,masks/mask_004.jpg,,,,,,,,,,,,,,,,,,,,,,,,,,,,,,,,,,,,,,,,,,,,,,,,0,4,4,3,1,,,,,,,,,,,,,,,,,,,,,,,,,,,,,,,,,,,,,,,,,
706639,001,2022-11-13_23h27.39.771,Info_measure_main_exp,2022.2.2,Win32,144.3626389,,,,,,,,,,,,,,,,,,,,,,,,,,,,,,7,1.5481,1,,,,,,,,,,,,0,131,5,5,1986,2274,absent_patch/patch0001986.jpg,absent_patch/patch0002274.jpg,,,,,,,,,,,,,,,,,,,,0.023148148,0.07037037,1,0,0,response1disk,31,0.005555556,0.005555556,1,0,0,center_square,0,30,30,7,1,,,,,,,,,,,,,,,,,,,,,,,
706639,001,2022-11-13_23h27.39.771,Info_measure_main_exp,2022.2.2,Win32,144.3626389,,,,,,,,,,,,,,,,,,masks/mask_004.jpg,,,,,,,,,,,,,,,,,,,,,,,,,,,,,,,,,,,,,,,,,,,0,0,0,3,1,,,,,,,,,,,,,,,,,,,,,,,,,,,,,,,,,,,,,,,,,,,,,,
706639,001,2022-11-13_23h27.39.771,Info_measure_main_exp,2022.2.2,Win32,144.3626389,,,,,,,,,,,,,,,,,,masks/mask_001.jpg,,,,,,,,,,,,,,,,,,,,,,,,,,,,,,,,,,,,,,,,,,,0,1,1,0,1,,,,,,,,,,,,,,,,,,,,,,,,,,,,,,,,,,,,,,,,,,,,,,
706639,001,2022-11-13_23h27.39.771,Info_measure_main_exp,2022.2.2,Win32,144.3626389,,,,,,,,,,,,,,,,,,masks/mask_003.jpg,,,,,,,,,,,,,,,,,,,,,,,,,,,,,,,,,,,,,,,,,,,0,2,2,2,1,,,,,,,,,,,,,,,,,,,,,,,,,,,,,,,,,,,,,,,,,,,,,,
706639,001,2022-11-13_23h27.39.771,Info_measure_main_exp,2022.2.2,Win32,144.3626389,,,,,,,,,,,,,,,,,,masks/mask_002.jpg,,,,,,,,,,,,,,,,,,,,,,,,,,,,,,,,,,,,,,,,,,,0,3,3,1,1,,,,,,,,,,,,,,,,,,,,,,,,,,,,,,,,,,,,,,,,,,,,,,
706639,001,2022-11-13_23h27.39.771,Info_measure_main_exp,2022.2.2,Win32,144.3626389,,,,,,,,,,,,,,,,,,masks/mask_005.jpg,,,,,,,,,,,,,,,,,,,,,,,,,,,,,,,,,,,,,,,,,,,0,4,4,4,1,,,,,,,,,,,,,,,,,,,,,,,,,,,,,,,,,,,,,,,,,,,,,,
706639,001,2022-11-13_23h27.39.771,Info_measure_main_exp,2022.2.2,Win32,144.3626389,,,,,,,,,,,,,,,,,,masks/mask_005.jpg,,,,,,,,,,,,,,,,,,,,,,,,,,,,,,,,,,,,,,,,,,,,,,,,0,0,0,4,1,,,,,,,,,,,,,,,,,,,,,,,,,,,,,,,,,,,,,,,,,
706639,001,2022-11-13_23h27.39.771,Info_measure_main_exp,2022.2.2,Win32,144.3626389,,,,,,,,,,,,,,,,,,masks/mask_003.jpg,,,,,,,,,,,,,,,,,,,,,,,,,,,,,,,,,,,,,,,,,,,,,,,,0,1,1,2,1,,,,,,,,,,,,,,,,,,,,,,,,,,,,,,,,,,,,,,,,,
706639,001,2022-11-13_23h27.39.771,Info_measure_main_exp,2022.2.2,Win32,144.3626389,,,,,,,,,,,,,,,,,,masks/mask_001.jpg,,,,,,,,,,,,,,,,,,,,,,,,,,,,,,,,,,,,,,,,,,,,,,,,0,2,2,0,1,,,,,,,,,,,,,,,,,,,,,,,,,,,,,,,,,,,,,,,,,
706639,001,2022-11-13_23h27.39.771,Info_measure_main_exp,2022.2.2,Win32,144.3626389,,,,,,,,,,,,,,,,,,masks/mask_004.jpg,,,,,,,,,,,,,,,,,,,,,,,,,,,,,,,,,,,,,,,,,,,,,,,,0,3,3,3,1,,,,,,,,,,,,,,,,,,,,,,,,,,,,,,,,,,,,,,,,,
706639,001,2022-11-13_23h27.39.771,Info_measure_main_exp,2022.2.2,Win32,144.3626389,,,,,,,,,,,,,,,,,,masks/mask_002.jpg,,,,,,,,,,,,,,,,,,,,,,,,,,,,,,,,,,,,,,,,,,,,,,,,0,4,4,1,1,,,,,,,,,,,,,,,,,,,,,,,,,,,,,,,,,,,,,,,,,
706639,001,2022-11-13_23h27.39.771,Info_measure_main_exp,2022.2.2,Win32,144.3626389,,,,,,,,,,,,,,,,,,,,,,,,,,,,,,7,0.3777,1,,,,,,,,,,,,0,131,5,5,2082,2154,absent_patch/patch0002082.jpg,absent_patch/patch0002154.jpg,,,,,,,,,,,,,,,,,,,,0.022222222,0.077777778,1,0,0,response1disk,32,-0.006481481,0.013888889,1,0,0,center_square,0,31,31,33,1,,,,,,,,,,,,,,,,,,,,,,,
706639,001,2022-11-13_23h27.39.771,Info_measure_main_exp,2022.2.2,Win32,144.3626389,,,,,,,,,,,,,,,,,,masks/mask_002.jpg,,,,,,,,,,,,,,,,,,,,,,,,,,,,,,,,,,,,,,,,,,,0,0,0,1,1,,,,,,,,,,,,,,,,,,,,,,,,,,,,,,,,,,,,,,,,,,,,,,
706639,001,2022-11-13_23h27.39.771,Info_measure_main_exp,2022.2.2,Win32,144.3626389,,,,,,,,,,,,,,,,,,masks/mask_004.jpg,,,,,,,,,,,,,,,,,,,,,,,,,,,,,,,,,,,,,,,,,,,0,1,1,3,1,,,,,,,,,,,,,,,,,,,,,,,,,,,,,,,,,,,,,,,,,,,,,,
706639,001,2022-11-13_23h27.39.771,Info_measure_main_exp,2022.2.2,Win32,144.3626389,,,,,,,,,,,,,,,,,,masks/mask_003.jpg,,,,,,,,,,,,,,,,,,,,,,,,,,,,,,,,,,,,,,,,,,,0,2,2,2,1,,,,,,,,,,,,,,,,,,,,,,,,,,,,,,,,,,,,,,,,,,,,,,
706639,001,2022-11-13_23h27.39.771,Info_measure_main_exp,2022.2.2,Win32,144.3626389,,,,,,,,,,,,,,,,,,masks/mask_005.jpg,,,,,,,,,,,,,,,,,,,,,,,,,,,,,,,,,,,,,,,,,,,0,3,3,4,1,,,,,,,,,,,,,,,,,,,,,,,,,,,,,,,,,,,,,,,,,,,,,,
706639,001,2022-11-13_23h27.39.771,Info_measure_main_exp,2022.2.2,Win32,144.3626389,,,,,,,,,,,,,,,,,,masks/mask_001.jpg,,,,,,,,,,,,,,,,,,,,,,,,,,,,,,,,,,,,,,,,,,,0,4,4,0,1,,,,,,,,,,,,,,,,,,,,,,,,,,,,,,,,,,,,,,,,,,,,,,
706639,001,2022-11-13_23h27.39.771,Info_measure_main_exp,2022.2.2,Win32,144.3626389,,,,,,,,,,,,,,,,,,masks/mask_002.jpg,,,,,,,,,,,,,,,,,,,,,,,,,,,,,,,,,,,,,,,,,,,,,,,,0,0,0,1,1,,,,,,,,,,,,,,,,,,,,,,,,,,,,,,,,,,,,,,,,,
706639,001,2022-11-13_23h27.39.771,Info_measure_main_exp,2022.2.2,Win32,144.3626389,,,,,,,,,,,,,,,,,,masks/mask_004.jpg,,,,,,,,,,,,,,,,,,,,,,,,,,,,,,,,,,,,,,,,,,,,,,,,0,1,1,3,1,,,,,,,,,,,,,,,,,,,,,,,,,,,,,,,,,,,,,,,,,
706639,001,2022-11-13_23h27.39.771,Info_measure_main_exp,2022.2.2,Win32,144.3626389,,,,,,,,,,,,,,,,,,masks/mask_001.jpg,,,,,,,,,,,,,,,,,,,,,,,,,,,,,,,,,,,,,,,,,,,,,,,,0,2,2,0,1,,,,,,,,,,,,,,,,,,,,,,,,,,,,,,,,,,,,,,,,,
706639,001,2022-11-13_23h27.39.771,Info_measure_main_exp,2022.2.2,Win32,144.3626389,,,,,,,,,,,,,,,,,,masks/mask_005.jpg,,,,,,,,,,,,,,,,,,,,,,,,,,,,,,,,,,,,,,,,,,,,,,,,0,3,3,4,1,,,,,,,,,,,,,,,,,,,,,,,,,,,,,,,,,,,,,,,,,
706639,001,2022-11-13_23h27.39.771,Info_measure_main_exp,2022.2.2,Win32,144.3626389,,,,,,,,,,,,,,,,,,masks/mask_003.jpg,,,,,,,,,,,,,,,,,,,,,,,,,,,,,,,,,,,,,,,,,,,,,,,,0,4,4,2,1,,,,,,,,,,,,,,,,,,,,,,,,,,,,,,,,,,,,,,,,,
706639,001,2022-11-13_23h27.39.771,Info_measure_main_exp,2022.2.2,Win32,144.3626389,,,,,,,,,,,,,,,,,,,,,,,,,,,,,,7,0.4352,1,,,,,,,,,,,,0,131,5,5,2274,2178,absent_patch/patch0002274.jpg,absent_patch/patch0002178.jpg,,,,,,,,,,,,,,,,,,,,0.031481481,0.056481481,1,0,0,response1disk,33,0.007407407,-0.005555556,1,0,0,center_square,0,32,32,117,1,,,,,,,,,,,,,,,,,,,,,,,
706639,001,2022-11-13_23h27.39.771,Info_measure_main_exp,2022.2.2,Win32,144.3626389,,,,,,,,,,,,,,,,,,masks/mask_005.jpg,,,,,,,,,,,,,,,,,,,,,,,,,,,,,,,,,,,,,,,,,,,0,0,0,4,1,,,,,,,,,,,,,,,,,,,,,,,,,,,,,,,,,,,,,,,,,,,,,,
706639,001,2022-11-13_23h27.39.771,Info_measure_main_exp,2022.2.2,Win32,144.3626389,,,,,,,,,,,,,,,,,,masks/mask_002.jpg,,,,,,,,,,,,,,,,,,,,,,,,,,,,,,,,,,,,,,,,,,,0,1,1,1,1,,,,,,,,,,,,,,,,,,,,,,,,,,,,,,,,,,,,,,,,,,,,,,
706639,001,2022-11-13_23h27.39.771,Info_measure_main_exp,2022.2.2,Win32,144.3626389,,,,,,,,,,,,,,,,,,masks/mask_003.jpg,,,,,,,,,,,,,,,,,,,,,,,,,,,,,,,,,,,,,,,,,,,0,2,2,2,1,,,,,,,,,,,,,,,,,,,,,,,,,,,,,,,,,,,,,,,,,,,,,,
706639,001,2022-11-13_23h27.39.771,Info_measure_main_exp,2022.2.2,Win32,144.3626389,,,,,,,,,,,,,,,,,,masks/mask_001.jpg,,,,,,,,,,,,,,,,,,,,,,,,,,,,,,,,,,,,,,,,,,,0,3,3,0,1,,,,,,,,,,,,,,,,,,,,,,,,,,,,,,,,,,,,,,,,,,,,,,
706639,001,2022-11-13_23h27.39.771,Info_measure_main_exp,2022.2.2,Win32,144.3626389,,,,,,,,,,,,,,,,,,masks/mask_004.jpg,,,,,,,,,,,,,,,,,,,,,,,,,,,,,,,,,,,,,,,,,,,0,4,4,3,1,,,,,,,,,,,,,,,,,,,,,,,,,,,,,,,,,,,,,,,,,,,,,,
706639,001,2022-11-13_23h27.39.771,Info_measure_main_exp,2022.2.2,Win32,144.3626389,,,,,,,,,,,,,,,,,,masks/mask_001.jpg,,,,,,,,,,,,,,,,,,,,,,,,,,,,,,,,,,,,,,,,,,,,,,,,0,0,0,0,1,,,,,,,,,,,,,,,,,,,,,,,,,,,,,,,,,,,,,,,,,
706639,001,2022-11-13_23h27.39.771,Info_measure_main_exp,2022.2.2,Win32,144.3626389,,,,,,,,,,,,,,,,,,masks/mask_002.jpg,,,,,,,,,,,,,,,,,,,,,,,,,,,,,,,,,,,,,,,,,,,,,,,,0,1,1,1,1,,,,,,,,,,,,,,,,,,,,,,,,,,,,,,,,,,,,,,,,,
706639,001,2022-11-13_23h27.39.771,Info_measure_main_exp,2022.2.2,Win32,144.3626389,,,,,,,,,,,,,,,,,,masks/mask_004.jpg,,,,,,,,,,,,,,,,,,,,,,,,,,,,,,,,,,,,,,,,,,,,,,,,0,2,2,3,1,,,,,,,,,,,,,,,,,,,,,,,,,,,,,,,,,,,,,,,,,
706639,001,2022-11-13_23h27.39.771,Info_measure_main_exp,2022.2.2,Win32,144.3626389,,,,,,,,,,,,,,,,,,masks/mask_005.jpg,,,,,,,,,,,,,,,,,,,,,,,,,,,,,,,,,,,,,,,,,,,,,,,,0,3,3,4,1,,,,,,,,,,,,,,,,,,,,,,,,,,,,,,,,,,,,,,,,,
706639,001,2022-11-13_23h27.39.771,Info_measure_main_exp,2022.2.2,Win32,144.3626389,,,,,,,,,,,,,,,,,,masks/mask_003.jpg,,,,,,,,,,,,,,,,,,,,,,,,,,,,,,,,,,,,,,,,,,,,,,,,0,4,4,2,1,,,,,,,,,,,,,,,,,,,,,,,,,,,,,,,,,,,,,,,,,
706639,001,2022-11-13_23h27.39.771,Info_measure_main_exp,2022.2.2,Win32,144.3626389,,,,,,,,,,,,,,,,,,,,,,,,,,,,,,7,0.2917,1,,,,,,,,,,,,0,131,5,5,1986,1950,absent_patch/patch0001986.jpg,absent_patch/patch0001950.jpg,,,,,,,,,,,,,,,,,,,,0.048148148,0.062037037,1,0,0,response1disk,34,-0.006481481,-0.00462963,1,0,0,center_square,0,33,33,15,1,,,,,,,,,,,,,,,,,,,,,,,
706639,001,2022-11-13_23h27.39.771,Info_measure_main_exp,2022.2.2,Win32,144.3626389,,,,,,,,,,,,,,,,,,masks/mask_005.jpg,,,,,,,,,,,,,,,,,,,,,,,,,,,,,,,,,,,,,,,,,,,0,0,0,4,1,,,,,,,,,,,,,,,,,,,,,,,,,,,,,,,,,,,,,,,,,,,,,,
706639,001,2022-11-13_23h27.39.771,Info_measure_main_exp,2022.2.2,Win32,144.3626389,,,,,,,,,,,,,,,,,,masks/mask_002.jpg,,,,,,,,,,,,,,,,,,,,,,,,,,,,,,,,,,,,,,,,,,,0,1,1,1,1,,,,,,,,,,,,,,,,,,,,,,,,,,,,,,,,,,,,,,,,,,,,,,
706639,001,2022-11-13_23h27.39.771,Info_measure_main_exp,2022.2.2,Win32,144.3626389,,,,,,,,,,,,,,,,,,masks/mask_004.jpg,,,,,,,,,,,,,,,,,,,,,,,,,,,,,,,,,,,,,,,,,,,0,2,2,3,1,,,,,,,,,,,,,,,,,,,,,,,,,,,,,,,,,,,,,,,,,,,,,,
706639,001,2022-11-13_23h27.39.771,Info_measure_main_exp,2022.2.2,Win32,144.3626389,,,,,,,,,,,,,,,,,,masks/mask_001.jpg,,,,,,,,,,,,,,,,,,,,,,,,,,,,,,,,,,,,,,,,,,,0,3,3,0,1,,,,,,,,,,,,,,,,,,,,,,,,,,,,,,,,,,,,,,,,,,,,,,
706639,001,2022-11-13_23h27.39.771,Info_measure_main_exp,2022.2.2,Win32,144.3626389,,,,,,,,,,,,,,,,,,masks/mask_003.jpg,,,,,,,,,,,,,,,,,,,,,,,,,,,,,,,,,,,,,,,,,,,0,4,4,2,1,,,,,,,,,,,,,,,,,,,,,,,,,,,,,,,,,,,,,,,,,,,,,,
706639,001,2022-11-13_23h27.39.771,Info_measure_main_exp,2022.2.2,Win32,144.3626389,,,,,,,,,,,,,,,,,,masks/mask_002.jpg,,,,,,,,,,,,,,,,,,,,,,,,,,,,,,,,,,,,,,,,,,,,,,,,0,0,0,1,1,,,,,,,,,,,,,,,,,,,,,,,,,,,,,,,,,,,,,,,,,
706639,001,2022-11-13_23h27.39.771,Info_measure_main_exp,2022.2.2,Win32,144.3626389,,,,,,,,,,,,,,,,,,masks/mask_005.jpg,,,,,,,,,,,,,,,,,,,,,,,,,,,,,,,,,,,,,,,,,,,,,,,,0,1,1,4,1,,,,,,,,,,,,,,,,,,,,,,,,,,,,,,,,,,,,,,,,,
706639,001,2022-11-13_23h27.39.771,Info_measure_main_exp,2022.2.2,Win32,144.3626389,,,,,,,,,,,,,,,,,,masks/mask_001.jpg,,,,,,,,,,,,,,,,,,,,,,,,,,,,,,,,,,,,,,,,,,,,,,,,0,2,2,0,1,,,,,,,,,,,,,,,,,,,,,,,,,,,,,,,,,,,,,,,,,
706639,001,2022-11-13_23h27.39.771,Info_measure_main_exp,2022.2.2,Win32,144.3626389,,,,,,,,,,,,,,,,,,masks/mask_003.jpg,,,,,,,,,,,,,,,,,,,,,,,,,,,,,,,,,,,,,,,,,,,,,,,,0,3,3,2,1,,,,,,,,,,,,,,,,,,,,,,,,,,,,,,,,,,,,,,,,,
