participant,session,date,expName,psychopyVersion,OS,frameRate,space_press_continue.keys,space_press_continue.rt,space_press_continue_2.keys,space_press_continue_2.rt,space_press_continue_3.keys,space_press_continue_3.rt,space_press_continue_4.keys,space_press_continue_4.rt,space_press_continue_5.keys,space_press_continue_5.rt,space_press_continue_6.keys,space_press_continue_6.rt,prac_mask_loop_1.thisRepN,prac_mask_loop_1.thisTrialN,prac_mask_loop_1.thisN,prac_mask_loop_1.thisIndex,prac_mask_loop_1.ran,mask_name,prac_mask_loop_2.thisRepN,prac_mask_loop_2.thisTrialN,prac_mask_loop_2.thisN,prac_mask_loop_2.thisIndex,prac_mask_loop_2.ran,mouse_2.x,mouse_2.y,mouse_2.leftButton,mouse_2.midButton,mouse_2.rightButton,mouse_2.clicked_name,similarity,response_time,Pass,mouse_12.x,mouse_12.y,mouse_12.leftButton,mouse_12.midButton,mouse_12.rightButton,mouse_12.clicked_name,prac_loop.thisRepN,prac_loop.thisTrialN,prac_loop.thisN,prac_loop.thisIndex,prac_loop.ran,Pair_type,Image_num,Patch_1_loc,Patch_2_loc,Patch_1_info,Patch_2_info,Patch_1_name,Patch_2_name,mouse_1.x,mouse_1.y,mouse_1.leftButton,mouse_1.midButton,mouse_1.rightButton,mouse_1.time,mouse_1.clicked_name,space_press_continue_7.keys,space_press_continue_7.rt,mask_loop.thisRepN,mask_loop.thisTrialN,mask_loop.thisN,mask_loop.thisIndex,mask_loop.ran,mask_loop_2.thisRepN,mask_loop_2.thisTrialN,mask_loop_2.thisN,mask_loop_2.thisIndex,mask_loop_2.ran,mouse.x,mouse.y,mouse.leftButton,mouse.midButton,mouse.rightButton,mouse.clicked_name,trialNumber,mouse_11.x,mouse_11.y,mouse_11.leftButton,mouse_11.midButton,mouse_11.rightButton,mouse_11.clicked_name,first_pass_loop.thisRepN,first_pass_loop.thisTrialN,first_pass_loop.thisN,first_pass_loop.thisIndex,first_pass_loop.ran,mask_loop_3.thisRepN,mask_loop_3.thisTrialN,mask_loop_3.thisN,mask_loop_3.thisIndex,mask_loop_3.ran,mask_loop_4.thisRepN,mask_loop_4.thisTrialN,mask_loop_4.thisN,mask_loop_4.thisIndex,mask_loop_4.ran,mouse_3.x,mouse_3.y,mouse_3.leftButton,mouse_3.midButton,mouse_3.rightButton,mouse_3.clicked_name,double_pass_loop.thisRepN,double_pass_loop.thisTrialN,double_pass_loop.thisN,double_pass_loop.thisIndex,double_pass_loop.ran,space_exit.keys,space_exit.rt
708673,001,2022-11-21_24h59.50.656,Info_measure_main_exp,2022.2.2,Win32,59.88741167,,,,,,,,,,,,,,,,,,,,,,,,,,,,,,,,,,,,,,,,,,,,,,,,,,,,,,,,,,,,,,,,,,,,,,,,,,,,,,,,,,,,,,,,,,,,,,,,,,,,,,,,,,,,,,,
708673,001,2022-11-21_24h59.50.656,Info_measure_main_exp,2022.2.2,Win32,59.88741167,,,,,,,,,,,,,,,,,,,,,,,,,,,,,,,,,,,,,,,,,,,,,,,,,,,,,,,,,,,,,,,,,,,,,,,,,,,,,,,,,,,,,,,,,,,,,,,,,,,,,,,,,,,,,,,
708673,001,2022-11-21_24h59.50.656,Info_measure_main_exp,2022.2.2,Win32,59.88741167,space,9.6898,,,,,,,,,,,,,,,,,,,,,,,,,,,,,,,,,,,,,,,,,,,,,,,,,,,,,,,,,,,,,,,,,,,,,,,,,,,,,,,,,,,,,,,,,,,,,,,,,,,,,,,,,,,,,
708673,001,2022-11-21_24h59.50.656,Info_measure_main_exp,2022.2.2,Win32,59.88741167,,,space,23.7439,,,,,,,,,,,,,,,,,,,,,,,,,,,,,,,,,,,,,,,,,,,,,,,,,,,,,,,,,,,,,,,,,,,,,,,,,,,,,,,,,,,,,,,,,,,,,,,,,,,,,,,,,,,
708673,001,2022-11-21_24h59.50.656,Info_measure_main_exp,2022.2.2,Win32,59.88741167,,,,,space,6.0199,,,,,,,,,,,,,,,,,,,,,,,,,,,,,,,,,,,,,,,,,,,,,,,,,,,,,,,,,,,,,,,,,,,,,,,,,,,,,,,,,,,,,,,,,,,,,,,,,,,,,,,,,
708673,001,2022-11-21_24h59.50.656,Info_measure_main_exp,2022.2.2,Win32,59.88741167,,,,,,,space,15.2408,,,,,,,,,,,,,,,,,,,,,,,,,,,,,,,,,,,,,,,,,,,,,,,,,,,,,,,,,,,,,,,,,,,,,,,,,,,,,,,,,,,,,,,,,,,,,,,,,,,,,,,
708673,001,2022-11-21_24h59.50.656,Info_measure_main_exp,2022.2.2,Win32,59.88741167,,,,,,,,,space,9.496,,,,,,,,,,,,,,,,,,,,,,,,,,,,,,,,,,,,,,,,,,,,,,,,,,,,,,,,,,,,,,,,,,,,,,,,,,,,,,,,,,,,,,,,,,,,,,,,,,,,,
708673,001,2022-11-21_24h59.50.656,Info_measure_main_exp,2022.2.2,Win32,59.88741167,,,,,,,,,,,space,5.846,,,,,,,,,,,,,,,,,,,,,,,,,,,,,,,,,,,,,,,,,,,,,,,,,,,,,,,,,,,,,,,,,,,,,,,,,,,,,,,,,,,,,,,,,,,,,,,,,,,
708673,001,2022-11-21_24h59.50.656,Info_measure_main_exp,2022.2.2,Win32,59.88741167,,,,,,,,,,,,,0,0,0,4,1,masks/mask_005.jpg,,,,,,,,,,,,,,,,,,,,,,,,,,,,,,,,,,,,,,,,,,,,,,,,,,,,,,,,,,,,,,,,,,,,,,,,,,,,,,,,,,,,,,,,,,,,,
708673,001,2022-11-21_24h59.50.656,Info_measure_main_exp,2022.2.2,Win32,59.88741167,,,,,,,,,,,,,0,1,1,0,1,masks/mask_001.jpg,,,,,,,,,,,,,,,,,,,,,,,,,,,,,,,,,,,,,,,,,,,,,,,,,,,,,,,,,,,,,,,,,,,,,,,,,,,,,,,,,,,,,,,,,,,,,
708673,001,2022-11-21_24h59.50.656,Info_measure_main_exp,2022.2.2,Win32,59.88741167,,,,,,,,,,,,,0,2,2,2,1,masks/mask_003.jpg,,,,,,,,,,,,,,,,,,,,,,,,,,,,,,,,,,,,,,,,,,,,,,,,,,,,,,,,,,,,,,,,,,,,,,,,,,,,,,,,,,,,,,,,,,,,,
708673,001,2022-11-21_24h59.50.656,Info_measure_main_exp,2022.2.2,Win32,59.88741167,,,,,,,,,,,,,0,3,3,3,1,masks/mask_004.jpg,,,,,,,,,,,,,,,,,,,,,,,,,,,,,,,,,,,,,,,,,,,,,,,,,,,,,,,,,,,,,,,,,,,,,,,,,,,,,,,,,,,,,,,,,,,,,
708673,001,2022-11-21_24h59.50.656,Info_measure_main_exp,2022.2.2,Win32,59.88741167,,,,,,,,,,,,,0,4,4,1,1,masks/mask_002.jpg,,,,,,,,,,,,,,,,,,,,,,,,,,,,,,,,,,,,,,,,,,,,,,,,,,,,,,,,,,,,,,,,,,,,,,,,,,,,,,,,,,,,,,,,,,,,,
708673,001,2022-11-21_24h59.50.656,Info_measure_main_exp,2022.2.2,Win32,59.88741167,,,,,,,,,,,,,,,,,,masks/mask_002.jpg,0,0,0,1,1,,,,,,,,,,,,,,,,,,,,,,,,,,,,,,,,,,,,,,,,,,,,,,,,,,,,,,,,,,,,,,,,,,,,,,,,,,,,,,,,,,,,,,,,
708673,001,2022-11-21_24h59.50.656,Info_measure_main_exp,2022.2.2,Win32,59.88741167,,,,,,,,,,,,,,,,,,masks/mask_004.jpg,0,1,1,3,1,,,,,,,,,,,,,,,,,,,,,,,,,,,,,,,,,,,,,,,,,,,,,,,,,,,,,,,,,,,,,,,,,,,,,,,,,,,,,,,,,,,,,,,,
708673,001,2022-11-21_24h59.50.656,Info_measure_main_exp,2022.2.2,Win32,59.88741167,,,,,,,,,,,,,,,,,,masks/mask_005.jpg,0,2,2,4,1,,,,,,,,,,,,,,,,,,,,,,,,,,,,,,,,,,,,,,,,,,,,,,,,,,,,,,,,,,,,,,,,,,,,,,,,,,,,,,,,,,,,,,,,
708673,001,2022-11-21_24h59.50.656,Info_measure_main_exp,2022.2.2,Win32,59.88741167,,,,,,,,,,,,,,,,,,masks/mask_003.jpg,0,3,3,2,1,,,,,,,,,,,,,,,,,,,,,,,,,,,,,,,,,,,,,,,,,,,,,,,,,,,,,,,,,,,,,,,,,,,,,,,,,,,,,,,,,,,,,,,,
708673,001,2022-11-21_24h59.50.656,Info_measure_main_exp,2022.2.2,Win32,59.88741167,,,,,,,,,,,,,,,,,,masks/mask_001.jpg,0,4,4,0,1,,,,,,,,,,,,,,,,,,,,,,,,,,,,,,,,,,,,,,,,,,,,,,,,,,,,,,,,,,,,,,,,,,,,,,,,,,,,,,,,,,,,,,,,
708673,001,2022-11-21_24h59.50.656,Info_measure_main_exp,2022.2.2,Win32,59.88741167,,,,,,,,,,,,,,,,,,,,,,,,-0.085002846,0.024724953,1,0,0,response7disk,1,75.0287,1,-0.00810648,-0.007701237,1,0,0,center_square,0,0,0,1,1,0,131,5,5,2514,2490,prac_patch/patch0002514.jpg,prac_patch/patch0002490.jpg,,,,,,,,,,,,,,,,,,,,,,,,,,,,,,,,,,,,,,,,,,,,,,,,,,,,,,,,,,,,
708673,001,2022-11-21_24h59.50.656,Info_measure_main_exp,2022.2.2,Win32,59.88741167,,,,,,,,,,,,,0,0,0,2,1,masks/mask_003.jpg,,,,,,,,,,,,,,,,,,,,,,,,,,,,,,,,,,,,,,,,,,,,,,,,,,,,,,,,,,,,,,,,,,,,,,,,,,,,,,,,,,,,,,,,,,,,,
708673,001,2022-11-21_24h59.50.656,Info_measure_main_exp,2022.2.2,Win32,59.88741167,,,,,,,,,,,,,0,1,1,1,1,masks/mask_002.jpg,,,,,,,,,,,,,,,,,,,,,,,,,,,,,,,,,,,,,,,,,,,,,,,,,,,,,,,,,,,,,,,,,,,,,,,,,,,,,,,,,,,,,,,,,,,,,
708673,001,2022-11-21_24h59.50.656,Info_measure_main_exp,2022.2.2,Win32,59.88741167,,,,,,,,,,,,,0,2,2,0,1,masks/mask_001.jpg,,,,,,,,,,,,,,,,,,,,,,,,,,,,,,,,,,,,,,,,,,,,,,,,,,,,,,,,,,,,,,,,,,,,,,,,,,,,,,,,,,,,,,,,,,,,,
708673,001,2022-11-21_24h59.50.656,Info_measure_main_exp,2022.2.2,Win32,59.88741167,,,,,,,,,,,,,0,3,3,4,1,masks/mask_005.jpg,,,,,,,,,,,,,,,,,,,,,,,,,,,,,,,,,,,,,,,,,,,,,,,,,,,,,,,,,,,,,,,,,,,,,,,,,,,,,,,,,,,,,,,,,,,,,
708673,001,2022-11-21_24h59.50.656,Info_measure_main_exp,2022.2.2,Win32,59.88741167,,,,,,,,,,,,,0,4,4,3,1,masks/mask_004.jpg,,,,,,,,,,,,,,,,,,,,,,,,,,,,,,,,,,,,,,,,,,,,,,,,,,,,,,,,,,,,,,,,,,,,,,,,,,,,,,,,,,,,,,,,,,,,,
708673,001,2022-11-21_24h59.50.656,Info_measure_main_exp,2022.2.2,Win32,59.88741167,,,,,,,,,,,,,,,,,,masks/mask_005.jpg,0,0,0,4,1,,,,,,,,,,,,,,,,,,,,,,,,,,,,,,,,,,,,,,,,,,,,,,,,,,,,,,,,,,,,,,,,,,,,,,,,,,,,,,,,,,,,,,,,
708673,001,2022-11-21_24h59.50.656,Info_measure_main_exp,2022.2.2,Win32,59.88741167,,,,,,,,,,,,,,,,,,masks/mask_001.jpg,0,1,1,0,1,,,,,,,,,,,,,,,,,,,,,,,,,,,,,,,,,,,,,,,,,,,,,,,,,,,,,,,,,,,,,,,,,,,,,,,,,,,,,,,,,,,,,,,,
708673,001,2022-11-21_24h59.50.656,Info_measure_main_exp,2022.2.2,Win32,59.88741167,,,,,,,,,,,,,,,,,,masks/mask_004.jpg,0,2,2,3,1,,,,,,,,,,,,,,,,,,,,,,,,,,,,,,,,,,,,,,,,,,,,,,,,,,,,,,,,,,,,,,,,,,,,,,,,,,,,,,,,,,,,,,,,
708673,001,2022-11-21_24h59.50.656,Info_measure_main_exp,2022.2.2,Win32,59.88741167,,,,,,,,,,,,,,,,,,masks/mask_002.jpg,0,3,3,1,1,,,,,,,,,,,,,,,,,,,,,,,,,,,,,,,,,,,,,,,,,,,,,,,,,,,,,,,,,,,,,,,,,,,,,,,,,,,,,,,,,,,,,,,,
708673,001,2022-11-21_24h59.50.656,Info_measure_main_exp,2022.2.2,Win32,59.88741167,,,,,,,,,,,,,,,,,,masks/mask_003.jpg,0,4,4,2,1,,,,,,,,,,,,,,,,,,,,,,,,,,,,,,,,,,,,,,,,,,,,,,,,,,,,,,,,,,,,,,,,,,,,,,,,,,,,,,,,,,,,,,,,
708673,001,2022-11-21_24h59.50.656,Info_measure_main_exp,2022.2.2,Win32,59.88741167,,,,,,,,,,,,,,,,,,,,,,,,-0.136884672,0.042327725,1,0,0,response7disk,1,88.6184,1,-0.005327164,0.002489846,1,0,0,center_square,0,1,1,2,1,0,131,5,5,2526,2526,prac_patch/patch0002526.jpg,prac_patch/patch0002526.jpg,,,,,,,,,,,,,,,,,,,,,,,,,,,,,,,,,,,,,,,,,,,,,,,,,,,,,,,,,,,,
708673,001,2022-11-21_24h59.50.656,Info_measure_main_exp,2022.2.2,Win32,59.88741167,,,,,,,,,,,,,0,0,0,3,1,masks/mask_004.jpg,,,,,,,,,,,,,,,,,,,,,,,,,,,,,,,,,,,,,,,,,,,,,,,,,,,,,,,,,,,,,,,,,,,,,,,,,,,,,,,,,,,,,,,,,,,,,
708673,001,2022-11-21_24h59.50.656,Info_measure_main_exp,2022.2.2,Win32,59.88741167,,,,,,,,,,,,,0,1,1,0,1,masks/mask_001.jpg,,,,,,,,,,,,,,,,,,,,,,,,,,,,,,,,,,,,,,,,,,,,,,,,,,,,,,,,,,,,,,,,,,,,,,,,,,,,,,,,,,,,,,,,,,,,,
708673,001,2022-11-21_24h59.50.656,Info_measure_main_exp,2022.2.2,Win32,59.88741167,,,,,,,,,,,,,0,2,2,4,1,masks/mask_005.jpg,,,,,,,,,,,,,,,,,,,,,,,,,,,,,,,,,,,,,,,,,,,,,,,,,,,,,,,,,,,,,,,,,,,,,,,,,,,,,,,,,,,,,,,,,,,,,
708673,001,2022-11-21_24h59.50.656,Info_measure_main_exp,2022.2.2,Win32,59.88741167,,,,,,,,,,,,,0,3,3,2,1,masks/mask_003.jpg,,,,,,,,,,,,,,,,,,,,,,,,,,,,,,,,,,,,,,,,,,,,,,,,,,,,,,,,,,,,,,,,,,,,,,,,,,,,,,,,,,,,,,,,,,,,,
708673,001,2022-11-21_24h59.50.656,Info_measure_main_exp,2022.2.2,Win32,59.88741167,,,,,,,,,,,,,0,4,4,1,1,masks/mask_002.jpg,,,,,,,,,,,,,,,,,,,,,,,,,,,,,,,,,,,,,,,,,,,,,,,,,,,,,,,,,,,,,,,,,,,,,,,,,,,,,,,,,,,,,,,,,,,,,
708673,001,2022-11-21_24h59.50.656,Info_measure_main_exp,2022.2.2,Win32,59.88741167,,,,,,,,,,,,,,,,,,masks/mask_005.jpg,0,0,0,4,1,,,,,,,,,,,,,,,,,,,,,,,,,,,,,,,,,,,,,,,,,,,,,,,,,,,,,,,,,,,,,,,,,,,,,,,,,,,,,,,,,,,,,,,,
708673,001,2022-11-21_24h59.50.656,Info_measure_main_exp,2022.2.2,Win32,59.88741167,,,,,,,,,,,,,,,,,,masks/mask_003.jpg,0,1,1,2,1,,,,,,,,,,,,,,,,,,,,,,,,,,,,,,,,,,,,,,,,,,,,,,,,,,,,,,,,,,,,,,,,,,,,,,,,,,,,,,,,,,,,,,,,
708673,001,2022-11-21_24h59.50.656,Info_measure_main_exp,2022.2.2,Win32,59.88741167,,,,,,,,,,,,,,,,,,masks/mask_002.jpg,0,2,2,1,1,,,,,,,,,,,,,,,,,,,,,,,,,,,,,,,,,,,,,,,,,,,,,,,,,,,,,,,,,,,,,,,,,,,,,,,,,,,,,,,,,,,,,,,,
708673,001,2022-11-21_24h59.50.656,Info_measure_main_exp,2022.2.2,Win32,59.88741167,,,,,,,,,,,,,,,,,,masks/mask_001.jpg,0,3,3,0,1,,,,,,,,,,,,,,,,,,,,,,,,,,,,,,,,,,,,,,,,,,,,,,,,,,,,,,,,,,,,,,,,,,,,,,,,,,,,,,,,,,,,,,,,
708673,001,2022-11-21_24h59.50.656,Info_measure_main_exp,2022.2.2,Win32,59.88741167,,,,,,,,,,,,,,,,,,masks/mask_004.jpg,0,4,4,3,1,,,,,,,,,,,,,,,,,,,,,,,,,,,,,,,,,,,,,,,,,,,,,,,,,,,,,,,,,,,,,,,,,,,,,,,,,,,,,,,,,,,,,,,,
708673,001,2022-11-21_24h59.50.656,Info_measure_main_exp,2022.2.2,Win32,59.88741167,,,,,,,,,,,,,,,,,,,,,,,,0.128083403,-0.020671713,1,0,0,response3disk,5,99.2235,1,-0.005327164,0.013607341,1,0,0,center_square,0,2,2,0,1,0,131,5,5,2370,2406,prac_patch/patch0002370.jpg,prac_patch/patch0002406.jpg,,,,,,,,,,,,,,,,,,,,,,,,,,,,,,,,,,,,,,,,,,,,,,,,,,,,,,,,,,,,
708673,001,2022-11-21_24h59.50.656,Info_measure_main_exp,2022.2.2,Win32,59.88741167,,,,,,,,,,,,,,,,,,,,,,,,,,,,,,,,,,,,,,,,,,,,,,,,,,,,,,,,,,,space,1.9033,,,,,,,,,,,,,,,,,,,,,,,,,,,,,,,,,,,,,,,,,,,,,,,,,,,
708673,001,2022-11-21_24h59.50.656,Info_measure_main_exp,2022.2.2,Win32,59.88741167,,,,,,,,,,,,,,,,,,masks/mask_001.jpg,,,,,,,,,,,,,,,,,,,,,,,,,,,,,,,,,,,,,,,,,,,0,0,0,0,1,,,,,,,,,,,,,,,,,,,,,,,,,,,,,,,,,,,,,,,,,,,,,,
708673,001,2022-11-21_24h59.50.656,Info_measure_main_exp,2022.2.2,Win32,59.88741167,,,,,,,,,,,,,,,,,,masks/mask_003.jpg,,,,,,,,,,,,,,,,,,,,,,,,,,,,,,,,,,,,,,,,,,,0,1,1,2,1,,,,,,,,,,,,,,,,,,,,,,,,,,,,,,,,,,,,,,,,,,,,,,
708673,001,2022-11-21_24h59.50.656,Info_measure_main_exp,2022.2.2,Win32,59.88741167,,,,,,,,,,,,,,,,,,masks/mask_005.jpg,,,,,,,,,,,,,,,,,,,,,,,,,,,,,,,,,,,,,,,,,,,0,2,2,4,1,,,,,,,,,,,,,,,,,,,,,,,,,,,,,,,,,,,,,,,,,,,,,,
708673,001,2022-11-21_24h59.50.656,Info_measure_main_exp,2022.2.2,Win32,59.88741167,,,,,,,,,,,,,,,,,,masks/mask_002.jpg,,,,,,,,,,,,,,,,,,,,,,,,,,,,,,,,,,,,,,,,,,,0,3,3,1,1,,,,,,,,,,,,,,,,,,,,,,,,,,,,,,,,,,,,,,,,,,,,,,
708673,001,2022-11-21_24h59.50.656,Info_measure_main_exp,2022.2.2,Win32,59.88741167,,,,,,,,,,,,,,,,,,masks/mask_004.jpg,,,,,,,,,,,,,,,,,,,,,,,,,,,,,,,,,,,,,,,,,,,0,4,4,3,1,,,,,,,,,,,,,,,,,,,,,,,,,,,,,,,,,,,,,,,,,,,,,,
708673,001,2022-11-21_24h59.50.656,Info_measure_main_exp,2022.2.2,Win32,59.88741167,,,,,,,,,,,,,,,,,,masks/mask_003.jpg,,,,,,,,,,,,,,,,,,,,,,,,,,,,,,,,,,,,,,,,,,,,,,,,0,0,0,2,1,,,,,,,,,,,,,,,,,,,,,,,,,,,,,,,,,,,,,,,,,
708673,001,2022-11-21_24h59.50.656,Info_measure_main_exp,2022.2.2,Win32,59.88741167,,,,,,,,,,,,,,,,,,masks/mask_001.jpg,,,,,,,,,,,,,,,,,,,,,,,,,,,,,,,,,,,,,,,,,,,,,,,,0,1,1,0,1,,,,,,,,,,,,,,,,,,,,,,,,,,,,,,,,,,,,,,,,,
708673,001,2022-11-21_24h59.50.656,Info_measure_main_exp,2022.2.2,Win32,59.88741167,,,,,,,,,,,,,,,,,,masks/mask_005.jpg,,,,,,,,,,,,,,,,,,,,,,,,,,,,,,,,,,,,,,,,,,,,,,,,0,2,2,4,1,,,,,,,,,,,,,,,,,,,,,,,,,,,,,,,,,,,,,,,,,
708673,001,2022-11-21_24h59.50.656,Info_measure_main_exp,2022.2.2,Win32,59.88741167,,,,,,,,,,,,,,,,,,masks/mask_004.jpg,,,,,,,,,,,,,,,,,,,,,,,,,,,,,,,,,,,,,,,,,,,,,,,,0,3,3,3,1,,,,,,,,,,,,,,,,,,,,,,,,,,,,,,,,,,,,,,,,,
708673,001,2022-11-21_24h59.50.656,Info_measure_main_exp,2022.2.2,Win32,59.88741167,,,,,,,,,,,,,,,,,,masks/mask_002.jpg,,,,,,,,,,,,,,,,,,,,,,,,,,,,,,,,,,,,,,,,,,,,,,,,0,4,4,1,1,,,,,,,,,,,,,,,,,,,,,,,,,,,,,,,,,,,,,,,,,
708673,001,2022-11-21_24h59.50.656,Info_measure_main_exp,2022.2.2,Win32,59.88741167,,,,,,,,,,,,,,,,,,,,,,,,,,,,,,5,5.5947,1,,,,,,,,,,,,1,131,5,5,1,1986,present_patch/cong_131_5_a.jpg,absent_patch/patch0001986.jpg,,,,,,,,,,,,,,,,,,,,0.135495092,-0.051244962,1,0,0,response3disk,1,-0.009032892,-0.001215999,1,0,0,center_square,0,0,0,106,1,,,,,,,,,,,,,,,,,,,,,,,
708673,001,2022-11-21_24h59.50.656,Info_measure_main_exp,2022.2.2,Win32,59.88741167,,,,,,,,,,,,,,,,,,masks/mask_003.jpg,,,,,,,,,,,,,,,,,,,,,,,,,,,,,,,,,,,,,,,,,,,0,0,0,2,1,,,,,,,,,,,,,,,,,,,,,,,,,,,,,,,,,,,,,,,,,,,,,,
708673,001,2022-11-21_24h59.50.656,Info_measure_main_exp,2022.2.2,Win32,59.88741167,,,,,,,,,,,,,,,,,,masks/mask_005.jpg,,,,,,,,,,,,,,,,,,,,,,,,,,,,,,,,,,,,,,,,,,,0,1,1,4,1,,,,,,,,,,,,,,,,,,,,,,,,,,,,,,,,,,,,,,,,,,,,,,
708673,001,2022-11-21_24h59.50.656,Info_measure_main_exp,2022.2.2,Win32,59.88741167,,,,,,,,,,,,,,,,,,masks/mask_004.jpg,,,,,,,,,,,,,,,,,,,,,,,,,,,,,,,,,,,,,,,,,,,0,2,2,3,1,,,,,,,,,,,,,,,,,,,,,,,,,,,,,,,,,,,,,,,,,,,,,,
708673,001,2022-11-21_24h59.50.656,Info_measure_main_exp,2022.2.2,Win32,59.88741167,,,,,,,,,,,,,,,,,,masks/mask_001.jpg,,,,,,,,,,,,,,,,,,,,,,,,,,,,,,,,,,,,,,,,,,,0,3,3,0,1,,,,,,,,,,,,,,,,,,,,,,,,,,,,,,,,,,,,,,,,,,,,,,
708673,001,2022-11-21_24h59.50.656,Info_measure_main_exp,2022.2.2,Win32,59.88741167,,,,,,,,,,,,,,,,,,masks/mask_002.jpg,,,,,,,,,,,,,,,,,,,,,,,,,,,,,,,,,,,,,,,,,,,0,4,4,1,1,,,,,,,,,,,,,,,,,,,,,,,,,,,,,,,,,,,,,,,,,,,,,,
708673,001,2022-11-21_24h59.50.656,Info_measure_main_exp,2022.2.2,Win32,59.88741167,,,,,,,,,,,,,,,,,,masks/mask_004.jpg,,,,,,,,,,,,,,,,,,,,,,,,,,,,,,,,,,,,,,,,,,,,,,,,0,0,0,3,1,,,,,,,,,,,,,,,,,,,,,,,,,,,,,,,,,,,,,,,,,
708673,001,2022-11-21_24h59.50.656,Info_measure_main_exp,2022.2.2,Win32,59.88741167,,,,,,,,,,,,,,,,,,masks/mask_002.jpg,,,,,,,,,,,,,,,,,,,,,,,,,,,,,,,,,,,,,,,,,,,,,,,,0,1,1,1,1,,,,,,,,,,,,,,,,,,,,,,,,,,,,,,,,,,,,,,,,,
708673,001,2022-11-21_24h59.50.656,Info_measure_main_exp,2022.2.2,Win32,59.88741167,,,,,,,,,,,,,,,,,,masks/mask_003.jpg,,,,,,,,,,,,,,,,,,,,,,,,,,,,,,,,,,,,,,,,,,,,,,,,0,2,2,2,1,,,,,,,,,,,,,,,,,,,,,,,,,,,,,,,,,,,,,,,,,
708673,001,2022-11-21_24h59.50.656,Info_measure_main_exp,2022.2.2,Win32,59.88741167,,,,,,,,,,,,,,,,,,masks/mask_001.jpg,,,,,,,,,,,,,,,,,,,,,,,,,,,,,,,,,,,,,,,,,,,,,,,,0,3,3,0,1,,,,,,,,,,,,,,,,,,,,,,,,,,,,,,,,,,,,,,,,,
708673,001,2022-11-21_24h59.50.656,Info_measure_main_exp,2022.2.2,Win32,59.88741167,,,,,,,,,,,,,,,,,,masks/mask_005.jpg,,,,,,,,,,,,,,,,,,,,,,,,,,,,,,,,,,,,,,,,,,,,,,,,0,4,4,4,1,,,,,,,,,,,,,,,,,,,,,,,,,,,,,,,,,,,,,,,,,
708673,001,2022-11-21_24h59.50.656,Info_measure_main_exp,2022.2.2,Win32,59.88741167,,,,,,,,,,,,,,,,,,,,,,,,,,,,,,6,1.948,1,,,,,,,,,,,,0,131,5,5,2238,2214,absent_patch/patch0002238.jpg,absent_patch/patch0002214.jpg,,,,,,,,,,,,,,,,,,,,0.100289548,0.028430798,1,0,0,response1disk,2,-0.003474183,0.002489846,1,0,0,center_square,0,1,1,81,1,,,,,,,,,,,,,,,,,,,,,,,
708673,001,2022-11-21_24h59.50.656,Info_measure_main_exp,2022.2.2,Win32,59.88741167,,,,,,,,,,,,,,,,,,masks/mask_004.jpg,,,,,,,,,,,,,,,,,,,,,,,,,,,,,,,,,,,,,,,,,,,0,0,0,3,1,,,,,,,,,,,,,,,,,,,,,,,,,,,,,,,,,,,,,,,,,,,,,,
708673,001,2022-11-21_24h59.50.656,Info_measure_main_exp,2022.2.2,Win32,59.88741167,,,,,,,,,,,,,,,,,,masks/mask_003.jpg,,,,,,,,,,,,,,,,,,,,,,,,,,,,,,,,,,,,,,,,,,,0,1,1,2,1,,,,,,,,,,,,,,,,,,,,,,,,,,,,,,,,,,,,,,,,,,,,,,
708673,001,2022-11-21_24h59.50.656,Info_measure_main_exp,2022.2.2,Win32,59.88741167,,,,,,,,,,,,,,,,,,masks/mask_005.jpg,,,,,,,,,,,,,,,,,,,,,,,,,,,,,,,,,,,,,,,,,,,0,2,2,4,1,,,,,,,,,,,,,,,,,,,,,,,,,,,,,,,,,,,,,,,,,,,,,,
708673,001,2022-11-21_24h59.50.656,Info_measure_main_exp,2022.2.2,Win32,59.88741167,,,,,,,,,,,,,,,,,,masks/mask_001.jpg,,,,,,,,,,,,,,,,,,,,,,,,,,,,,,,,,,,,,,,,,,,0,3,3,0,1,,,,,,,,,,,,,,,,,,,,,,,,,,,,,,,,,,,,,,,,,,,,,,
708673,001,2022-11-21_24h59.50.656,Info_measure_main_exp,2022.2.2,Win32,59.88741167,,,,,,,,,,,,,,,,,,masks/mask_002.jpg,,,,,,,,,,,,,,,,,,,,,,,,,,,,,,,,,,,,,,,,,,,0,4,4,1,1,,,,,,,,,,,,,,,,,,,,,,,,,,,,,,,,,,,,,,,,,,,,,,
708673,001,2022-11-21_24h59.50.656,Info_measure_main_exp,2022.2.2,Win32,59.88741167,,,,,,,,,,,,,,,,,,masks/mask_001.jpg,,,,,,,,,,,,,,,,,,,,,,,,,,,,,,,,,,,,,,,,,,,,,,,,0,0,0,0,1,,,,,,,,,,,,,,,,,,,,,,,,,,,,,,,,,,,,,,,,,
708673,001,2022-11-21_24h59.50.656,Info_measure_main_exp,2022.2.2,Win32,59.88741167,,,,,,,,,,,,,,,,,,masks/mask_003.jpg,,,,,,,,,,,,,,,,,,,,,,,,,,,,,,,,,,,,,,,,,,,,,,,,0,1,1,2,1,,,,,,,,,,,,,,,,,,,,,,,,,,,,,,,,,,,,,,,,,
708673,001,2022-11-21_24h59.50.656,Info_measure_main_exp,2022.2.2,Win32,59.88741167,,,,,,,,,,,,,,,,,,masks/mask_005.jpg,,,,,,,,,,,,,,,,,,,,,,,,,,,,,,,,,,,,,,,,,,,,,,,,0,2,2,4,1,,,,,,,,,,,,,,,,,,,,,,,,,,,,,,,,,,,,,,,,,
708673,001,2022-11-21_24h59.50.656,Info_measure_main_exp,2022.2.2,Win32,59.88741167,,,,,,,,,,,,,,,,,,masks/mask_002.jpg,,,,,,,,,,,,,,,,,,,,,,,,,,,,,,,,,,,,,,,,,,,,,,,,0,3,3,1,1,,,,,,,,,,,,,,,,,,,,,,,,,,,,,,,,,,,,,,,,,
708673,001,2022-11-21_24h59.50.656,Info_measure_main_exp,2022.2.2,Win32,59.88741167,,,,,,,,,,,,,,,,,,masks/mask_004.jpg,,,,,,,,,,,,,,,,,,,,,,,,,,,,,,,,,,,,,,,,,,,,,,,,0,4,4,3,1,,,,,,,,,,,,,,,,,,,,,,,,,,,,,,,,,,,,,,,,,
708673,001,2022-11-21_24h59.50.656,Info_measure_main_exp,2022.2.2,Win32,59.88741167,,,,,,,,,,,,,,,,,,,,,,,,,,,,,,7,1.5148,1,,,,,,,,,,,,0,131,5,5,2274,2142,absent_patch/patch0002274.jpg,absent_patch/patch0002142.jpg,,,,,,,,,,,,,,,,,,,,0.04655474,0.070121542,1,0,0,response1disk,3,-0.003474183,0.002489846,1,0,0,center_square,0,2,2,75,1,,,,,,,,,,,,,,,,,,,,,,,
708673,001,2022-11-21_24h59.50.656,Info_measure_main_exp,2022.2.2,Win32,59.88741167,,,,,,,,,,,,,,,,,,masks/mask_003.jpg,,,,,,,,,,,,,,,,,,,,,,,,,,,,,,,,,,,,,,,,,,,0,0,0,2,1,,,,,,,,,,,,,,,,,,,,,,,,,,,,,,,,,,,,,,,,,,,,,,
708673,001,2022-11-21_24h59.50.656,Info_measure_main_exp,2022.2.2,Win32,59.88741167,,,,,,,,,,,,,,,,,,masks/mask_004.jpg,,,,,,,,,,,,,,,,,,,,,,,,,,,,,,,,,,,,,,,,,,,0,1,1,3,1,,,,,,,,,,,,,,,,,,,,,,,,,,,,,,,,,,,,,,,,,,,,,,
708673,001,2022-11-21_24h59.50.656,Info_measure_main_exp,2022.2.2,Win32,59.88741167,,,,,,,,,,,,,,,,,,masks/mask_005.jpg,,,,,,,,,,,,,,,,,,,,,,,,,,,,,,,,,,,,,,,,,,,0,2,2,4,1,,,,,,,,,,,,,,,,,,,,,,,,,,,,,,,,,,,,,,,,,,,,,,
708673,001,2022-11-21_24h59.50.656,Info_measure_main_exp,2022.2.2,Win32,59.88741167,,,,,,,,,,,,,,,,,,masks/mask_002.jpg,,,,,,,,,,,,,,,,,,,,,,,,,,,,,,,,,,,,,,,,,,,0,3,3,1,1,,,,,,,,,,,,,,,,,,,,,,,,,,,,,,,,,,,,,,,,,,,,,,
708673,001,2022-11-21_24h59.50.656,Info_measure_main_exp,2022.2.2,Win32,59.88741167,,,,,,,,,,,,,,,,,,masks/mask_001.jpg,,,,,,,,,,,,,,,,,,,,,,,,,,,,,,,,,,,,,,,,,,,0,4,4,0,1,,,,,,,,,,,,,,,,,,,,,,,,,,,,,,,,,,,,,,,,,,,,,,
708673,001,2022-11-21_24h59.50.656,Info_measure_main_exp,2022.2.2,Win32,59.88741167,,,,,,,,,,,,,,,,,,masks/mask_003.jpg,,,,,,,,,,,,,,,,,,,,,,,,,,,,,,,,,,,,,,,,,,,,,,,,0,0,0,2,1,,,,,,,,,,,,,,,,,,,,,,,,,,,,,,,,,,,,,,,,,
708673,001,2022-11-21_24h59.50.656,Info_measure_main_exp,2022.2.2,Win32,59.88741167,,,,,,,,,,,,,,,,,,masks/mask_005.jpg,,,,,,,,,,,,,,,,,,,,,,,,,,,,,,,,,,,,,,,,,,,,,,,,0,1,1,4,1,,,,,,,,,,,,,,,,,,,,,,,,,,,,,,,,,,,,,,,,,
708673,001,2022-11-21_24h59.50.656,Info_measure_main_exp,2022.2.2,Win32,59.88741167,,,,,,,,,,,,,,,,,,masks/mask_001.jpg,,,,,,,,,,,,,,,,,,,,,,,,,,,,,,,,,,,,,,,,,,,,,,,,0,2,2,0,1,,,,,,,,,,,,,,,,,,,,,,,,,,,,,,,,,,,,,,,,,
708673,001,2022-11-21_24h59.50.656,Info_measure_main_exp,2022.2.2,Win32,59.88741167,,,,,,,,,,,,,,,,,,masks/mask_002.jpg,,,,,,,,,,,,,,,,,,,,,,,,,,,,,,,,,,,,,,,,,,,,,,,,0,3,3,1,1,,,,,,,,,,,,,,,,,,,,,,,,,,,,,,,,,,,,,,,,,
708673,001,2022-11-21_24h59.50.656,Info_measure_main_exp,2022.2.2,Win32,59.88741167,,,,,,,,,,,,,,,,,,masks/mask_004.jpg,,,,,,,,,,,,,,,,,,,,,,,,,,,,,,,,,,,,,,,,,,,,,,,,0,4,4,3,1,,,,,,,,,,,,,,,,,,,,,,,,,,,,,,,,,,,,,,,,,
708673,001,2022-11-21_24h59.50.656,Info_measure_main_exp,2022.2.2,Win32,59.88741167,,,,,,,,,,,,,,,,,,,,,,,,,,,,,,7,1.4822,1,,,,,,,,,,,,1,131,5,5,2238,1,absent_patch/patch0002238.jpg,present_patch/cong_131_5_a.jpg,,,,,,,,,,,,,,,,,,,,0.038216561,0.094209591,1,0,0,response1disk,4,0.011349273,0.009901535,1,0,0,center_square,0,3,3,104,1,,,,,,,,,,,,,,,,,,,,,,,
708673,001,2022-11-21_24h59.50.656,Info_measure_main_exp,2022.2.2,Win32,59.88741167,,,,,,,,,,,,,,,,,,masks/mask_003.jpg,,,,,,,,,,,,,,,,,,,,,,,,,,,,,,,,,,,,,,,,,,,0,0,0,2,1,,,,,,,,,,,,,,,,,,,,,,,,,,,,,,,,,,,,,,,,,,,,,,
708673,001,2022-11-21_24h59.50.656,Info_measure_main_exp,2022.2.2,Win32,59.88741167,,,,,,,,,,,,,,,,,,masks/mask_004.jpg,,,,,,,,,,,,,,,,,,,,,,,,,,,,,,,,,,,,,,,,,,,0,1,1,3,1,,,,,,,,,,,,,,,,,,,,,,,,,,,,,,,,,,,,,,,,,,,,,,
708673,001,2022-11-21_24h59.50.656,Info_measure_main_exp,2022.2.2,Win32,59.88741167,,,,,,,,,,,,,,,,,,masks/mask_002.jpg,,,,,,,,,,,,,,,,,,,,,,,,,,,,,,,,,,,,,,,,,,,0,2,2,1,1,,,,,,,,,,,,,,,,,,,,,,,,,,,,,,,,,,,,,,,,,,,,,,
708673,001,2022-11-21_24h59.50.656,Info_measure_main_exp,2022.2.2,Win32,59.88741167,,,,,,,,,,,,,,,,,,masks/mask_005.jpg,,,,,,,,,,,,,,,,,,,,,,,,,,,,,,,,,,,,,,,,,,,0,3,3,4,1,,,,,,,,,,,,,,,,,,,,,,,,,,,,,,,,,,,,,,,,,,,,,,
708673,001,2022-11-21_24h59.50.656,Info_measure_main_exp,2022.2.2,Win32,59.88741167,,,,,,,,,,,,,,,,,,masks/mask_001.jpg,,,,,,,,,,,,,,,,,,,,,,,,,,,,,,,,,,,,,,,,,,,0,4,4,0,1,,,,,,,,,,,,,,,,,,,,,,,,,,,,,,,,,,,,,,,,,,,,,,
708673,001,2022-11-21_24h59.50.656,Info_measure_main_exp,2022.2.2,Win32,59.88741167,,,,,,,,,,,,,,,,,,masks/mask_005.jpg,,,,,,,,,,,,,,,,,,,,,,,,,,,,,,,,,,,,,,,,,,,,,,,,0,0,0,4,1,,,,,,,,,,,,,,,,,,,,,,,,,,,,,,,,,,,,,,,,,
708673,001,2022-11-21_24h59.50.656,Info_measure_main_exp,2022.2.2,Win32,59.88741167,,,,,,,,,,,,,,,,,,masks/mask_004.jpg,,,,,,,,,,,,,,,,,,,,,,,,,,,,,,,,,,,,,,,,,,,,,,,,0,1,1,3,1,,,,,,,,,,,,,,,,,,,,,,,,,,,,,,,,,,,,,,,,,
708673,001,2022-11-21_24h59.50.656,Info_measure_main_exp,2022.2.2,Win32,59.88741167,,,,,,,,,,,,,,,,,,masks/mask_002.jpg,,,,,,,,,,,,,,,,,,,,,,,,,,,,,,,,,,,,,,,,,,,,,,,,0,2,2,1,1,,,,,,,,,,,,,,,,,,,,,,,,,,,,,,,,,,,,,,,,,
708673,001,2022-11-21_24h59.50.656,Info_measure_main_exp,2022.2.2,Win32,59.88741167,,,,,,,,,,,,,,,,,,masks/mask_001.jpg,,,,,,,,,,,,,,,,,,,,,,,,,,,,,,,,,,,,,,,,,,,,,,,,0,3,3,0,1,,,,,,,,,,,,,,,,,,,,,,,,,,,,,,,,,,,,,,,,,
708673,001,2022-11-21_24h59.50.656,Info_measure_main_exp,2022.2.2,Win32,59.88741167,,,,,,,,,,,,,,,,,,masks/mask_003.jpg,,,,,,,,,,,,,,,,,,,,,,,,,,,,,,,,,,,,,,,,,,,,,,,,0,4,4,2,1,,,,,,,,,,,,,,,,,,,,,,,,,,,,,,,,,,,,,,,,,
708673,001,2022-11-21_24h59.50.656,Info_measure_main_exp,2022.2.2,Win32,59.88741167,,,,,,,,,,,,,,,,,,,,,,,,,,,,,,6,2.7464,1,,,,,,,,,,,,0,131,5,5,2214,2178,absent_patch/patch0002214.jpg,absent_patch/patch0002178.jpg,,,,,,,,,,,,,,,,,,,,0.145686175,0.036768939,1,0,0,response1disk,5,0.003937584,-0.000289548,1,0,0,center_square,0,4,4,62,1,,,,,,,,,,,,,,,,,,,,,,,
708673,001,2022-11-21_24h59.50.656,Info_measure_main_exp,2022.2.2,Win32,59.88741167,,,,,,,,,,,,,,,,,,masks/mask_001.jpg,,,,,,,,,,,,,,,,,,,,,,,,,,,,,,,,,,,,,,,,,,,0,0,0,0,1,,,,,,,,,,,,,,,,,,,,,,,,,,,,,,,,,,,,,,,,,,,,,,
708673,001,2022-11-21_24h59.50.656,Info_measure_main_exp,2022.2.2,Win32,59.88741167,,,,,,,,,,,,,,,,,,masks/mask_004.jpg,,,,,,,,,,,,,,,,,,,,,,,,,,,,,,,,,,,,,,,,,,,0,1,1,3,1,,,,,,,,,,,,,,,,,,,,,,,,,,,,,,,,,,,,,,,,,,,,,,
708673,001,2022-11-21_24h59.50.656,Info_measure_main_exp,2022.2.2,Win32,59.88741167,,,,,,,,,,,,,,,,,,masks/mask_005.jpg,,,,,,,,,,,,,,,,,,,,,,,,,,,,,,,,,,,,,,,,,,,0,2,2,4,1,,,,,,,,,,,,,,,,,,,,,,,,,,,,,,,,,,,,,,,,,,,,,,
708673,001,2022-11-21_24h59.50.656,Info_measure_main_exp,2022.2.2,Win32,59.88741167,,,,,,,,,,,,,,,,,,masks/mask_002.jpg,,,,,,,,,,,,,,,,,,,,,,,,,,,,,,,,,,,,,,,,,,,0,3,3,1,1,,,,,,,,,,,,,,,,,,,,,,,,,,,,,,,,,,,,,,,,,,,,,,
708673,001,2022-11-21_24h59.50.656,Info_measure_main_exp,2022.2.2,Win32,59.88741167,,,,,,,,,,,,,,,,,,masks/mask_003.jpg,,,,,,,,,,,,,,,,,,,,,,,,,,,,,,,,,,,,,,,,,,,0,4,4,2,1,,,,,,,,,,,,,,,,,,,,,,,,,,,,,,,,,,,,,,,,,,,,,,
708673,001,2022-11-21_24h59.50.656,Info_measure_main_exp,2022.2.2,Win32,59.88741167,,,,,,,,,,,,,,,,,,masks/mask_005.jpg,,,,,,,,,,,,,,,,,,,,,,,,,,,,,,,,,,,,,,,,,,,,,,,,0,0,0,4,1,,,,,,,,,,,,,,,,,,,,,,,,,,,,,,,,,,,,,,,,,
708673,001,2022-11-21_24h59.50.656,Info_measure_main_exp,2022.2.2,Win32,59.88741167,,,,,,,,,,,,,,,,,,masks/mask_001.jpg,,,,,,,,,,,,,,,,,,,,,,,,,,,,,,,,,,,,,,,,,,,,,,,,0,1,1,0,1,,,,,,,,,,,,,,,,,,,,,,,,,,,,,,,,,,,,,,,,,
708673,001,2022-11-21_24h59.50.656,Info_measure_main_exp,2022.2.2,Win32,59.88741167,,,,,,,,,,,,,,,,,,masks/mask_002.jpg,,,,,,,,,,,,,,,,,,,,,,,,,,,,,,,,,,,,,,,,,,,,,,,,0,2,2,1,1,,,,,,,,,,,,,,,,,,,,,,,,,,,,,,,,,,,,,,,,,
708673,001,2022-11-21_24h59.50.656,Info_measure_main_exp,2022.2.2,Win32,59.88741167,,,,,,,,,,,,,,,,,,masks/mask_004.jpg,,,,,,,,,,,,,,,,,,,,,,,,,,,,,,,,,,,,,,,,,,,,,,,,0,3,3,3,1,,,,,,,,,,,,,,,,,,,,,,,,,,,,,,,,,,,,,,,,,
708673,001,2022-11-21_24h59.50.656,Info_measure_main_exp,2022.2.2,Win32,59.88741167,,,,,,,,,,,,,,,,,,masks/mask_003.jpg,,,,,,,,,,,,,,,,,,,,,,,,,,,,,,,,,,,,,,,,,,,,,,,,0,4,4,2,1,,,,,,,,,,,,,,,,,,,,,,,,,,,,,,,,,,,,,,,,,
708673,001,2022-11-21_24h59.50.656,Info_measure_main_exp,2022.2.2,Win32,59.88741167,,,,,,,,,,,,,,,,,,,,,,,,,,,,,,7,0.8929,1,,,,,,,,,,,,0,131,5,5,2082,2154,absent_patch/patch0002082.jpg,absent_patch/patch0002154.jpg,,,,,,,,,,,,,,,,,,,,0.052113605,0.082165566,1,0,0,response1disk,6,0.007643312,0.015460322,1,0,0,center_square,0,5,5,33,1,,,,,,,,,,,,,,,,,,,,,,,
708673,001,2022-11-21_24h59.50.656,Info_measure_main_exp,2022.2.2,Win32,59.88741167,,,,,,,,,,,,,,,,,,masks/mask_005.jpg,,,,,,,,,,,,,,,,,,,,,,,,,,,,,,,,,,,,,,,,,,,0,0,0,4,1,,,,,,,,,,,,,,,,,,,,,,,,,,,,,,,,,,,,,,,,,,,,,,
708673,001,2022-11-21_24h59.50.656,Info_measure_main_exp,2022.2.2,Win32,59.88741167,,,,,,,,,,,,,,,,,,masks/mask_003.jpg,,,,,,,,,,,,,,,,,,,,,,,,,,,,,,,,,,,,,,,,,,,0,1,1,2,1,,,,,,,,,,,,,,,,,,,,,,,,,,,,,,,,,,,,,,,,,,,,,,
708673,001,2022-11-21_24h59.50.656,Info_measure_main_exp,2022.2.2,Win32,59.88741167,,,,,,,,,,,,,,,,,,masks/mask_004.jpg,,,,,,,,,,,,,,,,,,,,,,,,,,,,,,,,,,,,,,,,,,,0,2,2,3,1,,,,,,,,,,,,,,,,,,,,,,,,,,,,,,,,,,,,,,,,,,,,,,
708673,001,2022-11-21_24h59.50.656,Info_measure_main_exp,2022.2.2,Win32,59.88741167,,,,,,,,,,,,,,,,,,masks/mask_001.jpg,,,,,,,,,,,,,,,,,,,,,,,,,,,,,,,,,,,,,,,,,,,0,3,3,0,1,,,,,,,,,,,,,,,,,,,,,,,,,,,,,,,,,,,,,,,,,,,,,,
708673,001,2022-11-21_24h59.50.656,Info_measure_main_exp,2022.2.2,Win32,59.88741167,,,,,,,,,,,,,,,,,,masks/mask_002.jpg,,,,,,,,,,,,,,,,,,,,,,,,,,,,,,,,,,,,,,,,,,,0,4,4,1,1,,,,,,,,,,,,,,,,,,,,,,,,,,,,,,,,,,,,,,,,,,,,,,
708673,001,2022-11-21_24h59.50.656,Info_measure_main_exp,2022.2.2,Win32,59.88741167,,,,,,,,,,,,,,,,,,masks/mask_003.jpg,,,,,,,,,,,,,,,,,,,,,,,,,,,,,,,,,,,,,,,,,,,,,,,,0,0,0,2,1,,,,,,,,,,,,,,,,,,,,,,,,,,,,,,,,,,,,,,,,,
708673,001,2022-11-21_24h59.50.656,Info_measure_main_exp,2022.2.2,Win32,59.88741167,,,,,,,,,,,,,,,,,,masks/mask_005.jpg,,,,,,,,,,,,,,,,,,,,,,,,,,,,,,,,,,,,,,,,,,,,,,,,0,1,1,4,1,,,,,,,,,,,,,,,,,,,,,,,,,,,,,,,,,,,,,,,,,
708673,001,2022-11-21_24h59.50.656,Info_measure_main_exp,2022.2.2,Win32,59.88741167,,,,,,,,,,,,,,,,,,masks/mask_002.jpg,,,,,,,,,,,,,,,,,,,,,,,,,,,,,,,,,,,,,,,,,,,,,,,,0,2,2,1,1,,,,,,,,,,,,,,,,,,,,,,,,,,,,,,,,,,,,,,,,,
708673,001,2022-11-21_24h59.50.656,Info_measure_main_exp,2022.2.2,Win32,59.88741167,,,,,,,,,,,,,,,,,,masks/mask_004.jpg,,,,,,,,,,,,,,,,,,,,,,,,,,,,,,,,,,,,,,,,,,,,,,,,0,3,3,3,1,,,,,,,,,,,,,,,,,,,,,,,,,,,,,,,,,,,,,,,,,
708673,001,2022-11-21_24h59.50.656,Info_measure_main_exp,2022.2.2,Win32,59.88741167,,,,,,,,,,,,,,,,,,masks/mask_001.jpg,,,,,,,,,,,,,,,,,,,,,,,,,,,,,,,,,,,,,,,,,,,,,,,,0,4,4,0,1,,,,,,,,,,,,,,,,,,,,,,,,,,,,,,,,,,,,,,,,,
708673,001,2022-11-21_24h59.50.656,Info_measure_main_exp,2022.2.2,Win32,59.88741167,,,,,,,,,,,,,,,,,,,,,,,,,,,,,,6,1.0493,1,,,,,,,,,,,,0,131,5,5,2274,2082,absent_patch/patch0002274.jpg,absent_patch/patch0002082.jpg,,,,,,,,,,,,,,,,,,,,0.159583142,0.088650843,1,0,0,response1disk,7,-0.004400674,-0.002142451,1,0,0,center_square,0,6,6,100,1,,,,,,,,,,,,,,,,,,,,,,,
708673,001,2022-11-21_24h59.50.656,Info_measure_main_exp,2022.2.2,Win32,59.88741167,,,,,,,,,,,,,,,,,,masks/mask_004.jpg,,,,,,,,,,,,,,,,,,,,,,,,,,,,,,,,,,,,,,,,,,,0,0,0,3,1,,,,,,,,,,,,,,,,,,,,,,,,,,,,,,,,,,,,,,,,,,,,,,
708673,001,2022-11-21_24h59.50.656,Info_measure_main_exp,2022.2.2,Win32,59.88741167,,,,,,,,,,,,,,,,,,masks/mask_001.jpg,,,,,,,,,,,,,,,,,,,,,,,,,,,,,,,,,,,,,,,,,,,0,1,1,0,1,,,,,,,,,,,,,,,,,,,,,,,,,,,,,,,,,,,,,,,,,,,,,,
708673,001,2022-11-21_24h59.50.656,Info_measure_main_exp,2022.2.2,Win32,59.88741167,,,,,,,,,,,,,,,,,,masks/mask_002.jpg,,,,,,,,,,,,,,,,,,,,,,,,,,,,,,,,,,,,,,,,,,,0,2,2,1,1,,,,,,,,,,,,,,,,,,,,,,,,,,,,,,,,,,,,,,,,,,,,,,
708673,001,2022-11-21_24h59.50.656,Info_measure_main_exp,2022.2.2,Win32,59.88741167,,,,,,,,,,,,,,,,,,masks/mask_003.jpg,,,,,,,,,,,,,,,,,,,,,,,,,,,,,,,,,,,,,,,,,,,0,3,3,2,1,,,,,,,,,,,,,,,,,,,,,,,,,,,,,,,,,,,,,,,,,,,,,,
708673,001,2022-11-21_24h59.50.656,Info_measure_main_exp,2022.2.2,Win32,59.88741167,,,,,,,,,,,,,,,,,,masks/mask_005.jpg,,,,,,,,,,,,,,,,,,,,,,,,,,,,,,,,,,,,,,,,,,,0,4,4,4,1,,,,,,,,,,,,,,,,,,,,,,,,,,,,,,,,,,,,,,,,,,,,,,
708673,001,2022-11-21_24h59.50.656,Info_measure_main_exp,2022.2.2,Win32,59.88741167,,,,,,,,,,,,,,,,,,masks/mask_003.jpg,,,,,,,,,,,,,,,,,,,,,,,,,,,,,,,,,,,,,,,,,,,,,,,,0,0,0,2,1,,,,,,,,,,,,,,,,,,,,,,,,,,,,,,,,,,,,,,,,,
708673,001,2022-11-21_24h59.50.656,Info_measure_main_exp,2022.2.2,Win32,59.88741167,,,,,,,,,,,,,,,,,,masks/mask_001.jpg,,,,,,,,,,,,,,,,,,,,,,,,,,,,,,,,,,,,,,,,,,,,,,,,0,1,1,0,1,,,,,,,,,,,,,,,,,,,,,,,,,,,,,,,,,,,,,,,,,
708673,001,2022-11-21_24h59.50.656,Info_measure_main_exp,2022.2.2,Win32,59.88741167,,,,,,,,,,,,,,,,,,masks/mask_005.jpg,,,,,,,,,,,,,,,,,,,,,,,,,,,,,,,,,,,,,,,,,,,,,,,,0,2,2,4,1,,,,,,,,,,,,,,,,,,,,,,,,,,,,,,,,,,,,,,,,,
708673,001,2022-11-21_24h59.50.656,Info_measure_main_exp,2022.2.2,Win32,59.88741167,,,,,,,,,,,,,,,,,,masks/mask_004.jpg,,,,,,,,,,,,,,,,,,,,,,,,,,,,,,,,,,,,,,,,,,,,,,,,0,3,3,3,1,,,,,,,,,,,,,,,,,,,,,,,,,,,,,,,,,,,,,,,,,
708673,001,2022-11-21_24h59.50.656,Info_measure_main_exp,2022.2.2,Win32,59.88741167,,,,,,,,,,,,,,,,,,masks/mask_002.jpg,,,,,,,,,,,,,,,,,,,,,,,,,,,,,,,,,,,,,,,,,,,,,,,,0,4,4,1,1,,,,,,,,,,,,,,,,,,,,,,,,,,,,,,,,,,,,,,,,,
708673,001,2022-11-21_24h59.50.656,Info_measure_main_exp,2022.2.2,Win32,59.88741167,,,,,,,,,,,,,,,,,,,,,,,,,,,,,,1,2.1483,1,,,,,,,,,,,,0,131,5,5,2142,2142,absent_patch/patch0002142.jpg,absent_patch/patch0002142.jpg,,,,,,,,,,,,,,,,,,,,-0.126693667,0.086797862,1,0,0,response7disk,8,0.003011016,0.002489846,1,0,0,center_square,0,7,7,13,1,,,,,,,,,,,,,,,,,,,,,,,
708673,001,2022-11-21_24h59.50.656,Info_measure_main_exp,2022.2.2,Win32,59.88741167,,,,,,,,,,,,,,,,,,masks/mask_003.jpg,,,,,,,,,,,,,,,,,,,,,,,,,,,,,,,,,,,,,,,,,,,0,0,0,2,1,,,,,,,,,,,,,,,,,,,,,,,,,,,,,,,,,,,,,,,,,,,,,,
708673,001,2022-11-21_24h59.50.656,Info_measure_main_exp,2022.2.2,Win32,59.88741167,,,,,,,,,,,,,,,,,,masks/mask_001.jpg,,,,,,,,,,,,,,,,,,,,,,,,,,,,,,,,,,,,,,,,,,,0,1,1,0,1,,,,,,,,,,,,,,,,,,,,,,,,,,,,,,,,,,,,,,,,,,,,,,
708673,001,2022-11-21_24h59.50.656,Info_measure_main_exp,2022.2.2,Win32,59.88741167,,,,,,,,,,,,,,,,,,masks/mask_004.jpg,,,,,,,,,,,,,,,,,,,,,,,,,,,,,,,,,,,,,,,,,,,0,2,2,3,1,,,,,,,,,,,,,,,,,,,,,,,,,,,,,,,,,,,,,,,,,,,,,,
708673,001,2022-11-21_24h59.50.656,Info_measure_main_exp,2022.2.2,Win32,59.88741167,,,,,,,,,,,,,,,,,,masks/mask_005.jpg,,,,,,,,,,,,,,,,,,,,,,,,,,,,,,,,,,,,,,,,,,,0,3,3,4,1,,,,,,,,,,,,,,,,,,,,,,,,,,,,,,,,,,,,,,,,,,,,,,
708673,001,2022-11-21_24h59.50.656,Info_measure_main_exp,2022.2.2,Win32,59.88741167,,,,,,,,,,,,,,,,,,masks/mask_002.jpg,,,,,,,,,,,,,,,,,,,,,,,,,,,,,,,,,,,,,,,,,,,0,4,4,1,1,,,,,,,,,,,,,,,,,,,,,,,,,,,,,,,,,,,,,,,,,,,,,,
708673,001,2022-11-21_24h59.50.656,Info_measure_main_exp,2022.2.2,Win32,59.88741167,,,,,,,,,,,,,,,,,,masks/mask_003.jpg,,,,,,,,,,,,,,,,,,,,,,,,,,,,,,,,,,,,,,,,,,,,,,,,0,0,0,2,1,,,,,,,,,,,,,,,,,,,,,,,,,,,,,,,,,,,,,,,,,
708673,001,2022-11-21_24h59.50.656,Info_measure_main_exp,2022.2.2,Win32,59.88741167,,,,,,,,,,,,,,,,,,masks/mask_005.jpg,,,,,,,,,,,,,,,,,,,,,,,,,,,,,,,,,,,,,,,,,,,,,,,,0,1,1,4,1,,,,,,,,,,,,,,,,,,,,,,,,,,,,,,,,,,,,,,,,,
708673,001,2022-11-21_24h59.50.656,Info_measure_main_exp,2022.2.2,Win32,59.88741167,,,,,,,,,,,,,,,,,,masks/mask_001.jpg,,,,,,,,,,,,,,,,,,,,,,,,,,,,,,,,,,,,,,,,,,,,,,,,0,2,2,0,1,,,,,,,,,,,,,,,,,,,,,,,,,,,,,,,,,,,,,,,,,
708673,001,2022-11-21_24h59.50.656,Info_measure_main_exp,2022.2.2,Win32,59.88741167,,,,,,,,,,,,,,,,,,masks/mask_002.jpg,,,,,,,,,,,,,,,,,,,,,,,,,,,,,,,,,,,,,,,,,,,,,,,,0,3,3,1,1,,,,,,,,,,,,,,,,,,,,,,,,,,,,,,,,,,,,,,,,,
708673,001,2022-11-21_24h59.50.656,Info_measure_main_exp,2022.2.2,Win32,59.88741167,,,,,,,,,,,,,,,,,,masks/mask_004.jpg,,,,,,,,,,,,,,,,,,,,,,,,,,,,,,,,,,,,,,,,,,,,,,,,0,4,4,3,1,,,,,,,,,,,,,,,,,,,,,,,,,,,,,,,,,,,,,,,,,
708673,001,2022-11-21_24h59.50.656,Info_measure_main_exp,2022.2.2,Win32,59.88741167,,,,,,,,,,,,,,,,,,,,,,,,,,,,,,7,1.4654,1,,,,,,,,,,,,0,131,5,5,2238,2166,absent_patch/patch0002238.jpg,absent_patch/patch0002166.jpg,,,,,,,,,,,,,,,,,,,,0.041922522,0.164620719,1,0,0,response1disk,9,-0.004400674,0.001563394,1,0,0,center_square,0,8,8,118,1,,,,,,,,,,,,,,,,,,,,,,,
708673,001,2022-11-21_24h59.50.656,Info_measure_main_exp,2022.2.2,Win32,59.88741167,,,,,,,,,,,,,,,,,,masks/mask_001.jpg,,,,,,,,,,,,,,,,,,,,,,,,,,,,,,,,,,,,,,,,,,,0,0,0,0,1,,,,,,,,,,,,,,,,,,,,,,,,,,,,,,,,,,,,,,,,,,,,,,
708673,001,2022-11-21_24h59.50.656,Info_measure_main_exp,2022.2.2,Win32,59.88741167,,,,,,,,,,,,,,,,,,masks/mask_004.jpg,,,,,,,,,,,,,,,,,,,,,,,,,,,,,,,,,,,,,,,,,,,0,1,1,3,1,,,,,,,,,,,,,,,,,,,,,,,,,,,,,,,,,,,,,,,,,,,,,,
708673,001,2022-11-21_24h59.50.656,Info_measure_main_exp,2022.2.2,Win32,59.88741167,,,,,,,,,,,,,,,,,,masks/mask_005.jpg,,,,,,,,,,,,,,,,,,,,,,,,,,,,,,,,,,,,,,,,,,,0,2,2,4,1,,,,,,,,,,,,,,,,,,,,,,,,,,,,,,,,,,,,,,,,,,,,,,
708673,001,2022-11-21_24h59.50.656,Info_measure_main_exp,2022.2.2,Win32,59.88741167,,,,,,,,,,,,,,,,,,masks/mask_003.jpg,,,,,,,,,,,,,,,,,,,,,,,,,,,,,,,,,,,,,,,,,,,0,3,3,2,1,,,,,,,,,,,,,,,,,,,,,,,,,,,,,,,,,,,,,,,,,,,,,,
708673,001,2022-11-21_24h59.50.656,Info_measure_main_exp,2022.2.2,Win32,59.88741167,,,,,,,,,,,,,,,,,,masks/mask_002.jpg,,,,,,,,,,,,,,,,,,,,,,,,,,,,,,,,,,,,,,,,,,,0,4,4,1,1,,,,,,,,,,,,,,,,,,,,,,,,,,,,,,,,,,,,,,,,,,,,,,
708673,001,2022-11-21_24h59.50.656,Info_measure_main_exp,2022.2.2,Win32,59.88741167,,,,,,,,,,,,,,,,,,masks/mask_002.jpg,,,,,,,,,,,,,,,,,,,,,,,,,,,,,,,,,,,,,,,,,,,,,,,,0,0,0,1,1,,,,,,,,,,,,,,,,,,,,,,,,,,,,,,,,,,,,,,,,,
708673,001,2022-11-21_24h59.50.656,Info_measure_main_exp,2022.2.2,Win32,59.88741167,,,,,,,,,,,,,,,,,,masks/mask_001.jpg,,,,,,,,,,,,,,,,,,,,,,,,,,,,,,,,,,,,,,,,,,,,,,,,0,1,1,0,1,,,,,,,,,,,,,,,,,,,,,,,,,,,,,,,,,,,,,,,,,
708673,001,2022-11-21_24h59.50.656,Info_measure_main_exp,2022.2.2,Win32,59.88741167,,,,,,,,,,,,,,,,,,masks/mask_004.jpg,,,,,,,,,,,,,,,,,,,,,,,,,,,,,,,,,,,,,,,,,,,,,,,,0,2,2,3,1,,,,,,,,,,,,,,,,,,,,,,,,,,,,,,,,,,,,,,,,,
708673,001,2022-11-21_24h59.50.656,Info_measure_main_exp,2022.2.2,Win32,59.88741167,,,,,,,,,,,,,,,,,,masks/mask_005.jpg,,,,,,,,,,,,,,,,,,,,,,,,,,,,,,,,,,,,,,,,,,,,,,,,0,3,3,4,1,,,,,,,,,,,,,,,,,,,,,,,,,,,,,,,,,,,,,,,,,
708673,001,2022-11-21_24h59.50.656,Info_measure_main_exp,2022.2.2,Win32,59.88741167,,,,,,,,,,,,,,,,,,masks/mask_003.jpg,,,,,,,,,,,,,,,,,,,,,,,,,,,,,,,,,,,,,,,,,,,,,,,,0,4,4,2,1,,,,,,,,,,,,,,,,,,,,,,,,,,,,,,,,,,,,,,,,,
708673,001,2022-11-21_24h59.50.656,Info_measure_main_exp,2022.2.2,Win32,59.88741167,,,,,,,,,,,,,,,,,,,,,,,,,,,,,,5,1.848,1,,,,,,,,,,,,0,131,5,5,1986,2274,absent_patch/patch0001986.jpg,absent_patch/patch0002274.jpg,,,,,,,,,,,,,,,,,,,,0.151244962,-0.072553579,1,0,0,response3disk,10,0.003937584,0.003416258,1,0,0,center_square,0,9,9,7,1,,,,,,,,,,,,,,,,,,,,,,,
708673,001,2022-11-21_24h59.50.656,Info_measure_main_exp,2022.2.2,Win32,59.88741167,,,,,,,,,,,,,,,,,,masks/mask_005.jpg,,,,,,,,,,,,,,,,,,,,,,,,,,,,,,,,,,,,,,,,,,,0,0,0,4,1,,,,,,,,,,,,,,,,,,,,,,,,,,,,,,,,,,,,,,,,,,,,,,
708673,001,2022-11-21_24h59.50.656,Info_measure_main_exp,2022.2.2,Win32,59.88741167,,,,,,,,,,,,,,,,,,masks/mask_004.jpg,,,,,,,,,,,,,,,,,,,,,,,,,,,,,,,,,,,,,,,,,,,0,1,1,3,1,,,,,,,,,,,,,,,,,,,,,,,,,,,,,,,,,,,,,,,,,,,,,,
708673,001,2022-11-21_24h59.50.656,Info_measure_main_exp,2022.2.2,Win32,59.88741167,,,,,,,,,,,,,,,,,,masks/mask_001.jpg,,,,,,,,,,,,,,,,,,,,,,,,,,,,,,,,,,,,,,,,,,,0,2,2,0,1,,,,,,,,,,,,,,,,,,,,,,,,,,,,,,,,,,,,,,,,,,,,,,
708673,001,2022-11-21_24h59.50.656,Info_measure_main_exp,2022.2.2,Win32,59.88741167,,,,,,,,,,,,,,,,,,masks/mask_002.jpg,,,,,,,,,,,,,,,,,,,,,,,,,,,,,,,,,,,,,,,,,,,0,3,3,1,1,,,,,,,,,,,,,,,,,,,,,,,,,,,,,,,,,,,,,,,,,,,,,,
708673,001,2022-11-21_24h59.50.656,Info_measure_main_exp,2022.2.2,Win32,59.88741167,,,,,,,,,,,,,,,,,,masks/mask_003.jpg,,,,,,,,,,,,,,,,,,,,,,,,,,,,,,,,,,,,,,,,,,,0,4,4,2,1,,,,,,,,,,,,,,,,,,,,,,,,,,,,,,,,,,,,,,,,,,,,,,
708673,001,2022-11-21_24h59.50.656,Info_measure_main_exp,2022.2.2,Win32,59.88741167,,,,,,,,,,,,,,,,,,masks/mask_002.jpg,,,,,,,,,,,,,,,,,,,,,,,,,,,,,,,,,,,,,,,,,,,,,,,,0,0,0,1,1,,,,,,,,,,,,,,,,,,,,,,,,,,,,,,,,,,,,,,,,,
708673,001,2022-11-21_24h59.50.656,Info_measure_main_exp,2022.2.2,Win32,59.88741167,,,,,,,,,,,,,,,,,,masks/mask_001.jpg,,,,,,,,,,,,,,,,,,,,,,,,,,,,,,,,,,,,,,,,,,,,,,,,0,1,1,0,1,,,,,,,,,,,,,,,,,,,,,,,,,,,,,,,,,,,,,,,,,
708673,001,2022-11-21_24h59.50.656,Info_measure_main_exp,2022.2.2,Win32,59.88741167,,,,,,,,,,,,,,,,,,masks/mask_004.jpg,,,,,,,,,,,,,,,,,,,,,,,,,,,,,,,,,,,,,,,,,,,,,,,,0,2,2,3,1,,,,,,,,,,,,,,,,,,,,,,,,,,,,,,,,,,,,,,,,,
708673,001,2022-11-21_24h59.50.656,Info_measure_main_exp,2022.2.2,Win32,59.88741167,,,,,,,,,,,,,,,,,,masks/mask_003.jpg,,,,,,,,,,,,,,,,,,,,,,,,,,,,,,,,,,,,,,,,,,,,,,,,0,3,3,2,1,,,,,,,,,,,,,,,,,,,,,,,,,,,,,,,,,,,,,,,,,
708673,001,2022-11-21_24h59.50.656,Info_measure_main_exp,2022.2.2,Win32,59.88741167,,,,,,,,,,,,,,,,,,masks/mask_005.jpg,,,,,,,,,,,,,,,,,,,,,,,,,,,,,,,,,,,,,,,,,,,,,,,,0,4,4,4,1,,,,,,,,,,,,,,,,,,,,,,,,,,,,,,,,,,,,,,,,,
708673,001,2022-11-21_24h59.50.656,Info_measure_main_exp,2022.2.2,Win32,59.88741167,,,,,,,,,,,,,,,,,,,,,,,,,,,,,,0,1.9876,1,,,,,,,,,,,,0,131,5,5,2154,2154,absent_patch/patch0002154.jpg,absent_patch/patch0002154.jpg,,,,,,,,,,,,,,,,,,,,-0.114649682,0.137753276,1,0,0,response7disk,11,0.001158191,-0.007701237,1,0,0,center_square,0,10,10,89,1,,,,,,,,,,,,,,,,,,,,,,,
708673,001,2022-11-21_24h59.50.656,Info_measure_main_exp,2022.2.2,Win32,59.88741167,,,,,,,,,,,,,,,,,,masks/mask_003.jpg,,,,,,,,,,,,,,,,,,,,,,,,,,,,,,,,,,,,,,,,,,,0,0,0,2,1,,,,,,,,,,,,,,,,,,,,,,,,,,,,,,,,,,,,,,,,,,,,,,
708673,001,2022-11-21_24h59.50.656,Info_measure_main_exp,2022.2.2,Win32,59.88741167,,,,,,,,,,,,,,,,,,masks/mask_002.jpg,,,,,,,,,,,,,,,,,,,,,,,,,,,,,,,,,,,,,,,,,,,0,1,1,1,1,,,,,,,,,,,,,,,,,,,,,,,,,,,,,,,,,,,,,,,,,,,,,,
708673,001,2022-11-21_24h59.50.656,Info_measure_main_exp,2022.2.2,Win32,59.88741167,,,,,,,,,,,,,,,,,,masks/mask_004.jpg,,,,,,,,,,,,,,,,,,,,,,,,,,,,,,,,,,,,,,,,,,,0,2,2,3,1,,,,,,,,,,,,,,,,,,,,,,,,,,,,,,,,,,,,,,,,,,,,,,
708673,001,2022-11-21_24h59.50.656,Info_measure_main_exp,2022.2.2,Win32,59.88741167,,,,,,,,,,,,,,,,,,masks/mask_001.jpg,,,,,,,,,,,,,,,,,,,,,,,,,,,,,,,,,,,,,,,,,,,0,3,3,0,1,,,,,,,,,,,,,,,,,,,,,,,,,,,,,,,,,,,,,,,,,,,,,,
708673,001,2022-11-21_24h59.50.656,Info_measure_main_exp,2022.2.2,Win32,59.88741167,,,,,,,,,,,,,,,,,,masks/mask_005.jpg,,,,,,,,,,,,,,,,,,,,,,,,,,,,,,,,,,,,,,,,,,,0,4,4,4,1,,,,,,,,,,,,,,,,,,,,,,,,,,,,,,,,,,,,,,,,,,,,,,
708673,001,2022-11-21_24h59.50.656,Info_measure_main_exp,2022.2.2,Win32,59.88741167,,,,,,,,,,,,,,,,,,masks/mask_004.jpg,,,,,,,,,,,,,,,,,,,,,,,,,,,,,,,,,,,,,,,,,,,,,,,,0,0,0,3,1,,,,,,,,,,,,,,,,,,,,,,,,,,,,,,,,,,,,,,,,,
708673,001,2022-11-21_24h59.50.656,Info_measure_main_exp,2022.2.2,Win32,59.88741167,,,,,,,,,,,,,,,,,,masks/mask_005.jpg,,,,,,,,,,,,,,,,,,,,,,,,,,,,,,,,,,,,,,,,,,,,,,,,0,1,1,4,1,,,,,,,,,,,,,,,,,,,,,,,,,,,,,,,,,,,,,,,,,
708673,001,2022-11-21_24h59.50.656,Info_measure_main_exp,2022.2.2,Win32,59.88741167,,,,,,,,,,,,,,,,,,masks/mask_003.jpg,,,,,,,,,,,,,,,,,,,,,,,,,,,,,,,,,,,,,,,,,,,,,,,,0,2,2,2,1,,,,,,,,,,,,,,,,,,,,,,,,,,,,,,,,,,,,,,,,,
708673,001,2022-11-21_24h59.50.656,Info_measure_main_exp,2022.2.2,Win32,59.88741167,,,,,,,,,,,,,,,,,,masks/mask_002.jpg,,,,,,,,,,,,,,,,,,,,,,,,,,,,,,,,,,,,,,,,,,,,,,,,0,3,3,1,1,,,,,,,,,,,,,,,,,,,,,,,,,,,,,,,,,,,,,,,,,
708673,001,2022-11-21_24h59.50.656,Info_measure_main_exp,2022.2.2,Win32,59.88741167,,,,,,,,,,,,,,,,,,masks/mask_001.jpg,,,,,,,,,,,,,,,,,,,,,,,,,,,,,,,,,,,,,,,,,,,,,,,,0,4,4,0,1,,,,,,,,,,,,,,,,,,,,,,,,,,,,,,,,,,,,,,,,,
708673,001,2022-11-21_24h59.50.656,Info_measure_main_exp,2022.2.2,Win32,59.88741167,,,,,,,,,,,,,,,,,,,,,,,,,,,,,,7,1.1822,1,,,,,,,,,,,,0,131,5,5,1974,2178,absent_patch/patch0001974.jpg,absent_patch/patch0002178.jpg,,,,,,,,,,,,,,,,,,,,0.040995954,0.147017869,1,0,0,response1disk,12,-0.00069479,-0.002142451,1,0,0,center_square,0,11,11,44,1,,,,,,,,,,,,,,,,,,,,,,,
708673,001,2022-11-21_24h59.50.656,Info_measure_main_exp,2022.2.2,Win32,59.88741167,,,,,,,,,,,,,,,,,,masks/mask_004.jpg,,,,,,,,,,,,,,,,,,,,,,,,,,,,,,,,,,,,,,,,,,,0,0,0,3,1,,,,,,,,,,,,,,,,,,,,,,,,,,,,,,,,,,,,,,,,,,,,,,
708673,001,2022-11-21_24h59.50.656,Info_measure_main_exp,2022.2.2,Win32,59.88741167,,,,,,,,,,,,,,,,,,masks/mask_001.jpg,,,,,,,,,,,,,,,,,,,,,,,,,,,,,,,,,,,,,,,,,,,0,1,1,0,1,,,,,,,,,,,,,,,,,,,,,,,,,,,,,,,,,,,,,,,,,,,,,,
708673,001,2022-11-21_24h59.50.656,Info_measure_main_exp,2022.2.2,Win32,59.88741167,,,,,,,,,,,,,,,,,,masks/mask_005.jpg,,,,,,,,,,,,,,,,,,,,,,,,,,,,,,,,,,,,,,,,,,,0,2,2,4,1,,,,,,,,,,,,,,,,,,,,,,,,,,,,,,,,,,,,,,,,,,,,,,
708673,001,2022-11-21_24h59.50.656,Info_measure_main_exp,2022.2.2,Win32,59.88741167,,,,,,,,,,,,,,,,,,masks/mask_003.jpg,,,,,,,,,,,,,,,,,,,,,,,,,,,,,,,,,,,,,,,,,,,0,3,3,2,1,,,,,,,,,,,,,,,,,,,,,,,,,,,,,,,,,,,,,,,,,,,,,,
708673,001,2022-11-21_24h59.50.656,Info_measure_main_exp,2022.2.2,Win32,59.88741167,,,,,,,,,,,,,,,,,,masks/mask_002.jpg,,,,,,,,,,,,,,,,,,,,,,,,,,,,,,,,,,,,,,,,,,,0,4,4,1,1,,,,,,,,,,,,,,,,,,,,,,,,,,,,,,,,,,,,,,,,,,,,,,
708673,001,2022-11-21_24h59.50.656,Info_measure_main_exp,2022.2.2,Win32,59.88741167,,,,,,,,,,,,,,,,,,masks/mask_004.jpg,,,,,,,,,,,,,,,,,,,,,,,,,,,,,,,,,,,,,,,,,,,,,,,,0,0,0,3,1,,,,,,,,,,,,,,,,,,,,,,,,,,,,,,,,,,,,,,,,,
708673,001,2022-11-21_24h59.50.656,Info_measure_main_exp,2022.2.2,Win32,59.88741167,,,,,,,,,,,,,,,,,,masks/mask_002.jpg,,,,,,,,,,,,,,,,,,,,,,,,,,,,,,,,,,,,,,,,,,,,,,,,0,1,1,1,1,,,,,,,,,,,,,,,,,,,,,,,,,,,,,,,,,,,,,,,,,
708673,001,2022-11-21_24h59.50.656,Info_measure_main_exp,2022.2.2,Win32,59.88741167,,,,,,,,,,,,,,,,,,masks/mask_001.jpg,,,,,,,,,,,,,,,,,,,,,,,,,,,,,,,,,,,,,,,,,,,,,,,,0,2,2,0,1,,,,,,,,,,,,,,,,,,,,,,,,,,,,,,,,,,,,,,,,,
708673,001,2022-11-21_24h59.50.656,Info_measure_main_exp,2022.2.2,Win32,59.88741167,,,,,,,,,,,,,,,,,,masks/mask_005.jpg,,,,,,,,,,,,,,,,,,,,,,,,,,,,,,,,,,,,,,,,,,,,,,,,0,3,3,4,1,,,,,,,,,,,,,,,,,,,,,,,,,,,,,,,,,,,,,,,,,
708673,001,2022-11-21_24h59.50.656,Info_measure_main_exp,2022.2.2,Win32,59.88741167,,,,,,,,,,,,,,,,,,masks/mask_003.jpg,,,,,,,,,,,,,,,,,,,,,,,,,,,,,,,,,,,,,,,,,,,,,,,,0,4,4,2,1,,,,,,,,,,,,,,,,,,,,,,,,,,,,,,,,,,,,,,,,,
708673,001,2022-11-21_24h59.50.656,Info_measure_main_exp,2022.2.2,Win32,59.88741167,,,,,,,,,,,,,,,,,,,,,,,,,,,,,,0,1.0486,1,,,,,,,,,,,,0,131,5,5,2298,2298,absent_patch/patch0002298.jpg,absent_patch/patch0002298.jpg,,,,,,,,,,,,,,,,,,,,-0.097046909,0.17295886,1,0,0,response7disk,13,-0.004400674,0.000636943,1,0,0,center_square,0,12,12,37,1,,,,,,,,,,,,,,,,,,,,,,,
708673,001,2022-11-21_24h59.50.656,Info_measure_main_exp,2022.2.2,Win32,59.88741167,,,,,,,,,,,,,,,,,,masks/mask_001.jpg,,,,,,,,,,,,,,,,,,,,,,,,,,,,,,,,,,,,,,,,,,,0,0,0,0,1,,,,,,,,,,,,,,,,,,,,,,,,,,,,,,,,,,,,,,,,,,,,,,
708673,001,2022-11-21_24h59.50.656,Info_measure_main_exp,2022.2.2,Win32,59.88741167,,,,,,,,,,,,,,,,,,masks/mask_003.jpg,,,,,,,,,,,,,,,,,,,,,,,,,,,,,,,,,,,,,,,,,,,0,1,1,2,1,,,,,,,,,,,,,,,,,,,,,,,,,,,,,,,,,,,,,,,,,,,,,,
708673,001,2022-11-21_24h59.50.656,Info_measure_main_exp,2022.2.2,Win32,59.88741167,,,,,,,,,,,,,,,,,,masks/mask_005.jpg,,,,,,,,,,,,,,,,,,,,,,,,,,,,,,,,,,,,,,,,,,,0,2,2,4,1,,,,,,,,,,,,,,,,,,,,,,,,,,,,,,,,,,,,,,,,,,,,,,
708673,001,2022-11-21_24h59.50.656,Info_measure_main_exp,2022.2.2,Win32,59.88741167,,,,,,,,,,,,,,,,,,masks/mask_004.jpg,,,,,,,,,,,,,,,,,,,,,,,,,,,,,,,,,,,,,,,,,,,0,3,3,3,1,,,,,,,,,,,,,,,,,,,,,,,,,,,,,,,,,,,,,,,,,,,,,,
708673,001,2022-11-21_24h59.50.656,Info_measure_main_exp,2022.2.2,Win32,59.88741167,,,,,,,,,,,,,,,,,,masks/mask_002.jpg,,,,,,,,,,,,,,,,,,,,,,,,,,,,,,,,,,,,,,,,,,,0,4,4,1,1,,,,,,,,,,,,,,,,,,,,,,,,,,,,,,,,,,,,,,,,,,,,,,
708673,001,2022-11-21_24h59.50.656,Info_measure_main_exp,2022.2.2,Win32,59.88741167,,,,,,,,,,,,,,,,,,masks/mask_004.jpg,,,,,,,,,,,,,,,,,,,,,,,,,,,,,,,,,,,,,,,,,,,,,,,,0,0,0,3,1,,,,,,,,,,,,,,,,,,,,,,,,,,,,,,,,,,,,,,,,,
708673,001,2022-11-21_24h59.50.656,Info_measure_main_exp,2022.2.2,Win32,59.88741167,,,,,,,,,,,,,,,,,,masks/mask_003.jpg,,,,,,,,,,,,,,,,,,,,,,,,,,,,,,,,,,,,,,,,,,,,,,,,0,1,1,2,1,,,,,,,,,,,,,,,,,,,,,,,,,,,,,,,,,,,,,,,,,
708673,001,2022-11-21_24h59.50.656,Info_measure_main_exp,2022.2.2,Win32,59.88741167,,,,,,,,,,,,,,,,,,masks/mask_005.jpg,,,,,,,,,,,,,,,,,,,,,,,,,,,,,,,,,,,,,,,,,,,,,,,,0,2,2,4,1,,,,,,,,,,,,,,,,,,,,,,,,,,,,,,,,,,,,,,,,,
708673,001,2022-11-21_24h59.50.656,Info_measure_main_exp,2022.2.2,Win32,59.88741167,,,,,,,,,,,,,,,,,,masks/mask_002.jpg,,,,,,,,,,,,,,,,,,,,,,,,,,,,,,,,,,,,,,,,,,,,,,,,0,3,3,1,1,,,,,,,,,,,,,,,,,,,,,,,,,,,,,,,,,,,,,,,,,
708673,001,2022-11-21_24h59.50.656,Info_measure_main_exp,2022.2.2,Win32,59.88741167,,,,,,,,,,,,,,,,,,masks/mask_001.jpg,,,,,,,,,,,,,,,,,,,,,,,,,,,,,,,,,,,,,,,,,,,,,,,,0,4,4,0,1,,,,,,,,,,,,,,,,,,,,,,,,,,,,,,,,,,,,,,,,,
708673,001,2022-11-21_24h59.50.656,Info_measure_main_exp,2022.2.2,Win32,59.88741167,,,,,,,,,,,,,,,,,,,,,,,,,,,,,,7,1.0895,1,,,,,,,,,,,,0,131,5,5,2154,2214,absent_patch/patch0002154.jpg,absent_patch/patch0002214.jpg,,,,,,,,,,,,,,,,,,,,0.091951368,0.168326564,1,0,0,response1disk,14,0.004863919,0.008048632,1,0,0,center_square,0,13,13,67,1,,,,,,,,,,,,,,,,,,,,,,,
708673,001,2022-11-21_24h59.50.656,Info_measure_main_exp,2022.2.2,Win32,59.88741167,,,,,,,,,,,,,,,,,,masks/mask_004.jpg,,,,,,,,,,,,,,,,,,,,,,,,,,,,,,,,,,,,,,,,,,,0,0,0,3,1,,,,,,,,,,,,,,,,,,,,,,,,,,,,,,,,,,,,,,,,,,,,,,
708673,001,2022-11-21_24h59.50.656,Info_measure_main_exp,2022.2.2,Win32,59.88741167,,,,,,,,,,,,,,,,,,masks/mask_005.jpg,,,,,,,,,,,,,,,,,,,,,,,,,,,,,,,,,,,,,,,,,,,0,1,1,4,1,,,,,,,,,,,,,,,,,,,,,,,,,,,,,,,,,,,,,,,,,,,,,,
708673,001,2022-11-21_24h59.50.656,Info_measure_main_exp,2022.2.2,Win32,59.88741167,,,,,,,,,,,,,,,,,,masks/mask_001.jpg,,,,,,,,,,,,,,,,,,,,,,,,,,,,,,,,,,,,,,,,,,,0,2,2,0,1,,,,,,,,,,,,,,,,,,,,,,,,,,,,,,,,,,,,,,,,,,,,,,
708673,001,2022-11-21_24h59.50.656,Info_measure_main_exp,2022.2.2,Win32,59.88741167,,,,,,,,,,,,,,,,,,masks/mask_002.jpg,,,,,,,,,,,,,,,,,,,,,,,,,,,,,,,,,,,,,,,,,,,0,3,3,1,1,,,,,,,,,,,,,,,,,,,,,,,,,,,,,,,,,,,,,,,,,,,,,,
708673,001,2022-11-21_24h59.50.656,Info_measure_main_exp,2022.2.2,Win32,59.88741167,,,,,,,,,,,,,,,,,,masks/mask_003.jpg,,,,,,,,,,,,,,,,,,,,,,,,,,,,,,,,,,,,,,,,,,,0,4,4,2,1,,,,,,,,,,,,,,,,,,,,,,,,,,,,,,,,,,,,,,,,,,,,,,
708673,001,2022-11-21_24h59.50.656,Info_measure_main_exp,2022.2.2,Win32,59.88741167,,,,,,,,,,,,,,,,,,masks/mask_004.jpg,,,,,,,,,,,,,,,,,,,,,,,,,,,,,,,,,,,,,,,,,,,,,,,,0,0,0,3,1,,,,,,,,,,,,,,,,,,,,,,,,,,,,,,,,,,,,,,,,,
708673,001,2022-11-21_24h59.50.656,Info_measure_main_exp,2022.2.2,Win32,59.88741167,,,,,,,,,,,,,,,,,,masks/mask_003.jpg,,,,,,,,,,,,,,,,,,,,,,,,,,,,,,,,,,,,,,,,,,,,,,,,0,1,1,2,1,,,,,,,,,,,,,,,,,,,,,,,,,,,,,,,,,,,,,,,,,
708673,001,2022-11-21_24h59.50.656,Info_measure_main_exp,2022.2.2,Win32,59.88741167,,,,,,,,,,,,,,,,,,masks/mask_002.jpg,,,,,,,,,,,,,,,,,,,,,,,,,,,,,,,,,,,,,,,,,,,,,,,,0,2,2,1,1,,,,,,,,,,,,,,,,,,,,,,,,,,,,,,,,,,,,,,,,,
708673,001,2022-11-21_24h59.50.656,Info_measure_main_exp,2022.2.2,Win32,59.88741167,,,,,,,,,,,,,,,,,,masks/mask_001.jpg,,,,,,,,,,,,,,,,,,,,,,,,,,,,,,,,,,,,,,,,,,,,,,,,0,3,3,0,1,,,,,,,,,,,,,,,,,,,,,,,,,,,,,,,,,,,,,,,,,
708673,001,2022-11-21_24h59.50.656,Info_measure_main_exp,2022.2.2,Win32,59.88741167,,,,,,,,,,,,,,,,,,masks/mask_005.jpg,,,,,,,,,,,,,,,,,,,,,,,,,,,,,,,,,,,,,,,,,,,,,,,,0,4,4,4,1,,,,,,,,,,,,,,,,,,,,,,,,,,,,,,,,,,,,,,,,,
708673,001,2022-11-21_24h59.50.656,Info_measure_main_exp,2022.2.2,Win32,59.88741167,,,,,,,,,,,,,,,,,,,,,,,,,,,,,,7,0.7662,1,,,,,,,,,,,,0,131,5,5,2166,1986,absent_patch/patch0002166.jpg,absent_patch/patch0001986.jpg,,,,,,,,,,,,,,,,,,,,0.063231178,0.13312098,1,0,0,response1disk,15,-0.00069479,-0.005848295,1,0,0,center_square,0,14,14,47,1,,,,,,,,,,,,,,,,,,,,,,,
708673,001,2022-11-21_24h59.50.656,Info_measure_main_exp,2022.2.2,Win32,59.88741167,,,,,,,,,,,,,,,,,,masks/mask_004.jpg,,,,,,,,,,,,,,,,,,,,,,,,,,,,,,,,,,,,,,,,,,,0,0,0,3,1,,,,,,,,,,,,,,,,,,,,,,,,,,,,,,,,,,,,,,,,,,,,,,
708673,001,2022-11-21_24h59.50.656,Info_measure_main_exp,2022.2.2,Win32,59.88741167,,,,,,,,,,,,,,,,,,masks/mask_002.jpg,,,,,,,,,,,,,,,,,,,,,,,,,,,,,,,,,,,,,,,,,,,0,1,1,1,1,,,,,,,,,,,,,,,,,,,,,,,,,,,,,,,,,,,,,,,,,,,,,,
708673,001,2022-11-21_24h59.50.656,Info_measure_main_exp,2022.2.2,Win32,59.88741167,,,,,,,,,,,,,,,,,,masks/mask_005.jpg,,,,,,,,,,,,,,,,,,,,,,,,,,,,,,,,,,,,,,,,,,,0,2,2,4,1,,,,,,,,,,,,,,,,,,,,,,,,,,,,,,,,,,,,,,,,,,,,,,
708673,001,2022-11-21_24h59.50.656,Info_measure_main_exp,2022.2.2,Win32,59.88741167,,,,,,,,,,,,,,,,,,masks/mask_003.jpg,,,,,,,,,,,,,,,,,,,,,,,,,,,,,,,,,,,,,,,,,,,0,3,3,2,1,,,,,,,,,,,,,,,,,,,,,,,,,,,,,,,,,,,,,,,,,,,,,,
708673,001,2022-11-21_24h59.50.656,Info_measure_main_exp,2022.2.2,Win32,59.88741167,,,,,,,,,,,,,,,,,,masks/mask_001.jpg,,,,,,,,,,,,,,,,,,,,,,,,,,,,,,,,,,,,,,,,,,,0,4,4,0,1,,,,,,,,,,,,,,,,,,,,,,,,,,,,,,,,,,,,,,,,,,,,,,
708673,001,2022-11-21_24h59.50.656,Info_measure_main_exp,2022.2.2,Win32,59.88741167,,,,,,,,,,,,,,,,,,masks/mask_002.jpg,,,,,,,,,,,,,,,,,,,,,,,,,,,,,,,,,,,,,,,,,,,,,,,,0,0,0,1,1,,,,,,,,,,,,,,,,,,,,,,,,,,,,,,,,,,,,,,,,,
708673,001,2022-11-21_24h59.50.656,Info_measure_main_exp,2022.2.2,Win32,59.88741167,,,,,,,,,,,,,,,,,,masks/mask_003.jpg,,,,,,,,,,,,,,,,,,,,,,,,,,,,,,,,,,,,,,,,,,,,,,,,0,1,1,2,1,,,,,,,,,,,,,,,,,,,,,,,,,,,,,,,,,,,,,,,,,
708673,001,2022-11-21_24h59.50.656,Info_measure_main_exp,2022.2.2,Win32,59.88741167,,,,,,,,,,,,,,,,,,masks/mask_001.jpg,,,,,,,,,,,,,,,,,,,,,,,,,,,,,,,,,,,,,,,,,,,,,,,,0,2,2,0,1,,,,,,,,,,,,,,,,,,,,,,,,,,,,,,,,,,,,,,,,,
708673,001,2022-11-21_24h59.50.656,Info_measure_main_exp,2022.2.2,Win32,59.88741167,,,,,,,,,,,,,,,,,,masks/mask_004.jpg,,,,,,,,,,,,,,,,,,,,,,,,,,,,,,,,,,,,,,,,,,,,,,,,0,3,3,3,1,,,,,,,,,,,,,,,,,,,,,,,,,,,,,,,,,,,,,,,,,
708673,001,2022-11-21_24h59.50.656,Info_measure_main_exp,2022.2.2,Win32,59.88741167,,,,,,,,,,,,,,,,,,masks/mask_005.jpg,,,,,,,,,,,,,,,,,,,,,,,,,,,,,,,,,,,,,,,,,,,,,,,,0,4,4,4,1,,,,,,,,,,,,,,,,,,,,,,,,,,,,,,,,,,,,,,,,,
708673,001,2022-11-21_24h59.50.656,Info_measure_main_exp,2022.2.2,Win32,59.88741167,,,,,,,,,,,,,,,,,,,,,,,,,,,,,,7,1.2818,1,,,,,,,,,,,,0,131,5,5,1974,2166,absent_patch/patch0001974.jpg,absent_patch/patch0002166.jpg,,,,,,,,,,,,,,,,,,,,0.105848334,0.14887085,1,0,0,response1disk,16,-0.00162128,0.003416258,1,0,0,center_square,0,15,15,77,1,,,,,,,,,,,,,,,,,,,,,,,
708673,001,2022-11-21_24h59.50.656,Info_measure_main_exp,2022.2.2,Win32,59.88741167,,,,,,,,,,,,,,,,,,masks/mask_004.jpg,,,,,,,,,,,,,,,,,,,,,,,,,,,,,,,,,,,,,,,,,,,0,0,0,3,1,,,,,,,,,,,,,,,,,,,,,,,,,,,,,,,,,,,,,,,,,,,,,,
708673,001,2022-11-21_24h59.50.656,Info_measure_main_exp,2022.2.2,Win32,59.88741167,,,,,,,,,,,,,,,,,,masks/mask_002.jpg,,,,,,,,,,,,,,,,,,,,,,,,,,,,,,,,,,,,,,,,,,,0,1,1,1,1,,,,,,,,,,,,,,,,,,,,,,,,,,,,,,,,,,,,,,,,,,,,,,
708673,001,2022-11-21_24h59.50.656,Info_measure_main_exp,2022.2.2,Win32,59.88741167,,,,,,,,,,,,,,,,,,masks/mask_001.jpg,,,,,,,,,,,,,,,,,,,,,,,,,,,,,,,,,,,,,,,,,,,0,2,2,0,1,,,,,,,,,,,,,,,,,,,,,,,,,,,,,,,,,,,,,,,,,,,,,,
708673,001,2022-11-21_24h59.50.656,Info_measure_main_exp,2022.2.2,Win32,59.88741167,,,,,,,,,,,,,,,,,,masks/mask_003.jpg,,,,,,,,,,,,,,,,,,,,,,,,,,,,,,,,,,,,,,,,,,,0,3,3,2,1,,,,,,,,,,,,,,,,,,,,,,,,,,,,,,,,,,,,,,,,,,,,,,
708673,001,2022-11-21_24h59.50.656,Info_measure_main_exp,2022.2.2,Win32,59.88741167,,,,,,,,,,,,,,,,,,masks/mask_005.jpg,,,,,,,,,,,,,,,,,,,,,,,,,,,,,,,,,,,,,,,,,,,0,4,4,4,1,,,,,,,,,,,,,,,,,,,,,,,,,,,,,,,,,,,,,,,,,,,,,,
708673,001,2022-11-21_24h59.50.656,Info_measure_main_exp,2022.2.2,Win32,59.88741167,,,,,,,,,,,,,,,,,,masks/mask_005.jpg,,,,,,,,,,,,,,,,,,,,,,,,,,,,,,,,,,,,,,,,,,,,,,,,0,0,0,4,1,,,,,,,,,,,,,,,,,,,,,,,,,,,,,,,,,,,,,,,,,
708673,001,2022-11-21_24h59.50.656,Info_measure_main_exp,2022.2.2,Win32,59.88741167,,,,,,,,,,,,,,,,,,masks/mask_004.jpg,,,,,,,,,,,,,,,,,,,,,,,,,,,,,,,,,,,,,,,,,,,,,,,,0,1,1,3,1,,,,,,,,,,,,,,,,,,,,,,,,,,,,,,,,,,,,,,,,,
708673,001,2022-11-21_24h59.50.656,Info_measure_main_exp,2022.2.2,Win32,59.88741167,,,,,,,,,,,,,,,,,,masks/mask_001.jpg,,,,,,,,,,,,,,,,,,,,,,,,,,,,,,,,,,,,,,,,,,,,,,,,0,2,2,0,1,,,,,,,,,,,,,,,,,,,,,,,,,,,,,,,,,,,,,,,,,
708673,001,2022-11-21_24h59.50.656,Info_measure_main_exp,2022.2.2,Win32,59.88741167,,,,,,,,,,,,,,,,,,masks/mask_003.jpg,,,,,,,,,,,,,,,,,,,,,,,,,,,,,,,,,,,,,,,,,,,,,,,,0,3,3,2,1,,,,,,,,,,,,,,,,,,,,,,,,,,,,,,,,,,,,,,,,,
708673,001,2022-11-21_24h59.50.656,Info_measure_main_exp,2022.2.2,Win32,59.88741167,,,,,,,,,,,,,,,,,,masks/mask_002.jpg,,,,,,,,,,,,,,,,,,,,,,,,,,,,,,,,,,,,,,,,,,,,,,,,0,4,4,1,1,,,,,,,,,,,,,,,,,,,,,,,,,,,,,,,,,,,,,,,,,
708673,001,2022-11-21_24h59.50.656,Info_measure_main_exp,2022.2.2,Win32,59.88741167,,,,,,,,,,,,,,,,,,,,,,,,,,,,,,6,0.6323,1,,,,,,,,,,,,0,131,5,5,2190,2082,absent_patch/patch0002190.jpg,absent_patch/patch0002082.jpg,,,,,,,,,,,,,,,,,,,,0.093804426,0.030283701,1,0,0,response1disk,17,-0.015518247,-0.003068902,1,0,0,center_square,0,16,16,112,1,,,,,,,,,,,,,,,,,,,,,,,
708673,001,2022-11-21_24h59.50.656,Info_measure_main_exp,2022.2.2,Win32,59.88741167,,,,,,,,,,,,,,,,,,masks/mask_005.jpg,,,,,,,,,,,,,,,,,,,,,,,,,,,,,,,,,,,,,,,,,,,0,0,0,4,1,,,,,,,,,,,,,,,,,,,,,,,,,,,,,,,,,,,,,,,,,,,,,,
708673,001,2022-11-21_24h59.50.656,Info_measure_main_exp,2022.2.2,Win32,59.88741167,,,,,,,,,,,,,,,,,,masks/mask_004.jpg,,,,,,,,,,,,,,,,,,,,,,,,,,,,,,,,,,,,,,,,,,,0,1,1,3,1,,,,,,,,,,,,,,,,,,,,,,,,,,,,,,,,,,,,,,,,,,,,,,
708673,001,2022-11-21_24h59.50.656,Info_measure_main_exp,2022.2.2,Win32,59.88741167,,,,,,,,,,,,,,,,,,masks/mask_002.jpg,,,,,,,,,,,,,,,,,,,,,,,,,,,,,,,,,,,,,,,,,,,0,2,2,1,1,,,,,,,,,,,,,,,,,,,,,,,,,,,,,,,,,,,,,,,,,,,,,,
708673,001,2022-11-21_24h59.50.656,Info_measure_main_exp,2022.2.2,Win32,59.88741167,,,,,,,,,,,,,,,,,,masks/mask_001.jpg,,,,,,,,,,,,,,,,,,,,,,,,,,,,,,,,,,,,,,,,,,,0,3,3,0,1,,,,,,,,,,,,,,,,,,,,,,,,,,,,,,,,,,,,,,,,,,,,,,
708673,001,2022-11-21_24h59.50.656,Info_measure_main_exp,2022.2.2,Win32,59.88741167,,,,,,,,,,,,,,,,,,masks/mask_003.jpg,,,,,,,,,,,,,,,,,,,,,,,,,,,,,,,,,,,,,,,,,,,0,4,4,2,1,,,,,,,,,,,,,,,,,,,,,,,,,,,,,,,,,,,,,,,,,,,,,,
708673,001,2022-11-21_24h59.50.656,Info_measure_main_exp,2022.2.2,Win32,59.88741167,,,,,,,,,,,,,,,,,,masks/mask_003.jpg,,,,,,,,,,,,,,,,,,,,,,,,,,,,,,,,,,,,,,,,,,,,,,,,0,0,0,2,1,,,,,,,,,,,,,,,,,,,,,,,,,,,,,,,,,,,,,,,,,
708673,001,2022-11-21_24h59.50.656,Info_measure_main_exp,2022.2.2,Win32,59.88741167,,,,,,,,,,,,,,,,,,masks/mask_004.jpg,,,,,,,,,,,,,,,,,,,,,,,,,,,,,,,,,,,,,,,,,,,,,,,,0,1,1,3,1,,,,,,,,,,,,,,,,,,,,,,,,,,,,,,,,,,,,,,,,,
708673,001,2022-11-21_24h59.50.656,Info_measure_main_exp,2022.2.2,Win32,59.88741167,,,,,,,,,,,,,,,,,,masks/mask_005.jpg,,,,,,,,,,,,,,,,,,,,,,,,,,,,,,,,,,,,,,,,,,,,,,,,0,2,2,4,1,,,,,,,,,,,,,,,,,,,,,,,,,,,,,,,,,,,,,,,,,
708673,001,2022-11-21_24h59.50.656,Info_measure_main_exp,2022.2.2,Win32,59.88741167,,,,,,,,,,,,,,,,,,masks/mask_002.jpg,,,,,,,,,,,,,,,,,,,,,,,,,,,,,,,,,,,,,,,,,,,,,,,,0,3,3,1,1,,,,,,,,,,,,,,,,,,,,,,,,,,,,,,,,,,,,,,,,,
708673,001,2022-11-21_24h59.50.656,Info_measure_main_exp,2022.2.2,Win32,59.88741167,,,,,,,,,,,,,,,,,,masks/mask_001.jpg,,,,,,,,,,,,,,,,,,,,,,,,,,,,,,,,,,,,,,,,,,,,,,,,0,4,4,0,1,,,,,,,,,,,,,,,,,,,,,,,,,,,,,,,,,,,,,,,,,
708673,001,2022-11-21_24h59.50.656,Info_measure_main_exp,2022.2.2,Win32,59.88741167,,,,,,,,,,,,,,,,,,,,,,,,,,,,,,6,0.832,1,,,,,,,,,,,,0,131,5,5,2298,2142,absent_patch/patch0002298.jpg,absent_patch/patch0002142.jpg,,,,,,,,,,,,,,,,,,,,0.134568757,0.01453387,1,0,0,response1disk,18,0.003011016,-0.003068902,1,0,0,center_square,0,17,17,49,1,,,,,,,,,,,,,,,,,,,,,,,
708673,001,2022-11-21_24h59.50.656,Info_measure_main_exp,2022.2.2,Win32,59.88741167,,,,,,,,,,,,,,,,,,masks/mask_005.jpg,,,,,,,,,,,,,,,,,,,,,,,,,,,,,,,,,,,,,,,,,,,0,0,0,4,1,,,,,,,,,,,,,,,,,,,,,,,,,,,,,,,,,,,,,,,,,,,,,,
708673,001,2022-11-21_24h59.50.656,Info_measure_main_exp,2022.2.2,Win32,59.88741167,,,,,,,,,,,,,,,,,,masks/mask_004.jpg,,,,,,,,,,,,,,,,,,,,,,,,,,,,,,,,,,,,,,,,,,,0,1,1,3,1,,,,,,,,,,,,,,,,,,,,,,,,,,,,,,,,,,,,,,,,,,,,,,
708673,001,2022-11-21_24h59.50.656,Info_measure_main_exp,2022.2.2,Win32,59.88741167,,,,,,,,,,,,,,,,,,masks/mask_002.jpg,,,,,,,,,,,,,,,,,,,,,,,,,,,,,,,,,,,,,,,,,,,0,2,2,1,1,,,,,,,,,,,,,,,,,,,,,,,,,,,,,,,,,,,,,,,,,,,,,,
708673,001,2022-11-21_24h59.50.656,Info_measure_main_exp,2022.2.2,Win32,59.88741167,,,,,,,,,,,,,,,,,,masks/mask_003.jpg,,,,,,,,,,,,,,,,,,,,,,,,,,,,,,,,,,,,,,,,,,,0,3,3,2,1,,,,,,,,,,,,,,,,,,,,,,,,,,,,,,,,,,,,,,,,,,,,,,
708673,001,2022-11-21_24h59.50.656,Info_measure_main_exp,2022.2.2,Win32,59.88741167,,,,,,,,,,,,,,,,,,masks/mask_001.jpg,,,,,,,,,,,,,,,,,,,,,,,,,,,,,,,,,,,,,,,,,,,0,4,4,0,1,,,,,,,,,,,,,,,,,,,,,,,,,,,,,,,,,,,,,,,,,,,,,,
708673,001,2022-11-21_24h59.50.656,Info_measure_main_exp,2022.2.2,Win32,59.88741167,,,,,,,,,,,,,,,,,,masks/mask_001.jpg,,,,,,,,,,,,,,,,,,,,,,,,,,,,,,,,,,,,,,,,,,,,,,,,0,0,0,0,1,,,,,,,,,,,,,,,,,,,,,,,,,,,,,,,,,,,,,,,,,
708673,001,2022-11-21_24h59.50.656,Info_measure_main_exp,2022.2.2,Win32,59.88741167,,,,,,,,,,,,,,,,,,masks/mask_002.jpg,,,,,,,,,,,,,,,,,,,,,,,,,,,,,,,,,,,,,,,,,,,,,,,,0,1,1,1,1,,,,,,,,,,,,,,,,,,,,,,,,,,,,,,,,,,,,,,,,,
708673,001,2022-11-21_24h59.50.656,Info_measure_main_exp,2022.2.2,Win32,59.88741167,,,,,,,,,,,,,,,,,,masks/mask_005.jpg,,,,,,,,,,,,,,,,,,,,,,,,,,,,,,,,,,,,,,,,,,,,,,,,0,2,2,4,1,,,,,,,,,,,,,,,,,,,,,,,,,,,,,,,,,,,,,,,,,
708673,001,2022-11-21_24h59.50.656,Info_measure_main_exp,2022.2.2,Win32,59.88741167,,,,,,,,,,,,,,,,,,masks/mask_003.jpg,,,,,,,,,,,,,,,,,,,,,,,,,,,,,,,,,,,,,,,,,,,,,,,,0,3,3,2,1,,,,,,,,,,,,,,,,,,,,,,,,,,,,,,,,,,,,,,,,,
708673,001,2022-11-21_24h59.50.656,Info_measure_main_exp,2022.2.2,Win32,59.88741167,,,,,,,,,,,,,,,,,,masks/mask_004.jpg,,,,,,,,,,,,,,,,,,,,,,,,,,,,,,,,,,,,,,,,,,,,,,,,0,4,4,3,1,,,,,,,,,,,,,,,,,,,,,,,,,,,,,,,,,,,,,,,,,
708673,001,2022-11-21_24h59.50.656,Info_measure_main_exp,2022.2.2,Win32,59.88741167,,,,,,,,,,,,,,,,,,,,,,,,,,,,,,6,0.666,1,,,,,,,,,,,,0,131,5,5,2190,1986,absent_patch/patch0002190.jpg,absent_patch/patch0001986.jpg,,,,,,,,,,,,,,,,,,,,0.130862796,0.065489284,1,0,0,response1disk,19,0.007643312,0.003416258,1,0,0,center_square,0,18,18,111,1,,,,,,,,,,,,,,,,,,,,,,,
708673,001,2022-11-21_24h59.50.656,Info_measure_main_exp,2022.2.2,Win32,59.88741167,,,,,,,,,,,,,,,,,,masks/mask_003.jpg,,,,,,,,,,,,,,,,,,,,,,,,,,,,,,,,,,,,,,,,,,,0,0,0,2,1,,,,,,,,,,,,,,,,,,,,,,,,,,,,,,,,,,,,,,,,,,,,,,
708673,001,2022-11-21_24h59.50.656,Info_measure_main_exp,2022.2.2,Win32,59.88741167,,,,,,,,,,,,,,,,,,masks/mask_002.jpg,,,,,,,,,,,,,,,,,,,,,,,,,,,,,,,,,,,,,,,,,,,0,1,1,1,1,,,,,,,,,,,,,,,,,,,,,,,,,,,,,,,,,,,,,,,,,,,,,,
708673,001,2022-11-21_24h59.50.656,Info_measure_main_exp,2022.2.2,Win32,59.88741167,,,,,,,,,,,,,,,,,,masks/mask_004.jpg,,,,,,,,,,,,,,,,,,,,,,,,,,,,,,,,,,,,,,,,,,,0,2,2,3,1,,,,,,,,,,,,,,,,,,,,,,,,,,,,,,,,,,,,,,,,,,,,,,
708673,001,2022-11-21_24h59.50.656,Info_measure_main_exp,2022.2.2,Win32,59.88741167,,,,,,,,,,,,,,,,,,masks/mask_001.jpg,,,,,,,,,,,,,,,,,,,,,,,,,,,,,,,,,,,,,,,,,,,0,3,3,0,1,,,,,,,,,,,,,,,,,,,,,,,,,,,,,,,,,,,,,,,,,,,,,,
708673,001,2022-11-21_24h59.50.656,Info_measure_main_exp,2022.2.2,Win32,59.88741167,,,,,,,,,,,,,,,,,,masks/mask_005.jpg,,,,,,,,,,,,,,,,,,,,,,,,,,,,,,,,,,,,,,,,,,,0,4,4,4,1,,,,,,,,,,,,,,,,,,,,,,,,,,,,,,,,,,,,,,,,,,,,,,
708673,001,2022-11-21_24h59.50.656,Info_measure_main_exp,2022.2.2,Win32,59.88741167,,,,,,,,,,,,,,,,,,masks/mask_003.jpg,,,,,,,,,,,,,,,,,,,,,,,,,,,,,,,,,,,,,,,,,,,,,,,,0,0,0,2,1,,,,,,,,,,,,,,,,,,,,,,,,,,,,,,,,,,,,,,,,,
708673,001,2022-11-21_24h59.50.656,Info_measure_main_exp,2022.2.2,Win32,59.88741167,,,,,,,,,,,,,,,,,,masks/mask_002.jpg,,,,,,,,,,,,,,,,,,,,,,,,,,,,,,,,,,,,,,,,,,,,,,,,0,1,1,1,1,,,,,,,,,,,,,,,,,,,,,,,,,,,,,,,,,,,,,,,,,
708673,001,2022-11-21_24h59.50.656,Info_measure_main_exp,2022.2.2,Win32,59.88741167,,,,,,,,,,,,,,,,,,masks/mask_004.jpg,,,,,,,,,,,,,,,,,,,,,,,,,,,,,,,,,,,,,,,,,,,,,,,,0,2,2,3,1,,,,,,,,,,,,,,,,,,,,,,,,,,,,,,,,,,,,,,,,,
708673,001,2022-11-21_24h59.50.656,Info_measure_main_exp,2022.2.2,Win32,59.88741167,,,,,,,,,,,,,,,,,,masks/mask_001.jpg,,,,,,,,,,,,,,,,,,,,,,,,,,,,,,,,,,,,,,,,,,,,,,,,0,3,3,0,1,,,,,,,,,,,,,,,,,,,,,,,,,,,,,,,,,,,,,,,,,
708673,001,2022-11-21_24h59.50.656,Info_measure_main_exp,2022.2.2,Win32,59.88741167,,,,,,,,,,,,,,,,,,masks/mask_005.jpg,,,,,,,,,,,,,,,,,,,,,,,,,,,,,,,,,,,,,,,,,,,,,,,,0,4,4,4,1,,,,,,,,,,,,,,,,,,,,,,,,,,,,,,,,,,,,,,,,,
708673,001,2022-11-21_24h59.50.656,Info_measure_main_exp,2022.2.2,Win32,59.88741167,,,,,,,,,,,,,,,,,,,,,,,,,,,,,,5,1.3651,1,,,,,,,,,,,,0,131,5,5,2082,1986,absent_patch/patch0002082.jpg,absent_patch/patch0001986.jpg,,,,,,,,,,,,,,,,,,,,0.14475984,-0.052171413,1,0,0,response3disk,20,0.011349273,-0.003995392,1,0,0,center_square,0,19,19,94,1,,,,,,,,,,,,,,,,,,,,,,,
708673,001,2022-11-21_24h59.50.656,Info_measure_main_exp,2022.2.2,Win32,59.88741167,,,,,,,,,,,,,,,,,,masks/mask_001.jpg,,,,,,,,,,,,,,,,,,,,,,,,,,,,,,,,,,,,,,,,,,,0,0,0,0,1,,,,,,,,,,,,,,,,,,,,,,,,,,,,,,,,,,,,,,,,,,,,,,
708673,001,2022-11-21_24h59.50.656,Info_measure_main_exp,2022.2.2,Win32,59.88741167,,,,,,,,,,,,,,,,,,masks/mask_004.jpg,,,,,,,,,,,,,,,,,,,,,,,,,,,,,,,,,,,,,,,,,,,0,1,1,3,1,,,,,,,,,,,,,,,,,,,,,,,,,,,,,,,,,,,,,,,,,,,,,,
708673,001,2022-11-21_24h59.50.656,Info_measure_main_exp,2022.2.2,Win32,59.88741167,,,,,,,,,,,,,,,,,,masks/mask_005.jpg,,,,,,,,,,,,,,,,,,,,,,,,,,,,,,,,,,,,,,,,,,,0,2,2,4,1,,,,,,,,,,,,,,,,,,,,,,,,,,,,,,,,,,,,,,,,,,,,,,
708673,001,2022-11-21_24h59.50.656,Info_measure_main_exp,2022.2.2,Win32,59.88741167,,,,,,,,,,,,,,,,,,masks/mask_003.jpg,,,,,,,,,,,,,,,,,,,,,,,,,,,,,,,,,,,,,,,,,,,0,3,3,2,1,,,,,,,,,,,,,,,,,,,,,,,,,,,,,,,,,,,,,,,,,,,,,,
708673,001,2022-11-21_24h59.50.656,Info_measure_main_exp,2022.2.2,Win32,59.88741167,,,,,,,,,,,,,,,,,,masks/mask_002.jpg,,,,,,,,,,,,,,,,,,,,,,,,,,,,,,,,,,,,,,,,,,,0,4,4,1,1,,,,,,,,,,,,,,,,,,,,,,,,,,,,,,,,,,,,,,,,,,,,,,
708673,001,2022-11-21_24h59.50.656,Info_measure_main_exp,2022.2.2,Win32,59.88741167,,,,,,,,,,,,,,,,,,masks/mask_003.jpg,,,,,,,,,,,,,,,,,,,,,,,,,,,,,,,,,,,,,,,,,,,,,,,,0,0,0,2,1,,,,,,,,,,,,,,,,,,,,,,,,,,,,,,,,,,,,,,,,,
708673,001,2022-11-21_24h59.50.656,Info_measure_main_exp,2022.2.2,Win32,59.88741167,,,,,,,,,,,,,,,,,,masks/mask_004.jpg,,,,,,,,,,,,,,,,,,,,,,,,,,,,,,,,,,,,,,,,,,,,,,,,0,1,1,3,1,,,,,,,,,,,,,,,,,,,,,,,,,,,,,,,,,,,,,,,,,
708673,001,2022-11-21_24h59.50.656,Info_measure_main_exp,2022.2.2,Win32,59.88741167,,,,,,,,,,,,,,,,,,masks/mask_001.jpg,,,,,,,,,,,,,,,,,,,,,,,,,,,,,,,,,,,,,,,,,,,,,,,,0,2,2,0,1,,,,,,,,,,,,,,,,,,,,,,,,,,,,,,,,,,,,,,,,,
708673,001,2022-11-21_24h59.50.656,Info_measure_main_exp,2022.2.2,Win32,59.88741167,,,,,,,,,,,,,,,,,,masks/mask_002.jpg,,,,,,,,,,,,,,,,,,,,,,,,,,,,,,,,,,,,,,,,,,,,,,,,0,3,3,1,1,,,,,,,,,,,,,,,,,,,,,,,,,,,,,,,,,,,,,,,,,
708673,001,2022-11-21_24h59.50.656,Info_measure_main_exp,2022.2.2,Win32,59.88741167,,,,,,,,,,,,,,,,,,masks/mask_005.jpg,,,,,,,,,,,,,,,,,,,,,,,,,,,,,,,,,,,,,,,,,,,,,,,,0,4,4,4,1,,,,,,,,,,,,,,,,,,,,,,,,,,,,,,,,,,,,,,,,,
708673,001,2022-11-21_24h59.50.656,Info_measure_main_exp,2022.2.2,Win32,59.88741167,,,,,,,,,,,,,,,,,,,,,,,,,,,,,,7,0.8657,1,,,,,,,,,,,,0,131,5,5,2082,2238,absent_patch/patch0002082.jpg,absent_patch/patch0002238.jpg,,,,,,,,,,,,,,,,,,,,0.055819333,0.099768377,1,0,0,response1disk,21,0.005790409,-0.000289548,1,0,0,center_square,0,20,20,22,1,,,,,,,,,,,,,,,,,,,,,,,
708673,001,2022-11-21_24h59.50.656,Info_measure_main_exp,2022.2.2,Win32,59.88741167,,,,,,,,,,,,,,,,,,masks/mask_005.jpg,,,,,,,,,,,,,,,,,,,,,,,,,,,,,,,,,,,,,,,,,,,0,0,0,4,1,,,,,,,,,,,,,,,,,,,,,,,,,,,,,,,,,,,,,,,,,,,,,,
708673,001,2022-11-21_24h59.50.656,Info_measure_main_exp,2022.2.2,Win32,59.88741167,,,,,,,,,,,,,,,,,,masks/mask_002.jpg,,,,,,,,,,,,,,,,,,,,,,,,,,,,,,,,,,,,,,,,,,,0,1,1,1,1,,,,,,,,,,,,,,,,,,,,,,,,,,,,,,,,,,,,,,,,,,,,,,
708673,001,2022-11-21_24h59.50.656,Info_measure_main_exp,2022.2.2,Win32,59.88741167,,,,,,,,,,,,,,,,,,masks/mask_001.jpg,,,,,,,,,,,,,,,,,,,,,,,,,,,,,,,,,,,,,,,,,,,0,2,2,0,1,,,,,,,,,,,,,,,,,,,,,,,,,,,,,,,,,,,,,,,,,,,,,,
708673,001,2022-11-21_24h59.50.656,Info_measure_main_exp,2022.2.2,Win32,59.88741167,,,,,,,,,,,,,,,,,,masks/mask_003.jpg,,,,,,,,,,,,,,,,,,,,,,,,,,,,,,,,,,,,,,,,,,,0,3,3,2,1,,,,,,,,,,,,,,,,,,,,,,,,,,,,,,,,,,,,,,,,,,,,,,
708673,001,2022-11-21_24h59.50.656,Info_measure_main_exp,2022.2.2,Win32,59.88741167,,,,,,,,,,,,,,,,,,masks/mask_004.jpg,,,,,,,,,,,,,,,,,,,,,,,,,,,,,,,,,,,,,,,,,,,0,4,4,3,1,,,,,,,,,,,,,,,,,,,,,,,,,,,,,,,,,,,,,,,,,,,,,,
708673,001,2022-11-21_24h59.50.656,Info_measure_main_exp,2022.2.2,Win32,59.88741167,,,,,,,,,,,,,,,,,,masks/mask_005.jpg,,,,,,,,,,,,,,,,,,,,,,,,,,,,,,,,,,,,,,,,,,,,,,,,0,0,0,4,1,,,,,,,,,,,,,,,,,,,,,,,,,,,,,,,,,,,,,,,,,
708673,001,2022-11-21_24h59.50.656,Info_measure_main_exp,2022.2.2,Win32,59.88741167,,,,,,,,,,,,,,,,,,masks/mask_003.jpg,,,,,,,,,,,,,,,,,,,,,,,,,,,,,,,,,,,,,,,,,,,,,,,,0,1,1,2,1,,,,,,,,,,,,,,,,,,,,,,,,,,,,,,,,,,,,,,,,,
708673,001,2022-11-21_24h59.50.656,Info_measure_main_exp,2022.2.2,Win32,59.88741167,,,,,,,,,,,,,,,,,,masks/mask_001.jpg,,,,,,,,,,,,,,,,,,,,,,,,,,,,,,,,,,,,,,,,,,,,,,,,0,2,2,0,1,,,,,,,,,,,,,,,,,,,,,,,,,,,,,,,,,,,,,,,,,
708673,001,2022-11-21_24h59.50.656,Info_measure_main_exp,2022.2.2,Win32,59.88741167,,,,,,,,,,,,,,,,,,masks/mask_004.jpg,,,,,,,,,,,,,,,,,,,,,,,,,,,,,,,,,,,,,,,,,,,,,,,,0,3,3,3,1,,,,,,,,,,,,,,,,,,,,,,,,,,,,,,,,,,,,,,,,,
708673,001,2022-11-21_24h59.50.656,Info_measure_main_exp,2022.2.2,Win32,59.88741167,,,,,,,,,,,,,,,,,,masks/mask_002.jpg,,,,,,,,,,,,,,,,,,,,,,,,,,,,,,,,,,,,,,,,,,,,,,,,0,4,4,1,1,,,,,,,,,,,,,,,,,,,,,,,,,,,,,,,,,,,,,,,,,
708673,001,2022-11-21_24h59.50.656,Info_measure_main_exp,2022.2.2,Win32,59.88741167,,,,,,,,,,,,,,,,,,,,,,,,,,,,,,3,1.2491,1,,,,,,,,,,,,0,131,5,5,2214,2082,absent_patch/patch0002214.jpg,absent_patch/patch0002082.jpg,,,,,,,,,,,,,,,,,,,,-0.019223975,-0.083671113,1,0,0,response5disk,22,0.005790409,0.005269239,1,0,0,center_square,0,21,21,103,1,,,,,,,,,,,,,,,,,,,,,,,
708673,001,2022-11-21_24h59.50.656,Info_measure_main_exp,2022.2.2,Win32,59.88741167,,,,,,,,,,,,,,,,,,masks/mask_005.jpg,,,,,,,,,,,,,,,,,,,,,,,,,,,,,,,,,,,,,,,,,,,0,0,0,4,1,,,,,,,,,,,,,,,,,,,,,,,,,,,,,,,,,,,,,,,,,,,,,,
708673,001,2022-11-21_24h59.50.656,Info_measure_main_exp,2022.2.2,Win32,59.88741167,,,,,,,,,,,,,,,,,,masks/mask_001.jpg,,,,,,,,,,,,,,,,,,,,,,,,,,,,,,,,,,,,,,,,,,,0,1,1,0,1,,,,,,,,,,,,,,,,,,,,,,,,,,,,,,,,,,,,,,,,,,,,,,
708673,001,2022-11-21_24h59.50.656,Info_measure_main_exp,2022.2.2,Win32,59.88741167,,,,,,,,,,,,,,,,,,masks/mask_003.jpg,,,,,,,,,,,,,,,,,,,,,,,,,,,,,,,,,,,,,,,,,,,0,2,2,2,1,,,,,,,,,,,,,,,,,,,,,,,,,,,,,,,,,,,,,,,,,,,,,,
708673,001,2022-11-21_24h59.50.656,Info_measure_main_exp,2022.2.2,Win32,59.88741167,,,,,,,,,,,,,,,,,,masks/mask_004.jpg,,,,,,,,,,,,,,,,,,,,,,,,,,,,,,,,,,,,,,,,,,,0,3,3,3,1,,,,,,,,,,,,,,,,,,,,,,,,,,,,,,,,,,,,,,,,,,,,,,
708673,001,2022-11-21_24h59.50.656,Info_measure_main_exp,2022.2.2,Win32,59.88741167,,,,,,,,,,,,,,,,,,masks/mask_002.jpg,,,,,,,,,,,,,,,,,,,,,,,,,,,,,,,,,,,,,,,,,,,0,4,4,1,1,,,,,,,,,,,,,,,,,,,,,,,,,,,,,,,,,,,,,,,,,,,,,,
708673,001,2022-11-21_24h59.50.656,Info_measure_main_exp,2022.2.2,Win32,59.88741167,,,,,,,,,,,,,,,,,,masks/mask_004.jpg,,,,,,,,,,,,,,,,,,,,,,,,,,,,,,,,,,,,,,,,,,,,,,,,0,0,0,3,1,,,,,,,,,,,,,,,,,,,,,,,,,,,,,,,,,,,,,,,,,
708673,001,2022-11-21_24h59.50.656,Info_measure_main_exp,2022.2.2,Win32,59.88741167,,,,,,,,,,,,,,,,,,masks/mask_002.jpg,,,,,,,,,,,,,,,,,,,,,,,,,,,,,,,,,,,,,,,,,,,,,,,,0,1,1,1,1,,,,,,,,,,,,,,,,,,,,,,,,,,,,,,,,,,,,,,,,,
708673,001,2022-11-21_24h59.50.656,Info_measure_main_exp,2022.2.2,Win32,59.88741167,,,,,,,,,,,,,,,,,,masks/mask_003.jpg,,,,,,,,,,,,,,,,,,,,,,,,,,,,,,,,,,,,,,,,,,,,,,,,0,2,2,2,1,,,,,,,,,,,,,,,,,,,,,,,,,,,,,,,,,,,,,,,,,
708673,001,2022-11-21_24h59.50.656,Info_measure_main_exp,2022.2.2,Win32,59.88741167,,,,,,,,,,,,,,,,,,masks/mask_001.jpg,,,,,,,,,,,,,,,,,,,,,,,,,,,,,,,,,,,,,,,,,,,,,,,,0,3,3,0,1,,,,,,,,,,,,,,,,,,,,,,,,,,,,,,,,,,,,,,,,,
708673,001,2022-11-21_24h59.50.656,Info_measure_main_exp,2022.2.2,Win32,59.88741167,,,,,,,,,,,,,,,,,,masks/mask_005.jpg,,,,,,,,,,,,,,,,,,,,,,,,,,,,,,,,,,,,,,,,,,,,,,,,0,4,4,4,1,,,,,,,,,,,,,,,,,,,,,,,,,,,,,,,,,,,,,,,,,
708673,001,2022-11-21_24h59.50.656,Info_measure_main_exp,2022.2.2,Win32,59.88741167,,,,,,,,,,,,,,,,,,,,,,,,,,,,,,0,1.3319,1,,,,,,,,,,,,0,131,5,5,2250,2250,absent_patch/patch0002250.jpg,absent_patch/patch0002250.jpg,,,,,,,,,,,,,,,,,,,,-0.080370472,0.144238553,1,0,0,response7disk,23,-0.005327164,0.00619569,1,0,0,center_square,0,22,22,56,1,,,,,,,,,,,,,,,,,,,,,,,
708673,001,2022-11-21_24h59.50.656,Info_measure_main_exp,2022.2.2,Win32,59.88741167,,,,,,,,,,,,,,,,,,masks/mask_004.jpg,,,,,,,,,,,,,,,,,,,,,,,,,,,,,,,,,,,,,,,,,,,0,0,0,3,1,,,,,,,,,,,,,,,,,,,,,,,,,,,,,,,,,,,,,,,,,,,,,,
708673,001,2022-11-21_24h59.50.656,Info_measure_main_exp,2022.2.2,Win32,59.88741167,,,,,,,,,,,,,,,,,,masks/mask_001.jpg,,,,,,,,,,,,,,,,,,,,,,,,,,,,,,,,,,,,,,,,,,,0,1,1,0,1,,,,,,,,,,,,,,,,,,,,,,,,,,,,,,,,,,,,,,,,,,,,,,
708673,001,2022-11-21_24h59.50.656,Info_measure_main_exp,2022.2.2,Win32,59.88741167,,,,,,,,,,,,,,,,,,masks/mask_003.jpg,,,,,,,,,,,,,,,,,,,,,,,,,,,,,,,,,,,,,,,,,,,0,2,2,2,1,,,,,,,,,,,,,,,,,,,,,,,,,,,,,,,,,,,,,,,,,,,,,,
708673,001,2022-11-21_24h59.50.656,Info_measure_main_exp,2022.2.2,Win32,59.88741167,,,,,,,,,,,,,,,,,,masks/mask_005.jpg,,,,,,,,,,,,,,,,,,,,,,,,,,,,,,,,,,,,,,,,,,,0,3,3,4,1,,,,,,,,,,,,,,,,,,,,,,,,,,,,,,,,,,,,,,,,,,,,,,
708673,001,2022-11-21_24h59.50.656,Info_measure_main_exp,2022.2.2,Win32,59.88741167,,,,,,,,,,,,,,,,,,masks/mask_002.jpg,,,,,,,,,,,,,,,,,,,,,,,,,,,,,,,,,,,,,,,,,,,0,4,4,1,1,,,,,,,,,,,,,,,,,,,,,,,,,,,,,,,,,,,,,,,,,,,,,,
708673,001,2022-11-21_24h59.50.656,Info_measure_main_exp,2022.2.2,Win32,59.88741167,,,,,,,,,,,,,,,,,,masks/mask_004.jpg,,,,,,,,,,,,,,,,,,,,,,,,,,,,,,,,,,,,,,,,,,,,,,,,0,0,0,3,1,,,,,,,,,,,,,,,,,,,,,,,,,,,,,,,,,,,,,,,,,
708673,001,2022-11-21_24h59.50.656,Info_measure_main_exp,2022.2.2,Win32,59.88741167,,,,,,,,,,,,,,,,,,masks/mask_005.jpg,,,,,,,,,,,,,,,,,,,,,,,,,,,,,,,,,,,,,,,,,,,,,,,,0,1,1,4,1,,,,,,,,,,,,,,,,,,,,,,,,,,,,,,,,,,,,,,,,,
708673,001,2022-11-21_24h59.50.656,Info_measure_main_exp,2022.2.2,Win32,59.88741167,,,,,,,,,,,,,,,,,,masks/mask_001.jpg,,,,,,,,,,,,,,,,,,,,,,,,,,,,,,,,,,,,,,,,,,,,,,,,0,2,2,0,1,,,,,,,,,,,,,,,,,,,,,,,,,,,,,,,,,,,,,,,,,
708673,001,2022-11-21_24h59.50.656,Info_measure_main_exp,2022.2.2,Win32,59.88741167,,,,,,,,,,,,,,,,,,masks/mask_002.jpg,,,,,,,,,,,,,,,,,,,,,,,,,,,,,,,,,,,,,,,,,,,,,,,,0,3,3,1,1,,,,,,,,,,,,,,,,,,,,,,,,,,,,,,,,,,,,,,,,,
708673,001,2022-11-21_24h59.50.656,Info_measure_main_exp,2022.2.2,Win32,59.88741167,,,,,,,,,,,,,,,,,,masks/mask_003.jpg,,,,,,,,,,,,,,,,,,,,,,,,,,,,,,,,,,,,,,,,,,,,,,,,0,4,4,2,1,,,,,,,,,,,,,,,,,,,,,,,,,,,,,,,,,,,,,,,,,
708673,001,2022-11-21_24h59.50.656,Info_measure_main_exp,2022.2.2,Win32,59.88741167,,,,,,,,,,,,,,,,,,,,,,,,,,,,,,2,1.8757,1,,,,,,,,,,,,1,131,5,5,1,2178,present_patch/cong_131_5_a.jpg,absent_patch/patch0002178.jpg,,,,,,,,,,,,,,,,,,,,-0.121134803,-0.061436044,1,0,0,response5disk,24,-0.006253499,-0.001215999,1,0,0,center_square,0,23,23,40,1,,,,,,,,,,,,,,,,,,,,,,,
708673,001,2022-11-21_24h59.50.656,Info_measure_main_exp,2022.2.2,Win32,59.88741167,,,,,,,,,,,,,,,,,,masks/mask_003.jpg,,,,,,,,,,,,,,,,,,,,,,,,,,,,,,,,,,,,,,,,,,,0,0,0,2,1,,,,,,,,,,,,,,,,,,,,,,,,,,,,,,,,,,,,,,,,,,,,,,
708673,001,2022-11-21_24h59.50.656,Info_measure_main_exp,2022.2.2,Win32,59.88741167,,,,,,,,,,,,,,,,,,masks/mask_002.jpg,,,,,,,,,,,,,,,,,,,,,,,,,,,,,,,,,,,,,,,,,,,0,1,1,1,1,,,,,,,,,,,,,,,,,,,,,,,,,,,,,,,,,,,,,,,,,,,,,,
708673,001,2022-11-21_24h59.50.656,Info_measure_main_exp,2022.2.2,Win32,59.88741167,,,,,,,,,,,,,,,,,,masks/mask_004.jpg,,,,,,,,,,,,,,,,,,,,,,,,,,,,,,,,,,,,,,,,,,,0,2,2,3,1,,,,,,,,,,,,,,,,,,,,,,,,,,,,,,,,,,,,,,,,,,,,,,
708673,001,2022-11-21_24h59.50.656,Info_measure_main_exp,2022.2.2,Win32,59.88741167,,,,,,,,,,,,,,,,,,masks/mask_001.jpg,,,,,,,,,,,,,,,,,,,,,,,,,,,,,,,,,,,,,,,,,,,0,3,3,0,1,,,,,,,,,,,,,,,,,,,,,,,,,,,,,,,,,,,,,,,,,,,,,,
708673,001,2022-11-21_24h59.50.656,Info_measure_main_exp,2022.2.2,Win32,59.88741167,,,,,,,,,,,,,,,,,,masks/mask_005.jpg,,,,,,,,,,,,,,,,,,,,,,,,,,,,,,,,,,,,,,,,,,,0,4,4,4,1,,,,,,,,,,,,,,,,,,,,,,,,,,,,,,,,,,,,,,,,,,,,,,
708673,001,2022-11-21_24h59.50.656,Info_measure_main_exp,2022.2.2,Win32,59.88741167,,,,,,,,,,,,,,,,,,masks/mask_003.jpg,,,,,,,,,,,,,,,,,,,,,,,,,,,,,,,,,,,,,,,,,,,,,,,,0,0,0,2,1,,,,,,,,,,,,,,,,,,,,,,,,,,,,,,,,,,,,,,,,,
708673,001,2022-11-21_24h59.50.656,Info_measure_main_exp,2022.2.2,Win32,59.88741167,,,,,,,,,,,,,,,,,,masks/mask_004.jpg,,,,,,,,,,,,,,,,,,,,,,,,,,,,,,,,,,,,,,,,,,,,,,,,0,1,1,3,1,,,,,,,,,,,,,,,,,,,,,,,,,,,,,,,,,,,,,,,,,
708673,001,2022-11-21_24h59.50.656,Info_measure_main_exp,2022.2.2,Win32,59.88741167,,,,,,,,,,,,,,,,,,masks/mask_001.jpg,,,,,,,,,,,,,,,,,,,,,,,,,,,,,,,,,,,,,,,,,,,,,,,,0,2,2,0,1,,,,,,,,,,,,,,,,,,,,,,,,,,,,,,,,,,,,,,,,,
708673,001,2022-11-21_24h59.50.656,Info_measure_main_exp,2022.2.2,Win32,59.88741167,,,,,,,,,,,,,,,,,,masks/mask_002.jpg,,,,,,,,,,,,,,,,,,,,,,,,,,,,,,,,,,,,,,,,,,,,,,,,0,3,3,1,1,,,,,,,,,,,,,,,,,,,,,,,,,,,,,,,,,,,,,,,,,
708673,001,2022-11-21_24h59.50.656,Info_measure_main_exp,2022.2.2,Win32,59.88741167,,,,,,,,,,,,,,,,,,masks/mask_005.jpg,,,,,,,,,,,,,,,,,,,,,,,,,,,,,,,,,,,,,,,,,,,,,,,,0,4,4,4,1,,,,,,,,,,,,,,,,,,,,,,,,,,,,,,,,,,,,,,,,,
708673,001,2022-11-21_24h59.50.656,Info_measure_main_exp,2022.2.2,Win32,59.88741167,,,,,,,,,,,,,,,,,,,,,,,,,,,,,,7,0.9323,1,,,,,,,,,,,,0,131,5,5,1974,2214,absent_patch/patch0001974.jpg,absent_patch/patch0002214.jpg,,,,,,,,,,,,,,,,,,,,0.091951368,0.121076956,1,0,0,response1disk,25,-0.009032892,-0.011407082,1,0,0,center_square,0,24,24,24,1,,,,,,,,,,,,,,,,,,,,,,,
708673,001,2022-11-21_24h59.50.656,Info_measure_main_exp,2022.2.2,Win32,59.88741167,,,,,,,,,,,,,,,,,,masks/mask_001.jpg,,,,,,,,,,,,,,,,,,,,,,,,,,,,,,,,,,,,,,,,,,,0,0,0,0,1,,,,,,,,,,,,,,,,,,,,,,,,,,,,,,,,,,,,,,,,,,,,,,
708673,001,2022-11-21_24h59.50.656,Info_measure_main_exp,2022.2.2,Win32,59.88741167,,,,,,,,,,,,,,,,,,masks/mask_004.jpg,,,,,,,,,,,,,,,,,,,,,,,,,,,,,,,,,,,,,,,,,,,0,1,1,3,1,,,,,,,,,,,,,,,,,,,,,,,,,,,,,,,,,,,,,,,,,,,,,,
708673,001,2022-11-21_24h59.50.656,Info_measure_main_exp,2022.2.2,Win32,59.88741167,,,,,,,,,,,,,,,,,,masks/mask_003.jpg,,,,,,,,,,,,,,,,,,,,,,,,,,,,,,,,,,,,,,,,,,,0,2,2,2,1,,,,,,,,,,,,,,,,,,,,,,,,,,,,,,,,,,,,,,,,,,,,,,
708673,001,2022-11-21_24h59.50.656,Info_measure_main_exp,2022.2.2,Win32,59.88741167,,,,,,,,,,,,,,,,,,masks/mask_002.jpg,,,,,,,,,,,,,,,,,,,,,,,,,,,,,,,,,,,,,,,,,,,0,3,3,1,1,,,,,,,,,,,,,,,,,,,,,,,,,,,,,,,,,,,,,,,,,,,,,,
708673,001,2022-11-21_24h59.50.656,Info_measure_main_exp,2022.2.2,Win32,59.88741167,,,,,,,,,,,,,,,,,,masks/mask_005.jpg,,,,,,,,,,,,,,,,,,,,,,,,,,,,,,,,,,,,,,,,,,,0,4,4,4,1,,,,,,,,,,,,,,,,,,,,,,,,,,,,,,,,,,,,,,,,,,,,,,
708673,001,2022-11-21_24h59.50.656,Info_measure_main_exp,2022.2.2,Win32,59.88741167,,,,,,,,,,,,,,,,,,masks/mask_001.jpg,,,,,,,,,,,,,,,,,,,,,,,,,,,,,,,,,,,,,,,,,,,,,,,,0,0,0,0,1,,,,,,,,,,,,,,,,,,,,,,,,,,,,,,,,,,,,,,,,,
708673,001,2022-11-21_24h59.50.656,Info_measure_main_exp,2022.2.2,Win32,59.88741167,,,,,,,,,,,,,,,,,,masks/mask_004.jpg,,,,,,,,,,,,,,,,,,,,,,,,,,,,,,,,,,,,,,,,,,,,,,,,0,1,1,3,1,,,,,,,,,,,,,,,,,,,,,,,,,,,,,,,,,,,,,,,,,
708673,001,2022-11-21_24h59.50.656,Info_measure_main_exp,2022.2.2,Win32,59.88741167,,,,,,,,,,,,,,,,,,masks/mask_003.jpg,,,,,,,,,,,,,,,,,,,,,,,,,,,,,,,,,,,,,,,,,,,,,,,,0,2,2,2,1,,,,,,,,,,,,,,,,,,,,,,,,,,,,,,,,,,,,,,,,,
708673,001,2022-11-21_24h59.50.656,Info_measure_main_exp,2022.2.2,Win32,59.88741167,,,,,,,,,,,,,,,,,,masks/mask_002.jpg,,,,,,,,,,,,,,,,,,,,,,,,,,,,,,,,,,,,,,,,,,,,,,,,0,3,3,1,1,,,,,,,,,,,,,,,,,,,,,,,,,,,,,,,,,,,,,,,,,
708673,001,2022-11-21_24h59.50.656,Info_measure_main_exp,2022.2.2,Win32,59.88741167,,,,,,,,,,,,,,,,,,masks/mask_005.jpg,,,,,,,,,,,,,,,,,,,,,,,,,,,,,,,,,,,,,,,,,,,,,,,,0,4,4,4,1,,,,,,,,,,,,,,,,,,,,,,,,,,,,,,,,,,,,,,,,,
708673,001,2022-11-21_24h59.50.656,Info_measure_main_exp,2022.2.2,Win32,59.88741167,,,,,,,,,,,,,,,,,,,,,,,,,,,,,,0,1.2319,1,,,,,,,,,,,,1,131,5,5,1,1,present_patch/cong_131_5_a.jpg,present_patch/cong_131_5_a.jpg,,,,,,,,,,,,,,,,,,,,-0.114649682,0.134973922,1,0,0,response7disk,26,-0.006253499,0.000636943,1,0,0,center_square,0,25,25,30,1,,,,,,,,,,,,,,,,,,,,,,,
708673,001,2022-11-21_24h59.50.656,Info_measure_main_exp,2022.2.2,Win32,59.88741167,,,,,,,,,,,,,,,,,,masks/mask_003.jpg,,,,,,,,,,,,,,,,,,,,,,,,,,,,,,,,,,,,,,,,,,,0,0,0,2,1,,,,,,,,,,,,,,,,,,,,,,,,,,,,,,,,,,,,,,,,,,,,,,
708673,001,2022-11-21_24h59.50.656,Info_measure_main_exp,2022.2.2,Win32,59.88741167,,,,,,,,,,,,,,,,,,masks/mask_005.jpg,,,,,,,,,,,,,,,,,,,,,,,,,,,,,,,,,,,,,,,,,,,0,1,1,4,1,,,,,,,,,,,,,,,,,,,,,,,,,,,,,,,,,,,,,,,,,,,,,,
708673,001,2022-11-21_24h59.50.656,Info_measure_main_exp,2022.2.2,Win32,59.88741167,,,,,,,,,,,,,,,,,,masks/mask_002.jpg,,,,,,,,,,,,,,,,,,,,,,,,,,,,,,,,,,,,,,,,,,,0,2,2,1,1,,,,,,,,,,,,,,,,,,,,,,,,,,,,,,,,,,,,,,,,,,,,,,
708673,001,2022-11-21_24h59.50.656,Info_measure_main_exp,2022.2.2,Win32,59.88741167,,,,,,,,,,,,,,,,,,masks/mask_004.jpg,,,,,,,,,,,,,,,,,,,,,,,,,,,,,,,,,,,,,,,,,,,0,3,3,3,1,,,,,,,,,,,,,,,,,,,,,,,,,,,,,,,,,,,,,,,,,,,,,,
708673,001,2022-11-21_24h59.50.656,Info_measure_main_exp,2022.2.2,Win32,59.88741167,,,,,,,,,,,,,,,,,,masks/mask_001.jpg,,,,,,,,,,,,,,,,,,,,,,,,,,,,,,,,,,,,,,,,,,,0,4,4,0,1,,,,,,,,,,,,,,,,,,,,,,,,,,,,,,,,,,,,,,,,,,,,,,
708673,001,2022-11-21_24h59.50.656,Info_measure_main_exp,2022.2.2,Win32,59.88741167,,,,,,,,,,,,,,,,,,masks/mask_002.jpg,,,,,,,,,,,,,,,,,,,,,,,,,,,,,,,,,,,,,,,,,,,,,,,,0,0,0,1,1,,,,,,,,,,,,,,,,,,,,,,,,,,,,,,,,,,,,,,,,,
708673,001,2022-11-21_24h59.50.656,Info_measure_main_exp,2022.2.2,Win32,59.88741167,,,,,,,,,,,,,,,,,,masks/mask_005.jpg,,,,,,,,,,,,,,,,,,,,,,,,,,,,,,,,,,,,,,,,,,,,,,,,0,1,1,4,1,,,,,,,,,,,,,,,,,,,,,,,,,,,,,,,,,,,,,,,,,
708673,001,2022-11-21_24h59.50.656,Info_measure_main_exp,2022.2.2,Win32,59.88741167,,,,,,,,,,,,,,,,,,masks/mask_004.jpg,,,,,,,,,,,,,,,,,,,,,,,,,,,,,,,,,,,,,,,,,,,,,,,,0,2,2,3,1,,,,,,,,,,,,,,,,,,,,,,,,,,,,,,,,,,,,,,,,,
708673,001,2022-11-21_24h59.50.656,Info_measure_main_exp,2022.2.2,Win32,59.88741167,,,,,,,,,,,,,,,,,,masks/mask_001.jpg,,,,,,,,,,,,,,,,,,,,,,,,,,,,,,,,,,,,,,,,,,,,,,,,0,3,3,0,1,,,,,,,,,,,,,,,,,,,,,,,,,,,,,,,,,,,,,,,,,
708673,001,2022-11-21_24h59.50.656,Info_measure_main_exp,2022.2.2,Win32,59.88741167,,,,,,,,,,,,,,,,,,masks/mask_003.jpg,,,,,,,,,,,,,,,,,,,,,,,,,,,,,,,,,,,,,,,,,,,,,,,,0,4,4,2,1,,,,,,,,,,,,,,,,,,,,,,,,,,,,,,,,,,,,,,,,,
708673,001,2022-11-21_24h59.50.656,Info_measure_main_exp,2022.2.2,Win32,59.88741167,,,,,,,,,,,,,,,,,,,,,,,,,,,,,,7,0.9821,1,,,,,,,,,,,,0,131,5,5,2082,1974,absent_patch/patch0002082.jpg,absent_patch/patch0001974.jpg,,,,,,,,,,,,,,,,,,,,0.11696583,0.161841287,1,0,0,response1disk,27,0.001158191,-0.013259985,1,0,0,center_square,0,26,26,26,1,,,,,,,,,,,,,,,,,,,,,,,
708673,001,2022-11-21_24h59.50.656,Info_measure_main_exp,2022.2.2,Win32,59.88741167,,,,,,,,,,,,,,,,,,masks/mask_004.jpg,,,,,,,,,,,,,,,,,,,,,,,,,,,,,,,,,,,,,,,,,,,0,0,0,3,1,,,,,,,,,,,,,,,,,,,,,,,,,,,,,,,,,,,,,,,,,,,,,,
708673,001,2022-11-21_24h59.50.656,Info_measure_main_exp,2022.2.2,Win32,59.88741167,,,,,,,,,,,,,,,,,,masks/mask_003.jpg,,,,,,,,,,,,,,,,,,,,,,,,,,,,,,,,,,,,,,,,,,,0,1,1,2,1,,,,,,,,,,,,,,,,,,,,,,,,,,,,,,,,,,,,,,,,,,,,,,
708673,001,2022-11-21_24h59.50.656,Info_measure_main_exp,2022.2.2,Win32,59.88741167,,,,,,,,,,,,,,,,,,masks/mask_002.jpg,,,,,,,,,,,,,,,,,,,,,,,,,,,,,,,,,,,,,,,,,,,0,2,2,1,1,,,,,,,,,,,,,,,,,,,,,,,,,,,,,,,,,,,,,,,,,,,,,,
708673,001,2022-11-21_24h59.50.656,Info_measure_main_exp,2022.2.2,Win32,59.88741167,,,,,,,,,,,,,,,,,,masks/mask_001.jpg,,,,,,,,,,,,,,,,,,,,,,,,,,,,,,,,,,,,,,,,,,,0,3,3,0,1,,,,,,,,,,,,,,,,,,,,,,,,,,,,,,,,,,,,,,,,,,,,,,
708673,001,2022-11-21_24h59.50.656,Info_measure_main_exp,2022.2.2,Win32,59.88741167,,,,,,,,,,,,,,,,,,masks/mask_005.jpg,,,,,,,,,,,,,,,,,,,,,,,,,,,,,,,,,,,,,,,,,,,0,4,4,4,1,,,,,,,,,,,,,,,,,,,,,,,,,,,,,,,,,,,,,,,,,,,,,,
708673,001,2022-11-21_24h59.50.656,Info_measure_main_exp,2022.2.2,Win32,59.88741167,,,,,,,,,,,,,,,,,,masks/mask_001.jpg,,,,,,,,,,,,,,,,,,,,,,,,,,,,,,,,,,,,,,,,,,,,,,,,0,0,0,0,1,,,,,,,,,,,,,,,,,,,,,,,,,,,,,,,,,,,,,,,,,
708673,001,2022-11-21_24h59.50.656,Info_measure_main_exp,2022.2.2,Win32,59.88741167,,,,,,,,,,,,,,,,,,masks/mask_002.jpg,,,,,,,,,,,,,,,,,,,,,,,,,,,,,,,,,,,,,,,,,,,,,,,,0,1,1,1,1,,,,,,,,,,,,,,,,,,,,,,,,,,,,,,,,,,,,,,,,,
708673,001,2022-11-21_24h59.50.656,Info_measure_main_exp,2022.2.2,Win32,59.88741167,,,,,,,,,,,,,,,,,,masks/mask_005.jpg,,,,,,,,,,,,,,,,,,,,,,,,,,,,,,,,,,,,,,,,,,,,,,,,0,2,2,4,1,,,,,,,,,,,,,,,,,,,,,,,,,,,,,,,,,,,,,,,,,
708673,001,2022-11-21_24h59.50.656,Info_measure_main_exp,2022.2.2,Win32,59.88741167,,,,,,,,,,,,,,,,,,masks/mask_004.jpg,,,,,,,,,,,,,,,,,,,,,,,,,,,,,,,,,,,,,,,,,,,,,,,,0,3,3,3,1,,,,,,,,,,,,,,,,,,,,,,,,,,,,,,,,,,,,,,,,,
708673,001,2022-11-21_24h59.50.656,Info_measure_main_exp,2022.2.2,Win32,59.88741167,,,,,,,,,,,,,,,,,,masks/mask_003.jpg,,,,,,,,,,,,,,,,,,,,,,,,,,,,,,,,,,,,,,,,,,,,,,,,0,4,4,2,1,,,,,,,,,,,,,,,,,,,,,,,,,,,,,,,,,,,,,,,,,
708673,001,2022-11-21_24h59.50.656,Info_measure_main_exp,2022.2.2,Win32,59.88741167,,,,,,,,,,,,,,,,,,,,,,,,,,,,,,7,1.4157,1,,,,,,,,,,,,1,131,5,5,2082,1,absent_patch/patch0002082.jpg,present_patch/cong_131_5_a.jpg,,,,,,,,,,,,,,,,,,,,0.107701237,0.166473661,1,0,0,response1disk,28,-0.00162128,0.008975084,1,0,0,center_square,0,27,27,65,1,,,,,,,,,,,,,,,,,,,,,,,
708673,001,2022-11-21_24h59.50.656,Info_measure_main_exp,2022.2.2,Win32,59.88741167,,,,,,,,,,,,,,,,,,masks/mask_004.jpg,,,,,,,,,,,,,,,,,,,,,,,,,,,,,,,,,,,,,,,,,,,0,0,0,3,1,,,,,,,,,,,,,,,,,,,,,,,,,,,,,,,,,,,,,,,,,,,,,,
708673,001,2022-11-21_24h59.50.656,Info_measure_main_exp,2022.2.2,Win32,59.88741167,,,,,,,,,,,,,,,,,,masks/mask_002.jpg,,,,,,,,,,,,,,,,,,,,,,,,,,,,,,,,,,,,,,,,,,,0,1,1,1,1,,,,,,,,,,,,,,,,,,,,,,,,,,,,,,,,,,,,,,,,,,,,,,
708673,001,2022-11-21_24h59.50.656,Info_measure_main_exp,2022.2.2,Win32,59.88741167,,,,,,,,,,,,,,,,,,masks/mask_005.jpg,,,,,,,,,,,,,,,,,,,,,,,,,,,,,,,,,,,,,,,,,,,0,2,2,4,1,,,,,,,,,,,,,,,,,,,,,,,,,,,,,,,,,,,,,,,,,,,,,,
708673,001,2022-11-21_24h59.50.656,Info_measure_main_exp,2022.2.2,Win32,59.88741167,,,,,,,,,,,,,,,,,,masks/mask_001.jpg,,,,,,,,,,,,,,,,,,,,,,,,,,,,,,,,,,,,,,,,,,,0,3,3,0,1,,,,,,,,,,,,,,,,,,,,,,,,,,,,,,,,,,,,,,,,,,,,,,
708673,001,2022-11-21_24h59.50.656,Info_measure_main_exp,2022.2.2,Win32,59.88741167,,,,,,,,,,,,,,,,,,masks/mask_003.jpg,,,,,,,,,,,,,,,,,,,,,,,,,,,,,,,,,,,,,,,,,,,0,4,4,2,1,,,,,,,,,,,,,,,,,,,,,,,,,,,,,,,,,,,,,,,,,,,,,,
708673,001,2022-11-21_24h59.50.656,Info_measure_main_exp,2022.2.2,Win32,59.88741167,,,,,,,,,,,,,,,,,,masks/mask_004.jpg,,,,,,,,,,,,,,,,,,,,,,,,,,,,,,,,,,,,,,,,,,,,,,,,0,0,0,3,1,,,,,,,,,,,,,,,,,,,,,,,,,,,,,,,,,,,,,,,,,
708673,001,2022-11-21_24h59.50.656,Info_measure_main_exp,2022.2.2,Win32,59.88741167,,,,,,,,,,,,,,,,,,masks/mask_003.jpg,,,,,,,,,,,,,,,,,,,,,,,,,,,,,,,,,,,,,,,,,,,,,,,,0,1,1,2,1,,,,,,,,,,,,,,,,,,,,,,,,,,,,,,,,,,,,,,,,,
708673,001,2022-11-21_24h59.50.656,Info_measure_main_exp,2022.2.2,Win32,59.88741167,,,,,,,,,,,,,,,,,,masks/mask_002.jpg,,,,,,,,,,,,,,,,,,,,,,,,,,,,,,,,,,,,,,,,,,,,,,,,0,2,2,1,1,,,,,,,,,,,,,,,,,,,,,,,,,,,,,,,,,,,,,,,,,
708673,001,2022-11-21_24h59.50.656,Info_measure_main_exp,2022.2.2,Win32,59.88741167,,,,,,,,,,,,,,,,,,masks/mask_005.jpg,,,,,,,,,,,,,,,,,,,,,,,,,,,,,,,,,,,,,,,,,,,,,,,,0,3,3,4,1,,,,,,,,,,,,,,,,,,,,,,,,,,,,,,,,,,,,,,,,,
708673,001,2022-11-21_24h59.50.656,Info_measure_main_exp,2022.2.2,Win32,59.88741167,,,,,,,,,,,,,,,,,,masks/mask_001.jpg,,,,,,,,,,,,,,,,,,,,,,,,,,,,,,,,,,,,,,,,,,,,,,,,0,4,4,0,1,,,,,,,,,,,,,,,,,,,,,,,,,,,,,,,,,,,,,,,,,
708673,001,2022-11-21_24h59.50.656,Info_measure_main_exp,2022.2.2,Win32,59.88741167,,,,,,,,,,,,,,,,,,,,,,,,,,,,,,0,0.6995,1,,,,,,,,,,,,0,131,5,5,2238,2238,absent_patch/patch0002238.jpg,absent_patch/patch0002238.jpg,,,,,,,,,,,,,,,,,,,,-0.051650204,0.143312102,1,0,0,response7disk,29,-0.002547693,0.003416258,1,0,0,center_square,0,28,28,58,1,,,,,,,,,,,,,,,,,,,,,,,
708673,001,2022-11-21_24h59.50.656,Info_measure_main_exp,2022.2.2,Win32,59.88741167,,,,,,,,,,,,,,,,,,masks/mask_005.jpg,,,,,,,,,,,,,,,,,,,,,,,,,,,,,,,,,,,,,,,,,,,0,0,0,4,1,,,,,,,,,,,,,,,,,,,,,,,,,,,,,,,,,,,,,,,,,,,,,,
708673,001,2022-11-21_24h59.50.656,Info_measure_main_exp,2022.2.2,Win32,59.88741167,,,,,,,,,,,,,,,,,,masks/mask_002.jpg,,,,,,,,,,,,,,,,,,,,,,,,,,,,,,,,,,,,,,,,,,,0,1,1,1,1,,,,,,,,,,,,,,,,,,,,,,,,,,,,,,,,,,,,,,,,,,,,,,
708673,001,2022-11-21_24h59.50.656,Info_measure_main_exp,2022.2.2,Win32,59.88741167,,,,,,,,,,,,,,,,,,masks/mask_001.jpg,,,,,,,,,,,,,,,,,,,,,,,,,,,,,,,,,,,,,,,,,,,0,2,2,0,1,,,,,,,,,,,,,,,,,,,,,,,,,,,,,,,,,,,,,,,,,,,,,,
708673,001,2022-11-21_24h59.50.656,Info_measure_main_exp,2022.2.2,Win32,59.88741167,,,,,,,,,,,,,,,,,,masks/mask_003.jpg,,,,,,,,,,,,,,,,,,,,,,,,,,,,,,,,,,,,,,,,,,,0,3,3,2,1,,,,,,,,,,,,,,,,,,,,,,,,,,,,,,,,,,,,,,,,,,,,,,
708673,001,2022-11-21_24h59.50.656,Info_measure_main_exp,2022.2.2,Win32,59.88741167,,,,,,,,,,,,,,,,,,masks/mask_004.jpg,,,,,,,,,,,,,,,,,,,,,,,,,,,,,,,,,,,,,,,,,,,0,4,4,3,1,,,,,,,,,,,,,,,,,,,,,,,,,,,,,,,,,,,,,,,,,,,,,,
708673,001,2022-11-21_24h59.50.656,Info_measure_main_exp,2022.2.2,Win32,59.88741167,,,,,,,,,,,,,,,,,,masks/mask_004.jpg,,,,,,,,,,,,,,,,,,,,,,,,,,,,,,,,,,,,,,,,,,,,,,,,0,0,0,3,1,,,,,,,,,,,,,,,,,,,,,,,,,,,,,,,,,,,,,,,,,
708673,001,2022-11-21_24h59.50.656,Info_measure_main_exp,2022.2.2,Win32,59.88741167,,,,,,,,,,,,,,,,,,masks/mask_002.jpg,,,,,,,,,,,,,,,,,,,,,,,,,,,,,,,,,,,,,,,,,,,,,,,,0,1,1,1,1,,,,,,,,,,,,,,,,,,,,,,,,,,,,,,,,,,,,,,,,,
708673,001,2022-11-21_24h59.50.656,Info_measure_main_exp,2022.2.2,Win32,59.88741167,,,,,,,,,,,,,,,,,,masks/mask_003.jpg,,,,,,,,,,,,,,,,,,,,,,,,,,,,,,,,,,,,,,,,,,,,,,,,0,2,2,2,1,,,,,,,,,,,,,,,,,,,,,,,,,,,,,,,,,,,,,,,,,
708673,001,2022-11-21_24h59.50.656,Info_measure_main_exp,2022.2.2,Win32,59.88741167,,,,,,,,,,,,,,,,,,masks/mask_005.jpg,,,,,,,,,,,,,,,,,,,,,,,,,,,,,,,,,,,,,,,,,,,,,,,,0,3,3,4,1,,,,,,,,,,,,,,,,,,,,,,,,,,,,,,,,,,,,,,,,,
708673,001,2022-11-21_24h59.50.656,Info_measure_main_exp,2022.2.2,Win32,59.88741167,,,,,,,,,,,,,,,,,,masks/mask_001.jpg,,,,,,,,,,,,,,,,,,,,,,,,,,,,,,,,,,,,,,,,,,,,,,,,0,4,4,0,1,,,,,,,,,,,,,,,,,,,,,,,,,,,,,,,,,,,,,,,,,
708673,001,2022-11-21_24h59.50.656,Info_measure_main_exp,2022.2.2,Win32,59.88741167,,,,,,,,,,,,,,,,,,,,,,,,,,,,,,6,2.0545,1,,,,,,,,,,,,0,131,5,5,2178,2142,absent_patch/patch0002178.jpg,absent_patch/patch0002142.jpg,,,,,,,,,,,,,,,,,,,,0.140127389,0.040474784,1,0,0,response1disk,30,-0.00162128,0.013607341,1,0,0,center_square,0,29,29,41,1,,,,,,,,,,,,,,,,,,,,,,,
708673,001,2022-11-21_24h59.50.656,Info_measure_main_exp,2022.2.2,Win32,59.88741167,,,,,,,,,,,,,,,,,,masks/mask_002.jpg,,,,,,,,,,,,,,,,,,,,,,,,,,,,,,,,,,,,,,,,,,,0,0,0,1,1,,,,,,,,,,,,,,,,,,,,,,,,,,,,,,,,,,,,,,,,,,,,,,
708673,001,2022-11-21_24h59.50.656,Info_measure_main_exp,2022.2.2,Win32,59.88741167,,,,,,,,,,,,,,,,,,masks/mask_003.jpg,,,,,,,,,,,,,,,,,,,,,,,,,,,,,,,,,,,,,,,,,,,0,1,1,2,1,,,,,,,,,,,,,,,,,,,,,,,,,,,,,,,,,,,,,,,,,,,,,,
708673,001,2022-11-21_24h59.50.656,Info_measure_main_exp,2022.2.2,Win32,59.88741167,,,,,,,,,,,,,,,,,,masks/mask_001.jpg,,,,,,,,,,,,,,,,,,,,,,,,,,,,,,,,,,,,,,,,,,,0,2,2,0,1,,,,,,,,,,,,,,,,,,,,,,,,,,,,,,,,,,,,,,,,,,,,,,
708673,001,2022-11-21_24h59.50.656,Info_measure_main_exp,2022.2.2,Win32,59.88741167,,,,,,,,,,,,,,,,,,masks/mask_005.jpg,,,,,,,,,,,,,,,,,,,,,,,,,,,,,,,,,,,,,,,,,,,0,3,3,4,1,,,,,,,,,,,,,,,,,,,,,,,,,,,,,,,,,,,,,,,,,,,,,,
708673,001,2022-11-21_24h59.50.656,Info_measure_main_exp,2022.2.2,Win32,59.88741167,,,,,,,,,,,,,,,,,,masks/mask_004.jpg,,,,,,,,,,,,,,,,,,,,,,,,,,,,,,,,,,,,,,,,,,,0,4,4,3,1,,,,,,,,,,,,,,,,,,,,,,,,,,,,,,,,,,,,,,,,,,,,,,
708673,001,2022-11-21_24h59.50.656,Info_measure_main_exp,2022.2.2,Win32,59.88741167,,,,,,,,,,,,,,,,,,masks/mask_004.jpg,,,,,,,,,,,,,,,,,,,,,,,,,,,,,,,,,,,,,,,,,,,,,,,,0,0,0,3,1,,,,,,,,,,,,,,,,,,,,,,,,,,,,,,,,,,,,,,,,,
708673,001,2022-11-21_24h59.50.656,Info_measure_main_exp,2022.2.2,Win32,59.88741167,,,,,,,,,,,,,,,,,,masks/mask_003.jpg,,,,,,,,,,,,,,,,,,,,,,,,,,,,,,,,,,,,,,,,,,,,,,,,0,1,1,2,1,,,,,,,,,,,,,,,,,,,,,,,,,,,,,,,,,,,,,,,,,
708673,001,2022-11-21_24h59.50.656,Info_measure_main_exp,2022.2.2,Win32,59.88741167,,,,,,,,,,,,,,,,,,masks/mask_005.jpg,,,,,,,,,,,,,,,,,,,,,,,,,,,,,,,,,,,,,,,,,,,,,,,,0,2,2,4,1,,,,,,,,,,,,,,,,,,,,,,,,,,,,,,,,,,,,,,,,,
708673,001,2022-11-21_24h59.50.656,Info_measure_main_exp,2022.2.2,Win32,59.88741167,,,,,,,,,,,,,,,,,,masks/mask_001.jpg,,,,,,,,,,,,,,,,,,,,,,,,,,,,,,,,,,,,,,,,,,,,,,,,0,3,3,0,1,,,,,,,,,,,,,,,,,,,,,,,,,,,,,,,,,,,,,,,,,
708673,001,2022-11-21_24h59.50.656,Info_measure_main_exp,2022.2.2,Win32,59.88741167,,,,,,,,,,,,,,,,,,masks/mask_002.jpg,,,,,,,,,,,,,,,,,,,,,,,,,,,,,,,,,,,,,,,,,,,,,,,,0,4,4,1,1,,,,,,,,,,,,,,,,,,,,,,,,,,,,,,,,,,,,,,,,,
708673,001,2022-11-21_24h59.50.656,Info_measure_main_exp,2022.2.2,Win32,59.88741167,,,,,,,,,,,,,,,,,,,,,,,,,,,,,,7,1.0654,1,,,,,,,,,,,,0,131,5,5,1974,2142,absent_patch/patch0001974.jpg,absent_patch/patch0002142.jpg,,,,,,,,,,,,,,,,,,,,0.082686775,0.134047471,1,0,0,response1disk,31,0.005790409,-0.001215999,1,0,0,center_square,0,30,30,38,1,,,,,,,,,,,,,,,,,,,,,,,
708673,001,2022-11-21_24h59.50.656,Info_measure_main_exp,2022.2.2,Win32,59.88741167,,,,,,,,,,,,,,,,,,masks/mask_002.jpg,,,,,,,,,,,,,,,,,,,,,,,,,,,,,,,,,,,,,,,,,,,0,0,0,1,1,,,,,,,,,,,,,,,,,,,,,,,,,,,,,,,,,,,,,,,,,,,,,,
708673,001,2022-11-21_24h59.50.656,Info_measure_main_exp,2022.2.2,Win32,59.88741167,,,,,,,,,,,,,,,,,,masks/mask_003.jpg,,,,,,,,,,,,,,,,,,,,,,,,,,,,,,,,,,,,,,,,,,,0,1,1,2,1,,,,,,,,,,,,,,,,,,,,,,,,,,,,,,,,,,,,,,,,,,,,,,
708673,001,2022-11-21_24h59.50.656,Info_measure_main_exp,2022.2.2,Win32,59.88741167,,,,,,,,,,,,,,,,,,masks/mask_001.jpg,,,,,,,,,,,,,,,,,,,,,,,,,,,,,,,,,,,,,,,,,,,0,2,2,0,1,,,,,,,,,,,,,,,,,,,,,,,,,,,,,,,,,,,,,,,,,,,,,,
708673,001,2022-11-21_24h59.50.656,Info_measure_main_exp,2022.2.2,Win32,59.88741167,,,,,,,,,,,,,,,,,,masks/mask_004.jpg,,,,,,,,,,,,,,,,,,,,,,,,,,,,,,,,,,,,,,,,,,,0,3,3,3,1,,,,,,,,,,,,,,,,,,,,,,,,,,,,,,,,,,,,,,,,,,,,,,
708673,001,2022-11-21_24h59.50.656,Info_measure_main_exp,2022.2.2,Win32,59.88741167,,,,,,,,,,,,,,,,,,masks/mask_005.jpg,,,,,,,,,,,,,,,,,,,,,,,,,,,,,,,,,,,,,,,,,,,0,4,4,4,1,,,,,,,,,,,,,,,,,,,,,,,,,,,,,,,,,,,,,,,,,,,,,,
708673,001,2022-11-21_24h59.50.656,Info_measure_main_exp,2022.2.2,Win32,59.88741167,,,,,,,,,,,,,,,,,,masks/mask_001.jpg,,,,,,,,,,,,,,,,,,,,,,,,,,,,,,,,,,,,,,,,,,,,,,,,0,0,0,0,1,,,,,,,,,,,,,,,,,,,,,,,,,,,,,,,,,,,,,,,,,
708673,001,2022-11-21_24h59.50.656,Info_measure_main_exp,2022.2.2,Win32,59.88741167,,,,,,,,,,,,,,,,,,masks/mask_002.jpg,,,,,,,,,,,,,,,,,,,,,,,,,,,,,,,,,,,,,,,,,,,,,,,,0,1,1,1,1,,,,,,,,,,,,,,,,,,,,,,,,,,,,,,,,,,,,,,,,,
708673,001,2022-11-21_24h59.50.656,Info_measure_main_exp,2022.2.2,Win32,59.88741167,,,,,,,,,,,,,,,,,,masks/mask_004.jpg,,,,,,,,,,,,,,,,,,,,,,,,,,,,,,,,,,,,,,,,,,,,,,,,0,2,2,3,1,,,,,,,,,,,,,,,,,,,,,,,,,,,,,,,,,,,,,,,,,
708673,001,2022-11-21_24h59.50.656,Info_measure_main_exp,2022.2.2,Win32,59.88741167,,,,,,,,,,,,,,,,,,masks/mask_003.jpg,,,,,,,,,,,,,,,,,,,,,,,,,,,,,,,,,,,,,,,,,,,,,,,,0,3,3,2,1,,,,,,,,,,,,,,,,,,,,,,,,,,,,,,,,,,,,,,,,,
708673,001,2022-11-21_24h59.50.656,Info_measure_main_exp,2022.2.2,Win32,59.88741167,,,,,,,,,,,,,,,,,,masks/mask_005.jpg,,,,,,,,,,,,,,,,,,,,,,,,,,,,,,,,,,,,,,,,,,,,,,,,0,4,4,4,1,,,,,,,,,,,,,,,,,,,,,,,,,,,,,,,,,,,,,,,,,
708673,001,2022-11-21_24h59.50.656,Info_measure_main_exp,2022.2.2,Win32,59.88741167,,,,,,,,,,,,,,,,,,,,,,,,,,,,,,6,1.4482,1,,,,,,,,,,,,0,131,5,5,2190,2166,absent_patch/patch0002190.jpg,absent_patch/patch0002166.jpg,,,,,,,,,,,,,,,,,,,,0.155877258,0.033063055,1,0,0,response1disk,32,0.004863919,0.009901535,1,0,0,center_square,0,31,31,50,1,,,,,,,,,,,,,,,,,,,,,,,
708673,001,2022-11-21_24h59.50.656,Info_measure_main_exp,2022.2.2,Win32,59.88741167,,,,,,,,,,,,,,,,,,masks/mask_004.jpg,,,,,,,,,,,,,,,,,,,,,,,,,,,,,,,,,,,,,,,,,,,0,0,0,3,1,,,,,,,,,,,,,,,,,,,,,,,,,,,,,,,,,,,,,,,,,,,,,,
708673,001,2022-11-21_24h59.50.656,Info_measure_main_exp,2022.2.2,Win32,59.88741167,,,,,,,,,,,,,,,,,,masks/mask_001.jpg,,,,,,,,,,,,,,,,,,,,,,,,,,,,,,,,,,,,,,,,,,,0,1,1,0,1,,,,,,,,,,,,,,,,,,,,,,,,,,,,,,,,,,,,,,,,,,,,,,
708673,001,2022-11-21_24h59.50.656,Info_measure_main_exp,2022.2.2,Win32,59.88741167,,,,,,,,,,,,,,,,,,masks/mask_003.jpg,,,,,,,,,,,,,,,,,,,,,,,,,,,,,,,,,,,,,,,,,,,0,2,2,2,1,,,,,,,,,,,,,,,,,,,,,,,,,,,,,,,,,,,,,,,,,,,,,,
708673,001,2022-11-21_24h59.50.656,Info_measure_main_exp,2022.2.2,Win32,59.88741167,,,,,,,,,,,,,,,,,,masks/mask_005.jpg,,,,,,,,,,,,,,,,,,,,,,,,,,,,,,,,,,,,,,,,,,,0,3,3,4,1,,,,,,,,,,,,,,,,,,,,,,,,,,,,,,,,,,,,,,,,,,,,,,
708673,001,2022-11-21_24h59.50.656,Info_measure_main_exp,2022.2.2,Win32,59.88741167,,,,,,,,,,,,,,,,,,masks/mask_002.jpg,,,,,,,,,,,,,,,,,,,,,,,,,,,,,,,,,,,,,,,,,,,0,4,4,1,1,,,,,,,,,,,,,,,,,,,,,,,,,,,,,,,,,,,,,,,,,,,,,,
708673,001,2022-11-21_24h59.50.656,Info_measure_main_exp,2022.2.2,Win32,59.88741167,,,,,,,,,,,,,,,,,,masks/mask_003.jpg,,,,,,,,,,,,,,,,,,,,,,,,,,,,,,,,,,,,,,,,,,,,,,,,0,0,0,2,1,,,,,,,,,,,,,,,,,,,,,,,,,,,,,,,,,,,,,,,,,
708673,001,2022-11-21_24h59.50.656,Info_measure_main_exp,2022.2.2,Win32,59.88741167,,,,,,,,,,,,,,,,,,masks/mask_005.jpg,,,,,,,,,,,,,,,,,,,,,,,,,,,,,,,,,,,,,,,,,,,,,,,,0,1,1,4,1,,,,,,,,,,,,,,,,,,,,,,,,,,,,,,,,,,,,,,,,,
708673,001,2022-11-21_24h59.50.656,Info_measure_main_exp,2022.2.2,Win32,59.88741167,,,,,,,,,,,,,,,,,,masks/mask_004.jpg,,,,,,,,,,,,,,,,,,,,,,,,,,,,,,,,,,,,,,,,,,,,,,,,0,2,2,3,1,,,,,,,,,,,,,,,,,,,,,,,,,,,,,,,,,,,,,,,,,
708673,001,2022-11-21_24h59.50.656,Info_measure_main_exp,2022.2.2,Win32,59.88741167,,,,,,,,,,,,,,,,,,masks/mask_001.jpg,,,,,,,,,,,,,,,,,,,,,,,,,,,,,,,,,,,,,,,,,,,,,,,,0,3,3,0,1,,,,,,,,,,,,,,,,,,,,,,,,,,,,,,,,,,,,,,,,,
708673,001,2022-11-21_24h59.50.656,Info_measure_main_exp,2022.2.2,Win32,59.88741167,,,,,,,,,,,,,,,,,,masks/mask_002.jpg,,,,,,,,,,,,,,,,,,,,,,,,,,,,,,,,,,,,,,,,,,,,,,,,0,4,4,1,1,,,,,,,,,,,,,,,,,,,,,,,,,,,,,,,,,,,,,,,,,
708673,001,2022-11-21_24h59.50.656,Info_measure_main_exp,2022.2.2,Win32,59.88741167,,,,,,,,,,,,,,,,,,,,,,,,,,,,,,6,0.7825,1,,,,,,,,,,,,0,131,5,5,1974,2250,absent_patch/patch0001974.jpg,absent_patch/patch0002250.jpg,,,,,,,,,,,,,,,,,,,,0.127156912,0.042327725,1,0,0,response1disk,33,-0.011812285,0.011754477,1,0,0,center_square,0,32,32,55,1,,,,,,,,,,,,,,,,,,,,,,,
708673,001,2022-11-21_24h59.50.656,Info_measure_main_exp,2022.2.2,Win32,59.88741167,,,,,,,,,,,,,,,,,,masks/mask_002.jpg,,,,,,,,,,,,,,,,,,,,,,,,,,,,,,,,,,,,,,,,,,,0,0,0,1,1,,,,,,,,,,,,,,,,,,,,,,,,,,,,,,,,,,,,,,,,,,,,,,
708673,001,2022-11-21_24h59.50.656,Info_measure_main_exp,2022.2.2,Win32,59.88741167,,,,,,,,,,,,,,,,,,masks/mask_001.jpg,,,,,,,,,,,,,,,,,,,,,,,,,,,,,,,,,,,,,,,,,,,0,1,1,0,1,,,,,,,,,,,,,,,,,,,,,,,,,,,,,,,,,,,,,,,,,,,,,,
708673,001,2022-11-21_24h59.50.656,Info_measure_main_exp,2022.2.2,Win32,59.88741167,,,,,,,,,,,,,,,,,,masks/mask_005.jpg,,,,,,,,,,,,,,,,,,,,,,,,,,,,,,,,,,,,,,,,,,,0,2,2,4,1,,,,,,,,,,,,,,,,,,,,,,,,,,,,,,,,,,,,,,,,,,,,,,
708673,001,2022-11-21_24h59.50.656,Info_measure_main_exp,2022.2.2,Win32,59.88741167,,,,,,,,,,,,,,,,,,masks/mask_004.jpg,,,,,,,,,,,,,,,,,,,,,,,,,,,,,,,,,,,,,,,,,,,0,3,3,3,1,,,,,,,,,,,,,,,,,,,,,,,,,,,,,,,,,,,,,,,,,,,,,,
708673,001,2022-11-21_24h59.50.656,Info_measure_main_exp,2022.2.2,Win32,59.88741167,,,,,,,,,,,,,,,,,,masks/mask_003.jpg,,,,,,,,,,,,,,,,,,,,,,,,,,,,,,,,,,,,,,,,,,,0,4,4,2,1,,,,,,,,,,,,,,,,,,,,,,,,,,,,,,,,,,,,,,,,,,,,,,
708673,001,2022-11-21_24h59.50.656,Info_measure_main_exp,2022.2.2,Win32,59.88741167,,,,,,,,,,,,,,,,,,masks/mask_003.jpg,,,,,,,,,,,,,,,,,,,,,,,,,,,,,,,,,,,,,,,,,,,,,,,,0,0,0,2,1,,,,,,,,,,,,,,,,,,,,,,,,,,,,,,,,,,,,,,,,,
708673,001,2022-11-21_24h59.50.656,Info_measure_main_exp,2022.2.2,Win32,59.88741167,,,,,,,,,,,,,,,,,,masks/mask_005.jpg,,,,,,,,,,,,,,,,,,,,,,,,,,,,,,,,,,,,,,,,,,,,,,,,0,1,1,4,1,,,,,,,,,,,,,,,,,,,,,,,,,,,,,,,,,,,,,,,,,
708673,001,2022-11-21_24h59.50.656,Info_measure_main_exp,2022.2.2,Win32,59.88741167,,,,,,,,,,,,,,,,,,masks/mask_002.jpg,,,,,,,,,,,,,,,,,,,,,,,,,,,,,,,,,,,,,,,,,,,,,,,,0,2,2,1,1,,,,,,,,,,,,,,,,,,,,,,,,,,,,,,,,,,,,,,,,,
708673,001,2022-11-21_24h59.50.656,Info_measure_main_exp,2022.2.2,Win32,59.88741167,,,,,,,,,,,,,,,,,,masks/mask_001.jpg,,,,,,,,,,,,,,,,,,,,,,,,,,,,,,,,,,,,,,,,,,,,,,,,0,3,3,0,1,,,,,,,,,,,,,,,,,,,,,,,,,,,,,,,,,,,,,,,,,
708673,001,2022-11-21_24h59.50.656,Info_measure_main_exp,2022.2.2,Win32,59.88741167,,,,,,,,,,,,,,,,,,masks/mask_004.jpg,,,,,,,,,,,,,,,,,,,,,,,,,,,,,,,,,,,,,,,,,,,,,,,,0,4,4,3,1,,,,,,,,,,,,,,,,,,,,,,,,,,,,,,,,,,,,,,,,,
708673,001,2022-11-21_24h59.50.656,Info_measure_main_exp,2022.2.2,Win32,59.88741167,,,,,,,,,,,,,,,,,,,,,,,,,,,,,,5,1.1983,1,,,,,,,,,,,,0,131,5,5,2250,2142,absent_patch/patch0002250.jpg,absent_patch/patch0002142.jpg,,,,,,,,,,,,,,,,,,,,0.102142451,-0.02530401,1,0,0,response3disk,34,0.003011016,0.002489846,1,0,0,center_square,0,33,33,71,1,,,,,,,,,,,,,,,,,,,,,,,
708673,001,2022-11-21_24h59.50.656,Info_measure_main_exp,2022.2.2,Win32,59.88741167,,,,,,,,,,,,,,,,,,masks/mask_001.jpg,,,,,,,,,,,,,,,,,,,,,,,,,,,,,,,,,,,,,,,,,,,0,0,0,0,1,,,,,,,,,,,,,,,,,,,,,,,,,,,,,,,,,,,,,,,,,,,,,,
708673,001,2022-11-21_24h59.50.656,Info_measure_main_exp,2022.2.2,Win32,59.88741167,,,,,,,,,,,,,,,,,,masks/mask_002.jpg,,,,,,,,,,,,,,,,,,,,,,,,,,,,,,,,,,,,,,,,,,,0,1,1,1,1,,,,,,,,,,,,,,,,,,,,,,,,,,,,,,,,,,,,,,,,,,,,,,
708673,001,2022-11-21_24h59.50.656,Info_measure_main_exp,2022.2.2,Win32,59.88741167,,,,,,,,,,,,,,,,,,masks/mask_005.jpg,,,,,,,,,,,,,,,,,,,,,,,,,,,,,,,,,,,,,,,,,,,0,2,2,4,1,,,,,,,,,,,,,,,,,,,,,,,,,,,,,,,,,,,,,,,,,,,,,,
708673,001,2022-11-21_24h59.50.656,Info_measure_main_exp,2022.2.2,Win32,59.88741167,,,,,,,,,,,,,,,,,,masks/mask_003.jpg,,,,,,,,,,,,,,,,,,,,,,,,,,,,,,,,,,,,,,,,,,,0,3,3,2,1,,,,,,,,,,,,,,,,,,,,,,,,,,,,,,,,,,,,,,,,,,,,,,
708673,001,2022-11-21_24h59.50.656,Info_measure_main_exp,2022.2.2,Win32,59.88741167,,,,,,,,,,,,,,,,,,masks/mask_004.jpg,,,,,,,,,,,,,,,,,,,,,,,,,,,,,,,,,,,,,,,,,,,0,4,4,3,1,,,,,,,,,,,,,,,,,,,,,,,,,,,,,,,,,,,,,,,,,,,,,,
708673,001,2022-11-21_24h59.50.656,Info_measure_main_exp,2022.2.2,Win32,59.88741167,,,,,,,,,,,,,,,,,,masks/mask_003.jpg,,,,,,,,,,,,,,,,,,,,,,,,,,,,,,,,,,,,,,,,,,,,,,,,0,0,0,2,1,,,,,,,,,,,,,,,,,,,,,,,,,,,,,,,,,,,,,,,,,
708673,001,2022-11-21_24h59.50.656,Info_measure_main_exp,2022.2.2,Win32,59.88741167,,,,,,,,,,,,,,,,,,masks/mask_001.jpg,,,,,,,,,,,,,,,,,,,,,,,,,,,,,,,,,,,,,,,,,,,,,,,,0,1,1,0,1,,,,,,,,,,,,,,,,,,,,,,,,,,,,,,,,,,,,,,,,,
708673,001,2022-11-21_24h59.50.656,Info_measure_main_exp,2022.2.2,Win32,59.88741167,,,,,,,,,,,,,,,,,,masks/mask_005.jpg,,,,,,,,,,,,,,,,,,,,,,,,,,,,,,,,,,,,,,,,,,,,,,,,0,2,2,4,1,,,,,,,,,,,,,,,,,,,,,,,,,,,,,,,,,,,,,,,,,
708673,001,2022-11-21_24h59.50.656,Info_measure_main_exp,2022.2.2,Win32,59.88741167,,,,,,,,,,,,,,,,,,masks/mask_004.jpg,,,,,,,,,,,,,,,,,,,,,,,,,,,,,,,,,,,,,,,,,,,,,,,,0,3,3,3,1,,,,,,,,,,,,,,,,,,,,,,,,,,,,,,,,,,,,,,,,,
