participant,session,date,expName,psychopyVersion,OS,frameRate,space_press_continue.keys,space_press_continue.rt,space_press_continue_2.keys,space_press_continue_2.rt,space_press_continue_3.keys,space_press_continue_3.rt,space_press_continue_4.keys,space_press_continue_4.rt,space_press_continue_5.keys,space_press_continue_5.rt,space_press_continue_6.keys,space_press_continue_6.rt,prac_mask_loop_1.thisRepN,prac_mask_loop_1.thisTrialN,prac_mask_loop_1.thisN,prac_mask_loop_1.thisIndex,prac_mask_loop_1.ran,mask_name,prac_mask_loop_2.thisRepN,prac_mask_loop_2.thisTrialN,prac_mask_loop_2.thisN,prac_mask_loop_2.thisIndex,prac_mask_loop_2.ran,mouse_2.x,mouse_2.y,mouse_2.leftButton,mouse_2.midButton,mouse_2.rightButton,mouse_2.clicked_name,similarity,response_time,Pass,mouse_12.x,mouse_12.y,mouse_12.leftButton,mouse_12.midButton,mouse_12.rightButton,mouse_12.clicked_name,prac_loop.thisRepN,prac_loop.thisTrialN,prac_loop.thisN,prac_loop.thisIndex,prac_loop.ran,Pair_type,Image_num,Patch_1_loc,Patch_2_loc,Patch_1_info,Patch_2_info,Patch_1_name,Patch_2_name,mouse_1.x,mouse_1.y,mouse_1.leftButton,mouse_1.midButton,mouse_1.rightButton,mouse_1.time,mouse_1.clicked_name,space_press_continue_7.keys,space_press_continue_7.rt,mask_loop.thisRepN,mask_loop.thisTrialN,mask_loop.thisN,mask_loop.thisIndex,mask_loop.ran,mask_loop_2.thisRepN,mask_loop_2.thisTrialN,mask_loop_2.thisN,mask_loop_2.thisIndex,mask_loop_2.ran,mouse.x,mouse.y,mouse.leftButton,mouse.midButton,mouse.rightButton,mouse.clicked_name,trialNumber,mouse_11.x,mouse_11.y,mouse_11.leftButton,mouse_11.midButton,mouse_11.rightButton,mouse_11.clicked_name,first_pass_loop.thisRepN,first_pass_loop.thisTrialN,first_pass_loop.thisN,first_pass_loop.thisIndex,first_pass_loop.ran,mask_loop_3.thisRepN,mask_loop_3.thisTrialN,mask_loop_3.thisN,mask_loop_3.thisIndex,mask_loop_3.ran,mask_loop_4.thisRepN,mask_loop_4.thisTrialN,mask_loop_4.thisN,mask_loop_4.thisIndex,mask_loop_4.ran,mouse_3.x,mouse_3.y,mouse_3.leftButton,mouse_3.midButton,mouse_3.rightButton,mouse_3.clicked_name,double_pass_loop.thisRepN,double_pass_loop.thisTrialN,double_pass_loop.thisN,double_pass_loop.thisIndex,double_pass_loop.ran,space_exit.keys,space_exit.rt
709990,001,2022-11-21_24h52.59.496,Info_measure_main_exp,2022.2.2,Win32,40.0128041,,,,,,,,,,,,,,,,,,,,,,,,,,,,,,,,,,,,,,,,,,,,,,,,,,,,,,,,,,,,,,,,,,,,,,,,,,,,,,,,,,,,,,,,,,,,,,,,,,,,,,,,,,,,,,,
709990,001,2022-11-21_24h52.59.496,Info_measure_main_exp,2022.2.2,Win32,40.0128041,,,,,,,,,,,,,,,,,,,,,,,,,,,,,,,,,,,,,,,,,,,,,,,,,,,,,,,,,,,,,,,,,,,,,,,,,,,,,,,,,,,,,,,,,,,,,,,,,,,,,,,,,,,,,,,
709990,001,2022-11-21_24h52.59.496,Info_measure_main_exp,2022.2.2,Win32,40.0128041,space,7.7325,,,,,,,,,,,,,,,,,,,,,,,,,,,,,,,,,,,,,,,,,,,,,,,,,,,,,,,,,,,,,,,,,,,,,,,,,,,,,,,,,,,,,,,,,,,,,,,,,,,,,,,,,,,,,
709990,001,2022-11-21_24h52.59.496,Info_measure_main_exp,2022.2.2,Win32,40.0128041,,,space,13.3138,,,,,,,,,,,,,,,,,,,,,,,,,,,,,,,,,,,,,,,,,,,,,,,,,,,,,,,,,,,,,,,,,,,,,,,,,,,,,,,,,,,,,,,,,,,,,,,,,,,,,,,,,,,
709990,001,2022-11-21_24h52.59.496,Info_measure_main_exp,2022.2.2,Win32,40.0128041,,,,,space,17.4774,,,,,,,,,,,,,,,,,,,,,,,,,,,,,,,,,,,,,,,,,,,,,,,,,,,,,,,,,,,,,,,,,,,,,,,,,,,,,,,,,,,,,,,,,,,,,,,,,,,,,,,,,
709990,001,2022-11-21_24h52.59.496,Info_measure_main_exp,2022.2.2,Win32,40.0128041,,,,,,,space,16.3331,,,,,,,,,,,,,,,,,,,,,,,,,,,,,,,,,,,,,,,,,,,,,,,,,,,,,,,,,,,,,,,,,,,,,,,,,,,,,,,,,,,,,,,,,,,,,,,,,,,,,,,
709990,001,2022-11-21_24h52.59.496,Info_measure_main_exp,2022.2.2,Win32,40.0128041,,,,,,,,,space,6.8633,,,,,,,,,,,,,,,,,,,,,,,,,,,,,,,,,,,,,,,,,,,,,,,,,,,,,,,,,,,,,,,,,,,,,,,,,,,,,,,,,,,,,,,,,,,,,,,,,,,,,
709990,001,2022-11-21_24h52.59.496,Info_measure_main_exp,2022.2.2,Win32,40.0128041,,,,,,,,,,,space,3.5787,,,,,,,,,,,,,,,,,,,,,,,,,,,,,,,,,,,,,,,,,,,,,,,,,,,,,,,,,,,,,,,,,,,,,,,,,,,,,,,,,,,,,,,,,,,,,,,,,,,
709990,001,2022-11-21_24h52.59.496,Info_measure_main_exp,2022.2.2,Win32,40.0128041,,,,,,,,,,,,,0,0,0,0,1,masks/mask_001.jpg,,,,,,,,,,,,,,,,,,,,,,,,,,,,,,,,,,,,,,,,,,,,,,,,,,,,,,,,,,,,,,,,,,,,,,,,,,,,,,,,,,,,,,,,,,,,,
709990,001,2022-11-21_24h52.59.496,Info_measure_main_exp,2022.2.2,Win32,40.0128041,,,,,,,,,,,,,0,1,1,4,1,masks/mask_005.jpg,,,,,,,,,,,,,,,,,,,,,,,,,,,,,,,,,,,,,,,,,,,,,,,,,,,,,,,,,,,,,,,,,,,,,,,,,,,,,,,,,,,,,,,,,,,,,
709990,001,2022-11-21_24h52.59.496,Info_measure_main_exp,2022.2.2,Win32,40.0128041,,,,,,,,,,,,,0,2,2,1,1,masks/mask_002.jpg,,,,,,,,,,,,,,,,,,,,,,,,,,,,,,,,,,,,,,,,,,,,,,,,,,,,,,,,,,,,,,,,,,,,,,,,,,,,,,,,,,,,,,,,,,,,,
709990,001,2022-11-21_24h52.59.496,Info_measure_main_exp,2022.2.2,Win32,40.0128041,,,,,,,,,,,,,0,3,3,3,1,masks/mask_004.jpg,,,,,,,,,,,,,,,,,,,,,,,,,,,,,,,,,,,,,,,,,,,,,,,,,,,,,,,,,,,,,,,,,,,,,,,,,,,,,,,,,,,,,,,,,,,,,
709990,001,2022-11-21_24h52.59.496,Info_measure_main_exp,2022.2.2,Win32,40.0128041,,,,,,,,,,,,,0,4,4,2,1,masks/mask_003.jpg,,,,,,,,,,,,,,,,,,,,,,,,,,,,,,,,,,,,,,,,,,,,,,,,,,,,,,,,,,,,,,,,,,,,,,,,,,,,,,,,,,,,,,,,,,,,,
709990,001,2022-11-21_24h52.59.496,Info_measure_main_exp,2022.2.2,Win32,40.0128041,,,,,,,,,,,,,,,,,,masks/mask_004.jpg,0,0,0,3,1,,,,,,,,,,,,,,,,,,,,,,,,,,,,,,,,,,,,,,,,,,,,,,,,,,,,,,,,,,,,,,,,,,,,,,,,,,,,,,,,,,,,,,,,
709990,001,2022-11-21_24h52.59.496,Info_measure_main_exp,2022.2.2,Win32,40.0128041,,,,,,,,,,,,,,,,,,masks/mask_003.jpg,0,1,1,2,1,,,,,,,,,,,,,,,,,,,,,,,,,,,,,,,,,,,,,,,,,,,,,,,,,,,,,,,,,,,,,,,,,,,,,,,,,,,,,,,,,,,,,,,,
709990,001,2022-11-21_24h52.59.496,Info_measure_main_exp,2022.2.2,Win32,40.0128041,,,,,,,,,,,,,,,,,,masks/mask_001.jpg,0,2,2,0,1,,,,,,,,,,,,,,,,,,,,,,,,,,,,,,,,,,,,,,,,,,,,,,,,,,,,,,,,,,,,,,,,,,,,,,,,,,,,,,,,,,,,,,,,
709990,001,2022-11-21_24h52.59.496,Info_measure_main_exp,2022.2.2,Win32,40.0128041,,,,,,,,,,,,,,,,,,masks/mask_005.jpg,0,3,3,4,1,,,,,,,,,,,,,,,,,,,,,,,,,,,,,,,,,,,,,,,,,,,,,,,,,,,,,,,,,,,,,,,,,,,,,,,,,,,,,,,,,,,,,,,,
709990,001,2022-11-21_24h52.59.496,Info_measure_main_exp,2022.2.2,Win32,40.0128041,,,,,,,,,,,,,,,,,,masks/mask_002.jpg,0,4,4,1,1,,,,,,,,,,,,,,,,,,,,,,,,,,,,,,,,,,,,,,,,,,,,,,,,,,,,,,,,,,,,,,,,,,,,,,,,,,,,,,,,,,,,,,,,
709990,001,2022-11-21_24h52.59.496,Info_measure_main_exp,2022.2.2,Win32,40.0128041,,,,,,,,,,,,,,,,,,,,,,,,0.170370384,-0.054629644,1,0,0,response3disk,5,71.4762,1,0,0.012962942,1,0,0,center_square,0,0,0,2,1,0,131,5,5,2526,2526,prac_patch/patch0002526.jpg,prac_patch/patch0002526.jpg,,,,,,,,,,,,,,,,,,,,,,,,,,,,,,,,,,,,,,,,,,,,,,,,,,,,,,,,,,,,
709990,001,2022-11-21_24h52.59.496,Info_measure_main_exp,2022.2.2,Win32,40.0128041,,,,,,,,,,,,,0,0,0,2,1,masks/mask_003.jpg,,,,,,,,,,,,,,,,,,,,,,,,,,,,,,,,,,,,,,,,,,,,,,,,,,,,,,,,,,,,,,,,,,,,,,,,,,,,,,,,,,,,,,,,,,,,,
709990,001,2022-11-21_24h52.59.496,Info_measure_main_exp,2022.2.2,Win32,40.0128041,,,,,,,,,,,,,0,1,1,3,1,masks/mask_004.jpg,,,,,,,,,,,,,,,,,,,,,,,,,,,,,,,,,,,,,,,,,,,,,,,,,,,,,,,,,,,,,,,,,,,,,,,,,,,,,,,,,,,,,,,,,,,,,
709990,001,2022-11-21_24h52.59.496,Info_measure_main_exp,2022.2.2,Win32,40.0128041,,,,,,,,,,,,,0,2,2,1,1,masks/mask_002.jpg,,,,,,,,,,,,,,,,,,,,,,,,,,,,,,,,,,,,,,,,,,,,,,,,,,,,,,,,,,,,,,,,,,,,,,,,,,,,,,,,,,,,,,,,,,,,,
709990,001,2022-11-21_24h52.59.496,Info_measure_main_exp,2022.2.2,Win32,40.0128041,,,,,,,,,,,,,0,3,3,4,1,masks/mask_005.jpg,,,,,,,,,,,,,,,,,,,,,,,,,,,,,,,,,,,,,,,,,,,,,,,,,,,,,,,,,,,,,,,,,,,,,,,,,,,,,,,,,,,,,,,,,,,,,
709990,001,2022-11-21_24h52.59.496,Info_measure_main_exp,2022.2.2,Win32,40.0128041,,,,,,,,,,,,,0,4,4,0,1,masks/mask_001.jpg,,,,,,,,,,,,,,,,,,,,,,,,,,,,,,,,,,,,,,,,,,,,,,,,,,,,,,,,,,,,,,,,,,,,,,,,,,,,,,,,,,,,,,,,,,,,,
709990,001,2022-11-21_24h52.59.496,Info_measure_main_exp,2022.2.2,Win32,40.0128041,,,,,,,,,,,,,,,,,,masks/mask_002.jpg,0,0,0,1,1,,,,,,,,,,,,,,,,,,,,,,,,,,,,,,,,,,,,,,,,,,,,,,,,,,,,,,,,,,,,,,,,,,,,,,,,,,,,,,,,,,,,,,,,
709990,001,2022-11-21_24h52.59.496,Info_measure_main_exp,2022.2.2,Win32,40.0128041,,,,,,,,,,,,,,,,,,masks/mask_001.jpg,0,1,1,0,1,,,,,,,,,,,,,,,,,,,,,,,,,,,,,,,,,,,,,,,,,,,,,,,,,,,,,,,,,,,,,,,,,,,,,,,,,,,,,,,,,,,,,,,,
709990,001,2022-11-21_24h52.59.496,Info_measure_main_exp,2022.2.2,Win32,40.0128041,,,,,,,,,,,,,,,,,,masks/mask_003.jpg,0,2,2,2,1,,,,,,,,,,,,,,,,,,,,,,,,,,,,,,,,,,,,,,,,,,,,,,,,,,,,,,,,,,,,,,,,,,,,,,,,,,,,,,,,,,,,,,,,
709990,001,2022-11-21_24h52.59.496,Info_measure_main_exp,2022.2.2,Win32,40.0128041,,,,,,,,,,,,,,,,,,masks/mask_004.jpg,0,3,3,3,1,,,,,,,,,,,,,,,,,,,,,,,,,,,,,,,,,,,,,,,,,,,,,,,,,,,,,,,,,,,,,,,,,,,,,,,,,,,,,,,,,,,,,,,,
709990,001,2022-11-21_24h52.59.496,Info_measure_main_exp,2022.2.2,Win32,40.0128041,,,,,,,,,,,,,,,,,,masks/mask_005.jpg,0,4,4,4,1,,,,,,,,,,,,,,,,,,,,,,,,,,,,,,,,,,,,,,,,,,,,,,,,,,,,,,,,,,,,,,,,,,,,,,,,,,,,,,,,,,,,,,,,
709990,001,2022-11-21_24h52.59.496,Info_measure_main_exp,2022.2.2,Win32,40.0128041,,,,,,,,,,,,,,,,,,,,,,,,0.152777778,0.039814808,1,0,0,response1disk,6,86.2326,1,-0.009259259,0.001851859,1,0,0,center_square,0,1,1,0,1,0,131,5,5,2370,2406,prac_patch/patch0002370.jpg,prac_patch/patch0002406.jpg,,,,,,,,,,,,,,,,,,,,,,,,,,,,,,,,,,,,,,,,,,,,,,,,,,,,,,,,,,,,
709990,001,2022-11-21_24h52.59.496,Info_measure_main_exp,2022.2.2,Win32,40.0128041,,,,,,,,,,,,,0,0,0,0,1,masks/mask_001.jpg,,,,,,,,,,,,,,,,,,,,,,,,,,,,,,,,,,,,,,,,,,,,,,,,,,,,,,,,,,,,,,,,,,,,,,,,,,,,,,,,,,,,,,,,,,,,,
709990,001,2022-11-21_24h52.59.496,Info_measure_main_exp,2022.2.2,Win32,40.0128041,,,,,,,,,,,,,0,1,1,2,1,masks/mask_003.jpg,,,,,,,,,,,,,,,,,,,,,,,,,,,,,,,,,,,,,,,,,,,,,,,,,,,,,,,,,,,,,,,,,,,,,,,,,,,,,,,,,,,,,,,,,,,,,
709990,001,2022-11-21_24h52.59.496,Info_measure_main_exp,2022.2.2,Win32,40.0128041,,,,,,,,,,,,,0,2,2,4,1,masks/mask_005.jpg,,,,,,,,,,,,,,,,,,,,,,,,,,,,,,,,,,,,,,,,,,,,,,,,,,,,,,,,,,,,,,,,,,,,,,,,,,,,,,,,,,,,,,,,,,,,,
709990,001,2022-11-21_24h52.59.496,Info_measure_main_exp,2022.2.2,Win32,40.0128041,,,,,,,,,,,,,0,3,3,3,1,masks/mask_004.jpg,,,,,,,,,,,,,,,,,,,,,,,,,,,,,,,,,,,,,,,,,,,,,,,,,,,,,,,,,,,,,,,,,,,,,,,,,,,,,,,,,,,,,,,,,,,,,
709990,001,2022-11-21_24h52.59.496,Info_measure_main_exp,2022.2.2,Win32,40.0128041,,,,,,,,,,,,,0,4,4,1,1,masks/mask_002.jpg,,,,,,,,,,,,,,,,,,,,,,,,,,,,,,,,,,,,,,,,,,,,,,,,,,,,,,,,,,,,,,,,,,,,,,,,,,,,,,,,,,,,,,,,,,,,,
709990,001,2022-11-21_24h52.59.496,Info_measure_main_exp,2022.2.2,Win32,40.0128041,,,,,,,,,,,,,,,,,,masks/mask_004.jpg,0,0,0,3,1,,,,,,,,,,,,,,,,,,,,,,,,,,,,,,,,,,,,,,,,,,,,,,,,,,,,,,,,,,,,,,,,,,,,,,,,,,,,,,,,,,,,,,,,
709990,001,2022-11-21_24h52.59.496,Info_measure_main_exp,2022.2.2,Win32,40.0128041,,,,,,,,,,,,,,,,,,masks/mask_002.jpg,0,1,1,1,1,,,,,,,,,,,,,,,,,,,,,,,,,,,,,,,,,,,,,,,,,,,,,,,,,,,,,,,,,,,,,,,,,,,,,,,,,,,,,,,,,,,,,,,,
709990,001,2022-11-21_24h52.59.496,Info_measure_main_exp,2022.2.2,Win32,40.0128041,,,,,,,,,,,,,,,,,,masks/mask_001.jpg,0,2,2,0,1,,,,,,,,,,,,,,,,,,,,,,,,,,,,,,,,,,,,,,,,,,,,,,,,,,,,,,,,,,,,,,,,,,,,,,,,,,,,,,,,,,,,,,,,
709990,001,2022-11-21_24h52.59.496,Info_measure_main_exp,2022.2.2,Win32,40.0128041,,,,,,,,,,,,,,,,,,masks/mask_005.jpg,0,3,3,4,1,,,,,,,,,,,,,,,,,,,,,,,,,,,,,,,,,,,,,,,,,,,,,,,,,,,,,,,,,,,,,,,,,,,,,,,,,,,,,,,,,,,,,,,,
709990,001,2022-11-21_24h52.59.496,Info_measure_main_exp,2022.2.2,Win32,40.0128041,,,,,,,,,,,,,,,,,,masks/mask_003.jpg,0,4,4,2,1,,,,,,,,,,,,,,,,,,,,,,,,,,,,,,,,,,,,,,,,,,,,,,,,,,,,,,,,,,,,,,,,,,,,,,,,,,,,,,,,,,,,,,,,
709990,001,2022-11-21_24h52.59.496,Info_measure_main_exp,2022.2.2,Win32,40.0128041,,,,,,,,,,,,,,,,,,,,,,,,-0.055555556,-0.147222236,1,0,0,response5disk,3,94.6344,1,0.001851894,0.00462963,1,0,0,center_square,0,2,2,1,1,0,131,5,5,2514,2490,prac_patch/patch0002514.jpg,prac_patch/patch0002490.jpg,,,,,,,,,,,,,,,,,,,,,,,,,,,,,,,,,,,,,,,,,,,,,,,,,,,,,,,,,,,,
709990,001,2022-11-21_24h52.59.496,Info_measure_main_exp,2022.2.2,Win32,40.0128041,,,,,,,,,,,,,,,,,,,,,,,,,,,,,,,,,,,,,,,,,,,,,,,,,,,,,,,,,,,space,2.7232,,,,,,,,,,,,,,,,,,,,,,,,,,,,,,,,,,,,,,,,,,,,,,,,,,,
709990,001,2022-11-21_24h52.59.496,Info_measure_main_exp,2022.2.2,Win32,40.0128041,,,,,,,,,,,,,,,,,,masks/mask_001.jpg,,,,,,,,,,,,,,,,,,,,,,,,,,,,,,,,,,,,,,,,,,,0,0,0,0,1,,,,,,,,,,,,,,,,,,,,,,,,,,,,,,,,,,,,,,,,,,,,,,
709990,001,2022-11-21_24h52.59.496,Info_measure_main_exp,2022.2.2,Win32,40.0128041,,,,,,,,,,,,,,,,,,masks/mask_004.jpg,,,,,,,,,,,,,,,,,,,,,,,,,,,,,,,,,,,,,,,,,,,0,1,1,3,1,,,,,,,,,,,,,,,,,,,,,,,,,,,,,,,,,,,,,,,,,,,,,,
709990,001,2022-11-21_24h52.59.496,Info_measure_main_exp,2022.2.2,Win32,40.0128041,,,,,,,,,,,,,,,,,,masks/mask_002.jpg,,,,,,,,,,,,,,,,,,,,,,,,,,,,,,,,,,,,,,,,,,,0,2,2,1,1,,,,,,,,,,,,,,,,,,,,,,,,,,,,,,,,,,,,,,,,,,,,,,
709990,001,2022-11-21_24h52.59.496,Info_measure_main_exp,2022.2.2,Win32,40.0128041,,,,,,,,,,,,,,,,,,masks/mask_003.jpg,,,,,,,,,,,,,,,,,,,,,,,,,,,,,,,,,,,,,,,,,,,0,3,3,2,1,,,,,,,,,,,,,,,,,,,,,,,,,,,,,,,,,,,,,,,,,,,,,,
709990,001,2022-11-21_24h52.59.496,Info_measure_main_exp,2022.2.2,Win32,40.0128041,,,,,,,,,,,,,,,,,,masks/mask_005.jpg,,,,,,,,,,,,,,,,,,,,,,,,,,,,,,,,,,,,,,,,,,,0,4,4,4,1,,,,,,,,,,,,,,,,,,,,,,,,,,,,,,,,,,,,,,,,,,,,,,
709990,001,2022-11-21_24h52.59.496,Info_measure_main_exp,2022.2.2,Win32,40.0128041,,,,,,,,,,,,,,,,,,masks/mask_005.jpg,,,,,,,,,,,,,,,,,,,,,,,,,,,,,,,,,,,,,,,,,,,,,,,,0,0,0,4,1,,,,,,,,,,,,,,,,,,,,,,,,,,,,,,,,,,,,,,,,,
709990,001,2022-11-21_24h52.59.496,Info_measure_main_exp,2022.2.2,Win32,40.0128041,,,,,,,,,,,,,,,,,,masks/mask_003.jpg,,,,,,,,,,,,,,,,,,,,,,,,,,,,,,,,,,,,,,,,,,,,,,,,0,1,1,2,1,,,,,,,,,,,,,,,,,,,,,,,,,,,,,,,,,,,,,,,,,
709990,001,2022-11-21_24h52.59.496,Info_measure_main_exp,2022.2.2,Win32,40.0128041,,,,,,,,,,,,,,,,,,masks/mask_002.jpg,,,,,,,,,,,,,,,,,,,,,,,,,,,,,,,,,,,,,,,,,,,,,,,,0,2,2,1,1,,,,,,,,,,,,,,,,,,,,,,,,,,,,,,,,,,,,,,,,,
709990,001,2022-11-21_24h52.59.496,Info_measure_main_exp,2022.2.2,Win32,40.0128041,,,,,,,,,,,,,,,,,,masks/mask_001.jpg,,,,,,,,,,,,,,,,,,,,,,,,,,,,,,,,,,,,,,,,,,,,,,,,0,3,3,0,1,,,,,,,,,,,,,,,,,,,,,,,,,,,,,,,,,,,,,,,,,
709990,001,2022-11-21_24h52.59.496,Info_measure_main_exp,2022.2.2,Win32,40.0128041,,,,,,,,,,,,,,,,,,masks/mask_004.jpg,,,,,,,,,,,,,,,,,,,,,,,,,,,,,,,,,,,,,,,,,,,,,,,,0,4,4,3,1,,,,,,,,,,,,,,,,,,,,,,,,,,,,,,,,,,,,,,,,,
709990,001,2022-11-21_24h52.59.496,Info_measure_main_exp,2022.2.2,Win32,40.0128041,,,,,,,,,,,,,,,,,,,,,,,,,,,,,,6,1.7454,1,,,,,,,,,,,,0,131,5,5,2238,2214,absent_patch/patch0002238.jpg,absent_patch/patch0002214.jpg,,,,,,,,,,,,,,,,,,,,0.159259302,0.051851838,1,0,0,response1disk,1,0.000925912,0.00462963,1,0,0,center_square,0,0,0,81,1,,,,,,,,,,,,,,,,,,,,,,,
709990,001,2022-11-21_24h52.59.496,Info_measure_main_exp,2022.2.2,Win32,40.0128041,,,,,,,,,,,,,,,,,,masks/mask_003.jpg,,,,,,,,,,,,,,,,,,,,,,,,,,,,,,,,,,,,,,,,,,,0,0,0,2,1,,,,,,,,,,,,,,,,,,,,,,,,,,,,,,,,,,,,,,,,,,,,,,
709990,001,2022-11-21_24h52.59.496,Info_measure_main_exp,2022.2.2,Win32,40.0128041,,,,,,,,,,,,,,,,,,masks/mask_004.jpg,,,,,,,,,,,,,,,,,,,,,,,,,,,,,,,,,,,,,,,,,,,0,1,1,3,1,,,,,,,,,,,,,,,,,,,,,,,,,,,,,,,,,,,,,,,,,,,,,,
709990,001,2022-11-21_24h52.59.496,Info_measure_main_exp,2022.2.2,Win32,40.0128041,,,,,,,,,,,,,,,,,,masks/mask_001.jpg,,,,,,,,,,,,,,,,,,,,,,,,,,,,,,,,,,,,,,,,,,,0,2,2,0,1,,,,,,,,,,,,,,,,,,,,,,,,,,,,,,,,,,,,,,,,,,,,,,
709990,001,2022-11-21_24h52.59.496,Info_measure_main_exp,2022.2.2,Win32,40.0128041,,,,,,,,,,,,,,,,,,masks/mask_005.jpg,,,,,,,,,,,,,,,,,,,,,,,,,,,,,,,,,,,,,,,,,,,0,3,3,4,1,,,,,,,,,,,,,,,,,,,,,,,,,,,,,,,,,,,,,,,,,,,,,,
709990,001,2022-11-21_24h52.59.496,Info_measure_main_exp,2022.2.2,Win32,40.0128041,,,,,,,,,,,,,,,,,,masks/mask_002.jpg,,,,,,,,,,,,,,,,,,,,,,,,,,,,,,,,,,,,,,,,,,,0,4,4,1,1,,,,,,,,,,,,,,,,,,,,,,,,,,,,,,,,,,,,,,,,,,,,,,
709990,001,2022-11-21_24h52.59.496,Info_measure_main_exp,2022.2.2,Win32,40.0128041,,,,,,,,,,,,,,,,,,masks/mask_001.jpg,,,,,,,,,,,,,,,,,,,,,,,,,,,,,,,,,,,,,,,,,,,,,,,,0,0,0,0,1,,,,,,,,,,,,,,,,,,,,,,,,,,,,,,,,,,,,,,,,,
709990,001,2022-11-21_24h52.59.496,Info_measure_main_exp,2022.2.2,Win32,40.0128041,,,,,,,,,,,,,,,,,,masks/mask_005.jpg,,,,,,,,,,,,,,,,,,,,,,,,,,,,,,,,,,,,,,,,,,,,,,,,0,1,1,4,1,,,,,,,,,,,,,,,,,,,,,,,,,,,,,,,,,,,,,,,,,
709990,001,2022-11-21_24h52.59.496,Info_measure_main_exp,2022.2.2,Win32,40.0128041,,,,,,,,,,,,,,,,,,masks/mask_004.jpg,,,,,,,,,,,,,,,,,,,,,,,,,,,,,,,,,,,,,,,,,,,,,,,,0,2,2,3,1,,,,,,,,,,,,,,,,,,,,,,,,,,,,,,,,,,,,,,,,,
709990,001,2022-11-21_24h52.59.496,Info_measure_main_exp,2022.2.2,Win32,40.0128041,,,,,,,,,,,,,,,,,,masks/mask_003.jpg,,,,,,,,,,,,,,,,,,,,,,,,,,,,,,,,,,,,,,,,,,,,,,,,0,3,3,2,1,,,,,,,,,,,,,,,,,,,,,,,,,,,,,,,,,,,,,,,,,
709990,001,2022-11-21_24h52.59.496,Info_measure_main_exp,2022.2.2,Win32,40.0128041,,,,,,,,,,,,,,,,,,masks/mask_002.jpg,,,,,,,,,,,,,,,,,,,,,,,,,,,,,,,,,,,,,,,,,,,,,,,,0,4,4,1,1,,,,,,,,,,,,,,,,,,,,,,,,,,,,,,,,,,,,,,,,,
709990,001,2022-11-21_24h52.59.496,Info_measure_main_exp,2022.2.2,Win32,40.0128041,,,,,,,,,,,,,,,,,,,,,,,,,,,,,,1,2.2442,1,,,,,,,,,,,,0,131,5,5,1986,1986,absent_patch/patch0001986.jpg,absent_patch/patch0001986.jpg,,,,,,,,,,,,,,,,,,,,-0.146296254,0.065740727,1,0,0,response7disk,2,0.001851894,0.005555541,1,0,0,center_square,0,1,1,19,1,,,,,,,,,,,,,,,,,,,,,,,
709990,001,2022-11-21_24h52.59.496,Info_measure_main_exp,2022.2.2,Win32,40.0128041,,,,,,,,,,,,,,,,,,masks/mask_001.jpg,,,,,,,,,,,,,,,,,,,,,,,,,,,,,,,,,,,,,,,,,,,0,0,0,0,1,,,,,,,,,,,,,,,,,,,,,,,,,,,,,,,,,,,,,,,,,,,,,,
709990,001,2022-11-21_24h52.59.496,Info_measure_main_exp,2022.2.2,Win32,40.0128041,,,,,,,,,,,,,,,,,,masks/mask_005.jpg,,,,,,,,,,,,,,,,,,,,,,,,,,,,,,,,,,,,,,,,,,,0,1,1,4,1,,,,,,,,,,,,,,,,,,,,,,,,,,,,,,,,,,,,,,,,,,,,,,
709990,001,2022-11-21_24h52.59.496,Info_measure_main_exp,2022.2.2,Win32,40.0128041,,,,,,,,,,,,,,,,,,masks/mask_002.jpg,,,,,,,,,,,,,,,,,,,,,,,,,,,,,,,,,,,,,,,,,,,0,2,2,1,1,,,,,,,,,,,,,,,,,,,,,,,,,,,,,,,,,,,,,,,,,,,,,,
709990,001,2022-11-21_24h52.59.496,Info_measure_main_exp,2022.2.2,Win32,40.0128041,,,,,,,,,,,,,,,,,,masks/mask_003.jpg,,,,,,,,,,,,,,,,,,,,,,,,,,,,,,,,,,,,,,,,,,,0,3,3,2,1,,,,,,,,,,,,,,,,,,,,,,,,,,,,,,,,,,,,,,,,,,,,,,
709990,001,2022-11-21_24h52.59.496,Info_measure_main_exp,2022.2.2,Win32,40.0128041,,,,,,,,,,,,,,,,,,masks/mask_004.jpg,,,,,,,,,,,,,,,,,,,,,,,,,,,,,,,,,,,,,,,,,,,0,4,4,3,1,,,,,,,,,,,,,,,,,,,,,,,,,,,,,,,,,,,,,,,,,,,,,,
709990,001,2022-11-21_24h52.59.496,Info_measure_main_exp,2022.2.2,Win32,40.0128041,,,,,,,,,,,,,,,,,,masks/mask_002.jpg,,,,,,,,,,,,,,,,,,,,,,,,,,,,,,,,,,,,,,,,,,,,,,,,0,0,0,1,1,,,,,,,,,,,,,,,,,,,,,,,,,,,,,,,,,,,,,,,,,
709990,001,2022-11-21_24h52.59.496,Info_measure_main_exp,2022.2.2,Win32,40.0128041,,,,,,,,,,,,,,,,,,masks/mask_005.jpg,,,,,,,,,,,,,,,,,,,,,,,,,,,,,,,,,,,,,,,,,,,,,,,,0,1,1,4,1,,,,,,,,,,,,,,,,,,,,,,,,,,,,,,,,,,,,,,,,,
709990,001,2022-11-21_24h52.59.496,Info_measure_main_exp,2022.2.2,Win32,40.0128041,,,,,,,,,,,,,,,,,,masks/mask_003.jpg,,,,,,,,,,,,,,,,,,,,,,,,,,,,,,,,,,,,,,,,,,,,,,,,0,2,2,2,1,,,,,,,,,,,,,,,,,,,,,,,,,,,,,,,,,,,,,,,,,
709990,001,2022-11-21_24h52.59.496,Info_measure_main_exp,2022.2.2,Win32,40.0128041,,,,,,,,,,,,,,,,,,masks/mask_001.jpg,,,,,,,,,,,,,,,,,,,,,,,,,,,,,,,,,,,,,,,,,,,,,,,,0,3,3,0,1,,,,,,,,,,,,,,,,,,,,,,,,,,,,,,,,,,,,,,,,,
709990,001,2022-11-21_24h52.59.496,Info_measure_main_exp,2022.2.2,Win32,40.0128041,,,,,,,,,,,,,,,,,,masks/mask_004.jpg,,,,,,,,,,,,,,,,,,,,,,,,,,,,,,,,,,,,,,,,,,,,,,,,0,4,4,3,1,,,,,,,,,,,,,,,,,,,,,,,,,,,,,,,,,,,,,,,,,
709990,001,2022-11-21_24h52.59.496,Info_measure_main_exp,2022.2.2,Win32,40.0128041,,,,,,,,,,,,,,,,,,,,,,,,,,,,,,5,1.8949,1,,,,,,,,,,,,0,131,5,5,2190,1986,absent_patch/patch0002190.jpg,absent_patch/patch0001986.jpg,,,,,,,,,,,,,,,,,,,,0.171296296,-0.041666667,1,0,0,response3disk,3,0.011111153,-0.001851859,1,0,0,center_square,0,2,2,111,1,,,,,,,,,,,,,,,,,,,,,,,
709990,001,2022-11-21_24h52.59.496,Info_measure_main_exp,2022.2.2,Win32,40.0128041,,,,,,,,,,,,,,,,,,masks/mask_002.jpg,,,,,,,,,,,,,,,,,,,,,,,,,,,,,,,,,,,,,,,,,,,0,0,0,1,1,,,,,,,,,,,,,,,,,,,,,,,,,,,,,,,,,,,,,,,,,,,,,,
709990,001,2022-11-21_24h52.59.496,Info_measure_main_exp,2022.2.2,Win32,40.0128041,,,,,,,,,,,,,,,,,,masks/mask_001.jpg,,,,,,,,,,,,,,,,,,,,,,,,,,,,,,,,,,,,,,,,,,,0,1,1,0,1,,,,,,,,,,,,,,,,,,,,,,,,,,,,,,,,,,,,,,,,,,,,,,
709990,001,2022-11-21_24h52.59.496,Info_measure_main_exp,2022.2.2,Win32,40.0128041,,,,,,,,,,,,,,,,,,masks/mask_003.jpg,,,,,,,,,,,,,,,,,,,,,,,,,,,,,,,,,,,,,,,,,,,0,2,2,2,1,,,,,,,,,,,,,,,,,,,,,,,,,,,,,,,,,,,,,,,,,,,,,,
709990,001,2022-11-21_24h52.59.496,Info_measure_main_exp,2022.2.2,Win32,40.0128041,,,,,,,,,,,,,,,,,,masks/mask_005.jpg,,,,,,,,,,,,,,,,,,,,,,,,,,,,,,,,,,,,,,,,,,,0,3,3,4,1,,,,,,,,,,,,,,,,,,,,,,,,,,,,,,,,,,,,,,,,,,,,,,
709990,001,2022-11-21_24h52.59.496,Info_measure_main_exp,2022.2.2,Win32,40.0128041,,,,,,,,,,,,,,,,,,masks/mask_004.jpg,,,,,,,,,,,,,,,,,,,,,,,,,,,,,,,,,,,,,,,,,,,0,4,4,3,1,,,,,,,,,,,,,,,,,,,,,,,,,,,,,,,,,,,,,,,,,,,,,,
709990,001,2022-11-21_24h52.59.496,Info_measure_main_exp,2022.2.2,Win32,40.0128041,,,,,,,,,,,,,,,,,,masks/mask_004.jpg,,,,,,,,,,,,,,,,,,,,,,,,,,,,,,,,,,,,,,,,,,,,,,,,0,0,0,3,1,,,,,,,,,,,,,,,,,,,,,,,,,,,,,,,,,,,,,,,,,
709990,001,2022-11-21_24h52.59.496,Info_measure_main_exp,2022.2.2,Win32,40.0128041,,,,,,,,,,,,,,,,,,masks/mask_002.jpg,,,,,,,,,,,,,,,,,,,,,,,,,,,,,,,,,,,,,,,,,,,,,,,,0,1,1,1,1,,,,,,,,,,,,,,,,,,,,,,,,,,,,,,,,,,,,,,,,,
709990,001,2022-11-21_24h52.59.496,Info_measure_main_exp,2022.2.2,Win32,40.0128041,,,,,,,,,,,,,,,,,,masks/mask_003.jpg,,,,,,,,,,,,,,,,,,,,,,,,,,,,,,,,,,,,,,,,,,,,,,,,0,2,2,2,1,,,,,,,,,,,,,,,,,,,,,,,,,,,,,,,,,,,,,,,,,
709990,001,2022-11-21_24h52.59.496,Info_measure_main_exp,2022.2.2,Win32,40.0128041,,,,,,,,,,,,,,,,,,masks/mask_005.jpg,,,,,,,,,,,,,,,,,,,,,,,,,,,,,,,,,,,,,,,,,,,,,,,,0,3,3,4,1,,,,,,,,,,,,,,,,,,,,,,,,,,,,,,,,,,,,,,,,,
709990,001,2022-11-21_24h52.59.496,Info_measure_main_exp,2022.2.2,Win32,40.0128041,,,,,,,,,,,,,,,,,,masks/mask_001.jpg,,,,,,,,,,,,,,,,,,,,,,,,,,,,,,,,,,,,,,,,,,,,,,,,0,4,4,0,1,,,,,,,,,,,,,,,,,,,,,,,,,,,,,,,,,,,,,,,,,
709990,001,2022-11-21_24h52.59.496,Info_measure_main_exp,2022.2.2,Win32,40.0128041,,,,,,,,,,,,,,,,,,,,,,,,,,,,,,6,0.9023,1,,,,,,,,,,,,0,131,5,5,2274,1950,absent_patch/patch0002274.jpg,absent_patch/patch0001950.jpg,,,,,,,,,,,,,,,,,,,,0.147222236,0.045370349,1,0,0,response1disk,4,0,0.001851859,1,0,0,center_square,0,3,3,10,1,,,,,,,,,,,,,,,,,,,,,,,
709990,001,2022-11-21_24h52.59.496,Info_measure_main_exp,2022.2.2,Win32,40.0128041,,,,,,,,,,,,,,,,,,masks/mask_002.jpg,,,,,,,,,,,,,,,,,,,,,,,,,,,,,,,,,,,,,,,,,,,0,0,0,1,1,,,,,,,,,,,,,,,,,,,,,,,,,,,,,,,,,,,,,,,,,,,,,,
709990,001,2022-11-21_24h52.59.496,Info_measure_main_exp,2022.2.2,Win32,40.0128041,,,,,,,,,,,,,,,,,,masks/mask_001.jpg,,,,,,,,,,,,,,,,,,,,,,,,,,,,,,,,,,,,,,,,,,,0,1,1,0,1,,,,,,,,,,,,,,,,,,,,,,,,,,,,,,,,,,,,,,,,,,,,,,
709990,001,2022-11-21_24h52.59.496,Info_measure_main_exp,2022.2.2,Win32,40.0128041,,,,,,,,,,,,,,,,,,masks/mask_005.jpg,,,,,,,,,,,,,,,,,,,,,,,,,,,,,,,,,,,,,,,,,,,0,2,2,4,1,,,,,,,,,,,,,,,,,,,,,,,,,,,,,,,,,,,,,,,,,,,,,,
709990,001,2022-11-21_24h52.59.496,Info_measure_main_exp,2022.2.2,Win32,40.0128041,,,,,,,,,,,,,,,,,,masks/mask_003.jpg,,,,,,,,,,,,,,,,,,,,,,,,,,,,,,,,,,,,,,,,,,,0,3,3,2,1,,,,,,,,,,,,,,,,,,,,,,,,,,,,,,,,,,,,,,,,,,,,,,
709990,001,2022-11-21_24h52.59.496,Info_measure_main_exp,2022.2.2,Win32,40.0128041,,,,,,,,,,,,,,,,,,masks/mask_004.jpg,,,,,,,,,,,,,,,,,,,,,,,,,,,,,,,,,,,,,,,,,,,0,4,4,3,1,,,,,,,,,,,,,,,,,,,,,,,,,,,,,,,,,,,,,,,,,,,,,,
709990,001,2022-11-21_24h52.59.496,Info_measure_main_exp,2022.2.2,Win32,40.0128041,,,,,,,,,,,,,,,,,,masks/mask_003.jpg,,,,,,,,,,,,,,,,,,,,,,,,,,,,,,,,,,,,,,,,,,,,,,,,0,0,0,2,1,,,,,,,,,,,,,,,,,,,,,,,,,,,,,,,,,,,,,,,,,
709990,001,2022-11-21_24h52.59.496,Info_measure_main_exp,2022.2.2,Win32,40.0128041,,,,,,,,,,,,,,,,,,masks/mask_005.jpg,,,,,,,,,,,,,,,,,,,,,,,,,,,,,,,,,,,,,,,,,,,,,,,,0,1,1,4,1,,,,,,,,,,,,,,,,,,,,,,,,,,,,,,,,,,,,,,,,,
709990,001,2022-11-21_24h52.59.496,Info_measure_main_exp,2022.2.2,Win32,40.0128041,,,,,,,,,,,,,,,,,,masks/mask_002.jpg,,,,,,,,,,,,,,,,,,,,,,,,,,,,,,,,,,,,,,,,,,,,,,,,0,2,2,1,1,,,,,,,,,,,,,,,,,,,,,,,,,,,,,,,,,,,,,,,,,
709990,001,2022-11-21_24h52.59.496,Info_measure_main_exp,2022.2.2,Win32,40.0128041,,,,,,,,,,,,,,,,,,masks/mask_004.jpg,,,,,,,,,,,,,,,,,,,,,,,,,,,,,,,,,,,,,,,,,,,,,,,,0,3,3,3,1,,,,,,,,,,,,,,,,,,,,,,,,,,,,,,,,,,,,,,,,,
709990,001,2022-11-21_24h52.59.496,Info_measure_main_exp,2022.2.2,Win32,40.0128041,,,,,,,,,,,,,,,,,,masks/mask_001.jpg,,,,,,,,,,,,,,,,,,,,,,,,,,,,,,,,,,,,,,,,,,,,,,,,0,4,4,0,1,,,,,,,,,,,,,,,,,,,,,,,,,,,,,,,,,,,,,,,,,
709990,001,2022-11-21_24h52.59.496,Info_measure_main_exp,2022.2.2,Win32,40.0128041,,,,,,,,,,,,,,,,,,,,,,,,,,,,,,5,0.9968,1,,,,,,,,,,,,0,131,5,5,2274,2250,absent_patch/patch0002274.jpg,absent_patch/patch0002250.jpg,,,,,,,,,,,,,,,,,,,,0.137962977,-0.044444437,1,0,0,response3disk,5,0.012037065,-0.012962977,1,0,0,center_square,0,4,4,28,1,,,,,,,,,,,,,,,,,,,,,,,
709990,001,2022-11-21_24h52.59.496,Info_measure_main_exp,2022.2.2,Win32,40.0128041,,,,,,,,,,,,,,,,,,masks/mask_001.jpg,,,,,,,,,,,,,,,,,,,,,,,,,,,,,,,,,,,,,,,,,,,0,0,0,0,1,,,,,,,,,,,,,,,,,,,,,,,,,,,,,,,,,,,,,,,,,,,,,,
709990,001,2022-11-21_24h52.59.496,Info_measure_main_exp,2022.2.2,Win32,40.0128041,,,,,,,,,,,,,,,,,,masks/mask_005.jpg,,,,,,,,,,,,,,,,,,,,,,,,,,,,,,,,,,,,,,,,,,,0,1,1,4,1,,,,,,,,,,,,,,,,,,,,,,,,,,,,,,,,,,,,,,,,,,,,,,
709990,001,2022-11-21_24h52.59.496,Info_measure_main_exp,2022.2.2,Win32,40.0128041,,,,,,,,,,,,,,,,,,masks/mask_002.jpg,,,,,,,,,,,,,,,,,,,,,,,,,,,,,,,,,,,,,,,,,,,0,2,2,1,1,,,,,,,,,,,,,,,,,,,,,,,,,,,,,,,,,,,,,,,,,,,,,,
709990,001,2022-11-21_24h52.59.496,Info_measure_main_exp,2022.2.2,Win32,40.0128041,,,,,,,,,,,,,,,,,,masks/mask_003.jpg,,,,,,,,,,,,,,,,,,,,,,,,,,,,,,,,,,,,,,,,,,,0,3,3,2,1,,,,,,,,,,,,,,,,,,,,,,,,,,,,,,,,,,,,,,,,,,,,,,
709990,001,2022-11-21_24h52.59.496,Info_measure_main_exp,2022.2.2,Win32,40.0128041,,,,,,,,,,,,,,,,,,masks/mask_004.jpg,,,,,,,,,,,,,,,,,,,,,,,,,,,,,,,,,,,,,,,,,,,0,4,4,3,1,,,,,,,,,,,,,,,,,,,,,,,,,,,,,,,,,,,,,,,,,,,,,,
709990,001,2022-11-21_24h52.59.496,Info_measure_main_exp,2022.2.2,Win32,40.0128041,,,,,,,,,,,,,,,,,,masks/mask_005.jpg,,,,,,,,,,,,,,,,,,,,,,,,,,,,,,,,,,,,,,,,,,,,,,,,0,0,0,4,1,,,,,,,,,,,,,,,,,,,,,,,,,,,,,,,,,,,,,,,,,
709990,001,2022-11-21_24h52.59.496,Info_measure_main_exp,2022.2.2,Win32,40.0128041,,,,,,,,,,,,,,,,,,masks/mask_002.jpg,,,,,,,,,,,,,,,,,,,,,,,,,,,,,,,,,,,,,,,,,,,,,,,,0,1,1,1,1,,,,,,,,,,,,,,,,,,,,,,,,,,,,,,,,,,,,,,,,,
709990,001,2022-11-21_24h52.59.496,Info_measure_main_exp,2022.2.2,Win32,40.0128041,,,,,,,,,,,,,,,,,,masks/mask_001.jpg,,,,,,,,,,,,,,,,,,,,,,,,,,,,,,,,,,,,,,,,,,,,,,,,0,2,2,0,1,,,,,,,,,,,,,,,,,,,,,,,,,,,,,,,,,,,,,,,,,
709990,001,2022-11-21_24h52.59.496,Info_measure_main_exp,2022.2.2,Win32,40.0128041,,,,,,,,,,,,,,,,,,masks/mask_003.jpg,,,,,,,,,,,,,,,,,,,,,,,,,,,,,,,,,,,,,,,,,,,,,,,,0,3,3,2,1,,,,,,,,,,,,,,,,,,,,,,,,,,,,,,,,,,,,,,,,,
709990,001,2022-11-21_24h52.59.496,Info_measure_main_exp,2022.2.2,Win32,40.0128041,,,,,,,,,,,,,,,,,,masks/mask_004.jpg,,,,,,,,,,,,,,,,,,,,,,,,,,,,,,,,,,,,,,,,,,,,,,,,0,4,4,3,1,,,,,,,,,,,,,,,,,,,,,,,,,,,,,,,,,,,,,,,,,
709990,001,2022-11-21_24h52.59.496,Info_measure_main_exp,2022.2.2,Win32,40.0128041,,,,,,,,,,,,,,,,,,,,,,,,,,,,,,0,1.0971,1,,,,,,,,,,,,0,131,5,5,2238,2238,absent_patch/patch0002238.jpg,absent_patch/patch0002238.jpg,,,,,,,,,,,,,,,,,,,,-0.06759255,0.16574072,1,0,0,response7disk,6,0.008333347,-0.006481489,1,0,0,center_square,0,5,5,58,1,,,,,,,,,,,,,,,,,,,,,,,
709990,001,2022-11-21_24h52.59.496,Info_measure_main_exp,2022.2.2,Win32,40.0128041,,,,,,,,,,,,,,,,,,masks/mask_001.jpg,,,,,,,,,,,,,,,,,,,,,,,,,,,,,,,,,,,,,,,,,,,0,0,0,0,1,,,,,,,,,,,,,,,,,,,,,,,,,,,,,,,,,,,,,,,,,,,,,,
709990,001,2022-11-21_24h52.59.496,Info_measure_main_exp,2022.2.2,Win32,40.0128041,,,,,,,,,,,,,,,,,,masks/mask_002.jpg,,,,,,,,,,,,,,,,,,,,,,,,,,,,,,,,,,,,,,,,,,,0,1,1,1,1,,,,,,,,,,,,,,,,,,,,,,,,,,,,,,,,,,,,,,,,,,,,,,
709990,001,2022-11-21_24h52.59.496,Info_measure_main_exp,2022.2.2,Win32,40.0128041,,,,,,,,,,,,,,,,,,masks/mask_004.jpg,,,,,,,,,,,,,,,,,,,,,,,,,,,,,,,,,,,,,,,,,,,0,2,2,3,1,,,,,,,,,,,,,,,,,,,,,,,,,,,,,,,,,,,,,,,,,,,,,,
709990,001,2022-11-21_24h52.59.496,Info_measure_main_exp,2022.2.2,Win32,40.0128041,,,,,,,,,,,,,,,,,,masks/mask_003.jpg,,,,,,,,,,,,,,,,,,,,,,,,,,,,,,,,,,,,,,,,,,,0,3,3,2,1,,,,,,,,,,,,,,,,,,,,,,,,,,,,,,,,,,,,,,,,,,,,,,
709990,001,2022-11-21_24h52.59.496,Info_measure_main_exp,2022.2.2,Win32,40.0128041,,,,,,,,,,,,,,,,,,masks/mask_005.jpg,,,,,,,,,,,,,,,,,,,,,,,,,,,,,,,,,,,,,,,,,,,0,4,4,4,1,,,,,,,,,,,,,,,,,,,,,,,,,,,,,,,,,,,,,,,,,,,,,,
709990,001,2022-11-21_24h52.59.496,Info_measure_main_exp,2022.2.2,Win32,40.0128041,,,,,,,,,,,,,,,,,,masks/mask_005.jpg,,,,,,,,,,,,,,,,,,,,,,,,,,,,,,,,,,,,,,,,,,,,,,,,0,0,0,4,1,,,,,,,,,,,,,,,,,,,,,,,,,,,,,,,,,,,,,,,,,
709990,001,2022-11-21_24h52.59.496,Info_measure_main_exp,2022.2.2,Win32,40.0128041,,,,,,,,,,,,,,,,,,masks/mask_001.jpg,,,,,,,,,,,,,,,,,,,,,,,,,,,,,,,,,,,,,,,,,,,,,,,,0,1,1,0,1,,,,,,,,,,,,,,,,,,,,,,,,,,,,,,,,,,,,,,,,,
709990,001,2022-11-21_24h52.59.496,Info_measure_main_exp,2022.2.2,Win32,40.0128041,,,,,,,,,,,,,,,,,,masks/mask_003.jpg,,,,,,,,,,,,,,,,,,,,,,,,,,,,,,,,,,,,,,,,,,,,,,,,0,2,2,2,1,,,,,,,,,,,,,,,,,,,,,,,,,,,,,,,,,,,,,,,,,
709990,001,2022-11-21_24h52.59.496,Info_measure_main_exp,2022.2.2,Win32,40.0128041,,,,,,,,,,,,,,,,,,masks/mask_004.jpg,,,,,,,,,,,,,,,,,,,,,,,,,,,,,,,,,,,,,,,,,,,,,,,,0,3,3,3,1,,,,,,,,,,,,,,,,,,,,,,,,,,,,,,,,,,,,,,,,,
709990,001,2022-11-21_24h52.59.496,Info_measure_main_exp,2022.2.2,Win32,40.0128041,,,,,,,,,,,,,,,,,,masks/mask_002.jpg,,,,,,,,,,,,,,,,,,,,,,,,,,,,,,,,,,,,,,,,,,,,,,,,0,4,4,1,1,,,,,,,,,,,,,,,,,,,,,,,,,,,,,,,,,,,,,,,,,
709990,001,2022-11-21_24h52.59.496,Info_measure_main_exp,2022.2.2,Win32,40.0128041,,,,,,,,,,,,,,,,,,,,,,,,,,,,,,3,1.3459,1,,,,,,,,,,,,1,131,5,5,1,2154,present_patch/cong_131_5_a.jpg,absent_patch/patch0002154.jpg,,,,,,,,,,,,,,,,,,,,-0.032407407,-0.122222265,1,0,0,response5disk,7,0.001851894,-0.005555577,1,0,0,center_square,0,6,6,87,1,,,,,,,,,,,,,,,,,,,,,,,
709990,001,2022-11-21_24h52.59.496,Info_measure_main_exp,2022.2.2,Win32,40.0128041,,,,,,,,,,,,,,,,,,masks/mask_001.jpg,,,,,,,,,,,,,,,,,,,,,,,,,,,,,,,,,,,,,,,,,,,0,0,0,0,1,,,,,,,,,,,,,,,,,,,,,,,,,,,,,,,,,,,,,,,,,,,,,,
709990,001,2022-11-21_24h52.59.496,Info_measure_main_exp,2022.2.2,Win32,40.0128041,,,,,,,,,,,,,,,,,,masks/mask_003.jpg,,,,,,,,,,,,,,,,,,,,,,,,,,,,,,,,,,,,,,,,,,,0,1,1,2,1,,,,,,,,,,,,,,,,,,,,,,,,,,,,,,,,,,,,,,,,,,,,,,
709990,001,2022-11-21_24h52.59.496,Info_measure_main_exp,2022.2.2,Win32,40.0128041,,,,,,,,,,,,,,,,,,masks/mask_005.jpg,,,,,,,,,,,,,,,,,,,,,,,,,,,,,,,,,,,,,,,,,,,0,2,2,4,1,,,,,,,,,,,,,,,,,,,,,,,,,,,,,,,,,,,,,,,,,,,,,,
709990,001,2022-11-21_24h52.59.496,Info_measure_main_exp,2022.2.2,Win32,40.0128041,,,,,,,,,,,,,,,,,,masks/mask_004.jpg,,,,,,,,,,,,,,,,,,,,,,,,,,,,,,,,,,,,,,,,,,,0,3,3,3,1,,,,,,,,,,,,,,,,,,,,,,,,,,,,,,,,,,,,,,,,,,,,,,
709990,001,2022-11-21_24h52.59.496,Info_measure_main_exp,2022.2.2,Win32,40.0128041,,,,,,,,,,,,,,,,,,masks/mask_002.jpg,,,,,,,,,,,,,,,,,,,,,,,,,,,,,,,,,,,,,,,,,,,0,4,4,1,1,,,,,,,,,,,,,,,,,,,,,,,,,,,,,,,,,,,,,,,,,,,,,,
709990,001,2022-11-21_24h52.59.496,Info_measure_main_exp,2022.2.2,Win32,40.0128041,,,,,,,,,,,,,,,,,,masks/mask_004.jpg,,,,,,,,,,,,,,,,,,,,,,,,,,,,,,,,,,,,,,,,,,,,,,,,0,0,0,3,1,,,,,,,,,,,,,,,,,,,,,,,,,,,,,,,,,,,,,,,,,
709990,001,2022-11-21_24h52.59.496,Info_measure_main_exp,2022.2.2,Win32,40.0128041,,,,,,,,,,,,,,,,,,masks/mask_005.jpg,,,,,,,,,,,,,,,,,,,,,,,,,,,,,,,,,,,,,,,,,,,,,,,,0,1,1,4,1,,,,,,,,,,,,,,,,,,,,,,,,,,,,,,,,,,,,,,,,,
709990,001,2022-11-21_24h52.59.496,Info_measure_main_exp,2022.2.2,Win32,40.0128041,,,,,,,,,,,,,,,,,,masks/mask_003.jpg,,,,,,,,,,,,,,,,,,,,,,,,,,,,,,,,,,,,,,,,,,,,,,,,0,2,2,2,1,,,,,,,,,,,,,,,,,,,,,,,,,,,,,,,,,,,,,,,,,
709990,001,2022-11-21_24h52.59.496,Info_measure_main_exp,2022.2.2,Win32,40.0128041,,,,,,,,,,,,,,,,,,masks/mask_002.jpg,,,,,,,,,,,,,,,,,,,,,,,,,,,,,,,,,,,,,,,,,,,,,,,,0,3,3,1,1,,,,,,,,,,,,,,,,,,,,,,,,,,,,,,,,,,,,,,,,,
709990,001,2022-11-21_24h52.59.496,Info_measure_main_exp,2022.2.2,Win32,40.0128041,,,,,,,,,,,,,,,,,,masks/mask_001.jpg,,,,,,,,,,,,,,,,,,,,,,,,,,,,,,,,,,,,,,,,,,,,,,,,0,4,4,0,1,,,,,,,,,,,,,,,,,,,,,,,,,,,,,,,,,,,,,,,,,
709990,001,2022-11-21_24h52.59.496,Info_measure_main_exp,2022.2.2,Win32,40.0128041,,,,,,,,,,,,,,,,,,,,,,,,,,,,,,0,0.7673,1,,,,,,,,,,,,1,131,5,5,1,1,present_patch/cong_131_5_a.jpg,present_patch/cong_131_5_a.jpg,,,,,,,,,,,,,,,,,,,,-0.071296268,0.162962949,1,0,0,response7disk,8,-0.000925912,-0.00462963,1,0,0,center_square,0,7,7,30,1,,,,,,,,,,,,,,,,,,,,,,,
709990,001,2022-11-21_24h52.59.496,Info_measure_main_exp,2022.2.2,Win32,40.0128041,,,,,,,,,,,,,,,,,,masks/mask_002.jpg,,,,,,,,,,,,,,,,,,,,,,,,,,,,,,,,,,,,,,,,,,,0,0,0,1,1,,,,,,,,,,,,,,,,,,,,,,,,,,,,,,,,,,,,,,,,,,,,,,
709990,001,2022-11-21_24h52.59.496,Info_measure_main_exp,2022.2.2,Win32,40.0128041,,,,,,,,,,,,,,,,,,masks/mask_001.jpg,,,,,,,,,,,,,,,,,,,,,,,,,,,,,,,,,,,,,,,,,,,0,1,1,0,1,,,,,,,,,,,,,,,,,,,,,,,,,,,,,,,,,,,,,,,,,,,,,,
709990,001,2022-11-21_24h52.59.496,Info_measure_main_exp,2022.2.2,Win32,40.0128041,,,,,,,,,,,,,,,,,,masks/mask_003.jpg,,,,,,,,,,,,,,,,,,,,,,,,,,,,,,,,,,,,,,,,,,,0,2,2,2,1,,,,,,,,,,,,,,,,,,,,,,,,,,,,,,,,,,,,,,,,,,,,,,
709990,001,2022-11-21_24h52.59.496,Info_measure_main_exp,2022.2.2,Win32,40.0128041,,,,,,,,,,,,,,,,,,masks/mask_004.jpg,,,,,,,,,,,,,,,,,,,,,,,,,,,,,,,,,,,,,,,,,,,0,3,3,3,1,,,,,,,,,,,,,,,,,,,,,,,,,,,,,,,,,,,,,,,,,,,,,,
709990,001,2022-11-21_24h52.59.496,Info_measure_main_exp,2022.2.2,Win32,40.0128041,,,,,,,,,,,,,,,,,,masks/mask_005.jpg,,,,,,,,,,,,,,,,,,,,,,,,,,,,,,,,,,,,,,,,,,,0,4,4,4,1,,,,,,,,,,,,,,,,,,,,,,,,,,,,,,,,,,,,,,,,,,,,,,
709990,001,2022-11-21_24h52.59.496,Info_measure_main_exp,2022.2.2,Win32,40.0128041,,,,,,,,,,,,,,,,,,masks/mask_001.jpg,,,,,,,,,,,,,,,,,,,,,,,,,,,,,,,,,,,,,,,,,,,,,,,,0,0,0,0,1,,,,,,,,,,,,,,,,,,,,,,,,,,,,,,,,,,,,,,,,,
709990,001,2022-11-21_24h52.59.496,Info_measure_main_exp,2022.2.2,Win32,40.0128041,,,,,,,,,,,,,,,,,,masks/mask_005.jpg,,,,,,,,,,,,,,,,,,,,,,,,,,,,,,,,,,,,,,,,,,,,,,,,0,1,1,4,1,,,,,,,,,,,,,,,,,,,,,,,,,,,,,,,,,,,,,,,,,
709990,001,2022-11-21_24h52.59.496,Info_measure_main_exp,2022.2.2,Win32,40.0128041,,,,,,,,,,,,,,,,,,masks/mask_003.jpg,,,,,,,,,,,,,,,,,,,,,,,,,,,,,,,,,,,,,,,,,,,,,,,,0,2,2,2,1,,,,,,,,,,,,,,,,,,,,,,,,,,,,,,,,,,,,,,,,,
709990,001,2022-11-21_24h52.59.496,Info_measure_main_exp,2022.2.2,Win32,40.0128041,,,,,,,,,,,,,,,,,,masks/mask_004.jpg,,,,,,,,,,,,,,,,,,,,,,,,,,,,,,,,,,,,,,,,,,,,,,,,0,3,3,3,1,,,,,,,,,,,,,,,,,,,,,,,,,,,,,,,,,,,,,,,,,
709990,001,2022-11-21_24h52.59.496,Info_measure_main_exp,2022.2.2,Win32,40.0128041,,,,,,,,,,,,,,,,,,masks/mask_002.jpg,,,,,,,,,,,,,,,,,,,,,,,,,,,,,,,,,,,,,,,,,,,,,,,,0,4,4,1,1,,,,,,,,,,,,,,,,,,,,,,,,,,,,,,,,,,,,,,,,,
709990,001,2022-11-21_24h52.59.496,Info_measure_main_exp,2022.2.2,Win32,40.0128041,,,,,,,,,,,,,,,,,,,,,,,,,,,,,,5,1.4461,1,,,,,,,,,,,,0,131,5,5,2298,2142,absent_patch/patch0002298.jpg,absent_patch/patch0002142.jpg,,,,,,,,,,,,,,,,,,,,0.150000042,-0.097222222,1,0,0,response3disk,9,-0.002777735,0.01203703,1,0,0,center_square,0,8,8,49,1,,,,,,,,,,,,,,,,,,,,,,,
709990,001,2022-11-21_24h52.59.496,Info_measure_main_exp,2022.2.2,Win32,40.0128041,,,,,,,,,,,,,,,,,,masks/mask_005.jpg,,,,,,,,,,,,,,,,,,,,,,,,,,,,,,,,,,,,,,,,,,,0,0,0,4,1,,,,,,,,,,,,,,,,,,,,,,,,,,,,,,,,,,,,,,,,,,,,,,
709990,001,2022-11-21_24h52.59.496,Info_measure_main_exp,2022.2.2,Win32,40.0128041,,,,,,,,,,,,,,,,,,masks/mask_001.jpg,,,,,,,,,,,,,,,,,,,,,,,,,,,,,,,,,,,,,,,,,,,0,1,1,0,1,,,,,,,,,,,,,,,,,,,,,,,,,,,,,,,,,,,,,,,,,,,,,,
709990,001,2022-11-21_24h52.59.496,Info_measure_main_exp,2022.2.2,Win32,40.0128041,,,,,,,,,,,,,,,,,,masks/mask_003.jpg,,,,,,,,,,,,,,,,,,,,,,,,,,,,,,,,,,,,,,,,,,,0,2,2,2,1,,,,,,,,,,,,,,,,,,,,,,,,,,,,,,,,,,,,,,,,,,,,,,
709990,001,2022-11-21_24h52.59.496,Info_measure_main_exp,2022.2.2,Win32,40.0128041,,,,,,,,,,,,,,,,,,masks/mask_004.jpg,,,,,,,,,,,,,,,,,,,,,,,,,,,,,,,,,,,,,,,,,,,0,3,3,3,1,,,,,,,,,,,,,,,,,,,,,,,,,,,,,,,,,,,,,,,,,,,,,,
709990,001,2022-11-21_24h52.59.496,Info_measure_main_exp,2022.2.2,Win32,40.0128041,,,,,,,,,,,,,,,,,,masks/mask_002.jpg,,,,,,,,,,,,,,,,,,,,,,,,,,,,,,,,,,,,,,,,,,,0,4,4,1,1,,,,,,,,,,,,,,,,,,,,,,,,,,,,,,,,,,,,,,,,,,,,,,
709990,001,2022-11-21_24h52.59.496,Info_measure_main_exp,2022.2.2,Win32,40.0128041,,,,,,,,,,,,,,,,,,masks/mask_004.jpg,,,,,,,,,,,,,,,,,,,,,,,,,,,,,,,,,,,,,,,,,,,,,,,,0,0,0,3,1,,,,,,,,,,,,,,,,,,,,,,,,,,,,,,,,,,,,,,,,,
709990,001,2022-11-21_24h52.59.496,Info_measure_main_exp,2022.2.2,Win32,40.0128041,,,,,,,,,,,,,,,,,,masks/mask_001.jpg,,,,,,,,,,,,,,,,,,,,,,,,,,,,,,,,,,,,,,,,,,,,,,,,0,1,1,0,1,,,,,,,,,,,,,,,,,,,,,,,,,,,,,,,,,,,,,,,,,
709990,001,2022-11-21_24h52.59.496,Info_measure_main_exp,2022.2.2,Win32,40.0128041,,,,,,,,,,,,,,,,,,masks/mask_005.jpg,,,,,,,,,,,,,,,,,,,,,,,,,,,,,,,,,,,,,,,,,,,,,,,,0,2,2,4,1,,,,,,,,,,,,,,,,,,,,,,,,,,,,,,,,,,,,,,,,,
709990,001,2022-11-21_24h52.59.496,Info_measure_main_exp,2022.2.2,Win32,40.0128041,,,,,,,,,,,,,,,,,,masks/mask_002.jpg,,,,,,,,,,,,,,,,,,,,,,,,,,,,,,,,,,,,,,,,,,,,,,,,0,3,3,1,1,,,,,,,,,,,,,,,,,,,,,,,,,,,,,,,,,,,,,,,,,
709990,001,2022-11-21_24h52.59.496,Info_measure_main_exp,2022.2.2,Win32,40.0128041,,,,,,,,,,,,,,,,,,masks/mask_003.jpg,,,,,,,,,,,,,,,,,,,,,,,,,,,,,,,,,,,,,,,,,,,,,,,,0,4,4,2,1,,,,,,,,,,,,,,,,,,,,,,,,,,,,,,,,,,,,,,,,,
709990,001,2022-11-21_24h52.59.496,Info_measure_main_exp,2022.2.2,Win32,40.0128041,,,,,,,,,,,,,,,,,,,,,,,,,,,,,,5,1.0225,1,,,,,,,,,,,,0,131,5,5,2178,2238,absent_patch/patch0002178.jpg,absent_patch/patch0002238.jpg,,,,,,,,,,,,,,,,,,,,0.137962977,-0.075000021,1,0,0,response3disk,10,0.002777806,0.00462963,1,0,0,center_square,0,9,9,57,1,,,,,,,,,,,,,,,,,,,,,,,
709990,001,2022-11-21_24h52.59.496,Info_measure_main_exp,2022.2.2,Win32,40.0128041,,,,,,,,,,,,,,,,,,masks/mask_005.jpg,,,,,,,,,,,,,,,,,,,,,,,,,,,,,,,,,,,,,,,,,,,0,0,0,4,1,,,,,,,,,,,,,,,,,,,,,,,,,,,,,,,,,,,,,,,,,,,,,,
709990,001,2022-11-21_24h52.59.496,Info_measure_main_exp,2022.2.2,Win32,40.0128041,,,,,,,,,,,,,,,,,,masks/mask_002.jpg,,,,,,,,,,,,,,,,,,,,,,,,,,,,,,,,,,,,,,,,,,,0,1,1,1,1,,,,,,,,,,,,,,,,,,,,,,,,,,,,,,,,,,,,,,,,,,,,,,
709990,001,2022-11-21_24h52.59.496,Info_measure_main_exp,2022.2.2,Win32,40.0128041,,,,,,,,,,,,,,,,,,masks/mask_003.jpg,,,,,,,,,,,,,,,,,,,,,,,,,,,,,,,,,,,,,,,,,,,0,2,2,2,1,,,,,,,,,,,,,,,,,,,,,,,,,,,,,,,,,,,,,,,,,,,,,,
709990,001,2022-11-21_24h52.59.496,Info_measure_main_exp,2022.2.2,Win32,40.0128041,,,,,,,,,,,,,,,,,,masks/mask_001.jpg,,,,,,,,,,,,,,,,,,,,,,,,,,,,,,,,,,,,,,,,,,,0,3,3,0,1,,,,,,,,,,,,,,,,,,,,,,,,,,,,,,,,,,,,,,,,,,,,,,
709990,001,2022-11-21_24h52.59.496,Info_measure_main_exp,2022.2.2,Win32,40.0128041,,,,,,,,,,,,,,,,,,masks/mask_004.jpg,,,,,,,,,,,,,,,,,,,,,,,,,,,,,,,,,,,,,,,,,,,0,4,4,3,1,,,,,,,,,,,,,,,,,,,,,,,,,,,,,,,,,,,,,,,,,,,,,,
709990,001,2022-11-21_24h52.59.496,Info_measure_main_exp,2022.2.2,Win32,40.0128041,,,,,,,,,,,,,,,,,,masks/mask_005.jpg,,,,,,,,,,,,,,,,,,,,,,,,,,,,,,,,,,,,,,,,,,,,,,,,0,0,0,4,1,,,,,,,,,,,,,,,,,,,,,,,,,,,,,,,,,,,,,,,,,
709990,001,2022-11-21_24h52.59.496,Info_measure_main_exp,2022.2.2,Win32,40.0128041,,,,,,,,,,,,,,,,,,masks/mask_001.jpg,,,,,,,,,,,,,,,,,,,,,,,,,,,,,,,,,,,,,,,,,,,,,,,,0,1,1,0,1,,,,,,,,,,,,,,,,,,,,,,,,,,,,,,,,,,,,,,,,,
709990,001,2022-11-21_24h52.59.496,Info_measure_main_exp,2022.2.2,Win32,40.0128041,,,,,,,,,,,,,,,,,,masks/mask_003.jpg,,,,,,,,,,,,,,,,,,,,,,,,,,,,,,,,,,,,,,,,,,,,,,,,0,2,2,2,1,,,,,,,,,,,,,,,,,,,,,,,,,,,,,,,,,,,,,,,,,
709990,001,2022-11-21_24h52.59.496,Info_measure_main_exp,2022.2.2,Win32,40.0128041,,,,,,,,,,,,,,,,,,masks/mask_002.jpg,,,,,,,,,,,,,,,,,,,,,,,,,,,,,,,,,,,,,,,,,,,,,,,,0,3,3,1,1,,,,,,,,,,,,,,,,,,,,,,,,,,,,,,,,,,,,,,,,,
709990,001,2022-11-21_24h52.59.496,Info_measure_main_exp,2022.2.2,Win32,40.0128041,,,,,,,,,,,,,,,,,,masks/mask_004.jpg,,,,,,,,,,,,,,,,,,,,,,,,,,,,,,,,,,,,,,,,,,,,,,,,0,4,4,3,1,,,,,,,,,,,,,,,,,,,,,,,,,,,,,,,,,,,,,,,,,
709990,001,2022-11-21_24h52.59.496,Info_measure_main_exp,2022.2.2,Win32,40.0128041,,,,,,,,,,,,,,,,,,,,,,,,,,,,,,0,0.6732,1,,,,,,,,,,,,0,131,5,5,2082,2082,absent_patch/patch0002082.jpg,absent_patch/patch0002082.jpg,,,,,,,,,,,,,,,,,,,,-0.091666681,0.181481467,1,0,0,response7disk,11,0.009259259,0.002777771,1,0,0,center_square,0,10,10,74,1,,,,,,,,,,,,,,,,,,,,,,,
709990,001,2022-11-21_24h52.59.496,Info_measure_main_exp,2022.2.2,Win32,40.0128041,,,,,,,,,,,,,,,,,,masks/mask_001.jpg,,,,,,,,,,,,,,,,,,,,,,,,,,,,,,,,,,,,,,,,,,,0,0,0,0,1,,,,,,,,,,,,,,,,,,,,,,,,,,,,,,,,,,,,,,,,,,,,,,
709990,001,2022-11-21_24h52.59.496,Info_measure_main_exp,2022.2.2,Win32,40.0128041,,,,,,,,,,,,,,,,,,masks/mask_005.jpg,,,,,,,,,,,,,,,,,,,,,,,,,,,,,,,,,,,,,,,,,,,0,1,1,4,1,,,,,,,,,,,,,,,,,,,,,,,,,,,,,,,,,,,,,,,,,,,,,,
709990,001,2022-11-21_24h52.59.496,Info_measure_main_exp,2022.2.2,Win32,40.0128041,,,,,,,,,,,,,,,,,,masks/mask_004.jpg,,,,,,,,,,,,,,,,,,,,,,,,,,,,,,,,,,,,,,,,,,,0,2,2,3,1,,,,,,,,,,,,,,,,,,,,,,,,,,,,,,,,,,,,,,,,,,,,,,
709990,001,2022-11-21_24h52.59.496,Info_measure_main_exp,2022.2.2,Win32,40.0128041,,,,,,,,,,,,,,,,,,masks/mask_003.jpg,,,,,,,,,,,,,,,,,,,,,,,,,,,,,,,,,,,,,,,,,,,0,3,3,2,1,,,,,,,,,,,,,,,,,,,,,,,,,,,,,,,,,,,,,,,,,,,,,,
709990,001,2022-11-21_24h52.59.496,Info_measure_main_exp,2022.2.2,Win32,40.0128041,,,,,,,,,,,,,,,,,,masks/mask_002.jpg,,,,,,,,,,,,,,,,,,,,,,,,,,,,,,,,,,,,,,,,,,,0,4,4,1,1,,,,,,,,,,,,,,,,,,,,,,,,,,,,,,,,,,,,,,,,,,,,,,
709990,001,2022-11-21_24h52.59.496,Info_measure_main_exp,2022.2.2,Win32,40.0128041,,,,,,,,,,,,,,,,,,masks/mask_001.jpg,,,,,,,,,,,,,,,,,,,,,,,,,,,,,,,,,,,,,,,,,,,,,,,,0,0,0,0,1,,,,,,,,,,,,,,,,,,,,,,,,,,,,,,,,,,,,,,,,,
709990,001,2022-11-21_24h52.59.496,Info_measure_main_exp,2022.2.2,Win32,40.0128041,,,,,,,,,,,,,,,,,,masks/mask_005.jpg,,,,,,,,,,,,,,,,,,,,,,,,,,,,,,,,,,,,,,,,,,,,,,,,0,1,1,4,1,,,,,,,,,,,,,,,,,,,,,,,,,,,,,,,,,,,,,,,,,
709990,001,2022-11-21_24h52.59.496,Info_measure_main_exp,2022.2.2,Win32,40.0128041,,,,,,,,,,,,,,,,,,masks/mask_004.jpg,,,,,,,,,,,,,,,,,,,,,,,,,,,,,,,,,,,,,,,,,,,,,,,,0,2,2,3,1,,,,,,,,,,,,,,,,,,,,,,,,,,,,,,,,,,,,,,,,,
709990,001,2022-11-21_24h52.59.496,Info_measure_main_exp,2022.2.2,Win32,40.0128041,,,,,,,,,,,,,,,,,,masks/mask_002.jpg,,,,,,,,,,,,,,,,,,,,,,,,,,,,,,,,,,,,,,,,,,,,,,,,0,3,3,1,1,,,,,,,,,,,,,,,,,,,,,,,,,,,,,,,,,,,,,,,,,
709990,001,2022-11-21_24h52.59.496,Info_measure_main_exp,2022.2.2,Win32,40.0128041,,,,,,,,,,,,,,,,,,masks/mask_003.jpg,,,,,,,,,,,,,,,,,,,,,,,,,,,,,,,,,,,,,,,,,,,,,,,,0,4,4,2,1,,,,,,,,,,,,,,,,,,,,,,,,,,,,,,,,,,,,,,,,,
709990,001,2022-11-21_24h52.59.496,Info_measure_main_exp,2022.2.2,Win32,40.0128041,,,,,,,,,,,,,,,,,,,,,,,,,,,,,,3,2.9915,1,,,,,,,,,,,,0,131,5,5,2082,2250,absent_patch/patch0002082.jpg,absent_patch/patch0002250.jpg,,,,,,,,,,,,,,,,,,,,-0.071296268,-0.131481524,1,0,0,response5disk,12,0,0.000925912,1,0,0,center_square,0,11,11,3,1,,,,,,,,,,,,,,,,,,,,,,,
709990,001,2022-11-21_24h52.59.496,Info_measure_main_exp,2022.2.2,Win32,40.0128041,,,,,,,,,,,,,,,,,,masks/mask_005.jpg,,,,,,,,,,,,,,,,,,,,,,,,,,,,,,,,,,,,,,,,,,,0,0,0,4,1,,,,,,,,,,,,,,,,,,,,,,,,,,,,,,,,,,,,,,,,,,,,,,
709990,001,2022-11-21_24h52.59.496,Info_measure_main_exp,2022.2.2,Win32,40.0128041,,,,,,,,,,,,,,,,,,masks/mask_002.jpg,,,,,,,,,,,,,,,,,,,,,,,,,,,,,,,,,,,,,,,,,,,0,1,1,1,1,,,,,,,,,,,,,,,,,,,,,,,,,,,,,,,,,,,,,,,,,,,,,,
709990,001,2022-11-21_24h52.59.496,Info_measure_main_exp,2022.2.2,Win32,40.0128041,,,,,,,,,,,,,,,,,,masks/mask_001.jpg,,,,,,,,,,,,,,,,,,,,,,,,,,,,,,,,,,,,,,,,,,,0,2,2,0,1,,,,,,,,,,,,,,,,,,,,,,,,,,,,,,,,,,,,,,,,,,,,,,
709990,001,2022-11-21_24h52.59.496,Info_measure_main_exp,2022.2.2,Win32,40.0128041,,,,,,,,,,,,,,,,,,masks/mask_003.jpg,,,,,,,,,,,,,,,,,,,,,,,,,,,,,,,,,,,,,,,,,,,0,3,3,2,1,,,,,,,,,,,,,,,,,,,,,,,,,,,,,,,,,,,,,,,,,,,,,,
709990,001,2022-11-21_24h52.59.496,Info_measure_main_exp,2022.2.2,Win32,40.0128041,,,,,,,,,,,,,,,,,,masks/mask_004.jpg,,,,,,,,,,,,,,,,,,,,,,,,,,,,,,,,,,,,,,,,,,,0,4,4,3,1,,,,,,,,,,,,,,,,,,,,,,,,,,,,,,,,,,,,,,,,,,,,,,
709990,001,2022-11-21_24h52.59.496,Info_measure_main_exp,2022.2.2,Win32,40.0128041,,,,,,,,,,,,,,,,,,masks/mask_005.jpg,,,,,,,,,,,,,,,,,,,,,,,,,,,,,,,,,,,,,,,,,,,,,,,,0,0,0,4,1,,,,,,,,,,,,,,,,,,,,,,,,,,,,,,,,,,,,,,,,,
709990,001,2022-11-21_24h52.59.496,Info_measure_main_exp,2022.2.2,Win32,40.0128041,,,,,,,,,,,,,,,,,,masks/mask_001.jpg,,,,,,,,,,,,,,,,,,,,,,,,,,,,,,,,,,,,,,,,,,,,,,,,0,1,1,0,1,,,,,,,,,,,,,,,,,,,,,,,,,,,,,,,,,,,,,,,,,
709990,001,2022-11-21_24h52.59.496,Info_measure_main_exp,2022.2.2,Win32,40.0128041,,,,,,,,,,,,,,,,,,masks/mask_003.jpg,,,,,,,,,,,,,,,,,,,,,,,,,,,,,,,,,,,,,,,,,,,,,,,,0,2,2,2,1,,,,,,,,,,,,,,,,,,,,,,,,,,,,,,,,,,,,,,,,,
709990,001,2022-11-21_24h52.59.496,Info_measure_main_exp,2022.2.2,Win32,40.0128041,,,,,,,,,,,,,,,,,,masks/mask_004.jpg,,,,,,,,,,,,,,,,,,,,,,,,,,,,,,,,,,,,,,,,,,,,,,,,0,3,3,3,1,,,,,,,,,,,,,,,,,,,,,,,,,,,,,,,,,,,,,,,,,
709990,001,2022-11-21_24h52.59.496,Info_measure_main_exp,2022.2.2,Win32,40.0128041,,,,,,,,,,,,,,,,,,masks/mask_002.jpg,,,,,,,,,,,,,,,,,,,,,,,,,,,,,,,,,,,,,,,,,,,,,,,,0,4,4,1,1,,,,,,,,,,,,,,,,,,,,,,,,,,,,,,,,,,,,,,,,,
709990,001,2022-11-21_24h52.59.496,Info_measure_main_exp,2022.2.2,Win32,40.0128041,,,,,,,,,,,,,,,,,,,,,,,,,,,,,,6,1.1913,1,,,,,,,,,,,,0,131,5,5,2142,2238,absent_patch/patch0002142.jpg,absent_patch/patch0002238.jpg,,,,,,,,,,,,,,,,,,,,0.176851838,0.051851838,1,0,0,response1disk,13,0.00462963,0.001851859,1,0,0,center_square,0,12,12,101,1,,,,,,,,,,,,,,,,,,,,,,,
709990,001,2022-11-21_24h52.59.496,Info_measure_main_exp,2022.2.2,Win32,40.0128041,,,,,,,,,,,,,,,,,,masks/mask_001.jpg,,,,,,,,,,,,,,,,,,,,,,,,,,,,,,,,,,,,,,,,,,,0,0,0,0,1,,,,,,,,,,,,,,,,,,,,,,,,,,,,,,,,,,,,,,,,,,,,,,
709990,001,2022-11-21_24h52.59.496,Info_measure_main_exp,2022.2.2,Win32,40.0128041,,,,,,,,,,,,,,,,,,masks/mask_004.jpg,,,,,,,,,,,,,,,,,,,,,,,,,,,,,,,,,,,,,,,,,,,0,1,1,3,1,,,,,,,,,,,,,,,,,,,,,,,,,,,,,,,,,,,,,,,,,,,,,,
709990,001,2022-11-21_24h52.59.496,Info_measure_main_exp,2022.2.2,Win32,40.0128041,,,,,,,,,,,,,,,,,,masks/mask_005.jpg,,,,,,,,,,,,,,,,,,,,,,,,,,,,,,,,,,,,,,,,,,,0,2,2,4,1,,,,,,,,,,,,,,,,,,,,,,,,,,,,,,,,,,,,,,,,,,,,,,
709990,001,2022-11-21_24h52.59.496,Info_measure_main_exp,2022.2.2,Win32,40.0128041,,,,,,,,,,,,,,,,,,masks/mask_002.jpg,,,,,,,,,,,,,,,,,,,,,,,,,,,,,,,,,,,,,,,,,,,0,3,3,1,1,,,,,,,,,,,,,,,,,,,,,,,,,,,,,,,,,,,,,,,,,,,,,,
709990,001,2022-11-21_24h52.59.496,Info_measure_main_exp,2022.2.2,Win32,40.0128041,,,,,,,,,,,,,,,,,,masks/mask_003.jpg,,,,,,,,,,,,,,,,,,,,,,,,,,,,,,,,,,,,,,,,,,,0,4,4,2,1,,,,,,,,,,,,,,,,,,,,,,,,,,,,,,,,,,,,,,,,,,,,,,
709990,001,2022-11-21_24h52.59.496,Info_measure_main_exp,2022.2.2,Win32,40.0128041,,,,,,,,,,,,,,,,,,masks/mask_005.jpg,,,,,,,,,,,,,,,,,,,,,,,,,,,,,,,,,,,,,,,,,,,,,,,,0,0,0,4,1,,,,,,,,,,,,,,,,,,,,,,,,,,,,,,,,,,,,,,,,,
709990,001,2022-11-21_24h52.59.496,Info_measure_main_exp,2022.2.2,Win32,40.0128041,,,,,,,,,,,,,,,,,,masks/mask_001.jpg,,,,,,,,,,,,,,,,,,,,,,,,,,,,,,,,,,,,,,,,,,,,,,,,0,1,1,0,1,,,,,,,,,,,,,,,,,,,,,,,,,,,,,,,,,,,,,,,,,
709990,001,2022-11-21_24h52.59.496,Info_measure_main_exp,2022.2.2,Win32,40.0128041,,,,,,,,,,,,,,,,,,masks/mask_002.jpg,,,,,,,,,,,,,,,,,,,,,,,,,,,,,,,,,,,,,,,,,,,,,,,,0,2,2,1,1,,,,,,,,,,,,,,,,,,,,,,,,,,,,,,,,,,,,,,,,,
709990,001,2022-11-21_24h52.59.496,Info_measure_main_exp,2022.2.2,Win32,40.0128041,,,,,,,,,,,,,,,,,,masks/mask_004.jpg,,,,,,,,,,,,,,,,,,,,,,,,,,,,,,,,,,,,,,,,,,,,,,,,0,3,3,3,1,,,,,,,,,,,,,,,,,,,,,,,,,,,,,,,,,,,,,,,,,
709990,001,2022-11-21_24h52.59.496,Info_measure_main_exp,2022.2.2,Win32,40.0128041,,,,,,,,,,,,,,,,,,masks/mask_003.jpg,,,,,,,,,,,,,,,,,,,,,,,,,,,,,,,,,,,,,,,,,,,,,,,,0,4,4,2,1,,,,,,,,,,,,,,,,,,,,,,,,,,,,,,,,,,,,,,,,,
709990,001,2022-11-21_24h52.59.496,Info_measure_main_exp,2022.2.2,Win32,40.0128041,,,,,,,,,,,,,,,,,,,,,,,,,,,,,,6,0.9715,1,,,,,,,,,,,,0,131,5,5,2154,2250,absent_patch/patch0002154.jpg,absent_patch/patch0002250.jpg,,,,,,,,,,,,,,,,,,,,0.179629644,0.087037016,1,0,0,response1disk,14,0.010185171,-0.000925947,1,0,0,center_square,0,13,13,108,1,,,,,,,,,,,,,,,,,,,,,,,
709990,001,2022-11-21_24h52.59.496,Info_measure_main_exp,2022.2.2,Win32,40.0128041,,,,,,,,,,,,,,,,,,masks/mask_002.jpg,,,,,,,,,,,,,,,,,,,,,,,,,,,,,,,,,,,,,,,,,,,0,0,0,1,1,,,,,,,,,,,,,,,,,,,,,,,,,,,,,,,,,,,,,,,,,,,,,,
709990,001,2022-11-21_24h52.59.496,Info_measure_main_exp,2022.2.2,Win32,40.0128041,,,,,,,,,,,,,,,,,,masks/mask_001.jpg,,,,,,,,,,,,,,,,,,,,,,,,,,,,,,,,,,,,,,,,,,,0,1,1,0,1,,,,,,,,,,,,,,,,,,,,,,,,,,,,,,,,,,,,,,,,,,,,,,
709990,001,2022-11-21_24h52.59.496,Info_measure_main_exp,2022.2.2,Win32,40.0128041,,,,,,,,,,,,,,,,,,masks/mask_005.jpg,,,,,,,,,,,,,,,,,,,,,,,,,,,,,,,,,,,,,,,,,,,0,2,2,4,1,,,,,,,,,,,,,,,,,,,,,,,,,,,,,,,,,,,,,,,,,,,,,,
709990,001,2022-11-21_24h52.59.496,Info_measure_main_exp,2022.2.2,Win32,40.0128041,,,,,,,,,,,,,,,,,,masks/mask_003.jpg,,,,,,,,,,,,,,,,,,,,,,,,,,,,,,,,,,,,,,,,,,,0,3,3,2,1,,,,,,,,,,,,,,,,,,,,,,,,,,,,,,,,,,,,,,,,,,,,,,
709990,001,2022-11-21_24h52.59.496,Info_measure_main_exp,2022.2.2,Win32,40.0128041,,,,,,,,,,,,,,,,,,masks/mask_004.jpg,,,,,,,,,,,,,,,,,,,,,,,,,,,,,,,,,,,,,,,,,,,0,4,4,3,1,,,,,,,,,,,,,,,,,,,,,,,,,,,,,,,,,,,,,,,,,,,,,,
709990,001,2022-11-21_24h52.59.496,Info_measure_main_exp,2022.2.2,Win32,40.0128041,,,,,,,,,,,,,,,,,,masks/mask_002.jpg,,,,,,,,,,,,,,,,,,,,,,,,,,,,,,,,,,,,,,,,,,,,,,,,0,0,0,1,1,,,,,,,,,,,,,,,,,,,,,,,,,,,,,,,,,,,,,,,,,
709990,001,2022-11-21_24h52.59.496,Info_measure_main_exp,2022.2.2,Win32,40.0128041,,,,,,,,,,,,,,,,,,masks/mask_003.jpg,,,,,,,,,,,,,,,,,,,,,,,,,,,,,,,,,,,,,,,,,,,,,,,,0,1,1,2,1,,,,,,,,,,,,,,,,,,,,,,,,,,,,,,,,,,,,,,,,,
709990,001,2022-11-21_24h52.59.496,Info_measure_main_exp,2022.2.2,Win32,40.0128041,,,,,,,,,,,,,,,,,,masks/mask_001.jpg,,,,,,,,,,,,,,,,,,,,,,,,,,,,,,,,,,,,,,,,,,,,,,,,0,2,2,0,1,,,,,,,,,,,,,,,,,,,,,,,,,,,,,,,,,,,,,,,,,
709990,001,2022-11-21_24h52.59.496,Info_measure_main_exp,2022.2.2,Win32,40.0128041,,,,,,,,,,,,,,,,,,masks/mask_004.jpg,,,,,,,,,,,,,,,,,,,,,,,,,,,,,,,,,,,,,,,,,,,,,,,,0,3,3,3,1,,,,,,,,,,,,,,,,,,,,,,,,,,,,,,,,,,,,,,,,,
709990,001,2022-11-21_24h52.59.496,Info_measure_main_exp,2022.2.2,Win32,40.0128041,,,,,,,,,,,,,,,,,,masks/mask_005.jpg,,,,,,,,,,,,,,,,,,,,,,,,,,,,,,,,,,,,,,,,,,,,,,,,0,4,4,4,1,,,,,,,,,,,,,,,,,,,,,,,,,,,,,,,,,,,,,,,,,
709990,001,2022-11-21_24h52.59.496,Info_measure_main_exp,2022.2.2,Win32,40.0128041,,,,,,,,,,,,,,,,,,,,,,,,,,,,,,4,1.2971,1,,,,,,,,,,,,0,131,5,5,2166,1986,absent_patch/patch0002166.jpg,absent_patch/patch0001986.jpg,,,,,,,,,,,,,,,,,,,,0.056481467,-0.135185171,1,0,0,response3disk,15,0.001851894,0,1,0,0,center_square,0,14,14,47,1,,,,,,,,,,,,,,,,,,,,,,,
709990,001,2022-11-21_24h52.59.496,Info_measure_main_exp,2022.2.2,Win32,40.0128041,,,,,,,,,,,,,,,,,,masks/mask_005.jpg,,,,,,,,,,,,,,,,,,,,,,,,,,,,,,,,,,,,,,,,,,,0,0,0,4,1,,,,,,,,,,,,,,,,,,,,,,,,,,,,,,,,,,,,,,,,,,,,,,
709990,001,2022-11-21_24h52.59.496,Info_measure_main_exp,2022.2.2,Win32,40.0128041,,,,,,,,,,,,,,,,,,masks/mask_003.jpg,,,,,,,,,,,,,,,,,,,,,,,,,,,,,,,,,,,,,,,,,,,0,1,1,2,1,,,,,,,,,,,,,,,,,,,,,,,,,,,,,,,,,,,,,,,,,,,,,,
709990,001,2022-11-21_24h52.59.496,Info_measure_main_exp,2022.2.2,Win32,40.0128041,,,,,,,,,,,,,,,,,,masks/mask_004.jpg,,,,,,,,,,,,,,,,,,,,,,,,,,,,,,,,,,,,,,,,,,,0,2,2,3,1,,,,,,,,,,,,,,,,,,,,,,,,,,,,,,,,,,,,,,,,,,,,,,
709990,001,2022-11-21_24h52.59.496,Info_measure_main_exp,2022.2.2,Win32,40.0128041,,,,,,,,,,,,,,,,,,masks/mask_001.jpg,,,,,,,,,,,,,,,,,,,,,,,,,,,,,,,,,,,,,,,,,,,0,3,3,0,1,,,,,,,,,,,,,,,,,,,,,,,,,,,,,,,,,,,,,,,,,,,,,,
709990,001,2022-11-21_24h52.59.496,Info_measure_main_exp,2022.2.2,Win32,40.0128041,,,,,,,,,,,,,,,,,,masks/mask_002.jpg,,,,,,,,,,,,,,,,,,,,,,,,,,,,,,,,,,,,,,,,,,,0,4,4,1,1,,,,,,,,,,,,,,,,,,,,,,,,,,,,,,,,,,,,,,,,,,,,,,
709990,001,2022-11-21_24h52.59.496,Info_measure_main_exp,2022.2.2,Win32,40.0128041,,,,,,,,,,,,,,,,,,masks/mask_004.jpg,,,,,,,,,,,,,,,,,,,,,,,,,,,,,,,,,,,,,,,,,,,,,,,,0,0,0,3,1,,,,,,,,,,,,,,,,,,,,,,,,,,,,,,,,,,,,,,,,,
709990,001,2022-11-21_24h52.59.496,Info_measure_main_exp,2022.2.2,Win32,40.0128041,,,,,,,,,,,,,,,,,,masks/mask_003.jpg,,,,,,,,,,,,,,,,,,,,,,,,,,,,,,,,,,,,,,,,,,,,,,,,0,1,1,2,1,,,,,,,,,,,,,,,,,,,,,,,,,,,,,,,,,,,,,,,,,
709990,001,2022-11-21_24h52.59.496,Info_measure_main_exp,2022.2.2,Win32,40.0128041,,,,,,,,,,,,,,,,,,masks/mask_005.jpg,,,,,,,,,,,,,,,,,,,,,,,,,,,,,,,,,,,,,,,,,,,,,,,,0,2,2,4,1,,,,,,,,,,,,,,,,,,,,,,,,,,,,,,,,,,,,,,,,,
709990,001,2022-11-21_24h52.59.496,Info_measure_main_exp,2022.2.2,Win32,40.0128041,,,,,,,,,,,,,,,,,,masks/mask_001.jpg,,,,,,,,,,,,,,,,,,,,,,,,,,,,,,,,,,,,,,,,,,,,,,,,0,3,3,0,1,,,,,,,,,,,,,,,,,,,,,,,,,,,,,,,,,,,,,,,,,
709990,001,2022-11-21_24h52.59.496,Info_measure_main_exp,2022.2.2,Win32,40.0128041,,,,,,,,,,,,,,,,,,masks/mask_002.jpg,,,,,,,,,,,,,,,,,,,,,,,,,,,,,,,,,,,,,,,,,,,,,,,,0,4,4,1,1,,,,,,,,,,,,,,,,,,,,,,,,,,,,,,,,,,,,,,,,,
709990,001,2022-11-21_24h52.59.496,Info_measure_main_exp,2022.2.2,Win32,40.0128041,,,,,,,,,,,,,,,,,,,,,,,,,,,,,,6,1.5964,1,,,,,,,,,,,,1,131,5,5,1,1974,present_patch/cong_131_5_a.jpg,absent_patch/patch0001974.jpg,,,,,,,,,,,,,,,,,,,,0.199074074,0.02870369,1,0,0,response1disk,16,-0.007407365,-0.001851859,1,0,0,center_square,0,15,15,69,1,,,,,,,,,,,,,,,,,,,,,,,
709990,001,2022-11-21_24h52.59.496,Info_measure_main_exp,2022.2.2,Win32,40.0128041,,,,,,,,,,,,,,,,,,masks/mask_005.jpg,,,,,,,,,,,,,,,,,,,,,,,,,,,,,,,,,,,,,,,,,,,0,0,0,4,1,,,,,,,,,,,,,,,,,,,,,,,,,,,,,,,,,,,,,,,,,,,,,,
709990,001,2022-11-21_24h52.59.496,Info_measure_main_exp,2022.2.2,Win32,40.0128041,,,,,,,,,,,,,,,,,,masks/mask_004.jpg,,,,,,,,,,,,,,,,,,,,,,,,,,,,,,,,,,,,,,,,,,,0,1,1,3,1,,,,,,,,,,,,,,,,,,,,,,,,,,,,,,,,,,,,,,,,,,,,,,
709990,001,2022-11-21_24h52.59.496,Info_measure_main_exp,2022.2.2,Win32,40.0128041,,,,,,,,,,,,,,,,,,masks/mask_002.jpg,,,,,,,,,,,,,,,,,,,,,,,,,,,,,,,,,,,,,,,,,,,0,2,2,1,1,,,,,,,,,,,,,,,,,,,,,,,,,,,,,,,,,,,,,,,,,,,,,,
709990,001,2022-11-21_24h52.59.496,Info_measure_main_exp,2022.2.2,Win32,40.0128041,,,,,,,,,,,,,,,,,,masks/mask_003.jpg,,,,,,,,,,,,,,,,,,,,,,,,,,,,,,,,,,,,,,,,,,,0,3,3,2,1,,,,,,,,,,,,,,,,,,,,,,,,,,,,,,,,,,,,,,,,,,,,,,
709990,001,2022-11-21_24h52.59.496,Info_measure_main_exp,2022.2.2,Win32,40.0128041,,,,,,,,,,,,,,,,,,masks/mask_001.jpg,,,,,,,,,,,,,,,,,,,,,,,,,,,,,,,,,,,,,,,,,,,0,4,4,0,1,,,,,,,,,,,,,,,,,,,,,,,,,,,,,,,,,,,,,,,,,,,,,,
709990,001,2022-11-21_24h52.59.496,Info_measure_main_exp,2022.2.2,Win32,40.0128041,,,,,,,,,,,,,,,,,,masks/mask_005.jpg,,,,,,,,,,,,,,,,,,,,,,,,,,,,,,,,,,,,,,,,,,,,,,,,0,0,0,4,1,,,,,,,,,,,,,,,,,,,,,,,,,,,,,,,,,,,,,,,,,
709990,001,2022-11-21_24h52.59.496,Info_measure_main_exp,2022.2.2,Win32,40.0128041,,,,,,,,,,,,,,,,,,masks/mask_003.jpg,,,,,,,,,,,,,,,,,,,,,,,,,,,,,,,,,,,,,,,,,,,,,,,,0,1,1,2,1,,,,,,,,,,,,,,,,,,,,,,,,,,,,,,,,,,,,,,,,,
709990,001,2022-11-21_24h52.59.496,Info_measure_main_exp,2022.2.2,Win32,40.0128041,,,,,,,,,,,,,,,,,,masks/mask_001.jpg,,,,,,,,,,,,,,,,,,,,,,,,,,,,,,,,,,,,,,,,,,,,,,,,0,2,2,0,1,,,,,,,,,,,,,,,,,,,,,,,,,,,,,,,,,,,,,,,,,
709990,001,2022-11-21_24h52.59.496,Info_measure_main_exp,2022.2.2,Win32,40.0128041,,,,,,,,,,,,,,,,,,masks/mask_002.jpg,,,,,,,,,,,,,,,,,,,,,,,,,,,,,,,,,,,,,,,,,,,,,,,,0,3,3,1,1,,,,,,,,,,,,,,,,,,,,,,,,,,,,,,,,,,,,,,,,,
709990,001,2022-11-21_24h52.59.496,Info_measure_main_exp,2022.2.2,Win32,40.0128041,,,,,,,,,,,,,,,,,,masks/mask_004.jpg,,,,,,,,,,,,,,,,,,,,,,,,,,,,,,,,,,,,,,,,,,,,,,,,0,4,4,3,1,,,,,,,,,,,,,,,,,,,,,,,,,,,,,,,,,,,,,,,,,
709990,001,2022-11-21_24h52.59.496,Info_measure_main_exp,2022.2.2,Win32,40.0128041,,,,,,,,,,,,,,,,,,,,,,,,,,,,,,6,0.598,1,,,,,,,,,,,,0,131,5,5,1950,2238,absent_patch/patch0001950.jpg,absent_patch/patch0002238.jpg,,,,,,,,,,,,,,,,,,,,0.123148176,0.038888896,1,0,0,response1disk,17,-0.013888889,-0.001851859,1,0,0,center_square,0,16,16,8,1,,,,,,,,,,,,,,,,,,,,,,,
709990,001,2022-11-21_24h52.59.496,Info_measure_main_exp,2022.2.2,Win32,40.0128041,,,,,,,,,,,,,,,,,,masks/mask_004.jpg,,,,,,,,,,,,,,,,,,,,,,,,,,,,,,,,,,,,,,,,,,,0,0,0,3,1,,,,,,,,,,,,,,,,,,,,,,,,,,,,,,,,,,,,,,,,,,,,,,
709990,001,2022-11-21_24h52.59.496,Info_measure_main_exp,2022.2.2,Win32,40.0128041,,,,,,,,,,,,,,,,,,masks/mask_005.jpg,,,,,,,,,,,,,,,,,,,,,,,,,,,,,,,,,,,,,,,,,,,0,1,1,4,1,,,,,,,,,,,,,,,,,,,,,,,,,,,,,,,,,,,,,,,,,,,,,,
709990,001,2022-11-21_24h52.59.496,Info_measure_main_exp,2022.2.2,Win32,40.0128041,,,,,,,,,,,,,,,,,,masks/mask_003.jpg,,,,,,,,,,,,,,,,,,,,,,,,,,,,,,,,,,,,,,,,,,,0,2,2,2,1,,,,,,,,,,,,,,,,,,,,,,,,,,,,,,,,,,,,,,,,,,,,,,
709990,001,2022-11-21_24h52.59.496,Info_measure_main_exp,2022.2.2,Win32,40.0128041,,,,,,,,,,,,,,,,,,masks/mask_002.jpg,,,,,,,,,,,,,,,,,,,,,,,,,,,,,,,,,,,,,,,,,,,0,3,3,1,1,,,,,,,,,,,,,,,,,,,,,,,,,,,,,,,,,,,,,,,,,,,,,,
709990,001,2022-11-21_24h52.59.496,Info_measure_main_exp,2022.2.2,Win32,40.0128041,,,,,,,,,,,,,,,,,,masks/mask_001.jpg,,,,,,,,,,,,,,,,,,,,,,,,,,,,,,,,,,,,,,,,,,,0,4,4,0,1,,,,,,,,,,,,,,,,,,,,,,,,,,,,,,,,,,,,,,,,,,,,,,
709990,001,2022-11-21_24h52.59.496,Info_measure_main_exp,2022.2.2,Win32,40.0128041,,,,,,,,,,,,,,,,,,masks/mask_001.jpg,,,,,,,,,,,,,,,,,,,,,,,,,,,,,,,,,,,,,,,,,,,,,,,,0,0,0,0,1,,,,,,,,,,,,,,,,,,,,,,,,,,,,,,,,,,,,,,,,,
709990,001,2022-11-21_24h52.59.496,Info_measure_main_exp,2022.2.2,Win32,40.0128041,,,,,,,,,,,,,,,,,,masks/mask_005.jpg,,,,,,,,,,,,,,,,,,,,,,,,,,,,,,,,,,,,,,,,,,,,,,,,0,1,1,4,1,,,,,,,,,,,,,,,,,,,,,,,,,,,,,,,,,,,,,,,,,
709990,001,2022-11-21_24h52.59.496,Info_measure_main_exp,2022.2.2,Win32,40.0128041,,,,,,,,,,,,,,,,,,masks/mask_003.jpg,,,,,,,,,,,,,,,,,,,,,,,,,,,,,,,,,,,,,,,,,,,,,,,,0,2,2,2,1,,,,,,,,,,,,,,,,,,,,,,,,,,,,,,,,,,,,,,,,,
709990,001,2022-11-21_24h52.59.496,Info_measure_main_exp,2022.2.2,Win32,40.0128041,,,,,,,,,,,,,,,,,,masks/mask_004.jpg,,,,,,,,,,,,,,,,,,,,,,,,,,,,,,,,,,,,,,,,,,,,,,,,0,3,3,3,1,,,,,,,,,,,,,,,,,,,,,,,,,,,,,,,,,,,,,,,,,
709990,001,2022-11-21_24h52.59.496,Info_measure_main_exp,2022.2.2,Win32,40.0128041,,,,,,,,,,,,,,,,,,masks/mask_002.jpg,,,,,,,,,,,,,,,,,,,,,,,,,,,,,,,,,,,,,,,,,,,,,,,,0,4,4,1,1,,,,,,,,,,,,,,,,,,,,,,,,,,,,,,,,,,,,,,,,,
709990,001,2022-11-21_24h52.59.496,Info_measure_main_exp,2022.2.2,Win32,40.0128041,,,,,,,,,,,,,,,,,,,,,,,,,,,,,,5,0.673,1,,,,,,,,,,,,1,131,5,5,1,2274,present_patch/cong_131_5_a.jpg,absent_patch/patch0002274.jpg,,,,,,,,,,,,,,,,,,,,0.138888889,-0.063888903,1,0,0,response3disk,18,0.009259259,-0.006481489,1,0,0,center_square,0,17,17,105,1,,,,,,,,,,,,,,,,,,,,,,,
709990,001,2022-11-21_24h52.59.496,Info_measure_main_exp,2022.2.2,Win32,40.0128041,,,,,,,,,,,,,,,,,,masks/mask_003.jpg,,,,,,,,,,,,,,,,,,,,,,,,,,,,,,,,,,,,,,,,,,,0,0,0,2,1,,,,,,,,,,,,,,,,,,,,,,,,,,,,,,,,,,,,,,,,,,,,,,
709990,001,2022-11-21_24h52.59.496,Info_measure_main_exp,2022.2.2,Win32,40.0128041,,,,,,,,,,,,,,,,,,masks/mask_004.jpg,,,,,,,,,,,,,,,,,,,,,,,,,,,,,,,,,,,,,,,,,,,0,1,1,3,1,,,,,,,,,,,,,,,,,,,,,,,,,,,,,,,,,,,,,,,,,,,,,,
709990,001,2022-11-21_24h52.59.496,Info_measure_main_exp,2022.2.2,Win32,40.0128041,,,,,,,,,,,,,,,,,,masks/mask_001.jpg,,,,,,,,,,,,,,,,,,,,,,,,,,,,,,,,,,,,,,,,,,,0,2,2,0,1,,,,,,,,,,,,,,,,,,,,,,,,,,,,,,,,,,,,,,,,,,,,,,
709990,001,2022-11-21_24h52.59.496,Info_measure_main_exp,2022.2.2,Win32,40.0128041,,,,,,,,,,,,,,,,,,masks/mask_005.jpg,,,,,,,,,,,,,,,,,,,,,,,,,,,,,,,,,,,,,,,,,,,0,3,3,4,1,,,,,,,,,,,,,,,,,,,,,,,,,,,,,,,,,,,,,,,,,,,,,,
709990,001,2022-11-21_24h52.59.496,Info_measure_main_exp,2022.2.2,Win32,40.0128041,,,,,,,,,,,,,,,,,,masks/mask_002.jpg,,,,,,,,,,,,,,,,,,,,,,,,,,,,,,,,,,,,,,,,,,,0,4,4,1,1,,,,,,,,,,,,,,,,,,,,,,,,,,,,,,,,,,,,,,,,,,,,,,
709990,001,2022-11-21_24h52.59.496,Info_measure_main_exp,2022.2.2,Win32,40.0128041,,,,,,,,,,,,,,,,,,masks/mask_001.jpg,,,,,,,,,,,,,,,,,,,,,,,,,,,,,,,,,,,,,,,,,,,,,,,,0,0,0,0,1,,,,,,,,,,,,,,,,,,,,,,,,,,,,,,,,,,,,,,,,,
709990,001,2022-11-21_24h52.59.496,Info_measure_main_exp,2022.2.2,Win32,40.0128041,,,,,,,,,,,,,,,,,,masks/mask_003.jpg,,,,,,,,,,,,,,,,,,,,,,,,,,,,,,,,,,,,,,,,,,,,,,,,0,1,1,2,1,,,,,,,,,,,,,,,,,,,,,,,,,,,,,,,,,,,,,,,,,
709990,001,2022-11-21_24h52.59.496,Info_measure_main_exp,2022.2.2,Win32,40.0128041,,,,,,,,,,,,,,,,,,masks/mask_002.jpg,,,,,,,,,,,,,,,,,,,,,,,,,,,,,,,,,,,,,,,,,,,,,,,,0,2,2,1,1,,,,,,,,,,,,,,,,,,,,,,,,,,,,,,,,,,,,,,,,,
709990,001,2022-11-21_24h52.59.496,Info_measure_main_exp,2022.2.2,Win32,40.0128041,,,,,,,,,,,,,,,,,,masks/mask_004.jpg,,,,,,,,,,,,,,,,,,,,,,,,,,,,,,,,,,,,,,,,,,,,,,,,0,3,3,3,1,,,,,,,,,,,,,,,,,,,,,,,,,,,,,,,,,,,,,,,,,
709990,001,2022-11-21_24h52.59.496,Info_measure_main_exp,2022.2.2,Win32,40.0128041,,,,,,,,,,,,,,,,,,masks/mask_005.jpg,,,,,,,,,,,,,,,,,,,,,,,,,,,,,,,,,,,,,,,,,,,,,,,,0,4,4,4,1,,,,,,,,,,,,,,,,,,,,,,,,,,,,,,,,,,,,,,,,,
709990,001,2022-11-21_24h52.59.496,Info_measure_main_exp,2022.2.2,Win32,40.0128041,,,,,,,,,,,,,,,,,,,,,,,,,,,,,,3,1.3967,1,,,,,,,,,,,,0,131,5,5,2154,2214,absent_patch/patch0002154.jpg,absent_patch/patch0002214.jpg,,,,,,,,,,,,,,,,,,,,-0.021296254,-0.125925912,1,0,0,response5disk,19,0.009259259,-0.002777771,1,0,0,center_square,0,18,18,67,1,,,,,,,,,,,,,,,,,,,,,,,
709990,001,2022-11-21_24h52.59.496,Info_measure_main_exp,2022.2.2,Win32,40.0128041,,,,,,,,,,,,,,,,,,masks/mask_003.jpg,,,,,,,,,,,,,,,,,,,,,,,,,,,,,,,,,,,,,,,,,,,0,0,0,2,1,,,,,,,,,,,,,,,,,,,,,,,,,,,,,,,,,,,,,,,,,,,,,,
709990,001,2022-11-21_24h52.59.496,Info_measure_main_exp,2022.2.2,Win32,40.0128041,,,,,,,,,,,,,,,,,,masks/mask_002.jpg,,,,,,,,,,,,,,,,,,,,,,,,,,,,,,,,,,,,,,,,,,,0,1,1,1,1,,,,,,,,,,,,,,,,,,,,,,,,,,,,,,,,,,,,,,,,,,,,,,
709990,001,2022-11-21_24h52.59.496,Info_measure_main_exp,2022.2.2,Win32,40.0128041,,,,,,,,,,,,,,,,,,masks/mask_004.jpg,,,,,,,,,,,,,,,,,,,,,,,,,,,,,,,,,,,,,,,,,,,0,2,2,3,1,,,,,,,,,,,,,,,,,,,,,,,,,,,,,,,,,,,,,,,,,,,,,,
709990,001,2022-11-21_24h52.59.496,Info_measure_main_exp,2022.2.2,Win32,40.0128041,,,,,,,,,,,,,,,,,,masks/mask_005.jpg,,,,,,,,,,,,,,,,,,,,,,,,,,,,,,,,,,,,,,,,,,,0,3,3,4,1,,,,,,,,,,,,,,,,,,,,,,,,,,,,,,,,,,,,,,,,,,,,,,
709990,001,2022-11-21_24h52.59.496,Info_measure_main_exp,2022.2.2,Win32,40.0128041,,,,,,,,,,,,,,,,,,masks/mask_001.jpg,,,,,,,,,,,,,,,,,,,,,,,,,,,,,,,,,,,,,,,,,,,0,4,4,0,1,,,,,,,,,,,,,,,,,,,,,,,,,,,,,,,,,,,,,,,,,,,,,,
709990,001,2022-11-21_24h52.59.496,Info_measure_main_exp,2022.2.2,Win32,40.0128041,,,,,,,,,,,,,,,,,,masks/mask_005.jpg,,,,,,,,,,,,,,,,,,,,,,,,,,,,,,,,,,,,,,,,,,,,,,,,0,0,0,4,1,,,,,,,,,,,,,,,,,,,,,,,,,,,,,,,,,,,,,,,,,
709990,001,2022-11-21_24h52.59.496,Info_measure_main_exp,2022.2.2,Win32,40.0128041,,,,,,,,,,,,,,,,,,masks/mask_004.jpg,,,,,,,,,,,,,,,,,,,,,,,,,,,,,,,,,,,,,,,,,,,,,,,,0,1,1,3,1,,,,,,,,,,,,,,,,,,,,,,,,,,,,,,,,,,,,,,,,,
709990,001,2022-11-21_24h52.59.496,Info_measure_main_exp,2022.2.2,Win32,40.0128041,,,,,,,,,,,,,,,,,,masks/mask_003.jpg,,,,,,,,,,,,,,,,,,,,,,,,,,,,,,,,,,,,,,,,,,,,,,,,0,2,2,2,1,,,,,,,,,,,,,,,,,,,,,,,,,,,,,,,,,,,,,,,,,
709990,001,2022-11-21_24h52.59.496,Info_measure_main_exp,2022.2.2,Win32,40.0128041,,,,,,,,,,,,,,,,,,masks/mask_002.jpg,,,,,,,,,,,,,,,,,,,,,,,,,,,,,,,,,,,,,,,,,,,,,,,,0,3,3,1,1,,,,,,,,,,,,,,,,,,,,,,,,,,,,,,,,,,,,,,,,,
709990,001,2022-11-21_24h52.59.496,Info_measure_main_exp,2022.2.2,Win32,40.0128041,,,,,,,,,,,,,,,,,,masks/mask_001.jpg,,,,,,,,,,,,,,,,,,,,,,,,,,,,,,,,,,,,,,,,,,,,,,,,0,4,4,0,1,,,,,,,,,,,,,,,,,,,,,,,,,,,,,,,,,,,,,,,,,
709990,001,2022-11-21_24h52.59.496,Info_measure_main_exp,2022.2.2,Win32,40.0128041,,,,,,,,,,,,,,,,,,,,,,,,,,,,,,5,0.8473,1,,,,,,,,,,,,0,131,5,5,1974,2238,absent_patch/patch0001974.jpg,absent_patch/patch0002238.jpg,,,,,,,,,,,,,,,,,,,,0.151851866,-0.051851873,1,0,0,response3disk,20,0.005555541,0.002777771,1,0,0,center_square,0,19,19,95,1,,,,,,,,,,,,,,,,,,,,,,,
709990,001,2022-11-21_24h52.59.496,Info_measure_main_exp,2022.2.2,Win32,40.0128041,,,,,,,,,,,,,,,,,,masks/mask_002.jpg,,,,,,,,,,,,,,,,,,,,,,,,,,,,,,,,,,,,,,,,,,,0,0,0,1,1,,,,,,,,,,,,,,,,,,,,,,,,,,,,,,,,,,,,,,,,,,,,,,
709990,001,2022-11-21_24h52.59.496,Info_measure_main_exp,2022.2.2,Win32,40.0128041,,,,,,,,,,,,,,,,,,masks/mask_001.jpg,,,,,,,,,,,,,,,,,,,,,,,,,,,,,,,,,,,,,,,,,,,0,1,1,0,1,,,,,,,,,,,,,,,,,,,,,,,,,,,,,,,,,,,,,,,,,,,,,,
709990,001,2022-11-21_24h52.59.496,Info_measure_main_exp,2022.2.2,Win32,40.0128041,,,,,,,,,,,,,,,,,,masks/mask_004.jpg,,,,,,,,,,,,,,,,,,,,,,,,,,,,,,,,,,,,,,,,,,,0,2,2,3,1,,,,,,,,,,,,,,,,,,,,,,,,,,,,,,,,,,,,,,,,,,,,,,
709990,001,2022-11-21_24h52.59.496,Info_measure_main_exp,2022.2.2,Win32,40.0128041,,,,,,,,,,,,,,,,,,masks/mask_003.jpg,,,,,,,,,,,,,,,,,,,,,,,,,,,,,,,,,,,,,,,,,,,0,3,3,2,1,,,,,,,,,,,,,,,,,,,,,,,,,,,,,,,,,,,,,,,,,,,,,,
709990,001,2022-11-21_24h52.59.496,Info_measure_main_exp,2022.2.2,Win32,40.0128041,,,,,,,,,,,,,,,,,,masks/mask_005.jpg,,,,,,,,,,,,,,,,,,,,,,,,,,,,,,,,,,,,,,,,,,,0,4,4,4,1,,,,,,,,,,,,,,,,,,,,,,,,,,,,,,,,,,,,,,,,,,,,,,
709990,001,2022-11-21_24h52.59.496,Info_measure_main_exp,2022.2.2,Win32,40.0128041,,,,,,,,,,,,,,,,,,masks/mask_002.jpg,,,,,,,,,,,,,,,,,,,,,,,,,,,,,,,,,,,,,,,,,,,,,,,,0,0,0,1,1,,,,,,,,,,,,,,,,,,,,,,,,,,,,,,,,,,,,,,,,,
709990,001,2022-11-21_24h52.59.496,Info_measure_main_exp,2022.2.2,Win32,40.0128041,,,,,,,,,,,,,,,,,,masks/mask_001.jpg,,,,,,,,,,,,,,,,,,,,,,,,,,,,,,,,,,,,,,,,,,,,,,,,0,1,1,0,1,,,,,,,,,,,,,,,,,,,,,,,,,,,,,,,,,,,,,,,,,
709990,001,2022-11-21_24h52.59.496,Info_measure_main_exp,2022.2.2,Win32,40.0128041,,,,,,,,,,,,,,,,,,masks/mask_005.jpg,,,,,,,,,,,,,,,,,,,,,,,,,,,,,,,,,,,,,,,,,,,,,,,,0,2,2,4,1,,,,,,,,,,,,,,,,,,,,,,,,,,,,,,,,,,,,,,,,,
709990,001,2022-11-21_24h52.59.496,Info_measure_main_exp,2022.2.2,Win32,40.0128041,,,,,,,,,,,,,,,,,,masks/mask_003.jpg,,,,,,,,,,,,,,,,,,,,,,,,,,,,,,,,,,,,,,,,,,,,,,,,0,3,3,2,1,,,,,,,,,,,,,,,,,,,,,,,,,,,,,,,,,,,,,,,,,
709990,001,2022-11-21_24h52.59.496,Info_measure_main_exp,2022.2.2,Win32,40.0128041,,,,,,,,,,,,,,,,,,masks/mask_004.jpg,,,,,,,,,,,,,,,,,,,,,,,,,,,,,,,,,,,,,,,,,,,,,,,,0,4,4,3,1,,,,,,,,,,,,,,,,,,,,,,,,,,,,,,,,,,,,,,,,,
709990,001,2022-11-21_24h52.59.496,Info_measure_main_exp,2022.2.2,Win32,40.0128041,,,,,,,,,,,,,,,,,,,,,,,,,,,,,,2,0.9029,1,,,,,,,,,,,,0,131,5,5,2274,2214,absent_patch/patch0002274.jpg,absent_patch/patch0002214.jpg,,,,,,,,,,,,,,,,,,,,-0.123148106,-0.059259273,1,0,0,response5disk,21,-0.001851824,-0.006481489,1,0,0,center_square,0,20,20,11,1,,,,,,,,,,,,,,,,,,,,,,,
709990,001,2022-11-21_24h52.59.496,Info_measure_main_exp,2022.2.2,Win32,40.0128041,,,,,,,,,,,,,,,,,,masks/mask_005.jpg,,,,,,,,,,,,,,,,,,,,,,,,,,,,,,,,,,,,,,,,,,,0,0,0,4,1,,,,,,,,,,,,,,,,,,,,,,,,,,,,,,,,,,,,,,,,,,,,,,
709990,001,2022-11-21_24h52.59.496,Info_measure_main_exp,2022.2.2,Win32,40.0128041,,,,,,,,,,,,,,,,,,masks/mask_002.jpg,,,,,,,,,,,,,,,,,,,,,,,,,,,,,,,,,,,,,,,,,,,0,1,1,1,1,,,,,,,,,,,,,,,,,,,,,,,,,,,,,,,,,,,,,,,,,,,,,,
709990,001,2022-11-21_24h52.59.496,Info_measure_main_exp,2022.2.2,Win32,40.0128041,,,,,,,,,,,,,,,,,,masks/mask_003.jpg,,,,,,,,,,,,,,,,,,,,,,,,,,,,,,,,,,,,,,,,,,,0,2,2,2,1,,,,,,,,,,,,,,,,,,,,,,,,,,,,,,,,,,,,,,,,,,,,,,
709990,001,2022-11-21_24h52.59.496,Info_measure_main_exp,2022.2.2,Win32,40.0128041,,,,,,,,,,,,,,,,,,masks/mask_001.jpg,,,,,,,,,,,,,,,,,,,,,,,,,,,,,,,,,,,,,,,,,,,0,3,3,0,1,,,,,,,,,,,,,,,,,,,,,,,,,,,,,,,,,,,,,,,,,,,,,,
709990,001,2022-11-21_24h52.59.496,Info_measure_main_exp,2022.2.2,Win32,40.0128041,,,,,,,,,,,,,,,,,,masks/mask_004.jpg,,,,,,,,,,,,,,,,,,,,,,,,,,,,,,,,,,,,,,,,,,,0,4,4,3,1,,,,,,,,,,,,,,,,,,,,,,,,,,,,,,,,,,,,,,,,,,,,,,
709990,001,2022-11-21_24h52.59.496,Info_measure_main_exp,2022.2.2,Win32,40.0128041,,,,,,,,,,,,,,,,,,masks/mask_001.jpg,,,,,,,,,,,,,,,,,,,,,,,,,,,,,,,,,,,,,,,,,,,,,,,,0,0,0,0,1,,,,,,,,,,,,,,,,,,,,,,,,,,,,,,,,,,,,,,,,,
709990,001,2022-11-21_24h52.59.496,Info_measure_main_exp,2022.2.2,Win32,40.0128041,,,,,,,,,,,,,,,,,,masks/mask_003.jpg,,,,,,,,,,,,,,,,,,,,,,,,,,,,,,,,,,,,,,,,,,,,,,,,0,1,1,2,1,,,,,,,,,,,,,,,,,,,,,,,,,,,,,,,,,,,,,,,,,
709990,001,2022-11-21_24h52.59.496,Info_measure_main_exp,2022.2.2,Win32,40.0128041,,,,,,,,,,,,,,,,,,masks/mask_005.jpg,,,,,,,,,,,,,,,,,,,,,,,,,,,,,,,,,,,,,,,,,,,,,,,,0,2,2,4,1,,,,,,,,,,,,,,,,,,,,,,,,,,,,,,,,,,,,,,,,,
709990,001,2022-11-21_24h52.59.496,Info_measure_main_exp,2022.2.2,Win32,40.0128041,,,,,,,,,,,,,,,,,,masks/mask_002.jpg,,,,,,,,,,,,,,,,,,,,,,,,,,,,,,,,,,,,,,,,,,,,,,,,0,3,3,1,1,,,,,,,,,,,,,,,,,,,,,,,,,,,,,,,,,,,,,,,,,
709990,001,2022-11-21_24h52.59.496,Info_measure_main_exp,2022.2.2,Win32,40.0128041,,,,,,,,,,,,,,,,,,masks/mask_004.jpg,,,,,,,,,,,,,,,,,,,,,,,,,,,,,,,,,,,,,,,,,,,,,,,,0,4,4,3,1,,,,,,,,,,,,,,,,,,,,,,,,,,,,,,,,,,,,,,,,,
709990,001,2022-11-21_24h52.59.496,Info_measure_main_exp,2022.2.2,Win32,40.0128041,,,,,,,,,,,,,,,,,,,,,,,,,,,,,,6,1.272,1,,,,,,,,,,,,0,131,5,5,2178,2166,absent_patch/patch0002178.jpg,absent_patch/patch0002166.jpg,,,,,,,,,,,,,,,,,,,,0.160185213,0.071296303,1,0,0,response1disk,22,-0.003703718,0.006481489,1,0,0,center_square,0,21,21,72,1,,,,,,,,,,,,,,,,,,,,,,,
709990,001,2022-11-21_24h52.59.496,Info_measure_main_exp,2022.2.2,Win32,40.0128041,,,,,,,,,,,,,,,,,,masks/mask_005.jpg,,,,,,,,,,,,,,,,,,,,,,,,,,,,,,,,,,,,,,,,,,,0,0,0,4,1,,,,,,,,,,,,,,,,,,,,,,,,,,,,,,,,,,,,,,,,,,,,,,
709990,001,2022-11-21_24h52.59.496,Info_measure_main_exp,2022.2.2,Win32,40.0128041,,,,,,,,,,,,,,,,,,masks/mask_002.jpg,,,,,,,,,,,,,,,,,,,,,,,,,,,,,,,,,,,,,,,,,,,0,1,1,1,1,,,,,,,,,,,,,,,,,,,,,,,,,,,,,,,,,,,,,,,,,,,,,,
709990,001,2022-11-21_24h52.59.496,Info_measure_main_exp,2022.2.2,Win32,40.0128041,,,,,,,,,,,,,,,,,,masks/mask_001.jpg,,,,,,,,,,,,,,,,,,,,,,,,,,,,,,,,,,,,,,,,,,,0,2,2,0,1,,,,,,,,,,,,,,,,,,,,,,,,,,,,,,,,,,,,,,,,,,,,,,
709990,001,2022-11-21_24h52.59.496,Info_measure_main_exp,2022.2.2,Win32,40.0128041,,,,,,,,,,,,,,,,,,masks/mask_004.jpg,,,,,,,,,,,,,,,,,,,,,,,,,,,,,,,,,,,,,,,,,,,0,3,3,3,1,,,,,,,,,,,,,,,,,,,,,,,,,,,,,,,,,,,,,,,,,,,,,,
709990,001,2022-11-21_24h52.59.496,Info_measure_main_exp,2022.2.2,Win32,40.0128041,,,,,,,,,,,,,,,,,,masks/mask_003.jpg,,,,,,,,,,,,,,,,,,,,,,,,,,,,,,,,,,,,,,,,,,,0,4,4,2,1,,,,,,,,,,,,,,,,,,,,,,,,,,,,,,,,,,,,,,,,,,,,,,
709990,001,2022-11-21_24h52.59.496,Info_measure_main_exp,2022.2.2,Win32,40.0128041,,,,,,,,,,,,,,,,,,masks/mask_004.jpg,,,,,,,,,,,,,,,,,,,,,,,,,,,,,,,,,,,,,,,,,,,,,,,,0,0,0,3,1,,,,,,,,,,,,,,,,,,,,,,,,,,,,,,,,,,,,,,,,,
709990,001,2022-11-21_24h52.59.496,Info_measure_main_exp,2022.2.2,Win32,40.0128041,,,,,,,,,,,,,,,,,,masks/mask_003.jpg,,,,,,,,,,,,,,,,,,,,,,,,,,,,,,,,,,,,,,,,,,,,,,,,0,1,1,2,1,,,,,,,,,,,,,,,,,,,,,,,,,,,,,,,,,,,,,,,,,
709990,001,2022-11-21_24h52.59.496,Info_measure_main_exp,2022.2.2,Win32,40.0128041,,,,,,,,,,,,,,,,,,masks/mask_002.jpg,,,,,,,,,,,,,,,,,,,,,,,,,,,,,,,,,,,,,,,,,,,,,,,,0,2,2,1,1,,,,,,,,,,,,,,,,,,,,,,,,,,,,,,,,,,,,,,,,,
709990,001,2022-11-21_24h52.59.496,Info_measure_main_exp,2022.2.2,Win32,40.0128041,,,,,,,,,,,,,,,,,,masks/mask_005.jpg,,,,,,,,,,,,,,,,,,,,,,,,,,,,,,,,,,,,,,,,,,,,,,,,0,3,3,4,1,,,,,,,,,,,,,,,,,,,,,,,,,,,,,,,,,,,,,,,,,
709990,001,2022-11-21_24h52.59.496,Info_measure_main_exp,2022.2.2,Win32,40.0128041,,,,,,,,,,,,,,,,,,masks/mask_001.jpg,,,,,,,,,,,,,,,,,,,,,,,,,,,,,,,,,,,,,,,,,,,,,,,,0,4,4,0,1,,,,,,,,,,,,,,,,,,,,,,,,,,,,,,,,,,,,,,,,,
709990,001,2022-11-21_24h52.59.496,Info_measure_main_exp,2022.2.2,Win32,40.0128041,,,,,,,,,,,,,,,,,,,,,,,,,,,,,,0,0.7933,1,,,,,,,,,,,,0,131,5,5,2142,2142,absent_patch/patch0002142.jpg,absent_patch/patch0002142.jpg,,,,,,,,,,,,,,,,,,,,-0.057407379,0.164814808,1,0,0,response7disk,23,0.00462963,-0.002777771,1,0,0,center_square,0,22,22,13,1,,,,,,,,,,,,,,,,,,,,,,,
709990,001,2022-11-21_24h52.59.496,Info_measure_main_exp,2022.2.2,Win32,40.0128041,,,,,,,,,,,,,,,,,,masks/mask_001.jpg,,,,,,,,,,,,,,,,,,,,,,,,,,,,,,,,,,,,,,,,,,,0,0,0,0,1,,,,,,,,,,,,,,,,,,,,,,,,,,,,,,,,,,,,,,,,,,,,,,
709990,001,2022-11-21_24h52.59.496,Info_measure_main_exp,2022.2.2,Win32,40.0128041,,,,,,,,,,,,,,,,,,masks/mask_002.jpg,,,,,,,,,,,,,,,,,,,,,,,,,,,,,,,,,,,,,,,,,,,0,1,1,1,1,,,,,,,,,,,,,,,,,,,,,,,,,,,,,,,,,,,,,,,,,,,,,,
709990,001,2022-11-21_24h52.59.496,Info_measure_main_exp,2022.2.2,Win32,40.0128041,,,,,,,,,,,,,,,,,,masks/mask_003.jpg,,,,,,,,,,,,,,,,,,,,,,,,,,,,,,,,,,,,,,,,,,,0,2,2,2,1,,,,,,,,,,,,,,,,,,,,,,,,,,,,,,,,,,,,,,,,,,,,,,
709990,001,2022-11-21_24h52.59.496,Info_measure_main_exp,2022.2.2,Win32,40.0128041,,,,,,,,,,,,,,,,,,masks/mask_005.jpg,,,,,,,,,,,,,,,,,,,,,,,,,,,,,,,,,,,,,,,,,,,0,3,3,4,1,,,,,,,,,,,,,,,,,,,,,,,,,,,,,,,,,,,,,,,,,,,,,,
709990,001,2022-11-21_24h52.59.496,Info_measure_main_exp,2022.2.2,Win32,40.0128041,,,,,,,,,,,,,,,,,,masks/mask_004.jpg,,,,,,,,,,,,,,,,,,,,,,,,,,,,,,,,,,,,,,,,,,,0,4,4,3,1,,,,,,,,,,,,,,,,,,,,,,,,,,,,,,,,,,,,,,,,,,,,,,
709990,001,2022-11-21_24h52.59.496,Info_measure_main_exp,2022.2.2,Win32,40.0128041,,,,,,,,,,,,,,,,,,masks/mask_005.jpg,,,,,,,,,,,,,,,,,,,,,,,,,,,,,,,,,,,,,,,,,,,,,,,,0,0,0,4,1,,,,,,,,,,,,,,,,,,,,,,,,,,,,,,,,,,,,,,,,,
709990,001,2022-11-21_24h52.59.496,Info_measure_main_exp,2022.2.2,Win32,40.0128041,,,,,,,,,,,,,,,,,,masks/mask_002.jpg,,,,,,,,,,,,,,,,,,,,,,,,,,,,,,,,,,,,,,,,,,,,,,,,0,1,1,1,1,,,,,,,,,,,,,,,,,,,,,,,,,,,,,,,,,,,,,,,,,
709990,001,2022-11-21_24h52.59.496,Info_measure_main_exp,2022.2.2,Win32,40.0128041,,,,,,,,,,,,,,,,,,masks/mask_004.jpg,,,,,,,,,,,,,,,,,,,,,,,,,,,,,,,,,,,,,,,,,,,,,,,,0,2,2,3,1,,,,,,,,,,,,,,,,,,,,,,,,,,,,,,,,,,,,,,,,,
709990,001,2022-11-21_24h52.59.496,Info_measure_main_exp,2022.2.2,Win32,40.0128041,,,,,,,,,,,,,,,,,,masks/mask_001.jpg,,,,,,,,,,,,,,,,,,,,,,,,,,,,,,,,,,,,,,,,,,,,,,,,0,3,3,0,1,,,,,,,,,,,,,,,,,,,,,,,,,,,,,,,,,,,,,,,,,
709990,001,2022-11-21_24h52.59.496,Info_measure_main_exp,2022.2.2,Win32,40.0128041,,,,,,,,,,,,,,,,,,masks/mask_003.jpg,,,,,,,,,,,,,,,,,,,,,,,,,,,,,,,,,,,,,,,,,,,,,,,,0,4,4,2,1,,,,,,,,,,,,,,,,,,,,,,,,,,,,,,,,,,,,,,,,,
709990,001,2022-11-21_24h52.59.496,Info_measure_main_exp,2022.2.2,Win32,40.0128041,,,,,,,,,,,,,,,,,,,,,,,,,,,,,,6,0.7039,1,,,,,,,,,,,,0,131,5,5,1974,2214,absent_patch/patch0001974.jpg,absent_patch/patch0002214.jpg,,,,,,,,,,,,,,,,,,,,0.143518519,0.013888889,1,0,0,response1disk,24,0.011111153,-0.003703718,1,0,0,center_square,0,23,23,24,1,,,,,,,,,,,,,,,,,,,,,,,
709990,001,2022-11-21_24h52.59.496,Info_measure_main_exp,2022.2.2,Win32,40.0128041,,,,,,,,,,,,,,,,,,masks/mask_002.jpg,,,,,,,,,,,,,,,,,,,,,,,,,,,,,,,,,,,,,,,,,,,0,0,0,1,1,,,,,,,,,,,,,,,,,,,,,,,,,,,,,,,,,,,,,,,,,,,,,,
709990,001,2022-11-21_24h52.59.496,Info_measure_main_exp,2022.2.2,Win32,40.0128041,,,,,,,,,,,,,,,,,,masks/mask_001.jpg,,,,,,,,,,,,,,,,,,,,,,,,,,,,,,,,,,,,,,,,,,,0,1,1,0,1,,,,,,,,,,,,,,,,,,,,,,,,,,,,,,,,,,,,,,,,,,,,,,
709990,001,2022-11-21_24h52.59.496,Info_measure_main_exp,2022.2.2,Win32,40.0128041,,,,,,,,,,,,,,,,,,masks/mask_003.jpg,,,,,,,,,,,,,,,,,,,,,,,,,,,,,,,,,,,,,,,,,,,0,2,2,2,1,,,,,,,,,,,,,,,,,,,,,,,,,,,,,,,,,,,,,,,,,,,,,,
709990,001,2022-11-21_24h52.59.496,Info_measure_main_exp,2022.2.2,Win32,40.0128041,,,,,,,,,,,,,,,,,,masks/mask_004.jpg,,,,,,,,,,,,,,,,,,,,,,,,,,,,,,,,,,,,,,,,,,,0,3,3,3,1,,,,,,,,,,,,,,,,,,,,,,,,,,,,,,,,,,,,,,,,,,,,,,
709990,001,2022-11-21_24h52.59.496,Info_measure_main_exp,2022.2.2,Win32,40.0128041,,,,,,,,,,,,,,,,,,masks/mask_005.jpg,,,,,,,,,,,,,,,,,,,,,,,,,,,,,,,,,,,,,,,,,,,0,4,4,4,1,,,,,,,,,,,,,,,,,,,,,,,,,,,,,,,,,,,,,,,,,,,,,,
709990,001,2022-11-21_24h52.59.496,Info_measure_main_exp,2022.2.2,Win32,40.0128041,,,,,,,,,,,,,,,,,,masks/mask_004.jpg,,,,,,,,,,,,,,,,,,,,,,,,,,,,,,,,,,,,,,,,,,,,,,,,0,0,0,3,1,,,,,,,,,,,,,,,,,,,,,,,,,,,,,,,,,,,,,,,,,
709990,001,2022-11-21_24h52.59.496,Info_measure_main_exp,2022.2.2,Win32,40.0128041,,,,,,,,,,,,,,,,,,masks/mask_001.jpg,,,,,,,,,,,,,,,,,,,,,,,,,,,,,,,,,,,,,,,,,,,,,,,,0,1,1,0,1,,,,,,,,,,,,,,,,,,,,,,,,,,,,,,,,,,,,,,,,,
709990,001,2022-11-21_24h52.59.496,Info_measure_main_exp,2022.2.2,Win32,40.0128041,,,,,,,,,,,,,,,,,,masks/mask_005.jpg,,,,,,,,,,,,,,,,,,,,,,,,,,,,,,,,,,,,,,,,,,,,,,,,0,2,2,4,1,,,,,,,,,,,,,,,,,,,,,,,,,,,,,,,,,,,,,,,,,
709990,001,2022-11-21_24h52.59.496,Info_measure_main_exp,2022.2.2,Win32,40.0128041,,,,,,,,,,,,,,,,,,masks/mask_003.jpg,,,,,,,,,,,,,,,,,,,,,,,,,,,,,,,,,,,,,,,,,,,,,,,,0,3,3,2,1,,,,,,,,,,,,,,,,,,,,,,,,,,,,,,,,,,,,,,,,,
709990,001,2022-11-21_24h52.59.496,Info_measure_main_exp,2022.2.2,Win32,40.0128041,,,,,,,,,,,,,,,,,,masks/mask_002.jpg,,,,,,,,,,,,,,,,,,,,,,,,,,,,,,,,,,,,,,,,,,,,,,,,0,4,4,1,1,,,,,,,,,,,,,,,,,,,,,,,,,,,,,,,,,,,,,,,,,
709990,001,2022-11-21_24h52.59.496,Info_measure_main_exp,2022.2.2,Win32,40.0128041,,,,,,,,,,,,,,,,,,,,,,,,,,,,,,5,0.9975,1,,,,,,,,,,,,0,131,5,5,2142,2154,absent_patch/patch0002142.jpg,absent_patch/patch0002154.jpg,,,,,,,,,,,,,,,,,,,,0.150000042,-0.030555548,1,0,0,response3disk,25,0.003703718,0.003703683,1,0,0,center_square,0,24,24,9,1,,,,,,,,,,,,,,,,,,,,,,,
709990,001,2022-11-21_24h52.59.496,Info_measure_main_exp,2022.2.2,Win32,40.0128041,,,,,,,,,,,,,,,,,,masks/mask_004.jpg,,,,,,,,,,,,,,,,,,,,,,,,,,,,,,,,,,,,,,,,,,,0,0,0,3,1,,,,,,,,,,,,,,,,,,,,,,,,,,,,,,,,,,,,,,,,,,,,,,
709990,001,2022-11-21_24h52.59.496,Info_measure_main_exp,2022.2.2,Win32,40.0128041,,,,,,,,,,,,,,,,,,masks/mask_005.jpg,,,,,,,,,,,,,,,,,,,,,,,,,,,,,,,,,,,,,,,,,,,0,1,1,4,1,,,,,,,,,,,,,,,,,,,,,,,,,,,,,,,,,,,,,,,,,,,,,,
709990,001,2022-11-21_24h52.59.496,Info_measure_main_exp,2022.2.2,Win32,40.0128041,,,,,,,,,,,,,,,,,,masks/mask_003.jpg,,,,,,,,,,,,,,,,,,,,,,,,,,,,,,,,,,,,,,,,,,,0,2,2,2,1,,,,,,,,,,,,,,,,,,,,,,,,,,,,,,,,,,,,,,,,,,,,,,
709990,001,2022-11-21_24h52.59.496,Info_measure_main_exp,2022.2.2,Win32,40.0128041,,,,,,,,,,,,,,,,,,masks/mask_002.jpg,,,,,,,,,,,,,,,,,,,,,,,,,,,,,,,,,,,,,,,,,,,0,3,3,1,1,,,,,,,,,,,,,,,,,,,,,,,,,,,,,,,,,,,,,,,,,,,,,,
709990,001,2022-11-21_24h52.59.496,Info_measure_main_exp,2022.2.2,Win32,40.0128041,,,,,,,,,,,,,,,,,,masks/mask_001.jpg,,,,,,,,,,,,,,,,,,,,,,,,,,,,,,,,,,,,,,,,,,,0,4,4,0,1,,,,,,,,,,,,,,,,,,,,,,,,,,,,,,,,,,,,,,,,,,,,,,
709990,001,2022-11-21_24h52.59.496,Info_measure_main_exp,2022.2.2,Win32,40.0128041,,,,,,,,,,,,,,,,,,masks/mask_004.jpg,,,,,,,,,,,,,,,,,,,,,,,,,,,,,,,,,,,,,,,,,,,,,,,,0,0,0,3,1,,,,,,,,,,,,,,,,,,,,,,,,,,,,,,,,,,,,,,,,,
709990,001,2022-11-21_24h52.59.496,Info_measure_main_exp,2022.2.2,Win32,40.0128041,,,,,,,,,,,,,,,,,,masks/mask_002.jpg,,,,,,,,,,,,,,,,,,,,,,,,,,,,,,,,,,,,,,,,,,,,,,,,0,1,1,1,1,,,,,,,,,,,,,,,,,,,,,,,,,,,,,,,,,,,,,,,,,
709990,001,2022-11-21_24h52.59.496,Info_measure_main_exp,2022.2.2,Win32,40.0128041,,,,,,,,,,,,,,,,,,masks/mask_001.jpg,,,,,,,,,,,,,,,,,,,,,,,,,,,,,,,,,,,,,,,,,,,,,,,,0,2,2,0,1,,,,,,,,,,,,,,,,,,,,,,,,,,,,,,,,,,,,,,,,,
709990,001,2022-11-21_24h52.59.496,Info_measure_main_exp,2022.2.2,Win32,40.0128041,,,,,,,,,,,,,,,,,,masks/mask_003.jpg,,,,,,,,,,,,,,,,,,,,,,,,,,,,,,,,,,,,,,,,,,,,,,,,0,3,3,2,1,,,,,,,,,,,,,,,,,,,,,,,,,,,,,,,,,,,,,,,,,
709990,001,2022-11-21_24h52.59.496,Info_measure_main_exp,2022.2.2,Win32,40.0128041,,,,,,,,,,,,,,,,,,masks/mask_005.jpg,,,,,,,,,,,,,,,,,,,,,,,,,,,,,,,,,,,,,,,,,,,,,,,,0,4,4,4,1,,,,,,,,,,,,,,,,,,,,,,,,,,,,,,,,,,,,,,,,,
709990,001,2022-11-21_24h52.59.496,Info_measure_main_exp,2022.2.2,Win32,40.0128041,,,,,,,,,,,,,,,,,,,,,,,,,,,,,,6,0.9971,1,,,,,,,,,,,,1,131,5,5,2238,1,absent_patch/patch0002238.jpg,present_patch/cong_131_5_a.jpg,,,,,,,,,,,,,,,,,,,,0.173148191,0.043518526,1,0,0,response1disk,26,-0.006481453,0.006481489,1,0,0,center_square,0,25,25,104,1,,,,,,,,,,,,,,,,,,,,,,,
709990,001,2022-11-21_24h52.59.496,Info_measure_main_exp,2022.2.2,Win32,40.0128041,,,,,,,,,,,,,,,,,,masks/mask_003.jpg,,,,,,,,,,,,,,,,,,,,,,,,,,,,,,,,,,,,,,,,,,,0,0,0,2,1,,,,,,,,,,,,,,,,,,,,,,,,,,,,,,,,,,,,,,,,,,,,,,
709990,001,2022-11-21_24h52.59.496,Info_measure_main_exp,2022.2.2,Win32,40.0128041,,,,,,,,,,,,,,,,,,masks/mask_005.jpg,,,,,,,,,,,,,,,,,,,,,,,,,,,,,,,,,,,,,,,,,,,0,1,1,4,1,,,,,,,,,,,,,,,,,,,,,,,,,,,,,,,,,,,,,,,,,,,,,,
709990,001,2022-11-21_24h52.59.496,Info_measure_main_exp,2022.2.2,Win32,40.0128041,,,,,,,,,,,,,,,,,,masks/mask_004.jpg,,,,,,,,,,,,,,,,,,,,,,,,,,,,,,,,,,,,,,,,,,,0,2,2,3,1,,,,,,,,,,,,,,,,,,,,,,,,,,,,,,,,,,,,,,,,,,,,,,
709990,001,2022-11-21_24h52.59.496,Info_measure_main_exp,2022.2.2,Win32,40.0128041,,,,,,,,,,,,,,,,,,masks/mask_001.jpg,,,,,,,,,,,,,,,,,,,,,,,,,,,,,,,,,,,,,,,,,,,0,3,3,0,1,,,,,,,,,,,,,,,,,,,,,,,,,,,,,,,,,,,,,,,,,,,,,,
709990,001,2022-11-21_24h52.59.496,Info_measure_main_exp,2022.2.2,Win32,40.0128041,,,,,,,,,,,,,,,,,,masks/mask_002.jpg,,,,,,,,,,,,,,,,,,,,,,,,,,,,,,,,,,,,,,,,,,,0,4,4,1,1,,,,,,,,,,,,,,,,,,,,,,,,,,,,,,,,,,,,,,,,,,,,,,
709990,001,2022-11-21_24h52.59.496,Info_measure_main_exp,2022.2.2,Win32,40.0128041,,,,,,,,,,,,,,,,,,masks/mask_002.jpg,,,,,,,,,,,,,,,,,,,,,,,,,,,,,,,,,,,,,,,,,,,,,,,,0,0,0,1,1,,,,,,,,,,,,,,,,,,,,,,,,,,,,,,,,,,,,,,,,,
709990,001,2022-11-21_24h52.59.496,Info_measure_main_exp,2022.2.2,Win32,40.0128041,,,,,,,,,,,,,,,,,,masks/mask_005.jpg,,,,,,,,,,,,,,,,,,,,,,,,,,,,,,,,,,,,,,,,,,,,,,,,0,1,1,4,1,,,,,,,,,,,,,,,,,,,,,,,,,,,,,,,,,,,,,,,,,
709990,001,2022-11-21_24h52.59.496,Info_measure_main_exp,2022.2.2,Win32,40.0128041,,,,,,,,,,,,,,,,,,masks/mask_004.jpg,,,,,,,,,,,,,,,,,,,,,,,,,,,,,,,,,,,,,,,,,,,,,,,,0,2,2,3,1,,,,,,,,,,,,,,,,,,,,,,,,,,,,,,,,,,,,,,,,,
709990,001,2022-11-21_24h52.59.496,Info_measure_main_exp,2022.2.2,Win32,40.0128041,,,,,,,,,,,,,,,,,,masks/mask_001.jpg,,,,,,,,,,,,,,,,,,,,,,,,,,,,,,,,,,,,,,,,,,,,,,,,0,3,3,0,1,,,,,,,,,,,,,,,,,,,,,,,,,,,,,,,,,,,,,,,,,
709990,001,2022-11-21_24h52.59.496,Info_measure_main_exp,2022.2.2,Win32,40.0128041,,,,,,,,,,,,,,,,,,masks/mask_003.jpg,,,,,,,,,,,,,,,,,,,,,,,,,,,,,,,,,,,,,,,,,,,,,,,,0,4,4,2,1,,,,,,,,,,,,,,,,,,,,,,,,,,,,,,,,,,,,,,,,,
709990,001,2022-11-21_24h52.59.496,Info_measure_main_exp,2022.2.2,Win32,40.0128041,,,,,,,,,,,,,,,,,,,,,,,,,,,,,,4,1.2163,1,,,,,,,,,,,,0,131,5,5,2274,2082,absent_patch/patch0002274.jpg,absent_patch/patch0002082.jpg,,,,,,,,,,,,,,,,,,,,0.018518519,-0.106481481,1,0,0,response3disk,27,0,0.002777771,1,0,0,center_square,0,26,26,100,1,,,,,,,,,,,,,,,,,,,,,,,
709990,001,2022-11-21_24h52.59.496,Info_measure_main_exp,2022.2.2,Win32,40.0128041,,,,,,,,,,,,,,,,,,masks/mask_001.jpg,,,,,,,,,,,,,,,,,,,,,,,,,,,,,,,,,,,,,,,,,,,0,0,0,0,1,,,,,,,,,,,,,,,,,,,,,,,,,,,,,,,,,,,,,,,,,,,,,,
709990,001,2022-11-21_24h52.59.496,Info_measure_main_exp,2022.2.2,Win32,40.0128041,,,,,,,,,,,,,,,,,,masks/mask_004.jpg,,,,,,,,,,,,,,,,,,,,,,,,,,,,,,,,,,,,,,,,,,,0,1,1,3,1,,,,,,,,,,,,,,,,,,,,,,,,,,,,,,,,,,,,,,,,,,,,,,
709990,001,2022-11-21_24h52.59.496,Info_measure_main_exp,2022.2.2,Win32,40.0128041,,,,,,,,,,,,,,,,,,masks/mask_002.jpg,,,,,,,,,,,,,,,,,,,,,,,,,,,,,,,,,,,,,,,,,,,0,2,2,1,1,,,,,,,,,,,,,,,,,,,,,,,,,,,,,,,,,,,,,,,,,,,,,,
709990,001,2022-11-21_24h52.59.496,Info_measure_main_exp,2022.2.2,Win32,40.0128041,,,,,,,,,,,,,,,,,,masks/mask_005.jpg,,,,,,,,,,,,,,,,,,,,,,,,,,,,,,,,,,,,,,,,,,,0,3,3,4,1,,,,,,,,,,,,,,,,,,,,,,,,,,,,,,,,,,,,,,,,,,,,,,
709990,001,2022-11-21_24h52.59.496,Info_measure_main_exp,2022.2.2,Win32,40.0128041,,,,,,,,,,,,,,,,,,masks/mask_003.jpg,,,,,,,,,,,,,,,,,,,,,,,,,,,,,,,,,,,,,,,,,,,0,4,4,2,1,,,,,,,,,,,,,,,,,,,,,,,,,,,,,,,,,,,,,,,,,,,,,,
709990,001,2022-11-21_24h52.59.496,Info_measure_main_exp,2022.2.2,Win32,40.0128041,,,,,,,,,,,,,,,,,,masks/mask_002.jpg,,,,,,,,,,,,,,,,,,,,,,,,,,,,,,,,,,,,,,,,,,,,,,,,0,0,0,1,1,,,,,,,,,,,,,,,,,,,,,,,,,,,,,,,,,,,,,,,,,
709990,001,2022-11-21_24h52.59.496,Info_measure_main_exp,2022.2.2,Win32,40.0128041,,,,,,,,,,,,,,,,,,masks/mask_004.jpg,,,,,,,,,,,,,,,,,,,,,,,,,,,,,,,,,,,,,,,,,,,,,,,,0,1,1,3,1,,,,,,,,,,,,,,,,,,,,,,,,,,,,,,,,,,,,,,,,,
709990,001,2022-11-21_24h52.59.496,Info_measure_main_exp,2022.2.2,Win32,40.0128041,,,,,,,,,,,,,,,,,,masks/mask_005.jpg,,,,,,,,,,,,,,,,,,,,,,,,,,,,,,,,,,,,,,,,,,,,,,,,0,2,2,4,1,,,,,,,,,,,,,,,,,,,,,,,,,,,,,,,,,,,,,,,,,
709990,001,2022-11-21_24h52.59.496,Info_measure_main_exp,2022.2.2,Win32,40.0128041,,,,,,,,,,,,,,,,,,masks/mask_001.jpg,,,,,,,,,,,,,,,,,,,,,,,,,,,,,,,,,,,,,,,,,,,,,,,,0,3,3,0,1,,,,,,,,,,,,,,,,,,,,,,,,,,,,,,,,,,,,,,,,,
709990,001,2022-11-21_24h52.59.496,Info_measure_main_exp,2022.2.2,Win32,40.0128041,,,,,,,,,,,,,,,,,,masks/mask_003.jpg,,,,,,,,,,,,,,,,,,,,,,,,,,,,,,,,,,,,,,,,,,,,,,,,0,4,4,2,1,,,,,,,,,,,,,,,,,,,,,,,,,,,,,,,,,,,,,,,,,
709990,001,2022-11-21_24h52.59.496,Info_measure_main_exp,2022.2.2,Win32,40.0128041,,,,,,,,,,,,,,,,,,,,,,,,,,,,,,6,0.7729,1,,,,,,,,,,,,0,131,5,5,2178,1986,absent_patch/patch0002178.jpg,absent_patch/patch0001986.jpg,,,,,,,,,,,,,,,,,,,,0.137037065,0.048148155,1,0,0,response1disk,28,0.00462963,0.006481489,1,0,0,center_square,0,27,27,46,1,,,,,,,,,,,,,,,,,,,,,,,
709990,001,2022-11-21_24h52.59.496,Info_measure_main_exp,2022.2.2,Win32,40.0128041,,,,,,,,,,,,,,,,,,masks/mask_005.jpg,,,,,,,,,,,,,,,,,,,,,,,,,,,,,,,,,,,,,,,,,,,0,0,0,4,1,,,,,,,,,,,,,,,,,,,,,,,,,,,,,,,,,,,,,,,,,,,,,,
709990,001,2022-11-21_24h52.59.496,Info_measure_main_exp,2022.2.2,Win32,40.0128041,,,,,,,,,,,,,,,,,,masks/mask_003.jpg,,,,,,,,,,,,,,,,,,,,,,,,,,,,,,,,,,,,,,,,,,,0,1,1,2,1,,,,,,,,,,,,,,,,,,,,,,,,,,,,,,,,,,,,,,,,,,,,,,
709990,001,2022-11-21_24h52.59.496,Info_measure_main_exp,2022.2.2,Win32,40.0128041,,,,,,,,,,,,,,,,,,masks/mask_002.jpg,,,,,,,,,,,,,,,,,,,,,,,,,,,,,,,,,,,,,,,,,,,0,2,2,1,1,,,,,,,,,,,,,,,,,,,,,,,,,,,,,,,,,,,,,,,,,,,,,,
709990,001,2022-11-21_24h52.59.496,Info_measure_main_exp,2022.2.2,Win32,40.0128041,,,,,,,,,,,,,,,,,,masks/mask_004.jpg,,,,,,,,,,,,,,,,,,,,,,,,,,,,,,,,,,,,,,,,,,,0,3,3,3,1,,,,,,,,,,,,,,,,,,,,,,,,,,,,,,,,,,,,,,,,,,,,,,
709990,001,2022-11-21_24h52.59.496,Info_measure_main_exp,2022.2.2,Win32,40.0128041,,,,,,,,,,,,,,,,,,masks/mask_001.jpg,,,,,,,,,,,,,,,,,,,,,,,,,,,,,,,,,,,,,,,,,,,0,4,4,0,1,,,,,,,,,,,,,,,,,,,,,,,,,,,,,,,,,,,,,,,,,,,,,,
709990,001,2022-11-21_24h52.59.496,Info_measure_main_exp,2022.2.2,Win32,40.0128041,,,,,,,,,,,,,,,,,,masks/mask_001.jpg,,,,,,,,,,,,,,,,,,,,,,,,,,,,,,,,,,,,,,,,,,,,,,,,0,0,0,0,1,,,,,,,,,,,,,,,,,,,,,,,,,,,,,,,,,,,,,,,,,
709990,001,2022-11-21_24h52.59.496,Info_measure_main_exp,2022.2.2,Win32,40.0128041,,,,,,,,,,,,,,,,,,masks/mask_002.jpg,,,,,,,,,,,,,,,,,,,,,,,,,,,,,,,,,,,,,,,,,,,,,,,,0,1,1,1,1,,,,,,,,,,,,,,,,,,,,,,,,,,,,,,,,,,,,,,,,,
709990,001,2022-11-21_24h52.59.496,Info_measure_main_exp,2022.2.2,Win32,40.0128041,,,,,,,,,,,,,,,,,,masks/mask_003.jpg,,,,,,,,,,,,,,,,,,,,,,,,,,,,,,,,,,,,,,,,,,,,,,,,0,2,2,2,1,,,,,,,,,,,,,,,,,,,,,,,,,,,,,,,,,,,,,,,,,
709990,001,2022-11-21_24h52.59.496,Info_measure_main_exp,2022.2.2,Win32,40.0128041,,,,,,,,,,,,,,,,,,masks/mask_004.jpg,,,,,,,,,,,,,,,,,,,,,,,,,,,,,,,,,,,,,,,,,,,,,,,,0,3,3,3,1,,,,,,,,,,,,,,,,,,,,,,,,,,,,,,,,,,,,,,,,,
709990,001,2022-11-21_24h52.59.496,Info_measure_main_exp,2022.2.2,Win32,40.0128041,,,,,,,,,,,,,,,,,,masks/mask_005.jpg,,,,,,,,,,,,,,,,,,,,,,,,,,,,,,,,,,,,,,,,,,,,,,,,0,4,4,4,1,,,,,,,,,,,,,,,,,,,,,,,,,,,,,,,,,,,,,,,,,
709990,001,2022-11-21_24h52.59.496,Info_measure_main_exp,2022.2.2,Win32,40.0128041,,,,,,,,,,,,,,,,,,,,,,,,,,,,,,4,0.9968,1,,,,,,,,,,,,0,131,5,5,2274,2154,absent_patch/patch0002274.jpg,absent_patch/patch0002154.jpg,,,,,,,,,,,,,,,,,,,,0.074999986,-0.162037037,1,0,0,response3disk,29,0.000925912,0.01203703,1,0,0,center_square,0,28,28,23,1,,,,,,,,,,,,,,,,,,,,,,,
709990,001,2022-11-21_24h52.59.496,Info_measure_main_exp,2022.2.2,Win32,40.0128041,,,,,,,,,,,,,,,,,,masks/mask_002.jpg,,,,,,,,,,,,,,,,,,,,,,,,,,,,,,,,,,,,,,,,,,,0,0,0,1,1,,,,,,,,,,,,,,,,,,,,,,,,,,,,,,,,,,,,,,,,,,,,,,
709990,001,2022-11-21_24h52.59.496,Info_measure_main_exp,2022.2.2,Win32,40.0128041,,,,,,,,,,,,,,,,,,masks/mask_005.jpg,,,,,,,,,,,,,,,,,,,,,,,,,,,,,,,,,,,,,,,,,,,0,1,1,4,1,,,,,,,,,,,,,,,,,,,,,,,,,,,,,,,,,,,,,,,,,,,,,,
709990,001,2022-11-21_24h52.59.496,Info_measure_main_exp,2022.2.2,Win32,40.0128041,,,,,,,,,,,,,,,,,,masks/mask_003.jpg,,,,,,,,,,,,,,,,,,,,,,,,,,,,,,,,,,,,,,,,,,,0,2,2,2,1,,,,,,,,,,,,,,,,,,,,,,,,,,,,,,,,,,,,,,,,,,,,,,
709990,001,2022-11-21_24h52.59.496,Info_measure_main_exp,2022.2.2,Win32,40.0128041,,,,,,,,,,,,,,,,,,masks/mask_004.jpg,,,,,,,,,,,,,,,,,,,,,,,,,,,,,,,,,,,,,,,,,,,0,3,3,3,1,,,,,,,,,,,,,,,,,,,,,,,,,,,,,,,,,,,,,,,,,,,,,,
709990,001,2022-11-21_24h52.59.496,Info_measure_main_exp,2022.2.2,Win32,40.0128041,,,,,,,,,,,,,,,,,,masks/mask_001.jpg,,,,,,,,,,,,,,,,,,,,,,,,,,,,,,,,,,,,,,,,,,,0,4,4,0,1,,,,,,,,,,,,,,,,,,,,,,,,,,,,,,,,,,,,,,,,,,,,,,
709990,001,2022-11-21_24h52.59.496,Info_measure_main_exp,2022.2.2,Win32,40.0128041,,,,,,,,,,,,,,,,,,masks/mask_003.jpg,,,,,,,,,,,,,,,,,,,,,,,,,,,,,,,,,,,,,,,,,,,,,,,,0,0,0,2,1,,,,,,,,,,,,,,,,,,,,,,,,,,,,,,,,,,,,,,,,,
709990,001,2022-11-21_24h52.59.496,Info_measure_main_exp,2022.2.2,Win32,40.0128041,,,,,,,,,,,,,,,,,,masks/mask_005.jpg,,,,,,,,,,,,,,,,,,,,,,,,,,,,,,,,,,,,,,,,,,,,,,,,0,1,1,4,1,,,,,,,,,,,,,,,,,,,,,,,,,,,,,,,,,,,,,,,,,
709990,001,2022-11-21_24h52.59.496,Info_measure_main_exp,2022.2.2,Win32,40.0128041,,,,,,,,,,,,,,,,,,masks/mask_002.jpg,,,,,,,,,,,,,,,,,,,,,,,,,,,,,,,,,,,,,,,,,,,,,,,,0,2,2,1,1,,,,,,,,,,,,,,,,,,,,,,,,,,,,,,,,,,,,,,,,,
709990,001,2022-11-21_24h52.59.496,Info_measure_main_exp,2022.2.2,Win32,40.0128041,,,,,,,,,,,,,,,,,,masks/mask_001.jpg,,,,,,,,,,,,,,,,,,,,,,,,,,,,,,,,,,,,,,,,,,,,,,,,0,3,3,0,1,,,,,,,,,,,,,,,,,,,,,,,,,,,,,,,,,,,,,,,,,
709990,001,2022-11-21_24h52.59.496,Info_measure_main_exp,2022.2.2,Win32,40.0128041,,,,,,,,,,,,,,,,,,masks/mask_004.jpg,,,,,,,,,,,,,,,,,,,,,,,,,,,,,,,,,,,,,,,,,,,,,,,,0,4,4,3,1,,,,,,,,,,,,,,,,,,,,,,,,,,,,,,,,,,,,,,,,,
709990,001,2022-11-21_24h52.59.496,Info_measure_main_exp,2022.2.2,Win32,40.0128041,,,,,,,,,,,,,,,,,,,,,,,,,,,,,,4,1.5462,1,,,,,,,,,,,,0,131,5,5,2298,2214,absent_patch/patch0002298.jpg,absent_patch/patch0002214.jpg,,,,,,,,,,,,,,,,,,,,0.02407406,-0.109259288,1,0,0,response3disk,30,0.006481524,0.000925912,1,0,0,center_square,0,29,29,99,1,,,,,,,,,,,,,,,,,,,,,,,
709990,001,2022-11-21_24h52.59.496,Info_measure_main_exp,2022.2.2,Win32,40.0128041,,,,,,,,,,,,,,,,,,masks/mask_004.jpg,,,,,,,,,,,,,,,,,,,,,,,,,,,,,,,,,,,,,,,,,,,0,0,0,3,1,,,,,,,,,,,,,,,,,,,,,,,,,,,,,,,,,,,,,,,,,,,,,,
709990,001,2022-11-21_24h52.59.496,Info_measure_main_exp,2022.2.2,Win32,40.0128041,,,,,,,,,,,,,,,,,,masks/mask_005.jpg,,,,,,,,,,,,,,,,,,,,,,,,,,,,,,,,,,,,,,,,,,,0,1,1,4,1,,,,,,,,,,,,,,,,,,,,,,,,,,,,,,,,,,,,,,,,,,,,,,
709990,001,2022-11-21_24h52.59.496,Info_measure_main_exp,2022.2.2,Win32,40.0128041,,,,,,,,,,,,,,,,,,masks/mask_003.jpg,,,,,,,,,,,,,,,,,,,,,,,,,,,,,,,,,,,,,,,,,,,0,2,2,2,1,,,,,,,,,,,,,,,,,,,,,,,,,,,,,,,,,,,,,,,,,,,,,,
709990,001,2022-11-21_24h52.59.496,Info_measure_main_exp,2022.2.2,Win32,40.0128041,,,,,,,,,,,,,,,,,,masks/mask_002.jpg,,,,,,,,,,,,,,,,,,,,,,,,,,,,,,,,,,,,,,,,,,,0,3,3,1,1,,,,,,,,,,,,,,,,,,,,,,,,,,,,,,,,,,,,,,,,,,,,,,
709990,001,2022-11-21_24h52.59.496,Info_measure_main_exp,2022.2.2,Win32,40.0128041,,,,,,,,,,,,,,,,,,masks/mask_001.jpg,,,,,,,,,,,,,,,,,,,,,,,,,,,,,,,,,,,,,,,,,,,0,4,4,0,1,,,,,,,,,,,,,,,,,,,,,,,,,,,,,,,,,,,,,,,,,,,,,,
709990,001,2022-11-21_24h52.59.496,Info_measure_main_exp,2022.2.2,Win32,40.0128041,,,,,,,,,,,,,,,,,,masks/mask_003.jpg,,,,,,,,,,,,,,,,,,,,,,,,,,,,,,,,,,,,,,,,,,,,,,,,0,0,0,2,1,,,,,,,,,,,,,,,,,,,,,,,,,,,,,,,,,,,,,,,,,
709990,001,2022-11-21_24h52.59.496,Info_measure_main_exp,2022.2.2,Win32,40.0128041,,,,,,,,,,,,,,,,,,masks/mask_004.jpg,,,,,,,,,,,,,,,,,,,,,,,,,,,,,,,,,,,,,,,,,,,,,,,,0,1,1,3,1,,,,,,,,,,,,,,,,,,,,,,,,,,,,,,,,,,,,,,,,,
709990,001,2022-11-21_24h52.59.496,Info_measure_main_exp,2022.2.2,Win32,40.0128041,,,,,,,,,,,,,,,,,,masks/mask_001.jpg,,,,,,,,,,,,,,,,,,,,,,,,,,,,,,,,,,,,,,,,,,,,,,,,0,2,2,0,1,,,,,,,,,,,,,,,,,,,,,,,,,,,,,,,,,,,,,,,,,
709990,001,2022-11-21_24h52.59.496,Info_measure_main_exp,2022.2.2,Win32,40.0128041,,,,,,,,,,,,,,,,,,masks/mask_005.jpg,,,,,,,,,,,,,,,,,,,,,,,,,,,,,,,,,,,,,,,,,,,,,,,,0,3,3,4,1,,,,,,,,,,,,,,,,,,,,,,,,,,,,,,,,,,,,,,,,,
709990,001,2022-11-21_24h52.59.496,Info_measure_main_exp,2022.2.2,Win32,40.0128041,,,,,,,,,,,,,,,,,,masks/mask_002.jpg,,,,,,,,,,,,,,,,,,,,,,,,,,,,,,,,,,,,,,,,,,,,,,,,0,4,4,1,1,,,,,,,,,,,,,,,,,,,,,,,,,,,,,,,,,,,,,,,,,
709990,001,2022-11-21_24h52.59.496,Info_measure_main_exp,2022.2.2,Win32,40.0128041,,,,,,,,,,,,,,,,,,,,,,,,,,,,,,6,1.192,1,,,,,,,,,,,,0,131,5,5,1974,2166,absent_patch/patch0001974.jpg,absent_patch/patch0002166.jpg,,,,,,,,,,,,,,,,,,,,0.14444443,0.035185178,1,0,0,response1disk,31,0.000925912,-0.001851859,1,0,0,center_square,0,30,30,77,1,,,,,,,,,,,,,,,,,,,,,,,
709990,001,2022-11-21_24h52.59.496,Info_measure_main_exp,2022.2.2,Win32,40.0128041,,,,,,,,,,,,,,,,,,masks/mask_003.jpg,,,,,,,,,,,,,,,,,,,,,,,,,,,,,,,,,,,,,,,,,,,0,0,0,2,1,,,,,,,,,,,,,,,,,,,,,,,,,,,,,,,,,,,,,,,,,,,,,,
709990,001,2022-11-21_24h52.59.496,Info_measure_main_exp,2022.2.2,Win32,40.0128041,,,,,,,,,,,,,,,,,,masks/mask_004.jpg,,,,,,,,,,,,,,,,,,,,,,,,,,,,,,,,,,,,,,,,,,,0,1,1,3,1,,,,,,,,,,,,,,,,,,,,,,,,,,,,,,,,,,,,,,,,,,,,,,
709990,001,2022-11-21_24h52.59.496,Info_measure_main_exp,2022.2.2,Win32,40.0128041,,,,,,,,,,,,,,,,,,masks/mask_001.jpg,,,,,,,,,,,,,,,,,,,,,,,,,,,,,,,,,,,,,,,,,,,0,2,2,0,1,,,,,,,,,,,,,,,,,,,,,,,,,,,,,,,,,,,,,,,,,,,,,,
709990,001,2022-11-21_24h52.59.496,Info_measure_main_exp,2022.2.2,Win32,40.0128041,,,,,,,,,,,,,,,,,,masks/mask_005.jpg,,,,,,,,,,,,,,,,,,,,,,,,,,,,,,,,,,,,,,,,,,,0,3,3,4,1,,,,,,,,,,,,,,,,,,,,,,,,,,,,,,,,,,,,,,,,,,,,,,
709990,001,2022-11-21_24h52.59.496,Info_measure_main_exp,2022.2.2,Win32,40.0128041,,,,,,,,,,,,,,,,,,masks/mask_002.jpg,,,,,,,,,,,,,,,,,,,,,,,,,,,,,,,,,,,,,,,,,,,0,4,4,1,1,,,,,,,,,,,,,,,,,,,,,,,,,,,,,,,,,,,,,,,,,,,,,,
709990,001,2022-11-21_24h52.59.496,Info_measure_main_exp,2022.2.2,Win32,40.0128041,,,,,,,,,,,,,,,,,,masks/mask_005.jpg,,,,,,,,,,,,,,,,,,,,,,,,,,,,,,,,,,,,,,,,,,,,,,,,0,0,0,4,1,,,,,,,,,,,,,,,,,,,,,,,,,,,,,,,,,,,,,,,,,
709990,001,2022-11-21_24h52.59.496,Info_measure_main_exp,2022.2.2,Win32,40.0128041,,,,,,,,,,,,,,,,,,masks/mask_003.jpg,,,,,,,,,,,,,,,,,,,,,,,,,,,,,,,,,,,,,,,,,,,,,,,,0,1,1,2,1,,,,,,,,,,,,,,,,,,,,,,,,,,,,,,,,,,,,,,,,,
709990,001,2022-11-21_24h52.59.496,Info_measure_main_exp,2022.2.2,Win32,40.0128041,,,,,,,,,,,,,,,,,,masks/mask_004.jpg,,,,,,,,,,,,,,,,,,,,,,,,,,,,,,,,,,,,,,,,,,,,,,,,0,2,2,3,1,,,,,,,,,,,,,,,,,,,,,,,,,,,,,,,,,,,,,,,,,
709990,001,2022-11-21_24h52.59.496,Info_measure_main_exp,2022.2.2,Win32,40.0128041,,,,,,,,,,,,,,,,,,masks/mask_001.jpg,,,,,,,,,,,,,,,,,,,,,,,,,,,,,,,,,,,,,,,,,,,,,,,,0,3,3,0,1,,,,,,,,,,,,,,,,,,,,,,,,,,,,,,,,,,,,,,,,,
709990,001,2022-11-21_24h52.59.496,Info_measure_main_exp,2022.2.2,Win32,40.0128041,,,,,,,,,,,,,,,,,,masks/mask_002.jpg,,,,,,,,,,,,,,,,,,,,,,,,,,,,,,,,,,,,,,,,,,,,,,,,0,4,4,1,1,,,,,,,,,,,,,,,,,,,,,,,,,,,,,,,,,,,,,,,,,
709990,001,2022-11-21_24h52.59.496,Info_measure_main_exp,2022.2.2,Win32,40.0128041,,,,,,,,,,,,,,,,,,,,,,,,,,,,,,3,1.2664,1,,,,,,,,,,,,0,131,5,5,1986,2238,absent_patch/patch0001986.jpg,absent_patch/patch0002238.jpg,,,,,,,,,,,,,,,,,,,,-0.059259273,-0.131481524,1,0,0,response5disk,32,0.011111153,0.001851859,1,0,0,center_square,0,31,31,31,1,,,,,,,,,,,,,,,,,,,,,,,
709990,001,2022-11-21_24h52.59.496,Info_measure_main_exp,2022.2.2,Win32,40.0128041,,,,,,,,,,,,,,,,,,masks/mask_003.jpg,,,,,,,,,,,,,,,,,,,,,,,,,,,,,,,,,,,,,,,,,,,0,0,0,2,1,,,,,,,,,,,,,,,,,,,,,,,,,,,,,,,,,,,,,,,,,,,,,,
709990,001,2022-11-21_24h52.59.496,Info_measure_main_exp,2022.2.2,Win32,40.0128041,,,,,,,,,,,,,,,,,,masks/mask_001.jpg,,,,,,,,,,,,,,,,,,,,,,,,,,,,,,,,,,,,,,,,,,,0,1,1,0,1,,,,,,,,,,,,,,,,,,,,,,,,,,,,,,,,,,,,,,,,,,,,,,
709990,001,2022-11-21_24h52.59.496,Info_measure_main_exp,2022.2.2,Win32,40.0128041,,,,,,,,,,,,,,,,,,masks/mask_004.jpg,,,,,,,,,,,,,,,,,,,,,,,,,,,,,,,,,,,,,,,,,,,0,2,2,3,1,,,,,,,,,,,,,,,,,,,,,,,,,,,,,,,,,,,,,,,,,,,,,,
709990,001,2022-11-21_24h52.59.496,Info_measure_main_exp,2022.2.2,Win32,40.0128041,,,,,,,,,,,,,,,,,,masks/mask_002.jpg,,,,,,,,,,,,,,,,,,,,,,,,,,,,,,,,,,,,,,,,,,,0,3,3,1,1,,,,,,,,,,,,,,,,,,,,,,,,,,,,,,,,,,,,,,,,,,,,,,
709990,001,2022-11-21_24h52.59.496,Info_measure_main_exp,2022.2.2,Win32,40.0128041,,,,,,,,,,,,,,,,,,masks/mask_005.jpg,,,,,,,,,,,,,,,,,,,,,,,,,,,,,,,,,,,,,,,,,,,0,4,4,4,1,,,,,,,,,,,,,,,,,,,,,,,,,,,,,,,,,,,,,,,,,,,,,,
709990,001,2022-11-21_24h52.59.496,Info_measure_main_exp,2022.2.2,Win32,40.0128041,,,,,,,,,,,,,,,,,,masks/mask_004.jpg,,,,,,,,,,,,,,,,,,,,,,,,,,,,,,,,,,,,,,,,,,,,,,,,0,0,0,3,1,,,,,,,,,,,,,,,,,,,,,,,,,,,,,,,,,,,,,,,,,
709990,001,2022-11-21_24h52.59.496,Info_measure_main_exp,2022.2.2,Win32,40.0128041,,,,,,,,,,,,,,,,,,masks/mask_001.jpg,,,,,,,,,,,,,,,,,,,,,,,,,,,,,,,,,,,,,,,,,,,,,,,,0,1,1,0,1,,,,,,,,,,,,,,,,,,,,,,,,,,,,,,,,,,,,,,,,,
709990,001,2022-11-21_24h52.59.496,Info_measure_main_exp,2022.2.2,Win32,40.0128041,,,,,,,,,,,,,,,,,,masks/mask_003.jpg,,,,,,,,,,,,,,,,,,,,,,,,,,,,,,,,,,,,,,,,,,,,,,,,0,2,2,2,1,,,,,,,,,,,,,,,,,,,,,,,,,,,,,,,,,,,,,,,,,
709990,001,2022-11-21_24h52.59.496,Info_measure_main_exp,2022.2.2,Win32,40.0128041,,,,,,,,,,,,,,,,,,masks/mask_005.jpg,,,,,,,,,,,,,,,,,,,,,,,,,,,,,,,,,,,,,,,,,,,,,,,,0,3,3,4,1,,,,,,,,,,,,,,,,,,,,,,,,,,,,,,,,,,,,,,,,,
709990,001,2022-11-21_24h52.59.496,Info_measure_main_exp,2022.2.2,Win32,40.0128041,,,,,,,,,,,,,,,,,,masks/mask_002.jpg,,,,,,,,,,,,,,,,,,,,,,,,,,,,,,,,,,,,,,,,,,,,,,,,0,4,4,1,1,,,,,,,,,,,,,,,,,,,,,,,,,,,,,,,,,,,,,,,,,
709990,001,2022-11-21_24h52.59.496,Info_measure_main_exp,2022.2.2,Win32,40.0128041,,,,,,,,,,,,,,,,,,,,,,,,,,,,,,4,0.9968,1,,,,,,,,,,,,0,131,5,5,2250,2142,absent_patch/patch0002250.jpg,absent_patch/patch0002142.jpg,,,,,,,,,,,,,,,,,,,,0.043518561,-0.132407436,1,0,0,response3disk,33,-0.005555541,0.00462963,1,0,0,center_square,0,32,32,71,1,,,,,,,,,,,,,,,,,,,,,,,
709990,001,2022-11-21_24h52.59.496,Info_measure_main_exp,2022.2.2,Win32,40.0128041,,,,,,,,,,,,,,,,,,masks/mask_002.jpg,,,,,,,,,,,,,,,,,,,,,,,,,,,,,,,,,,,,,,,,,,,0,0,0,1,1,,,,,,,,,,,,,,,,,,,,,,,,,,,,,,,,,,,,,,,,,,,,,,
709990,001,2022-11-21_24h52.59.496,Info_measure_main_exp,2022.2.2,Win32,40.0128041,,,,,,,,,,,,,,,,,,masks/mask_004.jpg,,,,,,,,,,,,,,,,,,,,,,,,,,,,,,,,,,,,,,,,,,,0,1,1,3,1,,,,,,,,,,,,,,,,,,,,,,,,,,,,,,,,,,,,,,,,,,,,,,
709990,001,2022-11-21_24h52.59.496,Info_measure_main_exp,2022.2.2,Win32,40.0128041,,,,,,,,,,,,,,,,,,masks/mask_005.jpg,,,,,,,,,,,,,,,,,,,,,,,,,,,,,,,,,,,,,,,,,,,0,2,2,4,1,,,,,,,,,,,,,,,,,,,,,,,,,,,,,,,,,,,,,,,,,,,,,,
709990,001,2022-11-21_24h52.59.496,Info_measure_main_exp,2022.2.2,Win32,40.0128041,,,,,,,,,,,,,,,,,,masks/mask_001.jpg,,,,,,,,,,,,,,,,,,,,,,,,,,,,,,,,,,,,,,,,,,,0,3,3,0,1,,,,,,,,,,,,,,,,,,,,,,,,,,,,,,,,,,,,,,,,,,,,,,
709990,001,2022-11-21_24h52.59.496,Info_measure_main_exp,2022.2.2,Win32,40.0128041,,,,,,,,,,,,,,,,,,masks/mask_003.jpg,,,,,,,,,,,,,,,,,,,,,,,,,,,,,,,,,,,,,,,,,,,0,4,4,2,1,,,,,,,,,,,,,,,,,,,,,,,,,,,,,,,,,,,,,,,,,,,,,,
709990,001,2022-11-21_24h52.59.496,Info_measure_main_exp,2022.2.2,Win32,40.0128041,,,,,,,,,,,,,,,,,,masks/mask_004.jpg,,,,,,,,,,,,,,,,,,,,,,,,,,,,,,,,,,,,,,,,,,,,,,,,0,0,0,3,1,,,,,,,,,,,,,,,,,,,,,,,,,,,,,,,,,,,,,,,,,
709990,001,2022-11-21_24h52.59.496,Info_measure_main_exp,2022.2.2,Win32,40.0128041,,,,,,,,,,,,,,,,,,masks/mask_001.jpg,,,,,,,,,,,,,,,,,,,,,,,,,,,,,,,,,,,,,,,,,,,,,,,,0,1,1,0,1,,,,,,,,,,,,,,,,,,,,,,,,,,,,,,,,,,,,,,,,,
709990,001,2022-11-21_24h52.59.496,Info_measure_main_exp,2022.2.2,Win32,40.0128041,,,,,,,,,,,,,,,,,,masks/mask_002.jpg,,,,,,,,,,,,,,,,,,,,,,,,,,,,,,,,,,,,,,,,,,,,,,,,0,2,2,1,1,,,,,,,,,,,,,,,,,,,,,,,,,,,,,,,,,,,,,,,,,
709990,001,2022-11-21_24h52.59.496,Info_measure_main_exp,2022.2.2,Win32,40.0128041,,,,,,,,,,,,,,,,,,masks/mask_005.jpg,,,,,,,,,,,,,,,,,,,,,,,,,,,,,,,,,,,,,,,,,,,,,,,,0,3,3,4,1,,,,,,,,,,,,,,,,,,,,,,,,,,,,,,,,,,,,,,,,,
709990,001,2022-11-21_24h52.59.496,Info_measure_main_exp,2022.2.2,Win32,40.0128041,,,,,,,,,,,,,,,,,,masks/mask_003.jpg,,,,,,,,,,,,,,,,,,,,,,,,,,,,,,,,,,,,,,,,,,,,,,,,0,4,4,2,1,,,,,,,,,,,,,,,,,,,,,,,,,,,,,,,,,,,,,,,,,
709990,001,2022-11-21_24h52.59.496,Info_measure_main_exp,2022.2.2,Win32,40.0128041,,,,,,,,,,,,,,,,,,,,,,,,,,,,,,5,0.8974,1,,,,,,,,,,,,0,131,5,5,2250,1986,absent_patch/patch0002250.jpg,absent_patch/patch0001986.jpg,,,,,,,,,,,,,,,,,,,,0.15370369,-0.036111125,1,0,0,response3disk,34,0.011111153,0.000925912,1,0,0,center_square,0,33,33,29,1,,,,,,,,,,,,,,,,,,,,,,,
709990,001,2022-11-21_24h52.59.496,Info_measure_main_exp,2022.2.2,Win32,40.0128041,,,,,,,,,,,,,,,,,,masks/mask_001.jpg,,,,,,,,,,,,,,,,,,,,,,,,,,,,,,,,,,,,,,,,,,,0,0,0,0,1,,,,,,,,,,,,,,,,,,,,,,,,,,,,,,,,,,,,,,,,,,,,,,
709990,001,2022-11-21_24h52.59.496,Info_measure_main_exp,2022.2.2,Win32,40.0128041,,,,,,,,,,,,,,,,,,masks/mask_002.jpg,,,,,,,,,,,,,,,,,,,,,,,,,,,,,,,,,,,,,,,,,,,0,1,1,1,1,,,,,,,,,,,,,,,,,,,,,,,,,,,,,,,,,,,,,,,,,,,,,,
709990,001,2022-11-21_24h52.59.496,Info_measure_main_exp,2022.2.2,Win32,40.0128041,,,,,,,,,,,,,,,,,,masks/mask_004.jpg,,,,,,,,,,,,,,,,,,,,,,,,,,,,,,,,,,,,,,,,,,,0,2,2,3,1,,,,,,,,,,,,,,,,,,,,,,,,,,,,,,,,,,,,,,,,,,,,,,
709990,001,2022-11-21_24h52.59.496,Info_measure_main_exp,2022.2.2,Win32,40.0128041,,,,,,,,,,,,,,,,,,masks/mask_005.jpg,,,,,,,,,,,,,,,,,,,,,,,,,,,,,,,,,,,,,,,,,,,0,3,3,4,1,,,,,,,,,,,,,,,,,,,,,,,,,,,,,,,,,,,,,,,,,,,,,,
709990,001,2022-11-21_24h52.59.496,Info_measure_main_exp,2022.2.2,Win32,40.0128041,,,,,,,,,,,,,,,,,,masks/mask_003.jpg,,,,,,,,,,,,,,,,,,,,,,,,,,,,,,,,,,,,,,,,,,,0,4,4,2,1,,,,,,,,,,,,,,,,,,,,,,,,,,,,,,,,,,,,,,,,,,,,,,
709990,001,2022-11-21_24h52.59.496,Info_measure_main_exp,2022.2.2,Win32,40.0128041,,,,,,,,,,,,,,,,,,masks/mask_001.jpg,,,,,,,,,,,,,,,,,,,,,,,,,,,,,,,,,,,,,,,,,,,,,,,,0,0,0,0,1,,,,,,,,,,,,,,,,,,,,,,,,,,,,,,,,,,,,,,,,,
709990,001,2022-11-21_24h52.59.496,Info_measure_main_exp,2022.2.2,Win32,40.0128041,,,,,,,,,,,,,,,,,,masks/mask_002.jpg,,,,,,,,,,,,,,,,,,,,,,,,,,,,,,,,,,,,,,,,,,,,,,,,0,1,1,1,1,,,,,,,,,,,,,,,,,,,,,,,,,,,,,,,,,,,,,,,,,
709990,001,2022-11-21_24h52.59.496,Info_measure_main_exp,2022.2.2,Win32,40.0128041,,,,,,,,,,,,,,,,,,masks/mask_004.jpg,,,,,,,,,,,,,,,,,,,,,,,,,,,,,,,,,,,,,,,,,,,,,,,,0,2,2,3,1,,,,,,,,,,,,,,,,,,,,,,,,,,,,,,,,,,,,,,,,,
709990,001,2022-11-21_24h52.59.496,Info_measure_main_exp,2022.2.2,Win32,40.0128041,,,,,,,,,,,,,,,,,,masks/mask_003.jpg,,,,,,,,,,,,,,,,,,,,,,,,,,,,,,,,,,,,,,,,,,,,,,,,0,3,3,2,1,,,,,,,,,,,,,,,,,,,,,,,,,,,,,,,,,,,,,,,,,
709990,001,2022-11-21_24h52.59.496,Info_measure_main_exp,2022.2.2,Win32,40.0128041,,,,,,,,,,,,,,,,,,masks/mask_005.jpg,,,,,,,,,,,,,,,,,,,,,,,,,,,,,,,,,,,,,,,,,,,,,,,,0,4,4,4,1,,,,,,,,,,,,,,,,,,,,,,,,,,,,,,,,,,,,,,,,,
