participant,session,date,expName,psychopyVersion,OS,frameRate,space_press_continue.keys,space_press_continue.rt,space_press_continue_2.keys,space_press_continue_2.rt,space_press_continue_3.keys,space_press_continue_3.rt,space_press_continue_4.keys,space_press_continue_4.rt,space_press_continue_5.keys,space_press_continue_5.rt,space_press_continue_6.keys,space_press_continue_6.rt,prac_mask_loop_1.thisRepN,prac_mask_loop_1.thisTrialN,prac_mask_loop_1.thisN,prac_mask_loop_1.thisIndex,prac_mask_loop_1.ran,mask_name,prac_mask_loop_2.thisRepN,prac_mask_loop_2.thisTrialN,prac_mask_loop_2.thisN,prac_mask_loop_2.thisIndex,prac_mask_loop_2.ran,mouse_2.x,mouse_2.y,mouse_2.leftButton,mouse_2.midButton,mouse_2.rightButton,mouse_2.clicked_name,similarity,response_time,Pass,mouse_12.x,mouse_12.y,mouse_12.leftButton,mouse_12.midButton,mouse_12.rightButton,mouse_12.clicked_name,prac_loop.thisRepN,prac_loop.thisTrialN,prac_loop.thisN,prac_loop.thisIndex,prac_loop.ran,Pair_type,Image_num,Patch_1_loc,Patch_2_loc,Patch_1_info,Patch_2_info,Patch_1_name,Patch_2_name,mouse_1.x,mouse_1.y,mouse_1.leftButton,mouse_1.midButton,mouse_1.rightButton,mouse_1.time,mouse_1.clicked_name,space_press_continue_7.keys,space_press_continue_7.rt,mask_loop.thisRepN,mask_loop.thisTrialN,mask_loop.thisN,mask_loop.thisIndex,mask_loop.ran,mask_loop_2.thisRepN,mask_loop_2.thisTrialN,mask_loop_2.thisN,mask_loop_2.thisIndex,mask_loop_2.ran,mouse.x,mouse.y,mouse.leftButton,mouse.midButton,mouse.rightButton,mouse.clicked_name,trialNumber,mouse_11.x,mouse_11.y,mouse_11.leftButton,mouse_11.midButton,mouse_11.rightButton,mouse_11.clicked_name,first_pass_loop.thisRepN,first_pass_loop.thisTrialN,first_pass_loop.thisN,first_pass_loop.thisIndex,first_pass_loop.ran,mask_loop_3.thisRepN,mask_loop_3.thisTrialN,mask_loop_3.thisN,mask_loop_3.thisIndex,mask_loop_3.ran,mask_loop_4.thisRepN,mask_loop_4.thisTrialN,mask_loop_4.thisN,mask_loop_4.thisIndex,mask_loop_4.ran,mouse_3.x,mouse_3.y,mouse_3.leftButton,mouse_3.midButton,mouse_3.rightButton,mouse_3.clicked_name,double_pass_loop.thisRepN,double_pass_loop.thisTrialN,double_pass_loop.thisN,double_pass_loop.thisIndex,double_pass_loop.ran,space_exit.keys,space_exit.rt
710832,001,2022-11-20_23h51.59.093,Info_measure_main_exp,2022.2.2,Win32,60.20832079,,,,,,,,,,,,,,,,,,,,,,,,,,,,,,,,,,,,,,,,,,,,,,,,,,,,,,,,,,,,,,,,,,,,,,,,,,,,,,,,,,,,,,,,,,,,,,,,,,,,,,,,,,,,,,,
710832,001,2022-11-20_23h51.59.093,Info_measure_main_exp,2022.2.2,Win32,60.20832079,,,,,,,,,,,,,,,,,,,,,,,,,,,,,,,,,,,,,,,,,,,,,,,,,,,,,,,,,,,,,,,,,,,,,,,,,,,,,,,,,,,,,,,,,,,,,,,,,,,,,,,,,,,,,,,
710832,001,2022-11-20_23h51.59.093,Info_measure_main_exp,2022.2.2,Win32,60.20832079,space,5.3518,,,,,,,,,,,,,,,,,,,,,,,,,,,,,,,,,,,,,,,,,,,,,,,,,,,,,,,,,,,,,,,,,,,,,,,,,,,,,,,,,,,,,,,,,,,,,,,,,,,,,,,,,,,,,
710832,001,2022-11-20_23h51.59.093,Info_measure_main_exp,2022.2.2,Win32,60.20832079,,,space,33.4422,,,,,,,,,,,,,,,,,,,,,,,,,,,,,,,,,,,,,,,,,,,,,,,,,,,,,,,,,,,,,,,,,,,,,,,,,,,,,,,,,,,,,,,,,,,,,,,,,,,,,,,,,,,
710832,001,2022-11-20_23h51.59.093,Info_measure_main_exp,2022.2.2,Win32,60.20832079,,,,,space,13.5768,,,,,,,,,,,,,,,,,,,,,,,,,,,,,,,,,,,,,,,,,,,,,,,,,,,,,,,,,,,,,,,,,,,,,,,,,,,,,,,,,,,,,,,,,,,,,,,,,,,,,,,,,
710832,001,2022-11-20_23h51.59.093,Info_measure_main_exp,2022.2.2,Win32,60.20832079,,,,,,,space,9.03,,,,,,,,,,,,,,,,,,,,,,,,,,,,,,,,,,,,,,,,,,,,,,,,,,,,,,,,,,,,,,,,,,,,,,,,,,,,,,,,,,,,,,,,,,,,,,,,,,,,,,,
710832,001,2022-11-20_23h51.59.093,Info_measure_main_exp,2022.2.2,Win32,60.20832079,,,,,,,,,space,4.4468,,,,,,,,,,,,,,,,,,,,,,,,,,,,,,,,,,,,,,,,,,,,,,,,,,,,,,,,,,,,,,,,,,,,,,,,,,,,,,,,,,,,,,,,,,,,,,,,,,,,,
710832,001,2022-11-20_23h51.59.093,Info_measure_main_exp,2022.2.2,Win32,60.20832079,,,,,,,,,,,space,4.6389,,,,,,,,,,,,,,,,,,,,,,,,,,,,,,,,,,,,,,,,,,,,,,,,,,,,,,,,,,,,,,,,,,,,,,,,,,,,,,,,,,,,,,,,,,,,,,,,,,,
710832,001,2022-11-20_23h51.59.093,Info_measure_main_exp,2022.2.2,Win32,60.20832079,,,,,,,,,,,,,0,0,0,1,1,masks/mask_002.jpg,,,,,,,,,,,,,,,,,,,,,,,,,,,,,,,,,,,,,,,,,,,,,,,,,,,,,,,,,,,,,,,,,,,,,,,,,,,,,,,,,,,,,,,,,,,,,
710832,001,2022-11-20_23h51.59.093,Info_measure_main_exp,2022.2.2,Win32,60.20832079,,,,,,,,,,,,,0,1,1,3,1,masks/mask_004.jpg,,,,,,,,,,,,,,,,,,,,,,,,,,,,,,,,,,,,,,,,,,,,,,,,,,,,,,,,,,,,,,,,,,,,,,,,,,,,,,,,,,,,,,,,,,,,,
710832,001,2022-11-20_23h51.59.093,Info_measure_main_exp,2022.2.2,Win32,60.20832079,,,,,,,,,,,,,0,2,2,2,1,masks/mask_003.jpg,,,,,,,,,,,,,,,,,,,,,,,,,,,,,,,,,,,,,,,,,,,,,,,,,,,,,,,,,,,,,,,,,,,,,,,,,,,,,,,,,,,,,,,,,,,,,
710832,001,2022-11-20_23h51.59.093,Info_measure_main_exp,2022.2.2,Win32,60.20832079,,,,,,,,,,,,,0,3,3,4,1,masks/mask_005.jpg,,,,,,,,,,,,,,,,,,,,,,,,,,,,,,,,,,,,,,,,,,,,,,,,,,,,,,,,,,,,,,,,,,,,,,,,,,,,,,,,,,,,,,,,,,,,,
710832,001,2022-11-20_23h51.59.093,Info_measure_main_exp,2022.2.2,Win32,60.20832079,,,,,,,,,,,,,0,4,4,0,1,masks/mask_001.jpg,,,,,,,,,,,,,,,,,,,,,,,,,,,,,,,,,,,,,,,,,,,,,,,,,,,,,,,,,,,,,,,,,,,,,,,,,,,,,,,,,,,,,,,,,,,,,
710832,001,2022-11-20_23h51.59.093,Info_measure_main_exp,2022.2.2,Win32,60.20832079,,,,,,,,,,,,,,,,,,masks/mask_003.jpg,0,0,0,2,1,,,,,,,,,,,,,,,,,,,,,,,,,,,,,,,,,,,,,,,,,,,,,,,,,,,,,,,,,,,,,,,,,,,,,,,,,,,,,,,,,,,,,,,,
710832,001,2022-11-20_23h51.59.093,Info_measure_main_exp,2022.2.2,Win32,60.20832079,,,,,,,,,,,,,,,,,,masks/mask_004.jpg,0,1,1,3,1,,,,,,,,,,,,,,,,,,,,,,,,,,,,,,,,,,,,,,,,,,,,,,,,,,,,,,,,,,,,,,,,,,,,,,,,,,,,,,,,,,,,,,,,
710832,001,2022-11-20_23h51.59.093,Info_measure_main_exp,2022.2.2,Win32,60.20832079,,,,,,,,,,,,,,,,,,masks/mask_002.jpg,0,2,2,1,1,,,,,,,,,,,,,,,,,,,,,,,,,,,,,,,,,,,,,,,,,,,,,,,,,,,,,,,,,,,,,,,,,,,,,,,,,,,,,,,,,,,,,,,,
710832,001,2022-11-20_23h51.59.093,Info_measure_main_exp,2022.2.2,Win32,60.20832079,,,,,,,,,,,,,,,,,,masks/mask_001.jpg,0,3,3,0,1,,,,,,,,,,,,,,,,,,,,,,,,,,,,,,,,,,,,,,,,,,,,,,,,,,,,,,,,,,,,,,,,,,,,,,,,,,,,,,,,,,,,,,,,
710832,001,2022-11-20_23h51.59.093,Info_measure_main_exp,2022.2.2,Win32,60.20832079,,,,,,,,,,,,,,,,,,masks/mask_005.jpg,0,4,4,4,1,,,,,,,,,,,,,,,,,,,,,,,,,,,,,,,,,,,,,,,,,,,,,,,,,,,,,,,,,,,,,,,,,,,,,,,,,,,,,,,,,,,,,,,,
710832,001,2022-11-20_23h51.59.093,Info_measure_main_exp,2022.2.2,Win32,60.20832079,,,,,,,,,,,,,,,,,,,,,,,,0.086111111,-0.114814815,1,0,0,response3disk,4,77.6698,1,0.001851852,0,1,0,0,center_square,0,0,0,0,1,0,131,5,5,2370,2406,prac_patch/patch0002370.jpg,prac_patch/patch0002406.jpg,,,,,,,,,,,,,,,,,,,,,,,,,,,,,,,,,,,,,,,,,,,,,,,,,,,,,,,,,,,,
710832,001,2022-11-20_23h51.59.093,Info_measure_main_exp,2022.2.2,Win32,60.20832079,,,,,,,,,,,,,0,0,0,4,1,masks/mask_005.jpg,,,,,,,,,,,,,,,,,,,,,,,,,,,,,,,,,,,,,,,,,,,,,,,,,,,,,,,,,,,,,,,,,,,,,,,,,,,,,,,,,,,,,,,,,,,,,
710832,001,2022-11-20_23h51.59.093,Info_measure_main_exp,2022.2.2,Win32,60.20832079,,,,,,,,,,,,,0,1,1,1,1,masks/mask_002.jpg,,,,,,,,,,,,,,,,,,,,,,,,,,,,,,,,,,,,,,,,,,,,,,,,,,,,,,,,,,,,,,,,,,,,,,,,,,,,,,,,,,,,,,,,,,,,,
710832,001,2022-11-20_23h51.59.093,Info_measure_main_exp,2022.2.2,Win32,60.20832079,,,,,,,,,,,,,0,2,2,0,1,masks/mask_001.jpg,,,,,,,,,,,,,,,,,,,,,,,,,,,,,,,,,,,,,,,,,,,,,,,,,,,,,,,,,,,,,,,,,,,,,,,,,,,,,,,,,,,,,,,,,,,,,
710832,001,2022-11-20_23h51.59.093,Info_measure_main_exp,2022.2.2,Win32,60.20832079,,,,,,,,,,,,,0,3,3,3,1,masks/mask_004.jpg,,,,,,,,,,,,,,,,,,,,,,,,,,,,,,,,,,,,,,,,,,,,,,,,,,,,,,,,,,,,,,,,,,,,,,,,,,,,,,,,,,,,,,,,,,,,,
710832,001,2022-11-20_23h51.59.093,Info_measure_main_exp,2022.2.2,Win32,60.20832079,,,,,,,,,,,,,0,4,4,2,1,masks/mask_003.jpg,,,,,,,,,,,,,,,,,,,,,,,,,,,,,,,,,,,,,,,,,,,,,,,,,,,,,,,,,,,,,,,,,,,,,,,,,,,,,,,,,,,,,,,,,,,,,
710832,001,2022-11-20_23h51.59.093,Info_measure_main_exp,2022.2.2,Win32,60.20832079,,,,,,,,,,,,,,,,,,masks/mask_001.jpg,0,0,0,0,1,,,,,,,,,,,,,,,,,,,,,,,,,,,,,,,,,,,,,,,,,,,,,,,,,,,,,,,,,,,,,,,,,,,,,,,,,,,,,,,,,,,,,,,,
710832,001,2022-11-20_23h51.59.093,Info_measure_main_exp,2022.2.2,Win32,60.20832079,,,,,,,,,,,,,,,,,,masks/mask_004.jpg,0,1,1,3,1,,,,,,,,,,,,,,,,,,,,,,,,,,,,,,,,,,,,,,,,,,,,,,,,,,,,,,,,,,,,,,,,,,,,,,,,,,,,,,,,,,,,,,,,
710832,001,2022-11-20_23h51.59.093,Info_measure_main_exp,2022.2.2,Win32,60.20832079,,,,,,,,,,,,,,,,,,masks/mask_002.jpg,0,2,2,1,1,,,,,,,,,,,,,,,,,,,,,,,,,,,,,,,,,,,,,,,,,,,,,,,,,,,,,,,,,,,,,,,,,,,,,,,,,,,,,,,,,,,,,,,,
710832,001,2022-11-20_23h51.59.093,Info_measure_main_exp,2022.2.2,Win32,60.20832079,,,,,,,,,,,,,,,,,,masks/mask_005.jpg,0,3,3,4,1,,,,,,,,,,,,,,,,,,,,,,,,,,,,,,,,,,,,,,,,,,,,,,,,,,,,,,,,,,,,,,,,,,,,,,,,,,,,,,,,,,,,,,,,
710832,001,2022-11-20_23h51.59.093,Info_measure_main_exp,2022.2.2,Win32,60.20832079,,,,,,,,,,,,,,,,,,masks/mask_003.jpg,0,4,4,2,1,,,,,,,,,,,,,,,,,,,,,,,,,,,,,,,,,,,,,,,,,,,,,,,,,,,,,,,,,,,,,,,,,,,,,,,,,,,,,,,,,,,,,,,,
710832,001,2022-11-20_23h51.59.093,Info_measure_main_exp,2022.2.2,Win32,60.20832079,,,,,,,,,,,,,,,,,,,,,,,,-0.136111111,0.026851852,1,0,0,response7disk,1,89.3791,1,0.00462963,-0.000925926,1,0,0,center_square,0,1,1,2,1,0,131,5,5,2526,2526,prac_patch/patch0002526.jpg,prac_patch/patch0002526.jpg,,,,,,,,,,,,,,,,,,,,,,,,,,,,,,,,,,,,,,,,,,,,,,,,,,,,,,,,,,,,
710832,001,2022-11-20_23h51.59.093,Info_measure_main_exp,2022.2.2,Win32,60.20832079,,,,,,,,,,,,,0,0,0,3,1,masks/mask_004.jpg,,,,,,,,,,,,,,,,,,,,,,,,,,,,,,,,,,,,,,,,,,,,,,,,,,,,,,,,,,,,,,,,,,,,,,,,,,,,,,,,,,,,,,,,,,,,,
710832,001,2022-11-20_23h51.59.093,Info_measure_main_exp,2022.2.2,Win32,60.20832079,,,,,,,,,,,,,0,1,1,4,1,masks/mask_005.jpg,,,,,,,,,,,,,,,,,,,,,,,,,,,,,,,,,,,,,,,,,,,,,,,,,,,,,,,,,,,,,,,,,,,,,,,,,,,,,,,,,,,,,,,,,,,,,
710832,001,2022-11-20_23h51.59.093,Info_measure_main_exp,2022.2.2,Win32,60.20832079,,,,,,,,,,,,,0,2,2,1,1,masks/mask_002.jpg,,,,,,,,,,,,,,,,,,,,,,,,,,,,,,,,,,,,,,,,,,,,,,,,,,,,,,,,,,,,,,,,,,,,,,,,,,,,,,,,,,,,,,,,,,,,,
710832,001,2022-11-20_23h51.59.093,Info_measure_main_exp,2022.2.2,Win32,60.20832079,,,,,,,,,,,,,0,3,3,2,1,masks/mask_003.jpg,,,,,,,,,,,,,,,,,,,,,,,,,,,,,,,,,,,,,,,,,,,,,,,,,,,,,,,,,,,,,,,,,,,,,,,,,,,,,,,,,,,,,,,,,,,,,
710832,001,2022-11-20_23h51.59.093,Info_measure_main_exp,2022.2.2,Win32,60.20832079,,,,,,,,,,,,,0,4,4,0,1,masks/mask_001.jpg,,,,,,,,,,,,,,,,,,,,,,,,,,,,,,,,,,,,,,,,,,,,,,,,,,,,,,,,,,,,,,,,,,,,,,,,,,,,,,,,,,,,,,,,,,,,,
710832,001,2022-11-20_23h51.59.093,Info_measure_main_exp,2022.2.2,Win32,60.20832079,,,,,,,,,,,,,,,,,,masks/mask_003.jpg,0,0,0,2,1,,,,,,,,,,,,,,,,,,,,,,,,,,,,,,,,,,,,,,,,,,,,,,,,,,,,,,,,,,,,,,,,,,,,,,,,,,,,,,,,,,,,,,,,
710832,001,2022-11-20_23h51.59.093,Info_measure_main_exp,2022.2.2,Win32,60.20832079,,,,,,,,,,,,,,,,,,masks/mask_004.jpg,0,1,1,3,1,,,,,,,,,,,,,,,,,,,,,,,,,,,,,,,,,,,,,,,,,,,,,,,,,,,,,,,,,,,,,,,,,,,,,,,,,,,,,,,,,,,,,,,,
710832,001,2022-11-20_23h51.59.093,Info_measure_main_exp,2022.2.2,Win32,60.20832079,,,,,,,,,,,,,,,,,,masks/mask_002.jpg,0,2,2,1,1,,,,,,,,,,,,,,,,,,,,,,,,,,,,,,,,,,,,,,,,,,,,,,,,,,,,,,,,,,,,,,,,,,,,,,,,,,,,,,,,,,,,,,,,
710832,001,2022-11-20_23h51.59.093,Info_measure_main_exp,2022.2.2,Win32,60.20832079,,,,,,,,,,,,,,,,,,masks/mask_001.jpg,0,3,3,0,1,,,,,,,,,,,,,,,,,,,,,,,,,,,,,,,,,,,,,,,,,,,,,,,,,,,,,,,,,,,,,,,,,,,,,,,,,,,,,,,,,,,,,,,,
710832,001,2022-11-20_23h51.59.093,Info_measure_main_exp,2022.2.2,Win32,60.20832079,,,,,,,,,,,,,,,,,,masks/mask_005.jpg,0,4,4,4,1,,,,,,,,,,,,,,,,,,,,,,,,,,,,,,,,,,,,,,,,,,,,,,,,,,,,,,,,,,,,,,,,,,,,,,,,,,,,,,,,,,,,,,,,
710832,001,2022-11-20_23h51.59.093,Info_measure_main_exp,2022.2.2,Win32,60.20832079,,,,,,,,,,,,,,,,,,,,,,,,0.090740741,-0.051851852,1,0,0,response3disk,5,100.6071,1,-0.002777778,-0.00462963,1,0,0,center_square,0,2,2,1,1,0,131,5,5,2514,2490,prac_patch/patch0002514.jpg,prac_patch/patch0002490.jpg,,,,,,,,,,,,,,,,,,,,,,,,,,,,,,,,,,,,,,,,,,,,,,,,,,,,,,,,,,,,
710832,001,2022-11-20_23h51.59.093,Info_measure_main_exp,2022.2.2,Win32,60.20832079,,,,,,,,,,,,,,,,,,,,,,,,,,,,,,,,,,,,,,,,,,,,,,,,,,,,,,,,,,,space,3.9503,,,,,,,,,,,,,,,,,,,,,,,,,,,,,,,,,,,,,,,,,,,,,,,,,,,
710832,001,2022-11-20_23h51.59.093,Info_measure_main_exp,2022.2.2,Win32,60.20832079,,,,,,,,,,,,,,,,,,masks/mask_002.jpg,,,,,,,,,,,,,,,,,,,,,,,,,,,,,,,,,,,,,,,,,,,0,0,0,1,1,,,,,,,,,,,,,,,,,,,,,,,,,,,,,,,,,,,,,,,,,,,,,,
710832,001,2022-11-20_23h51.59.093,Info_measure_main_exp,2022.2.2,Win32,60.20832079,,,,,,,,,,,,,,,,,,masks/mask_001.jpg,,,,,,,,,,,,,,,,,,,,,,,,,,,,,,,,,,,,,,,,,,,0,1,1,0,1,,,,,,,,,,,,,,,,,,,,,,,,,,,,,,,,,,,,,,,,,,,,,,
710832,001,2022-11-20_23h51.59.093,Info_measure_main_exp,2022.2.2,Win32,60.20832079,,,,,,,,,,,,,,,,,,masks/mask_004.jpg,,,,,,,,,,,,,,,,,,,,,,,,,,,,,,,,,,,,,,,,,,,0,2,2,3,1,,,,,,,,,,,,,,,,,,,,,,,,,,,,,,,,,,,,,,,,,,,,,,
710832,001,2022-11-20_23h51.59.093,Info_measure_main_exp,2022.2.2,Win32,60.20832079,,,,,,,,,,,,,,,,,,masks/mask_005.jpg,,,,,,,,,,,,,,,,,,,,,,,,,,,,,,,,,,,,,,,,,,,0,3,3,4,1,,,,,,,,,,,,,,,,,,,,,,,,,,,,,,,,,,,,,,,,,,,,,,
710832,001,2022-11-20_23h51.59.093,Info_measure_main_exp,2022.2.2,Win32,60.20832079,,,,,,,,,,,,,,,,,,masks/mask_003.jpg,,,,,,,,,,,,,,,,,,,,,,,,,,,,,,,,,,,,,,,,,,,0,4,4,2,1,,,,,,,,,,,,,,,,,,,,,,,,,,,,,,,,,,,,,,,,,,,,,,
710832,001,2022-11-20_23h51.59.093,Info_measure_main_exp,2022.2.2,Win32,60.20832079,,,,,,,,,,,,,,,,,,masks/mask_005.jpg,,,,,,,,,,,,,,,,,,,,,,,,,,,,,,,,,,,,,,,,,,,,,,,,0,0,0,4,1,,,,,,,,,,,,,,,,,,,,,,,,,,,,,,,,,,,,,,,,,
710832,001,2022-11-20_23h51.59.093,Info_measure_main_exp,2022.2.2,Win32,60.20832079,,,,,,,,,,,,,,,,,,masks/mask_001.jpg,,,,,,,,,,,,,,,,,,,,,,,,,,,,,,,,,,,,,,,,,,,,,,,,0,1,1,0,1,,,,,,,,,,,,,,,,,,,,,,,,,,,,,,,,,,,,,,,,,
710832,001,2022-11-20_23h51.59.093,Info_measure_main_exp,2022.2.2,Win32,60.20832079,,,,,,,,,,,,,,,,,,masks/mask_003.jpg,,,,,,,,,,,,,,,,,,,,,,,,,,,,,,,,,,,,,,,,,,,,,,,,0,2,2,2,1,,,,,,,,,,,,,,,,,,,,,,,,,,,,,,,,,,,,,,,,,
710832,001,2022-11-20_23h51.59.093,Info_measure_main_exp,2022.2.2,Win32,60.20832079,,,,,,,,,,,,,,,,,,masks/mask_004.jpg,,,,,,,,,,,,,,,,,,,,,,,,,,,,,,,,,,,,,,,,,,,,,,,,0,3,3,3,1,,,,,,,,,,,,,,,,,,,,,,,,,,,,,,,,,,,,,,,,,
710832,001,2022-11-20_23h51.59.093,Info_measure_main_exp,2022.2.2,Win32,60.20832079,,,,,,,,,,,,,,,,,,masks/mask_002.jpg,,,,,,,,,,,,,,,,,,,,,,,,,,,,,,,,,,,,,,,,,,,,,,,,0,4,4,1,1,,,,,,,,,,,,,,,,,,,,,,,,,,,,,,,,,,,,,,,,,
710832,001,2022-11-20_23h51.59.093,Info_measure_main_exp,2022.2.2,Win32,60.20832079,,,,,,,,,,,,,,,,,,,,,,,,,,,,,,7,1.8688,1,,,,,,,,,,,,0,131,5,5,1950,2238,absent_patch/patch0001950.jpg,absent_patch/patch0002238.jpg,,,,,,,,,,,,,,,,,,,,0.058333333,0.102777778,1,0,0,response1disk,1,0.009259259,0.006481481,1,0,0,center_square,0,0,0,8,1,,,,,,,,,,,,,,,,,,,,,,,
710832,001,2022-11-20_23h51.59.093,Info_measure_main_exp,2022.2.2,Win32,60.20832079,,,,,,,,,,,,,,,,,,masks/mask_005.jpg,,,,,,,,,,,,,,,,,,,,,,,,,,,,,,,,,,,,,,,,,,,0,0,0,4,1,,,,,,,,,,,,,,,,,,,,,,,,,,,,,,,,,,,,,,,,,,,,,,
710832,001,2022-11-20_23h51.59.093,Info_measure_main_exp,2022.2.2,Win32,60.20832079,,,,,,,,,,,,,,,,,,masks/mask_002.jpg,,,,,,,,,,,,,,,,,,,,,,,,,,,,,,,,,,,,,,,,,,,0,1,1,1,1,,,,,,,,,,,,,,,,,,,,,,,,,,,,,,,,,,,,,,,,,,,,,,
710832,001,2022-11-20_23h51.59.093,Info_measure_main_exp,2022.2.2,Win32,60.20832079,,,,,,,,,,,,,,,,,,masks/mask_004.jpg,,,,,,,,,,,,,,,,,,,,,,,,,,,,,,,,,,,,,,,,,,,0,2,2,3,1,,,,,,,,,,,,,,,,,,,,,,,,,,,,,,,,,,,,,,,,,,,,,,
710832,001,2022-11-20_23h51.59.093,Info_measure_main_exp,2022.2.2,Win32,60.20832079,,,,,,,,,,,,,,,,,,masks/mask_003.jpg,,,,,,,,,,,,,,,,,,,,,,,,,,,,,,,,,,,,,,,,,,,0,3,3,2,1,,,,,,,,,,,,,,,,,,,,,,,,,,,,,,,,,,,,,,,,,,,,,,
710832,001,2022-11-20_23h51.59.093,Info_measure_main_exp,2022.2.2,Win32,60.20832079,,,,,,,,,,,,,,,,,,masks/mask_001.jpg,,,,,,,,,,,,,,,,,,,,,,,,,,,,,,,,,,,,,,,,,,,0,4,4,0,1,,,,,,,,,,,,,,,,,,,,,,,,,,,,,,,,,,,,,,,,,,,,,,
710832,001,2022-11-20_23h51.59.093,Info_measure_main_exp,2022.2.2,Win32,60.20832079,,,,,,,,,,,,,,,,,,masks/mask_003.jpg,,,,,,,,,,,,,,,,,,,,,,,,,,,,,,,,,,,,,,,,,,,,,,,,0,0,0,2,1,,,,,,,,,,,,,,,,,,,,,,,,,,,,,,,,,,,,,,,,,
710832,001,2022-11-20_23h51.59.093,Info_measure_main_exp,2022.2.2,Win32,60.20832079,,,,,,,,,,,,,,,,,,masks/mask_001.jpg,,,,,,,,,,,,,,,,,,,,,,,,,,,,,,,,,,,,,,,,,,,,,,,,0,1,1,0,1,,,,,,,,,,,,,,,,,,,,,,,,,,,,,,,,,,,,,,,,,
710832,001,2022-11-20_23h51.59.093,Info_measure_main_exp,2022.2.2,Win32,60.20832079,,,,,,,,,,,,,,,,,,masks/mask_004.jpg,,,,,,,,,,,,,,,,,,,,,,,,,,,,,,,,,,,,,,,,,,,,,,,,0,2,2,3,1,,,,,,,,,,,,,,,,,,,,,,,,,,,,,,,,,,,,,,,,,
710832,001,2022-11-20_23h51.59.093,Info_measure_main_exp,2022.2.2,Win32,60.20832079,,,,,,,,,,,,,,,,,,masks/mask_005.jpg,,,,,,,,,,,,,,,,,,,,,,,,,,,,,,,,,,,,,,,,,,,,,,,,0,3,3,4,1,,,,,,,,,,,,,,,,,,,,,,,,,,,,,,,,,,,,,,,,,
710832,001,2022-11-20_23h51.59.093,Info_measure_main_exp,2022.2.2,Win32,60.20832079,,,,,,,,,,,,,,,,,,masks/mask_002.jpg,,,,,,,,,,,,,,,,,,,,,,,,,,,,,,,,,,,,,,,,,,,,,,,,0,4,4,1,1,,,,,,,,,,,,,,,,,,,,,,,,,,,,,,,,,,,,,,,,,
710832,001,2022-11-20_23h51.59.093,Info_measure_main_exp,2022.2.2,Win32,60.20832079,,,,,,,,,,,,,,,,,,,,,,,,,,,,,,4,1.8685,1,,,,,,,,,,,,0,131,5,5,2214,2082,absent_patch/patch0002214.jpg,absent_patch/patch0002082.jpg,,,,,,,,,,,,,,,,,,,,0.024074074,-0.074074074,1,0,0,response3disk,2,-0.001851852,-0.012962963,1,0,0,center_square,0,1,1,103,1,,,,,,,,,,,,,,,,,,,,,,,
710832,001,2022-11-20_23h51.59.093,Info_measure_main_exp,2022.2.2,Win32,60.20832079,,,,,,,,,,,,,,,,,,masks/mask_002.jpg,,,,,,,,,,,,,,,,,,,,,,,,,,,,,,,,,,,,,,,,,,,0,0,0,1,1,,,,,,,,,,,,,,,,,,,,,,,,,,,,,,,,,,,,,,,,,,,,,,
710832,001,2022-11-20_23h51.59.093,Info_measure_main_exp,2022.2.2,Win32,60.20832079,,,,,,,,,,,,,,,,,,masks/mask_004.jpg,,,,,,,,,,,,,,,,,,,,,,,,,,,,,,,,,,,,,,,,,,,0,1,1,3,1,,,,,,,,,,,,,,,,,,,,,,,,,,,,,,,,,,,,,,,,,,,,,,
710832,001,2022-11-20_23h51.59.093,Info_measure_main_exp,2022.2.2,Win32,60.20832079,,,,,,,,,,,,,,,,,,masks/mask_003.jpg,,,,,,,,,,,,,,,,,,,,,,,,,,,,,,,,,,,,,,,,,,,0,2,2,2,1,,,,,,,,,,,,,,,,,,,,,,,,,,,,,,,,,,,,,,,,,,,,,,
710832,001,2022-11-20_23h51.59.093,Info_measure_main_exp,2022.2.2,Win32,60.20832079,,,,,,,,,,,,,,,,,,masks/mask_005.jpg,,,,,,,,,,,,,,,,,,,,,,,,,,,,,,,,,,,,,,,,,,,0,3,3,4,1,,,,,,,,,,,,,,,,,,,,,,,,,,,,,,,,,,,,,,,,,,,,,,
710832,001,2022-11-20_23h51.59.093,Info_measure_main_exp,2022.2.2,Win32,60.20832079,,,,,,,,,,,,,,,,,,masks/mask_001.jpg,,,,,,,,,,,,,,,,,,,,,,,,,,,,,,,,,,,,,,,,,,,0,4,4,0,1,,,,,,,,,,,,,,,,,,,,,,,,,,,,,,,,,,,,,,,,,,,,,,
710832,001,2022-11-20_23h51.59.093,Info_measure_main_exp,2022.2.2,Win32,60.20832079,,,,,,,,,,,,,,,,,,masks/mask_004.jpg,,,,,,,,,,,,,,,,,,,,,,,,,,,,,,,,,,,,,,,,,,,,,,,,0,0,0,3,1,,,,,,,,,,,,,,,,,,,,,,,,,,,,,,,,,,,,,,,,,
710832,001,2022-11-20_23h51.59.093,Info_measure_main_exp,2022.2.2,Win32,60.20832079,,,,,,,,,,,,,,,,,,masks/mask_003.jpg,,,,,,,,,,,,,,,,,,,,,,,,,,,,,,,,,,,,,,,,,,,,,,,,0,1,1,2,1,,,,,,,,,,,,,,,,,,,,,,,,,,,,,,,,,,,,,,,,,
710832,001,2022-11-20_23h51.59.093,Info_measure_main_exp,2022.2.2,Win32,60.20832079,,,,,,,,,,,,,,,,,,masks/mask_005.jpg,,,,,,,,,,,,,,,,,,,,,,,,,,,,,,,,,,,,,,,,,,,,,,,,0,2,2,4,1,,,,,,,,,,,,,,,,,,,,,,,,,,,,,,,,,,,,,,,,,
710832,001,2022-11-20_23h51.59.093,Info_measure_main_exp,2022.2.2,Win32,60.20832079,,,,,,,,,,,,,,,,,,masks/mask_001.jpg,,,,,,,,,,,,,,,,,,,,,,,,,,,,,,,,,,,,,,,,,,,,,,,,0,3,3,0,1,,,,,,,,,,,,,,,,,,,,,,,,,,,,,,,,,,,,,,,,,
710832,001,2022-11-20_23h51.59.093,Info_measure_main_exp,2022.2.2,Win32,60.20832079,,,,,,,,,,,,,,,,,,masks/mask_002.jpg,,,,,,,,,,,,,,,,,,,,,,,,,,,,,,,,,,,,,,,,,,,,,,,,0,4,4,1,1,,,,,,,,,,,,,,,,,,,,,,,,,,,,,,,,,,,,,,,,,
710832,001,2022-11-20_23h51.59.093,Info_measure_main_exp,2022.2.2,Win32,60.20832079,,,,,,,,,,,,,,,,,,,,,,,,,,,,,,2,4.1874,1,,,,,,,,,,,,0,131,5,5,1986,1986,absent_patch/patch0001986.jpg,absent_patch/patch0001986.jpg,,,,,,,,,,,,,,,,,,,,-0.133333333,-0.023148148,1,0,0,response5disk,3,-0.006481481,-0.002777778,1,0,0,center_square,0,2,2,19,1,,,,,,,,,,,,,,,,,,,,,,,
710832,001,2022-11-20_23h51.59.093,Info_measure_main_exp,2022.2.2,Win32,60.20832079,,,,,,,,,,,,,,,,,,masks/mask_004.jpg,,,,,,,,,,,,,,,,,,,,,,,,,,,,,,,,,,,,,,,,,,,0,0,0,3,1,,,,,,,,,,,,,,,,,,,,,,,,,,,,,,,,,,,,,,,,,,,,,,
710832,001,2022-11-20_23h51.59.093,Info_measure_main_exp,2022.2.2,Win32,60.20832079,,,,,,,,,,,,,,,,,,masks/mask_003.jpg,,,,,,,,,,,,,,,,,,,,,,,,,,,,,,,,,,,,,,,,,,,0,1,1,2,1,,,,,,,,,,,,,,,,,,,,,,,,,,,,,,,,,,,,,,,,,,,,,,
710832,001,2022-11-20_23h51.59.093,Info_measure_main_exp,2022.2.2,Win32,60.20832079,,,,,,,,,,,,,,,,,,masks/mask_002.jpg,,,,,,,,,,,,,,,,,,,,,,,,,,,,,,,,,,,,,,,,,,,0,2,2,1,1,,,,,,,,,,,,,,,,,,,,,,,,,,,,,,,,,,,,,,,,,,,,,,
710832,001,2022-11-20_23h51.59.093,Info_measure_main_exp,2022.2.2,Win32,60.20832079,,,,,,,,,,,,,,,,,,masks/mask_001.jpg,,,,,,,,,,,,,,,,,,,,,,,,,,,,,,,,,,,,,,,,,,,0,3,3,0,1,,,,,,,,,,,,,,,,,,,,,,,,,,,,,,,,,,,,,,,,,,,,,,
710832,001,2022-11-20_23h51.59.093,Info_measure_main_exp,2022.2.2,Win32,60.20832079,,,,,,,,,,,,,,,,,,masks/mask_005.jpg,,,,,,,,,,,,,,,,,,,,,,,,,,,,,,,,,,,,,,,,,,,0,4,4,4,1,,,,,,,,,,,,,,,,,,,,,,,,,,,,,,,,,,,,,,,,,,,,,,
710832,001,2022-11-20_23h51.59.093,Info_measure_main_exp,2022.2.2,Win32,60.20832079,,,,,,,,,,,,,,,,,,masks/mask_005.jpg,,,,,,,,,,,,,,,,,,,,,,,,,,,,,,,,,,,,,,,,,,,,,,,,0,0,0,4,1,,,,,,,,,,,,,,,,,,,,,,,,,,,,,,,,,,,,,,,,,
710832,001,2022-11-20_23h51.59.093,Info_measure_main_exp,2022.2.2,Win32,60.20832079,,,,,,,,,,,,,,,,,,masks/mask_002.jpg,,,,,,,,,,,,,,,,,,,,,,,,,,,,,,,,,,,,,,,,,,,,,,,,0,1,1,1,1,,,,,,,,,,,,,,,,,,,,,,,,,,,,,,,,,,,,,,,,,
710832,001,2022-11-20_23h51.59.093,Info_measure_main_exp,2022.2.2,Win32,60.20832079,,,,,,,,,,,,,,,,,,masks/mask_001.jpg,,,,,,,,,,,,,,,,,,,,,,,,,,,,,,,,,,,,,,,,,,,,,,,,0,2,2,0,1,,,,,,,,,,,,,,,,,,,,,,,,,,,,,,,,,,,,,,,,,
710832,001,2022-11-20_23h51.59.093,Info_measure_main_exp,2022.2.2,Win32,60.20832079,,,,,,,,,,,,,,,,,,masks/mask_003.jpg,,,,,,,,,,,,,,,,,,,,,,,,,,,,,,,,,,,,,,,,,,,,,,,,0,3,3,2,1,,,,,,,,,,,,,,,,,,,,,,,,,,,,,,,,,,,,,,,,,
710832,001,2022-11-20_23h51.59.093,Info_measure_main_exp,2022.2.2,Win32,60.20832079,,,,,,,,,,,,,,,,,,masks/mask_004.jpg,,,,,,,,,,,,,,,,,,,,,,,,,,,,,,,,,,,,,,,,,,,,,,,,0,4,4,3,1,,,,,,,,,,,,,,,,,,,,,,,,,,,,,,,,,,,,,,,,,
710832,001,2022-11-20_23h51.59.093,Info_measure_main_exp,2022.2.2,Win32,60.20832079,,,,,,,,,,,,,,,,,,,,,,,,,,,,,,6,1.4847,1,,,,,,,,,,,,0,131,5,5,1974,2238,absent_patch/patch0001974.jpg,absent_patch/patch0002238.jpg,,,,,,,,,,,,,,,,,,,,0.14537037,0.057407407,1,0,0,response1disk,4,0.000925926,0.007407407,1,0,0,center_square,0,3,3,95,1,,,,,,,,,,,,,,,,,,,,,,,
710832,001,2022-11-20_23h51.59.093,Info_measure_main_exp,2022.2.2,Win32,60.20832079,,,,,,,,,,,,,,,,,,masks/mask_001.jpg,,,,,,,,,,,,,,,,,,,,,,,,,,,,,,,,,,,,,,,,,,,0,0,0,0,1,,,,,,,,,,,,,,,,,,,,,,,,,,,,,,,,,,,,,,,,,,,,,,
710832,001,2022-11-20_23h51.59.093,Info_measure_main_exp,2022.2.2,Win32,60.20832079,,,,,,,,,,,,,,,,,,masks/mask_004.jpg,,,,,,,,,,,,,,,,,,,,,,,,,,,,,,,,,,,,,,,,,,,0,1,1,3,1,,,,,,,,,,,,,,,,,,,,,,,,,,,,,,,,,,,,,,,,,,,,,,
710832,001,2022-11-20_23h51.59.093,Info_measure_main_exp,2022.2.2,Win32,60.20832079,,,,,,,,,,,,,,,,,,masks/mask_005.jpg,,,,,,,,,,,,,,,,,,,,,,,,,,,,,,,,,,,,,,,,,,,0,2,2,4,1,,,,,,,,,,,,,,,,,,,,,,,,,,,,,,,,,,,,,,,,,,,,,,
710832,001,2022-11-20_23h51.59.093,Info_measure_main_exp,2022.2.2,Win32,60.20832079,,,,,,,,,,,,,,,,,,masks/mask_002.jpg,,,,,,,,,,,,,,,,,,,,,,,,,,,,,,,,,,,,,,,,,,,0,3,3,1,1,,,,,,,,,,,,,,,,,,,,,,,,,,,,,,,,,,,,,,,,,,,,,,
710832,001,2022-11-20_23h51.59.093,Info_measure_main_exp,2022.2.2,Win32,60.20832079,,,,,,,,,,,,,,,,,,masks/mask_003.jpg,,,,,,,,,,,,,,,,,,,,,,,,,,,,,,,,,,,,,,,,,,,0,4,4,2,1,,,,,,,,,,,,,,,,,,,,,,,,,,,,,,,,,,,,,,,,,,,,,,
710832,001,2022-11-20_23h51.59.093,Info_measure_main_exp,2022.2.2,Win32,60.20832079,,,,,,,,,,,,,,,,,,masks/mask_001.jpg,,,,,,,,,,,,,,,,,,,,,,,,,,,,,,,,,,,,,,,,,,,,,,,,0,0,0,0,1,,,,,,,,,,,,,,,,,,,,,,,,,,,,,,,,,,,,,,,,,
710832,001,2022-11-20_23h51.59.093,Info_measure_main_exp,2022.2.2,Win32,60.20832079,,,,,,,,,,,,,,,,,,masks/mask_002.jpg,,,,,,,,,,,,,,,,,,,,,,,,,,,,,,,,,,,,,,,,,,,,,,,,0,1,1,1,1,,,,,,,,,,,,,,,,,,,,,,,,,,,,,,,,,,,,,,,,,
710832,001,2022-11-20_23h51.59.093,Info_measure_main_exp,2022.2.2,Win32,60.20832079,,,,,,,,,,,,,,,,,,masks/mask_005.jpg,,,,,,,,,,,,,,,,,,,,,,,,,,,,,,,,,,,,,,,,,,,,,,,,0,2,2,4,1,,,,,,,,,,,,,,,,,,,,,,,,,,,,,,,,,,,,,,,,,
710832,001,2022-11-20_23h51.59.093,Info_measure_main_exp,2022.2.2,Win32,60.20832079,,,,,,,,,,,,,,,,,,masks/mask_004.jpg,,,,,,,,,,,,,,,,,,,,,,,,,,,,,,,,,,,,,,,,,,,,,,,,0,3,3,3,1,,,,,,,,,,,,,,,,,,,,,,,,,,,,,,,,,,,,,,,,,
710832,001,2022-11-20_23h51.59.093,Info_measure_main_exp,2022.2.2,Win32,60.20832079,,,,,,,,,,,,,,,,,,masks/mask_003.jpg,,,,,,,,,,,,,,,,,,,,,,,,,,,,,,,,,,,,,,,,,,,,,,,,0,4,4,2,1,,,,,,,,,,,,,,,,,,,,,,,,,,,,,,,,,,,,,,,,,
710832,001,2022-11-20_23h51.59.093,Info_measure_main_exp,2022.2.2,Win32,60.20832079,,,,,,,,,,,,,,,,,,,,,,,,,,,,,,7,2.7693,1,,,,,,,,,,,,0,131,5,5,2190,2238,absent_patch/patch0002190.jpg,absent_patch/patch0002238.jpg,,,,,,,,,,,,,,,,,,,,0.065740741,0.115740741,1,0,0,response1disk,5,-0.010185185,0.001851852,1,0,0,center_square,0,4,4,53,1,,,,,,,,,,,,,,,,,,,,,,,
710832,001,2022-11-20_23h51.59.093,Info_measure_main_exp,2022.2.2,Win32,60.20832079,,,,,,,,,,,,,,,,,,masks/mask_004.jpg,,,,,,,,,,,,,,,,,,,,,,,,,,,,,,,,,,,,,,,,,,,0,0,0,3,1,,,,,,,,,,,,,,,,,,,,,,,,,,,,,,,,,,,,,,,,,,,,,,
710832,001,2022-11-20_23h51.59.093,Info_measure_main_exp,2022.2.2,Win32,60.20832079,,,,,,,,,,,,,,,,,,masks/mask_005.jpg,,,,,,,,,,,,,,,,,,,,,,,,,,,,,,,,,,,,,,,,,,,0,1,1,4,1,,,,,,,,,,,,,,,,,,,,,,,,,,,,,,,,,,,,,,,,,,,,,,
710832,001,2022-11-20_23h51.59.093,Info_measure_main_exp,2022.2.2,Win32,60.20832079,,,,,,,,,,,,,,,,,,masks/mask_002.jpg,,,,,,,,,,,,,,,,,,,,,,,,,,,,,,,,,,,,,,,,,,,0,2,2,1,1,,,,,,,,,,,,,,,,,,,,,,,,,,,,,,,,,,,,,,,,,,,,,,
710832,001,2022-11-20_23h51.59.093,Info_measure_main_exp,2022.2.2,Win32,60.20832079,,,,,,,,,,,,,,,,,,masks/mask_001.jpg,,,,,,,,,,,,,,,,,,,,,,,,,,,,,,,,,,,,,,,,,,,0,3,3,0,1,,,,,,,,,,,,,,,,,,,,,,,,,,,,,,,,,,,,,,,,,,,,,,
710832,001,2022-11-20_23h51.59.093,Info_measure_main_exp,2022.2.2,Win32,60.20832079,,,,,,,,,,,,,,,,,,masks/mask_003.jpg,,,,,,,,,,,,,,,,,,,,,,,,,,,,,,,,,,,,,,,,,,,0,4,4,2,1,,,,,,,,,,,,,,,,,,,,,,,,,,,,,,,,,,,,,,,,,,,,,,
710832,001,2022-11-20_23h51.59.093,Info_measure_main_exp,2022.2.2,Win32,60.20832079,,,,,,,,,,,,,,,,,,masks/mask_001.jpg,,,,,,,,,,,,,,,,,,,,,,,,,,,,,,,,,,,,,,,,,,,,,,,,0,0,0,0,1,,,,,,,,,,,,,,,,,,,,,,,,,,,,,,,,,,,,,,,,,
710832,001,2022-11-20_23h51.59.093,Info_measure_main_exp,2022.2.2,Win32,60.20832079,,,,,,,,,,,,,,,,,,masks/mask_005.jpg,,,,,,,,,,,,,,,,,,,,,,,,,,,,,,,,,,,,,,,,,,,,,,,,0,1,1,4,1,,,,,,,,,,,,,,,,,,,,,,,,,,,,,,,,,,,,,,,,,
710832,001,2022-11-20_23h51.59.093,Info_measure_main_exp,2022.2.2,Win32,60.20832079,,,,,,,,,,,,,,,,,,masks/mask_003.jpg,,,,,,,,,,,,,,,,,,,,,,,,,,,,,,,,,,,,,,,,,,,,,,,,0,2,2,2,1,,,,,,,,,,,,,,,,,,,,,,,,,,,,,,,,,,,,,,,,,
710832,001,2022-11-20_23h51.59.093,Info_measure_main_exp,2022.2.2,Win32,60.20832079,,,,,,,,,,,,,,,,,,masks/mask_002.jpg,,,,,,,,,,,,,,,,,,,,,,,,,,,,,,,,,,,,,,,,,,,,,,,,0,3,3,1,1,,,,,,,,,,,,,,,,,,,,,,,,,,,,,,,,,,,,,,,,,
710832,001,2022-11-20_23h51.59.093,Info_measure_main_exp,2022.2.2,Win32,60.20832079,,,,,,,,,,,,,,,,,,masks/mask_004.jpg,,,,,,,,,,,,,,,,,,,,,,,,,,,,,,,,,,,,,,,,,,,,,,,,0,4,4,3,1,,,,,,,,,,,,,,,,,,,,,,,,,,,,,,,,,,,,,,,,,
710832,001,2022-11-20_23h51.59.093,Info_measure_main_exp,2022.2.2,Win32,60.20832079,,,,,,,,,,,,,,,,,,,,,,,,,,,,,,7,0.8843,1,,,,,,,,,,,,0,131,5,5,1950,2214,absent_patch/patch0001950.jpg,absent_patch/patch0002214.jpg,,,,,,,,,,,,,,,,,,,,0.05,0.060185185,1,0,0,response1disk,6,0.000925926,0.000925926,1,0,0,center_square,0,5,5,85,1,,,,,,,,,,,,,,,,,,,,,,,
710832,001,2022-11-20_23h51.59.093,Info_measure_main_exp,2022.2.2,Win32,60.20832079,,,,,,,,,,,,,,,,,,masks/mask_005.jpg,,,,,,,,,,,,,,,,,,,,,,,,,,,,,,,,,,,,,,,,,,,0,0,0,4,1,,,,,,,,,,,,,,,,,,,,,,,,,,,,,,,,,,,,,,,,,,,,,,
710832,001,2022-11-20_23h51.59.093,Info_measure_main_exp,2022.2.2,Win32,60.20832079,,,,,,,,,,,,,,,,,,masks/mask_003.jpg,,,,,,,,,,,,,,,,,,,,,,,,,,,,,,,,,,,,,,,,,,,0,1,1,2,1,,,,,,,,,,,,,,,,,,,,,,,,,,,,,,,,,,,,,,,,,,,,,,
710832,001,2022-11-20_23h51.59.093,Info_measure_main_exp,2022.2.2,Win32,60.20832079,,,,,,,,,,,,,,,,,,masks/mask_001.jpg,,,,,,,,,,,,,,,,,,,,,,,,,,,,,,,,,,,,,,,,,,,0,2,2,0,1,,,,,,,,,,,,,,,,,,,,,,,,,,,,,,,,,,,,,,,,,,,,,,
710832,001,2022-11-20_23h51.59.093,Info_measure_main_exp,2022.2.2,Win32,60.20832079,,,,,,,,,,,,,,,,,,masks/mask_002.jpg,,,,,,,,,,,,,,,,,,,,,,,,,,,,,,,,,,,,,,,,,,,0,3,3,1,1,,,,,,,,,,,,,,,,,,,,,,,,,,,,,,,,,,,,,,,,,,,,,,
710832,001,2022-11-20_23h51.59.093,Info_measure_main_exp,2022.2.2,Win32,60.20832079,,,,,,,,,,,,,,,,,,masks/mask_004.jpg,,,,,,,,,,,,,,,,,,,,,,,,,,,,,,,,,,,,,,,,,,,0,4,4,3,1,,,,,,,,,,,,,,,,,,,,,,,,,,,,,,,,,,,,,,,,,,,,,,
710832,001,2022-11-20_23h51.59.093,Info_measure_main_exp,2022.2.2,Win32,60.20832079,,,,,,,,,,,,,,,,,,masks/mask_004.jpg,,,,,,,,,,,,,,,,,,,,,,,,,,,,,,,,,,,,,,,,,,,,,,,,0,0,0,3,1,,,,,,,,,,,,,,,,,,,,,,,,,,,,,,,,,,,,,,,,,
710832,001,2022-11-20_23h51.59.093,Info_measure_main_exp,2022.2.2,Win32,60.20832079,,,,,,,,,,,,,,,,,,masks/mask_005.jpg,,,,,,,,,,,,,,,,,,,,,,,,,,,,,,,,,,,,,,,,,,,,,,,,0,1,1,4,1,,,,,,,,,,,,,,,,,,,,,,,,,,,,,,,,,,,,,,,,,
710832,001,2022-11-20_23h51.59.093,Info_measure_main_exp,2022.2.2,Win32,60.20832079,,,,,,,,,,,,,,,,,,masks/mask_002.jpg,,,,,,,,,,,,,,,,,,,,,,,,,,,,,,,,,,,,,,,,,,,,,,,,0,2,2,1,1,,,,,,,,,,,,,,,,,,,,,,,,,,,,,,,,,,,,,,,,,
710832,001,2022-11-20_23h51.59.093,Info_measure_main_exp,2022.2.2,Win32,60.20832079,,,,,,,,,,,,,,,,,,masks/mask_003.jpg,,,,,,,,,,,,,,,,,,,,,,,,,,,,,,,,,,,,,,,,,,,,,,,,0,3,3,2,1,,,,,,,,,,,,,,,,,,,,,,,,,,,,,,,,,,,,,,,,,
710832,001,2022-11-20_23h51.59.093,Info_measure_main_exp,2022.2.2,Win32,60.20832079,,,,,,,,,,,,,,,,,,masks/mask_001.jpg,,,,,,,,,,,,,,,,,,,,,,,,,,,,,,,,,,,,,,,,,,,,,,,,0,4,4,0,1,,,,,,,,,,,,,,,,,,,,,,,,,,,,,,,,,,,,,,,,,
710832,001,2022-11-20_23h51.59.093,Info_measure_main_exp,2022.2.2,Win32,60.20832079,,,,,,,,,,,,,,,,,,,,,,,,,,,,,,7,2.1021,1,,,,,,,,,,,,1,131,5,5,1,1974,present_patch/cong_131_5_a.jpg,absent_patch/patch0001974.jpg,,,,,,,,,,,,,,,,,,,,0.081481481,0.106481481,1,0,0,response1disk,7,0.001851852,0.003703704,1,0,0,center_square,0,6,6,69,1,,,,,,,,,,,,,,,,,,,,,,,
710832,001,2022-11-20_23h51.59.093,Info_measure_main_exp,2022.2.2,Win32,60.20832079,,,,,,,,,,,,,,,,,,masks/mask_004.jpg,,,,,,,,,,,,,,,,,,,,,,,,,,,,,,,,,,,,,,,,,,,0,0,0,3,1,,,,,,,,,,,,,,,,,,,,,,,,,,,,,,,,,,,,,,,,,,,,,,
710832,001,2022-11-20_23h51.59.093,Info_measure_main_exp,2022.2.2,Win32,60.20832079,,,,,,,,,,,,,,,,,,masks/mask_002.jpg,,,,,,,,,,,,,,,,,,,,,,,,,,,,,,,,,,,,,,,,,,,0,1,1,1,1,,,,,,,,,,,,,,,,,,,,,,,,,,,,,,,,,,,,,,,,,,,,,,
710832,001,2022-11-20_23h51.59.093,Info_measure_main_exp,2022.2.2,Win32,60.20832079,,,,,,,,,,,,,,,,,,masks/mask_003.jpg,,,,,,,,,,,,,,,,,,,,,,,,,,,,,,,,,,,,,,,,,,,0,2,2,2,1,,,,,,,,,,,,,,,,,,,,,,,,,,,,,,,,,,,,,,,,,,,,,,
710832,001,2022-11-20_23h51.59.093,Info_measure_main_exp,2022.2.2,Win32,60.20832079,,,,,,,,,,,,,,,,,,masks/mask_001.jpg,,,,,,,,,,,,,,,,,,,,,,,,,,,,,,,,,,,,,,,,,,,0,3,3,0,1,,,,,,,,,,,,,,,,,,,,,,,,,,,,,,,,,,,,,,,,,,,,,,
710832,001,2022-11-20_23h51.59.093,Info_measure_main_exp,2022.2.2,Win32,60.20832079,,,,,,,,,,,,,,,,,,masks/mask_005.jpg,,,,,,,,,,,,,,,,,,,,,,,,,,,,,,,,,,,,,,,,,,,0,4,4,4,1,,,,,,,,,,,,,,,,,,,,,,,,,,,,,,,,,,,,,,,,,,,,,,
710832,001,2022-11-20_23h51.59.093,Info_measure_main_exp,2022.2.2,Win32,60.20832079,,,,,,,,,,,,,,,,,,masks/mask_004.jpg,,,,,,,,,,,,,,,,,,,,,,,,,,,,,,,,,,,,,,,,,,,,,,,,0,0,0,3,1,,,,,,,,,,,,,,,,,,,,,,,,,,,,,,,,,,,,,,,,,
710832,001,2022-11-20_23h51.59.093,Info_measure_main_exp,2022.2.2,Win32,60.20832079,,,,,,,,,,,,,,,,,,masks/mask_001.jpg,,,,,,,,,,,,,,,,,,,,,,,,,,,,,,,,,,,,,,,,,,,,,,,,0,1,1,0,1,,,,,,,,,,,,,,,,,,,,,,,,,,,,,,,,,,,,,,,,,
710832,001,2022-11-20_23h51.59.093,Info_measure_main_exp,2022.2.2,Win32,60.20832079,,,,,,,,,,,,,,,,,,masks/mask_005.jpg,,,,,,,,,,,,,,,,,,,,,,,,,,,,,,,,,,,,,,,,,,,,,,,,0,2,2,4,1,,,,,,,,,,,,,,,,,,,,,,,,,,,,,,,,,,,,,,,,,
710832,001,2022-11-20_23h51.59.093,Info_measure_main_exp,2022.2.2,Win32,60.20832079,,,,,,,,,,,,,,,,,,masks/mask_003.jpg,,,,,,,,,,,,,,,,,,,,,,,,,,,,,,,,,,,,,,,,,,,,,,,,0,3,3,2,1,,,,,,,,,,,,,,,,,,,,,,,,,,,,,,,,,,,,,,,,,
710832,001,2022-11-20_23h51.59.093,Info_measure_main_exp,2022.2.2,Win32,60.20832079,,,,,,,,,,,,,,,,,,masks/mask_002.jpg,,,,,,,,,,,,,,,,,,,,,,,,,,,,,,,,,,,,,,,,,,,,,,,,0,4,4,1,1,,,,,,,,,,,,,,,,,,,,,,,,,,,,,,,,,,,,,,,,,
710832,001,2022-11-20_23h51.59.093,Info_measure_main_exp,2022.2.2,Win32,60.20832079,,,,,,,,,,,,,,,,,,,,,,,,,,,,,,6,0.8676,1,,,,,,,,,,,,0,131,5,5,2298,2274,absent_patch/patch0002298.jpg,absent_patch/patch0002274.jpg,,,,,,,,,,,,,,,,,,,,0.091666667,0.032407407,1,0,0,response1disk,8,0.000925926,0.000925926,1,0,0,center_square,0,7,7,1,1,,,,,,,,,,,,,,,,,,,,,,,
710832,001,2022-11-20_23h51.59.093,Info_measure_main_exp,2022.2.2,Win32,60.20832079,,,,,,,,,,,,,,,,,,masks/mask_003.jpg,,,,,,,,,,,,,,,,,,,,,,,,,,,,,,,,,,,,,,,,,,,0,0,0,2,1,,,,,,,,,,,,,,,,,,,,,,,,,,,,,,,,,,,,,,,,,,,,,,
710832,001,2022-11-20_23h51.59.093,Info_measure_main_exp,2022.2.2,Win32,60.20832079,,,,,,,,,,,,,,,,,,masks/mask_004.jpg,,,,,,,,,,,,,,,,,,,,,,,,,,,,,,,,,,,,,,,,,,,0,1,1,3,1,,,,,,,,,,,,,,,,,,,,,,,,,,,,,,,,,,,,,,,,,,,,,,
710832,001,2022-11-20_23h51.59.093,Info_measure_main_exp,2022.2.2,Win32,60.20832079,,,,,,,,,,,,,,,,,,masks/mask_002.jpg,,,,,,,,,,,,,,,,,,,,,,,,,,,,,,,,,,,,,,,,,,,0,2,2,1,1,,,,,,,,,,,,,,,,,,,,,,,,,,,,,,,,,,,,,,,,,,,,,,
710832,001,2022-11-20_23h51.59.093,Info_measure_main_exp,2022.2.2,Win32,60.20832079,,,,,,,,,,,,,,,,,,masks/mask_001.jpg,,,,,,,,,,,,,,,,,,,,,,,,,,,,,,,,,,,,,,,,,,,0,3,3,0,1,,,,,,,,,,,,,,,,,,,,,,,,,,,,,,,,,,,,,,,,,,,,,,
710832,001,2022-11-20_23h51.59.093,Info_measure_main_exp,2022.2.2,Win32,60.20832079,,,,,,,,,,,,,,,,,,masks/mask_005.jpg,,,,,,,,,,,,,,,,,,,,,,,,,,,,,,,,,,,,,,,,,,,0,4,4,4,1,,,,,,,,,,,,,,,,,,,,,,,,,,,,,,,,,,,,,,,,,,,,,,
710832,001,2022-11-20_23h51.59.093,Info_measure_main_exp,2022.2.2,Win32,60.20832079,,,,,,,,,,,,,,,,,,masks/mask_005.jpg,,,,,,,,,,,,,,,,,,,,,,,,,,,,,,,,,,,,,,,,,,,,,,,,0,0,0,4,1,,,,,,,,,,,,,,,,,,,,,,,,,,,,,,,,,,,,,,,,,
710832,001,2022-11-20_23h51.59.093,Info_measure_main_exp,2022.2.2,Win32,60.20832079,,,,,,,,,,,,,,,,,,masks/mask_002.jpg,,,,,,,,,,,,,,,,,,,,,,,,,,,,,,,,,,,,,,,,,,,,,,,,0,1,1,1,1,,,,,,,,,,,,,,,,,,,,,,,,,,,,,,,,,,,,,,,,,
710832,001,2022-11-20_23h51.59.093,Info_measure_main_exp,2022.2.2,Win32,60.20832079,,,,,,,,,,,,,,,,,,masks/mask_001.jpg,,,,,,,,,,,,,,,,,,,,,,,,,,,,,,,,,,,,,,,,,,,,,,,,0,2,2,0,1,,,,,,,,,,,,,,,,,,,,,,,,,,,,,,,,,,,,,,,,,
710832,001,2022-11-20_23h51.59.093,Info_measure_main_exp,2022.2.2,Win32,60.20832079,,,,,,,,,,,,,,,,,,masks/mask_004.jpg,,,,,,,,,,,,,,,,,,,,,,,,,,,,,,,,,,,,,,,,,,,,,,,,0,3,3,3,1,,,,,,,,,,,,,,,,,,,,,,,,,,,,,,,,,,,,,,,,,
710832,001,2022-11-20_23h51.59.093,Info_measure_main_exp,2022.2.2,Win32,60.20832079,,,,,,,,,,,,,,,,,,masks/mask_003.jpg,,,,,,,,,,,,,,,,,,,,,,,,,,,,,,,,,,,,,,,,,,,,,,,,0,4,4,2,1,,,,,,,,,,,,,,,,,,,,,,,,,,,,,,,,,,,,,,,,,
710832,001,2022-11-20_23h51.59.093,Info_measure_main_exp,2022.2.2,Win32,60.20832079,,,,,,,,,,,,,,,,,,,,,,,,,,,,,,0,1.1845,1,,,,,,,,,,,,0,131,5,5,2154,2154,absent_patch/patch0002154.jpg,absent_patch/patch0002154.jpg,,,,,,,,,,,,,,,,,,,,-0.065740741,0.090740741,1,0,0,response7disk,9,-0.008333333,0.000925926,1,0,0,center_square,0,8,8,89,1,,,,,,,,,,,,,,,,,,,,,,,
710832,001,2022-11-20_23h51.59.093,Info_measure_main_exp,2022.2.2,Win32,60.20832079,,,,,,,,,,,,,,,,,,masks/mask_005.jpg,,,,,,,,,,,,,,,,,,,,,,,,,,,,,,,,,,,,,,,,,,,0,0,0,4,1,,,,,,,,,,,,,,,,,,,,,,,,,,,,,,,,,,,,,,,,,,,,,,
710832,001,2022-11-20_23h51.59.093,Info_measure_main_exp,2022.2.2,Win32,60.20832079,,,,,,,,,,,,,,,,,,masks/mask_002.jpg,,,,,,,,,,,,,,,,,,,,,,,,,,,,,,,,,,,,,,,,,,,0,1,1,1,1,,,,,,,,,,,,,,,,,,,,,,,,,,,,,,,,,,,,,,,,,,,,,,
710832,001,2022-11-20_23h51.59.093,Info_measure_main_exp,2022.2.2,Win32,60.20832079,,,,,,,,,,,,,,,,,,masks/mask_001.jpg,,,,,,,,,,,,,,,,,,,,,,,,,,,,,,,,,,,,,,,,,,,0,2,2,0,1,,,,,,,,,,,,,,,,,,,,,,,,,,,,,,,,,,,,,,,,,,,,,,
710832,001,2022-11-20_23h51.59.093,Info_measure_main_exp,2022.2.2,Win32,60.20832079,,,,,,,,,,,,,,,,,,masks/mask_003.jpg,,,,,,,,,,,,,,,,,,,,,,,,,,,,,,,,,,,,,,,,,,,0,3,3,2,1,,,,,,,,,,,,,,,,,,,,,,,,,,,,,,,,,,,,,,,,,,,,,,
710832,001,2022-11-20_23h51.59.093,Info_measure_main_exp,2022.2.2,Win32,60.20832079,,,,,,,,,,,,,,,,,,masks/mask_004.jpg,,,,,,,,,,,,,,,,,,,,,,,,,,,,,,,,,,,,,,,,,,,0,4,4,3,1,,,,,,,,,,,,,,,,,,,,,,,,,,,,,,,,,,,,,,,,,,,,,,
710832,001,2022-11-20_23h51.59.093,Info_measure_main_exp,2022.2.2,Win32,60.20832079,,,,,,,,,,,,,,,,,,masks/mask_005.jpg,,,,,,,,,,,,,,,,,,,,,,,,,,,,,,,,,,,,,,,,,,,,,,,,0,0,0,4,1,,,,,,,,,,,,,,,,,,,,,,,,,,,,,,,,,,,,,,,,,
710832,001,2022-11-20_23h51.59.093,Info_measure_main_exp,2022.2.2,Win32,60.20832079,,,,,,,,,,,,,,,,,,masks/mask_002.jpg,,,,,,,,,,,,,,,,,,,,,,,,,,,,,,,,,,,,,,,,,,,,,,,,0,1,1,1,1,,,,,,,,,,,,,,,,,,,,,,,,,,,,,,,,,,,,,,,,,
710832,001,2022-11-20_23h51.59.093,Info_measure_main_exp,2022.2.2,Win32,60.20832079,,,,,,,,,,,,,,,,,,masks/mask_004.jpg,,,,,,,,,,,,,,,,,,,,,,,,,,,,,,,,,,,,,,,,,,,,,,,,0,2,2,3,1,,,,,,,,,,,,,,,,,,,,,,,,,,,,,,,,,,,,,,,,,
710832,001,2022-11-20_23h51.59.093,Info_measure_main_exp,2022.2.2,Win32,60.20832079,,,,,,,,,,,,,,,,,,masks/mask_003.jpg,,,,,,,,,,,,,,,,,,,,,,,,,,,,,,,,,,,,,,,,,,,,,,,,0,3,3,2,1,,,,,,,,,,,,,,,,,,,,,,,,,,,,,,,,,,,,,,,,,
710832,001,2022-11-20_23h51.59.093,Info_measure_main_exp,2022.2.2,Win32,60.20832079,,,,,,,,,,,,,,,,,,masks/mask_001.jpg,,,,,,,,,,,,,,,,,,,,,,,,,,,,,,,,,,,,,,,,,,,,,,,,0,4,4,0,1,,,,,,,,,,,,,,,,,,,,,,,,,,,,,,,,,,,,,,,,,
710832,001,2022-11-20_23h51.59.093,Info_measure_main_exp,2022.2.2,Win32,60.20832079,,,,,,,,,,,,,,,,,,,,,,,,,,,,,,4,2.6527,1,,,,,,,,,,,,0,131,5,5,2082,2298,absent_patch/patch0002082.jpg,absent_patch/patch0002298.jpg,,,,,,,,,,,,,,,,,,,,0.005555556,-0.046296296,1,0,0,response3disk,10,-0.00462963,-0.00462963,1,0,0,center_square,0,9,9,107,1,,,,,,,,,,,,,,,,,,,,,,,
710832,001,2022-11-20_23h51.59.093,Info_measure_main_exp,2022.2.2,Win32,60.20832079,,,,,,,,,,,,,,,,,,masks/mask_003.jpg,,,,,,,,,,,,,,,,,,,,,,,,,,,,,,,,,,,,,,,,,,,0,0,0,2,1,,,,,,,,,,,,,,,,,,,,,,,,,,,,,,,,,,,,,,,,,,,,,,
710832,001,2022-11-20_23h51.59.093,Info_measure_main_exp,2022.2.2,Win32,60.20832079,,,,,,,,,,,,,,,,,,masks/mask_002.jpg,,,,,,,,,,,,,,,,,,,,,,,,,,,,,,,,,,,,,,,,,,,0,1,1,1,1,,,,,,,,,,,,,,,,,,,,,,,,,,,,,,,,,,,,,,,,,,,,,,
710832,001,2022-11-20_23h51.59.093,Info_measure_main_exp,2022.2.2,Win32,60.20832079,,,,,,,,,,,,,,,,,,masks/mask_004.jpg,,,,,,,,,,,,,,,,,,,,,,,,,,,,,,,,,,,,,,,,,,,0,2,2,3,1,,,,,,,,,,,,,,,,,,,,,,,,,,,,,,,,,,,,,,,,,,,,,,
710832,001,2022-11-20_23h51.59.093,Info_measure_main_exp,2022.2.2,Win32,60.20832079,,,,,,,,,,,,,,,,,,masks/mask_001.jpg,,,,,,,,,,,,,,,,,,,,,,,,,,,,,,,,,,,,,,,,,,,0,3,3,0,1,,,,,,,,,,,,,,,,,,,,,,,,,,,,,,,,,,,,,,,,,,,,,,
710832,001,2022-11-20_23h51.59.093,Info_measure_main_exp,2022.2.2,Win32,60.20832079,,,,,,,,,,,,,,,,,,masks/mask_005.jpg,,,,,,,,,,,,,,,,,,,,,,,,,,,,,,,,,,,,,,,,,,,0,4,4,4,1,,,,,,,,,,,,,,,,,,,,,,,,,,,,,,,,,,,,,,,,,,,,,,
710832,001,2022-11-20_23h51.59.093,Info_measure_main_exp,2022.2.2,Win32,60.20832079,,,,,,,,,,,,,,,,,,masks/mask_001.jpg,,,,,,,,,,,,,,,,,,,,,,,,,,,,,,,,,,,,,,,,,,,,,,,,0,0,0,0,1,,,,,,,,,,,,,,,,,,,,,,,,,,,,,,,,,,,,,,,,,
710832,001,2022-11-20_23h51.59.093,Info_measure_main_exp,2022.2.2,Win32,60.20832079,,,,,,,,,,,,,,,,,,masks/mask_005.jpg,,,,,,,,,,,,,,,,,,,,,,,,,,,,,,,,,,,,,,,,,,,,,,,,0,1,1,4,1,,,,,,,,,,,,,,,,,,,,,,,,,,,,,,,,,,,,,,,,,
710832,001,2022-11-20_23h51.59.093,Info_measure_main_exp,2022.2.2,Win32,60.20832079,,,,,,,,,,,,,,,,,,masks/mask_003.jpg,,,,,,,,,,,,,,,,,,,,,,,,,,,,,,,,,,,,,,,,,,,,,,,,0,2,2,2,1,,,,,,,,,,,,,,,,,,,,,,,,,,,,,,,,,,,,,,,,,
710832,001,2022-11-20_23h51.59.093,Info_measure_main_exp,2022.2.2,Win32,60.20832079,,,,,,,,,,,,,,,,,,masks/mask_002.jpg,,,,,,,,,,,,,,,,,,,,,,,,,,,,,,,,,,,,,,,,,,,,,,,,0,3,3,1,1,,,,,,,,,,,,,,,,,,,,,,,,,,,,,,,,,,,,,,,,,
710832,001,2022-11-20_23h51.59.093,Info_measure_main_exp,2022.2.2,Win32,60.20832079,,,,,,,,,,,,,,,,,,masks/mask_004.jpg,,,,,,,,,,,,,,,,,,,,,,,,,,,,,,,,,,,,,,,,,,,,,,,,0,4,4,3,1,,,,,,,,,,,,,,,,,,,,,,,,,,,,,,,,,,,,,,,,,
710832,001,2022-11-20_23h51.59.093,Info_measure_main_exp,2022.2.2,Win32,60.20832079,,,,,,,,,,,,,,,,,,,,,,,,,,,,,,7,2.4689,1,,,,,,,,,,,,0,131,5,5,1950,2166,absent_patch/patch0001950.jpg,absent_patch/patch0002166.jpg,,,,,,,,,,,,,,,,,,,,0.083333333,0.110185185,1,0,0,response1disk,11,0.006481481,0.003703704,1,0,0,center_square,0,10,10,0,1,,,,,,,,,,,,,,,,,,,,,,,
710832,001,2022-11-20_23h51.59.093,Info_measure_main_exp,2022.2.2,Win32,60.20832079,,,,,,,,,,,,,,,,,,masks/mask_002.jpg,,,,,,,,,,,,,,,,,,,,,,,,,,,,,,,,,,,,,,,,,,,0,0,0,1,1,,,,,,,,,,,,,,,,,,,,,,,,,,,,,,,,,,,,,,,,,,,,,,
710832,001,2022-11-20_23h51.59.093,Info_measure_main_exp,2022.2.2,Win32,60.20832079,,,,,,,,,,,,,,,,,,masks/mask_004.jpg,,,,,,,,,,,,,,,,,,,,,,,,,,,,,,,,,,,,,,,,,,,0,1,1,3,1,,,,,,,,,,,,,,,,,,,,,,,,,,,,,,,,,,,,,,,,,,,,,,
710832,001,2022-11-20_23h51.59.093,Info_measure_main_exp,2022.2.2,Win32,60.20832079,,,,,,,,,,,,,,,,,,masks/mask_001.jpg,,,,,,,,,,,,,,,,,,,,,,,,,,,,,,,,,,,,,,,,,,,0,2,2,0,1,,,,,,,,,,,,,,,,,,,,,,,,,,,,,,,,,,,,,,,,,,,,,,
710832,001,2022-11-20_23h51.59.093,Info_measure_main_exp,2022.2.2,Win32,60.20832079,,,,,,,,,,,,,,,,,,masks/mask_005.jpg,,,,,,,,,,,,,,,,,,,,,,,,,,,,,,,,,,,,,,,,,,,0,3,3,4,1,,,,,,,,,,,,,,,,,,,,,,,,,,,,,,,,,,,,,,,,,,,,,,
710832,001,2022-11-20_23h51.59.093,Info_measure_main_exp,2022.2.2,Win32,60.20832079,,,,,,,,,,,,,,,,,,masks/mask_003.jpg,,,,,,,,,,,,,,,,,,,,,,,,,,,,,,,,,,,,,,,,,,,0,4,4,2,1,,,,,,,,,,,,,,,,,,,,,,,,,,,,,,,,,,,,,,,,,,,,,,
710832,001,2022-11-20_23h51.59.093,Info_measure_main_exp,2022.2.2,Win32,60.20832079,,,,,,,,,,,,,,,,,,masks/mask_001.jpg,,,,,,,,,,,,,,,,,,,,,,,,,,,,,,,,,,,,,,,,,,,,,,,,0,0,0,0,1,,,,,,,,,,,,,,,,,,,,,,,,,,,,,,,,,,,,,,,,,
710832,001,2022-11-20_23h51.59.093,Info_measure_main_exp,2022.2.2,Win32,60.20832079,,,,,,,,,,,,,,,,,,masks/mask_003.jpg,,,,,,,,,,,,,,,,,,,,,,,,,,,,,,,,,,,,,,,,,,,,,,,,0,1,1,2,1,,,,,,,,,,,,,,,,,,,,,,,,,,,,,,,,,,,,,,,,,
710832,001,2022-11-20_23h51.59.093,Info_measure_main_exp,2022.2.2,Win32,60.20832079,,,,,,,,,,,,,,,,,,masks/mask_004.jpg,,,,,,,,,,,,,,,,,,,,,,,,,,,,,,,,,,,,,,,,,,,,,,,,0,2,2,3,1,,,,,,,,,,,,,,,,,,,,,,,,,,,,,,,,,,,,,,,,,
710832,001,2022-11-20_23h51.59.093,Info_measure_main_exp,2022.2.2,Win32,60.20832079,,,,,,,,,,,,,,,,,,masks/mask_002.jpg,,,,,,,,,,,,,,,,,,,,,,,,,,,,,,,,,,,,,,,,,,,,,,,,0,3,3,1,1,,,,,,,,,,,,,,,,,,,,,,,,,,,,,,,,,,,,,,,,,
710832,001,2022-11-20_23h51.59.093,Info_measure_main_exp,2022.2.2,Win32,60.20832079,,,,,,,,,,,,,,,,,,masks/mask_005.jpg,,,,,,,,,,,,,,,,,,,,,,,,,,,,,,,,,,,,,,,,,,,,,,,,0,4,4,4,1,,,,,,,,,,,,,,,,,,,,,,,,,,,,,,,,,,,,,,,,,
710832,001,2022-11-20_23h51.59.093,Info_measure_main_exp,2022.2.2,Win32,60.20832079,,,,,,,,,,,,,,,,,,,,,,,,,,,,,,1,1.0343,1,,,,,,,,,,,,1,131,5,5,1,1,present_patch/cong_131_5_a.jpg,present_patch/cong_131_5_a.jpg,,,,,,,,,,,,,,,,,,,,-0.137962963,0.063888889,1,0,0,response7disk,12,-0.00462963,0.005555556,1,0,0,center_square,0,11,11,30,1,,,,,,,,,,,,,,,,,,,,,,,
710832,001,2022-11-20_23h51.59.093,Info_measure_main_exp,2022.2.2,Win32,60.20832079,,,,,,,,,,,,,,,,,,masks/mask_003.jpg,,,,,,,,,,,,,,,,,,,,,,,,,,,,,,,,,,,,,,,,,,,0,0,0,2,1,,,,,,,,,,,,,,,,,,,,,,,,,,,,,,,,,,,,,,,,,,,,,,
710832,001,2022-11-20_23h51.59.093,Info_measure_main_exp,2022.2.2,Win32,60.20832079,,,,,,,,,,,,,,,,,,masks/mask_001.jpg,,,,,,,,,,,,,,,,,,,,,,,,,,,,,,,,,,,,,,,,,,,0,1,1,0,1,,,,,,,,,,,,,,,,,,,,,,,,,,,,,,,,,,,,,,,,,,,,,,
710832,001,2022-11-20_23h51.59.093,Info_measure_main_exp,2022.2.2,Win32,60.20832079,,,,,,,,,,,,,,,,,,masks/mask_005.jpg,,,,,,,,,,,,,,,,,,,,,,,,,,,,,,,,,,,,,,,,,,,0,2,2,4,1,,,,,,,,,,,,,,,,,,,,,,,,,,,,,,,,,,,,,,,,,,,,,,
710832,001,2022-11-20_23h51.59.093,Info_measure_main_exp,2022.2.2,Win32,60.20832079,,,,,,,,,,,,,,,,,,masks/mask_004.jpg,,,,,,,,,,,,,,,,,,,,,,,,,,,,,,,,,,,,,,,,,,,0,3,3,3,1,,,,,,,,,,,,,,,,,,,,,,,,,,,,,,,,,,,,,,,,,,,,,,
710832,001,2022-11-20_23h51.59.093,Info_measure_main_exp,2022.2.2,Win32,60.20832079,,,,,,,,,,,,,,,,,,masks/mask_002.jpg,,,,,,,,,,,,,,,,,,,,,,,,,,,,,,,,,,,,,,,,,,,0,4,4,1,1,,,,,,,,,,,,,,,,,,,,,,,,,,,,,,,,,,,,,,,,,,,,,,
710832,001,2022-11-20_23h51.59.093,Info_measure_main_exp,2022.2.2,Win32,60.20832079,,,,,,,,,,,,,,,,,,masks/mask_005.jpg,,,,,,,,,,,,,,,,,,,,,,,,,,,,,,,,,,,,,,,,,,,,,,,,0,0,0,4,1,,,,,,,,,,,,,,,,,,,,,,,,,,,,,,,,,,,,,,,,,
710832,001,2022-11-20_23h51.59.093,Info_measure_main_exp,2022.2.2,Win32,60.20832079,,,,,,,,,,,,,,,,,,masks/mask_004.jpg,,,,,,,,,,,,,,,,,,,,,,,,,,,,,,,,,,,,,,,,,,,,,,,,0,1,1,3,1,,,,,,,,,,,,,,,,,,,,,,,,,,,,,,,,,,,,,,,,,
710832,001,2022-11-20_23h51.59.093,Info_measure_main_exp,2022.2.2,Win32,60.20832079,,,,,,,,,,,,,,,,,,masks/mask_003.jpg,,,,,,,,,,,,,,,,,,,,,,,,,,,,,,,,,,,,,,,,,,,,,,,,0,2,2,2,1,,,,,,,,,,,,,,,,,,,,,,,,,,,,,,,,,,,,,,,,,
710832,001,2022-11-20_23h51.59.093,Info_measure_main_exp,2022.2.2,Win32,60.20832079,,,,,,,,,,,,,,,,,,masks/mask_001.jpg,,,,,,,,,,,,,,,,,,,,,,,,,,,,,,,,,,,,,,,,,,,,,,,,0,3,3,0,1,,,,,,,,,,,,,,,,,,,,,,,,,,,,,,,,,,,,,,,,,
710832,001,2022-11-20_23h51.59.093,Info_measure_main_exp,2022.2.2,Win32,60.20832079,,,,,,,,,,,,,,,,,,masks/mask_002.jpg,,,,,,,,,,,,,,,,,,,,,,,,,,,,,,,,,,,,,,,,,,,,,,,,0,4,4,1,1,,,,,,,,,,,,,,,,,,,,,,,,,,,,,,,,,,,,,,,,,
710832,001,2022-11-20_23h51.59.093,Info_measure_main_exp,2022.2.2,Win32,60.20832079,,,,,,,,,,,,,,,,,,,,,,,,,,,,,,6,0.7677,1,,,,,,,,,,,,0,131,5,5,2238,2214,absent_patch/patch0002238.jpg,absent_patch/patch0002214.jpg,,,,,,,,,,,,,,,,,,,,0.073148148,0.037037037,1,0,0,response1disk,13,0.003703704,-0.00462963,1,0,0,center_square,0,12,12,81,1,,,,,,,,,,,,,,,,,,,,,,,
710832,001,2022-11-20_23h51.59.093,Info_measure_main_exp,2022.2.2,Win32,60.20832079,,,,,,,,,,,,,,,,,,masks/mask_004.jpg,,,,,,,,,,,,,,,,,,,,,,,,,,,,,,,,,,,,,,,,,,,0,0,0,3,1,,,,,,,,,,,,,,,,,,,,,,,,,,,,,,,,,,,,,,,,,,,,,,
710832,001,2022-11-20_23h51.59.093,Info_measure_main_exp,2022.2.2,Win32,60.20832079,,,,,,,,,,,,,,,,,,masks/mask_001.jpg,,,,,,,,,,,,,,,,,,,,,,,,,,,,,,,,,,,,,,,,,,,0,1,1,0,1,,,,,,,,,,,,,,,,,,,,,,,,,,,,,,,,,,,,,,,,,,,,,,
710832,001,2022-11-20_23h51.59.093,Info_measure_main_exp,2022.2.2,Win32,60.20832079,,,,,,,,,,,,,,,,,,masks/mask_002.jpg,,,,,,,,,,,,,,,,,,,,,,,,,,,,,,,,,,,,,,,,,,,0,2,2,1,1,,,,,,,,,,,,,,,,,,,,,,,,,,,,,,,,,,,,,,,,,,,,,,
710832,001,2022-11-20_23h51.59.093,Info_measure_main_exp,2022.2.2,Win32,60.20832079,,,,,,,,,,,,,,,,,,masks/mask_005.jpg,,,,,,,,,,,,,,,,,,,,,,,,,,,,,,,,,,,,,,,,,,,0,3,3,4,1,,,,,,,,,,,,,,,,,,,,,,,,,,,,,,,,,,,,,,,,,,,,,,
710832,001,2022-11-20_23h51.59.093,Info_measure_main_exp,2022.2.2,Win32,60.20832079,,,,,,,,,,,,,,,,,,masks/mask_003.jpg,,,,,,,,,,,,,,,,,,,,,,,,,,,,,,,,,,,,,,,,,,,0,4,4,2,1,,,,,,,,,,,,,,,,,,,,,,,,,,,,,,,,,,,,,,,,,,,,,,
710832,001,2022-11-20_23h51.59.093,Info_measure_main_exp,2022.2.2,Win32,60.20832079,,,,,,,,,,,,,,,,,,masks/mask_001.jpg,,,,,,,,,,,,,,,,,,,,,,,,,,,,,,,,,,,,,,,,,,,,,,,,0,0,0,0,1,,,,,,,,,,,,,,,,,,,,,,,,,,,,,,,,,,,,,,,,,
710832,001,2022-11-20_23h51.59.093,Info_measure_main_exp,2022.2.2,Win32,60.20832079,,,,,,,,,,,,,,,,,,masks/mask_003.jpg,,,,,,,,,,,,,,,,,,,,,,,,,,,,,,,,,,,,,,,,,,,,,,,,0,1,1,2,1,,,,,,,,,,,,,,,,,,,,,,,,,,,,,,,,,,,,,,,,,
710832,001,2022-11-20_23h51.59.093,Info_measure_main_exp,2022.2.2,Win32,60.20832079,,,,,,,,,,,,,,,,,,masks/mask_004.jpg,,,,,,,,,,,,,,,,,,,,,,,,,,,,,,,,,,,,,,,,,,,,,,,,0,2,2,3,1,,,,,,,,,,,,,,,,,,,,,,,,,,,,,,,,,,,,,,,,,
710832,001,2022-11-20_23h51.59.093,Info_measure_main_exp,2022.2.2,Win32,60.20832079,,,,,,,,,,,,,,,,,,masks/mask_005.jpg,,,,,,,,,,,,,,,,,,,,,,,,,,,,,,,,,,,,,,,,,,,,,,,,0,3,3,4,1,,,,,,,,,,,,,,,,,,,,,,,,,,,,,,,,,,,,,,,,,
710832,001,2022-11-20_23h51.59.093,Info_measure_main_exp,2022.2.2,Win32,60.20832079,,,,,,,,,,,,,,,,,,masks/mask_002.jpg,,,,,,,,,,,,,,,,,,,,,,,,,,,,,,,,,,,,,,,,,,,,,,,,0,4,4,1,1,,,,,,,,,,,,,,,,,,,,,,,,,,,,,,,,,,,,,,,,,
710832,001,2022-11-20_23h51.59.093,Info_measure_main_exp,2022.2.2,Win32,60.20832079,,,,,,,,,,,,,,,,,,,,,,,,,,,,,,7,0.8176,1,,,,,,,,,,,,0,131,5,5,2082,2250,absent_patch/patch0002082.jpg,absent_patch/patch0002250.jpg,,,,,,,,,,,,,,,,,,,,0.048148148,0.065740741,1,0,0,response1disk,14,0.007407407,-0.005555556,1,0,0,center_square,0,13,13,3,1,,,,,,,,,,,,,,,,,,,,,,,
710832,001,2022-11-20_23h51.59.093,Info_measure_main_exp,2022.2.2,Win32,60.20832079,,,,,,,,,,,,,,,,,,masks/mask_005.jpg,,,,,,,,,,,,,,,,,,,,,,,,,,,,,,,,,,,,,,,,,,,0,0,0,4,1,,,,,,,,,,,,,,,,,,,,,,,,,,,,,,,,,,,,,,,,,,,,,,
710832,001,2022-11-20_23h51.59.093,Info_measure_main_exp,2022.2.2,Win32,60.20832079,,,,,,,,,,,,,,,,,,masks/mask_002.jpg,,,,,,,,,,,,,,,,,,,,,,,,,,,,,,,,,,,,,,,,,,,0,1,1,1,1,,,,,,,,,,,,,,,,,,,,,,,,,,,,,,,,,,,,,,,,,,,,,,
710832,001,2022-11-20_23h51.59.093,Info_measure_main_exp,2022.2.2,Win32,60.20832079,,,,,,,,,,,,,,,,,,masks/mask_003.jpg,,,,,,,,,,,,,,,,,,,,,,,,,,,,,,,,,,,,,,,,,,,0,2,2,2,1,,,,,,,,,,,,,,,,,,,,,,,,,,,,,,,,,,,,,,,,,,,,,,
710832,001,2022-11-20_23h51.59.093,Info_measure_main_exp,2022.2.2,Win32,60.20832079,,,,,,,,,,,,,,,,,,masks/mask_001.jpg,,,,,,,,,,,,,,,,,,,,,,,,,,,,,,,,,,,,,,,,,,,0,3,3,0,1,,,,,,,,,,,,,,,,,,,,,,,,,,,,,,,,,,,,,,,,,,,,,,
710832,001,2022-11-20_23h51.59.093,Info_measure_main_exp,2022.2.2,Win32,60.20832079,,,,,,,,,,,,,,,,,,masks/mask_004.jpg,,,,,,,,,,,,,,,,,,,,,,,,,,,,,,,,,,,,,,,,,,,0,4,4,3,1,,,,,,,,,,,,,,,,,,,,,,,,,,,,,,,,,,,,,,,,,,,,,,
710832,001,2022-11-20_23h51.59.093,Info_measure_main_exp,2022.2.2,Win32,60.20832079,,,,,,,,,,,,,,,,,,masks/mask_001.jpg,,,,,,,,,,,,,,,,,,,,,,,,,,,,,,,,,,,,,,,,,,,,,,,,0,0,0,0,1,,,,,,,,,,,,,,,,,,,,,,,,,,,,,,,,,,,,,,,,,
710832,001,2022-11-20_23h51.59.093,Info_measure_main_exp,2022.2.2,Win32,60.20832079,,,,,,,,,,,,,,,,,,masks/mask_003.jpg,,,,,,,,,,,,,,,,,,,,,,,,,,,,,,,,,,,,,,,,,,,,,,,,0,1,1,2,1,,,,,,,,,,,,,,,,,,,,,,,,,,,,,,,,,,,,,,,,,
710832,001,2022-11-20_23h51.59.093,Info_measure_main_exp,2022.2.2,Win32,60.20832079,,,,,,,,,,,,,,,,,,masks/mask_004.jpg,,,,,,,,,,,,,,,,,,,,,,,,,,,,,,,,,,,,,,,,,,,,,,,,0,2,2,3,1,,,,,,,,,,,,,,,,,,,,,,,,,,,,,,,,,,,,,,,,,
710832,001,2022-11-20_23h51.59.093,Info_measure_main_exp,2022.2.2,Win32,60.20832079,,,,,,,,,,,,,,,,,,masks/mask_005.jpg,,,,,,,,,,,,,,,,,,,,,,,,,,,,,,,,,,,,,,,,,,,,,,,,0,3,3,4,1,,,,,,,,,,,,,,,,,,,,,,,,,,,,,,,,,,,,,,,,,
710832,001,2022-11-20_23h51.59.093,Info_measure_main_exp,2022.2.2,Win32,60.20832079,,,,,,,,,,,,,,,,,,masks/mask_002.jpg,,,,,,,,,,,,,,,,,,,,,,,,,,,,,,,,,,,,,,,,,,,,,,,,0,4,4,1,1,,,,,,,,,,,,,,,,,,,,,,,,,,,,,,,,,,,,,,,,,
710832,001,2022-11-20_23h51.59.093,Info_measure_main_exp,2022.2.2,Win32,60.20832079,,,,,,,,,,,,,,,,,,,,,,,,,,,,,,5,0.9845,1,,,,,,,,,,,,0,131,5,5,2142,2082,absent_patch/patch0002142.jpg,absent_patch/patch0002082.jpg,,,,,,,,,,,,,,,,,,,,0.105555556,-0.040740741,1,0,0,response3disk,15,0.007407407,-0.007407407,1,0,0,center_square,0,14,14,88,1,,,,,,,,,,,,,,,,,,,,,,,
710832,001,2022-11-20_23h51.59.093,Info_measure_main_exp,2022.2.2,Win32,60.20832079,,,,,,,,,,,,,,,,,,masks/mask_005.jpg,,,,,,,,,,,,,,,,,,,,,,,,,,,,,,,,,,,,,,,,,,,0,0,0,4,1,,,,,,,,,,,,,,,,,,,,,,,,,,,,,,,,,,,,,,,,,,,,,,
710832,001,2022-11-20_23h51.59.093,Info_measure_main_exp,2022.2.2,Win32,60.20832079,,,,,,,,,,,,,,,,,,masks/mask_002.jpg,,,,,,,,,,,,,,,,,,,,,,,,,,,,,,,,,,,,,,,,,,,0,1,1,1,1,,,,,,,,,,,,,,,,,,,,,,,,,,,,,,,,,,,,,,,,,,,,,,
710832,001,2022-11-20_23h51.59.093,Info_measure_main_exp,2022.2.2,Win32,60.20832079,,,,,,,,,,,,,,,,,,masks/mask_003.jpg,,,,,,,,,,,,,,,,,,,,,,,,,,,,,,,,,,,,,,,,,,,0,2,2,2,1,,,,,,,,,,,,,,,,,,,,,,,,,,,,,,,,,,,,,,,,,,,,,,
710832,001,2022-11-20_23h51.59.093,Info_measure_main_exp,2022.2.2,Win32,60.20832079,,,,,,,,,,,,,,,,,,masks/mask_001.jpg,,,,,,,,,,,,,,,,,,,,,,,,,,,,,,,,,,,,,,,,,,,0,3,3,0,1,,,,,,,,,,,,,,,,,,,,,,,,,,,,,,,,,,,,,,,,,,,,,,
710832,001,2022-11-20_23h51.59.093,Info_measure_main_exp,2022.2.2,Win32,60.20832079,,,,,,,,,,,,,,,,,,masks/mask_004.jpg,,,,,,,,,,,,,,,,,,,,,,,,,,,,,,,,,,,,,,,,,,,0,4,4,3,1,,,,,,,,,,,,,,,,,,,,,,,,,,,,,,,,,,,,,,,,,,,,,,
710832,001,2022-11-20_23h51.59.093,Info_measure_main_exp,2022.2.2,Win32,60.20832079,,,,,,,,,,,,,,,,,,masks/mask_003.jpg,,,,,,,,,,,,,,,,,,,,,,,,,,,,,,,,,,,,,,,,,,,,,,,,0,0,0,2,1,,,,,,,,,,,,,,,,,,,,,,,,,,,,,,,,,,,,,,,,,
710832,001,2022-11-20_23h51.59.093,Info_measure_main_exp,2022.2.2,Win32,60.20832079,,,,,,,,,,,,,,,,,,masks/mask_004.jpg,,,,,,,,,,,,,,,,,,,,,,,,,,,,,,,,,,,,,,,,,,,,,,,,0,1,1,3,1,,,,,,,,,,,,,,,,,,,,,,,,,,,,,,,,,,,,,,,,,
710832,001,2022-11-20_23h51.59.093,Info_measure_main_exp,2022.2.2,Win32,60.20832079,,,,,,,,,,,,,,,,,,masks/mask_005.jpg,,,,,,,,,,,,,,,,,,,,,,,,,,,,,,,,,,,,,,,,,,,,,,,,0,2,2,4,1,,,,,,,,,,,,,,,,,,,,,,,,,,,,,,,,,,,,,,,,,
710832,001,2022-11-20_23h51.59.093,Info_measure_main_exp,2022.2.2,Win32,60.20832079,,,,,,,,,,,,,,,,,,masks/mask_002.jpg,,,,,,,,,,,,,,,,,,,,,,,,,,,,,,,,,,,,,,,,,,,,,,,,0,3,3,1,1,,,,,,,,,,,,,,,,,,,,,,,,,,,,,,,,,,,,,,,,,
710832,001,2022-11-20_23h51.59.093,Info_measure_main_exp,2022.2.2,Win32,60.20832079,,,,,,,,,,,,,,,,,,masks/mask_001.jpg,,,,,,,,,,,,,,,,,,,,,,,,,,,,,,,,,,,,,,,,,,,,,,,,0,4,4,0,1,,,,,,,,,,,,,,,,,,,,,,,,,,,,,,,,,,,,,,,,,
710832,001,2022-11-20_23h51.59.093,Info_measure_main_exp,2022.2.2,Win32,60.20832079,,,,,,,,,,,,,,,,,,,,,,,,,,,,,,5,0.8008,1,,,,,,,,,,,,0,131,5,5,2142,2154,absent_patch/patch0002142.jpg,absent_patch/patch0002154.jpg,,,,,,,,,,,,,,,,,,,,0.10462963,-0.025925926,1,0,0,response3disk,16,-0.001851852,-0.002777778,1,0,0,center_square,0,15,15,9,1,,,,,,,,,,,,,,,,,,,,,,,
710832,001,2022-11-20_23h51.59.093,Info_measure_main_exp,2022.2.2,Win32,60.20832079,,,,,,,,,,,,,,,,,,masks/mask_004.jpg,,,,,,,,,,,,,,,,,,,,,,,,,,,,,,,,,,,,,,,,,,,0,0,0,3,1,,,,,,,,,,,,,,,,,,,,,,,,,,,,,,,,,,,,,,,,,,,,,,
710832,001,2022-11-20_23h51.59.093,Info_measure_main_exp,2022.2.2,Win32,60.20832079,,,,,,,,,,,,,,,,,,masks/mask_005.jpg,,,,,,,,,,,,,,,,,,,,,,,,,,,,,,,,,,,,,,,,,,,0,1,1,4,1,,,,,,,,,,,,,,,,,,,,,,,,,,,,,,,,,,,,,,,,,,,,,,
710832,001,2022-11-20_23h51.59.093,Info_measure_main_exp,2022.2.2,Win32,60.20832079,,,,,,,,,,,,,,,,,,masks/mask_002.jpg,,,,,,,,,,,,,,,,,,,,,,,,,,,,,,,,,,,,,,,,,,,0,2,2,1,1,,,,,,,,,,,,,,,,,,,,,,,,,,,,,,,,,,,,,,,,,,,,,,
710832,001,2022-11-20_23h51.59.093,Info_measure_main_exp,2022.2.2,Win32,60.20832079,,,,,,,,,,,,,,,,,,masks/mask_003.jpg,,,,,,,,,,,,,,,,,,,,,,,,,,,,,,,,,,,,,,,,,,,0,3,3,2,1,,,,,,,,,,,,,,,,,,,,,,,,,,,,,,,,,,,,,,,,,,,,,,
710832,001,2022-11-20_23h51.59.093,Info_measure_main_exp,2022.2.2,Win32,60.20832079,,,,,,,,,,,,,,,,,,masks/mask_001.jpg,,,,,,,,,,,,,,,,,,,,,,,,,,,,,,,,,,,,,,,,,,,0,4,4,0,1,,,,,,,,,,,,,,,,,,,,,,,,,,,,,,,,,,,,,,,,,,,,,,
710832,001,2022-11-20_23h51.59.093,Info_measure_main_exp,2022.2.2,Win32,60.20832079,,,,,,,,,,,,,,,,,,masks/mask_002.jpg,,,,,,,,,,,,,,,,,,,,,,,,,,,,,,,,,,,,,,,,,,,,,,,,0,0,0,1,1,,,,,,,,,,,,,,,,,,,,,,,,,,,,,,,,,,,,,,,,,
710832,001,2022-11-20_23h51.59.093,Info_measure_main_exp,2022.2.2,Win32,60.20832079,,,,,,,,,,,,,,,,,,masks/mask_003.jpg,,,,,,,,,,,,,,,,,,,,,,,,,,,,,,,,,,,,,,,,,,,,,,,,0,1,1,2,1,,,,,,,,,,,,,,,,,,,,,,,,,,,,,,,,,,,,,,,,,
710832,001,2022-11-20_23h51.59.093,Info_measure_main_exp,2022.2.2,Win32,60.20832079,,,,,,,,,,,,,,,,,,masks/mask_001.jpg,,,,,,,,,,,,,,,,,,,,,,,,,,,,,,,,,,,,,,,,,,,,,,,,0,2,2,0,1,,,,,,,,,,,,,,,,,,,,,,,,,,,,,,,,,,,,,,,,,
710832,001,2022-11-20_23h51.59.093,Info_measure_main_exp,2022.2.2,Win32,60.20832079,,,,,,,,,,,,,,,,,,masks/mask_004.jpg,,,,,,,,,,,,,,,,,,,,,,,,,,,,,,,,,,,,,,,,,,,,,,,,0,3,3,3,1,,,,,,,,,,,,,,,,,,,,,,,,,,,,,,,,,,,,,,,,,
710832,001,2022-11-20_23h51.59.093,Info_measure_main_exp,2022.2.2,Win32,60.20832079,,,,,,,,,,,,,,,,,,masks/mask_005.jpg,,,,,,,,,,,,,,,,,,,,,,,,,,,,,,,,,,,,,,,,,,,,,,,,0,4,4,4,1,,,,,,,,,,,,,,,,,,,,,,,,,,,,,,,,,,,,,,,,,
710832,001,2022-11-20_23h51.59.093,Info_measure_main_exp,2022.2.2,Win32,60.20832079,,,,,,,,,,,,,,,,,,,,,,,,,,,,,,7,1.2178,1,,,,,,,,,,,,0,131,5,5,2250,2166,absent_patch/patch0002250.jpg,absent_patch/patch0002166.jpg,,,,,,,,,,,,,,,,,,,,0.078703704,0.125,1,0,0,response1disk,17,0.001851852,0.001851852,1,0,0,center_square,0,16,16,60,1,,,,,,,,,,,,,,,,,,,,,,,
710832,001,2022-11-20_23h51.59.093,Info_measure_main_exp,2022.2.2,Win32,60.20832079,,,,,,,,,,,,,,,,,,masks/mask_004.jpg,,,,,,,,,,,,,,,,,,,,,,,,,,,,,,,,,,,,,,,,,,,0,0,0,3,1,,,,,,,,,,,,,,,,,,,,,,,,,,,,,,,,,,,,,,,,,,,,,,
710832,001,2022-11-20_23h51.59.093,Info_measure_main_exp,2022.2.2,Win32,60.20832079,,,,,,,,,,,,,,,,,,masks/mask_005.jpg,,,,,,,,,,,,,,,,,,,,,,,,,,,,,,,,,,,,,,,,,,,0,1,1,4,1,,,,,,,,,,,,,,,,,,,,,,,,,,,,,,,,,,,,,,,,,,,,,,
710832,001,2022-11-20_23h51.59.093,Info_measure_main_exp,2022.2.2,Win32,60.20832079,,,,,,,,,,,,,,,,,,masks/mask_002.jpg,,,,,,,,,,,,,,,,,,,,,,,,,,,,,,,,,,,,,,,,,,,0,2,2,1,1,,,,,,,,,,,,,,,,,,,,,,,,,,,,,,,,,,,,,,,,,,,,,,
710832,001,2022-11-20_23h51.59.093,Info_measure_main_exp,2022.2.2,Win32,60.20832079,,,,,,,,,,,,,,,,,,masks/mask_001.jpg,,,,,,,,,,,,,,,,,,,,,,,,,,,,,,,,,,,,,,,,,,,0,3,3,0,1,,,,,,,,,,,,,,,,,,,,,,,,,,,,,,,,,,,,,,,,,,,,,,
710832,001,2022-11-20_23h51.59.093,Info_measure_main_exp,2022.2.2,Win32,60.20832079,,,,,,,,,,,,,,,,,,masks/mask_003.jpg,,,,,,,,,,,,,,,,,,,,,,,,,,,,,,,,,,,,,,,,,,,0,4,4,2,1,,,,,,,,,,,,,,,,,,,,,,,,,,,,,,,,,,,,,,,,,,,,,,
710832,001,2022-11-20_23h51.59.093,Info_measure_main_exp,2022.2.2,Win32,60.20832079,,,,,,,,,,,,,,,,,,masks/mask_005.jpg,,,,,,,,,,,,,,,,,,,,,,,,,,,,,,,,,,,,,,,,,,,,,,,,0,0,0,4,1,,,,,,,,,,,,,,,,,,,,,,,,,,,,,,,,,,,,,,,,,
710832,001,2022-11-20_23h51.59.093,Info_measure_main_exp,2022.2.2,Win32,60.20832079,,,,,,,,,,,,,,,,,,masks/mask_002.jpg,,,,,,,,,,,,,,,,,,,,,,,,,,,,,,,,,,,,,,,,,,,,,,,,0,1,1,1,1,,,,,,,,,,,,,,,,,,,,,,,,,,,,,,,,,,,,,,,,,
710832,001,2022-11-20_23h51.59.093,Info_measure_main_exp,2022.2.2,Win32,60.20832079,,,,,,,,,,,,,,,,,,masks/mask_001.jpg,,,,,,,,,,,,,,,,,,,,,,,,,,,,,,,,,,,,,,,,,,,,,,,,0,2,2,0,1,,,,,,,,,,,,,,,,,,,,,,,,,,,,,,,,,,,,,,,,,
710832,001,2022-11-20_23h51.59.093,Info_measure_main_exp,2022.2.2,Win32,60.20832079,,,,,,,,,,,,,,,,,,masks/mask_004.jpg,,,,,,,,,,,,,,,,,,,,,,,,,,,,,,,,,,,,,,,,,,,,,,,,0,3,3,3,1,,,,,,,,,,,,,,,,,,,,,,,,,,,,,,,,,,,,,,,,,
710832,001,2022-11-20_23h51.59.093,Info_measure_main_exp,2022.2.2,Win32,60.20832079,,,,,,,,,,,,,,,,,,masks/mask_003.jpg,,,,,,,,,,,,,,,,,,,,,,,,,,,,,,,,,,,,,,,,,,,,,,,,0,4,4,2,1,,,,,,,,,,,,,,,,,,,,,,,,,,,,,,,,,,,,,,,,,
710832,001,2022-11-20_23h51.59.093,Info_measure_main_exp,2022.2.2,Win32,60.20832079,,,,,,,,,,,,,,,,,,,,,,,,,,,,,,6,0.7007,1,,,,,,,,,,,,0,131,5,5,2190,1974,absent_patch/patch0002190.jpg,absent_patch/patch0001974.jpg,,,,,,,,,,,,,,,,,,,,0.094444444,0.02962963,1,0,0,response1disk,18,0.003703704,-0.002777778,1,0,0,center_square,0,17,17,119,1,,,,,,,,,,,,,,,,,,,,,,,
710832,001,2022-11-20_23h51.59.093,Info_measure_main_exp,2022.2.2,Win32,60.20832079,,,,,,,,,,,,,,,,,,masks/mask_002.jpg,,,,,,,,,,,,,,,,,,,,,,,,,,,,,,,,,,,,,,,,,,,0,0,0,1,1,,,,,,,,,,,,,,,,,,,,,,,,,,,,,,,,,,,,,,,,,,,,,,
710832,001,2022-11-20_23h51.59.093,Info_measure_main_exp,2022.2.2,Win32,60.20832079,,,,,,,,,,,,,,,,,,masks/mask_004.jpg,,,,,,,,,,,,,,,,,,,,,,,,,,,,,,,,,,,,,,,,,,,0,1,1,3,1,,,,,,,,,,,,,,,,,,,,,,,,,,,,,,,,,,,,,,,,,,,,,,
710832,001,2022-11-20_23h51.59.093,Info_measure_main_exp,2022.2.2,Win32,60.20832079,,,,,,,,,,,,,,,,,,masks/mask_003.jpg,,,,,,,,,,,,,,,,,,,,,,,,,,,,,,,,,,,,,,,,,,,0,2,2,2,1,,,,,,,,,,,,,,,,,,,,,,,,,,,,,,,,,,,,,,,,,,,,,,
710832,001,2022-11-20_23h51.59.093,Info_measure_main_exp,2022.2.2,Win32,60.20832079,,,,,,,,,,,,,,,,,,masks/mask_001.jpg,,,,,,,,,,,,,,,,,,,,,,,,,,,,,,,,,,,,,,,,,,,0,3,3,0,1,,,,,,,,,,,,,,,,,,,,,,,,,,,,,,,,,,,,,,,,,,,,,,
710832,001,2022-11-20_23h51.59.093,Info_measure_main_exp,2022.2.2,Win32,60.20832079,,,,,,,,,,,,,,,,,,masks/mask_005.jpg,,,,,,,,,,,,,,,,,,,,,,,,,,,,,,,,,,,,,,,,,,,0,4,4,4,1,,,,,,,,,,,,,,,,,,,,,,,,,,,,,,,,,,,,,,,,,,,,,,
710832,001,2022-11-20_23h51.59.093,Info_measure_main_exp,2022.2.2,Win32,60.20832079,,,,,,,,,,,,,,,,,,masks/mask_005.jpg,,,,,,,,,,,,,,,,,,,,,,,,,,,,,,,,,,,,,,,,,,,,,,,,0,0,0,4,1,,,,,,,,,,,,,,,,,,,,,,,,,,,,,,,,,,,,,,,,,
710832,001,2022-11-20_23h51.59.093,Info_measure_main_exp,2022.2.2,Win32,60.20832079,,,,,,,,,,,,,,,,,,masks/mask_003.jpg,,,,,,,,,,,,,,,,,,,,,,,,,,,,,,,,,,,,,,,,,,,,,,,,0,1,1,2,1,,,,,,,,,,,,,,,,,,,,,,,,,,,,,,,,,,,,,,,,,
710832,001,2022-11-20_23h51.59.093,Info_measure_main_exp,2022.2.2,Win32,60.20832079,,,,,,,,,,,,,,,,,,masks/mask_004.jpg,,,,,,,,,,,,,,,,,,,,,,,,,,,,,,,,,,,,,,,,,,,,,,,,0,2,2,3,1,,,,,,,,,,,,,,,,,,,,,,,,,,,,,,,,,,,,,,,,,
710832,001,2022-11-20_23h51.59.093,Info_measure_main_exp,2022.2.2,Win32,60.20832079,,,,,,,,,,,,,,,,,,masks/mask_002.jpg,,,,,,,,,,,,,,,,,,,,,,,,,,,,,,,,,,,,,,,,,,,,,,,,0,3,3,1,1,,,,,,,,,,,,,,,,,,,,,,,,,,,,,,,,,,,,,,,,,
710832,001,2022-11-20_23h51.59.093,Info_measure_main_exp,2022.2.2,Win32,60.20832079,,,,,,,,,,,,,,,,,,masks/mask_001.jpg,,,,,,,,,,,,,,,,,,,,,,,,,,,,,,,,,,,,,,,,,,,,,,,,0,4,4,0,1,,,,,,,,,,,,,,,,,,,,,,,,,,,,,,,,,,,,,,,,,
710832,001,2022-11-20_23h51.59.093,Info_measure_main_exp,2022.2.2,Win32,60.20832079,,,,,,,,,,,,,,,,,,,,,,,,,,,,,,6,0.6005,1,,,,,,,,,,,,0,131,5,5,2154,2214,absent_patch/patch0002154.jpg,absent_patch/patch0002214.jpg,,,,,,,,,,,,,,,,,,,,0.109259259,0.027777778,1,0,0,response1disk,19,0.002777778,-0.001851852,1,0,0,center_square,0,18,18,67,1,,,,,,,,,,,,,,,,,,,,,,,
710832,001,2022-11-20_23h51.59.093,Info_measure_main_exp,2022.2.2,Win32,60.20832079,,,,,,,,,,,,,,,,,,masks/mask_005.jpg,,,,,,,,,,,,,,,,,,,,,,,,,,,,,,,,,,,,,,,,,,,0,0,0,4,1,,,,,,,,,,,,,,,,,,,,,,,,,,,,,,,,,,,,,,,,,,,,,,
710832,001,2022-11-20_23h51.59.093,Info_measure_main_exp,2022.2.2,Win32,60.20832079,,,,,,,,,,,,,,,,,,masks/mask_003.jpg,,,,,,,,,,,,,,,,,,,,,,,,,,,,,,,,,,,,,,,,,,,0,1,1,2,1,,,,,,,,,,,,,,,,,,,,,,,,,,,,,,,,,,,,,,,,,,,,,,
710832,001,2022-11-20_23h51.59.093,Info_measure_main_exp,2022.2.2,Win32,60.20832079,,,,,,,,,,,,,,,,,,masks/mask_001.jpg,,,,,,,,,,,,,,,,,,,,,,,,,,,,,,,,,,,,,,,,,,,0,2,2,0,1,,,,,,,,,,,,,,,,,,,,,,,,,,,,,,,,,,,,,,,,,,,,,,
710832,001,2022-11-20_23h51.59.093,Info_measure_main_exp,2022.2.2,Win32,60.20832079,,,,,,,,,,,,,,,,,,masks/mask_004.jpg,,,,,,,,,,,,,,,,,,,,,,,,,,,,,,,,,,,,,,,,,,,0,3,3,3,1,,,,,,,,,,,,,,,,,,,,,,,,,,,,,,,,,,,,,,,,,,,,,,
710832,001,2022-11-20_23h51.59.093,Info_measure_main_exp,2022.2.2,Win32,60.20832079,,,,,,,,,,,,,,,,,,masks/mask_002.jpg,,,,,,,,,,,,,,,,,,,,,,,,,,,,,,,,,,,,,,,,,,,0,4,4,1,1,,,,,,,,,,,,,,,,,,,,,,,,,,,,,,,,,,,,,,,,,,,,,,
710832,001,2022-11-20_23h51.59.093,Info_measure_main_exp,2022.2.2,Win32,60.20832079,,,,,,,,,,,,,,,,,,masks/mask_005.jpg,,,,,,,,,,,,,,,,,,,,,,,,,,,,,,,,,,,,,,,,,,,,,,,,0,0,0,4,1,,,,,,,,,,,,,,,,,,,,,,,,,,,,,,,,,,,,,,,,,
710832,001,2022-11-20_23h51.59.093,Info_measure_main_exp,2022.2.2,Win32,60.20832079,,,,,,,,,,,,,,,,,,masks/mask_002.jpg,,,,,,,,,,,,,,,,,,,,,,,,,,,,,,,,,,,,,,,,,,,,,,,,0,1,1,1,1,,,,,,,,,,,,,,,,,,,,,,,,,,,,,,,,,,,,,,,,,
710832,001,2022-11-20_23h51.59.093,Info_measure_main_exp,2022.2.2,Win32,60.20832079,,,,,,,,,,,,,,,,,,masks/mask_004.jpg,,,,,,,,,,,,,,,,,,,,,,,,,,,,,,,,,,,,,,,,,,,,,,,,0,2,2,3,1,,,,,,,,,,,,,,,,,,,,,,,,,,,,,,,,,,,,,,,,,
710832,001,2022-11-20_23h51.59.093,Info_measure_main_exp,2022.2.2,Win32,60.20832079,,,,,,,,,,,,,,,,,,masks/mask_003.jpg,,,,,,,,,,,,,,,,,,,,,,,,,,,,,,,,,,,,,,,,,,,,,,,,0,3,3,2,1,,,,,,,,,,,,,,,,,,,,,,,,,,,,,,,,,,,,,,,,,
710832,001,2022-11-20_23h51.59.093,Info_measure_main_exp,2022.2.2,Win32,60.20832079,,,,,,,,,,,,,,,,,,masks/mask_001.jpg,,,,,,,,,,,,,,,,,,,,,,,,,,,,,,,,,,,,,,,,,,,,,,,,0,4,4,0,1,,,,,,,,,,,,,,,,,,,,,,,,,,,,,,,,,,,,,,,,,
710832,001,2022-11-20_23h51.59.093,Info_measure_main_exp,2022.2.2,Win32,60.20832079,,,,,,,,,,,,,,,,,,,,,,,,,,,,,,7,0.8508,1,,,,,,,,,,,,0,131,5,5,2274,2238,absent_patch/patch0002274.jpg,absent_patch/patch0002238.jpg,,,,,,,,,,,,,,,,,,,,0.075925926,0.090740741,1,0,0,response1disk,20,0,0.002777778,1,0,0,center_square,0,19,19,91,1,,,,,,,,,,,,,,,,,,,,,,,
710832,001,2022-11-20_23h51.59.093,Info_measure_main_exp,2022.2.2,Win32,60.20832079,,,,,,,,,,,,,,,,,,masks/mask_001.jpg,,,,,,,,,,,,,,,,,,,,,,,,,,,,,,,,,,,,,,,,,,,0,0,0,0,1,,,,,,,,,,,,,,,,,,,,,,,,,,,,,,,,,,,,,,,,,,,,,,
710832,001,2022-11-20_23h51.59.093,Info_measure_main_exp,2022.2.2,Win32,60.20832079,,,,,,,,,,,,,,,,,,masks/mask_004.jpg,,,,,,,,,,,,,,,,,,,,,,,,,,,,,,,,,,,,,,,,,,,0,1,1,3,1,,,,,,,,,,,,,,,,,,,,,,,,,,,,,,,,,,,,,,,,,,,,,,
710832,001,2022-11-20_23h51.59.093,Info_measure_main_exp,2022.2.2,Win32,60.20832079,,,,,,,,,,,,,,,,,,masks/mask_002.jpg,,,,,,,,,,,,,,,,,,,,,,,,,,,,,,,,,,,,,,,,,,,0,2,2,1,1,,,,,,,,,,,,,,,,,,,,,,,,,,,,,,,,,,,,,,,,,,,,,,
710832,001,2022-11-20_23h51.59.093,Info_measure_main_exp,2022.2.2,Win32,60.20832079,,,,,,,,,,,,,,,,,,masks/mask_005.jpg,,,,,,,,,,,,,,,,,,,,,,,,,,,,,,,,,,,,,,,,,,,0,3,3,4,1,,,,,,,,,,,,,,,,,,,,,,,,,,,,,,,,,,,,,,,,,,,,,,
710832,001,2022-11-20_23h51.59.093,Info_measure_main_exp,2022.2.2,Win32,60.20832079,,,,,,,,,,,,,,,,,,masks/mask_003.jpg,,,,,,,,,,,,,,,,,,,,,,,,,,,,,,,,,,,,,,,,,,,0,4,4,2,1,,,,,,,,,,,,,,,,,,,,,,,,,,,,,,,,,,,,,,,,,,,,,,
710832,001,2022-11-20_23h51.59.093,Info_measure_main_exp,2022.2.2,Win32,60.20832079,,,,,,,,,,,,,,,,,,masks/mask_003.jpg,,,,,,,,,,,,,,,,,,,,,,,,,,,,,,,,,,,,,,,,,,,,,,,,0,0,0,2,1,,,,,,,,,,,,,,,,,,,,,,,,,,,,,,,,,,,,,,,,,
710832,001,2022-11-20_23h51.59.093,Info_measure_main_exp,2022.2.2,Win32,60.20832079,,,,,,,,,,,,,,,,,,masks/mask_002.jpg,,,,,,,,,,,,,,,,,,,,,,,,,,,,,,,,,,,,,,,,,,,,,,,,0,1,1,1,1,,,,,,,,,,,,,,,,,,,,,,,,,,,,,,,,,,,,,,,,,
710832,001,2022-11-20_23h51.59.093,Info_measure_main_exp,2022.2.2,Win32,60.20832079,,,,,,,,,,,,,,,,,,masks/mask_005.jpg,,,,,,,,,,,,,,,,,,,,,,,,,,,,,,,,,,,,,,,,,,,,,,,,0,2,2,4,1,,,,,,,,,,,,,,,,,,,,,,,,,,,,,,,,,,,,,,,,,
710832,001,2022-11-20_23h51.59.093,Info_measure_main_exp,2022.2.2,Win32,60.20832079,,,,,,,,,,,,,,,,,,masks/mask_004.jpg,,,,,,,,,,,,,,,,,,,,,,,,,,,,,,,,,,,,,,,,,,,,,,,,0,3,3,3,1,,,,,,,,,,,,,,,,,,,,,,,,,,,,,,,,,,,,,,,,,
710832,001,2022-11-20_23h51.59.093,Info_measure_main_exp,2022.2.2,Win32,60.20832079,,,,,,,,,,,,,,,,,,masks/mask_001.jpg,,,,,,,,,,,,,,,,,,,,,,,,,,,,,,,,,,,,,,,,,,,,,,,,0,4,4,0,1,,,,,,,,,,,,,,,,,,,,,,,,,,,,,,,,,,,,,,,,,
710832,001,2022-11-20_23h51.59.093,Info_measure_main_exp,2022.2.2,Win32,60.20832079,,,,,,,,,,,,,,,,,,,,,,,,,,,,,,6,0.7339,1,,,,,,,,,,,,0,131,5,5,2274,2082,absent_patch/patch0002274.jpg,absent_patch/patch0002082.jpg,,,,,,,,,,,,,,,,,,,,0.121296296,0.037037037,1,0,0,response1disk,21,-0.000925926,0,1,0,0,center_square,0,20,20,100,1,,,,,,,,,,,,,,,,,,,,,,,
710832,001,2022-11-20_23h51.59.093,Info_measure_main_exp,2022.2.2,Win32,60.20832079,,,,,,,,,,,,,,,,,,masks/mask_005.jpg,,,,,,,,,,,,,,,,,,,,,,,,,,,,,,,,,,,,,,,,,,,0,0,0,4,1,,,,,,,,,,,,,,,,,,,,,,,,,,,,,,,,,,,,,,,,,,,,,,
710832,001,2022-11-20_23h51.59.093,Info_measure_main_exp,2022.2.2,Win32,60.20832079,,,,,,,,,,,,,,,,,,masks/mask_004.jpg,,,,,,,,,,,,,,,,,,,,,,,,,,,,,,,,,,,,,,,,,,,0,1,1,3,1,,,,,,,,,,,,,,,,,,,,,,,,,,,,,,,,,,,,,,,,,,,,,,
710832,001,2022-11-20_23h51.59.093,Info_measure_main_exp,2022.2.2,Win32,60.20832079,,,,,,,,,,,,,,,,,,masks/mask_003.jpg,,,,,,,,,,,,,,,,,,,,,,,,,,,,,,,,,,,,,,,,,,,0,2,2,2,1,,,,,,,,,,,,,,,,,,,,,,,,,,,,,,,,,,,,,,,,,,,,,,
710832,001,2022-11-20_23h51.59.093,Info_measure_main_exp,2022.2.2,Win32,60.20832079,,,,,,,,,,,,,,,,,,masks/mask_001.jpg,,,,,,,,,,,,,,,,,,,,,,,,,,,,,,,,,,,,,,,,,,,0,3,3,0,1,,,,,,,,,,,,,,,,,,,,,,,,,,,,,,,,,,,,,,,,,,,,,,
710832,001,2022-11-20_23h51.59.093,Info_measure_main_exp,2022.2.2,Win32,60.20832079,,,,,,,,,,,,,,,,,,masks/mask_002.jpg,,,,,,,,,,,,,,,,,,,,,,,,,,,,,,,,,,,,,,,,,,,0,4,4,1,1,,,,,,,,,,,,,,,,,,,,,,,,,,,,,,,,,,,,,,,,,,,,,,
710832,001,2022-11-20_23h51.59.093,Info_measure_main_exp,2022.2.2,Win32,60.20832079,,,,,,,,,,,,,,,,,,masks/mask_004.jpg,,,,,,,,,,,,,,,,,,,,,,,,,,,,,,,,,,,,,,,,,,,,,,,,0,0,0,3,1,,,,,,,,,,,,,,,,,,,,,,,,,,,,,,,,,,,,,,,,,
710832,001,2022-11-20_23h51.59.093,Info_measure_main_exp,2022.2.2,Win32,60.20832079,,,,,,,,,,,,,,,,,,masks/mask_001.jpg,,,,,,,,,,,,,,,,,,,,,,,,,,,,,,,,,,,,,,,,,,,,,,,,0,1,1,0,1,,,,,,,,,,,,,,,,,,,,,,,,,,,,,,,,,,,,,,,,,
710832,001,2022-11-20_23h51.59.093,Info_measure_main_exp,2022.2.2,Win32,60.20832079,,,,,,,,,,,,,,,,,,masks/mask_003.jpg,,,,,,,,,,,,,,,,,,,,,,,,,,,,,,,,,,,,,,,,,,,,,,,,0,2,2,2,1,,,,,,,,,,,,,,,,,,,,,,,,,,,,,,,,,,,,,,,,,
710832,001,2022-11-20_23h51.59.093,Info_measure_main_exp,2022.2.2,Win32,60.20832079,,,,,,,,,,,,,,,,,,masks/mask_002.jpg,,,,,,,,,,,,,,,,,,,,,,,,,,,,,,,,,,,,,,,,,,,,,,,,0,3,3,1,1,,,,,,,,,,,,,,,,,,,,,,,,,,,,,,,,,,,,,,,,,
710832,001,2022-11-20_23h51.59.093,Info_measure_main_exp,2022.2.2,Win32,60.20832079,,,,,,,,,,,,,,,,,,masks/mask_005.jpg,,,,,,,,,,,,,,,,,,,,,,,,,,,,,,,,,,,,,,,,,,,,,,,,0,4,4,4,1,,,,,,,,,,,,,,,,,,,,,,,,,,,,,,,,,,,,,,,,,
710832,001,2022-11-20_23h51.59.093,Info_measure_main_exp,2022.2.2,Win32,60.20832079,,,,,,,,,,,,,,,,,,,,,,,,,,,,,,3,5.5887,1,,,,,,,,,,,,0,131,5,5,2178,2142,absent_patch/patch0002178.jpg,absent_patch/patch0002142.jpg,,,,,,,,,,,,,,,,,,,,-0.02037037,-0.162962963,1,0,0,response5disk,22,-0.006481481,-0.006481481,1,0,0,center_square,0,21,21,41,1,,,,,,,,,,,,,,,,,,,,,,,
710832,001,2022-11-20_23h51.59.093,Info_measure_main_exp,2022.2.2,Win32,60.20832079,,,,,,,,,,,,,,,,,,masks/mask_003.jpg,,,,,,,,,,,,,,,,,,,,,,,,,,,,,,,,,,,,,,,,,,,0,0,0,2,1,,,,,,,,,,,,,,,,,,,,,,,,,,,,,,,,,,,,,,,,,,,,,,
710832,001,2022-11-20_23h51.59.093,Info_measure_main_exp,2022.2.2,Win32,60.20832079,,,,,,,,,,,,,,,,,,masks/mask_001.jpg,,,,,,,,,,,,,,,,,,,,,,,,,,,,,,,,,,,,,,,,,,,0,1,1,0,1,,,,,,,,,,,,,,,,,,,,,,,,,,,,,,,,,,,,,,,,,,,,,,
710832,001,2022-11-20_23h51.59.093,Info_measure_main_exp,2022.2.2,Win32,60.20832079,,,,,,,,,,,,,,,,,,masks/mask_004.jpg,,,,,,,,,,,,,,,,,,,,,,,,,,,,,,,,,,,,,,,,,,,0,2,2,3,1,,,,,,,,,,,,,,,,,,,,,,,,,,,,,,,,,,,,,,,,,,,,,,
710832,001,2022-11-20_23h51.59.093,Info_measure_main_exp,2022.2.2,Win32,60.20832079,,,,,,,,,,,,,,,,,,masks/mask_002.jpg,,,,,,,,,,,,,,,,,,,,,,,,,,,,,,,,,,,,,,,,,,,0,3,3,1,1,,,,,,,,,,,,,,,,,,,,,,,,,,,,,,,,,,,,,,,,,,,,,,
710832,001,2022-11-20_23h51.59.093,Info_measure_main_exp,2022.2.2,Win32,60.20832079,,,,,,,,,,,,,,,,,,masks/mask_005.jpg,,,,,,,,,,,,,,,,,,,,,,,,,,,,,,,,,,,,,,,,,,,0,4,4,4,1,,,,,,,,,,,,,,,,,,,,,,,,,,,,,,,,,,,,,,,,,,,,,,
710832,001,2022-11-20_23h51.59.093,Info_measure_main_exp,2022.2.2,Win32,60.20832079,,,,,,,,,,,,,,,,,,masks/mask_004.jpg,,,,,,,,,,,,,,,,,,,,,,,,,,,,,,,,,,,,,,,,,,,,,,,,0,0,0,3,1,,,,,,,,,,,,,,,,,,,,,,,,,,,,,,,,,,,,,,,,,
710832,001,2022-11-20_23h51.59.093,Info_measure_main_exp,2022.2.2,Win32,60.20832079,,,,,,,,,,,,,,,,,,masks/mask_001.jpg,,,,,,,,,,,,,,,,,,,,,,,,,,,,,,,,,,,,,,,,,,,,,,,,0,1,1,0,1,,,,,,,,,,,,,,,,,,,,,,,,,,,,,,,,,,,,,,,,,
710832,001,2022-11-20_23h51.59.093,Info_measure_main_exp,2022.2.2,Win32,60.20832079,,,,,,,,,,,,,,,,,,masks/mask_002.jpg,,,,,,,,,,,,,,,,,,,,,,,,,,,,,,,,,,,,,,,,,,,,,,,,0,2,2,1,1,,,,,,,,,,,,,,,,,,,,,,,,,,,,,,,,,,,,,,,,,
710832,001,2022-11-20_23h51.59.093,Info_measure_main_exp,2022.2.2,Win32,60.20832079,,,,,,,,,,,,,,,,,,masks/mask_003.jpg,,,,,,,,,,,,,,,,,,,,,,,,,,,,,,,,,,,,,,,,,,,,,,,,0,3,3,2,1,,,,,,,,,,,,,,,,,,,,,,,,,,,,,,,,,,,,,,,,,
710832,001,2022-11-20_23h51.59.093,Info_measure_main_exp,2022.2.2,Win32,60.20832079,,,,,,,,,,,,,,,,,,masks/mask_005.jpg,,,,,,,,,,,,,,,,,,,,,,,,,,,,,,,,,,,,,,,,,,,,,,,,0,4,4,4,1,,,,,,,,,,,,,,,,,,,,,,,,,,,,,,,,,,,,,,,,,
710832,001,2022-11-20_23h51.59.093,Info_measure_main_exp,2022.2.2,Win32,60.20832079,,,,,,,,,,,,,,,,,,,,,,,,,,,,,,7,2.2521,1,,,,,,,,,,,,0,131,5,5,2274,2166,absent_patch/patch0002274.jpg,absent_patch/patch0002166.jpg,,,,,,,,,,,,,,,,,,,,0.081481481,0.111111111,1,0,0,response1disk,23,-0.003703704,0.000925926,1,0,0,center_square,0,22,22,78,1,,,,,,,,,,,,,,,,,,,,,,,
710832,001,2022-11-20_23h51.59.093,Info_measure_main_exp,2022.2.2,Win32,60.20832079,,,,,,,,,,,,,,,,,,masks/mask_005.jpg,,,,,,,,,,,,,,,,,,,,,,,,,,,,,,,,,,,,,,,,,,,0,0,0,4,1,,,,,,,,,,,,,,,,,,,,,,,,,,,,,,,,,,,,,,,,,,,,,,
710832,001,2022-11-20_23h51.59.093,Info_measure_main_exp,2022.2.2,Win32,60.20832079,,,,,,,,,,,,,,,,,,masks/mask_002.jpg,,,,,,,,,,,,,,,,,,,,,,,,,,,,,,,,,,,,,,,,,,,0,1,1,1,1,,,,,,,,,,,,,,,,,,,,,,,,,,,,,,,,,,,,,,,,,,,,,,
710832,001,2022-11-20_23h51.59.093,Info_measure_main_exp,2022.2.2,Win32,60.20832079,,,,,,,,,,,,,,,,,,masks/mask_003.jpg,,,,,,,,,,,,,,,,,,,,,,,,,,,,,,,,,,,,,,,,,,,0,2,2,2,1,,,,,,,,,,,,,,,,,,,,,,,,,,,,,,,,,,,,,,,,,,,,,,
710832,001,2022-11-20_23h51.59.093,Info_measure_main_exp,2022.2.2,Win32,60.20832079,,,,,,,,,,,,,,,,,,masks/mask_004.jpg,,,,,,,,,,,,,,,,,,,,,,,,,,,,,,,,,,,,,,,,,,,0,3,3,3,1,,,,,,,,,,,,,,,,,,,,,,,,,,,,,,,,,,,,,,,,,,,,,,
710832,001,2022-11-20_23h51.59.093,Info_measure_main_exp,2022.2.2,Win32,60.20832079,,,,,,,,,,,,,,,,,,masks/mask_001.jpg,,,,,,,,,,,,,,,,,,,,,,,,,,,,,,,,,,,,,,,,,,,0,4,4,0,1,,,,,,,,,,,,,,,,,,,,,,,,,,,,,,,,,,,,,,,,,,,,,,
710832,001,2022-11-20_23h51.59.093,Info_measure_main_exp,2022.2.2,Win32,60.20832079,,,,,,,,,,,,,,,,,,masks/mask_005.jpg,,,,,,,,,,,,,,,,,,,,,,,,,,,,,,,,,,,,,,,,,,,,,,,,0,0,0,4,1,,,,,,,,,,,,,,,,,,,,,,,,,,,,,,,,,,,,,,,,,
710832,001,2022-11-20_23h51.59.093,Info_measure_main_exp,2022.2.2,Win32,60.20832079,,,,,,,,,,,,,,,,,,masks/mask_003.jpg,,,,,,,,,,,,,,,,,,,,,,,,,,,,,,,,,,,,,,,,,,,,,,,,0,1,1,2,1,,,,,,,,,,,,,,,,,,,,,,,,,,,,,,,,,,,,,,,,,
710832,001,2022-11-20_23h51.59.093,Info_measure_main_exp,2022.2.2,Win32,60.20832079,,,,,,,,,,,,,,,,,,masks/mask_002.jpg,,,,,,,,,,,,,,,,,,,,,,,,,,,,,,,,,,,,,,,,,,,,,,,,0,2,2,1,1,,,,,,,,,,,,,,,,,,,,,,,,,,,,,,,,,,,,,,,,,
710832,001,2022-11-20_23h51.59.093,Info_measure_main_exp,2022.2.2,Win32,60.20832079,,,,,,,,,,,,,,,,,,masks/mask_004.jpg,,,,,,,,,,,,,,,,,,,,,,,,,,,,,,,,,,,,,,,,,,,,,,,,0,3,3,3,1,,,,,,,,,,,,,,,,,,,,,,,,,,,,,,,,,,,,,,,,,
710832,001,2022-11-20_23h51.59.093,Info_measure_main_exp,2022.2.2,Win32,60.20832079,,,,,,,,,,,,,,,,,,masks/mask_001.jpg,,,,,,,,,,,,,,,,,,,,,,,,,,,,,,,,,,,,,,,,,,,,,,,,0,4,4,0,1,,,,,,,,,,,,,,,,,,,,,,,,,,,,,,,,,,,,,,,,,
710832,001,2022-11-20_23h51.59.093,Info_measure_main_exp,2022.2.2,Win32,60.20832079,,,,,,,,,,,,,,,,,,,,,,,,,,,,,,6,1.0174,1,,,,,,,,,,,,1,131,5,5,1,2142,present_patch/cong_131_5_a.jpg,absent_patch/patch0002142.jpg,,,,,,,,,,,,,,,,,,,,0.101851852,0.027777778,1,0,0,response1disk,24,0.003703704,0.001851852,1,0,0,center_square,0,23,23,80,1,,,,,,,,,,,,,,,,,,,,,,,
710832,001,2022-11-20_23h51.59.093,Info_measure_main_exp,2022.2.2,Win32,60.20832079,,,,,,,,,,,,,,,,,,masks/mask_004.jpg,,,,,,,,,,,,,,,,,,,,,,,,,,,,,,,,,,,,,,,,,,,0,0,0,3,1,,,,,,,,,,,,,,,,,,,,,,,,,,,,,,,,,,,,,,,,,,,,,,
710832,001,2022-11-20_23h51.59.093,Info_measure_main_exp,2022.2.2,Win32,60.20832079,,,,,,,,,,,,,,,,,,masks/mask_005.jpg,,,,,,,,,,,,,,,,,,,,,,,,,,,,,,,,,,,,,,,,,,,0,1,1,4,1,,,,,,,,,,,,,,,,,,,,,,,,,,,,,,,,,,,,,,,,,,,,,,
710832,001,2022-11-20_23h51.59.093,Info_measure_main_exp,2022.2.2,Win32,60.20832079,,,,,,,,,,,,,,,,,,masks/mask_003.jpg,,,,,,,,,,,,,,,,,,,,,,,,,,,,,,,,,,,,,,,,,,,0,2,2,2,1,,,,,,,,,,,,,,,,,,,,,,,,,,,,,,,,,,,,,,,,,,,,,,
710832,001,2022-11-20_23h51.59.093,Info_measure_main_exp,2022.2.2,Win32,60.20832079,,,,,,,,,,,,,,,,,,masks/mask_002.jpg,,,,,,,,,,,,,,,,,,,,,,,,,,,,,,,,,,,,,,,,,,,0,3,3,1,1,,,,,,,,,,,,,,,,,,,,,,,,,,,,,,,,,,,,,,,,,,,,,,
710832,001,2022-11-20_23h51.59.093,Info_measure_main_exp,2022.2.2,Win32,60.20832079,,,,,,,,,,,,,,,,,,masks/mask_001.jpg,,,,,,,,,,,,,,,,,,,,,,,,,,,,,,,,,,,,,,,,,,,0,4,4,0,1,,,,,,,,,,,,,,,,,,,,,,,,,,,,,,,,,,,,,,,,,,,,,,
710832,001,2022-11-20_23h51.59.093,Info_measure_main_exp,2022.2.2,Win32,60.20832079,,,,,,,,,,,,,,,,,,masks/mask_005.jpg,,,,,,,,,,,,,,,,,,,,,,,,,,,,,,,,,,,,,,,,,,,,,,,,0,0,0,4,1,,,,,,,,,,,,,,,,,,,,,,,,,,,,,,,,,,,,,,,,,
710832,001,2022-11-20_23h51.59.093,Info_measure_main_exp,2022.2.2,Win32,60.20832079,,,,,,,,,,,,,,,,,,masks/mask_004.jpg,,,,,,,,,,,,,,,,,,,,,,,,,,,,,,,,,,,,,,,,,,,,,,,,0,1,1,3,1,,,,,,,,,,,,,,,,,,,,,,,,,,,,,,,,,,,,,,,,,
710832,001,2022-11-20_23h51.59.093,Info_measure_main_exp,2022.2.2,Win32,60.20832079,,,,,,,,,,,,,,,,,,masks/mask_002.jpg,,,,,,,,,,,,,,,,,,,,,,,,,,,,,,,,,,,,,,,,,,,,,,,,0,2,2,1,1,,,,,,,,,,,,,,,,,,,,,,,,,,,,,,,,,,,,,,,,,
710832,001,2022-11-20_23h51.59.093,Info_measure_main_exp,2022.2.2,Win32,60.20832079,,,,,,,,,,,,,,,,,,masks/mask_001.jpg,,,,,,,,,,,,,,,,,,,,,,,,,,,,,,,,,,,,,,,,,,,,,,,,0,3,3,0,1,,,,,,,,,,,,,,,,,,,,,,,,,,,,,,,,,,,,,,,,,
710832,001,2022-11-20_23h51.59.093,Info_measure_main_exp,2022.2.2,Win32,60.20832079,,,,,,,,,,,,,,,,,,masks/mask_003.jpg,,,,,,,,,,,,,,,,,,,,,,,,,,,,,,,,,,,,,,,,,,,,,,,,0,4,4,2,1,,,,,,,,,,,,,,,,,,,,,,,,,,,,,,,,,,,,,,,,,
710832,001,2022-11-20_23h51.59.093,Info_measure_main_exp,2022.2.2,Win32,60.20832079,,,,,,,,,,,,,,,,,,,,,,,,,,,,,,7,1.0676,1,,,,,,,,,,,,0,131,5,5,2154,2298,absent_patch/patch0002154.jpg,absent_patch/patch0002298.jpg,,,,,,,,,,,,,,,,,,,,0.066666667,0.09537037,1,0,0,response1disk,25,0.000925926,0.000925926,1,0,0,center_square,0,24,24,27,1,,,,,,,,,,,,,,,,,,,,,,,
710832,001,2022-11-20_23h51.59.093,Info_measure_main_exp,2022.2.2,Win32,60.20832079,,,,,,,,,,,,,,,,,,masks/mask_005.jpg,,,,,,,,,,,,,,,,,,,,,,,,,,,,,,,,,,,,,,,,,,,0,0,0,4,1,,,,,,,,,,,,,,,,,,,,,,,,,,,,,,,,,,,,,,,,,,,,,,
710832,001,2022-11-20_23h51.59.093,Info_measure_main_exp,2022.2.2,Win32,60.20832079,,,,,,,,,,,,,,,,,,masks/mask_004.jpg,,,,,,,,,,,,,,,,,,,,,,,,,,,,,,,,,,,,,,,,,,,0,1,1,3,1,,,,,,,,,,,,,,,,,,,,,,,,,,,,,,,,,,,,,,,,,,,,,,
710832,001,2022-11-20_23h51.59.093,Info_measure_main_exp,2022.2.2,Win32,60.20832079,,,,,,,,,,,,,,,,,,masks/mask_001.jpg,,,,,,,,,,,,,,,,,,,,,,,,,,,,,,,,,,,,,,,,,,,0,2,2,0,1,,,,,,,,,,,,,,,,,,,,,,,,,,,,,,,,,,,,,,,,,,,,,,
710832,001,2022-11-20_23h51.59.093,Info_measure_main_exp,2022.2.2,Win32,60.20832079,,,,,,,,,,,,,,,,,,masks/mask_002.jpg,,,,,,,,,,,,,,,,,,,,,,,,,,,,,,,,,,,,,,,,,,,0,3,3,1,1,,,,,,,,,,,,,,,,,,,,,,,,,,,,,,,,,,,,,,,,,,,,,,
710832,001,2022-11-20_23h51.59.093,Info_measure_main_exp,2022.2.2,Win32,60.20832079,,,,,,,,,,,,,,,,,,masks/mask_003.jpg,,,,,,,,,,,,,,,,,,,,,,,,,,,,,,,,,,,,,,,,,,,0,4,4,2,1,,,,,,,,,,,,,,,,,,,,,,,,,,,,,,,,,,,,,,,,,,,,,,
710832,001,2022-11-20_23h51.59.093,Info_measure_main_exp,2022.2.2,Win32,60.20832079,,,,,,,,,,,,,,,,,,masks/mask_003.jpg,,,,,,,,,,,,,,,,,,,,,,,,,,,,,,,,,,,,,,,,,,,,,,,,0,0,0,2,1,,,,,,,,,,,,,,,,,,,,,,,,,,,,,,,,,,,,,,,,,
710832,001,2022-11-20_23h51.59.093,Info_measure_main_exp,2022.2.2,Win32,60.20832079,,,,,,,,,,,,,,,,,,masks/mask_001.jpg,,,,,,,,,,,,,,,,,,,,,,,,,,,,,,,,,,,,,,,,,,,,,,,,0,1,1,0,1,,,,,,,,,,,,,,,,,,,,,,,,,,,,,,,,,,,,,,,,,
710832,001,2022-11-20_23h51.59.093,Info_measure_main_exp,2022.2.2,Win32,60.20832079,,,,,,,,,,,,,,,,,,masks/mask_004.jpg,,,,,,,,,,,,,,,,,,,,,,,,,,,,,,,,,,,,,,,,,,,,,,,,0,2,2,3,1,,,,,,,,,,,,,,,,,,,,,,,,,,,,,,,,,,,,,,,,,
710832,001,2022-11-20_23h51.59.093,Info_measure_main_exp,2022.2.2,Win32,60.20832079,,,,,,,,,,,,,,,,,,masks/mask_002.jpg,,,,,,,,,,,,,,,,,,,,,,,,,,,,,,,,,,,,,,,,,,,,,,,,0,3,3,1,1,,,,,,,,,,,,,,,,,,,,,,,,,,,,,,,,,,,,,,,,,
710832,001,2022-11-20_23h51.59.093,Info_measure_main_exp,2022.2.2,Win32,60.20832079,,,,,,,,,,,,,,,,,,masks/mask_005.jpg,,,,,,,,,,,,,,,,,,,,,,,,,,,,,,,,,,,,,,,,,,,,,,,,0,4,4,4,1,,,,,,,,,,,,,,,,,,,,,,,,,,,,,,,,,,,,,,,,,
710832,001,2022-11-20_23h51.59.093,Info_measure_main_exp,2022.2.2,Win32,60.20832079,,,,,,,,,,,,,,,,,,,,,,,,,,,,,,6,0.6838,1,,,,,,,,,,,,0,131,5,5,2082,1986,absent_patch/patch0002082.jpg,absent_patch/patch0001986.jpg,,,,,,,,,,,,,,,,,,,,0.116666667,0.021296296,1,0,0,response1disk,26,0.002777778,-0.000925926,1,0,0,center_square,0,25,25,94,1,,,,,,,,,,,,,,,,,,,,,,,
710832,001,2022-11-20_23h51.59.093,Info_measure_main_exp,2022.2.2,Win32,60.20832079,,,,,,,,,,,,,,,,,,masks/mask_004.jpg,,,,,,,,,,,,,,,,,,,,,,,,,,,,,,,,,,,,,,,,,,,0,0,0,3,1,,,,,,,,,,,,,,,,,,,,,,,,,,,,,,,,,,,,,,,,,,,,,,
710832,001,2022-11-20_23h51.59.093,Info_measure_main_exp,2022.2.2,Win32,60.20832079,,,,,,,,,,,,,,,,,,masks/mask_002.jpg,,,,,,,,,,,,,,,,,,,,,,,,,,,,,,,,,,,,,,,,,,,0,1,1,1,1,,,,,,,,,,,,,,,,,,,,,,,,,,,,,,,,,,,,,,,,,,,,,,
710832,001,2022-11-20_23h51.59.093,Info_measure_main_exp,2022.2.2,Win32,60.20832079,,,,,,,,,,,,,,,,,,masks/mask_001.jpg,,,,,,,,,,,,,,,,,,,,,,,,,,,,,,,,,,,,,,,,,,,0,2,2,0,1,,,,,,,,,,,,,,,,,,,,,,,,,,,,,,,,,,,,,,,,,,,,,,
710832,001,2022-11-20_23h51.59.093,Info_measure_main_exp,2022.2.2,Win32,60.20832079,,,,,,,,,,,,,,,,,,masks/mask_005.jpg,,,,,,,,,,,,,,,,,,,,,,,,,,,,,,,,,,,,,,,,,,,0,3,3,4,1,,,,,,,,,,,,,,,,,,,,,,,,,,,,,,,,,,,,,,,,,,,,,,
710832,001,2022-11-20_23h51.59.093,Info_measure_main_exp,2022.2.2,Win32,60.20832079,,,,,,,,,,,,,,,,,,masks/mask_003.jpg,,,,,,,,,,,,,,,,,,,,,,,,,,,,,,,,,,,,,,,,,,,0,4,4,2,1,,,,,,,,,,,,,,,,,,,,,,,,,,,,,,,,,,,,,,,,,,,,,,
710832,001,2022-11-20_23h51.59.093,Info_measure_main_exp,2022.2.2,Win32,60.20832079,,,,,,,,,,,,,,,,,,masks/mask_005.jpg,,,,,,,,,,,,,,,,,,,,,,,,,,,,,,,,,,,,,,,,,,,,,,,,0,0,0,4,1,,,,,,,,,,,,,,,,,,,,,,,,,,,,,,,,,,,,,,,,,
710832,001,2022-11-20_23h51.59.093,Info_measure_main_exp,2022.2.2,Win32,60.20832079,,,,,,,,,,,,,,,,,,masks/mask_002.jpg,,,,,,,,,,,,,,,,,,,,,,,,,,,,,,,,,,,,,,,,,,,,,,,,0,1,1,1,1,,,,,,,,,,,,,,,,,,,,,,,,,,,,,,,,,,,,,,,,,
710832,001,2022-11-20_23h51.59.093,Info_measure_main_exp,2022.2.2,Win32,60.20832079,,,,,,,,,,,,,,,,,,masks/mask_004.jpg,,,,,,,,,,,,,,,,,,,,,,,,,,,,,,,,,,,,,,,,,,,,,,,,0,2,2,3,1,,,,,,,,,,,,,,,,,,,,,,,,,,,,,,,,,,,,,,,,,
710832,001,2022-11-20_23h51.59.093,Info_measure_main_exp,2022.2.2,Win32,60.20832079,,,,,,,,,,,,,,,,,,masks/mask_001.jpg,,,,,,,,,,,,,,,,,,,,,,,,,,,,,,,,,,,,,,,,,,,,,,,,0,3,3,0,1,,,,,,,,,,,,,,,,,,,,,,,,,,,,,,,,,,,,,,,,,
710832,001,2022-11-20_23h51.59.093,Info_measure_main_exp,2022.2.2,Win32,60.20832079,,,,,,,,,,,,,,,,,,masks/mask_003.jpg,,,,,,,,,,,,,,,,,,,,,,,,,,,,,,,,,,,,,,,,,,,,,,,,0,4,4,2,1,,,,,,,,,,,,,,,,,,,,,,,,,,,,,,,,,,,,,,,,,
710832,001,2022-11-20_23h51.59.093,Info_measure_main_exp,2022.2.2,Win32,60.20832079,,,,,,,,,,,,,,,,,,,,,,,,,,,,,,7,2.3689,1,,,,,,,,,,,,1,131,5,5,2082,1,absent_patch/patch0002082.jpg,present_patch/cong_131_5_a.jpg,,,,,,,,,,,,,,,,,,,,0.056481481,0.097222222,1,0,0,response1disk,27,-0.001851852,0.006481481,1,0,0,center_square,0,26,26,65,1,,,,,,,,,,,,,,,,,,,,,,,
710832,001,2022-11-20_23h51.59.093,Info_measure_main_exp,2022.2.2,Win32,60.20832079,,,,,,,,,,,,,,,,,,masks/mask_002.jpg,,,,,,,,,,,,,,,,,,,,,,,,,,,,,,,,,,,,,,,,,,,0,0,0,1,1,,,,,,,,,,,,,,,,,,,,,,,,,,,,,,,,,,,,,,,,,,,,,,
710832,001,2022-11-20_23h51.59.093,Info_measure_main_exp,2022.2.2,Win32,60.20832079,,,,,,,,,,,,,,,,,,masks/mask_003.jpg,,,,,,,,,,,,,,,,,,,,,,,,,,,,,,,,,,,,,,,,,,,0,1,1,2,1,,,,,,,,,,,,,,,,,,,,,,,,,,,,,,,,,,,,,,,,,,,,,,
710832,001,2022-11-20_23h51.59.093,Info_measure_main_exp,2022.2.2,Win32,60.20832079,,,,,,,,,,,,,,,,,,masks/mask_001.jpg,,,,,,,,,,,,,,,,,,,,,,,,,,,,,,,,,,,,,,,,,,,0,2,2,0,1,,,,,,,,,,,,,,,,,,,,,,,,,,,,,,,,,,,,,,,,,,,,,,
710832,001,2022-11-20_23h51.59.093,Info_measure_main_exp,2022.2.2,Win32,60.20832079,,,,,,,,,,,,,,,,,,masks/mask_004.jpg,,,,,,,,,,,,,,,,,,,,,,,,,,,,,,,,,,,,,,,,,,,0,3,3,3,1,,,,,,,,,,,,,,,,,,,,,,,,,,,,,,,,,,,,,,,,,,,,,,
710832,001,2022-11-20_23h51.59.093,Info_measure_main_exp,2022.2.2,Win32,60.20832079,,,,,,,,,,,,,,,,,,masks/mask_005.jpg,,,,,,,,,,,,,,,,,,,,,,,,,,,,,,,,,,,,,,,,,,,0,4,4,4,1,,,,,,,,,,,,,,,,,,,,,,,,,,,,,,,,,,,,,,,,,,,,,,
710832,001,2022-11-20_23h51.59.093,Info_measure_main_exp,2022.2.2,Win32,60.20832079,,,,,,,,,,,,,,,,,,masks/mask_001.jpg,,,,,,,,,,,,,,,,,,,,,,,,,,,,,,,,,,,,,,,,,,,,,,,,0,0,0,0,1,,,,,,,,,,,,,,,,,,,,,,,,,,,,,,,,,,,,,,,,,
710832,001,2022-11-20_23h51.59.093,Info_measure_main_exp,2022.2.2,Win32,60.20832079,,,,,,,,,,,,,,,,,,masks/mask_002.jpg,,,,,,,,,,,,,,,,,,,,,,,,,,,,,,,,,,,,,,,,,,,,,,,,0,1,1,1,1,,,,,,,,,,,,,,,,,,,,,,,,,,,,,,,,,,,,,,,,,
710832,001,2022-11-20_23h51.59.093,Info_measure_main_exp,2022.2.2,Win32,60.20832079,,,,,,,,,,,,,,,,,,masks/mask_003.jpg,,,,,,,,,,,,,,,,,,,,,,,,,,,,,,,,,,,,,,,,,,,,,,,,0,2,2,2,1,,,,,,,,,,,,,,,,,,,,,,,,,,,,,,,,,,,,,,,,,
710832,001,2022-11-20_23h51.59.093,Info_measure_main_exp,2022.2.2,Win32,60.20832079,,,,,,,,,,,,,,,,,,masks/mask_005.jpg,,,,,,,,,,,,,,,,,,,,,,,,,,,,,,,,,,,,,,,,,,,,,,,,0,3,3,4,1,,,,,,,,,,,,,,,,,,,,,,,,,,,,,,,,,,,,,,,,,
710832,001,2022-11-20_23h51.59.093,Info_measure_main_exp,2022.2.2,Win32,60.20832079,,,,,,,,,,,,,,,,,,masks/mask_004.jpg,,,,,,,,,,,,,,,,,,,,,,,,,,,,,,,,,,,,,,,,,,,,,,,,0,4,4,3,1,,,,,,,,,,,,,,,,,,,,,,,,,,,,,,,,,,,,,,,,,
710832,001,2022-11-20_23h51.59.093,Info_measure_main_exp,2022.2.2,Win32,60.20832079,,,,,,,,,,,,,,,,,,,,,,,,,,,,,,1,1.0679,1,,,,,,,,,,,,0,131,5,5,2190,2190,absent_patch/patch0002190.jpg,absent_patch/patch0002190.jpg,,,,,,,,,,,,,,,,,,,,-0.132407407,0.077777778,1,0,0,response7disk,28,-0.011111111,0.002777778,1,0,0,center_square,0,27,27,86,1,,,,,,,,,,,,,,,,,,,,,,,
710832,001,2022-11-20_23h51.59.093,Info_measure_main_exp,2022.2.2,Win32,60.20832079,,,,,,,,,,,,,,,,,,masks/mask_005.jpg,,,,,,,,,,,,,,,,,,,,,,,,,,,,,,,,,,,,,,,,,,,0,0,0,4,1,,,,,,,,,,,,,,,,,,,,,,,,,,,,,,,,,,,,,,,,,,,,,,
710832,001,2022-11-20_23h51.59.093,Info_measure_main_exp,2022.2.2,Win32,60.20832079,,,,,,,,,,,,,,,,,,masks/mask_002.jpg,,,,,,,,,,,,,,,,,,,,,,,,,,,,,,,,,,,,,,,,,,,0,1,1,1,1,,,,,,,,,,,,,,,,,,,,,,,,,,,,,,,,,,,,,,,,,,,,,,
710832,001,2022-11-20_23h51.59.093,Info_measure_main_exp,2022.2.2,Win32,60.20832079,,,,,,,,,,,,,,,,,,masks/mask_001.jpg,,,,,,,,,,,,,,,,,,,,,,,,,,,,,,,,,,,,,,,,,,,0,2,2,0,1,,,,,,,,,,,,,,,,,,,,,,,,,,,,,,,,,,,,,,,,,,,,,,
710832,001,2022-11-20_23h51.59.093,Info_measure_main_exp,2022.2.2,Win32,60.20832079,,,,,,,,,,,,,,,,,,masks/mask_004.jpg,,,,,,,,,,,,,,,,,,,,,,,,,,,,,,,,,,,,,,,,,,,0,3,3,3,1,,,,,,,,,,,,,,,,,,,,,,,,,,,,,,,,,,,,,,,,,,,,,,
710832,001,2022-11-20_23h51.59.093,Info_measure_main_exp,2022.2.2,Win32,60.20832079,,,,,,,,,,,,,,,,,,masks/mask_003.jpg,,,,,,,,,,,,,,,,,,,,,,,,,,,,,,,,,,,,,,,,,,,0,4,4,2,1,,,,,,,,,,,,,,,,,,,,,,,,,,,,,,,,,,,,,,,,,,,,,,
710832,001,2022-11-20_23h51.59.093,Info_measure_main_exp,2022.2.2,Win32,60.20832079,,,,,,,,,,,,,,,,,,masks/mask_005.jpg,,,,,,,,,,,,,,,,,,,,,,,,,,,,,,,,,,,,,,,,,,,,,,,,0,0,0,4,1,,,,,,,,,,,,,,,,,,,,,,,,,,,,,,,,,,,,,,,,,
710832,001,2022-11-20_23h51.59.093,Info_measure_main_exp,2022.2.2,Win32,60.20832079,,,,,,,,,,,,,,,,,,masks/mask_002.jpg,,,,,,,,,,,,,,,,,,,,,,,,,,,,,,,,,,,,,,,,,,,,,,,,0,1,1,1,1,,,,,,,,,,,,,,,,,,,,,,,,,,,,,,,,,,,,,,,,,
710832,001,2022-11-20_23h51.59.093,Info_measure_main_exp,2022.2.2,Win32,60.20832079,,,,,,,,,,,,,,,,,,masks/mask_001.jpg,,,,,,,,,,,,,,,,,,,,,,,,,,,,,,,,,,,,,,,,,,,,,,,,0,2,2,0,1,,,,,,,,,,,,,,,,,,,,,,,,,,,,,,,,,,,,,,,,,
710832,001,2022-11-20_23h51.59.093,Info_measure_main_exp,2022.2.2,Win32,60.20832079,,,,,,,,,,,,,,,,,,masks/mask_004.jpg,,,,,,,,,,,,,,,,,,,,,,,,,,,,,,,,,,,,,,,,,,,,,,,,0,3,3,3,1,,,,,,,,,,,,,,,,,,,,,,,,,,,,,,,,,,,,,,,,,
710832,001,2022-11-20_23h51.59.093,Info_measure_main_exp,2022.2.2,Win32,60.20832079,,,,,,,,,,,,,,,,,,masks/mask_003.jpg,,,,,,,,,,,,,,,,,,,,,,,,,,,,,,,,,,,,,,,,,,,,,,,,0,4,4,2,1,,,,,,,,,,,,,,,,,,,,,,,,,,,,,,,,,,,,,,,,,
710832,001,2022-11-20_23h51.59.093,Info_measure_main_exp,2022.2.2,Win32,60.20832079,,,,,,,,,,,,,,,,,,,,,,,,,,,,,,6,0.8838,1,,,,,,,,,,,,1,131,5,5,1,2166,present_patch/cong_131_5_a.jpg,absent_patch/patch0002166.jpg,,,,,,,,,,,,,,,,,,,,0.12037037,0.058333333,1,0,0,response1disk,29,-0.009259259,0.005555556,1,0,0,center_square,0,28,28,54,1,,,,,,,,,,,,,,,,,,,,,,,
710832,001,2022-11-20_23h51.59.093,Info_measure_main_exp,2022.2.2,Win32,60.20832079,,,,,,,,,,,,,,,,,,masks/mask_002.jpg,,,,,,,,,,,,,,,,,,,,,,,,,,,,,,,,,,,,,,,,,,,0,0,0,1,1,,,,,,,,,,,,,,,,,,,,,,,,,,,,,,,,,,,,,,,,,,,,,,
710832,001,2022-11-20_23h51.59.093,Info_measure_main_exp,2022.2.2,Win32,60.20832079,,,,,,,,,,,,,,,,,,masks/mask_001.jpg,,,,,,,,,,,,,,,,,,,,,,,,,,,,,,,,,,,,,,,,,,,0,1,1,0,1,,,,,,,,,,,,,,,,,,,,,,,,,,,,,,,,,,,,,,,,,,,,,,
710832,001,2022-11-20_23h51.59.093,Info_measure_main_exp,2022.2.2,Win32,60.20832079,,,,,,,,,,,,,,,,,,masks/mask_003.jpg,,,,,,,,,,,,,,,,,,,,,,,,,,,,,,,,,,,,,,,,,,,0,2,2,2,1,,,,,,,,,,,,,,,,,,,,,,,,,,,,,,,,,,,,,,,,,,,,,,
710832,001,2022-11-20_23h51.59.093,Info_measure_main_exp,2022.2.2,Win32,60.20832079,,,,,,,,,,,,,,,,,,masks/mask_005.jpg,,,,,,,,,,,,,,,,,,,,,,,,,,,,,,,,,,,,,,,,,,,0,3,3,4,1,,,,,,,,,,,,,,,,,,,,,,,,,,,,,,,,,,,,,,,,,,,,,,
710832,001,2022-11-20_23h51.59.093,Info_measure_main_exp,2022.2.2,Win32,60.20832079,,,,,,,,,,,,,,,,,,masks/mask_004.jpg,,,,,,,,,,,,,,,,,,,,,,,,,,,,,,,,,,,,,,,,,,,0,4,4,3,1,,,,,,,,,,,,,,,,,,,,,,,,,,,,,,,,,,,,,,,,,,,,,,
710832,001,2022-11-20_23h51.59.093,Info_measure_main_exp,2022.2.2,Win32,60.20832079,,,,,,,,,,,,,,,,,,masks/mask_002.jpg,,,,,,,,,,,,,,,,,,,,,,,,,,,,,,,,,,,,,,,,,,,,,,,,0,0,0,1,1,,,,,,,,,,,,,,,,,,,,,,,,,,,,,,,,,,,,,,,,,
710832,001,2022-11-20_23h51.59.093,Info_measure_main_exp,2022.2.2,Win32,60.20832079,,,,,,,,,,,,,,,,,,masks/mask_003.jpg,,,,,,,,,,,,,,,,,,,,,,,,,,,,,,,,,,,,,,,,,,,,,,,,0,1,1,2,1,,,,,,,,,,,,,,,,,,,,,,,,,,,,,,,,,,,,,,,,,
710832,001,2022-11-20_23h51.59.093,Info_measure_main_exp,2022.2.2,Win32,60.20832079,,,,,,,,,,,,,,,,,,masks/mask_004.jpg,,,,,,,,,,,,,,,,,,,,,,,,,,,,,,,,,,,,,,,,,,,,,,,,0,2,2,3,1,,,,,,,,,,,,,,,,,,,,,,,,,,,,,,,,,,,,,,,,,
710832,001,2022-11-20_23h51.59.093,Info_measure_main_exp,2022.2.2,Win32,60.20832079,,,,,,,,,,,,,,,,,,masks/mask_001.jpg,,,,,,,,,,,,,,,,,,,,,,,,,,,,,,,,,,,,,,,,,,,,,,,,0,3,3,0,1,,,,,,,,,,,,,,,,,,,,,,,,,,,,,,,,,,,,,,,,,
710832,001,2022-11-20_23h51.59.093,Info_measure_main_exp,2022.2.2,Win32,60.20832079,,,,,,,,,,,,,,,,,,masks/mask_005.jpg,,,,,,,,,,,,,,,,,,,,,,,,,,,,,,,,,,,,,,,,,,,,,,,,0,4,4,4,1,,,,,,,,,,,,,,,,,,,,,,,,,,,,,,,,,,,,,,,,,
710832,001,2022-11-20_23h51.59.093,Info_measure_main_exp,2022.2.2,Win32,60.20832079,,,,,,,,,,,,,,,,,,,,,,,,,,,,,,1,0.6337,1,,,,,,,,,,,,0,131,5,5,2238,2238,absent_patch/patch0002238.jpg,absent_patch/patch0002238.jpg,,,,,,,,,,,,,,,,,,,,-0.094444444,0.044444444,1,0,0,response7disk,30,-0.009259259,0.00462963,1,0,0,center_square,0,29,29,58,1,,,,,,,,,,,,,,,,,,,,,,,
710832,001,2022-11-20_23h51.59.093,Info_measure_main_exp,2022.2.2,Win32,60.20832079,,,,,,,,,,,,,,,,,,masks/mask_003.jpg,,,,,,,,,,,,,,,,,,,,,,,,,,,,,,,,,,,,,,,,,,,0,0,0,2,1,,,,,,,,,,,,,,,,,,,,,,,,,,,,,,,,,,,,,,,,,,,,,,
710832,001,2022-11-20_23h51.59.093,Info_measure_main_exp,2022.2.2,Win32,60.20832079,,,,,,,,,,,,,,,,,,masks/mask_004.jpg,,,,,,,,,,,,,,,,,,,,,,,,,,,,,,,,,,,,,,,,,,,0,1,1,3,1,,,,,,,,,,,,,,,,,,,,,,,,,,,,,,,,,,,,,,,,,,,,,,
710832,001,2022-11-20_23h51.59.093,Info_measure_main_exp,2022.2.2,Win32,60.20832079,,,,,,,,,,,,,,,,,,masks/mask_005.jpg,,,,,,,,,,,,,,,,,,,,,,,,,,,,,,,,,,,,,,,,,,,0,2,2,4,1,,,,,,,,,,,,,,,,,,,,,,,,,,,,,,,,,,,,,,,,,,,,,,
710832,001,2022-11-20_23h51.59.093,Info_measure_main_exp,2022.2.2,Win32,60.20832079,,,,,,,,,,,,,,,,,,masks/mask_001.jpg,,,,,,,,,,,,,,,,,,,,,,,,,,,,,,,,,,,,,,,,,,,0,3,3,0,1,,,,,,,,,,,,,,,,,,,,,,,,,,,,,,,,,,,,,,,,,,,,,,
710832,001,2022-11-20_23h51.59.093,Info_measure_main_exp,2022.2.2,Win32,60.20832079,,,,,,,,,,,,,,,,,,masks/mask_002.jpg,,,,,,,,,,,,,,,,,,,,,,,,,,,,,,,,,,,,,,,,,,,0,4,4,1,1,,,,,,,,,,,,,,,,,,,,,,,,,,,,,,,,,,,,,,,,,,,,,,
710832,001,2022-11-20_23h51.59.093,Info_measure_main_exp,2022.2.2,Win32,60.20832079,,,,,,,,,,,,,,,,,,masks/mask_001.jpg,,,,,,,,,,,,,,,,,,,,,,,,,,,,,,,,,,,,,,,,,,,,,,,,0,0,0,0,1,,,,,,,,,,,,,,,,,,,,,,,,,,,,,,,,,,,,,,,,,
710832,001,2022-11-20_23h51.59.093,Info_measure_main_exp,2022.2.2,Win32,60.20832079,,,,,,,,,,,,,,,,,,masks/mask_002.jpg,,,,,,,,,,,,,,,,,,,,,,,,,,,,,,,,,,,,,,,,,,,,,,,,0,1,1,1,1,,,,,,,,,,,,,,,,,,,,,,,,,,,,,,,,,,,,,,,,,
710832,001,2022-11-20_23h51.59.093,Info_measure_main_exp,2022.2.2,Win32,60.20832079,,,,,,,,,,,,,,,,,,masks/mask_004.jpg,,,,,,,,,,,,,,,,,,,,,,,,,,,,,,,,,,,,,,,,,,,,,,,,0,2,2,3,1,,,,,,,,,,,,,,,,,,,,,,,,,,,,,,,,,,,,,,,,,
710832,001,2022-11-20_23h51.59.093,Info_measure_main_exp,2022.2.2,Win32,60.20832079,,,,,,,,,,,,,,,,,,masks/mask_003.jpg,,,,,,,,,,,,,,,,,,,,,,,,,,,,,,,,,,,,,,,,,,,,,,,,0,3,3,2,1,,,,,,,,,,,,,,,,,,,,,,,,,,,,,,,,,,,,,,,,,
710832,001,2022-11-20_23h51.59.093,Info_measure_main_exp,2022.2.2,Win32,60.20832079,,,,,,,,,,,,,,,,,,masks/mask_005.jpg,,,,,,,,,,,,,,,,,,,,,,,,,,,,,,,,,,,,,,,,,,,,,,,,0,4,4,4,1,,,,,,,,,,,,,,,,,,,,,,,,,,,,,,,,,,,,,,,,,
710832,001,2022-11-20_23h51.59.093,Info_measure_main_exp,2022.2.2,Win32,60.20832079,,,,,,,,,,,,,,,,,,,,,,,,,,,,,,6,0.9175,1,,,,,,,,,,,,0,131,5,5,1950,2298,absent_patch/patch0001950.jpg,absent_patch/patch0002298.jpg,,,,,,,,,,,,,,,,,,,,0.159259259,0.060185185,1,0,0,response1disk,31,0.003703704,0.007407407,1,0,0,center_square,0,30,30,18,1,,,,,,,,,,,,,,,,,,,,,,,
710832,001,2022-11-20_23h51.59.093,Info_measure_main_exp,2022.2.2,Win32,60.20832079,,,,,,,,,,,,,,,,,,masks/mask_005.jpg,,,,,,,,,,,,,,,,,,,,,,,,,,,,,,,,,,,,,,,,,,,0,0,0,4,1,,,,,,,,,,,,,,,,,,,,,,,,,,,,,,,,,,,,,,,,,,,,,,
710832,001,2022-11-20_23h51.59.093,Info_measure_main_exp,2022.2.2,Win32,60.20832079,,,,,,,,,,,,,,,,,,masks/mask_002.jpg,,,,,,,,,,,,,,,,,,,,,,,,,,,,,,,,,,,,,,,,,,,0,1,1,1,1,,,,,,,,,,,,,,,,,,,,,,,,,,,,,,,,,,,,,,,,,,,,,,
710832,001,2022-11-20_23h51.59.093,Info_measure_main_exp,2022.2.2,Win32,60.20832079,,,,,,,,,,,,,,,,,,masks/mask_003.jpg,,,,,,,,,,,,,,,,,,,,,,,,,,,,,,,,,,,,,,,,,,,0,2,2,2,1,,,,,,,,,,,,,,,,,,,,,,,,,,,,,,,,,,,,,,,,,,,,,,
710832,001,2022-11-20_23h51.59.093,Info_measure_main_exp,2022.2.2,Win32,60.20832079,,,,,,,,,,,,,,,,,,masks/mask_004.jpg,,,,,,,,,,,,,,,,,,,,,,,,,,,,,,,,,,,,,,,,,,,0,3,3,3,1,,,,,,,,,,,,,,,,,,,,,,,,,,,,,,,,,,,,,,,,,,,,,,
710832,001,2022-11-20_23h51.59.093,Info_measure_main_exp,2022.2.2,Win32,60.20832079,,,,,,,,,,,,,,,,,,masks/mask_001.jpg,,,,,,,,,,,,,,,,,,,,,,,,,,,,,,,,,,,,,,,,,,,0,4,4,0,1,,,,,,,,,,,,,,,,,,,,,,,,,,,,,,,,,,,,,,,,,,,,,,
710832,001,2022-11-20_23h51.59.093,Info_measure_main_exp,2022.2.2,Win32,60.20832079,,,,,,,,,,,,,,,,,,masks/mask_005.jpg,,,,,,,,,,,,,,,,,,,,,,,,,,,,,,,,,,,,,,,,,,,,,,,,0,0,0,4,1,,,,,,,,,,,,,,,,,,,,,,,,,,,,,,,,,,,,,,,,,
710832,001,2022-11-20_23h51.59.093,Info_measure_main_exp,2022.2.2,Win32,60.20832079,,,,,,,,,,,,,,,,,,masks/mask_004.jpg,,,,,,,,,,,,,,,,,,,,,,,,,,,,,,,,,,,,,,,,,,,,,,,,0,1,1,3,1,,,,,,,,,,,,,,,,,,,,,,,,,,,,,,,,,,,,,,,,,
710832,001,2022-11-20_23h51.59.093,Info_measure_main_exp,2022.2.2,Win32,60.20832079,,,,,,,,,,,,,,,,,,masks/mask_001.jpg,,,,,,,,,,,,,,,,,,,,,,,,,,,,,,,,,,,,,,,,,,,,,,,,0,2,2,0,1,,,,,,,,,,,,,,,,,,,,,,,,,,,,,,,,,,,,,,,,,
710832,001,2022-11-20_23h51.59.093,Info_measure_main_exp,2022.2.2,Win32,60.20832079,,,,,,,,,,,,,,,,,,masks/mask_003.jpg,,,,,,,,,,,,,,,,,,,,,,,,,,,,,,,,,,,,,,,,,,,,,,,,0,3,3,2,1,,,,,,,,,,,,,,,,,,,,,,,,,,,,,,,,,,,,,,,,,
710832,001,2022-11-20_23h51.59.093,Info_measure_main_exp,2022.2.2,Win32,60.20832079,,,,,,,,,,,,,,,,,,masks/mask_002.jpg,,,,,,,,,,,,,,,,,,,,,,,,,,,,,,,,,,,,,,,,,,,,,,,,0,4,4,1,1,,,,,,,,,,,,,,,,,,,,,,,,,,,,,,,,,,,,,,,,,
710832,001,2022-11-20_23h51.59.093,Info_measure_main_exp,2022.2.2,Win32,60.20832079,,,,,,,,,,,,,,,,,,,,,,,,,,,,,,7,0.8008,1,,,,,,,,,,,,0,131,5,5,1986,1974,absent_patch/patch0001986.jpg,absent_patch/patch0001974.jpg,,,,,,,,,,,,,,,,,,,,0.051851852,0.082407407,1,0,0,response1disk,32,0.001851852,0.011111111,1,0,0,center_square,0,31,31,25,1,,,,,,,,,,,,,,,,,,,,,,,
710832,001,2022-11-20_23h51.59.093,Info_measure_main_exp,2022.2.2,Win32,60.20832079,,,,,,,,,,,,,,,,,,masks/mask_001.jpg,,,,,,,,,,,,,,,,,,,,,,,,,,,,,,,,,,,,,,,,,,,0,0,0,0,1,,,,,,,,,,,,,,,,,,,,,,,,,,,,,,,,,,,,,,,,,,,,,,
710832,001,2022-11-20_23h51.59.093,Info_measure_main_exp,2022.2.2,Win32,60.20832079,,,,,,,,,,,,,,,,,,masks/mask_002.jpg,,,,,,,,,,,,,,,,,,,,,,,,,,,,,,,,,,,,,,,,,,,0,1,1,1,1,,,,,,,,,,,,,,,,,,,,,,,,,,,,,,,,,,,,,,,,,,,,,,
710832,001,2022-11-20_23h51.59.093,Info_measure_main_exp,2022.2.2,Win32,60.20832079,,,,,,,,,,,,,,,,,,masks/mask_004.jpg,,,,,,,,,,,,,,,,,,,,,,,,,,,,,,,,,,,,,,,,,,,0,2,2,3,1,,,,,,,,,,,,,,,,,,,,,,,,,,,,,,,,,,,,,,,,,,,,,,
710832,001,2022-11-20_23h51.59.093,Info_measure_main_exp,2022.2.2,Win32,60.20832079,,,,,,,,,,,,,,,,,,masks/mask_003.jpg,,,,,,,,,,,,,,,,,,,,,,,,,,,,,,,,,,,,,,,,,,,0,3,3,2,1,,,,,,,,,,,,,,,,,,,,,,,,,,,,,,,,,,,,,,,,,,,,,,
710832,001,2022-11-20_23h51.59.093,Info_measure_main_exp,2022.2.2,Win32,60.20832079,,,,,,,,,,,,,,,,,,masks/mask_005.jpg,,,,,,,,,,,,,,,,,,,,,,,,,,,,,,,,,,,,,,,,,,,0,4,4,4,1,,,,,,,,,,,,,,,,,,,,,,,,,,,,,,,,,,,,,,,,,,,,,,
710832,001,2022-11-20_23h51.59.093,Info_measure_main_exp,2022.2.2,Win32,60.20832079,,,,,,,,,,,,,,,,,,masks/mask_004.jpg,,,,,,,,,,,,,,,,,,,,,,,,,,,,,,,,,,,,,,,,,,,,,,,,0,0,0,3,1,,,,,,,,,,,,,,,,,,,,,,,,,,,,,,,,,,,,,,,,,
710832,001,2022-11-20_23h51.59.093,Info_measure_main_exp,2022.2.2,Win32,60.20832079,,,,,,,,,,,,,,,,,,masks/mask_003.jpg,,,,,,,,,,,,,,,,,,,,,,,,,,,,,,,,,,,,,,,,,,,,,,,,0,1,1,2,1,,,,,,,,,,,,,,,,,,,,,,,,,,,,,,,,,,,,,,,,,
710832,001,2022-11-20_23h51.59.093,Info_measure_main_exp,2022.2.2,Win32,60.20832079,,,,,,,,,,,,,,,,,,masks/mask_005.jpg,,,,,,,,,,,,,,,,,,,,,,,,,,,,,,,,,,,,,,,,,,,,,,,,0,2,2,4,1,,,,,,,,,,,,,,,,,,,,,,,,,,,,,,,,,,,,,,,,,
710832,001,2022-11-20_23h51.59.093,Info_measure_main_exp,2022.2.2,Win32,60.20832079,,,,,,,,,,,,,,,,,,masks/mask_001.jpg,,,,,,,,,,,,,,,,,,,,,,,,,,,,,,,,,,,,,,,,,,,,,,,,0,3,3,0,1,,,,,,,,,,,,,,,,,,,,,,,,,,,,,,,,,,,,,,,,,
710832,001,2022-11-20_23h51.59.093,Info_measure_main_exp,2022.2.2,Win32,60.20832079,,,,,,,,,,,,,,,,,,masks/mask_002.jpg,,,,,,,,,,,,,,,,,,,,,,,,,,,,,,,,,,,,,,,,,,,,,,,,0,4,4,1,1,,,,,,,,,,,,,,,,,,,,,,,,,,,,,,,,,,,,,,,,,
710832,001,2022-11-20_23h51.59.093,Info_measure_main_exp,2022.2.2,Win32,60.20832079,,,,,,,,,,,,,,,,,,,,,,,,,,,,,,6,0.5006,1,,,,,,,,,,,,0,131,5,5,2190,2082,absent_patch/patch0002190.jpg,absent_patch/patch0002082.jpg,,,,,,,,,,,,,,,,,,,,0.108333333,0.047222222,1,0,0,response1disk,33,-0.002777778,0.001851852,1,0,0,center_square,0,32,32,112,1,,,,,,,,,,,,,,,,,,,,,,,
710832,001,2022-11-20_23h51.59.093,Info_measure_main_exp,2022.2.2,Win32,60.20832079,,,,,,,,,,,,,,,,,,masks/mask_004.jpg,,,,,,,,,,,,,,,,,,,,,,,,,,,,,,,,,,,,,,,,,,,0,0,0,3,1,,,,,,,,,,,,,,,,,,,,,,,,,,,,,,,,,,,,,,,,,,,,,,
710832,001,2022-11-20_23h51.59.093,Info_measure_main_exp,2022.2.2,Win32,60.20832079,,,,,,,,,,,,,,,,,,masks/mask_005.jpg,,,,,,,,,,,,,,,,,,,,,,,,,,,,,,,,,,,,,,,,,,,0,1,1,4,1,,,,,,,,,,,,,,,,,,,,,,,,,,,,,,,,,,,,,,,,,,,,,,
710832,001,2022-11-20_23h51.59.093,Info_measure_main_exp,2022.2.2,Win32,60.20832079,,,,,,,,,,,,,,,,,,masks/mask_001.jpg,,,,,,,,,,,,,,,,,,,,,,,,,,,,,,,,,,,,,,,,,,,0,2,2,0,1,,,,,,,,,,,,,,,,,,,,,,,,,,,,,,,,,,,,,,,,,,,,,,
710832,001,2022-11-20_23h51.59.093,Info_measure_main_exp,2022.2.2,Win32,60.20832079,,,,,,,,,,,,,,,,,,masks/mask_003.jpg,,,,,,,,,,,,,,,,,,,,,,,,,,,,,,,,,,,,,,,,,,,0,3,3,2,1,,,,,,,,,,,,,,,,,,,,,,,,,,,,,,,,,,,,,,,,,,,,,,
710832,001,2022-11-20_23h51.59.093,Info_measure_main_exp,2022.2.2,Win32,60.20832079,,,,,,,,,,,,,,,,,,masks/mask_002.jpg,,,,,,,,,,,,,,,,,,,,,,,,,,,,,,,,,,,,,,,,,,,0,4,4,1,1,,,,,,,,,,,,,,,,,,,,,,,,,,,,,,,,,,,,,,,,,,,,,,
710832,001,2022-11-20_23h51.59.093,Info_measure_main_exp,2022.2.2,Win32,60.20832079,,,,,,,,,,,,,,,,,,masks/mask_003.jpg,,,,,,,,,,,,,,,,,,,,,,,,,,,,,,,,,,,,,,,,,,,,,,,,0,0,0,2,1,,,,,,,,,,,,,,,,,,,,,,,,,,,,,,,,,,,,,,,,,
710832,001,2022-11-20_23h51.59.093,Info_measure_main_exp,2022.2.2,Win32,60.20832079,,,,,,,,,,,,,,,,,,masks/mask_004.jpg,,,,,,,,,,,,,,,,,,,,,,,,,,,,,,,,,,,,,,,,,,,,,,,,0,1,1,3,1,,,,,,,,,,,,,,,,,,,,,,,,,,,,,,,,,,,,,,,,,
710832,001,2022-11-20_23h51.59.093,Info_measure_main_exp,2022.2.2,Win32,60.20832079,,,,,,,,,,,,,,,,,,masks/mask_005.jpg,,,,,,,,,,,,,,,,,,,,,,,,,,,,,,,,,,,,,,,,,,,,,,,,0,2,2,4,1,,,,,,,,,,,,,,,,,,,,,,,,,,,,,,,,,,,,,,,,,
710832,001,2022-11-20_23h51.59.093,Info_measure_main_exp,2022.2.2,Win32,60.20832079,,,,,,,,,,,,,,,,,,masks/mask_001.jpg,,,,,,,,,,,,,,,,,,,,,,,,,,,,,,,,,,,,,,,,,,,,,,,,0,3,3,0,1,,,,,,,,,,,,,,,,,,,,,,,,,,,,,,,,,,,,,,,,,
710832,001,2022-11-20_23h51.59.093,Info_measure_main_exp,2022.2.2,Win32,60.20832079,,,,,,,,,,,,,,,,,,masks/mask_002.jpg,,,,,,,,,,,,,,,,,,,,,,,,,,,,,,,,,,,,,,,,,,,,,,,,0,4,4,1,1,,,,,,,,,,,,,,,,,,,,,,,,,,,,,,,,,,,,,,,,,
710832,001,2022-11-20_23h51.59.093,Info_measure_main_exp,2022.2.2,Win32,60.20832079,,,,,,,,,,,,,,,,,,,,,,,,,,,,,,6,0.7006,1,,,,,,,,,,,,0,131,5,5,2250,1986,absent_patch/patch0002250.jpg,absent_patch/patch0001986.jpg,,,,,,,,,,,,,,,,,,,,0.077777778,0.027777778,1,0,0,response1disk,34,-0.002777778,-0.000925926,1,0,0,center_square,0,33,33,29,1,,,,,,,,,,,,,,,,,,,,,,,
710832,001,2022-11-20_23h51.59.093,Info_measure_main_exp,2022.2.2,Win32,60.20832079,,,,,,,,,,,,,,,,,,masks/mask_002.jpg,,,,,,,,,,,,,,,,,,,,,,,,,,,,,,,,,,,,,,,,,,,0,0,0,1,1,,,,,,,,,,,,,,,,,,,,,,,,,,,,,,,,,,,,,,,,,,,,,,
710832,001,2022-11-20_23h51.59.093,Info_measure_main_exp,2022.2.2,Win32,60.20832079,,,,,,,,,,,,,,,,,,masks/mask_005.jpg,,,,,,,,,,,,,,,,,,,,,,,,,,,,,,,,,,,,,,,,,,,0,1,1,4,1,,,,,,,,,,,,,,,,,,,,,,,,,,,,,,,,,,,,,,,,,,,,,,
710832,001,2022-11-20_23h51.59.093,Info_measure_main_exp,2022.2.2,Win32,60.20832079,,,,,,,,,,,,,,,,,,masks/mask_003.jpg,,,,,,,,,,,,,,,,,,,,,,,,,,,,,,,,,,,,,,,,,,,0,2,2,2,1,,,,,,,,,,,,,,,,,,,,,,,,,,,,,,,,,,,,,,,,,,,,,,
710832,001,2022-11-20_23h51.59.093,Info_measure_main_exp,2022.2.2,Win32,60.20832079,,,,,,,,,,,,,,,,,,masks/mask_001.jpg,,,,,,,,,,,,,,,,,,,,,,,,,,,,,,,,,,,,,,,,,,,0,3,3,0,1,,,,,,,,,,,,,,,,,,,,,,,,,,,,,,,,,,,,,,,,,,,,,,
710832,001,2022-11-20_23h51.59.093,Info_measure_main_exp,2022.2.2,Win32,60.20832079,,,,,,,,,,,,,,,,,,masks/mask_004.jpg,,,,,,,,,,,,,,,,,,,,,,,,,,,,,,,,,,,,,,,,,,,0,4,4,3,1,,,,,,,,,,,,,,,,,,,,,,,,,,,,,,,,,,,,,,,,,,,,,,
710832,001,2022-11-20_23h51.59.093,Info_measure_main_exp,2022.2.2,Win32,60.20832079,,,,,,,,,,,,,,,,,,masks/mask_002.jpg,,,,,,,,,,,,,,,,,,,,,,,,,,,,,,,,,,,,,,,,,,,,,,,,0,0,0,1,1,,,,,,,,,,,,,,,,,,,,,,,,,,,,,,,,,,,,,,,,,
710832,001,2022-11-20_23h51.59.093,Info_measure_main_exp,2022.2.2,Win32,60.20832079,,,,,,,,,,,,,,,,,,masks/mask_005.jpg,,,,,,,,,,,,,,,,,,,,,,,,,,,,,,,,,,,,,,,,,,,,,,,,0,1,1,4,1,,,,,,,,,,,,,,,,,,,,,,,,,,,,,,,,,,,,,,,,,
710832,001,2022-11-20_23h51.59.093,Info_measure_main_exp,2022.2.2,Win32,60.20832079,,,,,,,,,,,,,,,,,,masks/mask_003.jpg,,,,,,,,,,,,,,,,,,,,,,,,,,,,,,,,,,,,,,,,,,,,,,,,0,2,2,2,1,,,,,,,,,,,,,,,,,,,,,,,,,,,,,,,,,,,,,,,,,
710832,001,2022-11-20_23h51.59.093,Info_measure_main_exp,2022.2.2,Win32,60.20832079,,,,,,,,,,,,,,,,,,masks/mask_001.jpg,,,,,,,,,,,,,,,,,,,,,,,,,,,,,,,,,,,,,,,,,,,,,,,,0,3,3,0,1,,,,,,,,,,,,,,,,,,,,,,,,,,,,,,,,,,,,,,,,,
