participant,session,date,expName,psychopyVersion,OS,frameRate,space_press_continue.keys,space_press_continue.rt,space_press_continue_2.keys,space_press_continue_2.rt,space_press_continue_3.keys,space_press_continue_3.rt,space_press_continue_4.keys,space_press_continue_4.rt,space_press_continue_5.keys,space_press_continue_5.rt,space_press_continue_6.keys,space_press_continue_6.rt,prac_mask_loop_1.thisRepN,prac_mask_loop_1.thisTrialN,prac_mask_loop_1.thisN,prac_mask_loop_1.thisIndex,prac_mask_loop_1.ran,mask_name,prac_mask_loop_2.thisRepN,prac_mask_loop_2.thisTrialN,prac_mask_loop_2.thisN,prac_mask_loop_2.thisIndex,prac_mask_loop_2.ran,mouse_2.x,mouse_2.y,mouse_2.leftButton,mouse_2.midButton,mouse_2.rightButton,mouse_2.clicked_name,similarity,response_time,Pass,mouse_12.x,mouse_12.y,mouse_12.leftButton,mouse_12.midButton,mouse_12.rightButton,mouse_12.clicked_name,prac_loop.thisRepN,prac_loop.thisTrialN,prac_loop.thisN,prac_loop.thisIndex,prac_loop.ran,Pair_type,Image_num,Patch_1_loc,Patch_2_loc,Patch_1_info,Patch_2_info,Patch_1_name,Patch_2_name,mouse_1.x,mouse_1.y,mouse_1.leftButton,mouse_1.midButton,mouse_1.rightButton,mouse_1.time,mouse_1.clicked_name,space_press_continue_7.keys,space_press_continue_7.rt,mask_loop.thisRepN,mask_loop.thisTrialN,mask_loop.thisN,mask_loop.thisIndex,mask_loop.ran,mask_loop_2.thisRepN,mask_loop_2.thisTrialN,mask_loop_2.thisN,mask_loop_2.thisIndex,mask_loop_2.ran,mouse.x,mouse.y,mouse.leftButton,mouse.midButton,mouse.rightButton,mouse.clicked_name,trialNumber,mouse_11.x,mouse_11.y,mouse_11.leftButton,mouse_11.midButton,mouse_11.rightButton,mouse_11.clicked_name,first_pass_loop.thisRepN,first_pass_loop.thisTrialN,first_pass_loop.thisN,first_pass_loop.thisIndex,first_pass_loop.ran,mask_loop_3.thisRepN,mask_loop_3.thisTrialN,mask_loop_3.thisN,mask_loop_3.thisIndex,mask_loop_3.ran,mask_loop_4.thisRepN,mask_loop_4.thisTrialN,mask_loop_4.thisN,mask_loop_4.thisIndex,mask_loop_4.ran,mouse_3.x,mouse_3.y,mouse_3.leftButton,mouse_3.midButton,mouse_3.rightButton,mouse_3.clicked_name,double_pass_loop.thisRepN,double_pass_loop.thisTrialN,double_pass_loop.thisN,double_pass_loop.thisIndex,double_pass_loop.ran,space_exit.keys,space_exit.rt
710800,001,2022-11-20_23h51.10.321,Info_measure_main_exp,2022.2.2,Win32,144.1129846,,,,,,,,,,,,,,,,,,,,,,,,,,,,,,,,,,,,,,,,,,,,,,,,,,,,,,,,,,,,,,,,,,,,,,,,,,,,,,,,,,,,,,,,,,,,,,,,,,,,,,,,,,,,,,,
710800,001,2022-11-20_23h51.10.321,Info_measure_main_exp,2022.2.2,Win32,144.1129846,,,,,,,,,,,,,,,,,,,,,,,,,,,,,,,,,,,,,,,,,,,,,,,,,,,,,,,,,,,,,,,,,,,,,,,,,,,,,,,,,,,,,,,,,,,,,,,,,,,,,,,,,,,,,,,
710800,001,2022-11-20_23h51.10.321,Info_measure_main_exp,2022.2.2,Win32,144.1129846,space,12.0374,,,,,,,,,,,,,,,,,,,,,,,,,,,,,,,,,,,,,,,,,,,,,,,,,,,,,,,,,,,,,,,,,,,,,,,,,,,,,,,,,,,,,,,,,,,,,,,,,,,,,,,,,,,,,
710800,001,2022-11-20_23h51.10.321,Info_measure_main_exp,2022.2.2,Win32,144.1129846,,,space,17.5793,,,,,,,,,,,,,,,,,,,,,,,,,,,,,,,,,,,,,,,,,,,,,,,,,,,,,,,,,,,,,,,,,,,,,,,,,,,,,,,,,,,,,,,,,,,,,,,,,,,,,,,,,,,
710800,001,2022-11-20_23h51.10.321,Info_measure_main_exp,2022.2.2,Win32,144.1129846,,,,,space,10.838,,,,,,,,,,,,,,,,,,,,,,,,,,,,,,,,,,,,,,,,,,,,,,,,,,,,,,,,,,,,,,,,,,,,,,,,,,,,,,,,,,,,,,,,,,,,,,,,,,,,,,,,,
710800,001,2022-11-20_23h51.10.321,Info_measure_main_exp,2022.2.2,Win32,144.1129846,,,,,,,space,24.9845,,,,,,,,,,,,,,,,,,,,,,,,,,,,,,,,,,,,,,,,,,,,,,,,,,,,,,,,,,,,,,,,,,,,,,,,,,,,,,,,,,,,,,,,,,,,,,,,,,,,,,,
710800,001,2022-11-20_23h51.10.321,Info_measure_main_exp,2022.2.2,Win32,144.1129846,,,,,,,,,space,12.8166,,,,,,,,,,,,,,,,,,,,,,,,,,,,,,,,,,,,,,,,,,,,,,,,,,,,,,,,,,,,,,,,,,,,,,,,,,,,,,,,,,,,,,,,,,,,,,,,,,,,,
710800,001,2022-11-20_23h51.10.321,Info_measure_main_exp,2022.2.2,Win32,144.1129846,,,,,,,,,,,space,6.6897,,,,,,,,,,,,,,,,,,,,,,,,,,,,,,,,,,,,,,,,,,,,,,,,,,,,,,,,,,,,,,,,,,,,,,,,,,,,,,,,,,,,,,,,,,,,,,,,,,,
710800,001,2022-11-20_23h51.10.321,Info_measure_main_exp,2022.2.2,Win32,144.1129846,,,,,,,,,,,,,0,0,0,1,1,masks/mask_002.jpg,,,,,,,,,,,,,,,,,,,,,,,,,,,,,,,,,,,,,,,,,,,,,,,,,,,,,,,,,,,,,,,,,,,,,,,,,,,,,,,,,,,,,,,,,,,,,
710800,001,2022-11-20_23h51.10.321,Info_measure_main_exp,2022.2.2,Win32,144.1129846,,,,,,,,,,,,,0,1,1,2,1,masks/mask_003.jpg,,,,,,,,,,,,,,,,,,,,,,,,,,,,,,,,,,,,,,,,,,,,,,,,,,,,,,,,,,,,,,,,,,,,,,,,,,,,,,,,,,,,,,,,,,,,,
710800,001,2022-11-20_23h51.10.321,Info_measure_main_exp,2022.2.2,Win32,144.1129846,,,,,,,,,,,,,0,2,2,0,1,masks/mask_001.jpg,,,,,,,,,,,,,,,,,,,,,,,,,,,,,,,,,,,,,,,,,,,,,,,,,,,,,,,,,,,,,,,,,,,,,,,,,,,,,,,,,,,,,,,,,,,,,
710800,001,2022-11-20_23h51.10.321,Info_measure_main_exp,2022.2.2,Win32,144.1129846,,,,,,,,,,,,,0,3,3,3,1,masks/mask_004.jpg,,,,,,,,,,,,,,,,,,,,,,,,,,,,,,,,,,,,,,,,,,,,,,,,,,,,,,,,,,,,,,,,,,,,,,,,,,,,,,,,,,,,,,,,,,,,,
710800,001,2022-11-20_23h51.10.321,Info_measure_main_exp,2022.2.2,Win32,144.1129846,,,,,,,,,,,,,0,4,4,4,1,masks/mask_005.jpg,,,,,,,,,,,,,,,,,,,,,,,,,,,,,,,,,,,,,,,,,,,,,,,,,,,,,,,,,,,,,,,,,,,,,,,,,,,,,,,,,,,,,,,,,,,,,
710800,001,2022-11-20_23h51.10.321,Info_measure_main_exp,2022.2.2,Win32,144.1129846,,,,,,,,,,,,,,,,,,masks/mask_005.jpg,0,0,0,4,1,,,,,,,,,,,,,,,,,,,,,,,,,,,,,,,,,,,,,,,,,,,,,,,,,,,,,,,,,,,,,,,,,,,,,,,,,,,,,,,,,,,,,,,,
710800,001,2022-11-20_23h51.10.321,Info_measure_main_exp,2022.2.2,Win32,144.1129846,,,,,,,,,,,,,,,,,,masks/mask_001.jpg,0,1,1,0,1,,,,,,,,,,,,,,,,,,,,,,,,,,,,,,,,,,,,,,,,,,,,,,,,,,,,,,,,,,,,,,,,,,,,,,,,,,,,,,,,,,,,,,,,
710800,001,2022-11-20_23h51.10.321,Info_measure_main_exp,2022.2.2,Win32,144.1129846,,,,,,,,,,,,,,,,,,masks/mask_003.jpg,0,2,2,2,1,,,,,,,,,,,,,,,,,,,,,,,,,,,,,,,,,,,,,,,,,,,,,,,,,,,,,,,,,,,,,,,,,,,,,,,,,,,,,,,,,,,,,,,,
710800,001,2022-11-20_23h51.10.321,Info_measure_main_exp,2022.2.2,Win32,144.1129846,,,,,,,,,,,,,,,,,,masks/mask_004.jpg,0,3,3,3,1,,,,,,,,,,,,,,,,,,,,,,,,,,,,,,,,,,,,,,,,,,,,,,,,,,,,,,,,,,,,,,,,,,,,,,,,,,,,,,,,,,,,,,,,
710800,001,2022-11-20_23h51.10.321,Info_measure_main_exp,2022.2.2,Win32,144.1129846,,,,,,,,,,,,,,,,,,masks/mask_002.jpg,0,4,4,1,1,,,,,,,,,,,,,,,,,,,,,,,,,,,,,,,,,,,,,,,,,,,,,,,,,,,,,,,,,,,,,,,,,,,,,,,,,,,,,,,,,,,,,,,,
710800,001,2022-11-20_23h51.10.321,Info_measure_main_exp,2022.2.2,Win32,144.1129846,,,,,,,,,,,,,,,,,,,,,,,,-0.050925926,-0.077777792,1,0,0,response5disk,3,92.0222,1,-0.014814801,0.002777771,1,0,0,center_square,0,0,0,1,1,0,131,5,5,2514,2490,prac_patch/patch0002514.jpg,prac_patch/patch0002490.jpg,,,,,,,,,,,,,,,,,,,,,,,,,,,,,,,,,,,,,,,,,,,,,,,,,,,,,,,,,,,,
710800,001,2022-11-20_23h51.10.321,Info_measure_main_exp,2022.2.2,Win32,144.1129846,,,,,,,,,,,,,0,0,0,0,1,masks/mask_001.jpg,,,,,,,,,,,,,,,,,,,,,,,,,,,,,,,,,,,,,,,,,,,,,,,,,,,,,,,,,,,,,,,,,,,,,,,,,,,,,,,,,,,,,,,,,,,,,
710800,001,2022-11-20_23h51.10.321,Info_measure_main_exp,2022.2.2,Win32,144.1129846,,,,,,,,,,,,,0,1,1,3,1,masks/mask_004.jpg,,,,,,,,,,,,,,,,,,,,,,,,,,,,,,,,,,,,,,,,,,,,,,,,,,,,,,,,,,,,,,,,,,,,,,,,,,,,,,,,,,,,,,,,,,,,,
710800,001,2022-11-20_23h51.10.321,Info_measure_main_exp,2022.2.2,Win32,144.1129846,,,,,,,,,,,,,0,2,2,1,1,masks/mask_002.jpg,,,,,,,,,,,,,,,,,,,,,,,,,,,,,,,,,,,,,,,,,,,,,,,,,,,,,,,,,,,,,,,,,,,,,,,,,,,,,,,,,,,,,,,,,,,,,
710800,001,2022-11-20_23h51.10.321,Info_measure_main_exp,2022.2.2,Win32,144.1129846,,,,,,,,,,,,,0,3,3,2,1,masks/mask_003.jpg,,,,,,,,,,,,,,,,,,,,,,,,,,,,,,,,,,,,,,,,,,,,,,,,,,,,,,,,,,,,,,,,,,,,,,,,,,,,,,,,,,,,,,,,,,,,,
710800,001,2022-11-20_23h51.10.321,Info_measure_main_exp,2022.2.2,Win32,144.1129846,,,,,,,,,,,,,0,4,4,4,1,masks/mask_005.jpg,,,,,,,,,,,,,,,,,,,,,,,,,,,,,,,,,,,,,,,,,,,,,,,,,,,,,,,,,,,,,,,,,,,,,,,,,,,,,,,,,,,,,,,,,,,,,
710800,001,2022-11-20_23h51.10.321,Info_measure_main_exp,2022.2.2,Win32,144.1129846,,,,,,,,,,,,,,,,,,masks/mask_001.jpg,0,0,0,0,1,,,,,,,,,,,,,,,,,,,,,,,,,,,,,,,,,,,,,,,,,,,,,,,,,,,,,,,,,,,,,,,,,,,,,,,,,,,,,,,,,,,,,,,,
710800,001,2022-11-20_23h51.10.321,Info_measure_main_exp,2022.2.2,Win32,144.1129846,,,,,,,,,,,,,,,,,,masks/mask_002.jpg,0,1,1,1,1,,,,,,,,,,,,,,,,,,,,,,,,,,,,,,,,,,,,,,,,,,,,,,,,,,,,,,,,,,,,,,,,,,,,,,,,,,,,,,,,,,,,,,,,
710800,001,2022-11-20_23h51.10.321,Info_measure_main_exp,2022.2.2,Win32,144.1129846,,,,,,,,,,,,,,,,,,masks/mask_004.jpg,0,2,2,3,1,,,,,,,,,,,,,,,,,,,,,,,,,,,,,,,,,,,,,,,,,,,,,,,,,,,,,,,,,,,,,,,,,,,,,,,,,,,,,,,,,,,,,,,,
710800,001,2022-11-20_23h51.10.321,Info_measure_main_exp,2022.2.2,Win32,144.1129846,,,,,,,,,,,,,,,,,,masks/mask_005.jpg,0,3,3,4,1,,,,,,,,,,,,,,,,,,,,,,,,,,,,,,,,,,,,,,,,,,,,,,,,,,,,,,,,,,,,,,,,,,,,,,,,,,,,,,,,,,,,,,,,
710800,001,2022-11-20_23h51.10.321,Info_measure_main_exp,2022.2.2,Win32,144.1129846,,,,,,,,,,,,,,,,,,masks/mask_003.jpg,0,4,4,2,1,,,,,,,,,,,,,,,,,,,,,,,,,,,,,,,,,,,,,,,,,,,,,,,,,,,,,,,,,,,,,,,,,,,,,,,,,,,,,,,,,,,,,,,,
710800,001,2022-11-20_23h51.10.321,Info_measure_main_exp,2022.2.2,Win32,144.1129846,,,,,,,,,,,,,,,,,,,,,,,,0.069444444,0.104629623,1,0,0,response1disk,7,102.8163,1,-0.000925912,0.000925912,1,0,0,center_square,0,1,1,0,1,0,131,5,5,2370,2406,prac_patch/patch0002370.jpg,prac_patch/patch0002406.jpg,,,,,,,,,,,,,,,,,,,,,,,,,,,,,,,,,,,,,,,,,,,,,,,,,,,,,,,,,,,,
710800,001,2022-11-20_23h51.10.321,Info_measure_main_exp,2022.2.2,Win32,144.1129846,,,,,,,,,,,,,0,0,0,3,1,masks/mask_004.jpg,,,,,,,,,,,,,,,,,,,,,,,,,,,,,,,,,,,,,,,,,,,,,,,,,,,,,,,,,,,,,,,,,,,,,,,,,,,,,,,,,,,,,,,,,,,,,
710800,001,2022-11-20_23h51.10.321,Info_measure_main_exp,2022.2.2,Win32,144.1129846,,,,,,,,,,,,,0,1,1,1,1,masks/mask_002.jpg,,,,,,,,,,,,,,,,,,,,,,,,,,,,,,,,,,,,,,,,,,,,,,,,,,,,,,,,,,,,,,,,,,,,,,,,,,,,,,,,,,,,,,,,,,,,,
710800,001,2022-11-20_23h51.10.321,Info_measure_main_exp,2022.2.2,Win32,144.1129846,,,,,,,,,,,,,0,2,2,0,1,masks/mask_001.jpg,,,,,,,,,,,,,,,,,,,,,,,,,,,,,,,,,,,,,,,,,,,,,,,,,,,,,,,,,,,,,,,,,,,,,,,,,,,,,,,,,,,,,,,,,,,,,
710800,001,2022-11-20_23h51.10.321,Info_measure_main_exp,2022.2.2,Win32,144.1129846,,,,,,,,,,,,,0,3,3,2,1,masks/mask_003.jpg,,,,,,,,,,,,,,,,,,,,,,,,,,,,,,,,,,,,,,,,,,,,,,,,,,,,,,,,,,,,,,,,,,,,,,,,,,,,,,,,,,,,,,,,,,,,,
710800,001,2022-11-20_23h51.10.321,Info_measure_main_exp,2022.2.2,Win32,144.1129846,,,,,,,,,,,,,0,4,4,4,1,masks/mask_005.jpg,,,,,,,,,,,,,,,,,,,,,,,,,,,,,,,,,,,,,,,,,,,,,,,,,,,,,,,,,,,,,,,,,,,,,,,,,,,,,,,,,,,,,,,,,,,,,
710800,001,2022-11-20_23h51.10.321,Info_measure_main_exp,2022.2.2,Win32,144.1129846,,,,,,,,,,,,,,,,,,masks/mask_003.jpg,0,0,0,2,1,,,,,,,,,,,,,,,,,,,,,,,,,,,,,,,,,,,,,,,,,,,,,,,,,,,,,,,,,,,,,,,,,,,,,,,,,,,,,,,,,,,,,,,,
710800,001,2022-11-20_23h51.10.321,Info_measure_main_exp,2022.2.2,Win32,144.1129846,,,,,,,,,,,,,,,,,,masks/mask_002.jpg,0,1,1,1,1,,,,,,,,,,,,,,,,,,,,,,,,,,,,,,,,,,,,,,,,,,,,,,,,,,,,,,,,,,,,,,,,,,,,,,,,,,,,,,,,,,,,,,,,
710800,001,2022-11-20_23h51.10.321,Info_measure_main_exp,2022.2.2,Win32,144.1129846,,,,,,,,,,,,,,,,,,masks/mask_004.jpg,0,2,2,3,1,,,,,,,,,,,,,,,,,,,,,,,,,,,,,,,,,,,,,,,,,,,,,,,,,,,,,,,,,,,,,,,,,,,,,,,,,,,,,,,,,,,,,,,,
710800,001,2022-11-20_23h51.10.321,Info_measure_main_exp,2022.2.2,Win32,144.1129846,,,,,,,,,,,,,,,,,,masks/mask_001.jpg,0,3,3,0,1,,,,,,,,,,,,,,,,,,,,,,,,,,,,,,,,,,,,,,,,,,,,,,,,,,,,,,,,,,,,,,,,,,,,,,,,,,,,,,,,,,,,,,,,
710800,001,2022-11-20_23h51.10.321,Info_measure_main_exp,2022.2.2,Win32,144.1129846,,,,,,,,,,,,,,,,,,masks/mask_005.jpg,0,4,4,4,1,,,,,,,,,,,,,,,,,,,,,,,,,,,,,,,,,,,,,,,,,,,,,,,,,,,,,,,,,,,,,,,,,,,,,,,,,,,,,,,,,,,,,,,,
710800,001,2022-11-20_23h51.10.321,Info_measure_main_exp,2022.2.2,Win32,144.1129846,,,,,,,,,,,,,,,,,,,,,,,,-0.039814772,0.121296282,1,0,0,response7disk,0,114.241,1,0.006481524,0.001851859,1,0,0,center_square,0,2,2,2,1,0,131,5,5,2526,2526,prac_patch/patch0002526.jpg,prac_patch/patch0002526.jpg,,,,,,,,,,,,,,,,,,,,,,,,,,,,,,,,,,,,,,,,,,,,,,,,,,,,,,,,,,,,
710800,001,2022-11-20_23h51.10.321,Info_measure_main_exp,2022.2.2,Win32,144.1129846,,,,,,,,,,,,,,,,,,,,,,,,,,,,,,,,,,,,,,,,,,,,,,,,,,,,,,,,,,,space,4.0946,,,,,,,,,,,,,,,,,,,,,,,,,,,,,,,,,,,,,,,,,,,,,,,,,,,
710800,001,2022-11-20_23h51.10.321,Info_measure_main_exp,2022.2.2,Win32,144.1129846,,,,,,,,,,,,,,,,,,masks/mask_002.jpg,,,,,,,,,,,,,,,,,,,,,,,,,,,,,,,,,,,,,,,,,,,0,0,0,1,1,,,,,,,,,,,,,,,,,,,,,,,,,,,,,,,,,,,,,,,,,,,,,,
710800,001,2022-11-20_23h51.10.321,Info_measure_main_exp,2022.2.2,Win32,144.1129846,,,,,,,,,,,,,,,,,,masks/mask_001.jpg,,,,,,,,,,,,,,,,,,,,,,,,,,,,,,,,,,,,,,,,,,,0,1,1,0,1,,,,,,,,,,,,,,,,,,,,,,,,,,,,,,,,,,,,,,,,,,,,,,
710800,001,2022-11-20_23h51.10.321,Info_measure_main_exp,2022.2.2,Win32,144.1129846,,,,,,,,,,,,,,,,,,masks/mask_003.jpg,,,,,,,,,,,,,,,,,,,,,,,,,,,,,,,,,,,,,,,,,,,0,2,2,2,1,,,,,,,,,,,,,,,,,,,,,,,,,,,,,,,,,,,,,,,,,,,,,,
710800,001,2022-11-20_23h51.10.321,Info_measure_main_exp,2022.2.2,Win32,144.1129846,,,,,,,,,,,,,,,,,,masks/mask_005.jpg,,,,,,,,,,,,,,,,,,,,,,,,,,,,,,,,,,,,,,,,,,,0,3,3,4,1,,,,,,,,,,,,,,,,,,,,,,,,,,,,,,,,,,,,,,,,,,,,,,
710800,001,2022-11-20_23h51.10.321,Info_measure_main_exp,2022.2.2,Win32,144.1129846,,,,,,,,,,,,,,,,,,masks/mask_004.jpg,,,,,,,,,,,,,,,,,,,,,,,,,,,,,,,,,,,,,,,,,,,0,4,4,3,1,,,,,,,,,,,,,,,,,,,,,,,,,,,,,,,,,,,,,,,,,,,,,,
710800,001,2022-11-20_23h51.10.321,Info_measure_main_exp,2022.2.2,Win32,144.1129846,,,,,,,,,,,,,,,,,,masks/mask_005.jpg,,,,,,,,,,,,,,,,,,,,,,,,,,,,,,,,,,,,,,,,,,,,,,,,0,0,0,4,1,,,,,,,,,,,,,,,,,,,,,,,,,,,,,,,,,,,,,,,,,
710800,001,2022-11-20_23h51.10.321,Info_measure_main_exp,2022.2.2,Win32,144.1129846,,,,,,,,,,,,,,,,,,masks/mask_002.jpg,,,,,,,,,,,,,,,,,,,,,,,,,,,,,,,,,,,,,,,,,,,,,,,,0,1,1,1,1,,,,,,,,,,,,,,,,,,,,,,,,,,,,,,,,,,,,,,,,,
710800,001,2022-11-20_23h51.10.321,Info_measure_main_exp,2022.2.2,Win32,144.1129846,,,,,,,,,,,,,,,,,,masks/mask_003.jpg,,,,,,,,,,,,,,,,,,,,,,,,,,,,,,,,,,,,,,,,,,,,,,,,0,2,2,2,1,,,,,,,,,,,,,,,,,,,,,,,,,,,,,,,,,,,,,,,,,
710800,001,2022-11-20_23h51.10.321,Info_measure_main_exp,2022.2.2,Win32,144.1129846,,,,,,,,,,,,,,,,,,masks/mask_004.jpg,,,,,,,,,,,,,,,,,,,,,,,,,,,,,,,,,,,,,,,,,,,,,,,,0,3,3,3,1,,,,,,,,,,,,,,,,,,,,,,,,,,,,,,,,,,,,,,,,,
710800,001,2022-11-20_23h51.10.321,Info_measure_main_exp,2022.2.2,Win32,144.1129846,,,,,,,,,,,,,,,,,,masks/mask_001.jpg,,,,,,,,,,,,,,,,,,,,,,,,,,,,,,,,,,,,,,,,,,,,,,,,0,4,4,0,1,,,,,,,,,,,,,,,,,,,,,,,,,,,,,,,,,,,,,,,,,
710800,001,2022-11-20_23h51.10.321,Info_measure_main_exp,2022.2.2,Win32,144.1129846,,,,,,,,,,,,,,,,,,,,,,,,,,,,,,3,2.4569,1,,,,,,,,,,,,0,131,5,5,1986,2238,absent_patch/patch0001986.jpg,absent_patch/patch0002238.jpg,,,,,,,,,,,,,,,,,,,,-0.022222236,-0.075925933,1,0,0,response5disk,1,-0.001851824,-0.0074074,1,0,0,center_square,0,0,0,31,1,,,,,,,,,,,,,,,,,,,,,,,
710800,001,2022-11-20_23h51.10.321,Info_measure_main_exp,2022.2.2,Win32,144.1129846,,,,,,,,,,,,,,,,,,masks/mask_003.jpg,,,,,,,,,,,,,,,,,,,,,,,,,,,,,,,,,,,,,,,,,,,0,0,0,2,1,,,,,,,,,,,,,,,,,,,,,,,,,,,,,,,,,,,,,,,,,,,,,,
710800,001,2022-11-20_23h51.10.321,Info_measure_main_exp,2022.2.2,Win32,144.1129846,,,,,,,,,,,,,,,,,,masks/mask_002.jpg,,,,,,,,,,,,,,,,,,,,,,,,,,,,,,,,,,,,,,,,,,,0,1,1,1,1,,,,,,,,,,,,,,,,,,,,,,,,,,,,,,,,,,,,,,,,,,,,,,
710800,001,2022-11-20_23h51.10.321,Info_measure_main_exp,2022.2.2,Win32,144.1129846,,,,,,,,,,,,,,,,,,masks/mask_004.jpg,,,,,,,,,,,,,,,,,,,,,,,,,,,,,,,,,,,,,,,,,,,0,2,2,3,1,,,,,,,,,,,,,,,,,,,,,,,,,,,,,,,,,,,,,,,,,,,,,,
710800,001,2022-11-20_23h51.10.321,Info_measure_main_exp,2022.2.2,Win32,144.1129846,,,,,,,,,,,,,,,,,,masks/mask_005.jpg,,,,,,,,,,,,,,,,,,,,,,,,,,,,,,,,,,,,,,,,,,,0,3,3,4,1,,,,,,,,,,,,,,,,,,,,,,,,,,,,,,,,,,,,,,,,,,,,,,
710800,001,2022-11-20_23h51.10.321,Info_measure_main_exp,2022.2.2,Win32,144.1129846,,,,,,,,,,,,,,,,,,masks/mask_001.jpg,,,,,,,,,,,,,,,,,,,,,,,,,,,,,,,,,,,,,,,,,,,0,4,4,0,1,,,,,,,,,,,,,,,,,,,,,,,,,,,,,,,,,,,,,,,,,,,,,,
710800,001,2022-11-20_23h51.10.321,Info_measure_main_exp,2022.2.2,Win32,144.1129846,,,,,,,,,,,,,,,,,,masks/mask_004.jpg,,,,,,,,,,,,,,,,,,,,,,,,,,,,,,,,,,,,,,,,,,,,,,,,0,0,0,3,1,,,,,,,,,,,,,,,,,,,,,,,,,,,,,,,,,,,,,,,,,
710800,001,2022-11-20_23h51.10.321,Info_measure_main_exp,2022.2.2,Win32,144.1129846,,,,,,,,,,,,,,,,,,masks/mask_003.jpg,,,,,,,,,,,,,,,,,,,,,,,,,,,,,,,,,,,,,,,,,,,,,,,,0,1,1,2,1,,,,,,,,,,,,,,,,,,,,,,,,,,,,,,,,,,,,,,,,,
710800,001,2022-11-20_23h51.10.321,Info_measure_main_exp,2022.2.2,Win32,144.1129846,,,,,,,,,,,,,,,,,,masks/mask_005.jpg,,,,,,,,,,,,,,,,,,,,,,,,,,,,,,,,,,,,,,,,,,,,,,,,0,2,2,4,1,,,,,,,,,,,,,,,,,,,,,,,,,,,,,,,,,,,,,,,,,
710800,001,2022-11-20_23h51.10.321,Info_measure_main_exp,2022.2.2,Win32,144.1129846,,,,,,,,,,,,,,,,,,masks/mask_001.jpg,,,,,,,,,,,,,,,,,,,,,,,,,,,,,,,,,,,,,,,,,,,,,,,,0,3,3,0,1,,,,,,,,,,,,,,,,,,,,,,,,,,,,,,,,,,,,,,,,,
710800,001,2022-11-20_23h51.10.321,Info_measure_main_exp,2022.2.2,Win32,144.1129846,,,,,,,,,,,,,,,,,,masks/mask_002.jpg,,,,,,,,,,,,,,,,,,,,,,,,,,,,,,,,,,,,,,,,,,,,,,,,0,4,4,1,1,,,,,,,,,,,,,,,,,,,,,,,,,,,,,,,,,,,,,,,,,
710800,001,2022-11-20_23h51.10.321,Info_measure_main_exp,2022.2.2,Win32,144.1129846,,,,,,,,,,,,,,,,,,,,,,,,,,,,,,6,2.2539,1,,,,,,,,,,,,0,131,5,5,2154,2190,absent_patch/patch0002154.jpg,absent_patch/patch0002190.jpg,,,,,,,,,,,,,,,,,,,,0.075925968,0.049999979,1,0,0,response1disk,2,-0.013888889,0.000925912,1,0,0,center_square,0,1,1,68,1,,,,,,,,,,,,,,,,,,,,,,,
710800,001,2022-11-20_23h51.10.321,Info_measure_main_exp,2022.2.2,Win32,144.1129846,,,,,,,,,,,,,,,,,,masks/mask_005.jpg,,,,,,,,,,,,,,,,,,,,,,,,,,,,,,,,,,,,,,,,,,,0,0,0,4,1,,,,,,,,,,,,,,,,,,,,,,,,,,,,,,,,,,,,,,,,,,,,,,
710800,001,2022-11-20_23h51.10.321,Info_measure_main_exp,2022.2.2,Win32,144.1129846,,,,,,,,,,,,,,,,,,masks/mask_004.jpg,,,,,,,,,,,,,,,,,,,,,,,,,,,,,,,,,,,,,,,,,,,0,1,1,3,1,,,,,,,,,,,,,,,,,,,,,,,,,,,,,,,,,,,,,,,,,,,,,,
710800,001,2022-11-20_23h51.10.321,Info_measure_main_exp,2022.2.2,Win32,144.1129846,,,,,,,,,,,,,,,,,,masks/mask_003.jpg,,,,,,,,,,,,,,,,,,,,,,,,,,,,,,,,,,,,,,,,,,,0,2,2,2,1,,,,,,,,,,,,,,,,,,,,,,,,,,,,,,,,,,,,,,,,,,,,,,
710800,001,2022-11-20_23h51.10.321,Info_measure_main_exp,2022.2.2,Win32,144.1129846,,,,,,,,,,,,,,,,,,masks/mask_002.jpg,,,,,,,,,,,,,,,,,,,,,,,,,,,,,,,,,,,,,,,,,,,0,3,3,1,1,,,,,,,,,,,,,,,,,,,,,,,,,,,,,,,,,,,,,,,,,,,,,,
710800,001,2022-11-20_23h51.10.321,Info_measure_main_exp,2022.2.2,Win32,144.1129846,,,,,,,,,,,,,,,,,,masks/mask_001.jpg,,,,,,,,,,,,,,,,,,,,,,,,,,,,,,,,,,,,,,,,,,,0,4,4,0,1,,,,,,,,,,,,,,,,,,,,,,,,,,,,,,,,,,,,,,,,,,,,,,
710800,001,2022-11-20_23h51.10.321,Info_measure_main_exp,2022.2.2,Win32,144.1129846,,,,,,,,,,,,,,,,,,masks/mask_003.jpg,,,,,,,,,,,,,,,,,,,,,,,,,,,,,,,,,,,,,,,,,,,,,,,,0,0,0,2,1,,,,,,,,,,,,,,,,,,,,,,,,,,,,,,,,,,,,,,,,,
710800,001,2022-11-20_23h51.10.321,Info_measure_main_exp,2022.2.2,Win32,144.1129846,,,,,,,,,,,,,,,,,,masks/mask_004.jpg,,,,,,,,,,,,,,,,,,,,,,,,,,,,,,,,,,,,,,,,,,,,,,,,0,1,1,3,1,,,,,,,,,,,,,,,,,,,,,,,,,,,,,,,,,,,,,,,,,
710800,001,2022-11-20_23h51.10.321,Info_measure_main_exp,2022.2.2,Win32,144.1129846,,,,,,,,,,,,,,,,,,masks/mask_002.jpg,,,,,,,,,,,,,,,,,,,,,,,,,,,,,,,,,,,,,,,,,,,,,,,,0,2,2,1,1,,,,,,,,,,,,,,,,,,,,,,,,,,,,,,,,,,,,,,,,,
710800,001,2022-11-20_23h51.10.321,Info_measure_main_exp,2022.2.2,Win32,144.1129846,,,,,,,,,,,,,,,,,,masks/mask_001.jpg,,,,,,,,,,,,,,,,,,,,,,,,,,,,,,,,,,,,,,,,,,,,,,,,0,3,3,0,1,,,,,,,,,,,,,,,,,,,,,,,,,,,,,,,,,,,,,,,,,
710800,001,2022-11-20_23h51.10.321,Info_measure_main_exp,2022.2.2,Win32,144.1129846,,,,,,,,,,,,,,,,,,masks/mask_005.jpg,,,,,,,,,,,,,,,,,,,,,,,,,,,,,,,,,,,,,,,,,,,,,,,,0,4,4,4,1,,,,,,,,,,,,,,,,,,,,,,,,,,,,,,,,,,,,,,,,,
710800,001,2022-11-20_23h51.10.321,Info_measure_main_exp,2022.2.2,Win32,144.1129846,,,,,,,,,,,,,,,,,,,,,,,,,,,,,,0,1.2506,1,,,,,,,,,,,,0,131,5,5,1974,1974,absent_patch/patch0001974.jpg,absent_patch/patch0001974.jpg,,,,,,,,,,,,,,,,,,,,-0.030555513,0.077777757,1,0,0,response7disk,3,0.007407436,-0.002777771,1,0,0,center_square,0,2,2,113,1,,,,,,,,,,,,,,,,,,,,,,,
710800,001,2022-11-20_23h51.10.321,Info_measure_main_exp,2022.2.2,Win32,144.1129846,,,,,,,,,,,,,,,,,,masks/mask_004.jpg,,,,,,,,,,,,,,,,,,,,,,,,,,,,,,,,,,,,,,,,,,,0,0,0,3,1,,,,,,,,,,,,,,,,,,,,,,,,,,,,,,,,,,,,,,,,,,,,,,
710800,001,2022-11-20_23h51.10.321,Info_measure_main_exp,2022.2.2,Win32,144.1129846,,,,,,,,,,,,,,,,,,masks/mask_005.jpg,,,,,,,,,,,,,,,,,,,,,,,,,,,,,,,,,,,,,,,,,,,0,1,1,4,1,,,,,,,,,,,,,,,,,,,,,,,,,,,,,,,,,,,,,,,,,,,,,,
710800,001,2022-11-20_23h51.10.321,Info_measure_main_exp,2022.2.2,Win32,144.1129846,,,,,,,,,,,,,,,,,,masks/mask_001.jpg,,,,,,,,,,,,,,,,,,,,,,,,,,,,,,,,,,,,,,,,,,,0,2,2,0,1,,,,,,,,,,,,,,,,,,,,,,,,,,,,,,,,,,,,,,,,,,,,,,
710800,001,2022-11-20_23h51.10.321,Info_measure_main_exp,2022.2.2,Win32,144.1129846,,,,,,,,,,,,,,,,,,masks/mask_002.jpg,,,,,,,,,,,,,,,,,,,,,,,,,,,,,,,,,,,,,,,,,,,0,3,3,1,1,,,,,,,,,,,,,,,,,,,,,,,,,,,,,,,,,,,,,,,,,,,,,,
710800,001,2022-11-20_23h51.10.321,Info_measure_main_exp,2022.2.2,Win32,144.1129846,,,,,,,,,,,,,,,,,,masks/mask_003.jpg,,,,,,,,,,,,,,,,,,,,,,,,,,,,,,,,,,,,,,,,,,,0,4,4,2,1,,,,,,,,,,,,,,,,,,,,,,,,,,,,,,,,,,,,,,,,,,,,,,
710800,001,2022-11-20_23h51.10.321,Info_measure_main_exp,2022.2.2,Win32,144.1129846,,,,,,,,,,,,,,,,,,masks/mask_004.jpg,,,,,,,,,,,,,,,,,,,,,,,,,,,,,,,,,,,,,,,,,,,,,,,,0,0,0,3,1,,,,,,,,,,,,,,,,,,,,,,,,,,,,,,,,,,,,,,,,,
710800,001,2022-11-20_23h51.10.321,Info_measure_main_exp,2022.2.2,Win32,144.1129846,,,,,,,,,,,,,,,,,,masks/mask_005.jpg,,,,,,,,,,,,,,,,,,,,,,,,,,,,,,,,,,,,,,,,,,,,,,,,0,1,1,4,1,,,,,,,,,,,,,,,,,,,,,,,,,,,,,,,,,,,,,,,,,
710800,001,2022-11-20_23h51.10.321,Info_measure_main_exp,2022.2.2,Win32,144.1129846,,,,,,,,,,,,,,,,,,masks/mask_002.jpg,,,,,,,,,,,,,,,,,,,,,,,,,,,,,,,,,,,,,,,,,,,,,,,,0,2,2,1,1,,,,,,,,,,,,,,,,,,,,,,,,,,,,,,,,,,,,,,,,,
710800,001,2022-11-20_23h51.10.321,Info_measure_main_exp,2022.2.2,Win32,144.1129846,,,,,,,,,,,,,,,,,,masks/mask_001.jpg,,,,,,,,,,,,,,,,,,,,,,,,,,,,,,,,,,,,,,,,,,,,,,,,0,3,3,0,1,,,,,,,,,,,,,,,,,,,,,,,,,,,,,,,,,,,,,,,,,
710800,001,2022-11-20_23h51.10.321,Info_measure_main_exp,2022.2.2,Win32,144.1129846,,,,,,,,,,,,,,,,,,masks/mask_003.jpg,,,,,,,,,,,,,,,,,,,,,,,,,,,,,,,,,,,,,,,,,,,,,,,,0,4,4,2,1,,,,,,,,,,,,,,,,,,,,,,,,,,,,,,,,,,,,,,,,,
710800,001,2022-11-20_23h51.10.321,Info_measure_main_exp,2022.2.2,Win32,144.1129846,,,,,,,,,,,,,,,,,,,,,,,,,,,,,,7,2.2638,1,,,,,,,,,,,,1,131,5,5,2190,1,absent_patch/patch0002190.jpg,present_patch/cong_131_5_a.jpg,,,,,,,,,,,,,,,,,,,,0.07222225,0.125925912,1,0,0,response1disk,4,-0.012036995,-0.003703718,1,0,0,center_square,0,3,3,64,1,,,,,,,,,,,,,,,,,,,,,,,
710800,001,2022-11-20_23h51.10.321,Info_measure_main_exp,2022.2.2,Win32,144.1129846,,,,,,,,,,,,,,,,,,masks/mask_003.jpg,,,,,,,,,,,,,,,,,,,,,,,,,,,,,,,,,,,,,,,,,,,0,0,0,2,1,,,,,,,,,,,,,,,,,,,,,,,,,,,,,,,,,,,,,,,,,,,,,,
710800,001,2022-11-20_23h51.10.321,Info_measure_main_exp,2022.2.2,Win32,144.1129846,,,,,,,,,,,,,,,,,,masks/mask_002.jpg,,,,,,,,,,,,,,,,,,,,,,,,,,,,,,,,,,,,,,,,,,,0,1,1,1,1,,,,,,,,,,,,,,,,,,,,,,,,,,,,,,,,,,,,,,,,,,,,,,
710800,001,2022-11-20_23h51.10.321,Info_measure_main_exp,2022.2.2,Win32,144.1129846,,,,,,,,,,,,,,,,,,masks/mask_005.jpg,,,,,,,,,,,,,,,,,,,,,,,,,,,,,,,,,,,,,,,,,,,0,2,2,4,1,,,,,,,,,,,,,,,,,,,,,,,,,,,,,,,,,,,,,,,,,,,,,,
710800,001,2022-11-20_23h51.10.321,Info_measure_main_exp,2022.2.2,Win32,144.1129846,,,,,,,,,,,,,,,,,,masks/mask_001.jpg,,,,,,,,,,,,,,,,,,,,,,,,,,,,,,,,,,,,,,,,,,,0,3,3,0,1,,,,,,,,,,,,,,,,,,,,,,,,,,,,,,,,,,,,,,,,,,,,,,
710800,001,2022-11-20_23h51.10.321,Info_measure_main_exp,2022.2.2,Win32,144.1129846,,,,,,,,,,,,,,,,,,masks/mask_004.jpg,,,,,,,,,,,,,,,,,,,,,,,,,,,,,,,,,,,,,,,,,,,0,4,4,3,1,,,,,,,,,,,,,,,,,,,,,,,,,,,,,,,,,,,,,,,,,,,,,,
710800,001,2022-11-20_23h51.10.321,Info_measure_main_exp,2022.2.2,Win32,144.1129846,,,,,,,,,,,,,,,,,,masks/mask_005.jpg,,,,,,,,,,,,,,,,,,,,,,,,,,,,,,,,,,,,,,,,,,,,,,,,0,0,0,4,1,,,,,,,,,,,,,,,,,,,,,,,,,,,,,,,,,,,,,,,,,
710800,001,2022-11-20_23h51.10.321,Info_measure_main_exp,2022.2.2,Win32,144.1129846,,,,,,,,,,,,,,,,,,masks/mask_001.jpg,,,,,,,,,,,,,,,,,,,,,,,,,,,,,,,,,,,,,,,,,,,,,,,,0,1,1,0,1,,,,,,,,,,,,,,,,,,,,,,,,,,,,,,,,,,,,,,,,,
710800,001,2022-11-20_23h51.10.321,Info_measure_main_exp,2022.2.2,Win32,144.1129846,,,,,,,,,,,,,,,,,,masks/mask_004.jpg,,,,,,,,,,,,,,,,,,,,,,,,,,,,,,,,,,,,,,,,,,,,,,,,0,2,2,3,1,,,,,,,,,,,,,,,,,,,,,,,,,,,,,,,,,,,,,,,,,
710800,001,2022-11-20_23h51.10.321,Info_measure_main_exp,2022.2.2,Win32,144.1129846,,,,,,,,,,,,,,,,,,masks/mask_002.jpg,,,,,,,,,,,,,,,,,,,,,,,,,,,,,,,,,,,,,,,,,,,,,,,,0,3,3,1,1,,,,,,,,,,,,,,,,,,,,,,,,,,,,,,,,,,,,,,,,,
710800,001,2022-11-20_23h51.10.321,Info_measure_main_exp,2022.2.2,Win32,144.1129846,,,,,,,,,,,,,,,,,,masks/mask_003.jpg,,,,,,,,,,,,,,,,,,,,,,,,,,,,,,,,,,,,,,,,,,,,,,,,0,4,4,2,1,,,,,,,,,,,,,,,,,,,,,,,,,,,,,,,,,,,,,,,,,
710800,001,2022-11-20_23h51.10.321,Info_measure_main_exp,2022.2.2,Win32,144.1129846,,,,,,,,,,,,,,,,,,,,,,,,,,,,,,7,1.8122,1,,,,,,,,,,,,0,131,5,5,2298,2190,absent_patch/patch0002298.jpg,absent_patch/patch0002190.jpg,,,,,,,,,,,,,,,,,,,,0.041666667,0.088888875,1,0,0,response1disk,5,-0.003703718,0.001851859,1,0,0,center_square,0,4,4,20,1,,,,,,,,,,,,,,,,,,,,,,,
710800,001,2022-11-20_23h51.10.321,Info_measure_main_exp,2022.2.2,Win32,144.1129846,,,,,,,,,,,,,,,,,,masks/mask_003.jpg,,,,,,,,,,,,,,,,,,,,,,,,,,,,,,,,,,,,,,,,,,,0,0,0,2,1,,,,,,,,,,,,,,,,,,,,,,,,,,,,,,,,,,,,,,,,,,,,,,
710800,001,2022-11-20_23h51.10.321,Info_measure_main_exp,2022.2.2,Win32,144.1129846,,,,,,,,,,,,,,,,,,masks/mask_004.jpg,,,,,,,,,,,,,,,,,,,,,,,,,,,,,,,,,,,,,,,,,,,0,1,1,3,1,,,,,,,,,,,,,,,,,,,,,,,,,,,,,,,,,,,,,,,,,,,,,,
710800,001,2022-11-20_23h51.10.321,Info_measure_main_exp,2022.2.2,Win32,144.1129846,,,,,,,,,,,,,,,,,,masks/mask_005.jpg,,,,,,,,,,,,,,,,,,,,,,,,,,,,,,,,,,,,,,,,,,,0,2,2,4,1,,,,,,,,,,,,,,,,,,,,,,,,,,,,,,,,,,,,,,,,,,,,,,
710800,001,2022-11-20_23h51.10.321,Info_measure_main_exp,2022.2.2,Win32,144.1129846,,,,,,,,,,,,,,,,,,masks/mask_002.jpg,,,,,,,,,,,,,,,,,,,,,,,,,,,,,,,,,,,,,,,,,,,0,3,3,1,1,,,,,,,,,,,,,,,,,,,,,,,,,,,,,,,,,,,,,,,,,,,,,,
710800,001,2022-11-20_23h51.10.321,Info_measure_main_exp,2022.2.2,Win32,144.1129846,,,,,,,,,,,,,,,,,,masks/mask_001.jpg,,,,,,,,,,,,,,,,,,,,,,,,,,,,,,,,,,,,,,,,,,,0,4,4,0,1,,,,,,,,,,,,,,,,,,,,,,,,,,,,,,,,,,,,,,,,,,,,,,
710800,001,2022-11-20_23h51.10.321,Info_measure_main_exp,2022.2.2,Win32,144.1129846,,,,,,,,,,,,,,,,,,masks/mask_001.jpg,,,,,,,,,,,,,,,,,,,,,,,,,,,,,,,,,,,,,,,,,,,,,,,,0,0,0,0,1,,,,,,,,,,,,,,,,,,,,,,,,,,,,,,,,,,,,,,,,,
710800,001,2022-11-20_23h51.10.321,Info_measure_main_exp,2022.2.2,Win32,144.1129846,,,,,,,,,,,,,,,,,,masks/mask_002.jpg,,,,,,,,,,,,,,,,,,,,,,,,,,,,,,,,,,,,,,,,,,,,,,,,0,1,1,1,1,,,,,,,,,,,,,,,,,,,,,,,,,,,,,,,,,,,,,,,,,
710800,001,2022-11-20_23h51.10.321,Info_measure_main_exp,2022.2.2,Win32,144.1129846,,,,,,,,,,,,,,,,,,masks/mask_005.jpg,,,,,,,,,,,,,,,,,,,,,,,,,,,,,,,,,,,,,,,,,,,,,,,,0,2,2,4,1,,,,,,,,,,,,,,,,,,,,,,,,,,,,,,,,,,,,,,,,,
710800,001,2022-11-20_23h51.10.321,Info_measure_main_exp,2022.2.2,Win32,144.1129846,,,,,,,,,,,,,,,,,,masks/mask_003.jpg,,,,,,,,,,,,,,,,,,,,,,,,,,,,,,,,,,,,,,,,,,,,,,,,0,3,3,2,1,,,,,,,,,,,,,,,,,,,,,,,,,,,,,,,,,,,,,,,,,
710800,001,2022-11-20_23h51.10.321,Info_measure_main_exp,2022.2.2,Win32,144.1129846,,,,,,,,,,,,,,,,,,masks/mask_004.jpg,,,,,,,,,,,,,,,,,,,,,,,,,,,,,,,,,,,,,,,,,,,,,,,,0,4,4,3,1,,,,,,,,,,,,,,,,,,,,,,,,,,,,,,,,,,,,,,,,,
710800,001,2022-11-20_23h51.10.321,Info_measure_main_exp,2022.2.2,Win32,144.1129846,,,,,,,,,,,,,,,,,,,,,,,,,,,,,,7,1.4726,1,,,,,,,,,,,,0,131,5,5,1986,2142,absent_patch/patch0001986.jpg,absent_patch/patch0002142.jpg,,,,,,,,,,,,,,,,,,,,0.070370356,0.14907406,1,0,0,response1disk,6,0.010185171,-0.003703718,1,0,0,center_square,0,5,5,76,1,,,,,,,,,,,,,,,,,,,,,,,
710800,001,2022-11-20_23h51.10.321,Info_measure_main_exp,2022.2.2,Win32,144.1129846,,,,,,,,,,,,,,,,,,masks/mask_005.jpg,,,,,,,,,,,,,,,,,,,,,,,,,,,,,,,,,,,,,,,,,,,0,0,0,4,1,,,,,,,,,,,,,,,,,,,,,,,,,,,,,,,,,,,,,,,,,,,,,,
710800,001,2022-11-20_23h51.10.321,Info_measure_main_exp,2022.2.2,Win32,144.1129846,,,,,,,,,,,,,,,,,,masks/mask_004.jpg,,,,,,,,,,,,,,,,,,,,,,,,,,,,,,,,,,,,,,,,,,,0,1,1,3,1,,,,,,,,,,,,,,,,,,,,,,,,,,,,,,,,,,,,,,,,,,,,,,
710800,001,2022-11-20_23h51.10.321,Info_measure_main_exp,2022.2.2,Win32,144.1129846,,,,,,,,,,,,,,,,,,masks/mask_002.jpg,,,,,,,,,,,,,,,,,,,,,,,,,,,,,,,,,,,,,,,,,,,0,2,2,1,1,,,,,,,,,,,,,,,,,,,,,,,,,,,,,,,,,,,,,,,,,,,,,,
710800,001,2022-11-20_23h51.10.321,Info_measure_main_exp,2022.2.2,Win32,144.1129846,,,,,,,,,,,,,,,,,,masks/mask_001.jpg,,,,,,,,,,,,,,,,,,,,,,,,,,,,,,,,,,,,,,,,,,,0,3,3,0,1,,,,,,,,,,,,,,,,,,,,,,,,,,,,,,,,,,,,,,,,,,,,,,
710800,001,2022-11-20_23h51.10.321,Info_measure_main_exp,2022.2.2,Win32,144.1129846,,,,,,,,,,,,,,,,,,masks/mask_003.jpg,,,,,,,,,,,,,,,,,,,,,,,,,,,,,,,,,,,,,,,,,,,0,4,4,2,1,,,,,,,,,,,,,,,,,,,,,,,,,,,,,,,,,,,,,,,,,,,,,,
710800,001,2022-11-20_23h51.10.321,Info_measure_main_exp,2022.2.2,Win32,144.1129846,,,,,,,,,,,,,,,,,,masks/mask_004.jpg,,,,,,,,,,,,,,,,,,,,,,,,,,,,,,,,,,,,,,,,,,,,,,,,0,0,0,3,1,,,,,,,,,,,,,,,,,,,,,,,,,,,,,,,,,,,,,,,,,
710800,001,2022-11-20_23h51.10.321,Info_measure_main_exp,2022.2.2,Win32,144.1129846,,,,,,,,,,,,,,,,,,masks/mask_001.jpg,,,,,,,,,,,,,,,,,,,,,,,,,,,,,,,,,,,,,,,,,,,,,,,,0,1,1,0,1,,,,,,,,,,,,,,,,,,,,,,,,,,,,,,,,,,,,,,,,,
710800,001,2022-11-20_23h51.10.321,Info_measure_main_exp,2022.2.2,Win32,144.1129846,,,,,,,,,,,,,,,,,,masks/mask_003.jpg,,,,,,,,,,,,,,,,,,,,,,,,,,,,,,,,,,,,,,,,,,,,,,,,0,2,2,2,1,,,,,,,,,,,,,,,,,,,,,,,,,,,,,,,,,,,,,,,,,
710800,001,2022-11-20_23h51.10.321,Info_measure_main_exp,2022.2.2,Win32,144.1129846,,,,,,,,,,,,,,,,,,masks/mask_002.jpg,,,,,,,,,,,,,,,,,,,,,,,,,,,,,,,,,,,,,,,,,,,,,,,,0,3,3,1,1,,,,,,,,,,,,,,,,,,,,,,,,,,,,,,,,,,,,,,,,,
710800,001,2022-11-20_23h51.10.321,Info_measure_main_exp,2022.2.2,Win32,144.1129846,,,,,,,,,,,,,,,,,,masks/mask_005.jpg,,,,,,,,,,,,,,,,,,,,,,,,,,,,,,,,,,,,,,,,,,,,,,,,0,4,4,4,1,,,,,,,,,,,,,,,,,,,,,,,,,,,,,,,,,,,,,,,,,
710800,001,2022-11-20_23h51.10.321,Info_measure_main_exp,2022.2.2,Win32,144.1129846,,,,,,,,,,,,,,,,,,,,,,,,,,,,,,5,3.847,1,,,,,,,,,,,,1,131,5,5,1,2178,present_patch/cong_131_5_a.jpg,absent_patch/patch0002178.jpg,,,,,,,,,,,,,,,,,,,,0.079629616,-0.025925919,1,0,0,response3disk,7,0.003703718,-0.01203703,1,0,0,center_square,0,6,6,40,1,,,,,,,,,,,,,,,,,,,,,,,
710800,001,2022-11-20_23h51.10.321,Info_measure_main_exp,2022.2.2,Win32,144.1129846,,,,,,,,,,,,,,,,,,masks/mask_004.jpg,,,,,,,,,,,,,,,,,,,,,,,,,,,,,,,,,,,,,,,,,,,0,0,0,3,1,,,,,,,,,,,,,,,,,,,,,,,,,,,,,,,,,,,,,,,,,,,,,,
710800,001,2022-11-20_23h51.10.321,Info_measure_main_exp,2022.2.2,Win32,144.1129846,,,,,,,,,,,,,,,,,,masks/mask_002.jpg,,,,,,,,,,,,,,,,,,,,,,,,,,,,,,,,,,,,,,,,,,,0,1,1,1,1,,,,,,,,,,,,,,,,,,,,,,,,,,,,,,,,,,,,,,,,,,,,,,
710800,001,2022-11-20_23h51.10.321,Info_measure_main_exp,2022.2.2,Win32,144.1129846,,,,,,,,,,,,,,,,,,masks/mask_001.jpg,,,,,,,,,,,,,,,,,,,,,,,,,,,,,,,,,,,,,,,,,,,0,2,2,0,1,,,,,,,,,,,,,,,,,,,,,,,,,,,,,,,,,,,,,,,,,,,,,,
710800,001,2022-11-20_23h51.10.321,Info_measure_main_exp,2022.2.2,Win32,144.1129846,,,,,,,,,,,,,,,,,,masks/mask_005.jpg,,,,,,,,,,,,,,,,,,,,,,,,,,,,,,,,,,,,,,,,,,,0,3,3,4,1,,,,,,,,,,,,,,,,,,,,,,,,,,,,,,,,,,,,,,,,,,,,,,
710800,001,2022-11-20_23h51.10.321,Info_measure_main_exp,2022.2.2,Win32,144.1129846,,,,,,,,,,,,,,,,,,masks/mask_003.jpg,,,,,,,,,,,,,,,,,,,,,,,,,,,,,,,,,,,,,,,,,,,0,4,4,2,1,,,,,,,,,,,,,,,,,,,,,,,,,,,,,,,,,,,,,,,,,,,,,,
710800,001,2022-11-20_23h51.10.321,Info_measure_main_exp,2022.2.2,Win32,144.1129846,,,,,,,,,,,,,,,,,,masks/mask_002.jpg,,,,,,,,,,,,,,,,,,,,,,,,,,,,,,,,,,,,,,,,,,,,,,,,0,0,0,1,1,,,,,,,,,,,,,,,,,,,,,,,,,,,,,,,,,,,,,,,,,
710800,001,2022-11-20_23h51.10.321,Info_measure_main_exp,2022.2.2,Win32,144.1129846,,,,,,,,,,,,,,,,,,masks/mask_005.jpg,,,,,,,,,,,,,,,,,,,,,,,,,,,,,,,,,,,,,,,,,,,,,,,,0,1,1,4,1,,,,,,,,,,,,,,,,,,,,,,,,,,,,,,,,,,,,,,,,,
710800,001,2022-11-20_23h51.10.321,Info_measure_main_exp,2022.2.2,Win32,144.1129846,,,,,,,,,,,,,,,,,,masks/mask_004.jpg,,,,,,,,,,,,,,,,,,,,,,,,,,,,,,,,,,,,,,,,,,,,,,,,0,2,2,3,1,,,,,,,,,,,,,,,,,,,,,,,,,,,,,,,,,,,,,,,,,
710800,001,2022-11-20_23h51.10.321,Info_measure_main_exp,2022.2.2,Win32,144.1129846,,,,,,,,,,,,,,,,,,masks/mask_003.jpg,,,,,,,,,,,,,,,,,,,,,,,,,,,,,,,,,,,,,,,,,,,,,,,,0,3,3,2,1,,,,,,,,,,,,,,,,,,,,,,,,,,,,,,,,,,,,,,,,,
710800,001,2022-11-20_23h51.10.321,Info_measure_main_exp,2022.2.2,Win32,144.1129846,,,,,,,,,,,,,,,,,,masks/mask_001.jpg,,,,,,,,,,,,,,,,,,,,,,,,,,,,,,,,,,,,,,,,,,,,,,,,0,4,4,0,1,,,,,,,,,,,,,,,,,,,,,,,,,,,,,,,,,,,,,,,,,
710800,001,2022-11-20_23h51.10.321,Info_measure_main_exp,2022.2.2,Win32,144.1129846,,,,,,,,,,,,,,,,,,,,,,,,,,,,,,0,1.6669,1,,,,,,,,,,,,0,131,5,5,2142,2142,absent_patch/patch0002142.jpg,absent_patch/patch0002142.jpg,,,,,,,,,,,,,,,,,,,,-0.050000014,0.102777764,1,0,0,response7disk,8,-0.011111083,0.003703683,1,0,0,center_square,0,7,7,13,1,,,,,,,,,,,,,,,,,,,,,,,
710800,001,2022-11-20_23h51.10.321,Info_measure_main_exp,2022.2.2,Win32,144.1129846,,,,,,,,,,,,,,,,,,masks/mask_002.jpg,,,,,,,,,,,,,,,,,,,,,,,,,,,,,,,,,,,,,,,,,,,0,0,0,1,1,,,,,,,,,,,,,,,,,,,,,,,,,,,,,,,,,,,,,,,,,,,,,,
710800,001,2022-11-20_23h51.10.321,Info_measure_main_exp,2022.2.2,Win32,144.1129846,,,,,,,,,,,,,,,,,,masks/mask_004.jpg,,,,,,,,,,,,,,,,,,,,,,,,,,,,,,,,,,,,,,,,,,,0,1,1,3,1,,,,,,,,,,,,,,,,,,,,,,,,,,,,,,,,,,,,,,,,,,,,,,
710800,001,2022-11-20_23h51.10.321,Info_measure_main_exp,2022.2.2,Win32,144.1129846,,,,,,,,,,,,,,,,,,masks/mask_001.jpg,,,,,,,,,,,,,,,,,,,,,,,,,,,,,,,,,,,,,,,,,,,0,2,2,0,1,,,,,,,,,,,,,,,,,,,,,,,,,,,,,,,,,,,,,,,,,,,,,,
710800,001,2022-11-20_23h51.10.321,Info_measure_main_exp,2022.2.2,Win32,144.1129846,,,,,,,,,,,,,,,,,,masks/mask_005.jpg,,,,,,,,,,,,,,,,,,,,,,,,,,,,,,,,,,,,,,,,,,,0,3,3,4,1,,,,,,,,,,,,,,,,,,,,,,,,,,,,,,,,,,,,,,,,,,,,,,
710800,001,2022-11-20_23h51.10.321,Info_measure_main_exp,2022.2.2,Win32,144.1129846,,,,,,,,,,,,,,,,,,masks/mask_003.jpg,,,,,,,,,,,,,,,,,,,,,,,,,,,,,,,,,,,,,,,,,,,0,4,4,2,1,,,,,,,,,,,,,,,,,,,,,,,,,,,,,,,,,,,,,,,,,,,,,,
710800,001,2022-11-20_23h51.10.321,Info_measure_main_exp,2022.2.2,Win32,144.1129846,,,,,,,,,,,,,,,,,,masks/mask_001.jpg,,,,,,,,,,,,,,,,,,,,,,,,,,,,,,,,,,,,,,,,,,,,,,,,0,0,0,0,1,,,,,,,,,,,,,,,,,,,,,,,,,,,,,,,,,,,,,,,,,
710800,001,2022-11-20_23h51.10.321,Info_measure_main_exp,2022.2.2,Win32,144.1129846,,,,,,,,,,,,,,,,,,masks/mask_004.jpg,,,,,,,,,,,,,,,,,,,,,,,,,,,,,,,,,,,,,,,,,,,,,,,,0,1,1,3,1,,,,,,,,,,,,,,,,,,,,,,,,,,,,,,,,,,,,,,,,,
710800,001,2022-11-20_23h51.10.321,Info_measure_main_exp,2022.2.2,Win32,144.1129846,,,,,,,,,,,,,,,,,,masks/mask_003.jpg,,,,,,,,,,,,,,,,,,,,,,,,,,,,,,,,,,,,,,,,,,,,,,,,0,2,2,2,1,,,,,,,,,,,,,,,,,,,,,,,,,,,,,,,,,,,,,,,,,
710800,001,2022-11-20_23h51.10.321,Info_measure_main_exp,2022.2.2,Win32,144.1129846,,,,,,,,,,,,,,,,,,masks/mask_005.jpg,,,,,,,,,,,,,,,,,,,,,,,,,,,,,,,,,,,,,,,,,,,,,,,,0,3,3,4,1,,,,,,,,,,,,,,,,,,,,,,,,,,,,,,,,,,,,,,,,,
710800,001,2022-11-20_23h51.10.321,Info_measure_main_exp,2022.2.2,Win32,144.1129846,,,,,,,,,,,,,,,,,,masks/mask_002.jpg,,,,,,,,,,,,,,,,,,,,,,,,,,,,,,,,,,,,,,,,,,,,,,,,0,4,4,1,1,,,,,,,,,,,,,,,,,,,,,,,,,,,,,,,,,,,,,,,,,
710800,001,2022-11-20_23h51.10.321,Info_measure_main_exp,2022.2.2,Win32,144.1129846,,,,,,,,,,,,,,,,,,,,,,,,,,,,,,0,1.0764,1,,,,,,,,,,,,0,131,5,5,2082,2082,absent_patch/patch0002082.jpg,absent_patch/patch0002082.jpg,,,,,,,,,,,,,,,,,,,,-0.02407406,0.094444452,1,0,0,response7disk,9,0.001851894,0.006481489,1,0,0,center_square,0,8,8,74,1,,,,,,,,,,,,,,,,,,,,,,,
710800,001,2022-11-20_23h51.10.321,Info_measure_main_exp,2022.2.2,Win32,144.1129846,,,,,,,,,,,,,,,,,,masks/mask_005.jpg,,,,,,,,,,,,,,,,,,,,,,,,,,,,,,,,,,,,,,,,,,,0,0,0,4,1,,,,,,,,,,,,,,,,,,,,,,,,,,,,,,,,,,,,,,,,,,,,,,
710800,001,2022-11-20_23h51.10.321,Info_measure_main_exp,2022.2.2,Win32,144.1129846,,,,,,,,,,,,,,,,,,masks/mask_004.jpg,,,,,,,,,,,,,,,,,,,,,,,,,,,,,,,,,,,,,,,,,,,0,1,1,3,1,,,,,,,,,,,,,,,,,,,,,,,,,,,,,,,,,,,,,,,,,,,,,,
710800,001,2022-11-20_23h51.10.321,Info_measure_main_exp,2022.2.2,Win32,144.1129846,,,,,,,,,,,,,,,,,,masks/mask_001.jpg,,,,,,,,,,,,,,,,,,,,,,,,,,,,,,,,,,,,,,,,,,,0,2,2,0,1,,,,,,,,,,,,,,,,,,,,,,,,,,,,,,,,,,,,,,,,,,,,,,
710800,001,2022-11-20_23h51.10.321,Info_measure_main_exp,2022.2.2,Win32,144.1129846,,,,,,,,,,,,,,,,,,masks/mask_002.jpg,,,,,,,,,,,,,,,,,,,,,,,,,,,,,,,,,,,,,,,,,,,0,3,3,1,1,,,,,,,,,,,,,,,,,,,,,,,,,,,,,,,,,,,,,,,,,,,,,,
710800,001,2022-11-20_23h51.10.321,Info_measure_main_exp,2022.2.2,Win32,144.1129846,,,,,,,,,,,,,,,,,,masks/mask_003.jpg,,,,,,,,,,,,,,,,,,,,,,,,,,,,,,,,,,,,,,,,,,,0,4,4,2,1,,,,,,,,,,,,,,,,,,,,,,,,,,,,,,,,,,,,,,,,,,,,,,
710800,001,2022-11-20_23h51.10.321,Info_measure_main_exp,2022.2.2,Win32,144.1129846,,,,,,,,,,,,,,,,,,masks/mask_003.jpg,,,,,,,,,,,,,,,,,,,,,,,,,,,,,,,,,,,,,,,,,,,,,,,,0,0,0,2,1,,,,,,,,,,,,,,,,,,,,,,,,,,,,,,,,,,,,,,,,,
710800,001,2022-11-20_23h51.10.321,Info_measure_main_exp,2022.2.2,Win32,144.1129846,,,,,,,,,,,,,,,,,,masks/mask_005.jpg,,,,,,,,,,,,,,,,,,,,,,,,,,,,,,,,,,,,,,,,,,,,,,,,0,1,1,4,1,,,,,,,,,,,,,,,,,,,,,,,,,,,,,,,,,,,,,,,,,
710800,001,2022-11-20_23h51.10.321,Info_measure_main_exp,2022.2.2,Win32,144.1129846,,,,,,,,,,,,,,,,,,masks/mask_001.jpg,,,,,,,,,,,,,,,,,,,,,,,,,,,,,,,,,,,,,,,,,,,,,,,,0,2,2,0,1,,,,,,,,,,,,,,,,,,,,,,,,,,,,,,,,,,,,,,,,,
710800,001,2022-11-20_23h51.10.321,Info_measure_main_exp,2022.2.2,Win32,144.1129846,,,,,,,,,,,,,,,,,,masks/mask_002.jpg,,,,,,,,,,,,,,,,,,,,,,,,,,,,,,,,,,,,,,,,,,,,,,,,0,3,3,1,1,,,,,,,,,,,,,,,,,,,,,,,,,,,,,,,,,,,,,,,,,
710800,001,2022-11-20_23h51.10.321,Info_measure_main_exp,2022.2.2,Win32,144.1129846,,,,,,,,,,,,,,,,,,masks/mask_004.jpg,,,,,,,,,,,,,,,,,,,,,,,,,,,,,,,,,,,,,,,,,,,,,,,,0,4,4,3,1,,,,,,,,,,,,,,,,,,,,,,,,,,,,,,,,,,,,,,,,,
710800,001,2022-11-20_23h51.10.321,Info_measure_main_exp,2022.2.2,Win32,144.1129846,,,,,,,,,,,,,,,,,,,,,,,,,,,,,,0,1.0205,1,,,,,,,,,,,,0,131,5,5,2250,2250,absent_patch/patch0002250.jpg,absent_patch/patch0002250.jpg,,,,,,,,,,,,,,,,,,,,-0.034259231,0.066666674,1,0,0,response7disk,10,-0.001851824,-0.008333347,1,0,0,center_square,0,9,9,56,1,,,,,,,,,,,,,,,,,,,,,,,
710800,001,2022-11-20_23h51.10.321,Info_measure_main_exp,2022.2.2,Win32,144.1129846,,,,,,,,,,,,,,,,,,masks/mask_004.jpg,,,,,,,,,,,,,,,,,,,,,,,,,,,,,,,,,,,,,,,,,,,0,0,0,3,1,,,,,,,,,,,,,,,,,,,,,,,,,,,,,,,,,,,,,,,,,,,,,,
710800,001,2022-11-20_23h51.10.321,Info_measure_main_exp,2022.2.2,Win32,144.1129846,,,,,,,,,,,,,,,,,,masks/mask_001.jpg,,,,,,,,,,,,,,,,,,,,,,,,,,,,,,,,,,,,,,,,,,,0,1,1,0,1,,,,,,,,,,,,,,,,,,,,,,,,,,,,,,,,,,,,,,,,,,,,,,
710800,001,2022-11-20_23h51.10.321,Info_measure_main_exp,2022.2.2,Win32,144.1129846,,,,,,,,,,,,,,,,,,masks/mask_003.jpg,,,,,,,,,,,,,,,,,,,,,,,,,,,,,,,,,,,,,,,,,,,0,2,2,2,1,,,,,,,,,,,,,,,,,,,,,,,,,,,,,,,,,,,,,,,,,,,,,,
710800,001,2022-11-20_23h51.10.321,Info_measure_main_exp,2022.2.2,Win32,144.1129846,,,,,,,,,,,,,,,,,,masks/mask_005.jpg,,,,,,,,,,,,,,,,,,,,,,,,,,,,,,,,,,,,,,,,,,,0,3,3,4,1,,,,,,,,,,,,,,,,,,,,,,,,,,,,,,,,,,,,,,,,,,,,,,
710800,001,2022-11-20_23h51.10.321,Info_measure_main_exp,2022.2.2,Win32,144.1129846,,,,,,,,,,,,,,,,,,masks/mask_002.jpg,,,,,,,,,,,,,,,,,,,,,,,,,,,,,,,,,,,,,,,,,,,0,4,4,1,1,,,,,,,,,,,,,,,,,,,,,,,,,,,,,,,,,,,,,,,,,,,,,,
710800,001,2022-11-20_23h51.10.321,Info_measure_main_exp,2022.2.2,Win32,144.1129846,,,,,,,,,,,,,,,,,,masks/mask_001.jpg,,,,,,,,,,,,,,,,,,,,,,,,,,,,,,,,,,,,,,,,,,,,,,,,0,0,0,0,1,,,,,,,,,,,,,,,,,,,,,,,,,,,,,,,,,,,,,,,,,
710800,001,2022-11-20_23h51.10.321,Info_measure_main_exp,2022.2.2,Win32,144.1129846,,,,,,,,,,,,,,,,,,masks/mask_004.jpg,,,,,,,,,,,,,,,,,,,,,,,,,,,,,,,,,,,,,,,,,,,,,,,,0,1,1,3,1,,,,,,,,,,,,,,,,,,,,,,,,,,,,,,,,,,,,,,,,,
710800,001,2022-11-20_23h51.10.321,Info_measure_main_exp,2022.2.2,Win32,144.1129846,,,,,,,,,,,,,,,,,,masks/mask_005.jpg,,,,,,,,,,,,,,,,,,,,,,,,,,,,,,,,,,,,,,,,,,,,,,,,0,2,2,4,1,,,,,,,,,,,,,,,,,,,,,,,,,,,,,,,,,,,,,,,,,
710800,001,2022-11-20_23h51.10.321,Info_measure_main_exp,2022.2.2,Win32,144.1129846,,,,,,,,,,,,,,,,,,masks/mask_002.jpg,,,,,,,,,,,,,,,,,,,,,,,,,,,,,,,,,,,,,,,,,,,,,,,,0,3,3,1,1,,,,,,,,,,,,,,,,,,,,,,,,,,,,,,,,,,,,,,,,,
710800,001,2022-11-20_23h51.10.321,Info_measure_main_exp,2022.2.2,Win32,144.1129846,,,,,,,,,,,,,,,,,,masks/mask_003.jpg,,,,,,,,,,,,,,,,,,,,,,,,,,,,,,,,,,,,,,,,,,,,,,,,0,4,4,2,1,,,,,,,,,,,,,,,,,,,,,,,,,,,,,,,,,,,,,,,,,
710800,001,2022-11-20_23h51.10.321,Info_measure_main_exp,2022.2.2,Win32,144.1129846,,,,,,,,,,,,,,,,,,,,,,,,,,,,,,7,1.6802,1,,,,,,,,,,,,0,131,5,5,2142,2190,absent_patch/patch0002142.jpg,absent_patch/patch0002190.jpg,,,,,,,,,,,,,,,,,,,,0.059259273,0.106481481,1,0,0,response1disk,11,-0.003703718,0.005555541,1,0,0,center_square,0,10,10,70,1,,,,,,,,,,,,,,,,,,,,,,,
710800,001,2022-11-20_23h51.10.321,Info_measure_main_exp,2022.2.2,Win32,144.1129846,,,,,,,,,,,,,,,,,,masks/mask_005.jpg,,,,,,,,,,,,,,,,,,,,,,,,,,,,,,,,,,,,,,,,,,,0,0,0,4,1,,,,,,,,,,,,,,,,,,,,,,,,,,,,,,,,,,,,,,,,,,,,,,
710800,001,2022-11-20_23h51.10.321,Info_measure_main_exp,2022.2.2,Win32,144.1129846,,,,,,,,,,,,,,,,,,masks/mask_003.jpg,,,,,,,,,,,,,,,,,,,,,,,,,,,,,,,,,,,,,,,,,,,0,1,1,2,1,,,,,,,,,,,,,,,,,,,,,,,,,,,,,,,,,,,,,,,,,,,,,,
710800,001,2022-11-20_23h51.10.321,Info_measure_main_exp,2022.2.2,Win32,144.1129846,,,,,,,,,,,,,,,,,,masks/mask_004.jpg,,,,,,,,,,,,,,,,,,,,,,,,,,,,,,,,,,,,,,,,,,,0,2,2,3,1,,,,,,,,,,,,,,,,,,,,,,,,,,,,,,,,,,,,,,,,,,,,,,
710800,001,2022-11-20_23h51.10.321,Info_measure_main_exp,2022.2.2,Win32,144.1129846,,,,,,,,,,,,,,,,,,masks/mask_002.jpg,,,,,,,,,,,,,,,,,,,,,,,,,,,,,,,,,,,,,,,,,,,0,3,3,1,1,,,,,,,,,,,,,,,,,,,,,,,,,,,,,,,,,,,,,,,,,,,,,,
710800,001,2022-11-20_23h51.10.321,Info_measure_main_exp,2022.2.2,Win32,144.1129846,,,,,,,,,,,,,,,,,,masks/mask_001.jpg,,,,,,,,,,,,,,,,,,,,,,,,,,,,,,,,,,,,,,,,,,,0,4,4,0,1,,,,,,,,,,,,,,,,,,,,,,,,,,,,,,,,,,,,,,,,,,,,,,
710800,001,2022-11-20_23h51.10.321,Info_measure_main_exp,2022.2.2,Win32,144.1129846,,,,,,,,,,,,,,,,,,masks/mask_001.jpg,,,,,,,,,,,,,,,,,,,,,,,,,,,,,,,,,,,,,,,,,,,,,,,,0,0,0,0,1,,,,,,,,,,,,,,,,,,,,,,,,,,,,,,,,,,,,,,,,,
710800,001,2022-11-20_23h51.10.321,Info_measure_main_exp,2022.2.2,Win32,144.1129846,,,,,,,,,,,,,,,,,,masks/mask_002.jpg,,,,,,,,,,,,,,,,,,,,,,,,,,,,,,,,,,,,,,,,,,,,,,,,0,1,1,1,1,,,,,,,,,,,,,,,,,,,,,,,,,,,,,,,,,,,,,,,,,
710800,001,2022-11-20_23h51.10.321,Info_measure_main_exp,2022.2.2,Win32,144.1129846,,,,,,,,,,,,,,,,,,masks/mask_004.jpg,,,,,,,,,,,,,,,,,,,,,,,,,,,,,,,,,,,,,,,,,,,,,,,,0,2,2,3,1,,,,,,,,,,,,,,,,,,,,,,,,,,,,,,,,,,,,,,,,,
710800,001,2022-11-20_23h51.10.321,Info_measure_main_exp,2022.2.2,Win32,144.1129846,,,,,,,,,,,,,,,,,,masks/mask_005.jpg,,,,,,,,,,,,,,,,,,,,,,,,,,,,,,,,,,,,,,,,,,,,,,,,0,3,3,4,1,,,,,,,,,,,,,,,,,,,,,,,,,,,,,,,,,,,,,,,,,
710800,001,2022-11-20_23h51.10.321,Info_measure_main_exp,2022.2.2,Win32,144.1129846,,,,,,,,,,,,,,,,,,masks/mask_003.jpg,,,,,,,,,,,,,,,,,,,,,,,,,,,,,,,,,,,,,,,,,,,,,,,,0,4,4,2,1,,,,,,,,,,,,,,,,,,,,,,,,,,,,,,,,,,,,,,,,,
710800,001,2022-11-20_23h51.10.321,Info_measure_main_exp,2022.2.2,Win32,144.1129846,,,,,,,,,,,,,,,,,,,,,,,,,,,,,,0,1.0832,1,,,,,,,,,,,,0,131,5,5,2154,2154,absent_patch/patch0002154.jpg,absent_patch/patch0002154.jpg,,,,,,,,,,,,,,,,,,,,-0.01944443,0.14166666,1,0,0,response7disk,12,0,0.000925912,1,0,0,center_square,0,11,11,89,1,,,,,,,,,,,,,,,,,,,,,,,
710800,001,2022-11-20_23h51.10.321,Info_measure_main_exp,2022.2.2,Win32,144.1129846,,,,,,,,,,,,,,,,,,masks/mask_005.jpg,,,,,,,,,,,,,,,,,,,,,,,,,,,,,,,,,,,,,,,,,,,0,0,0,4,1,,,,,,,,,,,,,,,,,,,,,,,,,,,,,,,,,,,,,,,,,,,,,,
710800,001,2022-11-20_23h51.10.321,Info_measure_main_exp,2022.2.2,Win32,144.1129846,,,,,,,,,,,,,,,,,,masks/mask_001.jpg,,,,,,,,,,,,,,,,,,,,,,,,,,,,,,,,,,,,,,,,,,,0,1,1,0,1,,,,,,,,,,,,,,,,,,,,,,,,,,,,,,,,,,,,,,,,,,,,,,
710800,001,2022-11-20_23h51.10.321,Info_measure_main_exp,2022.2.2,Win32,144.1129846,,,,,,,,,,,,,,,,,,masks/mask_004.jpg,,,,,,,,,,,,,,,,,,,,,,,,,,,,,,,,,,,,,,,,,,,0,2,2,3,1,,,,,,,,,,,,,,,,,,,,,,,,,,,,,,,,,,,,,,,,,,,,,,
710800,001,2022-11-20_23h51.10.321,Info_measure_main_exp,2022.2.2,Win32,144.1129846,,,,,,,,,,,,,,,,,,masks/mask_002.jpg,,,,,,,,,,,,,,,,,,,,,,,,,,,,,,,,,,,,,,,,,,,0,3,3,1,1,,,,,,,,,,,,,,,,,,,,,,,,,,,,,,,,,,,,,,,,,,,,,,
710800,001,2022-11-20_23h51.10.321,Info_measure_main_exp,2022.2.2,Win32,144.1129846,,,,,,,,,,,,,,,,,,masks/mask_003.jpg,,,,,,,,,,,,,,,,,,,,,,,,,,,,,,,,,,,,,,,,,,,0,4,4,2,1,,,,,,,,,,,,,,,,,,,,,,,,,,,,,,,,,,,,,,,,,,,,,,
710800,001,2022-11-20_23h51.10.321,Info_measure_main_exp,2022.2.2,Win32,144.1129846,,,,,,,,,,,,,,,,,,masks/mask_004.jpg,,,,,,,,,,,,,,,,,,,,,,,,,,,,,,,,,,,,,,,,,,,,,,,,0,0,0,3,1,,,,,,,,,,,,,,,,,,,,,,,,,,,,,,,,,,,,,,,,,
710800,001,2022-11-20_23h51.10.321,Info_measure_main_exp,2022.2.2,Win32,144.1129846,,,,,,,,,,,,,,,,,,masks/mask_002.jpg,,,,,,,,,,,,,,,,,,,,,,,,,,,,,,,,,,,,,,,,,,,,,,,,0,1,1,1,1,,,,,,,,,,,,,,,,,,,,,,,,,,,,,,,,,,,,,,,,,
710800,001,2022-11-20_23h51.10.321,Info_measure_main_exp,2022.2.2,Win32,144.1129846,,,,,,,,,,,,,,,,,,masks/mask_005.jpg,,,,,,,,,,,,,,,,,,,,,,,,,,,,,,,,,,,,,,,,,,,,,,,,0,2,2,4,1,,,,,,,,,,,,,,,,,,,,,,,,,,,,,,,,,,,,,,,,,
710800,001,2022-11-20_23h51.10.321,Info_measure_main_exp,2022.2.2,Win32,144.1129846,,,,,,,,,,,,,,,,,,masks/mask_001.jpg,,,,,,,,,,,,,,,,,,,,,,,,,,,,,,,,,,,,,,,,,,,,,,,,0,3,3,0,1,,,,,,,,,,,,,,,,,,,,,,,,,,,,,,,,,,,,,,,,,
710800,001,2022-11-20_23h51.10.321,Info_measure_main_exp,2022.2.2,Win32,144.1129846,,,,,,,,,,,,,,,,,,masks/mask_003.jpg,,,,,,,,,,,,,,,,,,,,,,,,,,,,,,,,,,,,,,,,,,,,,,,,0,4,4,2,1,,,,,,,,,,,,,,,,,,,,,,,,,,,,,,,,,,,,,,,,,
710800,001,2022-11-20_23h51.10.321,Info_measure_main_exp,2022.2.2,Win32,144.1129846,,,,,,,,,,,,,,,,,,,,,,,,,,,,,,5,2.931,1,,,,,,,,,,,,0,131,5,5,1986,1974,absent_patch/patch0001986.jpg,absent_patch/patch0001974.jpg,,,,,,,,,,,,,,,,,,,,0.033333319,-0.022222236,1,0,0,response3disk,13,0.00462963,-0.0074074,1,0,0,center_square,0,12,12,25,1,,,,,,,,,,,,,,,,,,,,,,,
710800,001,2022-11-20_23h51.10.321,Info_measure_main_exp,2022.2.2,Win32,144.1129846,,,,,,,,,,,,,,,,,,masks/mask_002.jpg,,,,,,,,,,,,,,,,,,,,,,,,,,,,,,,,,,,,,,,,,,,0,0,0,1,1,,,,,,,,,,,,,,,,,,,,,,,,,,,,,,,,,,,,,,,,,,,,,,
710800,001,2022-11-20_23h51.10.321,Info_measure_main_exp,2022.2.2,Win32,144.1129846,,,,,,,,,,,,,,,,,,masks/mask_004.jpg,,,,,,,,,,,,,,,,,,,,,,,,,,,,,,,,,,,,,,,,,,,0,1,1,3,1,,,,,,,,,,,,,,,,,,,,,,,,,,,,,,,,,,,,,,,,,,,,,,
710800,001,2022-11-20_23h51.10.321,Info_measure_main_exp,2022.2.2,Win32,144.1129846,,,,,,,,,,,,,,,,,,masks/mask_003.jpg,,,,,,,,,,,,,,,,,,,,,,,,,,,,,,,,,,,,,,,,,,,0,2,2,2,1,,,,,,,,,,,,,,,,,,,,,,,,,,,,,,,,,,,,,,,,,,,,,,
710800,001,2022-11-20_23h51.10.321,Info_measure_main_exp,2022.2.2,Win32,144.1129846,,,,,,,,,,,,,,,,,,masks/mask_005.jpg,,,,,,,,,,,,,,,,,,,,,,,,,,,,,,,,,,,,,,,,,,,0,3,3,4,1,,,,,,,,,,,,,,,,,,,,,,,,,,,,,,,,,,,,,,,,,,,,,,
710800,001,2022-11-20_23h51.10.321,Info_measure_main_exp,2022.2.2,Win32,144.1129846,,,,,,,,,,,,,,,,,,masks/mask_001.jpg,,,,,,,,,,,,,,,,,,,,,,,,,,,,,,,,,,,,,,,,,,,0,4,4,0,1,,,,,,,,,,,,,,,,,,,,,,,,,,,,,,,,,,,,,,,,,,,,,,
710800,001,2022-11-20_23h51.10.321,Info_measure_main_exp,2022.2.2,Win32,144.1129846,,,,,,,,,,,,,,,,,,masks/mask_001.jpg,,,,,,,,,,,,,,,,,,,,,,,,,,,,,,,,,,,,,,,,,,,,,,,,0,0,0,0,1,,,,,,,,,,,,,,,,,,,,,,,,,,,,,,,,,,,,,,,,,
710800,001,2022-11-20_23h51.10.321,Info_measure_main_exp,2022.2.2,Win32,144.1129846,,,,,,,,,,,,,,,,,,masks/mask_002.jpg,,,,,,,,,,,,,,,,,,,,,,,,,,,,,,,,,,,,,,,,,,,,,,,,0,1,1,1,1,,,,,,,,,,,,,,,,,,,,,,,,,,,,,,,,,,,,,,,,,
710800,001,2022-11-20_23h51.10.321,Info_measure_main_exp,2022.2.2,Win32,144.1129846,,,,,,,,,,,,,,,,,,masks/mask_004.jpg,,,,,,,,,,,,,,,,,,,,,,,,,,,,,,,,,,,,,,,,,,,,,,,,0,2,2,3,1,,,,,,,,,,,,,,,,,,,,,,,,,,,,,,,,,,,,,,,,,
710800,001,2022-11-20_23h51.10.321,Info_measure_main_exp,2022.2.2,Win32,144.1129846,,,,,,,,,,,,,,,,,,masks/mask_003.jpg,,,,,,,,,,,,,,,,,,,,,,,,,,,,,,,,,,,,,,,,,,,,,,,,0,3,3,2,1,,,,,,,,,,,,,,,,,,,,,,,,,,,,,,,,,,,,,,,,,
710800,001,2022-11-20_23h51.10.321,Info_measure_main_exp,2022.2.2,Win32,144.1129846,,,,,,,,,,,,,,,,,,masks/mask_005.jpg,,,,,,,,,,,,,,,,,,,,,,,,,,,,,,,,,,,,,,,,,,,,,,,,0,4,4,4,1,,,,,,,,,,,,,,,,,,,,,,,,,,,,,,,,,,,,,,,,,
710800,001,2022-11-20_23h51.10.321,Info_measure_main_exp,2022.2.2,Win32,144.1129846,,,,,,,,,,,,,,,,,,,,,,,,,,,,,,5,2.9372,1,,,,,,,,,,,,0,131,5,5,1974,2142,absent_patch/patch0001974.jpg,absent_patch/patch0002142.jpg,,,,,,,,,,,,,,,,,,,,0.094444487,-0.08425928,1,0,0,response3disk,14,0.006481524,-0.0074074,1,0,0,center_square,0,13,13,38,1,,,,,,,,,,,,,,,,,,,,,,,
710800,001,2022-11-20_23h51.10.321,Info_measure_main_exp,2022.2.2,Win32,144.1129846,,,,,,,,,,,,,,,,,,masks/mask_002.jpg,,,,,,,,,,,,,,,,,,,,,,,,,,,,,,,,,,,,,,,,,,,0,0,0,1,1,,,,,,,,,,,,,,,,,,,,,,,,,,,,,,,,,,,,,,,,,,,,,,
710800,001,2022-11-20_23h51.10.321,Info_measure_main_exp,2022.2.2,Win32,144.1129846,,,,,,,,,,,,,,,,,,masks/mask_005.jpg,,,,,,,,,,,,,,,,,,,,,,,,,,,,,,,,,,,,,,,,,,,0,1,1,4,1,,,,,,,,,,,,,,,,,,,,,,,,,,,,,,,,,,,,,,,,,,,,,,
710800,001,2022-11-20_23h51.10.321,Info_measure_main_exp,2022.2.2,Win32,144.1129846,,,,,,,,,,,,,,,,,,masks/mask_003.jpg,,,,,,,,,,,,,,,,,,,,,,,,,,,,,,,,,,,,,,,,,,,0,2,2,2,1,,,,,,,,,,,,,,,,,,,,,,,,,,,,,,,,,,,,,,,,,,,,,,
710800,001,2022-11-20_23h51.10.321,Info_measure_main_exp,2022.2.2,Win32,144.1129846,,,,,,,,,,,,,,,,,,masks/mask_004.jpg,,,,,,,,,,,,,,,,,,,,,,,,,,,,,,,,,,,,,,,,,,,0,3,3,3,1,,,,,,,,,,,,,,,,,,,,,,,,,,,,,,,,,,,,,,,,,,,,,,
710800,001,2022-11-20_23h51.10.321,Info_measure_main_exp,2022.2.2,Win32,144.1129846,,,,,,,,,,,,,,,,,,masks/mask_001.jpg,,,,,,,,,,,,,,,,,,,,,,,,,,,,,,,,,,,,,,,,,,,0,4,4,0,1,,,,,,,,,,,,,,,,,,,,,,,,,,,,,,,,,,,,,,,,,,,,,,
710800,001,2022-11-20_23h51.10.321,Info_measure_main_exp,2022.2.2,Win32,144.1129846,,,,,,,,,,,,,,,,,,masks/mask_003.jpg,,,,,,,,,,,,,,,,,,,,,,,,,,,,,,,,,,,,,,,,,,,,,,,,0,0,0,2,1,,,,,,,,,,,,,,,,,,,,,,,,,,,,,,,,,,,,,,,,,
710800,001,2022-11-20_23h51.10.321,Info_measure_main_exp,2022.2.2,Win32,144.1129846,,,,,,,,,,,,,,,,,,masks/mask_005.jpg,,,,,,,,,,,,,,,,,,,,,,,,,,,,,,,,,,,,,,,,,,,,,,,,0,1,1,4,1,,,,,,,,,,,,,,,,,,,,,,,,,,,,,,,,,,,,,,,,,
710800,001,2022-11-20_23h51.10.321,Info_measure_main_exp,2022.2.2,Win32,144.1129846,,,,,,,,,,,,,,,,,,masks/mask_002.jpg,,,,,,,,,,,,,,,,,,,,,,,,,,,,,,,,,,,,,,,,,,,,,,,,0,2,2,1,1,,,,,,,,,,,,,,,,,,,,,,,,,,,,,,,,,,,,,,,,,
710800,001,2022-11-20_23h51.10.321,Info_measure_main_exp,2022.2.2,Win32,144.1129846,,,,,,,,,,,,,,,,,,masks/mask_001.jpg,,,,,,,,,,,,,,,,,,,,,,,,,,,,,,,,,,,,,,,,,,,,,,,,0,3,3,0,1,,,,,,,,,,,,,,,,,,,,,,,,,,,,,,,,,,,,,,,,,
710800,001,2022-11-20_23h51.10.321,Info_measure_main_exp,2022.2.2,Win32,144.1129846,,,,,,,,,,,,,,,,,,masks/mask_004.jpg,,,,,,,,,,,,,,,,,,,,,,,,,,,,,,,,,,,,,,,,,,,,,,,,0,4,4,3,1,,,,,,,,,,,,,,,,,,,,,,,,,,,,,,,,,,,,,,,,,
710800,001,2022-11-20_23h51.10.321,Info_measure_main_exp,2022.2.2,Win32,144.1129846,,,,,,,,,,,,,,,,,,,,,,,,,,,,,,6,2.757,1,,,,,,,,,,,,0,131,5,5,2214,2178,absent_patch/patch0002214.jpg,absent_patch/patch0002178.jpg,,,,,,,,,,,,,,,,,,,,0.106481481,0.058333326,1,0,0,response1disk,15,0.00462963,-0.005555577,1,0,0,center_square,0,14,14,62,1,,,,,,,,,,,,,,,,,,,,,,,
710800,001,2022-11-20_23h51.10.321,Info_measure_main_exp,2022.2.2,Win32,144.1129846,,,,,,,,,,,,,,,,,,masks/mask_003.jpg,,,,,,,,,,,,,,,,,,,,,,,,,,,,,,,,,,,,,,,,,,,0,0,0,2,1,,,,,,,,,,,,,,,,,,,,,,,,,,,,,,,,,,,,,,,,,,,,,,
710800,001,2022-11-20_23h51.10.321,Info_measure_main_exp,2022.2.2,Win32,144.1129846,,,,,,,,,,,,,,,,,,masks/mask_004.jpg,,,,,,,,,,,,,,,,,,,,,,,,,,,,,,,,,,,,,,,,,,,0,1,1,3,1,,,,,,,,,,,,,,,,,,,,,,,,,,,,,,,,,,,,,,,,,,,,,,
710800,001,2022-11-20_23h51.10.321,Info_measure_main_exp,2022.2.2,Win32,144.1129846,,,,,,,,,,,,,,,,,,masks/mask_001.jpg,,,,,,,,,,,,,,,,,,,,,,,,,,,,,,,,,,,,,,,,,,,0,2,2,0,1,,,,,,,,,,,,,,,,,,,,,,,,,,,,,,,,,,,,,,,,,,,,,,
710800,001,2022-11-20_23h51.10.321,Info_measure_main_exp,2022.2.2,Win32,144.1129846,,,,,,,,,,,,,,,,,,masks/mask_005.jpg,,,,,,,,,,,,,,,,,,,,,,,,,,,,,,,,,,,,,,,,,,,0,3,3,4,1,,,,,,,,,,,,,,,,,,,,,,,,,,,,,,,,,,,,,,,,,,,,,,
710800,001,2022-11-20_23h51.10.321,Info_measure_main_exp,2022.2.2,Win32,144.1129846,,,,,,,,,,,,,,,,,,masks/mask_002.jpg,,,,,,,,,,,,,,,,,,,,,,,,,,,,,,,,,,,,,,,,,,,0,4,4,1,1,,,,,,,,,,,,,,,,,,,,,,,,,,,,,,,,,,,,,,,,,,,,,,
710800,001,2022-11-20_23h51.10.321,Info_measure_main_exp,2022.2.2,Win32,144.1129846,,,,,,,,,,,,,,,,,,masks/mask_002.jpg,,,,,,,,,,,,,,,,,,,,,,,,,,,,,,,,,,,,,,,,,,,,,,,,0,0,0,1,1,,,,,,,,,,,,,,,,,,,,,,,,,,,,,,,,,,,,,,,,,
710800,001,2022-11-20_23h51.10.321,Info_measure_main_exp,2022.2.2,Win32,144.1129846,,,,,,,,,,,,,,,,,,masks/mask_003.jpg,,,,,,,,,,,,,,,,,,,,,,,,,,,,,,,,,,,,,,,,,,,,,,,,0,1,1,2,1,,,,,,,,,,,,,,,,,,,,,,,,,,,,,,,,,,,,,,,,,
710800,001,2022-11-20_23h51.10.321,Info_measure_main_exp,2022.2.2,Win32,144.1129846,,,,,,,,,,,,,,,,,,masks/mask_005.jpg,,,,,,,,,,,,,,,,,,,,,,,,,,,,,,,,,,,,,,,,,,,,,,,,0,2,2,4,1,,,,,,,,,,,,,,,,,,,,,,,,,,,,,,,,,,,,,,,,,
710800,001,2022-11-20_23h51.10.321,Info_measure_main_exp,2022.2.2,Win32,144.1129846,,,,,,,,,,,,,,,,,,masks/mask_004.jpg,,,,,,,,,,,,,,,,,,,,,,,,,,,,,,,,,,,,,,,,,,,,,,,,0,3,3,3,1,,,,,,,,,,,,,,,,,,,,,,,,,,,,,,,,,,,,,,,,,
710800,001,2022-11-20_23h51.10.321,Info_measure_main_exp,2022.2.2,Win32,144.1129846,,,,,,,,,,,,,,,,,,masks/mask_001.jpg,,,,,,,,,,,,,,,,,,,,,,,,,,,,,,,,,,,,,,,,,,,,,,,,0,4,4,0,1,,,,,,,,,,,,,,,,,,,,,,,,,,,,,,,,,,,,,,,,,
710800,001,2022-11-20_23h51.10.321,Info_measure_main_exp,2022.2.2,Win32,144.1129846,,,,,,,,,,,,,,,,,,,,,,,,,,,,,,5,3.1717,1,,,,,,,,,,,,1,131,5,5,1,2274,present_patch/cong_131_5_a.jpg,absent_patch/patch0002274.jpg,,,,,,,,,,,,,,,,,,,,0.087962963,-0.058333326,0,0,1,response3disk,16,0.000925912,-0.005555577,1,0,0,center_square,0,15,15,105,1,,,,,,,,,,,,,,,,,,,,,,,
710800,001,2022-11-20_23h51.10.321,Info_measure_main_exp,2022.2.2,Win32,144.1129846,,,,,,,,,,,,,,,,,,masks/mask_002.jpg,,,,,,,,,,,,,,,,,,,,,,,,,,,,,,,,,,,,,,,,,,,0,0,0,1,1,,,,,,,,,,,,,,,,,,,,,,,,,,,,,,,,,,,,,,,,,,,,,,
710800,001,2022-11-20_23h51.10.321,Info_measure_main_exp,2022.2.2,Win32,144.1129846,,,,,,,,,,,,,,,,,,masks/mask_004.jpg,,,,,,,,,,,,,,,,,,,,,,,,,,,,,,,,,,,,,,,,,,,0,1,1,3,1,,,,,,,,,,,,,,,,,,,,,,,,,,,,,,,,,,,,,,,,,,,,,,
710800,001,2022-11-20_23h51.10.321,Info_measure_main_exp,2022.2.2,Win32,144.1129846,,,,,,,,,,,,,,,,,,masks/mask_005.jpg,,,,,,,,,,,,,,,,,,,,,,,,,,,,,,,,,,,,,,,,,,,0,2,2,4,1,,,,,,,,,,,,,,,,,,,,,,,,,,,,,,,,,,,,,,,,,,,,,,
710800,001,2022-11-20_23h51.10.321,Info_measure_main_exp,2022.2.2,Win32,144.1129846,,,,,,,,,,,,,,,,,,masks/mask_001.jpg,,,,,,,,,,,,,,,,,,,,,,,,,,,,,,,,,,,,,,,,,,,0,3,3,0,1,,,,,,,,,,,,,,,,,,,,,,,,,,,,,,,,,,,,,,,,,,,,,,
710800,001,2022-11-20_23h51.10.321,Info_measure_main_exp,2022.2.2,Win32,144.1129846,,,,,,,,,,,,,,,,,,masks/mask_003.jpg,,,,,,,,,,,,,,,,,,,,,,,,,,,,,,,,,,,,,,,,,,,0,4,4,2,1,,,,,,,,,,,,,,,,,,,,,,,,,,,,,,,,,,,,,,,,,,,,,,
710800,001,2022-11-20_23h51.10.321,Info_measure_main_exp,2022.2.2,Win32,144.1129846,,,,,,,,,,,,,,,,,,masks/mask_004.jpg,,,,,,,,,,,,,,,,,,,,,,,,,,,,,,,,,,,,,,,,,,,,,,,,0,0,0,3,1,,,,,,,,,,,,,,,,,,,,,,,,,,,,,,,,,,,,,,,,,
710800,001,2022-11-20_23h51.10.321,Info_measure_main_exp,2022.2.2,Win32,144.1129846,,,,,,,,,,,,,,,,,,masks/mask_001.jpg,,,,,,,,,,,,,,,,,,,,,,,,,,,,,,,,,,,,,,,,,,,,,,,,0,1,1,0,1,,,,,,,,,,,,,,,,,,,,,,,,,,,,,,,,,,,,,,,,,
710800,001,2022-11-20_23h51.10.321,Info_measure_main_exp,2022.2.2,Win32,144.1129846,,,,,,,,,,,,,,,,,,masks/mask_002.jpg,,,,,,,,,,,,,,,,,,,,,,,,,,,,,,,,,,,,,,,,,,,,,,,,0,2,2,1,1,,,,,,,,,,,,,,,,,,,,,,,,,,,,,,,,,,,,,,,,,
710800,001,2022-11-20_23h51.10.321,Info_measure_main_exp,2022.2.2,Win32,144.1129846,,,,,,,,,,,,,,,,,,masks/mask_003.jpg,,,,,,,,,,,,,,,,,,,,,,,,,,,,,,,,,,,,,,,,,,,,,,,,0,3,3,2,1,,,,,,,,,,,,,,,,,,,,,,,,,,,,,,,,,,,,,,,,,
710800,001,2022-11-20_23h51.10.321,Info_measure_main_exp,2022.2.2,Win32,144.1129846,,,,,,,,,,,,,,,,,,masks/mask_005.jpg,,,,,,,,,,,,,,,,,,,,,,,,,,,,,,,,,,,,,,,,,,,,,,,,0,4,4,4,1,,,,,,,,,,,,,,,,,,,,,,,,,,,,,,,,,,,,,,,,,
710800,001,2022-11-20_23h51.10.321,Info_measure_main_exp,2022.2.2,Win32,144.1129846,,,,,,,,,,,,,,,,,,,,,,,,,,,,,,4,2.7499,1,,,,,,,,,,,,0,131,5,5,2238,2166,absent_patch/patch0002238.jpg,absent_patch/patch0002166.jpg,,,,,,,,,,,,,,,,,,,,0.039814843,-0.098148134,1,0,0,response3disk,17,0.005555541,-0.011111118,1,0,0,center_square,0,16,16,118,1,,,,,,,,,,,,,,,,,,,,,,,
710800,001,2022-11-20_23h51.10.321,Info_measure_main_exp,2022.2.2,Win32,144.1129846,,,,,,,,,,,,,,,,,,masks/mask_005.jpg,,,,,,,,,,,,,,,,,,,,,,,,,,,,,,,,,,,,,,,,,,,0,0,0,4,1,,,,,,,,,,,,,,,,,,,,,,,,,,,,,,,,,,,,,,,,,,,,,,
710800,001,2022-11-20_23h51.10.321,Info_measure_main_exp,2022.2.2,Win32,144.1129846,,,,,,,,,,,,,,,,,,masks/mask_003.jpg,,,,,,,,,,,,,,,,,,,,,,,,,,,,,,,,,,,,,,,,,,,0,1,1,2,1,,,,,,,,,,,,,,,,,,,,,,,,,,,,,,,,,,,,,,,,,,,,,,
710800,001,2022-11-20_23h51.10.321,Info_measure_main_exp,2022.2.2,Win32,144.1129846,,,,,,,,,,,,,,,,,,masks/mask_001.jpg,,,,,,,,,,,,,,,,,,,,,,,,,,,,,,,,,,,,,,,,,,,0,2,2,0,1,,,,,,,,,,,,,,,,,,,,,,,,,,,,,,,,,,,,,,,,,,,,,,
710800,001,2022-11-20_23h51.10.321,Info_measure_main_exp,2022.2.2,Win32,144.1129846,,,,,,,,,,,,,,,,,,masks/mask_002.jpg,,,,,,,,,,,,,,,,,,,,,,,,,,,,,,,,,,,,,,,,,,,0,3,3,1,1,,,,,,,,,,,,,,,,,,,,,,,,,,,,,,,,,,,,,,,,,,,,,,
710800,001,2022-11-20_23h51.10.321,Info_measure_main_exp,2022.2.2,Win32,144.1129846,,,,,,,,,,,,,,,,,,masks/mask_004.jpg,,,,,,,,,,,,,,,,,,,,,,,,,,,,,,,,,,,,,,,,,,,0,4,4,3,1,,,,,,,,,,,,,,,,,,,,,,,,,,,,,,,,,,,,,,,,,,,,,,
710800,001,2022-11-20_23h51.10.321,Info_measure_main_exp,2022.2.2,Win32,144.1129846,,,,,,,,,,,,,,,,,,masks/mask_005.jpg,,,,,,,,,,,,,,,,,,,,,,,,,,,,,,,,,,,,,,,,,,,,,,,,0,0,0,4,1,,,,,,,,,,,,,,,,,,,,,,,,,,,,,,,,,,,,,,,,,
710800,001,2022-11-20_23h51.10.321,Info_measure_main_exp,2022.2.2,Win32,144.1129846,,,,,,,,,,,,,,,,,,masks/mask_001.jpg,,,,,,,,,,,,,,,,,,,,,,,,,,,,,,,,,,,,,,,,,,,,,,,,0,1,1,0,1,,,,,,,,,,,,,,,,,,,,,,,,,,,,,,,,,,,,,,,,,
710800,001,2022-11-20_23h51.10.321,Info_measure_main_exp,2022.2.2,Win32,144.1129846,,,,,,,,,,,,,,,,,,masks/mask_002.jpg,,,,,,,,,,,,,,,,,,,,,,,,,,,,,,,,,,,,,,,,,,,,,,,,0,2,2,1,1,,,,,,,,,,,,,,,,,,,,,,,,,,,,,,,,,,,,,,,,,
710800,001,2022-11-20_23h51.10.321,Info_measure_main_exp,2022.2.2,Win32,144.1129846,,,,,,,,,,,,,,,,,,masks/mask_003.jpg,,,,,,,,,,,,,,,,,,,,,,,,,,,,,,,,,,,,,,,,,,,,,,,,0,3,3,2,1,,,,,,,,,,,,,,,,,,,,,,,,,,,,,,,,,,,,,,,,,
710800,001,2022-11-20_23h51.10.321,Info_measure_main_exp,2022.2.2,Win32,144.1129846,,,,,,,,,,,,,,,,,,masks/mask_004.jpg,,,,,,,,,,,,,,,,,,,,,,,,,,,,,,,,,,,,,,,,,,,,,,,,0,4,4,3,1,,,,,,,,,,,,,,,,,,,,,,,,,,,,,,,,,,,,,,,,,
710800,001,2022-11-20_23h51.10.321,Info_measure_main_exp,2022.2.2,Win32,144.1129846,,,,,,,,,,,,,,,,,,,,,,,,,,,,,,4,0.7423,1,,,,,,,,,,,,0,131,5,5,1986,1950,absent_patch/patch0001986.jpg,absent_patch/patch0001950.jpg,,,,,,,,,,,,,,,,,,,,0.005555541,-0.011111118,1,0,0,response3disk,18,0.005555541,-0.011111118,1,0,0,center_square,0,17,17,15,1,,,,,,,,,,,,,,,,,,,,,,,
710800,001,2022-11-20_23h51.10.321,Info_measure_main_exp,2022.2.2,Win32,144.1129846,,,,,,,,,,,,,,,,,,masks/mask_003.jpg,,,,,,,,,,,,,,,,,,,,,,,,,,,,,,,,,,,,,,,,,,,0,0,0,2,1,,,,,,,,,,,,,,,,,,,,,,,,,,,,,,,,,,,,,,,,,,,,,,
710800,001,2022-11-20_23h51.10.321,Info_measure_main_exp,2022.2.2,Win32,144.1129846,,,,,,,,,,,,,,,,,,masks/mask_004.jpg,,,,,,,,,,,,,,,,,,,,,,,,,,,,,,,,,,,,,,,,,,,0,1,1,3,1,,,,,,,,,,,,,,,,,,,,,,,,,,,,,,,,,,,,,,,,,,,,,,
710800,001,2022-11-20_23h51.10.321,Info_measure_main_exp,2022.2.2,Win32,144.1129846,,,,,,,,,,,,,,,,,,masks/mask_002.jpg,,,,,,,,,,,,,,,,,,,,,,,,,,,,,,,,,,,,,,,,,,,0,2,2,1,1,,,,,,,,,,,,,,,,,,,,,,,,,,,,,,,,,,,,,,,,,,,,,,
710800,001,2022-11-20_23h51.10.321,Info_measure_main_exp,2022.2.2,Win32,144.1129846,,,,,,,,,,,,,,,,,,masks/mask_001.jpg,,,,,,,,,,,,,,,,,,,,,,,,,,,,,,,,,,,,,,,,,,,0,3,3,0,1,,,,,,,,,,,,,,,,,,,,,,,,,,,,,,,,,,,,,,,,,,,,,,
710800,001,2022-11-20_23h51.10.321,Info_measure_main_exp,2022.2.2,Win32,144.1129846,,,,,,,,,,,,,,,,,,masks/mask_005.jpg,,,,,,,,,,,,,,,,,,,,,,,,,,,,,,,,,,,,,,,,,,,0,4,4,4,1,,,,,,,,,,,,,,,,,,,,,,,,,,,,,,,,,,,,,,,,,,,,,,
710800,001,2022-11-20_23h51.10.321,Info_measure_main_exp,2022.2.2,Win32,144.1129846,,,,,,,,,,,,,,,,,,masks/mask_001.jpg,,,,,,,,,,,,,,,,,,,,,,,,,,,,,,,,,,,,,,,,,,,,,,,,0,0,0,0,1,,,,,,,,,,,,,,,,,,,,,,,,,,,,,,,,,,,,,,,,,
710800,001,2022-11-20_23h51.10.321,Info_measure_main_exp,2022.2.2,Win32,144.1129846,,,,,,,,,,,,,,,,,,masks/mask_005.jpg,,,,,,,,,,,,,,,,,,,,,,,,,,,,,,,,,,,,,,,,,,,,,,,,0,1,1,4,1,,,,,,,,,,,,,,,,,,,,,,,,,,,,,,,,,,,,,,,,,
710800,001,2022-11-20_23h51.10.321,Info_measure_main_exp,2022.2.2,Win32,144.1129846,,,,,,,,,,,,,,,,,,masks/mask_002.jpg,,,,,,,,,,,,,,,,,,,,,,,,,,,,,,,,,,,,,,,,,,,,,,,,0,2,2,1,1,,,,,,,,,,,,,,,,,,,,,,,,,,,,,,,,,,,,,,,,,
710800,001,2022-11-20_23h51.10.321,Info_measure_main_exp,2022.2.2,Win32,144.1129846,,,,,,,,,,,,,,,,,,masks/mask_003.jpg,,,,,,,,,,,,,,,,,,,,,,,,,,,,,,,,,,,,,,,,,,,,,,,,0,3,3,2,1,,,,,,,,,,,,,,,,,,,,,,,,,,,,,,,,,,,,,,,,,
710800,001,2022-11-20_23h51.10.321,Info_measure_main_exp,2022.2.2,Win32,144.1129846,,,,,,,,,,,,,,,,,,masks/mask_004.jpg,,,,,,,,,,,,,,,,,,,,,,,,,,,,,,,,,,,,,,,,,,,,,,,,0,4,4,3,1,,,,,,,,,,,,,,,,,,,,,,,,,,,,,,,,,,,,,,,,,
710800,001,2022-11-20_23h51.10.321,Info_measure_main_exp,2022.2.2,Win32,144.1129846,,,,,,,,,,,,,,,,,,,,,,,,,,,,,,6,2.3882,1,,,,,,,,,,,,0,131,5,5,1950,2166,absent_patch/patch0001950.jpg,absent_patch/patch0002166.jpg,,,,,,,,,,,,,,,,,,,,0.104629658,0.02407406,1,0,0,response1disk,19,-0.001851824,-0.000925947,1,0,0,center_square,0,18,18,0,1,,,,,,,,,,,,,,,,,,,,,,,
710800,001,2022-11-20_23h51.10.321,Info_measure_main_exp,2022.2.2,Win32,144.1129846,,,,,,,,,,,,,,,,,,masks/mask_002.jpg,,,,,,,,,,,,,,,,,,,,,,,,,,,,,,,,,,,,,,,,,,,0,0,0,1,1,,,,,,,,,,,,,,,,,,,,,,,,,,,,,,,,,,,,,,,,,,,,,,
710800,001,2022-11-20_23h51.10.321,Info_measure_main_exp,2022.2.2,Win32,144.1129846,,,,,,,,,,,,,,,,,,masks/mask_003.jpg,,,,,,,,,,,,,,,,,,,,,,,,,,,,,,,,,,,,,,,,,,,0,1,1,2,1,,,,,,,,,,,,,,,,,,,,,,,,,,,,,,,,,,,,,,,,,,,,,,
710800,001,2022-11-20_23h51.10.321,Info_measure_main_exp,2022.2.2,Win32,144.1129846,,,,,,,,,,,,,,,,,,masks/mask_004.jpg,,,,,,,,,,,,,,,,,,,,,,,,,,,,,,,,,,,,,,,,,,,0,2,2,3,1,,,,,,,,,,,,,,,,,,,,,,,,,,,,,,,,,,,,,,,,,,,,,,
710800,001,2022-11-20_23h51.10.321,Info_measure_main_exp,2022.2.2,Win32,144.1129846,,,,,,,,,,,,,,,,,,masks/mask_005.jpg,,,,,,,,,,,,,,,,,,,,,,,,,,,,,,,,,,,,,,,,,,,0,3,3,4,1,,,,,,,,,,,,,,,,,,,,,,,,,,,,,,,,,,,,,,,,,,,,,,
710800,001,2022-11-20_23h51.10.321,Info_measure_main_exp,2022.2.2,Win32,144.1129846,,,,,,,,,,,,,,,,,,masks/mask_001.jpg,,,,,,,,,,,,,,,,,,,,,,,,,,,,,,,,,,,,,,,,,,,0,4,4,0,1,,,,,,,,,,,,,,,,,,,,,,,,,,,,,,,,,,,,,,,,,,,,,,
710800,001,2022-11-20_23h51.10.321,Info_measure_main_exp,2022.2.2,Win32,144.1129846,,,,,,,,,,,,,,,,,,masks/mask_001.jpg,,,,,,,,,,,,,,,,,,,,,,,,,,,,,,,,,,,,,,,,,,,,,,,,0,0,0,0,1,,,,,,,,,,,,,,,,,,,,,,,,,,,,,,,,,,,,,,,,,
710800,001,2022-11-20_23h51.10.321,Info_measure_main_exp,2022.2.2,Win32,144.1129846,,,,,,,,,,,,,,,,,,masks/mask_002.jpg,,,,,,,,,,,,,,,,,,,,,,,,,,,,,,,,,,,,,,,,,,,,,,,,0,1,1,1,1,,,,,,,,,,,,,,,,,,,,,,,,,,,,,,,,,,,,,,,,,
710800,001,2022-11-20_23h51.10.321,Info_measure_main_exp,2022.2.2,Win32,144.1129846,,,,,,,,,,,,,,,,,,masks/mask_004.jpg,,,,,,,,,,,,,,,,,,,,,,,,,,,,,,,,,,,,,,,,,,,,,,,,0,2,2,3,1,,,,,,,,,,,,,,,,,,,,,,,,,,,,,,,,,,,,,,,,,
710800,001,2022-11-20_23h51.10.321,Info_measure_main_exp,2022.2.2,Win32,144.1129846,,,,,,,,,,,,,,,,,,masks/mask_005.jpg,,,,,,,,,,,,,,,,,,,,,,,,,,,,,,,,,,,,,,,,,,,,,,,,0,3,3,4,1,,,,,,,,,,,,,,,,,,,,,,,,,,,,,,,,,,,,,,,,,
710800,001,2022-11-20_23h51.10.321,Info_measure_main_exp,2022.2.2,Win32,144.1129846,,,,,,,,,,,,,,,,,,masks/mask_003.jpg,,,,,,,,,,,,,,,,,,,,,,,,,,,,,,,,,,,,,,,,,,,,,,,,0,4,4,2,1,,,,,,,,,,,,,,,,,,,,,,,,,,,,,,,,,,,,,,,,,
710800,001,2022-11-20_23h51.10.321,Info_measure_main_exp,2022.2.2,Win32,144.1129846,,,,,,,,,,,,,,,,,,,,,,,,,,,,,,6,1.8883,1,,,,,,,,,,,,1,131,5,5,2250,1,absent_patch/patch0002250.jpg,present_patch/cong_131_5_a.jpg,,,,,,,,,,,,,,,,,,,,0.080555598,0.030555548,1,0,0,response1disk,20,0.002777806,-0.012962977,1,0,0,center_square,0,19,19,5,1,,,,,,,,,,,,,,,,,,,,,,,
710800,001,2022-11-20_23h51.10.321,Info_measure_main_exp,2022.2.2,Win32,144.1129846,,,,,,,,,,,,,,,,,,masks/mask_005.jpg,,,,,,,,,,,,,,,,,,,,,,,,,,,,,,,,,,,,,,,,,,,0,0,0,4,1,,,,,,,,,,,,,,,,,,,,,,,,,,,,,,,,,,,,,,,,,,,,,,
710800,001,2022-11-20_23h51.10.321,Info_measure_main_exp,2022.2.2,Win32,144.1129846,,,,,,,,,,,,,,,,,,masks/mask_003.jpg,,,,,,,,,,,,,,,,,,,,,,,,,,,,,,,,,,,,,,,,,,,0,1,1,2,1,,,,,,,,,,,,,,,,,,,,,,,,,,,,,,,,,,,,,,,,,,,,,,
710800,001,2022-11-20_23h51.10.321,Info_measure_main_exp,2022.2.2,Win32,144.1129846,,,,,,,,,,,,,,,,,,masks/mask_002.jpg,,,,,,,,,,,,,,,,,,,,,,,,,,,,,,,,,,,,,,,,,,,0,2,2,1,1,,,,,,,,,,,,,,,,,,,,,,,,,,,,,,,,,,,,,,,,,,,,,,
710800,001,2022-11-20_23h51.10.321,Info_measure_main_exp,2022.2.2,Win32,144.1129846,,,,,,,,,,,,,,,,,,masks/mask_001.jpg,,,,,,,,,,,,,,,,,,,,,,,,,,,,,,,,,,,,,,,,,,,0,3,3,0,1,,,,,,,,,,,,,,,,,,,,,,,,,,,,,,,,,,,,,,,,,,,,,,
710800,001,2022-11-20_23h51.10.321,Info_measure_main_exp,2022.2.2,Win32,144.1129846,,,,,,,,,,,,,,,,,,masks/mask_004.jpg,,,,,,,,,,,,,,,,,,,,,,,,,,,,,,,,,,,,,,,,,,,0,4,4,3,1,,,,,,,,,,,,,,,,,,,,,,,,,,,,,,,,,,,,,,,,,,,,,,
710800,001,2022-11-20_23h51.10.321,Info_measure_main_exp,2022.2.2,Win32,144.1129846,,,,,,,,,,,,,,,,,,masks/mask_001.jpg,,,,,,,,,,,,,,,,,,,,,,,,,,,,,,,,,,,,,,,,,,,,,,,,0,0,0,0,1,,,,,,,,,,,,,,,,,,,,,,,,,,,,,,,,,,,,,,,,,
710800,001,2022-11-20_23h51.10.321,Info_measure_main_exp,2022.2.2,Win32,144.1129846,,,,,,,,,,,,,,,,,,masks/mask_005.jpg,,,,,,,,,,,,,,,,,,,,,,,,,,,,,,,,,,,,,,,,,,,,,,,,0,1,1,4,1,,,,,,,,,,,,,,,,,,,,,,,,,,,,,,,,,,,,,,,,,
710800,001,2022-11-20_23h51.10.321,Info_measure_main_exp,2022.2.2,Win32,144.1129846,,,,,,,,,,,,,,,,,,masks/mask_004.jpg,,,,,,,,,,,,,,,,,,,,,,,,,,,,,,,,,,,,,,,,,,,,,,,,0,2,2,3,1,,,,,,,,,,,,,,,,,,,,,,,,,,,,,,,,,,,,,,,,,
710800,001,2022-11-20_23h51.10.321,Info_measure_main_exp,2022.2.2,Win32,144.1129846,,,,,,,,,,,,,,,,,,masks/mask_003.jpg,,,,,,,,,,,,,,,,,,,,,,,,,,,,,,,,,,,,,,,,,,,,,,,,0,3,3,2,1,,,,,,,,,,,,,,,,,,,,,,,,,,,,,,,,,,,,,,,,,
710800,001,2022-11-20_23h51.10.321,Info_measure_main_exp,2022.2.2,Win32,144.1129846,,,,,,,,,,,,,,,,,,masks/mask_002.jpg,,,,,,,,,,,,,,,,,,,,,,,,,,,,,,,,,,,,,,,,,,,,,,,,0,4,4,1,1,,,,,,,,,,,,,,,,,,,,,,,,,,,,,,,,,,,,,,,,,
710800,001,2022-11-20_23h51.10.321,Info_measure_main_exp,2022.2.2,Win32,144.1129846,,,,,,,,,,,,,,,,,,,,,,,,,,,,,,4,2.8956,1,,,,,,,,,,,,0,131,5,5,2082,2166,absent_patch/patch0002082.jpg,absent_patch/patch0002166.jpg,,,,,,,,,,,,,,,,,,,,0.047222208,-0.078703704,1,0,0,response3disk,21,0.005555541,-0.00462963,1,0,0,center_square,0,20,20,43,1,,,,,,,,,,,,,,,,,,,,,,,
710800,001,2022-11-20_23h51.10.321,Info_measure_main_exp,2022.2.2,Win32,144.1129846,,,,,,,,,,,,,,,,,,masks/mask_005.jpg,,,,,,,,,,,,,,,,,,,,,,,,,,,,,,,,,,,,,,,,,,,0,0,0,4,1,,,,,,,,,,,,,,,,,,,,,,,,,,,,,,,,,,,,,,,,,,,,,,
710800,001,2022-11-20_23h51.10.321,Info_measure_main_exp,2022.2.2,Win32,144.1129846,,,,,,,,,,,,,,,,,,masks/mask_001.jpg,,,,,,,,,,,,,,,,,,,,,,,,,,,,,,,,,,,,,,,,,,,0,1,1,0,1,,,,,,,,,,,,,,,,,,,,,,,,,,,,,,,,,,,,,,,,,,,,,,
710800,001,2022-11-20_23h51.10.321,Info_measure_main_exp,2022.2.2,Win32,144.1129846,,,,,,,,,,,,,,,,,,masks/mask_003.jpg,,,,,,,,,,,,,,,,,,,,,,,,,,,,,,,,,,,,,,,,,,,0,2,2,2,1,,,,,,,,,,,,,,,,,,,,,,,,,,,,,,,,,,,,,,,,,,,,,,
710800,001,2022-11-20_23h51.10.321,Info_measure_main_exp,2022.2.2,Win32,144.1129846,,,,,,,,,,,,,,,,,,masks/mask_002.jpg,,,,,,,,,,,,,,,,,,,,,,,,,,,,,,,,,,,,,,,,,,,0,3,3,1,1,,,,,,,,,,,,,,,,,,,,,,,,,,,,,,,,,,,,,,,,,,,,,,
710800,001,2022-11-20_23h51.10.321,Info_measure_main_exp,2022.2.2,Win32,144.1129846,,,,,,,,,,,,,,,,,,masks/mask_004.jpg,,,,,,,,,,,,,,,,,,,,,,,,,,,,,,,,,,,,,,,,,,,0,4,4,3,1,,,,,,,,,,,,,,,,,,,,,,,,,,,,,,,,,,,,,,,,,,,,,,
710800,001,2022-11-20_23h51.10.321,Info_measure_main_exp,2022.2.2,Win32,144.1129846,,,,,,,,,,,,,,,,,,masks/mask_002.jpg,,,,,,,,,,,,,,,,,,,,,,,,,,,,,,,,,,,,,,,,,,,,,,,,0,0,0,1,1,,,,,,,,,,,,,,,,,,,,,,,,,,,,,,,,,,,,,,,,,
710800,001,2022-11-20_23h51.10.321,Info_measure_main_exp,2022.2.2,Win32,144.1129846,,,,,,,,,,,,,,,,,,masks/mask_001.jpg,,,,,,,,,,,,,,,,,,,,,,,,,,,,,,,,,,,,,,,,,,,,,,,,0,1,1,0,1,,,,,,,,,,,,,,,,,,,,,,,,,,,,,,,,,,,,,,,,,
710800,001,2022-11-20_23h51.10.321,Info_measure_main_exp,2022.2.2,Win32,144.1129846,,,,,,,,,,,,,,,,,,masks/mask_005.jpg,,,,,,,,,,,,,,,,,,,,,,,,,,,,,,,,,,,,,,,,,,,,,,,,0,2,2,4,1,,,,,,,,,,,,,,,,,,,,,,,,,,,,,,,,,,,,,,,,,
710800,001,2022-11-20_23h51.10.321,Info_measure_main_exp,2022.2.2,Win32,144.1129846,,,,,,,,,,,,,,,,,,masks/mask_004.jpg,,,,,,,,,,,,,,,,,,,,,,,,,,,,,,,,,,,,,,,,,,,,,,,,0,3,3,3,1,,,,,,,,,,,,,,,,,,,,,,,,,,,,,,,,,,,,,,,,,
710800,001,2022-11-20_23h51.10.321,Info_measure_main_exp,2022.2.2,Win32,144.1129846,,,,,,,,,,,,,,,,,,masks/mask_003.jpg,,,,,,,,,,,,,,,,,,,,,,,,,,,,,,,,,,,,,,,,,,,,,,,,0,4,4,2,1,,,,,,,,,,,,,,,,,,,,,,,,,,,,,,,,,,,,,,,,,
710800,001,2022-11-20_23h51.10.321,Info_measure_main_exp,2022.2.2,Win32,144.1129846,,,,,,,,,,,,,,,,,,,,,,,,,,,,,,3,1.7706,1,,,,,,,,,,,,1,131,5,5,2238,1,absent_patch/patch0002238.jpg,present_patch/cong_131_5_a.jpg,,,,,,,,,,,,,,,,,,,,-0.023148148,-0.057407414,1,0,0,response5disk,22,0.010185171,-0.0074074,1,0,0,center_square,0,21,21,104,1,,,,,,,,,,,,,,,,,,,,,,,
710800,001,2022-11-20_23h51.10.321,Info_measure_main_exp,2022.2.2,Win32,144.1129846,,,,,,,,,,,,,,,,,,masks/mask_004.jpg,,,,,,,,,,,,,,,,,,,,,,,,,,,,,,,,,,,,,,,,,,,0,0,0,3,1,,,,,,,,,,,,,,,,,,,,,,,,,,,,,,,,,,,,,,,,,,,,,,
710800,001,2022-11-20_23h51.10.321,Info_measure_main_exp,2022.2.2,Win32,144.1129846,,,,,,,,,,,,,,,,,,masks/mask_002.jpg,,,,,,,,,,,,,,,,,,,,,,,,,,,,,,,,,,,,,,,,,,,0,1,1,1,1,,,,,,,,,,,,,,,,,,,,,,,,,,,,,,,,,,,,,,,,,,,,,,
710800,001,2022-11-20_23h51.10.321,Info_measure_main_exp,2022.2.2,Win32,144.1129846,,,,,,,,,,,,,,,,,,masks/mask_005.jpg,,,,,,,,,,,,,,,,,,,,,,,,,,,,,,,,,,,,,,,,,,,0,2,2,4,1,,,,,,,,,,,,,,,,,,,,,,,,,,,,,,,,,,,,,,,,,,,,,,
710800,001,2022-11-20_23h51.10.321,Info_measure_main_exp,2022.2.2,Win32,144.1129846,,,,,,,,,,,,,,,,,,masks/mask_001.jpg,,,,,,,,,,,,,,,,,,,,,,,,,,,,,,,,,,,,,,,,,,,0,3,3,0,1,,,,,,,,,,,,,,,,,,,,,,,,,,,,,,,,,,,,,,,,,,,,,,
710800,001,2022-11-20_23h51.10.321,Info_measure_main_exp,2022.2.2,Win32,144.1129846,,,,,,,,,,,,,,,,,,masks/mask_003.jpg,,,,,,,,,,,,,,,,,,,,,,,,,,,,,,,,,,,,,,,,,,,0,4,4,2,1,,,,,,,,,,,,,,,,,,,,,,,,,,,,,,,,,,,,,,,,,,,,,,
710800,001,2022-11-20_23h51.10.321,Info_measure_main_exp,2022.2.2,Win32,144.1129846,,,,,,,,,,,,,,,,,,masks/mask_004.jpg,,,,,,,,,,,,,,,,,,,,,,,,,,,,,,,,,,,,,,,,,,,,,,,,0,0,0,3,1,,,,,,,,,,,,,,,,,,,,,,,,,,,,,,,,,,,,,,,,,
710800,001,2022-11-20_23h51.10.321,Info_measure_main_exp,2022.2.2,Win32,144.1129846,,,,,,,,,,,,,,,,,,masks/mask_003.jpg,,,,,,,,,,,,,,,,,,,,,,,,,,,,,,,,,,,,,,,,,,,,,,,,0,1,1,2,1,,,,,,,,,,,,,,,,,,,,,,,,,,,,,,,,,,,,,,,,,
710800,001,2022-11-20_23h51.10.321,Info_measure_main_exp,2022.2.2,Win32,144.1129846,,,,,,,,,,,,,,,,,,masks/mask_002.jpg,,,,,,,,,,,,,,,,,,,,,,,,,,,,,,,,,,,,,,,,,,,,,,,,0,2,2,1,1,,,,,,,,,,,,,,,,,,,,,,,,,,,,,,,,,,,,,,,,,
710800,001,2022-11-20_23h51.10.321,Info_measure_main_exp,2022.2.2,Win32,144.1129846,,,,,,,,,,,,,,,,,,masks/mask_005.jpg,,,,,,,,,,,,,,,,,,,,,,,,,,,,,,,,,,,,,,,,,,,,,,,,0,3,3,4,1,,,,,,,,,,,,,,,,,,,,,,,,,,,,,,,,,,,,,,,,,
710800,001,2022-11-20_23h51.10.321,Info_measure_main_exp,2022.2.2,Win32,144.1129846,,,,,,,,,,,,,,,,,,masks/mask_001.jpg,,,,,,,,,,,,,,,,,,,,,,,,,,,,,,,,,,,,,,,,,,,,,,,,0,4,4,0,1,,,,,,,,,,,,,,,,,,,,,,,,,,,,,,,,,,,,,,,,,
710800,001,2022-11-20_23h51.10.321,Info_measure_main_exp,2022.2.2,Win32,144.1129846,,,,,,,,,,,,,,,,,,,,,,,,,,,,,,2,1.4926,1,,,,,,,,,,,,0,131,5,5,2274,2166,absent_patch/patch0002274.jpg,absent_patch/patch0002166.jpg,,,,,,,,,,,,,,,,,,,,-0.092592593,-0.039814808,1,0,0,response5disk,23,0.001851894,0.002777771,1,0,0,center_square,0,22,22,78,1,,,,,,,,,,,,,,,,,,,,,,,
710800,001,2022-11-20_23h51.10.321,Info_measure_main_exp,2022.2.2,Win32,144.1129846,,,,,,,,,,,,,,,,,,masks/mask_002.jpg,,,,,,,,,,,,,,,,,,,,,,,,,,,,,,,,,,,,,,,,,,,0,0,0,1,1,,,,,,,,,,,,,,,,,,,,,,,,,,,,,,,,,,,,,,,,,,,,,,
710800,001,2022-11-20_23h51.10.321,Info_measure_main_exp,2022.2.2,Win32,144.1129846,,,,,,,,,,,,,,,,,,masks/mask_001.jpg,,,,,,,,,,,,,,,,,,,,,,,,,,,,,,,,,,,,,,,,,,,0,1,1,0,1,,,,,,,,,,,,,,,,,,,,,,,,,,,,,,,,,,,,,,,,,,,,,,
710800,001,2022-11-20_23h51.10.321,Info_measure_main_exp,2022.2.2,Win32,144.1129846,,,,,,,,,,,,,,,,,,masks/mask_004.jpg,,,,,,,,,,,,,,,,,,,,,,,,,,,,,,,,,,,,,,,,,,,0,2,2,3,1,,,,,,,,,,,,,,,,,,,,,,,,,,,,,,,,,,,,,,,,,,,,,,
710800,001,2022-11-20_23h51.10.321,Info_measure_main_exp,2022.2.2,Win32,144.1129846,,,,,,,,,,,,,,,,,,masks/mask_003.jpg,,,,,,,,,,,,,,,,,,,,,,,,,,,,,,,,,,,,,,,,,,,0,3,3,2,1,,,,,,,,,,,,,,,,,,,,,,,,,,,,,,,,,,,,,,,,,,,,,,
710800,001,2022-11-20_23h51.10.321,Info_measure_main_exp,2022.2.2,Win32,144.1129846,,,,,,,,,,,,,,,,,,masks/mask_005.jpg,,,,,,,,,,,,,,,,,,,,,,,,,,,,,,,,,,,,,,,,,,,0,4,4,4,1,,,,,,,,,,,,,,,,,,,,,,,,,,,,,,,,,,,,,,,,,,,,,,
710800,001,2022-11-20_23h51.10.321,Info_measure_main_exp,2022.2.2,Win32,144.1129846,,,,,,,,,,,,,,,,,,masks/mask_005.jpg,,,,,,,,,,,,,,,,,,,,,,,,,,,,,,,,,,,,,,,,,,,,,,,,0,0,0,4,1,,,,,,,,,,,,,,,,,,,,,,,,,,,,,,,,,,,,,,,,,
710800,001,2022-11-20_23h51.10.321,Info_measure_main_exp,2022.2.2,Win32,144.1129846,,,,,,,,,,,,,,,,,,masks/mask_003.jpg,,,,,,,,,,,,,,,,,,,,,,,,,,,,,,,,,,,,,,,,,,,,,,,,0,1,1,2,1,,,,,,,,,,,,,,,,,,,,,,,,,,,,,,,,,,,,,,,,,
710800,001,2022-11-20_23h51.10.321,Info_measure_main_exp,2022.2.2,Win32,144.1129846,,,,,,,,,,,,,,,,,,masks/mask_002.jpg,,,,,,,,,,,,,,,,,,,,,,,,,,,,,,,,,,,,,,,,,,,,,,,,0,2,2,1,1,,,,,,,,,,,,,,,,,,,,,,,,,,,,,,,,,,,,,,,,,
710800,001,2022-11-20_23h51.10.321,Info_measure_main_exp,2022.2.2,Win32,144.1129846,,,,,,,,,,,,,,,,,,masks/mask_001.jpg,,,,,,,,,,,,,,,,,,,,,,,,,,,,,,,,,,,,,,,,,,,,,,,,0,3,3,0,1,,,,,,,,,,,,,,,,,,,,,,,,,,,,,,,,,,,,,,,,,
710800,001,2022-11-20_23h51.10.321,Info_measure_main_exp,2022.2.2,Win32,144.1129846,,,,,,,,,,,,,,,,,,masks/mask_004.jpg,,,,,,,,,,,,,,,,,,,,,,,,,,,,,,,,,,,,,,,,,,,,,,,,0,4,4,3,1,,,,,,,,,,,,,,,,,,,,,,,,,,,,,,,,,,,,,,,,,
710800,001,2022-11-20_23h51.10.321,Info_measure_main_exp,2022.2.2,Win32,144.1129846,,,,,,,,,,,,,,,,,,,,,,,,,,,,,,0,0.9374,1,,,,,,,,,,,,0,131,5,5,2238,2238,absent_patch/patch0002238.jpg,absent_patch/patch0002238.jpg,,,,,,,,,,,,,,,,,,,,-0.020370342,0.066666674,1,0,0,response7disk,24,0.003703718,0,1,0,0,center_square,0,23,23,58,1,,,,,,,,,,,,,,,,,,,,,,,
710800,001,2022-11-20_23h51.10.321,Info_measure_main_exp,2022.2.2,Win32,144.1129846,,,,,,,,,,,,,,,,,,masks/mask_004.jpg,,,,,,,,,,,,,,,,,,,,,,,,,,,,,,,,,,,,,,,,,,,0,0,0,3,1,,,,,,,,,,,,,,,,,,,,,,,,,,,,,,,,,,,,,,,,,,,,,,
710800,001,2022-11-20_23h51.10.321,Info_measure_main_exp,2022.2.2,Win32,144.1129846,,,,,,,,,,,,,,,,,,masks/mask_003.jpg,,,,,,,,,,,,,,,,,,,,,,,,,,,,,,,,,,,,,,,,,,,0,1,1,2,1,,,,,,,,,,,,,,,,,,,,,,,,,,,,,,,,,,,,,,,,,,,,,,
710800,001,2022-11-20_23h51.10.321,Info_measure_main_exp,2022.2.2,Win32,144.1129846,,,,,,,,,,,,,,,,,,masks/mask_001.jpg,,,,,,,,,,,,,,,,,,,,,,,,,,,,,,,,,,,,,,,,,,,0,2,2,0,1,,,,,,,,,,,,,,,,,,,,,,,,,,,,,,,,,,,,,,,,,,,,,,
710800,001,2022-11-20_23h51.10.321,Info_measure_main_exp,2022.2.2,Win32,144.1129846,,,,,,,,,,,,,,,,,,masks/mask_005.jpg,,,,,,,,,,,,,,,,,,,,,,,,,,,,,,,,,,,,,,,,,,,0,3,3,4,1,,,,,,,,,,,,,,,,,,,,,,,,,,,,,,,,,,,,,,,,,,,,,,
710800,001,2022-11-20_23h51.10.321,Info_measure_main_exp,2022.2.2,Win32,144.1129846,,,,,,,,,,,,,,,,,,masks/mask_002.jpg,,,,,,,,,,,,,,,,,,,,,,,,,,,,,,,,,,,,,,,,,,,0,4,4,1,1,,,,,,,,,,,,,,,,,,,,,,,,,,,,,,,,,,,,,,,,,,,,,,
710800,001,2022-11-20_23h51.10.321,Info_measure_main_exp,2022.2.2,Win32,144.1129846,,,,,,,,,,,,,,,,,,masks/mask_005.jpg,,,,,,,,,,,,,,,,,,,,,,,,,,,,,,,,,,,,,,,,,,,,,,,,0,0,0,4,1,,,,,,,,,,,,,,,,,,,,,,,,,,,,,,,,,,,,,,,,,
710800,001,2022-11-20_23h51.10.321,Info_measure_main_exp,2022.2.2,Win32,144.1129846,,,,,,,,,,,,,,,,,,masks/mask_004.jpg,,,,,,,,,,,,,,,,,,,,,,,,,,,,,,,,,,,,,,,,,,,,,,,,0,1,1,3,1,,,,,,,,,,,,,,,,,,,,,,,,,,,,,,,,,,,,,,,,,
710800,001,2022-11-20_23h51.10.321,Info_measure_main_exp,2022.2.2,Win32,144.1129846,,,,,,,,,,,,,,,,,,masks/mask_001.jpg,,,,,,,,,,,,,,,,,,,,,,,,,,,,,,,,,,,,,,,,,,,,,,,,0,2,2,0,1,,,,,,,,,,,,,,,,,,,,,,,,,,,,,,,,,,,,,,,,,
710800,001,2022-11-20_23h51.10.321,Info_measure_main_exp,2022.2.2,Win32,144.1129846,,,,,,,,,,,,,,,,,,masks/mask_003.jpg,,,,,,,,,,,,,,,,,,,,,,,,,,,,,,,,,,,,,,,,,,,,,,,,0,3,3,2,1,,,,,,,,,,,,,,,,,,,,,,,,,,,,,,,,,,,,,,,,,
710800,001,2022-11-20_23h51.10.321,Info_measure_main_exp,2022.2.2,Win32,144.1129846,,,,,,,,,,,,,,,,,,masks/mask_002.jpg,,,,,,,,,,,,,,,,,,,,,,,,,,,,,,,,,,,,,,,,,,,,,,,,0,4,4,1,1,,,,,,,,,,,,,,,,,,,,,,,,,,,,,,,,,,,,,,,,,
710800,001,2022-11-20_23h51.10.321,Info_measure_main_exp,2022.2.2,Win32,144.1129846,,,,,,,,,,,,,,,,,,,,,,,,,,,,,,0,0.9587,1,,,,,,,,,,,,0,131,5,5,1986,1986,absent_patch/patch0001986.jpg,absent_patch/patch0001986.jpg,,,,,,,,,,,,,,,,,,,,-0.020370342,0.052777785,1,0,0,response7disk,25,-0.002777735,-0.001851859,1,0,0,center_square,0,24,24,19,1,,,,,,,,,,,,,,,,,,,,,,,
710800,001,2022-11-20_23h51.10.321,Info_measure_main_exp,2022.2.2,Win32,144.1129846,,,,,,,,,,,,,,,,,,masks/mask_001.jpg,,,,,,,,,,,,,,,,,,,,,,,,,,,,,,,,,,,,,,,,,,,0,0,0,0,1,,,,,,,,,,,,,,,,,,,,,,,,,,,,,,,,,,,,,,,,,,,,,,
710800,001,2022-11-20_23h51.10.321,Info_measure_main_exp,2022.2.2,Win32,144.1129846,,,,,,,,,,,,,,,,,,masks/mask_002.jpg,,,,,,,,,,,,,,,,,,,,,,,,,,,,,,,,,,,,,,,,,,,0,1,1,1,1,,,,,,,,,,,,,,,,,,,,,,,,,,,,,,,,,,,,,,,,,,,,,,
710800,001,2022-11-20_23h51.10.321,Info_measure_main_exp,2022.2.2,Win32,144.1129846,,,,,,,,,,,,,,,,,,masks/mask_003.jpg,,,,,,,,,,,,,,,,,,,,,,,,,,,,,,,,,,,,,,,,,,,0,2,2,2,1,,,,,,,,,,,,,,,,,,,,,,,,,,,,,,,,,,,,,,,,,,,,,,
710800,001,2022-11-20_23h51.10.321,Info_measure_main_exp,2022.2.2,Win32,144.1129846,,,,,,,,,,,,,,,,,,masks/mask_005.jpg,,,,,,,,,,,,,,,,,,,,,,,,,,,,,,,,,,,,,,,,,,,0,3,3,4,1,,,,,,,,,,,,,,,,,,,,,,,,,,,,,,,,,,,,,,,,,,,,,,
710800,001,2022-11-20_23h51.10.321,Info_measure_main_exp,2022.2.2,Win32,144.1129846,,,,,,,,,,,,,,,,,,masks/mask_004.jpg,,,,,,,,,,,,,,,,,,,,,,,,,,,,,,,,,,,,,,,,,,,0,4,4,3,1,,,,,,,,,,,,,,,,,,,,,,,,,,,,,,,,,,,,,,,,,,,,,,
710800,001,2022-11-20_23h51.10.321,Info_measure_main_exp,2022.2.2,Win32,144.1129846,,,,,,,,,,,,,,,,,,masks/mask_001.jpg,,,,,,,,,,,,,,,,,,,,,,,,,,,,,,,,,,,,,,,,,,,,,,,,0,0,0,0,1,,,,,,,,,,,,,,,,,,,,,,,,,,,,,,,,,,,,,,,,,
710800,001,2022-11-20_23h51.10.321,Info_measure_main_exp,2022.2.2,Win32,144.1129846,,,,,,,,,,,,,,,,,,masks/mask_005.jpg,,,,,,,,,,,,,,,,,,,,,,,,,,,,,,,,,,,,,,,,,,,,,,,,0,1,1,4,1,,,,,,,,,,,,,,,,,,,,,,,,,,,,,,,,,,,,,,,,,
710800,001,2022-11-20_23h51.10.321,Info_measure_main_exp,2022.2.2,Win32,144.1129846,,,,,,,,,,,,,,,,,,masks/mask_003.jpg,,,,,,,,,,,,,,,,,,,,,,,,,,,,,,,,,,,,,,,,,,,,,,,,0,2,2,2,1,,,,,,,,,,,,,,,,,,,,,,,,,,,,,,,,,,,,,,,,,
710800,001,2022-11-20_23h51.10.321,Info_measure_main_exp,2022.2.2,Win32,144.1129846,,,,,,,,,,,,,,,,,,masks/mask_002.jpg,,,,,,,,,,,,,,,,,,,,,,,,,,,,,,,,,,,,,,,,,,,,,,,,0,3,3,1,1,,,,,,,,,,,,,,,,,,,,,,,,,,,,,,,,,,,,,,,,,
710800,001,2022-11-20_23h51.10.321,Info_measure_main_exp,2022.2.2,Win32,144.1129846,,,,,,,,,,,,,,,,,,masks/mask_004.jpg,,,,,,,,,,,,,,,,,,,,,,,,,,,,,,,,,,,,,,,,,,,,,,,,0,4,4,3,1,,,,,,,,,,,,,,,,,,,,,,,,,,,,,,,,,,,,,,,,,
710800,001,2022-11-20_23h51.10.321,Info_measure_main_exp,2022.2.2,Win32,144.1129846,,,,,,,,,,,,,,,,,,,,,,,,,,,,,,5,3.4442,1,,,,,,,,,,,,0,131,5,5,2082,1974,absent_patch/patch0002082.jpg,absent_patch/patch0001974.jpg,,,,,,,,,,,,,,,,,,,,0.039814843,-0.014814836,1,0,0,response3disk,26,-0.002777735,0.000925912,1,0,0,center_square,0,25,25,26,1,,,,,,,,,,,,,,,,,,,,,,,
710800,001,2022-11-20_23h51.10.321,Info_measure_main_exp,2022.2.2,Win32,144.1129846,,,,,,,,,,,,,,,,,,masks/mask_003.jpg,,,,,,,,,,,,,,,,,,,,,,,,,,,,,,,,,,,,,,,,,,,0,0,0,2,1,,,,,,,,,,,,,,,,,,,,,,,,,,,,,,,,,,,,,,,,,,,,,,
710800,001,2022-11-20_23h51.10.321,Info_measure_main_exp,2022.2.2,Win32,144.1129846,,,,,,,,,,,,,,,,,,masks/mask_004.jpg,,,,,,,,,,,,,,,,,,,,,,,,,,,,,,,,,,,,,,,,,,,0,1,1,3,1,,,,,,,,,,,,,,,,,,,,,,,,,,,,,,,,,,,,,,,,,,,,,,
710800,001,2022-11-20_23h51.10.321,Info_measure_main_exp,2022.2.2,Win32,144.1129846,,,,,,,,,,,,,,,,,,masks/mask_002.jpg,,,,,,,,,,,,,,,,,,,,,,,,,,,,,,,,,,,,,,,,,,,0,2,2,1,1,,,,,,,,,,,,,,,,,,,,,,,,,,,,,,,,,,,,,,,,,,,,,,
710800,001,2022-11-20_23h51.10.321,Info_measure_main_exp,2022.2.2,Win32,144.1129846,,,,,,,,,,,,,,,,,,masks/mask_001.jpg,,,,,,,,,,,,,,,,,,,,,,,,,,,,,,,,,,,,,,,,,,,0,3,3,0,1,,,,,,,,,,,,,,,,,,,,,,,,,,,,,,,,,,,,,,,,,,,,,,
710800,001,2022-11-20_23h51.10.321,Info_measure_main_exp,2022.2.2,Win32,144.1129846,,,,,,,,,,,,,,,,,,masks/mask_005.jpg,,,,,,,,,,,,,,,,,,,,,,,,,,,,,,,,,,,,,,,,,,,0,4,4,4,1,,,,,,,,,,,,,,,,,,,,,,,,,,,,,,,,,,,,,,,,,,,,,,
710800,001,2022-11-20_23h51.10.321,Info_measure_main_exp,2022.2.2,Win32,144.1129846,,,,,,,,,,,,,,,,,,masks/mask_005.jpg,,,,,,,,,,,,,,,,,,,,,,,,,,,,,,,,,,,,,,,,,,,,,,,,0,0,0,4,1,,,,,,,,,,,,,,,,,,,,,,,,,,,,,,,,,,,,,,,,,
710800,001,2022-11-20_23h51.10.321,Info_measure_main_exp,2022.2.2,Win32,144.1129846,,,,,,,,,,,,,,,,,,masks/mask_002.jpg,,,,,,,,,,,,,,,,,,,,,,,,,,,,,,,,,,,,,,,,,,,,,,,,0,1,1,1,1,,,,,,,,,,,,,,,,,,,,,,,,,,,,,,,,,,,,,,,,,
710800,001,2022-11-20_23h51.10.321,Info_measure_main_exp,2022.2.2,Win32,144.1129846,,,,,,,,,,,,,,,,,,masks/mask_001.jpg,,,,,,,,,,,,,,,,,,,,,,,,,,,,,,,,,,,,,,,,,,,,,,,,0,2,2,0,1,,,,,,,,,,,,,,,,,,,,,,,,,,,,,,,,,,,,,,,,,
710800,001,2022-11-20_23h51.10.321,Info_measure_main_exp,2022.2.2,Win32,144.1129846,,,,,,,,,,,,,,,,,,masks/mask_003.jpg,,,,,,,,,,,,,,,,,,,,,,,,,,,,,,,,,,,,,,,,,,,,,,,,0,3,3,2,1,,,,,,,,,,,,,,,,,,,,,,,,,,,,,,,,,,,,,,,,,
710800,001,2022-11-20_23h51.10.321,Info_measure_main_exp,2022.2.2,Win32,144.1129846,,,,,,,,,,,,,,,,,,masks/mask_004.jpg,,,,,,,,,,,,,,,,,,,,,,,,,,,,,,,,,,,,,,,,,,,,,,,,0,4,4,3,1,,,,,,,,,,,,,,,,,,,,,,,,,,,,,,,,,,,,,,,,,
710800,001,2022-11-20_23h51.10.321,Info_measure_main_exp,2022.2.2,Win32,144.1129846,,,,,,,,,,,,,,,,,,,,,,,,,,,,,,4,1.5735,1,,,,,,,,,,,,1,131,5,5,2298,1,absent_patch/patch0002298.jpg,present_patch/cong_131_5_a.jpg,,,,,,,,,,,,,,,,,,,,0.017592607,-0.075000021,1,0,0,response3disk,27,-0.002777735,-0.0074074,1,0,0,center_square,0,26,26,45,1,,,,,,,,,,,,,,,,,,,,,,,
710800,001,2022-11-20_23h51.10.321,Info_measure_main_exp,2022.2.2,Win32,144.1129846,,,,,,,,,,,,,,,,,,masks/mask_005.jpg,,,,,,,,,,,,,,,,,,,,,,,,,,,,,,,,,,,,,,,,,,,0,0,0,4,1,,,,,,,,,,,,,,,,,,,,,,,,,,,,,,,,,,,,,,,,,,,,,,
710800,001,2022-11-20_23h51.10.321,Info_measure_main_exp,2022.2.2,Win32,144.1129846,,,,,,,,,,,,,,,,,,masks/mask_002.jpg,,,,,,,,,,,,,,,,,,,,,,,,,,,,,,,,,,,,,,,,,,,0,1,1,1,1,,,,,,,,,,,,,,,,,,,,,,,,,,,,,,,,,,,,,,,,,,,,,,
710800,001,2022-11-20_23h51.10.321,Info_measure_main_exp,2022.2.2,Win32,144.1129846,,,,,,,,,,,,,,,,,,masks/mask_001.jpg,,,,,,,,,,,,,,,,,,,,,,,,,,,,,,,,,,,,,,,,,,,0,2,2,0,1,,,,,,,,,,,,,,,,,,,,,,,,,,,,,,,,,,,,,,,,,,,,,,
710800,001,2022-11-20_23h51.10.321,Info_measure_main_exp,2022.2.2,Win32,144.1129846,,,,,,,,,,,,,,,,,,masks/mask_003.jpg,,,,,,,,,,,,,,,,,,,,,,,,,,,,,,,,,,,,,,,,,,,0,3,3,2,1,,,,,,,,,,,,,,,,,,,,,,,,,,,,,,,,,,,,,,,,,,,,,,
710800,001,2022-11-20_23h51.10.321,Info_measure_main_exp,2022.2.2,Win32,144.1129846,,,,,,,,,,,,,,,,,,masks/mask_004.jpg,,,,,,,,,,,,,,,,,,,,,,,,,,,,,,,,,,,,,,,,,,,0,4,4,3,1,,,,,,,,,,,,,,,,,,,,,,,,,,,,,,,,,,,,,,,,,,,,,,
710800,001,2022-11-20_23h51.10.321,Info_measure_main_exp,2022.2.2,Win32,144.1129846,,,,,,,,,,,,,,,,,,masks/mask_003.jpg,,,,,,,,,,,,,,,,,,,,,,,,,,,,,,,,,,,,,,,,,,,,,,,,0,0,0,2,1,,,,,,,,,,,,,,,,,,,,,,,,,,,,,,,,,,,,,,,,,
710800,001,2022-11-20_23h51.10.321,Info_measure_main_exp,2022.2.2,Win32,144.1129846,,,,,,,,,,,,,,,,,,masks/mask_001.jpg,,,,,,,,,,,,,,,,,,,,,,,,,,,,,,,,,,,,,,,,,,,,,,,,0,1,1,0,1,,,,,,,,,,,,,,,,,,,,,,,,,,,,,,,,,,,,,,,,,
710800,001,2022-11-20_23h51.10.321,Info_measure_main_exp,2022.2.2,Win32,144.1129846,,,,,,,,,,,,,,,,,,masks/mask_004.jpg,,,,,,,,,,,,,,,,,,,,,,,,,,,,,,,,,,,,,,,,,,,,,,,,0,2,2,3,1,,,,,,,,,,,,,,,,,,,,,,,,,,,,,,,,,,,,,,,,,
710800,001,2022-11-20_23h51.10.321,Info_measure_main_exp,2022.2.2,Win32,144.1129846,,,,,,,,,,,,,,,,,,masks/mask_002.jpg,,,,,,,,,,,,,,,,,,,,,,,,,,,,,,,,,,,,,,,,,,,,,,,,0,3,3,1,1,,,,,,,,,,,,,,,,,,,,,,,,,,,,,,,,,,,,,,,,,
710800,001,2022-11-20_23h51.10.321,Info_measure_main_exp,2022.2.2,Win32,144.1129846,,,,,,,,,,,,,,,,,,masks/mask_005.jpg,,,,,,,,,,,,,,,,,,,,,,,,,,,,,,,,,,,,,,,,,,,,,,,,0,4,4,4,1,,,,,,,,,,,,,,,,,,,,,,,,,,,,,,,,,,,,,,,,,
710800,001,2022-11-20_23h51.10.321,Info_measure_main_exp,2022.2.2,Win32,144.1129846,,,,,,,,,,,,,,,,,,,,,,,,,,,,,,6,2.1103,1,,,,,,,,,,,,1,131,5,5,1,1974,present_patch/cong_131_5_a.jpg,absent_patch/patch0001974.jpg,,,,,,,,,,,,,,,,,,,,0.062037079,0.029629637,1,0,0,response1disk,28,-0.006481453,-0.0074074,1,0,0,center_square,0,27,27,69,1,,,,,,,,,,,,,,,,,,,,,,,
710800,001,2022-11-20_23h51.10.321,Info_measure_main_exp,2022.2.2,Win32,144.1129846,,,,,,,,,,,,,,,,,,masks/mask_003.jpg,,,,,,,,,,,,,,,,,,,,,,,,,,,,,,,,,,,,,,,,,,,0,0,0,2,1,,,,,,,,,,,,,,,,,,,,,,,,,,,,,,,,,,,,,,,,,,,,,,
710800,001,2022-11-20_23h51.10.321,Info_measure_main_exp,2022.2.2,Win32,144.1129846,,,,,,,,,,,,,,,,,,masks/mask_002.jpg,,,,,,,,,,,,,,,,,,,,,,,,,,,,,,,,,,,,,,,,,,,0,1,1,1,1,,,,,,,,,,,,,,,,,,,,,,,,,,,,,,,,,,,,,,,,,,,,,,
710800,001,2022-11-20_23h51.10.321,Info_measure_main_exp,2022.2.2,Win32,144.1129846,,,,,,,,,,,,,,,,,,masks/mask_005.jpg,,,,,,,,,,,,,,,,,,,,,,,,,,,,,,,,,,,,,,,,,,,0,2,2,4,1,,,,,,,,,,,,,,,,,,,,,,,,,,,,,,,,,,,,,,,,,,,,,,
710800,001,2022-11-20_23h51.10.321,Info_measure_main_exp,2022.2.2,Win32,144.1129846,,,,,,,,,,,,,,,,,,masks/mask_004.jpg,,,,,,,,,,,,,,,,,,,,,,,,,,,,,,,,,,,,,,,,,,,0,3,3,3,1,,,,,,,,,,,,,,,,,,,,,,,,,,,,,,,,,,,,,,,,,,,,,,
710800,001,2022-11-20_23h51.10.321,Info_measure_main_exp,2022.2.2,Win32,144.1129846,,,,,,,,,,,,,,,,,,masks/mask_001.jpg,,,,,,,,,,,,,,,,,,,,,,,,,,,,,,,,,,,,,,,,,,,0,4,4,0,1,,,,,,,,,,,,,,,,,,,,,,,,,,,,,,,,,,,,,,,,,,,,,,
710800,001,2022-11-20_23h51.10.321,Info_measure_main_exp,2022.2.2,Win32,144.1129846,,,,,,,,,,,,,,,,,,masks/mask_001.jpg,,,,,,,,,,,,,,,,,,,,,,,,,,,,,,,,,,,,,,,,,,,,,,,,0,0,0,0,1,,,,,,,,,,,,,,,,,,,,,,,,,,,,,,,,,,,,,,,,,
710800,001,2022-11-20_23h51.10.321,Info_measure_main_exp,2022.2.2,Win32,144.1129846,,,,,,,,,,,,,,,,,,masks/mask_003.jpg,,,,,,,,,,,,,,,,,,,,,,,,,,,,,,,,,,,,,,,,,,,,,,,,0,1,1,2,1,,,,,,,,,,,,,,,,,,,,,,,,,,,,,,,,,,,,,,,,,
710800,001,2022-11-20_23h51.10.321,Info_measure_main_exp,2022.2.2,Win32,144.1129846,,,,,,,,,,,,,,,,,,masks/mask_005.jpg,,,,,,,,,,,,,,,,,,,,,,,,,,,,,,,,,,,,,,,,,,,,,,,,0,2,2,4,1,,,,,,,,,,,,,,,,,,,,,,,,,,,,,,,,,,,,,,,,,
710800,001,2022-11-20_23h51.10.321,Info_measure_main_exp,2022.2.2,Win32,144.1129846,,,,,,,,,,,,,,,,,,masks/mask_004.jpg,,,,,,,,,,,,,,,,,,,,,,,,,,,,,,,,,,,,,,,,,,,,,,,,0,3,3,3,1,,,,,,,,,,,,,,,,,,,,,,,,,,,,,,,,,,,,,,,,,
710800,001,2022-11-20_23h51.10.321,Info_measure_main_exp,2022.2.2,Win32,144.1129846,,,,,,,,,,,,,,,,,,masks/mask_002.jpg,,,,,,,,,,,,,,,,,,,,,,,,,,,,,,,,,,,,,,,,,,,,,,,,0,4,4,1,1,,,,,,,,,,,,,,,,,,,,,,,,,,,,,,,,,,,,,,,,,
710800,001,2022-11-20_23h51.10.321,Info_measure_main_exp,2022.2.2,Win32,144.1129846,,,,,,,,,,,,,,,,,,,,,,,,,,,,,,6,2.388,1,,,,,,,,,,,,0,131,5,5,1974,2166,absent_patch/patch0001974.jpg,absent_patch/patch0002166.jpg,,,,,,,,,,,,,,,,,,,,0.078703704,0.044444437,1,0,0,response1disk,29,0.00462963,0.00462963,1,0,0,center_square,0,28,28,77,1,,,,,,,,,,,,,,,,,,,,,,,
710800,001,2022-11-20_23h51.10.321,Info_measure_main_exp,2022.2.2,Win32,144.1129846,,,,,,,,,,,,,,,,,,masks/mask_005.jpg,,,,,,,,,,,,,,,,,,,,,,,,,,,,,,,,,,,,,,,,,,,0,0,0,4,1,,,,,,,,,,,,,,,,,,,,,,,,,,,,,,,,,,,,,,,,,,,,,,
710800,001,2022-11-20_23h51.10.321,Info_measure_main_exp,2022.2.2,Win32,144.1129846,,,,,,,,,,,,,,,,,,masks/mask_004.jpg,,,,,,,,,,,,,,,,,,,,,,,,,,,,,,,,,,,,,,,,,,,0,1,1,3,1,,,,,,,,,,,,,,,,,,,,,,,,,,,,,,,,,,,,,,,,,,,,,,
710800,001,2022-11-20_23h51.10.321,Info_measure_main_exp,2022.2.2,Win32,144.1129846,,,,,,,,,,,,,,,,,,masks/mask_003.jpg,,,,,,,,,,,,,,,,,,,,,,,,,,,,,,,,,,,,,,,,,,,0,2,2,2,1,,,,,,,,,,,,,,,,,,,,,,,,,,,,,,,,,,,,,,,,,,,,,,
710800,001,2022-11-20_23h51.10.321,Info_measure_main_exp,2022.2.2,Win32,144.1129846,,,,,,,,,,,,,,,,,,masks/mask_001.jpg,,,,,,,,,,,,,,,,,,,,,,,,,,,,,,,,,,,,,,,,,,,0,3,3,0,1,,,,,,,,,,,,,,,,,,,,,,,,,,,,,,,,,,,,,,,,,,,,,,
710800,001,2022-11-20_23h51.10.321,Info_measure_main_exp,2022.2.2,Win32,144.1129846,,,,,,,,,,,,,,,,,,masks/mask_002.jpg,,,,,,,,,,,,,,,,,,,,,,,,,,,,,,,,,,,,,,,,,,,0,4,4,1,1,,,,,,,,,,,,,,,,,,,,,,,,,,,,,,,,,,,,,,,,,,,,,,
710800,001,2022-11-20_23h51.10.321,Info_measure_main_exp,2022.2.2,Win32,144.1129846,,,,,,,,,,,,,,,,,,masks/mask_004.jpg,,,,,,,,,,,,,,,,,,,,,,,,,,,,,,,,,,,,,,,,,,,,,,,,0,0,0,3,1,,,,,,,,,,,,,,,,,,,,,,,,,,,,,,,,,,,,,,,,,
710800,001,2022-11-20_23h51.10.321,Info_measure_main_exp,2022.2.2,Win32,144.1129846,,,,,,,,,,,,,,,,,,masks/mask_002.jpg,,,,,,,,,,,,,,,,,,,,,,,,,,,,,,,,,,,,,,,,,,,,,,,,0,1,1,1,1,,,,,,,,,,,,,,,,,,,,,,,,,,,,,,,,,,,,,,,,,
710800,001,2022-11-20_23h51.10.321,Info_measure_main_exp,2022.2.2,Win32,144.1129846,,,,,,,,,,,,,,,,,,masks/mask_001.jpg,,,,,,,,,,,,,,,,,,,,,,,,,,,,,,,,,,,,,,,,,,,,,,,,0,2,2,0,1,,,,,,,,,,,,,,,,,,,,,,,,,,,,,,,,,,,,,,,,,
710800,001,2022-11-20_23h51.10.321,Info_measure_main_exp,2022.2.2,Win32,144.1129846,,,,,,,,,,,,,,,,,,masks/mask_003.jpg,,,,,,,,,,,,,,,,,,,,,,,,,,,,,,,,,,,,,,,,,,,,,,,,0,3,3,2,1,,,,,,,,,,,,,,,,,,,,,,,,,,,,,,,,,,,,,,,,,
710800,001,2022-11-20_23h51.10.321,Info_measure_main_exp,2022.2.2,Win32,144.1129846,,,,,,,,,,,,,,,,,,masks/mask_005.jpg,,,,,,,,,,,,,,,,,,,,,,,,,,,,,,,,,,,,,,,,,,,,,,,,0,4,4,4,1,,,,,,,,,,,,,,,,,,,,,,,,,,,,,,,,,,,,,,,,,
710800,001,2022-11-20_23h51.10.321,Info_measure_main_exp,2022.2.2,Win32,144.1129846,,,,,,,,,,,,,,,,,,,,,,,,,,,,,,4,1.8887,1,,,,,,,,,,,,0,131,5,5,2274,2214,absent_patch/patch0002274.jpg,absent_patch/patch0002214.jpg,,,,,,,,,,,,,,,,,,,,0.011111153,-0.062962956,1,0,0,response3disk,30,-0.001851824,0.006481489,1,0,0,center_square,0,29,29,11,1,,,,,,,,,,,,,,,,,,,,,,,
710800,001,2022-11-20_23h51.10.321,Info_measure_main_exp,2022.2.2,Win32,144.1129846,,,,,,,,,,,,,,,,,,masks/mask_005.jpg,,,,,,,,,,,,,,,,,,,,,,,,,,,,,,,,,,,,,,,,,,,0,0,0,4,1,,,,,,,,,,,,,,,,,,,,,,,,,,,,,,,,,,,,,,,,,,,,,,
710800,001,2022-11-20_23h51.10.321,Info_measure_main_exp,2022.2.2,Win32,144.1129846,,,,,,,,,,,,,,,,,,masks/mask_003.jpg,,,,,,,,,,,,,,,,,,,,,,,,,,,,,,,,,,,,,,,,,,,0,1,1,2,1,,,,,,,,,,,,,,,,,,,,,,,,,,,,,,,,,,,,,,,,,,,,,,
710800,001,2022-11-20_23h51.10.321,Info_measure_main_exp,2022.2.2,Win32,144.1129846,,,,,,,,,,,,,,,,,,masks/mask_004.jpg,,,,,,,,,,,,,,,,,,,,,,,,,,,,,,,,,,,,,,,,,,,0,2,2,3,1,,,,,,,,,,,,,,,,,,,,,,,,,,,,,,,,,,,,,,,,,,,,,,
710800,001,2022-11-20_23h51.10.321,Info_measure_main_exp,2022.2.2,Win32,144.1129846,,,,,,,,,,,,,,,,,,masks/mask_001.jpg,,,,,,,,,,,,,,,,,,,,,,,,,,,,,,,,,,,,,,,,,,,0,3,3,0,1,,,,,,,,,,,,,,,,,,,,,,,,,,,,,,,,,,,,,,,,,,,,,,
710800,001,2022-11-20_23h51.10.321,Info_measure_main_exp,2022.2.2,Win32,144.1129846,,,,,,,,,,,,,,,,,,masks/mask_002.jpg,,,,,,,,,,,,,,,,,,,,,,,,,,,,,,,,,,,,,,,,,,,0,4,4,1,1,,,,,,,,,,,,,,,,,,,,,,,,,,,,,,,,,,,,,,,,,,,,,,
710800,001,2022-11-20_23h51.10.321,Info_measure_main_exp,2022.2.2,Win32,144.1129846,,,,,,,,,,,,,,,,,,masks/mask_001.jpg,,,,,,,,,,,,,,,,,,,,,,,,,,,,,,,,,,,,,,,,,,,,,,,,0,0,0,0,1,,,,,,,,,,,,,,,,,,,,,,,,,,,,,,,,,,,,,,,,,
710800,001,2022-11-20_23h51.10.321,Info_measure_main_exp,2022.2.2,Win32,144.1129846,,,,,,,,,,,,,,,,,,masks/mask_002.jpg,,,,,,,,,,,,,,,,,,,,,,,,,,,,,,,,,,,,,,,,,,,,,,,,0,1,1,1,1,,,,,,,,,,,,,,,,,,,,,,,,,,,,,,,,,,,,,,,,,
710800,001,2022-11-20_23h51.10.321,Info_measure_main_exp,2022.2.2,Win32,144.1129846,,,,,,,,,,,,,,,,,,masks/mask_005.jpg,,,,,,,,,,,,,,,,,,,,,,,,,,,,,,,,,,,,,,,,,,,,,,,,0,2,2,4,1,,,,,,,,,,,,,,,,,,,,,,,,,,,,,,,,,,,,,,,,,
710800,001,2022-11-20_23h51.10.321,Info_measure_main_exp,2022.2.2,Win32,144.1129846,,,,,,,,,,,,,,,,,,masks/mask_004.jpg,,,,,,,,,,,,,,,,,,,,,,,,,,,,,,,,,,,,,,,,,,,,,,,,0,3,3,3,1,,,,,,,,,,,,,,,,,,,,,,,,,,,,,,,,,,,,,,,,,
710800,001,2022-11-20_23h51.10.321,Info_measure_main_exp,2022.2.2,Win32,144.1129846,,,,,,,,,,,,,,,,,,masks/mask_003.jpg,,,,,,,,,,,,,,,,,,,,,,,,,,,,,,,,,,,,,,,,,,,,,,,,0,4,4,2,1,,,,,,,,,,,,,,,,,,,,,,,,,,,,,,,,,,,,,,,,,
710800,001,2022-11-20_23h51.10.321,Info_measure_main_exp,2022.2.2,Win32,144.1129846,,,,,,,,,,,,,,,,,,,,,,,,,,,,,,5,2.5337,1,,,,,,,,,,,,0,131,5,5,2238,2214,absent_patch/patch0002238.jpg,absent_patch/patch0002214.jpg,,,,,,,,,,,,,,,,,,,,0.02407406,-0.023148148,1,0,0,response3disk,31,0.00462963,-0.0074074,1,0,0,center_square,0,30,30,81,1,,,,,,,,,,,,,,,,,,,,,,,
710800,001,2022-11-20_23h51.10.321,Info_measure_main_exp,2022.2.2,Win32,144.1129846,,,,,,,,,,,,,,,,,,masks/mask_002.jpg,,,,,,,,,,,,,,,,,,,,,,,,,,,,,,,,,,,,,,,,,,,0,0,0,1,1,,,,,,,,,,,,,,,,,,,,,,,,,,,,,,,,,,,,,,,,,,,,,,
710800,001,2022-11-20_23h51.10.321,Info_measure_main_exp,2022.2.2,Win32,144.1129846,,,,,,,,,,,,,,,,,,masks/mask_004.jpg,,,,,,,,,,,,,,,,,,,,,,,,,,,,,,,,,,,,,,,,,,,0,1,1,3,1,,,,,,,,,,,,,,,,,,,,,,,,,,,,,,,,,,,,,,,,,,,,,,
710800,001,2022-11-20_23h51.10.321,Info_measure_main_exp,2022.2.2,Win32,144.1129846,,,,,,,,,,,,,,,,,,masks/mask_003.jpg,,,,,,,,,,,,,,,,,,,,,,,,,,,,,,,,,,,,,,,,,,,0,2,2,2,1,,,,,,,,,,,,,,,,,,,,,,,,,,,,,,,,,,,,,,,,,,,,,,
710800,001,2022-11-20_23h51.10.321,Info_measure_main_exp,2022.2.2,Win32,144.1129846,,,,,,,,,,,,,,,,,,masks/mask_005.jpg,,,,,,,,,,,,,,,,,,,,,,,,,,,,,,,,,,,,,,,,,,,0,3,3,4,1,,,,,,,,,,,,,,,,,,,,,,,,,,,,,,,,,,,,,,,,,,,,,,
710800,001,2022-11-20_23h51.10.321,Info_measure_main_exp,2022.2.2,Win32,144.1129846,,,,,,,,,,,,,,,,,,masks/mask_001.jpg,,,,,,,,,,,,,,,,,,,,,,,,,,,,,,,,,,,,,,,,,,,0,4,4,0,1,,,,,,,,,,,,,,,,,,,,,,,,,,,,,,,,,,,,,,,,,,,,,,
710800,001,2022-11-20_23h51.10.321,Info_measure_main_exp,2022.2.2,Win32,144.1129846,,,,,,,,,,,,,,,,,,masks/mask_003.jpg,,,,,,,,,,,,,,,,,,,,,,,,,,,,,,,,,,,,,,,,,,,,,,,,0,0,0,2,1,,,,,,,,,,,,,,,,,,,,,,,,,,,,,,,,,,,,,,,,,
710800,001,2022-11-20_23h51.10.321,Info_measure_main_exp,2022.2.2,Win32,144.1129846,,,,,,,,,,,,,,,,,,masks/mask_002.jpg,,,,,,,,,,,,,,,,,,,,,,,,,,,,,,,,,,,,,,,,,,,,,,,,0,1,1,1,1,,,,,,,,,,,,,,,,,,,,,,,,,,,,,,,,,,,,,,,,,
710800,001,2022-11-20_23h51.10.321,Info_measure_main_exp,2022.2.2,Win32,144.1129846,,,,,,,,,,,,,,,,,,masks/mask_001.jpg,,,,,,,,,,,,,,,,,,,,,,,,,,,,,,,,,,,,,,,,,,,,,,,,0,2,2,0,1,,,,,,,,,,,,,,,,,,,,,,,,,,,,,,,,,,,,,,,,,
710800,001,2022-11-20_23h51.10.321,Info_measure_main_exp,2022.2.2,Win32,144.1129846,,,,,,,,,,,,,,,,,,masks/mask_005.jpg,,,,,,,,,,,,,,,,,,,,,,,,,,,,,,,,,,,,,,,,,,,,,,,,0,3,3,4,1,,,,,,,,,,,,,,,,,,,,,,,,,,,,,,,,,,,,,,,,,
710800,001,2022-11-20_23h51.10.321,Info_measure_main_exp,2022.2.2,Win32,144.1129846,,,,,,,,,,,,,,,,,,masks/mask_004.jpg,,,,,,,,,,,,,,,,,,,,,,,,,,,,,,,,,,,,,,,,,,,,,,,,0,4,4,3,1,,,,,,,,,,,,,,,,,,,,,,,,,,,,,,,,,,,,,,,,,
710800,001,2022-11-20_23h51.10.321,Info_measure_main_exp,2022.2.2,Win32,144.1129846,,,,,,,,,,,,,,,,,,,,,,,,,,,,,,4,1.497,1,,,,,,,,,,,,0,131,5,5,2166,2154,absent_patch/patch0002166.jpg,absent_patch/patch0002154.jpg,,,,,,,,,,,,,,,,,,,,0.006481524,-0.052777785,1,0,0,response3disk,32,0.002777806,-0.006481489,1,0,0,center_square,0,31,31,79,1,,,,,,,,,,,,,,,,,,,,,,,
710800,001,2022-11-20_23h51.10.321,Info_measure_main_exp,2022.2.2,Win32,144.1129846,,,,,,,,,,,,,,,,,,masks/mask_001.jpg,,,,,,,,,,,,,,,,,,,,,,,,,,,,,,,,,,,,,,,,,,,0,0,0,0,1,,,,,,,,,,,,,,,,,,,,,,,,,,,,,,,,,,,,,,,,,,,,,,
710800,001,2022-11-20_23h51.10.321,Info_measure_main_exp,2022.2.2,Win32,144.1129846,,,,,,,,,,,,,,,,,,masks/mask_003.jpg,,,,,,,,,,,,,,,,,,,,,,,,,,,,,,,,,,,,,,,,,,,0,1,1,2,1,,,,,,,,,,,,,,,,,,,,,,,,,,,,,,,,,,,,,,,,,,,,,,
710800,001,2022-11-20_23h51.10.321,Info_measure_main_exp,2022.2.2,Win32,144.1129846,,,,,,,,,,,,,,,,,,masks/mask_005.jpg,,,,,,,,,,,,,,,,,,,,,,,,,,,,,,,,,,,,,,,,,,,0,2,2,4,1,,,,,,,,,,,,,,,,,,,,,,,,,,,,,,,,,,,,,,,,,,,,,,
710800,001,2022-11-20_23h51.10.321,Info_measure_main_exp,2022.2.2,Win32,144.1129846,,,,,,,,,,,,,,,,,,masks/mask_002.jpg,,,,,,,,,,,,,,,,,,,,,,,,,,,,,,,,,,,,,,,,,,,0,3,3,1,1,,,,,,,,,,,,,,,,,,,,,,,,,,,,,,,,,,,,,,,,,,,,,,
710800,001,2022-11-20_23h51.10.321,Info_measure_main_exp,2022.2.2,Win32,144.1129846,,,,,,,,,,,,,,,,,,masks/mask_004.jpg,,,,,,,,,,,,,,,,,,,,,,,,,,,,,,,,,,,,,,,,,,,0,4,4,3,1,,,,,,,,,,,,,,,,,,,,,,,,,,,,,,,,,,,,,,,,,,,,,,
710800,001,2022-11-20_23h51.10.321,Info_measure_main_exp,2022.2.2,Win32,144.1129846,,,,,,,,,,,,,,,,,,masks/mask_005.jpg,,,,,,,,,,,,,,,,,,,,,,,,,,,,,,,,,,,,,,,,,,,,,,,,0,0,0,4,1,,,,,,,,,,,,,,,,,,,,,,,,,,,,,,,,,,,,,,,,,
710800,001,2022-11-20_23h51.10.321,Info_measure_main_exp,2022.2.2,Win32,144.1129846,,,,,,,,,,,,,,,,,,masks/mask_003.jpg,,,,,,,,,,,,,,,,,,,,,,,,,,,,,,,,,,,,,,,,,,,,,,,,0,1,1,2,1,,,,,,,,,,,,,,,,,,,,,,,,,,,,,,,,,,,,,,,,,
710800,001,2022-11-20_23h51.10.321,Info_measure_main_exp,2022.2.2,Win32,144.1129846,,,,,,,,,,,,,,,,,,masks/mask_001.jpg,,,,,,,,,,,,,,,,,,,,,,,,,,,,,,,,,,,,,,,,,,,,,,,,0,2,2,0,1,,,,,,,,,,,,,,,,,,,,,,,,,,,,,,,,,,,,,,,,,
710800,001,2022-11-20_23h51.10.321,Info_measure_main_exp,2022.2.2,Win32,144.1129846,,,,,,,,,,,,,,,,,,masks/mask_004.jpg,,,,,,,,,,,,,,,,,,,,,,,,,,,,,,,,,,,,,,,,,,,,,,,,0,3,3,3,1,,,,,,,,,,,,,,,,,,,,,,,,,,,,,,,,,,,,,,,,,
710800,001,2022-11-20_23h51.10.321,Info_measure_main_exp,2022.2.2,Win32,144.1129846,,,,,,,,,,,,,,,,,,masks/mask_002.jpg,,,,,,,,,,,,,,,,,,,,,,,,,,,,,,,,,,,,,,,,,,,,,,,,0,4,4,1,1,,,,,,,,,,,,,,,,,,,,,,,,,,,,,,,,,,,,,,,,,
710800,001,2022-11-20_23h51.10.321,Info_measure_main_exp,2022.2.2,Win32,144.1129846,,,,,,,,,,,,,,,,,,,,,,,,,,,,,,5,2.5207,1,,,,,,,,,,,,0,131,5,5,2142,2238,absent_patch/patch0002142.jpg,absent_patch/patch0002238.jpg,,,,,,,,,,,,,,,,,,,,0.100000028,-0.017592607,1,0,0,response3disk,33,0.00462963,0.00462963,1,0,0,center_square,0,32,32,101,1,,,,,,,,,,,,,,,,,,,,,,,
710800,001,2022-11-20_23h51.10.321,Info_measure_main_exp,2022.2.2,Win32,144.1129846,,,,,,,,,,,,,,,,,,masks/mask_001.jpg,,,,,,,,,,,,,,,,,,,,,,,,,,,,,,,,,,,,,,,,,,,0,0,0,0,1,,,,,,,,,,,,,,,,,,,,,,,,,,,,,,,,,,,,,,,,,,,,,,
710800,001,2022-11-20_23h51.10.321,Info_measure_main_exp,2022.2.2,Win32,144.1129846,,,,,,,,,,,,,,,,,,masks/mask_004.jpg,,,,,,,,,,,,,,,,,,,,,,,,,,,,,,,,,,,,,,,,,,,0,1,1,3,1,,,,,,,,,,,,,,,,,,,,,,,,,,,,,,,,,,,,,,,,,,,,,,
710800,001,2022-11-20_23h51.10.321,Info_measure_main_exp,2022.2.2,Win32,144.1129846,,,,,,,,,,,,,,,,,,masks/mask_002.jpg,,,,,,,,,,,,,,,,,,,,,,,,,,,,,,,,,,,,,,,,,,,0,2,2,1,1,,,,,,,,,,,,,,,,,,,,,,,,,,,,,,,,,,,,,,,,,,,,,,
710800,001,2022-11-20_23h51.10.321,Info_measure_main_exp,2022.2.2,Win32,144.1129846,,,,,,,,,,,,,,,,,,masks/mask_003.jpg,,,,,,,,,,,,,,,,,,,,,,,,,,,,,,,,,,,,,,,,,,,0,3,3,2,1,,,,,,,,,,,,,,,,,,,,,,,,,,,,,,,,,,,,,,,,,,,,,,
710800,001,2022-11-20_23h51.10.321,Info_measure_main_exp,2022.2.2,Win32,144.1129846,,,,,,,,,,,,,,,,,,masks/mask_005.jpg,,,,,,,,,,,,,,,,,,,,,,,,,,,,,,,,,,,,,,,,,,,0,4,4,4,1,,,,,,,,,,,,,,,,,,,,,,,,,,,,,,,,,,,,,,,,,,,,,,
710800,001,2022-11-20_23h51.10.321,Info_measure_main_exp,2022.2.2,Win32,144.1129846,,,,,,,,,,,,,,,,,,masks/mask_002.jpg,,,,,,,,,,,,,,,,,,,,,,,,,,,,,,,,,,,,,,,,,,,,,,,,0,0,0,1,1,,,,,,,,,,,,,,,,,,,,,,,,,,,,,,,,,,,,,,,,,
710800,001,2022-11-20_23h51.10.321,Info_measure_main_exp,2022.2.2,Win32,144.1129846,,,,,,,,,,,,,,,,,,masks/mask_004.jpg,,,,,,,,,,,,,,,,,,,,,,,,,,,,,,,,,,,,,,,,,,,,,,,,0,1,1,3,1,,,,,,,,,,,,,,,,,,,,,,,,,,,,,,,,,,,,,,,,,
710800,001,2022-11-20_23h51.10.321,Info_measure_main_exp,2022.2.2,Win32,144.1129846,,,,,,,,,,,,,,,,,,masks/mask_001.jpg,,,,,,,,,,,,,,,,,,,,,,,,,,,,,,,,,,,,,,,,,,,,,,,,0,2,2,0,1,,,,,,,,,,,,,,,,,,,,,,,,,,,,,,,,,,,,,,,,,
710800,001,2022-11-20_23h51.10.321,Info_measure_main_exp,2022.2.2,Win32,144.1129846,,,,,,,,,,,,,,,,,,masks/mask_005.jpg,,,,,,,,,,,,,,,,,,,,,,,,,,,,,,,,,,,,,,,,,,,,,,,,0,3,3,4,1,,,,,,,,,,,,,,,,,,,,,,,,,,,,,,,,,,,,,,,,,
710800,001,2022-11-20_23h51.10.321,Info_measure_main_exp,2022.2.2,Win32,144.1129846,,,,,,,,,,,,,,,,,,masks/mask_003.jpg,,,,,,,,,,,,,,,,,,,,,,,,,,,,,,,,,,,,,,,,,,,,,,,,0,4,4,2,1,,,,,,,,,,,,,,,,,,,,,,,,,,,,,,,,,,,,,,,,,
710800,001,2022-11-20_23h51.10.321,Info_measure_main_exp,2022.2.2,Win32,144.1129846,,,,,,,,,,,,,,,,,,,,,,,,,,,,,,6,1.7845,1,,,,,,,,,,,,0,131,5,5,2274,1950,absent_patch/patch0002274.jpg,absent_patch/patch0001950.jpg,,,,,,,,,,,,,,,,,,,,0.071296339,0.01944443,1,0,0,response1disk,34,0.009259259,0.001851859,1,0,0,center_square,0,33,33,10,1,,,,,,,,,,,,,,,,,,,,,,,
710800,001,2022-11-20_23h51.10.321,Info_measure_main_exp,2022.2.2,Win32,144.1129846,,,,,,,,,,,,,,,,,,masks/mask_004.jpg,,,,,,,,,,,,,,,,,,,,,,,,,,,,,,,,,,,,,,,,,,,0,0,0,3,1,,,,,,,,,,,,,,,,,,,,,,,,,,,,,,,,,,,,,,,,,,,,,,
710800,001,2022-11-20_23h51.10.321,Info_measure_main_exp,2022.2.2,Win32,144.1129846,,,,,,,,,,,,,,,,,,masks/mask_001.jpg,,,,,,,,,,,,,,,,,,,,,,,,,,,,,,,,,,,,,,,,,,,0,1,1,0,1,,,,,,,,,,,,,,,,,,,,,,,,,,,,,,,,,,,,,,,,,,,,,,
710800,001,2022-11-20_23h51.10.321,Info_measure_main_exp,2022.2.2,Win32,144.1129846,,,,,,,,,,,,,,,,,,masks/mask_005.jpg,,,,,,,,,,,,,,,,,,,,,,,,,,,,,,,,,,,,,,,,,,,0,2,2,4,1,,,,,,,,,,,,,,,,,,,,,,,,,,,,,,,,,,,,,,,,,,,,,,
710800,001,2022-11-20_23h51.10.321,Info_measure_main_exp,2022.2.2,Win32,144.1129846,,,,,,,,,,,,,,,,,,masks/mask_003.jpg,,,,,,,,,,,,,,,,,,,,,,,,,,,,,,,,,,,,,,,,,,,0,3,3,2,1,,,,,,,,,,,,,,,,,,,,,,,,,,,,,,,,,,,,,,,,,,,,,,
710800,001,2022-11-20_23h51.10.321,Info_measure_main_exp,2022.2.2,Win32,144.1129846,,,,,,,,,,,,,,,,,,masks/mask_002.jpg,,,,,,,,,,,,,,,,,,,,,,,,,,,,,,,,,,,,,,,,,,,0,4,4,1,1,,,,,,,,,,,,,,,,,,,,,,,,,,,,,,,,,,,,,,,,,,,,,,
710800,001,2022-11-20_23h51.10.321,Info_measure_main_exp,2022.2.2,Win32,144.1129846,,,,,,,,,,,,,,,,,,masks/mask_005.jpg,,,,,,,,,,,,,,,,,,,,,,,,,,,,,,,,,,,,,,,,,,,,,,,,0,0,0,4,1,,,,,,,,,,,,,,,,,,,,,,,,,,,,,,,,,,,,,,,,,
710800,001,2022-11-20_23h51.10.321,Info_measure_main_exp,2022.2.2,Win32,144.1129846,,,,,,,,,,,,,,,,,,masks/mask_001.jpg,,,,,,,,,,,,,,,,,,,,,,,,,,,,,,,,,,,,,,,,,,,,,,,,0,1,1,0,1,,,,,,,,,,,,,,,,,,,,,,,,,,,,,,,,,,,,,,,,,
710800,001,2022-11-20_23h51.10.321,Info_measure_main_exp,2022.2.2,Win32,144.1129846,,,,,,,,,,,,,,,,,,masks/mask_003.jpg,,,,,,,,,,,,,,,,,,,,,,,,,,,,,,,,,,,,,,,,,,,,,,,,0,2,2,2,1,,,,,,,,,,,,,,,,,,,,,,,,,,,,,,,,,,,,,,,,,
710800,001,2022-11-20_23h51.10.321,Info_measure_main_exp,2022.2.2,Win32,144.1129846,,,,,,,,,,,,,,,,,,masks/mask_002.jpg,,,,,,,,,,,,,,,,,,,,,,,,,,,,,,,,,,,,,,,,,,,,,,,,0,3,3,1,1,,,,,,,,,,,,,,,,,,,,,,,,,,,,,,,,,,,,,,,,,
