participant,session,date,expName,psychopyVersion,OS,frameRate,space_press_continue.keys,space_press_continue.rt,space_press_continue_2.keys,space_press_continue_2.rt,space_press_continue_3.keys,space_press_continue_3.rt,space_press_continue_4.keys,space_press_continue_4.rt,space_press_continue_5.keys,space_press_continue_5.rt,space_press_continue_6.keys,space_press_continue_6.rt,prac_mask_loop_1.thisRepN,prac_mask_loop_1.thisTrialN,prac_mask_loop_1.thisN,prac_mask_loop_1.thisIndex,prac_mask_loop_1.ran,mask_name,prac_mask_loop_2.thisRepN,prac_mask_loop_2.thisTrialN,prac_mask_loop_2.thisN,prac_mask_loop_2.thisIndex,prac_mask_loop_2.ran,mouse_2.x,mouse_2.y,mouse_2.leftButton,mouse_2.midButton,mouse_2.rightButton,mouse_2.clicked_name,similarity,response_time,Pass,mouse_12.x,mouse_12.y,mouse_12.leftButton,mouse_12.midButton,mouse_12.rightButton,mouse_12.clicked_name,prac_loop.thisRepN,prac_loop.thisTrialN,prac_loop.thisN,prac_loop.thisIndex,prac_loop.ran,Pair_type,Image_num,Patch_1_loc,Patch_2_loc,Patch_1_info,Patch_2_info,Patch_1_name,Patch_2_name,mouse_1.x,mouse_1.y,mouse_1.leftButton,mouse_1.midButton,mouse_1.rightButton,mouse_1.time,mouse_1.clicked_name,space_press_continue_7.keys,space_press_continue_7.rt,mask_loop.thisRepN,mask_loop.thisTrialN,mask_loop.thisN,mask_loop.thisIndex,mask_loop.ran,mask_loop_2.thisRepN,mask_loop_2.thisTrialN,mask_loop_2.thisN,mask_loop_2.thisIndex,mask_loop_2.ran,mouse.x,mouse.y,mouse.leftButton,mouse.midButton,mouse.rightButton,mouse.clicked_name,trialNumber,mouse_11.x,mouse_11.y,mouse_11.leftButton,mouse_11.midButton,mouse_11.rightButton,mouse_11.clicked_name,first_pass_loop.thisRepN,first_pass_loop.thisTrialN,first_pass_loop.thisN,first_pass_loop.thisIndex,first_pass_loop.ran,mask_loop_3.thisRepN,mask_loop_3.thisTrialN,mask_loop_3.thisN,mask_loop_3.thisIndex,mask_loop_3.ran,mask_loop_4.thisRepN,mask_loop_4.thisTrialN,mask_loop_4.thisN,mask_loop_4.thisIndex,mask_loop_4.ran,mouse_3.x,mouse_3.y,mouse_3.leftButton,mouse_3.midButton,mouse_3.rightButton,mouse_3.clicked_name,double_pass_loop.thisRepN,double_pass_loop.thisTrialN,double_pass_loop.thisN,double_pass_loop.thisIndex,double_pass_loop.ran,space_exit.keys,space_exit.rt
714789,001,2022-11-21_01h55.25.884,Info_measure_main_exp,2022.2.2,Win32,144.0714594,,,,,,,,,,,,,,,,,,,,,,,,,,,,,,,,,,,,,,,,,,,,,,,,,,,,,,,,,,,,,,,,,,,,,,,,,,,,,,,,,,,,,,,,,,,,,,,,,,,,,,,,,,,,,,,
714789,001,2022-11-21_01h55.25.884,Info_measure_main_exp,2022.2.2,Win32,144.0714594,,,,,,,,,,,,,,,,,,,,,,,,,,,,,,,,,,,,,,,,,,,,,,,,,,,,,,,,,,,,,,,,,,,,,,,,,,,,,,,,,,,,,,,,,,,,,,,,,,,,,,,,,,,,,,,
714789,001,2022-11-21_01h55.25.884,Info_measure_main_exp,2022.2.2,Win32,144.0714594,space,8.2698,,,,,,,,,,,,,,,,,,,,,,,,,,,,,,,,,,,,,,,,,,,,,,,,,,,,,,,,,,,,,,,,,,,,,,,,,,,,,,,,,,,,,,,,,,,,,,,,,,,,,,,,,,,,,
714789,001,2022-11-21_01h55.25.884,Info_measure_main_exp,2022.2.2,Win32,144.0714594,,,space,14.1384,,,,,,,,,,,,,,,,,,,,,,,,,,,,,,,,,,,,,,,,,,,,,,,,,,,,,,,,,,,,,,,,,,,,,,,,,,,,,,,,,,,,,,,,,,,,,,,,,,,,,,,,,,,
714789,001,2022-11-21_01h55.25.884,Info_measure_main_exp,2022.2.2,Win32,144.0714594,,,,,space,32.8035,,,,,,,,,,,,,,,,,,,,,,,,,,,,,,,,,,,,,,,,,,,,,,,,,,,,,,,,,,,,,,,,,,,,,,,,,,,,,,,,,,,,,,,,,,,,,,,,,,,,,,,,,
714789,001,2022-11-21_01h55.25.884,Info_measure_main_exp,2022.2.2,Win32,144.0714594,,,,,,,space,86.7884,,,,,,,,,,,,,,,,,,,,,,,,,,,,,,,,,,,,,,,,,,,,,,,,,,,,,,,,,,,,,,,,,,,,,,,,,,,,,,,,,,,,,,,,,,,,,,,,,,,,,,,
714789,001,2022-11-21_01h55.25.884,Info_measure_main_exp,2022.2.2,Win32,144.0714594,,,,,,,,,space,5.2964,,,,,,,,,,,,,,,,,,,,,,,,,,,,,,,,,,,,,,,,,,,,,,,,,,,,,,,,,,,,,,,,,,,,,,,,,,,,,,,,,,,,,,,,,,,,,,,,,,,,,
714789,001,2022-11-21_01h55.25.884,Info_measure_main_exp,2022.2.2,Win32,144.0714594,,,,,,,,,,,space,61.0664,,,,,,,,,,,,,,,,,,,,,,,,,,,,,,,,,,,,,,,,,,,,,,,,,,,,,,,,,,,,,,,,,,,,,,,,,,,,,,,,,,,,,,,,,,,,,,,,,,,
714789,001,2022-11-21_01h55.25.884,Info_measure_main_exp,2022.2.2,Win32,144.0714594,,,,,,,,,,,,,0,0,0,0,1,masks/mask_001.jpg,,,,,,,,,,,,,,,,,,,,,,,,,,,,,,,,,,,,,,,,,,,,,,,,,,,,,,,,,,,,,,,,,,,,,,,,,,,,,,,,,,,,,,,,,,,,,
714789,001,2022-11-21_01h55.25.884,Info_measure_main_exp,2022.2.2,Win32,144.0714594,,,,,,,,,,,,,0,1,1,4,1,masks/mask_005.jpg,,,,,,,,,,,,,,,,,,,,,,,,,,,,,,,,,,,,,,,,,,,,,,,,,,,,,,,,,,,,,,,,,,,,,,,,,,,,,,,,,,,,,,,,,,,,,
714789,001,2022-11-21_01h55.25.884,Info_measure_main_exp,2022.2.2,Win32,144.0714594,,,,,,,,,,,,,0,2,2,2,1,masks/mask_003.jpg,,,,,,,,,,,,,,,,,,,,,,,,,,,,,,,,,,,,,,,,,,,,,,,,,,,,,,,,,,,,,,,,,,,,,,,,,,,,,,,,,,,,,,,,,,,,,
714789,001,2022-11-21_01h55.25.884,Info_measure_main_exp,2022.2.2,Win32,144.0714594,,,,,,,,,,,,,0,3,3,3,1,masks/mask_004.jpg,,,,,,,,,,,,,,,,,,,,,,,,,,,,,,,,,,,,,,,,,,,,,,,,,,,,,,,,,,,,,,,,,,,,,,,,,,,,,,,,,,,,,,,,,,,,,
714789,001,2022-11-21_01h55.25.884,Info_measure_main_exp,2022.2.2,Win32,144.0714594,,,,,,,,,,,,,0,4,4,1,1,masks/mask_002.jpg,,,,,,,,,,,,,,,,,,,,,,,,,,,,,,,,,,,,,,,,,,,,,,,,,,,,,,,,,,,,,,,,,,,,,,,,,,,,,,,,,,,,,,,,,,,,,
714789,001,2022-11-21_01h55.25.884,Info_measure_main_exp,2022.2.2,Win32,144.0714594,,,,,,,,,,,,,,,,,,masks/mask_003.jpg,0,0,0,2,1,,,,,,,,,,,,,,,,,,,,,,,,,,,,,,,,,,,,,,,,,,,,,,,,,,,,,,,,,,,,,,,,,,,,,,,,,,,,,,,,,,,,,,,,
714789,001,2022-11-21_01h55.25.884,Info_measure_main_exp,2022.2.2,Win32,144.0714594,,,,,,,,,,,,,,,,,,masks/mask_001.jpg,0,1,1,0,1,,,,,,,,,,,,,,,,,,,,,,,,,,,,,,,,,,,,,,,,,,,,,,,,,,,,,,,,,,,,,,,,,,,,,,,,,,,,,,,,,,,,,,,,
714789,001,2022-11-21_01h55.25.884,Info_measure_main_exp,2022.2.2,Win32,144.0714594,,,,,,,,,,,,,,,,,,masks/mask_004.jpg,0,2,2,3,1,,,,,,,,,,,,,,,,,,,,,,,,,,,,,,,,,,,,,,,,,,,,,,,,,,,,,,,,,,,,,,,,,,,,,,,,,,,,,,,,,,,,,,,,
714789,001,2022-11-21_01h55.25.884,Info_measure_main_exp,2022.2.2,Win32,144.0714594,,,,,,,,,,,,,,,,,,masks/mask_002.jpg,0,3,3,1,1,,,,,,,,,,,,,,,,,,,,,,,,,,,,,,,,,,,,,,,,,,,,,,,,,,,,,,,,,,,,,,,,,,,,,,,,,,,,,,,,,,,,,,,,
714789,001,2022-11-21_01h55.25.884,Info_measure_main_exp,2022.2.2,Win32,144.0714594,,,,,,,,,,,,,,,,,,masks/mask_005.jpg,0,4,4,4,1,,,,,,,,,,,,,,,,,,,,,,,,,,,,,,,,,,,,,,,,,,,,,,,,,,,,,,,,,,,,,,,,,,,,,,,,,,,,,,,,,,,,,,,,
714789,001,2022-11-21_01h55.25.884,Info_measure_main_exp,2022.2.2,Win32,144.0714594,,,,,,,,,,,,,,,,,,,,,,,,0.174074102,0.037037037,1,0,0,response1disk,6,215.8771,1,-0.006481453,0,1,0,0,center_square,0,0,0,0,1,0,131,5,5,2370,2406,prac_patch/patch0002370.jpg,prac_patch/patch0002406.jpg,,,,,,,,,,,,,,,,,,,,,,,,,,,,,,,,,,,,,,,,,,,,,,,,,,,,,,,,,,,,
714789,001,2022-11-21_01h55.25.884,Info_measure_main_exp,2022.2.2,Win32,144.0714594,,,,,,,,,,,,,0,0,0,3,1,masks/mask_004.jpg,,,,,,,,,,,,,,,,,,,,,,,,,,,,,,,,,,,,,,,,,,,,,,,,,,,,,,,,,,,,,,,,,,,,,,,,,,,,,,,,,,,,,,,,,,,,,
714789,001,2022-11-21_01h55.25.884,Info_measure_main_exp,2022.2.2,Win32,144.0714594,,,,,,,,,,,,,0,1,1,2,1,masks/mask_003.jpg,,,,,,,,,,,,,,,,,,,,,,,,,,,,,,,,,,,,,,,,,,,,,,,,,,,,,,,,,,,,,,,,,,,,,,,,,,,,,,,,,,,,,,,,,,,,,
714789,001,2022-11-21_01h55.25.884,Info_measure_main_exp,2022.2.2,Win32,144.0714594,,,,,,,,,,,,,0,2,2,1,1,masks/mask_002.jpg,,,,,,,,,,,,,,,,,,,,,,,,,,,,,,,,,,,,,,,,,,,,,,,,,,,,,,,,,,,,,,,,,,,,,,,,,,,,,,,,,,,,,,,,,,,,,
714789,001,2022-11-21_01h55.25.884,Info_measure_main_exp,2022.2.2,Win32,144.0714594,,,,,,,,,,,,,0,3,3,0,1,masks/mask_001.jpg,,,,,,,,,,,,,,,,,,,,,,,,,,,,,,,,,,,,,,,,,,,,,,,,,,,,,,,,,,,,,,,,,,,,,,,,,,,,,,,,,,,,,,,,,,,,,
714789,001,2022-11-21_01h55.25.884,Info_measure_main_exp,2022.2.2,Win32,144.0714594,,,,,,,,,,,,,0,4,4,4,1,masks/mask_005.jpg,,,,,,,,,,,,,,,,,,,,,,,,,,,,,,,,,,,,,,,,,,,,,,,,,,,,,,,,,,,,,,,,,,,,,,,,,,,,,,,,,,,,,,,,,,,,,
714789,001,2022-11-21_01h55.25.884,Info_measure_main_exp,2022.2.2,Win32,144.0714594,,,,,,,,,,,,,,,,,,masks/mask_005.jpg,0,0,0,4,1,,,,,,,,,,,,,,,,,,,,,,,,,,,,,,,,,,,,,,,,,,,,,,,,,,,,,,,,,,,,,,,,,,,,,,,,,,,,,,,,,,,,,,,,
714789,001,2022-11-21_01h55.25.884,Info_measure_main_exp,2022.2.2,Win32,144.0714594,,,,,,,,,,,,,,,,,,masks/mask_003.jpg,0,1,1,2,1,,,,,,,,,,,,,,,,,,,,,,,,,,,,,,,,,,,,,,,,,,,,,,,,,,,,,,,,,,,,,,,,,,,,,,,,,,,,,,,,,,,,,,,,
714789,001,2022-11-21_01h55.25.884,Info_measure_main_exp,2022.2.2,Win32,144.0714594,,,,,,,,,,,,,,,,,,masks/mask_001.jpg,0,2,2,0,1,,,,,,,,,,,,,,,,,,,,,,,,,,,,,,,,,,,,,,,,,,,,,,,,,,,,,,,,,,,,,,,,,,,,,,,,,,,,,,,,,,,,,,,,
714789,001,2022-11-21_01h55.25.884,Info_measure_main_exp,2022.2.2,Win32,144.0714594,,,,,,,,,,,,,,,,,,masks/mask_002.jpg,0,3,3,1,1,,,,,,,,,,,,,,,,,,,,,,,,,,,,,,,,,,,,,,,,,,,,,,,,,,,,,,,,,,,,,,,,,,,,,,,,,,,,,,,,,,,,,,,,
714789,001,2022-11-21_01h55.25.884,Info_measure_main_exp,2022.2.2,Win32,144.0714594,,,,,,,,,,,,,,,,,,masks/mask_004.jpg,0,4,4,3,1,,,,,,,,,,,,,,,,,,,,,,,,,,,,,,,,,,,,,,,,,,,,,,,,,,,,,,,,,,,,,,,,,,,,,,,,,,,,,,,,,,,,,,,,
714789,001,2022-11-21_01h55.25.884,Info_measure_main_exp,2022.2.2,Win32,144.0714594,,,,,,,,,,,,,,,,,,,,,,,,-0.103703675,-0.044444437,1,0,0,response5disk,2,227.1533,1,0.000925912,-0.00462963,1,0,0,center_square,0,1,1,1,1,0,131,5,5,2514,2490,prac_patch/patch0002514.jpg,prac_patch/patch0002490.jpg,,,,,,,,,,,,,,,,,,,,,,,,,,,,,,,,,,,,,,,,,,,,,,,,,,,,,,,,,,,,
714789,001,2022-11-21_01h55.25.884,Info_measure_main_exp,2022.2.2,Win32,144.0714594,,,,,,,,,,,,,0,0,0,2,1,masks/mask_003.jpg,,,,,,,,,,,,,,,,,,,,,,,,,,,,,,,,,,,,,,,,,,,,,,,,,,,,,,,,,,,,,,,,,,,,,,,,,,,,,,,,,,,,,,,,,,,,,
714789,001,2022-11-21_01h55.25.884,Info_measure_main_exp,2022.2.2,Win32,144.0714594,,,,,,,,,,,,,0,1,1,3,1,masks/mask_004.jpg,,,,,,,,,,,,,,,,,,,,,,,,,,,,,,,,,,,,,,,,,,,,,,,,,,,,,,,,,,,,,,,,,,,,,,,,,,,,,,,,,,,,,,,,,,,,,
714789,001,2022-11-21_01h55.25.884,Info_measure_main_exp,2022.2.2,Win32,144.0714594,,,,,,,,,,,,,0,2,2,4,1,masks/mask_005.jpg,,,,,,,,,,,,,,,,,,,,,,,,,,,,,,,,,,,,,,,,,,,,,,,,,,,,,,,,,,,,,,,,,,,,,,,,,,,,,,,,,,,,,,,,,,,,,
714789,001,2022-11-21_01h55.25.884,Info_measure_main_exp,2022.2.2,Win32,144.0714594,,,,,,,,,,,,,0,3,3,1,1,masks/mask_002.jpg,,,,,,,,,,,,,,,,,,,,,,,,,,,,,,,,,,,,,,,,,,,,,,,,,,,,,,,,,,,,,,,,,,,,,,,,,,,,,,,,,,,,,,,,,,,,,
714789,001,2022-11-21_01h55.25.884,Info_measure_main_exp,2022.2.2,Win32,144.0714594,,,,,,,,,,,,,0,4,4,0,1,masks/mask_001.jpg,,,,,,,,,,,,,,,,,,,,,,,,,,,,,,,,,,,,,,,,,,,,,,,,,,,,,,,,,,,,,,,,,,,,,,,,,,,,,,,,,,,,,,,,,,,,,
714789,001,2022-11-21_01h55.25.884,Info_measure_main_exp,2022.2.2,Win32,144.0714594,,,,,,,,,,,,,,,,,,masks/mask_004.jpg,0,0,0,3,1,,,,,,,,,,,,,,,,,,,,,,,,,,,,,,,,,,,,,,,,,,,,,,,,,,,,,,,,,,,,,,,,,,,,,,,,,,,,,,,,,,,,,,,,
714789,001,2022-11-21_01h55.25.884,Info_measure_main_exp,2022.2.2,Win32,144.0714594,,,,,,,,,,,,,,,,,,masks/mask_001.jpg,0,1,1,0,1,,,,,,,,,,,,,,,,,,,,,,,,,,,,,,,,,,,,,,,,,,,,,,,,,,,,,,,,,,,,,,,,,,,,,,,,,,,,,,,,,,,,,,,,
714789,001,2022-11-21_01h55.25.884,Info_measure_main_exp,2022.2.2,Win32,144.0714594,,,,,,,,,,,,,,,,,,masks/mask_003.jpg,0,2,2,2,1,,,,,,,,,,,,,,,,,,,,,,,,,,,,,,,,,,,,,,,,,,,,,,,,,,,,,,,,,,,,,,,,,,,,,,,,,,,,,,,,,,,,,,,,
714789,001,2022-11-21_01h55.25.884,Info_measure_main_exp,2022.2.2,Win32,144.0714594,,,,,,,,,,,,,,,,,,masks/mask_005.jpg,0,3,3,4,1,,,,,,,,,,,,,,,,,,,,,,,,,,,,,,,,,,,,,,,,,,,,,,,,,,,,,,,,,,,,,,,,,,,,,,,,,,,,,,,,,,,,,,,,
714789,001,2022-11-21_01h55.25.884,Info_measure_main_exp,2022.2.2,Win32,144.0714594,,,,,,,,,,,,,,,,,,masks/mask_002.jpg,0,4,4,1,1,,,,,,,,,,,,,,,,,,,,,,,,,,,,,,,,,,,,,,,,,,,,,,,,,,,,,,,,,,,,,,,,,,,,,,,,,,,,,,,,,,,,,,,,
714789,001,2022-11-21_01h55.25.884,Info_measure_main_exp,2022.2.2,Win32,144.0714594,,,,,,,,,,,,,,,,,,,,,,,,-0.047222208,0.139814801,1,0,0,response7disk,0,234.8063,1,0.002777806,0.00462963,1,0,0,center_square,0,2,2,2,1,0,131,5,5,2526,2526,prac_patch/patch0002526.jpg,prac_patch/patch0002526.jpg,,,,,,,,,,,,,,,,,,,,,,,,,,,,,,,,,,,,,,,,,,,,,,,,,,,,,,,,,,,,
714789,001,2022-11-21_01h55.25.884,Info_measure_main_exp,2022.2.2,Win32,144.0714594,,,,,,,,,,,,,,,,,,,,,,,,,,,,,,,,,,,,,,,,,,,,,,,,,,,,,,,,,,,space,2.5776,,,,,,,,,,,,,,,,,,,,,,,,,,,,,,,,,,,,,,,,,,,,,,,,,,,
714789,001,2022-11-21_01h55.25.884,Info_measure_main_exp,2022.2.2,Win32,144.0714594,,,,,,,,,,,,,,,,,,masks/mask_005.jpg,,,,,,,,,,,,,,,,,,,,,,,,,,,,,,,,,,,,,,,,,,,0,0,0,4,1,,,,,,,,,,,,,,,,,,,,,,,,,,,,,,,,,,,,,,,,,,,,,,
714789,001,2022-11-21_01h55.25.884,Info_measure_main_exp,2022.2.2,Win32,144.0714594,,,,,,,,,,,,,,,,,,masks/mask_004.jpg,,,,,,,,,,,,,,,,,,,,,,,,,,,,,,,,,,,,,,,,,,,0,1,1,3,1,,,,,,,,,,,,,,,,,,,,,,,,,,,,,,,,,,,,,,,,,,,,,,
714789,001,2022-11-21_01h55.25.884,Info_measure_main_exp,2022.2.2,Win32,144.0714594,,,,,,,,,,,,,,,,,,masks/mask_002.jpg,,,,,,,,,,,,,,,,,,,,,,,,,,,,,,,,,,,,,,,,,,,0,2,2,1,1,,,,,,,,,,,,,,,,,,,,,,,,,,,,,,,,,,,,,,,,,,,,,,
714789,001,2022-11-21_01h55.25.884,Info_measure_main_exp,2022.2.2,Win32,144.0714594,,,,,,,,,,,,,,,,,,masks/mask_001.jpg,,,,,,,,,,,,,,,,,,,,,,,,,,,,,,,,,,,,,,,,,,,0,3,3,0,1,,,,,,,,,,,,,,,,,,,,,,,,,,,,,,,,,,,,,,,,,,,,,,
714789,001,2022-11-21_01h55.25.884,Info_measure_main_exp,2022.2.2,Win32,144.0714594,,,,,,,,,,,,,,,,,,masks/mask_003.jpg,,,,,,,,,,,,,,,,,,,,,,,,,,,,,,,,,,,,,,,,,,,0,4,4,2,1,,,,,,,,,,,,,,,,,,,,,,,,,,,,,,,,,,,,,,,,,,,,,,
714789,001,2022-11-21_01h55.25.884,Info_measure_main_exp,2022.2.2,Win32,144.0714594,,,,,,,,,,,,,,,,,,masks/mask_005.jpg,,,,,,,,,,,,,,,,,,,,,,,,,,,,,,,,,,,,,,,,,,,,,,,,0,0,0,4,1,,,,,,,,,,,,,,,,,,,,,,,,,,,,,,,,,,,,,,,,,
714789,001,2022-11-21_01h55.25.884,Info_measure_main_exp,2022.2.2,Win32,144.0714594,,,,,,,,,,,,,,,,,,masks/mask_003.jpg,,,,,,,,,,,,,,,,,,,,,,,,,,,,,,,,,,,,,,,,,,,,,,,,0,1,1,2,1,,,,,,,,,,,,,,,,,,,,,,,,,,,,,,,,,,,,,,,,,
714789,001,2022-11-21_01h55.25.884,Info_measure_main_exp,2022.2.2,Win32,144.0714594,,,,,,,,,,,,,,,,,,masks/mask_004.jpg,,,,,,,,,,,,,,,,,,,,,,,,,,,,,,,,,,,,,,,,,,,,,,,,0,2,2,3,1,,,,,,,,,,,,,,,,,,,,,,,,,,,,,,,,,,,,,,,,,
714789,001,2022-11-21_01h55.25.884,Info_measure_main_exp,2022.2.2,Win32,144.0714594,,,,,,,,,,,,,,,,,,masks/mask_001.jpg,,,,,,,,,,,,,,,,,,,,,,,,,,,,,,,,,,,,,,,,,,,,,,,,0,3,3,0,1,,,,,,,,,,,,,,,,,,,,,,,,,,,,,,,,,,,,,,,,,
714789,001,2022-11-21_01h55.25.884,Info_measure_main_exp,2022.2.2,Win32,144.0714594,,,,,,,,,,,,,,,,,,masks/mask_002.jpg,,,,,,,,,,,,,,,,,,,,,,,,,,,,,,,,,,,,,,,,,,,,,,,,0,4,4,1,1,,,,,,,,,,,,,,,,,,,,,,,,,,,,,,,,,,,,,,,,,
714789,001,2022-11-21_01h55.25.884,Info_measure_main_exp,2022.2.2,Win32,144.0714594,,,,,,,,,,,,,,,,,,,,,,,,,,,,,,7,2.2223,1,,,,,,,,,,,,0,131,5,5,2274,1950,absent_patch/patch0002274.jpg,absent_patch/patch0001950.jpg,,,,,,,,,,,,,,,,,,,,0.109259288,0.13703703,1,0,0,response1disk,1,0.002777806,0.00462963,1,0,0,center_square,0,0,0,10,1,,,,,,,,,,,,,,,,,,,,,,,
714789,001,2022-11-21_01h55.25.884,Info_measure_main_exp,2022.2.2,Win32,144.0714594,,,,,,,,,,,,,,,,,,masks/mask_001.jpg,,,,,,,,,,,,,,,,,,,,,,,,,,,,,,,,,,,,,,,,,,,0,0,0,0,1,,,,,,,,,,,,,,,,,,,,,,,,,,,,,,,,,,,,,,,,,,,,,,
714789,001,2022-11-21_01h55.25.884,Info_measure_main_exp,2022.2.2,Win32,144.0714594,,,,,,,,,,,,,,,,,,masks/mask_004.jpg,,,,,,,,,,,,,,,,,,,,,,,,,,,,,,,,,,,,,,,,,,,0,1,1,3,1,,,,,,,,,,,,,,,,,,,,,,,,,,,,,,,,,,,,,,,,,,,,,,
714789,001,2022-11-21_01h55.25.884,Info_measure_main_exp,2022.2.2,Win32,144.0714594,,,,,,,,,,,,,,,,,,masks/mask_005.jpg,,,,,,,,,,,,,,,,,,,,,,,,,,,,,,,,,,,,,,,,,,,0,2,2,4,1,,,,,,,,,,,,,,,,,,,,,,,,,,,,,,,,,,,,,,,,,,,,,,
714789,001,2022-11-21_01h55.25.884,Info_measure_main_exp,2022.2.2,Win32,144.0714594,,,,,,,,,,,,,,,,,,masks/mask_003.jpg,,,,,,,,,,,,,,,,,,,,,,,,,,,,,,,,,,,,,,,,,,,0,3,3,2,1,,,,,,,,,,,,,,,,,,,,,,,,,,,,,,,,,,,,,,,,,,,,,,
714789,001,2022-11-21_01h55.25.884,Info_measure_main_exp,2022.2.2,Win32,144.0714594,,,,,,,,,,,,,,,,,,masks/mask_002.jpg,,,,,,,,,,,,,,,,,,,,,,,,,,,,,,,,,,,,,,,,,,,0,4,4,1,1,,,,,,,,,,,,,,,,,,,,,,,,,,,,,,,,,,,,,,,,,,,,,,
714789,001,2022-11-21_01h55.25.884,Info_measure_main_exp,2022.2.2,Win32,144.0714594,,,,,,,,,,,,,,,,,,masks/mask_001.jpg,,,,,,,,,,,,,,,,,,,,,,,,,,,,,,,,,,,,,,,,,,,,,,,,0,0,0,0,1,,,,,,,,,,,,,,,,,,,,,,,,,,,,,,,,,,,,,,,,,
714789,001,2022-11-21_01h55.25.884,Info_measure_main_exp,2022.2.2,Win32,144.0714594,,,,,,,,,,,,,,,,,,masks/mask_002.jpg,,,,,,,,,,,,,,,,,,,,,,,,,,,,,,,,,,,,,,,,,,,,,,,,0,1,1,1,1,,,,,,,,,,,,,,,,,,,,,,,,,,,,,,,,,,,,,,,,,
714789,001,2022-11-21_01h55.25.884,Info_measure_main_exp,2022.2.2,Win32,144.0714594,,,,,,,,,,,,,,,,,,masks/mask_004.jpg,,,,,,,,,,,,,,,,,,,,,,,,,,,,,,,,,,,,,,,,,,,,,,,,0,2,2,3,1,,,,,,,,,,,,,,,,,,,,,,,,,,,,,,,,,,,,,,,,,
714789,001,2022-11-21_01h55.25.884,Info_measure_main_exp,2022.2.2,Win32,144.0714594,,,,,,,,,,,,,,,,,,masks/mask_005.jpg,,,,,,,,,,,,,,,,,,,,,,,,,,,,,,,,,,,,,,,,,,,,,,,,0,3,3,4,1,,,,,,,,,,,,,,,,,,,,,,,,,,,,,,,,,,,,,,,,,
714789,001,2022-11-21_01h55.25.884,Info_measure_main_exp,2022.2.2,Win32,144.0714594,,,,,,,,,,,,,,,,,,masks/mask_003.jpg,,,,,,,,,,,,,,,,,,,,,,,,,,,,,,,,,,,,,,,,,,,,,,,,0,4,4,2,1,,,,,,,,,,,,,,,,,,,,,,,,,,,,,,,,,,,,,,,,,
714789,001,2022-11-21_01h55.25.884,Info_measure_main_exp,2022.2.2,Win32,144.0714594,,,,,,,,,,,,,,,,,,,,,,,,,,,,,,4,1.7015,1,,,,,,,,,,,,1,131,5,5,2250,1,absent_patch/patch0002250.jpg,present_patch/cong_131_5_a.jpg,,,,,,,,,,,,,,,,,,,,0.065740727,-0.141666695,1,0,0,response3disk,2,0.007407436,-0.002777771,1,0,0,center_square,0,1,1,5,1,,,,,,,,,,,,,,,,,,,,,,,
714789,001,2022-11-21_01h55.25.884,Info_measure_main_exp,2022.2.2,Win32,144.0714594,,,,,,,,,,,,,,,,,,masks/mask_003.jpg,,,,,,,,,,,,,,,,,,,,,,,,,,,,,,,,,,,,,,,,,,,0,0,0,2,1,,,,,,,,,,,,,,,,,,,,,,,,,,,,,,,,,,,,,,,,,,,,,,
714789,001,2022-11-21_01h55.25.884,Info_measure_main_exp,2022.2.2,Win32,144.0714594,,,,,,,,,,,,,,,,,,masks/mask_005.jpg,,,,,,,,,,,,,,,,,,,,,,,,,,,,,,,,,,,,,,,,,,,0,1,1,4,1,,,,,,,,,,,,,,,,,,,,,,,,,,,,,,,,,,,,,,,,,,,,,,
714789,001,2022-11-21_01h55.25.884,Info_measure_main_exp,2022.2.2,Win32,144.0714594,,,,,,,,,,,,,,,,,,masks/mask_001.jpg,,,,,,,,,,,,,,,,,,,,,,,,,,,,,,,,,,,,,,,,,,,0,2,2,0,1,,,,,,,,,,,,,,,,,,,,,,,,,,,,,,,,,,,,,,,,,,,,,,
714789,001,2022-11-21_01h55.25.884,Info_measure_main_exp,2022.2.2,Win32,144.0714594,,,,,,,,,,,,,,,,,,masks/mask_004.jpg,,,,,,,,,,,,,,,,,,,,,,,,,,,,,,,,,,,,,,,,,,,0,3,3,3,1,,,,,,,,,,,,,,,,,,,,,,,,,,,,,,,,,,,,,,,,,,,,,,
714789,001,2022-11-21_01h55.25.884,Info_measure_main_exp,2022.2.2,Win32,144.0714594,,,,,,,,,,,,,,,,,,masks/mask_002.jpg,,,,,,,,,,,,,,,,,,,,,,,,,,,,,,,,,,,,,,,,,,,0,4,4,1,1,,,,,,,,,,,,,,,,,,,,,,,,,,,,,,,,,,,,,,,,,,,,,,
714789,001,2022-11-21_01h55.25.884,Info_measure_main_exp,2022.2.2,Win32,144.0714594,,,,,,,,,,,,,,,,,,masks/mask_002.jpg,,,,,,,,,,,,,,,,,,,,,,,,,,,,,,,,,,,,,,,,,,,,,,,,0,0,0,1,1,,,,,,,,,,,,,,,,,,,,,,,,,,,,,,,,,,,,,,,,,
714789,001,2022-11-21_01h55.25.884,Info_measure_main_exp,2022.2.2,Win32,144.0714594,,,,,,,,,,,,,,,,,,masks/mask_005.jpg,,,,,,,,,,,,,,,,,,,,,,,,,,,,,,,,,,,,,,,,,,,,,,,,0,1,1,4,1,,,,,,,,,,,,,,,,,,,,,,,,,,,,,,,,,,,,,,,,,
714789,001,2022-11-21_01h55.25.884,Info_measure_main_exp,2022.2.2,Win32,144.0714594,,,,,,,,,,,,,,,,,,masks/mask_003.jpg,,,,,,,,,,,,,,,,,,,,,,,,,,,,,,,,,,,,,,,,,,,,,,,,0,2,2,2,1,,,,,,,,,,,,,,,,,,,,,,,,,,,,,,,,,,,,,,,,,
714789,001,2022-11-21_01h55.25.884,Info_measure_main_exp,2022.2.2,Win32,144.0714594,,,,,,,,,,,,,,,,,,masks/mask_001.jpg,,,,,,,,,,,,,,,,,,,,,,,,,,,,,,,,,,,,,,,,,,,,,,,,0,3,3,0,1,,,,,,,,,,,,,,,,,,,,,,,,,,,,,,,,,,,,,,,,,
714789,001,2022-11-21_01h55.25.884,Info_measure_main_exp,2022.2.2,Win32,144.0714594,,,,,,,,,,,,,,,,,,masks/mask_004.jpg,,,,,,,,,,,,,,,,,,,,,,,,,,,,,,,,,,,,,,,,,,,,,,,,0,4,4,3,1,,,,,,,,,,,,,,,,,,,,,,,,,,,,,,,,,,,,,,,,,
714789,001,2022-11-21_01h55.25.884,Info_measure_main_exp,2022.2.2,Win32,144.0714594,,,,,,,,,,,,,,,,,,,,,,,,,,,,,,5,3.7292,1,,,,,,,,,,,,0,131,5,5,1950,2178,absent_patch/patch0001950.jpg,absent_patch/patch0002178.jpg,,,,,,,,,,,,,,,,,,,,0.194444444,-0.08888891,1,0,0,response3disk,3,-0.001851824,-0.003703718,1,0,0,center_square,0,2,2,61,1,,,,,,,,,,,,,,,,,,,,,,,
714789,001,2022-11-21_01h55.25.884,Info_measure_main_exp,2022.2.2,Win32,144.0714594,,,,,,,,,,,,,,,,,,masks/mask_001.jpg,,,,,,,,,,,,,,,,,,,,,,,,,,,,,,,,,,,,,,,,,,,0,0,0,0,1,,,,,,,,,,,,,,,,,,,,,,,,,,,,,,,,,,,,,,,,,,,,,,
714789,001,2022-11-21_01h55.25.884,Info_measure_main_exp,2022.2.2,Win32,144.0714594,,,,,,,,,,,,,,,,,,masks/mask_003.jpg,,,,,,,,,,,,,,,,,,,,,,,,,,,,,,,,,,,,,,,,,,,0,1,1,2,1,,,,,,,,,,,,,,,,,,,,,,,,,,,,,,,,,,,,,,,,,,,,,,
714789,001,2022-11-21_01h55.25.884,Info_measure_main_exp,2022.2.2,Win32,144.0714594,,,,,,,,,,,,,,,,,,masks/mask_004.jpg,,,,,,,,,,,,,,,,,,,,,,,,,,,,,,,,,,,,,,,,,,,0,2,2,3,1,,,,,,,,,,,,,,,,,,,,,,,,,,,,,,,,,,,,,,,,,,,,,,
714789,001,2022-11-21_01h55.25.884,Info_measure_main_exp,2022.2.2,Win32,144.0714594,,,,,,,,,,,,,,,,,,masks/mask_005.jpg,,,,,,,,,,,,,,,,,,,,,,,,,,,,,,,,,,,,,,,,,,,0,3,3,4,1,,,,,,,,,,,,,,,,,,,,,,,,,,,,,,,,,,,,,,,,,,,,,,
714789,001,2022-11-21_01h55.25.884,Info_measure_main_exp,2022.2.2,Win32,144.0714594,,,,,,,,,,,,,,,,,,masks/mask_002.jpg,,,,,,,,,,,,,,,,,,,,,,,,,,,,,,,,,,,,,,,,,,,0,4,4,1,1,,,,,,,,,,,,,,,,,,,,,,,,,,,,,,,,,,,,,,,,,,,,,,
714789,001,2022-11-21_01h55.25.884,Info_measure_main_exp,2022.2.2,Win32,144.0714594,,,,,,,,,,,,,,,,,,masks/mask_003.jpg,,,,,,,,,,,,,,,,,,,,,,,,,,,,,,,,,,,,,,,,,,,,,,,,0,0,0,2,1,,,,,,,,,,,,,,,,,,,,,,,,,,,,,,,,,,,,,,,,,
714789,001,2022-11-21_01h55.25.884,Info_measure_main_exp,2022.2.2,Win32,144.0714594,,,,,,,,,,,,,,,,,,masks/mask_001.jpg,,,,,,,,,,,,,,,,,,,,,,,,,,,,,,,,,,,,,,,,,,,,,,,,0,1,1,0,1,,,,,,,,,,,,,,,,,,,,,,,,,,,,,,,,,,,,,,,,,
714789,001,2022-11-21_01h55.25.884,Info_measure_main_exp,2022.2.2,Win32,144.0714594,,,,,,,,,,,,,,,,,,masks/mask_005.jpg,,,,,,,,,,,,,,,,,,,,,,,,,,,,,,,,,,,,,,,,,,,,,,,,0,2,2,4,1,,,,,,,,,,,,,,,,,,,,,,,,,,,,,,,,,,,,,,,,,
714789,001,2022-11-21_01h55.25.884,Info_measure_main_exp,2022.2.2,Win32,144.0714594,,,,,,,,,,,,,,,,,,masks/mask_004.jpg,,,,,,,,,,,,,,,,,,,,,,,,,,,,,,,,,,,,,,,,,,,,,,,,0,3,3,3,1,,,,,,,,,,,,,,,,,,,,,,,,,,,,,,,,,,,,,,,,,
714789,001,2022-11-21_01h55.25.884,Info_measure_main_exp,2022.2.2,Win32,144.0714594,,,,,,,,,,,,,,,,,,masks/mask_002.jpg,,,,,,,,,,,,,,,,,,,,,,,,,,,,,,,,,,,,,,,,,,,,,,,,0,4,4,1,1,,,,,,,,,,,,,,,,,,,,,,,,,,,,,,,,,,,,,,,,,
714789,001,2022-11-21_01h55.25.884,Info_measure_main_exp,2022.2.2,Win32,144.0714594,,,,,,,,,,,,,,,,,,,,,,,,,,,,,,2,6.3751,1,,,,,,,,,,,,0,131,5,5,1986,2154,absent_patch/patch0001986.jpg,absent_patch/patch0002154.jpg,,,,,,,,,,,,,,,,,,,,-0.12962963,-0.064814815,1,0,0,response5disk,4,0.007407436,0.000925912,1,0,0,center_square,0,3,3,36,1,,,,,,,,,,,,,,,,,,,,,,,
714789,001,2022-11-21_01h55.25.884,Info_measure_main_exp,2022.2.2,Win32,144.0714594,,,,,,,,,,,,,,,,,,masks/mask_005.jpg,,,,,,,,,,,,,,,,,,,,,,,,,,,,,,,,,,,,,,,,,,,0,0,0,4,1,,,,,,,,,,,,,,,,,,,,,,,,,,,,,,,,,,,,,,,,,,,,,,
714789,001,2022-11-21_01h55.25.884,Info_measure_main_exp,2022.2.2,Win32,144.0714594,,,,,,,,,,,,,,,,,,masks/mask_001.jpg,,,,,,,,,,,,,,,,,,,,,,,,,,,,,,,,,,,,,,,,,,,0,1,1,0,1,,,,,,,,,,,,,,,,,,,,,,,,,,,,,,,,,,,,,,,,,,,,,,
714789,001,2022-11-21_01h55.25.884,Info_measure_main_exp,2022.2.2,Win32,144.0714594,,,,,,,,,,,,,,,,,,masks/mask_003.jpg,,,,,,,,,,,,,,,,,,,,,,,,,,,,,,,,,,,,,,,,,,,0,2,2,2,1,,,,,,,,,,,,,,,,,,,,,,,,,,,,,,,,,,,,,,,,,,,,,,
714789,001,2022-11-21_01h55.25.884,Info_measure_main_exp,2022.2.2,Win32,144.0714594,,,,,,,,,,,,,,,,,,masks/mask_004.jpg,,,,,,,,,,,,,,,,,,,,,,,,,,,,,,,,,,,,,,,,,,,0,3,3,3,1,,,,,,,,,,,,,,,,,,,,,,,,,,,,,,,,,,,,,,,,,,,,,,
714789,001,2022-11-21_01h55.25.884,Info_measure_main_exp,2022.2.2,Win32,144.0714594,,,,,,,,,,,,,,,,,,masks/mask_002.jpg,,,,,,,,,,,,,,,,,,,,,,,,,,,,,,,,,,,,,,,,,,,0,4,4,1,1,,,,,,,,,,,,,,,,,,,,,,,,,,,,,,,,,,,,,,,,,,,,,,
714789,001,2022-11-21_01h55.25.884,Info_measure_main_exp,2022.2.2,Win32,144.0714594,,,,,,,,,,,,,,,,,,masks/mask_001.jpg,,,,,,,,,,,,,,,,,,,,,,,,,,,,,,,,,,,,,,,,,,,,,,,,0,0,0,0,1,,,,,,,,,,,,,,,,,,,,,,,,,,,,,,,,,,,,,,,,,
714789,001,2022-11-21_01h55.25.884,Info_measure_main_exp,2022.2.2,Win32,144.0714594,,,,,,,,,,,,,,,,,,masks/mask_004.jpg,,,,,,,,,,,,,,,,,,,,,,,,,,,,,,,,,,,,,,,,,,,,,,,,0,1,1,3,1,,,,,,,,,,,,,,,,,,,,,,,,,,,,,,,,,,,,,,,,,
714789,001,2022-11-21_01h55.25.884,Info_measure_main_exp,2022.2.2,Win32,144.0714594,,,,,,,,,,,,,,,,,,masks/mask_003.jpg,,,,,,,,,,,,,,,,,,,,,,,,,,,,,,,,,,,,,,,,,,,,,,,,0,2,2,2,1,,,,,,,,,,,,,,,,,,,,,,,,,,,,,,,,,,,,,,,,,
714789,001,2022-11-21_01h55.25.884,Info_measure_main_exp,2022.2.2,Win32,144.0714594,,,,,,,,,,,,,,,,,,masks/mask_005.jpg,,,,,,,,,,,,,,,,,,,,,,,,,,,,,,,,,,,,,,,,,,,,,,,,0,3,3,4,1,,,,,,,,,,,,,,,,,,,,,,,,,,,,,,,,,,,,,,,,,
714789,001,2022-11-21_01h55.25.884,Info_measure_main_exp,2022.2.2,Win32,144.0714594,,,,,,,,,,,,,,,,,,masks/mask_002.jpg,,,,,,,,,,,,,,,,,,,,,,,,,,,,,,,,,,,,,,,,,,,,,,,,0,4,4,1,1,,,,,,,,,,,,,,,,,,,,,,,,,,,,,,,,,,,,,,,,,
714789,001,2022-11-21_01h55.25.884,Info_measure_main_exp,2022.2.2,Win32,144.0714594,,,,,,,,,,,,,,,,,,,,,,,,,,,,,,4,1.5346,1,,,,,,,,,,,,0,131,5,5,2082,2178,absent_patch/patch0002082.jpg,absent_patch/patch0002178.jpg,,,,,,,,,,,,,,,,,,,,0.10092594,-0.159259302,1,0,0,response3disk,5,0.002777806,-0.009259259,1,0,0,center_square,0,4,4,2,1,,,,,,,,,,,,,,,,,,,,,,,
714789,001,2022-11-21_01h55.25.884,Info_measure_main_exp,2022.2.2,Win32,144.0714594,,,,,,,,,,,,,,,,,,masks/mask_002.jpg,,,,,,,,,,,,,,,,,,,,,,,,,,,,,,,,,,,,,,,,,,,0,0,0,1,1,,,,,,,,,,,,,,,,,,,,,,,,,,,,,,,,,,,,,,,,,,,,,,
714789,001,2022-11-21_01h55.25.884,Info_measure_main_exp,2022.2.2,Win32,144.0714594,,,,,,,,,,,,,,,,,,masks/mask_003.jpg,,,,,,,,,,,,,,,,,,,,,,,,,,,,,,,,,,,,,,,,,,,0,1,1,2,1,,,,,,,,,,,,,,,,,,,,,,,,,,,,,,,,,,,,,,,,,,,,,,
714789,001,2022-11-21_01h55.25.884,Info_measure_main_exp,2022.2.2,Win32,144.0714594,,,,,,,,,,,,,,,,,,masks/mask_001.jpg,,,,,,,,,,,,,,,,,,,,,,,,,,,,,,,,,,,,,,,,,,,0,2,2,0,1,,,,,,,,,,,,,,,,,,,,,,,,,,,,,,,,,,,,,,,,,,,,,,
714789,001,2022-11-21_01h55.25.884,Info_measure_main_exp,2022.2.2,Win32,144.0714594,,,,,,,,,,,,,,,,,,masks/mask_004.jpg,,,,,,,,,,,,,,,,,,,,,,,,,,,,,,,,,,,,,,,,,,,0,3,3,3,1,,,,,,,,,,,,,,,,,,,,,,,,,,,,,,,,,,,,,,,,,,,,,,
714789,001,2022-11-21_01h55.25.884,Info_measure_main_exp,2022.2.2,Win32,144.0714594,,,,,,,,,,,,,,,,,,masks/mask_005.jpg,,,,,,,,,,,,,,,,,,,,,,,,,,,,,,,,,,,,,,,,,,,0,4,4,4,1,,,,,,,,,,,,,,,,,,,,,,,,,,,,,,,,,,,,,,,,,,,,,,
714789,001,2022-11-21_01h55.25.884,Info_measure_main_exp,2022.2.2,Win32,144.0714594,,,,,,,,,,,,,,,,,,masks/mask_004.jpg,,,,,,,,,,,,,,,,,,,,,,,,,,,,,,,,,,,,,,,,,,,,,,,,0,0,0,3,1,,,,,,,,,,,,,,,,,,,,,,,,,,,,,,,,,,,,,,,,,
714789,001,2022-11-21_01h55.25.884,Info_measure_main_exp,2022.2.2,Win32,144.0714594,,,,,,,,,,,,,,,,,,masks/mask_005.jpg,,,,,,,,,,,,,,,,,,,,,,,,,,,,,,,,,,,,,,,,,,,,,,,,0,1,1,4,1,,,,,,,,,,,,,,,,,,,,,,,,,,,,,,,,,,,,,,,,,
714789,001,2022-11-21_01h55.25.884,Info_measure_main_exp,2022.2.2,Win32,144.0714594,,,,,,,,,,,,,,,,,,masks/mask_003.jpg,,,,,,,,,,,,,,,,,,,,,,,,,,,,,,,,,,,,,,,,,,,,,,,,0,2,2,2,1,,,,,,,,,,,,,,,,,,,,,,,,,,,,,,,,,,,,,,,,,
714789,001,2022-11-21_01h55.25.884,Info_measure_main_exp,2022.2.2,Win32,144.0714594,,,,,,,,,,,,,,,,,,masks/mask_002.jpg,,,,,,,,,,,,,,,,,,,,,,,,,,,,,,,,,,,,,,,,,,,,,,,,0,3,3,1,1,,,,,,,,,,,,,,,,,,,,,,,,,,,,,,,,,,,,,,,,,
714789,001,2022-11-21_01h55.25.884,Info_measure_main_exp,2022.2.2,Win32,144.0714594,,,,,,,,,,,,,,,,,,masks/mask_001.jpg,,,,,,,,,,,,,,,,,,,,,,,,,,,,,,,,,,,,,,,,,,,,,,,,0,4,4,0,1,,,,,,,,,,,,,,,,,,,,,,,,,,,,,,,,,,,,,,,,,
714789,001,2022-11-21_01h55.25.884,Info_measure_main_exp,2022.2.2,Win32,144.0714594,,,,,,,,,,,,,,,,,,,,,,,,,,,,,,6,1.3972,1,,,,,,,,,,,,0,131,5,5,2238,2298,absent_patch/patch0002238.jpg,absent_patch/patch0002298.jpg,,,,,,,,,,,,,,,,,,,,0.181481467,0.041666667,1,0,0,response1disk,6,0.001851894,-0.000925947,1,0,0,center_square,0,5,5,51,1,,,,,,,,,,,,,,,,,,,,,,,
714789,001,2022-11-21_01h55.25.884,Info_measure_main_exp,2022.2.2,Win32,144.0714594,,,,,,,,,,,,,,,,,,masks/mask_001.jpg,,,,,,,,,,,,,,,,,,,,,,,,,,,,,,,,,,,,,,,,,,,0,0,0,0,1,,,,,,,,,,,,,,,,,,,,,,,,,,,,,,,,,,,,,,,,,,,,,,
714789,001,2022-11-21_01h55.25.884,Info_measure_main_exp,2022.2.2,Win32,144.0714594,,,,,,,,,,,,,,,,,,masks/mask_004.jpg,,,,,,,,,,,,,,,,,,,,,,,,,,,,,,,,,,,,,,,,,,,0,1,1,3,1,,,,,,,,,,,,,,,,,,,,,,,,,,,,,,,,,,,,,,,,,,,,,,
714789,001,2022-11-21_01h55.25.884,Info_measure_main_exp,2022.2.2,Win32,144.0714594,,,,,,,,,,,,,,,,,,masks/mask_002.jpg,,,,,,,,,,,,,,,,,,,,,,,,,,,,,,,,,,,,,,,,,,,0,2,2,1,1,,,,,,,,,,,,,,,,,,,,,,,,,,,,,,,,,,,,,,,,,,,,,,
714789,001,2022-11-21_01h55.25.884,Info_measure_main_exp,2022.2.2,Win32,144.0714594,,,,,,,,,,,,,,,,,,masks/mask_003.jpg,,,,,,,,,,,,,,,,,,,,,,,,,,,,,,,,,,,,,,,,,,,0,3,3,2,1,,,,,,,,,,,,,,,,,,,,,,,,,,,,,,,,,,,,,,,,,,,,,,
714789,001,2022-11-21_01h55.25.884,Info_measure_main_exp,2022.2.2,Win32,144.0714594,,,,,,,,,,,,,,,,,,masks/mask_005.jpg,,,,,,,,,,,,,,,,,,,,,,,,,,,,,,,,,,,,,,,,,,,0,4,4,4,1,,,,,,,,,,,,,,,,,,,,,,,,,,,,,,,,,,,,,,,,,,,,,,
714789,001,2022-11-21_01h55.25.884,Info_measure_main_exp,2022.2.2,Win32,144.0714594,,,,,,,,,,,,,,,,,,masks/mask_003.jpg,,,,,,,,,,,,,,,,,,,,,,,,,,,,,,,,,,,,,,,,,,,,,,,,0,0,0,2,1,,,,,,,,,,,,,,,,,,,,,,,,,,,,,,,,,,,,,,,,,
714789,001,2022-11-21_01h55.25.884,Info_measure_main_exp,2022.2.2,Win32,144.0714594,,,,,,,,,,,,,,,,,,masks/mask_002.jpg,,,,,,,,,,,,,,,,,,,,,,,,,,,,,,,,,,,,,,,,,,,,,,,,0,1,1,1,1,,,,,,,,,,,,,,,,,,,,,,,,,,,,,,,,,,,,,,,,,
714789,001,2022-11-21_01h55.25.884,Info_measure_main_exp,2022.2.2,Win32,144.0714594,,,,,,,,,,,,,,,,,,masks/mask_005.jpg,,,,,,,,,,,,,,,,,,,,,,,,,,,,,,,,,,,,,,,,,,,,,,,,0,2,2,4,1,,,,,,,,,,,,,,,,,,,,,,,,,,,,,,,,,,,,,,,,,
714789,001,2022-11-21_01h55.25.884,Info_measure_main_exp,2022.2.2,Win32,144.0714594,,,,,,,,,,,,,,,,,,masks/mask_004.jpg,,,,,,,,,,,,,,,,,,,,,,,,,,,,,,,,,,,,,,,,,,,,,,,,0,3,3,3,1,,,,,,,,,,,,,,,,,,,,,,,,,,,,,,,,,,,,,,,,,
714789,001,2022-11-21_01h55.25.884,Info_measure_main_exp,2022.2.2,Win32,144.0714594,,,,,,,,,,,,,,,,,,masks/mask_001.jpg,,,,,,,,,,,,,,,,,,,,,,,,,,,,,,,,,,,,,,,,,,,,,,,,0,4,4,0,1,,,,,,,,,,,,,,,,,,,,,,,,,,,,,,,,,,,,,,,,,
714789,001,2022-11-21_01h55.25.884,Info_measure_main_exp,2022.2.2,Win32,144.0714594,,,,,,,,,,,,,,,,,,,,,,,,,,,,,,6,1.0347,1,,,,,,,,,,,,0,131,5,5,2154,2214,absent_patch/patch0002154.jpg,absent_patch/patch0002214.jpg,,,,,,,,,,,,,,,,,,,,0.14907406,0.023148148,1,0,0,response1disk,7,0.00462963,0.003703683,1,0,0,center_square,0,6,6,67,1,,,,,,,,,,,,,,,,,,,,,,,
714789,001,2022-11-21_01h55.25.884,Info_measure_main_exp,2022.2.2,Win32,144.0714594,,,,,,,,,,,,,,,,,,masks/mask_005.jpg,,,,,,,,,,,,,,,,,,,,,,,,,,,,,,,,,,,,,,,,,,,0,0,0,4,1,,,,,,,,,,,,,,,,,,,,,,,,,,,,,,,,,,,,,,,,,,,,,,
714789,001,2022-11-21_01h55.25.884,Info_measure_main_exp,2022.2.2,Win32,144.0714594,,,,,,,,,,,,,,,,,,masks/mask_001.jpg,,,,,,,,,,,,,,,,,,,,,,,,,,,,,,,,,,,,,,,,,,,0,1,1,0,1,,,,,,,,,,,,,,,,,,,,,,,,,,,,,,,,,,,,,,,,,,,,,,
714789,001,2022-11-21_01h55.25.884,Info_measure_main_exp,2022.2.2,Win32,144.0714594,,,,,,,,,,,,,,,,,,masks/mask_002.jpg,,,,,,,,,,,,,,,,,,,,,,,,,,,,,,,,,,,,,,,,,,,0,2,2,1,1,,,,,,,,,,,,,,,,,,,,,,,,,,,,,,,,,,,,,,,,,,,,,,
714789,001,2022-11-21_01h55.25.884,Info_measure_main_exp,2022.2.2,Win32,144.0714594,,,,,,,,,,,,,,,,,,masks/mask_004.jpg,,,,,,,,,,,,,,,,,,,,,,,,,,,,,,,,,,,,,,,,,,,0,3,3,3,1,,,,,,,,,,,,,,,,,,,,,,,,,,,,,,,,,,,,,,,,,,,,,,
714789,001,2022-11-21_01h55.25.884,Info_measure_main_exp,2022.2.2,Win32,144.0714594,,,,,,,,,,,,,,,,,,masks/mask_003.jpg,,,,,,,,,,,,,,,,,,,,,,,,,,,,,,,,,,,,,,,,,,,0,4,4,2,1,,,,,,,,,,,,,,,,,,,,,,,,,,,,,,,,,,,,,,,,,,,,,,
714789,001,2022-11-21_01h55.25.884,Info_measure_main_exp,2022.2.2,Win32,144.0714594,,,,,,,,,,,,,,,,,,masks/mask_005.jpg,,,,,,,,,,,,,,,,,,,,,,,,,,,,,,,,,,,,,,,,,,,,,,,,0,0,0,4,1,,,,,,,,,,,,,,,,,,,,,,,,,,,,,,,,,,,,,,,,,
714789,001,2022-11-21_01h55.25.884,Info_measure_main_exp,2022.2.2,Win32,144.0714594,,,,,,,,,,,,,,,,,,masks/mask_001.jpg,,,,,,,,,,,,,,,,,,,,,,,,,,,,,,,,,,,,,,,,,,,,,,,,0,1,1,0,1,,,,,,,,,,,,,,,,,,,,,,,,,,,,,,,,,,,,,,,,,
714789,001,2022-11-21_01h55.25.884,Info_measure_main_exp,2022.2.2,Win32,144.0714594,,,,,,,,,,,,,,,,,,masks/mask_004.jpg,,,,,,,,,,,,,,,,,,,,,,,,,,,,,,,,,,,,,,,,,,,,,,,,0,2,2,3,1,,,,,,,,,,,,,,,,,,,,,,,,,,,,,,,,,,,,,,,,,
714789,001,2022-11-21_01h55.25.884,Info_measure_main_exp,2022.2.2,Win32,144.0714594,,,,,,,,,,,,,,,,,,masks/mask_003.jpg,,,,,,,,,,,,,,,,,,,,,,,,,,,,,,,,,,,,,,,,,,,,,,,,0,3,3,2,1,,,,,,,,,,,,,,,,,,,,,,,,,,,,,,,,,,,,,,,,,
714789,001,2022-11-21_01h55.25.884,Info_measure_main_exp,2022.2.2,Win32,144.0714594,,,,,,,,,,,,,,,,,,masks/mask_002.jpg,,,,,,,,,,,,,,,,,,,,,,,,,,,,,,,,,,,,,,,,,,,,,,,,0,4,4,1,1,,,,,,,,,,,,,,,,,,,,,,,,,,,,,,,,,,,,,,,,,
714789,001,2022-11-21_01h55.25.884,Info_measure_main_exp,2022.2.2,Win32,144.0714594,,,,,,,,,,,,,,,,,,,,,,,,,,,,,,6,1.118,1,,,,,,,,,,,,0,131,5,5,2082,2166,absent_patch/patch0002082.jpg,absent_patch/patch0002166.jpg,,,,,,,,,,,,,,,,,,,,0.169444473,0.049074067,1,0,0,response1disk,8,0,-0.005555577,1,0,0,center_square,0,7,7,43,1,,,,,,,,,,,,,,,,,,,,,,,
714789,001,2022-11-21_01h55.25.884,Info_measure_main_exp,2022.2.2,Win32,144.0714594,,,,,,,,,,,,,,,,,,masks/mask_004.jpg,,,,,,,,,,,,,,,,,,,,,,,,,,,,,,,,,,,,,,,,,,,0,0,0,3,1,,,,,,,,,,,,,,,,,,,,,,,,,,,,,,,,,,,,,,,,,,,,,,
714789,001,2022-11-21_01h55.25.884,Info_measure_main_exp,2022.2.2,Win32,144.0714594,,,,,,,,,,,,,,,,,,masks/mask_002.jpg,,,,,,,,,,,,,,,,,,,,,,,,,,,,,,,,,,,,,,,,,,,0,1,1,1,1,,,,,,,,,,,,,,,,,,,,,,,,,,,,,,,,,,,,,,,,,,,,,,
714789,001,2022-11-21_01h55.25.884,Info_measure_main_exp,2022.2.2,Win32,144.0714594,,,,,,,,,,,,,,,,,,masks/mask_001.jpg,,,,,,,,,,,,,,,,,,,,,,,,,,,,,,,,,,,,,,,,,,,0,2,2,0,1,,,,,,,,,,,,,,,,,,,,,,,,,,,,,,,,,,,,,,,,,,,,,,
714789,001,2022-11-21_01h55.25.884,Info_measure_main_exp,2022.2.2,Win32,144.0714594,,,,,,,,,,,,,,,,,,masks/mask_005.jpg,,,,,,,,,,,,,,,,,,,,,,,,,,,,,,,,,,,,,,,,,,,0,3,3,4,1,,,,,,,,,,,,,,,,,,,,,,,,,,,,,,,,,,,,,,,,,,,,,,
714789,001,2022-11-21_01h55.25.884,Info_measure_main_exp,2022.2.2,Win32,144.0714594,,,,,,,,,,,,,,,,,,masks/mask_003.jpg,,,,,,,,,,,,,,,,,,,,,,,,,,,,,,,,,,,,,,,,,,,0,4,4,2,1,,,,,,,,,,,,,,,,,,,,,,,,,,,,,,,,,,,,,,,,,,,,,,
714789,001,2022-11-21_01h55.25.884,Info_measure_main_exp,2022.2.2,Win32,144.0714594,,,,,,,,,,,,,,,,,,masks/mask_002.jpg,,,,,,,,,,,,,,,,,,,,,,,,,,,,,,,,,,,,,,,,,,,,,,,,0,0,0,1,1,,,,,,,,,,,,,,,,,,,,,,,,,,,,,,,,,,,,,,,,,
714789,001,2022-11-21_01h55.25.884,Info_measure_main_exp,2022.2.2,Win32,144.0714594,,,,,,,,,,,,,,,,,,masks/mask_004.jpg,,,,,,,,,,,,,,,,,,,,,,,,,,,,,,,,,,,,,,,,,,,,,,,,0,1,1,3,1,,,,,,,,,,,,,,,,,,,,,,,,,,,,,,,,,,,,,,,,,
714789,001,2022-11-21_01h55.25.884,Info_measure_main_exp,2022.2.2,Win32,144.0714594,,,,,,,,,,,,,,,,,,masks/mask_001.jpg,,,,,,,,,,,,,,,,,,,,,,,,,,,,,,,,,,,,,,,,,,,,,,,,0,2,2,0,1,,,,,,,,,,,,,,,,,,,,,,,,,,,,,,,,,,,,,,,,,
714789,001,2022-11-21_01h55.25.884,Info_measure_main_exp,2022.2.2,Win32,144.0714594,,,,,,,,,,,,,,,,,,masks/mask_005.jpg,,,,,,,,,,,,,,,,,,,,,,,,,,,,,,,,,,,,,,,,,,,,,,,,0,3,3,4,1,,,,,,,,,,,,,,,,,,,,,,,,,,,,,,,,,,,,,,,,,
714789,001,2022-11-21_01h55.25.884,Info_measure_main_exp,2022.2.2,Win32,144.0714594,,,,,,,,,,,,,,,,,,masks/mask_003.jpg,,,,,,,,,,,,,,,,,,,,,,,,,,,,,,,,,,,,,,,,,,,,,,,,0,4,4,2,1,,,,,,,,,,,,,,,,,,,,,,,,,,,,,,,,,,,,,,,,,
714789,001,2022-11-21_01h55.25.884,Info_measure_main_exp,2022.2.2,Win32,144.0714594,,,,,,,,,,,,,,,,,,,,,,,,,,,,,,7,1.014,1,,,,,,,,,,,,0,131,5,5,2154,2250,absent_patch/patch0002154.jpg,absent_patch/patch0002250.jpg,,,,,,,,,,,,,,,,,,,,0.099074116,0.146296289,1,0,0,response1disk,9,0.005555541,-0.001851859,1,0,0,center_square,0,8,8,108,1,,,,,,,,,,,,,,,,,,,,,,,
714789,001,2022-11-21_01h55.25.884,Info_measure_main_exp,2022.2.2,Win32,144.0714594,,,,,,,,,,,,,,,,,,masks/mask_005.jpg,,,,,,,,,,,,,,,,,,,,,,,,,,,,,,,,,,,,,,,,,,,0,0,0,4,1,,,,,,,,,,,,,,,,,,,,,,,,,,,,,,,,,,,,,,,,,,,,,,
714789,001,2022-11-21_01h55.25.884,Info_measure_main_exp,2022.2.2,Win32,144.0714594,,,,,,,,,,,,,,,,,,masks/mask_002.jpg,,,,,,,,,,,,,,,,,,,,,,,,,,,,,,,,,,,,,,,,,,,0,1,1,1,1,,,,,,,,,,,,,,,,,,,,,,,,,,,,,,,,,,,,,,,,,,,,,,
714789,001,2022-11-21_01h55.25.884,Info_measure_main_exp,2022.2.2,Win32,144.0714594,,,,,,,,,,,,,,,,,,masks/mask_004.jpg,,,,,,,,,,,,,,,,,,,,,,,,,,,,,,,,,,,,,,,,,,,0,2,2,3,1,,,,,,,,,,,,,,,,,,,,,,,,,,,,,,,,,,,,,,,,,,,,,,
714789,001,2022-11-21_01h55.25.884,Info_measure_main_exp,2022.2.2,Win32,144.0714594,,,,,,,,,,,,,,,,,,masks/mask_001.jpg,,,,,,,,,,,,,,,,,,,,,,,,,,,,,,,,,,,,,,,,,,,0,3,3,0,1,,,,,,,,,,,,,,,,,,,,,,,,,,,,,,,,,,,,,,,,,,,,,,
714789,001,2022-11-21_01h55.25.884,Info_measure_main_exp,2022.2.2,Win32,144.0714594,,,,,,,,,,,,,,,,,,masks/mask_003.jpg,,,,,,,,,,,,,,,,,,,,,,,,,,,,,,,,,,,,,,,,,,,0,4,4,2,1,,,,,,,,,,,,,,,,,,,,,,,,,,,,,,,,,,,,,,,,,,,,,,
714789,001,2022-11-21_01h55.25.884,Info_measure_main_exp,2022.2.2,Win32,144.0714594,,,,,,,,,,,,,,,,,,masks/mask_004.jpg,,,,,,,,,,,,,,,,,,,,,,,,,,,,,,,,,,,,,,,,,,,,,,,,0,0,0,3,1,,,,,,,,,,,,,,,,,,,,,,,,,,,,,,,,,,,,,,,,,
714789,001,2022-11-21_01h55.25.884,Info_measure_main_exp,2022.2.2,Win32,144.0714594,,,,,,,,,,,,,,,,,,masks/mask_001.jpg,,,,,,,,,,,,,,,,,,,,,,,,,,,,,,,,,,,,,,,,,,,,,,,,0,1,1,0,1,,,,,,,,,,,,,,,,,,,,,,,,,,,,,,,,,,,,,,,,,
714789,001,2022-11-21_01h55.25.884,Info_measure_main_exp,2022.2.2,Win32,144.0714594,,,,,,,,,,,,,,,,,,masks/mask_003.jpg,,,,,,,,,,,,,,,,,,,,,,,,,,,,,,,,,,,,,,,,,,,,,,,,0,2,2,2,1,,,,,,,,,,,,,,,,,,,,,,,,,,,,,,,,,,,,,,,,,
714789,001,2022-11-21_01h55.25.884,Info_measure_main_exp,2022.2.2,Win32,144.0714594,,,,,,,,,,,,,,,,,,masks/mask_005.jpg,,,,,,,,,,,,,,,,,,,,,,,,,,,,,,,,,,,,,,,,,,,,,,,,0,3,3,4,1,,,,,,,,,,,,,,,,,,,,,,,,,,,,,,,,,,,,,,,,,
714789,001,2022-11-21_01h55.25.884,Info_measure_main_exp,2022.2.2,Win32,144.0714594,,,,,,,,,,,,,,,,,,masks/mask_002.jpg,,,,,,,,,,,,,,,,,,,,,,,,,,,,,,,,,,,,,,,,,,,,,,,,0,4,4,1,1,,,,,,,,,,,,,,,,,,,,,,,,,,,,,,,,,,,,,,,,,
714789,001,2022-11-21_01h55.25.884,Info_measure_main_exp,2022.2.2,Win32,144.0714594,,,,,,,,,,,,,,,,,,,,,,,,,,,,,,4,1.1875,1,,,,,,,,,,,,0,131,5,5,2238,2166,absent_patch/patch0002238.jpg,absent_patch/patch0002166.jpg,,,,,,,,,,,,,,,,,,,,0.050000014,-0.186111097,1,0,0,response3disk,10,-0.001851824,-0.009259259,1,0,0,center_square,0,9,9,118,1,,,,,,,,,,,,,,,,,,,,,,,
714789,001,2022-11-21_01h55.25.884,Info_measure_main_exp,2022.2.2,Win32,144.0714594,,,,,,,,,,,,,,,,,,masks/mask_001.jpg,,,,,,,,,,,,,,,,,,,,,,,,,,,,,,,,,,,,,,,,,,,0,0,0,0,1,,,,,,,,,,,,,,,,,,,,,,,,,,,,,,,,,,,,,,,,,,,,,,
714789,001,2022-11-21_01h55.25.884,Info_measure_main_exp,2022.2.2,Win32,144.0714594,,,,,,,,,,,,,,,,,,masks/mask_005.jpg,,,,,,,,,,,,,,,,,,,,,,,,,,,,,,,,,,,,,,,,,,,0,1,1,4,1,,,,,,,,,,,,,,,,,,,,,,,,,,,,,,,,,,,,,,,,,,,,,,
714789,001,2022-11-21_01h55.25.884,Info_measure_main_exp,2022.2.2,Win32,144.0714594,,,,,,,,,,,,,,,,,,masks/mask_003.jpg,,,,,,,,,,,,,,,,,,,,,,,,,,,,,,,,,,,,,,,,,,,0,2,2,2,1,,,,,,,,,,,,,,,,,,,,,,,,,,,,,,,,,,,,,,,,,,,,,,
714789,001,2022-11-21_01h55.25.884,Info_measure_main_exp,2022.2.2,Win32,144.0714594,,,,,,,,,,,,,,,,,,masks/mask_002.jpg,,,,,,,,,,,,,,,,,,,,,,,,,,,,,,,,,,,,,,,,,,,0,3,3,1,1,,,,,,,,,,,,,,,,,,,,,,,,,,,,,,,,,,,,,,,,,,,,,,
714789,001,2022-11-21_01h55.25.884,Info_measure_main_exp,2022.2.2,Win32,144.0714594,,,,,,,,,,,,,,,,,,masks/mask_004.jpg,,,,,,,,,,,,,,,,,,,,,,,,,,,,,,,,,,,,,,,,,,,0,4,4,3,1,,,,,,,,,,,,,,,,,,,,,,,,,,,,,,,,,,,,,,,,,,,,,,
714789,001,2022-11-21_01h55.25.884,Info_measure_main_exp,2022.2.2,Win32,144.0714594,,,,,,,,,,,,,,,,,,masks/mask_002.jpg,,,,,,,,,,,,,,,,,,,,,,,,,,,,,,,,,,,,,,,,,,,,,,,,0,0,0,1,1,,,,,,,,,,,,,,,,,,,,,,,,,,,,,,,,,,,,,,,,,
714789,001,2022-11-21_01h55.25.884,Info_measure_main_exp,2022.2.2,Win32,144.0714594,,,,,,,,,,,,,,,,,,masks/mask_005.jpg,,,,,,,,,,,,,,,,,,,,,,,,,,,,,,,,,,,,,,,,,,,,,,,,0,1,1,4,1,,,,,,,,,,,,,,,,,,,,,,,,,,,,,,,,,,,,,,,,,
714789,001,2022-11-21_01h55.25.884,Info_measure_main_exp,2022.2.2,Win32,144.0714594,,,,,,,,,,,,,,,,,,masks/mask_001.jpg,,,,,,,,,,,,,,,,,,,,,,,,,,,,,,,,,,,,,,,,,,,,,,,,0,2,2,0,1,,,,,,,,,,,,,,,,,,,,,,,,,,,,,,,,,,,,,,,,,
714789,001,2022-11-21_01h55.25.884,Info_measure_main_exp,2022.2.2,Win32,144.0714594,,,,,,,,,,,,,,,,,,masks/mask_004.jpg,,,,,,,,,,,,,,,,,,,,,,,,,,,,,,,,,,,,,,,,,,,,,,,,0,3,3,3,1,,,,,,,,,,,,,,,,,,,,,,,,,,,,,,,,,,,,,,,,,
714789,001,2022-11-21_01h55.25.884,Info_measure_main_exp,2022.2.2,Win32,144.0714594,,,,,,,,,,,,,,,,,,masks/mask_003.jpg,,,,,,,,,,,,,,,,,,,,,,,,,,,,,,,,,,,,,,,,,,,,,,,,0,4,4,2,1,,,,,,,,,,,,,,,,,,,,,,,,,,,,,,,,,,,,,,,,,
714789,001,2022-11-21_01h55.25.884,Info_measure_main_exp,2022.2.2,Win32,144.0714594,,,,,,,,,,,,,,,,,,,,,,,,,,,,,,4,1.132,1,,,,,,,,,,,,0,131,5,5,2250,2142,absent_patch/patch0002250.jpg,absent_patch/patch0002142.jpg,,,,,,,,,,,,,,,,,,,,0.077777792,-0.127777806,1,0,0,response3disk,11,0.003703718,-0.014814836,1,0,0,center_square,0,10,10,71,1,,,,,,,,,,,,,,,,,,,,,,,
714789,001,2022-11-21_01h55.25.884,Info_measure_main_exp,2022.2.2,Win32,144.0714594,,,,,,,,,,,,,,,,,,masks/mask_001.jpg,,,,,,,,,,,,,,,,,,,,,,,,,,,,,,,,,,,,,,,,,,,0,0,0,0,1,,,,,,,,,,,,,,,,,,,,,,,,,,,,,,,,,,,,,,,,,,,,,,
714789,001,2022-11-21_01h55.25.884,Info_measure_main_exp,2022.2.2,Win32,144.0714594,,,,,,,,,,,,,,,,,,masks/mask_005.jpg,,,,,,,,,,,,,,,,,,,,,,,,,,,,,,,,,,,,,,,,,,,0,1,1,4,1,,,,,,,,,,,,,,,,,,,,,,,,,,,,,,,,,,,,,,,,,,,,,,
714789,001,2022-11-21_01h55.25.884,Info_measure_main_exp,2022.2.2,Win32,144.0714594,,,,,,,,,,,,,,,,,,masks/mask_003.jpg,,,,,,,,,,,,,,,,,,,,,,,,,,,,,,,,,,,,,,,,,,,0,2,2,2,1,,,,,,,,,,,,,,,,,,,,,,,,,,,,,,,,,,,,,,,,,,,,,,
714789,001,2022-11-21_01h55.25.884,Info_measure_main_exp,2022.2.2,Win32,144.0714594,,,,,,,,,,,,,,,,,,masks/mask_004.jpg,,,,,,,,,,,,,,,,,,,,,,,,,,,,,,,,,,,,,,,,,,,0,3,3,3,1,,,,,,,,,,,,,,,,,,,,,,,,,,,,,,,,,,,,,,,,,,,,,,
714789,001,2022-11-21_01h55.25.884,Info_measure_main_exp,2022.2.2,Win32,144.0714594,,,,,,,,,,,,,,,,,,masks/mask_002.jpg,,,,,,,,,,,,,,,,,,,,,,,,,,,,,,,,,,,,,,,,,,,0,4,4,1,1,,,,,,,,,,,,,,,,,,,,,,,,,,,,,,,,,,,,,,,,,,,,,,
714789,001,2022-11-21_01h55.25.884,Info_measure_main_exp,2022.2.2,Win32,144.0714594,,,,,,,,,,,,,,,,,,masks/mask_003.jpg,,,,,,,,,,,,,,,,,,,,,,,,,,,,,,,,,,,,,,,,,,,,,,,,0,0,0,2,1,,,,,,,,,,,,,,,,,,,,,,,,,,,,,,,,,,,,,,,,,
714789,001,2022-11-21_01h55.25.884,Info_measure_main_exp,2022.2.2,Win32,144.0714594,,,,,,,,,,,,,,,,,,masks/mask_005.jpg,,,,,,,,,,,,,,,,,,,,,,,,,,,,,,,,,,,,,,,,,,,,,,,,0,1,1,4,1,,,,,,,,,,,,,,,,,,,,,,,,,,,,,,,,,,,,,,,,,
714789,001,2022-11-21_01h55.25.884,Info_measure_main_exp,2022.2.2,Win32,144.0714594,,,,,,,,,,,,,,,,,,masks/mask_001.jpg,,,,,,,,,,,,,,,,,,,,,,,,,,,,,,,,,,,,,,,,,,,,,,,,0,2,2,0,1,,,,,,,,,,,,,,,,,,,,,,,,,,,,,,,,,,,,,,,,,
714789,001,2022-11-21_01h55.25.884,Info_measure_main_exp,2022.2.2,Win32,144.0714594,,,,,,,,,,,,,,,,,,masks/mask_002.jpg,,,,,,,,,,,,,,,,,,,,,,,,,,,,,,,,,,,,,,,,,,,,,,,,0,3,3,1,1,,,,,,,,,,,,,,,,,,,,,,,,,,,,,,,,,,,,,,,,,
714789,001,2022-11-21_01h55.25.884,Info_measure_main_exp,2022.2.2,Win32,144.0714594,,,,,,,,,,,,,,,,,,masks/mask_004.jpg,,,,,,,,,,,,,,,,,,,,,,,,,,,,,,,,,,,,,,,,,,,,,,,,0,4,4,3,1,,,,,,,,,,,,,,,,,,,,,,,,,,,,,,,,,,,,,,,,,
714789,001,2022-11-21_01h55.25.884,Info_measure_main_exp,2022.2.2,Win32,144.0714594,,,,,,,,,,,,,,,,,,,,,,,,,,,,,,4,0.7174,1,,,,,,,,,,,,0,131,5,5,1974,2214,absent_patch/patch0001974.jpg,absent_patch/patch0002214.jpg,,,,,,,,,,,,,,,,,,,,0.05277782,-0.143518519,1,0,0,response3disk,12,0.00462963,0.001851859,1,0,0,center_square,0,11,11,24,1,,,,,,,,,,,,,,,,,,,,,,,
714789,001,2022-11-21_01h55.25.884,Info_measure_main_exp,2022.2.2,Win32,144.0714594,,,,,,,,,,,,,,,,,,masks/mask_003.jpg,,,,,,,,,,,,,,,,,,,,,,,,,,,,,,,,,,,,,,,,,,,0,0,0,2,1,,,,,,,,,,,,,,,,,,,,,,,,,,,,,,,,,,,,,,,,,,,,,,
714789,001,2022-11-21_01h55.25.884,Info_measure_main_exp,2022.2.2,Win32,144.0714594,,,,,,,,,,,,,,,,,,masks/mask_001.jpg,,,,,,,,,,,,,,,,,,,,,,,,,,,,,,,,,,,,,,,,,,,0,1,1,0,1,,,,,,,,,,,,,,,,,,,,,,,,,,,,,,,,,,,,,,,,,,,,,,
714789,001,2022-11-21_01h55.25.884,Info_measure_main_exp,2022.2.2,Win32,144.0714594,,,,,,,,,,,,,,,,,,masks/mask_005.jpg,,,,,,,,,,,,,,,,,,,,,,,,,,,,,,,,,,,,,,,,,,,0,2,2,4,1,,,,,,,,,,,,,,,,,,,,,,,,,,,,,,,,,,,,,,,,,,,,,,
714789,001,2022-11-21_01h55.25.884,Info_measure_main_exp,2022.2.2,Win32,144.0714594,,,,,,,,,,,,,,,,,,masks/mask_002.jpg,,,,,,,,,,,,,,,,,,,,,,,,,,,,,,,,,,,,,,,,,,,0,3,3,1,1,,,,,,,,,,,,,,,,,,,,,,,,,,,,,,,,,,,,,,,,,,,,,,
714789,001,2022-11-21_01h55.25.884,Info_measure_main_exp,2022.2.2,Win32,144.0714594,,,,,,,,,,,,,,,,,,masks/mask_004.jpg,,,,,,,,,,,,,,,,,,,,,,,,,,,,,,,,,,,,,,,,,,,0,4,4,3,1,,,,,,,,,,,,,,,,,,,,,,,,,,,,,,,,,,,,,,,,,,,,,,
714789,001,2022-11-21_01h55.25.884,Info_measure_main_exp,2022.2.2,Win32,144.0714594,,,,,,,,,,,,,,,,,,masks/mask_003.jpg,,,,,,,,,,,,,,,,,,,,,,,,,,,,,,,,,,,,,,,,,,,,,,,,0,0,0,2,1,,,,,,,,,,,,,,,,,,,,,,,,,,,,,,,,,,,,,,,,,
714789,001,2022-11-21_01h55.25.884,Info_measure_main_exp,2022.2.2,Win32,144.0714594,,,,,,,,,,,,,,,,,,masks/mask_001.jpg,,,,,,,,,,,,,,,,,,,,,,,,,,,,,,,,,,,,,,,,,,,,,,,,0,1,1,0,1,,,,,,,,,,,,,,,,,,,,,,,,,,,,,,,,,,,,,,,,,
714789,001,2022-11-21_01h55.25.884,Info_measure_main_exp,2022.2.2,Win32,144.0714594,,,,,,,,,,,,,,,,,,masks/mask_004.jpg,,,,,,,,,,,,,,,,,,,,,,,,,,,,,,,,,,,,,,,,,,,,,,,,0,2,2,3,1,,,,,,,,,,,,,,,,,,,,,,,,,,,,,,,,,,,,,,,,,
714789,001,2022-11-21_01h55.25.884,Info_measure_main_exp,2022.2.2,Win32,144.0714594,,,,,,,,,,,,,,,,,,masks/mask_002.jpg,,,,,,,,,,,,,,,,,,,,,,,,,,,,,,,,,,,,,,,,,,,,,,,,0,3,3,1,1,,,,,,,,,,,,,,,,,,,,,,,,,,,,,,,,,,,,,,,,,
714789,001,2022-11-21_01h55.25.884,Info_measure_main_exp,2022.2.2,Win32,144.0714594,,,,,,,,,,,,,,,,,,masks/mask_005.jpg,,,,,,,,,,,,,,,,,,,,,,,,,,,,,,,,,,,,,,,,,,,,,,,,0,4,4,4,1,,,,,,,,,,,,,,,,,,,,,,,,,,,,,,,,,,,,,,,,,
714789,001,2022-11-21_01h55.25.884,Info_measure_main_exp,2022.2.2,Win32,144.0714594,,,,,,,,,,,,,,,,,,,,,,,,,,,,,,0,1.1041,1,,,,,,,,,,,,0,131,5,5,2190,2190,absent_patch/patch0002190.jpg,absent_patch/patch0002190.jpg,,,,,,,,,,,,,,,,,,,,-0.047222208,0.13703703,1,0,0,response7disk,13,0.007407436,0.001851859,1,0,0,center_square,0,12,12,86,1,,,,,,,,,,,,,,,,,,,,,,,
714789,001,2022-11-21_01h55.25.884,Info_measure_main_exp,2022.2.2,Win32,144.0714594,,,,,,,,,,,,,,,,,,masks/mask_005.jpg,,,,,,,,,,,,,,,,,,,,,,,,,,,,,,,,,,,,,,,,,,,0,0,0,4,1,,,,,,,,,,,,,,,,,,,,,,,,,,,,,,,,,,,,,,,,,,,,,,
714789,001,2022-11-21_01h55.25.884,Info_measure_main_exp,2022.2.2,Win32,144.0714594,,,,,,,,,,,,,,,,,,masks/mask_003.jpg,,,,,,,,,,,,,,,,,,,,,,,,,,,,,,,,,,,,,,,,,,,0,1,1,2,1,,,,,,,,,,,,,,,,,,,,,,,,,,,,,,,,,,,,,,,,,,,,,,
714789,001,2022-11-21_01h55.25.884,Info_measure_main_exp,2022.2.2,Win32,144.0714594,,,,,,,,,,,,,,,,,,masks/mask_002.jpg,,,,,,,,,,,,,,,,,,,,,,,,,,,,,,,,,,,,,,,,,,,0,2,2,1,1,,,,,,,,,,,,,,,,,,,,,,,,,,,,,,,,,,,,,,,,,,,,,,
714789,001,2022-11-21_01h55.25.884,Info_measure_main_exp,2022.2.2,Win32,144.0714594,,,,,,,,,,,,,,,,,,masks/mask_001.jpg,,,,,,,,,,,,,,,,,,,,,,,,,,,,,,,,,,,,,,,,,,,0,3,3,0,1,,,,,,,,,,,,,,,,,,,,,,,,,,,,,,,,,,,,,,,,,,,,,,
714789,001,2022-11-21_01h55.25.884,Info_measure_main_exp,2022.2.2,Win32,144.0714594,,,,,,,,,,,,,,,,,,masks/mask_004.jpg,,,,,,,,,,,,,,,,,,,,,,,,,,,,,,,,,,,,,,,,,,,0,4,4,3,1,,,,,,,,,,,,,,,,,,,,,,,,,,,,,,,,,,,,,,,,,,,,,,
714789,001,2022-11-21_01h55.25.884,Info_measure_main_exp,2022.2.2,Win32,144.0714594,,,,,,,,,,,,,,,,,,masks/mask_001.jpg,,,,,,,,,,,,,,,,,,,,,,,,,,,,,,,,,,,,,,,,,,,,,,,,0,0,0,0,1,,,,,,,,,,,,,,,,,,,,,,,,,,,,,,,,,,,,,,,,,
714789,001,2022-11-21_01h55.25.884,Info_measure_main_exp,2022.2.2,Win32,144.0714594,,,,,,,,,,,,,,,,,,masks/mask_003.jpg,,,,,,,,,,,,,,,,,,,,,,,,,,,,,,,,,,,,,,,,,,,,,,,,0,1,1,2,1,,,,,,,,,,,,,,,,,,,,,,,,,,,,,,,,,,,,,,,,,
714789,001,2022-11-21_01h55.25.884,Info_measure_main_exp,2022.2.2,Win32,144.0714594,,,,,,,,,,,,,,,,,,masks/mask_002.jpg,,,,,,,,,,,,,,,,,,,,,,,,,,,,,,,,,,,,,,,,,,,,,,,,0,2,2,1,1,,,,,,,,,,,,,,,,,,,,,,,,,,,,,,,,,,,,,,,,,
714789,001,2022-11-21_01h55.25.884,Info_measure_main_exp,2022.2.2,Win32,144.0714594,,,,,,,,,,,,,,,,,,masks/mask_004.jpg,,,,,,,,,,,,,,,,,,,,,,,,,,,,,,,,,,,,,,,,,,,,,,,,0,3,3,3,1,,,,,,,,,,,,,,,,,,,,,,,,,,,,,,,,,,,,,,,,,
714789,001,2022-11-21_01h55.25.884,Info_measure_main_exp,2022.2.2,Win32,144.0714594,,,,,,,,,,,,,,,,,,masks/mask_005.jpg,,,,,,,,,,,,,,,,,,,,,,,,,,,,,,,,,,,,,,,,,,,,,,,,0,4,4,4,1,,,,,,,,,,,,,,,,,,,,,,,,,,,,,,,,,,,,,,,,,
714789,001,2022-11-21_01h55.25.884,Info_measure_main_exp,2022.2.2,Win32,144.0714594,,,,,,,,,,,,,,,,,,,,,,,,,,,,,,5,1.4374,1,,,,,,,,,,,,0,131,5,5,2190,2250,absent_patch/patch0002190.jpg,absent_patch/patch0002250.jpg,,,,,,,,,,,,,,,,,,,,0.156481496,-0.062962956,1,0,0,response3disk,14,-0.006481453,-0.00462963,1,0,0,center_square,0,13,13,93,1,,,,,,,,,,,,,,,,,,,,,,,
714789,001,2022-11-21_01h55.25.884,Info_measure_main_exp,2022.2.2,Win32,144.0714594,,,,,,,,,,,,,,,,,,masks/mask_005.jpg,,,,,,,,,,,,,,,,,,,,,,,,,,,,,,,,,,,,,,,,,,,0,0,0,4,1,,,,,,,,,,,,,,,,,,,,,,,,,,,,,,,,,,,,,,,,,,,,,,
714789,001,2022-11-21_01h55.25.884,Info_measure_main_exp,2022.2.2,Win32,144.0714594,,,,,,,,,,,,,,,,,,masks/mask_002.jpg,,,,,,,,,,,,,,,,,,,,,,,,,,,,,,,,,,,,,,,,,,,0,1,1,1,1,,,,,,,,,,,,,,,,,,,,,,,,,,,,,,,,,,,,,,,,,,,,,,
714789,001,2022-11-21_01h55.25.884,Info_measure_main_exp,2022.2.2,Win32,144.0714594,,,,,,,,,,,,,,,,,,masks/mask_004.jpg,,,,,,,,,,,,,,,,,,,,,,,,,,,,,,,,,,,,,,,,,,,0,2,2,3,1,,,,,,,,,,,,,,,,,,,,,,,,,,,,,,,,,,,,,,,,,,,,,,
714789,001,2022-11-21_01h55.25.884,Info_measure_main_exp,2022.2.2,Win32,144.0714594,,,,,,,,,,,,,,,,,,masks/mask_001.jpg,,,,,,,,,,,,,,,,,,,,,,,,,,,,,,,,,,,,,,,,,,,0,3,3,0,1,,,,,,,,,,,,,,,,,,,,,,,,,,,,,,,,,,,,,,,,,,,,,,
714789,001,2022-11-21_01h55.25.884,Info_measure_main_exp,2022.2.2,Win32,144.0714594,,,,,,,,,,,,,,,,,,masks/mask_003.jpg,,,,,,,,,,,,,,,,,,,,,,,,,,,,,,,,,,,,,,,,,,,0,4,4,2,1,,,,,,,,,,,,,,,,,,,,,,,,,,,,,,,,,,,,,,,,,,,,,,
714789,001,2022-11-21_01h55.25.884,Info_measure_main_exp,2022.2.2,Win32,144.0714594,,,,,,,,,,,,,,,,,,masks/mask_002.jpg,,,,,,,,,,,,,,,,,,,,,,,,,,,,,,,,,,,,,,,,,,,,,,,,0,0,0,1,1,,,,,,,,,,,,,,,,,,,,,,,,,,,,,,,,,,,,,,,,,
714789,001,2022-11-21_01h55.25.884,Info_measure_main_exp,2022.2.2,Win32,144.0714594,,,,,,,,,,,,,,,,,,masks/mask_005.jpg,,,,,,,,,,,,,,,,,,,,,,,,,,,,,,,,,,,,,,,,,,,,,,,,0,1,1,4,1,,,,,,,,,,,,,,,,,,,,,,,,,,,,,,,,,,,,,,,,,
714789,001,2022-11-21_01h55.25.884,Info_measure_main_exp,2022.2.2,Win32,144.0714594,,,,,,,,,,,,,,,,,,masks/mask_003.jpg,,,,,,,,,,,,,,,,,,,,,,,,,,,,,,,,,,,,,,,,,,,,,,,,0,2,2,2,1,,,,,,,,,,,,,,,,,,,,,,,,,,,,,,,,,,,,,,,,,
714789,001,2022-11-21_01h55.25.884,Info_measure_main_exp,2022.2.2,Win32,144.0714594,,,,,,,,,,,,,,,,,,masks/mask_004.jpg,,,,,,,,,,,,,,,,,,,,,,,,,,,,,,,,,,,,,,,,,,,,,,,,0,3,3,3,1,,,,,,,,,,,,,,,,,,,,,,,,,,,,,,,,,,,,,,,,,
714789,001,2022-11-21_01h55.25.884,Info_measure_main_exp,2022.2.2,Win32,144.0714594,,,,,,,,,,,,,,,,,,masks/mask_001.jpg,,,,,,,,,,,,,,,,,,,,,,,,,,,,,,,,,,,,,,,,,,,,,,,,0,4,4,0,1,,,,,,,,,,,,,,,,,,,,,,,,,,,,,,,,,,,,,,,,,
714789,001,2022-11-21_01h55.25.884,Info_measure_main_exp,2022.2.2,Win32,144.0714594,,,,,,,,,,,,,,,,,,,,,,,,,,,,,,3,1.757,1,,,,,,,,,,,,0,131,5,5,2082,1986,absent_patch/patch0002082.jpg,absent_patch/patch0001986.jpg,,,,,,,,,,,,,,,,,,,,-0.037037037,-0.146296325,1,0,0,response5disk,15,-0.010185171,0.003703683,1,0,0,center_square,0,14,14,94,1,,,,,,,,,,,,,,,,,,,,,,,
714789,001,2022-11-21_01h55.25.884,Info_measure_main_exp,2022.2.2,Win32,144.0714594,,,,,,,,,,,,,,,,,,masks/mask_002.jpg,,,,,,,,,,,,,,,,,,,,,,,,,,,,,,,,,,,,,,,,,,,0,0,0,1,1,,,,,,,,,,,,,,,,,,,,,,,,,,,,,,,,,,,,,,,,,,,,,,
714789,001,2022-11-21_01h55.25.884,Info_measure_main_exp,2022.2.2,Win32,144.0714594,,,,,,,,,,,,,,,,,,masks/mask_005.jpg,,,,,,,,,,,,,,,,,,,,,,,,,,,,,,,,,,,,,,,,,,,0,1,1,4,1,,,,,,,,,,,,,,,,,,,,,,,,,,,,,,,,,,,,,,,,,,,,,,
714789,001,2022-11-21_01h55.25.884,Info_measure_main_exp,2022.2.2,Win32,144.0714594,,,,,,,,,,,,,,,,,,masks/mask_001.jpg,,,,,,,,,,,,,,,,,,,,,,,,,,,,,,,,,,,,,,,,,,,0,2,2,0,1,,,,,,,,,,,,,,,,,,,,,,,,,,,,,,,,,,,,,,,,,,,,,,
714789,001,2022-11-21_01h55.25.884,Info_measure_main_exp,2022.2.2,Win32,144.0714594,,,,,,,,,,,,,,,,,,masks/mask_003.jpg,,,,,,,,,,,,,,,,,,,,,,,,,,,,,,,,,,,,,,,,,,,0,3,3,2,1,,,,,,,,,,,,,,,,,,,,,,,,,,,,,,,,,,,,,,,,,,,,,,
714789,001,2022-11-21_01h55.25.884,Info_measure_main_exp,2022.2.2,Win32,144.0714594,,,,,,,,,,,,,,,,,,masks/mask_004.jpg,,,,,,,,,,,,,,,,,,,,,,,,,,,,,,,,,,,,,,,,,,,0,4,4,3,1,,,,,,,,,,,,,,,,,,,,,,,,,,,,,,,,,,,,,,,,,,,,,,
714789,001,2022-11-21_01h55.25.884,Info_measure_main_exp,2022.2.2,Win32,144.0714594,,,,,,,,,,,,,,,,,,masks/mask_001.jpg,,,,,,,,,,,,,,,,,,,,,,,,,,,,,,,,,,,,,,,,,,,,,,,,0,0,0,0,1,,,,,,,,,,,,,,,,,,,,,,,,,,,,,,,,,,,,,,,,,
714789,001,2022-11-21_01h55.25.884,Info_measure_main_exp,2022.2.2,Win32,144.0714594,,,,,,,,,,,,,,,,,,masks/mask_003.jpg,,,,,,,,,,,,,,,,,,,,,,,,,,,,,,,,,,,,,,,,,,,,,,,,0,1,1,2,1,,,,,,,,,,,,,,,,,,,,,,,,,,,,,,,,,,,,,,,,,
714789,001,2022-11-21_01h55.25.884,Info_measure_main_exp,2022.2.2,Win32,144.0714594,,,,,,,,,,,,,,,,,,masks/mask_004.jpg,,,,,,,,,,,,,,,,,,,,,,,,,,,,,,,,,,,,,,,,,,,,,,,,0,2,2,3,1,,,,,,,,,,,,,,,,,,,,,,,,,,,,,,,,,,,,,,,,,
714789,001,2022-11-21_01h55.25.884,Info_measure_main_exp,2022.2.2,Win32,144.0714594,,,,,,,,,,,,,,,,,,masks/mask_005.jpg,,,,,,,,,,,,,,,,,,,,,,,,,,,,,,,,,,,,,,,,,,,,,,,,0,3,3,4,1,,,,,,,,,,,,,,,,,,,,,,,,,,,,,,,,,,,,,,,,,
714789,001,2022-11-21_01h55.25.884,Info_measure_main_exp,2022.2.2,Win32,144.0714594,,,,,,,,,,,,,,,,,,masks/mask_002.jpg,,,,,,,,,,,,,,,,,,,,,,,,,,,,,,,,,,,,,,,,,,,,,,,,0,4,4,1,1,,,,,,,,,,,,,,,,,,,,,,,,,,,,,,,,,,,,,,,,,
714789,001,2022-11-21_01h55.25.884,Info_measure_main_exp,2022.2.2,Win32,144.0714594,,,,,,,,,,,,,,,,,,,,,,,,,,,,,,5,0.8334,1,,,,,,,,,,,,1,131,5,5,1,2178,present_patch/cong_131_5_a.jpg,absent_patch/patch0002178.jpg,,,,,,,,,,,,,,,,,,,,0.156481496,-0.064814815,1,0,0,response3disk,16,0.006481524,-0.0074074,1,0,0,center_square,0,15,15,40,1,,,,,,,,,,,,,,,,,,,,,,,
714789,001,2022-11-21_01h55.25.884,Info_measure_main_exp,2022.2.2,Win32,144.0714594,,,,,,,,,,,,,,,,,,masks/mask_001.jpg,,,,,,,,,,,,,,,,,,,,,,,,,,,,,,,,,,,,,,,,,,,0,0,0,0,1,,,,,,,,,,,,,,,,,,,,,,,,,,,,,,,,,,,,,,,,,,,,,,
714789,001,2022-11-21_01h55.25.884,Info_measure_main_exp,2022.2.2,Win32,144.0714594,,,,,,,,,,,,,,,,,,masks/mask_004.jpg,,,,,,,,,,,,,,,,,,,,,,,,,,,,,,,,,,,,,,,,,,,0,1,1,3,1,,,,,,,,,,,,,,,,,,,,,,,,,,,,,,,,,,,,,,,,,,,,,,
714789,001,2022-11-21_01h55.25.884,Info_measure_main_exp,2022.2.2,Win32,144.0714594,,,,,,,,,,,,,,,,,,masks/mask_002.jpg,,,,,,,,,,,,,,,,,,,,,,,,,,,,,,,,,,,,,,,,,,,0,2,2,1,1,,,,,,,,,,,,,,,,,,,,,,,,,,,,,,,,,,,,,,,,,,,,,,
714789,001,2022-11-21_01h55.25.884,Info_measure_main_exp,2022.2.2,Win32,144.0714594,,,,,,,,,,,,,,,,,,masks/mask_005.jpg,,,,,,,,,,,,,,,,,,,,,,,,,,,,,,,,,,,,,,,,,,,0,3,3,4,1,,,,,,,,,,,,,,,,,,,,,,,,,,,,,,,,,,,,,,,,,,,,,,
714789,001,2022-11-21_01h55.25.884,Info_measure_main_exp,2022.2.2,Win32,144.0714594,,,,,,,,,,,,,,,,,,masks/mask_003.jpg,,,,,,,,,,,,,,,,,,,,,,,,,,,,,,,,,,,,,,,,,,,0,4,4,2,1,,,,,,,,,,,,,,,,,,,,,,,,,,,,,,,,,,,,,,,,,,,,,,
714789,001,2022-11-21_01h55.25.884,Info_measure_main_exp,2022.2.2,Win32,144.0714594,,,,,,,,,,,,,,,,,,masks/mask_001.jpg,,,,,,,,,,,,,,,,,,,,,,,,,,,,,,,,,,,,,,,,,,,,,,,,0,0,0,0,1,,,,,,,,,,,,,,,,,,,,,,,,,,,,,,,,,,,,,,,,,
714789,001,2022-11-21_01h55.25.884,Info_measure_main_exp,2022.2.2,Win32,144.0714594,,,,,,,,,,,,,,,,,,masks/mask_002.jpg,,,,,,,,,,,,,,,,,,,,,,,,,,,,,,,,,,,,,,,,,,,,,,,,0,1,1,1,1,,,,,,,,,,,,,,,,,,,,,,,,,,,,,,,,,,,,,,,,,
714789,001,2022-11-21_01h55.25.884,Info_measure_main_exp,2022.2.2,Win32,144.0714594,,,,,,,,,,,,,,,,,,masks/mask_003.jpg,,,,,,,,,,,,,,,,,,,,,,,,,,,,,,,,,,,,,,,,,,,,,,,,0,2,2,2,1,,,,,,,,,,,,,,,,,,,,,,,,,,,,,,,,,,,,,,,,,
714789,001,2022-11-21_01h55.25.884,Info_measure_main_exp,2022.2.2,Win32,144.0714594,,,,,,,,,,,,,,,,,,masks/mask_005.jpg,,,,,,,,,,,,,,,,,,,,,,,,,,,,,,,,,,,,,,,,,,,,,,,,0,3,3,4,1,,,,,,,,,,,,,,,,,,,,,,,,,,,,,,,,,,,,,,,,,
714789,001,2022-11-21_01h55.25.884,Info_measure_main_exp,2022.2.2,Win32,144.0714594,,,,,,,,,,,,,,,,,,masks/mask_004.jpg,,,,,,,,,,,,,,,,,,,,,,,,,,,,,,,,,,,,,,,,,,,,,,,,0,4,4,3,1,,,,,,,,,,,,,,,,,,,,,,,,,,,,,,,,,,,,,,,,,
714789,001,2022-11-21_01h55.25.884,Info_measure_main_exp,2022.2.2,Win32,144.0714594,,,,,,,,,,,,,,,,,,,,,,,,,,,,,,4,1.132,1,,,,,,,,,,,,0,131,5,5,1950,2238,absent_patch/patch0001950.jpg,absent_patch/patch0002238.jpg,,,,,,,,,,,,,,,,,,,,0.088888875,-0.126851894,1,0,0,response3disk,17,-0.000925912,-0.011111118,1,0,0,center_square,0,16,16,8,1,,,,,,,,,,,,,,,,,,,,,,,
714789,001,2022-11-21_01h55.25.884,Info_measure_main_exp,2022.2.2,Win32,144.0714594,,,,,,,,,,,,,,,,,,masks/mask_001.jpg,,,,,,,,,,,,,,,,,,,,,,,,,,,,,,,,,,,,,,,,,,,0,0,0,0,1,,,,,,,,,,,,,,,,,,,,,,,,,,,,,,,,,,,,,,,,,,,,,,
714789,001,2022-11-21_01h55.25.884,Info_measure_main_exp,2022.2.2,Win32,144.0714594,,,,,,,,,,,,,,,,,,masks/mask_002.jpg,,,,,,,,,,,,,,,,,,,,,,,,,,,,,,,,,,,,,,,,,,,0,1,1,1,1,,,,,,,,,,,,,,,,,,,,,,,,,,,,,,,,,,,,,,,,,,,,,,
714789,001,2022-11-21_01h55.25.884,Info_measure_main_exp,2022.2.2,Win32,144.0714594,,,,,,,,,,,,,,,,,,masks/mask_005.jpg,,,,,,,,,,,,,,,,,,,,,,,,,,,,,,,,,,,,,,,,,,,0,2,2,4,1,,,,,,,,,,,,,,,,,,,,,,,,,,,,,,,,,,,,,,,,,,,,,,
714789,001,2022-11-21_01h55.25.884,Info_measure_main_exp,2022.2.2,Win32,144.0714594,,,,,,,,,,,,,,,,,,masks/mask_003.jpg,,,,,,,,,,,,,,,,,,,,,,,,,,,,,,,,,,,,,,,,,,,0,3,3,2,1,,,,,,,,,,,,,,,,,,,,,,,,,,,,,,,,,,,,,,,,,,,,,,
714789,001,2022-11-21_01h55.25.884,Info_measure_main_exp,2022.2.2,Win32,144.0714594,,,,,,,,,,,,,,,,,,masks/mask_004.jpg,,,,,,,,,,,,,,,,,,,,,,,,,,,,,,,,,,,,,,,,,,,0,4,4,3,1,,,,,,,,,,,,,,,,,,,,,,,,,,,,,,,,,,,,,,,,,,,,,,
714789,001,2022-11-21_01h55.25.884,Info_measure_main_exp,2022.2.2,Win32,144.0714594,,,,,,,,,,,,,,,,,,masks/mask_001.jpg,,,,,,,,,,,,,,,,,,,,,,,,,,,,,,,,,,,,,,,,,,,,,,,,0,0,0,0,1,,,,,,,,,,,,,,,,,,,,,,,,,,,,,,,,,,,,,,,,,
714789,001,2022-11-21_01h55.25.884,Info_measure_main_exp,2022.2.2,Win32,144.0714594,,,,,,,,,,,,,,,,,,masks/mask_004.jpg,,,,,,,,,,,,,,,,,,,,,,,,,,,,,,,,,,,,,,,,,,,,,,,,0,1,1,3,1,,,,,,,,,,,,,,,,,,,,,,,,,,,,,,,,,,,,,,,,,
714789,001,2022-11-21_01h55.25.884,Info_measure_main_exp,2022.2.2,Win32,144.0714594,,,,,,,,,,,,,,,,,,masks/mask_005.jpg,,,,,,,,,,,,,,,,,,,,,,,,,,,,,,,,,,,,,,,,,,,,,,,,0,2,2,4,1,,,,,,,,,,,,,,,,,,,,,,,,,,,,,,,,,,,,,,,,,
714789,001,2022-11-21_01h55.25.884,Info_measure_main_exp,2022.2.2,Win32,144.0714594,,,,,,,,,,,,,,,,,,masks/mask_003.jpg,,,,,,,,,,,,,,,,,,,,,,,,,,,,,,,,,,,,,,,,,,,,,,,,0,3,3,2,1,,,,,,,,,,,,,,,,,,,,,,,,,,,,,,,,,,,,,,,,,
714789,001,2022-11-21_01h55.25.884,Info_measure_main_exp,2022.2.2,Win32,144.0714594,,,,,,,,,,,,,,,,,,masks/mask_002.jpg,,,,,,,,,,,,,,,,,,,,,,,,,,,,,,,,,,,,,,,,,,,,,,,,0,4,4,1,1,,,,,,,,,,,,,,,,,,,,,,,,,,,,,,,,,,,,,,,,,
714789,001,2022-11-21_01h55.25.884,Info_measure_main_exp,2022.2.2,Win32,144.0714594,,,,,,,,,,,,,,,,,,,,,,,,,,,,,,5,1.0487,1,,,,,,,,,,,,0,131,5,5,2298,2142,absent_patch/patch0002298.jpg,absent_patch/patch0002142.jpg,,,,,,,,,,,,,,,,,,,,0.142592607,-0.062962956,1,0,0,response3disk,18,-0.000925912,0.009259259,1,0,0,center_square,0,17,17,49,1,,,,,,,,,,,,,,,,,,,,,,,
714789,001,2022-11-21_01h55.25.884,Info_measure_main_exp,2022.2.2,Win32,144.0714594,,,,,,,,,,,,,,,,,,masks/mask_005.jpg,,,,,,,,,,,,,,,,,,,,,,,,,,,,,,,,,,,,,,,,,,,0,0,0,4,1,,,,,,,,,,,,,,,,,,,,,,,,,,,,,,,,,,,,,,,,,,,,,,
714789,001,2022-11-21_01h55.25.884,Info_measure_main_exp,2022.2.2,Win32,144.0714594,,,,,,,,,,,,,,,,,,masks/mask_003.jpg,,,,,,,,,,,,,,,,,,,,,,,,,,,,,,,,,,,,,,,,,,,0,1,1,2,1,,,,,,,,,,,,,,,,,,,,,,,,,,,,,,,,,,,,,,,,,,,,,,
714789,001,2022-11-21_01h55.25.884,Info_measure_main_exp,2022.2.2,Win32,144.0714594,,,,,,,,,,,,,,,,,,masks/mask_004.jpg,,,,,,,,,,,,,,,,,,,,,,,,,,,,,,,,,,,,,,,,,,,0,2,2,3,1,,,,,,,,,,,,,,,,,,,,,,,,,,,,,,,,,,,,,,,,,,,,,,
714789,001,2022-11-21_01h55.25.884,Info_measure_main_exp,2022.2.2,Win32,144.0714594,,,,,,,,,,,,,,,,,,masks/mask_002.jpg,,,,,,,,,,,,,,,,,,,,,,,,,,,,,,,,,,,,,,,,,,,0,3,3,1,1,,,,,,,,,,,,,,,,,,,,,,,,,,,,,,,,,,,,,,,,,,,,,,
714789,001,2022-11-21_01h55.25.884,Info_measure_main_exp,2022.2.2,Win32,144.0714594,,,,,,,,,,,,,,,,,,masks/mask_001.jpg,,,,,,,,,,,,,,,,,,,,,,,,,,,,,,,,,,,,,,,,,,,0,4,4,0,1,,,,,,,,,,,,,,,,,,,,,,,,,,,,,,,,,,,,,,,,,,,,,,
714789,001,2022-11-21_01h55.25.884,Info_measure_main_exp,2022.2.2,Win32,144.0714594,,,,,,,,,,,,,,,,,,masks/mask_002.jpg,,,,,,,,,,,,,,,,,,,,,,,,,,,,,,,,,,,,,,,,,,,,,,,,0,0,0,1,1,,,,,,,,,,,,,,,,,,,,,,,,,,,,,,,,,,,,,,,,,
714789,001,2022-11-21_01h55.25.884,Info_measure_main_exp,2022.2.2,Win32,144.0714594,,,,,,,,,,,,,,,,,,masks/mask_001.jpg,,,,,,,,,,,,,,,,,,,,,,,,,,,,,,,,,,,,,,,,,,,,,,,,0,1,1,0,1,,,,,,,,,,,,,,,,,,,,,,,,,,,,,,,,,,,,,,,,,
714789,001,2022-11-21_01h55.25.884,Info_measure_main_exp,2022.2.2,Win32,144.0714594,,,,,,,,,,,,,,,,,,masks/mask_005.jpg,,,,,,,,,,,,,,,,,,,,,,,,,,,,,,,,,,,,,,,,,,,,,,,,0,2,2,4,1,,,,,,,,,,,,,,,,,,,,,,,,,,,,,,,,,,,,,,,,,
714789,001,2022-11-21_01h55.25.884,Info_measure_main_exp,2022.2.2,Win32,144.0714594,,,,,,,,,,,,,,,,,,masks/mask_003.jpg,,,,,,,,,,,,,,,,,,,,,,,,,,,,,,,,,,,,,,,,,,,,,,,,0,3,3,2,1,,,,,,,,,,,,,,,,,,,,,,,,,,,,,,,,,,,,,,,,,
714789,001,2022-11-21_01h55.25.884,Info_measure_main_exp,2022.2.2,Win32,144.0714594,,,,,,,,,,,,,,,,,,masks/mask_004.jpg,,,,,,,,,,,,,,,,,,,,,,,,,,,,,,,,,,,,,,,,,,,,,,,,0,4,4,3,1,,,,,,,,,,,,,,,,,,,,,,,,,,,,,,,,,,,,,,,,,
714789,001,2022-11-21_01h55.25.884,Info_measure_main_exp,2022.2.2,Win32,144.0714594,,,,,,,,,,,,,,,,,,,,,,,,,,,,,,4,2.1875,1,,,,,,,,,,,,0,131,5,5,2178,2154,absent_patch/patch0002178.jpg,absent_patch/patch0002154.jpg,,,,,,,,,,,,,,,,,,,,0.106481481,-0.14907406,1,0,0,response3disk,19,0.010185171,-0.002777771,1,0,0,center_square,0,18,18,63,1,,,,,,,,,,,,,,,,,,,,,,,
714789,001,2022-11-21_01h55.25.884,Info_measure_main_exp,2022.2.2,Win32,144.0714594,,,,,,,,,,,,,,,,,,masks/mask_003.jpg,,,,,,,,,,,,,,,,,,,,,,,,,,,,,,,,,,,,,,,,,,,0,0,0,2,1,,,,,,,,,,,,,,,,,,,,,,,,,,,,,,,,,,,,,,,,,,,,,,
714789,001,2022-11-21_01h55.25.884,Info_measure_main_exp,2022.2.2,Win32,144.0714594,,,,,,,,,,,,,,,,,,masks/mask_001.jpg,,,,,,,,,,,,,,,,,,,,,,,,,,,,,,,,,,,,,,,,,,,0,1,1,0,1,,,,,,,,,,,,,,,,,,,,,,,,,,,,,,,,,,,,,,,,,,,,,,
714789,001,2022-11-21_01h55.25.884,Info_measure_main_exp,2022.2.2,Win32,144.0714594,,,,,,,,,,,,,,,,,,masks/mask_004.jpg,,,,,,,,,,,,,,,,,,,,,,,,,,,,,,,,,,,,,,,,,,,0,2,2,3,1,,,,,,,,,,,,,,,,,,,,,,,,,,,,,,,,,,,,,,,,,,,,,,
714789,001,2022-11-21_01h55.25.884,Info_measure_main_exp,2022.2.2,Win32,144.0714594,,,,,,,,,,,,,,,,,,masks/mask_005.jpg,,,,,,,,,,,,,,,,,,,,,,,,,,,,,,,,,,,,,,,,,,,0,3,3,4,1,,,,,,,,,,,,,,,,,,,,,,,,,,,,,,,,,,,,,,,,,,,,,,
714789,001,2022-11-21_01h55.25.884,Info_measure_main_exp,2022.2.2,Win32,144.0714594,,,,,,,,,,,,,,,,,,masks/mask_002.jpg,,,,,,,,,,,,,,,,,,,,,,,,,,,,,,,,,,,,,,,,,,,0,4,4,1,1,,,,,,,,,,,,,,,,,,,,,,,,,,,,,,,,,,,,,,,,,,,,,,
714789,001,2022-11-21_01h55.25.884,Info_measure_main_exp,2022.2.2,Win32,144.0714594,,,,,,,,,,,,,,,,,,masks/mask_004.jpg,,,,,,,,,,,,,,,,,,,,,,,,,,,,,,,,,,,,,,,,,,,,,,,,0,0,0,3,1,,,,,,,,,,,,,,,,,,,,,,,,,,,,,,,,,,,,,,,,,
714789,001,2022-11-21_01h55.25.884,Info_measure_main_exp,2022.2.2,Win32,144.0714594,,,,,,,,,,,,,,,,,,masks/mask_003.jpg,,,,,,,,,,,,,,,,,,,,,,,,,,,,,,,,,,,,,,,,,,,,,,,,0,1,1,2,1,,,,,,,,,,,,,,,,,,,,,,,,,,,,,,,,,,,,,,,,,
714789,001,2022-11-21_01h55.25.884,Info_measure_main_exp,2022.2.2,Win32,144.0714594,,,,,,,,,,,,,,,,,,masks/mask_002.jpg,,,,,,,,,,,,,,,,,,,,,,,,,,,,,,,,,,,,,,,,,,,,,,,,0,2,2,1,1,,,,,,,,,,,,,,,,,,,,,,,,,,,,,,,,,,,,,,,,,
714789,001,2022-11-21_01h55.25.884,Info_measure_main_exp,2022.2.2,Win32,144.0714594,,,,,,,,,,,,,,,,,,masks/mask_005.jpg,,,,,,,,,,,,,,,,,,,,,,,,,,,,,,,,,,,,,,,,,,,,,,,,0,3,3,4,1,,,,,,,,,,,,,,,,,,,,,,,,,,,,,,,,,,,,,,,,,
714789,001,2022-11-21_01h55.25.884,Info_measure_main_exp,2022.2.2,Win32,144.0714594,,,,,,,,,,,,,,,,,,masks/mask_001.jpg,,,,,,,,,,,,,,,,,,,,,,,,,,,,,,,,,,,,,,,,,,,,,,,,0,4,4,0,1,,,,,,,,,,,,,,,,,,,,,,,,,,,,,,,,,,,,,,,,,
714789,001,2022-11-21_01h55.25.884,Info_measure_main_exp,2022.2.2,Win32,144.0714594,,,,,,,,,,,,,,,,,,,,,,,,,,,,,,5,1.6735,1,,,,,,,,,,,,0,131,5,5,1974,2142,absent_patch/patch0001974.jpg,absent_patch/patch0002142.jpg,,,,,,,,,,,,,,,,,,,,0.100000028,-0.09629631,1,0,0,response3disk,20,0.006481524,0.006481489,1,0,0,center_square,0,19,19,38,1,,,,,,,,,,,,,,,,,,,,,,,
714789,001,2022-11-21_01h55.25.884,Info_measure_main_exp,2022.2.2,Win32,144.0714594,,,,,,,,,,,,,,,,,,masks/mask_003.jpg,,,,,,,,,,,,,,,,,,,,,,,,,,,,,,,,,,,,,,,,,,,0,0,0,2,1,,,,,,,,,,,,,,,,,,,,,,,,,,,,,,,,,,,,,,,,,,,,,,
714789,001,2022-11-21_01h55.25.884,Info_measure_main_exp,2022.2.2,Win32,144.0714594,,,,,,,,,,,,,,,,,,masks/mask_001.jpg,,,,,,,,,,,,,,,,,,,,,,,,,,,,,,,,,,,,,,,,,,,0,1,1,0,1,,,,,,,,,,,,,,,,,,,,,,,,,,,,,,,,,,,,,,,,,,,,,,
714789,001,2022-11-21_01h55.25.884,Info_measure_main_exp,2022.2.2,Win32,144.0714594,,,,,,,,,,,,,,,,,,masks/mask_004.jpg,,,,,,,,,,,,,,,,,,,,,,,,,,,,,,,,,,,,,,,,,,,0,2,2,3,1,,,,,,,,,,,,,,,,,,,,,,,,,,,,,,,,,,,,,,,,,,,,,,
714789,001,2022-11-21_01h55.25.884,Info_measure_main_exp,2022.2.2,Win32,144.0714594,,,,,,,,,,,,,,,,,,masks/mask_005.jpg,,,,,,,,,,,,,,,,,,,,,,,,,,,,,,,,,,,,,,,,,,,0,3,3,4,1,,,,,,,,,,,,,,,,,,,,,,,,,,,,,,,,,,,,,,,,,,,,,,
714789,001,2022-11-21_01h55.25.884,Info_measure_main_exp,2022.2.2,Win32,144.0714594,,,,,,,,,,,,,,,,,,masks/mask_002.jpg,,,,,,,,,,,,,,,,,,,,,,,,,,,,,,,,,,,,,,,,,,,0,4,4,1,1,,,,,,,,,,,,,,,,,,,,,,,,,,,,,,,,,,,,,,,,,,,,,,
714789,001,2022-11-21_01h55.25.884,Info_measure_main_exp,2022.2.2,Win32,144.0714594,,,,,,,,,,,,,,,,,,masks/mask_001.jpg,,,,,,,,,,,,,,,,,,,,,,,,,,,,,,,,,,,,,,,,,,,,,,,,0,0,0,0,1,,,,,,,,,,,,,,,,,,,,,,,,,,,,,,,,,,,,,,,,,
714789,001,2022-11-21_01h55.25.884,Info_measure_main_exp,2022.2.2,Win32,144.0714594,,,,,,,,,,,,,,,,,,masks/mask_005.jpg,,,,,,,,,,,,,,,,,,,,,,,,,,,,,,,,,,,,,,,,,,,,,,,,0,1,1,4,1,,,,,,,,,,,,,,,,,,,,,,,,,,,,,,,,,,,,,,,,,
714789,001,2022-11-21_01h55.25.884,Info_measure_main_exp,2022.2.2,Win32,144.0714594,,,,,,,,,,,,,,,,,,masks/mask_004.jpg,,,,,,,,,,,,,,,,,,,,,,,,,,,,,,,,,,,,,,,,,,,,,,,,0,2,2,3,1,,,,,,,,,,,,,,,,,,,,,,,,,,,,,,,,,,,,,,,,,
714789,001,2022-11-21_01h55.25.884,Info_measure_main_exp,2022.2.2,Win32,144.0714594,,,,,,,,,,,,,,,,,,masks/mask_003.jpg,,,,,,,,,,,,,,,,,,,,,,,,,,,,,,,,,,,,,,,,,,,,,,,,0,3,3,2,1,,,,,,,,,,,,,,,,,,,,,,,,,,,,,,,,,,,,,,,,,
714789,001,2022-11-21_01h55.25.884,Info_measure_main_exp,2022.2.2,Win32,144.0714594,,,,,,,,,,,,,,,,,,masks/mask_002.jpg,,,,,,,,,,,,,,,,,,,,,,,,,,,,,,,,,,,,,,,,,,,,,,,,0,4,4,1,1,,,,,,,,,,,,,,,,,,,,,,,,,,,,,,,,,,,,,,,,,
714789,001,2022-11-21_01h55.25.884,Info_measure_main_exp,2022.2.2,Win32,144.0714594,,,,,,,,,,,,,,,,,,,,,,,,,,,,,,5,0.6043,1,,,,,,,,,,,,1,131,5,5,1,1974,present_patch/cong_131_5_a.jpg,absent_patch/patch0001974.jpg,,,,,,,,,,,,,,,,,,,,0.118518547,-0.074074074,1,0,0,response3disk,21,0.000925912,-0.006481489,1,0,0,center_square,0,20,20,69,1,,,,,,,,,,,,,,,,,,,,,,,
714789,001,2022-11-21_01h55.25.884,Info_measure_main_exp,2022.2.2,Win32,144.0714594,,,,,,,,,,,,,,,,,,masks/mask_005.jpg,,,,,,,,,,,,,,,,,,,,,,,,,,,,,,,,,,,,,,,,,,,0,0,0,4,1,,,,,,,,,,,,,,,,,,,,,,,,,,,,,,,,,,,,,,,,,,,,,,
714789,001,2022-11-21_01h55.25.884,Info_measure_main_exp,2022.2.2,Win32,144.0714594,,,,,,,,,,,,,,,,,,masks/mask_002.jpg,,,,,,,,,,,,,,,,,,,,,,,,,,,,,,,,,,,,,,,,,,,0,1,1,1,1,,,,,,,,,,,,,,,,,,,,,,,,,,,,,,,,,,,,,,,,,,,,,,
714789,001,2022-11-21_01h55.25.884,Info_measure_main_exp,2022.2.2,Win32,144.0714594,,,,,,,,,,,,,,,,,,masks/mask_001.jpg,,,,,,,,,,,,,,,,,,,,,,,,,,,,,,,,,,,,,,,,,,,0,2,2,0,1,,,,,,,,,,,,,,,,,,,,,,,,,,,,,,,,,,,,,,,,,,,,,,
714789,001,2022-11-21_01h55.25.884,Info_measure_main_exp,2022.2.2,Win32,144.0714594,,,,,,,,,,,,,,,,,,masks/mask_003.jpg,,,,,,,,,,,,,,,,,,,,,,,,,,,,,,,,,,,,,,,,,,,0,3,3,2,1,,,,,,,,,,,,,,,,,,,,,,,,,,,,,,,,,,,,,,,,,,,,,,
714789,001,2022-11-21_01h55.25.884,Info_measure_main_exp,2022.2.2,Win32,144.0714594,,,,,,,,,,,,,,,,,,masks/mask_004.jpg,,,,,,,,,,,,,,,,,,,,,,,,,,,,,,,,,,,,,,,,,,,0,4,4,3,1,,,,,,,,,,,,,,,,,,,,,,,,,,,,,,,,,,,,,,,,,,,,,,
714789,001,2022-11-21_01h55.25.884,Info_measure_main_exp,2022.2.2,Win32,144.0714594,,,,,,,,,,,,,,,,,,masks/mask_005.jpg,,,,,,,,,,,,,,,,,,,,,,,,,,,,,,,,,,,,,,,,,,,,,,,,0,0,0,4,1,,,,,,,,,,,,,,,,,,,,,,,,,,,,,,,,,,,,,,,,,
714789,001,2022-11-21_01h55.25.884,Info_measure_main_exp,2022.2.2,Win32,144.0714594,,,,,,,,,,,,,,,,,,masks/mask_003.jpg,,,,,,,,,,,,,,,,,,,,,,,,,,,,,,,,,,,,,,,,,,,,,,,,0,1,1,2,1,,,,,,,,,,,,,,,,,,,,,,,,,,,,,,,,,,,,,,,,,
714789,001,2022-11-21_01h55.25.884,Info_measure_main_exp,2022.2.2,Win32,144.0714594,,,,,,,,,,,,,,,,,,masks/mask_001.jpg,,,,,,,,,,,,,,,,,,,,,,,,,,,,,,,,,,,,,,,,,,,,,,,,0,2,2,0,1,,,,,,,,,,,,,,,,,,,,,,,,,,,,,,,,,,,,,,,,,
714789,001,2022-11-21_01h55.25.884,Info_measure_main_exp,2022.2.2,Win32,144.0714594,,,,,,,,,,,,,,,,,,masks/mask_002.jpg,,,,,,,,,,,,,,,,,,,,,,,,,,,,,,,,,,,,,,,,,,,,,,,,0,3,3,1,1,,,,,,,,,,,,,,,,,,,,,,,,,,,,,,,,,,,,,,,,,
714789,001,2022-11-21_01h55.25.884,Info_measure_main_exp,2022.2.2,Win32,144.0714594,,,,,,,,,,,,,,,,,,masks/mask_004.jpg,,,,,,,,,,,,,,,,,,,,,,,,,,,,,,,,,,,,,,,,,,,,,,,,0,4,4,3,1,,,,,,,,,,,,,,,,,,,,,,,,,,,,,,,,,,,,,,,,,
714789,001,2022-11-21_01h55.25.884,Info_measure_main_exp,2022.2.2,Win32,144.0714594,,,,,,,,,,,,,,,,,,,,,,,,,,,,,,4,1.2431,1,,,,,,,,,,,,0,131,5,5,1974,2178,absent_patch/patch0001974.jpg,absent_patch/patch0002178.jpg,,,,,,,,,,,,,,,,,,,,0.082407422,-0.150000042,1,0,0,response3disk,22,0.009259259,-0.008333347,1,0,0,center_square,0,21,21,44,1,,,,,,,,,,,,,,,,,,,,,,,
714789,001,2022-11-21_01h55.25.884,Info_measure_main_exp,2022.2.2,Win32,144.0714594,,,,,,,,,,,,,,,,,,masks/mask_004.jpg,,,,,,,,,,,,,,,,,,,,,,,,,,,,,,,,,,,,,,,,,,,0,0,0,3,1,,,,,,,,,,,,,,,,,,,,,,,,,,,,,,,,,,,,,,,,,,,,,,
714789,001,2022-11-21_01h55.25.884,Info_measure_main_exp,2022.2.2,Win32,144.0714594,,,,,,,,,,,,,,,,,,masks/mask_003.jpg,,,,,,,,,,,,,,,,,,,,,,,,,,,,,,,,,,,,,,,,,,,0,1,1,2,1,,,,,,,,,,,,,,,,,,,,,,,,,,,,,,,,,,,,,,,,,,,,,,
714789,001,2022-11-21_01h55.25.884,Info_measure_main_exp,2022.2.2,Win32,144.0714594,,,,,,,,,,,,,,,,,,masks/mask_001.jpg,,,,,,,,,,,,,,,,,,,,,,,,,,,,,,,,,,,,,,,,,,,0,2,2,0,1,,,,,,,,,,,,,,,,,,,,,,,,,,,,,,,,,,,,,,,,,,,,,,
714789,001,2022-11-21_01h55.25.884,Info_measure_main_exp,2022.2.2,Win32,144.0714594,,,,,,,,,,,,,,,,,,masks/mask_005.jpg,,,,,,,,,,,,,,,,,,,,,,,,,,,,,,,,,,,,,,,,,,,0,3,3,4,1,,,,,,,,,,,,,,,,,,,,,,,,,,,,,,,,,,,,,,,,,,,,,,
714789,001,2022-11-21_01h55.25.884,Info_measure_main_exp,2022.2.2,Win32,144.0714594,,,,,,,,,,,,,,,,,,masks/mask_002.jpg,,,,,,,,,,,,,,,,,,,,,,,,,,,,,,,,,,,,,,,,,,,0,4,4,1,1,,,,,,,,,,,,,,,,,,,,,,,,,,,,,,,,,,,,,,,,,,,,,,
714789,001,2022-11-21_01h55.25.884,Info_measure_main_exp,2022.2.2,Win32,144.0714594,,,,,,,,,,,,,,,,,,masks/mask_004.jpg,,,,,,,,,,,,,,,,,,,,,,,,,,,,,,,,,,,,,,,,,,,,,,,,0,0,0,3,1,,,,,,,,,,,,,,,,,,,,,,,,,,,,,,,,,,,,,,,,,
714789,001,2022-11-21_01h55.25.884,Info_measure_main_exp,2022.2.2,Win32,144.0714594,,,,,,,,,,,,,,,,,,masks/mask_001.jpg,,,,,,,,,,,,,,,,,,,,,,,,,,,,,,,,,,,,,,,,,,,,,,,,0,1,1,0,1,,,,,,,,,,,,,,,,,,,,,,,,,,,,,,,,,,,,,,,,,
714789,001,2022-11-21_01h55.25.884,Info_measure_main_exp,2022.2.2,Win32,144.0714594,,,,,,,,,,,,,,,,,,masks/mask_003.jpg,,,,,,,,,,,,,,,,,,,,,,,,,,,,,,,,,,,,,,,,,,,,,,,,0,2,2,2,1,,,,,,,,,,,,,,,,,,,,,,,,,,,,,,,,,,,,,,,,,
714789,001,2022-11-21_01h55.25.884,Info_measure_main_exp,2022.2.2,Win32,144.0714594,,,,,,,,,,,,,,,,,,masks/mask_002.jpg,,,,,,,,,,,,,,,,,,,,,,,,,,,,,,,,,,,,,,,,,,,,,,,,0,3,3,1,1,,,,,,,,,,,,,,,,,,,,,,,,,,,,,,,,,,,,,,,,,
714789,001,2022-11-21_01h55.25.884,Info_measure_main_exp,2022.2.2,Win32,144.0714594,,,,,,,,,,,,,,,,,,masks/mask_005.jpg,,,,,,,,,,,,,,,,,,,,,,,,,,,,,,,,,,,,,,,,,,,,,,,,0,4,4,4,1,,,,,,,,,,,,,,,,,,,,,,,,,,,,,,,,,,,,,,,,,
714789,001,2022-11-21_01h55.25.884,Info_measure_main_exp,2022.2.2,Win32,144.0714594,,,,,,,,,,,,,,,,,,,,,,,,,,,,,,6,1.3423,1,,,,,,,,,,,,0,131,5,5,1986,1974,absent_patch/patch0001986.jpg,absent_patch/patch0001974.jpg,,,,,,,,,,,,,,,,,,,,0.148148148,0.051851838,1,0,0,response1disk,23,0.002777806,0.011111118,1,0,0,center_square,0,22,22,25,1,,,,,,,,,,,,,,,,,,,,,,,
714789,001,2022-11-21_01h55.25.884,Info_measure_main_exp,2022.2.2,Win32,144.0714594,,,,,,,,,,,,,,,,,,masks/mask_002.jpg,,,,,,,,,,,,,,,,,,,,,,,,,,,,,,,,,,,,,,,,,,,0,0,0,1,1,,,,,,,,,,,,,,,,,,,,,,,,,,,,,,,,,,,,,,,,,,,,,,
714789,001,2022-11-21_01h55.25.884,Info_measure_main_exp,2022.2.2,Win32,144.0714594,,,,,,,,,,,,,,,,,,masks/mask_005.jpg,,,,,,,,,,,,,,,,,,,,,,,,,,,,,,,,,,,,,,,,,,,0,1,1,4,1,,,,,,,,,,,,,,,,,,,,,,,,,,,,,,,,,,,,,,,,,,,,,,
714789,001,2022-11-21_01h55.25.884,Info_measure_main_exp,2022.2.2,Win32,144.0714594,,,,,,,,,,,,,,,,,,masks/mask_001.jpg,,,,,,,,,,,,,,,,,,,,,,,,,,,,,,,,,,,,,,,,,,,0,2,2,0,1,,,,,,,,,,,,,,,,,,,,,,,,,,,,,,,,,,,,,,,,,,,,,,
714789,001,2022-11-21_01h55.25.884,Info_measure_main_exp,2022.2.2,Win32,144.0714594,,,,,,,,,,,,,,,,,,masks/mask_004.jpg,,,,,,,,,,,,,,,,,,,,,,,,,,,,,,,,,,,,,,,,,,,0,3,3,3,1,,,,,,,,,,,,,,,,,,,,,,,,,,,,,,,,,,,,,,,,,,,,,,
714789,001,2022-11-21_01h55.25.884,Info_measure_main_exp,2022.2.2,Win32,144.0714594,,,,,,,,,,,,,,,,,,masks/mask_003.jpg,,,,,,,,,,,,,,,,,,,,,,,,,,,,,,,,,,,,,,,,,,,0,4,4,2,1,,,,,,,,,,,,,,,,,,,,,,,,,,,,,,,,,,,,,,,,,,,,,,
714789,001,2022-11-21_01h55.25.884,Info_measure_main_exp,2022.2.2,Win32,144.0714594,,,,,,,,,,,,,,,,,,masks/mask_002.jpg,,,,,,,,,,,,,,,,,,,,,,,,,,,,,,,,,,,,,,,,,,,,,,,,0,0,0,1,1,,,,,,,,,,,,,,,,,,,,,,,,,,,,,,,,,,,,,,,,,
714789,001,2022-11-21_01h55.25.884,Info_measure_main_exp,2022.2.2,Win32,144.0714594,,,,,,,,,,,,,,,,,,masks/mask_004.jpg,,,,,,,,,,,,,,,,,,,,,,,,,,,,,,,,,,,,,,,,,,,,,,,,0,1,1,3,1,,,,,,,,,,,,,,,,,,,,,,,,,,,,,,,,,,,,,,,,,
714789,001,2022-11-21_01h55.25.884,Info_measure_main_exp,2022.2.2,Win32,144.0714594,,,,,,,,,,,,,,,,,,masks/mask_003.jpg,,,,,,,,,,,,,,,,,,,,,,,,,,,,,,,,,,,,,,,,,,,,,,,,0,2,2,2,1,,,,,,,,,,,,,,,,,,,,,,,,,,,,,,,,,,,,,,,,,
714789,001,2022-11-21_01h55.25.884,Info_measure_main_exp,2022.2.2,Win32,144.0714594,,,,,,,,,,,,,,,,,,masks/mask_005.jpg,,,,,,,,,,,,,,,,,,,,,,,,,,,,,,,,,,,,,,,,,,,,,,,,0,3,3,4,1,,,,,,,,,,,,,,,,,,,,,,,,,,,,,,,,,,,,,,,,,
714789,001,2022-11-21_01h55.25.884,Info_measure_main_exp,2022.2.2,Win32,144.0714594,,,,,,,,,,,,,,,,,,masks/mask_001.jpg,,,,,,,,,,,,,,,,,,,,,,,,,,,,,,,,,,,,,,,,,,,,,,,,0,4,4,0,1,,,,,,,,,,,,,,,,,,,,,,,,,,,,,,,,,,,,,,,,,
714789,001,2022-11-21_01h55.25.884,Info_measure_main_exp,2022.2.2,Win32,144.0714594,,,,,,,,,,,,,,,,,,,,,,,,,,,,,,5,65.9934,1,,,,,,,,,,,,0,131,5,5,1974,2298,absent_patch/patch0001974.jpg,absent_patch/patch0002298.jpg,,,,,,,,,,,,,,,,,,,,0.143518519,-0.060185185,1,0,0,response3disk,24,-0.000925912,-0.000925947,1,0,0,center_square,0,23,23,6,1,,,,,,,,,,,,,,,,,,,,,,,
714789,001,2022-11-21_01h55.25.884,Info_measure_main_exp,2022.2.2,Win32,144.0714594,,,,,,,,,,,,,,,,,,masks/mask_003.jpg,,,,,,,,,,,,,,,,,,,,,,,,,,,,,,,,,,,,,,,,,,,0,0,0,2,1,,,,,,,,,,,,,,,,,,,,,,,,,,,,,,,,,,,,,,,,,,,,,,
714789,001,2022-11-21_01h55.25.884,Info_measure_main_exp,2022.2.2,Win32,144.0714594,,,,,,,,,,,,,,,,,,masks/mask_001.jpg,,,,,,,,,,,,,,,,,,,,,,,,,,,,,,,,,,,,,,,,,,,0,1,1,0,1,,,,,,,,,,,,,,,,,,,,,,,,,,,,,,,,,,,,,,,,,,,,,,
714789,001,2022-11-21_01h55.25.884,Info_measure_main_exp,2022.2.2,Win32,144.0714594,,,,,,,,,,,,,,,,,,masks/mask_004.jpg,,,,,,,,,,,,,,,,,,,,,,,,,,,,,,,,,,,,,,,,,,,0,2,2,3,1,,,,,,,,,,,,,,,,,,,,,,,,,,,,,,,,,,,,,,,,,,,,,,
714789,001,2022-11-21_01h55.25.884,Info_measure_main_exp,2022.2.2,Win32,144.0714594,,,,,,,,,,,,,,,,,,masks/mask_002.jpg,,,,,,,,,,,,,,,,,,,,,,,,,,,,,,,,,,,,,,,,,,,0,3,3,1,1,,,,,,,,,,,,,,,,,,,,,,,,,,,,,,,,,,,,,,,,,,,,,,
714789,001,2022-11-21_01h55.25.884,Info_measure_main_exp,2022.2.2,Win32,144.0714594,,,,,,,,,,,,,,,,,,masks/mask_005.jpg,,,,,,,,,,,,,,,,,,,,,,,,,,,,,,,,,,,,,,,,,,,0,4,4,4,1,,,,,,,,,,,,,,,,,,,,,,,,,,,,,,,,,,,,,,,,,,,,,,
714789,001,2022-11-21_01h55.25.884,Info_measure_main_exp,2022.2.2,Win32,144.0714594,,,,,,,,,,,,,,,,,,masks/mask_001.jpg,,,,,,,,,,,,,,,,,,,,,,,,,,,,,,,,,,,,,,,,,,,,,,,,0,0,0,0,1,,,,,,,,,,,,,,,,,,,,,,,,,,,,,,,,,,,,,,,,,
714789,001,2022-11-21_01h55.25.884,Info_measure_main_exp,2022.2.2,Win32,144.0714594,,,,,,,,,,,,,,,,,,masks/mask_004.jpg,,,,,,,,,,,,,,,,,,,,,,,,,,,,,,,,,,,,,,,,,,,,,,,,0,1,1,3,1,,,,,,,,,,,,,,,,,,,,,,,,,,,,,,,,,,,,,,,,,
714789,001,2022-11-21_01h55.25.884,Info_measure_main_exp,2022.2.2,Win32,144.0714594,,,,,,,,,,,,,,,,,,masks/mask_003.jpg,,,,,,,,,,,,,,,,,,,,,,,,,,,,,,,,,,,,,,,,,,,,,,,,0,2,2,2,1,,,,,,,,,,,,,,,,,,,,,,,,,,,,,,,,,,,,,,,,,
714789,001,2022-11-21_01h55.25.884,Info_measure_main_exp,2022.2.2,Win32,144.0714594,,,,,,,,,,,,,,,,,,masks/mask_002.jpg,,,,,,,,,,,,,,,,,,,,,,,,,,,,,,,,,,,,,,,,,,,,,,,,0,3,3,1,1,,,,,,,,,,,,,,,,,,,,,,,,,,,,,,,,,,,,,,,,,
714789,001,2022-11-21_01h55.25.884,Info_measure_main_exp,2022.2.2,Win32,144.0714594,,,,,,,,,,,,,,,,,,masks/mask_005.jpg,,,,,,,,,,,,,,,,,,,,,,,,,,,,,,,,,,,,,,,,,,,,,,,,0,4,4,4,1,,,,,,,,,,,,,,,,,,,,,,,,,,,,,,,,,,,,,,,,,
714789,001,2022-11-21_01h55.25.884,Info_measure_main_exp,2022.2.2,Win32,144.0714594,,,,,,,,,,,,,,,,,,,,,,,,,,,,,,6,0.9097,1,,,,,,,,,,,,0,131,5,5,2190,2082,absent_patch/patch0002190.jpg,absent_patch/patch0002082.jpg,,,,,,,,,,,,,,,,,,,,0.14907406,0.087962963,1,0,0,response1disk,25,-0.001851824,0.006481489,1,0,0,center_square,0,24,24,112,1,,,,,,,,,,,,,,,,,,,,,,,
714789,001,2022-11-21_01h55.25.884,Info_measure_main_exp,2022.2.2,Win32,144.0714594,,,,,,,,,,,,,,,,,,masks/mask_002.jpg,,,,,,,,,,,,,,,,,,,,,,,,,,,,,,,,,,,,,,,,,,,0,0,0,1,1,,,,,,,,,,,,,,,,,,,,,,,,,,,,,,,,,,,,,,,,,,,,,,
714789,001,2022-11-21_01h55.25.884,Info_measure_main_exp,2022.2.2,Win32,144.0714594,,,,,,,,,,,,,,,,,,masks/mask_004.jpg,,,,,,,,,,,,,,,,,,,,,,,,,,,,,,,,,,,,,,,,,,,0,1,1,3,1,,,,,,,,,,,,,,,,,,,,,,,,,,,,,,,,,,,,,,,,,,,,,,
714789,001,2022-11-21_01h55.25.884,Info_measure_main_exp,2022.2.2,Win32,144.0714594,,,,,,,,,,,,,,,,,,masks/mask_005.jpg,,,,,,,,,,,,,,,,,,,,,,,,,,,,,,,,,,,,,,,,,,,0,2,2,4,1,,,,,,,,,,,,,,,,,,,,,,,,,,,,,,,,,,,,,,,,,,,,,,
714789,001,2022-11-21_01h55.25.884,Info_measure_main_exp,2022.2.2,Win32,144.0714594,,,,,,,,,,,,,,,,,,masks/mask_003.jpg,,,,,,,,,,,,,,,,,,,,,,,,,,,,,,,,,,,,,,,,,,,0,3,3,2,1,,,,,,,,,,,,,,,,,,,,,,,,,,,,,,,,,,,,,,,,,,,,,,
714789,001,2022-11-21_01h55.25.884,Info_measure_main_exp,2022.2.2,Win32,144.0714594,,,,,,,,,,,,,,,,,,masks/mask_001.jpg,,,,,,,,,,,,,,,,,,,,,,,,,,,,,,,,,,,,,,,,,,,0,4,4,0,1,,,,,,,,,,,,,,,,,,,,,,,,,,,,,,,,,,,,,,,,,,,,,,
714789,001,2022-11-21_01h55.25.884,Info_measure_main_exp,2022.2.2,Win32,144.0714594,,,,,,,,,,,,,,,,,,masks/mask_001.jpg,,,,,,,,,,,,,,,,,,,,,,,,,,,,,,,,,,,,,,,,,,,,,,,,0,0,0,0,1,,,,,,,,,,,,,,,,,,,,,,,,,,,,,,,,,,,,,,,,,
714789,001,2022-11-21_01h55.25.884,Info_measure_main_exp,2022.2.2,Win32,144.0714594,,,,,,,,,,,,,,,,,,masks/mask_002.jpg,,,,,,,,,,,,,,,,,,,,,,,,,,,,,,,,,,,,,,,,,,,,,,,,0,1,1,1,1,,,,,,,,,,,,,,,,,,,,,,,,,,,,,,,,,,,,,,,,,
714789,001,2022-11-21_01h55.25.884,Info_measure_main_exp,2022.2.2,Win32,144.0714594,,,,,,,,,,,,,,,,,,masks/mask_004.jpg,,,,,,,,,,,,,,,,,,,,,,,,,,,,,,,,,,,,,,,,,,,,,,,,0,2,2,3,1,,,,,,,,,,,,,,,,,,,,,,,,,,,,,,,,,,,,,,,,,
714789,001,2022-11-21_01h55.25.884,Info_measure_main_exp,2022.2.2,Win32,144.0714594,,,,,,,,,,,,,,,,,,masks/mask_005.jpg,,,,,,,,,,,,,,,,,,,,,,,,,,,,,,,,,,,,,,,,,,,,,,,,0,3,3,4,1,,,,,,,,,,,,,,,,,,,,,,,,,,,,,,,,,,,,,,,,,
714789,001,2022-11-21_01h55.25.884,Info_measure_main_exp,2022.2.2,Win32,144.0714594,,,,,,,,,,,,,,,,,,masks/mask_003.jpg,,,,,,,,,,,,,,,,,,,,,,,,,,,,,,,,,,,,,,,,,,,,,,,,0,4,4,2,1,,,,,,,,,,,,,,,,,,,,,,,,,,,,,,,,,,,,,,,,,
714789,001,2022-11-21_01h55.25.884,Info_measure_main_exp,2022.2.2,Win32,144.0714594,,,,,,,,,,,,,,,,,,,,,,,,,,,,,,4,0.9789,1,,,,,,,,,,,,0,131,5,5,2190,1974,absent_patch/patch0002190.jpg,absent_patch/patch0001974.jpg,,,,,,,,,,,,,,,,,,,,0.060185185,-0.162037037,1,0,0,response3disk,26,0.007407436,0.009259259,1,0,0,center_square,0,25,25,119,1,,,,,,,,,,,,,,,,,,,,,,,
714789,001,2022-11-21_01h55.25.884,Info_measure_main_exp,2022.2.2,Win32,144.0714594,,,,,,,,,,,,,,,,,,masks/mask_002.jpg,,,,,,,,,,,,,,,,,,,,,,,,,,,,,,,,,,,,,,,,,,,0,0,0,1,1,,,,,,,,,,,,,,,,,,,,,,,,,,,,,,,,,,,,,,,,,,,,,,
714789,001,2022-11-21_01h55.25.884,Info_measure_main_exp,2022.2.2,Win32,144.0714594,,,,,,,,,,,,,,,,,,masks/mask_001.jpg,,,,,,,,,,,,,,,,,,,,,,,,,,,,,,,,,,,,,,,,,,,0,1,1,0,1,,,,,,,,,,,,,,,,,,,,,,,,,,,,,,,,,,,,,,,,,,,,,,
714789,001,2022-11-21_01h55.25.884,Info_measure_main_exp,2022.2.2,Win32,144.0714594,,,,,,,,,,,,,,,,,,masks/mask_004.jpg,,,,,,,,,,,,,,,,,,,,,,,,,,,,,,,,,,,,,,,,,,,0,2,2,3,1,,,,,,,,,,,,,,,,,,,,,,,,,,,,,,,,,,,,,,,,,,,,,,
714789,001,2022-11-21_01h55.25.884,Info_measure_main_exp,2022.2.2,Win32,144.0714594,,,,,,,,,,,,,,,,,,masks/mask_003.jpg,,,,,,,,,,,,,,,,,,,,,,,,,,,,,,,,,,,,,,,,,,,0,3,3,2,1,,,,,,,,,,,,,,,,,,,,,,,,,,,,,,,,,,,,,,,,,,,,,,
714789,001,2022-11-21_01h55.25.884,Info_measure_main_exp,2022.2.2,Win32,144.0714594,,,,,,,,,,,,,,,,,,masks/mask_005.jpg,,,,,,,,,,,,,,,,,,,,,,,,,,,,,,,,,,,,,,,,,,,0,4,4,4,1,,,,,,,,,,,,,,,,,,,,,,,,,,,,,,,,,,,,,,,,,,,,,,
714789,001,2022-11-21_01h55.25.884,Info_measure_main_exp,2022.2.2,Win32,144.0714594,,,,,,,,,,,,,,,,,,masks/mask_001.jpg,,,,,,,,,,,,,,,,,,,,,,,,,,,,,,,,,,,,,,,,,,,,,,,,0,0,0,0,1,,,,,,,,,,,,,,,,,,,,,,,,,,,,,,,,,,,,,,,,,
714789,001,2022-11-21_01h55.25.884,Info_measure_main_exp,2022.2.2,Win32,144.0714594,,,,,,,,,,,,,,,,,,masks/mask_002.jpg,,,,,,,,,,,,,,,,,,,,,,,,,,,,,,,,,,,,,,,,,,,,,,,,0,1,1,1,1,,,,,,,,,,,,,,,,,,,,,,,,,,,,,,,,,,,,,,,,,
714789,001,2022-11-21_01h55.25.884,Info_measure_main_exp,2022.2.2,Win32,144.0714594,,,,,,,,,,,,,,,,,,masks/mask_003.jpg,,,,,,,,,,,,,,,,,,,,,,,,,,,,,,,,,,,,,,,,,,,,,,,,0,2,2,2,1,,,,,,,,,,,,,,,,,,,,,,,,,,,,,,,,,,,,,,,,,
714789,001,2022-11-21_01h55.25.884,Info_measure_main_exp,2022.2.2,Win32,144.0714594,,,,,,,,,,,,,,,,,,masks/mask_005.jpg,,,,,,,,,,,,,,,,,,,,,,,,,,,,,,,,,,,,,,,,,,,,,,,,0,3,3,4,1,,,,,,,,,,,,,,,,,,,,,,,,,,,,,,,,,,,,,,,,,
714789,001,2022-11-21_01h55.25.884,Info_measure_main_exp,2022.2.2,Win32,144.0714594,,,,,,,,,,,,,,,,,,masks/mask_004.jpg,,,,,,,,,,,,,,,,,,,,,,,,,,,,,,,,,,,,,,,,,,,,,,,,0,4,4,3,1,,,,,,,,,,,,,,,,,,,,,,,,,,,,,,,,,,,,,,,,,
714789,001,2022-11-21_01h55.25.884,Info_measure_main_exp,2022.2.2,Win32,144.0714594,,,,,,,,,,,,,,,,,,,,,,,,,,,,,,5,1.4375,1,,,,,,,,,,,,1,131,5,5,1,2166,present_patch/cong_131_5_a.jpg,absent_patch/patch0002166.jpg,,,,,,,,,,,,,,,,,,,,0.147222236,-0.064814815,1,0,0,response3disk,27,0,0.014814801,1,0,0,center_square,0,26,26,54,1,,,,,,,,,,,,,,,,,,,,,,,
714789,001,2022-11-21_01h55.25.884,Info_measure_main_exp,2022.2.2,Win32,144.0714594,,,,,,,,,,,,,,,,,,masks/mask_004.jpg,,,,,,,,,,,,,,,,,,,,,,,,,,,,,,,,,,,,,,,,,,,0,0,0,3,1,,,,,,,,,,,,,,,,,,,,,,,,,,,,,,,,,,,,,,,,,,,,,,
714789,001,2022-11-21_01h55.25.884,Info_measure_main_exp,2022.2.2,Win32,144.0714594,,,,,,,,,,,,,,,,,,masks/mask_003.jpg,,,,,,,,,,,,,,,,,,,,,,,,,,,,,,,,,,,,,,,,,,,0,1,1,2,1,,,,,,,,,,,,,,,,,,,,,,,,,,,,,,,,,,,,,,,,,,,,,,
714789,001,2022-11-21_01h55.25.884,Info_measure_main_exp,2022.2.2,Win32,144.0714594,,,,,,,,,,,,,,,,,,masks/mask_005.jpg,,,,,,,,,,,,,,,,,,,,,,,,,,,,,,,,,,,,,,,,,,,0,2,2,4,1,,,,,,,,,,,,,,,,,,,,,,,,,,,,,,,,,,,,,,,,,,,,,,
714789,001,2022-11-21_01h55.25.884,Info_measure_main_exp,2022.2.2,Win32,144.0714594,,,,,,,,,,,,,,,,,,masks/mask_001.jpg,,,,,,,,,,,,,,,,,,,,,,,,,,,,,,,,,,,,,,,,,,,0,3,3,0,1,,,,,,,,,,,,,,,,,,,,,,,,,,,,,,,,,,,,,,,,,,,,,,
714789,001,2022-11-21_01h55.25.884,Info_measure_main_exp,2022.2.2,Win32,144.0714594,,,,,,,,,,,,,,,,,,masks/mask_002.jpg,,,,,,,,,,,,,,,,,,,,,,,,,,,,,,,,,,,,,,,,,,,0,4,4,1,1,,,,,,,,,,,,,,,,,,,,,,,,,,,,,,,,,,,,,,,,,,,,,,
714789,001,2022-11-21_01h55.25.884,Info_measure_main_exp,2022.2.2,Win32,144.0714594,,,,,,,,,,,,,,,,,,masks/mask_005.jpg,,,,,,,,,,,,,,,,,,,,,,,,,,,,,,,,,,,,,,,,,,,,,,,,0,0,0,4,1,,,,,,,,,,,,,,,,,,,,,,,,,,,,,,,,,,,,,,,,,
714789,001,2022-11-21_01h55.25.884,Info_measure_main_exp,2022.2.2,Win32,144.0714594,,,,,,,,,,,,,,,,,,masks/mask_003.jpg,,,,,,,,,,,,,,,,,,,,,,,,,,,,,,,,,,,,,,,,,,,,,,,,0,1,1,2,1,,,,,,,,,,,,,,,,,,,,,,,,,,,,,,,,,,,,,,,,,
714789,001,2022-11-21_01h55.25.884,Info_measure_main_exp,2022.2.2,Win32,144.0714594,,,,,,,,,,,,,,,,,,masks/mask_004.jpg,,,,,,,,,,,,,,,,,,,,,,,,,,,,,,,,,,,,,,,,,,,,,,,,0,2,2,3,1,,,,,,,,,,,,,,,,,,,,,,,,,,,,,,,,,,,,,,,,,
714789,001,2022-11-21_01h55.25.884,Info_measure_main_exp,2022.2.2,Win32,144.0714594,,,,,,,,,,,,,,,,,,masks/mask_002.jpg,,,,,,,,,,,,,,,,,,,,,,,,,,,,,,,,,,,,,,,,,,,,,,,,0,3,3,1,1,,,,,,,,,,,,,,,,,,,,,,,,,,,,,,,,,,,,,,,,,
714789,001,2022-11-21_01h55.25.884,Info_measure_main_exp,2022.2.2,Win32,144.0714594,,,,,,,,,,,,,,,,,,masks/mask_001.jpg,,,,,,,,,,,,,,,,,,,,,,,,,,,,,,,,,,,,,,,,,,,,,,,,0,4,4,0,1,,,,,,,,,,,,,,,,,,,,,,,,,,,,,,,,,,,,,,,,,
714789,001,2022-11-21_01h55.25.884,Info_measure_main_exp,2022.2.2,Win32,144.0714594,,,,,,,,,,,,,,,,,,,,,,,,,,,,,,0,0.5555,1,,,,,,,,,,,,0,131,5,5,2142,2142,absent_patch/patch0002142.jpg,absent_patch/patch0002142.jpg,,,,,,,,,,,,,,,,,,,,-0.080555527,0.11296297,1,0,0,response7disk,28,-0.007407365,0.008333312,1,0,0,center_square,0,27,27,13,1,,,,,,,,,,,,,,,,,,,,,,,
714789,001,2022-11-21_01h55.25.884,Info_measure_main_exp,2022.2.2,Win32,144.0714594,,,,,,,,,,,,,,,,,,masks/mask_001.jpg,,,,,,,,,,,,,,,,,,,,,,,,,,,,,,,,,,,,,,,,,,,0,0,0,0,1,,,,,,,,,,,,,,,,,,,,,,,,,,,,,,,,,,,,,,,,,,,,,,
714789,001,2022-11-21_01h55.25.884,Info_measure_main_exp,2022.2.2,Win32,144.0714594,,,,,,,,,,,,,,,,,,masks/mask_003.jpg,,,,,,,,,,,,,,,,,,,,,,,,,,,,,,,,,,,,,,,,,,,0,1,1,2,1,,,,,,,,,,,,,,,,,,,,,,,,,,,,,,,,,,,,,,,,,,,,,,
714789,001,2022-11-21_01h55.25.884,Info_measure_main_exp,2022.2.2,Win32,144.0714594,,,,,,,,,,,,,,,,,,masks/mask_002.jpg,,,,,,,,,,,,,,,,,,,,,,,,,,,,,,,,,,,,,,,,,,,0,2,2,1,1,,,,,,,,,,,,,,,,,,,,,,,,,,,,,,,,,,,,,,,,,,,,,,
714789,001,2022-11-21_01h55.25.884,Info_measure_main_exp,2022.2.2,Win32,144.0714594,,,,,,,,,,,,,,,,,,masks/mask_004.jpg,,,,,,,,,,,,,,,,,,,,,,,,,,,,,,,,,,,,,,,,,,,0,3,3,3,1,,,,,,,,,,,,,,,,,,,,,,,,,,,,,,,,,,,,,,,,,,,,,,
714789,001,2022-11-21_01h55.25.884,Info_measure_main_exp,2022.2.2,Win32,144.0714594,,,,,,,,,,,,,,,,,,masks/mask_005.jpg,,,,,,,,,,,,,,,,,,,,,,,,,,,,,,,,,,,,,,,,,,,0,4,4,4,1,,,,,,,,,,,,,,,,,,,,,,,,,,,,,,,,,,,,,,,,,,,,,,
714789,001,2022-11-21_01h55.25.884,Info_measure_main_exp,2022.2.2,Win32,144.0714594,,,,,,,,,,,,,,,,,,masks/mask_001.jpg,,,,,,,,,,,,,,,,,,,,,,,,,,,,,,,,,,,,,,,,,,,,,,,,0,0,0,0,1,,,,,,,,,,,,,,,,,,,,,,,,,,,,,,,,,,,,,,,,,
714789,001,2022-11-21_01h55.25.884,Info_measure_main_exp,2022.2.2,Win32,144.0714594,,,,,,,,,,,,,,,,,,masks/mask_004.jpg,,,,,,,,,,,,,,,,,,,,,,,,,,,,,,,,,,,,,,,,,,,,,,,,0,1,1,3,1,,,,,,,,,,,,,,,,,,,,,,,,,,,,,,,,,,,,,,,,,
714789,001,2022-11-21_01h55.25.884,Info_measure_main_exp,2022.2.2,Win32,144.0714594,,,,,,,,,,,,,,,,,,masks/mask_002.jpg,,,,,,,,,,,,,,,,,,,,,,,,,,,,,,,,,,,,,,,,,,,,,,,,0,2,2,1,1,,,,,,,,,,,,,,,,,,,,,,,,,,,,,,,,,,,,,,,,,
714789,001,2022-11-21_01h55.25.884,Info_measure_main_exp,2022.2.2,Win32,144.0714594,,,,,,,,,,,,,,,,,,masks/mask_003.jpg,,,,,,,,,,,,,,,,,,,,,,,,,,,,,,,,,,,,,,,,,,,,,,,,0,3,3,2,1,,,,,,,,,,,,,,,,,,,,,,,,,,,,,,,,,,,,,,,,,
714789,001,2022-11-21_01h55.25.884,Info_measure_main_exp,2022.2.2,Win32,144.0714594,,,,,,,,,,,,,,,,,,masks/mask_005.jpg,,,,,,,,,,,,,,,,,,,,,,,,,,,,,,,,,,,,,,,,,,,,,,,,0,4,4,4,1,,,,,,,,,,,,,,,,,,,,,,,,,,,,,,,,,,,,,,,,,
714789,001,2022-11-21_01h55.25.884,Info_measure_main_exp,2022.2.2,Win32,144.0714594,,,,,,,,,,,,,,,,,,,,,,,,,,,,,,4,1.0486,1,,,,,,,,,,,,0,131,5,5,2274,2238,absent_patch/patch0002274.jpg,absent_patch/patch0002238.jpg,,,,,,,,,,,,,,,,,,,,0.050925926,-0.147222236,1,0,0,response3disk,29,-0.003703718,-0.00462963,1,0,0,center_square,0,28,28,91,1,,,,,,,,,,,,,,,,,,,,,,,
714789,001,2022-11-21_01h55.25.884,Info_measure_main_exp,2022.2.2,Win32,144.0714594,,,,,,,,,,,,,,,,,,masks/mask_001.jpg,,,,,,,,,,,,,,,,,,,,,,,,,,,,,,,,,,,,,,,,,,,0,0,0,0,1,,,,,,,,,,,,,,,,,,,,,,,,,,,,,,,,,,,,,,,,,,,,,,
714789,001,2022-11-21_01h55.25.884,Info_measure_main_exp,2022.2.2,Win32,144.0714594,,,,,,,,,,,,,,,,,,masks/mask_004.jpg,,,,,,,,,,,,,,,,,,,,,,,,,,,,,,,,,,,,,,,,,,,0,1,1,3,1,,,,,,,,,,,,,,,,,,,,,,,,,,,,,,,,,,,,,,,,,,,,,,
714789,001,2022-11-21_01h55.25.884,Info_measure_main_exp,2022.2.2,Win32,144.0714594,,,,,,,,,,,,,,,,,,masks/mask_003.jpg,,,,,,,,,,,,,,,,,,,,,,,,,,,,,,,,,,,,,,,,,,,0,2,2,2,1,,,,,,,,,,,,,,,,,,,,,,,,,,,,,,,,,,,,,,,,,,,,,,
714789,001,2022-11-21_01h55.25.884,Info_measure_main_exp,2022.2.2,Win32,144.0714594,,,,,,,,,,,,,,,,,,masks/mask_005.jpg,,,,,,,,,,,,,,,,,,,,,,,,,,,,,,,,,,,,,,,,,,,0,3,3,4,1,,,,,,,,,,,,,,,,,,,,,,,,,,,,,,,,,,,,,,,,,,,,,,
714789,001,2022-11-21_01h55.25.884,Info_measure_main_exp,2022.2.2,Win32,144.0714594,,,,,,,,,,,,,,,,,,masks/mask_002.jpg,,,,,,,,,,,,,,,,,,,,,,,,,,,,,,,,,,,,,,,,,,,0,4,4,1,1,,,,,,,,,,,,,,,,,,,,,,,,,,,,,,,,,,,,,,,,,,,,,,
714789,001,2022-11-21_01h55.25.884,Info_measure_main_exp,2022.2.2,Win32,144.0714594,,,,,,,,,,,,,,,,,,masks/mask_004.jpg,,,,,,,,,,,,,,,,,,,,,,,,,,,,,,,,,,,,,,,,,,,,,,,,0,0,0,3,1,,,,,,,,,,,,,,,,,,,,,,,,,,,,,,,,,,,,,,,,,
714789,001,2022-11-21_01h55.25.884,Info_measure_main_exp,2022.2.2,Win32,144.0714594,,,,,,,,,,,,,,,,,,masks/mask_002.jpg,,,,,,,,,,,,,,,,,,,,,,,,,,,,,,,,,,,,,,,,,,,,,,,,0,1,1,1,1,,,,,,,,,,,,,,,,,,,,,,,,,,,,,,,,,,,,,,,,,
714789,001,2022-11-21_01h55.25.884,Info_measure_main_exp,2022.2.2,Win32,144.0714594,,,,,,,,,,,,,,,,,,masks/mask_005.jpg,,,,,,,,,,,,,,,,,,,,,,,,,,,,,,,,,,,,,,,,,,,,,,,,0,2,2,4,1,,,,,,,,,,,,,,,,,,,,,,,,,,,,,,,,,,,,,,,,,
714789,001,2022-11-21_01h55.25.884,Info_measure_main_exp,2022.2.2,Win32,144.0714594,,,,,,,,,,,,,,,,,,masks/mask_001.jpg,,,,,,,,,,,,,,,,,,,,,,,,,,,,,,,,,,,,,,,,,,,,,,,,0,3,3,0,1,,,,,,,,,,,,,,,,,,,,,,,,,,,,,,,,,,,,,,,,,
714789,001,2022-11-21_01h55.25.884,Info_measure_main_exp,2022.2.2,Win32,144.0714594,,,,,,,,,,,,,,,,,,masks/mask_003.jpg,,,,,,,,,,,,,,,,,,,,,,,,,,,,,,,,,,,,,,,,,,,,,,,,0,4,4,2,1,,,,,,,,,,,,,,,,,,,,,,,,,,,,,,,,,,,,,,,,,
714789,001,2022-11-21_01h55.25.884,Info_measure_main_exp,2022.2.2,Win32,144.0714594,,,,,,,,,,,,,,,,,,,,,,,,,,,,,,6,0.5416,1,,,,,,,,,,,,0,131,5,5,1986,1986,absent_patch/patch0001986.jpg,absent_patch/patch0001986.jpg,,,,,,,,,,,,,,,,,,,,0.107407393,0.061111097,1,0,0,response1disk,30,-0.009259259,-0.006481489,1,0,0,center_square,0,29,29,19,1,,,,,,,,,,,,,,,,,,,,,,,
714789,001,2022-11-21_01h55.25.884,Info_measure_main_exp,2022.2.2,Win32,144.0714594,,,,,,,,,,,,,,,,,,masks/mask_005.jpg,,,,,,,,,,,,,,,,,,,,,,,,,,,,,,,,,,,,,,,,,,,0,0,0,4,1,,,,,,,,,,,,,,,,,,,,,,,,,,,,,,,,,,,,,,,,,,,,,,
714789,001,2022-11-21_01h55.25.884,Info_measure_main_exp,2022.2.2,Win32,144.0714594,,,,,,,,,,,,,,,,,,masks/mask_001.jpg,,,,,,,,,,,,,,,,,,,,,,,,,,,,,,,,,,,,,,,,,,,0,1,1,0,1,,,,,,,,,,,,,,,,,,,,,,,,,,,,,,,,,,,,,,,,,,,,,,
714789,001,2022-11-21_01h55.25.884,Info_measure_main_exp,2022.2.2,Win32,144.0714594,,,,,,,,,,,,,,,,,,masks/mask_002.jpg,,,,,,,,,,,,,,,,,,,,,,,,,,,,,,,,,,,,,,,,,,,0,2,2,1,1,,,,,,,,,,,,,,,,,,,,,,,,,,,,,,,,,,,,,,,,,,,,,,
714789,001,2022-11-21_01h55.25.884,Info_measure_main_exp,2022.2.2,Win32,144.0714594,,,,,,,,,,,,,,,,,,masks/mask_004.jpg,,,,,,,,,,,,,,,,,,,,,,,,,,,,,,,,,,,,,,,,,,,0,3,3,3,1,,,,,,,,,,,,,,,,,,,,,,,,,,,,,,,,,,,,,,,,,,,,,,
714789,001,2022-11-21_01h55.25.884,Info_measure_main_exp,2022.2.2,Win32,144.0714594,,,,,,,,,,,,,,,,,,masks/mask_003.jpg,,,,,,,,,,,,,,,,,,,,,,,,,,,,,,,,,,,,,,,,,,,0,4,4,2,1,,,,,,,,,,,,,,,,,,,,,,,,,,,,,,,,,,,,,,,,,,,,,,
714789,001,2022-11-21_01h55.25.884,Info_measure_main_exp,2022.2.2,Win32,144.0714594,,,,,,,,,,,,,,,,,,masks/mask_005.jpg,,,,,,,,,,,,,,,,,,,,,,,,,,,,,,,,,,,,,,,,,,,,,,,,0,0,0,4,1,,,,,,,,,,,,,,,,,,,,,,,,,,,,,,,,,,,,,,,,,
714789,001,2022-11-21_01h55.25.884,Info_measure_main_exp,2022.2.2,Win32,144.0714594,,,,,,,,,,,,,,,,,,masks/mask_002.jpg,,,,,,,,,,,,,,,,,,,,,,,,,,,,,,,,,,,,,,,,,,,,,,,,0,1,1,1,1,,,,,,,,,,,,,,,,,,,,,,,,,,,,,,,,,,,,,,,,,
714789,001,2022-11-21_01h55.25.884,Info_measure_main_exp,2022.2.2,Win32,144.0714594,,,,,,,,,,,,,,,,,,masks/mask_004.jpg,,,,,,,,,,,,,,,,,,,,,,,,,,,,,,,,,,,,,,,,,,,,,,,,0,2,2,3,1,,,,,,,,,,,,,,,,,,,,,,,,,,,,,,,,,,,,,,,,,
714789,001,2022-11-21_01h55.25.884,Info_measure_main_exp,2022.2.2,Win32,144.0714594,,,,,,,,,,,,,,,,,,masks/mask_001.jpg,,,,,,,,,,,,,,,,,,,,,,,,,,,,,,,,,,,,,,,,,,,,,,,,0,3,3,0,1,,,,,,,,,,,,,,,,,,,,,,,,,,,,,,,,,,,,,,,,,
714789,001,2022-11-21_01h55.25.884,Info_measure_main_exp,2022.2.2,Win32,144.0714594,,,,,,,,,,,,,,,,,,masks/mask_003.jpg,,,,,,,,,,,,,,,,,,,,,,,,,,,,,,,,,,,,,,,,,,,,,,,,0,4,4,2,1,,,,,,,,,,,,,,,,,,,,,,,,,,,,,,,,,,,,,,,,,
714789,001,2022-11-21_01h55.25.884,Info_measure_main_exp,2022.2.2,Win32,144.0714594,,,,,,,,,,,,,,,,,,,,,,,,,,,,,,5,0.3105,1,,,,,,,,,,,,0,131,5,5,2178,2166,absent_patch/patch0002178.jpg,absent_patch/patch0002166.jpg,,,,,,,,,,,,,,,,,,,,0.087037051,-0.080555563,1,0,0,response3disk,31,0.011111153,-0.008333347,1,0,0,center_square,0,30,30,72,1,,,,,,,,,,,,,,,,,,,,,,,
714789,001,2022-11-21_01h55.25.884,Info_measure_main_exp,2022.2.2,Win32,144.0714594,,,,,,,,,,,,,,,,,,masks/mask_002.jpg,,,,,,,,,,,,,,,,,,,,,,,,,,,,,,,,,,,,,,,,,,,0,0,0,1,1,,,,,,,,,,,,,,,,,,,,,,,,,,,,,,,,,,,,,,,,,,,,,,
714789,001,2022-11-21_01h55.25.884,Info_measure_main_exp,2022.2.2,Win32,144.0714594,,,,,,,,,,,,,,,,,,masks/mask_003.jpg,,,,,,,,,,,,,,,,,,,,,,,,,,,,,,,,,,,,,,,,,,,0,1,1,2,1,,,,,,,,,,,,,,,,,,,,,,,,,,,,,,,,,,,,,,,,,,,,,,
714789,001,2022-11-21_01h55.25.884,Info_measure_main_exp,2022.2.2,Win32,144.0714594,,,,,,,,,,,,,,,,,,masks/mask_001.jpg,,,,,,,,,,,,,,,,,,,,,,,,,,,,,,,,,,,,,,,,,,,0,2,2,0,1,,,,,,,,,,,,,,,,,,,,,,,,,,,,,,,,,,,,,,,,,,,,,,
714789,001,2022-11-21_01h55.25.884,Info_measure_main_exp,2022.2.2,Win32,144.0714594,,,,,,,,,,,,,,,,,,masks/mask_005.jpg,,,,,,,,,,,,,,,,,,,,,,,,,,,,,,,,,,,,,,,,,,,0,3,3,4,1,,,,,,,,,,,,,,,,,,,,,,,,,,,,,,,,,,,,,,,,,,,,,,
714789,001,2022-11-21_01h55.25.884,Info_measure_main_exp,2022.2.2,Win32,144.0714594,,,,,,,,,,,,,,,,,,masks/mask_004.jpg,,,,,,,,,,,,,,,,,,,,,,,,,,,,,,,,,,,,,,,,,,,0,4,4,3,1,,,,,,,,,,,,,,,,,,,,,,,,,,,,,,,,,,,,,,,,,,,,,,
714789,001,2022-11-21_01h55.25.884,Info_measure_main_exp,2022.2.2,Win32,144.0714594,,,,,,,,,,,,,,,,,,masks/mask_001.jpg,,,,,,,,,,,,,,,,,,,,,,,,,,,,,,,,,,,,,,,,,,,,,,,,0,0,0,0,1,,,,,,,,,,,,,,,,,,,,,,,,,,,,,,,,,,,,,,,,,
714789,001,2022-11-21_01h55.25.884,Info_measure_main_exp,2022.2.2,Win32,144.0714594,,,,,,,,,,,,,,,,,,masks/mask_003.jpg,,,,,,,,,,,,,,,,,,,,,,,,,,,,,,,,,,,,,,,,,,,,,,,,0,1,1,2,1,,,,,,,,,,,,,,,,,,,,,,,,,,,,,,,,,,,,,,,,,
714789,001,2022-11-21_01h55.25.884,Info_measure_main_exp,2022.2.2,Win32,144.0714594,,,,,,,,,,,,,,,,,,masks/mask_002.jpg,,,,,,,,,,,,,,,,,,,,,,,,,,,,,,,,,,,,,,,,,,,,,,,,0,2,2,1,1,,,,,,,,,,,,,,,,,,,,,,,,,,,,,,,,,,,,,,,,,
714789,001,2022-11-21_01h55.25.884,Info_measure_main_exp,2022.2.2,Win32,144.0714594,,,,,,,,,,,,,,,,,,masks/mask_005.jpg,,,,,,,,,,,,,,,,,,,,,,,,,,,,,,,,,,,,,,,,,,,,,,,,0,3,3,4,1,,,,,,,,,,,,,,,,,,,,,,,,,,,,,,,,,,,,,,,,,
714789,001,2022-11-21_01h55.25.884,Info_measure_main_exp,2022.2.2,Win32,144.0714594,,,,,,,,,,,,,,,,,,masks/mask_004.jpg,,,,,,,,,,,,,,,,,,,,,,,,,,,,,,,,,,,,,,,,,,,,,,,,0,4,4,3,1,,,,,,,,,,,,,,,,,,,,,,,,,,,,,,,,,,,,,,,,,
714789,001,2022-11-21_01h55.25.884,Info_measure_main_exp,2022.2.2,Win32,144.0714594,,,,,,,,,,,,,,,,,,,,,,,,,,,,,,6,0.7845,1,,,,,,,,,,,,0,131,5,5,2154,2298,absent_patch/patch0002154.jpg,absent_patch/patch0002298.jpg,,,,,,,,,,,,,,,,,,,,0.126851894,0.057407414,1,0,0,response1disk,32,-0.001851824,-0.003703718,1,0,0,center_square,0,31,31,27,1,,,,,,,,,,,,,,,,,,,,,,,
714789,001,2022-11-21_01h55.25.884,Info_measure_main_exp,2022.2.2,Win32,144.0714594,,,,,,,,,,,,,,,,,,masks/mask_003.jpg,,,,,,,,,,,,,,,,,,,,,,,,,,,,,,,,,,,,,,,,,,,0,0,0,2,1,,,,,,,,,,,,,,,,,,,,,,,,,,,,,,,,,,,,,,,,,,,,,,
714789,001,2022-11-21_01h55.25.884,Info_measure_main_exp,2022.2.2,Win32,144.0714594,,,,,,,,,,,,,,,,,,masks/mask_001.jpg,,,,,,,,,,,,,,,,,,,,,,,,,,,,,,,,,,,,,,,,,,,0,1,1,0,1,,,,,,,,,,,,,,,,,,,,,,,,,,,,,,,,,,,,,,,,,,,,,,
714789,001,2022-11-21_01h55.25.884,Info_measure_main_exp,2022.2.2,Win32,144.0714594,,,,,,,,,,,,,,,,,,masks/mask_002.jpg,,,,,,,,,,,,,,,,,,,,,,,,,,,,,,,,,,,,,,,,,,,0,2,2,1,1,,,,,,,,,,,,,,,,,,,,,,,,,,,,,,,,,,,,,,,,,,,,,,
714789,001,2022-11-21_01h55.25.884,Info_measure_main_exp,2022.2.2,Win32,144.0714594,,,,,,,,,,,,,,,,,,masks/mask_005.jpg,,,,,,,,,,,,,,,,,,,,,,,,,,,,,,,,,,,,,,,,,,,0,3,3,4,1,,,,,,,,,,,,,,,,,,,,,,,,,,,,,,,,,,,,,,,,,,,,,,
714789,001,2022-11-21_01h55.25.884,Info_measure_main_exp,2022.2.2,Win32,144.0714594,,,,,,,,,,,,,,,,,,masks/mask_004.jpg,,,,,,,,,,,,,,,,,,,,,,,,,,,,,,,,,,,,,,,,,,,0,4,4,3,1,,,,,,,,,,,,,,,,,,,,,,,,,,,,,,,,,,,,,,,,,,,,,,
714789,001,2022-11-21_01h55.25.884,Info_measure_main_exp,2022.2.2,Win32,144.0714594,,,,,,,,,,,,,,,,,,masks/mask_005.jpg,,,,,,,,,,,,,,,,,,,,,,,,,,,,,,,,,,,,,,,,,,,,,,,,0,0,0,4,1,,,,,,,,,,,,,,,,,,,,,,,,,,,,,,,,,,,,,,,,,
714789,001,2022-11-21_01h55.25.884,Info_measure_main_exp,2022.2.2,Win32,144.0714594,,,,,,,,,,,,,,,,,,masks/mask_001.jpg,,,,,,,,,,,,,,,,,,,,,,,,,,,,,,,,,,,,,,,,,,,,,,,,0,1,1,0,1,,,,,,,,,,,,,,,,,,,,,,,,,,,,,,,,,,,,,,,,,
714789,001,2022-11-21_01h55.25.884,Info_measure_main_exp,2022.2.2,Win32,144.0714594,,,,,,,,,,,,,,,,,,masks/mask_002.jpg,,,,,,,,,,,,,,,,,,,,,,,,,,,,,,,,,,,,,,,,,,,,,,,,0,2,2,1,1,,,,,,,,,,,,,,,,,,,,,,,,,,,,,,,,,,,,,,,,,
714789,001,2022-11-21_01h55.25.884,Info_measure_main_exp,2022.2.2,Win32,144.0714594,,,,,,,,,,,,,,,,,,masks/mask_004.jpg,,,,,,,,,,,,,,,,,,,,,,,,,,,,,,,,,,,,,,,,,,,,,,,,0,3,3,3,1,,,,,,,,,,,,,,,,,,,,,,,,,,,,,,,,,,,,,,,,,
714789,001,2022-11-21_01h55.25.884,Info_measure_main_exp,2022.2.2,Win32,144.0714594,,,,,,,,,,,,,,,,,,masks/mask_003.jpg,,,,,,,,,,,,,,,,,,,,,,,,,,,,,,,,,,,,,,,,,,,,,,,,0,4,4,2,1,,,,,,,,,,,,,,,,,,,,,,,,,,,,,,,,,,,,,,,,,
714789,001,2022-11-21_01h55.25.884,Info_measure_main_exp,2022.2.2,Win32,144.0714594,,,,,,,,,,,,,,,,,,,,,,,,,,,,,,4,0.4839,1,,,,,,,,,,,,0,131,5,5,1974,2238,absent_patch/patch0001974.jpg,absent_patch/patch0002238.jpg,,,,,,,,,,,,,,,,,,,,0.074074074,-0.109259288,1,0,0,response3disk,33,0.002777806,-0.015740748,1,0,0,center_square,0,32,32,95,1,,,,,,,,,,,,,,,,,,,,,,,
714789,001,2022-11-21_01h55.25.884,Info_measure_main_exp,2022.2.2,Win32,144.0714594,,,,,,,,,,,,,,,,,,masks/mask_004.jpg,,,,,,,,,,,,,,,,,,,,,,,,,,,,,,,,,,,,,,,,,,,0,0,0,3,1,,,,,,,,,,,,,,,,,,,,,,,,,,,,,,,,,,,,,,,,,,,,,,
714789,001,2022-11-21_01h55.25.884,Info_measure_main_exp,2022.2.2,Win32,144.0714594,,,,,,,,,,,,,,,,,,masks/mask_002.jpg,,,,,,,,,,,,,,,,,,,,,,,,,,,,,,,,,,,,,,,,,,,0,1,1,1,1,,,,,,,,,,,,,,,,,,,,,,,,,,,,,,,,,,,,,,,,,,,,,,
714789,001,2022-11-21_01h55.25.884,Info_measure_main_exp,2022.2.2,Win32,144.0714594,,,,,,,,,,,,,,,,,,masks/mask_005.jpg,,,,,,,,,,,,,,,,,,,,,,,,,,,,,,,,,,,,,,,,,,,0,2,2,4,1,,,,,,,,,,,,,,,,,,,,,,,,,,,,,,,,,,,,,,,,,,,,,,
714789,001,2022-11-21_01h55.25.884,Info_measure_main_exp,2022.2.2,Win32,144.0714594,,,,,,,,,,,,,,,,,,masks/mask_003.jpg,,,,,,,,,,,,,,,,,,,,,,,,,,,,,,,,,,,,,,,,,,,0,3,3,2,1,,,,,,,,,,,,,,,,,,,,,,,,,,,,,,,,,,,,,,,,,,,,,,
714789,001,2022-11-21_01h55.25.884,Info_measure_main_exp,2022.2.2,Win32,144.0714594,,,,,,,,,,,,,,,,,,masks/mask_001.jpg,,,,,,,,,,,,,,,,,,,,,,,,,,,,,,,,,,,,,,,,,,,0,4,4,0,1,,,,,,,,,,,,,,,,,,,,,,,,,,,,,,,,,,,,,,,,,,,,,,
714789,001,2022-11-21_01h55.25.884,Info_measure_main_exp,2022.2.2,Win32,144.0714594,,,,,,,,,,,,,,,,,,masks/mask_002.jpg,,,,,,,,,,,,,,,,,,,,,,,,,,,,,,,,,,,,,,,,,,,,,,,,0,0,0,1,1,,,,,,,,,,,,,,,,,,,,,,,,,,,,,,,,,,,,,,,,,
714789,001,2022-11-21_01h55.25.884,Info_measure_main_exp,2022.2.2,Win32,144.0714594,,,,,,,,,,,,,,,,,,masks/mask_004.jpg,,,,,,,,,,,,,,,,,,,,,,,,,,,,,,,,,,,,,,,,,,,,,,,,0,1,1,3,1,,,,,,,,,,,,,,,,,,,,,,,,,,,,,,,,,,,,,,,,,
714789,001,2022-11-21_01h55.25.884,Info_measure_main_exp,2022.2.2,Win32,144.0714594,,,,,,,,,,,,,,,,,,masks/mask_003.jpg,,,,,,,,,,,,,,,,,,,,,,,,,,,,,,,,,,,,,,,,,,,,,,,,0,2,2,2,1,,,,,,,,,,,,,,,,,,,,,,,,,,,,,,,,,,,,,,,,,
714789,001,2022-11-21_01h55.25.884,Info_measure_main_exp,2022.2.2,Win32,144.0714594,,,,,,,,,,,,,,,,,,masks/mask_005.jpg,,,,,,,,,,,,,,,,,,,,,,,,,,,,,,,,,,,,,,,,,,,,,,,,0,3,3,4,1,,,,,,,,,,,,,,,,,,,,,,,,,,,,,,,,,,,,,,,,,
714789,001,2022-11-21_01h55.25.884,Info_measure_main_exp,2022.2.2,Win32,144.0714594,,,,,,,,,,,,,,,,,,masks/mask_001.jpg,,,,,,,,,,,,,,,,,,,,,,,,,,,,,,,,,,,,,,,,,,,,,,,,0,4,4,0,1,,,,,,,,,,,,,,,,,,,,,,,,,,,,,,,,,,,,,,,,,
714789,001,2022-11-21_01h55.25.884,Info_measure_main_exp,2022.2.2,Win32,144.0714594,,,,,,,,,,,,,,,,,,,,,,,,,,,,,,6,0.6109,1,,,,,,,,,,,,0,131,5,5,2142,2082,absent_patch/patch0002142.jpg,absent_patch/patch0002082.jpg,,,,,,,,,,,,,,,,,,,,0.141666695,0.025000007,1,0,0,response1disk,34,0,-0.006481489,1,0,0,center_square,0,33,33,88,1,,,,,,,,,,,,,,,,,,,,,,,
714789,001,2022-11-21_01h55.25.884,Info_measure_main_exp,2022.2.2,Win32,144.0714594,,,,,,,,,,,,,,,,,,masks/mask_005.jpg,,,,,,,,,,,,,,,,,,,,,,,,,,,,,,,,,,,,,,,,,,,0,0,0,4,1,,,,,,,,,,,,,,,,,,,,,,,,,,,,,,,,,,,,,,,,,,,,,,
714789,001,2022-11-21_01h55.25.884,Info_measure_main_exp,2022.2.2,Win32,144.0714594,,,,,,,,,,,,,,,,,,masks/mask_002.jpg,,,,,,,,,,,,,,,,,,,,,,,,,,,,,,,,,,,,,,,,,,,0,1,1,1,1,,,,,,,,,,,,,,,,,,,,,,,,,,,,,,,,,,,,,,,,,,,,,,
714789,001,2022-11-21_01h55.25.884,Info_measure_main_exp,2022.2.2,Win32,144.0714594,,,,,,,,,,,,,,,,,,masks/mask_003.jpg,,,,,,,,,,,,,,,,,,,,,,,,,,,,,,,,,,,,,,,,,,,0,2,2,2,1,,,,,,,,,,,,,,,,,,,,,,,,,,,,,,,,,,,,,,,,,,,,,,
714789,001,2022-11-21_01h55.25.884,Info_measure_main_exp,2022.2.2,Win32,144.0714594,,,,,,,,,,,,,,,,,,masks/mask_001.jpg,,,,,,,,,,,,,,,,,,,,,,,,,,,,,,,,,,,,,,,,,,,0,3,3,0,1,,,,,,,,,,,,,,,,,,,,,,,,,,,,,,,,,,,,,,,,,,,,,,
714789,001,2022-11-21_01h55.25.884,Info_measure_main_exp,2022.2.2,Win32,144.0714594,,,,,,,,,,,,,,,,,,masks/mask_004.jpg,,,,,,,,,,,,,,,,,,,,,,,,,,,,,,,,,,,,,,,,,,,0,4,4,3,1,,,,,,,,,,,,,,,,,,,,,,,,,,,,,,,,,,,,,,,,,,,,,,
714789,001,2022-11-21_01h55.25.884,Info_measure_main_exp,2022.2.2,Win32,144.0714594,,,,,,,,,,,,,,,,,,masks/mask_002.jpg,,,,,,,,,,,,,,,,,,,,,,,,,,,,,,,,,,,,,,,,,,,,,,,,0,0,0,1,1,,,,,,,,,,,,,,,,,,,,,,,,,,,,,,,,,,,,,,,,,
714789,001,2022-11-21_01h55.25.884,Info_measure_main_exp,2022.2.2,Win32,144.0714594,,,,,,,,,,,,,,,,,,masks/mask_005.jpg,,,,,,,,,,,,,,,,,,,,,,,,,,,,,,,,,,,,,,,,,,,,,,,,0,1,1,4,1,,,,,,,,,,,,,,,,,,,,,,,,,,,,,,,,,,,,,,,,,
714789,001,2022-11-21_01h55.25.884,Info_measure_main_exp,2022.2.2,Win32,144.0714594,,,,,,,,,,,,,,,,,,masks/mask_003.jpg,,,,,,,,,,,,,,,,,,,,,,,,,,,,,,,,,,,,,,,,,,,,,,,,0,2,2,2,1,,,,,,,,,,,,,,,,,,,,,,,,,,,,,,,,,,,,,,,,,
714789,001,2022-11-21_01h55.25.884,Info_measure_main_exp,2022.2.2,Win32,144.0714594,,,,,,,,,,,,,,,,,,masks/mask_001.jpg,,,,,,,,,,,,,,,,,,,,,,,,,,,,,,,,,,,,,,,,,,,,,,,,0,3,3,0,1,,,,,,,,,,,,,,,,,,,,,,,,,,,,,,,,,,,,,,,,,
