participant,session,date,expName,psychopyVersion,OS,frameRate,space_press_continue.keys,space_press_continue.rt,space_press_continue_2.keys,space_press_continue_2.rt,space_press_continue_3.keys,space_press_continue_3.rt,space_press_continue_4.keys,space_press_continue_4.rt,space_press_continue_5.keys,space_press_continue_5.rt,space_press_continue_6.keys,space_press_continue_6.rt,prac_mask_loop_1.thisRepN,prac_mask_loop_1.thisTrialN,prac_mask_loop_1.thisN,prac_mask_loop_1.thisIndex,prac_mask_loop_1.ran,mask_name,prac_mask_loop_2.thisRepN,prac_mask_loop_2.thisTrialN,prac_mask_loop_2.thisN,prac_mask_loop_2.thisIndex,prac_mask_loop_2.ran,mouse_2.x,mouse_2.y,mouse_2.leftButton,mouse_2.midButton,mouse_2.rightButton,mouse_2.clicked_name,similarity,response_time,Pass,mouse_12.x,mouse_12.y,mouse_12.leftButton,mouse_12.midButton,mouse_12.rightButton,mouse_12.clicked_name,prac_loop.thisRepN,prac_loop.thisTrialN,prac_loop.thisN,prac_loop.thisIndex,prac_loop.ran,Pair_type,Image_num,Patch_1_loc,Patch_2_loc,Patch_1_info,Patch_2_info,Patch_1_name,Patch_2_name,mouse_1.x,mouse_1.y,mouse_1.leftButton,mouse_1.midButton,mouse_1.rightButton,mouse_1.time,mouse_1.clicked_name,space_press_continue_7.keys,space_press_continue_7.rt,mask_loop.thisRepN,mask_loop.thisTrialN,mask_loop.thisN,mask_loop.thisIndex,mask_loop.ran,mask_loop_2.thisRepN,mask_loop_2.thisTrialN,mask_loop_2.thisN,mask_loop_2.thisIndex,mask_loop_2.ran,mouse.x,mouse.y,mouse.leftButton,mouse.midButton,mouse.rightButton,mouse.clicked_name,trialNumber,mouse_11.x,mouse_11.y,mouse_11.leftButton,mouse_11.midButton,mouse_11.rightButton,mouse_11.clicked_name,first_pass_loop.thisRepN,first_pass_loop.thisTrialN,first_pass_loop.thisN,first_pass_loop.thisIndex,first_pass_loop.ran,mask_loop_3.thisRepN,mask_loop_3.thisTrialN,mask_loop_3.thisN,mask_loop_3.thisIndex,mask_loop_3.ran,mask_loop_4.thisRepN,mask_loop_4.thisTrialN,mask_loop_4.thisN,mask_loop_4.thisIndex,mask_loop_4.ran,mouse_3.x,mouse_3.y,mouse_3.leftButton,mouse_3.midButton,mouse_3.rightButton,mouse_3.clicked_name,double_pass_loop.thisRepN,double_pass_loop.thisTrialN,double_pass_loop.thisN,double_pass_loop.thisIndex,double_pass_loop.ran,space_exit.keys,space_exit.rt
722523,001,2022-11-20_23h47.40.398,Info_measure_main_exp,2022.2.2,Win32,28.83589492,,,,,,,,,,,,,,,,,,,,,,,,,,,,,,,,,,,,,,,,,,,,,,,,,,,,,,,,,,,,,,,,,,,,,,,,,,,,,,,,,,,,,,,,,,,,,,,,,,,,,,,,,,,,,,,
722523,001,2022-11-20_23h47.40.398,Info_measure_main_exp,2022.2.2,Win32,28.83589492,,,,,,,,,,,,,,,,,,,,,,,,,,,,,,,,,,,,,,,,,,,,,,,,,,,,,,,,,,,,,,,,,,,,,,,,,,,,,,,,,,,,,,,,,,,,,,,,,,,,,,,,,,,,,,,
722523,001,2022-11-20_23h47.40.398,Info_measure_main_exp,2022.2.2,Win32,28.83589492,space,6.6043,,,,,,,,,,,,,,,,,,,,,,,,,,,,,,,,,,,,,,,,,,,,,,,,,,,,,,,,,,,,,,,,,,,,,,,,,,,,,,,,,,,,,,,,,,,,,,,,,,,,,,,,,,,,,
722523,001,2022-11-20_23h47.40.398,Info_measure_main_exp,2022.2.2,Win32,28.83589492,,,space,8.2533,,,,,,,,,,,,,,,,,,,,,,,,,,,,,,,,,,,,,,,,,,,,,,,,,,,,,,,,,,,,,,,,,,,,,,,,,,,,,,,,,,,,,,,,,,,,,,,,,,,,,,,,,,,
722523,001,2022-11-20_23h47.40.398,Info_measure_main_exp,2022.2.2,Win32,28.83589492,,,,,space,4.5926,,,,,,,,,,,,,,,,,,,,,,,,,,,,,,,,,,,,,,,,,,,,,,,,,,,,,,,,,,,,,,,,,,,,,,,,,,,,,,,,,,,,,,,,,,,,,,,,,,,,,,,,,
722523,001,2022-11-20_23h47.40.398,Info_measure_main_exp,2022.2.2,Win32,28.83589492,,,,,,,space,9.5221,,,,,,,,,,,,,,,,,,,,,,,,,,,,,,,,,,,,,,,,,,,,,,,,,,,,,,,,,,,,,,,,,,,,,,,,,,,,,,,,,,,,,,,,,,,,,,,,,,,,,,,
722523,001,2022-11-20_23h47.40.398,Info_measure_main_exp,2022.2.2,Win32,28.83589492,,,,,,,,,space,5.628,,,,,,,,,,,,,,,,,,,,,,,,,,,,,,,,,,,,,,,,,,,,,,,,,,,,,,,,,,,,,,,,,,,,,,,,,,,,,,,,,,,,,,,,,,,,,,,,,,,,,
722523,001,2022-11-20_23h47.40.398,Info_measure_main_exp,2022.2.2,Win32,28.83589492,,,,,,,,,,,space,3.2964,,,,,,,,,,,,,,,,,,,,,,,,,,,,,,,,,,,,,,,,,,,,,,,,,,,,,,,,,,,,,,,,,,,,,,,,,,,,,,,,,,,,,,,,,,,,,,,,,,,
722523,001,2022-11-20_23h47.40.398,Info_measure_main_exp,2022.2.2,Win32,28.83589492,,,,,,,,,,,,,0,0,0,2,1,masks/mask_003.jpg,,,,,,,,,,,,,,,,,,,,,,,,,,,,,,,,,,,,,,,,,,,,,,,,,,,,,,,,,,,,,,,,,,,,,,,,,,,,,,,,,,,,,,,,,,,,,
722523,001,2022-11-20_23h47.40.398,Info_measure_main_exp,2022.2.2,Win32,28.83589492,,,,,,,,,,,,,0,1,1,4,1,masks/mask_005.jpg,,,,,,,,,,,,,,,,,,,,,,,,,,,,,,,,,,,,,,,,,,,,,,,,,,,,,,,,,,,,,,,,,,,,,,,,,,,,,,,,,,,,,,,,,,,,,
722523,001,2022-11-20_23h47.40.398,Info_measure_main_exp,2022.2.2,Win32,28.83589492,,,,,,,,,,,,,0,2,2,0,1,masks/mask_001.jpg,,,,,,,,,,,,,,,,,,,,,,,,,,,,,,,,,,,,,,,,,,,,,,,,,,,,,,,,,,,,,,,,,,,,,,,,,,,,,,,,,,,,,,,,,,,,,
722523,001,2022-11-20_23h47.40.398,Info_measure_main_exp,2022.2.2,Win32,28.83589492,,,,,,,,,,,,,0,3,3,1,1,masks/mask_002.jpg,,,,,,,,,,,,,,,,,,,,,,,,,,,,,,,,,,,,,,,,,,,,,,,,,,,,,,,,,,,,,,,,,,,,,,,,,,,,,,,,,,,,,,,,,,,,,
722523,001,2022-11-20_23h47.40.398,Info_measure_main_exp,2022.2.2,Win32,28.83589492,,,,,,,,,,,,,0,4,4,3,1,masks/mask_004.jpg,,,,,,,,,,,,,,,,,,,,,,,,,,,,,,,,,,,,,,,,,,,,,,,,,,,,,,,,,,,,,,,,,,,,,,,,,,,,,,,,,,,,,,,,,,,,,
722523,001,2022-11-20_23h47.40.398,Info_measure_main_exp,2022.2.2,Win32,28.83589492,,,,,,,,,,,,,,,,,,masks/mask_005.jpg,0,0,0,4,1,,,,,,,,,,,,,,,,,,,,,,,,,,,,,,,,,,,,,,,,,,,,,,,,,,,,,,,,,,,,,,,,,,,,,,,,,,,,,,,,,,,,,,,,
722523,001,2022-11-20_23h47.40.398,Info_measure_main_exp,2022.2.2,Win32,28.83589492,,,,,,,,,,,,,,,,,,masks/mask_004.jpg,0,1,1,3,1,,,,,,,,,,,,,,,,,,,,,,,,,,,,,,,,,,,,,,,,,,,,,,,,,,,,,,,,,,,,,,,,,,,,,,,,,,,,,,,,,,,,,,,,
722523,001,2022-11-20_23h47.40.398,Info_measure_main_exp,2022.2.2,Win32,28.83589492,,,,,,,,,,,,,,,,,,masks/mask_002.jpg,0,2,2,1,1,,,,,,,,,,,,,,,,,,,,,,,,,,,,,,,,,,,,,,,,,,,,,,,,,,,,,,,,,,,,,,,,,,,,,,,,,,,,,,,,,,,,,,,,
722523,001,2022-11-20_23h47.40.398,Info_measure_main_exp,2022.2.2,Win32,28.83589492,,,,,,,,,,,,,,,,,,masks/mask_001.jpg,0,3,3,0,1,,,,,,,,,,,,,,,,,,,,,,,,,,,,,,,,,,,,,,,,,,,,,,,,,,,,,,,,,,,,,,,,,,,,,,,,,,,,,,,,,,,,,,,,
722523,001,2022-11-20_23h47.40.398,Info_measure_main_exp,2022.2.2,Win32,28.83589492,,,,,,,,,,,,,,,,,,masks/mask_003.jpg,0,4,4,2,1,,,,,,,,,,,,,,,,,,,,,,,,,,,,,,,,,,,,,,,,,,,,,,,,,,,,,,,,,,,,,,,,,,,,,,,,,,,,,,,,,,,,,,,,
722523,001,2022-11-20_23h47.40.398,Info_measure_main_exp,2022.2.2,Win32,28.83589492,,,,,,,,,,,,,,,,,,,,,,,,0.121296282,-0.044444437,1,0,0,response3disk,5,44.197,1,0.003703718,-0.000925947,1,0,0,center_square,0,0,0,1,1,0,131,5,5,2514,2490,prac_patch/patch0002514.jpg,prac_patch/patch0002490.jpg,,,,,,,,,,,,,,,,,,,,,,,,,,,,,,,,,,,,,,,,,,,,,,,,,,,,,,,,,,,,
722523,001,2022-11-20_23h47.40.398,Info_measure_main_exp,2022.2.2,Win32,28.83589492,,,,,,,,,,,,,0,0,0,0,1,masks/mask_001.jpg,,,,,,,,,,,,,,,,,,,,,,,,,,,,,,,,,,,,,,,,,,,,,,,,,,,,,,,,,,,,,,,,,,,,,,,,,,,,,,,,,,,,,,,,,,,,,
722523,001,2022-11-20_23h47.40.398,Info_measure_main_exp,2022.2.2,Win32,28.83589492,,,,,,,,,,,,,0,1,1,4,1,masks/mask_005.jpg,,,,,,,,,,,,,,,,,,,,,,,,,,,,,,,,,,,,,,,,,,,,,,,,,,,,,,,,,,,,,,,,,,,,,,,,,,,,,,,,,,,,,,,,,,,,,
722523,001,2022-11-20_23h47.40.398,Info_measure_main_exp,2022.2.2,Win32,28.83589492,,,,,,,,,,,,,0,2,2,2,1,masks/mask_003.jpg,,,,,,,,,,,,,,,,,,,,,,,,,,,,,,,,,,,,,,,,,,,,,,,,,,,,,,,,,,,,,,,,,,,,,,,,,,,,,,,,,,,,,,,,,,,,,
722523,001,2022-11-20_23h47.40.398,Info_measure_main_exp,2022.2.2,Win32,28.83589492,,,,,,,,,,,,,0,3,3,1,1,masks/mask_002.jpg,,,,,,,,,,,,,,,,,,,,,,,,,,,,,,,,,,,,,,,,,,,,,,,,,,,,,,,,,,,,,,,,,,,,,,,,,,,,,,,,,,,,,,,,,,,,,
722523,001,2022-11-20_23h47.40.398,Info_measure_main_exp,2022.2.2,Win32,28.83589492,,,,,,,,,,,,,0,4,4,3,1,masks/mask_004.jpg,,,,,,,,,,,,,,,,,,,,,,,,,,,,,,,,,,,,,,,,,,,,,,,,,,,,,,,,,,,,,,,,,,,,,,,,,,,,,,,,,,,,,,,,,,,,,
722523,001,2022-11-20_23h47.40.398,Info_measure_main_exp,2022.2.2,Win32,28.83589492,,,,,,,,,,,,,,,,,,masks/mask_003.jpg,0,0,0,2,1,,,,,,,,,,,,,,,,,,,,,,,,,,,,,,,,,,,,,,,,,,,,,,,,,,,,,,,,,,,,,,,,,,,,,,,,,,,,,,,,,,,,,,,,
722523,001,2022-11-20_23h47.40.398,Info_measure_main_exp,2022.2.2,Win32,28.83589492,,,,,,,,,,,,,,,,,,masks/mask_001.jpg,0,1,1,0,1,,,,,,,,,,,,,,,,,,,,,,,,,,,,,,,,,,,,,,,,,,,,,,,,,,,,,,,,,,,,,,,,,,,,,,,,,,,,,,,,,,,,,,,,
722523,001,2022-11-20_23h47.40.398,Info_measure_main_exp,2022.2.2,Win32,28.83589492,,,,,,,,,,,,,,,,,,masks/mask_004.jpg,0,2,2,3,1,,,,,,,,,,,,,,,,,,,,,,,,,,,,,,,,,,,,,,,,,,,,,,,,,,,,,,,,,,,,,,,,,,,,,,,,,,,,,,,,,,,,,,,,
722523,001,2022-11-20_23h47.40.398,Info_measure_main_exp,2022.2.2,Win32,28.83589492,,,,,,,,,,,,,,,,,,masks/mask_005.jpg,0,3,3,4,1,,,,,,,,,,,,,,,,,,,,,,,,,,,,,,,,,,,,,,,,,,,,,,,,,,,,,,,,,,,,,,,,,,,,,,,,,,,,,,,,,,,,,,,,
722523,001,2022-11-20_23h47.40.398,Info_measure_main_exp,2022.2.2,Win32,28.83589492,,,,,,,,,,,,,,,,,,masks/mask_002.jpg,0,4,4,1,1,,,,,,,,,,,,,,,,,,,,,,,,,,,,,,,,,,,,,,,,,,,,,,,,,,,,,,,,,,,,,,,,,,,,,,,,,,,,,,,,,,,,,,,,
722523,001,2022-11-20_23h47.40.398,Info_measure_main_exp,2022.2.2,Win32,28.83589492,,,,,,,,,,,,,,,,,,,,,,,,0.073148162,0.134259259,1,0,0,response1disk,7,57.9231,1,0.006481524,0.000925912,1,0,0,center_square,0,1,1,0,1,0,131,5,5,2370,2406,prac_patch/patch0002370.jpg,prac_patch/patch0002406.jpg,,,,,,,,,,,,,,,,,,,,,,,,,,,,,,,,,,,,,,,,,,,,,,,,,,,,,,,,,,,,
722523,001,2022-11-20_23h47.40.398,Info_measure_main_exp,2022.2.2,Win32,28.83589492,,,,,,,,,,,,,0,0,0,1,1,masks/mask_002.jpg,,,,,,,,,,,,,,,,,,,,,,,,,,,,,,,,,,,,,,,,,,,,,,,,,,,,,,,,,,,,,,,,,,,,,,,,,,,,,,,,,,,,,,,,,,,,,
722523,001,2022-11-20_23h47.40.398,Info_measure_main_exp,2022.2.2,Win32,28.83589492,,,,,,,,,,,,,0,1,1,4,1,masks/mask_005.jpg,,,,,,,,,,,,,,,,,,,,,,,,,,,,,,,,,,,,,,,,,,,,,,,,,,,,,,,,,,,,,,,,,,,,,,,,,,,,,,,,,,,,,,,,,,,,,
722523,001,2022-11-20_23h47.40.398,Info_measure_main_exp,2022.2.2,Win32,28.83589492,,,,,,,,,,,,,0,2,2,3,1,masks/mask_004.jpg,,,,,,,,,,,,,,,,,,,,,,,,,,,,,,,,,,,,,,,,,,,,,,,,,,,,,,,,,,,,,,,,,,,,,,,,,,,,,,,,,,,,,,,,,,,,,
722523,001,2022-11-20_23h47.40.398,Info_measure_main_exp,2022.2.2,Win32,28.83589492,,,,,,,,,,,,,0,3,3,0,1,masks/mask_001.jpg,,,,,,,,,,,,,,,,,,,,,,,,,,,,,,,,,,,,,,,,,,,,,,,,,,,,,,,,,,,,,,,,,,,,,,,,,,,,,,,,,,,,,,,,,,,,,
722523,001,2022-11-20_23h47.40.398,Info_measure_main_exp,2022.2.2,Win32,28.83589492,,,,,,,,,,,,,0,4,4,2,1,masks/mask_003.jpg,,,,,,,,,,,,,,,,,,,,,,,,,,,,,,,,,,,,,,,,,,,,,,,,,,,,,,,,,,,,,,,,,,,,,,,,,,,,,,,,,,,,,,,,,,,,,
722523,001,2022-11-20_23h47.40.398,Info_measure_main_exp,2022.2.2,Win32,28.83589492,,,,,,,,,,,,,,,,,,masks/mask_003.jpg,0,0,0,2,1,,,,,,,,,,,,,,,,,,,,,,,,,,,,,,,,,,,,,,,,,,,,,,,,,,,,,,,,,,,,,,,,,,,,,,,,,,,,,,,,,,,,,,,,
722523,001,2022-11-20_23h47.40.398,Info_measure_main_exp,2022.2.2,Win32,28.83589492,,,,,,,,,,,,,,,,,,masks/mask_005.jpg,0,1,1,4,1,,,,,,,,,,,,,,,,,,,,,,,,,,,,,,,,,,,,,,,,,,,,,,,,,,,,,,,,,,,,,,,,,,,,,,,,,,,,,,,,,,,,,,,,
722523,001,2022-11-20_23h47.40.398,Info_measure_main_exp,2022.2.2,Win32,28.83589492,,,,,,,,,,,,,,,,,,masks/mask_001.jpg,0,2,2,0,1,,,,,,,,,,,,,,,,,,,,,,,,,,,,,,,,,,,,,,,,,,,,,,,,,,,,,,,,,,,,,,,,,,,,,,,,,,,,,,,,,,,,,,,,
722523,001,2022-11-20_23h47.40.398,Info_measure_main_exp,2022.2.2,Win32,28.83589492,,,,,,,,,,,,,,,,,,masks/mask_002.jpg,0,3,3,1,1,,,,,,,,,,,,,,,,,,,,,,,,,,,,,,,,,,,,,,,,,,,,,,,,,,,,,,,,,,,,,,,,,,,,,,,,,,,,,,,,,,,,,,,,
722523,001,2022-11-20_23h47.40.398,Info_measure_main_exp,2022.2.2,Win32,28.83589492,,,,,,,,,,,,,,,,,,masks/mask_004.jpg,0,4,4,3,1,,,,,,,,,,,,,,,,,,,,,,,,,,,,,,,,,,,,,,,,,,,,,,,,,,,,,,,,,,,,,,,,,,,,,,,,,,,,,,,,,,,,,,,,
722523,001,2022-11-20_23h47.40.398,Info_measure_main_exp,2022.2.2,Win32,28.83589492,,,,,,,,,,,,,,,,,,,,,,,,-0.109259217,0.048148155,1,0,0,response7disk,1,68.3227,1,0.002777806,-0.000925947,1,0,0,center_square,0,2,2,2,1,0,131,5,5,2526,2526,prac_patch/patch0002526.jpg,prac_patch/patch0002526.jpg,,,,,,,,,,,,,,,,,,,,,,,,,,,,,,,,,,,,,,,,,,,,,,,,,,,,,,,,,,,,
722523,001,2022-11-20_23h47.40.398,Info_measure_main_exp,2022.2.2,Win32,28.83589492,,,,,,,,,,,,,,,,,,,,,,,,,,,,,,,,,,,,,,,,,,,,,,,,,,,,,,,,,,,space,2.0644,,,,,,,,,,,,,,,,,,,,,,,,,,,,,,,,,,,,,,,,,,,,,,,,,,,
722523,001,2022-11-20_23h47.40.398,Info_measure_main_exp,2022.2.2,Win32,28.83589492,,,,,,,,,,,,,,,,,,masks/mask_001.jpg,,,,,,,,,,,,,,,,,,,,,,,,,,,,,,,,,,,,,,,,,,,0,0,0,0,1,,,,,,,,,,,,,,,,,,,,,,,,,,,,,,,,,,,,,,,,,,,,,,
722523,001,2022-11-20_23h47.40.398,Info_measure_main_exp,2022.2.2,Win32,28.83589492,,,,,,,,,,,,,,,,,,masks/mask_005.jpg,,,,,,,,,,,,,,,,,,,,,,,,,,,,,,,,,,,,,,,,,,,0,1,1,4,1,,,,,,,,,,,,,,,,,,,,,,,,,,,,,,,,,,,,,,,,,,,,,,
722523,001,2022-11-20_23h47.40.398,Info_measure_main_exp,2022.2.2,Win32,28.83589492,,,,,,,,,,,,,,,,,,masks/mask_002.jpg,,,,,,,,,,,,,,,,,,,,,,,,,,,,,,,,,,,,,,,,,,,0,2,2,1,1,,,,,,,,,,,,,,,,,,,,,,,,,,,,,,,,,,,,,,,,,,,,,,
722523,001,2022-11-20_23h47.40.398,Info_measure_main_exp,2022.2.2,Win32,28.83589492,,,,,,,,,,,,,,,,,,masks/mask_003.jpg,,,,,,,,,,,,,,,,,,,,,,,,,,,,,,,,,,,,,,,,,,,0,3,3,2,1,,,,,,,,,,,,,,,,,,,,,,,,,,,,,,,,,,,,,,,,,,,,,,
722523,001,2022-11-20_23h47.40.398,Info_measure_main_exp,2022.2.2,Win32,28.83589492,,,,,,,,,,,,,,,,,,masks/mask_004.jpg,,,,,,,,,,,,,,,,,,,,,,,,,,,,,,,,,,,,,,,,,,,0,4,4,3,1,,,,,,,,,,,,,,,,,,,,,,,,,,,,,,,,,,,,,,,,,,,,,,
722523,001,2022-11-20_23h47.40.398,Info_measure_main_exp,2022.2.2,Win32,28.83589492,,,,,,,,,,,,,,,,,,masks/mask_003.jpg,,,,,,,,,,,,,,,,,,,,,,,,,,,,,,,,,,,,,,,,,,,,,,,,0,0,0,2,1,,,,,,,,,,,,,,,,,,,,,,,,,,,,,,,,,,,,,,,,,
722523,001,2022-11-20_23h47.40.398,Info_measure_main_exp,2022.2.2,Win32,28.83589492,,,,,,,,,,,,,,,,,,masks/mask_001.jpg,,,,,,,,,,,,,,,,,,,,,,,,,,,,,,,,,,,,,,,,,,,,,,,,0,1,1,0,1,,,,,,,,,,,,,,,,,,,,,,,,,,,,,,,,,,,,,,,,,
722523,001,2022-11-20_23h47.40.398,Info_measure_main_exp,2022.2.2,Win32,28.83589492,,,,,,,,,,,,,,,,,,masks/mask_004.jpg,,,,,,,,,,,,,,,,,,,,,,,,,,,,,,,,,,,,,,,,,,,,,,,,0,2,2,3,1,,,,,,,,,,,,,,,,,,,,,,,,,,,,,,,,,,,,,,,,,
722523,001,2022-11-20_23h47.40.398,Info_measure_main_exp,2022.2.2,Win32,28.83589492,,,,,,,,,,,,,,,,,,masks/mask_002.jpg,,,,,,,,,,,,,,,,,,,,,,,,,,,,,,,,,,,,,,,,,,,,,,,,0,3,3,1,1,,,,,,,,,,,,,,,,,,,,,,,,,,,,,,,,,,,,,,,,,
722523,001,2022-11-20_23h47.40.398,Info_measure_main_exp,2022.2.2,Win32,28.83589492,,,,,,,,,,,,,,,,,,masks/mask_005.jpg,,,,,,,,,,,,,,,,,,,,,,,,,,,,,,,,,,,,,,,,,,,,,,,,0,4,4,4,1,,,,,,,,,,,,,,,,,,,,,,,,,,,,,,,,,,,,,,,,,
722523,001,2022-11-20_23h47.40.398,Info_measure_main_exp,2022.2.2,Win32,28.83589492,,,,,,,,,,,,,,,,,,,,,,,,,,,,,,6,2.1,1,,,,,,,,,,,,0,131,5,5,1950,2082,absent_patch/patch0001950.jpg,absent_patch/patch0002082.jpg,,,,,,,,,,,,,,,,,,,,0.125925912,0.043518526,1,0,0,response1disk,1,0.000925912,-0.002777771,1,0,0,center_square,0,0,0,12,1,,,,,,,,,,,,,,,,,,,,,,,
722523,001,2022-11-20_23h47.40.398,Info_measure_main_exp,2022.2.2,Win32,28.83589492,,,,,,,,,,,,,,,,,,masks/mask_004.jpg,,,,,,,,,,,,,,,,,,,,,,,,,,,,,,,,,,,,,,,,,,,0,0,0,3,1,,,,,,,,,,,,,,,,,,,,,,,,,,,,,,,,,,,,,,,,,,,,,,
722523,001,2022-11-20_23h47.40.398,Info_measure_main_exp,2022.2.2,Win32,28.83589492,,,,,,,,,,,,,,,,,,masks/mask_003.jpg,,,,,,,,,,,,,,,,,,,,,,,,,,,,,,,,,,,,,,,,,,,0,1,1,2,1,,,,,,,,,,,,,,,,,,,,,,,,,,,,,,,,,,,,,,,,,,,,,,
722523,001,2022-11-20_23h47.40.398,Info_measure_main_exp,2022.2.2,Win32,28.83589492,,,,,,,,,,,,,,,,,,masks/mask_005.jpg,,,,,,,,,,,,,,,,,,,,,,,,,,,,,,,,,,,,,,,,,,,0,2,2,4,1,,,,,,,,,,,,,,,,,,,,,,,,,,,,,,,,,,,,,,,,,,,,,,
722523,001,2022-11-20_23h47.40.398,Info_measure_main_exp,2022.2.2,Win32,28.83589492,,,,,,,,,,,,,,,,,,masks/mask_001.jpg,,,,,,,,,,,,,,,,,,,,,,,,,,,,,,,,,,,,,,,,,,,0,3,3,0,1,,,,,,,,,,,,,,,,,,,,,,,,,,,,,,,,,,,,,,,,,,,,,,
722523,001,2022-11-20_23h47.40.398,Info_measure_main_exp,2022.2.2,Win32,28.83589492,,,,,,,,,,,,,,,,,,masks/mask_002.jpg,,,,,,,,,,,,,,,,,,,,,,,,,,,,,,,,,,,,,,,,,,,0,4,4,1,1,,,,,,,,,,,,,,,,,,,,,,,,,,,,,,,,,,,,,,,,,,,,,,
722523,001,2022-11-20_23h47.40.398,Info_measure_main_exp,2022.2.2,Win32,28.83589492,,,,,,,,,,,,,,,,,,masks/mask_004.jpg,,,,,,,,,,,,,,,,,,,,,,,,,,,,,,,,,,,,,,,,,,,,,,,,0,0,0,3,1,,,,,,,,,,,,,,,,,,,,,,,,,,,,,,,,,,,,,,,,,
722523,001,2022-11-20_23h47.40.398,Info_measure_main_exp,2022.2.2,Win32,28.83589492,,,,,,,,,,,,,,,,,,masks/mask_002.jpg,,,,,,,,,,,,,,,,,,,,,,,,,,,,,,,,,,,,,,,,,,,,,,,,0,1,1,1,1,,,,,,,,,,,,,,,,,,,,,,,,,,,,,,,,,,,,,,,,,
722523,001,2022-11-20_23h47.40.398,Info_measure_main_exp,2022.2.2,Win32,28.83589492,,,,,,,,,,,,,,,,,,masks/mask_003.jpg,,,,,,,,,,,,,,,,,,,,,,,,,,,,,,,,,,,,,,,,,,,,,,,,0,2,2,2,1,,,,,,,,,,,,,,,,,,,,,,,,,,,,,,,,,,,,,,,,,
722523,001,2022-11-20_23h47.40.398,Info_measure_main_exp,2022.2.2,Win32,28.83589492,,,,,,,,,,,,,,,,,,masks/mask_005.jpg,,,,,,,,,,,,,,,,,,,,,,,,,,,,,,,,,,,,,,,,,,,,,,,,0,3,3,4,1,,,,,,,,,,,,,,,,,,,,,,,,,,,,,,,,,,,,,,,,,
722523,001,2022-11-20_23h47.40.398,Info_measure_main_exp,2022.2.2,Win32,28.83589492,,,,,,,,,,,,,,,,,,masks/mask_001.jpg,,,,,,,,,,,,,,,,,,,,,,,,,,,,,,,,,,,,,,,,,,,,,,,,0,4,4,0,1,,,,,,,,,,,,,,,,,,,,,,,,,,,,,,,,,,,,,,,,,
722523,001,2022-11-20_23h47.40.398,Info_measure_main_exp,2022.2.2,Win32,28.83589492,,,,,,,,,,,,,,,,,,,,,,,,,,,,,,2,1.8339,1,,,,,,,,,,,,0,131,5,5,2250,2298,absent_patch/patch0002250.jpg,absent_patch/patch0002298.jpg,,,,,,,,,,,,,,,,,,,,-0.102777764,-0.075000021,1,0,0,response5disk,2,-0.000925912,-0.014814836,1,0,0,center_square,0,1,1,59,1,,,,,,,,,,,,,,,,,,,,,,,
722523,001,2022-11-20_23h47.40.398,Info_measure_main_exp,2022.2.2,Win32,28.83589492,,,,,,,,,,,,,,,,,,masks/mask_004.jpg,,,,,,,,,,,,,,,,,,,,,,,,,,,,,,,,,,,,,,,,,,,0,0,0,3,1,,,,,,,,,,,,,,,,,,,,,,,,,,,,,,,,,,,,,,,,,,,,,,
722523,001,2022-11-20_23h47.40.398,Info_measure_main_exp,2022.2.2,Win32,28.83589492,,,,,,,,,,,,,,,,,,masks/mask_003.jpg,,,,,,,,,,,,,,,,,,,,,,,,,,,,,,,,,,,,,,,,,,,0,1,1,2,1,,,,,,,,,,,,,,,,,,,,,,,,,,,,,,,,,,,,,,,,,,,,,,
722523,001,2022-11-20_23h47.40.398,Info_measure_main_exp,2022.2.2,Win32,28.83589492,,,,,,,,,,,,,,,,,,masks/mask_002.jpg,,,,,,,,,,,,,,,,,,,,,,,,,,,,,,,,,,,,,,,,,,,0,2,2,1,1,,,,,,,,,,,,,,,,,,,,,,,,,,,,,,,,,,,,,,,,,,,,,,
722523,001,2022-11-20_23h47.40.398,Info_measure_main_exp,2022.2.2,Win32,28.83589492,,,,,,,,,,,,,,,,,,masks/mask_005.jpg,,,,,,,,,,,,,,,,,,,,,,,,,,,,,,,,,,,,,,,,,,,0,3,3,4,1,,,,,,,,,,,,,,,,,,,,,,,,,,,,,,,,,,,,,,,,,,,,,,
722523,001,2022-11-20_23h47.40.398,Info_measure_main_exp,2022.2.2,Win32,28.83589492,,,,,,,,,,,,,,,,,,masks/mask_001.jpg,,,,,,,,,,,,,,,,,,,,,,,,,,,,,,,,,,,,,,,,,,,0,4,4,0,1,,,,,,,,,,,,,,,,,,,,,,,,,,,,,,,,,,,,,,,,,,,,,,
722523,001,2022-11-20_23h47.40.398,Info_measure_main_exp,2022.2.2,Win32,28.83589492,,,,,,,,,,,,,,,,,,masks/mask_004.jpg,,,,,,,,,,,,,,,,,,,,,,,,,,,,,,,,,,,,,,,,,,,,,,,,0,0,0,3,1,,,,,,,,,,,,,,,,,,,,,,,,,,,,,,,,,,,,,,,,,
722523,001,2022-11-20_23h47.40.398,Info_measure_main_exp,2022.2.2,Win32,28.83589492,,,,,,,,,,,,,,,,,,masks/mask_001.jpg,,,,,,,,,,,,,,,,,,,,,,,,,,,,,,,,,,,,,,,,,,,,,,,,0,1,1,0,1,,,,,,,,,,,,,,,,,,,,,,,,,,,,,,,,,,,,,,,,,
722523,001,2022-11-20_23h47.40.398,Info_measure_main_exp,2022.2.2,Win32,28.83589492,,,,,,,,,,,,,,,,,,masks/mask_003.jpg,,,,,,,,,,,,,,,,,,,,,,,,,,,,,,,,,,,,,,,,,,,,,,,,0,2,2,2,1,,,,,,,,,,,,,,,,,,,,,,,,,,,,,,,,,,,,,,,,,
722523,001,2022-11-20_23h47.40.398,Info_measure_main_exp,2022.2.2,Win32,28.83589492,,,,,,,,,,,,,,,,,,masks/mask_002.jpg,,,,,,,,,,,,,,,,,,,,,,,,,,,,,,,,,,,,,,,,,,,,,,,,0,3,3,1,1,,,,,,,,,,,,,,,,,,,,,,,,,,,,,,,,,,,,,,,,,
722523,001,2022-11-20_23h47.40.398,Info_measure_main_exp,2022.2.2,Win32,28.83589492,,,,,,,,,,,,,,,,,,masks/mask_005.jpg,,,,,,,,,,,,,,,,,,,,,,,,,,,,,,,,,,,,,,,,,,,,,,,,0,4,4,4,1,,,,,,,,,,,,,,,,,,,,,,,,,,,,,,,,,,,,,,,,,
722523,001,2022-11-20_23h47.40.398,Info_measure_main_exp,2022.2.2,Win32,28.83589492,,,,,,,,,,,,,,,,,,,,,,,,,,,,,,7,1.1992,1,,,,,,,,,,,,0,131,5,5,2082,1986,absent_patch/patch0002082.jpg,absent_patch/patch0001986.jpg,,,,,,,,,,,,,,,,,,,,0.040740755,0.137962942,1,0,0,response1disk,3,-0.003703718,-0.000925947,1,0,0,center_square,0,2,2,94,1,,,,,,,,,,,,,,,,,,,,,,,
722523,001,2022-11-20_23h47.40.398,Info_measure_main_exp,2022.2.2,Win32,28.83589492,,,,,,,,,,,,,,,,,,masks/mask_002.jpg,,,,,,,,,,,,,,,,,,,,,,,,,,,,,,,,,,,,,,,,,,,0,0,0,1,1,,,,,,,,,,,,,,,,,,,,,,,,,,,,,,,,,,,,,,,,,,,,,,
722523,001,2022-11-20_23h47.40.398,Info_measure_main_exp,2022.2.2,Win32,28.83589492,,,,,,,,,,,,,,,,,,masks/mask_003.jpg,,,,,,,,,,,,,,,,,,,,,,,,,,,,,,,,,,,,,,,,,,,0,1,1,2,1,,,,,,,,,,,,,,,,,,,,,,,,,,,,,,,,,,,,,,,,,,,,,,
722523,001,2022-11-20_23h47.40.398,Info_measure_main_exp,2022.2.2,Win32,28.83589492,,,,,,,,,,,,,,,,,,masks/mask_004.jpg,,,,,,,,,,,,,,,,,,,,,,,,,,,,,,,,,,,,,,,,,,,0,2,2,3,1,,,,,,,,,,,,,,,,,,,,,,,,,,,,,,,,,,,,,,,,,,,,,,
722523,001,2022-11-20_23h47.40.398,Info_measure_main_exp,2022.2.2,Win32,28.83589492,,,,,,,,,,,,,,,,,,masks/mask_001.jpg,,,,,,,,,,,,,,,,,,,,,,,,,,,,,,,,,,,,,,,,,,,0,3,3,0,1,,,,,,,,,,,,,,,,,,,,,,,,,,,,,,,,,,,,,,,,,,,,,,
722523,001,2022-11-20_23h47.40.398,Info_measure_main_exp,2022.2.2,Win32,28.83589492,,,,,,,,,,,,,,,,,,masks/mask_005.jpg,,,,,,,,,,,,,,,,,,,,,,,,,,,,,,,,,,,,,,,,,,,0,4,4,4,1,,,,,,,,,,,,,,,,,,,,,,,,,,,,,,,,,,,,,,,,,,,,,,
722523,001,2022-11-20_23h47.40.398,Info_measure_main_exp,2022.2.2,Win32,28.83589492,,,,,,,,,,,,,,,,,,masks/mask_002.jpg,,,,,,,,,,,,,,,,,,,,,,,,,,,,,,,,,,,,,,,,,,,,,,,,0,0,0,1,1,,,,,,,,,,,,,,,,,,,,,,,,,,,,,,,,,,,,,,,,,
722523,001,2022-11-20_23h47.40.398,Info_measure_main_exp,2022.2.2,Win32,28.83589492,,,,,,,,,,,,,,,,,,masks/mask_004.jpg,,,,,,,,,,,,,,,,,,,,,,,,,,,,,,,,,,,,,,,,,,,,,,,,0,1,1,3,1,,,,,,,,,,,,,,,,,,,,,,,,,,,,,,,,,,,,,,,,,
722523,001,2022-11-20_23h47.40.398,Info_measure_main_exp,2022.2.2,Win32,28.83589492,,,,,,,,,,,,,,,,,,masks/mask_003.jpg,,,,,,,,,,,,,,,,,,,,,,,,,,,,,,,,,,,,,,,,,,,,,,,,0,2,2,2,1,,,,,,,,,,,,,,,,,,,,,,,,,,,,,,,,,,,,,,,,,
722523,001,2022-11-20_23h47.40.398,Info_measure_main_exp,2022.2.2,Win32,28.83589492,,,,,,,,,,,,,,,,,,masks/mask_001.jpg,,,,,,,,,,,,,,,,,,,,,,,,,,,,,,,,,,,,,,,,,,,,,,,,0,3,3,0,1,,,,,,,,,,,,,,,,,,,,,,,,,,,,,,,,,,,,,,,,,
722523,001,2022-11-20_23h47.40.398,Info_measure_main_exp,2022.2.2,Win32,28.83589492,,,,,,,,,,,,,,,,,,masks/mask_005.jpg,,,,,,,,,,,,,,,,,,,,,,,,,,,,,,,,,,,,,,,,,,,,,,,,0,4,4,4,1,,,,,,,,,,,,,,,,,,,,,,,,,,,,,,,,,,,,,,,,,
722523,001,2022-11-20_23h47.40.398,Info_measure_main_exp,2022.2.2,Win32,28.83589492,,,,,,,,,,,,,,,,,,,,,,,,,,,,,,7,1.1665,1,,,,,,,,,,,,0,131,5,5,2166,1986,absent_patch/patch0002166.jpg,absent_patch/patch0001986.jpg,,,,,,,,,,,,,,,,,,,,0.050000014,0.133333312,1,0,0,response1disk,4,0.000925912,-0.01203703,1,0,0,center_square,0,3,3,47,1,,,,,,,,,,,,,,,,,,,,,,,
722523,001,2022-11-20_23h47.40.398,Info_measure_main_exp,2022.2.2,Win32,28.83589492,,,,,,,,,,,,,,,,,,masks/mask_003.jpg,,,,,,,,,,,,,,,,,,,,,,,,,,,,,,,,,,,,,,,,,,,0,0,0,2,1,,,,,,,,,,,,,,,,,,,,,,,,,,,,,,,,,,,,,,,,,,,,,,
722523,001,2022-11-20_23h47.40.398,Info_measure_main_exp,2022.2.2,Win32,28.83589492,,,,,,,,,,,,,,,,,,masks/mask_002.jpg,,,,,,,,,,,,,,,,,,,,,,,,,,,,,,,,,,,,,,,,,,,0,1,1,1,1,,,,,,,,,,,,,,,,,,,,,,,,,,,,,,,,,,,,,,,,,,,,,,
722523,001,2022-11-20_23h47.40.398,Info_measure_main_exp,2022.2.2,Win32,28.83589492,,,,,,,,,,,,,,,,,,masks/mask_004.jpg,,,,,,,,,,,,,,,,,,,,,,,,,,,,,,,,,,,,,,,,,,,0,2,2,3,1,,,,,,,,,,,,,,,,,,,,,,,,,,,,,,,,,,,,,,,,,,,,,,
722523,001,2022-11-20_23h47.40.398,Info_measure_main_exp,2022.2.2,Win32,28.83589492,,,,,,,,,,,,,,,,,,masks/mask_001.jpg,,,,,,,,,,,,,,,,,,,,,,,,,,,,,,,,,,,,,,,,,,,0,3,3,0,1,,,,,,,,,,,,,,,,,,,,,,,,,,,,,,,,,,,,,,,,,,,,,,
722523,001,2022-11-20_23h47.40.398,Info_measure_main_exp,2022.2.2,Win32,28.83589492,,,,,,,,,,,,,,,,,,masks/mask_005.jpg,,,,,,,,,,,,,,,,,,,,,,,,,,,,,,,,,,,,,,,,,,,0,4,4,4,1,,,,,,,,,,,,,,,,,,,,,,,,,,,,,,,,,,,,,,,,,,,,,,
722523,001,2022-11-20_23h47.40.398,Info_measure_main_exp,2022.2.2,Win32,28.83589492,,,,,,,,,,,,,,,,,,masks/mask_003.jpg,,,,,,,,,,,,,,,,,,,,,,,,,,,,,,,,,,,,,,,,,,,,,,,,0,0,0,2,1,,,,,,,,,,,,,,,,,,,,,,,,,,,,,,,,,,,,,,,,,
722523,001,2022-11-20_23h47.40.398,Info_measure_main_exp,2022.2.2,Win32,28.83589492,,,,,,,,,,,,,,,,,,masks/mask_004.jpg,,,,,,,,,,,,,,,,,,,,,,,,,,,,,,,,,,,,,,,,,,,,,,,,0,1,1,3,1,,,,,,,,,,,,,,,,,,,,,,,,,,,,,,,,,,,,,,,,,
722523,001,2022-11-20_23h47.40.398,Info_measure_main_exp,2022.2.2,Win32,28.83589492,,,,,,,,,,,,,,,,,,masks/mask_001.jpg,,,,,,,,,,,,,,,,,,,,,,,,,,,,,,,,,,,,,,,,,,,,,,,,0,2,2,0,1,,,,,,,,,,,,,,,,,,,,,,,,,,,,,,,,,,,,,,,,,
722523,001,2022-11-20_23h47.40.398,Info_measure_main_exp,2022.2.2,Win32,28.83589492,,,,,,,,,,,,,,,,,,masks/mask_005.jpg,,,,,,,,,,,,,,,,,,,,,,,,,,,,,,,,,,,,,,,,,,,,,,,,0,3,3,4,1,,,,,,,,,,,,,,,,,,,,,,,,,,,,,,,,,,,,,,,,,
722523,001,2022-11-20_23h47.40.398,Info_measure_main_exp,2022.2.2,Win32,28.83589492,,,,,,,,,,,,,,,,,,masks/mask_002.jpg,,,,,,,,,,,,,,,,,,,,,,,,,,,,,,,,,,,,,,,,,,,,,,,,0,4,4,1,1,,,,,,,,,,,,,,,,,,,,,,,,,,,,,,,,,,,,,,,,,
722523,001,2022-11-20_23h47.40.398,Info_measure_main_exp,2022.2.2,Win32,28.83589492,,,,,,,,,,,,,,,,,,,,,,,,,,,,,,7,0.7668,1,,,,,,,,,,,,0,131,5,5,2250,1986,absent_patch/patch0002250.jpg,absent_patch/patch0001986.jpg,,,,,,,,,,,,,,,,,,,,0.051851838,0.152777778,1,0,0,response1disk,5,0.007407436,-0.000925947,1,0,0,center_square,0,4,4,29,1,,,,,,,,,,,,,,,,,,,,,,,
722523,001,2022-11-20_23h47.40.398,Info_measure_main_exp,2022.2.2,Win32,28.83589492,,,,,,,,,,,,,,,,,,masks/mask_002.jpg,,,,,,,,,,,,,,,,,,,,,,,,,,,,,,,,,,,,,,,,,,,0,0,0,1,1,,,,,,,,,,,,,,,,,,,,,,,,,,,,,,,,,,,,,,,,,,,,,,
722523,001,2022-11-20_23h47.40.398,Info_measure_main_exp,2022.2.2,Win32,28.83589492,,,,,,,,,,,,,,,,,,masks/mask_001.jpg,,,,,,,,,,,,,,,,,,,,,,,,,,,,,,,,,,,,,,,,,,,0,1,1,0,1,,,,,,,,,,,,,,,,,,,,,,,,,,,,,,,,,,,,,,,,,,,,,,
722523,001,2022-11-20_23h47.40.398,Info_measure_main_exp,2022.2.2,Win32,28.83589492,,,,,,,,,,,,,,,,,,masks/mask_005.jpg,,,,,,,,,,,,,,,,,,,,,,,,,,,,,,,,,,,,,,,,,,,0,2,2,4,1,,,,,,,,,,,,,,,,,,,,,,,,,,,,,,,,,,,,,,,,,,,,,,
722523,001,2022-11-20_23h47.40.398,Info_measure_main_exp,2022.2.2,Win32,28.83589492,,,,,,,,,,,,,,,,,,masks/mask_004.jpg,,,,,,,,,,,,,,,,,,,,,,,,,,,,,,,,,,,,,,,,,,,0,3,3,3,1,,,,,,,,,,,,,,,,,,,,,,,,,,,,,,,,,,,,,,,,,,,,,,
722523,001,2022-11-20_23h47.40.398,Info_measure_main_exp,2022.2.2,Win32,28.83589492,,,,,,,,,,,,,,,,,,masks/mask_003.jpg,,,,,,,,,,,,,,,,,,,,,,,,,,,,,,,,,,,,,,,,,,,0,4,4,2,1,,,,,,,,,,,,,,,,,,,,,,,,,,,,,,,,,,,,,,,,,,,,,,
722523,001,2022-11-20_23h47.40.398,Info_measure_main_exp,2022.2.2,Win32,28.83589492,,,,,,,,,,,,,,,,,,masks/mask_003.jpg,,,,,,,,,,,,,,,,,,,,,,,,,,,,,,,,,,,,,,,,,,,,,,,,0,0,0,2,1,,,,,,,,,,,,,,,,,,,,,,,,,,,,,,,,,,,,,,,,,
722523,001,2022-11-20_23h47.40.398,Info_measure_main_exp,2022.2.2,Win32,28.83589492,,,,,,,,,,,,,,,,,,masks/mask_001.jpg,,,,,,,,,,,,,,,,,,,,,,,,,,,,,,,,,,,,,,,,,,,,,,,,0,1,1,0,1,,,,,,,,,,,,,,,,,,,,,,,,,,,,,,,,,,,,,,,,,
722523,001,2022-11-20_23h47.40.398,Info_measure_main_exp,2022.2.2,Win32,28.83589492,,,,,,,,,,,,,,,,,,masks/mask_002.jpg,,,,,,,,,,,,,,,,,,,,,,,,,,,,,,,,,,,,,,,,,,,,,,,,0,2,2,1,1,,,,,,,,,,,,,,,,,,,,,,,,,,,,,,,,,,,,,,,,,
722523,001,2022-11-20_23h47.40.398,Info_measure_main_exp,2022.2.2,Win32,28.83589492,,,,,,,,,,,,,,,,,,masks/mask_005.jpg,,,,,,,,,,,,,,,,,,,,,,,,,,,,,,,,,,,,,,,,,,,,,,,,0,3,3,4,1,,,,,,,,,,,,,,,,,,,,,,,,,,,,,,,,,,,,,,,,,
722523,001,2022-11-20_23h47.40.398,Info_measure_main_exp,2022.2.2,Win32,28.83589492,,,,,,,,,,,,,,,,,,masks/mask_004.jpg,,,,,,,,,,,,,,,,,,,,,,,,,,,,,,,,,,,,,,,,,,,,,,,,0,4,4,3,1,,,,,,,,,,,,,,,,,,,,,,,,,,,,,,,,,,,,,,,,,
722523,001,2022-11-20_23h47.40.398,Info_measure_main_exp,2022.2.2,Win32,28.83589492,,,,,,,,,,,,,,,,,,,,,,,,,,,,,,7,1.1002,1,,,,,,,,,,,,1,131,5,5,1,2166,present_patch/cong_131_5_a.jpg,absent_patch/patch0002166.jpg,,,,,,,,,,,,,,,,,,,,0.050000014,0.162962949,1,0,0,response1disk,6,-0.003703718,0.00462963,1,0,0,center_square,0,5,5,54,1,,,,,,,,,,,,,,,,,,,,,,,
722523,001,2022-11-20_23h47.40.398,Info_measure_main_exp,2022.2.2,Win32,28.83589492,,,,,,,,,,,,,,,,,,masks/mask_005.jpg,,,,,,,,,,,,,,,,,,,,,,,,,,,,,,,,,,,,,,,,,,,0,0,0,4,1,,,,,,,,,,,,,,,,,,,,,,,,,,,,,,,,,,,,,,,,,,,,,,
722523,001,2022-11-20_23h47.40.398,Info_measure_main_exp,2022.2.2,Win32,28.83589492,,,,,,,,,,,,,,,,,,masks/mask_003.jpg,,,,,,,,,,,,,,,,,,,,,,,,,,,,,,,,,,,,,,,,,,,0,1,1,2,1,,,,,,,,,,,,,,,,,,,,,,,,,,,,,,,,,,,,,,,,,,,,,,
722523,001,2022-11-20_23h47.40.398,Info_measure_main_exp,2022.2.2,Win32,28.83589492,,,,,,,,,,,,,,,,,,masks/mask_002.jpg,,,,,,,,,,,,,,,,,,,,,,,,,,,,,,,,,,,,,,,,,,,0,2,2,1,1,,,,,,,,,,,,,,,,,,,,,,,,,,,,,,,,,,,,,,,,,,,,,,
722523,001,2022-11-20_23h47.40.398,Info_measure_main_exp,2022.2.2,Win32,28.83589492,,,,,,,,,,,,,,,,,,masks/mask_001.jpg,,,,,,,,,,,,,,,,,,,,,,,,,,,,,,,,,,,,,,,,,,,0,3,3,0,1,,,,,,,,,,,,,,,,,,,,,,,,,,,,,,,,,,,,,,,,,,,,,,
722523,001,2022-11-20_23h47.40.398,Info_measure_main_exp,2022.2.2,Win32,28.83589492,,,,,,,,,,,,,,,,,,masks/mask_004.jpg,,,,,,,,,,,,,,,,,,,,,,,,,,,,,,,,,,,,,,,,,,,0,4,4,3,1,,,,,,,,,,,,,,,,,,,,,,,,,,,,,,,,,,,,,,,,,,,,,,
722523,001,2022-11-20_23h47.40.398,Info_measure_main_exp,2022.2.2,Win32,28.83589492,,,,,,,,,,,,,,,,,,masks/mask_002.jpg,,,,,,,,,,,,,,,,,,,,,,,,,,,,,,,,,,,,,,,,,,,,,,,,0,0,0,1,1,,,,,,,,,,,,,,,,,,,,,,,,,,,,,,,,,,,,,,,,,
722523,001,2022-11-20_23h47.40.398,Info_measure_main_exp,2022.2.2,Win32,28.83589492,,,,,,,,,,,,,,,,,,masks/mask_003.jpg,,,,,,,,,,,,,,,,,,,,,,,,,,,,,,,,,,,,,,,,,,,,,,,,0,1,1,2,1,,,,,,,,,,,,,,,,,,,,,,,,,,,,,,,,,,,,,,,,,
722523,001,2022-11-20_23h47.40.398,Info_measure_main_exp,2022.2.2,Win32,28.83589492,,,,,,,,,,,,,,,,,,masks/mask_001.jpg,,,,,,,,,,,,,,,,,,,,,,,,,,,,,,,,,,,,,,,,,,,,,,,,0,2,2,0,1,,,,,,,,,,,,,,,,,,,,,,,,,,,,,,,,,,,,,,,,,
722523,001,2022-11-20_23h47.40.398,Info_measure_main_exp,2022.2.2,Win32,28.83589492,,,,,,,,,,,,,,,,,,masks/mask_004.jpg,,,,,,,,,,,,,,,,,,,,,,,,,,,,,,,,,,,,,,,,,,,,,,,,0,3,3,3,1,,,,,,,,,,,,,,,,,,,,,,,,,,,,,,,,,,,,,,,,,
722523,001,2022-11-20_23h47.40.398,Info_measure_main_exp,2022.2.2,Win32,28.83589492,,,,,,,,,,,,,,,,,,masks/mask_005.jpg,,,,,,,,,,,,,,,,,,,,,,,,,,,,,,,,,,,,,,,,,,,,,,,,0,4,4,4,1,,,,,,,,,,,,,,,,,,,,,,,,,,,,,,,,,,,,,,,,,
722523,001,2022-11-20_23h47.40.398,Info_measure_main_exp,2022.2.2,Win32,28.83589492,,,,,,,,,,,,,,,,,,,,,,,,,,,,,,7,1.3335,1,,,,,,,,,,,,0,131,5,5,2274,2190,absent_patch/patch0002274.jpg,absent_patch/patch0002190.jpg,,,,,,,,,,,,,,,,,,,,0.058333362,0.118518511,1,0,0,response1disk,7,0.006481524,0.000925912,1,0,0,center_square,0,6,6,116,1,,,,,,,,,,,,,,,,,,,,,,,
722523,001,2022-11-20_23h47.40.398,Info_measure_main_exp,2022.2.2,Win32,28.83589492,,,,,,,,,,,,,,,,,,masks/mask_002.jpg,,,,,,,,,,,,,,,,,,,,,,,,,,,,,,,,,,,,,,,,,,,0,0,0,1,1,,,,,,,,,,,,,,,,,,,,,,,,,,,,,,,,,,,,,,,,,,,,,,
722523,001,2022-11-20_23h47.40.398,Info_measure_main_exp,2022.2.2,Win32,28.83589492,,,,,,,,,,,,,,,,,,masks/mask_001.jpg,,,,,,,,,,,,,,,,,,,,,,,,,,,,,,,,,,,,,,,,,,,0,1,1,0,1,,,,,,,,,,,,,,,,,,,,,,,,,,,,,,,,,,,,,,,,,,,,,,
722523,001,2022-11-20_23h47.40.398,Info_measure_main_exp,2022.2.2,Win32,28.83589492,,,,,,,,,,,,,,,,,,masks/mask_005.jpg,,,,,,,,,,,,,,,,,,,,,,,,,,,,,,,,,,,,,,,,,,,0,2,2,4,1,,,,,,,,,,,,,,,,,,,,,,,,,,,,,,,,,,,,,,,,,,,,,,
722523,001,2022-11-20_23h47.40.398,Info_measure_main_exp,2022.2.2,Win32,28.83589492,,,,,,,,,,,,,,,,,,masks/mask_004.jpg,,,,,,,,,,,,,,,,,,,,,,,,,,,,,,,,,,,,,,,,,,,0,3,3,3,1,,,,,,,,,,,,,,,,,,,,,,,,,,,,,,,,,,,,,,,,,,,,,,
722523,001,2022-11-20_23h47.40.398,Info_measure_main_exp,2022.2.2,Win32,28.83589492,,,,,,,,,,,,,,,,,,masks/mask_003.jpg,,,,,,,,,,,,,,,,,,,,,,,,,,,,,,,,,,,,,,,,,,,0,4,4,2,1,,,,,,,,,,,,,,,,,,,,,,,,,,,,,,,,,,,,,,,,,,,,,,
722523,001,2022-11-20_23h47.40.398,Info_measure_main_exp,2022.2.2,Win32,28.83589492,,,,,,,,,,,,,,,,,,masks/mask_002.jpg,,,,,,,,,,,,,,,,,,,,,,,,,,,,,,,,,,,,,,,,,,,,,,,,0,0,0,1,1,,,,,,,,,,,,,,,,,,,,,,,,,,,,,,,,,,,,,,,,,
722523,001,2022-11-20_23h47.40.398,Info_measure_main_exp,2022.2.2,Win32,28.83589492,,,,,,,,,,,,,,,,,,masks/mask_005.jpg,,,,,,,,,,,,,,,,,,,,,,,,,,,,,,,,,,,,,,,,,,,,,,,,0,1,1,4,1,,,,,,,,,,,,,,,,,,,,,,,,,,,,,,,,,,,,,,,,,
722523,001,2022-11-20_23h47.40.398,Info_measure_main_exp,2022.2.2,Win32,28.83589492,,,,,,,,,,,,,,,,,,masks/mask_001.jpg,,,,,,,,,,,,,,,,,,,,,,,,,,,,,,,,,,,,,,,,,,,,,,,,0,2,2,0,1,,,,,,,,,,,,,,,,,,,,,,,,,,,,,,,,,,,,,,,,,
722523,001,2022-11-20_23h47.40.398,Info_measure_main_exp,2022.2.2,Win32,28.83589492,,,,,,,,,,,,,,,,,,masks/mask_003.jpg,,,,,,,,,,,,,,,,,,,,,,,,,,,,,,,,,,,,,,,,,,,,,,,,0,3,3,2,1,,,,,,,,,,,,,,,,,,,,,,,,,,,,,,,,,,,,,,,,,
722523,001,2022-11-20_23h47.40.398,Info_measure_main_exp,2022.2.2,Win32,28.83589492,,,,,,,,,,,,,,,,,,masks/mask_004.jpg,,,,,,,,,,,,,,,,,,,,,,,,,,,,,,,,,,,,,,,,,,,,,,,,0,4,4,3,1,,,,,,,,,,,,,,,,,,,,,,,,,,,,,,,,,,,,,,,,,
722523,001,2022-11-20_23h47.40.398,Info_measure_main_exp,2022.2.2,Win32,28.83589492,,,,,,,,,,,,,,,,,,,,,,,,,,,,,,7,2.7335,1,,,,,,,,,,,,0,131,5,5,2154,2250,absent_patch/patch0002154.jpg,absent_patch/patch0002250.jpg,,,,,,,,,,,,,,,,,,,,0.053703732,0.15648146,1,0,0,response1disk,8,0.002777806,0,1,0,0,center_square,0,7,7,108,1,,,,,,,,,,,,,,,,,,,,,,,
722523,001,2022-11-20_23h47.40.398,Info_measure_main_exp,2022.2.2,Win32,28.83589492,,,,,,,,,,,,,,,,,,masks/mask_004.jpg,,,,,,,,,,,,,,,,,,,,,,,,,,,,,,,,,,,,,,,,,,,0,0,0,3,1,,,,,,,,,,,,,,,,,,,,,,,,,,,,,,,,,,,,,,,,,,,,,,
722523,001,2022-11-20_23h47.40.398,Info_measure_main_exp,2022.2.2,Win32,28.83589492,,,,,,,,,,,,,,,,,,masks/mask_003.jpg,,,,,,,,,,,,,,,,,,,,,,,,,,,,,,,,,,,,,,,,,,,0,1,1,2,1,,,,,,,,,,,,,,,,,,,,,,,,,,,,,,,,,,,,,,,,,,,,,,
722523,001,2022-11-20_23h47.40.398,Info_measure_main_exp,2022.2.2,Win32,28.83589492,,,,,,,,,,,,,,,,,,masks/mask_002.jpg,,,,,,,,,,,,,,,,,,,,,,,,,,,,,,,,,,,,,,,,,,,0,2,2,1,1,,,,,,,,,,,,,,,,,,,,,,,,,,,,,,,,,,,,,,,,,,,,,,
722523,001,2022-11-20_23h47.40.398,Info_measure_main_exp,2022.2.2,Win32,28.83589492,,,,,,,,,,,,,,,,,,masks/mask_005.jpg,,,,,,,,,,,,,,,,,,,,,,,,,,,,,,,,,,,,,,,,,,,0,3,3,4,1,,,,,,,,,,,,,,,,,,,,,,,,,,,,,,,,,,,,,,,,,,,,,,
722523,001,2022-11-20_23h47.40.398,Info_measure_main_exp,2022.2.2,Win32,28.83589492,,,,,,,,,,,,,,,,,,masks/mask_001.jpg,,,,,,,,,,,,,,,,,,,,,,,,,,,,,,,,,,,,,,,,,,,0,4,4,0,1,,,,,,,,,,,,,,,,,,,,,,,,,,,,,,,,,,,,,,,,,,,,,,
722523,001,2022-11-20_23h47.40.398,Info_measure_main_exp,2022.2.2,Win32,28.83589492,,,,,,,,,,,,,,,,,,masks/mask_004.jpg,,,,,,,,,,,,,,,,,,,,,,,,,,,,,,,,,,,,,,,,,,,,,,,,0,0,0,3,1,,,,,,,,,,,,,,,,,,,,,,,,,,,,,,,,,,,,,,,,,
722523,001,2022-11-20_23h47.40.398,Info_measure_main_exp,2022.2.2,Win32,28.83589492,,,,,,,,,,,,,,,,,,masks/mask_002.jpg,,,,,,,,,,,,,,,,,,,,,,,,,,,,,,,,,,,,,,,,,,,,,,,,0,1,1,1,1,,,,,,,,,,,,,,,,,,,,,,,,,,,,,,,,,,,,,,,,,
722523,001,2022-11-20_23h47.40.398,Info_measure_main_exp,2022.2.2,Win32,28.83589492,,,,,,,,,,,,,,,,,,masks/mask_003.jpg,,,,,,,,,,,,,,,,,,,,,,,,,,,,,,,,,,,,,,,,,,,,,,,,0,2,2,2,1,,,,,,,,,,,,,,,,,,,,,,,,,,,,,,,,,,,,,,,,,
722523,001,2022-11-20_23h47.40.398,Info_measure_main_exp,2022.2.2,Win32,28.83589492,,,,,,,,,,,,,,,,,,masks/mask_005.jpg,,,,,,,,,,,,,,,,,,,,,,,,,,,,,,,,,,,,,,,,,,,,,,,,0,3,3,4,1,,,,,,,,,,,,,,,,,,,,,,,,,,,,,,,,,,,,,,,,,
722523,001,2022-11-20_23h47.40.398,Info_measure_main_exp,2022.2.2,Win32,28.83589492,,,,,,,,,,,,,,,,,,masks/mask_001.jpg,,,,,,,,,,,,,,,,,,,,,,,,,,,,,,,,,,,,,,,,,,,,,,,,0,4,4,0,1,,,,,,,,,,,,,,,,,,,,,,,,,,,,,,,,,,,,,,,,,
722523,001,2022-11-20_23h47.40.398,Info_measure_main_exp,2022.2.2,Win32,28.83589492,,,,,,,,,,,,,,,,,,,,,,,,,,,,,,6,2.3666,1,,,,,,,,,,,,0,131,5,5,2082,2166,absent_patch/patch0002082.jpg,absent_patch/patch0002166.jpg,,,,,,,,,,,,,,,,,,,,0.09629631,0.02870369,1,0,0,response1disk,9,0.009259259,0,1,0,0,center_square,0,8,8,43,1,,,,,,,,,,,,,,,,,,,,,,,
722523,001,2022-11-20_23h47.40.398,Info_measure_main_exp,2022.2.2,Win32,28.83589492,,,,,,,,,,,,,,,,,,masks/mask_002.jpg,,,,,,,,,,,,,,,,,,,,,,,,,,,,,,,,,,,,,,,,,,,0,0,0,1,1,,,,,,,,,,,,,,,,,,,,,,,,,,,,,,,,,,,,,,,,,,,,,,
722523,001,2022-11-20_23h47.40.398,Info_measure_main_exp,2022.2.2,Win32,28.83589492,,,,,,,,,,,,,,,,,,masks/mask_003.jpg,,,,,,,,,,,,,,,,,,,,,,,,,,,,,,,,,,,,,,,,,,,0,1,1,2,1,,,,,,,,,,,,,,,,,,,,,,,,,,,,,,,,,,,,,,,,,,,,,,
722523,001,2022-11-20_23h47.40.398,Info_measure_main_exp,2022.2.2,Win32,28.83589492,,,,,,,,,,,,,,,,,,masks/mask_004.jpg,,,,,,,,,,,,,,,,,,,,,,,,,,,,,,,,,,,,,,,,,,,0,2,2,3,1,,,,,,,,,,,,,,,,,,,,,,,,,,,,,,,,,,,,,,,,,,,,,,
722523,001,2022-11-20_23h47.40.398,Info_measure_main_exp,2022.2.2,Win32,28.83589492,,,,,,,,,,,,,,,,,,masks/mask_001.jpg,,,,,,,,,,,,,,,,,,,,,,,,,,,,,,,,,,,,,,,,,,,0,3,3,0,1,,,,,,,,,,,,,,,,,,,,,,,,,,,,,,,,,,,,,,,,,,,,,,
722523,001,2022-11-20_23h47.40.398,Info_measure_main_exp,2022.2.2,Win32,28.83589492,,,,,,,,,,,,,,,,,,masks/mask_005.jpg,,,,,,,,,,,,,,,,,,,,,,,,,,,,,,,,,,,,,,,,,,,0,4,4,4,1,,,,,,,,,,,,,,,,,,,,,,,,,,,,,,,,,,,,,,,,,,,,,,
722523,001,2022-11-20_23h47.40.398,Info_measure_main_exp,2022.2.2,Win32,28.83589492,,,,,,,,,,,,,,,,,,masks/mask_001.jpg,,,,,,,,,,,,,,,,,,,,,,,,,,,,,,,,,,,,,,,,,,,,,,,,0,0,0,0,1,,,,,,,,,,,,,,,,,,,,,,,,,,,,,,,,,,,,,,,,,
722523,001,2022-11-20_23h47.40.398,Info_measure_main_exp,2022.2.2,Win32,28.83589492,,,,,,,,,,,,,,,,,,masks/mask_002.jpg,,,,,,,,,,,,,,,,,,,,,,,,,,,,,,,,,,,,,,,,,,,,,,,,0,1,1,1,1,,,,,,,,,,,,,,,,,,,,,,,,,,,,,,,,,,,,,,,,,
722523,001,2022-11-20_23h47.40.398,Info_measure_main_exp,2022.2.2,Win32,28.83589492,,,,,,,,,,,,,,,,,,masks/mask_004.jpg,,,,,,,,,,,,,,,,,,,,,,,,,,,,,,,,,,,,,,,,,,,,,,,,0,2,2,3,1,,,,,,,,,,,,,,,,,,,,,,,,,,,,,,,,,,,,,,,,,
722523,001,2022-11-20_23h47.40.398,Info_measure_main_exp,2022.2.2,Win32,28.83589492,,,,,,,,,,,,,,,,,,masks/mask_005.jpg,,,,,,,,,,,,,,,,,,,,,,,,,,,,,,,,,,,,,,,,,,,,,,,,0,3,3,4,1,,,,,,,,,,,,,,,,,,,,,,,,,,,,,,,,,,,,,,,,,
722523,001,2022-11-20_23h47.40.398,Info_measure_main_exp,2022.2.2,Win32,28.83589492,,,,,,,,,,,,,,,,,,masks/mask_003.jpg,,,,,,,,,,,,,,,,,,,,,,,,,,,,,,,,,,,,,,,,,,,,,,,,0,4,4,2,1,,,,,,,,,,,,,,,,,,,,,,,,,,,,,,,,,,,,,,,,,
722523,001,2022-11-20_23h47.40.398,Info_measure_main_exp,2022.2.2,Win32,28.83589492,,,,,,,,,,,,,,,,,,,,,,,,,,,,,,3,3.0332,1,,,,,,,,,,,,0,131,5,5,2298,2142,absent_patch/patch0002298.jpg,absent_patch/patch0002142.jpg,,,,,,,,,,,,,,,,,,,,-0.046296296,-0.12037037,1,0,0,response5disk,10,0.006481524,0,1,0,0,center_square,0,9,9,49,1,,,,,,,,,,,,,,,,,,,,,,,
722523,001,2022-11-20_23h47.40.398,Info_measure_main_exp,2022.2.2,Win32,28.83589492,,,,,,,,,,,,,,,,,,masks/mask_003.jpg,,,,,,,,,,,,,,,,,,,,,,,,,,,,,,,,,,,,,,,,,,,0,0,0,2,1,,,,,,,,,,,,,,,,,,,,,,,,,,,,,,,,,,,,,,,,,,,,,,
722523,001,2022-11-20_23h47.40.398,Info_measure_main_exp,2022.2.2,Win32,28.83589492,,,,,,,,,,,,,,,,,,masks/mask_001.jpg,,,,,,,,,,,,,,,,,,,,,,,,,,,,,,,,,,,,,,,,,,,0,1,1,0,1,,,,,,,,,,,,,,,,,,,,,,,,,,,,,,,,,,,,,,,,,,,,,,
722523,001,2022-11-20_23h47.40.398,Info_measure_main_exp,2022.2.2,Win32,28.83589492,,,,,,,,,,,,,,,,,,masks/mask_005.jpg,,,,,,,,,,,,,,,,,,,,,,,,,,,,,,,,,,,,,,,,,,,0,2,2,4,1,,,,,,,,,,,,,,,,,,,,,,,,,,,,,,,,,,,,,,,,,,,,,,
722523,001,2022-11-20_23h47.40.398,Info_measure_main_exp,2022.2.2,Win32,28.83589492,,,,,,,,,,,,,,,,,,masks/mask_004.jpg,,,,,,,,,,,,,,,,,,,,,,,,,,,,,,,,,,,,,,,,,,,0,3,3,3,1,,,,,,,,,,,,,,,,,,,,,,,,,,,,,,,,,,,,,,,,,,,,,,
722523,001,2022-11-20_23h47.40.398,Info_measure_main_exp,2022.2.2,Win32,28.83589492,,,,,,,,,,,,,,,,,,masks/mask_002.jpg,,,,,,,,,,,,,,,,,,,,,,,,,,,,,,,,,,,,,,,,,,,0,4,4,1,1,,,,,,,,,,,,,,,,,,,,,,,,,,,,,,,,,,,,,,,,,,,,,,
722523,001,2022-11-20_23h47.40.398,Info_measure_main_exp,2022.2.2,Win32,28.83589492,,,,,,,,,,,,,,,,,,masks/mask_003.jpg,,,,,,,,,,,,,,,,,,,,,,,,,,,,,,,,,,,,,,,,,,,,,,,,0,0,0,2,1,,,,,,,,,,,,,,,,,,,,,,,,,,,,,,,,,,,,,,,,,
722523,001,2022-11-20_23h47.40.398,Info_measure_main_exp,2022.2.2,Win32,28.83589492,,,,,,,,,,,,,,,,,,masks/mask_005.jpg,,,,,,,,,,,,,,,,,,,,,,,,,,,,,,,,,,,,,,,,,,,,,,,,0,1,1,4,1,,,,,,,,,,,,,,,,,,,,,,,,,,,,,,,,,,,,,,,,,
722523,001,2022-11-20_23h47.40.398,Info_measure_main_exp,2022.2.2,Win32,28.83589492,,,,,,,,,,,,,,,,,,masks/mask_004.jpg,,,,,,,,,,,,,,,,,,,,,,,,,,,,,,,,,,,,,,,,,,,,,,,,0,2,2,3,1,,,,,,,,,,,,,,,,,,,,,,,,,,,,,,,,,,,,,,,,,
722523,001,2022-11-20_23h47.40.398,Info_measure_main_exp,2022.2.2,Win32,28.83589492,,,,,,,,,,,,,,,,,,masks/mask_001.jpg,,,,,,,,,,,,,,,,,,,,,,,,,,,,,,,,,,,,,,,,,,,,,,,,0,3,3,0,1,,,,,,,,,,,,,,,,,,,,,,,,,,,,,,,,,,,,,,,,,
722523,001,2022-11-20_23h47.40.398,Info_measure_main_exp,2022.2.2,Win32,28.83589492,,,,,,,,,,,,,,,,,,masks/mask_002.jpg,,,,,,,,,,,,,,,,,,,,,,,,,,,,,,,,,,,,,,,,,,,,,,,,0,4,4,1,1,,,,,,,,,,,,,,,,,,,,,,,,,,,,,,,,,,,,,,,,,
722523,001,2022-11-20_23h47.40.398,Info_measure_main_exp,2022.2.2,Win32,28.83589492,,,,,,,,,,,,,,,,,,,,,,,,,,,,,,6,1.6998,1,,,,,,,,,,,,0,131,5,5,2142,2154,absent_patch/patch0002142.jpg,absent_patch/patch0002154.jpg,,,,,,,,,,,,,,,,,,,,0.110185199,0.032407407,1,0,0,response1disk,11,0.006481524,0.00462963,1,0,0,center_square,0,10,10,9,1,,,,,,,,,,,,,,,,,,,,,,,
722523,001,2022-11-20_23h47.40.398,Info_measure_main_exp,2022.2.2,Win32,28.83589492,,,,,,,,,,,,,,,,,,masks/mask_002.jpg,,,,,,,,,,,,,,,,,,,,,,,,,,,,,,,,,,,,,,,,,,,0,0,0,1,1,,,,,,,,,,,,,,,,,,,,,,,,,,,,,,,,,,,,,,,,,,,,,,
722523,001,2022-11-20_23h47.40.398,Info_measure_main_exp,2022.2.2,Win32,28.83589492,,,,,,,,,,,,,,,,,,masks/mask_005.jpg,,,,,,,,,,,,,,,,,,,,,,,,,,,,,,,,,,,,,,,,,,,0,1,1,4,1,,,,,,,,,,,,,,,,,,,,,,,,,,,,,,,,,,,,,,,,,,,,,,
722523,001,2022-11-20_23h47.40.398,Info_measure_main_exp,2022.2.2,Win32,28.83589492,,,,,,,,,,,,,,,,,,masks/mask_004.jpg,,,,,,,,,,,,,,,,,,,,,,,,,,,,,,,,,,,,,,,,,,,0,2,2,3,1,,,,,,,,,,,,,,,,,,,,,,,,,,,,,,,,,,,,,,,,,,,,,,
722523,001,2022-11-20_23h47.40.398,Info_measure_main_exp,2022.2.2,Win32,28.83589492,,,,,,,,,,,,,,,,,,masks/mask_003.jpg,,,,,,,,,,,,,,,,,,,,,,,,,,,,,,,,,,,,,,,,,,,0,3,3,2,1,,,,,,,,,,,,,,,,,,,,,,,,,,,,,,,,,,,,,,,,,,,,,,
722523,001,2022-11-20_23h47.40.398,Info_measure_main_exp,2022.2.2,Win32,28.83589492,,,,,,,,,,,,,,,,,,masks/mask_001.jpg,,,,,,,,,,,,,,,,,,,,,,,,,,,,,,,,,,,,,,,,,,,0,4,4,0,1,,,,,,,,,,,,,,,,,,,,,,,,,,,,,,,,,,,,,,,,,,,,,,
722523,001,2022-11-20_23h47.40.398,Info_measure_main_exp,2022.2.2,Win32,28.83589492,,,,,,,,,,,,,,,,,,masks/mask_001.jpg,,,,,,,,,,,,,,,,,,,,,,,,,,,,,,,,,,,,,,,,,,,,,,,,0,0,0,0,1,,,,,,,,,,,,,,,,,,,,,,,,,,,,,,,,,,,,,,,,,
722523,001,2022-11-20_23h47.40.398,Info_measure_main_exp,2022.2.2,Win32,28.83589492,,,,,,,,,,,,,,,,,,masks/mask_003.jpg,,,,,,,,,,,,,,,,,,,,,,,,,,,,,,,,,,,,,,,,,,,,,,,,0,1,1,2,1,,,,,,,,,,,,,,,,,,,,,,,,,,,,,,,,,,,,,,,,,
722523,001,2022-11-20_23h47.40.398,Info_measure_main_exp,2022.2.2,Win32,28.83589492,,,,,,,,,,,,,,,,,,masks/mask_005.jpg,,,,,,,,,,,,,,,,,,,,,,,,,,,,,,,,,,,,,,,,,,,,,,,,0,2,2,4,1,,,,,,,,,,,,,,,,,,,,,,,,,,,,,,,,,,,,,,,,,
722523,001,2022-11-20_23h47.40.398,Info_measure_main_exp,2022.2.2,Win32,28.83589492,,,,,,,,,,,,,,,,,,masks/mask_002.jpg,,,,,,,,,,,,,,,,,,,,,,,,,,,,,,,,,,,,,,,,,,,,,,,,0,3,3,1,1,,,,,,,,,,,,,,,,,,,,,,,,,,,,,,,,,,,,,,,,,
722523,001,2022-11-20_23h47.40.398,Info_measure_main_exp,2022.2.2,Win32,28.83589492,,,,,,,,,,,,,,,,,,masks/mask_004.jpg,,,,,,,,,,,,,,,,,,,,,,,,,,,,,,,,,,,,,,,,,,,,,,,,0,4,4,3,1,,,,,,,,,,,,,,,,,,,,,,,,,,,,,,,,,,,,,,,,,
722523,001,2022-11-20_23h47.40.398,Info_measure_main_exp,2022.2.2,Win32,28.83589492,,,,,,,,,,,,,,,,,,,,,,,,,,,,,,2,2.3006,1,,,,,,,,,,,,0,131,5,5,2298,2190,absent_patch/patch0002298.jpg,absent_patch/patch0002190.jpg,,,,,,,,,,,,,,,,,,,,-0.115740741,-0.048148155,1,0,0,response5disk,12,0.003703718,0.003703683,1,0,0,center_square,0,11,11,20,1,,,,,,,,,,,,,,,,,,,,,,,
722523,001,2022-11-20_23h47.40.398,Info_measure_main_exp,2022.2.2,Win32,28.83589492,,,,,,,,,,,,,,,,,,masks/mask_004.jpg,,,,,,,,,,,,,,,,,,,,,,,,,,,,,,,,,,,,,,,,,,,0,0,0,3,1,,,,,,,,,,,,,,,,,,,,,,,,,,,,,,,,,,,,,,,,,,,,,,
722523,001,2022-11-20_23h47.40.398,Info_measure_main_exp,2022.2.2,Win32,28.83589492,,,,,,,,,,,,,,,,,,masks/mask_002.jpg,,,,,,,,,,,,,,,,,,,,,,,,,,,,,,,,,,,,,,,,,,,0,1,1,1,1,,,,,,,,,,,,,,,,,,,,,,,,,,,,,,,,,,,,,,,,,,,,,,
722523,001,2022-11-20_23h47.40.398,Info_measure_main_exp,2022.2.2,Win32,28.83589492,,,,,,,,,,,,,,,,,,masks/mask_003.jpg,,,,,,,,,,,,,,,,,,,,,,,,,,,,,,,,,,,,,,,,,,,0,2,2,2,1,,,,,,,,,,,,,,,,,,,,,,,,,,,,,,,,,,,,,,,,,,,,,,
722523,001,2022-11-20_23h47.40.398,Info_measure_main_exp,2022.2.2,Win32,28.83589492,,,,,,,,,,,,,,,,,,masks/mask_001.jpg,,,,,,,,,,,,,,,,,,,,,,,,,,,,,,,,,,,,,,,,,,,0,3,3,0,1,,,,,,,,,,,,,,,,,,,,,,,,,,,,,,,,,,,,,,,,,,,,,,
722523,001,2022-11-20_23h47.40.398,Info_measure_main_exp,2022.2.2,Win32,28.83589492,,,,,,,,,,,,,,,,,,masks/mask_005.jpg,,,,,,,,,,,,,,,,,,,,,,,,,,,,,,,,,,,,,,,,,,,0,4,4,4,1,,,,,,,,,,,,,,,,,,,,,,,,,,,,,,,,,,,,,,,,,,,,,,
722523,001,2022-11-20_23h47.40.398,Info_measure_main_exp,2022.2.2,Win32,28.83589492,,,,,,,,,,,,,,,,,,masks/mask_005.jpg,,,,,,,,,,,,,,,,,,,,,,,,,,,,,,,,,,,,,,,,,,,,,,,,0,0,0,4,1,,,,,,,,,,,,,,,,,,,,,,,,,,,,,,,,,,,,,,,,,
722523,001,2022-11-20_23h47.40.398,Info_measure_main_exp,2022.2.2,Win32,28.83589492,,,,,,,,,,,,,,,,,,masks/mask_001.jpg,,,,,,,,,,,,,,,,,,,,,,,,,,,,,,,,,,,,,,,,,,,,,,,,0,1,1,0,1,,,,,,,,,,,,,,,,,,,,,,,,,,,,,,,,,,,,,,,,,
722523,001,2022-11-20_23h47.40.398,Info_measure_main_exp,2022.2.2,Win32,28.83589492,,,,,,,,,,,,,,,,,,masks/mask_003.jpg,,,,,,,,,,,,,,,,,,,,,,,,,,,,,,,,,,,,,,,,,,,,,,,,0,2,2,2,1,,,,,,,,,,,,,,,,,,,,,,,,,,,,,,,,,,,,,,,,,
722523,001,2022-11-20_23h47.40.398,Info_measure_main_exp,2022.2.2,Win32,28.83589492,,,,,,,,,,,,,,,,,,masks/mask_004.jpg,,,,,,,,,,,,,,,,,,,,,,,,,,,,,,,,,,,,,,,,,,,,,,,,0,3,3,3,1,,,,,,,,,,,,,,,,,,,,,,,,,,,,,,,,,,,,,,,,,
722523,001,2022-11-20_23h47.40.398,Info_measure_main_exp,2022.2.2,Win32,28.83589492,,,,,,,,,,,,,,,,,,masks/mask_002.jpg,,,,,,,,,,,,,,,,,,,,,,,,,,,,,,,,,,,,,,,,,,,,,,,,0,4,4,1,1,,,,,,,,,,,,,,,,,,,,,,,,,,,,,,,,,,,,,,,,,
722523,001,2022-11-20_23h47.40.398,Info_measure_main_exp,2022.2.2,Win32,28.83589492,,,,,,,,,,,,,,,,,,,,,,,,,,,,,,6,0.8991,1,,,,,,,,,,,,0,131,5,5,2298,1986,absent_patch/patch0002298.jpg,absent_patch/patch0001986.jpg,,,,,,,,,,,,,,,,,,,,0.090740769,0.060185185,1,0,0,response1disk,13,0.006481524,0.0074074,1,0,0,center_square,0,12,12,32,1,,,,,,,,,,,,,,,,,,,,,,,
722523,001,2022-11-20_23h47.40.398,Info_measure_main_exp,2022.2.2,Win32,28.83589492,,,,,,,,,,,,,,,,,,masks/mask_005.jpg,,,,,,,,,,,,,,,,,,,,,,,,,,,,,,,,,,,,,,,,,,,0,0,0,4,1,,,,,,,,,,,,,,,,,,,,,,,,,,,,,,,,,,,,,,,,,,,,,,
722523,001,2022-11-20_23h47.40.398,Info_measure_main_exp,2022.2.2,Win32,28.83589492,,,,,,,,,,,,,,,,,,masks/mask_004.jpg,,,,,,,,,,,,,,,,,,,,,,,,,,,,,,,,,,,,,,,,,,,0,1,1,3,1,,,,,,,,,,,,,,,,,,,,,,,,,,,,,,,,,,,,,,,,,,,,,,
722523,001,2022-11-20_23h47.40.398,Info_measure_main_exp,2022.2.2,Win32,28.83589492,,,,,,,,,,,,,,,,,,masks/mask_003.jpg,,,,,,,,,,,,,,,,,,,,,,,,,,,,,,,,,,,,,,,,,,,0,2,2,2,1,,,,,,,,,,,,,,,,,,,,,,,,,,,,,,,,,,,,,,,,,,,,,,
722523,001,2022-11-20_23h47.40.398,Info_measure_main_exp,2022.2.2,Win32,28.83589492,,,,,,,,,,,,,,,,,,masks/mask_002.jpg,,,,,,,,,,,,,,,,,,,,,,,,,,,,,,,,,,,,,,,,,,,0,3,3,1,1,,,,,,,,,,,,,,,,,,,,,,,,,,,,,,,,,,,,,,,,,,,,,,
722523,001,2022-11-20_23h47.40.398,Info_measure_main_exp,2022.2.2,Win32,28.83589492,,,,,,,,,,,,,,,,,,masks/mask_001.jpg,,,,,,,,,,,,,,,,,,,,,,,,,,,,,,,,,,,,,,,,,,,0,4,4,0,1,,,,,,,,,,,,,,,,,,,,,,,,,,,,,,,,,,,,,,,,,,,,,,
722523,001,2022-11-20_23h47.40.398,Info_measure_main_exp,2022.2.2,Win32,28.83589492,,,,,,,,,,,,,,,,,,masks/mask_003.jpg,,,,,,,,,,,,,,,,,,,,,,,,,,,,,,,,,,,,,,,,,,,,,,,,0,0,0,2,1,,,,,,,,,,,,,,,,,,,,,,,,,,,,,,,,,,,,,,,,,
722523,001,2022-11-20_23h47.40.398,Info_measure_main_exp,2022.2.2,Win32,28.83589492,,,,,,,,,,,,,,,,,,masks/mask_005.jpg,,,,,,,,,,,,,,,,,,,,,,,,,,,,,,,,,,,,,,,,,,,,,,,,0,1,1,4,1,,,,,,,,,,,,,,,,,,,,,,,,,,,,,,,,,,,,,,,,,
722523,001,2022-11-20_23h47.40.398,Info_measure_main_exp,2022.2.2,Win32,28.83589492,,,,,,,,,,,,,,,,,,masks/mask_004.jpg,,,,,,,,,,,,,,,,,,,,,,,,,,,,,,,,,,,,,,,,,,,,,,,,0,2,2,3,1,,,,,,,,,,,,,,,,,,,,,,,,,,,,,,,,,,,,,,,,,
722523,001,2022-11-20_23h47.40.398,Info_measure_main_exp,2022.2.2,Win32,28.83589492,,,,,,,,,,,,,,,,,,masks/mask_001.jpg,,,,,,,,,,,,,,,,,,,,,,,,,,,,,,,,,,,,,,,,,,,,,,,,0,3,3,0,1,,,,,,,,,,,,,,,,,,,,,,,,,,,,,,,,,,,,,,,,,
722523,001,2022-11-20_23h47.40.398,Info_measure_main_exp,2022.2.2,Win32,28.83589492,,,,,,,,,,,,,,,,,,masks/mask_002.jpg,,,,,,,,,,,,,,,,,,,,,,,,,,,,,,,,,,,,,,,,,,,,,,,,0,4,4,1,1,,,,,,,,,,,,,,,,,,,,,,,,,,,,,,,,,,,,,,,,,
722523,001,2022-11-20_23h47.40.398,Info_measure_main_exp,2022.2.2,Win32,28.83589492,,,,,,,,,,,,,,,,,,,,,,,,,,,,,,3,1.5007,1,,,,,,,,,,,,0,131,5,5,2190,1950,absent_patch/patch0002190.jpg,absent_patch/patch0001950.jpg,,,,,,,,,,,,,,,,,,,,-0.025925884,-0.091666681,1,0,0,response5disk,14,-0.002777735,0.009259259,1,0,0,center_square,0,13,13,73,1,,,,,,,,,,,,,,,,,,,,,,,
722523,001,2022-11-20_23h47.40.398,Info_measure_main_exp,2022.2.2,Win32,28.83589492,,,,,,,,,,,,,,,,,,masks/mask_001.jpg,,,,,,,,,,,,,,,,,,,,,,,,,,,,,,,,,,,,,,,,,,,0,0,0,0,1,,,,,,,,,,,,,,,,,,,,,,,,,,,,,,,,,,,,,,,,,,,,,,
722523,001,2022-11-20_23h47.40.398,Info_measure_main_exp,2022.2.2,Win32,28.83589492,,,,,,,,,,,,,,,,,,masks/mask_003.jpg,,,,,,,,,,,,,,,,,,,,,,,,,,,,,,,,,,,,,,,,,,,0,1,1,2,1,,,,,,,,,,,,,,,,,,,,,,,,,,,,,,,,,,,,,,,,,,,,,,
722523,001,2022-11-20_23h47.40.398,Info_measure_main_exp,2022.2.2,Win32,28.83589492,,,,,,,,,,,,,,,,,,masks/mask_004.jpg,,,,,,,,,,,,,,,,,,,,,,,,,,,,,,,,,,,,,,,,,,,0,2,2,3,1,,,,,,,,,,,,,,,,,,,,,,,,,,,,,,,,,,,,,,,,,,,,,,
722523,001,2022-11-20_23h47.40.398,Info_measure_main_exp,2022.2.2,Win32,28.83589492,,,,,,,,,,,,,,,,,,masks/mask_002.jpg,,,,,,,,,,,,,,,,,,,,,,,,,,,,,,,,,,,,,,,,,,,0,3,3,1,1,,,,,,,,,,,,,,,,,,,,,,,,,,,,,,,,,,,,,,,,,,,,,,
722523,001,2022-11-20_23h47.40.398,Info_measure_main_exp,2022.2.2,Win32,28.83589492,,,,,,,,,,,,,,,,,,masks/mask_005.jpg,,,,,,,,,,,,,,,,,,,,,,,,,,,,,,,,,,,,,,,,,,,0,4,4,4,1,,,,,,,,,,,,,,,,,,,,,,,,,,,,,,,,,,,,,,,,,,,,,,
722523,001,2022-11-20_23h47.40.398,Info_measure_main_exp,2022.2.2,Win32,28.83589492,,,,,,,,,,,,,,,,,,masks/mask_003.jpg,,,,,,,,,,,,,,,,,,,,,,,,,,,,,,,,,,,,,,,,,,,,,,,,0,0,0,2,1,,,,,,,,,,,,,,,,,,,,,,,,,,,,,,,,,,,,,,,,,
722523,001,2022-11-20_23h47.40.398,Info_measure_main_exp,2022.2.2,Win32,28.83589492,,,,,,,,,,,,,,,,,,masks/mask_002.jpg,,,,,,,,,,,,,,,,,,,,,,,,,,,,,,,,,,,,,,,,,,,,,,,,0,1,1,1,1,,,,,,,,,,,,,,,,,,,,,,,,,,,,,,,,,,,,,,,,,
722523,001,2022-11-20_23h47.40.398,Info_measure_main_exp,2022.2.2,Win32,28.83589492,,,,,,,,,,,,,,,,,,masks/mask_005.jpg,,,,,,,,,,,,,,,,,,,,,,,,,,,,,,,,,,,,,,,,,,,,,,,,0,2,2,4,1,,,,,,,,,,,,,,,,,,,,,,,,,,,,,,,,,,,,,,,,,
722523,001,2022-11-20_23h47.40.398,Info_measure_main_exp,2022.2.2,Win32,28.83589492,,,,,,,,,,,,,,,,,,masks/mask_004.jpg,,,,,,,,,,,,,,,,,,,,,,,,,,,,,,,,,,,,,,,,,,,,,,,,0,3,3,3,1,,,,,,,,,,,,,,,,,,,,,,,,,,,,,,,,,,,,,,,,,
722523,001,2022-11-20_23h47.40.398,Info_measure_main_exp,2022.2.2,Win32,28.83589492,,,,,,,,,,,,,,,,,,masks/mask_001.jpg,,,,,,,,,,,,,,,,,,,,,,,,,,,,,,,,,,,,,,,,,,,,,,,,0,4,4,0,1,,,,,,,,,,,,,,,,,,,,,,,,,,,,,,,,,,,,,,,,,
722523,001,2022-11-20_23h47.40.398,Info_measure_main_exp,2022.2.2,Win32,28.83589492,,,,,,,,,,,,,,,,,,,,,,,,,,,,,,6,1.5664,1,,,,,,,,,,,,1,131,5,5,1,2154,present_patch/cong_131_5_a.jpg,absent_patch/patch0002154.jpg,,,,,,,,,,,,,,,,,,,,0.119444459,0.048148155,1,0,0,response1disk,15,-0.003703718,0.005555541,1,0,0,center_square,0,14,14,87,1,,,,,,,,,,,,,,,,,,,,,,,
722523,001,2022-11-20_23h47.40.398,Info_measure_main_exp,2022.2.2,Win32,28.83589492,,,,,,,,,,,,,,,,,,masks/mask_004.jpg,,,,,,,,,,,,,,,,,,,,,,,,,,,,,,,,,,,,,,,,,,,0,0,0,3,1,,,,,,,,,,,,,,,,,,,,,,,,,,,,,,,,,,,,,,,,,,,,,,
722523,001,2022-11-20_23h47.40.398,Info_measure_main_exp,2022.2.2,Win32,28.83589492,,,,,,,,,,,,,,,,,,masks/mask_005.jpg,,,,,,,,,,,,,,,,,,,,,,,,,,,,,,,,,,,,,,,,,,,0,1,1,4,1,,,,,,,,,,,,,,,,,,,,,,,,,,,,,,,,,,,,,,,,,,,,,,
722523,001,2022-11-20_23h47.40.398,Info_measure_main_exp,2022.2.2,Win32,28.83589492,,,,,,,,,,,,,,,,,,masks/mask_003.jpg,,,,,,,,,,,,,,,,,,,,,,,,,,,,,,,,,,,,,,,,,,,0,2,2,2,1,,,,,,,,,,,,,,,,,,,,,,,,,,,,,,,,,,,,,,,,,,,,,,
722523,001,2022-11-20_23h47.40.398,Info_measure_main_exp,2022.2.2,Win32,28.83589492,,,,,,,,,,,,,,,,,,masks/mask_002.jpg,,,,,,,,,,,,,,,,,,,,,,,,,,,,,,,,,,,,,,,,,,,0,3,3,1,1,,,,,,,,,,,,,,,,,,,,,,,,,,,,,,,,,,,,,,,,,,,,,,
722523,001,2022-11-20_23h47.40.398,Info_measure_main_exp,2022.2.2,Win32,28.83589492,,,,,,,,,,,,,,,,,,masks/mask_001.jpg,,,,,,,,,,,,,,,,,,,,,,,,,,,,,,,,,,,,,,,,,,,0,4,4,0,1,,,,,,,,,,,,,,,,,,,,,,,,,,,,,,,,,,,,,,,,,,,,,,
722523,001,2022-11-20_23h47.40.398,Info_measure_main_exp,2022.2.2,Win32,28.83589492,,,,,,,,,,,,,,,,,,masks/mask_003.jpg,,,,,,,,,,,,,,,,,,,,,,,,,,,,,,,,,,,,,,,,,,,,,,,,0,0,0,2,1,,,,,,,,,,,,,,,,,,,,,,,,,,,,,,,,,,,,,,,,,
722523,001,2022-11-20_23h47.40.398,Info_measure_main_exp,2022.2.2,Win32,28.83589492,,,,,,,,,,,,,,,,,,masks/mask_004.jpg,,,,,,,,,,,,,,,,,,,,,,,,,,,,,,,,,,,,,,,,,,,,,,,,0,1,1,3,1,,,,,,,,,,,,,,,,,,,,,,,,,,,,,,,,,,,,,,,,,
722523,001,2022-11-20_23h47.40.398,Info_measure_main_exp,2022.2.2,Win32,28.83589492,,,,,,,,,,,,,,,,,,masks/mask_001.jpg,,,,,,,,,,,,,,,,,,,,,,,,,,,,,,,,,,,,,,,,,,,,,,,,0,2,2,0,1,,,,,,,,,,,,,,,,,,,,,,,,,,,,,,,,,,,,,,,,,
722523,001,2022-11-20_23h47.40.398,Info_measure_main_exp,2022.2.2,Win32,28.83589492,,,,,,,,,,,,,,,,,,masks/mask_002.jpg,,,,,,,,,,,,,,,,,,,,,,,,,,,,,,,,,,,,,,,,,,,,,,,,0,3,3,1,1,,,,,,,,,,,,,,,,,,,,,,,,,,,,,,,,,,,,,,,,,
722523,001,2022-11-20_23h47.40.398,Info_measure_main_exp,2022.2.2,Win32,28.83589492,,,,,,,,,,,,,,,,,,masks/mask_005.jpg,,,,,,,,,,,,,,,,,,,,,,,,,,,,,,,,,,,,,,,,,,,,,,,,0,4,4,4,1,,,,,,,,,,,,,,,,,,,,,,,,,,,,,,,,,,,,,,,,,
722523,001,2022-11-20_23h47.40.398,Info_measure_main_exp,2022.2.2,Win32,28.83589492,,,,,,,,,,,,,,,,,,,,,,,,,,,,,,5,4.0665,1,,,,,,,,,,,,0,131,5,5,2214,2166,absent_patch/patch0002214.jpg,absent_patch/patch0002166.jpg,,,,,,,,,,,,,,,,,,,,0.152777778,-0.015740748,1,0,0,response3disk,16,0.008333347,0.000925912,1,0,0,center_square,0,15,15,109,1,,,,,,,,,,,,,,,,,,,,,,,
722523,001,2022-11-20_23h47.40.398,Info_measure_main_exp,2022.2.2,Win32,28.83589492,,,,,,,,,,,,,,,,,,masks/mask_003.jpg,,,,,,,,,,,,,,,,,,,,,,,,,,,,,,,,,,,,,,,,,,,0,0,0,2,1,,,,,,,,,,,,,,,,,,,,,,,,,,,,,,,,,,,,,,,,,,,,,,
722523,001,2022-11-20_23h47.40.398,Info_measure_main_exp,2022.2.2,Win32,28.83589492,,,,,,,,,,,,,,,,,,masks/mask_005.jpg,,,,,,,,,,,,,,,,,,,,,,,,,,,,,,,,,,,,,,,,,,,0,1,1,4,1,,,,,,,,,,,,,,,,,,,,,,,,,,,,,,,,,,,,,,,,,,,,,,
722523,001,2022-11-20_23h47.40.398,Info_measure_main_exp,2022.2.2,Win32,28.83589492,,,,,,,,,,,,,,,,,,masks/mask_001.jpg,,,,,,,,,,,,,,,,,,,,,,,,,,,,,,,,,,,,,,,,,,,0,2,2,0,1,,,,,,,,,,,,,,,,,,,,,,,,,,,,,,,,,,,,,,,,,,,,,,
722523,001,2022-11-20_23h47.40.398,Info_measure_main_exp,2022.2.2,Win32,28.83589492,,,,,,,,,,,,,,,,,,masks/mask_004.jpg,,,,,,,,,,,,,,,,,,,,,,,,,,,,,,,,,,,,,,,,,,,0,3,3,3,1,,,,,,,,,,,,,,,,,,,,,,,,,,,,,,,,,,,,,,,,,,,,,,
722523,001,2022-11-20_23h47.40.398,Info_measure_main_exp,2022.2.2,Win32,28.83589492,,,,,,,,,,,,,,,,,,masks/mask_002.jpg,,,,,,,,,,,,,,,,,,,,,,,,,,,,,,,,,,,,,,,,,,,0,4,4,1,1,,,,,,,,,,,,,,,,,,,,,,,,,,,,,,,,,,,,,,,,,,,,,,
722523,001,2022-11-20_23h47.40.398,Info_measure_main_exp,2022.2.2,Win32,28.83589492,,,,,,,,,,,,,,,,,,masks/mask_003.jpg,,,,,,,,,,,,,,,,,,,,,,,,,,,,,,,,,,,,,,,,,,,,,,,,0,0,0,2,1,,,,,,,,,,,,,,,,,,,,,,,,,,,,,,,,,,,,,,,,,
722523,001,2022-11-20_23h47.40.398,Info_measure_main_exp,2022.2.2,Win32,28.83589492,,,,,,,,,,,,,,,,,,masks/mask_005.jpg,,,,,,,,,,,,,,,,,,,,,,,,,,,,,,,,,,,,,,,,,,,,,,,,0,1,1,4,1,,,,,,,,,,,,,,,,,,,,,,,,,,,,,,,,,,,,,,,,,
722523,001,2022-11-20_23h47.40.398,Info_measure_main_exp,2022.2.2,Win32,28.83589492,,,,,,,,,,,,,,,,,,masks/mask_002.jpg,,,,,,,,,,,,,,,,,,,,,,,,,,,,,,,,,,,,,,,,,,,,,,,,0,2,2,1,1,,,,,,,,,,,,,,,,,,,,,,,,,,,,,,,,,,,,,,,,,
722523,001,2022-11-20_23h47.40.398,Info_measure_main_exp,2022.2.2,Win32,28.83589492,,,,,,,,,,,,,,,,,,masks/mask_001.jpg,,,,,,,,,,,,,,,,,,,,,,,,,,,,,,,,,,,,,,,,,,,,,,,,0,3,3,0,1,,,,,,,,,,,,,,,,,,,,,,,,,,,,,,,,,,,,,,,,,
722523,001,2022-11-20_23h47.40.398,Info_measure_main_exp,2022.2.2,Win32,28.83589492,,,,,,,,,,,,,,,,,,masks/mask_004.jpg,,,,,,,,,,,,,,,,,,,,,,,,,,,,,,,,,,,,,,,,,,,,,,,,0,4,4,3,1,,,,,,,,,,,,,,,,,,,,,,,,,,,,,,,,,,,,,,,,,
722523,001,2022-11-20_23h47.40.398,Info_measure_main_exp,2022.2.2,Win32,28.83589492,,,,,,,,,,,,,,,,,,,,,,,,,,,,,,6,1.5999,1,,,,,,,,,,,,0,131,5,5,2274,1950,absent_patch/patch0002274.jpg,absent_patch/patch0001950.jpg,,,,,,,,,,,,,,,,,,,,0.132407436,0.043518526,1,0,0,response1disk,17,0.008333347,-0.000925947,1,0,0,center_square,0,16,16,10,1,,,,,,,,,,,,,,,,,,,,,,,
722523,001,2022-11-20_23h47.40.398,Info_measure_main_exp,2022.2.2,Win32,28.83589492,,,,,,,,,,,,,,,,,,masks/mask_002.jpg,,,,,,,,,,,,,,,,,,,,,,,,,,,,,,,,,,,,,,,,,,,0,0,0,1,1,,,,,,,,,,,,,,,,,,,,,,,,,,,,,,,,,,,,,,,,,,,,,,
722523,001,2022-11-20_23h47.40.398,Info_measure_main_exp,2022.2.2,Win32,28.83589492,,,,,,,,,,,,,,,,,,masks/mask_005.jpg,,,,,,,,,,,,,,,,,,,,,,,,,,,,,,,,,,,,,,,,,,,0,1,1,4,1,,,,,,,,,,,,,,,,,,,,,,,,,,,,,,,,,,,,,,,,,,,,,,
722523,001,2022-11-20_23h47.40.398,Info_measure_main_exp,2022.2.2,Win32,28.83589492,,,,,,,,,,,,,,,,,,masks/mask_003.jpg,,,,,,,,,,,,,,,,,,,,,,,,,,,,,,,,,,,,,,,,,,,0,2,2,2,1,,,,,,,,,,,,,,,,,,,,,,,,,,,,,,,,,,,,,,,,,,,,,,
722523,001,2022-11-20_23h47.40.398,Info_measure_main_exp,2022.2.2,Win32,28.83589492,,,,,,,,,,,,,,,,,,masks/mask_001.jpg,,,,,,,,,,,,,,,,,,,,,,,,,,,,,,,,,,,,,,,,,,,0,3,3,0,1,,,,,,,,,,,,,,,,,,,,,,,,,,,,,,,,,,,,,,,,,,,,,,
722523,001,2022-11-20_23h47.40.398,Info_measure_main_exp,2022.2.2,Win32,28.83589492,,,,,,,,,,,,,,,,,,masks/mask_004.jpg,,,,,,,,,,,,,,,,,,,,,,,,,,,,,,,,,,,,,,,,,,,0,4,4,3,1,,,,,,,,,,,,,,,,,,,,,,,,,,,,,,,,,,,,,,,,,,,,,,
722523,001,2022-11-20_23h47.40.398,Info_measure_main_exp,2022.2.2,Win32,28.83589492,,,,,,,,,,,,,,,,,,masks/mask_004.jpg,,,,,,,,,,,,,,,,,,,,,,,,,,,,,,,,,,,,,,,,,,,,,,,,0,0,0,3,1,,,,,,,,,,,,,,,,,,,,,,,,,,,,,,,,,,,,,,,,,
722523,001,2022-11-20_23h47.40.398,Info_measure_main_exp,2022.2.2,Win32,28.83589492,,,,,,,,,,,,,,,,,,masks/mask_001.jpg,,,,,,,,,,,,,,,,,,,,,,,,,,,,,,,,,,,,,,,,,,,,,,,,0,1,1,0,1,,,,,,,,,,,,,,,,,,,,,,,,,,,,,,,,,,,,,,,,,
722523,001,2022-11-20_23h47.40.398,Info_measure_main_exp,2022.2.2,Win32,28.83589492,,,,,,,,,,,,,,,,,,masks/mask_005.jpg,,,,,,,,,,,,,,,,,,,,,,,,,,,,,,,,,,,,,,,,,,,,,,,,0,2,2,4,1,,,,,,,,,,,,,,,,,,,,,,,,,,,,,,,,,,,,,,,,,
722523,001,2022-11-20_23h47.40.398,Info_measure_main_exp,2022.2.2,Win32,28.83589492,,,,,,,,,,,,,,,,,,masks/mask_003.jpg,,,,,,,,,,,,,,,,,,,,,,,,,,,,,,,,,,,,,,,,,,,,,,,,0,3,3,2,1,,,,,,,,,,,,,,,,,,,,,,,,,,,,,,,,,,,,,,,,,
722523,001,2022-11-20_23h47.40.398,Info_measure_main_exp,2022.2.2,Win32,28.83589492,,,,,,,,,,,,,,,,,,masks/mask_002.jpg,,,,,,,,,,,,,,,,,,,,,,,,,,,,,,,,,,,,,,,,,,,,,,,,0,4,4,1,1,,,,,,,,,,,,,,,,,,,,,,,,,,,,,,,,,,,,,,,,,
722523,001,2022-11-20_23h47.40.398,Info_measure_main_exp,2022.2.2,Win32,28.83589492,,,,,,,,,,,,,,,,,,,,,,,,,,,,,,7,1.3005,1,,,,,,,,,,,,1,131,5,5,1950,1,absent_patch/patch0001950.jpg,present_patch/cong_131_5_a.jpg,,,,,,,,,,,,,,,,,,,,0.035185213,0.114814794,1,0,0,response1disk,18,-0.005555541,0.003703683,1,0,0,center_square,0,17,17,39,1,,,,,,,,,,,,,,,,,,,,,,,
722523,001,2022-11-20_23h47.40.398,Info_measure_main_exp,2022.2.2,Win32,28.83589492,,,,,,,,,,,,,,,,,,masks/mask_005.jpg,,,,,,,,,,,,,,,,,,,,,,,,,,,,,,,,,,,,,,,,,,,0,0,0,4,1,,,,,,,,,,,,,,,,,,,,,,,,,,,,,,,,,,,,,,,,,,,,,,
722523,001,2022-11-20_23h47.40.398,Info_measure_main_exp,2022.2.2,Win32,28.83589492,,,,,,,,,,,,,,,,,,masks/mask_003.jpg,,,,,,,,,,,,,,,,,,,,,,,,,,,,,,,,,,,,,,,,,,,0,1,1,2,1,,,,,,,,,,,,,,,,,,,,,,,,,,,,,,,,,,,,,,,,,,,,,,
722523,001,2022-11-20_23h47.40.398,Info_measure_main_exp,2022.2.2,Win32,28.83589492,,,,,,,,,,,,,,,,,,masks/mask_002.jpg,,,,,,,,,,,,,,,,,,,,,,,,,,,,,,,,,,,,,,,,,,,0,2,2,1,1,,,,,,,,,,,,,,,,,,,,,,,,,,,,,,,,,,,,,,,,,,,,,,
722523,001,2022-11-20_23h47.40.398,Info_measure_main_exp,2022.2.2,Win32,28.83589492,,,,,,,,,,,,,,,,,,masks/mask_004.jpg,,,,,,,,,,,,,,,,,,,,,,,,,,,,,,,,,,,,,,,,,,,0,3,3,3,1,,,,,,,,,,,,,,,,,,,,,,,,,,,,,,,,,,,,,,,,,,,,,,
722523,001,2022-11-20_23h47.40.398,Info_measure_main_exp,2022.2.2,Win32,28.83589492,,,,,,,,,,,,,,,,,,masks/mask_001.jpg,,,,,,,,,,,,,,,,,,,,,,,,,,,,,,,,,,,,,,,,,,,0,4,4,0,1,,,,,,,,,,,,,,,,,,,,,,,,,,,,,,,,,,,,,,,,,,,,,,
722523,001,2022-11-20_23h47.40.398,Info_measure_main_exp,2022.2.2,Win32,28.83589492,,,,,,,,,,,,,,,,,,masks/mask_002.jpg,,,,,,,,,,,,,,,,,,,,,,,,,,,,,,,,,,,,,,,,,,,,,,,,0,0,0,1,1,,,,,,,,,,,,,,,,,,,,,,,,,,,,,,,,,,,,,,,,,
722523,001,2022-11-20_23h47.40.398,Info_measure_main_exp,2022.2.2,Win32,28.83589492,,,,,,,,,,,,,,,,,,masks/mask_004.jpg,,,,,,,,,,,,,,,,,,,,,,,,,,,,,,,,,,,,,,,,,,,,,,,,0,1,1,3,1,,,,,,,,,,,,,,,,,,,,,,,,,,,,,,,,,,,,,,,,,
722523,001,2022-11-20_23h47.40.398,Info_measure_main_exp,2022.2.2,Win32,28.83589492,,,,,,,,,,,,,,,,,,masks/mask_003.jpg,,,,,,,,,,,,,,,,,,,,,,,,,,,,,,,,,,,,,,,,,,,,,,,,0,2,2,2,1,,,,,,,,,,,,,,,,,,,,,,,,,,,,,,,,,,,,,,,,,
722523,001,2022-11-20_23h47.40.398,Info_measure_main_exp,2022.2.2,Win32,28.83589492,,,,,,,,,,,,,,,,,,masks/mask_005.jpg,,,,,,,,,,,,,,,,,,,,,,,,,,,,,,,,,,,,,,,,,,,,,,,,0,3,3,4,1,,,,,,,,,,,,,,,,,,,,,,,,,,,,,,,,,,,,,,,,,
722523,001,2022-11-20_23h47.40.398,Info_measure_main_exp,2022.2.2,Win32,28.83589492,,,,,,,,,,,,,,,,,,masks/mask_001.jpg,,,,,,,,,,,,,,,,,,,,,,,,,,,,,,,,,,,,,,,,,,,,,,,,0,4,4,0,1,,,,,,,,,,,,,,,,,,,,,,,,,,,,,,,,,,,,,,,,,
722523,001,2022-11-20_23h47.40.398,Info_measure_main_exp,2022.2.2,Win32,28.83589492,,,,,,,,,,,,,,,,,,,,,,,,,,,,,,1,1.9672,1,,,,,,,,,,,,0,131,5,5,2142,2142,absent_patch/patch0002142.jpg,absent_patch/patch0002142.jpg,,,,,,,,,,,,,,,,,,,,-0.123148106,0.046296296,1,0,0,response7disk,19,0,0.006481489,1,0,0,center_square,0,18,18,13,1,,,,,,,,,,,,,,,,,,,,,,,
722523,001,2022-11-20_23h47.40.398,Info_measure_main_exp,2022.2.2,Win32,28.83589492,,,,,,,,,,,,,,,,,,masks/mask_005.jpg,,,,,,,,,,,,,,,,,,,,,,,,,,,,,,,,,,,,,,,,,,,0,0,0,4,1,,,,,,,,,,,,,,,,,,,,,,,,,,,,,,,,,,,,,,,,,,,,,,
722523,001,2022-11-20_23h47.40.398,Info_measure_main_exp,2022.2.2,Win32,28.83589492,,,,,,,,,,,,,,,,,,masks/mask_001.jpg,,,,,,,,,,,,,,,,,,,,,,,,,,,,,,,,,,,,,,,,,,,0,1,1,0,1,,,,,,,,,,,,,,,,,,,,,,,,,,,,,,,,,,,,,,,,,,,,,,
722523,001,2022-11-20_23h47.40.398,Info_measure_main_exp,2022.2.2,Win32,28.83589492,,,,,,,,,,,,,,,,,,masks/mask_002.jpg,,,,,,,,,,,,,,,,,,,,,,,,,,,,,,,,,,,,,,,,,,,0,2,2,1,1,,,,,,,,,,,,,,,,,,,,,,,,,,,,,,,,,,,,,,,,,,,,,,
722523,001,2022-11-20_23h47.40.398,Info_measure_main_exp,2022.2.2,Win32,28.83589492,,,,,,,,,,,,,,,,,,masks/mask_003.jpg,,,,,,,,,,,,,,,,,,,,,,,,,,,,,,,,,,,,,,,,,,,0,3,3,2,1,,,,,,,,,,,,,,,,,,,,,,,,,,,,,,,,,,,,,,,,,,,,,,
722523,001,2022-11-20_23h47.40.398,Info_measure_main_exp,2022.2.2,Win32,28.83589492,,,,,,,,,,,,,,,,,,masks/mask_004.jpg,,,,,,,,,,,,,,,,,,,,,,,,,,,,,,,,,,,,,,,,,,,0,4,4,3,1,,,,,,,,,,,,,,,,,,,,,,,,,,,,,,,,,,,,,,,,,,,,,,
722523,001,2022-11-20_23h47.40.398,Info_measure_main_exp,2022.2.2,Win32,28.83589492,,,,,,,,,,,,,,,,,,masks/mask_002.jpg,,,,,,,,,,,,,,,,,,,,,,,,,,,,,,,,,,,,,,,,,,,,,,,,0,0,0,1,1,,,,,,,,,,,,,,,,,,,,,,,,,,,,,,,,,,,,,,,,,
722523,001,2022-11-20_23h47.40.398,Info_measure_main_exp,2022.2.2,Win32,28.83589492,,,,,,,,,,,,,,,,,,masks/mask_005.jpg,,,,,,,,,,,,,,,,,,,,,,,,,,,,,,,,,,,,,,,,,,,,,,,,0,1,1,4,1,,,,,,,,,,,,,,,,,,,,,,,,,,,,,,,,,,,,,,,,,
722523,001,2022-11-20_23h47.40.398,Info_measure_main_exp,2022.2.2,Win32,28.83589492,,,,,,,,,,,,,,,,,,masks/mask_004.jpg,,,,,,,,,,,,,,,,,,,,,,,,,,,,,,,,,,,,,,,,,,,,,,,,0,2,2,3,1,,,,,,,,,,,,,,,,,,,,,,,,,,,,,,,,,,,,,,,,,
722523,001,2022-11-20_23h47.40.398,Info_measure_main_exp,2022.2.2,Win32,28.83589492,,,,,,,,,,,,,,,,,,masks/mask_001.jpg,,,,,,,,,,,,,,,,,,,,,,,,,,,,,,,,,,,,,,,,,,,,,,,,0,3,3,0,1,,,,,,,,,,,,,,,,,,,,,,,,,,,,,,,,,,,,,,,,,
722523,001,2022-11-20_23h47.40.398,Info_measure_main_exp,2022.2.2,Win32,28.83589492,,,,,,,,,,,,,,,,,,masks/mask_003.jpg,,,,,,,,,,,,,,,,,,,,,,,,,,,,,,,,,,,,,,,,,,,,,,,,0,4,4,2,1,,,,,,,,,,,,,,,,,,,,,,,,,,,,,,,,,,,,,,,,,
722523,001,2022-11-20_23h47.40.398,Info_measure_main_exp,2022.2.2,Win32,28.83589492,,,,,,,,,,,,,,,,,,,,,,,,,,,,,,7,1.2007,1,,,,,,,,,,,,0,131,5,5,2082,2154,absent_patch/patch0002082.jpg,absent_patch/patch0002154.jpg,,,,,,,,,,,,,,,,,,,,0.033333319,0.16574072,1,0,0,response1disk,20,-0.00462963,0,1,0,0,center_square,0,19,19,33,1,,,,,,,,,,,,,,,,,,,,,,,
722523,001,2022-11-20_23h47.40.398,Info_measure_main_exp,2022.2.2,Win32,28.83589492,,,,,,,,,,,,,,,,,,masks/mask_005.jpg,,,,,,,,,,,,,,,,,,,,,,,,,,,,,,,,,,,,,,,,,,,0,0,0,4,1,,,,,,,,,,,,,,,,,,,,,,,,,,,,,,,,,,,,,,,,,,,,,,
722523,001,2022-11-20_23h47.40.398,Info_measure_main_exp,2022.2.2,Win32,28.83589492,,,,,,,,,,,,,,,,,,masks/mask_003.jpg,,,,,,,,,,,,,,,,,,,,,,,,,,,,,,,,,,,,,,,,,,,0,1,1,2,1,,,,,,,,,,,,,,,,,,,,,,,,,,,,,,,,,,,,,,,,,,,,,,
722523,001,2022-11-20_23h47.40.398,Info_measure_main_exp,2022.2.2,Win32,28.83589492,,,,,,,,,,,,,,,,,,masks/mask_001.jpg,,,,,,,,,,,,,,,,,,,,,,,,,,,,,,,,,,,,,,,,,,,0,2,2,0,1,,,,,,,,,,,,,,,,,,,,,,,,,,,,,,,,,,,,,,,,,,,,,,
722523,001,2022-11-20_23h47.40.398,Info_measure_main_exp,2022.2.2,Win32,28.83589492,,,,,,,,,,,,,,,,,,masks/mask_002.jpg,,,,,,,,,,,,,,,,,,,,,,,,,,,,,,,,,,,,,,,,,,,0,3,3,1,1,,,,,,,,,,,,,,,,,,,,,,,,,,,,,,,,,,,,,,,,,,,,,,
722523,001,2022-11-20_23h47.40.398,Info_measure_main_exp,2022.2.2,Win32,28.83589492,,,,,,,,,,,,,,,,,,masks/mask_004.jpg,,,,,,,,,,,,,,,,,,,,,,,,,,,,,,,,,,,,,,,,,,,0,4,4,3,1,,,,,,,,,,,,,,,,,,,,,,,,,,,,,,,,,,,,,,,,,,,,,,
722523,001,2022-11-20_23h47.40.398,Info_measure_main_exp,2022.2.2,Win32,28.83589492,,,,,,,,,,,,,,,,,,masks/mask_001.jpg,,,,,,,,,,,,,,,,,,,,,,,,,,,,,,,,,,,,,,,,,,,,,,,,0,0,0,0,1,,,,,,,,,,,,,,,,,,,,,,,,,,,,,,,,,,,,,,,,,
722523,001,2022-11-20_23h47.40.398,Info_measure_main_exp,2022.2.2,Win32,28.83589492,,,,,,,,,,,,,,,,,,masks/mask_005.jpg,,,,,,,,,,,,,,,,,,,,,,,,,,,,,,,,,,,,,,,,,,,,,,,,0,1,1,4,1,,,,,,,,,,,,,,,,,,,,,,,,,,,,,,,,,,,,,,,,,
722523,001,2022-11-20_23h47.40.398,Info_measure_main_exp,2022.2.2,Win32,28.83589492,,,,,,,,,,,,,,,,,,masks/mask_004.jpg,,,,,,,,,,,,,,,,,,,,,,,,,,,,,,,,,,,,,,,,,,,,,,,,0,2,2,3,1,,,,,,,,,,,,,,,,,,,,,,,,,,,,,,,,,,,,,,,,,
722523,001,2022-11-20_23h47.40.398,Info_measure_main_exp,2022.2.2,Win32,28.83589492,,,,,,,,,,,,,,,,,,masks/mask_003.jpg,,,,,,,,,,,,,,,,,,,,,,,,,,,,,,,,,,,,,,,,,,,,,,,,0,3,3,2,1,,,,,,,,,,,,,,,,,,,,,,,,,,,,,,,,,,,,,,,,,
722523,001,2022-11-20_23h47.40.398,Info_measure_main_exp,2022.2.2,Win32,28.83589492,,,,,,,,,,,,,,,,,,masks/mask_002.jpg,,,,,,,,,,,,,,,,,,,,,,,,,,,,,,,,,,,,,,,,,,,,,,,,0,4,4,1,1,,,,,,,,,,,,,,,,,,,,,,,,,,,,,,,,,,,,,,,,,
722523,001,2022-11-20_23h47.40.398,Info_measure_main_exp,2022.2.2,Win32,28.83589492,,,,,,,,,,,,,,,,,,,,,,,,,,,,,,6,2.0334,1,,,,,,,,,,,,0,131,5,5,2298,2298,absent_patch/patch0002298.jpg,absent_patch/patch0002298.jpg,,,,,,,,,,,,,,,,,,,,0.09629631,0.02407406,1,0,0,response1disk,21,0.003703718,-0.008333347,1,0,0,center_square,0,20,20,37,1,,,,,,,,,,,,,,,,,,,,,,,
722523,001,2022-11-20_23h47.40.398,Info_measure_main_exp,2022.2.2,Win32,28.83589492,,,,,,,,,,,,,,,,,,masks/mask_005.jpg,,,,,,,,,,,,,,,,,,,,,,,,,,,,,,,,,,,,,,,,,,,0,0,0,4,1,,,,,,,,,,,,,,,,,,,,,,,,,,,,,,,,,,,,,,,,,,,,,,
722523,001,2022-11-20_23h47.40.398,Info_measure_main_exp,2022.2.2,Win32,28.83589492,,,,,,,,,,,,,,,,,,masks/mask_004.jpg,,,,,,,,,,,,,,,,,,,,,,,,,,,,,,,,,,,,,,,,,,,0,1,1,3,1,,,,,,,,,,,,,,,,,,,,,,,,,,,,,,,,,,,,,,,,,,,,,,
722523,001,2022-11-20_23h47.40.398,Info_measure_main_exp,2022.2.2,Win32,28.83589492,,,,,,,,,,,,,,,,,,masks/mask_002.jpg,,,,,,,,,,,,,,,,,,,,,,,,,,,,,,,,,,,,,,,,,,,0,2,2,1,1,,,,,,,,,,,,,,,,,,,,,,,,,,,,,,,,,,,,,,,,,,,,,,
722523,001,2022-11-20_23h47.40.398,Info_measure_main_exp,2022.2.2,Win32,28.83589492,,,,,,,,,,,,,,,,,,masks/mask_003.jpg,,,,,,,,,,,,,,,,,,,,,,,,,,,,,,,,,,,,,,,,,,,0,3,3,2,1,,,,,,,,,,,,,,,,,,,,,,,,,,,,,,,,,,,,,,,,,,,,,,
722523,001,2022-11-20_23h47.40.398,Info_measure_main_exp,2022.2.2,Win32,28.83589492,,,,,,,,,,,,,,,,,,masks/mask_001.jpg,,,,,,,,,,,,,,,,,,,,,,,,,,,,,,,,,,,,,,,,,,,0,4,4,0,1,,,,,,,,,,,,,,,,,,,,,,,,,,,,,,,,,,,,,,,,,,,,,,
722523,001,2022-11-20_23h47.40.398,Info_measure_main_exp,2022.2.2,Win32,28.83589492,,,,,,,,,,,,,,,,,,masks/mask_003.jpg,,,,,,,,,,,,,,,,,,,,,,,,,,,,,,,,,,,,,,,,,,,,,,,,0,0,0,2,1,,,,,,,,,,,,,,,,,,,,,,,,,,,,,,,,,,,,,,,,,
722523,001,2022-11-20_23h47.40.398,Info_measure_main_exp,2022.2.2,Win32,28.83589492,,,,,,,,,,,,,,,,,,masks/mask_005.jpg,,,,,,,,,,,,,,,,,,,,,,,,,,,,,,,,,,,,,,,,,,,,,,,,0,1,1,4,1,,,,,,,,,,,,,,,,,,,,,,,,,,,,,,,,,,,,,,,,,
722523,001,2022-11-20_23h47.40.398,Info_measure_main_exp,2022.2.2,Win32,28.83589492,,,,,,,,,,,,,,,,,,masks/mask_002.jpg,,,,,,,,,,,,,,,,,,,,,,,,,,,,,,,,,,,,,,,,,,,,,,,,0,2,2,1,1,,,,,,,,,,,,,,,,,,,,,,,,,,,,,,,,,,,,,,,,,
722523,001,2022-11-20_23h47.40.398,Info_measure_main_exp,2022.2.2,Win32,28.83589492,,,,,,,,,,,,,,,,,,masks/mask_004.jpg,,,,,,,,,,,,,,,,,,,,,,,,,,,,,,,,,,,,,,,,,,,,,,,,0,3,3,3,1,,,,,,,,,,,,,,,,,,,,,,,,,,,,,,,,,,,,,,,,,
722523,001,2022-11-20_23h47.40.398,Info_measure_main_exp,2022.2.2,Win32,28.83589492,,,,,,,,,,,,,,,,,,masks/mask_001.jpg,,,,,,,,,,,,,,,,,,,,,,,,,,,,,,,,,,,,,,,,,,,,,,,,0,4,4,0,1,,,,,,,,,,,,,,,,,,,,,,,,,,,,,,,,,,,,,,,,,
722523,001,2022-11-20_23h47.40.398,Info_measure_main_exp,2022.2.2,Win32,28.83589492,,,,,,,,,,,,,,,,,,,,,,,,,,,,,,1,0.7674,1,,,,,,,,,,,,0,131,5,5,2082,2082,absent_patch/patch0002082.jpg,absent_patch/patch0002082.jpg,,,,,,,,,,,,,,,,,,,,-0.131481453,0.054629608,1,0,0,response7disk,22,0.008333347,-0.003703718,1,0,0,center_square,0,21,21,74,1,,,,,,,,,,,,,,,,,,,,,,,
722523,001,2022-11-20_23h47.40.398,Info_measure_main_exp,2022.2.2,Win32,28.83589492,,,,,,,,,,,,,,,,,,masks/mask_001.jpg,,,,,,,,,,,,,,,,,,,,,,,,,,,,,,,,,,,,,,,,,,,0,0,0,0,1,,,,,,,,,,,,,,,,,,,,,,,,,,,,,,,,,,,,,,,,,,,,,,
722523,001,2022-11-20_23h47.40.398,Info_measure_main_exp,2022.2.2,Win32,28.83589492,,,,,,,,,,,,,,,,,,masks/mask_002.jpg,,,,,,,,,,,,,,,,,,,,,,,,,,,,,,,,,,,,,,,,,,,0,1,1,1,1,,,,,,,,,,,,,,,,,,,,,,,,,,,,,,,,,,,,,,,,,,,,,,
722523,001,2022-11-20_23h47.40.398,Info_measure_main_exp,2022.2.2,Win32,28.83589492,,,,,,,,,,,,,,,,,,masks/mask_003.jpg,,,,,,,,,,,,,,,,,,,,,,,,,,,,,,,,,,,,,,,,,,,0,2,2,2,1,,,,,,,,,,,,,,,,,,,,,,,,,,,,,,,,,,,,,,,,,,,,,,
722523,001,2022-11-20_23h47.40.398,Info_measure_main_exp,2022.2.2,Win32,28.83589492,,,,,,,,,,,,,,,,,,masks/mask_005.jpg,,,,,,,,,,,,,,,,,,,,,,,,,,,,,,,,,,,,,,,,,,,0,3,3,4,1,,,,,,,,,,,,,,,,,,,,,,,,,,,,,,,,,,,,,,,,,,,,,,
722523,001,2022-11-20_23h47.40.398,Info_measure_main_exp,2022.2.2,Win32,28.83589492,,,,,,,,,,,,,,,,,,masks/mask_004.jpg,,,,,,,,,,,,,,,,,,,,,,,,,,,,,,,,,,,,,,,,,,,0,4,4,3,1,,,,,,,,,,,,,,,,,,,,,,,,,,,,,,,,,,,,,,,,,,,,,,
722523,001,2022-11-20_23h47.40.398,Info_measure_main_exp,2022.2.2,Win32,28.83589492,,,,,,,,,,,,,,,,,,masks/mask_002.jpg,,,,,,,,,,,,,,,,,,,,,,,,,,,,,,,,,,,,,,,,,,,,,,,,0,0,0,1,1,,,,,,,,,,,,,,,,,,,,,,,,,,,,,,,,,,,,,,,,,
722523,001,2022-11-20_23h47.40.398,Info_measure_main_exp,2022.2.2,Win32,28.83589492,,,,,,,,,,,,,,,,,,masks/mask_003.jpg,,,,,,,,,,,,,,,,,,,,,,,,,,,,,,,,,,,,,,,,,,,,,,,,0,1,1,2,1,,,,,,,,,,,,,,,,,,,,,,,,,,,,,,,,,,,,,,,,,
722523,001,2022-11-20_23h47.40.398,Info_measure_main_exp,2022.2.2,Win32,28.83589492,,,,,,,,,,,,,,,,,,masks/mask_004.jpg,,,,,,,,,,,,,,,,,,,,,,,,,,,,,,,,,,,,,,,,,,,,,,,,0,2,2,3,1,,,,,,,,,,,,,,,,,,,,,,,,,,,,,,,,,,,,,,,,,
722523,001,2022-11-20_23h47.40.398,Info_measure_main_exp,2022.2.2,Win32,28.83589492,,,,,,,,,,,,,,,,,,masks/mask_001.jpg,,,,,,,,,,,,,,,,,,,,,,,,,,,,,,,,,,,,,,,,,,,,,,,,0,3,3,0,1,,,,,,,,,,,,,,,,,,,,,,,,,,,,,,,,,,,,,,,,,
722523,001,2022-11-20_23h47.40.398,Info_measure_main_exp,2022.2.2,Win32,28.83589492,,,,,,,,,,,,,,,,,,masks/mask_005.jpg,,,,,,,,,,,,,,,,,,,,,,,,,,,,,,,,,,,,,,,,,,,,,,,,0,4,4,4,1,,,,,,,,,,,,,,,,,,,,,,,,,,,,,,,,,,,,,,,,,
722523,001,2022-11-20_23h47.40.398,Info_measure_main_exp,2022.2.2,Win32,28.83589492,,,,,,,,,,,,,,,,,,,,,,,,,,,,,,4,1.5339,1,,,,,,,,,,,,0,131,5,5,2190,2214,absent_patch/patch0002190.jpg,absent_patch/patch0002214.jpg,,,,,,,,,,,,,,,,,,,,0.037037037,-0.085185192,1,0,0,response3disk,23,0.006481524,0.0074074,1,0,0,center_square,0,22,22,35,1,,,,,,,,,,,,,,,,,,,,,,,
722523,001,2022-11-20_23h47.40.398,Info_measure_main_exp,2022.2.2,Win32,28.83589492,,,,,,,,,,,,,,,,,,masks/mask_002.jpg,,,,,,,,,,,,,,,,,,,,,,,,,,,,,,,,,,,,,,,,,,,0,0,0,1,1,,,,,,,,,,,,,,,,,,,,,,,,,,,,,,,,,,,,,,,,,,,,,,
722523,001,2022-11-20_23h47.40.398,Info_measure_main_exp,2022.2.2,Win32,28.83589492,,,,,,,,,,,,,,,,,,masks/mask_005.jpg,,,,,,,,,,,,,,,,,,,,,,,,,,,,,,,,,,,,,,,,,,,0,1,1,4,1,,,,,,,,,,,,,,,,,,,,,,,,,,,,,,,,,,,,,,,,,,,,,,
722523,001,2022-11-20_23h47.40.398,Info_measure_main_exp,2022.2.2,Win32,28.83589492,,,,,,,,,,,,,,,,,,masks/mask_004.jpg,,,,,,,,,,,,,,,,,,,,,,,,,,,,,,,,,,,,,,,,,,,0,2,2,3,1,,,,,,,,,,,,,,,,,,,,,,,,,,,,,,,,,,,,,,,,,,,,,,
722523,001,2022-11-20_23h47.40.398,Info_measure_main_exp,2022.2.2,Win32,28.83589492,,,,,,,,,,,,,,,,,,masks/mask_003.jpg,,,,,,,,,,,,,,,,,,,,,,,,,,,,,,,,,,,,,,,,,,,0,3,3,2,1,,,,,,,,,,,,,,,,,,,,,,,,,,,,,,,,,,,,,,,,,,,,,,
722523,001,2022-11-20_23h47.40.398,Info_measure_main_exp,2022.2.2,Win32,28.83589492,,,,,,,,,,,,,,,,,,masks/mask_001.jpg,,,,,,,,,,,,,,,,,,,,,,,,,,,,,,,,,,,,,,,,,,,0,4,4,0,1,,,,,,,,,,,,,,,,,,,,,,,,,,,,,,,,,,,,,,,,,,,,,,
722523,001,2022-11-20_23h47.40.398,Info_measure_main_exp,2022.2.2,Win32,28.83589492,,,,,,,,,,,,,,,,,,masks/mask_001.jpg,,,,,,,,,,,,,,,,,,,,,,,,,,,,,,,,,,,,,,,,,,,,,,,,0,0,0,0,1,,,,,,,,,,,,,,,,,,,,,,,,,,,,,,,,,,,,,,,,,
722523,001,2022-11-20_23h47.40.398,Info_measure_main_exp,2022.2.2,Win32,28.83589492,,,,,,,,,,,,,,,,,,masks/mask_002.jpg,,,,,,,,,,,,,,,,,,,,,,,,,,,,,,,,,,,,,,,,,,,,,,,,0,1,1,1,1,,,,,,,,,,,,,,,,,,,,,,,,,,,,,,,,,,,,,,,,,
722523,001,2022-11-20_23h47.40.398,Info_measure_main_exp,2022.2.2,Win32,28.83589492,,,,,,,,,,,,,,,,,,masks/mask_003.jpg,,,,,,,,,,,,,,,,,,,,,,,,,,,,,,,,,,,,,,,,,,,,,,,,0,2,2,2,1,,,,,,,,,,,,,,,,,,,,,,,,,,,,,,,,,,,,,,,,,
722523,001,2022-11-20_23h47.40.398,Info_measure_main_exp,2022.2.2,Win32,28.83589492,,,,,,,,,,,,,,,,,,masks/mask_004.jpg,,,,,,,,,,,,,,,,,,,,,,,,,,,,,,,,,,,,,,,,,,,,,,,,0,3,3,3,1,,,,,,,,,,,,,,,,,,,,,,,,,,,,,,,,,,,,,,,,,
722523,001,2022-11-20_23h47.40.398,Info_measure_main_exp,2022.2.2,Win32,28.83589492,,,,,,,,,,,,,,,,,,masks/mask_005.jpg,,,,,,,,,,,,,,,,,,,,,,,,,,,,,,,,,,,,,,,,,,,,,,,,0,4,4,4,1,,,,,,,,,,,,,,,,,,,,,,,,,,,,,,,,,,,,,,,,,
722523,001,2022-11-20_23h47.40.398,Info_measure_main_exp,2022.2.2,Win32,28.83589492,,,,,,,,,,,,,,,,,,,,,,,,,,,,,,3,1.9672,1,,,,,,,,,,,,0,131,5,5,1950,2142,absent_patch/patch0001950.jpg,absent_patch/patch0002142.jpg,,,,,,,,,,,,,,,,,,,,-0.069444444,-0.119444459,1,0,0,response5disk,24,0.003703718,0.00462963,1,0,0,center_square,0,23,23,83,1,,,,,,,,,,,,,,,,,,,,,,,
722523,001,2022-11-20_23h47.40.398,Info_measure_main_exp,2022.2.2,Win32,28.83589492,,,,,,,,,,,,,,,,,,masks/mask_001.jpg,,,,,,,,,,,,,,,,,,,,,,,,,,,,,,,,,,,,,,,,,,,0,0,0,0,1,,,,,,,,,,,,,,,,,,,,,,,,,,,,,,,,,,,,,,,,,,,,,,
722523,001,2022-11-20_23h47.40.398,Info_measure_main_exp,2022.2.2,Win32,28.83589492,,,,,,,,,,,,,,,,,,masks/mask_003.jpg,,,,,,,,,,,,,,,,,,,,,,,,,,,,,,,,,,,,,,,,,,,0,1,1,2,1,,,,,,,,,,,,,,,,,,,,,,,,,,,,,,,,,,,,,,,,,,,,,,
722523,001,2022-11-20_23h47.40.398,Info_measure_main_exp,2022.2.2,Win32,28.83589492,,,,,,,,,,,,,,,,,,masks/mask_005.jpg,,,,,,,,,,,,,,,,,,,,,,,,,,,,,,,,,,,,,,,,,,,0,2,2,4,1,,,,,,,,,,,,,,,,,,,,,,,,,,,,,,,,,,,,,,,,,,,,,,
722523,001,2022-11-20_23h47.40.398,Info_measure_main_exp,2022.2.2,Win32,28.83589492,,,,,,,,,,,,,,,,,,masks/mask_004.jpg,,,,,,,,,,,,,,,,,,,,,,,,,,,,,,,,,,,,,,,,,,,0,3,3,3,1,,,,,,,,,,,,,,,,,,,,,,,,,,,,,,,,,,,,,,,,,,,,,,
722523,001,2022-11-20_23h47.40.398,Info_measure_main_exp,2022.2.2,Win32,28.83589492,,,,,,,,,,,,,,,,,,masks/mask_002.jpg,,,,,,,,,,,,,,,,,,,,,,,,,,,,,,,,,,,,,,,,,,,0,4,4,1,1,,,,,,,,,,,,,,,,,,,,,,,,,,,,,,,,,,,,,,,,,,,,,,
722523,001,2022-11-20_23h47.40.398,Info_measure_main_exp,2022.2.2,Win32,28.83589492,,,,,,,,,,,,,,,,,,masks/mask_003.jpg,,,,,,,,,,,,,,,,,,,,,,,,,,,,,,,,,,,,,,,,,,,,,,,,0,0,0,2,1,,,,,,,,,,,,,,,,,,,,,,,,,,,,,,,,,,,,,,,,,
722523,001,2022-11-20_23h47.40.398,Info_measure_main_exp,2022.2.2,Win32,28.83589492,,,,,,,,,,,,,,,,,,masks/mask_001.jpg,,,,,,,,,,,,,,,,,,,,,,,,,,,,,,,,,,,,,,,,,,,,,,,,0,1,1,0,1,,,,,,,,,,,,,,,,,,,,,,,,,,,,,,,,,,,,,,,,,
722523,001,2022-11-20_23h47.40.398,Info_measure_main_exp,2022.2.2,Win32,28.83589492,,,,,,,,,,,,,,,,,,masks/mask_002.jpg,,,,,,,,,,,,,,,,,,,,,,,,,,,,,,,,,,,,,,,,,,,,,,,,0,2,2,1,1,,,,,,,,,,,,,,,,,,,,,,,,,,,,,,,,,,,,,,,,,
722523,001,2022-11-20_23h47.40.398,Info_measure_main_exp,2022.2.2,Win32,28.83589492,,,,,,,,,,,,,,,,,,masks/mask_005.jpg,,,,,,,,,,,,,,,,,,,,,,,,,,,,,,,,,,,,,,,,,,,,,,,,0,3,3,4,1,,,,,,,,,,,,,,,,,,,,,,,,,,,,,,,,,,,,,,,,,
722523,001,2022-11-20_23h47.40.398,Info_measure_main_exp,2022.2.2,Win32,28.83589492,,,,,,,,,,,,,,,,,,masks/mask_004.jpg,,,,,,,,,,,,,,,,,,,,,,,,,,,,,,,,,,,,,,,,,,,,,,,,0,4,4,3,1,,,,,,,,,,,,,,,,,,,,,,,,,,,,,,,,,,,,,,,,,
722523,001,2022-11-20_23h47.40.398,Info_measure_main_exp,2022.2.2,Win32,28.83589492,,,,,,,,,,,,,,,,,,,,,,,,,,,,,,3,2.0998,1,,,,,,,,,,,,0,131,5,5,2274,2154,absent_patch/patch0002274.jpg,absent_patch/patch0002154.jpg,,,,,,,,,,,,,,,,,,,,-0.011111083,-0.097222222,1,0,0,response5disk,25,0.00462963,0.01203703,1,0,0,center_square,0,24,24,23,1,,,,,,,,,,,,,,,,,,,,,,,
722523,001,2022-11-20_23h47.40.398,Info_measure_main_exp,2022.2.2,Win32,28.83589492,,,,,,,,,,,,,,,,,,masks/mask_002.jpg,,,,,,,,,,,,,,,,,,,,,,,,,,,,,,,,,,,,,,,,,,,0,0,0,1,1,,,,,,,,,,,,,,,,,,,,,,,,,,,,,,,,,,,,,,,,,,,,,,
722523,001,2022-11-20_23h47.40.398,Info_measure_main_exp,2022.2.2,Win32,28.83589492,,,,,,,,,,,,,,,,,,masks/mask_004.jpg,,,,,,,,,,,,,,,,,,,,,,,,,,,,,,,,,,,,,,,,,,,0,1,1,3,1,,,,,,,,,,,,,,,,,,,,,,,,,,,,,,,,,,,,,,,,,,,,,,
722523,001,2022-11-20_23h47.40.398,Info_measure_main_exp,2022.2.2,Win32,28.83589492,,,,,,,,,,,,,,,,,,masks/mask_001.jpg,,,,,,,,,,,,,,,,,,,,,,,,,,,,,,,,,,,,,,,,,,,0,2,2,0,1,,,,,,,,,,,,,,,,,,,,,,,,,,,,,,,,,,,,,,,,,,,,,,
722523,001,2022-11-20_23h47.40.398,Info_measure_main_exp,2022.2.2,Win32,28.83589492,,,,,,,,,,,,,,,,,,masks/mask_003.jpg,,,,,,,,,,,,,,,,,,,,,,,,,,,,,,,,,,,,,,,,,,,0,3,3,2,1,,,,,,,,,,,,,,,,,,,,,,,,,,,,,,,,,,,,,,,,,,,,,,
722523,001,2022-11-20_23h47.40.398,Info_measure_main_exp,2022.2.2,Win32,28.83589492,,,,,,,,,,,,,,,,,,masks/mask_005.jpg,,,,,,,,,,,,,,,,,,,,,,,,,,,,,,,,,,,,,,,,,,,0,4,4,4,1,,,,,,,,,,,,,,,,,,,,,,,,,,,,,,,,,,,,,,,,,,,,,,
722523,001,2022-11-20_23h47.40.398,Info_measure_main_exp,2022.2.2,Win32,28.83589492,,,,,,,,,,,,,,,,,,masks/mask_003.jpg,,,,,,,,,,,,,,,,,,,,,,,,,,,,,,,,,,,,,,,,,,,,,,,,0,0,0,2,1,,,,,,,,,,,,,,,,,,,,,,,,,,,,,,,,,,,,,,,,,
722523,001,2022-11-20_23h47.40.398,Info_measure_main_exp,2022.2.2,Win32,28.83589492,,,,,,,,,,,,,,,,,,masks/mask_005.jpg,,,,,,,,,,,,,,,,,,,,,,,,,,,,,,,,,,,,,,,,,,,,,,,,0,1,1,4,1,,,,,,,,,,,,,,,,,,,,,,,,,,,,,,,,,,,,,,,,,
722523,001,2022-11-20_23h47.40.398,Info_measure_main_exp,2022.2.2,Win32,28.83589492,,,,,,,,,,,,,,,,,,masks/mask_001.jpg,,,,,,,,,,,,,,,,,,,,,,,,,,,,,,,,,,,,,,,,,,,,,,,,0,2,2,0,1,,,,,,,,,,,,,,,,,,,,,,,,,,,,,,,,,,,,,,,,,
722523,001,2022-11-20_23h47.40.398,Info_measure_main_exp,2022.2.2,Win32,28.83589492,,,,,,,,,,,,,,,,,,masks/mask_002.jpg,,,,,,,,,,,,,,,,,,,,,,,,,,,,,,,,,,,,,,,,,,,,,,,,0,3,3,1,1,,,,,,,,,,,,,,,,,,,,,,,,,,,,,,,,,,,,,,,,,
722523,001,2022-11-20_23h47.40.398,Info_measure_main_exp,2022.2.2,Win32,28.83589492,,,,,,,,,,,,,,,,,,masks/mask_004.jpg,,,,,,,,,,,,,,,,,,,,,,,,,,,,,,,,,,,,,,,,,,,,,,,,0,4,4,3,1,,,,,,,,,,,,,,,,,,,,,,,,,,,,,,,,,,,,,,,,,
722523,001,2022-11-20_23h47.40.398,Info_measure_main_exp,2022.2.2,Win32,28.83589492,,,,,,,,,,,,,,,,,,,,,,,,,,,,,,3,2.3669,1,,,,,,,,,,,,0,131,5,5,2178,2142,absent_patch/patch0002178.jpg,absent_patch/patch0002142.jpg,,,,,,,,,,,,,,,,,,,,-0.055555556,-0.111111111,1,0,0,response5disk,26,0.010185171,-0.003703718,1,0,0,center_square,0,25,25,41,1,,,,,,,,,,,,,,,,,,,,,,,
722523,001,2022-11-20_23h47.40.398,Info_measure_main_exp,2022.2.2,Win32,28.83589492,,,,,,,,,,,,,,,,,,masks/mask_002.jpg,,,,,,,,,,,,,,,,,,,,,,,,,,,,,,,,,,,,,,,,,,,0,0,0,1,1,,,,,,,,,,,,,,,,,,,,,,,,,,,,,,,,,,,,,,,,,,,,,,
722523,001,2022-11-20_23h47.40.398,Info_measure_main_exp,2022.2.2,Win32,28.83589492,,,,,,,,,,,,,,,,,,masks/mask_004.jpg,,,,,,,,,,,,,,,,,,,,,,,,,,,,,,,,,,,,,,,,,,,0,1,1,3,1,,,,,,,,,,,,,,,,,,,,,,,,,,,,,,,,,,,,,,,,,,,,,,
722523,001,2022-11-20_23h47.40.398,Info_measure_main_exp,2022.2.2,Win32,28.83589492,,,,,,,,,,,,,,,,,,masks/mask_003.jpg,,,,,,,,,,,,,,,,,,,,,,,,,,,,,,,,,,,,,,,,,,,0,2,2,2,1,,,,,,,,,,,,,,,,,,,,,,,,,,,,,,,,,,,,,,,,,,,,,,
722523,001,2022-11-20_23h47.40.398,Info_measure_main_exp,2022.2.2,Win32,28.83589492,,,,,,,,,,,,,,,,,,masks/mask_001.jpg,,,,,,,,,,,,,,,,,,,,,,,,,,,,,,,,,,,,,,,,,,,0,3,3,0,1,,,,,,,,,,,,,,,,,,,,,,,,,,,,,,,,,,,,,,,,,,,,,,
722523,001,2022-11-20_23h47.40.398,Info_measure_main_exp,2022.2.2,Win32,28.83589492,,,,,,,,,,,,,,,,,,masks/mask_005.jpg,,,,,,,,,,,,,,,,,,,,,,,,,,,,,,,,,,,,,,,,,,,0,4,4,4,1,,,,,,,,,,,,,,,,,,,,,,,,,,,,,,,,,,,,,,,,,,,,,,
722523,001,2022-11-20_23h47.40.398,Info_measure_main_exp,2022.2.2,Win32,28.83589492,,,,,,,,,,,,,,,,,,masks/mask_003.jpg,,,,,,,,,,,,,,,,,,,,,,,,,,,,,,,,,,,,,,,,,,,,,,,,0,0,0,2,1,,,,,,,,,,,,,,,,,,,,,,,,,,,,,,,,,,,,,,,,,
722523,001,2022-11-20_23h47.40.398,Info_measure_main_exp,2022.2.2,Win32,28.83589492,,,,,,,,,,,,,,,,,,masks/mask_001.jpg,,,,,,,,,,,,,,,,,,,,,,,,,,,,,,,,,,,,,,,,,,,,,,,,0,1,1,0,1,,,,,,,,,,,,,,,,,,,,,,,,,,,,,,,,,,,,,,,,,
722523,001,2022-11-20_23h47.40.398,Info_measure_main_exp,2022.2.2,Win32,28.83589492,,,,,,,,,,,,,,,,,,masks/mask_004.jpg,,,,,,,,,,,,,,,,,,,,,,,,,,,,,,,,,,,,,,,,,,,,,,,,0,2,2,3,1,,,,,,,,,,,,,,,,,,,,,,,,,,,,,,,,,,,,,,,,,
722523,001,2022-11-20_23h47.40.398,Info_measure_main_exp,2022.2.2,Win32,28.83589492,,,,,,,,,,,,,,,,,,masks/mask_005.jpg,,,,,,,,,,,,,,,,,,,,,,,,,,,,,,,,,,,,,,,,,,,,,,,,0,3,3,4,1,,,,,,,,,,,,,,,,,,,,,,,,,,,,,,,,,,,,,,,,,
722523,001,2022-11-20_23h47.40.398,Info_measure_main_exp,2022.2.2,Win32,28.83589492,,,,,,,,,,,,,,,,,,masks/mask_002.jpg,,,,,,,,,,,,,,,,,,,,,,,,,,,,,,,,,,,,,,,,,,,,,,,,0,4,4,1,1,,,,,,,,,,,,,,,,,,,,,,,,,,,,,,,,,,,,,,,,,
722523,001,2022-11-20_23h47.40.398,Info_measure_main_exp,2022.2.2,Win32,28.83589492,,,,,,,,,,,,,,,,,,,,,,,,,,,,,,2,2.6667,1,,,,,,,,,,,,0,131,5,5,2250,2178,absent_patch/patch0002250.jpg,absent_patch/patch0002178.jpg,,,,,,,,,,,,,,,,,,,,-0.118518476,-0.037962984,1,0,0,response5disk,27,-0.008333347,-0.005555577,1,0,0,center_square,0,26,26,48,1,,,,,,,,,,,,,,,,,,,,,,,
722523,001,2022-11-20_23h47.40.398,Info_measure_main_exp,2022.2.2,Win32,28.83589492,,,,,,,,,,,,,,,,,,masks/mask_004.jpg,,,,,,,,,,,,,,,,,,,,,,,,,,,,,,,,,,,,,,,,,,,0,0,0,3,1,,,,,,,,,,,,,,,,,,,,,,,,,,,,,,,,,,,,,,,,,,,,,,
722523,001,2022-11-20_23h47.40.398,Info_measure_main_exp,2022.2.2,Win32,28.83589492,,,,,,,,,,,,,,,,,,masks/mask_002.jpg,,,,,,,,,,,,,,,,,,,,,,,,,,,,,,,,,,,,,,,,,,,0,1,1,1,1,,,,,,,,,,,,,,,,,,,,,,,,,,,,,,,,,,,,,,,,,,,,,,
722523,001,2022-11-20_23h47.40.398,Info_measure_main_exp,2022.2.2,Win32,28.83589492,,,,,,,,,,,,,,,,,,masks/mask_001.jpg,,,,,,,,,,,,,,,,,,,,,,,,,,,,,,,,,,,,,,,,,,,0,2,2,0,1,,,,,,,,,,,,,,,,,,,,,,,,,,,,,,,,,,,,,,,,,,,,,,
722523,001,2022-11-20_23h47.40.398,Info_measure_main_exp,2022.2.2,Win32,28.83589492,,,,,,,,,,,,,,,,,,masks/mask_005.jpg,,,,,,,,,,,,,,,,,,,,,,,,,,,,,,,,,,,,,,,,,,,0,3,3,4,1,,,,,,,,,,,,,,,,,,,,,,,,,,,,,,,,,,,,,,,,,,,,,,
722523,001,2022-11-20_23h47.40.398,Info_measure_main_exp,2022.2.2,Win32,28.83589492,,,,,,,,,,,,,,,,,,masks/mask_003.jpg,,,,,,,,,,,,,,,,,,,,,,,,,,,,,,,,,,,,,,,,,,,0,4,4,2,1,,,,,,,,,,,,,,,,,,,,,,,,,,,,,,,,,,,,,,,,,,,,,,
722523,001,2022-11-20_23h47.40.398,Info_measure_main_exp,2022.2.2,Win32,28.83589492,,,,,,,,,,,,,,,,,,masks/mask_003.jpg,,,,,,,,,,,,,,,,,,,,,,,,,,,,,,,,,,,,,,,,,,,,,,,,0,0,0,2,1,,,,,,,,,,,,,,,,,,,,,,,,,,,,,,,,,,,,,,,,,
722523,001,2022-11-20_23h47.40.398,Info_measure_main_exp,2022.2.2,Win32,28.83589492,,,,,,,,,,,,,,,,,,masks/mask_004.jpg,,,,,,,,,,,,,,,,,,,,,,,,,,,,,,,,,,,,,,,,,,,,,,,,0,1,1,3,1,,,,,,,,,,,,,,,,,,,,,,,,,,,,,,,,,,,,,,,,,
722523,001,2022-11-20_23h47.40.398,Info_measure_main_exp,2022.2.2,Win32,28.83589492,,,,,,,,,,,,,,,,,,masks/mask_005.jpg,,,,,,,,,,,,,,,,,,,,,,,,,,,,,,,,,,,,,,,,,,,,,,,,0,2,2,4,1,,,,,,,,,,,,,,,,,,,,,,,,,,,,,,,,,,,,,,,,,
722523,001,2022-11-20_23h47.40.398,Info_measure_main_exp,2022.2.2,Win32,28.83589492,,,,,,,,,,,,,,,,,,masks/mask_001.jpg,,,,,,,,,,,,,,,,,,,,,,,,,,,,,,,,,,,,,,,,,,,,,,,,0,3,3,0,1,,,,,,,,,,,,,,,,,,,,,,,,,,,,,,,,,,,,,,,,,
722523,001,2022-11-20_23h47.40.398,Info_measure_main_exp,2022.2.2,Win32,28.83589492,,,,,,,,,,,,,,,,,,masks/mask_002.jpg,,,,,,,,,,,,,,,,,,,,,,,,,,,,,,,,,,,,,,,,,,,,,,,,0,4,4,1,1,,,,,,,,,,,,,,,,,,,,,,,,,,,,,,,,,,,,,,,,,
722523,001,2022-11-20_23h47.40.398,Info_measure_main_exp,2022.2.2,Win32,28.83589492,,,,,,,,,,,,,,,,,,,,,,,,,,,,,,1,0.7009,1,,,,,,,,,,,,0,131,5,5,1986,1986,absent_patch/patch0001986.jpg,absent_patch/patch0001986.jpg,,,,,,,,,,,,,,,,,,,,-0.099074046,0.030555548,1,0,0,response7disk,28,-0.000925912,-0.001851859,1,0,0,center_square,0,27,27,19,1,,,,,,,,,,,,,,,,,,,,,,,
722523,001,2022-11-20_23h47.40.398,Info_measure_main_exp,2022.2.2,Win32,28.83589492,,,,,,,,,,,,,,,,,,masks/mask_004.jpg,,,,,,,,,,,,,,,,,,,,,,,,,,,,,,,,,,,,,,,,,,,0,0,0,3,1,,,,,,,,,,,,,,,,,,,,,,,,,,,,,,,,,,,,,,,,,,,,,,
722523,001,2022-11-20_23h47.40.398,Info_measure_main_exp,2022.2.2,Win32,28.83589492,,,,,,,,,,,,,,,,,,masks/mask_002.jpg,,,,,,,,,,,,,,,,,,,,,,,,,,,,,,,,,,,,,,,,,,,0,1,1,1,1,,,,,,,,,,,,,,,,,,,,,,,,,,,,,,,,,,,,,,,,,,,,,,
722523,001,2022-11-20_23h47.40.398,Info_measure_main_exp,2022.2.2,Win32,28.83589492,,,,,,,,,,,,,,,,,,masks/mask_005.jpg,,,,,,,,,,,,,,,,,,,,,,,,,,,,,,,,,,,,,,,,,,,0,2,2,4,1,,,,,,,,,,,,,,,,,,,,,,,,,,,,,,,,,,,,,,,,,,,,,,
722523,001,2022-11-20_23h47.40.398,Info_measure_main_exp,2022.2.2,Win32,28.83589492,,,,,,,,,,,,,,,,,,masks/mask_003.jpg,,,,,,,,,,,,,,,,,,,,,,,,,,,,,,,,,,,,,,,,,,,0,3,3,2,1,,,,,,,,,,,,,,,,,,,,,,,,,,,,,,,,,,,,,,,,,,,,,,
722523,001,2022-11-20_23h47.40.398,Info_measure_main_exp,2022.2.2,Win32,28.83589492,,,,,,,,,,,,,,,,,,masks/mask_001.jpg,,,,,,,,,,,,,,,,,,,,,,,,,,,,,,,,,,,,,,,,,,,0,4,4,0,1,,,,,,,,,,,,,,,,,,,,,,,,,,,,,,,,,,,,,,,,,,,,,,
722523,001,2022-11-20_23h47.40.398,Info_measure_main_exp,2022.2.2,Win32,28.83589492,,,,,,,,,,,,,,,,,,masks/mask_001.jpg,,,,,,,,,,,,,,,,,,,,,,,,,,,,,,,,,,,,,,,,,,,,,,,,0,0,0,0,1,,,,,,,,,,,,,,,,,,,,,,,,,,,,,,,,,,,,,,,,,
722523,001,2022-11-20_23h47.40.398,Info_measure_main_exp,2022.2.2,Win32,28.83589492,,,,,,,,,,,,,,,,,,masks/mask_004.jpg,,,,,,,,,,,,,,,,,,,,,,,,,,,,,,,,,,,,,,,,,,,,,,,,0,1,1,3,1,,,,,,,,,,,,,,,,,,,,,,,,,,,,,,,,,,,,,,,,,
722523,001,2022-11-20_23h47.40.398,Info_measure_main_exp,2022.2.2,Win32,28.83589492,,,,,,,,,,,,,,,,,,masks/mask_002.jpg,,,,,,,,,,,,,,,,,,,,,,,,,,,,,,,,,,,,,,,,,,,,,,,,0,2,2,1,1,,,,,,,,,,,,,,,,,,,,,,,,,,,,,,,,,,,,,,,,,
722523,001,2022-11-20_23h47.40.398,Info_measure_main_exp,2022.2.2,Win32,28.83589492,,,,,,,,,,,,,,,,,,masks/mask_003.jpg,,,,,,,,,,,,,,,,,,,,,,,,,,,,,,,,,,,,,,,,,,,,,,,,0,3,3,2,1,,,,,,,,,,,,,,,,,,,,,,,,,,,,,,,,,,,,,,,,,
722523,001,2022-11-20_23h47.40.398,Info_measure_main_exp,2022.2.2,Win32,28.83589492,,,,,,,,,,,,,,,,,,masks/mask_005.jpg,,,,,,,,,,,,,,,,,,,,,,,,,,,,,,,,,,,,,,,,,,,,,,,,0,4,4,4,1,,,,,,,,,,,,,,,,,,,,,,,,,,,,,,,,,,,,,,,,,
722523,001,2022-11-20_23h47.40.398,Info_measure_main_exp,2022.2.2,Win32,28.83589492,,,,,,,,,,,,,,,,,,,,,,,,,,,,,,3,1.0003,1,,,,,,,,,,,,0,131,5,5,1950,2178,absent_patch/patch0001950.jpg,absent_patch/patch0002178.jpg,,,,,,,,,,,,,,,,,,,,-0.04351849,-0.073148162,1,0,0,response5disk,29,-0.003703718,0.011111118,1,0,0,center_square,0,28,28,61,1,,,,,,,,,,,,,,,,,,,,,,,
722523,001,2022-11-20_23h47.40.398,Info_measure_main_exp,2022.2.2,Win32,28.83589492,,,,,,,,,,,,,,,,,,masks/mask_004.jpg,,,,,,,,,,,,,,,,,,,,,,,,,,,,,,,,,,,,,,,,,,,0,0,0,3,1,,,,,,,,,,,,,,,,,,,,,,,,,,,,,,,,,,,,,,,,,,,,,,
722523,001,2022-11-20_23h47.40.398,Info_measure_main_exp,2022.2.2,Win32,28.83589492,,,,,,,,,,,,,,,,,,masks/mask_003.jpg,,,,,,,,,,,,,,,,,,,,,,,,,,,,,,,,,,,,,,,,,,,0,1,1,2,1,,,,,,,,,,,,,,,,,,,,,,,,,,,,,,,,,,,,,,,,,,,,,,
722523,001,2022-11-20_23h47.40.398,Info_measure_main_exp,2022.2.2,Win32,28.83589492,,,,,,,,,,,,,,,,,,masks/mask_005.jpg,,,,,,,,,,,,,,,,,,,,,,,,,,,,,,,,,,,,,,,,,,,0,2,2,4,1,,,,,,,,,,,,,,,,,,,,,,,,,,,,,,,,,,,,,,,,,,,,,,
722523,001,2022-11-20_23h47.40.398,Info_measure_main_exp,2022.2.2,Win32,28.83589492,,,,,,,,,,,,,,,,,,masks/mask_002.jpg,,,,,,,,,,,,,,,,,,,,,,,,,,,,,,,,,,,,,,,,,,,0,3,3,1,1,,,,,,,,,,,,,,,,,,,,,,,,,,,,,,,,,,,,,,,,,,,,,,
722523,001,2022-11-20_23h47.40.398,Info_measure_main_exp,2022.2.2,Win32,28.83589492,,,,,,,,,,,,,,,,,,masks/mask_001.jpg,,,,,,,,,,,,,,,,,,,,,,,,,,,,,,,,,,,,,,,,,,,0,4,4,0,1,,,,,,,,,,,,,,,,,,,,,,,,,,,,,,,,,,,,,,,,,,,,,,
722523,001,2022-11-20_23h47.40.398,Info_measure_main_exp,2022.2.2,Win32,28.83589492,,,,,,,,,,,,,,,,,,masks/mask_001.jpg,,,,,,,,,,,,,,,,,,,,,,,,,,,,,,,,,,,,,,,,,,,,,,,,0,0,0,0,1,,,,,,,,,,,,,,,,,,,,,,,,,,,,,,,,,,,,,,,,,
722523,001,2022-11-20_23h47.40.398,Info_measure_main_exp,2022.2.2,Win32,28.83589492,,,,,,,,,,,,,,,,,,masks/mask_004.jpg,,,,,,,,,,,,,,,,,,,,,,,,,,,,,,,,,,,,,,,,,,,,,,,,0,1,1,3,1,,,,,,,,,,,,,,,,,,,,,,,,,,,,,,,,,,,,,,,,,
722523,001,2022-11-20_23h47.40.398,Info_measure_main_exp,2022.2.2,Win32,28.83589492,,,,,,,,,,,,,,,,,,masks/mask_005.jpg,,,,,,,,,,,,,,,,,,,,,,,,,,,,,,,,,,,,,,,,,,,,,,,,0,2,2,4,1,,,,,,,,,,,,,,,,,,,,,,,,,,,,,,,,,,,,,,,,,
722523,001,2022-11-20_23h47.40.398,Info_measure_main_exp,2022.2.2,Win32,28.83589492,,,,,,,,,,,,,,,,,,masks/mask_003.jpg,,,,,,,,,,,,,,,,,,,,,,,,,,,,,,,,,,,,,,,,,,,,,,,,0,3,3,2,1,,,,,,,,,,,,,,,,,,,,,,,,,,,,,,,,,,,,,,,,,
722523,001,2022-11-20_23h47.40.398,Info_measure_main_exp,2022.2.2,Win32,28.83589492,,,,,,,,,,,,,,,,,,masks/mask_002.jpg,,,,,,,,,,,,,,,,,,,,,,,,,,,,,,,,,,,,,,,,,,,,,,,,0,4,4,1,1,,,,,,,,,,,,,,,,,,,,,,,,,,,,,,,,,,,,,,,,,
722523,001,2022-11-20_23h47.40.398,Info_measure_main_exp,2022.2.2,Win32,28.83589492,,,,,,,,,,,,,,,,,,,,,,,,,,,,,,6,1.2329,1,,,,,,,,,,,,0,131,5,5,1950,2166,absent_patch/patch0001950.jpg,absent_patch/patch0002166.jpg,,,,,,,,,,,,,,,,,,,,0.126851894,0.032407407,1,0,0,response1disk,30,-0.002777735,-0.002777771,1,0,0,center_square,0,29,29,0,1,,,,,,,,,,,,,,,,,,,,,,,
722523,001,2022-11-20_23h47.40.398,Info_measure_main_exp,2022.2.2,Win32,28.83589492,,,,,,,,,,,,,,,,,,masks/mask_002.jpg,,,,,,,,,,,,,,,,,,,,,,,,,,,,,,,,,,,,,,,,,,,0,0,0,1,1,,,,,,,,,,,,,,,,,,,,,,,,,,,,,,,,,,,,,,,,,,,,,,
722523,001,2022-11-20_23h47.40.398,Info_measure_main_exp,2022.2.2,Win32,28.83589492,,,,,,,,,,,,,,,,,,masks/mask_001.jpg,,,,,,,,,,,,,,,,,,,,,,,,,,,,,,,,,,,,,,,,,,,0,1,1,0,1,,,,,,,,,,,,,,,,,,,,,,,,,,,,,,,,,,,,,,,,,,,,,,
722523,001,2022-11-20_23h47.40.398,Info_measure_main_exp,2022.2.2,Win32,28.83589492,,,,,,,,,,,,,,,,,,masks/mask_004.jpg,,,,,,,,,,,,,,,,,,,,,,,,,,,,,,,,,,,,,,,,,,,0,2,2,3,1,,,,,,,,,,,,,,,,,,,,,,,,,,,,,,,,,,,,,,,,,,,,,,
722523,001,2022-11-20_23h47.40.398,Info_measure_main_exp,2022.2.2,Win32,28.83589492,,,,,,,,,,,,,,,,,,masks/mask_005.jpg,,,,,,,,,,,,,,,,,,,,,,,,,,,,,,,,,,,,,,,,,,,0,3,3,4,1,,,,,,,,,,,,,,,,,,,,,,,,,,,,,,,,,,,,,,,,,,,,,,
722523,001,2022-11-20_23h47.40.398,Info_measure_main_exp,2022.2.2,Win32,28.83589492,,,,,,,,,,,,,,,,,,masks/mask_003.jpg,,,,,,,,,,,,,,,,,,,,,,,,,,,,,,,,,,,,,,,,,,,0,4,4,2,1,,,,,,,,,,,,,,,,,,,,,,,,,,,,,,,,,,,,,,,,,,,,,,
722523,001,2022-11-20_23h47.40.398,Info_measure_main_exp,2022.2.2,Win32,28.83589492,,,,,,,,,,,,,,,,,,masks/mask_005.jpg,,,,,,,,,,,,,,,,,,,,,,,,,,,,,,,,,,,,,,,,,,,,,,,,0,0,0,4,1,,,,,,,,,,,,,,,,,,,,,,,,,,,,,,,,,,,,,,,,,
722523,001,2022-11-20_23h47.40.398,Info_measure_main_exp,2022.2.2,Win32,28.83589492,,,,,,,,,,,,,,,,,,masks/mask_001.jpg,,,,,,,,,,,,,,,,,,,,,,,,,,,,,,,,,,,,,,,,,,,,,,,,0,1,1,0,1,,,,,,,,,,,,,,,,,,,,,,,,,,,,,,,,,,,,,,,,,
722523,001,2022-11-20_23h47.40.398,Info_measure_main_exp,2022.2.2,Win32,28.83589492,,,,,,,,,,,,,,,,,,masks/mask_003.jpg,,,,,,,,,,,,,,,,,,,,,,,,,,,,,,,,,,,,,,,,,,,,,,,,0,2,2,2,1,,,,,,,,,,,,,,,,,,,,,,,,,,,,,,,,,,,,,,,,,
722523,001,2022-11-20_23h47.40.398,Info_measure_main_exp,2022.2.2,Win32,28.83589492,,,,,,,,,,,,,,,,,,masks/mask_004.jpg,,,,,,,,,,,,,,,,,,,,,,,,,,,,,,,,,,,,,,,,,,,,,,,,0,3,3,3,1,,,,,,,,,,,,,,,,,,,,,,,,,,,,,,,,,,,,,,,,,
722523,001,2022-11-20_23h47.40.398,Info_measure_main_exp,2022.2.2,Win32,28.83589492,,,,,,,,,,,,,,,,,,masks/mask_002.jpg,,,,,,,,,,,,,,,,,,,,,,,,,,,,,,,,,,,,,,,,,,,,,,,,0,4,4,1,1,,,,,,,,,,,,,,,,,,,,,,,,,,,,,,,,,,,,,,,,,
722523,001,2022-11-20_23h47.40.398,Info_measure_main_exp,2022.2.2,Win32,28.83589492,,,,,,,,,,,,,,,,,,,,,,,,,,,,,,4,1.4002,1,,,,,,,,,,,,1,131,5,5,1,1986,present_patch/cong_131_5_a.jpg,absent_patch/patch0001986.jpg,,,,,,,,,,,,,,,,,,,,0.037037037,-0.071296303,1,0,0,response3disk,31,0.001851894,-0.003703718,1,0,0,center_square,0,30,30,106,1,,,,,,,,,,,,,,,,,,,,,,,
722523,001,2022-11-20_23h47.40.398,Info_measure_main_exp,2022.2.2,Win32,28.83589492,,,,,,,,,,,,,,,,,,masks/mask_003.jpg,,,,,,,,,,,,,,,,,,,,,,,,,,,,,,,,,,,,,,,,,,,0,0,0,2,1,,,,,,,,,,,,,,,,,,,,,,,,,,,,,,,,,,,,,,,,,,,,,,
722523,001,2022-11-20_23h47.40.398,Info_measure_main_exp,2022.2.2,Win32,28.83589492,,,,,,,,,,,,,,,,,,masks/mask_002.jpg,,,,,,,,,,,,,,,,,,,,,,,,,,,,,,,,,,,,,,,,,,,0,1,1,1,1,,,,,,,,,,,,,,,,,,,,,,,,,,,,,,,,,,,,,,,,,,,,,,
722523,001,2022-11-20_23h47.40.398,Info_measure_main_exp,2022.2.2,Win32,28.83589492,,,,,,,,,,,,,,,,,,masks/mask_004.jpg,,,,,,,,,,,,,,,,,,,,,,,,,,,,,,,,,,,,,,,,,,,0,2,2,3,1,,,,,,,,,,,,,,,,,,,,,,,,,,,,,,,,,,,,,,,,,,,,,,
722523,001,2022-11-20_23h47.40.398,Info_measure_main_exp,2022.2.2,Win32,28.83589492,,,,,,,,,,,,,,,,,,masks/mask_001.jpg,,,,,,,,,,,,,,,,,,,,,,,,,,,,,,,,,,,,,,,,,,,0,3,3,0,1,,,,,,,,,,,,,,,,,,,,,,,,,,,,,,,,,,,,,,,,,,,,,,
722523,001,2022-11-20_23h47.40.398,Info_measure_main_exp,2022.2.2,Win32,28.83589492,,,,,,,,,,,,,,,,,,masks/mask_005.jpg,,,,,,,,,,,,,,,,,,,,,,,,,,,,,,,,,,,,,,,,,,,0,4,4,4,1,,,,,,,,,,,,,,,,,,,,,,,,,,,,,,,,,,,,,,,,,,,,,,
722523,001,2022-11-20_23h47.40.398,Info_measure_main_exp,2022.2.2,Win32,28.83589492,,,,,,,,,,,,,,,,,,masks/mask_003.jpg,,,,,,,,,,,,,,,,,,,,,,,,,,,,,,,,,,,,,,,,,,,,,,,,0,0,0,2,1,,,,,,,,,,,,,,,,,,,,,,,,,,,,,,,,,,,,,,,,,
722523,001,2022-11-20_23h47.40.398,Info_measure_main_exp,2022.2.2,Win32,28.83589492,,,,,,,,,,,,,,,,,,masks/mask_004.jpg,,,,,,,,,,,,,,,,,,,,,,,,,,,,,,,,,,,,,,,,,,,,,,,,0,1,1,3,1,,,,,,,,,,,,,,,,,,,,,,,,,,,,,,,,,,,,,,,,,
722523,001,2022-11-20_23h47.40.398,Info_measure_main_exp,2022.2.2,Win32,28.83589492,,,,,,,,,,,,,,,,,,masks/mask_001.jpg,,,,,,,,,,,,,,,,,,,,,,,,,,,,,,,,,,,,,,,,,,,,,,,,0,2,2,0,1,,,,,,,,,,,,,,,,,,,,,,,,,,,,,,,,,,,,,,,,,
722523,001,2022-11-20_23h47.40.398,Info_measure_main_exp,2022.2.2,Win32,28.83589492,,,,,,,,,,,,,,,,,,masks/mask_002.jpg,,,,,,,,,,,,,,,,,,,,,,,,,,,,,,,,,,,,,,,,,,,,,,,,0,3,3,1,1,,,,,,,,,,,,,,,,,,,,,,,,,,,,,,,,,,,,,,,,,
722523,001,2022-11-20_23h47.40.398,Info_measure_main_exp,2022.2.2,Win32,28.83589492,,,,,,,,,,,,,,,,,,masks/mask_005.jpg,,,,,,,,,,,,,,,,,,,,,,,,,,,,,,,,,,,,,,,,,,,,,,,,0,4,4,4,1,,,,,,,,,,,,,,,,,,,,,,,,,,,,,,,,,,,,,,,,,
722523,001,2022-11-20_23h47.40.398,Info_measure_main_exp,2022.2.2,Win32,28.83589492,,,,,,,,,,,,,,,,,,,,,,,,,,,,,,4,3.0994,1,,,,,,,,,,,,0,131,5,5,2082,2178,absent_patch/patch0002082.jpg,absent_patch/patch0002178.jpg,,,,,,,,,,,,,,,,,,,,0.021296325,-0.125,1,0,0,response3disk,32,-0.002777735,-0.006481489,1,0,0,center_square,0,31,31,2,1,,,,,,,,,,,,,,,,,,,,,,,
722523,001,2022-11-20_23h47.40.398,Info_measure_main_exp,2022.2.2,Win32,28.83589492,,,,,,,,,,,,,,,,,,masks/mask_002.jpg,,,,,,,,,,,,,,,,,,,,,,,,,,,,,,,,,,,,,,,,,,,0,0,0,1,1,,,,,,,,,,,,,,,,,,,,,,,,,,,,,,,,,,,,,,,,,,,,,,
722523,001,2022-11-20_23h47.40.398,Info_measure_main_exp,2022.2.2,Win32,28.83589492,,,,,,,,,,,,,,,,,,masks/mask_001.jpg,,,,,,,,,,,,,,,,,,,,,,,,,,,,,,,,,,,,,,,,,,,0,1,1,0,1,,,,,,,,,,,,,,,,,,,,,,,,,,,,,,,,,,,,,,,,,,,,,,
722523,001,2022-11-20_23h47.40.398,Info_measure_main_exp,2022.2.2,Win32,28.83589492,,,,,,,,,,,,,,,,,,masks/mask_004.jpg,,,,,,,,,,,,,,,,,,,,,,,,,,,,,,,,,,,,,,,,,,,0,2,2,3,1,,,,,,,,,,,,,,,,,,,,,,,,,,,,,,,,,,,,,,,,,,,,,,
722523,001,2022-11-20_23h47.40.398,Info_measure_main_exp,2022.2.2,Win32,28.83589492,,,,,,,,,,,,,,,,,,masks/mask_003.jpg,,,,,,,,,,,,,,,,,,,,,,,,,,,,,,,,,,,,,,,,,,,0,3,3,2,1,,,,,,,,,,,,,,,,,,,,,,,,,,,,,,,,,,,,,,,,,,,,,,
722523,001,2022-11-20_23h47.40.398,Info_measure_main_exp,2022.2.2,Win32,28.83589492,,,,,,,,,,,,,,,,,,masks/mask_005.jpg,,,,,,,,,,,,,,,,,,,,,,,,,,,,,,,,,,,,,,,,,,,0,4,4,4,1,,,,,,,,,,,,,,,,,,,,,,,,,,,,,,,,,,,,,,,,,,,,,,
722523,001,2022-11-20_23h47.40.398,Info_measure_main_exp,2022.2.2,Win32,28.83589492,,,,,,,,,,,,,,,,,,masks/mask_005.jpg,,,,,,,,,,,,,,,,,,,,,,,,,,,,,,,,,,,,,,,,,,,,,,,,0,0,0,4,1,,,,,,,,,,,,,,,,,,,,,,,,,,,,,,,,,,,,,,,,,
722523,001,2022-11-20_23h47.40.398,Info_measure_main_exp,2022.2.2,Win32,28.83589492,,,,,,,,,,,,,,,,,,masks/mask_003.jpg,,,,,,,,,,,,,,,,,,,,,,,,,,,,,,,,,,,,,,,,,,,,,,,,0,1,1,2,1,,,,,,,,,,,,,,,,,,,,,,,,,,,,,,,,,,,,,,,,,
722523,001,2022-11-20_23h47.40.398,Info_measure_main_exp,2022.2.2,Win32,28.83589492,,,,,,,,,,,,,,,,,,masks/mask_001.jpg,,,,,,,,,,,,,,,,,,,,,,,,,,,,,,,,,,,,,,,,,,,,,,,,0,2,2,0,1,,,,,,,,,,,,,,,,,,,,,,,,,,,,,,,,,,,,,,,,,
722523,001,2022-11-20_23h47.40.398,Info_measure_main_exp,2022.2.2,Win32,28.83589492,,,,,,,,,,,,,,,,,,masks/mask_004.jpg,,,,,,,,,,,,,,,,,,,,,,,,,,,,,,,,,,,,,,,,,,,,,,,,0,3,3,3,1,,,,,,,,,,,,,,,,,,,,,,,,,,,,,,,,,,,,,,,,,
722523,001,2022-11-20_23h47.40.398,Info_measure_main_exp,2022.2.2,Win32,28.83589492,,,,,,,,,,,,,,,,,,masks/mask_002.jpg,,,,,,,,,,,,,,,,,,,,,,,,,,,,,,,,,,,,,,,,,,,,,,,,0,4,4,1,1,,,,,,,,,,,,,,,,,,,,,,,,,,,,,,,,,,,,,,,,,
722523,001,2022-11-20_23h47.40.398,Info_measure_main_exp,2022.2.2,Win32,28.83589492,,,,,,,,,,,,,,,,,,,,,,,,,,,,,,4,1.8999,1,,,,,,,,,,,,1,131,5,5,1,2142,present_patch/cong_131_5_a.jpg,absent_patch/patch0002142.jpg,,,,,,,,,,,,,,,,,,,,0.041666667,-0.102777764,1,0,0,response3disk,33,-0.005555541,0.008333312,1,0,0,center_square,0,32,32,80,1,,,,,,,,,,,,,,,,,,,,,,,
722523,001,2022-11-20_23h47.40.398,Info_measure_main_exp,2022.2.2,Win32,28.83589492,,,,,,,,,,,,,,,,,,masks/mask_002.jpg,,,,,,,,,,,,,,,,,,,,,,,,,,,,,,,,,,,,,,,,,,,0,0,0,1,1,,,,,,,,,,,,,,,,,,,,,,,,,,,,,,,,,,,,,,,,,,,,,,
722523,001,2022-11-20_23h47.40.398,Info_measure_main_exp,2022.2.2,Win32,28.83589492,,,,,,,,,,,,,,,,,,masks/mask_001.jpg,,,,,,,,,,,,,,,,,,,,,,,,,,,,,,,,,,,,,,,,,,,0,1,1,0,1,,,,,,,,,,,,,,,,,,,,,,,,,,,,,,,,,,,,,,,,,,,,,,
722523,001,2022-11-20_23h47.40.398,Info_measure_main_exp,2022.2.2,Win32,28.83589492,,,,,,,,,,,,,,,,,,masks/mask_003.jpg,,,,,,,,,,,,,,,,,,,,,,,,,,,,,,,,,,,,,,,,,,,0,2,2,2,1,,,,,,,,,,,,,,,,,,,,,,,,,,,,,,,,,,,,,,,,,,,,,,
722523,001,2022-11-20_23h47.40.398,Info_measure_main_exp,2022.2.2,Win32,28.83589492,,,,,,,,,,,,,,,,,,masks/mask_004.jpg,,,,,,,,,,,,,,,,,,,,,,,,,,,,,,,,,,,,,,,,,,,0,3,3,3,1,,,,,,,,,,,,,,,,,,,,,,,,,,,,,,,,,,,,,,,,,,,,,,
722523,001,2022-11-20_23h47.40.398,Info_measure_main_exp,2022.2.2,Win32,28.83589492,,,,,,,,,,,,,,,,,,masks/mask_005.jpg,,,,,,,,,,,,,,,,,,,,,,,,,,,,,,,,,,,,,,,,,,,0,4,4,4,1,,,,,,,,,,,,,,,,,,,,,,,,,,,,,,,,,,,,,,,,,,,,,,
722523,001,2022-11-20_23h47.40.398,Info_measure_main_exp,2022.2.2,Win32,28.83589492,,,,,,,,,,,,,,,,,,masks/mask_001.jpg,,,,,,,,,,,,,,,,,,,,,,,,,,,,,,,,,,,,,,,,,,,,,,,,0,0,0,0,1,,,,,,,,,,,,,,,,,,,,,,,,,,,,,,,,,,,,,,,,,
722523,001,2022-11-20_23h47.40.398,Info_measure_main_exp,2022.2.2,Win32,28.83589492,,,,,,,,,,,,,,,,,,masks/mask_004.jpg,,,,,,,,,,,,,,,,,,,,,,,,,,,,,,,,,,,,,,,,,,,,,,,,0,1,1,3,1,,,,,,,,,,,,,,,,,,,,,,,,,,,,,,,,,,,,,,,,,
722523,001,2022-11-20_23h47.40.398,Info_measure_main_exp,2022.2.2,Win32,28.83589492,,,,,,,,,,,,,,,,,,masks/mask_005.jpg,,,,,,,,,,,,,,,,,,,,,,,,,,,,,,,,,,,,,,,,,,,,,,,,0,2,2,4,1,,,,,,,,,,,,,,,,,,,,,,,,,,,,,,,,,,,,,,,,,
722523,001,2022-11-20_23h47.40.398,Info_measure_main_exp,2022.2.2,Win32,28.83589492,,,,,,,,,,,,,,,,,,masks/mask_002.jpg,,,,,,,,,,,,,,,,,,,,,,,,,,,,,,,,,,,,,,,,,,,,,,,,0,3,3,1,1,,,,,,,,,,,,,,,,,,,,,,,,,,,,,,,,,,,,,,,,,
722523,001,2022-11-20_23h47.40.398,Info_measure_main_exp,2022.2.2,Win32,28.83589492,,,,,,,,,,,,,,,,,,masks/mask_003.jpg,,,,,,,,,,,,,,,,,,,,,,,,,,,,,,,,,,,,,,,,,,,,,,,,0,4,4,2,1,,,,,,,,,,,,,,,,,,,,,,,,,,,,,,,,,,,,,,,,,
722523,001,2022-11-20_23h47.40.398,Info_measure_main_exp,2022.2.2,Win32,28.83589492,,,,,,,,,,,,,,,,,,,,,,,,,,,,,,1,0.6996,1,,,,,,,,,,,,0,131,5,5,2238,2238,absent_patch/patch0002238.jpg,absent_patch/patch0002238.jpg,,,,,,,,,,,,,,,,,,,,-0.107407393,0.038888896,1,0,0,response7disk,34,0.00462963,0.00462963,1,0,0,center_square,0,33,33,58,1,,,,,,,,,,,,,,,,,,,,,,,
722523,001,2022-11-20_23h47.40.398,Info_measure_main_exp,2022.2.2,Win32,28.83589492,,,,,,,,,,,,,,,,,,masks/mask_001.jpg,,,,,,,,,,,,,,,,,,,,,,,,,,,,,,,,,,,,,,,,,,,0,0,0,0,1,,,,,,,,,,,,,,,,,,,,,,,,,,,,,,,,,,,,,,,,,,,,,,
722523,001,2022-11-20_23h47.40.398,Info_measure_main_exp,2022.2.2,Win32,28.83589492,,,,,,,,,,,,,,,,,,masks/mask_005.jpg,,,,,,,,,,,,,,,,,,,,,,,,,,,,,,,,,,,,,,,,,,,0,1,1,4,1,,,,,,,,,,,,,,,,,,,,,,,,,,,,,,,,,,,,,,,,,,,,,,
722523,001,2022-11-20_23h47.40.398,Info_measure_main_exp,2022.2.2,Win32,28.83589492,,,,,,,,,,,,,,,,,,masks/mask_004.jpg,,,,,,,,,,,,,,,,,,,,,,,,,,,,,,,,,,,,,,,,,,,0,2,2,3,1,,,,,,,,,,,,,,,,,,,,,,,,,,,,,,,,,,,,,,,,,,,,,,
722523,001,2022-11-20_23h47.40.398,Info_measure_main_exp,2022.2.2,Win32,28.83589492,,,,,,,,,,,,,,,,,,masks/mask_002.jpg,,,,,,,,,,,,,,,,,,,,,,,,,,,,,,,,,,,,,,,,,,,0,3,3,1,1,,,,,,,,,,,,,,,,,,,,,,,,,,,,,,,,,,,,,,,,,,,,,,
722523,001,2022-11-20_23h47.40.398,Info_measure_main_exp,2022.2.2,Win32,28.83589492,,,,,,,,,,,,,,,,,,masks/mask_003.jpg,,,,,,,,,,,,,,,,,,,,,,,,,,,,,,,,,,,,,,,,,,,0,4,4,2,1,,,,,,,,,,,,,,,,,,,,,,,,,,,,,,,,,,,,,,,,,,,,,,
722523,001,2022-11-20_23h47.40.398,Info_measure_main_exp,2022.2.2,Win32,28.83589492,,,,,,,,,,,,,,,,,,masks/mask_001.jpg,,,,,,,,,,,,,,,,,,,,,,,,,,,,,,,,,,,,,,,,,,,,,,,,0,0,0,0,1,,,,,,,,,,,,,,,,,,,,,,,,,,,,,,,,,,,,,,,,,
722523,001,2022-11-20_23h47.40.398,Info_measure_main_exp,2022.2.2,Win32,28.83589492,,,,,,,,,,,,,,,,,,masks/mask_002.jpg,,,,,,,,,,,,,,,,,,,,,,,,,,,,,,,,,,,,,,,,,,,,,,,,0,1,1,1,1,,,,,,,,,,,,,,,,,,,,,,,,,,,,,,,,,,,,,,,,,
722523,001,2022-11-20_23h47.40.398,Info_measure_main_exp,2022.2.2,Win32,28.83589492,,,,,,,,,,,,,,,,,,masks/mask_003.jpg,,,,,,,,,,,,,,,,,,,,,,,,,,,,,,,,,,,,,,,,,,,,,,,,0,2,2,2,1,,,,,,,,,,,,,,,,,,,,,,,,,,,,,,,,,,,,,,,,,
722523,001,2022-11-20_23h47.40.398,Info_measure_main_exp,2022.2.2,Win32,28.83589492,,,,,,,,,,,,,,,,,,masks/mask_005.jpg,,,,,,,,,,,,,,,,,,,,,,,,,,,,,,,,,,,,,,,,,,,,,,,,0,3,3,4,1,,,,,,,,,,,,,,,,,,,,,,,,,,,,,,,,,,,,,,,,,
