participant,session,date,expName,psychopyVersion,OS,frameRate,space_press_continue.keys,space_press_continue.rt,space_press_continue_2.keys,space_press_continue_2.rt,space_press_continue_3.keys,space_press_continue_3.rt,space_press_continue_4.keys,space_press_continue_4.rt,space_press_continue_5.keys,space_press_continue_5.rt,space_press_continue_6.keys,space_press_continue_6.rt,prac_mask_loop_1.thisRepN,prac_mask_loop_1.thisTrialN,prac_mask_loop_1.thisN,prac_mask_loop_1.thisIndex,prac_mask_loop_1.ran,mask_name,prac_mask_loop_2.thisRepN,prac_mask_loop_2.thisTrialN,prac_mask_loop_2.thisN,prac_mask_loop_2.thisIndex,prac_mask_loop_2.ran,mouse_2.x,mouse_2.y,mouse_2.leftButton,mouse_2.midButton,mouse_2.rightButton,mouse_2.clicked_name,similarity,response_time,Pass,mouse_12.x,mouse_12.y,mouse_12.leftButton,mouse_12.midButton,mouse_12.rightButton,mouse_12.clicked_name,prac_loop.thisRepN,prac_loop.thisTrialN,prac_loop.thisN,prac_loop.thisIndex,prac_loop.ran,Pair_type,Image_num,Patch_1_loc,Patch_2_loc,Patch_1_info,Patch_2_info,Patch_1_name,Patch_2_name,mouse_1.x,mouse_1.y,mouse_1.leftButton,mouse_1.midButton,mouse_1.rightButton,mouse_1.time,mouse_1.clicked_name,space_press_continue_7.keys,space_press_continue_7.rt,mask_loop.thisRepN,mask_loop.thisTrialN,mask_loop.thisN,mask_loop.thisIndex,mask_loop.ran,mask_loop_2.thisRepN,mask_loop_2.thisTrialN,mask_loop_2.thisN,mask_loop_2.thisIndex,mask_loop_2.ran,mouse.x,mouse.y,mouse.leftButton,mouse.midButton,mouse.rightButton,mouse.clicked_name,trialNumber,mouse_11.x,mouse_11.y,mouse_11.leftButton,mouse_11.midButton,mouse_11.rightButton,mouse_11.clicked_name,first_pass_loop.thisRepN,first_pass_loop.thisTrialN,first_pass_loop.thisN,first_pass_loop.thisIndex,first_pass_loop.ran,mask_loop_3.thisRepN,mask_loop_3.thisTrialN,mask_loop_3.thisN,mask_loop_3.thisIndex,mask_loop_3.ran,mask_loop_4.thisRepN,mask_loop_4.thisTrialN,mask_loop_4.thisN,mask_loop_4.thisIndex,mask_loop_4.ran,mouse_3.x,mouse_3.y,mouse_3.leftButton,mouse_3.midButton,mouse_3.rightButton,mouse_3.clicked_name,double_pass_loop.thisRepN,double_pass_loop.thisTrialN,double_pass_loop.thisN,double_pass_loop.thisIndex,double_pass_loop.ran,space_exit.keys,space_exit.rt
728596,001,2022-11-20_23h51.02.035,Info_measure_main_exp,2022.2.2,Win32,59.78000956,,,,,,,,,,,,,,,,,,,,,,,,,,,,,,,,,,,,,,,,,,,,,,,,,,,,,,,,,,,,,,,,,,,,,,,,,,,,,,,,,,,,,,,,,,,,,,,,,,,,,,,,,,,,,,,
728596,001,2022-11-20_23h51.02.035,Info_measure_main_exp,2022.2.2,Win32,59.78000956,,,,,,,,,,,,,,,,,,,,,,,,,,,,,,,,,,,,,,,,,,,,,,,,,,,,,,,,,,,,,,,,,,,,,,,,,,,,,,,,,,,,,,,,,,,,,,,,,,,,,,,,,,,,,,,
728596,001,2022-11-20_23h51.02.035,Info_measure_main_exp,2022.2.2,Win32,59.78000956,space,8.9648,,,,,,,,,,,,,,,,,,,,,,,,,,,,,,,,,,,,,,,,,,,,,,,,,,,,,,,,,,,,,,,,,,,,,,,,,,,,,,,,,,,,,,,,,,,,,,,,,,,,,,,,,,,,,
728596,001,2022-11-20_23h51.02.035,Info_measure_main_exp,2022.2.2,Win32,59.78000956,,,space,14.6131,,,,,,,,,,,,,,,,,,,,,,,,,,,,,,,,,,,,,,,,,,,,,,,,,,,,,,,,,,,,,,,,,,,,,,,,,,,,,,,,,,,,,,,,,,,,,,,,,,,,,,,,,,,
728596,001,2022-11-20_23h51.02.035,Info_measure_main_exp,2022.2.2,Win32,59.78000956,,,,,space,8.5683,,,,,,,,,,,,,,,,,,,,,,,,,,,,,,,,,,,,,,,,,,,,,,,,,,,,,,,,,,,,,,,,,,,,,,,,,,,,,,,,,,,,,,,,,,,,,,,,,,,,,,,,,
728596,001,2022-11-20_23h51.02.035,Info_measure_main_exp,2022.2.2,Win32,59.78000956,,,,,,,space,14.6275,,,,,,,,,,,,,,,,,,,,,,,,,,,,,,,,,,,,,,,,,,,,,,,,,,,,,,,,,,,,,,,,,,,,,,,,,,,,,,,,,,,,,,,,,,,,,,,,,,,,,,,
728596,001,2022-11-20_23h51.02.035,Info_measure_main_exp,2022.2.2,Win32,59.78000956,,,,,,,,,space,5.9462,,,,,,,,,,,,,,,,,,,,,,,,,,,,,,,,,,,,,,,,,,,,,,,,,,,,,,,,,,,,,,,,,,,,,,,,,,,,,,,,,,,,,,,,,,,,,,,,,,,,,
728596,001,2022-11-20_23h51.02.035,Info_measure_main_exp,2022.2.2,Win32,59.78000956,,,,,,,,,,,space,3.5534,,,,,,,,,,,,,,,,,,,,,,,,,,,,,,,,,,,,,,,,,,,,,,,,,,,,,,,,,,,,,,,,,,,,,,,,,,,,,,,,,,,,,,,,,,,,,,,,,,,
728596,001,2022-11-20_23h51.02.035,Info_measure_main_exp,2022.2.2,Win32,59.78000956,,,,,,,,,,,,,0,0,0,0,1,masks/mask_001.jpg,,,,,,,,,,,,,,,,,,,,,,,,,,,,,,,,,,,,,,,,,,,,,,,,,,,,,,,,,,,,,,,,,,,,,,,,,,,,,,,,,,,,,,,,,,,,,
728596,001,2022-11-20_23h51.02.035,Info_measure_main_exp,2022.2.2,Win32,59.78000956,,,,,,,,,,,,,0,1,1,3,1,masks/mask_004.jpg,,,,,,,,,,,,,,,,,,,,,,,,,,,,,,,,,,,,,,,,,,,,,,,,,,,,,,,,,,,,,,,,,,,,,,,,,,,,,,,,,,,,,,,,,,,,,
728596,001,2022-11-20_23h51.02.035,Info_measure_main_exp,2022.2.2,Win32,59.78000956,,,,,,,,,,,,,0,2,2,4,1,masks/mask_005.jpg,,,,,,,,,,,,,,,,,,,,,,,,,,,,,,,,,,,,,,,,,,,,,,,,,,,,,,,,,,,,,,,,,,,,,,,,,,,,,,,,,,,,,,,,,,,,,
728596,001,2022-11-20_23h51.02.035,Info_measure_main_exp,2022.2.2,Win32,59.78000956,,,,,,,,,,,,,0,3,3,1,1,masks/mask_002.jpg,,,,,,,,,,,,,,,,,,,,,,,,,,,,,,,,,,,,,,,,,,,,,,,,,,,,,,,,,,,,,,,,,,,,,,,,,,,,,,,,,,,,,,,,,,,,,
728596,001,2022-11-20_23h51.02.035,Info_measure_main_exp,2022.2.2,Win32,59.78000956,,,,,,,,,,,,,0,4,4,2,1,masks/mask_003.jpg,,,,,,,,,,,,,,,,,,,,,,,,,,,,,,,,,,,,,,,,,,,,,,,,,,,,,,,,,,,,,,,,,,,,,,,,,,,,,,,,,,,,,,,,,,,,,
728596,001,2022-11-20_23h51.02.035,Info_measure_main_exp,2022.2.2,Win32,59.78000956,,,,,,,,,,,,,,,,,,masks/mask_004.jpg,0,0,0,3,1,,,,,,,,,,,,,,,,,,,,,,,,,,,,,,,,,,,,,,,,,,,,,,,,,,,,,,,,,,,,,,,,,,,,,,,,,,,,,,,,,,,,,,,,
728596,001,2022-11-20_23h51.02.035,Info_measure_main_exp,2022.2.2,Win32,59.78000956,,,,,,,,,,,,,,,,,,masks/mask_001.jpg,0,1,1,0,1,,,,,,,,,,,,,,,,,,,,,,,,,,,,,,,,,,,,,,,,,,,,,,,,,,,,,,,,,,,,,,,,,,,,,,,,,,,,,,,,,,,,,,,,
728596,001,2022-11-20_23h51.02.035,Info_measure_main_exp,2022.2.2,Win32,59.78000956,,,,,,,,,,,,,,,,,,masks/mask_002.jpg,0,2,2,1,1,,,,,,,,,,,,,,,,,,,,,,,,,,,,,,,,,,,,,,,,,,,,,,,,,,,,,,,,,,,,,,,,,,,,,,,,,,,,,,,,,,,,,,,,
728596,001,2022-11-20_23h51.02.035,Info_measure_main_exp,2022.2.2,Win32,59.78000956,,,,,,,,,,,,,,,,,,masks/mask_003.jpg,0,3,3,2,1,,,,,,,,,,,,,,,,,,,,,,,,,,,,,,,,,,,,,,,,,,,,,,,,,,,,,,,,,,,,,,,,,,,,,,,,,,,,,,,,,,,,,,,,
728596,001,2022-11-20_23h51.02.035,Info_measure_main_exp,2022.2.2,Win32,59.78000956,,,,,,,,,,,,,,,,,,masks/mask_005.jpg,0,4,4,4,1,,,,,,,,,,,,,,,,,,,,,,,,,,,,,,,,,,,,,,,,,,,,,,,,,,,,,,,,,,,,,,,,,,,,,,,,,,,,,,,,,,,,,,,,
728596,001,2022-11-20_23h51.02.035,Info_measure_main_exp,2022.2.2,Win32,59.78000956,,,,,,,,,,,,,,,,,,,,,,,,0.025000042,0.078703704,1,0,0,response1disk,7,60.361,1,-0.001851824,0.008333312,1,0,0,center_square,0,0,0,2,1,0,131,5,5,2526,2526,prac_patch/patch0002526.jpg,prac_patch/patch0002526.jpg,,,,,,,,,,,,,,,,,,,,,,,,,,,,,,,,,,,,,,,,,,,,,,,,,,,,,,,,,,,,
728596,001,2022-11-20_23h51.02.035,Info_measure_main_exp,2022.2.2,Win32,59.78000956,,,,,,,,,,,,,0,0,0,4,1,masks/mask_005.jpg,,,,,,,,,,,,,,,,,,,,,,,,,,,,,,,,,,,,,,,,,,,,,,,,,,,,,,,,,,,,,,,,,,,,,,,,,,,,,,,,,,,,,,,,,,,,,
728596,001,2022-11-20_23h51.02.035,Info_measure_main_exp,2022.2.2,Win32,59.78000956,,,,,,,,,,,,,0,1,1,3,1,masks/mask_004.jpg,,,,,,,,,,,,,,,,,,,,,,,,,,,,,,,,,,,,,,,,,,,,,,,,,,,,,,,,,,,,,,,,,,,,,,,,,,,,,,,,,,,,,,,,,,,,,
728596,001,2022-11-20_23h51.02.035,Info_measure_main_exp,2022.2.2,Win32,59.78000956,,,,,,,,,,,,,0,2,2,1,1,masks/mask_002.jpg,,,,,,,,,,,,,,,,,,,,,,,,,,,,,,,,,,,,,,,,,,,,,,,,,,,,,,,,,,,,,,,,,,,,,,,,,,,,,,,,,,,,,,,,,,,,,
728596,001,2022-11-20_23h51.02.035,Info_measure_main_exp,2022.2.2,Win32,59.78000956,,,,,,,,,,,,,0,3,3,2,1,masks/mask_003.jpg,,,,,,,,,,,,,,,,,,,,,,,,,,,,,,,,,,,,,,,,,,,,,,,,,,,,,,,,,,,,,,,,,,,,,,,,,,,,,,,,,,,,,,,,,,,,,
728596,001,2022-11-20_23h51.02.035,Info_measure_main_exp,2022.2.2,Win32,59.78000956,,,,,,,,,,,,,0,4,4,0,1,masks/mask_001.jpg,,,,,,,,,,,,,,,,,,,,,,,,,,,,,,,,,,,,,,,,,,,,,,,,,,,,,,,,,,,,,,,,,,,,,,,,,,,,,,,,,,,,,,,,,,,,,
728596,001,2022-11-20_23h51.02.035,Info_measure_main_exp,2022.2.2,Win32,59.78000956,,,,,,,,,,,,,,,,,,masks/mask_001.jpg,0,0,0,0,1,,,,,,,,,,,,,,,,,,,,,,,,,,,,,,,,,,,,,,,,,,,,,,,,,,,,,,,,,,,,,,,,,,,,,,,,,,,,,,,,,,,,,,,,
728596,001,2022-11-20_23h51.02.035,Info_measure_main_exp,2022.2.2,Win32,59.78000956,,,,,,,,,,,,,,,,,,masks/mask_002.jpg,0,1,1,1,1,,,,,,,,,,,,,,,,,,,,,,,,,,,,,,,,,,,,,,,,,,,,,,,,,,,,,,,,,,,,,,,,,,,,,,,,,,,,,,,,,,,,,,,,
728596,001,2022-11-20_23h51.02.035,Info_measure_main_exp,2022.2.2,Win32,59.78000956,,,,,,,,,,,,,,,,,,masks/mask_003.jpg,0,2,2,2,1,,,,,,,,,,,,,,,,,,,,,,,,,,,,,,,,,,,,,,,,,,,,,,,,,,,,,,,,,,,,,,,,,,,,,,,,,,,,,,,,,,,,,,,,
728596,001,2022-11-20_23h51.02.035,Info_measure_main_exp,2022.2.2,Win32,59.78000956,,,,,,,,,,,,,,,,,,masks/mask_004.jpg,0,3,3,3,1,,,,,,,,,,,,,,,,,,,,,,,,,,,,,,,,,,,,,,,,,,,,,,,,,,,,,,,,,,,,,,,,,,,,,,,,,,,,,,,,,,,,,,,,
728596,001,2022-11-20_23h51.02.035,Info_measure_main_exp,2022.2.2,Win32,59.78000956,,,,,,,,,,,,,,,,,,masks/mask_005.jpg,0,4,4,4,1,,,,,,,,,,,,,,,,,,,,,,,,,,,,,,,,,,,,,,,,,,,,,,,,,,,,,,,,,,,,,,,,,,,,,,,,,,,,,,,,,,,,,,,,
728596,001,2022-11-20_23h51.02.035,Info_measure_main_exp,2022.2.2,Win32,59.78000956,,,,,,,,,,,,,,,,,,,,,,,,0.069444444,-0.131481524,1,0,0,response3disk,4,75.9743,1,-0.005555541,-0.003703718,1,0,0,center_square,0,1,1,0,1,0,131,5,5,2370,2406,prac_patch/patch0002370.jpg,prac_patch/patch0002406.jpg,,,,,,,,,,,,,,,,,,,,,,,,,,,,,,,,,,,,,,,,,,,,,,,,,,,,,,,,,,,,
728596,001,2022-11-20_23h51.02.035,Info_measure_main_exp,2022.2.2,Win32,59.78000956,,,,,,,,,,,,,0,0,0,0,1,masks/mask_001.jpg,,,,,,,,,,,,,,,,,,,,,,,,,,,,,,,,,,,,,,,,,,,,,,,,,,,,,,,,,,,,,,,,,,,,,,,,,,,,,,,,,,,,,,,,,,,,,
728596,001,2022-11-20_23h51.02.035,Info_measure_main_exp,2022.2.2,Win32,59.78000956,,,,,,,,,,,,,0,1,1,3,1,masks/mask_004.jpg,,,,,,,,,,,,,,,,,,,,,,,,,,,,,,,,,,,,,,,,,,,,,,,,,,,,,,,,,,,,,,,,,,,,,,,,,,,,,,,,,,,,,,,,,,,,,
728596,001,2022-11-20_23h51.02.035,Info_measure_main_exp,2022.2.2,Win32,59.78000956,,,,,,,,,,,,,0,2,2,2,1,masks/mask_003.jpg,,,,,,,,,,,,,,,,,,,,,,,,,,,,,,,,,,,,,,,,,,,,,,,,,,,,,,,,,,,,,,,,,,,,,,,,,,,,,,,,,,,,,,,,,,,,,
728596,001,2022-11-20_23h51.02.035,Info_measure_main_exp,2022.2.2,Win32,59.78000956,,,,,,,,,,,,,0,3,3,4,1,masks/mask_005.jpg,,,,,,,,,,,,,,,,,,,,,,,,,,,,,,,,,,,,,,,,,,,,,,,,,,,,,,,,,,,,,,,,,,,,,,,,,,,,,,,,,,,,,,,,,,,,,
728596,001,2022-11-20_23h51.02.035,Info_measure_main_exp,2022.2.2,Win32,59.78000956,,,,,,,,,,,,,0,4,4,1,1,masks/mask_002.jpg,,,,,,,,,,,,,,,,,,,,,,,,,,,,,,,,,,,,,,,,,,,,,,,,,,,,,,,,,,,,,,,,,,,,,,,,,,,,,,,,,,,,,,,,,,,,,
728596,001,2022-11-20_23h51.02.035,Info_measure_main_exp,2022.2.2,Win32,59.78000956,,,,,,,,,,,,,,,,,,masks/mask_001.jpg,0,0,0,0,1,,,,,,,,,,,,,,,,,,,,,,,,,,,,,,,,,,,,,,,,,,,,,,,,,,,,,,,,,,,,,,,,,,,,,,,,,,,,,,,,,,,,,,,,
728596,001,2022-11-20_23h51.02.035,Info_measure_main_exp,2022.2.2,Win32,59.78000956,,,,,,,,,,,,,,,,,,masks/mask_003.jpg,0,1,1,2,1,,,,,,,,,,,,,,,,,,,,,,,,,,,,,,,,,,,,,,,,,,,,,,,,,,,,,,,,,,,,,,,,,,,,,,,,,,,,,,,,,,,,,,,,
728596,001,2022-11-20_23h51.02.035,Info_measure_main_exp,2022.2.2,Win32,59.78000956,,,,,,,,,,,,,,,,,,masks/mask_005.jpg,0,2,2,4,1,,,,,,,,,,,,,,,,,,,,,,,,,,,,,,,,,,,,,,,,,,,,,,,,,,,,,,,,,,,,,,,,,,,,,,,,,,,,,,,,,,,,,,,,
728596,001,2022-11-20_23h51.02.035,Info_measure_main_exp,2022.2.2,Win32,59.78000956,,,,,,,,,,,,,,,,,,masks/mask_002.jpg,0,3,3,1,1,,,,,,,,,,,,,,,,,,,,,,,,,,,,,,,,,,,,,,,,,,,,,,,,,,,,,,,,,,,,,,,,,,,,,,,,,,,,,,,,,,,,,,,,
728596,001,2022-11-20_23h51.02.035,Info_measure_main_exp,2022.2.2,Win32,59.78000956,,,,,,,,,,,,,,,,,,masks/mask_004.jpg,0,4,4,3,1,,,,,,,,,,,,,,,,,,,,,,,,,,,,,,,,,,,,,,,,,,,,,,,,,,,,,,,,,,,,,,,,,,,,,,,,,,,,,,,,,,,,,,,,
728596,001,2022-11-20_23h51.02.035,Info_measure_main_exp,2022.2.2,Win32,59.78000956,,,,,,,,,,,,,,,,,,,,,,,,-0.037962949,-0.107407393,1,0,0,response5disk,3,85.7235,1,0,0.005555541,1,0,0,center_square,0,2,2,1,1,0,131,5,5,2514,2490,prac_patch/patch0002514.jpg,prac_patch/patch0002490.jpg,,,,,,,,,,,,,,,,,,,,,,,,,,,,,,,,,,,,,,,,,,,,,,,,,,,,,,,,,,,,
728596,001,2022-11-20_23h51.02.035,Info_measure_main_exp,2022.2.2,Win32,59.78000956,,,,,,,,,,,,,,,,,,,,,,,,,,,,,,,,,,,,,,,,,,,,,,,,,,,,,,,,,,,space,2.632,,,,,,,,,,,,,,,,,,,,,,,,,,,,,,,,,,,,,,,,,,,,,,,,,,,
728596,001,2022-11-20_23h51.02.035,Info_measure_main_exp,2022.2.2,Win32,59.78000956,,,,,,,,,,,,,,,,,,masks/mask_003.jpg,,,,,,,,,,,,,,,,,,,,,,,,,,,,,,,,,,,,,,,,,,,0,0,0,2,1,,,,,,,,,,,,,,,,,,,,,,,,,,,,,,,,,,,,,,,,,,,,,,
728596,001,2022-11-20_23h51.02.035,Info_measure_main_exp,2022.2.2,Win32,59.78000956,,,,,,,,,,,,,,,,,,masks/mask_002.jpg,,,,,,,,,,,,,,,,,,,,,,,,,,,,,,,,,,,,,,,,,,,0,1,1,1,1,,,,,,,,,,,,,,,,,,,,,,,,,,,,,,,,,,,,,,,,,,,,,,
728596,001,2022-11-20_23h51.02.035,Info_measure_main_exp,2022.2.2,Win32,59.78000956,,,,,,,,,,,,,,,,,,masks/mask_005.jpg,,,,,,,,,,,,,,,,,,,,,,,,,,,,,,,,,,,,,,,,,,,0,2,2,4,1,,,,,,,,,,,,,,,,,,,,,,,,,,,,,,,,,,,,,,,,,,,,,,
728596,001,2022-11-20_23h51.02.035,Info_measure_main_exp,2022.2.2,Win32,59.78000956,,,,,,,,,,,,,,,,,,masks/mask_001.jpg,,,,,,,,,,,,,,,,,,,,,,,,,,,,,,,,,,,,,,,,,,,0,3,3,0,1,,,,,,,,,,,,,,,,,,,,,,,,,,,,,,,,,,,,,,,,,,,,,,
728596,001,2022-11-20_23h51.02.035,Info_measure_main_exp,2022.2.2,Win32,59.78000956,,,,,,,,,,,,,,,,,,masks/mask_004.jpg,,,,,,,,,,,,,,,,,,,,,,,,,,,,,,,,,,,,,,,,,,,0,4,4,3,1,,,,,,,,,,,,,,,,,,,,,,,,,,,,,,,,,,,,,,,,,,,,,,
728596,001,2022-11-20_23h51.02.035,Info_measure_main_exp,2022.2.2,Win32,59.78000956,,,,,,,,,,,,,,,,,,masks/mask_005.jpg,,,,,,,,,,,,,,,,,,,,,,,,,,,,,,,,,,,,,,,,,,,,,,,,0,0,0,4,1,,,,,,,,,,,,,,,,,,,,,,,,,,,,,,,,,,,,,,,,,
728596,001,2022-11-20_23h51.02.035,Info_measure_main_exp,2022.2.2,Win32,59.78000956,,,,,,,,,,,,,,,,,,masks/mask_002.jpg,,,,,,,,,,,,,,,,,,,,,,,,,,,,,,,,,,,,,,,,,,,,,,,,0,1,1,1,1,,,,,,,,,,,,,,,,,,,,,,,,,,,,,,,,,,,,,,,,,
728596,001,2022-11-20_23h51.02.035,Info_measure_main_exp,2022.2.2,Win32,59.78000956,,,,,,,,,,,,,,,,,,masks/mask_004.jpg,,,,,,,,,,,,,,,,,,,,,,,,,,,,,,,,,,,,,,,,,,,,,,,,0,2,2,3,1,,,,,,,,,,,,,,,,,,,,,,,,,,,,,,,,,,,,,,,,,
728596,001,2022-11-20_23h51.02.035,Info_measure_main_exp,2022.2.2,Win32,59.78000956,,,,,,,,,,,,,,,,,,masks/mask_001.jpg,,,,,,,,,,,,,,,,,,,,,,,,,,,,,,,,,,,,,,,,,,,,,,,,0,3,3,0,1,,,,,,,,,,,,,,,,,,,,,,,,,,,,,,,,,,,,,,,,,
728596,001,2022-11-20_23h51.02.035,Info_measure_main_exp,2022.2.2,Win32,59.78000956,,,,,,,,,,,,,,,,,,masks/mask_003.jpg,,,,,,,,,,,,,,,,,,,,,,,,,,,,,,,,,,,,,,,,,,,,,,,,0,4,4,2,1,,,,,,,,,,,,,,,,,,,,,,,,,,,,,,,,,,,,,,,,,
728596,001,2022-11-20_23h51.02.035,Info_measure_main_exp,2022.2.2,Win32,59.78000956,,,,,,,,,,,,,,,,,,,,,,,,,,,,,,0,1.4327,1,,,,,,,,,,,,0,131,5,5,2274,2274,absent_patch/patch0002274.jpg,absent_patch/patch0002274.jpg,,,,,,,,,,,,,,,,,,,,-0.04351849,0.116666653,1,0,0,response7disk,1,-0.00462963,0.001851859,1,0,0,center_square,0,0,0,114,1,,,,,,,,,,,,,,,,,,,,,,,
728596,001,2022-11-20_23h51.02.035,Info_measure_main_exp,2022.2.2,Win32,59.78000956,,,,,,,,,,,,,,,,,,masks/mask_002.jpg,,,,,,,,,,,,,,,,,,,,,,,,,,,,,,,,,,,,,,,,,,,0,0,0,1,1,,,,,,,,,,,,,,,,,,,,,,,,,,,,,,,,,,,,,,,,,,,,,,
728596,001,2022-11-20_23h51.02.035,Info_measure_main_exp,2022.2.2,Win32,59.78000956,,,,,,,,,,,,,,,,,,masks/mask_001.jpg,,,,,,,,,,,,,,,,,,,,,,,,,,,,,,,,,,,,,,,,,,,0,1,1,0,1,,,,,,,,,,,,,,,,,,,,,,,,,,,,,,,,,,,,,,,,,,,,,,
728596,001,2022-11-20_23h51.02.035,Info_measure_main_exp,2022.2.2,Win32,59.78000956,,,,,,,,,,,,,,,,,,masks/mask_003.jpg,,,,,,,,,,,,,,,,,,,,,,,,,,,,,,,,,,,,,,,,,,,0,2,2,2,1,,,,,,,,,,,,,,,,,,,,,,,,,,,,,,,,,,,,,,,,,,,,,,
728596,001,2022-11-20_23h51.02.035,Info_measure_main_exp,2022.2.2,Win32,59.78000956,,,,,,,,,,,,,,,,,,masks/mask_005.jpg,,,,,,,,,,,,,,,,,,,,,,,,,,,,,,,,,,,,,,,,,,,0,3,3,4,1,,,,,,,,,,,,,,,,,,,,,,,,,,,,,,,,,,,,,,,,,,,,,,
728596,001,2022-11-20_23h51.02.035,Info_measure_main_exp,2022.2.2,Win32,59.78000956,,,,,,,,,,,,,,,,,,masks/mask_004.jpg,,,,,,,,,,,,,,,,,,,,,,,,,,,,,,,,,,,,,,,,,,,0,4,4,3,1,,,,,,,,,,,,,,,,,,,,,,,,,,,,,,,,,,,,,,,,,,,,,,
728596,001,2022-11-20_23h51.02.035,Info_measure_main_exp,2022.2.2,Win32,59.78000956,,,,,,,,,,,,,,,,,,masks/mask_002.jpg,,,,,,,,,,,,,,,,,,,,,,,,,,,,,,,,,,,,,,,,,,,,,,,,0,0,0,1,1,,,,,,,,,,,,,,,,,,,,,,,,,,,,,,,,,,,,,,,,,
728596,001,2022-11-20_23h51.02.035,Info_measure_main_exp,2022.2.2,Win32,59.78000956,,,,,,,,,,,,,,,,,,masks/mask_005.jpg,,,,,,,,,,,,,,,,,,,,,,,,,,,,,,,,,,,,,,,,,,,,,,,,0,1,1,4,1,,,,,,,,,,,,,,,,,,,,,,,,,,,,,,,,,,,,,,,,,
728596,001,2022-11-20_23h51.02.035,Info_measure_main_exp,2022.2.2,Win32,59.78000956,,,,,,,,,,,,,,,,,,masks/mask_003.jpg,,,,,,,,,,,,,,,,,,,,,,,,,,,,,,,,,,,,,,,,,,,,,,,,0,2,2,2,1,,,,,,,,,,,,,,,,,,,,,,,,,,,,,,,,,,,,,,,,,
728596,001,2022-11-20_23h51.02.035,Info_measure_main_exp,2022.2.2,Win32,59.78000956,,,,,,,,,,,,,,,,,,masks/mask_004.jpg,,,,,,,,,,,,,,,,,,,,,,,,,,,,,,,,,,,,,,,,,,,,,,,,0,3,3,3,1,,,,,,,,,,,,,,,,,,,,,,,,,,,,,,,,,,,,,,,,,
728596,001,2022-11-20_23h51.02.035,Info_measure_main_exp,2022.2.2,Win32,59.78000956,,,,,,,,,,,,,,,,,,masks/mask_001.jpg,,,,,,,,,,,,,,,,,,,,,,,,,,,,,,,,,,,,,,,,,,,,,,,,0,4,4,0,1,,,,,,,,,,,,,,,,,,,,,,,,,,,,,,,,,,,,,,,,,
728596,001,2022-11-20_23h51.02.035,Info_measure_main_exp,2022.2.2,Win32,59.78000956,,,,,,,,,,,,,,,,,,,,,,,,,,,,,,7,1.0671,1,,,,,,,,,,,,0,131,5,5,2298,2274,absent_patch/patch0002298.jpg,absent_patch/patch0002274.jpg,,,,,,,,,,,,,,,,,,,,0.062037079,0.107407393,1,0,0,response1disk,2,0.002777806,0.005555541,1,0,0,center_square,0,1,1,1,1,,,,,,,,,,,,,,,,,,,,,,,
728596,001,2022-11-20_23h51.02.035,Info_measure_main_exp,2022.2.2,Win32,59.78000956,,,,,,,,,,,,,,,,,,masks/mask_002.jpg,,,,,,,,,,,,,,,,,,,,,,,,,,,,,,,,,,,,,,,,,,,0,0,0,1,1,,,,,,,,,,,,,,,,,,,,,,,,,,,,,,,,,,,,,,,,,,,,,,
728596,001,2022-11-20_23h51.02.035,Info_measure_main_exp,2022.2.2,Win32,59.78000956,,,,,,,,,,,,,,,,,,masks/mask_003.jpg,,,,,,,,,,,,,,,,,,,,,,,,,,,,,,,,,,,,,,,,,,,0,1,1,2,1,,,,,,,,,,,,,,,,,,,,,,,,,,,,,,,,,,,,,,,,,,,,,,
728596,001,2022-11-20_23h51.02.035,Info_measure_main_exp,2022.2.2,Win32,59.78000956,,,,,,,,,,,,,,,,,,masks/mask_001.jpg,,,,,,,,,,,,,,,,,,,,,,,,,,,,,,,,,,,,,,,,,,,0,2,2,0,1,,,,,,,,,,,,,,,,,,,,,,,,,,,,,,,,,,,,,,,,,,,,,,
728596,001,2022-11-20_23h51.02.035,Info_measure_main_exp,2022.2.2,Win32,59.78000956,,,,,,,,,,,,,,,,,,masks/mask_004.jpg,,,,,,,,,,,,,,,,,,,,,,,,,,,,,,,,,,,,,,,,,,,0,3,3,3,1,,,,,,,,,,,,,,,,,,,,,,,,,,,,,,,,,,,,,,,,,,,,,,
728596,001,2022-11-20_23h51.02.035,Info_measure_main_exp,2022.2.2,Win32,59.78000956,,,,,,,,,,,,,,,,,,masks/mask_005.jpg,,,,,,,,,,,,,,,,,,,,,,,,,,,,,,,,,,,,,,,,,,,0,4,4,4,1,,,,,,,,,,,,,,,,,,,,,,,,,,,,,,,,,,,,,,,,,,,,,,
728596,001,2022-11-20_23h51.02.035,Info_measure_main_exp,2022.2.2,Win32,59.78000956,,,,,,,,,,,,,,,,,,masks/mask_002.jpg,,,,,,,,,,,,,,,,,,,,,,,,,,,,,,,,,,,,,,,,,,,,,,,,0,0,0,1,1,,,,,,,,,,,,,,,,,,,,,,,,,,,,,,,,,,,,,,,,,
728596,001,2022-11-20_23h51.02.035,Info_measure_main_exp,2022.2.2,Win32,59.78000956,,,,,,,,,,,,,,,,,,masks/mask_004.jpg,,,,,,,,,,,,,,,,,,,,,,,,,,,,,,,,,,,,,,,,,,,,,,,,0,1,1,3,1,,,,,,,,,,,,,,,,,,,,,,,,,,,,,,,,,,,,,,,,,
728596,001,2022-11-20_23h51.02.035,Info_measure_main_exp,2022.2.2,Win32,59.78000956,,,,,,,,,,,,,,,,,,masks/mask_005.jpg,,,,,,,,,,,,,,,,,,,,,,,,,,,,,,,,,,,,,,,,,,,,,,,,0,2,2,4,1,,,,,,,,,,,,,,,,,,,,,,,,,,,,,,,,,,,,,,,,,
728596,001,2022-11-20_23h51.02.035,Info_measure_main_exp,2022.2.2,Win32,59.78000956,,,,,,,,,,,,,,,,,,masks/mask_001.jpg,,,,,,,,,,,,,,,,,,,,,,,,,,,,,,,,,,,,,,,,,,,,,,,,0,3,3,0,1,,,,,,,,,,,,,,,,,,,,,,,,,,,,,,,,,,,,,,,,,
728596,001,2022-11-20_23h51.02.035,Info_measure_main_exp,2022.2.2,Win32,59.78000956,,,,,,,,,,,,,,,,,,masks/mask_003.jpg,,,,,,,,,,,,,,,,,,,,,,,,,,,,,,,,,,,,,,,,,,,,,,,,0,4,4,2,1,,,,,,,,,,,,,,,,,,,,,,,,,,,,,,,,,,,,,,,,,
728596,001,2022-11-20_23h51.02.035,Info_measure_main_exp,2022.2.2,Win32,59.78000956,,,,,,,,,,,,,,,,,,,,,,,,,,,,,,0,0.6166,1,,,,,,,,,,,,0,131,5,5,1986,1986,absent_patch/patch0001986.jpg,absent_patch/patch0001986.jpg,,,,,,,,,,,,,,,,,,,,-0.014814801,0.092592593,1,0,0,response7disk,3,0.00462963,0.005555541,1,0,0,center_square,0,2,2,19,1,,,,,,,,,,,,,,,,,,,,,,,
728596,001,2022-11-20_23h51.02.035,Info_measure_main_exp,2022.2.2,Win32,59.78000956,,,,,,,,,,,,,,,,,,masks/mask_002.jpg,,,,,,,,,,,,,,,,,,,,,,,,,,,,,,,,,,,,,,,,,,,0,0,0,1,1,,,,,,,,,,,,,,,,,,,,,,,,,,,,,,,,,,,,,,,,,,,,,,
728596,001,2022-11-20_23h51.02.035,Info_measure_main_exp,2022.2.2,Win32,59.78000956,,,,,,,,,,,,,,,,,,masks/mask_003.jpg,,,,,,,,,,,,,,,,,,,,,,,,,,,,,,,,,,,,,,,,,,,0,1,1,2,1,,,,,,,,,,,,,,,,,,,,,,,,,,,,,,,,,,,,,,,,,,,,,,
728596,001,2022-11-20_23h51.02.035,Info_measure_main_exp,2022.2.2,Win32,59.78000956,,,,,,,,,,,,,,,,,,masks/mask_004.jpg,,,,,,,,,,,,,,,,,,,,,,,,,,,,,,,,,,,,,,,,,,,0,2,2,3,1,,,,,,,,,,,,,,,,,,,,,,,,,,,,,,,,,,,,,,,,,,,,,,
728596,001,2022-11-20_23h51.02.035,Info_measure_main_exp,2022.2.2,Win32,59.78000956,,,,,,,,,,,,,,,,,,masks/mask_005.jpg,,,,,,,,,,,,,,,,,,,,,,,,,,,,,,,,,,,,,,,,,,,0,3,3,4,1,,,,,,,,,,,,,,,,,,,,,,,,,,,,,,,,,,,,,,,,,,,,,,
728596,001,2022-11-20_23h51.02.035,Info_measure_main_exp,2022.2.2,Win32,59.78000956,,,,,,,,,,,,,,,,,,masks/mask_001.jpg,,,,,,,,,,,,,,,,,,,,,,,,,,,,,,,,,,,,,,,,,,,0,4,4,0,1,,,,,,,,,,,,,,,,,,,,,,,,,,,,,,,,,,,,,,,,,,,,,,
728596,001,2022-11-20_23h51.02.035,Info_measure_main_exp,2022.2.2,Win32,59.78000956,,,,,,,,,,,,,,,,,,masks/mask_002.jpg,,,,,,,,,,,,,,,,,,,,,,,,,,,,,,,,,,,,,,,,,,,,,,,,0,0,0,1,1,,,,,,,,,,,,,,,,,,,,,,,,,,,,,,,,,,,,,,,,,
728596,001,2022-11-20_23h51.02.035,Info_measure_main_exp,2022.2.2,Win32,59.78000956,,,,,,,,,,,,,,,,,,masks/mask_005.jpg,,,,,,,,,,,,,,,,,,,,,,,,,,,,,,,,,,,,,,,,,,,,,,,,0,1,1,4,1,,,,,,,,,,,,,,,,,,,,,,,,,,,,,,,,,,,,,,,,,
728596,001,2022-11-20_23h51.02.035,Info_measure_main_exp,2022.2.2,Win32,59.78000956,,,,,,,,,,,,,,,,,,masks/mask_003.jpg,,,,,,,,,,,,,,,,,,,,,,,,,,,,,,,,,,,,,,,,,,,,,,,,0,2,2,2,1,,,,,,,,,,,,,,,,,,,,,,,,,,,,,,,,,,,,,,,,,
728596,001,2022-11-20_23h51.02.035,Info_measure_main_exp,2022.2.2,Win32,59.78000956,,,,,,,,,,,,,,,,,,masks/mask_004.jpg,,,,,,,,,,,,,,,,,,,,,,,,,,,,,,,,,,,,,,,,,,,,,,,,0,3,3,3,1,,,,,,,,,,,,,,,,,,,,,,,,,,,,,,,,,,,,,,,,,
728596,001,2022-11-20_23h51.02.035,Info_measure_main_exp,2022.2.2,Win32,59.78000956,,,,,,,,,,,,,,,,,,masks/mask_001.jpg,,,,,,,,,,,,,,,,,,,,,,,,,,,,,,,,,,,,,,,,,,,,,,,,0,4,4,0,1,,,,,,,,,,,,,,,,,,,,,,,,,,,,,,,,,,,,,,,,,
728596,001,2022-11-20_23h51.02.035,Info_measure_main_exp,2022.2.2,Win32,59.78000956,,,,,,,,,,,,,,,,,,,,,,,,,,,,,,0,0.5332,1,,,,,,,,,,,,0,131,5,5,2298,2298,absent_patch/patch0002298.jpg,absent_patch/patch0002298.jpg,,,,,,,,,,,,,,,,,,,,-0.017592607,0.070370356,1,0,0,response7disk,4,0.002777806,-0.002777771,1,0,0,center_square,0,3,3,37,1,,,,,,,,,,,,,,,,,,,,,,,
728596,001,2022-11-20_23h51.02.035,Info_measure_main_exp,2022.2.2,Win32,59.78000956,,,,,,,,,,,,,,,,,,masks/mask_002.jpg,,,,,,,,,,,,,,,,,,,,,,,,,,,,,,,,,,,,,,,,,,,0,0,0,1,1,,,,,,,,,,,,,,,,,,,,,,,,,,,,,,,,,,,,,,,,,,,,,,
728596,001,2022-11-20_23h51.02.035,Info_measure_main_exp,2022.2.2,Win32,59.78000956,,,,,,,,,,,,,,,,,,masks/mask_004.jpg,,,,,,,,,,,,,,,,,,,,,,,,,,,,,,,,,,,,,,,,,,,0,1,1,3,1,,,,,,,,,,,,,,,,,,,,,,,,,,,,,,,,,,,,,,,,,,,,,,
728596,001,2022-11-20_23h51.02.035,Info_measure_main_exp,2022.2.2,Win32,59.78000956,,,,,,,,,,,,,,,,,,masks/mask_005.jpg,,,,,,,,,,,,,,,,,,,,,,,,,,,,,,,,,,,,,,,,,,,0,2,2,4,1,,,,,,,,,,,,,,,,,,,,,,,,,,,,,,,,,,,,,,,,,,,,,,
728596,001,2022-11-20_23h51.02.035,Info_measure_main_exp,2022.2.2,Win32,59.78000956,,,,,,,,,,,,,,,,,,masks/mask_003.jpg,,,,,,,,,,,,,,,,,,,,,,,,,,,,,,,,,,,,,,,,,,,0,3,3,2,1,,,,,,,,,,,,,,,,,,,,,,,,,,,,,,,,,,,,,,,,,,,,,,
728596,001,2022-11-20_23h51.02.035,Info_measure_main_exp,2022.2.2,Win32,59.78000956,,,,,,,,,,,,,,,,,,masks/mask_001.jpg,,,,,,,,,,,,,,,,,,,,,,,,,,,,,,,,,,,,,,,,,,,0,4,4,0,1,,,,,,,,,,,,,,,,,,,,,,,,,,,,,,,,,,,,,,,,,,,,,,
728596,001,2022-11-20_23h51.02.035,Info_measure_main_exp,2022.2.2,Win32,59.78000956,,,,,,,,,,,,,,,,,,masks/mask_003.jpg,,,,,,,,,,,,,,,,,,,,,,,,,,,,,,,,,,,,,,,,,,,,,,,,0,0,0,2,1,,,,,,,,,,,,,,,,,,,,,,,,,,,,,,,,,,,,,,,,,
728596,001,2022-11-20_23h51.02.035,Info_measure_main_exp,2022.2.2,Win32,59.78000956,,,,,,,,,,,,,,,,,,masks/mask_004.jpg,,,,,,,,,,,,,,,,,,,,,,,,,,,,,,,,,,,,,,,,,,,,,,,,0,1,1,3,1,,,,,,,,,,,,,,,,,,,,,,,,,,,,,,,,,,,,,,,,,
728596,001,2022-11-20_23h51.02.035,Info_measure_main_exp,2022.2.2,Win32,59.78000956,,,,,,,,,,,,,,,,,,masks/mask_001.jpg,,,,,,,,,,,,,,,,,,,,,,,,,,,,,,,,,,,,,,,,,,,,,,,,0,2,2,0,1,,,,,,,,,,,,,,,,,,,,,,,,,,,,,,,,,,,,,,,,,
728596,001,2022-11-20_23h51.02.035,Info_measure_main_exp,2022.2.2,Win32,59.78000956,,,,,,,,,,,,,,,,,,masks/mask_002.jpg,,,,,,,,,,,,,,,,,,,,,,,,,,,,,,,,,,,,,,,,,,,,,,,,0,3,3,1,1,,,,,,,,,,,,,,,,,,,,,,,,,,,,,,,,,,,,,,,,,
728596,001,2022-11-20_23h51.02.035,Info_measure_main_exp,2022.2.2,Win32,59.78000956,,,,,,,,,,,,,,,,,,masks/mask_005.jpg,,,,,,,,,,,,,,,,,,,,,,,,,,,,,,,,,,,,,,,,,,,,,,,,0,4,4,4,1,,,,,,,,,,,,,,,,,,,,,,,,,,,,,,,,,,,,,,,,,
728596,001,2022-11-20_23h51.02.035,Info_measure_main_exp,2022.2.2,Win32,59.78000956,,,,,,,,,,,,,,,,,,,,,,,,,,,,,,2,1.4333,1,,,,,,,,,,,,0,131,5,5,1974,1950,absent_patch/patch0001974.jpg,absent_patch/patch0001950.jpg,,,,,,,,,,,,,,,,,,,,-0.057407379,-0.01666666,1,0,0,response5disk,5,-0.014814801,-0.005555577,1,0,0,center_square,0,4,4,17,1,,,,,,,,,,,,,,,,,,,,,,,
728596,001,2022-11-20_23h51.02.035,Info_measure_main_exp,2022.2.2,Win32,59.78000956,,,,,,,,,,,,,,,,,,masks/mask_005.jpg,,,,,,,,,,,,,,,,,,,,,,,,,,,,,,,,,,,,,,,,,,,0,0,0,4,1,,,,,,,,,,,,,,,,,,,,,,,,,,,,,,,,,,,,,,,,,,,,,,
728596,001,2022-11-20_23h51.02.035,Info_measure_main_exp,2022.2.2,Win32,59.78000956,,,,,,,,,,,,,,,,,,masks/mask_002.jpg,,,,,,,,,,,,,,,,,,,,,,,,,,,,,,,,,,,,,,,,,,,0,1,1,1,1,,,,,,,,,,,,,,,,,,,,,,,,,,,,,,,,,,,,,,,,,,,,,,
728596,001,2022-11-20_23h51.02.035,Info_measure_main_exp,2022.2.2,Win32,59.78000956,,,,,,,,,,,,,,,,,,masks/mask_004.jpg,,,,,,,,,,,,,,,,,,,,,,,,,,,,,,,,,,,,,,,,,,,0,2,2,3,1,,,,,,,,,,,,,,,,,,,,,,,,,,,,,,,,,,,,,,,,,,,,,,
728596,001,2022-11-20_23h51.02.035,Info_measure_main_exp,2022.2.2,Win32,59.78000956,,,,,,,,,,,,,,,,,,masks/mask_001.jpg,,,,,,,,,,,,,,,,,,,,,,,,,,,,,,,,,,,,,,,,,,,0,3,3,0,1,,,,,,,,,,,,,,,,,,,,,,,,,,,,,,,,,,,,,,,,,,,,,,
728596,001,2022-11-20_23h51.02.035,Info_measure_main_exp,2022.2.2,Win32,59.78000956,,,,,,,,,,,,,,,,,,masks/mask_003.jpg,,,,,,,,,,,,,,,,,,,,,,,,,,,,,,,,,,,,,,,,,,,0,4,4,2,1,,,,,,,,,,,,,,,,,,,,,,,,,,,,,,,,,,,,,,,,,,,,,,
728596,001,2022-11-20_23h51.02.035,Info_measure_main_exp,2022.2.2,Win32,59.78000956,,,,,,,,,,,,,,,,,,masks/mask_001.jpg,,,,,,,,,,,,,,,,,,,,,,,,,,,,,,,,,,,,,,,,,,,,,,,,0,0,0,0,1,,,,,,,,,,,,,,,,,,,,,,,,,,,,,,,,,,,,,,,,,
728596,001,2022-11-20_23h51.02.035,Info_measure_main_exp,2022.2.2,Win32,59.78000956,,,,,,,,,,,,,,,,,,masks/mask_005.jpg,,,,,,,,,,,,,,,,,,,,,,,,,,,,,,,,,,,,,,,,,,,,,,,,0,1,1,4,1,,,,,,,,,,,,,,,,,,,,,,,,,,,,,,,,,,,,,,,,,
728596,001,2022-11-20_23h51.02.035,Info_measure_main_exp,2022.2.2,Win32,59.78000956,,,,,,,,,,,,,,,,,,masks/mask_003.jpg,,,,,,,,,,,,,,,,,,,,,,,,,,,,,,,,,,,,,,,,,,,,,,,,0,2,2,2,1,,,,,,,,,,,,,,,,,,,,,,,,,,,,,,,,,,,,,,,,,
728596,001,2022-11-20_23h51.02.035,Info_measure_main_exp,2022.2.2,Win32,59.78000956,,,,,,,,,,,,,,,,,,masks/mask_004.jpg,,,,,,,,,,,,,,,,,,,,,,,,,,,,,,,,,,,,,,,,,,,,,,,,0,3,3,3,1,,,,,,,,,,,,,,,,,,,,,,,,,,,,,,,,,,,,,,,,,
728596,001,2022-11-20_23h51.02.035,Info_measure_main_exp,2022.2.2,Win32,59.78000956,,,,,,,,,,,,,,,,,,masks/mask_002.jpg,,,,,,,,,,,,,,,,,,,,,,,,,,,,,,,,,,,,,,,,,,,,,,,,0,4,4,1,1,,,,,,,,,,,,,,,,,,,,,,,,,,,,,,,,,,,,,,,,,
728596,001,2022-11-20_23h51.02.035,Info_measure_main_exp,2022.2.2,Win32,59.78000956,,,,,,,,,,,,,,,,,,,,,,,,,,,,,,6,1.5496,1,,,,,,,,,,,,0,131,5,5,2142,2166,absent_patch/patch0002142.jpg,absent_patch/patch0002166.jpg,,,,,,,,,,,,,,,,,,,,0.119444459,0.054629608,1,0,0,response1disk,6,0.000925912,0.00462963,1,0,0,center_square,0,5,5,66,1,,,,,,,,,,,,,,,,,,,,,,,
728596,001,2022-11-20_23h51.02.035,Info_measure_main_exp,2022.2.2,Win32,59.78000956,,,,,,,,,,,,,,,,,,masks/mask_004.jpg,,,,,,,,,,,,,,,,,,,,,,,,,,,,,,,,,,,,,,,,,,,0,0,0,3,1,,,,,,,,,,,,,,,,,,,,,,,,,,,,,,,,,,,,,,,,,,,,,,
728596,001,2022-11-20_23h51.02.035,Info_measure_main_exp,2022.2.2,Win32,59.78000956,,,,,,,,,,,,,,,,,,masks/mask_002.jpg,,,,,,,,,,,,,,,,,,,,,,,,,,,,,,,,,,,,,,,,,,,0,1,1,1,1,,,,,,,,,,,,,,,,,,,,,,,,,,,,,,,,,,,,,,,,,,,,,,
728596,001,2022-11-20_23h51.02.035,Info_measure_main_exp,2022.2.2,Win32,59.78000956,,,,,,,,,,,,,,,,,,masks/mask_001.jpg,,,,,,,,,,,,,,,,,,,,,,,,,,,,,,,,,,,,,,,,,,,0,2,2,0,1,,,,,,,,,,,,,,,,,,,,,,,,,,,,,,,,,,,,,,,,,,,,,,
728596,001,2022-11-20_23h51.02.035,Info_measure_main_exp,2022.2.2,Win32,59.78000956,,,,,,,,,,,,,,,,,,masks/mask_003.jpg,,,,,,,,,,,,,,,,,,,,,,,,,,,,,,,,,,,,,,,,,,,0,3,3,2,1,,,,,,,,,,,,,,,,,,,,,,,,,,,,,,,,,,,,,,,,,,,,,,
728596,001,2022-11-20_23h51.02.035,Info_measure_main_exp,2022.2.2,Win32,59.78000956,,,,,,,,,,,,,,,,,,masks/mask_005.jpg,,,,,,,,,,,,,,,,,,,,,,,,,,,,,,,,,,,,,,,,,,,0,4,4,4,1,,,,,,,,,,,,,,,,,,,,,,,,,,,,,,,,,,,,,,,,,,,,,,
728596,001,2022-11-20_23h51.02.035,Info_measure_main_exp,2022.2.2,Win32,59.78000956,,,,,,,,,,,,,,,,,,masks/mask_001.jpg,,,,,,,,,,,,,,,,,,,,,,,,,,,,,,,,,,,,,,,,,,,,,,,,0,0,0,0,1,,,,,,,,,,,,,,,,,,,,,,,,,,,,,,,,,,,,,,,,,
728596,001,2022-11-20_23h51.02.035,Info_measure_main_exp,2022.2.2,Win32,59.78000956,,,,,,,,,,,,,,,,,,masks/mask_002.jpg,,,,,,,,,,,,,,,,,,,,,,,,,,,,,,,,,,,,,,,,,,,,,,,,0,1,1,1,1,,,,,,,,,,,,,,,,,,,,,,,,,,,,,,,,,,,,,,,,,
728596,001,2022-11-20_23h51.02.035,Info_measure_main_exp,2022.2.2,Win32,59.78000956,,,,,,,,,,,,,,,,,,masks/mask_003.jpg,,,,,,,,,,,,,,,,,,,,,,,,,,,,,,,,,,,,,,,,,,,,,,,,0,2,2,2,1,,,,,,,,,,,,,,,,,,,,,,,,,,,,,,,,,,,,,,,,,
728596,001,2022-11-20_23h51.02.035,Info_measure_main_exp,2022.2.2,Win32,59.78000956,,,,,,,,,,,,,,,,,,masks/mask_005.jpg,,,,,,,,,,,,,,,,,,,,,,,,,,,,,,,,,,,,,,,,,,,,,,,,0,3,3,4,1,,,,,,,,,,,,,,,,,,,,,,,,,,,,,,,,,,,,,,,,,
728596,001,2022-11-20_23h51.02.035,Info_measure_main_exp,2022.2.2,Win32,59.78000956,,,,,,,,,,,,,,,,,,masks/mask_004.jpg,,,,,,,,,,,,,,,,,,,,,,,,,,,,,,,,,,,,,,,,,,,,,,,,0,4,4,3,1,,,,,,,,,,,,,,,,,,,,,,,,,,,,,,,,,,,,,,,,,
728596,001,2022-11-20_23h51.02.035,Info_measure_main_exp,2022.2.2,Win32,59.78000956,,,,,,,,,,,,,,,,,,,,,,,,,,,,,,7,0.9492,1,,,,,,,,,,,,0,131,5,5,2082,2238,absent_patch/patch0002082.jpg,absent_patch/patch0002238.jpg,,,,,,,,,,,,,,,,,,,,0.025000042,0.076851845,1,0,0,response1disk,7,-0.001851824,0.000925912,1,0,0,center_square,0,6,6,22,1,,,,,,,,,,,,,,,,,,,,,,,
728596,001,2022-11-20_23h51.02.035,Info_measure_main_exp,2022.2.2,Win32,59.78000956,,,,,,,,,,,,,,,,,,masks/mask_005.jpg,,,,,,,,,,,,,,,,,,,,,,,,,,,,,,,,,,,,,,,,,,,0,0,0,4,1,,,,,,,,,,,,,,,,,,,,,,,,,,,,,,,,,,,,,,,,,,,,,,
728596,001,2022-11-20_23h51.02.035,Info_measure_main_exp,2022.2.2,Win32,59.78000956,,,,,,,,,,,,,,,,,,masks/mask_001.jpg,,,,,,,,,,,,,,,,,,,,,,,,,,,,,,,,,,,,,,,,,,,0,1,1,0,1,,,,,,,,,,,,,,,,,,,,,,,,,,,,,,,,,,,,,,,,,,,,,,
728596,001,2022-11-20_23h51.02.035,Info_measure_main_exp,2022.2.2,Win32,59.78000956,,,,,,,,,,,,,,,,,,masks/mask_003.jpg,,,,,,,,,,,,,,,,,,,,,,,,,,,,,,,,,,,,,,,,,,,0,2,2,2,1,,,,,,,,,,,,,,,,,,,,,,,,,,,,,,,,,,,,,,,,,,,,,,
728596,001,2022-11-20_23h51.02.035,Info_measure_main_exp,2022.2.2,Win32,59.78000956,,,,,,,,,,,,,,,,,,masks/mask_002.jpg,,,,,,,,,,,,,,,,,,,,,,,,,,,,,,,,,,,,,,,,,,,0,3,3,1,1,,,,,,,,,,,,,,,,,,,,,,,,,,,,,,,,,,,,,,,,,,,,,,
728596,001,2022-11-20_23h51.02.035,Info_measure_main_exp,2022.2.2,Win32,59.78000956,,,,,,,,,,,,,,,,,,masks/mask_004.jpg,,,,,,,,,,,,,,,,,,,,,,,,,,,,,,,,,,,,,,,,,,,0,4,4,3,1,,,,,,,,,,,,,,,,,,,,,,,,,,,,,,,,,,,,,,,,,,,,,,
728596,001,2022-11-20_23h51.02.035,Info_measure_main_exp,2022.2.2,Win32,59.78000956,,,,,,,,,,,,,,,,,,masks/mask_004.jpg,,,,,,,,,,,,,,,,,,,,,,,,,,,,,,,,,,,,,,,,,,,,,,,,0,0,0,3,1,,,,,,,,,,,,,,,,,,,,,,,,,,,,,,,,,,,,,,,,,
728596,001,2022-11-20_23h51.02.035,Info_measure_main_exp,2022.2.2,Win32,59.78000956,,,,,,,,,,,,,,,,,,masks/mask_002.jpg,,,,,,,,,,,,,,,,,,,,,,,,,,,,,,,,,,,,,,,,,,,,,,,,0,1,1,1,1,,,,,,,,,,,,,,,,,,,,,,,,,,,,,,,,,,,,,,,,,
728596,001,2022-11-20_23h51.02.035,Info_measure_main_exp,2022.2.2,Win32,59.78000956,,,,,,,,,,,,,,,,,,masks/mask_001.jpg,,,,,,,,,,,,,,,,,,,,,,,,,,,,,,,,,,,,,,,,,,,,,,,,0,2,2,0,1,,,,,,,,,,,,,,,,,,,,,,,,,,,,,,,,,,,,,,,,,
728596,001,2022-11-20_23h51.02.035,Info_measure_main_exp,2022.2.2,Win32,59.78000956,,,,,,,,,,,,,,,,,,masks/mask_005.jpg,,,,,,,,,,,,,,,,,,,,,,,,,,,,,,,,,,,,,,,,,,,,,,,,0,3,3,4,1,,,,,,,,,,,,,,,,,,,,,,,,,,,,,,,,,,,,,,,,,
728596,001,2022-11-20_23h51.02.035,Info_measure_main_exp,2022.2.2,Win32,59.78000956,,,,,,,,,,,,,,,,,,masks/mask_003.jpg,,,,,,,,,,,,,,,,,,,,,,,,,,,,,,,,,,,,,,,,,,,,,,,,0,4,4,2,1,,,,,,,,,,,,,,,,,,,,,,,,,,,,,,,,,,,,,,,,,
728596,001,2022-11-20_23h51.02.035,Info_measure_main_exp,2022.2.2,Win32,59.78000956,,,,,,,,,,,,,,,,,,,,,,,,,,,,,,6,1.2332,1,,,,,,,,,,,,0,131,5,5,1950,2142,absent_patch/patch0001950.jpg,absent_patch/patch0002142.jpg,,,,,,,,,,,,,,,,,,,,0.150925954,0.021296289,1,0,0,response1disk,8,0.008333347,-0.003703718,1,0,0,center_square,0,7,7,83,1,,,,,,,,,,,,,,,,,,,,,,,
728596,001,2022-11-20_23h51.02.035,Info_measure_main_exp,2022.2.2,Win32,59.78000956,,,,,,,,,,,,,,,,,,masks/mask_005.jpg,,,,,,,,,,,,,,,,,,,,,,,,,,,,,,,,,,,,,,,,,,,0,0,0,4,1,,,,,,,,,,,,,,,,,,,,,,,,,,,,,,,,,,,,,,,,,,,,,,
728596,001,2022-11-20_23h51.02.035,Info_measure_main_exp,2022.2.2,Win32,59.78000956,,,,,,,,,,,,,,,,,,masks/mask_002.jpg,,,,,,,,,,,,,,,,,,,,,,,,,,,,,,,,,,,,,,,,,,,0,1,1,1,1,,,,,,,,,,,,,,,,,,,,,,,,,,,,,,,,,,,,,,,,,,,,,,
728596,001,2022-11-20_23h51.02.035,Info_measure_main_exp,2022.2.2,Win32,59.78000956,,,,,,,,,,,,,,,,,,masks/mask_004.jpg,,,,,,,,,,,,,,,,,,,,,,,,,,,,,,,,,,,,,,,,,,,0,2,2,3,1,,,,,,,,,,,,,,,,,,,,,,,,,,,,,,,,,,,,,,,,,,,,,,
728596,001,2022-11-20_23h51.02.035,Info_measure_main_exp,2022.2.2,Win32,59.78000956,,,,,,,,,,,,,,,,,,masks/mask_001.jpg,,,,,,,,,,,,,,,,,,,,,,,,,,,,,,,,,,,,,,,,,,,0,3,3,0,1,,,,,,,,,,,,,,,,,,,,,,,,,,,,,,,,,,,,,,,,,,,,,,
728596,001,2022-11-20_23h51.02.035,Info_measure_main_exp,2022.2.2,Win32,59.78000956,,,,,,,,,,,,,,,,,,masks/mask_003.jpg,,,,,,,,,,,,,,,,,,,,,,,,,,,,,,,,,,,,,,,,,,,0,4,4,2,1,,,,,,,,,,,,,,,,,,,,,,,,,,,,,,,,,,,,,,,,,,,,,,
728596,001,2022-11-20_23h51.02.035,Info_measure_main_exp,2022.2.2,Win32,59.78000956,,,,,,,,,,,,,,,,,,masks/mask_003.jpg,,,,,,,,,,,,,,,,,,,,,,,,,,,,,,,,,,,,,,,,,,,,,,,,0,0,0,2,1,,,,,,,,,,,,,,,,,,,,,,,,,,,,,,,,,,,,,,,,,
728596,001,2022-11-20_23h51.02.035,Info_measure_main_exp,2022.2.2,Win32,59.78000956,,,,,,,,,,,,,,,,,,masks/mask_002.jpg,,,,,,,,,,,,,,,,,,,,,,,,,,,,,,,,,,,,,,,,,,,,,,,,0,1,1,1,1,,,,,,,,,,,,,,,,,,,,,,,,,,,,,,,,,,,,,,,,,
728596,001,2022-11-20_23h51.02.035,Info_measure_main_exp,2022.2.2,Win32,59.78000956,,,,,,,,,,,,,,,,,,masks/mask_004.jpg,,,,,,,,,,,,,,,,,,,,,,,,,,,,,,,,,,,,,,,,,,,,,,,,0,2,2,3,1,,,,,,,,,,,,,,,,,,,,,,,,,,,,,,,,,,,,,,,,,
728596,001,2022-11-20_23h51.02.035,Info_measure_main_exp,2022.2.2,Win32,59.78000956,,,,,,,,,,,,,,,,,,masks/mask_001.jpg,,,,,,,,,,,,,,,,,,,,,,,,,,,,,,,,,,,,,,,,,,,,,,,,0,3,3,0,1,,,,,,,,,,,,,,,,,,,,,,,,,,,,,,,,,,,,,,,,,
728596,001,2022-11-20_23h51.02.035,Info_measure_main_exp,2022.2.2,Win32,59.78000956,,,,,,,,,,,,,,,,,,masks/mask_005.jpg,,,,,,,,,,,,,,,,,,,,,,,,,,,,,,,,,,,,,,,,,,,,,,,,0,4,4,4,1,,,,,,,,,,,,,,,,,,,,,,,,,,,,,,,,,,,,,,,,,
728596,001,2022-11-20_23h51.02.035,Info_measure_main_exp,2022.2.2,Win32,59.78000956,,,,,,,,,,,,,,,,,,,,,,,,,,,,,,0,0.6837,1,,,,,,,,,,,,0,131,5,5,2238,2238,absent_patch/patch0002238.jpg,absent_patch/patch0002238.jpg,,,,,,,,,,,,,,,,,,,,-0.066666638,0.109259252,1,0,0,response7disk,9,0.003703718,0.005555541,1,0,0,center_square,0,8,8,58,1,,,,,,,,,,,,,,,,,,,,,,,
728596,001,2022-11-20_23h51.02.035,Info_measure_main_exp,2022.2.2,Win32,59.78000956,,,,,,,,,,,,,,,,,,masks/mask_003.jpg,,,,,,,,,,,,,,,,,,,,,,,,,,,,,,,,,,,,,,,,,,,0,0,0,2,1,,,,,,,,,,,,,,,,,,,,,,,,,,,,,,,,,,,,,,,,,,,,,,
728596,001,2022-11-20_23h51.02.035,Info_measure_main_exp,2022.2.2,Win32,59.78000956,,,,,,,,,,,,,,,,,,masks/mask_004.jpg,,,,,,,,,,,,,,,,,,,,,,,,,,,,,,,,,,,,,,,,,,,0,1,1,3,1,,,,,,,,,,,,,,,,,,,,,,,,,,,,,,,,,,,,,,,,,,,,,,
728596,001,2022-11-20_23h51.02.035,Info_measure_main_exp,2022.2.2,Win32,59.78000956,,,,,,,,,,,,,,,,,,masks/mask_001.jpg,,,,,,,,,,,,,,,,,,,,,,,,,,,,,,,,,,,,,,,,,,,0,2,2,0,1,,,,,,,,,,,,,,,,,,,,,,,,,,,,,,,,,,,,,,,,,,,,,,
728596,001,2022-11-20_23h51.02.035,Info_measure_main_exp,2022.2.2,Win32,59.78000956,,,,,,,,,,,,,,,,,,masks/mask_002.jpg,,,,,,,,,,,,,,,,,,,,,,,,,,,,,,,,,,,,,,,,,,,0,3,3,1,1,,,,,,,,,,,,,,,,,,,,,,,,,,,,,,,,,,,,,,,,,,,,,,
728596,001,2022-11-20_23h51.02.035,Info_measure_main_exp,2022.2.2,Win32,59.78000956,,,,,,,,,,,,,,,,,,masks/mask_005.jpg,,,,,,,,,,,,,,,,,,,,,,,,,,,,,,,,,,,,,,,,,,,0,4,4,4,1,,,,,,,,,,,,,,,,,,,,,,,,,,,,,,,,,,,,,,,,,,,,,,
728596,001,2022-11-20_23h51.02.035,Info_measure_main_exp,2022.2.2,Win32,59.78000956,,,,,,,,,,,,,,,,,,masks/mask_005.jpg,,,,,,,,,,,,,,,,,,,,,,,,,,,,,,,,,,,,,,,,,,,,,,,,0,0,0,4,1,,,,,,,,,,,,,,,,,,,,,,,,,,,,,,,,,,,,,,,,,
728596,001,2022-11-20_23h51.02.035,Info_measure_main_exp,2022.2.2,Win32,59.78000956,,,,,,,,,,,,,,,,,,masks/mask_003.jpg,,,,,,,,,,,,,,,,,,,,,,,,,,,,,,,,,,,,,,,,,,,,,,,,0,1,1,2,1,,,,,,,,,,,,,,,,,,,,,,,,,,,,,,,,,,,,,,,,,
728596,001,2022-11-20_23h51.02.035,Info_measure_main_exp,2022.2.2,Win32,59.78000956,,,,,,,,,,,,,,,,,,masks/mask_004.jpg,,,,,,,,,,,,,,,,,,,,,,,,,,,,,,,,,,,,,,,,,,,,,,,,0,2,2,3,1,,,,,,,,,,,,,,,,,,,,,,,,,,,,,,,,,,,,,,,,,
728596,001,2022-11-20_23h51.02.035,Info_measure_main_exp,2022.2.2,Win32,59.78000956,,,,,,,,,,,,,,,,,,masks/mask_002.jpg,,,,,,,,,,,,,,,,,,,,,,,,,,,,,,,,,,,,,,,,,,,,,,,,0,3,3,1,1,,,,,,,,,,,,,,,,,,,,,,,,,,,,,,,,,,,,,,,,,
728596,001,2022-11-20_23h51.02.035,Info_measure_main_exp,2022.2.2,Win32,59.78000956,,,,,,,,,,,,,,,,,,masks/mask_001.jpg,,,,,,,,,,,,,,,,,,,,,,,,,,,,,,,,,,,,,,,,,,,,,,,,0,4,4,0,1,,,,,,,,,,,,,,,,,,,,,,,,,,,,,,,,,,,,,,,,,
728596,001,2022-11-20_23h51.02.035,Info_measure_main_exp,2022.2.2,Win32,59.78000956,,,,,,,,,,,,,,,,,,,,,,,,,,,,,,3,1.8159,1,,,,,,,,,,,,0,131,5,5,2238,2166,absent_patch/patch0002238.jpg,absent_patch/patch0002166.jpg,,,,,,,,,,,,,,,,,,,,-0.003703718,-0.049074067,1,0,0,response5disk,10,-0.000925912,-0.001851859,1,0,0,center_square,0,9,9,118,1,,,,,,,,,,,,,,,,,,,,,,,
728596,001,2022-11-20_23h51.02.035,Info_measure_main_exp,2022.2.2,Win32,59.78000956,,,,,,,,,,,,,,,,,,masks/mask_005.jpg,,,,,,,,,,,,,,,,,,,,,,,,,,,,,,,,,,,,,,,,,,,0,0,0,4,1,,,,,,,,,,,,,,,,,,,,,,,,,,,,,,,,,,,,,,,,,,,,,,
728596,001,2022-11-20_23h51.02.035,Info_measure_main_exp,2022.2.2,Win32,59.78000956,,,,,,,,,,,,,,,,,,masks/mask_001.jpg,,,,,,,,,,,,,,,,,,,,,,,,,,,,,,,,,,,,,,,,,,,0,1,1,0,1,,,,,,,,,,,,,,,,,,,,,,,,,,,,,,,,,,,,,,,,,,,,,,
728596,001,2022-11-20_23h51.02.035,Info_measure_main_exp,2022.2.2,Win32,59.78000956,,,,,,,,,,,,,,,,,,masks/mask_002.jpg,,,,,,,,,,,,,,,,,,,,,,,,,,,,,,,,,,,,,,,,,,,0,2,2,1,1,,,,,,,,,,,,,,,,,,,,,,,,,,,,,,,,,,,,,,,,,,,,,,
728596,001,2022-11-20_23h51.02.035,Info_measure_main_exp,2022.2.2,Win32,59.78000956,,,,,,,,,,,,,,,,,,masks/mask_003.jpg,,,,,,,,,,,,,,,,,,,,,,,,,,,,,,,,,,,,,,,,,,,0,3,3,2,1,,,,,,,,,,,,,,,,,,,,,,,,,,,,,,,,,,,,,,,,,,,,,,
728596,001,2022-11-20_23h51.02.035,Info_measure_main_exp,2022.2.2,Win32,59.78000956,,,,,,,,,,,,,,,,,,masks/mask_004.jpg,,,,,,,,,,,,,,,,,,,,,,,,,,,,,,,,,,,,,,,,,,,0,4,4,3,1,,,,,,,,,,,,,,,,,,,,,,,,,,,,,,,,,,,,,,,,,,,,,,
728596,001,2022-11-20_23h51.02.035,Info_measure_main_exp,2022.2.2,Win32,59.78000956,,,,,,,,,,,,,,,,,,masks/mask_001.jpg,,,,,,,,,,,,,,,,,,,,,,,,,,,,,,,,,,,,,,,,,,,,,,,,0,0,0,0,1,,,,,,,,,,,,,,,,,,,,,,,,,,,,,,,,,,,,,,,,,
728596,001,2022-11-20_23h51.02.035,Info_measure_main_exp,2022.2.2,Win32,59.78000956,,,,,,,,,,,,,,,,,,masks/mask_005.jpg,,,,,,,,,,,,,,,,,,,,,,,,,,,,,,,,,,,,,,,,,,,,,,,,0,1,1,4,1,,,,,,,,,,,,,,,,,,,,,,,,,,,,,,,,,,,,,,,,,
728596,001,2022-11-20_23h51.02.035,Info_measure_main_exp,2022.2.2,Win32,59.78000956,,,,,,,,,,,,,,,,,,masks/mask_002.jpg,,,,,,,,,,,,,,,,,,,,,,,,,,,,,,,,,,,,,,,,,,,,,,,,0,2,2,1,1,,,,,,,,,,,,,,,,,,,,,,,,,,,,,,,,,,,,,,,,,
728596,001,2022-11-20_23h51.02.035,Info_measure_main_exp,2022.2.2,Win32,59.78000956,,,,,,,,,,,,,,,,,,masks/mask_004.jpg,,,,,,,,,,,,,,,,,,,,,,,,,,,,,,,,,,,,,,,,,,,,,,,,0,3,3,3,1,,,,,,,,,,,,,,,,,,,,,,,,,,,,,,,,,,,,,,,,,
728596,001,2022-11-20_23h51.02.035,Info_measure_main_exp,2022.2.2,Win32,59.78000956,,,,,,,,,,,,,,,,,,masks/mask_003.jpg,,,,,,,,,,,,,,,,,,,,,,,,,,,,,,,,,,,,,,,,,,,,,,,,0,4,4,2,1,,,,,,,,,,,,,,,,,,,,,,,,,,,,,,,,,,,,,,,,,
728596,001,2022-11-20_23h51.02.035,Info_measure_main_exp,2022.2.2,Win32,59.78000956,,,,,,,,,,,,,,,,,,,,,,,,,,,,,,6,2.1496,1,,,,,,,,,,,,0,131,5,5,1950,2178,absent_patch/patch0001950.jpg,absent_patch/patch0002178.jpg,,,,,,,,,,,,,,,,,,,,0.113888917,0.037037037,1,0,0,response1disk,11,0.000925912,-0.000925947,1,0,0,center_square,0,10,10,61,1,,,,,,,,,,,,,,,,,,,,,,,
728596,001,2022-11-20_23h51.02.035,Info_measure_main_exp,2022.2.2,Win32,59.78000956,,,,,,,,,,,,,,,,,,masks/mask_005.jpg,,,,,,,,,,,,,,,,,,,,,,,,,,,,,,,,,,,,,,,,,,,0,0,0,4,1,,,,,,,,,,,,,,,,,,,,,,,,,,,,,,,,,,,,,,,,,,,,,,
728596,001,2022-11-20_23h51.02.035,Info_measure_main_exp,2022.2.2,Win32,59.78000956,,,,,,,,,,,,,,,,,,masks/mask_003.jpg,,,,,,,,,,,,,,,,,,,,,,,,,,,,,,,,,,,,,,,,,,,0,1,1,2,1,,,,,,,,,,,,,,,,,,,,,,,,,,,,,,,,,,,,,,,,,,,,,,
728596,001,2022-11-20_23h51.02.035,Info_measure_main_exp,2022.2.2,Win32,59.78000956,,,,,,,,,,,,,,,,,,masks/mask_004.jpg,,,,,,,,,,,,,,,,,,,,,,,,,,,,,,,,,,,,,,,,,,,0,2,2,3,1,,,,,,,,,,,,,,,,,,,,,,,,,,,,,,,,,,,,,,,,,,,,,,
728596,001,2022-11-20_23h51.02.035,Info_measure_main_exp,2022.2.2,Win32,59.78000956,,,,,,,,,,,,,,,,,,masks/mask_001.jpg,,,,,,,,,,,,,,,,,,,,,,,,,,,,,,,,,,,,,,,,,,,0,3,3,0,1,,,,,,,,,,,,,,,,,,,,,,,,,,,,,,,,,,,,,,,,,,,,,,
728596,001,2022-11-20_23h51.02.035,Info_measure_main_exp,2022.2.2,Win32,59.78000956,,,,,,,,,,,,,,,,,,masks/mask_002.jpg,,,,,,,,,,,,,,,,,,,,,,,,,,,,,,,,,,,,,,,,,,,0,4,4,1,1,,,,,,,,,,,,,,,,,,,,,,,,,,,,,,,,,,,,,,,,,,,,,,
728596,001,2022-11-20_23h51.02.035,Info_measure_main_exp,2022.2.2,Win32,59.78000956,,,,,,,,,,,,,,,,,,masks/mask_004.jpg,,,,,,,,,,,,,,,,,,,,,,,,,,,,,,,,,,,,,,,,,,,,,,,,0,0,0,3,1,,,,,,,,,,,,,,,,,,,,,,,,,,,,,,,,,,,,,,,,,
728596,001,2022-11-20_23h51.02.035,Info_measure_main_exp,2022.2.2,Win32,59.78000956,,,,,,,,,,,,,,,,,,masks/mask_003.jpg,,,,,,,,,,,,,,,,,,,,,,,,,,,,,,,,,,,,,,,,,,,,,,,,0,1,1,2,1,,,,,,,,,,,,,,,,,,,,,,,,,,,,,,,,,,,,,,,,,
728596,001,2022-11-20_23h51.02.035,Info_measure_main_exp,2022.2.2,Win32,59.78000956,,,,,,,,,,,,,,,,,,masks/mask_001.jpg,,,,,,,,,,,,,,,,,,,,,,,,,,,,,,,,,,,,,,,,,,,,,,,,0,2,2,0,1,,,,,,,,,,,,,,,,,,,,,,,,,,,,,,,,,,,,,,,,,
728596,001,2022-11-20_23h51.02.035,Info_measure_main_exp,2022.2.2,Win32,59.78000956,,,,,,,,,,,,,,,,,,masks/mask_005.jpg,,,,,,,,,,,,,,,,,,,,,,,,,,,,,,,,,,,,,,,,,,,,,,,,0,3,3,4,1,,,,,,,,,,,,,,,,,,,,,,,,,,,,,,,,,,,,,,,,,
728596,001,2022-11-20_23h51.02.035,Info_measure_main_exp,2022.2.2,Win32,59.78000956,,,,,,,,,,,,,,,,,,masks/mask_002.jpg,,,,,,,,,,,,,,,,,,,,,,,,,,,,,,,,,,,,,,,,,,,,,,,,0,4,4,1,1,,,,,,,,,,,,,,,,,,,,,,,,,,,,,,,,,,,,,,,,,
728596,001,2022-11-20_23h51.02.035,Info_measure_main_exp,2022.2.2,Win32,59.78000956,,,,,,,,,,,,,,,,,,,,,,,,,,,,,,5,2.0496,1,,,,,,,,,,,,1,131,5,5,1,2142,present_patch/cong_131_5_a.jpg,absent_patch/patch0002142.jpg,,,,,,,,,,,,,,,,,,,,0.102777764,-0.085185192,1,0,0,response3disk,12,0.002777806,0.009259259,1,0,0,center_square,0,11,11,80,1,,,,,,,,,,,,,,,,,,,,,,,
728596,001,2022-11-20_23h51.02.035,Info_measure_main_exp,2022.2.2,Win32,59.78000956,,,,,,,,,,,,,,,,,,masks/mask_005.jpg,,,,,,,,,,,,,,,,,,,,,,,,,,,,,,,,,,,,,,,,,,,0,0,0,4,1,,,,,,,,,,,,,,,,,,,,,,,,,,,,,,,,,,,,,,,,,,,,,,
728596,001,2022-11-20_23h51.02.035,Info_measure_main_exp,2022.2.2,Win32,59.78000956,,,,,,,,,,,,,,,,,,masks/mask_004.jpg,,,,,,,,,,,,,,,,,,,,,,,,,,,,,,,,,,,,,,,,,,,0,1,1,3,1,,,,,,,,,,,,,,,,,,,,,,,,,,,,,,,,,,,,,,,,,,,,,,
728596,001,2022-11-20_23h51.02.035,Info_measure_main_exp,2022.2.2,Win32,59.78000956,,,,,,,,,,,,,,,,,,masks/mask_002.jpg,,,,,,,,,,,,,,,,,,,,,,,,,,,,,,,,,,,,,,,,,,,0,2,2,1,1,,,,,,,,,,,,,,,,,,,,,,,,,,,,,,,,,,,,,,,,,,,,,,
728596,001,2022-11-20_23h51.02.035,Info_measure_main_exp,2022.2.2,Win32,59.78000956,,,,,,,,,,,,,,,,,,masks/mask_001.jpg,,,,,,,,,,,,,,,,,,,,,,,,,,,,,,,,,,,,,,,,,,,0,3,3,0,1,,,,,,,,,,,,,,,,,,,,,,,,,,,,,,,,,,,,,,,,,,,,,,
728596,001,2022-11-20_23h51.02.035,Info_measure_main_exp,2022.2.2,Win32,59.78000956,,,,,,,,,,,,,,,,,,masks/mask_003.jpg,,,,,,,,,,,,,,,,,,,,,,,,,,,,,,,,,,,,,,,,,,,0,4,4,2,1,,,,,,,,,,,,,,,,,,,,,,,,,,,,,,,,,,,,,,,,,,,,,,
728596,001,2022-11-20_23h51.02.035,Info_measure_main_exp,2022.2.2,Win32,59.78000956,,,,,,,,,,,,,,,,,,masks/mask_003.jpg,,,,,,,,,,,,,,,,,,,,,,,,,,,,,,,,,,,,,,,,,,,,,,,,0,0,0,2,1,,,,,,,,,,,,,,,,,,,,,,,,,,,,,,,,,,,,,,,,,
728596,001,2022-11-20_23h51.02.035,Info_measure_main_exp,2022.2.2,Win32,59.78000956,,,,,,,,,,,,,,,,,,masks/mask_005.jpg,,,,,,,,,,,,,,,,,,,,,,,,,,,,,,,,,,,,,,,,,,,,,,,,0,1,1,4,1,,,,,,,,,,,,,,,,,,,,,,,,,,,,,,,,,,,,,,,,,
728596,001,2022-11-20_23h51.02.035,Info_measure_main_exp,2022.2.2,Win32,59.78000956,,,,,,,,,,,,,,,,,,masks/mask_004.jpg,,,,,,,,,,,,,,,,,,,,,,,,,,,,,,,,,,,,,,,,,,,,,,,,0,2,2,3,1,,,,,,,,,,,,,,,,,,,,,,,,,,,,,,,,,,,,,,,,,
728596,001,2022-11-20_23h51.02.035,Info_measure_main_exp,2022.2.2,Win32,59.78000956,,,,,,,,,,,,,,,,,,masks/mask_001.jpg,,,,,,,,,,,,,,,,,,,,,,,,,,,,,,,,,,,,,,,,,,,,,,,,0,3,3,0,1,,,,,,,,,,,,,,,,,,,,,,,,,,,,,,,,,,,,,,,,,
728596,001,2022-11-20_23h51.02.035,Info_measure_main_exp,2022.2.2,Win32,59.78000956,,,,,,,,,,,,,,,,,,masks/mask_002.jpg,,,,,,,,,,,,,,,,,,,,,,,,,,,,,,,,,,,,,,,,,,,,,,,,0,4,4,1,1,,,,,,,,,,,,,,,,,,,,,,,,,,,,,,,,,,,,,,,,,
728596,001,2022-11-20_23h51.02.035,Info_measure_main_exp,2022.2.2,Win32,59.78000956,,,,,,,,,,,,,,,,,,,,,,,,,,,,,,7,1.6497,1,,,,,,,,,,,,1,131,5,5,1,2214,present_patch/cong_131_5_a.jpg,absent_patch/patch0002214.jpg,,,,,,,,,,,,,,,,,,,,0.047222208,0.087962963,1,0,0,response1disk,13,0.008333347,-0.001851859,1,0,0,center_square,0,12,12,4,1,,,,,,,,,,,,,,,,,,,,,,,
728596,001,2022-11-20_23h51.02.035,Info_measure_main_exp,2022.2.2,Win32,59.78000956,,,,,,,,,,,,,,,,,,masks/mask_003.jpg,,,,,,,,,,,,,,,,,,,,,,,,,,,,,,,,,,,,,,,,,,,0,0,0,2,1,,,,,,,,,,,,,,,,,,,,,,,,,,,,,,,,,,,,,,,,,,,,,,
728596,001,2022-11-20_23h51.02.035,Info_measure_main_exp,2022.2.2,Win32,59.78000956,,,,,,,,,,,,,,,,,,masks/mask_004.jpg,,,,,,,,,,,,,,,,,,,,,,,,,,,,,,,,,,,,,,,,,,,0,1,1,3,1,,,,,,,,,,,,,,,,,,,,,,,,,,,,,,,,,,,,,,,,,,,,,,
728596,001,2022-11-20_23h51.02.035,Info_measure_main_exp,2022.2.2,Win32,59.78000956,,,,,,,,,,,,,,,,,,masks/mask_005.jpg,,,,,,,,,,,,,,,,,,,,,,,,,,,,,,,,,,,,,,,,,,,0,2,2,4,1,,,,,,,,,,,,,,,,,,,,,,,,,,,,,,,,,,,,,,,,,,,,,,
728596,001,2022-11-20_23h51.02.035,Info_measure_main_exp,2022.2.2,Win32,59.78000956,,,,,,,,,,,,,,,,,,masks/mask_001.jpg,,,,,,,,,,,,,,,,,,,,,,,,,,,,,,,,,,,,,,,,,,,0,3,3,0,1,,,,,,,,,,,,,,,,,,,,,,,,,,,,,,,,,,,,,,,,,,,,,,
728596,001,2022-11-20_23h51.02.035,Info_measure_main_exp,2022.2.2,Win32,59.78000956,,,,,,,,,,,,,,,,,,masks/mask_002.jpg,,,,,,,,,,,,,,,,,,,,,,,,,,,,,,,,,,,,,,,,,,,0,4,4,1,1,,,,,,,,,,,,,,,,,,,,,,,,,,,,,,,,,,,,,,,,,,,,,,
728596,001,2022-11-20_23h51.02.035,Info_measure_main_exp,2022.2.2,Win32,59.78000956,,,,,,,,,,,,,,,,,,masks/mask_003.jpg,,,,,,,,,,,,,,,,,,,,,,,,,,,,,,,,,,,,,,,,,,,,,,,,0,0,0,2,1,,,,,,,,,,,,,,,,,,,,,,,,,,,,,,,,,,,,,,,,,
728596,001,2022-11-20_23h51.02.035,Info_measure_main_exp,2022.2.2,Win32,59.78000956,,,,,,,,,,,,,,,,,,masks/mask_004.jpg,,,,,,,,,,,,,,,,,,,,,,,,,,,,,,,,,,,,,,,,,,,,,,,,0,1,1,3,1,,,,,,,,,,,,,,,,,,,,,,,,,,,,,,,,,,,,,,,,,
728596,001,2022-11-20_23h51.02.035,Info_measure_main_exp,2022.2.2,Win32,59.78000956,,,,,,,,,,,,,,,,,,masks/mask_001.jpg,,,,,,,,,,,,,,,,,,,,,,,,,,,,,,,,,,,,,,,,,,,,,,,,0,2,2,0,1,,,,,,,,,,,,,,,,,,,,,,,,,,,,,,,,,,,,,,,,,
728596,001,2022-11-20_23h51.02.035,Info_measure_main_exp,2022.2.2,Win32,59.78000956,,,,,,,,,,,,,,,,,,masks/mask_005.jpg,,,,,,,,,,,,,,,,,,,,,,,,,,,,,,,,,,,,,,,,,,,,,,,,0,3,3,4,1,,,,,,,,,,,,,,,,,,,,,,,,,,,,,,,,,,,,,,,,,
728596,001,2022-11-20_23h51.02.035,Info_measure_main_exp,2022.2.2,Win32,59.78000956,,,,,,,,,,,,,,,,,,masks/mask_002.jpg,,,,,,,,,,,,,,,,,,,,,,,,,,,,,,,,,,,,,,,,,,,,,,,,0,4,4,1,1,,,,,,,,,,,,,,,,,,,,,,,,,,,,,,,,,,,,,,,,,
728596,001,2022-11-20_23h51.02.035,Info_measure_main_exp,2022.2.2,Win32,59.78000956,,,,,,,,,,,,,,,,,,,,,,,,,,,,,,6,1.4166,1,,,,,,,,,,,,0,131,5,5,2274,2250,absent_patch/patch0002274.jpg,absent_patch/patch0002250.jpg,,,,,,,,,,,,,,,,,,,,0.143518519,0.027777778,1,0,0,response1disk,14,0.001851894,-0.001851859,1,0,0,center_square,0,13,13,28,1,,,,,,,,,,,,,,,,,,,,,,,
728596,001,2022-11-20_23h51.02.035,Info_measure_main_exp,2022.2.2,Win32,59.78000956,,,,,,,,,,,,,,,,,,masks/mask_004.jpg,,,,,,,,,,,,,,,,,,,,,,,,,,,,,,,,,,,,,,,,,,,0,0,0,3,1,,,,,,,,,,,,,,,,,,,,,,,,,,,,,,,,,,,,,,,,,,,,,,
728596,001,2022-11-20_23h51.02.035,Info_measure_main_exp,2022.2.2,Win32,59.78000956,,,,,,,,,,,,,,,,,,masks/mask_005.jpg,,,,,,,,,,,,,,,,,,,,,,,,,,,,,,,,,,,,,,,,,,,0,1,1,4,1,,,,,,,,,,,,,,,,,,,,,,,,,,,,,,,,,,,,,,,,,,,,,,
728596,001,2022-11-20_23h51.02.035,Info_measure_main_exp,2022.2.2,Win32,59.78000956,,,,,,,,,,,,,,,,,,masks/mask_002.jpg,,,,,,,,,,,,,,,,,,,,,,,,,,,,,,,,,,,,,,,,,,,0,2,2,1,1,,,,,,,,,,,,,,,,,,,,,,,,,,,,,,,,,,,,,,,,,,,,,,
728596,001,2022-11-20_23h51.02.035,Info_measure_main_exp,2022.2.2,Win32,59.78000956,,,,,,,,,,,,,,,,,,masks/mask_003.jpg,,,,,,,,,,,,,,,,,,,,,,,,,,,,,,,,,,,,,,,,,,,0,3,3,2,1,,,,,,,,,,,,,,,,,,,,,,,,,,,,,,,,,,,,,,,,,,,,,,
728596,001,2022-11-20_23h51.02.035,Info_measure_main_exp,2022.2.2,Win32,59.78000956,,,,,,,,,,,,,,,,,,masks/mask_001.jpg,,,,,,,,,,,,,,,,,,,,,,,,,,,,,,,,,,,,,,,,,,,0,4,4,0,1,,,,,,,,,,,,,,,,,,,,,,,,,,,,,,,,,,,,,,,,,,,,,,
728596,001,2022-11-20_23h51.02.035,Info_measure_main_exp,2022.2.2,Win32,59.78000956,,,,,,,,,,,,,,,,,,masks/mask_001.jpg,,,,,,,,,,,,,,,,,,,,,,,,,,,,,,,,,,,,,,,,,,,,,,,,0,0,0,0,1,,,,,,,,,,,,,,,,,,,,,,,,,,,,,,,,,,,,,,,,,
728596,001,2022-11-20_23h51.02.035,Info_measure_main_exp,2022.2.2,Win32,59.78000956,,,,,,,,,,,,,,,,,,masks/mask_004.jpg,,,,,,,,,,,,,,,,,,,,,,,,,,,,,,,,,,,,,,,,,,,,,,,,0,1,1,3,1,,,,,,,,,,,,,,,,,,,,,,,,,,,,,,,,,,,,,,,,,
728596,001,2022-11-20_23h51.02.035,Info_measure_main_exp,2022.2.2,Win32,59.78000956,,,,,,,,,,,,,,,,,,masks/mask_005.jpg,,,,,,,,,,,,,,,,,,,,,,,,,,,,,,,,,,,,,,,,,,,,,,,,0,2,2,4,1,,,,,,,,,,,,,,,,,,,,,,,,,,,,,,,,,,,,,,,,,
728596,001,2022-11-20_23h51.02.035,Info_measure_main_exp,2022.2.2,Win32,59.78000956,,,,,,,,,,,,,,,,,,masks/mask_003.jpg,,,,,,,,,,,,,,,,,,,,,,,,,,,,,,,,,,,,,,,,,,,,,,,,0,3,3,2,1,,,,,,,,,,,,,,,,,,,,,,,,,,,,,,,,,,,,,,,,,
728596,001,2022-11-20_23h51.02.035,Info_measure_main_exp,2022.2.2,Win32,59.78000956,,,,,,,,,,,,,,,,,,masks/mask_002.jpg,,,,,,,,,,,,,,,,,,,,,,,,,,,,,,,,,,,,,,,,,,,,,,,,0,4,4,1,1,,,,,,,,,,,,,,,,,,,,,,,,,,,,,,,,,,,,,,,,,
728596,001,2022-11-20_23h51.02.035,Info_measure_main_exp,2022.2.2,Win32,59.78000956,,,,,,,,,,,,,,,,,,,,,,,,,,,,,,5,1.5792,1,,,,,,,,,,,,0,131,5,5,2166,1986,absent_patch/patch0002166.jpg,absent_patch/patch0001986.jpg,,,,,,,,,,,,,,,,,,,,0.089814857,-0.061111132,1,0,0,response3disk,15,0.000925912,0.000925912,1,0,0,center_square,0,14,14,47,1,,,,,,,,,,,,,,,,,,,,,,,
728596,001,2022-11-20_23h51.02.035,Info_measure_main_exp,2022.2.2,Win32,59.78000956,,,,,,,,,,,,,,,,,,masks/mask_003.jpg,,,,,,,,,,,,,,,,,,,,,,,,,,,,,,,,,,,,,,,,,,,0,0,0,2,1,,,,,,,,,,,,,,,,,,,,,,,,,,,,,,,,,,,,,,,,,,,,,,
728596,001,2022-11-20_23h51.02.035,Info_measure_main_exp,2022.2.2,Win32,59.78000956,,,,,,,,,,,,,,,,,,masks/mask_004.jpg,,,,,,,,,,,,,,,,,,,,,,,,,,,,,,,,,,,,,,,,,,,0,1,1,3,1,,,,,,,,,,,,,,,,,,,,,,,,,,,,,,,,,,,,,,,,,,,,,,
728596,001,2022-11-20_23h51.02.035,Info_measure_main_exp,2022.2.2,Win32,59.78000956,,,,,,,,,,,,,,,,,,masks/mask_005.jpg,,,,,,,,,,,,,,,,,,,,,,,,,,,,,,,,,,,,,,,,,,,0,2,2,4,1,,,,,,,,,,,,,,,,,,,,,,,,,,,,,,,,,,,,,,,,,,,,,,
728596,001,2022-11-20_23h51.02.035,Info_measure_main_exp,2022.2.2,Win32,59.78000956,,,,,,,,,,,,,,,,,,masks/mask_002.jpg,,,,,,,,,,,,,,,,,,,,,,,,,,,,,,,,,,,,,,,,,,,0,3,3,1,1,,,,,,,,,,,,,,,,,,,,,,,,,,,,,,,,,,,,,,,,,,,,,,
728596,001,2022-11-20_23h51.02.035,Info_measure_main_exp,2022.2.2,Win32,59.78000956,,,,,,,,,,,,,,,,,,masks/mask_001.jpg,,,,,,,,,,,,,,,,,,,,,,,,,,,,,,,,,,,,,,,,,,,0,4,4,0,1,,,,,,,,,,,,,,,,,,,,,,,,,,,,,,,,,,,,,,,,,,,,,,
728596,001,2022-11-20_23h51.02.035,Info_measure_main_exp,2022.2.2,Win32,59.78000956,,,,,,,,,,,,,,,,,,masks/mask_003.jpg,,,,,,,,,,,,,,,,,,,,,,,,,,,,,,,,,,,,,,,,,,,,,,,,0,0,0,2,1,,,,,,,,,,,,,,,,,,,,,,,,,,,,,,,,,,,,,,,,,
728596,001,2022-11-20_23h51.02.035,Info_measure_main_exp,2022.2.2,Win32,59.78000956,,,,,,,,,,,,,,,,,,masks/mask_001.jpg,,,,,,,,,,,,,,,,,,,,,,,,,,,,,,,,,,,,,,,,,,,,,,,,0,1,1,0,1,,,,,,,,,,,,,,,,,,,,,,,,,,,,,,,,,,,,,,,,,
728596,001,2022-11-20_23h51.02.035,Info_measure_main_exp,2022.2.2,Win32,59.78000956,,,,,,,,,,,,,,,,,,masks/mask_004.jpg,,,,,,,,,,,,,,,,,,,,,,,,,,,,,,,,,,,,,,,,,,,,,,,,0,2,2,3,1,,,,,,,,,,,,,,,,,,,,,,,,,,,,,,,,,,,,,,,,,
728596,001,2022-11-20_23h51.02.035,Info_measure_main_exp,2022.2.2,Win32,59.78000956,,,,,,,,,,,,,,,,,,masks/mask_002.jpg,,,,,,,,,,,,,,,,,,,,,,,,,,,,,,,,,,,,,,,,,,,,,,,,0,3,3,1,1,,,,,,,,,,,,,,,,,,,,,,,,,,,,,,,,,,,,,,,,,
728596,001,2022-11-20_23h51.02.035,Info_measure_main_exp,2022.2.2,Win32,59.78000956,,,,,,,,,,,,,,,,,,masks/mask_005.jpg,,,,,,,,,,,,,,,,,,,,,,,,,,,,,,,,,,,,,,,,,,,,,,,,0,4,4,4,1,,,,,,,,,,,,,,,,,,,,,,,,,,,,,,,,,,,,,,,,,
728596,001,2022-11-20_23h51.02.035,Info_measure_main_exp,2022.2.2,Win32,59.78000956,,,,,,,,,,,,,,,,,,,,,,,,,,,,,,0,0.5666,1,,,,,,,,,,,,0,131,5,5,2214,2214,absent_patch/patch0002214.jpg,absent_patch/patch0002214.jpg,,,,,,,,,,,,,,,,,,,,-0.033333319,0.055555556,1,0,0,response7disk,16,0.005555541,-0.008333347,1,0,0,center_square,0,15,15,115,1,,,,,,,,,,,,,,,,,,,,,,,
728596,001,2022-11-20_23h51.02.035,Info_measure_main_exp,2022.2.2,Win32,59.78000956,,,,,,,,,,,,,,,,,,masks/mask_003.jpg,,,,,,,,,,,,,,,,,,,,,,,,,,,,,,,,,,,,,,,,,,,0,0,0,2,1,,,,,,,,,,,,,,,,,,,,,,,,,,,,,,,,,,,,,,,,,,,,,,
728596,001,2022-11-20_23h51.02.035,Info_measure_main_exp,2022.2.2,Win32,59.78000956,,,,,,,,,,,,,,,,,,masks/mask_005.jpg,,,,,,,,,,,,,,,,,,,,,,,,,,,,,,,,,,,,,,,,,,,0,1,1,4,1,,,,,,,,,,,,,,,,,,,,,,,,,,,,,,,,,,,,,,,,,,,,,,
728596,001,2022-11-20_23h51.02.035,Info_measure_main_exp,2022.2.2,Win32,59.78000956,,,,,,,,,,,,,,,,,,masks/mask_004.jpg,,,,,,,,,,,,,,,,,,,,,,,,,,,,,,,,,,,,,,,,,,,0,2,2,3,1,,,,,,,,,,,,,,,,,,,,,,,,,,,,,,,,,,,,,,,,,,,,,,
728596,001,2022-11-20_23h51.02.035,Info_measure_main_exp,2022.2.2,Win32,59.78000956,,,,,,,,,,,,,,,,,,masks/mask_002.jpg,,,,,,,,,,,,,,,,,,,,,,,,,,,,,,,,,,,,,,,,,,,0,3,3,1,1,,,,,,,,,,,,,,,,,,,,,,,,,,,,,,,,,,,,,,,,,,,,,,
728596,001,2022-11-20_23h51.02.035,Info_measure_main_exp,2022.2.2,Win32,59.78000956,,,,,,,,,,,,,,,,,,masks/mask_001.jpg,,,,,,,,,,,,,,,,,,,,,,,,,,,,,,,,,,,,,,,,,,,0,4,4,0,1,,,,,,,,,,,,,,,,,,,,,,,,,,,,,,,,,,,,,,,,,,,,,,
728596,001,2022-11-20_23h51.02.035,Info_measure_main_exp,2022.2.2,Win32,59.78000956,,,,,,,,,,,,,,,,,,masks/mask_003.jpg,,,,,,,,,,,,,,,,,,,,,,,,,,,,,,,,,,,,,,,,,,,,,,,,0,0,0,2,1,,,,,,,,,,,,,,,,,,,,,,,,,,,,,,,,,,,,,,,,,
728596,001,2022-11-20_23h51.02.035,Info_measure_main_exp,2022.2.2,Win32,59.78000956,,,,,,,,,,,,,,,,,,masks/mask_005.jpg,,,,,,,,,,,,,,,,,,,,,,,,,,,,,,,,,,,,,,,,,,,,,,,,0,1,1,4,1,,,,,,,,,,,,,,,,,,,,,,,,,,,,,,,,,,,,,,,,,
728596,001,2022-11-20_23h51.02.035,Info_measure_main_exp,2022.2.2,Win32,59.78000956,,,,,,,,,,,,,,,,,,masks/mask_002.jpg,,,,,,,,,,,,,,,,,,,,,,,,,,,,,,,,,,,,,,,,,,,,,,,,0,2,2,1,1,,,,,,,,,,,,,,,,,,,,,,,,,,,,,,,,,,,,,,,,,
728596,001,2022-11-20_23h51.02.035,Info_measure_main_exp,2022.2.2,Win32,59.78000956,,,,,,,,,,,,,,,,,,masks/mask_004.jpg,,,,,,,,,,,,,,,,,,,,,,,,,,,,,,,,,,,,,,,,,,,,,,,,0,3,3,3,1,,,,,,,,,,,,,,,,,,,,,,,,,,,,,,,,,,,,,,,,,
728596,001,2022-11-20_23h51.02.035,Info_measure_main_exp,2022.2.2,Win32,59.78000956,,,,,,,,,,,,,,,,,,masks/mask_001.jpg,,,,,,,,,,,,,,,,,,,,,,,,,,,,,,,,,,,,,,,,,,,,,,,,0,4,4,0,1,,,,,,,,,,,,,,,,,,,,,,,,,,,,,,,,,,,,,,,,,
728596,001,2022-11-20_23h51.02.035,Info_measure_main_exp,2022.2.2,Win32,59.78000956,,,,,,,,,,,,,,,,,,,,,,,,,,,,,,4,1.4572,1,,,,,,,,,,,,0,131,5,5,2178,2238,absent_patch/patch0002178.jpg,absent_patch/patch0002238.jpg,,,,,,,,,,,,,,,,,,,,0.049074102,-0.063888903,1,0,0,response3disk,17,0.00462963,-0.009259259,1,0,0,center_square,0,16,16,57,1,,,,,,,,,,,,,,,,,,,,,,,
728596,001,2022-11-20_23h51.02.035,Info_measure_main_exp,2022.2.2,Win32,59.78000956,,,,,,,,,,,,,,,,,,masks/mask_002.jpg,,,,,,,,,,,,,,,,,,,,,,,,,,,,,,,,,,,,,,,,,,,0,0,0,1,1,,,,,,,,,,,,,,,,,,,,,,,,,,,,,,,,,,,,,,,,,,,,,,
728596,001,2022-11-20_23h51.02.035,Info_measure_main_exp,2022.2.2,Win32,59.78000956,,,,,,,,,,,,,,,,,,masks/mask_004.jpg,,,,,,,,,,,,,,,,,,,,,,,,,,,,,,,,,,,,,,,,,,,0,1,1,3,1,,,,,,,,,,,,,,,,,,,,,,,,,,,,,,,,,,,,,,,,,,,,,,
728596,001,2022-11-20_23h51.02.035,Info_measure_main_exp,2022.2.2,Win32,59.78000956,,,,,,,,,,,,,,,,,,masks/mask_003.jpg,,,,,,,,,,,,,,,,,,,,,,,,,,,,,,,,,,,,,,,,,,,0,2,2,2,1,,,,,,,,,,,,,,,,,,,,,,,,,,,,,,,,,,,,,,,,,,,,,,
728596,001,2022-11-20_23h51.02.035,Info_measure_main_exp,2022.2.2,Win32,59.78000956,,,,,,,,,,,,,,,,,,masks/mask_001.jpg,,,,,,,,,,,,,,,,,,,,,,,,,,,,,,,,,,,,,,,,,,,0,3,3,0,1,,,,,,,,,,,,,,,,,,,,,,,,,,,,,,,,,,,,,,,,,,,,,,
728596,001,2022-11-20_23h51.02.035,Info_measure_main_exp,2022.2.2,Win32,59.78000956,,,,,,,,,,,,,,,,,,masks/mask_005.jpg,,,,,,,,,,,,,,,,,,,,,,,,,,,,,,,,,,,,,,,,,,,0,4,4,4,1,,,,,,,,,,,,,,,,,,,,,,,,,,,,,,,,,,,,,,,,,,,,,,
728596,001,2022-11-20_23h51.02.035,Info_measure_main_exp,2022.2.2,Win32,59.78000956,,,,,,,,,,,,,,,,,,masks/mask_004.jpg,,,,,,,,,,,,,,,,,,,,,,,,,,,,,,,,,,,,,,,,,,,,,,,,0,0,0,3,1,,,,,,,,,,,,,,,,,,,,,,,,,,,,,,,,,,,,,,,,,
728596,001,2022-11-20_23h51.02.035,Info_measure_main_exp,2022.2.2,Win32,59.78000956,,,,,,,,,,,,,,,,,,masks/mask_001.jpg,,,,,,,,,,,,,,,,,,,,,,,,,,,,,,,,,,,,,,,,,,,,,,,,0,1,1,0,1,,,,,,,,,,,,,,,,,,,,,,,,,,,,,,,,,,,,,,,,,
728596,001,2022-11-20_23h51.02.035,Info_measure_main_exp,2022.2.2,Win32,59.78000956,,,,,,,,,,,,,,,,,,masks/mask_005.jpg,,,,,,,,,,,,,,,,,,,,,,,,,,,,,,,,,,,,,,,,,,,,,,,,0,2,2,4,1,,,,,,,,,,,,,,,,,,,,,,,,,,,,,,,,,,,,,,,,,
728596,001,2022-11-20_23h51.02.035,Info_measure_main_exp,2022.2.2,Win32,59.78000956,,,,,,,,,,,,,,,,,,masks/mask_002.jpg,,,,,,,,,,,,,,,,,,,,,,,,,,,,,,,,,,,,,,,,,,,,,,,,0,3,3,1,1,,,,,,,,,,,,,,,,,,,,,,,,,,,,,,,,,,,,,,,,,
728596,001,2022-11-20_23h51.02.035,Info_measure_main_exp,2022.2.2,Win32,59.78000956,,,,,,,,,,,,,,,,,,masks/mask_003.jpg,,,,,,,,,,,,,,,,,,,,,,,,,,,,,,,,,,,,,,,,,,,,,,,,0,4,4,2,1,,,,,,,,,,,,,,,,,,,,,,,,,,,,,,,,,,,,,,,,,
728596,001,2022-11-20_23h51.02.035,Info_measure_main_exp,2022.2.2,Win32,59.78000956,,,,,,,,,,,,,,,,,,,,,,,,,,,,,,5,1.3333,1,,,,,,,,,,,,0,131,5,5,2166,2154,absent_patch/patch0002166.jpg,absent_patch/patch0002154.jpg,,,,,,,,,,,,,,,,,,,,0.094444487,-0.033333355,1,0,0,response3disk,18,0.002777806,0.0074074,1,0,0,center_square,0,17,17,79,1,,,,,,,,,,,,,,,,,,,,,,,
728596,001,2022-11-20_23h51.02.035,Info_measure_main_exp,2022.2.2,Win32,59.78000956,,,,,,,,,,,,,,,,,,masks/mask_003.jpg,,,,,,,,,,,,,,,,,,,,,,,,,,,,,,,,,,,,,,,,,,,0,0,0,2,1,,,,,,,,,,,,,,,,,,,,,,,,,,,,,,,,,,,,,,,,,,,,,,
728596,001,2022-11-20_23h51.02.035,Info_measure_main_exp,2022.2.2,Win32,59.78000956,,,,,,,,,,,,,,,,,,masks/mask_004.jpg,,,,,,,,,,,,,,,,,,,,,,,,,,,,,,,,,,,,,,,,,,,0,1,1,3,1,,,,,,,,,,,,,,,,,,,,,,,,,,,,,,,,,,,,,,,,,,,,,,
728596,001,2022-11-20_23h51.02.035,Info_measure_main_exp,2022.2.2,Win32,59.78000956,,,,,,,,,,,,,,,,,,masks/mask_001.jpg,,,,,,,,,,,,,,,,,,,,,,,,,,,,,,,,,,,,,,,,,,,0,2,2,0,1,,,,,,,,,,,,,,,,,,,,,,,,,,,,,,,,,,,,,,,,,,,,,,
728596,001,2022-11-20_23h51.02.035,Info_measure_main_exp,2022.2.2,Win32,59.78000956,,,,,,,,,,,,,,,,,,masks/mask_002.jpg,,,,,,,,,,,,,,,,,,,,,,,,,,,,,,,,,,,,,,,,,,,0,3,3,1,1,,,,,,,,,,,,,,,,,,,,,,,,,,,,,,,,,,,,,,,,,,,,,,
728596,001,2022-11-20_23h51.02.035,Info_measure_main_exp,2022.2.2,Win32,59.78000956,,,,,,,,,,,,,,,,,,masks/mask_005.jpg,,,,,,,,,,,,,,,,,,,,,,,,,,,,,,,,,,,,,,,,,,,0,4,4,4,1,,,,,,,,,,,,,,,,,,,,,,,,,,,,,,,,,,,,,,,,,,,,,,
728596,001,2022-11-20_23h51.02.035,Info_measure_main_exp,2022.2.2,Win32,59.78000956,,,,,,,,,,,,,,,,,,masks/mask_002.jpg,,,,,,,,,,,,,,,,,,,,,,,,,,,,,,,,,,,,,,,,,,,,,,,,0,0,0,1,1,,,,,,,,,,,,,,,,,,,,,,,,,,,,,,,,,,,,,,,,,
728596,001,2022-11-20_23h51.02.035,Info_measure_main_exp,2022.2.2,Win32,59.78000956,,,,,,,,,,,,,,,,,,masks/mask_005.jpg,,,,,,,,,,,,,,,,,,,,,,,,,,,,,,,,,,,,,,,,,,,,,,,,0,1,1,4,1,,,,,,,,,,,,,,,,,,,,,,,,,,,,,,,,,,,,,,,,,
728596,001,2022-11-20_23h51.02.035,Info_measure_main_exp,2022.2.2,Win32,59.78000956,,,,,,,,,,,,,,,,,,masks/mask_001.jpg,,,,,,,,,,,,,,,,,,,,,,,,,,,,,,,,,,,,,,,,,,,,,,,,0,2,2,0,1,,,,,,,,,,,,,,,,,,,,,,,,,,,,,,,,,,,,,,,,,
728596,001,2022-11-20_23h51.02.035,Info_measure_main_exp,2022.2.2,Win32,59.78000956,,,,,,,,,,,,,,,,,,masks/mask_003.jpg,,,,,,,,,,,,,,,,,,,,,,,,,,,,,,,,,,,,,,,,,,,,,,,,0,3,3,2,1,,,,,,,,,,,,,,,,,,,,,,,,,,,,,,,,,,,,,,,,,
728596,001,2022-11-20_23h51.02.035,Info_measure_main_exp,2022.2.2,Win32,59.78000956,,,,,,,,,,,,,,,,,,masks/mask_004.jpg,,,,,,,,,,,,,,,,,,,,,,,,,,,,,,,,,,,,,,,,,,,,,,,,0,4,4,3,1,,,,,,,,,,,,,,,,,,,,,,,,,,,,,,,,,,,,,,,,,
728596,001,2022-11-20_23h51.02.035,Info_measure_main_exp,2022.2.2,Win32,59.78000956,,,,,,,,,,,,,,,,,,,,,,,,,,,,,,6,0.7826,1,,,,,,,,,,,,0,131,5,5,2274,1950,absent_patch/patch0002274.jpg,absent_patch/patch0001950.jpg,,,,,,,,,,,,,,,,,,,,0.037962949,0.03611109,1,0,0,response1disk,19,0.002777806,-0.006481489,1,0,0,center_square,0,18,18,10,1,,,,,,,,,,,,,,,,,,,,,,,
728596,001,2022-11-20_23h51.02.035,Info_measure_main_exp,2022.2.2,Win32,59.78000956,,,,,,,,,,,,,,,,,,masks/mask_003.jpg,,,,,,,,,,,,,,,,,,,,,,,,,,,,,,,,,,,,,,,,,,,0,0,0,2,1,,,,,,,,,,,,,,,,,,,,,,,,,,,,,,,,,,,,,,,,,,,,,,
728596,001,2022-11-20_23h51.02.035,Info_measure_main_exp,2022.2.2,Win32,59.78000956,,,,,,,,,,,,,,,,,,masks/mask_004.jpg,,,,,,,,,,,,,,,,,,,,,,,,,,,,,,,,,,,,,,,,,,,0,1,1,3,1,,,,,,,,,,,,,,,,,,,,,,,,,,,,,,,,,,,,,,,,,,,,,,
728596,001,2022-11-20_23h51.02.035,Info_measure_main_exp,2022.2.2,Win32,59.78000956,,,,,,,,,,,,,,,,,,masks/mask_002.jpg,,,,,,,,,,,,,,,,,,,,,,,,,,,,,,,,,,,,,,,,,,,0,2,2,1,1,,,,,,,,,,,,,,,,,,,,,,,,,,,,,,,,,,,,,,,,,,,,,,
728596,001,2022-11-20_23h51.02.035,Info_measure_main_exp,2022.2.2,Win32,59.78000956,,,,,,,,,,,,,,,,,,masks/mask_001.jpg,,,,,,,,,,,,,,,,,,,,,,,,,,,,,,,,,,,,,,,,,,,0,3,3,0,1,,,,,,,,,,,,,,,,,,,,,,,,,,,,,,,,,,,,,,,,,,,,,,
728596,001,2022-11-20_23h51.02.035,Info_measure_main_exp,2022.2.2,Win32,59.78000956,,,,,,,,,,,,,,,,,,masks/mask_005.jpg,,,,,,,,,,,,,,,,,,,,,,,,,,,,,,,,,,,,,,,,,,,0,4,4,4,1,,,,,,,,,,,,,,,,,,,,,,,,,,,,,,,,,,,,,,,,,,,,,,
728596,001,2022-11-20_23h51.02.035,Info_measure_main_exp,2022.2.2,Win32,59.78000956,,,,,,,,,,,,,,,,,,masks/mask_002.jpg,,,,,,,,,,,,,,,,,,,,,,,,,,,,,,,,,,,,,,,,,,,,,,,,0,0,0,1,1,,,,,,,,,,,,,,,,,,,,,,,,,,,,,,,,,,,,,,,,,
728596,001,2022-11-20_23h51.02.035,Info_measure_main_exp,2022.2.2,Win32,59.78000956,,,,,,,,,,,,,,,,,,masks/mask_004.jpg,,,,,,,,,,,,,,,,,,,,,,,,,,,,,,,,,,,,,,,,,,,,,,,,0,1,1,3,1,,,,,,,,,,,,,,,,,,,,,,,,,,,,,,,,,,,,,,,,,
728596,001,2022-11-20_23h51.02.035,Info_measure_main_exp,2022.2.2,Win32,59.78000956,,,,,,,,,,,,,,,,,,masks/mask_001.jpg,,,,,,,,,,,,,,,,,,,,,,,,,,,,,,,,,,,,,,,,,,,,,,,,0,2,2,0,1,,,,,,,,,,,,,,,,,,,,,,,,,,,,,,,,,,,,,,,,,
728596,001,2022-11-20_23h51.02.035,Info_measure_main_exp,2022.2.2,Win32,59.78000956,,,,,,,,,,,,,,,,,,masks/mask_005.jpg,,,,,,,,,,,,,,,,,,,,,,,,,,,,,,,,,,,,,,,,,,,,,,,,0,3,3,4,1,,,,,,,,,,,,,,,,,,,,,,,,,,,,,,,,,,,,,,,,,
728596,001,2022-11-20_23h51.02.035,Info_measure_main_exp,2022.2.2,Win32,59.78000956,,,,,,,,,,,,,,,,,,masks/mask_003.jpg,,,,,,,,,,,,,,,,,,,,,,,,,,,,,,,,,,,,,,,,,,,,,,,,0,4,4,2,1,,,,,,,,,,,,,,,,,,,,,,,,,,,,,,,,,,,,,,,,,
728596,001,2022-11-20_23h51.02.035,Info_measure_main_exp,2022.2.2,Win32,59.78000956,,,,,,,,,,,,,,,,,,,,,,,,,,,,,,7,0.783,1,,,,,,,,,,,,0,131,5,5,2250,2178,absent_patch/patch0002250.jpg,absent_patch/patch0002178.jpg,,,,,,,,,,,,,,,,,,,,0.029629672,0.072222215,1,0,0,response1disk,20,-0.00462963,-0.0074074,1,0,0,center_square,0,19,19,48,1,,,,,,,,,,,,,,,,,,,,,,,
728596,001,2022-11-20_23h51.02.035,Info_measure_main_exp,2022.2.2,Win32,59.78000956,,,,,,,,,,,,,,,,,,masks/mask_005.jpg,,,,,,,,,,,,,,,,,,,,,,,,,,,,,,,,,,,,,,,,,,,0,0,0,4,1,,,,,,,,,,,,,,,,,,,,,,,,,,,,,,,,,,,,,,,,,,,,,,
728596,001,2022-11-20_23h51.02.035,Info_measure_main_exp,2022.2.2,Win32,59.78000956,,,,,,,,,,,,,,,,,,masks/mask_002.jpg,,,,,,,,,,,,,,,,,,,,,,,,,,,,,,,,,,,,,,,,,,,0,1,1,1,1,,,,,,,,,,,,,,,,,,,,,,,,,,,,,,,,,,,,,,,,,,,,,,
728596,001,2022-11-20_23h51.02.035,Info_measure_main_exp,2022.2.2,Win32,59.78000956,,,,,,,,,,,,,,,,,,masks/mask_001.jpg,,,,,,,,,,,,,,,,,,,,,,,,,,,,,,,,,,,,,,,,,,,0,2,2,0,1,,,,,,,,,,,,,,,,,,,,,,,,,,,,,,,,,,,,,,,,,,,,,,
728596,001,2022-11-20_23h51.02.035,Info_measure_main_exp,2022.2.2,Win32,59.78000956,,,,,,,,,,,,,,,,,,masks/mask_003.jpg,,,,,,,,,,,,,,,,,,,,,,,,,,,,,,,,,,,,,,,,,,,0,3,3,2,1,,,,,,,,,,,,,,,,,,,,,,,,,,,,,,,,,,,,,,,,,,,,,,
728596,001,2022-11-20_23h51.02.035,Info_measure_main_exp,2022.2.2,Win32,59.78000956,,,,,,,,,,,,,,,,,,masks/mask_004.jpg,,,,,,,,,,,,,,,,,,,,,,,,,,,,,,,,,,,,,,,,,,,0,4,4,3,1,,,,,,,,,,,,,,,,,,,,,,,,,,,,,,,,,,,,,,,,,,,,,,
728596,001,2022-11-20_23h51.02.035,Info_measure_main_exp,2022.2.2,Win32,59.78000956,,,,,,,,,,,,,,,,,,masks/mask_003.jpg,,,,,,,,,,,,,,,,,,,,,,,,,,,,,,,,,,,,,,,,,,,,,,,,0,0,0,2,1,,,,,,,,,,,,,,,,,,,,,,,,,,,,,,,,,,,,,,,,,
728596,001,2022-11-20_23h51.02.035,Info_measure_main_exp,2022.2.2,Win32,59.78000956,,,,,,,,,,,,,,,,,,masks/mask_004.jpg,,,,,,,,,,,,,,,,,,,,,,,,,,,,,,,,,,,,,,,,,,,,,,,,0,1,1,3,1,,,,,,,,,,,,,,,,,,,,,,,,,,,,,,,,,,,,,,,,,
728596,001,2022-11-20_23h51.02.035,Info_measure_main_exp,2022.2.2,Win32,59.78000956,,,,,,,,,,,,,,,,,,masks/mask_002.jpg,,,,,,,,,,,,,,,,,,,,,,,,,,,,,,,,,,,,,,,,,,,,,,,,0,2,2,1,1,,,,,,,,,,,,,,,,,,,,,,,,,,,,,,,,,,,,,,,,,
728596,001,2022-11-20_23h51.02.035,Info_measure_main_exp,2022.2.2,Win32,59.78000956,,,,,,,,,,,,,,,,,,masks/mask_001.jpg,,,,,,,,,,,,,,,,,,,,,,,,,,,,,,,,,,,,,,,,,,,,,,,,0,3,3,0,1,,,,,,,,,,,,,,,,,,,,,,,,,,,,,,,,,,,,,,,,,
728596,001,2022-11-20_23h51.02.035,Info_measure_main_exp,2022.2.2,Win32,59.78000956,,,,,,,,,,,,,,,,,,masks/mask_005.jpg,,,,,,,,,,,,,,,,,,,,,,,,,,,,,,,,,,,,,,,,,,,,,,,,0,4,4,4,1,,,,,,,,,,,,,,,,,,,,,,,,,,,,,,,,,,,,,,,,,
728596,001,2022-11-20_23h51.02.035,Info_measure_main_exp,2022.2.2,Win32,59.78000956,,,,,,,,,,,,,,,,,,,,,,,,,,,,,,7,0.5837,1,,,,,,,,,,,,0,131,5,5,2274,1974,absent_patch/patch0002274.jpg,absent_patch/patch0001974.jpg,,,,,,,,,,,,,,,,,,,,0.032407407,0.054629608,1,0,0,response1disk,21,0.000925912,0.010185171,1,0,0,center_square,0,20,20,90,1,,,,,,,,,,,,,,,,,,,,,,,
728596,001,2022-11-20_23h51.02.035,Info_measure_main_exp,2022.2.2,Win32,59.78000956,,,,,,,,,,,,,,,,,,masks/mask_002.jpg,,,,,,,,,,,,,,,,,,,,,,,,,,,,,,,,,,,,,,,,,,,0,0,0,1,1,,,,,,,,,,,,,,,,,,,,,,,,,,,,,,,,,,,,,,,,,,,,,,
728596,001,2022-11-20_23h51.02.035,Info_measure_main_exp,2022.2.2,Win32,59.78000956,,,,,,,,,,,,,,,,,,masks/mask_003.jpg,,,,,,,,,,,,,,,,,,,,,,,,,,,,,,,,,,,,,,,,,,,0,1,1,2,1,,,,,,,,,,,,,,,,,,,,,,,,,,,,,,,,,,,,,,,,,,,,,,
728596,001,2022-11-20_23h51.02.035,Info_measure_main_exp,2022.2.2,Win32,59.78000956,,,,,,,,,,,,,,,,,,masks/mask_005.jpg,,,,,,,,,,,,,,,,,,,,,,,,,,,,,,,,,,,,,,,,,,,0,2,2,4,1,,,,,,,,,,,,,,,,,,,,,,,,,,,,,,,,,,,,,,,,,,,,,,
728596,001,2022-11-20_23h51.02.035,Info_measure_main_exp,2022.2.2,Win32,59.78000956,,,,,,,,,,,,,,,,,,masks/mask_004.jpg,,,,,,,,,,,,,,,,,,,,,,,,,,,,,,,,,,,,,,,,,,,0,3,3,3,1,,,,,,,,,,,,,,,,,,,,,,,,,,,,,,,,,,,,,,,,,,,,,,
728596,001,2022-11-20_23h51.02.035,Info_measure_main_exp,2022.2.2,Win32,59.78000956,,,,,,,,,,,,,,,,,,masks/mask_001.jpg,,,,,,,,,,,,,,,,,,,,,,,,,,,,,,,,,,,,,,,,,,,0,4,4,0,1,,,,,,,,,,,,,,,,,,,,,,,,,,,,,,,,,,,,,,,,,,,,,,
728596,001,2022-11-20_23h51.02.035,Info_measure_main_exp,2022.2.2,Win32,59.78000956,,,,,,,,,,,,,,,,,,masks/mask_005.jpg,,,,,,,,,,,,,,,,,,,,,,,,,,,,,,,,,,,,,,,,,,,,,,,,0,0,0,4,1,,,,,,,,,,,,,,,,,,,,,,,,,,,,,,,,,,,,,,,,,
728596,001,2022-11-20_23h51.02.035,Info_measure_main_exp,2022.2.2,Win32,59.78000956,,,,,,,,,,,,,,,,,,masks/mask_001.jpg,,,,,,,,,,,,,,,,,,,,,,,,,,,,,,,,,,,,,,,,,,,,,,,,0,1,1,0,1,,,,,,,,,,,,,,,,,,,,,,,,,,,,,,,,,,,,,,,,,
728596,001,2022-11-20_23h51.02.035,Info_measure_main_exp,2022.2.2,Win32,59.78000956,,,,,,,,,,,,,,,,,,masks/mask_004.jpg,,,,,,,,,,,,,,,,,,,,,,,,,,,,,,,,,,,,,,,,,,,,,,,,0,2,2,3,1,,,,,,,,,,,,,,,,,,,,,,,,,,,,,,,,,,,,,,,,,
728596,001,2022-11-20_23h51.02.035,Info_measure_main_exp,2022.2.2,Win32,59.78000956,,,,,,,,,,,,,,,,,,masks/mask_003.jpg,,,,,,,,,,,,,,,,,,,,,,,,,,,,,,,,,,,,,,,,,,,,,,,,0,3,3,2,1,,,,,,,,,,,,,,,,,,,,,,,,,,,,,,,,,,,,,,,,,
728596,001,2022-11-20_23h51.02.035,Info_measure_main_exp,2022.2.2,Win32,59.78000956,,,,,,,,,,,,,,,,,,masks/mask_002.jpg,,,,,,,,,,,,,,,,,,,,,,,,,,,,,,,,,,,,,,,,,,,,,,,,0,4,4,1,1,,,,,,,,,,,,,,,,,,,,,,,,,,,,,,,,,,,,,,,,,
728596,001,2022-11-20_23h51.02.035,Info_measure_main_exp,2022.2.2,Win32,59.78000956,,,,,,,,,,,,,,,,,,,,,,,,,,,,,,7,0.5162,1,,,,,,,,,,,,0,131,5,5,2142,2082,absent_patch/patch0002142.jpg,absent_patch/patch0002082.jpg,,,,,,,,,,,,,,,,,,,,0.02407406,0.070370356,1,0,0,response1disk,22,0.005555541,0.006481489,1,0,0,center_square,0,21,21,88,1,,,,,,,,,,,,,,,,,,,,,,,
728596,001,2022-11-20_23h51.02.035,Info_measure_main_exp,2022.2.2,Win32,59.78000956,,,,,,,,,,,,,,,,,,masks/mask_005.jpg,,,,,,,,,,,,,,,,,,,,,,,,,,,,,,,,,,,,,,,,,,,0,0,0,4,1,,,,,,,,,,,,,,,,,,,,,,,,,,,,,,,,,,,,,,,,,,,,,,
728596,001,2022-11-20_23h51.02.035,Info_measure_main_exp,2022.2.2,Win32,59.78000956,,,,,,,,,,,,,,,,,,masks/mask_003.jpg,,,,,,,,,,,,,,,,,,,,,,,,,,,,,,,,,,,,,,,,,,,0,1,1,2,1,,,,,,,,,,,,,,,,,,,,,,,,,,,,,,,,,,,,,,,,,,,,,,
728596,001,2022-11-20_23h51.02.035,Info_measure_main_exp,2022.2.2,Win32,59.78000956,,,,,,,,,,,,,,,,,,masks/mask_004.jpg,,,,,,,,,,,,,,,,,,,,,,,,,,,,,,,,,,,,,,,,,,,0,2,2,3,1,,,,,,,,,,,,,,,,,,,,,,,,,,,,,,,,,,,,,,,,,,,,,,
728596,001,2022-11-20_23h51.02.035,Info_measure_main_exp,2022.2.2,Win32,59.78000956,,,,,,,,,,,,,,,,,,masks/mask_001.jpg,,,,,,,,,,,,,,,,,,,,,,,,,,,,,,,,,,,,,,,,,,,0,3,3,0,1,,,,,,,,,,,,,,,,,,,,,,,,,,,,,,,,,,,,,,,,,,,,,,
728596,001,2022-11-20_23h51.02.035,Info_measure_main_exp,2022.2.2,Win32,59.78000956,,,,,,,,,,,,,,,,,,masks/mask_002.jpg,,,,,,,,,,,,,,,,,,,,,,,,,,,,,,,,,,,,,,,,,,,0,4,4,1,1,,,,,,,,,,,,,,,,,,,,,,,,,,,,,,,,,,,,,,,,,,,,,,
728596,001,2022-11-20_23h51.02.035,Info_measure_main_exp,2022.2.2,Win32,59.78000956,,,,,,,,,,,,,,,,,,masks/mask_001.jpg,,,,,,,,,,,,,,,,,,,,,,,,,,,,,,,,,,,,,,,,,,,,,,,,0,0,0,0,1,,,,,,,,,,,,,,,,,,,,,,,,,,,,,,,,,,,,,,,,,
728596,001,2022-11-20_23h51.02.035,Info_measure_main_exp,2022.2.2,Win32,59.78000956,,,,,,,,,,,,,,,,,,masks/mask_004.jpg,,,,,,,,,,,,,,,,,,,,,,,,,,,,,,,,,,,,,,,,,,,,,,,,0,1,1,3,1,,,,,,,,,,,,,,,,,,,,,,,,,,,,,,,,,,,,,,,,,
728596,001,2022-11-20_23h51.02.035,Info_measure_main_exp,2022.2.2,Win32,59.78000956,,,,,,,,,,,,,,,,,,masks/mask_005.jpg,,,,,,,,,,,,,,,,,,,,,,,,,,,,,,,,,,,,,,,,,,,,,,,,0,2,2,4,1,,,,,,,,,,,,,,,,,,,,,,,,,,,,,,,,,,,,,,,,,
728596,001,2022-11-20_23h51.02.035,Info_measure_main_exp,2022.2.2,Win32,59.78000956,,,,,,,,,,,,,,,,,,masks/mask_003.jpg,,,,,,,,,,,,,,,,,,,,,,,,,,,,,,,,,,,,,,,,,,,,,,,,0,3,3,2,1,,,,,,,,,,,,,,,,,,,,,,,,,,,,,,,,,,,,,,,,,
728596,001,2022-11-20_23h51.02.035,Info_measure_main_exp,2022.2.2,Win32,59.78000956,,,,,,,,,,,,,,,,,,masks/mask_002.jpg,,,,,,,,,,,,,,,,,,,,,,,,,,,,,,,,,,,,,,,,,,,,,,,,0,4,4,1,1,,,,,,,,,,,,,,,,,,,,,,,,,,,,,,,,,,,,,,,,,
728596,001,2022-11-20_23h51.02.035,Info_measure_main_exp,2022.2.2,Win32,59.78000956,,,,,,,,,,,,,,,,,,,,,,,,,,,,,,5,0.7662,1,,,,,,,,,,,,0,131,5,5,1974,2166,absent_patch/patch0001974.jpg,absent_patch/patch0002166.jpg,,,,,,,,,,,,,,,,,,,,0.07222225,-0.035185178,1,0,0,response3disk,23,0.000925912,0,1,0,0,center_square,0,22,22,77,1,,,,,,,,,,,,,,,,,,,,,,,
728596,001,2022-11-20_23h51.02.035,Info_measure_main_exp,2022.2.2,Win32,59.78000956,,,,,,,,,,,,,,,,,,masks/mask_003.jpg,,,,,,,,,,,,,,,,,,,,,,,,,,,,,,,,,,,,,,,,,,,0,0,0,2,1,,,,,,,,,,,,,,,,,,,,,,,,,,,,,,,,,,,,,,,,,,,,,,
728596,001,2022-11-20_23h51.02.035,Info_measure_main_exp,2022.2.2,Win32,59.78000956,,,,,,,,,,,,,,,,,,masks/mask_002.jpg,,,,,,,,,,,,,,,,,,,,,,,,,,,,,,,,,,,,,,,,,,,0,1,1,1,1,,,,,,,,,,,,,,,,,,,,,,,,,,,,,,,,,,,,,,,,,,,,,,
728596,001,2022-11-20_23h51.02.035,Info_measure_main_exp,2022.2.2,Win32,59.78000956,,,,,,,,,,,,,,,,,,masks/mask_001.jpg,,,,,,,,,,,,,,,,,,,,,,,,,,,,,,,,,,,,,,,,,,,0,2,2,0,1,,,,,,,,,,,,,,,,,,,,,,,,,,,,,,,,,,,,,,,,,,,,,,
728596,001,2022-11-20_23h51.02.035,Info_measure_main_exp,2022.2.2,Win32,59.78000956,,,,,,,,,,,,,,,,,,masks/mask_005.jpg,,,,,,,,,,,,,,,,,,,,,,,,,,,,,,,,,,,,,,,,,,,0,3,3,4,1,,,,,,,,,,,,,,,,,,,,,,,,,,,,,,,,,,,,,,,,,,,,,,
728596,001,2022-11-20_23h51.02.035,Info_measure_main_exp,2022.2.2,Win32,59.78000956,,,,,,,,,,,,,,,,,,masks/mask_004.jpg,,,,,,,,,,,,,,,,,,,,,,,,,,,,,,,,,,,,,,,,,,,0,4,4,3,1,,,,,,,,,,,,,,,,,,,,,,,,,,,,,,,,,,,,,,,,,,,,,,
728596,001,2022-11-20_23h51.02.035,Info_measure_main_exp,2022.2.2,Win32,59.78000956,,,,,,,,,,,,,,,,,,masks/mask_005.jpg,,,,,,,,,,,,,,,,,,,,,,,,,,,,,,,,,,,,,,,,,,,,,,,,0,0,0,4,1,,,,,,,,,,,,,,,,,,,,,,,,,,,,,,,,,,,,,,,,,
728596,001,2022-11-20_23h51.02.035,Info_measure_main_exp,2022.2.2,Win32,59.78000956,,,,,,,,,,,,,,,,,,masks/mask_004.jpg,,,,,,,,,,,,,,,,,,,,,,,,,,,,,,,,,,,,,,,,,,,,,,,,0,1,1,3,1,,,,,,,,,,,,,,,,,,,,,,,,,,,,,,,,,,,,,,,,,
728596,001,2022-11-20_23h51.02.035,Info_measure_main_exp,2022.2.2,Win32,59.78000956,,,,,,,,,,,,,,,,,,masks/mask_001.jpg,,,,,,,,,,,,,,,,,,,,,,,,,,,,,,,,,,,,,,,,,,,,,,,,0,2,2,0,1,,,,,,,,,,,,,,,,,,,,,,,,,,,,,,,,,,,,,,,,,
728596,001,2022-11-20_23h51.02.035,Info_measure_main_exp,2022.2.2,Win32,59.78000956,,,,,,,,,,,,,,,,,,masks/mask_002.jpg,,,,,,,,,,,,,,,,,,,,,,,,,,,,,,,,,,,,,,,,,,,,,,,,0,3,3,1,1,,,,,,,,,,,,,,,,,,,,,,,,,,,,,,,,,,,,,,,,,
728596,001,2022-11-20_23h51.02.035,Info_measure_main_exp,2022.2.2,Win32,59.78000956,,,,,,,,,,,,,,,,,,masks/mask_003.jpg,,,,,,,,,,,,,,,,,,,,,,,,,,,,,,,,,,,,,,,,,,,,,,,,0,4,4,2,1,,,,,,,,,,,,,,,,,,,,,,,,,,,,,,,,,,,,,,,,,
728596,001,2022-11-20_23h51.02.035,Info_measure_main_exp,2022.2.2,Win32,59.78000956,,,,,,,,,,,,,,,,,,,,,,,,,,,,,,2,1.5498,1,,,,,,,,,,,,0,131,5,5,1986,2154,absent_patch/patch0001986.jpg,absent_patch/patch0002154.jpg,,,,,,,,,,,,,,,,,,,,-0.092592593,-0.018518519,1,0,0,response5disk,24,0.001851894,0.00462963,1,0,0,center_square,0,23,23,36,1,,,,,,,,,,,,,,,,,,,,,,,
728596,001,2022-11-20_23h51.02.035,Info_measure_main_exp,2022.2.2,Win32,59.78000956,,,,,,,,,,,,,,,,,,masks/mask_003.jpg,,,,,,,,,,,,,,,,,,,,,,,,,,,,,,,,,,,,,,,,,,,0,0,0,2,1,,,,,,,,,,,,,,,,,,,,,,,,,,,,,,,,,,,,,,,,,,,,,,
728596,001,2022-11-20_23h51.02.035,Info_measure_main_exp,2022.2.2,Win32,59.78000956,,,,,,,,,,,,,,,,,,masks/mask_004.jpg,,,,,,,,,,,,,,,,,,,,,,,,,,,,,,,,,,,,,,,,,,,0,1,1,3,1,,,,,,,,,,,,,,,,,,,,,,,,,,,,,,,,,,,,,,,,,,,,,,
728596,001,2022-11-20_23h51.02.035,Info_measure_main_exp,2022.2.2,Win32,59.78000956,,,,,,,,,,,,,,,,,,masks/mask_005.jpg,,,,,,,,,,,,,,,,,,,,,,,,,,,,,,,,,,,,,,,,,,,0,2,2,4,1,,,,,,,,,,,,,,,,,,,,,,,,,,,,,,,,,,,,,,,,,,,,,,
728596,001,2022-11-20_23h51.02.035,Info_measure_main_exp,2022.2.2,Win32,59.78000956,,,,,,,,,,,,,,,,,,masks/mask_002.jpg,,,,,,,,,,,,,,,,,,,,,,,,,,,,,,,,,,,,,,,,,,,0,3,3,1,1,,,,,,,,,,,,,,,,,,,,,,,,,,,,,,,,,,,,,,,,,,,,,,
728596,001,2022-11-20_23h51.02.035,Info_measure_main_exp,2022.2.2,Win32,59.78000956,,,,,,,,,,,,,,,,,,masks/mask_001.jpg,,,,,,,,,,,,,,,,,,,,,,,,,,,,,,,,,,,,,,,,,,,0,4,4,0,1,,,,,,,,,,,,,,,,,,,,,,,,,,,,,,,,,,,,,,,,,,,,,,
728596,001,2022-11-20_23h51.02.035,Info_measure_main_exp,2022.2.2,Win32,59.78000956,,,,,,,,,,,,,,,,,,masks/mask_004.jpg,,,,,,,,,,,,,,,,,,,,,,,,,,,,,,,,,,,,,,,,,,,,,,,,0,0,0,3,1,,,,,,,,,,,,,,,,,,,,,,,,,,,,,,,,,,,,,,,,,
728596,001,2022-11-20_23h51.02.035,Info_measure_main_exp,2022.2.2,Win32,59.78000956,,,,,,,,,,,,,,,,,,masks/mask_003.jpg,,,,,,,,,,,,,,,,,,,,,,,,,,,,,,,,,,,,,,,,,,,,,,,,0,1,1,2,1,,,,,,,,,,,,,,,,,,,,,,,,,,,,,,,,,,,,,,,,,
728596,001,2022-11-20_23h51.02.035,Info_measure_main_exp,2022.2.2,Win32,59.78000956,,,,,,,,,,,,,,,,,,masks/mask_005.jpg,,,,,,,,,,,,,,,,,,,,,,,,,,,,,,,,,,,,,,,,,,,,,,,,0,2,2,4,1,,,,,,,,,,,,,,,,,,,,,,,,,,,,,,,,,,,,,,,,,
728596,001,2022-11-20_23h51.02.035,Info_measure_main_exp,2022.2.2,Win32,59.78000956,,,,,,,,,,,,,,,,,,masks/mask_002.jpg,,,,,,,,,,,,,,,,,,,,,,,,,,,,,,,,,,,,,,,,,,,,,,,,0,3,3,1,1,,,,,,,,,,,,,,,,,,,,,,,,,,,,,,,,,,,,,,,,,
728596,001,2022-11-20_23h51.02.035,Info_measure_main_exp,2022.2.2,Win32,59.78000956,,,,,,,,,,,,,,,,,,masks/mask_001.jpg,,,,,,,,,,,,,,,,,,,,,,,,,,,,,,,,,,,,,,,,,,,,,,,,0,4,4,0,1,,,,,,,,,,,,,,,,,,,,,,,,,,,,,,,,,,,,,,,,,
728596,001,2022-11-20_23h51.02.035,Info_measure_main_exp,2022.2.2,Win32,59.78000956,,,,,,,,,,,,,,,,,,,,,,,,,,,,,,2,1.2331,1,,,,,,,,,,,,0,131,5,5,2214,2082,absent_patch/patch0002214.jpg,absent_patch/patch0002082.jpg,,,,,,,,,,,,,,,,,,,,-0.114814829,-0.112963005,1,0,0,response5disk,25,0.005555541,0.002777771,1,0,0,center_square,0,24,24,103,1,,,,,,,,,,,,,,,,,,,,,,,
728596,001,2022-11-20_23h51.02.035,Info_measure_main_exp,2022.2.2,Win32,59.78000956,,,,,,,,,,,,,,,,,,masks/mask_003.jpg,,,,,,,,,,,,,,,,,,,,,,,,,,,,,,,,,,,,,,,,,,,0,0,0,2,1,,,,,,,,,,,,,,,,,,,,,,,,,,,,,,,,,,,,,,,,,,,,,,
728596,001,2022-11-20_23h51.02.035,Info_measure_main_exp,2022.2.2,Win32,59.78000956,,,,,,,,,,,,,,,,,,masks/mask_005.jpg,,,,,,,,,,,,,,,,,,,,,,,,,,,,,,,,,,,,,,,,,,,0,1,1,4,1,,,,,,,,,,,,,,,,,,,,,,,,,,,,,,,,,,,,,,,,,,,,,,
728596,001,2022-11-20_23h51.02.035,Info_measure_main_exp,2022.2.2,Win32,59.78000956,,,,,,,,,,,,,,,,,,masks/mask_002.jpg,,,,,,,,,,,,,,,,,,,,,,,,,,,,,,,,,,,,,,,,,,,0,2,2,1,1,,,,,,,,,,,,,,,,,,,,,,,,,,,,,,,,,,,,,,,,,,,,,,
728596,001,2022-11-20_23h51.02.035,Info_measure_main_exp,2022.2.2,Win32,59.78000956,,,,,,,,,,,,,,,,,,masks/mask_004.jpg,,,,,,,,,,,,,,,,,,,,,,,,,,,,,,,,,,,,,,,,,,,0,3,3,3,1,,,,,,,,,,,,,,,,,,,,,,,,,,,,,,,,,,,,,,,,,,,,,,
728596,001,2022-11-20_23h51.02.035,Info_measure_main_exp,2022.2.2,Win32,59.78000956,,,,,,,,,,,,,,,,,,masks/mask_001.jpg,,,,,,,,,,,,,,,,,,,,,,,,,,,,,,,,,,,,,,,,,,,0,4,4,0,1,,,,,,,,,,,,,,,,,,,,,,,,,,,,,,,,,,,,,,,,,,,,,,
728596,001,2022-11-20_23h51.02.035,Info_measure_main_exp,2022.2.2,Win32,59.78000956,,,,,,,,,,,,,,,,,,masks/mask_002.jpg,,,,,,,,,,,,,,,,,,,,,,,,,,,,,,,,,,,,,,,,,,,,,,,,0,0,0,1,1,,,,,,,,,,,,,,,,,,,,,,,,,,,,,,,,,,,,,,,,,
728596,001,2022-11-20_23h51.02.035,Info_measure_main_exp,2022.2.2,Win32,59.78000956,,,,,,,,,,,,,,,,,,masks/mask_004.jpg,,,,,,,,,,,,,,,,,,,,,,,,,,,,,,,,,,,,,,,,,,,,,,,,0,1,1,3,1,,,,,,,,,,,,,,,,,,,,,,,,,,,,,,,,,,,,,,,,,
728596,001,2022-11-20_23h51.02.035,Info_measure_main_exp,2022.2.2,Win32,59.78000956,,,,,,,,,,,,,,,,,,masks/mask_003.jpg,,,,,,,,,,,,,,,,,,,,,,,,,,,,,,,,,,,,,,,,,,,,,,,,0,2,2,2,1,,,,,,,,,,,,,,,,,,,,,,,,,,,,,,,,,,,,,,,,,
728596,001,2022-11-20_23h51.02.035,Info_measure_main_exp,2022.2.2,Win32,59.78000956,,,,,,,,,,,,,,,,,,masks/mask_001.jpg,,,,,,,,,,,,,,,,,,,,,,,,,,,,,,,,,,,,,,,,,,,,,,,,0,3,3,0,1,,,,,,,,,,,,,,,,,,,,,,,,,,,,,,,,,,,,,,,,,
728596,001,2022-11-20_23h51.02.035,Info_measure_main_exp,2022.2.2,Win32,59.78000956,,,,,,,,,,,,,,,,,,masks/mask_005.jpg,,,,,,,,,,,,,,,,,,,,,,,,,,,,,,,,,,,,,,,,,,,,,,,,0,4,4,4,1,,,,,,,,,,,,,,,,,,,,,,,,,,,,,,,,,,,,,,,,,
728596,001,2022-11-20_23h51.02.035,Info_measure_main_exp,2022.2.2,Win32,59.78000956,,,,,,,,,,,,,,,,,,,,,,,,,,,,,,2,1.4424,1,,,,,,,,,,,,1,131,5,5,1,2154,present_patch/cong_131_5_a.jpg,absent_patch/patch0002154.jpg,,,,,,,,,,,,,,,,,,,,-0.122222194,-0.013888889,1,0,0,response5disk,26,0.007407436,-0.008333347,1,0,0,center_square,0,25,25,87,1,,,,,,,,,,,,,,,,,,,,,,,
728596,001,2022-11-20_23h51.02.035,Info_measure_main_exp,2022.2.2,Win32,59.78000956,,,,,,,,,,,,,,,,,,masks/mask_001.jpg,,,,,,,,,,,,,,,,,,,,,,,,,,,,,,,,,,,,,,,,,,,0,0,0,0,1,,,,,,,,,,,,,,,,,,,,,,,,,,,,,,,,,,,,,,,,,,,,,,
728596,001,2022-11-20_23h51.02.035,Info_measure_main_exp,2022.2.2,Win32,59.78000956,,,,,,,,,,,,,,,,,,masks/mask_004.jpg,,,,,,,,,,,,,,,,,,,,,,,,,,,,,,,,,,,,,,,,,,,0,1,1,3,1,,,,,,,,,,,,,,,,,,,,,,,,,,,,,,,,,,,,,,,,,,,,,,
728596,001,2022-11-20_23h51.02.035,Info_measure_main_exp,2022.2.2,Win32,59.78000956,,,,,,,,,,,,,,,,,,masks/mask_005.jpg,,,,,,,,,,,,,,,,,,,,,,,,,,,,,,,,,,,,,,,,,,,0,2,2,4,1,,,,,,,,,,,,,,,,,,,,,,,,,,,,,,,,,,,,,,,,,,,,,,
728596,001,2022-11-20_23h51.02.035,Info_measure_main_exp,2022.2.2,Win32,59.78000956,,,,,,,,,,,,,,,,,,masks/mask_002.jpg,,,,,,,,,,,,,,,,,,,,,,,,,,,,,,,,,,,,,,,,,,,0,3,3,1,1,,,,,,,,,,,,,,,,,,,,,,,,,,,,,,,,,,,,,,,,,,,,,,
728596,001,2022-11-20_23h51.02.035,Info_measure_main_exp,2022.2.2,Win32,59.78000956,,,,,,,,,,,,,,,,,,masks/mask_003.jpg,,,,,,,,,,,,,,,,,,,,,,,,,,,,,,,,,,,,,,,,,,,0,4,4,2,1,,,,,,,,,,,,,,,,,,,,,,,,,,,,,,,,,,,,,,,,,,,,,,
728596,001,2022-11-20_23h51.02.035,Info_measure_main_exp,2022.2.2,Win32,59.78000956,,,,,,,,,,,,,,,,,,masks/mask_005.jpg,,,,,,,,,,,,,,,,,,,,,,,,,,,,,,,,,,,,,,,,,,,,,,,,0,0,0,4,1,,,,,,,,,,,,,,,,,,,,,,,,,,,,,,,,,,,,,,,,,
728596,001,2022-11-20_23h51.02.035,Info_measure_main_exp,2022.2.2,Win32,59.78000956,,,,,,,,,,,,,,,,,,masks/mask_003.jpg,,,,,,,,,,,,,,,,,,,,,,,,,,,,,,,,,,,,,,,,,,,,,,,,0,1,1,2,1,,,,,,,,,,,,,,,,,,,,,,,,,,,,,,,,,,,,,,,,,
728596,001,2022-11-20_23h51.02.035,Info_measure_main_exp,2022.2.2,Win32,59.78000956,,,,,,,,,,,,,,,,,,masks/mask_001.jpg,,,,,,,,,,,,,,,,,,,,,,,,,,,,,,,,,,,,,,,,,,,,,,,,0,2,2,0,1,,,,,,,,,,,,,,,,,,,,,,,,,,,,,,,,,,,,,,,,,
728596,001,2022-11-20_23h51.02.035,Info_measure_main_exp,2022.2.2,Win32,59.78000956,,,,,,,,,,,,,,,,,,masks/mask_004.jpg,,,,,,,,,,,,,,,,,,,,,,,,,,,,,,,,,,,,,,,,,,,,,,,,0,3,3,3,1,,,,,,,,,,,,,,,,,,,,,,,,,,,,,,,,,,,,,,,,,
728596,001,2022-11-20_23h51.02.035,Info_measure_main_exp,2022.2.2,Win32,59.78000956,,,,,,,,,,,,,,,,,,masks/mask_002.jpg,,,,,,,,,,,,,,,,,,,,,,,,,,,,,,,,,,,,,,,,,,,,,,,,0,4,4,1,1,,,,,,,,,,,,,,,,,,,,,,,,,,,,,,,,,,,,,,,,,
728596,001,2022-11-20_23h51.02.035,Info_measure_main_exp,2022.2.2,Win32,59.78000956,,,,,,,,,,,,,,,,,,,,,,,,,,,,,,6,0.8501,1,,,,,,,,,,,,0,131,5,5,1974,2250,absent_patch/patch0001974.jpg,absent_patch/patch0002250.jpg,,,,,,,,,,,,,,,,,,,,0.063888903,0.025925919,1,0,0,response1disk,27,0,-0.003703718,1,0,0,center_square,0,26,26,55,1,,,,,,,,,,,,,,,,,,,,,,,
728596,001,2022-11-20_23h51.02.035,Info_measure_main_exp,2022.2.2,Win32,59.78000956,,,,,,,,,,,,,,,,,,masks/mask_002.jpg,,,,,,,,,,,,,,,,,,,,,,,,,,,,,,,,,,,,,,,,,,,0,0,0,1,1,,,,,,,,,,,,,,,,,,,,,,,,,,,,,,,,,,,,,,,,,,,,,,
728596,001,2022-11-20_23h51.02.035,Info_measure_main_exp,2022.2.2,Win32,59.78000956,,,,,,,,,,,,,,,,,,masks/mask_001.jpg,,,,,,,,,,,,,,,,,,,,,,,,,,,,,,,,,,,,,,,,,,,0,1,1,0,1,,,,,,,,,,,,,,,,,,,,,,,,,,,,,,,,,,,,,,,,,,,,,,
728596,001,2022-11-20_23h51.02.035,Info_measure_main_exp,2022.2.2,Win32,59.78000956,,,,,,,,,,,,,,,,,,masks/mask_005.jpg,,,,,,,,,,,,,,,,,,,,,,,,,,,,,,,,,,,,,,,,,,,0,2,2,4,1,,,,,,,,,,,,,,,,,,,,,,,,,,,,,,,,,,,,,,,,,,,,,,
728596,001,2022-11-20_23h51.02.035,Info_measure_main_exp,2022.2.2,Win32,59.78000956,,,,,,,,,,,,,,,,,,masks/mask_004.jpg,,,,,,,,,,,,,,,,,,,,,,,,,,,,,,,,,,,,,,,,,,,0,3,3,3,1,,,,,,,,,,,,,,,,,,,,,,,,,,,,,,,,,,,,,,,,,,,,,,
728596,001,2022-11-20_23h51.02.035,Info_measure_main_exp,2022.2.2,Win32,59.78000956,,,,,,,,,,,,,,,,,,masks/mask_003.jpg,,,,,,,,,,,,,,,,,,,,,,,,,,,,,,,,,,,,,,,,,,,0,4,4,2,1,,,,,,,,,,,,,,,,,,,,,,,,,,,,,,,,,,,,,,,,,,,,,,
728596,001,2022-11-20_23h51.02.035,Info_measure_main_exp,2022.2.2,Win32,59.78000956,,,,,,,,,,,,,,,,,,masks/mask_004.jpg,,,,,,,,,,,,,,,,,,,,,,,,,,,,,,,,,,,,,,,,,,,,,,,,0,0,0,3,1,,,,,,,,,,,,,,,,,,,,,,,,,,,,,,,,,,,,,,,,,
728596,001,2022-11-20_23h51.02.035,Info_measure_main_exp,2022.2.2,Win32,59.78000956,,,,,,,,,,,,,,,,,,masks/mask_001.jpg,,,,,,,,,,,,,,,,,,,,,,,,,,,,,,,,,,,,,,,,,,,,,,,,0,1,1,0,1,,,,,,,,,,,,,,,,,,,,,,,,,,,,,,,,,,,,,,,,,
728596,001,2022-11-20_23h51.02.035,Info_measure_main_exp,2022.2.2,Win32,59.78000956,,,,,,,,,,,,,,,,,,masks/mask_005.jpg,,,,,,,,,,,,,,,,,,,,,,,,,,,,,,,,,,,,,,,,,,,,,,,,0,2,2,4,1,,,,,,,,,,,,,,,,,,,,,,,,,,,,,,,,,,,,,,,,,
728596,001,2022-11-20_23h51.02.035,Info_measure_main_exp,2022.2.2,Win32,59.78000956,,,,,,,,,,,,,,,,,,masks/mask_002.jpg,,,,,,,,,,,,,,,,,,,,,,,,,,,,,,,,,,,,,,,,,,,,,,,,0,3,3,1,1,,,,,,,,,,,,,,,,,,,,,,,,,,,,,,,,,,,,,,,,,
728596,001,2022-11-20_23h51.02.035,Info_measure_main_exp,2022.2.2,Win32,59.78000956,,,,,,,,,,,,,,,,,,masks/mask_003.jpg,,,,,,,,,,,,,,,,,,,,,,,,,,,,,,,,,,,,,,,,,,,,,,,,0,4,4,2,1,,,,,,,,,,,,,,,,,,,,,,,,,,,,,,,,,,,,,,,,,
728596,001,2022-11-20_23h51.02.035,Info_measure_main_exp,2022.2.2,Win32,59.78000956,,,,,,,,,,,,,,,,,,,,,,,,,,,,,,5,5.4327,1,,,,,,,,,,,,0,131,5,5,2214,2178,absent_patch/patch0002214.jpg,absent_patch/patch0002178.jpg,,,,,,,,,,,,,,,,,,,,0.065740727,-0.036111125,1,0,0,response3disk,28,-0.010185171,0.01203703,1,0,0,center_square,0,27,27,62,1,,,,,,,,,,,,,,,,,,,,,,,
728596,001,2022-11-20_23h51.02.035,Info_measure_main_exp,2022.2.2,Win32,59.78000956,,,,,,,,,,,,,,,,,,masks/mask_002.jpg,,,,,,,,,,,,,,,,,,,,,,,,,,,,,,,,,,,,,,,,,,,0,0,0,1,1,,,,,,,,,,,,,,,,,,,,,,,,,,,,,,,,,,,,,,,,,,,,,,
728596,001,2022-11-20_23h51.02.035,Info_measure_main_exp,2022.2.2,Win32,59.78000956,,,,,,,,,,,,,,,,,,masks/mask_001.jpg,,,,,,,,,,,,,,,,,,,,,,,,,,,,,,,,,,,,,,,,,,,0,1,1,0,1,,,,,,,,,,,,,,,,,,,,,,,,,,,,,,,,,,,,,,,,,,,,,,
728596,001,2022-11-20_23h51.02.035,Info_measure_main_exp,2022.2.2,Win32,59.78000956,,,,,,,,,,,,,,,,,,masks/mask_003.jpg,,,,,,,,,,,,,,,,,,,,,,,,,,,,,,,,,,,,,,,,,,,0,2,2,2,1,,,,,,,,,,,,,,,,,,,,,,,,,,,,,,,,,,,,,,,,,,,,,,
728596,001,2022-11-20_23h51.02.035,Info_measure_main_exp,2022.2.2,Win32,59.78000956,,,,,,,,,,,,,,,,,,masks/mask_005.jpg,,,,,,,,,,,,,,,,,,,,,,,,,,,,,,,,,,,,,,,,,,,0,3,3,4,1,,,,,,,,,,,,,,,,,,,,,,,,,,,,,,,,,,,,,,,,,,,,,,
728596,001,2022-11-20_23h51.02.035,Info_measure_main_exp,2022.2.2,Win32,59.78000956,,,,,,,,,,,,,,,,,,masks/mask_004.jpg,,,,,,,,,,,,,,,,,,,,,,,,,,,,,,,,,,,,,,,,,,,0,4,4,3,1,,,,,,,,,,,,,,,,,,,,,,,,,,,,,,,,,,,,,,,,,,,,,,
728596,001,2022-11-20_23h51.02.035,Info_measure_main_exp,2022.2.2,Win32,59.78000956,,,,,,,,,,,,,,,,,,masks/mask_005.jpg,,,,,,,,,,,,,,,,,,,,,,,,,,,,,,,,,,,,,,,,,,,,,,,,0,0,0,4,1,,,,,,,,,,,,,,,,,,,,,,,,,,,,,,,,,,,,,,,,,
728596,001,2022-11-20_23h51.02.035,Info_measure_main_exp,2022.2.2,Win32,59.78000956,,,,,,,,,,,,,,,,,,masks/mask_002.jpg,,,,,,,,,,,,,,,,,,,,,,,,,,,,,,,,,,,,,,,,,,,,,,,,0,1,1,1,1,,,,,,,,,,,,,,,,,,,,,,,,,,,,,,,,,,,,,,,,,
728596,001,2022-11-20_23h51.02.035,Info_measure_main_exp,2022.2.2,Win32,59.78000956,,,,,,,,,,,,,,,,,,masks/mask_001.jpg,,,,,,,,,,,,,,,,,,,,,,,,,,,,,,,,,,,,,,,,,,,,,,,,0,2,2,0,1,,,,,,,,,,,,,,,,,,,,,,,,,,,,,,,,,,,,,,,,,
728596,001,2022-11-20_23h51.02.035,Info_measure_main_exp,2022.2.2,Win32,59.78000956,,,,,,,,,,,,,,,,,,masks/mask_004.jpg,,,,,,,,,,,,,,,,,,,,,,,,,,,,,,,,,,,,,,,,,,,,,,,,0,3,3,3,1,,,,,,,,,,,,,,,,,,,,,,,,,,,,,,,,,,,,,,,,,
728596,001,2022-11-20_23h51.02.035,Info_measure_main_exp,2022.2.2,Win32,59.78000956,,,,,,,,,,,,,,,,,,masks/mask_003.jpg,,,,,,,,,,,,,,,,,,,,,,,,,,,,,,,,,,,,,,,,,,,,,,,,0,4,4,2,1,,,,,,,,,,,,,,,,,,,,,,,,,,,,,,,,,,,,,,,,,
728596,001,2022-11-20_23h51.02.035,Info_measure_main_exp,2022.2.2,Win32,59.78000956,,,,,,,,,,,,,,,,,,,,,,,,,,,,,,6,0.8498,1,,,,,,,,,,,,0,131,5,5,2190,2178,absent_patch/patch0002190.jpg,absent_patch/patch0002178.jpg,,,,,,,,,,,,,,,,,,,,0.075925968,0.039814808,1,0,0,response1disk,29,0.002777806,-0.006481489,1,0,0,center_square,0,28,28,14,1,,,,,,,,,,,,,,,,,,,,,,,
728596,001,2022-11-20_23h51.02.035,Info_measure_main_exp,2022.2.2,Win32,59.78000956,,,,,,,,,,,,,,,,,,masks/mask_002.jpg,,,,,,,,,,,,,,,,,,,,,,,,,,,,,,,,,,,,,,,,,,,0,0,0,1,1,,,,,,,,,,,,,,,,,,,,,,,,,,,,,,,,,,,,,,,,,,,,,,
728596,001,2022-11-20_23h51.02.035,Info_measure_main_exp,2022.2.2,Win32,59.78000956,,,,,,,,,,,,,,,,,,masks/mask_003.jpg,,,,,,,,,,,,,,,,,,,,,,,,,,,,,,,,,,,,,,,,,,,0,1,1,2,1,,,,,,,,,,,,,,,,,,,,,,,,,,,,,,,,,,,,,,,,,,,,,,
728596,001,2022-11-20_23h51.02.035,Info_measure_main_exp,2022.2.2,Win32,59.78000956,,,,,,,,,,,,,,,,,,masks/mask_005.jpg,,,,,,,,,,,,,,,,,,,,,,,,,,,,,,,,,,,,,,,,,,,0,2,2,4,1,,,,,,,,,,,,,,,,,,,,,,,,,,,,,,,,,,,,,,,,,,,,,,
728596,001,2022-11-20_23h51.02.035,Info_measure_main_exp,2022.2.2,Win32,59.78000956,,,,,,,,,,,,,,,,,,masks/mask_004.jpg,,,,,,,,,,,,,,,,,,,,,,,,,,,,,,,,,,,,,,,,,,,0,3,3,3,1,,,,,,,,,,,,,,,,,,,,,,,,,,,,,,,,,,,,,,,,,,,,,,
728596,001,2022-11-20_23h51.02.035,Info_measure_main_exp,2022.2.2,Win32,59.78000956,,,,,,,,,,,,,,,,,,masks/mask_001.jpg,,,,,,,,,,,,,,,,,,,,,,,,,,,,,,,,,,,,,,,,,,,0,4,4,0,1,,,,,,,,,,,,,,,,,,,,,,,,,,,,,,,,,,,,,,,,,,,,,,
728596,001,2022-11-20_23h51.02.035,Info_measure_main_exp,2022.2.2,Win32,59.78000956,,,,,,,,,,,,,,,,,,masks/mask_001.jpg,,,,,,,,,,,,,,,,,,,,,,,,,,,,,,,,,,,,,,,,,,,,,,,,0,0,0,0,1,,,,,,,,,,,,,,,,,,,,,,,,,,,,,,,,,,,,,,,,,
728596,001,2022-11-20_23h51.02.035,Info_measure_main_exp,2022.2.2,Win32,59.78000956,,,,,,,,,,,,,,,,,,masks/mask_002.jpg,,,,,,,,,,,,,,,,,,,,,,,,,,,,,,,,,,,,,,,,,,,,,,,,0,1,1,1,1,,,,,,,,,,,,,,,,,,,,,,,,,,,,,,,,,,,,,,,,,
728596,001,2022-11-20_23h51.02.035,Info_measure_main_exp,2022.2.2,Win32,59.78000956,,,,,,,,,,,,,,,,,,masks/mask_005.jpg,,,,,,,,,,,,,,,,,,,,,,,,,,,,,,,,,,,,,,,,,,,,,,,,0,2,2,4,1,,,,,,,,,,,,,,,,,,,,,,,,,,,,,,,,,,,,,,,,,
728596,001,2022-11-20_23h51.02.035,Info_measure_main_exp,2022.2.2,Win32,59.78000956,,,,,,,,,,,,,,,,,,masks/mask_004.jpg,,,,,,,,,,,,,,,,,,,,,,,,,,,,,,,,,,,,,,,,,,,,,,,,0,3,3,3,1,,,,,,,,,,,,,,,,,,,,,,,,,,,,,,,,,,,,,,,,,
728596,001,2022-11-20_23h51.02.035,Info_measure_main_exp,2022.2.2,Win32,59.78000956,,,,,,,,,,,,,,,,,,masks/mask_003.jpg,,,,,,,,,,,,,,,,,,,,,,,,,,,,,,,,,,,,,,,,,,,,,,,,0,4,4,2,1,,,,,,,,,,,,,,,,,,,,,,,,,,,,,,,,,,,,,,,,,
728596,001,2022-11-20_23h51.02.035,Info_measure_main_exp,2022.2.2,Win32,59.78000956,,,,,,,,,,,,,,,,,,,,,,,,,,,,,,3,2.5826,1,,,,,,,,,,,,1,131,5,5,1,2178,present_patch/cong_131_5_a.jpg,absent_patch/patch0002178.jpg,,,,,,,,,,,,,,,,,,,,-0.02870369,-0.083333333,1,0,0,response5disk,30,0.012037065,0.00462963,1,0,0,center_square,0,29,29,40,1,,,,,,,,,,,,,,,,,,,,,,,
728596,001,2022-11-20_23h51.02.035,Info_measure_main_exp,2022.2.2,Win32,59.78000956,,,,,,,,,,,,,,,,,,masks/mask_002.jpg,,,,,,,,,,,,,,,,,,,,,,,,,,,,,,,,,,,,,,,,,,,0,0,0,1,1,,,,,,,,,,,,,,,,,,,,,,,,,,,,,,,,,,,,,,,,,,,,,,
728596,001,2022-11-20_23h51.02.035,Info_measure_main_exp,2022.2.2,Win32,59.78000956,,,,,,,,,,,,,,,,,,masks/mask_005.jpg,,,,,,,,,,,,,,,,,,,,,,,,,,,,,,,,,,,,,,,,,,,0,1,1,4,1,,,,,,,,,,,,,,,,,,,,,,,,,,,,,,,,,,,,,,,,,,,,,,
728596,001,2022-11-20_23h51.02.035,Info_measure_main_exp,2022.2.2,Win32,59.78000956,,,,,,,,,,,,,,,,,,masks/mask_004.jpg,,,,,,,,,,,,,,,,,,,,,,,,,,,,,,,,,,,,,,,,,,,0,2,2,3,1,,,,,,,,,,,,,,,,,,,,,,,,,,,,,,,,,,,,,,,,,,,,,,
728596,001,2022-11-20_23h51.02.035,Info_measure_main_exp,2022.2.2,Win32,59.78000956,,,,,,,,,,,,,,,,,,masks/mask_001.jpg,,,,,,,,,,,,,,,,,,,,,,,,,,,,,,,,,,,,,,,,,,,0,3,3,0,1,,,,,,,,,,,,,,,,,,,,,,,,,,,,,,,,,,,,,,,,,,,,,,
728596,001,2022-11-20_23h51.02.035,Info_measure_main_exp,2022.2.2,Win32,59.78000956,,,,,,,,,,,,,,,,,,masks/mask_003.jpg,,,,,,,,,,,,,,,,,,,,,,,,,,,,,,,,,,,,,,,,,,,0,4,4,2,1,,,,,,,,,,,,,,,,,,,,,,,,,,,,,,,,,,,,,,,,,,,,,,
728596,001,2022-11-20_23h51.02.035,Info_measure_main_exp,2022.2.2,Win32,59.78000956,,,,,,,,,,,,,,,,,,masks/mask_003.jpg,,,,,,,,,,,,,,,,,,,,,,,,,,,,,,,,,,,,,,,,,,,,,,,,0,0,0,2,1,,,,,,,,,,,,,,,,,,,,,,,,,,,,,,,,,,,,,,,,,
728596,001,2022-11-20_23h51.02.035,Info_measure_main_exp,2022.2.2,Win32,59.78000956,,,,,,,,,,,,,,,,,,masks/mask_001.jpg,,,,,,,,,,,,,,,,,,,,,,,,,,,,,,,,,,,,,,,,,,,,,,,,0,1,1,0,1,,,,,,,,,,,,,,,,,,,,,,,,,,,,,,,,,,,,,,,,,
728596,001,2022-11-20_23h51.02.035,Info_measure_main_exp,2022.2.2,Win32,59.78000956,,,,,,,,,,,,,,,,,,masks/mask_005.jpg,,,,,,,,,,,,,,,,,,,,,,,,,,,,,,,,,,,,,,,,,,,,,,,,0,2,2,4,1,,,,,,,,,,,,,,,,,,,,,,,,,,,,,,,,,,,,,,,,,
728596,001,2022-11-20_23h51.02.035,Info_measure_main_exp,2022.2.2,Win32,59.78000956,,,,,,,,,,,,,,,,,,masks/mask_004.jpg,,,,,,,,,,,,,,,,,,,,,,,,,,,,,,,,,,,,,,,,,,,,,,,,0,3,3,3,1,,,,,,,,,,,,,,,,,,,,,,,,,,,,,,,,,,,,,,,,,
728596,001,2022-11-20_23h51.02.035,Info_measure_main_exp,2022.2.2,Win32,59.78000956,,,,,,,,,,,,,,,,,,masks/mask_002.jpg,,,,,,,,,,,,,,,,,,,,,,,,,,,,,,,,,,,,,,,,,,,,,,,,0,4,4,1,1,,,,,,,,,,,,,,,,,,,,,,,,,,,,,,,,,,,,,,,,,
728596,001,2022-11-20_23h51.02.035,Info_measure_main_exp,2022.2.2,Win32,59.78000956,,,,,,,,,,,,,,,,,,,,,,,,,,,,,,1,3.1995,1,,,,,,,,,,,,0,131,5,5,1974,1974,absent_patch/patch0001974.jpg,absent_patch/patch0001974.jpg,,,,,,,,,,,,,,,,,,,,-0.101851852,0.027777778,1,0,0,response7disk,31,0.002777806,-0.000925947,1,0,0,center_square,0,30,30,113,1,,,,,,,,,,,,,,,,,,,,,,,
728596,001,2022-11-20_23h51.02.035,Info_measure_main_exp,2022.2.2,Win32,59.78000956,,,,,,,,,,,,,,,,,,masks/mask_001.jpg,,,,,,,,,,,,,,,,,,,,,,,,,,,,,,,,,,,,,,,,,,,0,0,0,0,1,,,,,,,,,,,,,,,,,,,,,,,,,,,,,,,,,,,,,,,,,,,,,,
728596,001,2022-11-20_23h51.02.035,Info_measure_main_exp,2022.2.2,Win32,59.78000956,,,,,,,,,,,,,,,,,,masks/mask_005.jpg,,,,,,,,,,,,,,,,,,,,,,,,,,,,,,,,,,,,,,,,,,,0,1,1,4,1,,,,,,,,,,,,,,,,,,,,,,,,,,,,,,,,,,,,,,,,,,,,,,
728596,001,2022-11-20_23h51.02.035,Info_measure_main_exp,2022.2.2,Win32,59.78000956,,,,,,,,,,,,,,,,,,masks/mask_002.jpg,,,,,,,,,,,,,,,,,,,,,,,,,,,,,,,,,,,,,,,,,,,0,2,2,1,1,,,,,,,,,,,,,,,,,,,,,,,,,,,,,,,,,,,,,,,,,,,,,,
728596,001,2022-11-20_23h51.02.035,Info_measure_main_exp,2022.2.2,Win32,59.78000956,,,,,,,,,,,,,,,,,,masks/mask_004.jpg,,,,,,,,,,,,,,,,,,,,,,,,,,,,,,,,,,,,,,,,,,,0,3,3,3,1,,,,,,,,,,,,,,,,,,,,,,,,,,,,,,,,,,,,,,,,,,,,,,
728596,001,2022-11-20_23h51.02.035,Info_measure_main_exp,2022.2.2,Win32,59.78000956,,,,,,,,,,,,,,,,,,masks/mask_003.jpg,,,,,,,,,,,,,,,,,,,,,,,,,,,,,,,,,,,,,,,,,,,0,4,4,2,1,,,,,,,,,,,,,,,,,,,,,,,,,,,,,,,,,,,,,,,,,,,,,,
728596,001,2022-11-20_23h51.02.035,Info_measure_main_exp,2022.2.2,Win32,59.78000956,,,,,,,,,,,,,,,,,,masks/mask_005.jpg,,,,,,,,,,,,,,,,,,,,,,,,,,,,,,,,,,,,,,,,,,,,,,,,0,0,0,4,1,,,,,,,,,,,,,,,,,,,,,,,,,,,,,,,,,,,,,,,,,
728596,001,2022-11-20_23h51.02.035,Info_measure_main_exp,2022.2.2,Win32,59.78000956,,,,,,,,,,,,,,,,,,masks/mask_003.jpg,,,,,,,,,,,,,,,,,,,,,,,,,,,,,,,,,,,,,,,,,,,,,,,,0,1,1,2,1,,,,,,,,,,,,,,,,,,,,,,,,,,,,,,,,,,,,,,,,,
728596,001,2022-11-20_23h51.02.035,Info_measure_main_exp,2022.2.2,Win32,59.78000956,,,,,,,,,,,,,,,,,,masks/mask_001.jpg,,,,,,,,,,,,,,,,,,,,,,,,,,,,,,,,,,,,,,,,,,,,,,,,0,2,2,0,1,,,,,,,,,,,,,,,,,,,,,,,,,,,,,,,,,,,,,,,,,
728596,001,2022-11-20_23h51.02.035,Info_measure_main_exp,2022.2.2,Win32,59.78000956,,,,,,,,,,,,,,,,,,masks/mask_004.jpg,,,,,,,,,,,,,,,,,,,,,,,,,,,,,,,,,,,,,,,,,,,,,,,,0,3,3,3,1,,,,,,,,,,,,,,,,,,,,,,,,,,,,,,,,,,,,,,,,,
728596,001,2022-11-20_23h51.02.035,Info_measure_main_exp,2022.2.2,Win32,59.78000956,,,,,,,,,,,,,,,,,,masks/mask_002.jpg,,,,,,,,,,,,,,,,,,,,,,,,,,,,,,,,,,,,,,,,,,,,,,,,0,4,4,1,1,,,,,,,,,,,,,,,,,,,,,,,,,,,,,,,,,,,,,,,,,
728596,001,2022-11-20_23h51.02.035,Info_measure_main_exp,2022.2.2,Win32,59.78000956,,,,,,,,,,,,,,,,,,,,,,,,,,,,,,5,1.7166,1,,,,,,,,,,,,0,131,5,5,2190,2250,absent_patch/patch0002190.jpg,absent_patch/patch0002250.jpg,,,,,,,,,,,,,,,,,,,,0.040740755,-0.026851866,1,0,0,response3disk,32,-0.00462963,-0.00462963,1,0,0,center_square,0,31,31,93,1,,,,,,,,,,,,,,,,,,,,,,,
728596,001,2022-11-20_23h51.02.035,Info_measure_main_exp,2022.2.2,Win32,59.78000956,,,,,,,,,,,,,,,,,,masks/mask_005.jpg,,,,,,,,,,,,,,,,,,,,,,,,,,,,,,,,,,,,,,,,,,,0,0,0,4,1,,,,,,,,,,,,,,,,,,,,,,,,,,,,,,,,,,,,,,,,,,,,,,
728596,001,2022-11-20_23h51.02.035,Info_measure_main_exp,2022.2.2,Win32,59.78000956,,,,,,,,,,,,,,,,,,masks/mask_002.jpg,,,,,,,,,,,,,,,,,,,,,,,,,,,,,,,,,,,,,,,,,,,0,1,1,1,1,,,,,,,,,,,,,,,,,,,,,,,,,,,,,,,,,,,,,,,,,,,,,,
728596,001,2022-11-20_23h51.02.035,Info_measure_main_exp,2022.2.2,Win32,59.78000956,,,,,,,,,,,,,,,,,,masks/mask_003.jpg,,,,,,,,,,,,,,,,,,,,,,,,,,,,,,,,,,,,,,,,,,,0,2,2,2,1,,,,,,,,,,,,,,,,,,,,,,,,,,,,,,,,,,,,,,,,,,,,,,
728596,001,2022-11-20_23h51.02.035,Info_measure_main_exp,2022.2.2,Win32,59.78000956,,,,,,,,,,,,,,,,,,masks/mask_001.jpg,,,,,,,,,,,,,,,,,,,,,,,,,,,,,,,,,,,,,,,,,,,0,3,3,0,1,,,,,,,,,,,,,,,,,,,,,,,,,,,,,,,,,,,,,,,,,,,,,,
728596,001,2022-11-20_23h51.02.035,Info_measure_main_exp,2022.2.2,Win32,59.78000956,,,,,,,,,,,,,,,,,,masks/mask_004.jpg,,,,,,,,,,,,,,,,,,,,,,,,,,,,,,,,,,,,,,,,,,,0,4,4,3,1,,,,,,,,,,,,,,,,,,,,,,,,,,,,,,,,,,,,,,,,,,,,,,
728596,001,2022-11-20_23h51.02.035,Info_measure_main_exp,2022.2.2,Win32,59.78000956,,,,,,,,,,,,,,,,,,masks/mask_003.jpg,,,,,,,,,,,,,,,,,,,,,,,,,,,,,,,,,,,,,,,,,,,,,,,,0,0,0,2,1,,,,,,,,,,,,,,,,,,,,,,,,,,,,,,,,,,,,,,,,,
728596,001,2022-11-20_23h51.02.035,Info_measure_main_exp,2022.2.2,Win32,59.78000956,,,,,,,,,,,,,,,,,,masks/mask_004.jpg,,,,,,,,,,,,,,,,,,,,,,,,,,,,,,,,,,,,,,,,,,,,,,,,0,1,1,3,1,,,,,,,,,,,,,,,,,,,,,,,,,,,,,,,,,,,,,,,,,
728596,001,2022-11-20_23h51.02.035,Info_measure_main_exp,2022.2.2,Win32,59.78000956,,,,,,,,,,,,,,,,,,masks/mask_005.jpg,,,,,,,,,,,,,,,,,,,,,,,,,,,,,,,,,,,,,,,,,,,,,,,,0,2,2,4,1,,,,,,,,,,,,,,,,,,,,,,,,,,,,,,,,,,,,,,,,,
728596,001,2022-11-20_23h51.02.035,Info_measure_main_exp,2022.2.2,Win32,59.78000956,,,,,,,,,,,,,,,,,,masks/mask_002.jpg,,,,,,,,,,,,,,,,,,,,,,,,,,,,,,,,,,,,,,,,,,,,,,,,0,3,3,1,1,,,,,,,,,,,,,,,,,,,,,,,,,,,,,,,,,,,,,,,,,
728596,001,2022-11-20_23h51.02.035,Info_measure_main_exp,2022.2.2,Win32,59.78000956,,,,,,,,,,,,,,,,,,masks/mask_001.jpg,,,,,,,,,,,,,,,,,,,,,,,,,,,,,,,,,,,,,,,,,,,,,,,,0,4,4,0,1,,,,,,,,,,,,,,,,,,,,,,,,,,,,,,,,,,,,,,,,,
728596,001,2022-11-20_23h51.02.035,Info_measure_main_exp,2022.2.2,Win32,59.78000956,,,,,,,,,,,,,,,,,,,,,,,,,,,,,,6,0.9572,1,,,,,,,,,,,,0,131,5,5,1974,2238,absent_patch/patch0001974.jpg,absent_patch/patch0002238.jpg,,,,,,,,,,,,,,,,,,,,0.094444487,0.053703697,1,0,0,response1disk,33,0.005555541,0.005555541,1,0,0,center_square,0,32,32,95,1,,,,,,,,,,,,,,,,,,,,,,,
728596,001,2022-11-20_23h51.02.035,Info_measure_main_exp,2022.2.2,Win32,59.78000956,,,,,,,,,,,,,,,,,,masks/mask_003.jpg,,,,,,,,,,,,,,,,,,,,,,,,,,,,,,,,,,,,,,,,,,,0,0,0,2,1,,,,,,,,,,,,,,,,,,,,,,,,,,,,,,,,,,,,,,,,,,,,,,
728596,001,2022-11-20_23h51.02.035,Info_measure_main_exp,2022.2.2,Win32,59.78000956,,,,,,,,,,,,,,,,,,masks/mask_001.jpg,,,,,,,,,,,,,,,,,,,,,,,,,,,,,,,,,,,,,,,,,,,0,1,1,0,1,,,,,,,,,,,,,,,,,,,,,,,,,,,,,,,,,,,,,,,,,,,,,,
728596,001,2022-11-20_23h51.02.035,Info_measure_main_exp,2022.2.2,Win32,59.78000956,,,,,,,,,,,,,,,,,,masks/mask_002.jpg,,,,,,,,,,,,,,,,,,,,,,,,,,,,,,,,,,,,,,,,,,,0,2,2,1,1,,,,,,,,,,,,,,,,,,,,,,,,,,,,,,,,,,,,,,,,,,,,,,
728596,001,2022-11-20_23h51.02.035,Info_measure_main_exp,2022.2.2,Win32,59.78000956,,,,,,,,,,,,,,,,,,masks/mask_005.jpg,,,,,,,,,,,,,,,,,,,,,,,,,,,,,,,,,,,,,,,,,,,0,3,3,4,1,,,,,,,,,,,,,,,,,,,,,,,,,,,,,,,,,,,,,,,,,,,,,,
728596,001,2022-11-20_23h51.02.035,Info_measure_main_exp,2022.2.2,Win32,59.78000956,,,,,,,,,,,,,,,,,,masks/mask_004.jpg,,,,,,,,,,,,,,,,,,,,,,,,,,,,,,,,,,,,,,,,,,,0,4,4,3,1,,,,,,,,,,,,,,,,,,,,,,,,,,,,,,,,,,,,,,,,,,,,,,
728596,001,2022-11-20_23h51.02.035,Info_measure_main_exp,2022.2.2,Win32,59.78000956,,,,,,,,,,,,,,,,,,masks/mask_004.jpg,,,,,,,,,,,,,,,,,,,,,,,,,,,,,,,,,,,,,,,,,,,,,,,,0,0,0,3,1,,,,,,,,,,,,,,,,,,,,,,,,,,,,,,,,,,,,,,,,,
728596,001,2022-11-20_23h51.02.035,Info_measure_main_exp,2022.2.2,Win32,59.78000956,,,,,,,,,,,,,,,,,,masks/mask_005.jpg,,,,,,,,,,,,,,,,,,,,,,,,,,,,,,,,,,,,,,,,,,,,,,,,0,1,1,4,1,,,,,,,,,,,,,,,,,,,,,,,,,,,,,,,,,,,,,,,,,
728596,001,2022-11-20_23h51.02.035,Info_measure_main_exp,2022.2.2,Win32,59.78000956,,,,,,,,,,,,,,,,,,masks/mask_003.jpg,,,,,,,,,,,,,,,,,,,,,,,,,,,,,,,,,,,,,,,,,,,,,,,,0,2,2,2,1,,,,,,,,,,,,,,,,,,,,,,,,,,,,,,,,,,,,,,,,,
728596,001,2022-11-20_23h51.02.035,Info_measure_main_exp,2022.2.2,Win32,59.78000956,,,,,,,,,,,,,,,,,,masks/mask_001.jpg,,,,,,,,,,,,,,,,,,,,,,,,,,,,,,,,,,,,,,,,,,,,,,,,0,3,3,0,1,,,,,,,,,,,,,,,,,,,,,,,,,,,,,,,,,,,,,,,,,
728596,001,2022-11-20_23h51.02.035,Info_measure_main_exp,2022.2.2,Win32,59.78000956,,,,,,,,,,,,,,,,,,masks/mask_002.jpg,,,,,,,,,,,,,,,,,,,,,,,,,,,,,,,,,,,,,,,,,,,,,,,,0,4,4,1,1,,,,,,,,,,,,,,,,,,,,,,,,,,,,,,,,,,,,,,,,,
728596,001,2022-11-20_23h51.02.035,Info_measure_main_exp,2022.2.2,Win32,59.78000956,,,,,,,,,,,,,,,,,,,,,,,,,,,,,,3,1.366,1,,,,,,,,,,,,0,131,5,5,2178,2154,absent_patch/patch0002178.jpg,absent_patch/patch0002154.jpg,,,,,,,,,,,,,,,,,,,,-0.031481496,-0.10092594,1,0,0,response5disk,34,0.002777806,-0.00462963,1,0,0,center_square,0,33,33,63,1,,,,,,,,,,,,,,,,,,,,,,,
728596,001,2022-11-20_23h51.02.035,Info_measure_main_exp,2022.2.2,Win32,59.78000956,,,,,,,,,,,,,,,,,,masks/mask_005.jpg,,,,,,,,,,,,,,,,,,,,,,,,,,,,,,,,,,,,,,,,,,,0,0,0,4,1,,,,,,,,,,,,,,,,,,,,,,,,,,,,,,,,,,,,,,,,,,,,,,
728596,001,2022-11-20_23h51.02.035,Info_measure_main_exp,2022.2.2,Win32,59.78000956,,,,,,,,,,,,,,,,,,masks/mask_004.jpg,,,,,,,,,,,,,,,,,,,,,,,,,,,,,,,,,,,,,,,,,,,0,1,1,3,1,,,,,,,,,,,,,,,,,,,,,,,,,,,,,,,,,,,,,,,,,,,,,,
728596,001,2022-11-20_23h51.02.035,Info_measure_main_exp,2022.2.2,Win32,59.78000956,,,,,,,,,,,,,,,,,,masks/mask_001.jpg,,,,,,,,,,,,,,,,,,,,,,,,,,,,,,,,,,,,,,,,,,,0,2,2,0,1,,,,,,,,,,,,,,,,,,,,,,,,,,,,,,,,,,,,,,,,,,,,,,
728596,001,2022-11-20_23h51.02.035,Info_measure_main_exp,2022.2.2,Win32,59.78000956,,,,,,,,,,,,,,,,,,masks/mask_003.jpg,,,,,,,,,,,,,,,,,,,,,,,,,,,,,,,,,,,,,,,,,,,0,3,3,2,1,,,,,,,,,,,,,,,,,,,,,,,,,,,,,,,,,,,,,,,,,,,,,,
728596,001,2022-11-20_23h51.02.035,Info_measure_main_exp,2022.2.2,Win32,59.78000956,,,,,,,,,,,,,,,,,,masks/mask_002.jpg,,,,,,,,,,,,,,,,,,,,,,,,,,,,,,,,,,,,,,,,,,,0,4,4,1,1,,,,,,,,,,,,,,,,,,,,,,,,,,,,,,,,,,,,,,,,,,,,,,
728596,001,2022-11-20_23h51.02.035,Info_measure_main_exp,2022.2.2,Win32,59.78000956,,,,,,,,,,,,,,,,,,masks/mask_002.jpg,,,,,,,,,,,,,,,,,,,,,,,,,,,,,,,,,,,,,,,,,,,,,,,,0,0,0,1,1,,,,,,,,,,,,,,,,,,,,,,,,,,,,,,,,,,,,,,,,,
728596,001,2022-11-20_23h51.02.035,Info_measure_main_exp,2022.2.2,Win32,59.78000956,,,,,,,,,,,,,,,,,,masks/mask_004.jpg,,,,,,,,,,,,,,,,,,,,,,,,,,,,,,,,,,,,,,,,,,,,,,,,0,1,1,3,1,,,,,,,,,,,,,,,,,,,,,,,,,,,,,,,,,,,,,,,,,
728596,001,2022-11-20_23h51.02.035,Info_measure_main_exp,2022.2.2,Win32,59.78000956,,,,,,,,,,,,,,,,,,masks/mask_005.jpg,,,,,,,,,,,,,,,,,,,,,,,,,,,,,,,,,,,,,,,,,,,,,,,,0,2,2,4,1,,,,,,,,,,,,,,,,,,,,,,,,,,,,,,,,,,,,,,,,,
728596,001,2022-11-20_23h51.02.035,Info_measure_main_exp,2022.2.2,Win32,59.78000956,,,,,,,,,,,,,,,,,,masks/mask_001.jpg,,,,,,,,,,,,,,,,,,,,,,,,,,,,,,,,,,,,,,,,,,,,,,,,0,3,3,0,1,,,,,,,,,,,,,,,,,,,,,,,,,,,,,,,,,,,,,,,,,
