participant,session,date,expName,psychopyVersion,OS,frameRate,space_press_continue.keys,space_press_continue.rt,space_press_continue_2.keys,space_press_continue_2.rt,space_press_continue_3.keys,space_press_continue_3.rt,space_press_continue_4.keys,space_press_continue_4.rt,space_press_continue_5.keys,space_press_continue_5.rt,space_press_continue_6.keys,space_press_continue_6.rt,prac_mask_loop_1.thisRepN,prac_mask_loop_1.thisTrialN,prac_mask_loop_1.thisN,prac_mask_loop_1.thisIndex,prac_mask_loop_1.ran,mask_name,prac_mask_loop_2.thisRepN,prac_mask_loop_2.thisTrialN,prac_mask_loop_2.thisN,prac_mask_loop_2.thisIndex,prac_mask_loop_2.ran,mouse_2.x,mouse_2.y,mouse_2.leftButton,mouse_2.midButton,mouse_2.rightButton,mouse_2.clicked_name,similarity,response_time,Pass,mouse_12.x,mouse_12.y,mouse_12.leftButton,mouse_12.midButton,mouse_12.rightButton,mouse_12.clicked_name,prac_loop.thisRepN,prac_loop.thisTrialN,prac_loop.thisN,prac_loop.thisIndex,prac_loop.ran,Pair_type,Image_num,Patch_1_loc,Patch_2_loc,Patch_1_info,Patch_2_info,Patch_1_name,Patch_2_name,mouse_1.x,mouse_1.y,mouse_1.leftButton,mouse_1.midButton,mouse_1.rightButton,mouse_1.time,mouse_1.clicked_name,space_press_continue_7.keys,space_press_continue_7.rt,mask_loop.thisRepN,mask_loop.thisTrialN,mask_loop.thisN,mask_loop.thisIndex,mask_loop.ran,mask_loop_2.thisRepN,mask_loop_2.thisTrialN,mask_loop_2.thisN,mask_loop_2.thisIndex,mask_loop_2.ran,mouse.x,mouse.y,mouse.leftButton,mouse.midButton,mouse.rightButton,mouse.clicked_name,trialNumber,mouse_11.x,mouse_11.y,mouse_11.leftButton,mouse_11.midButton,mouse_11.rightButton,mouse_11.clicked_name,first_pass_loop.thisRepN,first_pass_loop.thisTrialN,first_pass_loop.thisN,first_pass_loop.thisIndex,first_pass_loop.ran,mask_loop_3.thisRepN,mask_loop_3.thisTrialN,mask_loop_3.thisN,mask_loop_3.thisIndex,mask_loop_3.ran,mask_loop_4.thisRepN,mask_loop_4.thisTrialN,mask_loop_4.thisN,mask_loop_4.thisIndex,mask_loop_4.ran,mouse_3.x,mouse_3.y,mouse_3.leftButton,mouse_3.midButton,mouse_3.rightButton,mouse_3.clicked_name,double_pass_loop.thisRepN,double_pass_loop.thisTrialN,double_pass_loop.thisN,double_pass_loop.thisIndex,double_pass_loop.ran,space_exit.keys,space_exit.rt
734095,001,2022-11-21_01h59.33.825,Info_measure_main_exp,2022.2.2,Win32,58.48295222,,,,,,,,,,,,,,,,,,,,,,,,,,,,,,,,,,,,,,,,,,,,,,,,,,,,,,,,,,,,,,,,,,,,,,,,,,,,,,,,,,,,,,,,,,,,,,,,,,,,,,,,,,,,,,,
734095,001,2022-11-21_01h59.33.825,Info_measure_main_exp,2022.2.2,Win32,58.48295222,,,,,,,,,,,,,,,,,,,,,,,,,,,,,,,,,,,,,,,,,,,,,,,,,,,,,,,,,,,,,,,,,,,,,,,,,,,,,,,,,,,,,,,,,,,,,,,,,,,,,,,,,,,,,,,
734095,001,2022-11-21_01h59.33.825,Info_measure_main_exp,2022.2.2,Win32,58.48295222,space,15.5613,,,,,,,,,,,,,,,,,,,,,,,,,,,,,,,,,,,,,,,,,,,,,,,,,,,,,,,,,,,,,,,,,,,,,,,,,,,,,,,,,,,,,,,,,,,,,,,,,,,,,,,,,,,,,
734095,001,2022-11-21_01h59.33.825,Info_measure_main_exp,2022.2.2,Win32,58.48295222,,,space,23.3068,,,,,,,,,,,,,,,,,,,,,,,,,,,,,,,,,,,,,,,,,,,,,,,,,,,,,,,,,,,,,,,,,,,,,,,,,,,,,,,,,,,,,,,,,,,,,,,,,,,,,,,,,,,
734095,001,2022-11-21_01h59.33.825,Info_measure_main_exp,2022.2.2,Win32,58.48295222,,,,,space,14.3048,,,,,,,,,,,,,,,,,,,,,,,,,,,,,,,,,,,,,,,,,,,,,,,,,,,,,,,,,,,,,,,,,,,,,,,,,,,,,,,,,,,,,,,,,,,,,,,,,,,,,,,,,
734095,001,2022-11-21_01h59.33.825,Info_measure_main_exp,2022.2.2,Win32,58.48295222,,,,,,,space,34.7346,,,,,,,,,,,,,,,,,,,,,,,,,,,,,,,,,,,,,,,,,,,,,,,,,,,,,,,,,,,,,,,,,,,,,,,,,,,,,,,,,,,,,,,,,,,,,,,,,,,,,,,
734095,001,2022-11-21_01h59.33.825,Info_measure_main_exp,2022.2.2,Win32,58.48295222,,,,,,,,,space,16.8627,,,,,,,,,,,,,,,,,,,,,,,,,,,,,,,,,,,,,,,,,,,,,,,,,,,,,,,,,,,,,,,,,,,,,,,,,,,,,,,,,,,,,,,,,,,,,,,,,,,,,
734095,001,2022-11-21_01h59.33.825,Info_measure_main_exp,2022.2.2,Win32,58.48295222,,,,,,,,,,,space,7.4869,,,,,,,,,,,,,,,,,,,,,,,,,,,,,,,,,,,,,,,,,,,,,,,,,,,,,,,,,,,,,,,,,,,,,,,,,,,,,,,,,,,,,,,,,,,,,,,,,,,
734095,001,2022-11-21_01h59.33.825,Info_measure_main_exp,2022.2.2,Win32,58.48295222,,,,,,,,,,,,,0,0,0,3,1,masks/mask_004.jpg,,,,,,,,,,,,,,,,,,,,,,,,,,,,,,,,,,,,,,,,,,,,,,,,,,,,,,,,,,,,,,,,,,,,,,,,,,,,,,,,,,,,,,,,,,,,,
734095,001,2022-11-21_01h59.33.825,Info_measure_main_exp,2022.2.2,Win32,58.48295222,,,,,,,,,,,,,0,1,1,2,1,masks/mask_003.jpg,,,,,,,,,,,,,,,,,,,,,,,,,,,,,,,,,,,,,,,,,,,,,,,,,,,,,,,,,,,,,,,,,,,,,,,,,,,,,,,,,,,,,,,,,,,,,
734095,001,2022-11-21_01h59.33.825,Info_measure_main_exp,2022.2.2,Win32,58.48295222,,,,,,,,,,,,,0,2,2,1,1,masks/mask_002.jpg,,,,,,,,,,,,,,,,,,,,,,,,,,,,,,,,,,,,,,,,,,,,,,,,,,,,,,,,,,,,,,,,,,,,,,,,,,,,,,,,,,,,,,,,,,,,,
734095,001,2022-11-21_01h59.33.825,Info_measure_main_exp,2022.2.2,Win32,58.48295222,,,,,,,,,,,,,0,3,3,0,1,masks/mask_001.jpg,,,,,,,,,,,,,,,,,,,,,,,,,,,,,,,,,,,,,,,,,,,,,,,,,,,,,,,,,,,,,,,,,,,,,,,,,,,,,,,,,,,,,,,,,,,,,
734095,001,2022-11-21_01h59.33.825,Info_measure_main_exp,2022.2.2,Win32,58.48295222,,,,,,,,,,,,,0,4,4,4,1,masks/mask_005.jpg,,,,,,,,,,,,,,,,,,,,,,,,,,,,,,,,,,,,,,,,,,,,,,,,,,,,,,,,,,,,,,,,,,,,,,,,,,,,,,,,,,,,,,,,,,,,,
734095,001,2022-11-21_01h59.33.825,Info_measure_main_exp,2022.2.2,Win32,58.48295222,,,,,,,,,,,,,,,,,,masks/mask_001.jpg,0,0,0,0,1,,,,,,,,,,,,,,,,,,,,,,,,,,,,,,,,,,,,,,,,,,,,,,,,,,,,,,,,,,,,,,,,,,,,,,,,,,,,,,,,,,,,,,,,
734095,001,2022-11-21_01h59.33.825,Info_measure_main_exp,2022.2.2,Win32,58.48295222,,,,,,,,,,,,,,,,,,masks/mask_002.jpg,0,1,1,1,1,,,,,,,,,,,,,,,,,,,,,,,,,,,,,,,,,,,,,,,,,,,,,,,,,,,,,,,,,,,,,,,,,,,,,,,,,,,,,,,,,,,,,,,,
734095,001,2022-11-21_01h59.33.825,Info_measure_main_exp,2022.2.2,Win32,58.48295222,,,,,,,,,,,,,,,,,,masks/mask_005.jpg,0,2,2,4,1,,,,,,,,,,,,,,,,,,,,,,,,,,,,,,,,,,,,,,,,,,,,,,,,,,,,,,,,,,,,,,,,,,,,,,,,,,,,,,,,,,,,,,,,
734095,001,2022-11-21_01h59.33.825,Info_measure_main_exp,2022.2.2,Win32,58.48295222,,,,,,,,,,,,,,,,,,masks/mask_003.jpg,0,3,3,2,1,,,,,,,,,,,,,,,,,,,,,,,,,,,,,,,,,,,,,,,,,,,,,,,,,,,,,,,,,,,,,,,,,,,,,,,,,,,,,,,,,,,,,,,,
734095,001,2022-11-21_01h59.33.825,Info_measure_main_exp,2022.2.2,Win32,58.48295222,,,,,,,,,,,,,,,,,,masks/mask_004.jpg,0,4,4,3,1,,,,,,,,,,,,,,,,,,,,,,,,,,,,,,,,,,,,,,,,,,,,,,,,,,,,,,,,,,,,,,,,,,,,,,,,,,,,,,,,,,,,,,,,
734095,001,2022-11-21_01h59.33.825,Info_measure_main_exp,2022.2.2,Win32,58.48295222,,,,,,,,,,,,,,,,,,,,,,,,0.048177083,0.111979167,1,0,0,response1disk,7,120.7301,1,-0.0078125,0.01171875,1,0,0,center_square,0,0,0,1,1,0,131,5,5,2514,2490,prac_patch/patch0002514.jpg,prac_patch/patch0002490.jpg,,,,,,,,,,,,,,,,,,,,,,,,,,,,,,,,,,,,,,,,,,,,,,,,,,,,,,,,,,,,
734095,001,2022-11-21_01h59.33.825,Info_measure_main_exp,2022.2.2,Win32,58.48295222,,,,,,,,,,,,,0,0,0,2,1,masks/mask_003.jpg,,,,,,,,,,,,,,,,,,,,,,,,,,,,,,,,,,,,,,,,,,,,,,,,,,,,,,,,,,,,,,,,,,,,,,,,,,,,,,,,,,,,,,,,,,,,,
734095,001,2022-11-21_01h59.33.825,Info_measure_main_exp,2022.2.2,Win32,58.48295222,,,,,,,,,,,,,0,1,1,4,1,masks/mask_005.jpg,,,,,,,,,,,,,,,,,,,,,,,,,,,,,,,,,,,,,,,,,,,,,,,,,,,,,,,,,,,,,,,,,,,,,,,,,,,,,,,,,,,,,,,,,,,,,
734095,001,2022-11-21_01h59.33.825,Info_measure_main_exp,2022.2.2,Win32,58.48295222,,,,,,,,,,,,,0,2,2,1,1,masks/mask_002.jpg,,,,,,,,,,,,,,,,,,,,,,,,,,,,,,,,,,,,,,,,,,,,,,,,,,,,,,,,,,,,,,,,,,,,,,,,,,,,,,,,,,,,,,,,,,,,,
734095,001,2022-11-21_01h59.33.825,Info_measure_main_exp,2022.2.2,Win32,58.48295222,,,,,,,,,,,,,0,3,3,0,1,masks/mask_001.jpg,,,,,,,,,,,,,,,,,,,,,,,,,,,,,,,,,,,,,,,,,,,,,,,,,,,,,,,,,,,,,,,,,,,,,,,,,,,,,,,,,,,,,,,,,,,,,
734095,001,2022-11-21_01h59.33.825,Info_measure_main_exp,2022.2.2,Win32,58.48295222,,,,,,,,,,,,,0,4,4,3,1,masks/mask_004.jpg,,,,,,,,,,,,,,,,,,,,,,,,,,,,,,,,,,,,,,,,,,,,,,,,,,,,,,,,,,,,,,,,,,,,,,,,,,,,,,,,,,,,,,,,,,,,,
734095,001,2022-11-21_01h59.33.825,Info_measure_main_exp,2022.2.2,Win32,58.48295222,,,,,,,,,,,,,,,,,,masks/mask_001.jpg,0,0,0,0,1,,,,,,,,,,,,,,,,,,,,,,,,,,,,,,,,,,,,,,,,,,,,,,,,,,,,,,,,,,,,,,,,,,,,,,,,,,,,,,,,,,,,,,,,
734095,001,2022-11-21_01h59.33.825,Info_measure_main_exp,2022.2.2,Win32,58.48295222,,,,,,,,,,,,,,,,,,masks/mask_004.jpg,0,1,1,3,1,,,,,,,,,,,,,,,,,,,,,,,,,,,,,,,,,,,,,,,,,,,,,,,,,,,,,,,,,,,,,,,,,,,,,,,,,,,,,,,,,,,,,,,,
734095,001,2022-11-21_01h59.33.825,Info_measure_main_exp,2022.2.2,Win32,58.48295222,,,,,,,,,,,,,,,,,,masks/mask_002.jpg,0,2,2,1,1,,,,,,,,,,,,,,,,,,,,,,,,,,,,,,,,,,,,,,,,,,,,,,,,,,,,,,,,,,,,,,,,,,,,,,,,,,,,,,,,,,,,,,,,
734095,001,2022-11-21_01h59.33.825,Info_measure_main_exp,2022.2.2,Win32,58.48295222,,,,,,,,,,,,,,,,,,masks/mask_003.jpg,0,3,3,2,1,,,,,,,,,,,,,,,,,,,,,,,,,,,,,,,,,,,,,,,,,,,,,,,,,,,,,,,,,,,,,,,,,,,,,,,,,,,,,,,,,,,,,,,,
734095,001,2022-11-21_01h59.33.825,Info_measure_main_exp,2022.2.2,Win32,58.48295222,,,,,,,,,,,,,,,,,,masks/mask_005.jpg,0,4,4,4,1,,,,,,,,,,,,,,,,,,,,,,,,,,,,,,,,,,,,,,,,,,,,,,,,,,,,,,,,,,,,,,,,,,,,,,,,,,,,,,,,,,,,,,,,
734095,001,2022-11-21_01h59.33.825,Info_measure_main_exp,2022.2.2,Win32,58.48295222,,,,,,,,,,,,,,,,,,,,,,,,-0.055989583,0.088541667,1,0,0,response7disk,0,137.8406,1,-0.00390625,0.009114583,1,0,0,center_square,0,1,1,2,1,0,131,5,5,2526,2526,prac_patch/patch0002526.jpg,prac_patch/patch0002526.jpg,,,,,,,,,,,,,,,,,,,,,,,,,,,,,,,,,,,,,,,,,,,,,,,,,,,,,,,,,,,,
734095,001,2022-11-21_01h59.33.825,Info_measure_main_exp,2022.2.2,Win32,58.48295222,,,,,,,,,,,,,0,0,0,1,1,masks/mask_002.jpg,,,,,,,,,,,,,,,,,,,,,,,,,,,,,,,,,,,,,,,,,,,,,,,,,,,,,,,,,,,,,,,,,,,,,,,,,,,,,,,,,,,,,,,,,,,,,
734095,001,2022-11-21_01h59.33.825,Info_measure_main_exp,2022.2.2,Win32,58.48295222,,,,,,,,,,,,,0,1,1,3,1,masks/mask_004.jpg,,,,,,,,,,,,,,,,,,,,,,,,,,,,,,,,,,,,,,,,,,,,,,,,,,,,,,,,,,,,,,,,,,,,,,,,,,,,,,,,,,,,,,,,,,,,,
734095,001,2022-11-21_01h59.33.825,Info_measure_main_exp,2022.2.2,Win32,58.48295222,,,,,,,,,,,,,0,2,2,0,1,masks/mask_001.jpg,,,,,,,,,,,,,,,,,,,,,,,,,,,,,,,,,,,,,,,,,,,,,,,,,,,,,,,,,,,,,,,,,,,,,,,,,,,,,,,,,,,,,,,,,,,,,
734095,001,2022-11-21_01h59.33.825,Info_measure_main_exp,2022.2.2,Win32,58.48295222,,,,,,,,,,,,,0,3,3,2,1,masks/mask_003.jpg,,,,,,,,,,,,,,,,,,,,,,,,,,,,,,,,,,,,,,,,,,,,,,,,,,,,,,,,,,,,,,,,,,,,,,,,,,,,,,,,,,,,,,,,,,,,,
734095,001,2022-11-21_01h59.33.825,Info_measure_main_exp,2022.2.2,Win32,58.48295222,,,,,,,,,,,,,0,4,4,4,1,masks/mask_005.jpg,,,,,,,,,,,,,,,,,,,,,,,,,,,,,,,,,,,,,,,,,,,,,,,,,,,,,,,,,,,,,,,,,,,,,,,,,,,,,,,,,,,,,,,,,,,,,
734095,001,2022-11-21_01h59.33.825,Info_measure_main_exp,2022.2.2,Win32,58.48295222,,,,,,,,,,,,,,,,,,masks/mask_005.jpg,0,0,0,4,1,,,,,,,,,,,,,,,,,,,,,,,,,,,,,,,,,,,,,,,,,,,,,,,,,,,,,,,,,,,,,,,,,,,,,,,,,,,,,,,,,,,,,,,,
734095,001,2022-11-21_01h59.33.825,Info_measure_main_exp,2022.2.2,Win32,58.48295222,,,,,,,,,,,,,,,,,,masks/mask_001.jpg,0,1,1,0,1,,,,,,,,,,,,,,,,,,,,,,,,,,,,,,,,,,,,,,,,,,,,,,,,,,,,,,,,,,,,,,,,,,,,,,,,,,,,,,,,,,,,,,,,
734095,001,2022-11-21_01h59.33.825,Info_measure_main_exp,2022.2.2,Win32,58.48295222,,,,,,,,,,,,,,,,,,masks/mask_003.jpg,0,2,2,2,1,,,,,,,,,,,,,,,,,,,,,,,,,,,,,,,,,,,,,,,,,,,,,,,,,,,,,,,,,,,,,,,,,,,,,,,,,,,,,,,,,,,,,,,,
734095,001,2022-11-21_01h59.33.825,Info_measure_main_exp,2022.2.2,Win32,58.48295222,,,,,,,,,,,,,,,,,,masks/mask_004.jpg,0,3,3,3,1,,,,,,,,,,,,,,,,,,,,,,,,,,,,,,,,,,,,,,,,,,,,,,,,,,,,,,,,,,,,,,,,,,,,,,,,,,,,,,,,,,,,,,,,
734095,001,2022-11-21_01h59.33.825,Info_measure_main_exp,2022.2.2,Win32,58.48295222,,,,,,,,,,,,,,,,,,masks/mask_002.jpg,0,4,4,1,1,,,,,,,,,,,,,,,,,,,,,,,,,,,,,,,,,,,,,,,,,,,,,,,,,,,,,,,,,,,,,,,,,,,,,,,,,,,,,,,,,,,,,,,,
734095,001,2022-11-21_01h59.33.825,Info_measure_main_exp,2022.2.2,Win32,58.48295222,,,,,,,,,,,,,,,,,,,,,,,,0.092447917,0.0546875,1,0,0,response1disk,6,150.9664,1,-0.005208333,0.01171875,1,0,0,center_square,0,2,2,0,1,0,131,5,5,2370,2406,prac_patch/patch0002370.jpg,prac_patch/patch0002406.jpg,,,,,,,,,,,,,,,,,,,,,,,,,,,,,,,,,,,,,,,,,,,,,,,,,,,,,,,,,,,,
734095,001,2022-11-21_01h59.33.825,Info_measure_main_exp,2022.2.2,Win32,58.48295222,,,,,,,,,,,,,,,,,,,,,,,,,,,,,,,,,,,,,,,,,,,,,,,,,,,,,,,,,,,space,4.3558,,,,,,,,,,,,,,,,,,,,,,,,,,,,,,,,,,,,,,,,,,,,,,,,,,,
734095,001,2022-11-21_01h59.33.825,Info_measure_main_exp,2022.2.2,Win32,58.48295222,,,,,,,,,,,,,,,,,,masks/mask_004.jpg,,,,,,,,,,,,,,,,,,,,,,,,,,,,,,,,,,,,,,,,,,,0,0,0,3,1,,,,,,,,,,,,,,,,,,,,,,,,,,,,,,,,,,,,,,,,,,,,,,
734095,001,2022-11-21_01h59.33.825,Info_measure_main_exp,2022.2.2,Win32,58.48295222,,,,,,,,,,,,,,,,,,masks/mask_005.jpg,,,,,,,,,,,,,,,,,,,,,,,,,,,,,,,,,,,,,,,,,,,0,1,1,4,1,,,,,,,,,,,,,,,,,,,,,,,,,,,,,,,,,,,,,,,,,,,,,,
734095,001,2022-11-21_01h59.33.825,Info_measure_main_exp,2022.2.2,Win32,58.48295222,,,,,,,,,,,,,,,,,,masks/mask_002.jpg,,,,,,,,,,,,,,,,,,,,,,,,,,,,,,,,,,,,,,,,,,,0,2,2,1,1,,,,,,,,,,,,,,,,,,,,,,,,,,,,,,,,,,,,,,,,,,,,,,
734095,001,2022-11-21_01h59.33.825,Info_measure_main_exp,2022.2.2,Win32,58.48295222,,,,,,,,,,,,,,,,,,masks/mask_001.jpg,,,,,,,,,,,,,,,,,,,,,,,,,,,,,,,,,,,,,,,,,,,0,3,3,0,1,,,,,,,,,,,,,,,,,,,,,,,,,,,,,,,,,,,,,,,,,,,,,,
734095,001,2022-11-21_01h59.33.825,Info_measure_main_exp,2022.2.2,Win32,58.48295222,,,,,,,,,,,,,,,,,,masks/mask_003.jpg,,,,,,,,,,,,,,,,,,,,,,,,,,,,,,,,,,,,,,,,,,,0,4,4,2,1,,,,,,,,,,,,,,,,,,,,,,,,,,,,,,,,,,,,,,,,,,,,,,
734095,001,2022-11-21_01h59.33.825,Info_measure_main_exp,2022.2.2,Win32,58.48295222,,,,,,,,,,,,,,,,,,masks/mask_003.jpg,,,,,,,,,,,,,,,,,,,,,,,,,,,,,,,,,,,,,,,,,,,,,,,,0,0,0,2,1,,,,,,,,,,,,,,,,,,,,,,,,,,,,,,,,,,,,,,,,,
734095,001,2022-11-21_01h59.33.825,Info_measure_main_exp,2022.2.2,Win32,58.48295222,,,,,,,,,,,,,,,,,,masks/mask_001.jpg,,,,,,,,,,,,,,,,,,,,,,,,,,,,,,,,,,,,,,,,,,,,,,,,0,1,1,0,1,,,,,,,,,,,,,,,,,,,,,,,,,,,,,,,,,,,,,,,,,
734095,001,2022-11-21_01h59.33.825,Info_measure_main_exp,2022.2.2,Win32,58.48295222,,,,,,,,,,,,,,,,,,masks/mask_002.jpg,,,,,,,,,,,,,,,,,,,,,,,,,,,,,,,,,,,,,,,,,,,,,,,,0,2,2,1,1,,,,,,,,,,,,,,,,,,,,,,,,,,,,,,,,,,,,,,,,,
734095,001,2022-11-21_01h59.33.825,Info_measure_main_exp,2022.2.2,Win32,58.48295222,,,,,,,,,,,,,,,,,,masks/mask_005.jpg,,,,,,,,,,,,,,,,,,,,,,,,,,,,,,,,,,,,,,,,,,,,,,,,0,3,3,4,1,,,,,,,,,,,,,,,,,,,,,,,,,,,,,,,,,,,,,,,,,
734095,001,2022-11-21_01h59.33.825,Info_measure_main_exp,2022.2.2,Win32,58.48295222,,,,,,,,,,,,,,,,,,masks/mask_004.jpg,,,,,,,,,,,,,,,,,,,,,,,,,,,,,,,,,,,,,,,,,,,,,,,,0,4,4,3,1,,,,,,,,,,,,,,,,,,,,,,,,,,,,,,,,,,,,,,,,,
734095,001,2022-11-21_01h59.33.825,Info_measure_main_exp,2022.2.2,Win32,58.48295222,,,,,,,,,,,,,,,,,,,,,,,,,,,,,,3,4.1097,1,,,,,,,,,,,,0,131,5,5,2298,2274,absent_patch/patch0002298.jpg,absent_patch/patch0002274.jpg,,,,,,,,,,,,,,,,,,,,-0.0625,-0.08203125,1,0,0,response5disk,1,-0.010416667,0.006510417,1,0,0,center_square,0,0,0,1,1,,,,,,,,,,,,,,,,,,,,,,,
734095,001,2022-11-21_01h59.33.825,Info_measure_main_exp,2022.2.2,Win32,58.48295222,,,,,,,,,,,,,,,,,,masks/mask_001.jpg,,,,,,,,,,,,,,,,,,,,,,,,,,,,,,,,,,,,,,,,,,,0,0,0,0,1,,,,,,,,,,,,,,,,,,,,,,,,,,,,,,,,,,,,,,,,,,,,,,
734095,001,2022-11-21_01h59.33.825,Info_measure_main_exp,2022.2.2,Win32,58.48295222,,,,,,,,,,,,,,,,,,masks/mask_005.jpg,,,,,,,,,,,,,,,,,,,,,,,,,,,,,,,,,,,,,,,,,,,0,1,1,4,1,,,,,,,,,,,,,,,,,,,,,,,,,,,,,,,,,,,,,,,,,,,,,,
734095,001,2022-11-21_01h59.33.825,Info_measure_main_exp,2022.2.2,Win32,58.48295222,,,,,,,,,,,,,,,,,,masks/mask_002.jpg,,,,,,,,,,,,,,,,,,,,,,,,,,,,,,,,,,,,,,,,,,,0,2,2,1,1,,,,,,,,,,,,,,,,,,,,,,,,,,,,,,,,,,,,,,,,,,,,,,
734095,001,2022-11-21_01h59.33.825,Info_measure_main_exp,2022.2.2,Win32,58.48295222,,,,,,,,,,,,,,,,,,masks/mask_004.jpg,,,,,,,,,,,,,,,,,,,,,,,,,,,,,,,,,,,,,,,,,,,0,3,3,3,1,,,,,,,,,,,,,,,,,,,,,,,,,,,,,,,,,,,,,,,,,,,,,,
734095,001,2022-11-21_01h59.33.825,Info_measure_main_exp,2022.2.2,Win32,58.48295222,,,,,,,,,,,,,,,,,,masks/mask_003.jpg,,,,,,,,,,,,,,,,,,,,,,,,,,,,,,,,,,,,,,,,,,,0,4,4,2,1,,,,,,,,,,,,,,,,,,,,,,,,,,,,,,,,,,,,,,,,,,,,,,
734095,001,2022-11-21_01h59.33.825,Info_measure_main_exp,2022.2.2,Win32,58.48295222,,,,,,,,,,,,,,,,,,masks/mask_001.jpg,,,,,,,,,,,,,,,,,,,,,,,,,,,,,,,,,,,,,,,,,,,,,,,,0,0,0,0,1,,,,,,,,,,,,,,,,,,,,,,,,,,,,,,,,,,,,,,,,,
734095,001,2022-11-21_01h59.33.825,Info_measure_main_exp,2022.2.2,Win32,58.48295222,,,,,,,,,,,,,,,,,,masks/mask_004.jpg,,,,,,,,,,,,,,,,,,,,,,,,,,,,,,,,,,,,,,,,,,,,,,,,0,1,1,3,1,,,,,,,,,,,,,,,,,,,,,,,,,,,,,,,,,,,,,,,,,
734095,001,2022-11-21_01h59.33.825,Info_measure_main_exp,2022.2.2,Win32,58.48295222,,,,,,,,,,,,,,,,,,masks/mask_002.jpg,,,,,,,,,,,,,,,,,,,,,,,,,,,,,,,,,,,,,,,,,,,,,,,,0,2,2,1,1,,,,,,,,,,,,,,,,,,,,,,,,,,,,,,,,,,,,,,,,,
734095,001,2022-11-21_01h59.33.825,Info_measure_main_exp,2022.2.2,Win32,58.48295222,,,,,,,,,,,,,,,,,,masks/mask_005.jpg,,,,,,,,,,,,,,,,,,,,,,,,,,,,,,,,,,,,,,,,,,,,,,,,0,3,3,4,1,,,,,,,,,,,,,,,,,,,,,,,,,,,,,,,,,,,,,,,,,
734095,001,2022-11-21_01h59.33.825,Info_measure_main_exp,2022.2.2,Win32,58.48295222,,,,,,,,,,,,,,,,,,masks/mask_003.jpg,,,,,,,,,,,,,,,,,,,,,,,,,,,,,,,,,,,,,,,,,,,,,,,,0,4,4,2,1,,,,,,,,,,,,,,,,,,,,,,,,,,,,,,,,,,,,,,,,,
734095,001,2022-11-21_01h59.33.825,Info_measure_main_exp,2022.2.2,Win32,58.48295222,,,,,,,,,,,,,,,,,,,,,,,,,,,,,,0,1.2836,1,,,,,,,,,,,,0,131,5,5,2298,2298,absent_patch/patch0002298.jpg,absent_patch/patch0002298.jpg,,,,,,,,,,,,,,,,,,,,-0.03515625,0.069010417,1,0,0,response7disk,2,-0.010416667,0.014322917,0,0,1,center_square,0,1,1,37,1,,,,,,,,,,,,,,,,,,,,,,,
734095,001,2022-11-21_01h59.33.825,Info_measure_main_exp,2022.2.2,Win32,58.48295222,,,,,,,,,,,,,,,,,,masks/mask_003.jpg,,,,,,,,,,,,,,,,,,,,,,,,,,,,,,,,,,,,,,,,,,,0,0,0,2,1,,,,,,,,,,,,,,,,,,,,,,,,,,,,,,,,,,,,,,,,,,,,,,
734095,001,2022-11-21_01h59.33.825,Info_measure_main_exp,2022.2.2,Win32,58.48295222,,,,,,,,,,,,,,,,,,masks/mask_002.jpg,,,,,,,,,,,,,,,,,,,,,,,,,,,,,,,,,,,,,,,,,,,0,1,1,1,1,,,,,,,,,,,,,,,,,,,,,,,,,,,,,,,,,,,,,,,,,,,,,,
734095,001,2022-11-21_01h59.33.825,Info_measure_main_exp,2022.2.2,Win32,58.48295222,,,,,,,,,,,,,,,,,,masks/mask_004.jpg,,,,,,,,,,,,,,,,,,,,,,,,,,,,,,,,,,,,,,,,,,,0,2,2,3,1,,,,,,,,,,,,,,,,,,,,,,,,,,,,,,,,,,,,,,,,,,,,,,
734095,001,2022-11-21_01h59.33.825,Info_measure_main_exp,2022.2.2,Win32,58.48295222,,,,,,,,,,,,,,,,,,masks/mask_001.jpg,,,,,,,,,,,,,,,,,,,,,,,,,,,,,,,,,,,,,,,,,,,0,3,3,0,1,,,,,,,,,,,,,,,,,,,,,,,,,,,,,,,,,,,,,,,,,,,,,,
734095,001,2022-11-21_01h59.33.825,Info_measure_main_exp,2022.2.2,Win32,58.48295222,,,,,,,,,,,,,,,,,,masks/mask_005.jpg,,,,,,,,,,,,,,,,,,,,,,,,,,,,,,,,,,,,,,,,,,,0,4,4,4,1,,,,,,,,,,,,,,,,,,,,,,,,,,,,,,,,,,,,,,,,,,,,,,
734095,001,2022-11-21_01h59.33.825,Info_measure_main_exp,2022.2.2,Win32,58.48295222,,,,,,,,,,,,,,,,,,masks/mask_004.jpg,,,,,,,,,,,,,,,,,,,,,,,,,,,,,,,,,,,,,,,,,,,,,,,,0,0,0,3,1,,,,,,,,,,,,,,,,,,,,,,,,,,,,,,,,,,,,,,,,,
734095,001,2022-11-21_01h59.33.825,Info_measure_main_exp,2022.2.2,Win32,58.48295222,,,,,,,,,,,,,,,,,,masks/mask_003.jpg,,,,,,,,,,,,,,,,,,,,,,,,,,,,,,,,,,,,,,,,,,,,,,,,0,1,1,2,1,,,,,,,,,,,,,,,,,,,,,,,,,,,,,,,,,,,,,,,,,
734095,001,2022-11-21_01h59.33.825,Info_measure_main_exp,2022.2.2,Win32,58.48295222,,,,,,,,,,,,,,,,,,masks/mask_005.jpg,,,,,,,,,,,,,,,,,,,,,,,,,,,,,,,,,,,,,,,,,,,,,,,,0,2,2,4,1,,,,,,,,,,,,,,,,,,,,,,,,,,,,,,,,,,,,,,,,,
734095,001,2022-11-21_01h59.33.825,Info_measure_main_exp,2022.2.2,Win32,58.48295222,,,,,,,,,,,,,,,,,,masks/mask_002.jpg,,,,,,,,,,,,,,,,,,,,,,,,,,,,,,,,,,,,,,,,,,,,,,,,0,3,3,1,1,,,,,,,,,,,,,,,,,,,,,,,,,,,,,,,,,,,,,,,,,
734095,001,2022-11-21_01h59.33.825,Info_measure_main_exp,2022.2.2,Win32,58.48295222,,,,,,,,,,,,,,,,,,masks/mask_001.jpg,,,,,,,,,,,,,,,,,,,,,,,,,,,,,,,,,,,,,,,,,,,,,,,,0,4,4,0,1,,,,,,,,,,,,,,,,,,,,,,,,,,,,,,,,,,,,,,,,,
734095,001,2022-11-21_01h59.33.825,Info_measure_main_exp,2022.2.2,Win32,58.48295222,,,,,,,,,,,,,,,,,,,,,,,,,,,,,,4,3.4032,1,,,,,,,,,,,,0,131,5,5,2154,2154,absent_patch/patch0002154.jpg,absent_patch/patch0002154.jpg,,,,,,,,,,,,,,,,,,,,0.046875,-0.178385417,1,0,0,response3disk,3,-0.010416667,0.01171875,1,0,0,center_square,0,2,2,89,1,,,,,,,,,,,,,,,,,,,,,,,
734095,001,2022-11-21_01h59.33.825,Info_measure_main_exp,2022.2.2,Win32,58.48295222,,,,,,,,,,,,,,,,,,masks/mask_003.jpg,,,,,,,,,,,,,,,,,,,,,,,,,,,,,,,,,,,,,,,,,,,0,0,0,2,1,,,,,,,,,,,,,,,,,,,,,,,,,,,,,,,,,,,,,,,,,,,,,,
734095,001,2022-11-21_01h59.33.825,Info_measure_main_exp,2022.2.2,Win32,58.48295222,,,,,,,,,,,,,,,,,,masks/mask_004.jpg,,,,,,,,,,,,,,,,,,,,,,,,,,,,,,,,,,,,,,,,,,,0,1,1,3,1,,,,,,,,,,,,,,,,,,,,,,,,,,,,,,,,,,,,,,,,,,,,,,
734095,001,2022-11-21_01h59.33.825,Info_measure_main_exp,2022.2.2,Win32,58.48295222,,,,,,,,,,,,,,,,,,masks/mask_001.jpg,,,,,,,,,,,,,,,,,,,,,,,,,,,,,,,,,,,,,,,,,,,0,2,2,0,1,,,,,,,,,,,,,,,,,,,,,,,,,,,,,,,,,,,,,,,,,,,,,,
734095,001,2022-11-21_01h59.33.825,Info_measure_main_exp,2022.2.2,Win32,58.48295222,,,,,,,,,,,,,,,,,,masks/mask_002.jpg,,,,,,,,,,,,,,,,,,,,,,,,,,,,,,,,,,,,,,,,,,,0,3,3,1,1,,,,,,,,,,,,,,,,,,,,,,,,,,,,,,,,,,,,,,,,,,,,,,
734095,001,2022-11-21_01h59.33.825,Info_measure_main_exp,2022.2.2,Win32,58.48295222,,,,,,,,,,,,,,,,,,masks/mask_005.jpg,,,,,,,,,,,,,,,,,,,,,,,,,,,,,,,,,,,,,,,,,,,0,4,4,4,1,,,,,,,,,,,,,,,,,,,,,,,,,,,,,,,,,,,,,,,,,,,,,,
734095,001,2022-11-21_01h59.33.825,Info_measure_main_exp,2022.2.2,Win32,58.48295222,,,,,,,,,,,,,,,,,,masks/mask_002.jpg,,,,,,,,,,,,,,,,,,,,,,,,,,,,,,,,,,,,,,,,,,,,,,,,0,0,0,1,1,,,,,,,,,,,,,,,,,,,,,,,,,,,,,,,,,,,,,,,,,
734095,001,2022-11-21_01h59.33.825,Info_measure_main_exp,2022.2.2,Win32,58.48295222,,,,,,,,,,,,,,,,,,masks/mask_005.jpg,,,,,,,,,,,,,,,,,,,,,,,,,,,,,,,,,,,,,,,,,,,,,,,,0,1,1,4,1,,,,,,,,,,,,,,,,,,,,,,,,,,,,,,,,,,,,,,,,,
734095,001,2022-11-21_01h59.33.825,Info_measure_main_exp,2022.2.2,Win32,58.48295222,,,,,,,,,,,,,,,,,,masks/mask_001.jpg,,,,,,,,,,,,,,,,,,,,,,,,,,,,,,,,,,,,,,,,,,,,,,,,0,2,2,0,1,,,,,,,,,,,,,,,,,,,,,,,,,,,,,,,,,,,,,,,,,
734095,001,2022-11-21_01h59.33.825,Info_measure_main_exp,2022.2.2,Win32,58.48295222,,,,,,,,,,,,,,,,,,masks/mask_003.jpg,,,,,,,,,,,,,,,,,,,,,,,,,,,,,,,,,,,,,,,,,,,,,,,,0,3,3,2,1,,,,,,,,,,,,,,,,,,,,,,,,,,,,,,,,,,,,,,,,,
734095,001,2022-11-21_01h59.33.825,Info_measure_main_exp,2022.2.2,Win32,58.48295222,,,,,,,,,,,,,,,,,,masks/mask_004.jpg,,,,,,,,,,,,,,,,,,,,,,,,,,,,,,,,,,,,,,,,,,,,,,,,0,4,4,3,1,,,,,,,,,,,,,,,,,,,,,,,,,,,,,,,,,,,,,,,,,
734095,001,2022-11-21_01h59.33.825,Info_measure_main_exp,2022.2.2,Win32,58.48295222,,,,,,,,,,,,,,,,,,,,,,,,,,,,,,0,1.1341,1,,,,,,,,,,,,0,131,5,5,2250,2250,absent_patch/patch0002250.jpg,absent_patch/patch0002250.jpg,,,,,,,,,,,,,,,,,,,,-0.036458333,0.096354167,1,0,0,response7disk,4,-0.010416667,0.009114583,1,0,0,center_square,0,3,3,56,1,,,,,,,,,,,,,,,,,,,,,,,
734095,001,2022-11-21_01h59.33.825,Info_measure_main_exp,2022.2.2,Win32,58.48295222,,,,,,,,,,,,,,,,,,masks/mask_002.jpg,,,,,,,,,,,,,,,,,,,,,,,,,,,,,,,,,,,,,,,,,,,0,0,0,1,1,,,,,,,,,,,,,,,,,,,,,,,,,,,,,,,,,,,,,,,,,,,,,,
734095,001,2022-11-21_01h59.33.825,Info_measure_main_exp,2022.2.2,Win32,58.48295222,,,,,,,,,,,,,,,,,,masks/mask_004.jpg,,,,,,,,,,,,,,,,,,,,,,,,,,,,,,,,,,,,,,,,,,,0,1,1,3,1,,,,,,,,,,,,,,,,,,,,,,,,,,,,,,,,,,,,,,,,,,,,,,
734095,001,2022-11-21_01h59.33.825,Info_measure_main_exp,2022.2.2,Win32,58.48295222,,,,,,,,,,,,,,,,,,masks/mask_003.jpg,,,,,,,,,,,,,,,,,,,,,,,,,,,,,,,,,,,,,,,,,,,0,2,2,2,1,,,,,,,,,,,,,,,,,,,,,,,,,,,,,,,,,,,,,,,,,,,,,,
734095,001,2022-11-21_01h59.33.825,Info_measure_main_exp,2022.2.2,Win32,58.48295222,,,,,,,,,,,,,,,,,,masks/mask_001.jpg,,,,,,,,,,,,,,,,,,,,,,,,,,,,,,,,,,,,,,,,,,,0,3,3,0,1,,,,,,,,,,,,,,,,,,,,,,,,,,,,,,,,,,,,,,,,,,,,,,
734095,001,2022-11-21_01h59.33.825,Info_measure_main_exp,2022.2.2,Win32,58.48295222,,,,,,,,,,,,,,,,,,masks/mask_005.jpg,,,,,,,,,,,,,,,,,,,,,,,,,,,,,,,,,,,,,,,,,,,0,4,4,4,1,,,,,,,,,,,,,,,,,,,,,,,,,,,,,,,,,,,,,,,,,,,,,,
734095,001,2022-11-21_01h59.33.825,Info_measure_main_exp,2022.2.2,Win32,58.48295222,,,,,,,,,,,,,,,,,,masks/mask_005.jpg,,,,,,,,,,,,,,,,,,,,,,,,,,,,,,,,,,,,,,,,,,,,,,,,0,0,0,4,1,,,,,,,,,,,,,,,,,,,,,,,,,,,,,,,,,,,,,,,,,
734095,001,2022-11-21_01h59.33.825,Info_measure_main_exp,2022.2.2,Win32,58.48295222,,,,,,,,,,,,,,,,,,masks/mask_004.jpg,,,,,,,,,,,,,,,,,,,,,,,,,,,,,,,,,,,,,,,,,,,,,,,,0,1,1,3,1,,,,,,,,,,,,,,,,,,,,,,,,,,,,,,,,,,,,,,,,,
734095,001,2022-11-21_01h59.33.825,Info_measure_main_exp,2022.2.2,Win32,58.48295222,,,,,,,,,,,,,,,,,,masks/mask_003.jpg,,,,,,,,,,,,,,,,,,,,,,,,,,,,,,,,,,,,,,,,,,,,,,,,0,2,2,2,1,,,,,,,,,,,,,,,,,,,,,,,,,,,,,,,,,,,,,,,,,
734095,001,2022-11-21_01h59.33.825,Info_measure_main_exp,2022.2.2,Win32,58.48295222,,,,,,,,,,,,,,,,,,masks/mask_002.jpg,,,,,,,,,,,,,,,,,,,,,,,,,,,,,,,,,,,,,,,,,,,,,,,,0,3,3,1,1,,,,,,,,,,,,,,,,,,,,,,,,,,,,,,,,,,,,,,,,,
734095,001,2022-11-21_01h59.33.825,Info_measure_main_exp,2022.2.2,Win32,58.48295222,,,,,,,,,,,,,,,,,,masks/mask_001.jpg,,,,,,,,,,,,,,,,,,,,,,,,,,,,,,,,,,,,,,,,,,,,,,,,0,4,4,0,1,,,,,,,,,,,,,,,,,,,,,,,,,,,,,,,,,,,,,,,,,
734095,001,2022-11-21_01h59.33.825,Info_measure_main_exp,2022.2.2,Win32,58.48295222,,,,,,,,,,,,,,,,,,,,,,,,,,,,,,5,5.0968,1,,,,,,,,,,,,0,131,5,5,2082,2238,absent_patch/patch0002082.jpg,absent_patch/patch0002238.jpg,,,,,,,,,,,,,,,,,,,,0.109375,-0.044270833,1,0,0,response3disk,5,-0.0078125,0.010416667,1,0,0,center_square,0,4,4,22,1,,,,,,,,,,,,,,,,,,,,,,,
734095,001,2022-11-21_01h59.33.825,Info_measure_main_exp,2022.2.2,Win32,58.48295222,,,,,,,,,,,,,,,,,,masks/mask_005.jpg,,,,,,,,,,,,,,,,,,,,,,,,,,,,,,,,,,,,,,,,,,,0,0,0,4,1,,,,,,,,,,,,,,,,,,,,,,,,,,,,,,,,,,,,,,,,,,,,,,
734095,001,2022-11-21_01h59.33.825,Info_measure_main_exp,2022.2.2,Win32,58.48295222,,,,,,,,,,,,,,,,,,masks/mask_002.jpg,,,,,,,,,,,,,,,,,,,,,,,,,,,,,,,,,,,,,,,,,,,0,1,1,1,1,,,,,,,,,,,,,,,,,,,,,,,,,,,,,,,,,,,,,,,,,,,,,,
734095,001,2022-11-21_01h59.33.825,Info_measure_main_exp,2022.2.2,Win32,58.48295222,,,,,,,,,,,,,,,,,,masks/mask_003.jpg,,,,,,,,,,,,,,,,,,,,,,,,,,,,,,,,,,,,,,,,,,,0,2,2,2,1,,,,,,,,,,,,,,,,,,,,,,,,,,,,,,,,,,,,,,,,,,,,,,
734095,001,2022-11-21_01h59.33.825,Info_measure_main_exp,2022.2.2,Win32,58.48295222,,,,,,,,,,,,,,,,,,masks/mask_004.jpg,,,,,,,,,,,,,,,,,,,,,,,,,,,,,,,,,,,,,,,,,,,0,3,3,3,1,,,,,,,,,,,,,,,,,,,,,,,,,,,,,,,,,,,,,,,,,,,,,,
734095,001,2022-11-21_01h59.33.825,Info_measure_main_exp,2022.2.2,Win32,58.48295222,,,,,,,,,,,,,,,,,,masks/mask_001.jpg,,,,,,,,,,,,,,,,,,,,,,,,,,,,,,,,,,,,,,,,,,,0,4,4,0,1,,,,,,,,,,,,,,,,,,,,,,,,,,,,,,,,,,,,,,,,,,,,,,
734095,001,2022-11-21_01h59.33.825,Info_measure_main_exp,2022.2.2,Win32,58.48295222,,,,,,,,,,,,,,,,,,masks/mask_002.jpg,,,,,,,,,,,,,,,,,,,,,,,,,,,,,,,,,,,,,,,,,,,,,,,,0,0,0,1,1,,,,,,,,,,,,,,,,,,,,,,,,,,,,,,,,,,,,,,,,,
734095,001,2022-11-21_01h59.33.825,Info_measure_main_exp,2022.2.2,Win32,58.48295222,,,,,,,,,,,,,,,,,,masks/mask_003.jpg,,,,,,,,,,,,,,,,,,,,,,,,,,,,,,,,,,,,,,,,,,,,,,,,0,1,1,2,1,,,,,,,,,,,,,,,,,,,,,,,,,,,,,,,,,,,,,,,,,
734095,001,2022-11-21_01h59.33.825,Info_measure_main_exp,2022.2.2,Win32,58.48295222,,,,,,,,,,,,,,,,,,masks/mask_001.jpg,,,,,,,,,,,,,,,,,,,,,,,,,,,,,,,,,,,,,,,,,,,,,,,,0,2,2,0,1,,,,,,,,,,,,,,,,,,,,,,,,,,,,,,,,,,,,,,,,,
734095,001,2022-11-21_01h59.33.825,Info_measure_main_exp,2022.2.2,Win32,58.48295222,,,,,,,,,,,,,,,,,,masks/mask_005.jpg,,,,,,,,,,,,,,,,,,,,,,,,,,,,,,,,,,,,,,,,,,,,,,,,0,3,3,4,1,,,,,,,,,,,,,,,,,,,,,,,,,,,,,,,,,,,,,,,,,
734095,001,2022-11-21_01h59.33.825,Info_measure_main_exp,2022.2.2,Win32,58.48295222,,,,,,,,,,,,,,,,,,masks/mask_004.jpg,,,,,,,,,,,,,,,,,,,,,,,,,,,,,,,,,,,,,,,,,,,,,,,,0,4,4,3,1,,,,,,,,,,,,,,,,,,,,,,,,,,,,,,,,,,,,,,,,,
734095,001,2022-11-21_01h59.33.825,Info_measure_main_exp,2022.2.2,Win32,58.48295222,,,,,,,,,,,,,,,,,,,,,,,,,,,,,,1,2.3729,1,,,,,,,,,,,,0,131,5,5,2190,1950,absent_patch/patch0002190.jpg,absent_patch/patch0001950.jpg,,,,,,,,,,,,,,,,,,,,-0.1171875,0.029947917,1,0,0,response7disk,6,-0.01171875,0.010416667,1,0,0,center_square,0,5,5,73,1,,,,,,,,,,,,,,,,,,,,,,,
734095,001,2022-11-21_01h59.33.825,Info_measure_main_exp,2022.2.2,Win32,58.48295222,,,,,,,,,,,,,,,,,,masks/mask_004.jpg,,,,,,,,,,,,,,,,,,,,,,,,,,,,,,,,,,,,,,,,,,,0,0,0,3,1,,,,,,,,,,,,,,,,,,,,,,,,,,,,,,,,,,,,,,,,,,,,,,
734095,001,2022-11-21_01h59.33.825,Info_measure_main_exp,2022.2.2,Win32,58.48295222,,,,,,,,,,,,,,,,,,masks/mask_005.jpg,,,,,,,,,,,,,,,,,,,,,,,,,,,,,,,,,,,,,,,,,,,0,1,1,4,1,,,,,,,,,,,,,,,,,,,,,,,,,,,,,,,,,,,,,,,,,,,,,,
734095,001,2022-11-21_01h59.33.825,Info_measure_main_exp,2022.2.2,Win32,58.48295222,,,,,,,,,,,,,,,,,,masks/mask_002.jpg,,,,,,,,,,,,,,,,,,,,,,,,,,,,,,,,,,,,,,,,,,,0,2,2,1,1,,,,,,,,,,,,,,,,,,,,,,,,,,,,,,,,,,,,,,,,,,,,,,
734095,001,2022-11-21_01h59.33.825,Info_measure_main_exp,2022.2.2,Win32,58.48295222,,,,,,,,,,,,,,,,,,masks/mask_001.jpg,,,,,,,,,,,,,,,,,,,,,,,,,,,,,,,,,,,,,,,,,,,0,3,3,0,1,,,,,,,,,,,,,,,,,,,,,,,,,,,,,,,,,,,,,,,,,,,,,,
734095,001,2022-11-21_01h59.33.825,Info_measure_main_exp,2022.2.2,Win32,58.48295222,,,,,,,,,,,,,,,,,,masks/mask_003.jpg,,,,,,,,,,,,,,,,,,,,,,,,,,,,,,,,,,,,,,,,,,,0,4,4,2,1,,,,,,,,,,,,,,,,,,,,,,,,,,,,,,,,,,,,,,,,,,,,,,
734095,001,2022-11-21_01h59.33.825,Info_measure_main_exp,2022.2.2,Win32,58.48295222,,,,,,,,,,,,,,,,,,masks/mask_001.jpg,,,,,,,,,,,,,,,,,,,,,,,,,,,,,,,,,,,,,,,,,,,,,,,,0,0,0,0,1,,,,,,,,,,,,,,,,,,,,,,,,,,,,,,,,,,,,,,,,,
734095,001,2022-11-21_01h59.33.825,Info_measure_main_exp,2022.2.2,Win32,58.48295222,,,,,,,,,,,,,,,,,,masks/mask_004.jpg,,,,,,,,,,,,,,,,,,,,,,,,,,,,,,,,,,,,,,,,,,,,,,,,0,1,1,3,1,,,,,,,,,,,,,,,,,,,,,,,,,,,,,,,,,,,,,,,,,
734095,001,2022-11-21_01h59.33.825,Info_measure_main_exp,2022.2.2,Win32,58.48295222,,,,,,,,,,,,,,,,,,masks/mask_003.jpg,,,,,,,,,,,,,,,,,,,,,,,,,,,,,,,,,,,,,,,,,,,,,,,,0,2,2,2,1,,,,,,,,,,,,,,,,,,,,,,,,,,,,,,,,,,,,,,,,,
734095,001,2022-11-21_01h59.33.825,Info_measure_main_exp,2022.2.2,Win32,58.48295222,,,,,,,,,,,,,,,,,,masks/mask_002.jpg,,,,,,,,,,,,,,,,,,,,,,,,,,,,,,,,,,,,,,,,,,,,,,,,0,3,3,1,1,,,,,,,,,,,,,,,,,,,,,,,,,,,,,,,,,,,,,,,,,
734095,001,2022-11-21_01h59.33.825,Info_measure_main_exp,2022.2.2,Win32,58.48295222,,,,,,,,,,,,,,,,,,masks/mask_005.jpg,,,,,,,,,,,,,,,,,,,,,,,,,,,,,,,,,,,,,,,,,,,,,,,,0,4,4,4,1,,,,,,,,,,,,,,,,,,,,,,,,,,,,,,,,,,,,,,,,,
734095,001,2022-11-21_01h59.33.825,Info_measure_main_exp,2022.2.2,Win32,58.48295222,,,,,,,,,,,,,,,,,,,,,,,,,,,,,,6,4.2218,1,,,,,,,,,,,,0,131,5,5,2082,2178,absent_patch/patch0002082.jpg,absent_patch/patch0002178.jpg,,,,,,,,,,,,,,,,,,,,0.08203125,0.04296875,1,0,0,response1disk,7,-0.0078125,0.01171875,1,0,0,center_square,0,6,6,2,1,,,,,,,,,,,,,,,,,,,,,,,
734095,001,2022-11-21_01h59.33.825,Info_measure_main_exp,2022.2.2,Win32,58.48295222,,,,,,,,,,,,,,,,,,masks/mask_005.jpg,,,,,,,,,,,,,,,,,,,,,,,,,,,,,,,,,,,,,,,,,,,0,0,0,4,1,,,,,,,,,,,,,,,,,,,,,,,,,,,,,,,,,,,,,,,,,,,,,,
734095,001,2022-11-21_01h59.33.825,Info_measure_main_exp,2022.2.2,Win32,58.48295222,,,,,,,,,,,,,,,,,,masks/mask_002.jpg,,,,,,,,,,,,,,,,,,,,,,,,,,,,,,,,,,,,,,,,,,,0,1,1,1,1,,,,,,,,,,,,,,,,,,,,,,,,,,,,,,,,,,,,,,,,,,,,,,
734095,001,2022-11-21_01h59.33.825,Info_measure_main_exp,2022.2.2,Win32,58.48295222,,,,,,,,,,,,,,,,,,masks/mask_003.jpg,,,,,,,,,,,,,,,,,,,,,,,,,,,,,,,,,,,,,,,,,,,0,2,2,2,1,,,,,,,,,,,,,,,,,,,,,,,,,,,,,,,,,,,,,,,,,,,,,,
734095,001,2022-11-21_01h59.33.825,Info_measure_main_exp,2022.2.2,Win32,58.48295222,,,,,,,,,,,,,,,,,,masks/mask_001.jpg,,,,,,,,,,,,,,,,,,,,,,,,,,,,,,,,,,,,,,,,,,,0,3,3,0,1,,,,,,,,,,,,,,,,,,,,,,,,,,,,,,,,,,,,,,,,,,,,,,
734095,001,2022-11-21_01h59.33.825,Info_measure_main_exp,2022.2.2,Win32,58.48295222,,,,,,,,,,,,,,,,,,masks/mask_004.jpg,,,,,,,,,,,,,,,,,,,,,,,,,,,,,,,,,,,,,,,,,,,0,4,4,3,1,,,,,,,,,,,,,,,,,,,,,,,,,,,,,,,,,,,,,,,,,,,,,,
734095,001,2022-11-21_01h59.33.825,Info_measure_main_exp,2022.2.2,Win32,58.48295222,,,,,,,,,,,,,,,,,,masks/mask_003.jpg,,,,,,,,,,,,,,,,,,,,,,,,,,,,,,,,,,,,,,,,,,,,,,,,0,0,0,2,1,,,,,,,,,,,,,,,,,,,,,,,,,,,,,,,,,,,,,,,,,
734095,001,2022-11-21_01h59.33.825,Info_measure_main_exp,2022.2.2,Win32,58.48295222,,,,,,,,,,,,,,,,,,masks/mask_004.jpg,,,,,,,,,,,,,,,,,,,,,,,,,,,,,,,,,,,,,,,,,,,,,,,,0,1,1,3,1,,,,,,,,,,,,,,,,,,,,,,,,,,,,,,,,,,,,,,,,,
734095,001,2022-11-21_01h59.33.825,Info_measure_main_exp,2022.2.2,Win32,58.48295222,,,,,,,,,,,,,,,,,,masks/mask_005.jpg,,,,,,,,,,,,,,,,,,,,,,,,,,,,,,,,,,,,,,,,,,,,,,,,0,2,2,4,1,,,,,,,,,,,,,,,,,,,,,,,,,,,,,,,,,,,,,,,,,
734095,001,2022-11-21_01h59.33.825,Info_measure_main_exp,2022.2.2,Win32,58.48295222,,,,,,,,,,,,,,,,,,masks/mask_002.jpg,,,,,,,,,,,,,,,,,,,,,,,,,,,,,,,,,,,,,,,,,,,,,,,,0,3,3,1,1,,,,,,,,,,,,,,,,,,,,,,,,,,,,,,,,,,,,,,,,,
734095,001,2022-11-21_01h59.33.825,Info_measure_main_exp,2022.2.2,Win32,58.48295222,,,,,,,,,,,,,,,,,,masks/mask_001.jpg,,,,,,,,,,,,,,,,,,,,,,,,,,,,,,,,,,,,,,,,,,,,,,,,0,4,4,0,1,,,,,,,,,,,,,,,,,,,,,,,,,,,,,,,,,,,,,,,,,
734095,001,2022-11-21_01h59.33.825,Info_measure_main_exp,2022.2.2,Win32,58.48295222,,,,,,,,,,,,,,,,,,,,,,,,,,,,,,7,2.1287,1,,,,,,,,,,,,0,131,5,5,2250,2178,absent_patch/patch0002250.jpg,absent_patch/patch0002178.jpg,,,,,,,,,,,,,,,,,,,,0.0859375,0.125,1,0,0,response1disk,8,-0.009114583,0.009114583,0,0,1,center_square,0,7,7,48,1,,,,,,,,,,,,,,,,,,,,,,,
734095,001,2022-11-21_01h59.33.825,Info_measure_main_exp,2022.2.2,Win32,58.48295222,,,,,,,,,,,,,,,,,,masks/mask_002.jpg,,,,,,,,,,,,,,,,,,,,,,,,,,,,,,,,,,,,,,,,,,,0,0,0,1,1,,,,,,,,,,,,,,,,,,,,,,,,,,,,,,,,,,,,,,,,,,,,,,
734095,001,2022-11-21_01h59.33.825,Info_measure_main_exp,2022.2.2,Win32,58.48295222,,,,,,,,,,,,,,,,,,masks/mask_004.jpg,,,,,,,,,,,,,,,,,,,,,,,,,,,,,,,,,,,,,,,,,,,0,1,1,3,1,,,,,,,,,,,,,,,,,,,,,,,,,,,,,,,,,,,,,,,,,,,,,,
734095,001,2022-11-21_01h59.33.825,Info_measure_main_exp,2022.2.2,Win32,58.48295222,,,,,,,,,,,,,,,,,,masks/mask_005.jpg,,,,,,,,,,,,,,,,,,,,,,,,,,,,,,,,,,,,,,,,,,,0,2,2,4,1,,,,,,,,,,,,,,,,,,,,,,,,,,,,,,,,,,,,,,,,,,,,,,
734095,001,2022-11-21_01h59.33.825,Info_measure_main_exp,2022.2.2,Win32,58.48295222,,,,,,,,,,,,,,,,,,masks/mask_003.jpg,,,,,,,,,,,,,,,,,,,,,,,,,,,,,,,,,,,,,,,,,,,0,3,3,2,1,,,,,,,,,,,,,,,,,,,,,,,,,,,,,,,,,,,,,,,,,,,,,,
734095,001,2022-11-21_01h59.33.825,Info_measure_main_exp,2022.2.2,Win32,58.48295222,,,,,,,,,,,,,,,,,,masks/mask_001.jpg,,,,,,,,,,,,,,,,,,,,,,,,,,,,,,,,,,,,,,,,,,,0,4,4,0,1,,,,,,,,,,,,,,,,,,,,,,,,,,,,,,,,,,,,,,,,,,,,,,
734095,001,2022-11-21_01h59.33.825,Info_measure_main_exp,2022.2.2,Win32,58.48295222,,,,,,,,,,,,,,,,,,masks/mask_004.jpg,,,,,,,,,,,,,,,,,,,,,,,,,,,,,,,,,,,,,,,,,,,,,,,,0,0,0,3,1,,,,,,,,,,,,,,,,,,,,,,,,,,,,,,,,,,,,,,,,,
734095,001,2022-11-21_01h59.33.825,Info_measure_main_exp,2022.2.2,Win32,58.48295222,,,,,,,,,,,,,,,,,,masks/mask_005.jpg,,,,,,,,,,,,,,,,,,,,,,,,,,,,,,,,,,,,,,,,,,,,,,,,0,1,1,4,1,,,,,,,,,,,,,,,,,,,,,,,,,,,,,,,,,,,,,,,,,
734095,001,2022-11-21_01h59.33.825,Info_measure_main_exp,2022.2.2,Win32,58.48295222,,,,,,,,,,,,,,,,,,masks/mask_003.jpg,,,,,,,,,,,,,,,,,,,,,,,,,,,,,,,,,,,,,,,,,,,,,,,,0,2,2,2,1,,,,,,,,,,,,,,,,,,,,,,,,,,,,,,,,,,,,,,,,,
734095,001,2022-11-21_01h59.33.825,Info_measure_main_exp,2022.2.2,Win32,58.48295222,,,,,,,,,,,,,,,,,,masks/mask_001.jpg,,,,,,,,,,,,,,,,,,,,,,,,,,,,,,,,,,,,,,,,,,,,,,,,0,3,3,0,1,,,,,,,,,,,,,,,,,,,,,,,,,,,,,,,,,,,,,,,,,
734095,001,2022-11-21_01h59.33.825,Info_measure_main_exp,2022.2.2,Win32,58.48295222,,,,,,,,,,,,,,,,,,masks/mask_002.jpg,,,,,,,,,,,,,,,,,,,,,,,,,,,,,,,,,,,,,,,,,,,,,,,,0,4,4,1,1,,,,,,,,,,,,,,,,,,,,,,,,,,,,,,,,,,,,,,,,,
734095,001,2022-11-21_01h59.33.825,Info_measure_main_exp,2022.2.2,Win32,58.48295222,,,,,,,,,,,,,,,,,,,,,,,,,,,,,,2,1.9485,1,,,,,,,,,,,,0,131,5,5,2274,2190,absent_patch/patch0002274.jpg,absent_patch/patch0002190.jpg,,,,,,,,,,,,,,,,,,,,-0.123697917,-0.0390625,1,0,0,response5disk,9,-0.005208333,0.009114583,0,0,1,center_square,0,8,8,116,1,,,,,,,,,,,,,,,,,,,,,,,
734095,001,2022-11-21_01h59.33.825,Info_measure_main_exp,2022.2.2,Win32,58.48295222,,,,,,,,,,,,,,,,,,masks/mask_002.jpg,,,,,,,,,,,,,,,,,,,,,,,,,,,,,,,,,,,,,,,,,,,0,0,0,1,1,,,,,,,,,,,,,,,,,,,,,,,,,,,,,,,,,,,,,,,,,,,,,,
734095,001,2022-11-21_01h59.33.825,Info_measure_main_exp,2022.2.2,Win32,58.48295222,,,,,,,,,,,,,,,,,,masks/mask_004.jpg,,,,,,,,,,,,,,,,,,,,,,,,,,,,,,,,,,,,,,,,,,,0,1,1,3,1,,,,,,,,,,,,,,,,,,,,,,,,,,,,,,,,,,,,,,,,,,,,,,
734095,001,2022-11-21_01h59.33.825,Info_measure_main_exp,2022.2.2,Win32,58.48295222,,,,,,,,,,,,,,,,,,masks/mask_001.jpg,,,,,,,,,,,,,,,,,,,,,,,,,,,,,,,,,,,,,,,,,,,0,2,2,0,1,,,,,,,,,,,,,,,,,,,,,,,,,,,,,,,,,,,,,,,,,,,,,,
734095,001,2022-11-21_01h59.33.825,Info_measure_main_exp,2022.2.2,Win32,58.48295222,,,,,,,,,,,,,,,,,,masks/mask_003.jpg,,,,,,,,,,,,,,,,,,,,,,,,,,,,,,,,,,,,,,,,,,,0,3,3,2,1,,,,,,,,,,,,,,,,,,,,,,,,,,,,,,,,,,,,,,,,,,,,,,
734095,001,2022-11-21_01h59.33.825,Info_measure_main_exp,2022.2.2,Win32,58.48295222,,,,,,,,,,,,,,,,,,masks/mask_005.jpg,,,,,,,,,,,,,,,,,,,,,,,,,,,,,,,,,,,,,,,,,,,0,4,4,4,1,,,,,,,,,,,,,,,,,,,,,,,,,,,,,,,,,,,,,,,,,,,,,,
734095,001,2022-11-21_01h59.33.825,Info_measure_main_exp,2022.2.2,Win32,58.48295222,,,,,,,,,,,,,,,,,,masks/mask_002.jpg,,,,,,,,,,,,,,,,,,,,,,,,,,,,,,,,,,,,,,,,,,,,,,,,0,0,0,1,1,,,,,,,,,,,,,,,,,,,,,,,,,,,,,,,,,,,,,,,,,
734095,001,2022-11-21_01h59.33.825,Info_measure_main_exp,2022.2.2,Win32,58.48295222,,,,,,,,,,,,,,,,,,masks/mask_004.jpg,,,,,,,,,,,,,,,,,,,,,,,,,,,,,,,,,,,,,,,,,,,,,,,,0,1,1,3,1,,,,,,,,,,,,,,,,,,,,,,,,,,,,,,,,,,,,,,,,,
734095,001,2022-11-21_01h59.33.825,Info_measure_main_exp,2022.2.2,Win32,58.48295222,,,,,,,,,,,,,,,,,,masks/mask_005.jpg,,,,,,,,,,,,,,,,,,,,,,,,,,,,,,,,,,,,,,,,,,,,,,,,0,2,2,4,1,,,,,,,,,,,,,,,,,,,,,,,,,,,,,,,,,,,,,,,,,
734095,001,2022-11-21_01h59.33.825,Info_measure_main_exp,2022.2.2,Win32,58.48295222,,,,,,,,,,,,,,,,,,masks/mask_003.jpg,,,,,,,,,,,,,,,,,,,,,,,,,,,,,,,,,,,,,,,,,,,,,,,,0,3,3,2,1,,,,,,,,,,,,,,,,,,,,,,,,,,,,,,,,,,,,,,,,,
734095,001,2022-11-21_01h59.33.825,Info_measure_main_exp,2022.2.2,Win32,58.48295222,,,,,,,,,,,,,,,,,,masks/mask_001.jpg,,,,,,,,,,,,,,,,,,,,,,,,,,,,,,,,,,,,,,,,,,,,,,,,0,4,4,0,1,,,,,,,,,,,,,,,,,,,,,,,,,,,,,,,,,,,,,,,,,
734095,001,2022-11-21_01h59.33.825,Info_measure_main_exp,2022.2.2,Win32,58.48295222,,,,,,,,,,,,,,,,,,,,,,,,,,,,,,3,3.3568,1,,,,,,,,,,,,0,131,5,5,2166,2166,absent_patch/patch0002166.jpg,absent_patch/patch0002166.jpg,,,,,,,,,,,,,,,,,,,,-0.010416667,-0.079427083,1,0,0,response5disk,10,-0.006510417,0.014322917,0,0,1,center_square,0,9,9,42,1,,,,,,,,,,,,,,,,,,,,,,,
734095,001,2022-11-21_01h59.33.825,Info_measure_main_exp,2022.2.2,Win32,58.48295222,,,,,,,,,,,,,,,,,,masks/mask_005.jpg,,,,,,,,,,,,,,,,,,,,,,,,,,,,,,,,,,,,,,,,,,,0,0,0,4,1,,,,,,,,,,,,,,,,,,,,,,,,,,,,,,,,,,,,,,,,,,,,,,
734095,001,2022-11-21_01h59.33.825,Info_measure_main_exp,2022.2.2,Win32,58.48295222,,,,,,,,,,,,,,,,,,masks/mask_001.jpg,,,,,,,,,,,,,,,,,,,,,,,,,,,,,,,,,,,,,,,,,,,0,1,1,0,1,,,,,,,,,,,,,,,,,,,,,,,,,,,,,,,,,,,,,,,,,,,,,,
734095,001,2022-11-21_01h59.33.825,Info_measure_main_exp,2022.2.2,Win32,58.48295222,,,,,,,,,,,,,,,,,,masks/mask_002.jpg,,,,,,,,,,,,,,,,,,,,,,,,,,,,,,,,,,,,,,,,,,,0,2,2,1,1,,,,,,,,,,,,,,,,,,,,,,,,,,,,,,,,,,,,,,,,,,,,,,
734095,001,2022-11-21_01h59.33.825,Info_measure_main_exp,2022.2.2,Win32,58.48295222,,,,,,,,,,,,,,,,,,masks/mask_003.jpg,,,,,,,,,,,,,,,,,,,,,,,,,,,,,,,,,,,,,,,,,,,0,3,3,2,1,,,,,,,,,,,,,,,,,,,,,,,,,,,,,,,,,,,,,,,,,,,,,,
734095,001,2022-11-21_01h59.33.825,Info_measure_main_exp,2022.2.2,Win32,58.48295222,,,,,,,,,,,,,,,,,,masks/mask_004.jpg,,,,,,,,,,,,,,,,,,,,,,,,,,,,,,,,,,,,,,,,,,,0,4,4,3,1,,,,,,,,,,,,,,,,,,,,,,,,,,,,,,,,,,,,,,,,,,,,,,
734095,001,2022-11-21_01h59.33.825,Info_measure_main_exp,2022.2.2,Win32,58.48295222,,,,,,,,,,,,,,,,,,masks/mask_002.jpg,,,,,,,,,,,,,,,,,,,,,,,,,,,,,,,,,,,,,,,,,,,,,,,,0,0,0,1,1,,,,,,,,,,,,,,,,,,,,,,,,,,,,,,,,,,,,,,,,,
734095,001,2022-11-21_01h59.33.825,Info_measure_main_exp,2022.2.2,Win32,58.48295222,,,,,,,,,,,,,,,,,,masks/mask_001.jpg,,,,,,,,,,,,,,,,,,,,,,,,,,,,,,,,,,,,,,,,,,,,,,,,0,1,1,0,1,,,,,,,,,,,,,,,,,,,,,,,,,,,,,,,,,,,,,,,,,
734095,001,2022-11-21_01h59.33.825,Info_measure_main_exp,2022.2.2,Win32,58.48295222,,,,,,,,,,,,,,,,,,masks/mask_003.jpg,,,,,,,,,,,,,,,,,,,,,,,,,,,,,,,,,,,,,,,,,,,,,,,,0,2,2,2,1,,,,,,,,,,,,,,,,,,,,,,,,,,,,,,,,,,,,,,,,,
734095,001,2022-11-21_01h59.33.825,Info_measure_main_exp,2022.2.2,Win32,58.48295222,,,,,,,,,,,,,,,,,,masks/mask_005.jpg,,,,,,,,,,,,,,,,,,,,,,,,,,,,,,,,,,,,,,,,,,,,,,,,0,3,3,4,1,,,,,,,,,,,,,,,,,,,,,,,,,,,,,,,,,,,,,,,,,
734095,001,2022-11-21_01h59.33.825,Info_measure_main_exp,2022.2.2,Win32,58.48295222,,,,,,,,,,,,,,,,,,masks/mask_004.jpg,,,,,,,,,,,,,,,,,,,,,,,,,,,,,,,,,,,,,,,,,,,,,,,,0,4,4,3,1,,,,,,,,,,,,,,,,,,,,,,,,,,,,,,,,,,,,,,,,,
734095,001,2022-11-21_01h59.33.825,Info_measure_main_exp,2022.2.2,Win32,58.48295222,,,,,,,,,,,,,,,,,,,,,,,,,,,,,,3,0.2788,1,,,,,,,,,,,,0,131,5,5,2274,2214,absent_patch/patch0002274.jpg,absent_patch/patch0002214.jpg,,,,,,,,,,,,,,,,,,,,-0.045572917,-0.127604167,1,0,0,response5disk,11,-0.009114583,0.010416667,0,0,1,center_square,0,10,10,11,1,,,,,,,,,,,,,,,,,,,,,,,
734095,001,2022-11-21_01h59.33.825,Info_measure_main_exp,2022.2.2,Win32,58.48295222,,,,,,,,,,,,,,,,,,masks/mask_002.jpg,,,,,,,,,,,,,,,,,,,,,,,,,,,,,,,,,,,,,,,,,,,0,0,0,1,1,,,,,,,,,,,,,,,,,,,,,,,,,,,,,,,,,,,,,,,,,,,,,,
734095,001,2022-11-21_01h59.33.825,Info_measure_main_exp,2022.2.2,Win32,58.48295222,,,,,,,,,,,,,,,,,,masks/mask_003.jpg,,,,,,,,,,,,,,,,,,,,,,,,,,,,,,,,,,,,,,,,,,,0,1,1,2,1,,,,,,,,,,,,,,,,,,,,,,,,,,,,,,,,,,,,,,,,,,,,,,
734095,001,2022-11-21_01h59.33.825,Info_measure_main_exp,2022.2.2,Win32,58.48295222,,,,,,,,,,,,,,,,,,masks/mask_004.jpg,,,,,,,,,,,,,,,,,,,,,,,,,,,,,,,,,,,,,,,,,,,0,2,2,3,1,,,,,,,,,,,,,,,,,,,,,,,,,,,,,,,,,,,,,,,,,,,,,,
734095,001,2022-11-21_01h59.33.825,Info_measure_main_exp,2022.2.2,Win32,58.48295222,,,,,,,,,,,,,,,,,,masks/mask_001.jpg,,,,,,,,,,,,,,,,,,,,,,,,,,,,,,,,,,,,,,,,,,,0,3,3,0,1,,,,,,,,,,,,,,,,,,,,,,,,,,,,,,,,,,,,,,,,,,,,,,
734095,001,2022-11-21_01h59.33.825,Info_measure_main_exp,2022.2.2,Win32,58.48295222,,,,,,,,,,,,,,,,,,masks/mask_005.jpg,,,,,,,,,,,,,,,,,,,,,,,,,,,,,,,,,,,,,,,,,,,0,4,4,4,1,,,,,,,,,,,,,,,,,,,,,,,,,,,,,,,,,,,,,,,,,,,,,,
734095,001,2022-11-21_01h59.33.825,Info_measure_main_exp,2022.2.2,Win32,58.48295222,,,,,,,,,,,,,,,,,,masks/mask_004.jpg,,,,,,,,,,,,,,,,,,,,,,,,,,,,,,,,,,,,,,,,,,,,,,,,0,0,0,3,1,,,,,,,,,,,,,,,,,,,,,,,,,,,,,,,,,,,,,,,,,
734095,001,2022-11-21_01h59.33.825,Info_measure_main_exp,2022.2.2,Win32,58.48295222,,,,,,,,,,,,,,,,,,masks/mask_001.jpg,,,,,,,,,,,,,,,,,,,,,,,,,,,,,,,,,,,,,,,,,,,,,,,,0,1,1,0,1,,,,,,,,,,,,,,,,,,,,,,,,,,,,,,,,,,,,,,,,,
734095,001,2022-11-21_01h59.33.825,Info_measure_main_exp,2022.2.2,Win32,58.48295222,,,,,,,,,,,,,,,,,,masks/mask_002.jpg,,,,,,,,,,,,,,,,,,,,,,,,,,,,,,,,,,,,,,,,,,,,,,,,0,2,2,1,1,,,,,,,,,,,,,,,,,,,,,,,,,,,,,,,,,,,,,,,,,
734095,001,2022-11-21_01h59.33.825,Info_measure_main_exp,2022.2.2,Win32,58.48295222,,,,,,,,,,,,,,,,,,masks/mask_003.jpg,,,,,,,,,,,,,,,,,,,,,,,,,,,,,,,,,,,,,,,,,,,,,,,,0,3,3,2,1,,,,,,,,,,,,,,,,,,,,,,,,,,,,,,,,,,,,,,,,,
734095,001,2022-11-21_01h59.33.825,Info_measure_main_exp,2022.2.2,Win32,58.48295222,,,,,,,,,,,,,,,,,,masks/mask_005.jpg,,,,,,,,,,,,,,,,,,,,,,,,,,,,,,,,,,,,,,,,,,,,,,,,0,4,4,4,1,,,,,,,,,,,,,,,,,,,,,,,,,,,,,,,,,,,,,,,,,
734095,001,2022-11-21_01h59.33.825,Info_measure_main_exp,2022.2.2,Win32,58.48295222,,,,,,,,,,,,,,,,,,,,,,,,,,,,,,7,2.1419,1,,,,,,,,,,,,0,131,5,5,1974,2166,absent_patch/patch0001974.jpg,absent_patch/patch0002166.jpg,,,,,,,,,,,,,,,,,,,,0.05859375,0.115885417,1,0,0,response1disk,12,0,0.002604167,0,0,1,center_square,0,11,11,77,1,,,,,,,,,,,,,,,,,,,,,,,
734095,001,2022-11-21_01h59.33.825,Info_measure_main_exp,2022.2.2,Win32,58.48295222,,,,,,,,,,,,,,,,,,masks/mask_002.jpg,,,,,,,,,,,,,,,,,,,,,,,,,,,,,,,,,,,,,,,,,,,0,0,0,1,1,,,,,,,,,,,,,,,,,,,,,,,,,,,,,,,,,,,,,,,,,,,,,,
734095,001,2022-11-21_01h59.33.825,Info_measure_main_exp,2022.2.2,Win32,58.48295222,,,,,,,,,,,,,,,,,,masks/mask_003.jpg,,,,,,,,,,,,,,,,,,,,,,,,,,,,,,,,,,,,,,,,,,,0,1,1,2,1,,,,,,,,,,,,,,,,,,,,,,,,,,,,,,,,,,,,,,,,,,,,,,
734095,001,2022-11-21_01h59.33.825,Info_measure_main_exp,2022.2.2,Win32,58.48295222,,,,,,,,,,,,,,,,,,masks/mask_001.jpg,,,,,,,,,,,,,,,,,,,,,,,,,,,,,,,,,,,,,,,,,,,0,2,2,0,1,,,,,,,,,,,,,,,,,,,,,,,,,,,,,,,,,,,,,,,,,,,,,,
734095,001,2022-11-21_01h59.33.825,Info_measure_main_exp,2022.2.2,Win32,58.48295222,,,,,,,,,,,,,,,,,,masks/mask_004.jpg,,,,,,,,,,,,,,,,,,,,,,,,,,,,,,,,,,,,,,,,,,,0,3,3,3,1,,,,,,,,,,,,,,,,,,,,,,,,,,,,,,,,,,,,,,,,,,,,,,
734095,001,2022-11-21_01h59.33.825,Info_measure_main_exp,2022.2.2,Win32,58.48295222,,,,,,,,,,,,,,,,,,masks/mask_005.jpg,,,,,,,,,,,,,,,,,,,,,,,,,,,,,,,,,,,,,,,,,,,0,4,4,4,1,,,,,,,,,,,,,,,,,,,,,,,,,,,,,,,,,,,,,,,,,,,,,,
734095,001,2022-11-21_01h59.33.825,Info_measure_main_exp,2022.2.2,Win32,58.48295222,,,,,,,,,,,,,,,,,,masks/mask_005.jpg,,,,,,,,,,,,,,,,,,,,,,,,,,,,,,,,,,,,,,,,,,,,,,,,0,0,0,4,1,,,,,,,,,,,,,,,,,,,,,,,,,,,,,,,,,,,,,,,,,
734095,001,2022-11-21_01h59.33.825,Info_measure_main_exp,2022.2.2,Win32,58.48295222,,,,,,,,,,,,,,,,,,masks/mask_003.jpg,,,,,,,,,,,,,,,,,,,,,,,,,,,,,,,,,,,,,,,,,,,,,,,,0,1,1,2,1,,,,,,,,,,,,,,,,,,,,,,,,,,,,,,,,,,,,,,,,,
734095,001,2022-11-21_01h59.33.825,Info_measure_main_exp,2022.2.2,Win32,58.48295222,,,,,,,,,,,,,,,,,,masks/mask_001.jpg,,,,,,,,,,,,,,,,,,,,,,,,,,,,,,,,,,,,,,,,,,,,,,,,0,2,2,0,1,,,,,,,,,,,,,,,,,,,,,,,,,,,,,,,,,,,,,,,,,
734095,001,2022-11-21_01h59.33.825,Info_measure_main_exp,2022.2.2,Win32,58.48295222,,,,,,,,,,,,,,,,,,masks/mask_002.jpg,,,,,,,,,,,,,,,,,,,,,,,,,,,,,,,,,,,,,,,,,,,,,,,,0,3,3,1,1,,,,,,,,,,,,,,,,,,,,,,,,,,,,,,,,,,,,,,,,,
734095,001,2022-11-21_01h59.33.825,Info_measure_main_exp,2022.2.2,Win32,58.48295222,,,,,,,,,,,,,,,,,,masks/mask_004.jpg,,,,,,,,,,,,,,,,,,,,,,,,,,,,,,,,,,,,,,,,,,,,,,,,0,4,4,3,1,,,,,,,,,,,,,,,,,,,,,,,,,,,,,,,,,,,,,,,,,
734095,001,2022-11-21_01h59.33.825,Info_measure_main_exp,2022.2.2,Win32,58.48295222,,,,,,,,,,,,,,,,,,,,,,,,,,,,,,6,2.7635,1,,,,,,,,,,,,0,131,5,5,1974,1950,absent_patch/patch0001974.jpg,absent_patch/patch0001950.jpg,,,,,,,,,,,,,,,,,,,,0.07421875,0.049479167,1,0,0,response1disk,13,-0.005208333,0.0078125,0,0,1,center_square,0,12,12,17,1,,,,,,,,,,,,,,,,,,,,,,,
734095,001,2022-11-21_01h59.33.825,Info_measure_main_exp,2022.2.2,Win32,58.48295222,,,,,,,,,,,,,,,,,,masks/mask_002.jpg,,,,,,,,,,,,,,,,,,,,,,,,,,,,,,,,,,,,,,,,,,,0,0,0,1,1,,,,,,,,,,,,,,,,,,,,,,,,,,,,,,,,,,,,,,,,,,,,,,
734095,001,2022-11-21_01h59.33.825,Info_measure_main_exp,2022.2.2,Win32,58.48295222,,,,,,,,,,,,,,,,,,masks/mask_004.jpg,,,,,,,,,,,,,,,,,,,,,,,,,,,,,,,,,,,,,,,,,,,0,1,1,3,1,,,,,,,,,,,,,,,,,,,,,,,,,,,,,,,,,,,,,,,,,,,,,,
734095,001,2022-11-21_01h59.33.825,Info_measure_main_exp,2022.2.2,Win32,58.48295222,,,,,,,,,,,,,,,,,,masks/mask_003.jpg,,,,,,,,,,,,,,,,,,,,,,,,,,,,,,,,,,,,,,,,,,,0,2,2,2,1,,,,,,,,,,,,,,,,,,,,,,,,,,,,,,,,,,,,,,,,,,,,,,
734095,001,2022-11-21_01h59.33.825,Info_measure_main_exp,2022.2.2,Win32,58.48295222,,,,,,,,,,,,,,,,,,masks/mask_005.jpg,,,,,,,,,,,,,,,,,,,,,,,,,,,,,,,,,,,,,,,,,,,0,3,3,4,1,,,,,,,,,,,,,,,,,,,,,,,,,,,,,,,,,,,,,,,,,,,,,,
734095,001,2022-11-21_01h59.33.825,Info_measure_main_exp,2022.2.2,Win32,58.48295222,,,,,,,,,,,,,,,,,,masks/mask_001.jpg,,,,,,,,,,,,,,,,,,,,,,,,,,,,,,,,,,,,,,,,,,,0,4,4,0,1,,,,,,,,,,,,,,,,,,,,,,,,,,,,,,,,,,,,,,,,,,,,,,
734095,001,2022-11-21_01h59.33.825,Info_measure_main_exp,2022.2.2,Win32,58.48295222,,,,,,,,,,,,,,,,,,masks/mask_005.jpg,,,,,,,,,,,,,,,,,,,,,,,,,,,,,,,,,,,,,,,,,,,,,,,,0,0,0,4,1,,,,,,,,,,,,,,,,,,,,,,,,,,,,,,,,,,,,,,,,,
734095,001,2022-11-21_01h59.33.825,Info_measure_main_exp,2022.2.2,Win32,58.48295222,,,,,,,,,,,,,,,,,,masks/mask_002.jpg,,,,,,,,,,,,,,,,,,,,,,,,,,,,,,,,,,,,,,,,,,,,,,,,0,1,1,1,1,,,,,,,,,,,,,,,,,,,,,,,,,,,,,,,,,,,,,,,,,
734095,001,2022-11-21_01h59.33.825,Info_measure_main_exp,2022.2.2,Win32,58.48295222,,,,,,,,,,,,,,,,,,masks/mask_003.jpg,,,,,,,,,,,,,,,,,,,,,,,,,,,,,,,,,,,,,,,,,,,,,,,,0,2,2,2,1,,,,,,,,,,,,,,,,,,,,,,,,,,,,,,,,,,,,,,,,,
734095,001,2022-11-21_01h59.33.825,Info_measure_main_exp,2022.2.2,Win32,58.48295222,,,,,,,,,,,,,,,,,,masks/mask_001.jpg,,,,,,,,,,,,,,,,,,,,,,,,,,,,,,,,,,,,,,,,,,,,,,,,0,3,3,0,1,,,,,,,,,,,,,,,,,,,,,,,,,,,,,,,,,,,,,,,,,
734095,001,2022-11-21_01h59.33.825,Info_measure_main_exp,2022.2.2,Win32,58.48295222,,,,,,,,,,,,,,,,,,masks/mask_004.jpg,,,,,,,,,,,,,,,,,,,,,,,,,,,,,,,,,,,,,,,,,,,,,,,,0,4,4,3,1,,,,,,,,,,,,,,,,,,,,,,,,,,,,,,,,,,,,,,,,,
734095,001,2022-11-21_01h59.33.825,Info_measure_main_exp,2022.2.2,Win32,58.48295222,,,,,,,,,,,,,,,,,,,,,,,,,,,,,,0,1.1571,1,,,,,,,,,,,,0,131,5,5,2238,2238,absent_patch/patch0002238.jpg,absent_patch/patch0002238.jpg,,,,,,,,,,,,,,,,,,,,-0.067708333,0.10546875,1,0,0,response7disk,14,-0.009114583,0.01171875,0,0,1,center_square,0,13,13,58,1,,,,,,,,,,,,,,,,,,,,,,,
734095,001,2022-11-21_01h59.33.825,Info_measure_main_exp,2022.2.2,Win32,58.48295222,,,,,,,,,,,,,,,,,,masks/mask_005.jpg,,,,,,,,,,,,,,,,,,,,,,,,,,,,,,,,,,,,,,,,,,,0,0,0,4,1,,,,,,,,,,,,,,,,,,,,,,,,,,,,,,,,,,,,,,,,,,,,,,
734095,001,2022-11-21_01h59.33.825,Info_measure_main_exp,2022.2.2,Win32,58.48295222,,,,,,,,,,,,,,,,,,masks/mask_004.jpg,,,,,,,,,,,,,,,,,,,,,,,,,,,,,,,,,,,,,,,,,,,0,1,1,3,1,,,,,,,,,,,,,,,,,,,,,,,,,,,,,,,,,,,,,,,,,,,,,,
734095,001,2022-11-21_01h59.33.825,Info_measure_main_exp,2022.2.2,Win32,58.48295222,,,,,,,,,,,,,,,,,,masks/mask_003.jpg,,,,,,,,,,,,,,,,,,,,,,,,,,,,,,,,,,,,,,,,,,,0,2,2,2,1,,,,,,,,,,,,,,,,,,,,,,,,,,,,,,,,,,,,,,,,,,,,,,
734095,001,2022-11-21_01h59.33.825,Info_measure_main_exp,2022.2.2,Win32,58.48295222,,,,,,,,,,,,,,,,,,masks/mask_001.jpg,,,,,,,,,,,,,,,,,,,,,,,,,,,,,,,,,,,,,,,,,,,0,3,3,0,1,,,,,,,,,,,,,,,,,,,,,,,,,,,,,,,,,,,,,,,,,,,,,,
734095,001,2022-11-21_01h59.33.825,Info_measure_main_exp,2022.2.2,Win32,58.48295222,,,,,,,,,,,,,,,,,,masks/mask_002.jpg,,,,,,,,,,,,,,,,,,,,,,,,,,,,,,,,,,,,,,,,,,,0,4,4,1,1,,,,,,,,,,,,,,,,,,,,,,,,,,,,,,,,,,,,,,,,,,,,,,
734095,001,2022-11-21_01h59.33.825,Info_measure_main_exp,2022.2.2,Win32,58.48295222,,,,,,,,,,,,,,,,,,masks/mask_003.jpg,,,,,,,,,,,,,,,,,,,,,,,,,,,,,,,,,,,,,,,,,,,,,,,,0,0,0,2,1,,,,,,,,,,,,,,,,,,,,,,,,,,,,,,,,,,,,,,,,,
734095,001,2022-11-21_01h59.33.825,Info_measure_main_exp,2022.2.2,Win32,58.48295222,,,,,,,,,,,,,,,,,,masks/mask_005.jpg,,,,,,,,,,,,,,,,,,,,,,,,,,,,,,,,,,,,,,,,,,,,,,,,0,1,1,4,1,,,,,,,,,,,,,,,,,,,,,,,,,,,,,,,,,,,,,,,,,
734095,001,2022-11-21_01h59.33.825,Info_measure_main_exp,2022.2.2,Win32,58.48295222,,,,,,,,,,,,,,,,,,masks/mask_001.jpg,,,,,,,,,,,,,,,,,,,,,,,,,,,,,,,,,,,,,,,,,,,,,,,,0,2,2,0,1,,,,,,,,,,,,,,,,,,,,,,,,,,,,,,,,,,,,,,,,,
734095,001,2022-11-21_01h59.33.825,Info_measure_main_exp,2022.2.2,Win32,58.48295222,,,,,,,,,,,,,,,,,,masks/mask_002.jpg,,,,,,,,,,,,,,,,,,,,,,,,,,,,,,,,,,,,,,,,,,,,,,,,0,3,3,1,1,,,,,,,,,,,,,,,,,,,,,,,,,,,,,,,,,,,,,,,,,
734095,001,2022-11-21_01h59.33.825,Info_measure_main_exp,2022.2.2,Win32,58.48295222,,,,,,,,,,,,,,,,,,masks/mask_004.jpg,,,,,,,,,,,,,,,,,,,,,,,,,,,,,,,,,,,,,,,,,,,,,,,,0,4,4,3,1,,,,,,,,,,,,,,,,,,,,,,,,,,,,,,,,,,,,,,,,,
734095,001,2022-11-21_01h59.33.825,Info_measure_main_exp,2022.2.2,Win32,58.48295222,,,,,,,,,,,,,,,,,,,,,,,,,,,,,,3,0.187,1,,,,,,,,,,,,0,131,5,5,1986,1974,absent_patch/patch0001986.jpg,absent_patch/patch0001974.jpg,,,,,,,,,,,,,,,,,,,,-0.03515625,-0.106770833,1,0,0,response5disk,15,-0.002604167,0.006510417,0,0,1,center_square,0,14,14,25,1,,,,,,,,,,,,,,,,,,,,,,,
734095,001,2022-11-21_01h59.33.825,Info_measure_main_exp,2022.2.2,Win32,58.48295222,,,,,,,,,,,,,,,,,,masks/mask_001.jpg,,,,,,,,,,,,,,,,,,,,,,,,,,,,,,,,,,,,,,,,,,,0,0,0,0,1,,,,,,,,,,,,,,,,,,,,,,,,,,,,,,,,,,,,,,,,,,,,,,
734095,001,2022-11-21_01h59.33.825,Info_measure_main_exp,2022.2.2,Win32,58.48295222,,,,,,,,,,,,,,,,,,masks/mask_004.jpg,,,,,,,,,,,,,,,,,,,,,,,,,,,,,,,,,,,,,,,,,,,0,1,1,3,1,,,,,,,,,,,,,,,,,,,,,,,,,,,,,,,,,,,,,,,,,,,,,,
734095,001,2022-11-21_01h59.33.825,Info_measure_main_exp,2022.2.2,Win32,58.48295222,,,,,,,,,,,,,,,,,,masks/mask_003.jpg,,,,,,,,,,,,,,,,,,,,,,,,,,,,,,,,,,,,,,,,,,,0,2,2,2,1,,,,,,,,,,,,,,,,,,,,,,,,,,,,,,,,,,,,,,,,,,,,,,
734095,001,2022-11-21_01h59.33.825,Info_measure_main_exp,2022.2.2,Win32,58.48295222,,,,,,,,,,,,,,,,,,masks/mask_005.jpg,,,,,,,,,,,,,,,,,,,,,,,,,,,,,,,,,,,,,,,,,,,0,3,3,4,1,,,,,,,,,,,,,,,,,,,,,,,,,,,,,,,,,,,,,,,,,,,,,,
734095,001,2022-11-21_01h59.33.825,Info_measure_main_exp,2022.2.2,Win32,58.48295222,,,,,,,,,,,,,,,,,,masks/mask_002.jpg,,,,,,,,,,,,,,,,,,,,,,,,,,,,,,,,,,,,,,,,,,,0,4,4,1,1,,,,,,,,,,,,,,,,,,,,,,,,,,,,,,,,,,,,,,,,,,,,,,
734095,001,2022-11-21_01h59.33.825,Info_measure_main_exp,2022.2.2,Win32,58.48295222,,,,,,,,,,,,,,,,,,masks/mask_004.jpg,,,,,,,,,,,,,,,,,,,,,,,,,,,,,,,,,,,,,,,,,,,,,,,,0,0,0,3,1,,,,,,,,,,,,,,,,,,,,,,,,,,,,,,,,,,,,,,,,,
734095,001,2022-11-21_01h59.33.825,Info_measure_main_exp,2022.2.2,Win32,58.48295222,,,,,,,,,,,,,,,,,,masks/mask_003.jpg,,,,,,,,,,,,,,,,,,,,,,,,,,,,,,,,,,,,,,,,,,,,,,,,0,1,1,2,1,,,,,,,,,,,,,,,,,,,,,,,,,,,,,,,,,,,,,,,,,
734095,001,2022-11-21_01h59.33.825,Info_measure_main_exp,2022.2.2,Win32,58.48295222,,,,,,,,,,,,,,,,,,masks/mask_002.jpg,,,,,,,,,,,,,,,,,,,,,,,,,,,,,,,,,,,,,,,,,,,,,,,,0,2,2,1,1,,,,,,,,,,,,,,,,,,,,,,,,,,,,,,,,,,,,,,,,,
734095,001,2022-11-21_01h59.33.825,Info_measure_main_exp,2022.2.2,Win32,58.48295222,,,,,,,,,,,,,,,,,,masks/mask_005.jpg,,,,,,,,,,,,,,,,,,,,,,,,,,,,,,,,,,,,,,,,,,,,,,,,0,3,3,4,1,,,,,,,,,,,,,,,,,,,,,,,,,,,,,,,,,,,,,,,,,
734095,001,2022-11-21_01h59.33.825,Info_measure_main_exp,2022.2.2,Win32,58.48295222,,,,,,,,,,,,,,,,,,masks/mask_001.jpg,,,,,,,,,,,,,,,,,,,,,,,,,,,,,,,,,,,,,,,,,,,,,,,,0,4,4,0,1,,,,,,,,,,,,,,,,,,,,,,,,,,,,,,,,,,,,,,,,,
734095,001,2022-11-21_01h59.33.825,Info_measure_main_exp,2022.2.2,Win32,58.48295222,,,,,,,,,,,,,,,,,,,,,,,,,,,,,,7,1.2422,1,,,,,,,,,,,,0,131,5,5,2238,2214,absent_patch/patch0002238.jpg,absent_patch/patch0002214.jpg,,,,,,,,,,,,,,,,,,,,0.065104167,0.0859375,1,0,0,response1disk,16,-0.0078125,0.005208333,0,0,1,center_square,0,15,15,81,1,,,,,,,,,,,,,,,,,,,,,,,
734095,001,2022-11-21_01h59.33.825,Info_measure_main_exp,2022.2.2,Win32,58.48295222,,,,,,,,,,,,,,,,,,masks/mask_001.jpg,,,,,,,,,,,,,,,,,,,,,,,,,,,,,,,,,,,,,,,,,,,0,0,0,0,1,,,,,,,,,,,,,,,,,,,,,,,,,,,,,,,,,,,,,,,,,,,,,,
734095,001,2022-11-21_01h59.33.825,Info_measure_main_exp,2022.2.2,Win32,58.48295222,,,,,,,,,,,,,,,,,,masks/mask_004.jpg,,,,,,,,,,,,,,,,,,,,,,,,,,,,,,,,,,,,,,,,,,,0,1,1,3,1,,,,,,,,,,,,,,,,,,,,,,,,,,,,,,,,,,,,,,,,,,,,,,
734095,001,2022-11-21_01h59.33.825,Info_measure_main_exp,2022.2.2,Win32,58.48295222,,,,,,,,,,,,,,,,,,masks/mask_003.jpg,,,,,,,,,,,,,,,,,,,,,,,,,,,,,,,,,,,,,,,,,,,0,2,2,2,1,,,,,,,,,,,,,,,,,,,,,,,,,,,,,,,,,,,,,,,,,,,,,,
734095,001,2022-11-21_01h59.33.825,Info_measure_main_exp,2022.2.2,Win32,58.48295222,,,,,,,,,,,,,,,,,,masks/mask_005.jpg,,,,,,,,,,,,,,,,,,,,,,,,,,,,,,,,,,,,,,,,,,,0,3,3,4,1,,,,,,,,,,,,,,,,,,,,,,,,,,,,,,,,,,,,,,,,,,,,,,
734095,001,2022-11-21_01h59.33.825,Info_measure_main_exp,2022.2.2,Win32,58.48295222,,,,,,,,,,,,,,,,,,masks/mask_002.jpg,,,,,,,,,,,,,,,,,,,,,,,,,,,,,,,,,,,,,,,,,,,0,4,4,1,1,,,,,,,,,,,,,,,,,,,,,,,,,,,,,,,,,,,,,,,,,,,,,,
734095,001,2022-11-21_01h59.33.825,Info_measure_main_exp,2022.2.2,Win32,58.48295222,,,,,,,,,,,,,,,,,,masks/mask_001.jpg,,,,,,,,,,,,,,,,,,,,,,,,,,,,,,,,,,,,,,,,,,,,,,,,0,0,0,0,1,,,,,,,,,,,,,,,,,,,,,,,,,,,,,,,,,,,,,,,,,
734095,001,2022-11-21_01h59.33.825,Info_measure_main_exp,2022.2.2,Win32,58.48295222,,,,,,,,,,,,,,,,,,masks/mask_004.jpg,,,,,,,,,,,,,,,,,,,,,,,,,,,,,,,,,,,,,,,,,,,,,,,,0,1,1,3,1,,,,,,,,,,,,,,,,,,,,,,,,,,,,,,,,,,,,,,,,,
734095,001,2022-11-21_01h59.33.825,Info_measure_main_exp,2022.2.2,Win32,58.48295222,,,,,,,,,,,,,,,,,,masks/mask_002.jpg,,,,,,,,,,,,,,,,,,,,,,,,,,,,,,,,,,,,,,,,,,,,,,,,0,2,2,1,1,,,,,,,,,,,,,,,,,,,,,,,,,,,,,,,,,,,,,,,,,
734095,001,2022-11-21_01h59.33.825,Info_measure_main_exp,2022.2.2,Win32,58.48295222,,,,,,,,,,,,,,,,,,masks/mask_003.jpg,,,,,,,,,,,,,,,,,,,,,,,,,,,,,,,,,,,,,,,,,,,,,,,,0,3,3,2,1,,,,,,,,,,,,,,,,,,,,,,,,,,,,,,,,,,,,,,,,,
734095,001,2022-11-21_01h59.33.825,Info_measure_main_exp,2022.2.2,Win32,58.48295222,,,,,,,,,,,,,,,,,,masks/mask_005.jpg,,,,,,,,,,,,,,,,,,,,,,,,,,,,,,,,,,,,,,,,,,,,,,,,0,4,4,4,1,,,,,,,,,,,,,,,,,,,,,,,,,,,,,,,,,,,,,,,,,
734095,001,2022-11-21_01h59.33.825,Info_measure_main_exp,2022.2.2,Win32,58.48295222,,,,,,,,,,,,,,,,,,,,,,,,,,,,,,3,2.7692,1,,,,,,,,,,,,0,131,5,5,2142,2082,absent_patch/patch0002142.jpg,absent_patch/patch0002082.jpg,,,,,,,,,,,,,,,,,,,,-0.02734375,-0.147135417,1,0,0,response5disk,17,-0.00390625,0.010416667,0,0,1,center_square,0,16,16,88,1,,,,,,,,,,,,,,,,,,,,,,,
734095,001,2022-11-21_01h59.33.825,Info_measure_main_exp,2022.2.2,Win32,58.48295222,,,,,,,,,,,,,,,,,,masks/mask_001.jpg,,,,,,,,,,,,,,,,,,,,,,,,,,,,,,,,,,,,,,,,,,,0,0,0,0,1,,,,,,,,,,,,,,,,,,,,,,,,,,,,,,,,,,,,,,,,,,,,,,
734095,001,2022-11-21_01h59.33.825,Info_measure_main_exp,2022.2.2,Win32,58.48295222,,,,,,,,,,,,,,,,,,masks/mask_005.jpg,,,,,,,,,,,,,,,,,,,,,,,,,,,,,,,,,,,,,,,,,,,0,1,1,4,1,,,,,,,,,,,,,,,,,,,,,,,,,,,,,,,,,,,,,,,,,,,,,,
734095,001,2022-11-21_01h59.33.825,Info_measure_main_exp,2022.2.2,Win32,58.48295222,,,,,,,,,,,,,,,,,,masks/mask_004.jpg,,,,,,,,,,,,,,,,,,,,,,,,,,,,,,,,,,,,,,,,,,,0,2,2,3,1,,,,,,,,,,,,,,,,,,,,,,,,,,,,,,,,,,,,,,,,,,,,,,
734095,001,2022-11-21_01h59.33.825,Info_measure_main_exp,2022.2.2,Win32,58.48295222,,,,,,,,,,,,,,,,,,masks/mask_002.jpg,,,,,,,,,,,,,,,,,,,,,,,,,,,,,,,,,,,,,,,,,,,0,3,3,1,1,,,,,,,,,,,,,,,,,,,,,,,,,,,,,,,,,,,,,,,,,,,,,,
734095,001,2022-11-21_01h59.33.825,Info_measure_main_exp,2022.2.2,Win32,58.48295222,,,,,,,,,,,,,,,,,,masks/mask_003.jpg,,,,,,,,,,,,,,,,,,,,,,,,,,,,,,,,,,,,,,,,,,,0,4,4,2,1,,,,,,,,,,,,,,,,,,,,,,,,,,,,,,,,,,,,,,,,,,,,,,
734095,001,2022-11-21_01h59.33.825,Info_measure_main_exp,2022.2.2,Win32,58.48295222,,,,,,,,,,,,,,,,,,masks/mask_002.jpg,,,,,,,,,,,,,,,,,,,,,,,,,,,,,,,,,,,,,,,,,,,,,,,,0,0,0,1,1,,,,,,,,,,,,,,,,,,,,,,,,,,,,,,,,,,,,,,,,,
734095,001,2022-11-21_01h59.33.825,Info_measure_main_exp,2022.2.2,Win32,58.48295222,,,,,,,,,,,,,,,,,,masks/mask_001.jpg,,,,,,,,,,,,,,,,,,,,,,,,,,,,,,,,,,,,,,,,,,,,,,,,0,1,1,0,1,,,,,,,,,,,,,,,,,,,,,,,,,,,,,,,,,,,,,,,,,
734095,001,2022-11-21_01h59.33.825,Info_measure_main_exp,2022.2.2,Win32,58.48295222,,,,,,,,,,,,,,,,,,masks/mask_005.jpg,,,,,,,,,,,,,,,,,,,,,,,,,,,,,,,,,,,,,,,,,,,,,,,,0,2,2,4,1,,,,,,,,,,,,,,,,,,,,,,,,,,,,,,,,,,,,,,,,,
734095,001,2022-11-21_01h59.33.825,Info_measure_main_exp,2022.2.2,Win32,58.48295222,,,,,,,,,,,,,,,,,,masks/mask_004.jpg,,,,,,,,,,,,,,,,,,,,,,,,,,,,,,,,,,,,,,,,,,,,,,,,0,3,3,3,1,,,,,,,,,,,,,,,,,,,,,,,,,,,,,,,,,,,,,,,,,
734095,001,2022-11-21_01h59.33.825,Info_measure_main_exp,2022.2.2,Win32,58.48295222,,,,,,,,,,,,,,,,,,masks/mask_003.jpg,,,,,,,,,,,,,,,,,,,,,,,,,,,,,,,,,,,,,,,,,,,,,,,,0,4,4,2,1,,,,,,,,,,,,,,,,,,,,,,,,,,,,,,,,,,,,,,,,,
734095,001,2022-11-21_01h59.33.825,Info_measure_main_exp,2022.2.2,Win32,58.48295222,,,,,,,,,,,,,,,,,,,,,,,,,,,,,,7,1.7019,1,,,,,,,,,,,,0,131,5,5,2082,2250,absent_patch/patch0002082.jpg,absent_patch/patch0002250.jpg,,,,,,,,,,,,,,,,,,,,0.07421875,0.12890625,1,0,0,response1disk,18,-0.006510417,0.01171875,1,0,0,center_square,0,17,17,3,1,,,,,,,,,,,,,,,,,,,,,,,
734095,001,2022-11-21_01h59.33.825,Info_measure_main_exp,2022.2.2,Win32,58.48295222,,,,,,,,,,,,,,,,,,masks/mask_005.jpg,,,,,,,,,,,,,,,,,,,,,,,,,,,,,,,,,,,,,,,,,,,0,0,0,4,1,,,,,,,,,,,,,,,,,,,,,,,,,,,,,,,,,,,,,,,,,,,,,,
734095,001,2022-11-21_01h59.33.825,Info_measure_main_exp,2022.2.2,Win32,58.48295222,,,,,,,,,,,,,,,,,,masks/mask_002.jpg,,,,,,,,,,,,,,,,,,,,,,,,,,,,,,,,,,,,,,,,,,,0,1,1,1,1,,,,,,,,,,,,,,,,,,,,,,,,,,,,,,,,,,,,,,,,,,,,,,
734095,001,2022-11-21_01h59.33.825,Info_measure_main_exp,2022.2.2,Win32,58.48295222,,,,,,,,,,,,,,,,,,masks/mask_004.jpg,,,,,,,,,,,,,,,,,,,,,,,,,,,,,,,,,,,,,,,,,,,0,2,2,3,1,,,,,,,,,,,,,,,,,,,,,,,,,,,,,,,,,,,,,,,,,,,,,,
734095,001,2022-11-21_01h59.33.825,Info_measure_main_exp,2022.2.2,Win32,58.48295222,,,,,,,,,,,,,,,,,,masks/mask_001.jpg,,,,,,,,,,,,,,,,,,,,,,,,,,,,,,,,,,,,,,,,,,,0,3,3,0,1,,,,,,,,,,,,,,,,,,,,,,,,,,,,,,,,,,,,,,,,,,,,,,
734095,001,2022-11-21_01h59.33.825,Info_measure_main_exp,2022.2.2,Win32,58.48295222,,,,,,,,,,,,,,,,,,masks/mask_003.jpg,,,,,,,,,,,,,,,,,,,,,,,,,,,,,,,,,,,,,,,,,,,0,4,4,2,1,,,,,,,,,,,,,,,,,,,,,,,,,,,,,,,,,,,,,,,,,,,,,,
734095,001,2022-11-21_01h59.33.825,Info_measure_main_exp,2022.2.2,Win32,58.48295222,,,,,,,,,,,,,,,,,,masks/mask_001.jpg,,,,,,,,,,,,,,,,,,,,,,,,,,,,,,,,,,,,,,,,,,,,,,,,0,0,0,0,1,,,,,,,,,,,,,,,,,,,,,,,,,,,,,,,,,,,,,,,,,
734095,001,2022-11-21_01h59.33.825,Info_measure_main_exp,2022.2.2,Win32,58.48295222,,,,,,,,,,,,,,,,,,masks/mask_005.jpg,,,,,,,,,,,,,,,,,,,,,,,,,,,,,,,,,,,,,,,,,,,,,,,,0,1,1,4,1,,,,,,,,,,,,,,,,,,,,,,,,,,,,,,,,,,,,,,,,,
734095,001,2022-11-21_01h59.33.825,Info_measure_main_exp,2022.2.2,Win32,58.48295222,,,,,,,,,,,,,,,,,,masks/mask_003.jpg,,,,,,,,,,,,,,,,,,,,,,,,,,,,,,,,,,,,,,,,,,,,,,,,0,2,2,2,1,,,,,,,,,,,,,,,,,,,,,,,,,,,,,,,,,,,,,,,,,
734095,001,2022-11-21_01h59.33.825,Info_measure_main_exp,2022.2.2,Win32,58.48295222,,,,,,,,,,,,,,,,,,masks/mask_004.jpg,,,,,,,,,,,,,,,,,,,,,,,,,,,,,,,,,,,,,,,,,,,,,,,,0,3,3,3,1,,,,,,,,,,,,,,,,,,,,,,,,,,,,,,,,,,,,,,,,,
734095,001,2022-11-21_01h59.33.825,Info_measure_main_exp,2022.2.2,Win32,58.48295222,,,,,,,,,,,,,,,,,,masks/mask_002.jpg,,,,,,,,,,,,,,,,,,,,,,,,,,,,,,,,,,,,,,,,,,,,,,,,0,4,4,1,1,,,,,,,,,,,,,,,,,,,,,,,,,,,,,,,,,,,,,,,,,
734095,001,2022-11-21_01h59.33.825,Info_measure_main_exp,2022.2.2,Win32,58.48295222,,,,,,,,,,,,,,,,,,,,,,,,,,,,,,7,1.9721,1,,,,,,,,,,,,1,131,5,5,1,2214,present_patch/cong_131_5_a.jpg,absent_patch/patch0002214.jpg,,,,,,,,,,,,,,,,,,,,0.05078125,0.10546875,1,0,0,response1disk,19,-0.013020833,0.013020833,1,0,0,center_square,0,18,18,4,1,,,,,,,,,,,,,,,,,,,,,,,
734095,001,2022-11-21_01h59.33.825,Info_measure_main_exp,2022.2.2,Win32,58.48295222,,,,,,,,,,,,,,,,,,masks/mask_004.jpg,,,,,,,,,,,,,,,,,,,,,,,,,,,,,,,,,,,,,,,,,,,0,0,0,3,1,,,,,,,,,,,,,,,,,,,,,,,,,,,,,,,,,,,,,,,,,,,,,,
734095,001,2022-11-21_01h59.33.825,Info_measure_main_exp,2022.2.2,Win32,58.48295222,,,,,,,,,,,,,,,,,,masks/mask_005.jpg,,,,,,,,,,,,,,,,,,,,,,,,,,,,,,,,,,,,,,,,,,,0,1,1,4,1,,,,,,,,,,,,,,,,,,,,,,,,,,,,,,,,,,,,,,,,,,,,,,
734095,001,2022-11-21_01h59.33.825,Info_measure_main_exp,2022.2.2,Win32,58.48295222,,,,,,,,,,,,,,,,,,masks/mask_002.jpg,,,,,,,,,,,,,,,,,,,,,,,,,,,,,,,,,,,,,,,,,,,0,2,2,1,1,,,,,,,,,,,,,,,,,,,,,,,,,,,,,,,,,,,,,,,,,,,,,,
734095,001,2022-11-21_01h59.33.825,Info_measure_main_exp,2022.2.2,Win32,58.48295222,,,,,,,,,,,,,,,,,,masks/mask_001.jpg,,,,,,,,,,,,,,,,,,,,,,,,,,,,,,,,,,,,,,,,,,,0,3,3,0,1,,,,,,,,,,,,,,,,,,,,,,,,,,,,,,,,,,,,,,,,,,,,,,
734095,001,2022-11-21_01h59.33.825,Info_measure_main_exp,2022.2.2,Win32,58.48295222,,,,,,,,,,,,,,,,,,masks/mask_003.jpg,,,,,,,,,,,,,,,,,,,,,,,,,,,,,,,,,,,,,,,,,,,0,4,4,2,1,,,,,,,,,,,,,,,,,,,,,,,,,,,,,,,,,,,,,,,,,,,,,,
734095,001,2022-11-21_01h59.33.825,Info_measure_main_exp,2022.2.2,Win32,58.48295222,,,,,,,,,,,,,,,,,,masks/mask_001.jpg,,,,,,,,,,,,,,,,,,,,,,,,,,,,,,,,,,,,,,,,,,,,,,,,0,0,0,0,1,,,,,,,,,,,,,,,,,,,,,,,,,,,,,,,,,,,,,,,,,
734095,001,2022-11-21_01h59.33.825,Info_measure_main_exp,2022.2.2,Win32,58.48295222,,,,,,,,,,,,,,,,,,masks/mask_002.jpg,,,,,,,,,,,,,,,,,,,,,,,,,,,,,,,,,,,,,,,,,,,,,,,,0,1,1,1,1,,,,,,,,,,,,,,,,,,,,,,,,,,,,,,,,,,,,,,,,,
734095,001,2022-11-21_01h59.33.825,Info_measure_main_exp,2022.2.2,Win32,58.48295222,,,,,,,,,,,,,,,,,,masks/mask_003.jpg,,,,,,,,,,,,,,,,,,,,,,,,,,,,,,,,,,,,,,,,,,,,,,,,0,2,2,2,1,,,,,,,,,,,,,,,,,,,,,,,,,,,,,,,,,,,,,,,,,
734095,001,2022-11-21_01h59.33.825,Info_measure_main_exp,2022.2.2,Win32,58.48295222,,,,,,,,,,,,,,,,,,masks/mask_005.jpg,,,,,,,,,,,,,,,,,,,,,,,,,,,,,,,,,,,,,,,,,,,,,,,,0,3,3,4,1,,,,,,,,,,,,,,,,,,,,,,,,,,,,,,,,,,,,,,,,,
734095,001,2022-11-21_01h59.33.825,Info_measure_main_exp,2022.2.2,Win32,58.48295222,,,,,,,,,,,,,,,,,,masks/mask_004.jpg,,,,,,,,,,,,,,,,,,,,,,,,,,,,,,,,,,,,,,,,,,,,,,,,0,4,4,3,1,,,,,,,,,,,,,,,,,,,,,,,,,,,,,,,,,,,,,,,,,
734095,001,2022-11-21_01h59.33.825,Info_measure_main_exp,2022.2.2,Win32,58.48295222,,,,,,,,,,,,,,,,,,,,,,,,,,,,,,1,2.6255,1,,,,,,,,,,,,0,131,5,5,1986,2274,absent_patch/patch0001986.jpg,absent_patch/patch0002274.jpg,,,,,,,,,,,,,,,,,,,,-0.09765625,0.0078125,1,0,0,response7disk,20,0.006510417,-0.001302083,1,0,0,center_square,0,19,19,7,1,,,,,,,,,,,,,,,,,,,,,,,
734095,001,2022-11-21_01h59.33.825,Info_measure_main_exp,2022.2.2,Win32,58.48295222,,,,,,,,,,,,,,,,,,masks/mask_001.jpg,,,,,,,,,,,,,,,,,,,,,,,,,,,,,,,,,,,,,,,,,,,0,0,0,0,1,,,,,,,,,,,,,,,,,,,,,,,,,,,,,,,,,,,,,,,,,,,,,,
734095,001,2022-11-21_01h59.33.825,Info_measure_main_exp,2022.2.2,Win32,58.48295222,,,,,,,,,,,,,,,,,,masks/mask_004.jpg,,,,,,,,,,,,,,,,,,,,,,,,,,,,,,,,,,,,,,,,,,,0,1,1,3,1,,,,,,,,,,,,,,,,,,,,,,,,,,,,,,,,,,,,,,,,,,,,,,
734095,001,2022-11-21_01h59.33.825,Info_measure_main_exp,2022.2.2,Win32,58.48295222,,,,,,,,,,,,,,,,,,masks/mask_002.jpg,,,,,,,,,,,,,,,,,,,,,,,,,,,,,,,,,,,,,,,,,,,0,2,2,1,1,,,,,,,,,,,,,,,,,,,,,,,,,,,,,,,,,,,,,,,,,,,,,,
734095,001,2022-11-21_01h59.33.825,Info_measure_main_exp,2022.2.2,Win32,58.48295222,,,,,,,,,,,,,,,,,,masks/mask_003.jpg,,,,,,,,,,,,,,,,,,,,,,,,,,,,,,,,,,,,,,,,,,,0,3,3,2,1,,,,,,,,,,,,,,,,,,,,,,,,,,,,,,,,,,,,,,,,,,,,,,
734095,001,2022-11-21_01h59.33.825,Info_measure_main_exp,2022.2.2,Win32,58.48295222,,,,,,,,,,,,,,,,,,masks/mask_005.jpg,,,,,,,,,,,,,,,,,,,,,,,,,,,,,,,,,,,,,,,,,,,0,4,4,4,1,,,,,,,,,,,,,,,,,,,,,,,,,,,,,,,,,,,,,,,,,,,,,,
734095,001,2022-11-21_01h59.33.825,Info_measure_main_exp,2022.2.2,Win32,58.48295222,,,,,,,,,,,,,,,,,,masks/mask_001.jpg,,,,,,,,,,,,,,,,,,,,,,,,,,,,,,,,,,,,,,,,,,,,,,,,0,0,0,0,1,,,,,,,,,,,,,,,,,,,,,,,,,,,,,,,,,,,,,,,,,
734095,001,2022-11-21_01h59.33.825,Info_measure_main_exp,2022.2.2,Win32,58.48295222,,,,,,,,,,,,,,,,,,masks/mask_004.jpg,,,,,,,,,,,,,,,,,,,,,,,,,,,,,,,,,,,,,,,,,,,,,,,,0,1,1,3,1,,,,,,,,,,,,,,,,,,,,,,,,,,,,,,,,,,,,,,,,,
734095,001,2022-11-21_01h59.33.825,Info_measure_main_exp,2022.2.2,Win32,58.48295222,,,,,,,,,,,,,,,,,,masks/mask_002.jpg,,,,,,,,,,,,,,,,,,,,,,,,,,,,,,,,,,,,,,,,,,,,,,,,0,2,2,1,1,,,,,,,,,,,,,,,,,,,,,,,,,,,,,,,,,,,,,,,,,
734095,001,2022-11-21_01h59.33.825,Info_measure_main_exp,2022.2.2,Win32,58.48295222,,,,,,,,,,,,,,,,,,masks/mask_003.jpg,,,,,,,,,,,,,,,,,,,,,,,,,,,,,,,,,,,,,,,,,,,,,,,,0,3,3,2,1,,,,,,,,,,,,,,,,,,,,,,,,,,,,,,,,,,,,,,,,,
734095,001,2022-11-21_01h59.33.825,Info_measure_main_exp,2022.2.2,Win32,58.48295222,,,,,,,,,,,,,,,,,,masks/mask_005.jpg,,,,,,,,,,,,,,,,,,,,,,,,,,,,,,,,,,,,,,,,,,,,,,,,0,4,4,4,1,,,,,,,,,,,,,,,,,,,,,,,,,,,,,,,,,,,,,,,,,
734095,001,2022-11-21_01h59.33.825,Info_measure_main_exp,2022.2.2,Win32,58.48295222,,,,,,,,,,,,,,,,,,,,,,,,,,,,,,6,2.0155,1,,,,,,,,,,,,0,131,5,5,2250,2214,absent_patch/patch0002250.jpg,absent_patch/patch0002214.jpg,,,,,,,,,,,,,,,,,,,,0.052083333,0.029947917,1,0,0,response1disk,21,0,0.0078125,1,0,0,center_square,0,20,20,97,1,,,,,,,,,,,,,,,,,,,,,,,
734095,001,2022-11-21_01h59.33.825,Info_measure_main_exp,2022.2.2,Win32,58.48295222,,,,,,,,,,,,,,,,,,masks/mask_004.jpg,,,,,,,,,,,,,,,,,,,,,,,,,,,,,,,,,,,,,,,,,,,0,0,0,3,1,,,,,,,,,,,,,,,,,,,,,,,,,,,,,,,,,,,,,,,,,,,,,,
734095,001,2022-11-21_01h59.33.825,Info_measure_main_exp,2022.2.2,Win32,58.48295222,,,,,,,,,,,,,,,,,,masks/mask_001.jpg,,,,,,,,,,,,,,,,,,,,,,,,,,,,,,,,,,,,,,,,,,,0,1,1,0,1,,,,,,,,,,,,,,,,,,,,,,,,,,,,,,,,,,,,,,,,,,,,,,
734095,001,2022-11-21_01h59.33.825,Info_measure_main_exp,2022.2.2,Win32,58.48295222,,,,,,,,,,,,,,,,,,masks/mask_005.jpg,,,,,,,,,,,,,,,,,,,,,,,,,,,,,,,,,,,,,,,,,,,0,2,2,4,1,,,,,,,,,,,,,,,,,,,,,,,,,,,,,,,,,,,,,,,,,,,,,,
734095,001,2022-11-21_01h59.33.825,Info_measure_main_exp,2022.2.2,Win32,58.48295222,,,,,,,,,,,,,,,,,,masks/mask_003.jpg,,,,,,,,,,,,,,,,,,,,,,,,,,,,,,,,,,,,,,,,,,,0,3,3,2,1,,,,,,,,,,,,,,,,,,,,,,,,,,,,,,,,,,,,,,,,,,,,,,
734095,001,2022-11-21_01h59.33.825,Info_measure_main_exp,2022.2.2,Win32,58.48295222,,,,,,,,,,,,,,,,,,masks/mask_002.jpg,,,,,,,,,,,,,,,,,,,,,,,,,,,,,,,,,,,,,,,,,,,0,4,4,1,1,,,,,,,,,,,,,,,,,,,,,,,,,,,,,,,,,,,,,,,,,,,,,,
734095,001,2022-11-21_01h59.33.825,Info_measure_main_exp,2022.2.2,Win32,58.48295222,,,,,,,,,,,,,,,,,,masks/mask_001.jpg,,,,,,,,,,,,,,,,,,,,,,,,,,,,,,,,,,,,,,,,,,,,,,,,0,0,0,0,1,,,,,,,,,,,,,,,,,,,,,,,,,,,,,,,,,,,,,,,,,
734095,001,2022-11-21_01h59.33.825,Info_measure_main_exp,2022.2.2,Win32,58.48295222,,,,,,,,,,,,,,,,,,masks/mask_005.jpg,,,,,,,,,,,,,,,,,,,,,,,,,,,,,,,,,,,,,,,,,,,,,,,,0,1,1,4,1,,,,,,,,,,,,,,,,,,,,,,,,,,,,,,,,,,,,,,,,,
734095,001,2022-11-21_01h59.33.825,Info_measure_main_exp,2022.2.2,Win32,58.48295222,,,,,,,,,,,,,,,,,,masks/mask_002.jpg,,,,,,,,,,,,,,,,,,,,,,,,,,,,,,,,,,,,,,,,,,,,,,,,0,2,2,1,1,,,,,,,,,,,,,,,,,,,,,,,,,,,,,,,,,,,,,,,,,
734095,001,2022-11-21_01h59.33.825,Info_measure_main_exp,2022.2.2,Win32,58.48295222,,,,,,,,,,,,,,,,,,masks/mask_003.jpg,,,,,,,,,,,,,,,,,,,,,,,,,,,,,,,,,,,,,,,,,,,,,,,,0,3,3,2,1,,,,,,,,,,,,,,,,,,,,,,,,,,,,,,,,,,,,,,,,,
734095,001,2022-11-21_01h59.33.825,Info_measure_main_exp,2022.2.2,Win32,58.48295222,,,,,,,,,,,,,,,,,,masks/mask_004.jpg,,,,,,,,,,,,,,,,,,,,,,,,,,,,,,,,,,,,,,,,,,,,,,,,0,4,4,3,1,,,,,,,,,,,,,,,,,,,,,,,,,,,,,,,,,,,,,,,,,
734095,001,2022-11-21_01h59.33.825,Info_measure_main_exp,2022.2.2,Win32,58.48295222,,,,,,,,,,,,,,,,,,,,,,,,,,,,,,2,1.8839,1,,,,,,,,,,,,0,131,5,5,2238,2166,absent_patch/patch0002238.jpg,absent_patch/patch0002166.jpg,,,,,,,,,,,,,,,,,,,,-0.0859375,-0.071614583,1,0,0,response5disk,22,-0.014322917,0.00390625,1,0,0,center_square,0,21,21,118,1,,,,,,,,,,,,,,,,,,,,,,,
734095,001,2022-11-21_01h59.33.825,Info_measure_main_exp,2022.2.2,Win32,58.48295222,,,,,,,,,,,,,,,,,,masks/mask_005.jpg,,,,,,,,,,,,,,,,,,,,,,,,,,,,,,,,,,,,,,,,,,,0,0,0,4,1,,,,,,,,,,,,,,,,,,,,,,,,,,,,,,,,,,,,,,,,,,,,,,
734095,001,2022-11-21_01h59.33.825,Info_measure_main_exp,2022.2.2,Win32,58.48295222,,,,,,,,,,,,,,,,,,masks/mask_001.jpg,,,,,,,,,,,,,,,,,,,,,,,,,,,,,,,,,,,,,,,,,,,0,1,1,0,1,,,,,,,,,,,,,,,,,,,,,,,,,,,,,,,,,,,,,,,,,,,,,,
734095,001,2022-11-21_01h59.33.825,Info_measure_main_exp,2022.2.2,Win32,58.48295222,,,,,,,,,,,,,,,,,,masks/mask_002.jpg,,,,,,,,,,,,,,,,,,,,,,,,,,,,,,,,,,,,,,,,,,,0,2,2,1,1,,,,,,,,,,,,,,,,,,,,,,,,,,,,,,,,,,,,,,,,,,,,,,
734095,001,2022-11-21_01h59.33.825,Info_measure_main_exp,2022.2.2,Win32,58.48295222,,,,,,,,,,,,,,,,,,masks/mask_003.jpg,,,,,,,,,,,,,,,,,,,,,,,,,,,,,,,,,,,,,,,,,,,0,3,3,2,1,,,,,,,,,,,,,,,,,,,,,,,,,,,,,,,,,,,,,,,,,,,,,,
734095,001,2022-11-21_01h59.33.825,Info_measure_main_exp,2022.2.2,Win32,58.48295222,,,,,,,,,,,,,,,,,,masks/mask_004.jpg,,,,,,,,,,,,,,,,,,,,,,,,,,,,,,,,,,,,,,,,,,,0,4,4,3,1,,,,,,,,,,,,,,,,,,,,,,,,,,,,,,,,,,,,,,,,,,,,,,
734095,001,2022-11-21_01h59.33.825,Info_measure_main_exp,2022.2.2,Win32,58.48295222,,,,,,,,,,,,,,,,,,masks/mask_002.jpg,,,,,,,,,,,,,,,,,,,,,,,,,,,,,,,,,,,,,,,,,,,,,,,,0,0,0,1,1,,,,,,,,,,,,,,,,,,,,,,,,,,,,,,,,,,,,,,,,,
734095,001,2022-11-21_01h59.33.825,Info_measure_main_exp,2022.2.2,Win32,58.48295222,,,,,,,,,,,,,,,,,,masks/mask_001.jpg,,,,,,,,,,,,,,,,,,,,,,,,,,,,,,,,,,,,,,,,,,,,,,,,0,1,1,0,1,,,,,,,,,,,,,,,,,,,,,,,,,,,,,,,,,,,,,,,,,
734095,001,2022-11-21_01h59.33.825,Info_measure_main_exp,2022.2.2,Win32,58.48295222,,,,,,,,,,,,,,,,,,masks/mask_005.jpg,,,,,,,,,,,,,,,,,,,,,,,,,,,,,,,,,,,,,,,,,,,,,,,,0,2,2,4,1,,,,,,,,,,,,,,,,,,,,,,,,,,,,,,,,,,,,,,,,,
734095,001,2022-11-21_01h59.33.825,Info_measure_main_exp,2022.2.2,Win32,58.48295222,,,,,,,,,,,,,,,,,,masks/mask_004.jpg,,,,,,,,,,,,,,,,,,,,,,,,,,,,,,,,,,,,,,,,,,,,,,,,0,3,3,3,1,,,,,,,,,,,,,,,,,,,,,,,,,,,,,,,,,,,,,,,,,
734095,001,2022-11-21_01h59.33.825,Info_measure_main_exp,2022.2.2,Win32,58.48295222,,,,,,,,,,,,,,,,,,masks/mask_003.jpg,,,,,,,,,,,,,,,,,,,,,,,,,,,,,,,,,,,,,,,,,,,,,,,,0,4,4,2,1,,,,,,,,,,,,,,,,,,,,,,,,,,,,,,,,,,,,,,,,,
734095,001,2022-11-21_01h59.33.825,Info_measure_main_exp,2022.2.2,Win32,58.48295222,,,,,,,,,,,,,,,,,,,,,,,,,,,,,,1,2.5022,1,,,,,,,,,,,,1,131,5,5,2238,1,absent_patch/patch0002238.jpg,present_patch/cong_131_5_a.jpg,,,,,,,,,,,,,,,,,,,,-0.08203125,0.0703125,1,0,0,response7disk,23,-0.0078125,0.01171875,1,0,0,center_square,0,22,22,104,1,,,,,,,,,,,,,,,,,,,,,,,
734095,001,2022-11-21_01h59.33.825,Info_measure_main_exp,2022.2.2,Win32,58.48295222,,,,,,,,,,,,,,,,,,masks/mask_005.jpg,,,,,,,,,,,,,,,,,,,,,,,,,,,,,,,,,,,,,,,,,,,0,0,0,4,1,,,,,,,,,,,,,,,,,,,,,,,,,,,,,,,,,,,,,,,,,,,,,,
734095,001,2022-11-21_01h59.33.825,Info_measure_main_exp,2022.2.2,Win32,58.48295222,,,,,,,,,,,,,,,,,,masks/mask_003.jpg,,,,,,,,,,,,,,,,,,,,,,,,,,,,,,,,,,,,,,,,,,,0,1,1,2,1,,,,,,,,,,,,,,,,,,,,,,,,,,,,,,,,,,,,,,,,,,,,,,
734095,001,2022-11-21_01h59.33.825,Info_measure_main_exp,2022.2.2,Win32,58.48295222,,,,,,,,,,,,,,,,,,masks/mask_004.jpg,,,,,,,,,,,,,,,,,,,,,,,,,,,,,,,,,,,,,,,,,,,0,2,2,3,1,,,,,,,,,,,,,,,,,,,,,,,,,,,,,,,,,,,,,,,,,,,,,,
734095,001,2022-11-21_01h59.33.825,Info_measure_main_exp,2022.2.2,Win32,58.48295222,,,,,,,,,,,,,,,,,,masks/mask_002.jpg,,,,,,,,,,,,,,,,,,,,,,,,,,,,,,,,,,,,,,,,,,,0,3,3,1,1,,,,,,,,,,,,,,,,,,,,,,,,,,,,,,,,,,,,,,,,,,,,,,
734095,001,2022-11-21_01h59.33.825,Info_measure_main_exp,2022.2.2,Win32,58.48295222,,,,,,,,,,,,,,,,,,masks/mask_001.jpg,,,,,,,,,,,,,,,,,,,,,,,,,,,,,,,,,,,,,,,,,,,0,4,4,0,1,,,,,,,,,,,,,,,,,,,,,,,,,,,,,,,,,,,,,,,,,,,,,,
734095,001,2022-11-21_01h59.33.825,Info_measure_main_exp,2022.2.2,Win32,58.48295222,,,,,,,,,,,,,,,,,,masks/mask_004.jpg,,,,,,,,,,,,,,,,,,,,,,,,,,,,,,,,,,,,,,,,,,,,,,,,0,0,0,3,1,,,,,,,,,,,,,,,,,,,,,,,,,,,,,,,,,,,,,,,,,
734095,001,2022-11-21_01h59.33.825,Info_measure_main_exp,2022.2.2,Win32,58.48295222,,,,,,,,,,,,,,,,,,masks/mask_001.jpg,,,,,,,,,,,,,,,,,,,,,,,,,,,,,,,,,,,,,,,,,,,,,,,,0,1,1,0,1,,,,,,,,,,,,,,,,,,,,,,,,,,,,,,,,,,,,,,,,,
734095,001,2022-11-21_01h59.33.825,Info_measure_main_exp,2022.2.2,Win32,58.48295222,,,,,,,,,,,,,,,,,,masks/mask_005.jpg,,,,,,,,,,,,,,,,,,,,,,,,,,,,,,,,,,,,,,,,,,,,,,,,0,2,2,4,1,,,,,,,,,,,,,,,,,,,,,,,,,,,,,,,,,,,,,,,,,
734095,001,2022-11-21_01h59.33.825,Info_measure_main_exp,2022.2.2,Win32,58.48295222,,,,,,,,,,,,,,,,,,masks/mask_002.jpg,,,,,,,,,,,,,,,,,,,,,,,,,,,,,,,,,,,,,,,,,,,,,,,,0,3,3,1,1,,,,,,,,,,,,,,,,,,,,,,,,,,,,,,,,,,,,,,,,,
734095,001,2022-11-21_01h59.33.825,Info_measure_main_exp,2022.2.2,Win32,58.48295222,,,,,,,,,,,,,,,,,,masks/mask_003.jpg,,,,,,,,,,,,,,,,,,,,,,,,,,,,,,,,,,,,,,,,,,,,,,,,0,4,4,2,1,,,,,,,,,,,,,,,,,,,,,,,,,,,,,,,,,,,,,,,,,
734095,001,2022-11-21_01h59.33.825,Info_measure_main_exp,2022.2.2,Win32,58.48295222,,,,,,,,,,,,,,,,,,,,,,,,,,,,,,2,1.6689,1,,,,,,,,,,,,1,131,5,5,1,2274,present_patch/cong_131_5_a.jpg,absent_patch/patch0002274.jpg,,,,,,,,,,,,,,,,,,,,-0.114583333,-0.03125,1,0,0,response5disk,24,-0.00390625,0.013020833,1,0,0,center_square,0,23,23,105,1,,,,,,,,,,,,,,,,,,,,,,,
734095,001,2022-11-21_01h59.33.825,Info_measure_main_exp,2022.2.2,Win32,58.48295222,,,,,,,,,,,,,,,,,,masks/mask_002.jpg,,,,,,,,,,,,,,,,,,,,,,,,,,,,,,,,,,,,,,,,,,,0,0,0,1,1,,,,,,,,,,,,,,,,,,,,,,,,,,,,,,,,,,,,,,,,,,,,,,
734095,001,2022-11-21_01h59.33.825,Info_measure_main_exp,2022.2.2,Win32,58.48295222,,,,,,,,,,,,,,,,,,masks/mask_005.jpg,,,,,,,,,,,,,,,,,,,,,,,,,,,,,,,,,,,,,,,,,,,0,1,1,4,1,,,,,,,,,,,,,,,,,,,,,,,,,,,,,,,,,,,,,,,,,,,,,,
734095,001,2022-11-21_01h59.33.825,Info_measure_main_exp,2022.2.2,Win32,58.48295222,,,,,,,,,,,,,,,,,,masks/mask_001.jpg,,,,,,,,,,,,,,,,,,,,,,,,,,,,,,,,,,,,,,,,,,,0,2,2,0,1,,,,,,,,,,,,,,,,,,,,,,,,,,,,,,,,,,,,,,,,,,,,,,
734095,001,2022-11-21_01h59.33.825,Info_measure_main_exp,2022.2.2,Win32,58.48295222,,,,,,,,,,,,,,,,,,masks/mask_004.jpg,,,,,,,,,,,,,,,,,,,,,,,,,,,,,,,,,,,,,,,,,,,0,3,3,3,1,,,,,,,,,,,,,,,,,,,,,,,,,,,,,,,,,,,,,,,,,,,,,,
734095,001,2022-11-21_01h59.33.825,Info_measure_main_exp,2022.2.2,Win32,58.48295222,,,,,,,,,,,,,,,,,,masks/mask_003.jpg,,,,,,,,,,,,,,,,,,,,,,,,,,,,,,,,,,,,,,,,,,,0,4,4,2,1,,,,,,,,,,,,,,,,,,,,,,,,,,,,,,,,,,,,,,,,,,,,,,
734095,001,2022-11-21_01h59.33.825,Info_measure_main_exp,2022.2.2,Win32,58.48295222,,,,,,,,,,,,,,,,,,masks/mask_001.jpg,,,,,,,,,,,,,,,,,,,,,,,,,,,,,,,,,,,,,,,,,,,,,,,,0,0,0,0,1,,,,,,,,,,,,,,,,,,,,,,,,,,,,,,,,,,,,,,,,,
734095,001,2022-11-21_01h59.33.825,Info_measure_main_exp,2022.2.2,Win32,58.48295222,,,,,,,,,,,,,,,,,,masks/mask_002.jpg,,,,,,,,,,,,,,,,,,,,,,,,,,,,,,,,,,,,,,,,,,,,,,,,0,1,1,1,1,,,,,,,,,,,,,,,,,,,,,,,,,,,,,,,,,,,,,,,,,
734095,001,2022-11-21_01h59.33.825,Info_measure_main_exp,2022.2.2,Win32,58.48295222,,,,,,,,,,,,,,,,,,masks/mask_005.jpg,,,,,,,,,,,,,,,,,,,,,,,,,,,,,,,,,,,,,,,,,,,,,,,,0,2,2,4,1,,,,,,,,,,,,,,,,,,,,,,,,,,,,,,,,,,,,,,,,,
734095,001,2022-11-21_01h59.33.825,Info_measure_main_exp,2022.2.2,Win32,58.48295222,,,,,,,,,,,,,,,,,,masks/mask_004.jpg,,,,,,,,,,,,,,,,,,,,,,,,,,,,,,,,,,,,,,,,,,,,,,,,0,3,3,3,1,,,,,,,,,,,,,,,,,,,,,,,,,,,,,,,,,,,,,,,,,
734095,001,2022-11-21_01h59.33.825,Info_measure_main_exp,2022.2.2,Win32,58.48295222,,,,,,,,,,,,,,,,,,masks/mask_003.jpg,,,,,,,,,,,,,,,,,,,,,,,,,,,,,,,,,,,,,,,,,,,,,,,,0,4,4,2,1,,,,,,,,,,,,,,,,,,,,,,,,,,,,,,,,,,,,,,,,,
734095,001,2022-11-21_01h59.33.825,Info_measure_main_exp,2022.2.2,Win32,58.48295222,,,,,,,,,,,,,,,,,,,,,,,,,,,,,,4,2.7416,1,,,,,,,,,,,,0,131,5,5,2190,1974,absent_patch/patch0002190.jpg,absent_patch/patch0001974.jpg,,,,,,,,,,,,,,,,,,,,0.03515625,-0.126302083,1,0,0,response3disk,25,-0.006510417,0.002604167,1,0,0,center_square,0,24,24,119,1,,,,,,,,,,,,,,,,,,,,,,,
734095,001,2022-11-21_01h59.33.825,Info_measure_main_exp,2022.2.2,Win32,58.48295222,,,,,,,,,,,,,,,,,,masks/mask_004.jpg,,,,,,,,,,,,,,,,,,,,,,,,,,,,,,,,,,,,,,,,,,,0,0,0,3,1,,,,,,,,,,,,,,,,,,,,,,,,,,,,,,,,,,,,,,,,,,,,,,
734095,001,2022-11-21_01h59.33.825,Info_measure_main_exp,2022.2.2,Win32,58.48295222,,,,,,,,,,,,,,,,,,masks/mask_002.jpg,,,,,,,,,,,,,,,,,,,,,,,,,,,,,,,,,,,,,,,,,,,0,1,1,1,1,,,,,,,,,,,,,,,,,,,,,,,,,,,,,,,,,,,,,,,,,,,,,,
734095,001,2022-11-21_01h59.33.825,Info_measure_main_exp,2022.2.2,Win32,58.48295222,,,,,,,,,,,,,,,,,,masks/mask_003.jpg,,,,,,,,,,,,,,,,,,,,,,,,,,,,,,,,,,,,,,,,,,,0,2,2,2,1,,,,,,,,,,,,,,,,,,,,,,,,,,,,,,,,,,,,,,,,,,,,,,
734095,001,2022-11-21_01h59.33.825,Info_measure_main_exp,2022.2.2,Win32,58.48295222,,,,,,,,,,,,,,,,,,masks/mask_005.jpg,,,,,,,,,,,,,,,,,,,,,,,,,,,,,,,,,,,,,,,,,,,0,3,3,4,1,,,,,,,,,,,,,,,,,,,,,,,,,,,,,,,,,,,,,,,,,,,,,,
734095,001,2022-11-21_01h59.33.825,Info_measure_main_exp,2022.2.2,Win32,58.48295222,,,,,,,,,,,,,,,,,,masks/mask_001.jpg,,,,,,,,,,,,,,,,,,,,,,,,,,,,,,,,,,,,,,,,,,,0,4,4,0,1,,,,,,,,,,,,,,,,,,,,,,,,,,,,,,,,,,,,,,,,,,,,,,
734095,001,2022-11-21_01h59.33.825,Info_measure_main_exp,2022.2.2,Win32,58.48295222,,,,,,,,,,,,,,,,,,masks/mask_005.jpg,,,,,,,,,,,,,,,,,,,,,,,,,,,,,,,,,,,,,,,,,,,,,,,,0,0,0,4,1,,,,,,,,,,,,,,,,,,,,,,,,,,,,,,,,,,,,,,,,,
734095,001,2022-11-21_01h59.33.825,Info_measure_main_exp,2022.2.2,Win32,58.48295222,,,,,,,,,,,,,,,,,,masks/mask_003.jpg,,,,,,,,,,,,,,,,,,,,,,,,,,,,,,,,,,,,,,,,,,,,,,,,0,1,1,2,1,,,,,,,,,,,,,,,,,,,,,,,,,,,,,,,,,,,,,,,,,
734095,001,2022-11-21_01h59.33.825,Info_measure_main_exp,2022.2.2,Win32,58.48295222,,,,,,,,,,,,,,,,,,masks/mask_001.jpg,,,,,,,,,,,,,,,,,,,,,,,,,,,,,,,,,,,,,,,,,,,,,,,,0,2,2,0,1,,,,,,,,,,,,,,,,,,,,,,,,,,,,,,,,,,,,,,,,,
734095,001,2022-11-21_01h59.33.825,Info_measure_main_exp,2022.2.2,Win32,58.48295222,,,,,,,,,,,,,,,,,,masks/mask_004.jpg,,,,,,,,,,,,,,,,,,,,,,,,,,,,,,,,,,,,,,,,,,,,,,,,0,3,3,3,1,,,,,,,,,,,,,,,,,,,,,,,,,,,,,,,,,,,,,,,,,
734095,001,2022-11-21_01h59.33.825,Info_measure_main_exp,2022.2.2,Win32,58.48295222,,,,,,,,,,,,,,,,,,masks/mask_002.jpg,,,,,,,,,,,,,,,,,,,,,,,,,,,,,,,,,,,,,,,,,,,,,,,,0,4,4,1,1,,,,,,,,,,,,,,,,,,,,,,,,,,,,,,,,,,,,,,,,,
734095,001,2022-11-21_01h59.33.825,Info_measure_main_exp,2022.2.2,Win32,58.48295222,,,,,,,,,,,,,,,,,,,,,,,,,,,,,,7,2.0333,1,,,,,,,,,,,,0,131,5,5,2298,1986,absent_patch/patch0002298.jpg,absent_patch/patch0001986.jpg,,,,,,,,,,,,,,,,,,,,0.036458333,0.102864583,1,0,0,response1disk,26,-0.013020833,-0.001302083,1,0,0,center_square,0,25,25,32,1,,,,,,,,,,,,,,,,,,,,,,,
734095,001,2022-11-21_01h59.33.825,Info_measure_main_exp,2022.2.2,Win32,58.48295222,,,,,,,,,,,,,,,,,,masks/mask_002.jpg,,,,,,,,,,,,,,,,,,,,,,,,,,,,,,,,,,,,,,,,,,,0,0,0,1,1,,,,,,,,,,,,,,,,,,,,,,,,,,,,,,,,,,,,,,,,,,,,,,
734095,001,2022-11-21_01h59.33.825,Info_measure_main_exp,2022.2.2,Win32,58.48295222,,,,,,,,,,,,,,,,,,masks/mask_004.jpg,,,,,,,,,,,,,,,,,,,,,,,,,,,,,,,,,,,,,,,,,,,0,1,1,3,1,,,,,,,,,,,,,,,,,,,,,,,,,,,,,,,,,,,,,,,,,,,,,,
734095,001,2022-11-21_01h59.33.825,Info_measure_main_exp,2022.2.2,Win32,58.48295222,,,,,,,,,,,,,,,,,,masks/mask_001.jpg,,,,,,,,,,,,,,,,,,,,,,,,,,,,,,,,,,,,,,,,,,,0,2,2,0,1,,,,,,,,,,,,,,,,,,,,,,,,,,,,,,,,,,,,,,,,,,,,,,
734095,001,2022-11-21_01h59.33.825,Info_measure_main_exp,2022.2.2,Win32,58.48295222,,,,,,,,,,,,,,,,,,masks/mask_005.jpg,,,,,,,,,,,,,,,,,,,,,,,,,,,,,,,,,,,,,,,,,,,0,3,3,4,1,,,,,,,,,,,,,,,,,,,,,,,,,,,,,,,,,,,,,,,,,,,,,,
734095,001,2022-11-21_01h59.33.825,Info_measure_main_exp,2022.2.2,Win32,58.48295222,,,,,,,,,,,,,,,,,,masks/mask_003.jpg,,,,,,,,,,,,,,,,,,,,,,,,,,,,,,,,,,,,,,,,,,,0,4,4,2,1,,,,,,,,,,,,,,,,,,,,,,,,,,,,,,,,,,,,,,,,,,,,,,
734095,001,2022-11-21_01h59.33.825,Info_measure_main_exp,2022.2.2,Win32,58.48295222,,,,,,,,,,,,,,,,,,masks/mask_003.jpg,,,,,,,,,,,,,,,,,,,,,,,,,,,,,,,,,,,,,,,,,,,,,,,,0,0,0,2,1,,,,,,,,,,,,,,,,,,,,,,,,,,,,,,,,,,,,,,,,,
734095,001,2022-11-21_01h59.33.825,Info_measure_main_exp,2022.2.2,Win32,58.48295222,,,,,,,,,,,,,,,,,,masks/mask_002.jpg,,,,,,,,,,,,,,,,,,,,,,,,,,,,,,,,,,,,,,,,,,,,,,,,0,1,1,1,1,,,,,,,,,,,,,,,,,,,,,,,,,,,,,,,,,,,,,,,,,
734095,001,2022-11-21_01h59.33.825,Info_measure_main_exp,2022.2.2,Win32,58.48295222,,,,,,,,,,,,,,,,,,masks/mask_004.jpg,,,,,,,,,,,,,,,,,,,,,,,,,,,,,,,,,,,,,,,,,,,,,,,,0,2,2,3,1,,,,,,,,,,,,,,,,,,,,,,,,,,,,,,,,,,,,,,,,,
734095,001,2022-11-21_01h59.33.825,Info_measure_main_exp,2022.2.2,Win32,58.48295222,,,,,,,,,,,,,,,,,,masks/mask_001.jpg,,,,,,,,,,,,,,,,,,,,,,,,,,,,,,,,,,,,,,,,,,,,,,,,0,3,3,0,1,,,,,,,,,,,,,,,,,,,,,,,,,,,,,,,,,,,,,,,,,
734095,001,2022-11-21_01h59.33.825,Info_measure_main_exp,2022.2.2,Win32,58.48295222,,,,,,,,,,,,,,,,,,masks/mask_005.jpg,,,,,,,,,,,,,,,,,,,,,,,,,,,,,,,,,,,,,,,,,,,,,,,,0,4,4,4,1,,,,,,,,,,,,,,,,,,,,,,,,,,,,,,,,,,,,,,,,,
734095,001,2022-11-21_01h59.33.825,Info_measure_main_exp,2022.2.2,Win32,58.48295222,,,,,,,,,,,,,,,,,,,,,,,,,,,,,,3,4.7926,1,,,,,,,,,,,,0,131,5,5,2250,2298,absent_patch/patch0002250.jpg,absent_patch/patch0002298.jpg,,,,,,,,,,,,,,,,,,,,-0.0546875,-0.098958333,1,0,0,response5disk,27,-0.00390625,0.0078125,1,0,0,center_square,0,26,26,59,1,,,,,,,,,,,,,,,,,,,,,,,
734095,001,2022-11-21_01h59.33.825,Info_measure_main_exp,2022.2.2,Win32,58.48295222,,,,,,,,,,,,,,,,,,masks/mask_001.jpg,,,,,,,,,,,,,,,,,,,,,,,,,,,,,,,,,,,,,,,,,,,0,0,0,0,1,,,,,,,,,,,,,,,,,,,,,,,,,,,,,,,,,,,,,,,,,,,,,,
734095,001,2022-11-21_01h59.33.825,Info_measure_main_exp,2022.2.2,Win32,58.48295222,,,,,,,,,,,,,,,,,,masks/mask_002.jpg,,,,,,,,,,,,,,,,,,,,,,,,,,,,,,,,,,,,,,,,,,,0,1,1,1,1,,,,,,,,,,,,,,,,,,,,,,,,,,,,,,,,,,,,,,,,,,,,,,
734095,001,2022-11-21_01h59.33.825,Info_measure_main_exp,2022.2.2,Win32,58.48295222,,,,,,,,,,,,,,,,,,masks/mask_004.jpg,,,,,,,,,,,,,,,,,,,,,,,,,,,,,,,,,,,,,,,,,,,0,2,2,3,1,,,,,,,,,,,,,,,,,,,,,,,,,,,,,,,,,,,,,,,,,,,,,,
734095,001,2022-11-21_01h59.33.825,Info_measure_main_exp,2022.2.2,Win32,58.48295222,,,,,,,,,,,,,,,,,,masks/mask_005.jpg,,,,,,,,,,,,,,,,,,,,,,,,,,,,,,,,,,,,,,,,,,,0,3,3,4,1,,,,,,,,,,,,,,,,,,,,,,,,,,,,,,,,,,,,,,,,,,,,,,
734095,001,2022-11-21_01h59.33.825,Info_measure_main_exp,2022.2.2,Win32,58.48295222,,,,,,,,,,,,,,,,,,masks/mask_003.jpg,,,,,,,,,,,,,,,,,,,,,,,,,,,,,,,,,,,,,,,,,,,0,4,4,2,1,,,,,,,,,,,,,,,,,,,,,,,,,,,,,,,,,,,,,,,,,,,,,,
734095,001,2022-11-21_01h59.33.825,Info_measure_main_exp,2022.2.2,Win32,58.48295222,,,,,,,,,,,,,,,,,,masks/mask_001.jpg,,,,,,,,,,,,,,,,,,,,,,,,,,,,,,,,,,,,,,,,,,,,,,,,0,0,0,0,1,,,,,,,,,,,,,,,,,,,,,,,,,,,,,,,,,,,,,,,,,
734095,001,2022-11-21_01h59.33.825,Info_measure_main_exp,2022.2.2,Win32,58.48295222,,,,,,,,,,,,,,,,,,masks/mask_004.jpg,,,,,,,,,,,,,,,,,,,,,,,,,,,,,,,,,,,,,,,,,,,,,,,,0,1,1,3,1,,,,,,,,,,,,,,,,,,,,,,,,,,,,,,,,,,,,,,,,,
734095,001,2022-11-21_01h59.33.825,Info_measure_main_exp,2022.2.2,Win32,58.48295222,,,,,,,,,,,,,,,,,,masks/mask_005.jpg,,,,,,,,,,,,,,,,,,,,,,,,,,,,,,,,,,,,,,,,,,,,,,,,0,2,2,4,1,,,,,,,,,,,,,,,,,,,,,,,,,,,,,,,,,,,,,,,,,
734095,001,2022-11-21_01h59.33.825,Info_measure_main_exp,2022.2.2,Win32,58.48295222,,,,,,,,,,,,,,,,,,masks/mask_002.jpg,,,,,,,,,,,,,,,,,,,,,,,,,,,,,,,,,,,,,,,,,,,,,,,,0,3,3,1,1,,,,,,,,,,,,,,,,,,,,,,,,,,,,,,,,,,,,,,,,,
734095,001,2022-11-21_01h59.33.825,Info_measure_main_exp,2022.2.2,Win32,58.48295222,,,,,,,,,,,,,,,,,,masks/mask_003.jpg,,,,,,,,,,,,,,,,,,,,,,,,,,,,,,,,,,,,,,,,,,,,,,,,0,4,4,2,1,,,,,,,,,,,,,,,,,,,,,,,,,,,,,,,,,,,,,,,,,
734095,001,2022-11-21_01h59.33.825,Info_measure_main_exp,2022.2.2,Win32,58.48295222,,,,,,,,,,,,,,,,,,,,,,,,,,,,,,3,1.9176,1,,,,,,,,,,,,0,131,5,5,2142,2166,absent_patch/patch0002142.jpg,absent_patch/patch0002166.jpg,,,,,,,,,,,,,,,,,,,,-0.024739583,-0.029947917,1,0,0,response5disk,28,-0.0078125,0.00390625,1,0,0,center_square,0,27,27,66,1,,,,,,,,,,,,,,,,,,,,,,,
734095,001,2022-11-21_01h59.33.825,Info_measure_main_exp,2022.2.2,Win32,58.48295222,,,,,,,,,,,,,,,,,,masks/mask_005.jpg,,,,,,,,,,,,,,,,,,,,,,,,,,,,,,,,,,,,,,,,,,,0,0,0,4,1,,,,,,,,,,,,,,,,,,,,,,,,,,,,,,,,,,,,,,,,,,,,,,
734095,001,2022-11-21_01h59.33.825,Info_measure_main_exp,2022.2.2,Win32,58.48295222,,,,,,,,,,,,,,,,,,masks/mask_004.jpg,,,,,,,,,,,,,,,,,,,,,,,,,,,,,,,,,,,,,,,,,,,0,1,1,3,1,,,,,,,,,,,,,,,,,,,,,,,,,,,,,,,,,,,,,,,,,,,,,,
734095,001,2022-11-21_01h59.33.825,Info_measure_main_exp,2022.2.2,Win32,58.48295222,,,,,,,,,,,,,,,,,,masks/mask_002.jpg,,,,,,,,,,,,,,,,,,,,,,,,,,,,,,,,,,,,,,,,,,,0,2,2,1,1,,,,,,,,,,,,,,,,,,,,,,,,,,,,,,,,,,,,,,,,,,,,,,
734095,001,2022-11-21_01h59.33.825,Info_measure_main_exp,2022.2.2,Win32,58.48295222,,,,,,,,,,,,,,,,,,masks/mask_003.jpg,,,,,,,,,,,,,,,,,,,,,,,,,,,,,,,,,,,,,,,,,,,0,3,3,2,1,,,,,,,,,,,,,,,,,,,,,,,,,,,,,,,,,,,,,,,,,,,,,,
734095,001,2022-11-21_01h59.33.825,Info_measure_main_exp,2022.2.2,Win32,58.48295222,,,,,,,,,,,,,,,,,,masks/mask_001.jpg,,,,,,,,,,,,,,,,,,,,,,,,,,,,,,,,,,,,,,,,,,,0,4,4,0,1,,,,,,,,,,,,,,,,,,,,,,,,,,,,,,,,,,,,,,,,,,,,,,
734095,001,2022-11-21_01h59.33.825,Info_measure_main_exp,2022.2.2,Win32,58.48295222,,,,,,,,,,,,,,,,,,masks/mask_002.jpg,,,,,,,,,,,,,,,,,,,,,,,,,,,,,,,,,,,,,,,,,,,,,,,,0,0,0,1,1,,,,,,,,,,,,,,,,,,,,,,,,,,,,,,,,,,,,,,,,,
734095,001,2022-11-21_01h59.33.825,Info_measure_main_exp,2022.2.2,Win32,58.48295222,,,,,,,,,,,,,,,,,,masks/mask_004.jpg,,,,,,,,,,,,,,,,,,,,,,,,,,,,,,,,,,,,,,,,,,,,,,,,0,1,1,3,1,,,,,,,,,,,,,,,,,,,,,,,,,,,,,,,,,,,,,,,,,
734095,001,2022-11-21_01h59.33.825,Info_measure_main_exp,2022.2.2,Win32,58.48295222,,,,,,,,,,,,,,,,,,masks/mask_005.jpg,,,,,,,,,,,,,,,,,,,,,,,,,,,,,,,,,,,,,,,,,,,,,,,,0,2,2,4,1,,,,,,,,,,,,,,,,,,,,,,,,,,,,,,,,,,,,,,,,,
734095,001,2022-11-21_01h59.33.825,Info_measure_main_exp,2022.2.2,Win32,58.48295222,,,,,,,,,,,,,,,,,,masks/mask_001.jpg,,,,,,,,,,,,,,,,,,,,,,,,,,,,,,,,,,,,,,,,,,,,,,,,0,3,3,0,1,,,,,,,,,,,,,,,,,,,,,,,,,,,,,,,,,,,,,,,,,
734095,001,2022-11-21_01h59.33.825,Info_measure_main_exp,2022.2.2,Win32,58.48295222,,,,,,,,,,,,,,,,,,masks/mask_003.jpg,,,,,,,,,,,,,,,,,,,,,,,,,,,,,,,,,,,,,,,,,,,,,,,,0,4,4,2,1,,,,,,,,,,,,,,,,,,,,,,,,,,,,,,,,,,,,,,,,,
734095,001,2022-11-21_01h59.33.825,Info_measure_main_exp,2022.2.2,Win32,58.48295222,,,,,,,,,,,,,,,,,,,,,,,,,,,,,,1,7.1775,1,,,,,,,,,,,,1,131,5,5,1,2154,present_patch/cong_131_5_a.jpg,absent_patch/patch0002154.jpg,,,,,,,,,,,,,,,,,,,,-0.0234375,0.00390625,1,0,0,response7disk,29,0.002604167,0.014322917,1,0,0,center_square,0,28,28,87,1,,,,,,,,,,,,,,,,,,,,,,,
734095,001,2022-11-21_01h59.33.825,Info_measure_main_exp,2022.2.2,Win32,58.48295222,,,,,,,,,,,,,,,,,,masks/mask_001.jpg,,,,,,,,,,,,,,,,,,,,,,,,,,,,,,,,,,,,,,,,,,,0,0,0,0,1,,,,,,,,,,,,,,,,,,,,,,,,,,,,,,,,,,,,,,,,,,,,,,
734095,001,2022-11-21_01h59.33.825,Info_measure_main_exp,2022.2.2,Win32,58.48295222,,,,,,,,,,,,,,,,,,masks/mask_003.jpg,,,,,,,,,,,,,,,,,,,,,,,,,,,,,,,,,,,,,,,,,,,0,1,1,2,1,,,,,,,,,,,,,,,,,,,,,,,,,,,,,,,,,,,,,,,,,,,,,,
734095,001,2022-11-21_01h59.33.825,Info_measure_main_exp,2022.2.2,Win32,58.48295222,,,,,,,,,,,,,,,,,,masks/mask_005.jpg,,,,,,,,,,,,,,,,,,,,,,,,,,,,,,,,,,,,,,,,,,,0,2,2,4,1,,,,,,,,,,,,,,,,,,,,,,,,,,,,,,,,,,,,,,,,,,,,,,
734095,001,2022-11-21_01h59.33.825,Info_measure_main_exp,2022.2.2,Win32,58.48295222,,,,,,,,,,,,,,,,,,masks/mask_002.jpg,,,,,,,,,,,,,,,,,,,,,,,,,,,,,,,,,,,,,,,,,,,0,3,3,1,1,,,,,,,,,,,,,,,,,,,,,,,,,,,,,,,,,,,,,,,,,,,,,,
734095,001,2022-11-21_01h59.33.825,Info_measure_main_exp,2022.2.2,Win32,58.48295222,,,,,,,,,,,,,,,,,,masks/mask_004.jpg,,,,,,,,,,,,,,,,,,,,,,,,,,,,,,,,,,,,,,,,,,,0,4,4,3,1,,,,,,,,,,,,,,,,,,,,,,,,,,,,,,,,,,,,,,,,,,,,,,
734095,001,2022-11-21_01h59.33.825,Info_measure_main_exp,2022.2.2,Win32,58.48295222,,,,,,,,,,,,,,,,,,masks/mask_001.jpg,,,,,,,,,,,,,,,,,,,,,,,,,,,,,,,,,,,,,,,,,,,,,,,,0,0,0,0,1,,,,,,,,,,,,,,,,,,,,,,,,,,,,,,,,,,,,,,,,,
734095,001,2022-11-21_01h59.33.825,Info_measure_main_exp,2022.2.2,Win32,58.48295222,,,,,,,,,,,,,,,,,,masks/mask_004.jpg,,,,,,,,,,,,,,,,,,,,,,,,,,,,,,,,,,,,,,,,,,,,,,,,0,1,1,3,1,,,,,,,,,,,,,,,,,,,,,,,,,,,,,,,,,,,,,,,,,
734095,001,2022-11-21_01h59.33.825,Info_measure_main_exp,2022.2.2,Win32,58.48295222,,,,,,,,,,,,,,,,,,masks/mask_002.jpg,,,,,,,,,,,,,,,,,,,,,,,,,,,,,,,,,,,,,,,,,,,,,,,,0,2,2,1,1,,,,,,,,,,,,,,,,,,,,,,,,,,,,,,,,,,,,,,,,,
734095,001,2022-11-21_01h59.33.825,Info_measure_main_exp,2022.2.2,Win32,58.48295222,,,,,,,,,,,,,,,,,,masks/mask_005.jpg,,,,,,,,,,,,,,,,,,,,,,,,,,,,,,,,,,,,,,,,,,,,,,,,0,3,3,4,1,,,,,,,,,,,,,,,,,,,,,,,,,,,,,,,,,,,,,,,,,
734095,001,2022-11-21_01h59.33.825,Info_measure_main_exp,2022.2.2,Win32,58.48295222,,,,,,,,,,,,,,,,,,masks/mask_003.jpg,,,,,,,,,,,,,,,,,,,,,,,,,,,,,,,,,,,,,,,,,,,,,,,,0,4,4,2,1,,,,,,,,,,,,,,,,,,,,,,,,,,,,,,,,,,,,,,,,,
734095,001,2022-11-21_01h59.33.825,Info_measure_main_exp,2022.2.2,Win32,58.48295222,,,,,,,,,,,,,,,,,,,,,,,,,,,,,,7,1.0944,1,,,,,,,,,,,,0,131,5,5,2154,2214,absent_patch/patch0002154.jpg,absent_patch/patch0002214.jpg,,,,,,,,,,,,,,,,,,,,0.041666667,0.104166667,1,0,0,response1disk,30,-0.014322917,0.006510417,1,0,0,center_square,0,29,29,67,1,,,,,,,,,,,,,,,,,,,,,,,
734095,001,2022-11-21_01h59.33.825,Info_measure_main_exp,2022.2.2,Win32,58.48295222,,,,,,,,,,,,,,,,,,masks/mask_003.jpg,,,,,,,,,,,,,,,,,,,,,,,,,,,,,,,,,,,,,,,,,,,0,0,0,2,1,,,,,,,,,,,,,,,,,,,,,,,,,,,,,,,,,,,,,,,,,,,,,,
734095,001,2022-11-21_01h59.33.825,Info_measure_main_exp,2022.2.2,Win32,58.48295222,,,,,,,,,,,,,,,,,,masks/mask_001.jpg,,,,,,,,,,,,,,,,,,,,,,,,,,,,,,,,,,,,,,,,,,,0,1,1,0,1,,,,,,,,,,,,,,,,,,,,,,,,,,,,,,,,,,,,,,,,,,,,,,
734095,001,2022-11-21_01h59.33.825,Info_measure_main_exp,2022.2.2,Win32,58.48295222,,,,,,,,,,,,,,,,,,masks/mask_004.jpg,,,,,,,,,,,,,,,,,,,,,,,,,,,,,,,,,,,,,,,,,,,0,2,2,3,1,,,,,,,,,,,,,,,,,,,,,,,,,,,,,,,,,,,,,,,,,,,,,,
734095,001,2022-11-21_01h59.33.825,Info_measure_main_exp,2022.2.2,Win32,58.48295222,,,,,,,,,,,,,,,,,,masks/mask_002.jpg,,,,,,,,,,,,,,,,,,,,,,,,,,,,,,,,,,,,,,,,,,,0,3,3,1,1,,,,,,,,,,,,,,,,,,,,,,,,,,,,,,,,,,,,,,,,,,,,,,
734095,001,2022-11-21_01h59.33.825,Info_measure_main_exp,2022.2.2,Win32,58.48295222,,,,,,,,,,,,,,,,,,masks/mask_005.jpg,,,,,,,,,,,,,,,,,,,,,,,,,,,,,,,,,,,,,,,,,,,0,4,4,4,1,,,,,,,,,,,,,,,,,,,,,,,,,,,,,,,,,,,,,,,,,,,,,,
734095,001,2022-11-21_01h59.33.825,Info_measure_main_exp,2022.2.2,Win32,58.48295222,,,,,,,,,,,,,,,,,,masks/mask_003.jpg,,,,,,,,,,,,,,,,,,,,,,,,,,,,,,,,,,,,,,,,,,,,,,,,0,0,0,2,1,,,,,,,,,,,,,,,,,,,,,,,,,,,,,,,,,,,,,,,,,
734095,001,2022-11-21_01h59.33.825,Info_measure_main_exp,2022.2.2,Win32,58.48295222,,,,,,,,,,,,,,,,,,masks/mask_004.jpg,,,,,,,,,,,,,,,,,,,,,,,,,,,,,,,,,,,,,,,,,,,,,,,,0,1,1,3,1,,,,,,,,,,,,,,,,,,,,,,,,,,,,,,,,,,,,,,,,,
734095,001,2022-11-21_01h59.33.825,Info_measure_main_exp,2022.2.2,Win32,58.48295222,,,,,,,,,,,,,,,,,,masks/mask_002.jpg,,,,,,,,,,,,,,,,,,,,,,,,,,,,,,,,,,,,,,,,,,,,,,,,0,2,2,1,1,,,,,,,,,,,,,,,,,,,,,,,,,,,,,,,,,,,,,,,,,
734095,001,2022-11-21_01h59.33.825,Info_measure_main_exp,2022.2.2,Win32,58.48295222,,,,,,,,,,,,,,,,,,masks/mask_005.jpg,,,,,,,,,,,,,,,,,,,,,,,,,,,,,,,,,,,,,,,,,,,,,,,,0,3,3,4,1,,,,,,,,,,,,,,,,,,,,,,,,,,,,,,,,,,,,,,,,,
734095,001,2022-11-21_01h59.33.825,Info_measure_main_exp,2022.2.2,Win32,58.48295222,,,,,,,,,,,,,,,,,,masks/mask_001.jpg,,,,,,,,,,,,,,,,,,,,,,,,,,,,,,,,,,,,,,,,,,,,,,,,0,4,4,0,1,,,,,,,,,,,,,,,,,,,,,,,,,,,,,,,,,,,,,,,,,
734095,001,2022-11-21_01h59.33.825,Info_measure_main_exp,2022.2.2,Win32,58.48295222,,,,,,,,,,,,,,,,,,,,,,,,,,,,,,7,1.3,1,,,,,,,,,,,,0,131,5,5,2250,2166,absent_patch/patch0002250.jpg,absent_patch/patch0002166.jpg,,,,,,,,,,,,,,,,,,,,0.001302083,0.057291667,1,0,0,response1disk,31,-0.014322917,0,1,0,0,center_square,0,30,30,60,1,,,,,,,,,,,,,,,,,,,,,,,
734095,001,2022-11-21_01h59.33.825,Info_measure_main_exp,2022.2.2,Win32,58.48295222,,,,,,,,,,,,,,,,,,masks/mask_003.jpg,,,,,,,,,,,,,,,,,,,,,,,,,,,,,,,,,,,,,,,,,,,0,0,0,2,1,,,,,,,,,,,,,,,,,,,,,,,,,,,,,,,,,,,,,,,,,,,,,,
734095,001,2022-11-21_01h59.33.825,Info_measure_main_exp,2022.2.2,Win32,58.48295222,,,,,,,,,,,,,,,,,,masks/mask_005.jpg,,,,,,,,,,,,,,,,,,,,,,,,,,,,,,,,,,,,,,,,,,,0,1,1,4,1,,,,,,,,,,,,,,,,,,,,,,,,,,,,,,,,,,,,,,,,,,,,,,
734095,001,2022-11-21_01h59.33.825,Info_measure_main_exp,2022.2.2,Win32,58.48295222,,,,,,,,,,,,,,,,,,masks/mask_004.jpg,,,,,,,,,,,,,,,,,,,,,,,,,,,,,,,,,,,,,,,,,,,0,2,2,3,1,,,,,,,,,,,,,,,,,,,,,,,,,,,,,,,,,,,,,,,,,,,,,,
734095,001,2022-11-21_01h59.33.825,Info_measure_main_exp,2022.2.2,Win32,58.48295222,,,,,,,,,,,,,,,,,,masks/mask_002.jpg,,,,,,,,,,,,,,,,,,,,,,,,,,,,,,,,,,,,,,,,,,,0,3,3,1,1,,,,,,,,,,,,,,,,,,,,,,,,,,,,,,,,,,,,,,,,,,,,,,
734095,001,2022-11-21_01h59.33.825,Info_measure_main_exp,2022.2.2,Win32,58.48295222,,,,,,,,,,,,,,,,,,masks/mask_001.jpg,,,,,,,,,,,,,,,,,,,,,,,,,,,,,,,,,,,,,,,,,,,0,4,4,0,1,,,,,,,,,,,,,,,,,,,,,,,,,,,,,,,,,,,,,,,,,,,,,,
734095,001,2022-11-21_01h59.33.825,Info_measure_main_exp,2022.2.2,Win32,58.48295222,,,,,,,,,,,,,,,,,,masks/mask_003.jpg,,,,,,,,,,,,,,,,,,,,,,,,,,,,,,,,,,,,,,,,,,,,,,,,0,0,0,2,1,,,,,,,,,,,,,,,,,,,,,,,,,,,,,,,,,,,,,,,,,
734095,001,2022-11-21_01h59.33.825,Info_measure_main_exp,2022.2.2,Win32,58.48295222,,,,,,,,,,,,,,,,,,masks/mask_002.jpg,,,,,,,,,,,,,,,,,,,,,,,,,,,,,,,,,,,,,,,,,,,,,,,,0,1,1,1,1,,,,,,,,,,,,,,,,,,,,,,,,,,,,,,,,,,,,,,,,,
734095,001,2022-11-21_01h59.33.825,Info_measure_main_exp,2022.2.2,Win32,58.48295222,,,,,,,,,,,,,,,,,,masks/mask_001.jpg,,,,,,,,,,,,,,,,,,,,,,,,,,,,,,,,,,,,,,,,,,,,,,,,0,2,2,0,1,,,,,,,,,,,,,,,,,,,,,,,,,,,,,,,,,,,,,,,,,
734095,001,2022-11-21_01h59.33.825,Info_measure_main_exp,2022.2.2,Win32,58.48295222,,,,,,,,,,,,,,,,,,masks/mask_005.jpg,,,,,,,,,,,,,,,,,,,,,,,,,,,,,,,,,,,,,,,,,,,,,,,,0,3,3,4,1,,,,,,,,,,,,,,,,,,,,,,,,,,,,,,,,,,,,,,,,,
734095,001,2022-11-21_01h59.33.825,Info_measure_main_exp,2022.2.2,Win32,58.48295222,,,,,,,,,,,,,,,,,,masks/mask_004.jpg,,,,,,,,,,,,,,,,,,,,,,,,,,,,,,,,,,,,,,,,,,,,,,,,0,4,4,3,1,,,,,,,,,,,,,,,,,,,,,,,,,,,,,,,,,,,,,,,,,
734095,001,2022-11-21_01h59.33.825,Info_measure_main_exp,2022.2.2,Win32,58.48295222,,,,,,,,,,,,,,,,,,,,,,,,,,,,,,3,8.5518,1,,,,,,,,,,,,0,131,5,5,2190,2214,absent_patch/patch0002190.jpg,absent_patch/patch0002214.jpg,,,,,,,,,,,,,,,,,,,,-0.05078125,-0.08984375,1,0,0,response5disk,32,-0.005208333,0.01171875,1,0,0,center_square,0,31,31,35,1,,,,,,,,,,,,,,,,,,,,,,,
734095,001,2022-11-21_01h59.33.825,Info_measure_main_exp,2022.2.2,Win32,58.48295222,,,,,,,,,,,,,,,,,,masks/mask_001.jpg,,,,,,,,,,,,,,,,,,,,,,,,,,,,,,,,,,,,,,,,,,,0,0,0,0,1,,,,,,,,,,,,,,,,,,,,,,,,,,,,,,,,,,,,,,,,,,,,,,
734095,001,2022-11-21_01h59.33.825,Info_measure_main_exp,2022.2.2,Win32,58.48295222,,,,,,,,,,,,,,,,,,masks/mask_002.jpg,,,,,,,,,,,,,,,,,,,,,,,,,,,,,,,,,,,,,,,,,,,0,1,1,1,1,,,,,,,,,,,,,,,,,,,,,,,,,,,,,,,,,,,,,,,,,,,,,,
734095,001,2022-11-21_01h59.33.825,Info_measure_main_exp,2022.2.2,Win32,58.48295222,,,,,,,,,,,,,,,,,,masks/mask_004.jpg,,,,,,,,,,,,,,,,,,,,,,,,,,,,,,,,,,,,,,,,,,,0,2,2,3,1,,,,,,,,,,,,,,,,,,,,,,,,,,,,,,,,,,,,,,,,,,,,,,
734095,001,2022-11-21_01h59.33.825,Info_measure_main_exp,2022.2.2,Win32,58.48295222,,,,,,,,,,,,,,,,,,masks/mask_003.jpg,,,,,,,,,,,,,,,,,,,,,,,,,,,,,,,,,,,,,,,,,,,0,3,3,2,1,,,,,,,,,,,,,,,,,,,,,,,,,,,,,,,,,,,,,,,,,,,,,,
734095,001,2022-11-21_01h59.33.825,Info_measure_main_exp,2022.2.2,Win32,58.48295222,,,,,,,,,,,,,,,,,,masks/mask_005.jpg,,,,,,,,,,,,,,,,,,,,,,,,,,,,,,,,,,,,,,,,,,,0,4,4,4,1,,,,,,,,,,,,,,,,,,,,,,,,,,,,,,,,,,,,,,,,,,,,,,
734095,001,2022-11-21_01h59.33.825,Info_measure_main_exp,2022.2.2,Win32,58.48295222,,,,,,,,,,,,,,,,,,masks/mask_003.jpg,,,,,,,,,,,,,,,,,,,,,,,,,,,,,,,,,,,,,,,,,,,,,,,,0,0,0,2,1,,,,,,,,,,,,,,,,,,,,,,,,,,,,,,,,,,,,,,,,,
734095,001,2022-11-21_01h59.33.825,Info_measure_main_exp,2022.2.2,Win32,58.48295222,,,,,,,,,,,,,,,,,,masks/mask_002.jpg,,,,,,,,,,,,,,,,,,,,,,,,,,,,,,,,,,,,,,,,,,,,,,,,0,1,1,1,1,,,,,,,,,,,,,,,,,,,,,,,,,,,,,,,,,,,,,,,,,
734095,001,2022-11-21_01h59.33.825,Info_measure_main_exp,2022.2.2,Win32,58.48295222,,,,,,,,,,,,,,,,,,masks/mask_004.jpg,,,,,,,,,,,,,,,,,,,,,,,,,,,,,,,,,,,,,,,,,,,,,,,,0,2,2,3,1,,,,,,,,,,,,,,,,,,,,,,,,,,,,,,,,,,,,,,,,,
734095,001,2022-11-21_01h59.33.825,Info_measure_main_exp,2022.2.2,Win32,58.48295222,,,,,,,,,,,,,,,,,,masks/mask_005.jpg,,,,,,,,,,,,,,,,,,,,,,,,,,,,,,,,,,,,,,,,,,,,,,,,0,3,3,4,1,,,,,,,,,,,,,,,,,,,,,,,,,,,,,,,,,,,,,,,,,
734095,001,2022-11-21_01h59.33.825,Info_measure_main_exp,2022.2.2,Win32,58.48295222,,,,,,,,,,,,,,,,,,masks/mask_001.jpg,,,,,,,,,,,,,,,,,,,,,,,,,,,,,,,,,,,,,,,,,,,,,,,,0,4,4,0,1,,,,,,,,,,,,,,,,,,,,,,,,,,,,,,,,,,,,,,,,,
734095,001,2022-11-21_01h59.33.825,Info_measure_main_exp,2022.2.2,Win32,58.48295222,,,,,,,,,,,,,,,,,,,,,,,,,,,,,,7,2.2091,1,,,,,,,,,,,,1,131,5,5,1950,1,absent_patch/patch0001950.jpg,present_patch/cong_131_5_a.jpg,,,,,,,,,,,,,,,,,,,,0.03515625,0.09765625,1,0,0,response1disk,33,-0.014322917,0.01171875,1,0,0,center_square,0,32,32,39,1,,,,,,,,,,,,,,,,,,,,,,,
734095,001,2022-11-21_01h59.33.825,Info_measure_main_exp,2022.2.2,Win32,58.48295222,,,,,,,,,,,,,,,,,,masks/mask_001.jpg,,,,,,,,,,,,,,,,,,,,,,,,,,,,,,,,,,,,,,,,,,,0,0,0,0,1,,,,,,,,,,,,,,,,,,,,,,,,,,,,,,,,,,,,,,,,,,,,,,
734095,001,2022-11-21_01h59.33.825,Info_measure_main_exp,2022.2.2,Win32,58.48295222,,,,,,,,,,,,,,,,,,masks/mask_005.jpg,,,,,,,,,,,,,,,,,,,,,,,,,,,,,,,,,,,,,,,,,,,0,1,1,4,1,,,,,,,,,,,,,,,,,,,,,,,,,,,,,,,,,,,,,,,,,,,,,,
734095,001,2022-11-21_01h59.33.825,Info_measure_main_exp,2022.2.2,Win32,58.48295222,,,,,,,,,,,,,,,,,,masks/mask_002.jpg,,,,,,,,,,,,,,,,,,,,,,,,,,,,,,,,,,,,,,,,,,,0,2,2,1,1,,,,,,,,,,,,,,,,,,,,,,,,,,,,,,,,,,,,,,,,,,,,,,
734095,001,2022-11-21_01h59.33.825,Info_measure_main_exp,2022.2.2,Win32,58.48295222,,,,,,,,,,,,,,,,,,masks/mask_003.jpg,,,,,,,,,,,,,,,,,,,,,,,,,,,,,,,,,,,,,,,,,,,0,3,3,2,1,,,,,,,,,,,,,,,,,,,,,,,,,,,,,,,,,,,,,,,,,,,,,,
734095,001,2022-11-21_01h59.33.825,Info_measure_main_exp,2022.2.2,Win32,58.48295222,,,,,,,,,,,,,,,,,,masks/mask_004.jpg,,,,,,,,,,,,,,,,,,,,,,,,,,,,,,,,,,,,,,,,,,,0,4,4,3,1,,,,,,,,,,,,,,,,,,,,,,,,,,,,,,,,,,,,,,,,,,,,,,
734095,001,2022-11-21_01h59.33.825,Info_measure_main_exp,2022.2.2,Win32,58.48295222,,,,,,,,,,,,,,,,,,masks/mask_002.jpg,,,,,,,,,,,,,,,,,,,,,,,,,,,,,,,,,,,,,,,,,,,,,,,,0,0,0,1,1,,,,,,,,,,,,,,,,,,,,,,,,,,,,,,,,,,,,,,,,,
734095,001,2022-11-21_01h59.33.825,Info_measure_main_exp,2022.2.2,Win32,58.48295222,,,,,,,,,,,,,,,,,,masks/mask_004.jpg,,,,,,,,,,,,,,,,,,,,,,,,,,,,,,,,,,,,,,,,,,,,,,,,0,1,1,3,1,,,,,,,,,,,,,,,,,,,,,,,,,,,,,,,,,,,,,,,,,
734095,001,2022-11-21_01h59.33.825,Info_measure_main_exp,2022.2.2,Win32,58.48295222,,,,,,,,,,,,,,,,,,masks/mask_001.jpg,,,,,,,,,,,,,,,,,,,,,,,,,,,,,,,,,,,,,,,,,,,,,,,,0,2,2,0,1,,,,,,,,,,,,,,,,,,,,,,,,,,,,,,,,,,,,,,,,,
734095,001,2022-11-21_01h59.33.825,Info_measure_main_exp,2022.2.2,Win32,58.48295222,,,,,,,,,,,,,,,,,,masks/mask_003.jpg,,,,,,,,,,,,,,,,,,,,,,,,,,,,,,,,,,,,,,,,,,,,,,,,0,3,3,2,1,,,,,,,,,,,,,,,,,,,,,,,,,,,,,,,,,,,,,,,,,
734095,001,2022-11-21_01h59.33.825,Info_measure_main_exp,2022.2.2,Win32,58.48295222,,,,,,,,,,,,,,,,,,masks/mask_005.jpg,,,,,,,,,,,,,,,,,,,,,,,,,,,,,,,,,,,,,,,,,,,,,,,,0,4,4,4,1,,,,,,,,,,,,,,,,,,,,,,,,,,,,,,,,,,,,,,,,,
734095,001,2022-11-21_01h59.33.825,Info_measure_main_exp,2022.2.2,Win32,58.48295222,,,,,,,,,,,,,,,,,,,,,,,,,,,,,,1,1.6872,1,,,,,,,,,,,,0,131,5,5,2274,2238,absent_patch/patch0002274.jpg,absent_patch/patch0002238.jpg,,,,,,,,,,,,,,,,,,,,-0.014322917,0.01171875,1,0,0,response7disk,34,-0.009114583,0.010416667,1,0,0,center_square,0,33,33,91,1,,,,,,,,,,,,,,,,,,,,,,,
734095,001,2022-11-21_01h59.33.825,Info_measure_main_exp,2022.2.2,Win32,58.48295222,,,,,,,,,,,,,,,,,,masks/mask_004.jpg,,,,,,,,,,,,,,,,,,,,,,,,,,,,,,,,,,,,,,,,,,,0,0,0,3,1,,,,,,,,,,,,,,,,,,,,,,,,,,,,,,,,,,,,,,,,,,,,,,
734095,001,2022-11-21_01h59.33.825,Info_measure_main_exp,2022.2.2,Win32,58.48295222,,,,,,,,,,,,,,,,,,masks/mask_005.jpg,,,,,,,,,,,,,,,,,,,,,,,,,,,,,,,,,,,,,,,,,,,0,1,1,4,1,,,,,,,,,,,,,,,,,,,,,,,,,,,,,,,,,,,,,,,,,,,,,,
734095,001,2022-11-21_01h59.33.825,Info_measure_main_exp,2022.2.2,Win32,58.48295222,,,,,,,,,,,,,,,,,,masks/mask_001.jpg,,,,,,,,,,,,,,,,,,,,,,,,,,,,,,,,,,,,,,,,,,,0,2,2,0,1,,,,,,,,,,,,,,,,,,,,,,,,,,,,,,,,,,,,,,,,,,,,,,
734095,001,2022-11-21_01h59.33.825,Info_measure_main_exp,2022.2.2,Win32,58.48295222,,,,,,,,,,,,,,,,,,masks/mask_002.jpg,,,,,,,,,,,,,,,,,,,,,,,,,,,,,,,,,,,,,,,,,,,0,3,3,1,1,,,,,,,,,,,,,,,,,,,,,,,,,,,,,,,,,,,,,,,,,,,,,,
734095,001,2022-11-21_01h59.33.825,Info_measure_main_exp,2022.2.2,Win32,58.48295222,,,,,,,,,,,,,,,,,,masks/mask_003.jpg,,,,,,,,,,,,,,,,,,,,,,,,,,,,,,,,,,,,,,,,,,,0,4,4,2,1,,,,,,,,,,,,,,,,,,,,,,,,,,,,,,,,,,,,,,,,,,,,,,
734095,001,2022-11-21_01h59.33.825,Info_measure_main_exp,2022.2.2,Win32,58.48295222,,,,,,,,,,,,,,,,,,masks/mask_005.jpg,,,,,,,,,,,,,,,,,,,,,,,,,,,,,,,,,,,,,,,,,,,,,,,,0,0,0,4,1,,,,,,,,,,,,,,,,,,,,,,,,,,,,,,,,,,,,,,,,,
734095,001,2022-11-21_01h59.33.825,Info_measure_main_exp,2022.2.2,Win32,58.48295222,,,,,,,,,,,,,,,,,,masks/mask_002.jpg,,,,,,,,,,,,,,,,,,,,,,,,,,,,,,,,,,,,,,,,,,,,,,,,0,1,1,1,1,,,,,,,,,,,,,,,,,,,,,,,,,,,,,,,,,,,,,,,,,
734095,001,2022-11-21_01h59.33.825,Info_measure_main_exp,2022.2.2,Win32,58.48295222,,,,,,,,,,,,,,,,,,masks/mask_004.jpg,,,,,,,,,,,,,,,,,,,,,,,,,,,,,,,,,,,,,,,,,,,,,,,,0,2,2,3,1,,,,,,,,,,,,,,,,,,,,,,,,,,,,,,,,,,,,,,,,,
734095,001,2022-11-21_01h59.33.825,Info_measure_main_exp,2022.2.2,Win32,58.48295222,,,,,,,,,,,,,,,,,,masks/mask_003.jpg,,,,,,,,,,,,,,,,,,,,,,,,,,,,,,,,,,,,,,,,,,,,,,,,0,3,3,2,1,,,,,,,,,,,,,,,,,,,,,,,,,,,,,,,,,,,,,,,,,
