participant,session,date,expName,psychopyVersion,OS,frameRate,space_press_continue.keys,space_press_continue.rt,space_press_continue_2.keys,space_press_continue_2.rt,space_press_continue_3.keys,space_press_continue_3.rt,space_press_continue_4.keys,space_press_continue_4.rt,space_press_continue_5.keys,space_press_continue_5.rt,space_press_continue_6.keys,space_press_continue_6.rt,prac_mask_loop_1.thisRepN,prac_mask_loop_1.thisTrialN,prac_mask_loop_1.thisN,prac_mask_loop_1.thisIndex,prac_mask_loop_1.ran,mask_name,prac_mask_loop_2.thisRepN,prac_mask_loop_2.thisTrialN,prac_mask_loop_2.thisN,prac_mask_loop_2.thisIndex,prac_mask_loop_2.ran,mouse_2.x,mouse_2.y,mouse_2.leftButton,mouse_2.midButton,mouse_2.rightButton,mouse_2.clicked_name,similarity,response_time,Pass,mouse_12.x,mouse_12.y,mouse_12.leftButton,mouse_12.midButton,mouse_12.rightButton,mouse_12.clicked_name,prac_loop.thisRepN,prac_loop.thisTrialN,prac_loop.thisN,prac_loop.thisIndex,prac_loop.ran,Pair_type,Image_num,Patch_1_loc,Patch_2_loc,Patch_1_info,Patch_2_info,Patch_1_name,Patch_2_name,mouse_1.x,mouse_1.y,mouse_1.leftButton,mouse_1.midButton,mouse_1.rightButton,mouse_1.time,mouse_1.clicked_name,space_press_continue_7.keys,space_press_continue_7.rt,mask_loop.thisRepN,mask_loop.thisTrialN,mask_loop.thisN,mask_loop.thisIndex,mask_loop.ran,mask_loop_2.thisRepN,mask_loop_2.thisTrialN,mask_loop_2.thisN,mask_loop_2.thisIndex,mask_loop_2.ran,mouse.x,mouse.y,mouse.leftButton,mouse.midButton,mouse.rightButton,mouse.clicked_name,trialNumber,mouse_11.x,mouse_11.y,mouse_11.leftButton,mouse_11.midButton,mouse_11.rightButton,mouse_11.clicked_name,first_pass_loop.thisRepN,first_pass_loop.thisTrialN,first_pass_loop.thisN,first_pass_loop.thisIndex,first_pass_loop.ran,mask_loop_3.thisRepN,mask_loop_3.thisTrialN,mask_loop_3.thisN,mask_loop_3.thisIndex,mask_loop_3.ran,mask_loop_4.thisRepN,mask_loop_4.thisTrialN,mask_loop_4.thisN,mask_loop_4.thisIndex,mask_loop_4.ran,mouse_3.x,mouse_3.y,mouse_3.leftButton,mouse_3.midButton,mouse_3.rightButton,mouse_3.clicked_name,double_pass_loop.thisRepN,double_pass_loop.thisTrialN,double_pass_loop.thisN,double_pass_loop.thisIndex,double_pass_loop.ran,space_exit.keys,space_exit.rt
760553,001,2022-11-21_02h11.00.400,Info_measure_main_exp,2022.2.2,Win32,8.578978072,,,,,,,,,,,,,,,,,,,,,,,,,,,,,,,,,,,,,,,,,,,,,,,,,,,,,,,,,,,,,,,,,,,,,,,,,,,,,,,,,,,,,,,,,,,,,,,,,,,,,,,,,,,,,,,
760553,001,2022-11-21_02h11.00.400,Info_measure_main_exp,2022.2.2,Win32,8.578978072,,,,,,,,,,,,,,,,,,,,,,,,,,,,,,,,,,,,,,,,,,,,,,,,,,,,,,,,,,,,,,,,,,,,,,,,,,,,,,,,,,,,,,,,,,,,,,,,,,,,,,,,,,,,,,,
760553,001,2022-11-21_02h11.00.400,Info_measure_main_exp,2022.2.2,Win32,8.578978072,space,6.4089,,,,,,,,,,,,,,,,,,,,,,,,,,,,,,,,,,,,,,,,,,,,,,,,,,,,,,,,,,,,,,,,,,,,,,,,,,,,,,,,,,,,,,,,,,,,,,,,,,,,,,,,,,,,,
760553,001,2022-11-21_02h11.00.400,Info_measure_main_exp,2022.2.2,Win32,8.578978072,,,space,16.7548,,,,,,,,,,,,,,,,,,,,,,,,,,,,,,,,,,,,,,,,,,,,,,,,,,,,,,,,,,,,,,,,,,,,,,,,,,,,,,,,,,,,,,,,,,,,,,,,,,,,,,,,,,,
760553,001,2022-11-21_02h11.00.400,Info_measure_main_exp,2022.2.2,Win32,8.578978072,,,,,space,10.0783,,,,,,,,,,,,,,,,,,,,,,,,,,,,,,,,,,,,,,,,,,,,,,,,,,,,,,,,,,,,,,,,,,,,,,,,,,,,,,,,,,,,,,,,,,,,,,,,,,,,,,,,,
760553,001,2022-11-21_02h11.00.400,Info_measure_main_exp,2022.2.2,Win32,8.578978072,,,,,,,space,12.8441,,,,,,,,,,,,,,,,,,,,,,,,,,,,,,,,,,,,,,,,,,,,,,,,,,,,,,,,,,,,,,,,,,,,,,,,,,,,,,,,,,,,,,,,,,,,,,,,,,,,,,,
760553,001,2022-11-21_02h11.00.400,Info_measure_main_exp,2022.2.2,Win32,8.578978072,,,,,,,,,space,13.5538,,,,,,,,,,,,,,,,,,,,,,,,,,,,,,,,,,,,,,,,,,,,,,,,,,,,,,,,,,,,,,,,,,,,,,,,,,,,,,,,,,,,,,,,,,,,,,,,,,,,,
760553,001,2022-11-21_02h11.00.400,Info_measure_main_exp,2022.2.2,Win32,8.578978072,,,,,,,,,,,space,5.101,,,,,,,,,,,,,,,,,,,,,,,,,,,,,,,,,,,,,,,,,,,,,,,,,,,,,,,,,,,,,,,,,,,,,,,,,,,,,,,,,,,,,,,,,,,,,,,,,,,
760553,001,2022-11-21_02h11.00.400,Info_measure_main_exp,2022.2.2,Win32,8.578978072,,,,,,,,,,,,,0,0,0,4,1,masks/mask_005.jpg,,,,,,,,,,,,,,,,,,,,,,,,,,,,,,,,,,,,,,,,,,,,,,,,,,,,,,,,,,,,,,,,,,,,,,,,,,,,,,,,,,,,,,,,,,,,,
760553,001,2022-11-21_02h11.00.400,Info_measure_main_exp,2022.2.2,Win32,8.578978072,,,,,,,,,,,,,0,1,1,0,1,masks/mask_001.jpg,,,,,,,,,,,,,,,,,,,,,,,,,,,,,,,,,,,,,,,,,,,,,,,,,,,,,,,,,,,,,,,,,,,,,,,,,,,,,,,,,,,,,,,,,,,,,
760553,001,2022-11-21_02h11.00.400,Info_measure_main_exp,2022.2.2,Win32,8.578978072,,,,,,,,,,,,,0,2,2,2,1,masks/mask_003.jpg,,,,,,,,,,,,,,,,,,,,,,,,,,,,,,,,,,,,,,,,,,,,,,,,,,,,,,,,,,,,,,,,,,,,,,,,,,,,,,,,,,,,,,,,,,,,,
760553,001,2022-11-21_02h11.00.400,Info_measure_main_exp,2022.2.2,Win32,8.578978072,,,,,,,,,,,,,0,3,3,1,1,masks/mask_002.jpg,,,,,,,,,,,,,,,,,,,,,,,,,,,,,,,,,,,,,,,,,,,,,,,,,,,,,,,,,,,,,,,,,,,,,,,,,,,,,,,,,,,,,,,,,,,,,
760553,001,2022-11-21_02h11.00.400,Info_measure_main_exp,2022.2.2,Win32,8.578978072,,,,,,,,,,,,,0,4,4,3,1,masks/mask_004.jpg,,,,,,,,,,,,,,,,,,,,,,,,,,,,,,,,,,,,,,,,,,,,,,,,,,,,,,,,,,,,,,,,,,,,,,,,,,,,,,,,,,,,,,,,,,,,,
760553,001,2022-11-21_02h11.00.400,Info_measure_main_exp,2022.2.2,Win32,8.578978072,,,,,,,,,,,,,,,,,,masks/mask_002.jpg,0,0,0,1,1,,,,,,,,,,,,,,,,,,,,,,,,,,,,,,,,,,,,,,,,,,,,,,,,,,,,,,,,,,,,,,,,,,,,,,,,,,,,,,,,,,,,,,,,
760553,001,2022-11-21_02h11.00.400,Info_measure_main_exp,2022.2.2,Win32,8.578978072,,,,,,,,,,,,,,,,,,masks/mask_001.jpg,0,1,1,0,1,,,,,,,,,,,,,,,,,,,,,,,,,,,,,,,,,,,,,,,,,,,,,,,,,,,,,,,,,,,,,,,,,,,,,,,,,,,,,,,,,,,,,,,,
760553,001,2022-11-21_02h11.00.400,Info_measure_main_exp,2022.2.2,Win32,8.578978072,,,,,,,,,,,,,,,,,,masks/mask_004.jpg,0,2,2,3,1,,,,,,,,,,,,,,,,,,,,,,,,,,,,,,,,,,,,,,,,,,,,,,,,,,,,,,,,,,,,,,,,,,,,,,,,,,,,,,,,,,,,,,,,
760553,001,2022-11-21_02h11.00.400,Info_measure_main_exp,2022.2.2,Win32,8.578978072,,,,,,,,,,,,,,,,,,masks/mask_003.jpg,0,3,3,2,1,,,,,,,,,,,,,,,,,,,,,,,,,,,,,,,,,,,,,,,,,,,,,,,,,,,,,,,,,,,,,,,,,,,,,,,,,,,,,,,,,,,,,,,,
760553,001,2022-11-21_02h11.00.400,Info_measure_main_exp,2022.2.2,Win32,8.578978072,,,,,,,,,,,,,,,,,,masks/mask_005.jpg,0,4,4,4,1,,,,,,,,,,,,,,,,,,,,,,,,,,,,,,,,,,,,,,,,,,,,,,,,,,,,,,,,,,,,,,,,,,,,,,,,,,,,,,,,,,,,,,,,
760553,001,2022-11-21_02h11.00.400,Info_measure_main_exp,2022.2.2,Win32,8.578978072,,,,,,,,,,,,,,,,,,,,,,,,0.130208333,0.079427083,1,0,0,response1disk,6,79.4097,1,-0.002604167,-0.00390625,1,0,0,center_square,0,0,0,0,1,0,131,5,5,2370,2406,prac_patch/patch0002370.jpg,prac_patch/patch0002406.jpg,,,,,,,,,,,,,,,,,,,,,,,,,,,,,,,,,,,,,,,,,,,,,,,,,,,,,,,,,,,,
760553,001,2022-11-21_02h11.00.400,Info_measure_main_exp,2022.2.2,Win32,8.578978072,,,,,,,,,,,,,0,0,0,4,1,masks/mask_005.jpg,,,,,,,,,,,,,,,,,,,,,,,,,,,,,,,,,,,,,,,,,,,,,,,,,,,,,,,,,,,,,,,,,,,,,,,,,,,,,,,,,,,,,,,,,,,,,
760553,001,2022-11-21_02h11.00.400,Info_measure_main_exp,2022.2.2,Win32,8.578978072,,,,,,,,,,,,,0,1,1,2,1,masks/mask_003.jpg,,,,,,,,,,,,,,,,,,,,,,,,,,,,,,,,,,,,,,,,,,,,,,,,,,,,,,,,,,,,,,,,,,,,,,,,,,,,,,,,,,,,,,,,,,,,,
760553,001,2022-11-21_02h11.00.400,Info_measure_main_exp,2022.2.2,Win32,8.578978072,,,,,,,,,,,,,0,2,2,1,1,masks/mask_002.jpg,,,,,,,,,,,,,,,,,,,,,,,,,,,,,,,,,,,,,,,,,,,,,,,,,,,,,,,,,,,,,,,,,,,,,,,,,,,,,,,,,,,,,,,,,,,,,
760553,001,2022-11-21_02h11.00.400,Info_measure_main_exp,2022.2.2,Win32,8.578978072,,,,,,,,,,,,,0,3,3,0,1,masks/mask_001.jpg,,,,,,,,,,,,,,,,,,,,,,,,,,,,,,,,,,,,,,,,,,,,,,,,,,,,,,,,,,,,,,,,,,,,,,,,,,,,,,,,,,,,,,,,,,,,,
760553,001,2022-11-21_02h11.00.400,Info_measure_main_exp,2022.2.2,Win32,8.578978072,,,,,,,,,,,,,0,4,4,3,1,masks/mask_004.jpg,,,,,,,,,,,,,,,,,,,,,,,,,,,,,,,,,,,,,,,,,,,,,,,,,,,,,,,,,,,,,,,,,,,,,,,,,,,,,,,,,,,,,,,,,,,,,
760553,001,2022-11-21_02h11.00.400,Info_measure_main_exp,2022.2.2,Win32,8.578978072,,,,,,,,,,,,,,,,,,masks/mask_004.jpg,0,0,0,3,1,,,,,,,,,,,,,,,,,,,,,,,,,,,,,,,,,,,,,,,,,,,,,,,,,,,,,,,,,,,,,,,,,,,,,,,,,,,,,,,,,,,,,,,,
760553,001,2022-11-21_02h11.00.400,Info_measure_main_exp,2022.2.2,Win32,8.578978072,,,,,,,,,,,,,,,,,,masks/mask_005.jpg,0,1,1,4,1,,,,,,,,,,,,,,,,,,,,,,,,,,,,,,,,,,,,,,,,,,,,,,,,,,,,,,,,,,,,,,,,,,,,,,,,,,,,,,,,,,,,,,,,
760553,001,2022-11-21_02h11.00.400,Info_measure_main_exp,2022.2.2,Win32,8.578978072,,,,,,,,,,,,,,,,,,masks/mask_002.jpg,0,2,2,1,1,,,,,,,,,,,,,,,,,,,,,,,,,,,,,,,,,,,,,,,,,,,,,,,,,,,,,,,,,,,,,,,,,,,,,,,,,,,,,,,,,,,,,,,,
760553,001,2022-11-21_02h11.00.400,Info_measure_main_exp,2022.2.2,Win32,8.578978072,,,,,,,,,,,,,,,,,,masks/mask_003.jpg,0,3,3,2,1,,,,,,,,,,,,,,,,,,,,,,,,,,,,,,,,,,,,,,,,,,,,,,,,,,,,,,,,,,,,,,,,,,,,,,,,,,,,,,,,,,,,,,,,
760553,001,2022-11-21_02h11.00.400,Info_measure_main_exp,2022.2.2,Win32,8.578978072,,,,,,,,,,,,,,,,,,masks/mask_001.jpg,0,4,4,0,1,,,,,,,,,,,,,,,,,,,,,,,,,,,,,,,,,,,,,,,,,,,,,,,,,,,,,,,,,,,,,,,,,,,,,,,,,,,,,,,,,,,,,,,,
760553,001,2022-11-21_02h11.00.400,Info_measure_main_exp,2022.2.2,Win32,8.578978072,,,,,,,,,,,,,,,,,,,,,,,,-0.079427083,0.024739583,1,0,0,response7disk,1,99.5689,1,0.005208333,0,1,0,0,center_square,0,1,1,1,1,0,131,5,5,2514,2490,prac_patch/patch0002514.jpg,prac_patch/patch0002490.jpg,,,,,,,,,,,,,,,,,,,,,,,,,,,,,,,,,,,,,,,,,,,,,,,,,,,,,,,,,,,,
760553,001,2022-11-21_02h11.00.400,Info_measure_main_exp,2022.2.2,Win32,8.578978072,,,,,,,,,,,,,0,0,0,1,1,masks/mask_002.jpg,,,,,,,,,,,,,,,,,,,,,,,,,,,,,,,,,,,,,,,,,,,,,,,,,,,,,,,,,,,,,,,,,,,,,,,,,,,,,,,,,,,,,,,,,,,,,
760553,001,2022-11-21_02h11.00.400,Info_measure_main_exp,2022.2.2,Win32,8.578978072,,,,,,,,,,,,,0,1,1,4,1,masks/mask_005.jpg,,,,,,,,,,,,,,,,,,,,,,,,,,,,,,,,,,,,,,,,,,,,,,,,,,,,,,,,,,,,,,,,,,,,,,,,,,,,,,,,,,,,,,,,,,,,,
760553,001,2022-11-21_02h11.00.400,Info_measure_main_exp,2022.2.2,Win32,8.578978072,,,,,,,,,,,,,0,2,2,0,1,masks/mask_001.jpg,,,,,,,,,,,,,,,,,,,,,,,,,,,,,,,,,,,,,,,,,,,,,,,,,,,,,,,,,,,,,,,,,,,,,,,,,,,,,,,,,,,,,,,,,,,,,
760553,001,2022-11-21_02h11.00.400,Info_measure_main_exp,2022.2.2,Win32,8.578978072,,,,,,,,,,,,,0,3,3,3,1,masks/mask_004.jpg,,,,,,,,,,,,,,,,,,,,,,,,,,,,,,,,,,,,,,,,,,,,,,,,,,,,,,,,,,,,,,,,,,,,,,,,,,,,,,,,,,,,,,,,,,,,,
760553,001,2022-11-21_02h11.00.400,Info_measure_main_exp,2022.2.2,Win32,8.578978072,,,,,,,,,,,,,0,4,4,2,1,masks/mask_003.jpg,,,,,,,,,,,,,,,,,,,,,,,,,,,,,,,,,,,,,,,,,,,,,,,,,,,,,,,,,,,,,,,,,,,,,,,,,,,,,,,,,,,,,,,,,,,,,
760553,001,2022-11-21_02h11.00.400,Info_measure_main_exp,2022.2.2,Win32,8.578978072,,,,,,,,,,,,,,,,,,masks/mask_003.jpg,0,0,0,2,1,,,,,,,,,,,,,,,,,,,,,,,,,,,,,,,,,,,,,,,,,,,,,,,,,,,,,,,,,,,,,,,,,,,,,,,,,,,,,,,,,,,,,,,,
760553,001,2022-11-21_02h11.00.400,Info_measure_main_exp,2022.2.2,Win32,8.578978072,,,,,,,,,,,,,,,,,,masks/mask_002.jpg,0,1,1,1,1,,,,,,,,,,,,,,,,,,,,,,,,,,,,,,,,,,,,,,,,,,,,,,,,,,,,,,,,,,,,,,,,,,,,,,,,,,,,,,,,,,,,,,,,
760553,001,2022-11-21_02h11.00.400,Info_measure_main_exp,2022.2.2,Win32,8.578978072,,,,,,,,,,,,,,,,,,masks/mask_004.jpg,0,2,2,3,1,,,,,,,,,,,,,,,,,,,,,,,,,,,,,,,,,,,,,,,,,,,,,,,,,,,,,,,,,,,,,,,,,,,,,,,,,,,,,,,,,,,,,,,,
760553,001,2022-11-21_02h11.00.400,Info_measure_main_exp,2022.2.2,Win32,8.578978072,,,,,,,,,,,,,,,,,,masks/mask_001.jpg,0,3,3,0,1,,,,,,,,,,,,,,,,,,,,,,,,,,,,,,,,,,,,,,,,,,,,,,,,,,,,,,,,,,,,,,,,,,,,,,,,,,,,,,,,,,,,,,,,
760553,001,2022-11-21_02h11.00.400,Info_measure_main_exp,2022.2.2,Win32,8.578978072,,,,,,,,,,,,,,,,,,masks/mask_005.jpg,0,4,4,4,1,,,,,,,,,,,,,,,,,,,,,,,,,,,,,,,,,,,,,,,,,,,,,,,,,,,,,,,,,,,,,,,,,,,,,,,,,,,,,,,,,,,,,,,,
760553,001,2022-11-21_02h11.00.400,Info_measure_main_exp,2022.2.2,Win32,8.578978072,,,,,,,,,,,,,,,,,,,,,,,,-0.1015625,0.029947917,1,0,0,response7disk,1,113.1246,1,0.00390625,-0.002604167,1,0,0,center_square,0,2,2,2,1,0,131,5,5,2526,2526,prac_patch/patch0002526.jpg,prac_patch/patch0002526.jpg,,,,,,,,,,,,,,,,,,,,,,,,,,,,,,,,,,,,,,,,,,,,,,,,,,,,,,,,,,,,
760553,001,2022-11-21_02h11.00.400,Info_measure_main_exp,2022.2.2,Win32,8.578978072,,,,,,,,,,,,,,,,,,,,,,,,,,,,,,,,,,,,,,,,,,,,,,,,,,,,,,,,,,,space,3.298,,,,,,,,,,,,,,,,,,,,,,,,,,,,,,,,,,,,,,,,,,,,,,,,,,,
760553,001,2022-11-21_02h11.00.400,Info_measure_main_exp,2022.2.2,Win32,8.578978072,,,,,,,,,,,,,,,,,,masks/mask_003.jpg,,,,,,,,,,,,,,,,,,,,,,,,,,,,,,,,,,,,,,,,,,,0,0,0,2,1,,,,,,,,,,,,,,,,,,,,,,,,,,,,,,,,,,,,,,,,,,,,,,
760553,001,2022-11-21_02h11.00.400,Info_measure_main_exp,2022.2.2,Win32,8.578978072,,,,,,,,,,,,,,,,,,masks/mask_005.jpg,,,,,,,,,,,,,,,,,,,,,,,,,,,,,,,,,,,,,,,,,,,0,1,1,4,1,,,,,,,,,,,,,,,,,,,,,,,,,,,,,,,,,,,,,,,,,,,,,,
760553,001,2022-11-21_02h11.00.400,Info_measure_main_exp,2022.2.2,Win32,8.578978072,,,,,,,,,,,,,,,,,,masks/mask_001.jpg,,,,,,,,,,,,,,,,,,,,,,,,,,,,,,,,,,,,,,,,,,,0,2,2,0,1,,,,,,,,,,,,,,,,,,,,,,,,,,,,,,,,,,,,,,,,,,,,,,
760553,001,2022-11-21_02h11.00.400,Info_measure_main_exp,2022.2.2,Win32,8.578978072,,,,,,,,,,,,,,,,,,masks/mask_004.jpg,,,,,,,,,,,,,,,,,,,,,,,,,,,,,,,,,,,,,,,,,,,0,3,3,3,1,,,,,,,,,,,,,,,,,,,,,,,,,,,,,,,,,,,,,,,,,,,,,,
760553,001,2022-11-21_02h11.00.400,Info_measure_main_exp,2022.2.2,Win32,8.578978072,,,,,,,,,,,,,,,,,,masks/mask_002.jpg,,,,,,,,,,,,,,,,,,,,,,,,,,,,,,,,,,,,,,,,,,,0,4,4,1,1,,,,,,,,,,,,,,,,,,,,,,,,,,,,,,,,,,,,,,,,,,,,,,
760553,001,2022-11-21_02h11.00.400,Info_measure_main_exp,2022.2.2,Win32,8.578978072,,,,,,,,,,,,,,,,,,masks/mask_005.jpg,,,,,,,,,,,,,,,,,,,,,,,,,,,,,,,,,,,,,,,,,,,,,,,,0,0,0,4,1,,,,,,,,,,,,,,,,,,,,,,,,,,,,,,,,,,,,,,,,,
760553,001,2022-11-21_02h11.00.400,Info_measure_main_exp,2022.2.2,Win32,8.578978072,,,,,,,,,,,,,,,,,,masks/mask_001.jpg,,,,,,,,,,,,,,,,,,,,,,,,,,,,,,,,,,,,,,,,,,,,,,,,0,1,1,0,1,,,,,,,,,,,,,,,,,,,,,,,,,,,,,,,,,,,,,,,,,
760553,001,2022-11-21_02h11.00.400,Info_measure_main_exp,2022.2.2,Win32,8.578978072,,,,,,,,,,,,,,,,,,masks/mask_003.jpg,,,,,,,,,,,,,,,,,,,,,,,,,,,,,,,,,,,,,,,,,,,,,,,,0,2,2,2,1,,,,,,,,,,,,,,,,,,,,,,,,,,,,,,,,,,,,,,,,,
760553,001,2022-11-21_02h11.00.400,Info_measure_main_exp,2022.2.2,Win32,8.578978072,,,,,,,,,,,,,,,,,,masks/mask_004.jpg,,,,,,,,,,,,,,,,,,,,,,,,,,,,,,,,,,,,,,,,,,,,,,,,0,3,3,3,1,,,,,,,,,,,,,,,,,,,,,,,,,,,,,,,,,,,,,,,,,
760553,001,2022-11-21_02h11.00.400,Info_measure_main_exp,2022.2.2,Win32,8.578978072,,,,,,,,,,,,,,,,,,masks/mask_002.jpg,,,,,,,,,,,,,,,,,,,,,,,,,,,,,,,,,,,,,,,,,,,,,,,,0,4,4,1,1,,,,,,,,,,,,,,,,,,,,,,,,,,,,,,,,,,,,,,,,,
760553,001,2022-11-21_02h11.00.400,Info_measure_main_exp,2022.2.2,Win32,8.578978072,,,,,,,,,,,,,,,,,,,,,,,,,,,,,,6,1.9469,1,,,,,,,,,,,,0,131,5,5,2142,2238,absent_patch/patch0002142.jpg,absent_patch/patch0002238.jpg,,,,,,,,,,,,,,,,,,,,0.08203125,0.052083333,1,0,0,response1disk,1,0.002604167,-0.002604167,1,0,0,center_square,0,0,0,101,1,,,,,,,,,,,,,,,,,,,,,,,
760553,001,2022-11-21_02h11.00.400,Info_measure_main_exp,2022.2.2,Win32,8.578978072,,,,,,,,,,,,,,,,,,masks/mask_003.jpg,,,,,,,,,,,,,,,,,,,,,,,,,,,,,,,,,,,,,,,,,,,0,0,0,2,1,,,,,,,,,,,,,,,,,,,,,,,,,,,,,,,,,,,,,,,,,,,,,,
760553,001,2022-11-21_02h11.00.400,Info_measure_main_exp,2022.2.2,Win32,8.578978072,,,,,,,,,,,,,,,,,,masks/mask_002.jpg,,,,,,,,,,,,,,,,,,,,,,,,,,,,,,,,,,,,,,,,,,,0,1,1,1,1,,,,,,,,,,,,,,,,,,,,,,,,,,,,,,,,,,,,,,,,,,,,,,
760553,001,2022-11-21_02h11.00.400,Info_measure_main_exp,2022.2.2,Win32,8.578978072,,,,,,,,,,,,,,,,,,masks/mask_004.jpg,,,,,,,,,,,,,,,,,,,,,,,,,,,,,,,,,,,,,,,,,,,0,2,2,3,1,,,,,,,,,,,,,,,,,,,,,,,,,,,,,,,,,,,,,,,,,,,,,,
760553,001,2022-11-21_02h11.00.400,Info_measure_main_exp,2022.2.2,Win32,8.578978072,,,,,,,,,,,,,,,,,,masks/mask_005.jpg,,,,,,,,,,,,,,,,,,,,,,,,,,,,,,,,,,,,,,,,,,,0,3,3,4,1,,,,,,,,,,,,,,,,,,,,,,,,,,,,,,,,,,,,,,,,,,,,,,
760553,001,2022-11-21_02h11.00.400,Info_measure_main_exp,2022.2.2,Win32,8.578978072,,,,,,,,,,,,,,,,,,masks/mask_001.jpg,,,,,,,,,,,,,,,,,,,,,,,,,,,,,,,,,,,,,,,,,,,0,4,4,0,1,,,,,,,,,,,,,,,,,,,,,,,,,,,,,,,,,,,,,,,,,,,,,,
760553,001,2022-11-21_02h11.00.400,Info_measure_main_exp,2022.2.2,Win32,8.578978072,,,,,,,,,,,,,,,,,,masks/mask_005.jpg,,,,,,,,,,,,,,,,,,,,,,,,,,,,,,,,,,,,,,,,,,,,,,,,0,0,0,4,1,,,,,,,,,,,,,,,,,,,,,,,,,,,,,,,,,,,,,,,,,
760553,001,2022-11-21_02h11.00.400,Info_measure_main_exp,2022.2.2,Win32,8.578978072,,,,,,,,,,,,,,,,,,masks/mask_002.jpg,,,,,,,,,,,,,,,,,,,,,,,,,,,,,,,,,,,,,,,,,,,,,,,,0,1,1,1,1,,,,,,,,,,,,,,,,,,,,,,,,,,,,,,,,,,,,,,,,,
760553,001,2022-11-21_02h11.00.400,Info_measure_main_exp,2022.2.2,Win32,8.578978072,,,,,,,,,,,,,,,,,,masks/mask_003.jpg,,,,,,,,,,,,,,,,,,,,,,,,,,,,,,,,,,,,,,,,,,,,,,,,0,2,2,2,1,,,,,,,,,,,,,,,,,,,,,,,,,,,,,,,,,,,,,,,,,
760553,001,2022-11-21_02h11.00.400,Info_measure_main_exp,2022.2.2,Win32,8.578978072,,,,,,,,,,,,,,,,,,masks/mask_001.jpg,,,,,,,,,,,,,,,,,,,,,,,,,,,,,,,,,,,,,,,,,,,,,,,,0,3,3,0,1,,,,,,,,,,,,,,,,,,,,,,,,,,,,,,,,,,,,,,,,,
760553,001,2022-11-21_02h11.00.400,Info_measure_main_exp,2022.2.2,Win32,8.578978072,,,,,,,,,,,,,,,,,,masks/mask_004.jpg,,,,,,,,,,,,,,,,,,,,,,,,,,,,,,,,,,,,,,,,,,,,,,,,0,4,4,3,1,,,,,,,,,,,,,,,,,,,,,,,,,,,,,,,,,,,,,,,,,
760553,001,2022-11-21_02h11.00.400,Info_measure_main_exp,2022.2.2,Win32,8.578978072,,,,,,,,,,,,,,,,,,,,,,,,,,,,,,6,4.4781,1,,,,,,,,,,,,0,131,5,5,2298,2142,absent_patch/patch0002298.jpg,absent_patch/patch0002142.jpg,,,,,,,,,,,,,,,,,,,,0.153645833,0.061197917,1,0,0,response1disk,2,-0.002604167,0.001302083,1,0,0,center_square,0,1,1,49,1,,,,,,,,,,,,,,,,,,,,,,,
760553,001,2022-11-21_02h11.00.400,Info_measure_main_exp,2022.2.2,Win32,8.578978072,,,,,,,,,,,,,,,,,,masks/mask_001.jpg,,,,,,,,,,,,,,,,,,,,,,,,,,,,,,,,,,,,,,,,,,,0,0,0,0,1,,,,,,,,,,,,,,,,,,,,,,,,,,,,,,,,,,,,,,,,,,,,,,
760553,001,2022-11-21_02h11.00.400,Info_measure_main_exp,2022.2.2,Win32,8.578978072,,,,,,,,,,,,,,,,,,masks/mask_005.jpg,,,,,,,,,,,,,,,,,,,,,,,,,,,,,,,,,,,,,,,,,,,0,1,1,4,1,,,,,,,,,,,,,,,,,,,,,,,,,,,,,,,,,,,,,,,,,,,,,,
760553,001,2022-11-21_02h11.00.400,Info_measure_main_exp,2022.2.2,Win32,8.578978072,,,,,,,,,,,,,,,,,,masks/mask_004.jpg,,,,,,,,,,,,,,,,,,,,,,,,,,,,,,,,,,,,,,,,,,,0,2,2,3,1,,,,,,,,,,,,,,,,,,,,,,,,,,,,,,,,,,,,,,,,,,,,,,
760553,001,2022-11-21_02h11.00.400,Info_measure_main_exp,2022.2.2,Win32,8.578978072,,,,,,,,,,,,,,,,,,masks/mask_002.jpg,,,,,,,,,,,,,,,,,,,,,,,,,,,,,,,,,,,,,,,,,,,0,3,3,1,1,,,,,,,,,,,,,,,,,,,,,,,,,,,,,,,,,,,,,,,,,,,,,,
760553,001,2022-11-21_02h11.00.400,Info_measure_main_exp,2022.2.2,Win32,8.578978072,,,,,,,,,,,,,,,,,,masks/mask_003.jpg,,,,,,,,,,,,,,,,,,,,,,,,,,,,,,,,,,,,,,,,,,,0,4,4,2,1,,,,,,,,,,,,,,,,,,,,,,,,,,,,,,,,,,,,,,,,,,,,,,
760553,001,2022-11-21_02h11.00.400,Info_measure_main_exp,2022.2.2,Win32,8.578978072,,,,,,,,,,,,,,,,,,masks/mask_004.jpg,,,,,,,,,,,,,,,,,,,,,,,,,,,,,,,,,,,,,,,,,,,,,,,,0,0,0,3,1,,,,,,,,,,,,,,,,,,,,,,,,,,,,,,,,,,,,,,,,,
760553,001,2022-11-21_02h11.00.400,Info_measure_main_exp,2022.2.2,Win32,8.578978072,,,,,,,,,,,,,,,,,,masks/mask_005.jpg,,,,,,,,,,,,,,,,,,,,,,,,,,,,,,,,,,,,,,,,,,,,,,,,0,1,1,4,1,,,,,,,,,,,,,,,,,,,,,,,,,,,,,,,,,,,,,,,,,
760553,001,2022-11-21_02h11.00.400,Info_measure_main_exp,2022.2.2,Win32,8.578978072,,,,,,,,,,,,,,,,,,masks/mask_003.jpg,,,,,,,,,,,,,,,,,,,,,,,,,,,,,,,,,,,,,,,,,,,,,,,,0,2,2,2,1,,,,,,,,,,,,,,,,,,,,,,,,,,,,,,,,,,,,,,,,,
760553,001,2022-11-21_02h11.00.400,Info_measure_main_exp,2022.2.2,Win32,8.578978072,,,,,,,,,,,,,,,,,,masks/mask_002.jpg,,,,,,,,,,,,,,,,,,,,,,,,,,,,,,,,,,,,,,,,,,,,,,,,0,3,3,1,1,,,,,,,,,,,,,,,,,,,,,,,,,,,,,,,,,,,,,,,,,
760553,001,2022-11-21_02h11.00.400,Info_measure_main_exp,2022.2.2,Win32,8.578978072,,,,,,,,,,,,,,,,,,masks/mask_001.jpg,,,,,,,,,,,,,,,,,,,,,,,,,,,,,,,,,,,,,,,,,,,,,,,,0,4,4,0,1,,,,,,,,,,,,,,,,,,,,,,,,,,,,,,,,,,,,,,,,,
760553,001,2022-11-21_02h11.00.400,Info_measure_main_exp,2022.2.2,Win32,8.578978072,,,,,,,,,,,,,,,,,,,,,,,,,,,,,,6,2.3938,1,,,,,,,,,,,,0,131,5,5,1974,2250,absent_patch/patch0001974.jpg,absent_patch/patch0002250.jpg,,,,,,,,,,,,,,,,,,,,0.075520833,0.03125,1,0,0,response1disk,3,0,0.001302083,1,0,0,center_square,0,2,2,55,1,,,,,,,,,,,,,,,,,,,,,,,
760553,001,2022-11-21_02h11.00.400,Info_measure_main_exp,2022.2.2,Win32,8.578978072,,,,,,,,,,,,,,,,,,masks/mask_002.jpg,,,,,,,,,,,,,,,,,,,,,,,,,,,,,,,,,,,,,,,,,,,0,0,0,1,1,,,,,,,,,,,,,,,,,,,,,,,,,,,,,,,,,,,,,,,,,,,,,,
760553,001,2022-11-21_02h11.00.400,Info_measure_main_exp,2022.2.2,Win32,8.578978072,,,,,,,,,,,,,,,,,,masks/mask_004.jpg,,,,,,,,,,,,,,,,,,,,,,,,,,,,,,,,,,,,,,,,,,,0,1,1,3,1,,,,,,,,,,,,,,,,,,,,,,,,,,,,,,,,,,,,,,,,,,,,,,
760553,001,2022-11-21_02h11.00.400,Info_measure_main_exp,2022.2.2,Win32,8.578978072,,,,,,,,,,,,,,,,,,masks/mask_005.jpg,,,,,,,,,,,,,,,,,,,,,,,,,,,,,,,,,,,,,,,,,,,0,2,2,4,1,,,,,,,,,,,,,,,,,,,,,,,,,,,,,,,,,,,,,,,,,,,,,,
760553,001,2022-11-21_02h11.00.400,Info_measure_main_exp,2022.2.2,Win32,8.578978072,,,,,,,,,,,,,,,,,,masks/mask_001.jpg,,,,,,,,,,,,,,,,,,,,,,,,,,,,,,,,,,,,,,,,,,,0,3,3,0,1,,,,,,,,,,,,,,,,,,,,,,,,,,,,,,,,,,,,,,,,,,,,,,
760553,001,2022-11-21_02h11.00.400,Info_measure_main_exp,2022.2.2,Win32,8.578978072,,,,,,,,,,,,,,,,,,masks/mask_003.jpg,,,,,,,,,,,,,,,,,,,,,,,,,,,,,,,,,,,,,,,,,,,0,4,4,2,1,,,,,,,,,,,,,,,,,,,,,,,,,,,,,,,,,,,,,,,,,,,,,,
760553,001,2022-11-21_02h11.00.400,Info_measure_main_exp,2022.2.2,Win32,8.578978072,,,,,,,,,,,,,,,,,,masks/mask_003.jpg,,,,,,,,,,,,,,,,,,,,,,,,,,,,,,,,,,,,,,,,,,,,,,,,0,0,0,2,1,,,,,,,,,,,,,,,,,,,,,,,,,,,,,,,,,,,,,,,,,
760553,001,2022-11-21_02h11.00.400,Info_measure_main_exp,2022.2.2,Win32,8.578978072,,,,,,,,,,,,,,,,,,masks/mask_002.jpg,,,,,,,,,,,,,,,,,,,,,,,,,,,,,,,,,,,,,,,,,,,,,,,,0,1,1,1,1,,,,,,,,,,,,,,,,,,,,,,,,,,,,,,,,,,,,,,,,,
760553,001,2022-11-21_02h11.00.400,Info_measure_main_exp,2022.2.2,Win32,8.578978072,,,,,,,,,,,,,,,,,,masks/mask_005.jpg,,,,,,,,,,,,,,,,,,,,,,,,,,,,,,,,,,,,,,,,,,,,,,,,0,2,2,4,1,,,,,,,,,,,,,,,,,,,,,,,,,,,,,,,,,,,,,,,,,
760553,001,2022-11-21_02h11.00.400,Info_measure_main_exp,2022.2.2,Win32,8.578978072,,,,,,,,,,,,,,,,,,masks/mask_001.jpg,,,,,,,,,,,,,,,,,,,,,,,,,,,,,,,,,,,,,,,,,,,,,,,,0,3,3,0,1,,,,,,,,,,,,,,,,,,,,,,,,,,,,,,,,,,,,,,,,,
760553,001,2022-11-21_02h11.00.400,Info_measure_main_exp,2022.2.2,Win32,8.578978072,,,,,,,,,,,,,,,,,,masks/mask_004.jpg,,,,,,,,,,,,,,,,,,,,,,,,,,,,,,,,,,,,,,,,,,,,,,,,0,4,4,3,1,,,,,,,,,,,,,,,,,,,,,,,,,,,,,,,,,,,,,,,,,
760553,001,2022-11-21_02h11.00.400,Info_measure_main_exp,2022.2.2,Win32,8.578978072,,,,,,,,,,,,,,,,,,,,,,,,,,,,,,2,3.3231,1,,,,,,,,,,,,0,131,5,5,2166,2166,absent_patch/patch0002166.jpg,absent_patch/patch0002166.jpg,,,,,,,,,,,,,,,,,,,,-0.087239583,-0.022135417,1,0,0,response5disk,4,-0.001302083,0,1,0,0,center_square,0,3,3,42,1,,,,,,,,,,,,,,,,,,,,,,,
760553,001,2022-11-21_02h11.00.400,Info_measure_main_exp,2022.2.2,Win32,8.578978072,,,,,,,,,,,,,,,,,,masks/mask_003.jpg,,,,,,,,,,,,,,,,,,,,,,,,,,,,,,,,,,,,,,,,,,,0,0,0,2,1,,,,,,,,,,,,,,,,,,,,,,,,,,,,,,,,,,,,,,,,,,,,,,
760553,001,2022-11-21_02h11.00.400,Info_measure_main_exp,2022.2.2,Win32,8.578978072,,,,,,,,,,,,,,,,,,masks/mask_004.jpg,,,,,,,,,,,,,,,,,,,,,,,,,,,,,,,,,,,,,,,,,,,0,1,1,3,1,,,,,,,,,,,,,,,,,,,,,,,,,,,,,,,,,,,,,,,,,,,,,,
760553,001,2022-11-21_02h11.00.400,Info_measure_main_exp,2022.2.2,Win32,8.578978072,,,,,,,,,,,,,,,,,,masks/mask_002.jpg,,,,,,,,,,,,,,,,,,,,,,,,,,,,,,,,,,,,,,,,,,,0,2,2,1,1,,,,,,,,,,,,,,,,,,,,,,,,,,,,,,,,,,,,,,,,,,,,,,
760553,001,2022-11-21_02h11.00.400,Info_measure_main_exp,2022.2.2,Win32,8.578978072,,,,,,,,,,,,,,,,,,masks/mask_001.jpg,,,,,,,,,,,,,,,,,,,,,,,,,,,,,,,,,,,,,,,,,,,0,3,3,0,1,,,,,,,,,,,,,,,,,,,,,,,,,,,,,,,,,,,,,,,,,,,,,,
760553,001,2022-11-21_02h11.00.400,Info_measure_main_exp,2022.2.2,Win32,8.578978072,,,,,,,,,,,,,,,,,,masks/mask_005.jpg,,,,,,,,,,,,,,,,,,,,,,,,,,,,,,,,,,,,,,,,,,,0,4,4,4,1,,,,,,,,,,,,,,,,,,,,,,,,,,,,,,,,,,,,,,,,,,,,,,
760553,001,2022-11-21_02h11.00.400,Info_measure_main_exp,2022.2.2,Win32,8.578978072,,,,,,,,,,,,,,,,,,masks/mask_001.jpg,,,,,,,,,,,,,,,,,,,,,,,,,,,,,,,,,,,,,,,,,,,,,,,,0,0,0,0,1,,,,,,,,,,,,,,,,,,,,,,,,,,,,,,,,,,,,,,,,,
760553,001,2022-11-21_02h11.00.400,Info_measure_main_exp,2022.2.2,Win32,8.578978072,,,,,,,,,,,,,,,,,,masks/mask_002.jpg,,,,,,,,,,,,,,,,,,,,,,,,,,,,,,,,,,,,,,,,,,,,,,,,0,1,1,1,1,,,,,,,,,,,,,,,,,,,,,,,,,,,,,,,,,,,,,,,,,
760553,001,2022-11-21_02h11.00.400,Info_measure_main_exp,2022.2.2,Win32,8.578978072,,,,,,,,,,,,,,,,,,masks/mask_005.jpg,,,,,,,,,,,,,,,,,,,,,,,,,,,,,,,,,,,,,,,,,,,,,,,,0,2,2,4,1,,,,,,,,,,,,,,,,,,,,,,,,,,,,,,,,,,,,,,,,,
760553,001,2022-11-21_02h11.00.400,Info_measure_main_exp,2022.2.2,Win32,8.578978072,,,,,,,,,,,,,,,,,,masks/mask_003.jpg,,,,,,,,,,,,,,,,,,,,,,,,,,,,,,,,,,,,,,,,,,,,,,,,0,3,3,2,1,,,,,,,,,,,,,,,,,,,,,,,,,,,,,,,,,,,,,,,,,
760553,001,2022-11-21_02h11.00.400,Info_measure_main_exp,2022.2.2,Win32,8.578978072,,,,,,,,,,,,,,,,,,masks/mask_004.jpg,,,,,,,,,,,,,,,,,,,,,,,,,,,,,,,,,,,,,,,,,,,,,,,,0,4,4,3,1,,,,,,,,,,,,,,,,,,,,,,,,,,,,,,,,,,,,,,,,,
760553,001,2022-11-21_02h11.00.400,Info_measure_main_exp,2022.2.2,Win32,8.578978072,,,,,,,,,,,,,,,,,,,,,,,,,,,,,,3,4.0613,1,,,,,,,,,,,,0,131,5,5,1974,2178,absent_patch/patch0001974.jpg,absent_patch/patch0002178.jpg,,,,,,,,,,,,,,,,,,,,-0.0546875,-0.123697917,1,0,0,response5disk,5,-0.002604167,0,1,0,0,center_square,0,4,4,44,1,,,,,,,,,,,,,,,,,,,,,,,
760553,001,2022-11-21_02h11.00.400,Info_measure_main_exp,2022.2.2,Win32,8.578978072,,,,,,,,,,,,,,,,,,masks/mask_001.jpg,,,,,,,,,,,,,,,,,,,,,,,,,,,,,,,,,,,,,,,,,,,0,0,0,0,1,,,,,,,,,,,,,,,,,,,,,,,,,,,,,,,,,,,,,,,,,,,,,,
760553,001,2022-11-21_02h11.00.400,Info_measure_main_exp,2022.2.2,Win32,8.578978072,,,,,,,,,,,,,,,,,,masks/mask_002.jpg,,,,,,,,,,,,,,,,,,,,,,,,,,,,,,,,,,,,,,,,,,,0,1,1,1,1,,,,,,,,,,,,,,,,,,,,,,,,,,,,,,,,,,,,,,,,,,,,,,
760553,001,2022-11-21_02h11.00.400,Info_measure_main_exp,2022.2.2,Win32,8.578978072,,,,,,,,,,,,,,,,,,masks/mask_003.jpg,,,,,,,,,,,,,,,,,,,,,,,,,,,,,,,,,,,,,,,,,,,0,2,2,2,1,,,,,,,,,,,,,,,,,,,,,,,,,,,,,,,,,,,,,,,,,,,,,,
760553,001,2022-11-21_02h11.00.400,Info_measure_main_exp,2022.2.2,Win32,8.578978072,,,,,,,,,,,,,,,,,,masks/mask_004.jpg,,,,,,,,,,,,,,,,,,,,,,,,,,,,,,,,,,,,,,,,,,,0,3,3,3,1,,,,,,,,,,,,,,,,,,,,,,,,,,,,,,,,,,,,,,,,,,,,,,
760553,001,2022-11-21_02h11.00.400,Info_measure_main_exp,2022.2.2,Win32,8.578978072,,,,,,,,,,,,,,,,,,masks/mask_005.jpg,,,,,,,,,,,,,,,,,,,,,,,,,,,,,,,,,,,,,,,,,,,0,4,4,4,1,,,,,,,,,,,,,,,,,,,,,,,,,,,,,,,,,,,,,,,,,,,,,,
760553,001,2022-11-21_02h11.00.400,Info_measure_main_exp,2022.2.2,Win32,8.578978072,,,,,,,,,,,,,,,,,,masks/mask_004.jpg,,,,,,,,,,,,,,,,,,,,,,,,,,,,,,,,,,,,,,,,,,,,,,,,0,0,0,3,1,,,,,,,,,,,,,,,,,,,,,,,,,,,,,,,,,,,,,,,,,
760553,001,2022-11-21_02h11.00.400,Info_measure_main_exp,2022.2.2,Win32,8.578978072,,,,,,,,,,,,,,,,,,masks/mask_002.jpg,,,,,,,,,,,,,,,,,,,,,,,,,,,,,,,,,,,,,,,,,,,,,,,,0,1,1,1,1,,,,,,,,,,,,,,,,,,,,,,,,,,,,,,,,,,,,,,,,,
760553,001,2022-11-21_02h11.00.400,Info_measure_main_exp,2022.2.2,Win32,8.578978072,,,,,,,,,,,,,,,,,,masks/mask_001.jpg,,,,,,,,,,,,,,,,,,,,,,,,,,,,,,,,,,,,,,,,,,,,,,,,0,2,2,0,1,,,,,,,,,,,,,,,,,,,,,,,,,,,,,,,,,,,,,,,,,
760553,001,2022-11-21_02h11.00.400,Info_measure_main_exp,2022.2.2,Win32,8.578978072,,,,,,,,,,,,,,,,,,masks/mask_005.jpg,,,,,,,,,,,,,,,,,,,,,,,,,,,,,,,,,,,,,,,,,,,,,,,,0,3,3,4,1,,,,,,,,,,,,,,,,,,,,,,,,,,,,,,,,,,,,,,,,,
760553,001,2022-11-21_02h11.00.400,Info_measure_main_exp,2022.2.2,Win32,8.578978072,,,,,,,,,,,,,,,,,,masks/mask_003.jpg,,,,,,,,,,,,,,,,,,,,,,,,,,,,,,,,,,,,,,,,,,,,,,,,0,4,4,2,1,,,,,,,,,,,,,,,,,,,,,,,,,,,,,,,,,,,,,,,,,
760553,001,2022-11-21_02h11.00.400,Info_measure_main_exp,2022.2.2,Win32,8.578978072,,,,,,,,,,,,,,,,,,,,,,,,,,,,,,6,5.0043,1,,,,,,,,,,,,0,131,5,5,2214,2178,absent_patch/patch0002214.jpg,absent_patch/patch0002178.jpg,,,,,,,,,,,,,,,,,,,,0.122395833,0.057291667,1,0,0,response1disk,6,0.002604167,0.00390625,1,0,0,center_square,0,5,5,62,1,,,,,,,,,,,,,,,,,,,,,,,
760553,001,2022-11-21_02h11.00.400,Info_measure_main_exp,2022.2.2,Win32,8.578978072,,,,,,,,,,,,,,,,,,masks/mask_004.jpg,,,,,,,,,,,,,,,,,,,,,,,,,,,,,,,,,,,,,,,,,,,0,0,0,3,1,,,,,,,,,,,,,,,,,,,,,,,,,,,,,,,,,,,,,,,,,,,,,,
760553,001,2022-11-21_02h11.00.400,Info_measure_main_exp,2022.2.2,Win32,8.578978072,,,,,,,,,,,,,,,,,,masks/mask_005.jpg,,,,,,,,,,,,,,,,,,,,,,,,,,,,,,,,,,,,,,,,,,,0,1,1,4,1,,,,,,,,,,,,,,,,,,,,,,,,,,,,,,,,,,,,,,,,,,,,,,
760553,001,2022-11-21_02h11.00.400,Info_measure_main_exp,2022.2.2,Win32,8.578978072,,,,,,,,,,,,,,,,,,masks/mask_001.jpg,,,,,,,,,,,,,,,,,,,,,,,,,,,,,,,,,,,,,,,,,,,0,2,2,0,1,,,,,,,,,,,,,,,,,,,,,,,,,,,,,,,,,,,,,,,,,,,,,,
760553,001,2022-11-21_02h11.00.400,Info_measure_main_exp,2022.2.2,Win32,8.578978072,,,,,,,,,,,,,,,,,,masks/mask_002.jpg,,,,,,,,,,,,,,,,,,,,,,,,,,,,,,,,,,,,,,,,,,,0,3,3,1,1,,,,,,,,,,,,,,,,,,,,,,,,,,,,,,,,,,,,,,,,,,,,,,
760553,001,2022-11-21_02h11.00.400,Info_measure_main_exp,2022.2.2,Win32,8.578978072,,,,,,,,,,,,,,,,,,masks/mask_003.jpg,,,,,,,,,,,,,,,,,,,,,,,,,,,,,,,,,,,,,,,,,,,0,4,4,2,1,,,,,,,,,,,,,,,,,,,,,,,,,,,,,,,,,,,,,,,,,,,,,,
760553,001,2022-11-21_02h11.00.400,Info_measure_main_exp,2022.2.2,Win32,8.578978072,,,,,,,,,,,,,,,,,,masks/mask_002.jpg,,,,,,,,,,,,,,,,,,,,,,,,,,,,,,,,,,,,,,,,,,,,,,,,0,0,0,1,1,,,,,,,,,,,,,,,,,,,,,,,,,,,,,,,,,,,,,,,,,
760553,001,2022-11-21_02h11.00.400,Info_measure_main_exp,2022.2.2,Win32,8.578978072,,,,,,,,,,,,,,,,,,masks/mask_004.jpg,,,,,,,,,,,,,,,,,,,,,,,,,,,,,,,,,,,,,,,,,,,,,,,,0,1,1,3,1,,,,,,,,,,,,,,,,,,,,,,,,,,,,,,,,,,,,,,,,,
760553,001,2022-11-21_02h11.00.400,Info_measure_main_exp,2022.2.2,Win32,8.578978072,,,,,,,,,,,,,,,,,,masks/mask_003.jpg,,,,,,,,,,,,,,,,,,,,,,,,,,,,,,,,,,,,,,,,,,,,,,,,0,2,2,2,1,,,,,,,,,,,,,,,,,,,,,,,,,,,,,,,,,,,,,,,,,
760553,001,2022-11-21_02h11.00.400,Info_measure_main_exp,2022.2.2,Win32,8.578978072,,,,,,,,,,,,,,,,,,masks/mask_001.jpg,,,,,,,,,,,,,,,,,,,,,,,,,,,,,,,,,,,,,,,,,,,,,,,,0,3,3,0,1,,,,,,,,,,,,,,,,,,,,,,,,,,,,,,,,,,,,,,,,,
760553,001,2022-11-21_02h11.00.400,Info_measure_main_exp,2022.2.2,Win32,8.578978072,,,,,,,,,,,,,,,,,,masks/mask_005.jpg,,,,,,,,,,,,,,,,,,,,,,,,,,,,,,,,,,,,,,,,,,,,,,,,0,4,4,4,1,,,,,,,,,,,,,,,,,,,,,,,,,,,,,,,,,,,,,,,,,
760553,001,2022-11-21_02h11.00.400,Info_measure_main_exp,2022.2.2,Win32,8.578978072,,,,,,,,,,,,,,,,,,,,,,,,,,,,,,4,3.3472,1,,,,,,,,,,,,0,131,5,5,2274,2250,absent_patch/patch0002274.jpg,absent_patch/patch0002250.jpg,,,,,,,,,,,,,,,,,,,,0.02734375,-0.072916667,1,0,0,response3disk,7,0.001302083,0.001302083,1,0,0,center_square,0,6,6,28,1,,,,,,,,,,,,,,,,,,,,,,,
760553,001,2022-11-21_02h11.00.400,Info_measure_main_exp,2022.2.2,Win32,8.578978072,,,,,,,,,,,,,,,,,,masks/mask_004.jpg,,,,,,,,,,,,,,,,,,,,,,,,,,,,,,,,,,,,,,,,,,,0,0,0,3,1,,,,,,,,,,,,,,,,,,,,,,,,,,,,,,,,,,,,,,,,,,,,,,
760553,001,2022-11-21_02h11.00.400,Info_measure_main_exp,2022.2.2,Win32,8.578978072,,,,,,,,,,,,,,,,,,masks/mask_003.jpg,,,,,,,,,,,,,,,,,,,,,,,,,,,,,,,,,,,,,,,,,,,0,1,1,2,1,,,,,,,,,,,,,,,,,,,,,,,,,,,,,,,,,,,,,,,,,,,,,,
760553,001,2022-11-21_02h11.00.400,Info_measure_main_exp,2022.2.2,Win32,8.578978072,,,,,,,,,,,,,,,,,,masks/mask_002.jpg,,,,,,,,,,,,,,,,,,,,,,,,,,,,,,,,,,,,,,,,,,,0,2,2,1,1,,,,,,,,,,,,,,,,,,,,,,,,,,,,,,,,,,,,,,,,,,,,,,
760553,001,2022-11-21_02h11.00.400,Info_measure_main_exp,2022.2.2,Win32,8.578978072,,,,,,,,,,,,,,,,,,masks/mask_005.jpg,,,,,,,,,,,,,,,,,,,,,,,,,,,,,,,,,,,,,,,,,,,0,3,3,4,1,,,,,,,,,,,,,,,,,,,,,,,,,,,,,,,,,,,,,,,,,,,,,,
760553,001,2022-11-21_02h11.00.400,Info_measure_main_exp,2022.2.2,Win32,8.578978072,,,,,,,,,,,,,,,,,,masks/mask_001.jpg,,,,,,,,,,,,,,,,,,,,,,,,,,,,,,,,,,,,,,,,,,,0,4,4,0,1,,,,,,,,,,,,,,,,,,,,,,,,,,,,,,,,,,,,,,,,,,,,,,
760553,001,2022-11-21_02h11.00.400,Info_measure_main_exp,2022.2.2,Win32,8.578978072,,,,,,,,,,,,,,,,,,masks/mask_003.jpg,,,,,,,,,,,,,,,,,,,,,,,,,,,,,,,,,,,,,,,,,,,,,,,,0,0,0,2,1,,,,,,,,,,,,,,,,,,,,,,,,,,,,,,,,,,,,,,,,,
760553,001,2022-11-21_02h11.00.400,Info_measure_main_exp,2022.2.2,Win32,8.578978072,,,,,,,,,,,,,,,,,,masks/mask_004.jpg,,,,,,,,,,,,,,,,,,,,,,,,,,,,,,,,,,,,,,,,,,,,,,,,0,1,1,3,1,,,,,,,,,,,,,,,,,,,,,,,,,,,,,,,,,,,,,,,,,
760553,001,2022-11-21_02h11.00.400,Info_measure_main_exp,2022.2.2,Win32,8.578978072,,,,,,,,,,,,,,,,,,masks/mask_002.jpg,,,,,,,,,,,,,,,,,,,,,,,,,,,,,,,,,,,,,,,,,,,,,,,,0,2,2,1,1,,,,,,,,,,,,,,,,,,,,,,,,,,,,,,,,,,,,,,,,,
760553,001,2022-11-21_02h11.00.400,Info_measure_main_exp,2022.2.2,Win32,8.578978072,,,,,,,,,,,,,,,,,,masks/mask_005.jpg,,,,,,,,,,,,,,,,,,,,,,,,,,,,,,,,,,,,,,,,,,,,,,,,0,3,3,4,1,,,,,,,,,,,,,,,,,,,,,,,,,,,,,,,,,,,,,,,,,
760553,001,2022-11-21_02h11.00.400,Info_measure_main_exp,2022.2.2,Win32,8.578978072,,,,,,,,,,,,,,,,,,masks/mask_001.jpg,,,,,,,,,,,,,,,,,,,,,,,,,,,,,,,,,,,,,,,,,,,,,,,,0,4,4,0,1,,,,,,,,,,,,,,,,,,,,,,,,,,,,,,,,,,,,,,,,,
760553,001,2022-11-21_02h11.00.400,Info_measure_main_exp,2022.2.2,Win32,8.578978072,,,,,,,,,,,,,,,,,,,,,,,,,,,,,,6,1.6627,1,,,,,,,,,,,,0,131,5,5,2274,2178,absent_patch/patch0002274.jpg,absent_patch/patch0002178.jpg,,,,,,,,,,,,,,,,,,,,0.088541667,0.053385417,1,0,0,response1disk,8,0.001302083,-0.002604167,1,0,0,center_square,0,7,7,117,1,,,,,,,,,,,,,,,,,,,,,,,
760553,001,2022-11-21_02h11.00.400,Info_measure_main_exp,2022.2.2,Win32,8.578978072,,,,,,,,,,,,,,,,,,masks/mask_002.jpg,,,,,,,,,,,,,,,,,,,,,,,,,,,,,,,,,,,,,,,,,,,0,0,0,1,1,,,,,,,,,,,,,,,,,,,,,,,,,,,,,,,,,,,,,,,,,,,,,,
760553,001,2022-11-21_02h11.00.400,Info_measure_main_exp,2022.2.2,Win32,8.578978072,,,,,,,,,,,,,,,,,,masks/mask_005.jpg,,,,,,,,,,,,,,,,,,,,,,,,,,,,,,,,,,,,,,,,,,,0,1,1,4,1,,,,,,,,,,,,,,,,,,,,,,,,,,,,,,,,,,,,,,,,,,,,,,
760553,001,2022-11-21_02h11.00.400,Info_measure_main_exp,2022.2.2,Win32,8.578978072,,,,,,,,,,,,,,,,,,masks/mask_003.jpg,,,,,,,,,,,,,,,,,,,,,,,,,,,,,,,,,,,,,,,,,,,0,2,2,2,1,,,,,,,,,,,,,,,,,,,,,,,,,,,,,,,,,,,,,,,,,,,,,,
760553,001,2022-11-21_02h11.00.400,Info_measure_main_exp,2022.2.2,Win32,8.578978072,,,,,,,,,,,,,,,,,,masks/mask_001.jpg,,,,,,,,,,,,,,,,,,,,,,,,,,,,,,,,,,,,,,,,,,,0,3,3,0,1,,,,,,,,,,,,,,,,,,,,,,,,,,,,,,,,,,,,,,,,,,,,,,
760553,001,2022-11-21_02h11.00.400,Info_measure_main_exp,2022.2.2,Win32,8.578978072,,,,,,,,,,,,,,,,,,masks/mask_004.jpg,,,,,,,,,,,,,,,,,,,,,,,,,,,,,,,,,,,,,,,,,,,0,4,4,3,1,,,,,,,,,,,,,,,,,,,,,,,,,,,,,,,,,,,,,,,,,,,,,,
760553,001,2022-11-21_02h11.00.400,Info_measure_main_exp,2022.2.2,Win32,8.578978072,,,,,,,,,,,,,,,,,,masks/mask_002.jpg,,,,,,,,,,,,,,,,,,,,,,,,,,,,,,,,,,,,,,,,,,,,,,,,0,0,0,1,1,,,,,,,,,,,,,,,,,,,,,,,,,,,,,,,,,,,,,,,,,
760553,001,2022-11-21_02h11.00.400,Info_measure_main_exp,2022.2.2,Win32,8.578978072,,,,,,,,,,,,,,,,,,masks/mask_005.jpg,,,,,,,,,,,,,,,,,,,,,,,,,,,,,,,,,,,,,,,,,,,,,,,,0,1,1,4,1,,,,,,,,,,,,,,,,,,,,,,,,,,,,,,,,,,,,,,,,,
760553,001,2022-11-21_02h11.00.400,Info_measure_main_exp,2022.2.2,Win32,8.578978072,,,,,,,,,,,,,,,,,,masks/mask_001.jpg,,,,,,,,,,,,,,,,,,,,,,,,,,,,,,,,,,,,,,,,,,,,,,,,0,2,2,0,1,,,,,,,,,,,,,,,,,,,,,,,,,,,,,,,,,,,,,,,,,
760553,001,2022-11-21_02h11.00.400,Info_measure_main_exp,2022.2.2,Win32,8.578978072,,,,,,,,,,,,,,,,,,masks/mask_003.jpg,,,,,,,,,,,,,,,,,,,,,,,,,,,,,,,,,,,,,,,,,,,,,,,,0,3,3,2,1,,,,,,,,,,,,,,,,,,,,,,,,,,,,,,,,,,,,,,,,,
760553,001,2022-11-21_02h11.00.400,Info_measure_main_exp,2022.2.2,Win32,8.578978072,,,,,,,,,,,,,,,,,,masks/mask_004.jpg,,,,,,,,,,,,,,,,,,,,,,,,,,,,,,,,,,,,,,,,,,,,,,,,0,4,4,3,1,,,,,,,,,,,,,,,,,,,,,,,,,,,,,,,,,,,,,,,,,
760553,001,2022-11-21_02h11.00.400,Info_measure_main_exp,2022.2.2,Win32,8.578978072,,,,,,,,,,,,,,,,,,,,,,,,,,,,,,0,4.8957,1,,,,,,,,,,,,1,131,5,5,1,2166,present_patch/cong_131_5_a.jpg,absent_patch/patch0002166.jpg,,,,,,,,,,,,,,,,,,,,-0.016927083,0.0546875,1,0,0,response7disk,9,0.005208333,0.006510417,1,0,0,center_square,0,8,8,54,1,,,,,,,,,,,,,,,,,,,,,,,
760553,001,2022-11-21_02h11.00.400,Info_measure_main_exp,2022.2.2,Win32,8.578978072,,,,,,,,,,,,,,,,,,masks/mask_004.jpg,,,,,,,,,,,,,,,,,,,,,,,,,,,,,,,,,,,,,,,,,,,0,0,0,3,1,,,,,,,,,,,,,,,,,,,,,,,,,,,,,,,,,,,,,,,,,,,,,,
760553,001,2022-11-21_02h11.00.400,Info_measure_main_exp,2022.2.2,Win32,8.578978072,,,,,,,,,,,,,,,,,,masks/mask_002.jpg,,,,,,,,,,,,,,,,,,,,,,,,,,,,,,,,,,,,,,,,,,,0,1,1,1,1,,,,,,,,,,,,,,,,,,,,,,,,,,,,,,,,,,,,,,,,,,,,,,
760553,001,2022-11-21_02h11.00.400,Info_measure_main_exp,2022.2.2,Win32,8.578978072,,,,,,,,,,,,,,,,,,masks/mask_005.jpg,,,,,,,,,,,,,,,,,,,,,,,,,,,,,,,,,,,,,,,,,,,0,2,2,4,1,,,,,,,,,,,,,,,,,,,,,,,,,,,,,,,,,,,,,,,,,,,,,,
760553,001,2022-11-21_02h11.00.400,Info_measure_main_exp,2022.2.2,Win32,8.578978072,,,,,,,,,,,,,,,,,,masks/mask_001.jpg,,,,,,,,,,,,,,,,,,,,,,,,,,,,,,,,,,,,,,,,,,,0,3,3,0,1,,,,,,,,,,,,,,,,,,,,,,,,,,,,,,,,,,,,,,,,,,,,,,
760553,001,2022-11-21_02h11.00.400,Info_measure_main_exp,2022.2.2,Win32,8.578978072,,,,,,,,,,,,,,,,,,masks/mask_003.jpg,,,,,,,,,,,,,,,,,,,,,,,,,,,,,,,,,,,,,,,,,,,0,4,4,2,1,,,,,,,,,,,,,,,,,,,,,,,,,,,,,,,,,,,,,,,,,,,,,,
760553,001,2022-11-21_02h11.00.400,Info_measure_main_exp,2022.2.2,Win32,8.578978072,,,,,,,,,,,,,,,,,,masks/mask_005.jpg,,,,,,,,,,,,,,,,,,,,,,,,,,,,,,,,,,,,,,,,,,,,,,,,0,0,0,4,1,,,,,,,,,,,,,,,,,,,,,,,,,,,,,,,,,,,,,,,,,
760553,001,2022-11-21_02h11.00.400,Info_measure_main_exp,2022.2.2,Win32,8.578978072,,,,,,,,,,,,,,,,,,masks/mask_003.jpg,,,,,,,,,,,,,,,,,,,,,,,,,,,,,,,,,,,,,,,,,,,,,,,,0,1,1,2,1,,,,,,,,,,,,,,,,,,,,,,,,,,,,,,,,,,,,,,,,,
760553,001,2022-11-21_02h11.00.400,Info_measure_main_exp,2022.2.2,Win32,8.578978072,,,,,,,,,,,,,,,,,,masks/mask_002.jpg,,,,,,,,,,,,,,,,,,,,,,,,,,,,,,,,,,,,,,,,,,,,,,,,0,2,2,1,1,,,,,,,,,,,,,,,,,,,,,,,,,,,,,,,,,,,,,,,,,
760553,001,2022-11-21_02h11.00.400,Info_measure_main_exp,2022.2.2,Win32,8.578978072,,,,,,,,,,,,,,,,,,masks/mask_001.jpg,,,,,,,,,,,,,,,,,,,,,,,,,,,,,,,,,,,,,,,,,,,,,,,,0,3,3,0,1,,,,,,,,,,,,,,,,,,,,,,,,,,,,,,,,,,,,,,,,,
760553,001,2022-11-21_02h11.00.400,Info_measure_main_exp,2022.2.2,Win32,8.578978072,,,,,,,,,,,,,,,,,,masks/mask_004.jpg,,,,,,,,,,,,,,,,,,,,,,,,,,,,,,,,,,,,,,,,,,,,,,,,0,4,4,3,1,,,,,,,,,,,,,,,,,,,,,,,,,,,,,,,,,,,,,,,,,
760553,001,2022-11-21_02h11.00.400,Info_measure_main_exp,2022.2.2,Win32,8.578978072,,,,,,,,,,,,,,,,,,,,,,,,,,,,,,7,2.2575,1,,,,,,,,,,,,0,131,5,5,2298,1986,absent_patch/patch0002298.jpg,absent_patch/patch0001986.jpg,,,,,,,,,,,,,,,,,,,,0.078125,0.118489583,1,0,0,response1disk,10,0.002604167,-0.002604167,1,0,0,center_square,0,9,9,32,1,,,,,,,,,,,,,,,,,,,,,,,
760553,001,2022-11-21_02h11.00.400,Info_measure_main_exp,2022.2.2,Win32,8.578978072,,,,,,,,,,,,,,,,,,masks/mask_003.jpg,,,,,,,,,,,,,,,,,,,,,,,,,,,,,,,,,,,,,,,,,,,0,0,0,2,1,,,,,,,,,,,,,,,,,,,,,,,,,,,,,,,,,,,,,,,,,,,,,,
760553,001,2022-11-21_02h11.00.400,Info_measure_main_exp,2022.2.2,Win32,8.578978072,,,,,,,,,,,,,,,,,,masks/mask_004.jpg,,,,,,,,,,,,,,,,,,,,,,,,,,,,,,,,,,,,,,,,,,,0,1,1,3,1,,,,,,,,,,,,,,,,,,,,,,,,,,,,,,,,,,,,,,,,,,,,,,
760553,001,2022-11-21_02h11.00.400,Info_measure_main_exp,2022.2.2,Win32,8.578978072,,,,,,,,,,,,,,,,,,masks/mask_005.jpg,,,,,,,,,,,,,,,,,,,,,,,,,,,,,,,,,,,,,,,,,,,0,2,2,4,1,,,,,,,,,,,,,,,,,,,,,,,,,,,,,,,,,,,,,,,,,,,,,,
760553,001,2022-11-21_02h11.00.400,Info_measure_main_exp,2022.2.2,Win32,8.578978072,,,,,,,,,,,,,,,,,,masks/mask_001.jpg,,,,,,,,,,,,,,,,,,,,,,,,,,,,,,,,,,,,,,,,,,,0,3,3,0,1,,,,,,,,,,,,,,,,,,,,,,,,,,,,,,,,,,,,,,,,,,,,,,
760553,001,2022-11-21_02h11.00.400,Info_measure_main_exp,2022.2.2,Win32,8.578978072,,,,,,,,,,,,,,,,,,masks/mask_002.jpg,,,,,,,,,,,,,,,,,,,,,,,,,,,,,,,,,,,,,,,,,,,0,4,4,1,1,,,,,,,,,,,,,,,,,,,,,,,,,,,,,,,,,,,,,,,,,,,,,,
760553,001,2022-11-21_02h11.00.400,Info_measure_main_exp,2022.2.2,Win32,8.578978072,,,,,,,,,,,,,,,,,,masks/mask_001.jpg,,,,,,,,,,,,,,,,,,,,,,,,,,,,,,,,,,,,,,,,,,,,,,,,0,0,0,0,1,,,,,,,,,,,,,,,,,,,,,,,,,,,,,,,,,,,,,,,,,
760553,001,2022-11-21_02h11.00.400,Info_measure_main_exp,2022.2.2,Win32,8.578978072,,,,,,,,,,,,,,,,,,masks/mask_005.jpg,,,,,,,,,,,,,,,,,,,,,,,,,,,,,,,,,,,,,,,,,,,,,,,,0,1,1,4,1,,,,,,,,,,,,,,,,,,,,,,,,,,,,,,,,,,,,,,,,,
760553,001,2022-11-21_02h11.00.400,Info_measure_main_exp,2022.2.2,Win32,8.578978072,,,,,,,,,,,,,,,,,,masks/mask_002.jpg,,,,,,,,,,,,,,,,,,,,,,,,,,,,,,,,,,,,,,,,,,,,,,,,0,2,2,1,1,,,,,,,,,,,,,,,,,,,,,,,,,,,,,,,,,,,,,,,,,
760553,001,2022-11-21_02h11.00.400,Info_measure_main_exp,2022.2.2,Win32,8.578978072,,,,,,,,,,,,,,,,,,masks/mask_003.jpg,,,,,,,,,,,,,,,,,,,,,,,,,,,,,,,,,,,,,,,,,,,,,,,,0,3,3,2,1,,,,,,,,,,,,,,,,,,,,,,,,,,,,,,,,,,,,,,,,,
760553,001,2022-11-21_02h11.00.400,Info_measure_main_exp,2022.2.2,Win32,8.578978072,,,,,,,,,,,,,,,,,,masks/mask_004.jpg,,,,,,,,,,,,,,,,,,,,,,,,,,,,,,,,,,,,,,,,,,,,,,,,0,4,4,3,1,,,,,,,,,,,,,,,,,,,,,,,,,,,,,,,,,,,,,,,,,
760553,001,2022-11-21_02h11.00.400,Info_measure_main_exp,2022.2.2,Win32,8.578978072,,,,,,,,,,,,,,,,,,,,,,,,,,,,,,7,1.3412,1,,,,,,,,,,,,0,131,5,5,2190,2166,absent_patch/patch0002190.jpg,absent_patch/patch0002166.jpg,,,,,,,,,,,,,,,,,,,,0.05859375,0.119791667,1,0,0,response1disk,11,0.005208333,0,1,0,0,center_square,0,10,10,50,1,,,,,,,,,,,,,,,,,,,,,,,
760553,001,2022-11-21_02h11.00.400,Info_measure_main_exp,2022.2.2,Win32,8.578978072,,,,,,,,,,,,,,,,,,masks/mask_004.jpg,,,,,,,,,,,,,,,,,,,,,,,,,,,,,,,,,,,,,,,,,,,0,0,0,3,1,,,,,,,,,,,,,,,,,,,,,,,,,,,,,,,,,,,,,,,,,,,,,,
760553,001,2022-11-21_02h11.00.400,Info_measure_main_exp,2022.2.2,Win32,8.578978072,,,,,,,,,,,,,,,,,,masks/mask_005.jpg,,,,,,,,,,,,,,,,,,,,,,,,,,,,,,,,,,,,,,,,,,,0,1,1,4,1,,,,,,,,,,,,,,,,,,,,,,,,,,,,,,,,,,,,,,,,,,,,,,
760553,001,2022-11-21_02h11.00.400,Info_measure_main_exp,2022.2.2,Win32,8.578978072,,,,,,,,,,,,,,,,,,masks/mask_001.jpg,,,,,,,,,,,,,,,,,,,,,,,,,,,,,,,,,,,,,,,,,,,0,2,2,0,1,,,,,,,,,,,,,,,,,,,,,,,,,,,,,,,,,,,,,,,,,,,,,,
760553,001,2022-11-21_02h11.00.400,Info_measure_main_exp,2022.2.2,Win32,8.578978072,,,,,,,,,,,,,,,,,,masks/mask_002.jpg,,,,,,,,,,,,,,,,,,,,,,,,,,,,,,,,,,,,,,,,,,,0,3,3,1,1,,,,,,,,,,,,,,,,,,,,,,,,,,,,,,,,,,,,,,,,,,,,,,
760553,001,2022-11-21_02h11.00.400,Info_measure_main_exp,2022.2.2,Win32,8.578978072,,,,,,,,,,,,,,,,,,masks/mask_003.jpg,,,,,,,,,,,,,,,,,,,,,,,,,,,,,,,,,,,,,,,,,,,0,4,4,2,1,,,,,,,,,,,,,,,,,,,,,,,,,,,,,,,,,,,,,,,,,,,,,,
760553,001,2022-11-21_02h11.00.400,Info_measure_main_exp,2022.2.2,Win32,8.578978072,,,,,,,,,,,,,,,,,,masks/mask_005.jpg,,,,,,,,,,,,,,,,,,,,,,,,,,,,,,,,,,,,,,,,,,,,,,,,0,0,0,4,1,,,,,,,,,,,,,,,,,,,,,,,,,,,,,,,,,,,,,,,,,
760553,001,2022-11-21_02h11.00.400,Info_measure_main_exp,2022.2.2,Win32,8.578978072,,,,,,,,,,,,,,,,,,masks/mask_001.jpg,,,,,,,,,,,,,,,,,,,,,,,,,,,,,,,,,,,,,,,,,,,,,,,,0,1,1,0,1,,,,,,,,,,,,,,,,,,,,,,,,,,,,,,,,,,,,,,,,,
760553,001,2022-11-21_02h11.00.400,Info_measure_main_exp,2022.2.2,Win32,8.578978072,,,,,,,,,,,,,,,,,,masks/mask_003.jpg,,,,,,,,,,,,,,,,,,,,,,,,,,,,,,,,,,,,,,,,,,,,,,,,0,2,2,2,1,,,,,,,,,,,,,,,,,,,,,,,,,,,,,,,,,,,,,,,,,
760553,001,2022-11-21_02h11.00.400,Info_measure_main_exp,2022.2.2,Win32,8.578978072,,,,,,,,,,,,,,,,,,masks/mask_002.jpg,,,,,,,,,,,,,,,,,,,,,,,,,,,,,,,,,,,,,,,,,,,,,,,,0,3,3,1,1,,,,,,,,,,,,,,,,,,,,,,,,,,,,,,,,,,,,,,,,,
760553,001,2022-11-21_02h11.00.400,Info_measure_main_exp,2022.2.2,Win32,8.578978072,,,,,,,,,,,,,,,,,,masks/mask_004.jpg,,,,,,,,,,,,,,,,,,,,,,,,,,,,,,,,,,,,,,,,,,,,,,,,0,4,4,3,1,,,,,,,,,,,,,,,,,,,,,,,,,,,,,,,,,,,,,,,,,
760553,001,2022-11-21_02h11.00.400,Info_measure_main_exp,2022.2.2,Win32,8.578978072,,,,,,,,,,,,,,,,,,,,,,,,,,,,,,7,1.1274,1,,,,,,,,,,,,0,131,5,5,2190,2250,absent_patch/patch0002190.jpg,absent_patch/patch0002250.jpg,,,,,,,,,,,,,,,,,,,,0.10546875,0.1796875,1,0,0,response1disk,12,0.002604167,-0.005208333,1,0,0,center_square,0,11,11,93,1,,,,,,,,,,,,,,,,,,,,,,,
760553,001,2022-11-21_02h11.00.400,Info_measure_main_exp,2022.2.2,Win32,8.578978072,,,,,,,,,,,,,,,,,,masks/mask_005.jpg,,,,,,,,,,,,,,,,,,,,,,,,,,,,,,,,,,,,,,,,,,,0,0,0,4,1,,,,,,,,,,,,,,,,,,,,,,,,,,,,,,,,,,,,,,,,,,,,,,
760553,001,2022-11-21_02h11.00.400,Info_measure_main_exp,2022.2.2,Win32,8.578978072,,,,,,,,,,,,,,,,,,masks/mask_001.jpg,,,,,,,,,,,,,,,,,,,,,,,,,,,,,,,,,,,,,,,,,,,0,1,1,0,1,,,,,,,,,,,,,,,,,,,,,,,,,,,,,,,,,,,,,,,,,,,,,,
760553,001,2022-11-21_02h11.00.400,Info_measure_main_exp,2022.2.2,Win32,8.578978072,,,,,,,,,,,,,,,,,,masks/mask_003.jpg,,,,,,,,,,,,,,,,,,,,,,,,,,,,,,,,,,,,,,,,,,,0,2,2,2,1,,,,,,,,,,,,,,,,,,,,,,,,,,,,,,,,,,,,,,,,,,,,,,
760553,001,2022-11-21_02h11.00.400,Info_measure_main_exp,2022.2.2,Win32,8.578978072,,,,,,,,,,,,,,,,,,masks/mask_004.jpg,,,,,,,,,,,,,,,,,,,,,,,,,,,,,,,,,,,,,,,,,,,0,3,3,3,1,,,,,,,,,,,,,,,,,,,,,,,,,,,,,,,,,,,,,,,,,,,,,,
760553,001,2022-11-21_02h11.00.400,Info_measure_main_exp,2022.2.2,Win32,8.578978072,,,,,,,,,,,,,,,,,,masks/mask_002.jpg,,,,,,,,,,,,,,,,,,,,,,,,,,,,,,,,,,,,,,,,,,,0,4,4,1,1,,,,,,,,,,,,,,,,,,,,,,,,,,,,,,,,,,,,,,,,,,,,,,
760553,001,2022-11-21_02h11.00.400,Info_measure_main_exp,2022.2.2,Win32,8.578978072,,,,,,,,,,,,,,,,,,masks/mask_001.jpg,,,,,,,,,,,,,,,,,,,,,,,,,,,,,,,,,,,,,,,,,,,,,,,,0,0,0,0,1,,,,,,,,,,,,,,,,,,,,,,,,,,,,,,,,,,,,,,,,,
760553,001,2022-11-21_02h11.00.400,Info_measure_main_exp,2022.2.2,Win32,8.578978072,,,,,,,,,,,,,,,,,,masks/mask_003.jpg,,,,,,,,,,,,,,,,,,,,,,,,,,,,,,,,,,,,,,,,,,,,,,,,0,1,1,2,1,,,,,,,,,,,,,,,,,,,,,,,,,,,,,,,,,,,,,,,,,
760553,001,2022-11-21_02h11.00.400,Info_measure_main_exp,2022.2.2,Win32,8.578978072,,,,,,,,,,,,,,,,,,masks/mask_002.jpg,,,,,,,,,,,,,,,,,,,,,,,,,,,,,,,,,,,,,,,,,,,,,,,,0,2,2,1,1,,,,,,,,,,,,,,,,,,,,,,,,,,,,,,,,,,,,,,,,,
760553,001,2022-11-21_02h11.00.400,Info_measure_main_exp,2022.2.2,Win32,8.578978072,,,,,,,,,,,,,,,,,,masks/mask_004.jpg,,,,,,,,,,,,,,,,,,,,,,,,,,,,,,,,,,,,,,,,,,,,,,,,0,3,3,3,1,,,,,,,,,,,,,,,,,,,,,,,,,,,,,,,,,,,,,,,,,
760553,001,2022-11-21_02h11.00.400,Info_measure_main_exp,2022.2.2,Win32,8.578978072,,,,,,,,,,,,,,,,,,masks/mask_005.jpg,,,,,,,,,,,,,,,,,,,,,,,,,,,,,,,,,,,,,,,,,,,,,,,,0,4,4,4,1,,,,,,,,,,,,,,,,,,,,,,,,,,,,,,,,,,,,,,,,,
760553,001,2022-11-21_02h11.00.400,Info_measure_main_exp,2022.2.2,Win32,8.578978072,,,,,,,,,,,,,,,,,,,,,,,,,,,,,,4,6.4012,1,,,,,,,,,,,,0,131,5,5,2082,1986,absent_patch/patch0002082.jpg,absent_patch/patch0001986.jpg,,,,,,,,,,,,,,,,,,,,0.041666667,-0.078125,1,0,0,response3disk,13,0,0,1,0,0,center_square,0,12,12,94,1,,,,,,,,,,,,,,,,,,,,,,,
760553,001,2022-11-21_02h11.00.400,Info_measure_main_exp,2022.2.2,Win32,8.578978072,,,,,,,,,,,,,,,,,,masks/mask_005.jpg,,,,,,,,,,,,,,,,,,,,,,,,,,,,,,,,,,,,,,,,,,,0,0,0,4,1,,,,,,,,,,,,,,,,,,,,,,,,,,,,,,,,,,,,,,,,,,,,,,
760553,001,2022-11-21_02h11.00.400,Info_measure_main_exp,2022.2.2,Win32,8.578978072,,,,,,,,,,,,,,,,,,masks/mask_002.jpg,,,,,,,,,,,,,,,,,,,,,,,,,,,,,,,,,,,,,,,,,,,0,1,1,1,1,,,,,,,,,,,,,,,,,,,,,,,,,,,,,,,,,,,,,,,,,,,,,,
760553,001,2022-11-21_02h11.00.400,Info_measure_main_exp,2022.2.2,Win32,8.578978072,,,,,,,,,,,,,,,,,,masks/mask_001.jpg,,,,,,,,,,,,,,,,,,,,,,,,,,,,,,,,,,,,,,,,,,,0,2,2,0,1,,,,,,,,,,,,,,,,,,,,,,,,,,,,,,,,,,,,,,,,,,,,,,
760553,001,2022-11-21_02h11.00.400,Info_measure_main_exp,2022.2.2,Win32,8.578978072,,,,,,,,,,,,,,,,,,masks/mask_004.jpg,,,,,,,,,,,,,,,,,,,,,,,,,,,,,,,,,,,,,,,,,,,0,3,3,3,1,,,,,,,,,,,,,,,,,,,,,,,,,,,,,,,,,,,,,,,,,,,,,,
760553,001,2022-11-21_02h11.00.400,Info_measure_main_exp,2022.2.2,Win32,8.578978072,,,,,,,,,,,,,,,,,,masks/mask_003.jpg,,,,,,,,,,,,,,,,,,,,,,,,,,,,,,,,,,,,,,,,,,,0,4,4,2,1,,,,,,,,,,,,,,,,,,,,,,,,,,,,,,,,,,,,,,,,,,,,,,
760553,001,2022-11-21_02h11.00.400,Info_measure_main_exp,2022.2.2,Win32,8.578978072,,,,,,,,,,,,,,,,,,masks/mask_001.jpg,,,,,,,,,,,,,,,,,,,,,,,,,,,,,,,,,,,,,,,,,,,,,,,,0,0,0,0,1,,,,,,,,,,,,,,,,,,,,,,,,,,,,,,,,,,,,,,,,,
760553,001,2022-11-21_02h11.00.400,Info_measure_main_exp,2022.2.2,Win32,8.578978072,,,,,,,,,,,,,,,,,,masks/mask_003.jpg,,,,,,,,,,,,,,,,,,,,,,,,,,,,,,,,,,,,,,,,,,,,,,,,0,1,1,2,1,,,,,,,,,,,,,,,,,,,,,,,,,,,,,,,,,,,,,,,,,
760553,001,2022-11-21_02h11.00.400,Info_measure_main_exp,2022.2.2,Win32,8.578978072,,,,,,,,,,,,,,,,,,masks/mask_005.jpg,,,,,,,,,,,,,,,,,,,,,,,,,,,,,,,,,,,,,,,,,,,,,,,,0,2,2,4,1,,,,,,,,,,,,,,,,,,,,,,,,,,,,,,,,,,,,,,,,,
760553,001,2022-11-21_02h11.00.400,Info_measure_main_exp,2022.2.2,Win32,8.578978072,,,,,,,,,,,,,,,,,,masks/mask_002.jpg,,,,,,,,,,,,,,,,,,,,,,,,,,,,,,,,,,,,,,,,,,,,,,,,0,3,3,1,1,,,,,,,,,,,,,,,,,,,,,,,,,,,,,,,,,,,,,,,,,
760553,001,2022-11-21_02h11.00.400,Info_measure_main_exp,2022.2.2,Win32,8.578978072,,,,,,,,,,,,,,,,,,masks/mask_004.jpg,,,,,,,,,,,,,,,,,,,,,,,,,,,,,,,,,,,,,,,,,,,,,,,,0,4,4,3,1,,,,,,,,,,,,,,,,,,,,,,,,,,,,,,,,,,,,,,,,,
760553,001,2022-11-21_02h11.00.400,Info_measure_main_exp,2022.2.2,Win32,8.578978072,,,,,,,,,,,,,,,,,,,,,,,,,,,,,,2,3.6575,1,,,,,,,,,,,,0,131,5,5,2082,1974,absent_patch/patch0002082.jpg,absent_patch/patch0001974.jpg,,,,,,,,,,,,,,,,,,,,-0.091145833,-0.072916667,1,0,0,response5disk,14,0,-0.00390625,1,0,0,center_square,0,13,13,26,1,,,,,,,,,,,,,,,,,,,,,,,
760553,001,2022-11-21_02h11.00.400,Info_measure_main_exp,2022.2.2,Win32,8.578978072,,,,,,,,,,,,,,,,,,masks/mask_003.jpg,,,,,,,,,,,,,,,,,,,,,,,,,,,,,,,,,,,,,,,,,,,0,0,0,2,1,,,,,,,,,,,,,,,,,,,,,,,,,,,,,,,,,,,,,,,,,,,,,,
760553,001,2022-11-21_02h11.00.400,Info_measure_main_exp,2022.2.2,Win32,8.578978072,,,,,,,,,,,,,,,,,,masks/mask_004.jpg,,,,,,,,,,,,,,,,,,,,,,,,,,,,,,,,,,,,,,,,,,,0,1,1,3,1,,,,,,,,,,,,,,,,,,,,,,,,,,,,,,,,,,,,,,,,,,,,,,
760553,001,2022-11-21_02h11.00.400,Info_measure_main_exp,2022.2.2,Win32,8.578978072,,,,,,,,,,,,,,,,,,masks/mask_002.jpg,,,,,,,,,,,,,,,,,,,,,,,,,,,,,,,,,,,,,,,,,,,0,2,2,1,1,,,,,,,,,,,,,,,,,,,,,,,,,,,,,,,,,,,,,,,,,,,,,,
760553,001,2022-11-21_02h11.00.400,Info_measure_main_exp,2022.2.2,Win32,8.578978072,,,,,,,,,,,,,,,,,,masks/mask_005.jpg,,,,,,,,,,,,,,,,,,,,,,,,,,,,,,,,,,,,,,,,,,,0,3,3,4,1,,,,,,,,,,,,,,,,,,,,,,,,,,,,,,,,,,,,,,,,,,,,,,
760553,001,2022-11-21_02h11.00.400,Info_measure_main_exp,2022.2.2,Win32,8.578978072,,,,,,,,,,,,,,,,,,masks/mask_001.jpg,,,,,,,,,,,,,,,,,,,,,,,,,,,,,,,,,,,,,,,,,,,0,4,4,0,1,,,,,,,,,,,,,,,,,,,,,,,,,,,,,,,,,,,,,,,,,,,,,,
760553,001,2022-11-21_02h11.00.400,Info_measure_main_exp,2022.2.2,Win32,8.578978072,,,,,,,,,,,,,,,,,,masks/mask_002.jpg,,,,,,,,,,,,,,,,,,,,,,,,,,,,,,,,,,,,,,,,,,,,,,,,0,0,0,1,1,,,,,,,,,,,,,,,,,,,,,,,,,,,,,,,,,,,,,,,,,
760553,001,2022-11-21_02h11.00.400,Info_measure_main_exp,2022.2.2,Win32,8.578978072,,,,,,,,,,,,,,,,,,masks/mask_004.jpg,,,,,,,,,,,,,,,,,,,,,,,,,,,,,,,,,,,,,,,,,,,,,,,,0,1,1,3,1,,,,,,,,,,,,,,,,,,,,,,,,,,,,,,,,,,,,,,,,,
760553,001,2022-11-21_02h11.00.400,Info_measure_main_exp,2022.2.2,Win32,8.578978072,,,,,,,,,,,,,,,,,,masks/mask_001.jpg,,,,,,,,,,,,,,,,,,,,,,,,,,,,,,,,,,,,,,,,,,,,,,,,0,2,2,0,1,,,,,,,,,,,,,,,,,,,,,,,,,,,,,,,,,,,,,,,,,
760553,001,2022-11-21_02h11.00.400,Info_measure_main_exp,2022.2.2,Win32,8.578978072,,,,,,,,,,,,,,,,,,masks/mask_005.jpg,,,,,,,,,,,,,,,,,,,,,,,,,,,,,,,,,,,,,,,,,,,,,,,,0,3,3,4,1,,,,,,,,,,,,,,,,,,,,,,,,,,,,,,,,,,,,,,,,,
760553,001,2022-11-21_02h11.00.400,Info_measure_main_exp,2022.2.2,Win32,8.578978072,,,,,,,,,,,,,,,,,,masks/mask_003.jpg,,,,,,,,,,,,,,,,,,,,,,,,,,,,,,,,,,,,,,,,,,,,,,,,0,4,4,2,1,,,,,,,,,,,,,,,,,,,,,,,,,,,,,,,,,,,,,,,,,
760553,001,2022-11-21_02h11.00.400,Info_measure_main_exp,2022.2.2,Win32,8.578978072,,,,,,,,,,,,,,,,,,,,,,,,,,,,,,4,2.4733,1,,,,,,,,,,,,0,131,5,5,2274,2214,absent_patch/patch0002274.jpg,absent_patch/patch0002214.jpg,,,,,,,,,,,,,,,,,,,,0.024739583,-0.069010417,1,0,0,response3disk,15,-0.001302083,-0.006510417,1,0,0,center_square,0,14,14,11,1,,,,,,,,,,,,,,,,,,,,,,,
760553,001,2022-11-21_02h11.00.400,Info_measure_main_exp,2022.2.2,Win32,8.578978072,,,,,,,,,,,,,,,,,,masks/mask_002.jpg,,,,,,,,,,,,,,,,,,,,,,,,,,,,,,,,,,,,,,,,,,,0,0,0,1,1,,,,,,,,,,,,,,,,,,,,,,,,,,,,,,,,,,,,,,,,,,,,,,
760553,001,2022-11-21_02h11.00.400,Info_measure_main_exp,2022.2.2,Win32,8.578978072,,,,,,,,,,,,,,,,,,masks/mask_005.jpg,,,,,,,,,,,,,,,,,,,,,,,,,,,,,,,,,,,,,,,,,,,0,1,1,4,1,,,,,,,,,,,,,,,,,,,,,,,,,,,,,,,,,,,,,,,,,,,,,,
760553,001,2022-11-21_02h11.00.400,Info_measure_main_exp,2022.2.2,Win32,8.578978072,,,,,,,,,,,,,,,,,,masks/mask_003.jpg,,,,,,,,,,,,,,,,,,,,,,,,,,,,,,,,,,,,,,,,,,,0,2,2,2,1,,,,,,,,,,,,,,,,,,,,,,,,,,,,,,,,,,,,,,,,,,,,,,
760553,001,2022-11-21_02h11.00.400,Info_measure_main_exp,2022.2.2,Win32,8.578978072,,,,,,,,,,,,,,,,,,masks/mask_004.jpg,,,,,,,,,,,,,,,,,,,,,,,,,,,,,,,,,,,,,,,,,,,0,3,3,3,1,,,,,,,,,,,,,,,,,,,,,,,,,,,,,,,,,,,,,,,,,,,,,,
760553,001,2022-11-21_02h11.00.400,Info_measure_main_exp,2022.2.2,Win32,8.578978072,,,,,,,,,,,,,,,,,,masks/mask_001.jpg,,,,,,,,,,,,,,,,,,,,,,,,,,,,,,,,,,,,,,,,,,,0,4,4,0,1,,,,,,,,,,,,,,,,,,,,,,,,,,,,,,,,,,,,,,,,,,,,,,
760553,001,2022-11-21_02h11.00.400,Info_measure_main_exp,2022.2.2,Win32,8.578978072,,,,,,,,,,,,,,,,,,masks/mask_005.jpg,,,,,,,,,,,,,,,,,,,,,,,,,,,,,,,,,,,,,,,,,,,,,,,,0,0,0,4,1,,,,,,,,,,,,,,,,,,,,,,,,,,,,,,,,,,,,,,,,,
760553,001,2022-11-21_02h11.00.400,Info_measure_main_exp,2022.2.2,Win32,8.578978072,,,,,,,,,,,,,,,,,,masks/mask_001.jpg,,,,,,,,,,,,,,,,,,,,,,,,,,,,,,,,,,,,,,,,,,,,,,,,0,1,1,0,1,,,,,,,,,,,,,,,,,,,,,,,,,,,,,,,,,,,,,,,,,
760553,001,2022-11-21_02h11.00.400,Info_measure_main_exp,2022.2.2,Win32,8.578978072,,,,,,,,,,,,,,,,,,masks/mask_004.jpg,,,,,,,,,,,,,,,,,,,,,,,,,,,,,,,,,,,,,,,,,,,,,,,,0,2,2,3,1,,,,,,,,,,,,,,,,,,,,,,,,,,,,,,,,,,,,,,,,,
760553,001,2022-11-21_02h11.00.400,Info_measure_main_exp,2022.2.2,Win32,8.578978072,,,,,,,,,,,,,,,,,,masks/mask_003.jpg,,,,,,,,,,,,,,,,,,,,,,,,,,,,,,,,,,,,,,,,,,,,,,,,0,3,3,2,1,,,,,,,,,,,,,,,,,,,,,,,,,,,,,,,,,,,,,,,,,
760553,001,2022-11-21_02h11.00.400,Info_measure_main_exp,2022.2.2,Win32,8.578978072,,,,,,,,,,,,,,,,,,masks/mask_002.jpg,,,,,,,,,,,,,,,,,,,,,,,,,,,,,,,,,,,,,,,,,,,,,,,,0,4,4,1,1,,,,,,,,,,,,,,,,,,,,,,,,,,,,,,,,,,,,,,,,,
760553,001,2022-11-21_02h11.00.400,Info_measure_main_exp,2022.2.2,Win32,8.578978072,,,,,,,,,,,,,,,,,,,,,,,,,,,,,,7,1.6934,1,,,,,,,,,,,,1,131,5,5,1,2142,present_patch/cong_131_5_a.jpg,absent_patch/patch0002142.jpg,,,,,,,,,,,,,,,,,,,,0.071614583,0.10546875,1,0,0,response1disk,16,0,0.009114583,1,0,0,center_square,0,15,15,80,1,,,,,,,,,,,,,,,,,,,,,,,
760553,001,2022-11-21_02h11.00.400,Info_measure_main_exp,2022.2.2,Win32,8.578978072,,,,,,,,,,,,,,,,,,masks/mask_001.jpg,,,,,,,,,,,,,,,,,,,,,,,,,,,,,,,,,,,,,,,,,,,0,0,0,0,1,,,,,,,,,,,,,,,,,,,,,,,,,,,,,,,,,,,,,,,,,,,,,,
760553,001,2022-11-21_02h11.00.400,Info_measure_main_exp,2022.2.2,Win32,8.578978072,,,,,,,,,,,,,,,,,,masks/mask_003.jpg,,,,,,,,,,,,,,,,,,,,,,,,,,,,,,,,,,,,,,,,,,,0,1,1,2,1,,,,,,,,,,,,,,,,,,,,,,,,,,,,,,,,,,,,,,,,,,,,,,
760553,001,2022-11-21_02h11.00.400,Info_measure_main_exp,2022.2.2,Win32,8.578978072,,,,,,,,,,,,,,,,,,masks/mask_004.jpg,,,,,,,,,,,,,,,,,,,,,,,,,,,,,,,,,,,,,,,,,,,0,2,2,3,1,,,,,,,,,,,,,,,,,,,,,,,,,,,,,,,,,,,,,,,,,,,,,,
760553,001,2022-11-21_02h11.00.400,Info_measure_main_exp,2022.2.2,Win32,8.578978072,,,,,,,,,,,,,,,,,,masks/mask_002.jpg,,,,,,,,,,,,,,,,,,,,,,,,,,,,,,,,,,,,,,,,,,,0,3,3,1,1,,,,,,,,,,,,,,,,,,,,,,,,,,,,,,,,,,,,,,,,,,,,,,
760553,001,2022-11-21_02h11.00.400,Info_measure_main_exp,2022.2.2,Win32,8.578978072,,,,,,,,,,,,,,,,,,masks/mask_005.jpg,,,,,,,,,,,,,,,,,,,,,,,,,,,,,,,,,,,,,,,,,,,0,4,4,4,1,,,,,,,,,,,,,,,,,,,,,,,,,,,,,,,,,,,,,,,,,,,,,,
760553,001,2022-11-21_02h11.00.400,Info_measure_main_exp,2022.2.2,Win32,8.578978072,,,,,,,,,,,,,,,,,,masks/mask_003.jpg,,,,,,,,,,,,,,,,,,,,,,,,,,,,,,,,,,,,,,,,,,,,,,,,0,0,0,2,1,,,,,,,,,,,,,,,,,,,,,,,,,,,,,,,,,,,,,,,,,
760553,001,2022-11-21_02h11.00.400,Info_measure_main_exp,2022.2.2,Win32,8.578978072,,,,,,,,,,,,,,,,,,masks/mask_005.jpg,,,,,,,,,,,,,,,,,,,,,,,,,,,,,,,,,,,,,,,,,,,,,,,,0,1,1,4,1,,,,,,,,,,,,,,,,,,,,,,,,,,,,,,,,,,,,,,,,,
760553,001,2022-11-21_02h11.00.400,Info_measure_main_exp,2022.2.2,Win32,8.578978072,,,,,,,,,,,,,,,,,,masks/mask_002.jpg,,,,,,,,,,,,,,,,,,,,,,,,,,,,,,,,,,,,,,,,,,,,,,,,0,2,2,1,1,,,,,,,,,,,,,,,,,,,,,,,,,,,,,,,,,,,,,,,,,
760553,001,2022-11-21_02h11.00.400,Info_measure_main_exp,2022.2.2,Win32,8.578978072,,,,,,,,,,,,,,,,,,masks/mask_001.jpg,,,,,,,,,,,,,,,,,,,,,,,,,,,,,,,,,,,,,,,,,,,,,,,,0,3,3,0,1,,,,,,,,,,,,,,,,,,,,,,,,,,,,,,,,,,,,,,,,,
760553,001,2022-11-21_02h11.00.400,Info_measure_main_exp,2022.2.2,Win32,8.578978072,,,,,,,,,,,,,,,,,,masks/mask_004.jpg,,,,,,,,,,,,,,,,,,,,,,,,,,,,,,,,,,,,,,,,,,,,,,,,0,4,4,3,1,,,,,,,,,,,,,,,,,,,,,,,,,,,,,,,,,,,,,,,,,
760553,001,2022-11-21_02h11.00.400,Info_measure_main_exp,2022.2.2,Win32,8.578978072,,,,,,,,,,,,,,,,,,,,,,,,,,,,,,3,2.2322,1,,,,,,,,,,,,0,131,5,5,1986,2274,absent_patch/patch0001986.jpg,absent_patch/patch0002274.jpg,,,,,,,,,,,,,,,,,,,,-0.036458333,-0.1015625,1,0,0,response5disk,17,0.001302083,-0.009114583,1,0,0,center_square,0,16,16,7,1,,,,,,,,,,,,,,,,,,,,,,,
760553,001,2022-11-21_02h11.00.400,Info_measure_main_exp,2022.2.2,Win32,8.578978072,,,,,,,,,,,,,,,,,,masks/mask_005.jpg,,,,,,,,,,,,,,,,,,,,,,,,,,,,,,,,,,,,,,,,,,,0,0,0,4,1,,,,,,,,,,,,,,,,,,,,,,,,,,,,,,,,,,,,,,,,,,,,,,
760553,001,2022-11-21_02h11.00.400,Info_measure_main_exp,2022.2.2,Win32,8.578978072,,,,,,,,,,,,,,,,,,masks/mask_001.jpg,,,,,,,,,,,,,,,,,,,,,,,,,,,,,,,,,,,,,,,,,,,0,1,1,0,1,,,,,,,,,,,,,,,,,,,,,,,,,,,,,,,,,,,,,,,,,,,,,,
760553,001,2022-11-21_02h11.00.400,Info_measure_main_exp,2022.2.2,Win32,8.578978072,,,,,,,,,,,,,,,,,,masks/mask_002.jpg,,,,,,,,,,,,,,,,,,,,,,,,,,,,,,,,,,,,,,,,,,,0,2,2,1,1,,,,,,,,,,,,,,,,,,,,,,,,,,,,,,,,,,,,,,,,,,,,,,
760553,001,2022-11-21_02h11.00.400,Info_measure_main_exp,2022.2.2,Win32,8.578978072,,,,,,,,,,,,,,,,,,masks/mask_004.jpg,,,,,,,,,,,,,,,,,,,,,,,,,,,,,,,,,,,,,,,,,,,0,3,3,3,1,,,,,,,,,,,,,,,,,,,,,,,,,,,,,,,,,,,,,,,,,,,,,,
760553,001,2022-11-21_02h11.00.400,Info_measure_main_exp,2022.2.2,Win32,8.578978072,,,,,,,,,,,,,,,,,,masks/mask_003.jpg,,,,,,,,,,,,,,,,,,,,,,,,,,,,,,,,,,,,,,,,,,,0,4,4,2,1,,,,,,,,,,,,,,,,,,,,,,,,,,,,,,,,,,,,,,,,,,,,,,
760553,001,2022-11-21_02h11.00.400,Info_measure_main_exp,2022.2.2,Win32,8.578978072,,,,,,,,,,,,,,,,,,masks/mask_004.jpg,,,,,,,,,,,,,,,,,,,,,,,,,,,,,,,,,,,,,,,,,,,,,,,,0,0,0,3,1,,,,,,,,,,,,,,,,,,,,,,,,,,,,,,,,,,,,,,,,,
760553,001,2022-11-21_02h11.00.400,Info_measure_main_exp,2022.2.2,Win32,8.578978072,,,,,,,,,,,,,,,,,,masks/mask_001.jpg,,,,,,,,,,,,,,,,,,,,,,,,,,,,,,,,,,,,,,,,,,,,,,,,0,1,1,0,1,,,,,,,,,,,,,,,,,,,,,,,,,,,,,,,,,,,,,,,,,
760553,001,2022-11-21_02h11.00.400,Info_measure_main_exp,2022.2.2,Win32,8.578978072,,,,,,,,,,,,,,,,,,masks/mask_005.jpg,,,,,,,,,,,,,,,,,,,,,,,,,,,,,,,,,,,,,,,,,,,,,,,,0,2,2,4,1,,,,,,,,,,,,,,,,,,,,,,,,,,,,,,,,,,,,,,,,,
760553,001,2022-11-21_02h11.00.400,Info_measure_main_exp,2022.2.2,Win32,8.578978072,,,,,,,,,,,,,,,,,,masks/mask_002.jpg,,,,,,,,,,,,,,,,,,,,,,,,,,,,,,,,,,,,,,,,,,,,,,,,0,3,3,1,1,,,,,,,,,,,,,,,,,,,,,,,,,,,,,,,,,,,,,,,,,
760553,001,2022-11-21_02h11.00.400,Info_measure_main_exp,2022.2.2,Win32,8.578978072,,,,,,,,,,,,,,,,,,masks/mask_003.jpg,,,,,,,,,,,,,,,,,,,,,,,,,,,,,,,,,,,,,,,,,,,,,,,,0,4,4,2,1,,,,,,,,,,,,,,,,,,,,,,,,,,,,,,,,,,,,,,,,,
760553,001,2022-11-21_02h11.00.400,Info_measure_main_exp,2022.2.2,Win32,8.578978072,,,,,,,,,,,,,,,,,,,,,,,,,,,,,,2,4.4627,1,,,,,,,,,,,,0,131,5,5,2274,1974,absent_patch/patch0002274.jpg,absent_patch/patch0001974.jpg,,,,,,,,,,,,,,,,,,,,-0.100260417,-0.03125,1,0,0,response5disk,18,0.002604167,-0.002604167,1,0,0,center_square,0,17,17,90,1,,,,,,,,,,,,,,,,,,,,,,,
760553,001,2022-11-21_02h11.00.400,Info_measure_main_exp,2022.2.2,Win32,8.578978072,,,,,,,,,,,,,,,,,,masks/mask_001.jpg,,,,,,,,,,,,,,,,,,,,,,,,,,,,,,,,,,,,,,,,,,,0,0,0,0,1,,,,,,,,,,,,,,,,,,,,,,,,,,,,,,,,,,,,,,,,,,,,,,
760553,001,2022-11-21_02h11.00.400,Info_measure_main_exp,2022.2.2,Win32,8.578978072,,,,,,,,,,,,,,,,,,masks/mask_003.jpg,,,,,,,,,,,,,,,,,,,,,,,,,,,,,,,,,,,,,,,,,,,0,1,1,2,1,,,,,,,,,,,,,,,,,,,,,,,,,,,,,,,,,,,,,,,,,,,,,,
760553,001,2022-11-21_02h11.00.400,Info_measure_main_exp,2022.2.2,Win32,8.578978072,,,,,,,,,,,,,,,,,,masks/mask_004.jpg,,,,,,,,,,,,,,,,,,,,,,,,,,,,,,,,,,,,,,,,,,,0,2,2,3,1,,,,,,,,,,,,,,,,,,,,,,,,,,,,,,,,,,,,,,,,,,,,,,
760553,001,2022-11-21_02h11.00.400,Info_measure_main_exp,2022.2.2,Win32,8.578978072,,,,,,,,,,,,,,,,,,masks/mask_005.jpg,,,,,,,,,,,,,,,,,,,,,,,,,,,,,,,,,,,,,,,,,,,0,3,3,4,1,,,,,,,,,,,,,,,,,,,,,,,,,,,,,,,,,,,,,,,,,,,,,,
760553,001,2022-11-21_02h11.00.400,Info_measure_main_exp,2022.2.2,Win32,8.578978072,,,,,,,,,,,,,,,,,,masks/mask_002.jpg,,,,,,,,,,,,,,,,,,,,,,,,,,,,,,,,,,,,,,,,,,,0,4,4,1,1,,,,,,,,,,,,,,,,,,,,,,,,,,,,,,,,,,,,,,,,,,,,,,
760553,001,2022-11-21_02h11.00.400,Info_measure_main_exp,2022.2.2,Win32,8.578978072,,,,,,,,,,,,,,,,,,masks/mask_003.jpg,,,,,,,,,,,,,,,,,,,,,,,,,,,,,,,,,,,,,,,,,,,,,,,,0,0,0,2,1,,,,,,,,,,,,,,,,,,,,,,,,,,,,,,,,,,,,,,,,,
760553,001,2022-11-21_02h11.00.400,Info_measure_main_exp,2022.2.2,Win32,8.578978072,,,,,,,,,,,,,,,,,,masks/mask_005.jpg,,,,,,,,,,,,,,,,,,,,,,,,,,,,,,,,,,,,,,,,,,,,,,,,0,1,1,4,1,,,,,,,,,,,,,,,,,,,,,,,,,,,,,,,,,,,,,,,,,
760553,001,2022-11-21_02h11.00.400,Info_measure_main_exp,2022.2.2,Win32,8.578978072,,,,,,,,,,,,,,,,,,masks/mask_002.jpg,,,,,,,,,,,,,,,,,,,,,,,,,,,,,,,,,,,,,,,,,,,,,,,,0,2,2,1,1,,,,,,,,,,,,,,,,,,,,,,,,,,,,,,,,,,,,,,,,,
760553,001,2022-11-21_02h11.00.400,Info_measure_main_exp,2022.2.2,Win32,8.578978072,,,,,,,,,,,,,,,,,,masks/mask_004.jpg,,,,,,,,,,,,,,,,,,,,,,,,,,,,,,,,,,,,,,,,,,,,,,,,0,3,3,3,1,,,,,,,,,,,,,,,,,,,,,,,,,,,,,,,,,,,,,,,,,
760553,001,2022-11-21_02h11.00.400,Info_measure_main_exp,2022.2.2,Win32,8.578978072,,,,,,,,,,,,,,,,,,masks/mask_001.jpg,,,,,,,,,,,,,,,,,,,,,,,,,,,,,,,,,,,,,,,,,,,,,,,,0,4,4,0,1,,,,,,,,,,,,,,,,,,,,,,,,,,,,,,,,,,,,,,,,,
760553,001,2022-11-21_02h11.00.400,Info_measure_main_exp,2022.2.2,Win32,8.578978072,,,,,,,,,,,,,,,,,,,,,,,,,,,,,,7,1.531,1,,,,,,,,,,,,0,131,5,5,2154,2190,absent_patch/patch0002154.jpg,absent_patch/patch0002190.jpg,,,,,,,,,,,,,,,,,,,,0.05859375,0.125,1,0,0,response1disk,19,-0.002604167,-0.006510417,1,0,0,center_square,0,18,18,68,1,,,,,,,,,,,,,,,,,,,,,,,
760553,001,2022-11-21_02h11.00.400,Info_measure_main_exp,2022.2.2,Win32,8.578978072,,,,,,,,,,,,,,,,,,masks/mask_005.jpg,,,,,,,,,,,,,,,,,,,,,,,,,,,,,,,,,,,,,,,,,,,0,0,0,4,1,,,,,,,,,,,,,,,,,,,,,,,,,,,,,,,,,,,,,,,,,,,,,,
760553,001,2022-11-21_02h11.00.400,Info_measure_main_exp,2022.2.2,Win32,8.578978072,,,,,,,,,,,,,,,,,,masks/mask_003.jpg,,,,,,,,,,,,,,,,,,,,,,,,,,,,,,,,,,,,,,,,,,,0,1,1,2,1,,,,,,,,,,,,,,,,,,,,,,,,,,,,,,,,,,,,,,,,,,,,,,
760553,001,2022-11-21_02h11.00.400,Info_measure_main_exp,2022.2.2,Win32,8.578978072,,,,,,,,,,,,,,,,,,masks/mask_002.jpg,,,,,,,,,,,,,,,,,,,,,,,,,,,,,,,,,,,,,,,,,,,0,2,2,1,1,,,,,,,,,,,,,,,,,,,,,,,,,,,,,,,,,,,,,,,,,,,,,,
760553,001,2022-11-21_02h11.00.400,Info_measure_main_exp,2022.2.2,Win32,8.578978072,,,,,,,,,,,,,,,,,,masks/mask_004.jpg,,,,,,,,,,,,,,,,,,,,,,,,,,,,,,,,,,,,,,,,,,,0,3,3,3,1,,,,,,,,,,,,,,,,,,,,,,,,,,,,,,,,,,,,,,,,,,,,,,
760553,001,2022-11-21_02h11.00.400,Info_measure_main_exp,2022.2.2,Win32,8.578978072,,,,,,,,,,,,,,,,,,masks/mask_001.jpg,,,,,,,,,,,,,,,,,,,,,,,,,,,,,,,,,,,,,,,,,,,0,4,4,0,1,,,,,,,,,,,,,,,,,,,,,,,,,,,,,,,,,,,,,,,,,,,,,,
760553,001,2022-11-21_02h11.00.400,Info_measure_main_exp,2022.2.2,Win32,8.578978072,,,,,,,,,,,,,,,,,,masks/mask_003.jpg,,,,,,,,,,,,,,,,,,,,,,,,,,,,,,,,,,,,,,,,,,,,,,,,0,0,0,2,1,,,,,,,,,,,,,,,,,,,,,,,,,,,,,,,,,,,,,,,,,
760553,001,2022-11-21_02h11.00.400,Info_measure_main_exp,2022.2.2,Win32,8.578978072,,,,,,,,,,,,,,,,,,masks/mask_005.jpg,,,,,,,,,,,,,,,,,,,,,,,,,,,,,,,,,,,,,,,,,,,,,,,,0,1,1,4,1,,,,,,,,,,,,,,,,,,,,,,,,,,,,,,,,,,,,,,,,,
760553,001,2022-11-21_02h11.00.400,Info_measure_main_exp,2022.2.2,Win32,8.578978072,,,,,,,,,,,,,,,,,,masks/mask_002.jpg,,,,,,,,,,,,,,,,,,,,,,,,,,,,,,,,,,,,,,,,,,,,,,,,0,2,2,1,1,,,,,,,,,,,,,,,,,,,,,,,,,,,,,,,,,,,,,,,,,
760553,001,2022-11-21_02h11.00.400,Info_measure_main_exp,2022.2.2,Win32,8.578978072,,,,,,,,,,,,,,,,,,masks/mask_001.jpg,,,,,,,,,,,,,,,,,,,,,,,,,,,,,,,,,,,,,,,,,,,,,,,,0,3,3,0,1,,,,,,,,,,,,,,,,,,,,,,,,,,,,,,,,,,,,,,,,,
760553,001,2022-11-21_02h11.00.400,Info_measure_main_exp,2022.2.2,Win32,8.578978072,,,,,,,,,,,,,,,,,,masks/mask_004.jpg,,,,,,,,,,,,,,,,,,,,,,,,,,,,,,,,,,,,,,,,,,,,,,,,0,4,4,3,1,,,,,,,,,,,,,,,,,,,,,,,,,,,,,,,,,,,,,,,,,
760553,001,2022-11-21_02h11.00.400,Info_measure_main_exp,2022.2.2,Win32,8.578978072,,,,,,,,,,,,,,,,,,,,,,,,,,,,,,4,5.7681,1,,,,,,,,,,,,0,131,5,5,2082,2178,absent_patch/patch0002082.jpg,absent_patch/patch0002178.jpg,,,,,,,,,,,,,,,,,,,,0.024739583,-0.072916667,1,0,0,response3disk,20,0.005208333,0,1,0,0,center_square,0,19,19,2,1,,,,,,,,,,,,,,,,,,,,,,,
760553,001,2022-11-21_02h11.00.400,Info_measure_main_exp,2022.2.2,Win32,8.578978072,,,,,,,,,,,,,,,,,,masks/mask_001.jpg,,,,,,,,,,,,,,,,,,,,,,,,,,,,,,,,,,,,,,,,,,,0,0,0,0,1,,,,,,,,,,,,,,,,,,,,,,,,,,,,,,,,,,,,,,,,,,,,,,
760553,001,2022-11-21_02h11.00.400,Info_measure_main_exp,2022.2.2,Win32,8.578978072,,,,,,,,,,,,,,,,,,masks/mask_002.jpg,,,,,,,,,,,,,,,,,,,,,,,,,,,,,,,,,,,,,,,,,,,0,1,1,1,1,,,,,,,,,,,,,,,,,,,,,,,,,,,,,,,,,,,,,,,,,,,,,,
760553,001,2022-11-21_02h11.00.400,Info_measure_main_exp,2022.2.2,Win32,8.578978072,,,,,,,,,,,,,,,,,,masks/mask_003.jpg,,,,,,,,,,,,,,,,,,,,,,,,,,,,,,,,,,,,,,,,,,,0,2,2,2,1,,,,,,,,,,,,,,,,,,,,,,,,,,,,,,,,,,,,,,,,,,,,,,
760553,001,2022-11-21_02h11.00.400,Info_measure_main_exp,2022.2.2,Win32,8.578978072,,,,,,,,,,,,,,,,,,masks/mask_004.jpg,,,,,,,,,,,,,,,,,,,,,,,,,,,,,,,,,,,,,,,,,,,0,3,3,3,1,,,,,,,,,,,,,,,,,,,,,,,,,,,,,,,,,,,,,,,,,,,,,,
760553,001,2022-11-21_02h11.00.400,Info_measure_main_exp,2022.2.2,Win32,8.578978072,,,,,,,,,,,,,,,,,,masks/mask_005.jpg,,,,,,,,,,,,,,,,,,,,,,,,,,,,,,,,,,,,,,,,,,,0,4,4,4,1,,,,,,,,,,,,,,,,,,,,,,,,,,,,,,,,,,,,,,,,,,,,,,
760553,001,2022-11-21_02h11.00.400,Info_measure_main_exp,2022.2.2,Win32,8.578978072,,,,,,,,,,,,,,,,,,masks/mask_005.jpg,,,,,,,,,,,,,,,,,,,,,,,,,,,,,,,,,,,,,,,,,,,,,,,,0,0,0,4,1,,,,,,,,,,,,,,,,,,,,,,,,,,,,,,,,,,,,,,,,,
760553,001,2022-11-21_02h11.00.400,Info_measure_main_exp,2022.2.2,Win32,8.578978072,,,,,,,,,,,,,,,,,,masks/mask_003.jpg,,,,,,,,,,,,,,,,,,,,,,,,,,,,,,,,,,,,,,,,,,,,,,,,0,1,1,2,1,,,,,,,,,,,,,,,,,,,,,,,,,,,,,,,,,,,,,,,,,
760553,001,2022-11-21_02h11.00.400,Info_measure_main_exp,2022.2.2,Win32,8.578978072,,,,,,,,,,,,,,,,,,masks/mask_002.jpg,,,,,,,,,,,,,,,,,,,,,,,,,,,,,,,,,,,,,,,,,,,,,,,,0,2,2,1,1,,,,,,,,,,,,,,,,,,,,,,,,,,,,,,,,,,,,,,,,,
760553,001,2022-11-21_02h11.00.400,Info_measure_main_exp,2022.2.2,Win32,8.578978072,,,,,,,,,,,,,,,,,,masks/mask_001.jpg,,,,,,,,,,,,,,,,,,,,,,,,,,,,,,,,,,,,,,,,,,,,,,,,0,3,3,0,1,,,,,,,,,,,,,,,,,,,,,,,,,,,,,,,,,,,,,,,,,
760553,001,2022-11-21_02h11.00.400,Info_measure_main_exp,2022.2.2,Win32,8.578978072,,,,,,,,,,,,,,,,,,masks/mask_004.jpg,,,,,,,,,,,,,,,,,,,,,,,,,,,,,,,,,,,,,,,,,,,,,,,,0,4,4,3,1,,,,,,,,,,,,,,,,,,,,,,,,,,,,,,,,,,,,,,,,,
760553,001,2022-11-21_02h11.00.400,Info_measure_main_exp,2022.2.2,Win32,8.578978072,,,,,,,,,,,,,,,,,,,,,,,,,,,,,,7,2.9779,1,,,,,,,,,,,,0,131,5,5,2250,2166,absent_patch/patch0002250.jpg,absent_patch/patch0002166.jpg,,,,,,,,,,,,,,,,,,,,0.03125,0.098958333,1,0,0,response1disk,21,0.006510417,0.002604167,1,0,0,center_square,0,20,20,60,1,,,,,,,,,,,,,,,,,,,,,,,
760553,001,2022-11-21_02h11.00.400,Info_measure_main_exp,2022.2.2,Win32,8.578978072,,,,,,,,,,,,,,,,,,masks/mask_005.jpg,,,,,,,,,,,,,,,,,,,,,,,,,,,,,,,,,,,,,,,,,,,0,0,0,4,1,,,,,,,,,,,,,,,,,,,,,,,,,,,,,,,,,,,,,,,,,,,,,,
760553,001,2022-11-21_02h11.00.400,Info_measure_main_exp,2022.2.2,Win32,8.578978072,,,,,,,,,,,,,,,,,,masks/mask_003.jpg,,,,,,,,,,,,,,,,,,,,,,,,,,,,,,,,,,,,,,,,,,,0,1,1,2,1,,,,,,,,,,,,,,,,,,,,,,,,,,,,,,,,,,,,,,,,,,,,,,
760553,001,2022-11-21_02h11.00.400,Info_measure_main_exp,2022.2.2,Win32,8.578978072,,,,,,,,,,,,,,,,,,masks/mask_001.jpg,,,,,,,,,,,,,,,,,,,,,,,,,,,,,,,,,,,,,,,,,,,0,2,2,0,1,,,,,,,,,,,,,,,,,,,,,,,,,,,,,,,,,,,,,,,,,,,,,,
760553,001,2022-11-21_02h11.00.400,Info_measure_main_exp,2022.2.2,Win32,8.578978072,,,,,,,,,,,,,,,,,,masks/mask_002.jpg,,,,,,,,,,,,,,,,,,,,,,,,,,,,,,,,,,,,,,,,,,,0,3,3,1,1,,,,,,,,,,,,,,,,,,,,,,,,,,,,,,,,,,,,,,,,,,,,,,
760553,001,2022-11-21_02h11.00.400,Info_measure_main_exp,2022.2.2,Win32,8.578978072,,,,,,,,,,,,,,,,,,masks/mask_004.jpg,,,,,,,,,,,,,,,,,,,,,,,,,,,,,,,,,,,,,,,,,,,0,4,4,3,1,,,,,,,,,,,,,,,,,,,,,,,,,,,,,,,,,,,,,,,,,,,,,,
760553,001,2022-11-21_02h11.00.400,Info_measure_main_exp,2022.2.2,Win32,8.578978072,,,,,,,,,,,,,,,,,,masks/mask_003.jpg,,,,,,,,,,,,,,,,,,,,,,,,,,,,,,,,,,,,,,,,,,,,,,,,0,0,0,2,1,,,,,,,,,,,,,,,,,,,,,,,,,,,,,,,,,,,,,,,,,
760553,001,2022-11-21_02h11.00.400,Info_measure_main_exp,2022.2.2,Win32,8.578978072,,,,,,,,,,,,,,,,,,masks/mask_004.jpg,,,,,,,,,,,,,,,,,,,,,,,,,,,,,,,,,,,,,,,,,,,,,,,,0,1,1,3,1,,,,,,,,,,,,,,,,,,,,,,,,,,,,,,,,,,,,,,,,,
760553,001,2022-11-21_02h11.00.400,Info_measure_main_exp,2022.2.2,Win32,8.578978072,,,,,,,,,,,,,,,,,,masks/mask_005.jpg,,,,,,,,,,,,,,,,,,,,,,,,,,,,,,,,,,,,,,,,,,,,,,,,0,2,2,4,1,,,,,,,,,,,,,,,,,,,,,,,,,,,,,,,,,,,,,,,,,
760553,001,2022-11-21_02h11.00.400,Info_measure_main_exp,2022.2.2,Win32,8.578978072,,,,,,,,,,,,,,,,,,masks/mask_001.jpg,,,,,,,,,,,,,,,,,,,,,,,,,,,,,,,,,,,,,,,,,,,,,,,,0,3,3,0,1,,,,,,,,,,,,,,,,,,,,,,,,,,,,,,,,,,,,,,,,,
760553,001,2022-11-21_02h11.00.400,Info_measure_main_exp,2022.2.2,Win32,8.578978072,,,,,,,,,,,,,,,,,,masks/mask_002.jpg,,,,,,,,,,,,,,,,,,,,,,,,,,,,,,,,,,,,,,,,,,,,,,,,0,4,4,1,1,,,,,,,,,,,,,,,,,,,,,,,,,,,,,,,,,,,,,,,,,
760553,001,2022-11-21_02h11.00.400,Info_measure_main_exp,2022.2.2,Win32,8.578978072,,,,,,,,,,,,,,,,,,,,,,,,,,,,,,4,3.2501,1,,,,,,,,,,,,0,131,5,5,2190,2082,absent_patch/patch0002190.jpg,absent_patch/patch0002082.jpg,,,,,,,,,,,,,,,,,,,,0.01953125,-0.065104167,1,0,0,response3disk,22,0.00390625,-0.002604167,1,0,0,center_square,0,21,21,112,1,,,,,,,,,,,,,,,,,,,,,,,
760553,001,2022-11-21_02h11.00.400,Info_measure_main_exp,2022.2.2,Win32,8.578978072,,,,,,,,,,,,,,,,,,masks/mask_005.jpg,,,,,,,,,,,,,,,,,,,,,,,,,,,,,,,,,,,,,,,,,,,0,0,0,4,1,,,,,,,,,,,,,,,,,,,,,,,,,,,,,,,,,,,,,,,,,,,,,,
760553,001,2022-11-21_02h11.00.400,Info_measure_main_exp,2022.2.2,Win32,8.578978072,,,,,,,,,,,,,,,,,,masks/mask_001.jpg,,,,,,,,,,,,,,,,,,,,,,,,,,,,,,,,,,,,,,,,,,,0,1,1,0,1,,,,,,,,,,,,,,,,,,,,,,,,,,,,,,,,,,,,,,,,,,,,,,
760553,001,2022-11-21_02h11.00.400,Info_measure_main_exp,2022.2.2,Win32,8.578978072,,,,,,,,,,,,,,,,,,masks/mask_004.jpg,,,,,,,,,,,,,,,,,,,,,,,,,,,,,,,,,,,,,,,,,,,0,2,2,3,1,,,,,,,,,,,,,,,,,,,,,,,,,,,,,,,,,,,,,,,,,,,,,,
760553,001,2022-11-21_02h11.00.400,Info_measure_main_exp,2022.2.2,Win32,8.578978072,,,,,,,,,,,,,,,,,,masks/mask_002.jpg,,,,,,,,,,,,,,,,,,,,,,,,,,,,,,,,,,,,,,,,,,,0,3,3,1,1,,,,,,,,,,,,,,,,,,,,,,,,,,,,,,,,,,,,,,,,,,,,,,
760553,001,2022-11-21_02h11.00.400,Info_measure_main_exp,2022.2.2,Win32,8.578978072,,,,,,,,,,,,,,,,,,masks/mask_003.jpg,,,,,,,,,,,,,,,,,,,,,,,,,,,,,,,,,,,,,,,,,,,0,4,4,2,1,,,,,,,,,,,,,,,,,,,,,,,,,,,,,,,,,,,,,,,,,,,,,,
760553,001,2022-11-21_02h11.00.400,Info_measure_main_exp,2022.2.2,Win32,8.578978072,,,,,,,,,,,,,,,,,,masks/mask_003.jpg,,,,,,,,,,,,,,,,,,,,,,,,,,,,,,,,,,,,,,,,,,,,,,,,0,0,0,2,1,,,,,,,,,,,,,,,,,,,,,,,,,,,,,,,,,,,,,,,,,
760553,001,2022-11-21_02h11.00.400,Info_measure_main_exp,2022.2.2,Win32,8.578978072,,,,,,,,,,,,,,,,,,masks/mask_004.jpg,,,,,,,,,,,,,,,,,,,,,,,,,,,,,,,,,,,,,,,,,,,,,,,,0,1,1,3,1,,,,,,,,,,,,,,,,,,,,,,,,,,,,,,,,,,,,,,,,,
760553,001,2022-11-21_02h11.00.400,Info_measure_main_exp,2022.2.2,Win32,8.578978072,,,,,,,,,,,,,,,,,,masks/mask_001.jpg,,,,,,,,,,,,,,,,,,,,,,,,,,,,,,,,,,,,,,,,,,,,,,,,0,2,2,0,1,,,,,,,,,,,,,,,,,,,,,,,,,,,,,,,,,,,,,,,,,
760553,001,2022-11-21_02h11.00.400,Info_measure_main_exp,2022.2.2,Win32,8.578978072,,,,,,,,,,,,,,,,,,masks/mask_005.jpg,,,,,,,,,,,,,,,,,,,,,,,,,,,,,,,,,,,,,,,,,,,,,,,,0,3,3,4,1,,,,,,,,,,,,,,,,,,,,,,,,,,,,,,,,,,,,,,,,,
760553,001,2022-11-21_02h11.00.400,Info_measure_main_exp,2022.2.2,Win32,8.578978072,,,,,,,,,,,,,,,,,,masks/mask_002.jpg,,,,,,,,,,,,,,,,,,,,,,,,,,,,,,,,,,,,,,,,,,,,,,,,0,4,4,1,1,,,,,,,,,,,,,,,,,,,,,,,,,,,,,,,,,,,,,,,,,
760553,001,2022-11-21_02h11.00.400,Info_measure_main_exp,2022.2.2,Win32,8.578978072,,,,,,,,,,,,,,,,,,,,,,,,,,,,,,7,1.3999,1,,,,,,,,,,,,0,131,5,5,2178,1986,absent_patch/patch0002178.jpg,absent_patch/patch0001986.jpg,,,,,,,,,,,,,,,,,,,,0.03515625,0.19140625,1,0,0,response1disk,23,-0.001302083,-0.002604167,1,0,0,center_square,0,22,22,46,1,,,,,,,,,,,,,,,,,,,,,,,
760553,001,2022-11-21_02h11.00.400,Info_measure_main_exp,2022.2.2,Win32,8.578978072,,,,,,,,,,,,,,,,,,masks/mask_004.jpg,,,,,,,,,,,,,,,,,,,,,,,,,,,,,,,,,,,,,,,,,,,0,0,0,3,1,,,,,,,,,,,,,,,,,,,,,,,,,,,,,,,,,,,,,,,,,,,,,,
760553,001,2022-11-21_02h11.00.400,Info_measure_main_exp,2022.2.2,Win32,8.578978072,,,,,,,,,,,,,,,,,,masks/mask_001.jpg,,,,,,,,,,,,,,,,,,,,,,,,,,,,,,,,,,,,,,,,,,,0,1,1,0,1,,,,,,,,,,,,,,,,,,,,,,,,,,,,,,,,,,,,,,,,,,,,,,
760553,001,2022-11-21_02h11.00.400,Info_measure_main_exp,2022.2.2,Win32,8.578978072,,,,,,,,,,,,,,,,,,masks/mask_002.jpg,,,,,,,,,,,,,,,,,,,,,,,,,,,,,,,,,,,,,,,,,,,0,2,2,1,1,,,,,,,,,,,,,,,,,,,,,,,,,,,,,,,,,,,,,,,,,,,,,,
760553,001,2022-11-21_02h11.00.400,Info_measure_main_exp,2022.2.2,Win32,8.578978072,,,,,,,,,,,,,,,,,,masks/mask_003.jpg,,,,,,,,,,,,,,,,,,,,,,,,,,,,,,,,,,,,,,,,,,,0,3,3,2,1,,,,,,,,,,,,,,,,,,,,,,,,,,,,,,,,,,,,,,,,,,,,,,
760553,001,2022-11-21_02h11.00.400,Info_measure_main_exp,2022.2.2,Win32,8.578978072,,,,,,,,,,,,,,,,,,masks/mask_005.jpg,,,,,,,,,,,,,,,,,,,,,,,,,,,,,,,,,,,,,,,,,,,0,4,4,4,1,,,,,,,,,,,,,,,,,,,,,,,,,,,,,,,,,,,,,,,,,,,,,,
760553,001,2022-11-21_02h11.00.400,Info_measure_main_exp,2022.2.2,Win32,8.578978072,,,,,,,,,,,,,,,,,,masks/mask_001.jpg,,,,,,,,,,,,,,,,,,,,,,,,,,,,,,,,,,,,,,,,,,,,,,,,0,0,0,0,1,,,,,,,,,,,,,,,,,,,,,,,,,,,,,,,,,,,,,,,,,
760553,001,2022-11-21_02h11.00.400,Info_measure_main_exp,2022.2.2,Win32,8.578978072,,,,,,,,,,,,,,,,,,masks/mask_004.jpg,,,,,,,,,,,,,,,,,,,,,,,,,,,,,,,,,,,,,,,,,,,,,,,,0,1,1,3,1,,,,,,,,,,,,,,,,,,,,,,,,,,,,,,,,,,,,,,,,,
760553,001,2022-11-21_02h11.00.400,Info_measure_main_exp,2022.2.2,Win32,8.578978072,,,,,,,,,,,,,,,,,,masks/mask_002.jpg,,,,,,,,,,,,,,,,,,,,,,,,,,,,,,,,,,,,,,,,,,,,,,,,0,2,2,1,1,,,,,,,,,,,,,,,,,,,,,,,,,,,,,,,,,,,,,,,,,
760553,001,2022-11-21_02h11.00.400,Info_measure_main_exp,2022.2.2,Win32,8.578978072,,,,,,,,,,,,,,,,,,masks/mask_003.jpg,,,,,,,,,,,,,,,,,,,,,,,,,,,,,,,,,,,,,,,,,,,,,,,,0,3,3,2,1,,,,,,,,,,,,,,,,,,,,,,,,,,,,,,,,,,,,,,,,,
760553,001,2022-11-21_02h11.00.400,Info_measure_main_exp,2022.2.2,Win32,8.578978072,,,,,,,,,,,,,,,,,,masks/mask_005.jpg,,,,,,,,,,,,,,,,,,,,,,,,,,,,,,,,,,,,,,,,,,,,,,,,0,4,4,4,1,,,,,,,,,,,,,,,,,,,,,,,,,,,,,,,,,,,,,,,,,
760553,001,2022-11-21_02h11.00.400,Info_measure_main_exp,2022.2.2,Win32,8.578978072,,,,,,,,,,,,,,,,,,,,,,,,,,,,,,1,2.4271,1,,,,,,,,,,,,0,131,5,5,2238,2238,absent_patch/patch0002238.jpg,absent_patch/patch0002238.jpg,,,,,,,,,,,,,,,,,,,,-0.122395833,0.07421875,1,0,0,response7disk,24,0.001302083,0.005208333,1,0,0,center_square,0,23,23,58,1,,,,,,,,,,,,,,,,,,,,,,,
760553,001,2022-11-21_02h11.00.400,Info_measure_main_exp,2022.2.2,Win32,8.578978072,,,,,,,,,,,,,,,,,,masks/mask_001.jpg,,,,,,,,,,,,,,,,,,,,,,,,,,,,,,,,,,,,,,,,,,,0,0,0,0,1,,,,,,,,,,,,,,,,,,,,,,,,,,,,,,,,,,,,,,,,,,,,,,
760553,001,2022-11-21_02h11.00.400,Info_measure_main_exp,2022.2.2,Win32,8.578978072,,,,,,,,,,,,,,,,,,masks/mask_002.jpg,,,,,,,,,,,,,,,,,,,,,,,,,,,,,,,,,,,,,,,,,,,0,1,1,1,1,,,,,,,,,,,,,,,,,,,,,,,,,,,,,,,,,,,,,,,,,,,,,,
760553,001,2022-11-21_02h11.00.400,Info_measure_main_exp,2022.2.2,Win32,8.578978072,,,,,,,,,,,,,,,,,,masks/mask_005.jpg,,,,,,,,,,,,,,,,,,,,,,,,,,,,,,,,,,,,,,,,,,,0,2,2,4,1,,,,,,,,,,,,,,,,,,,,,,,,,,,,,,,,,,,,,,,,,,,,,,
760553,001,2022-11-21_02h11.00.400,Info_measure_main_exp,2022.2.2,Win32,8.578978072,,,,,,,,,,,,,,,,,,masks/mask_003.jpg,,,,,,,,,,,,,,,,,,,,,,,,,,,,,,,,,,,,,,,,,,,0,3,3,2,1,,,,,,,,,,,,,,,,,,,,,,,,,,,,,,,,,,,,,,,,,,,,,,
760553,001,2022-11-21_02h11.00.400,Info_measure_main_exp,2022.2.2,Win32,8.578978072,,,,,,,,,,,,,,,,,,masks/mask_004.jpg,,,,,,,,,,,,,,,,,,,,,,,,,,,,,,,,,,,,,,,,,,,0,4,4,3,1,,,,,,,,,,,,,,,,,,,,,,,,,,,,,,,,,,,,,,,,,,,,,,
760553,001,2022-11-21_02h11.00.400,Info_measure_main_exp,2022.2.2,Win32,8.578978072,,,,,,,,,,,,,,,,,,masks/mask_004.jpg,,,,,,,,,,,,,,,,,,,,,,,,,,,,,,,,,,,,,,,,,,,,,,,,0,0,0,3,1,,,,,,,,,,,,,,,,,,,,,,,,,,,,,,,,,,,,,,,,,
760553,001,2022-11-21_02h11.00.400,Info_measure_main_exp,2022.2.2,Win32,8.578978072,,,,,,,,,,,,,,,,,,masks/mask_005.jpg,,,,,,,,,,,,,,,,,,,,,,,,,,,,,,,,,,,,,,,,,,,,,,,,0,1,1,4,1,,,,,,,,,,,,,,,,,,,,,,,,,,,,,,,,,,,,,,,,,
760553,001,2022-11-21_02h11.00.400,Info_measure_main_exp,2022.2.2,Win32,8.578978072,,,,,,,,,,,,,,,,,,masks/mask_001.jpg,,,,,,,,,,,,,,,,,,,,,,,,,,,,,,,,,,,,,,,,,,,,,,,,0,2,2,0,1,,,,,,,,,,,,,,,,,,,,,,,,,,,,,,,,,,,,,,,,,
760553,001,2022-11-21_02h11.00.400,Info_measure_main_exp,2022.2.2,Win32,8.578978072,,,,,,,,,,,,,,,,,,masks/mask_002.jpg,,,,,,,,,,,,,,,,,,,,,,,,,,,,,,,,,,,,,,,,,,,,,,,,0,3,3,1,1,,,,,,,,,,,,,,,,,,,,,,,,,,,,,,,,,,,,,,,,,
760553,001,2022-11-21_02h11.00.400,Info_measure_main_exp,2022.2.2,Win32,8.578978072,,,,,,,,,,,,,,,,,,masks/mask_003.jpg,,,,,,,,,,,,,,,,,,,,,,,,,,,,,,,,,,,,,,,,,,,,,,,,0,4,4,2,1,,,,,,,,,,,,,,,,,,,,,,,,,,,,,,,,,,,,,,,,,
760553,001,2022-11-21_02h11.00.400,Info_measure_main_exp,2022.2.2,Win32,8.578978072,,,,,,,,,,,,,,,,,,,,,,,,,,,,,,1,1.5428,1,,,,,,,,,,,,0,131,5,5,2274,2274,absent_patch/patch0002274.jpg,absent_patch/patch0002274.jpg,,,,,,,,,,,,,,,,,,,,-0.0859375,0.03125,1,0,0,response7disk,25,-0.002604167,0,1,0,0,center_square,0,24,24,114,1,,,,,,,,,,,,,,,,,,,,,,,
760553,001,2022-11-21_02h11.00.400,Info_measure_main_exp,2022.2.2,Win32,8.578978072,,,,,,,,,,,,,,,,,,masks/mask_005.jpg,,,,,,,,,,,,,,,,,,,,,,,,,,,,,,,,,,,,,,,,,,,0,0,0,4,1,,,,,,,,,,,,,,,,,,,,,,,,,,,,,,,,,,,,,,,,,,,,,,
760553,001,2022-11-21_02h11.00.400,Info_measure_main_exp,2022.2.2,Win32,8.578978072,,,,,,,,,,,,,,,,,,masks/mask_004.jpg,,,,,,,,,,,,,,,,,,,,,,,,,,,,,,,,,,,,,,,,,,,0,1,1,3,1,,,,,,,,,,,,,,,,,,,,,,,,,,,,,,,,,,,,,,,,,,,,,,
760553,001,2022-11-21_02h11.00.400,Info_measure_main_exp,2022.2.2,Win32,8.578978072,,,,,,,,,,,,,,,,,,masks/mask_001.jpg,,,,,,,,,,,,,,,,,,,,,,,,,,,,,,,,,,,,,,,,,,,0,2,2,0,1,,,,,,,,,,,,,,,,,,,,,,,,,,,,,,,,,,,,,,,,,,,,,,
760553,001,2022-11-21_02h11.00.400,Info_measure_main_exp,2022.2.2,Win32,8.578978072,,,,,,,,,,,,,,,,,,masks/mask_002.jpg,,,,,,,,,,,,,,,,,,,,,,,,,,,,,,,,,,,,,,,,,,,0,3,3,1,1,,,,,,,,,,,,,,,,,,,,,,,,,,,,,,,,,,,,,,,,,,,,,,
760553,001,2022-11-21_02h11.00.400,Info_measure_main_exp,2022.2.2,Win32,8.578978072,,,,,,,,,,,,,,,,,,masks/mask_003.jpg,,,,,,,,,,,,,,,,,,,,,,,,,,,,,,,,,,,,,,,,,,,0,4,4,2,1,,,,,,,,,,,,,,,,,,,,,,,,,,,,,,,,,,,,,,,,,,,,,,
760553,001,2022-11-21_02h11.00.400,Info_measure_main_exp,2022.2.2,Win32,8.578978072,,,,,,,,,,,,,,,,,,masks/mask_003.jpg,,,,,,,,,,,,,,,,,,,,,,,,,,,,,,,,,,,,,,,,,,,,,,,,0,0,0,2,1,,,,,,,,,,,,,,,,,,,,,,,,,,,,,,,,,,,,,,,,,
760553,001,2022-11-21_02h11.00.400,Info_measure_main_exp,2022.2.2,Win32,8.578978072,,,,,,,,,,,,,,,,,,masks/mask_004.jpg,,,,,,,,,,,,,,,,,,,,,,,,,,,,,,,,,,,,,,,,,,,,,,,,0,1,1,3,1,,,,,,,,,,,,,,,,,,,,,,,,,,,,,,,,,,,,,,,,,
760553,001,2022-11-21_02h11.00.400,Info_measure_main_exp,2022.2.2,Win32,8.578978072,,,,,,,,,,,,,,,,,,masks/mask_002.jpg,,,,,,,,,,,,,,,,,,,,,,,,,,,,,,,,,,,,,,,,,,,,,,,,0,2,2,1,1,,,,,,,,,,,,,,,,,,,,,,,,,,,,,,,,,,,,,,,,,
760553,001,2022-11-21_02h11.00.400,Info_measure_main_exp,2022.2.2,Win32,8.578978072,,,,,,,,,,,,,,,,,,masks/mask_001.jpg,,,,,,,,,,,,,,,,,,,,,,,,,,,,,,,,,,,,,,,,,,,,,,,,0,3,3,0,1,,,,,,,,,,,,,,,,,,,,,,,,,,,,,,,,,,,,,,,,,
760553,001,2022-11-21_02h11.00.400,Info_measure_main_exp,2022.2.2,Win32,8.578978072,,,,,,,,,,,,,,,,,,masks/mask_005.jpg,,,,,,,,,,,,,,,,,,,,,,,,,,,,,,,,,,,,,,,,,,,,,,,,0,4,4,4,1,,,,,,,,,,,,,,,,,,,,,,,,,,,,,,,,,,,,,,,,,
760553,001,2022-11-21_02h11.00.400,Info_measure_main_exp,2022.2.2,Win32,8.578978072,,,,,,,,,,,,,,,,,,,,,,,,,,,,,,0,1.2635,1,,,,,,,,,,,,0,131,5,5,2214,2166,absent_patch/patch0002214.jpg,absent_patch/patch0002166.jpg,,,,,,,,,,,,,,,,,,,,-0.044270833,0.122395833,1,0,0,response7disk,26,0.006510417,0.005208333,1,0,0,center_square,0,25,25,109,1,,,,,,,,,,,,,,,,,,,,,,,
760553,001,2022-11-21_02h11.00.400,Info_measure_main_exp,2022.2.2,Win32,8.578978072,,,,,,,,,,,,,,,,,,masks/mask_001.jpg,,,,,,,,,,,,,,,,,,,,,,,,,,,,,,,,,,,,,,,,,,,0,0,0,0,1,,,,,,,,,,,,,,,,,,,,,,,,,,,,,,,,,,,,,,,,,,,,,,
760553,001,2022-11-21_02h11.00.400,Info_measure_main_exp,2022.2.2,Win32,8.578978072,,,,,,,,,,,,,,,,,,masks/mask_003.jpg,,,,,,,,,,,,,,,,,,,,,,,,,,,,,,,,,,,,,,,,,,,0,1,1,2,1,,,,,,,,,,,,,,,,,,,,,,,,,,,,,,,,,,,,,,,,,,,,,,
760553,001,2022-11-21_02h11.00.400,Info_measure_main_exp,2022.2.2,Win32,8.578978072,,,,,,,,,,,,,,,,,,masks/mask_002.jpg,,,,,,,,,,,,,,,,,,,,,,,,,,,,,,,,,,,,,,,,,,,0,2,2,1,1,,,,,,,,,,,,,,,,,,,,,,,,,,,,,,,,,,,,,,,,,,,,,,
760553,001,2022-11-21_02h11.00.400,Info_measure_main_exp,2022.2.2,Win32,8.578978072,,,,,,,,,,,,,,,,,,masks/mask_004.jpg,,,,,,,,,,,,,,,,,,,,,,,,,,,,,,,,,,,,,,,,,,,0,3,3,3,1,,,,,,,,,,,,,,,,,,,,,,,,,,,,,,,,,,,,,,,,,,,,,,
760553,001,2022-11-21_02h11.00.400,Info_measure_main_exp,2022.2.2,Win32,8.578978072,,,,,,,,,,,,,,,,,,masks/mask_005.jpg,,,,,,,,,,,,,,,,,,,,,,,,,,,,,,,,,,,,,,,,,,,0,4,4,4,1,,,,,,,,,,,,,,,,,,,,,,,,,,,,,,,,,,,,,,,,,,,,,,
760553,001,2022-11-21_02h11.00.400,Info_measure_main_exp,2022.2.2,Win32,8.578978072,,,,,,,,,,,,,,,,,,masks/mask_001.jpg,,,,,,,,,,,,,,,,,,,,,,,,,,,,,,,,,,,,,,,,,,,,,,,,0,0,0,0,1,,,,,,,,,,,,,,,,,,,,,,,,,,,,,,,,,,,,,,,,,
760553,001,2022-11-21_02h11.00.400,Info_measure_main_exp,2022.2.2,Win32,8.578978072,,,,,,,,,,,,,,,,,,masks/mask_002.jpg,,,,,,,,,,,,,,,,,,,,,,,,,,,,,,,,,,,,,,,,,,,,,,,,0,1,1,1,1,,,,,,,,,,,,,,,,,,,,,,,,,,,,,,,,,,,,,,,,,
760553,001,2022-11-21_02h11.00.400,Info_measure_main_exp,2022.2.2,Win32,8.578978072,,,,,,,,,,,,,,,,,,masks/mask_003.jpg,,,,,,,,,,,,,,,,,,,,,,,,,,,,,,,,,,,,,,,,,,,,,,,,0,2,2,2,1,,,,,,,,,,,,,,,,,,,,,,,,,,,,,,,,,,,,,,,,,
760553,001,2022-11-21_02h11.00.400,Info_measure_main_exp,2022.2.2,Win32,8.578978072,,,,,,,,,,,,,,,,,,masks/mask_005.jpg,,,,,,,,,,,,,,,,,,,,,,,,,,,,,,,,,,,,,,,,,,,,,,,,0,3,3,4,1,,,,,,,,,,,,,,,,,,,,,,,,,,,,,,,,,,,,,,,,,
760553,001,2022-11-21_02h11.00.400,Info_measure_main_exp,2022.2.2,Win32,8.578978072,,,,,,,,,,,,,,,,,,masks/mask_004.jpg,,,,,,,,,,,,,,,,,,,,,,,,,,,,,,,,,,,,,,,,,,,,,,,,0,4,4,3,1,,,,,,,,,,,,,,,,,,,,,,,,,,,,,,,,,,,,,,,,,
760553,001,2022-11-21_02h11.00.400,Info_measure_main_exp,2022.2.2,Win32,8.578978072,,,,,,,,,,,,,,,,,,,,,,,,,,,,,,7,1.2951,1,,,,,,,,,,,,0,131,5,5,2214,2142,absent_patch/patch0002214.jpg,absent_patch/patch0002142.jpg,,,,,,,,,,,,,,,,,,,,0.049479167,0.130208333,1,0,0,response1disk,27,0.009114583,0.01171875,1,0,0,center_square,0,26,26,102,1,,,,,,,,,,,,,,,,,,,,,,,
760553,001,2022-11-21_02h11.00.400,Info_measure_main_exp,2022.2.2,Win32,8.578978072,,,,,,,,,,,,,,,,,,masks/mask_001.jpg,,,,,,,,,,,,,,,,,,,,,,,,,,,,,,,,,,,,,,,,,,,0,0,0,0,1,,,,,,,,,,,,,,,,,,,,,,,,,,,,,,,,,,,,,,,,,,,,,,
760553,001,2022-11-21_02h11.00.400,Info_measure_main_exp,2022.2.2,Win32,8.578978072,,,,,,,,,,,,,,,,,,masks/mask_002.jpg,,,,,,,,,,,,,,,,,,,,,,,,,,,,,,,,,,,,,,,,,,,0,1,1,1,1,,,,,,,,,,,,,,,,,,,,,,,,,,,,,,,,,,,,,,,,,,,,,,
760553,001,2022-11-21_02h11.00.400,Info_measure_main_exp,2022.2.2,Win32,8.578978072,,,,,,,,,,,,,,,,,,masks/mask_004.jpg,,,,,,,,,,,,,,,,,,,,,,,,,,,,,,,,,,,,,,,,,,,0,2,2,3,1,,,,,,,,,,,,,,,,,,,,,,,,,,,,,,,,,,,,,,,,,,,,,,
760553,001,2022-11-21_02h11.00.400,Info_measure_main_exp,2022.2.2,Win32,8.578978072,,,,,,,,,,,,,,,,,,masks/mask_003.jpg,,,,,,,,,,,,,,,,,,,,,,,,,,,,,,,,,,,,,,,,,,,0,3,3,2,1,,,,,,,,,,,,,,,,,,,,,,,,,,,,,,,,,,,,,,,,,,,,,,
760553,001,2022-11-21_02h11.00.400,Info_measure_main_exp,2022.2.2,Win32,8.578978072,,,,,,,,,,,,,,,,,,masks/mask_005.jpg,,,,,,,,,,,,,,,,,,,,,,,,,,,,,,,,,,,,,,,,,,,0,4,4,4,1,,,,,,,,,,,,,,,,,,,,,,,,,,,,,,,,,,,,,,,,,,,,,,
760553,001,2022-11-21_02h11.00.400,Info_measure_main_exp,2022.2.2,Win32,8.578978072,,,,,,,,,,,,,,,,,,masks/mask_003.jpg,,,,,,,,,,,,,,,,,,,,,,,,,,,,,,,,,,,,,,,,,,,,,,,,0,0,0,2,1,,,,,,,,,,,,,,,,,,,,,,,,,,,,,,,,,,,,,,,,,
760553,001,2022-11-21_02h11.00.400,Info_measure_main_exp,2022.2.2,Win32,8.578978072,,,,,,,,,,,,,,,,,,masks/mask_001.jpg,,,,,,,,,,,,,,,,,,,,,,,,,,,,,,,,,,,,,,,,,,,,,,,,0,1,1,0,1,,,,,,,,,,,,,,,,,,,,,,,,,,,,,,,,,,,,,,,,,
760553,001,2022-11-21_02h11.00.400,Info_measure_main_exp,2022.2.2,Win32,8.578978072,,,,,,,,,,,,,,,,,,masks/mask_004.jpg,,,,,,,,,,,,,,,,,,,,,,,,,,,,,,,,,,,,,,,,,,,,,,,,0,2,2,3,1,,,,,,,,,,,,,,,,,,,,,,,,,,,,,,,,,,,,,,,,,
760553,001,2022-11-21_02h11.00.400,Info_measure_main_exp,2022.2.2,Win32,8.578978072,,,,,,,,,,,,,,,,,,masks/mask_005.jpg,,,,,,,,,,,,,,,,,,,,,,,,,,,,,,,,,,,,,,,,,,,,,,,,0,3,3,4,1,,,,,,,,,,,,,,,,,,,,,,,,,,,,,,,,,,,,,,,,,
760553,001,2022-11-21_02h11.00.400,Info_measure_main_exp,2022.2.2,Win32,8.578978072,,,,,,,,,,,,,,,,,,masks/mask_002.jpg,,,,,,,,,,,,,,,,,,,,,,,,,,,,,,,,,,,,,,,,,,,,,,,,0,4,4,1,1,,,,,,,,,,,,,,,,,,,,,,,,,,,,,,,,,,,,,,,,,
760553,001,2022-11-21_02h11.00.400,Info_measure_main_exp,2022.2.2,Win32,8.578978072,,,,,,,,,,,,,,,,,,,,,,,,,,,,,,0,1.4092,1,,,,,,,,,,,,0,131,5,5,2142,2082,absent_patch/patch0002142.jpg,absent_patch/patch0002082.jpg,,,,,,,,,,,,,,,,,,,,-0.05859375,0.096354167,1,0,0,response7disk,28,0.00390625,-0.00390625,1,0,0,center_square,0,27,27,88,1,,,,,,,,,,,,,,,,,,,,,,,
760553,001,2022-11-21_02h11.00.400,Info_measure_main_exp,2022.2.2,Win32,8.578978072,,,,,,,,,,,,,,,,,,masks/mask_002.jpg,,,,,,,,,,,,,,,,,,,,,,,,,,,,,,,,,,,,,,,,,,,0,0,0,1,1,,,,,,,,,,,,,,,,,,,,,,,,,,,,,,,,,,,,,,,,,,,,,,
760553,001,2022-11-21_02h11.00.400,Info_measure_main_exp,2022.2.2,Win32,8.578978072,,,,,,,,,,,,,,,,,,masks/mask_005.jpg,,,,,,,,,,,,,,,,,,,,,,,,,,,,,,,,,,,,,,,,,,,0,1,1,4,1,,,,,,,,,,,,,,,,,,,,,,,,,,,,,,,,,,,,,,,,,,,,,,
760553,001,2022-11-21_02h11.00.400,Info_measure_main_exp,2022.2.2,Win32,8.578978072,,,,,,,,,,,,,,,,,,masks/mask_003.jpg,,,,,,,,,,,,,,,,,,,,,,,,,,,,,,,,,,,,,,,,,,,0,2,2,2,1,,,,,,,,,,,,,,,,,,,,,,,,,,,,,,,,,,,,,,,,,,,,,,
760553,001,2022-11-21_02h11.00.400,Info_measure_main_exp,2022.2.2,Win32,8.578978072,,,,,,,,,,,,,,,,,,masks/mask_001.jpg,,,,,,,,,,,,,,,,,,,,,,,,,,,,,,,,,,,,,,,,,,,0,3,3,0,1,,,,,,,,,,,,,,,,,,,,,,,,,,,,,,,,,,,,,,,,,,,,,,
760553,001,2022-11-21_02h11.00.400,Info_measure_main_exp,2022.2.2,Win32,8.578978072,,,,,,,,,,,,,,,,,,masks/mask_004.jpg,,,,,,,,,,,,,,,,,,,,,,,,,,,,,,,,,,,,,,,,,,,0,4,4,3,1,,,,,,,,,,,,,,,,,,,,,,,,,,,,,,,,,,,,,,,,,,,,,,
760553,001,2022-11-21_02h11.00.400,Info_measure_main_exp,2022.2.2,Win32,8.578978072,,,,,,,,,,,,,,,,,,masks/mask_002.jpg,,,,,,,,,,,,,,,,,,,,,,,,,,,,,,,,,,,,,,,,,,,,,,,,0,0,0,1,1,,,,,,,,,,,,,,,,,,,,,,,,,,,,,,,,,,,,,,,,,
760553,001,2022-11-21_02h11.00.400,Info_measure_main_exp,2022.2.2,Win32,8.578978072,,,,,,,,,,,,,,,,,,masks/mask_005.jpg,,,,,,,,,,,,,,,,,,,,,,,,,,,,,,,,,,,,,,,,,,,,,,,,0,1,1,4,1,,,,,,,,,,,,,,,,,,,,,,,,,,,,,,,,,,,,,,,,,
760553,001,2022-11-21_02h11.00.400,Info_measure_main_exp,2022.2.2,Win32,8.578978072,,,,,,,,,,,,,,,,,,masks/mask_004.jpg,,,,,,,,,,,,,,,,,,,,,,,,,,,,,,,,,,,,,,,,,,,,,,,,0,2,2,3,1,,,,,,,,,,,,,,,,,,,,,,,,,,,,,,,,,,,,,,,,,
760553,001,2022-11-21_02h11.00.400,Info_measure_main_exp,2022.2.2,Win32,8.578978072,,,,,,,,,,,,,,,,,,masks/mask_001.jpg,,,,,,,,,,,,,,,,,,,,,,,,,,,,,,,,,,,,,,,,,,,,,,,,0,3,3,0,1,,,,,,,,,,,,,,,,,,,,,,,,,,,,,,,,,,,,,,,,,
760553,001,2022-11-21_02h11.00.400,Info_measure_main_exp,2022.2.2,Win32,8.578978072,,,,,,,,,,,,,,,,,,masks/mask_003.jpg,,,,,,,,,,,,,,,,,,,,,,,,,,,,,,,,,,,,,,,,,,,,,,,,0,4,4,2,1,,,,,,,,,,,,,,,,,,,,,,,,,,,,,,,,,,,,,,,,,
760553,001,2022-11-21_02h11.00.400,Info_measure_main_exp,2022.2.2,Win32,8.578978072,,,,,,,,,,,,,,,,,,,,,,,,,,,,,,0,1.395,1,,,,,,,,,,,,0,131,5,5,1986,2154,absent_patch/patch0001986.jpg,absent_patch/patch0002154.jpg,,,,,,,,,,,,,,,,,,,,-0.037760417,0.072916667,1,0,0,response7disk,29,0.010416667,0.001302083,1,0,0,center_square,0,28,28,36,1,,,,,,,,,,,,,,,,,,,,,,,
760553,001,2022-11-21_02h11.00.400,Info_measure_main_exp,2022.2.2,Win32,8.578978072,,,,,,,,,,,,,,,,,,masks/mask_005.jpg,,,,,,,,,,,,,,,,,,,,,,,,,,,,,,,,,,,,,,,,,,,0,0,0,4,1,,,,,,,,,,,,,,,,,,,,,,,,,,,,,,,,,,,,,,,,,,,,,,
760553,001,2022-11-21_02h11.00.400,Info_measure_main_exp,2022.2.2,Win32,8.578978072,,,,,,,,,,,,,,,,,,masks/mask_002.jpg,,,,,,,,,,,,,,,,,,,,,,,,,,,,,,,,,,,,,,,,,,,0,1,1,1,1,,,,,,,,,,,,,,,,,,,,,,,,,,,,,,,,,,,,,,,,,,,,,,
760553,001,2022-11-21_02h11.00.400,Info_measure_main_exp,2022.2.2,Win32,8.578978072,,,,,,,,,,,,,,,,,,masks/mask_003.jpg,,,,,,,,,,,,,,,,,,,,,,,,,,,,,,,,,,,,,,,,,,,0,2,2,2,1,,,,,,,,,,,,,,,,,,,,,,,,,,,,,,,,,,,,,,,,,,,,,,
760553,001,2022-11-21_02h11.00.400,Info_measure_main_exp,2022.2.2,Win32,8.578978072,,,,,,,,,,,,,,,,,,masks/mask_001.jpg,,,,,,,,,,,,,,,,,,,,,,,,,,,,,,,,,,,,,,,,,,,0,3,3,0,1,,,,,,,,,,,,,,,,,,,,,,,,,,,,,,,,,,,,,,,,,,,,,,
760553,001,2022-11-21_02h11.00.400,Info_measure_main_exp,2022.2.2,Win32,8.578978072,,,,,,,,,,,,,,,,,,masks/mask_004.jpg,,,,,,,,,,,,,,,,,,,,,,,,,,,,,,,,,,,,,,,,,,,0,4,4,3,1,,,,,,,,,,,,,,,,,,,,,,,,,,,,,,,,,,,,,,,,,,,,,,
760553,001,2022-11-21_02h11.00.400,Info_measure_main_exp,2022.2.2,Win32,8.578978072,,,,,,,,,,,,,,,,,,masks/mask_004.jpg,,,,,,,,,,,,,,,,,,,,,,,,,,,,,,,,,,,,,,,,,,,,,,,,0,0,0,3,1,,,,,,,,,,,,,,,,,,,,,,,,,,,,,,,,,,,,,,,,,
760553,001,2022-11-21_02h11.00.400,Info_measure_main_exp,2022.2.2,Win32,8.578978072,,,,,,,,,,,,,,,,,,masks/mask_005.jpg,,,,,,,,,,,,,,,,,,,,,,,,,,,,,,,,,,,,,,,,,,,,,,,,0,1,1,4,1,,,,,,,,,,,,,,,,,,,,,,,,,,,,,,,,,,,,,,,,,
760553,001,2022-11-21_02h11.00.400,Info_measure_main_exp,2022.2.2,Win32,8.578978072,,,,,,,,,,,,,,,,,,masks/mask_001.jpg,,,,,,,,,,,,,,,,,,,,,,,,,,,,,,,,,,,,,,,,,,,,,,,,0,2,2,0,1,,,,,,,,,,,,,,,,,,,,,,,,,,,,,,,,,,,,,,,,,
760553,001,2022-11-21_02h11.00.400,Info_measure_main_exp,2022.2.2,Win32,8.578978072,,,,,,,,,,,,,,,,,,masks/mask_002.jpg,,,,,,,,,,,,,,,,,,,,,,,,,,,,,,,,,,,,,,,,,,,,,,,,0,3,3,1,1,,,,,,,,,,,,,,,,,,,,,,,,,,,,,,,,,,,,,,,,,
760553,001,2022-11-21_02h11.00.400,Info_measure_main_exp,2022.2.2,Win32,8.578978072,,,,,,,,,,,,,,,,,,masks/mask_003.jpg,,,,,,,,,,,,,,,,,,,,,,,,,,,,,,,,,,,,,,,,,,,,,,,,0,4,4,2,1,,,,,,,,,,,,,,,,,,,,,,,,,,,,,,,,,,,,,,,,,
760553,001,2022-11-21_02h11.00.400,Info_measure_main_exp,2022.2.2,Win32,8.578978072,,,,,,,,,,,,,,,,,,,,,,,,,,,,,,7,1.8233,1,,,,,,,,,,,,0,131,5,5,1950,2166,absent_patch/patch0001950.jpg,absent_patch/patch0002166.jpg,,,,,,,,,,,,,,,,,,,,0.02734375,0.09765625,1,0,0,response1disk,30,0,-0.002604167,1,0,0,center_square,0,29,29,0,1,,,,,,,,,,,,,,,,,,,,,,,
760553,001,2022-11-21_02h11.00.400,Info_measure_main_exp,2022.2.2,Win32,8.578978072,,,,,,,,,,,,,,,,,,masks/mask_003.jpg,,,,,,,,,,,,,,,,,,,,,,,,,,,,,,,,,,,,,,,,,,,0,0,0,2,1,,,,,,,,,,,,,,,,,,,,,,,,,,,,,,,,,,,,,,,,,,,,,,
760553,001,2022-11-21_02h11.00.400,Info_measure_main_exp,2022.2.2,Win32,8.578978072,,,,,,,,,,,,,,,,,,masks/mask_005.jpg,,,,,,,,,,,,,,,,,,,,,,,,,,,,,,,,,,,,,,,,,,,0,1,1,4,1,,,,,,,,,,,,,,,,,,,,,,,,,,,,,,,,,,,,,,,,,,,,,,
760553,001,2022-11-21_02h11.00.400,Info_measure_main_exp,2022.2.2,Win32,8.578978072,,,,,,,,,,,,,,,,,,masks/mask_002.jpg,,,,,,,,,,,,,,,,,,,,,,,,,,,,,,,,,,,,,,,,,,,0,2,2,1,1,,,,,,,,,,,,,,,,,,,,,,,,,,,,,,,,,,,,,,,,,,,,,,
760553,001,2022-11-21_02h11.00.400,Info_measure_main_exp,2022.2.2,Win32,8.578978072,,,,,,,,,,,,,,,,,,masks/mask_001.jpg,,,,,,,,,,,,,,,,,,,,,,,,,,,,,,,,,,,,,,,,,,,0,3,3,0,1,,,,,,,,,,,,,,,,,,,,,,,,,,,,,,,,,,,,,,,,,,,,,,
760553,001,2022-11-21_02h11.00.400,Info_measure_main_exp,2022.2.2,Win32,8.578978072,,,,,,,,,,,,,,,,,,masks/mask_004.jpg,,,,,,,,,,,,,,,,,,,,,,,,,,,,,,,,,,,,,,,,,,,0,4,4,3,1,,,,,,,,,,,,,,,,,,,,,,,,,,,,,,,,,,,,,,,,,,,,,,
760553,001,2022-11-21_02h11.00.400,Info_measure_main_exp,2022.2.2,Win32,8.578978072,,,,,,,,,,,,,,,,,,masks/mask_001.jpg,,,,,,,,,,,,,,,,,,,,,,,,,,,,,,,,,,,,,,,,,,,,,,,,0,0,0,0,1,,,,,,,,,,,,,,,,,,,,,,,,,,,,,,,,,,,,,,,,,
760553,001,2022-11-21_02h11.00.400,Info_measure_main_exp,2022.2.2,Win32,8.578978072,,,,,,,,,,,,,,,,,,masks/mask_003.jpg,,,,,,,,,,,,,,,,,,,,,,,,,,,,,,,,,,,,,,,,,,,,,,,,0,1,1,2,1,,,,,,,,,,,,,,,,,,,,,,,,,,,,,,,,,,,,,,,,,
760553,001,2022-11-21_02h11.00.400,Info_measure_main_exp,2022.2.2,Win32,8.578978072,,,,,,,,,,,,,,,,,,masks/mask_004.jpg,,,,,,,,,,,,,,,,,,,,,,,,,,,,,,,,,,,,,,,,,,,,,,,,0,2,2,3,1,,,,,,,,,,,,,,,,,,,,,,,,,,,,,,,,,,,,,,,,,
760553,001,2022-11-21_02h11.00.400,Info_measure_main_exp,2022.2.2,Win32,8.578978072,,,,,,,,,,,,,,,,,,masks/mask_002.jpg,,,,,,,,,,,,,,,,,,,,,,,,,,,,,,,,,,,,,,,,,,,,,,,,0,3,3,1,1,,,,,,,,,,,,,,,,,,,,,,,,,,,,,,,,,,,,,,,,,
760553,001,2022-11-21_02h11.00.400,Info_measure_main_exp,2022.2.2,Win32,8.578978072,,,,,,,,,,,,,,,,,,masks/mask_005.jpg,,,,,,,,,,,,,,,,,,,,,,,,,,,,,,,,,,,,,,,,,,,,,,,,0,4,4,4,1,,,,,,,,,,,,,,,,,,,,,,,,,,,,,,,,,,,,,,,,,
760553,001,2022-11-21_02h11.00.400,Info_measure_main_exp,2022.2.2,Win32,8.578978072,,,,,,,,,,,,,,,,,,,,,,,,,,,,,,7,1.3988,1,,,,,,,,,,,,0,131,5,5,1950,2238,absent_patch/patch0001950.jpg,absent_patch/patch0002238.jpg,,,,,,,,,,,,,,,,,,,,0.059895833,0.118489583,1,0,0,response1disk,31,-0.002604167,-0.001302083,1,0,0,center_square,0,30,30,8,1,,,,,,,,,,,,,,,,,,,,,,,
760553,001,2022-11-21_02h11.00.400,Info_measure_main_exp,2022.2.2,Win32,8.578978072,,,,,,,,,,,,,,,,,,masks/mask_004.jpg,,,,,,,,,,,,,,,,,,,,,,,,,,,,,,,,,,,,,,,,,,,0,0,0,3,1,,,,,,,,,,,,,,,,,,,,,,,,,,,,,,,,,,,,,,,,,,,,,,
760553,001,2022-11-21_02h11.00.400,Info_measure_main_exp,2022.2.2,Win32,8.578978072,,,,,,,,,,,,,,,,,,masks/mask_002.jpg,,,,,,,,,,,,,,,,,,,,,,,,,,,,,,,,,,,,,,,,,,,0,1,1,1,1,,,,,,,,,,,,,,,,,,,,,,,,,,,,,,,,,,,,,,,,,,,,,,
760553,001,2022-11-21_02h11.00.400,Info_measure_main_exp,2022.2.2,Win32,8.578978072,,,,,,,,,,,,,,,,,,masks/mask_005.jpg,,,,,,,,,,,,,,,,,,,,,,,,,,,,,,,,,,,,,,,,,,,0,2,2,4,1,,,,,,,,,,,,,,,,,,,,,,,,,,,,,,,,,,,,,,,,,,,,,,
760553,001,2022-11-21_02h11.00.400,Info_measure_main_exp,2022.2.2,Win32,8.578978072,,,,,,,,,,,,,,,,,,masks/mask_001.jpg,,,,,,,,,,,,,,,,,,,,,,,,,,,,,,,,,,,,,,,,,,,0,3,3,0,1,,,,,,,,,,,,,,,,,,,,,,,,,,,,,,,,,,,,,,,,,,,,,,
760553,001,2022-11-21_02h11.00.400,Info_measure_main_exp,2022.2.2,Win32,8.578978072,,,,,,,,,,,,,,,,,,masks/mask_003.jpg,,,,,,,,,,,,,,,,,,,,,,,,,,,,,,,,,,,,,,,,,,,0,4,4,2,1,,,,,,,,,,,,,,,,,,,,,,,,,,,,,,,,,,,,,,,,,,,,,,
760553,001,2022-11-21_02h11.00.400,Info_measure_main_exp,2022.2.2,Win32,8.578978072,,,,,,,,,,,,,,,,,,masks/mask_003.jpg,,,,,,,,,,,,,,,,,,,,,,,,,,,,,,,,,,,,,,,,,,,,,,,,0,0,0,2,1,,,,,,,,,,,,,,,,,,,,,,,,,,,,,,,,,,,,,,,,,
760553,001,2022-11-21_02h11.00.400,Info_measure_main_exp,2022.2.2,Win32,8.578978072,,,,,,,,,,,,,,,,,,masks/mask_002.jpg,,,,,,,,,,,,,,,,,,,,,,,,,,,,,,,,,,,,,,,,,,,,,,,,0,1,1,1,1,,,,,,,,,,,,,,,,,,,,,,,,,,,,,,,,,,,,,,,,,
760553,001,2022-11-21_02h11.00.400,Info_measure_main_exp,2022.2.2,Win32,8.578978072,,,,,,,,,,,,,,,,,,masks/mask_004.jpg,,,,,,,,,,,,,,,,,,,,,,,,,,,,,,,,,,,,,,,,,,,,,,,,0,2,2,3,1,,,,,,,,,,,,,,,,,,,,,,,,,,,,,,,,,,,,,,,,,
760553,001,2022-11-21_02h11.00.400,Info_measure_main_exp,2022.2.2,Win32,8.578978072,,,,,,,,,,,,,,,,,,masks/mask_005.jpg,,,,,,,,,,,,,,,,,,,,,,,,,,,,,,,,,,,,,,,,,,,,,,,,0,3,3,4,1,,,,,,,,,,,,,,,,,,,,,,,,,,,,,,,,,,,,,,,,,
760553,001,2022-11-21_02h11.00.400,Info_measure_main_exp,2022.2.2,Win32,8.578978072,,,,,,,,,,,,,,,,,,masks/mask_001.jpg,,,,,,,,,,,,,,,,,,,,,,,,,,,,,,,,,,,,,,,,,,,,,,,,0,4,4,0,1,,,,,,,,,,,,,,,,,,,,,,,,,,,,,,,,,,,,,,,,,
760553,001,2022-11-21_02h11.00.400,Info_measure_main_exp,2022.2.2,Win32,8.578978072,,,,,,,,,,,,,,,,,,,,,,,,,,,,,,5,2.9351,1,,,,,,,,,,,,0,131,5,5,2190,2190,absent_patch/patch0002190.jpg,absent_patch/patch0002190.jpg,,,,,,,,,,,,,,,,,,,,0.067708333,-0.040364583,1,0,0,response3disk,32,0,0.00390625,1,0,0,center_square,0,31,31,86,1,,,,,,,,,,,,,,,,,,,,,,,
760553,001,2022-11-21_02h11.00.400,Info_measure_main_exp,2022.2.2,Win32,8.578978072,,,,,,,,,,,,,,,,,,masks/mask_002.jpg,,,,,,,,,,,,,,,,,,,,,,,,,,,,,,,,,,,,,,,,,,,0,0,0,1,1,,,,,,,,,,,,,,,,,,,,,,,,,,,,,,,,,,,,,,,,,,,,,,
760553,001,2022-11-21_02h11.00.400,Info_measure_main_exp,2022.2.2,Win32,8.578978072,,,,,,,,,,,,,,,,,,masks/mask_003.jpg,,,,,,,,,,,,,,,,,,,,,,,,,,,,,,,,,,,,,,,,,,,0,1,1,2,1,,,,,,,,,,,,,,,,,,,,,,,,,,,,,,,,,,,,,,,,,,,,,,
760553,001,2022-11-21_02h11.00.400,Info_measure_main_exp,2022.2.2,Win32,8.578978072,,,,,,,,,,,,,,,,,,masks/mask_004.jpg,,,,,,,,,,,,,,,,,,,,,,,,,,,,,,,,,,,,,,,,,,,0,2,2,3,1,,,,,,,,,,,,,,,,,,,,,,,,,,,,,,,,,,,,,,,,,,,,,,
760553,001,2022-11-21_02h11.00.400,Info_measure_main_exp,2022.2.2,Win32,8.578978072,,,,,,,,,,,,,,,,,,masks/mask_001.jpg,,,,,,,,,,,,,,,,,,,,,,,,,,,,,,,,,,,,,,,,,,,0,3,3,0,1,,,,,,,,,,,,,,,,,,,,,,,,,,,,,,,,,,,,,,,,,,,,,,
760553,001,2022-11-21_02h11.00.400,Info_measure_main_exp,2022.2.2,Win32,8.578978072,,,,,,,,,,,,,,,,,,masks/mask_005.jpg,,,,,,,,,,,,,,,,,,,,,,,,,,,,,,,,,,,,,,,,,,,0,4,4,4,1,,,,,,,,,,,,,,,,,,,,,,,,,,,,,,,,,,,,,,,,,,,,,,
760553,001,2022-11-21_02h11.00.400,Info_measure_main_exp,2022.2.2,Win32,8.578978072,,,,,,,,,,,,,,,,,,masks/mask_001.jpg,,,,,,,,,,,,,,,,,,,,,,,,,,,,,,,,,,,,,,,,,,,,,,,,0,0,0,0,1,,,,,,,,,,,,,,,,,,,,,,,,,,,,,,,,,,,,,,,,,
760553,001,2022-11-21_02h11.00.400,Info_measure_main_exp,2022.2.2,Win32,8.578978072,,,,,,,,,,,,,,,,,,masks/mask_004.jpg,,,,,,,,,,,,,,,,,,,,,,,,,,,,,,,,,,,,,,,,,,,,,,,,0,1,1,3,1,,,,,,,,,,,,,,,,,,,,,,,,,,,,,,,,,,,,,,,,,
760553,001,2022-11-21_02h11.00.400,Info_measure_main_exp,2022.2.2,Win32,8.578978072,,,,,,,,,,,,,,,,,,masks/mask_002.jpg,,,,,,,,,,,,,,,,,,,,,,,,,,,,,,,,,,,,,,,,,,,,,,,,0,2,2,1,1,,,,,,,,,,,,,,,,,,,,,,,,,,,,,,,,,,,,,,,,,
760553,001,2022-11-21_02h11.00.400,Info_measure_main_exp,2022.2.2,Win32,8.578978072,,,,,,,,,,,,,,,,,,masks/mask_005.jpg,,,,,,,,,,,,,,,,,,,,,,,,,,,,,,,,,,,,,,,,,,,,,,,,0,3,3,4,1,,,,,,,,,,,,,,,,,,,,,,,,,,,,,,,,,,,,,,,,,
760553,001,2022-11-21_02h11.00.400,Info_measure_main_exp,2022.2.2,Win32,8.578978072,,,,,,,,,,,,,,,,,,masks/mask_003.jpg,,,,,,,,,,,,,,,,,,,,,,,,,,,,,,,,,,,,,,,,,,,,,,,,0,4,4,2,1,,,,,,,,,,,,,,,,,,,,,,,,,,,,,,,,,,,,,,,,,
760553,001,2022-11-21_02h11.00.400,Info_measure_main_exp,2022.2.2,Win32,8.578978072,,,,,,,,,,,,,,,,,,,,,,,,,,,,,,1,1.6833,1,,,,,,,,,,,,0,131,5,5,1950,1950,absent_patch/patch0001950.jpg,absent_patch/patch0001950.jpg,,,,,,,,,,,,,,,,,,,,-0.083333333,0.022135417,1,0,0,response7disk,33,-0.001302083,-0.005208333,1,0,0,center_square,0,32,32,92,1,,,,,,,,,,,,,,,,,,,,,,,
760553,001,2022-11-21_02h11.00.400,Info_measure_main_exp,2022.2.2,Win32,8.578978072,,,,,,,,,,,,,,,,,,masks/mask_005.jpg,,,,,,,,,,,,,,,,,,,,,,,,,,,,,,,,,,,,,,,,,,,0,0,0,4,1,,,,,,,,,,,,,,,,,,,,,,,,,,,,,,,,,,,,,,,,,,,,,,
760553,001,2022-11-21_02h11.00.400,Info_measure_main_exp,2022.2.2,Win32,8.578978072,,,,,,,,,,,,,,,,,,masks/mask_003.jpg,,,,,,,,,,,,,,,,,,,,,,,,,,,,,,,,,,,,,,,,,,,0,1,1,2,1,,,,,,,,,,,,,,,,,,,,,,,,,,,,,,,,,,,,,,,,,,,,,,
760553,001,2022-11-21_02h11.00.400,Info_measure_main_exp,2022.2.2,Win32,8.578978072,,,,,,,,,,,,,,,,,,masks/mask_004.jpg,,,,,,,,,,,,,,,,,,,,,,,,,,,,,,,,,,,,,,,,,,,0,2,2,3,1,,,,,,,,,,,,,,,,,,,,,,,,,,,,,,,,,,,,,,,,,,,,,,
760553,001,2022-11-21_02h11.00.400,Info_measure_main_exp,2022.2.2,Win32,8.578978072,,,,,,,,,,,,,,,,,,masks/mask_002.jpg,,,,,,,,,,,,,,,,,,,,,,,,,,,,,,,,,,,,,,,,,,,0,3,3,1,1,,,,,,,,,,,,,,,,,,,,,,,,,,,,,,,,,,,,,,,,,,,,,,
760553,001,2022-11-21_02h11.00.400,Info_measure_main_exp,2022.2.2,Win32,8.578978072,,,,,,,,,,,,,,,,,,masks/mask_001.jpg,,,,,,,,,,,,,,,,,,,,,,,,,,,,,,,,,,,,,,,,,,,0,4,4,0,1,,,,,,,,,,,,,,,,,,,,,,,,,,,,,,,,,,,,,,,,,,,,,,
760553,001,2022-11-21_02h11.00.400,Info_measure_main_exp,2022.2.2,Win32,8.578978072,,,,,,,,,,,,,,,,,,masks/mask_005.jpg,,,,,,,,,,,,,,,,,,,,,,,,,,,,,,,,,,,,,,,,,,,,,,,,0,0,0,4,1,,,,,,,,,,,,,,,,,,,,,,,,,,,,,,,,,,,,,,,,,
760553,001,2022-11-21_02h11.00.400,Info_measure_main_exp,2022.2.2,Win32,8.578978072,,,,,,,,,,,,,,,,,,masks/mask_001.jpg,,,,,,,,,,,,,,,,,,,,,,,,,,,,,,,,,,,,,,,,,,,,,,,,0,1,1,0,1,,,,,,,,,,,,,,,,,,,,,,,,,,,,,,,,,,,,,,,,,
760553,001,2022-11-21_02h11.00.400,Info_measure_main_exp,2022.2.2,Win32,8.578978072,,,,,,,,,,,,,,,,,,masks/mask_003.jpg,,,,,,,,,,,,,,,,,,,,,,,,,,,,,,,,,,,,,,,,,,,,,,,,0,2,2,2,1,,,,,,,,,,,,,,,,,,,,,,,,,,,,,,,,,,,,,,,,,
760553,001,2022-11-21_02h11.00.400,Info_measure_main_exp,2022.2.2,Win32,8.578978072,,,,,,,,,,,,,,,,,,masks/mask_002.jpg,,,,,,,,,,,,,,,,,,,,,,,,,,,,,,,,,,,,,,,,,,,,,,,,0,3,3,1,1,,,,,,,,,,,,,,,,,,,,,,,,,,,,,,,,,,,,,,,,,
760553,001,2022-11-21_02h11.00.400,Info_measure_main_exp,2022.2.2,Win32,8.578978072,,,,,,,,,,,,,,,,,,masks/mask_004.jpg,,,,,,,,,,,,,,,,,,,,,,,,,,,,,,,,,,,,,,,,,,,,,,,,0,4,4,3,1,,,,,,,,,,,,,,,,,,,,,,,,,,,,,,,,,,,,,,,,,
760553,001,2022-11-21_02h11.00.400,Info_measure_main_exp,2022.2.2,Win32,8.578978072,,,,,,,,,,,,,,,,,,,,,,,,,,,,,,0,1.9726,1,,,,,,,,,,,,0,131,5,5,2154,2250,absent_patch/patch0002154.jpg,absent_patch/patch0002250.jpg,,,,,,,,,,,,,,,,,,,,-0.03515625,0.0625,1,0,0,response7disk,34,0.010416667,0,1,0,0,center_square,0,33,33,108,1,,,,,,,,,,,,,,,,,,,,,,,
760553,001,2022-11-21_02h11.00.400,Info_measure_main_exp,2022.2.2,Win32,8.578978072,,,,,,,,,,,,,,,,,,masks/mask_005.jpg,,,,,,,,,,,,,,,,,,,,,,,,,,,,,,,,,,,,,,,,,,,0,0,0,4,1,,,,,,,,,,,,,,,,,,,,,,,,,,,,,,,,,,,,,,,,,,,,,,
760553,001,2022-11-21_02h11.00.400,Info_measure_main_exp,2022.2.2,Win32,8.578978072,,,,,,,,,,,,,,,,,,masks/mask_004.jpg,,,,,,,,,,,,,,,,,,,,,,,,,,,,,,,,,,,,,,,,,,,0,1,1,3,1,,,,,,,,,,,,,,,,,,,,,,,,,,,,,,,,,,,,,,,,,,,,,,
760553,001,2022-11-21_02h11.00.400,Info_measure_main_exp,2022.2.2,Win32,8.578978072,,,,,,,,,,,,,,,,,,masks/mask_003.jpg,,,,,,,,,,,,,,,,,,,,,,,,,,,,,,,,,,,,,,,,,,,0,2,2,2,1,,,,,,,,,,,,,,,,,,,,,,,,,,,,,,,,,,,,,,,,,,,,,,
760553,001,2022-11-21_02h11.00.400,Info_measure_main_exp,2022.2.2,Win32,8.578978072,,,,,,,,,,,,,,,,,,masks/mask_001.jpg,,,,,,,,,,,,,,,,,,,,,,,,,,,,,,,,,,,,,,,,,,,0,3,3,0,1,,,,,,,,,,,,,,,,,,,,,,,,,,,,,,,,,,,,,,,,,,,,,,
760553,001,2022-11-21_02h11.00.400,Info_measure_main_exp,2022.2.2,Win32,8.578978072,,,,,,,,,,,,,,,,,,masks/mask_002.jpg,,,,,,,,,,,,,,,,,,,,,,,,,,,,,,,,,,,,,,,,,,,0,4,4,1,1,,,,,,,,,,,,,,,,,,,,,,,,,,,,,,,,,,,,,,,,,,,,,,
760553,001,2022-11-21_02h11.00.400,Info_measure_main_exp,2022.2.2,Win32,8.578978072,,,,,,,,,,,,,,,,,,masks/mask_004.jpg,,,,,,,,,,,,,,,,,,,,,,,,,,,,,,,,,,,,,,,,,,,,,,,,0,0,0,3,1,,,,,,,,,,,,,,,,,,,,,,,,,,,,,,,,,,,,,,,,,
760553,001,2022-11-21_02h11.00.400,Info_measure_main_exp,2022.2.2,Win32,8.578978072,,,,,,,,,,,,,,,,,,masks/mask_002.jpg,,,,,,,,,,,,,,,,,,,,,,,,,,,,,,,,,,,,,,,,,,,,,,,,0,1,1,1,1,,,,,,,,,,,,,,,,,,,,,,,,,,,,,,,,,,,,,,,,,
760553,001,2022-11-21_02h11.00.400,Info_measure_main_exp,2022.2.2,Win32,8.578978072,,,,,,,,,,,,,,,,,,masks/mask_001.jpg,,,,,,,,,,,,,,,,,,,,,,,,,,,,,,,,,,,,,,,,,,,,,,,,0,2,2,0,1,,,,,,,,,,,,,,,,,,,,,,,,,,,,,,,,,,,,,,,,,
760553,001,2022-11-21_02h11.00.400,Info_measure_main_exp,2022.2.2,Win32,8.578978072,,,,,,,,,,,,,,,,,,masks/mask_003.jpg,,,,,,,,,,,,,,,,,,,,,,,,,,,,,,,,,,,,,,,,,,,,,,,,0,3,3,2,1,,,,,,,,,,,,,,,,,,,,,,,,,,,,,,,,,,,,,,,,,
