participant,session,date,expName,psychopyVersion,OS,frameRate,space_press_continue.keys,space_press_continue.rt,space_press_continue_2.keys,space_press_continue_2.rt,space_press_continue_3.keys,space_press_continue_3.rt,space_press_continue_4.keys,space_press_continue_4.rt,space_press_continue_5.keys,space_press_continue_5.rt,space_press_continue_6.keys,space_press_continue_6.rt,prac_mask_loop_1.thisRepN,prac_mask_loop_1.thisTrialN,prac_mask_loop_1.thisN,prac_mask_loop_1.thisIndex,prac_mask_loop_1.ran,mask_name,prac_mask_loop_2.thisRepN,prac_mask_loop_2.thisTrialN,prac_mask_loop_2.thisN,prac_mask_loop_2.thisIndex,prac_mask_loop_2.ran,mouse_2.x,mouse_2.y,mouse_2.leftButton,mouse_2.midButton,mouse_2.rightButton,mouse_2.clicked_name,similarity,response_time,Pass,mouse_12.x,mouse_12.y,mouse_12.leftButton,mouse_12.midButton,mouse_12.rightButton,mouse_12.clicked_name,prac_loop.thisRepN,prac_loop.thisTrialN,prac_loop.thisN,prac_loop.thisIndex,prac_loop.ran,Pair_type,Image_num,Patch_1_loc,Patch_2_loc,Patch_1_info,Patch_2_info,Patch_1_name,Patch_2_name,mouse_1.x,mouse_1.y,mouse_1.leftButton,mouse_1.midButton,mouse_1.rightButton,mouse_1.time,mouse_1.clicked_name,space_press_continue_7.keys,space_press_continue_7.rt,mask_loop.thisRepN,mask_loop.thisTrialN,mask_loop.thisN,mask_loop.thisIndex,mask_loop.ran,mask_loop_2.thisRepN,mask_loop_2.thisTrialN,mask_loop_2.thisN,mask_loop_2.thisIndex,mask_loop_2.ran,mouse.x,mouse.y,mouse.leftButton,mouse.midButton,mouse.rightButton,mouse.clicked_name,trialNumber,mouse_11.x,mouse_11.y,mouse_11.leftButton,mouse_11.midButton,mouse_11.rightButton,mouse_11.clicked_name,first_pass_loop.thisRepN,first_pass_loop.thisTrialN,first_pass_loop.thisN,first_pass_loop.thisIndex,first_pass_loop.ran,mask_loop_3.thisRepN,mask_loop_3.thisTrialN,mask_loop_3.thisN,mask_loop_3.thisIndex,mask_loop_3.ran,mask_loop_4.thisRepN,mask_loop_4.thisTrialN,mask_loop_4.thisN,mask_loop_4.thisIndex,mask_loop_4.ran,mouse_3.x,mouse_3.y,mouse_3.leftButton,mouse_3.midButton,mouse_3.rightButton,mouse_3.clicked_name,double_pass_loop.thisRepN,double_pass_loop.thisTrialN,double_pass_loop.thisN,double_pass_loop.thisIndex,double_pass_loop.ran,space_exit.keys,space_exit.rt
764752,001,2022-11-20_23h56.35.981,Info_measure_main_exp,2022.2.2,MacIntel,60.0024001,,,,,,,,,,,,,,,,,,,,,,,,,,,,,,,,,,,,,,,,,,,,,,,,,,,,,,,,,,,,,,,,,,,,,,,,,,,,,,,,,,,,,,,,,,,,,,,,,,,,,,,,,,,,,,,
764752,001,2022-11-20_23h56.35.981,Info_measure_main_exp,2022.2.2,MacIntel,60.0024001,,,,,,,,,,,,,,,,,,,,,,,,,,,,,,,,,,,,,,,,,,,,,,,,,,,,,,,,,,,,,,,,,,,,,,,,,,,,,,,,,,,,,,,,,,,,,,,,,,,,,,,,,,,,,,,
764752,001,2022-11-20_23h56.35.981,Info_measure_main_exp,2022.2.2,MacIntel,60.0024001,space,8.2356,,,,,,,,,,,,,,,,,,,,,,,,,,,,,,,,,,,,,,,,,,,,,,,,,,,,,,,,,,,,,,,,,,,,,,,,,,,,,,,,,,,,,,,,,,,,,,,,,,,,,,,,,,,,,
764752,001,2022-11-20_23h56.35.981,Info_measure_main_exp,2022.2.2,MacIntel,60.0024001,,,space,7.9294,,,,,,,,,,,,,,,,,,,,,,,,,,,,,,,,,,,,,,,,,,,,,,,,,,,,,,,,,,,,,,,,,,,,,,,,,,,,,,,,,,,,,,,,,,,,,,,,,,,,,,,,,,,
764752,001,2022-11-20_23h56.35.981,Info_measure_main_exp,2022.2.2,MacIntel,60.0024001,,,,,space,5.2164,,,,,,,,,,,,,,,,,,,,,,,,,,,,,,,,,,,,,,,,,,,,,,,,,,,,,,,,,,,,,,,,,,,,,,,,,,,,,,,,,,,,,,,,,,,,,,,,,,,,,,,,,
764752,001,2022-11-20_23h56.35.981,Info_measure_main_exp,2022.2.2,MacIntel,60.0024001,,,,,,,space,9.8733,,,,,,,,,,,,,,,,,,,,,,,,,,,,,,,,,,,,,,,,,,,,,,,,,,,,,,,,,,,,,,,,,,,,,,,,,,,,,,,,,,,,,,,,,,,,,,,,,,,,,,,
764752,001,2022-11-20_23h56.35.981,Info_measure_main_exp,2022.2.2,MacIntel,60.0024001,,,,,,,,,space,0.8969,,,,,,,,,,,,,,,,,,,,,,,,,,,,,,,,,,,,,,,,,,,,,,,,,,,,,,,,,,,,,,,,,,,,,,,,,,,,,,,,,,,,,,,,,,,,,,,,,,,,,
764752,001,2022-11-20_23h56.35.981,Info_measure_main_exp,2022.2.2,MacIntel,60.0024001,,,,,,,,,,,space,1.2266,,,,,,,,,,,,,,,,,,,,,,,,,,,,,,,,,,,,,,,,,,,,,,,,,,,,,,,,,,,,,,,,,,,,,,,,,,,,,,,,,,,,,,,,,,,,,,,,,,,
764752,001,2022-11-20_23h56.35.981,Info_measure_main_exp,2022.2.2,MacIntel,60.0024001,,,,,,,,,,,,,0,0,0,1,1,masks/mask_002.jpg,,,,,,,,,,,,,,,,,,,,,,,,,,,,,,,,,,,,,,,,,,,,,,,,,,,,,,,,,,,,,,,,,,,,,,,,,,,,,,,,,,,,,,,,,,,,,
764752,001,2022-11-20_23h56.35.981,Info_measure_main_exp,2022.2.2,MacIntel,60.0024001,,,,,,,,,,,,,0,1,1,4,1,masks/mask_005.jpg,,,,,,,,,,,,,,,,,,,,,,,,,,,,,,,,,,,,,,,,,,,,,,,,,,,,,,,,,,,,,,,,,,,,,,,,,,,,,,,,,,,,,,,,,,,,,
764752,001,2022-11-20_23h56.35.981,Info_measure_main_exp,2022.2.2,MacIntel,60.0024001,,,,,,,,,,,,,0,2,2,2,1,masks/mask_003.jpg,,,,,,,,,,,,,,,,,,,,,,,,,,,,,,,,,,,,,,,,,,,,,,,,,,,,,,,,,,,,,,,,,,,,,,,,,,,,,,,,,,,,,,,,,,,,,
764752,001,2022-11-20_23h56.35.981,Info_measure_main_exp,2022.2.2,MacIntel,60.0024001,,,,,,,,,,,,,0,3,3,3,1,masks/mask_004.jpg,,,,,,,,,,,,,,,,,,,,,,,,,,,,,,,,,,,,,,,,,,,,,,,,,,,,,,,,,,,,,,,,,,,,,,,,,,,,,,,,,,,,,,,,,,,,,
764752,001,2022-11-20_23h56.35.981,Info_measure_main_exp,2022.2.2,MacIntel,60.0024001,,,,,,,,,,,,,0,4,4,0,1,masks/mask_001.jpg,,,,,,,,,,,,,,,,,,,,,,,,,,,,,,,,,,,,,,,,,,,,,,,,,,,,,,,,,,,,,,,,,,,,,,,,,,,,,,,,,,,,,,,,,,,,,
764752,001,2022-11-20_23h56.35.981,Info_measure_main_exp,2022.2.2,MacIntel,60.0024001,,,,,,,,,,,,,,,,,,masks/mask_004.jpg,0,0,0,3,1,,,,,,,,,,,,,,,,,,,,,,,,,,,,,,,,,,,,,,,,,,,,,,,,,,,,,,,,,,,,,,,,,,,,,,,,,,,,,,,,,,,,,,,,
764752,001,2022-11-20_23h56.35.981,Info_measure_main_exp,2022.2.2,MacIntel,60.0024001,,,,,,,,,,,,,,,,,,masks/mask_002.jpg,0,1,1,1,1,,,,,,,,,,,,,,,,,,,,,,,,,,,,,,,,,,,,,,,,,,,,,,,,,,,,,,,,,,,,,,,,,,,,,,,,,,,,,,,,,,,,,,,,
764752,001,2022-11-20_23h56.35.981,Info_measure_main_exp,2022.2.2,MacIntel,60.0024001,,,,,,,,,,,,,,,,,,masks/mask_005.jpg,0,2,2,4,1,,,,,,,,,,,,,,,,,,,,,,,,,,,,,,,,,,,,,,,,,,,,,,,,,,,,,,,,,,,,,,,,,,,,,,,,,,,,,,,,,,,,,,,,
764752,001,2022-11-20_23h56.35.981,Info_measure_main_exp,2022.2.2,MacIntel,60.0024001,,,,,,,,,,,,,,,,,,masks/mask_003.jpg,0,3,3,2,1,,,,,,,,,,,,,,,,,,,,,,,,,,,,,,,,,,,,,,,,,,,,,,,,,,,,,,,,,,,,,,,,,,,,,,,,,,,,,,,,,,,,,,,,
764752,001,2022-11-20_23h56.35.981,Info_measure_main_exp,2022.2.2,MacIntel,60.0024001,,,,,,,,,,,,,,,,,,masks/mask_001.jpg,0,4,4,0,1,,,,,,,,,,,,,,,,,,,,,,,,,,,,,,,,,,,,,,,,,,,,,,,,,,,,,,,,,,,,,,,,,,,,,,,,,,,,,,,,,,,,,,,,
764752,001,2022-11-20_23h56.35.981,Info_measure_main_exp,2022.2.2,MacIntel,60.0024001,,,,,,,,,,,,,,,,,,,,,,,,-0.06968316,-0.092061632,1,0,0,response5disk,3,37.815,1,0.00390191,-0.007122396,1,0,0,center_square,0,0,0,0,1,0,131,5,5,2370,2406,prac_patch/patch0002370.jpg,prac_patch/patch0002406.jpg,,,,,,,,,,,,,,,,,,,,,,,,,,,,,,,,,,,,,,,,,,,,,,,,,,,,,,,,,,,,
764752,001,2022-11-20_23h56.35.981,Info_measure_main_exp,2022.2.2,MacIntel,60.0024001,,,,,,,,,,,,,0,0,0,2,1,masks/mask_003.jpg,,,,,,,,,,,,,,,,,,,,,,,,,,,,,,,,,,,,,,,,,,,,,,,,,,,,,,,,,,,,,,,,,,,,,,,,,,,,,,,,,,,,,,,,,,,,,
764752,001,2022-11-20_23h56.35.981,Info_measure_main_exp,2022.2.2,MacIntel,60.0024001,,,,,,,,,,,,,0,1,1,1,1,masks/mask_002.jpg,,,,,,,,,,,,,,,,,,,,,,,,,,,,,,,,,,,,,,,,,,,,,,,,,,,,,,,,,,,,,,,,,,,,,,,,,,,,,,,,,,,,,,,,,,,,,
764752,001,2022-11-20_23h56.35.981,Info_measure_main_exp,2022.2.2,MacIntel,60.0024001,,,,,,,,,,,,,0,2,2,0,1,masks/mask_001.jpg,,,,,,,,,,,,,,,,,,,,,,,,,,,,,,,,,,,,,,,,,,,,,,,,,,,,,,,,,,,,,,,,,,,,,,,,,,,,,,,,,,,,,,,,,,,,,
764752,001,2022-11-20_23h56.35.981,Info_measure_main_exp,2022.2.2,MacIntel,60.0024001,,,,,,,,,,,,,0,3,3,3,1,masks/mask_004.jpg,,,,,,,,,,,,,,,,,,,,,,,,,,,,,,,,,,,,,,,,,,,,,,,,,,,,,,,,,,,,,,,,,,,,,,,,,,,,,,,,,,,,,,,,,,,,,
764752,001,2022-11-20_23h56.35.981,Info_measure_main_exp,2022.2.2,MacIntel,60.0024001,,,,,,,,,,,,,0,4,4,4,1,masks/mask_005.jpg,,,,,,,,,,,,,,,,,,,,,,,,,,,,,,,,,,,,,,,,,,,,,,,,,,,,,,,,,,,,,,,,,,,,,,,,,,,,,,,,,,,,,,,,,,,,,
764752,001,2022-11-20_23h56.35.981,Info_measure_main_exp,2022.2.2,MacIntel,60.0024001,,,,,,,,,,,,,,,,,,masks/mask_005.jpg,0,0,0,4,1,,,,,,,,,,,,,,,,,,,,,,,,,,,,,,,,,,,,,,,,,,,,,,,,,,,,,,,,,,,,,,,,,,,,,,,,,,,,,,,,,,,,,,,,
764752,001,2022-11-20_23h56.35.981,Info_measure_main_exp,2022.2.2,MacIntel,60.0024001,,,,,,,,,,,,,,,,,,masks/mask_001.jpg,0,1,1,0,1,,,,,,,,,,,,,,,,,,,,,,,,,,,,,,,,,,,,,,,,,,,,,,,,,,,,,,,,,,,,,,,,,,,,,,,,,,,,,,,,,,,,,,,,
764752,001,2022-11-20_23h56.35.981,Info_measure_main_exp,2022.2.2,MacIntel,60.0024001,,,,,,,,,,,,,,,,,,masks/mask_004.jpg,0,2,2,3,1,,,,,,,,,,,,,,,,,,,,,,,,,,,,,,,,,,,,,,,,,,,,,,,,,,,,,,,,,,,,,,,,,,,,,,,,,,,,,,,,,,,,,,,,
764752,001,2022-11-20_23h56.35.981,Info_measure_main_exp,2022.2.2,MacIntel,60.0024001,,,,,,,,,,,,,,,,,,masks/mask_003.jpg,0,3,3,2,1,,,,,,,,,,,,,,,,,,,,,,,,,,,,,,,,,,,,,,,,,,,,,,,,,,,,,,,,,,,,,,,,,,,,,,,,,,,,,,,,,,,,,,,,
764752,001,2022-11-20_23h56.35.981,Info_measure_main_exp,2022.2.2,MacIntel,60.0024001,,,,,,,,,,,,,,,,,,masks/mask_002.jpg,0,4,4,1,1,,,,,,,,,,,,,,,,,,,,,,,,,,,,,,,,,,,,,,,,,,,,,,,,,,,,,,,,,,,,,,,,,,,,,,,,,,,,,,,,,,,,,,,,
764752,001,2022-11-20_23h56.35.981,Info_measure_main_exp,2022.2.2,MacIntel,60.0024001,,,,,,,,,,,,,,,,,,,,,,,,-0.036436632,-0.093741319,1,0,0,response5disk,3,52.731,1,0.002478299,0.008602431,1,0,0,center_square,0,1,1,2,1,0,131,5,5,2526,2526,prac_patch/patch0002526.jpg,prac_patch/patch0002526.jpg,,,,,,,,,,,,,,,,,,,,,,,,,,,,,,,,,,,,,,,,,,,,,,,,,,,,,,,,,,,,
764752,001,2022-11-20_23h56.35.981,Info_measure_main_exp,2022.2.2,MacIntel,60.0024001,,,,,,,,,,,,,0,0,0,2,1,masks/mask_003.jpg,,,,,,,,,,,,,,,,,,,,,,,,,,,,,,,,,,,,,,,,,,,,,,,,,,,,,,,,,,,,,,,,,,,,,,,,,,,,,,,,,,,,,,,,,,,,,
764752,001,2022-11-20_23h56.35.981,Info_measure_main_exp,2022.2.2,MacIntel,60.0024001,,,,,,,,,,,,,0,1,1,4,1,masks/mask_005.jpg,,,,,,,,,,,,,,,,,,,,,,,,,,,,,,,,,,,,,,,,,,,,,,,,,,,,,,,,,,,,,,,,,,,,,,,,,,,,,,,,,,,,,,,,,,,,,
764752,001,2022-11-20_23h56.35.981,Info_measure_main_exp,2022.2.2,MacIntel,60.0024001,,,,,,,,,,,,,0,2,2,0,1,masks/mask_001.jpg,,,,,,,,,,,,,,,,,,,,,,,,,,,,,,,,,,,,,,,,,,,,,,,,,,,,,,,,,,,,,,,,,,,,,,,,,,,,,,,,,,,,,,,,,,,,,
764752,001,2022-11-20_23h56.35.981,Info_measure_main_exp,2022.2.2,MacIntel,60.0024001,,,,,,,,,,,,,0,3,3,1,1,masks/mask_002.jpg,,,,,,,,,,,,,,,,,,,,,,,,,,,,,,,,,,,,,,,,,,,,,,,,,,,,,,,,,,,,,,,,,,,,,,,,,,,,,,,,,,,,,,,,,,,,,
764752,001,2022-11-20_23h56.35.981,Info_measure_main_exp,2022.2.2,MacIntel,60.0024001,,,,,,,,,,,,,0,4,4,3,1,masks/mask_004.jpg,,,,,,,,,,,,,,,,,,,,,,,,,,,,,,,,,,,,,,,,,,,,,,,,,,,,,,,,,,,,,,,,,,,,,,,,,,,,,,,,,,,,,,,,,,,,,
764752,001,2022-11-20_23h56.35.981,Info_measure_main_exp,2022.2.2,MacIntel,60.0024001,,,,,,,,,,,,,,,,,,masks/mask_001.jpg,0,0,0,0,1,,,,,,,,,,,,,,,,,,,,,,,,,,,,,,,,,,,,,,,,,,,,,,,,,,,,,,,,,,,,,,,,,,,,,,,,,,,,,,,,,,,,,,,,
764752,001,2022-11-20_23h56.35.981,Info_measure_main_exp,2022.2.2,MacIntel,60.0024001,,,,,,,,,,,,,,,,,,masks/mask_004.jpg,0,1,1,3,1,,,,,,,,,,,,,,,,,,,,,,,,,,,,,,,,,,,,,,,,,,,,,,,,,,,,,,,,,,,,,,,,,,,,,,,,,,,,,,,,,,,,,,,,
764752,001,2022-11-20_23h56.35.981,Info_measure_main_exp,2022.2.2,MacIntel,60.0024001,,,,,,,,,,,,,,,,,,masks/mask_005.jpg,0,2,2,4,1,,,,,,,,,,,,,,,,,,,,,,,,,,,,,,,,,,,,,,,,,,,,,,,,,,,,,,,,,,,,,,,,,,,,,,,,,,,,,,,,,,,,,,,,
764752,001,2022-11-20_23h56.35.981,Info_measure_main_exp,2022.2.2,MacIntel,60.0024001,,,,,,,,,,,,,,,,,,masks/mask_003.jpg,0,3,3,2,1,,,,,,,,,,,,,,,,,,,,,,,,,,,,,,,,,,,,,,,,,,,,,,,,,,,,,,,,,,,,,,,,,,,,,,,,,,,,,,,,,,,,,,,,
764752,001,2022-11-20_23h56.35.981,Info_measure_main_exp,2022.2.2,MacIntel,60.0024001,,,,,,,,,,,,,,,,,,masks/mask_002.jpg,0,4,4,1,1,,,,,,,,,,,,,,,,,,,,,,,,,,,,,,,,,,,,,,,,,,,,,,,,,,,,,,,,,,,,,,,,,,,,,,,,,,,,,,,,,,,,,,,,
764752,001,2022-11-20_23h56.35.981,Info_measure_main_exp,2022.2.2,MacIntel,60.0024001,,,,,,,,,,,,,,,,,,,,,,,,-0.093663194,-0.034136285,1,0,0,response5disk,2,63.3469,1,-0.00531684,0.003758681,1,0,0,center_square,0,2,2,1,1,0,131,5,5,2514,2490,prac_patch/patch0002514.jpg,prac_patch/patch0002490.jpg,,,,,,,,,,,,,,,,,,,,,,,,,,,,,,,,,,,,,,,,,,,,,,,,,,,,,,,,,,,,
764752,001,2022-11-20_23h56.35.981,Info_measure_main_exp,2022.2.2,MacIntel,60.0024001,,,,,,,,,,,,,,,,,,,,,,,,,,,,,,,,,,,,,,,,,,,,,,,,,,,,,,,,,,,space,2.4839,,,,,,,,,,,,,,,,,,,,,,,,,,,,,,,,,,,,,,,,,,,,,,,,,,,
764752,001,2022-11-20_23h56.35.981,Info_measure_main_exp,2022.2.2,MacIntel,60.0024001,,,,,,,,,,,,,,,,,,masks/mask_004.jpg,,,,,,,,,,,,,,,,,,,,,,,,,,,,,,,,,,,,,,,,,,,0,0,0,3,1,,,,,,,,,,,,,,,,,,,,,,,,,,,,,,,,,,,,,,,,,,,,,,
764752,001,2022-11-20_23h56.35.981,Info_measure_main_exp,2022.2.2,MacIntel,60.0024001,,,,,,,,,,,,,,,,,,masks/mask_005.jpg,,,,,,,,,,,,,,,,,,,,,,,,,,,,,,,,,,,,,,,,,,,0,1,1,4,1,,,,,,,,,,,,,,,,,,,,,,,,,,,,,,,,,,,,,,,,,,,,,,
764752,001,2022-11-20_23h56.35.981,Info_measure_main_exp,2022.2.2,MacIntel,60.0024001,,,,,,,,,,,,,,,,,,masks/mask_002.jpg,,,,,,,,,,,,,,,,,,,,,,,,,,,,,,,,,,,,,,,,,,,0,2,2,1,1,,,,,,,,,,,,,,,,,,,,,,,,,,,,,,,,,,,,,,,,,,,,,,
764752,001,2022-11-20_23h56.35.981,Info_measure_main_exp,2022.2.2,MacIntel,60.0024001,,,,,,,,,,,,,,,,,,masks/mask_001.jpg,,,,,,,,,,,,,,,,,,,,,,,,,,,,,,,,,,,,,,,,,,,0,3,3,0,1,,,,,,,,,,,,,,,,,,,,,,,,,,,,,,,,,,,,,,,,,,,,,,
764752,001,2022-11-20_23h56.35.981,Info_measure_main_exp,2022.2.2,MacIntel,60.0024001,,,,,,,,,,,,,,,,,,masks/mask_003.jpg,,,,,,,,,,,,,,,,,,,,,,,,,,,,,,,,,,,,,,,,,,,0,4,4,2,1,,,,,,,,,,,,,,,,,,,,,,,,,,,,,,,,,,,,,,,,,,,,,,
764752,001,2022-11-20_23h56.35.981,Info_measure_main_exp,2022.2.2,MacIntel,60.0024001,,,,,,,,,,,,,,,,,,masks/mask_005.jpg,,,,,,,,,,,,,,,,,,,,,,,,,,,,,,,,,,,,,,,,,,,,,,,,0,0,0,4,1,,,,,,,,,,,,,,,,,,,,,,,,,,,,,,,,,,,,,,,,,
764752,001,2022-11-20_23h56.35.981,Info_measure_main_exp,2022.2.2,MacIntel,60.0024001,,,,,,,,,,,,,,,,,,masks/mask_002.jpg,,,,,,,,,,,,,,,,,,,,,,,,,,,,,,,,,,,,,,,,,,,,,,,,0,1,1,1,1,,,,,,,,,,,,,,,,,,,,,,,,,,,,,,,,,,,,,,,,,
764752,001,2022-11-20_23h56.35.981,Info_measure_main_exp,2022.2.2,MacIntel,60.0024001,,,,,,,,,,,,,,,,,,masks/mask_003.jpg,,,,,,,,,,,,,,,,,,,,,,,,,,,,,,,,,,,,,,,,,,,,,,,,0,2,2,2,1,,,,,,,,,,,,,,,,,,,,,,,,,,,,,,,,,,,,,,,,,
764752,001,2022-11-20_23h56.35.981,Info_measure_main_exp,2022.2.2,MacIntel,60.0024001,,,,,,,,,,,,,,,,,,masks/mask_001.jpg,,,,,,,,,,,,,,,,,,,,,,,,,,,,,,,,,,,,,,,,,,,,,,,,0,3,3,0,1,,,,,,,,,,,,,,,,,,,,,,,,,,,,,,,,,,,,,,,,,
764752,001,2022-11-20_23h56.35.981,Info_measure_main_exp,2022.2.2,MacIntel,60.0024001,,,,,,,,,,,,,,,,,,masks/mask_004.jpg,,,,,,,,,,,,,,,,,,,,,,,,,,,,,,,,,,,,,,,,,,,,,,,,0,4,4,3,1,,,,,,,,,,,,,,,,,,,,,,,,,,,,,,,,,,,,,,,,,
764752,001,2022-11-20_23h56.35.981,Info_measure_main_exp,2022.2.2,MacIntel,60.0024001,,,,,,,,,,,,,,,,,,,,,,,,,,,,,,5,3.0321,1,,,,,,,,,,,,0,131,5,5,1950,2178,absent_patch/patch0001950.jpg,absent_patch/patch0002178.jpg,,,,,,,,,,,,,,,,,,,,0.189973958,-0.066258681,1,0,0,response3disk,1,0.008194444,-0.008177083,1,0,0,center_square,0,0,0,61,1,,,,,,,,,,,,,,,,,,,,,,,
764752,001,2022-11-20_23h56.35.981,Info_measure_main_exp,2022.2.2,MacIntel,60.0024001,,,,,,,,,,,,,,,,,,masks/mask_003.jpg,,,,,,,,,,,,,,,,,,,,,,,,,,,,,,,,,,,,,,,,,,,0,0,0,2,1,,,,,,,,,,,,,,,,,,,,,,,,,,,,,,,,,,,,,,,,,,,,,,
764752,001,2022-11-20_23h56.35.981,Info_measure_main_exp,2022.2.2,MacIntel,60.0024001,,,,,,,,,,,,,,,,,,masks/mask_004.jpg,,,,,,,,,,,,,,,,,,,,,,,,,,,,,,,,,,,,,,,,,,,0,1,1,3,1,,,,,,,,,,,,,,,,,,,,,,,,,,,,,,,,,,,,,,,,,,,,,,
764752,001,2022-11-20_23h56.35.981,Info_measure_main_exp,2022.2.2,MacIntel,60.0024001,,,,,,,,,,,,,,,,,,masks/mask_002.jpg,,,,,,,,,,,,,,,,,,,,,,,,,,,,,,,,,,,,,,,,,,,0,2,2,1,1,,,,,,,,,,,,,,,,,,,,,,,,,,,,,,,,,,,,,,,,,,,,,,
764752,001,2022-11-20_23h56.35.981,Info_measure_main_exp,2022.2.2,MacIntel,60.0024001,,,,,,,,,,,,,,,,,,masks/mask_001.jpg,,,,,,,,,,,,,,,,,,,,,,,,,,,,,,,,,,,,,,,,,,,0,3,3,0,1,,,,,,,,,,,,,,,,,,,,,,,,,,,,,,,,,,,,,,,,,,,,,,
764752,001,2022-11-20_23h56.35.981,Info_measure_main_exp,2022.2.2,MacIntel,60.0024001,,,,,,,,,,,,,,,,,,masks/mask_005.jpg,,,,,,,,,,,,,,,,,,,,,,,,,,,,,,,,,,,,,,,,,,,0,4,4,4,1,,,,,,,,,,,,,,,,,,,,,,,,,,,,,,,,,,,,,,,,,,,,,,
764752,001,2022-11-20_23h56.35.981,Info_measure_main_exp,2022.2.2,MacIntel,60.0024001,,,,,,,,,,,,,,,,,,masks/mask_002.jpg,,,,,,,,,,,,,,,,,,,,,,,,,,,,,,,,,,,,,,,,,,,,,,,,0,0,0,1,1,,,,,,,,,,,,,,,,,,,,,,,,,,,,,,,,,,,,,,,,,
764752,001,2022-11-20_23h56.35.981,Info_measure_main_exp,2022.2.2,MacIntel,60.0024001,,,,,,,,,,,,,,,,,,masks/mask_004.jpg,,,,,,,,,,,,,,,,,,,,,,,,,,,,,,,,,,,,,,,,,,,,,,,,0,1,1,3,1,,,,,,,,,,,,,,,,,,,,,,,,,,,,,,,,,,,,,,,,,
764752,001,2022-11-20_23h56.35.981,Info_measure_main_exp,2022.2.2,MacIntel,60.0024001,,,,,,,,,,,,,,,,,,masks/mask_005.jpg,,,,,,,,,,,,,,,,,,,,,,,,,,,,,,,,,,,,,,,,,,,,,,,,0,2,2,4,1,,,,,,,,,,,,,,,,,,,,,,,,,,,,,,,,,,,,,,,,,
764752,001,2022-11-20_23h56.35.981,Info_measure_main_exp,2022.2.2,MacIntel,60.0024001,,,,,,,,,,,,,,,,,,masks/mask_003.jpg,,,,,,,,,,,,,,,,,,,,,,,,,,,,,,,,,,,,,,,,,,,,,,,,0,3,3,2,1,,,,,,,,,,,,,,,,,,,,,,,,,,,,,,,,,,,,,,,,,
764752,001,2022-11-20_23h56.35.981,Info_measure_main_exp,2022.2.2,MacIntel,60.0024001,,,,,,,,,,,,,,,,,,masks/mask_001.jpg,,,,,,,,,,,,,,,,,,,,,,,,,,,,,,,,,,,,,,,,,,,,,,,,0,4,4,0,1,,,,,,,,,,,,,,,,,,,,,,,,,,,,,,,,,,,,,,,,,
764752,001,2022-11-20_23h56.35.981,Info_measure_main_exp,2022.2.2,MacIntel,60.0024001,,,,,,,,,,,,,,,,,,,,,,,,,,,,,,7,1.1505,1,,,,,,,,,,,,0,131,5,5,1950,2298,absent_patch/patch0001950.jpg,absent_patch/patch0002298.jpg,,,,,,,,,,,,,,,,,,,,0.056940104,0.106792535,1,0,0,response1disk,2,0.00016059,-0.007100694,1,0,0,center_square,0,1,1,18,1,,,,,,,,,,,,,,,,,,,,,,,
764752,001,2022-11-20_23h56.35.981,Info_measure_main_exp,2022.2.2,MacIntel,60.0024001,,,,,,,,,,,,,,,,,,masks/mask_005.jpg,,,,,,,,,,,,,,,,,,,,,,,,,,,,,,,,,,,,,,,,,,,0,0,0,4,1,,,,,,,,,,,,,,,,,,,,,,,,,,,,,,,,,,,,,,,,,,,,,,
764752,001,2022-11-20_23h56.35.981,Info_measure_main_exp,2022.2.2,MacIntel,60.0024001,,,,,,,,,,,,,,,,,,masks/mask_004.jpg,,,,,,,,,,,,,,,,,,,,,,,,,,,,,,,,,,,,,,,,,,,0,1,1,3,1,,,,,,,,,,,,,,,,,,,,,,,,,,,,,,,,,,,,,,,,,,,,,,
764752,001,2022-11-20_23h56.35.981,Info_measure_main_exp,2022.2.2,MacIntel,60.0024001,,,,,,,,,,,,,,,,,,masks/mask_002.jpg,,,,,,,,,,,,,,,,,,,,,,,,,,,,,,,,,,,,,,,,,,,0,2,2,1,1,,,,,,,,,,,,,,,,,,,,,,,,,,,,,,,,,,,,,,,,,,,,,,
764752,001,2022-11-20_23h56.35.981,Info_measure_main_exp,2022.2.2,MacIntel,60.0024001,,,,,,,,,,,,,,,,,,masks/mask_001.jpg,,,,,,,,,,,,,,,,,,,,,,,,,,,,,,,,,,,,,,,,,,,0,3,3,0,1,,,,,,,,,,,,,,,,,,,,,,,,,,,,,,,,,,,,,,,,,,,,,,
764752,001,2022-11-20_23h56.35.981,Info_measure_main_exp,2022.2.2,MacIntel,60.0024001,,,,,,,,,,,,,,,,,,masks/mask_003.jpg,,,,,,,,,,,,,,,,,,,,,,,,,,,,,,,,,,,,,,,,,,,0,4,4,2,1,,,,,,,,,,,,,,,,,,,,,,,,,,,,,,,,,,,,,,,,,,,,,,
764752,001,2022-11-20_23h56.35.981,Info_measure_main_exp,2022.2.2,MacIntel,60.0024001,,,,,,,,,,,,,,,,,,masks/mask_002.jpg,,,,,,,,,,,,,,,,,,,,,,,,,,,,,,,,,,,,,,,,,,,,,,,,0,0,0,1,1,,,,,,,,,,,,,,,,,,,,,,,,,,,,,,,,,,,,,,,,,
764752,001,2022-11-20_23h56.35.981,Info_measure_main_exp,2022.2.2,MacIntel,60.0024001,,,,,,,,,,,,,,,,,,masks/mask_005.jpg,,,,,,,,,,,,,,,,,,,,,,,,,,,,,,,,,,,,,,,,,,,,,,,,0,1,1,4,1,,,,,,,,,,,,,,,,,,,,,,,,,,,,,,,,,,,,,,,,,
764752,001,2022-11-20_23h56.35.981,Info_measure_main_exp,2022.2.2,MacIntel,60.0024001,,,,,,,,,,,,,,,,,,masks/mask_004.jpg,,,,,,,,,,,,,,,,,,,,,,,,,,,,,,,,,,,,,,,,,,,,,,,,0,2,2,3,1,,,,,,,,,,,,,,,,,,,,,,,,,,,,,,,,,,,,,,,,,
764752,001,2022-11-20_23h56.35.981,Info_measure_main_exp,2022.2.2,MacIntel,60.0024001,,,,,,,,,,,,,,,,,,masks/mask_001.jpg,,,,,,,,,,,,,,,,,,,,,,,,,,,,,,,,,,,,,,,,,,,,,,,,0,3,3,0,1,,,,,,,,,,,,,,,,,,,,,,,,,,,,,,,,,,,,,,,,,
764752,001,2022-11-20_23h56.35.981,Info_measure_main_exp,2022.2.2,MacIntel,60.0024001,,,,,,,,,,,,,,,,,,masks/mask_003.jpg,,,,,,,,,,,,,,,,,,,,,,,,,,,,,,,,,,,,,,,,,,,,,,,,0,4,4,2,1,,,,,,,,,,,,,,,,,,,,,,,,,,,,,,,,,,,,,,,,,
764752,001,2022-11-20_23h56.35.981,Info_measure_main_exp,2022.2.2,MacIntel,60.0024001,,,,,,,,,,,,,,,,,,,,,,,,,,,,,,3,1.7664,1,,,,,,,,,,,,0,131,5,5,1986,2274,absent_patch/patch0001986.jpg,absent_patch/patch0002274.jpg,,,,,,,,,,,,,,,,,,,,-0.019097222,-0.072760417,1,0,0,response5disk,3,-0.00077691,0.003472222,1,0,0,center_square,0,2,2,7,1,,,,,,,,,,,,,,,,,,,,,,,
764752,001,2022-11-20_23h56.35.981,Info_measure_main_exp,2022.2.2,MacIntel,60.0024001,,,,,,,,,,,,,,,,,,masks/mask_002.jpg,,,,,,,,,,,,,,,,,,,,,,,,,,,,,,,,,,,,,,,,,,,0,0,0,1,1,,,,,,,,,,,,,,,,,,,,,,,,,,,,,,,,,,,,,,,,,,,,,,
764752,001,2022-11-20_23h56.35.981,Info_measure_main_exp,2022.2.2,MacIntel,60.0024001,,,,,,,,,,,,,,,,,,masks/mask_004.jpg,,,,,,,,,,,,,,,,,,,,,,,,,,,,,,,,,,,,,,,,,,,0,1,1,3,1,,,,,,,,,,,,,,,,,,,,,,,,,,,,,,,,,,,,,,,,,,,,,,
764752,001,2022-11-20_23h56.35.981,Info_measure_main_exp,2022.2.2,MacIntel,60.0024001,,,,,,,,,,,,,,,,,,masks/mask_005.jpg,,,,,,,,,,,,,,,,,,,,,,,,,,,,,,,,,,,,,,,,,,,0,2,2,4,1,,,,,,,,,,,,,,,,,,,,,,,,,,,,,,,,,,,,,,,,,,,,,,
764752,001,2022-11-20_23h56.35.981,Info_measure_main_exp,2022.2.2,MacIntel,60.0024001,,,,,,,,,,,,,,,,,,masks/mask_003.jpg,,,,,,,,,,,,,,,,,,,,,,,,,,,,,,,,,,,,,,,,,,,0,3,3,2,1,,,,,,,,,,,,,,,,,,,,,,,,,,,,,,,,,,,,,,,,,,,,,,
764752,001,2022-11-20_23h56.35.981,Info_measure_main_exp,2022.2.2,MacIntel,60.0024001,,,,,,,,,,,,,,,,,,masks/mask_001.jpg,,,,,,,,,,,,,,,,,,,,,,,,,,,,,,,,,,,,,,,,,,,0,4,4,0,1,,,,,,,,,,,,,,,,,,,,,,,,,,,,,,,,,,,,,,,,,,,,,,
764752,001,2022-11-20_23h56.35.981,Info_measure_main_exp,2022.2.2,MacIntel,60.0024001,,,,,,,,,,,,,,,,,,masks/mask_003.jpg,,,,,,,,,,,,,,,,,,,,,,,,,,,,,,,,,,,,,,,,,,,,,,,,0,0,0,2,1,,,,,,,,,,,,,,,,,,,,,,,,,,,,,,,,,,,,,,,,,
764752,001,2022-11-20_23h56.35.981,Info_measure_main_exp,2022.2.2,MacIntel,60.0024001,,,,,,,,,,,,,,,,,,masks/mask_002.jpg,,,,,,,,,,,,,,,,,,,,,,,,,,,,,,,,,,,,,,,,,,,,,,,,0,1,1,1,1,,,,,,,,,,,,,,,,,,,,,,,,,,,,,,,,,,,,,,,,,
764752,001,2022-11-20_23h56.35.981,Info_measure_main_exp,2022.2.2,MacIntel,60.0024001,,,,,,,,,,,,,,,,,,masks/mask_004.jpg,,,,,,,,,,,,,,,,,,,,,,,,,,,,,,,,,,,,,,,,,,,,,,,,0,2,2,3,1,,,,,,,,,,,,,,,,,,,,,,,,,,,,,,,,,,,,,,,,,
764752,001,2022-11-20_23h56.35.981,Info_measure_main_exp,2022.2.2,MacIntel,60.0024001,,,,,,,,,,,,,,,,,,masks/mask_001.jpg,,,,,,,,,,,,,,,,,,,,,,,,,,,,,,,,,,,,,,,,,,,,,,,,0,3,3,0,1,,,,,,,,,,,,,,,,,,,,,,,,,,,,,,,,,,,,,,,,,
764752,001,2022-11-20_23h56.35.981,Info_measure_main_exp,2022.2.2,MacIntel,60.0024001,,,,,,,,,,,,,,,,,,masks/mask_005.jpg,,,,,,,,,,,,,,,,,,,,,,,,,,,,,,,,,,,,,,,,,,,,,,,,0,4,4,4,1,,,,,,,,,,,,,,,,,,,,,,,,,,,,,,,,,,,,,,,,,
764752,001,2022-11-20_23h56.35.981,Info_measure_main_exp,2022.2.2,MacIntel,60.0024001,,,,,,,,,,,,,,,,,,,,,,,,,,,,,,1,2.5829,1,,,,,,,,,,,,0,131,5,5,2298,2214,absent_patch/patch0002298.jpg,absent_patch/patch0002214.jpg,,,,,,,,,,,,,,,,,,,,-0.131063368,0.014761285,1,0,0,response7disk,4,-0.002296007,-0.002083333,1,0,0,center_square,0,3,3,99,1,,,,,,,,,,,,,,,,,,,,,,,
764752,001,2022-11-20_23h56.35.981,Info_measure_main_exp,2022.2.2,MacIntel,60.0024001,,,,,,,,,,,,,,,,,,masks/mask_002.jpg,,,,,,,,,,,,,,,,,,,,,,,,,,,,,,,,,,,,,,,,,,,0,0,0,1,1,,,,,,,,,,,,,,,,,,,,,,,,,,,,,,,,,,,,,,,,,,,,,,
764752,001,2022-11-20_23h56.35.981,Info_measure_main_exp,2022.2.2,MacIntel,60.0024001,,,,,,,,,,,,,,,,,,masks/mask_004.jpg,,,,,,,,,,,,,,,,,,,,,,,,,,,,,,,,,,,,,,,,,,,0,1,1,3,1,,,,,,,,,,,,,,,,,,,,,,,,,,,,,,,,,,,,,,,,,,,,,,
764752,001,2022-11-20_23h56.35.981,Info_measure_main_exp,2022.2.2,MacIntel,60.0024001,,,,,,,,,,,,,,,,,,masks/mask_001.jpg,,,,,,,,,,,,,,,,,,,,,,,,,,,,,,,,,,,,,,,,,,,0,2,2,0,1,,,,,,,,,,,,,,,,,,,,,,,,,,,,,,,,,,,,,,,,,,,,,,
764752,001,2022-11-20_23h56.35.981,Info_measure_main_exp,2022.2.2,MacIntel,60.0024001,,,,,,,,,,,,,,,,,,masks/mask_003.jpg,,,,,,,,,,,,,,,,,,,,,,,,,,,,,,,,,,,,,,,,,,,0,3,3,2,1,,,,,,,,,,,,,,,,,,,,,,,,,,,,,,,,,,,,,,,,,,,,,,
764752,001,2022-11-20_23h56.35.981,Info_measure_main_exp,2022.2.2,MacIntel,60.0024001,,,,,,,,,,,,,,,,,,masks/mask_005.jpg,,,,,,,,,,,,,,,,,,,,,,,,,,,,,,,,,,,,,,,,,,,0,4,4,4,1,,,,,,,,,,,,,,,,,,,,,,,,,,,,,,,,,,,,,,,,,,,,,,
764752,001,2022-11-20_23h56.35.981,Info_measure_main_exp,2022.2.2,MacIntel,60.0024001,,,,,,,,,,,,,,,,,,masks/mask_005.jpg,,,,,,,,,,,,,,,,,,,,,,,,,,,,,,,,,,,,,,,,,,,,,,,,0,0,0,4,1,,,,,,,,,,,,,,,,,,,,,,,,,,,,,,,,,,,,,,,,,
764752,001,2022-11-20_23h56.35.981,Info_measure_main_exp,2022.2.2,MacIntel,60.0024001,,,,,,,,,,,,,,,,,,masks/mask_001.jpg,,,,,,,,,,,,,,,,,,,,,,,,,,,,,,,,,,,,,,,,,,,,,,,,0,1,1,0,1,,,,,,,,,,,,,,,,,,,,,,,,,,,,,,,,,,,,,,,,,
764752,001,2022-11-20_23h56.35.981,Info_measure_main_exp,2022.2.2,MacIntel,60.0024001,,,,,,,,,,,,,,,,,,masks/mask_003.jpg,,,,,,,,,,,,,,,,,,,,,,,,,,,,,,,,,,,,,,,,,,,,,,,,0,2,2,2,1,,,,,,,,,,,,,,,,,,,,,,,,,,,,,,,,,,,,,,,,,
764752,001,2022-11-20_23h56.35.981,Info_measure_main_exp,2022.2.2,MacIntel,60.0024001,,,,,,,,,,,,,,,,,,masks/mask_004.jpg,,,,,,,,,,,,,,,,,,,,,,,,,,,,,,,,,,,,,,,,,,,,,,,,0,3,3,3,1,,,,,,,,,,,,,,,,,,,,,,,,,,,,,,,,,,,,,,,,,
764752,001,2022-11-20_23h56.35.981,Info_measure_main_exp,2022.2.2,MacIntel,60.0024001,,,,,,,,,,,,,,,,,,masks/mask_002.jpg,,,,,,,,,,,,,,,,,,,,,,,,,,,,,,,,,,,,,,,,,,,,,,,,0,4,4,1,1,,,,,,,,,,,,,,,,,,,,,,,,,,,,,,,,,,,,,,,,,
764752,001,2022-11-20_23h56.35.981,Info_measure_main_exp,2022.2.2,MacIntel,60.0024001,,,,,,,,,,,,,,,,,,,,,,,,,,,,,,6,3.1163,1,,,,,,,,,,,,0,131,5,5,1950,2082,absent_patch/patch0001950.jpg,absent_patch/patch0002082.jpg,,,,,,,,,,,,,,,,,,,,0.100065104,0.042200521,1,0,0,response1disk,5,0.01062066,-0.006727431,1,0,0,center_square,0,4,4,12,1,,,,,,,,,,,,,,,,,,,,,,,
764752,001,2022-11-20_23h56.35.981,Info_measure_main_exp,2022.2.2,MacIntel,60.0024001,,,,,,,,,,,,,,,,,,masks/mask_002.jpg,,,,,,,,,,,,,,,,,,,,,,,,,,,,,,,,,,,,,,,,,,,0,0,0,1,1,,,,,,,,,,,,,,,,,,,,,,,,,,,,,,,,,,,,,,,,,,,,,,
764752,001,2022-11-20_23h56.35.981,Info_measure_main_exp,2022.2.2,MacIntel,60.0024001,,,,,,,,,,,,,,,,,,masks/mask_005.jpg,,,,,,,,,,,,,,,,,,,,,,,,,,,,,,,,,,,,,,,,,,,0,1,1,4,1,,,,,,,,,,,,,,,,,,,,,,,,,,,,,,,,,,,,,,,,,,,,,,
764752,001,2022-11-20_23h56.35.981,Info_measure_main_exp,2022.2.2,MacIntel,60.0024001,,,,,,,,,,,,,,,,,,masks/mask_004.jpg,,,,,,,,,,,,,,,,,,,,,,,,,,,,,,,,,,,,,,,,,,,0,2,2,3,1,,,,,,,,,,,,,,,,,,,,,,,,,,,,,,,,,,,,,,,,,,,,,,
764752,001,2022-11-20_23h56.35.981,Info_measure_main_exp,2022.2.2,MacIntel,60.0024001,,,,,,,,,,,,,,,,,,masks/mask_003.jpg,,,,,,,,,,,,,,,,,,,,,,,,,,,,,,,,,,,,,,,,,,,0,3,3,2,1,,,,,,,,,,,,,,,,,,,,,,,,,,,,,,,,,,,,,,,,,,,,,,
764752,001,2022-11-20_23h56.35.981,Info_measure_main_exp,2022.2.2,MacIntel,60.0024001,,,,,,,,,,,,,,,,,,masks/mask_001.jpg,,,,,,,,,,,,,,,,,,,,,,,,,,,,,,,,,,,,,,,,,,,0,4,4,0,1,,,,,,,,,,,,,,,,,,,,,,,,,,,,,,,,,,,,,,,,,,,,,,
764752,001,2022-11-20_23h56.35.981,Info_measure_main_exp,2022.2.2,MacIntel,60.0024001,,,,,,,,,,,,,,,,,,masks/mask_002.jpg,,,,,,,,,,,,,,,,,,,,,,,,,,,,,,,,,,,,,,,,,,,,,,,,0,0,0,1,1,,,,,,,,,,,,,,,,,,,,,,,,,,,,,,,,,,,,,,,,,
764752,001,2022-11-20_23h56.35.981,Info_measure_main_exp,2022.2.2,MacIntel,60.0024001,,,,,,,,,,,,,,,,,,masks/mask_005.jpg,,,,,,,,,,,,,,,,,,,,,,,,,,,,,,,,,,,,,,,,,,,,,,,,0,1,1,4,1,,,,,,,,,,,,,,,,,,,,,,,,,,,,,,,,,,,,,,,,,
764752,001,2022-11-20_23h56.35.981,Info_measure_main_exp,2022.2.2,MacIntel,60.0024001,,,,,,,,,,,,,,,,,,masks/mask_004.jpg,,,,,,,,,,,,,,,,,,,,,,,,,,,,,,,,,,,,,,,,,,,,,,,,0,2,2,3,1,,,,,,,,,,,,,,,,,,,,,,,,,,,,,,,,,,,,,,,,,
764752,001,2022-11-20_23h56.35.981,Info_measure_main_exp,2022.2.2,MacIntel,60.0024001,,,,,,,,,,,,,,,,,,masks/mask_001.jpg,,,,,,,,,,,,,,,,,,,,,,,,,,,,,,,,,,,,,,,,,,,,,,,,0,3,3,0,1,,,,,,,,,,,,,,,,,,,,,,,,,,,,,,,,,,,,,,,,,
764752,001,2022-11-20_23h56.35.981,Info_measure_main_exp,2022.2.2,MacIntel,60.0024001,,,,,,,,,,,,,,,,,,masks/mask_003.jpg,,,,,,,,,,,,,,,,,,,,,,,,,,,,,,,,,,,,,,,,,,,,,,,,0,4,4,2,1,,,,,,,,,,,,,,,,,,,,,,,,,,,,,,,,,,,,,,,,,
764752,001,2022-11-20_23h56.35.981,Info_measure_main_exp,2022.2.2,MacIntel,60.0024001,,,,,,,,,,,,,,,,,,,,,,,,,,,,,,7,1.4332,1,,,,,,,,,,,,0,131,5,5,2190,2238,absent_patch/patch0002190.jpg,absent_patch/patch0002238.jpg,,,,,,,,,,,,,,,,,,,,0.042048611,0.078550347,1,0,0,response1disk,6,0.004266493,-0.004618056,1,0,0,center_square,0,5,5,53,1,,,,,,,,,,,,,,,,,,,,,,,
764752,001,2022-11-20_23h56.35.981,Info_measure_main_exp,2022.2.2,MacIntel,60.0024001,,,,,,,,,,,,,,,,,,masks/mask_005.jpg,,,,,,,,,,,,,,,,,,,,,,,,,,,,,,,,,,,,,,,,,,,0,0,0,4,1,,,,,,,,,,,,,,,,,,,,,,,,,,,,,,,,,,,,,,,,,,,,,,
764752,001,2022-11-20_23h56.35.981,Info_measure_main_exp,2022.2.2,MacIntel,60.0024001,,,,,,,,,,,,,,,,,,masks/mask_002.jpg,,,,,,,,,,,,,,,,,,,,,,,,,,,,,,,,,,,,,,,,,,,0,1,1,1,1,,,,,,,,,,,,,,,,,,,,,,,,,,,,,,,,,,,,,,,,,,,,,,
764752,001,2022-11-20_23h56.35.981,Info_measure_main_exp,2022.2.2,MacIntel,60.0024001,,,,,,,,,,,,,,,,,,masks/mask_004.jpg,,,,,,,,,,,,,,,,,,,,,,,,,,,,,,,,,,,,,,,,,,,0,2,2,3,1,,,,,,,,,,,,,,,,,,,,,,,,,,,,,,,,,,,,,,,,,,,,,,
764752,001,2022-11-20_23h56.35.981,Info_measure_main_exp,2022.2.2,MacIntel,60.0024001,,,,,,,,,,,,,,,,,,masks/mask_001.jpg,,,,,,,,,,,,,,,,,,,,,,,,,,,,,,,,,,,,,,,,,,,0,3,3,0,1,,,,,,,,,,,,,,,,,,,,,,,,,,,,,,,,,,,,,,,,,,,,,,
764752,001,2022-11-20_23h56.35.981,Info_measure_main_exp,2022.2.2,MacIntel,60.0024001,,,,,,,,,,,,,,,,,,masks/mask_003.jpg,,,,,,,,,,,,,,,,,,,,,,,,,,,,,,,,,,,,,,,,,,,0,4,4,2,1,,,,,,,,,,,,,,,,,,,,,,,,,,,,,,,,,,,,,,,,,,,,,,
764752,001,2022-11-20_23h56.35.981,Info_measure_main_exp,2022.2.2,MacIntel,60.0024001,,,,,,,,,,,,,,,,,,masks/mask_004.jpg,,,,,,,,,,,,,,,,,,,,,,,,,,,,,,,,,,,,,,,,,,,,,,,,0,0,0,3,1,,,,,,,,,,,,,,,,,,,,,,,,,,,,,,,,,,,,,,,,,
764752,001,2022-11-20_23h56.35.981,Info_measure_main_exp,2022.2.2,MacIntel,60.0024001,,,,,,,,,,,,,,,,,,masks/mask_002.jpg,,,,,,,,,,,,,,,,,,,,,,,,,,,,,,,,,,,,,,,,,,,,,,,,0,1,1,1,1,,,,,,,,,,,,,,,,,,,,,,,,,,,,,,,,,,,,,,,,,
764752,001,2022-11-20_23h56.35.981,Info_measure_main_exp,2022.2.2,MacIntel,60.0024001,,,,,,,,,,,,,,,,,,masks/mask_005.jpg,,,,,,,,,,,,,,,,,,,,,,,,,,,,,,,,,,,,,,,,,,,,,,,,0,2,2,4,1,,,,,,,,,,,,,,,,,,,,,,,,,,,,,,,,,,,,,,,,,
764752,001,2022-11-20_23h56.35.981,Info_measure_main_exp,2022.2.2,MacIntel,60.0024001,,,,,,,,,,,,,,,,,,masks/mask_003.jpg,,,,,,,,,,,,,,,,,,,,,,,,,,,,,,,,,,,,,,,,,,,,,,,,0,3,3,2,1,,,,,,,,,,,,,,,,,,,,,,,,,,,,,,,,,,,,,,,,,
764752,001,2022-11-20_23h56.35.981,Info_measure_main_exp,2022.2.2,MacIntel,60.0024001,,,,,,,,,,,,,,,,,,masks/mask_001.jpg,,,,,,,,,,,,,,,,,,,,,,,,,,,,,,,,,,,,,,,,,,,,,,,,0,4,4,0,1,,,,,,,,,,,,,,,,,,,,,,,,,,,,,,,,,,,,,,,,,
764752,001,2022-11-20_23h56.35.981,Info_measure_main_exp,2022.2.2,MacIntel,60.0024001,,,,,,,,,,,,,,,,,,,,,,,,,,,,,,1,1.9826,1,,,,,,,,,,,,0,131,5,5,2274,2154,absent_patch/patch0002274.jpg,absent_patch/patch0002154.jpg,,,,,,,,,,,,,,,,,,,,-0.074878472,0.064392361,1,0,0,response7disk,7,-0.001050347,0.008763021,1,0,0,center_square,0,6,6,23,1,,,,,,,,,,,,,,,,,,,,,,,
764752,001,2022-11-20_23h56.35.981,Info_measure_main_exp,2022.2.2,MacIntel,60.0024001,,,,,,,,,,,,,,,,,,masks/mask_003.jpg,,,,,,,,,,,,,,,,,,,,,,,,,,,,,,,,,,,,,,,,,,,0,0,0,2,1,,,,,,,,,,,,,,,,,,,,,,,,,,,,,,,,,,,,,,,,,,,,,,
764752,001,2022-11-20_23h56.35.981,Info_measure_main_exp,2022.2.2,MacIntel,60.0024001,,,,,,,,,,,,,,,,,,masks/mask_001.jpg,,,,,,,,,,,,,,,,,,,,,,,,,,,,,,,,,,,,,,,,,,,0,1,1,0,1,,,,,,,,,,,,,,,,,,,,,,,,,,,,,,,,,,,,,,,,,,,,,,
764752,001,2022-11-20_23h56.35.981,Info_measure_main_exp,2022.2.2,MacIntel,60.0024001,,,,,,,,,,,,,,,,,,masks/mask_002.jpg,,,,,,,,,,,,,,,,,,,,,,,,,,,,,,,,,,,,,,,,,,,0,2,2,1,1,,,,,,,,,,,,,,,,,,,,,,,,,,,,,,,,,,,,,,,,,,,,,,
764752,001,2022-11-20_23h56.35.981,Info_measure_main_exp,2022.2.2,MacIntel,60.0024001,,,,,,,,,,,,,,,,,,masks/mask_005.jpg,,,,,,,,,,,,,,,,,,,,,,,,,,,,,,,,,,,,,,,,,,,0,3,3,4,1,,,,,,,,,,,,,,,,,,,,,,,,,,,,,,,,,,,,,,,,,,,,,,
764752,001,2022-11-20_23h56.35.981,Info_measure_main_exp,2022.2.2,MacIntel,60.0024001,,,,,,,,,,,,,,,,,,masks/mask_004.jpg,,,,,,,,,,,,,,,,,,,,,,,,,,,,,,,,,,,,,,,,,,,0,4,4,3,1,,,,,,,,,,,,,,,,,,,,,,,,,,,,,,,,,,,,,,,,,,,,,,
764752,001,2022-11-20_23h56.35.981,Info_measure_main_exp,2022.2.2,MacIntel,60.0024001,,,,,,,,,,,,,,,,,,masks/mask_002.jpg,,,,,,,,,,,,,,,,,,,,,,,,,,,,,,,,,,,,,,,,,,,,,,,,0,0,0,1,1,,,,,,,,,,,,,,,,,,,,,,,,,,,,,,,,,,,,,,,,,
764752,001,2022-11-20_23h56.35.981,Info_measure_main_exp,2022.2.2,MacIntel,60.0024001,,,,,,,,,,,,,,,,,,masks/mask_004.jpg,,,,,,,,,,,,,,,,,,,,,,,,,,,,,,,,,,,,,,,,,,,,,,,,0,1,1,3,1,,,,,,,,,,,,,,,,,,,,,,,,,,,,,,,,,,,,,,,,,
764752,001,2022-11-20_23h56.35.981,Info_measure_main_exp,2022.2.2,MacIntel,60.0024001,,,,,,,,,,,,,,,,,,masks/mask_005.jpg,,,,,,,,,,,,,,,,,,,,,,,,,,,,,,,,,,,,,,,,,,,,,,,,0,2,2,4,1,,,,,,,,,,,,,,,,,,,,,,,,,,,,,,,,,,,,,,,,,
764752,001,2022-11-20_23h56.35.981,Info_measure_main_exp,2022.2.2,MacIntel,60.0024001,,,,,,,,,,,,,,,,,,masks/mask_001.jpg,,,,,,,,,,,,,,,,,,,,,,,,,,,,,,,,,,,,,,,,,,,,,,,,0,3,3,0,1,,,,,,,,,,,,,,,,,,,,,,,,,,,,,,,,,,,,,,,,,
764752,001,2022-11-20_23h56.35.981,Info_measure_main_exp,2022.2.2,MacIntel,60.0024001,,,,,,,,,,,,,,,,,,masks/mask_003.jpg,,,,,,,,,,,,,,,,,,,,,,,,,,,,,,,,,,,,,,,,,,,,,,,,0,4,4,2,1,,,,,,,,,,,,,,,,,,,,,,,,,,,,,,,,,,,,,,,,,
764752,001,2022-11-20_23h56.35.981,Info_measure_main_exp,2022.2.2,MacIntel,60.0024001,,,,,,,,,,,,,,,,,,,,,,,,,,,,,,3,3.2012,1,,,,,,,,,,,,0,131,5,5,2250,2142,absent_patch/patch0002250.jpg,absent_patch/patch0002142.jpg,,,,,,,,,,,,,,,,,,,,-0.016011285,-0.056315104,1,0,0,response5disk,8,-0.000394965,0.008428819,1,0,0,center_square,0,7,7,71,1,,,,,,,,,,,,,,,,,,,,,,,
764752,001,2022-11-20_23h56.35.981,Info_measure_main_exp,2022.2.2,MacIntel,60.0024001,,,,,,,,,,,,,,,,,,masks/mask_002.jpg,,,,,,,,,,,,,,,,,,,,,,,,,,,,,,,,,,,,,,,,,,,0,0,0,1,1,,,,,,,,,,,,,,,,,,,,,,,,,,,,,,,,,,,,,,,,,,,,,,
764752,001,2022-11-20_23h56.35.981,Info_measure_main_exp,2022.2.2,MacIntel,60.0024001,,,,,,,,,,,,,,,,,,masks/mask_004.jpg,,,,,,,,,,,,,,,,,,,,,,,,,,,,,,,,,,,,,,,,,,,0,1,1,3,1,,,,,,,,,,,,,,,,,,,,,,,,,,,,,,,,,,,,,,,,,,,,,,
764752,001,2022-11-20_23h56.35.981,Info_measure_main_exp,2022.2.2,MacIntel,60.0024001,,,,,,,,,,,,,,,,,,masks/mask_005.jpg,,,,,,,,,,,,,,,,,,,,,,,,,,,,,,,,,,,,,,,,,,,0,2,2,4,1,,,,,,,,,,,,,,,,,,,,,,,,,,,,,,,,,,,,,,,,,,,,,,
764752,001,2022-11-20_23h56.35.981,Info_measure_main_exp,2022.2.2,MacIntel,60.0024001,,,,,,,,,,,,,,,,,,masks/mask_003.jpg,,,,,,,,,,,,,,,,,,,,,,,,,,,,,,,,,,,,,,,,,,,0,3,3,2,1,,,,,,,,,,,,,,,,,,,,,,,,,,,,,,,,,,,,,,,,,,,,,,
764752,001,2022-11-20_23h56.35.981,Info_measure_main_exp,2022.2.2,MacIntel,60.0024001,,,,,,,,,,,,,,,,,,masks/mask_001.jpg,,,,,,,,,,,,,,,,,,,,,,,,,,,,,,,,,,,,,,,,,,,0,4,4,0,1,,,,,,,,,,,,,,,,,,,,,,,,,,,,,,,,,,,,,,,,,,,,,,
764752,001,2022-11-20_23h56.35.981,Info_measure_main_exp,2022.2.2,MacIntel,60.0024001,,,,,,,,,,,,,,,,,,masks/mask_002.jpg,,,,,,,,,,,,,,,,,,,,,,,,,,,,,,,,,,,,,,,,,,,,,,,,0,0,0,1,1,,,,,,,,,,,,,,,,,,,,,,,,,,,,,,,,,,,,,,,,,
764752,001,2022-11-20_23h56.35.981,Info_measure_main_exp,2022.2.2,MacIntel,60.0024001,,,,,,,,,,,,,,,,,,masks/mask_004.jpg,,,,,,,,,,,,,,,,,,,,,,,,,,,,,,,,,,,,,,,,,,,,,,,,0,1,1,3,1,,,,,,,,,,,,,,,,,,,,,,,,,,,,,,,,,,,,,,,,,
764752,001,2022-11-20_23h56.35.981,Info_measure_main_exp,2022.2.2,MacIntel,60.0024001,,,,,,,,,,,,,,,,,,masks/mask_005.jpg,,,,,,,,,,,,,,,,,,,,,,,,,,,,,,,,,,,,,,,,,,,,,,,,0,2,2,4,1,,,,,,,,,,,,,,,,,,,,,,,,,,,,,,,,,,,,,,,,,
764752,001,2022-11-20_23h56.35.981,Info_measure_main_exp,2022.2.2,MacIntel,60.0024001,,,,,,,,,,,,,,,,,,masks/mask_001.jpg,,,,,,,,,,,,,,,,,,,,,,,,,,,,,,,,,,,,,,,,,,,,,,,,0,3,3,0,1,,,,,,,,,,,,,,,,,,,,,,,,,,,,,,,,,,,,,,,,,
764752,001,2022-11-20_23h56.35.981,Info_measure_main_exp,2022.2.2,MacIntel,60.0024001,,,,,,,,,,,,,,,,,,masks/mask_003.jpg,,,,,,,,,,,,,,,,,,,,,,,,,,,,,,,,,,,,,,,,,,,,,,,,0,4,4,2,1,,,,,,,,,,,,,,,,,,,,,,,,,,,,,,,,,,,,,,,,,
764752,001,2022-11-20_23h56.35.981,Info_measure_main_exp,2022.2.2,MacIntel,60.0024001,,,,,,,,,,,,,,,,,,,,,,,,,,,,,,3,2.6826,1,,,,,,,,,,,,1,131,5,5,2238,1,absent_patch/patch0002238.jpg,present_patch/cong_131_5_a.jpg,,,,,,,,,,,,,,,,,,,,-0.059414063,-0.098771701,1,0,0,response5disk,9,0.007022569,-0.001241319,1,0,0,center_square,0,8,8,104,1,,,,,,,,,,,,,,,,,,,,,,,
764752,001,2022-11-20_23h56.35.981,Info_measure_main_exp,2022.2.2,MacIntel,60.0024001,,,,,,,,,,,,,,,,,,masks/mask_002.jpg,,,,,,,,,,,,,,,,,,,,,,,,,,,,,,,,,,,,,,,,,,,0,0,0,1,1,,,,,,,,,,,,,,,,,,,,,,,,,,,,,,,,,,,,,,,,,,,,,,
764752,001,2022-11-20_23h56.35.981,Info_measure_main_exp,2022.2.2,MacIntel,60.0024001,,,,,,,,,,,,,,,,,,masks/mask_001.jpg,,,,,,,,,,,,,,,,,,,,,,,,,,,,,,,,,,,,,,,,,,,0,1,1,0,1,,,,,,,,,,,,,,,,,,,,,,,,,,,,,,,,,,,,,,,,,,,,,,
764752,001,2022-11-20_23h56.35.981,Info_measure_main_exp,2022.2.2,MacIntel,60.0024001,,,,,,,,,,,,,,,,,,masks/mask_005.jpg,,,,,,,,,,,,,,,,,,,,,,,,,,,,,,,,,,,,,,,,,,,0,2,2,4,1,,,,,,,,,,,,,,,,,,,,,,,,,,,,,,,,,,,,,,,,,,,,,,
764752,001,2022-11-20_23h56.35.981,Info_measure_main_exp,2022.2.2,MacIntel,60.0024001,,,,,,,,,,,,,,,,,,masks/mask_004.jpg,,,,,,,,,,,,,,,,,,,,,,,,,,,,,,,,,,,,,,,,,,,0,3,3,3,1,,,,,,,,,,,,,,,,,,,,,,,,,,,,,,,,,,,,,,,,,,,,,,
764752,001,2022-11-20_23h56.35.981,Info_measure_main_exp,2022.2.2,MacIntel,60.0024001,,,,,,,,,,,,,,,,,,masks/mask_003.jpg,,,,,,,,,,,,,,,,,,,,,,,,,,,,,,,,,,,,,,,,,,,0,4,4,2,1,,,,,,,,,,,,,,,,,,,,,,,,,,,,,,,,,,,,,,,,,,,,,,
764752,001,2022-11-20_23h56.35.981,Info_measure_main_exp,2022.2.2,MacIntel,60.0024001,,,,,,,,,,,,,,,,,,masks/mask_004.jpg,,,,,,,,,,,,,,,,,,,,,,,,,,,,,,,,,,,,,,,,,,,,,,,,0,0,0,3,1,,,,,,,,,,,,,,,,,,,,,,,,,,,,,,,,,,,,,,,,,
764752,001,2022-11-20_23h56.35.981,Info_measure_main_exp,2022.2.2,MacIntel,60.0024001,,,,,,,,,,,,,,,,,,masks/mask_001.jpg,,,,,,,,,,,,,,,,,,,,,,,,,,,,,,,,,,,,,,,,,,,,,,,,0,1,1,0,1,,,,,,,,,,,,,,,,,,,,,,,,,,,,,,,,,,,,,,,,,
764752,001,2022-11-20_23h56.35.981,Info_measure_main_exp,2022.2.2,MacIntel,60.0024001,,,,,,,,,,,,,,,,,,masks/mask_002.jpg,,,,,,,,,,,,,,,,,,,,,,,,,,,,,,,,,,,,,,,,,,,,,,,,0,2,2,1,1,,,,,,,,,,,,,,,,,,,,,,,,,,,,,,,,,,,,,,,,,
764752,001,2022-11-20_23h56.35.981,Info_measure_main_exp,2022.2.2,MacIntel,60.0024001,,,,,,,,,,,,,,,,,,masks/mask_003.jpg,,,,,,,,,,,,,,,,,,,,,,,,,,,,,,,,,,,,,,,,,,,,,,,,0,3,3,2,1,,,,,,,,,,,,,,,,,,,,,,,,,,,,,,,,,,,,,,,,,
764752,001,2022-11-20_23h56.35.981,Info_measure_main_exp,2022.2.2,MacIntel,60.0024001,,,,,,,,,,,,,,,,,,masks/mask_005.jpg,,,,,,,,,,,,,,,,,,,,,,,,,,,,,,,,,,,,,,,,,,,,,,,,0,4,4,4,1,,,,,,,,,,,,,,,,,,,,,,,,,,,,,,,,,,,,,,,,,
764752,001,2022-11-20_23h56.35.981,Info_measure_main_exp,2022.2.2,MacIntel,60.0024001,,,,,,,,,,,,,,,,,,,,,,,,,,,,,,7,1.6171,1,,,,,,,,,,,,0,131,5,5,2298,2142,absent_patch/patch0002298.jpg,absent_patch/patch0002142.jpg,,,,,,,,,,,,,,,,,,,,0.080043403,0.133923611,1,0,0,response1disk,10,0.012795139,-0.011267361,1,0,0,center_square,0,9,9,49,1,,,,,,,,,,,,,,,,,,,,,,,
764752,001,2022-11-20_23h56.35.981,Info_measure_main_exp,2022.2.2,MacIntel,60.0024001,,,,,,,,,,,,,,,,,,masks/mask_002.jpg,,,,,,,,,,,,,,,,,,,,,,,,,,,,,,,,,,,,,,,,,,,0,0,0,1,1,,,,,,,,,,,,,,,,,,,,,,,,,,,,,,,,,,,,,,,,,,,,,,
764752,001,2022-11-20_23h56.35.981,Info_measure_main_exp,2022.2.2,MacIntel,60.0024001,,,,,,,,,,,,,,,,,,masks/mask_005.jpg,,,,,,,,,,,,,,,,,,,,,,,,,,,,,,,,,,,,,,,,,,,0,1,1,4,1,,,,,,,,,,,,,,,,,,,,,,,,,,,,,,,,,,,,,,,,,,,,,,
764752,001,2022-11-20_23h56.35.981,Info_measure_main_exp,2022.2.2,MacIntel,60.0024001,,,,,,,,,,,,,,,,,,masks/mask_001.jpg,,,,,,,,,,,,,,,,,,,,,,,,,,,,,,,,,,,,,,,,,,,0,2,2,0,1,,,,,,,,,,,,,,,,,,,,,,,,,,,,,,,,,,,,,,,,,,,,,,
764752,001,2022-11-20_23h56.35.981,Info_measure_main_exp,2022.2.2,MacIntel,60.0024001,,,,,,,,,,,,,,,,,,masks/mask_003.jpg,,,,,,,,,,,,,,,,,,,,,,,,,,,,,,,,,,,,,,,,,,,0,3,3,2,1,,,,,,,,,,,,,,,,,,,,,,,,,,,,,,,,,,,,,,,,,,,,,,
764752,001,2022-11-20_23h56.35.981,Info_measure_main_exp,2022.2.2,MacIntel,60.0024001,,,,,,,,,,,,,,,,,,masks/mask_004.jpg,,,,,,,,,,,,,,,,,,,,,,,,,,,,,,,,,,,,,,,,,,,0,4,4,3,1,,,,,,,,,,,,,,,,,,,,,,,,,,,,,,,,,,,,,,,,,,,,,,
764752,001,2022-11-20_23h56.35.981,Info_measure_main_exp,2022.2.2,MacIntel,60.0024001,,,,,,,,,,,,,,,,,,masks/mask_001.jpg,,,,,,,,,,,,,,,,,,,,,,,,,,,,,,,,,,,,,,,,,,,,,,,,0,0,0,0,1,,,,,,,,,,,,,,,,,,,,,,,,,,,,,,,,,,,,,,,,,
764752,001,2022-11-20_23h56.35.981,Info_measure_main_exp,2022.2.2,MacIntel,60.0024001,,,,,,,,,,,,,,,,,,masks/mask_004.jpg,,,,,,,,,,,,,,,,,,,,,,,,,,,,,,,,,,,,,,,,,,,,,,,,0,1,1,3,1,,,,,,,,,,,,,,,,,,,,,,,,,,,,,,,,,,,,,,,,,
764752,001,2022-11-20_23h56.35.981,Info_measure_main_exp,2022.2.2,MacIntel,60.0024001,,,,,,,,,,,,,,,,,,masks/mask_005.jpg,,,,,,,,,,,,,,,,,,,,,,,,,,,,,,,,,,,,,,,,,,,,,,,,0,2,2,4,1,,,,,,,,,,,,,,,,,,,,,,,,,,,,,,,,,,,,,,,,,
764752,001,2022-11-20_23h56.35.981,Info_measure_main_exp,2022.2.2,MacIntel,60.0024001,,,,,,,,,,,,,,,,,,masks/mask_003.jpg,,,,,,,,,,,,,,,,,,,,,,,,,,,,,,,,,,,,,,,,,,,,,,,,0,3,3,2,1,,,,,,,,,,,,,,,,,,,,,,,,,,,,,,,,,,,,,,,,,
764752,001,2022-11-20_23h56.35.981,Info_measure_main_exp,2022.2.2,MacIntel,60.0024001,,,,,,,,,,,,,,,,,,masks/mask_002.jpg,,,,,,,,,,,,,,,,,,,,,,,,,,,,,,,,,,,,,,,,,,,,,,,,0,4,4,1,1,,,,,,,,,,,,,,,,,,,,,,,,,,,,,,,,,,,,,,,,,
764752,001,2022-11-20_23h56.35.981,Info_measure_main_exp,2022.2.2,MacIntel,60.0024001,,,,,,,,,,,,,,,,,,,,,,,,,,,,,,4,1.2332,1,,,,,,,,,,,,0,131,5,5,2250,1986,absent_patch/patch0002250.jpg,absent_patch/patch0001986.jpg,,,,,,,,,,,,,,,,,,,,0.024001736,-0.053936632,1,0,0,response3disk,11,0.001940104,0.010325521,1,0,0,center_square,0,10,10,29,1,,,,,,,,,,,,,,,,,,,,,,,
764752,001,2022-11-20_23h56.35.981,Info_measure_main_exp,2022.2.2,MacIntel,60.0024001,,,,,,,,,,,,,,,,,,masks/mask_005.jpg,,,,,,,,,,,,,,,,,,,,,,,,,,,,,,,,,,,,,,,,,,,0,0,0,4,1,,,,,,,,,,,,,,,,,,,,,,,,,,,,,,,,,,,,,,,,,,,,,,
764752,001,2022-11-20_23h56.35.981,Info_measure_main_exp,2022.2.2,MacIntel,60.0024001,,,,,,,,,,,,,,,,,,masks/mask_003.jpg,,,,,,,,,,,,,,,,,,,,,,,,,,,,,,,,,,,,,,,,,,,0,1,1,2,1,,,,,,,,,,,,,,,,,,,,,,,,,,,,,,,,,,,,,,,,,,,,,,
764752,001,2022-11-20_23h56.35.981,Info_measure_main_exp,2022.2.2,MacIntel,60.0024001,,,,,,,,,,,,,,,,,,masks/mask_001.jpg,,,,,,,,,,,,,,,,,,,,,,,,,,,,,,,,,,,,,,,,,,,0,2,2,0,1,,,,,,,,,,,,,,,,,,,,,,,,,,,,,,,,,,,,,,,,,,,,,,
764752,001,2022-11-20_23h56.35.981,Info_measure_main_exp,2022.2.2,MacIntel,60.0024001,,,,,,,,,,,,,,,,,,masks/mask_002.jpg,,,,,,,,,,,,,,,,,,,,,,,,,,,,,,,,,,,,,,,,,,,0,3,3,1,1,,,,,,,,,,,,,,,,,,,,,,,,,,,,,,,,,,,,,,,,,,,,,,
764752,001,2022-11-20_23h56.35.981,Info_measure_main_exp,2022.2.2,MacIntel,60.0024001,,,,,,,,,,,,,,,,,,masks/mask_004.jpg,,,,,,,,,,,,,,,,,,,,,,,,,,,,,,,,,,,,,,,,,,,0,4,4,3,1,,,,,,,,,,,,,,,,,,,,,,,,,,,,,,,,,,,,,,,,,,,,,,
764752,001,2022-11-20_23h56.35.981,Info_measure_main_exp,2022.2.2,MacIntel,60.0024001,,,,,,,,,,,,,,,,,,masks/mask_001.jpg,,,,,,,,,,,,,,,,,,,,,,,,,,,,,,,,,,,,,,,,,,,,,,,,0,0,0,0,1,,,,,,,,,,,,,,,,,,,,,,,,,,,,,,,,,,,,,,,,,
764752,001,2022-11-20_23h56.35.981,Info_measure_main_exp,2022.2.2,MacIntel,60.0024001,,,,,,,,,,,,,,,,,,masks/mask_002.jpg,,,,,,,,,,,,,,,,,,,,,,,,,,,,,,,,,,,,,,,,,,,,,,,,0,1,1,1,1,,,,,,,,,,,,,,,,,,,,,,,,,,,,,,,,,,,,,,,,,
764752,001,2022-11-20_23h56.35.981,Info_measure_main_exp,2022.2.2,MacIntel,60.0024001,,,,,,,,,,,,,,,,,,masks/mask_005.jpg,,,,,,,,,,,,,,,,,,,,,,,,,,,,,,,,,,,,,,,,,,,,,,,,0,2,2,4,1,,,,,,,,,,,,,,,,,,,,,,,,,,,,,,,,,,,,,,,,,
764752,001,2022-11-20_23h56.35.981,Info_measure_main_exp,2022.2.2,MacIntel,60.0024001,,,,,,,,,,,,,,,,,,masks/mask_004.jpg,,,,,,,,,,,,,,,,,,,,,,,,,,,,,,,,,,,,,,,,,,,,,,,,0,3,3,3,1,,,,,,,,,,,,,,,,,,,,,,,,,,,,,,,,,,,,,,,,,
764752,001,2022-11-20_23h56.35.981,Info_measure_main_exp,2022.2.2,MacIntel,60.0024001,,,,,,,,,,,,,,,,,,masks/mask_003.jpg,,,,,,,,,,,,,,,,,,,,,,,,,,,,,,,,,,,,,,,,,,,,,,,,0,4,4,2,1,,,,,,,,,,,,,,,,,,,,,,,,,,,,,,,,,,,,,,,,,
764752,001,2022-11-20_23h56.35.981,Info_measure_main_exp,2022.2.2,MacIntel,60.0024001,,,,,,,,,,,,,,,,,,,,,,,,,,,,,,1,1.5168,1,,,,,,,,,,,,0,131,5,5,2298,2190,absent_patch/patch0002298.jpg,absent_patch/patch0002190.jpg,,,,,,,,,,,,,,,,,,,,-0.149921875,0.066480035,1,0,0,response7disk,12,0.00297309,-0.006731771,1,0,0,center_square,0,11,11,20,1,,,,,,,,,,,,,,,,,,,,,,,
764752,001,2022-11-20_23h56.35.981,Info_measure_main_exp,2022.2.2,MacIntel,60.0024001,,,,,,,,,,,,,,,,,,masks/mask_005.jpg,,,,,,,,,,,,,,,,,,,,,,,,,,,,,,,,,,,,,,,,,,,0,0,0,4,1,,,,,,,,,,,,,,,,,,,,,,,,,,,,,,,,,,,,,,,,,,,,,,
764752,001,2022-11-20_23h56.35.981,Info_measure_main_exp,2022.2.2,MacIntel,60.0024001,,,,,,,,,,,,,,,,,,masks/mask_002.jpg,,,,,,,,,,,,,,,,,,,,,,,,,,,,,,,,,,,,,,,,,,,0,1,1,1,1,,,,,,,,,,,,,,,,,,,,,,,,,,,,,,,,,,,,,,,,,,,,,,
764752,001,2022-11-20_23h56.35.981,Info_measure_main_exp,2022.2.2,MacIntel,60.0024001,,,,,,,,,,,,,,,,,,masks/mask_004.jpg,,,,,,,,,,,,,,,,,,,,,,,,,,,,,,,,,,,,,,,,,,,0,2,2,3,1,,,,,,,,,,,,,,,,,,,,,,,,,,,,,,,,,,,,,,,,,,,,,,
764752,001,2022-11-20_23h56.35.981,Info_measure_main_exp,2022.2.2,MacIntel,60.0024001,,,,,,,,,,,,,,,,,,masks/mask_003.jpg,,,,,,,,,,,,,,,,,,,,,,,,,,,,,,,,,,,,,,,,,,,0,3,3,2,1,,,,,,,,,,,,,,,,,,,,,,,,,,,,,,,,,,,,,,,,,,,,,,
764752,001,2022-11-20_23h56.35.981,Info_measure_main_exp,2022.2.2,MacIntel,60.0024001,,,,,,,,,,,,,,,,,,masks/mask_001.jpg,,,,,,,,,,,,,,,,,,,,,,,,,,,,,,,,,,,,,,,,,,,0,4,4,0,1,,,,,,,,,,,,,,,,,,,,,,,,,,,,,,,,,,,,,,,,,,,,,,
764752,001,2022-11-20_23h56.35.981,Info_measure_main_exp,2022.2.2,MacIntel,60.0024001,,,,,,,,,,,,,,,,,,masks/mask_004.jpg,,,,,,,,,,,,,,,,,,,,,,,,,,,,,,,,,,,,,,,,,,,,,,,,0,0,0,3,1,,,,,,,,,,,,,,,,,,,,,,,,,,,,,,,,,,,,,,,,,
764752,001,2022-11-20_23h56.35.981,Info_measure_main_exp,2022.2.2,MacIntel,60.0024001,,,,,,,,,,,,,,,,,,masks/mask_001.jpg,,,,,,,,,,,,,,,,,,,,,,,,,,,,,,,,,,,,,,,,,,,,,,,,0,1,1,0,1,,,,,,,,,,,,,,,,,,,,,,,,,,,,,,,,,,,,,,,,,
764752,001,2022-11-20_23h56.35.981,Info_measure_main_exp,2022.2.2,MacIntel,60.0024001,,,,,,,,,,,,,,,,,,masks/mask_005.jpg,,,,,,,,,,,,,,,,,,,,,,,,,,,,,,,,,,,,,,,,,,,,,,,,0,2,2,4,1,,,,,,,,,,,,,,,,,,,,,,,,,,,,,,,,,,,,,,,,,
764752,001,2022-11-20_23h56.35.981,Info_measure_main_exp,2022.2.2,MacIntel,60.0024001,,,,,,,,,,,,,,,,,,masks/mask_002.jpg,,,,,,,,,,,,,,,,,,,,,,,,,,,,,,,,,,,,,,,,,,,,,,,,0,3,3,1,1,,,,,,,,,,,,,,,,,,,,,,,,,,,,,,,,,,,,,,,,,
764752,001,2022-11-20_23h56.35.981,Info_measure_main_exp,2022.2.2,MacIntel,60.0024001,,,,,,,,,,,,,,,,,,masks/mask_003.jpg,,,,,,,,,,,,,,,,,,,,,,,,,,,,,,,,,,,,,,,,,,,,,,,,0,4,4,2,1,,,,,,,,,,,,,,,,,,,,,,,,,,,,,,,,,,,,,,,,,
764752,001,2022-11-20_23h56.35.981,Info_measure_main_exp,2022.2.2,MacIntel,60.0024001,,,,,,,,,,,,,,,,,,,,,,,,,,,,,,6,1.0166,1,,,,,,,,,,,,0,131,5,5,2178,2142,absent_patch/patch0002178.jpg,absent_patch/patch0002142.jpg,,,,,,,,,,,,,,,,,,,,0.131427951,0.091306424,1,0,0,response1disk,13,0.00546441,0.010711806,1,0,0,center_square,0,12,12,41,1,,,,,,,,,,,,,,,,,,,,,,,
764752,001,2022-11-20_23h56.35.981,Info_measure_main_exp,2022.2.2,MacIntel,60.0024001,,,,,,,,,,,,,,,,,,masks/mask_001.jpg,,,,,,,,,,,,,,,,,,,,,,,,,,,,,,,,,,,,,,,,,,,0,0,0,0,1,,,,,,,,,,,,,,,,,,,,,,,,,,,,,,,,,,,,,,,,,,,,,,
764752,001,2022-11-20_23h56.35.981,Info_measure_main_exp,2022.2.2,MacIntel,60.0024001,,,,,,,,,,,,,,,,,,masks/mask_004.jpg,,,,,,,,,,,,,,,,,,,,,,,,,,,,,,,,,,,,,,,,,,,0,1,1,3,1,,,,,,,,,,,,,,,,,,,,,,,,,,,,,,,,,,,,,,,,,,,,,,
764752,001,2022-11-20_23h56.35.981,Info_measure_main_exp,2022.2.2,MacIntel,60.0024001,,,,,,,,,,,,,,,,,,masks/mask_002.jpg,,,,,,,,,,,,,,,,,,,,,,,,,,,,,,,,,,,,,,,,,,,0,2,2,1,1,,,,,,,,,,,,,,,,,,,,,,,,,,,,,,,,,,,,,,,,,,,,,,
764752,001,2022-11-20_23h56.35.981,Info_measure_main_exp,2022.2.2,MacIntel,60.0024001,,,,,,,,,,,,,,,,,,masks/mask_003.jpg,,,,,,,,,,,,,,,,,,,,,,,,,,,,,,,,,,,,,,,,,,,0,3,3,2,1,,,,,,,,,,,,,,,,,,,,,,,,,,,,,,,,,,,,,,,,,,,,,,
764752,001,2022-11-20_23h56.35.981,Info_measure_main_exp,2022.2.2,MacIntel,60.0024001,,,,,,,,,,,,,,,,,,masks/mask_005.jpg,,,,,,,,,,,,,,,,,,,,,,,,,,,,,,,,,,,,,,,,,,,0,4,4,4,1,,,,,,,,,,,,,,,,,,,,,,,,,,,,,,,,,,,,,,,,,,,,,,
764752,001,2022-11-20_23h56.35.981,Info_measure_main_exp,2022.2.2,MacIntel,60.0024001,,,,,,,,,,,,,,,,,,masks/mask_001.jpg,,,,,,,,,,,,,,,,,,,,,,,,,,,,,,,,,,,,,,,,,,,,,,,,0,0,0,0,1,,,,,,,,,,,,,,,,,,,,,,,,,,,,,,,,,,,,,,,,,
764752,001,2022-11-20_23h56.35.981,Info_measure_main_exp,2022.2.2,MacIntel,60.0024001,,,,,,,,,,,,,,,,,,masks/mask_004.jpg,,,,,,,,,,,,,,,,,,,,,,,,,,,,,,,,,,,,,,,,,,,,,,,,0,1,1,3,1,,,,,,,,,,,,,,,,,,,,,,,,,,,,,,,,,,,,,,,,,
764752,001,2022-11-20_23h56.35.981,Info_measure_main_exp,2022.2.2,MacIntel,60.0024001,,,,,,,,,,,,,,,,,,masks/mask_002.jpg,,,,,,,,,,,,,,,,,,,,,,,,,,,,,,,,,,,,,,,,,,,,,,,,0,2,2,1,1,,,,,,,,,,,,,,,,,,,,,,,,,,,,,,,,,,,,,,,,,
764752,001,2022-11-20_23h56.35.981,Info_measure_main_exp,2022.2.2,MacIntel,60.0024001,,,,,,,,,,,,,,,,,,masks/mask_005.jpg,,,,,,,,,,,,,,,,,,,,,,,,,,,,,,,,,,,,,,,,,,,,,,,,0,3,3,4,1,,,,,,,,,,,,,,,,,,,,,,,,,,,,,,,,,,,,,,,,,
764752,001,2022-11-20_23h56.35.981,Info_measure_main_exp,2022.2.2,MacIntel,60.0024001,,,,,,,,,,,,,,,,,,masks/mask_003.jpg,,,,,,,,,,,,,,,,,,,,,,,,,,,,,,,,,,,,,,,,,,,,,,,,0,4,4,2,1,,,,,,,,,,,,,,,,,,,,,,,,,,,,,,,,,,,,,,,,,
764752,001,2022-11-20_23h56.35.981,Info_measure_main_exp,2022.2.2,MacIntel,60.0024001,,,,,,,,,,,,,,,,,,,,,,,,,,,,,,0,1.2162,1,,,,,,,,,,,,0,131,5,5,2274,2274,absent_patch/patch0002274.jpg,absent_patch/patch0002274.jpg,,,,,,,,,,,,,,,,,,,,-0.053159722,0.123207465,1,0,0,response7disk,14,0.000338542,0.010694444,1,0,0,center_square,0,13,13,114,1,,,,,,,,,,,,,,,,,,,,,,,
764752,001,2022-11-20_23h56.35.981,Info_measure_main_exp,2022.2.2,MacIntel,60.0024001,,,,,,,,,,,,,,,,,,masks/mask_001.jpg,,,,,,,,,,,,,,,,,,,,,,,,,,,,,,,,,,,,,,,,,,,0,0,0,0,1,,,,,,,,,,,,,,,,,,,,,,,,,,,,,,,,,,,,,,,,,,,,,,
764752,001,2022-11-20_23h56.35.981,Info_measure_main_exp,2022.2.2,MacIntel,60.0024001,,,,,,,,,,,,,,,,,,masks/mask_004.jpg,,,,,,,,,,,,,,,,,,,,,,,,,,,,,,,,,,,,,,,,,,,0,1,1,3,1,,,,,,,,,,,,,,,,,,,,,,,,,,,,,,,,,,,,,,,,,,,,,,
764752,001,2022-11-20_23h56.35.981,Info_measure_main_exp,2022.2.2,MacIntel,60.0024001,,,,,,,,,,,,,,,,,,masks/mask_005.jpg,,,,,,,,,,,,,,,,,,,,,,,,,,,,,,,,,,,,,,,,,,,0,2,2,4,1,,,,,,,,,,,,,,,,,,,,,,,,,,,,,,,,,,,,,,,,,,,,,,
764752,001,2022-11-20_23h56.35.981,Info_measure_main_exp,2022.2.2,MacIntel,60.0024001,,,,,,,,,,,,,,,,,,masks/mask_002.jpg,,,,,,,,,,,,,,,,,,,,,,,,,,,,,,,,,,,,,,,,,,,0,3,3,1,1,,,,,,,,,,,,,,,,,,,,,,,,,,,,,,,,,,,,,,,,,,,,,,
764752,001,2022-11-20_23h56.35.981,Info_measure_main_exp,2022.2.2,MacIntel,60.0024001,,,,,,,,,,,,,,,,,,masks/mask_003.jpg,,,,,,,,,,,,,,,,,,,,,,,,,,,,,,,,,,,,,,,,,,,0,4,4,2,1,,,,,,,,,,,,,,,,,,,,,,,,,,,,,,,,,,,,,,,,,,,,,,
764752,001,2022-11-20_23h56.35.981,Info_measure_main_exp,2022.2.2,MacIntel,60.0024001,,,,,,,,,,,,,,,,,,masks/mask_004.jpg,,,,,,,,,,,,,,,,,,,,,,,,,,,,,,,,,,,,,,,,,,,,,,,,0,0,0,3,1,,,,,,,,,,,,,,,,,,,,,,,,,,,,,,,,,,,,,,,,,
764752,001,2022-11-20_23h56.35.981,Info_measure_main_exp,2022.2.2,MacIntel,60.0024001,,,,,,,,,,,,,,,,,,masks/mask_002.jpg,,,,,,,,,,,,,,,,,,,,,,,,,,,,,,,,,,,,,,,,,,,,,,,,0,1,1,1,1,,,,,,,,,,,,,,,,,,,,,,,,,,,,,,,,,,,,,,,,,
764752,001,2022-11-20_23h56.35.981,Info_measure_main_exp,2022.2.2,MacIntel,60.0024001,,,,,,,,,,,,,,,,,,masks/mask_001.jpg,,,,,,,,,,,,,,,,,,,,,,,,,,,,,,,,,,,,,,,,,,,,,,,,0,2,2,0,1,,,,,,,,,,,,,,,,,,,,,,,,,,,,,,,,,,,,,,,,,
764752,001,2022-11-20_23h56.35.981,Info_measure_main_exp,2022.2.2,MacIntel,60.0024001,,,,,,,,,,,,,,,,,,masks/mask_005.jpg,,,,,,,,,,,,,,,,,,,,,,,,,,,,,,,,,,,,,,,,,,,,,,,,0,3,3,4,1,,,,,,,,,,,,,,,,,,,,,,,,,,,,,,,,,,,,,,,,,
764752,001,2022-11-20_23h56.35.981,Info_measure_main_exp,2022.2.2,MacIntel,60.0024001,,,,,,,,,,,,,,,,,,masks/mask_003.jpg,,,,,,,,,,,,,,,,,,,,,,,,,,,,,,,,,,,,,,,,,,,,,,,,0,4,4,2,1,,,,,,,,,,,,,,,,,,,,,,,,,,,,,,,,,,,,,,,,,
764752,001,2022-11-20_23h56.35.981,Info_measure_main_exp,2022.2.2,MacIntel,60.0024001,,,,,,,,,,,,,,,,,,,,,,,,,,,,,,0,1.0832,1,,,,,,,,,,,,0,131,5,5,1974,1950,absent_patch/patch0001974.jpg,absent_patch/patch0001950.jpg,,,,,,,,,,,,,,,,,,,,-0.067860243,0.135755208,1,0,0,response7disk,15,0.004075521,0.01265191,1,0,0,center_square,0,14,14,17,1,,,,,,,,,,,,,,,,,,,,,,,
764752,001,2022-11-20_23h56.35.981,Info_measure_main_exp,2022.2.2,MacIntel,60.0024001,,,,,,,,,,,,,,,,,,masks/mask_003.jpg,,,,,,,,,,,,,,,,,,,,,,,,,,,,,,,,,,,,,,,,,,,0,0,0,2,1,,,,,,,,,,,,,,,,,,,,,,,,,,,,,,,,,,,,,,,,,,,,,,
764752,001,2022-11-20_23h56.35.981,Info_measure_main_exp,2022.2.2,MacIntel,60.0024001,,,,,,,,,,,,,,,,,,masks/mask_005.jpg,,,,,,,,,,,,,,,,,,,,,,,,,,,,,,,,,,,,,,,,,,,0,1,1,4,1,,,,,,,,,,,,,,,,,,,,,,,,,,,,,,,,,,,,,,,,,,,,,,
764752,001,2022-11-20_23h56.35.981,Info_measure_main_exp,2022.2.2,MacIntel,60.0024001,,,,,,,,,,,,,,,,,,masks/mask_002.jpg,,,,,,,,,,,,,,,,,,,,,,,,,,,,,,,,,,,,,,,,,,,0,2,2,1,1,,,,,,,,,,,,,,,,,,,,,,,,,,,,,,,,,,,,,,,,,,,,,,
764752,001,2022-11-20_23h56.35.981,Info_measure_main_exp,2022.2.2,MacIntel,60.0024001,,,,,,,,,,,,,,,,,,masks/mask_004.jpg,,,,,,,,,,,,,,,,,,,,,,,,,,,,,,,,,,,,,,,,,,,0,3,3,3,1,,,,,,,,,,,,,,,,,,,,,,,,,,,,,,,,,,,,,,,,,,,,,,
764752,001,2022-11-20_23h56.35.981,Info_measure_main_exp,2022.2.2,MacIntel,60.0024001,,,,,,,,,,,,,,,,,,masks/mask_001.jpg,,,,,,,,,,,,,,,,,,,,,,,,,,,,,,,,,,,,,,,,,,,0,4,4,0,1,,,,,,,,,,,,,,,,,,,,,,,,,,,,,,,,,,,,,,,,,,,,,,
764752,001,2022-11-20_23h56.35.981,Info_measure_main_exp,2022.2.2,MacIntel,60.0024001,,,,,,,,,,,,,,,,,,masks/mask_004.jpg,,,,,,,,,,,,,,,,,,,,,,,,,,,,,,,,,,,,,,,,,,,,,,,,0,0,0,3,1,,,,,,,,,,,,,,,,,,,,,,,,,,,,,,,,,,,,,,,,,
764752,001,2022-11-20_23h56.35.981,Info_measure_main_exp,2022.2.2,MacIntel,60.0024001,,,,,,,,,,,,,,,,,,masks/mask_003.jpg,,,,,,,,,,,,,,,,,,,,,,,,,,,,,,,,,,,,,,,,,,,,,,,,0,1,1,2,1,,,,,,,,,,,,,,,,,,,,,,,,,,,,,,,,,,,,,,,,,
764752,001,2022-11-20_23h56.35.981,Info_measure_main_exp,2022.2.2,MacIntel,60.0024001,,,,,,,,,,,,,,,,,,masks/mask_005.jpg,,,,,,,,,,,,,,,,,,,,,,,,,,,,,,,,,,,,,,,,,,,,,,,,0,2,2,4,1,,,,,,,,,,,,,,,,,,,,,,,,,,,,,,,,,,,,,,,,,
764752,001,2022-11-20_23h56.35.981,Info_measure_main_exp,2022.2.2,MacIntel,60.0024001,,,,,,,,,,,,,,,,,,masks/mask_002.jpg,,,,,,,,,,,,,,,,,,,,,,,,,,,,,,,,,,,,,,,,,,,,,,,,0,3,3,1,1,,,,,,,,,,,,,,,,,,,,,,,,,,,,,,,,,,,,,,,,,
764752,001,2022-11-20_23h56.35.981,Info_measure_main_exp,2022.2.2,MacIntel,60.0024001,,,,,,,,,,,,,,,,,,masks/mask_001.jpg,,,,,,,,,,,,,,,,,,,,,,,,,,,,,,,,,,,,,,,,,,,,,,,,0,4,4,0,1,,,,,,,,,,,,,,,,,,,,,,,,,,,,,,,,,,,,,,,,,
764752,001,2022-11-20_23h56.35.981,Info_measure_main_exp,2022.2.2,MacIntel,60.0024001,,,,,,,,,,,,,,,,,,,,,,,,,,,,,,7,1.541,1,,,,,,,,,,,,0,131,5,5,1986,1974,absent_patch/patch0001986.jpg,absent_patch/patch0001974.jpg,,,,,,,,,,,,,,,,,,,,0.070477431,0.189709201,1,0,0,response1disk,16,-0.002860243,0.0071875,1,0,0,center_square,0,15,15,25,1,,,,,,,,,,,,,,,,,,,,,,,
764752,001,2022-11-20_23h56.35.981,Info_measure_main_exp,2022.2.2,MacIntel,60.0024001,,,,,,,,,,,,,,,,,,masks/mask_002.jpg,,,,,,,,,,,,,,,,,,,,,,,,,,,,,,,,,,,,,,,,,,,0,0,0,1,1,,,,,,,,,,,,,,,,,,,,,,,,,,,,,,,,,,,,,,,,,,,,,,
764752,001,2022-11-20_23h56.35.981,Info_measure_main_exp,2022.2.2,MacIntel,60.0024001,,,,,,,,,,,,,,,,,,masks/mask_004.jpg,,,,,,,,,,,,,,,,,,,,,,,,,,,,,,,,,,,,,,,,,,,0,1,1,3,1,,,,,,,,,,,,,,,,,,,,,,,,,,,,,,,,,,,,,,,,,,,,,,
764752,001,2022-11-20_23h56.35.981,Info_measure_main_exp,2022.2.2,MacIntel,60.0024001,,,,,,,,,,,,,,,,,,masks/mask_003.jpg,,,,,,,,,,,,,,,,,,,,,,,,,,,,,,,,,,,,,,,,,,,0,2,2,2,1,,,,,,,,,,,,,,,,,,,,,,,,,,,,,,,,,,,,,,,,,,,,,,
764752,001,2022-11-20_23h56.35.981,Info_measure_main_exp,2022.2.2,MacIntel,60.0024001,,,,,,,,,,,,,,,,,,masks/mask_005.jpg,,,,,,,,,,,,,,,,,,,,,,,,,,,,,,,,,,,,,,,,,,,0,3,3,4,1,,,,,,,,,,,,,,,,,,,,,,,,,,,,,,,,,,,,,,,,,,,,,,
764752,001,2022-11-20_23h56.35.981,Info_measure_main_exp,2022.2.2,MacIntel,60.0024001,,,,,,,,,,,,,,,,,,masks/mask_001.jpg,,,,,,,,,,,,,,,,,,,,,,,,,,,,,,,,,,,,,,,,,,,0,4,4,0,1,,,,,,,,,,,,,,,,,,,,,,,,,,,,,,,,,,,,,,,,,,,,,,
764752,001,2022-11-20_23h56.35.981,Info_measure_main_exp,2022.2.2,MacIntel,60.0024001,,,,,,,,,,,,,,,,,,masks/mask_003.jpg,,,,,,,,,,,,,,,,,,,,,,,,,,,,,,,,,,,,,,,,,,,,,,,,0,0,0,2,1,,,,,,,,,,,,,,,,,,,,,,,,,,,,,,,,,,,,,,,,,
764752,001,2022-11-20_23h56.35.981,Info_measure_main_exp,2022.2.2,MacIntel,60.0024001,,,,,,,,,,,,,,,,,,masks/mask_004.jpg,,,,,,,,,,,,,,,,,,,,,,,,,,,,,,,,,,,,,,,,,,,,,,,,0,1,1,3,1,,,,,,,,,,,,,,,,,,,,,,,,,,,,,,,,,,,,,,,,,
764752,001,2022-11-20_23h56.35.981,Info_measure_main_exp,2022.2.2,MacIntel,60.0024001,,,,,,,,,,,,,,,,,,masks/mask_001.jpg,,,,,,,,,,,,,,,,,,,,,,,,,,,,,,,,,,,,,,,,,,,,,,,,0,2,2,0,1,,,,,,,,,,,,,,,,,,,,,,,,,,,,,,,,,,,,,,,,,
764752,001,2022-11-20_23h56.35.981,Info_measure_main_exp,2022.2.2,MacIntel,60.0024001,,,,,,,,,,,,,,,,,,masks/mask_002.jpg,,,,,,,,,,,,,,,,,,,,,,,,,,,,,,,,,,,,,,,,,,,,,,,,0,3,3,1,1,,,,,,,,,,,,,,,,,,,,,,,,,,,,,,,,,,,,,,,,,
764752,001,2022-11-20_23h56.35.981,Info_measure_main_exp,2022.2.2,MacIntel,60.0024001,,,,,,,,,,,,,,,,,,masks/mask_005.jpg,,,,,,,,,,,,,,,,,,,,,,,,,,,,,,,,,,,,,,,,,,,,,,,,0,4,4,4,1,,,,,,,,,,,,,,,,,,,,,,,,,,,,,,,,,,,,,,,,,
764752,001,2022-11-20_23h56.35.981,Info_measure_main_exp,2022.2.2,MacIntel,60.0024001,,,,,,,,,,,,,,,,,,,,,,,,,,,,,,6,2.3504,1,,,,,,,,,,,,0,131,5,5,2190,2166,absent_patch/patch0002190.jpg,absent_patch/patch0002166.jpg,,,,,,,,,,,,,,,,,,,,0.150399306,0.043736979,1,0,0,response1disk,17,-0.007825521,-0.001775174,1,0,0,center_square,0,16,16,50,1,,,,,,,,,,,,,,,,,,,,,,,
764752,001,2022-11-20_23h56.35.981,Info_measure_main_exp,2022.2.2,MacIntel,60.0024001,,,,,,,,,,,,,,,,,,masks/mask_005.jpg,,,,,,,,,,,,,,,,,,,,,,,,,,,,,,,,,,,,,,,,,,,0,0,0,4,1,,,,,,,,,,,,,,,,,,,,,,,,,,,,,,,,,,,,,,,,,,,,,,
764752,001,2022-11-20_23h56.35.981,Info_measure_main_exp,2022.2.2,MacIntel,60.0024001,,,,,,,,,,,,,,,,,,masks/mask_001.jpg,,,,,,,,,,,,,,,,,,,,,,,,,,,,,,,,,,,,,,,,,,,0,1,1,0,1,,,,,,,,,,,,,,,,,,,,,,,,,,,,,,,,,,,,,,,,,,,,,,
764752,001,2022-11-20_23h56.35.981,Info_measure_main_exp,2022.2.2,MacIntel,60.0024001,,,,,,,,,,,,,,,,,,masks/mask_004.jpg,,,,,,,,,,,,,,,,,,,,,,,,,,,,,,,,,,,,,,,,,,,0,2,2,3,1,,,,,,,,,,,,,,,,,,,,,,,,,,,,,,,,,,,,,,,,,,,,,,
764752,001,2022-11-20_23h56.35.981,Info_measure_main_exp,2022.2.2,MacIntel,60.0024001,,,,,,,,,,,,,,,,,,masks/mask_003.jpg,,,,,,,,,,,,,,,,,,,,,,,,,,,,,,,,,,,,,,,,,,,0,3,3,2,1,,,,,,,,,,,,,,,,,,,,,,,,,,,,,,,,,,,,,,,,,,,,,,
764752,001,2022-11-20_23h56.35.981,Info_measure_main_exp,2022.2.2,MacIntel,60.0024001,,,,,,,,,,,,,,,,,,masks/mask_002.jpg,,,,,,,,,,,,,,,,,,,,,,,,,,,,,,,,,,,,,,,,,,,0,4,4,1,1,,,,,,,,,,,,,,,,,,,,,,,,,,,,,,,,,,,,,,,,,,,,,,
764752,001,2022-11-20_23h56.35.981,Info_measure_main_exp,2022.2.2,MacIntel,60.0024001,,,,,,,,,,,,,,,,,,masks/mask_004.jpg,,,,,,,,,,,,,,,,,,,,,,,,,,,,,,,,,,,,,,,,,,,,,,,,0,0,0,3,1,,,,,,,,,,,,,,,,,,,,,,,,,,,,,,,,,,,,,,,,,
764752,001,2022-11-20_23h56.35.981,Info_measure_main_exp,2022.2.2,MacIntel,60.0024001,,,,,,,,,,,,,,,,,,masks/mask_003.jpg,,,,,,,,,,,,,,,,,,,,,,,,,,,,,,,,,,,,,,,,,,,,,,,,0,1,1,2,1,,,,,,,,,,,,,,,,,,,,,,,,,,,,,,,,,,,,,,,,,
764752,001,2022-11-20_23h56.35.981,Info_measure_main_exp,2022.2.2,MacIntel,60.0024001,,,,,,,,,,,,,,,,,,masks/mask_005.jpg,,,,,,,,,,,,,,,,,,,,,,,,,,,,,,,,,,,,,,,,,,,,,,,,0,2,2,4,1,,,,,,,,,,,,,,,,,,,,,,,,,,,,,,,,,,,,,,,,,
764752,001,2022-11-20_23h56.35.981,Info_measure_main_exp,2022.2.2,MacIntel,60.0024001,,,,,,,,,,,,,,,,,,masks/mask_002.jpg,,,,,,,,,,,,,,,,,,,,,,,,,,,,,,,,,,,,,,,,,,,,,,,,0,3,3,1,1,,,,,,,,,,,,,,,,,,,,,,,,,,,,,,,,,,,,,,,,,
764752,001,2022-11-20_23h56.35.981,Info_measure_main_exp,2022.2.2,MacIntel,60.0024001,,,,,,,,,,,,,,,,,,masks/mask_001.jpg,,,,,,,,,,,,,,,,,,,,,,,,,,,,,,,,,,,,,,,,,,,,,,,,0,4,4,0,1,,,,,,,,,,,,,,,,,,,,,,,,,,,,,,,,,,,,,,,,,
764752,001,2022-11-20_23h56.35.981,Info_measure_main_exp,2022.2.2,MacIntel,60.0024001,,,,,,,,,,,,,,,,,,,,,,,,,,,,,,2,1.8161,1,,,,,,,,,,,,0,131,5,5,2082,2250,absent_patch/patch0002082.jpg,absent_patch/patch0002250.jpg,,,,,,,,,,,,,,,,,,,,-0.07265191,-0.033845486,1,0,0,response5disk,18,-0.001592882,-0.015117188,1,0,0,center_square,0,17,17,3,1,,,,,,,,,,,,,,,,,,,,,,,
764752,001,2022-11-20_23h56.35.981,Info_measure_main_exp,2022.2.2,MacIntel,60.0024001,,,,,,,,,,,,,,,,,,masks/mask_005.jpg,,,,,,,,,,,,,,,,,,,,,,,,,,,,,,,,,,,,,,,,,,,0,0,0,4,1,,,,,,,,,,,,,,,,,,,,,,,,,,,,,,,,,,,,,,,,,,,,,,
764752,001,2022-11-20_23h56.35.981,Info_measure_main_exp,2022.2.2,MacIntel,60.0024001,,,,,,,,,,,,,,,,,,masks/mask_003.jpg,,,,,,,,,,,,,,,,,,,,,,,,,,,,,,,,,,,,,,,,,,,0,1,1,2,1,,,,,,,,,,,,,,,,,,,,,,,,,,,,,,,,,,,,,,,,,,,,,,
764752,001,2022-11-20_23h56.35.981,Info_measure_main_exp,2022.2.2,MacIntel,60.0024001,,,,,,,,,,,,,,,,,,masks/mask_001.jpg,,,,,,,,,,,,,,,,,,,,,,,,,,,,,,,,,,,,,,,,,,,0,2,2,0,1,,,,,,,,,,,,,,,,,,,,,,,,,,,,,,,,,,,,,,,,,,,,,,
764752,001,2022-11-20_23h56.35.981,Info_measure_main_exp,2022.2.2,MacIntel,60.0024001,,,,,,,,,,,,,,,,,,masks/mask_004.jpg,,,,,,,,,,,,,,,,,,,,,,,,,,,,,,,,,,,,,,,,,,,0,3,3,3,1,,,,,,,,,,,,,,,,,,,,,,,,,,,,,,,,,,,,,,,,,,,,,,
764752,001,2022-11-20_23h56.35.981,Info_measure_main_exp,2022.2.2,MacIntel,60.0024001,,,,,,,,,,,,,,,,,,masks/mask_002.jpg,,,,,,,,,,,,,,,,,,,,,,,,,,,,,,,,,,,,,,,,,,,0,4,4,1,1,,,,,,,,,,,,,,,,,,,,,,,,,,,,,,,,,,,,,,,,,,,,,,
764752,001,2022-11-20_23h56.35.981,Info_measure_main_exp,2022.2.2,MacIntel,60.0024001,,,,,,,,,,,,,,,,,,masks/mask_004.jpg,,,,,,,,,,,,,,,,,,,,,,,,,,,,,,,,,,,,,,,,,,,,,,,,0,0,0,3,1,,,,,,,,,,,,,,,,,,,,,,,,,,,,,,,,,,,,,,,,,
764752,001,2022-11-20_23h56.35.981,Info_measure_main_exp,2022.2.2,MacIntel,60.0024001,,,,,,,,,,,,,,,,,,masks/mask_005.jpg,,,,,,,,,,,,,,,,,,,,,,,,,,,,,,,,,,,,,,,,,,,,,,,,0,1,1,4,1,,,,,,,,,,,,,,,,,,,,,,,,,,,,,,,,,,,,,,,,,
764752,001,2022-11-20_23h56.35.981,Info_measure_main_exp,2022.2.2,MacIntel,60.0024001,,,,,,,,,,,,,,,,,,masks/mask_003.jpg,,,,,,,,,,,,,,,,,,,,,,,,,,,,,,,,,,,,,,,,,,,,,,,,0,2,2,2,1,,,,,,,,,,,,,,,,,,,,,,,,,,,,,,,,,,,,,,,,,
764752,001,2022-11-20_23h56.35.981,Info_measure_main_exp,2022.2.2,MacIntel,60.0024001,,,,,,,,,,,,,,,,,,masks/mask_002.jpg,,,,,,,,,,,,,,,,,,,,,,,,,,,,,,,,,,,,,,,,,,,,,,,,0,3,3,1,1,,,,,,,,,,,,,,,,,,,,,,,,,,,,,,,,,,,,,,,,,
764752,001,2022-11-20_23h56.35.981,Info_measure_main_exp,2022.2.2,MacIntel,60.0024001,,,,,,,,,,,,,,,,,,masks/mask_001.jpg,,,,,,,,,,,,,,,,,,,,,,,,,,,,,,,,,,,,,,,,,,,,,,,,0,4,4,0,1,,,,,,,,,,,,,,,,,,,,,,,,,,,,,,,,,,,,,,,,,
764752,001,2022-11-20_23h56.35.981,Info_measure_main_exp,2022.2.2,MacIntel,60.0024001,,,,,,,,,,,,,,,,,,,,,,,,,,,,,,6,2.4494,1,,,,,,,,,,,,0,131,5,5,2190,1986,absent_patch/patch0002190.jpg,absent_patch/patch0001986.jpg,,,,,,,,,,,,,,,,,,,,0.157413194,0.059978299,1,0,0,response1disk,19,-0.007217882,0.00500434,1,0,0,center_square,0,18,18,111,1,,,,,,,,,,,,,,,,,,,,,,,
764752,001,2022-11-20_23h56.35.981,Info_measure_main_exp,2022.2.2,MacIntel,60.0024001,,,,,,,,,,,,,,,,,,masks/mask_001.jpg,,,,,,,,,,,,,,,,,,,,,,,,,,,,,,,,,,,,,,,,,,,0,0,0,0,1,,,,,,,,,,,,,,,,,,,,,,,,,,,,,,,,,,,,,,,,,,,,,,
764752,001,2022-11-20_23h56.35.981,Info_measure_main_exp,2022.2.2,MacIntel,60.0024001,,,,,,,,,,,,,,,,,,masks/mask_003.jpg,,,,,,,,,,,,,,,,,,,,,,,,,,,,,,,,,,,,,,,,,,,0,1,1,2,1,,,,,,,,,,,,,,,,,,,,,,,,,,,,,,,,,,,,,,,,,,,,,,
764752,001,2022-11-20_23h56.35.981,Info_measure_main_exp,2022.2.2,MacIntel,60.0024001,,,,,,,,,,,,,,,,,,masks/mask_004.jpg,,,,,,,,,,,,,,,,,,,,,,,,,,,,,,,,,,,,,,,,,,,0,2,2,3,1,,,,,,,,,,,,,,,,,,,,,,,,,,,,,,,,,,,,,,,,,,,,,,
764752,001,2022-11-20_23h56.35.981,Info_measure_main_exp,2022.2.2,MacIntel,60.0024001,,,,,,,,,,,,,,,,,,masks/mask_002.jpg,,,,,,,,,,,,,,,,,,,,,,,,,,,,,,,,,,,,,,,,,,,0,3,3,1,1,,,,,,,,,,,,,,,,,,,,,,,,,,,,,,,,,,,,,,,,,,,,,,
764752,001,2022-11-20_23h56.35.981,Info_measure_main_exp,2022.2.2,MacIntel,60.0024001,,,,,,,,,,,,,,,,,,masks/mask_005.jpg,,,,,,,,,,,,,,,,,,,,,,,,,,,,,,,,,,,,,,,,,,,0,4,4,4,1,,,,,,,,,,,,,,,,,,,,,,,,,,,,,,,,,,,,,,,,,,,,,,
764752,001,2022-11-20_23h56.35.981,Info_measure_main_exp,2022.2.2,MacIntel,60.0024001,,,,,,,,,,,,,,,,,,masks/mask_002.jpg,,,,,,,,,,,,,,,,,,,,,,,,,,,,,,,,,,,,,,,,,,,,,,,,0,0,0,1,1,,,,,,,,,,,,,,,,,,,,,,,,,,,,,,,,,,,,,,,,,
764752,001,2022-11-20_23h56.35.981,Info_measure_main_exp,2022.2.2,MacIntel,60.0024001,,,,,,,,,,,,,,,,,,masks/mask_001.jpg,,,,,,,,,,,,,,,,,,,,,,,,,,,,,,,,,,,,,,,,,,,,,,,,0,1,1,0,1,,,,,,,,,,,,,,,,,,,,,,,,,,,,,,,,,,,,,,,,,
764752,001,2022-11-20_23h56.35.981,Info_measure_main_exp,2022.2.2,MacIntel,60.0024001,,,,,,,,,,,,,,,,,,masks/mask_003.jpg,,,,,,,,,,,,,,,,,,,,,,,,,,,,,,,,,,,,,,,,,,,,,,,,0,2,2,2,1,,,,,,,,,,,,,,,,,,,,,,,,,,,,,,,,,,,,,,,,,
764752,001,2022-11-20_23h56.35.981,Info_measure_main_exp,2022.2.2,MacIntel,60.0024001,,,,,,,,,,,,,,,,,,masks/mask_005.jpg,,,,,,,,,,,,,,,,,,,,,,,,,,,,,,,,,,,,,,,,,,,,,,,,0,3,3,4,1,,,,,,,,,,,,,,,,,,,,,,,,,,,,,,,,,,,,,,,,,
764752,001,2022-11-20_23h56.35.981,Info_measure_main_exp,2022.2.2,MacIntel,60.0024001,,,,,,,,,,,,,,,,,,masks/mask_004.jpg,,,,,,,,,,,,,,,,,,,,,,,,,,,,,,,,,,,,,,,,,,,,,,,,0,4,4,3,1,,,,,,,,,,,,,,,,,,,,,,,,,,,,,,,,,,,,,,,,,
764752,001,2022-11-20_23h56.35.981,Info_measure_main_exp,2022.2.2,MacIntel,60.0024001,,,,,,,,,,,,,,,,,,,,,,,,,,,,,,4,3.4332,1,,,,,,,,,,,,0,131,5,5,2166,1986,absent_patch/patch0002166.jpg,absent_patch/patch0001986.jpg,,,,,,,,,,,,,,,,,,,,0.017695313,-0.133463542,1,0,0,response3disk,20,0.004492187,0.013324653,1,0,0,center_square,0,19,19,47,1,,,,,,,,,,,,,,,,,,,,,,,
764752,001,2022-11-20_23h56.35.981,Info_measure_main_exp,2022.2.2,MacIntel,60.0024001,,,,,,,,,,,,,,,,,,masks/mask_003.jpg,,,,,,,,,,,,,,,,,,,,,,,,,,,,,,,,,,,,,,,,,,,0,0,0,2,1,,,,,,,,,,,,,,,,,,,,,,,,,,,,,,,,,,,,,,,,,,,,,,
764752,001,2022-11-20_23h56.35.981,Info_measure_main_exp,2022.2.2,MacIntel,60.0024001,,,,,,,,,,,,,,,,,,masks/mask_004.jpg,,,,,,,,,,,,,,,,,,,,,,,,,,,,,,,,,,,,,,,,,,,0,1,1,3,1,,,,,,,,,,,,,,,,,,,,,,,,,,,,,,,,,,,,,,,,,,,,,,
764752,001,2022-11-20_23h56.35.981,Info_measure_main_exp,2022.2.2,MacIntel,60.0024001,,,,,,,,,,,,,,,,,,masks/mask_001.jpg,,,,,,,,,,,,,,,,,,,,,,,,,,,,,,,,,,,,,,,,,,,0,2,2,0,1,,,,,,,,,,,,,,,,,,,,,,,,,,,,,,,,,,,,,,,,,,,,,,
764752,001,2022-11-20_23h56.35.981,Info_measure_main_exp,2022.2.2,MacIntel,60.0024001,,,,,,,,,,,,,,,,,,masks/mask_002.jpg,,,,,,,,,,,,,,,,,,,,,,,,,,,,,,,,,,,,,,,,,,,0,3,3,1,1,,,,,,,,,,,,,,,,,,,,,,,,,,,,,,,,,,,,,,,,,,,,,,
764752,001,2022-11-20_23h56.35.981,Info_measure_main_exp,2022.2.2,MacIntel,60.0024001,,,,,,,,,,,,,,,,,,masks/mask_005.jpg,,,,,,,,,,,,,,,,,,,,,,,,,,,,,,,,,,,,,,,,,,,0,4,4,4,1,,,,,,,,,,,,,,,,,,,,,,,,,,,,,,,,,,,,,,,,,,,,,,
764752,001,2022-11-20_23h56.35.981,Info_measure_main_exp,2022.2.2,MacIntel,60.0024001,,,,,,,,,,,,,,,,,,masks/mask_005.jpg,,,,,,,,,,,,,,,,,,,,,,,,,,,,,,,,,,,,,,,,,,,,,,,,0,0,0,4,1,,,,,,,,,,,,,,,,,,,,,,,,,,,,,,,,,,,,,,,,,
764752,001,2022-11-20_23h56.35.981,Info_measure_main_exp,2022.2.2,MacIntel,60.0024001,,,,,,,,,,,,,,,,,,masks/mask_004.jpg,,,,,,,,,,,,,,,,,,,,,,,,,,,,,,,,,,,,,,,,,,,,,,,,0,1,1,3,1,,,,,,,,,,,,,,,,,,,,,,,,,,,,,,,,,,,,,,,,,
764752,001,2022-11-20_23h56.35.981,Info_measure_main_exp,2022.2.2,MacIntel,60.0024001,,,,,,,,,,,,,,,,,,masks/mask_001.jpg,,,,,,,,,,,,,,,,,,,,,,,,,,,,,,,,,,,,,,,,,,,,,,,,0,2,2,0,1,,,,,,,,,,,,,,,,,,,,,,,,,,,,,,,,,,,,,,,,,
764752,001,2022-11-20_23h56.35.981,Info_measure_main_exp,2022.2.2,MacIntel,60.0024001,,,,,,,,,,,,,,,,,,masks/mask_002.jpg,,,,,,,,,,,,,,,,,,,,,,,,,,,,,,,,,,,,,,,,,,,,,,,,0,3,3,1,1,,,,,,,,,,,,,,,,,,,,,,,,,,,,,,,,,,,,,,,,,
764752,001,2022-11-20_23h56.35.981,Info_measure_main_exp,2022.2.2,MacIntel,60.0024001,,,,,,,,,,,,,,,,,,masks/mask_003.jpg,,,,,,,,,,,,,,,,,,,,,,,,,,,,,,,,,,,,,,,,,,,,,,,,0,4,4,2,1,,,,,,,,,,,,,,,,,,,,,,,,,,,,,,,,,,,,,,,,,
764752,001,2022-11-20_23h56.35.981,Info_measure_main_exp,2022.2.2,MacIntel,60.0024001,,,,,,,,,,,,,,,,,,,,,,,,,,,,,,5,1.9682,1,,,,,,,,,,,,0,131,5,5,2250,2298,absent_patch/patch0002250.jpg,absent_patch/patch0002298.jpg,,,,,,,,,,,,,,,,,,,,0.159045139,-0.037868924,1,0,0,response3disk,21,-0.014205729,0.005668403,1,0,0,center_square,0,20,20,59,1,,,,,,,,,,,,,,,,,,,,,,,
764752,001,2022-11-20_23h56.35.981,Info_measure_main_exp,2022.2.2,MacIntel,60.0024001,,,,,,,,,,,,,,,,,,masks/mask_003.jpg,,,,,,,,,,,,,,,,,,,,,,,,,,,,,,,,,,,,,,,,,,,0,0,0,2,1,,,,,,,,,,,,,,,,,,,,,,,,,,,,,,,,,,,,,,,,,,,,,,
764752,001,2022-11-20_23h56.35.981,Info_measure_main_exp,2022.2.2,MacIntel,60.0024001,,,,,,,,,,,,,,,,,,masks/mask_002.jpg,,,,,,,,,,,,,,,,,,,,,,,,,,,,,,,,,,,,,,,,,,,0,1,1,1,1,,,,,,,,,,,,,,,,,,,,,,,,,,,,,,,,,,,,,,,,,,,,,,
764752,001,2022-11-20_23h56.35.981,Info_measure_main_exp,2022.2.2,MacIntel,60.0024001,,,,,,,,,,,,,,,,,,masks/mask_005.jpg,,,,,,,,,,,,,,,,,,,,,,,,,,,,,,,,,,,,,,,,,,,0,2,2,4,1,,,,,,,,,,,,,,,,,,,,,,,,,,,,,,,,,,,,,,,,,,,,,,
764752,001,2022-11-20_23h56.35.981,Info_measure_main_exp,2022.2.2,MacIntel,60.0024001,,,,,,,,,,,,,,,,,,masks/mask_001.jpg,,,,,,,,,,,,,,,,,,,,,,,,,,,,,,,,,,,,,,,,,,,0,3,3,0,1,,,,,,,,,,,,,,,,,,,,,,,,,,,,,,,,,,,,,,,,,,,,,,
764752,001,2022-11-20_23h56.35.981,Info_measure_main_exp,2022.2.2,MacIntel,60.0024001,,,,,,,,,,,,,,,,,,masks/mask_004.jpg,,,,,,,,,,,,,,,,,,,,,,,,,,,,,,,,,,,,,,,,,,,0,4,4,3,1,,,,,,,,,,,,,,,,,,,,,,,,,,,,,,,,,,,,,,,,,,,,,,
764752,001,2022-11-20_23h56.35.981,Info_measure_main_exp,2022.2.2,MacIntel,60.0024001,,,,,,,,,,,,,,,,,,masks/mask_004.jpg,,,,,,,,,,,,,,,,,,,,,,,,,,,,,,,,,,,,,,,,,,,,,,,,0,0,0,3,1,,,,,,,,,,,,,,,,,,,,,,,,,,,,,,,,,,,,,,,,,
764752,001,2022-11-20_23h56.35.981,Info_measure_main_exp,2022.2.2,MacIntel,60.0024001,,,,,,,,,,,,,,,,,,masks/mask_005.jpg,,,,,,,,,,,,,,,,,,,,,,,,,,,,,,,,,,,,,,,,,,,,,,,,0,1,1,4,1,,,,,,,,,,,,,,,,,,,,,,,,,,,,,,,,,,,,,,,,,
764752,001,2022-11-20_23h56.35.981,Info_measure_main_exp,2022.2.2,MacIntel,60.0024001,,,,,,,,,,,,,,,,,,masks/mask_003.jpg,,,,,,,,,,,,,,,,,,,,,,,,,,,,,,,,,,,,,,,,,,,,,,,,0,2,2,2,1,,,,,,,,,,,,,,,,,,,,,,,,,,,,,,,,,,,,,,,,,
764752,001,2022-11-20_23h56.35.981,Info_measure_main_exp,2022.2.2,MacIntel,60.0024001,,,,,,,,,,,,,,,,,,masks/mask_002.jpg,,,,,,,,,,,,,,,,,,,,,,,,,,,,,,,,,,,,,,,,,,,,,,,,0,3,3,1,1,,,,,,,,,,,,,,,,,,,,,,,,,,,,,,,,,,,,,,,,,
764752,001,2022-11-20_23h56.35.981,Info_measure_main_exp,2022.2.2,MacIntel,60.0024001,,,,,,,,,,,,,,,,,,masks/mask_001.jpg,,,,,,,,,,,,,,,,,,,,,,,,,,,,,,,,,,,,,,,,,,,,,,,,0,4,4,0,1,,,,,,,,,,,,,,,,,,,,,,,,,,,,,,,,,,,,,,,,,
764752,001,2022-11-20_23h56.35.981,Info_measure_main_exp,2022.2.2,MacIntel,60.0024001,,,,,,,,,,,,,,,,,,,,,,,,,,,,,,0,1.2826,1,,,,,,,,,,,,0,131,5,5,2082,1974,absent_patch/patch0002082.jpg,absent_patch/patch0001974.jpg,,,,,,,,,,,,,,,,,,,,-0.047838542,0.08828125,1,0,0,response7disk,22,-0.002591146,0.008719618,1,0,0,center_square,0,21,21,26,1,,,,,,,,,,,,,,,,,,,,,,,
764752,001,2022-11-20_23h56.35.981,Info_measure_main_exp,2022.2.2,MacIntel,60.0024001,,,,,,,,,,,,,,,,,,masks/mask_005.jpg,,,,,,,,,,,,,,,,,,,,,,,,,,,,,,,,,,,,,,,,,,,0,0,0,4,1,,,,,,,,,,,,,,,,,,,,,,,,,,,,,,,,,,,,,,,,,,,,,,
764752,001,2022-11-20_23h56.35.981,Info_measure_main_exp,2022.2.2,MacIntel,60.0024001,,,,,,,,,,,,,,,,,,masks/mask_003.jpg,,,,,,,,,,,,,,,,,,,,,,,,,,,,,,,,,,,,,,,,,,,0,1,1,2,1,,,,,,,,,,,,,,,,,,,,,,,,,,,,,,,,,,,,,,,,,,,,,,
764752,001,2022-11-20_23h56.35.981,Info_measure_main_exp,2022.2.2,MacIntel,60.0024001,,,,,,,,,,,,,,,,,,masks/mask_002.jpg,,,,,,,,,,,,,,,,,,,,,,,,,,,,,,,,,,,,,,,,,,,0,2,2,1,1,,,,,,,,,,,,,,,,,,,,,,,,,,,,,,,,,,,,,,,,,,,,,,
764752,001,2022-11-20_23h56.35.981,Info_measure_main_exp,2022.2.2,MacIntel,60.0024001,,,,,,,,,,,,,,,,,,masks/mask_001.jpg,,,,,,,,,,,,,,,,,,,,,,,,,,,,,,,,,,,,,,,,,,,0,3,3,0,1,,,,,,,,,,,,,,,,,,,,,,,,,,,,,,,,,,,,,,,,,,,,,,
764752,001,2022-11-20_23h56.35.981,Info_measure_main_exp,2022.2.2,MacIntel,60.0024001,,,,,,,,,,,,,,,,,,masks/mask_004.jpg,,,,,,,,,,,,,,,,,,,,,,,,,,,,,,,,,,,,,,,,,,,0,4,4,3,1,,,,,,,,,,,,,,,,,,,,,,,,,,,,,,,,,,,,,,,,,,,,,,
764752,001,2022-11-20_23h56.35.981,Info_measure_main_exp,2022.2.2,MacIntel,60.0024001,,,,,,,,,,,,,,,,,,masks/mask_005.jpg,,,,,,,,,,,,,,,,,,,,,,,,,,,,,,,,,,,,,,,,,,,,,,,,0,0,0,4,1,,,,,,,,,,,,,,,,,,,,,,,,,,,,,,,,,,,,,,,,,
764752,001,2022-11-20_23h56.35.981,Info_measure_main_exp,2022.2.2,MacIntel,60.0024001,,,,,,,,,,,,,,,,,,masks/mask_003.jpg,,,,,,,,,,,,,,,,,,,,,,,,,,,,,,,,,,,,,,,,,,,,,,,,0,1,1,2,1,,,,,,,,,,,,,,,,,,,,,,,,,,,,,,,,,,,,,,,,,
764752,001,2022-11-20_23h56.35.981,Info_measure_main_exp,2022.2.2,MacIntel,60.0024001,,,,,,,,,,,,,,,,,,masks/mask_004.jpg,,,,,,,,,,,,,,,,,,,,,,,,,,,,,,,,,,,,,,,,,,,,,,,,0,2,2,3,1,,,,,,,,,,,,,,,,,,,,,,,,,,,,,,,,,,,,,,,,,
764752,001,2022-11-20_23h56.35.981,Info_measure_main_exp,2022.2.2,MacIntel,60.0024001,,,,,,,,,,,,,,,,,,masks/mask_002.jpg,,,,,,,,,,,,,,,,,,,,,,,,,,,,,,,,,,,,,,,,,,,,,,,,0,3,3,1,1,,,,,,,,,,,,,,,,,,,,,,,,,,,,,,,,,,,,,,,,,
764752,001,2022-11-20_23h56.35.981,Info_measure_main_exp,2022.2.2,MacIntel,60.0024001,,,,,,,,,,,,,,,,,,masks/mask_001.jpg,,,,,,,,,,,,,,,,,,,,,,,,,,,,,,,,,,,,,,,,,,,,,,,,0,4,4,0,1,,,,,,,,,,,,,,,,,,,,,,,,,,,,,,,,,,,,,,,,,
764752,001,2022-11-20_23h56.35.981,Info_measure_main_exp,2022.2.2,MacIntel,60.0024001,,,,,,,,,,,,,,,,,,,,,,,,,,,,,,6,7.1174,1,,,,,,,,,,,,0,131,5,5,1974,2238,absent_patch/patch0001974.jpg,absent_patch/patch0002238.jpg,,,,,,,,,,,,,,,,,,,,0.147664931,0.076293403,1,0,0,response1disk,23,0.008789063,0.011219618,1,0,0,center_square,0,22,22,95,1,,,,,,,,,,,,,,,,,,,,,,,
764752,001,2022-11-20_23h56.35.981,Info_measure_main_exp,2022.2.2,MacIntel,60.0024001,,,,,,,,,,,,,,,,,,masks/mask_001.jpg,,,,,,,,,,,,,,,,,,,,,,,,,,,,,,,,,,,,,,,,,,,0,0,0,0,1,,,,,,,,,,,,,,,,,,,,,,,,,,,,,,,,,,,,,,,,,,,,,,
764752,001,2022-11-20_23h56.35.981,Info_measure_main_exp,2022.2.2,MacIntel,60.0024001,,,,,,,,,,,,,,,,,,masks/mask_003.jpg,,,,,,,,,,,,,,,,,,,,,,,,,,,,,,,,,,,,,,,,,,,0,1,1,2,1,,,,,,,,,,,,,,,,,,,,,,,,,,,,,,,,,,,,,,,,,,,,,,
764752,001,2022-11-20_23h56.35.981,Info_measure_main_exp,2022.2.2,MacIntel,60.0024001,,,,,,,,,,,,,,,,,,masks/mask_005.jpg,,,,,,,,,,,,,,,,,,,,,,,,,,,,,,,,,,,,,,,,,,,0,2,2,4,1,,,,,,,,,,,,,,,,,,,,,,,,,,,,,,,,,,,,,,,,,,,,,,
764752,001,2022-11-20_23h56.35.981,Info_measure_main_exp,2022.2.2,MacIntel,60.0024001,,,,,,,,,,,,,,,,,,masks/mask_002.jpg,,,,,,,,,,,,,,,,,,,,,,,,,,,,,,,,,,,,,,,,,,,0,3,3,1,1,,,,,,,,,,,,,,,,,,,,,,,,,,,,,,,,,,,,,,,,,,,,,,
764752,001,2022-11-20_23h56.35.981,Info_measure_main_exp,2022.2.2,MacIntel,60.0024001,,,,,,,,,,,,,,,,,,masks/mask_004.jpg,,,,,,,,,,,,,,,,,,,,,,,,,,,,,,,,,,,,,,,,,,,0,4,4,3,1,,,,,,,,,,,,,,,,,,,,,,,,,,,,,,,,,,,,,,,,,,,,,,
764752,001,2022-11-20_23h56.35.981,Info_measure_main_exp,2022.2.2,MacIntel,60.0024001,,,,,,,,,,,,,,,,,,masks/mask_005.jpg,,,,,,,,,,,,,,,,,,,,,,,,,,,,,,,,,,,,,,,,,,,,,,,,0,0,0,4,1,,,,,,,,,,,,,,,,,,,,,,,,,,,,,,,,,,,,,,,,,
764752,001,2022-11-20_23h56.35.981,Info_measure_main_exp,2022.2.2,MacIntel,60.0024001,,,,,,,,,,,,,,,,,,masks/mask_004.jpg,,,,,,,,,,,,,,,,,,,,,,,,,,,,,,,,,,,,,,,,,,,,,,,,0,1,1,3,1,,,,,,,,,,,,,,,,,,,,,,,,,,,,,,,,,,,,,,,,,
764752,001,2022-11-20_23h56.35.981,Info_measure_main_exp,2022.2.2,MacIntel,60.0024001,,,,,,,,,,,,,,,,,,masks/mask_001.jpg,,,,,,,,,,,,,,,,,,,,,,,,,,,,,,,,,,,,,,,,,,,,,,,,0,2,2,0,1,,,,,,,,,,,,,,,,,,,,,,,,,,,,,,,,,,,,,,,,,
764752,001,2022-11-20_23h56.35.981,Info_measure_main_exp,2022.2.2,MacIntel,60.0024001,,,,,,,,,,,,,,,,,,masks/mask_002.jpg,,,,,,,,,,,,,,,,,,,,,,,,,,,,,,,,,,,,,,,,,,,,,,,,0,3,3,1,1,,,,,,,,,,,,,,,,,,,,,,,,,,,,,,,,,,,,,,,,,
764752,001,2022-11-20_23h56.35.981,Info_measure_main_exp,2022.2.2,MacIntel,60.0024001,,,,,,,,,,,,,,,,,,masks/mask_003.jpg,,,,,,,,,,,,,,,,,,,,,,,,,,,,,,,,,,,,,,,,,,,,,,,,0,4,4,2,1,,,,,,,,,,,,,,,,,,,,,,,,,,,,,,,,,,,,,,,,,
764752,001,2022-11-20_23h56.35.981,Info_measure_main_exp,2022.2.2,MacIntel,60.0024001,,,,,,,,,,,,,,,,,,,,,,,,,,,,,,1,3.0841,1,,,,,,,,,,,,0,131,5,5,2298,2178,absent_patch/patch0002298.jpg,absent_patch/patch0002178.jpg,,,,,,,,,,,,,,,,,,,,-0.105529514,0.02890191,1,0,0,response7disk,24,-0.0003125,0.007795139,1,0,0,center_square,0,23,23,84,1,,,,,,,,,,,,,,,,,,,,,,,
764752,001,2022-11-20_23h56.35.981,Info_measure_main_exp,2022.2.2,MacIntel,60.0024001,,,,,,,,,,,,,,,,,,masks/mask_003.jpg,,,,,,,,,,,,,,,,,,,,,,,,,,,,,,,,,,,,,,,,,,,0,0,0,2,1,,,,,,,,,,,,,,,,,,,,,,,,,,,,,,,,,,,,,,,,,,,,,,
764752,001,2022-11-20_23h56.35.981,Info_measure_main_exp,2022.2.2,MacIntel,60.0024001,,,,,,,,,,,,,,,,,,masks/mask_004.jpg,,,,,,,,,,,,,,,,,,,,,,,,,,,,,,,,,,,,,,,,,,,0,1,1,3,1,,,,,,,,,,,,,,,,,,,,,,,,,,,,,,,,,,,,,,,,,,,,,,
764752,001,2022-11-20_23h56.35.981,Info_measure_main_exp,2022.2.2,MacIntel,60.0024001,,,,,,,,,,,,,,,,,,masks/mask_002.jpg,,,,,,,,,,,,,,,,,,,,,,,,,,,,,,,,,,,,,,,,,,,0,2,2,1,1,,,,,,,,,,,,,,,,,,,,,,,,,,,,,,,,,,,,,,,,,,,,,,
764752,001,2022-11-20_23h56.35.981,Info_measure_main_exp,2022.2.2,MacIntel,60.0024001,,,,,,,,,,,,,,,,,,masks/mask_001.jpg,,,,,,,,,,,,,,,,,,,,,,,,,,,,,,,,,,,,,,,,,,,0,3,3,0,1,,,,,,,,,,,,,,,,,,,,,,,,,,,,,,,,,,,,,,,,,,,,,,
764752,001,2022-11-20_23h56.35.981,Info_measure_main_exp,2022.2.2,MacIntel,60.0024001,,,,,,,,,,,,,,,,,,masks/mask_005.jpg,,,,,,,,,,,,,,,,,,,,,,,,,,,,,,,,,,,,,,,,,,,0,4,4,4,1,,,,,,,,,,,,,,,,,,,,,,,,,,,,,,,,,,,,,,,,,,,,,,
764752,001,2022-11-20_23h56.35.981,Info_measure_main_exp,2022.2.2,MacIntel,60.0024001,,,,,,,,,,,,,,,,,,masks/mask_001.jpg,,,,,,,,,,,,,,,,,,,,,,,,,,,,,,,,,,,,,,,,,,,,,,,,0,0,0,0,1,,,,,,,,,,,,,,,,,,,,,,,,,,,,,,,,,,,,,,,,,
764752,001,2022-11-20_23h56.35.981,Info_measure_main_exp,2022.2.2,MacIntel,60.0024001,,,,,,,,,,,,,,,,,,masks/mask_005.jpg,,,,,,,,,,,,,,,,,,,,,,,,,,,,,,,,,,,,,,,,,,,,,,,,0,1,1,4,1,,,,,,,,,,,,,,,,,,,,,,,,,,,,,,,,,,,,,,,,,
764752,001,2022-11-20_23h56.35.981,Info_measure_main_exp,2022.2.2,MacIntel,60.0024001,,,,,,,,,,,,,,,,,,masks/mask_002.jpg,,,,,,,,,,,,,,,,,,,,,,,,,,,,,,,,,,,,,,,,,,,,,,,,0,2,2,1,1,,,,,,,,,,,,,,,,,,,,,,,,,,,,,,,,,,,,,,,,,
764752,001,2022-11-20_23h56.35.981,Info_measure_main_exp,2022.2.2,MacIntel,60.0024001,,,,,,,,,,,,,,,,,,masks/mask_004.jpg,,,,,,,,,,,,,,,,,,,,,,,,,,,,,,,,,,,,,,,,,,,,,,,,0,3,3,3,1,,,,,,,,,,,,,,,,,,,,,,,,,,,,,,,,,,,,,,,,,
764752,001,2022-11-20_23h56.35.981,Info_measure_main_exp,2022.2.2,MacIntel,60.0024001,,,,,,,,,,,,,,,,,,masks/mask_003.jpg,,,,,,,,,,,,,,,,,,,,,,,,,,,,,,,,,,,,,,,,,,,,,,,,0,4,4,2,1,,,,,,,,,,,,,,,,,,,,,,,,,,,,,,,,,,,,,,,,,
764752,001,2022-11-20_23h56.35.981,Info_measure_main_exp,2022.2.2,MacIntel,60.0024001,,,,,,,,,,,,,,,,,,,,,,,,,,,,,,0,2.1839,1,,,,,,,,,,,,1,131,5,5,1,1,present_patch/cong_131_5_a.jpg,present_patch/cong_131_5_a.jpg,,,,,,,,,,,,,,,,,,,,-0.054761285,0.160694444,1,0,0,response7disk,25,0.012126736,-0.008967014,1,0,0,center_square,0,24,24,30,1,,,,,,,,,,,,,,,,,,,,,,,
764752,001,2022-11-20_23h56.35.981,Info_measure_main_exp,2022.2.2,MacIntel,60.0024001,,,,,,,,,,,,,,,,,,masks/mask_005.jpg,,,,,,,,,,,,,,,,,,,,,,,,,,,,,,,,,,,,,,,,,,,0,0,0,4,1,,,,,,,,,,,,,,,,,,,,,,,,,,,,,,,,,,,,,,,,,,,,,,
764752,001,2022-11-20_23h56.35.981,Info_measure_main_exp,2022.2.2,MacIntel,60.0024001,,,,,,,,,,,,,,,,,,masks/mask_001.jpg,,,,,,,,,,,,,,,,,,,,,,,,,,,,,,,,,,,,,,,,,,,0,1,1,0,1,,,,,,,,,,,,,,,,,,,,,,,,,,,,,,,,,,,,,,,,,,,,,,
764752,001,2022-11-20_23h56.35.981,Info_measure_main_exp,2022.2.2,MacIntel,60.0024001,,,,,,,,,,,,,,,,,,masks/mask_002.jpg,,,,,,,,,,,,,,,,,,,,,,,,,,,,,,,,,,,,,,,,,,,0,2,2,1,1,,,,,,,,,,,,,,,,,,,,,,,,,,,,,,,,,,,,,,,,,,,,,,
764752,001,2022-11-20_23h56.35.981,Info_measure_main_exp,2022.2.2,MacIntel,60.0024001,,,,,,,,,,,,,,,,,,masks/mask_003.jpg,,,,,,,,,,,,,,,,,,,,,,,,,,,,,,,,,,,,,,,,,,,0,3,3,2,1,,,,,,,,,,,,,,,,,,,,,,,,,,,,,,,,,,,,,,,,,,,,,,
764752,001,2022-11-20_23h56.35.981,Info_measure_main_exp,2022.2.2,MacIntel,60.0024001,,,,,,,,,,,,,,,,,,masks/mask_004.jpg,,,,,,,,,,,,,,,,,,,,,,,,,,,,,,,,,,,,,,,,,,,0,4,4,3,1,,,,,,,,,,,,,,,,,,,,,,,,,,,,,,,,,,,,,,,,,,,,,,
764752,001,2022-11-20_23h56.35.981,Info_measure_main_exp,2022.2.2,MacIntel,60.0024001,,,,,,,,,,,,,,,,,,masks/mask_002.jpg,,,,,,,,,,,,,,,,,,,,,,,,,,,,,,,,,,,,,,,,,,,,,,,,0,0,0,1,1,,,,,,,,,,,,,,,,,,,,,,,,,,,,,,,,,,,,,,,,,
764752,001,2022-11-20_23h56.35.981,Info_measure_main_exp,2022.2.2,MacIntel,60.0024001,,,,,,,,,,,,,,,,,,masks/mask_004.jpg,,,,,,,,,,,,,,,,,,,,,,,,,,,,,,,,,,,,,,,,,,,,,,,,0,1,1,3,1,,,,,,,,,,,,,,,,,,,,,,,,,,,,,,,,,,,,,,,,,
764752,001,2022-11-20_23h56.35.981,Info_measure_main_exp,2022.2.2,MacIntel,60.0024001,,,,,,,,,,,,,,,,,,masks/mask_001.jpg,,,,,,,,,,,,,,,,,,,,,,,,,,,,,,,,,,,,,,,,,,,,,,,,0,2,2,0,1,,,,,,,,,,,,,,,,,,,,,,,,,,,,,,,,,,,,,,,,,
764752,001,2022-11-20_23h56.35.981,Info_measure_main_exp,2022.2.2,MacIntel,60.0024001,,,,,,,,,,,,,,,,,,masks/mask_005.jpg,,,,,,,,,,,,,,,,,,,,,,,,,,,,,,,,,,,,,,,,,,,,,,,,0,3,3,4,1,,,,,,,,,,,,,,,,,,,,,,,,,,,,,,,,,,,,,,,,,
764752,001,2022-11-20_23h56.35.981,Info_measure_main_exp,2022.2.2,MacIntel,60.0024001,,,,,,,,,,,,,,,,,,masks/mask_003.jpg,,,,,,,,,,,,,,,,,,,,,,,,,,,,,,,,,,,,,,,,,,,,,,,,0,4,4,2,1,,,,,,,,,,,,,,,,,,,,,,,,,,,,,,,,,,,,,,,,,
764752,001,2022-11-20_23h56.35.981,Info_measure_main_exp,2022.2.2,MacIntel,60.0024001,,,,,,,,,,,,,,,,,,,,,,,,,,,,,,4,2.1671,1,,,,,,,,,,,,0,131,5,5,2214,2166,absent_patch/patch0002214.jpg,absent_patch/patch0002166.jpg,,,,,,,,,,,,,,,,,,,,0.023624132,-0.046080729,1,0,0,response3disk,26,0.001445312,-0.001345486,1,0,0,center_square,0,25,25,109,1,,,,,,,,,,,,,,,,,,,,,,,
764752,001,2022-11-20_23h56.35.981,Info_measure_main_exp,2022.2.2,MacIntel,60.0024001,,,,,,,,,,,,,,,,,,masks/mask_005.jpg,,,,,,,,,,,,,,,,,,,,,,,,,,,,,,,,,,,,,,,,,,,0,0,0,4,1,,,,,,,,,,,,,,,,,,,,,,,,,,,,,,,,,,,,,,,,,,,,,,
764752,001,2022-11-20_23h56.35.981,Info_measure_main_exp,2022.2.2,MacIntel,60.0024001,,,,,,,,,,,,,,,,,,masks/mask_004.jpg,,,,,,,,,,,,,,,,,,,,,,,,,,,,,,,,,,,,,,,,,,,0,1,1,3,1,,,,,,,,,,,,,,,,,,,,,,,,,,,,,,,,,,,,,,,,,,,,,,
764752,001,2022-11-20_23h56.35.981,Info_measure_main_exp,2022.2.2,MacIntel,60.0024001,,,,,,,,,,,,,,,,,,masks/mask_001.jpg,,,,,,,,,,,,,,,,,,,,,,,,,,,,,,,,,,,,,,,,,,,0,2,2,0,1,,,,,,,,,,,,,,,,,,,,,,,,,,,,,,,,,,,,,,,,,,,,,,
764752,001,2022-11-20_23h56.35.981,Info_measure_main_exp,2022.2.2,MacIntel,60.0024001,,,,,,,,,,,,,,,,,,masks/mask_002.jpg,,,,,,,,,,,,,,,,,,,,,,,,,,,,,,,,,,,,,,,,,,,0,3,3,1,1,,,,,,,,,,,,,,,,,,,,,,,,,,,,,,,,,,,,,,,,,,,,,,
764752,001,2022-11-20_23h56.35.981,Info_measure_main_exp,2022.2.2,MacIntel,60.0024001,,,,,,,,,,,,,,,,,,masks/mask_003.jpg,,,,,,,,,,,,,,,,,,,,,,,,,,,,,,,,,,,,,,,,,,,0,4,4,2,1,,,,,,,,,,,,,,,,,,,,,,,,,,,,,,,,,,,,,,,,,,,,,,
764752,001,2022-11-20_23h56.35.981,Info_measure_main_exp,2022.2.2,MacIntel,60.0024001,,,,,,,,,,,,,,,,,,masks/mask_003.jpg,,,,,,,,,,,,,,,,,,,,,,,,,,,,,,,,,,,,,,,,,,,,,,,,0,0,0,2,1,,,,,,,,,,,,,,,,,,,,,,,,,,,,,,,,,,,,,,,,,
764752,001,2022-11-20_23h56.35.981,Info_measure_main_exp,2022.2.2,MacIntel,60.0024001,,,,,,,,,,,,,,,,,,masks/mask_005.jpg,,,,,,,,,,,,,,,,,,,,,,,,,,,,,,,,,,,,,,,,,,,,,,,,0,1,1,4,1,,,,,,,,,,,,,,,,,,,,,,,,,,,,,,,,,,,,,,,,,
764752,001,2022-11-20_23h56.35.981,Info_measure_main_exp,2022.2.2,MacIntel,60.0024001,,,,,,,,,,,,,,,,,,masks/mask_002.jpg,,,,,,,,,,,,,,,,,,,,,,,,,,,,,,,,,,,,,,,,,,,,,,,,0,2,2,1,1,,,,,,,,,,,,,,,,,,,,,,,,,,,,,,,,,,,,,,,,,
764752,001,2022-11-20_23h56.35.981,Info_measure_main_exp,2022.2.2,MacIntel,60.0024001,,,,,,,,,,,,,,,,,,masks/mask_004.jpg,,,,,,,,,,,,,,,,,,,,,,,,,,,,,,,,,,,,,,,,,,,,,,,,0,3,3,3,1,,,,,,,,,,,,,,,,,,,,,,,,,,,,,,,,,,,,,,,,,
764752,001,2022-11-20_23h56.35.981,Info_measure_main_exp,2022.2.2,MacIntel,60.0024001,,,,,,,,,,,,,,,,,,masks/mask_001.jpg,,,,,,,,,,,,,,,,,,,,,,,,,,,,,,,,,,,,,,,,,,,,,,,,0,4,4,0,1,,,,,,,,,,,,,,,,,,,,,,,,,,,,,,,,,,,,,,,,,
764752,001,2022-11-20_23h56.35.981,Info_measure_main_exp,2022.2.2,MacIntel,60.0024001,,,,,,,,,,,,,,,,,,,,,,,,,,,,,,1,1.9201,1,,,,,,,,,,,,0,131,5,5,2250,2166,absent_patch/patch0002250.jpg,absent_patch/patch0002166.jpg,,,,,,,,,,,,,,,,,,,,-0.095434028,0.044166667,1,0,0,response7disk,27,0.005850694,0.010928819,1,0,0,center_square,0,26,26,60,1,,,,,,,,,,,,,,,,,,,,,,,
764752,001,2022-11-20_23h56.35.981,Info_measure_main_exp,2022.2.2,MacIntel,60.0024001,,,,,,,,,,,,,,,,,,masks/mask_003.jpg,,,,,,,,,,,,,,,,,,,,,,,,,,,,,,,,,,,,,,,,,,,0,0,0,2,1,,,,,,,,,,,,,,,,,,,,,,,,,,,,,,,,,,,,,,,,,,,,,,
764752,001,2022-11-20_23h56.35.981,Info_measure_main_exp,2022.2.2,MacIntel,60.0024001,,,,,,,,,,,,,,,,,,masks/mask_004.jpg,,,,,,,,,,,,,,,,,,,,,,,,,,,,,,,,,,,,,,,,,,,0,1,1,3,1,,,,,,,,,,,,,,,,,,,,,,,,,,,,,,,,,,,,,,,,,,,,,,
764752,001,2022-11-20_23h56.35.981,Info_measure_main_exp,2022.2.2,MacIntel,60.0024001,,,,,,,,,,,,,,,,,,masks/mask_001.jpg,,,,,,,,,,,,,,,,,,,,,,,,,,,,,,,,,,,,,,,,,,,0,2,2,0,1,,,,,,,,,,,,,,,,,,,,,,,,,,,,,,,,,,,,,,,,,,,,,,
764752,001,2022-11-20_23h56.35.981,Info_measure_main_exp,2022.2.2,MacIntel,60.0024001,,,,,,,,,,,,,,,,,,masks/mask_002.jpg,,,,,,,,,,,,,,,,,,,,,,,,,,,,,,,,,,,,,,,,,,,0,3,3,1,1,,,,,,,,,,,,,,,,,,,,,,,,,,,,,,,,,,,,,,,,,,,,,,
764752,001,2022-11-20_23h56.35.981,Info_measure_main_exp,2022.2.2,MacIntel,60.0024001,,,,,,,,,,,,,,,,,,masks/mask_005.jpg,,,,,,,,,,,,,,,,,,,,,,,,,,,,,,,,,,,,,,,,,,,0,4,4,4,1,,,,,,,,,,,,,,,,,,,,,,,,,,,,,,,,,,,,,,,,,,,,,,
764752,001,2022-11-20_23h56.35.981,Info_measure_main_exp,2022.2.2,MacIntel,60.0024001,,,,,,,,,,,,,,,,,,masks/mask_003.jpg,,,,,,,,,,,,,,,,,,,,,,,,,,,,,,,,,,,,,,,,,,,,,,,,0,0,0,2,1,,,,,,,,,,,,,,,,,,,,,,,,,,,,,,,,,,,,,,,,,
764752,001,2022-11-20_23h56.35.981,Info_measure_main_exp,2022.2.2,MacIntel,60.0024001,,,,,,,,,,,,,,,,,,masks/mask_002.jpg,,,,,,,,,,,,,,,,,,,,,,,,,,,,,,,,,,,,,,,,,,,,,,,,0,1,1,1,1,,,,,,,,,,,,,,,,,,,,,,,,,,,,,,,,,,,,,,,,,
764752,001,2022-11-20_23h56.35.981,Info_measure_main_exp,2022.2.2,MacIntel,60.0024001,,,,,,,,,,,,,,,,,,masks/mask_004.jpg,,,,,,,,,,,,,,,,,,,,,,,,,,,,,,,,,,,,,,,,,,,,,,,,0,2,2,3,1,,,,,,,,,,,,,,,,,,,,,,,,,,,,,,,,,,,,,,,,,
764752,001,2022-11-20_23h56.35.981,Info_measure_main_exp,2022.2.2,MacIntel,60.0024001,,,,,,,,,,,,,,,,,,masks/mask_001.jpg,,,,,,,,,,,,,,,,,,,,,,,,,,,,,,,,,,,,,,,,,,,,,,,,0,3,3,0,1,,,,,,,,,,,,,,,,,,,,,,,,,,,,,,,,,,,,,,,,,
764752,001,2022-11-20_23h56.35.981,Info_measure_main_exp,2022.2.2,MacIntel,60.0024001,,,,,,,,,,,,,,,,,,masks/mask_005.jpg,,,,,,,,,,,,,,,,,,,,,,,,,,,,,,,,,,,,,,,,,,,,,,,,0,4,4,4,1,,,,,,,,,,,,,,,,,,,,,,,,,,,,,,,,,,,,,,,,,
764752,001,2022-11-20_23h56.35.981,Info_measure_main_exp,2022.2.2,MacIntel,60.0024001,,,,,,,,,,,,,,,,,,,,,,,,,,,,,,6,1.9006,1,,,,,,,,,,,,0,131,5,5,2190,1974,absent_patch/patch0002190.jpg,absent_patch/patch0001974.jpg,,,,,,,,,,,,,,,,,,,,0.190017361,0.02969184,1,0,0,response1disk,28,-0.012929688,-0.007174479,1,0,0,center_square,0,27,27,119,1,,,,,,,,,,,,,,,,,,,,,,,
764752,001,2022-11-20_23h56.35.981,Info_measure_main_exp,2022.2.2,MacIntel,60.0024001,,,,,,,,,,,,,,,,,,masks/mask_005.jpg,,,,,,,,,,,,,,,,,,,,,,,,,,,,,,,,,,,,,,,,,,,0,0,0,4,1,,,,,,,,,,,,,,,,,,,,,,,,,,,,,,,,,,,,,,,,,,,,,,
764752,001,2022-11-20_23h56.35.981,Info_measure_main_exp,2022.2.2,MacIntel,60.0024001,,,,,,,,,,,,,,,,,,masks/mask_002.jpg,,,,,,,,,,,,,,,,,,,,,,,,,,,,,,,,,,,,,,,,,,,0,1,1,1,1,,,,,,,,,,,,,,,,,,,,,,,,,,,,,,,,,,,,,,,,,,,,,,
764752,001,2022-11-20_23h56.35.981,Info_measure_main_exp,2022.2.2,MacIntel,60.0024001,,,,,,,,,,,,,,,,,,masks/mask_004.jpg,,,,,,,,,,,,,,,,,,,,,,,,,,,,,,,,,,,,,,,,,,,0,2,2,3,1,,,,,,,,,,,,,,,,,,,,,,,,,,,,,,,,,,,,,,,,,,,,,,
764752,001,2022-11-20_23h56.35.981,Info_measure_main_exp,2022.2.2,MacIntel,60.0024001,,,,,,,,,,,,,,,,,,masks/mask_001.jpg,,,,,,,,,,,,,,,,,,,,,,,,,,,,,,,,,,,,,,,,,,,0,3,3,0,1,,,,,,,,,,,,,,,,,,,,,,,,,,,,,,,,,,,,,,,,,,,,,,
764752,001,2022-11-20_23h56.35.981,Info_measure_main_exp,2022.2.2,MacIntel,60.0024001,,,,,,,,,,,,,,,,,,masks/mask_003.jpg,,,,,,,,,,,,,,,,,,,,,,,,,,,,,,,,,,,,,,,,,,,0,4,4,2,1,,,,,,,,,,,,,,,,,,,,,,,,,,,,,,,,,,,,,,,,,,,,,,
764752,001,2022-11-20_23h56.35.981,Info_measure_main_exp,2022.2.2,MacIntel,60.0024001,,,,,,,,,,,,,,,,,,masks/mask_004.jpg,,,,,,,,,,,,,,,,,,,,,,,,,,,,,,,,,,,,,,,,,,,,,,,,0,0,0,3,1,,,,,,,,,,,,,,,,,,,,,,,,,,,,,,,,,,,,,,,,,
764752,001,2022-11-20_23h56.35.981,Info_measure_main_exp,2022.2.2,MacIntel,60.0024001,,,,,,,,,,,,,,,,,,masks/mask_002.jpg,,,,,,,,,,,,,,,,,,,,,,,,,,,,,,,,,,,,,,,,,,,,,,,,0,1,1,1,1,,,,,,,,,,,,,,,,,,,,,,,,,,,,,,,,,,,,,,,,,
764752,001,2022-11-20_23h56.35.981,Info_measure_main_exp,2022.2.2,MacIntel,60.0024001,,,,,,,,,,,,,,,,,,masks/mask_001.jpg,,,,,,,,,,,,,,,,,,,,,,,,,,,,,,,,,,,,,,,,,,,,,,,,0,2,2,0,1,,,,,,,,,,,,,,,,,,,,,,,,,,,,,,,,,,,,,,,,,
764752,001,2022-11-20_23h56.35.981,Info_measure_main_exp,2022.2.2,MacIntel,60.0024001,,,,,,,,,,,,,,,,,,masks/mask_003.jpg,,,,,,,,,,,,,,,,,,,,,,,,,,,,,,,,,,,,,,,,,,,,,,,,0,3,3,2,1,,,,,,,,,,,,,,,,,,,,,,,,,,,,,,,,,,,,,,,,,
764752,001,2022-11-20_23h56.35.981,Info_measure_main_exp,2022.2.2,MacIntel,60.0024001,,,,,,,,,,,,,,,,,,masks/mask_005.jpg,,,,,,,,,,,,,,,,,,,,,,,,,,,,,,,,,,,,,,,,,,,,,,,,0,4,4,4,1,,,,,,,,,,,,,,,,,,,,,,,,,,,,,,,,,,,,,,,,,
764752,001,2022-11-20_23h56.35.981,Info_measure_main_exp,2022.2.2,MacIntel,60.0024001,,,,,,,,,,,,,,,,,,,,,,,,,,,,,,3,1.8331,1,,,,,,,,,,,,0,131,5,5,1986,2238,absent_patch/patch0001986.jpg,absent_patch/patch0002238.jpg,,,,,,,,,,,,,,,,,,,,-0.034157986,-0.058723958,1,0,0,response5disk,29,-0.003585069,-0.007413194,1,0,0,center_square,0,28,28,31,1,,,,,,,,,,,,,,,,,,,,,,,
764752,001,2022-11-20_23h56.35.981,Info_measure_main_exp,2022.2.2,MacIntel,60.0024001,,,,,,,,,,,,,,,,,,masks/mask_004.jpg,,,,,,,,,,,,,,,,,,,,,,,,,,,,,,,,,,,,,,,,,,,0,0,0,3,1,,,,,,,,,,,,,,,,,,,,,,,,,,,,,,,,,,,,,,,,,,,,,,
764752,001,2022-11-20_23h56.35.981,Info_measure_main_exp,2022.2.2,MacIntel,60.0024001,,,,,,,,,,,,,,,,,,masks/mask_001.jpg,,,,,,,,,,,,,,,,,,,,,,,,,,,,,,,,,,,,,,,,,,,0,1,1,0,1,,,,,,,,,,,,,,,,,,,,,,,,,,,,,,,,,,,,,,,,,,,,,,
764752,001,2022-11-20_23h56.35.981,Info_measure_main_exp,2022.2.2,MacIntel,60.0024001,,,,,,,,,,,,,,,,,,masks/mask_002.jpg,,,,,,,,,,,,,,,,,,,,,,,,,,,,,,,,,,,,,,,,,,,0,2,2,1,1,,,,,,,,,,,,,,,,,,,,,,,,,,,,,,,,,,,,,,,,,,,,,,
764752,001,2022-11-20_23h56.35.981,Info_measure_main_exp,2022.2.2,MacIntel,60.0024001,,,,,,,,,,,,,,,,,,masks/mask_003.jpg,,,,,,,,,,,,,,,,,,,,,,,,,,,,,,,,,,,,,,,,,,,0,3,3,2,1,,,,,,,,,,,,,,,,,,,,,,,,,,,,,,,,,,,,,,,,,,,,,,
764752,001,2022-11-20_23h56.35.981,Info_measure_main_exp,2022.2.2,MacIntel,60.0024001,,,,,,,,,,,,,,,,,,masks/mask_005.jpg,,,,,,,,,,,,,,,,,,,,,,,,,,,,,,,,,,,,,,,,,,,0,4,4,4,1,,,,,,,,,,,,,,,,,,,,,,,,,,,,,,,,,,,,,,,,,,,,,,
764752,001,2022-11-20_23h56.35.981,Info_measure_main_exp,2022.2.2,MacIntel,60.0024001,,,,,,,,,,,,,,,,,,masks/mask_002.jpg,,,,,,,,,,,,,,,,,,,,,,,,,,,,,,,,,,,,,,,,,,,,,,,,0,0,0,1,1,,,,,,,,,,,,,,,,,,,,,,,,,,,,,,,,,,,,,,,,,
764752,001,2022-11-20_23h56.35.981,Info_measure_main_exp,2022.2.2,MacIntel,60.0024001,,,,,,,,,,,,,,,,,,masks/mask_003.jpg,,,,,,,,,,,,,,,,,,,,,,,,,,,,,,,,,,,,,,,,,,,,,,,,0,1,1,2,1,,,,,,,,,,,,,,,,,,,,,,,,,,,,,,,,,,,,,,,,,
764752,001,2022-11-20_23h56.35.981,Info_measure_main_exp,2022.2.2,MacIntel,60.0024001,,,,,,,,,,,,,,,,,,masks/mask_005.jpg,,,,,,,,,,,,,,,,,,,,,,,,,,,,,,,,,,,,,,,,,,,,,,,,0,2,2,4,1,,,,,,,,,,,,,,,,,,,,,,,,,,,,,,,,,,,,,,,,,
764752,001,2022-11-20_23h56.35.981,Info_measure_main_exp,2022.2.2,MacIntel,60.0024001,,,,,,,,,,,,,,,,,,masks/mask_001.jpg,,,,,,,,,,,,,,,,,,,,,,,,,,,,,,,,,,,,,,,,,,,,,,,,0,3,3,0,1,,,,,,,,,,,,,,,,,,,,,,,,,,,,,,,,,,,,,,,,,
764752,001,2022-11-20_23h56.35.981,Info_measure_main_exp,2022.2.2,MacIntel,60.0024001,,,,,,,,,,,,,,,,,,masks/mask_004.jpg,,,,,,,,,,,,,,,,,,,,,,,,,,,,,,,,,,,,,,,,,,,,,,,,0,4,4,3,1,,,,,,,,,,,,,,,,,,,,,,,,,,,,,,,,,,,,,,,,,
764752,001,2022-11-20_23h56.35.981,Info_measure_main_exp,2022.2.2,MacIntel,60.0024001,,,,,,,,,,,,,,,,,,,,,,,,,,,,,,6,1.6835,1,,,,,,,,,,,,0,131,5,5,2274,1974,absent_patch/patch0002274.jpg,absent_patch/patch0001974.jpg,,,,,,,,,,,,,,,,,,,,0.178823785,0.069761285,1,0,0,response1disk,30,-0.00437066,0.003637153,1,0,0,center_square,0,29,29,90,1,,,,,,,,,,,,,,,,,,,,,,,
764752,001,2022-11-20_23h56.35.981,Info_measure_main_exp,2022.2.2,MacIntel,60.0024001,,,,,,,,,,,,,,,,,,masks/mask_002.jpg,,,,,,,,,,,,,,,,,,,,,,,,,,,,,,,,,,,,,,,,,,,0,0,0,1,1,,,,,,,,,,,,,,,,,,,,,,,,,,,,,,,,,,,,,,,,,,,,,,
764752,001,2022-11-20_23h56.35.981,Info_measure_main_exp,2022.2.2,MacIntel,60.0024001,,,,,,,,,,,,,,,,,,masks/mask_005.jpg,,,,,,,,,,,,,,,,,,,,,,,,,,,,,,,,,,,,,,,,,,,0,1,1,4,1,,,,,,,,,,,,,,,,,,,,,,,,,,,,,,,,,,,,,,,,,,,,,,
764752,001,2022-11-20_23h56.35.981,Info_measure_main_exp,2022.2.2,MacIntel,60.0024001,,,,,,,,,,,,,,,,,,masks/mask_003.jpg,,,,,,,,,,,,,,,,,,,,,,,,,,,,,,,,,,,,,,,,,,,0,2,2,2,1,,,,,,,,,,,,,,,,,,,,,,,,,,,,,,,,,,,,,,,,,,,,,,
764752,001,2022-11-20_23h56.35.981,Info_measure_main_exp,2022.2.2,MacIntel,60.0024001,,,,,,,,,,,,,,,,,,masks/mask_001.jpg,,,,,,,,,,,,,,,,,,,,,,,,,,,,,,,,,,,,,,,,,,,0,3,3,0,1,,,,,,,,,,,,,,,,,,,,,,,,,,,,,,,,,,,,,,,,,,,,,,
764752,001,2022-11-20_23h56.35.981,Info_measure_main_exp,2022.2.2,MacIntel,60.0024001,,,,,,,,,,,,,,,,,,masks/mask_004.jpg,,,,,,,,,,,,,,,,,,,,,,,,,,,,,,,,,,,,,,,,,,,0,4,4,3,1,,,,,,,,,,,,,,,,,,,,,,,,,,,,,,,,,,,,,,,,,,,,,,
764752,001,2022-11-20_23h56.35.981,Info_measure_main_exp,2022.2.2,MacIntel,60.0024001,,,,,,,,,,,,,,,,,,masks/mask_005.jpg,,,,,,,,,,,,,,,,,,,,,,,,,,,,,,,,,,,,,,,,,,,,,,,,0,0,0,4,1,,,,,,,,,,,,,,,,,,,,,,,,,,,,,,,,,,,,,,,,,
764752,001,2022-11-20_23h56.35.981,Info_measure_main_exp,2022.2.2,MacIntel,60.0024001,,,,,,,,,,,,,,,,,,masks/mask_003.jpg,,,,,,,,,,,,,,,,,,,,,,,,,,,,,,,,,,,,,,,,,,,,,,,,0,1,1,2,1,,,,,,,,,,,,,,,,,,,,,,,,,,,,,,,,,,,,,,,,,
764752,001,2022-11-20_23h56.35.981,Info_measure_main_exp,2022.2.2,MacIntel,60.0024001,,,,,,,,,,,,,,,,,,masks/mask_004.jpg,,,,,,,,,,,,,,,,,,,,,,,,,,,,,,,,,,,,,,,,,,,,,,,,0,2,2,3,1,,,,,,,,,,,,,,,,,,,,,,,,,,,,,,,,,,,,,,,,,
764752,001,2022-11-20_23h56.35.981,Info_measure_main_exp,2022.2.2,MacIntel,60.0024001,,,,,,,,,,,,,,,,,,masks/mask_002.jpg,,,,,,,,,,,,,,,,,,,,,,,,,,,,,,,,,,,,,,,,,,,,,,,,0,3,3,1,1,,,,,,,,,,,,,,,,,,,,,,,,,,,,,,,,,,,,,,,,,
764752,001,2022-11-20_23h56.35.981,Info_measure_main_exp,2022.2.2,MacIntel,60.0024001,,,,,,,,,,,,,,,,,,masks/mask_001.jpg,,,,,,,,,,,,,,,,,,,,,,,,,,,,,,,,,,,,,,,,,,,,,,,,0,4,4,0,1,,,,,,,,,,,,,,,,,,,,,,,,,,,,,,,,,,,,,,,,,
764752,001,2022-11-20_23h56.35.981,Info_measure_main_exp,2022.2.2,MacIntel,60.0024001,,,,,,,,,,,,,,,,,,,,,,,,,,,,,,0,0.7993,1,,,,,,,,,,,,0,131,5,5,2298,2298,absent_patch/patch0002298.jpg,absent_patch/patch0002298.jpg,,,,,,,,,,,,,,,,,,,,-0.080334201,0.168767361,1,0,0,response7disk,31,0.006293403,0.01172309,1,0,0,center_square,0,30,30,37,1,,,,,,,,,,,,,,,,,,,,,,,
764752,001,2022-11-20_23h56.35.981,Info_measure_main_exp,2022.2.2,MacIntel,60.0024001,,,,,,,,,,,,,,,,,,masks/mask_004.jpg,,,,,,,,,,,,,,,,,,,,,,,,,,,,,,,,,,,,,,,,,,,0,0,0,3,1,,,,,,,,,,,,,,,,,,,,,,,,,,,,,,,,,,,,,,,,,,,,,,
764752,001,2022-11-20_23h56.35.981,Info_measure_main_exp,2022.2.2,MacIntel,60.0024001,,,,,,,,,,,,,,,,,,masks/mask_003.jpg,,,,,,,,,,,,,,,,,,,,,,,,,,,,,,,,,,,,,,,,,,,0,1,1,2,1,,,,,,,,,,,,,,,,,,,,,,,,,,,,,,,,,,,,,,,,,,,,,,
764752,001,2022-11-20_23h56.35.981,Info_measure_main_exp,2022.2.2,MacIntel,60.0024001,,,,,,,,,,,,,,,,,,masks/mask_005.jpg,,,,,,,,,,,,,,,,,,,,,,,,,,,,,,,,,,,,,,,,,,,0,2,2,4,1,,,,,,,,,,,,,,,,,,,,,,,,,,,,,,,,,,,,,,,,,,,,,,
764752,001,2022-11-20_23h56.35.981,Info_measure_main_exp,2022.2.2,MacIntel,60.0024001,,,,,,,,,,,,,,,,,,masks/mask_002.jpg,,,,,,,,,,,,,,,,,,,,,,,,,,,,,,,,,,,,,,,,,,,0,3,3,1,1,,,,,,,,,,,,,,,,,,,,,,,,,,,,,,,,,,,,,,,,,,,,,,
764752,001,2022-11-20_23h56.35.981,Info_measure_main_exp,2022.2.2,MacIntel,60.0024001,,,,,,,,,,,,,,,,,,masks/mask_001.jpg,,,,,,,,,,,,,,,,,,,,,,,,,,,,,,,,,,,,,,,,,,,0,4,4,0,1,,,,,,,,,,,,,,,,,,,,,,,,,,,,,,,,,,,,,,,,,,,,,,
764752,001,2022-11-20_23h56.35.981,Info_measure_main_exp,2022.2.2,MacIntel,60.0024001,,,,,,,,,,,,,,,,,,masks/mask_002.jpg,,,,,,,,,,,,,,,,,,,,,,,,,,,,,,,,,,,,,,,,,,,,,,,,0,0,0,1,1,,,,,,,,,,,,,,,,,,,,,,,,,,,,,,,,,,,,,,,,,
764752,001,2022-11-20_23h56.35.981,Info_measure_main_exp,2022.2.2,MacIntel,60.0024001,,,,,,,,,,,,,,,,,,masks/mask_003.jpg,,,,,,,,,,,,,,,,,,,,,,,,,,,,,,,,,,,,,,,,,,,,,,,,0,1,1,2,1,,,,,,,,,,,,,,,,,,,,,,,,,,,,,,,,,,,,,,,,,
764752,001,2022-11-20_23h56.35.981,Info_measure_main_exp,2022.2.2,MacIntel,60.0024001,,,,,,,,,,,,,,,,,,masks/mask_004.jpg,,,,,,,,,,,,,,,,,,,,,,,,,,,,,,,,,,,,,,,,,,,,,,,,0,2,2,3,1,,,,,,,,,,,,,,,,,,,,,,,,,,,,,,,,,,,,,,,,,
764752,001,2022-11-20_23h56.35.981,Info_measure_main_exp,2022.2.2,MacIntel,60.0024001,,,,,,,,,,,,,,,,,,masks/mask_005.jpg,,,,,,,,,,,,,,,,,,,,,,,,,,,,,,,,,,,,,,,,,,,,,,,,0,3,3,4,1,,,,,,,,,,,,,,,,,,,,,,,,,,,,,,,,,,,,,,,,,
764752,001,2022-11-20_23h56.35.981,Info_measure_main_exp,2022.2.2,MacIntel,60.0024001,,,,,,,,,,,,,,,,,,masks/mask_001.jpg,,,,,,,,,,,,,,,,,,,,,,,,,,,,,,,,,,,,,,,,,,,,,,,,0,4,4,0,1,,,,,,,,,,,,,,,,,,,,,,,,,,,,,,,,,,,,,,,,,
764752,001,2022-11-20_23h56.35.981,Info_measure_main_exp,2022.2.2,MacIntel,60.0024001,,,,,,,,,,,,,,,,,,,,,,,,,,,,,,5,1.6671,1,,,,,,,,,,,,0,131,5,5,2274,2082,absent_patch/patch0002274.jpg,absent_patch/patch0002082.jpg,,,,,,,,,,,,,,,,,,,,0.125733507,-0.042118056,1,0,0,response3disk,32,-0.007547743,-0.001423611,1,0,0,center_square,0,31,31,100,1,,,,,,,,,,,,,,,,,,,,,,,
764752,001,2022-11-20_23h56.35.981,Info_measure_main_exp,2022.2.2,MacIntel,60.0024001,,,,,,,,,,,,,,,,,,masks/mask_004.jpg,,,,,,,,,,,,,,,,,,,,,,,,,,,,,,,,,,,,,,,,,,,0,0,0,3,1,,,,,,,,,,,,,,,,,,,,,,,,,,,,,,,,,,,,,,,,,,,,,,
764752,001,2022-11-20_23h56.35.981,Info_measure_main_exp,2022.2.2,MacIntel,60.0024001,,,,,,,,,,,,,,,,,,masks/mask_005.jpg,,,,,,,,,,,,,,,,,,,,,,,,,,,,,,,,,,,,,,,,,,,0,1,1,4,1,,,,,,,,,,,,,,,,,,,,,,,,,,,,,,,,,,,,,,,,,,,,,,
764752,001,2022-11-20_23h56.35.981,Info_measure_main_exp,2022.2.2,MacIntel,60.0024001,,,,,,,,,,,,,,,,,,masks/mask_003.jpg,,,,,,,,,,,,,,,,,,,,,,,,,,,,,,,,,,,,,,,,,,,0,2,2,2,1,,,,,,,,,,,,,,,,,,,,,,,,,,,,,,,,,,,,,,,,,,,,,,
764752,001,2022-11-20_23h56.35.981,Info_measure_main_exp,2022.2.2,MacIntel,60.0024001,,,,,,,,,,,,,,,,,,masks/mask_002.jpg,,,,,,,,,,,,,,,,,,,,,,,,,,,,,,,,,,,,,,,,,,,0,3,3,1,1,,,,,,,,,,,,,,,,,,,,,,,,,,,,,,,,,,,,,,,,,,,,,,
764752,001,2022-11-20_23h56.35.981,Info_measure_main_exp,2022.2.2,MacIntel,60.0024001,,,,,,,,,,,,,,,,,,masks/mask_001.jpg,,,,,,,,,,,,,,,,,,,,,,,,,,,,,,,,,,,,,,,,,,,0,4,4,0,1,,,,,,,,,,,,,,,,,,,,,,,,,,,,,,,,,,,,,,,,,,,,,,
764752,001,2022-11-20_23h56.35.981,Info_measure_main_exp,2022.2.2,MacIntel,60.0024001,,,,,,,,,,,,,,,,,,masks/mask_001.jpg,,,,,,,,,,,,,,,,,,,,,,,,,,,,,,,,,,,,,,,,,,,,,,,,0,0,0,0,1,,,,,,,,,,,,,,,,,,,,,,,,,,,,,,,,,,,,,,,,,
764752,001,2022-11-20_23h56.35.981,Info_measure_main_exp,2022.2.2,MacIntel,60.0024001,,,,,,,,,,,,,,,,,,masks/mask_005.jpg,,,,,,,,,,,,,,,,,,,,,,,,,,,,,,,,,,,,,,,,,,,,,,,,0,1,1,4,1,,,,,,,,,,,,,,,,,,,,,,,,,,,,,,,,,,,,,,,,,
764752,001,2022-11-20_23h56.35.981,Info_measure_main_exp,2022.2.2,MacIntel,60.0024001,,,,,,,,,,,,,,,,,,masks/mask_004.jpg,,,,,,,,,,,,,,,,,,,,,,,,,,,,,,,,,,,,,,,,,,,,,,,,0,2,2,3,1,,,,,,,,,,,,,,,,,,,,,,,,,,,,,,,,,,,,,,,,,
764752,001,2022-11-20_23h56.35.981,Info_measure_main_exp,2022.2.2,MacIntel,60.0024001,,,,,,,,,,,,,,,,,,masks/mask_003.jpg,,,,,,,,,,,,,,,,,,,,,,,,,,,,,,,,,,,,,,,,,,,,,,,,0,3,3,2,1,,,,,,,,,,,,,,,,,,,,,,,,,,,,,,,,,,,,,,,,,
764752,001,2022-11-20_23h56.35.981,Info_measure_main_exp,2022.2.2,MacIntel,60.0024001,,,,,,,,,,,,,,,,,,masks/mask_002.jpg,,,,,,,,,,,,,,,,,,,,,,,,,,,,,,,,,,,,,,,,,,,,,,,,0,4,4,1,1,,,,,,,,,,,,,,,,,,,,,,,,,,,,,,,,,,,,,,,,,
764752,001,2022-11-20_23h56.35.981,Info_measure_main_exp,2022.2.2,MacIntel,60.0024001,,,,,,,,,,,,,,,,,,,,,,,,,,,,,,5,2.5685,1,,,,,,,,,,,,0,131,5,5,2274,2178,absent_patch/patch0002274.jpg,absent_patch/patch0002178.jpg,,,,,,,,,,,,,,,,,,,,0.110859375,-0.027469618,1,0,0,response3disk,33,-0.004509549,0.004431424,1,0,0,center_square,0,32,32,117,1,,,,,,,,,,,,,,,,,,,,,,,
764752,001,2022-11-20_23h56.35.981,Info_measure_main_exp,2022.2.2,MacIntel,60.0024001,,,,,,,,,,,,,,,,,,masks/mask_001.jpg,,,,,,,,,,,,,,,,,,,,,,,,,,,,,,,,,,,,,,,,,,,0,0,0,0,1,,,,,,,,,,,,,,,,,,,,,,,,,,,,,,,,,,,,,,,,,,,,,,
764752,001,2022-11-20_23h56.35.981,Info_measure_main_exp,2022.2.2,MacIntel,60.0024001,,,,,,,,,,,,,,,,,,masks/mask_003.jpg,,,,,,,,,,,,,,,,,,,,,,,,,,,,,,,,,,,,,,,,,,,0,1,1,2,1,,,,,,,,,,,,,,,,,,,,,,,,,,,,,,,,,,,,,,,,,,,,,,
764752,001,2022-11-20_23h56.35.981,Info_measure_main_exp,2022.2.2,MacIntel,60.0024001,,,,,,,,,,,,,,,,,,masks/mask_004.jpg,,,,,,,,,,,,,,,,,,,,,,,,,,,,,,,,,,,,,,,,,,,0,2,2,3,1,,,,,,,,,,,,,,,,,,,,,,,,,,,,,,,,,,,,,,,,,,,,,,
764752,001,2022-11-20_23h56.35.981,Info_measure_main_exp,2022.2.2,MacIntel,60.0024001,,,,,,,,,,,,,,,,,,masks/mask_005.jpg,,,,,,,,,,,,,,,,,,,,,,,,,,,,,,,,,,,,,,,,,,,0,3,3,4,1,,,,,,,,,,,,,,,,,,,,,,,,,,,,,,,,,,,,,,,,,,,,,,
764752,001,2022-11-20_23h56.35.981,Info_measure_main_exp,2022.2.2,MacIntel,60.0024001,,,,,,,,,,,,,,,,,,masks/mask_002.jpg,,,,,,,,,,,,,,,,,,,,,,,,,,,,,,,,,,,,,,,,,,,0,4,4,1,1,,,,,,,,,,,,,,,,,,,,,,,,,,,,,,,,,,,,,,,,,,,,,,
764752,001,2022-11-20_23h56.35.981,Info_measure_main_exp,2022.2.2,MacIntel,60.0024001,,,,,,,,,,,,,,,,,,masks/mask_002.jpg,,,,,,,,,,,,,,,,,,,,,,,,,,,,,,,,,,,,,,,,,,,,,,,,0,0,0,1,1,,,,,,,,,,,,,,,,,,,,,,,,,,,,,,,,,,,,,,,,,
764752,001,2022-11-20_23h56.35.981,Info_measure_main_exp,2022.2.2,MacIntel,60.0024001,,,,,,,,,,,,,,,,,,masks/mask_003.jpg,,,,,,,,,,,,,,,,,,,,,,,,,,,,,,,,,,,,,,,,,,,,,,,,0,1,1,2,1,,,,,,,,,,,,,,,,,,,,,,,,,,,,,,,,,,,,,,,,,
764752,001,2022-11-20_23h56.35.981,Info_measure_main_exp,2022.2.2,MacIntel,60.0024001,,,,,,,,,,,,,,,,,,masks/mask_004.jpg,,,,,,,,,,,,,,,,,,,,,,,,,,,,,,,,,,,,,,,,,,,,,,,,0,2,2,3,1,,,,,,,,,,,,,,,,,,,,,,,,,,,,,,,,,,,,,,,,,
764752,001,2022-11-20_23h56.35.981,Info_measure_main_exp,2022.2.2,MacIntel,60.0024001,,,,,,,,,,,,,,,,,,masks/mask_005.jpg,,,,,,,,,,,,,,,,,,,,,,,,,,,,,,,,,,,,,,,,,,,,,,,,0,3,3,4,1,,,,,,,,,,,,,,,,,,,,,,,,,,,,,,,,,,,,,,,,,
764752,001,2022-11-20_23h56.35.981,Info_measure_main_exp,2022.2.2,MacIntel,60.0024001,,,,,,,,,,,,,,,,,,masks/mask_001.jpg,,,,,,,,,,,,,,,,,,,,,,,,,,,,,,,,,,,,,,,,,,,,,,,,0,4,4,0,1,,,,,,,,,,,,,,,,,,,,,,,,,,,,,,,,,,,,,,,,,
764752,001,2022-11-20_23h56.35.981,Info_measure_main_exp,2022.2.2,MacIntel,60.0024001,,,,,,,,,,,,,,,,,,,,,,,,,,,,,,5,1.2664,1,,,,,,,,,,,,0,131,5,5,2298,2274,absent_patch/patch0002298.jpg,absent_patch/patch0002274.jpg,,,,,,,,,,,,,,,,,,,,0.185989583,-0.050134549,1,0,0,response3disk,34,-0.004865451,0.000256076,1,0,0,center_square,0,33,33,1,1,,,,,,,,,,,,,,,,,,,,,,,
764752,001,2022-11-20_23h56.35.981,Info_measure_main_exp,2022.2.2,MacIntel,60.0024001,,,,,,,,,,,,,,,,,,masks/mask_002.jpg,,,,,,,,,,,,,,,,,,,,,,,,,,,,,,,,,,,,,,,,,,,0,0,0,1,1,,,,,,,,,,,,,,,,,,,,,,,,,,,,,,,,,,,,,,,,,,,,,,
764752,001,2022-11-20_23h56.35.981,Info_measure_main_exp,2022.2.2,MacIntel,60.0024001,,,,,,,,,,,,,,,,,,masks/mask_003.jpg,,,,,,,,,,,,,,,,,,,,,,,,,,,,,,,,,,,,,,,,,,,0,1,1,2,1,,,,,,,,,,,,,,,,,,,,,,,,,,,,,,,,,,,,,,,,,,,,,,
764752,001,2022-11-20_23h56.35.981,Info_measure_main_exp,2022.2.2,MacIntel,60.0024001,,,,,,,,,,,,,,,,,,masks/mask_005.jpg,,,,,,,,,,,,,,,,,,,,,,,,,,,,,,,,,,,,,,,,,,,0,2,2,4,1,,,,,,,,,,,,,,,,,,,,,,,,,,,,,,,,,,,,,,,,,,,,,,
764752,001,2022-11-20_23h56.35.981,Info_measure_main_exp,2022.2.2,MacIntel,60.0024001,,,,,,,,,,,,,,,,,,masks/mask_001.jpg,,,,,,,,,,,,,,,,,,,,,,,,,,,,,,,,,,,,,,,,,,,0,3,3,0,1,,,,,,,,,,,,,,,,,,,,,,,,,,,,,,,,,,,,,,,,,,,,,,
764752,001,2022-11-20_23h56.35.981,Info_measure_main_exp,2022.2.2,MacIntel,60.0024001,,,,,,,,,,,,,,,,,,masks/mask_004.jpg,,,,,,,,,,,,,,,,,,,,,,,,,,,,,,,,,,,,,,,,,,,0,4,4,3,1,,,,,,,,,,,,,,,,,,,,,,,,,,,,,,,,,,,,,,,,,,,,,,
