participant,session,date,expName,psychopyVersion,OS,frameRate,space_press_continue.keys,space_press_continue.rt,space_press_continue_2.keys,space_press_continue_2.rt,space_press_continue_3.keys,space_press_continue_3.rt,space_press_continue_4.keys,space_press_continue_4.rt,space_press_continue_5.keys,space_press_continue_5.rt,space_press_continue_6.keys,space_press_continue_6.rt,prac_mask_loop_1.thisRepN,prac_mask_loop_1.thisTrialN,prac_mask_loop_1.thisN,prac_mask_loop_1.thisIndex,prac_mask_loop_1.ran,mask_name,prac_mask_loop_2.thisRepN,prac_mask_loop_2.thisTrialN,prac_mask_loop_2.thisN,prac_mask_loop_2.thisIndex,prac_mask_loop_2.ran,mouse_2.x,mouse_2.y,mouse_2.leftButton,mouse_2.midButton,mouse_2.rightButton,mouse_2.clicked_name,similarity,response_time,Pass,mouse_12.x,mouse_12.y,mouse_12.leftButton,mouse_12.midButton,mouse_12.rightButton,mouse_12.clicked_name,prac_loop.thisRepN,prac_loop.thisTrialN,prac_loop.thisN,prac_loop.thisIndex,prac_loop.ran,Pair_type,Image_num,Patch_1_loc,Patch_2_loc,Patch_1_info,Patch_2_info,Patch_1_name,Patch_2_name,mouse_1.x,mouse_1.y,mouse_1.leftButton,mouse_1.midButton,mouse_1.rightButton,mouse_1.time,mouse_1.clicked_name,space_press_continue_7.keys,space_press_continue_7.rt,mask_loop.thisRepN,mask_loop.thisTrialN,mask_loop.thisN,mask_loop.thisIndex,mask_loop.ran,mask_loop_2.thisRepN,mask_loop_2.thisTrialN,mask_loop_2.thisN,mask_loop_2.thisIndex,mask_loop_2.ran,mouse.x,mouse.y,mouse.leftButton,mouse.midButton,mouse.rightButton,mouse.clicked_name,trialNumber,mouse_11.x,mouse_11.y,mouse_11.leftButton,mouse_11.midButton,mouse_11.rightButton,mouse_11.clicked_name,first_pass_loop.thisRepN,first_pass_loop.thisTrialN,first_pass_loop.thisN,first_pass_loop.thisIndex,first_pass_loop.ran,mask_loop_3.thisRepN,mask_loop_3.thisTrialN,mask_loop_3.thisN,mask_loop_3.thisIndex,mask_loop_3.ran,mask_loop_4.thisRepN,mask_loop_4.thisTrialN,mask_loop_4.thisN,mask_loop_4.thisIndex,mask_loop_4.ran,mouse_3.x,mouse_3.y,mouse_3.leftButton,mouse_3.midButton,mouse_3.rightButton,mouse_3.clicked_name,double_pass_loop.thisRepN,double_pass_loop.thisTrialN,double_pass_loop.thisN,double_pass_loop.thisIndex,double_pass_loop.ran,space_exit.keys,space_exit.rt
771093,001,2022-11-20_23h52.33.027,Info_measure_main_exp,2022.2.2,Win32,60.20469597,,,,,,,,,,,,,,,,,,,,,,,,,,,,,,,,,,,,,,,,,,,,,,,,,,,,,,,,,,,,,,,,,,,,,,,,,,,,,,,,,,,,,,,,,,,,,,,,,,,,,,,,,,,,,,,
771093,001,2022-11-20_23h52.33.027,Info_measure_main_exp,2022.2.2,Win32,60.20469597,,,,,,,,,,,,,,,,,,,,,,,,,,,,,,,,,,,,,,,,,,,,,,,,,,,,,,,,,,,,,,,,,,,,,,,,,,,,,,,,,,,,,,,,,,,,,,,,,,,,,,,,,,,,,,,
771093,001,2022-11-20_23h52.33.027,Info_measure_main_exp,2022.2.2,Win32,60.20469597,space,8.7562,,,,,,,,,,,,,,,,,,,,,,,,,,,,,,,,,,,,,,,,,,,,,,,,,,,,,,,,,,,,,,,,,,,,,,,,,,,,,,,,,,,,,,,,,,,,,,,,,,,,,,,,,,,,,
771093,001,2022-11-20_23h52.33.027,Info_measure_main_exp,2022.2.2,Win32,60.20469597,,,space,9.116,,,,,,,,,,,,,,,,,,,,,,,,,,,,,,,,,,,,,,,,,,,,,,,,,,,,,,,,,,,,,,,,,,,,,,,,,,,,,,,,,,,,,,,,,,,,,,,,,,,,,,,,,,,
771093,001,2022-11-20_23h52.33.027,Info_measure_main_exp,2022.2.2,Win32,60.20469597,,,,,space,8.9999,,,,,,,,,,,,,,,,,,,,,,,,,,,,,,,,,,,,,,,,,,,,,,,,,,,,,,,,,,,,,,,,,,,,,,,,,,,,,,,,,,,,,,,,,,,,,,,,,,,,,,,,,
771093,001,2022-11-20_23h52.33.027,Info_measure_main_exp,2022.2.2,Win32,60.20469597,,,,,,,space,12.1464,,,,,,,,,,,,,,,,,,,,,,,,,,,,,,,,,,,,,,,,,,,,,,,,,,,,,,,,,,,,,,,,,,,,,,,,,,,,,,,,,,,,,,,,,,,,,,,,,,,,,,,
771093,001,2022-11-20_23h52.33.027,Info_measure_main_exp,2022.2.2,Win32,60.20469597,,,,,,,,,space,13.6896,,,,,,,,,,,,,,,,,,,,,,,,,,,,,,,,,,,,,,,,,,,,,,,,,,,,,,,,,,,,,,,,,,,,,,,,,,,,,,,,,,,,,,,,,,,,,,,,,,,,,
771093,001,2022-11-20_23h52.33.027,Info_measure_main_exp,2022.2.2,Win32,60.20469597,,,,,,,,,,,space,6.0866,,,,,,,,,,,,,,,,,,,,,,,,,,,,,,,,,,,,,,,,,,,,,,,,,,,,,,,,,,,,,,,,,,,,,,,,,,,,,,,,,,,,,,,,,,,,,,,,,,,
771093,001,2022-11-20_23h52.33.027,Info_measure_main_exp,2022.2.2,Win32,60.20469597,,,,,,,,,,,,,0,0,0,4,1,masks/mask_005.jpg,,,,,,,,,,,,,,,,,,,,,,,,,,,,,,,,,,,,,,,,,,,,,,,,,,,,,,,,,,,,,,,,,,,,,,,,,,,,,,,,,,,,,,,,,,,,,
771093,001,2022-11-20_23h52.33.027,Info_measure_main_exp,2022.2.2,Win32,60.20469597,,,,,,,,,,,,,0,1,1,2,1,masks/mask_003.jpg,,,,,,,,,,,,,,,,,,,,,,,,,,,,,,,,,,,,,,,,,,,,,,,,,,,,,,,,,,,,,,,,,,,,,,,,,,,,,,,,,,,,,,,,,,,,,
771093,001,2022-11-20_23h52.33.027,Info_measure_main_exp,2022.2.2,Win32,60.20469597,,,,,,,,,,,,,0,2,2,1,1,masks/mask_002.jpg,,,,,,,,,,,,,,,,,,,,,,,,,,,,,,,,,,,,,,,,,,,,,,,,,,,,,,,,,,,,,,,,,,,,,,,,,,,,,,,,,,,,,,,,,,,,,
771093,001,2022-11-20_23h52.33.027,Info_measure_main_exp,2022.2.2,Win32,60.20469597,,,,,,,,,,,,,0,3,3,0,1,masks/mask_001.jpg,,,,,,,,,,,,,,,,,,,,,,,,,,,,,,,,,,,,,,,,,,,,,,,,,,,,,,,,,,,,,,,,,,,,,,,,,,,,,,,,,,,,,,,,,,,,,
771093,001,2022-11-20_23h52.33.027,Info_measure_main_exp,2022.2.2,Win32,60.20469597,,,,,,,,,,,,,0,4,4,3,1,masks/mask_004.jpg,,,,,,,,,,,,,,,,,,,,,,,,,,,,,,,,,,,,,,,,,,,,,,,,,,,,,,,,,,,,,,,,,,,,,,,,,,,,,,,,,,,,,,,,,,,,,
771093,001,2022-11-20_23h52.33.027,Info_measure_main_exp,2022.2.2,Win32,60.20469597,,,,,,,,,,,,,,,,,,masks/mask_002.jpg,0,0,0,1,1,,,,,,,,,,,,,,,,,,,,,,,,,,,,,,,,,,,,,,,,,,,,,,,,,,,,,,,,,,,,,,,,,,,,,,,,,,,,,,,,,,,,,,,,
771093,001,2022-11-20_23h52.33.027,Info_measure_main_exp,2022.2.2,Win32,60.20469597,,,,,,,,,,,,,,,,,,masks/mask_003.jpg,0,1,1,2,1,,,,,,,,,,,,,,,,,,,,,,,,,,,,,,,,,,,,,,,,,,,,,,,,,,,,,,,,,,,,,,,,,,,,,,,,,,,,,,,,,,,,,,,,
771093,001,2022-11-20_23h52.33.027,Info_measure_main_exp,2022.2.2,Win32,60.20469597,,,,,,,,,,,,,,,,,,masks/mask_001.jpg,0,2,2,0,1,,,,,,,,,,,,,,,,,,,,,,,,,,,,,,,,,,,,,,,,,,,,,,,,,,,,,,,,,,,,,,,,,,,,,,,,,,,,,,,,,,,,,,,,
771093,001,2022-11-20_23h52.33.027,Info_measure_main_exp,2022.2.2,Win32,60.20469597,,,,,,,,,,,,,,,,,,masks/mask_004.jpg,0,3,3,3,1,,,,,,,,,,,,,,,,,,,,,,,,,,,,,,,,,,,,,,,,,,,,,,,,,,,,,,,,,,,,,,,,,,,,,,,,,,,,,,,,,,,,,,,,
771093,001,2022-11-20_23h52.33.027,Info_measure_main_exp,2022.2.2,Win32,60.20469597,,,,,,,,,,,,,,,,,,masks/mask_005.jpg,0,4,4,4,1,,,,,,,,,,,,,,,,,,,,,,,,,,,,,,,,,,,,,,,,,,,,,,,,,,,,,,,,,,,,,,,,,,,,,,,,,,,,,,,,,,,,,,,,
771093,001,2022-11-20_23h52.33.027,Info_measure_main_exp,2022.2.2,Win32,60.20469597,,,,,,,,,,,,,,,,,,,,,,,,-0.000925926,0.005555556,1,0,0,response7disk,0,63.1776,1,0.003703704,0.006481481,1,0,0,center_square,0,0,0,0,1,0,131,5,5,2370,2406,prac_patch/patch0002370.jpg,prac_patch/patch0002406.jpg,,,,,,,,,,,,,,,,,,,,,,,,,,,,,,,,,,,,,,,,,,,,,,,,,,,,,,,,,,,,
771093,001,2022-11-20_23h52.33.027,Info_measure_main_exp,2022.2.2,Win32,60.20469597,,,,,,,,,,,,,0,0,0,3,1,masks/mask_004.jpg,,,,,,,,,,,,,,,,,,,,,,,,,,,,,,,,,,,,,,,,,,,,,,,,,,,,,,,,,,,,,,,,,,,,,,,,,,,,,,,,,,,,,,,,,,,,,
771093,001,2022-11-20_23h52.33.027,Info_measure_main_exp,2022.2.2,Win32,60.20469597,,,,,,,,,,,,,0,1,1,4,1,masks/mask_005.jpg,,,,,,,,,,,,,,,,,,,,,,,,,,,,,,,,,,,,,,,,,,,,,,,,,,,,,,,,,,,,,,,,,,,,,,,,,,,,,,,,,,,,,,,,,,,,,
771093,001,2022-11-20_23h52.33.027,Info_measure_main_exp,2022.2.2,Win32,60.20469597,,,,,,,,,,,,,0,2,2,1,1,masks/mask_002.jpg,,,,,,,,,,,,,,,,,,,,,,,,,,,,,,,,,,,,,,,,,,,,,,,,,,,,,,,,,,,,,,,,,,,,,,,,,,,,,,,,,,,,,,,,,,,,,
771093,001,2022-11-20_23h52.33.027,Info_measure_main_exp,2022.2.2,Win32,60.20469597,,,,,,,,,,,,,0,3,3,0,1,masks/mask_001.jpg,,,,,,,,,,,,,,,,,,,,,,,,,,,,,,,,,,,,,,,,,,,,,,,,,,,,,,,,,,,,,,,,,,,,,,,,,,,,,,,,,,,,,,,,,,,,,
771093,001,2022-11-20_23h52.33.027,Info_measure_main_exp,2022.2.2,Win32,60.20469597,,,,,,,,,,,,,0,4,4,2,1,masks/mask_003.jpg,,,,,,,,,,,,,,,,,,,,,,,,,,,,,,,,,,,,,,,,,,,,,,,,,,,,,,,,,,,,,,,,,,,,,,,,,,,,,,,,,,,,,,,,,,,,,
771093,001,2022-11-20_23h52.33.027,Info_measure_main_exp,2022.2.2,Win32,60.20469597,,,,,,,,,,,,,,,,,,masks/mask_004.jpg,0,0,0,3,1,,,,,,,,,,,,,,,,,,,,,,,,,,,,,,,,,,,,,,,,,,,,,,,,,,,,,,,,,,,,,,,,,,,,,,,,,,,,,,,,,,,,,,,,
771093,001,2022-11-20_23h52.33.027,Info_measure_main_exp,2022.2.2,Win32,60.20469597,,,,,,,,,,,,,,,,,,masks/mask_001.jpg,0,1,1,0,1,,,,,,,,,,,,,,,,,,,,,,,,,,,,,,,,,,,,,,,,,,,,,,,,,,,,,,,,,,,,,,,,,,,,,,,,,,,,,,,,,,,,,,,,
771093,001,2022-11-20_23h52.33.027,Info_measure_main_exp,2022.2.2,Win32,60.20469597,,,,,,,,,,,,,,,,,,masks/mask_003.jpg,0,2,2,2,1,,,,,,,,,,,,,,,,,,,,,,,,,,,,,,,,,,,,,,,,,,,,,,,,,,,,,,,,,,,,,,,,,,,,,,,,,,,,,,,,,,,,,,,,
771093,001,2022-11-20_23h52.33.027,Info_measure_main_exp,2022.2.2,Win32,60.20469597,,,,,,,,,,,,,,,,,,masks/mask_002.jpg,0,3,3,1,1,,,,,,,,,,,,,,,,,,,,,,,,,,,,,,,,,,,,,,,,,,,,,,,,,,,,,,,,,,,,,,,,,,,,,,,,,,,,,,,,,,,,,,,,
771093,001,2022-11-20_23h52.33.027,Info_measure_main_exp,2022.2.2,Win32,60.20469597,,,,,,,,,,,,,,,,,,masks/mask_005.jpg,0,4,4,4,1,,,,,,,,,,,,,,,,,,,,,,,,,,,,,,,,,,,,,,,,,,,,,,,,,,,,,,,,,,,,,,,,,,,,,,,,,,,,,,,,,,,,,,,,
771093,001,2022-11-20_23h52.33.027,Info_measure_main_exp,2022.2.2,Win32,60.20469597,,,,,,,,,,,,,,,,,,,,,,,,0.003703704,0.006481481,1,0,0,response1disk,7,73.9722,1,-0.007407407,0.002777778,1,0,0,center_square,0,1,1,2,1,0,131,5,5,2526,2526,prac_patch/patch0002526.jpg,prac_patch/patch0002526.jpg,,,,,,,,,,,,,,,,,,,,,,,,,,,,,,,,,,,,,,,,,,,,,,,,,,,,,,,,,,,,
771093,001,2022-11-20_23h52.33.027,Info_measure_main_exp,2022.2.2,Win32,60.20469597,,,,,,,,,,,,,0,0,0,3,1,masks/mask_004.jpg,,,,,,,,,,,,,,,,,,,,,,,,,,,,,,,,,,,,,,,,,,,,,,,,,,,,,,,,,,,,,,,,,,,,,,,,,,,,,,,,,,,,,,,,,,,,,
771093,001,2022-11-20_23h52.33.027,Info_measure_main_exp,2022.2.2,Win32,60.20469597,,,,,,,,,,,,,0,1,1,0,1,masks/mask_001.jpg,,,,,,,,,,,,,,,,,,,,,,,,,,,,,,,,,,,,,,,,,,,,,,,,,,,,,,,,,,,,,,,,,,,,,,,,,,,,,,,,,,,,,,,,,,,,,
771093,001,2022-11-20_23h52.33.027,Info_measure_main_exp,2022.2.2,Win32,60.20469597,,,,,,,,,,,,,0,2,2,1,1,masks/mask_002.jpg,,,,,,,,,,,,,,,,,,,,,,,,,,,,,,,,,,,,,,,,,,,,,,,,,,,,,,,,,,,,,,,,,,,,,,,,,,,,,,,,,,,,,,,,,,,,,
771093,001,2022-11-20_23h52.33.027,Info_measure_main_exp,2022.2.2,Win32,60.20469597,,,,,,,,,,,,,0,3,3,4,1,masks/mask_005.jpg,,,,,,,,,,,,,,,,,,,,,,,,,,,,,,,,,,,,,,,,,,,,,,,,,,,,,,,,,,,,,,,,,,,,,,,,,,,,,,,,,,,,,,,,,,,,,
771093,001,2022-11-20_23h52.33.027,Info_measure_main_exp,2022.2.2,Win32,60.20469597,,,,,,,,,,,,,0,4,4,2,1,masks/mask_003.jpg,,,,,,,,,,,,,,,,,,,,,,,,,,,,,,,,,,,,,,,,,,,,,,,,,,,,,,,,,,,,,,,,,,,,,,,,,,,,,,,,,,,,,,,,,,,,,
771093,001,2022-11-20_23h52.33.027,Info_measure_main_exp,2022.2.2,Win32,60.20469597,,,,,,,,,,,,,,,,,,masks/mask_005.jpg,0,0,0,4,1,,,,,,,,,,,,,,,,,,,,,,,,,,,,,,,,,,,,,,,,,,,,,,,,,,,,,,,,,,,,,,,,,,,,,,,,,,,,,,,,,,,,,,,,
771093,001,2022-11-20_23h52.33.027,Info_measure_main_exp,2022.2.2,Win32,60.20469597,,,,,,,,,,,,,,,,,,masks/mask_002.jpg,0,1,1,1,1,,,,,,,,,,,,,,,,,,,,,,,,,,,,,,,,,,,,,,,,,,,,,,,,,,,,,,,,,,,,,,,,,,,,,,,,,,,,,,,,,,,,,,,,
771093,001,2022-11-20_23h52.33.027,Info_measure_main_exp,2022.2.2,Win32,60.20469597,,,,,,,,,,,,,,,,,,masks/mask_003.jpg,0,2,2,2,1,,,,,,,,,,,,,,,,,,,,,,,,,,,,,,,,,,,,,,,,,,,,,,,,,,,,,,,,,,,,,,,,,,,,,,,,,,,,,,,,,,,,,,,,
771093,001,2022-11-20_23h52.33.027,Info_measure_main_exp,2022.2.2,Win32,60.20469597,,,,,,,,,,,,,,,,,,masks/mask_004.jpg,0,3,3,3,1,,,,,,,,,,,,,,,,,,,,,,,,,,,,,,,,,,,,,,,,,,,,,,,,,,,,,,,,,,,,,,,,,,,,,,,,,,,,,,,,,,,,,,,,
771093,001,2022-11-20_23h52.33.027,Info_measure_main_exp,2022.2.2,Win32,60.20469597,,,,,,,,,,,,,,,,,,masks/mask_001.jpg,0,4,4,0,1,,,,,,,,,,,,,,,,,,,,,,,,,,,,,,,,,,,,,,,,,,,,,,,,,,,,,,,,,,,,,,,,,,,,,,,,,,,,,,,,,,,,,,,,
771093,001,2022-11-20_23h52.33.027,Info_measure_main_exp,2022.2.2,Win32,60.20469597,,,,,,,,,,,,,,,,,,,,,,,,0.061111111,0.118518519,1,0,0,response1disk,7,84.5894,1,-0.000925926,0.000925926,1,0,0,center_square,0,2,2,1,1,0,131,5,5,2514,2490,prac_patch/patch0002514.jpg,prac_patch/patch0002490.jpg,,,,,,,,,,,,,,,,,,,,,,,,,,,,,,,,,,,,,,,,,,,,,,,,,,,,,,,,,,,,
771093,001,2022-11-20_23h52.33.027,Info_measure_main_exp,2022.2.2,Win32,60.20469597,,,,,,,,,,,,,,,,,,,,,,,,,,,,,,,,,,,,,,,,,,,,,,,,,,,,,,,,,,,space,3.0939,,,,,,,,,,,,,,,,,,,,,,,,,,,,,,,,,,,,,,,,,,,,,,,,,,,
771093,001,2022-11-20_23h52.33.027,Info_measure_main_exp,2022.2.2,Win32,60.20469597,,,,,,,,,,,,,,,,,,masks/mask_003.jpg,,,,,,,,,,,,,,,,,,,,,,,,,,,,,,,,,,,,,,,,,,,0,0,0,2,1,,,,,,,,,,,,,,,,,,,,,,,,,,,,,,,,,,,,,,,,,,,,,,
771093,001,2022-11-20_23h52.33.027,Info_measure_main_exp,2022.2.2,Win32,60.20469597,,,,,,,,,,,,,,,,,,masks/mask_002.jpg,,,,,,,,,,,,,,,,,,,,,,,,,,,,,,,,,,,,,,,,,,,0,1,1,1,1,,,,,,,,,,,,,,,,,,,,,,,,,,,,,,,,,,,,,,,,,,,,,,
771093,001,2022-11-20_23h52.33.027,Info_measure_main_exp,2022.2.2,Win32,60.20469597,,,,,,,,,,,,,,,,,,masks/mask_001.jpg,,,,,,,,,,,,,,,,,,,,,,,,,,,,,,,,,,,,,,,,,,,0,2,2,0,1,,,,,,,,,,,,,,,,,,,,,,,,,,,,,,,,,,,,,,,,,,,,,,
771093,001,2022-11-20_23h52.33.027,Info_measure_main_exp,2022.2.2,Win32,60.20469597,,,,,,,,,,,,,,,,,,masks/mask_004.jpg,,,,,,,,,,,,,,,,,,,,,,,,,,,,,,,,,,,,,,,,,,,0,3,3,3,1,,,,,,,,,,,,,,,,,,,,,,,,,,,,,,,,,,,,,,,,,,,,,,
771093,001,2022-11-20_23h52.33.027,Info_measure_main_exp,2022.2.2,Win32,60.20469597,,,,,,,,,,,,,,,,,,masks/mask_005.jpg,,,,,,,,,,,,,,,,,,,,,,,,,,,,,,,,,,,,,,,,,,,0,4,4,4,1,,,,,,,,,,,,,,,,,,,,,,,,,,,,,,,,,,,,,,,,,,,,,,
771093,001,2022-11-20_23h52.33.027,Info_measure_main_exp,2022.2.2,Win32,60.20469597,,,,,,,,,,,,,,,,,,masks/mask_003.jpg,,,,,,,,,,,,,,,,,,,,,,,,,,,,,,,,,,,,,,,,,,,,,,,,0,0,0,2,1,,,,,,,,,,,,,,,,,,,,,,,,,,,,,,,,,,,,,,,,,
771093,001,2022-11-20_23h52.33.027,Info_measure_main_exp,2022.2.2,Win32,60.20469597,,,,,,,,,,,,,,,,,,masks/mask_005.jpg,,,,,,,,,,,,,,,,,,,,,,,,,,,,,,,,,,,,,,,,,,,,,,,,0,1,1,4,1,,,,,,,,,,,,,,,,,,,,,,,,,,,,,,,,,,,,,,,,,
771093,001,2022-11-20_23h52.33.027,Info_measure_main_exp,2022.2.2,Win32,60.20469597,,,,,,,,,,,,,,,,,,masks/mask_004.jpg,,,,,,,,,,,,,,,,,,,,,,,,,,,,,,,,,,,,,,,,,,,,,,,,0,2,2,3,1,,,,,,,,,,,,,,,,,,,,,,,,,,,,,,,,,,,,,,,,,
771093,001,2022-11-20_23h52.33.027,Info_measure_main_exp,2022.2.2,Win32,60.20469597,,,,,,,,,,,,,,,,,,masks/mask_002.jpg,,,,,,,,,,,,,,,,,,,,,,,,,,,,,,,,,,,,,,,,,,,,,,,,0,3,3,1,1,,,,,,,,,,,,,,,,,,,,,,,,,,,,,,,,,,,,,,,,,
771093,001,2022-11-20_23h52.33.027,Info_measure_main_exp,2022.2.2,Win32,60.20469597,,,,,,,,,,,,,,,,,,masks/mask_001.jpg,,,,,,,,,,,,,,,,,,,,,,,,,,,,,,,,,,,,,,,,,,,,,,,,0,4,4,0,1,,,,,,,,,,,,,,,,,,,,,,,,,,,,,,,,,,,,,,,,,
771093,001,2022-11-20_23h52.33.027,Info_measure_main_exp,2022.2.2,Win32,60.20469597,,,,,,,,,,,,,,,,,,,,,,,,,,,,,,7,0.9333,1,,,,,,,,,,,,1,131,5,5,1,2214,present_patch/cong_131_5_a.jpg,absent_patch/patch0002214.jpg,,,,,,,,,,,,,,,,,,,,0.082407407,0.111111111,1,0,0,response1disk,1,-0.001851852,-0.009259259,1,0,0,center_square,0,0,0,4,1,,,,,,,,,,,,,,,,,,,,,,,
771093,001,2022-11-20_23h52.33.027,Info_measure_main_exp,2022.2.2,Win32,60.20469597,,,,,,,,,,,,,,,,,,masks/mask_005.jpg,,,,,,,,,,,,,,,,,,,,,,,,,,,,,,,,,,,,,,,,,,,0,0,0,4,1,,,,,,,,,,,,,,,,,,,,,,,,,,,,,,,,,,,,,,,,,,,,,,
771093,001,2022-11-20_23h52.33.027,Info_measure_main_exp,2022.2.2,Win32,60.20469597,,,,,,,,,,,,,,,,,,masks/mask_003.jpg,,,,,,,,,,,,,,,,,,,,,,,,,,,,,,,,,,,,,,,,,,,0,1,1,2,1,,,,,,,,,,,,,,,,,,,,,,,,,,,,,,,,,,,,,,,,,,,,,,
771093,001,2022-11-20_23h52.33.027,Info_measure_main_exp,2022.2.2,Win32,60.20469597,,,,,,,,,,,,,,,,,,masks/mask_001.jpg,,,,,,,,,,,,,,,,,,,,,,,,,,,,,,,,,,,,,,,,,,,0,2,2,0,1,,,,,,,,,,,,,,,,,,,,,,,,,,,,,,,,,,,,,,,,,,,,,,
771093,001,2022-11-20_23h52.33.027,Info_measure_main_exp,2022.2.2,Win32,60.20469597,,,,,,,,,,,,,,,,,,masks/mask_002.jpg,,,,,,,,,,,,,,,,,,,,,,,,,,,,,,,,,,,,,,,,,,,0,3,3,1,1,,,,,,,,,,,,,,,,,,,,,,,,,,,,,,,,,,,,,,,,,,,,,,
771093,001,2022-11-20_23h52.33.027,Info_measure_main_exp,2022.2.2,Win32,60.20469597,,,,,,,,,,,,,,,,,,masks/mask_004.jpg,,,,,,,,,,,,,,,,,,,,,,,,,,,,,,,,,,,,,,,,,,,0,4,4,3,1,,,,,,,,,,,,,,,,,,,,,,,,,,,,,,,,,,,,,,,,,,,,,,
771093,001,2022-11-20_23h52.33.027,Info_measure_main_exp,2022.2.2,Win32,60.20469597,,,,,,,,,,,,,,,,,,masks/mask_003.jpg,,,,,,,,,,,,,,,,,,,,,,,,,,,,,,,,,,,,,,,,,,,,,,,,0,0,0,2,1,,,,,,,,,,,,,,,,,,,,,,,,,,,,,,,,,,,,,,,,,
771093,001,2022-11-20_23h52.33.027,Info_measure_main_exp,2022.2.2,Win32,60.20469597,,,,,,,,,,,,,,,,,,masks/mask_002.jpg,,,,,,,,,,,,,,,,,,,,,,,,,,,,,,,,,,,,,,,,,,,,,,,,0,1,1,1,1,,,,,,,,,,,,,,,,,,,,,,,,,,,,,,,,,,,,,,,,,
771093,001,2022-11-20_23h52.33.027,Info_measure_main_exp,2022.2.2,Win32,60.20469597,,,,,,,,,,,,,,,,,,masks/mask_001.jpg,,,,,,,,,,,,,,,,,,,,,,,,,,,,,,,,,,,,,,,,,,,,,,,,0,2,2,0,1,,,,,,,,,,,,,,,,,,,,,,,,,,,,,,,,,,,,,,,,,
771093,001,2022-11-20_23h52.33.027,Info_measure_main_exp,2022.2.2,Win32,60.20469597,,,,,,,,,,,,,,,,,,masks/mask_004.jpg,,,,,,,,,,,,,,,,,,,,,,,,,,,,,,,,,,,,,,,,,,,,,,,,0,3,3,3,1,,,,,,,,,,,,,,,,,,,,,,,,,,,,,,,,,,,,,,,,,
771093,001,2022-11-20_23h52.33.027,Info_measure_main_exp,2022.2.2,Win32,60.20469597,,,,,,,,,,,,,,,,,,masks/mask_005.jpg,,,,,,,,,,,,,,,,,,,,,,,,,,,,,,,,,,,,,,,,,,,,,,,,0,4,4,4,1,,,,,,,,,,,,,,,,,,,,,,,,,,,,,,,,,,,,,,,,,
771093,001,2022-11-20_23h52.33.027,Info_measure_main_exp,2022.2.2,Win32,60.20469597,,,,,,,,,,,,,,,,,,,,,,,,,,,,,,7,0.6665,1,,,,,,,,,,,,1,131,5,5,2250,1,absent_patch/patch0002250.jpg,present_patch/cong_131_5_a.jpg,,,,,,,,,,,,,,,,,,,,0.057407407,0.094444444,1,0,0,response1disk,2,-0.007407407,-0.006481481,1,0,0,center_square,0,1,1,5,1,,,,,,,,,,,,,,,,,,,,,,,
771093,001,2022-11-20_23h52.33.027,Info_measure_main_exp,2022.2.2,Win32,60.20469597,,,,,,,,,,,,,,,,,,masks/mask_005.jpg,,,,,,,,,,,,,,,,,,,,,,,,,,,,,,,,,,,,,,,,,,,0,0,0,4,1,,,,,,,,,,,,,,,,,,,,,,,,,,,,,,,,,,,,,,,,,,,,,,
771093,001,2022-11-20_23h52.33.027,Info_measure_main_exp,2022.2.2,Win32,60.20469597,,,,,,,,,,,,,,,,,,masks/mask_004.jpg,,,,,,,,,,,,,,,,,,,,,,,,,,,,,,,,,,,,,,,,,,,0,1,1,3,1,,,,,,,,,,,,,,,,,,,,,,,,,,,,,,,,,,,,,,,,,,,,,,
771093,001,2022-11-20_23h52.33.027,Info_measure_main_exp,2022.2.2,Win32,60.20469597,,,,,,,,,,,,,,,,,,masks/mask_002.jpg,,,,,,,,,,,,,,,,,,,,,,,,,,,,,,,,,,,,,,,,,,,0,2,2,1,1,,,,,,,,,,,,,,,,,,,,,,,,,,,,,,,,,,,,,,,,,,,,,,
771093,001,2022-11-20_23h52.33.027,Info_measure_main_exp,2022.2.2,Win32,60.20469597,,,,,,,,,,,,,,,,,,masks/mask_003.jpg,,,,,,,,,,,,,,,,,,,,,,,,,,,,,,,,,,,,,,,,,,,0,3,3,2,1,,,,,,,,,,,,,,,,,,,,,,,,,,,,,,,,,,,,,,,,,,,,,,
771093,001,2022-11-20_23h52.33.027,Info_measure_main_exp,2022.2.2,Win32,60.20469597,,,,,,,,,,,,,,,,,,masks/mask_001.jpg,,,,,,,,,,,,,,,,,,,,,,,,,,,,,,,,,,,,,,,,,,,0,4,4,0,1,,,,,,,,,,,,,,,,,,,,,,,,,,,,,,,,,,,,,,,,,,,,,,
771093,001,2022-11-20_23h52.33.027,Info_measure_main_exp,2022.2.2,Win32,60.20469597,,,,,,,,,,,,,,,,,,masks/mask_005.jpg,,,,,,,,,,,,,,,,,,,,,,,,,,,,,,,,,,,,,,,,,,,,,,,,0,0,0,4,1,,,,,,,,,,,,,,,,,,,,,,,,,,,,,,,,,,,,,,,,,
771093,001,2022-11-20_23h52.33.027,Info_measure_main_exp,2022.2.2,Win32,60.20469597,,,,,,,,,,,,,,,,,,masks/mask_001.jpg,,,,,,,,,,,,,,,,,,,,,,,,,,,,,,,,,,,,,,,,,,,,,,,,0,1,1,0,1,,,,,,,,,,,,,,,,,,,,,,,,,,,,,,,,,,,,,,,,,
771093,001,2022-11-20_23h52.33.027,Info_measure_main_exp,2022.2.2,Win32,60.20469597,,,,,,,,,,,,,,,,,,masks/mask_002.jpg,,,,,,,,,,,,,,,,,,,,,,,,,,,,,,,,,,,,,,,,,,,,,,,,0,2,2,1,1,,,,,,,,,,,,,,,,,,,,,,,,,,,,,,,,,,,,,,,,,
771093,001,2022-11-20_23h52.33.027,Info_measure_main_exp,2022.2.2,Win32,60.20469597,,,,,,,,,,,,,,,,,,masks/mask_004.jpg,,,,,,,,,,,,,,,,,,,,,,,,,,,,,,,,,,,,,,,,,,,,,,,,0,3,3,3,1,,,,,,,,,,,,,,,,,,,,,,,,,,,,,,,,,,,,,,,,,
771093,001,2022-11-20_23h52.33.027,Info_measure_main_exp,2022.2.2,Win32,60.20469597,,,,,,,,,,,,,,,,,,masks/mask_003.jpg,,,,,,,,,,,,,,,,,,,,,,,,,,,,,,,,,,,,,,,,,,,,,,,,0,4,4,2,1,,,,,,,,,,,,,,,,,,,,,,,,,,,,,,,,,,,,,,,,,
771093,001,2022-11-20_23h52.33.027,Info_measure_main_exp,2022.2.2,Win32,60.20469597,,,,,,,,,,,,,,,,,,,,,,,,,,,,,,5,1.3168,1,,,,,,,,,,,,0,131,5,5,2178,1986,absent_patch/patch0002178.jpg,absent_patch/patch0001986.jpg,,,,,,,,,,,,,,,,,,,,0.093518519,-0.037037037,1,0,0,response3disk,3,-0.00462963,-0.002777778,1,0,0,center_square,0,2,2,46,1,,,,,,,,,,,,,,,,,,,,,,,
771093,001,2022-11-20_23h52.33.027,Info_measure_main_exp,2022.2.2,Win32,60.20469597,,,,,,,,,,,,,,,,,,masks/mask_003.jpg,,,,,,,,,,,,,,,,,,,,,,,,,,,,,,,,,,,,,,,,,,,0,0,0,2,1,,,,,,,,,,,,,,,,,,,,,,,,,,,,,,,,,,,,,,,,,,,,,,
771093,001,2022-11-20_23h52.33.027,Info_measure_main_exp,2022.2.2,Win32,60.20469597,,,,,,,,,,,,,,,,,,masks/mask_005.jpg,,,,,,,,,,,,,,,,,,,,,,,,,,,,,,,,,,,,,,,,,,,0,1,1,4,1,,,,,,,,,,,,,,,,,,,,,,,,,,,,,,,,,,,,,,,,,,,,,,
771093,001,2022-11-20_23h52.33.027,Info_measure_main_exp,2022.2.2,Win32,60.20469597,,,,,,,,,,,,,,,,,,masks/mask_004.jpg,,,,,,,,,,,,,,,,,,,,,,,,,,,,,,,,,,,,,,,,,,,0,2,2,3,1,,,,,,,,,,,,,,,,,,,,,,,,,,,,,,,,,,,,,,,,,,,,,,
771093,001,2022-11-20_23h52.33.027,Info_measure_main_exp,2022.2.2,Win32,60.20469597,,,,,,,,,,,,,,,,,,masks/mask_002.jpg,,,,,,,,,,,,,,,,,,,,,,,,,,,,,,,,,,,,,,,,,,,0,3,3,1,1,,,,,,,,,,,,,,,,,,,,,,,,,,,,,,,,,,,,,,,,,,,,,,
771093,001,2022-11-20_23h52.33.027,Info_measure_main_exp,2022.2.2,Win32,60.20469597,,,,,,,,,,,,,,,,,,masks/mask_001.jpg,,,,,,,,,,,,,,,,,,,,,,,,,,,,,,,,,,,,,,,,,,,0,4,4,0,1,,,,,,,,,,,,,,,,,,,,,,,,,,,,,,,,,,,,,,,,,,,,,,
771093,001,2022-11-20_23h52.33.027,Info_measure_main_exp,2022.2.2,Win32,60.20469597,,,,,,,,,,,,,,,,,,masks/mask_003.jpg,,,,,,,,,,,,,,,,,,,,,,,,,,,,,,,,,,,,,,,,,,,,,,,,0,0,0,2,1,,,,,,,,,,,,,,,,,,,,,,,,,,,,,,,,,,,,,,,,,
771093,001,2022-11-20_23h52.33.027,Info_measure_main_exp,2022.2.2,Win32,60.20469597,,,,,,,,,,,,,,,,,,masks/mask_005.jpg,,,,,,,,,,,,,,,,,,,,,,,,,,,,,,,,,,,,,,,,,,,,,,,,0,1,1,4,1,,,,,,,,,,,,,,,,,,,,,,,,,,,,,,,,,,,,,,,,,
771093,001,2022-11-20_23h52.33.027,Info_measure_main_exp,2022.2.2,Win32,60.20469597,,,,,,,,,,,,,,,,,,masks/mask_004.jpg,,,,,,,,,,,,,,,,,,,,,,,,,,,,,,,,,,,,,,,,,,,,,,,,0,2,2,3,1,,,,,,,,,,,,,,,,,,,,,,,,,,,,,,,,,,,,,,,,,
771093,001,2022-11-20_23h52.33.027,Info_measure_main_exp,2022.2.2,Win32,60.20469597,,,,,,,,,,,,,,,,,,masks/mask_002.jpg,,,,,,,,,,,,,,,,,,,,,,,,,,,,,,,,,,,,,,,,,,,,,,,,0,3,3,1,1,,,,,,,,,,,,,,,,,,,,,,,,,,,,,,,,,,,,,,,,,
771093,001,2022-11-20_23h52.33.027,Info_measure_main_exp,2022.2.2,Win32,60.20469597,,,,,,,,,,,,,,,,,,masks/mask_001.jpg,,,,,,,,,,,,,,,,,,,,,,,,,,,,,,,,,,,,,,,,,,,,,,,,0,4,4,0,1,,,,,,,,,,,,,,,,,,,,,,,,,,,,,,,,,,,,,,,,,
771093,001,2022-11-20_23h52.33.027,Info_measure_main_exp,2022.2.2,Win32,60.20469597,,,,,,,,,,,,,,,,,,,,,,,,,,,,,,7,0.617,1,,,,,,,,,,,,0,131,5,5,2190,1986,absent_patch/patch0002190.jpg,absent_patch/patch0001986.jpg,,,,,,,,,,,,,,,,,,,,0.041666667,0.090740741,1,0,0,response1disk,4,0.000925926,0,1,0,0,center_square,0,3,3,111,1,,,,,,,,,,,,,,,,,,,,,,,
771093,001,2022-11-20_23h52.33.027,Info_measure_main_exp,2022.2.2,Win32,60.20469597,,,,,,,,,,,,,,,,,,masks/mask_001.jpg,,,,,,,,,,,,,,,,,,,,,,,,,,,,,,,,,,,,,,,,,,,0,0,0,0,1,,,,,,,,,,,,,,,,,,,,,,,,,,,,,,,,,,,,,,,,,,,,,,
771093,001,2022-11-20_23h52.33.027,Info_measure_main_exp,2022.2.2,Win32,60.20469597,,,,,,,,,,,,,,,,,,masks/mask_002.jpg,,,,,,,,,,,,,,,,,,,,,,,,,,,,,,,,,,,,,,,,,,,0,1,1,1,1,,,,,,,,,,,,,,,,,,,,,,,,,,,,,,,,,,,,,,,,,,,,,,
771093,001,2022-11-20_23h52.33.027,Info_measure_main_exp,2022.2.2,Win32,60.20469597,,,,,,,,,,,,,,,,,,masks/mask_004.jpg,,,,,,,,,,,,,,,,,,,,,,,,,,,,,,,,,,,,,,,,,,,0,2,2,3,1,,,,,,,,,,,,,,,,,,,,,,,,,,,,,,,,,,,,,,,,,,,,,,
771093,001,2022-11-20_23h52.33.027,Info_measure_main_exp,2022.2.2,Win32,60.20469597,,,,,,,,,,,,,,,,,,masks/mask_005.jpg,,,,,,,,,,,,,,,,,,,,,,,,,,,,,,,,,,,,,,,,,,,0,3,3,4,1,,,,,,,,,,,,,,,,,,,,,,,,,,,,,,,,,,,,,,,,,,,,,,
771093,001,2022-11-20_23h52.33.027,Info_measure_main_exp,2022.2.2,Win32,60.20469597,,,,,,,,,,,,,,,,,,masks/mask_003.jpg,,,,,,,,,,,,,,,,,,,,,,,,,,,,,,,,,,,,,,,,,,,0,4,4,2,1,,,,,,,,,,,,,,,,,,,,,,,,,,,,,,,,,,,,,,,,,,,,,,
771093,001,2022-11-20_23h52.33.027,Info_measure_main_exp,2022.2.2,Win32,60.20469597,,,,,,,,,,,,,,,,,,masks/mask_002.jpg,,,,,,,,,,,,,,,,,,,,,,,,,,,,,,,,,,,,,,,,,,,,,,,,0,0,0,1,1,,,,,,,,,,,,,,,,,,,,,,,,,,,,,,,,,,,,,,,,,
771093,001,2022-11-20_23h52.33.027,Info_measure_main_exp,2022.2.2,Win32,60.20469597,,,,,,,,,,,,,,,,,,masks/mask_005.jpg,,,,,,,,,,,,,,,,,,,,,,,,,,,,,,,,,,,,,,,,,,,,,,,,0,1,1,4,1,,,,,,,,,,,,,,,,,,,,,,,,,,,,,,,,,,,,,,,,,
771093,001,2022-11-20_23h52.33.027,Info_measure_main_exp,2022.2.2,Win32,60.20469597,,,,,,,,,,,,,,,,,,masks/mask_001.jpg,,,,,,,,,,,,,,,,,,,,,,,,,,,,,,,,,,,,,,,,,,,,,,,,0,2,2,0,1,,,,,,,,,,,,,,,,,,,,,,,,,,,,,,,,,,,,,,,,,
771093,001,2022-11-20_23h52.33.027,Info_measure_main_exp,2022.2.2,Win32,60.20469597,,,,,,,,,,,,,,,,,,masks/mask_004.jpg,,,,,,,,,,,,,,,,,,,,,,,,,,,,,,,,,,,,,,,,,,,,,,,,0,3,3,3,1,,,,,,,,,,,,,,,,,,,,,,,,,,,,,,,,,,,,,,,,,
771093,001,2022-11-20_23h52.33.027,Info_measure_main_exp,2022.2.2,Win32,60.20469597,,,,,,,,,,,,,,,,,,masks/mask_003.jpg,,,,,,,,,,,,,,,,,,,,,,,,,,,,,,,,,,,,,,,,,,,,,,,,0,4,4,2,1,,,,,,,,,,,,,,,,,,,,,,,,,,,,,,,,,,,,,,,,,
771093,001,2022-11-20_23h52.33.027,Info_measure_main_exp,2022.2.2,Win32,60.20469597,,,,,,,,,,,,,,,,,,,,,,,,,,,,,,7,0.6167,1,,,,,,,,,,,,0,131,5,5,2250,1986,absent_patch/patch0002250.jpg,absent_patch/patch0001986.jpg,,,,,,,,,,,,,,,,,,,,0.035185185,0.061111111,1,0,0,response1disk,5,0,-0.002777778,1,0,0,center_square,0,4,4,29,1,,,,,,,,,,,,,,,,,,,,,,,
771093,001,2022-11-20_23h52.33.027,Info_measure_main_exp,2022.2.2,Win32,60.20469597,,,,,,,,,,,,,,,,,,masks/mask_005.jpg,,,,,,,,,,,,,,,,,,,,,,,,,,,,,,,,,,,,,,,,,,,0,0,0,4,1,,,,,,,,,,,,,,,,,,,,,,,,,,,,,,,,,,,,,,,,,,,,,,
771093,001,2022-11-20_23h52.33.027,Info_measure_main_exp,2022.2.2,Win32,60.20469597,,,,,,,,,,,,,,,,,,masks/mask_002.jpg,,,,,,,,,,,,,,,,,,,,,,,,,,,,,,,,,,,,,,,,,,,0,1,1,1,1,,,,,,,,,,,,,,,,,,,,,,,,,,,,,,,,,,,,,,,,,,,,,,
771093,001,2022-11-20_23h52.33.027,Info_measure_main_exp,2022.2.2,Win32,60.20469597,,,,,,,,,,,,,,,,,,masks/mask_001.jpg,,,,,,,,,,,,,,,,,,,,,,,,,,,,,,,,,,,,,,,,,,,0,2,2,0,1,,,,,,,,,,,,,,,,,,,,,,,,,,,,,,,,,,,,,,,,,,,,,,
771093,001,2022-11-20_23h52.33.027,Info_measure_main_exp,2022.2.2,Win32,60.20469597,,,,,,,,,,,,,,,,,,masks/mask_003.jpg,,,,,,,,,,,,,,,,,,,,,,,,,,,,,,,,,,,,,,,,,,,0,3,3,2,1,,,,,,,,,,,,,,,,,,,,,,,,,,,,,,,,,,,,,,,,,,,,,,
771093,001,2022-11-20_23h52.33.027,Info_measure_main_exp,2022.2.2,Win32,60.20469597,,,,,,,,,,,,,,,,,,masks/mask_004.jpg,,,,,,,,,,,,,,,,,,,,,,,,,,,,,,,,,,,,,,,,,,,0,4,4,3,1,,,,,,,,,,,,,,,,,,,,,,,,,,,,,,,,,,,,,,,,,,,,,,
771093,001,2022-11-20_23h52.33.027,Info_measure_main_exp,2022.2.2,Win32,60.20469597,,,,,,,,,,,,,,,,,,masks/mask_004.jpg,,,,,,,,,,,,,,,,,,,,,,,,,,,,,,,,,,,,,,,,,,,,,,,,0,0,0,3,1,,,,,,,,,,,,,,,,,,,,,,,,,,,,,,,,,,,,,,,,,
771093,001,2022-11-20_23h52.33.027,Info_measure_main_exp,2022.2.2,Win32,60.20469597,,,,,,,,,,,,,,,,,,masks/mask_001.jpg,,,,,,,,,,,,,,,,,,,,,,,,,,,,,,,,,,,,,,,,,,,,,,,,0,1,1,0,1,,,,,,,,,,,,,,,,,,,,,,,,,,,,,,,,,,,,,,,,,
771093,001,2022-11-20_23h52.33.027,Info_measure_main_exp,2022.2.2,Win32,60.20469597,,,,,,,,,,,,,,,,,,masks/mask_002.jpg,,,,,,,,,,,,,,,,,,,,,,,,,,,,,,,,,,,,,,,,,,,,,,,,0,2,2,1,1,,,,,,,,,,,,,,,,,,,,,,,,,,,,,,,,,,,,,,,,,
771093,001,2022-11-20_23h52.33.027,Info_measure_main_exp,2022.2.2,Win32,60.20469597,,,,,,,,,,,,,,,,,,masks/mask_003.jpg,,,,,,,,,,,,,,,,,,,,,,,,,,,,,,,,,,,,,,,,,,,,,,,,0,3,3,2,1,,,,,,,,,,,,,,,,,,,,,,,,,,,,,,,,,,,,,,,,,
771093,001,2022-11-20_23h52.33.027,Info_measure_main_exp,2022.2.2,Win32,60.20469597,,,,,,,,,,,,,,,,,,masks/mask_005.jpg,,,,,,,,,,,,,,,,,,,,,,,,,,,,,,,,,,,,,,,,,,,,,,,,0,4,4,4,1,,,,,,,,,,,,,,,,,,,,,,,,,,,,,,,,,,,,,,,,,
771093,001,2022-11-20_23h52.33.027,Info_measure_main_exp,2022.2.2,Win32,60.20469597,,,,,,,,,,,,,,,,,,,,,,,,,,,,,,7,0.783,1,,,,,,,,,,,,0,131,5,5,2166,2298,absent_patch/patch0002166.jpg,absent_patch/patch0002298.jpg,,,,,,,,,,,,,,,,,,,,0.055555556,0.082407407,1,0,0,response1disk,6,0.012962963,0.014814815,1,0,0,center_square,0,5,5,52,1,,,,,,,,,,,,,,,,,,,,,,,
771093,001,2022-11-20_23h52.33.027,Info_measure_main_exp,2022.2.2,Win32,60.20469597,,,,,,,,,,,,,,,,,,masks/mask_004.jpg,,,,,,,,,,,,,,,,,,,,,,,,,,,,,,,,,,,,,,,,,,,0,0,0,3,1,,,,,,,,,,,,,,,,,,,,,,,,,,,,,,,,,,,,,,,,,,,,,,
771093,001,2022-11-20_23h52.33.027,Info_measure_main_exp,2022.2.2,Win32,60.20469597,,,,,,,,,,,,,,,,,,masks/mask_005.jpg,,,,,,,,,,,,,,,,,,,,,,,,,,,,,,,,,,,,,,,,,,,0,1,1,4,1,,,,,,,,,,,,,,,,,,,,,,,,,,,,,,,,,,,,,,,,,,,,,,
771093,001,2022-11-20_23h52.33.027,Info_measure_main_exp,2022.2.2,Win32,60.20469597,,,,,,,,,,,,,,,,,,masks/mask_002.jpg,,,,,,,,,,,,,,,,,,,,,,,,,,,,,,,,,,,,,,,,,,,0,2,2,1,1,,,,,,,,,,,,,,,,,,,,,,,,,,,,,,,,,,,,,,,,,,,,,,
771093,001,2022-11-20_23h52.33.027,Info_measure_main_exp,2022.2.2,Win32,60.20469597,,,,,,,,,,,,,,,,,,masks/mask_001.jpg,,,,,,,,,,,,,,,,,,,,,,,,,,,,,,,,,,,,,,,,,,,0,3,3,0,1,,,,,,,,,,,,,,,,,,,,,,,,,,,,,,,,,,,,,,,,,,,,,,
771093,001,2022-11-20_23h52.33.027,Info_measure_main_exp,2022.2.2,Win32,60.20469597,,,,,,,,,,,,,,,,,,masks/mask_003.jpg,,,,,,,,,,,,,,,,,,,,,,,,,,,,,,,,,,,,,,,,,,,0,4,4,2,1,,,,,,,,,,,,,,,,,,,,,,,,,,,,,,,,,,,,,,,,,,,,,,
771093,001,2022-11-20_23h52.33.027,Info_measure_main_exp,2022.2.2,Win32,60.20469597,,,,,,,,,,,,,,,,,,masks/mask_001.jpg,,,,,,,,,,,,,,,,,,,,,,,,,,,,,,,,,,,,,,,,,,,,,,,,0,0,0,0,1,,,,,,,,,,,,,,,,,,,,,,,,,,,,,,,,,,,,,,,,,
771093,001,2022-11-20_23h52.33.027,Info_measure_main_exp,2022.2.2,Win32,60.20469597,,,,,,,,,,,,,,,,,,masks/mask_003.jpg,,,,,,,,,,,,,,,,,,,,,,,,,,,,,,,,,,,,,,,,,,,,,,,,0,1,1,2,1,,,,,,,,,,,,,,,,,,,,,,,,,,,,,,,,,,,,,,,,,
771093,001,2022-11-20_23h52.33.027,Info_measure_main_exp,2022.2.2,Win32,60.20469597,,,,,,,,,,,,,,,,,,masks/mask_004.jpg,,,,,,,,,,,,,,,,,,,,,,,,,,,,,,,,,,,,,,,,,,,,,,,,0,2,2,3,1,,,,,,,,,,,,,,,,,,,,,,,,,,,,,,,,,,,,,,,,,
771093,001,2022-11-20_23h52.33.027,Info_measure_main_exp,2022.2.2,Win32,60.20469597,,,,,,,,,,,,,,,,,,masks/mask_002.jpg,,,,,,,,,,,,,,,,,,,,,,,,,,,,,,,,,,,,,,,,,,,,,,,,0,3,3,1,1,,,,,,,,,,,,,,,,,,,,,,,,,,,,,,,,,,,,,,,,,
771093,001,2022-11-20_23h52.33.027,Info_measure_main_exp,2022.2.2,Win32,60.20469597,,,,,,,,,,,,,,,,,,masks/mask_005.jpg,,,,,,,,,,,,,,,,,,,,,,,,,,,,,,,,,,,,,,,,,,,,,,,,0,4,4,4,1,,,,,,,,,,,,,,,,,,,,,,,,,,,,,,,,,,,,,,,,,
771093,001,2022-11-20_23h52.33.027,Info_measure_main_exp,2022.2.2,Win32,60.20469597,,,,,,,,,,,,,,,,,,,,,,,,,,,,,,1,1.0338,1,,,,,,,,,,,,0,131,5,5,1974,1950,absent_patch/patch0001974.jpg,absent_patch/patch0001950.jpg,,,,,,,,,,,,,,,,,,,,-0.130555556,0.042592593,1,0,0,response7disk,7,0.008333333,0.001851852,1,0,0,center_square,0,6,6,17,1,,,,,,,,,,,,,,,,,,,,,,,
771093,001,2022-11-20_23h52.33.027,Info_measure_main_exp,2022.2.2,Win32,60.20469597,,,,,,,,,,,,,,,,,,masks/mask_001.jpg,,,,,,,,,,,,,,,,,,,,,,,,,,,,,,,,,,,,,,,,,,,0,0,0,0,1,,,,,,,,,,,,,,,,,,,,,,,,,,,,,,,,,,,,,,,,,,,,,,
771093,001,2022-11-20_23h52.33.027,Info_measure_main_exp,2022.2.2,Win32,60.20469597,,,,,,,,,,,,,,,,,,masks/mask_004.jpg,,,,,,,,,,,,,,,,,,,,,,,,,,,,,,,,,,,,,,,,,,,0,1,1,3,1,,,,,,,,,,,,,,,,,,,,,,,,,,,,,,,,,,,,,,,,,,,,,,
771093,001,2022-11-20_23h52.33.027,Info_measure_main_exp,2022.2.2,Win32,60.20469597,,,,,,,,,,,,,,,,,,masks/mask_002.jpg,,,,,,,,,,,,,,,,,,,,,,,,,,,,,,,,,,,,,,,,,,,0,2,2,1,1,,,,,,,,,,,,,,,,,,,,,,,,,,,,,,,,,,,,,,,,,,,,,,
771093,001,2022-11-20_23h52.33.027,Info_measure_main_exp,2022.2.2,Win32,60.20469597,,,,,,,,,,,,,,,,,,masks/mask_005.jpg,,,,,,,,,,,,,,,,,,,,,,,,,,,,,,,,,,,,,,,,,,,0,3,3,4,1,,,,,,,,,,,,,,,,,,,,,,,,,,,,,,,,,,,,,,,,,,,,,,
771093,001,2022-11-20_23h52.33.027,Info_measure_main_exp,2022.2.2,Win32,60.20469597,,,,,,,,,,,,,,,,,,masks/mask_003.jpg,,,,,,,,,,,,,,,,,,,,,,,,,,,,,,,,,,,,,,,,,,,0,4,4,2,1,,,,,,,,,,,,,,,,,,,,,,,,,,,,,,,,,,,,,,,,,,,,,,
771093,001,2022-11-20_23h52.33.027,Info_measure_main_exp,2022.2.2,Win32,60.20469597,,,,,,,,,,,,,,,,,,masks/mask_004.jpg,,,,,,,,,,,,,,,,,,,,,,,,,,,,,,,,,,,,,,,,,,,,,,,,0,0,0,3,1,,,,,,,,,,,,,,,,,,,,,,,,,,,,,,,,,,,,,,,,,
771093,001,2022-11-20_23h52.33.027,Info_measure_main_exp,2022.2.2,Win32,60.20469597,,,,,,,,,,,,,,,,,,masks/mask_003.jpg,,,,,,,,,,,,,,,,,,,,,,,,,,,,,,,,,,,,,,,,,,,,,,,,0,1,1,2,1,,,,,,,,,,,,,,,,,,,,,,,,,,,,,,,,,,,,,,,,,
771093,001,2022-11-20_23h52.33.027,Info_measure_main_exp,2022.2.2,Win32,60.20469597,,,,,,,,,,,,,,,,,,masks/mask_002.jpg,,,,,,,,,,,,,,,,,,,,,,,,,,,,,,,,,,,,,,,,,,,,,,,,0,2,2,1,1,,,,,,,,,,,,,,,,,,,,,,,,,,,,,,,,,,,,,,,,,
771093,001,2022-11-20_23h52.33.027,Info_measure_main_exp,2022.2.2,Win32,60.20469597,,,,,,,,,,,,,,,,,,masks/mask_001.jpg,,,,,,,,,,,,,,,,,,,,,,,,,,,,,,,,,,,,,,,,,,,,,,,,0,3,3,0,1,,,,,,,,,,,,,,,,,,,,,,,,,,,,,,,,,,,,,,,,,
771093,001,2022-11-20_23h52.33.027,Info_measure_main_exp,2022.2.2,Win32,60.20469597,,,,,,,,,,,,,,,,,,masks/mask_005.jpg,,,,,,,,,,,,,,,,,,,,,,,,,,,,,,,,,,,,,,,,,,,,,,,,0,4,4,4,1,,,,,,,,,,,,,,,,,,,,,,,,,,,,,,,,,,,,,,,,,
771093,001,2022-11-20_23h52.33.027,Info_measure_main_exp,2022.2.2,Win32,60.20469597,,,,,,,,,,,,,,,,,,,,,,,,,,,,,,0,0.5667,1,,,,,,,,,,,,0,131,5,5,2082,2082,absent_patch/patch0002082.jpg,absent_patch/patch0002082.jpg,,,,,,,,,,,,,,,,,,,,-0.037037037,0.093518519,1,0,0,response7disk,8,0.003703704,0.003703704,1,0,0,center_square,0,7,7,74,1,,,,,,,,,,,,,,,,,,,,,,,
771093,001,2022-11-20_23h52.33.027,Info_measure_main_exp,2022.2.2,Win32,60.20469597,,,,,,,,,,,,,,,,,,masks/mask_002.jpg,,,,,,,,,,,,,,,,,,,,,,,,,,,,,,,,,,,,,,,,,,,0,0,0,1,1,,,,,,,,,,,,,,,,,,,,,,,,,,,,,,,,,,,,,,,,,,,,,,
771093,001,2022-11-20_23h52.33.027,Info_measure_main_exp,2022.2.2,Win32,60.20469597,,,,,,,,,,,,,,,,,,masks/mask_001.jpg,,,,,,,,,,,,,,,,,,,,,,,,,,,,,,,,,,,,,,,,,,,0,1,1,0,1,,,,,,,,,,,,,,,,,,,,,,,,,,,,,,,,,,,,,,,,,,,,,,
771093,001,2022-11-20_23h52.33.027,Info_measure_main_exp,2022.2.2,Win32,60.20469597,,,,,,,,,,,,,,,,,,masks/mask_005.jpg,,,,,,,,,,,,,,,,,,,,,,,,,,,,,,,,,,,,,,,,,,,0,2,2,4,1,,,,,,,,,,,,,,,,,,,,,,,,,,,,,,,,,,,,,,,,,,,,,,
771093,001,2022-11-20_23h52.33.027,Info_measure_main_exp,2022.2.2,Win32,60.20469597,,,,,,,,,,,,,,,,,,masks/mask_004.jpg,,,,,,,,,,,,,,,,,,,,,,,,,,,,,,,,,,,,,,,,,,,0,3,3,3,1,,,,,,,,,,,,,,,,,,,,,,,,,,,,,,,,,,,,,,,,,,,,,,
771093,001,2022-11-20_23h52.33.027,Info_measure_main_exp,2022.2.2,Win32,60.20469597,,,,,,,,,,,,,,,,,,masks/mask_003.jpg,,,,,,,,,,,,,,,,,,,,,,,,,,,,,,,,,,,,,,,,,,,0,4,4,2,1,,,,,,,,,,,,,,,,,,,,,,,,,,,,,,,,,,,,,,,,,,,,,,
771093,001,2022-11-20_23h52.33.027,Info_measure_main_exp,2022.2.2,Win32,60.20469597,,,,,,,,,,,,,,,,,,masks/mask_003.jpg,,,,,,,,,,,,,,,,,,,,,,,,,,,,,,,,,,,,,,,,,,,,,,,,0,0,0,2,1,,,,,,,,,,,,,,,,,,,,,,,,,,,,,,,,,,,,,,,,,
771093,001,2022-11-20_23h52.33.027,Info_measure_main_exp,2022.2.2,Win32,60.20469597,,,,,,,,,,,,,,,,,,masks/mask_005.jpg,,,,,,,,,,,,,,,,,,,,,,,,,,,,,,,,,,,,,,,,,,,,,,,,0,1,1,4,1,,,,,,,,,,,,,,,,,,,,,,,,,,,,,,,,,,,,,,,,,
771093,001,2022-11-20_23h52.33.027,Info_measure_main_exp,2022.2.2,Win32,60.20469597,,,,,,,,,,,,,,,,,,masks/mask_002.jpg,,,,,,,,,,,,,,,,,,,,,,,,,,,,,,,,,,,,,,,,,,,,,,,,0,2,2,1,1,,,,,,,,,,,,,,,,,,,,,,,,,,,,,,,,,,,,,,,,,
771093,001,2022-11-20_23h52.33.027,Info_measure_main_exp,2022.2.2,Win32,60.20469597,,,,,,,,,,,,,,,,,,masks/mask_001.jpg,,,,,,,,,,,,,,,,,,,,,,,,,,,,,,,,,,,,,,,,,,,,,,,,0,3,3,0,1,,,,,,,,,,,,,,,,,,,,,,,,,,,,,,,,,,,,,,,,,
771093,001,2022-11-20_23h52.33.027,Info_measure_main_exp,2022.2.2,Win32,60.20469597,,,,,,,,,,,,,,,,,,masks/mask_004.jpg,,,,,,,,,,,,,,,,,,,,,,,,,,,,,,,,,,,,,,,,,,,,,,,,0,4,4,3,1,,,,,,,,,,,,,,,,,,,,,,,,,,,,,,,,,,,,,,,,,
771093,001,2022-11-20_23h52.33.027,Info_measure_main_exp,2022.2.2,Win32,60.20469597,,,,,,,,,,,,,,,,,,,,,,,,,,,,,,7,0.5667,1,,,,,,,,,,,,1,131,5,5,2190,1,absent_patch/patch0002190.jpg,present_patch/cong_131_5_a.jpg,,,,,,,,,,,,,,,,,,,,0.040740741,0.097222222,1,0,0,response1disk,9,-0.011111111,0.001851852,1,0,0,center_square,0,8,8,64,1,,,,,,,,,,,,,,,,,,,,,,,
771093,001,2022-11-20_23h52.33.027,Info_measure_main_exp,2022.2.2,Win32,60.20469597,,,,,,,,,,,,,,,,,,masks/mask_005.jpg,,,,,,,,,,,,,,,,,,,,,,,,,,,,,,,,,,,,,,,,,,,0,0,0,4,1,,,,,,,,,,,,,,,,,,,,,,,,,,,,,,,,,,,,,,,,,,,,,,
771093,001,2022-11-20_23h52.33.027,Info_measure_main_exp,2022.2.2,Win32,60.20469597,,,,,,,,,,,,,,,,,,masks/mask_002.jpg,,,,,,,,,,,,,,,,,,,,,,,,,,,,,,,,,,,,,,,,,,,0,1,1,1,1,,,,,,,,,,,,,,,,,,,,,,,,,,,,,,,,,,,,,,,,,,,,,,
771093,001,2022-11-20_23h52.33.027,Info_measure_main_exp,2022.2.2,Win32,60.20469597,,,,,,,,,,,,,,,,,,masks/mask_004.jpg,,,,,,,,,,,,,,,,,,,,,,,,,,,,,,,,,,,,,,,,,,,0,2,2,3,1,,,,,,,,,,,,,,,,,,,,,,,,,,,,,,,,,,,,,,,,,,,,,,
771093,001,2022-11-20_23h52.33.027,Info_measure_main_exp,2022.2.2,Win32,60.20469597,,,,,,,,,,,,,,,,,,masks/mask_003.jpg,,,,,,,,,,,,,,,,,,,,,,,,,,,,,,,,,,,,,,,,,,,0,3,3,2,1,,,,,,,,,,,,,,,,,,,,,,,,,,,,,,,,,,,,,,,,,,,,,,
771093,001,2022-11-20_23h52.33.027,Info_measure_main_exp,2022.2.2,Win32,60.20469597,,,,,,,,,,,,,,,,,,masks/mask_001.jpg,,,,,,,,,,,,,,,,,,,,,,,,,,,,,,,,,,,,,,,,,,,0,4,4,0,1,,,,,,,,,,,,,,,,,,,,,,,,,,,,,,,,,,,,,,,,,,,,,,
771093,001,2022-11-20_23h52.33.027,Info_measure_main_exp,2022.2.2,Win32,60.20469597,,,,,,,,,,,,,,,,,,masks/mask_002.jpg,,,,,,,,,,,,,,,,,,,,,,,,,,,,,,,,,,,,,,,,,,,,,,,,0,0,0,1,1,,,,,,,,,,,,,,,,,,,,,,,,,,,,,,,,,,,,,,,,,
771093,001,2022-11-20_23h52.33.027,Info_measure_main_exp,2022.2.2,Win32,60.20469597,,,,,,,,,,,,,,,,,,masks/mask_005.jpg,,,,,,,,,,,,,,,,,,,,,,,,,,,,,,,,,,,,,,,,,,,,,,,,0,1,1,4,1,,,,,,,,,,,,,,,,,,,,,,,,,,,,,,,,,,,,,,,,,
771093,001,2022-11-20_23h52.33.027,Info_measure_main_exp,2022.2.2,Win32,60.20469597,,,,,,,,,,,,,,,,,,masks/mask_003.jpg,,,,,,,,,,,,,,,,,,,,,,,,,,,,,,,,,,,,,,,,,,,,,,,,0,2,2,2,1,,,,,,,,,,,,,,,,,,,,,,,,,,,,,,,,,,,,,,,,,
771093,001,2022-11-20_23h52.33.027,Info_measure_main_exp,2022.2.2,Win32,60.20469597,,,,,,,,,,,,,,,,,,masks/mask_004.jpg,,,,,,,,,,,,,,,,,,,,,,,,,,,,,,,,,,,,,,,,,,,,,,,,0,3,3,3,1,,,,,,,,,,,,,,,,,,,,,,,,,,,,,,,,,,,,,,,,,
771093,001,2022-11-20_23h52.33.027,Info_measure_main_exp,2022.2.2,Win32,60.20469597,,,,,,,,,,,,,,,,,,masks/mask_001.jpg,,,,,,,,,,,,,,,,,,,,,,,,,,,,,,,,,,,,,,,,,,,,,,,,0,4,4,0,1,,,,,,,,,,,,,,,,,,,,,,,,,,,,,,,,,,,,,,,,,
771093,001,2022-11-20_23h52.33.027,Info_measure_main_exp,2022.2.2,Win32,60.20469597,,,,,,,,,,,,,,,,,,,,,,,,,,,,,,7,0.7166,1,,,,,,,,,,,,1,131,5,5,1,1974,present_patch/cong_131_5_a.jpg,absent_patch/patch0001974.jpg,,,,,,,,,,,,,,,,,,,,0.062037037,0.105555556,1,0,0,response1disk,10,0.010185185,0.00462963,1,0,0,center_square,0,9,9,69,1,,,,,,,,,,,,,,,,,,,,,,,
771093,001,2022-11-20_23h52.33.027,Info_measure_main_exp,2022.2.2,Win32,60.20469597,,,,,,,,,,,,,,,,,,masks/mask_005.jpg,,,,,,,,,,,,,,,,,,,,,,,,,,,,,,,,,,,,,,,,,,,0,0,0,4,1,,,,,,,,,,,,,,,,,,,,,,,,,,,,,,,,,,,,,,,,,,,,,,
771093,001,2022-11-20_23h52.33.027,Info_measure_main_exp,2022.2.2,Win32,60.20469597,,,,,,,,,,,,,,,,,,masks/mask_004.jpg,,,,,,,,,,,,,,,,,,,,,,,,,,,,,,,,,,,,,,,,,,,0,1,1,3,1,,,,,,,,,,,,,,,,,,,,,,,,,,,,,,,,,,,,,,,,,,,,,,
771093,001,2022-11-20_23h52.33.027,Info_measure_main_exp,2022.2.2,Win32,60.20469597,,,,,,,,,,,,,,,,,,masks/mask_001.jpg,,,,,,,,,,,,,,,,,,,,,,,,,,,,,,,,,,,,,,,,,,,0,2,2,0,1,,,,,,,,,,,,,,,,,,,,,,,,,,,,,,,,,,,,,,,,,,,,,,
771093,001,2022-11-20_23h52.33.027,Info_measure_main_exp,2022.2.2,Win32,60.20469597,,,,,,,,,,,,,,,,,,masks/mask_003.jpg,,,,,,,,,,,,,,,,,,,,,,,,,,,,,,,,,,,,,,,,,,,0,3,3,2,1,,,,,,,,,,,,,,,,,,,,,,,,,,,,,,,,,,,,,,,,,,,,,,
771093,001,2022-11-20_23h52.33.027,Info_measure_main_exp,2022.2.2,Win32,60.20469597,,,,,,,,,,,,,,,,,,masks/mask_002.jpg,,,,,,,,,,,,,,,,,,,,,,,,,,,,,,,,,,,,,,,,,,,0,4,4,1,1,,,,,,,,,,,,,,,,,,,,,,,,,,,,,,,,,,,,,,,,,,,,,,
771093,001,2022-11-20_23h52.33.027,Info_measure_main_exp,2022.2.2,Win32,60.20469597,,,,,,,,,,,,,,,,,,masks/mask_005.jpg,,,,,,,,,,,,,,,,,,,,,,,,,,,,,,,,,,,,,,,,,,,,,,,,0,0,0,4,1,,,,,,,,,,,,,,,,,,,,,,,,,,,,,,,,,,,,,,,,,
771093,001,2022-11-20_23h52.33.027,Info_measure_main_exp,2022.2.2,Win32,60.20469597,,,,,,,,,,,,,,,,,,masks/mask_003.jpg,,,,,,,,,,,,,,,,,,,,,,,,,,,,,,,,,,,,,,,,,,,,,,,,0,1,1,2,1,,,,,,,,,,,,,,,,,,,,,,,,,,,,,,,,,,,,,,,,,
771093,001,2022-11-20_23h52.33.027,Info_measure_main_exp,2022.2.2,Win32,60.20469597,,,,,,,,,,,,,,,,,,masks/mask_004.jpg,,,,,,,,,,,,,,,,,,,,,,,,,,,,,,,,,,,,,,,,,,,,,,,,0,2,2,3,1,,,,,,,,,,,,,,,,,,,,,,,,,,,,,,,,,,,,,,,,,
771093,001,2022-11-20_23h52.33.027,Info_measure_main_exp,2022.2.2,Win32,60.20469597,,,,,,,,,,,,,,,,,,masks/mask_001.jpg,,,,,,,,,,,,,,,,,,,,,,,,,,,,,,,,,,,,,,,,,,,,,,,,0,3,3,0,1,,,,,,,,,,,,,,,,,,,,,,,,,,,,,,,,,,,,,,,,,
771093,001,2022-11-20_23h52.33.027,Info_measure_main_exp,2022.2.2,Win32,60.20469597,,,,,,,,,,,,,,,,,,masks/mask_002.jpg,,,,,,,,,,,,,,,,,,,,,,,,,,,,,,,,,,,,,,,,,,,,,,,,0,4,4,1,1,,,,,,,,,,,,,,,,,,,,,,,,,,,,,,,,,,,,,,,,,
771093,001,2022-11-20_23h52.33.027,Info_measure_main_exp,2022.2.2,Win32,60.20469597,,,,,,,,,,,,,,,,,,,,,,,,,,,,,,7,0.5331,1,,,,,,,,,,,,0,131,5,5,2190,2082,absent_patch/patch0002190.jpg,absent_patch/patch0002082.jpg,,,,,,,,,,,,,,,,,,,,0.055555556,0.184259259,1,0,0,response1disk,11,0.003703704,-0.006481481,1,0,0,center_square,0,10,10,112,1,,,,,,,,,,,,,,,,,,,,,,,
771093,001,2022-11-20_23h52.33.027,Info_measure_main_exp,2022.2.2,Win32,60.20469597,,,,,,,,,,,,,,,,,,masks/mask_004.jpg,,,,,,,,,,,,,,,,,,,,,,,,,,,,,,,,,,,,,,,,,,,0,0,0,3,1,,,,,,,,,,,,,,,,,,,,,,,,,,,,,,,,,,,,,,,,,,,,,,
771093,001,2022-11-20_23h52.33.027,Info_measure_main_exp,2022.2.2,Win32,60.20469597,,,,,,,,,,,,,,,,,,masks/mask_005.jpg,,,,,,,,,,,,,,,,,,,,,,,,,,,,,,,,,,,,,,,,,,,0,1,1,4,1,,,,,,,,,,,,,,,,,,,,,,,,,,,,,,,,,,,,,,,,,,,,,,
771093,001,2022-11-20_23h52.33.027,Info_measure_main_exp,2022.2.2,Win32,60.20469597,,,,,,,,,,,,,,,,,,masks/mask_001.jpg,,,,,,,,,,,,,,,,,,,,,,,,,,,,,,,,,,,,,,,,,,,0,2,2,0,1,,,,,,,,,,,,,,,,,,,,,,,,,,,,,,,,,,,,,,,,,,,,,,
771093,001,2022-11-20_23h52.33.027,Info_measure_main_exp,2022.2.2,Win32,60.20469597,,,,,,,,,,,,,,,,,,masks/mask_003.jpg,,,,,,,,,,,,,,,,,,,,,,,,,,,,,,,,,,,,,,,,,,,0,3,3,2,1,,,,,,,,,,,,,,,,,,,,,,,,,,,,,,,,,,,,,,,,,,,,,,
771093,001,2022-11-20_23h52.33.027,Info_measure_main_exp,2022.2.2,Win32,60.20469597,,,,,,,,,,,,,,,,,,masks/mask_002.jpg,,,,,,,,,,,,,,,,,,,,,,,,,,,,,,,,,,,,,,,,,,,0,4,4,1,1,,,,,,,,,,,,,,,,,,,,,,,,,,,,,,,,,,,,,,,,,,,,,,
771093,001,2022-11-20_23h52.33.027,Info_measure_main_exp,2022.2.2,Win32,60.20469597,,,,,,,,,,,,,,,,,,masks/mask_001.jpg,,,,,,,,,,,,,,,,,,,,,,,,,,,,,,,,,,,,,,,,,,,,,,,,0,0,0,0,1,,,,,,,,,,,,,,,,,,,,,,,,,,,,,,,,,,,,,,,,,
771093,001,2022-11-20_23h52.33.027,Info_measure_main_exp,2022.2.2,Win32,60.20469597,,,,,,,,,,,,,,,,,,masks/mask_002.jpg,,,,,,,,,,,,,,,,,,,,,,,,,,,,,,,,,,,,,,,,,,,,,,,,0,1,1,1,1,,,,,,,,,,,,,,,,,,,,,,,,,,,,,,,,,,,,,,,,,
771093,001,2022-11-20_23h52.33.027,Info_measure_main_exp,2022.2.2,Win32,60.20469597,,,,,,,,,,,,,,,,,,masks/mask_003.jpg,,,,,,,,,,,,,,,,,,,,,,,,,,,,,,,,,,,,,,,,,,,,,,,,0,2,2,2,1,,,,,,,,,,,,,,,,,,,,,,,,,,,,,,,,,,,,,,,,,
771093,001,2022-11-20_23h52.33.027,Info_measure_main_exp,2022.2.2,Win32,60.20469597,,,,,,,,,,,,,,,,,,masks/mask_005.jpg,,,,,,,,,,,,,,,,,,,,,,,,,,,,,,,,,,,,,,,,,,,,,,,,0,3,3,4,1,,,,,,,,,,,,,,,,,,,,,,,,,,,,,,,,,,,,,,,,,
771093,001,2022-11-20_23h52.33.027,Info_measure_main_exp,2022.2.2,Win32,60.20469597,,,,,,,,,,,,,,,,,,masks/mask_004.jpg,,,,,,,,,,,,,,,,,,,,,,,,,,,,,,,,,,,,,,,,,,,,,,,,0,4,4,3,1,,,,,,,,,,,,,,,,,,,,,,,,,,,,,,,,,,,,,,,,,
771093,001,2022-11-20_23h52.33.027,Info_measure_main_exp,2022.2.2,Win32,60.20469597,,,,,,,,,,,,,,,,,,,,,,,,,,,,,,7,1.1002,1,,,,,,,,,,,,1,131,5,5,1,2274,present_patch/cong_131_5_a.jpg,absent_patch/patch0002274.jpg,,,,,,,,,,,,,,,,,,,,0.072222222,0.141666667,1,0,0,response1disk,12,-0.000925926,-0.001851852,1,0,0,center_square,0,11,11,105,1,,,,,,,,,,,,,,,,,,,,,,,
771093,001,2022-11-20_23h52.33.027,Info_measure_main_exp,2022.2.2,Win32,60.20469597,,,,,,,,,,,,,,,,,,masks/mask_004.jpg,,,,,,,,,,,,,,,,,,,,,,,,,,,,,,,,,,,,,,,,,,,0,0,0,3,1,,,,,,,,,,,,,,,,,,,,,,,,,,,,,,,,,,,,,,,,,,,,,,
771093,001,2022-11-20_23h52.33.027,Info_measure_main_exp,2022.2.2,Win32,60.20469597,,,,,,,,,,,,,,,,,,masks/mask_003.jpg,,,,,,,,,,,,,,,,,,,,,,,,,,,,,,,,,,,,,,,,,,,0,1,1,2,1,,,,,,,,,,,,,,,,,,,,,,,,,,,,,,,,,,,,,,,,,,,,,,
771093,001,2022-11-20_23h52.33.027,Info_measure_main_exp,2022.2.2,Win32,60.20469597,,,,,,,,,,,,,,,,,,masks/mask_001.jpg,,,,,,,,,,,,,,,,,,,,,,,,,,,,,,,,,,,,,,,,,,,0,2,2,0,1,,,,,,,,,,,,,,,,,,,,,,,,,,,,,,,,,,,,,,,,,,,,,,
771093,001,2022-11-20_23h52.33.027,Info_measure_main_exp,2022.2.2,Win32,60.20469597,,,,,,,,,,,,,,,,,,masks/mask_002.jpg,,,,,,,,,,,,,,,,,,,,,,,,,,,,,,,,,,,,,,,,,,,0,3,3,1,1,,,,,,,,,,,,,,,,,,,,,,,,,,,,,,,,,,,,,,,,,,,,,,
771093,001,2022-11-20_23h52.33.027,Info_measure_main_exp,2022.2.2,Win32,60.20469597,,,,,,,,,,,,,,,,,,masks/mask_005.jpg,,,,,,,,,,,,,,,,,,,,,,,,,,,,,,,,,,,,,,,,,,,0,4,4,4,1,,,,,,,,,,,,,,,,,,,,,,,,,,,,,,,,,,,,,,,,,,,,,,
771093,001,2022-11-20_23h52.33.027,Info_measure_main_exp,2022.2.2,Win32,60.20469597,,,,,,,,,,,,,,,,,,masks/mask_004.jpg,,,,,,,,,,,,,,,,,,,,,,,,,,,,,,,,,,,,,,,,,,,,,,,,0,0,0,3,1,,,,,,,,,,,,,,,,,,,,,,,,,,,,,,,,,,,,,,,,,
771093,001,2022-11-20_23h52.33.027,Info_measure_main_exp,2022.2.2,Win32,60.20469597,,,,,,,,,,,,,,,,,,masks/mask_003.jpg,,,,,,,,,,,,,,,,,,,,,,,,,,,,,,,,,,,,,,,,,,,,,,,,0,1,1,2,1,,,,,,,,,,,,,,,,,,,,,,,,,,,,,,,,,,,,,,,,,
771093,001,2022-11-20_23h52.33.027,Info_measure_main_exp,2022.2.2,Win32,60.20469597,,,,,,,,,,,,,,,,,,masks/mask_005.jpg,,,,,,,,,,,,,,,,,,,,,,,,,,,,,,,,,,,,,,,,,,,,,,,,0,2,2,4,1,,,,,,,,,,,,,,,,,,,,,,,,,,,,,,,,,,,,,,,,,
771093,001,2022-11-20_23h52.33.027,Info_measure_main_exp,2022.2.2,Win32,60.20469597,,,,,,,,,,,,,,,,,,masks/mask_001.jpg,,,,,,,,,,,,,,,,,,,,,,,,,,,,,,,,,,,,,,,,,,,,,,,,0,3,3,0,1,,,,,,,,,,,,,,,,,,,,,,,,,,,,,,,,,,,,,,,,,
771093,001,2022-11-20_23h52.33.027,Info_measure_main_exp,2022.2.2,Win32,60.20469597,,,,,,,,,,,,,,,,,,masks/mask_002.jpg,,,,,,,,,,,,,,,,,,,,,,,,,,,,,,,,,,,,,,,,,,,,,,,,0,4,4,1,1,,,,,,,,,,,,,,,,,,,,,,,,,,,,,,,,,,,,,,,,,
771093,001,2022-11-20_23h52.33.027,Info_measure_main_exp,2022.2.2,Win32,60.20469597,,,,,,,,,,,,,,,,,,,,,,,,,,,,,,7,0.5331,1,,,,,,,,,,,,0,131,5,5,2190,2214,absent_patch/patch0002190.jpg,absent_patch/patch0002214.jpg,,,,,,,,,,,,,,,,,,,,0.033333333,0.106481481,1,0,0,response1disk,13,0.012037037,0.012037037,1,0,0,center_square,0,12,12,35,1,,,,,,,,,,,,,,,,,,,,,,,
771093,001,2022-11-20_23h52.33.027,Info_measure_main_exp,2022.2.2,Win32,60.20469597,,,,,,,,,,,,,,,,,,masks/mask_001.jpg,,,,,,,,,,,,,,,,,,,,,,,,,,,,,,,,,,,,,,,,,,,0,0,0,0,1,,,,,,,,,,,,,,,,,,,,,,,,,,,,,,,,,,,,,,,,,,,,,,
771093,001,2022-11-20_23h52.33.027,Info_measure_main_exp,2022.2.2,Win32,60.20469597,,,,,,,,,,,,,,,,,,masks/mask_003.jpg,,,,,,,,,,,,,,,,,,,,,,,,,,,,,,,,,,,,,,,,,,,0,1,1,2,1,,,,,,,,,,,,,,,,,,,,,,,,,,,,,,,,,,,,,,,,,,,,,,
771093,001,2022-11-20_23h52.33.027,Info_measure_main_exp,2022.2.2,Win32,60.20469597,,,,,,,,,,,,,,,,,,masks/mask_002.jpg,,,,,,,,,,,,,,,,,,,,,,,,,,,,,,,,,,,,,,,,,,,0,2,2,1,1,,,,,,,,,,,,,,,,,,,,,,,,,,,,,,,,,,,,,,,,,,,,,,
771093,001,2022-11-20_23h52.33.027,Info_measure_main_exp,2022.2.2,Win32,60.20469597,,,,,,,,,,,,,,,,,,masks/mask_004.jpg,,,,,,,,,,,,,,,,,,,,,,,,,,,,,,,,,,,,,,,,,,,0,3,3,3,1,,,,,,,,,,,,,,,,,,,,,,,,,,,,,,,,,,,,,,,,,,,,,,
771093,001,2022-11-20_23h52.33.027,Info_measure_main_exp,2022.2.2,Win32,60.20469597,,,,,,,,,,,,,,,,,,masks/mask_005.jpg,,,,,,,,,,,,,,,,,,,,,,,,,,,,,,,,,,,,,,,,,,,0,4,4,4,1,,,,,,,,,,,,,,,,,,,,,,,,,,,,,,,,,,,,,,,,,,,,,,
771093,001,2022-11-20_23h52.33.027,Info_measure_main_exp,2022.2.2,Win32,60.20469597,,,,,,,,,,,,,,,,,,masks/mask_002.jpg,,,,,,,,,,,,,,,,,,,,,,,,,,,,,,,,,,,,,,,,,,,,,,,,0,0,0,1,1,,,,,,,,,,,,,,,,,,,,,,,,,,,,,,,,,,,,,,,,,
771093,001,2022-11-20_23h52.33.027,Info_measure_main_exp,2022.2.2,Win32,60.20469597,,,,,,,,,,,,,,,,,,masks/mask_003.jpg,,,,,,,,,,,,,,,,,,,,,,,,,,,,,,,,,,,,,,,,,,,,,,,,0,1,1,2,1,,,,,,,,,,,,,,,,,,,,,,,,,,,,,,,,,,,,,,,,,
771093,001,2022-11-20_23h52.33.027,Info_measure_main_exp,2022.2.2,Win32,60.20469597,,,,,,,,,,,,,,,,,,masks/mask_005.jpg,,,,,,,,,,,,,,,,,,,,,,,,,,,,,,,,,,,,,,,,,,,,,,,,0,2,2,4,1,,,,,,,,,,,,,,,,,,,,,,,,,,,,,,,,,,,,,,,,,
771093,001,2022-11-20_23h52.33.027,Info_measure_main_exp,2022.2.2,Win32,60.20469597,,,,,,,,,,,,,,,,,,masks/mask_004.jpg,,,,,,,,,,,,,,,,,,,,,,,,,,,,,,,,,,,,,,,,,,,,,,,,0,3,3,3,1,,,,,,,,,,,,,,,,,,,,,,,,,,,,,,,,,,,,,,,,,
771093,001,2022-11-20_23h52.33.027,Info_measure_main_exp,2022.2.2,Win32,60.20469597,,,,,,,,,,,,,,,,,,masks/mask_001.jpg,,,,,,,,,,,,,,,,,,,,,,,,,,,,,,,,,,,,,,,,,,,,,,,,0,4,4,0,1,,,,,,,,,,,,,,,,,,,,,,,,,,,,,,,,,,,,,,,,,
771093,001,2022-11-20_23h52.33.027,Info_measure_main_exp,2022.2.2,Win32,60.20469597,,,,,,,,,,,,,,,,,,,,,,,,,,,,,,4,0.8833,1,,,,,,,,,,,,0,131,5,5,2178,2142,absent_patch/patch0002178.jpg,absent_patch/patch0002142.jpg,,,,,,,,,,,,,,,,,,,,0.048148148,-0.125925926,1,0,0,response3disk,14,-0.015740741,-0.002777778,1,0,0,center_square,0,13,13,41,1,,,,,,,,,,,,,,,,,,,,,,,
771093,001,2022-11-20_23h52.33.027,Info_measure_main_exp,2022.2.2,Win32,60.20469597,,,,,,,,,,,,,,,,,,masks/mask_002.jpg,,,,,,,,,,,,,,,,,,,,,,,,,,,,,,,,,,,,,,,,,,,0,0,0,1,1,,,,,,,,,,,,,,,,,,,,,,,,,,,,,,,,,,,,,,,,,,,,,,
771093,001,2022-11-20_23h52.33.027,Info_measure_main_exp,2022.2.2,Win32,60.20469597,,,,,,,,,,,,,,,,,,masks/mask_004.jpg,,,,,,,,,,,,,,,,,,,,,,,,,,,,,,,,,,,,,,,,,,,0,1,1,3,1,,,,,,,,,,,,,,,,,,,,,,,,,,,,,,,,,,,,,,,,,,,,,,
771093,001,2022-11-20_23h52.33.027,Info_measure_main_exp,2022.2.2,Win32,60.20469597,,,,,,,,,,,,,,,,,,masks/mask_003.jpg,,,,,,,,,,,,,,,,,,,,,,,,,,,,,,,,,,,,,,,,,,,0,2,2,2,1,,,,,,,,,,,,,,,,,,,,,,,,,,,,,,,,,,,,,,,,,,,,,,
771093,001,2022-11-20_23h52.33.027,Info_measure_main_exp,2022.2.2,Win32,60.20469597,,,,,,,,,,,,,,,,,,masks/mask_001.jpg,,,,,,,,,,,,,,,,,,,,,,,,,,,,,,,,,,,,,,,,,,,0,3,3,0,1,,,,,,,,,,,,,,,,,,,,,,,,,,,,,,,,,,,,,,,,,,,,,,
771093,001,2022-11-20_23h52.33.027,Info_measure_main_exp,2022.2.2,Win32,60.20469597,,,,,,,,,,,,,,,,,,masks/mask_005.jpg,,,,,,,,,,,,,,,,,,,,,,,,,,,,,,,,,,,,,,,,,,,0,4,4,4,1,,,,,,,,,,,,,,,,,,,,,,,,,,,,,,,,,,,,,,,,,,,,,,
771093,001,2022-11-20_23h52.33.027,Info_measure_main_exp,2022.2.2,Win32,60.20469597,,,,,,,,,,,,,,,,,,masks/mask_003.jpg,,,,,,,,,,,,,,,,,,,,,,,,,,,,,,,,,,,,,,,,,,,,,,,,0,0,0,2,1,,,,,,,,,,,,,,,,,,,,,,,,,,,,,,,,,,,,,,,,,
771093,001,2022-11-20_23h52.33.027,Info_measure_main_exp,2022.2.2,Win32,60.20469597,,,,,,,,,,,,,,,,,,masks/mask_005.jpg,,,,,,,,,,,,,,,,,,,,,,,,,,,,,,,,,,,,,,,,,,,,,,,,0,1,1,4,1,,,,,,,,,,,,,,,,,,,,,,,,,,,,,,,,,,,,,,,,,
771093,001,2022-11-20_23h52.33.027,Info_measure_main_exp,2022.2.2,Win32,60.20469597,,,,,,,,,,,,,,,,,,masks/mask_004.jpg,,,,,,,,,,,,,,,,,,,,,,,,,,,,,,,,,,,,,,,,,,,,,,,,0,2,2,3,1,,,,,,,,,,,,,,,,,,,,,,,,,,,,,,,,,,,,,,,,,
771093,001,2022-11-20_23h52.33.027,Info_measure_main_exp,2022.2.2,Win32,60.20469597,,,,,,,,,,,,,,,,,,masks/mask_001.jpg,,,,,,,,,,,,,,,,,,,,,,,,,,,,,,,,,,,,,,,,,,,,,,,,0,3,3,0,1,,,,,,,,,,,,,,,,,,,,,,,,,,,,,,,,,,,,,,,,,
771093,001,2022-11-20_23h52.33.027,Info_measure_main_exp,2022.2.2,Win32,60.20469597,,,,,,,,,,,,,,,,,,masks/mask_002.jpg,,,,,,,,,,,,,,,,,,,,,,,,,,,,,,,,,,,,,,,,,,,,,,,,0,4,4,1,1,,,,,,,,,,,,,,,,,,,,,,,,,,,,,,,,,,,,,,,,,
771093,001,2022-11-20_23h52.33.027,Info_measure_main_exp,2022.2.2,Win32,60.20469597,,,,,,,,,,,,,,,,,,,,,,,,,,,,,,7,0.8664,1,,,,,,,,,,,,1,131,5,5,1950,1,absent_patch/patch0001950.jpg,present_patch/cong_131_5_a.jpg,,,,,,,,,,,,,,,,,,,,0.030555556,0.111111111,1,0,0,response1disk,15,0.002777778,-0.000925926,1,0,0,center_square,0,14,14,39,1,,,,,,,,,,,,,,,,,,,,,,,
771093,001,2022-11-20_23h52.33.027,Info_measure_main_exp,2022.2.2,Win32,60.20469597,,,,,,,,,,,,,,,,,,masks/mask_002.jpg,,,,,,,,,,,,,,,,,,,,,,,,,,,,,,,,,,,,,,,,,,,0,0,0,1,1,,,,,,,,,,,,,,,,,,,,,,,,,,,,,,,,,,,,,,,,,,,,,,
771093,001,2022-11-20_23h52.33.027,Info_measure_main_exp,2022.2.2,Win32,60.20469597,,,,,,,,,,,,,,,,,,masks/mask_004.jpg,,,,,,,,,,,,,,,,,,,,,,,,,,,,,,,,,,,,,,,,,,,0,1,1,3,1,,,,,,,,,,,,,,,,,,,,,,,,,,,,,,,,,,,,,,,,,,,,,,
771093,001,2022-11-20_23h52.33.027,Info_measure_main_exp,2022.2.2,Win32,60.20469597,,,,,,,,,,,,,,,,,,masks/mask_001.jpg,,,,,,,,,,,,,,,,,,,,,,,,,,,,,,,,,,,,,,,,,,,0,2,2,0,1,,,,,,,,,,,,,,,,,,,,,,,,,,,,,,,,,,,,,,,,,,,,,,
771093,001,2022-11-20_23h52.33.027,Info_measure_main_exp,2022.2.2,Win32,60.20469597,,,,,,,,,,,,,,,,,,masks/mask_005.jpg,,,,,,,,,,,,,,,,,,,,,,,,,,,,,,,,,,,,,,,,,,,0,3,3,4,1,,,,,,,,,,,,,,,,,,,,,,,,,,,,,,,,,,,,,,,,,,,,,,
771093,001,2022-11-20_23h52.33.027,Info_measure_main_exp,2022.2.2,Win32,60.20469597,,,,,,,,,,,,,,,,,,masks/mask_003.jpg,,,,,,,,,,,,,,,,,,,,,,,,,,,,,,,,,,,,,,,,,,,0,4,4,2,1,,,,,,,,,,,,,,,,,,,,,,,,,,,,,,,,,,,,,,,,,,,,,,
771093,001,2022-11-20_23h52.33.027,Info_measure_main_exp,2022.2.2,Win32,60.20469597,,,,,,,,,,,,,,,,,,masks/mask_004.jpg,,,,,,,,,,,,,,,,,,,,,,,,,,,,,,,,,,,,,,,,,,,,,,,,0,0,0,3,1,,,,,,,,,,,,,,,,,,,,,,,,,,,,,,,,,,,,,,,,,
771093,001,2022-11-20_23h52.33.027,Info_measure_main_exp,2022.2.2,Win32,60.20469597,,,,,,,,,,,,,,,,,,masks/mask_005.jpg,,,,,,,,,,,,,,,,,,,,,,,,,,,,,,,,,,,,,,,,,,,,,,,,0,1,1,4,1,,,,,,,,,,,,,,,,,,,,,,,,,,,,,,,,,,,,,,,,,
771093,001,2022-11-20_23h52.33.027,Info_measure_main_exp,2022.2.2,Win32,60.20469597,,,,,,,,,,,,,,,,,,masks/mask_003.jpg,,,,,,,,,,,,,,,,,,,,,,,,,,,,,,,,,,,,,,,,,,,,,,,,0,2,2,2,1,,,,,,,,,,,,,,,,,,,,,,,,,,,,,,,,,,,,,,,,,
771093,001,2022-11-20_23h52.33.027,Info_measure_main_exp,2022.2.2,Win32,60.20469597,,,,,,,,,,,,,,,,,,masks/mask_001.jpg,,,,,,,,,,,,,,,,,,,,,,,,,,,,,,,,,,,,,,,,,,,,,,,,0,3,3,0,1,,,,,,,,,,,,,,,,,,,,,,,,,,,,,,,,,,,,,,,,,
771093,001,2022-11-20_23h52.33.027,Info_measure_main_exp,2022.2.2,Win32,60.20469597,,,,,,,,,,,,,,,,,,masks/mask_002.jpg,,,,,,,,,,,,,,,,,,,,,,,,,,,,,,,,,,,,,,,,,,,,,,,,0,4,4,1,1,,,,,,,,,,,,,,,,,,,,,,,,,,,,,,,,,,,,,,,,,
771093,001,2022-11-20_23h52.33.027,Info_measure_main_exp,2022.2.2,Win32,60.20469597,,,,,,,,,,,,,,,,,,,,,,,,,,,,,,0,0.8835,1,,,,,,,,,,,,1,131,5,5,1,1,present_patch/cong_131_5_a.jpg,present_patch/cong_131_5_a.jpg,,,,,,,,,,,,,,,,,,,,-0.061111111,0.137037037,1,0,0,response7disk,16,-0.010185185,0.007407407,1,0,0,center_square,0,15,15,30,1,,,,,,,,,,,,,,,,,,,,,,,
771093,001,2022-11-20_23h52.33.027,Info_measure_main_exp,2022.2.2,Win32,60.20469597,,,,,,,,,,,,,,,,,,masks/mask_003.jpg,,,,,,,,,,,,,,,,,,,,,,,,,,,,,,,,,,,,,,,,,,,0,0,0,2,1,,,,,,,,,,,,,,,,,,,,,,,,,,,,,,,,,,,,,,,,,,,,,,
771093,001,2022-11-20_23h52.33.027,Info_measure_main_exp,2022.2.2,Win32,60.20469597,,,,,,,,,,,,,,,,,,masks/mask_002.jpg,,,,,,,,,,,,,,,,,,,,,,,,,,,,,,,,,,,,,,,,,,,0,1,1,1,1,,,,,,,,,,,,,,,,,,,,,,,,,,,,,,,,,,,,,,,,,,,,,,
771093,001,2022-11-20_23h52.33.027,Info_measure_main_exp,2022.2.2,Win32,60.20469597,,,,,,,,,,,,,,,,,,masks/mask_001.jpg,,,,,,,,,,,,,,,,,,,,,,,,,,,,,,,,,,,,,,,,,,,0,2,2,0,1,,,,,,,,,,,,,,,,,,,,,,,,,,,,,,,,,,,,,,,,,,,,,,
771093,001,2022-11-20_23h52.33.027,Info_measure_main_exp,2022.2.2,Win32,60.20469597,,,,,,,,,,,,,,,,,,masks/mask_005.jpg,,,,,,,,,,,,,,,,,,,,,,,,,,,,,,,,,,,,,,,,,,,0,3,3,4,1,,,,,,,,,,,,,,,,,,,,,,,,,,,,,,,,,,,,,,,,,,,,,,
771093,001,2022-11-20_23h52.33.027,Info_measure_main_exp,2022.2.2,Win32,60.20469597,,,,,,,,,,,,,,,,,,masks/mask_004.jpg,,,,,,,,,,,,,,,,,,,,,,,,,,,,,,,,,,,,,,,,,,,0,4,4,3,1,,,,,,,,,,,,,,,,,,,,,,,,,,,,,,,,,,,,,,,,,,,,,,
771093,001,2022-11-20_23h52.33.027,Info_measure_main_exp,2022.2.2,Win32,60.20469597,,,,,,,,,,,,,,,,,,masks/mask_001.jpg,,,,,,,,,,,,,,,,,,,,,,,,,,,,,,,,,,,,,,,,,,,,,,,,0,0,0,0,1,,,,,,,,,,,,,,,,,,,,,,,,,,,,,,,,,,,,,,,,,
771093,001,2022-11-20_23h52.33.027,Info_measure_main_exp,2022.2.2,Win32,60.20469597,,,,,,,,,,,,,,,,,,masks/mask_002.jpg,,,,,,,,,,,,,,,,,,,,,,,,,,,,,,,,,,,,,,,,,,,,,,,,0,1,1,1,1,,,,,,,,,,,,,,,,,,,,,,,,,,,,,,,,,,,,,,,,,
771093,001,2022-11-20_23h52.33.027,Info_measure_main_exp,2022.2.2,Win32,60.20469597,,,,,,,,,,,,,,,,,,masks/mask_003.jpg,,,,,,,,,,,,,,,,,,,,,,,,,,,,,,,,,,,,,,,,,,,,,,,,0,2,2,2,1,,,,,,,,,,,,,,,,,,,,,,,,,,,,,,,,,,,,,,,,,
771093,001,2022-11-20_23h52.33.027,Info_measure_main_exp,2022.2.2,Win32,60.20469597,,,,,,,,,,,,,,,,,,masks/mask_004.jpg,,,,,,,,,,,,,,,,,,,,,,,,,,,,,,,,,,,,,,,,,,,,,,,,0,3,3,3,1,,,,,,,,,,,,,,,,,,,,,,,,,,,,,,,,,,,,,,,,,
771093,001,2022-11-20_23h52.33.027,Info_measure_main_exp,2022.2.2,Win32,60.20469597,,,,,,,,,,,,,,,,,,masks/mask_005.jpg,,,,,,,,,,,,,,,,,,,,,,,,,,,,,,,,,,,,,,,,,,,,,,,,0,4,4,4,1,,,,,,,,,,,,,,,,,,,,,,,,,,,,,,,,,,,,,,,,,
771093,001,2022-11-20_23h52.33.027,Info_measure_main_exp,2022.2.2,Win32,60.20469597,,,,,,,,,,,,,,,,,,,,,,,,,,,,,,3,1.25,1,,,,,,,,,,,,0,131,5,5,1986,2154,absent_patch/patch0001986.jpg,absent_patch/patch0002154.jpg,,,,,,,,,,,,,,,,,,,,-0.059259259,-0.150925926,1,0,0,response5disk,17,0.000925926,0.001851852,1,0,0,center_square,0,16,16,36,1,,,,,,,,,,,,,,,,,,,,,,,
771093,001,2022-11-20_23h52.33.027,Info_measure_main_exp,2022.2.2,Win32,60.20469597,,,,,,,,,,,,,,,,,,masks/mask_005.jpg,,,,,,,,,,,,,,,,,,,,,,,,,,,,,,,,,,,,,,,,,,,0,0,0,4,1,,,,,,,,,,,,,,,,,,,,,,,,,,,,,,,,,,,,,,,,,,,,,,
771093,001,2022-11-20_23h52.33.027,Info_measure_main_exp,2022.2.2,Win32,60.20469597,,,,,,,,,,,,,,,,,,masks/mask_002.jpg,,,,,,,,,,,,,,,,,,,,,,,,,,,,,,,,,,,,,,,,,,,0,1,1,1,1,,,,,,,,,,,,,,,,,,,,,,,,,,,,,,,,,,,,,,,,,,,,,,
771093,001,2022-11-20_23h52.33.027,Info_measure_main_exp,2022.2.2,Win32,60.20469597,,,,,,,,,,,,,,,,,,masks/mask_003.jpg,,,,,,,,,,,,,,,,,,,,,,,,,,,,,,,,,,,,,,,,,,,0,2,2,2,1,,,,,,,,,,,,,,,,,,,,,,,,,,,,,,,,,,,,,,,,,,,,,,
771093,001,2022-11-20_23h52.33.027,Info_measure_main_exp,2022.2.2,Win32,60.20469597,,,,,,,,,,,,,,,,,,masks/mask_004.jpg,,,,,,,,,,,,,,,,,,,,,,,,,,,,,,,,,,,,,,,,,,,0,3,3,3,1,,,,,,,,,,,,,,,,,,,,,,,,,,,,,,,,,,,,,,,,,,,,,,
771093,001,2022-11-20_23h52.33.027,Info_measure_main_exp,2022.2.2,Win32,60.20469597,,,,,,,,,,,,,,,,,,masks/mask_001.jpg,,,,,,,,,,,,,,,,,,,,,,,,,,,,,,,,,,,,,,,,,,,0,4,4,0,1,,,,,,,,,,,,,,,,,,,,,,,,,,,,,,,,,,,,,,,,,,,,,,
771093,001,2022-11-20_23h52.33.027,Info_measure_main_exp,2022.2.2,Win32,60.20469597,,,,,,,,,,,,,,,,,,masks/mask_004.jpg,,,,,,,,,,,,,,,,,,,,,,,,,,,,,,,,,,,,,,,,,,,,,,,,0,0,0,3,1,,,,,,,,,,,,,,,,,,,,,,,,,,,,,,,,,,,,,,,,,
771093,001,2022-11-20_23h52.33.027,Info_measure_main_exp,2022.2.2,Win32,60.20469597,,,,,,,,,,,,,,,,,,masks/mask_001.jpg,,,,,,,,,,,,,,,,,,,,,,,,,,,,,,,,,,,,,,,,,,,,,,,,0,1,1,0,1,,,,,,,,,,,,,,,,,,,,,,,,,,,,,,,,,,,,,,,,,
771093,001,2022-11-20_23h52.33.027,Info_measure_main_exp,2022.2.2,Win32,60.20469597,,,,,,,,,,,,,,,,,,masks/mask_003.jpg,,,,,,,,,,,,,,,,,,,,,,,,,,,,,,,,,,,,,,,,,,,,,,,,0,2,2,2,1,,,,,,,,,,,,,,,,,,,,,,,,,,,,,,,,,,,,,,,,,
771093,001,2022-11-20_23h52.33.027,Info_measure_main_exp,2022.2.2,Win32,60.20469597,,,,,,,,,,,,,,,,,,masks/mask_002.jpg,,,,,,,,,,,,,,,,,,,,,,,,,,,,,,,,,,,,,,,,,,,,,,,,0,3,3,1,1,,,,,,,,,,,,,,,,,,,,,,,,,,,,,,,,,,,,,,,,,
771093,001,2022-11-20_23h52.33.027,Info_measure_main_exp,2022.2.2,Win32,60.20469597,,,,,,,,,,,,,,,,,,masks/mask_005.jpg,,,,,,,,,,,,,,,,,,,,,,,,,,,,,,,,,,,,,,,,,,,,,,,,0,4,4,4,1,,,,,,,,,,,,,,,,,,,,,,,,,,,,,,,,,,,,,,,,,
771093,001,2022-11-20_23h52.33.027,Info_measure_main_exp,2022.2.2,Win32,60.20469597,,,,,,,,,,,,,,,,,,,,,,,,,,,,,,7,0.4999,1,,,,,,,,,,,,0,131,5,5,2154,2214,absent_patch/patch0002154.jpg,absent_patch/patch0002214.jpg,,,,,,,,,,,,,,,,,,,,0.034259259,0.14537037,1,0,0,response1disk,18,-0.005555556,0.000925926,1,0,0,center_square,0,17,17,67,1,,,,,,,,,,,,,,,,,,,,,,,
771093,001,2022-11-20_23h52.33.027,Info_measure_main_exp,2022.2.2,Win32,60.20469597,,,,,,,,,,,,,,,,,,masks/mask_002.jpg,,,,,,,,,,,,,,,,,,,,,,,,,,,,,,,,,,,,,,,,,,,0,0,0,1,1,,,,,,,,,,,,,,,,,,,,,,,,,,,,,,,,,,,,,,,,,,,,,,
771093,001,2022-11-20_23h52.33.027,Info_measure_main_exp,2022.2.2,Win32,60.20469597,,,,,,,,,,,,,,,,,,masks/mask_005.jpg,,,,,,,,,,,,,,,,,,,,,,,,,,,,,,,,,,,,,,,,,,,0,1,1,4,1,,,,,,,,,,,,,,,,,,,,,,,,,,,,,,,,,,,,,,,,,,,,,,
771093,001,2022-11-20_23h52.33.027,Info_measure_main_exp,2022.2.2,Win32,60.20469597,,,,,,,,,,,,,,,,,,masks/mask_004.jpg,,,,,,,,,,,,,,,,,,,,,,,,,,,,,,,,,,,,,,,,,,,0,2,2,3,1,,,,,,,,,,,,,,,,,,,,,,,,,,,,,,,,,,,,,,,,,,,,,,
771093,001,2022-11-20_23h52.33.027,Info_measure_main_exp,2022.2.2,Win32,60.20469597,,,,,,,,,,,,,,,,,,masks/mask_003.jpg,,,,,,,,,,,,,,,,,,,,,,,,,,,,,,,,,,,,,,,,,,,0,3,3,2,1,,,,,,,,,,,,,,,,,,,,,,,,,,,,,,,,,,,,,,,,,,,,,,
771093,001,2022-11-20_23h52.33.027,Info_measure_main_exp,2022.2.2,Win32,60.20469597,,,,,,,,,,,,,,,,,,masks/mask_001.jpg,,,,,,,,,,,,,,,,,,,,,,,,,,,,,,,,,,,,,,,,,,,0,4,4,0,1,,,,,,,,,,,,,,,,,,,,,,,,,,,,,,,,,,,,,,,,,,,,,,
771093,001,2022-11-20_23h52.33.027,Info_measure_main_exp,2022.2.2,Win32,60.20469597,,,,,,,,,,,,,,,,,,masks/mask_004.jpg,,,,,,,,,,,,,,,,,,,,,,,,,,,,,,,,,,,,,,,,,,,,,,,,0,0,0,3,1,,,,,,,,,,,,,,,,,,,,,,,,,,,,,,,,,,,,,,,,,
771093,001,2022-11-20_23h52.33.027,Info_measure_main_exp,2022.2.2,Win32,60.20469597,,,,,,,,,,,,,,,,,,masks/mask_003.jpg,,,,,,,,,,,,,,,,,,,,,,,,,,,,,,,,,,,,,,,,,,,,,,,,0,1,1,2,1,,,,,,,,,,,,,,,,,,,,,,,,,,,,,,,,,,,,,,,,,
771093,001,2022-11-20_23h52.33.027,Info_measure_main_exp,2022.2.2,Win32,60.20469597,,,,,,,,,,,,,,,,,,masks/mask_005.jpg,,,,,,,,,,,,,,,,,,,,,,,,,,,,,,,,,,,,,,,,,,,,,,,,0,2,2,4,1,,,,,,,,,,,,,,,,,,,,,,,,,,,,,,,,,,,,,,,,,
771093,001,2022-11-20_23h52.33.027,Info_measure_main_exp,2022.2.2,Win32,60.20469597,,,,,,,,,,,,,,,,,,masks/mask_001.jpg,,,,,,,,,,,,,,,,,,,,,,,,,,,,,,,,,,,,,,,,,,,,,,,,0,3,3,0,1,,,,,,,,,,,,,,,,,,,,,,,,,,,,,,,,,,,,,,,,,
771093,001,2022-11-20_23h52.33.027,Info_measure_main_exp,2022.2.2,Win32,60.20469597,,,,,,,,,,,,,,,,,,masks/mask_002.jpg,,,,,,,,,,,,,,,,,,,,,,,,,,,,,,,,,,,,,,,,,,,,,,,,0,4,4,1,1,,,,,,,,,,,,,,,,,,,,,,,,,,,,,,,,,,,,,,,,,
771093,001,2022-11-20_23h52.33.027,Info_measure_main_exp,2022.2.2,Win32,60.20469597,,,,,,,,,,,,,,,,,,,,,,,,,,,,,,7,1.6338,1,,,,,,,,,,,,0,131,5,5,2274,2250,absent_patch/patch0002274.jpg,absent_patch/patch0002250.jpg,,,,,,,,,,,,,,,,,,,,0.04537037,0.139814815,1,0,0,response1disk,19,-0.00462963,-0.010185185,1,0,0,center_square,0,18,18,28,1,,,,,,,,,,,,,,,,,,,,,,,
771093,001,2022-11-20_23h52.33.027,Info_measure_main_exp,2022.2.2,Win32,60.20469597,,,,,,,,,,,,,,,,,,masks/mask_003.jpg,,,,,,,,,,,,,,,,,,,,,,,,,,,,,,,,,,,,,,,,,,,0,0,0,2,1,,,,,,,,,,,,,,,,,,,,,,,,,,,,,,,,,,,,,,,,,,,,,,
771093,001,2022-11-20_23h52.33.027,Info_measure_main_exp,2022.2.2,Win32,60.20469597,,,,,,,,,,,,,,,,,,masks/mask_002.jpg,,,,,,,,,,,,,,,,,,,,,,,,,,,,,,,,,,,,,,,,,,,0,1,1,1,1,,,,,,,,,,,,,,,,,,,,,,,,,,,,,,,,,,,,,,,,,,,,,,
771093,001,2022-11-20_23h52.33.027,Info_measure_main_exp,2022.2.2,Win32,60.20469597,,,,,,,,,,,,,,,,,,masks/mask_005.jpg,,,,,,,,,,,,,,,,,,,,,,,,,,,,,,,,,,,,,,,,,,,0,2,2,4,1,,,,,,,,,,,,,,,,,,,,,,,,,,,,,,,,,,,,,,,,,,,,,,
771093,001,2022-11-20_23h52.33.027,Info_measure_main_exp,2022.2.2,Win32,60.20469597,,,,,,,,,,,,,,,,,,masks/mask_001.jpg,,,,,,,,,,,,,,,,,,,,,,,,,,,,,,,,,,,,,,,,,,,0,3,3,0,1,,,,,,,,,,,,,,,,,,,,,,,,,,,,,,,,,,,,,,,,,,,,,,
771093,001,2022-11-20_23h52.33.027,Info_measure_main_exp,2022.2.2,Win32,60.20469597,,,,,,,,,,,,,,,,,,masks/mask_004.jpg,,,,,,,,,,,,,,,,,,,,,,,,,,,,,,,,,,,,,,,,,,,0,4,4,3,1,,,,,,,,,,,,,,,,,,,,,,,,,,,,,,,,,,,,,,,,,,,,,,
771093,001,2022-11-20_23h52.33.027,Info_measure_main_exp,2022.2.2,Win32,60.20469597,,,,,,,,,,,,,,,,,,masks/mask_003.jpg,,,,,,,,,,,,,,,,,,,,,,,,,,,,,,,,,,,,,,,,,,,,,,,,0,0,0,2,1,,,,,,,,,,,,,,,,,,,,,,,,,,,,,,,,,,,,,,,,,
771093,001,2022-11-20_23h52.33.027,Info_measure_main_exp,2022.2.2,Win32,60.20469597,,,,,,,,,,,,,,,,,,masks/mask_001.jpg,,,,,,,,,,,,,,,,,,,,,,,,,,,,,,,,,,,,,,,,,,,,,,,,0,1,1,0,1,,,,,,,,,,,,,,,,,,,,,,,,,,,,,,,,,,,,,,,,,
771093,001,2022-11-20_23h52.33.027,Info_measure_main_exp,2022.2.2,Win32,60.20469597,,,,,,,,,,,,,,,,,,masks/mask_005.jpg,,,,,,,,,,,,,,,,,,,,,,,,,,,,,,,,,,,,,,,,,,,,,,,,0,2,2,4,1,,,,,,,,,,,,,,,,,,,,,,,,,,,,,,,,,,,,,,,,,
771093,001,2022-11-20_23h52.33.027,Info_measure_main_exp,2022.2.2,Win32,60.20469597,,,,,,,,,,,,,,,,,,masks/mask_002.jpg,,,,,,,,,,,,,,,,,,,,,,,,,,,,,,,,,,,,,,,,,,,,,,,,0,3,3,1,1,,,,,,,,,,,,,,,,,,,,,,,,,,,,,,,,,,,,,,,,,
771093,001,2022-11-20_23h52.33.027,Info_measure_main_exp,2022.2.2,Win32,60.20469597,,,,,,,,,,,,,,,,,,masks/mask_004.jpg,,,,,,,,,,,,,,,,,,,,,,,,,,,,,,,,,,,,,,,,,,,,,,,,0,4,4,3,1,,,,,,,,,,,,,,,,,,,,,,,,,,,,,,,,,,,,,,,,,
771093,001,2022-11-20_23h52.33.027,Info_measure_main_exp,2022.2.2,Win32,60.20469597,,,,,,,,,,,,,,,,,,,,,,,,,,,,,,7,0.6,1,,,,,,,,,,,,0,131,5,5,2082,2154,absent_patch/patch0002082.jpg,absent_patch/patch0002154.jpg,,,,,,,,,,,,,,,,,,,,0.036111111,0.087962963,1,0,0,response1disk,20,0.008333333,-0.002777778,1,0,0,center_square,0,19,19,33,1,,,,,,,,,,,,,,,,,,,,,,,
771093,001,2022-11-20_23h52.33.027,Info_measure_main_exp,2022.2.2,Win32,60.20469597,,,,,,,,,,,,,,,,,,masks/mask_001.jpg,,,,,,,,,,,,,,,,,,,,,,,,,,,,,,,,,,,,,,,,,,,0,0,0,0,1,,,,,,,,,,,,,,,,,,,,,,,,,,,,,,,,,,,,,,,,,,,,,,
771093,001,2022-11-20_23h52.33.027,Info_measure_main_exp,2022.2.2,Win32,60.20469597,,,,,,,,,,,,,,,,,,masks/mask_003.jpg,,,,,,,,,,,,,,,,,,,,,,,,,,,,,,,,,,,,,,,,,,,0,1,1,2,1,,,,,,,,,,,,,,,,,,,,,,,,,,,,,,,,,,,,,,,,,,,,,,
771093,001,2022-11-20_23h52.33.027,Info_measure_main_exp,2022.2.2,Win32,60.20469597,,,,,,,,,,,,,,,,,,masks/mask_002.jpg,,,,,,,,,,,,,,,,,,,,,,,,,,,,,,,,,,,,,,,,,,,0,2,2,1,1,,,,,,,,,,,,,,,,,,,,,,,,,,,,,,,,,,,,,,,,,,,,,,
771093,001,2022-11-20_23h52.33.027,Info_measure_main_exp,2022.2.2,Win32,60.20469597,,,,,,,,,,,,,,,,,,masks/mask_004.jpg,,,,,,,,,,,,,,,,,,,,,,,,,,,,,,,,,,,,,,,,,,,0,3,3,3,1,,,,,,,,,,,,,,,,,,,,,,,,,,,,,,,,,,,,,,,,,,,,,,
771093,001,2022-11-20_23h52.33.027,Info_measure_main_exp,2022.2.2,Win32,60.20469597,,,,,,,,,,,,,,,,,,masks/mask_005.jpg,,,,,,,,,,,,,,,,,,,,,,,,,,,,,,,,,,,,,,,,,,,0,4,4,4,1,,,,,,,,,,,,,,,,,,,,,,,,,,,,,,,,,,,,,,,,,,,,,,
771093,001,2022-11-20_23h52.33.027,Info_measure_main_exp,2022.2.2,Win32,60.20469597,,,,,,,,,,,,,,,,,,masks/mask_001.jpg,,,,,,,,,,,,,,,,,,,,,,,,,,,,,,,,,,,,,,,,,,,,,,,,0,0,0,0,1,,,,,,,,,,,,,,,,,,,,,,,,,,,,,,,,,,,,,,,,,
771093,001,2022-11-20_23h52.33.027,Info_measure_main_exp,2022.2.2,Win32,60.20469597,,,,,,,,,,,,,,,,,,masks/mask_004.jpg,,,,,,,,,,,,,,,,,,,,,,,,,,,,,,,,,,,,,,,,,,,,,,,,0,1,1,3,1,,,,,,,,,,,,,,,,,,,,,,,,,,,,,,,,,,,,,,,,,
771093,001,2022-11-20_23h52.33.027,Info_measure_main_exp,2022.2.2,Win32,60.20469597,,,,,,,,,,,,,,,,,,masks/mask_005.jpg,,,,,,,,,,,,,,,,,,,,,,,,,,,,,,,,,,,,,,,,,,,,,,,,0,2,2,4,1,,,,,,,,,,,,,,,,,,,,,,,,,,,,,,,,,,,,,,,,,
771093,001,2022-11-20_23h52.33.027,Info_measure_main_exp,2022.2.2,Win32,60.20469597,,,,,,,,,,,,,,,,,,masks/mask_002.jpg,,,,,,,,,,,,,,,,,,,,,,,,,,,,,,,,,,,,,,,,,,,,,,,,0,3,3,1,1,,,,,,,,,,,,,,,,,,,,,,,,,,,,,,,,,,,,,,,,,
771093,001,2022-11-20_23h52.33.027,Info_measure_main_exp,2022.2.2,Win32,60.20469597,,,,,,,,,,,,,,,,,,masks/mask_003.jpg,,,,,,,,,,,,,,,,,,,,,,,,,,,,,,,,,,,,,,,,,,,,,,,,0,4,4,2,1,,,,,,,,,,,,,,,,,,,,,,,,,,,,,,,,,,,,,,,,,
771093,001,2022-11-20_23h52.33.027,Info_measure_main_exp,2022.2.2,Win32,60.20469597,,,,,,,,,,,,,,,,,,,,,,,,,,,,,,7,1.1332,1,,,,,,,,,,,,0,131,5,5,2166,2154,absent_patch/patch0002166.jpg,absent_patch/patch0002154.jpg,,,,,,,,,,,,,,,,,,,,0.055555556,0.110185185,1,0,0,response1disk,21,0.00462963,-0.000925926,1,0,0,center_square,0,20,20,79,1,,,,,,,,,,,,,,,,,,,,,,,
771093,001,2022-11-20_23h52.33.027,Info_measure_main_exp,2022.2.2,Win32,60.20469597,,,,,,,,,,,,,,,,,,masks/mask_002.jpg,,,,,,,,,,,,,,,,,,,,,,,,,,,,,,,,,,,,,,,,,,,0,0,0,1,1,,,,,,,,,,,,,,,,,,,,,,,,,,,,,,,,,,,,,,,,,,,,,,
771093,001,2022-11-20_23h52.33.027,Info_measure_main_exp,2022.2.2,Win32,60.20469597,,,,,,,,,,,,,,,,,,masks/mask_005.jpg,,,,,,,,,,,,,,,,,,,,,,,,,,,,,,,,,,,,,,,,,,,0,1,1,4,1,,,,,,,,,,,,,,,,,,,,,,,,,,,,,,,,,,,,,,,,,,,,,,
771093,001,2022-11-20_23h52.33.027,Info_measure_main_exp,2022.2.2,Win32,60.20469597,,,,,,,,,,,,,,,,,,masks/mask_001.jpg,,,,,,,,,,,,,,,,,,,,,,,,,,,,,,,,,,,,,,,,,,,0,2,2,0,1,,,,,,,,,,,,,,,,,,,,,,,,,,,,,,,,,,,,,,,,,,,,,,
771093,001,2022-11-20_23h52.33.027,Info_measure_main_exp,2022.2.2,Win32,60.20469597,,,,,,,,,,,,,,,,,,masks/mask_004.jpg,,,,,,,,,,,,,,,,,,,,,,,,,,,,,,,,,,,,,,,,,,,0,3,3,3,1,,,,,,,,,,,,,,,,,,,,,,,,,,,,,,,,,,,,,,,,,,,,,,
771093,001,2022-11-20_23h52.33.027,Info_measure_main_exp,2022.2.2,Win32,60.20469597,,,,,,,,,,,,,,,,,,masks/mask_003.jpg,,,,,,,,,,,,,,,,,,,,,,,,,,,,,,,,,,,,,,,,,,,0,4,4,2,1,,,,,,,,,,,,,,,,,,,,,,,,,,,,,,,,,,,,,,,,,,,,,,
771093,001,2022-11-20_23h52.33.027,Info_measure_main_exp,2022.2.2,Win32,60.20469597,,,,,,,,,,,,,,,,,,masks/mask_001.jpg,,,,,,,,,,,,,,,,,,,,,,,,,,,,,,,,,,,,,,,,,,,,,,,,0,0,0,0,1,,,,,,,,,,,,,,,,,,,,,,,,,,,,,,,,,,,,,,,,,
771093,001,2022-11-20_23h52.33.027,Info_measure_main_exp,2022.2.2,Win32,60.20469597,,,,,,,,,,,,,,,,,,masks/mask_005.jpg,,,,,,,,,,,,,,,,,,,,,,,,,,,,,,,,,,,,,,,,,,,,,,,,0,1,1,4,1,,,,,,,,,,,,,,,,,,,,,,,,,,,,,,,,,,,,,,,,,
771093,001,2022-11-20_23h52.33.027,Info_measure_main_exp,2022.2.2,Win32,60.20469597,,,,,,,,,,,,,,,,,,masks/mask_003.jpg,,,,,,,,,,,,,,,,,,,,,,,,,,,,,,,,,,,,,,,,,,,,,,,,0,2,2,2,1,,,,,,,,,,,,,,,,,,,,,,,,,,,,,,,,,,,,,,,,,
771093,001,2022-11-20_23h52.33.027,Info_measure_main_exp,2022.2.2,Win32,60.20469597,,,,,,,,,,,,,,,,,,masks/mask_004.jpg,,,,,,,,,,,,,,,,,,,,,,,,,,,,,,,,,,,,,,,,,,,,,,,,0,3,3,3,1,,,,,,,,,,,,,,,,,,,,,,,,,,,,,,,,,,,,,,,,,
771093,001,2022-11-20_23h52.33.027,Info_measure_main_exp,2022.2.2,Win32,60.20469597,,,,,,,,,,,,,,,,,,masks/mask_002.jpg,,,,,,,,,,,,,,,,,,,,,,,,,,,,,,,,,,,,,,,,,,,,,,,,0,4,4,1,1,,,,,,,,,,,,,,,,,,,,,,,,,,,,,,,,,,,,,,,,,
771093,001,2022-11-20_23h52.33.027,Info_measure_main_exp,2022.2.2,Win32,60.20469597,,,,,,,,,,,,,,,,,,,,,,,,,,,,,,7,0.6165,1,,,,,,,,,,,,0,131,5,5,2142,2154,absent_patch/patch0002142.jpg,absent_patch/patch0002154.jpg,,,,,,,,,,,,,,,,,,,,0.043518519,0.089814815,1,0,0,response1disk,22,0.003703704,0.007407407,1,0,0,center_square,0,21,21,9,1,,,,,,,,,,,,,,,,,,,,,,,
771093,001,2022-11-20_23h52.33.027,Info_measure_main_exp,2022.2.2,Win32,60.20469597,,,,,,,,,,,,,,,,,,masks/mask_002.jpg,,,,,,,,,,,,,,,,,,,,,,,,,,,,,,,,,,,,,,,,,,,0,0,0,1,1,,,,,,,,,,,,,,,,,,,,,,,,,,,,,,,,,,,,,,,,,,,,,,
771093,001,2022-11-20_23h52.33.027,Info_measure_main_exp,2022.2.2,Win32,60.20469597,,,,,,,,,,,,,,,,,,masks/mask_004.jpg,,,,,,,,,,,,,,,,,,,,,,,,,,,,,,,,,,,,,,,,,,,0,1,1,3,1,,,,,,,,,,,,,,,,,,,,,,,,,,,,,,,,,,,,,,,,,,,,,,
771093,001,2022-11-20_23h52.33.027,Info_measure_main_exp,2022.2.2,Win32,60.20469597,,,,,,,,,,,,,,,,,,masks/mask_001.jpg,,,,,,,,,,,,,,,,,,,,,,,,,,,,,,,,,,,,,,,,,,,0,2,2,0,1,,,,,,,,,,,,,,,,,,,,,,,,,,,,,,,,,,,,,,,,,,,,,,
771093,001,2022-11-20_23h52.33.027,Info_measure_main_exp,2022.2.2,Win32,60.20469597,,,,,,,,,,,,,,,,,,masks/mask_003.jpg,,,,,,,,,,,,,,,,,,,,,,,,,,,,,,,,,,,,,,,,,,,0,3,3,2,1,,,,,,,,,,,,,,,,,,,,,,,,,,,,,,,,,,,,,,,,,,,,,,
771093,001,2022-11-20_23h52.33.027,Info_measure_main_exp,2022.2.2,Win32,60.20469597,,,,,,,,,,,,,,,,,,masks/mask_005.jpg,,,,,,,,,,,,,,,,,,,,,,,,,,,,,,,,,,,,,,,,,,,0,4,4,4,1,,,,,,,,,,,,,,,,,,,,,,,,,,,,,,,,,,,,,,,,,,,,,,
771093,001,2022-11-20_23h52.33.027,Info_measure_main_exp,2022.2.2,Win32,60.20469597,,,,,,,,,,,,,,,,,,masks/mask_005.jpg,,,,,,,,,,,,,,,,,,,,,,,,,,,,,,,,,,,,,,,,,,,,,,,,0,0,0,4,1,,,,,,,,,,,,,,,,,,,,,,,,,,,,,,,,,,,,,,,,,
771093,001,2022-11-20_23h52.33.027,Info_measure_main_exp,2022.2.2,Win32,60.20469597,,,,,,,,,,,,,,,,,,masks/mask_001.jpg,,,,,,,,,,,,,,,,,,,,,,,,,,,,,,,,,,,,,,,,,,,,,,,,0,1,1,0,1,,,,,,,,,,,,,,,,,,,,,,,,,,,,,,,,,,,,,,,,,
771093,001,2022-11-20_23h52.33.027,Info_measure_main_exp,2022.2.2,Win32,60.20469597,,,,,,,,,,,,,,,,,,masks/mask_002.jpg,,,,,,,,,,,,,,,,,,,,,,,,,,,,,,,,,,,,,,,,,,,,,,,,0,2,2,1,1,,,,,,,,,,,,,,,,,,,,,,,,,,,,,,,,,,,,,,,,,
771093,001,2022-11-20_23h52.33.027,Info_measure_main_exp,2022.2.2,Win32,60.20469597,,,,,,,,,,,,,,,,,,masks/mask_004.jpg,,,,,,,,,,,,,,,,,,,,,,,,,,,,,,,,,,,,,,,,,,,,,,,,0,3,3,3,1,,,,,,,,,,,,,,,,,,,,,,,,,,,,,,,,,,,,,,,,,
771093,001,2022-11-20_23h52.33.027,Info_measure_main_exp,2022.2.2,Win32,60.20469597,,,,,,,,,,,,,,,,,,masks/mask_003.jpg,,,,,,,,,,,,,,,,,,,,,,,,,,,,,,,,,,,,,,,,,,,,,,,,0,4,4,2,1,,,,,,,,,,,,,,,,,,,,,,,,,,,,,,,,,,,,,,,,,
771093,001,2022-11-20_23h52.33.027,Info_measure_main_exp,2022.2.2,Win32,60.20469597,,,,,,,,,,,,,,,,,,,,,,,,,,,,,,6,1.0333,1,,,,,,,,,,,,0,131,5,5,2142,2238,absent_patch/patch0002142.jpg,absent_patch/patch0002238.jpg,,,,,,,,,,,,,,,,,,,,0.119444444,0.023148148,1,0,0,response1disk,23,-0.001851852,-0.009259259,1,0,0,center_square,0,22,22,101,1,,,,,,,,,,,,,,,,,,,,,,,
771093,001,2022-11-20_23h52.33.027,Info_measure_main_exp,2022.2.2,Win32,60.20469597,,,,,,,,,,,,,,,,,,masks/mask_001.jpg,,,,,,,,,,,,,,,,,,,,,,,,,,,,,,,,,,,,,,,,,,,0,0,0,0,1,,,,,,,,,,,,,,,,,,,,,,,,,,,,,,,,,,,,,,,,,,,,,,
771093,001,2022-11-20_23h52.33.027,Info_measure_main_exp,2022.2.2,Win32,60.20469597,,,,,,,,,,,,,,,,,,masks/mask_004.jpg,,,,,,,,,,,,,,,,,,,,,,,,,,,,,,,,,,,,,,,,,,,0,1,1,3,1,,,,,,,,,,,,,,,,,,,,,,,,,,,,,,,,,,,,,,,,,,,,,,
771093,001,2022-11-20_23h52.33.027,Info_measure_main_exp,2022.2.2,Win32,60.20469597,,,,,,,,,,,,,,,,,,masks/mask_003.jpg,,,,,,,,,,,,,,,,,,,,,,,,,,,,,,,,,,,,,,,,,,,0,2,2,2,1,,,,,,,,,,,,,,,,,,,,,,,,,,,,,,,,,,,,,,,,,,,,,,
771093,001,2022-11-20_23h52.33.027,Info_measure_main_exp,2022.2.2,Win32,60.20469597,,,,,,,,,,,,,,,,,,masks/mask_002.jpg,,,,,,,,,,,,,,,,,,,,,,,,,,,,,,,,,,,,,,,,,,,0,3,3,1,1,,,,,,,,,,,,,,,,,,,,,,,,,,,,,,,,,,,,,,,,,,,,,,
771093,001,2022-11-20_23h52.33.027,Info_measure_main_exp,2022.2.2,Win32,60.20469597,,,,,,,,,,,,,,,,,,masks/mask_005.jpg,,,,,,,,,,,,,,,,,,,,,,,,,,,,,,,,,,,,,,,,,,,0,4,4,4,1,,,,,,,,,,,,,,,,,,,,,,,,,,,,,,,,,,,,,,,,,,,,,,
771093,001,2022-11-20_23h52.33.027,Info_measure_main_exp,2022.2.2,Win32,60.20469597,,,,,,,,,,,,,,,,,,masks/mask_001.jpg,,,,,,,,,,,,,,,,,,,,,,,,,,,,,,,,,,,,,,,,,,,,,,,,0,0,0,0,1,,,,,,,,,,,,,,,,,,,,,,,,,,,,,,,,,,,,,,,,,
771093,001,2022-11-20_23h52.33.027,Info_measure_main_exp,2022.2.2,Win32,60.20469597,,,,,,,,,,,,,,,,,,masks/mask_002.jpg,,,,,,,,,,,,,,,,,,,,,,,,,,,,,,,,,,,,,,,,,,,,,,,,0,1,1,1,1,,,,,,,,,,,,,,,,,,,,,,,,,,,,,,,,,,,,,,,,,
771093,001,2022-11-20_23h52.33.027,Info_measure_main_exp,2022.2.2,Win32,60.20469597,,,,,,,,,,,,,,,,,,masks/mask_003.jpg,,,,,,,,,,,,,,,,,,,,,,,,,,,,,,,,,,,,,,,,,,,,,,,,0,2,2,2,1,,,,,,,,,,,,,,,,,,,,,,,,,,,,,,,,,,,,,,,,,
771093,001,2022-11-20_23h52.33.027,Info_measure_main_exp,2022.2.2,Win32,60.20469597,,,,,,,,,,,,,,,,,,masks/mask_004.jpg,,,,,,,,,,,,,,,,,,,,,,,,,,,,,,,,,,,,,,,,,,,,,,,,0,3,3,3,1,,,,,,,,,,,,,,,,,,,,,,,,,,,,,,,,,,,,,,,,,
771093,001,2022-11-20_23h52.33.027,Info_measure_main_exp,2022.2.2,Win32,60.20469597,,,,,,,,,,,,,,,,,,masks/mask_005.jpg,,,,,,,,,,,,,,,,,,,,,,,,,,,,,,,,,,,,,,,,,,,,,,,,0,4,4,4,1,,,,,,,,,,,,,,,,,,,,,,,,,,,,,,,,,,,,,,,,,
771093,001,2022-11-20_23h52.33.027,Info_measure_main_exp,2022.2.2,Win32,60.20469597,,,,,,,,,,,,,,,,,,,,,,,,,,,,,,7,1.2167,1,,,,,,,,,,,,0,131,5,5,2142,2166,absent_patch/patch0002142.jpg,absent_patch/patch0002166.jpg,,,,,,,,,,,,,,,,,,,,0.072222222,0.141666667,1,0,0,response1disk,24,-0.015740741,0,1,0,0,center_square,0,23,23,66,1,,,,,,,,,,,,,,,,,,,,,,,
771093,001,2022-11-20_23h52.33.027,Info_measure_main_exp,2022.2.2,Win32,60.20469597,,,,,,,,,,,,,,,,,,masks/mask_001.jpg,,,,,,,,,,,,,,,,,,,,,,,,,,,,,,,,,,,,,,,,,,,0,0,0,0,1,,,,,,,,,,,,,,,,,,,,,,,,,,,,,,,,,,,,,,,,,,,,,,
771093,001,2022-11-20_23h52.33.027,Info_measure_main_exp,2022.2.2,Win32,60.20469597,,,,,,,,,,,,,,,,,,masks/mask_002.jpg,,,,,,,,,,,,,,,,,,,,,,,,,,,,,,,,,,,,,,,,,,,0,1,1,1,1,,,,,,,,,,,,,,,,,,,,,,,,,,,,,,,,,,,,,,,,,,,,,,
771093,001,2022-11-20_23h52.33.027,Info_measure_main_exp,2022.2.2,Win32,60.20469597,,,,,,,,,,,,,,,,,,masks/mask_003.jpg,,,,,,,,,,,,,,,,,,,,,,,,,,,,,,,,,,,,,,,,,,,0,2,2,2,1,,,,,,,,,,,,,,,,,,,,,,,,,,,,,,,,,,,,,,,,,,,,,,
771093,001,2022-11-20_23h52.33.027,Info_measure_main_exp,2022.2.2,Win32,60.20469597,,,,,,,,,,,,,,,,,,masks/mask_004.jpg,,,,,,,,,,,,,,,,,,,,,,,,,,,,,,,,,,,,,,,,,,,0,3,3,3,1,,,,,,,,,,,,,,,,,,,,,,,,,,,,,,,,,,,,,,,,,,,,,,
771093,001,2022-11-20_23h52.33.027,Info_measure_main_exp,2022.2.2,Win32,60.20469597,,,,,,,,,,,,,,,,,,masks/mask_005.jpg,,,,,,,,,,,,,,,,,,,,,,,,,,,,,,,,,,,,,,,,,,,0,4,4,4,1,,,,,,,,,,,,,,,,,,,,,,,,,,,,,,,,,,,,,,,,,,,,,,
771093,001,2022-11-20_23h52.33.027,Info_measure_main_exp,2022.2.2,Win32,60.20469597,,,,,,,,,,,,,,,,,,masks/mask_003.jpg,,,,,,,,,,,,,,,,,,,,,,,,,,,,,,,,,,,,,,,,,,,,,,,,0,0,0,2,1,,,,,,,,,,,,,,,,,,,,,,,,,,,,,,,,,,,,,,,,,
771093,001,2022-11-20_23h52.33.027,Info_measure_main_exp,2022.2.2,Win32,60.20469597,,,,,,,,,,,,,,,,,,masks/mask_005.jpg,,,,,,,,,,,,,,,,,,,,,,,,,,,,,,,,,,,,,,,,,,,,,,,,0,1,1,4,1,,,,,,,,,,,,,,,,,,,,,,,,,,,,,,,,,,,,,,,,,
771093,001,2022-11-20_23h52.33.027,Info_measure_main_exp,2022.2.2,Win32,60.20469597,,,,,,,,,,,,,,,,,,masks/mask_002.jpg,,,,,,,,,,,,,,,,,,,,,,,,,,,,,,,,,,,,,,,,,,,,,,,,0,2,2,1,1,,,,,,,,,,,,,,,,,,,,,,,,,,,,,,,,,,,,,,,,,
771093,001,2022-11-20_23h52.33.027,Info_measure_main_exp,2022.2.2,Win32,60.20469597,,,,,,,,,,,,,,,,,,masks/mask_004.jpg,,,,,,,,,,,,,,,,,,,,,,,,,,,,,,,,,,,,,,,,,,,,,,,,0,3,3,3,1,,,,,,,,,,,,,,,,,,,,,,,,,,,,,,,,,,,,,,,,,
771093,001,2022-11-20_23h52.33.027,Info_measure_main_exp,2022.2.2,Win32,60.20469597,,,,,,,,,,,,,,,,,,masks/mask_001.jpg,,,,,,,,,,,,,,,,,,,,,,,,,,,,,,,,,,,,,,,,,,,,,,,,0,4,4,0,1,,,,,,,,,,,,,,,,,,,,,,,,,,,,,,,,,,,,,,,,,
771093,001,2022-11-20_23h52.33.027,Info_measure_main_exp,2022.2.2,Win32,60.20469597,,,,,,,,,,,,,,,,,,,,,,,,,,,,,,7,0.5362,1,,,,,,,,,,,,0,131,5,5,2250,2214,absent_patch/patch0002250.jpg,absent_patch/patch0002214.jpg,,,,,,,,,,,,,,,,,,,,0.026851852,0.121296296,1,0,0,response1disk,25,-0.003703704,0.006481481,1,0,0,center_square,0,24,24,97,1,,,,,,,,,,,,,,,,,,,,,,,
771093,001,2022-11-20_23h52.33.027,Info_measure_main_exp,2022.2.2,Win32,60.20469597,,,,,,,,,,,,,,,,,,masks/mask_003.jpg,,,,,,,,,,,,,,,,,,,,,,,,,,,,,,,,,,,,,,,,,,,0,0,0,2,1,,,,,,,,,,,,,,,,,,,,,,,,,,,,,,,,,,,,,,,,,,,,,,
771093,001,2022-11-20_23h52.33.027,Info_measure_main_exp,2022.2.2,Win32,60.20469597,,,,,,,,,,,,,,,,,,masks/mask_001.jpg,,,,,,,,,,,,,,,,,,,,,,,,,,,,,,,,,,,,,,,,,,,0,1,1,0,1,,,,,,,,,,,,,,,,,,,,,,,,,,,,,,,,,,,,,,,,,,,,,,
771093,001,2022-11-20_23h52.33.027,Info_measure_main_exp,2022.2.2,Win32,60.20469597,,,,,,,,,,,,,,,,,,masks/mask_005.jpg,,,,,,,,,,,,,,,,,,,,,,,,,,,,,,,,,,,,,,,,,,,0,2,2,4,1,,,,,,,,,,,,,,,,,,,,,,,,,,,,,,,,,,,,,,,,,,,,,,
771093,001,2022-11-20_23h52.33.027,Info_measure_main_exp,2022.2.2,Win32,60.20469597,,,,,,,,,,,,,,,,,,masks/mask_002.jpg,,,,,,,,,,,,,,,,,,,,,,,,,,,,,,,,,,,,,,,,,,,0,3,3,1,1,,,,,,,,,,,,,,,,,,,,,,,,,,,,,,,,,,,,,,,,,,,,,,
771093,001,2022-11-20_23h52.33.027,Info_measure_main_exp,2022.2.2,Win32,60.20469597,,,,,,,,,,,,,,,,,,masks/mask_004.jpg,,,,,,,,,,,,,,,,,,,,,,,,,,,,,,,,,,,,,,,,,,,0,4,4,3,1,,,,,,,,,,,,,,,,,,,,,,,,,,,,,,,,,,,,,,,,,,,,,,
771093,001,2022-11-20_23h52.33.027,Info_measure_main_exp,2022.2.2,Win32,60.20469597,,,,,,,,,,,,,,,,,,masks/mask_005.jpg,,,,,,,,,,,,,,,,,,,,,,,,,,,,,,,,,,,,,,,,,,,,,,,,0,0,0,4,1,,,,,,,,,,,,,,,,,,,,,,,,,,,,,,,,,,,,,,,,,
771093,001,2022-11-20_23h52.33.027,Info_measure_main_exp,2022.2.2,Win32,60.20469597,,,,,,,,,,,,,,,,,,masks/mask_002.jpg,,,,,,,,,,,,,,,,,,,,,,,,,,,,,,,,,,,,,,,,,,,,,,,,0,1,1,1,1,,,,,,,,,,,,,,,,,,,,,,,,,,,,,,,,,,,,,,,,,
771093,001,2022-11-20_23h52.33.027,Info_measure_main_exp,2022.2.2,Win32,60.20469597,,,,,,,,,,,,,,,,,,masks/mask_004.jpg,,,,,,,,,,,,,,,,,,,,,,,,,,,,,,,,,,,,,,,,,,,,,,,,0,2,2,3,1,,,,,,,,,,,,,,,,,,,,,,,,,,,,,,,,,,,,,,,,,
771093,001,2022-11-20_23h52.33.027,Info_measure_main_exp,2022.2.2,Win32,60.20469597,,,,,,,,,,,,,,,,,,masks/mask_003.jpg,,,,,,,,,,,,,,,,,,,,,,,,,,,,,,,,,,,,,,,,,,,,,,,,0,3,3,2,1,,,,,,,,,,,,,,,,,,,,,,,,,,,,,,,,,,,,,,,,,
771093,001,2022-11-20_23h52.33.027,Info_measure_main_exp,2022.2.2,Win32,60.20469597,,,,,,,,,,,,,,,,,,masks/mask_001.jpg,,,,,,,,,,,,,,,,,,,,,,,,,,,,,,,,,,,,,,,,,,,,,,,,0,4,4,0,1,,,,,,,,,,,,,,,,,,,,,,,,,,,,,,,,,,,,,,,,,
771093,001,2022-11-20_23h52.33.027,Info_measure_main_exp,2022.2.2,Win32,60.20469597,,,,,,,,,,,,,,,,,,,,,,,,,,,,,,5,0.7834,1,,,,,,,,,,,,0,131,5,5,2298,2214,absent_patch/patch0002298.jpg,absent_patch/patch0002214.jpg,,,,,,,,,,,,,,,,,,,,0.182407407,-0.076851852,1,0,0,response3disk,26,0.00462963,0.001851852,1,0,0,center_square,0,25,25,99,1,,,,,,,,,,,,,,,,,,,,,,,
771093,001,2022-11-20_23h52.33.027,Info_measure_main_exp,2022.2.2,Win32,60.20469597,,,,,,,,,,,,,,,,,,masks/mask_005.jpg,,,,,,,,,,,,,,,,,,,,,,,,,,,,,,,,,,,,,,,,,,,0,0,0,4,1,,,,,,,,,,,,,,,,,,,,,,,,,,,,,,,,,,,,,,,,,,,,,,
771093,001,2022-11-20_23h52.33.027,Info_measure_main_exp,2022.2.2,Win32,60.20469597,,,,,,,,,,,,,,,,,,masks/mask_001.jpg,,,,,,,,,,,,,,,,,,,,,,,,,,,,,,,,,,,,,,,,,,,0,1,1,0,1,,,,,,,,,,,,,,,,,,,,,,,,,,,,,,,,,,,,,,,,,,,,,,
771093,001,2022-11-20_23h52.33.027,Info_measure_main_exp,2022.2.2,Win32,60.20469597,,,,,,,,,,,,,,,,,,masks/mask_004.jpg,,,,,,,,,,,,,,,,,,,,,,,,,,,,,,,,,,,,,,,,,,,0,2,2,3,1,,,,,,,,,,,,,,,,,,,,,,,,,,,,,,,,,,,,,,,,,,,,,,
771093,001,2022-11-20_23h52.33.027,Info_measure_main_exp,2022.2.2,Win32,60.20469597,,,,,,,,,,,,,,,,,,masks/mask_002.jpg,,,,,,,,,,,,,,,,,,,,,,,,,,,,,,,,,,,,,,,,,,,0,3,3,1,1,,,,,,,,,,,,,,,,,,,,,,,,,,,,,,,,,,,,,,,,,,,,,,
771093,001,2022-11-20_23h52.33.027,Info_measure_main_exp,2022.2.2,Win32,60.20469597,,,,,,,,,,,,,,,,,,masks/mask_003.jpg,,,,,,,,,,,,,,,,,,,,,,,,,,,,,,,,,,,,,,,,,,,0,4,4,2,1,,,,,,,,,,,,,,,,,,,,,,,,,,,,,,,,,,,,,,,,,,,,,,
771093,001,2022-11-20_23h52.33.027,Info_measure_main_exp,2022.2.2,Win32,60.20469597,,,,,,,,,,,,,,,,,,masks/mask_003.jpg,,,,,,,,,,,,,,,,,,,,,,,,,,,,,,,,,,,,,,,,,,,,,,,,0,0,0,2,1,,,,,,,,,,,,,,,,,,,,,,,,,,,,,,,,,,,,,,,,,
771093,001,2022-11-20_23h52.33.027,Info_measure_main_exp,2022.2.2,Win32,60.20469597,,,,,,,,,,,,,,,,,,masks/mask_005.jpg,,,,,,,,,,,,,,,,,,,,,,,,,,,,,,,,,,,,,,,,,,,,,,,,0,1,1,4,1,,,,,,,,,,,,,,,,,,,,,,,,,,,,,,,,,,,,,,,,,
771093,001,2022-11-20_23h52.33.027,Info_measure_main_exp,2022.2.2,Win32,60.20469597,,,,,,,,,,,,,,,,,,masks/mask_001.jpg,,,,,,,,,,,,,,,,,,,,,,,,,,,,,,,,,,,,,,,,,,,,,,,,0,2,2,0,1,,,,,,,,,,,,,,,,,,,,,,,,,,,,,,,,,,,,,,,,,
771093,001,2022-11-20_23h52.33.027,Info_measure_main_exp,2022.2.2,Win32,60.20469597,,,,,,,,,,,,,,,,,,masks/mask_004.jpg,,,,,,,,,,,,,,,,,,,,,,,,,,,,,,,,,,,,,,,,,,,,,,,,0,3,3,3,1,,,,,,,,,,,,,,,,,,,,,,,,,,,,,,,,,,,,,,,,,
771093,001,2022-11-20_23h52.33.027,Info_measure_main_exp,2022.2.2,Win32,60.20469597,,,,,,,,,,,,,,,,,,masks/mask_002.jpg,,,,,,,,,,,,,,,,,,,,,,,,,,,,,,,,,,,,,,,,,,,,,,,,0,4,4,1,1,,,,,,,,,,,,,,,,,,,,,,,,,,,,,,,,,,,,,,,,,
771093,001,2022-11-20_23h52.33.027,Info_measure_main_exp,2022.2.2,Win32,60.20469597,,,,,,,,,,,,,,,,,,,,,,,,,,,,,,7,1.3332,1,,,,,,,,,,,,0,131,5,5,2166,1986,absent_patch/patch0002166.jpg,absent_patch/patch0001986.jpg,,,,,,,,,,,,,,,,,,,,0.044444444,0.124074074,1,0,0,response1disk,27,-0.005555556,-0.002777778,1,0,0,center_square,0,26,26,47,1,,,,,,,,,,,,,,,,,,,,,,,
771093,001,2022-11-20_23h52.33.027,Info_measure_main_exp,2022.2.2,Win32,60.20469597,,,,,,,,,,,,,,,,,,masks/mask_002.jpg,,,,,,,,,,,,,,,,,,,,,,,,,,,,,,,,,,,,,,,,,,,0,0,0,1,1,,,,,,,,,,,,,,,,,,,,,,,,,,,,,,,,,,,,,,,,,,,,,,
771093,001,2022-11-20_23h52.33.027,Info_measure_main_exp,2022.2.2,Win32,60.20469597,,,,,,,,,,,,,,,,,,masks/mask_004.jpg,,,,,,,,,,,,,,,,,,,,,,,,,,,,,,,,,,,,,,,,,,,0,1,1,3,1,,,,,,,,,,,,,,,,,,,,,,,,,,,,,,,,,,,,,,,,,,,,,,
771093,001,2022-11-20_23h52.33.027,Info_measure_main_exp,2022.2.2,Win32,60.20469597,,,,,,,,,,,,,,,,,,masks/mask_005.jpg,,,,,,,,,,,,,,,,,,,,,,,,,,,,,,,,,,,,,,,,,,,0,2,2,4,1,,,,,,,,,,,,,,,,,,,,,,,,,,,,,,,,,,,,,,,,,,,,,,
771093,001,2022-11-20_23h52.33.027,Info_measure_main_exp,2022.2.2,Win32,60.20469597,,,,,,,,,,,,,,,,,,masks/mask_001.jpg,,,,,,,,,,,,,,,,,,,,,,,,,,,,,,,,,,,,,,,,,,,0,3,3,0,1,,,,,,,,,,,,,,,,,,,,,,,,,,,,,,,,,,,,,,,,,,,,,,
771093,001,2022-11-20_23h52.33.027,Info_measure_main_exp,2022.2.2,Win32,60.20469597,,,,,,,,,,,,,,,,,,masks/mask_003.jpg,,,,,,,,,,,,,,,,,,,,,,,,,,,,,,,,,,,,,,,,,,,0,4,4,2,1,,,,,,,,,,,,,,,,,,,,,,,,,,,,,,,,,,,,,,,,,,,,,,
771093,001,2022-11-20_23h52.33.027,Info_measure_main_exp,2022.2.2,Win32,60.20469597,,,,,,,,,,,,,,,,,,masks/mask_005.jpg,,,,,,,,,,,,,,,,,,,,,,,,,,,,,,,,,,,,,,,,,,,,,,,,0,0,0,4,1,,,,,,,,,,,,,,,,,,,,,,,,,,,,,,,,,,,,,,,,,
771093,001,2022-11-20_23h52.33.027,Info_measure_main_exp,2022.2.2,Win32,60.20469597,,,,,,,,,,,,,,,,,,masks/mask_002.jpg,,,,,,,,,,,,,,,,,,,,,,,,,,,,,,,,,,,,,,,,,,,,,,,,0,1,1,1,1,,,,,,,,,,,,,,,,,,,,,,,,,,,,,,,,,,,,,,,,,
771093,001,2022-11-20_23h52.33.027,Info_measure_main_exp,2022.2.2,Win32,60.20469597,,,,,,,,,,,,,,,,,,masks/mask_003.jpg,,,,,,,,,,,,,,,,,,,,,,,,,,,,,,,,,,,,,,,,,,,,,,,,0,2,2,2,1,,,,,,,,,,,,,,,,,,,,,,,,,,,,,,,,,,,,,,,,,
771093,001,2022-11-20_23h52.33.027,Info_measure_main_exp,2022.2.2,Win32,60.20469597,,,,,,,,,,,,,,,,,,masks/mask_004.jpg,,,,,,,,,,,,,,,,,,,,,,,,,,,,,,,,,,,,,,,,,,,,,,,,0,3,3,3,1,,,,,,,,,,,,,,,,,,,,,,,,,,,,,,,,,,,,,,,,,
771093,001,2022-11-20_23h52.33.027,Info_measure_main_exp,2022.2.2,Win32,60.20469597,,,,,,,,,,,,,,,,,,masks/mask_001.jpg,,,,,,,,,,,,,,,,,,,,,,,,,,,,,,,,,,,,,,,,,,,,,,,,0,4,4,0,1,,,,,,,,,,,,,,,,,,,,,,,,,,,,,,,,,,,,,,,,,
771093,001,2022-11-20_23h52.33.027,Info_measure_main_exp,2022.2.2,Win32,60.20469597,,,,,,,,,,,,,,,,,,,,,,,,,,,,,,0,0.6334,1,,,,,,,,,,,,0,131,5,5,2298,2298,absent_patch/patch0002298.jpg,absent_patch/patch0002298.jpg,,,,,,,,,,,,,,,,,,,,-0.050925926,0.093518519,1,0,0,response7disk,28,-0.006481481,-0.00462963,1,0,0,center_square,0,27,27,37,1,,,,,,,,,,,,,,,,,,,,,,,
771093,001,2022-11-20_23h52.33.027,Info_measure_main_exp,2022.2.2,Win32,60.20469597,,,,,,,,,,,,,,,,,,masks/mask_003.jpg,,,,,,,,,,,,,,,,,,,,,,,,,,,,,,,,,,,,,,,,,,,0,0,0,2,1,,,,,,,,,,,,,,,,,,,,,,,,,,,,,,,,,,,,,,,,,,,,,,
771093,001,2022-11-20_23h52.33.027,Info_measure_main_exp,2022.2.2,Win32,60.20469597,,,,,,,,,,,,,,,,,,masks/mask_004.jpg,,,,,,,,,,,,,,,,,,,,,,,,,,,,,,,,,,,,,,,,,,,0,1,1,3,1,,,,,,,,,,,,,,,,,,,,,,,,,,,,,,,,,,,,,,,,,,,,,,
771093,001,2022-11-20_23h52.33.027,Info_measure_main_exp,2022.2.2,Win32,60.20469597,,,,,,,,,,,,,,,,,,masks/mask_002.jpg,,,,,,,,,,,,,,,,,,,,,,,,,,,,,,,,,,,,,,,,,,,0,2,2,1,1,,,,,,,,,,,,,,,,,,,,,,,,,,,,,,,,,,,,,,,,,,,,,,
771093,001,2022-11-20_23h52.33.027,Info_measure_main_exp,2022.2.2,Win32,60.20469597,,,,,,,,,,,,,,,,,,masks/mask_001.jpg,,,,,,,,,,,,,,,,,,,,,,,,,,,,,,,,,,,,,,,,,,,0,3,3,0,1,,,,,,,,,,,,,,,,,,,,,,,,,,,,,,,,,,,,,,,,,,,,,,
771093,001,2022-11-20_23h52.33.027,Info_measure_main_exp,2022.2.2,Win32,60.20469597,,,,,,,,,,,,,,,,,,masks/mask_005.jpg,,,,,,,,,,,,,,,,,,,,,,,,,,,,,,,,,,,,,,,,,,,0,4,4,4,1,,,,,,,,,,,,,,,,,,,,,,,,,,,,,,,,,,,,,,,,,,,,,,
771093,001,2022-11-20_23h52.33.027,Info_measure_main_exp,2022.2.2,Win32,60.20469597,,,,,,,,,,,,,,,,,,masks/mask_003.jpg,,,,,,,,,,,,,,,,,,,,,,,,,,,,,,,,,,,,,,,,,,,,,,,,0,0,0,2,1,,,,,,,,,,,,,,,,,,,,,,,,,,,,,,,,,,,,,,,,,
771093,001,2022-11-20_23h52.33.027,Info_measure_main_exp,2022.2.2,Win32,60.20469597,,,,,,,,,,,,,,,,,,masks/mask_004.jpg,,,,,,,,,,,,,,,,,,,,,,,,,,,,,,,,,,,,,,,,,,,,,,,,0,1,1,3,1,,,,,,,,,,,,,,,,,,,,,,,,,,,,,,,,,,,,,,,,,
771093,001,2022-11-20_23h52.33.027,Info_measure_main_exp,2022.2.2,Win32,60.20469597,,,,,,,,,,,,,,,,,,masks/mask_005.jpg,,,,,,,,,,,,,,,,,,,,,,,,,,,,,,,,,,,,,,,,,,,,,,,,0,2,2,4,1,,,,,,,,,,,,,,,,,,,,,,,,,,,,,,,,,,,,,,,,,
771093,001,2022-11-20_23h52.33.027,Info_measure_main_exp,2022.2.2,Win32,60.20469597,,,,,,,,,,,,,,,,,,masks/mask_001.jpg,,,,,,,,,,,,,,,,,,,,,,,,,,,,,,,,,,,,,,,,,,,,,,,,0,3,3,0,1,,,,,,,,,,,,,,,,,,,,,,,,,,,,,,,,,,,,,,,,,
771093,001,2022-11-20_23h52.33.027,Info_measure_main_exp,2022.2.2,Win32,60.20469597,,,,,,,,,,,,,,,,,,masks/mask_002.jpg,,,,,,,,,,,,,,,,,,,,,,,,,,,,,,,,,,,,,,,,,,,,,,,,0,4,4,1,1,,,,,,,,,,,,,,,,,,,,,,,,,,,,,,,,,,,,,,,,,
771093,001,2022-11-20_23h52.33.027,Info_measure_main_exp,2022.2.2,Win32,60.20469597,,,,,,,,,,,,,,,,,,,,,,,,,,,,,,4,1.6331,1,,,,,,,,,,,,0,131,5,5,2250,1950,absent_patch/patch0002250.jpg,absent_patch/patch0001950.jpg,,,,,,,,,,,,,,,,,,,,0.044444444,-0.153703704,1,0,0,response3disk,29,0.005555556,0.000925926,1,0,0,center_square,0,28,28,16,1,,,,,,,,,,,,,,,,,,,,,,,
771093,001,2022-11-20_23h52.33.027,Info_measure_main_exp,2022.2.2,Win32,60.20469597,,,,,,,,,,,,,,,,,,masks/mask_001.jpg,,,,,,,,,,,,,,,,,,,,,,,,,,,,,,,,,,,,,,,,,,,0,0,0,0,1,,,,,,,,,,,,,,,,,,,,,,,,,,,,,,,,,,,,,,,,,,,,,,
771093,001,2022-11-20_23h52.33.027,Info_measure_main_exp,2022.2.2,Win32,60.20469597,,,,,,,,,,,,,,,,,,masks/mask_005.jpg,,,,,,,,,,,,,,,,,,,,,,,,,,,,,,,,,,,,,,,,,,,0,1,1,4,1,,,,,,,,,,,,,,,,,,,,,,,,,,,,,,,,,,,,,,,,,,,,,,
771093,001,2022-11-20_23h52.33.027,Info_measure_main_exp,2022.2.2,Win32,60.20469597,,,,,,,,,,,,,,,,,,masks/mask_002.jpg,,,,,,,,,,,,,,,,,,,,,,,,,,,,,,,,,,,,,,,,,,,0,2,2,1,1,,,,,,,,,,,,,,,,,,,,,,,,,,,,,,,,,,,,,,,,,,,,,,
771093,001,2022-11-20_23h52.33.027,Info_measure_main_exp,2022.2.2,Win32,60.20469597,,,,,,,,,,,,,,,,,,masks/mask_003.jpg,,,,,,,,,,,,,,,,,,,,,,,,,,,,,,,,,,,,,,,,,,,0,3,3,2,1,,,,,,,,,,,,,,,,,,,,,,,,,,,,,,,,,,,,,,,,,,,,,,
771093,001,2022-11-20_23h52.33.027,Info_measure_main_exp,2022.2.2,Win32,60.20469597,,,,,,,,,,,,,,,,,,masks/mask_004.jpg,,,,,,,,,,,,,,,,,,,,,,,,,,,,,,,,,,,,,,,,,,,0,4,4,3,1,,,,,,,,,,,,,,,,,,,,,,,,,,,,,,,,,,,,,,,,,,,,,,
771093,001,2022-11-20_23h52.33.027,Info_measure_main_exp,2022.2.2,Win32,60.20469597,,,,,,,,,,,,,,,,,,masks/mask_003.jpg,,,,,,,,,,,,,,,,,,,,,,,,,,,,,,,,,,,,,,,,,,,,,,,,0,0,0,2,1,,,,,,,,,,,,,,,,,,,,,,,,,,,,,,,,,,,,,,,,,
771093,001,2022-11-20_23h52.33.027,Info_measure_main_exp,2022.2.2,Win32,60.20469597,,,,,,,,,,,,,,,,,,masks/mask_005.jpg,,,,,,,,,,,,,,,,,,,,,,,,,,,,,,,,,,,,,,,,,,,,,,,,0,1,1,4,1,,,,,,,,,,,,,,,,,,,,,,,,,,,,,,,,,,,,,,,,,
771093,001,2022-11-20_23h52.33.027,Info_measure_main_exp,2022.2.2,Win32,60.20469597,,,,,,,,,,,,,,,,,,masks/mask_002.jpg,,,,,,,,,,,,,,,,,,,,,,,,,,,,,,,,,,,,,,,,,,,,,,,,0,2,2,1,1,,,,,,,,,,,,,,,,,,,,,,,,,,,,,,,,,,,,,,,,,
771093,001,2022-11-20_23h52.33.027,Info_measure_main_exp,2022.2.2,Win32,60.20469597,,,,,,,,,,,,,,,,,,masks/mask_004.jpg,,,,,,,,,,,,,,,,,,,,,,,,,,,,,,,,,,,,,,,,,,,,,,,,0,3,3,3,1,,,,,,,,,,,,,,,,,,,,,,,,,,,,,,,,,,,,,,,,,
771093,001,2022-11-20_23h52.33.027,Info_measure_main_exp,2022.2.2,Win32,60.20469597,,,,,,,,,,,,,,,,,,masks/mask_001.jpg,,,,,,,,,,,,,,,,,,,,,,,,,,,,,,,,,,,,,,,,,,,,,,,,0,4,4,0,1,,,,,,,,,,,,,,,,,,,,,,,,,,,,,,,,,,,,,,,,,
771093,001,2022-11-20_23h52.33.027,Info_measure_main_exp,2022.2.2,Win32,60.20469597,,,,,,,,,,,,,,,,,,,,,,,,,,,,,,7,0.654,1,,,,,,,,,,,,0,131,5,5,2274,1950,absent_patch/patch0002274.jpg,absent_patch/patch0001950.jpg,,,,,,,,,,,,,,,,,,,,0.00462963,0.105555556,1,0,0,response1disk,30,-0.003703704,0.002777778,1,0,0,center_square,0,29,29,10,1,,,,,,,,,,,,,,,,,,,,,,,
771093,001,2022-11-20_23h52.33.027,Info_measure_main_exp,2022.2.2,Win32,60.20469597,,,,,,,,,,,,,,,,,,masks/mask_002.jpg,,,,,,,,,,,,,,,,,,,,,,,,,,,,,,,,,,,,,,,,,,,0,0,0,1,1,,,,,,,,,,,,,,,,,,,,,,,,,,,,,,,,,,,,,,,,,,,,,,
771093,001,2022-11-20_23h52.33.027,Info_measure_main_exp,2022.2.2,Win32,60.20469597,,,,,,,,,,,,,,,,,,masks/mask_004.jpg,,,,,,,,,,,,,,,,,,,,,,,,,,,,,,,,,,,,,,,,,,,0,1,1,3,1,,,,,,,,,,,,,,,,,,,,,,,,,,,,,,,,,,,,,,,,,,,,,,
771093,001,2022-11-20_23h52.33.027,Info_measure_main_exp,2022.2.2,Win32,60.20469597,,,,,,,,,,,,,,,,,,masks/mask_005.jpg,,,,,,,,,,,,,,,,,,,,,,,,,,,,,,,,,,,,,,,,,,,0,2,2,4,1,,,,,,,,,,,,,,,,,,,,,,,,,,,,,,,,,,,,,,,,,,,,,,
771093,001,2022-11-20_23h52.33.027,Info_measure_main_exp,2022.2.2,Win32,60.20469597,,,,,,,,,,,,,,,,,,masks/mask_001.jpg,,,,,,,,,,,,,,,,,,,,,,,,,,,,,,,,,,,,,,,,,,,0,3,3,0,1,,,,,,,,,,,,,,,,,,,,,,,,,,,,,,,,,,,,,,,,,,,,,,
771093,001,2022-11-20_23h52.33.027,Info_measure_main_exp,2022.2.2,Win32,60.20469597,,,,,,,,,,,,,,,,,,masks/mask_003.jpg,,,,,,,,,,,,,,,,,,,,,,,,,,,,,,,,,,,,,,,,,,,0,4,4,2,1,,,,,,,,,,,,,,,,,,,,,,,,,,,,,,,,,,,,,,,,,,,,,,
771093,001,2022-11-20_23h52.33.027,Info_measure_main_exp,2022.2.2,Win32,60.20469597,,,,,,,,,,,,,,,,,,masks/mask_003.jpg,,,,,,,,,,,,,,,,,,,,,,,,,,,,,,,,,,,,,,,,,,,,,,,,0,0,0,2,1,,,,,,,,,,,,,,,,,,,,,,,,,,,,,,,,,,,,,,,,,
771093,001,2022-11-20_23h52.33.027,Info_measure_main_exp,2022.2.2,Win32,60.20469597,,,,,,,,,,,,,,,,,,masks/mask_005.jpg,,,,,,,,,,,,,,,,,,,,,,,,,,,,,,,,,,,,,,,,,,,,,,,,0,1,1,4,1,,,,,,,,,,,,,,,,,,,,,,,,,,,,,,,,,,,,,,,,,
771093,001,2022-11-20_23h52.33.027,Info_measure_main_exp,2022.2.2,Win32,60.20469597,,,,,,,,,,,,,,,,,,masks/mask_001.jpg,,,,,,,,,,,,,,,,,,,,,,,,,,,,,,,,,,,,,,,,,,,,,,,,0,2,2,0,1,,,,,,,,,,,,,,,,,,,,,,,,,,,,,,,,,,,,,,,,,
771093,001,2022-11-20_23h52.33.027,Info_measure_main_exp,2022.2.2,Win32,60.20469597,,,,,,,,,,,,,,,,,,masks/mask_004.jpg,,,,,,,,,,,,,,,,,,,,,,,,,,,,,,,,,,,,,,,,,,,,,,,,0,3,3,3,1,,,,,,,,,,,,,,,,,,,,,,,,,,,,,,,,,,,,,,,,,
771093,001,2022-11-20_23h52.33.027,Info_measure_main_exp,2022.2.2,Win32,60.20469597,,,,,,,,,,,,,,,,,,masks/mask_002.jpg,,,,,,,,,,,,,,,,,,,,,,,,,,,,,,,,,,,,,,,,,,,,,,,,0,4,4,1,1,,,,,,,,,,,,,,,,,,,,,,,,,,,,,,,,,,,,,,,,,
771093,001,2022-11-20_23h52.33.027,Info_measure_main_exp,2022.2.2,Win32,60.20469597,,,,,,,,,,,,,,,,,,,,,,,,,,,,,,0,0.4167,1,,,,,,,,,,,,0,131,5,5,2238,2238,absent_patch/patch0002238.jpg,absent_patch/patch0002238.jpg,,,,,,,,,,,,,,,,,,,,-0.089814815,0.133333333,1,0,0,response7disk,31,0.00462963,0.007407407,1,0,0,center_square,0,30,30,58,1,,,,,,,,,,,,,,,,,,,,,,,
771093,001,2022-11-20_23h52.33.027,Info_measure_main_exp,2022.2.2,Win32,60.20469597,,,,,,,,,,,,,,,,,,masks/mask_004.jpg,,,,,,,,,,,,,,,,,,,,,,,,,,,,,,,,,,,,,,,,,,,0,0,0,3,1,,,,,,,,,,,,,,,,,,,,,,,,,,,,,,,,,,,,,,,,,,,,,,
771093,001,2022-11-20_23h52.33.027,Info_measure_main_exp,2022.2.2,Win32,60.20469597,,,,,,,,,,,,,,,,,,masks/mask_003.jpg,,,,,,,,,,,,,,,,,,,,,,,,,,,,,,,,,,,,,,,,,,,0,1,1,2,1,,,,,,,,,,,,,,,,,,,,,,,,,,,,,,,,,,,,,,,,,,,,,,
771093,001,2022-11-20_23h52.33.027,Info_measure_main_exp,2022.2.2,Win32,60.20469597,,,,,,,,,,,,,,,,,,masks/mask_005.jpg,,,,,,,,,,,,,,,,,,,,,,,,,,,,,,,,,,,,,,,,,,,0,2,2,4,1,,,,,,,,,,,,,,,,,,,,,,,,,,,,,,,,,,,,,,,,,,,,,,
771093,001,2022-11-20_23h52.33.027,Info_measure_main_exp,2022.2.2,Win32,60.20469597,,,,,,,,,,,,,,,,,,masks/mask_002.jpg,,,,,,,,,,,,,,,,,,,,,,,,,,,,,,,,,,,,,,,,,,,0,3,3,1,1,,,,,,,,,,,,,,,,,,,,,,,,,,,,,,,,,,,,,,,,,,,,,,
771093,001,2022-11-20_23h52.33.027,Info_measure_main_exp,2022.2.2,Win32,60.20469597,,,,,,,,,,,,,,,,,,masks/mask_001.jpg,,,,,,,,,,,,,,,,,,,,,,,,,,,,,,,,,,,,,,,,,,,0,4,4,0,1,,,,,,,,,,,,,,,,,,,,,,,,,,,,,,,,,,,,,,,,,,,,,,
771093,001,2022-11-20_23h52.33.027,Info_measure_main_exp,2022.2.2,Win32,60.20469597,,,,,,,,,,,,,,,,,,masks/mask_005.jpg,,,,,,,,,,,,,,,,,,,,,,,,,,,,,,,,,,,,,,,,,,,,,,,,0,0,0,4,1,,,,,,,,,,,,,,,,,,,,,,,,,,,,,,,,,,,,,,,,,
771093,001,2022-11-20_23h52.33.027,Info_measure_main_exp,2022.2.2,Win32,60.20469597,,,,,,,,,,,,,,,,,,masks/mask_004.jpg,,,,,,,,,,,,,,,,,,,,,,,,,,,,,,,,,,,,,,,,,,,,,,,,0,1,1,3,1,,,,,,,,,,,,,,,,,,,,,,,,,,,,,,,,,,,,,,,,,
771093,001,2022-11-20_23h52.33.027,Info_measure_main_exp,2022.2.2,Win32,60.20469597,,,,,,,,,,,,,,,,,,masks/mask_001.jpg,,,,,,,,,,,,,,,,,,,,,,,,,,,,,,,,,,,,,,,,,,,,,,,,0,2,2,0,1,,,,,,,,,,,,,,,,,,,,,,,,,,,,,,,,,,,,,,,,,
771093,001,2022-11-20_23h52.33.027,Info_measure_main_exp,2022.2.2,Win32,60.20469597,,,,,,,,,,,,,,,,,,masks/mask_003.jpg,,,,,,,,,,,,,,,,,,,,,,,,,,,,,,,,,,,,,,,,,,,,,,,,0,3,3,2,1,,,,,,,,,,,,,,,,,,,,,,,,,,,,,,,,,,,,,,,,,
771093,001,2022-11-20_23h52.33.027,Info_measure_main_exp,2022.2.2,Win32,60.20469597,,,,,,,,,,,,,,,,,,masks/mask_002.jpg,,,,,,,,,,,,,,,,,,,,,,,,,,,,,,,,,,,,,,,,,,,,,,,,0,4,4,1,1,,,,,,,,,,,,,,,,,,,,,,,,,,,,,,,,,,,,,,,,,
771093,001,2022-11-20_23h52.33.027,Info_measure_main_exp,2022.2.2,Win32,60.20469597,,,,,,,,,,,,,,,,,,,,,,,,,,,,,,4,1.0167,1,,,,,,,,,,,,0,131,5,5,2298,2190,absent_patch/patch0002298.jpg,absent_patch/patch0002190.jpg,,,,,,,,,,,,,,,,,,,,0.088888889,-0.15,1,0,0,response3disk,32,-0.006481481,0.003703704,1,0,0,center_square,0,31,31,20,1,,,,,,,,,,,,,,,,,,,,,,,
771093,001,2022-11-20_23h52.33.027,Info_measure_main_exp,2022.2.2,Win32,60.20469597,,,,,,,,,,,,,,,,,,masks/mask_003.jpg,,,,,,,,,,,,,,,,,,,,,,,,,,,,,,,,,,,,,,,,,,,0,0,0,2,1,,,,,,,,,,,,,,,,,,,,,,,,,,,,,,,,,,,,,,,,,,,,,,
771093,001,2022-11-20_23h52.33.027,Info_measure_main_exp,2022.2.2,Win32,60.20469597,,,,,,,,,,,,,,,,,,masks/mask_004.jpg,,,,,,,,,,,,,,,,,,,,,,,,,,,,,,,,,,,,,,,,,,,0,1,1,3,1,,,,,,,,,,,,,,,,,,,,,,,,,,,,,,,,,,,,,,,,,,,,,,
771093,001,2022-11-20_23h52.33.027,Info_measure_main_exp,2022.2.2,Win32,60.20469597,,,,,,,,,,,,,,,,,,masks/mask_005.jpg,,,,,,,,,,,,,,,,,,,,,,,,,,,,,,,,,,,,,,,,,,,0,2,2,4,1,,,,,,,,,,,,,,,,,,,,,,,,,,,,,,,,,,,,,,,,,,,,,,
771093,001,2022-11-20_23h52.33.027,Info_measure_main_exp,2022.2.2,Win32,60.20469597,,,,,,,,,,,,,,,,,,masks/mask_001.jpg,,,,,,,,,,,,,,,,,,,,,,,,,,,,,,,,,,,,,,,,,,,0,3,3,0,1,,,,,,,,,,,,,,,,,,,,,,,,,,,,,,,,,,,,,,,,,,,,,,
771093,001,2022-11-20_23h52.33.027,Info_measure_main_exp,2022.2.2,Win32,60.20469597,,,,,,,,,,,,,,,,,,masks/mask_002.jpg,,,,,,,,,,,,,,,,,,,,,,,,,,,,,,,,,,,,,,,,,,,0,4,4,1,1,,,,,,,,,,,,,,,,,,,,,,,,,,,,,,,,,,,,,,,,,,,,,,
771093,001,2022-11-20_23h52.33.027,Info_measure_main_exp,2022.2.2,Win32,60.20469597,,,,,,,,,,,,,,,,,,masks/mask_002.jpg,,,,,,,,,,,,,,,,,,,,,,,,,,,,,,,,,,,,,,,,,,,,,,,,0,0,0,1,1,,,,,,,,,,,,,,,,,,,,,,,,,,,,,,,,,,,,,,,,,
771093,001,2022-11-20_23h52.33.027,Info_measure_main_exp,2022.2.2,Win32,60.20469597,,,,,,,,,,,,,,,,,,masks/mask_005.jpg,,,,,,,,,,,,,,,,,,,,,,,,,,,,,,,,,,,,,,,,,,,,,,,,0,1,1,4,1,,,,,,,,,,,,,,,,,,,,,,,,,,,,,,,,,,,,,,,,,
771093,001,2022-11-20_23h52.33.027,Info_measure_main_exp,2022.2.2,Win32,60.20469597,,,,,,,,,,,,,,,,,,masks/mask_001.jpg,,,,,,,,,,,,,,,,,,,,,,,,,,,,,,,,,,,,,,,,,,,,,,,,0,2,2,0,1,,,,,,,,,,,,,,,,,,,,,,,,,,,,,,,,,,,,,,,,,
771093,001,2022-11-20_23h52.33.027,Info_measure_main_exp,2022.2.2,Win32,60.20469597,,,,,,,,,,,,,,,,,,masks/mask_004.jpg,,,,,,,,,,,,,,,,,,,,,,,,,,,,,,,,,,,,,,,,,,,,,,,,0,3,3,3,1,,,,,,,,,,,,,,,,,,,,,,,,,,,,,,,,,,,,,,,,,
771093,001,2022-11-20_23h52.33.027,Info_measure_main_exp,2022.2.2,Win32,60.20469597,,,,,,,,,,,,,,,,,,masks/mask_003.jpg,,,,,,,,,,,,,,,,,,,,,,,,,,,,,,,,,,,,,,,,,,,,,,,,0,4,4,2,1,,,,,,,,,,,,,,,,,,,,,,,,,,,,,,,,,,,,,,,,,
771093,001,2022-11-20_23h52.33.027,Info_measure_main_exp,2022.2.2,Win32,60.20469597,,,,,,,,,,,,,,,,,,,,,,,,,,,,,,7,0.8695,1,,,,,,,,,,,,0,131,5,5,2274,1974,absent_patch/patch0002274.jpg,absent_patch/patch0001974.jpg,,,,,,,,,,,,,,,,,,,,0.032407407,0.122222222,1,0,0,response1disk,33,0.002777778,-0.002777778,1,0,0,center_square,0,32,32,90,1,,,,,,,,,,,,,,,,,,,,,,,
771093,001,2022-11-20_23h52.33.027,Info_measure_main_exp,2022.2.2,Win32,60.20469597,,,,,,,,,,,,,,,,,,masks/mask_001.jpg,,,,,,,,,,,,,,,,,,,,,,,,,,,,,,,,,,,,,,,,,,,0,0,0,0,1,,,,,,,,,,,,,,,,,,,,,,,,,,,,,,,,,,,,,,,,,,,,,,
771093,001,2022-11-20_23h52.33.027,Info_measure_main_exp,2022.2.2,Win32,60.20469597,,,,,,,,,,,,,,,,,,masks/mask_003.jpg,,,,,,,,,,,,,,,,,,,,,,,,,,,,,,,,,,,,,,,,,,,0,1,1,2,1,,,,,,,,,,,,,,,,,,,,,,,,,,,,,,,,,,,,,,,,,,,,,,
771093,001,2022-11-20_23h52.33.027,Info_measure_main_exp,2022.2.2,Win32,60.20469597,,,,,,,,,,,,,,,,,,masks/mask_002.jpg,,,,,,,,,,,,,,,,,,,,,,,,,,,,,,,,,,,,,,,,,,,0,2,2,1,1,,,,,,,,,,,,,,,,,,,,,,,,,,,,,,,,,,,,,,,,,,,,,,
771093,001,2022-11-20_23h52.33.027,Info_measure_main_exp,2022.2.2,Win32,60.20469597,,,,,,,,,,,,,,,,,,masks/mask_005.jpg,,,,,,,,,,,,,,,,,,,,,,,,,,,,,,,,,,,,,,,,,,,0,3,3,4,1,,,,,,,,,,,,,,,,,,,,,,,,,,,,,,,,,,,,,,,,,,,,,,
771093,001,2022-11-20_23h52.33.027,Info_measure_main_exp,2022.2.2,Win32,60.20469597,,,,,,,,,,,,,,,,,,masks/mask_004.jpg,,,,,,,,,,,,,,,,,,,,,,,,,,,,,,,,,,,,,,,,,,,0,4,4,3,1,,,,,,,,,,,,,,,,,,,,,,,,,,,,,,,,,,,,,,,,,,,,,,
771093,001,2022-11-20_23h52.33.027,Info_measure_main_exp,2022.2.2,Win32,60.20469597,,,,,,,,,,,,,,,,,,masks/mask_002.jpg,,,,,,,,,,,,,,,,,,,,,,,,,,,,,,,,,,,,,,,,,,,,,,,,0,0,0,1,1,,,,,,,,,,,,,,,,,,,,,,,,,,,,,,,,,,,,,,,,,
771093,001,2022-11-20_23h52.33.027,Info_measure_main_exp,2022.2.2,Win32,60.20469597,,,,,,,,,,,,,,,,,,masks/mask_004.jpg,,,,,,,,,,,,,,,,,,,,,,,,,,,,,,,,,,,,,,,,,,,,,,,,0,1,1,3,1,,,,,,,,,,,,,,,,,,,,,,,,,,,,,,,,,,,,,,,,,
771093,001,2022-11-20_23h52.33.027,Info_measure_main_exp,2022.2.2,Win32,60.20469597,,,,,,,,,,,,,,,,,,masks/mask_005.jpg,,,,,,,,,,,,,,,,,,,,,,,,,,,,,,,,,,,,,,,,,,,,,,,,0,2,2,4,1,,,,,,,,,,,,,,,,,,,,,,,,,,,,,,,,,,,,,,,,,
771093,001,2022-11-20_23h52.33.027,Info_measure_main_exp,2022.2.2,Win32,60.20469597,,,,,,,,,,,,,,,,,,masks/mask_003.jpg,,,,,,,,,,,,,,,,,,,,,,,,,,,,,,,,,,,,,,,,,,,,,,,,0,3,3,2,1,,,,,,,,,,,,,,,,,,,,,,,,,,,,,,,,,,,,,,,,,
771093,001,2022-11-20_23h52.33.027,Info_measure_main_exp,2022.2.2,Win32,60.20469597,,,,,,,,,,,,,,,,,,masks/mask_001.jpg,,,,,,,,,,,,,,,,,,,,,,,,,,,,,,,,,,,,,,,,,,,,,,,,0,4,4,0,1,,,,,,,,,,,,,,,,,,,,,,,,,,,,,,,,,,,,,,,,,
771093,001,2022-11-20_23h52.33.027,Info_measure_main_exp,2022.2.2,Win32,60.20469597,,,,,,,,,,,,,,,,,,,,,,,,,,,,,,3,1.5536,1,,,,,,,,,,,,0,131,5,5,1950,2142,absent_patch/patch0001950.jpg,absent_patch/patch0002142.jpg,,,,,,,,,,,,,,,,,,,,-0.065740741,-0.142592593,1,0,0,response5disk,34,-0.002777778,-0.012037037,1,0,0,center_square,0,33,33,83,1,,,,,,,,,,,,,,,,,,,,,,,
771093,001,2022-11-20_23h52.33.027,Info_measure_main_exp,2022.2.2,Win32,60.20469597,,,,,,,,,,,,,,,,,,masks/mask_002.jpg,,,,,,,,,,,,,,,,,,,,,,,,,,,,,,,,,,,,,,,,,,,0,0,0,1,1,,,,,,,,,,,,,,,,,,,,,,,,,,,,,,,,,,,,,,,,,,,,,,
771093,001,2022-11-20_23h52.33.027,Info_measure_main_exp,2022.2.2,Win32,60.20469597,,,,,,,,,,,,,,,,,,masks/mask_005.jpg,,,,,,,,,,,,,,,,,,,,,,,,,,,,,,,,,,,,,,,,,,,0,1,1,4,1,,,,,,,,,,,,,,,,,,,,,,,,,,,,,,,,,,,,,,,,,,,,,,
771093,001,2022-11-20_23h52.33.027,Info_measure_main_exp,2022.2.2,Win32,60.20469597,,,,,,,,,,,,,,,,,,masks/mask_004.jpg,,,,,,,,,,,,,,,,,,,,,,,,,,,,,,,,,,,,,,,,,,,0,2,2,3,1,,,,,,,,,,,,,,,,,,,,,,,,,,,,,,,,,,,,,,,,,,,,,,
771093,001,2022-11-20_23h52.33.027,Info_measure_main_exp,2022.2.2,Win32,60.20469597,,,,,,,,,,,,,,,,,,masks/mask_001.jpg,,,,,,,,,,,,,,,,,,,,,,,,,,,,,,,,,,,,,,,,,,,0,3,3,0,1,,,,,,,,,,,,,,,,,,,,,,,,,,,,,,,,,,,,,,,,,,,,,,
771093,001,2022-11-20_23h52.33.027,Info_measure_main_exp,2022.2.2,Win32,60.20469597,,,,,,,,,,,,,,,,,,masks/mask_003.jpg,,,,,,,,,,,,,,,,,,,,,,,,,,,,,,,,,,,,,,,,,,,0,4,4,2,1,,,,,,,,,,,,,,,,,,,,,,,,,,,,,,,,,,,,,,,,,,,,,,
771093,001,2022-11-20_23h52.33.027,Info_measure_main_exp,2022.2.2,Win32,60.20469597,,,,,,,,,,,,,,,,,,masks/mask_001.jpg,,,,,,,,,,,,,,,,,,,,,,,,,,,,,,,,,,,,,,,,,,,,,,,,0,0,0,0,1,,,,,,,,,,,,,,,,,,,,,,,,,,,,,,,,,,,,,,,,,
771093,001,2022-11-20_23h52.33.027,Info_measure_main_exp,2022.2.2,Win32,60.20469597,,,,,,,,,,,,,,,,,,masks/mask_003.jpg,,,,,,,,,,,,,,,,,,,,,,,,,,,,,,,,,,,,,,,,,,,,,,,,0,1,1,2,1,,,,,,,,,,,,,,,,,,,,,,,,,,,,,,,,,,,,,,,,,
771093,001,2022-11-20_23h52.33.027,Info_measure_main_exp,2022.2.2,Win32,60.20469597,,,,,,,,,,,,,,,,,,masks/mask_004.jpg,,,,,,,,,,,,,,,,,,,,,,,,,,,,,,,,,,,,,,,,,,,,,,,,0,2,2,3,1,,,,,,,,,,,,,,,,,,,,,,,,,,,,,,,,,,,,,,,,,
771093,001,2022-11-20_23h52.33.027,Info_measure_main_exp,2022.2.2,Win32,60.20469597,,,,,,,,,,,,,,,,,,masks/mask_005.jpg,,,,,,,,,,,,,,,,,,,,,,,,,,,,,,,,,,,,,,,,,,,,,,,,0,3,3,4,1,,,,,,,,,,,,,,,,,,,,,,,,,,,,,,,,,,,,,,,,,
