participant,session,date,expName,psychopyVersion,OS,frameRate,space_press_continue.keys,space_press_continue.rt,space_press_continue_2.keys,space_press_continue_2.rt,space_press_continue_3.keys,space_press_continue_3.rt,space_press_continue_4.keys,space_press_continue_4.rt,space_press_continue_5.keys,space_press_continue_5.rt,space_press_continue_6.keys,space_press_continue_6.rt,prac_mask_loop_1.thisRepN,prac_mask_loop_1.thisTrialN,prac_mask_loop_1.thisN,prac_mask_loop_1.thisIndex,prac_mask_loop_1.ran,mask_name,prac_mask_loop_2.thisRepN,prac_mask_loop_2.thisTrialN,prac_mask_loop_2.thisN,prac_mask_loop_2.thisIndex,prac_mask_loop_2.ran,mouse_2.x,mouse_2.y,mouse_2.leftButton,mouse_2.midButton,mouse_2.rightButton,mouse_2.clicked_name,similarity,response_time,Pass,mouse_12.x,mouse_12.y,mouse_12.leftButton,mouse_12.midButton,mouse_12.rightButton,mouse_12.clicked_name,prac_loop.thisRepN,prac_loop.thisTrialN,prac_loop.thisN,prac_loop.thisIndex,prac_loop.ran,Pair_type,Image_num,Patch_1_loc,Patch_2_loc,Patch_1_info,Patch_2_info,Patch_1_name,Patch_2_name,mouse_1.x,mouse_1.y,mouse_1.leftButton,mouse_1.midButton,mouse_1.rightButton,mouse_1.time,mouse_1.clicked_name,space_press_continue_7.keys,space_press_continue_7.rt,mask_loop.thisRepN,mask_loop.thisTrialN,mask_loop.thisN,mask_loop.thisIndex,mask_loop.ran,mask_loop_2.thisRepN,mask_loop_2.thisTrialN,mask_loop_2.thisN,mask_loop_2.thisIndex,mask_loop_2.ran,mouse.x,mouse.y,mouse.leftButton,mouse.midButton,mouse.rightButton,mouse.clicked_name,trialNumber,mouse_11.x,mouse_11.y,mouse_11.leftButton,mouse_11.midButton,mouse_11.rightButton,mouse_11.clicked_name,first_pass_loop.thisRepN,first_pass_loop.thisTrialN,first_pass_loop.thisN,first_pass_loop.thisIndex,first_pass_loop.ran,mask_loop_3.thisRepN,mask_loop_3.thisTrialN,mask_loop_3.thisN,mask_loop_3.thisIndex,mask_loop_3.ran,mask_loop_4.thisRepN,mask_loop_4.thisTrialN,mask_loop_4.thisN,mask_loop_4.thisIndex,mask_loop_4.ran,mouse_3.x,mouse_3.y,mouse_3.leftButton,mouse_3.midButton,mouse_3.rightButton,mouse_3.clicked_name,double_pass_loop.thisRepN,double_pass_loop.thisTrialN,double_pass_loop.thisN,double_pass_loop.thisIndex,double_pass_loop.ran,space_exit.keys,space_exit.rt
773878,001,2022-11-21_24h51.32.264,Info_measure_main_exp,2022.2.2,Win32,164.4736842,,,,,,,,,,,,,,,,,,,,,,,,,,,,,,,,,,,,,,,,,,,,,,,,,,,,,,,,,,,,,,,,,,,,,,,,,,,,,,,,,,,,,,,,,,,,,,,,,,,,,,,,,,,,,,,
773878,001,2022-11-21_24h51.32.264,Info_measure_main_exp,2022.2.2,Win32,164.4736842,,,,,,,,,,,,,,,,,,,,,,,,,,,,,,,,,,,,,,,,,,,,,,,,,,,,,,,,,,,,,,,,,,,,,,,,,,,,,,,,,,,,,,,,,,,,,,,,,,,,,,,,,,,,,,,
773878,001,2022-11-21_24h51.32.264,Info_measure_main_exp,2022.2.2,Win32,164.4736842,space,7.9079,,,,,,,,,,,,,,,,,,,,,,,,,,,,,,,,,,,,,,,,,,,,,,,,,,,,,,,,,,,,,,,,,,,,,,,,,,,,,,,,,,,,,,,,,,,,,,,,,,,,,,,,,,,,,
773878,001,2022-11-21_24h51.32.264,Info_measure_main_exp,2022.2.2,Win32,164.4736842,,,space,8.6718,,,,,,,,,,,,,,,,,,,,,,,,,,,,,,,,,,,,,,,,,,,,,,,,,,,,,,,,,,,,,,,,,,,,,,,,,,,,,,,,,,,,,,,,,,,,,,,,,,,,,,,,,,,
773878,001,2022-11-21_24h51.32.264,Info_measure_main_exp,2022.2.2,Win32,164.4736842,,,,,space,5.0757,,,,,,,,,,,,,,,,,,,,,,,,,,,,,,,,,,,,,,,,,,,,,,,,,,,,,,,,,,,,,,,,,,,,,,,,,,,,,,,,,,,,,,,,,,,,,,,,,,,,,,,,,
773878,001,2022-11-21_24h51.32.264,Info_measure_main_exp,2022.2.2,Win32,164.4736842,,,,,,,space,12.828,,,,,,,,,,,,,,,,,,,,,,,,,,,,,,,,,,,,,,,,,,,,,,,,,,,,,,,,,,,,,,,,,,,,,,,,,,,,,,,,,,,,,,,,,,,,,,,,,,,,,,,
773878,001,2022-11-21_24h51.32.264,Info_measure_main_exp,2022.2.2,Win32,164.4736842,,,,,,,,,space,8.1184,,,,,,,,,,,,,,,,,,,,,,,,,,,,,,,,,,,,,,,,,,,,,,,,,,,,,,,,,,,,,,,,,,,,,,,,,,,,,,,,,,,,,,,,,,,,,,,,,,,,,
773878,001,2022-11-21_24h51.32.264,Info_measure_main_exp,2022.2.2,Win32,164.4736842,,,,,,,,,,,space,4.1728,,,,,,,,,,,,,,,,,,,,,,,,,,,,,,,,,,,,,,,,,,,,,,,,,,,,,,,,,,,,,,,,,,,,,,,,,,,,,,,,,,,,,,,,,,,,,,,,,,,
773878,001,2022-11-21_24h51.32.264,Info_measure_main_exp,2022.2.2,Win32,164.4736842,,,,,,,,,,,,,0,0,0,0,1,masks/mask_001.jpg,,,,,,,,,,,,,,,,,,,,,,,,,,,,,,,,,,,,,,,,,,,,,,,,,,,,,,,,,,,,,,,,,,,,,,,,,,,,,,,,,,,,,,,,,,,,,
773878,001,2022-11-21_24h51.32.264,Info_measure_main_exp,2022.2.2,Win32,164.4736842,,,,,,,,,,,,,0,1,1,2,1,masks/mask_003.jpg,,,,,,,,,,,,,,,,,,,,,,,,,,,,,,,,,,,,,,,,,,,,,,,,,,,,,,,,,,,,,,,,,,,,,,,,,,,,,,,,,,,,,,,,,,,,,
773878,001,2022-11-21_24h51.32.264,Info_measure_main_exp,2022.2.2,Win32,164.4736842,,,,,,,,,,,,,0,2,2,3,1,masks/mask_004.jpg,,,,,,,,,,,,,,,,,,,,,,,,,,,,,,,,,,,,,,,,,,,,,,,,,,,,,,,,,,,,,,,,,,,,,,,,,,,,,,,,,,,,,,,,,,,,,
773878,001,2022-11-21_24h51.32.264,Info_measure_main_exp,2022.2.2,Win32,164.4736842,,,,,,,,,,,,,0,3,3,4,1,masks/mask_005.jpg,,,,,,,,,,,,,,,,,,,,,,,,,,,,,,,,,,,,,,,,,,,,,,,,,,,,,,,,,,,,,,,,,,,,,,,,,,,,,,,,,,,,,,,,,,,,,
773878,001,2022-11-21_24h51.32.264,Info_measure_main_exp,2022.2.2,Win32,164.4736842,,,,,,,,,,,,,0,4,4,1,1,masks/mask_002.jpg,,,,,,,,,,,,,,,,,,,,,,,,,,,,,,,,,,,,,,,,,,,,,,,,,,,,,,,,,,,,,,,,,,,,,,,,,,,,,,,,,,,,,,,,,,,,,
773878,001,2022-11-21_24h51.32.264,Info_measure_main_exp,2022.2.2,Win32,164.4736842,,,,,,,,,,,,,,,,,,masks/mask_003.jpg,0,0,0,2,1,,,,,,,,,,,,,,,,,,,,,,,,,,,,,,,,,,,,,,,,,,,,,,,,,,,,,,,,,,,,,,,,,,,,,,,,,,,,,,,,,,,,,,,,
773878,001,2022-11-21_24h51.32.264,Info_measure_main_exp,2022.2.2,Win32,164.4736842,,,,,,,,,,,,,,,,,,masks/mask_001.jpg,0,1,1,0,1,,,,,,,,,,,,,,,,,,,,,,,,,,,,,,,,,,,,,,,,,,,,,,,,,,,,,,,,,,,,,,,,,,,,,,,,,,,,,,,,,,,,,,,,
773878,001,2022-11-21_24h51.32.264,Info_measure_main_exp,2022.2.2,Win32,164.4736842,,,,,,,,,,,,,,,,,,masks/mask_004.jpg,0,2,2,3,1,,,,,,,,,,,,,,,,,,,,,,,,,,,,,,,,,,,,,,,,,,,,,,,,,,,,,,,,,,,,,,,,,,,,,,,,,,,,,,,,,,,,,,,,
773878,001,2022-11-21_24h51.32.264,Info_measure_main_exp,2022.2.2,Win32,164.4736842,,,,,,,,,,,,,,,,,,masks/mask_005.jpg,0,3,3,4,1,,,,,,,,,,,,,,,,,,,,,,,,,,,,,,,,,,,,,,,,,,,,,,,,,,,,,,,,,,,,,,,,,,,,,,,,,,,,,,,,,,,,,,,,
773878,001,2022-11-21_24h51.32.264,Info_measure_main_exp,2022.2.2,Win32,164.4736842,,,,,,,,,,,,,,,,,,masks/mask_002.jpg,0,4,4,1,1,,,,,,,,,,,,,,,,,,,,,,,,,,,,,,,,,,,,,,,,,,,,,,,,,,,,,,,,,,,,,,,,,,,,,,,,,,,,,,,,,,,,,,,,
773878,001,2022-11-21_24h51.32.264,Info_measure_main_exp,2022.2.2,Win32,164.4736842,,,,,,,,,,,,,,,,,,,,,,,,-0.072222222,-0.042592593,1,0,0,response5disk,2,50.4266,1,0.000925926,-0.00462963,1,0,0,center_square,0,0,0,1,1,0,131,5,5,2514,2490,prac_patch/patch0002514.jpg,prac_patch/patch0002490.jpg,,,,,,,,,,,,,,,,,,,,,,,,,,,,,,,,,,,,,,,,,,,,,,,,,,,,,,,,,,,,
773878,001,2022-11-21_24h51.32.264,Info_measure_main_exp,2022.2.2,Win32,164.4736842,,,,,,,,,,,,,0,0,0,2,1,masks/mask_003.jpg,,,,,,,,,,,,,,,,,,,,,,,,,,,,,,,,,,,,,,,,,,,,,,,,,,,,,,,,,,,,,,,,,,,,,,,,,,,,,,,,,,,,,,,,,,,,,
773878,001,2022-11-21_24h51.32.264,Info_measure_main_exp,2022.2.2,Win32,164.4736842,,,,,,,,,,,,,0,1,1,1,1,masks/mask_002.jpg,,,,,,,,,,,,,,,,,,,,,,,,,,,,,,,,,,,,,,,,,,,,,,,,,,,,,,,,,,,,,,,,,,,,,,,,,,,,,,,,,,,,,,,,,,,,,
773878,001,2022-11-21_24h51.32.264,Info_measure_main_exp,2022.2.2,Win32,164.4736842,,,,,,,,,,,,,0,2,2,4,1,masks/mask_005.jpg,,,,,,,,,,,,,,,,,,,,,,,,,,,,,,,,,,,,,,,,,,,,,,,,,,,,,,,,,,,,,,,,,,,,,,,,,,,,,,,,,,,,,,,,,,,,,
773878,001,2022-11-21_24h51.32.264,Info_measure_main_exp,2022.2.2,Win32,164.4736842,,,,,,,,,,,,,0,3,3,0,1,masks/mask_001.jpg,,,,,,,,,,,,,,,,,,,,,,,,,,,,,,,,,,,,,,,,,,,,,,,,,,,,,,,,,,,,,,,,,,,,,,,,,,,,,,,,,,,,,,,,,,,,,
773878,001,2022-11-21_24h51.32.264,Info_measure_main_exp,2022.2.2,Win32,164.4736842,,,,,,,,,,,,,0,4,4,3,1,masks/mask_004.jpg,,,,,,,,,,,,,,,,,,,,,,,,,,,,,,,,,,,,,,,,,,,,,,,,,,,,,,,,,,,,,,,,,,,,,,,,,,,,,,,,,,,,,,,,,,,,,
773878,001,2022-11-21_24h51.32.264,Info_measure_main_exp,2022.2.2,Win32,164.4736842,,,,,,,,,,,,,,,,,,masks/mask_005.jpg,0,0,0,4,1,,,,,,,,,,,,,,,,,,,,,,,,,,,,,,,,,,,,,,,,,,,,,,,,,,,,,,,,,,,,,,,,,,,,,,,,,,,,,,,,,,,,,,,,
773878,001,2022-11-21_24h51.32.264,Info_measure_main_exp,2022.2.2,Win32,164.4736842,,,,,,,,,,,,,,,,,,masks/mask_003.jpg,0,1,1,2,1,,,,,,,,,,,,,,,,,,,,,,,,,,,,,,,,,,,,,,,,,,,,,,,,,,,,,,,,,,,,,,,,,,,,,,,,,,,,,,,,,,,,,,,,
773878,001,2022-11-21_24h51.32.264,Info_measure_main_exp,2022.2.2,Win32,164.4736842,,,,,,,,,,,,,,,,,,masks/mask_002.jpg,0,2,2,1,1,,,,,,,,,,,,,,,,,,,,,,,,,,,,,,,,,,,,,,,,,,,,,,,,,,,,,,,,,,,,,,,,,,,,,,,,,,,,,,,,,,,,,,,,
773878,001,2022-11-21_24h51.32.264,Info_measure_main_exp,2022.2.2,Win32,164.4736842,,,,,,,,,,,,,,,,,,masks/mask_004.jpg,0,3,3,3,1,,,,,,,,,,,,,,,,,,,,,,,,,,,,,,,,,,,,,,,,,,,,,,,,,,,,,,,,,,,,,,,,,,,,,,,,,,,,,,,,,,,,,,,,
773878,001,2022-11-21_24h51.32.264,Info_measure_main_exp,2022.2.2,Win32,164.4736842,,,,,,,,,,,,,,,,,,masks/mask_001.jpg,0,4,4,0,1,,,,,,,,,,,,,,,,,,,,,,,,,,,,,,,,,,,,,,,,,,,,,,,,,,,,,,,,,,,,,,,,,,,,,,,,,,,,,,,,,,,,,,,,
773878,001,2022-11-21_24h51.32.264,Info_measure_main_exp,2022.2.2,Win32,164.4736842,,,,,,,,,,,,,,,,,,,,,,,,-0.087037037,0.02962963,1,0,0,response7disk,1,58.853,1,0.007407407,-0.006481481,1,0,0,center_square,0,1,1,0,1,0,131,5,5,2370,2406,prac_patch/patch0002370.jpg,prac_patch/patch0002406.jpg,,,,,,,,,,,,,,,,,,,,,,,,,,,,,,,,,,,,,,,,,,,,,,,,,,,,,,,,,,,,
773878,001,2022-11-21_24h51.32.264,Info_measure_main_exp,2022.2.2,Win32,164.4736842,,,,,,,,,,,,,0,0,0,4,1,masks/mask_005.jpg,,,,,,,,,,,,,,,,,,,,,,,,,,,,,,,,,,,,,,,,,,,,,,,,,,,,,,,,,,,,,,,,,,,,,,,,,,,,,,,,,,,,,,,,,,,,,
773878,001,2022-11-21_24h51.32.264,Info_measure_main_exp,2022.2.2,Win32,164.4736842,,,,,,,,,,,,,0,1,1,1,1,masks/mask_002.jpg,,,,,,,,,,,,,,,,,,,,,,,,,,,,,,,,,,,,,,,,,,,,,,,,,,,,,,,,,,,,,,,,,,,,,,,,,,,,,,,,,,,,,,,,,,,,,
773878,001,2022-11-21_24h51.32.264,Info_measure_main_exp,2022.2.2,Win32,164.4736842,,,,,,,,,,,,,0,2,2,2,1,masks/mask_003.jpg,,,,,,,,,,,,,,,,,,,,,,,,,,,,,,,,,,,,,,,,,,,,,,,,,,,,,,,,,,,,,,,,,,,,,,,,,,,,,,,,,,,,,,,,,,,,,
773878,001,2022-11-21_24h51.32.264,Info_measure_main_exp,2022.2.2,Win32,164.4736842,,,,,,,,,,,,,0,3,3,0,1,masks/mask_001.jpg,,,,,,,,,,,,,,,,,,,,,,,,,,,,,,,,,,,,,,,,,,,,,,,,,,,,,,,,,,,,,,,,,,,,,,,,,,,,,,,,,,,,,,,,,,,,,
773878,001,2022-11-21_24h51.32.264,Info_measure_main_exp,2022.2.2,Win32,164.4736842,,,,,,,,,,,,,0,4,4,3,1,masks/mask_004.jpg,,,,,,,,,,,,,,,,,,,,,,,,,,,,,,,,,,,,,,,,,,,,,,,,,,,,,,,,,,,,,,,,,,,,,,,,,,,,,,,,,,,,,,,,,,,,,
773878,001,2022-11-21_24h51.32.264,Info_measure_main_exp,2022.2.2,Win32,164.4736842,,,,,,,,,,,,,,,,,,masks/mask_002.jpg,0,0,0,1,1,,,,,,,,,,,,,,,,,,,,,,,,,,,,,,,,,,,,,,,,,,,,,,,,,,,,,,,,,,,,,,,,,,,,,,,,,,,,,,,,,,,,,,,,
773878,001,2022-11-21_24h51.32.264,Info_measure_main_exp,2022.2.2,Win32,164.4736842,,,,,,,,,,,,,,,,,,masks/mask_003.jpg,0,1,1,2,1,,,,,,,,,,,,,,,,,,,,,,,,,,,,,,,,,,,,,,,,,,,,,,,,,,,,,,,,,,,,,,,,,,,,,,,,,,,,,,,,,,,,,,,,
773878,001,2022-11-21_24h51.32.264,Info_measure_main_exp,2022.2.2,Win32,164.4736842,,,,,,,,,,,,,,,,,,masks/mask_001.jpg,0,2,2,0,1,,,,,,,,,,,,,,,,,,,,,,,,,,,,,,,,,,,,,,,,,,,,,,,,,,,,,,,,,,,,,,,,,,,,,,,,,,,,,,,,,,,,,,,,
773878,001,2022-11-21_24h51.32.264,Info_measure_main_exp,2022.2.2,Win32,164.4736842,,,,,,,,,,,,,,,,,,masks/mask_004.jpg,0,3,3,3,1,,,,,,,,,,,,,,,,,,,,,,,,,,,,,,,,,,,,,,,,,,,,,,,,,,,,,,,,,,,,,,,,,,,,,,,,,,,,,,,,,,,,,,,,
773878,001,2022-11-21_24h51.32.264,Info_measure_main_exp,2022.2.2,Win32,164.4736842,,,,,,,,,,,,,,,,,,masks/mask_005.jpg,0,4,4,4,1,,,,,,,,,,,,,,,,,,,,,,,,,,,,,,,,,,,,,,,,,,,,,,,,,,,,,,,,,,,,,,,,,,,,,,,,,,,,,,,,,,,,,,,,
773878,001,2022-11-21_24h51.32.264,Info_measure_main_exp,2022.2.2,Win32,164.4736842,,,,,,,,,,,,,,,,,,,,,,,,-0.052777778,0.09537037,1,0,0,response7disk,0,70.6352,1,-0.000925926,0.002777778,1,0,0,center_square,0,2,2,2,1,0,131,5,5,2526,2526,prac_patch/patch0002526.jpg,prac_patch/patch0002526.jpg,,,,,,,,,,,,,,,,,,,,,,,,,,,,,,,,,,,,,,,,,,,,,,,,,,,,,,,,,,,,
773878,001,2022-11-21_24h51.32.264,Info_measure_main_exp,2022.2.2,Win32,164.4736842,,,,,,,,,,,,,,,,,,,,,,,,,,,,,,,,,,,,,,,,,,,,,,,,,,,,,,,,,,,space,2.421,,,,,,,,,,,,,,,,,,,,,,,,,,,,,,,,,,,,,,,,,,,,,,,,,,,
773878,001,2022-11-21_24h51.32.264,Info_measure_main_exp,2022.2.2,Win32,164.4736842,,,,,,,,,,,,,,,,,,masks/mask_003.jpg,,,,,,,,,,,,,,,,,,,,,,,,,,,,,,,,,,,,,,,,,,,0,0,0,2,1,,,,,,,,,,,,,,,,,,,,,,,,,,,,,,,,,,,,,,,,,,,,,,
773878,001,2022-11-21_24h51.32.264,Info_measure_main_exp,2022.2.2,Win32,164.4736842,,,,,,,,,,,,,,,,,,masks/mask_001.jpg,,,,,,,,,,,,,,,,,,,,,,,,,,,,,,,,,,,,,,,,,,,0,1,1,0,1,,,,,,,,,,,,,,,,,,,,,,,,,,,,,,,,,,,,,,,,,,,,,,
773878,001,2022-11-21_24h51.32.264,Info_measure_main_exp,2022.2.2,Win32,164.4736842,,,,,,,,,,,,,,,,,,masks/mask_002.jpg,,,,,,,,,,,,,,,,,,,,,,,,,,,,,,,,,,,,,,,,,,,0,2,2,1,1,,,,,,,,,,,,,,,,,,,,,,,,,,,,,,,,,,,,,,,,,,,,,,
773878,001,2022-11-21_24h51.32.264,Info_measure_main_exp,2022.2.2,Win32,164.4736842,,,,,,,,,,,,,,,,,,masks/mask_005.jpg,,,,,,,,,,,,,,,,,,,,,,,,,,,,,,,,,,,,,,,,,,,0,3,3,4,1,,,,,,,,,,,,,,,,,,,,,,,,,,,,,,,,,,,,,,,,,,,,,,
773878,001,2022-11-21_24h51.32.264,Info_measure_main_exp,2022.2.2,Win32,164.4736842,,,,,,,,,,,,,,,,,,masks/mask_004.jpg,,,,,,,,,,,,,,,,,,,,,,,,,,,,,,,,,,,,,,,,,,,0,4,4,3,1,,,,,,,,,,,,,,,,,,,,,,,,,,,,,,,,,,,,,,,,,,,,,,
773878,001,2022-11-21_24h51.32.264,Info_measure_main_exp,2022.2.2,Win32,164.4736842,,,,,,,,,,,,,,,,,,masks/mask_002.jpg,,,,,,,,,,,,,,,,,,,,,,,,,,,,,,,,,,,,,,,,,,,,,,,,0,0,0,1,1,,,,,,,,,,,,,,,,,,,,,,,,,,,,,,,,,,,,,,,,,
773878,001,2022-11-21_24h51.32.264,Info_measure_main_exp,2022.2.2,Win32,164.4736842,,,,,,,,,,,,,,,,,,masks/mask_005.jpg,,,,,,,,,,,,,,,,,,,,,,,,,,,,,,,,,,,,,,,,,,,,,,,,0,1,1,4,1,,,,,,,,,,,,,,,,,,,,,,,,,,,,,,,,,,,,,,,,,
773878,001,2022-11-21_24h51.32.264,Info_measure_main_exp,2022.2.2,Win32,164.4736842,,,,,,,,,,,,,,,,,,masks/mask_003.jpg,,,,,,,,,,,,,,,,,,,,,,,,,,,,,,,,,,,,,,,,,,,,,,,,0,2,2,2,1,,,,,,,,,,,,,,,,,,,,,,,,,,,,,,,,,,,,,,,,,
773878,001,2022-11-21_24h51.32.264,Info_measure_main_exp,2022.2.2,Win32,164.4736842,,,,,,,,,,,,,,,,,,masks/mask_001.jpg,,,,,,,,,,,,,,,,,,,,,,,,,,,,,,,,,,,,,,,,,,,,,,,,0,3,3,0,1,,,,,,,,,,,,,,,,,,,,,,,,,,,,,,,,,,,,,,,,,
773878,001,2022-11-21_24h51.32.264,Info_measure_main_exp,2022.2.2,Win32,164.4736842,,,,,,,,,,,,,,,,,,masks/mask_004.jpg,,,,,,,,,,,,,,,,,,,,,,,,,,,,,,,,,,,,,,,,,,,,,,,,0,4,4,3,1,,,,,,,,,,,,,,,,,,,,,,,,,,,,,,,,,,,,,,,,,
773878,001,2022-11-21_24h51.32.264,Info_measure_main_exp,2022.2.2,Win32,164.4736842,,,,,,,,,,,,,,,,,,,,,,,,,,,,,,0,3.7616,1,,,,,,,,,,,,0,131,5,5,1986,1986,absent_patch/patch0001986.jpg,absent_patch/patch0001986.jpg,,,,,,,,,,,,,,,,,,,,-0.046296296,0.09537037,1,0,0,response7disk,1,-0.003703704,-0.005555556,1,0,0,center_square,0,0,0,19,1,,,,,,,,,,,,,,,,,,,,,,,
773878,001,2022-11-21_24h51.32.264,Info_measure_main_exp,2022.2.2,Win32,164.4736842,,,,,,,,,,,,,,,,,,masks/mask_001.jpg,,,,,,,,,,,,,,,,,,,,,,,,,,,,,,,,,,,,,,,,,,,0,0,0,0,1,,,,,,,,,,,,,,,,,,,,,,,,,,,,,,,,,,,,,,,,,,,,,,
773878,001,2022-11-21_24h51.32.264,Info_measure_main_exp,2022.2.2,Win32,164.4736842,,,,,,,,,,,,,,,,,,masks/mask_004.jpg,,,,,,,,,,,,,,,,,,,,,,,,,,,,,,,,,,,,,,,,,,,0,1,1,3,1,,,,,,,,,,,,,,,,,,,,,,,,,,,,,,,,,,,,,,,,,,,,,,
773878,001,2022-11-21_24h51.32.264,Info_measure_main_exp,2022.2.2,Win32,164.4736842,,,,,,,,,,,,,,,,,,masks/mask_002.jpg,,,,,,,,,,,,,,,,,,,,,,,,,,,,,,,,,,,,,,,,,,,0,2,2,1,1,,,,,,,,,,,,,,,,,,,,,,,,,,,,,,,,,,,,,,,,,,,,,,
773878,001,2022-11-21_24h51.32.264,Info_measure_main_exp,2022.2.2,Win32,164.4736842,,,,,,,,,,,,,,,,,,masks/mask_003.jpg,,,,,,,,,,,,,,,,,,,,,,,,,,,,,,,,,,,,,,,,,,,0,3,3,2,1,,,,,,,,,,,,,,,,,,,,,,,,,,,,,,,,,,,,,,,,,,,,,,
773878,001,2022-11-21_24h51.32.264,Info_measure_main_exp,2022.2.2,Win32,164.4736842,,,,,,,,,,,,,,,,,,masks/mask_005.jpg,,,,,,,,,,,,,,,,,,,,,,,,,,,,,,,,,,,,,,,,,,,0,4,4,4,1,,,,,,,,,,,,,,,,,,,,,,,,,,,,,,,,,,,,,,,,,,,,,,
773878,001,2022-11-21_24h51.32.264,Info_measure_main_exp,2022.2.2,Win32,164.4736842,,,,,,,,,,,,,,,,,,masks/mask_002.jpg,,,,,,,,,,,,,,,,,,,,,,,,,,,,,,,,,,,,,,,,,,,,,,,,0,0,0,1,1,,,,,,,,,,,,,,,,,,,,,,,,,,,,,,,,,,,,,,,,,
773878,001,2022-11-21_24h51.32.264,Info_measure_main_exp,2022.2.2,Win32,164.4736842,,,,,,,,,,,,,,,,,,masks/mask_004.jpg,,,,,,,,,,,,,,,,,,,,,,,,,,,,,,,,,,,,,,,,,,,,,,,,0,1,1,3,1,,,,,,,,,,,,,,,,,,,,,,,,,,,,,,,,,,,,,,,,,
773878,001,2022-11-21_24h51.32.264,Info_measure_main_exp,2022.2.2,Win32,164.4736842,,,,,,,,,,,,,,,,,,masks/mask_001.jpg,,,,,,,,,,,,,,,,,,,,,,,,,,,,,,,,,,,,,,,,,,,,,,,,0,2,2,0,1,,,,,,,,,,,,,,,,,,,,,,,,,,,,,,,,,,,,,,,,,
773878,001,2022-11-21_24h51.32.264,Info_measure_main_exp,2022.2.2,Win32,164.4736842,,,,,,,,,,,,,,,,,,masks/mask_005.jpg,,,,,,,,,,,,,,,,,,,,,,,,,,,,,,,,,,,,,,,,,,,,,,,,0,3,3,4,1,,,,,,,,,,,,,,,,,,,,,,,,,,,,,,,,,,,,,,,,,
773878,001,2022-11-21_24h51.32.264,Info_measure_main_exp,2022.2.2,Win32,164.4736842,,,,,,,,,,,,,,,,,,masks/mask_003.jpg,,,,,,,,,,,,,,,,,,,,,,,,,,,,,,,,,,,,,,,,,,,,,,,,0,4,4,2,1,,,,,,,,,,,,,,,,,,,,,,,,,,,,,,,,,,,,,,,,,
773878,001,2022-11-21_24h51.32.264,Info_measure_main_exp,2022.2.2,Win32,164.4736842,,,,,,,,,,,,,,,,,,,,,,,,,,,,,,6,1.2317,1,,,,,,,,,,,,0,131,5,5,1950,2142,absent_patch/patch0001950.jpg,absent_patch/patch0002142.jpg,,,,,,,,,,,,,,,,,,,,0.097222222,0.021296296,1,0,0,response1disk,2,-0.002777778,-0.001851852,1,0,0,center_square,0,1,1,83,1,,,,,,,,,,,,,,,,,,,,,,,
773878,001,2022-11-21_24h51.32.264,Info_measure_main_exp,2022.2.2,Win32,164.4736842,,,,,,,,,,,,,,,,,,masks/mask_001.jpg,,,,,,,,,,,,,,,,,,,,,,,,,,,,,,,,,,,,,,,,,,,0,0,0,0,1,,,,,,,,,,,,,,,,,,,,,,,,,,,,,,,,,,,,,,,,,,,,,,
773878,001,2022-11-21_24h51.32.264,Info_measure_main_exp,2022.2.2,Win32,164.4736842,,,,,,,,,,,,,,,,,,masks/mask_005.jpg,,,,,,,,,,,,,,,,,,,,,,,,,,,,,,,,,,,,,,,,,,,0,1,1,4,1,,,,,,,,,,,,,,,,,,,,,,,,,,,,,,,,,,,,,,,,,,,,,,
773878,001,2022-11-21_24h51.32.264,Info_measure_main_exp,2022.2.2,Win32,164.4736842,,,,,,,,,,,,,,,,,,masks/mask_002.jpg,,,,,,,,,,,,,,,,,,,,,,,,,,,,,,,,,,,,,,,,,,,0,2,2,1,1,,,,,,,,,,,,,,,,,,,,,,,,,,,,,,,,,,,,,,,,,,,,,,
773878,001,2022-11-21_24h51.32.264,Info_measure_main_exp,2022.2.2,Win32,164.4736842,,,,,,,,,,,,,,,,,,masks/mask_003.jpg,,,,,,,,,,,,,,,,,,,,,,,,,,,,,,,,,,,,,,,,,,,0,3,3,2,1,,,,,,,,,,,,,,,,,,,,,,,,,,,,,,,,,,,,,,,,,,,,,,
773878,001,2022-11-21_24h51.32.264,Info_measure_main_exp,2022.2.2,Win32,164.4736842,,,,,,,,,,,,,,,,,,masks/mask_004.jpg,,,,,,,,,,,,,,,,,,,,,,,,,,,,,,,,,,,,,,,,,,,0,4,4,3,1,,,,,,,,,,,,,,,,,,,,,,,,,,,,,,,,,,,,,,,,,,,,,,
773878,001,2022-11-21_24h51.32.264,Info_measure_main_exp,2022.2.2,Win32,164.4736842,,,,,,,,,,,,,,,,,,masks/mask_003.jpg,,,,,,,,,,,,,,,,,,,,,,,,,,,,,,,,,,,,,,,,,,,,,,,,0,0,0,2,1,,,,,,,,,,,,,,,,,,,,,,,,,,,,,,,,,,,,,,,,,
773878,001,2022-11-21_24h51.32.264,Info_measure_main_exp,2022.2.2,Win32,164.4736842,,,,,,,,,,,,,,,,,,masks/mask_002.jpg,,,,,,,,,,,,,,,,,,,,,,,,,,,,,,,,,,,,,,,,,,,,,,,,0,1,1,1,1,,,,,,,,,,,,,,,,,,,,,,,,,,,,,,,,,,,,,,,,,
773878,001,2022-11-21_24h51.32.264,Info_measure_main_exp,2022.2.2,Win32,164.4736842,,,,,,,,,,,,,,,,,,masks/mask_004.jpg,,,,,,,,,,,,,,,,,,,,,,,,,,,,,,,,,,,,,,,,,,,,,,,,0,2,2,3,1,,,,,,,,,,,,,,,,,,,,,,,,,,,,,,,,,,,,,,,,,
773878,001,2022-11-21_24h51.32.264,Info_measure_main_exp,2022.2.2,Win32,164.4736842,,,,,,,,,,,,,,,,,,masks/mask_001.jpg,,,,,,,,,,,,,,,,,,,,,,,,,,,,,,,,,,,,,,,,,,,,,,,,0,3,3,0,1,,,,,,,,,,,,,,,,,,,,,,,,,,,,,,,,,,,,,,,,,
773878,001,2022-11-21_24h51.32.264,Info_measure_main_exp,2022.2.2,Win32,164.4736842,,,,,,,,,,,,,,,,,,masks/mask_005.jpg,,,,,,,,,,,,,,,,,,,,,,,,,,,,,,,,,,,,,,,,,,,,,,,,0,4,4,4,1,,,,,,,,,,,,,,,,,,,,,,,,,,,,,,,,,,,,,,,,,
773878,001,2022-11-21_24h51.32.264,Info_measure_main_exp,2022.2.2,Win32,164.4736842,,,,,,,,,,,,,,,,,,,,,,,,,,,,,,7,0.7038,1,,,,,,,,,,,,0,131,5,5,2082,1974,absent_patch/patch0002082.jpg,absent_patch/patch0001974.jpg,,,,,,,,,,,,,,,,,,,,0.048148148,0.058333333,1,0,0,response1disk,3,0.002777778,-0.010185185,1,0,0,center_square,0,2,2,26,1,,,,,,,,,,,,,,,,,,,,,,,
773878,001,2022-11-21_24h51.32.264,Info_measure_main_exp,2022.2.2,Win32,164.4736842,,,,,,,,,,,,,,,,,,masks/mask_001.jpg,,,,,,,,,,,,,,,,,,,,,,,,,,,,,,,,,,,,,,,,,,,0,0,0,0,1,,,,,,,,,,,,,,,,,,,,,,,,,,,,,,,,,,,,,,,,,,,,,,
773878,001,2022-11-21_24h51.32.264,Info_measure_main_exp,2022.2.2,Win32,164.4736842,,,,,,,,,,,,,,,,,,masks/mask_002.jpg,,,,,,,,,,,,,,,,,,,,,,,,,,,,,,,,,,,,,,,,,,,0,1,1,1,1,,,,,,,,,,,,,,,,,,,,,,,,,,,,,,,,,,,,,,,,,,,,,,
773878,001,2022-11-21_24h51.32.264,Info_measure_main_exp,2022.2.2,Win32,164.4736842,,,,,,,,,,,,,,,,,,masks/mask_005.jpg,,,,,,,,,,,,,,,,,,,,,,,,,,,,,,,,,,,,,,,,,,,0,2,2,4,1,,,,,,,,,,,,,,,,,,,,,,,,,,,,,,,,,,,,,,,,,,,,,,
773878,001,2022-11-21_24h51.32.264,Info_measure_main_exp,2022.2.2,Win32,164.4736842,,,,,,,,,,,,,,,,,,masks/mask_004.jpg,,,,,,,,,,,,,,,,,,,,,,,,,,,,,,,,,,,,,,,,,,,0,3,3,3,1,,,,,,,,,,,,,,,,,,,,,,,,,,,,,,,,,,,,,,,,,,,,,,
773878,001,2022-11-21_24h51.32.264,Info_measure_main_exp,2022.2.2,Win32,164.4736842,,,,,,,,,,,,,,,,,,masks/mask_003.jpg,,,,,,,,,,,,,,,,,,,,,,,,,,,,,,,,,,,,,,,,,,,0,4,4,2,1,,,,,,,,,,,,,,,,,,,,,,,,,,,,,,,,,,,,,,,,,,,,,,
773878,001,2022-11-21_24h51.32.264,Info_measure_main_exp,2022.2.2,Win32,164.4736842,,,,,,,,,,,,,,,,,,masks/mask_001.jpg,,,,,,,,,,,,,,,,,,,,,,,,,,,,,,,,,,,,,,,,,,,,,,,,0,0,0,0,1,,,,,,,,,,,,,,,,,,,,,,,,,,,,,,,,,,,,,,,,,
773878,001,2022-11-21_24h51.32.264,Info_measure_main_exp,2022.2.2,Win32,164.4736842,,,,,,,,,,,,,,,,,,masks/mask_004.jpg,,,,,,,,,,,,,,,,,,,,,,,,,,,,,,,,,,,,,,,,,,,,,,,,0,1,1,3,1,,,,,,,,,,,,,,,,,,,,,,,,,,,,,,,,,,,,,,,,,
773878,001,2022-11-21_24h51.32.264,Info_measure_main_exp,2022.2.2,Win32,164.4736842,,,,,,,,,,,,,,,,,,masks/mask_002.jpg,,,,,,,,,,,,,,,,,,,,,,,,,,,,,,,,,,,,,,,,,,,,,,,,0,2,2,1,1,,,,,,,,,,,,,,,,,,,,,,,,,,,,,,,,,,,,,,,,,
773878,001,2022-11-21_24h51.32.264,Info_measure_main_exp,2022.2.2,Win32,164.4736842,,,,,,,,,,,,,,,,,,masks/mask_003.jpg,,,,,,,,,,,,,,,,,,,,,,,,,,,,,,,,,,,,,,,,,,,,,,,,0,3,3,2,1,,,,,,,,,,,,,,,,,,,,,,,,,,,,,,,,,,,,,,,,,
773878,001,2022-11-21_24h51.32.264,Info_measure_main_exp,2022.2.2,Win32,164.4736842,,,,,,,,,,,,,,,,,,masks/mask_005.jpg,,,,,,,,,,,,,,,,,,,,,,,,,,,,,,,,,,,,,,,,,,,,,,,,0,4,4,4,1,,,,,,,,,,,,,,,,,,,,,,,,,,,,,,,,,,,,,,,,,
773878,001,2022-11-21_24h51.32.264,Info_measure_main_exp,2022.2.2,Win32,164.4736842,,,,,,,,,,,,,,,,,,,,,,,,,,,,,,7,0.6005,1,,,,,,,,,,,,0,131,5,5,2082,1986,absent_patch/patch0002082.jpg,absent_patch/patch0001986.jpg,,,,,,,,,,,,,,,,,,,,0.028703704,0.051851852,1,0,0,response1disk,4,-0.003703704,-0.010185185,1,0,0,center_square,0,3,3,94,1,,,,,,,,,,,,,,,,,,,,,,,
773878,001,2022-11-21_24h51.32.264,Info_measure_main_exp,2022.2.2,Win32,164.4736842,,,,,,,,,,,,,,,,,,masks/mask_003.jpg,,,,,,,,,,,,,,,,,,,,,,,,,,,,,,,,,,,,,,,,,,,0,0,0,2,1,,,,,,,,,,,,,,,,,,,,,,,,,,,,,,,,,,,,,,,,,,,,,,
773878,001,2022-11-21_24h51.32.264,Info_measure_main_exp,2022.2.2,Win32,164.4736842,,,,,,,,,,,,,,,,,,masks/mask_002.jpg,,,,,,,,,,,,,,,,,,,,,,,,,,,,,,,,,,,,,,,,,,,0,1,1,1,1,,,,,,,,,,,,,,,,,,,,,,,,,,,,,,,,,,,,,,,,,,,,,,
773878,001,2022-11-21_24h51.32.264,Info_measure_main_exp,2022.2.2,Win32,164.4736842,,,,,,,,,,,,,,,,,,masks/mask_001.jpg,,,,,,,,,,,,,,,,,,,,,,,,,,,,,,,,,,,,,,,,,,,0,2,2,0,1,,,,,,,,,,,,,,,,,,,,,,,,,,,,,,,,,,,,,,,,,,,,,,
773878,001,2022-11-21_24h51.32.264,Info_measure_main_exp,2022.2.2,Win32,164.4736842,,,,,,,,,,,,,,,,,,masks/mask_005.jpg,,,,,,,,,,,,,,,,,,,,,,,,,,,,,,,,,,,,,,,,,,,0,3,3,4,1,,,,,,,,,,,,,,,,,,,,,,,,,,,,,,,,,,,,,,,,,,,,,,
773878,001,2022-11-21_24h51.32.264,Info_measure_main_exp,2022.2.2,Win32,164.4736842,,,,,,,,,,,,,,,,,,masks/mask_004.jpg,,,,,,,,,,,,,,,,,,,,,,,,,,,,,,,,,,,,,,,,,,,0,4,4,3,1,,,,,,,,,,,,,,,,,,,,,,,,,,,,,,,,,,,,,,,,,,,,,,
773878,001,2022-11-21_24h51.32.264,Info_measure_main_exp,2022.2.2,Win32,164.4736842,,,,,,,,,,,,,,,,,,masks/mask_001.jpg,,,,,,,,,,,,,,,,,,,,,,,,,,,,,,,,,,,,,,,,,,,,,,,,0,0,0,0,1,,,,,,,,,,,,,,,,,,,,,,,,,,,,,,,,,,,,,,,,,
773878,001,2022-11-21_24h51.32.264,Info_measure_main_exp,2022.2.2,Win32,164.4736842,,,,,,,,,,,,,,,,,,masks/mask_005.jpg,,,,,,,,,,,,,,,,,,,,,,,,,,,,,,,,,,,,,,,,,,,,,,,,0,1,1,4,1,,,,,,,,,,,,,,,,,,,,,,,,,,,,,,,,,,,,,,,,,
773878,001,2022-11-21_24h51.32.264,Info_measure_main_exp,2022.2.2,Win32,164.4736842,,,,,,,,,,,,,,,,,,masks/mask_002.jpg,,,,,,,,,,,,,,,,,,,,,,,,,,,,,,,,,,,,,,,,,,,,,,,,0,2,2,1,1,,,,,,,,,,,,,,,,,,,,,,,,,,,,,,,,,,,,,,,,,
773878,001,2022-11-21_24h51.32.264,Info_measure_main_exp,2022.2.2,Win32,164.4736842,,,,,,,,,,,,,,,,,,masks/mask_004.jpg,,,,,,,,,,,,,,,,,,,,,,,,,,,,,,,,,,,,,,,,,,,,,,,,0,3,3,3,1,,,,,,,,,,,,,,,,,,,,,,,,,,,,,,,,,,,,,,,,,
773878,001,2022-11-21_24h51.32.264,Info_measure_main_exp,2022.2.2,Win32,164.4736842,,,,,,,,,,,,,,,,,,masks/mask_003.jpg,,,,,,,,,,,,,,,,,,,,,,,,,,,,,,,,,,,,,,,,,,,,,,,,0,4,4,2,1,,,,,,,,,,,,,,,,,,,,,,,,,,,,,,,,,,,,,,,,,
773878,001,2022-11-21_24h51.32.264,Info_measure_main_exp,2022.2.2,Win32,164.4736842,,,,,,,,,,,,,,,,,,,,,,,,,,,,,,5,2.73,1,,,,,,,,,,,,0,131,5,5,1986,2274,absent_patch/patch0001986.jpg,absent_patch/patch0002274.jpg,,,,,,,,,,,,,,,,,,,,0.090740741,-0.035185185,1,0,0,response3disk,5,0.007407407,0.003703704,1,0,0,center_square,0,4,4,7,1,,,,,,,,,,,,,,,,,,,,,,,
773878,001,2022-11-21_24h51.32.264,Info_measure_main_exp,2022.2.2,Win32,164.4736842,,,,,,,,,,,,,,,,,,masks/mask_001.jpg,,,,,,,,,,,,,,,,,,,,,,,,,,,,,,,,,,,,,,,,,,,0,0,0,0,1,,,,,,,,,,,,,,,,,,,,,,,,,,,,,,,,,,,,,,,,,,,,,,
773878,001,2022-11-21_24h51.32.264,Info_measure_main_exp,2022.2.2,Win32,164.4736842,,,,,,,,,,,,,,,,,,masks/mask_003.jpg,,,,,,,,,,,,,,,,,,,,,,,,,,,,,,,,,,,,,,,,,,,0,1,1,2,1,,,,,,,,,,,,,,,,,,,,,,,,,,,,,,,,,,,,,,,,,,,,,,
773878,001,2022-11-21_24h51.32.264,Info_measure_main_exp,2022.2.2,Win32,164.4736842,,,,,,,,,,,,,,,,,,masks/mask_004.jpg,,,,,,,,,,,,,,,,,,,,,,,,,,,,,,,,,,,,,,,,,,,0,2,2,3,1,,,,,,,,,,,,,,,,,,,,,,,,,,,,,,,,,,,,,,,,,,,,,,
773878,001,2022-11-21_24h51.32.264,Info_measure_main_exp,2022.2.2,Win32,164.4736842,,,,,,,,,,,,,,,,,,masks/mask_005.jpg,,,,,,,,,,,,,,,,,,,,,,,,,,,,,,,,,,,,,,,,,,,0,3,3,4,1,,,,,,,,,,,,,,,,,,,,,,,,,,,,,,,,,,,,,,,,,,,,,,
773878,001,2022-11-21_24h51.32.264,Info_measure_main_exp,2022.2.2,Win32,164.4736842,,,,,,,,,,,,,,,,,,masks/mask_002.jpg,,,,,,,,,,,,,,,,,,,,,,,,,,,,,,,,,,,,,,,,,,,0,4,4,1,1,,,,,,,,,,,,,,,,,,,,,,,,,,,,,,,,,,,,,,,,,,,,,,
773878,001,2022-11-21_24h51.32.264,Info_measure_main_exp,2022.2.2,Win32,164.4736842,,,,,,,,,,,,,,,,,,masks/mask_002.jpg,,,,,,,,,,,,,,,,,,,,,,,,,,,,,,,,,,,,,,,,,,,,,,,,0,0,0,1,1,,,,,,,,,,,,,,,,,,,,,,,,,,,,,,,,,,,,,,,,,
773878,001,2022-11-21_24h51.32.264,Info_measure_main_exp,2022.2.2,Win32,164.4736842,,,,,,,,,,,,,,,,,,masks/mask_001.jpg,,,,,,,,,,,,,,,,,,,,,,,,,,,,,,,,,,,,,,,,,,,,,,,,0,1,1,0,1,,,,,,,,,,,,,,,,,,,,,,,,,,,,,,,,,,,,,,,,,
773878,001,2022-11-21_24h51.32.264,Info_measure_main_exp,2022.2.2,Win32,164.4736842,,,,,,,,,,,,,,,,,,masks/mask_004.jpg,,,,,,,,,,,,,,,,,,,,,,,,,,,,,,,,,,,,,,,,,,,,,,,,0,2,2,3,1,,,,,,,,,,,,,,,,,,,,,,,,,,,,,,,,,,,,,,,,,
773878,001,2022-11-21_24h51.32.264,Info_measure_main_exp,2022.2.2,Win32,164.4736842,,,,,,,,,,,,,,,,,,masks/mask_005.jpg,,,,,,,,,,,,,,,,,,,,,,,,,,,,,,,,,,,,,,,,,,,,,,,,0,3,3,4,1,,,,,,,,,,,,,,,,,,,,,,,,,,,,,,,,,,,,,,,,,
773878,001,2022-11-21_24h51.32.264,Info_measure_main_exp,2022.2.2,Win32,164.4736842,,,,,,,,,,,,,,,,,,masks/mask_003.jpg,,,,,,,,,,,,,,,,,,,,,,,,,,,,,,,,,,,,,,,,,,,,,,,,0,4,4,2,1,,,,,,,,,,,,,,,,,,,,,,,,,,,,,,,,,,,,,,,,,
773878,001,2022-11-21_24h51.32.264,Info_measure_main_exp,2022.2.2,Win32,164.4736842,,,,,,,,,,,,,,,,,,,,,,,,,,,,,,7,0.6036,1,,,,,,,,,,,,0,131,5,5,1986,1950,absent_patch/patch0001986.jpg,absent_patch/patch0001950.jpg,,,,,,,,,,,,,,,,,,,,0.02037037,0.071296296,1,0,0,response1disk,6,0.007407407,-0.010185185,1,0,0,center_square,0,5,5,15,1,,,,,,,,,,,,,,,,,,,,,,,
773878,001,2022-11-21_24h51.32.264,Info_measure_main_exp,2022.2.2,Win32,164.4736842,,,,,,,,,,,,,,,,,,masks/mask_002.jpg,,,,,,,,,,,,,,,,,,,,,,,,,,,,,,,,,,,,,,,,,,,0,0,0,1,1,,,,,,,,,,,,,,,,,,,,,,,,,,,,,,,,,,,,,,,,,,,,,,
773878,001,2022-11-21_24h51.32.264,Info_measure_main_exp,2022.2.2,Win32,164.4736842,,,,,,,,,,,,,,,,,,masks/mask_001.jpg,,,,,,,,,,,,,,,,,,,,,,,,,,,,,,,,,,,,,,,,,,,0,1,1,0,1,,,,,,,,,,,,,,,,,,,,,,,,,,,,,,,,,,,,,,,,,,,,,,
773878,001,2022-11-21_24h51.32.264,Info_measure_main_exp,2022.2.2,Win32,164.4736842,,,,,,,,,,,,,,,,,,masks/mask_005.jpg,,,,,,,,,,,,,,,,,,,,,,,,,,,,,,,,,,,,,,,,,,,0,2,2,4,1,,,,,,,,,,,,,,,,,,,,,,,,,,,,,,,,,,,,,,,,,,,,,,
773878,001,2022-11-21_24h51.32.264,Info_measure_main_exp,2022.2.2,Win32,164.4736842,,,,,,,,,,,,,,,,,,masks/mask_004.jpg,,,,,,,,,,,,,,,,,,,,,,,,,,,,,,,,,,,,,,,,,,,0,3,3,3,1,,,,,,,,,,,,,,,,,,,,,,,,,,,,,,,,,,,,,,,,,,,,,,
773878,001,2022-11-21_24h51.32.264,Info_measure_main_exp,2022.2.2,Win32,164.4736842,,,,,,,,,,,,,,,,,,masks/mask_003.jpg,,,,,,,,,,,,,,,,,,,,,,,,,,,,,,,,,,,,,,,,,,,0,4,4,2,1,,,,,,,,,,,,,,,,,,,,,,,,,,,,,,,,,,,,,,,,,,,,,,
773878,001,2022-11-21_24h51.32.264,Info_measure_main_exp,2022.2.2,Win32,164.4736842,,,,,,,,,,,,,,,,,,masks/mask_005.jpg,,,,,,,,,,,,,,,,,,,,,,,,,,,,,,,,,,,,,,,,,,,,,,,,0,0,0,4,1,,,,,,,,,,,,,,,,,,,,,,,,,,,,,,,,,,,,,,,,,
773878,001,2022-11-21_24h51.32.264,Info_measure_main_exp,2022.2.2,Win32,164.4736842,,,,,,,,,,,,,,,,,,masks/mask_001.jpg,,,,,,,,,,,,,,,,,,,,,,,,,,,,,,,,,,,,,,,,,,,,,,,,0,1,1,0,1,,,,,,,,,,,,,,,,,,,,,,,,,,,,,,,,,,,,,,,,,
773878,001,2022-11-21_24h51.32.264,Info_measure_main_exp,2022.2.2,Win32,164.4736842,,,,,,,,,,,,,,,,,,masks/mask_003.jpg,,,,,,,,,,,,,,,,,,,,,,,,,,,,,,,,,,,,,,,,,,,,,,,,0,2,2,2,1,,,,,,,,,,,,,,,,,,,,,,,,,,,,,,,,,,,,,,,,,
773878,001,2022-11-21_24h51.32.264,Info_measure_main_exp,2022.2.2,Win32,164.4736842,,,,,,,,,,,,,,,,,,masks/mask_004.jpg,,,,,,,,,,,,,,,,,,,,,,,,,,,,,,,,,,,,,,,,,,,,,,,,0,3,3,3,1,,,,,,,,,,,,,,,,,,,,,,,,,,,,,,,,,,,,,,,,,
773878,001,2022-11-21_24h51.32.264,Info_measure_main_exp,2022.2.2,Win32,164.4736842,,,,,,,,,,,,,,,,,,masks/mask_002.jpg,,,,,,,,,,,,,,,,,,,,,,,,,,,,,,,,,,,,,,,,,,,,,,,,0,4,4,1,1,,,,,,,,,,,,,,,,,,,,,,,,,,,,,,,,,,,,,,,,,
773878,001,2022-11-21_24h51.32.264,Info_measure_main_exp,2022.2.2,Win32,164.4736842,,,,,,,,,,,,,,,,,,,,,,,,,,,,,,6,0.9862,1,,,,,,,,,,,,0,131,5,5,2250,2166,absent_patch/patch0002250.jpg,absent_patch/patch0002166.jpg,,,,,,,,,,,,,,,,,,,,0.037037037,0.019444444,1,0,0,response1disk,7,-0.012962963,-0.007407407,1,0,0,center_square,0,6,6,60,1,,,,,,,,,,,,,,,,,,,,,,,
773878,001,2022-11-21_24h51.32.264,Info_measure_main_exp,2022.2.2,Win32,164.4736842,,,,,,,,,,,,,,,,,,masks/mask_002.jpg,,,,,,,,,,,,,,,,,,,,,,,,,,,,,,,,,,,,,,,,,,,0,0,0,1,1,,,,,,,,,,,,,,,,,,,,,,,,,,,,,,,,,,,,,,,,,,,,,,
773878,001,2022-11-21_24h51.32.264,Info_measure_main_exp,2022.2.2,Win32,164.4736842,,,,,,,,,,,,,,,,,,masks/mask_004.jpg,,,,,,,,,,,,,,,,,,,,,,,,,,,,,,,,,,,,,,,,,,,0,1,1,3,1,,,,,,,,,,,,,,,,,,,,,,,,,,,,,,,,,,,,,,,,,,,,,,
773878,001,2022-11-21_24h51.32.264,Info_measure_main_exp,2022.2.2,Win32,164.4736842,,,,,,,,,,,,,,,,,,masks/mask_003.jpg,,,,,,,,,,,,,,,,,,,,,,,,,,,,,,,,,,,,,,,,,,,0,2,2,2,1,,,,,,,,,,,,,,,,,,,,,,,,,,,,,,,,,,,,,,,,,,,,,,
773878,001,2022-11-21_24h51.32.264,Info_measure_main_exp,2022.2.2,Win32,164.4736842,,,,,,,,,,,,,,,,,,masks/mask_001.jpg,,,,,,,,,,,,,,,,,,,,,,,,,,,,,,,,,,,,,,,,,,,0,3,3,0,1,,,,,,,,,,,,,,,,,,,,,,,,,,,,,,,,,,,,,,,,,,,,,,
773878,001,2022-11-21_24h51.32.264,Info_measure_main_exp,2022.2.2,Win32,164.4736842,,,,,,,,,,,,,,,,,,masks/mask_005.jpg,,,,,,,,,,,,,,,,,,,,,,,,,,,,,,,,,,,,,,,,,,,0,4,4,4,1,,,,,,,,,,,,,,,,,,,,,,,,,,,,,,,,,,,,,,,,,,,,,,
773878,001,2022-11-21_24h51.32.264,Info_measure_main_exp,2022.2.2,Win32,164.4736842,,,,,,,,,,,,,,,,,,masks/mask_003.jpg,,,,,,,,,,,,,,,,,,,,,,,,,,,,,,,,,,,,,,,,,,,,,,,,0,0,0,2,1,,,,,,,,,,,,,,,,,,,,,,,,,,,,,,,,,,,,,,,,,
773878,001,2022-11-21_24h51.32.264,Info_measure_main_exp,2022.2.2,Win32,164.4736842,,,,,,,,,,,,,,,,,,masks/mask_001.jpg,,,,,,,,,,,,,,,,,,,,,,,,,,,,,,,,,,,,,,,,,,,,,,,,0,1,1,0,1,,,,,,,,,,,,,,,,,,,,,,,,,,,,,,,,,,,,,,,,,
773878,001,2022-11-21_24h51.32.264,Info_measure_main_exp,2022.2.2,Win32,164.4736842,,,,,,,,,,,,,,,,,,masks/mask_004.jpg,,,,,,,,,,,,,,,,,,,,,,,,,,,,,,,,,,,,,,,,,,,,,,,,0,2,2,3,1,,,,,,,,,,,,,,,,,,,,,,,,,,,,,,,,,,,,,,,,,
773878,001,2022-11-21_24h51.32.264,Info_measure_main_exp,2022.2.2,Win32,164.4736842,,,,,,,,,,,,,,,,,,masks/mask_005.jpg,,,,,,,,,,,,,,,,,,,,,,,,,,,,,,,,,,,,,,,,,,,,,,,,0,3,3,4,1,,,,,,,,,,,,,,,,,,,,,,,,,,,,,,,,,,,,,,,,,
773878,001,2022-11-21_24h51.32.264,Info_measure_main_exp,2022.2.2,Win32,164.4736842,,,,,,,,,,,,,,,,,,masks/mask_002.jpg,,,,,,,,,,,,,,,,,,,,,,,,,,,,,,,,,,,,,,,,,,,,,,,,0,4,4,1,1,,,,,,,,,,,,,,,,,,,,,,,,,,,,,,,,,,,,,,,,,
773878,001,2022-11-21_24h51.32.264,Info_measure_main_exp,2022.2.2,Win32,164.4736842,,,,,,,,,,,,,,,,,,,,,,,,,,,,,,0,0.4491,1,,,,,,,,,,,,0,131,5,5,2154,2154,absent_patch/patch0002154.jpg,absent_patch/patch0002154.jpg,,,,,,,,,,,,,,,,,,,,-0.039814815,0.064814815,1,0,0,response7disk,8,0.002777778,-0.000925926,1,0,0,center_square,0,7,7,89,1,,,,,,,,,,,,,,,,,,,,,,,
773878,001,2022-11-21_24h51.32.264,Info_measure_main_exp,2022.2.2,Win32,164.4736842,,,,,,,,,,,,,,,,,,masks/mask_002.jpg,,,,,,,,,,,,,,,,,,,,,,,,,,,,,,,,,,,,,,,,,,,0,0,0,1,1,,,,,,,,,,,,,,,,,,,,,,,,,,,,,,,,,,,,,,,,,,,,,,
773878,001,2022-11-21_24h51.32.264,Info_measure_main_exp,2022.2.2,Win32,164.4736842,,,,,,,,,,,,,,,,,,masks/mask_003.jpg,,,,,,,,,,,,,,,,,,,,,,,,,,,,,,,,,,,,,,,,,,,0,1,1,2,1,,,,,,,,,,,,,,,,,,,,,,,,,,,,,,,,,,,,,,,,,,,,,,
773878,001,2022-11-21_24h51.32.264,Info_measure_main_exp,2022.2.2,Win32,164.4736842,,,,,,,,,,,,,,,,,,masks/mask_004.jpg,,,,,,,,,,,,,,,,,,,,,,,,,,,,,,,,,,,,,,,,,,,0,2,2,3,1,,,,,,,,,,,,,,,,,,,,,,,,,,,,,,,,,,,,,,,,,,,,,,
773878,001,2022-11-21_24h51.32.264,Info_measure_main_exp,2022.2.2,Win32,164.4736842,,,,,,,,,,,,,,,,,,masks/mask_001.jpg,,,,,,,,,,,,,,,,,,,,,,,,,,,,,,,,,,,,,,,,,,,0,3,3,0,1,,,,,,,,,,,,,,,,,,,,,,,,,,,,,,,,,,,,,,,,,,,,,,
773878,001,2022-11-21_24h51.32.264,Info_measure_main_exp,2022.2.2,Win32,164.4736842,,,,,,,,,,,,,,,,,,masks/mask_005.jpg,,,,,,,,,,,,,,,,,,,,,,,,,,,,,,,,,,,,,,,,,,,0,4,4,4,1,,,,,,,,,,,,,,,,,,,,,,,,,,,,,,,,,,,,,,,,,,,,,,
773878,001,2022-11-21_24h51.32.264,Info_measure_main_exp,2022.2.2,Win32,164.4736842,,,,,,,,,,,,,,,,,,masks/mask_001.jpg,,,,,,,,,,,,,,,,,,,,,,,,,,,,,,,,,,,,,,,,,,,,,,,,0,0,0,0,1,,,,,,,,,,,,,,,,,,,,,,,,,,,,,,,,,,,,,,,,,
773878,001,2022-11-21_24h51.32.264,Info_measure_main_exp,2022.2.2,Win32,164.4736842,,,,,,,,,,,,,,,,,,masks/mask_004.jpg,,,,,,,,,,,,,,,,,,,,,,,,,,,,,,,,,,,,,,,,,,,,,,,,0,1,1,3,1,,,,,,,,,,,,,,,,,,,,,,,,,,,,,,,,,,,,,,,,,
773878,001,2022-11-21_24h51.32.264,Info_measure_main_exp,2022.2.2,Win32,164.4736842,,,,,,,,,,,,,,,,,,masks/mask_005.jpg,,,,,,,,,,,,,,,,,,,,,,,,,,,,,,,,,,,,,,,,,,,,,,,,0,2,2,4,1,,,,,,,,,,,,,,,,,,,,,,,,,,,,,,,,,,,,,,,,,
773878,001,2022-11-21_24h51.32.264,Info_measure_main_exp,2022.2.2,Win32,164.4736842,,,,,,,,,,,,,,,,,,masks/mask_002.jpg,,,,,,,,,,,,,,,,,,,,,,,,,,,,,,,,,,,,,,,,,,,,,,,,0,3,3,1,1,,,,,,,,,,,,,,,,,,,,,,,,,,,,,,,,,,,,,,,,,
773878,001,2022-11-21_24h51.32.264,Info_measure_main_exp,2022.2.2,Win32,164.4736842,,,,,,,,,,,,,,,,,,masks/mask_003.jpg,,,,,,,,,,,,,,,,,,,,,,,,,,,,,,,,,,,,,,,,,,,,,,,,0,4,4,2,1,,,,,,,,,,,,,,,,,,,,,,,,,,,,,,,,,,,,,,,,,
773878,001,2022-11-21_24h51.32.264,Info_measure_main_exp,2022.2.2,Win32,164.4736842,,,,,,,,,,,,,,,,,,,,,,,,,,,,,,7,0.8738,1,,,,,,,,,,,,0,131,5,5,2178,2154,absent_patch/patch0002178.jpg,absent_patch/patch0002154.jpg,,,,,,,,,,,,,,,,,,,,0.012037037,0.055555556,1,0,0,response1disk,9,0.002777778,0.010185185,1,0,0,center_square,0,8,8,63,1,,,,,,,,,,,,,,,,,,,,,,,
773878,001,2022-11-21_24h51.32.264,Info_measure_main_exp,2022.2.2,Win32,164.4736842,,,,,,,,,,,,,,,,,,masks/mask_002.jpg,,,,,,,,,,,,,,,,,,,,,,,,,,,,,,,,,,,,,,,,,,,0,0,0,1,1,,,,,,,,,,,,,,,,,,,,,,,,,,,,,,,,,,,,,,,,,,,,,,
773878,001,2022-11-21_24h51.32.264,Info_measure_main_exp,2022.2.2,Win32,164.4736842,,,,,,,,,,,,,,,,,,masks/mask_003.jpg,,,,,,,,,,,,,,,,,,,,,,,,,,,,,,,,,,,,,,,,,,,0,1,1,2,1,,,,,,,,,,,,,,,,,,,,,,,,,,,,,,,,,,,,,,,,,,,,,,
773878,001,2022-11-21_24h51.32.264,Info_measure_main_exp,2022.2.2,Win32,164.4736842,,,,,,,,,,,,,,,,,,masks/mask_005.jpg,,,,,,,,,,,,,,,,,,,,,,,,,,,,,,,,,,,,,,,,,,,0,2,2,4,1,,,,,,,,,,,,,,,,,,,,,,,,,,,,,,,,,,,,,,,,,,,,,,
773878,001,2022-11-21_24h51.32.264,Info_measure_main_exp,2022.2.2,Win32,164.4736842,,,,,,,,,,,,,,,,,,masks/mask_001.jpg,,,,,,,,,,,,,,,,,,,,,,,,,,,,,,,,,,,,,,,,,,,0,3,3,0,1,,,,,,,,,,,,,,,,,,,,,,,,,,,,,,,,,,,,,,,,,,,,,,
773878,001,2022-11-21_24h51.32.264,Info_measure_main_exp,2022.2.2,Win32,164.4736842,,,,,,,,,,,,,,,,,,masks/mask_004.jpg,,,,,,,,,,,,,,,,,,,,,,,,,,,,,,,,,,,,,,,,,,,0,4,4,3,1,,,,,,,,,,,,,,,,,,,,,,,,,,,,,,,,,,,,,,,,,,,,,,
773878,001,2022-11-21_24h51.32.264,Info_measure_main_exp,2022.2.2,Win32,164.4736842,,,,,,,,,,,,,,,,,,masks/mask_003.jpg,,,,,,,,,,,,,,,,,,,,,,,,,,,,,,,,,,,,,,,,,,,,,,,,0,0,0,2,1,,,,,,,,,,,,,,,,,,,,,,,,,,,,,,,,,,,,,,,,,
773878,001,2022-11-21_24h51.32.264,Info_measure_main_exp,2022.2.2,Win32,164.4736842,,,,,,,,,,,,,,,,,,masks/mask_005.jpg,,,,,,,,,,,,,,,,,,,,,,,,,,,,,,,,,,,,,,,,,,,,,,,,0,1,1,4,1,,,,,,,,,,,,,,,,,,,,,,,,,,,,,,,,,,,,,,,,,
773878,001,2022-11-21_24h51.32.264,Info_measure_main_exp,2022.2.2,Win32,164.4736842,,,,,,,,,,,,,,,,,,masks/mask_002.jpg,,,,,,,,,,,,,,,,,,,,,,,,,,,,,,,,,,,,,,,,,,,,,,,,0,2,2,1,1,,,,,,,,,,,,,,,,,,,,,,,,,,,,,,,,,,,,,,,,,
773878,001,2022-11-21_24h51.32.264,Info_measure_main_exp,2022.2.2,Win32,164.4736842,,,,,,,,,,,,,,,,,,masks/mask_001.jpg,,,,,,,,,,,,,,,,,,,,,,,,,,,,,,,,,,,,,,,,,,,,,,,,0,3,3,0,1,,,,,,,,,,,,,,,,,,,,,,,,,,,,,,,,,,,,,,,,,
773878,001,2022-11-21_24h51.32.264,Info_measure_main_exp,2022.2.2,Win32,164.4736842,,,,,,,,,,,,,,,,,,masks/mask_004.jpg,,,,,,,,,,,,,,,,,,,,,,,,,,,,,,,,,,,,,,,,,,,,,,,,0,4,4,3,1,,,,,,,,,,,,,,,,,,,,,,,,,,,,,,,,,,,,,,,,,
773878,001,2022-11-21_24h51.32.264,Info_measure_main_exp,2022.2.2,Win32,164.4736842,,,,,,,,,,,,,,,,,,,,,,,,,,,,,,6,1.3376,1,,,,,,,,,,,,0,131,5,5,2178,2238,absent_patch/patch0002178.jpg,absent_patch/patch0002238.jpg,,,,,,,,,,,,,,,,,,,,0.035185185,0.010185185,1,0,0,response1disk,10,0.002777778,0.002777778,1,0,0,center_square,0,9,9,57,1,,,,,,,,,,,,,,,,,,,,,,,
773878,001,2022-11-21_24h51.32.264,Info_measure_main_exp,2022.2.2,Win32,164.4736842,,,,,,,,,,,,,,,,,,masks/mask_004.jpg,,,,,,,,,,,,,,,,,,,,,,,,,,,,,,,,,,,,,,,,,,,0,0,0,3,1,,,,,,,,,,,,,,,,,,,,,,,,,,,,,,,,,,,,,,,,,,,,,,
773878,001,2022-11-21_24h51.32.264,Info_measure_main_exp,2022.2.2,Win32,164.4736842,,,,,,,,,,,,,,,,,,masks/mask_003.jpg,,,,,,,,,,,,,,,,,,,,,,,,,,,,,,,,,,,,,,,,,,,0,1,1,2,1,,,,,,,,,,,,,,,,,,,,,,,,,,,,,,,,,,,,,,,,,,,,,,
773878,001,2022-11-21_24h51.32.264,Info_measure_main_exp,2022.2.2,Win32,164.4736842,,,,,,,,,,,,,,,,,,masks/mask_005.jpg,,,,,,,,,,,,,,,,,,,,,,,,,,,,,,,,,,,,,,,,,,,0,2,2,4,1,,,,,,,,,,,,,,,,,,,,,,,,,,,,,,,,,,,,,,,,,,,,,,
773878,001,2022-11-21_24h51.32.264,Info_measure_main_exp,2022.2.2,Win32,164.4736842,,,,,,,,,,,,,,,,,,masks/mask_001.jpg,,,,,,,,,,,,,,,,,,,,,,,,,,,,,,,,,,,,,,,,,,,0,3,3,0,1,,,,,,,,,,,,,,,,,,,,,,,,,,,,,,,,,,,,,,,,,,,,,,
773878,001,2022-11-21_24h51.32.264,Info_measure_main_exp,2022.2.2,Win32,164.4736842,,,,,,,,,,,,,,,,,,masks/mask_002.jpg,,,,,,,,,,,,,,,,,,,,,,,,,,,,,,,,,,,,,,,,,,,0,4,4,1,1,,,,,,,,,,,,,,,,,,,,,,,,,,,,,,,,,,,,,,,,,,,,,,
773878,001,2022-11-21_24h51.32.264,Info_measure_main_exp,2022.2.2,Win32,164.4736842,,,,,,,,,,,,,,,,,,masks/mask_004.jpg,,,,,,,,,,,,,,,,,,,,,,,,,,,,,,,,,,,,,,,,,,,,,,,,0,0,0,3,1,,,,,,,,,,,,,,,,,,,,,,,,,,,,,,,,,,,,,,,,,
773878,001,2022-11-21_24h51.32.264,Info_measure_main_exp,2022.2.2,Win32,164.4736842,,,,,,,,,,,,,,,,,,masks/mask_005.jpg,,,,,,,,,,,,,,,,,,,,,,,,,,,,,,,,,,,,,,,,,,,,,,,,0,1,1,4,1,,,,,,,,,,,,,,,,,,,,,,,,,,,,,,,,,,,,,,,,,
773878,001,2022-11-21_24h51.32.264,Info_measure_main_exp,2022.2.2,Win32,164.4736842,,,,,,,,,,,,,,,,,,masks/mask_002.jpg,,,,,,,,,,,,,,,,,,,,,,,,,,,,,,,,,,,,,,,,,,,,,,,,0,2,2,1,1,,,,,,,,,,,,,,,,,,,,,,,,,,,,,,,,,,,,,,,,,
773878,001,2022-11-21_24h51.32.264,Info_measure_main_exp,2022.2.2,Win32,164.4736842,,,,,,,,,,,,,,,,,,masks/mask_001.jpg,,,,,,,,,,,,,,,,,,,,,,,,,,,,,,,,,,,,,,,,,,,,,,,,0,3,3,0,1,,,,,,,,,,,,,,,,,,,,,,,,,,,,,,,,,,,,,,,,,
773878,001,2022-11-21_24h51.32.264,Info_measure_main_exp,2022.2.2,Win32,164.4736842,,,,,,,,,,,,,,,,,,masks/mask_003.jpg,,,,,,,,,,,,,,,,,,,,,,,,,,,,,,,,,,,,,,,,,,,,,,,,0,4,4,2,1,,,,,,,,,,,,,,,,,,,,,,,,,,,,,,,,,,,,,,,,,
773878,001,2022-11-21_24h51.32.264,Info_measure_main_exp,2022.2.2,Win32,164.4736842,,,,,,,,,,,,,,,,,,,,,,,,,,,,,,7,1.6808,1,,,,,,,,,,,,0,131,5,5,2154,2298,absent_patch/patch0002154.jpg,absent_patch/patch0002298.jpg,,,,,,,,,,,,,,,,,,,,0.011111111,0.041666667,1,0,0,response1disk,11,0.006481481,0.003703704,1,0,0,center_square,0,10,10,27,1,,,,,,,,,,,,,,,,,,,,,,,
773878,001,2022-11-21_24h51.32.264,Info_measure_main_exp,2022.2.2,Win32,164.4736842,,,,,,,,,,,,,,,,,,masks/mask_003.jpg,,,,,,,,,,,,,,,,,,,,,,,,,,,,,,,,,,,,,,,,,,,0,0,0,2,1,,,,,,,,,,,,,,,,,,,,,,,,,,,,,,,,,,,,,,,,,,,,,,
773878,001,2022-11-21_24h51.32.264,Info_measure_main_exp,2022.2.2,Win32,164.4736842,,,,,,,,,,,,,,,,,,masks/mask_002.jpg,,,,,,,,,,,,,,,,,,,,,,,,,,,,,,,,,,,,,,,,,,,0,1,1,1,1,,,,,,,,,,,,,,,,,,,,,,,,,,,,,,,,,,,,,,,,,,,,,,
773878,001,2022-11-21_24h51.32.264,Info_measure_main_exp,2022.2.2,Win32,164.4736842,,,,,,,,,,,,,,,,,,masks/mask_001.jpg,,,,,,,,,,,,,,,,,,,,,,,,,,,,,,,,,,,,,,,,,,,0,2,2,0,1,,,,,,,,,,,,,,,,,,,,,,,,,,,,,,,,,,,,,,,,,,,,,,
773878,001,2022-11-21_24h51.32.264,Info_measure_main_exp,2022.2.2,Win32,164.4736842,,,,,,,,,,,,,,,,,,masks/mask_005.jpg,,,,,,,,,,,,,,,,,,,,,,,,,,,,,,,,,,,,,,,,,,,0,3,3,4,1,,,,,,,,,,,,,,,,,,,,,,,,,,,,,,,,,,,,,,,,,,,,,,
773878,001,2022-11-21_24h51.32.264,Info_measure_main_exp,2022.2.2,Win32,164.4736842,,,,,,,,,,,,,,,,,,masks/mask_004.jpg,,,,,,,,,,,,,,,,,,,,,,,,,,,,,,,,,,,,,,,,,,,0,4,4,3,1,,,,,,,,,,,,,,,,,,,,,,,,,,,,,,,,,,,,,,,,,,,,,,
773878,001,2022-11-21_24h51.32.264,Info_measure_main_exp,2022.2.2,Win32,164.4736842,,,,,,,,,,,,,,,,,,masks/mask_003.jpg,,,,,,,,,,,,,,,,,,,,,,,,,,,,,,,,,,,,,,,,,,,,,,,,0,0,0,2,1,,,,,,,,,,,,,,,,,,,,,,,,,,,,,,,,,,,,,,,,,
773878,001,2022-11-21_24h51.32.264,Info_measure_main_exp,2022.2.2,Win32,164.4736842,,,,,,,,,,,,,,,,,,masks/mask_005.jpg,,,,,,,,,,,,,,,,,,,,,,,,,,,,,,,,,,,,,,,,,,,,,,,,0,1,1,4,1,,,,,,,,,,,,,,,,,,,,,,,,,,,,,,,,,,,,,,,,,
773878,001,2022-11-21_24h51.32.264,Info_measure_main_exp,2022.2.2,Win32,164.4736842,,,,,,,,,,,,,,,,,,masks/mask_001.jpg,,,,,,,,,,,,,,,,,,,,,,,,,,,,,,,,,,,,,,,,,,,,,,,,0,2,2,0,1,,,,,,,,,,,,,,,,,,,,,,,,,,,,,,,,,,,,,,,,,
773878,001,2022-11-21_24h51.32.264,Info_measure_main_exp,2022.2.2,Win32,164.4736842,,,,,,,,,,,,,,,,,,masks/mask_002.jpg,,,,,,,,,,,,,,,,,,,,,,,,,,,,,,,,,,,,,,,,,,,,,,,,0,3,3,1,1,,,,,,,,,,,,,,,,,,,,,,,,,,,,,,,,,,,,,,,,,
773878,001,2022-11-21_24h51.32.264,Info_measure_main_exp,2022.2.2,Win32,164.4736842,,,,,,,,,,,,,,,,,,masks/mask_004.jpg,,,,,,,,,,,,,,,,,,,,,,,,,,,,,,,,,,,,,,,,,,,,,,,,0,4,4,3,1,,,,,,,,,,,,,,,,,,,,,,,,,,,,,,,,,,,,,,,,,
773878,001,2022-11-21_24h51.32.264,Info_measure_main_exp,2022.2.2,Win32,164.4736842,,,,,,,,,,,,,,,,,,,,,,,,,,,,,,7,0.5522,1,,,,,,,,,,,,0,131,5,5,2250,2238,absent_patch/patch0002250.jpg,absent_patch/patch0002238.jpg,,,,,,,,,,,,,,,,,,,,0.008333333,0.031481481,1,0,0,response1disk,12,0.005555556,0.002777778,1,0,0,center_square,0,11,11,110,1,,,,,,,,,,,,,,,,,,,,,,,
773878,001,2022-11-21_24h51.32.264,Info_measure_main_exp,2022.2.2,Win32,164.4736842,,,,,,,,,,,,,,,,,,masks/mask_005.jpg,,,,,,,,,,,,,,,,,,,,,,,,,,,,,,,,,,,,,,,,,,,0,0,0,4,1,,,,,,,,,,,,,,,,,,,,,,,,,,,,,,,,,,,,,,,,,,,,,,
773878,001,2022-11-21_24h51.32.264,Info_measure_main_exp,2022.2.2,Win32,164.4736842,,,,,,,,,,,,,,,,,,masks/mask_004.jpg,,,,,,,,,,,,,,,,,,,,,,,,,,,,,,,,,,,,,,,,,,,0,1,1,3,1,,,,,,,,,,,,,,,,,,,,,,,,,,,,,,,,,,,,,,,,,,,,,,
773878,001,2022-11-21_24h51.32.264,Info_measure_main_exp,2022.2.2,Win32,164.4736842,,,,,,,,,,,,,,,,,,masks/mask_001.jpg,,,,,,,,,,,,,,,,,,,,,,,,,,,,,,,,,,,,,,,,,,,0,2,2,0,1,,,,,,,,,,,,,,,,,,,,,,,,,,,,,,,,,,,,,,,,,,,,,,
773878,001,2022-11-21_24h51.32.264,Info_measure_main_exp,2022.2.2,Win32,164.4736842,,,,,,,,,,,,,,,,,,masks/mask_003.jpg,,,,,,,,,,,,,,,,,,,,,,,,,,,,,,,,,,,,,,,,,,,0,3,3,2,1,,,,,,,,,,,,,,,,,,,,,,,,,,,,,,,,,,,,,,,,,,,,,,
773878,001,2022-11-21_24h51.32.264,Info_measure_main_exp,2022.2.2,Win32,164.4736842,,,,,,,,,,,,,,,,,,masks/mask_002.jpg,,,,,,,,,,,,,,,,,,,,,,,,,,,,,,,,,,,,,,,,,,,0,4,4,1,1,,,,,,,,,,,,,,,,,,,,,,,,,,,,,,,,,,,,,,,,,,,,,,
773878,001,2022-11-21_24h51.32.264,Info_measure_main_exp,2022.2.2,Win32,164.4736842,,,,,,,,,,,,,,,,,,masks/mask_003.jpg,,,,,,,,,,,,,,,,,,,,,,,,,,,,,,,,,,,,,,,,,,,,,,,,0,0,0,2,1,,,,,,,,,,,,,,,,,,,,,,,,,,,,,,,,,,,,,,,,,
773878,001,2022-11-21_24h51.32.264,Info_measure_main_exp,2022.2.2,Win32,164.4736842,,,,,,,,,,,,,,,,,,masks/mask_005.jpg,,,,,,,,,,,,,,,,,,,,,,,,,,,,,,,,,,,,,,,,,,,,,,,,0,1,1,4,1,,,,,,,,,,,,,,,,,,,,,,,,,,,,,,,,,,,,,,,,,
773878,001,2022-11-21_24h51.32.264,Info_measure_main_exp,2022.2.2,Win32,164.4736842,,,,,,,,,,,,,,,,,,masks/mask_001.jpg,,,,,,,,,,,,,,,,,,,,,,,,,,,,,,,,,,,,,,,,,,,,,,,,0,2,2,0,1,,,,,,,,,,,,,,,,,,,,,,,,,,,,,,,,,,,,,,,,,
773878,001,2022-11-21_24h51.32.264,Info_measure_main_exp,2022.2.2,Win32,164.4736842,,,,,,,,,,,,,,,,,,masks/mask_002.jpg,,,,,,,,,,,,,,,,,,,,,,,,,,,,,,,,,,,,,,,,,,,,,,,,0,3,3,1,1,,,,,,,,,,,,,,,,,,,,,,,,,,,,,,,,,,,,,,,,,
773878,001,2022-11-21_24h51.32.264,Info_measure_main_exp,2022.2.2,Win32,164.4736842,,,,,,,,,,,,,,,,,,masks/mask_004.jpg,,,,,,,,,,,,,,,,,,,,,,,,,,,,,,,,,,,,,,,,,,,,,,,,0,4,4,3,1,,,,,,,,,,,,,,,,,,,,,,,,,,,,,,,,,,,,,,,,,
773878,001,2022-11-21_24h51.32.264,Info_measure_main_exp,2022.2.2,Win32,164.4736842,,,,,,,,,,,,,,,,,,,,,,,,,,,,,,4,0.7977,1,,,,,,,,,,,,0,131,5,5,2298,2190,absent_patch/patch0002298.jpg,absent_patch/patch0002190.jpg,,,,,,,,,,,,,,,,,,,,0.019444444,-0.062037037,1,0,0,response3disk,13,0.00462963,-0.000925926,1,0,0,center_square,0,12,12,20,1,,,,,,,,,,,,,,,,,,,,,,,
773878,001,2022-11-21_24h51.32.264,Info_measure_main_exp,2022.2.2,Win32,164.4736842,,,,,,,,,,,,,,,,,,masks/mask_002.jpg,,,,,,,,,,,,,,,,,,,,,,,,,,,,,,,,,,,,,,,,,,,0,0,0,1,1,,,,,,,,,,,,,,,,,,,,,,,,,,,,,,,,,,,,,,,,,,,,,,
773878,001,2022-11-21_24h51.32.264,Info_measure_main_exp,2022.2.2,Win32,164.4736842,,,,,,,,,,,,,,,,,,masks/mask_004.jpg,,,,,,,,,,,,,,,,,,,,,,,,,,,,,,,,,,,,,,,,,,,0,1,1,3,1,,,,,,,,,,,,,,,,,,,,,,,,,,,,,,,,,,,,,,,,,,,,,,
773878,001,2022-11-21_24h51.32.264,Info_measure_main_exp,2022.2.2,Win32,164.4736842,,,,,,,,,,,,,,,,,,masks/mask_001.jpg,,,,,,,,,,,,,,,,,,,,,,,,,,,,,,,,,,,,,,,,,,,0,2,2,0,1,,,,,,,,,,,,,,,,,,,,,,,,,,,,,,,,,,,,,,,,,,,,,,
773878,001,2022-11-21_24h51.32.264,Info_measure_main_exp,2022.2.2,Win32,164.4736842,,,,,,,,,,,,,,,,,,masks/mask_005.jpg,,,,,,,,,,,,,,,,,,,,,,,,,,,,,,,,,,,,,,,,,,,0,3,3,4,1,,,,,,,,,,,,,,,,,,,,,,,,,,,,,,,,,,,,,,,,,,,,,,
773878,001,2022-11-21_24h51.32.264,Info_measure_main_exp,2022.2.2,Win32,164.4736842,,,,,,,,,,,,,,,,,,masks/mask_003.jpg,,,,,,,,,,,,,,,,,,,,,,,,,,,,,,,,,,,,,,,,,,,0,4,4,2,1,,,,,,,,,,,,,,,,,,,,,,,,,,,,,,,,,,,,,,,,,,,,,,
773878,001,2022-11-21_24h51.32.264,Info_measure_main_exp,2022.2.2,Win32,164.4736842,,,,,,,,,,,,,,,,,,masks/mask_003.jpg,,,,,,,,,,,,,,,,,,,,,,,,,,,,,,,,,,,,,,,,,,,,,,,,0,0,0,2,1,,,,,,,,,,,,,,,,,,,,,,,,,,,,,,,,,,,,,,,,,
773878,001,2022-11-21_24h51.32.264,Info_measure_main_exp,2022.2.2,Win32,164.4736842,,,,,,,,,,,,,,,,,,masks/mask_004.jpg,,,,,,,,,,,,,,,,,,,,,,,,,,,,,,,,,,,,,,,,,,,,,,,,0,1,1,3,1,,,,,,,,,,,,,,,,,,,,,,,,,,,,,,,,,,,,,,,,,
773878,001,2022-11-21_24h51.32.264,Info_measure_main_exp,2022.2.2,Win32,164.4736842,,,,,,,,,,,,,,,,,,masks/mask_005.jpg,,,,,,,,,,,,,,,,,,,,,,,,,,,,,,,,,,,,,,,,,,,,,,,,0,2,2,4,1,,,,,,,,,,,,,,,,,,,,,,,,,,,,,,,,,,,,,,,,,
773878,001,2022-11-21_24h51.32.264,Info_measure_main_exp,2022.2.2,Win32,164.4736842,,,,,,,,,,,,,,,,,,masks/mask_001.jpg,,,,,,,,,,,,,,,,,,,,,,,,,,,,,,,,,,,,,,,,,,,,,,,,0,3,3,0,1,,,,,,,,,,,,,,,,,,,,,,,,,,,,,,,,,,,,,,,,,
773878,001,2022-11-21_24h51.32.264,Info_measure_main_exp,2022.2.2,Win32,164.4736842,,,,,,,,,,,,,,,,,,masks/mask_002.jpg,,,,,,,,,,,,,,,,,,,,,,,,,,,,,,,,,,,,,,,,,,,,,,,,0,4,4,1,1,,,,,,,,,,,,,,,,,,,,,,,,,,,,,,,,,,,,,,,,,
773878,001,2022-11-21_24h51.32.264,Info_measure_main_exp,2022.2.2,Win32,164.4736842,,,,,,,,,,,,,,,,,,,,,,,,,,,,,,5,3.3126,1,,,,,,,,,,,,0,131,5,5,2190,2214,absent_patch/patch0002190.jpg,absent_patch/patch0002214.jpg,,,,,,,,,,,,,,,,,,,,0.05,-0.031481481,1,0,0,response3disk,14,-0.012037037,0.001851852,1,0,0,center_square,0,13,13,35,1,,,,,,,,,,,,,,,,,,,,,,,
773878,001,2022-11-21_24h51.32.264,Info_measure_main_exp,2022.2.2,Win32,164.4736842,,,,,,,,,,,,,,,,,,masks/mask_001.jpg,,,,,,,,,,,,,,,,,,,,,,,,,,,,,,,,,,,,,,,,,,,0,0,0,0,1,,,,,,,,,,,,,,,,,,,,,,,,,,,,,,,,,,,,,,,,,,,,,,
773878,001,2022-11-21_24h51.32.264,Info_measure_main_exp,2022.2.2,Win32,164.4736842,,,,,,,,,,,,,,,,,,masks/mask_003.jpg,,,,,,,,,,,,,,,,,,,,,,,,,,,,,,,,,,,,,,,,,,,0,1,1,2,1,,,,,,,,,,,,,,,,,,,,,,,,,,,,,,,,,,,,,,,,,,,,,,
773878,001,2022-11-21_24h51.32.264,Info_measure_main_exp,2022.2.2,Win32,164.4736842,,,,,,,,,,,,,,,,,,masks/mask_004.jpg,,,,,,,,,,,,,,,,,,,,,,,,,,,,,,,,,,,,,,,,,,,0,2,2,3,1,,,,,,,,,,,,,,,,,,,,,,,,,,,,,,,,,,,,,,,,,,,,,,
773878,001,2022-11-21_24h51.32.264,Info_measure_main_exp,2022.2.2,Win32,164.4736842,,,,,,,,,,,,,,,,,,masks/mask_002.jpg,,,,,,,,,,,,,,,,,,,,,,,,,,,,,,,,,,,,,,,,,,,0,3,3,1,1,,,,,,,,,,,,,,,,,,,,,,,,,,,,,,,,,,,,,,,,,,,,,,
773878,001,2022-11-21_24h51.32.264,Info_measure_main_exp,2022.2.2,Win32,164.4736842,,,,,,,,,,,,,,,,,,masks/mask_005.jpg,,,,,,,,,,,,,,,,,,,,,,,,,,,,,,,,,,,,,,,,,,,0,4,4,4,1,,,,,,,,,,,,,,,,,,,,,,,,,,,,,,,,,,,,,,,,,,,,,,
773878,001,2022-11-21_24h51.32.264,Info_measure_main_exp,2022.2.2,Win32,164.4736842,,,,,,,,,,,,,,,,,,masks/mask_002.jpg,,,,,,,,,,,,,,,,,,,,,,,,,,,,,,,,,,,,,,,,,,,,,,,,0,0,0,1,1,,,,,,,,,,,,,,,,,,,,,,,,,,,,,,,,,,,,,,,,,
773878,001,2022-11-21_24h51.32.264,Info_measure_main_exp,2022.2.2,Win32,164.4736842,,,,,,,,,,,,,,,,,,masks/mask_003.jpg,,,,,,,,,,,,,,,,,,,,,,,,,,,,,,,,,,,,,,,,,,,,,,,,0,1,1,2,1,,,,,,,,,,,,,,,,,,,,,,,,,,,,,,,,,,,,,,,,,
773878,001,2022-11-21_24h51.32.264,Info_measure_main_exp,2022.2.2,Win32,164.4736842,,,,,,,,,,,,,,,,,,masks/mask_004.jpg,,,,,,,,,,,,,,,,,,,,,,,,,,,,,,,,,,,,,,,,,,,,,,,,0,2,2,3,1,,,,,,,,,,,,,,,,,,,,,,,,,,,,,,,,,,,,,,,,,
773878,001,2022-11-21_24h51.32.264,Info_measure_main_exp,2022.2.2,Win32,164.4736842,,,,,,,,,,,,,,,,,,masks/mask_005.jpg,,,,,,,,,,,,,,,,,,,,,,,,,,,,,,,,,,,,,,,,,,,,,,,,0,3,3,4,1,,,,,,,,,,,,,,,,,,,,,,,,,,,,,,,,,,,,,,,,,
773878,001,2022-11-21_24h51.32.264,Info_measure_main_exp,2022.2.2,Win32,164.4736842,,,,,,,,,,,,,,,,,,masks/mask_001.jpg,,,,,,,,,,,,,,,,,,,,,,,,,,,,,,,,,,,,,,,,,,,,,,,,0,4,4,0,1,,,,,,,,,,,,,,,,,,,,,,,,,,,,,,,,,,,,,,,,,
773878,001,2022-11-21_24h51.32.264,Info_measure_main_exp,2022.2.2,Win32,164.4736842,,,,,,,,,,,,,,,,,,,,,,,,,,,,,,0,1.6502,1,,,,,,,,,,,,0,131,5,5,1974,1974,absent_patch/patch0001974.jpg,absent_patch/patch0001974.jpg,,,,,,,,,,,,,,,,,,,,-0.04537037,0.103703704,1,0,0,response7disk,15,0.000925926,-0.000925926,1,0,0,center_square,0,14,14,113,1,,,,,,,,,,,,,,,,,,,,,,,
773878,001,2022-11-21_24h51.32.264,Info_measure_main_exp,2022.2.2,Win32,164.4736842,,,,,,,,,,,,,,,,,,masks/mask_002.jpg,,,,,,,,,,,,,,,,,,,,,,,,,,,,,,,,,,,,,,,,,,,0,0,0,1,1,,,,,,,,,,,,,,,,,,,,,,,,,,,,,,,,,,,,,,,,,,,,,,
773878,001,2022-11-21_24h51.32.264,Info_measure_main_exp,2022.2.2,Win32,164.4736842,,,,,,,,,,,,,,,,,,masks/mask_001.jpg,,,,,,,,,,,,,,,,,,,,,,,,,,,,,,,,,,,,,,,,,,,0,1,1,0,1,,,,,,,,,,,,,,,,,,,,,,,,,,,,,,,,,,,,,,,,,,,,,,
773878,001,2022-11-21_24h51.32.264,Info_measure_main_exp,2022.2.2,Win32,164.4736842,,,,,,,,,,,,,,,,,,masks/mask_004.jpg,,,,,,,,,,,,,,,,,,,,,,,,,,,,,,,,,,,,,,,,,,,0,2,2,3,1,,,,,,,,,,,,,,,,,,,,,,,,,,,,,,,,,,,,,,,,,,,,,,
773878,001,2022-11-21_24h51.32.264,Info_measure_main_exp,2022.2.2,Win32,164.4736842,,,,,,,,,,,,,,,,,,masks/mask_005.jpg,,,,,,,,,,,,,,,,,,,,,,,,,,,,,,,,,,,,,,,,,,,0,3,3,4,1,,,,,,,,,,,,,,,,,,,,,,,,,,,,,,,,,,,,,,,,,,,,,,
773878,001,2022-11-21_24h51.32.264,Info_measure_main_exp,2022.2.2,Win32,164.4736842,,,,,,,,,,,,,,,,,,masks/mask_003.jpg,,,,,,,,,,,,,,,,,,,,,,,,,,,,,,,,,,,,,,,,,,,0,4,4,2,1,,,,,,,,,,,,,,,,,,,,,,,,,,,,,,,,,,,,,,,,,,,,,,
773878,001,2022-11-21_24h51.32.264,Info_measure_main_exp,2022.2.2,Win32,164.4736842,,,,,,,,,,,,,,,,,,masks/mask_004.jpg,,,,,,,,,,,,,,,,,,,,,,,,,,,,,,,,,,,,,,,,,,,,,,,,0,0,0,3,1,,,,,,,,,,,,,,,,,,,,,,,,,,,,,,,,,,,,,,,,,
773878,001,2022-11-21_24h51.32.264,Info_measure_main_exp,2022.2.2,Win32,164.4736842,,,,,,,,,,,,,,,,,,masks/mask_002.jpg,,,,,,,,,,,,,,,,,,,,,,,,,,,,,,,,,,,,,,,,,,,,,,,,0,1,1,1,1,,,,,,,,,,,,,,,,,,,,,,,,,,,,,,,,,,,,,,,,,
773878,001,2022-11-21_24h51.32.264,Info_measure_main_exp,2022.2.2,Win32,164.4736842,,,,,,,,,,,,,,,,,,masks/mask_001.jpg,,,,,,,,,,,,,,,,,,,,,,,,,,,,,,,,,,,,,,,,,,,,,,,,0,2,2,0,1,,,,,,,,,,,,,,,,,,,,,,,,,,,,,,,,,,,,,,,,,
773878,001,2022-11-21_24h51.32.264,Info_measure_main_exp,2022.2.2,Win32,164.4736842,,,,,,,,,,,,,,,,,,masks/mask_003.jpg,,,,,,,,,,,,,,,,,,,,,,,,,,,,,,,,,,,,,,,,,,,,,,,,0,3,3,2,1,,,,,,,,,,,,,,,,,,,,,,,,,,,,,,,,,,,,,,,,,
773878,001,2022-11-21_24h51.32.264,Info_measure_main_exp,2022.2.2,Win32,164.4736842,,,,,,,,,,,,,,,,,,masks/mask_005.jpg,,,,,,,,,,,,,,,,,,,,,,,,,,,,,,,,,,,,,,,,,,,,,,,,0,4,4,4,1,,,,,,,,,,,,,,,,,,,,,,,,,,,,,,,,,,,,,,,,,
773878,001,2022-11-21_24h51.32.264,Info_measure_main_exp,2022.2.2,Win32,164.4736842,,,,,,,,,,,,,,,,,,,,,,,,,,,,,,0,0.4003,1,,,,,,,,,,,,0,131,5,5,2298,2298,absent_patch/patch0002298.jpg,absent_patch/patch0002298.jpg,,,,,,,,,,,,,,,,,,,,-0.043518519,0.075925926,1,0,0,response7disk,16,-0.001851852,0.005555556,1,0,0,center_square,0,15,15,37,1,,,,,,,,,,,,,,,,,,,,,,,
773878,001,2022-11-21_24h51.32.264,Info_measure_main_exp,2022.2.2,Win32,164.4736842,,,,,,,,,,,,,,,,,,masks/mask_005.jpg,,,,,,,,,,,,,,,,,,,,,,,,,,,,,,,,,,,,,,,,,,,0,0,0,4,1,,,,,,,,,,,,,,,,,,,,,,,,,,,,,,,,,,,,,,,,,,,,,,
773878,001,2022-11-21_24h51.32.264,Info_measure_main_exp,2022.2.2,Win32,164.4736842,,,,,,,,,,,,,,,,,,masks/mask_001.jpg,,,,,,,,,,,,,,,,,,,,,,,,,,,,,,,,,,,,,,,,,,,0,1,1,0,1,,,,,,,,,,,,,,,,,,,,,,,,,,,,,,,,,,,,,,,,,,,,,,
773878,001,2022-11-21_24h51.32.264,Info_measure_main_exp,2022.2.2,Win32,164.4736842,,,,,,,,,,,,,,,,,,masks/mask_004.jpg,,,,,,,,,,,,,,,,,,,,,,,,,,,,,,,,,,,,,,,,,,,0,2,2,3,1,,,,,,,,,,,,,,,,,,,,,,,,,,,,,,,,,,,,,,,,,,,,,,
773878,001,2022-11-21_24h51.32.264,Info_measure_main_exp,2022.2.2,Win32,164.4736842,,,,,,,,,,,,,,,,,,masks/mask_002.jpg,,,,,,,,,,,,,,,,,,,,,,,,,,,,,,,,,,,,,,,,,,,0,3,3,1,1,,,,,,,,,,,,,,,,,,,,,,,,,,,,,,,,,,,,,,,,,,,,,,
773878,001,2022-11-21_24h51.32.264,Info_measure_main_exp,2022.2.2,Win32,164.4736842,,,,,,,,,,,,,,,,,,masks/mask_003.jpg,,,,,,,,,,,,,,,,,,,,,,,,,,,,,,,,,,,,,,,,,,,0,4,4,2,1,,,,,,,,,,,,,,,,,,,,,,,,,,,,,,,,,,,,,,,,,,,,,,
773878,001,2022-11-21_24h51.32.264,Info_measure_main_exp,2022.2.2,Win32,164.4736842,,,,,,,,,,,,,,,,,,masks/mask_002.jpg,,,,,,,,,,,,,,,,,,,,,,,,,,,,,,,,,,,,,,,,,,,,,,,,0,0,0,1,1,,,,,,,,,,,,,,,,,,,,,,,,,,,,,,,,,,,,,,,,,
773878,001,2022-11-21_24h51.32.264,Info_measure_main_exp,2022.2.2,Win32,164.4736842,,,,,,,,,,,,,,,,,,masks/mask_003.jpg,,,,,,,,,,,,,,,,,,,,,,,,,,,,,,,,,,,,,,,,,,,,,,,,0,1,1,2,1,,,,,,,,,,,,,,,,,,,,,,,,,,,,,,,,,,,,,,,,,
773878,001,2022-11-21_24h51.32.264,Info_measure_main_exp,2022.2.2,Win32,164.4736842,,,,,,,,,,,,,,,,,,masks/mask_001.jpg,,,,,,,,,,,,,,,,,,,,,,,,,,,,,,,,,,,,,,,,,,,,,,,,0,2,2,0,1,,,,,,,,,,,,,,,,,,,,,,,,,,,,,,,,,,,,,,,,,
773878,001,2022-11-21_24h51.32.264,Info_measure_main_exp,2022.2.2,Win32,164.4736842,,,,,,,,,,,,,,,,,,masks/mask_004.jpg,,,,,,,,,,,,,,,,,,,,,,,,,,,,,,,,,,,,,,,,,,,,,,,,0,3,3,3,1,,,,,,,,,,,,,,,,,,,,,,,,,,,,,,,,,,,,,,,,,
773878,001,2022-11-21_24h51.32.264,Info_measure_main_exp,2022.2.2,Win32,164.4736842,,,,,,,,,,,,,,,,,,masks/mask_005.jpg,,,,,,,,,,,,,,,,,,,,,,,,,,,,,,,,,,,,,,,,,,,,,,,,0,4,4,4,1,,,,,,,,,,,,,,,,,,,,,,,,,,,,,,,,,,,,,,,,,
773878,001,2022-11-21_24h51.32.264,Info_measure_main_exp,2022.2.2,Win32,164.4736842,,,,,,,,,,,,,,,,,,,,,,,,,,,,,,7,0.8435,1,,,,,,,,,,,,0,131,5,5,2142,2154,absent_patch/patch0002142.jpg,absent_patch/patch0002154.jpg,,,,,,,,,,,,,,,,,,,,0.024074074,0.048148148,1,0,0,response1disk,17,0.001851852,-0.005555556,1,0,0,center_square,0,16,16,9,1,,,,,,,,,,,,,,,,,,,,,,,
773878,001,2022-11-21_24h51.32.264,Info_measure_main_exp,2022.2.2,Win32,164.4736842,,,,,,,,,,,,,,,,,,masks/mask_004.jpg,,,,,,,,,,,,,,,,,,,,,,,,,,,,,,,,,,,,,,,,,,,0,0,0,3,1,,,,,,,,,,,,,,,,,,,,,,,,,,,,,,,,,,,,,,,,,,,,,,
773878,001,2022-11-21_24h51.32.264,Info_measure_main_exp,2022.2.2,Win32,164.4736842,,,,,,,,,,,,,,,,,,masks/mask_005.jpg,,,,,,,,,,,,,,,,,,,,,,,,,,,,,,,,,,,,,,,,,,,0,1,1,4,1,,,,,,,,,,,,,,,,,,,,,,,,,,,,,,,,,,,,,,,,,,,,,,
773878,001,2022-11-21_24h51.32.264,Info_measure_main_exp,2022.2.2,Win32,164.4736842,,,,,,,,,,,,,,,,,,masks/mask_003.jpg,,,,,,,,,,,,,,,,,,,,,,,,,,,,,,,,,,,,,,,,,,,0,2,2,2,1,,,,,,,,,,,,,,,,,,,,,,,,,,,,,,,,,,,,,,,,,,,,,,
773878,001,2022-11-21_24h51.32.264,Info_measure_main_exp,2022.2.2,Win32,164.4736842,,,,,,,,,,,,,,,,,,masks/mask_001.jpg,,,,,,,,,,,,,,,,,,,,,,,,,,,,,,,,,,,,,,,,,,,0,3,3,0,1,,,,,,,,,,,,,,,,,,,,,,,,,,,,,,,,,,,,,,,,,,,,,,
773878,001,2022-11-21_24h51.32.264,Info_measure_main_exp,2022.2.2,Win32,164.4736842,,,,,,,,,,,,,,,,,,masks/mask_002.jpg,,,,,,,,,,,,,,,,,,,,,,,,,,,,,,,,,,,,,,,,,,,0,4,4,1,1,,,,,,,,,,,,,,,,,,,,,,,,,,,,,,,,,,,,,,,,,,,,,,
773878,001,2022-11-21_24h51.32.264,Info_measure_main_exp,2022.2.2,Win32,164.4736842,,,,,,,,,,,,,,,,,,masks/mask_005.jpg,,,,,,,,,,,,,,,,,,,,,,,,,,,,,,,,,,,,,,,,,,,,,,,,0,0,0,4,1,,,,,,,,,,,,,,,,,,,,,,,,,,,,,,,,,,,,,,,,,
773878,001,2022-11-21_24h51.32.264,Info_measure_main_exp,2022.2.2,Win32,164.4736842,,,,,,,,,,,,,,,,,,masks/mask_001.jpg,,,,,,,,,,,,,,,,,,,,,,,,,,,,,,,,,,,,,,,,,,,,,,,,0,1,1,0,1,,,,,,,,,,,,,,,,,,,,,,,,,,,,,,,,,,,,,,,,,
773878,001,2022-11-21_24h51.32.264,Info_measure_main_exp,2022.2.2,Win32,164.4736842,,,,,,,,,,,,,,,,,,masks/mask_004.jpg,,,,,,,,,,,,,,,,,,,,,,,,,,,,,,,,,,,,,,,,,,,,,,,,0,2,2,3,1,,,,,,,,,,,,,,,,,,,,,,,,,,,,,,,,,,,,,,,,,
773878,001,2022-11-21_24h51.32.264,Info_measure_main_exp,2022.2.2,Win32,164.4736842,,,,,,,,,,,,,,,,,,masks/mask_003.jpg,,,,,,,,,,,,,,,,,,,,,,,,,,,,,,,,,,,,,,,,,,,,,,,,0,3,3,2,1,,,,,,,,,,,,,,,,,,,,,,,,,,,,,,,,,,,,,,,,,
773878,001,2022-11-21_24h51.32.264,Info_measure_main_exp,2022.2.2,Win32,164.4736842,,,,,,,,,,,,,,,,,,masks/mask_002.jpg,,,,,,,,,,,,,,,,,,,,,,,,,,,,,,,,,,,,,,,,,,,,,,,,0,4,4,1,1,,,,,,,,,,,,,,,,,,,,,,,,,,,,,,,,,,,,,,,,,
773878,001,2022-11-21_24h51.32.264,Info_measure_main_exp,2022.2.2,Win32,164.4736842,,,,,,,,,,,,,,,,,,,,,,,,,,,,,,7,0.6825,1,,,,,,,,,,,,0,131,5,5,2190,2250,absent_patch/patch0002190.jpg,absent_patch/patch0002250.jpg,,,,,,,,,,,,,,,,,,,,0.027777778,0.062037037,1,0,0,response1disk,18,0.003703704,0.008333333,1,0,0,center_square,0,17,17,93,1,,,,,,,,,,,,,,,,,,,,,,,
773878,001,2022-11-21_24h51.32.264,Info_measure_main_exp,2022.2.2,Win32,164.4736842,,,,,,,,,,,,,,,,,,masks/mask_003.jpg,,,,,,,,,,,,,,,,,,,,,,,,,,,,,,,,,,,,,,,,,,,0,0,0,2,1,,,,,,,,,,,,,,,,,,,,,,,,,,,,,,,,,,,,,,,,,,,,,,
773878,001,2022-11-21_24h51.32.264,Info_measure_main_exp,2022.2.2,Win32,164.4736842,,,,,,,,,,,,,,,,,,masks/mask_001.jpg,,,,,,,,,,,,,,,,,,,,,,,,,,,,,,,,,,,,,,,,,,,0,1,1,0,1,,,,,,,,,,,,,,,,,,,,,,,,,,,,,,,,,,,,,,,,,,,,,,
773878,001,2022-11-21_24h51.32.264,Info_measure_main_exp,2022.2.2,Win32,164.4736842,,,,,,,,,,,,,,,,,,masks/mask_002.jpg,,,,,,,,,,,,,,,,,,,,,,,,,,,,,,,,,,,,,,,,,,,0,2,2,1,1,,,,,,,,,,,,,,,,,,,,,,,,,,,,,,,,,,,,,,,,,,,,,,
773878,001,2022-11-21_24h51.32.264,Info_measure_main_exp,2022.2.2,Win32,164.4736842,,,,,,,,,,,,,,,,,,masks/mask_005.jpg,,,,,,,,,,,,,,,,,,,,,,,,,,,,,,,,,,,,,,,,,,,0,3,3,4,1,,,,,,,,,,,,,,,,,,,,,,,,,,,,,,,,,,,,,,,,,,,,,,
773878,001,2022-11-21_24h51.32.264,Info_measure_main_exp,2022.2.2,Win32,164.4736842,,,,,,,,,,,,,,,,,,masks/mask_004.jpg,,,,,,,,,,,,,,,,,,,,,,,,,,,,,,,,,,,,,,,,,,,0,4,4,3,1,,,,,,,,,,,,,,,,,,,,,,,,,,,,,,,,,,,,,,,,,,,,,,
773878,001,2022-11-21_24h51.32.264,Info_measure_main_exp,2022.2.2,Win32,164.4736842,,,,,,,,,,,,,,,,,,masks/mask_003.jpg,,,,,,,,,,,,,,,,,,,,,,,,,,,,,,,,,,,,,,,,,,,,,,,,0,0,0,2,1,,,,,,,,,,,,,,,,,,,,,,,,,,,,,,,,,,,,,,,,,
773878,001,2022-11-21_24h51.32.264,Info_measure_main_exp,2022.2.2,Win32,164.4736842,,,,,,,,,,,,,,,,,,masks/mask_001.jpg,,,,,,,,,,,,,,,,,,,,,,,,,,,,,,,,,,,,,,,,,,,,,,,,0,1,1,0,1,,,,,,,,,,,,,,,,,,,,,,,,,,,,,,,,,,,,,,,,,
773878,001,2022-11-21_24h51.32.264,Info_measure_main_exp,2022.2.2,Win32,164.4736842,,,,,,,,,,,,,,,,,,masks/mask_004.jpg,,,,,,,,,,,,,,,,,,,,,,,,,,,,,,,,,,,,,,,,,,,,,,,,0,2,2,3,1,,,,,,,,,,,,,,,,,,,,,,,,,,,,,,,,,,,,,,,,,
773878,001,2022-11-21_24h51.32.264,Info_measure_main_exp,2022.2.2,Win32,164.4736842,,,,,,,,,,,,,,,,,,masks/mask_005.jpg,,,,,,,,,,,,,,,,,,,,,,,,,,,,,,,,,,,,,,,,,,,,,,,,0,3,3,4,1,,,,,,,,,,,,,,,,,,,,,,,,,,,,,,,,,,,,,,,,,
773878,001,2022-11-21_24h51.32.264,Info_measure_main_exp,2022.2.2,Win32,164.4736842,,,,,,,,,,,,,,,,,,masks/mask_002.jpg,,,,,,,,,,,,,,,,,,,,,,,,,,,,,,,,,,,,,,,,,,,,,,,,0,4,4,1,1,,,,,,,,,,,,,,,,,,,,,,,,,,,,,,,,,,,,,,,,,
773878,001,2022-11-21_24h51.32.264,Info_measure_main_exp,2022.2.2,Win32,164.4736842,,,,,,,,,,,,,,,,,,,,,,,,,,,,,,6,0.9255,1,,,,,,,,,,,,0,131,5,5,2274,2154,absent_patch/patch0002274.jpg,absent_patch/patch0002154.jpg,,,,,,,,,,,,,,,,,,,,0.04537037,0.016666667,1,0,0,response1disk,19,0,-0.003703704,1,0,0,center_square,0,18,18,23,1,,,,,,,,,,,,,,,,,,,,,,,
773878,001,2022-11-21_24h51.32.264,Info_measure_main_exp,2022.2.2,Win32,164.4736842,,,,,,,,,,,,,,,,,,masks/mask_002.jpg,,,,,,,,,,,,,,,,,,,,,,,,,,,,,,,,,,,,,,,,,,,0,0,0,1,1,,,,,,,,,,,,,,,,,,,,,,,,,,,,,,,,,,,,,,,,,,,,,,
773878,001,2022-11-21_24h51.32.264,Info_measure_main_exp,2022.2.2,Win32,164.4736842,,,,,,,,,,,,,,,,,,masks/mask_003.jpg,,,,,,,,,,,,,,,,,,,,,,,,,,,,,,,,,,,,,,,,,,,0,1,1,2,1,,,,,,,,,,,,,,,,,,,,,,,,,,,,,,,,,,,,,,,,,,,,,,
773878,001,2022-11-21_24h51.32.264,Info_measure_main_exp,2022.2.2,Win32,164.4736842,,,,,,,,,,,,,,,,,,masks/mask_001.jpg,,,,,,,,,,,,,,,,,,,,,,,,,,,,,,,,,,,,,,,,,,,0,2,2,0,1,,,,,,,,,,,,,,,,,,,,,,,,,,,,,,,,,,,,,,,,,,,,,,
773878,001,2022-11-21_24h51.32.264,Info_measure_main_exp,2022.2.2,Win32,164.4736842,,,,,,,,,,,,,,,,,,masks/mask_005.jpg,,,,,,,,,,,,,,,,,,,,,,,,,,,,,,,,,,,,,,,,,,,0,3,3,4,1,,,,,,,,,,,,,,,,,,,,,,,,,,,,,,,,,,,,,,,,,,,,,,
773878,001,2022-11-21_24h51.32.264,Info_measure_main_exp,2022.2.2,Win32,164.4736842,,,,,,,,,,,,,,,,,,masks/mask_004.jpg,,,,,,,,,,,,,,,,,,,,,,,,,,,,,,,,,,,,,,,,,,,0,4,4,3,1,,,,,,,,,,,,,,,,,,,,,,,,,,,,,,,,,,,,,,,,,,,,,,
773878,001,2022-11-21_24h51.32.264,Info_measure_main_exp,2022.2.2,Win32,164.4736842,,,,,,,,,,,,,,,,,,masks/mask_002.jpg,,,,,,,,,,,,,,,,,,,,,,,,,,,,,,,,,,,,,,,,,,,,,,,,0,0,0,1,1,,,,,,,,,,,,,,,,,,,,,,,,,,,,,,,,,,,,,,,,,
773878,001,2022-11-21_24h51.32.264,Info_measure_main_exp,2022.2.2,Win32,164.4736842,,,,,,,,,,,,,,,,,,masks/mask_005.jpg,,,,,,,,,,,,,,,,,,,,,,,,,,,,,,,,,,,,,,,,,,,,,,,,0,1,1,4,1,,,,,,,,,,,,,,,,,,,,,,,,,,,,,,,,,,,,,,,,,
773878,001,2022-11-21_24h51.32.264,Info_measure_main_exp,2022.2.2,Win32,164.4736842,,,,,,,,,,,,,,,,,,masks/mask_003.jpg,,,,,,,,,,,,,,,,,,,,,,,,,,,,,,,,,,,,,,,,,,,,,,,,0,2,2,2,1,,,,,,,,,,,,,,,,,,,,,,,,,,,,,,,,,,,,,,,,,
773878,001,2022-11-21_24h51.32.264,Info_measure_main_exp,2022.2.2,Win32,164.4736842,,,,,,,,,,,,,,,,,,masks/mask_004.jpg,,,,,,,,,,,,,,,,,,,,,,,,,,,,,,,,,,,,,,,,,,,,,,,,0,3,3,3,1,,,,,,,,,,,,,,,,,,,,,,,,,,,,,,,,,,,,,,,,,
773878,001,2022-11-21_24h51.32.264,Info_measure_main_exp,2022.2.2,Win32,164.4736842,,,,,,,,,,,,,,,,,,masks/mask_001.jpg,,,,,,,,,,,,,,,,,,,,,,,,,,,,,,,,,,,,,,,,,,,,,,,,0,4,4,0,1,,,,,,,,,,,,,,,,,,,,,,,,,,,,,,,,,,,,,,,,,
773878,001,2022-11-21_24h51.32.264,Info_measure_main_exp,2022.2.2,Win32,164.4736842,,,,,,,,,,,,,,,,,,,,,,,,,,,,,,0,0.4692,1,,,,,,,,,,,,0,131,5,5,1950,1950,absent_patch/patch0001950.jpg,absent_patch/patch0001950.jpg,,,,,,,,,,,,,,,,,,,,-0.036111111,0.064814815,1,0,0,response7disk,20,0.000925926,0,1,0,0,center_square,0,19,19,92,1,,,,,,,,,,,,,,,,,,,,,,,
773878,001,2022-11-21_24h51.32.264,Info_measure_main_exp,2022.2.2,Win32,164.4736842,,,,,,,,,,,,,,,,,,masks/mask_003.jpg,,,,,,,,,,,,,,,,,,,,,,,,,,,,,,,,,,,,,,,,,,,0,0,0,2,1,,,,,,,,,,,,,,,,,,,,,,,,,,,,,,,,,,,,,,,,,,,,,,
773878,001,2022-11-21_24h51.32.264,Info_measure_main_exp,2022.2.2,Win32,164.4736842,,,,,,,,,,,,,,,,,,masks/mask_004.jpg,,,,,,,,,,,,,,,,,,,,,,,,,,,,,,,,,,,,,,,,,,,0,1,1,3,1,,,,,,,,,,,,,,,,,,,,,,,,,,,,,,,,,,,,,,,,,,,,,,
773878,001,2022-11-21_24h51.32.264,Info_measure_main_exp,2022.2.2,Win32,164.4736842,,,,,,,,,,,,,,,,,,masks/mask_001.jpg,,,,,,,,,,,,,,,,,,,,,,,,,,,,,,,,,,,,,,,,,,,0,2,2,0,1,,,,,,,,,,,,,,,,,,,,,,,,,,,,,,,,,,,,,,,,,,,,,,
773878,001,2022-11-21_24h51.32.264,Info_measure_main_exp,2022.2.2,Win32,164.4736842,,,,,,,,,,,,,,,,,,masks/mask_005.jpg,,,,,,,,,,,,,,,,,,,,,,,,,,,,,,,,,,,,,,,,,,,0,3,3,4,1,,,,,,,,,,,,,,,,,,,,,,,,,,,,,,,,,,,,,,,,,,,,,,
773878,001,2022-11-21_24h51.32.264,Info_measure_main_exp,2022.2.2,Win32,164.4736842,,,,,,,,,,,,,,,,,,masks/mask_002.jpg,,,,,,,,,,,,,,,,,,,,,,,,,,,,,,,,,,,,,,,,,,,0,4,4,1,1,,,,,,,,,,,,,,,,,,,,,,,,,,,,,,,,,,,,,,,,,,,,,,
773878,001,2022-11-21_24h51.32.264,Info_measure_main_exp,2022.2.2,Win32,164.4736842,,,,,,,,,,,,,,,,,,masks/mask_005.jpg,,,,,,,,,,,,,,,,,,,,,,,,,,,,,,,,,,,,,,,,,,,,,,,,0,0,0,4,1,,,,,,,,,,,,,,,,,,,,,,,,,,,,,,,,,,,,,,,,,
773878,001,2022-11-21_24h51.32.264,Info_measure_main_exp,2022.2.2,Win32,164.4736842,,,,,,,,,,,,,,,,,,masks/mask_003.jpg,,,,,,,,,,,,,,,,,,,,,,,,,,,,,,,,,,,,,,,,,,,,,,,,0,1,1,2,1,,,,,,,,,,,,,,,,,,,,,,,,,,,,,,,,,,,,,,,,,
773878,001,2022-11-21_24h51.32.264,Info_measure_main_exp,2022.2.2,Win32,164.4736842,,,,,,,,,,,,,,,,,,masks/mask_001.jpg,,,,,,,,,,,,,,,,,,,,,,,,,,,,,,,,,,,,,,,,,,,,,,,,0,2,2,0,1,,,,,,,,,,,,,,,,,,,,,,,,,,,,,,,,,,,,,,,,,
773878,001,2022-11-21_24h51.32.264,Info_measure_main_exp,2022.2.2,Win32,164.4736842,,,,,,,,,,,,,,,,,,masks/mask_002.jpg,,,,,,,,,,,,,,,,,,,,,,,,,,,,,,,,,,,,,,,,,,,,,,,,0,3,3,1,1,,,,,,,,,,,,,,,,,,,,,,,,,,,,,,,,,,,,,,,,,
773878,001,2022-11-21_24h51.32.264,Info_measure_main_exp,2022.2.2,Win32,164.4736842,,,,,,,,,,,,,,,,,,masks/mask_004.jpg,,,,,,,,,,,,,,,,,,,,,,,,,,,,,,,,,,,,,,,,,,,,,,,,0,4,4,3,1,,,,,,,,,,,,,,,,,,,,,,,,,,,,,,,,,,,,,,,,,
773878,001,2022-11-21_24h51.32.264,Info_measure_main_exp,2022.2.2,Win32,164.4736842,,,,,,,,,,,,,,,,,,,,,,,,,,,,,,7,0.6007,1,,,,,,,,,,,,0,131,5,5,2154,2250,absent_patch/patch0002154.jpg,absent_patch/patch0002250.jpg,,,,,,,,,,,,,,,,,,,,0.015740741,0.049074074,1,0,0,response1disk,21,-0.002777778,-0.001851852,1,0,0,center_square,0,20,20,108,1,,,,,,,,,,,,,,,,,,,,,,,
773878,001,2022-11-21_24h51.32.264,Info_measure_main_exp,2022.2.2,Win32,164.4736842,,,,,,,,,,,,,,,,,,masks/mask_001.jpg,,,,,,,,,,,,,,,,,,,,,,,,,,,,,,,,,,,,,,,,,,,0,0,0,0,1,,,,,,,,,,,,,,,,,,,,,,,,,,,,,,,,,,,,,,,,,,,,,,
773878,001,2022-11-21_24h51.32.264,Info_measure_main_exp,2022.2.2,Win32,164.4736842,,,,,,,,,,,,,,,,,,masks/mask_004.jpg,,,,,,,,,,,,,,,,,,,,,,,,,,,,,,,,,,,,,,,,,,,0,1,1,3,1,,,,,,,,,,,,,,,,,,,,,,,,,,,,,,,,,,,,,,,,,,,,,,
773878,001,2022-11-21_24h51.32.264,Info_measure_main_exp,2022.2.2,Win32,164.4736842,,,,,,,,,,,,,,,,,,masks/mask_002.jpg,,,,,,,,,,,,,,,,,,,,,,,,,,,,,,,,,,,,,,,,,,,0,2,2,1,1,,,,,,,,,,,,,,,,,,,,,,,,,,,,,,,,,,,,,,,,,,,,,,
773878,001,2022-11-21_24h51.32.264,Info_measure_main_exp,2022.2.2,Win32,164.4736842,,,,,,,,,,,,,,,,,,masks/mask_003.jpg,,,,,,,,,,,,,,,,,,,,,,,,,,,,,,,,,,,,,,,,,,,0,3,3,2,1,,,,,,,,,,,,,,,,,,,,,,,,,,,,,,,,,,,,,,,,,,,,,,
773878,001,2022-11-21_24h51.32.264,Info_measure_main_exp,2022.2.2,Win32,164.4736842,,,,,,,,,,,,,,,,,,masks/mask_005.jpg,,,,,,,,,,,,,,,,,,,,,,,,,,,,,,,,,,,,,,,,,,,0,4,4,4,1,,,,,,,,,,,,,,,,,,,,,,,,,,,,,,,,,,,,,,,,,,,,,,
773878,001,2022-11-21_24h51.32.264,Info_measure_main_exp,2022.2.2,Win32,164.4736842,,,,,,,,,,,,,,,,,,masks/mask_004.jpg,,,,,,,,,,,,,,,,,,,,,,,,,,,,,,,,,,,,,,,,,,,,,,,,0,0,0,3,1,,,,,,,,,,,,,,,,,,,,,,,,,,,,,,,,,,,,,,,,,
773878,001,2022-11-21_24h51.32.264,Info_measure_main_exp,2022.2.2,Win32,164.4736842,,,,,,,,,,,,,,,,,,masks/mask_002.jpg,,,,,,,,,,,,,,,,,,,,,,,,,,,,,,,,,,,,,,,,,,,,,,,,0,1,1,1,1,,,,,,,,,,,,,,,,,,,,,,,,,,,,,,,,,,,,,,,,,
773878,001,2022-11-21_24h51.32.264,Info_measure_main_exp,2022.2.2,Win32,164.4736842,,,,,,,,,,,,,,,,,,masks/mask_001.jpg,,,,,,,,,,,,,,,,,,,,,,,,,,,,,,,,,,,,,,,,,,,,,,,,0,2,2,0,1,,,,,,,,,,,,,,,,,,,,,,,,,,,,,,,,,,,,,,,,,
773878,001,2022-11-21_24h51.32.264,Info_measure_main_exp,2022.2.2,Win32,164.4736842,,,,,,,,,,,,,,,,,,masks/mask_003.jpg,,,,,,,,,,,,,,,,,,,,,,,,,,,,,,,,,,,,,,,,,,,,,,,,0,3,3,2,1,,,,,,,,,,,,,,,,,,,,,,,,,,,,,,,,,,,,,,,,,
773878,001,2022-11-21_24h51.32.264,Info_measure_main_exp,2022.2.2,Win32,164.4736842,,,,,,,,,,,,,,,,,,masks/mask_005.jpg,,,,,,,,,,,,,,,,,,,,,,,,,,,,,,,,,,,,,,,,,,,,,,,,0,4,4,4,1,,,,,,,,,,,,,,,,,,,,,,,,,,,,,,,,,,,,,,,,,
773878,001,2022-11-21_24h51.32.264,Info_measure_main_exp,2022.2.2,Win32,164.4736842,,,,,,,,,,,,,,,,,,,,,,,,,,,,,,5,1.0332,1,,,,,,,,,,,,0,131,5,5,1950,2298,absent_patch/patch0001950.jpg,absent_patch/patch0002298.jpg,,,,,,,,,,,,,,,,,,,,0.048148148,-0.012962963,1,0,0,response3disk,22,-0.006481481,0.011111111,1,0,0,center_square,0,21,21,18,1,,,,,,,,,,,,,,,,,,,,,,,
773878,001,2022-11-21_24h51.32.264,Info_measure_main_exp,2022.2.2,Win32,164.4736842,,,,,,,,,,,,,,,,,,masks/mask_001.jpg,,,,,,,,,,,,,,,,,,,,,,,,,,,,,,,,,,,,,,,,,,,0,0,0,0,1,,,,,,,,,,,,,,,,,,,,,,,,,,,,,,,,,,,,,,,,,,,,,,
773878,001,2022-11-21_24h51.32.264,Info_measure_main_exp,2022.2.2,Win32,164.4736842,,,,,,,,,,,,,,,,,,masks/mask_004.jpg,,,,,,,,,,,,,,,,,,,,,,,,,,,,,,,,,,,,,,,,,,,0,1,1,3,1,,,,,,,,,,,,,,,,,,,,,,,,,,,,,,,,,,,,,,,,,,,,,,
773878,001,2022-11-21_24h51.32.264,Info_measure_main_exp,2022.2.2,Win32,164.4736842,,,,,,,,,,,,,,,,,,masks/mask_005.jpg,,,,,,,,,,,,,,,,,,,,,,,,,,,,,,,,,,,,,,,,,,,0,2,2,4,1,,,,,,,,,,,,,,,,,,,,,,,,,,,,,,,,,,,,,,,,,,,,,,
773878,001,2022-11-21_24h51.32.264,Info_measure_main_exp,2022.2.2,Win32,164.4736842,,,,,,,,,,,,,,,,,,masks/mask_002.jpg,,,,,,,,,,,,,,,,,,,,,,,,,,,,,,,,,,,,,,,,,,,0,3,3,1,1,,,,,,,,,,,,,,,,,,,,,,,,,,,,,,,,,,,,,,,,,,,,,,
773878,001,2022-11-21_24h51.32.264,Info_measure_main_exp,2022.2.2,Win32,164.4736842,,,,,,,,,,,,,,,,,,masks/mask_003.jpg,,,,,,,,,,,,,,,,,,,,,,,,,,,,,,,,,,,,,,,,,,,0,4,4,2,1,,,,,,,,,,,,,,,,,,,,,,,,,,,,,,,,,,,,,,,,,,,,,,
773878,001,2022-11-21_24h51.32.264,Info_measure_main_exp,2022.2.2,Win32,164.4736842,,,,,,,,,,,,,,,,,,masks/mask_002.jpg,,,,,,,,,,,,,,,,,,,,,,,,,,,,,,,,,,,,,,,,,,,,,,,,0,0,0,1,1,,,,,,,,,,,,,,,,,,,,,,,,,,,,,,,,,,,,,,,,,
773878,001,2022-11-21_24h51.32.264,Info_measure_main_exp,2022.2.2,Win32,164.4736842,,,,,,,,,,,,,,,,,,masks/mask_004.jpg,,,,,,,,,,,,,,,,,,,,,,,,,,,,,,,,,,,,,,,,,,,,,,,,0,1,1,3,1,,,,,,,,,,,,,,,,,,,,,,,,,,,,,,,,,,,,,,,,,
773878,001,2022-11-21_24h51.32.264,Info_measure_main_exp,2022.2.2,Win32,164.4736842,,,,,,,,,,,,,,,,,,masks/mask_003.jpg,,,,,,,,,,,,,,,,,,,,,,,,,,,,,,,,,,,,,,,,,,,,,,,,0,2,2,2,1,,,,,,,,,,,,,,,,,,,,,,,,,,,,,,,,,,,,,,,,,
773878,001,2022-11-21_24h51.32.264,Info_measure_main_exp,2022.2.2,Win32,164.4736842,,,,,,,,,,,,,,,,,,masks/mask_005.jpg,,,,,,,,,,,,,,,,,,,,,,,,,,,,,,,,,,,,,,,,,,,,,,,,0,3,3,4,1,,,,,,,,,,,,,,,,,,,,,,,,,,,,,,,,,,,,,,,,,
773878,001,2022-11-21_24h51.32.264,Info_measure_main_exp,2022.2.2,Win32,164.4736842,,,,,,,,,,,,,,,,,,masks/mask_001.jpg,,,,,,,,,,,,,,,,,,,,,,,,,,,,,,,,,,,,,,,,,,,,,,,,0,4,4,0,1,,,,,,,,,,,,,,,,,,,,,,,,,,,,,,,,,,,,,,,,,
773878,001,2022-11-21_24h51.32.264,Info_measure_main_exp,2022.2.2,Win32,164.4736842,,,,,,,,,,,,,,,,,,,,,,,,,,,,,,7,0.5749,1,,,,,,,,,,,,0,131,5,5,2250,2214,absent_patch/patch0002250.jpg,absent_patch/patch0002214.jpg,,,,,,,,,,,,,,,,,,,,0.024074074,0.038888889,1,0,0,response1disk,23,0.00462963,-0.00462963,1,0,0,center_square,0,22,22,97,1,,,,,,,,,,,,,,,,,,,,,,,
773878,001,2022-11-21_24h51.32.264,Info_measure_main_exp,2022.2.2,Win32,164.4736842,,,,,,,,,,,,,,,,,,masks/mask_004.jpg,,,,,,,,,,,,,,,,,,,,,,,,,,,,,,,,,,,,,,,,,,,0,0,0,3,1,,,,,,,,,,,,,,,,,,,,,,,,,,,,,,,,,,,,,,,,,,,,,,
773878,001,2022-11-21_24h51.32.264,Info_measure_main_exp,2022.2.2,Win32,164.4736842,,,,,,,,,,,,,,,,,,masks/mask_002.jpg,,,,,,,,,,,,,,,,,,,,,,,,,,,,,,,,,,,,,,,,,,,0,1,1,1,1,,,,,,,,,,,,,,,,,,,,,,,,,,,,,,,,,,,,,,,,,,,,,,
773878,001,2022-11-21_24h51.32.264,Info_measure_main_exp,2022.2.2,Win32,164.4736842,,,,,,,,,,,,,,,,,,masks/mask_005.jpg,,,,,,,,,,,,,,,,,,,,,,,,,,,,,,,,,,,,,,,,,,,0,2,2,4,1,,,,,,,,,,,,,,,,,,,,,,,,,,,,,,,,,,,,,,,,,,,,,,
773878,001,2022-11-21_24h51.32.264,Info_measure_main_exp,2022.2.2,Win32,164.4736842,,,,,,,,,,,,,,,,,,masks/mask_003.jpg,,,,,,,,,,,,,,,,,,,,,,,,,,,,,,,,,,,,,,,,,,,0,3,3,2,1,,,,,,,,,,,,,,,,,,,,,,,,,,,,,,,,,,,,,,,,,,,,,,
773878,001,2022-11-21_24h51.32.264,Info_measure_main_exp,2022.2.2,Win32,164.4736842,,,,,,,,,,,,,,,,,,masks/mask_001.jpg,,,,,,,,,,,,,,,,,,,,,,,,,,,,,,,,,,,,,,,,,,,0,4,4,0,1,,,,,,,,,,,,,,,,,,,,,,,,,,,,,,,,,,,,,,,,,,,,,,
773878,001,2022-11-21_24h51.32.264,Info_measure_main_exp,2022.2.2,Win32,164.4736842,,,,,,,,,,,,,,,,,,masks/mask_003.jpg,,,,,,,,,,,,,,,,,,,,,,,,,,,,,,,,,,,,,,,,,,,,,,,,0,0,0,2,1,,,,,,,,,,,,,,,,,,,,,,,,,,,,,,,,,,,,,,,,,
773878,001,2022-11-21_24h51.32.264,Info_measure_main_exp,2022.2.2,Win32,164.4736842,,,,,,,,,,,,,,,,,,masks/mask_004.jpg,,,,,,,,,,,,,,,,,,,,,,,,,,,,,,,,,,,,,,,,,,,,,,,,0,1,1,3,1,,,,,,,,,,,,,,,,,,,,,,,,,,,,,,,,,,,,,,,,,
773878,001,2022-11-21_24h51.32.264,Info_measure_main_exp,2022.2.2,Win32,164.4736842,,,,,,,,,,,,,,,,,,masks/mask_002.jpg,,,,,,,,,,,,,,,,,,,,,,,,,,,,,,,,,,,,,,,,,,,,,,,,0,2,2,1,1,,,,,,,,,,,,,,,,,,,,,,,,,,,,,,,,,,,,,,,,,
773878,001,2022-11-21_24h51.32.264,Info_measure_main_exp,2022.2.2,Win32,164.4736842,,,,,,,,,,,,,,,,,,masks/mask_005.jpg,,,,,,,,,,,,,,,,,,,,,,,,,,,,,,,,,,,,,,,,,,,,,,,,0,3,3,4,1,,,,,,,,,,,,,,,,,,,,,,,,,,,,,,,,,,,,,,,,,
773878,001,2022-11-21_24h51.32.264,Info_measure_main_exp,2022.2.2,Win32,164.4736842,,,,,,,,,,,,,,,,,,masks/mask_001.jpg,,,,,,,,,,,,,,,,,,,,,,,,,,,,,,,,,,,,,,,,,,,,,,,,0,4,4,0,1,,,,,,,,,,,,,,,,,,,,,,,,,,,,,,,,,,,,,,,,,
773878,001,2022-11-21_24h51.32.264,Info_measure_main_exp,2022.2.2,Win32,164.4736842,,,,,,,,,,,,,,,,,,,,,,,,,,,,,,6,0.746,1,,,,,,,,,,,,0,131,5,5,2274,2214,absent_patch/patch0002274.jpg,absent_patch/patch0002214.jpg,,,,,,,,,,,,,,,,,,,,0.031481481,0.011111111,1,0,0,response1disk,24,-0.008333333,-0.003703704,1,0,0,center_square,0,23,23,11,1,,,,,,,,,,,,,,,,,,,,,,,
773878,001,2022-11-21_24h51.32.264,Info_measure_main_exp,2022.2.2,Win32,164.4736842,,,,,,,,,,,,,,,,,,masks/mask_003.jpg,,,,,,,,,,,,,,,,,,,,,,,,,,,,,,,,,,,,,,,,,,,0,0,0,2,1,,,,,,,,,,,,,,,,,,,,,,,,,,,,,,,,,,,,,,,,,,,,,,
773878,001,2022-11-21_24h51.32.264,Info_measure_main_exp,2022.2.2,Win32,164.4736842,,,,,,,,,,,,,,,,,,masks/mask_001.jpg,,,,,,,,,,,,,,,,,,,,,,,,,,,,,,,,,,,,,,,,,,,0,1,1,0,1,,,,,,,,,,,,,,,,,,,,,,,,,,,,,,,,,,,,,,,,,,,,,,
773878,001,2022-11-21_24h51.32.264,Info_measure_main_exp,2022.2.2,Win32,164.4736842,,,,,,,,,,,,,,,,,,masks/mask_004.jpg,,,,,,,,,,,,,,,,,,,,,,,,,,,,,,,,,,,,,,,,,,,0,2,2,3,1,,,,,,,,,,,,,,,,,,,,,,,,,,,,,,,,,,,,,,,,,,,,,,
773878,001,2022-11-21_24h51.32.264,Info_measure_main_exp,2022.2.2,Win32,164.4736842,,,,,,,,,,,,,,,,,,masks/mask_005.jpg,,,,,,,,,,,,,,,,,,,,,,,,,,,,,,,,,,,,,,,,,,,0,3,3,4,1,,,,,,,,,,,,,,,,,,,,,,,,,,,,,,,,,,,,,,,,,,,,,,
773878,001,2022-11-21_24h51.32.264,Info_measure_main_exp,2022.2.2,Win32,164.4736842,,,,,,,,,,,,,,,,,,masks/mask_002.jpg,,,,,,,,,,,,,,,,,,,,,,,,,,,,,,,,,,,,,,,,,,,0,4,4,1,1,,,,,,,,,,,,,,,,,,,,,,,,,,,,,,,,,,,,,,,,,,,,,,
773878,001,2022-11-21_24h51.32.264,Info_measure_main_exp,2022.2.2,Win32,164.4736842,,,,,,,,,,,,,,,,,,masks/mask_001.jpg,,,,,,,,,,,,,,,,,,,,,,,,,,,,,,,,,,,,,,,,,,,,,,,,0,0,0,0,1,,,,,,,,,,,,,,,,,,,,,,,,,,,,,,,,,,,,,,,,,
773878,001,2022-11-21_24h51.32.264,Info_measure_main_exp,2022.2.2,Win32,164.4736842,,,,,,,,,,,,,,,,,,masks/mask_005.jpg,,,,,,,,,,,,,,,,,,,,,,,,,,,,,,,,,,,,,,,,,,,,,,,,0,1,1,4,1,,,,,,,,,,,,,,,,,,,,,,,,,,,,,,,,,,,,,,,,,
773878,001,2022-11-21_24h51.32.264,Info_measure_main_exp,2022.2.2,Win32,164.4736842,,,,,,,,,,,,,,,,,,masks/mask_004.jpg,,,,,,,,,,,,,,,,,,,,,,,,,,,,,,,,,,,,,,,,,,,,,,,,0,2,2,3,1,,,,,,,,,,,,,,,,,,,,,,,,,,,,,,,,,,,,,,,,,
773878,001,2022-11-21_24h51.32.264,Info_measure_main_exp,2022.2.2,Win32,164.4736842,,,,,,,,,,,,,,,,,,masks/mask_002.jpg,,,,,,,,,,,,,,,,,,,,,,,,,,,,,,,,,,,,,,,,,,,,,,,,0,3,3,1,1,,,,,,,,,,,,,,,,,,,,,,,,,,,,,,,,,,,,,,,,,
773878,001,2022-11-21_24h51.32.264,Info_measure_main_exp,2022.2.2,Win32,164.4736842,,,,,,,,,,,,,,,,,,masks/mask_003.jpg,,,,,,,,,,,,,,,,,,,,,,,,,,,,,,,,,,,,,,,,,,,,,,,,0,4,4,2,1,,,,,,,,,,,,,,,,,,,,,,,,,,,,,,,,,,,,,,,,,
773878,001,2022-11-21_24h51.32.264,Info_measure_main_exp,2022.2.2,Win32,164.4736842,,,,,,,,,,,,,,,,,,,,,,,,,,,,,,5,0.7253,1,,,,,,,,,,,,0,131,5,5,2178,2142,absent_patch/patch0002178.jpg,absent_patch/patch0002142.jpg,,,,,,,,,,,,,,,,,,,,0.041666667,-0.015740741,1,0,0,response3disk,25,0.00462963,-0.003703704,1,0,0,center_square,0,24,24,41,1,,,,,,,,,,,,,,,,,,,,,,,
773878,001,2022-11-21_24h51.32.264,Info_measure_main_exp,2022.2.2,Win32,164.4736842,,,,,,,,,,,,,,,,,,masks/mask_005.jpg,,,,,,,,,,,,,,,,,,,,,,,,,,,,,,,,,,,,,,,,,,,0,0,0,4,1,,,,,,,,,,,,,,,,,,,,,,,,,,,,,,,,,,,,,,,,,,,,,,
773878,001,2022-11-21_24h51.32.264,Info_measure_main_exp,2022.2.2,Win32,164.4736842,,,,,,,,,,,,,,,,,,masks/mask_003.jpg,,,,,,,,,,,,,,,,,,,,,,,,,,,,,,,,,,,,,,,,,,,0,1,1,2,1,,,,,,,,,,,,,,,,,,,,,,,,,,,,,,,,,,,,,,,,,,,,,,
773878,001,2022-11-21_24h51.32.264,Info_measure_main_exp,2022.2.2,Win32,164.4736842,,,,,,,,,,,,,,,,,,masks/mask_004.jpg,,,,,,,,,,,,,,,,,,,,,,,,,,,,,,,,,,,,,,,,,,,0,2,2,3,1,,,,,,,,,,,,,,,,,,,,,,,,,,,,,,,,,,,,,,,,,,,,,,
773878,001,2022-11-21_24h51.32.264,Info_measure_main_exp,2022.2.2,Win32,164.4736842,,,,,,,,,,,,,,,,,,masks/mask_002.jpg,,,,,,,,,,,,,,,,,,,,,,,,,,,,,,,,,,,,,,,,,,,0,3,3,1,1,,,,,,,,,,,,,,,,,,,,,,,,,,,,,,,,,,,,,,,,,,,,,,
773878,001,2022-11-21_24h51.32.264,Info_measure_main_exp,2022.2.2,Win32,164.4736842,,,,,,,,,,,,,,,,,,masks/mask_001.jpg,,,,,,,,,,,,,,,,,,,,,,,,,,,,,,,,,,,,,,,,,,,0,4,4,0,1,,,,,,,,,,,,,,,,,,,,,,,,,,,,,,,,,,,,,,,,,,,,,,
773878,001,2022-11-21_24h51.32.264,Info_measure_main_exp,2022.2.2,Win32,164.4736842,,,,,,,,,,,,,,,,,,masks/mask_005.jpg,,,,,,,,,,,,,,,,,,,,,,,,,,,,,,,,,,,,,,,,,,,,,,,,0,0,0,4,1,,,,,,,,,,,,,,,,,,,,,,,,,,,,,,,,,,,,,,,,,
773878,001,2022-11-21_24h51.32.264,Info_measure_main_exp,2022.2.2,Win32,164.4736842,,,,,,,,,,,,,,,,,,masks/mask_004.jpg,,,,,,,,,,,,,,,,,,,,,,,,,,,,,,,,,,,,,,,,,,,,,,,,0,1,1,3,1,,,,,,,,,,,,,,,,,,,,,,,,,,,,,,,,,,,,,,,,,
773878,001,2022-11-21_24h51.32.264,Info_measure_main_exp,2022.2.2,Win32,164.4736842,,,,,,,,,,,,,,,,,,masks/mask_003.jpg,,,,,,,,,,,,,,,,,,,,,,,,,,,,,,,,,,,,,,,,,,,,,,,,0,2,2,2,1,,,,,,,,,,,,,,,,,,,,,,,,,,,,,,,,,,,,,,,,,
773878,001,2022-11-21_24h51.32.264,Info_measure_main_exp,2022.2.2,Win32,164.4736842,,,,,,,,,,,,,,,,,,masks/mask_002.jpg,,,,,,,,,,,,,,,,,,,,,,,,,,,,,,,,,,,,,,,,,,,,,,,,0,3,3,1,1,,,,,,,,,,,,,,,,,,,,,,,,,,,,,,,,,,,,,,,,,
773878,001,2022-11-21_24h51.32.264,Info_measure_main_exp,2022.2.2,Win32,164.4736842,,,,,,,,,,,,,,,,,,masks/mask_001.jpg,,,,,,,,,,,,,,,,,,,,,,,,,,,,,,,,,,,,,,,,,,,,,,,,0,4,4,0,1,,,,,,,,,,,,,,,,,,,,,,,,,,,,,,,,,,,,,,,,,
773878,001,2022-11-21_24h51.32.264,Info_measure_main_exp,2022.2.2,Win32,164.4736842,,,,,,,,,,,,,,,,,,,,,,,,,,,,,,7,0.5491,1,,,,,,,,,,,,0,131,5,5,2250,2298,absent_patch/patch0002250.jpg,absent_patch/patch0002298.jpg,,,,,,,,,,,,,,,,,,,,0.018518519,0.062962963,1,0,0,response1disk,26,0.010185185,0.000925926,1,0,0,center_square,0,25,25,59,1,,,,,,,,,,,,,,,,,,,,,,,
773878,001,2022-11-21_24h51.32.264,Info_measure_main_exp,2022.2.2,Win32,164.4736842,,,,,,,,,,,,,,,,,,masks/mask_005.jpg,,,,,,,,,,,,,,,,,,,,,,,,,,,,,,,,,,,,,,,,,,,0,0,0,4,1,,,,,,,,,,,,,,,,,,,,,,,,,,,,,,,,,,,,,,,,,,,,,,
773878,001,2022-11-21_24h51.32.264,Info_measure_main_exp,2022.2.2,Win32,164.4736842,,,,,,,,,,,,,,,,,,masks/mask_004.jpg,,,,,,,,,,,,,,,,,,,,,,,,,,,,,,,,,,,,,,,,,,,0,1,1,3,1,,,,,,,,,,,,,,,,,,,,,,,,,,,,,,,,,,,,,,,,,,,,,,
773878,001,2022-11-21_24h51.32.264,Info_measure_main_exp,2022.2.2,Win32,164.4736842,,,,,,,,,,,,,,,,,,masks/mask_003.jpg,,,,,,,,,,,,,,,,,,,,,,,,,,,,,,,,,,,,,,,,,,,0,2,2,2,1,,,,,,,,,,,,,,,,,,,,,,,,,,,,,,,,,,,,,,,,,,,,,,
773878,001,2022-11-21_24h51.32.264,Info_measure_main_exp,2022.2.2,Win32,164.4736842,,,,,,,,,,,,,,,,,,masks/mask_002.jpg,,,,,,,,,,,,,,,,,,,,,,,,,,,,,,,,,,,,,,,,,,,0,3,3,1,1,,,,,,,,,,,,,,,,,,,,,,,,,,,,,,,,,,,,,,,,,,,,,,
773878,001,2022-11-21_24h51.32.264,Info_measure_main_exp,2022.2.2,Win32,164.4736842,,,,,,,,,,,,,,,,,,masks/mask_001.jpg,,,,,,,,,,,,,,,,,,,,,,,,,,,,,,,,,,,,,,,,,,,0,4,4,0,1,,,,,,,,,,,,,,,,,,,,,,,,,,,,,,,,,,,,,,,,,,,,,,
773878,001,2022-11-21_24h51.32.264,Info_measure_main_exp,2022.2.2,Win32,164.4736842,,,,,,,,,,,,,,,,,,masks/mask_002.jpg,,,,,,,,,,,,,,,,,,,,,,,,,,,,,,,,,,,,,,,,,,,,,,,,0,0,0,1,1,,,,,,,,,,,,,,,,,,,,,,,,,,,,,,,,,,,,,,,,,
773878,001,2022-11-21_24h51.32.264,Info_measure_main_exp,2022.2.2,Win32,164.4736842,,,,,,,,,,,,,,,,,,masks/mask_005.jpg,,,,,,,,,,,,,,,,,,,,,,,,,,,,,,,,,,,,,,,,,,,,,,,,0,1,1,4,1,,,,,,,,,,,,,,,,,,,,,,,,,,,,,,,,,,,,,,,,,
773878,001,2022-11-21_24h51.32.264,Info_measure_main_exp,2022.2.2,Win32,164.4736842,,,,,,,,,,,,,,,,,,masks/mask_003.jpg,,,,,,,,,,,,,,,,,,,,,,,,,,,,,,,,,,,,,,,,,,,,,,,,0,2,2,2,1,,,,,,,,,,,,,,,,,,,,,,,,,,,,,,,,,,,,,,,,,
773878,001,2022-11-21_24h51.32.264,Info_measure_main_exp,2022.2.2,Win32,164.4736842,,,,,,,,,,,,,,,,,,masks/mask_004.jpg,,,,,,,,,,,,,,,,,,,,,,,,,,,,,,,,,,,,,,,,,,,,,,,,0,3,3,3,1,,,,,,,,,,,,,,,,,,,,,,,,,,,,,,,,,,,,,,,,,
773878,001,2022-11-21_24h51.32.264,Info_measure_main_exp,2022.2.2,Win32,164.4736842,,,,,,,,,,,,,,,,,,masks/mask_001.jpg,,,,,,,,,,,,,,,,,,,,,,,,,,,,,,,,,,,,,,,,,,,,,,,,0,4,4,0,1,,,,,,,,,,,,,,,,,,,,,,,,,,,,,,,,,,,,,,,,,
773878,001,2022-11-21_24h51.32.264,Info_measure_main_exp,2022.2.2,Win32,164.4736842,,,,,,,,,,,,,,,,,,,,,,,,,,,,,,7,0.4125,1,,,,,,,,,,,,1,131,5,5,1,1974,present_patch/cong_131_5_a.jpg,absent_patch/patch0001974.jpg,,,,,,,,,,,,,,,,,,,,0.016666667,0.040740741,1,0,0,response1disk,27,0.011111111,0.002777778,1,0,0,center_square,0,26,26,69,1,,,,,,,,,,,,,,,,,,,,,,,
773878,001,2022-11-21_24h51.32.264,Info_measure_main_exp,2022.2.2,Win32,164.4736842,,,,,,,,,,,,,,,,,,masks/mask_002.jpg,,,,,,,,,,,,,,,,,,,,,,,,,,,,,,,,,,,,,,,,,,,0,0,0,1,1,,,,,,,,,,,,,,,,,,,,,,,,,,,,,,,,,,,,,,,,,,,,,,
773878,001,2022-11-21_24h51.32.264,Info_measure_main_exp,2022.2.2,Win32,164.4736842,,,,,,,,,,,,,,,,,,masks/mask_003.jpg,,,,,,,,,,,,,,,,,,,,,,,,,,,,,,,,,,,,,,,,,,,0,1,1,2,1,,,,,,,,,,,,,,,,,,,,,,,,,,,,,,,,,,,,,,,,,,,,,,
773878,001,2022-11-21_24h51.32.264,Info_measure_main_exp,2022.2.2,Win32,164.4736842,,,,,,,,,,,,,,,,,,masks/mask_001.jpg,,,,,,,,,,,,,,,,,,,,,,,,,,,,,,,,,,,,,,,,,,,0,2,2,0,1,,,,,,,,,,,,,,,,,,,,,,,,,,,,,,,,,,,,,,,,,,,,,,
773878,001,2022-11-21_24h51.32.264,Info_measure_main_exp,2022.2.2,Win32,164.4736842,,,,,,,,,,,,,,,,,,masks/mask_005.jpg,,,,,,,,,,,,,,,,,,,,,,,,,,,,,,,,,,,,,,,,,,,0,3,3,4,1,,,,,,,,,,,,,,,,,,,,,,,,,,,,,,,,,,,,,,,,,,,,,,
773878,001,2022-11-21_24h51.32.264,Info_measure_main_exp,2022.2.2,Win32,164.4736842,,,,,,,,,,,,,,,,,,masks/mask_004.jpg,,,,,,,,,,,,,,,,,,,,,,,,,,,,,,,,,,,,,,,,,,,0,4,4,3,1,,,,,,,,,,,,,,,,,,,,,,,,,,,,,,,,,,,,,,,,,,,,,,
773878,001,2022-11-21_24h51.32.264,Info_measure_main_exp,2022.2.2,Win32,164.4736842,,,,,,,,,,,,,,,,,,masks/mask_005.jpg,,,,,,,,,,,,,,,,,,,,,,,,,,,,,,,,,,,,,,,,,,,,,,,,0,0,0,4,1,,,,,,,,,,,,,,,,,,,,,,,,,,,,,,,,,,,,,,,,,
773878,001,2022-11-21_24h51.32.264,Info_measure_main_exp,2022.2.2,Win32,164.4736842,,,,,,,,,,,,,,,,,,masks/mask_003.jpg,,,,,,,,,,,,,,,,,,,,,,,,,,,,,,,,,,,,,,,,,,,,,,,,0,1,1,2,1,,,,,,,,,,,,,,,,,,,,,,,,,,,,,,,,,,,,,,,,,
773878,001,2022-11-21_24h51.32.264,Info_measure_main_exp,2022.2.2,Win32,164.4736842,,,,,,,,,,,,,,,,,,masks/mask_001.jpg,,,,,,,,,,,,,,,,,,,,,,,,,,,,,,,,,,,,,,,,,,,,,,,,0,2,2,0,1,,,,,,,,,,,,,,,,,,,,,,,,,,,,,,,,,,,,,,,,,
773878,001,2022-11-21_24h51.32.264,Info_measure_main_exp,2022.2.2,Win32,164.4736842,,,,,,,,,,,,,,,,,,masks/mask_004.jpg,,,,,,,,,,,,,,,,,,,,,,,,,,,,,,,,,,,,,,,,,,,,,,,,0,3,3,3,1,,,,,,,,,,,,,,,,,,,,,,,,,,,,,,,,,,,,,,,,,
773878,001,2022-11-21_24h51.32.264,Info_measure_main_exp,2022.2.2,Win32,164.4736842,,,,,,,,,,,,,,,,,,masks/mask_002.jpg,,,,,,,,,,,,,,,,,,,,,,,,,,,,,,,,,,,,,,,,,,,,,,,,0,4,4,1,1,,,,,,,,,,,,,,,,,,,,,,,,,,,,,,,,,,,,,,,,,
773878,001,2022-11-21_24h51.32.264,Info_measure_main_exp,2022.2.2,Win32,164.4736842,,,,,,,,,,,,,,,,,,,,,,,,,,,,,,3,0.5176,1,,,,,,,,,,,,0,131,5,5,2274,2142,absent_patch/patch0002274.jpg,absent_patch/patch0002142.jpg,,,,,,,,,,,,,,,,,,,,-0.007407407,-0.057407407,1,0,0,response5disk,28,0.010185185,0.010185185,1,0,0,center_square,0,27,27,75,1,,,,,,,,,,,,,,,,,,,,,,,
773878,001,2022-11-21_24h51.32.264,Info_measure_main_exp,2022.2.2,Win32,164.4736842,,,,,,,,,,,,,,,,,,masks/mask_005.jpg,,,,,,,,,,,,,,,,,,,,,,,,,,,,,,,,,,,,,,,,,,,0,0,0,4,1,,,,,,,,,,,,,,,,,,,,,,,,,,,,,,,,,,,,,,,,,,,,,,
773878,001,2022-11-21_24h51.32.264,Info_measure_main_exp,2022.2.2,Win32,164.4736842,,,,,,,,,,,,,,,,,,masks/mask_001.jpg,,,,,,,,,,,,,,,,,,,,,,,,,,,,,,,,,,,,,,,,,,,0,1,1,0,1,,,,,,,,,,,,,,,,,,,,,,,,,,,,,,,,,,,,,,,,,,,,,,
773878,001,2022-11-21_24h51.32.264,Info_measure_main_exp,2022.2.2,Win32,164.4736842,,,,,,,,,,,,,,,,,,masks/mask_004.jpg,,,,,,,,,,,,,,,,,,,,,,,,,,,,,,,,,,,,,,,,,,,0,2,2,3,1,,,,,,,,,,,,,,,,,,,,,,,,,,,,,,,,,,,,,,,,,,,,,,
773878,001,2022-11-21_24h51.32.264,Info_measure_main_exp,2022.2.2,Win32,164.4736842,,,,,,,,,,,,,,,,,,masks/mask_002.jpg,,,,,,,,,,,,,,,,,,,,,,,,,,,,,,,,,,,,,,,,,,,0,3,3,1,1,,,,,,,,,,,,,,,,,,,,,,,,,,,,,,,,,,,,,,,,,,,,,,
773878,001,2022-11-21_24h51.32.264,Info_measure_main_exp,2022.2.2,Win32,164.4736842,,,,,,,,,,,,,,,,,,masks/mask_003.jpg,,,,,,,,,,,,,,,,,,,,,,,,,,,,,,,,,,,,,,,,,,,0,4,4,2,1,,,,,,,,,,,,,,,,,,,,,,,,,,,,,,,,,,,,,,,,,,,,,,
773878,001,2022-11-21_24h51.32.264,Info_measure_main_exp,2022.2.2,Win32,164.4736842,,,,,,,,,,,,,,,,,,masks/mask_001.jpg,,,,,,,,,,,,,,,,,,,,,,,,,,,,,,,,,,,,,,,,,,,,,,,,0,0,0,0,1,,,,,,,,,,,,,,,,,,,,,,,,,,,,,,,,,,,,,,,,,
773878,001,2022-11-21_24h51.32.264,Info_measure_main_exp,2022.2.2,Win32,164.4736842,,,,,,,,,,,,,,,,,,masks/mask_002.jpg,,,,,,,,,,,,,,,,,,,,,,,,,,,,,,,,,,,,,,,,,,,,,,,,0,1,1,1,1,,,,,,,,,,,,,,,,,,,,,,,,,,,,,,,,,,,,,,,,,
773878,001,2022-11-21_24h51.32.264,Info_measure_main_exp,2022.2.2,Win32,164.4736842,,,,,,,,,,,,,,,,,,masks/mask_003.jpg,,,,,,,,,,,,,,,,,,,,,,,,,,,,,,,,,,,,,,,,,,,,,,,,0,2,2,2,1,,,,,,,,,,,,,,,,,,,,,,,,,,,,,,,,,,,,,,,,,
773878,001,2022-11-21_24h51.32.264,Info_measure_main_exp,2022.2.2,Win32,164.4736842,,,,,,,,,,,,,,,,,,masks/mask_004.jpg,,,,,,,,,,,,,,,,,,,,,,,,,,,,,,,,,,,,,,,,,,,,,,,,0,3,3,3,1,,,,,,,,,,,,,,,,,,,,,,,,,,,,,,,,,,,,,,,,,
773878,001,2022-11-21_24h51.32.264,Info_measure_main_exp,2022.2.2,Win32,164.4736842,,,,,,,,,,,,,,,,,,masks/mask_005.jpg,,,,,,,,,,,,,,,,,,,,,,,,,,,,,,,,,,,,,,,,,,,,,,,,0,4,4,4,1,,,,,,,,,,,,,,,,,,,,,,,,,,,,,,,,,,,,,,,,,
773878,001,2022-11-21_24h51.32.264,Info_measure_main_exp,2022.2.2,Win32,164.4736842,,,,,,,,,,,,,,,,,,,,,,,,,,,,,,6,0.8312,1,,,,,,,,,,,,0,131,5,5,2154,2238,absent_patch/patch0002154.jpg,absent_patch/patch0002238.jpg,,,,,,,,,,,,,,,,,,,,0.05462963,0.010185185,1,0,0,response1disk,29,0.008333333,0.00462963,1,0,0,center_square,0,28,28,21,1,,,,,,,,,,,,,,,,,,,,,,,
773878,001,2022-11-21_24h51.32.264,Info_measure_main_exp,2022.2.2,Win32,164.4736842,,,,,,,,,,,,,,,,,,masks/mask_001.jpg,,,,,,,,,,,,,,,,,,,,,,,,,,,,,,,,,,,,,,,,,,,0,0,0,0,1,,,,,,,,,,,,,,,,,,,,,,,,,,,,,,,,,,,,,,,,,,,,,,
773878,001,2022-11-21_24h51.32.264,Info_measure_main_exp,2022.2.2,Win32,164.4736842,,,,,,,,,,,,,,,,,,masks/mask_002.jpg,,,,,,,,,,,,,,,,,,,,,,,,,,,,,,,,,,,,,,,,,,,0,1,1,1,1,,,,,,,,,,,,,,,,,,,,,,,,,,,,,,,,,,,,,,,,,,,,,,
773878,001,2022-11-21_24h51.32.264,Info_measure_main_exp,2022.2.2,Win32,164.4736842,,,,,,,,,,,,,,,,,,masks/mask_005.jpg,,,,,,,,,,,,,,,,,,,,,,,,,,,,,,,,,,,,,,,,,,,0,2,2,4,1,,,,,,,,,,,,,,,,,,,,,,,,,,,,,,,,,,,,,,,,,,,,,,
773878,001,2022-11-21_24h51.32.264,Info_measure_main_exp,2022.2.2,Win32,164.4736842,,,,,,,,,,,,,,,,,,masks/mask_004.jpg,,,,,,,,,,,,,,,,,,,,,,,,,,,,,,,,,,,,,,,,,,,0,3,3,3,1,,,,,,,,,,,,,,,,,,,,,,,,,,,,,,,,,,,,,,,,,,,,,,
773878,001,2022-11-21_24h51.32.264,Info_measure_main_exp,2022.2.2,Win32,164.4736842,,,,,,,,,,,,,,,,,,masks/mask_003.jpg,,,,,,,,,,,,,,,,,,,,,,,,,,,,,,,,,,,,,,,,,,,0,4,4,2,1,,,,,,,,,,,,,,,,,,,,,,,,,,,,,,,,,,,,,,,,,,,,,,
773878,001,2022-11-21_24h51.32.264,Info_measure_main_exp,2022.2.2,Win32,164.4736842,,,,,,,,,,,,,,,,,,masks/mask_004.jpg,,,,,,,,,,,,,,,,,,,,,,,,,,,,,,,,,,,,,,,,,,,,,,,,0,0,0,3,1,,,,,,,,,,,,,,,,,,,,,,,,,,,,,,,,,,,,,,,,,
773878,001,2022-11-21_24h51.32.264,Info_measure_main_exp,2022.2.2,Win32,164.4736842,,,,,,,,,,,,,,,,,,masks/mask_002.jpg,,,,,,,,,,,,,,,,,,,,,,,,,,,,,,,,,,,,,,,,,,,,,,,,0,1,1,1,1,,,,,,,,,,,,,,,,,,,,,,,,,,,,,,,,,,,,,,,,,
773878,001,2022-11-21_24h51.32.264,Info_measure_main_exp,2022.2.2,Win32,164.4736842,,,,,,,,,,,,,,,,,,masks/mask_005.jpg,,,,,,,,,,,,,,,,,,,,,,,,,,,,,,,,,,,,,,,,,,,,,,,,0,2,2,4,1,,,,,,,,,,,,,,,,,,,,,,,,,,,,,,,,,,,,,,,,,
773878,001,2022-11-21_24h51.32.264,Info_measure_main_exp,2022.2.2,Win32,164.4736842,,,,,,,,,,,,,,,,,,masks/mask_003.jpg,,,,,,,,,,,,,,,,,,,,,,,,,,,,,,,,,,,,,,,,,,,,,,,,0,3,3,2,1,,,,,,,,,,,,,,,,,,,,,,,,,,,,,,,,,,,,,,,,,
773878,001,2022-11-21_24h51.32.264,Info_measure_main_exp,2022.2.2,Win32,164.4736842,,,,,,,,,,,,,,,,,,masks/mask_001.jpg,,,,,,,,,,,,,,,,,,,,,,,,,,,,,,,,,,,,,,,,,,,,,,,,0,4,4,0,1,,,,,,,,,,,,,,,,,,,,,,,,,,,,,,,,,,,,,,,,,
773878,001,2022-11-21_24h51.32.264,Info_measure_main_exp,2022.2.2,Win32,164.4736842,,,,,,,,,,,,,,,,,,,,,,,,,,,,,,7,0.4524,1,,,,,,,,,,,,0,131,5,5,2166,2298,absent_patch/patch0002166.jpg,absent_patch/patch0002298.jpg,,,,,,,,,,,,,,,,,,,,0.013888889,0.038888889,1,0,0,response1disk,30,0,0.003703704,1,0,0,center_square,0,29,29,52,1,,,,,,,,,,,,,,,,,,,,,,,
773878,001,2022-11-21_24h51.32.264,Info_measure_main_exp,2022.2.2,Win32,164.4736842,,,,,,,,,,,,,,,,,,masks/mask_003.jpg,,,,,,,,,,,,,,,,,,,,,,,,,,,,,,,,,,,,,,,,,,,0,0,0,2,1,,,,,,,,,,,,,,,,,,,,,,,,,,,,,,,,,,,,,,,,,,,,,,
773878,001,2022-11-21_24h51.32.264,Info_measure_main_exp,2022.2.2,Win32,164.4736842,,,,,,,,,,,,,,,,,,masks/mask_005.jpg,,,,,,,,,,,,,,,,,,,,,,,,,,,,,,,,,,,,,,,,,,,0,1,1,4,1,,,,,,,,,,,,,,,,,,,,,,,,,,,,,,,,,,,,,,,,,,,,,,
773878,001,2022-11-21_24h51.32.264,Info_measure_main_exp,2022.2.2,Win32,164.4736842,,,,,,,,,,,,,,,,,,masks/mask_002.jpg,,,,,,,,,,,,,,,,,,,,,,,,,,,,,,,,,,,,,,,,,,,0,2,2,1,1,,,,,,,,,,,,,,,,,,,,,,,,,,,,,,,,,,,,,,,,,,,,,,
773878,001,2022-11-21_24h51.32.264,Info_measure_main_exp,2022.2.2,Win32,164.4736842,,,,,,,,,,,,,,,,,,masks/mask_004.jpg,,,,,,,,,,,,,,,,,,,,,,,,,,,,,,,,,,,,,,,,,,,0,3,3,3,1,,,,,,,,,,,,,,,,,,,,,,,,,,,,,,,,,,,,,,,,,,,,,,
773878,001,2022-11-21_24h51.32.264,Info_measure_main_exp,2022.2.2,Win32,164.4736842,,,,,,,,,,,,,,,,,,masks/mask_001.jpg,,,,,,,,,,,,,,,,,,,,,,,,,,,,,,,,,,,,,,,,,,,0,4,4,0,1,,,,,,,,,,,,,,,,,,,,,,,,,,,,,,,,,,,,,,,,,,,,,,
773878,001,2022-11-21_24h51.32.264,Info_measure_main_exp,2022.2.2,Win32,164.4736842,,,,,,,,,,,,,,,,,,masks/mask_003.jpg,,,,,,,,,,,,,,,,,,,,,,,,,,,,,,,,,,,,,,,,,,,,,,,,0,0,0,2,1,,,,,,,,,,,,,,,,,,,,,,,,,,,,,,,,,,,,,,,,,
773878,001,2022-11-21_24h51.32.264,Info_measure_main_exp,2022.2.2,Win32,164.4736842,,,,,,,,,,,,,,,,,,masks/mask_005.jpg,,,,,,,,,,,,,,,,,,,,,,,,,,,,,,,,,,,,,,,,,,,,,,,,0,1,1,4,1,,,,,,,,,,,,,,,,,,,,,,,,,,,,,,,,,,,,,,,,,
773878,001,2022-11-21_24h51.32.264,Info_measure_main_exp,2022.2.2,Win32,164.4736842,,,,,,,,,,,,,,,,,,masks/mask_001.jpg,,,,,,,,,,,,,,,,,,,,,,,,,,,,,,,,,,,,,,,,,,,,,,,,0,2,2,0,1,,,,,,,,,,,,,,,,,,,,,,,,,,,,,,,,,,,,,,,,,
773878,001,2022-11-21_24h51.32.264,Info_measure_main_exp,2022.2.2,Win32,164.4736842,,,,,,,,,,,,,,,,,,masks/mask_004.jpg,,,,,,,,,,,,,,,,,,,,,,,,,,,,,,,,,,,,,,,,,,,,,,,,0,3,3,3,1,,,,,,,,,,,,,,,,,,,,,,,,,,,,,,,,,,,,,,,,,
773878,001,2022-11-21_24h51.32.264,Info_measure_main_exp,2022.2.2,Win32,164.4736842,,,,,,,,,,,,,,,,,,masks/mask_002.jpg,,,,,,,,,,,,,,,,,,,,,,,,,,,,,,,,,,,,,,,,,,,,,,,,0,4,4,1,1,,,,,,,,,,,,,,,,,,,,,,,,,,,,,,,,,,,,,,,,,
773878,001,2022-11-21_24h51.32.264,Info_measure_main_exp,2022.2.2,Win32,164.4736842,,,,,,,,,,,,,,,,,,,,,,,,,,,,,,6,0.807,1,,,,,,,,,,,,0,131,5,5,2166,2154,absent_patch/patch0002166.jpg,absent_patch/patch0002154.jpg,,,,,,,,,,,,,,,,,,,,0.026851852,0.005555556,1,0,0,response1disk,31,0.00462963,0,1,0,0,center_square,0,30,30,79,1,,,,,,,,,,,,,,,,,,,,,,,
773878,001,2022-11-21_24h51.32.264,Info_measure_main_exp,2022.2.2,Win32,164.4736842,,,,,,,,,,,,,,,,,,masks/mask_003.jpg,,,,,,,,,,,,,,,,,,,,,,,,,,,,,,,,,,,,,,,,,,,0,0,0,2,1,,,,,,,,,,,,,,,,,,,,,,,,,,,,,,,,,,,,,,,,,,,,,,
773878,001,2022-11-21_24h51.32.264,Info_measure_main_exp,2022.2.2,Win32,164.4736842,,,,,,,,,,,,,,,,,,masks/mask_004.jpg,,,,,,,,,,,,,,,,,,,,,,,,,,,,,,,,,,,,,,,,,,,0,1,1,3,1,,,,,,,,,,,,,,,,,,,,,,,,,,,,,,,,,,,,,,,,,,,,,,
773878,001,2022-11-21_24h51.32.264,Info_measure_main_exp,2022.2.2,Win32,164.4736842,,,,,,,,,,,,,,,,,,masks/mask_005.jpg,,,,,,,,,,,,,,,,,,,,,,,,,,,,,,,,,,,,,,,,,,,0,2,2,4,1,,,,,,,,,,,,,,,,,,,,,,,,,,,,,,,,,,,,,,,,,,,,,,
773878,001,2022-11-21_24h51.32.264,Info_measure_main_exp,2022.2.2,Win32,164.4736842,,,,,,,,,,,,,,,,,,masks/mask_002.jpg,,,,,,,,,,,,,,,,,,,,,,,,,,,,,,,,,,,,,,,,,,,0,3,3,1,1,,,,,,,,,,,,,,,,,,,,,,,,,,,,,,,,,,,,,,,,,,,,,,
773878,001,2022-11-21_24h51.32.264,Info_measure_main_exp,2022.2.2,Win32,164.4736842,,,,,,,,,,,,,,,,,,masks/mask_001.jpg,,,,,,,,,,,,,,,,,,,,,,,,,,,,,,,,,,,,,,,,,,,0,4,4,0,1,,,,,,,,,,,,,,,,,,,,,,,,,,,,,,,,,,,,,,,,,,,,,,
773878,001,2022-11-21_24h51.32.264,Info_measure_main_exp,2022.2.2,Win32,164.4736842,,,,,,,,,,,,,,,,,,masks/mask_004.jpg,,,,,,,,,,,,,,,,,,,,,,,,,,,,,,,,,,,,,,,,,,,,,,,,0,0,0,3,1,,,,,,,,,,,,,,,,,,,,,,,,,,,,,,,,,,,,,,,,,
773878,001,2022-11-21_24h51.32.264,Info_measure_main_exp,2022.2.2,Win32,164.4736842,,,,,,,,,,,,,,,,,,masks/mask_002.jpg,,,,,,,,,,,,,,,,,,,,,,,,,,,,,,,,,,,,,,,,,,,,,,,,0,1,1,1,1,,,,,,,,,,,,,,,,,,,,,,,,,,,,,,,,,,,,,,,,,
773878,001,2022-11-21_24h51.32.264,Info_measure_main_exp,2022.2.2,Win32,164.4736842,,,,,,,,,,,,,,,,,,masks/mask_001.jpg,,,,,,,,,,,,,,,,,,,,,,,,,,,,,,,,,,,,,,,,,,,,,,,,0,2,2,0,1,,,,,,,,,,,,,,,,,,,,,,,,,,,,,,,,,,,,,,,,,
773878,001,2022-11-21_24h51.32.264,Info_measure_main_exp,2022.2.2,Win32,164.4736842,,,,,,,,,,,,,,,,,,masks/mask_003.jpg,,,,,,,,,,,,,,,,,,,,,,,,,,,,,,,,,,,,,,,,,,,,,,,,0,3,3,2,1,,,,,,,,,,,,,,,,,,,,,,,,,,,,,,,,,,,,,,,,,
773878,001,2022-11-21_24h51.32.264,Info_measure_main_exp,2022.2.2,Win32,164.4736842,,,,,,,,,,,,,,,,,,masks/mask_005.jpg,,,,,,,,,,,,,,,,,,,,,,,,,,,,,,,,,,,,,,,,,,,,,,,,0,4,4,4,1,,,,,,,,,,,,,,,,,,,,,,,,,,,,,,,,,,,,,,,,,
773878,001,2022-11-21_24h51.32.264,Info_measure_main_exp,2022.2.2,Win32,164.4736842,,,,,,,,,,,,,,,,,,,,,,,,,,,,,,7,0.3884,1,,,,,,,,,,,,0,131,5,5,2250,1950,absent_patch/patch0002250.jpg,absent_patch/patch0001950.jpg,,,,,,,,,,,,,,,,,,,,0.010185185,0.036111111,1,0,0,response1disk,32,0.009259259,-0.001851852,1,0,0,center_square,0,31,31,16,1,,,,,,,,,,,,,,,,,,,,,,,
773878,001,2022-11-21_24h51.32.264,Info_measure_main_exp,2022.2.2,Win32,164.4736842,,,,,,,,,,,,,,,,,,masks/mask_002.jpg,,,,,,,,,,,,,,,,,,,,,,,,,,,,,,,,,,,,,,,,,,,0,0,0,1,1,,,,,,,,,,,,,,,,,,,,,,,,,,,,,,,,,,,,,,,,,,,,,,
773878,001,2022-11-21_24h51.32.264,Info_measure_main_exp,2022.2.2,Win32,164.4736842,,,,,,,,,,,,,,,,,,masks/mask_001.jpg,,,,,,,,,,,,,,,,,,,,,,,,,,,,,,,,,,,,,,,,,,,0,1,1,0,1,,,,,,,,,,,,,,,,,,,,,,,,,,,,,,,,,,,,,,,,,,,,,,
773878,001,2022-11-21_24h51.32.264,Info_measure_main_exp,2022.2.2,Win32,164.4736842,,,,,,,,,,,,,,,,,,masks/mask_003.jpg,,,,,,,,,,,,,,,,,,,,,,,,,,,,,,,,,,,,,,,,,,,0,2,2,2,1,,,,,,,,,,,,,,,,,,,,,,,,,,,,,,,,,,,,,,,,,,,,,,
773878,001,2022-11-21_24h51.32.264,Info_measure_main_exp,2022.2.2,Win32,164.4736842,,,,,,,,,,,,,,,,,,masks/mask_005.jpg,,,,,,,,,,,,,,,,,,,,,,,,,,,,,,,,,,,,,,,,,,,0,3,3,4,1,,,,,,,,,,,,,,,,,,,,,,,,,,,,,,,,,,,,,,,,,,,,,,
773878,001,2022-11-21_24h51.32.264,Info_measure_main_exp,2022.2.2,Win32,164.4736842,,,,,,,,,,,,,,,,,,masks/mask_004.jpg,,,,,,,,,,,,,,,,,,,,,,,,,,,,,,,,,,,,,,,,,,,0,4,4,3,1,,,,,,,,,,,,,,,,,,,,,,,,,,,,,,,,,,,,,,,,,,,,,,
773878,001,2022-11-21_24h51.32.264,Info_measure_main_exp,2022.2.2,Win32,164.4736842,,,,,,,,,,,,,,,,,,masks/mask_004.jpg,,,,,,,,,,,,,,,,,,,,,,,,,,,,,,,,,,,,,,,,,,,,,,,,0,0,0,3,1,,,,,,,,,,,,,,,,,,,,,,,,,,,,,,,,,,,,,,,,,
773878,001,2022-11-21_24h51.32.264,Info_measure_main_exp,2022.2.2,Win32,164.4736842,,,,,,,,,,,,,,,,,,masks/mask_005.jpg,,,,,,,,,,,,,,,,,,,,,,,,,,,,,,,,,,,,,,,,,,,,,,,,0,1,1,4,1,,,,,,,,,,,,,,,,,,,,,,,,,,,,,,,,,,,,,,,,,
773878,001,2022-11-21_24h51.32.264,Info_measure_main_exp,2022.2.2,Win32,164.4736842,,,,,,,,,,,,,,,,,,masks/mask_002.jpg,,,,,,,,,,,,,,,,,,,,,,,,,,,,,,,,,,,,,,,,,,,,,,,,0,2,2,1,1,,,,,,,,,,,,,,,,,,,,,,,,,,,,,,,,,,,,,,,,,
773878,001,2022-11-21_24h51.32.264,Info_measure_main_exp,2022.2.2,Win32,164.4736842,,,,,,,,,,,,,,,,,,masks/mask_003.jpg,,,,,,,,,,,,,,,,,,,,,,,,,,,,,,,,,,,,,,,,,,,,,,,,0,3,3,2,1,,,,,,,,,,,,,,,,,,,,,,,,,,,,,,,,,,,,,,,,,
773878,001,2022-11-21_24h51.32.264,Info_measure_main_exp,2022.2.2,Win32,164.4736842,,,,,,,,,,,,,,,,,,masks/mask_001.jpg,,,,,,,,,,,,,,,,,,,,,,,,,,,,,,,,,,,,,,,,,,,,,,,,0,4,4,0,1,,,,,,,,,,,,,,,,,,,,,,,,,,,,,,,,,,,,,,,,,
773878,001,2022-11-21_24h51.32.264,Info_measure_main_exp,2022.2.2,Win32,164.4736842,,,,,,,,,,,,,,,,,,,,,,,,,,,,,,7,0.6605,1,,,,,,,,,,,,0,131,5,5,2214,1986,absent_patch/patch0002214.jpg,absent_patch/patch0001986.jpg,,,,,,,,,,,,,,,,,,,,0.017592593,0.036111111,1,0,0,response1disk,33,0.010185185,0.003703704,1,0,0,center_square,0,32,32,34,1,,,,,,,,,,,,,,,,,,,,,,,
773878,001,2022-11-21_24h51.32.264,Info_measure_main_exp,2022.2.2,Win32,164.4736842,,,,,,,,,,,,,,,,,,masks/mask_001.jpg,,,,,,,,,,,,,,,,,,,,,,,,,,,,,,,,,,,,,,,,,,,0,0,0,0,1,,,,,,,,,,,,,,,,,,,,,,,,,,,,,,,,,,,,,,,,,,,,,,
773878,001,2022-11-21_24h51.32.264,Info_measure_main_exp,2022.2.2,Win32,164.4736842,,,,,,,,,,,,,,,,,,masks/mask_002.jpg,,,,,,,,,,,,,,,,,,,,,,,,,,,,,,,,,,,,,,,,,,,0,1,1,1,1,,,,,,,,,,,,,,,,,,,,,,,,,,,,,,,,,,,,,,,,,,,,,,
773878,001,2022-11-21_24h51.32.264,Info_measure_main_exp,2022.2.2,Win32,164.4736842,,,,,,,,,,,,,,,,,,masks/mask_003.jpg,,,,,,,,,,,,,,,,,,,,,,,,,,,,,,,,,,,,,,,,,,,0,2,2,2,1,,,,,,,,,,,,,,,,,,,,,,,,,,,,,,,,,,,,,,,,,,,,,,
773878,001,2022-11-21_24h51.32.264,Info_measure_main_exp,2022.2.2,Win32,164.4736842,,,,,,,,,,,,,,,,,,masks/mask_004.jpg,,,,,,,,,,,,,,,,,,,,,,,,,,,,,,,,,,,,,,,,,,,0,3,3,3,1,,,,,,,,,,,,,,,,,,,,,,,,,,,,,,,,,,,,,,,,,,,,,,
773878,001,2022-11-21_24h51.32.264,Info_measure_main_exp,2022.2.2,Win32,164.4736842,,,,,,,,,,,,,,,,,,masks/mask_005.jpg,,,,,,,,,,,,,,,,,,,,,,,,,,,,,,,,,,,,,,,,,,,0,4,4,4,1,,,,,,,,,,,,,,,,,,,,,,,,,,,,,,,,,,,,,,,,,,,,,,
773878,001,2022-11-21_24h51.32.264,Info_measure_main_exp,2022.2.2,Win32,164.4736842,,,,,,,,,,,,,,,,,,masks/mask_001.jpg,,,,,,,,,,,,,,,,,,,,,,,,,,,,,,,,,,,,,,,,,,,,,,,,0,0,0,0,1,,,,,,,,,,,,,,,,,,,,,,,,,,,,,,,,,,,,,,,,,
773878,001,2022-11-21_24h51.32.264,Info_measure_main_exp,2022.2.2,Win32,164.4736842,,,,,,,,,,,,,,,,,,masks/mask_004.jpg,,,,,,,,,,,,,,,,,,,,,,,,,,,,,,,,,,,,,,,,,,,,,,,,0,1,1,3,1,,,,,,,,,,,,,,,,,,,,,,,,,,,,,,,,,,,,,,,,,
773878,001,2022-11-21_24h51.32.264,Info_measure_main_exp,2022.2.2,Win32,164.4736842,,,,,,,,,,,,,,,,,,masks/mask_005.jpg,,,,,,,,,,,,,,,,,,,,,,,,,,,,,,,,,,,,,,,,,,,,,,,,0,2,2,4,1,,,,,,,,,,,,,,,,,,,,,,,,,,,,,,,,,,,,,,,,,
773878,001,2022-11-21_24h51.32.264,Info_measure_main_exp,2022.2.2,Win32,164.4736842,,,,,,,,,,,,,,,,,,masks/mask_002.jpg,,,,,,,,,,,,,,,,,,,,,,,,,,,,,,,,,,,,,,,,,,,,,,,,0,3,3,1,1,,,,,,,,,,,,,,,,,,,,,,,,,,,,,,,,,,,,,,,,,
773878,001,2022-11-21_24h51.32.264,Info_measure_main_exp,2022.2.2,Win32,164.4736842,,,,,,,,,,,,,,,,,,masks/mask_003.jpg,,,,,,,,,,,,,,,,,,,,,,,,,,,,,,,,,,,,,,,,,,,,,,,,0,4,4,2,1,,,,,,,,,,,,,,,,,,,,,,,,,,,,,,,,,,,,,,,,,
773878,001,2022-11-21_24h51.32.264,Info_measure_main_exp,2022.2.2,Win32,164.4736842,,,,,,,,,,,,,,,,,,,,,,,,,,,,,,6,0.4765,1,,,,,,,,,,,,1,131,5,5,2190,1,absent_patch/patch0002190.jpg,present_patch/cong_131_5_a.jpg,,,,,,,,,,,,,,,,,,,,0.017592593,0.010185185,1,0,0,response1disk,34,0.010185185,0.002777778,1,0,0,center_square,0,33,33,64,1,,,,,,,,,,,,,,,,,,,,,,,
773878,001,2022-11-21_24h51.32.264,Info_measure_main_exp,2022.2.2,Win32,164.4736842,,,,,,,,,,,,,,,,,,masks/mask_004.jpg,,,,,,,,,,,,,,,,,,,,,,,,,,,,,,,,,,,,,,,,,,,0,0,0,3,1,,,,,,,,,,,,,,,,,,,,,,,,,,,,,,,,,,,,,,,,,,,,,,
773878,001,2022-11-21_24h51.32.264,Info_measure_main_exp,2022.2.2,Win32,164.4736842,,,,,,,,,,,,,,,,,,masks/mask_002.jpg,,,,,,,,,,,,,,,,,,,,,,,,,,,,,,,,,,,,,,,,,,,0,1,1,1,1,,,,,,,,,,,,,,,,,,,,,,,,,,,,,,,,,,,,,,,,,,,,,,
773878,001,2022-11-21_24h51.32.264,Info_measure_main_exp,2022.2.2,Win32,164.4736842,,,,,,,,,,,,,,,,,,masks/mask_005.jpg,,,,,,,,,,,,,,,,,,,,,,,,,,,,,,,,,,,,,,,,,,,0,2,2,4,1,,,,,,,,,,,,,,,,,,,,,,,,,,,,,,,,,,,,,,,,,,,,,,
773878,001,2022-11-21_24h51.32.264,Info_measure_main_exp,2022.2.2,Win32,164.4736842,,,,,,,,,,,,,,,,,,masks/mask_003.jpg,,,,,,,,,,,,,,,,,,,,,,,,,,,,,,,,,,,,,,,,,,,0,3,3,2,1,,,,,,,,,,,,,,,,,,,,,,,,,,,,,,,,,,,,,,,,,,,,,,
773878,001,2022-11-21_24h51.32.264,Info_measure_main_exp,2022.2.2,Win32,164.4736842,,,,,,,,,,,,,,,,,,masks/mask_001.jpg,,,,,,,,,,,,,,,,,,,,,,,,,,,,,,,,,,,,,,,,,,,0,4,4,0,1,,,,,,,,,,,,,,,,,,,,,,,,,,,,,,,,,,,,,,,,,,,,,,
773878,001,2022-11-21_24h51.32.264,Info_measure_main_exp,2022.2.2,Win32,164.4736842,,,,,,,,,,,,,,,,,,masks/mask_005.jpg,,,,,,,,,,,,,,,,,,,,,,,,,,,,,,,,,,,,,,,,,,,,,,,,0,0,0,4,1,,,,,,,,,,,,,,,,,,,,,,,,,,,,,,,,,,,,,,,,,
773878,001,2022-11-21_24h51.32.264,Info_measure_main_exp,2022.2.2,Win32,164.4736842,,,,,,,,,,,,,,,,,,masks/mask_004.jpg,,,,,,,,,,,,,,,,,,,,,,,,,,,,,,,,,,,,,,,,,,,,,,,,0,1,1,3,1,,,,,,,,,,,,,,,,,,,,,,,,,,,,,,,,,,,,,,,,,
773878,001,2022-11-21_24h51.32.264,Info_measure_main_exp,2022.2.2,Win32,164.4736842,,,,,,,,,,,,,,,,,,masks/mask_003.jpg,,,,,,,,,,,,,,,,,,,,,,,,,,,,,,,,,,,,,,,,,,,,,,,,0,2,2,2,1,,,,,,,,,,,,,,,,,,,,,,,,,,,,,,,,,,,,,,,,,
773878,001,2022-11-21_24h51.32.264,Info_measure_main_exp,2022.2.2,Win32,164.4736842,,,,,,,,,,,,,,,,,,masks/mask_001.jpg,,,,,,,,,,,,,,,,,,,,,,,,,,,,,,,,,,,,,,,,,,,,,,,,0,3,3,0,1,,,,,,,,,,,,,,,,,,,,,,,,,,,,,,,,,,,,,,,,,
