participant,session,date,expName,psychopyVersion,OS,frameRate,space_press_continue.keys,space_press_continue.rt,space_press_continue_2.keys,space_press_continue_2.rt,space_press_continue_3.keys,space_press_continue_3.rt,space_press_continue_4.keys,space_press_continue_4.rt,space_press_continue_5.keys,space_press_continue_5.rt,space_press_continue_6.keys,space_press_continue_6.rt,prac_mask_loop_1.thisRepN,prac_mask_loop_1.thisTrialN,prac_mask_loop_1.thisN,prac_mask_loop_1.thisIndex,prac_mask_loop_1.ran,mask_name,prac_mask_loop_2.thisRepN,prac_mask_loop_2.thisTrialN,prac_mask_loop_2.thisN,prac_mask_loop_2.thisIndex,prac_mask_loop_2.ran,mouse_2.x,mouse_2.y,mouse_2.leftButton,mouse_2.midButton,mouse_2.rightButton,mouse_2.clicked_name,similarity,response_time,Pass,mouse_12.x,mouse_12.y,mouse_12.leftButton,mouse_12.midButton,mouse_12.rightButton,mouse_12.clicked_name,prac_loop.thisRepN,prac_loop.thisTrialN,prac_loop.thisN,prac_loop.thisIndex,prac_loop.ran,Pair_type,Image_num,Patch_1_loc,Patch_2_loc,Patch_1_info,Patch_2_info,Patch_1_name,Patch_2_name,mouse_1.x,mouse_1.y,mouse_1.leftButton,mouse_1.midButton,mouse_1.rightButton,mouse_1.time,mouse_1.clicked_name,space_press_continue_7.keys,space_press_continue_7.rt,mask_loop.thisRepN,mask_loop.thisTrialN,mask_loop.thisN,mask_loop.thisIndex,mask_loop.ran,mask_loop_2.thisRepN,mask_loop_2.thisTrialN,mask_loop_2.thisN,mask_loop_2.thisIndex,mask_loop_2.ran,mouse.x,mouse.y,mouse.leftButton,mouse.midButton,mouse.rightButton,mouse.clicked_name,trialNumber,mouse_11.x,mouse_11.y,mouse_11.leftButton,mouse_11.midButton,mouse_11.rightButton,mouse_11.clicked_name,first_pass_loop.thisRepN,first_pass_loop.thisTrialN,first_pass_loop.thisN,first_pass_loop.thisIndex,first_pass_loop.ran,mask_loop_3.thisRepN,mask_loop_3.thisTrialN,mask_loop_3.thisN,mask_loop_3.thisIndex,mask_loop_3.ran,mask_loop_4.thisRepN,mask_loop_4.thisTrialN,mask_loop_4.thisN,mask_loop_4.thisIndex,mask_loop_4.ran,mouse_3.x,mouse_3.y,mouse_3.leftButton,mouse_3.midButton,mouse_3.rightButton,mouse_3.clicked_name,double_pass_loop.thisRepN,double_pass_loop.thisTrialN,double_pass_loop.thisN,double_pass_loop.thisIndex,double_pass_loop.ran,space_exit.keys,space_exit.rt
774484,001,2022-11-13_17h28.01.075,Info_measure_main_exp,2022.2.2,Win32,120.1345507,,,,,,,,,,,,,,,,,,,,,,,,,,,,,,,,,,,,,,,,,,,,,,,,,,,,,,,,,,,,,,,,,,,,,,,,,,,,,,,,,,,,,,,,,,,,,,,,,,,,,,,,,,,,,,,
774484,001,2022-11-13_17h28.01.075,Info_measure_main_exp,2022.2.2,Win32,120.1345507,,,,,,,,,,,,,,,,,,,,,,,,,,,,,,,,,,,,,,,,,,,,,,,,,,,,,,,,,,,,,,,,,,,,,,,,,,,,,,,,,,,,,,,,,,,,,,,,,,,,,,,,,,,,,,,
774484,001,2022-11-13_17h28.01.075,Info_measure_main_exp,2022.2.2,Win32,120.1345507,space,6.6712,,,,,,,,,,,,,,,,,,,,,,,,,,,,,,,,,,,,,,,,,,,,,,,,,,,,,,,,,,,,,,,,,,,,,,,,,,,,,,,,,,,,,,,,,,,,,,,,,,,,,,,,,,,,,
774484,001,2022-11-13_17h28.01.075,Info_measure_main_exp,2022.2.2,Win32,120.1345507,,,space,120.2359,,,,,,,,,,,,,,,,,,,,,,,,,,,,,,,,,,,,,,,,,,,,,,,,,,,,,,,,,,,,,,,,,,,,,,,,,,,,,,,,,,,,,,,,,,,,,,,,,,,,,,,,,,,
774484,001,2022-11-13_17h28.01.075,Info_measure_main_exp,2022.2.2,Win32,120.1345507,,,,,space,5.6379,,,,,,,,,,,,,,,,,,,,,,,,,,,,,,,,,,,,,,,,,,,,,,,,,,,,,,,,,,,,,,,,,,,,,,,,,,,,,,,,,,,,,,,,,,,,,,,,,,,,,,,,,
774484,001,2022-11-13_17h28.01.075,Info_measure_main_exp,2022.2.2,Win32,120.1345507,,,,,,,space,21.0452,,,,,,,,,,,,,,,,,,,,,,,,,,,,,,,,,,,,,,,,,,,,,,,,,,,,,,,,,,,,,,,,,,,,,,,,,,,,,,,,,,,,,,,,,,,,,,,,,,,,,,,
774484,001,2022-11-13_17h28.01.075,Info_measure_main_exp,2022.2.2,Win32,120.1345507,,,,,,,,,space,15.234,,,,,,,,,,,,,,,,,,,,,,,,,,,,,,,,,,,,,,,,,,,,,,,,,,,,,,,,,,,,,,,,,,,,,,,,,,,,,,,,,,,,,,,,,,,,,,,,,,,,,
774484,001,2022-11-13_17h28.01.075,Info_measure_main_exp,2022.2.2,Win32,120.1345507,,,,,,,,,,,space,3.2098,,,,,,,,,,,,,,,,,,,,,,,,,,,,,,,,,,,,,,,,,,,,,,,,,,,,,,,,,,,,,,,,,,,,,,,,,,,,,,,,,,,,,,,,,,,,,,,,,,,
774484,001,2022-11-13_17h28.01.075,Info_measure_main_exp,2022.2.2,Win32,120.1345507,,,,,,,,,,,,,0,0,0,0,1,masks/mask_001.jpg,,,,,,,,,,,,,,,,,,,,,,,,,,,,,,,,,,,,,,,,,,,,,,,,,,,,,,,,,,,,,,,,,,,,,,,,,,,,,,,,,,,,,,,,,,,,,
774484,001,2022-11-13_17h28.01.075,Info_measure_main_exp,2022.2.2,Win32,120.1345507,,,,,,,,,,,,,0,1,1,1,1,masks/mask_002.jpg,,,,,,,,,,,,,,,,,,,,,,,,,,,,,,,,,,,,,,,,,,,,,,,,,,,,,,,,,,,,,,,,,,,,,,,,,,,,,,,,,,,,,,,,,,,,,
774484,001,2022-11-13_17h28.01.075,Info_measure_main_exp,2022.2.2,Win32,120.1345507,,,,,,,,,,,,,0,2,2,4,1,masks/mask_005.jpg,,,,,,,,,,,,,,,,,,,,,,,,,,,,,,,,,,,,,,,,,,,,,,,,,,,,,,,,,,,,,,,,,,,,,,,,,,,,,,,,,,,,,,,,,,,,,
774484,001,2022-11-13_17h28.01.075,Info_measure_main_exp,2022.2.2,Win32,120.1345507,,,,,,,,,,,,,0,3,3,2,1,masks/mask_003.jpg,,,,,,,,,,,,,,,,,,,,,,,,,,,,,,,,,,,,,,,,,,,,,,,,,,,,,,,,,,,,,,,,,,,,,,,,,,,,,,,,,,,,,,,,,,,,,
774484,001,2022-11-13_17h28.01.075,Info_measure_main_exp,2022.2.2,Win32,120.1345507,,,,,,,,,,,,,0,4,4,3,1,masks/mask_004.jpg,,,,,,,,,,,,,,,,,,,,,,,,,,,,,,,,,,,,,,,,,,,,,,,,,,,,,,,,,,,,,,,,,,,,,,,,,,,,,,,,,,,,,,,,,,,,,
774484,001,2022-11-13_17h28.01.075,Info_measure_main_exp,2022.2.2,Win32,120.1345507,,,,,,,,,,,,,,,,,,masks/mask_003.jpg,0,0,0,2,1,,,,,,,,,,,,,,,,,,,,,,,,,,,,,,,,,,,,,,,,,,,,,,,,,,,,,,,,,,,,,,,,,,,,,,,,,,,,,,,,,,,,,,,,
774484,001,2022-11-13_17h28.01.075,Info_measure_main_exp,2022.2.2,Win32,120.1345507,,,,,,,,,,,,,,,,,,masks/mask_001.jpg,0,1,1,0,1,,,,,,,,,,,,,,,,,,,,,,,,,,,,,,,,,,,,,,,,,,,,,,,,,,,,,,,,,,,,,,,,,,,,,,,,,,,,,,,,,,,,,,,,
774484,001,2022-11-13_17h28.01.075,Info_measure_main_exp,2022.2.2,Win32,120.1345507,,,,,,,,,,,,,,,,,,masks/mask_005.jpg,0,2,2,4,1,,,,,,,,,,,,,,,,,,,,,,,,,,,,,,,,,,,,,,,,,,,,,,,,,,,,,,,,,,,,,,,,,,,,,,,,,,,,,,,,,,,,,,,,
774484,001,2022-11-13_17h28.01.075,Info_measure_main_exp,2022.2.2,Win32,120.1345507,,,,,,,,,,,,,,,,,,masks/mask_004.jpg,0,3,3,3,1,,,,,,,,,,,,,,,,,,,,,,,,,,,,,,,,,,,,,,,,,,,,,,,,,,,,,,,,,,,,,,,,,,,,,,,,,,,,,,,,,,,,,,,,
774484,001,2022-11-13_17h28.01.075,Info_measure_main_exp,2022.2.2,Win32,120.1345507,,,,,,,,,,,,,,,,,,masks/mask_002.jpg,0,4,4,1,1,,,,,,,,,,,,,,,,,,,,,,,,,,,,,,,,,,,,,,,,,,,,,,,,,,,,,,,,,,,,,,,,,,,,,,,,,,,,,,,,,,,,,,,,
774484,001,2022-11-13_17h28.01.075,Info_measure_main_exp,2022.2.2,Win32,120.1345507,,,,,,,,,,,,,,,,,,,,,,,,-0.114814829,-0.161111125,1,0,0,response5disk,3,183.1513,1,0.006481524,-0.001851859,1,0,0,center_square,0,0,0,1,1,0,131,5,5,2514,2490,prac_patch/patch0002514.jpg,prac_patch/patch0002490.jpg,,,,,,,,,,,,,,,,,,,,,,,,,,,,,,,,,,,,,,,,,,,,,,,,,,,,,,,,,,,,
774484,001,2022-11-13_17h28.01.075,Info_measure_main_exp,2022.2.2,Win32,120.1345507,,,,,,,,,,,,,0,0,0,2,1,masks/mask_003.jpg,,,,,,,,,,,,,,,,,,,,,,,,,,,,,,,,,,,,,,,,,,,,,,,,,,,,,,,,,,,,,,,,,,,,,,,,,,,,,,,,,,,,,,,,,,,,,
774484,001,2022-11-13_17h28.01.075,Info_measure_main_exp,2022.2.2,Win32,120.1345507,,,,,,,,,,,,,0,1,1,0,1,masks/mask_001.jpg,,,,,,,,,,,,,,,,,,,,,,,,,,,,,,,,,,,,,,,,,,,,,,,,,,,,,,,,,,,,,,,,,,,,,,,,,,,,,,,,,,,,,,,,,,,,,
774484,001,2022-11-13_17h28.01.075,Info_measure_main_exp,2022.2.2,Win32,120.1345507,,,,,,,,,,,,,0,2,2,3,1,masks/mask_004.jpg,,,,,,,,,,,,,,,,,,,,,,,,,,,,,,,,,,,,,,,,,,,,,,,,,,,,,,,,,,,,,,,,,,,,,,,,,,,,,,,,,,,,,,,,,,,,,
774484,001,2022-11-13_17h28.01.075,Info_measure_main_exp,2022.2.2,Win32,120.1345507,,,,,,,,,,,,,0,3,3,1,1,masks/mask_002.jpg,,,,,,,,,,,,,,,,,,,,,,,,,,,,,,,,,,,,,,,,,,,,,,,,,,,,,,,,,,,,,,,,,,,,,,,,,,,,,,,,,,,,,,,,,,,,,
774484,001,2022-11-13_17h28.01.075,Info_measure_main_exp,2022.2.2,Win32,120.1345507,,,,,,,,,,,,,0,4,4,4,1,masks/mask_005.jpg,,,,,,,,,,,,,,,,,,,,,,,,,,,,,,,,,,,,,,,,,,,,,,,,,,,,,,,,,,,,,,,,,,,,,,,,,,,,,,,,,,,,,,,,,,,,,
774484,001,2022-11-13_17h28.01.075,Info_measure_main_exp,2022.2.2,Win32,120.1345507,,,,,,,,,,,,,,,,,,masks/mask_003.jpg,0,0,0,2,1,,,,,,,,,,,,,,,,,,,,,,,,,,,,,,,,,,,,,,,,,,,,,,,,,,,,,,,,,,,,,,,,,,,,,,,,,,,,,,,,,,,,,,,,
774484,001,2022-11-13_17h28.01.075,Info_measure_main_exp,2022.2.2,Win32,120.1345507,,,,,,,,,,,,,,,,,,masks/mask_001.jpg,0,1,1,0,1,,,,,,,,,,,,,,,,,,,,,,,,,,,,,,,,,,,,,,,,,,,,,,,,,,,,,,,,,,,,,,,,,,,,,,,,,,,,,,,,,,,,,,,,
774484,001,2022-11-13_17h28.01.075,Info_measure_main_exp,2022.2.2,Win32,120.1345507,,,,,,,,,,,,,,,,,,masks/mask_002.jpg,0,2,2,1,1,,,,,,,,,,,,,,,,,,,,,,,,,,,,,,,,,,,,,,,,,,,,,,,,,,,,,,,,,,,,,,,,,,,,,,,,,,,,,,,,,,,,,,,,
774484,001,2022-11-13_17h28.01.075,Info_measure_main_exp,2022.2.2,Win32,120.1345507,,,,,,,,,,,,,,,,,,masks/mask_005.jpg,0,3,3,4,1,,,,,,,,,,,,,,,,,,,,,,,,,,,,,,,,,,,,,,,,,,,,,,,,,,,,,,,,,,,,,,,,,,,,,,,,,,,,,,,,,,,,,,,,
774484,001,2022-11-13_17h28.01.075,Info_measure_main_exp,2022.2.2,Win32,120.1345507,,,,,,,,,,,,,,,,,,masks/mask_004.jpg,0,4,4,3,1,,,,,,,,,,,,,,,,,,,,,,,,,,,,,,,,,,,,,,,,,,,,,,,,,,,,,,,,,,,,,,,,,,,,,,,,,,,,,,,,,,,,,,,,
774484,001,2022-11-13_17h28.01.075,Info_measure_main_exp,2022.2.2,Win32,120.1345507,,,,,,,,,,,,,,,,,,,,,,,,-0.058333291,0.12962963,1,0,0,response7disk,0,201.0389,1,-0.000925912,0,1,0,0,center_square,0,1,1,2,1,0,131,5,5,2526,2526,prac_patch/patch0002526.jpg,prac_patch/patch0002526.jpg,,,,,,,,,,,,,,,,,,,,,,,,,,,,,,,,,,,,,,,,,,,,,,,,,,,,,,,,,,,,
774484,001,2022-11-13_17h28.01.075,Info_measure_main_exp,2022.2.2,Win32,120.1345507,,,,,,,,,,,,,0,0,0,4,1,masks/mask_005.jpg,,,,,,,,,,,,,,,,,,,,,,,,,,,,,,,,,,,,,,,,,,,,,,,,,,,,,,,,,,,,,,,,,,,,,,,,,,,,,,,,,,,,,,,,,,,,,
774484,001,2022-11-13_17h28.01.075,Info_measure_main_exp,2022.2.2,Win32,120.1345507,,,,,,,,,,,,,0,1,1,3,1,masks/mask_004.jpg,,,,,,,,,,,,,,,,,,,,,,,,,,,,,,,,,,,,,,,,,,,,,,,,,,,,,,,,,,,,,,,,,,,,,,,,,,,,,,,,,,,,,,,,,,,,,
774484,001,2022-11-13_17h28.01.075,Info_measure_main_exp,2022.2.2,Win32,120.1345507,,,,,,,,,,,,,0,2,2,0,1,masks/mask_001.jpg,,,,,,,,,,,,,,,,,,,,,,,,,,,,,,,,,,,,,,,,,,,,,,,,,,,,,,,,,,,,,,,,,,,,,,,,,,,,,,,,,,,,,,,,,,,,,
774484,001,2022-11-13_17h28.01.075,Info_measure_main_exp,2022.2.2,Win32,120.1345507,,,,,,,,,,,,,0,3,3,2,1,masks/mask_003.jpg,,,,,,,,,,,,,,,,,,,,,,,,,,,,,,,,,,,,,,,,,,,,,,,,,,,,,,,,,,,,,,,,,,,,,,,,,,,,,,,,,,,,,,,,,,,,,
774484,001,2022-11-13_17h28.01.075,Info_measure_main_exp,2022.2.2,Win32,120.1345507,,,,,,,,,,,,,0,4,4,1,1,masks/mask_002.jpg,,,,,,,,,,,,,,,,,,,,,,,,,,,,,,,,,,,,,,,,,,,,,,,,,,,,,,,,,,,,,,,,,,,,,,,,,,,,,,,,,,,,,,,,,,,,,
774484,001,2022-11-13_17h28.01.075,Info_measure_main_exp,2022.2.2,Win32,120.1345507,,,,,,,,,,,,,,,,,,masks/mask_003.jpg,0,0,0,2,1,,,,,,,,,,,,,,,,,,,,,,,,,,,,,,,,,,,,,,,,,,,,,,,,,,,,,,,,,,,,,,,,,,,,,,,,,,,,,,,,,,,,,,,,
774484,001,2022-11-13_17h28.01.075,Info_measure_main_exp,2022.2.2,Win32,120.1345507,,,,,,,,,,,,,,,,,,masks/mask_005.jpg,0,1,1,4,1,,,,,,,,,,,,,,,,,,,,,,,,,,,,,,,,,,,,,,,,,,,,,,,,,,,,,,,,,,,,,,,,,,,,,,,,,,,,,,,,,,,,,,,,
774484,001,2022-11-13_17h28.01.075,Info_measure_main_exp,2022.2.2,Win32,120.1345507,,,,,,,,,,,,,,,,,,masks/mask_002.jpg,0,2,2,1,1,,,,,,,,,,,,,,,,,,,,,,,,,,,,,,,,,,,,,,,,,,,,,,,,,,,,,,,,,,,,,,,,,,,,,,,,,,,,,,,,,,,,,,,,
774484,001,2022-11-13_17h28.01.075,Info_measure_main_exp,2022.2.2,Win32,120.1345507,,,,,,,,,,,,,,,,,,masks/mask_001.jpg,0,3,3,0,1,,,,,,,,,,,,,,,,,,,,,,,,,,,,,,,,,,,,,,,,,,,,,,,,,,,,,,,,,,,,,,,,,,,,,,,,,,,,,,,,,,,,,,,,
774484,001,2022-11-13_17h28.01.075,Info_measure_main_exp,2022.2.2,Win32,120.1345507,,,,,,,,,,,,,,,,,,masks/mask_004.jpg,0,4,4,3,1,,,,,,,,,,,,,,,,,,,,,,,,,,,,,,,,,,,,,,,,,,,,,,,,,,,,,,,,,,,,,,,,,,,,,,,,,,,,,,,,,,,,,,,,
774484,001,2022-11-13_17h28.01.075,Info_measure_main_exp,2022.2.2,Win32,120.1345507,,,,,,,,,,,,,,,,,,,,,,,,0.049074102,0.133333312,1,0,0,response1disk,7,215.5215,1,0,-0.0074074,1,0,0,center_square,0,2,2,0,1,0,131,5,5,2370,2406,prac_patch/patch0002370.jpg,prac_patch/patch0002406.jpg,,,,,,,,,,,,,,,,,,,,,,,,,,,,,,,,,,,,,,,,,,,,,,,,,,,,,,,,,,,,
774484,001,2022-11-13_17h28.01.075,Info_measure_main_exp,2022.2.2,Win32,120.1345507,,,,,,,,,,,,,,,,,,,,,,,,,,,,,,,,,,,,,,,,,,,,,,,,,,,,,,,,,,,space,2.6578,,,,,,,,,,,,,,,,,,,,,,,,,,,,,,,,,,,,,,,,,,,,,,,,,,,
774484,001,2022-11-13_17h28.01.075,Info_measure_main_exp,2022.2.2,Win32,120.1345507,,,,,,,,,,,,,,,,,,masks/mask_001.jpg,,,,,,,,,,,,,,,,,,,,,,,,,,,,,,,,,,,,,,,,,,,0,0,0,0,1,,,,,,,,,,,,,,,,,,,,,,,,,,,,,,,,,,,,,,,,,,,,,,
774484,001,2022-11-13_17h28.01.075,Info_measure_main_exp,2022.2.2,Win32,120.1345507,,,,,,,,,,,,,,,,,,masks/mask_002.jpg,,,,,,,,,,,,,,,,,,,,,,,,,,,,,,,,,,,,,,,,,,,0,1,1,1,1,,,,,,,,,,,,,,,,,,,,,,,,,,,,,,,,,,,,,,,,,,,,,,
774484,001,2022-11-13_17h28.01.075,Info_measure_main_exp,2022.2.2,Win32,120.1345507,,,,,,,,,,,,,,,,,,masks/mask_004.jpg,,,,,,,,,,,,,,,,,,,,,,,,,,,,,,,,,,,,,,,,,,,0,2,2,3,1,,,,,,,,,,,,,,,,,,,,,,,,,,,,,,,,,,,,,,,,,,,,,,
774484,001,2022-11-13_17h28.01.075,Info_measure_main_exp,2022.2.2,Win32,120.1345507,,,,,,,,,,,,,,,,,,masks/mask_005.jpg,,,,,,,,,,,,,,,,,,,,,,,,,,,,,,,,,,,,,,,,,,,0,3,3,4,1,,,,,,,,,,,,,,,,,,,,,,,,,,,,,,,,,,,,,,,,,,,,,,
774484,001,2022-11-13_17h28.01.075,Info_measure_main_exp,2022.2.2,Win32,120.1345507,,,,,,,,,,,,,,,,,,masks/mask_003.jpg,,,,,,,,,,,,,,,,,,,,,,,,,,,,,,,,,,,,,,,,,,,0,4,4,2,1,,,,,,,,,,,,,,,,,,,,,,,,,,,,,,,,,,,,,,,,,,,,,,
774484,001,2022-11-13_17h28.01.075,Info_measure_main_exp,2022.2.2,Win32,120.1345507,,,,,,,,,,,,,,,,,,masks/mask_002.jpg,,,,,,,,,,,,,,,,,,,,,,,,,,,,,,,,,,,,,,,,,,,,,,,,0,0,0,1,1,,,,,,,,,,,,,,,,,,,,,,,,,,,,,,,,,,,,,,,,,
774484,001,2022-11-13_17h28.01.075,Info_measure_main_exp,2022.2.2,Win32,120.1345507,,,,,,,,,,,,,,,,,,masks/mask_003.jpg,,,,,,,,,,,,,,,,,,,,,,,,,,,,,,,,,,,,,,,,,,,,,,,,0,1,1,2,1,,,,,,,,,,,,,,,,,,,,,,,,,,,,,,,,,,,,,,,,,
774484,001,2022-11-13_17h28.01.075,Info_measure_main_exp,2022.2.2,Win32,120.1345507,,,,,,,,,,,,,,,,,,masks/mask_004.jpg,,,,,,,,,,,,,,,,,,,,,,,,,,,,,,,,,,,,,,,,,,,,,,,,0,2,2,3,1,,,,,,,,,,,,,,,,,,,,,,,,,,,,,,,,,,,,,,,,,
774484,001,2022-11-13_17h28.01.075,Info_measure_main_exp,2022.2.2,Win32,120.1345507,,,,,,,,,,,,,,,,,,masks/mask_005.jpg,,,,,,,,,,,,,,,,,,,,,,,,,,,,,,,,,,,,,,,,,,,,,,,,0,3,3,4,1,,,,,,,,,,,,,,,,,,,,,,,,,,,,,,,,,,,,,,,,,
774484,001,2022-11-13_17h28.01.075,Info_measure_main_exp,2022.2.2,Win32,120.1345507,,,,,,,,,,,,,,,,,,masks/mask_001.jpg,,,,,,,,,,,,,,,,,,,,,,,,,,,,,,,,,,,,,,,,,,,,,,,,0,4,4,0,1,,,,,,,,,,,,,,,,,,,,,,,,,,,,,,,,,,,,,,,,,
774484,001,2022-11-13_17h28.01.075,Info_measure_main_exp,2022.2.2,Win32,120.1345507,,,,,,,,,,,,,,,,,,,,,,,,,,,,,,5,2.962,1,,,,,,,,,,,,0,131,5,5,2082,2298,absent_patch/patch0002082.jpg,absent_patch/patch0002298.jpg,,,,,,,,,,,,,,,,,,,,0.114814829,-0.044444437,1,0,0,response3disk,1,0,-0.001851859,1,0,0,center_square,0,0,0,107,1,,,,,,,,,,,,,,,,,,,,,,,
774484,001,2022-11-13_17h28.01.075,Info_measure_main_exp,2022.2.2,Win32,120.1345507,,,,,,,,,,,,,,,,,,masks/mask_005.jpg,,,,,,,,,,,,,,,,,,,,,,,,,,,,,,,,,,,,,,,,,,,0,0,0,4,1,,,,,,,,,,,,,,,,,,,,,,,,,,,,,,,,,,,,,,,,,,,,,,
774484,001,2022-11-13_17h28.01.075,Info_measure_main_exp,2022.2.2,Win32,120.1345507,,,,,,,,,,,,,,,,,,masks/mask_002.jpg,,,,,,,,,,,,,,,,,,,,,,,,,,,,,,,,,,,,,,,,,,,0,1,1,1,1,,,,,,,,,,,,,,,,,,,,,,,,,,,,,,,,,,,,,,,,,,,,,,
774484,001,2022-11-13_17h28.01.075,Info_measure_main_exp,2022.2.2,Win32,120.1345507,,,,,,,,,,,,,,,,,,masks/mask_001.jpg,,,,,,,,,,,,,,,,,,,,,,,,,,,,,,,,,,,,,,,,,,,0,2,2,0,1,,,,,,,,,,,,,,,,,,,,,,,,,,,,,,,,,,,,,,,,,,,,,,
774484,001,2022-11-13_17h28.01.075,Info_measure_main_exp,2022.2.2,Win32,120.1345507,,,,,,,,,,,,,,,,,,masks/mask_003.jpg,,,,,,,,,,,,,,,,,,,,,,,,,,,,,,,,,,,,,,,,,,,0,3,3,2,1,,,,,,,,,,,,,,,,,,,,,,,,,,,,,,,,,,,,,,,,,,,,,,
774484,001,2022-11-13_17h28.01.075,Info_measure_main_exp,2022.2.2,Win32,120.1345507,,,,,,,,,,,,,,,,,,masks/mask_004.jpg,,,,,,,,,,,,,,,,,,,,,,,,,,,,,,,,,,,,,,,,,,,0,4,4,3,1,,,,,,,,,,,,,,,,,,,,,,,,,,,,,,,,,,,,,,,,,,,,,,
774484,001,2022-11-13_17h28.01.075,Info_measure_main_exp,2022.2.2,Win32,120.1345507,,,,,,,,,,,,,,,,,,masks/mask_002.jpg,,,,,,,,,,,,,,,,,,,,,,,,,,,,,,,,,,,,,,,,,,,,,,,,0,0,0,1,1,,,,,,,,,,,,,,,,,,,,,,,,,,,,,,,,,,,,,,,,,
774484,001,2022-11-13_17h28.01.075,Info_measure_main_exp,2022.2.2,Win32,120.1345507,,,,,,,,,,,,,,,,,,masks/mask_001.jpg,,,,,,,,,,,,,,,,,,,,,,,,,,,,,,,,,,,,,,,,,,,,,,,,0,1,1,0,1,,,,,,,,,,,,,,,,,,,,,,,,,,,,,,,,,,,,,,,,,
774484,001,2022-11-13_17h28.01.075,Info_measure_main_exp,2022.2.2,Win32,120.1345507,,,,,,,,,,,,,,,,,,masks/mask_005.jpg,,,,,,,,,,,,,,,,,,,,,,,,,,,,,,,,,,,,,,,,,,,,,,,,0,2,2,4,1,,,,,,,,,,,,,,,,,,,,,,,,,,,,,,,,,,,,,,,,,
774484,001,2022-11-13_17h28.01.075,Info_measure_main_exp,2022.2.2,Win32,120.1345507,,,,,,,,,,,,,,,,,,masks/mask_004.jpg,,,,,,,,,,,,,,,,,,,,,,,,,,,,,,,,,,,,,,,,,,,,,,,,0,3,3,3,1,,,,,,,,,,,,,,,,,,,,,,,,,,,,,,,,,,,,,,,,,
774484,001,2022-11-13_17h28.01.075,Info_measure_main_exp,2022.2.2,Win32,120.1345507,,,,,,,,,,,,,,,,,,masks/mask_003.jpg,,,,,,,,,,,,,,,,,,,,,,,,,,,,,,,,,,,,,,,,,,,,,,,,0,4,4,2,1,,,,,,,,,,,,,,,,,,,,,,,,,,,,,,,,,,,,,,,,,
774484,001,2022-11-13_17h28.01.075,Info_measure_main_exp,2022.2.2,Win32,120.1345507,,,,,,,,,,,,,,,,,,,,,,,,,,,,,,0,1.0565,1,,,,,,,,,,,,0,131,5,5,2214,2214,absent_patch/patch0002214.jpg,absent_patch/patch0002214.jpg,,,,,,,,,,,,,,,,,,,,-0.033333319,0.134259259,1,0,0,response7disk,2,0.006481524,0,1,0,0,center_square,0,1,1,115,1,,,,,,,,,,,,,,,,,,,,,,,
774484,001,2022-11-13_17h28.01.075,Info_measure_main_exp,2022.2.2,Win32,120.1345507,,,,,,,,,,,,,,,,,,masks/mask_003.jpg,,,,,,,,,,,,,,,,,,,,,,,,,,,,,,,,,,,,,,,,,,,0,0,0,2,1,,,,,,,,,,,,,,,,,,,,,,,,,,,,,,,,,,,,,,,,,,,,,,
774484,001,2022-11-13_17h28.01.075,Info_measure_main_exp,2022.2.2,Win32,120.1345507,,,,,,,,,,,,,,,,,,masks/mask_004.jpg,,,,,,,,,,,,,,,,,,,,,,,,,,,,,,,,,,,,,,,,,,,0,1,1,3,1,,,,,,,,,,,,,,,,,,,,,,,,,,,,,,,,,,,,,,,,,,,,,,
774484,001,2022-11-13_17h28.01.075,Info_measure_main_exp,2022.2.2,Win32,120.1345507,,,,,,,,,,,,,,,,,,masks/mask_005.jpg,,,,,,,,,,,,,,,,,,,,,,,,,,,,,,,,,,,,,,,,,,,0,2,2,4,1,,,,,,,,,,,,,,,,,,,,,,,,,,,,,,,,,,,,,,,,,,,,,,
774484,001,2022-11-13_17h28.01.075,Info_measure_main_exp,2022.2.2,Win32,120.1345507,,,,,,,,,,,,,,,,,,masks/mask_002.jpg,,,,,,,,,,,,,,,,,,,,,,,,,,,,,,,,,,,,,,,,,,,0,3,3,1,1,,,,,,,,,,,,,,,,,,,,,,,,,,,,,,,,,,,,,,,,,,,,,,
774484,001,2022-11-13_17h28.01.075,Info_measure_main_exp,2022.2.2,Win32,120.1345507,,,,,,,,,,,,,,,,,,masks/mask_001.jpg,,,,,,,,,,,,,,,,,,,,,,,,,,,,,,,,,,,,,,,,,,,0,4,4,0,1,,,,,,,,,,,,,,,,,,,,,,,,,,,,,,,,,,,,,,,,,,,,,,
774484,001,2022-11-13_17h28.01.075,Info_measure_main_exp,2022.2.2,Win32,120.1345507,,,,,,,,,,,,,,,,,,masks/mask_004.jpg,,,,,,,,,,,,,,,,,,,,,,,,,,,,,,,,,,,,,,,,,,,,,,,,0,0,0,3,1,,,,,,,,,,,,,,,,,,,,,,,,,,,,,,,,,,,,,,,,,
774484,001,2022-11-13_17h28.01.075,Info_measure_main_exp,2022.2.2,Win32,120.1345507,,,,,,,,,,,,,,,,,,masks/mask_002.jpg,,,,,,,,,,,,,,,,,,,,,,,,,,,,,,,,,,,,,,,,,,,,,,,,0,1,1,1,1,,,,,,,,,,,,,,,,,,,,,,,,,,,,,,,,,,,,,,,,,
774484,001,2022-11-13_17h28.01.075,Info_measure_main_exp,2022.2.2,Win32,120.1345507,,,,,,,,,,,,,,,,,,masks/mask_001.jpg,,,,,,,,,,,,,,,,,,,,,,,,,,,,,,,,,,,,,,,,,,,,,,,,0,2,2,0,1,,,,,,,,,,,,,,,,,,,,,,,,,,,,,,,,,,,,,,,,,
774484,001,2022-11-13_17h28.01.075,Info_measure_main_exp,2022.2.2,Win32,120.1345507,,,,,,,,,,,,,,,,,,masks/mask_003.jpg,,,,,,,,,,,,,,,,,,,,,,,,,,,,,,,,,,,,,,,,,,,,,,,,0,3,3,2,1,,,,,,,,,,,,,,,,,,,,,,,,,,,,,,,,,,,,,,,,,
774484,001,2022-11-13_17h28.01.075,Info_measure_main_exp,2022.2.2,Win32,120.1345507,,,,,,,,,,,,,,,,,,masks/mask_005.jpg,,,,,,,,,,,,,,,,,,,,,,,,,,,,,,,,,,,,,,,,,,,,,,,,0,4,4,4,1,,,,,,,,,,,,,,,,,,,,,,,,,,,,,,,,,,,,,,,,,
774484,001,2022-11-13_17h28.01.075,Info_measure_main_exp,2022.2.2,Win32,120.1345507,,,,,,,,,,,,,,,,,,,,,,,,,,,,,,6,1.7469,1,,,,,,,,,,,,1,131,5,5,1950,1,absent_patch/patch0001950.jpg,present_patch/cong_131_5_a.jpg,,,,,,,,,,,,,,,,,,,,0.143518519,0.057407414,1,0,0,response1disk,3,0.002777806,0.001851859,1,0,0,center_square,0,2,2,39,1,,,,,,,,,,,,,,,,,,,,,,,
774484,001,2022-11-13_17h28.01.075,Info_measure_main_exp,2022.2.2,Win32,120.1345507,,,,,,,,,,,,,,,,,,masks/mask_003.jpg,,,,,,,,,,,,,,,,,,,,,,,,,,,,,,,,,,,,,,,,,,,0,0,0,2,1,,,,,,,,,,,,,,,,,,,,,,,,,,,,,,,,,,,,,,,,,,,,,,
774484,001,2022-11-13_17h28.01.075,Info_measure_main_exp,2022.2.2,Win32,120.1345507,,,,,,,,,,,,,,,,,,masks/mask_005.jpg,,,,,,,,,,,,,,,,,,,,,,,,,,,,,,,,,,,,,,,,,,,0,1,1,4,1,,,,,,,,,,,,,,,,,,,,,,,,,,,,,,,,,,,,,,,,,,,,,,
774484,001,2022-11-13_17h28.01.075,Info_measure_main_exp,2022.2.2,Win32,120.1345507,,,,,,,,,,,,,,,,,,masks/mask_004.jpg,,,,,,,,,,,,,,,,,,,,,,,,,,,,,,,,,,,,,,,,,,,0,2,2,3,1,,,,,,,,,,,,,,,,,,,,,,,,,,,,,,,,,,,,,,,,,,,,,,
774484,001,2022-11-13_17h28.01.075,Info_measure_main_exp,2022.2.2,Win32,120.1345507,,,,,,,,,,,,,,,,,,masks/mask_001.jpg,,,,,,,,,,,,,,,,,,,,,,,,,,,,,,,,,,,,,,,,,,,0,3,3,0,1,,,,,,,,,,,,,,,,,,,,,,,,,,,,,,,,,,,,,,,,,,,,,,
774484,001,2022-11-13_17h28.01.075,Info_measure_main_exp,2022.2.2,Win32,120.1345507,,,,,,,,,,,,,,,,,,masks/mask_002.jpg,,,,,,,,,,,,,,,,,,,,,,,,,,,,,,,,,,,,,,,,,,,0,4,4,1,1,,,,,,,,,,,,,,,,,,,,,,,,,,,,,,,,,,,,,,,,,,,,,,
774484,001,2022-11-13_17h28.01.075,Info_measure_main_exp,2022.2.2,Win32,120.1345507,,,,,,,,,,,,,,,,,,masks/mask_003.jpg,,,,,,,,,,,,,,,,,,,,,,,,,,,,,,,,,,,,,,,,,,,,,,,,0,0,0,2,1,,,,,,,,,,,,,,,,,,,,,,,,,,,,,,,,,,,,,,,,,
774484,001,2022-11-13_17h28.01.075,Info_measure_main_exp,2022.2.2,Win32,120.1345507,,,,,,,,,,,,,,,,,,masks/mask_005.jpg,,,,,,,,,,,,,,,,,,,,,,,,,,,,,,,,,,,,,,,,,,,,,,,,0,1,1,4,1,,,,,,,,,,,,,,,,,,,,,,,,,,,,,,,,,,,,,,,,,
774484,001,2022-11-13_17h28.01.075,Info_measure_main_exp,2022.2.2,Win32,120.1345507,,,,,,,,,,,,,,,,,,masks/mask_004.jpg,,,,,,,,,,,,,,,,,,,,,,,,,,,,,,,,,,,,,,,,,,,,,,,,0,2,2,3,1,,,,,,,,,,,,,,,,,,,,,,,,,,,,,,,,,,,,,,,,,
774484,001,2022-11-13_17h28.01.075,Info_measure_main_exp,2022.2.2,Win32,120.1345507,,,,,,,,,,,,,,,,,,masks/mask_001.jpg,,,,,,,,,,,,,,,,,,,,,,,,,,,,,,,,,,,,,,,,,,,,,,,,0,3,3,0,1,,,,,,,,,,,,,,,,,,,,,,,,,,,,,,,,,,,,,,,,,
774484,001,2022-11-13_17h28.01.075,Info_measure_main_exp,2022.2.2,Win32,120.1345507,,,,,,,,,,,,,,,,,,masks/mask_002.jpg,,,,,,,,,,,,,,,,,,,,,,,,,,,,,,,,,,,,,,,,,,,,,,,,0,4,4,1,1,,,,,,,,,,,,,,,,,,,,,,,,,,,,,,,,,,,,,,,,,
774484,001,2022-11-13_17h28.01.075,Info_measure_main_exp,2022.2.2,Win32,120.1345507,,,,,,,,,,,,,,,,,,,,,,,,,,,,,,7,1.0315,1,,,,,,,,,,,,0,131,5,5,1974,2250,absent_patch/patch0001974.jpg,absent_patch/patch0002250.jpg,,,,,,,,,,,,,,,,,,,,0.062962991,0.140740748,1,0,0,response1disk,4,0.001851894,0.002777771,1,0,0,center_square,0,3,3,55,1,,,,,,,,,,,,,,,,,,,,,,,
774484,001,2022-11-13_17h28.01.075,Info_measure_main_exp,2022.2.2,Win32,120.1345507,,,,,,,,,,,,,,,,,,masks/mask_002.jpg,,,,,,,,,,,,,,,,,,,,,,,,,,,,,,,,,,,,,,,,,,,0,0,0,1,1,,,,,,,,,,,,,,,,,,,,,,,,,,,,,,,,,,,,,,,,,,,,,,
774484,001,2022-11-13_17h28.01.075,Info_measure_main_exp,2022.2.2,Win32,120.1345507,,,,,,,,,,,,,,,,,,masks/mask_005.jpg,,,,,,,,,,,,,,,,,,,,,,,,,,,,,,,,,,,,,,,,,,,0,1,1,4,1,,,,,,,,,,,,,,,,,,,,,,,,,,,,,,,,,,,,,,,,,,,,,,
774484,001,2022-11-13_17h28.01.075,Info_measure_main_exp,2022.2.2,Win32,120.1345507,,,,,,,,,,,,,,,,,,masks/mask_001.jpg,,,,,,,,,,,,,,,,,,,,,,,,,,,,,,,,,,,,,,,,,,,0,2,2,0,1,,,,,,,,,,,,,,,,,,,,,,,,,,,,,,,,,,,,,,,,,,,,,,
774484,001,2022-11-13_17h28.01.075,Info_measure_main_exp,2022.2.2,Win32,120.1345507,,,,,,,,,,,,,,,,,,masks/mask_004.jpg,,,,,,,,,,,,,,,,,,,,,,,,,,,,,,,,,,,,,,,,,,,0,3,3,3,1,,,,,,,,,,,,,,,,,,,,,,,,,,,,,,,,,,,,,,,,,,,,,,
774484,001,2022-11-13_17h28.01.075,Info_measure_main_exp,2022.2.2,Win32,120.1345507,,,,,,,,,,,,,,,,,,masks/mask_003.jpg,,,,,,,,,,,,,,,,,,,,,,,,,,,,,,,,,,,,,,,,,,,0,4,4,2,1,,,,,,,,,,,,,,,,,,,,,,,,,,,,,,,,,,,,,,,,,,,,,,
774484,001,2022-11-13_17h28.01.075,Info_measure_main_exp,2022.2.2,Win32,120.1345507,,,,,,,,,,,,,,,,,,masks/mask_002.jpg,,,,,,,,,,,,,,,,,,,,,,,,,,,,,,,,,,,,,,,,,,,,,,,,0,0,0,1,1,,,,,,,,,,,,,,,,,,,,,,,,,,,,,,,,,,,,,,,,,
774484,001,2022-11-13_17h28.01.075,Info_measure_main_exp,2022.2.2,Win32,120.1345507,,,,,,,,,,,,,,,,,,masks/mask_004.jpg,,,,,,,,,,,,,,,,,,,,,,,,,,,,,,,,,,,,,,,,,,,,,,,,0,1,1,3,1,,,,,,,,,,,,,,,,,,,,,,,,,,,,,,,,,,,,,,,,,
774484,001,2022-11-13_17h28.01.075,Info_measure_main_exp,2022.2.2,Win32,120.1345507,,,,,,,,,,,,,,,,,,masks/mask_003.jpg,,,,,,,,,,,,,,,,,,,,,,,,,,,,,,,,,,,,,,,,,,,,,,,,0,2,2,2,1,,,,,,,,,,,,,,,,,,,,,,,,,,,,,,,,,,,,,,,,,
774484,001,2022-11-13_17h28.01.075,Info_measure_main_exp,2022.2.2,Win32,120.1345507,,,,,,,,,,,,,,,,,,masks/mask_005.jpg,,,,,,,,,,,,,,,,,,,,,,,,,,,,,,,,,,,,,,,,,,,,,,,,0,3,3,4,1,,,,,,,,,,,,,,,,,,,,,,,,,,,,,,,,,,,,,,,,,
774484,001,2022-11-13_17h28.01.075,Info_measure_main_exp,2022.2.2,Win32,120.1345507,,,,,,,,,,,,,,,,,,masks/mask_001.jpg,,,,,,,,,,,,,,,,,,,,,,,,,,,,,,,,,,,,,,,,,,,,,,,,0,4,4,0,1,,,,,,,,,,,,,,,,,,,,,,,,,,,,,,,,,,,,,,,,,
774484,001,2022-11-13_17h28.01.075,Info_measure_main_exp,2022.2.2,Win32,120.1345507,,,,,,,,,,,,,,,,,,,,,,,,,,,,,,5,3.161,1,,,,,,,,,,,,0,131,5,5,2166,2298,absent_patch/patch0002166.jpg,absent_patch/patch0002298.jpg,,,,,,,,,,,,,,,,,,,,0.116666653,-0.045370384,1,0,0,response3disk,5,0.002777806,0.000925912,1,0,0,center_square,0,4,4,52,1,,,,,,,,,,,,,,,,,,,,,,,
774484,001,2022-11-13_17h28.01.075,Info_measure_main_exp,2022.2.2,Win32,120.1345507,,,,,,,,,,,,,,,,,,masks/mask_005.jpg,,,,,,,,,,,,,,,,,,,,,,,,,,,,,,,,,,,,,,,,,,,0,0,0,4,1,,,,,,,,,,,,,,,,,,,,,,,,,,,,,,,,,,,,,,,,,,,,,,
774484,001,2022-11-13_17h28.01.075,Info_measure_main_exp,2022.2.2,Win32,120.1345507,,,,,,,,,,,,,,,,,,masks/mask_003.jpg,,,,,,,,,,,,,,,,,,,,,,,,,,,,,,,,,,,,,,,,,,,0,1,1,2,1,,,,,,,,,,,,,,,,,,,,,,,,,,,,,,,,,,,,,,,,,,,,,,
774484,001,2022-11-13_17h28.01.075,Info_measure_main_exp,2022.2.2,Win32,120.1345507,,,,,,,,,,,,,,,,,,masks/mask_002.jpg,,,,,,,,,,,,,,,,,,,,,,,,,,,,,,,,,,,,,,,,,,,0,2,2,1,1,,,,,,,,,,,,,,,,,,,,,,,,,,,,,,,,,,,,,,,,,,,,,,
774484,001,2022-11-13_17h28.01.075,Info_measure_main_exp,2022.2.2,Win32,120.1345507,,,,,,,,,,,,,,,,,,masks/mask_001.jpg,,,,,,,,,,,,,,,,,,,,,,,,,,,,,,,,,,,,,,,,,,,0,3,3,0,1,,,,,,,,,,,,,,,,,,,,,,,,,,,,,,,,,,,,,,,,,,,,,,
774484,001,2022-11-13_17h28.01.075,Info_measure_main_exp,2022.2.2,Win32,120.1345507,,,,,,,,,,,,,,,,,,masks/mask_004.jpg,,,,,,,,,,,,,,,,,,,,,,,,,,,,,,,,,,,,,,,,,,,0,4,4,3,1,,,,,,,,,,,,,,,,,,,,,,,,,,,,,,,,,,,,,,,,,,,,,,
774484,001,2022-11-13_17h28.01.075,Info_measure_main_exp,2022.2.2,Win32,120.1345507,,,,,,,,,,,,,,,,,,masks/mask_004.jpg,,,,,,,,,,,,,,,,,,,,,,,,,,,,,,,,,,,,,,,,,,,,,,,,0,0,0,3,1,,,,,,,,,,,,,,,,,,,,,,,,,,,,,,,,,,,,,,,,,
774484,001,2022-11-13_17h28.01.075,Info_measure_main_exp,2022.2.2,Win32,120.1345507,,,,,,,,,,,,,,,,,,masks/mask_001.jpg,,,,,,,,,,,,,,,,,,,,,,,,,,,,,,,,,,,,,,,,,,,,,,,,0,1,1,0,1,,,,,,,,,,,,,,,,,,,,,,,,,,,,,,,,,,,,,,,,,
774484,001,2022-11-13_17h28.01.075,Info_measure_main_exp,2022.2.2,Win32,120.1345507,,,,,,,,,,,,,,,,,,masks/mask_005.jpg,,,,,,,,,,,,,,,,,,,,,,,,,,,,,,,,,,,,,,,,,,,,,,,,0,2,2,4,1,,,,,,,,,,,,,,,,,,,,,,,,,,,,,,,,,,,,,,,,,
774484,001,2022-11-13_17h28.01.075,Info_measure_main_exp,2022.2.2,Win32,120.1345507,,,,,,,,,,,,,,,,,,masks/mask_002.jpg,,,,,,,,,,,,,,,,,,,,,,,,,,,,,,,,,,,,,,,,,,,,,,,,0,3,3,1,1,,,,,,,,,,,,,,,,,,,,,,,,,,,,,,,,,,,,,,,,,
774484,001,2022-11-13_17h28.01.075,Info_measure_main_exp,2022.2.2,Win32,120.1345507,,,,,,,,,,,,,,,,,,masks/mask_003.jpg,,,,,,,,,,,,,,,,,,,,,,,,,,,,,,,,,,,,,,,,,,,,,,,,0,4,4,2,1,,,,,,,,,,,,,,,,,,,,,,,,,,,,,,,,,,,,,,,,,
774484,001,2022-11-13_17h28.01.075,Info_measure_main_exp,2022.2.2,Win32,120.1345507,,,,,,,,,,,,,,,,,,,,,,,,,,,,,,6,1.8884,1,,,,,,,,,,,,0,131,5,5,1974,2238,absent_patch/patch0001974.jpg,absent_patch/patch0002238.jpg,,,,,,,,,,,,,,,,,,,,0.134259259,0.081481474,1,0,0,response1disk,6,0.005555541,0,1,0,0,center_square,0,5,5,95,1,,,,,,,,,,,,,,,,,,,,,,,
774484,001,2022-11-13_17h28.01.075,Info_measure_main_exp,2022.2.2,Win32,120.1345507,,,,,,,,,,,,,,,,,,masks/mask_005.jpg,,,,,,,,,,,,,,,,,,,,,,,,,,,,,,,,,,,,,,,,,,,0,0,0,4,1,,,,,,,,,,,,,,,,,,,,,,,,,,,,,,,,,,,,,,,,,,,,,,
774484,001,2022-11-13_17h28.01.075,Info_measure_main_exp,2022.2.2,Win32,120.1345507,,,,,,,,,,,,,,,,,,masks/mask_001.jpg,,,,,,,,,,,,,,,,,,,,,,,,,,,,,,,,,,,,,,,,,,,0,1,1,0,1,,,,,,,,,,,,,,,,,,,,,,,,,,,,,,,,,,,,,,,,,,,,,,
774484,001,2022-11-13_17h28.01.075,Info_measure_main_exp,2022.2.2,Win32,120.1345507,,,,,,,,,,,,,,,,,,masks/mask_004.jpg,,,,,,,,,,,,,,,,,,,,,,,,,,,,,,,,,,,,,,,,,,,0,2,2,3,1,,,,,,,,,,,,,,,,,,,,,,,,,,,,,,,,,,,,,,,,,,,,,,
774484,001,2022-11-13_17h28.01.075,Info_measure_main_exp,2022.2.2,Win32,120.1345507,,,,,,,,,,,,,,,,,,masks/mask_002.jpg,,,,,,,,,,,,,,,,,,,,,,,,,,,,,,,,,,,,,,,,,,,0,3,3,1,1,,,,,,,,,,,,,,,,,,,,,,,,,,,,,,,,,,,,,,,,,,,,,,
774484,001,2022-11-13_17h28.01.075,Info_measure_main_exp,2022.2.2,Win32,120.1345507,,,,,,,,,,,,,,,,,,masks/mask_003.jpg,,,,,,,,,,,,,,,,,,,,,,,,,,,,,,,,,,,,,,,,,,,0,4,4,2,1,,,,,,,,,,,,,,,,,,,,,,,,,,,,,,,,,,,,,,,,,,,,,,
774484,001,2022-11-13_17h28.01.075,Info_measure_main_exp,2022.2.2,Win32,120.1345507,,,,,,,,,,,,,,,,,,masks/mask_003.jpg,,,,,,,,,,,,,,,,,,,,,,,,,,,,,,,,,,,,,,,,,,,,,,,,0,0,0,2,1,,,,,,,,,,,,,,,,,,,,,,,,,,,,,,,,,,,,,,,,,
774484,001,2022-11-13_17h28.01.075,Info_measure_main_exp,2022.2.2,Win32,120.1345507,,,,,,,,,,,,,,,,,,masks/mask_002.jpg,,,,,,,,,,,,,,,,,,,,,,,,,,,,,,,,,,,,,,,,,,,,,,,,0,1,1,1,1,,,,,,,,,,,,,,,,,,,,,,,,,,,,,,,,,,,,,,,,,
774484,001,2022-11-13_17h28.01.075,Info_measure_main_exp,2022.2.2,Win32,120.1345507,,,,,,,,,,,,,,,,,,masks/mask_004.jpg,,,,,,,,,,,,,,,,,,,,,,,,,,,,,,,,,,,,,,,,,,,,,,,,0,2,2,3,1,,,,,,,,,,,,,,,,,,,,,,,,,,,,,,,,,,,,,,,,,
774484,001,2022-11-13_17h28.01.075,Info_measure_main_exp,2022.2.2,Win32,120.1345507,,,,,,,,,,,,,,,,,,masks/mask_005.jpg,,,,,,,,,,,,,,,,,,,,,,,,,,,,,,,,,,,,,,,,,,,,,,,,0,3,3,4,1,,,,,,,,,,,,,,,,,,,,,,,,,,,,,,,,,,,,,,,,,
774484,001,2022-11-13_17h28.01.075,Info_measure_main_exp,2022.2.2,Win32,120.1345507,,,,,,,,,,,,,,,,,,masks/mask_001.jpg,,,,,,,,,,,,,,,,,,,,,,,,,,,,,,,,,,,,,,,,,,,,,,,,0,4,4,0,1,,,,,,,,,,,,,,,,,,,,,,,,,,,,,,,,,,,,,,,,,
774484,001,2022-11-13_17h28.01.075,Info_measure_main_exp,2022.2.2,Win32,120.1345507,,,,,,,,,,,,,,,,,,,,,,,,,,,,,,0,1.0483,1,,,,,,,,,,,,0,131,5,5,1986,1986,absent_patch/patch0001986.jpg,absent_patch/patch0001986.jpg,,,,,,,,,,,,,,,,,,,,-0.038888861,0.098148134,1,0,0,response7disk,7,0.009259259,-0.0074074,1,0,0,center_square,0,6,6,19,1,,,,,,,,,,,,,,,,,,,,,,,
774484,001,2022-11-13_17h28.01.075,Info_measure_main_exp,2022.2.2,Win32,120.1345507,,,,,,,,,,,,,,,,,,masks/mask_005.jpg,,,,,,,,,,,,,,,,,,,,,,,,,,,,,,,,,,,,,,,,,,,0,0,0,4,1,,,,,,,,,,,,,,,,,,,,,,,,,,,,,,,,,,,,,,,,,,,,,,
774484,001,2022-11-13_17h28.01.075,Info_measure_main_exp,2022.2.2,Win32,120.1345507,,,,,,,,,,,,,,,,,,masks/mask_002.jpg,,,,,,,,,,,,,,,,,,,,,,,,,,,,,,,,,,,,,,,,,,,0,1,1,1,1,,,,,,,,,,,,,,,,,,,,,,,,,,,,,,,,,,,,,,,,,,,,,,
774484,001,2022-11-13_17h28.01.075,Info_measure_main_exp,2022.2.2,Win32,120.1345507,,,,,,,,,,,,,,,,,,masks/mask_004.jpg,,,,,,,,,,,,,,,,,,,,,,,,,,,,,,,,,,,,,,,,,,,0,2,2,3,1,,,,,,,,,,,,,,,,,,,,,,,,,,,,,,,,,,,,,,,,,,,,,,
774484,001,2022-11-13_17h28.01.075,Info_measure_main_exp,2022.2.2,Win32,120.1345507,,,,,,,,,,,,,,,,,,masks/mask_001.jpg,,,,,,,,,,,,,,,,,,,,,,,,,,,,,,,,,,,,,,,,,,,0,3,3,0,1,,,,,,,,,,,,,,,,,,,,,,,,,,,,,,,,,,,,,,,,,,,,,,
774484,001,2022-11-13_17h28.01.075,Info_measure_main_exp,2022.2.2,Win32,120.1345507,,,,,,,,,,,,,,,,,,masks/mask_003.jpg,,,,,,,,,,,,,,,,,,,,,,,,,,,,,,,,,,,,,,,,,,,0,4,4,2,1,,,,,,,,,,,,,,,,,,,,,,,,,,,,,,,,,,,,,,,,,,,,,,
774484,001,2022-11-13_17h28.01.075,Info_measure_main_exp,2022.2.2,Win32,120.1345507,,,,,,,,,,,,,,,,,,masks/mask_005.jpg,,,,,,,,,,,,,,,,,,,,,,,,,,,,,,,,,,,,,,,,,,,,,,,,0,0,0,4,1,,,,,,,,,,,,,,,,,,,,,,,,,,,,,,,,,,,,,,,,,
774484,001,2022-11-13_17h28.01.075,Info_measure_main_exp,2022.2.2,Win32,120.1345507,,,,,,,,,,,,,,,,,,masks/mask_004.jpg,,,,,,,,,,,,,,,,,,,,,,,,,,,,,,,,,,,,,,,,,,,,,,,,0,1,1,3,1,,,,,,,,,,,,,,,,,,,,,,,,,,,,,,,,,,,,,,,,,
774484,001,2022-11-13_17h28.01.075,Info_measure_main_exp,2022.2.2,Win32,120.1345507,,,,,,,,,,,,,,,,,,masks/mask_003.jpg,,,,,,,,,,,,,,,,,,,,,,,,,,,,,,,,,,,,,,,,,,,,,,,,0,2,2,2,1,,,,,,,,,,,,,,,,,,,,,,,,,,,,,,,,,,,,,,,,,
774484,001,2022-11-13_17h28.01.075,Info_measure_main_exp,2022.2.2,Win32,120.1345507,,,,,,,,,,,,,,,,,,masks/mask_001.jpg,,,,,,,,,,,,,,,,,,,,,,,,,,,,,,,,,,,,,,,,,,,,,,,,0,3,3,0,1,,,,,,,,,,,,,,,,,,,,,,,,,,,,,,,,,,,,,,,,,
774484,001,2022-11-13_17h28.01.075,Info_measure_main_exp,2022.2.2,Win32,120.1345507,,,,,,,,,,,,,,,,,,masks/mask_002.jpg,,,,,,,,,,,,,,,,,,,,,,,,,,,,,,,,,,,,,,,,,,,,,,,,0,4,4,1,1,,,,,,,,,,,,,,,,,,,,,,,,,,,,,,,,,,,,,,,,,
774484,001,2022-11-13_17h28.01.075,Info_measure_main_exp,2022.2.2,Win32,120.1345507,,,,,,,,,,,,,,,,,,,,,,,,,,,,,,4,2.2127,1,,,,,,,,,,,,0,131,5,5,1950,2142,absent_patch/patch0001950.jpg,absent_patch/patch0002142.jpg,,,,,,,,,,,,,,,,,,,,0.018518519,-0.115740741,1,0,0,response3disk,8,0.006481524,-0.005555577,1,0,0,center_square,0,7,7,83,1,,,,,,,,,,,,,,,,,,,,,,,
774484,001,2022-11-13_17h28.01.075,Info_measure_main_exp,2022.2.2,Win32,120.1345507,,,,,,,,,,,,,,,,,,masks/mask_004.jpg,,,,,,,,,,,,,,,,,,,,,,,,,,,,,,,,,,,,,,,,,,,0,0,0,3,1,,,,,,,,,,,,,,,,,,,,,,,,,,,,,,,,,,,,,,,,,,,,,,
774484,001,2022-11-13_17h28.01.075,Info_measure_main_exp,2022.2.2,Win32,120.1345507,,,,,,,,,,,,,,,,,,masks/mask_001.jpg,,,,,,,,,,,,,,,,,,,,,,,,,,,,,,,,,,,,,,,,,,,0,1,1,0,1,,,,,,,,,,,,,,,,,,,,,,,,,,,,,,,,,,,,,,,,,,,,,,
774484,001,2022-11-13_17h28.01.075,Info_measure_main_exp,2022.2.2,Win32,120.1345507,,,,,,,,,,,,,,,,,,masks/mask_003.jpg,,,,,,,,,,,,,,,,,,,,,,,,,,,,,,,,,,,,,,,,,,,0,2,2,2,1,,,,,,,,,,,,,,,,,,,,,,,,,,,,,,,,,,,,,,,,,,,,,,
774484,001,2022-11-13_17h28.01.075,Info_measure_main_exp,2022.2.2,Win32,120.1345507,,,,,,,,,,,,,,,,,,masks/mask_002.jpg,,,,,,,,,,,,,,,,,,,,,,,,,,,,,,,,,,,,,,,,,,,0,3,3,1,1,,,,,,,,,,,,,,,,,,,,,,,,,,,,,,,,,,,,,,,,,,,,,,
774484,001,2022-11-13_17h28.01.075,Info_measure_main_exp,2022.2.2,Win32,120.1345507,,,,,,,,,,,,,,,,,,masks/mask_005.jpg,,,,,,,,,,,,,,,,,,,,,,,,,,,,,,,,,,,,,,,,,,,0,4,4,4,1,,,,,,,,,,,,,,,,,,,,,,,,,,,,,,,,,,,,,,,,,,,,,,
774484,001,2022-11-13_17h28.01.075,Info_measure_main_exp,2022.2.2,Win32,120.1345507,,,,,,,,,,,,,,,,,,masks/mask_005.jpg,,,,,,,,,,,,,,,,,,,,,,,,,,,,,,,,,,,,,,,,,,,,,,,,0,0,0,4,1,,,,,,,,,,,,,,,,,,,,,,,,,,,,,,,,,,,,,,,,,
774484,001,2022-11-13_17h28.01.075,Info_measure_main_exp,2022.2.2,Win32,120.1345507,,,,,,,,,,,,,,,,,,masks/mask_004.jpg,,,,,,,,,,,,,,,,,,,,,,,,,,,,,,,,,,,,,,,,,,,,,,,,0,1,1,3,1,,,,,,,,,,,,,,,,,,,,,,,,,,,,,,,,,,,,,,,,,
774484,001,2022-11-13_17h28.01.075,Info_measure_main_exp,2022.2.2,Win32,120.1345507,,,,,,,,,,,,,,,,,,masks/mask_001.jpg,,,,,,,,,,,,,,,,,,,,,,,,,,,,,,,,,,,,,,,,,,,,,,,,0,2,2,0,1,,,,,,,,,,,,,,,,,,,,,,,,,,,,,,,,,,,,,,,,,
774484,001,2022-11-13_17h28.01.075,Info_measure_main_exp,2022.2.2,Win32,120.1345507,,,,,,,,,,,,,,,,,,masks/mask_002.jpg,,,,,,,,,,,,,,,,,,,,,,,,,,,,,,,,,,,,,,,,,,,,,,,,0,3,3,1,1,,,,,,,,,,,,,,,,,,,,,,,,,,,,,,,,,,,,,,,,,
774484,001,2022-11-13_17h28.01.075,Info_measure_main_exp,2022.2.2,Win32,120.1345507,,,,,,,,,,,,,,,,,,masks/mask_003.jpg,,,,,,,,,,,,,,,,,,,,,,,,,,,,,,,,,,,,,,,,,,,,,,,,0,4,4,2,1,,,,,,,,,,,,,,,,,,,,,,,,,,,,,,,,,,,,,,,,,
774484,001,2022-11-13_17h28.01.075,Info_measure_main_exp,2022.2.2,Win32,120.1345507,,,,,,,,,,,,,,,,,,,,,,,,,,,,,,3,2.2626,1,,,,,,,,,,,,0,131,5,5,2214,2082,absent_patch/patch0002214.jpg,absent_patch/patch0002082.jpg,,,,,,,,,,,,,,,,,,,,-0.058333291,-0.14907406,1,0,0,response5disk,9,0,-0.00462963,1,0,0,center_square,0,8,8,103,1,,,,,,,,,,,,,,,,,,,,,,,
774484,001,2022-11-13_17h28.01.075,Info_measure_main_exp,2022.2.2,Win32,120.1345507,,,,,,,,,,,,,,,,,,masks/mask_002.jpg,,,,,,,,,,,,,,,,,,,,,,,,,,,,,,,,,,,,,,,,,,,0,0,0,1,1,,,,,,,,,,,,,,,,,,,,,,,,,,,,,,,,,,,,,,,,,,,,,,
774484,001,2022-11-13_17h28.01.075,Info_measure_main_exp,2022.2.2,Win32,120.1345507,,,,,,,,,,,,,,,,,,masks/mask_005.jpg,,,,,,,,,,,,,,,,,,,,,,,,,,,,,,,,,,,,,,,,,,,0,1,1,4,1,,,,,,,,,,,,,,,,,,,,,,,,,,,,,,,,,,,,,,,,,,,,,,
774484,001,2022-11-13_17h28.01.075,Info_measure_main_exp,2022.2.2,Win32,120.1345507,,,,,,,,,,,,,,,,,,masks/mask_003.jpg,,,,,,,,,,,,,,,,,,,,,,,,,,,,,,,,,,,,,,,,,,,0,2,2,2,1,,,,,,,,,,,,,,,,,,,,,,,,,,,,,,,,,,,,,,,,,,,,,,
774484,001,2022-11-13_17h28.01.075,Info_measure_main_exp,2022.2.2,Win32,120.1345507,,,,,,,,,,,,,,,,,,masks/mask_001.jpg,,,,,,,,,,,,,,,,,,,,,,,,,,,,,,,,,,,,,,,,,,,0,3,3,0,1,,,,,,,,,,,,,,,,,,,,,,,,,,,,,,,,,,,,,,,,,,,,,,
774484,001,2022-11-13_17h28.01.075,Info_measure_main_exp,2022.2.2,Win32,120.1345507,,,,,,,,,,,,,,,,,,masks/mask_004.jpg,,,,,,,,,,,,,,,,,,,,,,,,,,,,,,,,,,,,,,,,,,,0,4,4,3,1,,,,,,,,,,,,,,,,,,,,,,,,,,,,,,,,,,,,,,,,,,,,,,
774484,001,2022-11-13_17h28.01.075,Info_measure_main_exp,2022.2.2,Win32,120.1345507,,,,,,,,,,,,,,,,,,masks/mask_004.jpg,,,,,,,,,,,,,,,,,,,,,,,,,,,,,,,,,,,,,,,,,,,,,,,,0,0,0,3,1,,,,,,,,,,,,,,,,,,,,,,,,,,,,,,,,,,,,,,,,,
774484,001,2022-11-13_17h28.01.075,Info_measure_main_exp,2022.2.2,Win32,120.1345507,,,,,,,,,,,,,,,,,,masks/mask_002.jpg,,,,,,,,,,,,,,,,,,,,,,,,,,,,,,,,,,,,,,,,,,,,,,,,0,1,1,1,1,,,,,,,,,,,,,,,,,,,,,,,,,,,,,,,,,,,,,,,,,
774484,001,2022-11-13_17h28.01.075,Info_measure_main_exp,2022.2.2,Win32,120.1345507,,,,,,,,,,,,,,,,,,masks/mask_005.jpg,,,,,,,,,,,,,,,,,,,,,,,,,,,,,,,,,,,,,,,,,,,,,,,,0,2,2,4,1,,,,,,,,,,,,,,,,,,,,,,,,,,,,,,,,,,,,,,,,,
774484,001,2022-11-13_17h28.01.075,Info_measure_main_exp,2022.2.2,Win32,120.1345507,,,,,,,,,,,,,,,,,,masks/mask_003.jpg,,,,,,,,,,,,,,,,,,,,,,,,,,,,,,,,,,,,,,,,,,,,,,,,0,3,3,2,1,,,,,,,,,,,,,,,,,,,,,,,,,,,,,,,,,,,,,,,,,
774484,001,2022-11-13_17h28.01.075,Info_measure_main_exp,2022.2.2,Win32,120.1345507,,,,,,,,,,,,,,,,,,masks/mask_001.jpg,,,,,,,,,,,,,,,,,,,,,,,,,,,,,,,,,,,,,,,,,,,,,,,,0,4,4,0,1,,,,,,,,,,,,,,,,,,,,,,,,,,,,,,,,,,,,,,,,,
774484,001,2022-11-13_17h28.01.075,Info_measure_main_exp,2022.2.2,Win32,120.1345507,,,,,,,,,,,,,,,,,,,,,,,,,,,,,,4,3.236,1,,,,,,,,,,,,0,131,5,5,1986,2274,absent_patch/patch0001986.jpg,absent_patch/patch0002274.jpg,,,,,,,,,,,,,,,,,,,,0.046296296,-0.142592607,1,0,0,response3disk,10,-0.005555541,0.003703683,1,0,0,center_square,0,9,9,7,1,,,,,,,,,,,,,,,,,,,,,,,
774484,001,2022-11-13_17h28.01.075,Info_measure_main_exp,2022.2.2,Win32,120.1345507,,,,,,,,,,,,,,,,,,masks/mask_003.jpg,,,,,,,,,,,,,,,,,,,,,,,,,,,,,,,,,,,,,,,,,,,0,0,0,2,1,,,,,,,,,,,,,,,,,,,,,,,,,,,,,,,,,,,,,,,,,,,,,,
774484,001,2022-11-13_17h28.01.075,Info_measure_main_exp,2022.2.2,Win32,120.1345507,,,,,,,,,,,,,,,,,,masks/mask_005.jpg,,,,,,,,,,,,,,,,,,,,,,,,,,,,,,,,,,,,,,,,,,,0,1,1,4,1,,,,,,,,,,,,,,,,,,,,,,,,,,,,,,,,,,,,,,,,,,,,,,
774484,001,2022-11-13_17h28.01.075,Info_measure_main_exp,2022.2.2,Win32,120.1345507,,,,,,,,,,,,,,,,,,masks/mask_004.jpg,,,,,,,,,,,,,,,,,,,,,,,,,,,,,,,,,,,,,,,,,,,0,2,2,3,1,,,,,,,,,,,,,,,,,,,,,,,,,,,,,,,,,,,,,,,,,,,,,,
774484,001,2022-11-13_17h28.01.075,Info_measure_main_exp,2022.2.2,Win32,120.1345507,,,,,,,,,,,,,,,,,,masks/mask_002.jpg,,,,,,,,,,,,,,,,,,,,,,,,,,,,,,,,,,,,,,,,,,,0,3,3,1,1,,,,,,,,,,,,,,,,,,,,,,,,,,,,,,,,,,,,,,,,,,,,,,
774484,001,2022-11-13_17h28.01.075,Info_measure_main_exp,2022.2.2,Win32,120.1345507,,,,,,,,,,,,,,,,,,masks/mask_001.jpg,,,,,,,,,,,,,,,,,,,,,,,,,,,,,,,,,,,,,,,,,,,0,4,4,0,1,,,,,,,,,,,,,,,,,,,,,,,,,,,,,,,,,,,,,,,,,,,,,,
774484,001,2022-11-13_17h28.01.075,Info_measure_main_exp,2022.2.2,Win32,120.1345507,,,,,,,,,,,,,,,,,,masks/mask_003.jpg,,,,,,,,,,,,,,,,,,,,,,,,,,,,,,,,,,,,,,,,,,,,,,,,0,0,0,2,1,,,,,,,,,,,,,,,,,,,,,,,,,,,,,,,,,,,,,,,,,
774484,001,2022-11-13_17h28.01.075,Info_measure_main_exp,2022.2.2,Win32,120.1345507,,,,,,,,,,,,,,,,,,masks/mask_001.jpg,,,,,,,,,,,,,,,,,,,,,,,,,,,,,,,,,,,,,,,,,,,,,,,,0,1,1,0,1,,,,,,,,,,,,,,,,,,,,,,,,,,,,,,,,,,,,,,,,,
774484,001,2022-11-13_17h28.01.075,Info_measure_main_exp,2022.2.2,Win32,120.1345507,,,,,,,,,,,,,,,,,,masks/mask_002.jpg,,,,,,,,,,,,,,,,,,,,,,,,,,,,,,,,,,,,,,,,,,,,,,,,0,2,2,1,1,,,,,,,,,,,,,,,,,,,,,,,,,,,,,,,,,,,,,,,,,
774484,001,2022-11-13_17h28.01.075,Info_measure_main_exp,2022.2.2,Win32,120.1345507,,,,,,,,,,,,,,,,,,masks/mask_005.jpg,,,,,,,,,,,,,,,,,,,,,,,,,,,,,,,,,,,,,,,,,,,,,,,,0,3,3,4,1,,,,,,,,,,,,,,,,,,,,,,,,,,,,,,,,,,,,,,,,,
774484,001,2022-11-13_17h28.01.075,Info_measure_main_exp,2022.2.2,Win32,120.1345507,,,,,,,,,,,,,,,,,,masks/mask_004.jpg,,,,,,,,,,,,,,,,,,,,,,,,,,,,,,,,,,,,,,,,,,,,,,,,0,4,4,3,1,,,,,,,,,,,,,,,,,,,,,,,,,,,,,,,,,,,,,,,,,
774484,001,2022-11-13_17h28.01.075,Info_measure_main_exp,2022.2.2,Win32,120.1345507,,,,,,,,,,,,,,,,,,,,,,,,,,,,,,0,1.1064,1,,,,,,,,,,,,0,131,5,5,1950,1950,absent_patch/patch0001950.jpg,absent_patch/patch0001950.jpg,,,,,,,,,,,,,,,,,,,,-0.041666667,0.148148148,1,0,0,response7disk,11,0.001851894,0.002777771,1,0,0,center_square,0,10,10,92,1,,,,,,,,,,,,,,,,,,,,,,,
774484,001,2022-11-13_17h28.01.075,Info_measure_main_exp,2022.2.2,Win32,120.1345507,,,,,,,,,,,,,,,,,,masks/mask_001.jpg,,,,,,,,,,,,,,,,,,,,,,,,,,,,,,,,,,,,,,,,,,,0,0,0,0,1,,,,,,,,,,,,,,,,,,,,,,,,,,,,,,,,,,,,,,,,,,,,,,
774484,001,2022-11-13_17h28.01.075,Info_measure_main_exp,2022.2.2,Win32,120.1345507,,,,,,,,,,,,,,,,,,masks/mask_004.jpg,,,,,,,,,,,,,,,,,,,,,,,,,,,,,,,,,,,,,,,,,,,0,1,1,3,1,,,,,,,,,,,,,,,,,,,,,,,,,,,,,,,,,,,,,,,,,,,,,,
774484,001,2022-11-13_17h28.01.075,Info_measure_main_exp,2022.2.2,Win32,120.1345507,,,,,,,,,,,,,,,,,,masks/mask_002.jpg,,,,,,,,,,,,,,,,,,,,,,,,,,,,,,,,,,,,,,,,,,,0,2,2,1,1,,,,,,,,,,,,,,,,,,,,,,,,,,,,,,,,,,,,,,,,,,,,,,
774484,001,2022-11-13_17h28.01.075,Info_measure_main_exp,2022.2.2,Win32,120.1345507,,,,,,,,,,,,,,,,,,masks/mask_005.jpg,,,,,,,,,,,,,,,,,,,,,,,,,,,,,,,,,,,,,,,,,,,0,3,3,4,1,,,,,,,,,,,,,,,,,,,,,,,,,,,,,,,,,,,,,,,,,,,,,,
774484,001,2022-11-13_17h28.01.075,Info_measure_main_exp,2022.2.2,Win32,120.1345507,,,,,,,,,,,,,,,,,,masks/mask_003.jpg,,,,,,,,,,,,,,,,,,,,,,,,,,,,,,,,,,,,,,,,,,,0,4,4,2,1,,,,,,,,,,,,,,,,,,,,,,,,,,,,,,,,,,,,,,,,,,,,,,
774484,001,2022-11-13_17h28.01.075,Info_measure_main_exp,2022.2.2,Win32,120.1345507,,,,,,,,,,,,,,,,,,masks/mask_001.jpg,,,,,,,,,,,,,,,,,,,,,,,,,,,,,,,,,,,,,,,,,,,,,,,,0,0,0,0,1,,,,,,,,,,,,,,,,,,,,,,,,,,,,,,,,,,,,,,,,,
774484,001,2022-11-13_17h28.01.075,Info_measure_main_exp,2022.2.2,Win32,120.1345507,,,,,,,,,,,,,,,,,,masks/mask_004.jpg,,,,,,,,,,,,,,,,,,,,,,,,,,,,,,,,,,,,,,,,,,,,,,,,0,1,1,3,1,,,,,,,,,,,,,,,,,,,,,,,,,,,,,,,,,,,,,,,,,
774484,001,2022-11-13_17h28.01.075,Info_measure_main_exp,2022.2.2,Win32,120.1345507,,,,,,,,,,,,,,,,,,masks/mask_002.jpg,,,,,,,,,,,,,,,,,,,,,,,,,,,,,,,,,,,,,,,,,,,,,,,,0,2,2,1,1,,,,,,,,,,,,,,,,,,,,,,,,,,,,,,,,,,,,,,,,,
774484,001,2022-11-13_17h28.01.075,Info_measure_main_exp,2022.2.2,Win32,120.1345507,,,,,,,,,,,,,,,,,,masks/mask_003.jpg,,,,,,,,,,,,,,,,,,,,,,,,,,,,,,,,,,,,,,,,,,,,,,,,0,3,3,2,1,,,,,,,,,,,,,,,,,,,,,,,,,,,,,,,,,,,,,,,,,
774484,001,2022-11-13_17h28.01.075,Info_measure_main_exp,2022.2.2,Win32,120.1345507,,,,,,,,,,,,,,,,,,masks/mask_005.jpg,,,,,,,,,,,,,,,,,,,,,,,,,,,,,,,,,,,,,,,,,,,,,,,,0,4,4,4,1,,,,,,,,,,,,,,,,,,,,,,,,,,,,,,,,,,,,,,,,,
774484,001,2022-11-13_17h28.01.075,Info_measure_main_exp,2022.2.2,Win32,120.1345507,,,,,,,,,,,,,,,,,,,,,,,,,,,,,,5,2.5373,1,,,,,,,,,,,,1,131,5,5,2250,1,absent_patch/patch0002250.jpg,present_patch/cong_131_5_a.jpg,,,,,,,,,,,,,,,,,,,,0.065740727,-0.027777778,1,0,0,response3disk,12,0.000925912,-0.005555577,1,0,0,center_square,0,11,11,5,1,,,,,,,,,,,,,,,,,,,,,,,
774484,001,2022-11-13_17h28.01.075,Info_measure_main_exp,2022.2.2,Win32,120.1345507,,,,,,,,,,,,,,,,,,masks/mask_002.jpg,,,,,,,,,,,,,,,,,,,,,,,,,,,,,,,,,,,,,,,,,,,0,0,0,1,1,,,,,,,,,,,,,,,,,,,,,,,,,,,,,,,,,,,,,,,,,,,,,,
774484,001,2022-11-13_17h28.01.075,Info_measure_main_exp,2022.2.2,Win32,120.1345507,,,,,,,,,,,,,,,,,,masks/mask_005.jpg,,,,,,,,,,,,,,,,,,,,,,,,,,,,,,,,,,,,,,,,,,,0,1,1,4,1,,,,,,,,,,,,,,,,,,,,,,,,,,,,,,,,,,,,,,,,,,,,,,
774484,001,2022-11-13_17h28.01.075,Info_measure_main_exp,2022.2.2,Win32,120.1345507,,,,,,,,,,,,,,,,,,masks/mask_001.jpg,,,,,,,,,,,,,,,,,,,,,,,,,,,,,,,,,,,,,,,,,,,0,2,2,0,1,,,,,,,,,,,,,,,,,,,,,,,,,,,,,,,,,,,,,,,,,,,,,,
774484,001,2022-11-13_17h28.01.075,Info_measure_main_exp,2022.2.2,Win32,120.1345507,,,,,,,,,,,,,,,,,,masks/mask_004.jpg,,,,,,,,,,,,,,,,,,,,,,,,,,,,,,,,,,,,,,,,,,,0,3,3,3,1,,,,,,,,,,,,,,,,,,,,,,,,,,,,,,,,,,,,,,,,,,,,,,
774484,001,2022-11-13_17h28.01.075,Info_measure_main_exp,2022.2.2,Win32,120.1345507,,,,,,,,,,,,,,,,,,masks/mask_003.jpg,,,,,,,,,,,,,,,,,,,,,,,,,,,,,,,,,,,,,,,,,,,0,4,4,2,1,,,,,,,,,,,,,,,,,,,,,,,,,,,,,,,,,,,,,,,,,,,,,,
774484,001,2022-11-13_17h28.01.075,Info_measure_main_exp,2022.2.2,Win32,120.1345507,,,,,,,,,,,,,,,,,,masks/mask_005.jpg,,,,,,,,,,,,,,,,,,,,,,,,,,,,,,,,,,,,,,,,,,,,,,,,0,0,0,4,1,,,,,,,,,,,,,,,,,,,,,,,,,,,,,,,,,,,,,,,,,
774484,001,2022-11-13_17h28.01.075,Info_measure_main_exp,2022.2.2,Win32,120.1345507,,,,,,,,,,,,,,,,,,masks/mask_002.jpg,,,,,,,,,,,,,,,,,,,,,,,,,,,,,,,,,,,,,,,,,,,,,,,,0,1,1,1,1,,,,,,,,,,,,,,,,,,,,,,,,,,,,,,,,,,,,,,,,,
774484,001,2022-11-13_17h28.01.075,Info_measure_main_exp,2022.2.2,Win32,120.1345507,,,,,,,,,,,,,,,,,,masks/mask_004.jpg,,,,,,,,,,,,,,,,,,,,,,,,,,,,,,,,,,,,,,,,,,,,,,,,0,2,2,3,1,,,,,,,,,,,,,,,,,,,,,,,,,,,,,,,,,,,,,,,,,
774484,001,2022-11-13_17h28.01.075,Info_measure_main_exp,2022.2.2,Win32,120.1345507,,,,,,,,,,,,,,,,,,masks/mask_001.jpg,,,,,,,,,,,,,,,,,,,,,,,,,,,,,,,,,,,,,,,,,,,,,,,,0,3,3,0,1,,,,,,,,,,,,,,,,,,,,,,,,,,,,,,,,,,,,,,,,,
774484,001,2022-11-13_17h28.01.075,Info_measure_main_exp,2022.2.2,Win32,120.1345507,,,,,,,,,,,,,,,,,,masks/mask_003.jpg,,,,,,,,,,,,,,,,,,,,,,,,,,,,,,,,,,,,,,,,,,,,,,,,0,4,4,2,1,,,,,,,,,,,,,,,,,,,,,,,,,,,,,,,,,,,,,,,,,
774484,001,2022-11-13_17h28.01.075,Info_measure_main_exp,2022.2.2,Win32,120.1345507,,,,,,,,,,,,,,,,,,,,,,,,,,,,,,4,2.2127,1,,,,,,,,,,,,0,131,5,5,1986,2142,absent_patch/patch0001986.jpg,absent_patch/patch0002142.jpg,,,,,,,,,,,,,,,,,,,,0.049074102,-0.095370399,1,0,0,response3disk,13,0.006481524,0.002777771,1,0,0,center_square,0,12,12,76,1,,,,,,,,,,,,,,,,,,,,,,,
774484,001,2022-11-13_17h28.01.075,Info_measure_main_exp,2022.2.2,Win32,120.1345507,,,,,,,,,,,,,,,,,,masks/mask_005.jpg,,,,,,,,,,,,,,,,,,,,,,,,,,,,,,,,,,,,,,,,,,,0,0,0,4,1,,,,,,,,,,,,,,,,,,,,,,,,,,,,,,,,,,,,,,,,,,,,,,
774484,001,2022-11-13_17h28.01.075,Info_measure_main_exp,2022.2.2,Win32,120.1345507,,,,,,,,,,,,,,,,,,masks/mask_003.jpg,,,,,,,,,,,,,,,,,,,,,,,,,,,,,,,,,,,,,,,,,,,0,1,1,2,1,,,,,,,,,,,,,,,,,,,,,,,,,,,,,,,,,,,,,,,,,,,,,,
774484,001,2022-11-13_17h28.01.075,Info_measure_main_exp,2022.2.2,Win32,120.1345507,,,,,,,,,,,,,,,,,,masks/mask_004.jpg,,,,,,,,,,,,,,,,,,,,,,,,,,,,,,,,,,,,,,,,,,,0,2,2,3,1,,,,,,,,,,,,,,,,,,,,,,,,,,,,,,,,,,,,,,,,,,,,,,
774484,001,2022-11-13_17h28.01.075,Info_measure_main_exp,2022.2.2,Win32,120.1345507,,,,,,,,,,,,,,,,,,masks/mask_002.jpg,,,,,,,,,,,,,,,,,,,,,,,,,,,,,,,,,,,,,,,,,,,0,3,3,1,1,,,,,,,,,,,,,,,,,,,,,,,,,,,,,,,,,,,,,,,,,,,,,,
774484,001,2022-11-13_17h28.01.075,Info_measure_main_exp,2022.2.2,Win32,120.1345507,,,,,,,,,,,,,,,,,,masks/mask_001.jpg,,,,,,,,,,,,,,,,,,,,,,,,,,,,,,,,,,,,,,,,,,,0,4,4,0,1,,,,,,,,,,,,,,,,,,,,,,,,,,,,,,,,,,,,,,,,,,,,,,
774484,001,2022-11-13_17h28.01.075,Info_measure_main_exp,2022.2.2,Win32,120.1345507,,,,,,,,,,,,,,,,,,masks/mask_002.jpg,,,,,,,,,,,,,,,,,,,,,,,,,,,,,,,,,,,,,,,,,,,,,,,,0,0,0,1,1,,,,,,,,,,,,,,,,,,,,,,,,,,,,,,,,,,,,,,,,,
774484,001,2022-11-13_17h28.01.075,Info_measure_main_exp,2022.2.2,Win32,120.1345507,,,,,,,,,,,,,,,,,,masks/mask_001.jpg,,,,,,,,,,,,,,,,,,,,,,,,,,,,,,,,,,,,,,,,,,,,,,,,0,1,1,0,1,,,,,,,,,,,,,,,,,,,,,,,,,,,,,,,,,,,,,,,,,
774484,001,2022-11-13_17h28.01.075,Info_measure_main_exp,2022.2.2,Win32,120.1345507,,,,,,,,,,,,,,,,,,masks/mask_003.jpg,,,,,,,,,,,,,,,,,,,,,,,,,,,,,,,,,,,,,,,,,,,,,,,,0,2,2,2,1,,,,,,,,,,,,,,,,,,,,,,,,,,,,,,,,,,,,,,,,,
774484,001,2022-11-13_17h28.01.075,Info_measure_main_exp,2022.2.2,Win32,120.1345507,,,,,,,,,,,,,,,,,,masks/mask_004.jpg,,,,,,,,,,,,,,,,,,,,,,,,,,,,,,,,,,,,,,,,,,,,,,,,0,3,3,3,1,,,,,,,,,,,,,,,,,,,,,,,,,,,,,,,,,,,,,,,,,
774484,001,2022-11-13_17h28.01.075,Info_measure_main_exp,2022.2.2,Win32,120.1345507,,,,,,,,,,,,,,,,,,masks/mask_005.jpg,,,,,,,,,,,,,,,,,,,,,,,,,,,,,,,,,,,,,,,,,,,,,,,,0,4,4,4,1,,,,,,,,,,,,,,,,,,,,,,,,,,,,,,,,,,,,,,,,,
774484,001,2022-11-13_17h28.01.075,Info_measure_main_exp,2022.2.2,Win32,120.1345507,,,,,,,,,,,,,,,,,,,,,,,,,,,,,,6,1.7636,1,,,,,,,,,,,,1,131,5,5,1,1974,present_patch/cong_131_5_a.jpg,absent_patch/patch0001974.jpg,,,,,,,,,,,,,,,,,,,,0.122222265,0.047222208,1,0,0,response1disk,14,-0.002777735,-0.0074074,1,0,0,center_square,0,13,13,69,1,,,,,,,,,,,,,,,,,,,,,,,
774484,001,2022-11-13_17h28.01.075,Info_measure_main_exp,2022.2.2,Win32,120.1345507,,,,,,,,,,,,,,,,,,masks/mask_002.jpg,,,,,,,,,,,,,,,,,,,,,,,,,,,,,,,,,,,,,,,,,,,0,0,0,1,1,,,,,,,,,,,,,,,,,,,,,,,,,,,,,,,,,,,,,,,,,,,,,,
774484,001,2022-11-13_17h28.01.075,Info_measure_main_exp,2022.2.2,Win32,120.1345507,,,,,,,,,,,,,,,,,,masks/mask_003.jpg,,,,,,,,,,,,,,,,,,,,,,,,,,,,,,,,,,,,,,,,,,,0,1,1,2,1,,,,,,,,,,,,,,,,,,,,,,,,,,,,,,,,,,,,,,,,,,,,,,
774484,001,2022-11-13_17h28.01.075,Info_measure_main_exp,2022.2.2,Win32,120.1345507,,,,,,,,,,,,,,,,,,masks/mask_004.jpg,,,,,,,,,,,,,,,,,,,,,,,,,,,,,,,,,,,,,,,,,,,0,2,2,3,1,,,,,,,,,,,,,,,,,,,,,,,,,,,,,,,,,,,,,,,,,,,,,,
774484,001,2022-11-13_17h28.01.075,Info_measure_main_exp,2022.2.2,Win32,120.1345507,,,,,,,,,,,,,,,,,,masks/mask_005.jpg,,,,,,,,,,,,,,,,,,,,,,,,,,,,,,,,,,,,,,,,,,,0,3,3,4,1,,,,,,,,,,,,,,,,,,,,,,,,,,,,,,,,,,,,,,,,,,,,,,
774484,001,2022-11-13_17h28.01.075,Info_measure_main_exp,2022.2.2,Win32,120.1345507,,,,,,,,,,,,,,,,,,masks/mask_001.jpg,,,,,,,,,,,,,,,,,,,,,,,,,,,,,,,,,,,,,,,,,,,0,4,4,0,1,,,,,,,,,,,,,,,,,,,,,,,,,,,,,,,,,,,,,,,,,,,,,,
774484,001,2022-11-13_17h28.01.075,Info_measure_main_exp,2022.2.2,Win32,120.1345507,,,,,,,,,,,,,,,,,,masks/mask_003.jpg,,,,,,,,,,,,,,,,,,,,,,,,,,,,,,,,,,,,,,,,,,,,,,,,0,0,0,2,1,,,,,,,,,,,,,,,,,,,,,,,,,,,,,,,,,,,,,,,,,
774484,001,2022-11-13_17h28.01.075,Info_measure_main_exp,2022.2.2,Win32,120.1345507,,,,,,,,,,,,,,,,,,masks/mask_005.jpg,,,,,,,,,,,,,,,,,,,,,,,,,,,,,,,,,,,,,,,,,,,,,,,,0,1,1,4,1,,,,,,,,,,,,,,,,,,,,,,,,,,,,,,,,,,,,,,,,,
774484,001,2022-11-13_17h28.01.075,Info_measure_main_exp,2022.2.2,Win32,120.1345507,,,,,,,,,,,,,,,,,,masks/mask_001.jpg,,,,,,,,,,,,,,,,,,,,,,,,,,,,,,,,,,,,,,,,,,,,,,,,0,2,2,0,1,,,,,,,,,,,,,,,,,,,,,,,,,,,,,,,,,,,,,,,,,
774484,001,2022-11-13_17h28.01.075,Info_measure_main_exp,2022.2.2,Win32,120.1345507,,,,,,,,,,,,,,,,,,masks/mask_002.jpg,,,,,,,,,,,,,,,,,,,,,,,,,,,,,,,,,,,,,,,,,,,,,,,,0,3,3,1,1,,,,,,,,,,,,,,,,,,,,,,,,,,,,,,,,,,,,,,,,,
774484,001,2022-11-13_17h28.01.075,Info_measure_main_exp,2022.2.2,Win32,120.1345507,,,,,,,,,,,,,,,,,,masks/mask_004.jpg,,,,,,,,,,,,,,,,,,,,,,,,,,,,,,,,,,,,,,,,,,,,,,,,0,4,4,3,1,,,,,,,,,,,,,,,,,,,,,,,,,,,,,,,,,,,,,,,,,
774484,001,2022-11-13_17h28.01.075,Info_measure_main_exp,2022.2.2,Win32,120.1345507,,,,,,,,,,,,,,,,,,,,,,,,,,,,,,6,2.4456,1,,,,,,,,,,,,0,131,5,5,2298,2142,absent_patch/patch0002298.jpg,absent_patch/patch0002142.jpg,,,,,,,,,,,,,,,,,,,,0.122222265,0.049074067,1,0,0,response1disk,15,-0.009259259,-0.00462963,1,0,0,center_square,0,14,14,49,1,,,,,,,,,,,,,,,,,,,,,,,
774484,001,2022-11-13_17h28.01.075,Info_measure_main_exp,2022.2.2,Win32,120.1345507,,,,,,,,,,,,,,,,,,masks/mask_002.jpg,,,,,,,,,,,,,,,,,,,,,,,,,,,,,,,,,,,,,,,,,,,0,0,0,1,1,,,,,,,,,,,,,,,,,,,,,,,,,,,,,,,,,,,,,,,,,,,,,,
774484,001,2022-11-13_17h28.01.075,Info_measure_main_exp,2022.2.2,Win32,120.1345507,,,,,,,,,,,,,,,,,,masks/mask_004.jpg,,,,,,,,,,,,,,,,,,,,,,,,,,,,,,,,,,,,,,,,,,,0,1,1,3,1,,,,,,,,,,,,,,,,,,,,,,,,,,,,,,,,,,,,,,,,,,,,,,
774484,001,2022-11-13_17h28.01.075,Info_measure_main_exp,2022.2.2,Win32,120.1345507,,,,,,,,,,,,,,,,,,masks/mask_005.jpg,,,,,,,,,,,,,,,,,,,,,,,,,,,,,,,,,,,,,,,,,,,0,2,2,4,1,,,,,,,,,,,,,,,,,,,,,,,,,,,,,,,,,,,,,,,,,,,,,,
774484,001,2022-11-13_17h28.01.075,Info_measure_main_exp,2022.2.2,Win32,120.1345507,,,,,,,,,,,,,,,,,,masks/mask_001.jpg,,,,,,,,,,,,,,,,,,,,,,,,,,,,,,,,,,,,,,,,,,,0,3,3,0,1,,,,,,,,,,,,,,,,,,,,,,,,,,,,,,,,,,,,,,,,,,,,,,
774484,001,2022-11-13_17h28.01.075,Info_measure_main_exp,2022.2.2,Win32,120.1345507,,,,,,,,,,,,,,,,,,masks/mask_003.jpg,,,,,,,,,,,,,,,,,,,,,,,,,,,,,,,,,,,,,,,,,,,0,4,4,2,1,,,,,,,,,,,,,,,,,,,,,,,,,,,,,,,,,,,,,,,,,,,,,,
774484,001,2022-11-13_17h28.01.075,Info_measure_main_exp,2022.2.2,Win32,120.1345507,,,,,,,,,,,,,,,,,,masks/mask_002.jpg,,,,,,,,,,,,,,,,,,,,,,,,,,,,,,,,,,,,,,,,,,,,,,,,0,0,0,1,1,,,,,,,,,,,,,,,,,,,,,,,,,,,,,,,,,,,,,,,,,
774484,001,2022-11-13_17h28.01.075,Info_measure_main_exp,2022.2.2,Win32,120.1345507,,,,,,,,,,,,,,,,,,masks/mask_001.jpg,,,,,,,,,,,,,,,,,,,,,,,,,,,,,,,,,,,,,,,,,,,,,,,,0,1,1,0,1,,,,,,,,,,,,,,,,,,,,,,,,,,,,,,,,,,,,,,,,,
774484,001,2022-11-13_17h28.01.075,Info_measure_main_exp,2022.2.2,Win32,120.1345507,,,,,,,,,,,,,,,,,,masks/mask_005.jpg,,,,,,,,,,,,,,,,,,,,,,,,,,,,,,,,,,,,,,,,,,,,,,,,0,2,2,4,1,,,,,,,,,,,,,,,,,,,,,,,,,,,,,,,,,,,,,,,,,
774484,001,2022-11-13_17h28.01.075,Info_measure_main_exp,2022.2.2,Win32,120.1345507,,,,,,,,,,,,,,,,,,masks/mask_004.jpg,,,,,,,,,,,,,,,,,,,,,,,,,,,,,,,,,,,,,,,,,,,,,,,,0,3,3,3,1,,,,,,,,,,,,,,,,,,,,,,,,,,,,,,,,,,,,,,,,,
774484,001,2022-11-13_17h28.01.075,Info_measure_main_exp,2022.2.2,Win32,120.1345507,,,,,,,,,,,,,,,,,,masks/mask_003.jpg,,,,,,,,,,,,,,,,,,,,,,,,,,,,,,,,,,,,,,,,,,,,,,,,0,4,4,2,1,,,,,,,,,,,,,,,,,,,,,,,,,,,,,,,,,,,,,,,,,
774484,001,2022-11-13_17h28.01.075,Info_measure_main_exp,2022.2.2,Win32,120.1345507,,,,,,,,,,,,,,,,,,,,,,,,,,,,,,6,1.722,1,,,,,,,,,,,,0,131,5,5,2250,2142,absent_patch/patch0002250.jpg,absent_patch/patch0002142.jpg,,,,,,,,,,,,,,,,,,,,0.108333376,0.045370349,1,0,0,response1disk,16,-0.006481453,0.001851859,1,0,0,center_square,0,15,15,71,1,,,,,,,,,,,,,,,,,,,,,,,
774484,001,2022-11-13_17h28.01.075,Info_measure_main_exp,2022.2.2,Win32,120.1345507,,,,,,,,,,,,,,,,,,masks/mask_002.jpg,,,,,,,,,,,,,,,,,,,,,,,,,,,,,,,,,,,,,,,,,,,0,0,0,1,1,,,,,,,,,,,,,,,,,,,,,,,,,,,,,,,,,,,,,,,,,,,,,,
774484,001,2022-11-13_17h28.01.075,Info_measure_main_exp,2022.2.2,Win32,120.1345507,,,,,,,,,,,,,,,,,,masks/mask_004.jpg,,,,,,,,,,,,,,,,,,,,,,,,,,,,,,,,,,,,,,,,,,,0,1,1,3,1,,,,,,,,,,,,,,,,,,,,,,,,,,,,,,,,,,,,,,,,,,,,,,
774484,001,2022-11-13_17h28.01.075,Info_measure_main_exp,2022.2.2,Win32,120.1345507,,,,,,,,,,,,,,,,,,masks/mask_003.jpg,,,,,,,,,,,,,,,,,,,,,,,,,,,,,,,,,,,,,,,,,,,0,2,2,2,1,,,,,,,,,,,,,,,,,,,,,,,,,,,,,,,,,,,,,,,,,,,,,,
774484,001,2022-11-13_17h28.01.075,Info_measure_main_exp,2022.2.2,Win32,120.1345507,,,,,,,,,,,,,,,,,,masks/mask_001.jpg,,,,,,,,,,,,,,,,,,,,,,,,,,,,,,,,,,,,,,,,,,,0,3,3,0,1,,,,,,,,,,,,,,,,,,,,,,,,,,,,,,,,,,,,,,,,,,,,,,
774484,001,2022-11-13_17h28.01.075,Info_measure_main_exp,2022.2.2,Win32,120.1345507,,,,,,,,,,,,,,,,,,masks/mask_005.jpg,,,,,,,,,,,,,,,,,,,,,,,,,,,,,,,,,,,,,,,,,,,0,4,4,4,1,,,,,,,,,,,,,,,,,,,,,,,,,,,,,,,,,,,,,,,,,,,,,,
774484,001,2022-11-13_17h28.01.075,Info_measure_main_exp,2022.2.2,Win32,120.1345507,,,,,,,,,,,,,,,,,,masks/mask_003.jpg,,,,,,,,,,,,,,,,,,,,,,,,,,,,,,,,,,,,,,,,,,,,,,,,0,0,0,2,1,,,,,,,,,,,,,,,,,,,,,,,,,,,,,,,,,,,,,,,,,
774484,001,2022-11-13_17h28.01.075,Info_measure_main_exp,2022.2.2,Win32,120.1345507,,,,,,,,,,,,,,,,,,masks/mask_005.jpg,,,,,,,,,,,,,,,,,,,,,,,,,,,,,,,,,,,,,,,,,,,,,,,,0,1,1,4,1,,,,,,,,,,,,,,,,,,,,,,,,,,,,,,,,,,,,,,,,,
774484,001,2022-11-13_17h28.01.075,Info_measure_main_exp,2022.2.2,Win32,120.1345507,,,,,,,,,,,,,,,,,,masks/mask_004.jpg,,,,,,,,,,,,,,,,,,,,,,,,,,,,,,,,,,,,,,,,,,,,,,,,0,2,2,3,1,,,,,,,,,,,,,,,,,,,,,,,,,,,,,,,,,,,,,,,,,
774484,001,2022-11-13_17h28.01.075,Info_measure_main_exp,2022.2.2,Win32,120.1345507,,,,,,,,,,,,,,,,,,masks/mask_002.jpg,,,,,,,,,,,,,,,,,,,,,,,,,,,,,,,,,,,,,,,,,,,,,,,,0,3,3,1,1,,,,,,,,,,,,,,,,,,,,,,,,,,,,,,,,,,,,,,,,,
774484,001,2022-11-13_17h28.01.075,Info_measure_main_exp,2022.2.2,Win32,120.1345507,,,,,,,,,,,,,,,,,,masks/mask_001.jpg,,,,,,,,,,,,,,,,,,,,,,,,,,,,,,,,,,,,,,,,,,,,,,,,0,4,4,0,1,,,,,,,,,,,,,,,,,,,,,,,,,,,,,,,,,,,,,,,,,
774484,001,2022-11-13_17h28.01.075,Info_measure_main_exp,2022.2.2,Win32,120.1345507,,,,,,,,,,,,,,,,,,,,,,,,,,,,,,7,1.4142,1,,,,,,,,,,,,0,131,5,5,1950,2166,absent_patch/patch0001950.jpg,absent_patch/patch0002166.jpg,,,,,,,,,,,,,,,,,,,,0.065740727,0.11296297,1,0,0,response1disk,17,0,0.006481489,1,0,0,center_square,0,16,16,0,1,,,,,,,,,,,,,,,,,,,,,,,
774484,001,2022-11-13_17h28.01.075,Info_measure_main_exp,2022.2.2,Win32,120.1345507,,,,,,,,,,,,,,,,,,masks/mask_004.jpg,,,,,,,,,,,,,,,,,,,,,,,,,,,,,,,,,,,,,,,,,,,0,0,0,3,1,,,,,,,,,,,,,,,,,,,,,,,,,,,,,,,,,,,,,,,,,,,,,,
774484,001,2022-11-13_17h28.01.075,Info_measure_main_exp,2022.2.2,Win32,120.1345507,,,,,,,,,,,,,,,,,,masks/mask_001.jpg,,,,,,,,,,,,,,,,,,,,,,,,,,,,,,,,,,,,,,,,,,,0,1,1,0,1,,,,,,,,,,,,,,,,,,,,,,,,,,,,,,,,,,,,,,,,,,,,,,
774484,001,2022-11-13_17h28.01.075,Info_measure_main_exp,2022.2.2,Win32,120.1345507,,,,,,,,,,,,,,,,,,masks/mask_005.jpg,,,,,,,,,,,,,,,,,,,,,,,,,,,,,,,,,,,,,,,,,,,0,2,2,4,1,,,,,,,,,,,,,,,,,,,,,,,,,,,,,,,,,,,,,,,,,,,,,,
774484,001,2022-11-13_17h28.01.075,Info_measure_main_exp,2022.2.2,Win32,120.1345507,,,,,,,,,,,,,,,,,,masks/mask_003.jpg,,,,,,,,,,,,,,,,,,,,,,,,,,,,,,,,,,,,,,,,,,,0,3,3,2,1,,,,,,,,,,,,,,,,,,,,,,,,,,,,,,,,,,,,,,,,,,,,,,
774484,001,2022-11-13_17h28.01.075,Info_measure_main_exp,2022.2.2,Win32,120.1345507,,,,,,,,,,,,,,,,,,masks/mask_002.jpg,,,,,,,,,,,,,,,,,,,,,,,,,,,,,,,,,,,,,,,,,,,0,4,4,1,1,,,,,,,,,,,,,,,,,,,,,,,,,,,,,,,,,,,,,,,,,,,,,,
774484,001,2022-11-13_17h28.01.075,Info_measure_main_exp,2022.2.2,Win32,120.1345507,,,,,,,,,,,,,,,,,,masks/mask_005.jpg,,,,,,,,,,,,,,,,,,,,,,,,,,,,,,,,,,,,,,,,,,,,,,,,0,0,0,4,1,,,,,,,,,,,,,,,,,,,,,,,,,,,,,,,,,,,,,,,,,
774484,001,2022-11-13_17h28.01.075,Info_measure_main_exp,2022.2.2,Win32,120.1345507,,,,,,,,,,,,,,,,,,masks/mask_002.jpg,,,,,,,,,,,,,,,,,,,,,,,,,,,,,,,,,,,,,,,,,,,,,,,,0,1,1,1,1,,,,,,,,,,,,,,,,,,,,,,,,,,,,,,,,,,,,,,,,,
774484,001,2022-11-13_17h28.01.075,Info_measure_main_exp,2022.2.2,Win32,120.1345507,,,,,,,,,,,,,,,,,,masks/mask_001.jpg,,,,,,,,,,,,,,,,,,,,,,,,,,,,,,,,,,,,,,,,,,,,,,,,0,2,2,0,1,,,,,,,,,,,,,,,,,,,,,,,,,,,,,,,,,,,,,,,,,
774484,001,2022-11-13_17h28.01.075,Info_measure_main_exp,2022.2.2,Win32,120.1345507,,,,,,,,,,,,,,,,,,masks/mask_004.jpg,,,,,,,,,,,,,,,,,,,,,,,,,,,,,,,,,,,,,,,,,,,,,,,,0,3,3,3,1,,,,,,,,,,,,,,,,,,,,,,,,,,,,,,,,,,,,,,,,,
774484,001,2022-11-13_17h28.01.075,Info_measure_main_exp,2022.2.2,Win32,120.1345507,,,,,,,,,,,,,,,,,,masks/mask_003.jpg,,,,,,,,,,,,,,,,,,,,,,,,,,,,,,,,,,,,,,,,,,,,,,,,0,4,4,2,1,,,,,,,,,,,,,,,,,,,,,,,,,,,,,,,,,,,,,,,,,
774484,001,2022-11-13_17h28.01.075,Info_measure_main_exp,2022.2.2,Win32,120.1345507,,,,,,,,,,,,,,,,,,,,,,,,,,,,,,0,0.8069,1,,,,,,,,,,,,1,131,5,5,1,1,present_patch/cong_131_5_a.jpg,present_patch/cong_131_5_a.jpg,,,,,,,,,,,,,,,,,,,,-0.053703661,0.131481489,1,0,0,response7disk,18,0.010185171,0.00462963,1,0,0,center_square,0,17,17,30,1,,,,,,,,,,,,,,,,,,,,,,,
774484,001,2022-11-13_17h28.01.075,Info_measure_main_exp,2022.2.2,Win32,120.1345507,,,,,,,,,,,,,,,,,,masks/mask_005.jpg,,,,,,,,,,,,,,,,,,,,,,,,,,,,,,,,,,,,,,,,,,,0,0,0,4,1,,,,,,,,,,,,,,,,,,,,,,,,,,,,,,,,,,,,,,,,,,,,,,
774484,001,2022-11-13_17h28.01.075,Info_measure_main_exp,2022.2.2,Win32,120.1345507,,,,,,,,,,,,,,,,,,masks/mask_003.jpg,,,,,,,,,,,,,,,,,,,,,,,,,,,,,,,,,,,,,,,,,,,0,1,1,2,1,,,,,,,,,,,,,,,,,,,,,,,,,,,,,,,,,,,,,,,,,,,,,,
774484,001,2022-11-13_17h28.01.075,Info_measure_main_exp,2022.2.2,Win32,120.1345507,,,,,,,,,,,,,,,,,,masks/mask_002.jpg,,,,,,,,,,,,,,,,,,,,,,,,,,,,,,,,,,,,,,,,,,,0,2,2,1,1,,,,,,,,,,,,,,,,,,,,,,,,,,,,,,,,,,,,,,,,,,,,,,
774484,001,2022-11-13_17h28.01.075,Info_measure_main_exp,2022.2.2,Win32,120.1345507,,,,,,,,,,,,,,,,,,masks/mask_001.jpg,,,,,,,,,,,,,,,,,,,,,,,,,,,,,,,,,,,,,,,,,,,0,3,3,0,1,,,,,,,,,,,,,,,,,,,,,,,,,,,,,,,,,,,,,,,,,,,,,,
774484,001,2022-11-13_17h28.01.075,Info_measure_main_exp,2022.2.2,Win32,120.1345507,,,,,,,,,,,,,,,,,,masks/mask_004.jpg,,,,,,,,,,,,,,,,,,,,,,,,,,,,,,,,,,,,,,,,,,,0,4,4,3,1,,,,,,,,,,,,,,,,,,,,,,,,,,,,,,,,,,,,,,,,,,,,,,
774484,001,2022-11-13_17h28.01.075,Info_measure_main_exp,2022.2.2,Win32,120.1345507,,,,,,,,,,,,,,,,,,masks/mask_003.jpg,,,,,,,,,,,,,,,,,,,,,,,,,,,,,,,,,,,,,,,,,,,,,,,,0,0,0,2,1,,,,,,,,,,,,,,,,,,,,,,,,,,,,,,,,,,,,,,,,,
774484,001,2022-11-13_17h28.01.075,Info_measure_main_exp,2022.2.2,Win32,120.1345507,,,,,,,,,,,,,,,,,,masks/mask_002.jpg,,,,,,,,,,,,,,,,,,,,,,,,,,,,,,,,,,,,,,,,,,,,,,,,0,1,1,1,1,,,,,,,,,,,,,,,,,,,,,,,,,,,,,,,,,,,,,,,,,
774484,001,2022-11-13_17h28.01.075,Info_measure_main_exp,2022.2.2,Win32,120.1345507,,,,,,,,,,,,,,,,,,masks/mask_005.jpg,,,,,,,,,,,,,,,,,,,,,,,,,,,,,,,,,,,,,,,,,,,,,,,,0,2,2,4,1,,,,,,,,,,,,,,,,,,,,,,,,,,,,,,,,,,,,,,,,,
774484,001,2022-11-13_17h28.01.075,Info_measure_main_exp,2022.2.2,Win32,120.1345507,,,,,,,,,,,,,,,,,,masks/mask_004.jpg,,,,,,,,,,,,,,,,,,,,,,,,,,,,,,,,,,,,,,,,,,,,,,,,0,3,3,3,1,,,,,,,,,,,,,,,,,,,,,,,,,,,,,,,,,,,,,,,,,
774484,001,2022-11-13_17h28.01.075,Info_measure_main_exp,2022.2.2,Win32,120.1345507,,,,,,,,,,,,,,,,,,masks/mask_001.jpg,,,,,,,,,,,,,,,,,,,,,,,,,,,,,,,,,,,,,,,,,,,,,,,,0,4,4,0,1,,,,,,,,,,,,,,,,,,,,,,,,,,,,,,,,,,,,,,,,,
774484,001,2022-11-13_17h28.01.075,Info_measure_main_exp,2022.2.2,Win32,120.1345507,,,,,,,,,,,,,,,,,,,,,,,,,,,,,,5,3.2108,1,,,,,,,,,,,,0,131,5,5,2166,2154,absent_patch/patch0002166.jpg,absent_patch/patch0002154.jpg,,,,,,,,,,,,,,,,,,,,0.152777778,-0.029629637,1,0,0,response3disk,19,-0.005555541,-0.002777771,1,0,0,center_square,0,18,18,79,1,,,,,,,,,,,,,,,,,,,,,,,
774484,001,2022-11-13_17h28.01.075,Info_measure_main_exp,2022.2.2,Win32,120.1345507,,,,,,,,,,,,,,,,,,masks/mask_005.jpg,,,,,,,,,,,,,,,,,,,,,,,,,,,,,,,,,,,,,,,,,,,0,0,0,4,1,,,,,,,,,,,,,,,,,,,,,,,,,,,,,,,,,,,,,,,,,,,,,,
774484,001,2022-11-13_17h28.01.075,Info_measure_main_exp,2022.2.2,Win32,120.1345507,,,,,,,,,,,,,,,,,,masks/mask_001.jpg,,,,,,,,,,,,,,,,,,,,,,,,,,,,,,,,,,,,,,,,,,,0,1,1,0,1,,,,,,,,,,,,,,,,,,,,,,,,,,,,,,,,,,,,,,,,,,,,,,
774484,001,2022-11-13_17h28.01.075,Info_measure_main_exp,2022.2.2,Win32,120.1345507,,,,,,,,,,,,,,,,,,masks/mask_003.jpg,,,,,,,,,,,,,,,,,,,,,,,,,,,,,,,,,,,,,,,,,,,0,2,2,2,1,,,,,,,,,,,,,,,,,,,,,,,,,,,,,,,,,,,,,,,,,,,,,,
774484,001,2022-11-13_17h28.01.075,Info_measure_main_exp,2022.2.2,Win32,120.1345507,,,,,,,,,,,,,,,,,,masks/mask_004.jpg,,,,,,,,,,,,,,,,,,,,,,,,,,,,,,,,,,,,,,,,,,,0,3,3,3,1,,,,,,,,,,,,,,,,,,,,,,,,,,,,,,,,,,,,,,,,,,,,,,
774484,001,2022-11-13_17h28.01.075,Info_measure_main_exp,2022.2.2,Win32,120.1345507,,,,,,,,,,,,,,,,,,masks/mask_002.jpg,,,,,,,,,,,,,,,,,,,,,,,,,,,,,,,,,,,,,,,,,,,0,4,4,1,1,,,,,,,,,,,,,,,,,,,,,,,,,,,,,,,,,,,,,,,,,,,,,,
774484,001,2022-11-13_17h28.01.075,Info_measure_main_exp,2022.2.2,Win32,120.1345507,,,,,,,,,,,,,,,,,,masks/mask_004.jpg,,,,,,,,,,,,,,,,,,,,,,,,,,,,,,,,,,,,,,,,,,,,,,,,0,0,0,3,1,,,,,,,,,,,,,,,,,,,,,,,,,,,,,,,,,,,,,,,,,
774484,001,2022-11-13_17h28.01.075,Info_measure_main_exp,2022.2.2,Win32,120.1345507,,,,,,,,,,,,,,,,,,masks/mask_002.jpg,,,,,,,,,,,,,,,,,,,,,,,,,,,,,,,,,,,,,,,,,,,,,,,,0,1,1,1,1,,,,,,,,,,,,,,,,,,,,,,,,,,,,,,,,,,,,,,,,,
774484,001,2022-11-13_17h28.01.075,Info_measure_main_exp,2022.2.2,Win32,120.1345507,,,,,,,,,,,,,,,,,,masks/mask_001.jpg,,,,,,,,,,,,,,,,,,,,,,,,,,,,,,,,,,,,,,,,,,,,,,,,0,2,2,0,1,,,,,,,,,,,,,,,,,,,,,,,,,,,,,,,,,,,,,,,,,
774484,001,2022-11-13_17h28.01.075,Info_measure_main_exp,2022.2.2,Win32,120.1345507,,,,,,,,,,,,,,,,,,masks/mask_003.jpg,,,,,,,,,,,,,,,,,,,,,,,,,,,,,,,,,,,,,,,,,,,,,,,,0,3,3,2,1,,,,,,,,,,,,,,,,,,,,,,,,,,,,,,,,,,,,,,,,,
774484,001,2022-11-13_17h28.01.075,Info_measure_main_exp,2022.2.2,Win32,120.1345507,,,,,,,,,,,,,,,,,,masks/mask_005.jpg,,,,,,,,,,,,,,,,,,,,,,,,,,,,,,,,,,,,,,,,,,,,,,,,0,4,4,4,1,,,,,,,,,,,,,,,,,,,,,,,,,,,,,,,,,,,,,,,,,
774484,001,2022-11-13_17h28.01.075,Info_measure_main_exp,2022.2.2,Win32,120.1345507,,,,,,,,,,,,,,,,,,,,,,,,,,,,,,2,1.3477,1,,,,,,,,,,,,0,131,5,5,2274,2238,absent_patch/patch0002274.jpg,absent_patch/patch0002238.jpg,,,,,,,,,,,,,,,,,,,,-0.125,-0.046296296,1,0,0,response5disk,20,0.005555541,-0.002777771,1,0,0,center_square,0,19,19,91,1,,,,,,,,,,,,,,,,,,,,,,,
774484,001,2022-11-13_17h28.01.075,Info_measure_main_exp,2022.2.2,Win32,120.1345507,,,,,,,,,,,,,,,,,,masks/mask_002.jpg,,,,,,,,,,,,,,,,,,,,,,,,,,,,,,,,,,,,,,,,,,,0,0,0,1,1,,,,,,,,,,,,,,,,,,,,,,,,,,,,,,,,,,,,,,,,,,,,,,
774484,001,2022-11-13_17h28.01.075,Info_measure_main_exp,2022.2.2,Win32,120.1345507,,,,,,,,,,,,,,,,,,masks/mask_005.jpg,,,,,,,,,,,,,,,,,,,,,,,,,,,,,,,,,,,,,,,,,,,0,1,1,4,1,,,,,,,,,,,,,,,,,,,,,,,,,,,,,,,,,,,,,,,,,,,,,,
774484,001,2022-11-13_17h28.01.075,Info_measure_main_exp,2022.2.2,Win32,120.1345507,,,,,,,,,,,,,,,,,,masks/mask_003.jpg,,,,,,,,,,,,,,,,,,,,,,,,,,,,,,,,,,,,,,,,,,,0,2,2,2,1,,,,,,,,,,,,,,,,,,,,,,,,,,,,,,,,,,,,,,,,,,,,,,
774484,001,2022-11-13_17h28.01.075,Info_measure_main_exp,2022.2.2,Win32,120.1345507,,,,,,,,,,,,,,,,,,masks/mask_001.jpg,,,,,,,,,,,,,,,,,,,,,,,,,,,,,,,,,,,,,,,,,,,0,3,3,0,1,,,,,,,,,,,,,,,,,,,,,,,,,,,,,,,,,,,,,,,,,,,,,,
774484,001,2022-11-13_17h28.01.075,Info_measure_main_exp,2022.2.2,Win32,120.1345507,,,,,,,,,,,,,,,,,,masks/mask_004.jpg,,,,,,,,,,,,,,,,,,,,,,,,,,,,,,,,,,,,,,,,,,,0,4,4,3,1,,,,,,,,,,,,,,,,,,,,,,,,,,,,,,,,,,,,,,,,,,,,,,
774484,001,2022-11-13_17h28.01.075,Info_measure_main_exp,2022.2.2,Win32,120.1345507,,,,,,,,,,,,,,,,,,masks/mask_004.jpg,,,,,,,,,,,,,,,,,,,,,,,,,,,,,,,,,,,,,,,,,,,,,,,,0,0,0,3,1,,,,,,,,,,,,,,,,,,,,,,,,,,,,,,,,,,,,,,,,,
774484,001,2022-11-13_17h28.01.075,Info_measure_main_exp,2022.2.2,Win32,120.1345507,,,,,,,,,,,,,,,,,,masks/mask_001.jpg,,,,,,,,,,,,,,,,,,,,,,,,,,,,,,,,,,,,,,,,,,,,,,,,0,1,1,0,1,,,,,,,,,,,,,,,,,,,,,,,,,,,,,,,,,,,,,,,,,
774484,001,2022-11-13_17h28.01.075,Info_measure_main_exp,2022.2.2,Win32,120.1345507,,,,,,,,,,,,,,,,,,masks/mask_002.jpg,,,,,,,,,,,,,,,,,,,,,,,,,,,,,,,,,,,,,,,,,,,,,,,,0,2,2,1,1,,,,,,,,,,,,,,,,,,,,,,,,,,,,,,,,,,,,,,,,,
774484,001,2022-11-13_17h28.01.075,Info_measure_main_exp,2022.2.2,Win32,120.1345507,,,,,,,,,,,,,,,,,,masks/mask_005.jpg,,,,,,,,,,,,,,,,,,,,,,,,,,,,,,,,,,,,,,,,,,,,,,,,0,3,3,4,1,,,,,,,,,,,,,,,,,,,,,,,,,,,,,,,,,,,,,,,,,
774484,001,2022-11-13_17h28.01.075,Info_measure_main_exp,2022.2.2,Win32,120.1345507,,,,,,,,,,,,,,,,,,masks/mask_003.jpg,,,,,,,,,,,,,,,,,,,,,,,,,,,,,,,,,,,,,,,,,,,,,,,,0,4,4,2,1,,,,,,,,,,,,,,,,,,,,,,,,,,,,,,,,,,,,,,,,,
774484,001,2022-11-13_17h28.01.075,Info_measure_main_exp,2022.2.2,Win32,120.1345507,,,,,,,,,,,,,,,,,,,,,,,,,,,,,,2,0.9068,1,,,,,,,,,,,,0,131,5,5,2154,2238,absent_patch/patch0002154.jpg,absent_patch/patch0002238.jpg,,,,,,,,,,,,,,,,,,,,-0.127777735,-0.036111125,1,0,0,response5disk,21,-0.00462963,-0.001851859,1,0,0,center_square,0,20,20,21,1,,,,,,,,,,,,,,,,,,,,,,,
774484,001,2022-11-13_17h28.01.075,Info_measure_main_exp,2022.2.2,Win32,120.1345507,,,,,,,,,,,,,,,,,,masks/mask_005.jpg,,,,,,,,,,,,,,,,,,,,,,,,,,,,,,,,,,,,,,,,,,,0,0,0,4,1,,,,,,,,,,,,,,,,,,,,,,,,,,,,,,,,,,,,,,,,,,,,,,
774484,001,2022-11-13_17h28.01.075,Info_measure_main_exp,2022.2.2,Win32,120.1345507,,,,,,,,,,,,,,,,,,masks/mask_002.jpg,,,,,,,,,,,,,,,,,,,,,,,,,,,,,,,,,,,,,,,,,,,0,1,1,1,1,,,,,,,,,,,,,,,,,,,,,,,,,,,,,,,,,,,,,,,,,,,,,,
774484,001,2022-11-13_17h28.01.075,Info_measure_main_exp,2022.2.2,Win32,120.1345507,,,,,,,,,,,,,,,,,,masks/mask_001.jpg,,,,,,,,,,,,,,,,,,,,,,,,,,,,,,,,,,,,,,,,,,,0,2,2,0,1,,,,,,,,,,,,,,,,,,,,,,,,,,,,,,,,,,,,,,,,,,,,,,
774484,001,2022-11-13_17h28.01.075,Info_measure_main_exp,2022.2.2,Win32,120.1345507,,,,,,,,,,,,,,,,,,masks/mask_004.jpg,,,,,,,,,,,,,,,,,,,,,,,,,,,,,,,,,,,,,,,,,,,0,3,3,3,1,,,,,,,,,,,,,,,,,,,,,,,,,,,,,,,,,,,,,,,,,,,,,,
774484,001,2022-11-13_17h28.01.075,Info_measure_main_exp,2022.2.2,Win32,120.1345507,,,,,,,,,,,,,,,,,,masks/mask_003.jpg,,,,,,,,,,,,,,,,,,,,,,,,,,,,,,,,,,,,,,,,,,,0,4,4,2,1,,,,,,,,,,,,,,,,,,,,,,,,,,,,,,,,,,,,,,,,,,,,,,
774484,001,2022-11-13_17h28.01.075,Info_measure_main_exp,2022.2.2,Win32,120.1345507,,,,,,,,,,,,,,,,,,masks/mask_005.jpg,,,,,,,,,,,,,,,,,,,,,,,,,,,,,,,,,,,,,,,,,,,,,,,,0,0,0,4,1,,,,,,,,,,,,,,,,,,,,,,,,,,,,,,,,,,,,,,,,,
774484,001,2022-11-13_17h28.01.075,Info_measure_main_exp,2022.2.2,Win32,120.1345507,,,,,,,,,,,,,,,,,,masks/mask_002.jpg,,,,,,,,,,,,,,,,,,,,,,,,,,,,,,,,,,,,,,,,,,,,,,,,0,1,1,1,1,,,,,,,,,,,,,,,,,,,,,,,,,,,,,,,,,,,,,,,,,
774484,001,2022-11-13_17h28.01.075,Info_measure_main_exp,2022.2.2,Win32,120.1345507,,,,,,,,,,,,,,,,,,masks/mask_004.jpg,,,,,,,,,,,,,,,,,,,,,,,,,,,,,,,,,,,,,,,,,,,,,,,,0,2,2,3,1,,,,,,,,,,,,,,,,,,,,,,,,,,,,,,,,,,,,,,,,,
774484,001,2022-11-13_17h28.01.075,Info_measure_main_exp,2022.2.2,Win32,120.1345507,,,,,,,,,,,,,,,,,,masks/mask_003.jpg,,,,,,,,,,,,,,,,,,,,,,,,,,,,,,,,,,,,,,,,,,,,,,,,0,3,3,2,1,,,,,,,,,,,,,,,,,,,,,,,,,,,,,,,,,,,,,,,,,
774484,001,2022-11-13_17h28.01.075,Info_measure_main_exp,2022.2.2,Win32,120.1345507,,,,,,,,,,,,,,,,,,masks/mask_001.jpg,,,,,,,,,,,,,,,,,,,,,,,,,,,,,,,,,,,,,,,,,,,,,,,,0,4,4,0,1,,,,,,,,,,,,,,,,,,,,,,,,,,,,,,,,,,,,,,,,,
774484,001,2022-11-13_17h28.01.075,Info_measure_main_exp,2022.2.2,Win32,120.1345507,,,,,,,,,,,,,,,,,,,,,,,,,,,,,,0,0.94,1,,,,,,,,,,,,0,131,5,5,2082,2082,absent_patch/patch0002082.jpg,absent_patch/patch0002082.jpg,,,,,,,,,,,,,,,,,,,,-0.053703661,0.15370369,1,0,0,response7disk,22,0,0.000925912,1,0,0,center_square,0,21,21,74,1,,,,,,,,,,,,,,,,,,,,,,,
774484,001,2022-11-13_17h28.01.075,Info_measure_main_exp,2022.2.2,Win32,120.1345507,,,,,,,,,,,,,,,,,,masks/mask_003.jpg,,,,,,,,,,,,,,,,,,,,,,,,,,,,,,,,,,,,,,,,,,,0,0,0,2,1,,,,,,,,,,,,,,,,,,,,,,,,,,,,,,,,,,,,,,,,,,,,,,
774484,001,2022-11-13_17h28.01.075,Info_measure_main_exp,2022.2.2,Win32,120.1345507,,,,,,,,,,,,,,,,,,masks/mask_002.jpg,,,,,,,,,,,,,,,,,,,,,,,,,,,,,,,,,,,,,,,,,,,0,1,1,1,1,,,,,,,,,,,,,,,,,,,,,,,,,,,,,,,,,,,,,,,,,,,,,,
774484,001,2022-11-13_17h28.01.075,Info_measure_main_exp,2022.2.2,Win32,120.1345507,,,,,,,,,,,,,,,,,,masks/mask_004.jpg,,,,,,,,,,,,,,,,,,,,,,,,,,,,,,,,,,,,,,,,,,,0,2,2,3,1,,,,,,,,,,,,,,,,,,,,,,,,,,,,,,,,,,,,,,,,,,,,,,
774484,001,2022-11-13_17h28.01.075,Info_measure_main_exp,2022.2.2,Win32,120.1345507,,,,,,,,,,,,,,,,,,masks/mask_005.jpg,,,,,,,,,,,,,,,,,,,,,,,,,,,,,,,,,,,,,,,,,,,0,3,3,4,1,,,,,,,,,,,,,,,,,,,,,,,,,,,,,,,,,,,,,,,,,,,,,,
774484,001,2022-11-13_17h28.01.075,Info_measure_main_exp,2022.2.2,Win32,120.1345507,,,,,,,,,,,,,,,,,,masks/mask_001.jpg,,,,,,,,,,,,,,,,,,,,,,,,,,,,,,,,,,,,,,,,,,,0,4,4,0,1,,,,,,,,,,,,,,,,,,,,,,,,,,,,,,,,,,,,,,,,,,,,,,
774484,001,2022-11-13_17h28.01.075,Info_measure_main_exp,2022.2.2,Win32,120.1345507,,,,,,,,,,,,,,,,,,masks/mask_005.jpg,,,,,,,,,,,,,,,,,,,,,,,,,,,,,,,,,,,,,,,,,,,,,,,,0,0,0,4,1,,,,,,,,,,,,,,,,,,,,,,,,,,,,,,,,,,,,,,,,,
774484,001,2022-11-13_17h28.01.075,Info_measure_main_exp,2022.2.2,Win32,120.1345507,,,,,,,,,,,,,,,,,,masks/mask_003.jpg,,,,,,,,,,,,,,,,,,,,,,,,,,,,,,,,,,,,,,,,,,,,,,,,0,1,1,2,1,,,,,,,,,,,,,,,,,,,,,,,,,,,,,,,,,,,,,,,,,
774484,001,2022-11-13_17h28.01.075,Info_measure_main_exp,2022.2.2,Win32,120.1345507,,,,,,,,,,,,,,,,,,masks/mask_001.jpg,,,,,,,,,,,,,,,,,,,,,,,,,,,,,,,,,,,,,,,,,,,,,,,,0,2,2,0,1,,,,,,,,,,,,,,,,,,,,,,,,,,,,,,,,,,,,,,,,,
774484,001,2022-11-13_17h28.01.075,Info_measure_main_exp,2022.2.2,Win32,120.1345507,,,,,,,,,,,,,,,,,,masks/mask_004.jpg,,,,,,,,,,,,,,,,,,,,,,,,,,,,,,,,,,,,,,,,,,,,,,,,0,3,3,3,1,,,,,,,,,,,,,,,,,,,,,,,,,,,,,,,,,,,,,,,,,
774484,001,2022-11-13_17h28.01.075,Info_measure_main_exp,2022.2.2,Win32,120.1345507,,,,,,,,,,,,,,,,,,masks/mask_002.jpg,,,,,,,,,,,,,,,,,,,,,,,,,,,,,,,,,,,,,,,,,,,,,,,,0,4,4,1,1,,,,,,,,,,,,,,,,,,,,,,,,,,,,,,,,,,,,,,,,,
774484,001,2022-11-13_17h28.01.075,Info_measure_main_exp,2022.2.2,Win32,120.1345507,,,,,,,,,,,,,,,,,,,,,,,,,,,,,,6,0.8654,1,,,,,,,,,,,,0,131,5,5,2154,1950,absent_patch/patch0002154.jpg,absent_patch/patch0001950.jpg,,,,,,,,,,,,,,,,,,,,0.12037037,0.03148146,1,0,0,response1disk,23,-0.000925912,-0.0074074,1,0,0,center_square,0,22,22,96,1,,,,,,,,,,,,,,,,,,,,,,,
774484,001,2022-11-13_17h28.01.075,Info_measure_main_exp,2022.2.2,Win32,120.1345507,,,,,,,,,,,,,,,,,,masks/mask_004.jpg,,,,,,,,,,,,,,,,,,,,,,,,,,,,,,,,,,,,,,,,,,,0,0,0,3,1,,,,,,,,,,,,,,,,,,,,,,,,,,,,,,,,,,,,,,,,,,,,,,
774484,001,2022-11-13_17h28.01.075,Info_measure_main_exp,2022.2.2,Win32,120.1345507,,,,,,,,,,,,,,,,,,masks/mask_001.jpg,,,,,,,,,,,,,,,,,,,,,,,,,,,,,,,,,,,,,,,,,,,0,1,1,0,1,,,,,,,,,,,,,,,,,,,,,,,,,,,,,,,,,,,,,,,,,,,,,,
774484,001,2022-11-13_17h28.01.075,Info_measure_main_exp,2022.2.2,Win32,120.1345507,,,,,,,,,,,,,,,,,,masks/mask_002.jpg,,,,,,,,,,,,,,,,,,,,,,,,,,,,,,,,,,,,,,,,,,,0,2,2,1,1,,,,,,,,,,,,,,,,,,,,,,,,,,,,,,,,,,,,,,,,,,,,,,
774484,001,2022-11-13_17h28.01.075,Info_measure_main_exp,2022.2.2,Win32,120.1345507,,,,,,,,,,,,,,,,,,masks/mask_005.jpg,,,,,,,,,,,,,,,,,,,,,,,,,,,,,,,,,,,,,,,,,,,0,3,3,4,1,,,,,,,,,,,,,,,,,,,,,,,,,,,,,,,,,,,,,,,,,,,,,,
774484,001,2022-11-13_17h28.01.075,Info_measure_main_exp,2022.2.2,Win32,120.1345507,,,,,,,,,,,,,,,,,,masks/mask_003.jpg,,,,,,,,,,,,,,,,,,,,,,,,,,,,,,,,,,,,,,,,,,,0,4,4,2,1,,,,,,,,,,,,,,,,,,,,,,,,,,,,,,,,,,,,,,,,,,,,,,
774484,001,2022-11-13_17h28.01.075,Info_measure_main_exp,2022.2.2,Win32,120.1345507,,,,,,,,,,,,,,,,,,masks/mask_004.jpg,,,,,,,,,,,,,,,,,,,,,,,,,,,,,,,,,,,,,,,,,,,,,,,,0,0,0,3,1,,,,,,,,,,,,,,,,,,,,,,,,,,,,,,,,,,,,,,,,,
774484,001,2022-11-13_17h28.01.075,Info_measure_main_exp,2022.2.2,Win32,120.1345507,,,,,,,,,,,,,,,,,,masks/mask_002.jpg,,,,,,,,,,,,,,,,,,,,,,,,,,,,,,,,,,,,,,,,,,,,,,,,0,1,1,1,1,,,,,,,,,,,,,,,,,,,,,,,,,,,,,,,,,,,,,,,,,
774484,001,2022-11-13_17h28.01.075,Info_measure_main_exp,2022.2.2,Win32,120.1345507,,,,,,,,,,,,,,,,,,masks/mask_005.jpg,,,,,,,,,,,,,,,,,,,,,,,,,,,,,,,,,,,,,,,,,,,,,,,,0,2,2,4,1,,,,,,,,,,,,,,,,,,,,,,,,,,,,,,,,,,,,,,,,,
774484,001,2022-11-13_17h28.01.075,Info_measure_main_exp,2022.2.2,Win32,120.1345507,,,,,,,,,,,,,,,,,,masks/mask_003.jpg,,,,,,,,,,,,,,,,,,,,,,,,,,,,,,,,,,,,,,,,,,,,,,,,0,3,3,2,1,,,,,,,,,,,,,,,,,,,,,,,,,,,,,,,,,,,,,,,,,
774484,001,2022-11-13_17h28.01.075,Info_measure_main_exp,2022.2.2,Win32,120.1345507,,,,,,,,,,,,,,,,,,masks/mask_001.jpg,,,,,,,,,,,,,,,,,,,,,,,,,,,,,,,,,,,,,,,,,,,,,,,,0,4,4,0,1,,,,,,,,,,,,,,,,,,,,,,,,,,,,,,,,,,,,,,,,,
774484,001,2022-11-13_17h28.01.075,Info_measure_main_exp,2022.2.2,Win32,120.1345507,,,,,,,,,,,,,,,,,,,,,,,,,,,,,,6,1.3227,1,,,,,,,,,,,,0,131,5,5,2190,2082,absent_patch/patch0002190.jpg,absent_patch/patch0002082.jpg,,,,,,,,,,,,,,,,,,,,0.141666695,0.072222215,1,0,0,response1disk,24,0.003703718,0.003703683,1,0,0,center_square,0,23,23,112,1,,,,,,,,,,,,,,,,,,,,,,,
774484,001,2022-11-13_17h28.01.075,Info_measure_main_exp,2022.2.2,Win32,120.1345507,,,,,,,,,,,,,,,,,,masks/mask_003.jpg,,,,,,,,,,,,,,,,,,,,,,,,,,,,,,,,,,,,,,,,,,,0,0,0,2,1,,,,,,,,,,,,,,,,,,,,,,,,,,,,,,,,,,,,,,,,,,,,,,
774484,001,2022-11-13_17h28.01.075,Info_measure_main_exp,2022.2.2,Win32,120.1345507,,,,,,,,,,,,,,,,,,masks/mask_001.jpg,,,,,,,,,,,,,,,,,,,,,,,,,,,,,,,,,,,,,,,,,,,0,1,1,0,1,,,,,,,,,,,,,,,,,,,,,,,,,,,,,,,,,,,,,,,,,,,,,,
774484,001,2022-11-13_17h28.01.075,Info_measure_main_exp,2022.2.2,Win32,120.1345507,,,,,,,,,,,,,,,,,,masks/mask_005.jpg,,,,,,,,,,,,,,,,,,,,,,,,,,,,,,,,,,,,,,,,,,,0,2,2,4,1,,,,,,,,,,,,,,,,,,,,,,,,,,,,,,,,,,,,,,,,,,,,,,
774484,001,2022-11-13_17h28.01.075,Info_measure_main_exp,2022.2.2,Win32,120.1345507,,,,,,,,,,,,,,,,,,masks/mask_002.jpg,,,,,,,,,,,,,,,,,,,,,,,,,,,,,,,,,,,,,,,,,,,0,3,3,1,1,,,,,,,,,,,,,,,,,,,,,,,,,,,,,,,,,,,,,,,,,,,,,,
774484,001,2022-11-13_17h28.01.075,Info_measure_main_exp,2022.2.2,Win32,120.1345507,,,,,,,,,,,,,,,,,,masks/mask_004.jpg,,,,,,,,,,,,,,,,,,,,,,,,,,,,,,,,,,,,,,,,,,,0,4,4,3,1,,,,,,,,,,,,,,,,,,,,,,,,,,,,,,,,,,,,,,,,,,,,,,
774484,001,2022-11-13_17h28.01.075,Info_measure_main_exp,2022.2.2,Win32,120.1345507,,,,,,,,,,,,,,,,,,masks/mask_003.jpg,,,,,,,,,,,,,,,,,,,,,,,,,,,,,,,,,,,,,,,,,,,,,,,,0,0,0,2,1,,,,,,,,,,,,,,,,,,,,,,,,,,,,,,,,,,,,,,,,,
774484,001,2022-11-13_17h28.01.075,Info_measure_main_exp,2022.2.2,Win32,120.1345507,,,,,,,,,,,,,,,,,,masks/mask_005.jpg,,,,,,,,,,,,,,,,,,,,,,,,,,,,,,,,,,,,,,,,,,,,,,,,0,1,1,4,1,,,,,,,,,,,,,,,,,,,,,,,,,,,,,,,,,,,,,,,,,
774484,001,2022-11-13_17h28.01.075,Info_measure_main_exp,2022.2.2,Win32,120.1345507,,,,,,,,,,,,,,,,,,masks/mask_002.jpg,,,,,,,,,,,,,,,,,,,,,,,,,,,,,,,,,,,,,,,,,,,,,,,,0,2,2,1,1,,,,,,,,,,,,,,,,,,,,,,,,,,,,,,,,,,,,,,,,,
774484,001,2022-11-13_17h28.01.075,Info_measure_main_exp,2022.2.2,Win32,120.1345507,,,,,,,,,,,,,,,,,,masks/mask_004.jpg,,,,,,,,,,,,,,,,,,,,,,,,,,,,,,,,,,,,,,,,,,,,,,,,0,3,3,3,1,,,,,,,,,,,,,,,,,,,,,,,,,,,,,,,,,,,,,,,,,
774484,001,2022-11-13_17h28.01.075,Info_measure_main_exp,2022.2.2,Win32,120.1345507,,,,,,,,,,,,,,,,,,masks/mask_001.jpg,,,,,,,,,,,,,,,,,,,,,,,,,,,,,,,,,,,,,,,,,,,,,,,,0,4,4,0,1,,,,,,,,,,,,,,,,,,,,,,,,,,,,,,,,,,,,,,,,,
774484,001,2022-11-13_17h28.01.075,Info_measure_main_exp,2022.2.2,Win32,120.1345507,,,,,,,,,,,,,,,,,,,,,,,,,,,,,,0,0.6821,1,,,,,,,,,,,,0,131,5,5,2298,2298,absent_patch/patch0002298.jpg,absent_patch/patch0002298.jpg,,,,,,,,,,,,,,,,,,,,-0.074074074,0.116666653,1,0,0,response7disk,25,-0.005555541,0.003703683,1,0,0,center_square,0,24,24,37,1,,,,,,,,,,,,,,,,,,,,,,,
774484,001,2022-11-13_17h28.01.075,Info_measure_main_exp,2022.2.2,Win32,120.1345507,,,,,,,,,,,,,,,,,,masks/mask_003.jpg,,,,,,,,,,,,,,,,,,,,,,,,,,,,,,,,,,,,,,,,,,,0,0,0,2,1,,,,,,,,,,,,,,,,,,,,,,,,,,,,,,,,,,,,,,,,,,,,,,
774484,001,2022-11-13_17h28.01.075,Info_measure_main_exp,2022.2.2,Win32,120.1345507,,,,,,,,,,,,,,,,,,masks/mask_005.jpg,,,,,,,,,,,,,,,,,,,,,,,,,,,,,,,,,,,,,,,,,,,0,1,1,4,1,,,,,,,,,,,,,,,,,,,,,,,,,,,,,,,,,,,,,,,,,,,,,,
774484,001,2022-11-13_17h28.01.075,Info_measure_main_exp,2022.2.2,Win32,120.1345507,,,,,,,,,,,,,,,,,,masks/mask_004.jpg,,,,,,,,,,,,,,,,,,,,,,,,,,,,,,,,,,,,,,,,,,,0,2,2,3,1,,,,,,,,,,,,,,,,,,,,,,,,,,,,,,,,,,,,,,,,,,,,,,
774484,001,2022-11-13_17h28.01.075,Info_measure_main_exp,2022.2.2,Win32,120.1345507,,,,,,,,,,,,,,,,,,masks/mask_002.jpg,,,,,,,,,,,,,,,,,,,,,,,,,,,,,,,,,,,,,,,,,,,0,3,3,1,1,,,,,,,,,,,,,,,,,,,,,,,,,,,,,,,,,,,,,,,,,,,,,,
774484,001,2022-11-13_17h28.01.075,Info_measure_main_exp,2022.2.2,Win32,120.1345507,,,,,,,,,,,,,,,,,,masks/mask_001.jpg,,,,,,,,,,,,,,,,,,,,,,,,,,,,,,,,,,,,,,,,,,,0,4,4,0,1,,,,,,,,,,,,,,,,,,,,,,,,,,,,,,,,,,,,,,,,,,,,,,
774484,001,2022-11-13_17h28.01.075,Info_measure_main_exp,2022.2.2,Win32,120.1345507,,,,,,,,,,,,,,,,,,masks/mask_003.jpg,,,,,,,,,,,,,,,,,,,,,,,,,,,,,,,,,,,,,,,,,,,,,,,,0,0,0,2,1,,,,,,,,,,,,,,,,,,,,,,,,,,,,,,,,,,,,,,,,,
774484,001,2022-11-13_17h28.01.075,Info_measure_main_exp,2022.2.2,Win32,120.1345507,,,,,,,,,,,,,,,,,,masks/mask_002.jpg,,,,,,,,,,,,,,,,,,,,,,,,,,,,,,,,,,,,,,,,,,,,,,,,0,1,1,1,1,,,,,,,,,,,,,,,,,,,,,,,,,,,,,,,,,,,,,,,,,
774484,001,2022-11-13_17h28.01.075,Info_measure_main_exp,2022.2.2,Win32,120.1345507,,,,,,,,,,,,,,,,,,masks/mask_004.jpg,,,,,,,,,,,,,,,,,,,,,,,,,,,,,,,,,,,,,,,,,,,,,,,,0,2,2,3,1,,,,,,,,,,,,,,,,,,,,,,,,,,,,,,,,,,,,,,,,,
774484,001,2022-11-13_17h28.01.075,Info_measure_main_exp,2022.2.2,Win32,120.1345507,,,,,,,,,,,,,,,,,,masks/mask_001.jpg,,,,,,,,,,,,,,,,,,,,,,,,,,,,,,,,,,,,,,,,,,,,,,,,0,3,3,0,1,,,,,,,,,,,,,,,,,,,,,,,,,,,,,,,,,,,,,,,,,
774484,001,2022-11-13_17h28.01.075,Info_measure_main_exp,2022.2.2,Win32,120.1345507,,,,,,,,,,,,,,,,,,masks/mask_005.jpg,,,,,,,,,,,,,,,,,,,,,,,,,,,,,,,,,,,,,,,,,,,,,,,,0,4,4,4,1,,,,,,,,,,,,,,,,,,,,,,,,,,,,,,,,,,,,,,,,,
774484,001,2022-11-13_17h28.01.075,Info_measure_main_exp,2022.2.2,Win32,120.1345507,,,,,,,,,,,,,,,,,,,,,,,,,,,,,,6,0.8733,1,,,,,,,,,,,,0,131,5,5,2274,1950,absent_patch/patch0002274.jpg,absent_patch/patch0001950.jpg,,,,,,,,,,,,,,,,,,,,0.088888875,0.033333319,1,0,0,response1disk,26,-0.013888889,-0.0074074,1,0,0,center_square,0,25,25,10,1,,,,,,,,,,,,,,,,,,,,,,,
774484,001,2022-11-13_17h28.01.075,Info_measure_main_exp,2022.2.2,Win32,120.1345507,,,,,,,,,,,,,,,,,,masks/mask_005.jpg,,,,,,,,,,,,,,,,,,,,,,,,,,,,,,,,,,,,,,,,,,,0,0,0,4,1,,,,,,,,,,,,,,,,,,,,,,,,,,,,,,,,,,,,,,,,,,,,,,
774484,001,2022-11-13_17h28.01.075,Info_measure_main_exp,2022.2.2,Win32,120.1345507,,,,,,,,,,,,,,,,,,masks/mask_001.jpg,,,,,,,,,,,,,,,,,,,,,,,,,,,,,,,,,,,,,,,,,,,0,1,1,0,1,,,,,,,,,,,,,,,,,,,,,,,,,,,,,,,,,,,,,,,,,,,,,,
774484,001,2022-11-13_17h28.01.075,Info_measure_main_exp,2022.2.2,Win32,120.1345507,,,,,,,,,,,,,,,,,,masks/mask_004.jpg,,,,,,,,,,,,,,,,,,,,,,,,,,,,,,,,,,,,,,,,,,,0,2,2,3,1,,,,,,,,,,,,,,,,,,,,,,,,,,,,,,,,,,,,,,,,,,,,,,
774484,001,2022-11-13_17h28.01.075,Info_measure_main_exp,2022.2.2,Win32,120.1345507,,,,,,,,,,,,,,,,,,masks/mask_002.jpg,,,,,,,,,,,,,,,,,,,,,,,,,,,,,,,,,,,,,,,,,,,0,3,3,1,1,,,,,,,,,,,,,,,,,,,,,,,,,,,,,,,,,,,,,,,,,,,,,,
774484,001,2022-11-13_17h28.01.075,Info_measure_main_exp,2022.2.2,Win32,120.1345507,,,,,,,,,,,,,,,,,,masks/mask_003.jpg,,,,,,,,,,,,,,,,,,,,,,,,,,,,,,,,,,,,,,,,,,,0,4,4,2,1,,,,,,,,,,,,,,,,,,,,,,,,,,,,,,,,,,,,,,,,,,,,,,
774484,001,2022-11-13_17h28.01.075,Info_measure_main_exp,2022.2.2,Win32,120.1345507,,,,,,,,,,,,,,,,,,masks/mask_001.jpg,,,,,,,,,,,,,,,,,,,,,,,,,,,,,,,,,,,,,,,,,,,,,,,,0,0,0,0,1,,,,,,,,,,,,,,,,,,,,,,,,,,,,,,,,,,,,,,,,,
774484,001,2022-11-13_17h28.01.075,Info_measure_main_exp,2022.2.2,Win32,120.1345507,,,,,,,,,,,,,,,,,,masks/mask_005.jpg,,,,,,,,,,,,,,,,,,,,,,,,,,,,,,,,,,,,,,,,,,,,,,,,0,1,1,4,1,,,,,,,,,,,,,,,,,,,,,,,,,,,,,,,,,,,,,,,,,
774484,001,2022-11-13_17h28.01.075,Info_measure_main_exp,2022.2.2,Win32,120.1345507,,,,,,,,,,,,,,,,,,masks/mask_004.jpg,,,,,,,,,,,,,,,,,,,,,,,,,,,,,,,,,,,,,,,,,,,,,,,,0,2,2,3,1,,,,,,,,,,,,,,,,,,,,,,,,,,,,,,,,,,,,,,,,,
774484,001,2022-11-13_17h28.01.075,Info_measure_main_exp,2022.2.2,Win32,120.1345507,,,,,,,,,,,,,,,,,,masks/mask_002.jpg,,,,,,,,,,,,,,,,,,,,,,,,,,,,,,,,,,,,,,,,,,,,,,,,0,3,3,1,1,,,,,,,,,,,,,,,,,,,,,,,,,,,,,,,,,,,,,,,,,
774484,001,2022-11-13_17h28.01.075,Info_measure_main_exp,2022.2.2,Win32,120.1345507,,,,,,,,,,,,,,,,,,masks/mask_003.jpg,,,,,,,,,,,,,,,,,,,,,,,,,,,,,,,,,,,,,,,,,,,,,,,,0,4,4,2,1,,,,,,,,,,,,,,,,,,,,,,,,,,,,,,,,,,,,,,,,,
774484,001,2022-11-13_17h28.01.075,Info_measure_main_exp,2022.2.2,Win32,120.1345507,,,,,,,,,,,,,,,,,,,,,,,,,,,,,,5,1.9631,1,,,,,,,,,,,,0,131,5,5,2142,2154,absent_patch/patch0002142.jpg,absent_patch/patch0002154.jpg,,,,,,,,,,,,,,,,,,,,0.088888875,-0.029629637,1,0,0,response3disk,27,-0.006481453,0,1,0,0,center_square,0,26,26,9,1,,,,,,,,,,,,,,,,,,,,,,,
774484,001,2022-11-13_17h28.01.075,Info_measure_main_exp,2022.2.2,Win32,120.1345507,,,,,,,,,,,,,,,,,,masks/mask_003.jpg,,,,,,,,,,,,,,,,,,,,,,,,,,,,,,,,,,,,,,,,,,,0,0,0,2,1,,,,,,,,,,,,,,,,,,,,,,,,,,,,,,,,,,,,,,,,,,,,,,
774484,001,2022-11-13_17h28.01.075,Info_measure_main_exp,2022.2.2,Win32,120.1345507,,,,,,,,,,,,,,,,,,masks/mask_005.jpg,,,,,,,,,,,,,,,,,,,,,,,,,,,,,,,,,,,,,,,,,,,0,1,1,4,1,,,,,,,,,,,,,,,,,,,,,,,,,,,,,,,,,,,,,,,,,,,,,,
774484,001,2022-11-13_17h28.01.075,Info_measure_main_exp,2022.2.2,Win32,120.1345507,,,,,,,,,,,,,,,,,,masks/mask_004.jpg,,,,,,,,,,,,,,,,,,,,,,,,,,,,,,,,,,,,,,,,,,,0,2,2,3,1,,,,,,,,,,,,,,,,,,,,,,,,,,,,,,,,,,,,,,,,,,,,,,
774484,001,2022-11-13_17h28.01.075,Info_measure_main_exp,2022.2.2,Win32,120.1345507,,,,,,,,,,,,,,,,,,masks/mask_001.jpg,,,,,,,,,,,,,,,,,,,,,,,,,,,,,,,,,,,,,,,,,,,0,3,3,0,1,,,,,,,,,,,,,,,,,,,,,,,,,,,,,,,,,,,,,,,,,,,,,,
774484,001,2022-11-13_17h28.01.075,Info_measure_main_exp,2022.2.2,Win32,120.1345507,,,,,,,,,,,,,,,,,,masks/mask_002.jpg,,,,,,,,,,,,,,,,,,,,,,,,,,,,,,,,,,,,,,,,,,,0,4,4,1,1,,,,,,,,,,,,,,,,,,,,,,,,,,,,,,,,,,,,,,,,,,,,,,
774484,001,2022-11-13_17h28.01.075,Info_measure_main_exp,2022.2.2,Win32,120.1345507,,,,,,,,,,,,,,,,,,masks/mask_004.jpg,,,,,,,,,,,,,,,,,,,,,,,,,,,,,,,,,,,,,,,,,,,,,,,,0,0,0,3,1,,,,,,,,,,,,,,,,,,,,,,,,,,,,,,,,,,,,,,,,,
774484,001,2022-11-13_17h28.01.075,Info_measure_main_exp,2022.2.2,Win32,120.1345507,,,,,,,,,,,,,,,,,,masks/mask_001.jpg,,,,,,,,,,,,,,,,,,,,,,,,,,,,,,,,,,,,,,,,,,,,,,,,0,1,1,0,1,,,,,,,,,,,,,,,,,,,,,,,,,,,,,,,,,,,,,,,,,
774484,001,2022-11-13_17h28.01.075,Info_measure_main_exp,2022.2.2,Win32,120.1345507,,,,,,,,,,,,,,,,,,masks/mask_002.jpg,,,,,,,,,,,,,,,,,,,,,,,,,,,,,,,,,,,,,,,,,,,,,,,,0,2,2,1,1,,,,,,,,,,,,,,,,,,,,,,,,,,,,,,,,,,,,,,,,,
774484,001,2022-11-13_17h28.01.075,Info_measure_main_exp,2022.2.2,Win32,120.1345507,,,,,,,,,,,,,,,,,,masks/mask_003.jpg,,,,,,,,,,,,,,,,,,,,,,,,,,,,,,,,,,,,,,,,,,,,,,,,0,3,3,2,1,,,,,,,,,,,,,,,,,,,,,,,,,,,,,,,,,,,,,,,,,
774484,001,2022-11-13_17h28.01.075,Info_measure_main_exp,2022.2.2,Win32,120.1345507,,,,,,,,,,,,,,,,,,masks/mask_005.jpg,,,,,,,,,,,,,,,,,,,,,,,,,,,,,,,,,,,,,,,,,,,,,,,,0,4,4,4,1,,,,,,,,,,,,,,,,,,,,,,,,,,,,,,,,,,,,,,,,,
774484,001,2022-11-13_17h28.01.075,Info_measure_main_exp,2022.2.2,Win32,120.1345507,,,,,,,,,,,,,,,,,,,,,,,,,,,,,,6,1.4225,1,,,,,,,,,,,,0,131,5,5,2298,1986,absent_patch/patch0002298.jpg,absent_patch/patch0001986.jpg,,,,,,,,,,,,,,,,,,,,0.128703718,0.053703697,1,0,0,response1disk,28,-0.011111083,-0.005555577,1,0,0,center_square,0,27,27,32,1,,,,,,,,,,,,,,,,,,,,,,,
774484,001,2022-11-13_17h28.01.075,Info_measure_main_exp,2022.2.2,Win32,120.1345507,,,,,,,,,,,,,,,,,,masks/mask_003.jpg,,,,,,,,,,,,,,,,,,,,,,,,,,,,,,,,,,,,,,,,,,,0,0,0,2,1,,,,,,,,,,,,,,,,,,,,,,,,,,,,,,,,,,,,,,,,,,,,,,
774484,001,2022-11-13_17h28.01.075,Info_measure_main_exp,2022.2.2,Win32,120.1345507,,,,,,,,,,,,,,,,,,masks/mask_001.jpg,,,,,,,,,,,,,,,,,,,,,,,,,,,,,,,,,,,,,,,,,,,0,1,1,0,1,,,,,,,,,,,,,,,,,,,,,,,,,,,,,,,,,,,,,,,,,,,,,,
774484,001,2022-11-13_17h28.01.075,Info_measure_main_exp,2022.2.2,Win32,120.1345507,,,,,,,,,,,,,,,,,,masks/mask_002.jpg,,,,,,,,,,,,,,,,,,,,,,,,,,,,,,,,,,,,,,,,,,,0,2,2,1,1,,,,,,,,,,,,,,,,,,,,,,,,,,,,,,,,,,,,,,,,,,,,,,
774484,001,2022-11-13_17h28.01.075,Info_measure_main_exp,2022.2.2,Win32,120.1345507,,,,,,,,,,,,,,,,,,masks/mask_005.jpg,,,,,,,,,,,,,,,,,,,,,,,,,,,,,,,,,,,,,,,,,,,0,3,3,4,1,,,,,,,,,,,,,,,,,,,,,,,,,,,,,,,,,,,,,,,,,,,,,,
774484,001,2022-11-13_17h28.01.075,Info_measure_main_exp,2022.2.2,Win32,120.1345507,,,,,,,,,,,,,,,,,,masks/mask_004.jpg,,,,,,,,,,,,,,,,,,,,,,,,,,,,,,,,,,,,,,,,,,,0,4,4,3,1,,,,,,,,,,,,,,,,,,,,,,,,,,,,,,,,,,,,,,,,,,,,,,
774484,001,2022-11-13_17h28.01.075,Info_measure_main_exp,2022.2.2,Win32,120.1345507,,,,,,,,,,,,,,,,,,masks/mask_004.jpg,,,,,,,,,,,,,,,,,,,,,,,,,,,,,,,,,,,,,,,,,,,,,,,,0,0,0,3,1,,,,,,,,,,,,,,,,,,,,,,,,,,,,,,,,,,,,,,,,,
774484,001,2022-11-13_17h28.01.075,Info_measure_main_exp,2022.2.2,Win32,120.1345507,,,,,,,,,,,,,,,,,,masks/mask_001.jpg,,,,,,,,,,,,,,,,,,,,,,,,,,,,,,,,,,,,,,,,,,,,,,,,0,1,1,0,1,,,,,,,,,,,,,,,,,,,,,,,,,,,,,,,,,,,,,,,,,
774484,001,2022-11-13_17h28.01.075,Info_measure_main_exp,2022.2.2,Win32,120.1345507,,,,,,,,,,,,,,,,,,masks/mask_003.jpg,,,,,,,,,,,,,,,,,,,,,,,,,,,,,,,,,,,,,,,,,,,,,,,,0,2,2,2,1,,,,,,,,,,,,,,,,,,,,,,,,,,,,,,,,,,,,,,,,,
774484,001,2022-11-13_17h28.01.075,Info_measure_main_exp,2022.2.2,Win32,120.1345507,,,,,,,,,,,,,,,,,,masks/mask_005.jpg,,,,,,,,,,,,,,,,,,,,,,,,,,,,,,,,,,,,,,,,,,,,,,,,0,3,3,4,1,,,,,,,,,,,,,,,,,,,,,,,,,,,,,,,,,,,,,,,,,
774484,001,2022-11-13_17h28.01.075,Info_measure_main_exp,2022.2.2,Win32,120.1345507,,,,,,,,,,,,,,,,,,masks/mask_002.jpg,,,,,,,,,,,,,,,,,,,,,,,,,,,,,,,,,,,,,,,,,,,,,,,,0,4,4,1,1,,,,,,,,,,,,,,,,,,,,,,,,,,,,,,,,,,,,,,,,,
774484,001,2022-11-13_17h28.01.075,Info_measure_main_exp,2022.2.2,Win32,120.1345507,,,,,,,,,,,,,,,,,,,,,,,,,,,,,,0,0.7319,1,,,,,,,,,,,,0,131,5,5,2154,2154,absent_patch/patch0002154.jpg,absent_patch/patch0002154.jpg,,,,,,,,,,,,,,,,,,,,-0.045370384,0.121296282,1,0,0,response7disk,29,-0.008333347,-0.005555577,1,0,0,center_square,0,28,28,89,1,,,,,,,,,,,,,,,,,,,,,,,
774484,001,2022-11-13_17h28.01.075,Info_measure_main_exp,2022.2.2,Win32,120.1345507,,,,,,,,,,,,,,,,,,masks/mask_003.jpg,,,,,,,,,,,,,,,,,,,,,,,,,,,,,,,,,,,,,,,,,,,0,0,0,2,1,,,,,,,,,,,,,,,,,,,,,,,,,,,,,,,,,,,,,,,,,,,,,,
774484,001,2022-11-13_17h28.01.075,Info_measure_main_exp,2022.2.2,Win32,120.1345507,,,,,,,,,,,,,,,,,,masks/mask_001.jpg,,,,,,,,,,,,,,,,,,,,,,,,,,,,,,,,,,,,,,,,,,,0,1,1,0,1,,,,,,,,,,,,,,,,,,,,,,,,,,,,,,,,,,,,,,,,,,,,,,
774484,001,2022-11-13_17h28.01.075,Info_measure_main_exp,2022.2.2,Win32,120.1345507,,,,,,,,,,,,,,,,,,masks/mask_002.jpg,,,,,,,,,,,,,,,,,,,,,,,,,,,,,,,,,,,,,,,,,,,0,2,2,1,1,,,,,,,,,,,,,,,,,,,,,,,,,,,,,,,,,,,,,,,,,,,,,,
774484,001,2022-11-13_17h28.01.075,Info_measure_main_exp,2022.2.2,Win32,120.1345507,,,,,,,,,,,,,,,,,,masks/mask_004.jpg,,,,,,,,,,,,,,,,,,,,,,,,,,,,,,,,,,,,,,,,,,,0,3,3,3,1,,,,,,,,,,,,,,,,,,,,,,,,,,,,,,,,,,,,,,,,,,,,,,
774484,001,2022-11-13_17h28.01.075,Info_measure_main_exp,2022.2.2,Win32,120.1345507,,,,,,,,,,,,,,,,,,masks/mask_005.jpg,,,,,,,,,,,,,,,,,,,,,,,,,,,,,,,,,,,,,,,,,,,0,4,4,4,1,,,,,,,,,,,,,,,,,,,,,,,,,,,,,,,,,,,,,,,,,,,,,,
774484,001,2022-11-13_17h28.01.075,Info_measure_main_exp,2022.2.2,Win32,120.1345507,,,,,,,,,,,,,,,,,,masks/mask_002.jpg,,,,,,,,,,,,,,,,,,,,,,,,,,,,,,,,,,,,,,,,,,,,,,,,0,0,0,1,1,,,,,,,,,,,,,,,,,,,,,,,,,,,,,,,,,,,,,,,,,
774484,001,2022-11-13_17h28.01.075,Info_measure_main_exp,2022.2.2,Win32,120.1345507,,,,,,,,,,,,,,,,,,masks/mask_003.jpg,,,,,,,,,,,,,,,,,,,,,,,,,,,,,,,,,,,,,,,,,,,,,,,,0,1,1,2,1,,,,,,,,,,,,,,,,,,,,,,,,,,,,,,,,,,,,,,,,,
774484,001,2022-11-13_17h28.01.075,Info_measure_main_exp,2022.2.2,Win32,120.1345507,,,,,,,,,,,,,,,,,,masks/mask_001.jpg,,,,,,,,,,,,,,,,,,,,,,,,,,,,,,,,,,,,,,,,,,,,,,,,0,2,2,0,1,,,,,,,,,,,,,,,,,,,,,,,,,,,,,,,,,,,,,,,,,
774484,001,2022-11-13_17h28.01.075,Info_measure_main_exp,2022.2.2,Win32,120.1345507,,,,,,,,,,,,,,,,,,masks/mask_005.jpg,,,,,,,,,,,,,,,,,,,,,,,,,,,,,,,,,,,,,,,,,,,,,,,,0,3,3,4,1,,,,,,,,,,,,,,,,,,,,,,,,,,,,,,,,,,,,,,,,,
774484,001,2022-11-13_17h28.01.075,Info_measure_main_exp,2022.2.2,Win32,120.1345507,,,,,,,,,,,,,,,,,,masks/mask_004.jpg,,,,,,,,,,,,,,,,,,,,,,,,,,,,,,,,,,,,,,,,,,,,,,,,0,4,4,3,1,,,,,,,,,,,,,,,,,,,,,,,,,,,,,,,,,,,,,,,,,
774484,001,2022-11-13_17h28.01.075,Info_measure_main_exp,2022.2.2,Win32,120.1345507,,,,,,,,,,,,,,,,,,,,,,,,,,,,,,3,1.356,1,,,,,,,,,,,,0,131,5,5,2178,2142,absent_patch/patch0002178.jpg,absent_patch/patch0002142.jpg,,,,,,,,,,,,,,,,,,,,-0.037962949,-0.094444487,1,0,0,response5disk,30,0.005555541,0.01203703,1,0,0,center_square,0,29,29,41,1,,,,,,,,,,,,,,,,,,,,,,,
774484,001,2022-11-13_17h28.01.075,Info_measure_main_exp,2022.2.2,Win32,120.1345507,,,,,,,,,,,,,,,,,,masks/mask_004.jpg,,,,,,,,,,,,,,,,,,,,,,,,,,,,,,,,,,,,,,,,,,,0,0,0,3,1,,,,,,,,,,,,,,,,,,,,,,,,,,,,,,,,,,,,,,,,,,,,,,
774484,001,2022-11-13_17h28.01.075,Info_measure_main_exp,2022.2.2,Win32,120.1345507,,,,,,,,,,,,,,,,,,masks/mask_001.jpg,,,,,,,,,,,,,,,,,,,,,,,,,,,,,,,,,,,,,,,,,,,0,1,1,0,1,,,,,,,,,,,,,,,,,,,,,,,,,,,,,,,,,,,,,,,,,,,,,,
774484,001,2022-11-13_17h28.01.075,Info_measure_main_exp,2022.2.2,Win32,120.1345507,,,,,,,,,,,,,,,,,,masks/mask_002.jpg,,,,,,,,,,,,,,,,,,,,,,,,,,,,,,,,,,,,,,,,,,,0,2,2,1,1,,,,,,,,,,,,,,,,,,,,,,,,,,,,,,,,,,,,,,,,,,,,,,
774484,001,2022-11-13_17h28.01.075,Info_measure_main_exp,2022.2.2,Win32,120.1345507,,,,,,,,,,,,,,,,,,masks/mask_003.jpg,,,,,,,,,,,,,,,,,,,,,,,,,,,,,,,,,,,,,,,,,,,0,3,3,2,1,,,,,,,,,,,,,,,,,,,,,,,,,,,,,,,,,,,,,,,,,,,,,,
774484,001,2022-11-13_17h28.01.075,Info_measure_main_exp,2022.2.2,Win32,120.1345507,,,,,,,,,,,,,,,,,,masks/mask_005.jpg,,,,,,,,,,,,,,,,,,,,,,,,,,,,,,,,,,,,,,,,,,,0,4,4,4,1,,,,,,,,,,,,,,,,,,,,,,,,,,,,,,,,,,,,,,,,,,,,,,
774484,001,2022-11-13_17h28.01.075,Info_measure_main_exp,2022.2.2,Win32,120.1345507,,,,,,,,,,,,,,,,,,masks/mask_003.jpg,,,,,,,,,,,,,,,,,,,,,,,,,,,,,,,,,,,,,,,,,,,,,,,,0,0,0,2,1,,,,,,,,,,,,,,,,,,,,,,,,,,,,,,,,,,,,,,,,,
774484,001,2022-11-13_17h28.01.075,Info_measure_main_exp,2022.2.2,Win32,120.1345507,,,,,,,,,,,,,,,,,,masks/mask_001.jpg,,,,,,,,,,,,,,,,,,,,,,,,,,,,,,,,,,,,,,,,,,,,,,,,0,1,1,0,1,,,,,,,,,,,,,,,,,,,,,,,,,,,,,,,,,,,,,,,,,
774484,001,2022-11-13_17h28.01.075,Info_measure_main_exp,2022.2.2,Win32,120.1345507,,,,,,,,,,,,,,,,,,masks/mask_002.jpg,,,,,,,,,,,,,,,,,,,,,,,,,,,,,,,,,,,,,,,,,,,,,,,,0,2,2,1,1,,,,,,,,,,,,,,,,,,,,,,,,,,,,,,,,,,,,,,,,,
774484,001,2022-11-13_17h28.01.075,Info_measure_main_exp,2022.2.2,Win32,120.1345507,,,,,,,,,,,,,,,,,,masks/mask_005.jpg,,,,,,,,,,,,,,,,,,,,,,,,,,,,,,,,,,,,,,,,,,,,,,,,0,3,3,4,1,,,,,,,,,,,,,,,,,,,,,,,,,,,,,,,,,,,,,,,,,
774484,001,2022-11-13_17h28.01.075,Info_measure_main_exp,2022.2.2,Win32,120.1345507,,,,,,,,,,,,,,,,,,masks/mask_004.jpg,,,,,,,,,,,,,,,,,,,,,,,,,,,,,,,,,,,,,,,,,,,,,,,,0,4,4,3,1,,,,,,,,,,,,,,,,,,,,,,,,,,,,,,,,,,,,,,,,,
774484,001,2022-11-13_17h28.01.075,Info_measure_main_exp,2022.2.2,Win32,120.1345507,,,,,,,,,,,,,,,,,,,,,,,,,,,,,,7,1.1396,1,,,,,,,,,,,,0,131,5,5,2154,1974,absent_patch/patch0002154.jpg,absent_patch/patch0001974.jpg,,,,,,,,,,,,,,,,,,,,0.042592578,0.1175926,1,0,0,response1disk,31,0.002777806,-0.008333347,1,0,0,center_square,0,30,30,82,1,,,,,,,,,,,,,,,,,,,,,,,
774484,001,2022-11-13_17h28.01.075,Info_measure_main_exp,2022.2.2,Win32,120.1345507,,,,,,,,,,,,,,,,,,masks/mask_003.jpg,,,,,,,,,,,,,,,,,,,,,,,,,,,,,,,,,,,,,,,,,,,0,0,0,2,1,,,,,,,,,,,,,,,,,,,,,,,,,,,,,,,,,,,,,,,,,,,,,,
774484,001,2022-11-13_17h28.01.075,Info_measure_main_exp,2022.2.2,Win32,120.1345507,,,,,,,,,,,,,,,,,,masks/mask_005.jpg,,,,,,,,,,,,,,,,,,,,,,,,,,,,,,,,,,,,,,,,,,,0,1,1,4,1,,,,,,,,,,,,,,,,,,,,,,,,,,,,,,,,,,,,,,,,,,,,,,
774484,001,2022-11-13_17h28.01.075,Info_measure_main_exp,2022.2.2,Win32,120.1345507,,,,,,,,,,,,,,,,,,masks/mask_002.jpg,,,,,,,,,,,,,,,,,,,,,,,,,,,,,,,,,,,,,,,,,,,0,2,2,1,1,,,,,,,,,,,,,,,,,,,,,,,,,,,,,,,,,,,,,,,,,,,,,,
774484,001,2022-11-13_17h28.01.075,Info_measure_main_exp,2022.2.2,Win32,120.1345507,,,,,,,,,,,,,,,,,,masks/mask_001.jpg,,,,,,,,,,,,,,,,,,,,,,,,,,,,,,,,,,,,,,,,,,,0,3,3,0,1,,,,,,,,,,,,,,,,,,,,,,,,,,,,,,,,,,,,,,,,,,,,,,
774484,001,2022-11-13_17h28.01.075,Info_measure_main_exp,2022.2.2,Win32,120.1345507,,,,,,,,,,,,,,,,,,masks/mask_004.jpg,,,,,,,,,,,,,,,,,,,,,,,,,,,,,,,,,,,,,,,,,,,0,4,4,3,1,,,,,,,,,,,,,,,,,,,,,,,,,,,,,,,,,,,,,,,,,,,,,,
774484,001,2022-11-13_17h28.01.075,Info_measure_main_exp,2022.2.2,Win32,120.1345507,,,,,,,,,,,,,,,,,,masks/mask_003.jpg,,,,,,,,,,,,,,,,,,,,,,,,,,,,,,,,,,,,,,,,,,,,,,,,0,0,0,2,1,,,,,,,,,,,,,,,,,,,,,,,,,,,,,,,,,,,,,,,,,
774484,001,2022-11-13_17h28.01.075,Info_measure_main_exp,2022.2.2,Win32,120.1345507,,,,,,,,,,,,,,,,,,masks/mask_002.jpg,,,,,,,,,,,,,,,,,,,,,,,,,,,,,,,,,,,,,,,,,,,,,,,,0,1,1,1,1,,,,,,,,,,,,,,,,,,,,,,,,,,,,,,,,,,,,,,,,,
774484,001,2022-11-13_17h28.01.075,Info_measure_main_exp,2022.2.2,Win32,120.1345507,,,,,,,,,,,,,,,,,,masks/mask_001.jpg,,,,,,,,,,,,,,,,,,,,,,,,,,,,,,,,,,,,,,,,,,,,,,,,0,2,2,0,1,,,,,,,,,,,,,,,,,,,,,,,,,,,,,,,,,,,,,,,,,
774484,001,2022-11-13_17h28.01.075,Info_measure_main_exp,2022.2.2,Win32,120.1345507,,,,,,,,,,,,,,,,,,masks/mask_004.jpg,,,,,,,,,,,,,,,,,,,,,,,,,,,,,,,,,,,,,,,,,,,,,,,,0,3,3,3,1,,,,,,,,,,,,,,,,,,,,,,,,,,,,,,,,,,,,,,,,,
774484,001,2022-11-13_17h28.01.075,Info_measure_main_exp,2022.2.2,Win32,120.1345507,,,,,,,,,,,,,,,,,,masks/mask_005.jpg,,,,,,,,,,,,,,,,,,,,,,,,,,,,,,,,,,,,,,,,,,,,,,,,0,4,4,4,1,,,,,,,,,,,,,,,,,,,,,,,,,,,,,,,,,,,,,,,,,
774484,001,2022-11-13_17h28.01.075,Info_measure_main_exp,2022.2.2,Win32,120.1345507,,,,,,,,,,,,,,,,,,,,,,,,,,,,,,5,2.4124,1,,,,,,,,,,,,0,131,5,5,2154,2298,absent_patch/patch0002154.jpg,absent_patch/patch0002298.jpg,,,,,,,,,,,,,,,,,,,,0.140740783,-0.045370384,1,0,0,response3disk,32,-0.001851824,-0.003703718,1,0,0,center_square,0,31,31,27,1,,,,,,,,,,,,,,,,,,,,,,,
774484,001,2022-11-13_17h28.01.075,Info_measure_main_exp,2022.2.2,Win32,120.1345507,,,,,,,,,,,,,,,,,,masks/mask_003.jpg,,,,,,,,,,,,,,,,,,,,,,,,,,,,,,,,,,,,,,,,,,,0,0,0,2,1,,,,,,,,,,,,,,,,,,,,,,,,,,,,,,,,,,,,,,,,,,,,,,
774484,001,2022-11-13_17h28.01.075,Info_measure_main_exp,2022.2.2,Win32,120.1345507,,,,,,,,,,,,,,,,,,masks/mask_001.jpg,,,,,,,,,,,,,,,,,,,,,,,,,,,,,,,,,,,,,,,,,,,0,1,1,0,1,,,,,,,,,,,,,,,,,,,,,,,,,,,,,,,,,,,,,,,,,,,,,,
774484,001,2022-11-13_17h28.01.075,Info_measure_main_exp,2022.2.2,Win32,120.1345507,,,,,,,,,,,,,,,,,,masks/mask_002.jpg,,,,,,,,,,,,,,,,,,,,,,,,,,,,,,,,,,,,,,,,,,,0,2,2,1,1,,,,,,,,,,,,,,,,,,,,,,,,,,,,,,,,,,,,,,,,,,,,,,
774484,001,2022-11-13_17h28.01.075,Info_measure_main_exp,2022.2.2,Win32,120.1345507,,,,,,,,,,,,,,,,,,masks/mask_004.jpg,,,,,,,,,,,,,,,,,,,,,,,,,,,,,,,,,,,,,,,,,,,0,3,3,3,1,,,,,,,,,,,,,,,,,,,,,,,,,,,,,,,,,,,,,,,,,,,,,,
774484,001,2022-11-13_17h28.01.075,Info_measure_main_exp,2022.2.2,Win32,120.1345507,,,,,,,,,,,,,,,,,,masks/mask_005.jpg,,,,,,,,,,,,,,,,,,,,,,,,,,,,,,,,,,,,,,,,,,,0,4,4,4,1,,,,,,,,,,,,,,,,,,,,,,,,,,,,,,,,,,,,,,,,,,,,,,
774484,001,2022-11-13_17h28.01.075,Info_measure_main_exp,2022.2.2,Win32,120.1345507,,,,,,,,,,,,,,,,,,masks/mask_002.jpg,,,,,,,,,,,,,,,,,,,,,,,,,,,,,,,,,,,,,,,,,,,,,,,,0,0,0,1,1,,,,,,,,,,,,,,,,,,,,,,,,,,,,,,,,,,,,,,,,,
774484,001,2022-11-13_17h28.01.075,Info_measure_main_exp,2022.2.2,Win32,120.1345507,,,,,,,,,,,,,,,,,,masks/mask_001.jpg,,,,,,,,,,,,,,,,,,,,,,,,,,,,,,,,,,,,,,,,,,,,,,,,0,1,1,0,1,,,,,,,,,,,,,,,,,,,,,,,,,,,,,,,,,,,,,,,,,
774484,001,2022-11-13_17h28.01.075,Info_measure_main_exp,2022.2.2,Win32,120.1345507,,,,,,,,,,,,,,,,,,masks/mask_004.jpg,,,,,,,,,,,,,,,,,,,,,,,,,,,,,,,,,,,,,,,,,,,,,,,,0,2,2,3,1,,,,,,,,,,,,,,,,,,,,,,,,,,,,,,,,,,,,,,,,,
774484,001,2022-11-13_17h28.01.075,Info_measure_main_exp,2022.2.2,Win32,120.1345507,,,,,,,,,,,,,,,,,,masks/mask_003.jpg,,,,,,,,,,,,,,,,,,,,,,,,,,,,,,,,,,,,,,,,,,,,,,,,0,3,3,2,1,,,,,,,,,,,,,,,,,,,,,,,,,,,,,,,,,,,,,,,,,
774484,001,2022-11-13_17h28.01.075,Info_measure_main_exp,2022.2.2,Win32,120.1345507,,,,,,,,,,,,,,,,,,masks/mask_005.jpg,,,,,,,,,,,,,,,,,,,,,,,,,,,,,,,,,,,,,,,,,,,,,,,,0,4,4,4,1,,,,,,,,,,,,,,,,,,,,,,,,,,,,,,,,,,,,,,,,,
774484,001,2022-11-13_17h28.01.075,Info_measure_main_exp,2022.2.2,Win32,120.1345507,,,,,,,,,,,,,,,,,,,,,,,,,,,,,,0,0.7237,1,,,,,,,,,,,,0,131,5,5,2238,2238,absent_patch/patch0002238.jpg,absent_patch/patch0002238.jpg,,,,,,,,,,,,,,,,,,,,-0.070370356,0.135185171,1,0,0,response7disk,33,0,0,1,0,0,center_square,0,32,32,58,1,,,,,,,,,,,,,,,,,,,,,,,
774484,001,2022-11-13_17h28.01.075,Info_measure_main_exp,2022.2.2,Win32,120.1345507,,,,,,,,,,,,,,,,,,masks/mask_004.jpg,,,,,,,,,,,,,,,,,,,,,,,,,,,,,,,,,,,,,,,,,,,0,0,0,3,1,,,,,,,,,,,,,,,,,,,,,,,,,,,,,,,,,,,,,,,,,,,,,,
774484,001,2022-11-13_17h28.01.075,Info_measure_main_exp,2022.2.2,Win32,120.1345507,,,,,,,,,,,,,,,,,,masks/mask_003.jpg,,,,,,,,,,,,,,,,,,,,,,,,,,,,,,,,,,,,,,,,,,,0,1,1,2,1,,,,,,,,,,,,,,,,,,,,,,,,,,,,,,,,,,,,,,,,,,,,,,
774484,001,2022-11-13_17h28.01.075,Info_measure_main_exp,2022.2.2,Win32,120.1345507,,,,,,,,,,,,,,,,,,masks/mask_001.jpg,,,,,,,,,,,,,,,,,,,,,,,,,,,,,,,,,,,,,,,,,,,0,2,2,0,1,,,,,,,,,,,,,,,,,,,,,,,,,,,,,,,,,,,,,,,,,,,,,,
774484,001,2022-11-13_17h28.01.075,Info_measure_main_exp,2022.2.2,Win32,120.1345507,,,,,,,,,,,,,,,,,,masks/mask_005.jpg,,,,,,,,,,,,,,,,,,,,,,,,,,,,,,,,,,,,,,,,,,,0,3,3,4,1,,,,,,,,,,,,,,,,,,,,,,,,,,,,,,,,,,,,,,,,,,,,,,
774484,001,2022-11-13_17h28.01.075,Info_measure_main_exp,2022.2.2,Win32,120.1345507,,,,,,,,,,,,,,,,,,masks/mask_002.jpg,,,,,,,,,,,,,,,,,,,,,,,,,,,,,,,,,,,,,,,,,,,0,4,4,1,1,,,,,,,,,,,,,,,,,,,,,,,,,,,,,,,,,,,,,,,,,,,,,,
774484,001,2022-11-13_17h28.01.075,Info_measure_main_exp,2022.2.2,Win32,120.1345507,,,,,,,,,,,,,,,,,,masks/mask_005.jpg,,,,,,,,,,,,,,,,,,,,,,,,,,,,,,,,,,,,,,,,,,,,,,,,0,0,0,4,1,,,,,,,,,,,,,,,,,,,,,,,,,,,,,,,,,,,,,,,,,
774484,001,2022-11-13_17h28.01.075,Info_measure_main_exp,2022.2.2,Win32,120.1345507,,,,,,,,,,,,,,,,,,masks/mask_002.jpg,,,,,,,,,,,,,,,,,,,,,,,,,,,,,,,,,,,,,,,,,,,,,,,,0,1,1,1,1,,,,,,,,,,,,,,,,,,,,,,,,,,,,,,,,,,,,,,,,,
774484,001,2022-11-13_17h28.01.075,Info_measure_main_exp,2022.2.2,Win32,120.1345507,,,,,,,,,,,,,,,,,,masks/mask_001.jpg,,,,,,,,,,,,,,,,,,,,,,,,,,,,,,,,,,,,,,,,,,,,,,,,0,2,2,0,1,,,,,,,,,,,,,,,,,,,,,,,,,,,,,,,,,,,,,,,,,
774484,001,2022-11-13_17h28.01.075,Info_measure_main_exp,2022.2.2,Win32,120.1345507,,,,,,,,,,,,,,,,,,masks/mask_003.jpg,,,,,,,,,,,,,,,,,,,,,,,,,,,,,,,,,,,,,,,,,,,,,,,,0,3,3,2,1,,,,,,,,,,,,,,,,,,,,,,,,,,,,,,,,,,,,,,,,,
774484,001,2022-11-13_17h28.01.075,Info_measure_main_exp,2022.2.2,Win32,120.1345507,,,,,,,,,,,,,,,,,,masks/mask_004.jpg,,,,,,,,,,,,,,,,,,,,,,,,,,,,,,,,,,,,,,,,,,,,,,,,0,4,4,3,1,,,,,,,,,,,,,,,,,,,,,,,,,,,,,,,,,,,,,,,,,
774484,001,2022-11-13_17h28.01.075,Info_measure_main_exp,2022.2.2,Win32,120.1345507,,,,,,,,,,,,,,,,,,,,,,,,,,,,,,6,1.4724,1,,,,,,,,,,,,0,131,5,5,2082,2238,absent_patch/patch0002082.jpg,absent_patch/patch0002238.jpg,,,,,,,,,,,,,,,,,,,,0.093518504,0.009259259,1,0,0,response1disk,34,0.002777806,-0.001851859,1,0,0,center_square,0,33,33,22,1,,,,,,,,,,,,,,,,,,,,,,,
774484,001,2022-11-13_17h28.01.075,Info_measure_main_exp,2022.2.2,Win32,120.1345507,,,,,,,,,,,,,,,,,,masks/mask_005.jpg,,,,,,,,,,,,,,,,,,,,,,,,,,,,,,,,,,,,,,,,,,,0,0,0,4,1,,,,,,,,,,,,,,,,,,,,,,,,,,,,,,,,,,,,,,,,,,,,,,
774484,001,2022-11-13_17h28.01.075,Info_measure_main_exp,2022.2.2,Win32,120.1345507,,,,,,,,,,,,,,,,,,masks/mask_004.jpg,,,,,,,,,,,,,,,,,,,,,,,,,,,,,,,,,,,,,,,,,,,0,1,1,3,1,,,,,,,,,,,,,,,,,,,,,,,,,,,,,,,,,,,,,,,,,,,,,,
774484,001,2022-11-13_17h28.01.075,Info_measure_main_exp,2022.2.2,Win32,120.1345507,,,,,,,,,,,,,,,,,,masks/mask_003.jpg,,,,,,,,,,,,,,,,,,,,,,,,,,,,,,,,,,,,,,,,,,,0,2,2,2,1,,,,,,,,,,,,,,,,,,,,,,,,,,,,,,,,,,,,,,,,,,,,,,
774484,001,2022-11-13_17h28.01.075,Info_measure_main_exp,2022.2.2,Win32,120.1345507,,,,,,,,,,,,,,,,,,masks/mask_001.jpg,,,,,,,,,,,,,,,,,,,,,,,,,,,,,,,,,,,,,,,,,,,0,3,3,0,1,,,,,,,,,,,,,,,,,,,,,,,,,,,,,,,,,,,,,,,,,,,,,,
774484,001,2022-11-13_17h28.01.075,Info_measure_main_exp,2022.2.2,Win32,120.1345507,,,,,,,,,,,,,,,,,,masks/mask_002.jpg,,,,,,,,,,,,,,,,,,,,,,,,,,,,,,,,,,,,,,,,,,,0,4,4,1,1,,,,,,,,,,,,,,,,,,,,,,,,,,,,,,,,,,,,,,,,,,,,,,
774484,001,2022-11-13_17h28.01.075,Info_measure_main_exp,2022.2.2,Win32,120.1345507,,,,,,,,,,,,,,,,,,masks/mask_002.jpg,,,,,,,,,,,,,,,,,,,,,,,,,,,,,,,,,,,,,,,,,,,,,,,,0,0,0,1,1,,,,,,,,,,,,,,,,,,,,,,,,,,,,,,,,,,,,,,,,,
774484,001,2022-11-13_17h28.01.075,Info_measure_main_exp,2022.2.2,Win32,120.1345507,,,,,,,,,,,,,,,,,,masks/mask_005.jpg,,,,,,,,,,,,,,,,,,,,,,,,,,,,,,,,,,,,,,,,,,,,,,,,0,1,1,4,1,,,,,,,,,,,,,,,,,,,,,,,,,,,,,,,,,,,,,,,,,
774484,001,2022-11-13_17h28.01.075,Info_measure_main_exp,2022.2.2,Win32,120.1345507,,,,,,,,,,,,,,,,,,masks/mask_003.jpg,,,,,,,,,,,,,,,,,,,,,,,,,,,,,,,,,,,,,,,,,,,,,,,,0,2,2,2,1,,,,,,,,,,,,,,,,,,,,,,,,,,,,,,,,,,,,,,,,,
774484,001,2022-11-13_17h28.01.075,Info_measure_main_exp,2022.2.2,Win32,120.1345507,,,,,,,,,,,,,,,,,,masks/mask_004.jpg,,,,,,,,,,,,,,,,,,,,,,,,,,,,,,,,,,,,,,,,,,,,,,,,0,3,3,3,1,,,,,,,,,,,,,,,,,,,,,,,,,,,,,,,,,,,,,,,,,
