participant,session,date,expName,psychopyVersion,OS,frameRate,space_press_continue.keys,space_press_continue.rt,space_press_continue_2.keys,space_press_continue_2.rt,space_press_continue_3.keys,space_press_continue_3.rt,space_press_continue_4.keys,space_press_continue_4.rt,space_press_continue_5.keys,space_press_continue_5.rt,space_press_continue_6.keys,space_press_continue_6.rt,prac_mask_loop_1.thisRepN,prac_mask_loop_1.thisTrialN,prac_mask_loop_1.thisN,prac_mask_loop_1.thisIndex,prac_mask_loop_1.ran,mask_name,prac_mask_loop_2.thisRepN,prac_mask_loop_2.thisTrialN,prac_mask_loop_2.thisN,prac_mask_loop_2.thisIndex,prac_mask_loop_2.ran,mouse_2.x,mouse_2.y,mouse_2.leftButton,mouse_2.midButton,mouse_2.rightButton,mouse_2.clicked_name,similarity,response_time,Pass,mouse_12.x,mouse_12.y,mouse_12.leftButton,mouse_12.midButton,mouse_12.rightButton,mouse_12.clicked_name,prac_loop.thisRepN,prac_loop.thisTrialN,prac_loop.thisN,prac_loop.thisIndex,prac_loop.ran,Pair_type,Image_num,Patch_1_loc,Patch_2_loc,Patch_1_info,Patch_2_info,Patch_1_name,Patch_2_name,mouse_1.x,mouse_1.y,mouse_1.leftButton,mouse_1.midButton,mouse_1.rightButton,mouse_1.time,mouse_1.clicked_name,space_press_continue_7.keys,space_press_continue_7.rt,mask_loop.thisRepN,mask_loop.thisTrialN,mask_loop.thisN,mask_loop.thisIndex,mask_loop.ran,mask_loop_2.thisRepN,mask_loop_2.thisTrialN,mask_loop_2.thisN,mask_loop_2.thisIndex,mask_loop_2.ran,mouse.x,mouse.y,mouse.leftButton,mouse.midButton,mouse.rightButton,mouse.clicked_name,trialNumber,mouse_11.x,mouse_11.y,mouse_11.leftButton,mouse_11.midButton,mouse_11.rightButton,mouse_11.clicked_name,first_pass_loop.thisRepN,first_pass_loop.thisTrialN,first_pass_loop.thisN,first_pass_loop.thisIndex,first_pass_loop.ran,mask_loop_3.thisRepN,mask_loop_3.thisTrialN,mask_loop_3.thisN,mask_loop_3.thisIndex,mask_loop_3.ran,mask_loop_4.thisRepN,mask_loop_4.thisTrialN,mask_loop_4.thisN,mask_loop_4.thisIndex,mask_loop_4.ran,mouse_3.x,mouse_3.y,mouse_3.leftButton,mouse_3.midButton,mouse_3.rightButton,mouse_3.clicked_name,double_pass_loop.thisRepN,double_pass_loop.thisTrialN,double_pass_loop.thisN,double_pass_loop.thisIndex,double_pass_loop.ran,space_exit.keys,space_exit.rt
775485,001,2022-11-20_23h54.23.487,Info_measure_main_exp,2022.2.2,Win32,143.7194596,,,,,,,,,,,,,,,,,,,,,,,,,,,,,,,,,,,,,,,,,,,,,,,,,,,,,,,,,,,,,,,,,,,,,,,,,,,,,,,,,,,,,,,,,,,,,,,,,,,,,,,,,,,,,,,
775485,001,2022-11-20_23h54.23.487,Info_measure_main_exp,2022.2.2,Win32,143.7194596,,,,,,,,,,,,,,,,,,,,,,,,,,,,,,,,,,,,,,,,,,,,,,,,,,,,,,,,,,,,,,,,,,,,,,,,,,,,,,,,,,,,,,,,,,,,,,,,,,,,,,,,,,,,,,,
775485,001,2022-11-20_23h54.23.487,Info_measure_main_exp,2022.2.2,Win32,143.7194596,space,4.0755,,,,,,,,,,,,,,,,,,,,,,,,,,,,,,,,,,,,,,,,,,,,,,,,,,,,,,,,,,,,,,,,,,,,,,,,,,,,,,,,,,,,,,,,,,,,,,,,,,,,,,,,,,,,,
775485,001,2022-11-20_23h54.23.487,Info_measure_main_exp,2022.2.2,Win32,143.7194596,,,space,9.8008,,,,,,,,,,,,,,,,,,,,,,,,,,,,,,,,,,,,,,,,,,,,,,,,,,,,,,,,,,,,,,,,,,,,,,,,,,,,,,,,,,,,,,,,,,,,,,,,,,,,,,,,,,,
775485,001,2022-11-20_23h54.23.487,Info_measure_main_exp,2022.2.2,Win32,143.7194596,,,,,space,5.1688,,,,,,,,,,,,,,,,,,,,,,,,,,,,,,,,,,,,,,,,,,,,,,,,,,,,,,,,,,,,,,,,,,,,,,,,,,,,,,,,,,,,,,,,,,,,,,,,,,,,,,,,,
775485,001,2022-11-20_23h54.23.487,Info_measure_main_exp,2022.2.2,Win32,143.7194596,,,,,,,space,14.2158,,,,,,,,,,,,,,,,,,,,,,,,,,,,,,,,,,,,,,,,,,,,,,,,,,,,,,,,,,,,,,,,,,,,,,,,,,,,,,,,,,,,,,,,,,,,,,,,,,,,,,,
775485,001,2022-11-20_23h54.23.487,Info_measure_main_exp,2022.2.2,Win32,143.7194596,,,,,,,,,space,6.3356,,,,,,,,,,,,,,,,,,,,,,,,,,,,,,,,,,,,,,,,,,,,,,,,,,,,,,,,,,,,,,,,,,,,,,,,,,,,,,,,,,,,,,,,,,,,,,,,,,,,,
775485,001,2022-11-20_23h54.23.487,Info_measure_main_exp,2022.2.2,Win32,143.7194596,,,,,,,,,,,space,7.4503,,,,,,,,,,,,,,,,,,,,,,,,,,,,,,,,,,,,,,,,,,,,,,,,,,,,,,,,,,,,,,,,,,,,,,,,,,,,,,,,,,,,,,,,,,,,,,,,,,,
775485,001,2022-11-20_23h54.23.487,Info_measure_main_exp,2022.2.2,Win32,143.7194596,,,,,,,,,,,,,0,0,0,3,1,masks/mask_004.jpg,,,,,,,,,,,,,,,,,,,,,,,,,,,,,,,,,,,,,,,,,,,,,,,,,,,,,,,,,,,,,,,,,,,,,,,,,,,,,,,,,,,,,,,,,,,,,
775485,001,2022-11-20_23h54.23.487,Info_measure_main_exp,2022.2.2,Win32,143.7194596,,,,,,,,,,,,,0,1,1,0,1,masks/mask_001.jpg,,,,,,,,,,,,,,,,,,,,,,,,,,,,,,,,,,,,,,,,,,,,,,,,,,,,,,,,,,,,,,,,,,,,,,,,,,,,,,,,,,,,,,,,,,,,,
775485,001,2022-11-20_23h54.23.487,Info_measure_main_exp,2022.2.2,Win32,143.7194596,,,,,,,,,,,,,0,2,2,1,1,masks/mask_002.jpg,,,,,,,,,,,,,,,,,,,,,,,,,,,,,,,,,,,,,,,,,,,,,,,,,,,,,,,,,,,,,,,,,,,,,,,,,,,,,,,,,,,,,,,,,,,,,
775485,001,2022-11-20_23h54.23.487,Info_measure_main_exp,2022.2.2,Win32,143.7194596,,,,,,,,,,,,,0,3,3,4,1,masks/mask_005.jpg,,,,,,,,,,,,,,,,,,,,,,,,,,,,,,,,,,,,,,,,,,,,,,,,,,,,,,,,,,,,,,,,,,,,,,,,,,,,,,,,,,,,,,,,,,,,,
775485,001,2022-11-20_23h54.23.487,Info_measure_main_exp,2022.2.2,Win32,143.7194596,,,,,,,,,,,,,0,4,4,2,1,masks/mask_003.jpg,,,,,,,,,,,,,,,,,,,,,,,,,,,,,,,,,,,,,,,,,,,,,,,,,,,,,,,,,,,,,,,,,,,,,,,,,,,,,,,,,,,,,,,,,,,,,
775485,001,2022-11-20_23h54.23.487,Info_measure_main_exp,2022.2.2,Win32,143.7194596,,,,,,,,,,,,,,,,,,masks/mask_002.jpg,0,0,0,1,1,,,,,,,,,,,,,,,,,,,,,,,,,,,,,,,,,,,,,,,,,,,,,,,,,,,,,,,,,,,,,,,,,,,,,,,,,,,,,,,,,,,,,,,,
775485,001,2022-11-20_23h54.23.487,Info_measure_main_exp,2022.2.2,Win32,143.7194596,,,,,,,,,,,,,,,,,,masks/mask_003.jpg,0,1,1,2,1,,,,,,,,,,,,,,,,,,,,,,,,,,,,,,,,,,,,,,,,,,,,,,,,,,,,,,,,,,,,,,,,,,,,,,,,,,,,,,,,,,,,,,,,
775485,001,2022-11-20_23h54.23.487,Info_measure_main_exp,2022.2.2,Win32,143.7194596,,,,,,,,,,,,,,,,,,masks/mask_001.jpg,0,2,2,0,1,,,,,,,,,,,,,,,,,,,,,,,,,,,,,,,,,,,,,,,,,,,,,,,,,,,,,,,,,,,,,,,,,,,,,,,,,,,,,,,,,,,,,,,,
775485,001,2022-11-20_23h54.23.487,Info_measure_main_exp,2022.2.2,Win32,143.7194596,,,,,,,,,,,,,,,,,,masks/mask_004.jpg,0,3,3,3,1,,,,,,,,,,,,,,,,,,,,,,,,,,,,,,,,,,,,,,,,,,,,,,,,,,,,,,,,,,,,,,,,,,,,,,,,,,,,,,,,,,,,,,,,
775485,001,2022-11-20_23h54.23.487,Info_measure_main_exp,2022.2.2,Win32,143.7194596,,,,,,,,,,,,,,,,,,masks/mask_005.jpg,0,4,4,4,1,,,,,,,,,,,,,,,,,,,,,,,,,,,,,,,,,,,,,,,,,,,,,,,,,,,,,,,,,,,,,,,,,,,,,,,,,,,,,,,,,,,,,,,,
775485,001,2022-11-20_23h54.23.487,Info_measure_main_exp,2022.2.2,Win32,143.7194596,,,,,,,,,,,,,,,,,,,,,,,,-0.07962963,0.014814815,1,0,0,response7disk,1,50.9297,1,-0.00462963,0.005555556,1,0,0,center_square,0,0,0,1,1,0,131,5,5,2514,2490,prac_patch/patch0002514.jpg,prac_patch/patch0002490.jpg,,,,,,,,,,,,,,,,,,,,,,,,,,,,,,,,,,,,,,,,,,,,,,,,,,,,,,,,,,,,
775485,001,2022-11-20_23h54.23.487,Info_measure_main_exp,2022.2.2,Win32,143.7194596,,,,,,,,,,,,,0,0,0,0,1,masks/mask_001.jpg,,,,,,,,,,,,,,,,,,,,,,,,,,,,,,,,,,,,,,,,,,,,,,,,,,,,,,,,,,,,,,,,,,,,,,,,,,,,,,,,,,,,,,,,,,,,,
775485,001,2022-11-20_23h54.23.487,Info_measure_main_exp,2022.2.2,Win32,143.7194596,,,,,,,,,,,,,0,1,1,3,1,masks/mask_004.jpg,,,,,,,,,,,,,,,,,,,,,,,,,,,,,,,,,,,,,,,,,,,,,,,,,,,,,,,,,,,,,,,,,,,,,,,,,,,,,,,,,,,,,,,,,,,,,
775485,001,2022-11-20_23h54.23.487,Info_measure_main_exp,2022.2.2,Win32,143.7194596,,,,,,,,,,,,,0,2,2,4,1,masks/mask_005.jpg,,,,,,,,,,,,,,,,,,,,,,,,,,,,,,,,,,,,,,,,,,,,,,,,,,,,,,,,,,,,,,,,,,,,,,,,,,,,,,,,,,,,,,,,,,,,,
775485,001,2022-11-20_23h54.23.487,Info_measure_main_exp,2022.2.2,Win32,143.7194596,,,,,,,,,,,,,0,3,3,1,1,masks/mask_002.jpg,,,,,,,,,,,,,,,,,,,,,,,,,,,,,,,,,,,,,,,,,,,,,,,,,,,,,,,,,,,,,,,,,,,,,,,,,,,,,,,,,,,,,,,,,,,,,
775485,001,2022-11-20_23h54.23.487,Info_measure_main_exp,2022.2.2,Win32,143.7194596,,,,,,,,,,,,,0,4,4,2,1,masks/mask_003.jpg,,,,,,,,,,,,,,,,,,,,,,,,,,,,,,,,,,,,,,,,,,,,,,,,,,,,,,,,,,,,,,,,,,,,,,,,,,,,,,,,,,,,,,,,,,,,,
775485,001,2022-11-20_23h54.23.487,Info_measure_main_exp,2022.2.2,Win32,143.7194596,,,,,,,,,,,,,,,,,,masks/mask_004.jpg,0,0,0,3,1,,,,,,,,,,,,,,,,,,,,,,,,,,,,,,,,,,,,,,,,,,,,,,,,,,,,,,,,,,,,,,,,,,,,,,,,,,,,,,,,,,,,,,,,
775485,001,2022-11-20_23h54.23.487,Info_measure_main_exp,2022.2.2,Win32,143.7194596,,,,,,,,,,,,,,,,,,masks/mask_002.jpg,0,1,1,1,1,,,,,,,,,,,,,,,,,,,,,,,,,,,,,,,,,,,,,,,,,,,,,,,,,,,,,,,,,,,,,,,,,,,,,,,,,,,,,,,,,,,,,,,,
775485,001,2022-11-20_23h54.23.487,Info_measure_main_exp,2022.2.2,Win32,143.7194596,,,,,,,,,,,,,,,,,,masks/mask_005.jpg,0,2,2,4,1,,,,,,,,,,,,,,,,,,,,,,,,,,,,,,,,,,,,,,,,,,,,,,,,,,,,,,,,,,,,,,,,,,,,,,,,,,,,,,,,,,,,,,,,
775485,001,2022-11-20_23h54.23.487,Info_measure_main_exp,2022.2.2,Win32,143.7194596,,,,,,,,,,,,,,,,,,masks/mask_001.jpg,0,3,3,0,1,,,,,,,,,,,,,,,,,,,,,,,,,,,,,,,,,,,,,,,,,,,,,,,,,,,,,,,,,,,,,,,,,,,,,,,,,,,,,,,,,,,,,,,,
775485,001,2022-11-20_23h54.23.487,Info_measure_main_exp,2022.2.2,Win32,143.7194596,,,,,,,,,,,,,,,,,,masks/mask_003.jpg,0,4,4,2,1,,,,,,,,,,,,,,,,,,,,,,,,,,,,,,,,,,,,,,,,,,,,,,,,,,,,,,,,,,,,,,,,,,,,,,,,,,,,,,,,,,,,,,,,
775485,001,2022-11-20_23h54.23.487,Info_measure_main_exp,2022.2.2,Win32,143.7194596,,,,,,,,,,,,,,,,,,,,,,,,-0.048148148,-0.1,1,0,0,response5disk,3,68.9013,1,0.003703704,0.000925926,1,0,0,center_square,0,1,1,0,1,0,131,5,5,2370,2406,prac_patch/patch0002370.jpg,prac_patch/patch0002406.jpg,,,,,,,,,,,,,,,,,,,,,,,,,,,,,,,,,,,,,,,,,,,,,,,,,,,,,,,,,,,,
775485,001,2022-11-20_23h54.23.487,Info_measure_main_exp,2022.2.2,Win32,143.7194596,,,,,,,,,,,,,0,0,0,1,1,masks/mask_002.jpg,,,,,,,,,,,,,,,,,,,,,,,,,,,,,,,,,,,,,,,,,,,,,,,,,,,,,,,,,,,,,,,,,,,,,,,,,,,,,,,,,,,,,,,,,,,,,
775485,001,2022-11-20_23h54.23.487,Info_measure_main_exp,2022.2.2,Win32,143.7194596,,,,,,,,,,,,,0,1,1,0,1,masks/mask_001.jpg,,,,,,,,,,,,,,,,,,,,,,,,,,,,,,,,,,,,,,,,,,,,,,,,,,,,,,,,,,,,,,,,,,,,,,,,,,,,,,,,,,,,,,,,,,,,,
775485,001,2022-11-20_23h54.23.487,Info_measure_main_exp,2022.2.2,Win32,143.7194596,,,,,,,,,,,,,0,2,2,4,1,masks/mask_005.jpg,,,,,,,,,,,,,,,,,,,,,,,,,,,,,,,,,,,,,,,,,,,,,,,,,,,,,,,,,,,,,,,,,,,,,,,,,,,,,,,,,,,,,,,,,,,,,
775485,001,2022-11-20_23h54.23.487,Info_measure_main_exp,2022.2.2,Win32,143.7194596,,,,,,,,,,,,,0,3,3,2,1,masks/mask_003.jpg,,,,,,,,,,,,,,,,,,,,,,,,,,,,,,,,,,,,,,,,,,,,,,,,,,,,,,,,,,,,,,,,,,,,,,,,,,,,,,,,,,,,,,,,,,,,,
775485,001,2022-11-20_23h54.23.487,Info_measure_main_exp,2022.2.2,Win32,143.7194596,,,,,,,,,,,,,0,4,4,3,1,masks/mask_004.jpg,,,,,,,,,,,,,,,,,,,,,,,,,,,,,,,,,,,,,,,,,,,,,,,,,,,,,,,,,,,,,,,,,,,,,,,,,,,,,,,,,,,,,,,,,,,,,
775485,001,2022-11-20_23h54.23.487,Info_measure_main_exp,2022.2.2,Win32,143.7194596,,,,,,,,,,,,,,,,,,masks/mask_004.jpg,0,0,0,3,1,,,,,,,,,,,,,,,,,,,,,,,,,,,,,,,,,,,,,,,,,,,,,,,,,,,,,,,,,,,,,,,,,,,,,,,,,,,,,,,,,,,,,,,,
775485,001,2022-11-20_23h54.23.487,Info_measure_main_exp,2022.2.2,Win32,143.7194596,,,,,,,,,,,,,,,,,,masks/mask_005.jpg,0,1,1,4,1,,,,,,,,,,,,,,,,,,,,,,,,,,,,,,,,,,,,,,,,,,,,,,,,,,,,,,,,,,,,,,,,,,,,,,,,,,,,,,,,,,,,,,,,
775485,001,2022-11-20_23h54.23.487,Info_measure_main_exp,2022.2.2,Win32,143.7194596,,,,,,,,,,,,,,,,,,masks/mask_003.jpg,0,2,2,2,1,,,,,,,,,,,,,,,,,,,,,,,,,,,,,,,,,,,,,,,,,,,,,,,,,,,,,,,,,,,,,,,,,,,,,,,,,,,,,,,,,,,,,,,,
775485,001,2022-11-20_23h54.23.487,Info_measure_main_exp,2022.2.2,Win32,143.7194596,,,,,,,,,,,,,,,,,,masks/mask_001.jpg,0,3,3,0,1,,,,,,,,,,,,,,,,,,,,,,,,,,,,,,,,,,,,,,,,,,,,,,,,,,,,,,,,,,,,,,,,,,,,,,,,,,,,,,,,,,,,,,,,
775485,001,2022-11-20_23h54.23.487,Info_measure_main_exp,2022.2.2,Win32,143.7194596,,,,,,,,,,,,,,,,,,masks/mask_002.jpg,0,4,4,1,1,,,,,,,,,,,,,,,,,,,,,,,,,,,,,,,,,,,,,,,,,,,,,,,,,,,,,,,,,,,,,,,,,,,,,,,,,,,,,,,,,,,,,,,,
775485,001,2022-11-20_23h54.23.487,Info_measure_main_exp,2022.2.2,Win32,143.7194596,,,,,,,,,,,,,,,,,,,,,,,,-0.071296296,0.042592593,1,0,0,response7disk,1,76.9634,1,0.003703704,0.00462963,1,0,0,center_square,0,2,2,2,1,0,131,5,5,2526,2526,prac_patch/patch0002526.jpg,prac_patch/patch0002526.jpg,,,,,,,,,,,,,,,,,,,,,,,,,,,,,,,,,,,,,,,,,,,,,,,,,,,,,,,,,,,,
775485,001,2022-11-20_23h54.23.487,Info_measure_main_exp,2022.2.2,Win32,143.7194596,,,,,,,,,,,,,,,,,,,,,,,,,,,,,,,,,,,,,,,,,,,,,,,,,,,,,,,,,,,space,1.8436,,,,,,,,,,,,,,,,,,,,,,,,,,,,,,,,,,,,,,,,,,,,,,,,,,,
775485,001,2022-11-20_23h54.23.487,Info_measure_main_exp,2022.2.2,Win32,143.7194596,,,,,,,,,,,,,,,,,,masks/mask_004.jpg,,,,,,,,,,,,,,,,,,,,,,,,,,,,,,,,,,,,,,,,,,,0,0,0,3,1,,,,,,,,,,,,,,,,,,,,,,,,,,,,,,,,,,,,,,,,,,,,,,
775485,001,2022-11-20_23h54.23.487,Info_measure_main_exp,2022.2.2,Win32,143.7194596,,,,,,,,,,,,,,,,,,masks/mask_002.jpg,,,,,,,,,,,,,,,,,,,,,,,,,,,,,,,,,,,,,,,,,,,0,1,1,1,1,,,,,,,,,,,,,,,,,,,,,,,,,,,,,,,,,,,,,,,,,,,,,,
775485,001,2022-11-20_23h54.23.487,Info_measure_main_exp,2022.2.2,Win32,143.7194596,,,,,,,,,,,,,,,,,,masks/mask_005.jpg,,,,,,,,,,,,,,,,,,,,,,,,,,,,,,,,,,,,,,,,,,,0,2,2,4,1,,,,,,,,,,,,,,,,,,,,,,,,,,,,,,,,,,,,,,,,,,,,,,
775485,001,2022-11-20_23h54.23.487,Info_measure_main_exp,2022.2.2,Win32,143.7194596,,,,,,,,,,,,,,,,,,masks/mask_003.jpg,,,,,,,,,,,,,,,,,,,,,,,,,,,,,,,,,,,,,,,,,,,0,3,3,2,1,,,,,,,,,,,,,,,,,,,,,,,,,,,,,,,,,,,,,,,,,,,,,,
775485,001,2022-11-20_23h54.23.487,Info_measure_main_exp,2022.2.2,Win32,143.7194596,,,,,,,,,,,,,,,,,,masks/mask_001.jpg,,,,,,,,,,,,,,,,,,,,,,,,,,,,,,,,,,,,,,,,,,,0,4,4,0,1,,,,,,,,,,,,,,,,,,,,,,,,,,,,,,,,,,,,,,,,,,,,,,
775485,001,2022-11-20_23h54.23.487,Info_measure_main_exp,2022.2.2,Win32,143.7194596,,,,,,,,,,,,,,,,,,masks/mask_002.jpg,,,,,,,,,,,,,,,,,,,,,,,,,,,,,,,,,,,,,,,,,,,,,,,,0,0,0,1,1,,,,,,,,,,,,,,,,,,,,,,,,,,,,,,,,,,,,,,,,,
775485,001,2022-11-20_23h54.23.487,Info_measure_main_exp,2022.2.2,Win32,143.7194596,,,,,,,,,,,,,,,,,,masks/mask_005.jpg,,,,,,,,,,,,,,,,,,,,,,,,,,,,,,,,,,,,,,,,,,,,,,,,0,1,1,4,1,,,,,,,,,,,,,,,,,,,,,,,,,,,,,,,,,,,,,,,,,
775485,001,2022-11-20_23h54.23.487,Info_measure_main_exp,2022.2.2,Win32,143.7194596,,,,,,,,,,,,,,,,,,masks/mask_003.jpg,,,,,,,,,,,,,,,,,,,,,,,,,,,,,,,,,,,,,,,,,,,,,,,,0,2,2,2,1,,,,,,,,,,,,,,,,,,,,,,,,,,,,,,,,,,,,,,,,,
775485,001,2022-11-20_23h54.23.487,Info_measure_main_exp,2022.2.2,Win32,143.7194596,,,,,,,,,,,,,,,,,,masks/mask_004.jpg,,,,,,,,,,,,,,,,,,,,,,,,,,,,,,,,,,,,,,,,,,,,,,,,0,3,3,3,1,,,,,,,,,,,,,,,,,,,,,,,,,,,,,,,,,,,,,,,,,
775485,001,2022-11-20_23h54.23.487,Info_measure_main_exp,2022.2.2,Win32,143.7194596,,,,,,,,,,,,,,,,,,masks/mask_001.jpg,,,,,,,,,,,,,,,,,,,,,,,,,,,,,,,,,,,,,,,,,,,,,,,,0,4,4,0,1,,,,,,,,,,,,,,,,,,,,,,,,,,,,,,,,,,,,,,,,,
775485,001,2022-11-20_23h54.23.487,Info_measure_main_exp,2022.2.2,Win32,143.7194596,,,,,,,,,,,,,,,,,,,,,,,,,,,,,,0,0.4794,1,,,,,,,,,,,,0,131,5,5,2166,2166,absent_patch/patch0002166.jpg,absent_patch/patch0002166.jpg,,,,,,,,,,,,,,,,,,,,-0.036111111,0.068518519,1,0,0,response7disk,1,-0.002777778,-0.003703704,1,0,0,center_square,0,0,0,42,1,,,,,,,,,,,,,,,,,,,,,,,
775485,001,2022-11-20_23h54.23.487,Info_measure_main_exp,2022.2.2,Win32,143.7194596,,,,,,,,,,,,,,,,,,masks/mask_001.jpg,,,,,,,,,,,,,,,,,,,,,,,,,,,,,,,,,,,,,,,,,,,0,0,0,0,1,,,,,,,,,,,,,,,,,,,,,,,,,,,,,,,,,,,,,,,,,,,,,,
775485,001,2022-11-20_23h54.23.487,Info_measure_main_exp,2022.2.2,Win32,143.7194596,,,,,,,,,,,,,,,,,,masks/mask_002.jpg,,,,,,,,,,,,,,,,,,,,,,,,,,,,,,,,,,,,,,,,,,,0,1,1,1,1,,,,,,,,,,,,,,,,,,,,,,,,,,,,,,,,,,,,,,,,,,,,,,
775485,001,2022-11-20_23h54.23.487,Info_measure_main_exp,2022.2.2,Win32,143.7194596,,,,,,,,,,,,,,,,,,masks/mask_004.jpg,,,,,,,,,,,,,,,,,,,,,,,,,,,,,,,,,,,,,,,,,,,0,2,2,3,1,,,,,,,,,,,,,,,,,,,,,,,,,,,,,,,,,,,,,,,,,,,,,,
775485,001,2022-11-20_23h54.23.487,Info_measure_main_exp,2022.2.2,Win32,143.7194596,,,,,,,,,,,,,,,,,,masks/mask_003.jpg,,,,,,,,,,,,,,,,,,,,,,,,,,,,,,,,,,,,,,,,,,,0,3,3,2,1,,,,,,,,,,,,,,,,,,,,,,,,,,,,,,,,,,,,,,,,,,,,,,
775485,001,2022-11-20_23h54.23.487,Info_measure_main_exp,2022.2.2,Win32,143.7194596,,,,,,,,,,,,,,,,,,masks/mask_005.jpg,,,,,,,,,,,,,,,,,,,,,,,,,,,,,,,,,,,,,,,,,,,0,4,4,4,1,,,,,,,,,,,,,,,,,,,,,,,,,,,,,,,,,,,,,,,,,,,,,,
775485,001,2022-11-20_23h54.23.487,Info_measure_main_exp,2022.2.2,Win32,143.7194596,,,,,,,,,,,,,,,,,,masks/mask_003.jpg,,,,,,,,,,,,,,,,,,,,,,,,,,,,,,,,,,,,,,,,,,,,,,,,0,0,0,2,1,,,,,,,,,,,,,,,,,,,,,,,,,,,,,,,,,,,,,,,,,
775485,001,2022-11-20_23h54.23.487,Info_measure_main_exp,2022.2.2,Win32,143.7194596,,,,,,,,,,,,,,,,,,masks/mask_001.jpg,,,,,,,,,,,,,,,,,,,,,,,,,,,,,,,,,,,,,,,,,,,,,,,,0,1,1,0,1,,,,,,,,,,,,,,,,,,,,,,,,,,,,,,,,,,,,,,,,,
775485,001,2022-11-20_23h54.23.487,Info_measure_main_exp,2022.2.2,Win32,143.7194596,,,,,,,,,,,,,,,,,,masks/mask_005.jpg,,,,,,,,,,,,,,,,,,,,,,,,,,,,,,,,,,,,,,,,,,,,,,,,0,2,2,4,1,,,,,,,,,,,,,,,,,,,,,,,,,,,,,,,,,,,,,,,,,
775485,001,2022-11-20_23h54.23.487,Info_measure_main_exp,2022.2.2,Win32,143.7194596,,,,,,,,,,,,,,,,,,masks/mask_002.jpg,,,,,,,,,,,,,,,,,,,,,,,,,,,,,,,,,,,,,,,,,,,,,,,,0,3,3,1,1,,,,,,,,,,,,,,,,,,,,,,,,,,,,,,,,,,,,,,,,,
775485,001,2022-11-20_23h54.23.487,Info_measure_main_exp,2022.2.2,Win32,143.7194596,,,,,,,,,,,,,,,,,,masks/mask_004.jpg,,,,,,,,,,,,,,,,,,,,,,,,,,,,,,,,,,,,,,,,,,,,,,,,0,4,4,3,1,,,,,,,,,,,,,,,,,,,,,,,,,,,,,,,,,,,,,,,,,
775485,001,2022-11-20_23h54.23.487,Info_measure_main_exp,2022.2.2,Win32,143.7194596,,,,,,,,,,,,,,,,,,,,,,,,,,,,,,3,1.2233,1,,,,,,,,,,,,0,131,5,5,2154,1974,absent_patch/patch0002154.jpg,absent_patch/patch0001974.jpg,,,,,,,,,,,,,,,,,,,,-0.023148148,-0.142592593,1,0,0,response5disk,2,0.000925926,-0.008333333,1,0,0,center_square,0,1,1,82,1,,,,,,,,,,,,,,,,,,,,,,,
775485,001,2022-11-20_23h54.23.487,Info_measure_main_exp,2022.2.2,Win32,143.7194596,,,,,,,,,,,,,,,,,,masks/mask_004.jpg,,,,,,,,,,,,,,,,,,,,,,,,,,,,,,,,,,,,,,,,,,,0,0,0,3,1,,,,,,,,,,,,,,,,,,,,,,,,,,,,,,,,,,,,,,,,,,,,,,
775485,001,2022-11-20_23h54.23.487,Info_measure_main_exp,2022.2.2,Win32,143.7194596,,,,,,,,,,,,,,,,,,masks/mask_001.jpg,,,,,,,,,,,,,,,,,,,,,,,,,,,,,,,,,,,,,,,,,,,0,1,1,0,1,,,,,,,,,,,,,,,,,,,,,,,,,,,,,,,,,,,,,,,,,,,,,,
775485,001,2022-11-20_23h54.23.487,Info_measure_main_exp,2022.2.2,Win32,143.7194596,,,,,,,,,,,,,,,,,,masks/mask_003.jpg,,,,,,,,,,,,,,,,,,,,,,,,,,,,,,,,,,,,,,,,,,,0,2,2,2,1,,,,,,,,,,,,,,,,,,,,,,,,,,,,,,,,,,,,,,,,,,,,,,
775485,001,2022-11-20_23h54.23.487,Info_measure_main_exp,2022.2.2,Win32,143.7194596,,,,,,,,,,,,,,,,,,masks/mask_005.jpg,,,,,,,,,,,,,,,,,,,,,,,,,,,,,,,,,,,,,,,,,,,0,3,3,4,1,,,,,,,,,,,,,,,,,,,,,,,,,,,,,,,,,,,,,,,,,,,,,,
775485,001,2022-11-20_23h54.23.487,Info_measure_main_exp,2022.2.2,Win32,143.7194596,,,,,,,,,,,,,,,,,,masks/mask_002.jpg,,,,,,,,,,,,,,,,,,,,,,,,,,,,,,,,,,,,,,,,,,,0,4,4,1,1,,,,,,,,,,,,,,,,,,,,,,,,,,,,,,,,,,,,,,,,,,,,,,
775485,001,2022-11-20_23h54.23.487,Info_measure_main_exp,2022.2.2,Win32,143.7194596,,,,,,,,,,,,,,,,,,masks/mask_003.jpg,,,,,,,,,,,,,,,,,,,,,,,,,,,,,,,,,,,,,,,,,,,,,,,,0,0,0,2,1,,,,,,,,,,,,,,,,,,,,,,,,,,,,,,,,,,,,,,,,,
775485,001,2022-11-20_23h54.23.487,Info_measure_main_exp,2022.2.2,Win32,143.7194596,,,,,,,,,,,,,,,,,,masks/mask_005.jpg,,,,,,,,,,,,,,,,,,,,,,,,,,,,,,,,,,,,,,,,,,,,,,,,0,1,1,4,1,,,,,,,,,,,,,,,,,,,,,,,,,,,,,,,,,,,,,,,,,
775485,001,2022-11-20_23h54.23.487,Info_measure_main_exp,2022.2.2,Win32,143.7194596,,,,,,,,,,,,,,,,,,masks/mask_001.jpg,,,,,,,,,,,,,,,,,,,,,,,,,,,,,,,,,,,,,,,,,,,,,,,,0,2,2,0,1,,,,,,,,,,,,,,,,,,,,,,,,,,,,,,,,,,,,,,,,,
775485,001,2022-11-20_23h54.23.487,Info_measure_main_exp,2022.2.2,Win32,143.7194596,,,,,,,,,,,,,,,,,,masks/mask_004.jpg,,,,,,,,,,,,,,,,,,,,,,,,,,,,,,,,,,,,,,,,,,,,,,,,0,3,3,3,1,,,,,,,,,,,,,,,,,,,,,,,,,,,,,,,,,,,,,,,,,
775485,001,2022-11-20_23h54.23.487,Info_measure_main_exp,2022.2.2,Win32,143.7194596,,,,,,,,,,,,,,,,,,masks/mask_002.jpg,,,,,,,,,,,,,,,,,,,,,,,,,,,,,,,,,,,,,,,,,,,,,,,,0,4,4,1,1,,,,,,,,,,,,,,,,,,,,,,,,,,,,,,,,,,,,,,,,,
775485,001,2022-11-20_23h54.23.487,Info_measure_main_exp,2022.2.2,Win32,143.7194596,,,,,,,,,,,,,,,,,,,,,,,,,,,,,,0,0.5216,1,,,,,,,,,,,,0,131,5,5,2142,2142,absent_patch/patch0002142.jpg,absent_patch/patch0002142.jpg,,,,,,,,,,,,,,,,,,,,-0.018518519,0.07962963,1,0,0,response7disk,3,0.003703704,-0.015740741,1,0,0,center_square,0,2,2,13,1,,,,,,,,,,,,,,,,,,,,,,,
775485,001,2022-11-20_23h54.23.487,Info_measure_main_exp,2022.2.2,Win32,143.7194596,,,,,,,,,,,,,,,,,,masks/mask_001.jpg,,,,,,,,,,,,,,,,,,,,,,,,,,,,,,,,,,,,,,,,,,,0,0,0,0,1,,,,,,,,,,,,,,,,,,,,,,,,,,,,,,,,,,,,,,,,,,,,,,
775485,001,2022-11-20_23h54.23.487,Info_measure_main_exp,2022.2.2,Win32,143.7194596,,,,,,,,,,,,,,,,,,masks/mask_003.jpg,,,,,,,,,,,,,,,,,,,,,,,,,,,,,,,,,,,,,,,,,,,0,1,1,2,1,,,,,,,,,,,,,,,,,,,,,,,,,,,,,,,,,,,,,,,,,,,,,,
775485,001,2022-11-20_23h54.23.487,Info_measure_main_exp,2022.2.2,Win32,143.7194596,,,,,,,,,,,,,,,,,,masks/mask_002.jpg,,,,,,,,,,,,,,,,,,,,,,,,,,,,,,,,,,,,,,,,,,,0,2,2,1,1,,,,,,,,,,,,,,,,,,,,,,,,,,,,,,,,,,,,,,,,,,,,,,
775485,001,2022-11-20_23h54.23.487,Info_measure_main_exp,2022.2.2,Win32,143.7194596,,,,,,,,,,,,,,,,,,masks/mask_004.jpg,,,,,,,,,,,,,,,,,,,,,,,,,,,,,,,,,,,,,,,,,,,0,3,3,3,1,,,,,,,,,,,,,,,,,,,,,,,,,,,,,,,,,,,,,,,,,,,,,,
775485,001,2022-11-20_23h54.23.487,Info_measure_main_exp,2022.2.2,Win32,143.7194596,,,,,,,,,,,,,,,,,,masks/mask_005.jpg,,,,,,,,,,,,,,,,,,,,,,,,,,,,,,,,,,,,,,,,,,,0,4,4,4,1,,,,,,,,,,,,,,,,,,,,,,,,,,,,,,,,,,,,,,,,,,,,,,
775485,001,2022-11-20_23h54.23.487,Info_measure_main_exp,2022.2.2,Win32,143.7194596,,,,,,,,,,,,,,,,,,masks/mask_004.jpg,,,,,,,,,,,,,,,,,,,,,,,,,,,,,,,,,,,,,,,,,,,,,,,,0,0,0,3,1,,,,,,,,,,,,,,,,,,,,,,,,,,,,,,,,,,,,,,,,,
775485,001,2022-11-20_23h54.23.487,Info_measure_main_exp,2022.2.2,Win32,143.7194596,,,,,,,,,,,,,,,,,,masks/mask_005.jpg,,,,,,,,,,,,,,,,,,,,,,,,,,,,,,,,,,,,,,,,,,,,,,,,0,1,1,4,1,,,,,,,,,,,,,,,,,,,,,,,,,,,,,,,,,,,,,,,,,
775485,001,2022-11-20_23h54.23.487,Info_measure_main_exp,2022.2.2,Win32,143.7194596,,,,,,,,,,,,,,,,,,masks/mask_003.jpg,,,,,,,,,,,,,,,,,,,,,,,,,,,,,,,,,,,,,,,,,,,,,,,,0,2,2,2,1,,,,,,,,,,,,,,,,,,,,,,,,,,,,,,,,,,,,,,,,,
775485,001,2022-11-20_23h54.23.487,Info_measure_main_exp,2022.2.2,Win32,143.7194596,,,,,,,,,,,,,,,,,,masks/mask_001.jpg,,,,,,,,,,,,,,,,,,,,,,,,,,,,,,,,,,,,,,,,,,,,,,,,0,3,3,0,1,,,,,,,,,,,,,,,,,,,,,,,,,,,,,,,,,,,,,,,,,
775485,001,2022-11-20_23h54.23.487,Info_measure_main_exp,2022.2.2,Win32,143.7194596,,,,,,,,,,,,,,,,,,masks/mask_002.jpg,,,,,,,,,,,,,,,,,,,,,,,,,,,,,,,,,,,,,,,,,,,,,,,,0,4,4,1,1,,,,,,,,,,,,,,,,,,,,,,,,,,,,,,,,,,,,,,,,,
775485,001,2022-11-20_23h54.23.487,Info_measure_main_exp,2022.2.2,Win32,143.7194596,,,,,,,,,,,,,,,,,,,,,,,,,,,,,,3,0.451,1,,,,,,,,,,,,0,131,5,5,2082,2250,absent_patch/patch0002082.jpg,absent_patch/patch0002250.jpg,,,,,,,,,,,,,,,,,,,,-0.012962963,-0.107407407,1,0,0,response5disk,4,0.001851852,0.00462963,1,0,0,center_square,0,3,3,3,1,,,,,,,,,,,,,,,,,,,,,,,
775485,001,2022-11-20_23h54.23.487,Info_measure_main_exp,2022.2.2,Win32,143.7194596,,,,,,,,,,,,,,,,,,masks/mask_002.jpg,,,,,,,,,,,,,,,,,,,,,,,,,,,,,,,,,,,,,,,,,,,0,0,0,1,1,,,,,,,,,,,,,,,,,,,,,,,,,,,,,,,,,,,,,,,,,,,,,,
775485,001,2022-11-20_23h54.23.487,Info_measure_main_exp,2022.2.2,Win32,143.7194596,,,,,,,,,,,,,,,,,,masks/mask_001.jpg,,,,,,,,,,,,,,,,,,,,,,,,,,,,,,,,,,,,,,,,,,,0,1,1,0,1,,,,,,,,,,,,,,,,,,,,,,,,,,,,,,,,,,,,,,,,,,,,,,
775485,001,2022-11-20_23h54.23.487,Info_measure_main_exp,2022.2.2,Win32,143.7194596,,,,,,,,,,,,,,,,,,masks/mask_003.jpg,,,,,,,,,,,,,,,,,,,,,,,,,,,,,,,,,,,,,,,,,,,0,2,2,2,1,,,,,,,,,,,,,,,,,,,,,,,,,,,,,,,,,,,,,,,,,,,,,,
775485,001,2022-11-20_23h54.23.487,Info_measure_main_exp,2022.2.2,Win32,143.7194596,,,,,,,,,,,,,,,,,,masks/mask_004.jpg,,,,,,,,,,,,,,,,,,,,,,,,,,,,,,,,,,,,,,,,,,,0,3,3,3,1,,,,,,,,,,,,,,,,,,,,,,,,,,,,,,,,,,,,,,,,,,,,,,
775485,001,2022-11-20_23h54.23.487,Info_measure_main_exp,2022.2.2,Win32,143.7194596,,,,,,,,,,,,,,,,,,masks/mask_005.jpg,,,,,,,,,,,,,,,,,,,,,,,,,,,,,,,,,,,,,,,,,,,0,4,4,4,1,,,,,,,,,,,,,,,,,,,,,,,,,,,,,,,,,,,,,,,,,,,,,,
775485,001,2022-11-20_23h54.23.487,Info_measure_main_exp,2022.2.2,Win32,143.7194596,,,,,,,,,,,,,,,,,,masks/mask_005.jpg,,,,,,,,,,,,,,,,,,,,,,,,,,,,,,,,,,,,,,,,,,,,,,,,0,0,0,4,1,,,,,,,,,,,,,,,,,,,,,,,,,,,,,,,,,,,,,,,,,
775485,001,2022-11-20_23h54.23.487,Info_measure_main_exp,2022.2.2,Win32,143.7194596,,,,,,,,,,,,,,,,,,masks/mask_001.jpg,,,,,,,,,,,,,,,,,,,,,,,,,,,,,,,,,,,,,,,,,,,,,,,,0,1,1,0,1,,,,,,,,,,,,,,,,,,,,,,,,,,,,,,,,,,,,,,,,,
775485,001,2022-11-20_23h54.23.487,Info_measure_main_exp,2022.2.2,Win32,143.7194596,,,,,,,,,,,,,,,,,,masks/mask_002.jpg,,,,,,,,,,,,,,,,,,,,,,,,,,,,,,,,,,,,,,,,,,,,,,,,0,2,2,1,1,,,,,,,,,,,,,,,,,,,,,,,,,,,,,,,,,,,,,,,,,
775485,001,2022-11-20_23h54.23.487,Info_measure_main_exp,2022.2.2,Win32,143.7194596,,,,,,,,,,,,,,,,,,masks/mask_003.jpg,,,,,,,,,,,,,,,,,,,,,,,,,,,,,,,,,,,,,,,,,,,,,,,,0,3,3,2,1,,,,,,,,,,,,,,,,,,,,,,,,,,,,,,,,,,,,,,,,,
775485,001,2022-11-20_23h54.23.487,Info_measure_main_exp,2022.2.2,Win32,143.7194596,,,,,,,,,,,,,,,,,,masks/mask_004.jpg,,,,,,,,,,,,,,,,,,,,,,,,,,,,,,,,,,,,,,,,,,,,,,,,0,4,4,3,1,,,,,,,,,,,,,,,,,,,,,,,,,,,,,,,,,,,,,,,,,
775485,001,2022-11-20_23h54.23.487,Info_measure_main_exp,2022.2.2,Win32,143.7194596,,,,,,,,,,,,,,,,,,,,,,,,,,,,,,0,1.0755,1,,,,,,,,,,,,1,131,5,5,1950,1,absent_patch/patch0001950.jpg,present_patch/cong_131_5_a.jpg,,,,,,,,,,,,,,,,,,,,-0.038888889,0.060185185,1,0,0,response7disk,5,0.00462963,-0.002777778,1,0,0,center_square,0,4,4,39,1,,,,,,,,,,,,,,,,,,,,,,,
775485,001,2022-11-20_23h54.23.487,Info_measure_main_exp,2022.2.2,Win32,143.7194596,,,,,,,,,,,,,,,,,,masks/mask_002.jpg,,,,,,,,,,,,,,,,,,,,,,,,,,,,,,,,,,,,,,,,,,,0,0,0,1,1,,,,,,,,,,,,,,,,,,,,,,,,,,,,,,,,,,,,,,,,,,,,,,
775485,001,2022-11-20_23h54.23.487,Info_measure_main_exp,2022.2.2,Win32,143.7194596,,,,,,,,,,,,,,,,,,masks/mask_003.jpg,,,,,,,,,,,,,,,,,,,,,,,,,,,,,,,,,,,,,,,,,,,0,1,1,2,1,,,,,,,,,,,,,,,,,,,,,,,,,,,,,,,,,,,,,,,,,,,,,,
775485,001,2022-11-20_23h54.23.487,Info_measure_main_exp,2022.2.2,Win32,143.7194596,,,,,,,,,,,,,,,,,,masks/mask_004.jpg,,,,,,,,,,,,,,,,,,,,,,,,,,,,,,,,,,,,,,,,,,,0,2,2,3,1,,,,,,,,,,,,,,,,,,,,,,,,,,,,,,,,,,,,,,,,,,,,,,
775485,001,2022-11-20_23h54.23.487,Info_measure_main_exp,2022.2.2,Win32,143.7194596,,,,,,,,,,,,,,,,,,masks/mask_005.jpg,,,,,,,,,,,,,,,,,,,,,,,,,,,,,,,,,,,,,,,,,,,0,3,3,4,1,,,,,,,,,,,,,,,,,,,,,,,,,,,,,,,,,,,,,,,,,,,,,,
775485,001,2022-11-20_23h54.23.487,Info_measure_main_exp,2022.2.2,Win32,143.7194596,,,,,,,,,,,,,,,,,,masks/mask_001.jpg,,,,,,,,,,,,,,,,,,,,,,,,,,,,,,,,,,,,,,,,,,,0,4,4,0,1,,,,,,,,,,,,,,,,,,,,,,,,,,,,,,,,,,,,,,,,,,,,,,
775485,001,2022-11-20_23h54.23.487,Info_measure_main_exp,2022.2.2,Win32,143.7194596,,,,,,,,,,,,,,,,,,masks/mask_005.jpg,,,,,,,,,,,,,,,,,,,,,,,,,,,,,,,,,,,,,,,,,,,,,,,,0,0,0,4,1,,,,,,,,,,,,,,,,,,,,,,,,,,,,,,,,,,,,,,,,,
775485,001,2022-11-20_23h54.23.487,Info_measure_main_exp,2022.2.2,Win32,143.7194596,,,,,,,,,,,,,,,,,,masks/mask_001.jpg,,,,,,,,,,,,,,,,,,,,,,,,,,,,,,,,,,,,,,,,,,,,,,,,0,1,1,0,1,,,,,,,,,,,,,,,,,,,,,,,,,,,,,,,,,,,,,,,,,
775485,001,2022-11-20_23h54.23.487,Info_measure_main_exp,2022.2.2,Win32,143.7194596,,,,,,,,,,,,,,,,,,masks/mask_003.jpg,,,,,,,,,,,,,,,,,,,,,,,,,,,,,,,,,,,,,,,,,,,,,,,,0,2,2,2,1,,,,,,,,,,,,,,,,,,,,,,,,,,,,,,,,,,,,,,,,,
775485,001,2022-11-20_23h54.23.487,Info_measure_main_exp,2022.2.2,Win32,143.7194596,,,,,,,,,,,,,,,,,,masks/mask_004.jpg,,,,,,,,,,,,,,,,,,,,,,,,,,,,,,,,,,,,,,,,,,,,,,,,0,3,3,3,1,,,,,,,,,,,,,,,,,,,,,,,,,,,,,,,,,,,,,,,,,
775485,001,2022-11-20_23h54.23.487,Info_measure_main_exp,2022.2.2,Win32,143.7194596,,,,,,,,,,,,,,,,,,masks/mask_002.jpg,,,,,,,,,,,,,,,,,,,,,,,,,,,,,,,,,,,,,,,,,,,,,,,,0,4,4,1,1,,,,,,,,,,,,,,,,,,,,,,,,,,,,,,,,,,,,,,,,,
775485,001,2022-11-20_23h54.23.487,Info_measure_main_exp,2022.2.2,Win32,143.7194596,,,,,,,,,,,,,,,,,,,,,,,,,,,,,,2,0.536,1,,,,,,,,,,,,0,131,5,5,2190,2166,absent_patch/patch0002190.jpg,absent_patch/patch0002166.jpg,,,,,,,,,,,,,,,,,,,,-0.07962963,-0.035185185,1,0,0,response5disk,6,-0.002777778,-0.000925926,1,0,0,center_square,0,5,5,50,1,,,,,,,,,,,,,,,,,,,,,,,
775485,001,2022-11-20_23h54.23.487,Info_measure_main_exp,2022.2.2,Win32,143.7194596,,,,,,,,,,,,,,,,,,masks/mask_001.jpg,,,,,,,,,,,,,,,,,,,,,,,,,,,,,,,,,,,,,,,,,,,0,0,0,0,1,,,,,,,,,,,,,,,,,,,,,,,,,,,,,,,,,,,,,,,,,,,,,,
775485,001,2022-11-20_23h54.23.487,Info_measure_main_exp,2022.2.2,Win32,143.7194596,,,,,,,,,,,,,,,,,,masks/mask_004.jpg,,,,,,,,,,,,,,,,,,,,,,,,,,,,,,,,,,,,,,,,,,,0,1,1,3,1,,,,,,,,,,,,,,,,,,,,,,,,,,,,,,,,,,,,,,,,,,,,,,
775485,001,2022-11-20_23h54.23.487,Info_measure_main_exp,2022.2.2,Win32,143.7194596,,,,,,,,,,,,,,,,,,masks/mask_002.jpg,,,,,,,,,,,,,,,,,,,,,,,,,,,,,,,,,,,,,,,,,,,0,2,2,1,1,,,,,,,,,,,,,,,,,,,,,,,,,,,,,,,,,,,,,,,,,,,,,,
775485,001,2022-11-20_23h54.23.487,Info_measure_main_exp,2022.2.2,Win32,143.7194596,,,,,,,,,,,,,,,,,,masks/mask_005.jpg,,,,,,,,,,,,,,,,,,,,,,,,,,,,,,,,,,,,,,,,,,,0,3,3,4,1,,,,,,,,,,,,,,,,,,,,,,,,,,,,,,,,,,,,,,,,,,,,,,
775485,001,2022-11-20_23h54.23.487,Info_measure_main_exp,2022.2.2,Win32,143.7194596,,,,,,,,,,,,,,,,,,masks/mask_003.jpg,,,,,,,,,,,,,,,,,,,,,,,,,,,,,,,,,,,,,,,,,,,0,4,4,2,1,,,,,,,,,,,,,,,,,,,,,,,,,,,,,,,,,,,,,,,,,,,,,,
775485,001,2022-11-20_23h54.23.487,Info_measure_main_exp,2022.2.2,Win32,143.7194596,,,,,,,,,,,,,,,,,,masks/mask_003.jpg,,,,,,,,,,,,,,,,,,,,,,,,,,,,,,,,,,,,,,,,,,,,,,,,0,0,0,2,1,,,,,,,,,,,,,,,,,,,,,,,,,,,,,,,,,,,,,,,,,
775485,001,2022-11-20_23h54.23.487,Info_measure_main_exp,2022.2.2,Win32,143.7194596,,,,,,,,,,,,,,,,,,masks/mask_001.jpg,,,,,,,,,,,,,,,,,,,,,,,,,,,,,,,,,,,,,,,,,,,,,,,,0,1,1,0,1,,,,,,,,,,,,,,,,,,,,,,,,,,,,,,,,,,,,,,,,,
775485,001,2022-11-20_23h54.23.487,Info_measure_main_exp,2022.2.2,Win32,143.7194596,,,,,,,,,,,,,,,,,,masks/mask_004.jpg,,,,,,,,,,,,,,,,,,,,,,,,,,,,,,,,,,,,,,,,,,,,,,,,0,2,2,3,1,,,,,,,,,,,,,,,,,,,,,,,,,,,,,,,,,,,,,,,,,
775485,001,2022-11-20_23h54.23.487,Info_measure_main_exp,2022.2.2,Win32,143.7194596,,,,,,,,,,,,,,,,,,masks/mask_002.jpg,,,,,,,,,,,,,,,,,,,,,,,,,,,,,,,,,,,,,,,,,,,,,,,,0,3,3,1,1,,,,,,,,,,,,,,,,,,,,,,,,,,,,,,,,,,,,,,,,,
775485,001,2022-11-20_23h54.23.487,Info_measure_main_exp,2022.2.2,Win32,143.7194596,,,,,,,,,,,,,,,,,,masks/mask_005.jpg,,,,,,,,,,,,,,,,,,,,,,,,,,,,,,,,,,,,,,,,,,,,,,,,0,4,4,4,1,,,,,,,,,,,,,,,,,,,,,,,,,,,,,,,,,,,,,,,,,
775485,001,2022-11-20_23h54.23.487,Info_measure_main_exp,2022.2.2,Win32,143.7194596,,,,,,,,,,,,,,,,,,,,,,,,,,,,,,1,1.0752,1,,,,,,,,,,,,0,131,5,5,2166,2298,absent_patch/patch0002166.jpg,absent_patch/patch0002298.jpg,,,,,,,,,,,,,,,,,,,,-0.09537037,0.022222222,1,0,0,response7disk,7,0.007407407,-0.003703704,1,0,0,center_square,0,6,6,52,1,,,,,,,,,,,,,,,,,,,,,,,
775485,001,2022-11-20_23h54.23.487,Info_measure_main_exp,2022.2.2,Win32,143.7194596,,,,,,,,,,,,,,,,,,masks/mask_002.jpg,,,,,,,,,,,,,,,,,,,,,,,,,,,,,,,,,,,,,,,,,,,0,0,0,1,1,,,,,,,,,,,,,,,,,,,,,,,,,,,,,,,,,,,,,,,,,,,,,,
775485,001,2022-11-20_23h54.23.487,Info_measure_main_exp,2022.2.2,Win32,143.7194596,,,,,,,,,,,,,,,,,,masks/mask_005.jpg,,,,,,,,,,,,,,,,,,,,,,,,,,,,,,,,,,,,,,,,,,,0,1,1,4,1,,,,,,,,,,,,,,,,,,,,,,,,,,,,,,,,,,,,,,,,,,,,,,
775485,001,2022-11-20_23h54.23.487,Info_measure_main_exp,2022.2.2,Win32,143.7194596,,,,,,,,,,,,,,,,,,masks/mask_004.jpg,,,,,,,,,,,,,,,,,,,,,,,,,,,,,,,,,,,,,,,,,,,0,2,2,3,1,,,,,,,,,,,,,,,,,,,,,,,,,,,,,,,,,,,,,,,,,,,,,,
775485,001,2022-11-20_23h54.23.487,Info_measure_main_exp,2022.2.2,Win32,143.7194596,,,,,,,,,,,,,,,,,,masks/mask_001.jpg,,,,,,,,,,,,,,,,,,,,,,,,,,,,,,,,,,,,,,,,,,,0,3,3,0,1,,,,,,,,,,,,,,,,,,,,,,,,,,,,,,,,,,,,,,,,,,,,,,
775485,001,2022-11-20_23h54.23.487,Info_measure_main_exp,2022.2.2,Win32,143.7194596,,,,,,,,,,,,,,,,,,masks/mask_003.jpg,,,,,,,,,,,,,,,,,,,,,,,,,,,,,,,,,,,,,,,,,,,0,4,4,2,1,,,,,,,,,,,,,,,,,,,,,,,,,,,,,,,,,,,,,,,,,,,,,,
775485,001,2022-11-20_23h54.23.487,Info_measure_main_exp,2022.2.2,Win32,143.7194596,,,,,,,,,,,,,,,,,,masks/mask_003.jpg,,,,,,,,,,,,,,,,,,,,,,,,,,,,,,,,,,,,,,,,,,,,,,,,0,0,0,2,1,,,,,,,,,,,,,,,,,,,,,,,,,,,,,,,,,,,,,,,,,
775485,001,2022-11-20_23h54.23.487,Info_measure_main_exp,2022.2.2,Win32,143.7194596,,,,,,,,,,,,,,,,,,masks/mask_001.jpg,,,,,,,,,,,,,,,,,,,,,,,,,,,,,,,,,,,,,,,,,,,,,,,,0,1,1,0,1,,,,,,,,,,,,,,,,,,,,,,,,,,,,,,,,,,,,,,,,,
775485,001,2022-11-20_23h54.23.487,Info_measure_main_exp,2022.2.2,Win32,143.7194596,,,,,,,,,,,,,,,,,,masks/mask_004.jpg,,,,,,,,,,,,,,,,,,,,,,,,,,,,,,,,,,,,,,,,,,,,,,,,0,2,2,3,1,,,,,,,,,,,,,,,,,,,,,,,,,,,,,,,,,,,,,,,,,
775485,001,2022-11-20_23h54.23.487,Info_measure_main_exp,2022.2.2,Win32,143.7194596,,,,,,,,,,,,,,,,,,masks/mask_002.jpg,,,,,,,,,,,,,,,,,,,,,,,,,,,,,,,,,,,,,,,,,,,,,,,,0,3,3,1,1,,,,,,,,,,,,,,,,,,,,,,,,,,,,,,,,,,,,,,,,,
775485,001,2022-11-20_23h54.23.487,Info_measure_main_exp,2022.2.2,Win32,143.7194596,,,,,,,,,,,,,,,,,,masks/mask_005.jpg,,,,,,,,,,,,,,,,,,,,,,,,,,,,,,,,,,,,,,,,,,,,,,,,0,4,4,4,1,,,,,,,,,,,,,,,,,,,,,,,,,,,,,,,,,,,,,,,,,
775485,001,2022-11-20_23h54.23.487,Info_measure_main_exp,2022.2.2,Win32,143.7194596,,,,,,,,,,,,,,,,,,,,,,,,,,,,,,0,0.6732,1,,,,,,,,,,,,0,131,5,5,2298,2190,absent_patch/patch0002298.jpg,absent_patch/patch0002190.jpg,,,,,,,,,,,,,,,,,,,,-0.023148148,0.061111111,1,0,0,response7disk,8,0.002777778,-0.001851852,1,0,0,center_square,0,7,7,20,1,,,,,,,,,,,,,,,,,,,,,,,
775485,001,2022-11-20_23h54.23.487,Info_measure_main_exp,2022.2.2,Win32,143.7194596,,,,,,,,,,,,,,,,,,masks/mask_005.jpg,,,,,,,,,,,,,,,,,,,,,,,,,,,,,,,,,,,,,,,,,,,0,0,0,4,1,,,,,,,,,,,,,,,,,,,,,,,,,,,,,,,,,,,,,,,,,,,,,,
775485,001,2022-11-20_23h54.23.487,Info_measure_main_exp,2022.2.2,Win32,143.7194596,,,,,,,,,,,,,,,,,,masks/mask_002.jpg,,,,,,,,,,,,,,,,,,,,,,,,,,,,,,,,,,,,,,,,,,,0,1,1,1,1,,,,,,,,,,,,,,,,,,,,,,,,,,,,,,,,,,,,,,,,,,,,,,
775485,001,2022-11-20_23h54.23.487,Info_measure_main_exp,2022.2.2,Win32,143.7194596,,,,,,,,,,,,,,,,,,masks/mask_004.jpg,,,,,,,,,,,,,,,,,,,,,,,,,,,,,,,,,,,,,,,,,,,0,2,2,3,1,,,,,,,,,,,,,,,,,,,,,,,,,,,,,,,,,,,,,,,,,,,,,,
775485,001,2022-11-20_23h54.23.487,Info_measure_main_exp,2022.2.2,Win32,143.7194596,,,,,,,,,,,,,,,,,,masks/mask_003.jpg,,,,,,,,,,,,,,,,,,,,,,,,,,,,,,,,,,,,,,,,,,,0,3,3,2,1,,,,,,,,,,,,,,,,,,,,,,,,,,,,,,,,,,,,,,,,,,,,,,
775485,001,2022-11-20_23h54.23.487,Info_measure_main_exp,2022.2.2,Win32,143.7194596,,,,,,,,,,,,,,,,,,masks/mask_001.jpg,,,,,,,,,,,,,,,,,,,,,,,,,,,,,,,,,,,,,,,,,,,0,4,4,0,1,,,,,,,,,,,,,,,,,,,,,,,,,,,,,,,,,,,,,,,,,,,,,,
775485,001,2022-11-20_23h54.23.487,Info_measure_main_exp,2022.2.2,Win32,143.7194596,,,,,,,,,,,,,,,,,,masks/mask_001.jpg,,,,,,,,,,,,,,,,,,,,,,,,,,,,,,,,,,,,,,,,,,,,,,,,0,0,0,0,1,,,,,,,,,,,,,,,,,,,,,,,,,,,,,,,,,,,,,,,,,
775485,001,2022-11-20_23h54.23.487,Info_measure_main_exp,2022.2.2,Win32,143.7194596,,,,,,,,,,,,,,,,,,masks/mask_003.jpg,,,,,,,,,,,,,,,,,,,,,,,,,,,,,,,,,,,,,,,,,,,,,,,,0,1,1,2,1,,,,,,,,,,,,,,,,,,,,,,,,,,,,,,,,,,,,,,,,,
775485,001,2022-11-20_23h54.23.487,Info_measure_main_exp,2022.2.2,Win32,143.7194596,,,,,,,,,,,,,,,,,,masks/mask_005.jpg,,,,,,,,,,,,,,,,,,,,,,,,,,,,,,,,,,,,,,,,,,,,,,,,0,2,2,4,1,,,,,,,,,,,,,,,,,,,,,,,,,,,,,,,,,,,,,,,,,
775485,001,2022-11-20_23h54.23.487,Info_measure_main_exp,2022.2.2,Win32,143.7194596,,,,,,,,,,,,,,,,,,masks/mask_004.jpg,,,,,,,,,,,,,,,,,,,,,,,,,,,,,,,,,,,,,,,,,,,,,,,,0,3,3,3,1,,,,,,,,,,,,,,,,,,,,,,,,,,,,,,,,,,,,,,,,,
775485,001,2022-11-20_23h54.23.487,Info_measure_main_exp,2022.2.2,Win32,143.7194596,,,,,,,,,,,,,,,,,,masks/mask_002.jpg,,,,,,,,,,,,,,,,,,,,,,,,,,,,,,,,,,,,,,,,,,,,,,,,0,4,4,1,1,,,,,,,,,,,,,,,,,,,,,,,,,,,,,,,,,,,,,,,,,
775485,001,2022-11-20_23h54.23.487,Info_measure_main_exp,2022.2.2,Win32,143.7194596,,,,,,,,,,,,,,,,,,,,,,,,,,,,,,3,1.3969,1,,,,,,,,,,,,0,131,5,5,2298,1986,absent_patch/patch0002298.jpg,absent_patch/patch0001986.jpg,,,,,,,,,,,,,,,,,,,,-0.067592593,-0.143518519,1,0,0,response5disk,9,0.001851852,0.003703704,1,0,0,center_square,0,8,8,32,1,,,,,,,,,,,,,,,,,,,,,,,
775485,001,2022-11-20_23h54.23.487,Info_measure_main_exp,2022.2.2,Win32,143.7194596,,,,,,,,,,,,,,,,,,masks/mask_002.jpg,,,,,,,,,,,,,,,,,,,,,,,,,,,,,,,,,,,,,,,,,,,0,0,0,1,1,,,,,,,,,,,,,,,,,,,,,,,,,,,,,,,,,,,,,,,,,,,,,,
775485,001,2022-11-20_23h54.23.487,Info_measure_main_exp,2022.2.2,Win32,143.7194596,,,,,,,,,,,,,,,,,,masks/mask_004.jpg,,,,,,,,,,,,,,,,,,,,,,,,,,,,,,,,,,,,,,,,,,,0,1,1,3,1,,,,,,,,,,,,,,,,,,,,,,,,,,,,,,,,,,,,,,,,,,,,,,
775485,001,2022-11-20_23h54.23.487,Info_measure_main_exp,2022.2.2,Win32,143.7194596,,,,,,,,,,,,,,,,,,masks/mask_001.jpg,,,,,,,,,,,,,,,,,,,,,,,,,,,,,,,,,,,,,,,,,,,0,2,2,0,1,,,,,,,,,,,,,,,,,,,,,,,,,,,,,,,,,,,,,,,,,,,,,,
775485,001,2022-11-20_23h54.23.487,Info_measure_main_exp,2022.2.2,Win32,143.7194596,,,,,,,,,,,,,,,,,,masks/mask_003.jpg,,,,,,,,,,,,,,,,,,,,,,,,,,,,,,,,,,,,,,,,,,,0,3,3,2,1,,,,,,,,,,,,,,,,,,,,,,,,,,,,,,,,,,,,,,,,,,,,,,
775485,001,2022-11-20_23h54.23.487,Info_measure_main_exp,2022.2.2,Win32,143.7194596,,,,,,,,,,,,,,,,,,masks/mask_005.jpg,,,,,,,,,,,,,,,,,,,,,,,,,,,,,,,,,,,,,,,,,,,0,4,4,4,1,,,,,,,,,,,,,,,,,,,,,,,,,,,,,,,,,,,,,,,,,,,,,,
775485,001,2022-11-20_23h54.23.487,Info_measure_main_exp,2022.2.2,Win32,143.7194596,,,,,,,,,,,,,,,,,,masks/mask_001.jpg,,,,,,,,,,,,,,,,,,,,,,,,,,,,,,,,,,,,,,,,,,,,,,,,0,0,0,0,1,,,,,,,,,,,,,,,,,,,,,,,,,,,,,,,,,,,,,,,,,
775485,001,2022-11-20_23h54.23.487,Info_measure_main_exp,2022.2.2,Win32,143.7194596,,,,,,,,,,,,,,,,,,masks/mask_004.jpg,,,,,,,,,,,,,,,,,,,,,,,,,,,,,,,,,,,,,,,,,,,,,,,,0,1,1,3,1,,,,,,,,,,,,,,,,,,,,,,,,,,,,,,,,,,,,,,,,,
775485,001,2022-11-20_23h54.23.487,Info_measure_main_exp,2022.2.2,Win32,143.7194596,,,,,,,,,,,,,,,,,,masks/mask_005.jpg,,,,,,,,,,,,,,,,,,,,,,,,,,,,,,,,,,,,,,,,,,,,,,,,0,2,2,4,1,,,,,,,,,,,,,,,,,,,,,,,,,,,,,,,,,,,,,,,,,
775485,001,2022-11-20_23h54.23.487,Info_measure_main_exp,2022.2.2,Win32,143.7194596,,,,,,,,,,,,,,,,,,masks/mask_002.jpg,,,,,,,,,,,,,,,,,,,,,,,,,,,,,,,,,,,,,,,,,,,,,,,,0,3,3,1,1,,,,,,,,,,,,,,,,,,,,,,,,,,,,,,,,,,,,,,,,,
775485,001,2022-11-20_23h54.23.487,Info_measure_main_exp,2022.2.2,Win32,143.7194596,,,,,,,,,,,,,,,,,,masks/mask_003.jpg,,,,,,,,,,,,,,,,,,,,,,,,,,,,,,,,,,,,,,,,,,,,,,,,0,4,4,2,1,,,,,,,,,,,,,,,,,,,,,,,,,,,,,,,,,,,,,,,,,
775485,001,2022-11-20_23h54.23.487,Info_measure_main_exp,2022.2.2,Win32,143.7194596,,,,,,,,,,,,,,,,,,,,,,,,,,,,,,2,0.8199,1,,,,,,,,,,,,0,131,5,5,1974,2298,absent_patch/patch0001974.jpg,absent_patch/patch0002298.jpg,,,,,,,,,,,,,,,,,,,,-0.094444444,-0.061111111,1,0,0,response5disk,10,-0.001851852,-0.002777778,1,0,0,center_square,0,9,9,6,1,,,,,,,,,,,,,,,,,,,,,,,
775485,001,2022-11-20_23h54.23.487,Info_measure_main_exp,2022.2.2,Win32,143.7194596,,,,,,,,,,,,,,,,,,masks/mask_001.jpg,,,,,,,,,,,,,,,,,,,,,,,,,,,,,,,,,,,,,,,,,,,0,0,0,0,1,,,,,,,,,,,,,,,,,,,,,,,,,,,,,,,,,,,,,,,,,,,,,,
775485,001,2022-11-20_23h54.23.487,Info_measure_main_exp,2022.2.2,Win32,143.7194596,,,,,,,,,,,,,,,,,,masks/mask_003.jpg,,,,,,,,,,,,,,,,,,,,,,,,,,,,,,,,,,,,,,,,,,,0,1,1,2,1,,,,,,,,,,,,,,,,,,,,,,,,,,,,,,,,,,,,,,,,,,,,,,
775485,001,2022-11-20_23h54.23.487,Info_measure_main_exp,2022.2.2,Win32,143.7194596,,,,,,,,,,,,,,,,,,masks/mask_002.jpg,,,,,,,,,,,,,,,,,,,,,,,,,,,,,,,,,,,,,,,,,,,0,2,2,1,1,,,,,,,,,,,,,,,,,,,,,,,,,,,,,,,,,,,,,,,,,,,,,,
775485,001,2022-11-20_23h54.23.487,Info_measure_main_exp,2022.2.2,Win32,143.7194596,,,,,,,,,,,,,,,,,,masks/mask_004.jpg,,,,,,,,,,,,,,,,,,,,,,,,,,,,,,,,,,,,,,,,,,,0,3,3,3,1,,,,,,,,,,,,,,,,,,,,,,,,,,,,,,,,,,,,,,,,,,,,,,
775485,001,2022-11-20_23h54.23.487,Info_measure_main_exp,2022.2.2,Win32,143.7194596,,,,,,,,,,,,,,,,,,masks/mask_005.jpg,,,,,,,,,,,,,,,,,,,,,,,,,,,,,,,,,,,,,,,,,,,0,4,4,4,1,,,,,,,,,,,,,,,,,,,,,,,,,,,,,,,,,,,,,,,,,,,,,,
775485,001,2022-11-20_23h54.23.487,Info_measure_main_exp,2022.2.2,Win32,143.7194596,,,,,,,,,,,,,,,,,,masks/mask_005.jpg,,,,,,,,,,,,,,,,,,,,,,,,,,,,,,,,,,,,,,,,,,,,,,,,0,0,0,4,1,,,,,,,,,,,,,,,,,,,,,,,,,,,,,,,,,,,,,,,,,
775485,001,2022-11-20_23h54.23.487,Info_measure_main_exp,2022.2.2,Win32,143.7194596,,,,,,,,,,,,,,,,,,masks/mask_003.jpg,,,,,,,,,,,,,,,,,,,,,,,,,,,,,,,,,,,,,,,,,,,,,,,,0,1,1,2,1,,,,,,,,,,,,,,,,,,,,,,,,,,,,,,,,,,,,,,,,,
775485,001,2022-11-20_23h54.23.487,Info_measure_main_exp,2022.2.2,Win32,143.7194596,,,,,,,,,,,,,,,,,,masks/mask_002.jpg,,,,,,,,,,,,,,,,,,,,,,,,,,,,,,,,,,,,,,,,,,,,,,,,0,2,2,1,1,,,,,,,,,,,,,,,,,,,,,,,,,,,,,,,,,,,,,,,,,
775485,001,2022-11-20_23h54.23.487,Info_measure_main_exp,2022.2.2,Win32,143.7194596,,,,,,,,,,,,,,,,,,masks/mask_004.jpg,,,,,,,,,,,,,,,,,,,,,,,,,,,,,,,,,,,,,,,,,,,,,,,,0,3,3,3,1,,,,,,,,,,,,,,,,,,,,,,,,,,,,,,,,,,,,,,,,,
775485,001,2022-11-20_23h54.23.487,Info_measure_main_exp,2022.2.2,Win32,143.7194596,,,,,,,,,,,,,,,,,,masks/mask_001.jpg,,,,,,,,,,,,,,,,,,,,,,,,,,,,,,,,,,,,,,,,,,,,,,,,0,4,4,0,1,,,,,,,,,,,,,,,,,,,,,,,,,,,,,,,,,,,,,,,,,
775485,001,2022-11-20_23h54.23.487,Info_measure_main_exp,2022.2.2,Win32,143.7194596,,,,,,,,,,,,,,,,,,,,,,,,,,,,,,1,1.367,1,,,,,,,,,,,,0,131,5,5,1950,1950,absent_patch/patch0001950.jpg,absent_patch/patch0001950.jpg,,,,,,,,,,,,,,,,,,,,-0.112962963,0.025,1,0,0,response7disk,11,0.001851852,0.002777778,1,0,0,center_square,0,10,10,92,1,,,,,,,,,,,,,,,,,,,,,,,
775485,001,2022-11-20_23h54.23.487,Info_measure_main_exp,2022.2.2,Win32,143.7194596,,,,,,,,,,,,,,,,,,masks/mask_003.jpg,,,,,,,,,,,,,,,,,,,,,,,,,,,,,,,,,,,,,,,,,,,0,0,0,2,1,,,,,,,,,,,,,,,,,,,,,,,,,,,,,,,,,,,,,,,,,,,,,,
775485,001,2022-11-20_23h54.23.487,Info_measure_main_exp,2022.2.2,Win32,143.7194596,,,,,,,,,,,,,,,,,,masks/mask_005.jpg,,,,,,,,,,,,,,,,,,,,,,,,,,,,,,,,,,,,,,,,,,,0,1,1,4,1,,,,,,,,,,,,,,,,,,,,,,,,,,,,,,,,,,,,,,,,,,,,,,
775485,001,2022-11-20_23h54.23.487,Info_measure_main_exp,2022.2.2,Win32,143.7194596,,,,,,,,,,,,,,,,,,masks/mask_001.jpg,,,,,,,,,,,,,,,,,,,,,,,,,,,,,,,,,,,,,,,,,,,0,2,2,0,1,,,,,,,,,,,,,,,,,,,,,,,,,,,,,,,,,,,,,,,,,,,,,,
775485,001,2022-11-20_23h54.23.487,Info_measure_main_exp,2022.2.2,Win32,143.7194596,,,,,,,,,,,,,,,,,,masks/mask_004.jpg,,,,,,,,,,,,,,,,,,,,,,,,,,,,,,,,,,,,,,,,,,,0,3,3,3,1,,,,,,,,,,,,,,,,,,,,,,,,,,,,,,,,,,,,,,,,,,,,,,
775485,001,2022-11-20_23h54.23.487,Info_measure_main_exp,2022.2.2,Win32,143.7194596,,,,,,,,,,,,,,,,,,masks/mask_002.jpg,,,,,,,,,,,,,,,,,,,,,,,,,,,,,,,,,,,,,,,,,,,0,4,4,1,1,,,,,,,,,,,,,,,,,,,,,,,,,,,,,,,,,,,,,,,,,,,,,,
775485,001,2022-11-20_23h54.23.487,Info_measure_main_exp,2022.2.2,Win32,143.7194596,,,,,,,,,,,,,,,,,,masks/mask_005.jpg,,,,,,,,,,,,,,,,,,,,,,,,,,,,,,,,,,,,,,,,,,,,,,,,0,0,0,4,1,,,,,,,,,,,,,,,,,,,,,,,,,,,,,,,,,,,,,,,,,
775485,001,2022-11-20_23h54.23.487,Info_measure_main_exp,2022.2.2,Win32,143.7194596,,,,,,,,,,,,,,,,,,masks/mask_004.jpg,,,,,,,,,,,,,,,,,,,,,,,,,,,,,,,,,,,,,,,,,,,,,,,,0,1,1,3,1,,,,,,,,,,,,,,,,,,,,,,,,,,,,,,,,,,,,,,,,,
775485,001,2022-11-20_23h54.23.487,Info_measure_main_exp,2022.2.2,Win32,143.7194596,,,,,,,,,,,,,,,,,,masks/mask_001.jpg,,,,,,,,,,,,,,,,,,,,,,,,,,,,,,,,,,,,,,,,,,,,,,,,0,2,2,0,1,,,,,,,,,,,,,,,,,,,,,,,,,,,,,,,,,,,,,,,,,
775485,001,2022-11-20_23h54.23.487,Info_measure_main_exp,2022.2.2,Win32,143.7194596,,,,,,,,,,,,,,,,,,masks/mask_003.jpg,,,,,,,,,,,,,,,,,,,,,,,,,,,,,,,,,,,,,,,,,,,,,,,,0,3,3,2,1,,,,,,,,,,,,,,,,,,,,,,,,,,,,,,,,,,,,,,,,,
775485,001,2022-11-20_23h54.23.487,Info_measure_main_exp,2022.2.2,Win32,143.7194596,,,,,,,,,,,,,,,,,,masks/mask_002.jpg,,,,,,,,,,,,,,,,,,,,,,,,,,,,,,,,,,,,,,,,,,,,,,,,0,4,4,1,1,,,,,,,,,,,,,,,,,,,,,,,,,,,,,,,,,,,,,,,,,
775485,001,2022-11-20_23h54.23.487,Info_measure_main_exp,2022.2.2,Win32,143.7194596,,,,,,,,,,,,,,,,,,,,,,,,,,,,,,1,0.8742,1,,,,,,,,,,,,0,131,5,5,1974,2214,absent_patch/patch0001974.jpg,absent_patch/patch0002214.jpg,,,,,,,,,,,,,,,,,,,,-0.075925926,0.027777778,1,0,0,response7disk,12,0.000925926,-0.001851852,1,0,0,center_square,0,11,11,24,1,,,,,,,,,,,,,,,,,,,,,,,
775485,001,2022-11-20_23h54.23.487,Info_measure_main_exp,2022.2.2,Win32,143.7194596,,,,,,,,,,,,,,,,,,masks/mask_001.jpg,,,,,,,,,,,,,,,,,,,,,,,,,,,,,,,,,,,,,,,,,,,0,0,0,0,1,,,,,,,,,,,,,,,,,,,,,,,,,,,,,,,,,,,,,,,,,,,,,,
775485,001,2022-11-20_23h54.23.487,Info_measure_main_exp,2022.2.2,Win32,143.7194596,,,,,,,,,,,,,,,,,,masks/mask_003.jpg,,,,,,,,,,,,,,,,,,,,,,,,,,,,,,,,,,,,,,,,,,,0,1,1,2,1,,,,,,,,,,,,,,,,,,,,,,,,,,,,,,,,,,,,,,,,,,,,,,
775485,001,2022-11-20_23h54.23.487,Info_measure_main_exp,2022.2.2,Win32,143.7194596,,,,,,,,,,,,,,,,,,masks/mask_005.jpg,,,,,,,,,,,,,,,,,,,,,,,,,,,,,,,,,,,,,,,,,,,0,2,2,4,1,,,,,,,,,,,,,,,,,,,,,,,,,,,,,,,,,,,,,,,,,,,,,,
775485,001,2022-11-20_23h54.23.487,Info_measure_main_exp,2022.2.2,Win32,143.7194596,,,,,,,,,,,,,,,,,,masks/mask_004.jpg,,,,,,,,,,,,,,,,,,,,,,,,,,,,,,,,,,,,,,,,,,,0,3,3,3,1,,,,,,,,,,,,,,,,,,,,,,,,,,,,,,,,,,,,,,,,,,,,,,
775485,001,2022-11-20_23h54.23.487,Info_measure_main_exp,2022.2.2,Win32,143.7194596,,,,,,,,,,,,,,,,,,masks/mask_002.jpg,,,,,,,,,,,,,,,,,,,,,,,,,,,,,,,,,,,,,,,,,,,0,4,4,1,1,,,,,,,,,,,,,,,,,,,,,,,,,,,,,,,,,,,,,,,,,,,,,,
775485,001,2022-11-20_23h54.23.487,Info_measure_main_exp,2022.2.2,Win32,143.7194596,,,,,,,,,,,,,,,,,,masks/mask_005.jpg,,,,,,,,,,,,,,,,,,,,,,,,,,,,,,,,,,,,,,,,,,,,,,,,0,0,0,4,1,,,,,,,,,,,,,,,,,,,,,,,,,,,,,,,,,,,,,,,,,
775485,001,2022-11-20_23h54.23.487,Info_measure_main_exp,2022.2.2,Win32,143.7194596,,,,,,,,,,,,,,,,,,masks/mask_002.jpg,,,,,,,,,,,,,,,,,,,,,,,,,,,,,,,,,,,,,,,,,,,,,,,,0,1,1,1,1,,,,,,,,,,,,,,,,,,,,,,,,,,,,,,,,,,,,,,,,,
775485,001,2022-11-20_23h54.23.487,Info_measure_main_exp,2022.2.2,Win32,143.7194596,,,,,,,,,,,,,,,,,,masks/mask_004.jpg,,,,,,,,,,,,,,,,,,,,,,,,,,,,,,,,,,,,,,,,,,,,,,,,0,2,2,3,1,,,,,,,,,,,,,,,,,,,,,,,,,,,,,,,,,,,,,,,,,
775485,001,2022-11-20_23h54.23.487,Info_measure_main_exp,2022.2.2,Win32,143.7194596,,,,,,,,,,,,,,,,,,masks/mask_003.jpg,,,,,,,,,,,,,,,,,,,,,,,,,,,,,,,,,,,,,,,,,,,,,,,,0,3,3,2,1,,,,,,,,,,,,,,,,,,,,,,,,,,,,,,,,,,,,,,,,,
775485,001,2022-11-20_23h54.23.487,Info_measure_main_exp,2022.2.2,Win32,143.7194596,,,,,,,,,,,,,,,,,,masks/mask_001.jpg,,,,,,,,,,,,,,,,,,,,,,,,,,,,,,,,,,,,,,,,,,,,,,,,0,4,4,0,1,,,,,,,,,,,,,,,,,,,,,,,,,,,,,,,,,,,,,,,,,
775485,001,2022-11-20_23h54.23.487,Info_measure_main_exp,2022.2.2,Win32,143.7194596,,,,,,,,,,,,,,,,,,,,,,,,,,,,,,1,0.8465,1,,,,,,,,,,,,0,131,5,5,2274,1950,absent_patch/patch0002274.jpg,absent_patch/patch0001950.jpg,,,,,,,,,,,,,,,,,,,,-0.069444444,0.010185185,1,0,0,response7disk,13,0.005555556,-0.012037037,1,0,0,center_square,0,12,12,10,1,,,,,,,,,,,,,,,,,,,,,,,
775485,001,2022-11-20_23h54.23.487,Info_measure_main_exp,2022.2.2,Win32,143.7194596,,,,,,,,,,,,,,,,,,masks/mask_005.jpg,,,,,,,,,,,,,,,,,,,,,,,,,,,,,,,,,,,,,,,,,,,0,0,0,4,1,,,,,,,,,,,,,,,,,,,,,,,,,,,,,,,,,,,,,,,,,,,,,,
775485,001,2022-11-20_23h54.23.487,Info_measure_main_exp,2022.2.2,Win32,143.7194596,,,,,,,,,,,,,,,,,,masks/mask_003.jpg,,,,,,,,,,,,,,,,,,,,,,,,,,,,,,,,,,,,,,,,,,,0,1,1,2,1,,,,,,,,,,,,,,,,,,,,,,,,,,,,,,,,,,,,,,,,,,,,,,
775485,001,2022-11-20_23h54.23.487,Info_measure_main_exp,2022.2.2,Win32,143.7194596,,,,,,,,,,,,,,,,,,masks/mask_002.jpg,,,,,,,,,,,,,,,,,,,,,,,,,,,,,,,,,,,,,,,,,,,0,2,2,1,1,,,,,,,,,,,,,,,,,,,,,,,,,,,,,,,,,,,,,,,,,,,,,,
775485,001,2022-11-20_23h54.23.487,Info_measure_main_exp,2022.2.2,Win32,143.7194596,,,,,,,,,,,,,,,,,,masks/mask_004.jpg,,,,,,,,,,,,,,,,,,,,,,,,,,,,,,,,,,,,,,,,,,,0,3,3,3,1,,,,,,,,,,,,,,,,,,,,,,,,,,,,,,,,,,,,,,,,,,,,,,
775485,001,2022-11-20_23h54.23.487,Info_measure_main_exp,2022.2.2,Win32,143.7194596,,,,,,,,,,,,,,,,,,masks/mask_001.jpg,,,,,,,,,,,,,,,,,,,,,,,,,,,,,,,,,,,,,,,,,,,0,4,4,0,1,,,,,,,,,,,,,,,,,,,,,,,,,,,,,,,,,,,,,,,,,,,,,,
775485,001,2022-11-20_23h54.23.487,Info_measure_main_exp,2022.2.2,Win32,143.7194596,,,,,,,,,,,,,,,,,,masks/mask_001.jpg,,,,,,,,,,,,,,,,,,,,,,,,,,,,,,,,,,,,,,,,,,,,,,,,0,0,0,0,1,,,,,,,,,,,,,,,,,,,,,,,,,,,,,,,,,,,,,,,,,
775485,001,2022-11-20_23h54.23.487,Info_measure_main_exp,2022.2.2,Win32,143.7194596,,,,,,,,,,,,,,,,,,masks/mask_005.jpg,,,,,,,,,,,,,,,,,,,,,,,,,,,,,,,,,,,,,,,,,,,,,,,,0,1,1,4,1,,,,,,,,,,,,,,,,,,,,,,,,,,,,,,,,,,,,,,,,,
775485,001,2022-11-20_23h54.23.487,Info_measure_main_exp,2022.2.2,Win32,143.7194596,,,,,,,,,,,,,,,,,,masks/mask_002.jpg,,,,,,,,,,,,,,,,,,,,,,,,,,,,,,,,,,,,,,,,,,,,,,,,0,2,2,1,1,,,,,,,,,,,,,,,,,,,,,,,,,,,,,,,,,,,,,,,,,
775485,001,2022-11-20_23h54.23.487,Info_measure_main_exp,2022.2.2,Win32,143.7194596,,,,,,,,,,,,,,,,,,masks/mask_004.jpg,,,,,,,,,,,,,,,,,,,,,,,,,,,,,,,,,,,,,,,,,,,,,,,,0,3,3,3,1,,,,,,,,,,,,,,,,,,,,,,,,,,,,,,,,,,,,,,,,,
775485,001,2022-11-20_23h54.23.487,Info_measure_main_exp,2022.2.2,Win32,143.7194596,,,,,,,,,,,,,,,,,,masks/mask_003.jpg,,,,,,,,,,,,,,,,,,,,,,,,,,,,,,,,,,,,,,,,,,,,,,,,0,4,4,2,1,,,,,,,,,,,,,,,,,,,,,,,,,,,,,,,,,,,,,,,,,
775485,001,2022-11-20_23h54.23.487,Info_measure_main_exp,2022.2.2,Win32,143.7194596,,,,,,,,,,,,,,,,,,,,,,,,,,,,,,1,0.6601,1,,,,,,,,,,,,0,131,5,5,2154,2250,absent_patch/patch0002154.jpg,absent_patch/patch0002250.jpg,,,,,,,,,,,,,,,,,,,,-0.063888889,0.02962963,1,0,0,response7disk,14,0.001851852,-0.008333333,1,0,0,center_square,0,13,13,108,1,,,,,,,,,,,,,,,,,,,,,,,
775485,001,2022-11-20_23h54.23.487,Info_measure_main_exp,2022.2.2,Win32,143.7194596,,,,,,,,,,,,,,,,,,masks/mask_003.jpg,,,,,,,,,,,,,,,,,,,,,,,,,,,,,,,,,,,,,,,,,,,0,0,0,2,1,,,,,,,,,,,,,,,,,,,,,,,,,,,,,,,,,,,,,,,,,,,,,,
775485,001,2022-11-20_23h54.23.487,Info_measure_main_exp,2022.2.2,Win32,143.7194596,,,,,,,,,,,,,,,,,,masks/mask_001.jpg,,,,,,,,,,,,,,,,,,,,,,,,,,,,,,,,,,,,,,,,,,,0,1,1,0,1,,,,,,,,,,,,,,,,,,,,,,,,,,,,,,,,,,,,,,,,,,,,,,
775485,001,2022-11-20_23h54.23.487,Info_measure_main_exp,2022.2.2,Win32,143.7194596,,,,,,,,,,,,,,,,,,masks/mask_004.jpg,,,,,,,,,,,,,,,,,,,,,,,,,,,,,,,,,,,,,,,,,,,0,2,2,3,1,,,,,,,,,,,,,,,,,,,,,,,,,,,,,,,,,,,,,,,,,,,,,,
775485,001,2022-11-20_23h54.23.487,Info_measure_main_exp,2022.2.2,Win32,143.7194596,,,,,,,,,,,,,,,,,,masks/mask_005.jpg,,,,,,,,,,,,,,,,,,,,,,,,,,,,,,,,,,,,,,,,,,,0,3,3,4,1,,,,,,,,,,,,,,,,,,,,,,,,,,,,,,,,,,,,,,,,,,,,,,
775485,001,2022-11-20_23h54.23.487,Info_measure_main_exp,2022.2.2,Win32,143.7194596,,,,,,,,,,,,,,,,,,masks/mask_002.jpg,,,,,,,,,,,,,,,,,,,,,,,,,,,,,,,,,,,,,,,,,,,0,4,4,1,1,,,,,,,,,,,,,,,,,,,,,,,,,,,,,,,,,,,,,,,,,,,,,,
775485,001,2022-11-20_23h54.23.487,Info_measure_main_exp,2022.2.2,Win32,143.7194596,,,,,,,,,,,,,,,,,,masks/mask_005.jpg,,,,,,,,,,,,,,,,,,,,,,,,,,,,,,,,,,,,,,,,,,,,,,,,0,0,0,4,1,,,,,,,,,,,,,,,,,,,,,,,,,,,,,,,,,,,,,,,,,
775485,001,2022-11-20_23h54.23.487,Info_measure_main_exp,2022.2.2,Win32,143.7194596,,,,,,,,,,,,,,,,,,masks/mask_003.jpg,,,,,,,,,,,,,,,,,,,,,,,,,,,,,,,,,,,,,,,,,,,,,,,,0,1,1,2,1,,,,,,,,,,,,,,,,,,,,,,,,,,,,,,,,,,,,,,,,,
775485,001,2022-11-20_23h54.23.487,Info_measure_main_exp,2022.2.2,Win32,143.7194596,,,,,,,,,,,,,,,,,,masks/mask_004.jpg,,,,,,,,,,,,,,,,,,,,,,,,,,,,,,,,,,,,,,,,,,,,,,,,0,2,2,3,1,,,,,,,,,,,,,,,,,,,,,,,,,,,,,,,,,,,,,,,,,
775485,001,2022-11-20_23h54.23.487,Info_measure_main_exp,2022.2.2,Win32,143.7194596,,,,,,,,,,,,,,,,,,masks/mask_001.jpg,,,,,,,,,,,,,,,,,,,,,,,,,,,,,,,,,,,,,,,,,,,,,,,,0,3,3,0,1,,,,,,,,,,,,,,,,,,,,,,,,,,,,,,,,,,,,,,,,,
775485,001,2022-11-20_23h54.23.487,Info_measure_main_exp,2022.2.2,Win32,143.7194596,,,,,,,,,,,,,,,,,,masks/mask_002.jpg,,,,,,,,,,,,,,,,,,,,,,,,,,,,,,,,,,,,,,,,,,,,,,,,0,4,4,1,1,,,,,,,,,,,,,,,,,,,,,,,,,,,,,,,,,,,,,,,,,
775485,001,2022-11-20_23h54.23.487,Info_measure_main_exp,2022.2.2,Win32,143.7194596,,,,,,,,,,,,,,,,,,,,,,,,,,,,,,2,1.3129,1,,,,,,,,,,,,0,131,5,5,2274,2166,absent_patch/patch0002274.jpg,absent_patch/patch0002166.jpg,,,,,,,,,,,,,,,,,,,,-0.112037037,-0.056481481,1,0,0,response5disk,15,0,0.001851852,1,0,0,center_square,0,14,14,78,1,,,,,,,,,,,,,,,,,,,,,,,
775485,001,2022-11-20_23h54.23.487,Info_measure_main_exp,2022.2.2,Win32,143.7194596,,,,,,,,,,,,,,,,,,masks/mask_002.jpg,,,,,,,,,,,,,,,,,,,,,,,,,,,,,,,,,,,,,,,,,,,0,0,0,1,1,,,,,,,,,,,,,,,,,,,,,,,,,,,,,,,,,,,,,,,,,,,,,,
775485,001,2022-11-20_23h54.23.487,Info_measure_main_exp,2022.2.2,Win32,143.7194596,,,,,,,,,,,,,,,,,,masks/mask_005.jpg,,,,,,,,,,,,,,,,,,,,,,,,,,,,,,,,,,,,,,,,,,,0,1,1,4,1,,,,,,,,,,,,,,,,,,,,,,,,,,,,,,,,,,,,,,,,,,,,,,
775485,001,2022-11-20_23h54.23.487,Info_measure_main_exp,2022.2.2,Win32,143.7194596,,,,,,,,,,,,,,,,,,masks/mask_001.jpg,,,,,,,,,,,,,,,,,,,,,,,,,,,,,,,,,,,,,,,,,,,0,2,2,0,1,,,,,,,,,,,,,,,,,,,,,,,,,,,,,,,,,,,,,,,,,,,,,,
775485,001,2022-11-20_23h54.23.487,Info_measure_main_exp,2022.2.2,Win32,143.7194596,,,,,,,,,,,,,,,,,,masks/mask_004.jpg,,,,,,,,,,,,,,,,,,,,,,,,,,,,,,,,,,,,,,,,,,,0,3,3,3,1,,,,,,,,,,,,,,,,,,,,,,,,,,,,,,,,,,,,,,,,,,,,,,
775485,001,2022-11-20_23h54.23.487,Info_measure_main_exp,2022.2.2,Win32,143.7194596,,,,,,,,,,,,,,,,,,masks/mask_003.jpg,,,,,,,,,,,,,,,,,,,,,,,,,,,,,,,,,,,,,,,,,,,0,4,4,2,1,,,,,,,,,,,,,,,,,,,,,,,,,,,,,,,,,,,,,,,,,,,,,,
775485,001,2022-11-20_23h54.23.487,Info_measure_main_exp,2022.2.2,Win32,143.7194596,,,,,,,,,,,,,,,,,,masks/mask_003.jpg,,,,,,,,,,,,,,,,,,,,,,,,,,,,,,,,,,,,,,,,,,,,,,,,0,0,0,2,1,,,,,,,,,,,,,,,,,,,,,,,,,,,,,,,,,,,,,,,,,
775485,001,2022-11-20_23h54.23.487,Info_measure_main_exp,2022.2.2,Win32,143.7194596,,,,,,,,,,,,,,,,,,masks/mask_005.jpg,,,,,,,,,,,,,,,,,,,,,,,,,,,,,,,,,,,,,,,,,,,,,,,,0,1,1,4,1,,,,,,,,,,,,,,,,,,,,,,,,,,,,,,,,,,,,,,,,,
775485,001,2022-11-20_23h54.23.487,Info_measure_main_exp,2022.2.2,Win32,143.7194596,,,,,,,,,,,,,,,,,,masks/mask_001.jpg,,,,,,,,,,,,,,,,,,,,,,,,,,,,,,,,,,,,,,,,,,,,,,,,0,2,2,0,1,,,,,,,,,,,,,,,,,,,,,,,,,,,,,,,,,,,,,,,,,
775485,001,2022-11-20_23h54.23.487,Info_measure_main_exp,2022.2.2,Win32,143.7194596,,,,,,,,,,,,,,,,,,masks/mask_004.jpg,,,,,,,,,,,,,,,,,,,,,,,,,,,,,,,,,,,,,,,,,,,,,,,,0,3,3,3,1,,,,,,,,,,,,,,,,,,,,,,,,,,,,,,,,,,,,,,,,,
775485,001,2022-11-20_23h54.23.487,Info_measure_main_exp,2022.2.2,Win32,143.7194596,,,,,,,,,,,,,,,,,,masks/mask_002.jpg,,,,,,,,,,,,,,,,,,,,,,,,,,,,,,,,,,,,,,,,,,,,,,,,0,4,4,1,1,,,,,,,,,,,,,,,,,,,,,,,,,,,,,,,,,,,,,,,,,
775485,001,2022-11-20_23h54.23.487,Info_measure_main_exp,2022.2.2,Win32,143.7194596,,,,,,,,,,,,,,,,,,,,,,,,,,,,,,1,0.9037,1,,,,,,,,,,,,0,131,5,5,2082,1986,absent_patch/patch0002082.jpg,absent_patch/patch0001986.jpg,,,,,,,,,,,,,,,,,,,,-0.111111111,0.038888889,1,0,0,response7disk,16,0.00462963,0.006481481,1,0,0,center_square,0,15,15,94,1,,,,,,,,,,,,,,,,,,,,,,,
775485,001,2022-11-20_23h54.23.487,Info_measure_main_exp,2022.2.2,Win32,143.7194596,,,,,,,,,,,,,,,,,,masks/mask_004.jpg,,,,,,,,,,,,,,,,,,,,,,,,,,,,,,,,,,,,,,,,,,,0,0,0,3,1,,,,,,,,,,,,,,,,,,,,,,,,,,,,,,,,,,,,,,,,,,,,,,
775485,001,2022-11-20_23h54.23.487,Info_measure_main_exp,2022.2.2,Win32,143.7194596,,,,,,,,,,,,,,,,,,masks/mask_003.jpg,,,,,,,,,,,,,,,,,,,,,,,,,,,,,,,,,,,,,,,,,,,0,1,1,2,1,,,,,,,,,,,,,,,,,,,,,,,,,,,,,,,,,,,,,,,,,,,,,,
775485,001,2022-11-20_23h54.23.487,Info_measure_main_exp,2022.2.2,Win32,143.7194596,,,,,,,,,,,,,,,,,,masks/mask_002.jpg,,,,,,,,,,,,,,,,,,,,,,,,,,,,,,,,,,,,,,,,,,,0,2,2,1,1,,,,,,,,,,,,,,,,,,,,,,,,,,,,,,,,,,,,,,,,,,,,,,
775485,001,2022-11-20_23h54.23.487,Info_measure_main_exp,2022.2.2,Win32,143.7194596,,,,,,,,,,,,,,,,,,masks/mask_005.jpg,,,,,,,,,,,,,,,,,,,,,,,,,,,,,,,,,,,,,,,,,,,0,3,3,4,1,,,,,,,,,,,,,,,,,,,,,,,,,,,,,,,,,,,,,,,,,,,,,,
775485,001,2022-11-20_23h54.23.487,Info_measure_main_exp,2022.2.2,Win32,143.7194596,,,,,,,,,,,,,,,,,,masks/mask_001.jpg,,,,,,,,,,,,,,,,,,,,,,,,,,,,,,,,,,,,,,,,,,,0,4,4,0,1,,,,,,,,,,,,,,,,,,,,,,,,,,,,,,,,,,,,,,,,,,,,,,
775485,001,2022-11-20_23h54.23.487,Info_measure_main_exp,2022.2.2,Win32,143.7194596,,,,,,,,,,,,,,,,,,masks/mask_004.jpg,,,,,,,,,,,,,,,,,,,,,,,,,,,,,,,,,,,,,,,,,,,,,,,,0,0,0,3,1,,,,,,,,,,,,,,,,,,,,,,,,,,,,,,,,,,,,,,,,,
775485,001,2022-11-20_23h54.23.487,Info_measure_main_exp,2022.2.2,Win32,143.7194596,,,,,,,,,,,,,,,,,,masks/mask_002.jpg,,,,,,,,,,,,,,,,,,,,,,,,,,,,,,,,,,,,,,,,,,,,,,,,0,1,1,1,1,,,,,,,,,,,,,,,,,,,,,,,,,,,,,,,,,,,,,,,,,
775485,001,2022-11-20_23h54.23.487,Info_measure_main_exp,2022.2.2,Win32,143.7194596,,,,,,,,,,,,,,,,,,masks/mask_005.jpg,,,,,,,,,,,,,,,,,,,,,,,,,,,,,,,,,,,,,,,,,,,,,,,,0,2,2,4,1,,,,,,,,,,,,,,,,,,,,,,,,,,,,,,,,,,,,,,,,,
775485,001,2022-11-20_23h54.23.487,Info_measure_main_exp,2022.2.2,Win32,143.7194596,,,,,,,,,,,,,,,,,,masks/mask_001.jpg,,,,,,,,,,,,,,,,,,,,,,,,,,,,,,,,,,,,,,,,,,,,,,,,0,3,3,0,1,,,,,,,,,,,,,,,,,,,,,,,,,,,,,,,,,,,,,,,,,
775485,001,2022-11-20_23h54.23.487,Info_measure_main_exp,2022.2.2,Win32,143.7194596,,,,,,,,,,,,,,,,,,masks/mask_003.jpg,,,,,,,,,,,,,,,,,,,,,,,,,,,,,,,,,,,,,,,,,,,,,,,,0,4,4,2,1,,,,,,,,,,,,,,,,,,,,,,,,,,,,,,,,,,,,,,,,,
775485,001,2022-11-20_23h54.23.487,Info_measure_main_exp,2022.2.2,Win32,143.7194596,,,,,,,,,,,,,,,,,,,,,,,,,,,,,,5,1.3116,1,,,,,,,,,,,,0,131,5,5,2214,2142,absent_patch/patch0002214.jpg,absent_patch/patch0002142.jpg,,,,,,,,,,,,,,,,,,,,0.107407407,-0.017592593,1,0,0,response3disk,17,0.008333333,0.000925926,1,0,0,center_square,0,16,16,102,1,,,,,,,,,,,,,,,,,,,,,,,
775485,001,2022-11-20_23h54.23.487,Info_measure_main_exp,2022.2.2,Win32,143.7194596,,,,,,,,,,,,,,,,,,masks/mask_002.jpg,,,,,,,,,,,,,,,,,,,,,,,,,,,,,,,,,,,,,,,,,,,0,0,0,1,1,,,,,,,,,,,,,,,,,,,,,,,,,,,,,,,,,,,,,,,,,,,,,,
775485,001,2022-11-20_23h54.23.487,Info_measure_main_exp,2022.2.2,Win32,143.7194596,,,,,,,,,,,,,,,,,,masks/mask_003.jpg,,,,,,,,,,,,,,,,,,,,,,,,,,,,,,,,,,,,,,,,,,,0,1,1,2,1,,,,,,,,,,,,,,,,,,,,,,,,,,,,,,,,,,,,,,,,,,,,,,
775485,001,2022-11-20_23h54.23.487,Info_measure_main_exp,2022.2.2,Win32,143.7194596,,,,,,,,,,,,,,,,,,masks/mask_005.jpg,,,,,,,,,,,,,,,,,,,,,,,,,,,,,,,,,,,,,,,,,,,0,2,2,4,1,,,,,,,,,,,,,,,,,,,,,,,,,,,,,,,,,,,,,,,,,,,,,,
775485,001,2022-11-20_23h54.23.487,Info_measure_main_exp,2022.2.2,Win32,143.7194596,,,,,,,,,,,,,,,,,,masks/mask_001.jpg,,,,,,,,,,,,,,,,,,,,,,,,,,,,,,,,,,,,,,,,,,,0,3,3,0,1,,,,,,,,,,,,,,,,,,,,,,,,,,,,,,,,,,,,,,,,,,,,,,
775485,001,2022-11-20_23h54.23.487,Info_measure_main_exp,2022.2.2,Win32,143.7194596,,,,,,,,,,,,,,,,,,masks/mask_004.jpg,,,,,,,,,,,,,,,,,,,,,,,,,,,,,,,,,,,,,,,,,,,0,4,4,3,1,,,,,,,,,,,,,,,,,,,,,,,,,,,,,,,,,,,,,,,,,,,,,,
775485,001,2022-11-20_23h54.23.487,Info_measure_main_exp,2022.2.2,Win32,143.7194596,,,,,,,,,,,,,,,,,,masks/mask_003.jpg,,,,,,,,,,,,,,,,,,,,,,,,,,,,,,,,,,,,,,,,,,,,,,,,0,0,0,2,1,,,,,,,,,,,,,,,,,,,,,,,,,,,,,,,,,,,,,,,,,
775485,001,2022-11-20_23h54.23.487,Info_measure_main_exp,2022.2.2,Win32,143.7194596,,,,,,,,,,,,,,,,,,masks/mask_005.jpg,,,,,,,,,,,,,,,,,,,,,,,,,,,,,,,,,,,,,,,,,,,,,,,,0,1,1,4,1,,,,,,,,,,,,,,,,,,,,,,,,,,,,,,,,,,,,,,,,,
775485,001,2022-11-20_23h54.23.487,Info_measure_main_exp,2022.2.2,Win32,143.7194596,,,,,,,,,,,,,,,,,,masks/mask_002.jpg,,,,,,,,,,,,,,,,,,,,,,,,,,,,,,,,,,,,,,,,,,,,,,,,0,2,2,1,1,,,,,,,,,,,,,,,,,,,,,,,,,,,,,,,,,,,,,,,,,
775485,001,2022-11-20_23h54.23.487,Info_measure_main_exp,2022.2.2,Win32,143.7194596,,,,,,,,,,,,,,,,,,masks/mask_001.jpg,,,,,,,,,,,,,,,,,,,,,,,,,,,,,,,,,,,,,,,,,,,,,,,,0,3,3,0,1,,,,,,,,,,,,,,,,,,,,,,,,,,,,,,,,,,,,,,,,,
775485,001,2022-11-20_23h54.23.487,Info_measure_main_exp,2022.2.2,Win32,143.7194596,,,,,,,,,,,,,,,,,,masks/mask_004.jpg,,,,,,,,,,,,,,,,,,,,,,,,,,,,,,,,,,,,,,,,,,,,,,,,0,4,4,3,1,,,,,,,,,,,,,,,,,,,,,,,,,,,,,,,,,,,,,,,,,
775485,001,2022-11-20_23h54.23.487,Info_measure_main_exp,2022.2.2,Win32,143.7194596,,,,,,,,,,,,,,,,,,,,,,,,,,,,,,0,0.5908,1,,,,,,,,,,,,0,131,5,5,2190,2190,absent_patch/patch0002190.jpg,absent_patch/patch0002190.jpg,,,,,,,,,,,,,,,,,,,,-0.063888889,0.068518519,1,0,0,response7disk,18,0.007407407,-0.002777778,1,0,0,center_square,0,17,17,86,1,,,,,,,,,,,,,,,,,,,,,,,
775485,001,2022-11-20_23h54.23.487,Info_measure_main_exp,2022.2.2,Win32,143.7194596,,,,,,,,,,,,,,,,,,masks/mask_005.jpg,,,,,,,,,,,,,,,,,,,,,,,,,,,,,,,,,,,,,,,,,,,0,0,0,4,1,,,,,,,,,,,,,,,,,,,,,,,,,,,,,,,,,,,,,,,,,,,,,,
775485,001,2022-11-20_23h54.23.487,Info_measure_main_exp,2022.2.2,Win32,143.7194596,,,,,,,,,,,,,,,,,,masks/mask_003.jpg,,,,,,,,,,,,,,,,,,,,,,,,,,,,,,,,,,,,,,,,,,,0,1,1,2,1,,,,,,,,,,,,,,,,,,,,,,,,,,,,,,,,,,,,,,,,,,,,,,
775485,001,2022-11-20_23h54.23.487,Info_measure_main_exp,2022.2.2,Win32,143.7194596,,,,,,,,,,,,,,,,,,masks/mask_002.jpg,,,,,,,,,,,,,,,,,,,,,,,,,,,,,,,,,,,,,,,,,,,0,2,2,1,1,,,,,,,,,,,,,,,,,,,,,,,,,,,,,,,,,,,,,,,,,,,,,,
775485,001,2022-11-20_23h54.23.487,Info_measure_main_exp,2022.2.2,Win32,143.7194596,,,,,,,,,,,,,,,,,,masks/mask_004.jpg,,,,,,,,,,,,,,,,,,,,,,,,,,,,,,,,,,,,,,,,,,,0,3,3,3,1,,,,,,,,,,,,,,,,,,,,,,,,,,,,,,,,,,,,,,,,,,,,,,
775485,001,2022-11-20_23h54.23.487,Info_measure_main_exp,2022.2.2,Win32,143.7194596,,,,,,,,,,,,,,,,,,masks/mask_001.jpg,,,,,,,,,,,,,,,,,,,,,,,,,,,,,,,,,,,,,,,,,,,0,4,4,0,1,,,,,,,,,,,,,,,,,,,,,,,,,,,,,,,,,,,,,,,,,,,,,,
775485,001,2022-11-20_23h54.23.487,Info_measure_main_exp,2022.2.2,Win32,143.7194596,,,,,,,,,,,,,,,,,,masks/mask_002.jpg,,,,,,,,,,,,,,,,,,,,,,,,,,,,,,,,,,,,,,,,,,,,,,,,0,0,0,1,1,,,,,,,,,,,,,,,,,,,,,,,,,,,,,,,,,,,,,,,,,
775485,001,2022-11-20_23h54.23.487,Info_measure_main_exp,2022.2.2,Win32,143.7194596,,,,,,,,,,,,,,,,,,masks/mask_004.jpg,,,,,,,,,,,,,,,,,,,,,,,,,,,,,,,,,,,,,,,,,,,,,,,,0,1,1,3,1,,,,,,,,,,,,,,,,,,,,,,,,,,,,,,,,,,,,,,,,,
775485,001,2022-11-20_23h54.23.487,Info_measure_main_exp,2022.2.2,Win32,143.7194596,,,,,,,,,,,,,,,,,,masks/mask_003.jpg,,,,,,,,,,,,,,,,,,,,,,,,,,,,,,,,,,,,,,,,,,,,,,,,0,2,2,2,1,,,,,,,,,,,,,,,,,,,,,,,,,,,,,,,,,,,,,,,,,
775485,001,2022-11-20_23h54.23.487,Info_measure_main_exp,2022.2.2,Win32,143.7194596,,,,,,,,,,,,,,,,,,masks/mask_005.jpg,,,,,,,,,,,,,,,,,,,,,,,,,,,,,,,,,,,,,,,,,,,,,,,,0,3,3,4,1,,,,,,,,,,,,,,,,,,,,,,,,,,,,,,,,,,,,,,,,,
775485,001,2022-11-20_23h54.23.487,Info_measure_main_exp,2022.2.2,Win32,143.7194596,,,,,,,,,,,,,,,,,,masks/mask_001.jpg,,,,,,,,,,,,,,,,,,,,,,,,,,,,,,,,,,,,,,,,,,,,,,,,0,4,4,0,1,,,,,,,,,,,,,,,,,,,,,,,,,,,,,,,,,,,,,,,,,
775485,001,2022-11-20_23h54.23.487,Info_measure_main_exp,2022.2.2,Win32,143.7194596,,,,,,,,,,,,,,,,,,,,,,,,,,,,,,4,0.6945,1,,,,,,,,,,,,0,131,5,5,2214,2178,absent_patch/patch0002214.jpg,absent_patch/patch0002178.jpg,,,,,,,,,,,,,,,,,,,,0.061111111,-0.144444444,1,0,0,response3disk,19,0.005555556,-0.001851852,1,0,0,center_square,0,18,18,62,1,,,,,,,,,,,,,,,,,,,,,,,
775485,001,2022-11-20_23h54.23.487,Info_measure_main_exp,2022.2.2,Win32,143.7194596,,,,,,,,,,,,,,,,,,masks/mask_001.jpg,,,,,,,,,,,,,,,,,,,,,,,,,,,,,,,,,,,,,,,,,,,0,0,0,0,1,,,,,,,,,,,,,,,,,,,,,,,,,,,,,,,,,,,,,,,,,,,,,,
775485,001,2022-11-20_23h54.23.487,Info_measure_main_exp,2022.2.2,Win32,143.7194596,,,,,,,,,,,,,,,,,,masks/mask_003.jpg,,,,,,,,,,,,,,,,,,,,,,,,,,,,,,,,,,,,,,,,,,,0,1,1,2,1,,,,,,,,,,,,,,,,,,,,,,,,,,,,,,,,,,,,,,,,,,,,,,
775485,001,2022-11-20_23h54.23.487,Info_measure_main_exp,2022.2.2,Win32,143.7194596,,,,,,,,,,,,,,,,,,masks/mask_004.jpg,,,,,,,,,,,,,,,,,,,,,,,,,,,,,,,,,,,,,,,,,,,0,2,2,3,1,,,,,,,,,,,,,,,,,,,,,,,,,,,,,,,,,,,,,,,,,,,,,,
775485,001,2022-11-20_23h54.23.487,Info_measure_main_exp,2022.2.2,Win32,143.7194596,,,,,,,,,,,,,,,,,,masks/mask_002.jpg,,,,,,,,,,,,,,,,,,,,,,,,,,,,,,,,,,,,,,,,,,,0,3,3,1,1,,,,,,,,,,,,,,,,,,,,,,,,,,,,,,,,,,,,,,,,,,,,,,
775485,001,2022-11-20_23h54.23.487,Info_measure_main_exp,2022.2.2,Win32,143.7194596,,,,,,,,,,,,,,,,,,masks/mask_005.jpg,,,,,,,,,,,,,,,,,,,,,,,,,,,,,,,,,,,,,,,,,,,0,4,4,4,1,,,,,,,,,,,,,,,,,,,,,,,,,,,,,,,,,,,,,,,,,,,,,,
775485,001,2022-11-20_23h54.23.487,Info_measure_main_exp,2022.2.2,Win32,143.7194596,,,,,,,,,,,,,,,,,,masks/mask_005.jpg,,,,,,,,,,,,,,,,,,,,,,,,,,,,,,,,,,,,,,,,,,,,,,,,0,0,0,4,1,,,,,,,,,,,,,,,,,,,,,,,,,,,,,,,,,,,,,,,,,
775485,001,2022-11-20_23h54.23.487,Info_measure_main_exp,2022.2.2,Win32,143.7194596,,,,,,,,,,,,,,,,,,masks/mask_002.jpg,,,,,,,,,,,,,,,,,,,,,,,,,,,,,,,,,,,,,,,,,,,,,,,,0,1,1,1,1,,,,,,,,,,,,,,,,,,,,,,,,,,,,,,,,,,,,,,,,,
775485,001,2022-11-20_23h54.23.487,Info_measure_main_exp,2022.2.2,Win32,143.7194596,,,,,,,,,,,,,,,,,,masks/mask_003.jpg,,,,,,,,,,,,,,,,,,,,,,,,,,,,,,,,,,,,,,,,,,,,,,,,0,2,2,2,1,,,,,,,,,,,,,,,,,,,,,,,,,,,,,,,,,,,,,,,,,
775485,001,2022-11-20_23h54.23.487,Info_measure_main_exp,2022.2.2,Win32,143.7194596,,,,,,,,,,,,,,,,,,masks/mask_001.jpg,,,,,,,,,,,,,,,,,,,,,,,,,,,,,,,,,,,,,,,,,,,,,,,,0,3,3,0,1,,,,,,,,,,,,,,,,,,,,,,,,,,,,,,,,,,,,,,,,,
775485,001,2022-11-20_23h54.23.487,Info_measure_main_exp,2022.2.2,Win32,143.7194596,,,,,,,,,,,,,,,,,,masks/mask_004.jpg,,,,,,,,,,,,,,,,,,,,,,,,,,,,,,,,,,,,,,,,,,,,,,,,0,4,4,3,1,,,,,,,,,,,,,,,,,,,,,,,,,,,,,,,,,,,,,,,,,
775485,001,2022-11-20_23h54.23.487,Info_measure_main_exp,2022.2.2,Win32,143.7194596,,,,,,,,,,,,,,,,,,,,,,,,,,,,,,0,0.4308,1,,,,,,,,,,,,0,131,5,5,2178,2178,absent_patch/patch0002178.jpg,absent_patch/patch0002178.jpg,,,,,,,,,,,,,,,,,,,,-0.021296296,0.108333333,1,0,0,response7disk,20,-0.00462963,0.009259259,1,0,0,center_square,0,19,19,98,1,,,,,,,,,,,,,,,,,,,,,,,
775485,001,2022-11-20_23h54.23.487,Info_measure_main_exp,2022.2.2,Win32,143.7194596,,,,,,,,,,,,,,,,,,masks/mask_002.jpg,,,,,,,,,,,,,,,,,,,,,,,,,,,,,,,,,,,,,,,,,,,0,0,0,1,1,,,,,,,,,,,,,,,,,,,,,,,,,,,,,,,,,,,,,,,,,,,,,,
775485,001,2022-11-20_23h54.23.487,Info_measure_main_exp,2022.2.2,Win32,143.7194596,,,,,,,,,,,,,,,,,,masks/mask_004.jpg,,,,,,,,,,,,,,,,,,,,,,,,,,,,,,,,,,,,,,,,,,,0,1,1,3,1,,,,,,,,,,,,,,,,,,,,,,,,,,,,,,,,,,,,,,,,,,,,,,
775485,001,2022-11-20_23h54.23.487,Info_measure_main_exp,2022.2.2,Win32,143.7194596,,,,,,,,,,,,,,,,,,masks/mask_003.jpg,,,,,,,,,,,,,,,,,,,,,,,,,,,,,,,,,,,,,,,,,,,0,2,2,2,1,,,,,,,,,,,,,,,,,,,,,,,,,,,,,,,,,,,,,,,,,,,,,,
775485,001,2022-11-20_23h54.23.487,Info_measure_main_exp,2022.2.2,Win32,143.7194596,,,,,,,,,,,,,,,,,,masks/mask_001.jpg,,,,,,,,,,,,,,,,,,,,,,,,,,,,,,,,,,,,,,,,,,,0,3,3,0,1,,,,,,,,,,,,,,,,,,,,,,,,,,,,,,,,,,,,,,,,,,,,,,
775485,001,2022-11-20_23h54.23.487,Info_measure_main_exp,2022.2.2,Win32,143.7194596,,,,,,,,,,,,,,,,,,masks/mask_005.jpg,,,,,,,,,,,,,,,,,,,,,,,,,,,,,,,,,,,,,,,,,,,0,4,4,4,1,,,,,,,,,,,,,,,,,,,,,,,,,,,,,,,,,,,,,,,,,,,,,,
775485,001,2022-11-20_23h54.23.487,Info_measure_main_exp,2022.2.2,Win32,143.7194596,,,,,,,,,,,,,,,,,,masks/mask_001.jpg,,,,,,,,,,,,,,,,,,,,,,,,,,,,,,,,,,,,,,,,,,,,,,,,0,0,0,0,1,,,,,,,,,,,,,,,,,,,,,,,,,,,,,,,,,,,,,,,,,
775485,001,2022-11-20_23h54.23.487,Info_measure_main_exp,2022.2.2,Win32,143.7194596,,,,,,,,,,,,,,,,,,masks/mask_002.jpg,,,,,,,,,,,,,,,,,,,,,,,,,,,,,,,,,,,,,,,,,,,,,,,,0,1,1,1,1,,,,,,,,,,,,,,,,,,,,,,,,,,,,,,,,,,,,,,,,,
775485,001,2022-11-20_23h54.23.487,Info_measure_main_exp,2022.2.2,Win32,143.7194596,,,,,,,,,,,,,,,,,,masks/mask_005.jpg,,,,,,,,,,,,,,,,,,,,,,,,,,,,,,,,,,,,,,,,,,,,,,,,0,2,2,4,1,,,,,,,,,,,,,,,,,,,,,,,,,,,,,,,,,,,,,,,,,
775485,001,2022-11-20_23h54.23.487,Info_measure_main_exp,2022.2.2,Win32,143.7194596,,,,,,,,,,,,,,,,,,masks/mask_004.jpg,,,,,,,,,,,,,,,,,,,,,,,,,,,,,,,,,,,,,,,,,,,,,,,,0,3,3,3,1,,,,,,,,,,,,,,,,,,,,,,,,,,,,,,,,,,,,,,,,,
775485,001,2022-11-20_23h54.23.487,Info_measure_main_exp,2022.2.2,Win32,143.7194596,,,,,,,,,,,,,,,,,,masks/mask_003.jpg,,,,,,,,,,,,,,,,,,,,,,,,,,,,,,,,,,,,,,,,,,,,,,,,0,4,4,2,1,,,,,,,,,,,,,,,,,,,,,,,,,,,,,,,,,,,,,,,,,
775485,001,2022-11-20_23h54.23.487,Info_measure_main_exp,2022.2.2,Win32,143.7194596,,,,,,,,,,,,,,,,,,,,,,,,,,,,,,5,0.5488,1,,,,,,,,,,,,0,131,5,5,2214,2166,absent_patch/patch0002214.jpg,absent_patch/patch0002166.jpg,,,,,,,,,,,,,,,,,,,,0.136111111,-0.064814815,1,0,0,response3disk,21,-0.003703704,0.003703704,1,0,0,center_square,0,20,20,109,1,,,,,,,,,,,,,,,,,,,,,,,
775485,001,2022-11-20_23h54.23.487,Info_measure_main_exp,2022.2.2,Win32,143.7194596,,,,,,,,,,,,,,,,,,masks/mask_004.jpg,,,,,,,,,,,,,,,,,,,,,,,,,,,,,,,,,,,,,,,,,,,0,0,0,3,1,,,,,,,,,,,,,,,,,,,,,,,,,,,,,,,,,,,,,,,,,,,,,,
775485,001,2022-11-20_23h54.23.487,Info_measure_main_exp,2022.2.2,Win32,143.7194596,,,,,,,,,,,,,,,,,,masks/mask_003.jpg,,,,,,,,,,,,,,,,,,,,,,,,,,,,,,,,,,,,,,,,,,,0,1,1,2,1,,,,,,,,,,,,,,,,,,,,,,,,,,,,,,,,,,,,,,,,,,,,,,
775485,001,2022-11-20_23h54.23.487,Info_measure_main_exp,2022.2.2,Win32,143.7194596,,,,,,,,,,,,,,,,,,masks/mask_002.jpg,,,,,,,,,,,,,,,,,,,,,,,,,,,,,,,,,,,,,,,,,,,0,2,2,1,1,,,,,,,,,,,,,,,,,,,,,,,,,,,,,,,,,,,,,,,,,,,,,,
775485,001,2022-11-20_23h54.23.487,Info_measure_main_exp,2022.2.2,Win32,143.7194596,,,,,,,,,,,,,,,,,,masks/mask_005.jpg,,,,,,,,,,,,,,,,,,,,,,,,,,,,,,,,,,,,,,,,,,,0,3,3,4,1,,,,,,,,,,,,,,,,,,,,,,,,,,,,,,,,,,,,,,,,,,,,,,
775485,001,2022-11-20_23h54.23.487,Info_measure_main_exp,2022.2.2,Win32,143.7194596,,,,,,,,,,,,,,,,,,masks/mask_001.jpg,,,,,,,,,,,,,,,,,,,,,,,,,,,,,,,,,,,,,,,,,,,0,4,4,0,1,,,,,,,,,,,,,,,,,,,,,,,,,,,,,,,,,,,,,,,,,,,,,,
775485,001,2022-11-20_23h54.23.487,Info_measure_main_exp,2022.2.2,Win32,143.7194596,,,,,,,,,,,,,,,,,,masks/mask_004.jpg,,,,,,,,,,,,,,,,,,,,,,,,,,,,,,,,,,,,,,,,,,,,,,,,0,0,0,3,1,,,,,,,,,,,,,,,,,,,,,,,,,,,,,,,,,,,,,,,,,
775485,001,2022-11-20_23h54.23.487,Info_measure_main_exp,2022.2.2,Win32,143.7194596,,,,,,,,,,,,,,,,,,masks/mask_005.jpg,,,,,,,,,,,,,,,,,,,,,,,,,,,,,,,,,,,,,,,,,,,,,,,,0,1,1,4,1,,,,,,,,,,,,,,,,,,,,,,,,,,,,,,,,,,,,,,,,,
775485,001,2022-11-20_23h54.23.487,Info_measure_main_exp,2022.2.2,Win32,143.7194596,,,,,,,,,,,,,,,,,,masks/mask_001.jpg,,,,,,,,,,,,,,,,,,,,,,,,,,,,,,,,,,,,,,,,,,,,,,,,0,2,2,0,1,,,,,,,,,,,,,,,,,,,,,,,,,,,,,,,,,,,,,,,,,
775485,001,2022-11-20_23h54.23.487,Info_measure_main_exp,2022.2.2,Win32,143.7194596,,,,,,,,,,,,,,,,,,masks/mask_003.jpg,,,,,,,,,,,,,,,,,,,,,,,,,,,,,,,,,,,,,,,,,,,,,,,,0,3,3,2,1,,,,,,,,,,,,,,,,,,,,,,,,,,,,,,,,,,,,,,,,,
775485,001,2022-11-20_23h54.23.487,Info_measure_main_exp,2022.2.2,Win32,143.7194596,,,,,,,,,,,,,,,,,,masks/mask_002.jpg,,,,,,,,,,,,,,,,,,,,,,,,,,,,,,,,,,,,,,,,,,,,,,,,0,4,4,1,1,,,,,,,,,,,,,,,,,,,,,,,,,,,,,,,,,,,,,,,,,
775485,001,2022-11-20_23h54.23.487,Info_measure_main_exp,2022.2.2,Win32,143.7194596,,,,,,,,,,,,,,,,,,,,,,,,,,,,,,0,0.5823,1,,,,,,,,,,,,1,131,5,5,1,1,present_patch/cong_131_5_a.jpg,present_patch/cong_131_5_a.jpg,,,,,,,,,,,,,,,,,,,,-0.022222222,0.058333333,1,0,0,response7disk,22,-0.005555556,-0.002777778,1,0,0,center_square,0,21,21,30,1,,,,,,,,,,,,,,,,,,,,,,,
775485,001,2022-11-20_23h54.23.487,Info_measure_main_exp,2022.2.2,Win32,143.7194596,,,,,,,,,,,,,,,,,,masks/mask_003.jpg,,,,,,,,,,,,,,,,,,,,,,,,,,,,,,,,,,,,,,,,,,,0,0,0,2,1,,,,,,,,,,,,,,,,,,,,,,,,,,,,,,,,,,,,,,,,,,,,,,
775485,001,2022-11-20_23h54.23.487,Info_measure_main_exp,2022.2.2,Win32,143.7194596,,,,,,,,,,,,,,,,,,masks/mask_002.jpg,,,,,,,,,,,,,,,,,,,,,,,,,,,,,,,,,,,,,,,,,,,0,1,1,1,1,,,,,,,,,,,,,,,,,,,,,,,,,,,,,,,,,,,,,,,,,,,,,,
775485,001,2022-11-20_23h54.23.487,Info_measure_main_exp,2022.2.2,Win32,143.7194596,,,,,,,,,,,,,,,,,,masks/mask_005.jpg,,,,,,,,,,,,,,,,,,,,,,,,,,,,,,,,,,,,,,,,,,,0,2,2,4,1,,,,,,,,,,,,,,,,,,,,,,,,,,,,,,,,,,,,,,,,,,,,,,
775485,001,2022-11-20_23h54.23.487,Info_measure_main_exp,2022.2.2,Win32,143.7194596,,,,,,,,,,,,,,,,,,masks/mask_004.jpg,,,,,,,,,,,,,,,,,,,,,,,,,,,,,,,,,,,,,,,,,,,0,3,3,3,1,,,,,,,,,,,,,,,,,,,,,,,,,,,,,,,,,,,,,,,,,,,,,,
775485,001,2022-11-20_23h54.23.487,Info_measure_main_exp,2022.2.2,Win32,143.7194596,,,,,,,,,,,,,,,,,,masks/mask_001.jpg,,,,,,,,,,,,,,,,,,,,,,,,,,,,,,,,,,,,,,,,,,,0,4,4,0,1,,,,,,,,,,,,,,,,,,,,,,,,,,,,,,,,,,,,,,,,,,,,,,
775485,001,2022-11-20_23h54.23.487,Info_measure_main_exp,2022.2.2,Win32,143.7194596,,,,,,,,,,,,,,,,,,masks/mask_004.jpg,,,,,,,,,,,,,,,,,,,,,,,,,,,,,,,,,,,,,,,,,,,,,,,,0,0,0,3,1,,,,,,,,,,,,,,,,,,,,,,,,,,,,,,,,,,,,,,,,,
775485,001,2022-11-20_23h54.23.487,Info_measure_main_exp,2022.2.2,Win32,143.7194596,,,,,,,,,,,,,,,,,,masks/mask_005.jpg,,,,,,,,,,,,,,,,,,,,,,,,,,,,,,,,,,,,,,,,,,,,,,,,0,1,1,4,1,,,,,,,,,,,,,,,,,,,,,,,,,,,,,,,,,,,,,,,,,
775485,001,2022-11-20_23h54.23.487,Info_measure_main_exp,2022.2.2,Win32,143.7194596,,,,,,,,,,,,,,,,,,masks/mask_001.jpg,,,,,,,,,,,,,,,,,,,,,,,,,,,,,,,,,,,,,,,,,,,,,,,,0,2,2,0,1,,,,,,,,,,,,,,,,,,,,,,,,,,,,,,,,,,,,,,,,,
775485,001,2022-11-20_23h54.23.487,Info_measure_main_exp,2022.2.2,Win32,143.7194596,,,,,,,,,,,,,,,,,,masks/mask_002.jpg,,,,,,,,,,,,,,,,,,,,,,,,,,,,,,,,,,,,,,,,,,,,,,,,0,3,3,1,1,,,,,,,,,,,,,,,,,,,,,,,,,,,,,,,,,,,,,,,,,
775485,001,2022-11-20_23h54.23.487,Info_measure_main_exp,2022.2.2,Win32,143.7194596,,,,,,,,,,,,,,,,,,masks/mask_003.jpg,,,,,,,,,,,,,,,,,,,,,,,,,,,,,,,,,,,,,,,,,,,,,,,,0,4,4,2,1,,,,,,,,,,,,,,,,,,,,,,,,,,,,,,,,,,,,,,,,,
775485,001,2022-11-20_23h54.23.487,Info_measure_main_exp,2022.2.2,Win32,143.7194596,,,,,,,,,,,,,,,,,,,,,,,,,,,,,,6,2.0154,1,,,,,,,,,,,,0,131,5,5,2142,2154,absent_patch/patch0002142.jpg,absent_patch/patch0002154.jpg,,,,,,,,,,,,,,,,,,,,0.103703704,0.012037037,1,0,0,response1disk,23,-0.003703704,0.005555556,1,0,0,center_square,0,22,22,9,1,,,,,,,,,,,,,,,,,,,,,,,
775485,001,2022-11-20_23h54.23.487,Info_measure_main_exp,2022.2.2,Win32,143.7194596,,,,,,,,,,,,,,,,,,masks/mask_002.jpg,,,,,,,,,,,,,,,,,,,,,,,,,,,,,,,,,,,,,,,,,,,0,0,0,1,1,,,,,,,,,,,,,,,,,,,,,,,,,,,,,,,,,,,,,,,,,,,,,,
775485,001,2022-11-20_23h54.23.487,Info_measure_main_exp,2022.2.2,Win32,143.7194596,,,,,,,,,,,,,,,,,,masks/mask_005.jpg,,,,,,,,,,,,,,,,,,,,,,,,,,,,,,,,,,,,,,,,,,,0,1,1,4,1,,,,,,,,,,,,,,,,,,,,,,,,,,,,,,,,,,,,,,,,,,,,,,
775485,001,2022-11-20_23h54.23.487,Info_measure_main_exp,2022.2.2,Win32,143.7194596,,,,,,,,,,,,,,,,,,masks/mask_003.jpg,,,,,,,,,,,,,,,,,,,,,,,,,,,,,,,,,,,,,,,,,,,0,2,2,2,1,,,,,,,,,,,,,,,,,,,,,,,,,,,,,,,,,,,,,,,,,,,,,,
775485,001,2022-11-20_23h54.23.487,Info_measure_main_exp,2022.2.2,Win32,143.7194596,,,,,,,,,,,,,,,,,,masks/mask_004.jpg,,,,,,,,,,,,,,,,,,,,,,,,,,,,,,,,,,,,,,,,,,,0,3,3,3,1,,,,,,,,,,,,,,,,,,,,,,,,,,,,,,,,,,,,,,,,,,,,,,
775485,001,2022-11-20_23h54.23.487,Info_measure_main_exp,2022.2.2,Win32,143.7194596,,,,,,,,,,,,,,,,,,masks/mask_001.jpg,,,,,,,,,,,,,,,,,,,,,,,,,,,,,,,,,,,,,,,,,,,0,4,4,0,1,,,,,,,,,,,,,,,,,,,,,,,,,,,,,,,,,,,,,,,,,,,,,,
775485,001,2022-11-20_23h54.23.487,Info_measure_main_exp,2022.2.2,Win32,143.7194596,,,,,,,,,,,,,,,,,,masks/mask_003.jpg,,,,,,,,,,,,,,,,,,,,,,,,,,,,,,,,,,,,,,,,,,,,,,,,0,0,0,2,1,,,,,,,,,,,,,,,,,,,,,,,,,,,,,,,,,,,,,,,,,
775485,001,2022-11-20_23h54.23.487,Info_measure_main_exp,2022.2.2,Win32,143.7194596,,,,,,,,,,,,,,,,,,masks/mask_004.jpg,,,,,,,,,,,,,,,,,,,,,,,,,,,,,,,,,,,,,,,,,,,,,,,,0,1,1,3,1,,,,,,,,,,,,,,,,,,,,,,,,,,,,,,,,,,,,,,,,,
775485,001,2022-11-20_23h54.23.487,Info_measure_main_exp,2022.2.2,Win32,143.7194596,,,,,,,,,,,,,,,,,,masks/mask_002.jpg,,,,,,,,,,,,,,,,,,,,,,,,,,,,,,,,,,,,,,,,,,,,,,,,0,2,2,1,1,,,,,,,,,,,,,,,,,,,,,,,,,,,,,,,,,,,,,,,,,
775485,001,2022-11-20_23h54.23.487,Info_measure_main_exp,2022.2.2,Win32,143.7194596,,,,,,,,,,,,,,,,,,masks/mask_001.jpg,,,,,,,,,,,,,,,,,,,,,,,,,,,,,,,,,,,,,,,,,,,,,,,,0,3,3,0,1,,,,,,,,,,,,,,,,,,,,,,,,,,,,,,,,,,,,,,,,,
775485,001,2022-11-20_23h54.23.487,Info_measure_main_exp,2022.2.2,Win32,143.7194596,,,,,,,,,,,,,,,,,,masks/mask_005.jpg,,,,,,,,,,,,,,,,,,,,,,,,,,,,,,,,,,,,,,,,,,,,,,,,0,4,4,4,1,,,,,,,,,,,,,,,,,,,,,,,,,,,,,,,,,,,,,,,,,
775485,001,2022-11-20_23h54.23.487,Info_measure_main_exp,2022.2.2,Win32,143.7194596,,,,,,,,,,,,,,,,,,,,,,,,,,,,,,4,1.6379,1,,,,,,,,,,,,0,131,5,5,2298,2178,absent_patch/patch0002298.jpg,absent_patch/patch0002178.jpg,,,,,,,,,,,,,,,,,,,,0.026851852,-0.115740741,1,0,0,response3disk,24,0.001851852,-0.001851852,1,0,0,center_square,0,23,23,84,1,,,,,,,,,,,,,,,,,,,,,,,
775485,001,2022-11-20_23h54.23.487,Info_measure_main_exp,2022.2.2,Win32,143.7194596,,,,,,,,,,,,,,,,,,masks/mask_001.jpg,,,,,,,,,,,,,,,,,,,,,,,,,,,,,,,,,,,,,,,,,,,0,0,0,0,1,,,,,,,,,,,,,,,,,,,,,,,,,,,,,,,,,,,,,,,,,,,,,,
775485,001,2022-11-20_23h54.23.487,Info_measure_main_exp,2022.2.2,Win32,143.7194596,,,,,,,,,,,,,,,,,,masks/mask_003.jpg,,,,,,,,,,,,,,,,,,,,,,,,,,,,,,,,,,,,,,,,,,,0,1,1,2,1,,,,,,,,,,,,,,,,,,,,,,,,,,,,,,,,,,,,,,,,,,,,,,
775485,001,2022-11-20_23h54.23.487,Info_measure_main_exp,2022.2.2,Win32,143.7194596,,,,,,,,,,,,,,,,,,masks/mask_004.jpg,,,,,,,,,,,,,,,,,,,,,,,,,,,,,,,,,,,,,,,,,,,0,2,2,3,1,,,,,,,,,,,,,,,,,,,,,,,,,,,,,,,,,,,,,,,,,,,,,,
775485,001,2022-11-20_23h54.23.487,Info_measure_main_exp,2022.2.2,Win32,143.7194596,,,,,,,,,,,,,,,,,,masks/mask_005.jpg,,,,,,,,,,,,,,,,,,,,,,,,,,,,,,,,,,,,,,,,,,,0,3,3,4,1,,,,,,,,,,,,,,,,,,,,,,,,,,,,,,,,,,,,,,,,,,,,,,
775485,001,2022-11-20_23h54.23.487,Info_measure_main_exp,2022.2.2,Win32,143.7194596,,,,,,,,,,,,,,,,,,masks/mask_002.jpg,,,,,,,,,,,,,,,,,,,,,,,,,,,,,,,,,,,,,,,,,,,0,4,4,1,1,,,,,,,,,,,,,,,,,,,,,,,,,,,,,,,,,,,,,,,,,,,,,,
775485,001,2022-11-20_23h54.23.487,Info_measure_main_exp,2022.2.2,Win32,143.7194596,,,,,,,,,,,,,,,,,,masks/mask_001.jpg,,,,,,,,,,,,,,,,,,,,,,,,,,,,,,,,,,,,,,,,,,,,,,,,0,0,0,0,1,,,,,,,,,,,,,,,,,,,,,,,,,,,,,,,,,,,,,,,,,
775485,001,2022-11-20_23h54.23.487,Info_measure_main_exp,2022.2.2,Win32,143.7194596,,,,,,,,,,,,,,,,,,masks/mask_002.jpg,,,,,,,,,,,,,,,,,,,,,,,,,,,,,,,,,,,,,,,,,,,,,,,,0,1,1,1,1,,,,,,,,,,,,,,,,,,,,,,,,,,,,,,,,,,,,,,,,,
775485,001,2022-11-20_23h54.23.487,Info_measure_main_exp,2022.2.2,Win32,143.7194596,,,,,,,,,,,,,,,,,,masks/mask_005.jpg,,,,,,,,,,,,,,,,,,,,,,,,,,,,,,,,,,,,,,,,,,,,,,,,0,2,2,4,1,,,,,,,,,,,,,,,,,,,,,,,,,,,,,,,,,,,,,,,,,
775485,001,2022-11-20_23h54.23.487,Info_measure_main_exp,2022.2.2,Win32,143.7194596,,,,,,,,,,,,,,,,,,masks/mask_003.jpg,,,,,,,,,,,,,,,,,,,,,,,,,,,,,,,,,,,,,,,,,,,,,,,,0,3,3,2,1,,,,,,,,,,,,,,,,,,,,,,,,,,,,,,,,,,,,,,,,,
775485,001,2022-11-20_23h54.23.487,Info_measure_main_exp,2022.2.2,Win32,143.7194596,,,,,,,,,,,,,,,,,,masks/mask_004.jpg,,,,,,,,,,,,,,,,,,,,,,,,,,,,,,,,,,,,,,,,,,,,,,,,0,4,4,3,1,,,,,,,,,,,,,,,,,,,,,,,,,,,,,,,,,,,,,,,,,
775485,001,2022-11-20_23h54.23.487,Info_measure_main_exp,2022.2.2,Win32,143.7194596,,,,,,,,,,,,,,,,,,,,,,,,,,,,,,3,2.5215,1,,,,,,,,,,,,0,131,5,5,2274,2238,absent_patch/patch0002274.jpg,absent_patch/patch0002238.jpg,,,,,,,,,,,,,,,,,,,,-0.035185185,-0.109259259,1,0,0,response5disk,25,-0.003703704,-0.000925926,1,0,0,center_square,0,24,24,91,1,,,,,,,,,,,,,,,,,,,,,,,
775485,001,2022-11-20_23h54.23.487,Info_measure_main_exp,2022.2.2,Win32,143.7194596,,,,,,,,,,,,,,,,,,masks/mask_003.jpg,,,,,,,,,,,,,,,,,,,,,,,,,,,,,,,,,,,,,,,,,,,0,0,0,2,1,,,,,,,,,,,,,,,,,,,,,,,,,,,,,,,,,,,,,,,,,,,,,,
775485,001,2022-11-20_23h54.23.487,Info_measure_main_exp,2022.2.2,Win32,143.7194596,,,,,,,,,,,,,,,,,,masks/mask_005.jpg,,,,,,,,,,,,,,,,,,,,,,,,,,,,,,,,,,,,,,,,,,,0,1,1,4,1,,,,,,,,,,,,,,,,,,,,,,,,,,,,,,,,,,,,,,,,,,,,,,
775485,001,2022-11-20_23h54.23.487,Info_measure_main_exp,2022.2.2,Win32,143.7194596,,,,,,,,,,,,,,,,,,masks/mask_002.jpg,,,,,,,,,,,,,,,,,,,,,,,,,,,,,,,,,,,,,,,,,,,0,2,2,1,1,,,,,,,,,,,,,,,,,,,,,,,,,,,,,,,,,,,,,,,,,,,,,,
775485,001,2022-11-20_23h54.23.487,Info_measure_main_exp,2022.2.2,Win32,143.7194596,,,,,,,,,,,,,,,,,,masks/mask_004.jpg,,,,,,,,,,,,,,,,,,,,,,,,,,,,,,,,,,,,,,,,,,,0,3,3,3,1,,,,,,,,,,,,,,,,,,,,,,,,,,,,,,,,,,,,,,,,,,,,,,
775485,001,2022-11-20_23h54.23.487,Info_measure_main_exp,2022.2.2,Win32,143.7194596,,,,,,,,,,,,,,,,,,masks/mask_001.jpg,,,,,,,,,,,,,,,,,,,,,,,,,,,,,,,,,,,,,,,,,,,0,4,4,0,1,,,,,,,,,,,,,,,,,,,,,,,,,,,,,,,,,,,,,,,,,,,,,,
775485,001,2022-11-20_23h54.23.487,Info_measure_main_exp,2022.2.2,Win32,143.7194596,,,,,,,,,,,,,,,,,,masks/mask_004.jpg,,,,,,,,,,,,,,,,,,,,,,,,,,,,,,,,,,,,,,,,,,,,,,,,0,0,0,3,1,,,,,,,,,,,,,,,,,,,,,,,,,,,,,,,,,,,,,,,,,
775485,001,2022-11-20_23h54.23.487,Info_measure_main_exp,2022.2.2,Win32,143.7194596,,,,,,,,,,,,,,,,,,masks/mask_001.jpg,,,,,,,,,,,,,,,,,,,,,,,,,,,,,,,,,,,,,,,,,,,,,,,,0,1,1,0,1,,,,,,,,,,,,,,,,,,,,,,,,,,,,,,,,,,,,,,,,,
775485,001,2022-11-20_23h54.23.487,Info_measure_main_exp,2022.2.2,Win32,143.7194596,,,,,,,,,,,,,,,,,,masks/mask_003.jpg,,,,,,,,,,,,,,,,,,,,,,,,,,,,,,,,,,,,,,,,,,,,,,,,0,2,2,2,1,,,,,,,,,,,,,,,,,,,,,,,,,,,,,,,,,,,,,,,,,
775485,001,2022-11-20_23h54.23.487,Info_measure_main_exp,2022.2.2,Win32,143.7194596,,,,,,,,,,,,,,,,,,masks/mask_002.jpg,,,,,,,,,,,,,,,,,,,,,,,,,,,,,,,,,,,,,,,,,,,,,,,,0,3,3,1,1,,,,,,,,,,,,,,,,,,,,,,,,,,,,,,,,,,,,,,,,,
775485,001,2022-11-20_23h54.23.487,Info_measure_main_exp,2022.2.2,Win32,143.7194596,,,,,,,,,,,,,,,,,,masks/mask_005.jpg,,,,,,,,,,,,,,,,,,,,,,,,,,,,,,,,,,,,,,,,,,,,,,,,0,4,4,4,1,,,,,,,,,,,,,,,,,,,,,,,,,,,,,,,,,,,,,,,,,
775485,001,2022-11-20_23h54.23.487,Info_measure_main_exp,2022.2.2,Win32,143.7194596,,,,,,,,,,,,,,,,,,,,,,,,,,,,,,4,0.896,1,,,,,,,,,,,,0,131,5,5,2142,2238,absent_patch/patch0002142.jpg,absent_patch/patch0002238.jpg,,,,,,,,,,,,,,,,,,,,0.012962963,-0.09537037,1,0,0,response3disk,26,0.000925926,-0.001851852,1,0,0,center_square,0,25,25,101,1,,,,,,,,,,,,,,,,,,,,,,,
775485,001,2022-11-20_23h54.23.487,Info_measure_main_exp,2022.2.2,Win32,143.7194596,,,,,,,,,,,,,,,,,,masks/mask_005.jpg,,,,,,,,,,,,,,,,,,,,,,,,,,,,,,,,,,,,,,,,,,,0,0,0,4,1,,,,,,,,,,,,,,,,,,,,,,,,,,,,,,,,,,,,,,,,,,,,,,
775485,001,2022-11-20_23h54.23.487,Info_measure_main_exp,2022.2.2,Win32,143.7194596,,,,,,,,,,,,,,,,,,masks/mask_001.jpg,,,,,,,,,,,,,,,,,,,,,,,,,,,,,,,,,,,,,,,,,,,0,1,1,0,1,,,,,,,,,,,,,,,,,,,,,,,,,,,,,,,,,,,,,,,,,,,,,,
775485,001,2022-11-20_23h54.23.487,Info_measure_main_exp,2022.2.2,Win32,143.7194596,,,,,,,,,,,,,,,,,,masks/mask_003.jpg,,,,,,,,,,,,,,,,,,,,,,,,,,,,,,,,,,,,,,,,,,,0,2,2,2,1,,,,,,,,,,,,,,,,,,,,,,,,,,,,,,,,,,,,,,,,,,,,,,
775485,001,2022-11-20_23h54.23.487,Info_measure_main_exp,2022.2.2,Win32,143.7194596,,,,,,,,,,,,,,,,,,masks/mask_002.jpg,,,,,,,,,,,,,,,,,,,,,,,,,,,,,,,,,,,,,,,,,,,0,3,3,1,1,,,,,,,,,,,,,,,,,,,,,,,,,,,,,,,,,,,,,,,,,,,,,,
775485,001,2022-11-20_23h54.23.487,Info_measure_main_exp,2022.2.2,Win32,143.7194596,,,,,,,,,,,,,,,,,,masks/mask_004.jpg,,,,,,,,,,,,,,,,,,,,,,,,,,,,,,,,,,,,,,,,,,,0,4,4,3,1,,,,,,,,,,,,,,,,,,,,,,,,,,,,,,,,,,,,,,,,,,,,,,
775485,001,2022-11-20_23h54.23.487,Info_measure_main_exp,2022.2.2,Win32,143.7194596,,,,,,,,,,,,,,,,,,masks/mask_004.jpg,,,,,,,,,,,,,,,,,,,,,,,,,,,,,,,,,,,,,,,,,,,,,,,,0,0,0,3,1,,,,,,,,,,,,,,,,,,,,,,,,,,,,,,,,,,,,,,,,,
775485,001,2022-11-20_23h54.23.487,Info_measure_main_exp,2022.2.2,Win32,143.7194596,,,,,,,,,,,,,,,,,,masks/mask_002.jpg,,,,,,,,,,,,,,,,,,,,,,,,,,,,,,,,,,,,,,,,,,,,,,,,0,1,1,1,1,,,,,,,,,,,,,,,,,,,,,,,,,,,,,,,,,,,,,,,,,
775485,001,2022-11-20_23h54.23.487,Info_measure_main_exp,2022.2.2,Win32,143.7194596,,,,,,,,,,,,,,,,,,masks/mask_005.jpg,,,,,,,,,,,,,,,,,,,,,,,,,,,,,,,,,,,,,,,,,,,,,,,,0,2,2,4,1,,,,,,,,,,,,,,,,,,,,,,,,,,,,,,,,,,,,,,,,,
775485,001,2022-11-20_23h54.23.487,Info_measure_main_exp,2022.2.2,Win32,143.7194596,,,,,,,,,,,,,,,,,,masks/mask_003.jpg,,,,,,,,,,,,,,,,,,,,,,,,,,,,,,,,,,,,,,,,,,,,,,,,0,3,3,2,1,,,,,,,,,,,,,,,,,,,,,,,,,,,,,,,,,,,,,,,,,
775485,001,2022-11-20_23h54.23.487,Info_measure_main_exp,2022.2.2,Win32,143.7194596,,,,,,,,,,,,,,,,,,masks/mask_001.jpg,,,,,,,,,,,,,,,,,,,,,,,,,,,,,,,,,,,,,,,,,,,,,,,,0,4,4,0,1,,,,,,,,,,,,,,,,,,,,,,,,,,,,,,,,,,,,,,,,,
775485,001,2022-11-20_23h54.23.487,Info_measure_main_exp,2022.2.2,Win32,143.7194596,,,,,,,,,,,,,,,,,,,,,,,,,,,,,,0,0.3731,1,,,,,,,,,,,,0,131,5,5,2238,2238,absent_patch/patch0002238.jpg,absent_patch/patch0002238.jpg,,,,,,,,,,,,,,,,,,,,-0.02962963,0.084259259,1,0,0,response7disk,27,0.00462963,0.008333333,1,0,0,center_square,0,26,26,58,1,,,,,,,,,,,,,,,,,,,,,,,
775485,001,2022-11-20_23h54.23.487,Info_measure_main_exp,2022.2.2,Win32,143.7194596,,,,,,,,,,,,,,,,,,masks/mask_004.jpg,,,,,,,,,,,,,,,,,,,,,,,,,,,,,,,,,,,,,,,,,,,0,0,0,3,1,,,,,,,,,,,,,,,,,,,,,,,,,,,,,,,,,,,,,,,,,,,,,,
775485,001,2022-11-20_23h54.23.487,Info_measure_main_exp,2022.2.2,Win32,143.7194596,,,,,,,,,,,,,,,,,,masks/mask_003.jpg,,,,,,,,,,,,,,,,,,,,,,,,,,,,,,,,,,,,,,,,,,,0,1,1,2,1,,,,,,,,,,,,,,,,,,,,,,,,,,,,,,,,,,,,,,,,,,,,,,
775485,001,2022-11-20_23h54.23.487,Info_measure_main_exp,2022.2.2,Win32,143.7194596,,,,,,,,,,,,,,,,,,masks/mask_005.jpg,,,,,,,,,,,,,,,,,,,,,,,,,,,,,,,,,,,,,,,,,,,0,2,2,4,1,,,,,,,,,,,,,,,,,,,,,,,,,,,,,,,,,,,,,,,,,,,,,,
775485,001,2022-11-20_23h54.23.487,Info_measure_main_exp,2022.2.2,Win32,143.7194596,,,,,,,,,,,,,,,,,,masks/mask_001.jpg,,,,,,,,,,,,,,,,,,,,,,,,,,,,,,,,,,,,,,,,,,,0,3,3,0,1,,,,,,,,,,,,,,,,,,,,,,,,,,,,,,,,,,,,,,,,,,,,,,
775485,001,2022-11-20_23h54.23.487,Info_measure_main_exp,2022.2.2,Win32,143.7194596,,,,,,,,,,,,,,,,,,masks/mask_002.jpg,,,,,,,,,,,,,,,,,,,,,,,,,,,,,,,,,,,,,,,,,,,0,4,4,1,1,,,,,,,,,,,,,,,,,,,,,,,,,,,,,,,,,,,,,,,,,,,,,,
775485,001,2022-11-20_23h54.23.487,Info_measure_main_exp,2022.2.2,Win32,143.7194596,,,,,,,,,,,,,,,,,,masks/mask_004.jpg,,,,,,,,,,,,,,,,,,,,,,,,,,,,,,,,,,,,,,,,,,,,,,,,0,0,0,3,1,,,,,,,,,,,,,,,,,,,,,,,,,,,,,,,,,,,,,,,,,
775485,001,2022-11-20_23h54.23.487,Info_measure_main_exp,2022.2.2,Win32,143.7194596,,,,,,,,,,,,,,,,,,masks/mask_002.jpg,,,,,,,,,,,,,,,,,,,,,,,,,,,,,,,,,,,,,,,,,,,,,,,,0,1,1,1,1,,,,,,,,,,,,,,,,,,,,,,,,,,,,,,,,,,,,,,,,,
775485,001,2022-11-20_23h54.23.487,Info_measure_main_exp,2022.2.2,Win32,143.7194596,,,,,,,,,,,,,,,,,,masks/mask_001.jpg,,,,,,,,,,,,,,,,,,,,,,,,,,,,,,,,,,,,,,,,,,,,,,,,0,2,2,0,1,,,,,,,,,,,,,,,,,,,,,,,,,,,,,,,,,,,,,,,,,
775485,001,2022-11-20_23h54.23.487,Info_measure_main_exp,2022.2.2,Win32,143.7194596,,,,,,,,,,,,,,,,,,masks/mask_003.jpg,,,,,,,,,,,,,,,,,,,,,,,,,,,,,,,,,,,,,,,,,,,,,,,,0,3,3,2,1,,,,,,,,,,,,,,,,,,,,,,,,,,,,,,,,,,,,,,,,,
775485,001,2022-11-20_23h54.23.487,Info_measure_main_exp,2022.2.2,Win32,143.7194596,,,,,,,,,,,,,,,,,,masks/mask_005.jpg,,,,,,,,,,,,,,,,,,,,,,,,,,,,,,,,,,,,,,,,,,,,,,,,0,4,4,4,1,,,,,,,,,,,,,,,,,,,,,,,,,,,,,,,,,,,,,,,,,
775485,001,2022-11-20_23h54.23.487,Info_measure_main_exp,2022.2.2,Win32,143.7194596,,,,,,,,,,,,,,,,,,,,,,,,,,,,,,5,0.9033,1,,,,,,,,,,,,0,131,5,5,2274,2142,absent_patch/patch0002274.jpg,absent_patch/patch0002142.jpg,,,,,,,,,,,,,,,,,,,,0.103703704,-0.063888889,1,0,0,response3disk,28,0.009259259,0.005555556,1,0,0,center_square,0,27,27,75,1,,,,,,,,,,,,,,,,,,,,,,,
775485,001,2022-11-20_23h54.23.487,Info_measure_main_exp,2022.2.2,Win32,143.7194596,,,,,,,,,,,,,,,,,,masks/mask_003.jpg,,,,,,,,,,,,,,,,,,,,,,,,,,,,,,,,,,,,,,,,,,,0,0,0,2,1,,,,,,,,,,,,,,,,,,,,,,,,,,,,,,,,,,,,,,,,,,,,,,
775485,001,2022-11-20_23h54.23.487,Info_measure_main_exp,2022.2.2,Win32,143.7194596,,,,,,,,,,,,,,,,,,masks/mask_004.jpg,,,,,,,,,,,,,,,,,,,,,,,,,,,,,,,,,,,,,,,,,,,0,1,1,3,1,,,,,,,,,,,,,,,,,,,,,,,,,,,,,,,,,,,,,,,,,,,,,,
775485,001,2022-11-20_23h54.23.487,Info_measure_main_exp,2022.2.2,Win32,143.7194596,,,,,,,,,,,,,,,,,,masks/mask_001.jpg,,,,,,,,,,,,,,,,,,,,,,,,,,,,,,,,,,,,,,,,,,,0,2,2,0,1,,,,,,,,,,,,,,,,,,,,,,,,,,,,,,,,,,,,,,,,,,,,,,
775485,001,2022-11-20_23h54.23.487,Info_measure_main_exp,2022.2.2,Win32,143.7194596,,,,,,,,,,,,,,,,,,masks/mask_002.jpg,,,,,,,,,,,,,,,,,,,,,,,,,,,,,,,,,,,,,,,,,,,0,3,3,1,1,,,,,,,,,,,,,,,,,,,,,,,,,,,,,,,,,,,,,,,,,,,,,,
775485,001,2022-11-20_23h54.23.487,Info_measure_main_exp,2022.2.2,Win32,143.7194596,,,,,,,,,,,,,,,,,,masks/mask_005.jpg,,,,,,,,,,,,,,,,,,,,,,,,,,,,,,,,,,,,,,,,,,,0,4,4,4,1,,,,,,,,,,,,,,,,,,,,,,,,,,,,,,,,,,,,,,,,,,,,,,
775485,001,2022-11-20_23h54.23.487,Info_measure_main_exp,2022.2.2,Win32,143.7194596,,,,,,,,,,,,,,,,,,masks/mask_003.jpg,,,,,,,,,,,,,,,,,,,,,,,,,,,,,,,,,,,,,,,,,,,,,,,,0,0,0,2,1,,,,,,,,,,,,,,,,,,,,,,,,,,,,,,,,,,,,,,,,,
775485,001,2022-11-20_23h54.23.487,Info_measure_main_exp,2022.2.2,Win32,143.7194596,,,,,,,,,,,,,,,,,,masks/mask_004.jpg,,,,,,,,,,,,,,,,,,,,,,,,,,,,,,,,,,,,,,,,,,,,,,,,0,1,1,3,1,,,,,,,,,,,,,,,,,,,,,,,,,,,,,,,,,,,,,,,,,
775485,001,2022-11-20_23h54.23.487,Info_measure_main_exp,2022.2.2,Win32,143.7194596,,,,,,,,,,,,,,,,,,masks/mask_005.jpg,,,,,,,,,,,,,,,,,,,,,,,,,,,,,,,,,,,,,,,,,,,,,,,,0,2,2,4,1,,,,,,,,,,,,,,,,,,,,,,,,,,,,,,,,,,,,,,,,,
775485,001,2022-11-20_23h54.23.487,Info_measure_main_exp,2022.2.2,Win32,143.7194596,,,,,,,,,,,,,,,,,,masks/mask_001.jpg,,,,,,,,,,,,,,,,,,,,,,,,,,,,,,,,,,,,,,,,,,,,,,,,0,3,3,0,1,,,,,,,,,,,,,,,,,,,,,,,,,,,,,,,,,,,,,,,,,
775485,001,2022-11-20_23h54.23.487,Info_measure_main_exp,2022.2.2,Win32,143.7194596,,,,,,,,,,,,,,,,,,masks/mask_002.jpg,,,,,,,,,,,,,,,,,,,,,,,,,,,,,,,,,,,,,,,,,,,,,,,,0,4,4,1,1,,,,,,,,,,,,,,,,,,,,,,,,,,,,,,,,,,,,,,,,,
775485,001,2022-11-20_23h54.23.487,Info_measure_main_exp,2022.2.2,Win32,143.7194596,,,,,,,,,,,,,,,,,,,,,,,,,,,,,,0,0.4663,1,,,,,,,,,,,,0,131,5,5,2214,2214,absent_patch/patch0002214.jpg,absent_patch/patch0002214.jpg,,,,,,,,,,,,,,,,,,,,-0.026851852,0.080555556,1,0,0,response7disk,29,0.00462963,0.001851852,1,0,0,center_square,0,28,28,115,1,,,,,,,,,,,,,,,,,,,,,,,
775485,001,2022-11-20_23h54.23.487,Info_measure_main_exp,2022.2.2,Win32,143.7194596,,,,,,,,,,,,,,,,,,masks/mask_002.jpg,,,,,,,,,,,,,,,,,,,,,,,,,,,,,,,,,,,,,,,,,,,0,0,0,1,1,,,,,,,,,,,,,,,,,,,,,,,,,,,,,,,,,,,,,,,,,,,,,,
775485,001,2022-11-20_23h54.23.487,Info_measure_main_exp,2022.2.2,Win32,143.7194596,,,,,,,,,,,,,,,,,,masks/mask_005.jpg,,,,,,,,,,,,,,,,,,,,,,,,,,,,,,,,,,,,,,,,,,,0,1,1,4,1,,,,,,,,,,,,,,,,,,,,,,,,,,,,,,,,,,,,,,,,,,,,,,
775485,001,2022-11-20_23h54.23.487,Info_measure_main_exp,2022.2.2,Win32,143.7194596,,,,,,,,,,,,,,,,,,masks/mask_004.jpg,,,,,,,,,,,,,,,,,,,,,,,,,,,,,,,,,,,,,,,,,,,0,2,2,3,1,,,,,,,,,,,,,,,,,,,,,,,,,,,,,,,,,,,,,,,,,,,,,,
775485,001,2022-11-20_23h54.23.487,Info_measure_main_exp,2022.2.2,Win32,143.7194596,,,,,,,,,,,,,,,,,,masks/mask_001.jpg,,,,,,,,,,,,,,,,,,,,,,,,,,,,,,,,,,,,,,,,,,,0,3,3,0,1,,,,,,,,,,,,,,,,,,,,,,,,,,,,,,,,,,,,,,,,,,,,,,
775485,001,2022-11-20_23h54.23.487,Info_measure_main_exp,2022.2.2,Win32,143.7194596,,,,,,,,,,,,,,,,,,masks/mask_003.jpg,,,,,,,,,,,,,,,,,,,,,,,,,,,,,,,,,,,,,,,,,,,0,4,4,2,1,,,,,,,,,,,,,,,,,,,,,,,,,,,,,,,,,,,,,,,,,,,,,,
775485,001,2022-11-20_23h54.23.487,Info_measure_main_exp,2022.2.2,Win32,143.7194596,,,,,,,,,,,,,,,,,,masks/mask_002.jpg,,,,,,,,,,,,,,,,,,,,,,,,,,,,,,,,,,,,,,,,,,,,,,,,0,0,0,1,1,,,,,,,,,,,,,,,,,,,,,,,,,,,,,,,,,,,,,,,,,
775485,001,2022-11-20_23h54.23.487,Info_measure_main_exp,2022.2.2,Win32,143.7194596,,,,,,,,,,,,,,,,,,masks/mask_005.jpg,,,,,,,,,,,,,,,,,,,,,,,,,,,,,,,,,,,,,,,,,,,,,,,,0,1,1,4,1,,,,,,,,,,,,,,,,,,,,,,,,,,,,,,,,,,,,,,,,,
775485,001,2022-11-20_23h54.23.487,Info_measure_main_exp,2022.2.2,Win32,143.7194596,,,,,,,,,,,,,,,,,,masks/mask_001.jpg,,,,,,,,,,,,,,,,,,,,,,,,,,,,,,,,,,,,,,,,,,,,,,,,0,2,2,0,1,,,,,,,,,,,,,,,,,,,,,,,,,,,,,,,,,,,,,,,,,
775485,001,2022-11-20_23h54.23.487,Info_measure_main_exp,2022.2.2,Win32,143.7194596,,,,,,,,,,,,,,,,,,masks/mask_004.jpg,,,,,,,,,,,,,,,,,,,,,,,,,,,,,,,,,,,,,,,,,,,,,,,,0,3,3,3,1,,,,,,,,,,,,,,,,,,,,,,,,,,,,,,,,,,,,,,,,,
775485,001,2022-11-20_23h54.23.487,Info_measure_main_exp,2022.2.2,Win32,143.7194596,,,,,,,,,,,,,,,,,,masks/mask_003.jpg,,,,,,,,,,,,,,,,,,,,,,,,,,,,,,,,,,,,,,,,,,,,,,,,0,4,4,2,1,,,,,,,,,,,,,,,,,,,,,,,,,,,,,,,,,,,,,,,,,
775485,001,2022-11-20_23h54.23.487,Info_measure_main_exp,2022.2.2,Win32,143.7194596,,,,,,,,,,,,,,,,,,,,,,,,,,,,,,6,0.9513,1,,,,,,,,,,,,0,131,5,5,2154,2298,absent_patch/patch0002154.jpg,absent_patch/patch0002298.jpg,,,,,,,,,,,,,,,,,,,,0.096296296,0.023148148,1,0,0,response1disk,30,0.001851852,-0.002777778,1,0,0,center_square,0,29,29,27,1,,,,,,,,,,,,,,,,,,,,,,,
775485,001,2022-11-20_23h54.23.487,Info_measure_main_exp,2022.2.2,Win32,143.7194596,,,,,,,,,,,,,,,,,,masks/mask_001.jpg,,,,,,,,,,,,,,,,,,,,,,,,,,,,,,,,,,,,,,,,,,,0,0,0,0,1,,,,,,,,,,,,,,,,,,,,,,,,,,,,,,,,,,,,,,,,,,,,,,
775485,001,2022-11-20_23h54.23.487,Info_measure_main_exp,2022.2.2,Win32,143.7194596,,,,,,,,,,,,,,,,,,masks/mask_004.jpg,,,,,,,,,,,,,,,,,,,,,,,,,,,,,,,,,,,,,,,,,,,0,1,1,3,1,,,,,,,,,,,,,,,,,,,,,,,,,,,,,,,,,,,,,,,,,,,,,,
775485,001,2022-11-20_23h54.23.487,Info_measure_main_exp,2022.2.2,Win32,143.7194596,,,,,,,,,,,,,,,,,,masks/mask_003.jpg,,,,,,,,,,,,,,,,,,,,,,,,,,,,,,,,,,,,,,,,,,,0,2,2,2,1,,,,,,,,,,,,,,,,,,,,,,,,,,,,,,,,,,,,,,,,,,,,,,
775485,001,2022-11-20_23h54.23.487,Info_measure_main_exp,2022.2.2,Win32,143.7194596,,,,,,,,,,,,,,,,,,masks/mask_002.jpg,,,,,,,,,,,,,,,,,,,,,,,,,,,,,,,,,,,,,,,,,,,0,3,3,1,1,,,,,,,,,,,,,,,,,,,,,,,,,,,,,,,,,,,,,,,,,,,,,,
775485,001,2022-11-20_23h54.23.487,Info_measure_main_exp,2022.2.2,Win32,143.7194596,,,,,,,,,,,,,,,,,,masks/mask_005.jpg,,,,,,,,,,,,,,,,,,,,,,,,,,,,,,,,,,,,,,,,,,,0,4,4,4,1,,,,,,,,,,,,,,,,,,,,,,,,,,,,,,,,,,,,,,,,,,,,,,
775485,001,2022-11-20_23h54.23.487,Info_measure_main_exp,2022.2.2,Win32,143.7194596,,,,,,,,,,,,,,,,,,masks/mask_005.jpg,,,,,,,,,,,,,,,,,,,,,,,,,,,,,,,,,,,,,,,,,,,,,,,,0,0,0,4,1,,,,,,,,,,,,,,,,,,,,,,,,,,,,,,,,,,,,,,,,,
775485,001,2022-11-20_23h54.23.487,Info_measure_main_exp,2022.2.2,Win32,143.7194596,,,,,,,,,,,,,,,,,,masks/mask_003.jpg,,,,,,,,,,,,,,,,,,,,,,,,,,,,,,,,,,,,,,,,,,,,,,,,0,1,1,2,1,,,,,,,,,,,,,,,,,,,,,,,,,,,,,,,,,,,,,,,,,
775485,001,2022-11-20_23h54.23.487,Info_measure_main_exp,2022.2.2,Win32,143.7194596,,,,,,,,,,,,,,,,,,masks/mask_001.jpg,,,,,,,,,,,,,,,,,,,,,,,,,,,,,,,,,,,,,,,,,,,,,,,,0,2,2,0,1,,,,,,,,,,,,,,,,,,,,,,,,,,,,,,,,,,,,,,,,,
775485,001,2022-11-20_23h54.23.487,Info_measure_main_exp,2022.2.2,Win32,143.7194596,,,,,,,,,,,,,,,,,,masks/mask_004.jpg,,,,,,,,,,,,,,,,,,,,,,,,,,,,,,,,,,,,,,,,,,,,,,,,0,3,3,3,1,,,,,,,,,,,,,,,,,,,,,,,,,,,,,,,,,,,,,,,,,
775485,001,2022-11-20_23h54.23.487,Info_measure_main_exp,2022.2.2,Win32,143.7194596,,,,,,,,,,,,,,,,,,masks/mask_002.jpg,,,,,,,,,,,,,,,,,,,,,,,,,,,,,,,,,,,,,,,,,,,,,,,,0,4,4,1,1,,,,,,,,,,,,,,,,,,,,,,,,,,,,,,,,,,,,,,,,,
775485,001,2022-11-20_23h54.23.487,Info_measure_main_exp,2022.2.2,Win32,143.7194596,,,,,,,,,,,,,,,,,,,,,,,,,,,,,,5,1.7019,1,,,,,,,,,,,,0,131,5,5,2190,2238,absent_patch/patch0002190.jpg,absent_patch/patch0002238.jpg,,,,,,,,,,,,,,,,,,,,0.114814815,-0.034259259,1,0,0,response3disk,31,0.003703704,0.001851852,1,0,0,center_square,0,30,30,53,1,,,,,,,,,,,,,,,,,,,,,,,
775485,001,2022-11-20_23h54.23.487,Info_measure_main_exp,2022.2.2,Win32,143.7194596,,,,,,,,,,,,,,,,,,masks/mask_001.jpg,,,,,,,,,,,,,,,,,,,,,,,,,,,,,,,,,,,,,,,,,,,0,0,0,0,1,,,,,,,,,,,,,,,,,,,,,,,,,,,,,,,,,,,,,,,,,,,,,,
775485,001,2022-11-20_23h54.23.487,Info_measure_main_exp,2022.2.2,Win32,143.7194596,,,,,,,,,,,,,,,,,,masks/mask_005.jpg,,,,,,,,,,,,,,,,,,,,,,,,,,,,,,,,,,,,,,,,,,,0,1,1,4,1,,,,,,,,,,,,,,,,,,,,,,,,,,,,,,,,,,,,,,,,,,,,,,
775485,001,2022-11-20_23h54.23.487,Info_measure_main_exp,2022.2.2,Win32,143.7194596,,,,,,,,,,,,,,,,,,masks/mask_003.jpg,,,,,,,,,,,,,,,,,,,,,,,,,,,,,,,,,,,,,,,,,,,0,2,2,2,1,,,,,,,,,,,,,,,,,,,,,,,,,,,,,,,,,,,,,,,,,,,,,,
775485,001,2022-11-20_23h54.23.487,Info_measure_main_exp,2022.2.2,Win32,143.7194596,,,,,,,,,,,,,,,,,,masks/mask_004.jpg,,,,,,,,,,,,,,,,,,,,,,,,,,,,,,,,,,,,,,,,,,,0,3,3,3,1,,,,,,,,,,,,,,,,,,,,,,,,,,,,,,,,,,,,,,,,,,,,,,
775485,001,2022-11-20_23h54.23.487,Info_measure_main_exp,2022.2.2,Win32,143.7194596,,,,,,,,,,,,,,,,,,masks/mask_002.jpg,,,,,,,,,,,,,,,,,,,,,,,,,,,,,,,,,,,,,,,,,,,0,4,4,1,1,,,,,,,,,,,,,,,,,,,,,,,,,,,,,,,,,,,,,,,,,,,,,,
775485,001,2022-11-20_23h54.23.487,Info_measure_main_exp,2022.2.2,Win32,143.7194596,,,,,,,,,,,,,,,,,,masks/mask_003.jpg,,,,,,,,,,,,,,,,,,,,,,,,,,,,,,,,,,,,,,,,,,,,,,,,0,0,0,2,1,,,,,,,,,,,,,,,,,,,,,,,,,,,,,,,,,,,,,,,,,
775485,001,2022-11-20_23h54.23.487,Info_measure_main_exp,2022.2.2,Win32,143.7194596,,,,,,,,,,,,,,,,,,masks/mask_001.jpg,,,,,,,,,,,,,,,,,,,,,,,,,,,,,,,,,,,,,,,,,,,,,,,,0,1,1,0,1,,,,,,,,,,,,,,,,,,,,,,,,,,,,,,,,,,,,,,,,,
775485,001,2022-11-20_23h54.23.487,Info_measure_main_exp,2022.2.2,Win32,143.7194596,,,,,,,,,,,,,,,,,,masks/mask_004.jpg,,,,,,,,,,,,,,,,,,,,,,,,,,,,,,,,,,,,,,,,,,,,,,,,0,2,2,3,1,,,,,,,,,,,,,,,,,,,,,,,,,,,,,,,,,,,,,,,,,
775485,001,2022-11-20_23h54.23.487,Info_measure_main_exp,2022.2.2,Win32,143.7194596,,,,,,,,,,,,,,,,,,masks/mask_002.jpg,,,,,,,,,,,,,,,,,,,,,,,,,,,,,,,,,,,,,,,,,,,,,,,,0,3,3,1,1,,,,,,,,,,,,,,,,,,,,,,,,,,,,,,,,,,,,,,,,,
775485,001,2022-11-20_23h54.23.487,Info_measure_main_exp,2022.2.2,Win32,143.7194596,,,,,,,,,,,,,,,,,,masks/mask_005.jpg,,,,,,,,,,,,,,,,,,,,,,,,,,,,,,,,,,,,,,,,,,,,,,,,0,4,4,4,1,,,,,,,,,,,,,,,,,,,,,,,,,,,,,,,,,,,,,,,,,
775485,001,2022-11-20_23h54.23.487,Info_measure_main_exp,2022.2.2,Win32,143.7194596,,,,,,,,,,,,,,,,,,,,,,,,,,,,,,4,3.5541,1,,,,,,,,,,,,0,131,5,5,2250,2298,absent_patch/patch0002250.jpg,absent_patch/patch0002298.jpg,,,,,,,,,,,,,,,,,,,,0.062962963,-0.12962963,1,0,0,response3disk,32,-0.001851852,0.000925926,1,0,0,center_square,0,31,31,59,1,,,,,,,,,,,,,,,,,,,,,,,
775485,001,2022-11-20_23h54.23.487,Info_measure_main_exp,2022.2.2,Win32,143.7194596,,,,,,,,,,,,,,,,,,masks/mask_003.jpg,,,,,,,,,,,,,,,,,,,,,,,,,,,,,,,,,,,,,,,,,,,0,0,0,2,1,,,,,,,,,,,,,,,,,,,,,,,,,,,,,,,,,,,,,,,,,,,,,,
775485,001,2022-11-20_23h54.23.487,Info_measure_main_exp,2022.2.2,Win32,143.7194596,,,,,,,,,,,,,,,,,,masks/mask_001.jpg,,,,,,,,,,,,,,,,,,,,,,,,,,,,,,,,,,,,,,,,,,,0,1,1,0,1,,,,,,,,,,,,,,,,,,,,,,,,,,,,,,,,,,,,,,,,,,,,,,
775485,001,2022-11-20_23h54.23.487,Info_measure_main_exp,2022.2.2,Win32,143.7194596,,,,,,,,,,,,,,,,,,masks/mask_004.jpg,,,,,,,,,,,,,,,,,,,,,,,,,,,,,,,,,,,,,,,,,,,0,2,2,3,1,,,,,,,,,,,,,,,,,,,,,,,,,,,,,,,,,,,,,,,,,,,,,,
775485,001,2022-11-20_23h54.23.487,Info_measure_main_exp,2022.2.2,Win32,143.7194596,,,,,,,,,,,,,,,,,,masks/mask_005.jpg,,,,,,,,,,,,,,,,,,,,,,,,,,,,,,,,,,,,,,,,,,,0,3,3,4,1,,,,,,,,,,,,,,,,,,,,,,,,,,,,,,,,,,,,,,,,,,,,,,
775485,001,2022-11-20_23h54.23.487,Info_measure_main_exp,2022.2.2,Win32,143.7194596,,,,,,,,,,,,,,,,,,masks/mask_002.jpg,,,,,,,,,,,,,,,,,,,,,,,,,,,,,,,,,,,,,,,,,,,0,4,4,1,1,,,,,,,,,,,,,,,,,,,,,,,,,,,,,,,,,,,,,,,,,,,,,,
775485,001,2022-11-20_23h54.23.487,Info_measure_main_exp,2022.2.2,Win32,143.7194596,,,,,,,,,,,,,,,,,,masks/mask_004.jpg,,,,,,,,,,,,,,,,,,,,,,,,,,,,,,,,,,,,,,,,,,,,,,,,0,0,0,3,1,,,,,,,,,,,,,,,,,,,,,,,,,,,,,,,,,,,,,,,,,
775485,001,2022-11-20_23h54.23.487,Info_measure_main_exp,2022.2.2,Win32,143.7194596,,,,,,,,,,,,,,,,,,masks/mask_003.jpg,,,,,,,,,,,,,,,,,,,,,,,,,,,,,,,,,,,,,,,,,,,,,,,,0,1,1,2,1,,,,,,,,,,,,,,,,,,,,,,,,,,,,,,,,,,,,,,,,,
775485,001,2022-11-20_23h54.23.487,Info_measure_main_exp,2022.2.2,Win32,143.7194596,,,,,,,,,,,,,,,,,,masks/mask_001.jpg,,,,,,,,,,,,,,,,,,,,,,,,,,,,,,,,,,,,,,,,,,,,,,,,0,2,2,0,1,,,,,,,,,,,,,,,,,,,,,,,,,,,,,,,,,,,,,,,,,
775485,001,2022-11-20_23h54.23.487,Info_measure_main_exp,2022.2.2,Win32,143.7194596,,,,,,,,,,,,,,,,,,masks/mask_005.jpg,,,,,,,,,,,,,,,,,,,,,,,,,,,,,,,,,,,,,,,,,,,,,,,,0,3,3,4,1,,,,,,,,,,,,,,,,,,,,,,,,,,,,,,,,,,,,,,,,,
775485,001,2022-11-20_23h54.23.487,Info_measure_main_exp,2022.2.2,Win32,143.7194596,,,,,,,,,,,,,,,,,,masks/mask_002.jpg,,,,,,,,,,,,,,,,,,,,,,,,,,,,,,,,,,,,,,,,,,,,,,,,0,4,4,1,1,,,,,,,,,,,,,,,,,,,,,,,,,,,,,,,,,,,,,,,,,
775485,001,2022-11-20_23h54.23.487,Info_measure_main_exp,2022.2.2,Win32,143.7194596,,,,,,,,,,,,,,,,,,,,,,,,,,,,,,5,1.1179,1,,,,,,,,,,,,0,131,5,5,1974,2178,absent_patch/patch0001974.jpg,absent_patch/patch0002178.jpg,,,,,,,,,,,,,,,,,,,,0.088888889,-0.047222222,1,0,0,response3disk,33,0.006481481,-0.000925926,1,0,0,center_square,0,32,32,44,1,,,,,,,,,,,,,,,,,,,,,,,
775485,001,2022-11-20_23h54.23.487,Info_measure_main_exp,2022.2.2,Win32,143.7194596,,,,,,,,,,,,,,,,,,masks/mask_001.jpg,,,,,,,,,,,,,,,,,,,,,,,,,,,,,,,,,,,,,,,,,,,0,0,0,0,1,,,,,,,,,,,,,,,,,,,,,,,,,,,,,,,,,,,,,,,,,,,,,,
775485,001,2022-11-20_23h54.23.487,Info_measure_main_exp,2022.2.2,Win32,143.7194596,,,,,,,,,,,,,,,,,,masks/mask_003.jpg,,,,,,,,,,,,,,,,,,,,,,,,,,,,,,,,,,,,,,,,,,,0,1,1,2,1,,,,,,,,,,,,,,,,,,,,,,,,,,,,,,,,,,,,,,,,,,,,,,
775485,001,2022-11-20_23h54.23.487,Info_measure_main_exp,2022.2.2,Win32,143.7194596,,,,,,,,,,,,,,,,,,masks/mask_005.jpg,,,,,,,,,,,,,,,,,,,,,,,,,,,,,,,,,,,,,,,,,,,0,2,2,4,1,,,,,,,,,,,,,,,,,,,,,,,,,,,,,,,,,,,,,,,,,,,,,,
775485,001,2022-11-20_23h54.23.487,Info_measure_main_exp,2022.2.2,Win32,143.7194596,,,,,,,,,,,,,,,,,,masks/mask_004.jpg,,,,,,,,,,,,,,,,,,,,,,,,,,,,,,,,,,,,,,,,,,,0,3,3,3,1,,,,,,,,,,,,,,,,,,,,,,,,,,,,,,,,,,,,,,,,,,,,,,
775485,001,2022-11-20_23h54.23.487,Info_measure_main_exp,2022.2.2,Win32,143.7194596,,,,,,,,,,,,,,,,,,masks/mask_002.jpg,,,,,,,,,,,,,,,,,,,,,,,,,,,,,,,,,,,,,,,,,,,0,4,4,1,1,,,,,,,,,,,,,,,,,,,,,,,,,,,,,,,,,,,,,,,,,,,,,,
775485,001,2022-11-20_23h54.23.487,Info_measure_main_exp,2022.2.2,Win32,143.7194596,,,,,,,,,,,,,,,,,,masks/mask_001.jpg,,,,,,,,,,,,,,,,,,,,,,,,,,,,,,,,,,,,,,,,,,,,,,,,0,0,0,0,1,,,,,,,,,,,,,,,,,,,,,,,,,,,,,,,,,,,,,,,,,
775485,001,2022-11-20_23h54.23.487,Info_measure_main_exp,2022.2.2,Win32,143.7194596,,,,,,,,,,,,,,,,,,masks/mask_005.jpg,,,,,,,,,,,,,,,,,,,,,,,,,,,,,,,,,,,,,,,,,,,,,,,,0,1,1,4,1,,,,,,,,,,,,,,,,,,,,,,,,,,,,,,,,,,,,,,,,,
775485,001,2022-11-20_23h54.23.487,Info_measure_main_exp,2022.2.2,Win32,143.7194596,,,,,,,,,,,,,,,,,,masks/mask_003.jpg,,,,,,,,,,,,,,,,,,,,,,,,,,,,,,,,,,,,,,,,,,,,,,,,0,2,2,2,1,,,,,,,,,,,,,,,,,,,,,,,,,,,,,,,,,,,,,,,,,
775485,001,2022-11-20_23h54.23.487,Info_measure_main_exp,2022.2.2,Win32,143.7194596,,,,,,,,,,,,,,,,,,masks/mask_002.jpg,,,,,,,,,,,,,,,,,,,,,,,,,,,,,,,,,,,,,,,,,,,,,,,,0,3,3,1,1,,,,,,,,,,,,,,,,,,,,,,,,,,,,,,,,,,,,,,,,,
775485,001,2022-11-20_23h54.23.487,Info_measure_main_exp,2022.2.2,Win32,143.7194596,,,,,,,,,,,,,,,,,,masks/mask_004.jpg,,,,,,,,,,,,,,,,,,,,,,,,,,,,,,,,,,,,,,,,,,,,,,,,0,4,4,3,1,,,,,,,,,,,,,,,,,,,,,,,,,,,,,,,,,,,,,,,,,
775485,001,2022-11-20_23h54.23.487,Info_measure_main_exp,2022.2.2,Win32,143.7194596,,,,,,,,,,,,,,,,,,,,,,,,,,,,,,3,0.8124,1,,,,,,,,,,,,0,131,5,5,2082,1974,absent_patch/patch0002082.jpg,absent_patch/patch0001974.jpg,,,,,,,,,,,,,,,,,,,,-0.026851852,-0.062037037,1,0,0,response5disk,34,0.012037037,0.012962963,1,0,0,center_square,0,33,33,26,1,,,,,,,,,,,,,,,,,,,,,,,
775485,001,2022-11-20_23h54.23.487,Info_measure_main_exp,2022.2.2,Win32,143.7194596,,,,,,,,,,,,,,,,,,masks/mask_004.jpg,,,,,,,,,,,,,,,,,,,,,,,,,,,,,,,,,,,,,,,,,,,0,0,0,3,1,,,,,,,,,,,,,,,,,,,,,,,,,,,,,,,,,,,,,,,,,,,,,,
775485,001,2022-11-20_23h54.23.487,Info_measure_main_exp,2022.2.2,Win32,143.7194596,,,,,,,,,,,,,,,,,,masks/mask_005.jpg,,,,,,,,,,,,,,,,,,,,,,,,,,,,,,,,,,,,,,,,,,,0,1,1,4,1,,,,,,,,,,,,,,,,,,,,,,,,,,,,,,,,,,,,,,,,,,,,,,
775485,001,2022-11-20_23h54.23.487,Info_measure_main_exp,2022.2.2,Win32,143.7194596,,,,,,,,,,,,,,,,,,masks/mask_002.jpg,,,,,,,,,,,,,,,,,,,,,,,,,,,,,,,,,,,,,,,,,,,0,2,2,1,1,,,,,,,,,,,,,,,,,,,,,,,,,,,,,,,,,,,,,,,,,,,,,,
775485,001,2022-11-20_23h54.23.487,Info_measure_main_exp,2022.2.2,Win32,143.7194596,,,,,,,,,,,,,,,,,,masks/mask_003.jpg,,,,,,,,,,,,,,,,,,,,,,,,,,,,,,,,,,,,,,,,,,,0,3,3,2,1,,,,,,,,,,,,,,,,,,,,,,,,,,,,,,,,,,,,,,,,,,,,,,
775485,001,2022-11-20_23h54.23.487,Info_measure_main_exp,2022.2.2,Win32,143.7194596,,,,,,,,,,,,,,,,,,masks/mask_001.jpg,,,,,,,,,,,,,,,,,,,,,,,,,,,,,,,,,,,,,,,,,,,0,4,4,0,1,,,,,,,,,,,,,,,,,,,,,,,,,,,,,,,,,,,,,,,,,,,,,,
775485,001,2022-11-20_23h54.23.487,Info_measure_main_exp,2022.2.2,Win32,143.7194596,,,,,,,,,,,,,,,,,,masks/mask_005.jpg,,,,,,,,,,,,,,,,,,,,,,,,,,,,,,,,,,,,,,,,,,,,,,,,0,0,0,4,1,,,,,,,,,,,,,,,,,,,,,,,,,,,,,,,,,,,,,,,,,
775485,001,2022-11-20_23h54.23.487,Info_measure_main_exp,2022.2.2,Win32,143.7194596,,,,,,,,,,,,,,,,,,masks/mask_004.jpg,,,,,,,,,,,,,,,,,,,,,,,,,,,,,,,,,,,,,,,,,,,,,,,,0,1,1,3,1,,,,,,,,,,,,,,,,,,,,,,,,,,,,,,,,,,,,,,,,,
775485,001,2022-11-20_23h54.23.487,Info_measure_main_exp,2022.2.2,Win32,143.7194596,,,,,,,,,,,,,,,,,,masks/mask_003.jpg,,,,,,,,,,,,,,,,,,,,,,,,,,,,,,,,,,,,,,,,,,,,,,,,0,2,2,2,1,,,,,,,,,,,,,,,,,,,,,,,,,,,,,,,,,,,,,,,,,
775485,001,2022-11-20_23h54.23.487,Info_measure_main_exp,2022.2.2,Win32,143.7194596,,,,,,,,,,,,,,,,,,masks/mask_002.jpg,,,,,,,,,,,,,,,,,,,,,,,,,,,,,,,,,,,,,,,,,,,,,,,,0,3,3,1,1,,,,,,,,,,,,,,,,,,,,,,,,,,,,,,,,,,,,,,,,,
