participant,session,date,expName,psychopyVersion,OS,frameRate,space_press_continue.keys,space_press_continue.rt,space_press_continue_2.keys,space_press_continue_2.rt,space_press_continue_3.keys,space_press_continue_3.rt,space_press_continue_4.keys,space_press_continue_4.rt,space_press_continue_5.keys,space_press_continue_5.rt,space_press_continue_6.keys,space_press_continue_6.rt,prac_mask_loop_1.thisRepN,prac_mask_loop_1.thisTrialN,prac_mask_loop_1.thisN,prac_mask_loop_1.thisIndex,prac_mask_loop_1.ran,mask_name,prac_mask_loop_2.thisRepN,prac_mask_loop_2.thisTrialN,prac_mask_loop_2.thisN,prac_mask_loop_2.thisIndex,prac_mask_loop_2.ran,mouse_2.x,mouse_2.y,mouse_2.leftButton,mouse_2.midButton,mouse_2.rightButton,mouse_2.clicked_name,similarity,response_time,Pass,mouse_12.x,mouse_12.y,mouse_12.leftButton,mouse_12.midButton,mouse_12.rightButton,mouse_12.clicked_name,prac_loop.thisRepN,prac_loop.thisTrialN,prac_loop.thisN,prac_loop.thisIndex,prac_loop.ran,Pair_type,Image_num,Patch_1_loc,Patch_2_loc,Patch_1_info,Patch_2_info,Patch_1_name,Patch_2_name,mouse_1.x,mouse_1.y,mouse_1.leftButton,mouse_1.midButton,mouse_1.rightButton,mouse_1.time,mouse_1.clicked_name,space_press_continue_7.keys,space_press_continue_7.rt,mask_loop.thisRepN,mask_loop.thisTrialN,mask_loop.thisN,mask_loop.thisIndex,mask_loop.ran,mask_loop_2.thisRepN,mask_loop_2.thisTrialN,mask_loop_2.thisN,mask_loop_2.thisIndex,mask_loop_2.ran,mouse.x,mouse.y,mouse.leftButton,mouse.midButton,mouse.rightButton,mouse.clicked_name,trialNumber,mouse_11.x,mouse_11.y,mouse_11.leftButton,mouse_11.midButton,mouse_11.rightButton,mouse_11.clicked_name,first_pass_loop.thisRepN,first_pass_loop.thisTrialN,first_pass_loop.thisN,first_pass_loop.thisIndex,first_pass_loop.ran,mask_loop_3.thisRepN,mask_loop_3.thisTrialN,mask_loop_3.thisN,mask_loop_3.thisIndex,mask_loop_3.ran,mask_loop_4.thisRepN,mask_loop_4.thisTrialN,mask_loop_4.thisN,mask_loop_4.thisIndex,mask_loop_4.ran,mouse_3.x,mouse_3.y,mouse_3.leftButton,mouse_3.midButton,mouse_3.rightButton,mouse_3.clicked_name,double_pass_loop.thisRepN,double_pass_loop.thisTrialN,double_pass_loop.thisN,double_pass_loop.thisIndex,double_pass_loop.ran,space_exit.keys,space_exit.rt
780879,001,2022-11-13_23h29.29.377,Info_measure_main_exp,2022.2.2,MacIntel,59.24170616,,,,,,,,,,,,,,,,,,,,,,,,,,,,,,,,,,,,,,,,,,,,,,,,,,,,,,,,,,,,,,,,,,,,,,,,,,,,,,,,,,,,,,,,,,,,,,,,,,,,,,,,,,,,,,,
780879,001,2022-11-13_23h29.29.377,Info_measure_main_exp,2022.2.2,MacIntel,59.24170616,,,,,,,,,,,,,,,,,,,,,,,,,,,,,,,,,,,,,,,,,,,,,,,,,,,,,,,,,,,,,,,,,,,,,,,,,,,,,,,,,,,,,,,,,,,,,,,,,,,,,,,,,,,,,,,
780879,001,2022-11-13_23h29.29.377,Info_measure_main_exp,2022.2.2,MacIntel,59.24170616,space,10.7,,,,,,,,,,,,,,,,,,,,,,,,,,,,,,,,,,,,,,,,,,,,,,,,,,,,,,,,,,,,,,,,,,,,,,,,,,,,,,,,,,,,,,,,,,,,,,,,,,,,,,,,,,,,,
780879,001,2022-11-13_23h29.29.377,Info_measure_main_exp,2022.2.2,MacIntel,59.24170616,,,space,10.343,,,,,,,,,,,,,,,,,,,,,,,,,,,,,,,,,,,,,,,,,,,,,,,,,,,,,,,,,,,,,,,,,,,,,,,,,,,,,,,,,,,,,,,,,,,,,,,,,,,,,,,,,,,
780879,001,2022-11-13_23h29.29.377,Info_measure_main_exp,2022.2.2,MacIntel,59.24170616,,,,,space,1.475,,,,,,,,,,,,,,,,,,,,,,,,,,,,,,,,,,,,,,,,,,,,,,,,,,,,,,,,,,,,,,,,,,,,,,,,,,,,,,,,,,,,,,,,,,,,,,,,,,,,,,,,,
780879,001,2022-11-13_23h29.29.377,Info_measure_main_exp,2022.2.2,MacIntel,59.24170616,,,,,,,space,13.015,,,,,,,,,,,,,,,,,,,,,,,,,,,,,,,,,,,,,,,,,,,,,,,,,,,,,,,,,,,,,,,,,,,,,,,,,,,,,,,,,,,,,,,,,,,,,,,,,,,,,,,
780879,001,2022-11-13_23h29.29.377,Info_measure_main_exp,2022.2.2,MacIntel,59.24170616,,,,,,,,,space,3.871,,,,,,,,,,,,,,,,,,,,,,,,,,,,,,,,,,,,,,,,,,,,,,,,,,,,,,,,,,,,,,,,,,,,,,,,,,,,,,,,,,,,,,,,,,,,,,,,,,,,,
780879,001,2022-11-13_23h29.29.377,Info_measure_main_exp,2022.2.2,MacIntel,59.24170616,,,,,,,,,,,space,3.424,,,,,,,,,,,,,,,,,,,,,,,,,,,,,,,,,,,,,,,,,,,,,,,,,,,,,,,,,,,,,,,,,,,,,,,,,,,,,,,,,,,,,,,,,,,,,,,,,,,
780879,001,2022-11-13_23h29.29.377,Info_measure_main_exp,2022.2.2,MacIntel,59.24170616,,,,,,,,,,,,,0,0,0,1,1,masks/mask_002.jpg,,,,,,,,,,,,,,,,,,,,,,,,,,,,,,,,,,,,,,,,,,,,,,,,,,,,,,,,,,,,,,,,,,,,,,,,,,,,,,,,,,,,,,,,,,,,,
780879,001,2022-11-13_23h29.29.377,Info_measure_main_exp,2022.2.2,MacIntel,59.24170616,,,,,,,,,,,,,0,1,1,0,1,masks/mask_001.jpg,,,,,,,,,,,,,,,,,,,,,,,,,,,,,,,,,,,,,,,,,,,,,,,,,,,,,,,,,,,,,,,,,,,,,,,,,,,,,,,,,,,,,,,,,,,,,
780879,001,2022-11-13_23h29.29.377,Info_measure_main_exp,2022.2.2,MacIntel,59.24170616,,,,,,,,,,,,,0,2,2,4,1,masks/mask_005.jpg,,,,,,,,,,,,,,,,,,,,,,,,,,,,,,,,,,,,,,,,,,,,,,,,,,,,,,,,,,,,,,,,,,,,,,,,,,,,,,,,,,,,,,,,,,,,,
780879,001,2022-11-13_23h29.29.377,Info_measure_main_exp,2022.2.2,MacIntel,59.24170616,,,,,,,,,,,,,0,3,3,3,1,masks/mask_004.jpg,,,,,,,,,,,,,,,,,,,,,,,,,,,,,,,,,,,,,,,,,,,,,,,,,,,,,,,,,,,,,,,,,,,,,,,,,,,,,,,,,,,,,,,,,,,,,
780879,001,2022-11-13_23h29.29.377,Info_measure_main_exp,2022.2.2,MacIntel,59.24170616,,,,,,,,,,,,,0,4,4,2,1,masks/mask_003.jpg,,,,,,,,,,,,,,,,,,,,,,,,,,,,,,,,,,,,,,,,,,,,,,,,,,,,,,,,,,,,,,,,,,,,,,,,,,,,,,,,,,,,,,,,,,,,,
780879,001,2022-11-13_23h29.29.377,Info_measure_main_exp,2022.2.2,MacIntel,59.24170616,,,,,,,,,,,,,,,,,,masks/mask_005.jpg,0,0,0,4,1,,,,,,,,,,,,,,,,,,,,,,,,,,,,,,,,,,,,,,,,,,,,,,,,,,,,,,,,,,,,,,,,,,,,,,,,,,,,,,,,,,,,,,,,
780879,001,2022-11-13_23h29.29.377,Info_measure_main_exp,2022.2.2,MacIntel,59.24170616,,,,,,,,,,,,,,,,,,masks/mask_002.jpg,0,1,1,1,1,,,,,,,,,,,,,,,,,,,,,,,,,,,,,,,,,,,,,,,,,,,,,,,,,,,,,,,,,,,,,,,,,,,,,,,,,,,,,,,,,,,,,,,,
780879,001,2022-11-13_23h29.29.377,Info_measure_main_exp,2022.2.2,MacIntel,59.24170616,,,,,,,,,,,,,,,,,,masks/mask_003.jpg,0,2,2,2,1,,,,,,,,,,,,,,,,,,,,,,,,,,,,,,,,,,,,,,,,,,,,,,,,,,,,,,,,,,,,,,,,,,,,,,,,,,,,,,,,,,,,,,,,
780879,001,2022-11-13_23h29.29.377,Info_measure_main_exp,2022.2.2,MacIntel,59.24170616,,,,,,,,,,,,,,,,,,masks/mask_004.jpg,0,3,3,3,1,,,,,,,,,,,,,,,,,,,,,,,,,,,,,,,,,,,,,,,,,,,,,,,,,,,,,,,,,,,,,,,,,,,,,,,,,,,,,,,,,,,,,,,,
780879,001,2022-11-13_23h29.29.377,Info_measure_main_exp,2022.2.2,MacIntel,59.24170616,,,,,,,,,,,,,,,,,,masks/mask_001.jpg,0,4,4,0,1,,,,,,,,,,,,,,,,,,,,,,,,,,,,,,,,,,,,,,,,,,,,,,,,,,,,,,,,,,,,,,,,,,,,,,,,,,,,,,,,,,,,,,,,
780879,001,2022-11-13_23h29.29.377,Info_measure_main_exp,2022.2.2,MacIntel,59.24170616,,,,,,,,,,,,,,,,,,,,,,,,0.055555556,0.158888889,1,0,0,response1disk,7,49.519,1,0.004444444,0.004444444,1,0,0,center_square,0,0,0,1,1,0,131,5,5,2514,2490,prac_patch/patch0002514.jpg,prac_patch/patch0002490.jpg,,,,,,,,,,,,,,,,,,,,,,,,,,,,,,,,,,,,,,,,,,,,,,,,,,,,,,,,,,,,
780879,001,2022-11-13_23h29.29.377,Info_measure_main_exp,2022.2.2,MacIntel,59.24170616,,,,,,,,,,,,,0,0,0,0,1,masks/mask_001.jpg,,,,,,,,,,,,,,,,,,,,,,,,,,,,,,,,,,,,,,,,,,,,,,,,,,,,,,,,,,,,,,,,,,,,,,,,,,,,,,,,,,,,,,,,,,,,,
780879,001,2022-11-13_23h29.29.377,Info_measure_main_exp,2022.2.2,MacIntel,59.24170616,,,,,,,,,,,,,0,1,1,2,1,masks/mask_003.jpg,,,,,,,,,,,,,,,,,,,,,,,,,,,,,,,,,,,,,,,,,,,,,,,,,,,,,,,,,,,,,,,,,,,,,,,,,,,,,,,,,,,,,,,,,,,,,
780879,001,2022-11-13_23h29.29.377,Info_measure_main_exp,2022.2.2,MacIntel,59.24170616,,,,,,,,,,,,,0,2,2,3,1,masks/mask_004.jpg,,,,,,,,,,,,,,,,,,,,,,,,,,,,,,,,,,,,,,,,,,,,,,,,,,,,,,,,,,,,,,,,,,,,,,,,,,,,,,,,,,,,,,,,,,,,,
780879,001,2022-11-13_23h29.29.377,Info_measure_main_exp,2022.2.2,MacIntel,59.24170616,,,,,,,,,,,,,0,3,3,4,1,masks/mask_005.jpg,,,,,,,,,,,,,,,,,,,,,,,,,,,,,,,,,,,,,,,,,,,,,,,,,,,,,,,,,,,,,,,,,,,,,,,,,,,,,,,,,,,,,,,,,,,,,
780879,001,2022-11-13_23h29.29.377,Info_measure_main_exp,2022.2.2,MacIntel,59.24170616,,,,,,,,,,,,,0,4,4,1,1,masks/mask_002.jpg,,,,,,,,,,,,,,,,,,,,,,,,,,,,,,,,,,,,,,,,,,,,,,,,,,,,,,,,,,,,,,,,,,,,,,,,,,,,,,,,,,,,,,,,,,,,,
780879,001,2022-11-13_23h29.29.377,Info_measure_main_exp,2022.2.2,MacIntel,59.24170616,,,,,,,,,,,,,,,,,,masks/mask_005.jpg,0,0,0,4,1,,,,,,,,,,,,,,,,,,,,,,,,,,,,,,,,,,,,,,,,,,,,,,,,,,,,,,,,,,,,,,,,,,,,,,,,,,,,,,,,,,,,,,,,
780879,001,2022-11-13_23h29.29.377,Info_measure_main_exp,2022.2.2,MacIntel,59.24170616,,,,,,,,,,,,,,,,,,masks/mask_001.jpg,0,1,1,0,1,,,,,,,,,,,,,,,,,,,,,,,,,,,,,,,,,,,,,,,,,,,,,,,,,,,,,,,,,,,,,,,,,,,,,,,,,,,,,,,,,,,,,,,,
780879,001,2022-11-13_23h29.29.377,Info_measure_main_exp,2022.2.2,MacIntel,59.24170616,,,,,,,,,,,,,,,,,,masks/mask_003.jpg,0,2,2,2,1,,,,,,,,,,,,,,,,,,,,,,,,,,,,,,,,,,,,,,,,,,,,,,,,,,,,,,,,,,,,,,,,,,,,,,,,,,,,,,,,,,,,,,,,
780879,001,2022-11-13_23h29.29.377,Info_measure_main_exp,2022.2.2,MacIntel,59.24170616,,,,,,,,,,,,,,,,,,masks/mask_002.jpg,0,3,3,1,1,,,,,,,,,,,,,,,,,,,,,,,,,,,,,,,,,,,,,,,,,,,,,,,,,,,,,,,,,,,,,,,,,,,,,,,,,,,,,,,,,,,,,,,,
780879,001,2022-11-13_23h29.29.377,Info_measure_main_exp,2022.2.2,MacIntel,59.24170616,,,,,,,,,,,,,,,,,,masks/mask_004.jpg,0,4,4,3,1,,,,,,,,,,,,,,,,,,,,,,,,,,,,,,,,,,,,,,,,,,,,,,,,,,,,,,,,,,,,,,,,,,,,,,,,,,,,,,,,,,,,,,,,
780879,001,2022-11-13_23h29.29.377,Info_measure_main_exp,2022.2.2,MacIntel,59.24170616,,,,,,,,,,,,,,,,,,,,,,,,-0.103333333,-0.075555556,1,0,0,response5disk,2,61.201,1,0.002222222,0.001111111,1,0,0,center_square,0,1,1,2,1,0,131,5,5,2526,2526,prac_patch/patch0002526.jpg,prac_patch/patch0002526.jpg,,,,,,,,,,,,,,,,,,,,,,,,,,,,,,,,,,,,,,,,,,,,,,,,,,,,,,,,,,,,
780879,001,2022-11-13_23h29.29.377,Info_measure_main_exp,2022.2.2,MacIntel,59.24170616,,,,,,,,,,,,,0,0,0,4,1,masks/mask_005.jpg,,,,,,,,,,,,,,,,,,,,,,,,,,,,,,,,,,,,,,,,,,,,,,,,,,,,,,,,,,,,,,,,,,,,,,,,,,,,,,,,,,,,,,,,,,,,,
780879,001,2022-11-13_23h29.29.377,Info_measure_main_exp,2022.2.2,MacIntel,59.24170616,,,,,,,,,,,,,0,1,1,0,1,masks/mask_001.jpg,,,,,,,,,,,,,,,,,,,,,,,,,,,,,,,,,,,,,,,,,,,,,,,,,,,,,,,,,,,,,,,,,,,,,,,,,,,,,,,,,,,,,,,,,,,,,
780879,001,2022-11-13_23h29.29.377,Info_measure_main_exp,2022.2.2,MacIntel,59.24170616,,,,,,,,,,,,,0,2,2,3,1,masks/mask_004.jpg,,,,,,,,,,,,,,,,,,,,,,,,,,,,,,,,,,,,,,,,,,,,,,,,,,,,,,,,,,,,,,,,,,,,,,,,,,,,,,,,,,,,,,,,,,,,,
780879,001,2022-11-13_23h29.29.377,Info_measure_main_exp,2022.2.2,MacIntel,59.24170616,,,,,,,,,,,,,0,3,3,1,1,masks/mask_002.jpg,,,,,,,,,,,,,,,,,,,,,,,,,,,,,,,,,,,,,,,,,,,,,,,,,,,,,,,,,,,,,,,,,,,,,,,,,,,,,,,,,,,,,,,,,,,,,
780879,001,2022-11-13_23h29.29.377,Info_measure_main_exp,2022.2.2,MacIntel,59.24170616,,,,,,,,,,,,,0,4,4,2,1,masks/mask_003.jpg,,,,,,,,,,,,,,,,,,,,,,,,,,,,,,,,,,,,,,,,,,,,,,,,,,,,,,,,,,,,,,,,,,,,,,,,,,,,,,,,,,,,,,,,,,,,,
780879,001,2022-11-13_23h29.29.377,Info_measure_main_exp,2022.2.2,MacIntel,59.24170616,,,,,,,,,,,,,,,,,,masks/mask_002.jpg,0,0,0,1,1,,,,,,,,,,,,,,,,,,,,,,,,,,,,,,,,,,,,,,,,,,,,,,,,,,,,,,,,,,,,,,,,,,,,,,,,,,,,,,,,,,,,,,,,
780879,001,2022-11-13_23h29.29.377,Info_measure_main_exp,2022.2.2,MacIntel,59.24170616,,,,,,,,,,,,,,,,,,masks/mask_005.jpg,0,1,1,4,1,,,,,,,,,,,,,,,,,,,,,,,,,,,,,,,,,,,,,,,,,,,,,,,,,,,,,,,,,,,,,,,,,,,,,,,,,,,,,,,,,,,,,,,,
780879,001,2022-11-13_23h29.29.377,Info_measure_main_exp,2022.2.2,MacIntel,59.24170616,,,,,,,,,,,,,,,,,,masks/mask_003.jpg,0,2,2,2,1,,,,,,,,,,,,,,,,,,,,,,,,,,,,,,,,,,,,,,,,,,,,,,,,,,,,,,,,,,,,,,,,,,,,,,,,,,,,,,,,,,,,,,,,
780879,001,2022-11-13_23h29.29.377,Info_measure_main_exp,2022.2.2,MacIntel,59.24170616,,,,,,,,,,,,,,,,,,masks/mask_001.jpg,0,3,3,0,1,,,,,,,,,,,,,,,,,,,,,,,,,,,,,,,,,,,,,,,,,,,,,,,,,,,,,,,,,,,,,,,,,,,,,,,,,,,,,,,,,,,,,,,,
780879,001,2022-11-13_23h29.29.377,Info_measure_main_exp,2022.2.2,MacIntel,59.24170616,,,,,,,,,,,,,,,,,,masks/mask_004.jpg,0,4,4,3,1,,,,,,,,,,,,,,,,,,,,,,,,,,,,,,,,,,,,,,,,,,,,,,,,,,,,,,,,,,,,,,,,,,,,,,,,,,,,,,,,,,,,,,,,
780879,001,2022-11-13_23h29.29.377,Info_measure_main_exp,2022.2.2,MacIntel,59.24170616,,,,,,,,,,,,,,,,,,,,,,,,0.04,0.113333333,1,0,0,response1disk,7,69.533,1,0.001111111,0.002222222,1,0,0,center_square,0,2,2,0,1,0,131,5,5,2370,2406,prac_patch/patch0002370.jpg,prac_patch/patch0002406.jpg,,,,,,,,,,,,,,,,,,,,,,,,,,,,,,,,,,,,,,,,,,,,,,,,,,,,,,,,,,,,
780879,001,2022-11-13_23h29.29.377,Info_measure_main_exp,2022.2.2,MacIntel,59.24170616,,,,,,,,,,,,,,,,,,,,,,,,,,,,,,,,,,,,,,,,,,,,,,,,,,,,,,,,,,,space,1.41,,,,,,,,,,,,,,,,,,,,,,,,,,,,,,,,,,,,,,,,,,,,,,,,,,,
780879,001,2022-11-13_23h29.29.377,Info_measure_main_exp,2022.2.2,MacIntel,59.24170616,,,,,,,,,,,,,,,,,,masks/mask_003.jpg,,,,,,,,,,,,,,,,,,,,,,,,,,,,,,,,,,,,,,,,,,,0,0,0,2,1,,,,,,,,,,,,,,,,,,,,,,,,,,,,,,,,,,,,,,,,,,,,,,
780879,001,2022-11-13_23h29.29.377,Info_measure_main_exp,2022.2.2,MacIntel,59.24170616,,,,,,,,,,,,,,,,,,masks/mask_004.jpg,,,,,,,,,,,,,,,,,,,,,,,,,,,,,,,,,,,,,,,,,,,0,1,1,3,1,,,,,,,,,,,,,,,,,,,,,,,,,,,,,,,,,,,,,,,,,,,,,,
780879,001,2022-11-13_23h29.29.377,Info_measure_main_exp,2022.2.2,MacIntel,59.24170616,,,,,,,,,,,,,,,,,,masks/mask_002.jpg,,,,,,,,,,,,,,,,,,,,,,,,,,,,,,,,,,,,,,,,,,,0,2,2,1,1,,,,,,,,,,,,,,,,,,,,,,,,,,,,,,,,,,,,,,,,,,,,,,
780879,001,2022-11-13_23h29.29.377,Info_measure_main_exp,2022.2.2,MacIntel,59.24170616,,,,,,,,,,,,,,,,,,masks/mask_005.jpg,,,,,,,,,,,,,,,,,,,,,,,,,,,,,,,,,,,,,,,,,,,0,3,3,4,1,,,,,,,,,,,,,,,,,,,,,,,,,,,,,,,,,,,,,,,,,,,,,,
780879,001,2022-11-13_23h29.29.377,Info_measure_main_exp,2022.2.2,MacIntel,59.24170616,,,,,,,,,,,,,,,,,,masks/mask_001.jpg,,,,,,,,,,,,,,,,,,,,,,,,,,,,,,,,,,,,,,,,,,,0,4,4,0,1,,,,,,,,,,,,,,,,,,,,,,,,,,,,,,,,,,,,,,,,,,,,,,
780879,001,2022-11-13_23h29.29.377,Info_measure_main_exp,2022.2.2,MacIntel,59.24170616,,,,,,,,,,,,,,,,,,masks/mask_003.jpg,,,,,,,,,,,,,,,,,,,,,,,,,,,,,,,,,,,,,,,,,,,,,,,,0,0,0,2,1,,,,,,,,,,,,,,,,,,,,,,,,,,,,,,,,,,,,,,,,,
780879,001,2022-11-13_23h29.29.377,Info_measure_main_exp,2022.2.2,MacIntel,59.24170616,,,,,,,,,,,,,,,,,,masks/mask_005.jpg,,,,,,,,,,,,,,,,,,,,,,,,,,,,,,,,,,,,,,,,,,,,,,,,0,1,1,4,1,,,,,,,,,,,,,,,,,,,,,,,,,,,,,,,,,,,,,,,,,
780879,001,2022-11-13_23h29.29.377,Info_measure_main_exp,2022.2.2,MacIntel,59.24170616,,,,,,,,,,,,,,,,,,masks/mask_002.jpg,,,,,,,,,,,,,,,,,,,,,,,,,,,,,,,,,,,,,,,,,,,,,,,,0,2,2,1,1,,,,,,,,,,,,,,,,,,,,,,,,,,,,,,,,,,,,,,,,,
780879,001,2022-11-13_23h29.29.377,Info_measure_main_exp,2022.2.2,MacIntel,59.24170616,,,,,,,,,,,,,,,,,,masks/mask_004.jpg,,,,,,,,,,,,,,,,,,,,,,,,,,,,,,,,,,,,,,,,,,,,,,,,0,3,3,3,1,,,,,,,,,,,,,,,,,,,,,,,,,,,,,,,,,,,,,,,,,
780879,001,2022-11-13_23h29.29.377,Info_measure_main_exp,2022.2.2,MacIntel,59.24170616,,,,,,,,,,,,,,,,,,masks/mask_001.jpg,,,,,,,,,,,,,,,,,,,,,,,,,,,,,,,,,,,,,,,,,,,,,,,,0,4,4,0,1,,,,,,,,,,,,,,,,,,,,,,,,,,,,,,,,,,,,,,,,,
780879,001,2022-11-13_23h29.29.377,Info_measure_main_exp,2022.2.2,MacIntel,59.24170616,,,,,,,,,,,,,,,,,,,,,,,,,,,,,,7,1.131,1,,,,,,,,,,,,0,131,5,5,2214,2178,absent_patch/patch0002214.jpg,absent_patch/patch0002178.jpg,,,,,,,,,,,,,,,,,,,,0.021111111,0.113333333,1,0,0,response1disk,1,-0.002222222,-0.001111111,1,0,0,center_square,0,0,0,62,1,,,,,,,,,,,,,,,,,,,,,,,
780879,001,2022-11-13_23h29.29.377,Info_measure_main_exp,2022.2.2,MacIntel,59.24170616,,,,,,,,,,,,,,,,,,masks/mask_002.jpg,,,,,,,,,,,,,,,,,,,,,,,,,,,,,,,,,,,,,,,,,,,0,0,0,1,1,,,,,,,,,,,,,,,,,,,,,,,,,,,,,,,,,,,,,,,,,,,,,,
780879,001,2022-11-13_23h29.29.377,Info_measure_main_exp,2022.2.2,MacIntel,59.24170616,,,,,,,,,,,,,,,,,,masks/mask_001.jpg,,,,,,,,,,,,,,,,,,,,,,,,,,,,,,,,,,,,,,,,,,,0,1,1,0,1,,,,,,,,,,,,,,,,,,,,,,,,,,,,,,,,,,,,,,,,,,,,,,
780879,001,2022-11-13_23h29.29.377,Info_measure_main_exp,2022.2.2,MacIntel,59.24170616,,,,,,,,,,,,,,,,,,masks/mask_003.jpg,,,,,,,,,,,,,,,,,,,,,,,,,,,,,,,,,,,,,,,,,,,0,2,2,2,1,,,,,,,,,,,,,,,,,,,,,,,,,,,,,,,,,,,,,,,,,,,,,,
780879,001,2022-11-13_23h29.29.377,Info_measure_main_exp,2022.2.2,MacIntel,59.24170616,,,,,,,,,,,,,,,,,,masks/mask_004.jpg,,,,,,,,,,,,,,,,,,,,,,,,,,,,,,,,,,,,,,,,,,,0,3,3,3,1,,,,,,,,,,,,,,,,,,,,,,,,,,,,,,,,,,,,,,,,,,,,,,
780879,001,2022-11-13_23h29.29.377,Info_measure_main_exp,2022.2.2,MacIntel,59.24170616,,,,,,,,,,,,,,,,,,masks/mask_005.jpg,,,,,,,,,,,,,,,,,,,,,,,,,,,,,,,,,,,,,,,,,,,0,4,4,4,1,,,,,,,,,,,,,,,,,,,,,,,,,,,,,,,,,,,,,,,,,,,,,,
780879,001,2022-11-13_23h29.29.377,Info_measure_main_exp,2022.2.2,MacIntel,59.24170616,,,,,,,,,,,,,,,,,,masks/mask_004.jpg,,,,,,,,,,,,,,,,,,,,,,,,,,,,,,,,,,,,,,,,,,,,,,,,0,0,0,3,1,,,,,,,,,,,,,,,,,,,,,,,,,,,,,,,,,,,,,,,,,
780879,001,2022-11-13_23h29.29.377,Info_measure_main_exp,2022.2.2,MacIntel,59.24170616,,,,,,,,,,,,,,,,,,masks/mask_002.jpg,,,,,,,,,,,,,,,,,,,,,,,,,,,,,,,,,,,,,,,,,,,,,,,,0,1,1,1,1,,,,,,,,,,,,,,,,,,,,,,,,,,,,,,,,,,,,,,,,,
780879,001,2022-11-13_23h29.29.377,Info_measure_main_exp,2022.2.2,MacIntel,59.24170616,,,,,,,,,,,,,,,,,,masks/mask_001.jpg,,,,,,,,,,,,,,,,,,,,,,,,,,,,,,,,,,,,,,,,,,,,,,,,0,2,2,0,1,,,,,,,,,,,,,,,,,,,,,,,,,,,,,,,,,,,,,,,,,
780879,001,2022-11-13_23h29.29.377,Info_measure_main_exp,2022.2.2,MacIntel,59.24170616,,,,,,,,,,,,,,,,,,masks/mask_003.jpg,,,,,,,,,,,,,,,,,,,,,,,,,,,,,,,,,,,,,,,,,,,,,,,,0,3,3,2,1,,,,,,,,,,,,,,,,,,,,,,,,,,,,,,,,,,,,,,,,,
780879,001,2022-11-13_23h29.29.377,Info_measure_main_exp,2022.2.2,MacIntel,59.24170616,,,,,,,,,,,,,,,,,,masks/mask_005.jpg,,,,,,,,,,,,,,,,,,,,,,,,,,,,,,,,,,,,,,,,,,,,,,,,0,4,4,4,1,,,,,,,,,,,,,,,,,,,,,,,,,,,,,,,,,,,,,,,,,
780879,001,2022-11-13_23h29.29.377,Info_measure_main_exp,2022.2.2,MacIntel,59.24170616,,,,,,,,,,,,,,,,,,,,,,,,,,,,,,7,1.182,1,,,,,,,,,,,,0,131,5,5,2274,2166,absent_patch/patch0002274.jpg,absent_patch/patch0002166.jpg,,,,,,,,,,,,,,,,,,,,0.047777778,0.108888889,1,0,0,response1disk,2,0.003333333,0.003333333,1,0,0,center_square,0,1,1,78,1,,,,,,,,,,,,,,,,,,,,,,,
780879,001,2022-11-13_23h29.29.377,Info_measure_main_exp,2022.2.2,MacIntel,59.24170616,,,,,,,,,,,,,,,,,,masks/mask_002.jpg,,,,,,,,,,,,,,,,,,,,,,,,,,,,,,,,,,,,,,,,,,,0,0,0,1,1,,,,,,,,,,,,,,,,,,,,,,,,,,,,,,,,,,,,,,,,,,,,,,
780879,001,2022-11-13_23h29.29.377,Info_measure_main_exp,2022.2.2,MacIntel,59.24170616,,,,,,,,,,,,,,,,,,masks/mask_005.jpg,,,,,,,,,,,,,,,,,,,,,,,,,,,,,,,,,,,,,,,,,,,0,1,1,4,1,,,,,,,,,,,,,,,,,,,,,,,,,,,,,,,,,,,,,,,,,,,,,,
780879,001,2022-11-13_23h29.29.377,Info_measure_main_exp,2022.2.2,MacIntel,59.24170616,,,,,,,,,,,,,,,,,,masks/mask_003.jpg,,,,,,,,,,,,,,,,,,,,,,,,,,,,,,,,,,,,,,,,,,,0,2,2,2,1,,,,,,,,,,,,,,,,,,,,,,,,,,,,,,,,,,,,,,,,,,,,,,
780879,001,2022-11-13_23h29.29.377,Info_measure_main_exp,2022.2.2,MacIntel,59.24170616,,,,,,,,,,,,,,,,,,masks/mask_004.jpg,,,,,,,,,,,,,,,,,,,,,,,,,,,,,,,,,,,,,,,,,,,0,3,3,3,1,,,,,,,,,,,,,,,,,,,,,,,,,,,,,,,,,,,,,,,,,,,,,,
780879,001,2022-11-13_23h29.29.377,Info_measure_main_exp,2022.2.2,MacIntel,59.24170616,,,,,,,,,,,,,,,,,,masks/mask_001.jpg,,,,,,,,,,,,,,,,,,,,,,,,,,,,,,,,,,,,,,,,,,,0,4,4,0,1,,,,,,,,,,,,,,,,,,,,,,,,,,,,,,,,,,,,,,,,,,,,,,
780879,001,2022-11-13_23h29.29.377,Info_measure_main_exp,2022.2.2,MacIntel,59.24170616,,,,,,,,,,,,,,,,,,masks/mask_005.jpg,,,,,,,,,,,,,,,,,,,,,,,,,,,,,,,,,,,,,,,,,,,,,,,,0,0,0,4,1,,,,,,,,,,,,,,,,,,,,,,,,,,,,,,,,,,,,,,,,,
780879,001,2022-11-13_23h29.29.377,Info_measure_main_exp,2022.2.2,MacIntel,59.24170616,,,,,,,,,,,,,,,,,,masks/mask_001.jpg,,,,,,,,,,,,,,,,,,,,,,,,,,,,,,,,,,,,,,,,,,,,,,,,0,1,1,0,1,,,,,,,,,,,,,,,,,,,,,,,,,,,,,,,,,,,,,,,,,
780879,001,2022-11-13_23h29.29.377,Info_measure_main_exp,2022.2.2,MacIntel,59.24170616,,,,,,,,,,,,,,,,,,masks/mask_003.jpg,,,,,,,,,,,,,,,,,,,,,,,,,,,,,,,,,,,,,,,,,,,,,,,,0,2,2,2,1,,,,,,,,,,,,,,,,,,,,,,,,,,,,,,,,,,,,,,,,,
780879,001,2022-11-13_23h29.29.377,Info_measure_main_exp,2022.2.2,MacIntel,59.24170616,,,,,,,,,,,,,,,,,,masks/mask_002.jpg,,,,,,,,,,,,,,,,,,,,,,,,,,,,,,,,,,,,,,,,,,,,,,,,0,3,3,1,1,,,,,,,,,,,,,,,,,,,,,,,,,,,,,,,,,,,,,,,,,
780879,001,2022-11-13_23h29.29.377,Info_measure_main_exp,2022.2.2,MacIntel,59.24170616,,,,,,,,,,,,,,,,,,masks/mask_004.jpg,,,,,,,,,,,,,,,,,,,,,,,,,,,,,,,,,,,,,,,,,,,,,,,,0,4,4,3,1,,,,,,,,,,,,,,,,,,,,,,,,,,,,,,,,,,,,,,,,,
780879,001,2022-11-13_23h29.29.377,Info_measure_main_exp,2022.2.2,MacIntel,59.24170616,,,,,,,,,,,,,,,,,,,,,,,,,,,,,,7,0.95,1,,,,,,,,,,,,0,131,5,5,2250,2142,absent_patch/patch0002250.jpg,absent_patch/patch0002142.jpg,,,,,,,,,,,,,,,,,,,,0.038888889,0.111111111,1,0,0,response1disk,3,0,0.003333333,1,0,0,center_square,0,2,2,71,1,,,,,,,,,,,,,,,,,,,,,,,
780879,001,2022-11-13_23h29.29.377,Info_measure_main_exp,2022.2.2,MacIntel,59.24170616,,,,,,,,,,,,,,,,,,masks/mask_003.jpg,,,,,,,,,,,,,,,,,,,,,,,,,,,,,,,,,,,,,,,,,,,0,0,0,2,1,,,,,,,,,,,,,,,,,,,,,,,,,,,,,,,,,,,,,,,,,,,,,,
780879,001,2022-11-13_23h29.29.377,Info_measure_main_exp,2022.2.2,MacIntel,59.24170616,,,,,,,,,,,,,,,,,,masks/mask_001.jpg,,,,,,,,,,,,,,,,,,,,,,,,,,,,,,,,,,,,,,,,,,,0,1,1,0,1,,,,,,,,,,,,,,,,,,,,,,,,,,,,,,,,,,,,,,,,,,,,,,
780879,001,2022-11-13_23h29.29.377,Info_measure_main_exp,2022.2.2,MacIntel,59.24170616,,,,,,,,,,,,,,,,,,masks/mask_004.jpg,,,,,,,,,,,,,,,,,,,,,,,,,,,,,,,,,,,,,,,,,,,0,2,2,3,1,,,,,,,,,,,,,,,,,,,,,,,,,,,,,,,,,,,,,,,,,,,,,,
780879,001,2022-11-13_23h29.29.377,Info_measure_main_exp,2022.2.2,MacIntel,59.24170616,,,,,,,,,,,,,,,,,,masks/mask_002.jpg,,,,,,,,,,,,,,,,,,,,,,,,,,,,,,,,,,,,,,,,,,,0,3,3,1,1,,,,,,,,,,,,,,,,,,,,,,,,,,,,,,,,,,,,,,,,,,,,,,
780879,001,2022-11-13_23h29.29.377,Info_measure_main_exp,2022.2.2,MacIntel,59.24170616,,,,,,,,,,,,,,,,,,masks/mask_005.jpg,,,,,,,,,,,,,,,,,,,,,,,,,,,,,,,,,,,,,,,,,,,0,4,4,4,1,,,,,,,,,,,,,,,,,,,,,,,,,,,,,,,,,,,,,,,,,,,,,,
780879,001,2022-11-13_23h29.29.377,Info_measure_main_exp,2022.2.2,MacIntel,59.24170616,,,,,,,,,,,,,,,,,,masks/mask_005.jpg,,,,,,,,,,,,,,,,,,,,,,,,,,,,,,,,,,,,,,,,,,,,,,,,0,0,0,4,1,,,,,,,,,,,,,,,,,,,,,,,,,,,,,,,,,,,,,,,,,
780879,001,2022-11-13_23h29.29.377,Info_measure_main_exp,2022.2.2,MacIntel,59.24170616,,,,,,,,,,,,,,,,,,masks/mask_003.jpg,,,,,,,,,,,,,,,,,,,,,,,,,,,,,,,,,,,,,,,,,,,,,,,,0,1,1,2,1,,,,,,,,,,,,,,,,,,,,,,,,,,,,,,,,,,,,,,,,,
780879,001,2022-11-13_23h29.29.377,Info_measure_main_exp,2022.2.2,MacIntel,59.24170616,,,,,,,,,,,,,,,,,,masks/mask_001.jpg,,,,,,,,,,,,,,,,,,,,,,,,,,,,,,,,,,,,,,,,,,,,,,,,0,2,2,0,1,,,,,,,,,,,,,,,,,,,,,,,,,,,,,,,,,,,,,,,,,
780879,001,2022-11-13_23h29.29.377,Info_measure_main_exp,2022.2.2,MacIntel,59.24170616,,,,,,,,,,,,,,,,,,masks/mask_002.jpg,,,,,,,,,,,,,,,,,,,,,,,,,,,,,,,,,,,,,,,,,,,,,,,,0,3,3,1,1,,,,,,,,,,,,,,,,,,,,,,,,,,,,,,,,,,,,,,,,,
780879,001,2022-11-13_23h29.29.377,Info_measure_main_exp,2022.2.2,MacIntel,59.24170616,,,,,,,,,,,,,,,,,,masks/mask_004.jpg,,,,,,,,,,,,,,,,,,,,,,,,,,,,,,,,,,,,,,,,,,,,,,,,0,4,4,3,1,,,,,,,,,,,,,,,,,,,,,,,,,,,,,,,,,,,,,,,,,
780879,001,2022-11-13_23h29.29.377,Info_measure_main_exp,2022.2.2,MacIntel,59.24170616,,,,,,,,,,,,,,,,,,,,,,,,,,,,,,7,0.833,1,,,,,,,,,,,,0,131,5,5,1950,2238,absent_patch/patch0001950.jpg,absent_patch/patch0002238.jpg,,,,,,,,,,,,,,,,,,,,0.037777778,0.113333333,1,0,0,response1disk,4,0,0.008888889,1,0,0,center_square,0,3,3,8,1,,,,,,,,,,,,,,,,,,,,,,,
780879,001,2022-11-13_23h29.29.377,Info_measure_main_exp,2022.2.2,MacIntel,59.24170616,,,,,,,,,,,,,,,,,,masks/mask_005.jpg,,,,,,,,,,,,,,,,,,,,,,,,,,,,,,,,,,,,,,,,,,,0,0,0,4,1,,,,,,,,,,,,,,,,,,,,,,,,,,,,,,,,,,,,,,,,,,,,,,
780879,001,2022-11-13_23h29.29.377,Info_measure_main_exp,2022.2.2,MacIntel,59.24170616,,,,,,,,,,,,,,,,,,masks/mask_003.jpg,,,,,,,,,,,,,,,,,,,,,,,,,,,,,,,,,,,,,,,,,,,0,1,1,2,1,,,,,,,,,,,,,,,,,,,,,,,,,,,,,,,,,,,,,,,,,,,,,,
780879,001,2022-11-13_23h29.29.377,Info_measure_main_exp,2022.2.2,MacIntel,59.24170616,,,,,,,,,,,,,,,,,,masks/mask_002.jpg,,,,,,,,,,,,,,,,,,,,,,,,,,,,,,,,,,,,,,,,,,,0,2,2,1,1,,,,,,,,,,,,,,,,,,,,,,,,,,,,,,,,,,,,,,,,,,,,,,
780879,001,2022-11-13_23h29.29.377,Info_measure_main_exp,2022.2.2,MacIntel,59.24170616,,,,,,,,,,,,,,,,,,masks/mask_004.jpg,,,,,,,,,,,,,,,,,,,,,,,,,,,,,,,,,,,,,,,,,,,0,3,3,3,1,,,,,,,,,,,,,,,,,,,,,,,,,,,,,,,,,,,,,,,,,,,,,,
780879,001,2022-11-13_23h29.29.377,Info_measure_main_exp,2022.2.2,MacIntel,59.24170616,,,,,,,,,,,,,,,,,,masks/mask_001.jpg,,,,,,,,,,,,,,,,,,,,,,,,,,,,,,,,,,,,,,,,,,,0,4,4,0,1,,,,,,,,,,,,,,,,,,,,,,,,,,,,,,,,,,,,,,,,,,,,,,
780879,001,2022-11-13_23h29.29.377,Info_measure_main_exp,2022.2.2,MacIntel,59.24170616,,,,,,,,,,,,,,,,,,masks/mask_002.jpg,,,,,,,,,,,,,,,,,,,,,,,,,,,,,,,,,,,,,,,,,,,,,,,,0,0,0,1,1,,,,,,,,,,,,,,,,,,,,,,,,,,,,,,,,,,,,,,,,,
780879,001,2022-11-13_23h29.29.377,Info_measure_main_exp,2022.2.2,MacIntel,59.24170616,,,,,,,,,,,,,,,,,,masks/mask_005.jpg,,,,,,,,,,,,,,,,,,,,,,,,,,,,,,,,,,,,,,,,,,,,,,,,0,1,1,4,1,,,,,,,,,,,,,,,,,,,,,,,,,,,,,,,,,,,,,,,,,
780879,001,2022-11-13_23h29.29.377,Info_measure_main_exp,2022.2.2,MacIntel,59.24170616,,,,,,,,,,,,,,,,,,masks/mask_003.jpg,,,,,,,,,,,,,,,,,,,,,,,,,,,,,,,,,,,,,,,,,,,,,,,,0,2,2,2,1,,,,,,,,,,,,,,,,,,,,,,,,,,,,,,,,,,,,,,,,,
780879,001,2022-11-13_23h29.29.377,Info_measure_main_exp,2022.2.2,MacIntel,59.24170616,,,,,,,,,,,,,,,,,,masks/mask_004.jpg,,,,,,,,,,,,,,,,,,,,,,,,,,,,,,,,,,,,,,,,,,,,,,,,0,3,3,3,1,,,,,,,,,,,,,,,,,,,,,,,,,,,,,,,,,,,,,,,,,
780879,001,2022-11-13_23h29.29.377,Info_measure_main_exp,2022.2.2,MacIntel,59.24170616,,,,,,,,,,,,,,,,,,masks/mask_001.jpg,,,,,,,,,,,,,,,,,,,,,,,,,,,,,,,,,,,,,,,,,,,,,,,,0,4,4,0,1,,,,,,,,,,,,,,,,,,,,,,,,,,,,,,,,,,,,,,,,,
780879,001,2022-11-13_23h29.29.377,Info_measure_main_exp,2022.2.2,MacIntel,59.24170616,,,,,,,,,,,,,,,,,,,,,,,,,,,,,,7,0.565,1,,,,,,,,,,,,0,131,5,5,2142,2166,absent_patch/patch0002142.jpg,absent_patch/patch0002166.jpg,,,,,,,,,,,,,,,,,,,,0.041111111,0.104444444,1,0,0,response1disk,5,0.006666667,-0.002222222,1,0,0,center_square,0,4,4,66,1,,,,,,,,,,,,,,,,,,,,,,,
780879,001,2022-11-13_23h29.29.377,Info_measure_main_exp,2022.2.2,MacIntel,59.24170616,,,,,,,,,,,,,,,,,,masks/mask_002.jpg,,,,,,,,,,,,,,,,,,,,,,,,,,,,,,,,,,,,,,,,,,,0,0,0,1,1,,,,,,,,,,,,,,,,,,,,,,,,,,,,,,,,,,,,,,,,,,,,,,
780879,001,2022-11-13_23h29.29.377,Info_measure_main_exp,2022.2.2,MacIntel,59.24170616,,,,,,,,,,,,,,,,,,masks/mask_004.jpg,,,,,,,,,,,,,,,,,,,,,,,,,,,,,,,,,,,,,,,,,,,0,1,1,3,1,,,,,,,,,,,,,,,,,,,,,,,,,,,,,,,,,,,,,,,,,,,,,,
780879,001,2022-11-13_23h29.29.377,Info_measure_main_exp,2022.2.2,MacIntel,59.24170616,,,,,,,,,,,,,,,,,,masks/mask_003.jpg,,,,,,,,,,,,,,,,,,,,,,,,,,,,,,,,,,,,,,,,,,,0,2,2,2,1,,,,,,,,,,,,,,,,,,,,,,,,,,,,,,,,,,,,,,,,,,,,,,
780879,001,2022-11-13_23h29.29.377,Info_measure_main_exp,2022.2.2,MacIntel,59.24170616,,,,,,,,,,,,,,,,,,masks/mask_001.jpg,,,,,,,,,,,,,,,,,,,,,,,,,,,,,,,,,,,,,,,,,,,0,3,3,0,1,,,,,,,,,,,,,,,,,,,,,,,,,,,,,,,,,,,,,,,,,,,,,,
780879,001,2022-11-13_23h29.29.377,Info_measure_main_exp,2022.2.2,MacIntel,59.24170616,,,,,,,,,,,,,,,,,,masks/mask_005.jpg,,,,,,,,,,,,,,,,,,,,,,,,,,,,,,,,,,,,,,,,,,,0,4,4,4,1,,,,,,,,,,,,,,,,,,,,,,,,,,,,,,,,,,,,,,,,,,,,,,
780879,001,2022-11-13_23h29.29.377,Info_measure_main_exp,2022.2.2,MacIntel,59.24170616,,,,,,,,,,,,,,,,,,masks/mask_004.jpg,,,,,,,,,,,,,,,,,,,,,,,,,,,,,,,,,,,,,,,,,,,,,,,,0,0,0,3,1,,,,,,,,,,,,,,,,,,,,,,,,,,,,,,,,,,,,,,,,,
780879,001,2022-11-13_23h29.29.377,Info_measure_main_exp,2022.2.2,MacIntel,59.24170616,,,,,,,,,,,,,,,,,,masks/mask_002.jpg,,,,,,,,,,,,,,,,,,,,,,,,,,,,,,,,,,,,,,,,,,,,,,,,0,1,1,1,1,,,,,,,,,,,,,,,,,,,,,,,,,,,,,,,,,,,,,,,,,
780879,001,2022-11-13_23h29.29.377,Info_measure_main_exp,2022.2.2,MacIntel,59.24170616,,,,,,,,,,,,,,,,,,masks/mask_005.jpg,,,,,,,,,,,,,,,,,,,,,,,,,,,,,,,,,,,,,,,,,,,,,,,,0,2,2,4,1,,,,,,,,,,,,,,,,,,,,,,,,,,,,,,,,,,,,,,,,,
780879,001,2022-11-13_23h29.29.377,Info_measure_main_exp,2022.2.2,MacIntel,59.24170616,,,,,,,,,,,,,,,,,,masks/mask_003.jpg,,,,,,,,,,,,,,,,,,,,,,,,,,,,,,,,,,,,,,,,,,,,,,,,0,3,3,2,1,,,,,,,,,,,,,,,,,,,,,,,,,,,,,,,,,,,,,,,,,
780879,001,2022-11-13_23h29.29.377,Info_measure_main_exp,2022.2.2,MacIntel,59.24170616,,,,,,,,,,,,,,,,,,masks/mask_001.jpg,,,,,,,,,,,,,,,,,,,,,,,,,,,,,,,,,,,,,,,,,,,,,,,,0,4,4,0,1,,,,,,,,,,,,,,,,,,,,,,,,,,,,,,,,,,,,,,,,,
780879,001,2022-11-13_23h29.29.377,Info_measure_main_exp,2022.2.2,MacIntel,59.24170616,,,,,,,,,,,,,,,,,,,,,,,,,,,,,,7,0.983,1,,,,,,,,,,,,0,131,5,5,2298,2190,absent_patch/patch0002298.jpg,absent_patch/patch0002190.jpg,,,,,,,,,,,,,,,,,,,,0.053333333,0.118888889,1,0,0,response1disk,6,0,0.004444444,1,0,0,center_square,0,5,5,20,1,,,,,,,,,,,,,,,,,,,,,,,
780879,001,2022-11-13_23h29.29.377,Info_measure_main_exp,2022.2.2,MacIntel,59.24170616,,,,,,,,,,,,,,,,,,masks/mask_003.jpg,,,,,,,,,,,,,,,,,,,,,,,,,,,,,,,,,,,,,,,,,,,0,0,0,2,1,,,,,,,,,,,,,,,,,,,,,,,,,,,,,,,,,,,,,,,,,,,,,,
780879,001,2022-11-13_23h29.29.377,Info_measure_main_exp,2022.2.2,MacIntel,59.24170616,,,,,,,,,,,,,,,,,,masks/mask_005.jpg,,,,,,,,,,,,,,,,,,,,,,,,,,,,,,,,,,,,,,,,,,,0,1,1,4,1,,,,,,,,,,,,,,,,,,,,,,,,,,,,,,,,,,,,,,,,,,,,,,
780879,001,2022-11-13_23h29.29.377,Info_measure_main_exp,2022.2.2,MacIntel,59.24170616,,,,,,,,,,,,,,,,,,masks/mask_004.jpg,,,,,,,,,,,,,,,,,,,,,,,,,,,,,,,,,,,,,,,,,,,0,2,2,3,1,,,,,,,,,,,,,,,,,,,,,,,,,,,,,,,,,,,,,,,,,,,,,,
780879,001,2022-11-13_23h29.29.377,Info_measure_main_exp,2022.2.2,MacIntel,59.24170616,,,,,,,,,,,,,,,,,,masks/mask_002.jpg,,,,,,,,,,,,,,,,,,,,,,,,,,,,,,,,,,,,,,,,,,,0,3,3,1,1,,,,,,,,,,,,,,,,,,,,,,,,,,,,,,,,,,,,,,,,,,,,,,
780879,001,2022-11-13_23h29.29.377,Info_measure_main_exp,2022.2.2,MacIntel,59.24170616,,,,,,,,,,,,,,,,,,masks/mask_001.jpg,,,,,,,,,,,,,,,,,,,,,,,,,,,,,,,,,,,,,,,,,,,0,4,4,0,1,,,,,,,,,,,,,,,,,,,,,,,,,,,,,,,,,,,,,,,,,,,,,,
780879,001,2022-11-13_23h29.29.377,Info_measure_main_exp,2022.2.2,MacIntel,59.24170616,,,,,,,,,,,,,,,,,,masks/mask_001.jpg,,,,,,,,,,,,,,,,,,,,,,,,,,,,,,,,,,,,,,,,,,,,,,,,0,0,0,0,1,,,,,,,,,,,,,,,,,,,,,,,,,,,,,,,,,,,,,,,,,
780879,001,2022-11-13_23h29.29.377,Info_measure_main_exp,2022.2.2,MacIntel,59.24170616,,,,,,,,,,,,,,,,,,masks/mask_005.jpg,,,,,,,,,,,,,,,,,,,,,,,,,,,,,,,,,,,,,,,,,,,,,,,,0,1,1,4,1,,,,,,,,,,,,,,,,,,,,,,,,,,,,,,,,,,,,,,,,,
780879,001,2022-11-13_23h29.29.377,Info_measure_main_exp,2022.2.2,MacIntel,59.24170616,,,,,,,,,,,,,,,,,,masks/mask_003.jpg,,,,,,,,,,,,,,,,,,,,,,,,,,,,,,,,,,,,,,,,,,,,,,,,0,2,2,2,1,,,,,,,,,,,,,,,,,,,,,,,,,,,,,,,,,,,,,,,,,
780879,001,2022-11-13_23h29.29.377,Info_measure_main_exp,2022.2.2,MacIntel,59.24170616,,,,,,,,,,,,,,,,,,masks/mask_002.jpg,,,,,,,,,,,,,,,,,,,,,,,,,,,,,,,,,,,,,,,,,,,,,,,,0,3,3,1,1,,,,,,,,,,,,,,,,,,,,,,,,,,,,,,,,,,,,,,,,,
780879,001,2022-11-13_23h29.29.377,Info_measure_main_exp,2022.2.2,MacIntel,59.24170616,,,,,,,,,,,,,,,,,,masks/mask_004.jpg,,,,,,,,,,,,,,,,,,,,,,,,,,,,,,,,,,,,,,,,,,,,,,,,0,4,4,3,1,,,,,,,,,,,,,,,,,,,,,,,,,,,,,,,,,,,,,,,,,
780879,001,2022-11-13_23h29.29.377,Info_measure_main_exp,2022.2.2,MacIntel,59.24170616,,,,,,,,,,,,,,,,,,,,,,,,,,,,,,7,1.067,1,,,,,,,,,,,,0,131,5,5,2274,1974,absent_patch/patch0002274.jpg,absent_patch/patch0001974.jpg,,,,,,,,,,,,,,,,,,,,0.033333333,0.09,1,0,0,response1disk,7,0.001111111,0.006666667,1,0,0,center_square,0,6,6,90,1,,,,,,,,,,,,,,,,,,,,,,,
780879,001,2022-11-13_23h29.29.377,Info_measure_main_exp,2022.2.2,MacIntel,59.24170616,,,,,,,,,,,,,,,,,,masks/mask_005.jpg,,,,,,,,,,,,,,,,,,,,,,,,,,,,,,,,,,,,,,,,,,,0,0,0,4,1,,,,,,,,,,,,,,,,,,,,,,,,,,,,,,,,,,,,,,,,,,,,,,
780879,001,2022-11-13_23h29.29.377,Info_measure_main_exp,2022.2.2,MacIntel,59.24170616,,,,,,,,,,,,,,,,,,masks/mask_003.jpg,,,,,,,,,,,,,,,,,,,,,,,,,,,,,,,,,,,,,,,,,,,0,1,1,2,1,,,,,,,,,,,,,,,,,,,,,,,,,,,,,,,,,,,,,,,,,,,,,,
780879,001,2022-11-13_23h29.29.377,Info_measure_main_exp,2022.2.2,MacIntel,59.24170616,,,,,,,,,,,,,,,,,,masks/mask_002.jpg,,,,,,,,,,,,,,,,,,,,,,,,,,,,,,,,,,,,,,,,,,,0,2,2,1,1,,,,,,,,,,,,,,,,,,,,,,,,,,,,,,,,,,,,,,,,,,,,,,
780879,001,2022-11-13_23h29.29.377,Info_measure_main_exp,2022.2.2,MacIntel,59.24170616,,,,,,,,,,,,,,,,,,masks/mask_004.jpg,,,,,,,,,,,,,,,,,,,,,,,,,,,,,,,,,,,,,,,,,,,0,3,3,3,1,,,,,,,,,,,,,,,,,,,,,,,,,,,,,,,,,,,,,,,,,,,,,,
780879,001,2022-11-13_23h29.29.377,Info_measure_main_exp,2022.2.2,MacIntel,59.24170616,,,,,,,,,,,,,,,,,,masks/mask_001.jpg,,,,,,,,,,,,,,,,,,,,,,,,,,,,,,,,,,,,,,,,,,,0,4,4,0,1,,,,,,,,,,,,,,,,,,,,,,,,,,,,,,,,,,,,,,,,,,,,,,
780879,001,2022-11-13_23h29.29.377,Info_measure_main_exp,2022.2.2,MacIntel,59.24170616,,,,,,,,,,,,,,,,,,masks/mask_002.jpg,,,,,,,,,,,,,,,,,,,,,,,,,,,,,,,,,,,,,,,,,,,,,,,,0,0,0,1,1,,,,,,,,,,,,,,,,,,,,,,,,,,,,,,,,,,,,,,,,,
780879,001,2022-11-13_23h29.29.377,Info_measure_main_exp,2022.2.2,MacIntel,59.24170616,,,,,,,,,,,,,,,,,,masks/mask_003.jpg,,,,,,,,,,,,,,,,,,,,,,,,,,,,,,,,,,,,,,,,,,,,,,,,0,1,1,2,1,,,,,,,,,,,,,,,,,,,,,,,,,,,,,,,,,,,,,,,,,
780879,001,2022-11-13_23h29.29.377,Info_measure_main_exp,2022.2.2,MacIntel,59.24170616,,,,,,,,,,,,,,,,,,masks/mask_001.jpg,,,,,,,,,,,,,,,,,,,,,,,,,,,,,,,,,,,,,,,,,,,,,,,,0,2,2,0,1,,,,,,,,,,,,,,,,,,,,,,,,,,,,,,,,,,,,,,,,,
780879,001,2022-11-13_23h29.29.377,Info_measure_main_exp,2022.2.2,MacIntel,59.24170616,,,,,,,,,,,,,,,,,,masks/mask_004.jpg,,,,,,,,,,,,,,,,,,,,,,,,,,,,,,,,,,,,,,,,,,,,,,,,0,3,3,3,1,,,,,,,,,,,,,,,,,,,,,,,,,,,,,,,,,,,,,,,,,
780879,001,2022-11-13_23h29.29.377,Info_measure_main_exp,2022.2.2,MacIntel,59.24170616,,,,,,,,,,,,,,,,,,masks/mask_005.jpg,,,,,,,,,,,,,,,,,,,,,,,,,,,,,,,,,,,,,,,,,,,,,,,,0,4,4,4,1,,,,,,,,,,,,,,,,,,,,,,,,,,,,,,,,,,,,,,,,,
780879,001,2022-11-13_23h29.29.377,Info_measure_main_exp,2022.2.2,MacIntel,59.24170616,,,,,,,,,,,,,,,,,,,,,,,,,,,,,,7,1.001,1,,,,,,,,,,,,1,131,5,5,1,2154,present_patch/cong_131_5_a.jpg,absent_patch/patch0002154.jpg,,,,,,,,,,,,,,,,,,,,0.038888889,0.07,1,0,0,response1disk,8,0.003333333,0.002222222,1,0,0,center_square,0,7,7,87,1,,,,,,,,,,,,,,,,,,,,,,,
780879,001,2022-11-13_23h29.29.377,Info_measure_main_exp,2022.2.2,MacIntel,59.24170616,,,,,,,,,,,,,,,,,,masks/mask_001.jpg,,,,,,,,,,,,,,,,,,,,,,,,,,,,,,,,,,,,,,,,,,,0,0,0,0,1,,,,,,,,,,,,,,,,,,,,,,,,,,,,,,,,,,,,,,,,,,,,,,
780879,001,2022-11-13_23h29.29.377,Info_measure_main_exp,2022.2.2,MacIntel,59.24170616,,,,,,,,,,,,,,,,,,masks/mask_004.jpg,,,,,,,,,,,,,,,,,,,,,,,,,,,,,,,,,,,,,,,,,,,0,1,1,3,1,,,,,,,,,,,,,,,,,,,,,,,,,,,,,,,,,,,,,,,,,,,,,,
780879,001,2022-11-13_23h29.29.377,Info_measure_main_exp,2022.2.2,MacIntel,59.24170616,,,,,,,,,,,,,,,,,,masks/mask_005.jpg,,,,,,,,,,,,,,,,,,,,,,,,,,,,,,,,,,,,,,,,,,,0,2,2,4,1,,,,,,,,,,,,,,,,,,,,,,,,,,,,,,,,,,,,,,,,,,,,,,
780879,001,2022-11-13_23h29.29.377,Info_measure_main_exp,2022.2.2,MacIntel,59.24170616,,,,,,,,,,,,,,,,,,masks/mask_003.jpg,,,,,,,,,,,,,,,,,,,,,,,,,,,,,,,,,,,,,,,,,,,0,3,3,2,1,,,,,,,,,,,,,,,,,,,,,,,,,,,,,,,,,,,,,,,,,,,,,,
780879,001,2022-11-13_23h29.29.377,Info_measure_main_exp,2022.2.2,MacIntel,59.24170616,,,,,,,,,,,,,,,,,,masks/mask_002.jpg,,,,,,,,,,,,,,,,,,,,,,,,,,,,,,,,,,,,,,,,,,,0,4,4,1,1,,,,,,,,,,,,,,,,,,,,,,,,,,,,,,,,,,,,,,,,,,,,,,
780879,001,2022-11-13_23h29.29.377,Info_measure_main_exp,2022.2.2,MacIntel,59.24170616,,,,,,,,,,,,,,,,,,masks/mask_004.jpg,,,,,,,,,,,,,,,,,,,,,,,,,,,,,,,,,,,,,,,,,,,,,,,,0,0,0,3,1,,,,,,,,,,,,,,,,,,,,,,,,,,,,,,,,,,,,,,,,,
780879,001,2022-11-13_23h29.29.377,Info_measure_main_exp,2022.2.2,MacIntel,59.24170616,,,,,,,,,,,,,,,,,,masks/mask_002.jpg,,,,,,,,,,,,,,,,,,,,,,,,,,,,,,,,,,,,,,,,,,,,,,,,0,1,1,1,1,,,,,,,,,,,,,,,,,,,,,,,,,,,,,,,,,,,,,,,,,
780879,001,2022-11-13_23h29.29.377,Info_measure_main_exp,2022.2.2,MacIntel,59.24170616,,,,,,,,,,,,,,,,,,masks/mask_003.jpg,,,,,,,,,,,,,,,,,,,,,,,,,,,,,,,,,,,,,,,,,,,,,,,,0,2,2,2,1,,,,,,,,,,,,,,,,,,,,,,,,,,,,,,,,,,,,,,,,,
780879,001,2022-11-13_23h29.29.377,Info_measure_main_exp,2022.2.2,MacIntel,59.24170616,,,,,,,,,,,,,,,,,,masks/mask_005.jpg,,,,,,,,,,,,,,,,,,,,,,,,,,,,,,,,,,,,,,,,,,,,,,,,0,3,3,4,1,,,,,,,,,,,,,,,,,,,,,,,,,,,,,,,,,,,,,,,,,
780879,001,2022-11-13_23h29.29.377,Info_measure_main_exp,2022.2.2,MacIntel,59.24170616,,,,,,,,,,,,,,,,,,masks/mask_001.jpg,,,,,,,,,,,,,,,,,,,,,,,,,,,,,,,,,,,,,,,,,,,,,,,,0,4,4,0,1,,,,,,,,,,,,,,,,,,,,,,,,,,,,,,,,,,,,,,,,,
780879,001,2022-11-13_23h29.29.377,Info_measure_main_exp,2022.2.2,MacIntel,59.24170616,,,,,,,,,,,,,,,,,,,,,,,,,,,,,,7,0.616,1,,,,,,,,,,,,0,131,5,5,2142,2082,absent_patch/patch0002142.jpg,absent_patch/patch0002082.jpg,,,,,,,,,,,,,,,,,,,,0.035555556,0.08,1,0,0,response1disk,9,0.005555556,0.005555556,1,0,0,center_square,0,8,8,88,1,,,,,,,,,,,,,,,,,,,,,,,
780879,001,2022-11-13_23h29.29.377,Info_measure_main_exp,2022.2.2,MacIntel,59.24170616,,,,,,,,,,,,,,,,,,masks/mask_002.jpg,,,,,,,,,,,,,,,,,,,,,,,,,,,,,,,,,,,,,,,,,,,0,0,0,1,1,,,,,,,,,,,,,,,,,,,,,,,,,,,,,,,,,,,,,,,,,,,,,,
780879,001,2022-11-13_23h29.29.377,Info_measure_main_exp,2022.2.2,MacIntel,59.24170616,,,,,,,,,,,,,,,,,,masks/mask_003.jpg,,,,,,,,,,,,,,,,,,,,,,,,,,,,,,,,,,,,,,,,,,,0,1,1,2,1,,,,,,,,,,,,,,,,,,,,,,,,,,,,,,,,,,,,,,,,,,,,,,
780879,001,2022-11-13_23h29.29.377,Info_measure_main_exp,2022.2.2,MacIntel,59.24170616,,,,,,,,,,,,,,,,,,masks/mask_004.jpg,,,,,,,,,,,,,,,,,,,,,,,,,,,,,,,,,,,,,,,,,,,0,2,2,3,1,,,,,,,,,,,,,,,,,,,,,,,,,,,,,,,,,,,,,,,,,,,,,,
780879,001,2022-11-13_23h29.29.377,Info_measure_main_exp,2022.2.2,MacIntel,59.24170616,,,,,,,,,,,,,,,,,,masks/mask_005.jpg,,,,,,,,,,,,,,,,,,,,,,,,,,,,,,,,,,,,,,,,,,,0,3,3,4,1,,,,,,,,,,,,,,,,,,,,,,,,,,,,,,,,,,,,,,,,,,,,,,
780879,001,2022-11-13_23h29.29.377,Info_measure_main_exp,2022.2.2,MacIntel,59.24170616,,,,,,,,,,,,,,,,,,masks/mask_001.jpg,,,,,,,,,,,,,,,,,,,,,,,,,,,,,,,,,,,,,,,,,,,0,4,4,0,1,,,,,,,,,,,,,,,,,,,,,,,,,,,,,,,,,,,,,,,,,,,,,,
780879,001,2022-11-13_23h29.29.377,Info_measure_main_exp,2022.2.2,MacIntel,59.24170616,,,,,,,,,,,,,,,,,,masks/mask_003.jpg,,,,,,,,,,,,,,,,,,,,,,,,,,,,,,,,,,,,,,,,,,,,,,,,0,0,0,2,1,,,,,,,,,,,,,,,,,,,,,,,,,,,,,,,,,,,,,,,,,
780879,001,2022-11-13_23h29.29.377,Info_measure_main_exp,2022.2.2,MacIntel,59.24170616,,,,,,,,,,,,,,,,,,masks/mask_004.jpg,,,,,,,,,,,,,,,,,,,,,,,,,,,,,,,,,,,,,,,,,,,,,,,,0,1,1,3,1,,,,,,,,,,,,,,,,,,,,,,,,,,,,,,,,,,,,,,,,,
780879,001,2022-11-13_23h29.29.377,Info_measure_main_exp,2022.2.2,MacIntel,59.24170616,,,,,,,,,,,,,,,,,,masks/mask_005.jpg,,,,,,,,,,,,,,,,,,,,,,,,,,,,,,,,,,,,,,,,,,,,,,,,0,2,2,4,1,,,,,,,,,,,,,,,,,,,,,,,,,,,,,,,,,,,,,,,,,
780879,001,2022-11-13_23h29.29.377,Info_measure_main_exp,2022.2.2,MacIntel,59.24170616,,,,,,,,,,,,,,,,,,masks/mask_001.jpg,,,,,,,,,,,,,,,,,,,,,,,,,,,,,,,,,,,,,,,,,,,,,,,,0,3,3,0,1,,,,,,,,,,,,,,,,,,,,,,,,,,,,,,,,,,,,,,,,,
780879,001,2022-11-13_23h29.29.377,Info_measure_main_exp,2022.2.2,MacIntel,59.24170616,,,,,,,,,,,,,,,,,,masks/mask_002.jpg,,,,,,,,,,,,,,,,,,,,,,,,,,,,,,,,,,,,,,,,,,,,,,,,0,4,4,1,1,,,,,,,,,,,,,,,,,,,,,,,,,,,,,,,,,,,,,,,,,
780879,001,2022-11-13_23h29.29.377,Info_measure_main_exp,2022.2.2,MacIntel,59.24170616,,,,,,,,,,,,,,,,,,,,,,,,,,,,,,7,0.766,1,,,,,,,,,,,,0,131,5,5,2274,2190,absent_patch/patch0002274.jpg,absent_patch/patch0002190.jpg,,,,,,,,,,,,,,,,,,,,0.03,0.075555556,1,0,0,response1disk,10,0.006666667,0.01,1,0,0,center_square,0,9,9,116,1,,,,,,,,,,,,,,,,,,,,,,,
780879,001,2022-11-13_23h29.29.377,Info_measure_main_exp,2022.2.2,MacIntel,59.24170616,,,,,,,,,,,,,,,,,,masks/mask_004.jpg,,,,,,,,,,,,,,,,,,,,,,,,,,,,,,,,,,,,,,,,,,,0,0,0,3,1,,,,,,,,,,,,,,,,,,,,,,,,,,,,,,,,,,,,,,,,,,,,,,
780879,001,2022-11-13_23h29.29.377,Info_measure_main_exp,2022.2.2,MacIntel,59.24170616,,,,,,,,,,,,,,,,,,masks/mask_002.jpg,,,,,,,,,,,,,,,,,,,,,,,,,,,,,,,,,,,,,,,,,,,0,1,1,1,1,,,,,,,,,,,,,,,,,,,,,,,,,,,,,,,,,,,,,,,,,,,,,,
780879,001,2022-11-13_23h29.29.377,Info_measure_main_exp,2022.2.2,MacIntel,59.24170616,,,,,,,,,,,,,,,,,,masks/mask_003.jpg,,,,,,,,,,,,,,,,,,,,,,,,,,,,,,,,,,,,,,,,,,,0,2,2,2,1,,,,,,,,,,,,,,,,,,,,,,,,,,,,,,,,,,,,,,,,,,,,,,
780879,001,2022-11-13_23h29.29.377,Info_measure_main_exp,2022.2.2,MacIntel,59.24170616,,,,,,,,,,,,,,,,,,masks/mask_005.jpg,,,,,,,,,,,,,,,,,,,,,,,,,,,,,,,,,,,,,,,,,,,0,3,3,4,1,,,,,,,,,,,,,,,,,,,,,,,,,,,,,,,,,,,,,,,,,,,,,,
780879,001,2022-11-13_23h29.29.377,Info_measure_main_exp,2022.2.2,MacIntel,59.24170616,,,,,,,,,,,,,,,,,,masks/mask_001.jpg,,,,,,,,,,,,,,,,,,,,,,,,,,,,,,,,,,,,,,,,,,,0,4,4,0,1,,,,,,,,,,,,,,,,,,,,,,,,,,,,,,,,,,,,,,,,,,,,,,
780879,001,2022-11-13_23h29.29.377,Info_measure_main_exp,2022.2.2,MacIntel,59.24170616,,,,,,,,,,,,,,,,,,masks/mask_005.jpg,,,,,,,,,,,,,,,,,,,,,,,,,,,,,,,,,,,,,,,,,,,,,,,,0,0,0,4,1,,,,,,,,,,,,,,,,,,,,,,,,,,,,,,,,,,,,,,,,,
780879,001,2022-11-13_23h29.29.377,Info_measure_main_exp,2022.2.2,MacIntel,59.24170616,,,,,,,,,,,,,,,,,,masks/mask_003.jpg,,,,,,,,,,,,,,,,,,,,,,,,,,,,,,,,,,,,,,,,,,,,,,,,0,1,1,2,1,,,,,,,,,,,,,,,,,,,,,,,,,,,,,,,,,,,,,,,,,
780879,001,2022-11-13_23h29.29.377,Info_measure_main_exp,2022.2.2,MacIntel,59.24170616,,,,,,,,,,,,,,,,,,masks/mask_002.jpg,,,,,,,,,,,,,,,,,,,,,,,,,,,,,,,,,,,,,,,,,,,,,,,,0,2,2,1,1,,,,,,,,,,,,,,,,,,,,,,,,,,,,,,,,,,,,,,,,,
780879,001,2022-11-13_23h29.29.377,Info_measure_main_exp,2022.2.2,MacIntel,59.24170616,,,,,,,,,,,,,,,,,,masks/mask_004.jpg,,,,,,,,,,,,,,,,,,,,,,,,,,,,,,,,,,,,,,,,,,,,,,,,0,3,3,3,1,,,,,,,,,,,,,,,,,,,,,,,,,,,,,,,,,,,,,,,,,
780879,001,2022-11-13_23h29.29.377,Info_measure_main_exp,2022.2.2,MacIntel,59.24170616,,,,,,,,,,,,,,,,,,masks/mask_001.jpg,,,,,,,,,,,,,,,,,,,,,,,,,,,,,,,,,,,,,,,,,,,,,,,,0,4,4,0,1,,,,,,,,,,,,,,,,,,,,,,,,,,,,,,,,,,,,,,,,,
780879,001,2022-11-13_23h29.29.377,Info_measure_main_exp,2022.2.2,MacIntel,59.24170616,,,,,,,,,,,,,,,,,,,,,,,,,,,,,,7,0.667,1,,,,,,,,,,,,1,131,5,5,1,2274,present_patch/cong_131_5_a.jpg,absent_patch/patch0002274.jpg,,,,,,,,,,,,,,,,,,,,0.032222222,0.087777778,1,0,0,response1disk,11,0.004444444,0.006666667,1,0,0,center_square,0,10,10,105,1,,,,,,,,,,,,,,,,,,,,,,,
780879,001,2022-11-13_23h29.29.377,Info_measure_main_exp,2022.2.2,MacIntel,59.24170616,,,,,,,,,,,,,,,,,,masks/mask_002.jpg,,,,,,,,,,,,,,,,,,,,,,,,,,,,,,,,,,,,,,,,,,,0,0,0,1,1,,,,,,,,,,,,,,,,,,,,,,,,,,,,,,,,,,,,,,,,,,,,,,
780879,001,2022-11-13_23h29.29.377,Info_measure_main_exp,2022.2.2,MacIntel,59.24170616,,,,,,,,,,,,,,,,,,masks/mask_005.jpg,,,,,,,,,,,,,,,,,,,,,,,,,,,,,,,,,,,,,,,,,,,0,1,1,4,1,,,,,,,,,,,,,,,,,,,,,,,,,,,,,,,,,,,,,,,,,,,,,,
780879,001,2022-11-13_23h29.29.377,Info_measure_main_exp,2022.2.2,MacIntel,59.24170616,,,,,,,,,,,,,,,,,,masks/mask_003.jpg,,,,,,,,,,,,,,,,,,,,,,,,,,,,,,,,,,,,,,,,,,,0,2,2,2,1,,,,,,,,,,,,,,,,,,,,,,,,,,,,,,,,,,,,,,,,,,,,,,
780879,001,2022-11-13_23h29.29.377,Info_measure_main_exp,2022.2.2,MacIntel,59.24170616,,,,,,,,,,,,,,,,,,masks/mask_001.jpg,,,,,,,,,,,,,,,,,,,,,,,,,,,,,,,,,,,,,,,,,,,0,3,3,0,1,,,,,,,,,,,,,,,,,,,,,,,,,,,,,,,,,,,,,,,,,,,,,,
780879,001,2022-11-13_23h29.29.377,Info_measure_main_exp,2022.2.2,MacIntel,59.24170616,,,,,,,,,,,,,,,,,,masks/mask_004.jpg,,,,,,,,,,,,,,,,,,,,,,,,,,,,,,,,,,,,,,,,,,,0,4,4,3,1,,,,,,,,,,,,,,,,,,,,,,,,,,,,,,,,,,,,,,,,,,,,,,
780879,001,2022-11-13_23h29.29.377,Info_measure_main_exp,2022.2.2,MacIntel,59.24170616,,,,,,,,,,,,,,,,,,masks/mask_002.jpg,,,,,,,,,,,,,,,,,,,,,,,,,,,,,,,,,,,,,,,,,,,,,,,,0,0,0,1,1,,,,,,,,,,,,,,,,,,,,,,,,,,,,,,,,,,,,,,,,,
780879,001,2022-11-13_23h29.29.377,Info_measure_main_exp,2022.2.2,MacIntel,59.24170616,,,,,,,,,,,,,,,,,,masks/mask_001.jpg,,,,,,,,,,,,,,,,,,,,,,,,,,,,,,,,,,,,,,,,,,,,,,,,0,1,1,0,1,,,,,,,,,,,,,,,,,,,,,,,,,,,,,,,,,,,,,,,,,
780879,001,2022-11-13_23h29.29.377,Info_measure_main_exp,2022.2.2,MacIntel,59.24170616,,,,,,,,,,,,,,,,,,masks/mask_004.jpg,,,,,,,,,,,,,,,,,,,,,,,,,,,,,,,,,,,,,,,,,,,,,,,,0,2,2,3,1,,,,,,,,,,,,,,,,,,,,,,,,,,,,,,,,,,,,,,,,,
780879,001,2022-11-13_23h29.29.377,Info_measure_main_exp,2022.2.2,MacIntel,59.24170616,,,,,,,,,,,,,,,,,,masks/mask_003.jpg,,,,,,,,,,,,,,,,,,,,,,,,,,,,,,,,,,,,,,,,,,,,,,,,0,3,3,2,1,,,,,,,,,,,,,,,,,,,,,,,,,,,,,,,,,,,,,,,,,
780879,001,2022-11-13_23h29.29.377,Info_measure_main_exp,2022.2.2,MacIntel,59.24170616,,,,,,,,,,,,,,,,,,masks/mask_005.jpg,,,,,,,,,,,,,,,,,,,,,,,,,,,,,,,,,,,,,,,,,,,,,,,,0,4,4,4,1,,,,,,,,,,,,,,,,,,,,,,,,,,,,,,,,,,,,,,,,,
780879,001,2022-11-13_23h29.29.377,Info_measure_main_exp,2022.2.2,MacIntel,59.24170616,,,,,,,,,,,,,,,,,,,,,,,,,,,,,,7,0.615,1,,,,,,,,,,,,0,131,5,5,1974,2298,absent_patch/patch0001974.jpg,absent_patch/patch0002298.jpg,,,,,,,,,,,,,,,,,,,,0.028888889,0.064444444,1,0,0,response1disk,12,0.005555556,-0.004444444,1,0,0,center_square,0,11,11,6,1,,,,,,,,,,,,,,,,,,,,,,,
780879,001,2022-11-13_23h29.29.377,Info_measure_main_exp,2022.2.2,MacIntel,59.24170616,,,,,,,,,,,,,,,,,,masks/mask_004.jpg,,,,,,,,,,,,,,,,,,,,,,,,,,,,,,,,,,,,,,,,,,,0,0,0,3,1,,,,,,,,,,,,,,,,,,,,,,,,,,,,,,,,,,,,,,,,,,,,,,
780879,001,2022-11-13_23h29.29.377,Info_measure_main_exp,2022.2.2,MacIntel,59.24170616,,,,,,,,,,,,,,,,,,masks/mask_003.jpg,,,,,,,,,,,,,,,,,,,,,,,,,,,,,,,,,,,,,,,,,,,0,1,1,2,1,,,,,,,,,,,,,,,,,,,,,,,,,,,,,,,,,,,,,,,,,,,,,,
780879,001,2022-11-13_23h29.29.377,Info_measure_main_exp,2022.2.2,MacIntel,59.24170616,,,,,,,,,,,,,,,,,,masks/mask_002.jpg,,,,,,,,,,,,,,,,,,,,,,,,,,,,,,,,,,,,,,,,,,,0,2,2,1,1,,,,,,,,,,,,,,,,,,,,,,,,,,,,,,,,,,,,,,,,,,,,,,
780879,001,2022-11-13_23h29.29.377,Info_measure_main_exp,2022.2.2,MacIntel,59.24170616,,,,,,,,,,,,,,,,,,masks/mask_001.jpg,,,,,,,,,,,,,,,,,,,,,,,,,,,,,,,,,,,,,,,,,,,0,3,3,0,1,,,,,,,,,,,,,,,,,,,,,,,,,,,,,,,,,,,,,,,,,,,,,,
780879,001,2022-11-13_23h29.29.377,Info_measure_main_exp,2022.2.2,MacIntel,59.24170616,,,,,,,,,,,,,,,,,,masks/mask_005.jpg,,,,,,,,,,,,,,,,,,,,,,,,,,,,,,,,,,,,,,,,,,,0,4,4,4,1,,,,,,,,,,,,,,,,,,,,,,,,,,,,,,,,,,,,,,,,,,,,,,
780879,001,2022-11-13_23h29.29.377,Info_measure_main_exp,2022.2.2,MacIntel,59.24170616,,,,,,,,,,,,,,,,,,masks/mask_004.jpg,,,,,,,,,,,,,,,,,,,,,,,,,,,,,,,,,,,,,,,,,,,,,,,,0,0,0,3,1,,,,,,,,,,,,,,,,,,,,,,,,,,,,,,,,,,,,,,,,,
780879,001,2022-11-13_23h29.29.377,Info_measure_main_exp,2022.2.2,MacIntel,59.24170616,,,,,,,,,,,,,,,,,,masks/mask_002.jpg,,,,,,,,,,,,,,,,,,,,,,,,,,,,,,,,,,,,,,,,,,,,,,,,0,1,1,1,1,,,,,,,,,,,,,,,,,,,,,,,,,,,,,,,,,,,,,,,,,
780879,001,2022-11-13_23h29.29.377,Info_measure_main_exp,2022.2.2,MacIntel,59.24170616,,,,,,,,,,,,,,,,,,masks/mask_003.jpg,,,,,,,,,,,,,,,,,,,,,,,,,,,,,,,,,,,,,,,,,,,,,,,,0,2,2,2,1,,,,,,,,,,,,,,,,,,,,,,,,,,,,,,,,,,,,,,,,,
780879,001,2022-11-13_23h29.29.377,Info_measure_main_exp,2022.2.2,MacIntel,59.24170616,,,,,,,,,,,,,,,,,,masks/mask_001.jpg,,,,,,,,,,,,,,,,,,,,,,,,,,,,,,,,,,,,,,,,,,,,,,,,0,3,3,0,1,,,,,,,,,,,,,,,,,,,,,,,,,,,,,,,,,,,,,,,,,
780879,001,2022-11-13_23h29.29.377,Info_measure_main_exp,2022.2.2,MacIntel,59.24170616,,,,,,,,,,,,,,,,,,masks/mask_005.jpg,,,,,,,,,,,,,,,,,,,,,,,,,,,,,,,,,,,,,,,,,,,,,,,,0,4,4,4,1,,,,,,,,,,,,,,,,,,,,,,,,,,,,,,,,,,,,,,,,,
780879,001,2022-11-13_23h29.29.377,Info_measure_main_exp,2022.2.2,MacIntel,59.24170616,,,,,,,,,,,,,,,,,,,,,,,,,,,,,,7,0.55,1,,,,,,,,,,,,1,131,5,5,2238,1,absent_patch/patch0002238.jpg,present_patch/cong_131_5_a.jpg,,,,,,,,,,,,,,,,,,,,0.034444444,0.061111111,1,0,0,response1disk,13,0.006666667,0,1,0,0,center_square,0,12,12,104,1,,,,,,,,,,,,,,,,,,,,,,,
780879,001,2022-11-13_23h29.29.377,Info_measure_main_exp,2022.2.2,MacIntel,59.24170616,,,,,,,,,,,,,,,,,,masks/mask_004.jpg,,,,,,,,,,,,,,,,,,,,,,,,,,,,,,,,,,,,,,,,,,,0,0,0,3,1,,,,,,,,,,,,,,,,,,,,,,,,,,,,,,,,,,,,,,,,,,,,,,
780879,001,2022-11-13_23h29.29.377,Info_measure_main_exp,2022.2.2,MacIntel,59.24170616,,,,,,,,,,,,,,,,,,masks/mask_001.jpg,,,,,,,,,,,,,,,,,,,,,,,,,,,,,,,,,,,,,,,,,,,0,1,1,0,1,,,,,,,,,,,,,,,,,,,,,,,,,,,,,,,,,,,,,,,,,,,,,,
780879,001,2022-11-13_23h29.29.377,Info_measure_main_exp,2022.2.2,MacIntel,59.24170616,,,,,,,,,,,,,,,,,,masks/mask_005.jpg,,,,,,,,,,,,,,,,,,,,,,,,,,,,,,,,,,,,,,,,,,,0,2,2,4,1,,,,,,,,,,,,,,,,,,,,,,,,,,,,,,,,,,,,,,,,,,,,,,
780879,001,2022-11-13_23h29.29.377,Info_measure_main_exp,2022.2.2,MacIntel,59.24170616,,,,,,,,,,,,,,,,,,masks/mask_003.jpg,,,,,,,,,,,,,,,,,,,,,,,,,,,,,,,,,,,,,,,,,,,0,3,3,2,1,,,,,,,,,,,,,,,,,,,,,,,,,,,,,,,,,,,,,,,,,,,,,,
780879,001,2022-11-13_23h29.29.377,Info_measure_main_exp,2022.2.2,MacIntel,59.24170616,,,,,,,,,,,,,,,,,,masks/mask_002.jpg,,,,,,,,,,,,,,,,,,,,,,,,,,,,,,,,,,,,,,,,,,,0,4,4,1,1,,,,,,,,,,,,,,,,,,,,,,,,,,,,,,,,,,,,,,,,,,,,,,
780879,001,2022-11-13_23h29.29.377,Info_measure_main_exp,2022.2.2,MacIntel,59.24170616,,,,,,,,,,,,,,,,,,masks/mask_002.jpg,,,,,,,,,,,,,,,,,,,,,,,,,,,,,,,,,,,,,,,,,,,,,,,,0,0,0,1,1,,,,,,,,,,,,,,,,,,,,,,,,,,,,,,,,,,,,,,,,,
780879,001,2022-11-13_23h29.29.377,Info_measure_main_exp,2022.2.2,MacIntel,59.24170616,,,,,,,,,,,,,,,,,,masks/mask_003.jpg,,,,,,,,,,,,,,,,,,,,,,,,,,,,,,,,,,,,,,,,,,,,,,,,0,1,1,2,1,,,,,,,,,,,,,,,,,,,,,,,,,,,,,,,,,,,,,,,,,
780879,001,2022-11-13_23h29.29.377,Info_measure_main_exp,2022.2.2,MacIntel,59.24170616,,,,,,,,,,,,,,,,,,masks/mask_004.jpg,,,,,,,,,,,,,,,,,,,,,,,,,,,,,,,,,,,,,,,,,,,,,,,,0,2,2,3,1,,,,,,,,,,,,,,,,,,,,,,,,,,,,,,,,,,,,,,,,,
780879,001,2022-11-13_23h29.29.377,Info_measure_main_exp,2022.2.2,MacIntel,59.24170616,,,,,,,,,,,,,,,,,,masks/mask_005.jpg,,,,,,,,,,,,,,,,,,,,,,,,,,,,,,,,,,,,,,,,,,,,,,,,0,3,3,4,1,,,,,,,,,,,,,,,,,,,,,,,,,,,,,,,,,,,,,,,,,
780879,001,2022-11-13_23h29.29.377,Info_measure_main_exp,2022.2.2,MacIntel,59.24170616,,,,,,,,,,,,,,,,,,masks/mask_001.jpg,,,,,,,,,,,,,,,,,,,,,,,,,,,,,,,,,,,,,,,,,,,,,,,,0,4,4,0,1,,,,,,,,,,,,,,,,,,,,,,,,,,,,,,,,,,,,,,,,,
780879,001,2022-11-13_23h29.29.377,Info_measure_main_exp,2022.2.2,MacIntel,59.24170616,,,,,,,,,,,,,,,,,,,,,,,,,,,,,,7,2.782,1,,,,,,,,,,,,0,131,5,5,2250,2178,absent_patch/patch0002250.jpg,absent_patch/patch0002178.jpg,,,,,,,,,,,,,,,,,,,,0.026666667,0.056666667,1,0,0,response1disk,14,0.007777778,0.003333333,1,0,0,center_square,0,13,13,48,1,,,,,,,,,,,,,,,,,,,,,,,
780879,001,2022-11-13_23h29.29.377,Info_measure_main_exp,2022.2.2,MacIntel,59.24170616,,,,,,,,,,,,,,,,,,masks/mask_002.jpg,,,,,,,,,,,,,,,,,,,,,,,,,,,,,,,,,,,,,,,,,,,0,0,0,1,1,,,,,,,,,,,,,,,,,,,,,,,,,,,,,,,,,,,,,,,,,,,,,,
780879,001,2022-11-13_23h29.29.377,Info_measure_main_exp,2022.2.2,MacIntel,59.24170616,,,,,,,,,,,,,,,,,,masks/mask_005.jpg,,,,,,,,,,,,,,,,,,,,,,,,,,,,,,,,,,,,,,,,,,,0,1,1,4,1,,,,,,,,,,,,,,,,,,,,,,,,,,,,,,,,,,,,,,,,,,,,,,
780879,001,2022-11-13_23h29.29.377,Info_measure_main_exp,2022.2.2,MacIntel,59.24170616,,,,,,,,,,,,,,,,,,masks/mask_001.jpg,,,,,,,,,,,,,,,,,,,,,,,,,,,,,,,,,,,,,,,,,,,0,2,2,0,1,,,,,,,,,,,,,,,,,,,,,,,,,,,,,,,,,,,,,,,,,,,,,,
780879,001,2022-11-13_23h29.29.377,Info_measure_main_exp,2022.2.2,MacIntel,59.24170616,,,,,,,,,,,,,,,,,,masks/mask_004.jpg,,,,,,,,,,,,,,,,,,,,,,,,,,,,,,,,,,,,,,,,,,,0,3,3,3,1,,,,,,,,,,,,,,,,,,,,,,,,,,,,,,,,,,,,,,,,,,,,,,
780879,001,2022-11-13_23h29.29.377,Info_measure_main_exp,2022.2.2,MacIntel,59.24170616,,,,,,,,,,,,,,,,,,masks/mask_003.jpg,,,,,,,,,,,,,,,,,,,,,,,,,,,,,,,,,,,,,,,,,,,0,4,4,2,1,,,,,,,,,,,,,,,,,,,,,,,,,,,,,,,,,,,,,,,,,,,,,,
780879,001,2022-11-13_23h29.29.377,Info_measure_main_exp,2022.2.2,MacIntel,59.24170616,,,,,,,,,,,,,,,,,,masks/mask_004.jpg,,,,,,,,,,,,,,,,,,,,,,,,,,,,,,,,,,,,,,,,,,,,,,,,0,0,0,3,1,,,,,,,,,,,,,,,,,,,,,,,,,,,,,,,,,,,,,,,,,
780879,001,2022-11-13_23h29.29.377,Info_measure_main_exp,2022.2.2,MacIntel,59.24170616,,,,,,,,,,,,,,,,,,masks/mask_002.jpg,,,,,,,,,,,,,,,,,,,,,,,,,,,,,,,,,,,,,,,,,,,,,,,,0,1,1,1,1,,,,,,,,,,,,,,,,,,,,,,,,,,,,,,,,,,,,,,,,,
780879,001,2022-11-13_23h29.29.377,Info_measure_main_exp,2022.2.2,MacIntel,59.24170616,,,,,,,,,,,,,,,,,,masks/mask_005.jpg,,,,,,,,,,,,,,,,,,,,,,,,,,,,,,,,,,,,,,,,,,,,,,,,0,2,2,4,1,,,,,,,,,,,,,,,,,,,,,,,,,,,,,,,,,,,,,,,,,
780879,001,2022-11-13_23h29.29.377,Info_measure_main_exp,2022.2.2,MacIntel,59.24170616,,,,,,,,,,,,,,,,,,masks/mask_001.jpg,,,,,,,,,,,,,,,,,,,,,,,,,,,,,,,,,,,,,,,,,,,,,,,,0,3,3,0,1,,,,,,,,,,,,,,,,,,,,,,,,,,,,,,,,,,,,,,,,,
780879,001,2022-11-13_23h29.29.377,Info_measure_main_exp,2022.2.2,MacIntel,59.24170616,,,,,,,,,,,,,,,,,,masks/mask_003.jpg,,,,,,,,,,,,,,,,,,,,,,,,,,,,,,,,,,,,,,,,,,,,,,,,0,4,4,2,1,,,,,,,,,,,,,,,,,,,,,,,,,,,,,,,,,,,,,,,,,
780879,001,2022-11-13_23h29.29.377,Info_measure_main_exp,2022.2.2,MacIntel,59.24170616,,,,,,,,,,,,,,,,,,,,,,,,,,,,,,7,1.324,1,,,,,,,,,,,,0,131,5,5,2250,2166,absent_patch/patch0002250.jpg,absent_patch/patch0002166.jpg,,,,,,,,,,,,,,,,,,,,0.034444444,0.071111111,1,0,0,response1disk,15,-0.001111111,0,1,0,0,center_square,0,14,14,60,1,,,,,,,,,,,,,,,,,,,,,,,
780879,001,2022-11-13_23h29.29.377,Info_measure_main_exp,2022.2.2,MacIntel,59.24170616,,,,,,,,,,,,,,,,,,masks/mask_005.jpg,,,,,,,,,,,,,,,,,,,,,,,,,,,,,,,,,,,,,,,,,,,0,0,0,4,1,,,,,,,,,,,,,,,,,,,,,,,,,,,,,,,,,,,,,,,,,,,,,,
780879,001,2022-11-13_23h29.29.377,Info_measure_main_exp,2022.2.2,MacIntel,59.24170616,,,,,,,,,,,,,,,,,,masks/mask_004.jpg,,,,,,,,,,,,,,,,,,,,,,,,,,,,,,,,,,,,,,,,,,,0,1,1,3,1,,,,,,,,,,,,,,,,,,,,,,,,,,,,,,,,,,,,,,,,,,,,,,
780879,001,2022-11-13_23h29.29.377,Info_measure_main_exp,2022.2.2,MacIntel,59.24170616,,,,,,,,,,,,,,,,,,masks/mask_001.jpg,,,,,,,,,,,,,,,,,,,,,,,,,,,,,,,,,,,,,,,,,,,0,2,2,0,1,,,,,,,,,,,,,,,,,,,,,,,,,,,,,,,,,,,,,,,,,,,,,,
780879,001,2022-11-13_23h29.29.377,Info_measure_main_exp,2022.2.2,MacIntel,59.24170616,,,,,,,,,,,,,,,,,,masks/mask_002.jpg,,,,,,,,,,,,,,,,,,,,,,,,,,,,,,,,,,,,,,,,,,,0,3,3,1,1,,,,,,,,,,,,,,,,,,,,,,,,,,,,,,,,,,,,,,,,,,,,,,
780879,001,2022-11-13_23h29.29.377,Info_measure_main_exp,2022.2.2,MacIntel,59.24170616,,,,,,,,,,,,,,,,,,masks/mask_003.jpg,,,,,,,,,,,,,,,,,,,,,,,,,,,,,,,,,,,,,,,,,,,0,4,4,2,1,,,,,,,,,,,,,,,,,,,,,,,,,,,,,,,,,,,,,,,,,,,,,,
780879,001,2022-11-13_23h29.29.377,Info_measure_main_exp,2022.2.2,MacIntel,59.24170616,,,,,,,,,,,,,,,,,,masks/mask_001.jpg,,,,,,,,,,,,,,,,,,,,,,,,,,,,,,,,,,,,,,,,,,,,,,,,0,0,0,0,1,,,,,,,,,,,,,,,,,,,,,,,,,,,,,,,,,,,,,,,,,
780879,001,2022-11-13_23h29.29.377,Info_measure_main_exp,2022.2.2,MacIntel,59.24170616,,,,,,,,,,,,,,,,,,masks/mask_003.jpg,,,,,,,,,,,,,,,,,,,,,,,,,,,,,,,,,,,,,,,,,,,,,,,,0,1,1,2,1,,,,,,,,,,,,,,,,,,,,,,,,,,,,,,,,,,,,,,,,,
780879,001,2022-11-13_23h29.29.377,Info_measure_main_exp,2022.2.2,MacIntel,59.24170616,,,,,,,,,,,,,,,,,,masks/mask_002.jpg,,,,,,,,,,,,,,,,,,,,,,,,,,,,,,,,,,,,,,,,,,,,,,,,0,2,2,1,1,,,,,,,,,,,,,,,,,,,,,,,,,,,,,,,,,,,,,,,,,
780879,001,2022-11-13_23h29.29.377,Info_measure_main_exp,2022.2.2,MacIntel,59.24170616,,,,,,,,,,,,,,,,,,masks/mask_005.jpg,,,,,,,,,,,,,,,,,,,,,,,,,,,,,,,,,,,,,,,,,,,,,,,,0,3,3,4,1,,,,,,,,,,,,,,,,,,,,,,,,,,,,,,,,,,,,,,,,,
780879,001,2022-11-13_23h29.29.377,Info_measure_main_exp,2022.2.2,MacIntel,59.24170616,,,,,,,,,,,,,,,,,,masks/mask_004.jpg,,,,,,,,,,,,,,,,,,,,,,,,,,,,,,,,,,,,,,,,,,,,,,,,0,4,4,3,1,,,,,,,,,,,,,,,,,,,,,,,,,,,,,,,,,,,,,,,,,
780879,001,2022-11-13_23h29.29.377,Info_measure_main_exp,2022.2.2,MacIntel,59.24170616,,,,,,,,,,,,,,,,,,,,,,,,,,,,,,5,2.216,1,,,,,,,,,,,,0,131,5,5,2154,2238,absent_patch/patch0002154.jpg,absent_patch/patch0002238.jpg,,,,,,,,,,,,,,,,,,,,0.07,-0.045555556,1,0,0,response3disk,16,0.004444444,-0.001111111,1,0,0,center_square,0,15,15,21,1,,,,,,,,,,,,,,,,,,,,,,,
780879,001,2022-11-13_23h29.29.377,Info_measure_main_exp,2022.2.2,MacIntel,59.24170616,,,,,,,,,,,,,,,,,,masks/mask_001.jpg,,,,,,,,,,,,,,,,,,,,,,,,,,,,,,,,,,,,,,,,,,,0,0,0,0,1,,,,,,,,,,,,,,,,,,,,,,,,,,,,,,,,,,,,,,,,,,,,,,
780879,001,2022-11-13_23h29.29.377,Info_measure_main_exp,2022.2.2,MacIntel,59.24170616,,,,,,,,,,,,,,,,,,masks/mask_005.jpg,,,,,,,,,,,,,,,,,,,,,,,,,,,,,,,,,,,,,,,,,,,0,1,1,4,1,,,,,,,,,,,,,,,,,,,,,,,,,,,,,,,,,,,,,,,,,,,,,,
780879,001,2022-11-13_23h29.29.377,Info_measure_main_exp,2022.2.2,MacIntel,59.24170616,,,,,,,,,,,,,,,,,,masks/mask_003.jpg,,,,,,,,,,,,,,,,,,,,,,,,,,,,,,,,,,,,,,,,,,,0,2,2,2,1,,,,,,,,,,,,,,,,,,,,,,,,,,,,,,,,,,,,,,,,,,,,,,
780879,001,2022-11-13_23h29.29.377,Info_measure_main_exp,2022.2.2,MacIntel,59.24170616,,,,,,,,,,,,,,,,,,masks/mask_004.jpg,,,,,,,,,,,,,,,,,,,,,,,,,,,,,,,,,,,,,,,,,,,0,3,3,3,1,,,,,,,,,,,,,,,,,,,,,,,,,,,,,,,,,,,,,,,,,,,,,,
780879,001,2022-11-13_23h29.29.377,Info_measure_main_exp,2022.2.2,MacIntel,59.24170616,,,,,,,,,,,,,,,,,,masks/mask_002.jpg,,,,,,,,,,,,,,,,,,,,,,,,,,,,,,,,,,,,,,,,,,,0,4,4,1,1,,,,,,,,,,,,,,,,,,,,,,,,,,,,,,,,,,,,,,,,,,,,,,
780879,001,2022-11-13_23h29.29.377,Info_measure_main_exp,2022.2.2,MacIntel,59.24170616,,,,,,,,,,,,,,,,,,masks/mask_002.jpg,,,,,,,,,,,,,,,,,,,,,,,,,,,,,,,,,,,,,,,,,,,,,,,,0,0,0,1,1,,,,,,,,,,,,,,,,,,,,,,,,,,,,,,,,,,,,,,,,,
780879,001,2022-11-13_23h29.29.377,Info_measure_main_exp,2022.2.2,MacIntel,59.24170616,,,,,,,,,,,,,,,,,,masks/mask_001.jpg,,,,,,,,,,,,,,,,,,,,,,,,,,,,,,,,,,,,,,,,,,,,,,,,0,1,1,0,1,,,,,,,,,,,,,,,,,,,,,,,,,,,,,,,,,,,,,,,,,
780879,001,2022-11-13_23h29.29.377,Info_measure_main_exp,2022.2.2,MacIntel,59.24170616,,,,,,,,,,,,,,,,,,masks/mask_005.jpg,,,,,,,,,,,,,,,,,,,,,,,,,,,,,,,,,,,,,,,,,,,,,,,,0,2,2,4,1,,,,,,,,,,,,,,,,,,,,,,,,,,,,,,,,,,,,,,,,,
780879,001,2022-11-13_23h29.29.377,Info_measure_main_exp,2022.2.2,MacIntel,59.24170616,,,,,,,,,,,,,,,,,,masks/mask_003.jpg,,,,,,,,,,,,,,,,,,,,,,,,,,,,,,,,,,,,,,,,,,,,,,,,0,3,3,2,1,,,,,,,,,,,,,,,,,,,,,,,,,,,,,,,,,,,,,,,,,
780879,001,2022-11-13_23h29.29.377,Info_measure_main_exp,2022.2.2,MacIntel,59.24170616,,,,,,,,,,,,,,,,,,masks/mask_004.jpg,,,,,,,,,,,,,,,,,,,,,,,,,,,,,,,,,,,,,,,,,,,,,,,,0,4,4,3,1,,,,,,,,,,,,,,,,,,,,,,,,,,,,,,,,,,,,,,,,,
780879,001,2022-11-13_23h29.29.377,Info_measure_main_exp,2022.2.2,MacIntel,59.24170616,,,,,,,,,,,,,,,,,,,,,,,,,,,,,,7,0.885,1,,,,,,,,,,,,0,131,5,5,2154,2214,absent_patch/patch0002154.jpg,absent_patch/patch0002214.jpg,,,,,,,,,,,,,,,,,,,,0.04,0.064444444,1,0,0,response1disk,17,0.003333333,0.006666667,1,0,0,center_square,0,16,16,67,1,,,,,,,,,,,,,,,,,,,,,,,
780879,001,2022-11-13_23h29.29.377,Info_measure_main_exp,2022.2.2,MacIntel,59.24170616,,,,,,,,,,,,,,,,,,masks/mask_003.jpg,,,,,,,,,,,,,,,,,,,,,,,,,,,,,,,,,,,,,,,,,,,0,0,0,2,1,,,,,,,,,,,,,,,,,,,,,,,,,,,,,,,,,,,,,,,,,,,,,,
780879,001,2022-11-13_23h29.29.377,Info_measure_main_exp,2022.2.2,MacIntel,59.24170616,,,,,,,,,,,,,,,,,,masks/mask_001.jpg,,,,,,,,,,,,,,,,,,,,,,,,,,,,,,,,,,,,,,,,,,,0,1,1,0,1,,,,,,,,,,,,,,,,,,,,,,,,,,,,,,,,,,,,,,,,,,,,,,
780879,001,2022-11-13_23h29.29.377,Info_measure_main_exp,2022.2.2,MacIntel,59.24170616,,,,,,,,,,,,,,,,,,masks/mask_002.jpg,,,,,,,,,,,,,,,,,,,,,,,,,,,,,,,,,,,,,,,,,,,0,2,2,1,1,,,,,,,,,,,,,,,,,,,,,,,,,,,,,,,,,,,,,,,,,,,,,,
780879,001,2022-11-13_23h29.29.377,Info_measure_main_exp,2022.2.2,MacIntel,59.24170616,,,,,,,,,,,,,,,,,,masks/mask_004.jpg,,,,,,,,,,,,,,,,,,,,,,,,,,,,,,,,,,,,,,,,,,,0,3,3,3,1,,,,,,,,,,,,,,,,,,,,,,,,,,,,,,,,,,,,,,,,,,,,,,
780879,001,2022-11-13_23h29.29.377,Info_measure_main_exp,2022.2.2,MacIntel,59.24170616,,,,,,,,,,,,,,,,,,masks/mask_005.jpg,,,,,,,,,,,,,,,,,,,,,,,,,,,,,,,,,,,,,,,,,,,0,4,4,4,1,,,,,,,,,,,,,,,,,,,,,,,,,,,,,,,,,,,,,,,,,,,,,,
780879,001,2022-11-13_23h29.29.377,Info_measure_main_exp,2022.2.2,MacIntel,59.24170616,,,,,,,,,,,,,,,,,,masks/mask_002.jpg,,,,,,,,,,,,,,,,,,,,,,,,,,,,,,,,,,,,,,,,,,,,,,,,0,0,0,1,1,,,,,,,,,,,,,,,,,,,,,,,,,,,,,,,,,,,,,,,,,
780879,001,2022-11-13_23h29.29.377,Info_measure_main_exp,2022.2.2,MacIntel,59.24170616,,,,,,,,,,,,,,,,,,masks/mask_005.jpg,,,,,,,,,,,,,,,,,,,,,,,,,,,,,,,,,,,,,,,,,,,,,,,,0,1,1,4,1,,,,,,,,,,,,,,,,,,,,,,,,,,,,,,,,,,,,,,,,,
780879,001,2022-11-13_23h29.29.377,Info_measure_main_exp,2022.2.2,MacIntel,59.24170616,,,,,,,,,,,,,,,,,,masks/mask_004.jpg,,,,,,,,,,,,,,,,,,,,,,,,,,,,,,,,,,,,,,,,,,,,,,,,0,2,2,3,1,,,,,,,,,,,,,,,,,,,,,,,,,,,,,,,,,,,,,,,,,
780879,001,2022-11-13_23h29.29.377,Info_measure_main_exp,2022.2.2,MacIntel,59.24170616,,,,,,,,,,,,,,,,,,masks/mask_001.jpg,,,,,,,,,,,,,,,,,,,,,,,,,,,,,,,,,,,,,,,,,,,,,,,,0,3,3,0,1,,,,,,,,,,,,,,,,,,,,,,,,,,,,,,,,,,,,,,,,,
780879,001,2022-11-13_23h29.29.377,Info_measure_main_exp,2022.2.2,MacIntel,59.24170616,,,,,,,,,,,,,,,,,,masks/mask_003.jpg,,,,,,,,,,,,,,,,,,,,,,,,,,,,,,,,,,,,,,,,,,,,,,,,0,4,4,2,1,,,,,,,,,,,,,,,,,,,,,,,,,,,,,,,,,,,,,,,,,
780879,001,2022-11-13_23h29.29.377,Info_measure_main_exp,2022.2.2,MacIntel,59.24170616,,,,,,,,,,,,,,,,,,,,,,,,,,,,,,5,0.832,1,,,,,,,,,,,,0,131,5,5,2178,2142,absent_patch/patch0002178.jpg,absent_patch/patch0002142.jpg,,,,,,,,,,,,,,,,,,,,0.074444444,-0.03,1,0,0,response3disk,18,0.006666667,0,1,0,0,center_square,0,17,17,41,1,,,,,,,,,,,,,,,,,,,,,,,
780879,001,2022-11-13_23h29.29.377,Info_measure_main_exp,2022.2.2,MacIntel,59.24170616,,,,,,,,,,,,,,,,,,masks/mask_002.jpg,,,,,,,,,,,,,,,,,,,,,,,,,,,,,,,,,,,,,,,,,,,0,0,0,1,1,,,,,,,,,,,,,,,,,,,,,,,,,,,,,,,,,,,,,,,,,,,,,,
780879,001,2022-11-13_23h29.29.377,Info_measure_main_exp,2022.2.2,MacIntel,59.24170616,,,,,,,,,,,,,,,,,,masks/mask_003.jpg,,,,,,,,,,,,,,,,,,,,,,,,,,,,,,,,,,,,,,,,,,,0,1,1,2,1,,,,,,,,,,,,,,,,,,,,,,,,,,,,,,,,,,,,,,,,,,,,,,
780879,001,2022-11-13_23h29.29.377,Info_measure_main_exp,2022.2.2,MacIntel,59.24170616,,,,,,,,,,,,,,,,,,masks/mask_005.jpg,,,,,,,,,,,,,,,,,,,,,,,,,,,,,,,,,,,,,,,,,,,0,2,2,4,1,,,,,,,,,,,,,,,,,,,,,,,,,,,,,,,,,,,,,,,,,,,,,,
780879,001,2022-11-13_23h29.29.377,Info_measure_main_exp,2022.2.2,MacIntel,59.24170616,,,,,,,,,,,,,,,,,,masks/mask_004.jpg,,,,,,,,,,,,,,,,,,,,,,,,,,,,,,,,,,,,,,,,,,,0,3,3,3,1,,,,,,,,,,,,,,,,,,,,,,,,,,,,,,,,,,,,,,,,,,,,,,
780879,001,2022-11-13_23h29.29.377,Info_measure_main_exp,2022.2.2,MacIntel,59.24170616,,,,,,,,,,,,,,,,,,masks/mask_001.jpg,,,,,,,,,,,,,,,,,,,,,,,,,,,,,,,,,,,,,,,,,,,0,4,4,0,1,,,,,,,,,,,,,,,,,,,,,,,,,,,,,,,,,,,,,,,,,,,,,,
780879,001,2022-11-13_23h29.29.377,Info_measure_main_exp,2022.2.2,MacIntel,59.24170616,,,,,,,,,,,,,,,,,,masks/mask_004.jpg,,,,,,,,,,,,,,,,,,,,,,,,,,,,,,,,,,,,,,,,,,,,,,,,0,0,0,3,1,,,,,,,,,,,,,,,,,,,,,,,,,,,,,,,,,,,,,,,,,
780879,001,2022-11-13_23h29.29.377,Info_measure_main_exp,2022.2.2,MacIntel,59.24170616,,,,,,,,,,,,,,,,,,masks/mask_003.jpg,,,,,,,,,,,,,,,,,,,,,,,,,,,,,,,,,,,,,,,,,,,,,,,,0,1,1,2,1,,,,,,,,,,,,,,,,,,,,,,,,,,,,,,,,,,,,,,,,,
780879,001,2022-11-13_23h29.29.377,Info_measure_main_exp,2022.2.2,MacIntel,59.24170616,,,,,,,,,,,,,,,,,,masks/mask_001.jpg,,,,,,,,,,,,,,,,,,,,,,,,,,,,,,,,,,,,,,,,,,,,,,,,0,2,2,0,1,,,,,,,,,,,,,,,,,,,,,,,,,,,,,,,,,,,,,,,,,
780879,001,2022-11-13_23h29.29.377,Info_measure_main_exp,2022.2.2,MacIntel,59.24170616,,,,,,,,,,,,,,,,,,masks/mask_002.jpg,,,,,,,,,,,,,,,,,,,,,,,,,,,,,,,,,,,,,,,,,,,,,,,,0,3,3,1,1,,,,,,,,,,,,,,,,,,,,,,,,,,,,,,,,,,,,,,,,,
780879,001,2022-11-13_23h29.29.377,Info_measure_main_exp,2022.2.2,MacIntel,59.24170616,,,,,,,,,,,,,,,,,,masks/mask_005.jpg,,,,,,,,,,,,,,,,,,,,,,,,,,,,,,,,,,,,,,,,,,,,,,,,0,4,4,4,1,,,,,,,,,,,,,,,,,,,,,,,,,,,,,,,,,,,,,,,,,
780879,001,2022-11-13_23h29.29.377,Info_measure_main_exp,2022.2.2,MacIntel,59.24170616,,,,,,,,,,,,,,,,,,,,,,,,,,,,,,7,0.817,1,,,,,,,,,,,,0,131,5,5,1950,2166,absent_patch/patch0001950.jpg,absent_patch/patch0002166.jpg,,,,,,,,,,,,,,,,,,,,0.032222222,0.061111111,1,0,0,response1disk,19,0.006666667,0.001111111,1,0,0,center_square,0,18,18,0,1,,,,,,,,,,,,,,,,,,,,,,,
780879,001,2022-11-13_23h29.29.377,Info_measure_main_exp,2022.2.2,MacIntel,59.24170616,,,,,,,,,,,,,,,,,,masks/mask_005.jpg,,,,,,,,,,,,,,,,,,,,,,,,,,,,,,,,,,,,,,,,,,,0,0,0,4,1,,,,,,,,,,,,,,,,,,,,,,,,,,,,,,,,,,,,,,,,,,,,,,
780879,001,2022-11-13_23h29.29.377,Info_measure_main_exp,2022.2.2,MacIntel,59.24170616,,,,,,,,,,,,,,,,,,masks/mask_003.jpg,,,,,,,,,,,,,,,,,,,,,,,,,,,,,,,,,,,,,,,,,,,0,1,1,2,1,,,,,,,,,,,,,,,,,,,,,,,,,,,,,,,,,,,,,,,,,,,,,,
780879,001,2022-11-13_23h29.29.377,Info_measure_main_exp,2022.2.2,MacIntel,59.24170616,,,,,,,,,,,,,,,,,,masks/mask_001.jpg,,,,,,,,,,,,,,,,,,,,,,,,,,,,,,,,,,,,,,,,,,,0,2,2,0,1,,,,,,,,,,,,,,,,,,,,,,,,,,,,,,,,,,,,,,,,,,,,,,
780879,001,2022-11-13_23h29.29.377,Info_measure_main_exp,2022.2.2,MacIntel,59.24170616,,,,,,,,,,,,,,,,,,masks/mask_004.jpg,,,,,,,,,,,,,,,,,,,,,,,,,,,,,,,,,,,,,,,,,,,0,3,3,3,1,,,,,,,,,,,,,,,,,,,,,,,,,,,,,,,,,,,,,,,,,,,,,,
780879,001,2022-11-13_23h29.29.377,Info_measure_main_exp,2022.2.2,MacIntel,59.24170616,,,,,,,,,,,,,,,,,,masks/mask_002.jpg,,,,,,,,,,,,,,,,,,,,,,,,,,,,,,,,,,,,,,,,,,,0,4,4,1,1,,,,,,,,,,,,,,,,,,,,,,,,,,,,,,,,,,,,,,,,,,,,,,
780879,001,2022-11-13_23h29.29.377,Info_measure_main_exp,2022.2.2,MacIntel,59.24170616,,,,,,,,,,,,,,,,,,masks/mask_004.jpg,,,,,,,,,,,,,,,,,,,,,,,,,,,,,,,,,,,,,,,,,,,,,,,,0,0,0,3,1,,,,,,,,,,,,,,,,,,,,,,,,,,,,,,,,,,,,,,,,,
780879,001,2022-11-13_23h29.29.377,Info_measure_main_exp,2022.2.2,MacIntel,59.24170616,,,,,,,,,,,,,,,,,,masks/mask_005.jpg,,,,,,,,,,,,,,,,,,,,,,,,,,,,,,,,,,,,,,,,,,,,,,,,0,1,1,4,1,,,,,,,,,,,,,,,,,,,,,,,,,,,,,,,,,,,,,,,,,
780879,001,2022-11-13_23h29.29.377,Info_measure_main_exp,2022.2.2,MacIntel,59.24170616,,,,,,,,,,,,,,,,,,masks/mask_003.jpg,,,,,,,,,,,,,,,,,,,,,,,,,,,,,,,,,,,,,,,,,,,,,,,,0,2,2,2,1,,,,,,,,,,,,,,,,,,,,,,,,,,,,,,,,,,,,,,,,,
780879,001,2022-11-13_23h29.29.377,Info_measure_main_exp,2022.2.2,MacIntel,59.24170616,,,,,,,,,,,,,,,,,,masks/mask_001.jpg,,,,,,,,,,,,,,,,,,,,,,,,,,,,,,,,,,,,,,,,,,,,,,,,0,3,3,0,1,,,,,,,,,,,,,,,,,,,,,,,,,,,,,,,,,,,,,,,,,
780879,001,2022-11-13_23h29.29.377,Info_measure_main_exp,2022.2.2,MacIntel,59.24170616,,,,,,,,,,,,,,,,,,masks/mask_002.jpg,,,,,,,,,,,,,,,,,,,,,,,,,,,,,,,,,,,,,,,,,,,,,,,,0,4,4,1,1,,,,,,,,,,,,,,,,,,,,,,,,,,,,,,,,,,,,,,,,,
780879,001,2022-11-13_23h29.29.377,Info_measure_main_exp,2022.2.2,MacIntel,59.24170616,,,,,,,,,,,,,,,,,,,,,,,,,,,,,,7,0.551,1,,,,,,,,,,,,0,131,5,5,2250,2214,absent_patch/patch0002250.jpg,absent_patch/patch0002214.jpg,,,,,,,,,,,,,,,,,,,,0.032222222,0.064444444,1,0,0,response1disk,20,0.005555556,0.006666667,1,0,0,center_square,0,19,19,97,1,,,,,,,,,,,,,,,,,,,,,,,
780879,001,2022-11-13_23h29.29.377,Info_measure_main_exp,2022.2.2,MacIntel,59.24170616,,,,,,,,,,,,,,,,,,masks/mask_005.jpg,,,,,,,,,,,,,,,,,,,,,,,,,,,,,,,,,,,,,,,,,,,0,0,0,4,1,,,,,,,,,,,,,,,,,,,,,,,,,,,,,,,,,,,,,,,,,,,,,,
780879,001,2022-11-13_23h29.29.377,Info_measure_main_exp,2022.2.2,MacIntel,59.24170616,,,,,,,,,,,,,,,,,,masks/mask_001.jpg,,,,,,,,,,,,,,,,,,,,,,,,,,,,,,,,,,,,,,,,,,,0,1,1,0,1,,,,,,,,,,,,,,,,,,,,,,,,,,,,,,,,,,,,,,,,,,,,,,
780879,001,2022-11-13_23h29.29.377,Info_measure_main_exp,2022.2.2,MacIntel,59.24170616,,,,,,,,,,,,,,,,,,masks/mask_004.jpg,,,,,,,,,,,,,,,,,,,,,,,,,,,,,,,,,,,,,,,,,,,0,2,2,3,1,,,,,,,,,,,,,,,,,,,,,,,,,,,,,,,,,,,,,,,,,,,,,,
780879,001,2022-11-13_23h29.29.377,Info_measure_main_exp,2022.2.2,MacIntel,59.24170616,,,,,,,,,,,,,,,,,,masks/mask_003.jpg,,,,,,,,,,,,,,,,,,,,,,,,,,,,,,,,,,,,,,,,,,,0,3,3,2,1,,,,,,,,,,,,,,,,,,,,,,,,,,,,,,,,,,,,,,,,,,,,,,
780879,001,2022-11-13_23h29.29.377,Info_measure_main_exp,2022.2.2,MacIntel,59.24170616,,,,,,,,,,,,,,,,,,masks/mask_002.jpg,,,,,,,,,,,,,,,,,,,,,,,,,,,,,,,,,,,,,,,,,,,0,4,4,1,1,,,,,,,,,,,,,,,,,,,,,,,,,,,,,,,,,,,,,,,,,,,,,,
780879,001,2022-11-13_23h29.29.377,Info_measure_main_exp,2022.2.2,MacIntel,59.24170616,,,,,,,,,,,,,,,,,,masks/mask_001.jpg,,,,,,,,,,,,,,,,,,,,,,,,,,,,,,,,,,,,,,,,,,,,,,,,0,0,0,0,1,,,,,,,,,,,,,,,,,,,,,,,,,,,,,,,,,,,,,,,,,
780879,001,2022-11-13_23h29.29.377,Info_measure_main_exp,2022.2.2,MacIntel,59.24170616,,,,,,,,,,,,,,,,,,masks/mask_004.jpg,,,,,,,,,,,,,,,,,,,,,,,,,,,,,,,,,,,,,,,,,,,,,,,,0,1,1,3,1,,,,,,,,,,,,,,,,,,,,,,,,,,,,,,,,,,,,,,,,,
780879,001,2022-11-13_23h29.29.377,Info_measure_main_exp,2022.2.2,MacIntel,59.24170616,,,,,,,,,,,,,,,,,,masks/mask_003.jpg,,,,,,,,,,,,,,,,,,,,,,,,,,,,,,,,,,,,,,,,,,,,,,,,0,2,2,2,1,,,,,,,,,,,,,,,,,,,,,,,,,,,,,,,,,,,,,,,,,
780879,001,2022-11-13_23h29.29.377,Info_measure_main_exp,2022.2.2,MacIntel,59.24170616,,,,,,,,,,,,,,,,,,masks/mask_005.jpg,,,,,,,,,,,,,,,,,,,,,,,,,,,,,,,,,,,,,,,,,,,,,,,,0,3,3,4,1,,,,,,,,,,,,,,,,,,,,,,,,,,,,,,,,,,,,,,,,,
780879,001,2022-11-13_23h29.29.377,Info_measure_main_exp,2022.2.2,MacIntel,59.24170616,,,,,,,,,,,,,,,,,,masks/mask_002.jpg,,,,,,,,,,,,,,,,,,,,,,,,,,,,,,,,,,,,,,,,,,,,,,,,0,4,4,1,1,,,,,,,,,,,,,,,,,,,,,,,,,,,,,,,,,,,,,,,,,
780879,001,2022-11-13_23h29.29.377,Info_measure_main_exp,2022.2.2,MacIntel,59.24170616,,,,,,,,,,,,,,,,,,,,,,,,,,,,,,0,1.101,1,,,,,,,,,,,,0,131,5,5,2154,2154,absent_patch/patch0002154.jpg,absent_patch/patch0002154.jpg,,,,,,,,,,,,,,,,,,,,-0.032222222,0.083333333,1,0,0,response7disk,21,-0.002222222,0.006666667,1,0,0,center_square,0,20,20,89,1,,,,,,,,,,,,,,,,,,,,,,,
780879,001,2022-11-13_23h29.29.377,Info_measure_main_exp,2022.2.2,MacIntel,59.24170616,,,,,,,,,,,,,,,,,,masks/mask_004.jpg,,,,,,,,,,,,,,,,,,,,,,,,,,,,,,,,,,,,,,,,,,,0,0,0,3,1,,,,,,,,,,,,,,,,,,,,,,,,,,,,,,,,,,,,,,,,,,,,,,
780879,001,2022-11-13_23h29.29.377,Info_measure_main_exp,2022.2.2,MacIntel,59.24170616,,,,,,,,,,,,,,,,,,masks/mask_003.jpg,,,,,,,,,,,,,,,,,,,,,,,,,,,,,,,,,,,,,,,,,,,0,1,1,2,1,,,,,,,,,,,,,,,,,,,,,,,,,,,,,,,,,,,,,,,,,,,,,,
780879,001,2022-11-13_23h29.29.377,Info_measure_main_exp,2022.2.2,MacIntel,59.24170616,,,,,,,,,,,,,,,,,,masks/mask_002.jpg,,,,,,,,,,,,,,,,,,,,,,,,,,,,,,,,,,,,,,,,,,,0,2,2,1,1,,,,,,,,,,,,,,,,,,,,,,,,,,,,,,,,,,,,,,,,,,,,,,
780879,001,2022-11-13_23h29.29.377,Info_measure_main_exp,2022.2.2,MacIntel,59.24170616,,,,,,,,,,,,,,,,,,masks/mask_001.jpg,,,,,,,,,,,,,,,,,,,,,,,,,,,,,,,,,,,,,,,,,,,0,3,3,0,1,,,,,,,,,,,,,,,,,,,,,,,,,,,,,,,,,,,,,,,,,,,,,,
780879,001,2022-11-13_23h29.29.377,Info_measure_main_exp,2022.2.2,MacIntel,59.24170616,,,,,,,,,,,,,,,,,,masks/mask_005.jpg,,,,,,,,,,,,,,,,,,,,,,,,,,,,,,,,,,,,,,,,,,,0,4,4,4,1,,,,,,,,,,,,,,,,,,,,,,,,,,,,,,,,,,,,,,,,,,,,,,
780879,001,2022-11-13_23h29.29.377,Info_measure_main_exp,2022.2.2,MacIntel,59.24170616,,,,,,,,,,,,,,,,,,masks/mask_002.jpg,,,,,,,,,,,,,,,,,,,,,,,,,,,,,,,,,,,,,,,,,,,,,,,,0,0,0,1,1,,,,,,,,,,,,,,,,,,,,,,,,,,,,,,,,,,,,,,,,,
780879,001,2022-11-13_23h29.29.377,Info_measure_main_exp,2022.2.2,MacIntel,59.24170616,,,,,,,,,,,,,,,,,,masks/mask_005.jpg,,,,,,,,,,,,,,,,,,,,,,,,,,,,,,,,,,,,,,,,,,,,,,,,0,1,1,4,1,,,,,,,,,,,,,,,,,,,,,,,,,,,,,,,,,,,,,,,,,
780879,001,2022-11-13_23h29.29.377,Info_measure_main_exp,2022.2.2,MacIntel,59.24170616,,,,,,,,,,,,,,,,,,masks/mask_001.jpg,,,,,,,,,,,,,,,,,,,,,,,,,,,,,,,,,,,,,,,,,,,,,,,,0,2,2,0,1,,,,,,,,,,,,,,,,,,,,,,,,,,,,,,,,,,,,,,,,,
780879,001,2022-11-13_23h29.29.377,Info_measure_main_exp,2022.2.2,MacIntel,59.24170616,,,,,,,,,,,,,,,,,,masks/mask_003.jpg,,,,,,,,,,,,,,,,,,,,,,,,,,,,,,,,,,,,,,,,,,,,,,,,0,3,3,2,1,,,,,,,,,,,,,,,,,,,,,,,,,,,,,,,,,,,,,,,,,
780879,001,2022-11-13_23h29.29.377,Info_measure_main_exp,2022.2.2,MacIntel,59.24170616,,,,,,,,,,,,,,,,,,masks/mask_004.jpg,,,,,,,,,,,,,,,,,,,,,,,,,,,,,,,,,,,,,,,,,,,,,,,,0,4,4,3,1,,,,,,,,,,,,,,,,,,,,,,,,,,,,,,,,,,,,,,,,,
780879,001,2022-11-13_23h29.29.377,Info_measure_main_exp,2022.2.2,MacIntel,59.24170616,,,,,,,,,,,,,,,,,,,,,,,,,,,,,,7,0.567,1,,,,,,,,,,,,0,131,5,5,2178,1986,absent_patch/patch0002178.jpg,absent_patch/patch0001986.jpg,,,,,,,,,,,,,,,,,,,,0.028888889,0.121111111,1,0,0,response1disk,22,-0.001111111,0.002222222,1,0,0,center_square,0,21,21,46,1,,,,,,,,,,,,,,,,,,,,,,,
780879,001,2022-11-13_23h29.29.377,Info_measure_main_exp,2022.2.2,MacIntel,59.24170616,,,,,,,,,,,,,,,,,,masks/mask_004.jpg,,,,,,,,,,,,,,,,,,,,,,,,,,,,,,,,,,,,,,,,,,,0,0,0,3,1,,,,,,,,,,,,,,,,,,,,,,,,,,,,,,,,,,,,,,,,,,,,,,
780879,001,2022-11-13_23h29.29.377,Info_measure_main_exp,2022.2.2,MacIntel,59.24170616,,,,,,,,,,,,,,,,,,masks/mask_005.jpg,,,,,,,,,,,,,,,,,,,,,,,,,,,,,,,,,,,,,,,,,,,0,1,1,4,1,,,,,,,,,,,,,,,,,,,,,,,,,,,,,,,,,,,,,,,,,,,,,,
780879,001,2022-11-13_23h29.29.377,Info_measure_main_exp,2022.2.2,MacIntel,59.24170616,,,,,,,,,,,,,,,,,,masks/mask_002.jpg,,,,,,,,,,,,,,,,,,,,,,,,,,,,,,,,,,,,,,,,,,,0,2,2,1,1,,,,,,,,,,,,,,,,,,,,,,,,,,,,,,,,,,,,,,,,,,,,,,
780879,001,2022-11-13_23h29.29.377,Info_measure_main_exp,2022.2.2,MacIntel,59.24170616,,,,,,,,,,,,,,,,,,masks/mask_001.jpg,,,,,,,,,,,,,,,,,,,,,,,,,,,,,,,,,,,,,,,,,,,0,3,3,0,1,,,,,,,,,,,,,,,,,,,,,,,,,,,,,,,,,,,,,,,,,,,,,,
780879,001,2022-11-13_23h29.29.377,Info_measure_main_exp,2022.2.2,MacIntel,59.24170616,,,,,,,,,,,,,,,,,,masks/mask_003.jpg,,,,,,,,,,,,,,,,,,,,,,,,,,,,,,,,,,,,,,,,,,,0,4,4,2,1,,,,,,,,,,,,,,,,,,,,,,,,,,,,,,,,,,,,,,,,,,,,,,
780879,001,2022-11-13_23h29.29.377,Info_measure_main_exp,2022.2.2,MacIntel,59.24170616,,,,,,,,,,,,,,,,,,masks/mask_002.jpg,,,,,,,,,,,,,,,,,,,,,,,,,,,,,,,,,,,,,,,,,,,,,,,,0,0,0,1,1,,,,,,,,,,,,,,,,,,,,,,,,,,,,,,,,,,,,,,,,,
780879,001,2022-11-13_23h29.29.377,Info_measure_main_exp,2022.2.2,MacIntel,59.24170616,,,,,,,,,,,,,,,,,,masks/mask_004.jpg,,,,,,,,,,,,,,,,,,,,,,,,,,,,,,,,,,,,,,,,,,,,,,,,0,1,1,3,1,,,,,,,,,,,,,,,,,,,,,,,,,,,,,,,,,,,,,,,,,
780879,001,2022-11-13_23h29.29.377,Info_measure_main_exp,2022.2.2,MacIntel,59.24170616,,,,,,,,,,,,,,,,,,masks/mask_003.jpg,,,,,,,,,,,,,,,,,,,,,,,,,,,,,,,,,,,,,,,,,,,,,,,,0,2,2,2,1,,,,,,,,,,,,,,,,,,,,,,,,,,,,,,,,,,,,,,,,,
780879,001,2022-11-13_23h29.29.377,Info_measure_main_exp,2022.2.2,MacIntel,59.24170616,,,,,,,,,,,,,,,,,,masks/mask_001.jpg,,,,,,,,,,,,,,,,,,,,,,,,,,,,,,,,,,,,,,,,,,,,,,,,0,3,3,0,1,,,,,,,,,,,,,,,,,,,,,,,,,,,,,,,,,,,,,,,,,
780879,001,2022-11-13_23h29.29.377,Info_measure_main_exp,2022.2.2,MacIntel,59.24170616,,,,,,,,,,,,,,,,,,masks/mask_005.jpg,,,,,,,,,,,,,,,,,,,,,,,,,,,,,,,,,,,,,,,,,,,,,,,,0,4,4,4,1,,,,,,,,,,,,,,,,,,,,,,,,,,,,,,,,,,,,,,,,,
780879,001,2022-11-13_23h29.29.377,Info_measure_main_exp,2022.2.2,MacIntel,59.24170616,,,,,,,,,,,,,,,,,,,,,,,,,,,,,,7,0.95,1,,,,,,,,,,,,0,131,5,5,2082,1986,absent_patch/patch0002082.jpg,absent_patch/patch0001986.jpg,,,,,,,,,,,,,,,,,,,,0.035555556,0.086666667,1,0,0,response1disk,23,0.005555556,0.01,1,0,0,center_square,0,22,22,94,1,,,,,,,,,,,,,,,,,,,,,,,
780879,001,2022-11-13_23h29.29.377,Info_measure_main_exp,2022.2.2,MacIntel,59.24170616,,,,,,,,,,,,,,,,,,masks/mask_003.jpg,,,,,,,,,,,,,,,,,,,,,,,,,,,,,,,,,,,,,,,,,,,0,0,0,2,1,,,,,,,,,,,,,,,,,,,,,,,,,,,,,,,,,,,,,,,,,,,,,,
780879,001,2022-11-13_23h29.29.377,Info_measure_main_exp,2022.2.2,MacIntel,59.24170616,,,,,,,,,,,,,,,,,,masks/mask_001.jpg,,,,,,,,,,,,,,,,,,,,,,,,,,,,,,,,,,,,,,,,,,,0,1,1,0,1,,,,,,,,,,,,,,,,,,,,,,,,,,,,,,,,,,,,,,,,,,,,,,
780879,001,2022-11-13_23h29.29.377,Info_measure_main_exp,2022.2.2,MacIntel,59.24170616,,,,,,,,,,,,,,,,,,masks/mask_005.jpg,,,,,,,,,,,,,,,,,,,,,,,,,,,,,,,,,,,,,,,,,,,0,2,2,4,1,,,,,,,,,,,,,,,,,,,,,,,,,,,,,,,,,,,,,,,,,,,,,,
780879,001,2022-11-13_23h29.29.377,Info_measure_main_exp,2022.2.2,MacIntel,59.24170616,,,,,,,,,,,,,,,,,,masks/mask_002.jpg,,,,,,,,,,,,,,,,,,,,,,,,,,,,,,,,,,,,,,,,,,,0,3,3,1,1,,,,,,,,,,,,,,,,,,,,,,,,,,,,,,,,,,,,,,,,,,,,,,
780879,001,2022-11-13_23h29.29.377,Info_measure_main_exp,2022.2.2,MacIntel,59.24170616,,,,,,,,,,,,,,,,,,masks/mask_004.jpg,,,,,,,,,,,,,,,,,,,,,,,,,,,,,,,,,,,,,,,,,,,0,4,4,3,1,,,,,,,,,,,,,,,,,,,,,,,,,,,,,,,,,,,,,,,,,,,,,,
780879,001,2022-11-13_23h29.29.377,Info_measure_main_exp,2022.2.2,MacIntel,59.24170616,,,,,,,,,,,,,,,,,,masks/mask_002.jpg,,,,,,,,,,,,,,,,,,,,,,,,,,,,,,,,,,,,,,,,,,,,,,,,0,0,0,1,1,,,,,,,,,,,,,,,,,,,,,,,,,,,,,,,,,,,,,,,,,
780879,001,2022-11-13_23h29.29.377,Info_measure_main_exp,2022.2.2,MacIntel,59.24170616,,,,,,,,,,,,,,,,,,masks/mask_003.jpg,,,,,,,,,,,,,,,,,,,,,,,,,,,,,,,,,,,,,,,,,,,,,,,,0,1,1,2,1,,,,,,,,,,,,,,,,,,,,,,,,,,,,,,,,,,,,,,,,,
780879,001,2022-11-13_23h29.29.377,Info_measure_main_exp,2022.2.2,MacIntel,59.24170616,,,,,,,,,,,,,,,,,,masks/mask_001.jpg,,,,,,,,,,,,,,,,,,,,,,,,,,,,,,,,,,,,,,,,,,,,,,,,0,2,2,0,1,,,,,,,,,,,,,,,,,,,,,,,,,,,,,,,,,,,,,,,,,
780879,001,2022-11-13_23h29.29.377,Info_measure_main_exp,2022.2.2,MacIntel,59.24170616,,,,,,,,,,,,,,,,,,masks/mask_005.jpg,,,,,,,,,,,,,,,,,,,,,,,,,,,,,,,,,,,,,,,,,,,,,,,,0,3,3,4,1,,,,,,,,,,,,,,,,,,,,,,,,,,,,,,,,,,,,,,,,,
780879,001,2022-11-13_23h29.29.377,Info_measure_main_exp,2022.2.2,MacIntel,59.24170616,,,,,,,,,,,,,,,,,,masks/mask_004.jpg,,,,,,,,,,,,,,,,,,,,,,,,,,,,,,,,,,,,,,,,,,,,,,,,0,4,4,3,1,,,,,,,,,,,,,,,,,,,,,,,,,,,,,,,,,,,,,,,,,
780879,001,2022-11-13_23h29.29.377,Info_measure_main_exp,2022.2.2,MacIntel,59.24170616,,,,,,,,,,,,,,,,,,,,,,,,,,,,,,7,0.616,1,,,,,,,,,,,,0,131,5,5,1950,2142,absent_patch/patch0001950.jpg,absent_patch/patch0002142.jpg,,,,,,,,,,,,,,,,,,,,0.035555556,0.058888889,1,0,0,response1disk,24,0.007777778,0.008888889,1,0,0,center_square,0,23,23,83,1,,,,,,,,,,,,,,,,,,,,,,,
780879,001,2022-11-13_23h29.29.377,Info_measure_main_exp,2022.2.2,MacIntel,59.24170616,,,,,,,,,,,,,,,,,,masks/mask_001.jpg,,,,,,,,,,,,,,,,,,,,,,,,,,,,,,,,,,,,,,,,,,,0,0,0,0,1,,,,,,,,,,,,,,,,,,,,,,,,,,,,,,,,,,,,,,,,,,,,,,
780879,001,2022-11-13_23h29.29.377,Info_measure_main_exp,2022.2.2,MacIntel,59.24170616,,,,,,,,,,,,,,,,,,masks/mask_003.jpg,,,,,,,,,,,,,,,,,,,,,,,,,,,,,,,,,,,,,,,,,,,0,1,1,2,1,,,,,,,,,,,,,,,,,,,,,,,,,,,,,,,,,,,,,,,,,,,,,,
780879,001,2022-11-13_23h29.29.377,Info_measure_main_exp,2022.2.2,MacIntel,59.24170616,,,,,,,,,,,,,,,,,,masks/mask_002.jpg,,,,,,,,,,,,,,,,,,,,,,,,,,,,,,,,,,,,,,,,,,,0,2,2,1,1,,,,,,,,,,,,,,,,,,,,,,,,,,,,,,,,,,,,,,,,,,,,,,
780879,001,2022-11-13_23h29.29.377,Info_measure_main_exp,2022.2.2,MacIntel,59.24170616,,,,,,,,,,,,,,,,,,masks/mask_005.jpg,,,,,,,,,,,,,,,,,,,,,,,,,,,,,,,,,,,,,,,,,,,0,3,3,4,1,,,,,,,,,,,,,,,,,,,,,,,,,,,,,,,,,,,,,,,,,,,,,,
780879,001,2022-11-13_23h29.29.377,Info_measure_main_exp,2022.2.2,MacIntel,59.24170616,,,,,,,,,,,,,,,,,,masks/mask_004.jpg,,,,,,,,,,,,,,,,,,,,,,,,,,,,,,,,,,,,,,,,,,,0,4,4,3,1,,,,,,,,,,,,,,,,,,,,,,,,,,,,,,,,,,,,,,,,,,,,,,
780879,001,2022-11-13_23h29.29.377,Info_measure_main_exp,2022.2.2,MacIntel,59.24170616,,,,,,,,,,,,,,,,,,masks/mask_003.jpg,,,,,,,,,,,,,,,,,,,,,,,,,,,,,,,,,,,,,,,,,,,,,,,,0,0,0,2,1,,,,,,,,,,,,,,,,,,,,,,,,,,,,,,,,,,,,,,,,,
780879,001,2022-11-13_23h29.29.377,Info_measure_main_exp,2022.2.2,MacIntel,59.24170616,,,,,,,,,,,,,,,,,,masks/mask_001.jpg,,,,,,,,,,,,,,,,,,,,,,,,,,,,,,,,,,,,,,,,,,,,,,,,0,1,1,0,1,,,,,,,,,,,,,,,,,,,,,,,,,,,,,,,,,,,,,,,,,
780879,001,2022-11-13_23h29.29.377,Info_measure_main_exp,2022.2.2,MacIntel,59.24170616,,,,,,,,,,,,,,,,,,masks/mask_004.jpg,,,,,,,,,,,,,,,,,,,,,,,,,,,,,,,,,,,,,,,,,,,,,,,,0,2,2,3,1,,,,,,,,,,,,,,,,,,,,,,,,,,,,,,,,,,,,,,,,,
780879,001,2022-11-13_23h29.29.377,Info_measure_main_exp,2022.2.2,MacIntel,59.24170616,,,,,,,,,,,,,,,,,,masks/mask_002.jpg,,,,,,,,,,,,,,,,,,,,,,,,,,,,,,,,,,,,,,,,,,,,,,,,0,3,3,1,1,,,,,,,,,,,,,,,,,,,,,,,,,,,,,,,,,,,,,,,,,
780879,001,2022-11-13_23h29.29.377,Info_measure_main_exp,2022.2.2,MacIntel,59.24170616,,,,,,,,,,,,,,,,,,masks/mask_005.jpg,,,,,,,,,,,,,,,,,,,,,,,,,,,,,,,,,,,,,,,,,,,,,,,,0,4,4,4,1,,,,,,,,,,,,,,,,,,,,,,,,,,,,,,,,,,,,,,,,,
780879,001,2022-11-13_23h29.29.377,Info_measure_main_exp,2022.2.2,MacIntel,59.24170616,,,,,,,,,,,,,,,,,,,,,,,,,,,,,,7,0.632,1,,,,,,,,,,,,0,131,5,5,2238,2166,absent_patch/patch0002238.jpg,absent_patch/patch0002166.jpg,,,,,,,,,,,,,,,,,,,,0.033333333,0.131111111,1,0,0,response1disk,25,-0.003333333,0.006666667,1,0,0,center_square,0,24,24,118,1,,,,,,,,,,,,,,,,,,,,,,,
780879,001,2022-11-13_23h29.29.377,Info_measure_main_exp,2022.2.2,MacIntel,59.24170616,,,,,,,,,,,,,,,,,,masks/mask_002.jpg,,,,,,,,,,,,,,,,,,,,,,,,,,,,,,,,,,,,,,,,,,,0,0,0,1,1,,,,,,,,,,,,,,,,,,,,,,,,,,,,,,,,,,,,,,,,,,,,,,
780879,001,2022-11-13_23h29.29.377,Info_measure_main_exp,2022.2.2,MacIntel,59.24170616,,,,,,,,,,,,,,,,,,masks/mask_001.jpg,,,,,,,,,,,,,,,,,,,,,,,,,,,,,,,,,,,,,,,,,,,0,1,1,0,1,,,,,,,,,,,,,,,,,,,,,,,,,,,,,,,,,,,,,,,,,,,,,,
780879,001,2022-11-13_23h29.29.377,Info_measure_main_exp,2022.2.2,MacIntel,59.24170616,,,,,,,,,,,,,,,,,,masks/mask_003.jpg,,,,,,,,,,,,,,,,,,,,,,,,,,,,,,,,,,,,,,,,,,,0,2,2,2,1,,,,,,,,,,,,,,,,,,,,,,,,,,,,,,,,,,,,,,,,,,,,,,
780879,001,2022-11-13_23h29.29.377,Info_measure_main_exp,2022.2.2,MacIntel,59.24170616,,,,,,,,,,,,,,,,,,masks/mask_004.jpg,,,,,,,,,,,,,,,,,,,,,,,,,,,,,,,,,,,,,,,,,,,0,3,3,3,1,,,,,,,,,,,,,,,,,,,,,,,,,,,,,,,,,,,,,,,,,,,,,,
780879,001,2022-11-13_23h29.29.377,Info_measure_main_exp,2022.2.2,MacIntel,59.24170616,,,,,,,,,,,,,,,,,,masks/mask_005.jpg,,,,,,,,,,,,,,,,,,,,,,,,,,,,,,,,,,,,,,,,,,,0,4,4,4,1,,,,,,,,,,,,,,,,,,,,,,,,,,,,,,,,,,,,,,,,,,,,,,
780879,001,2022-11-13_23h29.29.377,Info_measure_main_exp,2022.2.2,MacIntel,59.24170616,,,,,,,,,,,,,,,,,,masks/mask_003.jpg,,,,,,,,,,,,,,,,,,,,,,,,,,,,,,,,,,,,,,,,,,,,,,,,0,0,0,2,1,,,,,,,,,,,,,,,,,,,,,,,,,,,,,,,,,,,,,,,,,
780879,001,2022-11-13_23h29.29.377,Info_measure_main_exp,2022.2.2,MacIntel,59.24170616,,,,,,,,,,,,,,,,,,masks/mask_004.jpg,,,,,,,,,,,,,,,,,,,,,,,,,,,,,,,,,,,,,,,,,,,,,,,,0,1,1,3,1,,,,,,,,,,,,,,,,,,,,,,,,,,,,,,,,,,,,,,,,,
780879,001,2022-11-13_23h29.29.377,Info_measure_main_exp,2022.2.2,MacIntel,59.24170616,,,,,,,,,,,,,,,,,,masks/mask_005.jpg,,,,,,,,,,,,,,,,,,,,,,,,,,,,,,,,,,,,,,,,,,,,,,,,0,2,2,4,1,,,,,,,,,,,,,,,,,,,,,,,,,,,,,,,,,,,,,,,,,
780879,001,2022-11-13_23h29.29.377,Info_measure_main_exp,2022.2.2,MacIntel,59.24170616,,,,,,,,,,,,,,,,,,masks/mask_002.jpg,,,,,,,,,,,,,,,,,,,,,,,,,,,,,,,,,,,,,,,,,,,,,,,,0,3,3,1,1,,,,,,,,,,,,,,,,,,,,,,,,,,,,,,,,,,,,,,,,,
780879,001,2022-11-13_23h29.29.377,Info_measure_main_exp,2022.2.2,MacIntel,59.24170616,,,,,,,,,,,,,,,,,,masks/mask_001.jpg,,,,,,,,,,,,,,,,,,,,,,,,,,,,,,,,,,,,,,,,,,,,,,,,0,4,4,0,1,,,,,,,,,,,,,,,,,,,,,,,,,,,,,,,,,,,,,,,,,
780879,001,2022-11-13_23h29.29.377,Info_measure_main_exp,2022.2.2,MacIntel,59.24170616,,,,,,,,,,,,,,,,,,,,,,,,,,,,,,7,0.433,1,,,,,,,,,,,,0,131,5,5,2178,2154,absent_patch/patch0002178.jpg,absent_patch/patch0002154.jpg,,,,,,,,,,,,,,,,,,,,0.034444444,0.111111111,1,0,0,response1disk,26,-0.003333333,0.008888889,1,0,0,center_square,0,25,25,63,1,,,,,,,,,,,,,,,,,,,,,,,
780879,001,2022-11-13_23h29.29.377,Info_measure_main_exp,2022.2.2,MacIntel,59.24170616,,,,,,,,,,,,,,,,,,masks/mask_002.jpg,,,,,,,,,,,,,,,,,,,,,,,,,,,,,,,,,,,,,,,,,,,0,0,0,1,1,,,,,,,,,,,,,,,,,,,,,,,,,,,,,,,,,,,,,,,,,,,,,,
780879,001,2022-11-13_23h29.29.377,Info_measure_main_exp,2022.2.2,MacIntel,59.24170616,,,,,,,,,,,,,,,,,,masks/mask_004.jpg,,,,,,,,,,,,,,,,,,,,,,,,,,,,,,,,,,,,,,,,,,,0,1,1,3,1,,,,,,,,,,,,,,,,,,,,,,,,,,,,,,,,,,,,,,,,,,,,,,
780879,001,2022-11-13_23h29.29.377,Info_measure_main_exp,2022.2.2,MacIntel,59.24170616,,,,,,,,,,,,,,,,,,masks/mask_005.jpg,,,,,,,,,,,,,,,,,,,,,,,,,,,,,,,,,,,,,,,,,,,0,2,2,4,1,,,,,,,,,,,,,,,,,,,,,,,,,,,,,,,,,,,,,,,,,,,,,,
780879,001,2022-11-13_23h29.29.377,Info_measure_main_exp,2022.2.2,MacIntel,59.24170616,,,,,,,,,,,,,,,,,,masks/mask_003.jpg,,,,,,,,,,,,,,,,,,,,,,,,,,,,,,,,,,,,,,,,,,,0,3,3,2,1,,,,,,,,,,,,,,,,,,,,,,,,,,,,,,,,,,,,,,,,,,,,,,
780879,001,2022-11-13_23h29.29.377,Info_measure_main_exp,2022.2.2,MacIntel,59.24170616,,,,,,,,,,,,,,,,,,masks/mask_001.jpg,,,,,,,,,,,,,,,,,,,,,,,,,,,,,,,,,,,,,,,,,,,0,4,4,0,1,,,,,,,,,,,,,,,,,,,,,,,,,,,,,,,,,,,,,,,,,,,,,,
780879,001,2022-11-13_23h29.29.377,Info_measure_main_exp,2022.2.2,MacIntel,59.24170616,,,,,,,,,,,,,,,,,,masks/mask_004.jpg,,,,,,,,,,,,,,,,,,,,,,,,,,,,,,,,,,,,,,,,,,,,,,,,0,0,0,3,1,,,,,,,,,,,,,,,,,,,,,,,,,,,,,,,,,,,,,,,,,
780879,001,2022-11-13_23h29.29.377,Info_measure_main_exp,2022.2.2,MacIntel,59.24170616,,,,,,,,,,,,,,,,,,masks/mask_002.jpg,,,,,,,,,,,,,,,,,,,,,,,,,,,,,,,,,,,,,,,,,,,,,,,,0,1,1,1,1,,,,,,,,,,,,,,,,,,,,,,,,,,,,,,,,,,,,,,,,,
780879,001,2022-11-13_23h29.29.377,Info_measure_main_exp,2022.2.2,MacIntel,59.24170616,,,,,,,,,,,,,,,,,,masks/mask_001.jpg,,,,,,,,,,,,,,,,,,,,,,,,,,,,,,,,,,,,,,,,,,,,,,,,0,2,2,0,1,,,,,,,,,,,,,,,,,,,,,,,,,,,,,,,,,,,,,,,,,
780879,001,2022-11-13_23h29.29.377,Info_measure_main_exp,2022.2.2,MacIntel,59.24170616,,,,,,,,,,,,,,,,,,masks/mask_003.jpg,,,,,,,,,,,,,,,,,,,,,,,,,,,,,,,,,,,,,,,,,,,,,,,,0,3,3,2,1,,,,,,,,,,,,,,,,,,,,,,,,,,,,,,,,,,,,,,,,,
780879,001,2022-11-13_23h29.29.377,Info_measure_main_exp,2022.2.2,MacIntel,59.24170616,,,,,,,,,,,,,,,,,,masks/mask_005.jpg,,,,,,,,,,,,,,,,,,,,,,,,,,,,,,,,,,,,,,,,,,,,,,,,0,4,4,4,1,,,,,,,,,,,,,,,,,,,,,,,,,,,,,,,,,,,,,,,,,
780879,001,2022-11-13_23h29.29.377,Info_measure_main_exp,2022.2.2,MacIntel,59.24170616,,,,,,,,,,,,,,,,,,,,,,,,,,,,,,7,0.449,1,,,,,,,,,,,,0,131,5,5,2274,2082,absent_patch/patch0002274.jpg,absent_patch/patch0002082.jpg,,,,,,,,,,,,,,,,,,,,0.045555556,0.116666667,1,0,0,response1disk,27,-0.004444444,-0.001111111,1,0,0,center_square,0,26,26,100,1,,,,,,,,,,,,,,,,,,,,,,,
780879,001,2022-11-13_23h29.29.377,Info_measure_main_exp,2022.2.2,MacIntel,59.24170616,,,,,,,,,,,,,,,,,,masks/mask_004.jpg,,,,,,,,,,,,,,,,,,,,,,,,,,,,,,,,,,,,,,,,,,,0,0,0,3,1,,,,,,,,,,,,,,,,,,,,,,,,,,,,,,,,,,,,,,,,,,,,,,
780879,001,2022-11-13_23h29.29.377,Info_measure_main_exp,2022.2.2,MacIntel,59.24170616,,,,,,,,,,,,,,,,,,masks/mask_002.jpg,,,,,,,,,,,,,,,,,,,,,,,,,,,,,,,,,,,,,,,,,,,0,1,1,1,1,,,,,,,,,,,,,,,,,,,,,,,,,,,,,,,,,,,,,,,,,,,,,,
780879,001,2022-11-13_23h29.29.377,Info_measure_main_exp,2022.2.2,MacIntel,59.24170616,,,,,,,,,,,,,,,,,,masks/mask_003.jpg,,,,,,,,,,,,,,,,,,,,,,,,,,,,,,,,,,,,,,,,,,,0,2,2,2,1,,,,,,,,,,,,,,,,,,,,,,,,,,,,,,,,,,,,,,,,,,,,,,
780879,001,2022-11-13_23h29.29.377,Info_measure_main_exp,2022.2.2,MacIntel,59.24170616,,,,,,,,,,,,,,,,,,masks/mask_005.jpg,,,,,,,,,,,,,,,,,,,,,,,,,,,,,,,,,,,,,,,,,,,0,3,3,4,1,,,,,,,,,,,,,,,,,,,,,,,,,,,,,,,,,,,,,,,,,,,,,,
780879,001,2022-11-13_23h29.29.377,Info_measure_main_exp,2022.2.2,MacIntel,59.24170616,,,,,,,,,,,,,,,,,,masks/mask_001.jpg,,,,,,,,,,,,,,,,,,,,,,,,,,,,,,,,,,,,,,,,,,,0,4,4,0,1,,,,,,,,,,,,,,,,,,,,,,,,,,,,,,,,,,,,,,,,,,,,,,
780879,001,2022-11-13_23h29.29.377,Info_measure_main_exp,2022.2.2,MacIntel,59.24170616,,,,,,,,,,,,,,,,,,masks/mask_001.jpg,,,,,,,,,,,,,,,,,,,,,,,,,,,,,,,,,,,,,,,,,,,,,,,,0,0,0,0,1,,,,,,,,,,,,,,,,,,,,,,,,,,,,,,,,,,,,,,,,,
780879,001,2022-11-13_23h29.29.377,Info_measure_main_exp,2022.2.2,MacIntel,59.24170616,,,,,,,,,,,,,,,,,,masks/mask_003.jpg,,,,,,,,,,,,,,,,,,,,,,,,,,,,,,,,,,,,,,,,,,,,,,,,0,1,1,2,1,,,,,,,,,,,,,,,,,,,,,,,,,,,,,,,,,,,,,,,,,
780879,001,2022-11-13_23h29.29.377,Info_measure_main_exp,2022.2.2,MacIntel,59.24170616,,,,,,,,,,,,,,,,,,masks/mask_005.jpg,,,,,,,,,,,,,,,,,,,,,,,,,,,,,,,,,,,,,,,,,,,,,,,,0,2,2,4,1,,,,,,,,,,,,,,,,,,,,,,,,,,,,,,,,,,,,,,,,,
780879,001,2022-11-13_23h29.29.377,Info_measure_main_exp,2022.2.2,MacIntel,59.24170616,,,,,,,,,,,,,,,,,,masks/mask_004.jpg,,,,,,,,,,,,,,,,,,,,,,,,,,,,,,,,,,,,,,,,,,,,,,,,0,3,3,3,1,,,,,,,,,,,,,,,,,,,,,,,,,,,,,,,,,,,,,,,,,
780879,001,2022-11-13_23h29.29.377,Info_measure_main_exp,2022.2.2,MacIntel,59.24170616,,,,,,,,,,,,,,,,,,masks/mask_002.jpg,,,,,,,,,,,,,,,,,,,,,,,,,,,,,,,,,,,,,,,,,,,,,,,,0,4,4,1,1,,,,,,,,,,,,,,,,,,,,,,,,,,,,,,,,,,,,,,,,,
780879,001,2022-11-13_23h29.29.377,Info_measure_main_exp,2022.2.2,MacIntel,59.24170616,,,,,,,,,,,,,,,,,,,,,,,,,,,,,,7,0.417,1,,,,,,,,,,,,0,131,5,5,2274,2142,absent_patch/patch0002274.jpg,absent_patch/patch0002142.jpg,,,,,,,,,,,,,,,,,,,,0.043333333,0.094444444,1,0,0,response1disk,28,0.004444444,0.002222222,1,0,0,center_square,0,27,27,75,1,,,,,,,,,,,,,,,,,,,,,,,
780879,001,2022-11-13_23h29.29.377,Info_measure_main_exp,2022.2.2,MacIntel,59.24170616,,,,,,,,,,,,,,,,,,masks/mask_004.jpg,,,,,,,,,,,,,,,,,,,,,,,,,,,,,,,,,,,,,,,,,,,0,0,0,3,1,,,,,,,,,,,,,,,,,,,,,,,,,,,,,,,,,,,,,,,,,,,,,,
780879,001,2022-11-13_23h29.29.377,Info_measure_main_exp,2022.2.2,MacIntel,59.24170616,,,,,,,,,,,,,,,,,,masks/mask_003.jpg,,,,,,,,,,,,,,,,,,,,,,,,,,,,,,,,,,,,,,,,,,,0,1,1,2,1,,,,,,,,,,,,,,,,,,,,,,,,,,,,,,,,,,,,,,,,,,,,,,
780879,001,2022-11-13_23h29.29.377,Info_measure_main_exp,2022.2.2,MacIntel,59.24170616,,,,,,,,,,,,,,,,,,masks/mask_005.jpg,,,,,,,,,,,,,,,,,,,,,,,,,,,,,,,,,,,,,,,,,,,0,2,2,4,1,,,,,,,,,,,,,,,,,,,,,,,,,,,,,,,,,,,,,,,,,,,,,,
780879,001,2022-11-13_23h29.29.377,Info_measure_main_exp,2022.2.2,MacIntel,59.24170616,,,,,,,,,,,,,,,,,,masks/mask_002.jpg,,,,,,,,,,,,,,,,,,,,,,,,,,,,,,,,,,,,,,,,,,,0,3,3,1,1,,,,,,,,,,,,,,,,,,,,,,,,,,,,,,,,,,,,,,,,,,,,,,
780879,001,2022-11-13_23h29.29.377,Info_measure_main_exp,2022.2.2,MacIntel,59.24170616,,,,,,,,,,,,,,,,,,masks/mask_001.jpg,,,,,,,,,,,,,,,,,,,,,,,,,,,,,,,,,,,,,,,,,,,0,4,4,0,1,,,,,,,,,,,,,,,,,,,,,,,,,,,,,,,,,,,,,,,,,,,,,,
780879,001,2022-11-13_23h29.29.377,Info_measure_main_exp,2022.2.2,MacIntel,59.24170616,,,,,,,,,,,,,,,,,,masks/mask_002.jpg,,,,,,,,,,,,,,,,,,,,,,,,,,,,,,,,,,,,,,,,,,,,,,,,0,0,0,1,1,,,,,,,,,,,,,,,,,,,,,,,,,,,,,,,,,,,,,,,,,
780879,001,2022-11-13_23h29.29.377,Info_measure_main_exp,2022.2.2,MacIntel,59.24170616,,,,,,,,,,,,,,,,,,masks/mask_005.jpg,,,,,,,,,,,,,,,,,,,,,,,,,,,,,,,,,,,,,,,,,,,,,,,,0,1,1,4,1,,,,,,,,,,,,,,,,,,,,,,,,,,,,,,,,,,,,,,,,,
780879,001,2022-11-13_23h29.29.377,Info_measure_main_exp,2022.2.2,MacIntel,59.24170616,,,,,,,,,,,,,,,,,,masks/mask_003.jpg,,,,,,,,,,,,,,,,,,,,,,,,,,,,,,,,,,,,,,,,,,,,,,,,0,2,2,2,1,,,,,,,,,,,,,,,,,,,,,,,,,,,,,,,,,,,,,,,,,
780879,001,2022-11-13_23h29.29.377,Info_measure_main_exp,2022.2.2,MacIntel,59.24170616,,,,,,,,,,,,,,,,,,masks/mask_001.jpg,,,,,,,,,,,,,,,,,,,,,,,,,,,,,,,,,,,,,,,,,,,,,,,,0,3,3,0,1,,,,,,,,,,,,,,,,,,,,,,,,,,,,,,,,,,,,,,,,,
780879,001,2022-11-13_23h29.29.377,Info_measure_main_exp,2022.2.2,MacIntel,59.24170616,,,,,,,,,,,,,,,,,,masks/mask_004.jpg,,,,,,,,,,,,,,,,,,,,,,,,,,,,,,,,,,,,,,,,,,,,,,,,0,4,4,3,1,,,,,,,,,,,,,,,,,,,,,,,,,,,,,,,,,,,,,,,,,
780879,001,2022-11-13_23h29.29.377,Info_measure_main_exp,2022.2.2,MacIntel,59.24170616,,,,,,,,,,,,,,,,,,,,,,,,,,,,,,0,0.551,1,,,,,,,,,,,,0,131,5,5,2274,2274,absent_patch/patch0002274.jpg,absent_patch/patch0002274.jpg,,,,,,,,,,,,,,,,,,,,-0.052222222,0.08,1,0,0,response7disk,29,-0.013333333,0.008888889,1,0,0,center_square,0,28,28,114,1,,,,,,,,,,,,,,,,,,,,,,,
780879,001,2022-11-13_23h29.29.377,Info_measure_main_exp,2022.2.2,MacIntel,59.24170616,,,,,,,,,,,,,,,,,,masks/mask_005.jpg,,,,,,,,,,,,,,,,,,,,,,,,,,,,,,,,,,,,,,,,,,,0,0,0,4,1,,,,,,,,,,,,,,,,,,,,,,,,,,,,,,,,,,,,,,,,,,,,,,
780879,001,2022-11-13_23h29.29.377,Info_measure_main_exp,2022.2.2,MacIntel,59.24170616,,,,,,,,,,,,,,,,,,masks/mask_002.jpg,,,,,,,,,,,,,,,,,,,,,,,,,,,,,,,,,,,,,,,,,,,0,1,1,1,1,,,,,,,,,,,,,,,,,,,,,,,,,,,,,,,,,,,,,,,,,,,,,,
780879,001,2022-11-13_23h29.29.377,Info_measure_main_exp,2022.2.2,MacIntel,59.24170616,,,,,,,,,,,,,,,,,,masks/mask_004.jpg,,,,,,,,,,,,,,,,,,,,,,,,,,,,,,,,,,,,,,,,,,,0,2,2,3,1,,,,,,,,,,,,,,,,,,,,,,,,,,,,,,,,,,,,,,,,,,,,,,
780879,001,2022-11-13_23h29.29.377,Info_measure_main_exp,2022.2.2,MacIntel,59.24170616,,,,,,,,,,,,,,,,,,masks/mask_003.jpg,,,,,,,,,,,,,,,,,,,,,,,,,,,,,,,,,,,,,,,,,,,0,3,3,2,1,,,,,,,,,,,,,,,,,,,,,,,,,,,,,,,,,,,,,,,,,,,,,,
780879,001,2022-11-13_23h29.29.377,Info_measure_main_exp,2022.2.2,MacIntel,59.24170616,,,,,,,,,,,,,,,,,,masks/mask_001.jpg,,,,,,,,,,,,,,,,,,,,,,,,,,,,,,,,,,,,,,,,,,,0,4,4,0,1,,,,,,,,,,,,,,,,,,,,,,,,,,,,,,,,,,,,,,,,,,,,,,
780879,001,2022-11-13_23h29.29.377,Info_measure_main_exp,2022.2.2,MacIntel,59.24170616,,,,,,,,,,,,,,,,,,masks/mask_003.jpg,,,,,,,,,,,,,,,,,,,,,,,,,,,,,,,,,,,,,,,,,,,,,,,,0,0,0,2,1,,,,,,,,,,,,,,,,,,,,,,,,,,,,,,,,,,,,,,,,,
780879,001,2022-11-13_23h29.29.377,Info_measure_main_exp,2022.2.2,MacIntel,59.24170616,,,,,,,,,,,,,,,,,,masks/mask_002.jpg,,,,,,,,,,,,,,,,,,,,,,,,,,,,,,,,,,,,,,,,,,,,,,,,0,1,1,1,1,,,,,,,,,,,,,,,,,,,,,,,,,,,,,,,,,,,,,,,,,
780879,001,2022-11-13_23h29.29.377,Info_measure_main_exp,2022.2.2,MacIntel,59.24170616,,,,,,,,,,,,,,,,,,masks/mask_005.jpg,,,,,,,,,,,,,,,,,,,,,,,,,,,,,,,,,,,,,,,,,,,,,,,,0,2,2,4,1,,,,,,,,,,,,,,,,,,,,,,,,,,,,,,,,,,,,,,,,,
780879,001,2022-11-13_23h29.29.377,Info_measure_main_exp,2022.2.2,MacIntel,59.24170616,,,,,,,,,,,,,,,,,,masks/mask_004.jpg,,,,,,,,,,,,,,,,,,,,,,,,,,,,,,,,,,,,,,,,,,,,,,,,0,3,3,3,1,,,,,,,,,,,,,,,,,,,,,,,,,,,,,,,,,,,,,,,,,
780879,001,2022-11-13_23h29.29.377,Info_measure_main_exp,2022.2.2,MacIntel,59.24170616,,,,,,,,,,,,,,,,,,masks/mask_001.jpg,,,,,,,,,,,,,,,,,,,,,,,,,,,,,,,,,,,,,,,,,,,,,,,,0,4,4,0,1,,,,,,,,,,,,,,,,,,,,,,,,,,,,,,,,,,,,,,,,,
780879,001,2022-11-13_23h29.29.377,Info_measure_main_exp,2022.2.2,MacIntel,59.24170616,,,,,,,,,,,,,,,,,,,,,,,,,,,,,,7,0.534,1,,,,,,,,,,,,0,131,5,5,2238,2298,absent_patch/patch0002238.jpg,absent_patch/patch0002298.jpg,,,,,,,,,,,,,,,,,,,,0.048888889,0.095555556,1,0,0,response1disk,30,0.004444444,-0.001111111,1,0,0,center_square,0,29,29,51,1,,,,,,,,,,,,,,,,,,,,,,,
780879,001,2022-11-13_23h29.29.377,Info_measure_main_exp,2022.2.2,MacIntel,59.24170616,,,,,,,,,,,,,,,,,,masks/mask_004.jpg,,,,,,,,,,,,,,,,,,,,,,,,,,,,,,,,,,,,,,,,,,,0,0,0,3,1,,,,,,,,,,,,,,,,,,,,,,,,,,,,,,,,,,,,,,,,,,,,,,
780879,001,2022-11-13_23h29.29.377,Info_measure_main_exp,2022.2.2,MacIntel,59.24170616,,,,,,,,,,,,,,,,,,masks/mask_005.jpg,,,,,,,,,,,,,,,,,,,,,,,,,,,,,,,,,,,,,,,,,,,0,1,1,4,1,,,,,,,,,,,,,,,,,,,,,,,,,,,,,,,,,,,,,,,,,,,,,,
780879,001,2022-11-13_23h29.29.377,Info_measure_main_exp,2022.2.2,MacIntel,59.24170616,,,,,,,,,,,,,,,,,,masks/mask_002.jpg,,,,,,,,,,,,,,,,,,,,,,,,,,,,,,,,,,,,,,,,,,,0,2,2,1,1,,,,,,,,,,,,,,,,,,,,,,,,,,,,,,,,,,,,,,,,,,,,,,
780879,001,2022-11-13_23h29.29.377,Info_measure_main_exp,2022.2.2,MacIntel,59.24170616,,,,,,,,,,,,,,,,,,masks/mask_003.jpg,,,,,,,,,,,,,,,,,,,,,,,,,,,,,,,,,,,,,,,,,,,0,3,3,2,1,,,,,,,,,,,,,,,,,,,,,,,,,,,,,,,,,,,,,,,,,,,,,,
780879,001,2022-11-13_23h29.29.377,Info_measure_main_exp,2022.2.2,MacIntel,59.24170616,,,,,,,,,,,,,,,,,,masks/mask_001.jpg,,,,,,,,,,,,,,,,,,,,,,,,,,,,,,,,,,,,,,,,,,,0,4,4,0,1,,,,,,,,,,,,,,,,,,,,,,,,,,,,,,,,,,,,,,,,,,,,,,
780879,001,2022-11-13_23h29.29.377,Info_measure_main_exp,2022.2.2,MacIntel,59.24170616,,,,,,,,,,,,,,,,,,masks/mask_005.jpg,,,,,,,,,,,,,,,,,,,,,,,,,,,,,,,,,,,,,,,,,,,,,,,,0,0,0,4,1,,,,,,,,,,,,,,,,,,,,,,,,,,,,,,,,,,,,,,,,,
780879,001,2022-11-13_23h29.29.377,Info_measure_main_exp,2022.2.2,MacIntel,59.24170616,,,,,,,,,,,,,,,,,,masks/mask_002.jpg,,,,,,,,,,,,,,,,,,,,,,,,,,,,,,,,,,,,,,,,,,,,,,,,0,1,1,1,1,,,,,,,,,,,,,,,,,,,,,,,,,,,,,,,,,,,,,,,,,
780879,001,2022-11-13_23h29.29.377,Info_measure_main_exp,2022.2.2,MacIntel,59.24170616,,,,,,,,,,,,,,,,,,masks/mask_001.jpg,,,,,,,,,,,,,,,,,,,,,,,,,,,,,,,,,,,,,,,,,,,,,,,,0,2,2,0,1,,,,,,,,,,,,,,,,,,,,,,,,,,,,,,,,,,,,,,,,,
780879,001,2022-11-13_23h29.29.377,Info_measure_main_exp,2022.2.2,MacIntel,59.24170616,,,,,,,,,,,,,,,,,,masks/mask_004.jpg,,,,,,,,,,,,,,,,,,,,,,,,,,,,,,,,,,,,,,,,,,,,,,,,0,3,3,3,1,,,,,,,,,,,,,,,,,,,,,,,,,,,,,,,,,,,,,,,,,
780879,001,2022-11-13_23h29.29.377,Info_measure_main_exp,2022.2.2,MacIntel,59.24170616,,,,,,,,,,,,,,,,,,masks/mask_003.jpg,,,,,,,,,,,,,,,,,,,,,,,,,,,,,,,,,,,,,,,,,,,,,,,,0,4,4,2,1,,,,,,,,,,,,,,,,,,,,,,,,,,,,,,,,,,,,,,,,,
780879,001,2022-11-13_23h29.29.377,Info_measure_main_exp,2022.2.2,MacIntel,59.24170616,,,,,,,,,,,,,,,,,,,,,,,,,,,,,,7,0.551,1,,,,,,,,,,,,0,131,5,5,2178,2238,absent_patch/patch0002178.jpg,absent_patch/patch0002238.jpg,,,,,,,,,,,,,,,,,,,,0.036666667,0.077777778,1,0,0,response1disk,31,0.006666667,0,1,0,0,center_square,0,30,30,57,1,,,,,,,,,,,,,,,,,,,,,,,
780879,001,2022-11-13_23h29.29.377,Info_measure_main_exp,2022.2.2,MacIntel,59.24170616,,,,,,,,,,,,,,,,,,masks/mask_002.jpg,,,,,,,,,,,,,,,,,,,,,,,,,,,,,,,,,,,,,,,,,,,0,0,0,1,1,,,,,,,,,,,,,,,,,,,,,,,,,,,,,,,,,,,,,,,,,,,,,,
780879,001,2022-11-13_23h29.29.377,Info_measure_main_exp,2022.2.2,MacIntel,59.24170616,,,,,,,,,,,,,,,,,,masks/mask_005.jpg,,,,,,,,,,,,,,,,,,,,,,,,,,,,,,,,,,,,,,,,,,,0,1,1,4,1,,,,,,,,,,,,,,,,,,,,,,,,,,,,,,,,,,,,,,,,,,,,,,
780879,001,2022-11-13_23h29.29.377,Info_measure_main_exp,2022.2.2,MacIntel,59.24170616,,,,,,,,,,,,,,,,,,masks/mask_003.jpg,,,,,,,,,,,,,,,,,,,,,,,,,,,,,,,,,,,,,,,,,,,0,2,2,2,1,,,,,,,,,,,,,,,,,,,,,,,,,,,,,,,,,,,,,,,,,,,,,,
780879,001,2022-11-13_23h29.29.377,Info_measure_main_exp,2022.2.2,MacIntel,59.24170616,,,,,,,,,,,,,,,,,,masks/mask_001.jpg,,,,,,,,,,,,,,,,,,,,,,,,,,,,,,,,,,,,,,,,,,,0,3,3,0,1,,,,,,,,,,,,,,,,,,,,,,,,,,,,,,,,,,,,,,,,,,,,,,
780879,001,2022-11-13_23h29.29.377,Info_measure_main_exp,2022.2.2,MacIntel,59.24170616,,,,,,,,,,,,,,,,,,masks/mask_004.jpg,,,,,,,,,,,,,,,,,,,,,,,,,,,,,,,,,,,,,,,,,,,0,4,4,3,1,,,,,,,,,,,,,,,,,,,,,,,,,,,,,,,,,,,,,,,,,,,,,,
780879,001,2022-11-13_23h29.29.377,Info_measure_main_exp,2022.2.2,MacIntel,59.24170616,,,,,,,,,,,,,,,,,,masks/mask_002.jpg,,,,,,,,,,,,,,,,,,,,,,,,,,,,,,,,,,,,,,,,,,,,,,,,0,0,0,1,1,,,,,,,,,,,,,,,,,,,,,,,,,,,,,,,,,,,,,,,,,
780879,001,2022-11-13_23h29.29.377,Info_measure_main_exp,2022.2.2,MacIntel,59.24170616,,,,,,,,,,,,,,,,,,masks/mask_004.jpg,,,,,,,,,,,,,,,,,,,,,,,,,,,,,,,,,,,,,,,,,,,,,,,,0,1,1,3,1,,,,,,,,,,,,,,,,,,,,,,,,,,,,,,,,,,,,,,,,,
780879,001,2022-11-13_23h29.29.377,Info_measure_main_exp,2022.2.2,MacIntel,59.24170616,,,,,,,,,,,,,,,,,,masks/mask_005.jpg,,,,,,,,,,,,,,,,,,,,,,,,,,,,,,,,,,,,,,,,,,,,,,,,0,2,2,4,1,,,,,,,,,,,,,,,,,,,,,,,,,,,,,,,,,,,,,,,,,
780879,001,2022-11-13_23h29.29.377,Info_measure_main_exp,2022.2.2,MacIntel,59.24170616,,,,,,,,,,,,,,,,,,masks/mask_001.jpg,,,,,,,,,,,,,,,,,,,,,,,,,,,,,,,,,,,,,,,,,,,,,,,,0,3,3,0,1,,,,,,,,,,,,,,,,,,,,,,,,,,,,,,,,,,,,,,,,,
780879,001,2022-11-13_23h29.29.377,Info_measure_main_exp,2022.2.2,MacIntel,59.24170616,,,,,,,,,,,,,,,,,,masks/mask_003.jpg,,,,,,,,,,,,,,,,,,,,,,,,,,,,,,,,,,,,,,,,,,,,,,,,0,4,4,2,1,,,,,,,,,,,,,,,,,,,,,,,,,,,,,,,,,,,,,,,,,
780879,001,2022-11-13_23h29.29.377,Info_measure_main_exp,2022.2.2,MacIntel,59.24170616,,,,,,,,,,,,,,,,,,,,,,,,,,,,,,7,0.501,1,,,,,,,,,,,,1,131,5,5,1,2178,present_patch/cong_131_5_a.jpg,absent_patch/patch0002178.jpg,,,,,,,,,,,,,,,,,,,,0.028888889,0.064444444,1,0,0,response1disk,32,0.008888889,0.004444444,1,0,0,center_square,0,31,31,40,1,,,,,,,,,,,,,,,,,,,,,,,
780879,001,2022-11-13_23h29.29.377,Info_measure_main_exp,2022.2.2,MacIntel,59.24170616,,,,,,,,,,,,,,,,,,masks/mask_005.jpg,,,,,,,,,,,,,,,,,,,,,,,,,,,,,,,,,,,,,,,,,,,0,0,0,4,1,,,,,,,,,,,,,,,,,,,,,,,,,,,,,,,,,,,,,,,,,,,,,,
780879,001,2022-11-13_23h29.29.377,Info_measure_main_exp,2022.2.2,MacIntel,59.24170616,,,,,,,,,,,,,,,,,,masks/mask_001.jpg,,,,,,,,,,,,,,,,,,,,,,,,,,,,,,,,,,,,,,,,,,,0,1,1,0,1,,,,,,,,,,,,,,,,,,,,,,,,,,,,,,,,,,,,,,,,,,,,,,
780879,001,2022-11-13_23h29.29.377,Info_measure_main_exp,2022.2.2,MacIntel,59.24170616,,,,,,,,,,,,,,,,,,masks/mask_004.jpg,,,,,,,,,,,,,,,,,,,,,,,,,,,,,,,,,,,,,,,,,,,0,2,2,3,1,,,,,,,,,,,,,,,,,,,,,,,,,,,,,,,,,,,,,,,,,,,,,,
780879,001,2022-11-13_23h29.29.377,Info_measure_main_exp,2022.2.2,MacIntel,59.24170616,,,,,,,,,,,,,,,,,,masks/mask_002.jpg,,,,,,,,,,,,,,,,,,,,,,,,,,,,,,,,,,,,,,,,,,,0,3,3,1,1,,,,,,,,,,,,,,,,,,,,,,,,,,,,,,,,,,,,,,,,,,,,,,
780879,001,2022-11-13_23h29.29.377,Info_measure_main_exp,2022.2.2,MacIntel,59.24170616,,,,,,,,,,,,,,,,,,masks/mask_003.jpg,,,,,,,,,,,,,,,,,,,,,,,,,,,,,,,,,,,,,,,,,,,0,4,4,2,1,,,,,,,,,,,,,,,,,,,,,,,,,,,,,,,,,,,,,,,,,,,,,,
780879,001,2022-11-13_23h29.29.377,Info_measure_main_exp,2022.2.2,MacIntel,59.24170616,,,,,,,,,,,,,,,,,,masks/mask_004.jpg,,,,,,,,,,,,,,,,,,,,,,,,,,,,,,,,,,,,,,,,,,,,,,,,0,0,0,3,1,,,,,,,,,,,,,,,,,,,,,,,,,,,,,,,,,,,,,,,,,
780879,001,2022-11-13_23h29.29.377,Info_measure_main_exp,2022.2.2,MacIntel,59.24170616,,,,,,,,,,,,,,,,,,masks/mask_005.jpg,,,,,,,,,,,,,,,,,,,,,,,,,,,,,,,,,,,,,,,,,,,,,,,,0,1,1,4,1,,,,,,,,,,,,,,,,,,,,,,,,,,,,,,,,,,,,,,,,,
780879,001,2022-11-13_23h29.29.377,Info_measure_main_exp,2022.2.2,MacIntel,59.24170616,,,,,,,,,,,,,,,,,,masks/mask_001.jpg,,,,,,,,,,,,,,,,,,,,,,,,,,,,,,,,,,,,,,,,,,,,,,,,0,2,2,0,1,,,,,,,,,,,,,,,,,,,,,,,,,,,,,,,,,,,,,,,,,
780879,001,2022-11-13_23h29.29.377,Info_measure_main_exp,2022.2.2,MacIntel,59.24170616,,,,,,,,,,,,,,,,,,masks/mask_002.jpg,,,,,,,,,,,,,,,,,,,,,,,,,,,,,,,,,,,,,,,,,,,,,,,,0,3,3,1,1,,,,,,,,,,,,,,,,,,,,,,,,,,,,,,,,,,,,,,,,,
780879,001,2022-11-13_23h29.29.377,Info_measure_main_exp,2022.2.2,MacIntel,59.24170616,,,,,,,,,,,,,,,,,,masks/mask_003.jpg,,,,,,,,,,,,,,,,,,,,,,,,,,,,,,,,,,,,,,,,,,,,,,,,0,4,4,2,1,,,,,,,,,,,,,,,,,,,,,,,,,,,,,,,,,,,,,,,,,
780879,001,2022-11-13_23h29.29.377,Info_measure_main_exp,2022.2.2,MacIntel,59.24170616,,,,,,,,,,,,,,,,,,,,,,,,,,,,,,7,0.467,1,,,,,,,,,,,,0,131,5,5,2154,2190,absent_patch/patch0002154.jpg,absent_patch/patch0002190.jpg,,,,,,,,,,,,,,,,,,,,0.046666667,0.1,1,0,0,response1disk,33,-0.005555556,0.003333333,1,0,0,center_square,0,32,32,68,1,,,,,,,,,,,,,,,,,,,,,,,
780879,001,2022-11-13_23h29.29.377,Info_measure_main_exp,2022.2.2,MacIntel,59.24170616,,,,,,,,,,,,,,,,,,masks/mask_005.jpg,,,,,,,,,,,,,,,,,,,,,,,,,,,,,,,,,,,,,,,,,,,0,0,0,4,1,,,,,,,,,,,,,,,,,,,,,,,,,,,,,,,,,,,,,,,,,,,,,,
780879,001,2022-11-13_23h29.29.377,Info_measure_main_exp,2022.2.2,MacIntel,59.24170616,,,,,,,,,,,,,,,,,,masks/mask_002.jpg,,,,,,,,,,,,,,,,,,,,,,,,,,,,,,,,,,,,,,,,,,,0,1,1,1,1,,,,,,,,,,,,,,,,,,,,,,,,,,,,,,,,,,,,,,,,,,,,,,
780879,001,2022-11-13_23h29.29.377,Info_measure_main_exp,2022.2.2,MacIntel,59.24170616,,,,,,,,,,,,,,,,,,masks/mask_004.jpg,,,,,,,,,,,,,,,,,,,,,,,,,,,,,,,,,,,,,,,,,,,0,2,2,3,1,,,,,,,,,,,,,,,,,,,,,,,,,,,,,,,,,,,,,,,,,,,,,,
780879,001,2022-11-13_23h29.29.377,Info_measure_main_exp,2022.2.2,MacIntel,59.24170616,,,,,,,,,,,,,,,,,,masks/mask_003.jpg,,,,,,,,,,,,,,,,,,,,,,,,,,,,,,,,,,,,,,,,,,,0,3,3,2,1,,,,,,,,,,,,,,,,,,,,,,,,,,,,,,,,,,,,,,,,,,,,,,
780879,001,2022-11-13_23h29.29.377,Info_measure_main_exp,2022.2.2,MacIntel,59.24170616,,,,,,,,,,,,,,,,,,masks/mask_001.jpg,,,,,,,,,,,,,,,,,,,,,,,,,,,,,,,,,,,,,,,,,,,0,4,4,0,1,,,,,,,,,,,,,,,,,,,,,,,,,,,,,,,,,,,,,,,,,,,,,,
780879,001,2022-11-13_23h29.29.377,Info_measure_main_exp,2022.2.2,MacIntel,59.24170616,,,,,,,,,,,,,,,,,,masks/mask_002.jpg,,,,,,,,,,,,,,,,,,,,,,,,,,,,,,,,,,,,,,,,,,,,,,,,0,0,0,1,1,,,,,,,,,,,,,,,,,,,,,,,,,,,,,,,,,,,,,,,,,
780879,001,2022-11-13_23h29.29.377,Info_measure_main_exp,2022.2.2,MacIntel,59.24170616,,,,,,,,,,,,,,,,,,masks/mask_003.jpg,,,,,,,,,,,,,,,,,,,,,,,,,,,,,,,,,,,,,,,,,,,,,,,,0,1,1,2,1,,,,,,,,,,,,,,,,,,,,,,,,,,,,,,,,,,,,,,,,,
780879,001,2022-11-13_23h29.29.377,Info_measure_main_exp,2022.2.2,MacIntel,59.24170616,,,,,,,,,,,,,,,,,,masks/mask_004.jpg,,,,,,,,,,,,,,,,,,,,,,,,,,,,,,,,,,,,,,,,,,,,,,,,0,2,2,3,1,,,,,,,,,,,,,,,,,,,,,,,,,,,,,,,,,,,,,,,,,
780879,001,2022-11-13_23h29.29.377,Info_measure_main_exp,2022.2.2,MacIntel,59.24170616,,,,,,,,,,,,,,,,,,masks/mask_005.jpg,,,,,,,,,,,,,,,,,,,,,,,,,,,,,,,,,,,,,,,,,,,,,,,,0,3,3,4,1,,,,,,,,,,,,,,,,,,,,,,,,,,,,,,,,,,,,,,,,,
780879,001,2022-11-13_23h29.29.377,Info_measure_main_exp,2022.2.2,MacIntel,59.24170616,,,,,,,,,,,,,,,,,,masks/mask_001.jpg,,,,,,,,,,,,,,,,,,,,,,,,,,,,,,,,,,,,,,,,,,,,,,,,0,4,4,0,1,,,,,,,,,,,,,,,,,,,,,,,,,,,,,,,,,,,,,,,,,
780879,001,2022-11-13_23h29.29.377,Info_measure_main_exp,2022.2.2,MacIntel,59.24170616,,,,,,,,,,,,,,,,,,,,,,,,,,,,,,7,0.366,1,,,,,,,,,,,,0,131,5,5,1986,2274,absent_patch/patch0001986.jpg,absent_patch/patch0002274.jpg,,,,,,,,,,,,,,,,,,,,0.051111111,0.112222222,1,0,0,response1disk,34,0.003333333,0.007777778,1,0,0,center_square,0,33,33,7,1,,,,,,,,,,,,,,,,,,,,,,,
780879,001,2022-11-13_23h29.29.377,Info_measure_main_exp,2022.2.2,MacIntel,59.24170616,,,,,,,,,,,,,,,,,,masks/mask_004.jpg,,,,,,,,,,,,,,,,,,,,,,,,,,,,,,,,,,,,,,,,,,,0,0,0,3,1,,,,,,,,,,,,,,,,,,,,,,,,,,,,,,,,,,,,,,,,,,,,,,
780879,001,2022-11-13_23h29.29.377,Info_measure_main_exp,2022.2.2,MacIntel,59.24170616,,,,,,,,,,,,,,,,,,masks/mask_005.jpg,,,,,,,,,,,,,,,,,,,,,,,,,,,,,,,,,,,,,,,,,,,0,1,1,4,1,,,,,,,,,,,,,,,,,,,,,,,,,,,,,,,,,,,,,,,,,,,,,,
780879,001,2022-11-13_23h29.29.377,Info_measure_main_exp,2022.2.2,MacIntel,59.24170616,,,,,,,,,,,,,,,,,,masks/mask_003.jpg,,,,,,,,,,,,,,,,,,,,,,,,,,,,,,,,,,,,,,,,,,,0,2,2,2,1,,,,,,,,,,,,,,,,,,,,,,,,,,,,,,,,,,,,,,,,,,,,,,
780879,001,2022-11-13_23h29.29.377,Info_measure_main_exp,2022.2.2,MacIntel,59.24170616,,,,,,,,,,,,,,,,,,masks/mask_002.jpg,,,,,,,,,,,,,,,,,,,,,,,,,,,,,,,,,,,,,,,,,,,0,3,3,1,1,,,,,,,,,,,,,,,,,,,,,,,,,,,,,,,,,,,,,,,,,,,,,,
