participant,session,date,expName,psychopyVersion,OS,frameRate,space_press_continue.keys,space_press_continue.rt,space_press_continue_2.keys,space_press_continue_2.rt,space_press_continue_3.keys,space_press_continue_3.rt,space_press_continue_4.keys,space_press_continue_4.rt,space_press_continue_5.keys,space_press_continue_5.rt,space_press_continue_6.keys,space_press_continue_6.rt,prac_mask_loop_1.thisRepN,prac_mask_loop_1.thisTrialN,prac_mask_loop_1.thisN,prac_mask_loop_1.thisIndex,prac_mask_loop_1.ran,mask_name,prac_mask_loop_2.thisRepN,prac_mask_loop_2.thisTrialN,prac_mask_loop_2.thisN,prac_mask_loop_2.thisIndex,prac_mask_loop_2.ran,mouse_2.x,mouse_2.y,mouse_2.leftButton,mouse_2.midButton,mouse_2.rightButton,mouse_2.clicked_name,similarity,response_time,Pass,mouse_12.x,mouse_12.y,mouse_12.leftButton,mouse_12.midButton,mouse_12.rightButton,mouse_12.clicked_name,prac_loop.thisRepN,prac_loop.thisTrialN,prac_loop.thisN,prac_loop.thisIndex,prac_loop.ran,Pair_type,Image_num,Patch_1_loc,Patch_2_loc,Patch_1_info,Patch_2_info,Patch_1_name,Patch_2_name,mouse_1.x,mouse_1.y,mouse_1.leftButton,mouse_1.midButton,mouse_1.rightButton,mouse_1.time,mouse_1.clicked_name,space_press_continue_7.keys,space_press_continue_7.rt,mask_loop.thisRepN,mask_loop.thisTrialN,mask_loop.thisN,mask_loop.thisIndex,mask_loop.ran,mask_loop_2.thisRepN,mask_loop_2.thisTrialN,mask_loop_2.thisN,mask_loop_2.thisIndex,mask_loop_2.ran,mouse.x,mouse.y,mouse.leftButton,mouse.midButton,mouse.rightButton,mouse.clicked_name,trialNumber,mouse_11.x,mouse_11.y,mouse_11.leftButton,mouse_11.midButton,mouse_11.rightButton,mouse_11.clicked_name,first_pass_loop.thisRepN,first_pass_loop.thisTrialN,first_pass_loop.thisN,first_pass_loop.thisIndex,first_pass_loop.ran,mask_loop_3.thisRepN,mask_loop_3.thisTrialN,mask_loop_3.thisN,mask_loop_3.thisIndex,mask_loop_3.ran,mask_loop_4.thisRepN,mask_loop_4.thisTrialN,mask_loop_4.thisN,mask_loop_4.thisIndex,mask_loop_4.ran,mouse_3.x,mouse_3.y,mouse_3.leftButton,mouse_3.midButton,mouse_3.rightButton,mouse_3.clicked_name,double_pass_loop.thisRepN,double_pass_loop.thisTrialN,double_pass_loop.thisN,double_pass_loop.thisIndex,double_pass_loop.ran,space_exit.keys,space_exit.rt
782706,001,2022-11-21_01h10.19.687,Info_measure_main_exp,2022.2.2,Win32,144.6549978,,,,,,,,,,,,,,,,,,,,,,,,,,,,,,,,,,,,,,,,,,,,,,,,,,,,,,,,,,,,,,,,,,,,,,,,,,,,,,,,,,,,,,,,,,,,,,,,,,,,,,,,,,,,,,,
782706,001,2022-11-21_01h10.19.687,Info_measure_main_exp,2022.2.2,Win32,144.6549978,,,,,,,,,,,,,,,,,,,,,,,,,,,,,,,,,,,,,,,,,,,,,,,,,,,,,,,,,,,,,,,,,,,,,,,,,,,,,,,,,,,,,,,,,,,,,,,,,,,,,,,,,,,,,,,
782706,001,2022-11-21_01h10.19.687,Info_measure_main_exp,2022.2.2,Win32,144.6549978,space,1.5477,,,,,,,,,,,,,,,,,,,,,,,,,,,,,,,,,,,,,,,,,,,,,,,,,,,,,,,,,,,,,,,,,,,,,,,,,,,,,,,,,,,,,,,,,,,,,,,,,,,,,,,,,,,,,
782706,001,2022-11-21_01h10.19.687,Info_measure_main_exp,2022.2.2,Win32,144.6549978,,,space,1.0556,,,,,,,,,,,,,,,,,,,,,,,,,,,,,,,,,,,,,,,,,,,,,,,,,,,,,,,,,,,,,,,,,,,,,,,,,,,,,,,,,,,,,,,,,,,,,,,,,,,,,,,,,,,
782706,001,2022-11-21_01h10.19.687,Info_measure_main_exp,2022.2.2,Win32,144.6549978,,,,,space,1.3719,,,,,,,,,,,,,,,,,,,,,,,,,,,,,,,,,,,,,,,,,,,,,,,,,,,,,,,,,,,,,,,,,,,,,,,,,,,,,,,,,,,,,,,,,,,,,,,,,,,,,,,,,
782706,001,2022-11-21_01h10.19.687,Info_measure_main_exp,2022.2.2,Win32,144.6549978,,,,,,,space,1.5672,,,,,,,,,,,,,,,,,,,,,,,,,,,,,,,,,,,,,,,,,,,,,,,,,,,,,,,,,,,,,,,,,,,,,,,,,,,,,,,,,,,,,,,,,,,,,,,,,,,,,,,
782706,001,2022-11-21_01h10.19.687,Info_measure_main_exp,2022.2.2,Win32,144.6549978,,,,,,,,,space,0.6597,,,,,,,,,,,,,,,,,,,,,,,,,,,,,,,,,,,,,,,,,,,,,,,,,,,,,,,,,,,,,,,,,,,,,,,,,,,,,,,,,,,,,,,,,,,,,,,,,,,,,
782706,001,2022-11-21_01h10.19.687,Info_measure_main_exp,2022.2.2,Win32,144.6549978,,,,,,,,,,,space,0.6889,,,,,,,,,,,,,,,,,,,,,,,,,,,,,,,,,,,,,,,,,,,,,,,,,,,,,,,,,,,,,,,,,,,,,,,,,,,,,,,,,,,,,,,,,,,,,,,,,,,
782706,001,2022-11-21_01h10.19.687,Info_measure_main_exp,2022.2.2,Win32,144.6549978,,,,,,,,,,,,,0,0,0,0,1,masks/mask_001.jpg,,,,,,,,,,,,,,,,,,,,,,,,,,,,,,,,,,,,,,,,,,,,,,,,,,,,,,,,,,,,,,,,,,,,,,,,,,,,,,,,,,,,,,,,,,,,,
782706,001,2022-11-21_01h10.19.687,Info_measure_main_exp,2022.2.2,Win32,144.6549978,,,,,,,,,,,,,0,1,1,1,1,masks/mask_002.jpg,,,,,,,,,,,,,,,,,,,,,,,,,,,,,,,,,,,,,,,,,,,,,,,,,,,,,,,,,,,,,,,,,,,,,,,,,,,,,,,,,,,,,,,,,,,,,
782706,001,2022-11-21_01h10.19.687,Info_measure_main_exp,2022.2.2,Win32,144.6549978,,,,,,,,,,,,,0,2,2,2,1,masks/mask_003.jpg,,,,,,,,,,,,,,,,,,,,,,,,,,,,,,,,,,,,,,,,,,,,,,,,,,,,,,,,,,,,,,,,,,,,,,,,,,,,,,,,,,,,,,,,,,,,,
782706,001,2022-11-21_01h10.19.687,Info_measure_main_exp,2022.2.2,Win32,144.6549978,,,,,,,,,,,,,0,3,3,4,1,masks/mask_005.jpg,,,,,,,,,,,,,,,,,,,,,,,,,,,,,,,,,,,,,,,,,,,,,,,,,,,,,,,,,,,,,,,,,,,,,,,,,,,,,,,,,,,,,,,,,,,,,
782706,001,2022-11-21_01h10.19.687,Info_measure_main_exp,2022.2.2,Win32,144.6549978,,,,,,,,,,,,,0,4,4,3,1,masks/mask_004.jpg,,,,,,,,,,,,,,,,,,,,,,,,,,,,,,,,,,,,,,,,,,,,,,,,,,,,,,,,,,,,,,,,,,,,,,,,,,,,,,,,,,,,,,,,,,,,,
782706,001,2022-11-21_01h10.19.687,Info_measure_main_exp,2022.2.2,Win32,144.6549978,,,,,,,,,,,,,,,,,,masks/mask_004.jpg,0,0,0,3,1,,,,,,,,,,,,,,,,,,,,,,,,,,,,,,,,,,,,,,,,,,,,,,,,,,,,,,,,,,,,,,,,,,,,,,,,,,,,,,,,,,,,,,,,
782706,001,2022-11-21_01h10.19.687,Info_measure_main_exp,2022.2.2,Win32,144.6549978,,,,,,,,,,,,,,,,,,masks/mask_001.jpg,0,1,1,0,1,,,,,,,,,,,,,,,,,,,,,,,,,,,,,,,,,,,,,,,,,,,,,,,,,,,,,,,,,,,,,,,,,,,,,,,,,,,,,,,,,,,,,,,,
782706,001,2022-11-21_01h10.19.687,Info_measure_main_exp,2022.2.2,Win32,144.6549978,,,,,,,,,,,,,,,,,,masks/mask_005.jpg,0,2,2,4,1,,,,,,,,,,,,,,,,,,,,,,,,,,,,,,,,,,,,,,,,,,,,,,,,,,,,,,,,,,,,,,,,,,,,,,,,,,,,,,,,,,,,,,,,
782706,001,2022-11-21_01h10.19.687,Info_measure_main_exp,2022.2.2,Win32,144.6549978,,,,,,,,,,,,,,,,,,masks/mask_002.jpg,0,3,3,1,1,,,,,,,,,,,,,,,,,,,,,,,,,,,,,,,,,,,,,,,,,,,,,,,,,,,,,,,,,,,,,,,,,,,,,,,,,,,,,,,,,,,,,,,,
782706,001,2022-11-21_01h10.19.687,Info_measure_main_exp,2022.2.2,Win32,144.6549978,,,,,,,,,,,,,,,,,,masks/mask_003.jpg,0,4,4,2,1,,,,,,,,,,,,,,,,,,,,,,,,,,,,,,,,,,,,,,,,,,,,,,,,,,,,,,,,,,,,,,,,,,,,,,,,,,,,,,,,,,,,,,,,
782706,001,2022-11-21_01h10.19.687,Info_measure_main_exp,2022.2.2,Win32,144.6549978,,,,,,,,,,,,,,,,,,,,,,,,0.112962963,0.044444444,1,0,0,response1disk,6,11.708,1,-0.00462963,-0.000925926,1,0,0,center_square,0,0,0,1,1,0,131,5,5,2514,2490,prac_patch/patch0002514.jpg,prac_patch/patch0002490.jpg,,,,,,,,,,,,,,,,,,,,,,,,,,,,,,,,,,,,,,,,,,,,,,,,,,,,,,,,,,,,
782706,001,2022-11-21_01h10.19.687,Info_measure_main_exp,2022.2.2,Win32,144.6549978,,,,,,,,,,,,,0,0,0,1,1,masks/mask_002.jpg,,,,,,,,,,,,,,,,,,,,,,,,,,,,,,,,,,,,,,,,,,,,,,,,,,,,,,,,,,,,,,,,,,,,,,,,,,,,,,,,,,,,,,,,,,,,,
782706,001,2022-11-21_01h10.19.687,Info_measure_main_exp,2022.2.2,Win32,144.6549978,,,,,,,,,,,,,0,1,1,0,1,masks/mask_001.jpg,,,,,,,,,,,,,,,,,,,,,,,,,,,,,,,,,,,,,,,,,,,,,,,,,,,,,,,,,,,,,,,,,,,,,,,,,,,,,,,,,,,,,,,,,,,,,
782706,001,2022-11-21_01h10.19.687,Info_measure_main_exp,2022.2.2,Win32,144.6549978,,,,,,,,,,,,,0,2,2,4,1,masks/mask_005.jpg,,,,,,,,,,,,,,,,,,,,,,,,,,,,,,,,,,,,,,,,,,,,,,,,,,,,,,,,,,,,,,,,,,,,,,,,,,,,,,,,,,,,,,,,,,,,,
782706,001,2022-11-21_01h10.19.687,Info_measure_main_exp,2022.2.2,Win32,144.6549978,,,,,,,,,,,,,0,3,3,3,1,masks/mask_004.jpg,,,,,,,,,,,,,,,,,,,,,,,,,,,,,,,,,,,,,,,,,,,,,,,,,,,,,,,,,,,,,,,,,,,,,,,,,,,,,,,,,,,,,,,,,,,,,
782706,001,2022-11-21_01h10.19.687,Info_measure_main_exp,2022.2.2,Win32,144.6549978,,,,,,,,,,,,,0,4,4,2,1,masks/mask_003.jpg,,,,,,,,,,,,,,,,,,,,,,,,,,,,,,,,,,,,,,,,,,,,,,,,,,,,,,,,,,,,,,,,,,,,,,,,,,,,,,,,,,,,,,,,,,,,,
782706,001,2022-11-21_01h10.19.687,Info_measure_main_exp,2022.2.2,Win32,144.6549978,,,,,,,,,,,,,,,,,,masks/mask_001.jpg,0,0,0,0,1,,,,,,,,,,,,,,,,,,,,,,,,,,,,,,,,,,,,,,,,,,,,,,,,,,,,,,,,,,,,,,,,,,,,,,,,,,,,,,,,,,,,,,,,
782706,001,2022-11-21_01h10.19.687,Info_measure_main_exp,2022.2.2,Win32,144.6549978,,,,,,,,,,,,,,,,,,masks/mask_002.jpg,0,1,1,1,1,,,,,,,,,,,,,,,,,,,,,,,,,,,,,,,,,,,,,,,,,,,,,,,,,,,,,,,,,,,,,,,,,,,,,,,,,,,,,,,,,,,,,,,,
782706,001,2022-11-21_01h10.19.687,Info_measure_main_exp,2022.2.2,Win32,144.6549978,,,,,,,,,,,,,,,,,,masks/mask_003.jpg,0,2,2,2,1,,,,,,,,,,,,,,,,,,,,,,,,,,,,,,,,,,,,,,,,,,,,,,,,,,,,,,,,,,,,,,,,,,,,,,,,,,,,,,,,,,,,,,,,
782706,001,2022-11-21_01h10.19.687,Info_measure_main_exp,2022.2.2,Win32,144.6549978,,,,,,,,,,,,,,,,,,masks/mask_005.jpg,0,3,3,4,1,,,,,,,,,,,,,,,,,,,,,,,,,,,,,,,,,,,,,,,,,,,,,,,,,,,,,,,,,,,,,,,,,,,,,,,,,,,,,,,,,,,,,,,,
782706,001,2022-11-21_01h10.19.687,Info_measure_main_exp,2022.2.2,Win32,144.6549978,,,,,,,,,,,,,,,,,,masks/mask_004.jpg,0,4,4,3,1,,,,,,,,,,,,,,,,,,,,,,,,,,,,,,,,,,,,,,,,,,,,,,,,,,,,,,,,,,,,,,,,,,,,,,,,,,,,,,,,,,,,,,,,
782706,001,2022-11-21_01h10.19.687,Info_measure_main_exp,2022.2.2,Win32,144.6549978,,,,,,,,,,,,,,,,,,,,,,,,-0.049074074,0.133333333,1,0,0,response7disk,0,20.5904,1,0.007407407,0,1,0,0,center_square,0,1,1,2,1,0,131,5,5,2526,2526,prac_patch/patch0002526.jpg,prac_patch/patch0002526.jpg,,,,,,,,,,,,,,,,,,,,,,,,,,,,,,,,,,,,,,,,,,,,,,,,,,,,,,,,,,,,
782706,001,2022-11-21_01h10.19.687,Info_measure_main_exp,2022.2.2,Win32,144.6549978,,,,,,,,,,,,,0,0,0,1,1,masks/mask_002.jpg,,,,,,,,,,,,,,,,,,,,,,,,,,,,,,,,,,,,,,,,,,,,,,,,,,,,,,,,,,,,,,,,,,,,,,,,,,,,,,,,,,,,,,,,,,,,,
782706,001,2022-11-21_01h10.19.687,Info_measure_main_exp,2022.2.2,Win32,144.6549978,,,,,,,,,,,,,0,1,1,2,1,masks/mask_003.jpg,,,,,,,,,,,,,,,,,,,,,,,,,,,,,,,,,,,,,,,,,,,,,,,,,,,,,,,,,,,,,,,,,,,,,,,,,,,,,,,,,,,,,,,,,,,,,
782706,001,2022-11-21_01h10.19.687,Info_measure_main_exp,2022.2.2,Win32,144.6549978,,,,,,,,,,,,,0,2,2,3,1,masks/mask_004.jpg,,,,,,,,,,,,,,,,,,,,,,,,,,,,,,,,,,,,,,,,,,,,,,,,,,,,,,,,,,,,,,,,,,,,,,,,,,,,,,,,,,,,,,,,,,,,,
782706,001,2022-11-21_01h10.19.687,Info_measure_main_exp,2022.2.2,Win32,144.6549978,,,,,,,,,,,,,0,3,3,4,1,masks/mask_005.jpg,,,,,,,,,,,,,,,,,,,,,,,,,,,,,,,,,,,,,,,,,,,,,,,,,,,,,,,,,,,,,,,,,,,,,,,,,,,,,,,,,,,,,,,,,,,,,
782706,001,2022-11-21_01h10.19.687,Info_measure_main_exp,2022.2.2,Win32,144.6549978,,,,,,,,,,,,,0,4,4,0,1,masks/mask_001.jpg,,,,,,,,,,,,,,,,,,,,,,,,,,,,,,,,,,,,,,,,,,,,,,,,,,,,,,,,,,,,,,,,,,,,,,,,,,,,,,,,,,,,,,,,,,,,,
782706,001,2022-11-21_01h10.19.687,Info_measure_main_exp,2022.2.2,Win32,144.6549978,,,,,,,,,,,,,,,,,,masks/mask_003.jpg,0,0,0,2,1,,,,,,,,,,,,,,,,,,,,,,,,,,,,,,,,,,,,,,,,,,,,,,,,,,,,,,,,,,,,,,,,,,,,,,,,,,,,,,,,,,,,,,,,
782706,001,2022-11-21_01h10.19.687,Info_measure_main_exp,2022.2.2,Win32,144.6549978,,,,,,,,,,,,,,,,,,masks/mask_005.jpg,0,1,1,4,1,,,,,,,,,,,,,,,,,,,,,,,,,,,,,,,,,,,,,,,,,,,,,,,,,,,,,,,,,,,,,,,,,,,,,,,,,,,,,,,,,,,,,,,,
782706,001,2022-11-21_01h10.19.687,Info_measure_main_exp,2022.2.2,Win32,144.6549978,,,,,,,,,,,,,,,,,,masks/mask_002.jpg,0,2,2,1,1,,,,,,,,,,,,,,,,,,,,,,,,,,,,,,,,,,,,,,,,,,,,,,,,,,,,,,,,,,,,,,,,,,,,,,,,,,,,,,,,,,,,,,,,
782706,001,2022-11-21_01h10.19.687,Info_measure_main_exp,2022.2.2,Win32,144.6549978,,,,,,,,,,,,,,,,,,masks/mask_001.jpg,0,3,3,0,1,,,,,,,,,,,,,,,,,,,,,,,,,,,,,,,,,,,,,,,,,,,,,,,,,,,,,,,,,,,,,,,,,,,,,,,,,,,,,,,,,,,,,,,,
782706,001,2022-11-21_01h10.19.687,Info_measure_main_exp,2022.2.2,Win32,144.6549978,,,,,,,,,,,,,,,,,,masks/mask_004.jpg,0,4,4,3,1,,,,,,,,,,,,,,,,,,,,,,,,,,,,,,,,,,,,,,,,,,,,,,,,,,,,,,,,,,,,,,,,,,,,,,,,,,,,,,,,,,,,,,,,
782706,001,2022-11-21_01h10.19.687,Info_measure_main_exp,2022.2.2,Win32,144.6549978,,,,,,,,,,,,,,,,,,,,,,,,0.097222222,-0.063888889,1,0,0,response3disk,5,30.4593,1,-0.003703704,-0.009259259,1,0,0,center_square,0,2,2,0,1,0,131,5,5,2370,2406,prac_patch/patch0002370.jpg,prac_patch/patch0002406.jpg,,,,,,,,,,,,,,,,,,,,,,,,,,,,,,,,,,,,,,,,,,,,,,,,,,,,,,,,,,,,
782706,001,2022-11-21_01h10.19.687,Info_measure_main_exp,2022.2.2,Win32,144.6549978,,,,,,,,,,,,,,,,,,,,,,,,,,,,,,,,,,,,,,,,,,,,,,,,,,,,,,,,,,,space,3.816,,,,,,,,,,,,,,,,,,,,,,,,,,,,,,,,,,,,,,,,,,,,,,,,,,,
782706,001,2022-11-21_01h10.19.687,Info_measure_main_exp,2022.2.2,Win32,144.6549978,,,,,,,,,,,,,,,,,,masks/mask_003.jpg,,,,,,,,,,,,,,,,,,,,,,,,,,,,,,,,,,,,,,,,,,,0,0,0,2,1,,,,,,,,,,,,,,,,,,,,,,,,,,,,,,,,,,,,,,,,,,,,,,
782706,001,2022-11-21_01h10.19.687,Info_measure_main_exp,2022.2.2,Win32,144.6549978,,,,,,,,,,,,,,,,,,masks/mask_002.jpg,,,,,,,,,,,,,,,,,,,,,,,,,,,,,,,,,,,,,,,,,,,0,1,1,1,1,,,,,,,,,,,,,,,,,,,,,,,,,,,,,,,,,,,,,,,,,,,,,,
782706,001,2022-11-21_01h10.19.687,Info_measure_main_exp,2022.2.2,Win32,144.6549978,,,,,,,,,,,,,,,,,,masks/mask_001.jpg,,,,,,,,,,,,,,,,,,,,,,,,,,,,,,,,,,,,,,,,,,,0,2,2,0,1,,,,,,,,,,,,,,,,,,,,,,,,,,,,,,,,,,,,,,,,,,,,,,
782706,001,2022-11-21_01h10.19.687,Info_measure_main_exp,2022.2.2,Win32,144.6549978,,,,,,,,,,,,,,,,,,masks/mask_004.jpg,,,,,,,,,,,,,,,,,,,,,,,,,,,,,,,,,,,,,,,,,,,0,3,3,3,1,,,,,,,,,,,,,,,,,,,,,,,,,,,,,,,,,,,,,,,,,,,,,,
782706,001,2022-11-21_01h10.19.687,Info_measure_main_exp,2022.2.2,Win32,144.6549978,,,,,,,,,,,,,,,,,,masks/mask_005.jpg,,,,,,,,,,,,,,,,,,,,,,,,,,,,,,,,,,,,,,,,,,,0,4,4,4,1,,,,,,,,,,,,,,,,,,,,,,,,,,,,,,,,,,,,,,,,,,,,,,
782706,001,2022-11-21_01h10.19.687,Info_measure_main_exp,2022.2.2,Win32,144.6549978,,,,,,,,,,,,,,,,,,masks/mask_002.jpg,,,,,,,,,,,,,,,,,,,,,,,,,,,,,,,,,,,,,,,,,,,,,,,,0,0,0,1,1,,,,,,,,,,,,,,,,,,,,,,,,,,,,,,,,,,,,,,,,,
782706,001,2022-11-21_01h10.19.687,Info_measure_main_exp,2022.2.2,Win32,144.6549978,,,,,,,,,,,,,,,,,,masks/mask_004.jpg,,,,,,,,,,,,,,,,,,,,,,,,,,,,,,,,,,,,,,,,,,,,,,,,0,1,1,3,1,,,,,,,,,,,,,,,,,,,,,,,,,,,,,,,,,,,,,,,,,
782706,001,2022-11-21_01h10.19.687,Info_measure_main_exp,2022.2.2,Win32,144.6549978,,,,,,,,,,,,,,,,,,masks/mask_005.jpg,,,,,,,,,,,,,,,,,,,,,,,,,,,,,,,,,,,,,,,,,,,,,,,,0,2,2,4,1,,,,,,,,,,,,,,,,,,,,,,,,,,,,,,,,,,,,,,,,,
782706,001,2022-11-21_01h10.19.687,Info_measure_main_exp,2022.2.2,Win32,144.6549978,,,,,,,,,,,,,,,,,,masks/mask_001.jpg,,,,,,,,,,,,,,,,,,,,,,,,,,,,,,,,,,,,,,,,,,,,,,,,0,3,3,0,1,,,,,,,,,,,,,,,,,,,,,,,,,,,,,,,,,,,,,,,,,
782706,001,2022-11-21_01h10.19.687,Info_measure_main_exp,2022.2.2,Win32,144.6549978,,,,,,,,,,,,,,,,,,masks/mask_003.jpg,,,,,,,,,,,,,,,,,,,,,,,,,,,,,,,,,,,,,,,,,,,,,,,,0,4,4,2,1,,,,,,,,,,,,,,,,,,,,,,,,,,,,,,,,,,,,,,,,,
782706,001,2022-11-21_01h10.19.687,Info_measure_main_exp,2022.2.2,Win32,144.6549978,,,,,,,,,,,,,,,,,,,,,,,,,,,,,,0,0.8961,1,,,,,,,,,,,,0,131,5,5,1986,1986,absent_patch/patch0001986.jpg,absent_patch/patch0001986.jpg,,,,,,,,,,,,,,,,,,,,-0.059259259,0.121296296,1,0,0,response7disk,1,-0.000925926,0.00462963,1,0,0,center_square,0,0,0,19,1,,,,,,,,,,,,,,,,,,,,,,,
782706,001,2022-11-21_01h10.19.687,Info_measure_main_exp,2022.2.2,Win32,144.6549978,,,,,,,,,,,,,,,,,,masks/mask_001.jpg,,,,,,,,,,,,,,,,,,,,,,,,,,,,,,,,,,,,,,,,,,,0,0,0,0,1,,,,,,,,,,,,,,,,,,,,,,,,,,,,,,,,,,,,,,,,,,,,,,
782706,001,2022-11-21_01h10.19.687,Info_measure_main_exp,2022.2.2,Win32,144.6549978,,,,,,,,,,,,,,,,,,masks/mask_005.jpg,,,,,,,,,,,,,,,,,,,,,,,,,,,,,,,,,,,,,,,,,,,0,1,1,4,1,,,,,,,,,,,,,,,,,,,,,,,,,,,,,,,,,,,,,,,,,,,,,,
782706,001,2022-11-21_01h10.19.687,Info_measure_main_exp,2022.2.2,Win32,144.6549978,,,,,,,,,,,,,,,,,,masks/mask_003.jpg,,,,,,,,,,,,,,,,,,,,,,,,,,,,,,,,,,,,,,,,,,,0,2,2,2,1,,,,,,,,,,,,,,,,,,,,,,,,,,,,,,,,,,,,,,,,,,,,,,
782706,001,2022-11-21_01h10.19.687,Info_measure_main_exp,2022.2.2,Win32,144.6549978,,,,,,,,,,,,,,,,,,masks/mask_002.jpg,,,,,,,,,,,,,,,,,,,,,,,,,,,,,,,,,,,,,,,,,,,0,3,3,1,1,,,,,,,,,,,,,,,,,,,,,,,,,,,,,,,,,,,,,,,,,,,,,,
782706,001,2022-11-21_01h10.19.687,Info_measure_main_exp,2022.2.2,Win32,144.6549978,,,,,,,,,,,,,,,,,,masks/mask_004.jpg,,,,,,,,,,,,,,,,,,,,,,,,,,,,,,,,,,,,,,,,,,,0,4,4,3,1,,,,,,,,,,,,,,,,,,,,,,,,,,,,,,,,,,,,,,,,,,,,,,
782706,001,2022-11-21_01h10.19.687,Info_measure_main_exp,2022.2.2,Win32,144.6549978,,,,,,,,,,,,,,,,,,masks/mask_005.jpg,,,,,,,,,,,,,,,,,,,,,,,,,,,,,,,,,,,,,,,,,,,,,,,,0,0,0,4,1,,,,,,,,,,,,,,,,,,,,,,,,,,,,,,,,,,,,,,,,,
782706,001,2022-11-21_01h10.19.687,Info_measure_main_exp,2022.2.2,Win32,144.6549978,,,,,,,,,,,,,,,,,,masks/mask_003.jpg,,,,,,,,,,,,,,,,,,,,,,,,,,,,,,,,,,,,,,,,,,,,,,,,0,1,1,2,1,,,,,,,,,,,,,,,,,,,,,,,,,,,,,,,,,,,,,,,,,
782706,001,2022-11-21_01h10.19.687,Info_measure_main_exp,2022.2.2,Win32,144.6549978,,,,,,,,,,,,,,,,,,masks/mask_001.jpg,,,,,,,,,,,,,,,,,,,,,,,,,,,,,,,,,,,,,,,,,,,,,,,,0,2,2,0,1,,,,,,,,,,,,,,,,,,,,,,,,,,,,,,,,,,,,,,,,,
782706,001,2022-11-21_01h10.19.687,Info_measure_main_exp,2022.2.2,Win32,144.6549978,,,,,,,,,,,,,,,,,,masks/mask_002.jpg,,,,,,,,,,,,,,,,,,,,,,,,,,,,,,,,,,,,,,,,,,,,,,,,0,3,3,1,1,,,,,,,,,,,,,,,,,,,,,,,,,,,,,,,,,,,,,,,,,
782706,001,2022-11-21_01h10.19.687,Info_measure_main_exp,2022.2.2,Win32,144.6549978,,,,,,,,,,,,,,,,,,masks/mask_004.jpg,,,,,,,,,,,,,,,,,,,,,,,,,,,,,,,,,,,,,,,,,,,,,,,,0,4,4,3,1,,,,,,,,,,,,,,,,,,,,,,,,,,,,,,,,,,,,,,,,,
782706,001,2022-11-21_01h10.19.687,Info_measure_main_exp,2022.2.2,Win32,144.6549978,,,,,,,,,,,,,,,,,,,,,,,,,,,,,,5,1.8265,1,,,,,,,,,,,,0,131,5,5,2178,2142,absent_patch/patch0002178.jpg,absent_patch/patch0002142.jpg,,,,,,,,,,,,,,,,,,,,0.089814815,-0.050925926,1,0,0,response3disk,2,-0.009259259,0.001851852,1,0,0,center_square,0,1,1,41,1,,,,,,,,,,,,,,,,,,,,,,,
782706,001,2022-11-21_01h10.19.687,Info_measure_main_exp,2022.2.2,Win32,144.6549978,,,,,,,,,,,,,,,,,,masks/mask_005.jpg,,,,,,,,,,,,,,,,,,,,,,,,,,,,,,,,,,,,,,,,,,,0,0,0,4,1,,,,,,,,,,,,,,,,,,,,,,,,,,,,,,,,,,,,,,,,,,,,,,
782706,001,2022-11-21_01h10.19.687,Info_measure_main_exp,2022.2.2,Win32,144.6549978,,,,,,,,,,,,,,,,,,masks/mask_002.jpg,,,,,,,,,,,,,,,,,,,,,,,,,,,,,,,,,,,,,,,,,,,0,1,1,1,1,,,,,,,,,,,,,,,,,,,,,,,,,,,,,,,,,,,,,,,,,,,,,,
782706,001,2022-11-21_01h10.19.687,Info_measure_main_exp,2022.2.2,Win32,144.6549978,,,,,,,,,,,,,,,,,,masks/mask_004.jpg,,,,,,,,,,,,,,,,,,,,,,,,,,,,,,,,,,,,,,,,,,,0,2,2,3,1,,,,,,,,,,,,,,,,,,,,,,,,,,,,,,,,,,,,,,,,,,,,,,
782706,001,2022-11-21_01h10.19.687,Info_measure_main_exp,2022.2.2,Win32,144.6549978,,,,,,,,,,,,,,,,,,masks/mask_001.jpg,,,,,,,,,,,,,,,,,,,,,,,,,,,,,,,,,,,,,,,,,,,0,3,3,0,1,,,,,,,,,,,,,,,,,,,,,,,,,,,,,,,,,,,,,,,,,,,,,,
782706,001,2022-11-21_01h10.19.687,Info_measure_main_exp,2022.2.2,Win32,144.6549978,,,,,,,,,,,,,,,,,,masks/mask_003.jpg,,,,,,,,,,,,,,,,,,,,,,,,,,,,,,,,,,,,,,,,,,,0,4,4,2,1,,,,,,,,,,,,,,,,,,,,,,,,,,,,,,,,,,,,,,,,,,,,,,
782706,001,2022-11-21_01h10.19.687,Info_measure_main_exp,2022.2.2,Win32,144.6549978,,,,,,,,,,,,,,,,,,masks/mask_004.jpg,,,,,,,,,,,,,,,,,,,,,,,,,,,,,,,,,,,,,,,,,,,,,,,,0,0,0,3,1,,,,,,,,,,,,,,,,,,,,,,,,,,,,,,,,,,,,,,,,,
782706,001,2022-11-21_01h10.19.687,Info_measure_main_exp,2022.2.2,Win32,144.6549978,,,,,,,,,,,,,,,,,,masks/mask_001.jpg,,,,,,,,,,,,,,,,,,,,,,,,,,,,,,,,,,,,,,,,,,,,,,,,0,1,1,0,1,,,,,,,,,,,,,,,,,,,,,,,,,,,,,,,,,,,,,,,,,
782706,001,2022-11-21_01h10.19.687,Info_measure_main_exp,2022.2.2,Win32,144.6549978,,,,,,,,,,,,,,,,,,masks/mask_003.jpg,,,,,,,,,,,,,,,,,,,,,,,,,,,,,,,,,,,,,,,,,,,,,,,,0,2,2,2,1,,,,,,,,,,,,,,,,,,,,,,,,,,,,,,,,,,,,,,,,,
782706,001,2022-11-21_01h10.19.687,Info_measure_main_exp,2022.2.2,Win32,144.6549978,,,,,,,,,,,,,,,,,,masks/mask_005.jpg,,,,,,,,,,,,,,,,,,,,,,,,,,,,,,,,,,,,,,,,,,,,,,,,0,3,3,4,1,,,,,,,,,,,,,,,,,,,,,,,,,,,,,,,,,,,,,,,,,
782706,001,2022-11-21_01h10.19.687,Info_measure_main_exp,2022.2.2,Win32,144.6549978,,,,,,,,,,,,,,,,,,masks/mask_002.jpg,,,,,,,,,,,,,,,,,,,,,,,,,,,,,,,,,,,,,,,,,,,,,,,,0,4,4,1,1,,,,,,,,,,,,,,,,,,,,,,,,,,,,,,,,,,,,,,,,,
782706,001,2022-11-21_01h10.19.687,Info_measure_main_exp,2022.2.2,Win32,144.6549978,,,,,,,,,,,,,,,,,,,,,,,,,,,,,,0,0.5347,1,,,,,,,,,,,,0,131,5,5,1974,1974,absent_patch/patch0001974.jpg,absent_patch/patch0001974.jpg,,,,,,,,,,,,,,,,,,,,-0.04537037,0.067592593,1,0,0,response7disk,3,-0.000925926,0.00462963,1,0,0,center_square,0,2,2,113,1,,,,,,,,,,,,,,,,,,,,,,,
782706,001,2022-11-21_01h10.19.687,Info_measure_main_exp,2022.2.2,Win32,144.6549978,,,,,,,,,,,,,,,,,,masks/mask_004.jpg,,,,,,,,,,,,,,,,,,,,,,,,,,,,,,,,,,,,,,,,,,,0,0,0,3,1,,,,,,,,,,,,,,,,,,,,,,,,,,,,,,,,,,,,,,,,,,,,,,
782706,001,2022-11-21_01h10.19.687,Info_measure_main_exp,2022.2.2,Win32,144.6549978,,,,,,,,,,,,,,,,,,masks/mask_002.jpg,,,,,,,,,,,,,,,,,,,,,,,,,,,,,,,,,,,,,,,,,,,0,1,1,1,1,,,,,,,,,,,,,,,,,,,,,,,,,,,,,,,,,,,,,,,,,,,,,,
782706,001,2022-11-21_01h10.19.687,Info_measure_main_exp,2022.2.2,Win32,144.6549978,,,,,,,,,,,,,,,,,,masks/mask_003.jpg,,,,,,,,,,,,,,,,,,,,,,,,,,,,,,,,,,,,,,,,,,,0,2,2,2,1,,,,,,,,,,,,,,,,,,,,,,,,,,,,,,,,,,,,,,,,,,,,,,
782706,001,2022-11-21_01h10.19.687,Info_measure_main_exp,2022.2.2,Win32,144.6549978,,,,,,,,,,,,,,,,,,masks/mask_001.jpg,,,,,,,,,,,,,,,,,,,,,,,,,,,,,,,,,,,,,,,,,,,0,3,3,0,1,,,,,,,,,,,,,,,,,,,,,,,,,,,,,,,,,,,,,,,,,,,,,,
782706,001,2022-11-21_01h10.19.687,Info_measure_main_exp,2022.2.2,Win32,144.6549978,,,,,,,,,,,,,,,,,,masks/mask_005.jpg,,,,,,,,,,,,,,,,,,,,,,,,,,,,,,,,,,,,,,,,,,,0,4,4,4,1,,,,,,,,,,,,,,,,,,,,,,,,,,,,,,,,,,,,,,,,,,,,,,
782706,001,2022-11-21_01h10.19.687,Info_measure_main_exp,2022.2.2,Win32,144.6549978,,,,,,,,,,,,,,,,,,masks/mask_003.jpg,,,,,,,,,,,,,,,,,,,,,,,,,,,,,,,,,,,,,,,,,,,,,,,,0,0,0,2,1,,,,,,,,,,,,,,,,,,,,,,,,,,,,,,,,,,,,,,,,,
782706,001,2022-11-21_01h10.19.687,Info_measure_main_exp,2022.2.2,Win32,144.6549978,,,,,,,,,,,,,,,,,,masks/mask_002.jpg,,,,,,,,,,,,,,,,,,,,,,,,,,,,,,,,,,,,,,,,,,,,,,,,0,1,1,1,1,,,,,,,,,,,,,,,,,,,,,,,,,,,,,,,,,,,,,,,,,
782706,001,2022-11-21_01h10.19.687,Info_measure_main_exp,2022.2.2,Win32,144.6549978,,,,,,,,,,,,,,,,,,masks/mask_001.jpg,,,,,,,,,,,,,,,,,,,,,,,,,,,,,,,,,,,,,,,,,,,,,,,,0,2,2,0,1,,,,,,,,,,,,,,,,,,,,,,,,,,,,,,,,,,,,,,,,,
782706,001,2022-11-21_01h10.19.687,Info_measure_main_exp,2022.2.2,Win32,144.6549978,,,,,,,,,,,,,,,,,,masks/mask_004.jpg,,,,,,,,,,,,,,,,,,,,,,,,,,,,,,,,,,,,,,,,,,,,,,,,0,3,3,3,1,,,,,,,,,,,,,,,,,,,,,,,,,,,,,,,,,,,,,,,,,
782706,001,2022-11-21_01h10.19.687,Info_measure_main_exp,2022.2.2,Win32,144.6549978,,,,,,,,,,,,,,,,,,masks/mask_005.jpg,,,,,,,,,,,,,,,,,,,,,,,,,,,,,,,,,,,,,,,,,,,,,,,,0,4,4,4,1,,,,,,,,,,,,,,,,,,,,,,,,,,,,,,,,,,,,,,,,,
782706,001,2022-11-21_01h10.19.687,Info_measure_main_exp,2022.2.2,Win32,144.6549978,,,,,,,,,,,,,,,,,,,,,,,,,,,,,,0,0.4028,1,,,,,,,,,,,,1,131,5,5,1,1,present_patch/cong_131_5_a.jpg,present_patch/cong_131_5_a.jpg,,,,,,,,,,,,,,,,,,,,-0.039814815,0.075925926,1,0,0,response7disk,4,0.001851852,0.001851852,1,0,0,center_square,0,3,3,30,1,,,,,,,,,,,,,,,,,,,,,,,
782706,001,2022-11-21_01h10.19.687,Info_measure_main_exp,2022.2.2,Win32,144.6549978,,,,,,,,,,,,,,,,,,masks/mask_005.jpg,,,,,,,,,,,,,,,,,,,,,,,,,,,,,,,,,,,,,,,,,,,0,0,0,4,1,,,,,,,,,,,,,,,,,,,,,,,,,,,,,,,,,,,,,,,,,,,,,,
782706,001,2022-11-21_01h10.19.687,Info_measure_main_exp,2022.2.2,Win32,144.6549978,,,,,,,,,,,,,,,,,,masks/mask_004.jpg,,,,,,,,,,,,,,,,,,,,,,,,,,,,,,,,,,,,,,,,,,,0,1,1,3,1,,,,,,,,,,,,,,,,,,,,,,,,,,,,,,,,,,,,,,,,,,,,,,
782706,001,2022-11-21_01h10.19.687,Info_measure_main_exp,2022.2.2,Win32,144.6549978,,,,,,,,,,,,,,,,,,masks/mask_002.jpg,,,,,,,,,,,,,,,,,,,,,,,,,,,,,,,,,,,,,,,,,,,0,2,2,1,1,,,,,,,,,,,,,,,,,,,,,,,,,,,,,,,,,,,,,,,,,,,,,,
782706,001,2022-11-21_01h10.19.687,Info_measure_main_exp,2022.2.2,Win32,144.6549978,,,,,,,,,,,,,,,,,,masks/mask_001.jpg,,,,,,,,,,,,,,,,,,,,,,,,,,,,,,,,,,,,,,,,,,,0,3,3,0,1,,,,,,,,,,,,,,,,,,,,,,,,,,,,,,,,,,,,,,,,,,,,,,
782706,001,2022-11-21_01h10.19.687,Info_measure_main_exp,2022.2.2,Win32,144.6549978,,,,,,,,,,,,,,,,,,masks/mask_003.jpg,,,,,,,,,,,,,,,,,,,,,,,,,,,,,,,,,,,,,,,,,,,0,4,4,2,1,,,,,,,,,,,,,,,,,,,,,,,,,,,,,,,,,,,,,,,,,,,,,,
782706,001,2022-11-21_01h10.19.687,Info_measure_main_exp,2022.2.2,Win32,144.6549978,,,,,,,,,,,,,,,,,,masks/mask_004.jpg,,,,,,,,,,,,,,,,,,,,,,,,,,,,,,,,,,,,,,,,,,,,,,,,0,0,0,3,1,,,,,,,,,,,,,,,,,,,,,,,,,,,,,,,,,,,,,,,,,
782706,001,2022-11-21_01h10.19.687,Info_measure_main_exp,2022.2.2,Win32,144.6549978,,,,,,,,,,,,,,,,,,masks/mask_001.jpg,,,,,,,,,,,,,,,,,,,,,,,,,,,,,,,,,,,,,,,,,,,,,,,,0,1,1,0,1,,,,,,,,,,,,,,,,,,,,,,,,,,,,,,,,,,,,,,,,,
782706,001,2022-11-21_01h10.19.687,Info_measure_main_exp,2022.2.2,Win32,144.6549978,,,,,,,,,,,,,,,,,,masks/mask_003.jpg,,,,,,,,,,,,,,,,,,,,,,,,,,,,,,,,,,,,,,,,,,,,,,,,0,2,2,2,1,,,,,,,,,,,,,,,,,,,,,,,,,,,,,,,,,,,,,,,,,
782706,001,2022-11-21_01h10.19.687,Info_measure_main_exp,2022.2.2,Win32,144.6549978,,,,,,,,,,,,,,,,,,masks/mask_005.jpg,,,,,,,,,,,,,,,,,,,,,,,,,,,,,,,,,,,,,,,,,,,,,,,,0,3,3,4,1,,,,,,,,,,,,,,,,,,,,,,,,,,,,,,,,,,,,,,,,,
782706,001,2022-11-21_01h10.19.687,Info_measure_main_exp,2022.2.2,Win32,144.6549978,,,,,,,,,,,,,,,,,,masks/mask_002.jpg,,,,,,,,,,,,,,,,,,,,,,,,,,,,,,,,,,,,,,,,,,,,,,,,0,4,4,1,1,,,,,,,,,,,,,,,,,,,,,,,,,,,,,,,,,,,,,,,,,
782706,001,2022-11-21_01h10.19.687,Info_measure_main_exp,2022.2.2,Win32,144.6549978,,,,,,,,,,,,,,,,,,,,,,,,,,,,,,5,0.9519,1,,,,,,,,,,,,0,131,5,5,2190,2082,absent_patch/patch0002190.jpg,absent_patch/patch0002082.jpg,,,,,,,,,,,,,,,,,,,,0.107407407,-0.033333333,1,0,0,response3disk,5,0.000925926,-0.003703704,1,0,0,center_square,0,4,4,112,1,,,,,,,,,,,,,,,,,,,,,,,
782706,001,2022-11-21_01h10.19.687,Info_measure_main_exp,2022.2.2,Win32,144.6549978,,,,,,,,,,,,,,,,,,masks/mask_002.jpg,,,,,,,,,,,,,,,,,,,,,,,,,,,,,,,,,,,,,,,,,,,0,0,0,1,1,,,,,,,,,,,,,,,,,,,,,,,,,,,,,,,,,,,,,,,,,,,,,,
782706,001,2022-11-21_01h10.19.687,Info_measure_main_exp,2022.2.2,Win32,144.6549978,,,,,,,,,,,,,,,,,,masks/mask_001.jpg,,,,,,,,,,,,,,,,,,,,,,,,,,,,,,,,,,,,,,,,,,,0,1,1,0,1,,,,,,,,,,,,,,,,,,,,,,,,,,,,,,,,,,,,,,,,,,,,,,
782706,001,2022-11-21_01h10.19.687,Info_measure_main_exp,2022.2.2,Win32,144.6549978,,,,,,,,,,,,,,,,,,masks/mask_003.jpg,,,,,,,,,,,,,,,,,,,,,,,,,,,,,,,,,,,,,,,,,,,0,2,2,2,1,,,,,,,,,,,,,,,,,,,,,,,,,,,,,,,,,,,,,,,,,,,,,,
782706,001,2022-11-21_01h10.19.687,Info_measure_main_exp,2022.2.2,Win32,144.6549978,,,,,,,,,,,,,,,,,,masks/mask_004.jpg,,,,,,,,,,,,,,,,,,,,,,,,,,,,,,,,,,,,,,,,,,,0,3,3,3,1,,,,,,,,,,,,,,,,,,,,,,,,,,,,,,,,,,,,,,,,,,,,,,
782706,001,2022-11-21_01h10.19.687,Info_measure_main_exp,2022.2.2,Win32,144.6549978,,,,,,,,,,,,,,,,,,masks/mask_005.jpg,,,,,,,,,,,,,,,,,,,,,,,,,,,,,,,,,,,,,,,,,,,0,4,4,4,1,,,,,,,,,,,,,,,,,,,,,,,,,,,,,,,,,,,,,,,,,,,,,,
782706,001,2022-11-21_01h10.19.687,Info_measure_main_exp,2022.2.2,Win32,144.6549978,,,,,,,,,,,,,,,,,,masks/mask_001.jpg,,,,,,,,,,,,,,,,,,,,,,,,,,,,,,,,,,,,,,,,,,,,,,,,0,0,0,0,1,,,,,,,,,,,,,,,,,,,,,,,,,,,,,,,,,,,,,,,,,
782706,001,2022-11-21_01h10.19.687,Info_measure_main_exp,2022.2.2,Win32,144.6549978,,,,,,,,,,,,,,,,,,masks/mask_005.jpg,,,,,,,,,,,,,,,,,,,,,,,,,,,,,,,,,,,,,,,,,,,,,,,,0,1,1,4,1,,,,,,,,,,,,,,,,,,,,,,,,,,,,,,,,,,,,,,,,,
782706,001,2022-11-21_01h10.19.687,Info_measure_main_exp,2022.2.2,Win32,144.6549978,,,,,,,,,,,,,,,,,,masks/mask_002.jpg,,,,,,,,,,,,,,,,,,,,,,,,,,,,,,,,,,,,,,,,,,,,,,,,0,2,2,1,1,,,,,,,,,,,,,,,,,,,,,,,,,,,,,,,,,,,,,,,,,
782706,001,2022-11-21_01h10.19.687,Info_measure_main_exp,2022.2.2,Win32,144.6549978,,,,,,,,,,,,,,,,,,masks/mask_003.jpg,,,,,,,,,,,,,,,,,,,,,,,,,,,,,,,,,,,,,,,,,,,,,,,,0,3,3,2,1,,,,,,,,,,,,,,,,,,,,,,,,,,,,,,,,,,,,,,,,,
782706,001,2022-11-21_01h10.19.687,Info_measure_main_exp,2022.2.2,Win32,144.6549978,,,,,,,,,,,,,,,,,,masks/mask_004.jpg,,,,,,,,,,,,,,,,,,,,,,,,,,,,,,,,,,,,,,,,,,,,,,,,0,4,4,3,1,,,,,,,,,,,,,,,,,,,,,,,,,,,,,,,,,,,,,,,,,
782706,001,2022-11-21_01h10.19.687,Info_measure_main_exp,2022.2.2,Win32,144.6549978,,,,,,,,,,,,,,,,,,,,,,,,,,,,,,5,1.618,1,,,,,,,,,,,,1,131,5,5,2238,1,absent_patch/patch0002238.jpg,present_patch/cong_131_5_a.jpg,,,,,,,,,,,,,,,,,,,,0.09537037,-0.019444444,1,0,0,response3disk,6,-0.008333333,0.001851852,1,0,0,center_square,0,5,5,104,1,,,,,,,,,,,,,,,,,,,,,,,
782706,001,2022-11-21_01h10.19.687,Info_measure_main_exp,2022.2.2,Win32,144.6549978,,,,,,,,,,,,,,,,,,masks/mask_005.jpg,,,,,,,,,,,,,,,,,,,,,,,,,,,,,,,,,,,,,,,,,,,0,0,0,4,1,,,,,,,,,,,,,,,,,,,,,,,,,,,,,,,,,,,,,,,,,,,,,,
782706,001,2022-11-21_01h10.19.687,Info_measure_main_exp,2022.2.2,Win32,144.6549978,,,,,,,,,,,,,,,,,,masks/mask_001.jpg,,,,,,,,,,,,,,,,,,,,,,,,,,,,,,,,,,,,,,,,,,,0,1,1,0,1,,,,,,,,,,,,,,,,,,,,,,,,,,,,,,,,,,,,,,,,,,,,,,
782706,001,2022-11-21_01h10.19.687,Info_measure_main_exp,2022.2.2,Win32,144.6549978,,,,,,,,,,,,,,,,,,masks/mask_003.jpg,,,,,,,,,,,,,,,,,,,,,,,,,,,,,,,,,,,,,,,,,,,0,2,2,2,1,,,,,,,,,,,,,,,,,,,,,,,,,,,,,,,,,,,,,,,,,,,,,,
782706,001,2022-11-21_01h10.19.687,Info_measure_main_exp,2022.2.2,Win32,144.6549978,,,,,,,,,,,,,,,,,,masks/mask_004.jpg,,,,,,,,,,,,,,,,,,,,,,,,,,,,,,,,,,,,,,,,,,,0,3,3,3,1,,,,,,,,,,,,,,,,,,,,,,,,,,,,,,,,,,,,,,,,,,,,,,
782706,001,2022-11-21_01h10.19.687,Info_measure_main_exp,2022.2.2,Win32,144.6549978,,,,,,,,,,,,,,,,,,masks/mask_002.jpg,,,,,,,,,,,,,,,,,,,,,,,,,,,,,,,,,,,,,,,,,,,0,4,4,1,1,,,,,,,,,,,,,,,,,,,,,,,,,,,,,,,,,,,,,,,,,,,,,,
782706,001,2022-11-21_01h10.19.687,Info_measure_main_exp,2022.2.2,Win32,144.6549978,,,,,,,,,,,,,,,,,,masks/mask_003.jpg,,,,,,,,,,,,,,,,,,,,,,,,,,,,,,,,,,,,,,,,,,,,,,,,0,0,0,2,1,,,,,,,,,,,,,,,,,,,,,,,,,,,,,,,,,,,,,,,,,
782706,001,2022-11-21_01h10.19.687,Info_measure_main_exp,2022.2.2,Win32,144.6549978,,,,,,,,,,,,,,,,,,masks/mask_005.jpg,,,,,,,,,,,,,,,,,,,,,,,,,,,,,,,,,,,,,,,,,,,,,,,,0,1,1,4,1,,,,,,,,,,,,,,,,,,,,,,,,,,,,,,,,,,,,,,,,,
782706,001,2022-11-21_01h10.19.687,Info_measure_main_exp,2022.2.2,Win32,144.6549978,,,,,,,,,,,,,,,,,,masks/mask_004.jpg,,,,,,,,,,,,,,,,,,,,,,,,,,,,,,,,,,,,,,,,,,,,,,,,0,2,2,3,1,,,,,,,,,,,,,,,,,,,,,,,,,,,,,,,,,,,,,,,,,
782706,001,2022-11-21_01h10.19.687,Info_measure_main_exp,2022.2.2,Win32,144.6549978,,,,,,,,,,,,,,,,,,masks/mask_002.jpg,,,,,,,,,,,,,,,,,,,,,,,,,,,,,,,,,,,,,,,,,,,,,,,,0,3,3,1,1,,,,,,,,,,,,,,,,,,,,,,,,,,,,,,,,,,,,,,,,,
782706,001,2022-11-21_01h10.19.687,Info_measure_main_exp,2022.2.2,Win32,144.6549978,,,,,,,,,,,,,,,,,,masks/mask_001.jpg,,,,,,,,,,,,,,,,,,,,,,,,,,,,,,,,,,,,,,,,,,,,,,,,0,4,4,0,1,,,,,,,,,,,,,,,,,,,,,,,,,,,,,,,,,,,,,,,,,
782706,001,2022-11-21_01h10.19.687,Info_measure_main_exp,2022.2.2,Win32,144.6549978,,,,,,,,,,,,,,,,,,,,,,,,,,,,,,5,0.9653,1,,,,,,,,,,,,0,131,5,5,2214,2082,absent_patch/patch0002214.jpg,absent_patch/patch0002082.jpg,,,,,,,,,,,,,,,,,,,,0.114814815,-0.057407407,1,0,0,response3disk,7,-0.003703704,0.001851852,1,0,0,center_square,0,6,6,103,1,,,,,,,,,,,,,,,,,,,,,,,
782706,001,2022-11-21_01h10.19.687,Info_measure_main_exp,2022.2.2,Win32,144.6549978,,,,,,,,,,,,,,,,,,masks/mask_004.jpg,,,,,,,,,,,,,,,,,,,,,,,,,,,,,,,,,,,,,,,,,,,0,0,0,3,1,,,,,,,,,,,,,,,,,,,,,,,,,,,,,,,,,,,,,,,,,,,,,,
782706,001,2022-11-21_01h10.19.687,Info_measure_main_exp,2022.2.2,Win32,144.6549978,,,,,,,,,,,,,,,,,,masks/mask_005.jpg,,,,,,,,,,,,,,,,,,,,,,,,,,,,,,,,,,,,,,,,,,,0,1,1,4,1,,,,,,,,,,,,,,,,,,,,,,,,,,,,,,,,,,,,,,,,,,,,,,
782706,001,2022-11-21_01h10.19.687,Info_measure_main_exp,2022.2.2,Win32,144.6549978,,,,,,,,,,,,,,,,,,masks/mask_002.jpg,,,,,,,,,,,,,,,,,,,,,,,,,,,,,,,,,,,,,,,,,,,0,2,2,1,1,,,,,,,,,,,,,,,,,,,,,,,,,,,,,,,,,,,,,,,,,,,,,,
782706,001,2022-11-21_01h10.19.687,Info_measure_main_exp,2022.2.2,Win32,144.6549978,,,,,,,,,,,,,,,,,,masks/mask_001.jpg,,,,,,,,,,,,,,,,,,,,,,,,,,,,,,,,,,,,,,,,,,,0,3,3,0,1,,,,,,,,,,,,,,,,,,,,,,,,,,,,,,,,,,,,,,,,,,,,,,
782706,001,2022-11-21_01h10.19.687,Info_measure_main_exp,2022.2.2,Win32,144.6549978,,,,,,,,,,,,,,,,,,masks/mask_003.jpg,,,,,,,,,,,,,,,,,,,,,,,,,,,,,,,,,,,,,,,,,,,0,4,4,2,1,,,,,,,,,,,,,,,,,,,,,,,,,,,,,,,,,,,,,,,,,,,,,,
782706,001,2022-11-21_01h10.19.687,Info_measure_main_exp,2022.2.2,Win32,144.6549978,,,,,,,,,,,,,,,,,,masks/mask_003.jpg,,,,,,,,,,,,,,,,,,,,,,,,,,,,,,,,,,,,,,,,,,,,,,,,0,0,0,2,1,,,,,,,,,,,,,,,,,,,,,,,,,,,,,,,,,,,,,,,,,
782706,001,2022-11-21_01h10.19.687,Info_measure_main_exp,2022.2.2,Win32,144.6549978,,,,,,,,,,,,,,,,,,masks/mask_004.jpg,,,,,,,,,,,,,,,,,,,,,,,,,,,,,,,,,,,,,,,,,,,,,,,,0,1,1,3,1,,,,,,,,,,,,,,,,,,,,,,,,,,,,,,,,,,,,,,,,,
782706,001,2022-11-21_01h10.19.687,Info_measure_main_exp,2022.2.2,Win32,144.6549978,,,,,,,,,,,,,,,,,,masks/mask_001.jpg,,,,,,,,,,,,,,,,,,,,,,,,,,,,,,,,,,,,,,,,,,,,,,,,0,2,2,0,1,,,,,,,,,,,,,,,,,,,,,,,,,,,,,,,,,,,,,,,,,
782706,001,2022-11-21_01h10.19.687,Info_measure_main_exp,2022.2.2,Win32,144.6549978,,,,,,,,,,,,,,,,,,masks/mask_002.jpg,,,,,,,,,,,,,,,,,,,,,,,,,,,,,,,,,,,,,,,,,,,,,,,,0,3,3,1,1,,,,,,,,,,,,,,,,,,,,,,,,,,,,,,,,,,,,,,,,,
782706,001,2022-11-21_01h10.19.687,Info_measure_main_exp,2022.2.2,Win32,144.6549978,,,,,,,,,,,,,,,,,,masks/mask_005.jpg,,,,,,,,,,,,,,,,,,,,,,,,,,,,,,,,,,,,,,,,,,,,,,,,0,4,4,4,1,,,,,,,,,,,,,,,,,,,,,,,,,,,,,,,,,,,,,,,,,
782706,001,2022-11-21_01h10.19.687,Info_measure_main_exp,2022.2.2,Win32,144.6549978,,,,,,,,,,,,,,,,,,,,,,,,,,,,,,0,0.5134,1,,,,,,,,,,,,0,131,5,5,2178,2178,absent_patch/patch0002178.jpg,absent_patch/patch0002178.jpg,,,,,,,,,,,,,,,,,,,,-0.016666667,0.055555556,1,0,0,response7disk,8,0.000925926,0.007407407,1,0,0,center_square,0,7,7,98,1,,,,,,,,,,,,,,,,,,,,,,,
782706,001,2022-11-21_01h10.19.687,Info_measure_main_exp,2022.2.2,Win32,144.6549978,,,,,,,,,,,,,,,,,,masks/mask_003.jpg,,,,,,,,,,,,,,,,,,,,,,,,,,,,,,,,,,,,,,,,,,,0,0,0,2,1,,,,,,,,,,,,,,,,,,,,,,,,,,,,,,,,,,,,,,,,,,,,,,
782706,001,2022-11-21_01h10.19.687,Info_measure_main_exp,2022.2.2,Win32,144.6549978,,,,,,,,,,,,,,,,,,masks/mask_004.jpg,,,,,,,,,,,,,,,,,,,,,,,,,,,,,,,,,,,,,,,,,,,0,1,1,3,1,,,,,,,,,,,,,,,,,,,,,,,,,,,,,,,,,,,,,,,,,,,,,,
782706,001,2022-11-21_01h10.19.687,Info_measure_main_exp,2022.2.2,Win32,144.6549978,,,,,,,,,,,,,,,,,,masks/mask_005.jpg,,,,,,,,,,,,,,,,,,,,,,,,,,,,,,,,,,,,,,,,,,,0,2,2,4,1,,,,,,,,,,,,,,,,,,,,,,,,,,,,,,,,,,,,,,,,,,,,,,
782706,001,2022-11-21_01h10.19.687,Info_measure_main_exp,2022.2.2,Win32,144.6549978,,,,,,,,,,,,,,,,,,masks/mask_001.jpg,,,,,,,,,,,,,,,,,,,,,,,,,,,,,,,,,,,,,,,,,,,0,3,3,0,1,,,,,,,,,,,,,,,,,,,,,,,,,,,,,,,,,,,,,,,,,,,,,,
782706,001,2022-11-21_01h10.19.687,Info_measure_main_exp,2022.2.2,Win32,144.6549978,,,,,,,,,,,,,,,,,,masks/mask_002.jpg,,,,,,,,,,,,,,,,,,,,,,,,,,,,,,,,,,,,,,,,,,,0,4,4,1,1,,,,,,,,,,,,,,,,,,,,,,,,,,,,,,,,,,,,,,,,,,,,,,
782706,001,2022-11-21_01h10.19.687,Info_measure_main_exp,2022.2.2,Win32,144.6549978,,,,,,,,,,,,,,,,,,masks/mask_005.jpg,,,,,,,,,,,,,,,,,,,,,,,,,,,,,,,,,,,,,,,,,,,,,,,,0,0,0,4,1,,,,,,,,,,,,,,,,,,,,,,,,,,,,,,,,,,,,,,,,,
782706,001,2022-11-21_01h10.19.687,Info_measure_main_exp,2022.2.2,Win32,144.6549978,,,,,,,,,,,,,,,,,,masks/mask_003.jpg,,,,,,,,,,,,,,,,,,,,,,,,,,,,,,,,,,,,,,,,,,,,,,,,0,1,1,2,1,,,,,,,,,,,,,,,,,,,,,,,,,,,,,,,,,,,,,,,,,
782706,001,2022-11-21_01h10.19.687,Info_measure_main_exp,2022.2.2,Win32,144.6549978,,,,,,,,,,,,,,,,,,masks/mask_002.jpg,,,,,,,,,,,,,,,,,,,,,,,,,,,,,,,,,,,,,,,,,,,,,,,,0,2,2,1,1,,,,,,,,,,,,,,,,,,,,,,,,,,,,,,,,,,,,,,,,,
782706,001,2022-11-21_01h10.19.687,Info_measure_main_exp,2022.2.2,Win32,144.6549978,,,,,,,,,,,,,,,,,,masks/mask_004.jpg,,,,,,,,,,,,,,,,,,,,,,,,,,,,,,,,,,,,,,,,,,,,,,,,0,3,3,3,1,,,,,,,,,,,,,,,,,,,,,,,,,,,,,,,,,,,,,,,,,
782706,001,2022-11-21_01h10.19.687,Info_measure_main_exp,2022.2.2,Win32,144.6549978,,,,,,,,,,,,,,,,,,masks/mask_001.jpg,,,,,,,,,,,,,,,,,,,,,,,,,,,,,,,,,,,,,,,,,,,,,,,,0,4,4,0,1,,,,,,,,,,,,,,,,,,,,,,,,,,,,,,,,,,,,,,,,,
782706,001,2022-11-21_01h10.19.687,Info_measure_main_exp,2022.2.2,Win32,144.6549978,,,,,,,,,,,,,,,,,,,,,,,,,,,,,,7,1.0487,1,,,,,,,,,,,,0,131,5,5,2154,1974,absent_patch/patch0002154.jpg,absent_patch/patch0001974.jpg,,,,,,,,,,,,,,,,,,,,0.064814815,0.109259259,1,0,0,response1disk,9,0.012962963,0.001851852,1,0,0,center_square,0,8,8,82,1,,,,,,,,,,,,,,,,,,,,,,,
782706,001,2022-11-21_01h10.19.687,Info_measure_main_exp,2022.2.2,Win32,144.6549978,,,,,,,,,,,,,,,,,,masks/mask_003.jpg,,,,,,,,,,,,,,,,,,,,,,,,,,,,,,,,,,,,,,,,,,,0,0,0,2,1,,,,,,,,,,,,,,,,,,,,,,,,,,,,,,,,,,,,,,,,,,,,,,
782706,001,2022-11-21_01h10.19.687,Info_measure_main_exp,2022.2.2,Win32,144.6549978,,,,,,,,,,,,,,,,,,masks/mask_001.jpg,,,,,,,,,,,,,,,,,,,,,,,,,,,,,,,,,,,,,,,,,,,0,1,1,0,1,,,,,,,,,,,,,,,,,,,,,,,,,,,,,,,,,,,,,,,,,,,,,,
782706,001,2022-11-21_01h10.19.687,Info_measure_main_exp,2022.2.2,Win32,144.6549978,,,,,,,,,,,,,,,,,,masks/mask_005.jpg,,,,,,,,,,,,,,,,,,,,,,,,,,,,,,,,,,,,,,,,,,,0,2,2,4,1,,,,,,,,,,,,,,,,,,,,,,,,,,,,,,,,,,,,,,,,,,,,,,
782706,001,2022-11-21_01h10.19.687,Info_measure_main_exp,2022.2.2,Win32,144.6549978,,,,,,,,,,,,,,,,,,masks/mask_002.jpg,,,,,,,,,,,,,,,,,,,,,,,,,,,,,,,,,,,,,,,,,,,0,3,3,1,1,,,,,,,,,,,,,,,,,,,,,,,,,,,,,,,,,,,,,,,,,,,,,,
782706,001,2022-11-21_01h10.19.687,Info_measure_main_exp,2022.2.2,Win32,144.6549978,,,,,,,,,,,,,,,,,,masks/mask_004.jpg,,,,,,,,,,,,,,,,,,,,,,,,,,,,,,,,,,,,,,,,,,,0,4,4,3,1,,,,,,,,,,,,,,,,,,,,,,,,,,,,,,,,,,,,,,,,,,,,,,
782706,001,2022-11-21_01h10.19.687,Info_measure_main_exp,2022.2.2,Win32,144.6549978,,,,,,,,,,,,,,,,,,masks/mask_001.jpg,,,,,,,,,,,,,,,,,,,,,,,,,,,,,,,,,,,,,,,,,,,,,,,,0,0,0,0,1,,,,,,,,,,,,,,,,,,,,,,,,,,,,,,,,,,,,,,,,,
782706,001,2022-11-21_01h10.19.687,Info_measure_main_exp,2022.2.2,Win32,144.6549978,,,,,,,,,,,,,,,,,,masks/mask_004.jpg,,,,,,,,,,,,,,,,,,,,,,,,,,,,,,,,,,,,,,,,,,,,,,,,0,1,1,3,1,,,,,,,,,,,,,,,,,,,,,,,,,,,,,,,,,,,,,,,,,
782706,001,2022-11-21_01h10.19.687,Info_measure_main_exp,2022.2.2,Win32,144.6549978,,,,,,,,,,,,,,,,,,masks/mask_002.jpg,,,,,,,,,,,,,,,,,,,,,,,,,,,,,,,,,,,,,,,,,,,,,,,,0,2,2,1,1,,,,,,,,,,,,,,,,,,,,,,,,,,,,,,,,,,,,,,,,,
782706,001,2022-11-21_01h10.19.687,Info_measure_main_exp,2022.2.2,Win32,144.6549978,,,,,,,,,,,,,,,,,,masks/mask_005.jpg,,,,,,,,,,,,,,,,,,,,,,,,,,,,,,,,,,,,,,,,,,,,,,,,0,3,3,4,1,,,,,,,,,,,,,,,,,,,,,,,,,,,,,,,,,,,,,,,,,
782706,001,2022-11-21_01h10.19.687,Info_measure_main_exp,2022.2.2,Win32,144.6549978,,,,,,,,,,,,,,,,,,masks/mask_003.jpg,,,,,,,,,,,,,,,,,,,,,,,,,,,,,,,,,,,,,,,,,,,,,,,,0,4,4,2,1,,,,,,,,,,,,,,,,,,,,,,,,,,,,,,,,,,,,,,,,,
782706,001,2022-11-21_01h10.19.687,Info_measure_main_exp,2022.2.2,Win32,144.6549978,,,,,,,,,,,,,,,,,,,,,,,,,,,,,,1,1.3537,1,,,,,,,,,,,,0,131,5,5,2082,2082,absent_patch/patch0002082.jpg,absent_patch/patch0002082.jpg,,,,,,,,,,,,,,,,,,,,-0.089814815,0.024074074,1,0,0,response7disk,10,-0.011111111,0,1,0,0,center_square,0,9,9,74,1,,,,,,,,,,,,,,,,,,,,,,,
782706,001,2022-11-21_01h10.19.687,Info_measure_main_exp,2022.2.2,Win32,144.6549978,,,,,,,,,,,,,,,,,,masks/mask_003.jpg,,,,,,,,,,,,,,,,,,,,,,,,,,,,,,,,,,,,,,,,,,,0,0,0,2,1,,,,,,,,,,,,,,,,,,,,,,,,,,,,,,,,,,,,,,,,,,,,,,
782706,001,2022-11-21_01h10.19.687,Info_measure_main_exp,2022.2.2,Win32,144.6549978,,,,,,,,,,,,,,,,,,masks/mask_001.jpg,,,,,,,,,,,,,,,,,,,,,,,,,,,,,,,,,,,,,,,,,,,0,1,1,0,1,,,,,,,,,,,,,,,,,,,,,,,,,,,,,,,,,,,,,,,,,,,,,,
782706,001,2022-11-21_01h10.19.687,Info_measure_main_exp,2022.2.2,Win32,144.6549978,,,,,,,,,,,,,,,,,,masks/mask_002.jpg,,,,,,,,,,,,,,,,,,,,,,,,,,,,,,,,,,,,,,,,,,,0,2,2,1,1,,,,,,,,,,,,,,,,,,,,,,,,,,,,,,,,,,,,,,,,,,,,,,
782706,001,2022-11-21_01h10.19.687,Info_measure_main_exp,2022.2.2,Win32,144.6549978,,,,,,,,,,,,,,,,,,masks/mask_004.jpg,,,,,,,,,,,,,,,,,,,,,,,,,,,,,,,,,,,,,,,,,,,0,3,3,3,1,,,,,,,,,,,,,,,,,,,,,,,,,,,,,,,,,,,,,,,,,,,,,,
782706,001,2022-11-21_01h10.19.687,Info_measure_main_exp,2022.2.2,Win32,144.6549978,,,,,,,,,,,,,,,,,,masks/mask_005.jpg,,,,,,,,,,,,,,,,,,,,,,,,,,,,,,,,,,,,,,,,,,,0,4,4,4,1,,,,,,,,,,,,,,,,,,,,,,,,,,,,,,,,,,,,,,,,,,,,,,
782706,001,2022-11-21_01h10.19.687,Info_measure_main_exp,2022.2.2,Win32,144.6549978,,,,,,,,,,,,,,,,,,masks/mask_003.jpg,,,,,,,,,,,,,,,,,,,,,,,,,,,,,,,,,,,,,,,,,,,,,,,,0,0,0,2,1,,,,,,,,,,,,,,,,,,,,,,,,,,,,,,,,,,,,,,,,,
782706,001,2022-11-21_01h10.19.687,Info_measure_main_exp,2022.2.2,Win32,144.6549978,,,,,,,,,,,,,,,,,,masks/mask_004.jpg,,,,,,,,,,,,,,,,,,,,,,,,,,,,,,,,,,,,,,,,,,,,,,,,0,1,1,3,1,,,,,,,,,,,,,,,,,,,,,,,,,,,,,,,,,,,,,,,,,
782706,001,2022-11-21_01h10.19.687,Info_measure_main_exp,2022.2.2,Win32,144.6549978,,,,,,,,,,,,,,,,,,masks/mask_005.jpg,,,,,,,,,,,,,,,,,,,,,,,,,,,,,,,,,,,,,,,,,,,,,,,,0,2,2,4,1,,,,,,,,,,,,,,,,,,,,,,,,,,,,,,,,,,,,,,,,,
782706,001,2022-11-21_01h10.19.687,Info_measure_main_exp,2022.2.2,Win32,144.6549978,,,,,,,,,,,,,,,,,,masks/mask_001.jpg,,,,,,,,,,,,,,,,,,,,,,,,,,,,,,,,,,,,,,,,,,,,,,,,0,3,3,0,1,,,,,,,,,,,,,,,,,,,,,,,,,,,,,,,,,,,,,,,,,
782706,001,2022-11-21_01h10.19.687,Info_measure_main_exp,2022.2.2,Win32,144.6549978,,,,,,,,,,,,,,,,,,masks/mask_002.jpg,,,,,,,,,,,,,,,,,,,,,,,,,,,,,,,,,,,,,,,,,,,,,,,,0,4,4,1,1,,,,,,,,,,,,,,,,,,,,,,,,,,,,,,,,,,,,,,,,,
782706,001,2022-11-21_01h10.19.687,Info_measure_main_exp,2022.2.2,Win32,144.6549978,,,,,,,,,,,,,,,,,,,,,,,,,,,,,,7,0.9235,1,,,,,,,,,,,,0,131,5,5,1974,2238,absent_patch/patch0001974.jpg,absent_patch/patch0002238.jpg,,,,,,,,,,,,,,,,,,,,0.053703704,0.094444444,1,0,0,response1disk,11,0.006481481,-0.010185185,1,0,0,center_square,0,10,10,95,1,,,,,,,,,,,,,,,,,,,,,,,
782706,001,2022-11-21_01h10.19.687,Info_measure_main_exp,2022.2.2,Win32,144.6549978,,,,,,,,,,,,,,,,,,masks/mask_005.jpg,,,,,,,,,,,,,,,,,,,,,,,,,,,,,,,,,,,,,,,,,,,0,0,0,4,1,,,,,,,,,,,,,,,,,,,,,,,,,,,,,,,,,,,,,,,,,,,,,,
782706,001,2022-11-21_01h10.19.687,Info_measure_main_exp,2022.2.2,Win32,144.6549978,,,,,,,,,,,,,,,,,,masks/mask_003.jpg,,,,,,,,,,,,,,,,,,,,,,,,,,,,,,,,,,,,,,,,,,,0,1,1,2,1,,,,,,,,,,,,,,,,,,,,,,,,,,,,,,,,,,,,,,,,,,,,,,
782706,001,2022-11-21_01h10.19.687,Info_measure_main_exp,2022.2.2,Win32,144.6549978,,,,,,,,,,,,,,,,,,masks/mask_004.jpg,,,,,,,,,,,,,,,,,,,,,,,,,,,,,,,,,,,,,,,,,,,0,2,2,3,1,,,,,,,,,,,,,,,,,,,,,,,,,,,,,,,,,,,,,,,,,,,,,,
782706,001,2022-11-21_01h10.19.687,Info_measure_main_exp,2022.2.2,Win32,144.6549978,,,,,,,,,,,,,,,,,,masks/mask_001.jpg,,,,,,,,,,,,,,,,,,,,,,,,,,,,,,,,,,,,,,,,,,,0,3,3,0,1,,,,,,,,,,,,,,,,,,,,,,,,,,,,,,,,,,,,,,,,,,,,,,
782706,001,2022-11-21_01h10.19.687,Info_measure_main_exp,2022.2.2,Win32,144.6549978,,,,,,,,,,,,,,,,,,masks/mask_002.jpg,,,,,,,,,,,,,,,,,,,,,,,,,,,,,,,,,,,,,,,,,,,0,4,4,1,1,,,,,,,,,,,,,,,,,,,,,,,,,,,,,,,,,,,,,,,,,,,,,,
782706,001,2022-11-21_01h10.19.687,Info_measure_main_exp,2022.2.2,Win32,144.6549978,,,,,,,,,,,,,,,,,,masks/mask_003.jpg,,,,,,,,,,,,,,,,,,,,,,,,,,,,,,,,,,,,,,,,,,,,,,,,0,0,0,2,1,,,,,,,,,,,,,,,,,,,,,,,,,,,,,,,,,,,,,,,,,
782706,001,2022-11-21_01h10.19.687,Info_measure_main_exp,2022.2.2,Win32,144.6549978,,,,,,,,,,,,,,,,,,masks/mask_002.jpg,,,,,,,,,,,,,,,,,,,,,,,,,,,,,,,,,,,,,,,,,,,,,,,,0,1,1,1,1,,,,,,,,,,,,,,,,,,,,,,,,,,,,,,,,,,,,,,,,,
782706,001,2022-11-21_01h10.19.687,Info_measure_main_exp,2022.2.2,Win32,144.6549978,,,,,,,,,,,,,,,,,,masks/mask_001.jpg,,,,,,,,,,,,,,,,,,,,,,,,,,,,,,,,,,,,,,,,,,,,,,,,0,2,2,0,1,,,,,,,,,,,,,,,,,,,,,,,,,,,,,,,,,,,,,,,,,
782706,001,2022-11-21_01h10.19.687,Info_measure_main_exp,2022.2.2,Win32,144.6549978,,,,,,,,,,,,,,,,,,masks/mask_004.jpg,,,,,,,,,,,,,,,,,,,,,,,,,,,,,,,,,,,,,,,,,,,,,,,,0,3,3,3,1,,,,,,,,,,,,,,,,,,,,,,,,,,,,,,,,,,,,,,,,,
782706,001,2022-11-21_01h10.19.687,Info_measure_main_exp,2022.2.2,Win32,144.6549978,,,,,,,,,,,,,,,,,,masks/mask_005.jpg,,,,,,,,,,,,,,,,,,,,,,,,,,,,,,,,,,,,,,,,,,,,,,,,0,4,4,4,1,,,,,,,,,,,,,,,,,,,,,,,,,,,,,,,,,,,,,,,,,
782706,001,2022-11-21_01h10.19.687,Info_measure_main_exp,2022.2.2,Win32,144.6549978,,,,,,,,,,,,,,,,,,,,,,,,,,,,,,7,0.8126,1,,,,,,,,,,,,0,131,5,5,2190,2238,absent_patch/patch0002190.jpg,absent_patch/patch0002238.jpg,,,,,,,,,,,,,,,,,,,,0.033333333,0.080555556,1,0,0,response1disk,12,0.00462963,-0.009259259,1,0,0,center_square,0,11,11,53,1,,,,,,,,,,,,,,,,,,,,,,,
782706,001,2022-11-21_01h10.19.687,Info_measure_main_exp,2022.2.2,Win32,144.6549978,,,,,,,,,,,,,,,,,,masks/mask_004.jpg,,,,,,,,,,,,,,,,,,,,,,,,,,,,,,,,,,,,,,,,,,,0,0,0,3,1,,,,,,,,,,,,,,,,,,,,,,,,,,,,,,,,,,,,,,,,,,,,,,
782706,001,2022-11-21_01h10.19.687,Info_measure_main_exp,2022.2.2,Win32,144.6549978,,,,,,,,,,,,,,,,,,masks/mask_001.jpg,,,,,,,,,,,,,,,,,,,,,,,,,,,,,,,,,,,,,,,,,,,0,1,1,0,1,,,,,,,,,,,,,,,,,,,,,,,,,,,,,,,,,,,,,,,,,,,,,,
782706,001,2022-11-21_01h10.19.687,Info_measure_main_exp,2022.2.2,Win32,144.6549978,,,,,,,,,,,,,,,,,,masks/mask_003.jpg,,,,,,,,,,,,,,,,,,,,,,,,,,,,,,,,,,,,,,,,,,,0,2,2,2,1,,,,,,,,,,,,,,,,,,,,,,,,,,,,,,,,,,,,,,,,,,,,,,
782706,001,2022-11-21_01h10.19.687,Info_measure_main_exp,2022.2.2,Win32,144.6549978,,,,,,,,,,,,,,,,,,masks/mask_002.jpg,,,,,,,,,,,,,,,,,,,,,,,,,,,,,,,,,,,,,,,,,,,0,3,3,1,1,,,,,,,,,,,,,,,,,,,,,,,,,,,,,,,,,,,,,,,,,,,,,,
782706,001,2022-11-21_01h10.19.687,Info_measure_main_exp,2022.2.2,Win32,144.6549978,,,,,,,,,,,,,,,,,,masks/mask_005.jpg,,,,,,,,,,,,,,,,,,,,,,,,,,,,,,,,,,,,,,,,,,,0,4,4,4,1,,,,,,,,,,,,,,,,,,,,,,,,,,,,,,,,,,,,,,,,,,,,,,
782706,001,2022-11-21_01h10.19.687,Info_measure_main_exp,2022.2.2,Win32,144.6549978,,,,,,,,,,,,,,,,,,masks/mask_003.jpg,,,,,,,,,,,,,,,,,,,,,,,,,,,,,,,,,,,,,,,,,,,,,,,,0,0,0,2,1,,,,,,,,,,,,,,,,,,,,,,,,,,,,,,,,,,,,,,,,,
782706,001,2022-11-21_01h10.19.687,Info_measure_main_exp,2022.2.2,Win32,144.6549978,,,,,,,,,,,,,,,,,,masks/mask_005.jpg,,,,,,,,,,,,,,,,,,,,,,,,,,,,,,,,,,,,,,,,,,,,,,,,0,1,1,4,1,,,,,,,,,,,,,,,,,,,,,,,,,,,,,,,,,,,,,,,,,
782706,001,2022-11-21_01h10.19.687,Info_measure_main_exp,2022.2.2,Win32,144.6549978,,,,,,,,,,,,,,,,,,masks/mask_004.jpg,,,,,,,,,,,,,,,,,,,,,,,,,,,,,,,,,,,,,,,,,,,,,,,,0,2,2,3,1,,,,,,,,,,,,,,,,,,,,,,,,,,,,,,,,,,,,,,,,,
782706,001,2022-11-21_01h10.19.687,Info_measure_main_exp,2022.2.2,Win32,144.6549978,,,,,,,,,,,,,,,,,,masks/mask_002.jpg,,,,,,,,,,,,,,,,,,,,,,,,,,,,,,,,,,,,,,,,,,,,,,,,0,3,3,1,1,,,,,,,,,,,,,,,,,,,,,,,,,,,,,,,,,,,,,,,,,
782706,001,2022-11-21_01h10.19.687,Info_measure_main_exp,2022.2.2,Win32,144.6549978,,,,,,,,,,,,,,,,,,masks/mask_001.jpg,,,,,,,,,,,,,,,,,,,,,,,,,,,,,,,,,,,,,,,,,,,,,,,,0,4,4,0,1,,,,,,,,,,,,,,,,,,,,,,,,,,,,,,,,,,,,,,,,,
782706,001,2022-11-21_01h10.19.687,Info_measure_main_exp,2022.2.2,Win32,144.6549978,,,,,,,,,,,,,,,,,,,,,,,,,,,,,,7,1.6183,1,,,,,,,,,,,,0,131,5,5,2154,2190,absent_patch/patch0002154.jpg,absent_patch/patch0002190.jpg,,,,,,,,,,,,,,,,,,,,0.037962963,0.069444444,1,0,0,response1disk,13,0.010185185,0,1,0,0,center_square,0,12,12,68,1,,,,,,,,,,,,,,,,,,,,,,,
782706,001,2022-11-21_01h10.19.687,Info_measure_main_exp,2022.2.2,Win32,144.6549978,,,,,,,,,,,,,,,,,,masks/mask_005.jpg,,,,,,,,,,,,,,,,,,,,,,,,,,,,,,,,,,,,,,,,,,,0,0,0,4,1,,,,,,,,,,,,,,,,,,,,,,,,,,,,,,,,,,,,,,,,,,,,,,
782706,001,2022-11-21_01h10.19.687,Info_measure_main_exp,2022.2.2,Win32,144.6549978,,,,,,,,,,,,,,,,,,masks/mask_003.jpg,,,,,,,,,,,,,,,,,,,,,,,,,,,,,,,,,,,,,,,,,,,0,1,1,2,1,,,,,,,,,,,,,,,,,,,,,,,,,,,,,,,,,,,,,,,,,,,,,,
782706,001,2022-11-21_01h10.19.687,Info_measure_main_exp,2022.2.2,Win32,144.6549978,,,,,,,,,,,,,,,,,,masks/mask_001.jpg,,,,,,,,,,,,,,,,,,,,,,,,,,,,,,,,,,,,,,,,,,,0,2,2,0,1,,,,,,,,,,,,,,,,,,,,,,,,,,,,,,,,,,,,,,,,,,,,,,
782706,001,2022-11-21_01h10.19.687,Info_measure_main_exp,2022.2.2,Win32,144.6549978,,,,,,,,,,,,,,,,,,masks/mask_002.jpg,,,,,,,,,,,,,,,,,,,,,,,,,,,,,,,,,,,,,,,,,,,0,3,3,1,1,,,,,,,,,,,,,,,,,,,,,,,,,,,,,,,,,,,,,,,,,,,,,,
782706,001,2022-11-21_01h10.19.687,Info_measure_main_exp,2022.2.2,Win32,144.6549978,,,,,,,,,,,,,,,,,,masks/mask_004.jpg,,,,,,,,,,,,,,,,,,,,,,,,,,,,,,,,,,,,,,,,,,,0,4,4,3,1,,,,,,,,,,,,,,,,,,,,,,,,,,,,,,,,,,,,,,,,,,,,,,
782706,001,2022-11-21_01h10.19.687,Info_measure_main_exp,2022.2.2,Win32,144.6549978,,,,,,,,,,,,,,,,,,masks/mask_002.jpg,,,,,,,,,,,,,,,,,,,,,,,,,,,,,,,,,,,,,,,,,,,,,,,,0,0,0,1,1,,,,,,,,,,,,,,,,,,,,,,,,,,,,,,,,,,,,,,,,,
782706,001,2022-11-21_01h10.19.687,Info_measure_main_exp,2022.2.2,Win32,144.6549978,,,,,,,,,,,,,,,,,,masks/mask_004.jpg,,,,,,,,,,,,,,,,,,,,,,,,,,,,,,,,,,,,,,,,,,,,,,,,0,1,1,3,1,,,,,,,,,,,,,,,,,,,,,,,,,,,,,,,,,,,,,,,,,
782706,001,2022-11-21_01h10.19.687,Info_measure_main_exp,2022.2.2,Win32,144.6549978,,,,,,,,,,,,,,,,,,masks/mask_003.jpg,,,,,,,,,,,,,,,,,,,,,,,,,,,,,,,,,,,,,,,,,,,,,,,,0,2,2,2,1,,,,,,,,,,,,,,,,,,,,,,,,,,,,,,,,,,,,,,,,,
782706,001,2022-11-21_01h10.19.687,Info_measure_main_exp,2022.2.2,Win32,144.6549978,,,,,,,,,,,,,,,,,,masks/mask_001.jpg,,,,,,,,,,,,,,,,,,,,,,,,,,,,,,,,,,,,,,,,,,,,,,,,0,3,3,0,1,,,,,,,,,,,,,,,,,,,,,,,,,,,,,,,,,,,,,,,,,
782706,001,2022-11-21_01h10.19.687,Info_measure_main_exp,2022.2.2,Win32,144.6549978,,,,,,,,,,,,,,,,,,masks/mask_005.jpg,,,,,,,,,,,,,,,,,,,,,,,,,,,,,,,,,,,,,,,,,,,,,,,,0,4,4,4,1,,,,,,,,,,,,,,,,,,,,,,,,,,,,,,,,,,,,,,,,,
782706,001,2022-11-21_01h10.19.687,Info_measure_main_exp,2022.2.2,Win32,144.6549978,,,,,,,,,,,,,,,,,,,,,,,,,,,,,,7,0.7776,1,,,,,,,,,,,,0,131,5,5,2190,1986,absent_patch/patch0002190.jpg,absent_patch/patch0001986.jpg,,,,,,,,,,,,,,,,,,,,0.037962963,0.088888889,1,0,0,response1disk,14,0.011111111,-0.00462963,1,0,0,center_square,0,13,13,111,1,,,,,,,,,,,,,,,,,,,,,,,
782706,001,2022-11-21_01h10.19.687,Info_measure_main_exp,2022.2.2,Win32,144.6549978,,,,,,,,,,,,,,,,,,masks/mask_001.jpg,,,,,,,,,,,,,,,,,,,,,,,,,,,,,,,,,,,,,,,,,,,0,0,0,0,1,,,,,,,,,,,,,,,,,,,,,,,,,,,,,,,,,,,,,,,,,,,,,,
782706,001,2022-11-21_01h10.19.687,Info_measure_main_exp,2022.2.2,Win32,144.6549978,,,,,,,,,,,,,,,,,,masks/mask_003.jpg,,,,,,,,,,,,,,,,,,,,,,,,,,,,,,,,,,,,,,,,,,,0,1,1,2,1,,,,,,,,,,,,,,,,,,,,,,,,,,,,,,,,,,,,,,,,,,,,,,
782706,001,2022-11-21_01h10.19.687,Info_measure_main_exp,2022.2.2,Win32,144.6549978,,,,,,,,,,,,,,,,,,masks/mask_004.jpg,,,,,,,,,,,,,,,,,,,,,,,,,,,,,,,,,,,,,,,,,,,0,2,2,3,1,,,,,,,,,,,,,,,,,,,,,,,,,,,,,,,,,,,,,,,,,,,,,,
782706,001,2022-11-21_01h10.19.687,Info_measure_main_exp,2022.2.2,Win32,144.6549978,,,,,,,,,,,,,,,,,,masks/mask_002.jpg,,,,,,,,,,,,,,,,,,,,,,,,,,,,,,,,,,,,,,,,,,,0,3,3,1,1,,,,,,,,,,,,,,,,,,,,,,,,,,,,,,,,,,,,,,,,,,,,,,
782706,001,2022-11-21_01h10.19.687,Info_measure_main_exp,2022.2.2,Win32,144.6549978,,,,,,,,,,,,,,,,,,masks/mask_005.jpg,,,,,,,,,,,,,,,,,,,,,,,,,,,,,,,,,,,,,,,,,,,0,4,4,4,1,,,,,,,,,,,,,,,,,,,,,,,,,,,,,,,,,,,,,,,,,,,,,,
782706,001,2022-11-21_01h10.19.687,Info_measure_main_exp,2022.2.2,Win32,144.6549978,,,,,,,,,,,,,,,,,,masks/mask_004.jpg,,,,,,,,,,,,,,,,,,,,,,,,,,,,,,,,,,,,,,,,,,,,,,,,0,0,0,3,1,,,,,,,,,,,,,,,,,,,,,,,,,,,,,,,,,,,,,,,,,
782706,001,2022-11-21_01h10.19.687,Info_measure_main_exp,2022.2.2,Win32,144.6549978,,,,,,,,,,,,,,,,,,masks/mask_003.jpg,,,,,,,,,,,,,,,,,,,,,,,,,,,,,,,,,,,,,,,,,,,,,,,,0,1,1,2,1,,,,,,,,,,,,,,,,,,,,,,,,,,,,,,,,,,,,,,,,,
782706,001,2022-11-21_01h10.19.687,Info_measure_main_exp,2022.2.2,Win32,144.6549978,,,,,,,,,,,,,,,,,,masks/mask_002.jpg,,,,,,,,,,,,,,,,,,,,,,,,,,,,,,,,,,,,,,,,,,,,,,,,0,2,2,1,1,,,,,,,,,,,,,,,,,,,,,,,,,,,,,,,,,,,,,,,,,
782706,001,2022-11-21_01h10.19.687,Info_measure_main_exp,2022.2.2,Win32,144.6549978,,,,,,,,,,,,,,,,,,masks/mask_001.jpg,,,,,,,,,,,,,,,,,,,,,,,,,,,,,,,,,,,,,,,,,,,,,,,,0,3,3,0,1,,,,,,,,,,,,,,,,,,,,,,,,,,,,,,,,,,,,,,,,,
782706,001,2022-11-21_01h10.19.687,Info_measure_main_exp,2022.2.2,Win32,144.6549978,,,,,,,,,,,,,,,,,,masks/mask_005.jpg,,,,,,,,,,,,,,,,,,,,,,,,,,,,,,,,,,,,,,,,,,,,,,,,0,4,4,4,1,,,,,,,,,,,,,,,,,,,,,,,,,,,,,,,,,,,,,,,,,
782706,001,2022-11-21_01h10.19.687,Info_measure_main_exp,2022.2.2,Win32,144.6549978,,,,,,,,,,,,,,,,,,,,,,,,,,,,,,6,3.896,1,,,,,,,,,,,,0,131,5,5,2166,2154,absent_patch/patch0002166.jpg,absent_patch/patch0002154.jpg,,,,,,,,,,,,,,,,,,,,0.12962963,0.030555556,1,0,0,response1disk,15,0.009259259,-0.012962963,1,0,0,center_square,0,14,14,79,1,,,,,,,,,,,,,,,,,,,,,,,
782706,001,2022-11-21_01h10.19.687,Info_measure_main_exp,2022.2.2,Win32,144.6549978,,,,,,,,,,,,,,,,,,masks/mask_004.jpg,,,,,,,,,,,,,,,,,,,,,,,,,,,,,,,,,,,,,,,,,,,0,0,0,3,1,,,,,,,,,,,,,,,,,,,,,,,,,,,,,,,,,,,,,,,,,,,,,,
782706,001,2022-11-21_01h10.19.687,Info_measure_main_exp,2022.2.2,Win32,144.6549978,,,,,,,,,,,,,,,,,,masks/mask_002.jpg,,,,,,,,,,,,,,,,,,,,,,,,,,,,,,,,,,,,,,,,,,,0,1,1,1,1,,,,,,,,,,,,,,,,,,,,,,,,,,,,,,,,,,,,,,,,,,,,,,
782706,001,2022-11-21_01h10.19.687,Info_measure_main_exp,2022.2.2,Win32,144.6549978,,,,,,,,,,,,,,,,,,masks/mask_001.jpg,,,,,,,,,,,,,,,,,,,,,,,,,,,,,,,,,,,,,,,,,,,0,2,2,0,1,,,,,,,,,,,,,,,,,,,,,,,,,,,,,,,,,,,,,,,,,,,,,,
782706,001,2022-11-21_01h10.19.687,Info_measure_main_exp,2022.2.2,Win32,144.6549978,,,,,,,,,,,,,,,,,,masks/mask_003.jpg,,,,,,,,,,,,,,,,,,,,,,,,,,,,,,,,,,,,,,,,,,,0,3,3,2,1,,,,,,,,,,,,,,,,,,,,,,,,,,,,,,,,,,,,,,,,,,,,,,
782706,001,2022-11-21_01h10.19.687,Info_measure_main_exp,2022.2.2,Win32,144.6549978,,,,,,,,,,,,,,,,,,masks/mask_005.jpg,,,,,,,,,,,,,,,,,,,,,,,,,,,,,,,,,,,,,,,,,,,0,4,4,4,1,,,,,,,,,,,,,,,,,,,,,,,,,,,,,,,,,,,,,,,,,,,,,,
782706,001,2022-11-21_01h10.19.687,Info_measure_main_exp,2022.2.2,Win32,144.6549978,,,,,,,,,,,,,,,,,,masks/mask_001.jpg,,,,,,,,,,,,,,,,,,,,,,,,,,,,,,,,,,,,,,,,,,,,,,,,0,0,0,0,1,,,,,,,,,,,,,,,,,,,,,,,,,,,,,,,,,,,,,,,,,
782706,001,2022-11-21_01h10.19.687,Info_measure_main_exp,2022.2.2,Win32,144.6549978,,,,,,,,,,,,,,,,,,masks/mask_004.jpg,,,,,,,,,,,,,,,,,,,,,,,,,,,,,,,,,,,,,,,,,,,,,,,,0,1,1,3,1,,,,,,,,,,,,,,,,,,,,,,,,,,,,,,,,,,,,,,,,,
782706,001,2022-11-21_01h10.19.687,Info_measure_main_exp,2022.2.2,Win32,144.6549978,,,,,,,,,,,,,,,,,,masks/mask_003.jpg,,,,,,,,,,,,,,,,,,,,,,,,,,,,,,,,,,,,,,,,,,,,,,,,0,2,2,2,1,,,,,,,,,,,,,,,,,,,,,,,,,,,,,,,,,,,,,,,,,
782706,001,2022-11-21_01h10.19.687,Info_measure_main_exp,2022.2.2,Win32,144.6549978,,,,,,,,,,,,,,,,,,masks/mask_005.jpg,,,,,,,,,,,,,,,,,,,,,,,,,,,,,,,,,,,,,,,,,,,,,,,,0,3,3,4,1,,,,,,,,,,,,,,,,,,,,,,,,,,,,,,,,,,,,,,,,,
782706,001,2022-11-21_01h10.19.687,Info_measure_main_exp,2022.2.2,Win32,144.6549978,,,,,,,,,,,,,,,,,,masks/mask_002.jpg,,,,,,,,,,,,,,,,,,,,,,,,,,,,,,,,,,,,,,,,,,,,,,,,0,4,4,1,1,,,,,,,,,,,,,,,,,,,,,,,,,,,,,,,,,,,,,,,,,
782706,001,2022-11-21_01h10.19.687,Info_measure_main_exp,2022.2.2,Win32,144.6549978,,,,,,,,,,,,,,,,,,,,,,,,,,,,,,6,0.9028,1,,,,,,,,,,,,0,131,5,5,2154,2238,absent_patch/patch0002154.jpg,absent_patch/patch0002238.jpg,,,,,,,,,,,,,,,,,,,,0.1,0.025,1,0,0,response1disk,16,0.006481481,-0.001851852,1,0,0,center_square,0,15,15,21,1,,,,,,,,,,,,,,,,,,,,,,,
782706,001,2022-11-21_01h10.19.687,Info_measure_main_exp,2022.2.2,Win32,144.6549978,,,,,,,,,,,,,,,,,,masks/mask_002.jpg,,,,,,,,,,,,,,,,,,,,,,,,,,,,,,,,,,,,,,,,,,,0,0,0,1,1,,,,,,,,,,,,,,,,,,,,,,,,,,,,,,,,,,,,,,,,,,,,,,
782706,001,2022-11-21_01h10.19.687,Info_measure_main_exp,2022.2.2,Win32,144.6549978,,,,,,,,,,,,,,,,,,masks/mask_004.jpg,,,,,,,,,,,,,,,,,,,,,,,,,,,,,,,,,,,,,,,,,,,0,1,1,3,1,,,,,,,,,,,,,,,,,,,,,,,,,,,,,,,,,,,,,,,,,,,,,,
782706,001,2022-11-21_01h10.19.687,Info_measure_main_exp,2022.2.2,Win32,144.6549978,,,,,,,,,,,,,,,,,,masks/mask_003.jpg,,,,,,,,,,,,,,,,,,,,,,,,,,,,,,,,,,,,,,,,,,,0,2,2,2,1,,,,,,,,,,,,,,,,,,,,,,,,,,,,,,,,,,,,,,,,,,,,,,
782706,001,2022-11-21_01h10.19.687,Info_measure_main_exp,2022.2.2,Win32,144.6549978,,,,,,,,,,,,,,,,,,masks/mask_001.jpg,,,,,,,,,,,,,,,,,,,,,,,,,,,,,,,,,,,,,,,,,,,0,3,3,0,1,,,,,,,,,,,,,,,,,,,,,,,,,,,,,,,,,,,,,,,,,,,,,,
782706,001,2022-11-21_01h10.19.687,Info_measure_main_exp,2022.2.2,Win32,144.6549978,,,,,,,,,,,,,,,,,,masks/mask_005.jpg,,,,,,,,,,,,,,,,,,,,,,,,,,,,,,,,,,,,,,,,,,,0,4,4,4,1,,,,,,,,,,,,,,,,,,,,,,,,,,,,,,,,,,,,,,,,,,,,,,
782706,001,2022-11-21_01h10.19.687,Info_measure_main_exp,2022.2.2,Win32,144.6549978,,,,,,,,,,,,,,,,,,masks/mask_005.jpg,,,,,,,,,,,,,,,,,,,,,,,,,,,,,,,,,,,,,,,,,,,,,,,,0,0,0,4,1,,,,,,,,,,,,,,,,,,,,,,,,,,,,,,,,,,,,,,,,,
782706,001,2022-11-21_01h10.19.687,Info_measure_main_exp,2022.2.2,Win32,144.6549978,,,,,,,,,,,,,,,,,,masks/mask_004.jpg,,,,,,,,,,,,,,,,,,,,,,,,,,,,,,,,,,,,,,,,,,,,,,,,0,1,1,3,1,,,,,,,,,,,,,,,,,,,,,,,,,,,,,,,,,,,,,,,,,
782706,001,2022-11-21_01h10.19.687,Info_measure_main_exp,2022.2.2,Win32,144.6549978,,,,,,,,,,,,,,,,,,masks/mask_003.jpg,,,,,,,,,,,,,,,,,,,,,,,,,,,,,,,,,,,,,,,,,,,,,,,,0,2,2,2,1,,,,,,,,,,,,,,,,,,,,,,,,,,,,,,,,,,,,,,,,,
782706,001,2022-11-21_01h10.19.687,Info_measure_main_exp,2022.2.2,Win32,144.6549978,,,,,,,,,,,,,,,,,,masks/mask_002.jpg,,,,,,,,,,,,,,,,,,,,,,,,,,,,,,,,,,,,,,,,,,,,,,,,0,3,3,1,1,,,,,,,,,,,,,,,,,,,,,,,,,,,,,,,,,,,,,,,,,
782706,001,2022-11-21_01h10.19.687,Info_measure_main_exp,2022.2.2,Win32,144.6549978,,,,,,,,,,,,,,,,,,masks/mask_001.jpg,,,,,,,,,,,,,,,,,,,,,,,,,,,,,,,,,,,,,,,,,,,,,,,,0,4,4,0,1,,,,,,,,,,,,,,,,,,,,,,,,,,,,,,,,,,,,,,,,,
782706,001,2022-11-21_01h10.19.687,Info_measure_main_exp,2022.2.2,Win32,144.6549978,,,,,,,,,,,,,,,,,,,,,,,,,,,,,,7,0.8888,1,,,,,,,,,,,,0,131,5,5,2142,2190,absent_patch/patch0002142.jpg,absent_patch/patch0002190.jpg,,,,,,,,,,,,,,,,,,,,0.044444444,0.087037037,1,0,0,response1disk,17,0.005555556,-0.006481481,1,0,0,center_square,0,16,16,70,1,,,,,,,,,,,,,,,,,,,,,,,
782706,001,2022-11-21_01h10.19.687,Info_measure_main_exp,2022.2.2,Win32,144.6549978,,,,,,,,,,,,,,,,,,masks/mask_001.jpg,,,,,,,,,,,,,,,,,,,,,,,,,,,,,,,,,,,,,,,,,,,0,0,0,0,1,,,,,,,,,,,,,,,,,,,,,,,,,,,,,,,,,,,,,,,,,,,,,,
782706,001,2022-11-21_01h10.19.687,Info_measure_main_exp,2022.2.2,Win32,144.6549978,,,,,,,,,,,,,,,,,,masks/mask_004.jpg,,,,,,,,,,,,,,,,,,,,,,,,,,,,,,,,,,,,,,,,,,,0,1,1,3,1,,,,,,,,,,,,,,,,,,,,,,,,,,,,,,,,,,,,,,,,,,,,,,
782706,001,2022-11-21_01h10.19.687,Info_measure_main_exp,2022.2.2,Win32,144.6549978,,,,,,,,,,,,,,,,,,masks/mask_003.jpg,,,,,,,,,,,,,,,,,,,,,,,,,,,,,,,,,,,,,,,,,,,0,2,2,2,1,,,,,,,,,,,,,,,,,,,,,,,,,,,,,,,,,,,,,,,,,,,,,,
782706,001,2022-11-21_01h10.19.687,Info_measure_main_exp,2022.2.2,Win32,144.6549978,,,,,,,,,,,,,,,,,,masks/mask_002.jpg,,,,,,,,,,,,,,,,,,,,,,,,,,,,,,,,,,,,,,,,,,,0,3,3,1,1,,,,,,,,,,,,,,,,,,,,,,,,,,,,,,,,,,,,,,,,,,,,,,
782706,001,2022-11-21_01h10.19.687,Info_measure_main_exp,2022.2.2,Win32,144.6549978,,,,,,,,,,,,,,,,,,masks/mask_005.jpg,,,,,,,,,,,,,,,,,,,,,,,,,,,,,,,,,,,,,,,,,,,0,4,4,4,1,,,,,,,,,,,,,,,,,,,,,,,,,,,,,,,,,,,,,,,,,,,,,,
782706,001,2022-11-21_01h10.19.687,Info_measure_main_exp,2022.2.2,Win32,144.6549978,,,,,,,,,,,,,,,,,,masks/mask_002.jpg,,,,,,,,,,,,,,,,,,,,,,,,,,,,,,,,,,,,,,,,,,,,,,,,0,0,0,1,1,,,,,,,,,,,,,,,,,,,,,,,,,,,,,,,,,,,,,,,,,
782706,001,2022-11-21_01h10.19.687,Info_measure_main_exp,2022.2.2,Win32,144.6549978,,,,,,,,,,,,,,,,,,masks/mask_003.jpg,,,,,,,,,,,,,,,,,,,,,,,,,,,,,,,,,,,,,,,,,,,,,,,,0,1,1,2,1,,,,,,,,,,,,,,,,,,,,,,,,,,,,,,,,,,,,,,,,,
782706,001,2022-11-21_01h10.19.687,Info_measure_main_exp,2022.2.2,Win32,144.6549978,,,,,,,,,,,,,,,,,,masks/mask_004.jpg,,,,,,,,,,,,,,,,,,,,,,,,,,,,,,,,,,,,,,,,,,,,,,,,0,2,2,3,1,,,,,,,,,,,,,,,,,,,,,,,,,,,,,,,,,,,,,,,,,
782706,001,2022-11-21_01h10.19.687,Info_measure_main_exp,2022.2.2,Win32,144.6549978,,,,,,,,,,,,,,,,,,masks/mask_005.jpg,,,,,,,,,,,,,,,,,,,,,,,,,,,,,,,,,,,,,,,,,,,,,,,,0,3,3,4,1,,,,,,,,,,,,,,,,,,,,,,,,,,,,,,,,,,,,,,,,,
782706,001,2022-11-21_01h10.19.687,Info_measure_main_exp,2022.2.2,Win32,144.6549978,,,,,,,,,,,,,,,,,,masks/mask_001.jpg,,,,,,,,,,,,,,,,,,,,,,,,,,,,,,,,,,,,,,,,,,,,,,,,0,4,4,0,1,,,,,,,,,,,,,,,,,,,,,,,,,,,,,,,,,,,,,,,,,
782706,001,2022-11-21_01h10.19.687,Info_measure_main_exp,2022.2.2,Win32,144.6549978,,,,,,,,,,,,,,,,,,,,,,,,,,,,,,7,0.6667,1,,,,,,,,,,,,0,131,5,5,2082,2178,absent_patch/patch0002082.jpg,absent_patch/patch0002178.jpg,,,,,,,,,,,,,,,,,,,,0.019444444,0.074074074,1,0,0,response1disk,18,0.010185185,0,1,0,0,center_square,0,17,17,2,1,,,,,,,,,,,,,,,,,,,,,,,
782706,001,2022-11-21_01h10.19.687,Info_measure_main_exp,2022.2.2,Win32,144.6549978,,,,,,,,,,,,,,,,,,masks/mask_003.jpg,,,,,,,,,,,,,,,,,,,,,,,,,,,,,,,,,,,,,,,,,,,0,0,0,2,1,,,,,,,,,,,,,,,,,,,,,,,,,,,,,,,,,,,,,,,,,,,,,,
782706,001,2022-11-21_01h10.19.687,Info_measure_main_exp,2022.2.2,Win32,144.6549978,,,,,,,,,,,,,,,,,,masks/mask_002.jpg,,,,,,,,,,,,,,,,,,,,,,,,,,,,,,,,,,,,,,,,,,,0,1,1,1,1,,,,,,,,,,,,,,,,,,,,,,,,,,,,,,,,,,,,,,,,,,,,,,
782706,001,2022-11-21_01h10.19.687,Info_measure_main_exp,2022.2.2,Win32,144.6549978,,,,,,,,,,,,,,,,,,masks/mask_001.jpg,,,,,,,,,,,,,,,,,,,,,,,,,,,,,,,,,,,,,,,,,,,0,2,2,0,1,,,,,,,,,,,,,,,,,,,,,,,,,,,,,,,,,,,,,,,,,,,,,,
782706,001,2022-11-21_01h10.19.687,Info_measure_main_exp,2022.2.2,Win32,144.6549978,,,,,,,,,,,,,,,,,,masks/mask_004.jpg,,,,,,,,,,,,,,,,,,,,,,,,,,,,,,,,,,,,,,,,,,,0,3,3,3,1,,,,,,,,,,,,,,,,,,,,,,,,,,,,,,,,,,,,,,,,,,,,,,
782706,001,2022-11-21_01h10.19.687,Info_measure_main_exp,2022.2.2,Win32,144.6549978,,,,,,,,,,,,,,,,,,masks/mask_005.jpg,,,,,,,,,,,,,,,,,,,,,,,,,,,,,,,,,,,,,,,,,,,0,4,4,4,1,,,,,,,,,,,,,,,,,,,,,,,,,,,,,,,,,,,,,,,,,,,,,,
782706,001,2022-11-21_01h10.19.687,Info_measure_main_exp,2022.2.2,Win32,144.6549978,,,,,,,,,,,,,,,,,,masks/mask_004.jpg,,,,,,,,,,,,,,,,,,,,,,,,,,,,,,,,,,,,,,,,,,,,,,,,0,0,0,3,1,,,,,,,,,,,,,,,,,,,,,,,,,,,,,,,,,,,,,,,,,
782706,001,2022-11-21_01h10.19.687,Info_measure_main_exp,2022.2.2,Win32,144.6549978,,,,,,,,,,,,,,,,,,masks/mask_001.jpg,,,,,,,,,,,,,,,,,,,,,,,,,,,,,,,,,,,,,,,,,,,,,,,,0,1,1,0,1,,,,,,,,,,,,,,,,,,,,,,,,,,,,,,,,,,,,,,,,,
782706,001,2022-11-21_01h10.19.687,Info_measure_main_exp,2022.2.2,Win32,144.6549978,,,,,,,,,,,,,,,,,,masks/mask_005.jpg,,,,,,,,,,,,,,,,,,,,,,,,,,,,,,,,,,,,,,,,,,,,,,,,0,2,2,4,1,,,,,,,,,,,,,,,,,,,,,,,,,,,,,,,,,,,,,,,,,
782706,001,2022-11-21_01h10.19.687,Info_measure_main_exp,2022.2.2,Win32,144.6549978,,,,,,,,,,,,,,,,,,masks/mask_002.jpg,,,,,,,,,,,,,,,,,,,,,,,,,,,,,,,,,,,,,,,,,,,,,,,,0,3,3,1,1,,,,,,,,,,,,,,,,,,,,,,,,,,,,,,,,,,,,,,,,,
782706,001,2022-11-21_01h10.19.687,Info_measure_main_exp,2022.2.2,Win32,144.6549978,,,,,,,,,,,,,,,,,,masks/mask_003.jpg,,,,,,,,,,,,,,,,,,,,,,,,,,,,,,,,,,,,,,,,,,,,,,,,0,4,4,2,1,,,,,,,,,,,,,,,,,,,,,,,,,,,,,,,,,,,,,,,,,
782706,001,2022-11-21_01h10.19.687,Info_measure_main_exp,2022.2.2,Win32,144.6549978,,,,,,,,,,,,,,,,,,,,,,,,,,,,,,7,0.8267,1,,,,,,,,,,,,1,131,5,5,1,1974,present_patch/cong_131_5_a.jpg,absent_patch/patch0001974.jpg,,,,,,,,,,,,,,,,,,,,0.016666667,0.072222222,1,0,0,response1disk,19,-0.005555556,0.000925926,1,0,0,center_square,0,18,18,69,1,,,,,,,,,,,,,,,,,,,,,,,
782706,001,2022-11-21_01h10.19.687,Info_measure_main_exp,2022.2.2,Win32,144.6549978,,,,,,,,,,,,,,,,,,masks/mask_004.jpg,,,,,,,,,,,,,,,,,,,,,,,,,,,,,,,,,,,,,,,,,,,0,0,0,3,1,,,,,,,,,,,,,,,,,,,,,,,,,,,,,,,,,,,,,,,,,,,,,,
782706,001,2022-11-21_01h10.19.687,Info_measure_main_exp,2022.2.2,Win32,144.6549978,,,,,,,,,,,,,,,,,,masks/mask_003.jpg,,,,,,,,,,,,,,,,,,,,,,,,,,,,,,,,,,,,,,,,,,,0,1,1,2,1,,,,,,,,,,,,,,,,,,,,,,,,,,,,,,,,,,,,,,,,,,,,,,
782706,001,2022-11-21_01h10.19.687,Info_measure_main_exp,2022.2.2,Win32,144.6549978,,,,,,,,,,,,,,,,,,masks/mask_002.jpg,,,,,,,,,,,,,,,,,,,,,,,,,,,,,,,,,,,,,,,,,,,0,2,2,1,1,,,,,,,,,,,,,,,,,,,,,,,,,,,,,,,,,,,,,,,,,,,,,,
782706,001,2022-11-21_01h10.19.687,Info_measure_main_exp,2022.2.2,Win32,144.6549978,,,,,,,,,,,,,,,,,,masks/mask_001.jpg,,,,,,,,,,,,,,,,,,,,,,,,,,,,,,,,,,,,,,,,,,,0,3,3,0,1,,,,,,,,,,,,,,,,,,,,,,,,,,,,,,,,,,,,,,,,,,,,,,
782706,001,2022-11-21_01h10.19.687,Info_measure_main_exp,2022.2.2,Win32,144.6549978,,,,,,,,,,,,,,,,,,masks/mask_005.jpg,,,,,,,,,,,,,,,,,,,,,,,,,,,,,,,,,,,,,,,,,,,0,4,4,4,1,,,,,,,,,,,,,,,,,,,,,,,,,,,,,,,,,,,,,,,,,,,,,,
782706,001,2022-11-21_01h10.19.687,Info_measure_main_exp,2022.2.2,Win32,144.6549978,,,,,,,,,,,,,,,,,,masks/mask_004.jpg,,,,,,,,,,,,,,,,,,,,,,,,,,,,,,,,,,,,,,,,,,,,,,,,0,0,0,3,1,,,,,,,,,,,,,,,,,,,,,,,,,,,,,,,,,,,,,,,,,
782706,001,2022-11-21_01h10.19.687,Info_measure_main_exp,2022.2.2,Win32,144.6549978,,,,,,,,,,,,,,,,,,masks/mask_005.jpg,,,,,,,,,,,,,,,,,,,,,,,,,,,,,,,,,,,,,,,,,,,,,,,,0,1,1,4,1,,,,,,,,,,,,,,,,,,,,,,,,,,,,,,,,,,,,,,,,,
782706,001,2022-11-21_01h10.19.687,Info_measure_main_exp,2022.2.2,Win32,144.6549978,,,,,,,,,,,,,,,,,,masks/mask_003.jpg,,,,,,,,,,,,,,,,,,,,,,,,,,,,,,,,,,,,,,,,,,,,,,,,0,2,2,2,1,,,,,,,,,,,,,,,,,,,,,,,,,,,,,,,,,,,,,,,,,
782706,001,2022-11-21_01h10.19.687,Info_measure_main_exp,2022.2.2,Win32,144.6549978,,,,,,,,,,,,,,,,,,masks/mask_002.jpg,,,,,,,,,,,,,,,,,,,,,,,,,,,,,,,,,,,,,,,,,,,,,,,,0,3,3,1,1,,,,,,,,,,,,,,,,,,,,,,,,,,,,,,,,,,,,,,,,,
782706,001,2022-11-21_01h10.19.687,Info_measure_main_exp,2022.2.2,Win32,144.6549978,,,,,,,,,,,,,,,,,,masks/mask_001.jpg,,,,,,,,,,,,,,,,,,,,,,,,,,,,,,,,,,,,,,,,,,,,,,,,0,4,4,0,1,,,,,,,,,,,,,,,,,,,,,,,,,,,,,,,,,,,,,,,,,
782706,001,2022-11-21_01h10.19.687,Info_measure_main_exp,2022.2.2,Win32,144.6549978,,,,,,,,,,,,,,,,,,,,,,,,,,,,,,7,0.7361,1,,,,,,,,,,,,1,131,5,5,2298,1,absent_patch/patch0002298.jpg,present_patch/cong_131_5_a.jpg,,,,,,,,,,,,,,,,,,,,0.036111111,0.050925926,1,0,0,response1disk,20,0.009259259,-0.009259259,1,0,0,center_square,0,19,19,45,1,,,,,,,,,,,,,,,,,,,,,,,
782706,001,2022-11-21_01h10.19.687,Info_measure_main_exp,2022.2.2,Win32,144.6549978,,,,,,,,,,,,,,,,,,masks/mask_002.jpg,,,,,,,,,,,,,,,,,,,,,,,,,,,,,,,,,,,,,,,,,,,0,0,0,1,1,,,,,,,,,,,,,,,,,,,,,,,,,,,,,,,,,,,,,,,,,,,,,,
782706,001,2022-11-21_01h10.19.687,Info_measure_main_exp,2022.2.2,Win32,144.6549978,,,,,,,,,,,,,,,,,,masks/mask_004.jpg,,,,,,,,,,,,,,,,,,,,,,,,,,,,,,,,,,,,,,,,,,,0,1,1,3,1,,,,,,,,,,,,,,,,,,,,,,,,,,,,,,,,,,,,,,,,,,,,,,
782706,001,2022-11-21_01h10.19.687,Info_measure_main_exp,2022.2.2,Win32,144.6549978,,,,,,,,,,,,,,,,,,masks/mask_001.jpg,,,,,,,,,,,,,,,,,,,,,,,,,,,,,,,,,,,,,,,,,,,0,2,2,0,1,,,,,,,,,,,,,,,,,,,,,,,,,,,,,,,,,,,,,,,,,,,,,,
782706,001,2022-11-21_01h10.19.687,Info_measure_main_exp,2022.2.2,Win32,144.6549978,,,,,,,,,,,,,,,,,,masks/mask_003.jpg,,,,,,,,,,,,,,,,,,,,,,,,,,,,,,,,,,,,,,,,,,,0,3,3,2,1,,,,,,,,,,,,,,,,,,,,,,,,,,,,,,,,,,,,,,,,,,,,,,
782706,001,2022-11-21_01h10.19.687,Info_measure_main_exp,2022.2.2,Win32,144.6549978,,,,,,,,,,,,,,,,,,masks/mask_005.jpg,,,,,,,,,,,,,,,,,,,,,,,,,,,,,,,,,,,,,,,,,,,0,4,4,4,1,,,,,,,,,,,,,,,,,,,,,,,,,,,,,,,,,,,,,,,,,,,,,,
782706,001,2022-11-21_01h10.19.687,Info_measure_main_exp,2022.2.2,Win32,144.6549978,,,,,,,,,,,,,,,,,,masks/mask_003.jpg,,,,,,,,,,,,,,,,,,,,,,,,,,,,,,,,,,,,,,,,,,,,,,,,0,0,0,2,1,,,,,,,,,,,,,,,,,,,,,,,,,,,,,,,,,,,,,,,,,
782706,001,2022-11-21_01h10.19.687,Info_measure_main_exp,2022.2.2,Win32,144.6549978,,,,,,,,,,,,,,,,,,masks/mask_004.jpg,,,,,,,,,,,,,,,,,,,,,,,,,,,,,,,,,,,,,,,,,,,,,,,,0,1,1,3,1,,,,,,,,,,,,,,,,,,,,,,,,,,,,,,,,,,,,,,,,,
782706,001,2022-11-21_01h10.19.687,Info_measure_main_exp,2022.2.2,Win32,144.6549978,,,,,,,,,,,,,,,,,,masks/mask_001.jpg,,,,,,,,,,,,,,,,,,,,,,,,,,,,,,,,,,,,,,,,,,,,,,,,0,2,2,0,1,,,,,,,,,,,,,,,,,,,,,,,,,,,,,,,,,,,,,,,,,
782706,001,2022-11-21_01h10.19.687,Info_measure_main_exp,2022.2.2,Win32,144.6549978,,,,,,,,,,,,,,,,,,masks/mask_002.jpg,,,,,,,,,,,,,,,,,,,,,,,,,,,,,,,,,,,,,,,,,,,,,,,,0,3,3,1,1,,,,,,,,,,,,,,,,,,,,,,,,,,,,,,,,,,,,,,,,,
782706,001,2022-11-21_01h10.19.687,Info_measure_main_exp,2022.2.2,Win32,144.6549978,,,,,,,,,,,,,,,,,,masks/mask_005.jpg,,,,,,,,,,,,,,,,,,,,,,,,,,,,,,,,,,,,,,,,,,,,,,,,0,4,4,4,1,,,,,,,,,,,,,,,,,,,,,,,,,,,,,,,,,,,,,,,,,
782706,001,2022-11-21_01h10.19.687,Info_measure_main_exp,2022.2.2,Win32,144.6549978,,,,,,,,,,,,,,,,,,,,,,,,,,,,,,0,0.5627,1,,,,,,,,,,,,0,131,5,5,2190,2190,absent_patch/patch0002190.jpg,absent_patch/patch0002190.jpg,,,,,,,,,,,,,,,,,,,,-0.051851852,0.085185185,1,0,0,response7disk,21,0.001851852,-0.003703704,1,0,0,center_square,0,20,20,86,1,,,,,,,,,,,,,,,,,,,,,,,
782706,001,2022-11-21_01h10.19.687,Info_measure_main_exp,2022.2.2,Win32,144.6549978,,,,,,,,,,,,,,,,,,masks/mask_003.jpg,,,,,,,,,,,,,,,,,,,,,,,,,,,,,,,,,,,,,,,,,,,0,0,0,2,1,,,,,,,,,,,,,,,,,,,,,,,,,,,,,,,,,,,,,,,,,,,,,,
782706,001,2022-11-21_01h10.19.687,Info_measure_main_exp,2022.2.2,Win32,144.6549978,,,,,,,,,,,,,,,,,,masks/mask_005.jpg,,,,,,,,,,,,,,,,,,,,,,,,,,,,,,,,,,,,,,,,,,,0,1,1,4,1,,,,,,,,,,,,,,,,,,,,,,,,,,,,,,,,,,,,,,,,,,,,,,
782706,001,2022-11-21_01h10.19.687,Info_measure_main_exp,2022.2.2,Win32,144.6549978,,,,,,,,,,,,,,,,,,masks/mask_001.jpg,,,,,,,,,,,,,,,,,,,,,,,,,,,,,,,,,,,,,,,,,,,0,2,2,0,1,,,,,,,,,,,,,,,,,,,,,,,,,,,,,,,,,,,,,,,,,,,,,,
782706,001,2022-11-21_01h10.19.687,Info_measure_main_exp,2022.2.2,Win32,144.6549978,,,,,,,,,,,,,,,,,,masks/mask_002.jpg,,,,,,,,,,,,,,,,,,,,,,,,,,,,,,,,,,,,,,,,,,,0,3,3,1,1,,,,,,,,,,,,,,,,,,,,,,,,,,,,,,,,,,,,,,,,,,,,,,
782706,001,2022-11-21_01h10.19.687,Info_measure_main_exp,2022.2.2,Win32,144.6549978,,,,,,,,,,,,,,,,,,masks/mask_004.jpg,,,,,,,,,,,,,,,,,,,,,,,,,,,,,,,,,,,,,,,,,,,0,4,4,3,1,,,,,,,,,,,,,,,,,,,,,,,,,,,,,,,,,,,,,,,,,,,,,,
782706,001,2022-11-21_01h10.19.687,Info_measure_main_exp,2022.2.2,Win32,144.6549978,,,,,,,,,,,,,,,,,,masks/mask_004.jpg,,,,,,,,,,,,,,,,,,,,,,,,,,,,,,,,,,,,,,,,,,,,,,,,0,0,0,3,1,,,,,,,,,,,,,,,,,,,,,,,,,,,,,,,,,,,,,,,,,
782706,001,2022-11-21_01h10.19.687,Info_measure_main_exp,2022.2.2,Win32,144.6549978,,,,,,,,,,,,,,,,,,masks/mask_003.jpg,,,,,,,,,,,,,,,,,,,,,,,,,,,,,,,,,,,,,,,,,,,,,,,,0,1,1,2,1,,,,,,,,,,,,,,,,,,,,,,,,,,,,,,,,,,,,,,,,,
782706,001,2022-11-21_01h10.19.687,Info_measure_main_exp,2022.2.2,Win32,144.6549978,,,,,,,,,,,,,,,,,,masks/mask_002.jpg,,,,,,,,,,,,,,,,,,,,,,,,,,,,,,,,,,,,,,,,,,,,,,,,0,2,2,1,1,,,,,,,,,,,,,,,,,,,,,,,,,,,,,,,,,,,,,,,,,
782706,001,2022-11-21_01h10.19.687,Info_measure_main_exp,2022.2.2,Win32,144.6549978,,,,,,,,,,,,,,,,,,masks/mask_005.jpg,,,,,,,,,,,,,,,,,,,,,,,,,,,,,,,,,,,,,,,,,,,,,,,,0,3,3,4,1,,,,,,,,,,,,,,,,,,,,,,,,,,,,,,,,,,,,,,,,,
782706,001,2022-11-21_01h10.19.687,Info_measure_main_exp,2022.2.2,Win32,144.6549978,,,,,,,,,,,,,,,,,,masks/mask_001.jpg,,,,,,,,,,,,,,,,,,,,,,,,,,,,,,,,,,,,,,,,,,,,,,,,0,4,4,0,1,,,,,,,,,,,,,,,,,,,,,,,,,,,,,,,,,,,,,,,,,
782706,001,2022-11-21_01h10.19.687,Info_measure_main_exp,2022.2.2,Win32,144.6549978,,,,,,,,,,,,,,,,,,,,,,,,,,,,,,6,1.0972,1,,,,,,,,,,,,0,131,5,5,1950,2142,absent_patch/patch0001950.jpg,absent_patch/patch0002142.jpg,,,,,,,,,,,,,,,,,,,,0.07962963,0.053703704,1,0,0,response1disk,22,0.00462963,-0.00462963,1,0,0,center_square,0,21,21,83,1,,,,,,,,,,,,,,,,,,,,,,,
782706,001,2022-11-21_01h10.19.687,Info_measure_main_exp,2022.2.2,Win32,144.6549978,,,,,,,,,,,,,,,,,,masks/mask_005.jpg,,,,,,,,,,,,,,,,,,,,,,,,,,,,,,,,,,,,,,,,,,,0,0,0,4,1,,,,,,,,,,,,,,,,,,,,,,,,,,,,,,,,,,,,,,,,,,,,,,
782706,001,2022-11-21_01h10.19.687,Info_measure_main_exp,2022.2.2,Win32,144.6549978,,,,,,,,,,,,,,,,,,masks/mask_001.jpg,,,,,,,,,,,,,,,,,,,,,,,,,,,,,,,,,,,,,,,,,,,0,1,1,0,1,,,,,,,,,,,,,,,,,,,,,,,,,,,,,,,,,,,,,,,,,,,,,,
782706,001,2022-11-21_01h10.19.687,Info_measure_main_exp,2022.2.2,Win32,144.6549978,,,,,,,,,,,,,,,,,,masks/mask_003.jpg,,,,,,,,,,,,,,,,,,,,,,,,,,,,,,,,,,,,,,,,,,,0,2,2,2,1,,,,,,,,,,,,,,,,,,,,,,,,,,,,,,,,,,,,,,,,,,,,,,
782706,001,2022-11-21_01h10.19.687,Info_measure_main_exp,2022.2.2,Win32,144.6549978,,,,,,,,,,,,,,,,,,masks/mask_002.jpg,,,,,,,,,,,,,,,,,,,,,,,,,,,,,,,,,,,,,,,,,,,0,3,3,1,1,,,,,,,,,,,,,,,,,,,,,,,,,,,,,,,,,,,,,,,,,,,,,,
782706,001,2022-11-21_01h10.19.687,Info_measure_main_exp,2022.2.2,Win32,144.6549978,,,,,,,,,,,,,,,,,,masks/mask_004.jpg,,,,,,,,,,,,,,,,,,,,,,,,,,,,,,,,,,,,,,,,,,,0,4,4,3,1,,,,,,,,,,,,,,,,,,,,,,,,,,,,,,,,,,,,,,,,,,,,,,
782706,001,2022-11-21_01h10.19.687,Info_measure_main_exp,2022.2.2,Win32,144.6549978,,,,,,,,,,,,,,,,,,masks/mask_004.jpg,,,,,,,,,,,,,,,,,,,,,,,,,,,,,,,,,,,,,,,,,,,,,,,,0,0,0,3,1,,,,,,,,,,,,,,,,,,,,,,,,,,,,,,,,,,,,,,,,,
782706,001,2022-11-21_01h10.19.687,Info_measure_main_exp,2022.2.2,Win32,144.6549978,,,,,,,,,,,,,,,,,,masks/mask_003.jpg,,,,,,,,,,,,,,,,,,,,,,,,,,,,,,,,,,,,,,,,,,,,,,,,0,1,1,2,1,,,,,,,,,,,,,,,,,,,,,,,,,,,,,,,,,,,,,,,,,
782706,001,2022-11-21_01h10.19.687,Info_measure_main_exp,2022.2.2,Win32,144.6549978,,,,,,,,,,,,,,,,,,masks/mask_001.jpg,,,,,,,,,,,,,,,,,,,,,,,,,,,,,,,,,,,,,,,,,,,,,,,,0,2,2,0,1,,,,,,,,,,,,,,,,,,,,,,,,,,,,,,,,,,,,,,,,,
782706,001,2022-11-21_01h10.19.687,Info_measure_main_exp,2022.2.2,Win32,144.6549978,,,,,,,,,,,,,,,,,,masks/mask_002.jpg,,,,,,,,,,,,,,,,,,,,,,,,,,,,,,,,,,,,,,,,,,,,,,,,0,3,3,1,1,,,,,,,,,,,,,,,,,,,,,,,,,,,,,,,,,,,,,,,,,
782706,001,2022-11-21_01h10.19.687,Info_measure_main_exp,2022.2.2,Win32,144.6549978,,,,,,,,,,,,,,,,,,masks/mask_005.jpg,,,,,,,,,,,,,,,,,,,,,,,,,,,,,,,,,,,,,,,,,,,,,,,,0,4,4,4,1,,,,,,,,,,,,,,,,,,,,,,,,,,,,,,,,,,,,,,,,,
782706,001,2022-11-21_01h10.19.687,Info_measure_main_exp,2022.2.2,Win32,144.6549978,,,,,,,,,,,,,,,,,,,,,,,,,,,,,,7,1.0277,1,,,,,,,,,,,,1,131,5,5,1,2214,present_patch/cong_131_5_a.jpg,absent_patch/patch0002214.jpg,,,,,,,,,,,,,,,,,,,,0.040740741,0.078703704,1,0,0,response1disk,23,0.003703704,-0.001851852,1,0,0,center_square,0,22,22,4,1,,,,,,,,,,,,,,,,,,,,,,,
782706,001,2022-11-21_01h10.19.687,Info_measure_main_exp,2022.2.2,Win32,144.6549978,,,,,,,,,,,,,,,,,,masks/mask_001.jpg,,,,,,,,,,,,,,,,,,,,,,,,,,,,,,,,,,,,,,,,,,,0,0,0,0,1,,,,,,,,,,,,,,,,,,,,,,,,,,,,,,,,,,,,,,,,,,,,,,
782706,001,2022-11-21_01h10.19.687,Info_measure_main_exp,2022.2.2,Win32,144.6549978,,,,,,,,,,,,,,,,,,masks/mask_003.jpg,,,,,,,,,,,,,,,,,,,,,,,,,,,,,,,,,,,,,,,,,,,0,1,1,2,1,,,,,,,,,,,,,,,,,,,,,,,,,,,,,,,,,,,,,,,,,,,,,,
782706,001,2022-11-21_01h10.19.687,Info_measure_main_exp,2022.2.2,Win32,144.6549978,,,,,,,,,,,,,,,,,,masks/mask_004.jpg,,,,,,,,,,,,,,,,,,,,,,,,,,,,,,,,,,,,,,,,,,,0,2,2,3,1,,,,,,,,,,,,,,,,,,,,,,,,,,,,,,,,,,,,,,,,,,,,,,
782706,001,2022-11-21_01h10.19.687,Info_measure_main_exp,2022.2.2,Win32,144.6549978,,,,,,,,,,,,,,,,,,masks/mask_002.jpg,,,,,,,,,,,,,,,,,,,,,,,,,,,,,,,,,,,,,,,,,,,0,3,3,1,1,,,,,,,,,,,,,,,,,,,,,,,,,,,,,,,,,,,,,,,,,,,,,,
782706,001,2022-11-21_01h10.19.687,Info_measure_main_exp,2022.2.2,Win32,144.6549978,,,,,,,,,,,,,,,,,,masks/mask_005.jpg,,,,,,,,,,,,,,,,,,,,,,,,,,,,,,,,,,,,,,,,,,,0,4,4,4,1,,,,,,,,,,,,,,,,,,,,,,,,,,,,,,,,,,,,,,,,,,,,,,
782706,001,2022-11-21_01h10.19.687,Info_measure_main_exp,2022.2.2,Win32,144.6549978,,,,,,,,,,,,,,,,,,masks/mask_004.jpg,,,,,,,,,,,,,,,,,,,,,,,,,,,,,,,,,,,,,,,,,,,,,,,,0,0,0,3,1,,,,,,,,,,,,,,,,,,,,,,,,,,,,,,,,,,,,,,,,,
782706,001,2022-11-21_01h10.19.687,Info_measure_main_exp,2022.2.2,Win32,144.6549978,,,,,,,,,,,,,,,,,,masks/mask_001.jpg,,,,,,,,,,,,,,,,,,,,,,,,,,,,,,,,,,,,,,,,,,,,,,,,0,1,1,0,1,,,,,,,,,,,,,,,,,,,,,,,,,,,,,,,,,,,,,,,,,
782706,001,2022-11-21_01h10.19.687,Info_measure_main_exp,2022.2.2,Win32,144.6549978,,,,,,,,,,,,,,,,,,masks/mask_003.jpg,,,,,,,,,,,,,,,,,,,,,,,,,,,,,,,,,,,,,,,,,,,,,,,,0,2,2,2,1,,,,,,,,,,,,,,,,,,,,,,,,,,,,,,,,,,,,,,,,,
782706,001,2022-11-21_01h10.19.687,Info_measure_main_exp,2022.2.2,Win32,144.6549978,,,,,,,,,,,,,,,,,,masks/mask_005.jpg,,,,,,,,,,,,,,,,,,,,,,,,,,,,,,,,,,,,,,,,,,,,,,,,0,3,3,4,1,,,,,,,,,,,,,,,,,,,,,,,,,,,,,,,,,,,,,,,,,
782706,001,2022-11-21_01h10.19.687,Info_measure_main_exp,2022.2.2,Win32,144.6549978,,,,,,,,,,,,,,,,,,masks/mask_002.jpg,,,,,,,,,,,,,,,,,,,,,,,,,,,,,,,,,,,,,,,,,,,,,,,,0,4,4,1,1,,,,,,,,,,,,,,,,,,,,,,,,,,,,,,,,,,,,,,,,,
782706,001,2022-11-21_01h10.19.687,Info_measure_main_exp,2022.2.2,Win32,144.6549978,,,,,,,,,,,,,,,,,,,,,,,,,,,,,,7,0.7362,1,,,,,,,,,,,,0,131,5,5,2166,2298,absent_patch/patch0002166.jpg,absent_patch/patch0002298.jpg,,,,,,,,,,,,,,,,,,,,0.035185185,0.076851852,1,0,0,response1disk,24,-0.00462963,-0.015740741,1,0,0,center_square,0,23,23,52,1,,,,,,,,,,,,,,,,,,,,,,,
782706,001,2022-11-21_01h10.19.687,Info_measure_main_exp,2022.2.2,Win32,144.6549978,,,,,,,,,,,,,,,,,,masks/mask_004.jpg,,,,,,,,,,,,,,,,,,,,,,,,,,,,,,,,,,,,,,,,,,,0,0,0,3,1,,,,,,,,,,,,,,,,,,,,,,,,,,,,,,,,,,,,,,,,,,,,,,
782706,001,2022-11-21_01h10.19.687,Info_measure_main_exp,2022.2.2,Win32,144.6549978,,,,,,,,,,,,,,,,,,masks/mask_002.jpg,,,,,,,,,,,,,,,,,,,,,,,,,,,,,,,,,,,,,,,,,,,0,1,1,1,1,,,,,,,,,,,,,,,,,,,,,,,,,,,,,,,,,,,,,,,,,,,,,,
782706,001,2022-11-21_01h10.19.687,Info_measure_main_exp,2022.2.2,Win32,144.6549978,,,,,,,,,,,,,,,,,,masks/mask_001.jpg,,,,,,,,,,,,,,,,,,,,,,,,,,,,,,,,,,,,,,,,,,,0,2,2,0,1,,,,,,,,,,,,,,,,,,,,,,,,,,,,,,,,,,,,,,,,,,,,,,
782706,001,2022-11-21_01h10.19.687,Info_measure_main_exp,2022.2.2,Win32,144.6549978,,,,,,,,,,,,,,,,,,masks/mask_003.jpg,,,,,,,,,,,,,,,,,,,,,,,,,,,,,,,,,,,,,,,,,,,0,3,3,2,1,,,,,,,,,,,,,,,,,,,,,,,,,,,,,,,,,,,,,,,,,,,,,,
782706,001,2022-11-21_01h10.19.687,Info_measure_main_exp,2022.2.2,Win32,144.6549978,,,,,,,,,,,,,,,,,,masks/mask_005.jpg,,,,,,,,,,,,,,,,,,,,,,,,,,,,,,,,,,,,,,,,,,,0,4,4,4,1,,,,,,,,,,,,,,,,,,,,,,,,,,,,,,,,,,,,,,,,,,,,,,
782706,001,2022-11-21_01h10.19.687,Info_measure_main_exp,2022.2.2,Win32,144.6549978,,,,,,,,,,,,,,,,,,masks/mask_004.jpg,,,,,,,,,,,,,,,,,,,,,,,,,,,,,,,,,,,,,,,,,,,,,,,,0,0,0,3,1,,,,,,,,,,,,,,,,,,,,,,,,,,,,,,,,,,,,,,,,,
782706,001,2022-11-21_01h10.19.687,Info_measure_main_exp,2022.2.2,Win32,144.6549978,,,,,,,,,,,,,,,,,,masks/mask_001.jpg,,,,,,,,,,,,,,,,,,,,,,,,,,,,,,,,,,,,,,,,,,,,,,,,0,1,1,0,1,,,,,,,,,,,,,,,,,,,,,,,,,,,,,,,,,,,,,,,,,
782706,001,2022-11-21_01h10.19.687,Info_measure_main_exp,2022.2.2,Win32,144.6549978,,,,,,,,,,,,,,,,,,masks/mask_005.jpg,,,,,,,,,,,,,,,,,,,,,,,,,,,,,,,,,,,,,,,,,,,,,,,,0,2,2,4,1,,,,,,,,,,,,,,,,,,,,,,,,,,,,,,,,,,,,,,,,,
782706,001,2022-11-21_01h10.19.687,Info_measure_main_exp,2022.2.2,Win32,144.6549978,,,,,,,,,,,,,,,,,,masks/mask_003.jpg,,,,,,,,,,,,,,,,,,,,,,,,,,,,,,,,,,,,,,,,,,,,,,,,0,3,3,2,1,,,,,,,,,,,,,,,,,,,,,,,,,,,,,,,,,,,,,,,,,
782706,001,2022-11-21_01h10.19.687,Info_measure_main_exp,2022.2.2,Win32,144.6549978,,,,,,,,,,,,,,,,,,masks/mask_002.jpg,,,,,,,,,,,,,,,,,,,,,,,,,,,,,,,,,,,,,,,,,,,,,,,,0,4,4,1,1,,,,,,,,,,,,,,,,,,,,,,,,,,,,,,,,,,,,,,,,,
782706,001,2022-11-21_01h10.19.687,Info_measure_main_exp,2022.2.2,Win32,144.6549978,,,,,,,,,,,,,,,,,,,,,,,,,,,,,,7,0.9792,1,,,,,,,,,,,,0,131,5,5,2190,2166,absent_patch/patch0002190.jpg,absent_patch/patch0002166.jpg,,,,,,,,,,,,,,,,,,,,0.02037037,0.066666667,1,0,0,response1disk,25,-0.000925926,-0.010185185,1,0,0,center_square,0,24,24,50,1,,,,,,,,,,,,,,,,,,,,,,,
782706,001,2022-11-21_01h10.19.687,Info_measure_main_exp,2022.2.2,Win32,144.6549978,,,,,,,,,,,,,,,,,,masks/mask_005.jpg,,,,,,,,,,,,,,,,,,,,,,,,,,,,,,,,,,,,,,,,,,,0,0,0,4,1,,,,,,,,,,,,,,,,,,,,,,,,,,,,,,,,,,,,,,,,,,,,,,
782706,001,2022-11-21_01h10.19.687,Info_measure_main_exp,2022.2.2,Win32,144.6549978,,,,,,,,,,,,,,,,,,masks/mask_002.jpg,,,,,,,,,,,,,,,,,,,,,,,,,,,,,,,,,,,,,,,,,,,0,1,1,1,1,,,,,,,,,,,,,,,,,,,,,,,,,,,,,,,,,,,,,,,,,,,,,,
782706,001,2022-11-21_01h10.19.687,Info_measure_main_exp,2022.2.2,Win32,144.6549978,,,,,,,,,,,,,,,,,,masks/mask_003.jpg,,,,,,,,,,,,,,,,,,,,,,,,,,,,,,,,,,,,,,,,,,,0,2,2,2,1,,,,,,,,,,,,,,,,,,,,,,,,,,,,,,,,,,,,,,,,,,,,,,
782706,001,2022-11-21_01h10.19.687,Info_measure_main_exp,2022.2.2,Win32,144.6549978,,,,,,,,,,,,,,,,,,masks/mask_004.jpg,,,,,,,,,,,,,,,,,,,,,,,,,,,,,,,,,,,,,,,,,,,0,3,3,3,1,,,,,,,,,,,,,,,,,,,,,,,,,,,,,,,,,,,,,,,,,,,,,,
782706,001,2022-11-21_01h10.19.687,Info_measure_main_exp,2022.2.2,Win32,144.6549978,,,,,,,,,,,,,,,,,,masks/mask_001.jpg,,,,,,,,,,,,,,,,,,,,,,,,,,,,,,,,,,,,,,,,,,,0,4,4,0,1,,,,,,,,,,,,,,,,,,,,,,,,,,,,,,,,,,,,,,,,,,,,,,
782706,001,2022-11-21_01h10.19.687,Info_measure_main_exp,2022.2.2,Win32,144.6549978,,,,,,,,,,,,,,,,,,masks/mask_001.jpg,,,,,,,,,,,,,,,,,,,,,,,,,,,,,,,,,,,,,,,,,,,,,,,,0,0,0,0,1,,,,,,,,,,,,,,,,,,,,,,,,,,,,,,,,,,,,,,,,,
782706,001,2022-11-21_01h10.19.687,Info_measure_main_exp,2022.2.2,Win32,144.6549978,,,,,,,,,,,,,,,,,,masks/mask_002.jpg,,,,,,,,,,,,,,,,,,,,,,,,,,,,,,,,,,,,,,,,,,,,,,,,0,1,1,1,1,,,,,,,,,,,,,,,,,,,,,,,,,,,,,,,,,,,,,,,,,
782706,001,2022-11-21_01h10.19.687,Info_measure_main_exp,2022.2.2,Win32,144.6549978,,,,,,,,,,,,,,,,,,masks/mask_005.jpg,,,,,,,,,,,,,,,,,,,,,,,,,,,,,,,,,,,,,,,,,,,,,,,,0,2,2,4,1,,,,,,,,,,,,,,,,,,,,,,,,,,,,,,,,,,,,,,,,,
782706,001,2022-11-21_01h10.19.687,Info_measure_main_exp,2022.2.2,Win32,144.6549978,,,,,,,,,,,,,,,,,,masks/mask_003.jpg,,,,,,,,,,,,,,,,,,,,,,,,,,,,,,,,,,,,,,,,,,,,,,,,0,3,3,2,1,,,,,,,,,,,,,,,,,,,,,,,,,,,,,,,,,,,,,,,,,
782706,001,2022-11-21_01h10.19.687,Info_measure_main_exp,2022.2.2,Win32,144.6549978,,,,,,,,,,,,,,,,,,masks/mask_004.jpg,,,,,,,,,,,,,,,,,,,,,,,,,,,,,,,,,,,,,,,,,,,,,,,,0,4,4,3,1,,,,,,,,,,,,,,,,,,,,,,,,,,,,,,,,,,,,,,,,,
782706,001,2022-11-21_01h10.19.687,Info_measure_main_exp,2022.2.2,Win32,144.6549978,,,,,,,,,,,,,,,,,,,,,,,,,,,,,,6,1.0139,1,,,,,,,,,,,,0,131,5,5,1986,2238,absent_patch/patch0001986.jpg,absent_patch/patch0002238.jpg,,,,,,,,,,,,,,,,,,,,0.076851852,0.024074074,1,0,0,response1disk,26,-0.001851852,-0.005555556,1,0,0,center_square,0,25,25,31,1,,,,,,,,,,,,,,,,,,,,,,,
782706,001,2022-11-21_01h10.19.687,Info_measure_main_exp,2022.2.2,Win32,144.6549978,,,,,,,,,,,,,,,,,,masks/mask_002.jpg,,,,,,,,,,,,,,,,,,,,,,,,,,,,,,,,,,,,,,,,,,,0,0,0,1,1,,,,,,,,,,,,,,,,,,,,,,,,,,,,,,,,,,,,,,,,,,,,,,
782706,001,2022-11-21_01h10.19.687,Info_measure_main_exp,2022.2.2,Win32,144.6549978,,,,,,,,,,,,,,,,,,masks/mask_005.jpg,,,,,,,,,,,,,,,,,,,,,,,,,,,,,,,,,,,,,,,,,,,0,1,1,4,1,,,,,,,,,,,,,,,,,,,,,,,,,,,,,,,,,,,,,,,,,,,,,,
782706,001,2022-11-21_01h10.19.687,Info_measure_main_exp,2022.2.2,Win32,144.6549978,,,,,,,,,,,,,,,,,,masks/mask_003.jpg,,,,,,,,,,,,,,,,,,,,,,,,,,,,,,,,,,,,,,,,,,,0,2,2,2,1,,,,,,,,,,,,,,,,,,,,,,,,,,,,,,,,,,,,,,,,,,,,,,
782706,001,2022-11-21_01h10.19.687,Info_measure_main_exp,2022.2.2,Win32,144.6549978,,,,,,,,,,,,,,,,,,masks/mask_001.jpg,,,,,,,,,,,,,,,,,,,,,,,,,,,,,,,,,,,,,,,,,,,0,3,3,0,1,,,,,,,,,,,,,,,,,,,,,,,,,,,,,,,,,,,,,,,,,,,,,,
782706,001,2022-11-21_01h10.19.687,Info_measure_main_exp,2022.2.2,Win32,144.6549978,,,,,,,,,,,,,,,,,,masks/mask_004.jpg,,,,,,,,,,,,,,,,,,,,,,,,,,,,,,,,,,,,,,,,,,,0,4,4,3,1,,,,,,,,,,,,,,,,,,,,,,,,,,,,,,,,,,,,,,,,,,,,,,
782706,001,2022-11-21_01h10.19.687,Info_measure_main_exp,2022.2.2,Win32,144.6549978,,,,,,,,,,,,,,,,,,masks/mask_003.jpg,,,,,,,,,,,,,,,,,,,,,,,,,,,,,,,,,,,,,,,,,,,,,,,,0,0,0,2,1,,,,,,,,,,,,,,,,,,,,,,,,,,,,,,,,,,,,,,,,,
782706,001,2022-11-21_01h10.19.687,Info_measure_main_exp,2022.2.2,Win32,144.6549978,,,,,,,,,,,,,,,,,,masks/mask_001.jpg,,,,,,,,,,,,,,,,,,,,,,,,,,,,,,,,,,,,,,,,,,,,,,,,0,1,1,0,1,,,,,,,,,,,,,,,,,,,,,,,,,,,,,,,,,,,,,,,,,
782706,001,2022-11-21_01h10.19.687,Info_measure_main_exp,2022.2.2,Win32,144.6549978,,,,,,,,,,,,,,,,,,masks/mask_002.jpg,,,,,,,,,,,,,,,,,,,,,,,,,,,,,,,,,,,,,,,,,,,,,,,,0,2,2,1,1,,,,,,,,,,,,,,,,,,,,,,,,,,,,,,,,,,,,,,,,,
782706,001,2022-11-21_01h10.19.687,Info_measure_main_exp,2022.2.2,Win32,144.6549978,,,,,,,,,,,,,,,,,,masks/mask_005.jpg,,,,,,,,,,,,,,,,,,,,,,,,,,,,,,,,,,,,,,,,,,,,,,,,0,3,3,4,1,,,,,,,,,,,,,,,,,,,,,,,,,,,,,,,,,,,,,,,,,
782706,001,2022-11-21_01h10.19.687,Info_measure_main_exp,2022.2.2,Win32,144.6549978,,,,,,,,,,,,,,,,,,masks/mask_004.jpg,,,,,,,,,,,,,,,,,,,,,,,,,,,,,,,,,,,,,,,,,,,,,,,,0,4,4,3,1,,,,,,,,,,,,,,,,,,,,,,,,,,,,,,,,,,,,,,,,,
782706,001,2022-11-21_01h10.19.687,Info_measure_main_exp,2022.2.2,Win32,144.6549978,,,,,,,,,,,,,,,,,,,,,,,,,,,,,,6,0.7221,1,,,,,,,,,,,,0,131,5,5,1974,2142,absent_patch/patch0001974.jpg,absent_patch/patch0002142.jpg,,,,,,,,,,,,,,,,,,,,0.075925926,0.021296296,1,0,0,response1disk,27,-0.006481481,-0.012037037,1,0,0,center_square,0,26,26,38,1,,,,,,,,,,,,,,,,,,,,,,,
782706,001,2022-11-21_01h10.19.687,Info_measure_main_exp,2022.2.2,Win32,144.6549978,,,,,,,,,,,,,,,,,,masks/mask_001.jpg,,,,,,,,,,,,,,,,,,,,,,,,,,,,,,,,,,,,,,,,,,,0,0,0,0,1,,,,,,,,,,,,,,,,,,,,,,,,,,,,,,,,,,,,,,,,,,,,,,
782706,001,2022-11-21_01h10.19.687,Info_measure_main_exp,2022.2.2,Win32,144.6549978,,,,,,,,,,,,,,,,,,masks/mask_004.jpg,,,,,,,,,,,,,,,,,,,,,,,,,,,,,,,,,,,,,,,,,,,0,1,1,3,1,,,,,,,,,,,,,,,,,,,,,,,,,,,,,,,,,,,,,,,,,,,,,,
782706,001,2022-11-21_01h10.19.687,Info_measure_main_exp,2022.2.2,Win32,144.6549978,,,,,,,,,,,,,,,,,,masks/mask_002.jpg,,,,,,,,,,,,,,,,,,,,,,,,,,,,,,,,,,,,,,,,,,,0,2,2,1,1,,,,,,,,,,,,,,,,,,,,,,,,,,,,,,,,,,,,,,,,,,,,,,
782706,001,2022-11-21_01h10.19.687,Info_measure_main_exp,2022.2.2,Win32,144.6549978,,,,,,,,,,,,,,,,,,masks/mask_005.jpg,,,,,,,,,,,,,,,,,,,,,,,,,,,,,,,,,,,,,,,,,,,0,3,3,4,1,,,,,,,,,,,,,,,,,,,,,,,,,,,,,,,,,,,,,,,,,,,,,,
782706,001,2022-11-21_01h10.19.687,Info_measure_main_exp,2022.2.2,Win32,144.6549978,,,,,,,,,,,,,,,,,,masks/mask_003.jpg,,,,,,,,,,,,,,,,,,,,,,,,,,,,,,,,,,,,,,,,,,,0,4,4,2,1,,,,,,,,,,,,,,,,,,,,,,,,,,,,,,,,,,,,,,,,,,,,,,
782706,001,2022-11-21_01h10.19.687,Info_measure_main_exp,2022.2.2,Win32,144.6549978,,,,,,,,,,,,,,,,,,masks/mask_001.jpg,,,,,,,,,,,,,,,,,,,,,,,,,,,,,,,,,,,,,,,,,,,,,,,,0,0,0,0,1,,,,,,,,,,,,,,,,,,,,,,,,,,,,,,,,,,,,,,,,,
782706,001,2022-11-21_01h10.19.687,Info_measure_main_exp,2022.2.2,Win32,144.6549978,,,,,,,,,,,,,,,,,,masks/mask_004.jpg,,,,,,,,,,,,,,,,,,,,,,,,,,,,,,,,,,,,,,,,,,,,,,,,0,1,1,3,1,,,,,,,,,,,,,,,,,,,,,,,,,,,,,,,,,,,,,,,,,
782706,001,2022-11-21_01h10.19.687,Info_measure_main_exp,2022.2.2,Win32,144.6549978,,,,,,,,,,,,,,,,,,masks/mask_005.jpg,,,,,,,,,,,,,,,,,,,,,,,,,,,,,,,,,,,,,,,,,,,,,,,,0,2,2,4,1,,,,,,,,,,,,,,,,,,,,,,,,,,,,,,,,,,,,,,,,,
782706,001,2022-11-21_01h10.19.687,Info_measure_main_exp,2022.2.2,Win32,144.6549978,,,,,,,,,,,,,,,,,,masks/mask_002.jpg,,,,,,,,,,,,,,,,,,,,,,,,,,,,,,,,,,,,,,,,,,,,,,,,0,3,3,1,1,,,,,,,,,,,,,,,,,,,,,,,,,,,,,,,,,,,,,,,,,
782706,001,2022-11-21_01h10.19.687,Info_measure_main_exp,2022.2.2,Win32,144.6549978,,,,,,,,,,,,,,,,,,masks/mask_003.jpg,,,,,,,,,,,,,,,,,,,,,,,,,,,,,,,,,,,,,,,,,,,,,,,,0,4,4,2,1,,,,,,,,,,,,,,,,,,,,,,,,,,,,,,,,,,,,,,,,,
782706,001,2022-11-21_01h10.19.687,Info_measure_main_exp,2022.2.2,Win32,144.6549978,,,,,,,,,,,,,,,,,,,,,,,,,,,,,,7,1.2566,1,,,,,,,,,,,,0,131,5,5,2190,1974,absent_patch/patch0002190.jpg,absent_patch/patch0001974.jpg,,,,,,,,,,,,,,,,,,,,0.025,0.077777778,1,0,0,response1disk,28,0.009259259,0.000925926,1,0,0,center_square,0,27,27,119,1,,,,,,,,,,,,,,,,,,,,,,,
782706,001,2022-11-21_01h10.19.687,Info_measure_main_exp,2022.2.2,Win32,144.6549978,,,,,,,,,,,,,,,,,,masks/mask_001.jpg,,,,,,,,,,,,,,,,,,,,,,,,,,,,,,,,,,,,,,,,,,,0,0,0,0,1,,,,,,,,,,,,,,,,,,,,,,,,,,,,,,,,,,,,,,,,,,,,,,
782706,001,2022-11-21_01h10.19.687,Info_measure_main_exp,2022.2.2,Win32,144.6549978,,,,,,,,,,,,,,,,,,masks/mask_003.jpg,,,,,,,,,,,,,,,,,,,,,,,,,,,,,,,,,,,,,,,,,,,0,1,1,2,1,,,,,,,,,,,,,,,,,,,,,,,,,,,,,,,,,,,,,,,,,,,,,,
782706,001,2022-11-21_01h10.19.687,Info_measure_main_exp,2022.2.2,Win32,144.6549978,,,,,,,,,,,,,,,,,,masks/mask_002.jpg,,,,,,,,,,,,,,,,,,,,,,,,,,,,,,,,,,,,,,,,,,,0,2,2,1,1,,,,,,,,,,,,,,,,,,,,,,,,,,,,,,,,,,,,,,,,,,,,,,
782706,001,2022-11-21_01h10.19.687,Info_measure_main_exp,2022.2.2,Win32,144.6549978,,,,,,,,,,,,,,,,,,masks/mask_004.jpg,,,,,,,,,,,,,,,,,,,,,,,,,,,,,,,,,,,,,,,,,,,0,3,3,3,1,,,,,,,,,,,,,,,,,,,,,,,,,,,,,,,,,,,,,,,,,,,,,,
782706,001,2022-11-21_01h10.19.687,Info_measure_main_exp,2022.2.2,Win32,144.6549978,,,,,,,,,,,,,,,,,,masks/mask_005.jpg,,,,,,,,,,,,,,,,,,,,,,,,,,,,,,,,,,,,,,,,,,,0,4,4,4,1,,,,,,,,,,,,,,,,,,,,,,,,,,,,,,,,,,,,,,,,,,,,,,
782706,001,2022-11-21_01h10.19.687,Info_measure_main_exp,2022.2.2,Win32,144.6549978,,,,,,,,,,,,,,,,,,masks/mask_002.jpg,,,,,,,,,,,,,,,,,,,,,,,,,,,,,,,,,,,,,,,,,,,,,,,,0,0,0,1,1,,,,,,,,,,,,,,,,,,,,,,,,,,,,,,,,,,,,,,,,,
782706,001,2022-11-21_01h10.19.687,Info_measure_main_exp,2022.2.2,Win32,144.6549978,,,,,,,,,,,,,,,,,,masks/mask_003.jpg,,,,,,,,,,,,,,,,,,,,,,,,,,,,,,,,,,,,,,,,,,,,,,,,0,1,1,2,1,,,,,,,,,,,,,,,,,,,,,,,,,,,,,,,,,,,,,,,,,
782706,001,2022-11-21_01h10.19.687,Info_measure_main_exp,2022.2.2,Win32,144.6549978,,,,,,,,,,,,,,,,,,masks/mask_004.jpg,,,,,,,,,,,,,,,,,,,,,,,,,,,,,,,,,,,,,,,,,,,,,,,,0,2,2,3,1,,,,,,,,,,,,,,,,,,,,,,,,,,,,,,,,,,,,,,,,,
782706,001,2022-11-21_01h10.19.687,Info_measure_main_exp,2022.2.2,Win32,144.6549978,,,,,,,,,,,,,,,,,,masks/mask_001.jpg,,,,,,,,,,,,,,,,,,,,,,,,,,,,,,,,,,,,,,,,,,,,,,,,0,3,3,0,1,,,,,,,,,,,,,,,,,,,,,,,,,,,,,,,,,,,,,,,,,
782706,001,2022-11-21_01h10.19.687,Info_measure_main_exp,2022.2.2,Win32,144.6549978,,,,,,,,,,,,,,,,,,masks/mask_005.jpg,,,,,,,,,,,,,,,,,,,,,,,,,,,,,,,,,,,,,,,,,,,,,,,,0,4,4,4,1,,,,,,,,,,,,,,,,,,,,,,,,,,,,,,,,,,,,,,,,,
782706,001,2022-11-21_01h10.19.687,Info_measure_main_exp,2022.2.2,Win32,144.6549978,,,,,,,,,,,,,,,,,,,,,,,,,,,,,,5,1.2292,1,,,,,,,,,,,,0,131,5,5,2274,2250,absent_patch/patch0002274.jpg,absent_patch/patch0002250.jpg,,,,,,,,,,,,,,,,,,,,0.078703704,-0.027777778,1,0,0,response3disk,29,-0.013888889,0.010185185,1,0,0,center_square,0,28,28,28,1,,,,,,,,,,,,,,,,,,,,,,,
782706,001,2022-11-21_01h10.19.687,Info_measure_main_exp,2022.2.2,Win32,144.6549978,,,,,,,,,,,,,,,,,,masks/mask_005.jpg,,,,,,,,,,,,,,,,,,,,,,,,,,,,,,,,,,,,,,,,,,,0,0,0,4,1,,,,,,,,,,,,,,,,,,,,,,,,,,,,,,,,,,,,,,,,,,,,,,
782706,001,2022-11-21_01h10.19.687,Info_measure_main_exp,2022.2.2,Win32,144.6549978,,,,,,,,,,,,,,,,,,masks/mask_004.jpg,,,,,,,,,,,,,,,,,,,,,,,,,,,,,,,,,,,,,,,,,,,0,1,1,3,1,,,,,,,,,,,,,,,,,,,,,,,,,,,,,,,,,,,,,,,,,,,,,,
782706,001,2022-11-21_01h10.19.687,Info_measure_main_exp,2022.2.2,Win32,144.6549978,,,,,,,,,,,,,,,,,,masks/mask_003.jpg,,,,,,,,,,,,,,,,,,,,,,,,,,,,,,,,,,,,,,,,,,,0,2,2,2,1,,,,,,,,,,,,,,,,,,,,,,,,,,,,,,,,,,,,,,,,,,,,,,
782706,001,2022-11-21_01h10.19.687,Info_measure_main_exp,2022.2.2,Win32,144.6549978,,,,,,,,,,,,,,,,,,masks/mask_001.jpg,,,,,,,,,,,,,,,,,,,,,,,,,,,,,,,,,,,,,,,,,,,0,3,3,0,1,,,,,,,,,,,,,,,,,,,,,,,,,,,,,,,,,,,,,,,,,,,,,,
782706,001,2022-11-21_01h10.19.687,Info_measure_main_exp,2022.2.2,Win32,144.6549978,,,,,,,,,,,,,,,,,,masks/mask_002.jpg,,,,,,,,,,,,,,,,,,,,,,,,,,,,,,,,,,,,,,,,,,,0,4,4,1,1,,,,,,,,,,,,,,,,,,,,,,,,,,,,,,,,,,,,,,,,,,,,,,
782706,001,2022-11-21_01h10.19.687,Info_measure_main_exp,2022.2.2,Win32,144.6549978,,,,,,,,,,,,,,,,,,masks/mask_004.jpg,,,,,,,,,,,,,,,,,,,,,,,,,,,,,,,,,,,,,,,,,,,,,,,,0,0,0,3,1,,,,,,,,,,,,,,,,,,,,,,,,,,,,,,,,,,,,,,,,,
782706,001,2022-11-21_01h10.19.687,Info_measure_main_exp,2022.2.2,Win32,144.6549978,,,,,,,,,,,,,,,,,,masks/mask_005.jpg,,,,,,,,,,,,,,,,,,,,,,,,,,,,,,,,,,,,,,,,,,,,,,,,0,1,1,4,1,,,,,,,,,,,,,,,,,,,,,,,,,,,,,,,,,,,,,,,,,
782706,001,2022-11-21_01h10.19.687,Info_measure_main_exp,2022.2.2,Win32,144.6549978,,,,,,,,,,,,,,,,,,masks/mask_001.jpg,,,,,,,,,,,,,,,,,,,,,,,,,,,,,,,,,,,,,,,,,,,,,,,,0,2,2,0,1,,,,,,,,,,,,,,,,,,,,,,,,,,,,,,,,,,,,,,,,,
782706,001,2022-11-21_01h10.19.687,Info_measure_main_exp,2022.2.2,Win32,144.6549978,,,,,,,,,,,,,,,,,,masks/mask_003.jpg,,,,,,,,,,,,,,,,,,,,,,,,,,,,,,,,,,,,,,,,,,,,,,,,0,3,3,2,1,,,,,,,,,,,,,,,,,,,,,,,,,,,,,,,,,,,,,,,,,
782706,001,2022-11-21_01h10.19.687,Info_measure_main_exp,2022.2.2,Win32,144.6549978,,,,,,,,,,,,,,,,,,masks/mask_002.jpg,,,,,,,,,,,,,,,,,,,,,,,,,,,,,,,,,,,,,,,,,,,,,,,,0,4,4,1,1,,,,,,,,,,,,,,,,,,,,,,,,,,,,,,,,,,,,,,,,,
782706,001,2022-11-21_01h10.19.687,Info_measure_main_exp,2022.2.2,Win32,144.6549978,,,,,,,,,,,,,,,,,,,,,,,,,,,,,,7,0.6254,1,,,,,,,,,,,,0,131,5,5,2142,2166,absent_patch/patch0002142.jpg,absent_patch/patch0002166.jpg,,,,,,,,,,,,,,,,,,,,0.036111111,0.085185185,1,0,0,response1disk,30,-0.001851852,0.008333333,1,0,0,center_square,0,29,29,66,1,,,,,,,,,,,,,,,,,,,,,,,
782706,001,2022-11-21_01h10.19.687,Info_measure_main_exp,2022.2.2,Win32,144.6549978,,,,,,,,,,,,,,,,,,masks/mask_004.jpg,,,,,,,,,,,,,,,,,,,,,,,,,,,,,,,,,,,,,,,,,,,0,0,0,3,1,,,,,,,,,,,,,,,,,,,,,,,,,,,,,,,,,,,,,,,,,,,,,,
782706,001,2022-11-21_01h10.19.687,Info_measure_main_exp,2022.2.2,Win32,144.6549978,,,,,,,,,,,,,,,,,,masks/mask_003.jpg,,,,,,,,,,,,,,,,,,,,,,,,,,,,,,,,,,,,,,,,,,,0,1,1,2,1,,,,,,,,,,,,,,,,,,,,,,,,,,,,,,,,,,,,,,,,,,,,,,
782706,001,2022-11-21_01h10.19.687,Info_measure_main_exp,2022.2.2,Win32,144.6549978,,,,,,,,,,,,,,,,,,masks/mask_001.jpg,,,,,,,,,,,,,,,,,,,,,,,,,,,,,,,,,,,,,,,,,,,0,2,2,0,1,,,,,,,,,,,,,,,,,,,,,,,,,,,,,,,,,,,,,,,,,,,,,,
782706,001,2022-11-21_01h10.19.687,Info_measure_main_exp,2022.2.2,Win32,144.6549978,,,,,,,,,,,,,,,,,,masks/mask_005.jpg,,,,,,,,,,,,,,,,,,,,,,,,,,,,,,,,,,,,,,,,,,,0,3,3,4,1,,,,,,,,,,,,,,,,,,,,,,,,,,,,,,,,,,,,,,,,,,,,,,
782706,001,2022-11-21_01h10.19.687,Info_measure_main_exp,2022.2.2,Win32,144.6549978,,,,,,,,,,,,,,,,,,masks/mask_002.jpg,,,,,,,,,,,,,,,,,,,,,,,,,,,,,,,,,,,,,,,,,,,0,4,4,1,1,,,,,,,,,,,,,,,,,,,,,,,,,,,,,,,,,,,,,,,,,,,,,,
782706,001,2022-11-21_01h10.19.687,Info_measure_main_exp,2022.2.2,Win32,144.6549978,,,,,,,,,,,,,,,,,,masks/mask_001.jpg,,,,,,,,,,,,,,,,,,,,,,,,,,,,,,,,,,,,,,,,,,,,,,,,0,0,0,0,1,,,,,,,,,,,,,,,,,,,,,,,,,,,,,,,,,,,,,,,,,
782706,001,2022-11-21_01h10.19.687,Info_measure_main_exp,2022.2.2,Win32,144.6549978,,,,,,,,,,,,,,,,,,masks/mask_005.jpg,,,,,,,,,,,,,,,,,,,,,,,,,,,,,,,,,,,,,,,,,,,,,,,,0,1,1,4,1,,,,,,,,,,,,,,,,,,,,,,,,,,,,,,,,,,,,,,,,,
782706,001,2022-11-21_01h10.19.687,Info_measure_main_exp,2022.2.2,Win32,144.6549978,,,,,,,,,,,,,,,,,,masks/mask_004.jpg,,,,,,,,,,,,,,,,,,,,,,,,,,,,,,,,,,,,,,,,,,,,,,,,0,2,2,3,1,,,,,,,,,,,,,,,,,,,,,,,,,,,,,,,,,,,,,,,,,
782706,001,2022-11-21_01h10.19.687,Info_measure_main_exp,2022.2.2,Win32,144.6549978,,,,,,,,,,,,,,,,,,masks/mask_002.jpg,,,,,,,,,,,,,,,,,,,,,,,,,,,,,,,,,,,,,,,,,,,,,,,,0,3,3,1,1,,,,,,,,,,,,,,,,,,,,,,,,,,,,,,,,,,,,,,,,,
782706,001,2022-11-21_01h10.19.687,Info_measure_main_exp,2022.2.2,Win32,144.6549978,,,,,,,,,,,,,,,,,,masks/mask_003.jpg,,,,,,,,,,,,,,,,,,,,,,,,,,,,,,,,,,,,,,,,,,,,,,,,0,4,4,2,1,,,,,,,,,,,,,,,,,,,,,,,,,,,,,,,,,,,,,,,,,
782706,001,2022-11-21_01h10.19.687,Info_measure_main_exp,2022.2.2,Win32,144.6549978,,,,,,,,,,,,,,,,,,,,,,,,,,,,,,7,0.4518,1,,,,,,,,,,,,0,131,5,5,1950,2298,absent_patch/patch0001950.jpg,absent_patch/patch0002298.jpg,,,,,,,,,,,,,,,,,,,,0.021296296,0.058333333,1,0,0,response1disk,31,0.000925926,-0.006481481,1,0,0,center_square,0,30,30,18,1,,,,,,,,,,,,,,,,,,,,,,,
782706,001,2022-11-21_01h10.19.687,Info_measure_main_exp,2022.2.2,Win32,144.6549978,,,,,,,,,,,,,,,,,,masks/mask_002.jpg,,,,,,,,,,,,,,,,,,,,,,,,,,,,,,,,,,,,,,,,,,,0,0,0,1,1,,,,,,,,,,,,,,,,,,,,,,,,,,,,,,,,,,,,,,,,,,,,,,
782706,001,2022-11-21_01h10.19.687,Info_measure_main_exp,2022.2.2,Win32,144.6549978,,,,,,,,,,,,,,,,,,masks/mask_005.jpg,,,,,,,,,,,,,,,,,,,,,,,,,,,,,,,,,,,,,,,,,,,0,1,1,4,1,,,,,,,,,,,,,,,,,,,,,,,,,,,,,,,,,,,,,,,,,,,,,,
782706,001,2022-11-21_01h10.19.687,Info_measure_main_exp,2022.2.2,Win32,144.6549978,,,,,,,,,,,,,,,,,,masks/mask_003.jpg,,,,,,,,,,,,,,,,,,,,,,,,,,,,,,,,,,,,,,,,,,,0,2,2,2,1,,,,,,,,,,,,,,,,,,,,,,,,,,,,,,,,,,,,,,,,,,,,,,
782706,001,2022-11-21_01h10.19.687,Info_measure_main_exp,2022.2.2,Win32,144.6549978,,,,,,,,,,,,,,,,,,masks/mask_004.jpg,,,,,,,,,,,,,,,,,,,,,,,,,,,,,,,,,,,,,,,,,,,0,3,3,3,1,,,,,,,,,,,,,,,,,,,,,,,,,,,,,,,,,,,,,,,,,,,,,,
782706,001,2022-11-21_01h10.19.687,Info_measure_main_exp,2022.2.2,Win32,144.6549978,,,,,,,,,,,,,,,,,,masks/mask_001.jpg,,,,,,,,,,,,,,,,,,,,,,,,,,,,,,,,,,,,,,,,,,,0,4,4,0,1,,,,,,,,,,,,,,,,,,,,,,,,,,,,,,,,,,,,,,,,,,,,,,
782706,001,2022-11-21_01h10.19.687,Info_measure_main_exp,2022.2.2,Win32,144.6549978,,,,,,,,,,,,,,,,,,masks/mask_003.jpg,,,,,,,,,,,,,,,,,,,,,,,,,,,,,,,,,,,,,,,,,,,,,,,,0,0,0,2,1,,,,,,,,,,,,,,,,,,,,,,,,,,,,,,,,,,,,,,,,,
782706,001,2022-11-21_01h10.19.687,Info_measure_main_exp,2022.2.2,Win32,144.6549978,,,,,,,,,,,,,,,,,,masks/mask_005.jpg,,,,,,,,,,,,,,,,,,,,,,,,,,,,,,,,,,,,,,,,,,,,,,,,0,1,1,4,1,,,,,,,,,,,,,,,,,,,,,,,,,,,,,,,,,,,,,,,,,
782706,001,2022-11-21_01h10.19.687,Info_measure_main_exp,2022.2.2,Win32,144.6549978,,,,,,,,,,,,,,,,,,masks/mask_001.jpg,,,,,,,,,,,,,,,,,,,,,,,,,,,,,,,,,,,,,,,,,,,,,,,,0,2,2,0,1,,,,,,,,,,,,,,,,,,,,,,,,,,,,,,,,,,,,,,,,,
782706,001,2022-11-21_01h10.19.687,Info_measure_main_exp,2022.2.2,Win32,144.6549978,,,,,,,,,,,,,,,,,,masks/mask_002.jpg,,,,,,,,,,,,,,,,,,,,,,,,,,,,,,,,,,,,,,,,,,,,,,,,0,3,3,1,1,,,,,,,,,,,,,,,,,,,,,,,,,,,,,,,,,,,,,,,,,
782706,001,2022-11-21_01h10.19.687,Info_measure_main_exp,2022.2.2,Win32,144.6549978,,,,,,,,,,,,,,,,,,masks/mask_004.jpg,,,,,,,,,,,,,,,,,,,,,,,,,,,,,,,,,,,,,,,,,,,,,,,,0,4,4,3,1,,,,,,,,,,,,,,,,,,,,,,,,,,,,,,,,,,,,,,,,,
782706,001,2022-11-21_01h10.19.687,Info_measure_main_exp,2022.2.2,Win32,144.6549978,,,,,,,,,,,,,,,,,,,,,,,,,,,,,,7,0.9444,1,,,,,,,,,,,,1,131,5,5,1,2142,present_patch/cong_131_5_a.jpg,absent_patch/patch0002142.jpg,,,,,,,,,,,,,,,,,,,,0.037962963,0.064814815,1,0,0,response1disk,32,0.012962963,-0.011111111,1,0,0,center_square,0,31,31,80,1,,,,,,,,,,,,,,,,,,,,,,,
782706,001,2022-11-21_01h10.19.687,Info_measure_main_exp,2022.2.2,Win32,144.6549978,,,,,,,,,,,,,,,,,,masks/mask_004.jpg,,,,,,,,,,,,,,,,,,,,,,,,,,,,,,,,,,,,,,,,,,,0,0,0,3,1,,,,,,,,,,,,,,,,,,,,,,,,,,,,,,,,,,,,,,,,,,,,,,
782706,001,2022-11-21_01h10.19.687,Info_measure_main_exp,2022.2.2,Win32,144.6549978,,,,,,,,,,,,,,,,,,masks/mask_005.jpg,,,,,,,,,,,,,,,,,,,,,,,,,,,,,,,,,,,,,,,,,,,0,1,1,4,1,,,,,,,,,,,,,,,,,,,,,,,,,,,,,,,,,,,,,,,,,,,,,,
782706,001,2022-11-21_01h10.19.687,Info_measure_main_exp,2022.2.2,Win32,144.6549978,,,,,,,,,,,,,,,,,,masks/mask_003.jpg,,,,,,,,,,,,,,,,,,,,,,,,,,,,,,,,,,,,,,,,,,,0,2,2,2,1,,,,,,,,,,,,,,,,,,,,,,,,,,,,,,,,,,,,,,,,,,,,,,
782706,001,2022-11-21_01h10.19.687,Info_measure_main_exp,2022.2.2,Win32,144.6549978,,,,,,,,,,,,,,,,,,masks/mask_001.jpg,,,,,,,,,,,,,,,,,,,,,,,,,,,,,,,,,,,,,,,,,,,0,3,3,0,1,,,,,,,,,,,,,,,,,,,,,,,,,,,,,,,,,,,,,,,,,,,,,,
782706,001,2022-11-21_01h10.19.687,Info_measure_main_exp,2022.2.2,Win32,144.6549978,,,,,,,,,,,,,,,,,,masks/mask_002.jpg,,,,,,,,,,,,,,,,,,,,,,,,,,,,,,,,,,,,,,,,,,,0,4,4,1,1,,,,,,,,,,,,,,,,,,,,,,,,,,,,,,,,,,,,,,,,,,,,,,
782706,001,2022-11-21_01h10.19.687,Info_measure_main_exp,2022.2.2,Win32,144.6549978,,,,,,,,,,,,,,,,,,masks/mask_005.jpg,,,,,,,,,,,,,,,,,,,,,,,,,,,,,,,,,,,,,,,,,,,,,,,,0,0,0,4,1,,,,,,,,,,,,,,,,,,,,,,,,,,,,,,,,,,,,,,,,,
782706,001,2022-11-21_01h10.19.687,Info_measure_main_exp,2022.2.2,Win32,144.6549978,,,,,,,,,,,,,,,,,,masks/mask_002.jpg,,,,,,,,,,,,,,,,,,,,,,,,,,,,,,,,,,,,,,,,,,,,,,,,0,1,1,1,1,,,,,,,,,,,,,,,,,,,,,,,,,,,,,,,,,,,,,,,,,
782706,001,2022-11-21_01h10.19.687,Info_measure_main_exp,2022.2.2,Win32,144.6549978,,,,,,,,,,,,,,,,,,masks/mask_003.jpg,,,,,,,,,,,,,,,,,,,,,,,,,,,,,,,,,,,,,,,,,,,,,,,,0,2,2,2,1,,,,,,,,,,,,,,,,,,,,,,,,,,,,,,,,,,,,,,,,,
782706,001,2022-11-21_01h10.19.687,Info_measure_main_exp,2022.2.2,Win32,144.6549978,,,,,,,,,,,,,,,,,,masks/mask_004.jpg,,,,,,,,,,,,,,,,,,,,,,,,,,,,,,,,,,,,,,,,,,,,,,,,0,3,3,3,1,,,,,,,,,,,,,,,,,,,,,,,,,,,,,,,,,,,,,,,,,
782706,001,2022-11-21_01h10.19.687,Info_measure_main_exp,2022.2.2,Win32,144.6549978,,,,,,,,,,,,,,,,,,masks/mask_001.jpg,,,,,,,,,,,,,,,,,,,,,,,,,,,,,,,,,,,,,,,,,,,,,,,,0,4,4,0,1,,,,,,,,,,,,,,,,,,,,,,,,,,,,,,,,,,,,,,,,,
782706,001,2022-11-21_01h10.19.687,Info_measure_main_exp,2022.2.2,Win32,144.6549978,,,,,,,,,,,,,,,,,,,,,,,,,,,,,,6,0.5625,1,,,,,,,,,,,,0,131,5,5,2178,2166,absent_patch/patch0002178.jpg,absent_patch/patch0002166.jpg,,,,,,,,,,,,,,,,,,,,0.12037037,0.034259259,1,0,0,response1disk,33,0.002777778,0,1,0,0,center_square,0,32,32,72,1,,,,,,,,,,,,,,,,,,,,,,,
782706,001,2022-11-21_01h10.19.687,Info_measure_main_exp,2022.2.2,Win32,144.6549978,,,,,,,,,,,,,,,,,,masks/mask_003.jpg,,,,,,,,,,,,,,,,,,,,,,,,,,,,,,,,,,,,,,,,,,,0,0,0,2,1,,,,,,,,,,,,,,,,,,,,,,,,,,,,,,,,,,,,,,,,,,,,,,
782706,001,2022-11-21_01h10.19.687,Info_measure_main_exp,2022.2.2,Win32,144.6549978,,,,,,,,,,,,,,,,,,masks/mask_005.jpg,,,,,,,,,,,,,,,,,,,,,,,,,,,,,,,,,,,,,,,,,,,0,1,1,4,1,,,,,,,,,,,,,,,,,,,,,,,,,,,,,,,,,,,,,,,,,,,,,,
782706,001,2022-11-21_01h10.19.687,Info_measure_main_exp,2022.2.2,Win32,144.6549978,,,,,,,,,,,,,,,,,,masks/mask_001.jpg,,,,,,,,,,,,,,,,,,,,,,,,,,,,,,,,,,,,,,,,,,,0,2,2,0,1,,,,,,,,,,,,,,,,,,,,,,,,,,,,,,,,,,,,,,,,,,,,,,
782706,001,2022-11-21_01h10.19.687,Info_measure_main_exp,2022.2.2,Win32,144.6549978,,,,,,,,,,,,,,,,,,masks/mask_002.jpg,,,,,,,,,,,,,,,,,,,,,,,,,,,,,,,,,,,,,,,,,,,0,3,3,1,1,,,,,,,,,,,,,,,,,,,,,,,,,,,,,,,,,,,,,,,,,,,,,,
782706,001,2022-11-21_01h10.19.687,Info_measure_main_exp,2022.2.2,Win32,144.6549978,,,,,,,,,,,,,,,,,,masks/mask_004.jpg,,,,,,,,,,,,,,,,,,,,,,,,,,,,,,,,,,,,,,,,,,,0,4,4,3,1,,,,,,,,,,,,,,,,,,,,,,,,,,,,,,,,,,,,,,,,,,,,,,
782706,001,2022-11-21_01h10.19.687,Info_measure_main_exp,2022.2.2,Win32,144.6549978,,,,,,,,,,,,,,,,,,masks/mask_003.jpg,,,,,,,,,,,,,,,,,,,,,,,,,,,,,,,,,,,,,,,,,,,,,,,,0,0,0,2,1,,,,,,,,,,,,,,,,,,,,,,,,,,,,,,,,,,,,,,,,,
782706,001,2022-11-21_01h10.19.687,Info_measure_main_exp,2022.2.2,Win32,144.6549978,,,,,,,,,,,,,,,,,,masks/mask_001.jpg,,,,,,,,,,,,,,,,,,,,,,,,,,,,,,,,,,,,,,,,,,,,,,,,0,1,1,0,1,,,,,,,,,,,,,,,,,,,,,,,,,,,,,,,,,,,,,,,,,
782706,001,2022-11-21_01h10.19.687,Info_measure_main_exp,2022.2.2,Win32,144.6549978,,,,,,,,,,,,,,,,,,masks/mask_004.jpg,,,,,,,,,,,,,,,,,,,,,,,,,,,,,,,,,,,,,,,,,,,,,,,,0,2,2,3,1,,,,,,,,,,,,,,,,,,,,,,,,,,,,,,,,,,,,,,,,,
782706,001,2022-11-21_01h10.19.687,Info_measure_main_exp,2022.2.2,Win32,144.6549978,,,,,,,,,,,,,,,,,,masks/mask_002.jpg,,,,,,,,,,,,,,,,,,,,,,,,,,,,,,,,,,,,,,,,,,,,,,,,0,3,3,1,1,,,,,,,,,,,,,,,,,,,,,,,,,,,,,,,,,,,,,,,,,
782706,001,2022-11-21_01h10.19.687,Info_measure_main_exp,2022.2.2,Win32,144.6549978,,,,,,,,,,,,,,,,,,masks/mask_005.jpg,,,,,,,,,,,,,,,,,,,,,,,,,,,,,,,,,,,,,,,,,,,,,,,,0,4,4,4,1,,,,,,,,,,,,,,,,,,,,,,,,,,,,,,,,,,,,,,,,,
782706,001,2022-11-21_01h10.19.687,Info_measure_main_exp,2022.2.2,Win32,144.6549978,,,,,,,,,,,,,,,,,,,,,,,,,,,,,,7,0.9086,1,,,,,,,,,,,,0,131,5,5,1974,2250,absent_patch/patch0001974.jpg,absent_patch/patch0002250.jpg,,,,,,,,,,,,,,,,,,,,0.02037037,0.076851852,1,0,0,response1disk,34,0.002777778,0.002777778,1,0,0,center_square,0,33,33,55,1,,,,,,,,,,,,,,,,,,,,,,,
782706,001,2022-11-21_01h10.19.687,Info_measure_main_exp,2022.2.2,Win32,144.6549978,,,,,,,,,,,,,,,,,,masks/mask_004.jpg,,,,,,,,,,,,,,,,,,,,,,,,,,,,,,,,,,,,,,,,,,,0,0,0,3,1,,,,,,,,,,,,,,,,,,,,,,,,,,,,,,,,,,,,,,,,,,,,,,
782706,001,2022-11-21_01h10.19.687,Info_measure_main_exp,2022.2.2,Win32,144.6549978,,,,,,,,,,,,,,,,,,masks/mask_002.jpg,,,,,,,,,,,,,,,,,,,,,,,,,,,,,,,,,,,,,,,,,,,0,1,1,1,1,,,,,,,,,,,,,,,,,,,,,,,,,,,,,,,,,,,,,,,,,,,,,,
782706,001,2022-11-21_01h10.19.687,Info_measure_main_exp,2022.2.2,Win32,144.6549978,,,,,,,,,,,,,,,,,,masks/mask_001.jpg,,,,,,,,,,,,,,,,,,,,,,,,,,,,,,,,,,,,,,,,,,,0,2,2,0,1,,,,,,,,,,,,,,,,,,,,,,,,,,,,,,,,,,,,,,,,,,,,,,
782706,001,2022-11-21_01h10.19.687,Info_measure_main_exp,2022.2.2,Win32,144.6549978,,,,,,,,,,,,,,,,,,masks/mask_005.jpg,,,,,,,,,,,,,,,,,,,,,,,,,,,,,,,,,,,,,,,,,,,0,3,3,4,1,,,,,,,,,,,,,,,,,,,,,,,,,,,,,,,,,,,,,,,,,,,,,,
782706,001,2022-11-21_01h10.19.687,Info_measure_main_exp,2022.2.2,Win32,144.6549978,,,,,,,,,,,,,,,,,,masks/mask_003.jpg,,,,,,,,,,,,,,,,,,,,,,,,,,,,,,,,,,,,,,,,,,,0,4,4,2,1,,,,,,,,,,,,,,,,,,,,,,,,,,,,,,,,,,,,,,,,,,,,,,
782706,001,2022-11-21_01h10.19.687,Info_measure_main_exp,2022.2.2,Win32,144.6549978,,,,,,,,,,,,,,,,,,masks/mask_003.jpg,,,,,,,,,,,,,,,,,,,,,,,,,,,,,,,,,,,,,,,,,,,,,,,,0,0,0,2,1,,,,,,,,,,,,,,,,,,,,,,,,,,,,,,,,,,,,,,,,,
782706,001,2022-11-21_01h10.19.687,Info_measure_main_exp,2022.2.2,Win32,144.6549978,,,,,,,,,,,,,,,,,,masks/mask_002.jpg,,,,,,,,,,,,,,,,,,,,,,,,,,,,,,,,,,,,,,,,,,,,,,,,0,1,1,1,1,,,,,,,,,,,,,,,,,,,,,,,,,,,,,,,,,,,,,,,,,
782706,001,2022-11-21_01h10.19.687,Info_measure_main_exp,2022.2.2,Win32,144.6549978,,,,,,,,,,,,,,,,,,masks/mask_001.jpg,,,,,,,,,,,,,,,,,,,,,,,,,,,,,,,,,,,,,,,,,,,,,,,,0,2,2,0,1,,,,,,,,,,,,,,,,,,,,,,,,,,,,,,,,,,,,,,,,,
782706,001,2022-11-21_01h10.19.687,Info_measure_main_exp,2022.2.2,Win32,144.6549978,,,,,,,,,,,,,,,,,,masks/mask_005.jpg,,,,,,,,,,,,,,,,,,,,,,,,,,,,,,,,,,,,,,,,,,,,,,,,0,3,3,4,1,,,,,,,,,,,,,,,,,,,,,,,,,,,,,,,,,,,,,,,,,
