participant,session,date,expName,psychopyVersion,OS,frameRate,space_press_continue.keys,space_press_continue.rt,space_press_continue_2.keys,space_press_continue_2.rt,space_press_continue_3.keys,space_press_continue_3.rt,space_press_continue_4.keys,space_press_continue_4.rt,space_press_continue_5.keys,space_press_continue_5.rt,space_press_continue_6.keys,space_press_continue_6.rt,prac_mask_loop_1.thisRepN,prac_mask_loop_1.thisTrialN,prac_mask_loop_1.thisN,prac_mask_loop_1.thisIndex,prac_mask_loop_1.ran,mask_name,prac_mask_loop_2.thisRepN,prac_mask_loop_2.thisTrialN,prac_mask_loop_2.thisN,prac_mask_loop_2.thisIndex,prac_mask_loop_2.ran,mouse_2.x,mouse_2.y,mouse_2.leftButton,mouse_2.midButton,mouse_2.rightButton,mouse_2.clicked_name,similarity,response_time,Pass,mouse_12.x,mouse_12.y,mouse_12.leftButton,mouse_12.midButton,mouse_12.rightButton,mouse_12.clicked_name,prac_loop.thisRepN,prac_loop.thisTrialN,prac_loop.thisN,prac_loop.thisIndex,prac_loop.ran,Pair_type,Image_num,Patch_1_loc,Patch_2_loc,Patch_1_info,Patch_2_info,Patch_1_name,Patch_2_name,mouse_1.x,mouse_1.y,mouse_1.leftButton,mouse_1.midButton,mouse_1.rightButton,mouse_1.time,mouse_1.clicked_name,space_press_continue_7.keys,space_press_continue_7.rt,mask_loop.thisRepN,mask_loop.thisTrialN,mask_loop.thisN,mask_loop.thisIndex,mask_loop.ran,mask_loop_2.thisRepN,mask_loop_2.thisTrialN,mask_loop_2.thisN,mask_loop_2.thisIndex,mask_loop_2.ran,mouse.x,mouse.y,mouse.leftButton,mouse.midButton,mouse.rightButton,mouse.clicked_name,trialNumber,mouse_11.x,mouse_11.y,mouse_11.leftButton,mouse_11.midButton,mouse_11.rightButton,mouse_11.clicked_name,first_pass_loop.thisRepN,first_pass_loop.thisTrialN,first_pass_loop.thisN,first_pass_loop.thisIndex,first_pass_loop.ran,mask_loop_3.thisRepN,mask_loop_3.thisTrialN,mask_loop_3.thisN,mask_loop_3.thisIndex,mask_loop_3.ran,mask_loop_4.thisRepN,mask_loop_4.thisTrialN,mask_loop_4.thisN,mask_loop_4.thisIndex,mask_loop_4.ran,mouse_3.x,mouse_3.y,mouse_3.leftButton,mouse_3.midButton,mouse_3.rightButton,mouse_3.clicked_name,double_pass_loop.thisRepN,double_pass_loop.thisTrialN,double_pass_loop.thisN,double_pass_loop.thisIndex,double_pass_loop.ran,space_exit.keys,space_exit.rt
782861,001,2022-11-20_23h50.06.986,Info_measure_main_exp,2022.2.2,Win32,59.27682276,,,,,,,,,,,,,,,,,,,,,,,,,,,,,,,,,,,,,,,,,,,,,,,,,,,,,,,,,,,,,,,,,,,,,,,,,,,,,,,,,,,,,,,,,,,,,,,,,,,,,,,,,,,,,,,
782861,001,2022-11-20_23h50.06.986,Info_measure_main_exp,2022.2.2,Win32,59.27682276,,,,,,,,,,,,,,,,,,,,,,,,,,,,,,,,,,,,,,,,,,,,,,,,,,,,,,,,,,,,,,,,,,,,,,,,,,,,,,,,,,,,,,,,,,,,,,,,,,,,,,,,,,,,,,,
782861,001,2022-11-20_23h50.06.986,Info_measure_main_exp,2022.2.2,Win32,59.27682276,space,5.2122,,,,,,,,,,,,,,,,,,,,,,,,,,,,,,,,,,,,,,,,,,,,,,,,,,,,,,,,,,,,,,,,,,,,,,,,,,,,,,,,,,,,,,,,,,,,,,,,,,,,,,,,,,,,,
782861,001,2022-11-20_23h50.06.986,Info_measure_main_exp,2022.2.2,Win32,59.27682276,,,space,11.9711,,,,,,,,,,,,,,,,,,,,,,,,,,,,,,,,,,,,,,,,,,,,,,,,,,,,,,,,,,,,,,,,,,,,,,,,,,,,,,,,,,,,,,,,,,,,,,,,,,,,,,,,,,,
782861,001,2022-11-20_23h50.06.986,Info_measure_main_exp,2022.2.2,Win32,59.27682276,,,,,space,9.6035,,,,,,,,,,,,,,,,,,,,,,,,,,,,,,,,,,,,,,,,,,,,,,,,,,,,,,,,,,,,,,,,,,,,,,,,,,,,,,,,,,,,,,,,,,,,,,,,,,,,,,,,,
782861,001,2022-11-20_23h50.06.986,Info_measure_main_exp,2022.2.2,Win32,59.27682276,,,,,,,space,11.0524,,,,,,,,,,,,,,,,,,,,,,,,,,,,,,,,,,,,,,,,,,,,,,,,,,,,,,,,,,,,,,,,,,,,,,,,,,,,,,,,,,,,,,,,,,,,,,,,,,,,,,,
782861,001,2022-11-20_23h50.06.986,Info_measure_main_exp,2022.2.2,Win32,59.27682276,,,,,,,,,space,3.4563,,,,,,,,,,,,,,,,,,,,,,,,,,,,,,,,,,,,,,,,,,,,,,,,,,,,,,,,,,,,,,,,,,,,,,,,,,,,,,,,,,,,,,,,,,,,,,,,,,,,,
782861,001,2022-11-20_23h50.06.986,Info_measure_main_exp,2022.2.2,Win32,59.27682276,,,,,,,,,,,space,3.7221,,,,,,,,,,,,,,,,,,,,,,,,,,,,,,,,,,,,,,,,,,,,,,,,,,,,,,,,,,,,,,,,,,,,,,,,,,,,,,,,,,,,,,,,,,,,,,,,,,,
782861,001,2022-11-20_23h50.06.986,Info_measure_main_exp,2022.2.2,Win32,59.27682276,,,,,,,,,,,,,0,0,0,0,1,masks/mask_001.jpg,,,,,,,,,,,,,,,,,,,,,,,,,,,,,,,,,,,,,,,,,,,,,,,,,,,,,,,,,,,,,,,,,,,,,,,,,,,,,,,,,,,,,,,,,,,,,
782861,001,2022-11-20_23h50.06.986,Info_measure_main_exp,2022.2.2,Win32,59.27682276,,,,,,,,,,,,,0,1,1,1,1,masks/mask_002.jpg,,,,,,,,,,,,,,,,,,,,,,,,,,,,,,,,,,,,,,,,,,,,,,,,,,,,,,,,,,,,,,,,,,,,,,,,,,,,,,,,,,,,,,,,,,,,,
782861,001,2022-11-20_23h50.06.986,Info_measure_main_exp,2022.2.2,Win32,59.27682276,,,,,,,,,,,,,0,2,2,3,1,masks/mask_004.jpg,,,,,,,,,,,,,,,,,,,,,,,,,,,,,,,,,,,,,,,,,,,,,,,,,,,,,,,,,,,,,,,,,,,,,,,,,,,,,,,,,,,,,,,,,,,,,
782861,001,2022-11-20_23h50.06.986,Info_measure_main_exp,2022.2.2,Win32,59.27682276,,,,,,,,,,,,,0,3,3,4,1,masks/mask_005.jpg,,,,,,,,,,,,,,,,,,,,,,,,,,,,,,,,,,,,,,,,,,,,,,,,,,,,,,,,,,,,,,,,,,,,,,,,,,,,,,,,,,,,,,,,,,,,,
782861,001,2022-11-20_23h50.06.986,Info_measure_main_exp,2022.2.2,Win32,59.27682276,,,,,,,,,,,,,0,4,4,2,1,masks/mask_003.jpg,,,,,,,,,,,,,,,,,,,,,,,,,,,,,,,,,,,,,,,,,,,,,,,,,,,,,,,,,,,,,,,,,,,,,,,,,,,,,,,,,,,,,,,,,,,,,
782861,001,2022-11-20_23h50.06.986,Info_measure_main_exp,2022.2.2,Win32,59.27682276,,,,,,,,,,,,,,,,,,masks/mask_004.jpg,0,0,0,3,1,,,,,,,,,,,,,,,,,,,,,,,,,,,,,,,,,,,,,,,,,,,,,,,,,,,,,,,,,,,,,,,,,,,,,,,,,,,,,,,,,,,,,,,,
782861,001,2022-11-20_23h50.06.986,Info_measure_main_exp,2022.2.2,Win32,59.27682276,,,,,,,,,,,,,,,,,,masks/mask_002.jpg,0,1,1,1,1,,,,,,,,,,,,,,,,,,,,,,,,,,,,,,,,,,,,,,,,,,,,,,,,,,,,,,,,,,,,,,,,,,,,,,,,,,,,,,,,,,,,,,,,
782861,001,2022-11-20_23h50.06.986,Info_measure_main_exp,2022.2.2,Win32,59.27682276,,,,,,,,,,,,,,,,,,masks/mask_003.jpg,0,2,2,2,1,,,,,,,,,,,,,,,,,,,,,,,,,,,,,,,,,,,,,,,,,,,,,,,,,,,,,,,,,,,,,,,,,,,,,,,,,,,,,,,,,,,,,,,,
782861,001,2022-11-20_23h50.06.986,Info_measure_main_exp,2022.2.2,Win32,59.27682276,,,,,,,,,,,,,,,,,,masks/mask_005.jpg,0,3,3,4,1,,,,,,,,,,,,,,,,,,,,,,,,,,,,,,,,,,,,,,,,,,,,,,,,,,,,,,,,,,,,,,,,,,,,,,,,,,,,,,,,,,,,,,,,
782861,001,2022-11-20_23h50.06.986,Info_measure_main_exp,2022.2.2,Win32,59.27682276,,,,,,,,,,,,,,,,,,masks/mask_001.jpg,0,4,4,0,1,,,,,,,,,,,,,,,,,,,,,,,,,,,,,,,,,,,,,,,,,,,,,,,,,,,,,,,,,,,,,,,,,,,,,,,,,,,,,,,,,,,,,,,,
782861,001,2022-11-20_23h50.06.986,Info_measure_main_exp,2022.2.2,Win32,59.27682276,,,,,,,,,,,,,,,,,,,,,,,,-0.007407365,0.003703683,1,0,0,response7disk,1,50.0166,1,0.000925912,0.008333312,1,0,0,center_square,0,0,0,1,1,0,131,5,5,2514,2490,prac_patch/patch0002514.jpg,prac_patch/patch0002490.jpg,,,,,,,,,,,,,,,,,,,,,,,,,,,,,,,,,,,,,,,,,,,,,,,,,,,,,,,,,,,,
782861,001,2022-11-20_23h50.06.986,Info_measure_main_exp,2022.2.2,Win32,59.27682276,,,,,,,,,,,,,0,0,0,2,1,masks/mask_003.jpg,,,,,,,,,,,,,,,,,,,,,,,,,,,,,,,,,,,,,,,,,,,,,,,,,,,,,,,,,,,,,,,,,,,,,,,,,,,,,,,,,,,,,,,,,,,,,
782861,001,2022-11-20_23h50.06.986,Info_measure_main_exp,2022.2.2,Win32,59.27682276,,,,,,,,,,,,,0,1,1,3,1,masks/mask_004.jpg,,,,,,,,,,,,,,,,,,,,,,,,,,,,,,,,,,,,,,,,,,,,,,,,,,,,,,,,,,,,,,,,,,,,,,,,,,,,,,,,,,,,,,,,,,,,,
782861,001,2022-11-20_23h50.06.986,Info_measure_main_exp,2022.2.2,Win32,59.27682276,,,,,,,,,,,,,0,2,2,0,1,masks/mask_001.jpg,,,,,,,,,,,,,,,,,,,,,,,,,,,,,,,,,,,,,,,,,,,,,,,,,,,,,,,,,,,,,,,,,,,,,,,,,,,,,,,,,,,,,,,,,,,,,
782861,001,2022-11-20_23h50.06.986,Info_measure_main_exp,2022.2.2,Win32,59.27682276,,,,,,,,,,,,,0,3,3,4,1,masks/mask_005.jpg,,,,,,,,,,,,,,,,,,,,,,,,,,,,,,,,,,,,,,,,,,,,,,,,,,,,,,,,,,,,,,,,,,,,,,,,,,,,,,,,,,,,,,,,,,,,,
782861,001,2022-11-20_23h50.06.986,Info_measure_main_exp,2022.2.2,Win32,59.27682276,,,,,,,,,,,,,0,4,4,1,1,masks/mask_002.jpg,,,,,,,,,,,,,,,,,,,,,,,,,,,,,,,,,,,,,,,,,,,,,,,,,,,,,,,,,,,,,,,,,,,,,,,,,,,,,,,,,,,,,,,,,,,,,
782861,001,2022-11-20_23h50.06.986,Info_measure_main_exp,2022.2.2,Win32,59.27682276,,,,,,,,,,,,,,,,,,masks/mask_001.jpg,0,0,0,0,1,,,,,,,,,,,,,,,,,,,,,,,,,,,,,,,,,,,,,,,,,,,,,,,,,,,,,,,,,,,,,,,,,,,,,,,,,,,,,,,,,,,,,,,,
782861,001,2022-11-20_23h50.06.986,Info_measure_main_exp,2022.2.2,Win32,59.27682276,,,,,,,,,,,,,,,,,,masks/mask_004.jpg,0,1,1,3,1,,,,,,,,,,,,,,,,,,,,,,,,,,,,,,,,,,,,,,,,,,,,,,,,,,,,,,,,,,,,,,,,,,,,,,,,,,,,,,,,,,,,,,,,
782861,001,2022-11-20_23h50.06.986,Info_measure_main_exp,2022.2.2,Win32,59.27682276,,,,,,,,,,,,,,,,,,masks/mask_002.jpg,0,2,2,1,1,,,,,,,,,,,,,,,,,,,,,,,,,,,,,,,,,,,,,,,,,,,,,,,,,,,,,,,,,,,,,,,,,,,,,,,,,,,,,,,,,,,,,,,,
782861,001,2022-11-20_23h50.06.986,Info_measure_main_exp,2022.2.2,Win32,59.27682276,,,,,,,,,,,,,,,,,,masks/mask_003.jpg,0,3,3,2,1,,,,,,,,,,,,,,,,,,,,,,,,,,,,,,,,,,,,,,,,,,,,,,,,,,,,,,,,,,,,,,,,,,,,,,,,,,,,,,,,,,,,,,,,
782861,001,2022-11-20_23h50.06.986,Info_measure_main_exp,2022.2.2,Win32,59.27682276,,,,,,,,,,,,,,,,,,masks/mask_005.jpg,0,4,4,4,1,,,,,,,,,,,,,,,,,,,,,,,,,,,,,,,,,,,,,,,,,,,,,,,,,,,,,,,,,,,,,,,,,,,,,,,,,,,,,,,,,,,,,,,,
782861,001,2022-11-20_23h50.06.986,Info_measure_main_exp,2022.2.2,Win32,59.27682276,,,,,,,,,,,,,,,,,,,,,,,,-0.181481467,0.034259266,1,0,0,response7disk,1,67.4467,1,0.008333347,-0.002777771,1,0,0,center_square,0,1,1,2,1,0,131,5,5,2526,2526,prac_patch/patch0002526.jpg,prac_patch/patch0002526.jpg,,,,,,,,,,,,,,,,,,,,,,,,,,,,,,,,,,,,,,,,,,,,,,,,,,,,,,,,,,,,
782861,001,2022-11-20_23h50.06.986,Info_measure_main_exp,2022.2.2,Win32,59.27682276,,,,,,,,,,,,,0,0,0,0,1,masks/mask_001.jpg,,,,,,,,,,,,,,,,,,,,,,,,,,,,,,,,,,,,,,,,,,,,,,,,,,,,,,,,,,,,,,,,,,,,,,,,,,,,,,,,,,,,,,,,,,,,,
782861,001,2022-11-20_23h50.06.986,Info_measure_main_exp,2022.2.2,Win32,59.27682276,,,,,,,,,,,,,0,1,1,3,1,masks/mask_004.jpg,,,,,,,,,,,,,,,,,,,,,,,,,,,,,,,,,,,,,,,,,,,,,,,,,,,,,,,,,,,,,,,,,,,,,,,,,,,,,,,,,,,,,,,,,,,,,
782861,001,2022-11-20_23h50.06.986,Info_measure_main_exp,2022.2.2,Win32,59.27682276,,,,,,,,,,,,,0,2,2,1,1,masks/mask_002.jpg,,,,,,,,,,,,,,,,,,,,,,,,,,,,,,,,,,,,,,,,,,,,,,,,,,,,,,,,,,,,,,,,,,,,,,,,,,,,,,,,,,,,,,,,,,,,,
782861,001,2022-11-20_23h50.06.986,Info_measure_main_exp,2022.2.2,Win32,59.27682276,,,,,,,,,,,,,0,3,3,2,1,masks/mask_003.jpg,,,,,,,,,,,,,,,,,,,,,,,,,,,,,,,,,,,,,,,,,,,,,,,,,,,,,,,,,,,,,,,,,,,,,,,,,,,,,,,,,,,,,,,,,,,,,
782861,001,2022-11-20_23h50.06.986,Info_measure_main_exp,2022.2.2,Win32,59.27682276,,,,,,,,,,,,,0,4,4,4,1,masks/mask_005.jpg,,,,,,,,,,,,,,,,,,,,,,,,,,,,,,,,,,,,,,,,,,,,,,,,,,,,,,,,,,,,,,,,,,,,,,,,,,,,,,,,,,,,,,,,,,,,,
782861,001,2022-11-20_23h50.06.986,Info_measure_main_exp,2022.2.2,Win32,59.27682276,,,,,,,,,,,,,,,,,,masks/mask_002.jpg,0,0,0,1,1,,,,,,,,,,,,,,,,,,,,,,,,,,,,,,,,,,,,,,,,,,,,,,,,,,,,,,,,,,,,,,,,,,,,,,,,,,,,,,,,,,,,,,,,
782861,001,2022-11-20_23h50.06.986,Info_measure_main_exp,2022.2.2,Win32,59.27682276,,,,,,,,,,,,,,,,,,masks/mask_004.jpg,0,1,1,3,1,,,,,,,,,,,,,,,,,,,,,,,,,,,,,,,,,,,,,,,,,,,,,,,,,,,,,,,,,,,,,,,,,,,,,,,,,,,,,,,,,,,,,,,,
782861,001,2022-11-20_23h50.06.986,Info_measure_main_exp,2022.2.2,Win32,59.27682276,,,,,,,,,,,,,,,,,,masks/mask_003.jpg,0,2,2,2,1,,,,,,,,,,,,,,,,,,,,,,,,,,,,,,,,,,,,,,,,,,,,,,,,,,,,,,,,,,,,,,,,,,,,,,,,,,,,,,,,,,,,,,,,
782861,001,2022-11-20_23h50.06.986,Info_measure_main_exp,2022.2.2,Win32,59.27682276,,,,,,,,,,,,,,,,,,masks/mask_001.jpg,0,3,3,0,1,,,,,,,,,,,,,,,,,,,,,,,,,,,,,,,,,,,,,,,,,,,,,,,,,,,,,,,,,,,,,,,,,,,,,,,,,,,,,,,,,,,,,,,,
782861,001,2022-11-20_23h50.06.986,Info_measure_main_exp,2022.2.2,Win32,59.27682276,,,,,,,,,,,,,,,,,,masks/mask_005.jpg,0,4,4,4,1,,,,,,,,,,,,,,,,,,,,,,,,,,,,,,,,,,,,,,,,,,,,,,,,,,,,,,,,,,,,,,,,,,,,,,,,,,,,,,,,,,,,,,,,
782861,001,2022-11-20_23h50.06.986,Info_measure_main_exp,2022.2.2,Win32,59.27682276,,,,,,,,,,,,,,,,,,,,,,,,0.10555557,-0.057407414,1,0,0,response3disk,5,80.2288,1,-0.00462963,0.003703683,1,0,0,center_square,0,2,2,0,1,0,131,5,5,2370,2406,prac_patch/patch0002370.jpg,prac_patch/patch0002406.jpg,,,,,,,,,,,,,,,,,,,,,,,,,,,,,,,,,,,,,,,,,,,,,,,,,,,,,,,,,,,,
782861,001,2022-11-20_23h50.06.986,Info_measure_main_exp,2022.2.2,Win32,59.27682276,,,,,,,,,,,,,,,,,,,,,,,,,,,,,,,,,,,,,,,,,,,,,,,,,,,,,,,,,,,space,3.4664,,,,,,,,,,,,,,,,,,,,,,,,,,,,,,,,,,,,,,,,,,,,,,,,,,,
782861,001,2022-11-20_23h50.06.986,Info_measure_main_exp,2022.2.2,Win32,59.27682276,,,,,,,,,,,,,,,,,,masks/mask_003.jpg,,,,,,,,,,,,,,,,,,,,,,,,,,,,,,,,,,,,,,,,,,,0,0,0,2,1,,,,,,,,,,,,,,,,,,,,,,,,,,,,,,,,,,,,,,,,,,,,,,
782861,001,2022-11-20_23h50.06.986,Info_measure_main_exp,2022.2.2,Win32,59.27682276,,,,,,,,,,,,,,,,,,masks/mask_005.jpg,,,,,,,,,,,,,,,,,,,,,,,,,,,,,,,,,,,,,,,,,,,0,1,1,4,1,,,,,,,,,,,,,,,,,,,,,,,,,,,,,,,,,,,,,,,,,,,,,,
782861,001,2022-11-20_23h50.06.986,Info_measure_main_exp,2022.2.2,Win32,59.27682276,,,,,,,,,,,,,,,,,,masks/mask_001.jpg,,,,,,,,,,,,,,,,,,,,,,,,,,,,,,,,,,,,,,,,,,,0,2,2,0,1,,,,,,,,,,,,,,,,,,,,,,,,,,,,,,,,,,,,,,,,,,,,,,
782861,001,2022-11-20_23h50.06.986,Info_measure_main_exp,2022.2.2,Win32,59.27682276,,,,,,,,,,,,,,,,,,masks/mask_004.jpg,,,,,,,,,,,,,,,,,,,,,,,,,,,,,,,,,,,,,,,,,,,0,3,3,3,1,,,,,,,,,,,,,,,,,,,,,,,,,,,,,,,,,,,,,,,,,,,,,,
782861,001,2022-11-20_23h50.06.986,Info_measure_main_exp,2022.2.2,Win32,59.27682276,,,,,,,,,,,,,,,,,,masks/mask_002.jpg,,,,,,,,,,,,,,,,,,,,,,,,,,,,,,,,,,,,,,,,,,,0,4,4,1,1,,,,,,,,,,,,,,,,,,,,,,,,,,,,,,,,,,,,,,,,,,,,,,
782861,001,2022-11-20_23h50.06.986,Info_measure_main_exp,2022.2.2,Win32,59.27682276,,,,,,,,,,,,,,,,,,masks/mask_001.jpg,,,,,,,,,,,,,,,,,,,,,,,,,,,,,,,,,,,,,,,,,,,,,,,,0,0,0,0,1,,,,,,,,,,,,,,,,,,,,,,,,,,,,,,,,,,,,,,,,,
782861,001,2022-11-20_23h50.06.986,Info_measure_main_exp,2022.2.2,Win32,59.27682276,,,,,,,,,,,,,,,,,,masks/mask_003.jpg,,,,,,,,,,,,,,,,,,,,,,,,,,,,,,,,,,,,,,,,,,,,,,,,0,1,1,2,1,,,,,,,,,,,,,,,,,,,,,,,,,,,,,,,,,,,,,,,,,
782861,001,2022-11-20_23h50.06.986,Info_measure_main_exp,2022.2.2,Win32,59.27682276,,,,,,,,,,,,,,,,,,masks/mask_002.jpg,,,,,,,,,,,,,,,,,,,,,,,,,,,,,,,,,,,,,,,,,,,,,,,,0,2,2,1,1,,,,,,,,,,,,,,,,,,,,,,,,,,,,,,,,,,,,,,,,,
782861,001,2022-11-20_23h50.06.986,Info_measure_main_exp,2022.2.2,Win32,59.27682276,,,,,,,,,,,,,,,,,,masks/mask_004.jpg,,,,,,,,,,,,,,,,,,,,,,,,,,,,,,,,,,,,,,,,,,,,,,,,0,3,3,3,1,,,,,,,,,,,,,,,,,,,,,,,,,,,,,,,,,,,,,,,,,
782861,001,2022-11-20_23h50.06.986,Info_measure_main_exp,2022.2.2,Win32,59.27682276,,,,,,,,,,,,,,,,,,masks/mask_005.jpg,,,,,,,,,,,,,,,,,,,,,,,,,,,,,,,,,,,,,,,,,,,,,,,,0,4,4,4,1,,,,,,,,,,,,,,,,,,,,,,,,,,,,,,,,,,,,,,,,,
782861,001,2022-11-20_23h50.06.986,Info_measure_main_exp,2022.2.2,Win32,59.27682276,,,,,,,,,,,,,,,,,,,,,,,,,,,,,,1,1.3825,1,,,,,,,,,,,,0,131,5,5,2154,2154,absent_patch/patch0002154.jpg,absent_patch/patch0002154.jpg,,,,,,,,,,,,,,,,,,,,-0.155555513,0.037962949,1,0,0,response7disk,1,-0.003703718,0.006481489,1,0,0,center_square,0,0,0,89,1,,,,,,,,,,,,,,,,,,,,,,,
782861,001,2022-11-20_23h50.06.986,Info_measure_main_exp,2022.2.2,Win32,59.27682276,,,,,,,,,,,,,,,,,,masks/mask_003.jpg,,,,,,,,,,,,,,,,,,,,,,,,,,,,,,,,,,,,,,,,,,,0,0,0,2,1,,,,,,,,,,,,,,,,,,,,,,,,,,,,,,,,,,,,,,,,,,,,,,
782861,001,2022-11-20_23h50.06.986,Info_measure_main_exp,2022.2.2,Win32,59.27682276,,,,,,,,,,,,,,,,,,masks/mask_005.jpg,,,,,,,,,,,,,,,,,,,,,,,,,,,,,,,,,,,,,,,,,,,0,1,1,4,1,,,,,,,,,,,,,,,,,,,,,,,,,,,,,,,,,,,,,,,,,,,,,,
782861,001,2022-11-20_23h50.06.986,Info_measure_main_exp,2022.2.2,Win32,59.27682276,,,,,,,,,,,,,,,,,,masks/mask_001.jpg,,,,,,,,,,,,,,,,,,,,,,,,,,,,,,,,,,,,,,,,,,,0,2,2,0,1,,,,,,,,,,,,,,,,,,,,,,,,,,,,,,,,,,,,,,,,,,,,,,
782861,001,2022-11-20_23h50.06.986,Info_measure_main_exp,2022.2.2,Win32,59.27682276,,,,,,,,,,,,,,,,,,masks/mask_004.jpg,,,,,,,,,,,,,,,,,,,,,,,,,,,,,,,,,,,,,,,,,,,0,3,3,3,1,,,,,,,,,,,,,,,,,,,,,,,,,,,,,,,,,,,,,,,,,,,,,,
782861,001,2022-11-20_23h50.06.986,Info_measure_main_exp,2022.2.2,Win32,59.27682276,,,,,,,,,,,,,,,,,,masks/mask_002.jpg,,,,,,,,,,,,,,,,,,,,,,,,,,,,,,,,,,,,,,,,,,,0,4,4,1,1,,,,,,,,,,,,,,,,,,,,,,,,,,,,,,,,,,,,,,,,,,,,,,
782861,001,2022-11-20_23h50.06.986,Info_measure_main_exp,2022.2.2,Win32,59.27682276,,,,,,,,,,,,,,,,,,masks/mask_005.jpg,,,,,,,,,,,,,,,,,,,,,,,,,,,,,,,,,,,,,,,,,,,,,,,,0,0,0,4,1,,,,,,,,,,,,,,,,,,,,,,,,,,,,,,,,,,,,,,,,,
782861,001,2022-11-20_23h50.06.986,Info_measure_main_exp,2022.2.2,Win32,59.27682276,,,,,,,,,,,,,,,,,,masks/mask_004.jpg,,,,,,,,,,,,,,,,,,,,,,,,,,,,,,,,,,,,,,,,,,,,,,,,0,1,1,3,1,,,,,,,,,,,,,,,,,,,,,,,,,,,,,,,,,,,,,,,,,
782861,001,2022-11-20_23h50.06.986,Info_measure_main_exp,2022.2.2,Win32,59.27682276,,,,,,,,,,,,,,,,,,masks/mask_002.jpg,,,,,,,,,,,,,,,,,,,,,,,,,,,,,,,,,,,,,,,,,,,,,,,,0,2,2,1,1,,,,,,,,,,,,,,,,,,,,,,,,,,,,,,,,,,,,,,,,,
782861,001,2022-11-20_23h50.06.986,Info_measure_main_exp,2022.2.2,Win32,59.27682276,,,,,,,,,,,,,,,,,,masks/mask_003.jpg,,,,,,,,,,,,,,,,,,,,,,,,,,,,,,,,,,,,,,,,,,,,,,,,0,3,3,2,1,,,,,,,,,,,,,,,,,,,,,,,,,,,,,,,,,,,,,,,,,
782861,001,2022-11-20_23h50.06.986,Info_measure_main_exp,2022.2.2,Win32,59.27682276,,,,,,,,,,,,,,,,,,masks/mask_001.jpg,,,,,,,,,,,,,,,,,,,,,,,,,,,,,,,,,,,,,,,,,,,,,,,,0,4,4,0,1,,,,,,,,,,,,,,,,,,,,,,,,,,,,,,,,,,,,,,,,,
782861,001,2022-11-20_23h50.06.986,Info_measure_main_exp,2022.2.2,Win32,59.27682276,,,,,,,,,,,,,,,,,,,,,,,,,,,,,,7,1.1661,1,,,,,,,,,,,,0,131,5,5,2274,1974,absent_patch/patch0002274.jpg,absent_patch/patch0001974.jpg,,,,,,,,,,,,,,,,,,,,0.067592621,0.157407407,1,0,0,response1disk,2,0.00462963,-0.009259259,1,0,0,center_square,0,1,1,90,1,,,,,,,,,,,,,,,,,,,,,,,
782861,001,2022-11-20_23h50.06.986,Info_measure_main_exp,2022.2.2,Win32,59.27682276,,,,,,,,,,,,,,,,,,masks/mask_005.jpg,,,,,,,,,,,,,,,,,,,,,,,,,,,,,,,,,,,,,,,,,,,0,0,0,4,1,,,,,,,,,,,,,,,,,,,,,,,,,,,,,,,,,,,,,,,,,,,,,,
782861,001,2022-11-20_23h50.06.986,Info_measure_main_exp,2022.2.2,Win32,59.27682276,,,,,,,,,,,,,,,,,,masks/mask_002.jpg,,,,,,,,,,,,,,,,,,,,,,,,,,,,,,,,,,,,,,,,,,,0,1,1,1,1,,,,,,,,,,,,,,,,,,,,,,,,,,,,,,,,,,,,,,,,,,,,,,
782861,001,2022-11-20_23h50.06.986,Info_measure_main_exp,2022.2.2,Win32,59.27682276,,,,,,,,,,,,,,,,,,masks/mask_003.jpg,,,,,,,,,,,,,,,,,,,,,,,,,,,,,,,,,,,,,,,,,,,0,2,2,2,1,,,,,,,,,,,,,,,,,,,,,,,,,,,,,,,,,,,,,,,,,,,,,,
782861,001,2022-11-20_23h50.06.986,Info_measure_main_exp,2022.2.2,Win32,59.27682276,,,,,,,,,,,,,,,,,,masks/mask_001.jpg,,,,,,,,,,,,,,,,,,,,,,,,,,,,,,,,,,,,,,,,,,,0,3,3,0,1,,,,,,,,,,,,,,,,,,,,,,,,,,,,,,,,,,,,,,,,,,,,,,
782861,001,2022-11-20_23h50.06.986,Info_measure_main_exp,2022.2.2,Win32,59.27682276,,,,,,,,,,,,,,,,,,masks/mask_004.jpg,,,,,,,,,,,,,,,,,,,,,,,,,,,,,,,,,,,,,,,,,,,0,4,4,3,1,,,,,,,,,,,,,,,,,,,,,,,,,,,,,,,,,,,,,,,,,,,,,,
782861,001,2022-11-20_23h50.06.986,Info_measure_main_exp,2022.2.2,Win32,59.27682276,,,,,,,,,,,,,,,,,,masks/mask_005.jpg,,,,,,,,,,,,,,,,,,,,,,,,,,,,,,,,,,,,,,,,,,,,,,,,0,0,0,4,1,,,,,,,,,,,,,,,,,,,,,,,,,,,,,,,,,,,,,,,,,
782861,001,2022-11-20_23h50.06.986,Info_measure_main_exp,2022.2.2,Win32,59.27682276,,,,,,,,,,,,,,,,,,masks/mask_004.jpg,,,,,,,,,,,,,,,,,,,,,,,,,,,,,,,,,,,,,,,,,,,,,,,,0,1,1,3,1,,,,,,,,,,,,,,,,,,,,,,,,,,,,,,,,,,,,,,,,,
782861,001,2022-11-20_23h50.06.986,Info_measure_main_exp,2022.2.2,Win32,59.27682276,,,,,,,,,,,,,,,,,,masks/mask_001.jpg,,,,,,,,,,,,,,,,,,,,,,,,,,,,,,,,,,,,,,,,,,,,,,,,0,2,2,0,1,,,,,,,,,,,,,,,,,,,,,,,,,,,,,,,,,,,,,,,,,
782861,001,2022-11-20_23h50.06.986,Info_measure_main_exp,2022.2.2,Win32,59.27682276,,,,,,,,,,,,,,,,,,masks/mask_002.jpg,,,,,,,,,,,,,,,,,,,,,,,,,,,,,,,,,,,,,,,,,,,,,,,,0,3,3,1,1,,,,,,,,,,,,,,,,,,,,,,,,,,,,,,,,,,,,,,,,,
782861,001,2022-11-20_23h50.06.986,Info_measure_main_exp,2022.2.2,Win32,59.27682276,,,,,,,,,,,,,,,,,,masks/mask_003.jpg,,,,,,,,,,,,,,,,,,,,,,,,,,,,,,,,,,,,,,,,,,,,,,,,0,4,4,2,1,,,,,,,,,,,,,,,,,,,,,,,,,,,,,,,,,,,,,,,,,
782861,001,2022-11-20_23h50.06.986,Info_measure_main_exp,2022.2.2,Win32,59.27682276,,,,,,,,,,,,,,,,,,,,,,,,,,,,,,7,0.6668,1,,,,,,,,,,,,1,131,5,5,1,2178,present_patch/cong_131_5_a.jpg,absent_patch/patch0002178.jpg,,,,,,,,,,,,,,,,,,,,0.040740755,0.137962942,1,0,0,response1disk,3,0.007407436,0.001851859,1,0,0,center_square,0,2,2,40,1,,,,,,,,,,,,,,,,,,,,,,,
782861,001,2022-11-20_23h50.06.986,Info_measure_main_exp,2022.2.2,Win32,59.27682276,,,,,,,,,,,,,,,,,,masks/mask_003.jpg,,,,,,,,,,,,,,,,,,,,,,,,,,,,,,,,,,,,,,,,,,,0,0,0,2,1,,,,,,,,,,,,,,,,,,,,,,,,,,,,,,,,,,,,,,,,,,,,,,
782861,001,2022-11-20_23h50.06.986,Info_measure_main_exp,2022.2.2,Win32,59.27682276,,,,,,,,,,,,,,,,,,masks/mask_002.jpg,,,,,,,,,,,,,,,,,,,,,,,,,,,,,,,,,,,,,,,,,,,0,1,1,1,1,,,,,,,,,,,,,,,,,,,,,,,,,,,,,,,,,,,,,,,,,,,,,,
782861,001,2022-11-20_23h50.06.986,Info_measure_main_exp,2022.2.2,Win32,59.27682276,,,,,,,,,,,,,,,,,,masks/mask_001.jpg,,,,,,,,,,,,,,,,,,,,,,,,,,,,,,,,,,,,,,,,,,,0,2,2,0,1,,,,,,,,,,,,,,,,,,,,,,,,,,,,,,,,,,,,,,,,,,,,,,
782861,001,2022-11-20_23h50.06.986,Info_measure_main_exp,2022.2.2,Win32,59.27682276,,,,,,,,,,,,,,,,,,masks/mask_004.jpg,,,,,,,,,,,,,,,,,,,,,,,,,,,,,,,,,,,,,,,,,,,0,3,3,3,1,,,,,,,,,,,,,,,,,,,,,,,,,,,,,,,,,,,,,,,,,,,,,,
782861,001,2022-11-20_23h50.06.986,Info_measure_main_exp,2022.2.2,Win32,59.27682276,,,,,,,,,,,,,,,,,,masks/mask_005.jpg,,,,,,,,,,,,,,,,,,,,,,,,,,,,,,,,,,,,,,,,,,,0,4,4,4,1,,,,,,,,,,,,,,,,,,,,,,,,,,,,,,,,,,,,,,,,,,,,,,
782861,001,2022-11-20_23h50.06.986,Info_measure_main_exp,2022.2.2,Win32,59.27682276,,,,,,,,,,,,,,,,,,masks/mask_003.jpg,,,,,,,,,,,,,,,,,,,,,,,,,,,,,,,,,,,,,,,,,,,,,,,,0,0,0,2,1,,,,,,,,,,,,,,,,,,,,,,,,,,,,,,,,,,,,,,,,,
782861,001,2022-11-20_23h50.06.986,Info_measure_main_exp,2022.2.2,Win32,59.27682276,,,,,,,,,,,,,,,,,,masks/mask_005.jpg,,,,,,,,,,,,,,,,,,,,,,,,,,,,,,,,,,,,,,,,,,,,,,,,0,1,1,4,1,,,,,,,,,,,,,,,,,,,,,,,,,,,,,,,,,,,,,,,,,
782861,001,2022-11-20_23h50.06.986,Info_measure_main_exp,2022.2.2,Win32,59.27682276,,,,,,,,,,,,,,,,,,masks/mask_004.jpg,,,,,,,,,,,,,,,,,,,,,,,,,,,,,,,,,,,,,,,,,,,,,,,,0,2,2,3,1,,,,,,,,,,,,,,,,,,,,,,,,,,,,,,,,,,,,,,,,,
782861,001,2022-11-20_23h50.06.986,Info_measure_main_exp,2022.2.2,Win32,59.27682276,,,,,,,,,,,,,,,,,,masks/mask_002.jpg,,,,,,,,,,,,,,,,,,,,,,,,,,,,,,,,,,,,,,,,,,,,,,,,0,3,3,1,1,,,,,,,,,,,,,,,,,,,,,,,,,,,,,,,,,,,,,,,,,
782861,001,2022-11-20_23h50.06.986,Info_measure_main_exp,2022.2.2,Win32,59.27682276,,,,,,,,,,,,,,,,,,masks/mask_001.jpg,,,,,,,,,,,,,,,,,,,,,,,,,,,,,,,,,,,,,,,,,,,,,,,,0,4,4,0,1,,,,,,,,,,,,,,,,,,,,,,,,,,,,,,,,,,,,,,,,,
782861,001,2022-11-20_23h50.06.986,Info_measure_main_exp,2022.2.2,Win32,59.27682276,,,,,,,,,,,,,,,,,,,,,,,,,,,,,,7,1.0662,1,,,,,,,,,,,,0,131,5,5,2082,2166,absent_patch/patch0002082.jpg,absent_patch/patch0002166.jpg,,,,,,,,,,,,,,,,,,,,0.033333319,0.109259252,1,0,0,response1disk,4,-0.008333347,0,1,0,0,center_square,0,3,3,43,1,,,,,,,,,,,,,,,,,,,,,,,
782861,001,2022-11-20_23h50.06.986,Info_measure_main_exp,2022.2.2,Win32,59.27682276,,,,,,,,,,,,,,,,,,masks/mask_001.jpg,,,,,,,,,,,,,,,,,,,,,,,,,,,,,,,,,,,,,,,,,,,0,0,0,0,1,,,,,,,,,,,,,,,,,,,,,,,,,,,,,,,,,,,,,,,,,,,,,,
782861,001,2022-11-20_23h50.06.986,Info_measure_main_exp,2022.2.2,Win32,59.27682276,,,,,,,,,,,,,,,,,,masks/mask_005.jpg,,,,,,,,,,,,,,,,,,,,,,,,,,,,,,,,,,,,,,,,,,,0,1,1,4,1,,,,,,,,,,,,,,,,,,,,,,,,,,,,,,,,,,,,,,,,,,,,,,
782861,001,2022-11-20_23h50.06.986,Info_measure_main_exp,2022.2.2,Win32,59.27682276,,,,,,,,,,,,,,,,,,masks/mask_002.jpg,,,,,,,,,,,,,,,,,,,,,,,,,,,,,,,,,,,,,,,,,,,0,2,2,1,1,,,,,,,,,,,,,,,,,,,,,,,,,,,,,,,,,,,,,,,,,,,,,,
782861,001,2022-11-20_23h50.06.986,Info_measure_main_exp,2022.2.2,Win32,59.27682276,,,,,,,,,,,,,,,,,,masks/mask_004.jpg,,,,,,,,,,,,,,,,,,,,,,,,,,,,,,,,,,,,,,,,,,,0,3,3,3,1,,,,,,,,,,,,,,,,,,,,,,,,,,,,,,,,,,,,,,,,,,,,,,
782861,001,2022-11-20_23h50.06.986,Info_measure_main_exp,2022.2.2,Win32,59.27682276,,,,,,,,,,,,,,,,,,masks/mask_003.jpg,,,,,,,,,,,,,,,,,,,,,,,,,,,,,,,,,,,,,,,,,,,0,4,4,2,1,,,,,,,,,,,,,,,,,,,,,,,,,,,,,,,,,,,,,,,,,,,,,,
782861,001,2022-11-20_23h50.06.986,Info_measure_main_exp,2022.2.2,Win32,59.27682276,,,,,,,,,,,,,,,,,,masks/mask_002.jpg,,,,,,,,,,,,,,,,,,,,,,,,,,,,,,,,,,,,,,,,,,,,,,,,0,0,0,1,1,,,,,,,,,,,,,,,,,,,,,,,,,,,,,,,,,,,,,,,,,
782861,001,2022-11-20_23h50.06.986,Info_measure_main_exp,2022.2.2,Win32,59.27682276,,,,,,,,,,,,,,,,,,masks/mask_001.jpg,,,,,,,,,,,,,,,,,,,,,,,,,,,,,,,,,,,,,,,,,,,,,,,,0,1,1,0,1,,,,,,,,,,,,,,,,,,,,,,,,,,,,,,,,,,,,,,,,,
782861,001,2022-11-20_23h50.06.986,Info_measure_main_exp,2022.2.2,Win32,59.27682276,,,,,,,,,,,,,,,,,,masks/mask_003.jpg,,,,,,,,,,,,,,,,,,,,,,,,,,,,,,,,,,,,,,,,,,,,,,,,0,2,2,2,1,,,,,,,,,,,,,,,,,,,,,,,,,,,,,,,,,,,,,,,,,
782861,001,2022-11-20_23h50.06.986,Info_measure_main_exp,2022.2.2,Win32,59.27682276,,,,,,,,,,,,,,,,,,masks/mask_005.jpg,,,,,,,,,,,,,,,,,,,,,,,,,,,,,,,,,,,,,,,,,,,,,,,,0,3,3,4,1,,,,,,,,,,,,,,,,,,,,,,,,,,,,,,,,,,,,,,,,,
782861,001,2022-11-20_23h50.06.986,Info_measure_main_exp,2022.2.2,Win32,59.27682276,,,,,,,,,,,,,,,,,,masks/mask_004.jpg,,,,,,,,,,,,,,,,,,,,,,,,,,,,,,,,,,,,,,,,,,,,,,,,0,4,4,3,1,,,,,,,,,,,,,,,,,,,,,,,,,,,,,,,,,,,,,,,,,
782861,001,2022-11-20_23h50.06.986,Info_measure_main_exp,2022.2.2,Win32,59.27682276,,,,,,,,,,,,,,,,,,,,,,,,,,,,,,4,2.2004,1,,,,,,,,,,,,0,131,5,5,2298,1986,absent_patch/patch0002298.jpg,absent_patch/patch0001986.jpg,,,,,,,,,,,,,,,,,,,,0.012037065,-0.10555557,1,0,0,response3disk,5,0.002777806,-0.002777771,1,0,0,center_square,0,4,4,32,1,,,,,,,,,,,,,,,,,,,,,,,
782861,001,2022-11-20_23h50.06.986,Info_measure_main_exp,2022.2.2,Win32,59.27682276,,,,,,,,,,,,,,,,,,masks/mask_004.jpg,,,,,,,,,,,,,,,,,,,,,,,,,,,,,,,,,,,,,,,,,,,0,0,0,3,1,,,,,,,,,,,,,,,,,,,,,,,,,,,,,,,,,,,,,,,,,,,,,,
782861,001,2022-11-20_23h50.06.986,Info_measure_main_exp,2022.2.2,Win32,59.27682276,,,,,,,,,,,,,,,,,,masks/mask_003.jpg,,,,,,,,,,,,,,,,,,,,,,,,,,,,,,,,,,,,,,,,,,,0,1,1,2,1,,,,,,,,,,,,,,,,,,,,,,,,,,,,,,,,,,,,,,,,,,,,,,
782861,001,2022-11-20_23h50.06.986,Info_measure_main_exp,2022.2.2,Win32,59.27682276,,,,,,,,,,,,,,,,,,masks/mask_002.jpg,,,,,,,,,,,,,,,,,,,,,,,,,,,,,,,,,,,,,,,,,,,0,2,2,1,1,,,,,,,,,,,,,,,,,,,,,,,,,,,,,,,,,,,,,,,,,,,,,,
782861,001,2022-11-20_23h50.06.986,Info_measure_main_exp,2022.2.2,Win32,59.27682276,,,,,,,,,,,,,,,,,,masks/mask_005.jpg,,,,,,,,,,,,,,,,,,,,,,,,,,,,,,,,,,,,,,,,,,,0,3,3,4,1,,,,,,,,,,,,,,,,,,,,,,,,,,,,,,,,,,,,,,,,,,,,,,
782861,001,2022-11-20_23h50.06.986,Info_measure_main_exp,2022.2.2,Win32,59.27682276,,,,,,,,,,,,,,,,,,masks/mask_001.jpg,,,,,,,,,,,,,,,,,,,,,,,,,,,,,,,,,,,,,,,,,,,0,4,4,0,1,,,,,,,,,,,,,,,,,,,,,,,,,,,,,,,,,,,,,,,,,,,,,,
782861,001,2022-11-20_23h50.06.986,Info_measure_main_exp,2022.2.2,Win32,59.27682276,,,,,,,,,,,,,,,,,,masks/mask_004.jpg,,,,,,,,,,,,,,,,,,,,,,,,,,,,,,,,,,,,,,,,,,,,,,,,0,0,0,3,1,,,,,,,,,,,,,,,,,,,,,,,,,,,,,,,,,,,,,,,,,
782861,001,2022-11-20_23h50.06.986,Info_measure_main_exp,2022.2.2,Win32,59.27682276,,,,,,,,,,,,,,,,,,masks/mask_005.jpg,,,,,,,,,,,,,,,,,,,,,,,,,,,,,,,,,,,,,,,,,,,,,,,,0,1,1,4,1,,,,,,,,,,,,,,,,,,,,,,,,,,,,,,,,,,,,,,,,,
782861,001,2022-11-20_23h50.06.986,Info_measure_main_exp,2022.2.2,Win32,59.27682276,,,,,,,,,,,,,,,,,,masks/mask_001.jpg,,,,,,,,,,,,,,,,,,,,,,,,,,,,,,,,,,,,,,,,,,,,,,,,0,2,2,0,1,,,,,,,,,,,,,,,,,,,,,,,,,,,,,,,,,,,,,,,,,
782861,001,2022-11-20_23h50.06.986,Info_measure_main_exp,2022.2.2,Win32,59.27682276,,,,,,,,,,,,,,,,,,masks/mask_003.jpg,,,,,,,,,,,,,,,,,,,,,,,,,,,,,,,,,,,,,,,,,,,,,,,,0,3,3,2,1,,,,,,,,,,,,,,,,,,,,,,,,,,,,,,,,,,,,,,,,,
782861,001,2022-11-20_23h50.06.986,Info_measure_main_exp,2022.2.2,Win32,59.27682276,,,,,,,,,,,,,,,,,,masks/mask_002.jpg,,,,,,,,,,,,,,,,,,,,,,,,,,,,,,,,,,,,,,,,,,,,,,,,0,4,4,1,1,,,,,,,,,,,,,,,,,,,,,,,,,,,,,,,,,,,,,,,,,
782861,001,2022-11-20_23h50.06.986,Info_measure_main_exp,2022.2.2,Win32,59.27682276,,,,,,,,,,,,,,,,,,,,,,,,,,,,,,2,1.949,1,,,,,,,,,,,,0,131,5,5,1974,1950,absent_patch/patch0001974.jpg,absent_patch/patch0001950.jpg,,,,,,,,,,,,,,,,,,,,-0.093518504,-0.065740762,1,0,0,response5disk,6,-0.010185171,-0.001851859,1,0,0,center_square,0,5,5,17,1,,,,,,,,,,,,,,,,,,,,,,,
782861,001,2022-11-20_23h50.06.986,Info_measure_main_exp,2022.2.2,Win32,59.27682276,,,,,,,,,,,,,,,,,,masks/mask_004.jpg,,,,,,,,,,,,,,,,,,,,,,,,,,,,,,,,,,,,,,,,,,,0,0,0,3,1,,,,,,,,,,,,,,,,,,,,,,,,,,,,,,,,,,,,,,,,,,,,,,
782861,001,2022-11-20_23h50.06.986,Info_measure_main_exp,2022.2.2,Win32,59.27682276,,,,,,,,,,,,,,,,,,masks/mask_001.jpg,,,,,,,,,,,,,,,,,,,,,,,,,,,,,,,,,,,,,,,,,,,0,1,1,0,1,,,,,,,,,,,,,,,,,,,,,,,,,,,,,,,,,,,,,,,,,,,,,,
782861,001,2022-11-20_23h50.06.986,Info_measure_main_exp,2022.2.2,Win32,59.27682276,,,,,,,,,,,,,,,,,,masks/mask_005.jpg,,,,,,,,,,,,,,,,,,,,,,,,,,,,,,,,,,,,,,,,,,,0,2,2,4,1,,,,,,,,,,,,,,,,,,,,,,,,,,,,,,,,,,,,,,,,,,,,,,
782861,001,2022-11-20_23h50.06.986,Info_measure_main_exp,2022.2.2,Win32,59.27682276,,,,,,,,,,,,,,,,,,masks/mask_002.jpg,,,,,,,,,,,,,,,,,,,,,,,,,,,,,,,,,,,,,,,,,,,0,3,3,1,1,,,,,,,,,,,,,,,,,,,,,,,,,,,,,,,,,,,,,,,,,,,,,,
782861,001,2022-11-20_23h50.06.986,Info_measure_main_exp,2022.2.2,Win32,59.27682276,,,,,,,,,,,,,,,,,,masks/mask_003.jpg,,,,,,,,,,,,,,,,,,,,,,,,,,,,,,,,,,,,,,,,,,,0,4,4,2,1,,,,,,,,,,,,,,,,,,,,,,,,,,,,,,,,,,,,,,,,,,,,,,
782861,001,2022-11-20_23h50.06.986,Info_measure_main_exp,2022.2.2,Win32,59.27682276,,,,,,,,,,,,,,,,,,masks/mask_004.jpg,,,,,,,,,,,,,,,,,,,,,,,,,,,,,,,,,,,,,,,,,,,,,,,,0,0,0,3,1,,,,,,,,,,,,,,,,,,,,,,,,,,,,,,,,,,,,,,,,,
782861,001,2022-11-20_23h50.06.986,Info_measure_main_exp,2022.2.2,Win32,59.27682276,,,,,,,,,,,,,,,,,,masks/mask_002.jpg,,,,,,,,,,,,,,,,,,,,,,,,,,,,,,,,,,,,,,,,,,,,,,,,0,1,1,1,1,,,,,,,,,,,,,,,,,,,,,,,,,,,,,,,,,,,,,,,,,
782861,001,2022-11-20_23h50.06.986,Info_measure_main_exp,2022.2.2,Win32,59.27682276,,,,,,,,,,,,,,,,,,masks/mask_003.jpg,,,,,,,,,,,,,,,,,,,,,,,,,,,,,,,,,,,,,,,,,,,,,,,,0,2,2,2,1,,,,,,,,,,,,,,,,,,,,,,,,,,,,,,,,,,,,,,,,,
782861,001,2022-11-20_23h50.06.986,Info_measure_main_exp,2022.2.2,Win32,59.27682276,,,,,,,,,,,,,,,,,,masks/mask_005.jpg,,,,,,,,,,,,,,,,,,,,,,,,,,,,,,,,,,,,,,,,,,,,,,,,0,3,3,4,1,,,,,,,,,,,,,,,,,,,,,,,,,,,,,,,,,,,,,,,,,
782861,001,2022-11-20_23h50.06.986,Info_measure_main_exp,2022.2.2,Win32,59.27682276,,,,,,,,,,,,,,,,,,masks/mask_001.jpg,,,,,,,,,,,,,,,,,,,,,,,,,,,,,,,,,,,,,,,,,,,,,,,,0,4,4,0,1,,,,,,,,,,,,,,,,,,,,,,,,,,,,,,,,,,,,,,,,,
782861,001,2022-11-20_23h50.06.986,Info_measure_main_exp,2022.2.2,Win32,59.27682276,,,,,,,,,,,,,,,,,,,,,,,,,,,,,,7,0.8328,1,,,,,,,,,,,,0,131,5,5,2214,2178,absent_patch/patch0002214.jpg,absent_patch/patch0002178.jpg,,,,,,,,,,,,,,,,,,,,0.069444444,0.145370377,1,0,0,response1disk,7,0.001851894,-0.001851859,1,0,0,center_square,0,6,6,62,1,,,,,,,,,,,,,,,,,,,,,,,
782861,001,2022-11-20_23h50.06.986,Info_measure_main_exp,2022.2.2,Win32,59.27682276,,,,,,,,,,,,,,,,,,masks/mask_004.jpg,,,,,,,,,,,,,,,,,,,,,,,,,,,,,,,,,,,,,,,,,,,0,0,0,3,1,,,,,,,,,,,,,,,,,,,,,,,,,,,,,,,,,,,,,,,,,,,,,,
782861,001,2022-11-20_23h50.06.986,Info_measure_main_exp,2022.2.2,Win32,59.27682276,,,,,,,,,,,,,,,,,,masks/mask_005.jpg,,,,,,,,,,,,,,,,,,,,,,,,,,,,,,,,,,,,,,,,,,,0,1,1,4,1,,,,,,,,,,,,,,,,,,,,,,,,,,,,,,,,,,,,,,,,,,,,,,
782861,001,2022-11-20_23h50.06.986,Info_measure_main_exp,2022.2.2,Win32,59.27682276,,,,,,,,,,,,,,,,,,masks/mask_003.jpg,,,,,,,,,,,,,,,,,,,,,,,,,,,,,,,,,,,,,,,,,,,0,2,2,2,1,,,,,,,,,,,,,,,,,,,,,,,,,,,,,,,,,,,,,,,,,,,,,,
782861,001,2022-11-20_23h50.06.986,Info_measure_main_exp,2022.2.2,Win32,59.27682276,,,,,,,,,,,,,,,,,,masks/mask_002.jpg,,,,,,,,,,,,,,,,,,,,,,,,,,,,,,,,,,,,,,,,,,,0,3,3,1,1,,,,,,,,,,,,,,,,,,,,,,,,,,,,,,,,,,,,,,,,,,,,,,
782861,001,2022-11-20_23h50.06.986,Info_measure_main_exp,2022.2.2,Win32,59.27682276,,,,,,,,,,,,,,,,,,masks/mask_001.jpg,,,,,,,,,,,,,,,,,,,,,,,,,,,,,,,,,,,,,,,,,,,0,4,4,0,1,,,,,,,,,,,,,,,,,,,,,,,,,,,,,,,,,,,,,,,,,,,,,,
782861,001,2022-11-20_23h50.06.986,Info_measure_main_exp,2022.2.2,Win32,59.27682276,,,,,,,,,,,,,,,,,,masks/mask_003.jpg,,,,,,,,,,,,,,,,,,,,,,,,,,,,,,,,,,,,,,,,,,,,,,,,0,0,0,2,1,,,,,,,,,,,,,,,,,,,,,,,,,,,,,,,,,,,,,,,,,
782861,001,2022-11-20_23h50.06.986,Info_measure_main_exp,2022.2.2,Win32,59.27682276,,,,,,,,,,,,,,,,,,masks/mask_001.jpg,,,,,,,,,,,,,,,,,,,,,,,,,,,,,,,,,,,,,,,,,,,,,,,,0,1,1,0,1,,,,,,,,,,,,,,,,,,,,,,,,,,,,,,,,,,,,,,,,,
782861,001,2022-11-20_23h50.06.986,Info_measure_main_exp,2022.2.2,Win32,59.27682276,,,,,,,,,,,,,,,,,,masks/mask_004.jpg,,,,,,,,,,,,,,,,,,,,,,,,,,,,,,,,,,,,,,,,,,,,,,,,0,2,2,3,1,,,,,,,,,,,,,,,,,,,,,,,,,,,,,,,,,,,,,,,,,
782861,001,2022-11-20_23h50.06.986,Info_measure_main_exp,2022.2.2,Win32,59.27682276,,,,,,,,,,,,,,,,,,masks/mask_005.jpg,,,,,,,,,,,,,,,,,,,,,,,,,,,,,,,,,,,,,,,,,,,,,,,,0,3,3,4,1,,,,,,,,,,,,,,,,,,,,,,,,,,,,,,,,,,,,,,,,,
782861,001,2022-11-20_23h50.06.986,Info_measure_main_exp,2022.2.2,Win32,59.27682276,,,,,,,,,,,,,,,,,,masks/mask_002.jpg,,,,,,,,,,,,,,,,,,,,,,,,,,,,,,,,,,,,,,,,,,,,,,,,0,4,4,1,1,,,,,,,,,,,,,,,,,,,,,,,,,,,,,,,,,,,,,,,,,
782861,001,2022-11-20_23h50.06.986,Info_measure_main_exp,2022.2.2,Win32,59.27682276,,,,,,,,,,,,,,,,,,,,,,,,,,,,,,5,2.7517,1,,,,,,,,,,,,0,131,5,5,2190,1986,absent_patch/patch0002190.jpg,absent_patch/patch0001986.jpg,,,,,,,,,,,,,,,,,,,,0.116666653,-0.041666667,1,0,0,response3disk,8,-0.007407365,0.009259259,1,0,0,center_square,0,7,7,111,1,,,,,,,,,,,,,,,,,,,,,,,
782861,001,2022-11-20_23h50.06.986,Info_measure_main_exp,2022.2.2,Win32,59.27682276,,,,,,,,,,,,,,,,,,masks/mask_005.jpg,,,,,,,,,,,,,,,,,,,,,,,,,,,,,,,,,,,,,,,,,,,0,0,0,4,1,,,,,,,,,,,,,,,,,,,,,,,,,,,,,,,,,,,,,,,,,,,,,,
782861,001,2022-11-20_23h50.06.986,Info_measure_main_exp,2022.2.2,Win32,59.27682276,,,,,,,,,,,,,,,,,,masks/mask_004.jpg,,,,,,,,,,,,,,,,,,,,,,,,,,,,,,,,,,,,,,,,,,,0,1,1,3,1,,,,,,,,,,,,,,,,,,,,,,,,,,,,,,,,,,,,,,,,,,,,,,
782861,001,2022-11-20_23h50.06.986,Info_measure_main_exp,2022.2.2,Win32,59.27682276,,,,,,,,,,,,,,,,,,masks/mask_002.jpg,,,,,,,,,,,,,,,,,,,,,,,,,,,,,,,,,,,,,,,,,,,0,2,2,1,1,,,,,,,,,,,,,,,,,,,,,,,,,,,,,,,,,,,,,,,,,,,,,,
782861,001,2022-11-20_23h50.06.986,Info_measure_main_exp,2022.2.2,Win32,59.27682276,,,,,,,,,,,,,,,,,,masks/mask_001.jpg,,,,,,,,,,,,,,,,,,,,,,,,,,,,,,,,,,,,,,,,,,,0,3,3,0,1,,,,,,,,,,,,,,,,,,,,,,,,,,,,,,,,,,,,,,,,,,,,,,
782861,001,2022-11-20_23h50.06.986,Info_measure_main_exp,2022.2.2,Win32,59.27682276,,,,,,,,,,,,,,,,,,masks/mask_003.jpg,,,,,,,,,,,,,,,,,,,,,,,,,,,,,,,,,,,,,,,,,,,0,4,4,2,1,,,,,,,,,,,,,,,,,,,,,,,,,,,,,,,,,,,,,,,,,,,,,,
782861,001,2022-11-20_23h50.06.986,Info_measure_main_exp,2022.2.2,Win32,59.27682276,,,,,,,,,,,,,,,,,,masks/mask_001.jpg,,,,,,,,,,,,,,,,,,,,,,,,,,,,,,,,,,,,,,,,,,,,,,,,0,0,0,0,1,,,,,,,,,,,,,,,,,,,,,,,,,,,,,,,,,,,,,,,,,
782861,001,2022-11-20_23h50.06.986,Info_measure_main_exp,2022.2.2,Win32,59.27682276,,,,,,,,,,,,,,,,,,masks/mask_004.jpg,,,,,,,,,,,,,,,,,,,,,,,,,,,,,,,,,,,,,,,,,,,,,,,,0,1,1,3,1,,,,,,,,,,,,,,,,,,,,,,,,,,,,,,,,,,,,,,,,,
782861,001,2022-11-20_23h50.06.986,Info_measure_main_exp,2022.2.2,Win32,59.27682276,,,,,,,,,,,,,,,,,,masks/mask_005.jpg,,,,,,,,,,,,,,,,,,,,,,,,,,,,,,,,,,,,,,,,,,,,,,,,0,2,2,4,1,,,,,,,,,,,,,,,,,,,,,,,,,,,,,,,,,,,,,,,,,
782861,001,2022-11-20_23h50.06.986,Info_measure_main_exp,2022.2.2,Win32,59.27682276,,,,,,,,,,,,,,,,,,masks/mask_002.jpg,,,,,,,,,,,,,,,,,,,,,,,,,,,,,,,,,,,,,,,,,,,,,,,,0,3,3,1,1,,,,,,,,,,,,,,,,,,,,,,,,,,,,,,,,,,,,,,,,,
782861,001,2022-11-20_23h50.06.986,Info_measure_main_exp,2022.2.2,Win32,59.27682276,,,,,,,,,,,,,,,,,,masks/mask_003.jpg,,,,,,,,,,,,,,,,,,,,,,,,,,,,,,,,,,,,,,,,,,,,,,,,0,4,4,2,1,,,,,,,,,,,,,,,,,,,,,,,,,,,,,,,,,,,,,,,,,
782861,001,2022-11-20_23h50.06.986,Info_measure_main_exp,2022.2.2,Win32,59.27682276,,,,,,,,,,,,,,,,,,,,,,,,,,,,,,6,1.167,1,,,,,,,,,,,,0,131,5,5,2166,2154,absent_patch/patch0002166.jpg,absent_patch/patch0002154.jpg,,,,,,,,,,,,,,,,,,,,0.112963005,0.02407406,1,0,0,response1disk,9,-0.001851824,0.01203703,1,0,0,center_square,0,8,8,79,1,,,,,,,,,,,,,,,,,,,,,,,
782861,001,2022-11-20_23h50.06.986,Info_measure_main_exp,2022.2.2,Win32,59.27682276,,,,,,,,,,,,,,,,,,masks/mask_005.jpg,,,,,,,,,,,,,,,,,,,,,,,,,,,,,,,,,,,,,,,,,,,0,0,0,4,1,,,,,,,,,,,,,,,,,,,,,,,,,,,,,,,,,,,,,,,,,,,,,,
782861,001,2022-11-20_23h50.06.986,Info_measure_main_exp,2022.2.2,Win32,59.27682276,,,,,,,,,,,,,,,,,,masks/mask_004.jpg,,,,,,,,,,,,,,,,,,,,,,,,,,,,,,,,,,,,,,,,,,,0,1,1,3,1,,,,,,,,,,,,,,,,,,,,,,,,,,,,,,,,,,,,,,,,,,,,,,
782861,001,2022-11-20_23h50.06.986,Info_measure_main_exp,2022.2.2,Win32,59.27682276,,,,,,,,,,,,,,,,,,masks/mask_003.jpg,,,,,,,,,,,,,,,,,,,,,,,,,,,,,,,,,,,,,,,,,,,0,2,2,2,1,,,,,,,,,,,,,,,,,,,,,,,,,,,,,,,,,,,,,,,,,,,,,,
782861,001,2022-11-20_23h50.06.986,Info_measure_main_exp,2022.2.2,Win32,59.27682276,,,,,,,,,,,,,,,,,,masks/mask_001.jpg,,,,,,,,,,,,,,,,,,,,,,,,,,,,,,,,,,,,,,,,,,,0,3,3,0,1,,,,,,,,,,,,,,,,,,,,,,,,,,,,,,,,,,,,,,,,,,,,,,
782861,001,2022-11-20_23h50.06.986,Info_measure_main_exp,2022.2.2,Win32,59.27682276,,,,,,,,,,,,,,,,,,masks/mask_002.jpg,,,,,,,,,,,,,,,,,,,,,,,,,,,,,,,,,,,,,,,,,,,0,4,4,1,1,,,,,,,,,,,,,,,,,,,,,,,,,,,,,,,,,,,,,,,,,,,,,,
782861,001,2022-11-20_23h50.06.986,Info_measure_main_exp,2022.2.2,Win32,59.27682276,,,,,,,,,,,,,,,,,,masks/mask_004.jpg,,,,,,,,,,,,,,,,,,,,,,,,,,,,,,,,,,,,,,,,,,,,,,,,0,0,0,3,1,,,,,,,,,,,,,,,,,,,,,,,,,,,,,,,,,,,,,,,,,
782861,001,2022-11-20_23h50.06.986,Info_measure_main_exp,2022.2.2,Win32,59.27682276,,,,,,,,,,,,,,,,,,masks/mask_005.jpg,,,,,,,,,,,,,,,,,,,,,,,,,,,,,,,,,,,,,,,,,,,,,,,,0,1,1,4,1,,,,,,,,,,,,,,,,,,,,,,,,,,,,,,,,,,,,,,,,,
782861,001,2022-11-20_23h50.06.986,Info_measure_main_exp,2022.2.2,Win32,59.27682276,,,,,,,,,,,,,,,,,,masks/mask_003.jpg,,,,,,,,,,,,,,,,,,,,,,,,,,,,,,,,,,,,,,,,,,,,,,,,0,2,2,2,1,,,,,,,,,,,,,,,,,,,,,,,,,,,,,,,,,,,,,,,,,
782861,001,2022-11-20_23h50.06.986,Info_measure_main_exp,2022.2.2,Win32,59.27682276,,,,,,,,,,,,,,,,,,masks/mask_001.jpg,,,,,,,,,,,,,,,,,,,,,,,,,,,,,,,,,,,,,,,,,,,,,,,,0,3,3,0,1,,,,,,,,,,,,,,,,,,,,,,,,,,,,,,,,,,,,,,,,,
782861,001,2022-11-20_23h50.06.986,Info_measure_main_exp,2022.2.2,Win32,59.27682276,,,,,,,,,,,,,,,,,,masks/mask_002.jpg,,,,,,,,,,,,,,,,,,,,,,,,,,,,,,,,,,,,,,,,,,,,,,,,0,4,4,1,1,,,,,,,,,,,,,,,,,,,,,,,,,,,,,,,,,,,,,,,,,
782861,001,2022-11-20_23h50.06.986,Info_measure_main_exp,2022.2.2,Win32,59.27682276,,,,,,,,,,,,,,,,,,,,,,,,,,,,,,7,0.7664,1,,,,,,,,,,,,0,131,5,5,2274,2238,absent_patch/patch0002274.jpg,absent_patch/patch0002238.jpg,,,,,,,,,,,,,,,,,,,,0.050000014,0.081481474,1,0,0,response1disk,10,0.003703718,0,1,0,0,center_square,0,9,9,91,1,,,,,,,,,,,,,,,,,,,,,,,
782861,001,2022-11-20_23h50.06.986,Info_measure_main_exp,2022.2.2,Win32,59.27682276,,,,,,,,,,,,,,,,,,masks/mask_004.jpg,,,,,,,,,,,,,,,,,,,,,,,,,,,,,,,,,,,,,,,,,,,0,0,0,3,1,,,,,,,,,,,,,,,,,,,,,,,,,,,,,,,,,,,,,,,,,,,,,,
782861,001,2022-11-20_23h50.06.986,Info_measure_main_exp,2022.2.2,Win32,59.27682276,,,,,,,,,,,,,,,,,,masks/mask_002.jpg,,,,,,,,,,,,,,,,,,,,,,,,,,,,,,,,,,,,,,,,,,,0,1,1,1,1,,,,,,,,,,,,,,,,,,,,,,,,,,,,,,,,,,,,,,,,,,,,,,
782861,001,2022-11-20_23h50.06.986,Info_measure_main_exp,2022.2.2,Win32,59.27682276,,,,,,,,,,,,,,,,,,masks/mask_001.jpg,,,,,,,,,,,,,,,,,,,,,,,,,,,,,,,,,,,,,,,,,,,0,2,2,0,1,,,,,,,,,,,,,,,,,,,,,,,,,,,,,,,,,,,,,,,,,,,,,,
782861,001,2022-11-20_23h50.06.986,Info_measure_main_exp,2022.2.2,Win32,59.27682276,,,,,,,,,,,,,,,,,,masks/mask_003.jpg,,,,,,,,,,,,,,,,,,,,,,,,,,,,,,,,,,,,,,,,,,,0,3,3,2,1,,,,,,,,,,,,,,,,,,,,,,,,,,,,,,,,,,,,,,,,,,,,,,
782861,001,2022-11-20_23h50.06.986,Info_measure_main_exp,2022.2.2,Win32,59.27682276,,,,,,,,,,,,,,,,,,masks/mask_005.jpg,,,,,,,,,,,,,,,,,,,,,,,,,,,,,,,,,,,,,,,,,,,0,4,4,4,1,,,,,,,,,,,,,,,,,,,,,,,,,,,,,,,,,,,,,,,,,,,,,,
782861,001,2022-11-20_23h50.06.986,Info_measure_main_exp,2022.2.2,Win32,59.27682276,,,,,,,,,,,,,,,,,,masks/mask_004.jpg,,,,,,,,,,,,,,,,,,,,,,,,,,,,,,,,,,,,,,,,,,,,,,,,0,0,0,3,1,,,,,,,,,,,,,,,,,,,,,,,,,,,,,,,,,,,,,,,,,
782861,001,2022-11-20_23h50.06.986,Info_measure_main_exp,2022.2.2,Win32,59.27682276,,,,,,,,,,,,,,,,,,masks/mask_003.jpg,,,,,,,,,,,,,,,,,,,,,,,,,,,,,,,,,,,,,,,,,,,,,,,,0,1,1,2,1,,,,,,,,,,,,,,,,,,,,,,,,,,,,,,,,,,,,,,,,,
782861,001,2022-11-20_23h50.06.986,Info_measure_main_exp,2022.2.2,Win32,59.27682276,,,,,,,,,,,,,,,,,,masks/mask_001.jpg,,,,,,,,,,,,,,,,,,,,,,,,,,,,,,,,,,,,,,,,,,,,,,,,0,2,2,0,1,,,,,,,,,,,,,,,,,,,,,,,,,,,,,,,,,,,,,,,,,
782861,001,2022-11-20_23h50.06.986,Info_measure_main_exp,2022.2.2,Win32,59.27682276,,,,,,,,,,,,,,,,,,masks/mask_005.jpg,,,,,,,,,,,,,,,,,,,,,,,,,,,,,,,,,,,,,,,,,,,,,,,,0,3,3,4,1,,,,,,,,,,,,,,,,,,,,,,,,,,,,,,,,,,,,,,,,,
782861,001,2022-11-20_23h50.06.986,Info_measure_main_exp,2022.2.2,Win32,59.27682276,,,,,,,,,,,,,,,,,,masks/mask_002.jpg,,,,,,,,,,,,,,,,,,,,,,,,,,,,,,,,,,,,,,,,,,,,,,,,0,4,4,1,1,,,,,,,,,,,,,,,,,,,,,,,,,,,,,,,,,,,,,,,,,
782861,001,2022-11-20_23h50.06.986,Info_measure_main_exp,2022.2.2,Win32,59.27682276,,,,,,,,,,,,,,,,,,,,,,,,,,,,,,4,1.3025,1,,,,,,,,,,,,0,131,5,5,2274,2082,absent_patch/patch0002274.jpg,absent_patch/patch0002082.jpg,,,,,,,,,,,,,,,,,,,,0.007407436,-0.112963005,1,0,0,response3disk,11,-0.005555541,-0.012962977,1,0,0,center_square,0,10,10,100,1,,,,,,,,,,,,,,,,,,,,,,,
782861,001,2022-11-20_23h50.06.986,Info_measure_main_exp,2022.2.2,Win32,59.27682276,,,,,,,,,,,,,,,,,,masks/mask_001.jpg,,,,,,,,,,,,,,,,,,,,,,,,,,,,,,,,,,,,,,,,,,,0,0,0,0,1,,,,,,,,,,,,,,,,,,,,,,,,,,,,,,,,,,,,,,,,,,,,,,
782861,001,2022-11-20_23h50.06.986,Info_measure_main_exp,2022.2.2,Win32,59.27682276,,,,,,,,,,,,,,,,,,masks/mask_003.jpg,,,,,,,,,,,,,,,,,,,,,,,,,,,,,,,,,,,,,,,,,,,0,1,1,2,1,,,,,,,,,,,,,,,,,,,,,,,,,,,,,,,,,,,,,,,,,,,,,,
782861,001,2022-11-20_23h50.06.986,Info_measure_main_exp,2022.2.2,Win32,59.27682276,,,,,,,,,,,,,,,,,,masks/mask_002.jpg,,,,,,,,,,,,,,,,,,,,,,,,,,,,,,,,,,,,,,,,,,,0,2,2,1,1,,,,,,,,,,,,,,,,,,,,,,,,,,,,,,,,,,,,,,,,,,,,,,
782861,001,2022-11-20_23h50.06.986,Info_measure_main_exp,2022.2.2,Win32,59.27682276,,,,,,,,,,,,,,,,,,masks/mask_004.jpg,,,,,,,,,,,,,,,,,,,,,,,,,,,,,,,,,,,,,,,,,,,0,3,3,3,1,,,,,,,,,,,,,,,,,,,,,,,,,,,,,,,,,,,,,,,,,,,,,,
782861,001,2022-11-20_23h50.06.986,Info_measure_main_exp,2022.2.2,Win32,59.27682276,,,,,,,,,,,,,,,,,,masks/mask_005.jpg,,,,,,,,,,,,,,,,,,,,,,,,,,,,,,,,,,,,,,,,,,,0,4,4,4,1,,,,,,,,,,,,,,,,,,,,,,,,,,,,,,,,,,,,,,,,,,,,,,
782861,001,2022-11-20_23h50.06.986,Info_measure_main_exp,2022.2.2,Win32,59.27682276,,,,,,,,,,,,,,,,,,masks/mask_003.jpg,,,,,,,,,,,,,,,,,,,,,,,,,,,,,,,,,,,,,,,,,,,,,,,,0,0,0,2,1,,,,,,,,,,,,,,,,,,,,,,,,,,,,,,,,,,,,,,,,,
782861,001,2022-11-20_23h50.06.986,Info_measure_main_exp,2022.2.2,Win32,59.27682276,,,,,,,,,,,,,,,,,,masks/mask_001.jpg,,,,,,,,,,,,,,,,,,,,,,,,,,,,,,,,,,,,,,,,,,,,,,,,0,1,1,0,1,,,,,,,,,,,,,,,,,,,,,,,,,,,,,,,,,,,,,,,,,
782861,001,2022-11-20_23h50.06.986,Info_measure_main_exp,2022.2.2,Win32,59.27682276,,,,,,,,,,,,,,,,,,masks/mask_005.jpg,,,,,,,,,,,,,,,,,,,,,,,,,,,,,,,,,,,,,,,,,,,,,,,,0,2,2,4,1,,,,,,,,,,,,,,,,,,,,,,,,,,,,,,,,,,,,,,,,,
782861,001,2022-11-20_23h50.06.986,Info_measure_main_exp,2022.2.2,Win32,59.27682276,,,,,,,,,,,,,,,,,,masks/mask_002.jpg,,,,,,,,,,,,,,,,,,,,,,,,,,,,,,,,,,,,,,,,,,,,,,,,0,3,3,1,1,,,,,,,,,,,,,,,,,,,,,,,,,,,,,,,,,,,,,,,,,
782861,001,2022-11-20_23h50.06.986,Info_measure_main_exp,2022.2.2,Win32,59.27682276,,,,,,,,,,,,,,,,,,masks/mask_004.jpg,,,,,,,,,,,,,,,,,,,,,,,,,,,,,,,,,,,,,,,,,,,,,,,,0,4,4,3,1,,,,,,,,,,,,,,,,,,,,,,,,,,,,,,,,,,,,,,,,,
782861,001,2022-11-20_23h50.06.986,Info_measure_main_exp,2022.2.2,Win32,59.27682276,,,,,,,,,,,,,,,,,,,,,,,,,,,,,,7,0.3994,1,,,,,,,,,,,,0,131,5,5,2190,2178,absent_patch/patch0002190.jpg,absent_patch/patch0002178.jpg,,,,,,,,,,,,,,,,,,,,0.040740755,0.14166666,1,0,0,response1disk,12,-0.006481453,0.005555541,1,0,0,center_square,0,11,11,14,1,,,,,,,,,,,,,,,,,,,,,,,
782861,001,2022-11-20_23h50.06.986,Info_measure_main_exp,2022.2.2,Win32,59.27682276,,,,,,,,,,,,,,,,,,masks/mask_002.jpg,,,,,,,,,,,,,,,,,,,,,,,,,,,,,,,,,,,,,,,,,,,0,0,0,1,1,,,,,,,,,,,,,,,,,,,,,,,,,,,,,,,,,,,,,,,,,,,,,,
782861,001,2022-11-20_23h50.06.986,Info_measure_main_exp,2022.2.2,Win32,59.27682276,,,,,,,,,,,,,,,,,,masks/mask_001.jpg,,,,,,,,,,,,,,,,,,,,,,,,,,,,,,,,,,,,,,,,,,,0,1,1,0,1,,,,,,,,,,,,,,,,,,,,,,,,,,,,,,,,,,,,,,,,,,,,,,
782861,001,2022-11-20_23h50.06.986,Info_measure_main_exp,2022.2.2,Win32,59.27682276,,,,,,,,,,,,,,,,,,masks/mask_004.jpg,,,,,,,,,,,,,,,,,,,,,,,,,,,,,,,,,,,,,,,,,,,0,2,2,3,1,,,,,,,,,,,,,,,,,,,,,,,,,,,,,,,,,,,,,,,,,,,,,,
782861,001,2022-11-20_23h50.06.986,Info_measure_main_exp,2022.2.2,Win32,59.27682276,,,,,,,,,,,,,,,,,,masks/mask_005.jpg,,,,,,,,,,,,,,,,,,,,,,,,,,,,,,,,,,,,,,,,,,,0,3,3,4,1,,,,,,,,,,,,,,,,,,,,,,,,,,,,,,,,,,,,,,,,,,,,,,
782861,001,2022-11-20_23h50.06.986,Info_measure_main_exp,2022.2.2,Win32,59.27682276,,,,,,,,,,,,,,,,,,masks/mask_003.jpg,,,,,,,,,,,,,,,,,,,,,,,,,,,,,,,,,,,,,,,,,,,0,4,4,2,1,,,,,,,,,,,,,,,,,,,,,,,,,,,,,,,,,,,,,,,,,,,,,,
782861,001,2022-11-20_23h50.06.986,Info_measure_main_exp,2022.2.2,Win32,59.27682276,,,,,,,,,,,,,,,,,,masks/mask_001.jpg,,,,,,,,,,,,,,,,,,,,,,,,,,,,,,,,,,,,,,,,,,,,,,,,0,0,0,0,1,,,,,,,,,,,,,,,,,,,,,,,,,,,,,,,,,,,,,,,,,
782861,001,2022-11-20_23h50.06.986,Info_measure_main_exp,2022.2.2,Win32,59.27682276,,,,,,,,,,,,,,,,,,masks/mask_004.jpg,,,,,,,,,,,,,,,,,,,,,,,,,,,,,,,,,,,,,,,,,,,,,,,,0,1,1,3,1,,,,,,,,,,,,,,,,,,,,,,,,,,,,,,,,,,,,,,,,,
782861,001,2022-11-20_23h50.06.986,Info_measure_main_exp,2022.2.2,Win32,59.27682276,,,,,,,,,,,,,,,,,,masks/mask_003.jpg,,,,,,,,,,,,,,,,,,,,,,,,,,,,,,,,,,,,,,,,,,,,,,,,0,2,2,2,1,,,,,,,,,,,,,,,,,,,,,,,,,,,,,,,,,,,,,,,,,
782861,001,2022-11-20_23h50.06.986,Info_measure_main_exp,2022.2.2,Win32,59.27682276,,,,,,,,,,,,,,,,,,masks/mask_005.jpg,,,,,,,,,,,,,,,,,,,,,,,,,,,,,,,,,,,,,,,,,,,,,,,,0,3,3,4,1,,,,,,,,,,,,,,,,,,,,,,,,,,,,,,,,,,,,,,,,,
782861,001,2022-11-20_23h50.06.986,Info_measure_main_exp,2022.2.2,Win32,59.27682276,,,,,,,,,,,,,,,,,,masks/mask_002.jpg,,,,,,,,,,,,,,,,,,,,,,,,,,,,,,,,,,,,,,,,,,,,,,,,0,4,4,1,1,,,,,,,,,,,,,,,,,,,,,,,,,,,,,,,,,,,,,,,,,
782861,001,2022-11-20_23h50.06.986,Info_measure_main_exp,2022.2.2,Win32,59.27682276,,,,,,,,,,,,,,,,,,,,,,,,,,,,,,7,0.6283,1,,,,,,,,,,,,0,131,5,5,2082,2238,absent_patch/patch0002082.jpg,absent_patch/patch0002238.jpg,,,,,,,,,,,,,,,,,,,,0.05277782,0.107407393,1,0,0,response1disk,13,0.002777806,-0.001851859,1,0,0,center_square,0,12,12,22,1,,,,,,,,,,,,,,,,,,,,,,,
782861,001,2022-11-20_23h50.06.986,Info_measure_main_exp,2022.2.2,Win32,59.27682276,,,,,,,,,,,,,,,,,,masks/mask_002.jpg,,,,,,,,,,,,,,,,,,,,,,,,,,,,,,,,,,,,,,,,,,,0,0,0,1,1,,,,,,,,,,,,,,,,,,,,,,,,,,,,,,,,,,,,,,,,,,,,,,
782861,001,2022-11-20_23h50.06.986,Info_measure_main_exp,2022.2.2,Win32,59.27682276,,,,,,,,,,,,,,,,,,masks/mask_003.jpg,,,,,,,,,,,,,,,,,,,,,,,,,,,,,,,,,,,,,,,,,,,0,1,1,2,1,,,,,,,,,,,,,,,,,,,,,,,,,,,,,,,,,,,,,,,,,,,,,,
782861,001,2022-11-20_23h50.06.986,Info_measure_main_exp,2022.2.2,Win32,59.27682276,,,,,,,,,,,,,,,,,,masks/mask_005.jpg,,,,,,,,,,,,,,,,,,,,,,,,,,,,,,,,,,,,,,,,,,,0,2,2,4,1,,,,,,,,,,,,,,,,,,,,,,,,,,,,,,,,,,,,,,,,,,,,,,
782861,001,2022-11-20_23h50.06.986,Info_measure_main_exp,2022.2.2,Win32,59.27682276,,,,,,,,,,,,,,,,,,masks/mask_001.jpg,,,,,,,,,,,,,,,,,,,,,,,,,,,,,,,,,,,,,,,,,,,0,3,3,0,1,,,,,,,,,,,,,,,,,,,,,,,,,,,,,,,,,,,,,,,,,,,,,,
782861,001,2022-11-20_23h50.06.986,Info_measure_main_exp,2022.2.2,Win32,59.27682276,,,,,,,,,,,,,,,,,,masks/mask_004.jpg,,,,,,,,,,,,,,,,,,,,,,,,,,,,,,,,,,,,,,,,,,,0,4,4,3,1,,,,,,,,,,,,,,,,,,,,,,,,,,,,,,,,,,,,,,,,,,,,,,
782861,001,2022-11-20_23h50.06.986,Info_measure_main_exp,2022.2.2,Win32,59.27682276,,,,,,,,,,,,,,,,,,masks/mask_003.jpg,,,,,,,,,,,,,,,,,,,,,,,,,,,,,,,,,,,,,,,,,,,,,,,,0,0,0,2,1,,,,,,,,,,,,,,,,,,,,,,,,,,,,,,,,,,,,,,,,,
782861,001,2022-11-20_23h50.06.986,Info_measure_main_exp,2022.2.2,Win32,59.27682276,,,,,,,,,,,,,,,,,,masks/mask_004.jpg,,,,,,,,,,,,,,,,,,,,,,,,,,,,,,,,,,,,,,,,,,,,,,,,0,1,1,3,1,,,,,,,,,,,,,,,,,,,,,,,,,,,,,,,,,,,,,,,,,
782861,001,2022-11-20_23h50.06.986,Info_measure_main_exp,2022.2.2,Win32,59.27682276,,,,,,,,,,,,,,,,,,masks/mask_001.jpg,,,,,,,,,,,,,,,,,,,,,,,,,,,,,,,,,,,,,,,,,,,,,,,,0,2,2,0,1,,,,,,,,,,,,,,,,,,,,,,,,,,,,,,,,,,,,,,,,,
782861,001,2022-11-20_23h50.06.986,Info_measure_main_exp,2022.2.2,Win32,59.27682276,,,,,,,,,,,,,,,,,,masks/mask_005.jpg,,,,,,,,,,,,,,,,,,,,,,,,,,,,,,,,,,,,,,,,,,,,,,,,0,3,3,4,1,,,,,,,,,,,,,,,,,,,,,,,,,,,,,,,,,,,,,,,,,
782861,001,2022-11-20_23h50.06.986,Info_measure_main_exp,2022.2.2,Win32,59.27682276,,,,,,,,,,,,,,,,,,masks/mask_002.jpg,,,,,,,,,,,,,,,,,,,,,,,,,,,,,,,,,,,,,,,,,,,,,,,,0,4,4,1,1,,,,,,,,,,,,,,,,,,,,,,,,,,,,,,,,,,,,,,,,,
782861,001,2022-11-20_23h50.06.986,Info_measure_main_exp,2022.2.2,Win32,59.27682276,,,,,,,,,,,,,,,,,,,,,,,,,,,,,,7,0.4328,1,,,,,,,,,,,,0,131,5,5,2250,2178,absent_patch/patch0002250.jpg,absent_patch/patch0002178.jpg,,,,,,,,,,,,,,,,,,,,0.045370384,0.100925905,1,0,0,response1disk,14,0.000925912,0.003703683,1,0,0,center_square,0,13,13,48,1,,,,,,,,,,,,,,,,,,,,,,,
782861,001,2022-11-20_23h50.06.986,Info_measure_main_exp,2022.2.2,Win32,59.27682276,,,,,,,,,,,,,,,,,,masks/mask_001.jpg,,,,,,,,,,,,,,,,,,,,,,,,,,,,,,,,,,,,,,,,,,,0,0,0,0,1,,,,,,,,,,,,,,,,,,,,,,,,,,,,,,,,,,,,,,,,,,,,,,
782861,001,2022-11-20_23h50.06.986,Info_measure_main_exp,2022.2.2,Win32,59.27682276,,,,,,,,,,,,,,,,,,masks/mask_003.jpg,,,,,,,,,,,,,,,,,,,,,,,,,,,,,,,,,,,,,,,,,,,0,1,1,2,1,,,,,,,,,,,,,,,,,,,,,,,,,,,,,,,,,,,,,,,,,,,,,,
782861,001,2022-11-20_23h50.06.986,Info_measure_main_exp,2022.2.2,Win32,59.27682276,,,,,,,,,,,,,,,,,,masks/mask_002.jpg,,,,,,,,,,,,,,,,,,,,,,,,,,,,,,,,,,,,,,,,,,,0,2,2,1,1,,,,,,,,,,,,,,,,,,,,,,,,,,,,,,,,,,,,,,,,,,,,,,
782861,001,2022-11-20_23h50.06.986,Info_measure_main_exp,2022.2.2,Win32,59.27682276,,,,,,,,,,,,,,,,,,masks/mask_005.jpg,,,,,,,,,,,,,,,,,,,,,,,,,,,,,,,,,,,,,,,,,,,0,3,3,4,1,,,,,,,,,,,,,,,,,,,,,,,,,,,,,,,,,,,,,,,,,,,,,,
782861,001,2022-11-20_23h50.06.986,Info_measure_main_exp,2022.2.2,Win32,59.27682276,,,,,,,,,,,,,,,,,,masks/mask_004.jpg,,,,,,,,,,,,,,,,,,,,,,,,,,,,,,,,,,,,,,,,,,,0,4,4,3,1,,,,,,,,,,,,,,,,,,,,,,,,,,,,,,,,,,,,,,,,,,,,,,
782861,001,2022-11-20_23h50.06.986,Info_measure_main_exp,2022.2.2,Win32,59.27682276,,,,,,,,,,,,,,,,,,masks/mask_003.jpg,,,,,,,,,,,,,,,,,,,,,,,,,,,,,,,,,,,,,,,,,,,,,,,,0,0,0,2,1,,,,,,,,,,,,,,,,,,,,,,,,,,,,,,,,,,,,,,,,,
782861,001,2022-11-20_23h50.06.986,Info_measure_main_exp,2022.2.2,Win32,59.27682276,,,,,,,,,,,,,,,,,,masks/mask_002.jpg,,,,,,,,,,,,,,,,,,,,,,,,,,,,,,,,,,,,,,,,,,,,,,,,0,1,1,1,1,,,,,,,,,,,,,,,,,,,,,,,,,,,,,,,,,,,,,,,,,
782861,001,2022-11-20_23h50.06.986,Info_measure_main_exp,2022.2.2,Win32,59.27682276,,,,,,,,,,,,,,,,,,masks/mask_004.jpg,,,,,,,,,,,,,,,,,,,,,,,,,,,,,,,,,,,,,,,,,,,,,,,,0,2,2,3,1,,,,,,,,,,,,,,,,,,,,,,,,,,,,,,,,,,,,,,,,,
782861,001,2022-11-20_23h50.06.986,Info_measure_main_exp,2022.2.2,Win32,59.27682276,,,,,,,,,,,,,,,,,,masks/mask_005.jpg,,,,,,,,,,,,,,,,,,,,,,,,,,,,,,,,,,,,,,,,,,,,,,,,0,3,3,4,1,,,,,,,,,,,,,,,,,,,,,,,,,,,,,,,,,,,,,,,,,
782861,001,2022-11-20_23h50.06.986,Info_measure_main_exp,2022.2.2,Win32,59.27682276,,,,,,,,,,,,,,,,,,masks/mask_001.jpg,,,,,,,,,,,,,,,,,,,,,,,,,,,,,,,,,,,,,,,,,,,,,,,,0,4,4,0,1,,,,,,,,,,,,,,,,,,,,,,,,,,,,,,,,,,,,,,,,,
782861,001,2022-11-20_23h50.06.986,Info_measure_main_exp,2022.2.2,Win32,59.27682276,,,,,,,,,,,,,,,,,,,,,,,,,,,,,,5,1.5857,1,,,,,,,,,,,,0,131,5,5,2190,1974,absent_patch/patch0002190.jpg,absent_patch/patch0001974.jpg,,,,,,,,,,,,,,,,,,,,0.099074116,-0.029629637,1,0,0,response3disk,15,-0.007407365,-0.005555577,1,0,0,center_square,0,14,14,119,1,,,,,,,,,,,,,,,,,,,,,,,
782861,001,2022-11-20_23h50.06.986,Info_measure_main_exp,2022.2.2,Win32,59.27682276,,,,,,,,,,,,,,,,,,masks/mask_001.jpg,,,,,,,,,,,,,,,,,,,,,,,,,,,,,,,,,,,,,,,,,,,0,0,0,0,1,,,,,,,,,,,,,,,,,,,,,,,,,,,,,,,,,,,,,,,,,,,,,,
782861,001,2022-11-20_23h50.06.986,Info_measure_main_exp,2022.2.2,Win32,59.27682276,,,,,,,,,,,,,,,,,,masks/mask_005.jpg,,,,,,,,,,,,,,,,,,,,,,,,,,,,,,,,,,,,,,,,,,,0,1,1,4,1,,,,,,,,,,,,,,,,,,,,,,,,,,,,,,,,,,,,,,,,,,,,,,
782861,001,2022-11-20_23h50.06.986,Info_measure_main_exp,2022.2.2,Win32,59.27682276,,,,,,,,,,,,,,,,,,masks/mask_003.jpg,,,,,,,,,,,,,,,,,,,,,,,,,,,,,,,,,,,,,,,,,,,0,2,2,2,1,,,,,,,,,,,,,,,,,,,,,,,,,,,,,,,,,,,,,,,,,,,,,,
782861,001,2022-11-20_23h50.06.986,Info_measure_main_exp,2022.2.2,Win32,59.27682276,,,,,,,,,,,,,,,,,,masks/mask_002.jpg,,,,,,,,,,,,,,,,,,,,,,,,,,,,,,,,,,,,,,,,,,,0,3,3,1,1,,,,,,,,,,,,,,,,,,,,,,,,,,,,,,,,,,,,,,,,,,,,,,
782861,001,2022-11-20_23h50.06.986,Info_measure_main_exp,2022.2.2,Win32,59.27682276,,,,,,,,,,,,,,,,,,masks/mask_004.jpg,,,,,,,,,,,,,,,,,,,,,,,,,,,,,,,,,,,,,,,,,,,0,4,4,3,1,,,,,,,,,,,,,,,,,,,,,,,,,,,,,,,,,,,,,,,,,,,,,,
782861,001,2022-11-20_23h50.06.986,Info_measure_main_exp,2022.2.2,Win32,59.27682276,,,,,,,,,,,,,,,,,,masks/mask_005.jpg,,,,,,,,,,,,,,,,,,,,,,,,,,,,,,,,,,,,,,,,,,,,,,,,0,0,0,4,1,,,,,,,,,,,,,,,,,,,,,,,,,,,,,,,,,,,,,,,,,
782861,001,2022-11-20_23h50.06.986,Info_measure_main_exp,2022.2.2,Win32,59.27682276,,,,,,,,,,,,,,,,,,masks/mask_001.jpg,,,,,,,,,,,,,,,,,,,,,,,,,,,,,,,,,,,,,,,,,,,,,,,,0,1,1,0,1,,,,,,,,,,,,,,,,,,,,,,,,,,,,,,,,,,,,,,,,,
782861,001,2022-11-20_23h50.06.986,Info_measure_main_exp,2022.2.2,Win32,59.27682276,,,,,,,,,,,,,,,,,,masks/mask_004.jpg,,,,,,,,,,,,,,,,,,,,,,,,,,,,,,,,,,,,,,,,,,,,,,,,0,2,2,3,1,,,,,,,,,,,,,,,,,,,,,,,,,,,,,,,,,,,,,,,,,
782861,001,2022-11-20_23h50.06.986,Info_measure_main_exp,2022.2.2,Win32,59.27682276,,,,,,,,,,,,,,,,,,masks/mask_003.jpg,,,,,,,,,,,,,,,,,,,,,,,,,,,,,,,,,,,,,,,,,,,,,,,,0,3,3,2,1,,,,,,,,,,,,,,,,,,,,,,,,,,,,,,,,,,,,,,,,,
782861,001,2022-11-20_23h50.06.986,Info_measure_main_exp,2022.2.2,Win32,59.27682276,,,,,,,,,,,,,,,,,,masks/mask_002.jpg,,,,,,,,,,,,,,,,,,,,,,,,,,,,,,,,,,,,,,,,,,,,,,,,0,4,4,1,1,,,,,,,,,,,,,,,,,,,,,,,,,,,,,,,,,,,,,,,,,
782861,001,2022-11-20_23h50.06.986,Info_measure_main_exp,2022.2.2,Win32,59.27682276,,,,,,,,,,,,,,,,,,,,,,,,,,,,,,7,0.4831,1,,,,,,,,,,,,0,131,5,5,1986,2238,absent_patch/patch0001986.jpg,absent_patch/patch0002238.jpg,,,,,,,,,,,,,,,,,,,,0.049074102,0.113888882,1,0,0,response1disk,16,0.007407436,-0.013888889,1,0,0,center_square,0,15,15,31,1,,,,,,,,,,,,,,,,,,,,,,,
782861,001,2022-11-20_23h50.06.986,Info_measure_main_exp,2022.2.2,Win32,59.27682276,,,,,,,,,,,,,,,,,,masks/mask_002.jpg,,,,,,,,,,,,,,,,,,,,,,,,,,,,,,,,,,,,,,,,,,,0,0,0,1,1,,,,,,,,,,,,,,,,,,,,,,,,,,,,,,,,,,,,,,,,,,,,,,
782861,001,2022-11-20_23h50.06.986,Info_measure_main_exp,2022.2.2,Win32,59.27682276,,,,,,,,,,,,,,,,,,masks/mask_003.jpg,,,,,,,,,,,,,,,,,,,,,,,,,,,,,,,,,,,,,,,,,,,0,1,1,2,1,,,,,,,,,,,,,,,,,,,,,,,,,,,,,,,,,,,,,,,,,,,,,,
782861,001,2022-11-20_23h50.06.986,Info_measure_main_exp,2022.2.2,Win32,59.27682276,,,,,,,,,,,,,,,,,,masks/mask_005.jpg,,,,,,,,,,,,,,,,,,,,,,,,,,,,,,,,,,,,,,,,,,,0,2,2,4,1,,,,,,,,,,,,,,,,,,,,,,,,,,,,,,,,,,,,,,,,,,,,,,
782861,001,2022-11-20_23h50.06.986,Info_measure_main_exp,2022.2.2,Win32,59.27682276,,,,,,,,,,,,,,,,,,masks/mask_001.jpg,,,,,,,,,,,,,,,,,,,,,,,,,,,,,,,,,,,,,,,,,,,0,3,3,0,1,,,,,,,,,,,,,,,,,,,,,,,,,,,,,,,,,,,,,,,,,,,,,,
782861,001,2022-11-20_23h50.06.986,Info_measure_main_exp,2022.2.2,Win32,59.27682276,,,,,,,,,,,,,,,,,,masks/mask_004.jpg,,,,,,,,,,,,,,,,,,,,,,,,,,,,,,,,,,,,,,,,,,,0,4,4,3,1,,,,,,,,,,,,,,,,,,,,,,,,,,,,,,,,,,,,,,,,,,,,,,
782861,001,2022-11-20_23h50.06.986,Info_measure_main_exp,2022.2.2,Win32,59.27682276,,,,,,,,,,,,,,,,,,masks/mask_002.jpg,,,,,,,,,,,,,,,,,,,,,,,,,,,,,,,,,,,,,,,,,,,,,,,,0,0,0,1,1,,,,,,,,,,,,,,,,,,,,,,,,,,,,,,,,,,,,,,,,,
782861,001,2022-11-20_23h50.06.986,Info_measure_main_exp,2022.2.2,Win32,59.27682276,,,,,,,,,,,,,,,,,,masks/mask_003.jpg,,,,,,,,,,,,,,,,,,,,,,,,,,,,,,,,,,,,,,,,,,,,,,,,0,1,1,2,1,,,,,,,,,,,,,,,,,,,,,,,,,,,,,,,,,,,,,,,,,
782861,001,2022-11-20_23h50.06.986,Info_measure_main_exp,2022.2.2,Win32,59.27682276,,,,,,,,,,,,,,,,,,masks/mask_004.jpg,,,,,,,,,,,,,,,,,,,,,,,,,,,,,,,,,,,,,,,,,,,,,,,,0,2,2,3,1,,,,,,,,,,,,,,,,,,,,,,,,,,,,,,,,,,,,,,,,,
782861,001,2022-11-20_23h50.06.986,Info_measure_main_exp,2022.2.2,Win32,59.27682276,,,,,,,,,,,,,,,,,,masks/mask_001.jpg,,,,,,,,,,,,,,,,,,,,,,,,,,,,,,,,,,,,,,,,,,,,,,,,0,3,3,0,1,,,,,,,,,,,,,,,,,,,,,,,,,,,,,,,,,,,,,,,,,
782861,001,2022-11-20_23h50.06.986,Info_measure_main_exp,2022.2.2,Win32,59.27682276,,,,,,,,,,,,,,,,,,masks/mask_005.jpg,,,,,,,,,,,,,,,,,,,,,,,,,,,,,,,,,,,,,,,,,,,,,,,,0,4,4,4,1,,,,,,,,,,,,,,,,,,,,,,,,,,,,,,,,,,,,,,,,,
782861,001,2022-11-20_23h50.06.986,Info_measure_main_exp,2022.2.2,Win32,59.27682276,,,,,,,,,,,,,,,,,,,,,,,,,,,,,,7,0.6993,1,,,,,,,,,,,,0,131,5,5,2238,2214,absent_patch/patch0002238.jpg,absent_patch/patch0002214.jpg,,,,,,,,,,,,,,,,,,,,0.066666709,0.127777771,1,0,0,response1disk,17,0.007407436,-0.000925947,1,0,0,center_square,0,16,16,81,1,,,,,,,,,,,,,,,,,,,,,,,
782861,001,2022-11-20_23h50.06.986,Info_measure_main_exp,2022.2.2,Win32,59.27682276,,,,,,,,,,,,,,,,,,masks/mask_004.jpg,,,,,,,,,,,,,,,,,,,,,,,,,,,,,,,,,,,,,,,,,,,0,0,0,3,1,,,,,,,,,,,,,,,,,,,,,,,,,,,,,,,,,,,,,,,,,,,,,,
782861,001,2022-11-20_23h50.06.986,Info_measure_main_exp,2022.2.2,Win32,59.27682276,,,,,,,,,,,,,,,,,,masks/mask_003.jpg,,,,,,,,,,,,,,,,,,,,,,,,,,,,,,,,,,,,,,,,,,,0,1,1,2,1,,,,,,,,,,,,,,,,,,,,,,,,,,,,,,,,,,,,,,,,,,,,,,
782861,001,2022-11-20_23h50.06.986,Info_measure_main_exp,2022.2.2,Win32,59.27682276,,,,,,,,,,,,,,,,,,masks/mask_002.jpg,,,,,,,,,,,,,,,,,,,,,,,,,,,,,,,,,,,,,,,,,,,0,2,2,1,1,,,,,,,,,,,,,,,,,,,,,,,,,,,,,,,,,,,,,,,,,,,,,,
782861,001,2022-11-20_23h50.06.986,Info_measure_main_exp,2022.2.2,Win32,59.27682276,,,,,,,,,,,,,,,,,,masks/mask_001.jpg,,,,,,,,,,,,,,,,,,,,,,,,,,,,,,,,,,,,,,,,,,,0,3,3,0,1,,,,,,,,,,,,,,,,,,,,,,,,,,,,,,,,,,,,,,,,,,,,,,
782861,001,2022-11-20_23h50.06.986,Info_measure_main_exp,2022.2.2,Win32,59.27682276,,,,,,,,,,,,,,,,,,masks/mask_005.jpg,,,,,,,,,,,,,,,,,,,,,,,,,,,,,,,,,,,,,,,,,,,0,4,4,4,1,,,,,,,,,,,,,,,,,,,,,,,,,,,,,,,,,,,,,,,,,,,,,,
782861,001,2022-11-20_23h50.06.986,Info_measure_main_exp,2022.2.2,Win32,59.27682276,,,,,,,,,,,,,,,,,,masks/mask_004.jpg,,,,,,,,,,,,,,,,,,,,,,,,,,,,,,,,,,,,,,,,,,,,,,,,0,0,0,3,1,,,,,,,,,,,,,,,,,,,,,,,,,,,,,,,,,,,,,,,,,
782861,001,2022-11-20_23h50.06.986,Info_measure_main_exp,2022.2.2,Win32,59.27682276,,,,,,,,,,,,,,,,,,masks/mask_002.jpg,,,,,,,,,,,,,,,,,,,,,,,,,,,,,,,,,,,,,,,,,,,,,,,,0,1,1,1,1,,,,,,,,,,,,,,,,,,,,,,,,,,,,,,,,,,,,,,,,,
782861,001,2022-11-20_23h50.06.986,Info_measure_main_exp,2022.2.2,Win32,59.27682276,,,,,,,,,,,,,,,,,,masks/mask_005.jpg,,,,,,,,,,,,,,,,,,,,,,,,,,,,,,,,,,,,,,,,,,,,,,,,0,2,2,4,1,,,,,,,,,,,,,,,,,,,,,,,,,,,,,,,,,,,,,,,,,
782861,001,2022-11-20_23h50.06.986,Info_measure_main_exp,2022.2.2,Win32,59.27682276,,,,,,,,,,,,,,,,,,masks/mask_001.jpg,,,,,,,,,,,,,,,,,,,,,,,,,,,,,,,,,,,,,,,,,,,,,,,,0,3,3,0,1,,,,,,,,,,,,,,,,,,,,,,,,,,,,,,,,,,,,,,,,,
782861,001,2022-11-20_23h50.06.986,Info_measure_main_exp,2022.2.2,Win32,59.27682276,,,,,,,,,,,,,,,,,,masks/mask_003.jpg,,,,,,,,,,,,,,,,,,,,,,,,,,,,,,,,,,,,,,,,,,,,,,,,0,4,4,2,1,,,,,,,,,,,,,,,,,,,,,,,,,,,,,,,,,,,,,,,,,
782861,001,2022-11-20_23h50.06.986,Info_measure_main_exp,2022.2.2,Win32,59.27682276,,,,,,,,,,,,,,,,,,,,,,,,,,,,,,7,0.7311,1,,,,,,,,,,,,0,131,5,5,2154,2298,absent_patch/patch0002154.jpg,absent_patch/patch0002298.jpg,,,,,,,,,,,,,,,,,,,,0.079629616,0.150925919,1,0,0,response1disk,18,0.006481524,0.006481489,1,0,0,center_square,0,17,17,27,1,,,,,,,,,,,,,,,,,,,,,,,
782861,001,2022-11-20_23h50.06.986,Info_measure_main_exp,2022.2.2,Win32,59.27682276,,,,,,,,,,,,,,,,,,masks/mask_005.jpg,,,,,,,,,,,,,,,,,,,,,,,,,,,,,,,,,,,,,,,,,,,0,0,0,4,1,,,,,,,,,,,,,,,,,,,,,,,,,,,,,,,,,,,,,,,,,,,,,,
782861,001,2022-11-20_23h50.06.986,Info_measure_main_exp,2022.2.2,Win32,59.27682276,,,,,,,,,,,,,,,,,,masks/mask_003.jpg,,,,,,,,,,,,,,,,,,,,,,,,,,,,,,,,,,,,,,,,,,,0,1,1,2,1,,,,,,,,,,,,,,,,,,,,,,,,,,,,,,,,,,,,,,,,,,,,,,
782861,001,2022-11-20_23h50.06.986,Info_measure_main_exp,2022.2.2,Win32,59.27682276,,,,,,,,,,,,,,,,,,masks/mask_001.jpg,,,,,,,,,,,,,,,,,,,,,,,,,,,,,,,,,,,,,,,,,,,0,2,2,0,1,,,,,,,,,,,,,,,,,,,,,,,,,,,,,,,,,,,,,,,,,,,,,,
782861,001,2022-11-20_23h50.06.986,Info_measure_main_exp,2022.2.2,Win32,59.27682276,,,,,,,,,,,,,,,,,,masks/mask_002.jpg,,,,,,,,,,,,,,,,,,,,,,,,,,,,,,,,,,,,,,,,,,,0,3,3,1,1,,,,,,,,,,,,,,,,,,,,,,,,,,,,,,,,,,,,,,,,,,,,,,
782861,001,2022-11-20_23h50.06.986,Info_measure_main_exp,2022.2.2,Win32,59.27682276,,,,,,,,,,,,,,,,,,masks/mask_004.jpg,,,,,,,,,,,,,,,,,,,,,,,,,,,,,,,,,,,,,,,,,,,0,4,4,3,1,,,,,,,,,,,,,,,,,,,,,,,,,,,,,,,,,,,,,,,,,,,,,,
782861,001,2022-11-20_23h50.06.986,Info_measure_main_exp,2022.2.2,Win32,59.27682276,,,,,,,,,,,,,,,,,,masks/mask_002.jpg,,,,,,,,,,,,,,,,,,,,,,,,,,,,,,,,,,,,,,,,,,,,,,,,0,0,0,1,1,,,,,,,,,,,,,,,,,,,,,,,,,,,,,,,,,,,,,,,,,
782861,001,2022-11-20_23h50.06.986,Info_measure_main_exp,2022.2.2,Win32,59.27682276,,,,,,,,,,,,,,,,,,masks/mask_004.jpg,,,,,,,,,,,,,,,,,,,,,,,,,,,,,,,,,,,,,,,,,,,,,,,,0,1,1,3,1,,,,,,,,,,,,,,,,,,,,,,,,,,,,,,,,,,,,,,,,,
782861,001,2022-11-20_23h50.06.986,Info_measure_main_exp,2022.2.2,Win32,59.27682276,,,,,,,,,,,,,,,,,,masks/mask_003.jpg,,,,,,,,,,,,,,,,,,,,,,,,,,,,,,,,,,,,,,,,,,,,,,,,0,2,2,2,1,,,,,,,,,,,,,,,,,,,,,,,,,,,,,,,,,,,,,,,,,
782861,001,2022-11-20_23h50.06.986,Info_measure_main_exp,2022.2.2,Win32,59.27682276,,,,,,,,,,,,,,,,,,masks/mask_005.jpg,,,,,,,,,,,,,,,,,,,,,,,,,,,,,,,,,,,,,,,,,,,,,,,,0,3,3,4,1,,,,,,,,,,,,,,,,,,,,,,,,,,,,,,,,,,,,,,,,,
782861,001,2022-11-20_23h50.06.986,Info_measure_main_exp,2022.2.2,Win32,59.27682276,,,,,,,,,,,,,,,,,,masks/mask_001.jpg,,,,,,,,,,,,,,,,,,,,,,,,,,,,,,,,,,,,,,,,,,,,,,,,0,4,4,0,1,,,,,,,,,,,,,,,,,,,,,,,,,,,,,,,,,,,,,,,,,
782861,001,2022-11-20_23h50.06.986,Info_measure_main_exp,2022.2.2,Win32,59.27682276,,,,,,,,,,,,,,,,,,,,,,,,,,,,,,6,0.5699,1,,,,,,,,,,,,0,131,5,5,1950,2142,absent_patch/patch0001950.jpg,absent_patch/patch0002142.jpg,,,,,,,,,,,,,,,,,,,,0.150925954,0.082407386,1,0,0,response1disk,19,-0.008333347,-0.000925947,1,0,0,center_square,0,18,18,83,1,,,,,,,,,,,,,,,,,,,,,,,
782861,001,2022-11-20_23h50.06.986,Info_measure_main_exp,2022.2.2,Win32,59.27682276,,,,,,,,,,,,,,,,,,masks/mask_003.jpg,,,,,,,,,,,,,,,,,,,,,,,,,,,,,,,,,,,,,,,,,,,0,0,0,2,1,,,,,,,,,,,,,,,,,,,,,,,,,,,,,,,,,,,,,,,,,,,,,,
782861,001,2022-11-20_23h50.06.986,Info_measure_main_exp,2022.2.2,Win32,59.27682276,,,,,,,,,,,,,,,,,,masks/mask_005.jpg,,,,,,,,,,,,,,,,,,,,,,,,,,,,,,,,,,,,,,,,,,,0,1,1,4,1,,,,,,,,,,,,,,,,,,,,,,,,,,,,,,,,,,,,,,,,,,,,,,
782861,001,2022-11-20_23h50.06.986,Info_measure_main_exp,2022.2.2,Win32,59.27682276,,,,,,,,,,,,,,,,,,masks/mask_001.jpg,,,,,,,,,,,,,,,,,,,,,,,,,,,,,,,,,,,,,,,,,,,0,2,2,0,1,,,,,,,,,,,,,,,,,,,,,,,,,,,,,,,,,,,,,,,,,,,,,,
782861,001,2022-11-20_23h50.06.986,Info_measure_main_exp,2022.2.2,Win32,59.27682276,,,,,,,,,,,,,,,,,,masks/mask_002.jpg,,,,,,,,,,,,,,,,,,,,,,,,,,,,,,,,,,,,,,,,,,,0,3,3,1,1,,,,,,,,,,,,,,,,,,,,,,,,,,,,,,,,,,,,,,,,,,,,,,
782861,001,2022-11-20_23h50.06.986,Info_measure_main_exp,2022.2.2,Win32,59.27682276,,,,,,,,,,,,,,,,,,masks/mask_004.jpg,,,,,,,,,,,,,,,,,,,,,,,,,,,,,,,,,,,,,,,,,,,0,4,4,3,1,,,,,,,,,,,,,,,,,,,,,,,,,,,,,,,,,,,,,,,,,,,,,,
782861,001,2022-11-20_23h50.06.986,Info_measure_main_exp,2022.2.2,Win32,59.27682276,,,,,,,,,,,,,,,,,,masks/mask_003.jpg,,,,,,,,,,,,,,,,,,,,,,,,,,,,,,,,,,,,,,,,,,,,,,,,0,0,0,2,1,,,,,,,,,,,,,,,,,,,,,,,,,,,,,,,,,,,,,,,,,
782861,001,2022-11-20_23h50.06.986,Info_measure_main_exp,2022.2.2,Win32,59.27682276,,,,,,,,,,,,,,,,,,masks/mask_002.jpg,,,,,,,,,,,,,,,,,,,,,,,,,,,,,,,,,,,,,,,,,,,,,,,,0,1,1,1,1,,,,,,,,,,,,,,,,,,,,,,,,,,,,,,,,,,,,,,,,,
782861,001,2022-11-20_23h50.06.986,Info_measure_main_exp,2022.2.2,Win32,59.27682276,,,,,,,,,,,,,,,,,,masks/mask_004.jpg,,,,,,,,,,,,,,,,,,,,,,,,,,,,,,,,,,,,,,,,,,,,,,,,0,2,2,3,1,,,,,,,,,,,,,,,,,,,,,,,,,,,,,,,,,,,,,,,,,
782861,001,2022-11-20_23h50.06.986,Info_measure_main_exp,2022.2.2,Win32,59.27682276,,,,,,,,,,,,,,,,,,masks/mask_005.jpg,,,,,,,,,,,,,,,,,,,,,,,,,,,,,,,,,,,,,,,,,,,,,,,,0,3,3,4,1,,,,,,,,,,,,,,,,,,,,,,,,,,,,,,,,,,,,,,,,,
782861,001,2022-11-20_23h50.06.986,Info_measure_main_exp,2022.2.2,Win32,59.27682276,,,,,,,,,,,,,,,,,,masks/mask_001.jpg,,,,,,,,,,,,,,,,,,,,,,,,,,,,,,,,,,,,,,,,,,,,,,,,0,4,4,0,1,,,,,,,,,,,,,,,,,,,,,,,,,,,,,,,,,,,,,,,,,
782861,001,2022-11-20_23h50.06.986,Info_measure_main_exp,2022.2.2,Win32,59.27682276,,,,,,,,,,,,,,,,,,,,,,,,,,,,,,6,0.5867,1,,,,,,,,,,,,0,131,5,5,1974,2238,absent_patch/patch0001974.jpg,absent_patch/patch0002238.jpg,,,,,,,,,,,,,,,,,,,,0.128703718,0.053703697,1,0,0,response1disk,20,0.002777806,0.005555541,1,0,0,center_square,0,19,19,95,1,,,,,,,,,,,,,,,,,,,,,,,
782861,001,2022-11-20_23h50.06.986,Info_measure_main_exp,2022.2.2,Win32,59.27682276,,,,,,,,,,,,,,,,,,masks/mask_002.jpg,,,,,,,,,,,,,,,,,,,,,,,,,,,,,,,,,,,,,,,,,,,0,0,0,1,1,,,,,,,,,,,,,,,,,,,,,,,,,,,,,,,,,,,,,,,,,,,,,,
782861,001,2022-11-20_23h50.06.986,Info_measure_main_exp,2022.2.2,Win32,59.27682276,,,,,,,,,,,,,,,,,,masks/mask_004.jpg,,,,,,,,,,,,,,,,,,,,,,,,,,,,,,,,,,,,,,,,,,,0,1,1,3,1,,,,,,,,,,,,,,,,,,,,,,,,,,,,,,,,,,,,,,,,,,,,,,
782861,001,2022-11-20_23h50.06.986,Info_measure_main_exp,2022.2.2,Win32,59.27682276,,,,,,,,,,,,,,,,,,masks/mask_005.jpg,,,,,,,,,,,,,,,,,,,,,,,,,,,,,,,,,,,,,,,,,,,0,2,2,4,1,,,,,,,,,,,,,,,,,,,,,,,,,,,,,,,,,,,,,,,,,,,,,,
782861,001,2022-11-20_23h50.06.986,Info_measure_main_exp,2022.2.2,Win32,59.27682276,,,,,,,,,,,,,,,,,,masks/mask_001.jpg,,,,,,,,,,,,,,,,,,,,,,,,,,,,,,,,,,,,,,,,,,,0,3,3,0,1,,,,,,,,,,,,,,,,,,,,,,,,,,,,,,,,,,,,,,,,,,,,,,
782861,001,2022-11-20_23h50.06.986,Info_measure_main_exp,2022.2.2,Win32,59.27682276,,,,,,,,,,,,,,,,,,masks/mask_003.jpg,,,,,,,,,,,,,,,,,,,,,,,,,,,,,,,,,,,,,,,,,,,0,4,4,2,1,,,,,,,,,,,,,,,,,,,,,,,,,,,,,,,,,,,,,,,,,,,,,,
782861,001,2022-11-20_23h50.06.986,Info_measure_main_exp,2022.2.2,Win32,59.27682276,,,,,,,,,,,,,,,,,,masks/mask_004.jpg,,,,,,,,,,,,,,,,,,,,,,,,,,,,,,,,,,,,,,,,,,,,,,,,0,0,0,3,1,,,,,,,,,,,,,,,,,,,,,,,,,,,,,,,,,,,,,,,,,
782861,001,2022-11-20_23h50.06.986,Info_measure_main_exp,2022.2.2,Win32,59.27682276,,,,,,,,,,,,,,,,,,masks/mask_003.jpg,,,,,,,,,,,,,,,,,,,,,,,,,,,,,,,,,,,,,,,,,,,,,,,,0,1,1,2,1,,,,,,,,,,,,,,,,,,,,,,,,,,,,,,,,,,,,,,,,,
782861,001,2022-11-20_23h50.06.986,Info_measure_main_exp,2022.2.2,Win32,59.27682276,,,,,,,,,,,,,,,,,,masks/mask_002.jpg,,,,,,,,,,,,,,,,,,,,,,,,,,,,,,,,,,,,,,,,,,,,,,,,0,2,2,1,1,,,,,,,,,,,,,,,,,,,,,,,,,,,,,,,,,,,,,,,,,
782861,001,2022-11-20_23h50.06.986,Info_measure_main_exp,2022.2.2,Win32,59.27682276,,,,,,,,,,,,,,,,,,masks/mask_005.jpg,,,,,,,,,,,,,,,,,,,,,,,,,,,,,,,,,,,,,,,,,,,,,,,,0,3,3,4,1,,,,,,,,,,,,,,,,,,,,,,,,,,,,,,,,,,,,,,,,,
782861,001,2022-11-20_23h50.06.986,Info_measure_main_exp,2022.2.2,Win32,59.27682276,,,,,,,,,,,,,,,,,,masks/mask_001.jpg,,,,,,,,,,,,,,,,,,,,,,,,,,,,,,,,,,,,,,,,,,,,,,,,0,4,4,0,1,,,,,,,,,,,,,,,,,,,,,,,,,,,,,,,,,,,,,,,,,
782861,001,2022-11-20_23h50.06.986,Info_measure_main_exp,2022.2.2,Win32,59.27682276,,,,,,,,,,,,,,,,,,,,,,,,,,,,,,7,0.4362,1,,,,,,,,,,,,0,131,5,5,1974,2178,absent_patch/patch0001974.jpg,absent_patch/patch0002178.jpg,,,,,,,,,,,,,,,,,,,,0.061111097,0.137962942,1,0,0,response1disk,21,0.009259259,-0.008333347,1,0,0,center_square,0,20,20,44,1,,,,,,,,,,,,,,,,,,,,,,,
782861,001,2022-11-20_23h50.06.986,Info_measure_main_exp,2022.2.2,Win32,59.27682276,,,,,,,,,,,,,,,,,,masks/mask_004.jpg,,,,,,,,,,,,,,,,,,,,,,,,,,,,,,,,,,,,,,,,,,,0,0,0,3,1,,,,,,,,,,,,,,,,,,,,,,,,,,,,,,,,,,,,,,,,,,,,,,
782861,001,2022-11-20_23h50.06.986,Info_measure_main_exp,2022.2.2,Win32,59.27682276,,,,,,,,,,,,,,,,,,masks/mask_003.jpg,,,,,,,,,,,,,,,,,,,,,,,,,,,,,,,,,,,,,,,,,,,0,1,1,2,1,,,,,,,,,,,,,,,,,,,,,,,,,,,,,,,,,,,,,,,,,,,,,,
782861,001,2022-11-20_23h50.06.986,Info_measure_main_exp,2022.2.2,Win32,59.27682276,,,,,,,,,,,,,,,,,,masks/mask_002.jpg,,,,,,,,,,,,,,,,,,,,,,,,,,,,,,,,,,,,,,,,,,,0,2,2,1,1,,,,,,,,,,,,,,,,,,,,,,,,,,,,,,,,,,,,,,,,,,,,,,
782861,001,2022-11-20_23h50.06.986,Info_measure_main_exp,2022.2.2,Win32,59.27682276,,,,,,,,,,,,,,,,,,masks/mask_001.jpg,,,,,,,,,,,,,,,,,,,,,,,,,,,,,,,,,,,,,,,,,,,0,3,3,0,1,,,,,,,,,,,,,,,,,,,,,,,,,,,,,,,,,,,,,,,,,,,,,,
782861,001,2022-11-20_23h50.06.986,Info_measure_main_exp,2022.2.2,Win32,59.27682276,,,,,,,,,,,,,,,,,,masks/mask_005.jpg,,,,,,,,,,,,,,,,,,,,,,,,,,,,,,,,,,,,,,,,,,,0,4,4,4,1,,,,,,,,,,,,,,,,,,,,,,,,,,,,,,,,,,,,,,,,,,,,,,
782861,001,2022-11-20_23h50.06.986,Info_measure_main_exp,2022.2.2,Win32,59.27682276,,,,,,,,,,,,,,,,,,masks/mask_003.jpg,,,,,,,,,,,,,,,,,,,,,,,,,,,,,,,,,,,,,,,,,,,,,,,,0,0,0,2,1,,,,,,,,,,,,,,,,,,,,,,,,,,,,,,,,,,,,,,,,,
782861,001,2022-11-20_23h50.06.986,Info_measure_main_exp,2022.2.2,Win32,59.27682276,,,,,,,,,,,,,,,,,,masks/mask_005.jpg,,,,,,,,,,,,,,,,,,,,,,,,,,,,,,,,,,,,,,,,,,,,,,,,0,1,1,4,1,,,,,,,,,,,,,,,,,,,,,,,,,,,,,,,,,,,,,,,,,
782861,001,2022-11-20_23h50.06.986,Info_measure_main_exp,2022.2.2,Win32,59.27682276,,,,,,,,,,,,,,,,,,masks/mask_001.jpg,,,,,,,,,,,,,,,,,,,,,,,,,,,,,,,,,,,,,,,,,,,,,,,,0,2,2,0,1,,,,,,,,,,,,,,,,,,,,,,,,,,,,,,,,,,,,,,,,,
782861,001,2022-11-20_23h50.06.986,Info_measure_main_exp,2022.2.2,Win32,59.27682276,,,,,,,,,,,,,,,,,,masks/mask_004.jpg,,,,,,,,,,,,,,,,,,,,,,,,,,,,,,,,,,,,,,,,,,,,,,,,0,3,3,3,1,,,,,,,,,,,,,,,,,,,,,,,,,,,,,,,,,,,,,,,,,
782861,001,2022-11-20_23h50.06.986,Info_measure_main_exp,2022.2.2,Win32,59.27682276,,,,,,,,,,,,,,,,,,masks/mask_002.jpg,,,,,,,,,,,,,,,,,,,,,,,,,,,,,,,,,,,,,,,,,,,,,,,,0,4,4,1,1,,,,,,,,,,,,,,,,,,,,,,,,,,,,,,,,,,,,,,,,,
782861,001,2022-11-20_23h50.06.986,Info_measure_main_exp,2022.2.2,Win32,59.27682276,,,,,,,,,,,,,,,,,,,,,,,,,,,,,,6,0.5135,1,,,,,,,,,,,,0,131,5,5,2250,2238,absent_patch/patch0002250.jpg,absent_patch/patch0002238.jpg,,,,,,,,,,,,,,,,,,,,0.132407436,0.03611109,1,0,0,response1disk,22,0.00462963,-0.002777771,1,0,0,center_square,0,21,21,110,1,,,,,,,,,,,,,,,,,,,,,,,
782861,001,2022-11-20_23h50.06.986,Info_measure_main_exp,2022.2.2,Win32,59.27682276,,,,,,,,,,,,,,,,,,masks/mask_003.jpg,,,,,,,,,,,,,,,,,,,,,,,,,,,,,,,,,,,,,,,,,,,0,0,0,2,1,,,,,,,,,,,,,,,,,,,,,,,,,,,,,,,,,,,,,,,,,,,,,,
782861,001,2022-11-20_23h50.06.986,Info_measure_main_exp,2022.2.2,Win32,59.27682276,,,,,,,,,,,,,,,,,,masks/mask_005.jpg,,,,,,,,,,,,,,,,,,,,,,,,,,,,,,,,,,,,,,,,,,,0,1,1,4,1,,,,,,,,,,,,,,,,,,,,,,,,,,,,,,,,,,,,,,,,,,,,,,
782861,001,2022-11-20_23h50.06.986,Info_measure_main_exp,2022.2.2,Win32,59.27682276,,,,,,,,,,,,,,,,,,masks/mask_002.jpg,,,,,,,,,,,,,,,,,,,,,,,,,,,,,,,,,,,,,,,,,,,0,2,2,1,1,,,,,,,,,,,,,,,,,,,,,,,,,,,,,,,,,,,,,,,,,,,,,,
782861,001,2022-11-20_23h50.06.986,Info_measure_main_exp,2022.2.2,Win32,59.27682276,,,,,,,,,,,,,,,,,,masks/mask_001.jpg,,,,,,,,,,,,,,,,,,,,,,,,,,,,,,,,,,,,,,,,,,,0,3,3,0,1,,,,,,,,,,,,,,,,,,,,,,,,,,,,,,,,,,,,,,,,,,,,,,
782861,001,2022-11-20_23h50.06.986,Info_measure_main_exp,2022.2.2,Win32,59.27682276,,,,,,,,,,,,,,,,,,masks/mask_004.jpg,,,,,,,,,,,,,,,,,,,,,,,,,,,,,,,,,,,,,,,,,,,0,4,4,3,1,,,,,,,,,,,,,,,,,,,,,,,,,,,,,,,,,,,,,,,,,,,,,,
782861,001,2022-11-20_23h50.06.986,Info_measure_main_exp,2022.2.2,Win32,59.27682276,,,,,,,,,,,,,,,,,,masks/mask_004.jpg,,,,,,,,,,,,,,,,,,,,,,,,,,,,,,,,,,,,,,,,,,,,,,,,0,0,0,3,1,,,,,,,,,,,,,,,,,,,,,,,,,,,,,,,,,,,,,,,,,
782861,001,2022-11-20_23h50.06.986,Info_measure_main_exp,2022.2.2,Win32,59.27682276,,,,,,,,,,,,,,,,,,masks/mask_003.jpg,,,,,,,,,,,,,,,,,,,,,,,,,,,,,,,,,,,,,,,,,,,,,,,,0,1,1,2,1,,,,,,,,,,,,,,,,,,,,,,,,,,,,,,,,,,,,,,,,,
782861,001,2022-11-20_23h50.06.986,Info_measure_main_exp,2022.2.2,Win32,59.27682276,,,,,,,,,,,,,,,,,,masks/mask_005.jpg,,,,,,,,,,,,,,,,,,,,,,,,,,,,,,,,,,,,,,,,,,,,,,,,0,2,2,4,1,,,,,,,,,,,,,,,,,,,,,,,,,,,,,,,,,,,,,,,,,
782861,001,2022-11-20_23h50.06.986,Info_measure_main_exp,2022.2.2,Win32,59.27682276,,,,,,,,,,,,,,,,,,masks/mask_002.jpg,,,,,,,,,,,,,,,,,,,,,,,,,,,,,,,,,,,,,,,,,,,,,,,,0,3,3,1,1,,,,,,,,,,,,,,,,,,,,,,,,,,,,,,,,,,,,,,,,,
782861,001,2022-11-20_23h50.06.986,Info_measure_main_exp,2022.2.2,Win32,59.27682276,,,,,,,,,,,,,,,,,,masks/mask_001.jpg,,,,,,,,,,,,,,,,,,,,,,,,,,,,,,,,,,,,,,,,,,,,,,,,0,4,4,0,1,,,,,,,,,,,,,,,,,,,,,,,,,,,,,,,,,,,,,,,,,
782861,001,2022-11-20_23h50.06.986,Info_measure_main_exp,2022.2.2,Win32,59.27682276,,,,,,,,,,,,,,,,,,,,,,,,,,,,,,7,0.65,1,,,,,,,,,,,,0,131,5,5,2190,2238,absent_patch/patch0002190.jpg,absent_patch/patch0002238.jpg,,,,,,,,,,,,,,,,,,,,0.062962991,0.102777764,1,0,0,response1disk,23,0.003703718,0.01203703,1,0,0,center_square,0,22,22,53,1,,,,,,,,,,,,,,,,,,,,,,,
782861,001,2022-11-20_23h50.06.986,Info_measure_main_exp,2022.2.2,Win32,59.27682276,,,,,,,,,,,,,,,,,,masks/mask_003.jpg,,,,,,,,,,,,,,,,,,,,,,,,,,,,,,,,,,,,,,,,,,,0,0,0,2,1,,,,,,,,,,,,,,,,,,,,,,,,,,,,,,,,,,,,,,,,,,,,,,
782861,001,2022-11-20_23h50.06.986,Info_measure_main_exp,2022.2.2,Win32,59.27682276,,,,,,,,,,,,,,,,,,masks/mask_002.jpg,,,,,,,,,,,,,,,,,,,,,,,,,,,,,,,,,,,,,,,,,,,0,1,1,1,1,,,,,,,,,,,,,,,,,,,,,,,,,,,,,,,,,,,,,,,,,,,,,,
782861,001,2022-11-20_23h50.06.986,Info_measure_main_exp,2022.2.2,Win32,59.27682276,,,,,,,,,,,,,,,,,,masks/mask_004.jpg,,,,,,,,,,,,,,,,,,,,,,,,,,,,,,,,,,,,,,,,,,,0,2,2,3,1,,,,,,,,,,,,,,,,,,,,,,,,,,,,,,,,,,,,,,,,,,,,,,
782861,001,2022-11-20_23h50.06.986,Info_measure_main_exp,2022.2.2,Win32,59.27682276,,,,,,,,,,,,,,,,,,masks/mask_005.jpg,,,,,,,,,,,,,,,,,,,,,,,,,,,,,,,,,,,,,,,,,,,0,3,3,4,1,,,,,,,,,,,,,,,,,,,,,,,,,,,,,,,,,,,,,,,,,,,,,,
782861,001,2022-11-20_23h50.06.986,Info_measure_main_exp,2022.2.2,Win32,59.27682276,,,,,,,,,,,,,,,,,,masks/mask_001.jpg,,,,,,,,,,,,,,,,,,,,,,,,,,,,,,,,,,,,,,,,,,,0,4,4,0,1,,,,,,,,,,,,,,,,,,,,,,,,,,,,,,,,,,,,,,,,,,,,,,
782861,001,2022-11-20_23h50.06.986,Info_measure_main_exp,2022.2.2,Win32,59.27682276,,,,,,,,,,,,,,,,,,masks/mask_003.jpg,,,,,,,,,,,,,,,,,,,,,,,,,,,,,,,,,,,,,,,,,,,,,,,,0,0,0,2,1,,,,,,,,,,,,,,,,,,,,,,,,,,,,,,,,,,,,,,,,,
782861,001,2022-11-20_23h50.06.986,Info_measure_main_exp,2022.2.2,Win32,59.27682276,,,,,,,,,,,,,,,,,,masks/mask_002.jpg,,,,,,,,,,,,,,,,,,,,,,,,,,,,,,,,,,,,,,,,,,,,,,,,0,1,1,1,1,,,,,,,,,,,,,,,,,,,,,,,,,,,,,,,,,,,,,,,,,
782861,001,2022-11-20_23h50.06.986,Info_measure_main_exp,2022.2.2,Win32,59.27682276,,,,,,,,,,,,,,,,,,masks/mask_001.jpg,,,,,,,,,,,,,,,,,,,,,,,,,,,,,,,,,,,,,,,,,,,,,,,,0,2,2,0,1,,,,,,,,,,,,,,,,,,,,,,,,,,,,,,,,,,,,,,,,,
782861,001,2022-11-20_23h50.06.986,Info_measure_main_exp,2022.2.2,Win32,59.27682276,,,,,,,,,,,,,,,,,,masks/mask_005.jpg,,,,,,,,,,,,,,,,,,,,,,,,,,,,,,,,,,,,,,,,,,,,,,,,0,3,3,4,1,,,,,,,,,,,,,,,,,,,,,,,,,,,,,,,,,,,,,,,,,
782861,001,2022-11-20_23h50.06.986,Info_measure_main_exp,2022.2.2,Win32,59.27682276,,,,,,,,,,,,,,,,,,masks/mask_004.jpg,,,,,,,,,,,,,,,,,,,,,,,,,,,,,,,,,,,,,,,,,,,,,,,,0,4,4,3,1,,,,,,,,,,,,,,,,,,,,,,,,,,,,,,,,,,,,,,,,,
782861,001,2022-11-20_23h50.06.986,Info_measure_main_exp,2022.2.2,Win32,59.27682276,,,,,,,,,,,,,,,,,,,,,,,,,,,,,,7,0.4861,1,,,,,,,,,,,,0,131,5,5,2298,2274,absent_patch/patch0002298.jpg,absent_patch/patch0002274.jpg,,,,,,,,,,,,,,,,,,,,0.037962949,0.081481474,1,0,0,response1disk,24,-0.001851824,0.011111118,1,0,0,center_square,0,23,23,1,1,,,,,,,,,,,,,,,,,,,,,,,
782861,001,2022-11-20_23h50.06.986,Info_measure_main_exp,2022.2.2,Win32,59.27682276,,,,,,,,,,,,,,,,,,masks/mask_003.jpg,,,,,,,,,,,,,,,,,,,,,,,,,,,,,,,,,,,,,,,,,,,0,0,0,2,1,,,,,,,,,,,,,,,,,,,,,,,,,,,,,,,,,,,,,,,,,,,,,,
782861,001,2022-11-20_23h50.06.986,Info_measure_main_exp,2022.2.2,Win32,59.27682276,,,,,,,,,,,,,,,,,,masks/mask_005.jpg,,,,,,,,,,,,,,,,,,,,,,,,,,,,,,,,,,,,,,,,,,,0,1,1,4,1,,,,,,,,,,,,,,,,,,,,,,,,,,,,,,,,,,,,,,,,,,,,,,
782861,001,2022-11-20_23h50.06.986,Info_measure_main_exp,2022.2.2,Win32,59.27682276,,,,,,,,,,,,,,,,,,masks/mask_002.jpg,,,,,,,,,,,,,,,,,,,,,,,,,,,,,,,,,,,,,,,,,,,0,2,2,1,1,,,,,,,,,,,,,,,,,,,,,,,,,,,,,,,,,,,,,,,,,,,,,,
782861,001,2022-11-20_23h50.06.986,Info_measure_main_exp,2022.2.2,Win32,59.27682276,,,,,,,,,,,,,,,,,,masks/mask_004.jpg,,,,,,,,,,,,,,,,,,,,,,,,,,,,,,,,,,,,,,,,,,,0,3,3,3,1,,,,,,,,,,,,,,,,,,,,,,,,,,,,,,,,,,,,,,,,,,,,,,
782861,001,2022-11-20_23h50.06.986,Info_measure_main_exp,2022.2.2,Win32,59.27682276,,,,,,,,,,,,,,,,,,masks/mask_001.jpg,,,,,,,,,,,,,,,,,,,,,,,,,,,,,,,,,,,,,,,,,,,0,4,4,0,1,,,,,,,,,,,,,,,,,,,,,,,,,,,,,,,,,,,,,,,,,,,,,,
782861,001,2022-11-20_23h50.06.986,Info_measure_main_exp,2022.2.2,Win32,59.27682276,,,,,,,,,,,,,,,,,,masks/mask_002.jpg,,,,,,,,,,,,,,,,,,,,,,,,,,,,,,,,,,,,,,,,,,,,,,,,0,0,0,1,1,,,,,,,,,,,,,,,,,,,,,,,,,,,,,,,,,,,,,,,,,
782861,001,2022-11-20_23h50.06.986,Info_measure_main_exp,2022.2.2,Win32,59.27682276,,,,,,,,,,,,,,,,,,masks/mask_001.jpg,,,,,,,,,,,,,,,,,,,,,,,,,,,,,,,,,,,,,,,,,,,,,,,,0,1,1,0,1,,,,,,,,,,,,,,,,,,,,,,,,,,,,,,,,,,,,,,,,,
782861,001,2022-11-20_23h50.06.986,Info_measure_main_exp,2022.2.2,Win32,59.27682276,,,,,,,,,,,,,,,,,,masks/mask_004.jpg,,,,,,,,,,,,,,,,,,,,,,,,,,,,,,,,,,,,,,,,,,,,,,,,0,2,2,3,1,,,,,,,,,,,,,,,,,,,,,,,,,,,,,,,,,,,,,,,,,
782861,001,2022-11-20_23h50.06.986,Info_measure_main_exp,2022.2.2,Win32,59.27682276,,,,,,,,,,,,,,,,,,masks/mask_005.jpg,,,,,,,,,,,,,,,,,,,,,,,,,,,,,,,,,,,,,,,,,,,,,,,,0,3,3,4,1,,,,,,,,,,,,,,,,,,,,,,,,,,,,,,,,,,,,,,,,,
782861,001,2022-11-20_23h50.06.986,Info_measure_main_exp,2022.2.2,Win32,59.27682276,,,,,,,,,,,,,,,,,,masks/mask_003.jpg,,,,,,,,,,,,,,,,,,,,,,,,,,,,,,,,,,,,,,,,,,,,,,,,0,4,4,2,1,,,,,,,,,,,,,,,,,,,,,,,,,,,,,,,,,,,,,,,,,
782861,001,2022-11-20_23h50.06.986,Info_measure_main_exp,2022.2.2,Win32,59.27682276,,,,,,,,,,,,,,,,,,,,,,,,,,,,,,5,0.5636,1,,,,,,,,,,,,0,131,5,5,2154,2214,absent_patch/patch0002154.jpg,absent_patch/patch0002214.jpg,,,,,,,,,,,,,,,,,,,,0.091666681,-0.080555563,1,0,0,response3disk,25,-0.002777735,-0.010185206,1,0,0,center_square,0,24,24,67,1,,,,,,,,,,,,,,,,,,,,,,,
782861,001,2022-11-20_23h50.06.986,Info_measure_main_exp,2022.2.2,Win32,59.27682276,,,,,,,,,,,,,,,,,,masks/mask_004.jpg,,,,,,,,,,,,,,,,,,,,,,,,,,,,,,,,,,,,,,,,,,,0,0,0,3,1,,,,,,,,,,,,,,,,,,,,,,,,,,,,,,,,,,,,,,,,,,,,,,
782861,001,2022-11-20_23h50.06.986,Info_measure_main_exp,2022.2.2,Win32,59.27682276,,,,,,,,,,,,,,,,,,masks/mask_001.jpg,,,,,,,,,,,,,,,,,,,,,,,,,,,,,,,,,,,,,,,,,,,0,1,1,0,1,,,,,,,,,,,,,,,,,,,,,,,,,,,,,,,,,,,,,,,,,,,,,,
782861,001,2022-11-20_23h50.06.986,Info_measure_main_exp,2022.2.2,Win32,59.27682276,,,,,,,,,,,,,,,,,,masks/mask_003.jpg,,,,,,,,,,,,,,,,,,,,,,,,,,,,,,,,,,,,,,,,,,,0,2,2,2,1,,,,,,,,,,,,,,,,,,,,,,,,,,,,,,,,,,,,,,,,,,,,,,
782861,001,2022-11-20_23h50.06.986,Info_measure_main_exp,2022.2.2,Win32,59.27682276,,,,,,,,,,,,,,,,,,masks/mask_002.jpg,,,,,,,,,,,,,,,,,,,,,,,,,,,,,,,,,,,,,,,,,,,0,3,3,1,1,,,,,,,,,,,,,,,,,,,,,,,,,,,,,,,,,,,,,,,,,,,,,,
782861,001,2022-11-20_23h50.06.986,Info_measure_main_exp,2022.2.2,Win32,59.27682276,,,,,,,,,,,,,,,,,,masks/mask_005.jpg,,,,,,,,,,,,,,,,,,,,,,,,,,,,,,,,,,,,,,,,,,,0,4,4,4,1,,,,,,,,,,,,,,,,,,,,,,,,,,,,,,,,,,,,,,,,,,,,,,
782861,001,2022-11-20_23h50.06.986,Info_measure_main_exp,2022.2.2,Win32,59.27682276,,,,,,,,,,,,,,,,,,masks/mask_003.jpg,,,,,,,,,,,,,,,,,,,,,,,,,,,,,,,,,,,,,,,,,,,,,,,,0,0,0,2,1,,,,,,,,,,,,,,,,,,,,,,,,,,,,,,,,,,,,,,,,,
782861,001,2022-11-20_23h50.06.986,Info_measure_main_exp,2022.2.2,Win32,59.27682276,,,,,,,,,,,,,,,,,,masks/mask_002.jpg,,,,,,,,,,,,,,,,,,,,,,,,,,,,,,,,,,,,,,,,,,,,,,,,0,1,1,1,1,,,,,,,,,,,,,,,,,,,,,,,,,,,,,,,,,,,,,,,,,
782861,001,2022-11-20_23h50.06.986,Info_measure_main_exp,2022.2.2,Win32,59.27682276,,,,,,,,,,,,,,,,,,masks/mask_001.jpg,,,,,,,,,,,,,,,,,,,,,,,,,,,,,,,,,,,,,,,,,,,,,,,,0,2,2,0,1,,,,,,,,,,,,,,,,,,,,,,,,,,,,,,,,,,,,,,,,,
782861,001,2022-11-20_23h50.06.986,Info_measure_main_exp,2022.2.2,Win32,59.27682276,,,,,,,,,,,,,,,,,,masks/mask_005.jpg,,,,,,,,,,,,,,,,,,,,,,,,,,,,,,,,,,,,,,,,,,,,,,,,0,3,3,4,1,,,,,,,,,,,,,,,,,,,,,,,,,,,,,,,,,,,,,,,,,
782861,001,2022-11-20_23h50.06.986,Info_measure_main_exp,2022.2.2,Win32,59.27682276,,,,,,,,,,,,,,,,,,masks/mask_004.jpg,,,,,,,,,,,,,,,,,,,,,,,,,,,,,,,,,,,,,,,,,,,,,,,,0,4,4,3,1,,,,,,,,,,,,,,,,,,,,,,,,,,,,,,,,,,,,,,,,,
782861,001,2022-11-20_23h50.06.986,Info_measure_main_exp,2022.2.2,Win32,59.27682276,,,,,,,,,,,,,,,,,,,,,,,,,,,,,,7,0.4695,1,,,,,,,,,,,,0,131,5,5,2178,2238,absent_patch/patch0002178.jpg,absent_patch/patch0002238.jpg,,,,,,,,,,,,,,,,,,,,0.087037051,0.128703683,1,0,0,response1disk,26,0.008333347,0.009259259,1,0,0,center_square,0,25,25,57,1,,,,,,,,,,,,,,,,,,,,,,,
782861,001,2022-11-20_23h50.06.986,Info_measure_main_exp,2022.2.2,Win32,59.27682276,,,,,,,,,,,,,,,,,,masks/mask_003.jpg,,,,,,,,,,,,,,,,,,,,,,,,,,,,,,,,,,,,,,,,,,,0,0,0,2,1,,,,,,,,,,,,,,,,,,,,,,,,,,,,,,,,,,,,,,,,,,,,,,
782861,001,2022-11-20_23h50.06.986,Info_measure_main_exp,2022.2.2,Win32,59.27682276,,,,,,,,,,,,,,,,,,masks/mask_005.jpg,,,,,,,,,,,,,,,,,,,,,,,,,,,,,,,,,,,,,,,,,,,0,1,1,4,1,,,,,,,,,,,,,,,,,,,,,,,,,,,,,,,,,,,,,,,,,,,,,,
782861,001,2022-11-20_23h50.06.986,Info_measure_main_exp,2022.2.2,Win32,59.27682276,,,,,,,,,,,,,,,,,,masks/mask_001.jpg,,,,,,,,,,,,,,,,,,,,,,,,,,,,,,,,,,,,,,,,,,,0,2,2,0,1,,,,,,,,,,,,,,,,,,,,,,,,,,,,,,,,,,,,,,,,,,,,,,
782861,001,2022-11-20_23h50.06.986,Info_measure_main_exp,2022.2.2,Win32,59.27682276,,,,,,,,,,,,,,,,,,masks/mask_002.jpg,,,,,,,,,,,,,,,,,,,,,,,,,,,,,,,,,,,,,,,,,,,0,3,3,1,1,,,,,,,,,,,,,,,,,,,,,,,,,,,,,,,,,,,,,,,,,,,,,,
782861,001,2022-11-20_23h50.06.986,Info_measure_main_exp,2022.2.2,Win32,59.27682276,,,,,,,,,,,,,,,,,,masks/mask_004.jpg,,,,,,,,,,,,,,,,,,,,,,,,,,,,,,,,,,,,,,,,,,,0,4,4,3,1,,,,,,,,,,,,,,,,,,,,,,,,,,,,,,,,,,,,,,,,,,,,,,
782861,001,2022-11-20_23h50.06.986,Info_measure_main_exp,2022.2.2,Win32,59.27682276,,,,,,,,,,,,,,,,,,masks/mask_002.jpg,,,,,,,,,,,,,,,,,,,,,,,,,,,,,,,,,,,,,,,,,,,,,,,,0,0,0,1,1,,,,,,,,,,,,,,,,,,,,,,,,,,,,,,,,,,,,,,,,,
782861,001,2022-11-20_23h50.06.986,Info_measure_main_exp,2022.2.2,Win32,59.27682276,,,,,,,,,,,,,,,,,,masks/mask_005.jpg,,,,,,,,,,,,,,,,,,,,,,,,,,,,,,,,,,,,,,,,,,,,,,,,0,1,1,4,1,,,,,,,,,,,,,,,,,,,,,,,,,,,,,,,,,,,,,,,,,
782861,001,2022-11-20_23h50.06.986,Info_measure_main_exp,2022.2.2,Win32,59.27682276,,,,,,,,,,,,,,,,,,masks/mask_004.jpg,,,,,,,,,,,,,,,,,,,,,,,,,,,,,,,,,,,,,,,,,,,,,,,,0,2,2,3,1,,,,,,,,,,,,,,,,,,,,,,,,,,,,,,,,,,,,,,,,,
782861,001,2022-11-20_23h50.06.986,Info_measure_main_exp,2022.2.2,Win32,59.27682276,,,,,,,,,,,,,,,,,,masks/mask_003.jpg,,,,,,,,,,,,,,,,,,,,,,,,,,,,,,,,,,,,,,,,,,,,,,,,0,3,3,2,1,,,,,,,,,,,,,,,,,,,,,,,,,,,,,,,,,,,,,,,,,
782861,001,2022-11-20_23h50.06.986,Info_measure_main_exp,2022.2.2,Win32,59.27682276,,,,,,,,,,,,,,,,,,masks/mask_001.jpg,,,,,,,,,,,,,,,,,,,,,,,,,,,,,,,,,,,,,,,,,,,,,,,,0,4,4,0,1,,,,,,,,,,,,,,,,,,,,,,,,,,,,,,,,,,,,,,,,,
782861,001,2022-11-20_23h50.06.986,Info_measure_main_exp,2022.2.2,Win32,59.27682276,,,,,,,,,,,,,,,,,,,,,,,,,,,,,,7,0.5164,1,,,,,,,,,,,,0,131,5,5,2274,2154,absent_patch/patch0002274.jpg,absent_patch/patch0002154.jpg,,,,,,,,,,,,,,,,,,,,0.042592578,0.107407393,1,0,0,response1disk,27,-0.009259259,0.000925912,1,0,0,center_square,0,26,26,23,1,,,,,,,,,,,,,,,,,,,,,,,
782861,001,2022-11-20_23h50.06.986,Info_measure_main_exp,2022.2.2,Win32,59.27682276,,,,,,,,,,,,,,,,,,masks/mask_004.jpg,,,,,,,,,,,,,,,,,,,,,,,,,,,,,,,,,,,,,,,,,,,0,0,0,3,1,,,,,,,,,,,,,,,,,,,,,,,,,,,,,,,,,,,,,,,,,,,,,,
782861,001,2022-11-20_23h50.06.986,Info_measure_main_exp,2022.2.2,Win32,59.27682276,,,,,,,,,,,,,,,,,,masks/mask_003.jpg,,,,,,,,,,,,,,,,,,,,,,,,,,,,,,,,,,,,,,,,,,,0,1,1,2,1,,,,,,,,,,,,,,,,,,,,,,,,,,,,,,,,,,,,,,,,,,,,,,
782861,001,2022-11-20_23h50.06.986,Info_measure_main_exp,2022.2.2,Win32,59.27682276,,,,,,,,,,,,,,,,,,masks/mask_002.jpg,,,,,,,,,,,,,,,,,,,,,,,,,,,,,,,,,,,,,,,,,,,0,2,2,1,1,,,,,,,,,,,,,,,,,,,,,,,,,,,,,,,,,,,,,,,,,,,,,,
782861,001,2022-11-20_23h50.06.986,Info_measure_main_exp,2022.2.2,Win32,59.27682276,,,,,,,,,,,,,,,,,,masks/mask_005.jpg,,,,,,,,,,,,,,,,,,,,,,,,,,,,,,,,,,,,,,,,,,,0,3,3,4,1,,,,,,,,,,,,,,,,,,,,,,,,,,,,,,,,,,,,,,,,,,,,,,
782861,001,2022-11-20_23h50.06.986,Info_measure_main_exp,2022.2.2,Win32,59.27682276,,,,,,,,,,,,,,,,,,masks/mask_001.jpg,,,,,,,,,,,,,,,,,,,,,,,,,,,,,,,,,,,,,,,,,,,0,4,4,0,1,,,,,,,,,,,,,,,,,,,,,,,,,,,,,,,,,,,,,,,,,,,,,,
782861,001,2022-11-20_23h50.06.986,Info_measure_main_exp,2022.2.2,Win32,59.27682276,,,,,,,,,,,,,,,,,,masks/mask_001.jpg,,,,,,,,,,,,,,,,,,,,,,,,,,,,,,,,,,,,,,,,,,,,,,,,0,0,0,0,1,,,,,,,,,,,,,,,,,,,,,,,,,,,,,,,,,,,,,,,,,
782861,001,2022-11-20_23h50.06.986,Info_measure_main_exp,2022.2.2,Win32,59.27682276,,,,,,,,,,,,,,,,,,masks/mask_004.jpg,,,,,,,,,,,,,,,,,,,,,,,,,,,,,,,,,,,,,,,,,,,,,,,,0,1,1,3,1,,,,,,,,,,,,,,,,,,,,,,,,,,,,,,,,,,,,,,,,,
782861,001,2022-11-20_23h50.06.986,Info_measure_main_exp,2022.2.2,Win32,59.27682276,,,,,,,,,,,,,,,,,,masks/mask_005.jpg,,,,,,,,,,,,,,,,,,,,,,,,,,,,,,,,,,,,,,,,,,,,,,,,0,2,2,4,1,,,,,,,,,,,,,,,,,,,,,,,,,,,,,,,,,,,,,,,,,
782861,001,2022-11-20_23h50.06.986,Info_measure_main_exp,2022.2.2,Win32,59.27682276,,,,,,,,,,,,,,,,,,masks/mask_003.jpg,,,,,,,,,,,,,,,,,,,,,,,,,,,,,,,,,,,,,,,,,,,,,,,,0,3,3,2,1,,,,,,,,,,,,,,,,,,,,,,,,,,,,,,,,,,,,,,,,,
782861,001,2022-11-20_23h50.06.986,Info_measure_main_exp,2022.2.2,Win32,59.27682276,,,,,,,,,,,,,,,,,,masks/mask_002.jpg,,,,,,,,,,,,,,,,,,,,,,,,,,,,,,,,,,,,,,,,,,,,,,,,0,4,4,1,1,,,,,,,,,,,,,,,,,,,,,,,,,,,,,,,,,,,,,,,,,
782861,001,2022-11-20_23h50.06.986,Info_measure_main_exp,2022.2.2,Win32,59.27682276,,,,,,,,,,,,,,,,,,,,,,,,,,,,,,7,0.3993,1,,,,,,,,,,,,0,131,5,5,2250,2298,absent_patch/patch0002250.jpg,absent_patch/patch0002298.jpg,,,,,,,,,,,,,,,,,,,,0.056481467,0.098148134,1,0,0,response1disk,28,0.012962977,-0.001851859,1,0,0,center_square,0,27,27,59,1,,,,,,,,,,,,,,,,,,,,,,,
782861,001,2022-11-20_23h50.06.986,Info_measure_main_exp,2022.2.2,Win32,59.27682276,,,,,,,,,,,,,,,,,,masks/mask_004.jpg,,,,,,,,,,,,,,,,,,,,,,,,,,,,,,,,,,,,,,,,,,,0,0,0,3,1,,,,,,,,,,,,,,,,,,,,,,,,,,,,,,,,,,,,,,,,,,,,,,
782861,001,2022-11-20_23h50.06.986,Info_measure_main_exp,2022.2.2,Win32,59.27682276,,,,,,,,,,,,,,,,,,masks/mask_001.jpg,,,,,,,,,,,,,,,,,,,,,,,,,,,,,,,,,,,,,,,,,,,0,1,1,0,1,,,,,,,,,,,,,,,,,,,,,,,,,,,,,,,,,,,,,,,,,,,,,,
782861,001,2022-11-20_23h50.06.986,Info_measure_main_exp,2022.2.2,Win32,59.27682276,,,,,,,,,,,,,,,,,,masks/mask_005.jpg,,,,,,,,,,,,,,,,,,,,,,,,,,,,,,,,,,,,,,,,,,,0,2,2,4,1,,,,,,,,,,,,,,,,,,,,,,,,,,,,,,,,,,,,,,,,,,,,,,
782861,001,2022-11-20_23h50.06.986,Info_measure_main_exp,2022.2.2,Win32,59.27682276,,,,,,,,,,,,,,,,,,masks/mask_003.jpg,,,,,,,,,,,,,,,,,,,,,,,,,,,,,,,,,,,,,,,,,,,0,3,3,2,1,,,,,,,,,,,,,,,,,,,,,,,,,,,,,,,,,,,,,,,,,,,,,,
782861,001,2022-11-20_23h50.06.986,Info_measure_main_exp,2022.2.2,Win32,59.27682276,,,,,,,,,,,,,,,,,,masks/mask_002.jpg,,,,,,,,,,,,,,,,,,,,,,,,,,,,,,,,,,,,,,,,,,,0,4,4,1,1,,,,,,,,,,,,,,,,,,,,,,,,,,,,,,,,,,,,,,,,,,,,,,
782861,001,2022-11-20_23h50.06.986,Info_measure_main_exp,2022.2.2,Win32,59.27682276,,,,,,,,,,,,,,,,,,masks/mask_001.jpg,,,,,,,,,,,,,,,,,,,,,,,,,,,,,,,,,,,,,,,,,,,,,,,,0,0,0,0,1,,,,,,,,,,,,,,,,,,,,,,,,,,,,,,,,,,,,,,,,,
782861,001,2022-11-20_23h50.06.986,Info_measure_main_exp,2022.2.2,Win32,59.27682276,,,,,,,,,,,,,,,,,,masks/mask_005.jpg,,,,,,,,,,,,,,,,,,,,,,,,,,,,,,,,,,,,,,,,,,,,,,,,0,1,1,4,1,,,,,,,,,,,,,,,,,,,,,,,,,,,,,,,,,,,,,,,,,
782861,001,2022-11-20_23h50.06.986,Info_measure_main_exp,2022.2.2,Win32,59.27682276,,,,,,,,,,,,,,,,,,masks/mask_004.jpg,,,,,,,,,,,,,,,,,,,,,,,,,,,,,,,,,,,,,,,,,,,,,,,,0,2,2,3,1,,,,,,,,,,,,,,,,,,,,,,,,,,,,,,,,,,,,,,,,,
782861,001,2022-11-20_23h50.06.986,Info_measure_main_exp,2022.2.2,Win32,59.27682276,,,,,,,,,,,,,,,,,,masks/mask_003.jpg,,,,,,,,,,,,,,,,,,,,,,,,,,,,,,,,,,,,,,,,,,,,,,,,0,3,3,2,1,,,,,,,,,,,,,,,,,,,,,,,,,,,,,,,,,,,,,,,,,
782861,001,2022-11-20_23h50.06.986,Info_measure_main_exp,2022.2.2,Win32,59.27682276,,,,,,,,,,,,,,,,,,masks/mask_002.jpg,,,,,,,,,,,,,,,,,,,,,,,,,,,,,,,,,,,,,,,,,,,,,,,,0,4,4,1,1,,,,,,,,,,,,,,,,,,,,,,,,,,,,,,,,,,,,,,,,,
782861,001,2022-11-20_23h50.06.986,Info_measure_main_exp,2022.2.2,Win32,59.27682276,,,,,,,,,,,,,,,,,,,,,,,,,,,,,,7,0.7001,1,,,,,,,,,,,,0,131,5,5,2214,2082,absent_patch/patch0002214.jpg,absent_patch/patch0002082.jpg,,,,,,,,,,,,,,,,,,,,0.043518561,0.119444423,1,0,0,response1disk,29,0.005555541,0.003703683,1,0,0,center_square,0,28,28,103,1,,,,,,,,,,,,,,,,,,,,,,,
782861,001,2022-11-20_23h50.06.986,Info_measure_main_exp,2022.2.2,Win32,59.27682276,,,,,,,,,,,,,,,,,,masks/mask_004.jpg,,,,,,,,,,,,,,,,,,,,,,,,,,,,,,,,,,,,,,,,,,,0,0,0,3,1,,,,,,,,,,,,,,,,,,,,,,,,,,,,,,,,,,,,,,,,,,,,,,
782861,001,2022-11-20_23h50.06.986,Info_measure_main_exp,2022.2.2,Win32,59.27682276,,,,,,,,,,,,,,,,,,masks/mask_005.jpg,,,,,,,,,,,,,,,,,,,,,,,,,,,,,,,,,,,,,,,,,,,0,1,1,4,1,,,,,,,,,,,,,,,,,,,,,,,,,,,,,,,,,,,,,,,,,,,,,,
782861,001,2022-11-20_23h50.06.986,Info_measure_main_exp,2022.2.2,Win32,59.27682276,,,,,,,,,,,,,,,,,,masks/mask_003.jpg,,,,,,,,,,,,,,,,,,,,,,,,,,,,,,,,,,,,,,,,,,,0,2,2,2,1,,,,,,,,,,,,,,,,,,,,,,,,,,,,,,,,,,,,,,,,,,,,,,
782861,001,2022-11-20_23h50.06.986,Info_measure_main_exp,2022.2.2,Win32,59.27682276,,,,,,,,,,,,,,,,,,masks/mask_001.jpg,,,,,,,,,,,,,,,,,,,,,,,,,,,,,,,,,,,,,,,,,,,0,3,3,0,1,,,,,,,,,,,,,,,,,,,,,,,,,,,,,,,,,,,,,,,,,,,,,,
782861,001,2022-11-20_23h50.06.986,Info_measure_main_exp,2022.2.2,Win32,59.27682276,,,,,,,,,,,,,,,,,,masks/mask_002.jpg,,,,,,,,,,,,,,,,,,,,,,,,,,,,,,,,,,,,,,,,,,,0,4,4,1,1,,,,,,,,,,,,,,,,,,,,,,,,,,,,,,,,,,,,,,,,,,,,,,
782861,001,2022-11-20_23h50.06.986,Info_measure_main_exp,2022.2.2,Win32,59.27682276,,,,,,,,,,,,,,,,,,masks/mask_005.jpg,,,,,,,,,,,,,,,,,,,,,,,,,,,,,,,,,,,,,,,,,,,,,,,,0,0,0,4,1,,,,,,,,,,,,,,,,,,,,,,,,,,,,,,,,,,,,,,,,,
782861,001,2022-11-20_23h50.06.986,Info_measure_main_exp,2022.2.2,Win32,59.27682276,,,,,,,,,,,,,,,,,,masks/mask_002.jpg,,,,,,,,,,,,,,,,,,,,,,,,,,,,,,,,,,,,,,,,,,,,,,,,0,1,1,1,1,,,,,,,,,,,,,,,,,,,,,,,,,,,,,,,,,,,,,,,,,
782861,001,2022-11-20_23h50.06.986,Info_measure_main_exp,2022.2.2,Win32,59.27682276,,,,,,,,,,,,,,,,,,masks/mask_001.jpg,,,,,,,,,,,,,,,,,,,,,,,,,,,,,,,,,,,,,,,,,,,,,,,,0,2,2,0,1,,,,,,,,,,,,,,,,,,,,,,,,,,,,,,,,,,,,,,,,,
782861,001,2022-11-20_23h50.06.986,Info_measure_main_exp,2022.2.2,Win32,59.27682276,,,,,,,,,,,,,,,,,,masks/mask_003.jpg,,,,,,,,,,,,,,,,,,,,,,,,,,,,,,,,,,,,,,,,,,,,,,,,0,3,3,2,1,,,,,,,,,,,,,,,,,,,,,,,,,,,,,,,,,,,,,,,,,
782861,001,2022-11-20_23h50.06.986,Info_measure_main_exp,2022.2.2,Win32,59.27682276,,,,,,,,,,,,,,,,,,masks/mask_004.jpg,,,,,,,,,,,,,,,,,,,,,,,,,,,,,,,,,,,,,,,,,,,,,,,,0,4,4,3,1,,,,,,,,,,,,,,,,,,,,,,,,,,,,,,,,,,,,,,,,,
782861,001,2022-11-20_23h50.06.986,Info_measure_main_exp,2022.2.2,Win32,59.27682276,,,,,,,,,,,,,,,,,,,,,,,,,,,,,,7,0.4995,1,,,,,,,,,,,,0,131,5,5,2142,2166,absent_patch/patch0002142.jpg,absent_patch/patch0002166.jpg,,,,,,,,,,,,,,,,,,,,0.016666695,0.125,1,0,0,response1disk,30,-0.006481453,-0.001851859,1,0,0,center_square,0,29,29,66,1,,,,,,,,,,,,,,,,,,,,,,,
782861,001,2022-11-20_23h50.06.986,Info_measure_main_exp,2022.2.2,Win32,59.27682276,,,,,,,,,,,,,,,,,,masks/mask_004.jpg,,,,,,,,,,,,,,,,,,,,,,,,,,,,,,,,,,,,,,,,,,,0,0,0,3,1,,,,,,,,,,,,,,,,,,,,,,,,,,,,,,,,,,,,,,,,,,,,,,
782861,001,2022-11-20_23h50.06.986,Info_measure_main_exp,2022.2.2,Win32,59.27682276,,,,,,,,,,,,,,,,,,masks/mask_002.jpg,,,,,,,,,,,,,,,,,,,,,,,,,,,,,,,,,,,,,,,,,,,0,1,1,1,1,,,,,,,,,,,,,,,,,,,,,,,,,,,,,,,,,,,,,,,,,,,,,,
782861,001,2022-11-20_23h50.06.986,Info_measure_main_exp,2022.2.2,Win32,59.27682276,,,,,,,,,,,,,,,,,,masks/mask_001.jpg,,,,,,,,,,,,,,,,,,,,,,,,,,,,,,,,,,,,,,,,,,,0,2,2,0,1,,,,,,,,,,,,,,,,,,,,,,,,,,,,,,,,,,,,,,,,,,,,,,
782861,001,2022-11-20_23h50.06.986,Info_measure_main_exp,2022.2.2,Win32,59.27682276,,,,,,,,,,,,,,,,,,masks/mask_005.jpg,,,,,,,,,,,,,,,,,,,,,,,,,,,,,,,,,,,,,,,,,,,0,3,3,4,1,,,,,,,,,,,,,,,,,,,,,,,,,,,,,,,,,,,,,,,,,,,,,,
782861,001,2022-11-20_23h50.06.986,Info_measure_main_exp,2022.2.2,Win32,59.27682276,,,,,,,,,,,,,,,,,,masks/mask_003.jpg,,,,,,,,,,,,,,,,,,,,,,,,,,,,,,,,,,,,,,,,,,,0,4,4,2,1,,,,,,,,,,,,,,,,,,,,,,,,,,,,,,,,,,,,,,,,,,,,,,
782861,001,2022-11-20_23h50.06.986,Info_measure_main_exp,2022.2.2,Win32,59.27682276,,,,,,,,,,,,,,,,,,masks/mask_001.jpg,,,,,,,,,,,,,,,,,,,,,,,,,,,,,,,,,,,,,,,,,,,,,,,,0,0,0,0,1,,,,,,,,,,,,,,,,,,,,,,,,,,,,,,,,,,,,,,,,,
782861,001,2022-11-20_23h50.06.986,Info_measure_main_exp,2022.2.2,Win32,59.27682276,,,,,,,,,,,,,,,,,,masks/mask_005.jpg,,,,,,,,,,,,,,,,,,,,,,,,,,,,,,,,,,,,,,,,,,,,,,,,0,1,1,4,1,,,,,,,,,,,,,,,,,,,,,,,,,,,,,,,,,,,,,,,,,
782861,001,2022-11-20_23h50.06.986,Info_measure_main_exp,2022.2.2,Win32,59.27682276,,,,,,,,,,,,,,,,,,masks/mask_003.jpg,,,,,,,,,,,,,,,,,,,,,,,,,,,,,,,,,,,,,,,,,,,,,,,,0,2,2,2,1,,,,,,,,,,,,,,,,,,,,,,,,,,,,,,,,,,,,,,,,,
782861,001,2022-11-20_23h50.06.986,Info_measure_main_exp,2022.2.2,Win32,59.27682276,,,,,,,,,,,,,,,,,,masks/mask_004.jpg,,,,,,,,,,,,,,,,,,,,,,,,,,,,,,,,,,,,,,,,,,,,,,,,0,3,3,3,1,,,,,,,,,,,,,,,,,,,,,,,,,,,,,,,,,,,,,,,,,
782861,001,2022-11-20_23h50.06.986,Info_measure_main_exp,2022.2.2,Win32,59.27682276,,,,,,,,,,,,,,,,,,masks/mask_002.jpg,,,,,,,,,,,,,,,,,,,,,,,,,,,,,,,,,,,,,,,,,,,,,,,,0,4,4,1,1,,,,,,,,,,,,,,,,,,,,,,,,,,,,,,,,,,,,,,,,,
782861,001,2022-11-20_23h50.06.986,Info_measure_main_exp,2022.2.2,Win32,59.27682276,,,,,,,,,,,,,,,,,,,,,,,,,,,,,,3,0.9814,1,,,,,,,,,,,,1,131,5,5,1,2154,present_patch/cong_131_5_a.jpg,absent_patch/patch0002154.jpg,,,,,,,,,,,,,,,,,,,,-0.037962949,-0.097222222,1,0,0,response5disk,31,0.005555541,-0.00462963,1,0,0,center_square,0,30,30,87,1,,,,,,,,,,,,,,,,,,,,,,,
782861,001,2022-11-20_23h50.06.986,Info_measure_main_exp,2022.2.2,Win32,59.27682276,,,,,,,,,,,,,,,,,,masks/mask_003.jpg,,,,,,,,,,,,,,,,,,,,,,,,,,,,,,,,,,,,,,,,,,,0,0,0,2,1,,,,,,,,,,,,,,,,,,,,,,,,,,,,,,,,,,,,,,,,,,,,,,
782861,001,2022-11-20_23h50.06.986,Info_measure_main_exp,2022.2.2,Win32,59.27682276,,,,,,,,,,,,,,,,,,masks/mask_001.jpg,,,,,,,,,,,,,,,,,,,,,,,,,,,,,,,,,,,,,,,,,,,0,1,1,0,1,,,,,,,,,,,,,,,,,,,,,,,,,,,,,,,,,,,,,,,,,,,,,,
782861,001,2022-11-20_23h50.06.986,Info_measure_main_exp,2022.2.2,Win32,59.27682276,,,,,,,,,,,,,,,,,,masks/mask_002.jpg,,,,,,,,,,,,,,,,,,,,,,,,,,,,,,,,,,,,,,,,,,,0,2,2,1,1,,,,,,,,,,,,,,,,,,,,,,,,,,,,,,,,,,,,,,,,,,,,,,
782861,001,2022-11-20_23h50.06.986,Info_measure_main_exp,2022.2.2,Win32,59.27682276,,,,,,,,,,,,,,,,,,masks/mask_004.jpg,,,,,,,,,,,,,,,,,,,,,,,,,,,,,,,,,,,,,,,,,,,0,3,3,3,1,,,,,,,,,,,,,,,,,,,,,,,,,,,,,,,,,,,,,,,,,,,,,,
782861,001,2022-11-20_23h50.06.986,Info_measure_main_exp,2022.2.2,Win32,59.27682276,,,,,,,,,,,,,,,,,,masks/mask_005.jpg,,,,,,,,,,,,,,,,,,,,,,,,,,,,,,,,,,,,,,,,,,,0,4,4,4,1,,,,,,,,,,,,,,,,,,,,,,,,,,,,,,,,,,,,,,,,,,,,,,
782861,001,2022-11-20_23h50.06.986,Info_measure_main_exp,2022.2.2,Win32,59.27682276,,,,,,,,,,,,,,,,,,masks/mask_001.jpg,,,,,,,,,,,,,,,,,,,,,,,,,,,,,,,,,,,,,,,,,,,,,,,,0,0,0,0,1,,,,,,,,,,,,,,,,,,,,,,,,,,,,,,,,,,,,,,,,,
782861,001,2022-11-20_23h50.06.986,Info_measure_main_exp,2022.2.2,Win32,59.27682276,,,,,,,,,,,,,,,,,,masks/mask_005.jpg,,,,,,,,,,,,,,,,,,,,,,,,,,,,,,,,,,,,,,,,,,,,,,,,0,1,1,4,1,,,,,,,,,,,,,,,,,,,,,,,,,,,,,,,,,,,,,,,,,
782861,001,2022-11-20_23h50.06.986,Info_measure_main_exp,2022.2.2,Win32,59.27682276,,,,,,,,,,,,,,,,,,masks/mask_003.jpg,,,,,,,,,,,,,,,,,,,,,,,,,,,,,,,,,,,,,,,,,,,,,,,,0,2,2,2,1,,,,,,,,,,,,,,,,,,,,,,,,,,,,,,,,,,,,,,,,,
782861,001,2022-11-20_23h50.06.986,Info_measure_main_exp,2022.2.2,Win32,59.27682276,,,,,,,,,,,,,,,,,,masks/mask_004.jpg,,,,,,,,,,,,,,,,,,,,,,,,,,,,,,,,,,,,,,,,,,,,,,,,0,3,3,3,1,,,,,,,,,,,,,,,,,,,,,,,,,,,,,,,,,,,,,,,,,
782861,001,2022-11-20_23h50.06.986,Info_measure_main_exp,2022.2.2,Win32,59.27682276,,,,,,,,,,,,,,,,,,masks/mask_002.jpg,,,,,,,,,,,,,,,,,,,,,,,,,,,,,,,,,,,,,,,,,,,,,,,,0,4,4,1,1,,,,,,,,,,,,,,,,,,,,,,,,,,,,,,,,,,,,,,,,,
782861,001,2022-11-20_23h50.06.986,Info_measure_main_exp,2022.2.2,Win32,59.27682276,,,,,,,,,,,,,,,,,,,,,,,,,,,,,,7,0.5328,1,,,,,,,,,,,,0,131,5,5,2082,1986,absent_patch/patch0002082.jpg,absent_patch/patch0001986.jpg,,,,,,,,,,,,,,,,,,,,0.022222236,0.100925905,1,0,0,response1disk,32,0.009259259,0.005555541,1,0,0,center_square,0,31,31,94,1,,,,,,,,,,,,,,,,,,,,,,,
782861,001,2022-11-20_23h50.06.986,Info_measure_main_exp,2022.2.2,Win32,59.27682276,,,,,,,,,,,,,,,,,,masks/mask_002.jpg,,,,,,,,,,,,,,,,,,,,,,,,,,,,,,,,,,,,,,,,,,,0,0,0,1,1,,,,,,,,,,,,,,,,,,,,,,,,,,,,,,,,,,,,,,,,,,,,,,
782861,001,2022-11-20_23h50.06.986,Info_measure_main_exp,2022.2.2,Win32,59.27682276,,,,,,,,,,,,,,,,,,masks/mask_004.jpg,,,,,,,,,,,,,,,,,,,,,,,,,,,,,,,,,,,,,,,,,,,0,1,1,3,1,,,,,,,,,,,,,,,,,,,,,,,,,,,,,,,,,,,,,,,,,,,,,,
782861,001,2022-11-20_23h50.06.986,Info_measure_main_exp,2022.2.2,Win32,59.27682276,,,,,,,,,,,,,,,,,,masks/mask_005.jpg,,,,,,,,,,,,,,,,,,,,,,,,,,,,,,,,,,,,,,,,,,,0,2,2,4,1,,,,,,,,,,,,,,,,,,,,,,,,,,,,,,,,,,,,,,,,,,,,,,
782861,001,2022-11-20_23h50.06.986,Info_measure_main_exp,2022.2.2,Win32,59.27682276,,,,,,,,,,,,,,,,,,masks/mask_003.jpg,,,,,,,,,,,,,,,,,,,,,,,,,,,,,,,,,,,,,,,,,,,0,3,3,2,1,,,,,,,,,,,,,,,,,,,,,,,,,,,,,,,,,,,,,,,,,,,,,,
782861,001,2022-11-20_23h50.06.986,Info_measure_main_exp,2022.2.2,Win32,59.27682276,,,,,,,,,,,,,,,,,,masks/mask_001.jpg,,,,,,,,,,,,,,,,,,,,,,,,,,,,,,,,,,,,,,,,,,,0,4,4,0,1,,,,,,,,,,,,,,,,,,,,,,,,,,,,,,,,,,,,,,,,,,,,,,
782861,001,2022-11-20_23h50.06.986,Info_measure_main_exp,2022.2.2,Win32,59.27682276,,,,,,,,,,,,,,,,,,masks/mask_001.jpg,,,,,,,,,,,,,,,,,,,,,,,,,,,,,,,,,,,,,,,,,,,,,,,,0,0,0,0,1,,,,,,,,,,,,,,,,,,,,,,,,,,,,,,,,,,,,,,,,,
782861,001,2022-11-20_23h50.06.986,Info_measure_main_exp,2022.2.2,Win32,59.27682276,,,,,,,,,,,,,,,,,,masks/mask_004.jpg,,,,,,,,,,,,,,,,,,,,,,,,,,,,,,,,,,,,,,,,,,,,,,,,0,1,1,3,1,,,,,,,,,,,,,,,,,,,,,,,,,,,,,,,,,,,,,,,,,
782861,001,2022-11-20_23h50.06.986,Info_measure_main_exp,2022.2.2,Win32,59.27682276,,,,,,,,,,,,,,,,,,masks/mask_002.jpg,,,,,,,,,,,,,,,,,,,,,,,,,,,,,,,,,,,,,,,,,,,,,,,,0,2,2,1,1,,,,,,,,,,,,,,,,,,,,,,,,,,,,,,,,,,,,,,,,,
782861,001,2022-11-20_23h50.06.986,Info_measure_main_exp,2022.2.2,Win32,59.27682276,,,,,,,,,,,,,,,,,,masks/mask_005.jpg,,,,,,,,,,,,,,,,,,,,,,,,,,,,,,,,,,,,,,,,,,,,,,,,0,3,3,4,1,,,,,,,,,,,,,,,,,,,,,,,,,,,,,,,,,,,,,,,,,
782861,001,2022-11-20_23h50.06.986,Info_measure_main_exp,2022.2.2,Win32,59.27682276,,,,,,,,,,,,,,,,,,masks/mask_003.jpg,,,,,,,,,,,,,,,,,,,,,,,,,,,,,,,,,,,,,,,,,,,,,,,,0,4,4,2,1,,,,,,,,,,,,,,,,,,,,,,,,,,,,,,,,,,,,,,,,,
782861,001,2022-11-20_23h50.06.986,Info_measure_main_exp,2022.2.2,Win32,59.27682276,,,,,,,,,,,,,,,,,,,,,,,,,,,,,,3,0.5368,1,,,,,,,,,,,,0,131,5,5,2190,2166,absent_patch/patch0002190.jpg,absent_patch/patch0002166.jpg,,,,,,,,,,,,,,,,,,,,-0.032407407,-0.091666681,1,0,0,response5disk,33,0.008333347,0,1,0,0,center_square,0,32,32,50,1,,,,,,,,,,,,,,,,,,,,,,,
782861,001,2022-11-20_23h50.06.986,Info_measure_main_exp,2022.2.2,Win32,59.27682276,,,,,,,,,,,,,,,,,,masks/mask_002.jpg,,,,,,,,,,,,,,,,,,,,,,,,,,,,,,,,,,,,,,,,,,,0,0,0,1,1,,,,,,,,,,,,,,,,,,,,,,,,,,,,,,,,,,,,,,,,,,,,,,
782861,001,2022-11-20_23h50.06.986,Info_measure_main_exp,2022.2.2,Win32,59.27682276,,,,,,,,,,,,,,,,,,masks/mask_005.jpg,,,,,,,,,,,,,,,,,,,,,,,,,,,,,,,,,,,,,,,,,,,0,1,1,4,1,,,,,,,,,,,,,,,,,,,,,,,,,,,,,,,,,,,,,,,,,,,,,,
782861,001,2022-11-20_23h50.06.986,Info_measure_main_exp,2022.2.2,Win32,59.27682276,,,,,,,,,,,,,,,,,,masks/mask_004.jpg,,,,,,,,,,,,,,,,,,,,,,,,,,,,,,,,,,,,,,,,,,,0,2,2,3,1,,,,,,,,,,,,,,,,,,,,,,,,,,,,,,,,,,,,,,,,,,,,,,
782861,001,2022-11-20_23h50.06.986,Info_measure_main_exp,2022.2.2,Win32,59.27682276,,,,,,,,,,,,,,,,,,masks/mask_001.jpg,,,,,,,,,,,,,,,,,,,,,,,,,,,,,,,,,,,,,,,,,,,0,3,3,0,1,,,,,,,,,,,,,,,,,,,,,,,,,,,,,,,,,,,,,,,,,,,,,,
782861,001,2022-11-20_23h50.06.986,Info_measure_main_exp,2022.2.2,Win32,59.27682276,,,,,,,,,,,,,,,,,,masks/mask_003.jpg,,,,,,,,,,,,,,,,,,,,,,,,,,,,,,,,,,,,,,,,,,,0,4,4,2,1,,,,,,,,,,,,,,,,,,,,,,,,,,,,,,,,,,,,,,,,,,,,,,
782861,001,2022-11-20_23h50.06.986,Info_measure_main_exp,2022.2.2,Win32,59.27682276,,,,,,,,,,,,,,,,,,masks/mask_003.jpg,,,,,,,,,,,,,,,,,,,,,,,,,,,,,,,,,,,,,,,,,,,,,,,,0,0,0,2,1,,,,,,,,,,,,,,,,,,,,,,,,,,,,,,,,,,,,,,,,,
782861,001,2022-11-20_23h50.06.986,Info_measure_main_exp,2022.2.2,Win32,59.27682276,,,,,,,,,,,,,,,,,,masks/mask_002.jpg,,,,,,,,,,,,,,,,,,,,,,,,,,,,,,,,,,,,,,,,,,,,,,,,0,1,1,1,1,,,,,,,,,,,,,,,,,,,,,,,,,,,,,,,,,,,,,,,,,
782861,001,2022-11-20_23h50.06.986,Info_measure_main_exp,2022.2.2,Win32,59.27682276,,,,,,,,,,,,,,,,,,masks/mask_001.jpg,,,,,,,,,,,,,,,,,,,,,,,,,,,,,,,,,,,,,,,,,,,,,,,,0,2,2,0,1,,,,,,,,,,,,,,,,,,,,,,,,,,,,,,,,,,,,,,,,,
782861,001,2022-11-20_23h50.06.986,Info_measure_main_exp,2022.2.2,Win32,59.27682276,,,,,,,,,,,,,,,,,,masks/mask_004.jpg,,,,,,,,,,,,,,,,,,,,,,,,,,,,,,,,,,,,,,,,,,,,,,,,0,3,3,3,1,,,,,,,,,,,,,,,,,,,,,,,,,,,,,,,,,,,,,,,,,
782861,001,2022-11-20_23h50.06.986,Info_measure_main_exp,2022.2.2,Win32,59.27682276,,,,,,,,,,,,,,,,,,masks/mask_005.jpg,,,,,,,,,,,,,,,,,,,,,,,,,,,,,,,,,,,,,,,,,,,,,,,,0,4,4,4,1,,,,,,,,,,,,,,,,,,,,,,,,,,,,,,,,,,,,,,,,,
782861,001,2022-11-20_23h50.06.986,Info_measure_main_exp,2022.2.2,Win32,59.27682276,,,,,,,,,,,,,,,,,,,,,,,,,,,,,,7,0.4826,1,,,,,,,,,,,,0,131,5,5,2274,2250,absent_patch/patch0002274.jpg,absent_patch/patch0002250.jpg,,,,,,,,,,,,,,,,,,,,0.030555584,0.091666645,1,0,0,response1disk,34,-0.001851824,-0.002777771,1,0,0,center_square,0,33,33,28,1,,,,,,,,,,,,,,,,,,,,,,,
782861,001,2022-11-20_23h50.06.986,Info_measure_main_exp,2022.2.2,Win32,59.27682276,,,,,,,,,,,,,,,,,,masks/mask_005.jpg,,,,,,,,,,,,,,,,,,,,,,,,,,,,,,,,,,,,,,,,,,,0,0,0,4,1,,,,,,,,,,,,,,,,,,,,,,,,,,,,,,,,,,,,,,,,,,,,,,
782861,001,2022-11-20_23h50.06.986,Info_measure_main_exp,2022.2.2,Win32,59.27682276,,,,,,,,,,,,,,,,,,masks/mask_002.jpg,,,,,,,,,,,,,,,,,,,,,,,,,,,,,,,,,,,,,,,,,,,0,1,1,1,1,,,,,,,,,,,,,,,,,,,,,,,,,,,,,,,,,,,,,,,,,,,,,,
782861,001,2022-11-20_23h50.06.986,Info_measure_main_exp,2022.2.2,Win32,59.27682276,,,,,,,,,,,,,,,,,,masks/mask_004.jpg,,,,,,,,,,,,,,,,,,,,,,,,,,,,,,,,,,,,,,,,,,,0,2,2,3,1,,,,,,,,,,,,,,,,,,,,,,,,,,,,,,,,,,,,,,,,,,,,,,
782861,001,2022-11-20_23h50.06.986,Info_measure_main_exp,2022.2.2,Win32,59.27682276,,,,,,,,,,,,,,,,,,masks/mask_001.jpg,,,,,,,,,,,,,,,,,,,,,,,,,,,,,,,,,,,,,,,,,,,0,3,3,0,1,,,,,,,,,,,,,,,,,,,,,,,,,,,,,,,,,,,,,,,,,,,,,,
782861,001,2022-11-20_23h50.06.986,Info_measure_main_exp,2022.2.2,Win32,59.27682276,,,,,,,,,,,,,,,,,,masks/mask_003.jpg,,,,,,,,,,,,,,,,,,,,,,,,,,,,,,,,,,,,,,,,,,,0,4,4,2,1,,,,,,,,,,,,,,,,,,,,,,,,,,,,,,,,,,,,,,,,,,,,,,
782861,001,2022-11-20_23h50.06.986,Info_measure_main_exp,2022.2.2,Win32,59.27682276,,,,,,,,,,,,,,,,,,masks/mask_005.jpg,,,,,,,,,,,,,,,,,,,,,,,,,,,,,,,,,,,,,,,,,,,,,,,,0,0,0,4,1,,,,,,,,,,,,,,,,,,,,,,,,,,,,,,,,,,,,,,,,,
782861,001,2022-11-20_23h50.06.986,Info_measure_main_exp,2022.2.2,Win32,59.27682276,,,,,,,,,,,,,,,,,,masks/mask_001.jpg,,,,,,,,,,,,,,,,,,,,,,,,,,,,,,,,,,,,,,,,,,,,,,,,0,1,1,0,1,,,,,,,,,,,,,,,,,,,,,,,,,,,,,,,,,,,,,,,,,
782861,001,2022-11-20_23h50.06.986,Info_measure_main_exp,2022.2.2,Win32,59.27682276,,,,,,,,,,,,,,,,,,masks/mask_003.jpg,,,,,,,,,,,,,,,,,,,,,,,,,,,,,,,,,,,,,,,,,,,,,,,,0,2,2,2,1,,,,,,,,,,,,,,,,,,,,,,,,,,,,,,,,,,,,,,,,,
782861,001,2022-11-20_23h50.06.986,Info_measure_main_exp,2022.2.2,Win32,59.27682276,,,,,,,,,,,,,,,,,,masks/mask_004.jpg,,,,,,,,,,,,,,,,,,,,,,,,,,,,,,,,,,,,,,,,,,,,,,,,0,3,3,3,1,,,,,,,,,,,,,,,,,,,,,,,,,,,,,,,,,,,,,,,,,
