participant,session,date,expName,psychopyVersion,OS,frameRate,space_press_continue.keys,space_press_continue.rt,space_press_continue_2.keys,space_press_continue_2.rt,space_press_continue_3.keys,space_press_continue_3.rt,space_press_continue_4.keys,space_press_continue_4.rt,space_press_continue_5.keys,space_press_continue_5.rt,space_press_continue_6.keys,space_press_continue_6.rt,prac_mask_loop_1.thisRepN,prac_mask_loop_1.thisTrialN,prac_mask_loop_1.thisN,prac_mask_loop_1.thisIndex,prac_mask_loop_1.ran,mask_name,prac_mask_loop_2.thisRepN,prac_mask_loop_2.thisTrialN,prac_mask_loop_2.thisN,prac_mask_loop_2.thisIndex,prac_mask_loop_2.ran,mouse_2.x,mouse_2.y,mouse_2.leftButton,mouse_2.midButton,mouse_2.rightButton,mouse_2.clicked_name,similarity,response_time,Pass,mouse_12.x,mouse_12.y,mouse_12.leftButton,mouse_12.midButton,mouse_12.rightButton,mouse_12.clicked_name,prac_loop.thisRepN,prac_loop.thisTrialN,prac_loop.thisN,prac_loop.thisIndex,prac_loop.ran,Pair_type,Image_num,Patch_1_loc,Patch_2_loc,Patch_1_info,Patch_2_info,Patch_1_name,Patch_2_name,mouse_1.x,mouse_1.y,mouse_1.leftButton,mouse_1.midButton,mouse_1.rightButton,mouse_1.time,mouse_1.clicked_name,space_press_continue_7.keys,space_press_continue_7.rt,mask_loop.thisRepN,mask_loop.thisTrialN,mask_loop.thisN,mask_loop.thisIndex,mask_loop.ran,mask_loop_2.thisRepN,mask_loop_2.thisTrialN,mask_loop_2.thisN,mask_loop_2.thisIndex,mask_loop_2.ran,mouse.x,mouse.y,mouse.leftButton,mouse.midButton,mouse.rightButton,mouse.clicked_name,trialNumber,mouse_11.x,mouse_11.y,mouse_11.leftButton,mouse_11.midButton,mouse_11.rightButton,mouse_11.clicked_name,first_pass_loop.thisRepN,first_pass_loop.thisTrialN,first_pass_loop.thisN,first_pass_loop.thisIndex,first_pass_loop.ran,mask_loop_3.thisRepN,mask_loop_3.thisTrialN,mask_loop_3.thisN,mask_loop_3.thisIndex,mask_loop_3.ran,mask_loop_4.thisRepN,mask_loop_4.thisTrialN,mask_loop_4.thisN,mask_loop_4.thisIndex,mask_loop_4.ran,mouse_3.x,mouse_3.y,mouse_3.leftButton,mouse_3.midButton,mouse_3.rightButton,mouse_3.clicked_name,double_pass_loop.thisRepN,double_pass_loop.thisTrialN,double_pass_loop.thisN,double_pass_loop.thisIndex,double_pass_loop.ran,space_exit.keys,space_exit.rt
789592,001,2022-11-20_18h49.15.258,Info_measure_main_exp,2022.2.2,Win32,60.2373351,,,,,,,,,,,,,,,,,,,,,,,,,,,,,,,,,,,,,,,,,,,,,,,,,,,,,,,,,,,,,,,,,,,,,,,,,,,,,,,,,,,,,,,,,,,,,,,,,,,,,,,,,,,,,,,
789592,001,2022-11-20_18h49.15.258,Info_measure_main_exp,2022.2.2,Win32,60.2373351,,,,,,,,,,,,,,,,,,,,,,,,,,,,,,,,,,,,,,,,,,,,,,,,,,,,,,,,,,,,,,,,,,,,,,,,,,,,,,,,,,,,,,,,,,,,,,,,,,,,,,,,,,,,,,,
789592,001,2022-11-20_18h49.15.258,Info_measure_main_exp,2022.2.2,Win32,60.2373351,space,2.9908,,,,,,,,,,,,,,,,,,,,,,,,,,,,,,,,,,,,,,,,,,,,,,,,,,,,,,,,,,,,,,,,,,,,,,,,,,,,,,,,,,,,,,,,,,,,,,,,,,,,,,,,,,,,,
789592,001,2022-11-20_18h49.15.258,Info_measure_main_exp,2022.2.2,Win32,60.2373351,,,space,1.9444,,,,,,,,,,,,,,,,,,,,,,,,,,,,,,,,,,,,,,,,,,,,,,,,,,,,,,,,,,,,,,,,,,,,,,,,,,,,,,,,,,,,,,,,,,,,,,,,,,,,,,,,,,,
789592,001,2022-11-20_18h49.15.258,Info_measure_main_exp,2022.2.2,Win32,60.2373351,,,,,space,0.4278,,,,,,,,,,,,,,,,,,,,,,,,,,,,,,,,,,,,,,,,,,,,,,,,,,,,,,,,,,,,,,,,,,,,,,,,,,,,,,,,,,,,,,,,,,,,,,,,,,,,,,,,,
789592,001,2022-11-20_18h49.15.258,Info_measure_main_exp,2022.2.2,Win32,60.2373351,,,,,,,space,0.4076,,,,,,,,,,,,,,,,,,,,,,,,,,,,,,,,,,,,,,,,,,,,,,,,,,,,,,,,,,,,,,,,,,,,,,,,,,,,,,,,,,,,,,,,,,,,,,,,,,,,,,,
789592,001,2022-11-20_18h49.15.258,Info_measure_main_exp,2022.2.2,Win32,60.2373351,,,,,,,,,space,1.3557,,,,,,,,,,,,,,,,,,,,,,,,,,,,,,,,,,,,,,,,,,,,,,,,,,,,,,,,,,,,,,,,,,,,,,,,,,,,,,,,,,,,,,,,,,,,,,,,,,,,,
789592,001,2022-11-20_18h49.15.258,Info_measure_main_exp,2022.2.2,Win32,60.2373351,,,,,,,,,,,space,1.2538,,,,,,,,,,,,,,,,,,,,,,,,,,,,,,,,,,,,,,,,,,,,,,,,,,,,,,,,,,,,,,,,,,,,,,,,,,,,,,,,,,,,,,,,,,,,,,,,,,,
789592,001,2022-11-20_18h49.15.258,Info_measure_main_exp,2022.2.2,Win32,60.2373351,,,,,,,,,,,,,0,0,0,4,1,masks/mask_005.jpg,,,,,,,,,,,,,,,,,,,,,,,,,,,,,,,,,,,,,,,,,,,,,,,,,,,,,,,,,,,,,,,,,,,,,,,,,,,,,,,,,,,,,,,,,,,,,
789592,001,2022-11-20_18h49.15.258,Info_measure_main_exp,2022.2.2,Win32,60.2373351,,,,,,,,,,,,,0,1,1,1,1,masks/mask_002.jpg,,,,,,,,,,,,,,,,,,,,,,,,,,,,,,,,,,,,,,,,,,,,,,,,,,,,,,,,,,,,,,,,,,,,,,,,,,,,,,,,,,,,,,,,,,,,,
789592,001,2022-11-20_18h49.15.258,Info_measure_main_exp,2022.2.2,Win32,60.2373351,,,,,,,,,,,,,0,2,2,0,1,masks/mask_001.jpg,,,,,,,,,,,,,,,,,,,,,,,,,,,,,,,,,,,,,,,,,,,,,,,,,,,,,,,,,,,,,,,,,,,,,,,,,,,,,,,,,,,,,,,,,,,,,
789592,001,2022-11-20_18h49.15.258,Info_measure_main_exp,2022.2.2,Win32,60.2373351,,,,,,,,,,,,,0,3,3,3,1,masks/mask_004.jpg,,,,,,,,,,,,,,,,,,,,,,,,,,,,,,,,,,,,,,,,,,,,,,,,,,,,,,,,,,,,,,,,,,,,,,,,,,,,,,,,,,,,,,,,,,,,,
789592,001,2022-11-20_18h49.15.258,Info_measure_main_exp,2022.2.2,Win32,60.2373351,,,,,,,,,,,,,0,4,4,2,1,masks/mask_003.jpg,,,,,,,,,,,,,,,,,,,,,,,,,,,,,,,,,,,,,,,,,,,,,,,,,,,,,,,,,,,,,,,,,,,,,,,,,,,,,,,,,,,,,,,,,,,,,
789592,001,2022-11-20_18h49.15.258,Info_measure_main_exp,2022.2.2,Win32,60.2373351,,,,,,,,,,,,,,,,,,masks/mask_001.jpg,0,0,0,0,1,,,,,,,,,,,,,,,,,,,,,,,,,,,,,,,,,,,,,,,,,,,,,,,,,,,,,,,,,,,,,,,,,,,,,,,,,,,,,,,,,,,,,,,,
789592,001,2022-11-20_18h49.15.258,Info_measure_main_exp,2022.2.2,Win32,60.2373351,,,,,,,,,,,,,,,,,,masks/mask_005.jpg,0,1,1,4,1,,,,,,,,,,,,,,,,,,,,,,,,,,,,,,,,,,,,,,,,,,,,,,,,,,,,,,,,,,,,,,,,,,,,,,,,,,,,,,,,,,,,,,,,
789592,001,2022-11-20_18h49.15.258,Info_measure_main_exp,2022.2.2,Win32,60.2373351,,,,,,,,,,,,,,,,,,masks/mask_002.jpg,0,2,2,1,1,,,,,,,,,,,,,,,,,,,,,,,,,,,,,,,,,,,,,,,,,,,,,,,,,,,,,,,,,,,,,,,,,,,,,,,,,,,,,,,,,,,,,,,,
789592,001,2022-11-20_18h49.15.258,Info_measure_main_exp,2022.2.2,Win32,60.2373351,,,,,,,,,,,,,,,,,,masks/mask_003.jpg,0,3,3,2,1,,,,,,,,,,,,,,,,,,,,,,,,,,,,,,,,,,,,,,,,,,,,,,,,,,,,,,,,,,,,,,,,,,,,,,,,,,,,,,,,,,,,,,,,
789592,001,2022-11-20_18h49.15.258,Info_measure_main_exp,2022.2.2,Win32,60.2373351,,,,,,,,,,,,,,,,,,masks/mask_004.jpg,0,4,4,3,1,,,,,,,,,,,,,,,,,,,,,,,,,,,,,,,,,,,,,,,,,,,,,,,,,,,,,,,,,,,,,,,,,,,,,,,,,,,,,,,,,,,,,,,,
789592,001,2022-11-20_18h49.15.258,Info_measure_main_exp,2022.2.2,Win32,60.2373351,,,,,,,,,,,,,,,,,,,,,,,,0.040364583,0.161458333,1,0,0,response1disk,7,11.9037,1,0.002604167,-0.01171875,1,0,0,center_square,0,0,0,1,1,0,131,5,5,2514,2490,prac_patch/patch0002514.jpg,prac_patch/patch0002490.jpg,,,,,,,,,,,,,,,,,,,,,,,,,,,,,,,,,,,,,,,,,,,,,,,,,,,,,,,,,,,,
789592,001,2022-11-20_18h49.15.258,Info_measure_main_exp,2022.2.2,Win32,60.2373351,,,,,,,,,,,,,0,0,0,0,1,masks/mask_001.jpg,,,,,,,,,,,,,,,,,,,,,,,,,,,,,,,,,,,,,,,,,,,,,,,,,,,,,,,,,,,,,,,,,,,,,,,,,,,,,,,,,,,,,,,,,,,,,
789592,001,2022-11-20_18h49.15.258,Info_measure_main_exp,2022.2.2,Win32,60.2373351,,,,,,,,,,,,,0,1,1,1,1,masks/mask_002.jpg,,,,,,,,,,,,,,,,,,,,,,,,,,,,,,,,,,,,,,,,,,,,,,,,,,,,,,,,,,,,,,,,,,,,,,,,,,,,,,,,,,,,,,,,,,,,,
789592,001,2022-11-20_18h49.15.258,Info_measure_main_exp,2022.2.2,Win32,60.2373351,,,,,,,,,,,,,0,2,2,2,1,masks/mask_003.jpg,,,,,,,,,,,,,,,,,,,,,,,,,,,,,,,,,,,,,,,,,,,,,,,,,,,,,,,,,,,,,,,,,,,,,,,,,,,,,,,,,,,,,,,,,,,,,
789592,001,2022-11-20_18h49.15.258,Info_measure_main_exp,2022.2.2,Win32,60.2373351,,,,,,,,,,,,,0,3,3,3,1,masks/mask_004.jpg,,,,,,,,,,,,,,,,,,,,,,,,,,,,,,,,,,,,,,,,,,,,,,,,,,,,,,,,,,,,,,,,,,,,,,,,,,,,,,,,,,,,,,,,,,,,,
789592,001,2022-11-20_18h49.15.258,Info_measure_main_exp,2022.2.2,Win32,60.2373351,,,,,,,,,,,,,0,4,4,4,1,masks/mask_005.jpg,,,,,,,,,,,,,,,,,,,,,,,,,,,,,,,,,,,,,,,,,,,,,,,,,,,,,,,,,,,,,,,,,,,,,,,,,,,,,,,,,,,,,,,,,,,,,
789592,001,2022-11-20_18h49.15.258,Info_measure_main_exp,2022.2.2,Win32,60.2373351,,,,,,,,,,,,,,,,,,masks/mask_001.jpg,0,0,0,0,1,,,,,,,,,,,,,,,,,,,,,,,,,,,,,,,,,,,,,,,,,,,,,,,,,,,,,,,,,,,,,,,,,,,,,,,,,,,,,,,,,,,,,,,,
789592,001,2022-11-20_18h49.15.258,Info_measure_main_exp,2022.2.2,Win32,60.2373351,,,,,,,,,,,,,,,,,,masks/mask_002.jpg,0,1,1,1,1,,,,,,,,,,,,,,,,,,,,,,,,,,,,,,,,,,,,,,,,,,,,,,,,,,,,,,,,,,,,,,,,,,,,,,,,,,,,,,,,,,,,,,,,
789592,001,2022-11-20_18h49.15.258,Info_measure_main_exp,2022.2.2,Win32,60.2373351,,,,,,,,,,,,,,,,,,masks/mask_005.jpg,0,2,2,4,1,,,,,,,,,,,,,,,,,,,,,,,,,,,,,,,,,,,,,,,,,,,,,,,,,,,,,,,,,,,,,,,,,,,,,,,,,,,,,,,,,,,,,,,,
789592,001,2022-11-20_18h49.15.258,Info_measure_main_exp,2022.2.2,Win32,60.2373351,,,,,,,,,,,,,,,,,,masks/mask_004.jpg,0,3,3,3,1,,,,,,,,,,,,,,,,,,,,,,,,,,,,,,,,,,,,,,,,,,,,,,,,,,,,,,,,,,,,,,,,,,,,,,,,,,,,,,,,,,,,,,,,
789592,001,2022-11-20_18h49.15.258,Info_measure_main_exp,2022.2.2,Win32,60.2373351,,,,,,,,,,,,,,,,,,masks/mask_003.jpg,0,4,4,2,1,,,,,,,,,,,,,,,,,,,,,,,,,,,,,,,,,,,,,,,,,,,,,,,,,,,,,,,,,,,,,,,,,,,,,,,,,,,,,,,,,,,,,,,,
789592,001,2022-11-20_18h49.15.258,Info_measure_main_exp,2022.2.2,Win32,60.2373351,,,,,,,,,,,,,,,,,,,,,,,,-0.032552083,0.0703125,1,0,0,response7disk,0,24.923,1,0.009114583,-0.00390625,1,0,0,center_square,0,1,1,2,1,0,131,5,5,2526,2526,prac_patch/patch0002526.jpg,prac_patch/patch0002526.jpg,,,,,,,,,,,,,,,,,,,,,,,,,,,,,,,,,,,,,,,,,,,,,,,,,,,,,,,,,,,,
789592,001,2022-11-20_18h49.15.258,Info_measure_main_exp,2022.2.2,Win32,60.2373351,,,,,,,,,,,,,0,0,0,4,1,masks/mask_005.jpg,,,,,,,,,,,,,,,,,,,,,,,,,,,,,,,,,,,,,,,,,,,,,,,,,,,,,,,,,,,,,,,,,,,,,,,,,,,,,,,,,,,,,,,,,,,,,
789592,001,2022-11-20_18h49.15.258,Info_measure_main_exp,2022.2.2,Win32,60.2373351,,,,,,,,,,,,,0,1,1,3,1,masks/mask_004.jpg,,,,,,,,,,,,,,,,,,,,,,,,,,,,,,,,,,,,,,,,,,,,,,,,,,,,,,,,,,,,,,,,,,,,,,,,,,,,,,,,,,,,,,,,,,,,,
789592,001,2022-11-20_18h49.15.258,Info_measure_main_exp,2022.2.2,Win32,60.2373351,,,,,,,,,,,,,0,2,2,1,1,masks/mask_002.jpg,,,,,,,,,,,,,,,,,,,,,,,,,,,,,,,,,,,,,,,,,,,,,,,,,,,,,,,,,,,,,,,,,,,,,,,,,,,,,,,,,,,,,,,,,,,,,
789592,001,2022-11-20_18h49.15.258,Info_measure_main_exp,2022.2.2,Win32,60.2373351,,,,,,,,,,,,,0,3,3,2,1,masks/mask_003.jpg,,,,,,,,,,,,,,,,,,,,,,,,,,,,,,,,,,,,,,,,,,,,,,,,,,,,,,,,,,,,,,,,,,,,,,,,,,,,,,,,,,,,,,,,,,,,,
789592,001,2022-11-20_18h49.15.258,Info_measure_main_exp,2022.2.2,Win32,60.2373351,,,,,,,,,,,,,0,4,4,0,1,masks/mask_001.jpg,,,,,,,,,,,,,,,,,,,,,,,,,,,,,,,,,,,,,,,,,,,,,,,,,,,,,,,,,,,,,,,,,,,,,,,,,,,,,,,,,,,,,,,,,,,,,
789592,001,2022-11-20_18h49.15.258,Info_measure_main_exp,2022.2.2,Win32,60.2373351,,,,,,,,,,,,,,,,,,masks/mask_001.jpg,0,0,0,0,1,,,,,,,,,,,,,,,,,,,,,,,,,,,,,,,,,,,,,,,,,,,,,,,,,,,,,,,,,,,,,,,,,,,,,,,,,,,,,,,,,,,,,,,,
789592,001,2022-11-20_18h49.15.258,Info_measure_main_exp,2022.2.2,Win32,60.2373351,,,,,,,,,,,,,,,,,,masks/mask_004.jpg,0,1,1,3,1,,,,,,,,,,,,,,,,,,,,,,,,,,,,,,,,,,,,,,,,,,,,,,,,,,,,,,,,,,,,,,,,,,,,,,,,,,,,,,,,,,,,,,,,
789592,001,2022-11-20_18h49.15.258,Info_measure_main_exp,2022.2.2,Win32,60.2373351,,,,,,,,,,,,,,,,,,masks/mask_003.jpg,0,2,2,2,1,,,,,,,,,,,,,,,,,,,,,,,,,,,,,,,,,,,,,,,,,,,,,,,,,,,,,,,,,,,,,,,,,,,,,,,,,,,,,,,,,,,,,,,,
789592,001,2022-11-20_18h49.15.258,Info_measure_main_exp,2022.2.2,Win32,60.2373351,,,,,,,,,,,,,,,,,,masks/mask_002.jpg,0,3,3,1,1,,,,,,,,,,,,,,,,,,,,,,,,,,,,,,,,,,,,,,,,,,,,,,,,,,,,,,,,,,,,,,,,,,,,,,,,,,,,,,,,,,,,,,,,
789592,001,2022-11-20_18h49.15.258,Info_measure_main_exp,2022.2.2,Win32,60.2373351,,,,,,,,,,,,,,,,,,masks/mask_005.jpg,0,4,4,4,1,,,,,,,,,,,,,,,,,,,,,,,,,,,,,,,,,,,,,,,,,,,,,,,,,,,,,,,,,,,,,,,,,,,,,,,,,,,,,,,,,,,,,,,,
789592,001,2022-11-20_18h49.15.258,Info_measure_main_exp,2022.2.2,Win32,60.2373351,,,,,,,,,,,,,,,,,,,,,,,,0.026041667,0.05859375,1,0,0,response1disk,7,34.698,1,0,-0.005208333,1,0,0,center_square,0,2,2,0,1,0,131,5,5,2370,2406,prac_patch/patch0002370.jpg,prac_patch/patch0002406.jpg,,,,,,,,,,,,,,,,,,,,,,,,,,,,,,,,,,,,,,,,,,,,,,,,,,,,,,,,,,,,
789592,001,2022-11-20_18h49.15.258,Info_measure_main_exp,2022.2.2,Win32,60.2373351,,,,,,,,,,,,,,,,,,,,,,,,,,,,,,,,,,,,,,,,,,,,,,,,,,,,,,,,,,,space,1.1914,,,,,,,,,,,,,,,,,,,,,,,,,,,,,,,,,,,,,,,,,,,,,,,,,,,
789592,001,2022-11-20_18h49.15.258,Info_measure_main_exp,2022.2.2,Win32,60.2373351,,,,,,,,,,,,,,,,,,masks/mask_001.jpg,,,,,,,,,,,,,,,,,,,,,,,,,,,,,,,,,,,,,,,,,,,0,0,0,0,1,,,,,,,,,,,,,,,,,,,,,,,,,,,,,,,,,,,,,,,,,,,,,,
789592,001,2022-11-20_18h49.15.258,Info_measure_main_exp,2022.2.2,Win32,60.2373351,,,,,,,,,,,,,,,,,,masks/mask_004.jpg,,,,,,,,,,,,,,,,,,,,,,,,,,,,,,,,,,,,,,,,,,,0,1,1,3,1,,,,,,,,,,,,,,,,,,,,,,,,,,,,,,,,,,,,,,,,,,,,,,
789592,001,2022-11-20_18h49.15.258,Info_measure_main_exp,2022.2.2,Win32,60.2373351,,,,,,,,,,,,,,,,,,masks/mask_003.jpg,,,,,,,,,,,,,,,,,,,,,,,,,,,,,,,,,,,,,,,,,,,0,2,2,2,1,,,,,,,,,,,,,,,,,,,,,,,,,,,,,,,,,,,,,,,,,,,,,,
789592,001,2022-11-20_18h49.15.258,Info_measure_main_exp,2022.2.2,Win32,60.2373351,,,,,,,,,,,,,,,,,,masks/mask_002.jpg,,,,,,,,,,,,,,,,,,,,,,,,,,,,,,,,,,,,,,,,,,,0,3,3,1,1,,,,,,,,,,,,,,,,,,,,,,,,,,,,,,,,,,,,,,,,,,,,,,
789592,001,2022-11-20_18h49.15.258,Info_measure_main_exp,2022.2.2,Win32,60.2373351,,,,,,,,,,,,,,,,,,masks/mask_005.jpg,,,,,,,,,,,,,,,,,,,,,,,,,,,,,,,,,,,,,,,,,,,0,4,4,4,1,,,,,,,,,,,,,,,,,,,,,,,,,,,,,,,,,,,,,,,,,,,,,,
789592,001,2022-11-20_18h49.15.258,Info_measure_main_exp,2022.2.2,Win32,60.2373351,,,,,,,,,,,,,,,,,,masks/mask_004.jpg,,,,,,,,,,,,,,,,,,,,,,,,,,,,,,,,,,,,,,,,,,,,,,,,0,0,0,3,1,,,,,,,,,,,,,,,,,,,,,,,,,,,,,,,,,,,,,,,,,
789592,001,2022-11-20_18h49.15.258,Info_measure_main_exp,2022.2.2,Win32,60.2373351,,,,,,,,,,,,,,,,,,masks/mask_001.jpg,,,,,,,,,,,,,,,,,,,,,,,,,,,,,,,,,,,,,,,,,,,,,,,,0,1,1,0,1,,,,,,,,,,,,,,,,,,,,,,,,,,,,,,,,,,,,,,,,,
789592,001,2022-11-20_18h49.15.258,Info_measure_main_exp,2022.2.2,Win32,60.2373351,,,,,,,,,,,,,,,,,,masks/mask_005.jpg,,,,,,,,,,,,,,,,,,,,,,,,,,,,,,,,,,,,,,,,,,,,,,,,0,2,2,4,1,,,,,,,,,,,,,,,,,,,,,,,,,,,,,,,,,,,,,,,,,
789592,001,2022-11-20_18h49.15.258,Info_measure_main_exp,2022.2.2,Win32,60.2373351,,,,,,,,,,,,,,,,,,masks/mask_002.jpg,,,,,,,,,,,,,,,,,,,,,,,,,,,,,,,,,,,,,,,,,,,,,,,,0,3,3,1,1,,,,,,,,,,,,,,,,,,,,,,,,,,,,,,,,,,,,,,,,,
789592,001,2022-11-20_18h49.15.258,Info_measure_main_exp,2022.2.2,Win32,60.2373351,,,,,,,,,,,,,,,,,,masks/mask_003.jpg,,,,,,,,,,,,,,,,,,,,,,,,,,,,,,,,,,,,,,,,,,,,,,,,0,4,4,2,1,,,,,,,,,,,,,,,,,,,,,,,,,,,,,,,,,,,,,,,,,
789592,001,2022-11-20_18h49.15.258,Info_measure_main_exp,2022.2.2,Win32,60.2373351,,,,,,,,,,,,,,,,,,,,,,,,,,,,,,7,1.4473,1,,,,,,,,,,,,0,131,5,5,1974,2238,absent_patch/patch0001974.jpg,absent_patch/patch0002238.jpg,,,,,,,,,,,,,,,,,,,,0.01171875,0.05859375,1,0,0,response1disk,1,-0.009114583,-0.005208333,1,0,0,center_square,0,0,0,95,1,,,,,,,,,,,,,,,,,,,,,,,
789592,001,2022-11-20_18h49.15.258,Info_measure_main_exp,2022.2.2,Win32,60.2373351,,,,,,,,,,,,,,,,,,masks/mask_004.jpg,,,,,,,,,,,,,,,,,,,,,,,,,,,,,,,,,,,,,,,,,,,0,0,0,3,1,,,,,,,,,,,,,,,,,,,,,,,,,,,,,,,,,,,,,,,,,,,,,,
789592,001,2022-11-20_18h49.15.258,Info_measure_main_exp,2022.2.2,Win32,60.2373351,,,,,,,,,,,,,,,,,,masks/mask_001.jpg,,,,,,,,,,,,,,,,,,,,,,,,,,,,,,,,,,,,,,,,,,,0,1,1,0,1,,,,,,,,,,,,,,,,,,,,,,,,,,,,,,,,,,,,,,,,,,,,,,
789592,001,2022-11-20_18h49.15.258,Info_measure_main_exp,2022.2.2,Win32,60.2373351,,,,,,,,,,,,,,,,,,masks/mask_002.jpg,,,,,,,,,,,,,,,,,,,,,,,,,,,,,,,,,,,,,,,,,,,0,2,2,1,1,,,,,,,,,,,,,,,,,,,,,,,,,,,,,,,,,,,,,,,,,,,,,,
789592,001,2022-11-20_18h49.15.258,Info_measure_main_exp,2022.2.2,Win32,60.2373351,,,,,,,,,,,,,,,,,,masks/mask_003.jpg,,,,,,,,,,,,,,,,,,,,,,,,,,,,,,,,,,,,,,,,,,,0,3,3,2,1,,,,,,,,,,,,,,,,,,,,,,,,,,,,,,,,,,,,,,,,,,,,,,
789592,001,2022-11-20_18h49.15.258,Info_measure_main_exp,2022.2.2,Win32,60.2373351,,,,,,,,,,,,,,,,,,masks/mask_005.jpg,,,,,,,,,,,,,,,,,,,,,,,,,,,,,,,,,,,,,,,,,,,0,4,4,4,1,,,,,,,,,,,,,,,,,,,,,,,,,,,,,,,,,,,,,,,,,,,,,,
789592,001,2022-11-20_18h49.15.258,Info_measure_main_exp,2022.2.2,Win32,60.2373351,,,,,,,,,,,,,,,,,,masks/mask_002.jpg,,,,,,,,,,,,,,,,,,,,,,,,,,,,,,,,,,,,,,,,,,,,,,,,0,0,0,1,1,,,,,,,,,,,,,,,,,,,,,,,,,,,,,,,,,,,,,,,,,
789592,001,2022-11-20_18h49.15.258,Info_measure_main_exp,2022.2.2,Win32,60.2373351,,,,,,,,,,,,,,,,,,masks/mask_005.jpg,,,,,,,,,,,,,,,,,,,,,,,,,,,,,,,,,,,,,,,,,,,,,,,,0,1,1,4,1,,,,,,,,,,,,,,,,,,,,,,,,,,,,,,,,,,,,,,,,,
789592,001,2022-11-20_18h49.15.258,Info_measure_main_exp,2022.2.2,Win32,60.2373351,,,,,,,,,,,,,,,,,,masks/mask_001.jpg,,,,,,,,,,,,,,,,,,,,,,,,,,,,,,,,,,,,,,,,,,,,,,,,0,2,2,0,1,,,,,,,,,,,,,,,,,,,,,,,,,,,,,,,,,,,,,,,,,
789592,001,2022-11-20_18h49.15.258,Info_measure_main_exp,2022.2.2,Win32,60.2373351,,,,,,,,,,,,,,,,,,masks/mask_003.jpg,,,,,,,,,,,,,,,,,,,,,,,,,,,,,,,,,,,,,,,,,,,,,,,,0,3,3,2,1,,,,,,,,,,,,,,,,,,,,,,,,,,,,,,,,,,,,,,,,,
789592,001,2022-11-20_18h49.15.258,Info_measure_main_exp,2022.2.2,Win32,60.2373351,,,,,,,,,,,,,,,,,,masks/mask_004.jpg,,,,,,,,,,,,,,,,,,,,,,,,,,,,,,,,,,,,,,,,,,,,,,,,0,4,4,3,1,,,,,,,,,,,,,,,,,,,,,,,,,,,,,,,,,,,,,,,,,
789592,001,2022-11-20_18h49.15.258,Info_measure_main_exp,2022.2.2,Win32,60.2373351,,,,,,,,,,,,,,,,,,,,,,,,,,,,,,7,0.6497,1,,,,,,,,,,,,0,131,5,5,1950,2142,absent_patch/patch0001950.jpg,absent_patch/patch0002142.jpg,,,,,,,,,,,,,,,,,,,,0.013020833,0.057291667,1,0,0,response1disk,2,0,0,1,0,0,center_square,0,1,1,83,1,,,,,,,,,,,,,,,,,,,,,,,
789592,001,2022-11-20_18h49.15.258,Info_measure_main_exp,2022.2.2,Win32,60.2373351,,,,,,,,,,,,,,,,,,masks/mask_005.jpg,,,,,,,,,,,,,,,,,,,,,,,,,,,,,,,,,,,,,,,,,,,0,0,0,4,1,,,,,,,,,,,,,,,,,,,,,,,,,,,,,,,,,,,,,,,,,,,,,,
789592,001,2022-11-20_18h49.15.258,Info_measure_main_exp,2022.2.2,Win32,60.2373351,,,,,,,,,,,,,,,,,,masks/mask_002.jpg,,,,,,,,,,,,,,,,,,,,,,,,,,,,,,,,,,,,,,,,,,,0,1,1,1,1,,,,,,,,,,,,,,,,,,,,,,,,,,,,,,,,,,,,,,,,,,,,,,
789592,001,2022-11-20_18h49.15.258,Info_measure_main_exp,2022.2.2,Win32,60.2373351,,,,,,,,,,,,,,,,,,masks/mask_004.jpg,,,,,,,,,,,,,,,,,,,,,,,,,,,,,,,,,,,,,,,,,,,0,2,2,3,1,,,,,,,,,,,,,,,,,,,,,,,,,,,,,,,,,,,,,,,,,,,,,,
789592,001,2022-11-20_18h49.15.258,Info_measure_main_exp,2022.2.2,Win32,60.2373351,,,,,,,,,,,,,,,,,,masks/mask_003.jpg,,,,,,,,,,,,,,,,,,,,,,,,,,,,,,,,,,,,,,,,,,,0,3,3,2,1,,,,,,,,,,,,,,,,,,,,,,,,,,,,,,,,,,,,,,,,,,,,,,
789592,001,2022-11-20_18h49.15.258,Info_measure_main_exp,2022.2.2,Win32,60.2373351,,,,,,,,,,,,,,,,,,masks/mask_001.jpg,,,,,,,,,,,,,,,,,,,,,,,,,,,,,,,,,,,,,,,,,,,0,4,4,0,1,,,,,,,,,,,,,,,,,,,,,,,,,,,,,,,,,,,,,,,,,,,,,,
789592,001,2022-11-20_18h49.15.258,Info_measure_main_exp,2022.2.2,Win32,60.2373351,,,,,,,,,,,,,,,,,,masks/mask_003.jpg,,,,,,,,,,,,,,,,,,,,,,,,,,,,,,,,,,,,,,,,,,,,,,,,0,0,0,2,1,,,,,,,,,,,,,,,,,,,,,,,,,,,,,,,,,,,,,,,,,
789592,001,2022-11-20_18h49.15.258,Info_measure_main_exp,2022.2.2,Win32,60.2373351,,,,,,,,,,,,,,,,,,masks/mask_002.jpg,,,,,,,,,,,,,,,,,,,,,,,,,,,,,,,,,,,,,,,,,,,,,,,,0,1,1,1,1,,,,,,,,,,,,,,,,,,,,,,,,,,,,,,,,,,,,,,,,,
789592,001,2022-11-20_18h49.15.258,Info_measure_main_exp,2022.2.2,Win32,60.2373351,,,,,,,,,,,,,,,,,,masks/mask_004.jpg,,,,,,,,,,,,,,,,,,,,,,,,,,,,,,,,,,,,,,,,,,,,,,,,0,2,2,3,1,,,,,,,,,,,,,,,,,,,,,,,,,,,,,,,,,,,,,,,,,
789592,001,2022-11-20_18h49.15.258,Info_measure_main_exp,2022.2.2,Win32,60.2373351,,,,,,,,,,,,,,,,,,masks/mask_001.jpg,,,,,,,,,,,,,,,,,,,,,,,,,,,,,,,,,,,,,,,,,,,,,,,,0,3,3,0,1,,,,,,,,,,,,,,,,,,,,,,,,,,,,,,,,,,,,,,,,,
789592,001,2022-11-20_18h49.15.258,Info_measure_main_exp,2022.2.2,Win32,60.2373351,,,,,,,,,,,,,,,,,,masks/mask_005.jpg,,,,,,,,,,,,,,,,,,,,,,,,,,,,,,,,,,,,,,,,,,,,,,,,0,4,4,4,1,,,,,,,,,,,,,,,,,,,,,,,,,,,,,,,,,,,,,,,,,
789592,001,2022-11-20_18h49.15.258,Info_measure_main_exp,2022.2.2,Win32,60.2373351,,,,,,,,,,,,,,,,,,,,,,,,,,,,,,7,0.7177,1,,,,,,,,,,,,0,131,5,5,2298,2142,absent_patch/patch0002298.jpg,absent_patch/patch0002142.jpg,,,,,,,,,,,,,,,,,,,,0.028645833,0.072916667,1,0,0,response1disk,3,-0.006510417,-0.002604167,1,0,0,center_square,0,2,2,49,1,,,,,,,,,,,,,,,,,,,,,,,
789592,001,2022-11-20_18h49.15.258,Info_measure_main_exp,2022.2.2,Win32,60.2373351,,,,,,,,,,,,,,,,,,masks/mask_001.jpg,,,,,,,,,,,,,,,,,,,,,,,,,,,,,,,,,,,,,,,,,,,0,0,0,0,1,,,,,,,,,,,,,,,,,,,,,,,,,,,,,,,,,,,,,,,,,,,,,,
789592,001,2022-11-20_18h49.15.258,Info_measure_main_exp,2022.2.2,Win32,60.2373351,,,,,,,,,,,,,,,,,,masks/mask_004.jpg,,,,,,,,,,,,,,,,,,,,,,,,,,,,,,,,,,,,,,,,,,,0,1,1,3,1,,,,,,,,,,,,,,,,,,,,,,,,,,,,,,,,,,,,,,,,,,,,,,
789592,001,2022-11-20_18h49.15.258,Info_measure_main_exp,2022.2.2,Win32,60.2373351,,,,,,,,,,,,,,,,,,masks/mask_005.jpg,,,,,,,,,,,,,,,,,,,,,,,,,,,,,,,,,,,,,,,,,,,0,2,2,4,1,,,,,,,,,,,,,,,,,,,,,,,,,,,,,,,,,,,,,,,,,,,,,,
789592,001,2022-11-20_18h49.15.258,Info_measure_main_exp,2022.2.2,Win32,60.2373351,,,,,,,,,,,,,,,,,,masks/mask_002.jpg,,,,,,,,,,,,,,,,,,,,,,,,,,,,,,,,,,,,,,,,,,,0,3,3,1,1,,,,,,,,,,,,,,,,,,,,,,,,,,,,,,,,,,,,,,,,,,,,,,
789592,001,2022-11-20_18h49.15.258,Info_measure_main_exp,2022.2.2,Win32,60.2373351,,,,,,,,,,,,,,,,,,masks/mask_003.jpg,,,,,,,,,,,,,,,,,,,,,,,,,,,,,,,,,,,,,,,,,,,0,4,4,2,1,,,,,,,,,,,,,,,,,,,,,,,,,,,,,,,,,,,,,,,,,,,,,,
789592,001,2022-11-20_18h49.15.258,Info_measure_main_exp,2022.2.2,Win32,60.2373351,,,,,,,,,,,,,,,,,,masks/mask_002.jpg,,,,,,,,,,,,,,,,,,,,,,,,,,,,,,,,,,,,,,,,,,,,,,,,0,0,0,1,1,,,,,,,,,,,,,,,,,,,,,,,,,,,,,,,,,,,,,,,,,
789592,001,2022-11-20_18h49.15.258,Info_measure_main_exp,2022.2.2,Win32,60.2373351,,,,,,,,,,,,,,,,,,masks/mask_003.jpg,,,,,,,,,,,,,,,,,,,,,,,,,,,,,,,,,,,,,,,,,,,,,,,,0,1,1,2,1,,,,,,,,,,,,,,,,,,,,,,,,,,,,,,,,,,,,,,,,,
789592,001,2022-11-20_18h49.15.258,Info_measure_main_exp,2022.2.2,Win32,60.2373351,,,,,,,,,,,,,,,,,,masks/mask_005.jpg,,,,,,,,,,,,,,,,,,,,,,,,,,,,,,,,,,,,,,,,,,,,,,,,0,2,2,4,1,,,,,,,,,,,,,,,,,,,,,,,,,,,,,,,,,,,,,,,,,
789592,001,2022-11-20_18h49.15.258,Info_measure_main_exp,2022.2.2,Win32,60.2373351,,,,,,,,,,,,,,,,,,masks/mask_004.jpg,,,,,,,,,,,,,,,,,,,,,,,,,,,,,,,,,,,,,,,,,,,,,,,,0,3,3,3,1,,,,,,,,,,,,,,,,,,,,,,,,,,,,,,,,,,,,,,,,,
789592,001,2022-11-20_18h49.15.258,Info_measure_main_exp,2022.2.2,Win32,60.2373351,,,,,,,,,,,,,,,,,,masks/mask_001.jpg,,,,,,,,,,,,,,,,,,,,,,,,,,,,,,,,,,,,,,,,,,,,,,,,0,4,4,0,1,,,,,,,,,,,,,,,,,,,,,,,,,,,,,,,,,,,,,,,,,
789592,001,2022-11-20_18h49.15.258,Info_measure_main_exp,2022.2.2,Win32,60.2373351,,,,,,,,,,,,,,,,,,,,,,,,,,,,,,7,0.4661,1,,,,,,,,,,,,0,131,5,5,2154,2250,absent_patch/patch0002154.jpg,absent_patch/patch0002250.jpg,,,,,,,,,,,,,,,,,,,,0.033854167,0.095052083,1,0,0,response1disk,4,0.009114583,-0.001302083,1,0,0,center_square,0,3,3,108,1,,,,,,,,,,,,,,,,,,,,,,,
789592,001,2022-11-20_18h49.15.258,Info_measure_main_exp,2022.2.2,Win32,60.2373351,,,,,,,,,,,,,,,,,,masks/mask_002.jpg,,,,,,,,,,,,,,,,,,,,,,,,,,,,,,,,,,,,,,,,,,,0,0,0,1,1,,,,,,,,,,,,,,,,,,,,,,,,,,,,,,,,,,,,,,,,,,,,,,
789592,001,2022-11-20_18h49.15.258,Info_measure_main_exp,2022.2.2,Win32,60.2373351,,,,,,,,,,,,,,,,,,masks/mask_004.jpg,,,,,,,,,,,,,,,,,,,,,,,,,,,,,,,,,,,,,,,,,,,0,1,1,3,1,,,,,,,,,,,,,,,,,,,,,,,,,,,,,,,,,,,,,,,,,,,,,,
789592,001,2022-11-20_18h49.15.258,Info_measure_main_exp,2022.2.2,Win32,60.2373351,,,,,,,,,,,,,,,,,,masks/mask_003.jpg,,,,,,,,,,,,,,,,,,,,,,,,,,,,,,,,,,,,,,,,,,,0,2,2,2,1,,,,,,,,,,,,,,,,,,,,,,,,,,,,,,,,,,,,,,,,,,,,,,
789592,001,2022-11-20_18h49.15.258,Info_measure_main_exp,2022.2.2,Win32,60.2373351,,,,,,,,,,,,,,,,,,masks/mask_005.jpg,,,,,,,,,,,,,,,,,,,,,,,,,,,,,,,,,,,,,,,,,,,0,3,3,4,1,,,,,,,,,,,,,,,,,,,,,,,,,,,,,,,,,,,,,,,,,,,,,,
789592,001,2022-11-20_18h49.15.258,Info_measure_main_exp,2022.2.2,Win32,60.2373351,,,,,,,,,,,,,,,,,,masks/mask_001.jpg,,,,,,,,,,,,,,,,,,,,,,,,,,,,,,,,,,,,,,,,,,,0,4,4,0,1,,,,,,,,,,,,,,,,,,,,,,,,,,,,,,,,,,,,,,,,,,,,,,
789592,001,2022-11-20_18h49.15.258,Info_measure_main_exp,2022.2.2,Win32,60.2373351,,,,,,,,,,,,,,,,,,masks/mask_005.jpg,,,,,,,,,,,,,,,,,,,,,,,,,,,,,,,,,,,,,,,,,,,,,,,,0,0,0,4,1,,,,,,,,,,,,,,,,,,,,,,,,,,,,,,,,,,,,,,,,,
789592,001,2022-11-20_18h49.15.258,Info_measure_main_exp,2022.2.2,Win32,60.2373351,,,,,,,,,,,,,,,,,,masks/mask_001.jpg,,,,,,,,,,,,,,,,,,,,,,,,,,,,,,,,,,,,,,,,,,,,,,,,0,1,1,0,1,,,,,,,,,,,,,,,,,,,,,,,,,,,,,,,,,,,,,,,,,
789592,001,2022-11-20_18h49.15.258,Info_measure_main_exp,2022.2.2,Win32,60.2373351,,,,,,,,,,,,,,,,,,masks/mask_002.jpg,,,,,,,,,,,,,,,,,,,,,,,,,,,,,,,,,,,,,,,,,,,,,,,,0,2,2,1,1,,,,,,,,,,,,,,,,,,,,,,,,,,,,,,,,,,,,,,,,,
789592,001,2022-11-20_18h49.15.258,Info_measure_main_exp,2022.2.2,Win32,60.2373351,,,,,,,,,,,,,,,,,,masks/mask_004.jpg,,,,,,,,,,,,,,,,,,,,,,,,,,,,,,,,,,,,,,,,,,,,,,,,0,3,3,3,1,,,,,,,,,,,,,,,,,,,,,,,,,,,,,,,,,,,,,,,,,
789592,001,2022-11-20_18h49.15.258,Info_measure_main_exp,2022.2.2,Win32,60.2373351,,,,,,,,,,,,,,,,,,masks/mask_003.jpg,,,,,,,,,,,,,,,,,,,,,,,,,,,,,,,,,,,,,,,,,,,,,,,,0,4,4,2,1,,,,,,,,,,,,,,,,,,,,,,,,,,,,,,,,,,,,,,,,,
789592,001,2022-11-20_18h49.15.258,Info_measure_main_exp,2022.2.2,Win32,60.2373351,,,,,,,,,,,,,,,,,,,,,,,,,,,,,,7,0.8986,1,,,,,,,,,,,,0,131,5,5,2142,2238,absent_patch/patch0002142.jpg,absent_patch/patch0002238.jpg,,,,,,,,,,,,,,,,,,,,0.0625,0.134114583,1,0,0,response1disk,5,-0.0078125,-0.0078125,1,0,0,center_square,0,4,4,101,1,,,,,,,,,,,,,,,,,,,,,,,
789592,001,2022-11-20_18h49.15.258,Info_measure_main_exp,2022.2.2,Win32,60.2373351,,,,,,,,,,,,,,,,,,masks/mask_002.jpg,,,,,,,,,,,,,,,,,,,,,,,,,,,,,,,,,,,,,,,,,,,0,0,0,1,1,,,,,,,,,,,,,,,,,,,,,,,,,,,,,,,,,,,,,,,,,,,,,,
789592,001,2022-11-20_18h49.15.258,Info_measure_main_exp,2022.2.2,Win32,60.2373351,,,,,,,,,,,,,,,,,,masks/mask_003.jpg,,,,,,,,,,,,,,,,,,,,,,,,,,,,,,,,,,,,,,,,,,,0,1,1,2,1,,,,,,,,,,,,,,,,,,,,,,,,,,,,,,,,,,,,,,,,,,,,,,
789592,001,2022-11-20_18h49.15.258,Info_measure_main_exp,2022.2.2,Win32,60.2373351,,,,,,,,,,,,,,,,,,masks/mask_005.jpg,,,,,,,,,,,,,,,,,,,,,,,,,,,,,,,,,,,,,,,,,,,0,2,2,4,1,,,,,,,,,,,,,,,,,,,,,,,,,,,,,,,,,,,,,,,,,,,,,,
789592,001,2022-11-20_18h49.15.258,Info_measure_main_exp,2022.2.2,Win32,60.2373351,,,,,,,,,,,,,,,,,,masks/mask_001.jpg,,,,,,,,,,,,,,,,,,,,,,,,,,,,,,,,,,,,,,,,,,,0,3,3,0,1,,,,,,,,,,,,,,,,,,,,,,,,,,,,,,,,,,,,,,,,,,,,,,
789592,001,2022-11-20_18h49.15.258,Info_measure_main_exp,2022.2.2,Win32,60.2373351,,,,,,,,,,,,,,,,,,masks/mask_004.jpg,,,,,,,,,,,,,,,,,,,,,,,,,,,,,,,,,,,,,,,,,,,0,4,4,3,1,,,,,,,,,,,,,,,,,,,,,,,,,,,,,,,,,,,,,,,,,,,,,,
789592,001,2022-11-20_18h49.15.258,Info_measure_main_exp,2022.2.2,Win32,60.2373351,,,,,,,,,,,,,,,,,,masks/mask_004.jpg,,,,,,,,,,,,,,,,,,,,,,,,,,,,,,,,,,,,,,,,,,,,,,,,0,0,0,3,1,,,,,,,,,,,,,,,,,,,,,,,,,,,,,,,,,,,,,,,,,
789592,001,2022-11-20_18h49.15.258,Info_measure_main_exp,2022.2.2,Win32,60.2373351,,,,,,,,,,,,,,,,,,masks/mask_001.jpg,,,,,,,,,,,,,,,,,,,,,,,,,,,,,,,,,,,,,,,,,,,,,,,,0,1,1,0,1,,,,,,,,,,,,,,,,,,,,,,,,,,,,,,,,,,,,,,,,,
789592,001,2022-11-20_18h49.15.258,Info_measure_main_exp,2022.2.2,Win32,60.2373351,,,,,,,,,,,,,,,,,,masks/mask_003.jpg,,,,,,,,,,,,,,,,,,,,,,,,,,,,,,,,,,,,,,,,,,,,,,,,0,2,2,2,1,,,,,,,,,,,,,,,,,,,,,,,,,,,,,,,,,,,,,,,,,
789592,001,2022-11-20_18h49.15.258,Info_measure_main_exp,2022.2.2,Win32,60.2373351,,,,,,,,,,,,,,,,,,masks/mask_002.jpg,,,,,,,,,,,,,,,,,,,,,,,,,,,,,,,,,,,,,,,,,,,,,,,,0,3,3,1,1,,,,,,,,,,,,,,,,,,,,,,,,,,,,,,,,,,,,,,,,,
789592,001,2022-11-20_18h49.15.258,Info_measure_main_exp,2022.2.2,Win32,60.2373351,,,,,,,,,,,,,,,,,,masks/mask_005.jpg,,,,,,,,,,,,,,,,,,,,,,,,,,,,,,,,,,,,,,,,,,,,,,,,0,4,4,4,1,,,,,,,,,,,,,,,,,,,,,,,,,,,,,,,,,,,,,,,,,
789592,001,2022-11-20_18h49.15.258,Info_measure_main_exp,2022.2.2,Win32,60.2373351,,,,,,,,,,,,,,,,,,,,,,,,,,,,,,7,0.4643,1,,,,,,,,,,,,0,131,5,5,2190,2178,absent_patch/patch0002190.jpg,absent_patch/patch0002178.jpg,,,,,,,,,,,,,,,,,,,,0.075520833,0.123697917,1,0,0,response1disk,6,0.005208333,-0.0078125,1,0,0,center_square,0,5,5,14,1,,,,,,,,,,,,,,,,,,,,,,,
789592,001,2022-11-20_18h49.15.258,Info_measure_main_exp,2022.2.2,Win32,60.2373351,,,,,,,,,,,,,,,,,,masks/mask_001.jpg,,,,,,,,,,,,,,,,,,,,,,,,,,,,,,,,,,,,,,,,,,,0,0,0,0,1,,,,,,,,,,,,,,,,,,,,,,,,,,,,,,,,,,,,,,,,,,,,,,
789592,001,2022-11-20_18h49.15.258,Info_measure_main_exp,2022.2.2,Win32,60.2373351,,,,,,,,,,,,,,,,,,masks/mask_003.jpg,,,,,,,,,,,,,,,,,,,,,,,,,,,,,,,,,,,,,,,,,,,0,1,1,2,1,,,,,,,,,,,,,,,,,,,,,,,,,,,,,,,,,,,,,,,,,,,,,,
789592,001,2022-11-20_18h49.15.258,Info_measure_main_exp,2022.2.2,Win32,60.2373351,,,,,,,,,,,,,,,,,,masks/mask_005.jpg,,,,,,,,,,,,,,,,,,,,,,,,,,,,,,,,,,,,,,,,,,,0,2,2,4,1,,,,,,,,,,,,,,,,,,,,,,,,,,,,,,,,,,,,,,,,,,,,,,
789592,001,2022-11-20_18h49.15.258,Info_measure_main_exp,2022.2.2,Win32,60.2373351,,,,,,,,,,,,,,,,,,masks/mask_004.jpg,,,,,,,,,,,,,,,,,,,,,,,,,,,,,,,,,,,,,,,,,,,0,3,3,3,1,,,,,,,,,,,,,,,,,,,,,,,,,,,,,,,,,,,,,,,,,,,,,,
789592,001,2022-11-20_18h49.15.258,Info_measure_main_exp,2022.2.2,Win32,60.2373351,,,,,,,,,,,,,,,,,,masks/mask_002.jpg,,,,,,,,,,,,,,,,,,,,,,,,,,,,,,,,,,,,,,,,,,,0,4,4,1,1,,,,,,,,,,,,,,,,,,,,,,,,,,,,,,,,,,,,,,,,,,,,,,
789592,001,2022-11-20_18h49.15.258,Info_measure_main_exp,2022.2.2,Win32,60.2373351,,,,,,,,,,,,,,,,,,masks/mask_001.jpg,,,,,,,,,,,,,,,,,,,,,,,,,,,,,,,,,,,,,,,,,,,,,,,,0,0,0,0,1,,,,,,,,,,,,,,,,,,,,,,,,,,,,,,,,,,,,,,,,,
789592,001,2022-11-20_18h49.15.258,Info_measure_main_exp,2022.2.2,Win32,60.2373351,,,,,,,,,,,,,,,,,,masks/mask_004.jpg,,,,,,,,,,,,,,,,,,,,,,,,,,,,,,,,,,,,,,,,,,,,,,,,0,1,1,3,1,,,,,,,,,,,,,,,,,,,,,,,,,,,,,,,,,,,,,,,,,
789592,001,2022-11-20_18h49.15.258,Info_measure_main_exp,2022.2.2,Win32,60.2373351,,,,,,,,,,,,,,,,,,masks/mask_002.jpg,,,,,,,,,,,,,,,,,,,,,,,,,,,,,,,,,,,,,,,,,,,,,,,,0,2,2,1,1,,,,,,,,,,,,,,,,,,,,,,,,,,,,,,,,,,,,,,,,,
789592,001,2022-11-20_18h49.15.258,Info_measure_main_exp,2022.2.2,Win32,60.2373351,,,,,,,,,,,,,,,,,,masks/mask_003.jpg,,,,,,,,,,,,,,,,,,,,,,,,,,,,,,,,,,,,,,,,,,,,,,,,0,3,3,2,1,,,,,,,,,,,,,,,,,,,,,,,,,,,,,,,,,,,,,,,,,
789592,001,2022-11-20_18h49.15.258,Info_measure_main_exp,2022.2.2,Win32,60.2373351,,,,,,,,,,,,,,,,,,masks/mask_005.jpg,,,,,,,,,,,,,,,,,,,,,,,,,,,,,,,,,,,,,,,,,,,,,,,,0,4,4,4,1,,,,,,,,,,,,,,,,,,,,,,,,,,,,,,,,,,,,,,,,,
789592,001,2022-11-20_18h49.15.258,Info_measure_main_exp,2022.2.2,Win32,60.2373351,,,,,,,,,,,,,,,,,,,,,,,,,,,,,,5,1.2503,1,,,,,,,,,,,,1,131,5,5,1,1986,present_patch/cong_131_5_a.jpg,absent_patch/patch0001986.jpg,,,,,,,,,,,,,,,,,,,,0.102864583,-0.036458333,1,0,0,response3disk,7,-0.006510417,0.001302083,1,0,0,center_square,0,6,6,106,1,,,,,,,,,,,,,,,,,,,,,,,
789592,001,2022-11-20_18h49.15.258,Info_measure_main_exp,2022.2.2,Win32,60.2373351,,,,,,,,,,,,,,,,,,masks/mask_004.jpg,,,,,,,,,,,,,,,,,,,,,,,,,,,,,,,,,,,,,,,,,,,0,0,0,3,1,,,,,,,,,,,,,,,,,,,,,,,,,,,,,,,,,,,,,,,,,,,,,,
789592,001,2022-11-20_18h49.15.258,Info_measure_main_exp,2022.2.2,Win32,60.2373351,,,,,,,,,,,,,,,,,,masks/mask_002.jpg,,,,,,,,,,,,,,,,,,,,,,,,,,,,,,,,,,,,,,,,,,,0,1,1,1,1,,,,,,,,,,,,,,,,,,,,,,,,,,,,,,,,,,,,,,,,,,,,,,
789592,001,2022-11-20_18h49.15.258,Info_measure_main_exp,2022.2.2,Win32,60.2373351,,,,,,,,,,,,,,,,,,masks/mask_005.jpg,,,,,,,,,,,,,,,,,,,,,,,,,,,,,,,,,,,,,,,,,,,0,2,2,4,1,,,,,,,,,,,,,,,,,,,,,,,,,,,,,,,,,,,,,,,,,,,,,,
789592,001,2022-11-20_18h49.15.258,Info_measure_main_exp,2022.2.2,Win32,60.2373351,,,,,,,,,,,,,,,,,,masks/mask_003.jpg,,,,,,,,,,,,,,,,,,,,,,,,,,,,,,,,,,,,,,,,,,,0,3,3,2,1,,,,,,,,,,,,,,,,,,,,,,,,,,,,,,,,,,,,,,,,,,,,,,
789592,001,2022-11-20_18h49.15.258,Info_measure_main_exp,2022.2.2,Win32,60.2373351,,,,,,,,,,,,,,,,,,masks/mask_001.jpg,,,,,,,,,,,,,,,,,,,,,,,,,,,,,,,,,,,,,,,,,,,0,4,4,0,1,,,,,,,,,,,,,,,,,,,,,,,,,,,,,,,,,,,,,,,,,,,,,,
789592,001,2022-11-20_18h49.15.258,Info_measure_main_exp,2022.2.2,Win32,60.2373351,,,,,,,,,,,,,,,,,,masks/mask_001.jpg,,,,,,,,,,,,,,,,,,,,,,,,,,,,,,,,,,,,,,,,,,,,,,,,0,0,0,0,1,,,,,,,,,,,,,,,,,,,,,,,,,,,,,,,,,,,,,,,,,
789592,001,2022-11-20_18h49.15.258,Info_measure_main_exp,2022.2.2,Win32,60.2373351,,,,,,,,,,,,,,,,,,masks/mask_004.jpg,,,,,,,,,,,,,,,,,,,,,,,,,,,,,,,,,,,,,,,,,,,,,,,,0,1,1,3,1,,,,,,,,,,,,,,,,,,,,,,,,,,,,,,,,,,,,,,,,,
789592,001,2022-11-20_18h49.15.258,Info_measure_main_exp,2022.2.2,Win32,60.2373351,,,,,,,,,,,,,,,,,,masks/mask_005.jpg,,,,,,,,,,,,,,,,,,,,,,,,,,,,,,,,,,,,,,,,,,,,,,,,0,2,2,4,1,,,,,,,,,,,,,,,,,,,,,,,,,,,,,,,,,,,,,,,,,
789592,001,2022-11-20_18h49.15.258,Info_measure_main_exp,2022.2.2,Win32,60.2373351,,,,,,,,,,,,,,,,,,masks/mask_002.jpg,,,,,,,,,,,,,,,,,,,,,,,,,,,,,,,,,,,,,,,,,,,,,,,,0,3,3,1,1,,,,,,,,,,,,,,,,,,,,,,,,,,,,,,,,,,,,,,,,,
789592,001,2022-11-20_18h49.15.258,Info_measure_main_exp,2022.2.2,Win32,60.2373351,,,,,,,,,,,,,,,,,,masks/mask_003.jpg,,,,,,,,,,,,,,,,,,,,,,,,,,,,,,,,,,,,,,,,,,,,,,,,0,4,4,2,1,,,,,,,,,,,,,,,,,,,,,,,,,,,,,,,,,,,,,,,,,
789592,001,2022-11-20_18h49.15.258,Info_measure_main_exp,2022.2.2,Win32,60.2373351,,,,,,,,,,,,,,,,,,,,,,,,,,,,,,7,1.6848,1,,,,,,,,,,,,0,131,5,5,2190,1986,absent_patch/patch0002190.jpg,absent_patch/patch0001986.jpg,,,,,,,,,,,,,,,,,,,,0.036458333,0.1015625,1,0,0,response1disk,8,0.00390625,0.0078125,1,0,0,center_square,0,7,7,111,1,,,,,,,,,,,,,,,,,,,,,,,
789592,001,2022-11-20_18h49.15.258,Info_measure_main_exp,2022.2.2,Win32,60.2373351,,,,,,,,,,,,,,,,,,masks/mask_001.jpg,,,,,,,,,,,,,,,,,,,,,,,,,,,,,,,,,,,,,,,,,,,0,0,0,0,1,,,,,,,,,,,,,,,,,,,,,,,,,,,,,,,,,,,,,,,,,,,,,,
789592,001,2022-11-20_18h49.15.258,Info_measure_main_exp,2022.2.2,Win32,60.2373351,,,,,,,,,,,,,,,,,,masks/mask_004.jpg,,,,,,,,,,,,,,,,,,,,,,,,,,,,,,,,,,,,,,,,,,,0,1,1,3,1,,,,,,,,,,,,,,,,,,,,,,,,,,,,,,,,,,,,,,,,,,,,,,
789592,001,2022-11-20_18h49.15.258,Info_measure_main_exp,2022.2.2,Win32,60.2373351,,,,,,,,,,,,,,,,,,masks/mask_002.jpg,,,,,,,,,,,,,,,,,,,,,,,,,,,,,,,,,,,,,,,,,,,0,2,2,1,1,,,,,,,,,,,,,,,,,,,,,,,,,,,,,,,,,,,,,,,,,,,,,,
789592,001,2022-11-20_18h49.15.258,Info_measure_main_exp,2022.2.2,Win32,60.2373351,,,,,,,,,,,,,,,,,,masks/mask_005.jpg,,,,,,,,,,,,,,,,,,,,,,,,,,,,,,,,,,,,,,,,,,,0,3,3,4,1,,,,,,,,,,,,,,,,,,,,,,,,,,,,,,,,,,,,,,,,,,,,,,
789592,001,2022-11-20_18h49.15.258,Info_measure_main_exp,2022.2.2,Win32,60.2373351,,,,,,,,,,,,,,,,,,masks/mask_003.jpg,,,,,,,,,,,,,,,,,,,,,,,,,,,,,,,,,,,,,,,,,,,0,4,4,2,1,,,,,,,,,,,,,,,,,,,,,,,,,,,,,,,,,,,,,,,,,,,,,,
789592,001,2022-11-20_18h49.15.258,Info_measure_main_exp,2022.2.2,Win32,60.2373351,,,,,,,,,,,,,,,,,,masks/mask_004.jpg,,,,,,,,,,,,,,,,,,,,,,,,,,,,,,,,,,,,,,,,,,,,,,,,0,0,0,3,1,,,,,,,,,,,,,,,,,,,,,,,,,,,,,,,,,,,,,,,,,
789592,001,2022-11-20_18h49.15.258,Info_measure_main_exp,2022.2.2,Win32,60.2373351,,,,,,,,,,,,,,,,,,masks/mask_003.jpg,,,,,,,,,,,,,,,,,,,,,,,,,,,,,,,,,,,,,,,,,,,,,,,,0,1,1,2,1,,,,,,,,,,,,,,,,,,,,,,,,,,,,,,,,,,,,,,,,,
789592,001,2022-11-20_18h49.15.258,Info_measure_main_exp,2022.2.2,Win32,60.2373351,,,,,,,,,,,,,,,,,,masks/mask_005.jpg,,,,,,,,,,,,,,,,,,,,,,,,,,,,,,,,,,,,,,,,,,,,,,,,0,2,2,4,1,,,,,,,,,,,,,,,,,,,,,,,,,,,,,,,,,,,,,,,,,
789592,001,2022-11-20_18h49.15.258,Info_measure_main_exp,2022.2.2,Win32,60.2373351,,,,,,,,,,,,,,,,,,masks/mask_002.jpg,,,,,,,,,,,,,,,,,,,,,,,,,,,,,,,,,,,,,,,,,,,,,,,,0,3,3,1,1,,,,,,,,,,,,,,,,,,,,,,,,,,,,,,,,,,,,,,,,,
789592,001,2022-11-20_18h49.15.258,Info_measure_main_exp,2022.2.2,Win32,60.2373351,,,,,,,,,,,,,,,,,,masks/mask_001.jpg,,,,,,,,,,,,,,,,,,,,,,,,,,,,,,,,,,,,,,,,,,,,,,,,0,4,4,0,1,,,,,,,,,,,,,,,,,,,,,,,,,,,,,,,,,,,,,,,,,
789592,001,2022-11-20_18h49.15.258,Info_measure_main_exp,2022.2.2,Win32,60.2373351,,,,,,,,,,,,,,,,,,,,,,,,,,,,,,7,0.6176,1,,,,,,,,,,,,0,131,5,5,2178,1986,absent_patch/patch0002178.jpg,absent_patch/patch0001986.jpg,,,,,,,,,,,,,,,,,,,,0.01171875,0.028645833,1,0,0,response1disk,9,0.002604167,0,1,0,0,center_square,0,8,8,46,1,,,,,,,,,,,,,,,,,,,,,,,
789592,001,2022-11-20_18h49.15.258,Info_measure_main_exp,2022.2.2,Win32,60.2373351,,,,,,,,,,,,,,,,,,masks/mask_001.jpg,,,,,,,,,,,,,,,,,,,,,,,,,,,,,,,,,,,,,,,,,,,0,0,0,0,1,,,,,,,,,,,,,,,,,,,,,,,,,,,,,,,,,,,,,,,,,,,,,,
789592,001,2022-11-20_18h49.15.258,Info_measure_main_exp,2022.2.2,Win32,60.2373351,,,,,,,,,,,,,,,,,,masks/mask_003.jpg,,,,,,,,,,,,,,,,,,,,,,,,,,,,,,,,,,,,,,,,,,,0,1,1,2,1,,,,,,,,,,,,,,,,,,,,,,,,,,,,,,,,,,,,,,,,,,,,,,
789592,001,2022-11-20_18h49.15.258,Info_measure_main_exp,2022.2.2,Win32,60.2373351,,,,,,,,,,,,,,,,,,masks/mask_002.jpg,,,,,,,,,,,,,,,,,,,,,,,,,,,,,,,,,,,,,,,,,,,0,2,2,1,1,,,,,,,,,,,,,,,,,,,,,,,,,,,,,,,,,,,,,,,,,,,,,,
789592,001,2022-11-20_18h49.15.258,Info_measure_main_exp,2022.2.2,Win32,60.2373351,,,,,,,,,,,,,,,,,,masks/mask_005.jpg,,,,,,,,,,,,,,,,,,,,,,,,,,,,,,,,,,,,,,,,,,,0,3,3,4,1,,,,,,,,,,,,,,,,,,,,,,,,,,,,,,,,,,,,,,,,,,,,,,
789592,001,2022-11-20_18h49.15.258,Info_measure_main_exp,2022.2.2,Win32,60.2373351,,,,,,,,,,,,,,,,,,masks/mask_004.jpg,,,,,,,,,,,,,,,,,,,,,,,,,,,,,,,,,,,,,,,,,,,0,4,4,3,1,,,,,,,,,,,,,,,,,,,,,,,,,,,,,,,,,,,,,,,,,,,,,,
789592,001,2022-11-20_18h49.15.258,Info_measure_main_exp,2022.2.2,Win32,60.2373351,,,,,,,,,,,,,,,,,,masks/mask_003.jpg,,,,,,,,,,,,,,,,,,,,,,,,,,,,,,,,,,,,,,,,,,,,,,,,0,0,0,2,1,,,,,,,,,,,,,,,,,,,,,,,,,,,,,,,,,,,,,,,,,
789592,001,2022-11-20_18h49.15.258,Info_measure_main_exp,2022.2.2,Win32,60.2373351,,,,,,,,,,,,,,,,,,masks/mask_004.jpg,,,,,,,,,,,,,,,,,,,,,,,,,,,,,,,,,,,,,,,,,,,,,,,,0,1,1,3,1,,,,,,,,,,,,,,,,,,,,,,,,,,,,,,,,,,,,,,,,,
789592,001,2022-11-20_18h49.15.258,Info_measure_main_exp,2022.2.2,Win32,60.2373351,,,,,,,,,,,,,,,,,,masks/mask_005.jpg,,,,,,,,,,,,,,,,,,,,,,,,,,,,,,,,,,,,,,,,,,,,,,,,0,2,2,4,1,,,,,,,,,,,,,,,,,,,,,,,,,,,,,,,,,,,,,,,,,
789592,001,2022-11-20_18h49.15.258,Info_measure_main_exp,2022.2.2,Win32,60.2373351,,,,,,,,,,,,,,,,,,masks/mask_002.jpg,,,,,,,,,,,,,,,,,,,,,,,,,,,,,,,,,,,,,,,,,,,,,,,,0,3,3,1,1,,,,,,,,,,,,,,,,,,,,,,,,,,,,,,,,,,,,,,,,,
789592,001,2022-11-20_18h49.15.258,Info_measure_main_exp,2022.2.2,Win32,60.2373351,,,,,,,,,,,,,,,,,,masks/mask_001.jpg,,,,,,,,,,,,,,,,,,,,,,,,,,,,,,,,,,,,,,,,,,,,,,,,0,4,4,0,1,,,,,,,,,,,,,,,,,,,,,,,,,,,,,,,,,,,,,,,,,
789592,001,2022-11-20_18h49.15.258,Info_measure_main_exp,2022.2.2,Win32,60.2373351,,,,,,,,,,,,,,,,,,,,,,,,,,,,,,7,0.368,1,,,,,,,,,,,,0,131,5,5,1974,2250,absent_patch/patch0001974.jpg,absent_patch/patch0002250.jpg,,,,,,,,,,,,,,,,,,,,0.026041667,0.095052083,1,0,0,response1disk,10,0,-0.002604167,1,0,0,center_square,0,9,9,55,1,,,,,,,,,,,,,,,,,,,,,,,
789592,001,2022-11-20_18h49.15.258,Info_measure_main_exp,2022.2.2,Win32,60.2373351,,,,,,,,,,,,,,,,,,masks/mask_002.jpg,,,,,,,,,,,,,,,,,,,,,,,,,,,,,,,,,,,,,,,,,,,0,0,0,1,1,,,,,,,,,,,,,,,,,,,,,,,,,,,,,,,,,,,,,,,,,,,,,,
789592,001,2022-11-20_18h49.15.258,Info_measure_main_exp,2022.2.2,Win32,60.2373351,,,,,,,,,,,,,,,,,,masks/mask_004.jpg,,,,,,,,,,,,,,,,,,,,,,,,,,,,,,,,,,,,,,,,,,,0,1,1,3,1,,,,,,,,,,,,,,,,,,,,,,,,,,,,,,,,,,,,,,,,,,,,,,
789592,001,2022-11-20_18h49.15.258,Info_measure_main_exp,2022.2.2,Win32,60.2373351,,,,,,,,,,,,,,,,,,masks/mask_003.jpg,,,,,,,,,,,,,,,,,,,,,,,,,,,,,,,,,,,,,,,,,,,0,2,2,2,1,,,,,,,,,,,,,,,,,,,,,,,,,,,,,,,,,,,,,,,,,,,,,,
789592,001,2022-11-20_18h49.15.258,Info_measure_main_exp,2022.2.2,Win32,60.2373351,,,,,,,,,,,,,,,,,,masks/mask_005.jpg,,,,,,,,,,,,,,,,,,,,,,,,,,,,,,,,,,,,,,,,,,,0,3,3,4,1,,,,,,,,,,,,,,,,,,,,,,,,,,,,,,,,,,,,,,,,,,,,,,
789592,001,2022-11-20_18h49.15.258,Info_measure_main_exp,2022.2.2,Win32,60.2373351,,,,,,,,,,,,,,,,,,masks/mask_001.jpg,,,,,,,,,,,,,,,,,,,,,,,,,,,,,,,,,,,,,,,,,,,0,4,4,0,1,,,,,,,,,,,,,,,,,,,,,,,,,,,,,,,,,,,,,,,,,,,,,,
789592,001,2022-11-20_18h49.15.258,Info_measure_main_exp,2022.2.2,Win32,60.2373351,,,,,,,,,,,,,,,,,,masks/mask_004.jpg,,,,,,,,,,,,,,,,,,,,,,,,,,,,,,,,,,,,,,,,,,,,,,,,0,0,0,3,1,,,,,,,,,,,,,,,,,,,,,,,,,,,,,,,,,,,,,,,,,
789592,001,2022-11-20_18h49.15.258,Info_measure_main_exp,2022.2.2,Win32,60.2373351,,,,,,,,,,,,,,,,,,masks/mask_005.jpg,,,,,,,,,,,,,,,,,,,,,,,,,,,,,,,,,,,,,,,,,,,,,,,,0,1,1,4,1,,,,,,,,,,,,,,,,,,,,,,,,,,,,,,,,,,,,,,,,,
789592,001,2022-11-20_18h49.15.258,Info_measure_main_exp,2022.2.2,Win32,60.2373351,,,,,,,,,,,,,,,,,,masks/mask_001.jpg,,,,,,,,,,,,,,,,,,,,,,,,,,,,,,,,,,,,,,,,,,,,,,,,0,2,2,0,1,,,,,,,,,,,,,,,,,,,,,,,,,,,,,,,,,,,,,,,,,
789592,001,2022-11-20_18h49.15.258,Info_measure_main_exp,2022.2.2,Win32,60.2373351,,,,,,,,,,,,,,,,,,masks/mask_003.jpg,,,,,,,,,,,,,,,,,,,,,,,,,,,,,,,,,,,,,,,,,,,,,,,,0,3,3,2,1,,,,,,,,,,,,,,,,,,,,,,,,,,,,,,,,,,,,,,,,,
789592,001,2022-11-20_18h49.15.258,Info_measure_main_exp,2022.2.2,Win32,60.2373351,,,,,,,,,,,,,,,,,,masks/mask_002.jpg,,,,,,,,,,,,,,,,,,,,,,,,,,,,,,,,,,,,,,,,,,,,,,,,0,4,4,1,1,,,,,,,,,,,,,,,,,,,,,,,,,,,,,,,,,,,,,,,,,
789592,001,2022-11-20_18h49.15.258,Info_measure_main_exp,2022.2.2,Win32,60.2373351,,,,,,,,,,,,,,,,,,,,,,,,,,,,,,7,0.4384,1,,,,,,,,,,,,0,131,5,5,2214,1986,absent_patch/patch0002214.jpg,absent_patch/patch0001986.jpg,,,,,,,,,,,,,,,,,,,,0.022135417,0.078125,1,0,0,response1disk,11,0.001302083,0.001302083,1,0,0,center_square,0,10,10,34,1,,,,,,,,,,,,,,,,,,,,,,,
789592,001,2022-11-20_18h49.15.258,Info_measure_main_exp,2022.2.2,Win32,60.2373351,,,,,,,,,,,,,,,,,,masks/mask_005.jpg,,,,,,,,,,,,,,,,,,,,,,,,,,,,,,,,,,,,,,,,,,,0,0,0,4,1,,,,,,,,,,,,,,,,,,,,,,,,,,,,,,,,,,,,,,,,,,,,,,
789592,001,2022-11-20_18h49.15.258,Info_measure_main_exp,2022.2.2,Win32,60.2373351,,,,,,,,,,,,,,,,,,masks/mask_003.jpg,,,,,,,,,,,,,,,,,,,,,,,,,,,,,,,,,,,,,,,,,,,0,1,1,2,1,,,,,,,,,,,,,,,,,,,,,,,,,,,,,,,,,,,,,,,,,,,,,,
789592,001,2022-11-20_18h49.15.258,Info_measure_main_exp,2022.2.2,Win32,60.2373351,,,,,,,,,,,,,,,,,,masks/mask_002.jpg,,,,,,,,,,,,,,,,,,,,,,,,,,,,,,,,,,,,,,,,,,,0,2,2,1,1,,,,,,,,,,,,,,,,,,,,,,,,,,,,,,,,,,,,,,,,,,,,,,
789592,001,2022-11-20_18h49.15.258,Info_measure_main_exp,2022.2.2,Win32,60.2373351,,,,,,,,,,,,,,,,,,masks/mask_004.jpg,,,,,,,,,,,,,,,,,,,,,,,,,,,,,,,,,,,,,,,,,,,0,3,3,3,1,,,,,,,,,,,,,,,,,,,,,,,,,,,,,,,,,,,,,,,,,,,,,,
789592,001,2022-11-20_18h49.15.258,Info_measure_main_exp,2022.2.2,Win32,60.2373351,,,,,,,,,,,,,,,,,,masks/mask_001.jpg,,,,,,,,,,,,,,,,,,,,,,,,,,,,,,,,,,,,,,,,,,,0,4,4,0,1,,,,,,,,,,,,,,,,,,,,,,,,,,,,,,,,,,,,,,,,,,,,,,
789592,001,2022-11-20_18h49.15.258,Info_measure_main_exp,2022.2.2,Win32,60.2373351,,,,,,,,,,,,,,,,,,masks/mask_003.jpg,,,,,,,,,,,,,,,,,,,,,,,,,,,,,,,,,,,,,,,,,,,,,,,,0,0,0,2,1,,,,,,,,,,,,,,,,,,,,,,,,,,,,,,,,,,,,,,,,,
789592,001,2022-11-20_18h49.15.258,Info_measure_main_exp,2022.2.2,Win32,60.2373351,,,,,,,,,,,,,,,,,,masks/mask_005.jpg,,,,,,,,,,,,,,,,,,,,,,,,,,,,,,,,,,,,,,,,,,,,,,,,0,1,1,4,1,,,,,,,,,,,,,,,,,,,,,,,,,,,,,,,,,,,,,,,,,
789592,001,2022-11-20_18h49.15.258,Info_measure_main_exp,2022.2.2,Win32,60.2373351,,,,,,,,,,,,,,,,,,masks/mask_004.jpg,,,,,,,,,,,,,,,,,,,,,,,,,,,,,,,,,,,,,,,,,,,,,,,,0,2,2,3,1,,,,,,,,,,,,,,,,,,,,,,,,,,,,,,,,,,,,,,,,,
789592,001,2022-11-20_18h49.15.258,Info_measure_main_exp,2022.2.2,Win32,60.2373351,,,,,,,,,,,,,,,,,,masks/mask_001.jpg,,,,,,,,,,,,,,,,,,,,,,,,,,,,,,,,,,,,,,,,,,,,,,,,0,3,3,0,1,,,,,,,,,,,,,,,,,,,,,,,,,,,,,,,,,,,,,,,,,
789592,001,2022-11-20_18h49.15.258,Info_measure_main_exp,2022.2.2,Win32,60.2373351,,,,,,,,,,,,,,,,,,masks/mask_002.jpg,,,,,,,,,,,,,,,,,,,,,,,,,,,,,,,,,,,,,,,,,,,,,,,,0,4,4,1,1,,,,,,,,,,,,,,,,,,,,,,,,,,,,,,,,,,,,,,,,,
789592,001,2022-11-20_18h49.15.258,Info_measure_main_exp,2022.2.2,Win32,60.2373351,,,,,,,,,,,,,,,,,,,,,,,,,,,,,,7,0.4017,1,,,,,,,,,,,,0,131,5,5,2154,2190,absent_patch/patch0002154.jpg,absent_patch/patch0002190.jpg,,,,,,,,,,,,,,,,,,,,0.040364583,0.083333333,1,0,0,response1disk,12,-0.006510417,-0.005208333,1,0,0,center_square,0,11,11,68,1,,,,,,,,,,,,,,,,,,,,,,,
789592,001,2022-11-20_18h49.15.258,Info_measure_main_exp,2022.2.2,Win32,60.2373351,,,,,,,,,,,,,,,,,,masks/mask_005.jpg,,,,,,,,,,,,,,,,,,,,,,,,,,,,,,,,,,,,,,,,,,,0,0,0,4,1,,,,,,,,,,,,,,,,,,,,,,,,,,,,,,,,,,,,,,,,,,,,,,
789592,001,2022-11-20_18h49.15.258,Info_measure_main_exp,2022.2.2,Win32,60.2373351,,,,,,,,,,,,,,,,,,masks/mask_002.jpg,,,,,,,,,,,,,,,,,,,,,,,,,,,,,,,,,,,,,,,,,,,0,1,1,1,1,,,,,,,,,,,,,,,,,,,,,,,,,,,,,,,,,,,,,,,,,,,,,,
789592,001,2022-11-20_18h49.15.258,Info_measure_main_exp,2022.2.2,Win32,60.2373351,,,,,,,,,,,,,,,,,,masks/mask_004.jpg,,,,,,,,,,,,,,,,,,,,,,,,,,,,,,,,,,,,,,,,,,,0,2,2,3,1,,,,,,,,,,,,,,,,,,,,,,,,,,,,,,,,,,,,,,,,,,,,,,
789592,001,2022-11-20_18h49.15.258,Info_measure_main_exp,2022.2.2,Win32,60.2373351,,,,,,,,,,,,,,,,,,masks/mask_001.jpg,,,,,,,,,,,,,,,,,,,,,,,,,,,,,,,,,,,,,,,,,,,0,3,3,0,1,,,,,,,,,,,,,,,,,,,,,,,,,,,,,,,,,,,,,,,,,,,,,,
789592,001,2022-11-20_18h49.15.258,Info_measure_main_exp,2022.2.2,Win32,60.2373351,,,,,,,,,,,,,,,,,,masks/mask_003.jpg,,,,,,,,,,,,,,,,,,,,,,,,,,,,,,,,,,,,,,,,,,,0,4,4,2,1,,,,,,,,,,,,,,,,,,,,,,,,,,,,,,,,,,,,,,,,,,,,,,
789592,001,2022-11-20_18h49.15.258,Info_measure_main_exp,2022.2.2,Win32,60.2373351,,,,,,,,,,,,,,,,,,masks/mask_005.jpg,,,,,,,,,,,,,,,,,,,,,,,,,,,,,,,,,,,,,,,,,,,,,,,,0,0,0,4,1,,,,,,,,,,,,,,,,,,,,,,,,,,,,,,,,,,,,,,,,,
789592,001,2022-11-20_18h49.15.258,Info_measure_main_exp,2022.2.2,Win32,60.2373351,,,,,,,,,,,,,,,,,,masks/mask_002.jpg,,,,,,,,,,,,,,,,,,,,,,,,,,,,,,,,,,,,,,,,,,,,,,,,0,1,1,1,1,,,,,,,,,,,,,,,,,,,,,,,,,,,,,,,,,,,,,,,,,
789592,001,2022-11-20_18h49.15.258,Info_measure_main_exp,2022.2.2,Win32,60.2373351,,,,,,,,,,,,,,,,,,masks/mask_004.jpg,,,,,,,,,,,,,,,,,,,,,,,,,,,,,,,,,,,,,,,,,,,,,,,,0,2,2,3,1,,,,,,,,,,,,,,,,,,,,,,,,,,,,,,,,,,,,,,,,,
789592,001,2022-11-20_18h49.15.258,Info_measure_main_exp,2022.2.2,Win32,60.2373351,,,,,,,,,,,,,,,,,,masks/mask_003.jpg,,,,,,,,,,,,,,,,,,,,,,,,,,,,,,,,,,,,,,,,,,,,,,,,0,3,3,2,1,,,,,,,,,,,,,,,,,,,,,,,,,,,,,,,,,,,,,,,,,
789592,001,2022-11-20_18h49.15.258,Info_measure_main_exp,2022.2.2,Win32,60.2373351,,,,,,,,,,,,,,,,,,masks/mask_001.jpg,,,,,,,,,,,,,,,,,,,,,,,,,,,,,,,,,,,,,,,,,,,,,,,,0,4,4,0,1,,,,,,,,,,,,,,,,,,,,,,,,,,,,,,,,,,,,,,,,,
789592,001,2022-11-20_18h49.15.258,Info_measure_main_exp,2022.2.2,Win32,60.2373351,,,,,,,,,,,,,,,,,,,,,,,,,,,,,,7,0.3673,1,,,,,,,,,,,,0,131,5,5,2250,2298,absent_patch/patch0002250.jpg,absent_patch/patch0002298.jpg,,,,,,,,,,,,,,,,,,,,0.016927083,0.06640625,1,0,0,response1disk,13,-0.00390625,-0.005208333,1,0,0,center_square,0,12,12,59,1,,,,,,,,,,,,,,,,,,,,,,,
789592,001,2022-11-20_18h49.15.258,Info_measure_main_exp,2022.2.2,Win32,60.2373351,,,,,,,,,,,,,,,,,,masks/mask_004.jpg,,,,,,,,,,,,,,,,,,,,,,,,,,,,,,,,,,,,,,,,,,,0,0,0,3,1,,,,,,,,,,,,,,,,,,,,,,,,,,,,,,,,,,,,,,,,,,,,,,
789592,001,2022-11-20_18h49.15.258,Info_measure_main_exp,2022.2.2,Win32,60.2373351,,,,,,,,,,,,,,,,,,masks/mask_005.jpg,,,,,,,,,,,,,,,,,,,,,,,,,,,,,,,,,,,,,,,,,,,0,1,1,4,1,,,,,,,,,,,,,,,,,,,,,,,,,,,,,,,,,,,,,,,,,,,,,,
789592,001,2022-11-20_18h49.15.258,Info_measure_main_exp,2022.2.2,Win32,60.2373351,,,,,,,,,,,,,,,,,,masks/mask_001.jpg,,,,,,,,,,,,,,,,,,,,,,,,,,,,,,,,,,,,,,,,,,,0,2,2,0,1,,,,,,,,,,,,,,,,,,,,,,,,,,,,,,,,,,,,,,,,,,,,,,
789592,001,2022-11-20_18h49.15.258,Info_measure_main_exp,2022.2.2,Win32,60.2373351,,,,,,,,,,,,,,,,,,masks/mask_003.jpg,,,,,,,,,,,,,,,,,,,,,,,,,,,,,,,,,,,,,,,,,,,0,3,3,2,1,,,,,,,,,,,,,,,,,,,,,,,,,,,,,,,,,,,,,,,,,,,,,,
789592,001,2022-11-20_18h49.15.258,Info_measure_main_exp,2022.2.2,Win32,60.2373351,,,,,,,,,,,,,,,,,,masks/mask_002.jpg,,,,,,,,,,,,,,,,,,,,,,,,,,,,,,,,,,,,,,,,,,,0,4,4,1,1,,,,,,,,,,,,,,,,,,,,,,,,,,,,,,,,,,,,,,,,,,,,,,
789592,001,2022-11-20_18h49.15.258,Info_measure_main_exp,2022.2.2,Win32,60.2373351,,,,,,,,,,,,,,,,,,masks/mask_004.jpg,,,,,,,,,,,,,,,,,,,,,,,,,,,,,,,,,,,,,,,,,,,,,,,,0,0,0,3,1,,,,,,,,,,,,,,,,,,,,,,,,,,,,,,,,,,,,,,,,,
789592,001,2022-11-20_18h49.15.258,Info_measure_main_exp,2022.2.2,Win32,60.2373351,,,,,,,,,,,,,,,,,,masks/mask_005.jpg,,,,,,,,,,,,,,,,,,,,,,,,,,,,,,,,,,,,,,,,,,,,,,,,0,1,1,4,1,,,,,,,,,,,,,,,,,,,,,,,,,,,,,,,,,,,,,,,,,
789592,001,2022-11-20_18h49.15.258,Info_measure_main_exp,2022.2.2,Win32,60.2373351,,,,,,,,,,,,,,,,,,masks/mask_001.jpg,,,,,,,,,,,,,,,,,,,,,,,,,,,,,,,,,,,,,,,,,,,,,,,,0,2,2,0,1,,,,,,,,,,,,,,,,,,,,,,,,,,,,,,,,,,,,,,,,,
789592,001,2022-11-20_18h49.15.258,Info_measure_main_exp,2022.2.2,Win32,60.2373351,,,,,,,,,,,,,,,,,,masks/mask_002.jpg,,,,,,,,,,,,,,,,,,,,,,,,,,,,,,,,,,,,,,,,,,,,,,,,0,3,3,1,1,,,,,,,,,,,,,,,,,,,,,,,,,,,,,,,,,,,,,,,,,
789592,001,2022-11-20_18h49.15.258,Info_measure_main_exp,2022.2.2,Win32,60.2373351,,,,,,,,,,,,,,,,,,masks/mask_003.jpg,,,,,,,,,,,,,,,,,,,,,,,,,,,,,,,,,,,,,,,,,,,,,,,,0,4,4,2,1,,,,,,,,,,,,,,,,,,,,,,,,,,,,,,,,,,,,,,,,,
789592,001,2022-11-20_18h49.15.258,Info_measure_main_exp,2022.2.2,Win32,60.2373351,,,,,,,,,,,,,,,,,,,,,,,,,,,,,,7,1.2465,1,,,,,,,,,,,,0,131,5,5,2214,2166,absent_patch/patch0002214.jpg,absent_patch/patch0002166.jpg,,,,,,,,,,,,,,,,,,,,0.016927083,0.041666667,1,0,0,response1disk,14,0.00390625,-0.010416667,1,0,0,center_square,0,13,13,109,1,,,,,,,,,,,,,,,,,,,,,,,
789592,001,2022-11-20_18h49.15.258,Info_measure_main_exp,2022.2.2,Win32,60.2373351,,,,,,,,,,,,,,,,,,masks/mask_004.jpg,,,,,,,,,,,,,,,,,,,,,,,,,,,,,,,,,,,,,,,,,,,0,0,0,3,1,,,,,,,,,,,,,,,,,,,,,,,,,,,,,,,,,,,,,,,,,,,,,,
789592,001,2022-11-20_18h49.15.258,Info_measure_main_exp,2022.2.2,Win32,60.2373351,,,,,,,,,,,,,,,,,,masks/mask_001.jpg,,,,,,,,,,,,,,,,,,,,,,,,,,,,,,,,,,,,,,,,,,,0,1,1,0,1,,,,,,,,,,,,,,,,,,,,,,,,,,,,,,,,,,,,,,,,,,,,,,
789592,001,2022-11-20_18h49.15.258,Info_measure_main_exp,2022.2.2,Win32,60.2373351,,,,,,,,,,,,,,,,,,masks/mask_005.jpg,,,,,,,,,,,,,,,,,,,,,,,,,,,,,,,,,,,,,,,,,,,0,2,2,4,1,,,,,,,,,,,,,,,,,,,,,,,,,,,,,,,,,,,,,,,,,,,,,,
789592,001,2022-11-20_18h49.15.258,Info_measure_main_exp,2022.2.2,Win32,60.2373351,,,,,,,,,,,,,,,,,,masks/mask_002.jpg,,,,,,,,,,,,,,,,,,,,,,,,,,,,,,,,,,,,,,,,,,,0,3,3,1,1,,,,,,,,,,,,,,,,,,,,,,,,,,,,,,,,,,,,,,,,,,,,,,
789592,001,2022-11-20_18h49.15.258,Info_measure_main_exp,2022.2.2,Win32,60.2373351,,,,,,,,,,,,,,,,,,masks/mask_003.jpg,,,,,,,,,,,,,,,,,,,,,,,,,,,,,,,,,,,,,,,,,,,0,4,4,2,1,,,,,,,,,,,,,,,,,,,,,,,,,,,,,,,,,,,,,,,,,,,,,,
789592,001,2022-11-20_18h49.15.258,Info_measure_main_exp,2022.2.2,Win32,60.2373351,,,,,,,,,,,,,,,,,,masks/mask_003.jpg,,,,,,,,,,,,,,,,,,,,,,,,,,,,,,,,,,,,,,,,,,,,,,,,0,0,0,2,1,,,,,,,,,,,,,,,,,,,,,,,,,,,,,,,,,,,,,,,,,
789592,001,2022-11-20_18h49.15.258,Info_measure_main_exp,2022.2.2,Win32,60.2373351,,,,,,,,,,,,,,,,,,masks/mask_005.jpg,,,,,,,,,,,,,,,,,,,,,,,,,,,,,,,,,,,,,,,,,,,,,,,,0,1,1,4,1,,,,,,,,,,,,,,,,,,,,,,,,,,,,,,,,,,,,,,,,,
789592,001,2022-11-20_18h49.15.258,Info_measure_main_exp,2022.2.2,Win32,60.2373351,,,,,,,,,,,,,,,,,,masks/mask_002.jpg,,,,,,,,,,,,,,,,,,,,,,,,,,,,,,,,,,,,,,,,,,,,,,,,0,2,2,1,1,,,,,,,,,,,,,,,,,,,,,,,,,,,,,,,,,,,,,,,,,
789592,001,2022-11-20_18h49.15.258,Info_measure_main_exp,2022.2.2,Win32,60.2373351,,,,,,,,,,,,,,,,,,masks/mask_001.jpg,,,,,,,,,,,,,,,,,,,,,,,,,,,,,,,,,,,,,,,,,,,,,,,,0,3,3,0,1,,,,,,,,,,,,,,,,,,,,,,,,,,,,,,,,,,,,,,,,,
789592,001,2022-11-20_18h49.15.258,Info_measure_main_exp,2022.2.2,Win32,60.2373351,,,,,,,,,,,,,,,,,,masks/mask_004.jpg,,,,,,,,,,,,,,,,,,,,,,,,,,,,,,,,,,,,,,,,,,,,,,,,0,4,4,3,1,,,,,,,,,,,,,,,,,,,,,,,,,,,,,,,,,,,,,,,,,
789592,001,2022-11-20_18h49.15.258,Info_measure_main_exp,2022.2.2,Win32,60.2373351,,,,,,,,,,,,,,,,,,,,,,,,,,,,,,7,0.3485,1,,,,,,,,,,,,0,131,5,5,2274,2178,absent_patch/patch0002274.jpg,absent_patch/patch0002178.jpg,,,,,,,,,,,,,,,,,,,,0.061197917,0.106770833,1,0,0,response1disk,15,-0.005208333,0.00390625,1,0,0,center_square,0,14,14,117,1,,,,,,,,,,,,,,,,,,,,,,,
789592,001,2022-11-20_18h49.15.258,Info_measure_main_exp,2022.2.2,Win32,60.2373351,,,,,,,,,,,,,,,,,,masks/mask_001.jpg,,,,,,,,,,,,,,,,,,,,,,,,,,,,,,,,,,,,,,,,,,,0,0,0,0,1,,,,,,,,,,,,,,,,,,,,,,,,,,,,,,,,,,,,,,,,,,,,,,
789592,001,2022-11-20_18h49.15.258,Info_measure_main_exp,2022.2.2,Win32,60.2373351,,,,,,,,,,,,,,,,,,masks/mask_005.jpg,,,,,,,,,,,,,,,,,,,,,,,,,,,,,,,,,,,,,,,,,,,0,1,1,4,1,,,,,,,,,,,,,,,,,,,,,,,,,,,,,,,,,,,,,,,,,,,,,,
789592,001,2022-11-20_18h49.15.258,Info_measure_main_exp,2022.2.2,Win32,60.2373351,,,,,,,,,,,,,,,,,,masks/mask_004.jpg,,,,,,,,,,,,,,,,,,,,,,,,,,,,,,,,,,,,,,,,,,,0,2,2,3,1,,,,,,,,,,,,,,,,,,,,,,,,,,,,,,,,,,,,,,,,,,,,,,
789592,001,2022-11-20_18h49.15.258,Info_measure_main_exp,2022.2.2,Win32,60.2373351,,,,,,,,,,,,,,,,,,masks/mask_002.jpg,,,,,,,,,,,,,,,,,,,,,,,,,,,,,,,,,,,,,,,,,,,0,3,3,1,1,,,,,,,,,,,,,,,,,,,,,,,,,,,,,,,,,,,,,,,,,,,,,,
789592,001,2022-11-20_18h49.15.258,Info_measure_main_exp,2022.2.2,Win32,60.2373351,,,,,,,,,,,,,,,,,,masks/mask_003.jpg,,,,,,,,,,,,,,,,,,,,,,,,,,,,,,,,,,,,,,,,,,,0,4,4,2,1,,,,,,,,,,,,,,,,,,,,,,,,,,,,,,,,,,,,,,,,,,,,,,
789592,001,2022-11-20_18h49.15.258,Info_measure_main_exp,2022.2.2,Win32,60.2373351,,,,,,,,,,,,,,,,,,masks/mask_001.jpg,,,,,,,,,,,,,,,,,,,,,,,,,,,,,,,,,,,,,,,,,,,,,,,,0,0,0,0,1,,,,,,,,,,,,,,,,,,,,,,,,,,,,,,,,,,,,,,,,,
789592,001,2022-11-20_18h49.15.258,Info_measure_main_exp,2022.2.2,Win32,60.2373351,,,,,,,,,,,,,,,,,,masks/mask_003.jpg,,,,,,,,,,,,,,,,,,,,,,,,,,,,,,,,,,,,,,,,,,,,,,,,0,1,1,2,1,,,,,,,,,,,,,,,,,,,,,,,,,,,,,,,,,,,,,,,,,
789592,001,2022-11-20_18h49.15.258,Info_measure_main_exp,2022.2.2,Win32,60.2373351,,,,,,,,,,,,,,,,,,masks/mask_004.jpg,,,,,,,,,,,,,,,,,,,,,,,,,,,,,,,,,,,,,,,,,,,,,,,,0,2,2,3,1,,,,,,,,,,,,,,,,,,,,,,,,,,,,,,,,,,,,,,,,,
789592,001,2022-11-20_18h49.15.258,Info_measure_main_exp,2022.2.2,Win32,60.2373351,,,,,,,,,,,,,,,,,,masks/mask_005.jpg,,,,,,,,,,,,,,,,,,,,,,,,,,,,,,,,,,,,,,,,,,,,,,,,0,3,3,4,1,,,,,,,,,,,,,,,,,,,,,,,,,,,,,,,,,,,,,,,,,
789592,001,2022-11-20_18h49.15.258,Info_measure_main_exp,2022.2.2,Win32,60.2373351,,,,,,,,,,,,,,,,,,masks/mask_002.jpg,,,,,,,,,,,,,,,,,,,,,,,,,,,,,,,,,,,,,,,,,,,,,,,,0,4,4,1,1,,,,,,,,,,,,,,,,,,,,,,,,,,,,,,,,,,,,,,,,,
789592,001,2022-11-20_18h49.15.258,Info_measure_main_exp,2022.2.2,Win32,60.2373351,,,,,,,,,,,,,,,,,,,,,,,,,,,,,,7,0.5189,1,,,,,,,,,,,,0,131,5,5,1986,1950,absent_patch/patch0001986.jpg,absent_patch/patch0001950.jpg,,,,,,,,,,,,,,,,,,,,0.059895833,0.110677083,1,0,0,response1disk,16,0,-0.002604167,1,0,0,center_square,0,15,15,15,1,,,,,,,,,,,,,,,,,,,,,,,
789592,001,2022-11-20_18h49.15.258,Info_measure_main_exp,2022.2.2,Win32,60.2373351,,,,,,,,,,,,,,,,,,masks/mask_003.jpg,,,,,,,,,,,,,,,,,,,,,,,,,,,,,,,,,,,,,,,,,,,0,0,0,2,1,,,,,,,,,,,,,,,,,,,,,,,,,,,,,,,,,,,,,,,,,,,,,,
789592,001,2022-11-20_18h49.15.258,Info_measure_main_exp,2022.2.2,Win32,60.2373351,,,,,,,,,,,,,,,,,,masks/mask_005.jpg,,,,,,,,,,,,,,,,,,,,,,,,,,,,,,,,,,,,,,,,,,,0,1,1,4,1,,,,,,,,,,,,,,,,,,,,,,,,,,,,,,,,,,,,,,,,,,,,,,
789592,001,2022-11-20_18h49.15.258,Info_measure_main_exp,2022.2.2,Win32,60.2373351,,,,,,,,,,,,,,,,,,masks/mask_004.jpg,,,,,,,,,,,,,,,,,,,,,,,,,,,,,,,,,,,,,,,,,,,0,2,2,3,1,,,,,,,,,,,,,,,,,,,,,,,,,,,,,,,,,,,,,,,,,,,,,,
789592,001,2022-11-20_18h49.15.258,Info_measure_main_exp,2022.2.2,Win32,60.2373351,,,,,,,,,,,,,,,,,,masks/mask_002.jpg,,,,,,,,,,,,,,,,,,,,,,,,,,,,,,,,,,,,,,,,,,,0,3,3,1,1,,,,,,,,,,,,,,,,,,,,,,,,,,,,,,,,,,,,,,,,,,,,,,
789592,001,2022-11-20_18h49.15.258,Info_measure_main_exp,2022.2.2,Win32,60.2373351,,,,,,,,,,,,,,,,,,masks/mask_001.jpg,,,,,,,,,,,,,,,,,,,,,,,,,,,,,,,,,,,,,,,,,,,0,4,4,0,1,,,,,,,,,,,,,,,,,,,,,,,,,,,,,,,,,,,,,,,,,,,,,,
789592,001,2022-11-20_18h49.15.258,Info_measure_main_exp,2022.2.2,Win32,60.2373351,,,,,,,,,,,,,,,,,,masks/mask_001.jpg,,,,,,,,,,,,,,,,,,,,,,,,,,,,,,,,,,,,,,,,,,,,,,,,0,0,0,0,1,,,,,,,,,,,,,,,,,,,,,,,,,,,,,,,,,,,,,,,,,
789592,001,2022-11-20_18h49.15.258,Info_measure_main_exp,2022.2.2,Win32,60.2373351,,,,,,,,,,,,,,,,,,masks/mask_003.jpg,,,,,,,,,,,,,,,,,,,,,,,,,,,,,,,,,,,,,,,,,,,,,,,,0,1,1,2,1,,,,,,,,,,,,,,,,,,,,,,,,,,,,,,,,,,,,,,,,,
789592,001,2022-11-20_18h49.15.258,Info_measure_main_exp,2022.2.2,Win32,60.2373351,,,,,,,,,,,,,,,,,,masks/mask_002.jpg,,,,,,,,,,,,,,,,,,,,,,,,,,,,,,,,,,,,,,,,,,,,,,,,0,2,2,1,1,,,,,,,,,,,,,,,,,,,,,,,,,,,,,,,,,,,,,,,,,
789592,001,2022-11-20_18h49.15.258,Info_measure_main_exp,2022.2.2,Win32,60.2373351,,,,,,,,,,,,,,,,,,masks/mask_005.jpg,,,,,,,,,,,,,,,,,,,,,,,,,,,,,,,,,,,,,,,,,,,,,,,,0,3,3,4,1,,,,,,,,,,,,,,,,,,,,,,,,,,,,,,,,,,,,,,,,,
789592,001,2022-11-20_18h49.15.258,Info_measure_main_exp,2022.2.2,Win32,60.2373351,,,,,,,,,,,,,,,,,,masks/mask_004.jpg,,,,,,,,,,,,,,,,,,,,,,,,,,,,,,,,,,,,,,,,,,,,,,,,0,4,4,3,1,,,,,,,,,,,,,,,,,,,,,,,,,,,,,,,,,,,,,,,,,
789592,001,2022-11-20_18h49.15.258,Info_measure_main_exp,2022.2.2,Win32,60.2373351,,,,,,,,,,,,,,,,,,,,,,,,,,,,,,7,0.6323,1,,,,,,,,,,,,0,131,5,5,2238,2166,absent_patch/patch0002238.jpg,absent_patch/patch0002166.jpg,,,,,,,,,,,,,,,,,,,,0.033854167,0.049479167,1,0,0,response1disk,17,-0.002604167,-0.001302083,1,0,0,center_square,0,16,16,118,1,,,,,,,,,,,,,,,,,,,,,,,
789592,001,2022-11-20_18h49.15.258,Info_measure_main_exp,2022.2.2,Win32,60.2373351,,,,,,,,,,,,,,,,,,masks/mask_002.jpg,,,,,,,,,,,,,,,,,,,,,,,,,,,,,,,,,,,,,,,,,,,0,0,0,1,1,,,,,,,,,,,,,,,,,,,,,,,,,,,,,,,,,,,,,,,,,,,,,,
789592,001,2022-11-20_18h49.15.258,Info_measure_main_exp,2022.2.2,Win32,60.2373351,,,,,,,,,,,,,,,,,,masks/mask_001.jpg,,,,,,,,,,,,,,,,,,,,,,,,,,,,,,,,,,,,,,,,,,,0,1,1,0,1,,,,,,,,,,,,,,,,,,,,,,,,,,,,,,,,,,,,,,,,,,,,,,
789592,001,2022-11-20_18h49.15.258,Info_measure_main_exp,2022.2.2,Win32,60.2373351,,,,,,,,,,,,,,,,,,masks/mask_004.jpg,,,,,,,,,,,,,,,,,,,,,,,,,,,,,,,,,,,,,,,,,,,0,2,2,3,1,,,,,,,,,,,,,,,,,,,,,,,,,,,,,,,,,,,,,,,,,,,,,,
789592,001,2022-11-20_18h49.15.258,Info_measure_main_exp,2022.2.2,Win32,60.2373351,,,,,,,,,,,,,,,,,,masks/mask_003.jpg,,,,,,,,,,,,,,,,,,,,,,,,,,,,,,,,,,,,,,,,,,,0,3,3,2,1,,,,,,,,,,,,,,,,,,,,,,,,,,,,,,,,,,,,,,,,,,,,,,
789592,001,2022-11-20_18h49.15.258,Info_measure_main_exp,2022.2.2,Win32,60.2373351,,,,,,,,,,,,,,,,,,masks/mask_005.jpg,,,,,,,,,,,,,,,,,,,,,,,,,,,,,,,,,,,,,,,,,,,0,4,4,4,1,,,,,,,,,,,,,,,,,,,,,,,,,,,,,,,,,,,,,,,,,,,,,,
789592,001,2022-11-20_18h49.15.258,Info_measure_main_exp,2022.2.2,Win32,60.2373351,,,,,,,,,,,,,,,,,,masks/mask_004.jpg,,,,,,,,,,,,,,,,,,,,,,,,,,,,,,,,,,,,,,,,,,,,,,,,0,0,0,3,1,,,,,,,,,,,,,,,,,,,,,,,,,,,,,,,,,,,,,,,,,
789592,001,2022-11-20_18h49.15.258,Info_measure_main_exp,2022.2.2,Win32,60.2373351,,,,,,,,,,,,,,,,,,masks/mask_002.jpg,,,,,,,,,,,,,,,,,,,,,,,,,,,,,,,,,,,,,,,,,,,,,,,,0,1,1,1,1,,,,,,,,,,,,,,,,,,,,,,,,,,,,,,,,,,,,,,,,,
789592,001,2022-11-20_18h49.15.258,Info_measure_main_exp,2022.2.2,Win32,60.2373351,,,,,,,,,,,,,,,,,,masks/mask_001.jpg,,,,,,,,,,,,,,,,,,,,,,,,,,,,,,,,,,,,,,,,,,,,,,,,0,2,2,0,1,,,,,,,,,,,,,,,,,,,,,,,,,,,,,,,,,,,,,,,,,
789592,001,2022-11-20_18h49.15.258,Info_measure_main_exp,2022.2.2,Win32,60.2373351,,,,,,,,,,,,,,,,,,masks/mask_003.jpg,,,,,,,,,,,,,,,,,,,,,,,,,,,,,,,,,,,,,,,,,,,,,,,,0,3,3,2,1,,,,,,,,,,,,,,,,,,,,,,,,,,,,,,,,,,,,,,,,,
789592,001,2022-11-20_18h49.15.258,Info_measure_main_exp,2022.2.2,Win32,60.2373351,,,,,,,,,,,,,,,,,,masks/mask_005.jpg,,,,,,,,,,,,,,,,,,,,,,,,,,,,,,,,,,,,,,,,,,,,,,,,0,4,4,4,1,,,,,,,,,,,,,,,,,,,,,,,,,,,,,,,,,,,,,,,,,
789592,001,2022-11-20_18h49.15.258,Info_measure_main_exp,2022.2.2,Win32,60.2373351,,,,,,,,,,,,,,,,,,,,,,,,,,,,,,7,0.448,1,,,,,,,,,,,,0,131,5,5,2154,2214,absent_patch/patch0002154.jpg,absent_patch/patch0002214.jpg,,,,,,,,,,,,,,,,,,,,0.022135417,0.1015625,1,0,0,response1disk,18,-0.001302083,-0.002604167,1,0,0,center_square,0,17,17,67,1,,,,,,,,,,,,,,,,,,,,,,,
789592,001,2022-11-20_18h49.15.258,Info_measure_main_exp,2022.2.2,Win32,60.2373351,,,,,,,,,,,,,,,,,,masks/mask_003.jpg,,,,,,,,,,,,,,,,,,,,,,,,,,,,,,,,,,,,,,,,,,,0,0,0,2,1,,,,,,,,,,,,,,,,,,,,,,,,,,,,,,,,,,,,,,,,,,,,,,
789592,001,2022-11-20_18h49.15.258,Info_measure_main_exp,2022.2.2,Win32,60.2373351,,,,,,,,,,,,,,,,,,masks/mask_005.jpg,,,,,,,,,,,,,,,,,,,,,,,,,,,,,,,,,,,,,,,,,,,0,1,1,4,1,,,,,,,,,,,,,,,,,,,,,,,,,,,,,,,,,,,,,,,,,,,,,,
789592,001,2022-11-20_18h49.15.258,Info_measure_main_exp,2022.2.2,Win32,60.2373351,,,,,,,,,,,,,,,,,,masks/mask_002.jpg,,,,,,,,,,,,,,,,,,,,,,,,,,,,,,,,,,,,,,,,,,,0,2,2,1,1,,,,,,,,,,,,,,,,,,,,,,,,,,,,,,,,,,,,,,,,,,,,,,
789592,001,2022-11-20_18h49.15.258,Info_measure_main_exp,2022.2.2,Win32,60.2373351,,,,,,,,,,,,,,,,,,masks/mask_001.jpg,,,,,,,,,,,,,,,,,,,,,,,,,,,,,,,,,,,,,,,,,,,0,3,3,0,1,,,,,,,,,,,,,,,,,,,,,,,,,,,,,,,,,,,,,,,,,,,,,,
789592,001,2022-11-20_18h49.15.258,Info_measure_main_exp,2022.2.2,Win32,60.2373351,,,,,,,,,,,,,,,,,,masks/mask_004.jpg,,,,,,,,,,,,,,,,,,,,,,,,,,,,,,,,,,,,,,,,,,,0,4,4,3,1,,,,,,,,,,,,,,,,,,,,,,,,,,,,,,,,,,,,,,,,,,,,,,
789592,001,2022-11-20_18h49.15.258,Info_measure_main_exp,2022.2.2,Win32,60.2373351,,,,,,,,,,,,,,,,,,masks/mask_002.jpg,,,,,,,,,,,,,,,,,,,,,,,,,,,,,,,,,,,,,,,,,,,,,,,,0,0,0,1,1,,,,,,,,,,,,,,,,,,,,,,,,,,,,,,,,,,,,,,,,,
789592,001,2022-11-20_18h49.15.258,Info_measure_main_exp,2022.2.2,Win32,60.2373351,,,,,,,,,,,,,,,,,,masks/mask_003.jpg,,,,,,,,,,,,,,,,,,,,,,,,,,,,,,,,,,,,,,,,,,,,,,,,0,1,1,2,1,,,,,,,,,,,,,,,,,,,,,,,,,,,,,,,,,,,,,,,,,
789592,001,2022-11-20_18h49.15.258,Info_measure_main_exp,2022.2.2,Win32,60.2373351,,,,,,,,,,,,,,,,,,masks/mask_005.jpg,,,,,,,,,,,,,,,,,,,,,,,,,,,,,,,,,,,,,,,,,,,,,,,,0,2,2,4,1,,,,,,,,,,,,,,,,,,,,,,,,,,,,,,,,,,,,,,,,,
789592,001,2022-11-20_18h49.15.258,Info_measure_main_exp,2022.2.2,Win32,60.2373351,,,,,,,,,,,,,,,,,,masks/mask_004.jpg,,,,,,,,,,,,,,,,,,,,,,,,,,,,,,,,,,,,,,,,,,,,,,,,0,3,3,3,1,,,,,,,,,,,,,,,,,,,,,,,,,,,,,,,,,,,,,,,,,
789592,001,2022-11-20_18h49.15.258,Info_measure_main_exp,2022.2.2,Win32,60.2373351,,,,,,,,,,,,,,,,,,masks/mask_001.jpg,,,,,,,,,,,,,,,,,,,,,,,,,,,,,,,,,,,,,,,,,,,,,,,,0,4,4,0,1,,,,,,,,,,,,,,,,,,,,,,,,,,,,,,,,,,,,,,,,,
789592,001,2022-11-20_18h49.15.258,Info_measure_main_exp,2022.2.2,Win32,60.2373351,,,,,,,,,,,,,,,,,,,,,,,,,,,,,,7,0.5685,1,,,,,,,,,,,,0,131,5,5,2190,2082,absent_patch/patch0002190.jpg,absent_patch/patch0002082.jpg,,,,,,,,,,,,,,,,,,,,0.048177083,0.114583333,1,0,0,response1disk,19,0.010416667,-0.001302083,1,0,0,center_square,0,18,18,112,1,,,,,,,,,,,,,,,,,,,,,,,
789592,001,2022-11-20_18h49.15.258,Info_measure_main_exp,2022.2.2,Win32,60.2373351,,,,,,,,,,,,,,,,,,masks/mask_005.jpg,,,,,,,,,,,,,,,,,,,,,,,,,,,,,,,,,,,,,,,,,,,0,0,0,4,1,,,,,,,,,,,,,,,,,,,,,,,,,,,,,,,,,,,,,,,,,,,,,,
789592,001,2022-11-20_18h49.15.258,Info_measure_main_exp,2022.2.2,Win32,60.2373351,,,,,,,,,,,,,,,,,,masks/mask_004.jpg,,,,,,,,,,,,,,,,,,,,,,,,,,,,,,,,,,,,,,,,,,,0,1,1,3,1,,,,,,,,,,,,,,,,,,,,,,,,,,,,,,,,,,,,,,,,,,,,,,
789592,001,2022-11-20_18h49.15.258,Info_measure_main_exp,2022.2.2,Win32,60.2373351,,,,,,,,,,,,,,,,,,masks/mask_001.jpg,,,,,,,,,,,,,,,,,,,,,,,,,,,,,,,,,,,,,,,,,,,0,2,2,0,1,,,,,,,,,,,,,,,,,,,,,,,,,,,,,,,,,,,,,,,,,,,,,,
789592,001,2022-11-20_18h49.15.258,Info_measure_main_exp,2022.2.2,Win32,60.2373351,,,,,,,,,,,,,,,,,,masks/mask_003.jpg,,,,,,,,,,,,,,,,,,,,,,,,,,,,,,,,,,,,,,,,,,,0,3,3,2,1,,,,,,,,,,,,,,,,,,,,,,,,,,,,,,,,,,,,,,,,,,,,,,
789592,001,2022-11-20_18h49.15.258,Info_measure_main_exp,2022.2.2,Win32,60.2373351,,,,,,,,,,,,,,,,,,masks/mask_002.jpg,,,,,,,,,,,,,,,,,,,,,,,,,,,,,,,,,,,,,,,,,,,0,4,4,1,1,,,,,,,,,,,,,,,,,,,,,,,,,,,,,,,,,,,,,,,,,,,,,,
789592,001,2022-11-20_18h49.15.258,Info_measure_main_exp,2022.2.2,Win32,60.2373351,,,,,,,,,,,,,,,,,,masks/mask_005.jpg,,,,,,,,,,,,,,,,,,,,,,,,,,,,,,,,,,,,,,,,,,,,,,,,0,0,0,4,1,,,,,,,,,,,,,,,,,,,,,,,,,,,,,,,,,,,,,,,,,
789592,001,2022-11-20_18h49.15.258,Info_measure_main_exp,2022.2.2,Win32,60.2373351,,,,,,,,,,,,,,,,,,masks/mask_001.jpg,,,,,,,,,,,,,,,,,,,,,,,,,,,,,,,,,,,,,,,,,,,,,,,,0,1,1,0,1,,,,,,,,,,,,,,,,,,,,,,,,,,,,,,,,,,,,,,,,,
789592,001,2022-11-20_18h49.15.258,Info_measure_main_exp,2022.2.2,Win32,60.2373351,,,,,,,,,,,,,,,,,,masks/mask_002.jpg,,,,,,,,,,,,,,,,,,,,,,,,,,,,,,,,,,,,,,,,,,,,,,,,0,2,2,1,1,,,,,,,,,,,,,,,,,,,,,,,,,,,,,,,,,,,,,,,,,
789592,001,2022-11-20_18h49.15.258,Info_measure_main_exp,2022.2.2,Win32,60.2373351,,,,,,,,,,,,,,,,,,masks/mask_004.jpg,,,,,,,,,,,,,,,,,,,,,,,,,,,,,,,,,,,,,,,,,,,,,,,,0,3,3,3,1,,,,,,,,,,,,,,,,,,,,,,,,,,,,,,,,,,,,,,,,,
789592,001,2022-11-20_18h49.15.258,Info_measure_main_exp,2022.2.2,Win32,60.2373351,,,,,,,,,,,,,,,,,,masks/mask_003.jpg,,,,,,,,,,,,,,,,,,,,,,,,,,,,,,,,,,,,,,,,,,,,,,,,0,4,4,2,1,,,,,,,,,,,,,,,,,,,,,,,,,,,,,,,,,,,,,,,,,
789592,001,2022-11-20_18h49.15.258,Info_measure_main_exp,2022.2.2,Win32,60.2373351,,,,,,,,,,,,,,,,,,,,,,,,,,,,,,7,1.7013,1,,,,,,,,,,,,0,131,5,5,2274,2154,absent_patch/patch0002274.jpg,absent_patch/patch0002154.jpg,,,,,,,,,,,,,,,,,,,,0,0.063802083,1,0,0,response1disk,20,0,0,1,0,0,center_square,0,19,19,23,1,,,,,,,,,,,,,,,,,,,,,,,
789592,001,2022-11-20_18h49.15.258,Info_measure_main_exp,2022.2.2,Win32,60.2373351,,,,,,,,,,,,,,,,,,masks/mask_002.jpg,,,,,,,,,,,,,,,,,,,,,,,,,,,,,,,,,,,,,,,,,,,0,0,0,1,1,,,,,,,,,,,,,,,,,,,,,,,,,,,,,,,,,,,,,,,,,,,,,,
789592,001,2022-11-20_18h49.15.258,Info_measure_main_exp,2022.2.2,Win32,60.2373351,,,,,,,,,,,,,,,,,,masks/mask_005.jpg,,,,,,,,,,,,,,,,,,,,,,,,,,,,,,,,,,,,,,,,,,,0,1,1,4,1,,,,,,,,,,,,,,,,,,,,,,,,,,,,,,,,,,,,,,,,,,,,,,
789592,001,2022-11-20_18h49.15.258,Info_measure_main_exp,2022.2.2,Win32,60.2373351,,,,,,,,,,,,,,,,,,masks/mask_003.jpg,,,,,,,,,,,,,,,,,,,,,,,,,,,,,,,,,,,,,,,,,,,0,2,2,2,1,,,,,,,,,,,,,,,,,,,,,,,,,,,,,,,,,,,,,,,,,,,,,,
789592,001,2022-11-20_18h49.15.258,Info_measure_main_exp,2022.2.2,Win32,60.2373351,,,,,,,,,,,,,,,,,,masks/mask_001.jpg,,,,,,,,,,,,,,,,,,,,,,,,,,,,,,,,,,,,,,,,,,,0,3,3,0,1,,,,,,,,,,,,,,,,,,,,,,,,,,,,,,,,,,,,,,,,,,,,,,
789592,001,2022-11-20_18h49.15.258,Info_measure_main_exp,2022.2.2,Win32,60.2373351,,,,,,,,,,,,,,,,,,masks/mask_004.jpg,,,,,,,,,,,,,,,,,,,,,,,,,,,,,,,,,,,,,,,,,,,0,4,4,3,1,,,,,,,,,,,,,,,,,,,,,,,,,,,,,,,,,,,,,,,,,,,,,,
789592,001,2022-11-20_18h49.15.258,Info_measure_main_exp,2022.2.2,Win32,60.2373351,,,,,,,,,,,,,,,,,,masks/mask_001.jpg,,,,,,,,,,,,,,,,,,,,,,,,,,,,,,,,,,,,,,,,,,,,,,,,0,0,0,0,1,,,,,,,,,,,,,,,,,,,,,,,,,,,,,,,,,,,,,,,,,
789592,001,2022-11-20_18h49.15.258,Info_measure_main_exp,2022.2.2,Win32,60.2373351,,,,,,,,,,,,,,,,,,masks/mask_004.jpg,,,,,,,,,,,,,,,,,,,,,,,,,,,,,,,,,,,,,,,,,,,,,,,,0,1,1,3,1,,,,,,,,,,,,,,,,,,,,,,,,,,,,,,,,,,,,,,,,,
789592,001,2022-11-20_18h49.15.258,Info_measure_main_exp,2022.2.2,Win32,60.2373351,,,,,,,,,,,,,,,,,,masks/mask_005.jpg,,,,,,,,,,,,,,,,,,,,,,,,,,,,,,,,,,,,,,,,,,,,,,,,0,2,2,4,1,,,,,,,,,,,,,,,,,,,,,,,,,,,,,,,,,,,,,,,,,
789592,001,2022-11-20_18h49.15.258,Info_measure_main_exp,2022.2.2,Win32,60.2373351,,,,,,,,,,,,,,,,,,masks/mask_002.jpg,,,,,,,,,,,,,,,,,,,,,,,,,,,,,,,,,,,,,,,,,,,,,,,,0,3,3,1,1,,,,,,,,,,,,,,,,,,,,,,,,,,,,,,,,,,,,,,,,,
789592,001,2022-11-20_18h49.15.258,Info_measure_main_exp,2022.2.2,Win32,60.2373351,,,,,,,,,,,,,,,,,,masks/mask_003.jpg,,,,,,,,,,,,,,,,,,,,,,,,,,,,,,,,,,,,,,,,,,,,,,,,0,4,4,2,1,,,,,,,,,,,,,,,,,,,,,,,,,,,,,,,,,,,,,,,,,
789592,001,2022-11-20_18h49.15.258,Info_measure_main_exp,2022.2.2,Win32,60.2373351,,,,,,,,,,,,,,,,,,,,,,,,,,,,,,7,0.4681,1,,,,,,,,,,,,0,131,5,5,2250,1950,absent_patch/patch0002250.jpg,absent_patch/patch0001950.jpg,,,,,,,,,,,,,,,,,,,,0.041666667,0.0859375,1,0,0,response1disk,21,0.010416667,-0.0078125,1,0,0,center_square,0,20,20,16,1,,,,,,,,,,,,,,,,,,,,,,,
789592,001,2022-11-20_18h49.15.258,Info_measure_main_exp,2022.2.2,Win32,60.2373351,,,,,,,,,,,,,,,,,,masks/mask_003.jpg,,,,,,,,,,,,,,,,,,,,,,,,,,,,,,,,,,,,,,,,,,,0,0,0,2,1,,,,,,,,,,,,,,,,,,,,,,,,,,,,,,,,,,,,,,,,,,,,,,
789592,001,2022-11-20_18h49.15.258,Info_measure_main_exp,2022.2.2,Win32,60.2373351,,,,,,,,,,,,,,,,,,masks/mask_005.jpg,,,,,,,,,,,,,,,,,,,,,,,,,,,,,,,,,,,,,,,,,,,0,1,1,4,1,,,,,,,,,,,,,,,,,,,,,,,,,,,,,,,,,,,,,,,,,,,,,,
789592,001,2022-11-20_18h49.15.258,Info_measure_main_exp,2022.2.2,Win32,60.2373351,,,,,,,,,,,,,,,,,,masks/mask_004.jpg,,,,,,,,,,,,,,,,,,,,,,,,,,,,,,,,,,,,,,,,,,,0,2,2,3,1,,,,,,,,,,,,,,,,,,,,,,,,,,,,,,,,,,,,,,,,,,,,,,
789592,001,2022-11-20_18h49.15.258,Info_measure_main_exp,2022.2.2,Win32,60.2373351,,,,,,,,,,,,,,,,,,masks/mask_002.jpg,,,,,,,,,,,,,,,,,,,,,,,,,,,,,,,,,,,,,,,,,,,0,3,3,1,1,,,,,,,,,,,,,,,,,,,,,,,,,,,,,,,,,,,,,,,,,,,,,,
789592,001,2022-11-20_18h49.15.258,Info_measure_main_exp,2022.2.2,Win32,60.2373351,,,,,,,,,,,,,,,,,,masks/mask_001.jpg,,,,,,,,,,,,,,,,,,,,,,,,,,,,,,,,,,,,,,,,,,,0,4,4,0,1,,,,,,,,,,,,,,,,,,,,,,,,,,,,,,,,,,,,,,,,,,,,,,
789592,001,2022-11-20_18h49.15.258,Info_measure_main_exp,2022.2.2,Win32,60.2373351,,,,,,,,,,,,,,,,,,masks/mask_002.jpg,,,,,,,,,,,,,,,,,,,,,,,,,,,,,,,,,,,,,,,,,,,,,,,,0,0,0,1,1,,,,,,,,,,,,,,,,,,,,,,,,,,,,,,,,,,,,,,,,,
789592,001,2022-11-20_18h49.15.258,Info_measure_main_exp,2022.2.2,Win32,60.2373351,,,,,,,,,,,,,,,,,,masks/mask_005.jpg,,,,,,,,,,,,,,,,,,,,,,,,,,,,,,,,,,,,,,,,,,,,,,,,0,1,1,4,1,,,,,,,,,,,,,,,,,,,,,,,,,,,,,,,,,,,,,,,,,
789592,001,2022-11-20_18h49.15.258,Info_measure_main_exp,2022.2.2,Win32,60.2373351,,,,,,,,,,,,,,,,,,masks/mask_001.jpg,,,,,,,,,,,,,,,,,,,,,,,,,,,,,,,,,,,,,,,,,,,,,,,,0,2,2,0,1,,,,,,,,,,,,,,,,,,,,,,,,,,,,,,,,,,,,,,,,,
789592,001,2022-11-20_18h49.15.258,Info_measure_main_exp,2022.2.2,Win32,60.2373351,,,,,,,,,,,,,,,,,,masks/mask_003.jpg,,,,,,,,,,,,,,,,,,,,,,,,,,,,,,,,,,,,,,,,,,,,,,,,0,3,3,2,1,,,,,,,,,,,,,,,,,,,,,,,,,,,,,,,,,,,,,,,,,
789592,001,2022-11-20_18h49.15.258,Info_measure_main_exp,2022.2.2,Win32,60.2373351,,,,,,,,,,,,,,,,,,masks/mask_004.jpg,,,,,,,,,,,,,,,,,,,,,,,,,,,,,,,,,,,,,,,,,,,,,,,,0,4,4,3,1,,,,,,,,,,,,,,,,,,,,,,,,,,,,,,,,,,,,,,,,,
789592,001,2022-11-20_18h49.15.258,Info_measure_main_exp,2022.2.2,Win32,60.2373351,,,,,,,,,,,,,,,,,,,,,,,,,,,,,,7,0.5006,1,,,,,,,,,,,,0,131,5,5,2274,2250,absent_patch/patch0002274.jpg,absent_patch/patch0002250.jpg,,,,,,,,,,,,,,,,,,,,0.01953125,0.053385417,1,0,0,response1disk,22,0.00390625,-0.001302083,1,0,0,center_square,0,21,21,28,1,,,,,,,,,,,,,,,,,,,,,,,
789592,001,2022-11-20_18h49.15.258,Info_measure_main_exp,2022.2.2,Win32,60.2373351,,,,,,,,,,,,,,,,,,masks/mask_004.jpg,,,,,,,,,,,,,,,,,,,,,,,,,,,,,,,,,,,,,,,,,,,0,0,0,3,1,,,,,,,,,,,,,,,,,,,,,,,,,,,,,,,,,,,,,,,,,,,,,,
789592,001,2022-11-20_18h49.15.258,Info_measure_main_exp,2022.2.2,Win32,60.2373351,,,,,,,,,,,,,,,,,,masks/mask_003.jpg,,,,,,,,,,,,,,,,,,,,,,,,,,,,,,,,,,,,,,,,,,,0,1,1,2,1,,,,,,,,,,,,,,,,,,,,,,,,,,,,,,,,,,,,,,,,,,,,,,
789592,001,2022-11-20_18h49.15.258,Info_measure_main_exp,2022.2.2,Win32,60.2373351,,,,,,,,,,,,,,,,,,masks/mask_002.jpg,,,,,,,,,,,,,,,,,,,,,,,,,,,,,,,,,,,,,,,,,,,0,2,2,1,1,,,,,,,,,,,,,,,,,,,,,,,,,,,,,,,,,,,,,,,,,,,,,,
789592,001,2022-11-20_18h49.15.258,Info_measure_main_exp,2022.2.2,Win32,60.2373351,,,,,,,,,,,,,,,,,,masks/mask_001.jpg,,,,,,,,,,,,,,,,,,,,,,,,,,,,,,,,,,,,,,,,,,,0,3,3,0,1,,,,,,,,,,,,,,,,,,,,,,,,,,,,,,,,,,,,,,,,,,,,,,
789592,001,2022-11-20_18h49.15.258,Info_measure_main_exp,2022.2.2,Win32,60.2373351,,,,,,,,,,,,,,,,,,masks/mask_005.jpg,,,,,,,,,,,,,,,,,,,,,,,,,,,,,,,,,,,,,,,,,,,0,4,4,4,1,,,,,,,,,,,,,,,,,,,,,,,,,,,,,,,,,,,,,,,,,,,,,,
789592,001,2022-11-20_18h49.15.258,Info_measure_main_exp,2022.2.2,Win32,60.2373351,,,,,,,,,,,,,,,,,,masks/mask_004.jpg,,,,,,,,,,,,,,,,,,,,,,,,,,,,,,,,,,,,,,,,,,,,,,,,0,0,0,3,1,,,,,,,,,,,,,,,,,,,,,,,,,,,,,,,,,,,,,,,,,
789592,001,2022-11-20_18h49.15.258,Info_measure_main_exp,2022.2.2,Win32,60.2373351,,,,,,,,,,,,,,,,,,masks/mask_003.jpg,,,,,,,,,,,,,,,,,,,,,,,,,,,,,,,,,,,,,,,,,,,,,,,,0,1,1,2,1,,,,,,,,,,,,,,,,,,,,,,,,,,,,,,,,,,,,,,,,,
789592,001,2022-11-20_18h49.15.258,Info_measure_main_exp,2022.2.2,Win32,60.2373351,,,,,,,,,,,,,,,,,,masks/mask_002.jpg,,,,,,,,,,,,,,,,,,,,,,,,,,,,,,,,,,,,,,,,,,,,,,,,0,2,2,1,1,,,,,,,,,,,,,,,,,,,,,,,,,,,,,,,,,,,,,,,,,
789592,001,2022-11-20_18h49.15.258,Info_measure_main_exp,2022.2.2,Win32,60.2373351,,,,,,,,,,,,,,,,,,masks/mask_001.jpg,,,,,,,,,,,,,,,,,,,,,,,,,,,,,,,,,,,,,,,,,,,,,,,,0,3,3,0,1,,,,,,,,,,,,,,,,,,,,,,,,,,,,,,,,,,,,,,,,,
789592,001,2022-11-20_18h49.15.258,Info_measure_main_exp,2022.2.2,Win32,60.2373351,,,,,,,,,,,,,,,,,,masks/mask_005.jpg,,,,,,,,,,,,,,,,,,,,,,,,,,,,,,,,,,,,,,,,,,,,,,,,0,4,4,4,1,,,,,,,,,,,,,,,,,,,,,,,,,,,,,,,,,,,,,,,,,
789592,001,2022-11-20_18h49.15.258,Info_measure_main_exp,2022.2.2,Win32,60.2373351,,,,,,,,,,,,,,,,,,,,,,,,,,,,,,0,0.6004,1,,,,,,,,,,,,0,131,5,5,2190,2190,absent_patch/patch0002190.jpg,absent_patch/patch0002190.jpg,,,,,,,,,,,,,,,,,,,,-0.024739583,0.0859375,1,0,0,response7disk,23,0.005208333,-0.0078125,1,0,0,center_square,0,22,22,86,1,,,,,,,,,,,,,,,,,,,,,,,
789592,001,2022-11-20_18h49.15.258,Info_measure_main_exp,2022.2.2,Win32,60.2373351,,,,,,,,,,,,,,,,,,masks/mask_002.jpg,,,,,,,,,,,,,,,,,,,,,,,,,,,,,,,,,,,,,,,,,,,0,0,0,1,1,,,,,,,,,,,,,,,,,,,,,,,,,,,,,,,,,,,,,,,,,,,,,,
789592,001,2022-11-20_18h49.15.258,Info_measure_main_exp,2022.2.2,Win32,60.2373351,,,,,,,,,,,,,,,,,,masks/mask_004.jpg,,,,,,,,,,,,,,,,,,,,,,,,,,,,,,,,,,,,,,,,,,,0,1,1,3,1,,,,,,,,,,,,,,,,,,,,,,,,,,,,,,,,,,,,,,,,,,,,,,
789592,001,2022-11-20_18h49.15.258,Info_measure_main_exp,2022.2.2,Win32,60.2373351,,,,,,,,,,,,,,,,,,masks/mask_003.jpg,,,,,,,,,,,,,,,,,,,,,,,,,,,,,,,,,,,,,,,,,,,0,2,2,2,1,,,,,,,,,,,,,,,,,,,,,,,,,,,,,,,,,,,,,,,,,,,,,,
789592,001,2022-11-20_18h49.15.258,Info_measure_main_exp,2022.2.2,Win32,60.2373351,,,,,,,,,,,,,,,,,,masks/mask_001.jpg,,,,,,,,,,,,,,,,,,,,,,,,,,,,,,,,,,,,,,,,,,,0,3,3,0,1,,,,,,,,,,,,,,,,,,,,,,,,,,,,,,,,,,,,,,,,,,,,,,
789592,001,2022-11-20_18h49.15.258,Info_measure_main_exp,2022.2.2,Win32,60.2373351,,,,,,,,,,,,,,,,,,masks/mask_005.jpg,,,,,,,,,,,,,,,,,,,,,,,,,,,,,,,,,,,,,,,,,,,0,4,4,4,1,,,,,,,,,,,,,,,,,,,,,,,,,,,,,,,,,,,,,,,,,,,,,,
789592,001,2022-11-20_18h49.15.258,Info_measure_main_exp,2022.2.2,Win32,60.2373351,,,,,,,,,,,,,,,,,,masks/mask_004.jpg,,,,,,,,,,,,,,,,,,,,,,,,,,,,,,,,,,,,,,,,,,,,,,,,0,0,0,3,1,,,,,,,,,,,,,,,,,,,,,,,,,,,,,,,,,,,,,,,,,
789592,001,2022-11-20_18h49.15.258,Info_measure_main_exp,2022.2.2,Win32,60.2373351,,,,,,,,,,,,,,,,,,masks/mask_002.jpg,,,,,,,,,,,,,,,,,,,,,,,,,,,,,,,,,,,,,,,,,,,,,,,,0,1,1,1,1,,,,,,,,,,,,,,,,,,,,,,,,,,,,,,,,,,,,,,,,,
789592,001,2022-11-20_18h49.15.258,Info_measure_main_exp,2022.2.2,Win32,60.2373351,,,,,,,,,,,,,,,,,,masks/mask_005.jpg,,,,,,,,,,,,,,,,,,,,,,,,,,,,,,,,,,,,,,,,,,,,,,,,0,2,2,4,1,,,,,,,,,,,,,,,,,,,,,,,,,,,,,,,,,,,,,,,,,
789592,001,2022-11-20_18h49.15.258,Info_measure_main_exp,2022.2.2,Win32,60.2373351,,,,,,,,,,,,,,,,,,masks/mask_003.jpg,,,,,,,,,,,,,,,,,,,,,,,,,,,,,,,,,,,,,,,,,,,,,,,,0,3,3,2,1,,,,,,,,,,,,,,,,,,,,,,,,,,,,,,,,,,,,,,,,,
789592,001,2022-11-20_18h49.15.258,Info_measure_main_exp,2022.2.2,Win32,60.2373351,,,,,,,,,,,,,,,,,,masks/mask_001.jpg,,,,,,,,,,,,,,,,,,,,,,,,,,,,,,,,,,,,,,,,,,,,,,,,0,4,4,0,1,,,,,,,,,,,,,,,,,,,,,,,,,,,,,,,,,,,,,,,,,
789592,001,2022-11-20_18h49.15.258,Info_measure_main_exp,2022.2.2,Win32,60.2373351,,,,,,,,,,,,,,,,,,,,,,,,,,,,,,0,0.5828,1,,,,,,,,,,,,0,131,5,5,2250,2250,absent_patch/patch0002250.jpg,absent_patch/patch0002250.jpg,,,,,,,,,,,,,,,,,,,,-0.040364583,0.041666667,1,0,0,response7disk,24,-0.00390625,0.005208333,1,0,0,center_square,0,23,23,56,1,,,,,,,,,,,,,,,,,,,,,,,
789592,001,2022-11-20_18h49.15.258,Info_measure_main_exp,2022.2.2,Win32,60.2373351,,,,,,,,,,,,,,,,,,masks/mask_002.jpg,,,,,,,,,,,,,,,,,,,,,,,,,,,,,,,,,,,,,,,,,,,0,0,0,1,1,,,,,,,,,,,,,,,,,,,,,,,,,,,,,,,,,,,,,,,,,,,,,,
789592,001,2022-11-20_18h49.15.258,Info_measure_main_exp,2022.2.2,Win32,60.2373351,,,,,,,,,,,,,,,,,,masks/mask_004.jpg,,,,,,,,,,,,,,,,,,,,,,,,,,,,,,,,,,,,,,,,,,,0,1,1,3,1,,,,,,,,,,,,,,,,,,,,,,,,,,,,,,,,,,,,,,,,,,,,,,
789592,001,2022-11-20_18h49.15.258,Info_measure_main_exp,2022.2.2,Win32,60.2373351,,,,,,,,,,,,,,,,,,masks/mask_001.jpg,,,,,,,,,,,,,,,,,,,,,,,,,,,,,,,,,,,,,,,,,,,0,2,2,0,1,,,,,,,,,,,,,,,,,,,,,,,,,,,,,,,,,,,,,,,,,,,,,,
789592,001,2022-11-20_18h49.15.258,Info_measure_main_exp,2022.2.2,Win32,60.2373351,,,,,,,,,,,,,,,,,,masks/mask_003.jpg,,,,,,,,,,,,,,,,,,,,,,,,,,,,,,,,,,,,,,,,,,,0,3,3,2,1,,,,,,,,,,,,,,,,,,,,,,,,,,,,,,,,,,,,,,,,,,,,,,
789592,001,2022-11-20_18h49.15.258,Info_measure_main_exp,2022.2.2,Win32,60.2373351,,,,,,,,,,,,,,,,,,masks/mask_005.jpg,,,,,,,,,,,,,,,,,,,,,,,,,,,,,,,,,,,,,,,,,,,0,4,4,4,1,,,,,,,,,,,,,,,,,,,,,,,,,,,,,,,,,,,,,,,,,,,,,,
789592,001,2022-11-20_18h49.15.258,Info_measure_main_exp,2022.2.2,Win32,60.2373351,,,,,,,,,,,,,,,,,,masks/mask_001.jpg,,,,,,,,,,,,,,,,,,,,,,,,,,,,,,,,,,,,,,,,,,,,,,,,0,0,0,0,1,,,,,,,,,,,,,,,,,,,,,,,,,,,,,,,,,,,,,,,,,
789592,001,2022-11-20_18h49.15.258,Info_measure_main_exp,2022.2.2,Win32,60.2373351,,,,,,,,,,,,,,,,,,masks/mask_002.jpg,,,,,,,,,,,,,,,,,,,,,,,,,,,,,,,,,,,,,,,,,,,,,,,,0,1,1,1,1,,,,,,,,,,,,,,,,,,,,,,,,,,,,,,,,,,,,,,,,,
789592,001,2022-11-20_18h49.15.258,Info_measure_main_exp,2022.2.2,Win32,60.2373351,,,,,,,,,,,,,,,,,,masks/mask_003.jpg,,,,,,,,,,,,,,,,,,,,,,,,,,,,,,,,,,,,,,,,,,,,,,,,0,2,2,2,1,,,,,,,,,,,,,,,,,,,,,,,,,,,,,,,,,,,,,,,,,
789592,001,2022-11-20_18h49.15.258,Info_measure_main_exp,2022.2.2,Win32,60.2373351,,,,,,,,,,,,,,,,,,masks/mask_005.jpg,,,,,,,,,,,,,,,,,,,,,,,,,,,,,,,,,,,,,,,,,,,,,,,,0,3,3,4,1,,,,,,,,,,,,,,,,,,,,,,,,,,,,,,,,,,,,,,,,,
789592,001,2022-11-20_18h49.15.258,Info_measure_main_exp,2022.2.2,Win32,60.2373351,,,,,,,,,,,,,,,,,,masks/mask_004.jpg,,,,,,,,,,,,,,,,,,,,,,,,,,,,,,,,,,,,,,,,,,,,,,,,0,4,4,3,1,,,,,,,,,,,,,,,,,,,,,,,,,,,,,,,,,,,,,,,,,
789592,001,2022-11-20_18h49.15.258,Info_measure_main_exp,2022.2.2,Win32,60.2373351,,,,,,,,,,,,,,,,,,,,,,,,,,,,,,6,1.1988,1,,,,,,,,,,,,0,131,5,5,2250,2142,absent_patch/patch0002250.jpg,absent_patch/patch0002142.jpg,,,,,,,,,,,,,,,,,,,,0.078125,0.005208333,1,0,0,response1disk,25,-0.010416667,0.00390625,1,0,0,center_square,0,24,24,71,1,,,,,,,,,,,,,,,,,,,,,,,
789592,001,2022-11-20_18h49.15.258,Info_measure_main_exp,2022.2.2,Win32,60.2373351,,,,,,,,,,,,,,,,,,masks/mask_004.jpg,,,,,,,,,,,,,,,,,,,,,,,,,,,,,,,,,,,,,,,,,,,0,0,0,3,1,,,,,,,,,,,,,,,,,,,,,,,,,,,,,,,,,,,,,,,,,,,,,,
789592,001,2022-11-20_18h49.15.258,Info_measure_main_exp,2022.2.2,Win32,60.2373351,,,,,,,,,,,,,,,,,,masks/mask_005.jpg,,,,,,,,,,,,,,,,,,,,,,,,,,,,,,,,,,,,,,,,,,,0,1,1,4,1,,,,,,,,,,,,,,,,,,,,,,,,,,,,,,,,,,,,,,,,,,,,,,
789592,001,2022-11-20_18h49.15.258,Info_measure_main_exp,2022.2.2,Win32,60.2373351,,,,,,,,,,,,,,,,,,masks/mask_003.jpg,,,,,,,,,,,,,,,,,,,,,,,,,,,,,,,,,,,,,,,,,,,0,2,2,2,1,,,,,,,,,,,,,,,,,,,,,,,,,,,,,,,,,,,,,,,,,,,,,,
789592,001,2022-11-20_18h49.15.258,Info_measure_main_exp,2022.2.2,Win32,60.2373351,,,,,,,,,,,,,,,,,,masks/mask_002.jpg,,,,,,,,,,,,,,,,,,,,,,,,,,,,,,,,,,,,,,,,,,,0,3,3,1,1,,,,,,,,,,,,,,,,,,,,,,,,,,,,,,,,,,,,,,,,,,,,,,
789592,001,2022-11-20_18h49.15.258,Info_measure_main_exp,2022.2.2,Win32,60.2373351,,,,,,,,,,,,,,,,,,masks/mask_001.jpg,,,,,,,,,,,,,,,,,,,,,,,,,,,,,,,,,,,,,,,,,,,0,4,4,0,1,,,,,,,,,,,,,,,,,,,,,,,,,,,,,,,,,,,,,,,,,,,,,,
789592,001,2022-11-20_18h49.15.258,Info_measure_main_exp,2022.2.2,Win32,60.2373351,,,,,,,,,,,,,,,,,,masks/mask_001.jpg,,,,,,,,,,,,,,,,,,,,,,,,,,,,,,,,,,,,,,,,,,,,,,,,0,0,0,0,1,,,,,,,,,,,,,,,,,,,,,,,,,,,,,,,,,,,,,,,,,
789592,001,2022-11-20_18h49.15.258,Info_measure_main_exp,2022.2.2,Win32,60.2373351,,,,,,,,,,,,,,,,,,masks/mask_005.jpg,,,,,,,,,,,,,,,,,,,,,,,,,,,,,,,,,,,,,,,,,,,,,,,,0,1,1,4,1,,,,,,,,,,,,,,,,,,,,,,,,,,,,,,,,,,,,,,,,,
789592,001,2022-11-20_18h49.15.258,Info_measure_main_exp,2022.2.2,Win32,60.2373351,,,,,,,,,,,,,,,,,,masks/mask_004.jpg,,,,,,,,,,,,,,,,,,,,,,,,,,,,,,,,,,,,,,,,,,,,,,,,0,2,2,3,1,,,,,,,,,,,,,,,,,,,,,,,,,,,,,,,,,,,,,,,,,
789592,001,2022-11-20_18h49.15.258,Info_measure_main_exp,2022.2.2,Win32,60.2373351,,,,,,,,,,,,,,,,,,masks/mask_003.jpg,,,,,,,,,,,,,,,,,,,,,,,,,,,,,,,,,,,,,,,,,,,,,,,,0,3,3,2,1,,,,,,,,,,,,,,,,,,,,,,,,,,,,,,,,,,,,,,,,,
789592,001,2022-11-20_18h49.15.258,Info_measure_main_exp,2022.2.2,Win32,60.2373351,,,,,,,,,,,,,,,,,,masks/mask_002.jpg,,,,,,,,,,,,,,,,,,,,,,,,,,,,,,,,,,,,,,,,,,,,,,,,0,4,4,1,1,,,,,,,,,,,,,,,,,,,,,,,,,,,,,,,,,,,,,,,,,
789592,001,2022-11-20_18h49.15.258,Info_measure_main_exp,2022.2.2,Win32,60.2373351,,,,,,,,,,,,,,,,,,,,,,,,,,,,,,7,0.7508,1,,,,,,,,,,,,0,131,5,5,1950,2298,absent_patch/patch0001950.jpg,absent_patch/patch0002298.jpg,,,,,,,,,,,,,,,,,,,,0.020833333,0.0546875,1,0,0,response1disk,26,0.005208333,-0.009114583,1,0,0,center_square,0,25,25,18,1,,,,,,,,,,,,,,,,,,,,,,,
789592,001,2022-11-20_18h49.15.258,Info_measure_main_exp,2022.2.2,Win32,60.2373351,,,,,,,,,,,,,,,,,,masks/mask_001.jpg,,,,,,,,,,,,,,,,,,,,,,,,,,,,,,,,,,,,,,,,,,,0,0,0,0,1,,,,,,,,,,,,,,,,,,,,,,,,,,,,,,,,,,,,,,,,,,,,,,
789592,001,2022-11-20_18h49.15.258,Info_measure_main_exp,2022.2.2,Win32,60.2373351,,,,,,,,,,,,,,,,,,masks/mask_004.jpg,,,,,,,,,,,,,,,,,,,,,,,,,,,,,,,,,,,,,,,,,,,0,1,1,3,1,,,,,,,,,,,,,,,,,,,,,,,,,,,,,,,,,,,,,,,,,,,,,,
789592,001,2022-11-20_18h49.15.258,Info_measure_main_exp,2022.2.2,Win32,60.2373351,,,,,,,,,,,,,,,,,,masks/mask_002.jpg,,,,,,,,,,,,,,,,,,,,,,,,,,,,,,,,,,,,,,,,,,,0,2,2,1,1,,,,,,,,,,,,,,,,,,,,,,,,,,,,,,,,,,,,,,,,,,,,,,
789592,001,2022-11-20_18h49.15.258,Info_measure_main_exp,2022.2.2,Win32,60.2373351,,,,,,,,,,,,,,,,,,masks/mask_005.jpg,,,,,,,,,,,,,,,,,,,,,,,,,,,,,,,,,,,,,,,,,,,0,3,3,4,1,,,,,,,,,,,,,,,,,,,,,,,,,,,,,,,,,,,,,,,,,,,,,,
789592,001,2022-11-20_18h49.15.258,Info_measure_main_exp,2022.2.2,Win32,60.2373351,,,,,,,,,,,,,,,,,,masks/mask_003.jpg,,,,,,,,,,,,,,,,,,,,,,,,,,,,,,,,,,,,,,,,,,,0,4,4,2,1,,,,,,,,,,,,,,,,,,,,,,,,,,,,,,,,,,,,,,,,,,,,,,
789592,001,2022-11-20_18h49.15.258,Info_measure_main_exp,2022.2.2,Win32,60.2373351,,,,,,,,,,,,,,,,,,masks/mask_002.jpg,,,,,,,,,,,,,,,,,,,,,,,,,,,,,,,,,,,,,,,,,,,,,,,,0,0,0,1,1,,,,,,,,,,,,,,,,,,,,,,,,,,,,,,,,,,,,,,,,,
789592,001,2022-11-20_18h49.15.258,Info_measure_main_exp,2022.2.2,Win32,60.2373351,,,,,,,,,,,,,,,,,,masks/mask_004.jpg,,,,,,,,,,,,,,,,,,,,,,,,,,,,,,,,,,,,,,,,,,,,,,,,0,1,1,3,1,,,,,,,,,,,,,,,,,,,,,,,,,,,,,,,,,,,,,,,,,
789592,001,2022-11-20_18h49.15.258,Info_measure_main_exp,2022.2.2,Win32,60.2373351,,,,,,,,,,,,,,,,,,masks/mask_003.jpg,,,,,,,,,,,,,,,,,,,,,,,,,,,,,,,,,,,,,,,,,,,,,,,,0,2,2,2,1,,,,,,,,,,,,,,,,,,,,,,,,,,,,,,,,,,,,,,,,,
789592,001,2022-11-20_18h49.15.258,Info_measure_main_exp,2022.2.2,Win32,60.2373351,,,,,,,,,,,,,,,,,,masks/mask_005.jpg,,,,,,,,,,,,,,,,,,,,,,,,,,,,,,,,,,,,,,,,,,,,,,,,0,3,3,4,1,,,,,,,,,,,,,,,,,,,,,,,,,,,,,,,,,,,,,,,,,
789592,001,2022-11-20_18h49.15.258,Info_measure_main_exp,2022.2.2,Win32,60.2373351,,,,,,,,,,,,,,,,,,masks/mask_001.jpg,,,,,,,,,,,,,,,,,,,,,,,,,,,,,,,,,,,,,,,,,,,,,,,,0,4,4,0,1,,,,,,,,,,,,,,,,,,,,,,,,,,,,,,,,,,,,,,,,,
789592,001,2022-11-20_18h49.15.258,Info_measure_main_exp,2022.2.2,Win32,60.2373351,,,,,,,,,,,,,,,,,,,,,,,,,,,,,,7,0.5053,1,,,,,,,,,,,,0,131,5,5,2274,2082,absent_patch/patch0002274.jpg,absent_patch/patch0002082.jpg,,,,,,,,,,,,,,,,,,,,0.036458333,0.057291667,1,0,0,response1disk,27,-0.001302083,-0.002604167,1,0,0,center_square,0,26,26,100,1,,,,,,,,,,,,,,,,,,,,,,,
789592,001,2022-11-20_18h49.15.258,Info_measure_main_exp,2022.2.2,Win32,60.2373351,,,,,,,,,,,,,,,,,,masks/mask_002.jpg,,,,,,,,,,,,,,,,,,,,,,,,,,,,,,,,,,,,,,,,,,,0,0,0,1,1,,,,,,,,,,,,,,,,,,,,,,,,,,,,,,,,,,,,,,,,,,,,,,
789592,001,2022-11-20_18h49.15.258,Info_measure_main_exp,2022.2.2,Win32,60.2373351,,,,,,,,,,,,,,,,,,masks/mask_003.jpg,,,,,,,,,,,,,,,,,,,,,,,,,,,,,,,,,,,,,,,,,,,0,1,1,2,1,,,,,,,,,,,,,,,,,,,,,,,,,,,,,,,,,,,,,,,,,,,,,,
789592,001,2022-11-20_18h49.15.258,Info_measure_main_exp,2022.2.2,Win32,60.2373351,,,,,,,,,,,,,,,,,,masks/mask_005.jpg,,,,,,,,,,,,,,,,,,,,,,,,,,,,,,,,,,,,,,,,,,,0,2,2,4,1,,,,,,,,,,,,,,,,,,,,,,,,,,,,,,,,,,,,,,,,,,,,,,
789592,001,2022-11-20_18h49.15.258,Info_measure_main_exp,2022.2.2,Win32,60.2373351,,,,,,,,,,,,,,,,,,masks/mask_001.jpg,,,,,,,,,,,,,,,,,,,,,,,,,,,,,,,,,,,,,,,,,,,0,3,3,0,1,,,,,,,,,,,,,,,,,,,,,,,,,,,,,,,,,,,,,,,,,,,,,,
789592,001,2022-11-20_18h49.15.258,Info_measure_main_exp,2022.2.2,Win32,60.2373351,,,,,,,,,,,,,,,,,,masks/mask_004.jpg,,,,,,,,,,,,,,,,,,,,,,,,,,,,,,,,,,,,,,,,,,,0,4,4,3,1,,,,,,,,,,,,,,,,,,,,,,,,,,,,,,,,,,,,,,,,,,,,,,
789592,001,2022-11-20_18h49.15.258,Info_measure_main_exp,2022.2.2,Win32,60.2373351,,,,,,,,,,,,,,,,,,masks/mask_005.jpg,,,,,,,,,,,,,,,,,,,,,,,,,,,,,,,,,,,,,,,,,,,,,,,,0,0,0,4,1,,,,,,,,,,,,,,,,,,,,,,,,,,,,,,,,,,,,,,,,,
789592,001,2022-11-20_18h49.15.258,Info_measure_main_exp,2022.2.2,Win32,60.2373351,,,,,,,,,,,,,,,,,,masks/mask_003.jpg,,,,,,,,,,,,,,,,,,,,,,,,,,,,,,,,,,,,,,,,,,,,,,,,0,1,1,2,1,,,,,,,,,,,,,,,,,,,,,,,,,,,,,,,,,,,,,,,,,
789592,001,2022-11-20_18h49.15.258,Info_measure_main_exp,2022.2.2,Win32,60.2373351,,,,,,,,,,,,,,,,,,masks/mask_001.jpg,,,,,,,,,,,,,,,,,,,,,,,,,,,,,,,,,,,,,,,,,,,,,,,,0,2,2,0,1,,,,,,,,,,,,,,,,,,,,,,,,,,,,,,,,,,,,,,,,,
789592,001,2022-11-20_18h49.15.258,Info_measure_main_exp,2022.2.2,Win32,60.2373351,,,,,,,,,,,,,,,,,,masks/mask_004.jpg,,,,,,,,,,,,,,,,,,,,,,,,,,,,,,,,,,,,,,,,,,,,,,,,0,3,3,3,1,,,,,,,,,,,,,,,,,,,,,,,,,,,,,,,,,,,,,,,,,
789592,001,2022-11-20_18h49.15.258,Info_measure_main_exp,2022.2.2,Win32,60.2373351,,,,,,,,,,,,,,,,,,masks/mask_002.jpg,,,,,,,,,,,,,,,,,,,,,,,,,,,,,,,,,,,,,,,,,,,,,,,,0,4,4,1,1,,,,,,,,,,,,,,,,,,,,,,,,,,,,,,,,,,,,,,,,,
789592,001,2022-11-20_18h49.15.258,Info_measure_main_exp,2022.2.2,Win32,60.2373351,,,,,,,,,,,,,,,,,,,,,,,,,,,,,,0,0.5492,1,,,,,,,,,,,,0,131,5,5,2154,2154,absent_patch/patch0002154.jpg,absent_patch/patch0002154.jpg,,,,,,,,,,,,,,,,,,,,-0.018229167,0.076822917,1,0,0,response7disk,28,0.00390625,-0.01171875,1,0,0,center_square,0,27,27,89,1,,,,,,,,,,,,,,,,,,,,,,,
789592,001,2022-11-20_18h49.15.258,Info_measure_main_exp,2022.2.2,Win32,60.2373351,,,,,,,,,,,,,,,,,,masks/mask_004.jpg,,,,,,,,,,,,,,,,,,,,,,,,,,,,,,,,,,,,,,,,,,,0,0,0,3,1,,,,,,,,,,,,,,,,,,,,,,,,,,,,,,,,,,,,,,,,,,,,,,
789592,001,2022-11-20_18h49.15.258,Info_measure_main_exp,2022.2.2,Win32,60.2373351,,,,,,,,,,,,,,,,,,masks/mask_001.jpg,,,,,,,,,,,,,,,,,,,,,,,,,,,,,,,,,,,,,,,,,,,0,1,1,0,1,,,,,,,,,,,,,,,,,,,,,,,,,,,,,,,,,,,,,,,,,,,,,,
789592,001,2022-11-20_18h49.15.258,Info_measure_main_exp,2022.2.2,Win32,60.2373351,,,,,,,,,,,,,,,,,,masks/mask_002.jpg,,,,,,,,,,,,,,,,,,,,,,,,,,,,,,,,,,,,,,,,,,,0,2,2,1,1,,,,,,,,,,,,,,,,,,,,,,,,,,,,,,,,,,,,,,,,,,,,,,
789592,001,2022-11-20_18h49.15.258,Info_measure_main_exp,2022.2.2,Win32,60.2373351,,,,,,,,,,,,,,,,,,masks/mask_003.jpg,,,,,,,,,,,,,,,,,,,,,,,,,,,,,,,,,,,,,,,,,,,0,3,3,2,1,,,,,,,,,,,,,,,,,,,,,,,,,,,,,,,,,,,,,,,,,,,,,,
789592,001,2022-11-20_18h49.15.258,Info_measure_main_exp,2022.2.2,Win32,60.2373351,,,,,,,,,,,,,,,,,,masks/mask_005.jpg,,,,,,,,,,,,,,,,,,,,,,,,,,,,,,,,,,,,,,,,,,,0,4,4,4,1,,,,,,,,,,,,,,,,,,,,,,,,,,,,,,,,,,,,,,,,,,,,,,
789592,001,2022-11-20_18h49.15.258,Info_measure_main_exp,2022.2.2,Win32,60.2373351,,,,,,,,,,,,,,,,,,masks/mask_005.jpg,,,,,,,,,,,,,,,,,,,,,,,,,,,,,,,,,,,,,,,,,,,,,,,,0,0,0,4,1,,,,,,,,,,,,,,,,,,,,,,,,,,,,,,,,,,,,,,,,,
789592,001,2022-11-20_18h49.15.258,Info_measure_main_exp,2022.2.2,Win32,60.2373351,,,,,,,,,,,,,,,,,,masks/mask_003.jpg,,,,,,,,,,,,,,,,,,,,,,,,,,,,,,,,,,,,,,,,,,,,,,,,0,1,1,2,1,,,,,,,,,,,,,,,,,,,,,,,,,,,,,,,,,,,,,,,,,
789592,001,2022-11-20_18h49.15.258,Info_measure_main_exp,2022.2.2,Win32,60.2373351,,,,,,,,,,,,,,,,,,masks/mask_002.jpg,,,,,,,,,,,,,,,,,,,,,,,,,,,,,,,,,,,,,,,,,,,,,,,,0,2,2,1,1,,,,,,,,,,,,,,,,,,,,,,,,,,,,,,,,,,,,,,,,,
789592,001,2022-11-20_18h49.15.258,Info_measure_main_exp,2022.2.2,Win32,60.2373351,,,,,,,,,,,,,,,,,,masks/mask_004.jpg,,,,,,,,,,,,,,,,,,,,,,,,,,,,,,,,,,,,,,,,,,,,,,,,0,3,3,3,1,,,,,,,,,,,,,,,,,,,,,,,,,,,,,,,,,,,,,,,,,
789592,001,2022-11-20_18h49.15.258,Info_measure_main_exp,2022.2.2,Win32,60.2373351,,,,,,,,,,,,,,,,,,masks/mask_001.jpg,,,,,,,,,,,,,,,,,,,,,,,,,,,,,,,,,,,,,,,,,,,,,,,,0,4,4,0,1,,,,,,,,,,,,,,,,,,,,,,,,,,,,,,,,,,,,,,,,,
789592,001,2022-11-20_18h49.15.258,Info_measure_main_exp,2022.2.2,Win32,60.2373351,,,,,,,,,,,,,,,,,,,,,,,,,,,,,,7,0.5682,1,,,,,,,,,,,,0,131,5,5,2154,2238,absent_patch/patch0002154.jpg,absent_patch/patch0002238.jpg,,,,,,,,,,,,,,,,,,,,0.059895833,0.143229167,1,0,0,response1disk,29,0.009114583,0,1,0,0,center_square,0,28,28,21,1,,,,,,,,,,,,,,,,,,,,,,,
789592,001,2022-11-20_18h49.15.258,Info_measure_main_exp,2022.2.2,Win32,60.2373351,,,,,,,,,,,,,,,,,,masks/mask_003.jpg,,,,,,,,,,,,,,,,,,,,,,,,,,,,,,,,,,,,,,,,,,,0,0,0,2,1,,,,,,,,,,,,,,,,,,,,,,,,,,,,,,,,,,,,,,,,,,,,,,
789592,001,2022-11-20_18h49.15.258,Info_measure_main_exp,2022.2.2,Win32,60.2373351,,,,,,,,,,,,,,,,,,masks/mask_001.jpg,,,,,,,,,,,,,,,,,,,,,,,,,,,,,,,,,,,,,,,,,,,0,1,1,0,1,,,,,,,,,,,,,,,,,,,,,,,,,,,,,,,,,,,,,,,,,,,,,,
789592,001,2022-11-20_18h49.15.258,Info_measure_main_exp,2022.2.2,Win32,60.2373351,,,,,,,,,,,,,,,,,,masks/mask_005.jpg,,,,,,,,,,,,,,,,,,,,,,,,,,,,,,,,,,,,,,,,,,,0,2,2,4,1,,,,,,,,,,,,,,,,,,,,,,,,,,,,,,,,,,,,,,,,,,,,,,
789592,001,2022-11-20_18h49.15.258,Info_measure_main_exp,2022.2.2,Win32,60.2373351,,,,,,,,,,,,,,,,,,masks/mask_004.jpg,,,,,,,,,,,,,,,,,,,,,,,,,,,,,,,,,,,,,,,,,,,0,3,3,3,1,,,,,,,,,,,,,,,,,,,,,,,,,,,,,,,,,,,,,,,,,,,,,,
789592,001,2022-11-20_18h49.15.258,Info_measure_main_exp,2022.2.2,Win32,60.2373351,,,,,,,,,,,,,,,,,,masks/mask_002.jpg,,,,,,,,,,,,,,,,,,,,,,,,,,,,,,,,,,,,,,,,,,,0,4,4,1,1,,,,,,,,,,,,,,,,,,,,,,,,,,,,,,,,,,,,,,,,,,,,,,
789592,001,2022-11-20_18h49.15.258,Info_measure_main_exp,2022.2.2,Win32,60.2373351,,,,,,,,,,,,,,,,,,masks/mask_001.jpg,,,,,,,,,,,,,,,,,,,,,,,,,,,,,,,,,,,,,,,,,,,,,,,,0,0,0,0,1,,,,,,,,,,,,,,,,,,,,,,,,,,,,,,,,,,,,,,,,,
789592,001,2022-11-20_18h49.15.258,Info_measure_main_exp,2022.2.2,Win32,60.2373351,,,,,,,,,,,,,,,,,,masks/mask_004.jpg,,,,,,,,,,,,,,,,,,,,,,,,,,,,,,,,,,,,,,,,,,,,,,,,0,1,1,3,1,,,,,,,,,,,,,,,,,,,,,,,,,,,,,,,,,,,,,,,,,
789592,001,2022-11-20_18h49.15.258,Info_measure_main_exp,2022.2.2,Win32,60.2373351,,,,,,,,,,,,,,,,,,masks/mask_005.jpg,,,,,,,,,,,,,,,,,,,,,,,,,,,,,,,,,,,,,,,,,,,,,,,,0,2,2,4,1,,,,,,,,,,,,,,,,,,,,,,,,,,,,,,,,,,,,,,,,,
789592,001,2022-11-20_18h49.15.258,Info_measure_main_exp,2022.2.2,Win32,60.2373351,,,,,,,,,,,,,,,,,,masks/mask_002.jpg,,,,,,,,,,,,,,,,,,,,,,,,,,,,,,,,,,,,,,,,,,,,,,,,0,3,3,1,1,,,,,,,,,,,,,,,,,,,,,,,,,,,,,,,,,,,,,,,,,
789592,001,2022-11-20_18h49.15.258,Info_measure_main_exp,2022.2.2,Win32,60.2373351,,,,,,,,,,,,,,,,,,masks/mask_003.jpg,,,,,,,,,,,,,,,,,,,,,,,,,,,,,,,,,,,,,,,,,,,,,,,,0,4,4,2,1,,,,,,,,,,,,,,,,,,,,,,,,,,,,,,,,,,,,,,,,,
789592,001,2022-11-20_18h49.15.258,Info_measure_main_exp,2022.2.2,Win32,60.2373351,,,,,,,,,,,,,,,,,,,,,,,,,,,,,,7,0.5009,1,,,,,,,,,,,,0,131,5,5,2082,2250,absent_patch/patch0002082.jpg,absent_patch/patch0002250.jpg,,,,,,,,,,,,,,,,,,,,0.024739583,0.059895833,1,0,0,response1disk,30,0.00390625,0,1,0,0,center_square,0,29,29,3,1,,,,,,,,,,,,,,,,,,,,,,,
789592,001,2022-11-20_18h49.15.258,Info_measure_main_exp,2022.2.2,Win32,60.2373351,,,,,,,,,,,,,,,,,,masks/mask_004.jpg,,,,,,,,,,,,,,,,,,,,,,,,,,,,,,,,,,,,,,,,,,,0,0,0,3,1,,,,,,,,,,,,,,,,,,,,,,,,,,,,,,,,,,,,,,,,,,,,,,
789592,001,2022-11-20_18h49.15.258,Info_measure_main_exp,2022.2.2,Win32,60.2373351,,,,,,,,,,,,,,,,,,masks/mask_001.jpg,,,,,,,,,,,,,,,,,,,,,,,,,,,,,,,,,,,,,,,,,,,0,1,1,0,1,,,,,,,,,,,,,,,,,,,,,,,,,,,,,,,,,,,,,,,,,,,,,,
789592,001,2022-11-20_18h49.15.258,Info_measure_main_exp,2022.2.2,Win32,60.2373351,,,,,,,,,,,,,,,,,,masks/mask_005.jpg,,,,,,,,,,,,,,,,,,,,,,,,,,,,,,,,,,,,,,,,,,,0,2,2,4,1,,,,,,,,,,,,,,,,,,,,,,,,,,,,,,,,,,,,,,,,,,,,,,
789592,001,2022-11-20_18h49.15.258,Info_measure_main_exp,2022.2.2,Win32,60.2373351,,,,,,,,,,,,,,,,,,masks/mask_002.jpg,,,,,,,,,,,,,,,,,,,,,,,,,,,,,,,,,,,,,,,,,,,0,3,3,1,1,,,,,,,,,,,,,,,,,,,,,,,,,,,,,,,,,,,,,,,,,,,,,,
789592,001,2022-11-20_18h49.15.258,Info_measure_main_exp,2022.2.2,Win32,60.2373351,,,,,,,,,,,,,,,,,,masks/mask_003.jpg,,,,,,,,,,,,,,,,,,,,,,,,,,,,,,,,,,,,,,,,,,,0,4,4,2,1,,,,,,,,,,,,,,,,,,,,,,,,,,,,,,,,,,,,,,,,,,,,,,
789592,001,2022-11-20_18h49.15.258,Info_measure_main_exp,2022.2.2,Win32,60.2373351,,,,,,,,,,,,,,,,,,masks/mask_002.jpg,,,,,,,,,,,,,,,,,,,,,,,,,,,,,,,,,,,,,,,,,,,,,,,,0,0,0,1,1,,,,,,,,,,,,,,,,,,,,,,,,,,,,,,,,,,,,,,,,,
789592,001,2022-11-20_18h49.15.258,Info_measure_main_exp,2022.2.2,Win32,60.2373351,,,,,,,,,,,,,,,,,,masks/mask_004.jpg,,,,,,,,,,,,,,,,,,,,,,,,,,,,,,,,,,,,,,,,,,,,,,,,0,1,1,3,1,,,,,,,,,,,,,,,,,,,,,,,,,,,,,,,,,,,,,,,,,
789592,001,2022-11-20_18h49.15.258,Info_measure_main_exp,2022.2.2,Win32,60.2373351,,,,,,,,,,,,,,,,,,masks/mask_005.jpg,,,,,,,,,,,,,,,,,,,,,,,,,,,,,,,,,,,,,,,,,,,,,,,,0,2,2,4,1,,,,,,,,,,,,,,,,,,,,,,,,,,,,,,,,,,,,,,,,,
789592,001,2022-11-20_18h49.15.258,Info_measure_main_exp,2022.2.2,Win32,60.2373351,,,,,,,,,,,,,,,,,,masks/mask_003.jpg,,,,,,,,,,,,,,,,,,,,,,,,,,,,,,,,,,,,,,,,,,,,,,,,0,3,3,2,1,,,,,,,,,,,,,,,,,,,,,,,,,,,,,,,,,,,,,,,,,
789592,001,2022-11-20_18h49.15.258,Info_measure_main_exp,2022.2.2,Win32,60.2373351,,,,,,,,,,,,,,,,,,masks/mask_001.jpg,,,,,,,,,,,,,,,,,,,,,,,,,,,,,,,,,,,,,,,,,,,,,,,,0,4,4,0,1,,,,,,,,,,,,,,,,,,,,,,,,,,,,,,,,,,,,,,,,,
789592,001,2022-11-20_18h49.15.258,Info_measure_main_exp,2022.2.2,Win32,60.2373351,,,,,,,,,,,,,,,,,,,,,,,,,,,,,,7,0.9586,1,,,,,,,,,,,,1,131,5,5,1,2214,present_patch/cong_131_5_a.jpg,absent_patch/patch0002214.jpg,,,,,,,,,,,,,,,,,,,,0.032552083,0.0703125,1,0,0,response1disk,31,0.005208333,-0.005208333,1,0,0,center_square,0,30,30,4,1,,,,,,,,,,,,,,,,,,,,,,,
789592,001,2022-11-20_18h49.15.258,Info_measure_main_exp,2022.2.2,Win32,60.2373351,,,,,,,,,,,,,,,,,,masks/mask_003.jpg,,,,,,,,,,,,,,,,,,,,,,,,,,,,,,,,,,,,,,,,,,,0,0,0,2,1,,,,,,,,,,,,,,,,,,,,,,,,,,,,,,,,,,,,,,,,,,,,,,
789592,001,2022-11-20_18h49.15.258,Info_measure_main_exp,2022.2.2,Win32,60.2373351,,,,,,,,,,,,,,,,,,masks/mask_005.jpg,,,,,,,,,,,,,,,,,,,,,,,,,,,,,,,,,,,,,,,,,,,0,1,1,4,1,,,,,,,,,,,,,,,,,,,,,,,,,,,,,,,,,,,,,,,,,,,,,,
789592,001,2022-11-20_18h49.15.258,Info_measure_main_exp,2022.2.2,Win32,60.2373351,,,,,,,,,,,,,,,,,,masks/mask_002.jpg,,,,,,,,,,,,,,,,,,,,,,,,,,,,,,,,,,,,,,,,,,,0,2,2,1,1,,,,,,,,,,,,,,,,,,,,,,,,,,,,,,,,,,,,,,,,,,,,,,
789592,001,2022-11-20_18h49.15.258,Info_measure_main_exp,2022.2.2,Win32,60.2373351,,,,,,,,,,,,,,,,,,masks/mask_001.jpg,,,,,,,,,,,,,,,,,,,,,,,,,,,,,,,,,,,,,,,,,,,0,3,3,0,1,,,,,,,,,,,,,,,,,,,,,,,,,,,,,,,,,,,,,,,,,,,,,,
789592,001,2022-11-20_18h49.15.258,Info_measure_main_exp,2022.2.2,Win32,60.2373351,,,,,,,,,,,,,,,,,,masks/mask_004.jpg,,,,,,,,,,,,,,,,,,,,,,,,,,,,,,,,,,,,,,,,,,,0,4,4,3,1,,,,,,,,,,,,,,,,,,,,,,,,,,,,,,,,,,,,,,,,,,,,,,
789592,001,2022-11-20_18h49.15.258,Info_measure_main_exp,2022.2.2,Win32,60.2373351,,,,,,,,,,,,,,,,,,masks/mask_003.jpg,,,,,,,,,,,,,,,,,,,,,,,,,,,,,,,,,,,,,,,,,,,,,,,,0,0,0,2,1,,,,,,,,,,,,,,,,,,,,,,,,,,,,,,,,,,,,,,,,,
789592,001,2022-11-20_18h49.15.258,Info_measure_main_exp,2022.2.2,Win32,60.2373351,,,,,,,,,,,,,,,,,,masks/mask_002.jpg,,,,,,,,,,,,,,,,,,,,,,,,,,,,,,,,,,,,,,,,,,,,,,,,0,1,1,1,1,,,,,,,,,,,,,,,,,,,,,,,,,,,,,,,,,,,,,,,,,
789592,001,2022-11-20_18h49.15.258,Info_measure_main_exp,2022.2.2,Win32,60.2373351,,,,,,,,,,,,,,,,,,masks/mask_001.jpg,,,,,,,,,,,,,,,,,,,,,,,,,,,,,,,,,,,,,,,,,,,,,,,,0,2,2,0,1,,,,,,,,,,,,,,,,,,,,,,,,,,,,,,,,,,,,,,,,,
789592,001,2022-11-20_18h49.15.258,Info_measure_main_exp,2022.2.2,Win32,60.2373351,,,,,,,,,,,,,,,,,,masks/mask_004.jpg,,,,,,,,,,,,,,,,,,,,,,,,,,,,,,,,,,,,,,,,,,,,,,,,0,3,3,3,1,,,,,,,,,,,,,,,,,,,,,,,,,,,,,,,,,,,,,,,,,
789592,001,2022-11-20_18h49.15.258,Info_measure_main_exp,2022.2.2,Win32,60.2373351,,,,,,,,,,,,,,,,,,masks/mask_005.jpg,,,,,,,,,,,,,,,,,,,,,,,,,,,,,,,,,,,,,,,,,,,,,,,,0,4,4,4,1,,,,,,,,,,,,,,,,,,,,,,,,,,,,,,,,,,,,,,,,,
789592,001,2022-11-20_18h49.15.258,Info_measure_main_exp,2022.2.2,Win32,60.2373351,,,,,,,,,,,,,,,,,,,,,,,,,,,,,,7,0.4835,1,,,,,,,,,,,,0,131,5,5,2274,2190,absent_patch/patch0002274.jpg,absent_patch/patch0002190.jpg,,,,,,,,,,,,,,,,,,,,0.067708333,0.139322917,1,0,0,response1disk,32,0.009114583,0.00390625,1,0,0,center_square,0,31,31,116,1,,,,,,,,,,,,,,,,,,,,,,,
789592,001,2022-11-20_18h49.15.258,Info_measure_main_exp,2022.2.2,Win32,60.2373351,,,,,,,,,,,,,,,,,,masks/mask_005.jpg,,,,,,,,,,,,,,,,,,,,,,,,,,,,,,,,,,,,,,,,,,,0,0,0,4,1,,,,,,,,,,,,,,,,,,,,,,,,,,,,,,,,,,,,,,,,,,,,,,
789592,001,2022-11-20_18h49.15.258,Info_measure_main_exp,2022.2.2,Win32,60.2373351,,,,,,,,,,,,,,,,,,masks/mask_004.jpg,,,,,,,,,,,,,,,,,,,,,,,,,,,,,,,,,,,,,,,,,,,0,1,1,3,1,,,,,,,,,,,,,,,,,,,,,,,,,,,,,,,,,,,,,,,,,,,,,,
789592,001,2022-11-20_18h49.15.258,Info_measure_main_exp,2022.2.2,Win32,60.2373351,,,,,,,,,,,,,,,,,,masks/mask_003.jpg,,,,,,,,,,,,,,,,,,,,,,,,,,,,,,,,,,,,,,,,,,,0,2,2,2,1,,,,,,,,,,,,,,,,,,,,,,,,,,,,,,,,,,,,,,,,,,,,,,
789592,001,2022-11-20_18h49.15.258,Info_measure_main_exp,2022.2.2,Win32,60.2373351,,,,,,,,,,,,,,,,,,masks/mask_002.jpg,,,,,,,,,,,,,,,,,,,,,,,,,,,,,,,,,,,,,,,,,,,0,3,3,1,1,,,,,,,,,,,,,,,,,,,,,,,,,,,,,,,,,,,,,,,,,,,,,,
789592,001,2022-11-20_18h49.15.258,Info_measure_main_exp,2022.2.2,Win32,60.2373351,,,,,,,,,,,,,,,,,,masks/mask_001.jpg,,,,,,,,,,,,,,,,,,,,,,,,,,,,,,,,,,,,,,,,,,,0,4,4,0,1,,,,,,,,,,,,,,,,,,,,,,,,,,,,,,,,,,,,,,,,,,,,,,
789592,001,2022-11-20_18h49.15.258,Info_measure_main_exp,2022.2.2,Win32,60.2373351,,,,,,,,,,,,,,,,,,masks/mask_003.jpg,,,,,,,,,,,,,,,,,,,,,,,,,,,,,,,,,,,,,,,,,,,,,,,,0,0,0,2,1,,,,,,,,,,,,,,,,,,,,,,,,,,,,,,,,,,,,,,,,,
789592,001,2022-11-20_18h49.15.258,Info_measure_main_exp,2022.2.2,Win32,60.2373351,,,,,,,,,,,,,,,,,,masks/mask_004.jpg,,,,,,,,,,,,,,,,,,,,,,,,,,,,,,,,,,,,,,,,,,,,,,,,0,1,1,3,1,,,,,,,,,,,,,,,,,,,,,,,,,,,,,,,,,,,,,,,,,
789592,001,2022-11-20_18h49.15.258,Info_measure_main_exp,2022.2.2,Win32,60.2373351,,,,,,,,,,,,,,,,,,masks/mask_005.jpg,,,,,,,,,,,,,,,,,,,,,,,,,,,,,,,,,,,,,,,,,,,,,,,,0,2,2,4,1,,,,,,,,,,,,,,,,,,,,,,,,,,,,,,,,,,,,,,,,,
789592,001,2022-11-20_18h49.15.258,Info_measure_main_exp,2022.2.2,Win32,60.2373351,,,,,,,,,,,,,,,,,,masks/mask_001.jpg,,,,,,,,,,,,,,,,,,,,,,,,,,,,,,,,,,,,,,,,,,,,,,,,0,3,3,0,1,,,,,,,,,,,,,,,,,,,,,,,,,,,,,,,,,,,,,,,,,
789592,001,2022-11-20_18h49.15.258,Info_measure_main_exp,2022.2.2,Win32,60.2373351,,,,,,,,,,,,,,,,,,masks/mask_002.jpg,,,,,,,,,,,,,,,,,,,,,,,,,,,,,,,,,,,,,,,,,,,,,,,,0,4,4,1,1,,,,,,,,,,,,,,,,,,,,,,,,,,,,,,,,,,,,,,,,,
789592,001,2022-11-20_18h49.15.258,Info_measure_main_exp,2022.2.2,Win32,60.2373351,,,,,,,,,,,,,,,,,,,,,,,,,,,,,,5,1.1192,1,,,,,,,,,,,,0,131,5,5,1974,2298,absent_patch/patch0001974.jpg,absent_patch/patch0002298.jpg,,,,,,,,,,,,,,,,,,,,0.110677083,-0.029947917,1,0,0,response3disk,33,-0.00390625,0,1,0,0,center_square,0,32,32,6,1,,,,,,,,,,,,,,,,,,,,,,,
789592,001,2022-11-20_18h49.15.258,Info_measure_main_exp,2022.2.2,Win32,60.2373351,,,,,,,,,,,,,,,,,,masks/mask_002.jpg,,,,,,,,,,,,,,,,,,,,,,,,,,,,,,,,,,,,,,,,,,,0,0,0,1,1,,,,,,,,,,,,,,,,,,,,,,,,,,,,,,,,,,,,,,,,,,,,,,
789592,001,2022-11-20_18h49.15.258,Info_measure_main_exp,2022.2.2,Win32,60.2373351,,,,,,,,,,,,,,,,,,masks/mask_005.jpg,,,,,,,,,,,,,,,,,,,,,,,,,,,,,,,,,,,,,,,,,,,0,1,1,4,1,,,,,,,,,,,,,,,,,,,,,,,,,,,,,,,,,,,,,,,,,,,,,,
789592,001,2022-11-20_18h49.15.258,Info_measure_main_exp,2022.2.2,Win32,60.2373351,,,,,,,,,,,,,,,,,,masks/mask_001.jpg,,,,,,,,,,,,,,,,,,,,,,,,,,,,,,,,,,,,,,,,,,,0,2,2,0,1,,,,,,,,,,,,,,,,,,,,,,,,,,,,,,,,,,,,,,,,,,,,,,
789592,001,2022-11-20_18h49.15.258,Info_measure_main_exp,2022.2.2,Win32,60.2373351,,,,,,,,,,,,,,,,,,masks/mask_004.jpg,,,,,,,,,,,,,,,,,,,,,,,,,,,,,,,,,,,,,,,,,,,0,3,3,3,1,,,,,,,,,,,,,,,,,,,,,,,,,,,,,,,,,,,,,,,,,,,,,,
789592,001,2022-11-20_18h49.15.258,Info_measure_main_exp,2022.2.2,Win32,60.2373351,,,,,,,,,,,,,,,,,,masks/mask_003.jpg,,,,,,,,,,,,,,,,,,,,,,,,,,,,,,,,,,,,,,,,,,,0,4,4,2,1,,,,,,,,,,,,,,,,,,,,,,,,,,,,,,,,,,,,,,,,,,,,,,
789592,001,2022-11-20_18h49.15.258,Info_measure_main_exp,2022.2.2,Win32,60.2373351,,,,,,,,,,,,,,,,,,masks/mask_003.jpg,,,,,,,,,,,,,,,,,,,,,,,,,,,,,,,,,,,,,,,,,,,,,,,,0,0,0,2,1,,,,,,,,,,,,,,,,,,,,,,,,,,,,,,,,,,,,,,,,,
789592,001,2022-11-20_18h49.15.258,Info_measure_main_exp,2022.2.2,Win32,60.2373351,,,,,,,,,,,,,,,,,,masks/mask_005.jpg,,,,,,,,,,,,,,,,,,,,,,,,,,,,,,,,,,,,,,,,,,,,,,,,0,1,1,4,1,,,,,,,,,,,,,,,,,,,,,,,,,,,,,,,,,,,,,,,,,
789592,001,2022-11-20_18h49.15.258,Info_measure_main_exp,2022.2.2,Win32,60.2373351,,,,,,,,,,,,,,,,,,masks/mask_002.jpg,,,,,,,,,,,,,,,,,,,,,,,,,,,,,,,,,,,,,,,,,,,,,,,,0,2,2,1,1,,,,,,,,,,,,,,,,,,,,,,,,,,,,,,,,,,,,,,,,,
789592,001,2022-11-20_18h49.15.258,Info_measure_main_exp,2022.2.2,Win32,60.2373351,,,,,,,,,,,,,,,,,,masks/mask_001.jpg,,,,,,,,,,,,,,,,,,,,,,,,,,,,,,,,,,,,,,,,,,,,,,,,0,3,3,0,1,,,,,,,,,,,,,,,,,,,,,,,,,,,,,,,,,,,,,,,,,
789592,001,2022-11-20_18h49.15.258,Info_measure_main_exp,2022.2.2,Win32,60.2373351,,,,,,,,,,,,,,,,,,masks/mask_004.jpg,,,,,,,,,,,,,,,,,,,,,,,,,,,,,,,,,,,,,,,,,,,,,,,,0,4,4,3,1,,,,,,,,,,,,,,,,,,,,,,,,,,,,,,,,,,,,,,,,,
789592,001,2022-11-20_18h49.15.258,Info_measure_main_exp,2022.2.2,Win32,60.2373351,,,,,,,,,,,,,,,,,,,,,,,,,,,,,,7,0.3834,1,,,,,,,,,,,,0,131,5,5,2190,2214,absent_patch/patch0002190.jpg,absent_patch/patch0002214.jpg,,,,,,,,,,,,,,,,,,,,0.033854167,0.057291667,1,0,0,response1disk,34,-0.006510417,0.0078125,1,0,0,center_square,0,33,33,35,1,,,,,,,,,,,,,,,,,,,,,,,
789592,001,2022-11-20_18h49.15.258,Info_measure_main_exp,2022.2.2,Win32,60.2373351,,,,,,,,,,,,,,,,,,masks/mask_004.jpg,,,,,,,,,,,,,,,,,,,,,,,,,,,,,,,,,,,,,,,,,,,0,0,0,3,1,,,,,,,,,,,,,,,,,,,,,,,,,,,,,,,,,,,,,,,,,,,,,,
789592,001,2022-11-20_18h49.15.258,Info_measure_main_exp,2022.2.2,Win32,60.2373351,,,,,,,,,,,,,,,,,,masks/mask_002.jpg,,,,,,,,,,,,,,,,,,,,,,,,,,,,,,,,,,,,,,,,,,,0,1,1,1,1,,,,,,,,,,,,,,,,,,,,,,,,,,,,,,,,,,,,,,,,,,,,,,
789592,001,2022-11-20_18h49.15.258,Info_measure_main_exp,2022.2.2,Win32,60.2373351,,,,,,,,,,,,,,,,,,masks/mask_005.jpg,,,,,,,,,,,,,,,,,,,,,,,,,,,,,,,,,,,,,,,,,,,0,2,2,4,1,,,,,,,,,,,,,,,,,,,,,,,,,,,,,,,,,,,,,,,,,,,,,,
789592,001,2022-11-20_18h49.15.258,Info_measure_main_exp,2022.2.2,Win32,60.2373351,,,,,,,,,,,,,,,,,,masks/mask_003.jpg,,,,,,,,,,,,,,,,,,,,,,,,,,,,,,,,,,,,,,,,,,,0,3,3,2,1,,,,,,,,,,,,,,,,,,,,,,,,,,,,,,,,,,,,,,,,,,,,,,
789592,001,2022-11-20_18h49.15.258,Info_measure_main_exp,2022.2.2,Win32,60.2373351,,,,,,,,,,,,,,,,,,masks/mask_001.jpg,,,,,,,,,,,,,,,,,,,,,,,,,,,,,,,,,,,,,,,,,,,0,4,4,0,1,,,,,,,,,,,,,,,,,,,,,,,,,,,,,,,,,,,,,,,,,,,,,,
789592,001,2022-11-20_18h49.15.258,Info_measure_main_exp,2022.2.2,Win32,60.2373351,,,,,,,,,,,,,,,,,,masks/mask_003.jpg,,,,,,,,,,,,,,,,,,,,,,,,,,,,,,,,,,,,,,,,,,,,,,,,0,0,0,2,1,,,,,,,,,,,,,,,,,,,,,,,,,,,,,,,,,,,,,,,,,
789592,001,2022-11-20_18h49.15.258,Info_measure_main_exp,2022.2.2,Win32,60.2373351,,,,,,,,,,,,,,,,,,masks/mask_002.jpg,,,,,,,,,,,,,,,,,,,,,,,,,,,,,,,,,,,,,,,,,,,,,,,,0,1,1,1,1,,,,,,,,,,,,,,,,,,,,,,,,,,,,,,,,,,,,,,,,,
789592,001,2022-11-20_18h49.15.258,Info_measure_main_exp,2022.2.2,Win32,60.2373351,,,,,,,,,,,,,,,,,,masks/mask_001.jpg,,,,,,,,,,,,,,,,,,,,,,,,,,,,,,,,,,,,,,,,,,,,,,,,0,2,2,0,1,,,,,,,,,,,,,,,,,,,,,,,,,,,,,,,,,,,,,,,,,
789592,001,2022-11-20_18h49.15.258,Info_measure_main_exp,2022.2.2,Win32,60.2373351,,,,,,,,,,,,,,,,,,masks/mask_004.jpg,,,,,,,,,,,,,,,,,,,,,,,,,,,,,,,,,,,,,,,,,,,,,,,,0,3,3,3,1,,,,,,,,,,,,,,,,,,,,,,,,,,,,,,,,,,,,,,,,,
789592,001,2022-11-20_18h49.15.258,Info_measure_main_exp,2022.2.2,Win32,60.2373351,,,,,,,,,,,,,,,,,,masks/mask_005.jpg,,,,,,,,,,,,,,,,,,,,,,,,,,,,,,,,,,,,,,,,,,,,,,,,0,4,4,4,1,,,,,,,,,,,,,,,,,,,,,,,,,,,,,,,,,,,,,,,,,
789592,001,2022-11-20_18h49.15.258,Info_measure_main_exp,2022.2.2,Win32,60.2373351,,,,,,,,,,,,,,,,,,,,,,,,,,,,,,7,0.4791,1,,,,,,,,,,,,0,131,5,5,2190,2238,absent_patch/patch0002190.jpg,absent_patch/patch0002238.jpg,,,,,,,,,,,,,,,,,,,,0.026041667,0.0625,1,0,0,response1disk,35,-0.0078125,-0.010416667,1,0,0,center_square,0,34,34,53,1,,,,,,,,,,,,,,,,,,,,,,,
