participant,session,date,expName,psychopyVersion,OS,frameRate,space_press_continue.keys,space_press_continue.rt,space_press_continue_2.keys,space_press_continue_2.rt,space_press_continue_3.keys,space_press_continue_3.rt,space_press_continue_4.keys,space_press_continue_4.rt,space_press_continue_5.keys,space_press_continue_5.rt,space_press_continue_6.keys,space_press_continue_6.rt,prac_mask_loop_1.thisRepN,prac_mask_loop_1.thisTrialN,prac_mask_loop_1.thisN,prac_mask_loop_1.thisIndex,prac_mask_loop_1.ran,mask_name,prac_mask_loop_2.thisRepN,prac_mask_loop_2.thisTrialN,prac_mask_loop_2.thisN,prac_mask_loop_2.thisIndex,prac_mask_loop_2.ran,mouse_2.x,mouse_2.y,mouse_2.leftButton,mouse_2.midButton,mouse_2.rightButton,mouse_2.clicked_name,similarity,response_time,Pass,mouse_12.x,mouse_12.y,mouse_12.leftButton,mouse_12.midButton,mouse_12.rightButton,mouse_12.clicked_name,prac_loop.thisRepN,prac_loop.thisTrialN,prac_loop.thisN,prac_loop.thisIndex,prac_loop.ran,Pair_type,Image_num,Patch_1_loc,Patch_2_loc,Patch_1_info,Patch_2_info,Patch_1_name,Patch_2_name,mouse_1.x,mouse_1.y,mouse_1.leftButton,mouse_1.midButton,mouse_1.rightButton,mouse_1.time,mouse_1.clicked_name,space_press_continue_7.keys,space_press_continue_7.rt,mask_loop.thisRepN,mask_loop.thisTrialN,mask_loop.thisN,mask_loop.thisIndex,mask_loop.ran,mask_loop_2.thisRepN,mask_loop_2.thisTrialN,mask_loop_2.thisN,mask_loop_2.thisIndex,mask_loop_2.ran,mouse.x,mouse.y,mouse.leftButton,mouse.midButton,mouse.rightButton,mouse.clicked_name,trialNumber,mouse_11.x,mouse_11.y,mouse_11.leftButton,mouse_11.midButton,mouse_11.rightButton,mouse_11.clicked_name,first_pass_loop.thisRepN,first_pass_loop.thisTrialN,first_pass_loop.thisN,first_pass_loop.thisIndex,first_pass_loop.ran,mask_loop_3.thisRepN,mask_loop_3.thisTrialN,mask_loop_3.thisN,mask_loop_3.thisIndex,mask_loop_3.ran,mask_loop_4.thisRepN,mask_loop_4.thisTrialN,mask_loop_4.thisN,mask_loop_4.thisIndex,mask_loop_4.ran,mouse_3.x,mouse_3.y,mouse_3.leftButton,mouse_3.midButton,mouse_3.rightButton,mouse_3.clicked_name,double_pass_loop.thisRepN,double_pass_loop.thisTrialN,double_pass_loop.thisN,double_pass_loop.thisIndex,double_pass_loop.ran,space_exit.keys,space_exit.rt
798245,001,2022-11-20_23h56.22.721,Info_measure_main_exp,2022.2.2,Win32,60.18657839,,,,,,,,,,,,,,,,,,,,,,,,,,,,,,,,,,,,,,,,,,,,,,,,,,,,,,,,,,,,,,,,,,,,,,,,,,,,,,,,,,,,,,,,,,,,,,,,,,,,,,,,,,,,,,,
798245,001,2022-11-20_23h56.22.721,Info_measure_main_exp,2022.2.2,Win32,60.18657839,,,,,,,,,,,,,,,,,,,,,,,,,,,,,,,,,,,,,,,,,,,,,,,,,,,,,,,,,,,,,,,,,,,,,,,,,,,,,,,,,,,,,,,,,,,,,,,,,,,,,,,,,,,,,,,
798245,001,2022-11-20_23h56.22.721,Info_measure_main_exp,2022.2.2,Win32,60.18657839,space,10.6777,,,,,,,,,,,,,,,,,,,,,,,,,,,,,,,,,,,,,,,,,,,,,,,,,,,,,,,,,,,,,,,,,,,,,,,,,,,,,,,,,,,,,,,,,,,,,,,,,,,,,,,,,,,,,
798245,001,2022-11-20_23h56.22.721,Info_measure_main_exp,2022.2.2,Win32,60.18657839,,,space,16.6229,,,,,,,,,,,,,,,,,,,,,,,,,,,,,,,,,,,,,,,,,,,,,,,,,,,,,,,,,,,,,,,,,,,,,,,,,,,,,,,,,,,,,,,,,,,,,,,,,,,,,,,,,,,
798245,001,2022-11-20_23h56.22.721,Info_measure_main_exp,2022.2.2,Win32,60.18657839,,,,,space,7.8618,,,,,,,,,,,,,,,,,,,,,,,,,,,,,,,,,,,,,,,,,,,,,,,,,,,,,,,,,,,,,,,,,,,,,,,,,,,,,,,,,,,,,,,,,,,,,,,,,,,,,,,,,
798245,001,2022-11-20_23h56.22.721,Info_measure_main_exp,2022.2.2,Win32,60.18657839,,,,,,,space,13.9342,,,,,,,,,,,,,,,,,,,,,,,,,,,,,,,,,,,,,,,,,,,,,,,,,,,,,,,,,,,,,,,,,,,,,,,,,,,,,,,,,,,,,,,,,,,,,,,,,,,,,,,
798245,001,2022-11-20_23h56.22.721,Info_measure_main_exp,2022.2.2,Win32,60.18657839,,,,,,,,,space,6.3496,,,,,,,,,,,,,,,,,,,,,,,,,,,,,,,,,,,,,,,,,,,,,,,,,,,,,,,,,,,,,,,,,,,,,,,,,,,,,,,,,,,,,,,,,,,,,,,,,,,,,
798245,001,2022-11-20_23h56.22.721,Info_measure_main_exp,2022.2.2,Win32,60.18657839,,,,,,,,,,,space,3.6775,,,,,,,,,,,,,,,,,,,,,,,,,,,,,,,,,,,,,,,,,,,,,,,,,,,,,,,,,,,,,,,,,,,,,,,,,,,,,,,,,,,,,,,,,,,,,,,,,,,
798245,001,2022-11-20_23h56.22.721,Info_measure_main_exp,2022.2.2,Win32,60.18657839,,,,,,,,,,,,,0,0,0,0,1,masks/mask_001.jpg,,,,,,,,,,,,,,,,,,,,,,,,,,,,,,,,,,,,,,,,,,,,,,,,,,,,,,,,,,,,,,,,,,,,,,,,,,,,,,,,,,,,,,,,,,,,,
798245,001,2022-11-20_23h56.22.721,Info_measure_main_exp,2022.2.2,Win32,60.18657839,,,,,,,,,,,,,0,1,1,1,1,masks/mask_002.jpg,,,,,,,,,,,,,,,,,,,,,,,,,,,,,,,,,,,,,,,,,,,,,,,,,,,,,,,,,,,,,,,,,,,,,,,,,,,,,,,,,,,,,,,,,,,,,
798245,001,2022-11-20_23h56.22.721,Info_measure_main_exp,2022.2.2,Win32,60.18657839,,,,,,,,,,,,,0,2,2,4,1,masks/mask_005.jpg,,,,,,,,,,,,,,,,,,,,,,,,,,,,,,,,,,,,,,,,,,,,,,,,,,,,,,,,,,,,,,,,,,,,,,,,,,,,,,,,,,,,,,,,,,,,,
798245,001,2022-11-20_23h56.22.721,Info_measure_main_exp,2022.2.2,Win32,60.18657839,,,,,,,,,,,,,0,3,3,2,1,masks/mask_003.jpg,,,,,,,,,,,,,,,,,,,,,,,,,,,,,,,,,,,,,,,,,,,,,,,,,,,,,,,,,,,,,,,,,,,,,,,,,,,,,,,,,,,,,,,,,,,,,
798245,001,2022-11-20_23h56.22.721,Info_measure_main_exp,2022.2.2,Win32,60.18657839,,,,,,,,,,,,,0,4,4,3,1,masks/mask_004.jpg,,,,,,,,,,,,,,,,,,,,,,,,,,,,,,,,,,,,,,,,,,,,,,,,,,,,,,,,,,,,,,,,,,,,,,,,,,,,,,,,,,,,,,,,,,,,,
798245,001,2022-11-20_23h56.22.721,Info_measure_main_exp,2022.2.2,Win32,60.18657839,,,,,,,,,,,,,,,,,,masks/mask_001.jpg,0,0,0,0,1,,,,,,,,,,,,,,,,,,,,,,,,,,,,,,,,,,,,,,,,,,,,,,,,,,,,,,,,,,,,,,,,,,,,,,,,,,,,,,,,,,,,,,,,
798245,001,2022-11-20_23h56.22.721,Info_measure_main_exp,2022.2.2,Win32,60.18657839,,,,,,,,,,,,,,,,,,masks/mask_004.jpg,0,1,1,3,1,,,,,,,,,,,,,,,,,,,,,,,,,,,,,,,,,,,,,,,,,,,,,,,,,,,,,,,,,,,,,,,,,,,,,,,,,,,,,,,,,,,,,,,,
798245,001,2022-11-20_23h56.22.721,Info_measure_main_exp,2022.2.2,Win32,60.18657839,,,,,,,,,,,,,,,,,,masks/mask_002.jpg,0,2,2,1,1,,,,,,,,,,,,,,,,,,,,,,,,,,,,,,,,,,,,,,,,,,,,,,,,,,,,,,,,,,,,,,,,,,,,,,,,,,,,,,,,,,,,,,,,
798245,001,2022-11-20_23h56.22.721,Info_measure_main_exp,2022.2.2,Win32,60.18657839,,,,,,,,,,,,,,,,,,masks/mask_005.jpg,0,3,3,4,1,,,,,,,,,,,,,,,,,,,,,,,,,,,,,,,,,,,,,,,,,,,,,,,,,,,,,,,,,,,,,,,,,,,,,,,,,,,,,,,,,,,,,,,,
798245,001,2022-11-20_23h56.22.721,Info_measure_main_exp,2022.2.2,Win32,60.18657839,,,,,,,,,,,,,,,,,,masks/mask_003.jpg,0,4,4,2,1,,,,,,,,,,,,,,,,,,,,,,,,,,,,,,,,,,,,,,,,,,,,,,,,,,,,,,,,,,,,,,,,,,,,,,,,,,,,,,,,,,,,,,,,
798245,001,2022-11-20_23h56.22.721,Info_measure_main_exp,2022.2.2,Win32,60.18657839,,,,,,,,,,,,,,,,,,,,,,,,-0.04351849,0.106481481,1,0,0,response7disk,0,63.752,1,-0.000925912,-0.001851859,1,0,0,center_square,0,0,0,0,1,0,131,5,5,2370,2406,prac_patch/patch0002370.jpg,prac_patch/patch0002406.jpg,,,,,,,,,,,,,,,,,,,,,,,,,,,,,,,,,,,,,,,,,,,,,,,,,,,,,,,,,,,,
798245,001,2022-11-20_23h56.22.721,Info_measure_main_exp,2022.2.2,Win32,60.18657839,,,,,,,,,,,,,0,0,0,2,1,masks/mask_003.jpg,,,,,,,,,,,,,,,,,,,,,,,,,,,,,,,,,,,,,,,,,,,,,,,,,,,,,,,,,,,,,,,,,,,,,,,,,,,,,,,,,,,,,,,,,,,,,
798245,001,2022-11-20_23h56.22.721,Info_measure_main_exp,2022.2.2,Win32,60.18657839,,,,,,,,,,,,,0,1,1,3,1,masks/mask_004.jpg,,,,,,,,,,,,,,,,,,,,,,,,,,,,,,,,,,,,,,,,,,,,,,,,,,,,,,,,,,,,,,,,,,,,,,,,,,,,,,,,,,,,,,,,,,,,,
798245,001,2022-11-20_23h56.22.721,Info_measure_main_exp,2022.2.2,Win32,60.18657839,,,,,,,,,,,,,0,2,2,1,1,masks/mask_002.jpg,,,,,,,,,,,,,,,,,,,,,,,,,,,,,,,,,,,,,,,,,,,,,,,,,,,,,,,,,,,,,,,,,,,,,,,,,,,,,,,,,,,,,,,,,,,,,
798245,001,2022-11-20_23h56.22.721,Info_measure_main_exp,2022.2.2,Win32,60.18657839,,,,,,,,,,,,,0,3,3,0,1,masks/mask_001.jpg,,,,,,,,,,,,,,,,,,,,,,,,,,,,,,,,,,,,,,,,,,,,,,,,,,,,,,,,,,,,,,,,,,,,,,,,,,,,,,,,,,,,,,,,,,,,,
798245,001,2022-11-20_23h56.22.721,Info_measure_main_exp,2022.2.2,Win32,60.18657839,,,,,,,,,,,,,0,4,4,4,1,masks/mask_005.jpg,,,,,,,,,,,,,,,,,,,,,,,,,,,,,,,,,,,,,,,,,,,,,,,,,,,,,,,,,,,,,,,,,,,,,,,,,,,,,,,,,,,,,,,,,,,,,
798245,001,2022-11-20_23h56.22.721,Info_measure_main_exp,2022.2.2,Win32,60.18657839,,,,,,,,,,,,,,,,,,masks/mask_004.jpg,0,0,0,3,1,,,,,,,,,,,,,,,,,,,,,,,,,,,,,,,,,,,,,,,,,,,,,,,,,,,,,,,,,,,,,,,,,,,,,,,,,,,,,,,,,,,,,,,,
798245,001,2022-11-20_23h56.22.721,Info_measure_main_exp,2022.2.2,Win32,60.18657839,,,,,,,,,,,,,,,,,,masks/mask_003.jpg,0,1,1,2,1,,,,,,,,,,,,,,,,,,,,,,,,,,,,,,,,,,,,,,,,,,,,,,,,,,,,,,,,,,,,,,,,,,,,,,,,,,,,,,,,,,,,,,,,
798245,001,2022-11-20_23h56.22.721,Info_measure_main_exp,2022.2.2,Win32,60.18657839,,,,,,,,,,,,,,,,,,masks/mask_005.jpg,0,2,2,4,1,,,,,,,,,,,,,,,,,,,,,,,,,,,,,,,,,,,,,,,,,,,,,,,,,,,,,,,,,,,,,,,,,,,,,,,,,,,,,,,,,,,,,,,,
798245,001,2022-11-20_23h56.22.721,Info_measure_main_exp,2022.2.2,Win32,60.18657839,,,,,,,,,,,,,,,,,,masks/mask_001.jpg,0,3,3,0,1,,,,,,,,,,,,,,,,,,,,,,,,,,,,,,,,,,,,,,,,,,,,,,,,,,,,,,,,,,,,,,,,,,,,,,,,,,,,,,,,,,,,,,,,
798245,001,2022-11-20_23h56.22.721,Info_measure_main_exp,2022.2.2,Win32,60.18657839,,,,,,,,,,,,,,,,,,masks/mask_002.jpg,0,4,4,1,1,,,,,,,,,,,,,,,,,,,,,,,,,,,,,,,,,,,,,,,,,,,,,,,,,,,,,,,,,,,,,,,,,,,,,,,,,,,,,,,,,,,,,,,,
798245,001,2022-11-20_23h56.22.721,Info_measure_main_exp,2022.2.2,Win32,60.18657839,,,,,,,,,,,,,,,,,,,,,,,,-0.077777792,0.121296282,1,0,0,response7disk,0,76.6652,1,0.00462963,-0.002777771,1,0,0,center_square,0,1,1,2,1,0,131,5,5,2526,2526,prac_patch/patch0002526.jpg,prac_patch/patch0002526.jpg,,,,,,,,,,,,,,,,,,,,,,,,,,,,,,,,,,,,,,,,,,,,,,,,,,,,,,,,,,,,
798245,001,2022-11-20_23h56.22.721,Info_measure_main_exp,2022.2.2,Win32,60.18657839,,,,,,,,,,,,,0,0,0,1,1,masks/mask_002.jpg,,,,,,,,,,,,,,,,,,,,,,,,,,,,,,,,,,,,,,,,,,,,,,,,,,,,,,,,,,,,,,,,,,,,,,,,,,,,,,,,,,,,,,,,,,,,,
798245,001,2022-11-20_23h56.22.721,Info_measure_main_exp,2022.2.2,Win32,60.18657839,,,,,,,,,,,,,0,1,1,4,1,masks/mask_005.jpg,,,,,,,,,,,,,,,,,,,,,,,,,,,,,,,,,,,,,,,,,,,,,,,,,,,,,,,,,,,,,,,,,,,,,,,,,,,,,,,,,,,,,,,,,,,,,
798245,001,2022-11-20_23h56.22.721,Info_measure_main_exp,2022.2.2,Win32,60.18657839,,,,,,,,,,,,,0,2,2,2,1,masks/mask_003.jpg,,,,,,,,,,,,,,,,,,,,,,,,,,,,,,,,,,,,,,,,,,,,,,,,,,,,,,,,,,,,,,,,,,,,,,,,,,,,,,,,,,,,,,,,,,,,,
798245,001,2022-11-20_23h56.22.721,Info_measure_main_exp,2022.2.2,Win32,60.18657839,,,,,,,,,,,,,0,3,3,3,1,masks/mask_004.jpg,,,,,,,,,,,,,,,,,,,,,,,,,,,,,,,,,,,,,,,,,,,,,,,,,,,,,,,,,,,,,,,,,,,,,,,,,,,,,,,,,,,,,,,,,,,,,
798245,001,2022-11-20_23h56.22.721,Info_measure_main_exp,2022.2.2,Win32,60.18657839,,,,,,,,,,,,,0,4,4,0,1,masks/mask_001.jpg,,,,,,,,,,,,,,,,,,,,,,,,,,,,,,,,,,,,,,,,,,,,,,,,,,,,,,,,,,,,,,,,,,,,,,,,,,,,,,,,,,,,,,,,,,,,,
798245,001,2022-11-20_23h56.22.721,Info_measure_main_exp,2022.2.2,Win32,60.18657839,,,,,,,,,,,,,,,,,,masks/mask_004.jpg,0,0,0,3,1,,,,,,,,,,,,,,,,,,,,,,,,,,,,,,,,,,,,,,,,,,,,,,,,,,,,,,,,,,,,,,,,,,,,,,,,,,,,,,,,,,,,,,,,
798245,001,2022-11-20_23h56.22.721,Info_measure_main_exp,2022.2.2,Win32,60.18657839,,,,,,,,,,,,,,,,,,masks/mask_003.jpg,0,1,1,2,1,,,,,,,,,,,,,,,,,,,,,,,,,,,,,,,,,,,,,,,,,,,,,,,,,,,,,,,,,,,,,,,,,,,,,,,,,,,,,,,,,,,,,,,,
798245,001,2022-11-20_23h56.22.721,Info_measure_main_exp,2022.2.2,Win32,60.18657839,,,,,,,,,,,,,,,,,,masks/mask_001.jpg,0,2,2,0,1,,,,,,,,,,,,,,,,,,,,,,,,,,,,,,,,,,,,,,,,,,,,,,,,,,,,,,,,,,,,,,,,,,,,,,,,,,,,,,,,,,,,,,,,
798245,001,2022-11-20_23h56.22.721,Info_measure_main_exp,2022.2.2,Win32,60.18657839,,,,,,,,,,,,,,,,,,masks/mask_005.jpg,0,3,3,4,1,,,,,,,,,,,,,,,,,,,,,,,,,,,,,,,,,,,,,,,,,,,,,,,,,,,,,,,,,,,,,,,,,,,,,,,,,,,,,,,,,,,,,,,,
798245,001,2022-11-20_23h56.22.721,Info_measure_main_exp,2022.2.2,Win32,60.18657839,,,,,,,,,,,,,,,,,,masks/mask_002.jpg,0,4,4,1,1,,,,,,,,,,,,,,,,,,,,,,,,,,,,,,,,,,,,,,,,,,,,,,,,,,,,,,,,,,,,,,,,,,,,,,,,,,,,,,,,,,,,,,,,
798245,001,2022-11-20_23h56.22.721,Info_measure_main_exp,2022.2.2,Win32,60.18657839,,,,,,,,,,,,,,,,,,,,,,,,-0.025925884,-0.137037065,1,0,0,response5disk,3,86.2661,1,-0.001851824,0.008333312,1,0,0,center_square,0,2,2,1,1,0,131,5,5,2514,2490,prac_patch/patch0002514.jpg,prac_patch/patch0002490.jpg,,,,,,,,,,,,,,,,,,,,,,,,,,,,,,,,,,,,,,,,,,,,,,,,,,,,,,,,,,,,
798245,001,2022-11-20_23h56.22.721,Info_measure_main_exp,2022.2.2,Win32,60.18657839,,,,,,,,,,,,,,,,,,,,,,,,,,,,,,,,,,,,,,,,,,,,,,,,,,,,,,,,,,,space,1.9579,,,,,,,,,,,,,,,,,,,,,,,,,,,,,,,,,,,,,,,,,,,,,,,,,,,
798245,001,2022-11-20_23h56.22.721,Info_measure_main_exp,2022.2.2,Win32,60.18657839,,,,,,,,,,,,,,,,,,masks/mask_005.jpg,,,,,,,,,,,,,,,,,,,,,,,,,,,,,,,,,,,,,,,,,,,0,0,0,4,1,,,,,,,,,,,,,,,,,,,,,,,,,,,,,,,,,,,,,,,,,,,,,,
798245,001,2022-11-20_23h56.22.721,Info_measure_main_exp,2022.2.2,Win32,60.18657839,,,,,,,,,,,,,,,,,,masks/mask_004.jpg,,,,,,,,,,,,,,,,,,,,,,,,,,,,,,,,,,,,,,,,,,,0,1,1,3,1,,,,,,,,,,,,,,,,,,,,,,,,,,,,,,,,,,,,,,,,,,,,,,
798245,001,2022-11-20_23h56.22.721,Info_measure_main_exp,2022.2.2,Win32,60.18657839,,,,,,,,,,,,,,,,,,masks/mask_002.jpg,,,,,,,,,,,,,,,,,,,,,,,,,,,,,,,,,,,,,,,,,,,0,2,2,1,1,,,,,,,,,,,,,,,,,,,,,,,,,,,,,,,,,,,,,,,,,,,,,,
798245,001,2022-11-20_23h56.22.721,Info_measure_main_exp,2022.2.2,Win32,60.18657839,,,,,,,,,,,,,,,,,,masks/mask_003.jpg,,,,,,,,,,,,,,,,,,,,,,,,,,,,,,,,,,,,,,,,,,,0,3,3,2,1,,,,,,,,,,,,,,,,,,,,,,,,,,,,,,,,,,,,,,,,,,,,,,
798245,001,2022-11-20_23h56.22.721,Info_measure_main_exp,2022.2.2,Win32,60.18657839,,,,,,,,,,,,,,,,,,masks/mask_001.jpg,,,,,,,,,,,,,,,,,,,,,,,,,,,,,,,,,,,,,,,,,,,0,4,4,0,1,,,,,,,,,,,,,,,,,,,,,,,,,,,,,,,,,,,,,,,,,,,,,,
798245,001,2022-11-20_23h56.22.721,Info_measure_main_exp,2022.2.2,Win32,60.18657839,,,,,,,,,,,,,,,,,,masks/mask_001.jpg,,,,,,,,,,,,,,,,,,,,,,,,,,,,,,,,,,,,,,,,,,,,,,,,0,0,0,0,1,,,,,,,,,,,,,,,,,,,,,,,,,,,,,,,,,,,,,,,,,
798245,001,2022-11-20_23h56.22.721,Info_measure_main_exp,2022.2.2,Win32,60.18657839,,,,,,,,,,,,,,,,,,masks/mask_003.jpg,,,,,,,,,,,,,,,,,,,,,,,,,,,,,,,,,,,,,,,,,,,,,,,,0,1,1,2,1,,,,,,,,,,,,,,,,,,,,,,,,,,,,,,,,,,,,,,,,,
798245,001,2022-11-20_23h56.22.721,Info_measure_main_exp,2022.2.2,Win32,60.18657839,,,,,,,,,,,,,,,,,,masks/mask_002.jpg,,,,,,,,,,,,,,,,,,,,,,,,,,,,,,,,,,,,,,,,,,,,,,,,0,2,2,1,1,,,,,,,,,,,,,,,,,,,,,,,,,,,,,,,,,,,,,,,,,
798245,001,2022-11-20_23h56.22.721,Info_measure_main_exp,2022.2.2,Win32,60.18657839,,,,,,,,,,,,,,,,,,masks/mask_005.jpg,,,,,,,,,,,,,,,,,,,,,,,,,,,,,,,,,,,,,,,,,,,,,,,,0,3,3,4,1,,,,,,,,,,,,,,,,,,,,,,,,,,,,,,,,,,,,,,,,,
798245,001,2022-11-20_23h56.22.721,Info_measure_main_exp,2022.2.2,Win32,60.18657839,,,,,,,,,,,,,,,,,,masks/mask_004.jpg,,,,,,,,,,,,,,,,,,,,,,,,,,,,,,,,,,,,,,,,,,,,,,,,0,4,4,3,1,,,,,,,,,,,,,,,,,,,,,,,,,,,,,,,,,,,,,,,,,
798245,001,2022-11-20_23h56.22.721,Info_measure_main_exp,2022.2.2,Win32,60.18657839,,,,,,,,,,,,,,,,,,,,,,,,,,,,,,0,1.1169,1,,,,,,,,,,,,0,131,5,5,1974,1974,absent_patch/patch0001974.jpg,absent_patch/patch0001974.jpg,,,,,,,,,,,,,,,,,,,,-0.046296296,0.139814801,1,0,0,response7disk,1,0.002777806,-0.011111118,1,0,0,center_square,0,0,0,113,1,,,,,,,,,,,,,,,,,,,,,,,
798245,001,2022-11-20_23h56.22.721,Info_measure_main_exp,2022.2.2,Win32,60.18657839,,,,,,,,,,,,,,,,,,masks/mask_004.jpg,,,,,,,,,,,,,,,,,,,,,,,,,,,,,,,,,,,,,,,,,,,0,0,0,3,1,,,,,,,,,,,,,,,,,,,,,,,,,,,,,,,,,,,,,,,,,,,,,,
798245,001,2022-11-20_23h56.22.721,Info_measure_main_exp,2022.2.2,Win32,60.18657839,,,,,,,,,,,,,,,,,,masks/mask_003.jpg,,,,,,,,,,,,,,,,,,,,,,,,,,,,,,,,,,,,,,,,,,,0,1,1,2,1,,,,,,,,,,,,,,,,,,,,,,,,,,,,,,,,,,,,,,,,,,,,,,
798245,001,2022-11-20_23h56.22.721,Info_measure_main_exp,2022.2.2,Win32,60.18657839,,,,,,,,,,,,,,,,,,masks/mask_005.jpg,,,,,,,,,,,,,,,,,,,,,,,,,,,,,,,,,,,,,,,,,,,0,2,2,4,1,,,,,,,,,,,,,,,,,,,,,,,,,,,,,,,,,,,,,,,,,,,,,,
798245,001,2022-11-20_23h56.22.721,Info_measure_main_exp,2022.2.2,Win32,60.18657839,,,,,,,,,,,,,,,,,,masks/mask_001.jpg,,,,,,,,,,,,,,,,,,,,,,,,,,,,,,,,,,,,,,,,,,,0,3,3,0,1,,,,,,,,,,,,,,,,,,,,,,,,,,,,,,,,,,,,,,,,,,,,,,
798245,001,2022-11-20_23h56.22.721,Info_measure_main_exp,2022.2.2,Win32,60.18657839,,,,,,,,,,,,,,,,,,masks/mask_002.jpg,,,,,,,,,,,,,,,,,,,,,,,,,,,,,,,,,,,,,,,,,,,0,4,4,1,1,,,,,,,,,,,,,,,,,,,,,,,,,,,,,,,,,,,,,,,,,,,,,,
798245,001,2022-11-20_23h56.22.721,Info_measure_main_exp,2022.2.2,Win32,60.18657839,,,,,,,,,,,,,,,,,,masks/mask_003.jpg,,,,,,,,,,,,,,,,,,,,,,,,,,,,,,,,,,,,,,,,,,,,,,,,0,0,0,2,1,,,,,,,,,,,,,,,,,,,,,,,,,,,,,,,,,,,,,,,,,
798245,001,2022-11-20_23h56.22.721,Info_measure_main_exp,2022.2.2,Win32,60.18657839,,,,,,,,,,,,,,,,,,masks/mask_004.jpg,,,,,,,,,,,,,,,,,,,,,,,,,,,,,,,,,,,,,,,,,,,,,,,,0,1,1,3,1,,,,,,,,,,,,,,,,,,,,,,,,,,,,,,,,,,,,,,,,,
798245,001,2022-11-20_23h56.22.721,Info_measure_main_exp,2022.2.2,Win32,60.18657839,,,,,,,,,,,,,,,,,,masks/mask_002.jpg,,,,,,,,,,,,,,,,,,,,,,,,,,,,,,,,,,,,,,,,,,,,,,,,0,2,2,1,1,,,,,,,,,,,,,,,,,,,,,,,,,,,,,,,,,,,,,,,,,
798245,001,2022-11-20_23h56.22.721,Info_measure_main_exp,2022.2.2,Win32,60.18657839,,,,,,,,,,,,,,,,,,masks/mask_001.jpg,,,,,,,,,,,,,,,,,,,,,,,,,,,,,,,,,,,,,,,,,,,,,,,,0,3,3,0,1,,,,,,,,,,,,,,,,,,,,,,,,,,,,,,,,,,,,,,,,,
798245,001,2022-11-20_23h56.22.721,Info_measure_main_exp,2022.2.2,Win32,60.18657839,,,,,,,,,,,,,,,,,,masks/mask_005.jpg,,,,,,,,,,,,,,,,,,,,,,,,,,,,,,,,,,,,,,,,,,,,,,,,0,4,4,4,1,,,,,,,,,,,,,,,,,,,,,,,,,,,,,,,,,,,,,,,,,
798245,001,2022-11-20_23h56.22.721,Info_measure_main_exp,2022.2.2,Win32,60.18657839,,,,,,,,,,,,,,,,,,,,,,,,,,,,,,0,0.8667,1,,,,,,,,,,,,0,131,5,5,1950,1950,absent_patch/patch0001950.jpg,absent_patch/patch0001950.jpg,,,,,,,,,,,,,,,,,,,,-0.036111125,0.105555534,1,0,0,response7disk,2,0.006481524,0.002777771,1,0,0,center_square,0,1,1,92,1,,,,,,,,,,,,,,,,,,,,,,,
798245,001,2022-11-20_23h56.22.721,Info_measure_main_exp,2022.2.2,Win32,60.18657839,,,,,,,,,,,,,,,,,,masks/mask_005.jpg,,,,,,,,,,,,,,,,,,,,,,,,,,,,,,,,,,,,,,,,,,,0,0,0,4,1,,,,,,,,,,,,,,,,,,,,,,,,,,,,,,,,,,,,,,,,,,,,,,
798245,001,2022-11-20_23h56.22.721,Info_measure_main_exp,2022.2.2,Win32,60.18657839,,,,,,,,,,,,,,,,,,masks/mask_001.jpg,,,,,,,,,,,,,,,,,,,,,,,,,,,,,,,,,,,,,,,,,,,0,1,1,0,1,,,,,,,,,,,,,,,,,,,,,,,,,,,,,,,,,,,,,,,,,,,,,,
798245,001,2022-11-20_23h56.22.721,Info_measure_main_exp,2022.2.2,Win32,60.18657839,,,,,,,,,,,,,,,,,,masks/mask_004.jpg,,,,,,,,,,,,,,,,,,,,,,,,,,,,,,,,,,,,,,,,,,,0,2,2,3,1,,,,,,,,,,,,,,,,,,,,,,,,,,,,,,,,,,,,,,,,,,,,,,
798245,001,2022-11-20_23h56.22.721,Info_measure_main_exp,2022.2.2,Win32,60.18657839,,,,,,,,,,,,,,,,,,masks/mask_003.jpg,,,,,,,,,,,,,,,,,,,,,,,,,,,,,,,,,,,,,,,,,,,0,3,3,2,1,,,,,,,,,,,,,,,,,,,,,,,,,,,,,,,,,,,,,,,,,,,,,,
798245,001,2022-11-20_23h56.22.721,Info_measure_main_exp,2022.2.2,Win32,60.18657839,,,,,,,,,,,,,,,,,,masks/mask_002.jpg,,,,,,,,,,,,,,,,,,,,,,,,,,,,,,,,,,,,,,,,,,,0,4,4,1,1,,,,,,,,,,,,,,,,,,,,,,,,,,,,,,,,,,,,,,,,,,,,,,
798245,001,2022-11-20_23h56.22.721,Info_measure_main_exp,2022.2.2,Win32,60.18657839,,,,,,,,,,,,,,,,,,masks/mask_002.jpg,,,,,,,,,,,,,,,,,,,,,,,,,,,,,,,,,,,,,,,,,,,,,,,,0,0,0,1,1,,,,,,,,,,,,,,,,,,,,,,,,,,,,,,,,,,,,,,,,,
798245,001,2022-11-20_23h56.22.721,Info_measure_main_exp,2022.2.2,Win32,60.18657839,,,,,,,,,,,,,,,,,,masks/mask_001.jpg,,,,,,,,,,,,,,,,,,,,,,,,,,,,,,,,,,,,,,,,,,,,,,,,0,1,1,0,1,,,,,,,,,,,,,,,,,,,,,,,,,,,,,,,,,,,,,,,,,
798245,001,2022-11-20_23h56.22.721,Info_measure_main_exp,2022.2.2,Win32,60.18657839,,,,,,,,,,,,,,,,,,masks/mask_005.jpg,,,,,,,,,,,,,,,,,,,,,,,,,,,,,,,,,,,,,,,,,,,,,,,,0,2,2,4,1,,,,,,,,,,,,,,,,,,,,,,,,,,,,,,,,,,,,,,,,,
798245,001,2022-11-20_23h56.22.721,Info_measure_main_exp,2022.2.2,Win32,60.18657839,,,,,,,,,,,,,,,,,,masks/mask_003.jpg,,,,,,,,,,,,,,,,,,,,,,,,,,,,,,,,,,,,,,,,,,,,,,,,0,3,3,2,1,,,,,,,,,,,,,,,,,,,,,,,,,,,,,,,,,,,,,,,,,
798245,001,2022-11-20_23h56.22.721,Info_measure_main_exp,2022.2.2,Win32,60.18657839,,,,,,,,,,,,,,,,,,masks/mask_004.jpg,,,,,,,,,,,,,,,,,,,,,,,,,,,,,,,,,,,,,,,,,,,,,,,,0,4,4,3,1,,,,,,,,,,,,,,,,,,,,,,,,,,,,,,,,,,,,,,,,,
798245,001,2022-11-20_23h56.22.721,Info_measure_main_exp,2022.2.2,Win32,60.18657839,,,,,,,,,,,,,,,,,,,,,,,,,,,,,,7,1.2666,1,,,,,,,,,,,,0,131,5,5,2190,1986,absent_patch/patch0002190.jpg,absent_patch/patch0001986.jpg,,,,,,,,,,,,,,,,,,,,0.069444444,0.157407407,1,0,0,response1disk,3,0.002777806,-0.003703718,1,0,0,center_square,0,2,2,111,1,,,,,,,,,,,,,,,,,,,,,,,
798245,001,2022-11-20_23h56.22.721,Info_measure_main_exp,2022.2.2,Win32,60.18657839,,,,,,,,,,,,,,,,,,masks/mask_002.jpg,,,,,,,,,,,,,,,,,,,,,,,,,,,,,,,,,,,,,,,,,,,0,0,0,1,1,,,,,,,,,,,,,,,,,,,,,,,,,,,,,,,,,,,,,,,,,,,,,,
798245,001,2022-11-20_23h56.22.721,Info_measure_main_exp,2022.2.2,Win32,60.18657839,,,,,,,,,,,,,,,,,,masks/mask_004.jpg,,,,,,,,,,,,,,,,,,,,,,,,,,,,,,,,,,,,,,,,,,,0,1,1,3,1,,,,,,,,,,,,,,,,,,,,,,,,,,,,,,,,,,,,,,,,,,,,,,
798245,001,2022-11-20_23h56.22.721,Info_measure_main_exp,2022.2.2,Win32,60.18657839,,,,,,,,,,,,,,,,,,masks/mask_005.jpg,,,,,,,,,,,,,,,,,,,,,,,,,,,,,,,,,,,,,,,,,,,0,2,2,4,1,,,,,,,,,,,,,,,,,,,,,,,,,,,,,,,,,,,,,,,,,,,,,,
798245,001,2022-11-20_23h56.22.721,Info_measure_main_exp,2022.2.2,Win32,60.18657839,,,,,,,,,,,,,,,,,,masks/mask_001.jpg,,,,,,,,,,,,,,,,,,,,,,,,,,,,,,,,,,,,,,,,,,,0,3,3,0,1,,,,,,,,,,,,,,,,,,,,,,,,,,,,,,,,,,,,,,,,,,,,,,
798245,001,2022-11-20_23h56.22.721,Info_measure_main_exp,2022.2.2,Win32,60.18657839,,,,,,,,,,,,,,,,,,masks/mask_003.jpg,,,,,,,,,,,,,,,,,,,,,,,,,,,,,,,,,,,,,,,,,,,0,4,4,2,1,,,,,,,,,,,,,,,,,,,,,,,,,,,,,,,,,,,,,,,,,,,,,,
798245,001,2022-11-20_23h56.22.721,Info_measure_main_exp,2022.2.2,Win32,60.18657839,,,,,,,,,,,,,,,,,,masks/mask_002.jpg,,,,,,,,,,,,,,,,,,,,,,,,,,,,,,,,,,,,,,,,,,,,,,,,0,0,0,1,1,,,,,,,,,,,,,,,,,,,,,,,,,,,,,,,,,,,,,,,,,
798245,001,2022-11-20_23h56.22.721,Info_measure_main_exp,2022.2.2,Win32,60.18657839,,,,,,,,,,,,,,,,,,masks/mask_005.jpg,,,,,,,,,,,,,,,,,,,,,,,,,,,,,,,,,,,,,,,,,,,,,,,,0,1,1,4,1,,,,,,,,,,,,,,,,,,,,,,,,,,,,,,,,,,,,,,,,,
798245,001,2022-11-20_23h56.22.721,Info_measure_main_exp,2022.2.2,Win32,60.18657839,,,,,,,,,,,,,,,,,,masks/mask_004.jpg,,,,,,,,,,,,,,,,,,,,,,,,,,,,,,,,,,,,,,,,,,,,,,,,0,2,2,3,1,,,,,,,,,,,,,,,,,,,,,,,,,,,,,,,,,,,,,,,,,
798245,001,2022-11-20_23h56.22.721,Info_measure_main_exp,2022.2.2,Win32,60.18657839,,,,,,,,,,,,,,,,,,masks/mask_003.jpg,,,,,,,,,,,,,,,,,,,,,,,,,,,,,,,,,,,,,,,,,,,,,,,,0,3,3,2,1,,,,,,,,,,,,,,,,,,,,,,,,,,,,,,,,,,,,,,,,,
798245,001,2022-11-20_23h56.22.721,Info_measure_main_exp,2022.2.2,Win32,60.18657839,,,,,,,,,,,,,,,,,,masks/mask_001.jpg,,,,,,,,,,,,,,,,,,,,,,,,,,,,,,,,,,,,,,,,,,,,,,,,0,4,4,0,1,,,,,,,,,,,,,,,,,,,,,,,,,,,,,,,,,,,,,,,,,
798245,001,2022-11-20_23h56.22.721,Info_measure_main_exp,2022.2.2,Win32,60.18657839,,,,,,,,,,,,,,,,,,,,,,,,,,,,,,7,1.8834,1,,,,,,,,,,,,0,131,5,5,1974,2214,absent_patch/patch0001974.jpg,absent_patch/patch0002214.jpg,,,,,,,,,,,,,,,,,,,,0.043518561,0.131481489,1,0,0,response1disk,4,-0.000925912,0.01203703,1,0,0,center_square,0,3,3,24,1,,,,,,,,,,,,,,,,,,,,,,,
798245,001,2022-11-20_23h56.22.721,Info_measure_main_exp,2022.2.2,Win32,60.18657839,,,,,,,,,,,,,,,,,,masks/mask_003.jpg,,,,,,,,,,,,,,,,,,,,,,,,,,,,,,,,,,,,,,,,,,,0,0,0,2,1,,,,,,,,,,,,,,,,,,,,,,,,,,,,,,,,,,,,,,,,,,,,,,
798245,001,2022-11-20_23h56.22.721,Info_measure_main_exp,2022.2.2,Win32,60.18657839,,,,,,,,,,,,,,,,,,masks/mask_001.jpg,,,,,,,,,,,,,,,,,,,,,,,,,,,,,,,,,,,,,,,,,,,0,1,1,0,1,,,,,,,,,,,,,,,,,,,,,,,,,,,,,,,,,,,,,,,,,,,,,,
798245,001,2022-11-20_23h56.22.721,Info_measure_main_exp,2022.2.2,Win32,60.18657839,,,,,,,,,,,,,,,,,,masks/mask_004.jpg,,,,,,,,,,,,,,,,,,,,,,,,,,,,,,,,,,,,,,,,,,,0,2,2,3,1,,,,,,,,,,,,,,,,,,,,,,,,,,,,,,,,,,,,,,,,,,,,,,
798245,001,2022-11-20_23h56.22.721,Info_measure_main_exp,2022.2.2,Win32,60.18657839,,,,,,,,,,,,,,,,,,masks/mask_005.jpg,,,,,,,,,,,,,,,,,,,,,,,,,,,,,,,,,,,,,,,,,,,0,3,3,4,1,,,,,,,,,,,,,,,,,,,,,,,,,,,,,,,,,,,,,,,,,,,,,,
798245,001,2022-11-20_23h56.22.721,Info_measure_main_exp,2022.2.2,Win32,60.18657839,,,,,,,,,,,,,,,,,,masks/mask_002.jpg,,,,,,,,,,,,,,,,,,,,,,,,,,,,,,,,,,,,,,,,,,,0,4,4,1,1,,,,,,,,,,,,,,,,,,,,,,,,,,,,,,,,,,,,,,,,,,,,,,
798245,001,2022-11-20_23h56.22.721,Info_measure_main_exp,2022.2.2,Win32,60.18657839,,,,,,,,,,,,,,,,,,masks/mask_002.jpg,,,,,,,,,,,,,,,,,,,,,,,,,,,,,,,,,,,,,,,,,,,,,,,,0,0,0,1,1,,,,,,,,,,,,,,,,,,,,,,,,,,,,,,,,,,,,,,,,,
798245,001,2022-11-20_23h56.22.721,Info_measure_main_exp,2022.2.2,Win32,60.18657839,,,,,,,,,,,,,,,,,,masks/mask_004.jpg,,,,,,,,,,,,,,,,,,,,,,,,,,,,,,,,,,,,,,,,,,,,,,,,0,1,1,3,1,,,,,,,,,,,,,,,,,,,,,,,,,,,,,,,,,,,,,,,,,
798245,001,2022-11-20_23h56.22.721,Info_measure_main_exp,2022.2.2,Win32,60.18657839,,,,,,,,,,,,,,,,,,masks/mask_001.jpg,,,,,,,,,,,,,,,,,,,,,,,,,,,,,,,,,,,,,,,,,,,,,,,,0,2,2,0,1,,,,,,,,,,,,,,,,,,,,,,,,,,,,,,,,,,,,,,,,,
798245,001,2022-11-20_23h56.22.721,Info_measure_main_exp,2022.2.2,Win32,60.18657839,,,,,,,,,,,,,,,,,,masks/mask_005.jpg,,,,,,,,,,,,,,,,,,,,,,,,,,,,,,,,,,,,,,,,,,,,,,,,0,3,3,4,1,,,,,,,,,,,,,,,,,,,,,,,,,,,,,,,,,,,,,,,,,
798245,001,2022-11-20_23h56.22.721,Info_measure_main_exp,2022.2.2,Win32,60.18657839,,,,,,,,,,,,,,,,,,masks/mask_003.jpg,,,,,,,,,,,,,,,,,,,,,,,,,,,,,,,,,,,,,,,,,,,,,,,,0,4,4,2,1,,,,,,,,,,,,,,,,,,,,,,,,,,,,,,,,,,,,,,,,,
798245,001,2022-11-20_23h56.22.721,Info_measure_main_exp,2022.2.2,Win32,60.18657839,,,,,,,,,,,,,,,,,,,,,,,,,,,,,,5,1.9834,1,,,,,,,,,,,,0,131,5,5,2082,2178,absent_patch/patch0002082.jpg,absent_patch/patch0002178.jpg,,,,,,,,,,,,,,,,,,,,0.077777792,-0.044444437,1,0,0,response3disk,5,0.007407436,-0.0074074,1,0,0,center_square,0,4,4,2,1,,,,,,,,,,,,,,,,,,,,,,,
798245,001,2022-11-20_23h56.22.721,Info_measure_main_exp,2022.2.2,Win32,60.18657839,,,,,,,,,,,,,,,,,,masks/mask_003.jpg,,,,,,,,,,,,,,,,,,,,,,,,,,,,,,,,,,,,,,,,,,,0,0,0,2,1,,,,,,,,,,,,,,,,,,,,,,,,,,,,,,,,,,,,,,,,,,,,,,
798245,001,2022-11-20_23h56.22.721,Info_measure_main_exp,2022.2.2,Win32,60.18657839,,,,,,,,,,,,,,,,,,masks/mask_001.jpg,,,,,,,,,,,,,,,,,,,,,,,,,,,,,,,,,,,,,,,,,,,0,1,1,0,1,,,,,,,,,,,,,,,,,,,,,,,,,,,,,,,,,,,,,,,,,,,,,,
798245,001,2022-11-20_23h56.22.721,Info_measure_main_exp,2022.2.2,Win32,60.18657839,,,,,,,,,,,,,,,,,,masks/mask_004.jpg,,,,,,,,,,,,,,,,,,,,,,,,,,,,,,,,,,,,,,,,,,,0,2,2,3,1,,,,,,,,,,,,,,,,,,,,,,,,,,,,,,,,,,,,,,,,,,,,,,
798245,001,2022-11-20_23h56.22.721,Info_measure_main_exp,2022.2.2,Win32,60.18657839,,,,,,,,,,,,,,,,,,masks/mask_005.jpg,,,,,,,,,,,,,,,,,,,,,,,,,,,,,,,,,,,,,,,,,,,0,3,3,4,1,,,,,,,,,,,,,,,,,,,,,,,,,,,,,,,,,,,,,,,,,,,,,,
798245,001,2022-11-20_23h56.22.721,Info_measure_main_exp,2022.2.2,Win32,60.18657839,,,,,,,,,,,,,,,,,,masks/mask_002.jpg,,,,,,,,,,,,,,,,,,,,,,,,,,,,,,,,,,,,,,,,,,,0,4,4,1,1,,,,,,,,,,,,,,,,,,,,,,,,,,,,,,,,,,,,,,,,,,,,,,
798245,001,2022-11-20_23h56.22.721,Info_measure_main_exp,2022.2.2,Win32,60.18657839,,,,,,,,,,,,,,,,,,masks/mask_002.jpg,,,,,,,,,,,,,,,,,,,,,,,,,,,,,,,,,,,,,,,,,,,,,,,,0,0,0,1,1,,,,,,,,,,,,,,,,,,,,,,,,,,,,,,,,,,,,,,,,,
798245,001,2022-11-20_23h56.22.721,Info_measure_main_exp,2022.2.2,Win32,60.18657839,,,,,,,,,,,,,,,,,,masks/mask_005.jpg,,,,,,,,,,,,,,,,,,,,,,,,,,,,,,,,,,,,,,,,,,,,,,,,0,1,1,4,1,,,,,,,,,,,,,,,,,,,,,,,,,,,,,,,,,,,,,,,,,
798245,001,2022-11-20_23h56.22.721,Info_measure_main_exp,2022.2.2,Win32,60.18657839,,,,,,,,,,,,,,,,,,masks/mask_003.jpg,,,,,,,,,,,,,,,,,,,,,,,,,,,,,,,,,,,,,,,,,,,,,,,,0,2,2,2,1,,,,,,,,,,,,,,,,,,,,,,,,,,,,,,,,,,,,,,,,,
798245,001,2022-11-20_23h56.22.721,Info_measure_main_exp,2022.2.2,Win32,60.18657839,,,,,,,,,,,,,,,,,,masks/mask_001.jpg,,,,,,,,,,,,,,,,,,,,,,,,,,,,,,,,,,,,,,,,,,,,,,,,0,3,3,0,1,,,,,,,,,,,,,,,,,,,,,,,,,,,,,,,,,,,,,,,,,
798245,001,2022-11-20_23h56.22.721,Info_measure_main_exp,2022.2.2,Win32,60.18657839,,,,,,,,,,,,,,,,,,masks/mask_004.jpg,,,,,,,,,,,,,,,,,,,,,,,,,,,,,,,,,,,,,,,,,,,,,,,,0,4,4,3,1,,,,,,,,,,,,,,,,,,,,,,,,,,,,,,,,,,,,,,,,,
798245,001,2022-11-20_23h56.22.721,Info_measure_main_exp,2022.2.2,Win32,60.18657839,,,,,,,,,,,,,,,,,,,,,,,,,,,,,,7,0.9331,1,,,,,,,,,,,,1,131,5,5,2190,1,absent_patch/patch0002190.jpg,present_patch/cong_131_5_a.jpg,,,,,,,,,,,,,,,,,,,,0.038888931,0.101851852,1,0,0,response1disk,6,0.006481524,0.01203703,1,0,0,center_square,0,5,5,64,1,,,,,,,,,,,,,,,,,,,,,,,
798245,001,2022-11-20_23h56.22.721,Info_measure_main_exp,2022.2.2,Win32,60.18657839,,,,,,,,,,,,,,,,,,masks/mask_002.jpg,,,,,,,,,,,,,,,,,,,,,,,,,,,,,,,,,,,,,,,,,,,0,0,0,1,1,,,,,,,,,,,,,,,,,,,,,,,,,,,,,,,,,,,,,,,,,,,,,,
798245,001,2022-11-20_23h56.22.721,Info_measure_main_exp,2022.2.2,Win32,60.18657839,,,,,,,,,,,,,,,,,,masks/mask_004.jpg,,,,,,,,,,,,,,,,,,,,,,,,,,,,,,,,,,,,,,,,,,,0,1,1,3,1,,,,,,,,,,,,,,,,,,,,,,,,,,,,,,,,,,,,,,,,,,,,,,
798245,001,2022-11-20_23h56.22.721,Info_measure_main_exp,2022.2.2,Win32,60.18657839,,,,,,,,,,,,,,,,,,masks/mask_001.jpg,,,,,,,,,,,,,,,,,,,,,,,,,,,,,,,,,,,,,,,,,,,0,2,2,0,1,,,,,,,,,,,,,,,,,,,,,,,,,,,,,,,,,,,,,,,,,,,,,,
798245,001,2022-11-20_23h56.22.721,Info_measure_main_exp,2022.2.2,Win32,60.18657839,,,,,,,,,,,,,,,,,,masks/mask_005.jpg,,,,,,,,,,,,,,,,,,,,,,,,,,,,,,,,,,,,,,,,,,,0,3,3,4,1,,,,,,,,,,,,,,,,,,,,,,,,,,,,,,,,,,,,,,,,,,,,,,
798245,001,2022-11-20_23h56.22.721,Info_measure_main_exp,2022.2.2,Win32,60.18657839,,,,,,,,,,,,,,,,,,masks/mask_003.jpg,,,,,,,,,,,,,,,,,,,,,,,,,,,,,,,,,,,,,,,,,,,0,4,4,2,1,,,,,,,,,,,,,,,,,,,,,,,,,,,,,,,,,,,,,,,,,,,,,,
798245,001,2022-11-20_23h56.22.721,Info_measure_main_exp,2022.2.2,Win32,60.18657839,,,,,,,,,,,,,,,,,,masks/mask_005.jpg,,,,,,,,,,,,,,,,,,,,,,,,,,,,,,,,,,,,,,,,,,,,,,,,0,0,0,4,1,,,,,,,,,,,,,,,,,,,,,,,,,,,,,,,,,,,,,,,,,
798245,001,2022-11-20_23h56.22.721,Info_measure_main_exp,2022.2.2,Win32,60.18657839,,,,,,,,,,,,,,,,,,masks/mask_001.jpg,,,,,,,,,,,,,,,,,,,,,,,,,,,,,,,,,,,,,,,,,,,,,,,,0,1,1,0,1,,,,,,,,,,,,,,,,,,,,,,,,,,,,,,,,,,,,,,,,,
798245,001,2022-11-20_23h56.22.721,Info_measure_main_exp,2022.2.2,Win32,60.18657839,,,,,,,,,,,,,,,,,,masks/mask_002.jpg,,,,,,,,,,,,,,,,,,,,,,,,,,,,,,,,,,,,,,,,,,,,,,,,0,2,2,1,1,,,,,,,,,,,,,,,,,,,,,,,,,,,,,,,,,,,,,,,,,
798245,001,2022-11-20_23h56.22.721,Info_measure_main_exp,2022.2.2,Win32,60.18657839,,,,,,,,,,,,,,,,,,masks/mask_003.jpg,,,,,,,,,,,,,,,,,,,,,,,,,,,,,,,,,,,,,,,,,,,,,,,,0,3,3,2,1,,,,,,,,,,,,,,,,,,,,,,,,,,,,,,,,,,,,,,,,,
798245,001,2022-11-20_23h56.22.721,Info_measure_main_exp,2022.2.2,Win32,60.18657839,,,,,,,,,,,,,,,,,,masks/mask_004.jpg,,,,,,,,,,,,,,,,,,,,,,,,,,,,,,,,,,,,,,,,,,,,,,,,0,4,4,3,1,,,,,,,,,,,,,,,,,,,,,,,,,,,,,,,,,,,,,,,,,
798245,001,2022-11-20_23h56.22.721,Info_measure_main_exp,2022.2.2,Win32,60.18657839,,,,,,,,,,,,,,,,,,,,,,,,,,,,,,7,0.9837,1,,,,,,,,,,,,0,131,5,5,1950,2238,absent_patch/patch0001950.jpg,absent_patch/patch0002238.jpg,,,,,,,,,,,,,,,,,,,,0.036111125,0.069444444,1,0,0,response1disk,7,0.006481524,0.005555541,1,0,0,center_square,0,6,6,8,1,,,,,,,,,,,,,,,,,,,,,,,
798245,001,2022-11-20_23h56.22.721,Info_measure_main_exp,2022.2.2,Win32,60.18657839,,,,,,,,,,,,,,,,,,masks/mask_001.jpg,,,,,,,,,,,,,,,,,,,,,,,,,,,,,,,,,,,,,,,,,,,0,0,0,0,1,,,,,,,,,,,,,,,,,,,,,,,,,,,,,,,,,,,,,,,,,,,,,,
798245,001,2022-11-20_23h56.22.721,Info_measure_main_exp,2022.2.2,Win32,60.18657839,,,,,,,,,,,,,,,,,,masks/mask_005.jpg,,,,,,,,,,,,,,,,,,,,,,,,,,,,,,,,,,,,,,,,,,,0,1,1,4,1,,,,,,,,,,,,,,,,,,,,,,,,,,,,,,,,,,,,,,,,,,,,,,
798245,001,2022-11-20_23h56.22.721,Info_measure_main_exp,2022.2.2,Win32,60.18657839,,,,,,,,,,,,,,,,,,masks/mask_004.jpg,,,,,,,,,,,,,,,,,,,,,,,,,,,,,,,,,,,,,,,,,,,0,2,2,3,1,,,,,,,,,,,,,,,,,,,,,,,,,,,,,,,,,,,,,,,,,,,,,,
798245,001,2022-11-20_23h56.22.721,Info_measure_main_exp,2022.2.2,Win32,60.18657839,,,,,,,,,,,,,,,,,,masks/mask_002.jpg,,,,,,,,,,,,,,,,,,,,,,,,,,,,,,,,,,,,,,,,,,,0,3,3,1,1,,,,,,,,,,,,,,,,,,,,,,,,,,,,,,,,,,,,,,,,,,,,,,
798245,001,2022-11-20_23h56.22.721,Info_measure_main_exp,2022.2.2,Win32,60.18657839,,,,,,,,,,,,,,,,,,masks/mask_003.jpg,,,,,,,,,,,,,,,,,,,,,,,,,,,,,,,,,,,,,,,,,,,0,4,4,2,1,,,,,,,,,,,,,,,,,,,,,,,,,,,,,,,,,,,,,,,,,,,,,,
798245,001,2022-11-20_23h56.22.721,Info_measure_main_exp,2022.2.2,Win32,60.18657839,,,,,,,,,,,,,,,,,,masks/mask_003.jpg,,,,,,,,,,,,,,,,,,,,,,,,,,,,,,,,,,,,,,,,,,,,,,,,0,0,0,2,1,,,,,,,,,,,,,,,,,,,,,,,,,,,,,,,,,,,,,,,,,
798245,001,2022-11-20_23h56.22.721,Info_measure_main_exp,2022.2.2,Win32,60.18657839,,,,,,,,,,,,,,,,,,masks/mask_002.jpg,,,,,,,,,,,,,,,,,,,,,,,,,,,,,,,,,,,,,,,,,,,,,,,,0,1,1,1,1,,,,,,,,,,,,,,,,,,,,,,,,,,,,,,,,,,,,,,,,,
798245,001,2022-11-20_23h56.22.721,Info_measure_main_exp,2022.2.2,Win32,60.18657839,,,,,,,,,,,,,,,,,,masks/mask_005.jpg,,,,,,,,,,,,,,,,,,,,,,,,,,,,,,,,,,,,,,,,,,,,,,,,0,2,2,4,1,,,,,,,,,,,,,,,,,,,,,,,,,,,,,,,,,,,,,,,,,
798245,001,2022-11-20_23h56.22.721,Info_measure_main_exp,2022.2.2,Win32,60.18657839,,,,,,,,,,,,,,,,,,masks/mask_001.jpg,,,,,,,,,,,,,,,,,,,,,,,,,,,,,,,,,,,,,,,,,,,,,,,,0,3,3,0,1,,,,,,,,,,,,,,,,,,,,,,,,,,,,,,,,,,,,,,,,,
798245,001,2022-11-20_23h56.22.721,Info_measure_main_exp,2022.2.2,Win32,60.18657839,,,,,,,,,,,,,,,,,,masks/mask_004.jpg,,,,,,,,,,,,,,,,,,,,,,,,,,,,,,,,,,,,,,,,,,,,,,,,0,4,4,3,1,,,,,,,,,,,,,,,,,,,,,,,,,,,,,,,,,,,,,,,,,
798245,001,2022-11-20_23h56.22.721,Info_measure_main_exp,2022.2.2,Win32,60.18657839,,,,,,,,,,,,,,,,,,,,,,,,,,,,,,7,0.783,1,,,,,,,,,,,,0,131,5,5,2178,2154,absent_patch/patch0002178.jpg,absent_patch/patch0002154.jpg,,,,,,,,,,,,,,,,,,,,0.033333319,0.082407386,1,0,0,response1disk,8,-0.001851824,0.00462963,1,0,0,center_square,0,7,7,63,1,,,,,,,,,,,,,,,,,,,,,,,
798245,001,2022-11-20_23h56.22.721,Info_measure_main_exp,2022.2.2,Win32,60.18657839,,,,,,,,,,,,,,,,,,masks/mask_004.jpg,,,,,,,,,,,,,,,,,,,,,,,,,,,,,,,,,,,,,,,,,,,0,0,0,3,1,,,,,,,,,,,,,,,,,,,,,,,,,,,,,,,,,,,,,,,,,,,,,,
798245,001,2022-11-20_23h56.22.721,Info_measure_main_exp,2022.2.2,Win32,60.18657839,,,,,,,,,,,,,,,,,,masks/mask_001.jpg,,,,,,,,,,,,,,,,,,,,,,,,,,,,,,,,,,,,,,,,,,,0,1,1,0,1,,,,,,,,,,,,,,,,,,,,,,,,,,,,,,,,,,,,,,,,,,,,,,
798245,001,2022-11-20_23h56.22.721,Info_measure_main_exp,2022.2.2,Win32,60.18657839,,,,,,,,,,,,,,,,,,masks/mask_002.jpg,,,,,,,,,,,,,,,,,,,,,,,,,,,,,,,,,,,,,,,,,,,0,2,2,1,1,,,,,,,,,,,,,,,,,,,,,,,,,,,,,,,,,,,,,,,,,,,,,,
798245,001,2022-11-20_23h56.22.721,Info_measure_main_exp,2022.2.2,Win32,60.18657839,,,,,,,,,,,,,,,,,,masks/mask_003.jpg,,,,,,,,,,,,,,,,,,,,,,,,,,,,,,,,,,,,,,,,,,,0,3,3,2,1,,,,,,,,,,,,,,,,,,,,,,,,,,,,,,,,,,,,,,,,,,,,,,
798245,001,2022-11-20_23h56.22.721,Info_measure_main_exp,2022.2.2,Win32,60.18657839,,,,,,,,,,,,,,,,,,masks/mask_005.jpg,,,,,,,,,,,,,,,,,,,,,,,,,,,,,,,,,,,,,,,,,,,0,4,4,4,1,,,,,,,,,,,,,,,,,,,,,,,,,,,,,,,,,,,,,,,,,,,,,,
798245,001,2022-11-20_23h56.22.721,Info_measure_main_exp,2022.2.2,Win32,60.18657839,,,,,,,,,,,,,,,,,,masks/mask_002.jpg,,,,,,,,,,,,,,,,,,,,,,,,,,,,,,,,,,,,,,,,,,,,,,,,0,0,0,1,1,,,,,,,,,,,,,,,,,,,,,,,,,,,,,,,,,,,,,,,,,
798245,001,2022-11-20_23h56.22.721,Info_measure_main_exp,2022.2.2,Win32,60.18657839,,,,,,,,,,,,,,,,,,masks/mask_004.jpg,,,,,,,,,,,,,,,,,,,,,,,,,,,,,,,,,,,,,,,,,,,,,,,,0,1,1,3,1,,,,,,,,,,,,,,,,,,,,,,,,,,,,,,,,,,,,,,,,,
798245,001,2022-11-20_23h56.22.721,Info_measure_main_exp,2022.2.2,Win32,60.18657839,,,,,,,,,,,,,,,,,,masks/mask_001.jpg,,,,,,,,,,,,,,,,,,,,,,,,,,,,,,,,,,,,,,,,,,,,,,,,0,2,2,0,1,,,,,,,,,,,,,,,,,,,,,,,,,,,,,,,,,,,,,,,,,
798245,001,2022-11-20_23h56.22.721,Info_measure_main_exp,2022.2.2,Win32,60.18657839,,,,,,,,,,,,,,,,,,masks/mask_003.jpg,,,,,,,,,,,,,,,,,,,,,,,,,,,,,,,,,,,,,,,,,,,,,,,,0,3,3,2,1,,,,,,,,,,,,,,,,,,,,,,,,,,,,,,,,,,,,,,,,,
798245,001,2022-11-20_23h56.22.721,Info_measure_main_exp,2022.2.2,Win32,60.18657839,,,,,,,,,,,,,,,,,,masks/mask_005.jpg,,,,,,,,,,,,,,,,,,,,,,,,,,,,,,,,,,,,,,,,,,,,,,,,0,4,4,4,1,,,,,,,,,,,,,,,,,,,,,,,,,,,,,,,,,,,,,,,,,
798245,001,2022-11-20_23h56.22.721,Info_measure_main_exp,2022.2.2,Win32,60.18657839,,,,,,,,,,,,,,,,,,,,,,,,,,,,,,6,1.0666,1,,,,,,,,,,,,0,131,5,5,2154,1950,absent_patch/patch0002154.jpg,absent_patch/patch0001950.jpg,,,,,,,,,,,,,,,,,,,,0.106481481,0.049999979,1,0,0,response1disk,9,0.005555541,0.002777771,1,0,0,center_square,0,8,8,96,1,,,,,,,,,,,,,,,,,,,,,,,
798245,001,2022-11-20_23h56.22.721,Info_measure_main_exp,2022.2.2,Win32,60.18657839,,,,,,,,,,,,,,,,,,masks/mask_002.jpg,,,,,,,,,,,,,,,,,,,,,,,,,,,,,,,,,,,,,,,,,,,0,0,0,1,1,,,,,,,,,,,,,,,,,,,,,,,,,,,,,,,,,,,,,,,,,,,,,,
798245,001,2022-11-20_23h56.22.721,Info_measure_main_exp,2022.2.2,Win32,60.18657839,,,,,,,,,,,,,,,,,,masks/mask_001.jpg,,,,,,,,,,,,,,,,,,,,,,,,,,,,,,,,,,,,,,,,,,,0,1,1,0,1,,,,,,,,,,,,,,,,,,,,,,,,,,,,,,,,,,,,,,,,,,,,,,
798245,001,2022-11-20_23h56.22.721,Info_measure_main_exp,2022.2.2,Win32,60.18657839,,,,,,,,,,,,,,,,,,masks/mask_003.jpg,,,,,,,,,,,,,,,,,,,,,,,,,,,,,,,,,,,,,,,,,,,0,2,2,2,1,,,,,,,,,,,,,,,,,,,,,,,,,,,,,,,,,,,,,,,,,,,,,,
798245,001,2022-11-20_23h56.22.721,Info_measure_main_exp,2022.2.2,Win32,60.18657839,,,,,,,,,,,,,,,,,,masks/mask_005.jpg,,,,,,,,,,,,,,,,,,,,,,,,,,,,,,,,,,,,,,,,,,,0,3,3,4,1,,,,,,,,,,,,,,,,,,,,,,,,,,,,,,,,,,,,,,,,,,,,,,
798245,001,2022-11-20_23h56.22.721,Info_measure_main_exp,2022.2.2,Win32,60.18657839,,,,,,,,,,,,,,,,,,masks/mask_004.jpg,,,,,,,,,,,,,,,,,,,,,,,,,,,,,,,,,,,,,,,,,,,0,4,4,3,1,,,,,,,,,,,,,,,,,,,,,,,,,,,,,,,,,,,,,,,,,,,,,,
798245,001,2022-11-20_23h56.22.721,Info_measure_main_exp,2022.2.2,Win32,60.18657839,,,,,,,,,,,,,,,,,,masks/mask_004.jpg,,,,,,,,,,,,,,,,,,,,,,,,,,,,,,,,,,,,,,,,,,,,,,,,0,0,0,3,1,,,,,,,,,,,,,,,,,,,,,,,,,,,,,,,,,,,,,,,,,
798245,001,2022-11-20_23h56.22.721,Info_measure_main_exp,2022.2.2,Win32,60.18657839,,,,,,,,,,,,,,,,,,masks/mask_001.jpg,,,,,,,,,,,,,,,,,,,,,,,,,,,,,,,,,,,,,,,,,,,,,,,,0,1,1,0,1,,,,,,,,,,,,,,,,,,,,,,,,,,,,,,,,,,,,,,,,,
798245,001,2022-11-20_23h56.22.721,Info_measure_main_exp,2022.2.2,Win32,60.18657839,,,,,,,,,,,,,,,,,,masks/mask_005.jpg,,,,,,,,,,,,,,,,,,,,,,,,,,,,,,,,,,,,,,,,,,,,,,,,0,2,2,4,1,,,,,,,,,,,,,,,,,,,,,,,,,,,,,,,,,,,,,,,,,
798245,001,2022-11-20_23h56.22.721,Info_measure_main_exp,2022.2.2,Win32,60.18657839,,,,,,,,,,,,,,,,,,masks/mask_002.jpg,,,,,,,,,,,,,,,,,,,,,,,,,,,,,,,,,,,,,,,,,,,,,,,,0,3,3,1,1,,,,,,,,,,,,,,,,,,,,,,,,,,,,,,,,,,,,,,,,,
798245,001,2022-11-20_23h56.22.721,Info_measure_main_exp,2022.2.2,Win32,60.18657839,,,,,,,,,,,,,,,,,,masks/mask_003.jpg,,,,,,,,,,,,,,,,,,,,,,,,,,,,,,,,,,,,,,,,,,,,,,,,0,4,4,2,1,,,,,,,,,,,,,,,,,,,,,,,,,,,,,,,,,,,,,,,,,
798245,001,2022-11-20_23h56.22.721,Info_measure_main_exp,2022.2.2,Win32,60.18657839,,,,,,,,,,,,,,,,,,,,,,,,,,,,,,7,1.1069,1,,,,,,,,,,,,0,131,5,5,1950,2298,absent_patch/patch0001950.jpg,absent_patch/patch0002298.jpg,,,,,,,,,,,,,,,,,,,,0.047222208,0.112037023,1,0,0,response1disk,10,0.011111153,0.012962942,1,0,0,center_square,0,9,9,18,1,,,,,,,,,,,,,,,,,,,,,,,
798245,001,2022-11-20_23h56.22.721,Info_measure_main_exp,2022.2.2,Win32,60.18657839,,,,,,,,,,,,,,,,,,masks/mask_001.jpg,,,,,,,,,,,,,,,,,,,,,,,,,,,,,,,,,,,,,,,,,,,0,0,0,0,1,,,,,,,,,,,,,,,,,,,,,,,,,,,,,,,,,,,,,,,,,,,,,,
798245,001,2022-11-20_23h56.22.721,Info_measure_main_exp,2022.2.2,Win32,60.18657839,,,,,,,,,,,,,,,,,,masks/mask_003.jpg,,,,,,,,,,,,,,,,,,,,,,,,,,,,,,,,,,,,,,,,,,,0,1,1,2,1,,,,,,,,,,,,,,,,,,,,,,,,,,,,,,,,,,,,,,,,,,,,,,
798245,001,2022-11-20_23h56.22.721,Info_measure_main_exp,2022.2.2,Win32,60.18657839,,,,,,,,,,,,,,,,,,masks/mask_004.jpg,,,,,,,,,,,,,,,,,,,,,,,,,,,,,,,,,,,,,,,,,,,0,2,2,3,1,,,,,,,,,,,,,,,,,,,,,,,,,,,,,,,,,,,,,,,,,,,,,,
798245,001,2022-11-20_23h56.22.721,Info_measure_main_exp,2022.2.2,Win32,60.18657839,,,,,,,,,,,,,,,,,,masks/mask_002.jpg,,,,,,,,,,,,,,,,,,,,,,,,,,,,,,,,,,,,,,,,,,,0,3,3,1,1,,,,,,,,,,,,,,,,,,,,,,,,,,,,,,,,,,,,,,,,,,,,,,
798245,001,2022-11-20_23h56.22.721,Info_measure_main_exp,2022.2.2,Win32,60.18657839,,,,,,,,,,,,,,,,,,masks/mask_005.jpg,,,,,,,,,,,,,,,,,,,,,,,,,,,,,,,,,,,,,,,,,,,0,4,4,4,1,,,,,,,,,,,,,,,,,,,,,,,,,,,,,,,,,,,,,,,,,,,,,,
798245,001,2022-11-20_23h56.22.721,Info_measure_main_exp,2022.2.2,Win32,60.18657839,,,,,,,,,,,,,,,,,,masks/mask_005.jpg,,,,,,,,,,,,,,,,,,,,,,,,,,,,,,,,,,,,,,,,,,,,,,,,0,0,0,4,1,,,,,,,,,,,,,,,,,,,,,,,,,,,,,,,,,,,,,,,,,
798245,001,2022-11-20_23h56.22.721,Info_measure_main_exp,2022.2.2,Win32,60.18657839,,,,,,,,,,,,,,,,,,masks/mask_001.jpg,,,,,,,,,,,,,,,,,,,,,,,,,,,,,,,,,,,,,,,,,,,,,,,,0,1,1,0,1,,,,,,,,,,,,,,,,,,,,,,,,,,,,,,,,,,,,,,,,,
798245,001,2022-11-20_23h56.22.721,Info_measure_main_exp,2022.2.2,Win32,60.18657839,,,,,,,,,,,,,,,,,,masks/mask_004.jpg,,,,,,,,,,,,,,,,,,,,,,,,,,,,,,,,,,,,,,,,,,,,,,,,0,2,2,3,1,,,,,,,,,,,,,,,,,,,,,,,,,,,,,,,,,,,,,,,,,
798245,001,2022-11-20_23h56.22.721,Info_measure_main_exp,2022.2.2,Win32,60.18657839,,,,,,,,,,,,,,,,,,masks/mask_003.jpg,,,,,,,,,,,,,,,,,,,,,,,,,,,,,,,,,,,,,,,,,,,,,,,,0,3,3,2,1,,,,,,,,,,,,,,,,,,,,,,,,,,,,,,,,,,,,,,,,,
798245,001,2022-11-20_23h56.22.721,Info_measure_main_exp,2022.2.2,Win32,60.18657839,,,,,,,,,,,,,,,,,,masks/mask_002.jpg,,,,,,,,,,,,,,,,,,,,,,,,,,,,,,,,,,,,,,,,,,,,,,,,0,4,4,1,1,,,,,,,,,,,,,,,,,,,,,,,,,,,,,,,,,,,,,,,,,
798245,001,2022-11-20_23h56.22.721,Info_measure_main_exp,2022.2.2,Win32,60.18657839,,,,,,,,,,,,,,,,,,,,,,,,,,,,,,7,0.6664,1,,,,,,,,,,,,0,131,5,5,2142,2154,absent_patch/patch0002142.jpg,absent_patch/patch0002154.jpg,,,,,,,,,,,,,,,,,,,,0.033333319,0.081481474,1,0,0,response1disk,11,-0.006481453,-0.003703718,1,0,0,center_square,0,10,10,9,1,,,,,,,,,,,,,,,,,,,,,,,
798245,001,2022-11-20_23h56.22.721,Info_measure_main_exp,2022.2.2,Win32,60.18657839,,,,,,,,,,,,,,,,,,masks/mask_001.jpg,,,,,,,,,,,,,,,,,,,,,,,,,,,,,,,,,,,,,,,,,,,0,0,0,0,1,,,,,,,,,,,,,,,,,,,,,,,,,,,,,,,,,,,,,,,,,,,,,,
798245,001,2022-11-20_23h56.22.721,Info_measure_main_exp,2022.2.2,Win32,60.18657839,,,,,,,,,,,,,,,,,,masks/mask_003.jpg,,,,,,,,,,,,,,,,,,,,,,,,,,,,,,,,,,,,,,,,,,,0,1,1,2,1,,,,,,,,,,,,,,,,,,,,,,,,,,,,,,,,,,,,,,,,,,,,,,
798245,001,2022-11-20_23h56.22.721,Info_measure_main_exp,2022.2.2,Win32,60.18657839,,,,,,,,,,,,,,,,,,masks/mask_005.jpg,,,,,,,,,,,,,,,,,,,,,,,,,,,,,,,,,,,,,,,,,,,0,2,2,4,1,,,,,,,,,,,,,,,,,,,,,,,,,,,,,,,,,,,,,,,,,,,,,,
798245,001,2022-11-20_23h56.22.721,Info_measure_main_exp,2022.2.2,Win32,60.18657839,,,,,,,,,,,,,,,,,,masks/mask_002.jpg,,,,,,,,,,,,,,,,,,,,,,,,,,,,,,,,,,,,,,,,,,,0,3,3,1,1,,,,,,,,,,,,,,,,,,,,,,,,,,,,,,,,,,,,,,,,,,,,,,
798245,001,2022-11-20_23h56.22.721,Info_measure_main_exp,2022.2.2,Win32,60.18657839,,,,,,,,,,,,,,,,,,masks/mask_004.jpg,,,,,,,,,,,,,,,,,,,,,,,,,,,,,,,,,,,,,,,,,,,0,4,4,3,1,,,,,,,,,,,,,,,,,,,,,,,,,,,,,,,,,,,,,,,,,,,,,,
798245,001,2022-11-20_23h56.22.721,Info_measure_main_exp,2022.2.2,Win32,60.18657839,,,,,,,,,,,,,,,,,,masks/mask_001.jpg,,,,,,,,,,,,,,,,,,,,,,,,,,,,,,,,,,,,,,,,,,,,,,,,0,0,0,0,1,,,,,,,,,,,,,,,,,,,,,,,,,,,,,,,,,,,,,,,,,
798245,001,2022-11-20_23h56.22.721,Info_measure_main_exp,2022.2.2,Win32,60.18657839,,,,,,,,,,,,,,,,,,masks/mask_002.jpg,,,,,,,,,,,,,,,,,,,,,,,,,,,,,,,,,,,,,,,,,,,,,,,,0,1,1,1,1,,,,,,,,,,,,,,,,,,,,,,,,,,,,,,,,,,,,,,,,,
798245,001,2022-11-20_23h56.22.721,Info_measure_main_exp,2022.2.2,Win32,60.18657839,,,,,,,,,,,,,,,,,,masks/mask_005.jpg,,,,,,,,,,,,,,,,,,,,,,,,,,,,,,,,,,,,,,,,,,,,,,,,0,2,2,4,1,,,,,,,,,,,,,,,,,,,,,,,,,,,,,,,,,,,,,,,,,
798245,001,2022-11-20_23h56.22.721,Info_measure_main_exp,2022.2.2,Win32,60.18657839,,,,,,,,,,,,,,,,,,masks/mask_003.jpg,,,,,,,,,,,,,,,,,,,,,,,,,,,,,,,,,,,,,,,,,,,,,,,,0,3,3,2,1,,,,,,,,,,,,,,,,,,,,,,,,,,,,,,,,,,,,,,,,,
798245,001,2022-11-20_23h56.22.721,Info_measure_main_exp,2022.2.2,Win32,60.18657839,,,,,,,,,,,,,,,,,,masks/mask_004.jpg,,,,,,,,,,,,,,,,,,,,,,,,,,,,,,,,,,,,,,,,,,,,,,,,0,4,4,3,1,,,,,,,,,,,,,,,,,,,,,,,,,,,,,,,,,,,,,,,,,
798245,001,2022-11-20_23h56.22.721,Info_measure_main_exp,2022.2.2,Win32,60.18657839,,,,,,,,,,,,,,,,,,,,,,,,,,,,,,7,1.6833,1,,,,,,,,,,,,0,131,5,5,2214,1986,absent_patch/patch0002214.jpg,absent_patch/patch0001986.jpg,,,,,,,,,,,,,,,,,,,,0.050000014,0.050925926,1,0,0,response1disk,12,-0.001851824,-0.011111118,1,0,0,center_square,0,11,11,34,1,,,,,,,,,,,,,,,,,,,,,,,
798245,001,2022-11-20_23h56.22.721,Info_measure_main_exp,2022.2.2,Win32,60.18657839,,,,,,,,,,,,,,,,,,masks/mask_003.jpg,,,,,,,,,,,,,,,,,,,,,,,,,,,,,,,,,,,,,,,,,,,0,0,0,2,1,,,,,,,,,,,,,,,,,,,,,,,,,,,,,,,,,,,,,,,,,,,,,,
798245,001,2022-11-20_23h56.22.721,Info_measure_main_exp,2022.2.2,Win32,60.18657839,,,,,,,,,,,,,,,,,,masks/mask_005.jpg,,,,,,,,,,,,,,,,,,,,,,,,,,,,,,,,,,,,,,,,,,,0,1,1,4,1,,,,,,,,,,,,,,,,,,,,,,,,,,,,,,,,,,,,,,,,,,,,,,
798245,001,2022-11-20_23h56.22.721,Info_measure_main_exp,2022.2.2,Win32,60.18657839,,,,,,,,,,,,,,,,,,masks/mask_001.jpg,,,,,,,,,,,,,,,,,,,,,,,,,,,,,,,,,,,,,,,,,,,0,2,2,0,1,,,,,,,,,,,,,,,,,,,,,,,,,,,,,,,,,,,,,,,,,,,,,,
798245,001,2022-11-20_23h56.22.721,Info_measure_main_exp,2022.2.2,Win32,60.18657839,,,,,,,,,,,,,,,,,,masks/mask_004.jpg,,,,,,,,,,,,,,,,,,,,,,,,,,,,,,,,,,,,,,,,,,,0,3,3,3,1,,,,,,,,,,,,,,,,,,,,,,,,,,,,,,,,,,,,,,,,,,,,,,
798245,001,2022-11-20_23h56.22.721,Info_measure_main_exp,2022.2.2,Win32,60.18657839,,,,,,,,,,,,,,,,,,masks/mask_002.jpg,,,,,,,,,,,,,,,,,,,,,,,,,,,,,,,,,,,,,,,,,,,0,4,4,1,1,,,,,,,,,,,,,,,,,,,,,,,,,,,,,,,,,,,,,,,,,,,,,,
798245,001,2022-11-20_23h56.22.721,Info_measure_main_exp,2022.2.2,Win32,60.18657839,,,,,,,,,,,,,,,,,,masks/mask_003.jpg,,,,,,,,,,,,,,,,,,,,,,,,,,,,,,,,,,,,,,,,,,,,,,,,0,0,0,2,1,,,,,,,,,,,,,,,,,,,,,,,,,,,,,,,,,,,,,,,,,
798245,001,2022-11-20_23h56.22.721,Info_measure_main_exp,2022.2.2,Win32,60.18657839,,,,,,,,,,,,,,,,,,masks/mask_005.jpg,,,,,,,,,,,,,,,,,,,,,,,,,,,,,,,,,,,,,,,,,,,,,,,,0,1,1,4,1,,,,,,,,,,,,,,,,,,,,,,,,,,,,,,,,,,,,,,,,,
798245,001,2022-11-20_23h56.22.721,Info_measure_main_exp,2022.2.2,Win32,60.18657839,,,,,,,,,,,,,,,,,,masks/mask_002.jpg,,,,,,,,,,,,,,,,,,,,,,,,,,,,,,,,,,,,,,,,,,,,,,,,0,2,2,1,1,,,,,,,,,,,,,,,,,,,,,,,,,,,,,,,,,,,,,,,,,
798245,001,2022-11-20_23h56.22.721,Info_measure_main_exp,2022.2.2,Win32,60.18657839,,,,,,,,,,,,,,,,,,masks/mask_001.jpg,,,,,,,,,,,,,,,,,,,,,,,,,,,,,,,,,,,,,,,,,,,,,,,,0,3,3,0,1,,,,,,,,,,,,,,,,,,,,,,,,,,,,,,,,,,,,,,,,,
798245,001,2022-11-20_23h56.22.721,Info_measure_main_exp,2022.2.2,Win32,60.18657839,,,,,,,,,,,,,,,,,,masks/mask_004.jpg,,,,,,,,,,,,,,,,,,,,,,,,,,,,,,,,,,,,,,,,,,,,,,,,0,4,4,3,1,,,,,,,,,,,,,,,,,,,,,,,,,,,,,,,,,,,,,,,,,
798245,001,2022-11-20_23h56.22.721,Info_measure_main_exp,2022.2.2,Win32,60.18657839,,,,,,,,,,,,,,,,,,,,,,,,,,,,,,3,1.4167,1,,,,,,,,,,,,0,131,5,5,2190,2178,absent_patch/patch0002190.jpg,absent_patch/patch0002178.jpg,,,,,,,,,,,,,,,,,,,,-0.021296254,-0.112963005,1,0,0,response5disk,13,-0.006481453,0.003703683,1,0,0,center_square,0,12,12,14,1,,,,,,,,,,,,,,,,,,,,,,,
798245,001,2022-11-20_23h56.22.721,Info_measure_main_exp,2022.2.2,Win32,60.18657839,,,,,,,,,,,,,,,,,,masks/mask_004.jpg,,,,,,,,,,,,,,,,,,,,,,,,,,,,,,,,,,,,,,,,,,,0,0,0,3,1,,,,,,,,,,,,,,,,,,,,,,,,,,,,,,,,,,,,,,,,,,,,,,
798245,001,2022-11-20_23h56.22.721,Info_measure_main_exp,2022.2.2,Win32,60.18657839,,,,,,,,,,,,,,,,,,masks/mask_001.jpg,,,,,,,,,,,,,,,,,,,,,,,,,,,,,,,,,,,,,,,,,,,0,1,1,0,1,,,,,,,,,,,,,,,,,,,,,,,,,,,,,,,,,,,,,,,,,,,,,,
798245,001,2022-11-20_23h56.22.721,Info_measure_main_exp,2022.2.2,Win32,60.18657839,,,,,,,,,,,,,,,,,,masks/mask_003.jpg,,,,,,,,,,,,,,,,,,,,,,,,,,,,,,,,,,,,,,,,,,,0,2,2,2,1,,,,,,,,,,,,,,,,,,,,,,,,,,,,,,,,,,,,,,,,,,,,,,
798245,001,2022-11-20_23h56.22.721,Info_measure_main_exp,2022.2.2,Win32,60.18657839,,,,,,,,,,,,,,,,,,masks/mask_005.jpg,,,,,,,,,,,,,,,,,,,,,,,,,,,,,,,,,,,,,,,,,,,0,3,3,4,1,,,,,,,,,,,,,,,,,,,,,,,,,,,,,,,,,,,,,,,,,,,,,,
798245,001,2022-11-20_23h56.22.721,Info_measure_main_exp,2022.2.2,Win32,60.18657839,,,,,,,,,,,,,,,,,,masks/mask_002.jpg,,,,,,,,,,,,,,,,,,,,,,,,,,,,,,,,,,,,,,,,,,,0,4,4,1,1,,,,,,,,,,,,,,,,,,,,,,,,,,,,,,,,,,,,,,,,,,,,,,
798245,001,2022-11-20_23h56.22.721,Info_measure_main_exp,2022.2.2,Win32,60.18657839,,,,,,,,,,,,,,,,,,masks/mask_004.jpg,,,,,,,,,,,,,,,,,,,,,,,,,,,,,,,,,,,,,,,,,,,,,,,,0,0,0,3,1,,,,,,,,,,,,,,,,,,,,,,,,,,,,,,,,,,,,,,,,,
798245,001,2022-11-20_23h56.22.721,Info_measure_main_exp,2022.2.2,Win32,60.18657839,,,,,,,,,,,,,,,,,,masks/mask_003.jpg,,,,,,,,,,,,,,,,,,,,,,,,,,,,,,,,,,,,,,,,,,,,,,,,0,1,1,2,1,,,,,,,,,,,,,,,,,,,,,,,,,,,,,,,,,,,,,,,,,
798245,001,2022-11-20_23h56.22.721,Info_measure_main_exp,2022.2.2,Win32,60.18657839,,,,,,,,,,,,,,,,,,masks/mask_005.jpg,,,,,,,,,,,,,,,,,,,,,,,,,,,,,,,,,,,,,,,,,,,,,,,,0,2,2,4,1,,,,,,,,,,,,,,,,,,,,,,,,,,,,,,,,,,,,,,,,,
798245,001,2022-11-20_23h56.22.721,Info_measure_main_exp,2022.2.2,Win32,60.18657839,,,,,,,,,,,,,,,,,,masks/mask_001.jpg,,,,,,,,,,,,,,,,,,,,,,,,,,,,,,,,,,,,,,,,,,,,,,,,0,3,3,0,1,,,,,,,,,,,,,,,,,,,,,,,,,,,,,,,,,,,,,,,,,
798245,001,2022-11-20_23h56.22.721,Info_measure_main_exp,2022.2.2,Win32,60.18657839,,,,,,,,,,,,,,,,,,masks/mask_002.jpg,,,,,,,,,,,,,,,,,,,,,,,,,,,,,,,,,,,,,,,,,,,,,,,,0,4,4,1,1,,,,,,,,,,,,,,,,,,,,,,,,,,,,,,,,,,,,,,,,,
798245,001,2022-11-20_23h56.22.721,Info_measure_main_exp,2022.2.2,Win32,60.18657839,,,,,,,,,,,,,,,,,,,,,,,,,,,,,,7,0.7498,1,,,,,,,,,,,,0,131,5,5,2154,2214,absent_patch/patch0002154.jpg,absent_patch/patch0002214.jpg,,,,,,,,,,,,,,,,,,,,0.030555584,0.074999986,1,0,0,response1disk,14,0.001851894,0.010185171,1,0,0,center_square,0,13,13,67,1,,,,,,,,,,,,,,,,,,,,,,,
798245,001,2022-11-20_23h56.22.721,Info_measure_main_exp,2022.2.2,Win32,60.18657839,,,,,,,,,,,,,,,,,,masks/mask_001.jpg,,,,,,,,,,,,,,,,,,,,,,,,,,,,,,,,,,,,,,,,,,,0,0,0,0,1,,,,,,,,,,,,,,,,,,,,,,,,,,,,,,,,,,,,,,,,,,,,,,
798245,001,2022-11-20_23h56.22.721,Info_measure_main_exp,2022.2.2,Win32,60.18657839,,,,,,,,,,,,,,,,,,masks/mask_005.jpg,,,,,,,,,,,,,,,,,,,,,,,,,,,,,,,,,,,,,,,,,,,0,1,1,4,1,,,,,,,,,,,,,,,,,,,,,,,,,,,,,,,,,,,,,,,,,,,,,,
798245,001,2022-11-20_23h56.22.721,Info_measure_main_exp,2022.2.2,Win32,60.18657839,,,,,,,,,,,,,,,,,,masks/mask_003.jpg,,,,,,,,,,,,,,,,,,,,,,,,,,,,,,,,,,,,,,,,,,,0,2,2,2,1,,,,,,,,,,,,,,,,,,,,,,,,,,,,,,,,,,,,,,,,,,,,,,
798245,001,2022-11-20_23h56.22.721,Info_measure_main_exp,2022.2.2,Win32,60.18657839,,,,,,,,,,,,,,,,,,masks/mask_004.jpg,,,,,,,,,,,,,,,,,,,,,,,,,,,,,,,,,,,,,,,,,,,0,3,3,3,1,,,,,,,,,,,,,,,,,,,,,,,,,,,,,,,,,,,,,,,,,,,,,,
798245,001,2022-11-20_23h56.22.721,Info_measure_main_exp,2022.2.2,Win32,60.18657839,,,,,,,,,,,,,,,,,,masks/mask_002.jpg,,,,,,,,,,,,,,,,,,,,,,,,,,,,,,,,,,,,,,,,,,,0,4,4,1,1,,,,,,,,,,,,,,,,,,,,,,,,,,,,,,,,,,,,,,,,,,,,,,
798245,001,2022-11-20_23h56.22.721,Info_measure_main_exp,2022.2.2,Win32,60.18657839,,,,,,,,,,,,,,,,,,masks/mask_005.jpg,,,,,,,,,,,,,,,,,,,,,,,,,,,,,,,,,,,,,,,,,,,,,,,,0,0,0,4,1,,,,,,,,,,,,,,,,,,,,,,,,,,,,,,,,,,,,,,,,,
798245,001,2022-11-20_23h56.22.721,Info_measure_main_exp,2022.2.2,Win32,60.18657839,,,,,,,,,,,,,,,,,,masks/mask_002.jpg,,,,,,,,,,,,,,,,,,,,,,,,,,,,,,,,,,,,,,,,,,,,,,,,0,1,1,1,1,,,,,,,,,,,,,,,,,,,,,,,,,,,,,,,,,,,,,,,,,
798245,001,2022-11-20_23h56.22.721,Info_measure_main_exp,2022.2.2,Win32,60.18657839,,,,,,,,,,,,,,,,,,masks/mask_001.jpg,,,,,,,,,,,,,,,,,,,,,,,,,,,,,,,,,,,,,,,,,,,,,,,,0,2,2,0,1,,,,,,,,,,,,,,,,,,,,,,,,,,,,,,,,,,,,,,,,,
798245,001,2022-11-20_23h56.22.721,Info_measure_main_exp,2022.2.2,Win32,60.18657839,,,,,,,,,,,,,,,,,,masks/mask_004.jpg,,,,,,,,,,,,,,,,,,,,,,,,,,,,,,,,,,,,,,,,,,,,,,,,0,3,3,3,1,,,,,,,,,,,,,,,,,,,,,,,,,,,,,,,,,,,,,,,,,
798245,001,2022-11-20_23h56.22.721,Info_measure_main_exp,2022.2.2,Win32,60.18657839,,,,,,,,,,,,,,,,,,masks/mask_003.jpg,,,,,,,,,,,,,,,,,,,,,,,,,,,,,,,,,,,,,,,,,,,,,,,,0,4,4,2,1,,,,,,,,,,,,,,,,,,,,,,,,,,,,,,,,,,,,,,,,,
798245,001,2022-11-20_23h56.22.721,Info_measure_main_exp,2022.2.2,Win32,60.18657839,,,,,,,,,,,,,,,,,,,,,,,,,,,,,,3,0.7238,1,,,,,,,,,,,,0,131,5,5,1974,2178,absent_patch/patch0001974.jpg,absent_patch/patch0002178.jpg,,,,,,,,,,,,,,,,,,,,-0.045370384,-0.072222215,1,0,0,response5disk,15,-0.00462963,-0.001851859,1,0,0,center_square,0,14,14,44,1,,,,,,,,,,,,,,,,,,,,,,,
798245,001,2022-11-20_23h56.22.721,Info_measure_main_exp,2022.2.2,Win32,60.18657839,,,,,,,,,,,,,,,,,,masks/mask_001.jpg,,,,,,,,,,,,,,,,,,,,,,,,,,,,,,,,,,,,,,,,,,,0,0,0,0,1,,,,,,,,,,,,,,,,,,,,,,,,,,,,,,,,,,,,,,,,,,,,,,
798245,001,2022-11-20_23h56.22.721,Info_measure_main_exp,2022.2.2,Win32,60.18657839,,,,,,,,,,,,,,,,,,masks/mask_004.jpg,,,,,,,,,,,,,,,,,,,,,,,,,,,,,,,,,,,,,,,,,,,0,1,1,3,1,,,,,,,,,,,,,,,,,,,,,,,,,,,,,,,,,,,,,,,,,,,,,,
798245,001,2022-11-20_23h56.22.721,Info_measure_main_exp,2022.2.2,Win32,60.18657839,,,,,,,,,,,,,,,,,,masks/mask_002.jpg,,,,,,,,,,,,,,,,,,,,,,,,,,,,,,,,,,,,,,,,,,,0,2,2,1,1,,,,,,,,,,,,,,,,,,,,,,,,,,,,,,,,,,,,,,,,,,,,,,
798245,001,2022-11-20_23h56.22.721,Info_measure_main_exp,2022.2.2,Win32,60.18657839,,,,,,,,,,,,,,,,,,masks/mask_005.jpg,,,,,,,,,,,,,,,,,,,,,,,,,,,,,,,,,,,,,,,,,,,0,3,3,4,1,,,,,,,,,,,,,,,,,,,,,,,,,,,,,,,,,,,,,,,,,,,,,,
798245,001,2022-11-20_23h56.22.721,Info_measure_main_exp,2022.2.2,Win32,60.18657839,,,,,,,,,,,,,,,,,,masks/mask_003.jpg,,,,,,,,,,,,,,,,,,,,,,,,,,,,,,,,,,,,,,,,,,,0,4,4,2,1,,,,,,,,,,,,,,,,,,,,,,,,,,,,,,,,,,,,,,,,,,,,,,
798245,001,2022-11-20_23h56.22.721,Info_measure_main_exp,2022.2.2,Win32,60.18657839,,,,,,,,,,,,,,,,,,masks/mask_001.jpg,,,,,,,,,,,,,,,,,,,,,,,,,,,,,,,,,,,,,,,,,,,,,,,,0,0,0,0,1,,,,,,,,,,,,,,,,,,,,,,,,,,,,,,,,,,,,,,,,,
798245,001,2022-11-20_23h56.22.721,Info_measure_main_exp,2022.2.2,Win32,60.18657839,,,,,,,,,,,,,,,,,,masks/mask_004.jpg,,,,,,,,,,,,,,,,,,,,,,,,,,,,,,,,,,,,,,,,,,,,,,,,0,1,1,3,1,,,,,,,,,,,,,,,,,,,,,,,,,,,,,,,,,,,,,,,,,
798245,001,2022-11-20_23h56.22.721,Info_measure_main_exp,2022.2.2,Win32,60.18657839,,,,,,,,,,,,,,,,,,masks/mask_002.jpg,,,,,,,,,,,,,,,,,,,,,,,,,,,,,,,,,,,,,,,,,,,,,,,,0,2,2,1,1,,,,,,,,,,,,,,,,,,,,,,,,,,,,,,,,,,,,,,,,,
798245,001,2022-11-20_23h56.22.721,Info_measure_main_exp,2022.2.2,Win32,60.18657839,,,,,,,,,,,,,,,,,,masks/mask_005.jpg,,,,,,,,,,,,,,,,,,,,,,,,,,,,,,,,,,,,,,,,,,,,,,,,0,3,3,4,1,,,,,,,,,,,,,,,,,,,,,,,,,,,,,,,,,,,,,,,,,
798245,001,2022-11-20_23h56.22.721,Info_measure_main_exp,2022.2.2,Win32,60.18657839,,,,,,,,,,,,,,,,,,masks/mask_003.jpg,,,,,,,,,,,,,,,,,,,,,,,,,,,,,,,,,,,,,,,,,,,,,,,,0,4,4,2,1,,,,,,,,,,,,,,,,,,,,,,,,,,,,,,,,,,,,,,,,,
798245,001,2022-11-20_23h56.22.721,Info_measure_main_exp,2022.2.2,Win32,60.18657839,,,,,,,,,,,,,,,,,,,,,,,,,,,,,,7,0.8997,1,,,,,,,,,,,,0,131,5,5,2178,2238,absent_patch/patch0002178.jpg,absent_patch/patch0002238.jpg,,,,,,,,,,,,,,,,,,,,0.07222225,0.133333312,1,0,0,response1disk,16,0.010185171,0.012962942,1,0,0,center_square,0,15,15,57,1,,,,,,,,,,,,,,,,,,,,,,,
798245,001,2022-11-20_23h56.22.721,Info_measure_main_exp,2022.2.2,Win32,60.18657839,,,,,,,,,,,,,,,,,,masks/mask_002.jpg,,,,,,,,,,,,,,,,,,,,,,,,,,,,,,,,,,,,,,,,,,,0,0,0,1,1,,,,,,,,,,,,,,,,,,,,,,,,,,,,,,,,,,,,,,,,,,,,,,
798245,001,2022-11-20_23h56.22.721,Info_measure_main_exp,2022.2.2,Win32,60.18657839,,,,,,,,,,,,,,,,,,masks/mask_003.jpg,,,,,,,,,,,,,,,,,,,,,,,,,,,,,,,,,,,,,,,,,,,0,1,1,2,1,,,,,,,,,,,,,,,,,,,,,,,,,,,,,,,,,,,,,,,,,,,,,,
798245,001,2022-11-20_23h56.22.721,Info_measure_main_exp,2022.2.2,Win32,60.18657839,,,,,,,,,,,,,,,,,,masks/mask_001.jpg,,,,,,,,,,,,,,,,,,,,,,,,,,,,,,,,,,,,,,,,,,,0,2,2,0,1,,,,,,,,,,,,,,,,,,,,,,,,,,,,,,,,,,,,,,,,,,,,,,
798245,001,2022-11-20_23h56.22.721,Info_measure_main_exp,2022.2.2,Win32,60.18657839,,,,,,,,,,,,,,,,,,masks/mask_005.jpg,,,,,,,,,,,,,,,,,,,,,,,,,,,,,,,,,,,,,,,,,,,0,3,3,4,1,,,,,,,,,,,,,,,,,,,,,,,,,,,,,,,,,,,,,,,,,,,,,,
798245,001,2022-11-20_23h56.22.721,Info_measure_main_exp,2022.2.2,Win32,60.18657839,,,,,,,,,,,,,,,,,,masks/mask_004.jpg,,,,,,,,,,,,,,,,,,,,,,,,,,,,,,,,,,,,,,,,,,,0,4,4,3,1,,,,,,,,,,,,,,,,,,,,,,,,,,,,,,,,,,,,,,,,,,,,,,
798245,001,2022-11-20_23h56.22.721,Info_measure_main_exp,2022.2.2,Win32,60.18657839,,,,,,,,,,,,,,,,,,masks/mask_005.jpg,,,,,,,,,,,,,,,,,,,,,,,,,,,,,,,,,,,,,,,,,,,,,,,,0,0,0,4,1,,,,,,,,,,,,,,,,,,,,,,,,,,,,,,,,,,,,,,,,,
798245,001,2022-11-20_23h56.22.721,Info_measure_main_exp,2022.2.2,Win32,60.18657839,,,,,,,,,,,,,,,,,,masks/mask_001.jpg,,,,,,,,,,,,,,,,,,,,,,,,,,,,,,,,,,,,,,,,,,,,,,,,0,1,1,0,1,,,,,,,,,,,,,,,,,,,,,,,,,,,,,,,,,,,,,,,,,
798245,001,2022-11-20_23h56.22.721,Info_measure_main_exp,2022.2.2,Win32,60.18657839,,,,,,,,,,,,,,,,,,masks/mask_004.jpg,,,,,,,,,,,,,,,,,,,,,,,,,,,,,,,,,,,,,,,,,,,,,,,,0,2,2,3,1,,,,,,,,,,,,,,,,,,,,,,,,,,,,,,,,,,,,,,,,,
798245,001,2022-11-20_23h56.22.721,Info_measure_main_exp,2022.2.2,Win32,60.18657839,,,,,,,,,,,,,,,,,,masks/mask_002.jpg,,,,,,,,,,,,,,,,,,,,,,,,,,,,,,,,,,,,,,,,,,,,,,,,0,3,3,1,1,,,,,,,,,,,,,,,,,,,,,,,,,,,,,,,,,,,,,,,,,
798245,001,2022-11-20_23h56.22.721,Info_measure_main_exp,2022.2.2,Win32,60.18657839,,,,,,,,,,,,,,,,,,masks/mask_003.jpg,,,,,,,,,,,,,,,,,,,,,,,,,,,,,,,,,,,,,,,,,,,,,,,,0,4,4,2,1,,,,,,,,,,,,,,,,,,,,,,,,,,,,,,,,,,,,,,,,,
798245,001,2022-11-20_23h56.22.721,Info_measure_main_exp,2022.2.2,Win32,60.18657839,,,,,,,,,,,,,,,,,,,,,,,,,,,,,,7,0.8738,1,,,,,,,,,,,,1,131,5,5,2298,1,absent_patch/patch0002298.jpg,present_patch/cong_131_5_a.jpg,,,,,,,,,,,,,,,,,,,,0.014814801,0.02870369,1,0,0,response1disk,17,0.002777806,0.006481489,1,0,0,center_square,0,16,16,45,1,,,,,,,,,,,,,,,,,,,,,,,
798245,001,2022-11-20_23h56.22.721,Info_measure_main_exp,2022.2.2,Win32,60.18657839,,,,,,,,,,,,,,,,,,masks/mask_002.jpg,,,,,,,,,,,,,,,,,,,,,,,,,,,,,,,,,,,,,,,,,,,0,0,0,1,1,,,,,,,,,,,,,,,,,,,,,,,,,,,,,,,,,,,,,,,,,,,,,,
798245,001,2022-11-20_23h56.22.721,Info_measure_main_exp,2022.2.2,Win32,60.18657839,,,,,,,,,,,,,,,,,,masks/mask_001.jpg,,,,,,,,,,,,,,,,,,,,,,,,,,,,,,,,,,,,,,,,,,,0,1,1,0,1,,,,,,,,,,,,,,,,,,,,,,,,,,,,,,,,,,,,,,,,,,,,,,
798245,001,2022-11-20_23h56.22.721,Info_measure_main_exp,2022.2.2,Win32,60.18657839,,,,,,,,,,,,,,,,,,masks/mask_004.jpg,,,,,,,,,,,,,,,,,,,,,,,,,,,,,,,,,,,,,,,,,,,0,2,2,3,1,,,,,,,,,,,,,,,,,,,,,,,,,,,,,,,,,,,,,,,,,,,,,,
798245,001,2022-11-20_23h56.22.721,Info_measure_main_exp,2022.2.2,Win32,60.18657839,,,,,,,,,,,,,,,,,,masks/mask_003.jpg,,,,,,,,,,,,,,,,,,,,,,,,,,,,,,,,,,,,,,,,,,,0,3,3,2,1,,,,,,,,,,,,,,,,,,,,,,,,,,,,,,,,,,,,,,,,,,,,,,
798245,001,2022-11-20_23h56.22.721,Info_measure_main_exp,2022.2.2,Win32,60.18657839,,,,,,,,,,,,,,,,,,masks/mask_005.jpg,,,,,,,,,,,,,,,,,,,,,,,,,,,,,,,,,,,,,,,,,,,0,4,4,4,1,,,,,,,,,,,,,,,,,,,,,,,,,,,,,,,,,,,,,,,,,,,,,,
798245,001,2022-11-20_23h56.22.721,Info_measure_main_exp,2022.2.2,Win32,60.18657839,,,,,,,,,,,,,,,,,,masks/mask_001.jpg,,,,,,,,,,,,,,,,,,,,,,,,,,,,,,,,,,,,,,,,,,,,,,,,0,0,0,0,1,,,,,,,,,,,,,,,,,,,,,,,,,,,,,,,,,,,,,,,,,
798245,001,2022-11-20_23h56.22.721,Info_measure_main_exp,2022.2.2,Win32,60.18657839,,,,,,,,,,,,,,,,,,masks/mask_005.jpg,,,,,,,,,,,,,,,,,,,,,,,,,,,,,,,,,,,,,,,,,,,,,,,,0,1,1,4,1,,,,,,,,,,,,,,,,,,,,,,,,,,,,,,,,,,,,,,,,,
798245,001,2022-11-20_23h56.22.721,Info_measure_main_exp,2022.2.2,Win32,60.18657839,,,,,,,,,,,,,,,,,,masks/mask_003.jpg,,,,,,,,,,,,,,,,,,,,,,,,,,,,,,,,,,,,,,,,,,,,,,,,0,2,2,2,1,,,,,,,,,,,,,,,,,,,,,,,,,,,,,,,,,,,,,,,,,
798245,001,2022-11-20_23h56.22.721,Info_measure_main_exp,2022.2.2,Win32,60.18657839,,,,,,,,,,,,,,,,,,masks/mask_004.jpg,,,,,,,,,,,,,,,,,,,,,,,,,,,,,,,,,,,,,,,,,,,,,,,,0,3,3,3,1,,,,,,,,,,,,,,,,,,,,,,,,,,,,,,,,,,,,,,,,,
798245,001,2022-11-20_23h56.22.721,Info_measure_main_exp,2022.2.2,Win32,60.18657839,,,,,,,,,,,,,,,,,,masks/mask_002.jpg,,,,,,,,,,,,,,,,,,,,,,,,,,,,,,,,,,,,,,,,,,,,,,,,0,4,4,1,1,,,,,,,,,,,,,,,,,,,,,,,,,,,,,,,,,,,,,,,,,
798245,001,2022-11-20_23h56.22.721,Info_measure_main_exp,2022.2.2,Win32,60.18657839,,,,,,,,,,,,,,,,,,,,,,,,,,,,,,7,0.9334,1,,,,,,,,,,,,0,131,5,5,1986,2142,absent_patch/patch0001986.jpg,absent_patch/patch0002142.jpg,,,,,,,,,,,,,,,,,,,,0.035185213,0.062962956,1,0,0,response1disk,18,-0.000925912,0.0074074,1,0,0,center_square,0,17,17,76,1,,,,,,,,,,,,,,,,,,,,,,,
798245,001,2022-11-20_23h56.22.721,Info_measure_main_exp,2022.2.2,Win32,60.18657839,,,,,,,,,,,,,,,,,,masks/mask_002.jpg,,,,,,,,,,,,,,,,,,,,,,,,,,,,,,,,,,,,,,,,,,,0,0,0,1,1,,,,,,,,,,,,,,,,,,,,,,,,,,,,,,,,,,,,,,,,,,,,,,
798245,001,2022-11-20_23h56.22.721,Info_measure_main_exp,2022.2.2,Win32,60.18657839,,,,,,,,,,,,,,,,,,masks/mask_004.jpg,,,,,,,,,,,,,,,,,,,,,,,,,,,,,,,,,,,,,,,,,,,0,1,1,3,1,,,,,,,,,,,,,,,,,,,,,,,,,,,,,,,,,,,,,,,,,,,,,,
798245,001,2022-11-20_23h56.22.721,Info_measure_main_exp,2022.2.2,Win32,60.18657839,,,,,,,,,,,,,,,,,,masks/mask_001.jpg,,,,,,,,,,,,,,,,,,,,,,,,,,,,,,,,,,,,,,,,,,,0,2,2,0,1,,,,,,,,,,,,,,,,,,,,,,,,,,,,,,,,,,,,,,,,,,,,,,
798245,001,2022-11-20_23h56.22.721,Info_measure_main_exp,2022.2.2,Win32,60.18657839,,,,,,,,,,,,,,,,,,masks/mask_003.jpg,,,,,,,,,,,,,,,,,,,,,,,,,,,,,,,,,,,,,,,,,,,0,3,3,2,1,,,,,,,,,,,,,,,,,,,,,,,,,,,,,,,,,,,,,,,,,,,,,,
798245,001,2022-11-20_23h56.22.721,Info_measure_main_exp,2022.2.2,Win32,60.18657839,,,,,,,,,,,,,,,,,,masks/mask_005.jpg,,,,,,,,,,,,,,,,,,,,,,,,,,,,,,,,,,,,,,,,,,,0,4,4,4,1,,,,,,,,,,,,,,,,,,,,,,,,,,,,,,,,,,,,,,,,,,,,,,
798245,001,2022-11-20_23h56.22.721,Info_measure_main_exp,2022.2.2,Win32,60.18657839,,,,,,,,,,,,,,,,,,masks/mask_002.jpg,,,,,,,,,,,,,,,,,,,,,,,,,,,,,,,,,,,,,,,,,,,,,,,,0,0,0,1,1,,,,,,,,,,,,,,,,,,,,,,,,,,,,,,,,,,,,,,,,,
798245,001,2022-11-20_23h56.22.721,Info_measure_main_exp,2022.2.2,Win32,60.18657839,,,,,,,,,,,,,,,,,,masks/mask_001.jpg,,,,,,,,,,,,,,,,,,,,,,,,,,,,,,,,,,,,,,,,,,,,,,,,0,1,1,0,1,,,,,,,,,,,,,,,,,,,,,,,,,,,,,,,,,,,,,,,,,
798245,001,2022-11-20_23h56.22.721,Info_measure_main_exp,2022.2.2,Win32,60.18657839,,,,,,,,,,,,,,,,,,masks/mask_003.jpg,,,,,,,,,,,,,,,,,,,,,,,,,,,,,,,,,,,,,,,,,,,,,,,,0,2,2,2,1,,,,,,,,,,,,,,,,,,,,,,,,,,,,,,,,,,,,,,,,,
798245,001,2022-11-20_23h56.22.721,Info_measure_main_exp,2022.2.2,Win32,60.18657839,,,,,,,,,,,,,,,,,,masks/mask_005.jpg,,,,,,,,,,,,,,,,,,,,,,,,,,,,,,,,,,,,,,,,,,,,,,,,0,3,3,4,1,,,,,,,,,,,,,,,,,,,,,,,,,,,,,,,,,,,,,,,,,
798245,001,2022-11-20_23h56.22.721,Info_measure_main_exp,2022.2.2,Win32,60.18657839,,,,,,,,,,,,,,,,,,masks/mask_004.jpg,,,,,,,,,,,,,,,,,,,,,,,,,,,,,,,,,,,,,,,,,,,,,,,,0,4,4,3,1,,,,,,,,,,,,,,,,,,,,,,,,,,,,,,,,,,,,,,,,,
798245,001,2022-11-20_23h56.22.721,Info_measure_main_exp,2022.2.2,Win32,60.18657839,,,,,,,,,,,,,,,,,,,,,,,,,,,,,,7,0.8499,1,,,,,,,,,,,,0,131,5,5,2178,2166,absent_patch/patch0002178.jpg,absent_patch/patch0002166.jpg,,,,,,,,,,,,,,,,,,,,0.036111125,0.1175926,1,0,0,response1disk,19,-0.000925912,0.002777771,1,0,0,center_square,0,18,18,72,1,,,,,,,,,,,,,,,,,,,,,,,
798245,001,2022-11-20_23h56.22.721,Info_measure_main_exp,2022.2.2,Win32,60.18657839,,,,,,,,,,,,,,,,,,masks/mask_002.jpg,,,,,,,,,,,,,,,,,,,,,,,,,,,,,,,,,,,,,,,,,,,0,0,0,1,1,,,,,,,,,,,,,,,,,,,,,,,,,,,,,,,,,,,,,,,,,,,,,,
798245,001,2022-11-20_23h56.22.721,Info_measure_main_exp,2022.2.2,Win32,60.18657839,,,,,,,,,,,,,,,,,,masks/mask_004.jpg,,,,,,,,,,,,,,,,,,,,,,,,,,,,,,,,,,,,,,,,,,,0,1,1,3,1,,,,,,,,,,,,,,,,,,,,,,,,,,,,,,,,,,,,,,,,,,,,,,
798245,001,2022-11-20_23h56.22.721,Info_measure_main_exp,2022.2.2,Win32,60.18657839,,,,,,,,,,,,,,,,,,masks/mask_005.jpg,,,,,,,,,,,,,,,,,,,,,,,,,,,,,,,,,,,,,,,,,,,0,2,2,4,1,,,,,,,,,,,,,,,,,,,,,,,,,,,,,,,,,,,,,,,,,,,,,,
798245,001,2022-11-20_23h56.22.721,Info_measure_main_exp,2022.2.2,Win32,60.18657839,,,,,,,,,,,,,,,,,,masks/mask_003.jpg,,,,,,,,,,,,,,,,,,,,,,,,,,,,,,,,,,,,,,,,,,,0,3,3,2,1,,,,,,,,,,,,,,,,,,,,,,,,,,,,,,,,,,,,,,,,,,,,,,
798245,001,2022-11-20_23h56.22.721,Info_measure_main_exp,2022.2.2,Win32,60.18657839,,,,,,,,,,,,,,,,,,masks/mask_001.jpg,,,,,,,,,,,,,,,,,,,,,,,,,,,,,,,,,,,,,,,,,,,0,4,4,0,1,,,,,,,,,,,,,,,,,,,,,,,,,,,,,,,,,,,,,,,,,,,,,,
798245,001,2022-11-20_23h56.22.721,Info_measure_main_exp,2022.2.2,Win32,60.18657839,,,,,,,,,,,,,,,,,,masks/mask_005.jpg,,,,,,,,,,,,,,,,,,,,,,,,,,,,,,,,,,,,,,,,,,,,,,,,0,0,0,4,1,,,,,,,,,,,,,,,,,,,,,,,,,,,,,,,,,,,,,,,,,
798245,001,2022-11-20_23h56.22.721,Info_measure_main_exp,2022.2.2,Win32,60.18657839,,,,,,,,,,,,,,,,,,masks/mask_003.jpg,,,,,,,,,,,,,,,,,,,,,,,,,,,,,,,,,,,,,,,,,,,,,,,,0,1,1,2,1,,,,,,,,,,,,,,,,,,,,,,,,,,,,,,,,,,,,,,,,,
798245,001,2022-11-20_23h56.22.721,Info_measure_main_exp,2022.2.2,Win32,60.18657839,,,,,,,,,,,,,,,,,,masks/mask_001.jpg,,,,,,,,,,,,,,,,,,,,,,,,,,,,,,,,,,,,,,,,,,,,,,,,0,2,2,0,1,,,,,,,,,,,,,,,,,,,,,,,,,,,,,,,,,,,,,,,,,
798245,001,2022-11-20_23h56.22.721,Info_measure_main_exp,2022.2.2,Win32,60.18657839,,,,,,,,,,,,,,,,,,masks/mask_002.jpg,,,,,,,,,,,,,,,,,,,,,,,,,,,,,,,,,,,,,,,,,,,,,,,,0,3,3,1,1,,,,,,,,,,,,,,,,,,,,,,,,,,,,,,,,,,,,,,,,,
798245,001,2022-11-20_23h56.22.721,Info_measure_main_exp,2022.2.2,Win32,60.18657839,,,,,,,,,,,,,,,,,,masks/mask_004.jpg,,,,,,,,,,,,,,,,,,,,,,,,,,,,,,,,,,,,,,,,,,,,,,,,0,4,4,3,1,,,,,,,,,,,,,,,,,,,,,,,,,,,,,,,,,,,,,,,,,
798245,001,2022-11-20_23h56.22.721,Info_measure_main_exp,2022.2.2,Win32,60.18657839,,,,,,,,,,,,,,,,,,,,,,,,,,,,,,4,1.3998,1,,,,,,,,,,,,1,131,5,5,1,1986,present_patch/cong_131_5_a.jpg,absent_patch/patch0001986.jpg,,,,,,,,,,,,,,,,,,,,0.025925954,-0.135185171,1,0,0,response3disk,20,-0.006481453,-0.001851859,1,0,0,center_square,0,19,19,106,1,,,,,,,,,,,,,,,,,,,,,,,
798245,001,2022-11-20_23h56.22.721,Info_measure_main_exp,2022.2.2,Win32,60.18657839,,,,,,,,,,,,,,,,,,masks/mask_005.jpg,,,,,,,,,,,,,,,,,,,,,,,,,,,,,,,,,,,,,,,,,,,0,0,0,4,1,,,,,,,,,,,,,,,,,,,,,,,,,,,,,,,,,,,,,,,,,,,,,,
798245,001,2022-11-20_23h56.22.721,Info_measure_main_exp,2022.2.2,Win32,60.18657839,,,,,,,,,,,,,,,,,,masks/mask_002.jpg,,,,,,,,,,,,,,,,,,,,,,,,,,,,,,,,,,,,,,,,,,,0,1,1,1,1,,,,,,,,,,,,,,,,,,,,,,,,,,,,,,,,,,,,,,,,,,,,,,
798245,001,2022-11-20_23h56.22.721,Info_measure_main_exp,2022.2.2,Win32,60.18657839,,,,,,,,,,,,,,,,,,masks/mask_003.jpg,,,,,,,,,,,,,,,,,,,,,,,,,,,,,,,,,,,,,,,,,,,0,2,2,2,1,,,,,,,,,,,,,,,,,,,,,,,,,,,,,,,,,,,,,,,,,,,,,,
798245,001,2022-11-20_23h56.22.721,Info_measure_main_exp,2022.2.2,Win32,60.18657839,,,,,,,,,,,,,,,,,,masks/mask_004.jpg,,,,,,,,,,,,,,,,,,,,,,,,,,,,,,,,,,,,,,,,,,,0,3,3,3,1,,,,,,,,,,,,,,,,,,,,,,,,,,,,,,,,,,,,,,,,,,,,,,
798245,001,2022-11-20_23h56.22.721,Info_measure_main_exp,2022.2.2,Win32,60.18657839,,,,,,,,,,,,,,,,,,masks/mask_001.jpg,,,,,,,,,,,,,,,,,,,,,,,,,,,,,,,,,,,,,,,,,,,0,4,4,0,1,,,,,,,,,,,,,,,,,,,,,,,,,,,,,,,,,,,,,,,,,,,,,,
798245,001,2022-11-20_23h56.22.721,Info_measure_main_exp,2022.2.2,Win32,60.18657839,,,,,,,,,,,,,,,,,,masks/mask_005.jpg,,,,,,,,,,,,,,,,,,,,,,,,,,,,,,,,,,,,,,,,,,,,,,,,0,0,0,4,1,,,,,,,,,,,,,,,,,,,,,,,,,,,,,,,,,,,,,,,,,
798245,001,2022-11-20_23h56.22.721,Info_measure_main_exp,2022.2.2,Win32,60.18657839,,,,,,,,,,,,,,,,,,masks/mask_003.jpg,,,,,,,,,,,,,,,,,,,,,,,,,,,,,,,,,,,,,,,,,,,,,,,,0,1,1,2,1,,,,,,,,,,,,,,,,,,,,,,,,,,,,,,,,,,,,,,,,,
798245,001,2022-11-20_23h56.22.721,Info_measure_main_exp,2022.2.2,Win32,60.18657839,,,,,,,,,,,,,,,,,,masks/mask_001.jpg,,,,,,,,,,,,,,,,,,,,,,,,,,,,,,,,,,,,,,,,,,,,,,,,0,2,2,0,1,,,,,,,,,,,,,,,,,,,,,,,,,,,,,,,,,,,,,,,,,
798245,001,2022-11-20_23h56.22.721,Info_measure_main_exp,2022.2.2,Win32,60.18657839,,,,,,,,,,,,,,,,,,masks/mask_002.jpg,,,,,,,,,,,,,,,,,,,,,,,,,,,,,,,,,,,,,,,,,,,,,,,,0,3,3,1,1,,,,,,,,,,,,,,,,,,,,,,,,,,,,,,,,,,,,,,,,,
798245,001,2022-11-20_23h56.22.721,Info_measure_main_exp,2022.2.2,Win32,60.18657839,,,,,,,,,,,,,,,,,,masks/mask_004.jpg,,,,,,,,,,,,,,,,,,,,,,,,,,,,,,,,,,,,,,,,,,,,,,,,0,4,4,3,1,,,,,,,,,,,,,,,,,,,,,,,,,,,,,,,,,,,,,,,,,
798245,001,2022-11-20_23h56.22.721,Info_measure_main_exp,2022.2.2,Win32,60.18657839,,,,,,,,,,,,,,,,,,,,,,,,,,,,,,2,1.3168,1,,,,,,,,,,,,0,131,5,5,1950,2178,absent_patch/patch0001950.jpg,absent_patch/patch0002178.jpg,,,,,,,,,,,,,,,,,,,,-0.037962949,-0.021296289,1,0,0,response5disk,21,0.003703718,0.006481489,1,0,0,center_square,0,20,20,61,1,,,,,,,,,,,,,,,,,,,,,,,
798245,001,2022-11-20_23h56.22.721,Info_measure_main_exp,2022.2.2,Win32,60.18657839,,,,,,,,,,,,,,,,,,masks/mask_001.jpg,,,,,,,,,,,,,,,,,,,,,,,,,,,,,,,,,,,,,,,,,,,0,0,0,0,1,,,,,,,,,,,,,,,,,,,,,,,,,,,,,,,,,,,,,,,,,,,,,,
798245,001,2022-11-20_23h56.22.721,Info_measure_main_exp,2022.2.2,Win32,60.18657839,,,,,,,,,,,,,,,,,,masks/mask_003.jpg,,,,,,,,,,,,,,,,,,,,,,,,,,,,,,,,,,,,,,,,,,,0,1,1,2,1,,,,,,,,,,,,,,,,,,,,,,,,,,,,,,,,,,,,,,,,,,,,,,
798245,001,2022-11-20_23h56.22.721,Info_measure_main_exp,2022.2.2,Win32,60.18657839,,,,,,,,,,,,,,,,,,masks/mask_005.jpg,,,,,,,,,,,,,,,,,,,,,,,,,,,,,,,,,,,,,,,,,,,0,2,2,4,1,,,,,,,,,,,,,,,,,,,,,,,,,,,,,,,,,,,,,,,,,,,,,,
798245,001,2022-11-20_23h56.22.721,Info_measure_main_exp,2022.2.2,Win32,60.18657839,,,,,,,,,,,,,,,,,,masks/mask_004.jpg,,,,,,,,,,,,,,,,,,,,,,,,,,,,,,,,,,,,,,,,,,,0,3,3,3,1,,,,,,,,,,,,,,,,,,,,,,,,,,,,,,,,,,,,,,,,,,,,,,
798245,001,2022-11-20_23h56.22.721,Info_measure_main_exp,2022.2.2,Win32,60.18657839,,,,,,,,,,,,,,,,,,masks/mask_002.jpg,,,,,,,,,,,,,,,,,,,,,,,,,,,,,,,,,,,,,,,,,,,0,4,4,1,1,,,,,,,,,,,,,,,,,,,,,,,,,,,,,,,,,,,,,,,,,,,,,,
798245,001,2022-11-20_23h56.22.721,Info_measure_main_exp,2022.2.2,Win32,60.18657839,,,,,,,,,,,,,,,,,,masks/mask_004.jpg,,,,,,,,,,,,,,,,,,,,,,,,,,,,,,,,,,,,,,,,,,,,,,,,0,0,0,3,1,,,,,,,,,,,,,,,,,,,,,,,,,,,,,,,,,,,,,,,,,
798245,001,2022-11-20_23h56.22.721,Info_measure_main_exp,2022.2.2,Win32,60.18657839,,,,,,,,,,,,,,,,,,masks/mask_001.jpg,,,,,,,,,,,,,,,,,,,,,,,,,,,,,,,,,,,,,,,,,,,,,,,,0,1,1,0,1,,,,,,,,,,,,,,,,,,,,,,,,,,,,,,,,,,,,,,,,,
798245,001,2022-11-20_23h56.22.721,Info_measure_main_exp,2022.2.2,Win32,60.18657839,,,,,,,,,,,,,,,,,,masks/mask_002.jpg,,,,,,,,,,,,,,,,,,,,,,,,,,,,,,,,,,,,,,,,,,,,,,,,0,2,2,1,1,,,,,,,,,,,,,,,,,,,,,,,,,,,,,,,,,,,,,,,,,
798245,001,2022-11-20_23h56.22.721,Info_measure_main_exp,2022.2.2,Win32,60.18657839,,,,,,,,,,,,,,,,,,masks/mask_005.jpg,,,,,,,,,,,,,,,,,,,,,,,,,,,,,,,,,,,,,,,,,,,,,,,,0,3,3,4,1,,,,,,,,,,,,,,,,,,,,,,,,,,,,,,,,,,,,,,,,,
798245,001,2022-11-20_23h56.22.721,Info_measure_main_exp,2022.2.2,Win32,60.18657839,,,,,,,,,,,,,,,,,,masks/mask_003.jpg,,,,,,,,,,,,,,,,,,,,,,,,,,,,,,,,,,,,,,,,,,,,,,,,0,4,4,2,1,,,,,,,,,,,,,,,,,,,,,,,,,,,,,,,,,,,,,,,,,
798245,001,2022-11-20_23h56.22.721,Info_measure_main_exp,2022.2.2,Win32,60.18657839,,,,,,,,,,,,,,,,,,,,,,,,,,,,,,0,0.7333,1,,,,,,,,,,,,0,131,5,5,2238,2238,absent_patch/patch0002238.jpg,absent_patch/patch0002238.jpg,,,,,,,,,,,,,,,,,,,,-0.086111069,0.101851852,1,0,0,response7disk,22,-0.009259259,0.006481489,1,0,0,center_square,0,21,21,58,1,,,,,,,,,,,,,,,,,,,,,,,
798245,001,2022-11-20_23h56.22.721,Info_measure_main_exp,2022.2.2,Win32,60.18657839,,,,,,,,,,,,,,,,,,masks/mask_001.jpg,,,,,,,,,,,,,,,,,,,,,,,,,,,,,,,,,,,,,,,,,,,0,0,0,0,1,,,,,,,,,,,,,,,,,,,,,,,,,,,,,,,,,,,,,,,,,,,,,,
798245,001,2022-11-20_23h56.22.721,Info_measure_main_exp,2022.2.2,Win32,60.18657839,,,,,,,,,,,,,,,,,,masks/mask_003.jpg,,,,,,,,,,,,,,,,,,,,,,,,,,,,,,,,,,,,,,,,,,,0,1,1,2,1,,,,,,,,,,,,,,,,,,,,,,,,,,,,,,,,,,,,,,,,,,,,,,
798245,001,2022-11-20_23h56.22.721,Info_measure_main_exp,2022.2.2,Win32,60.18657839,,,,,,,,,,,,,,,,,,masks/mask_002.jpg,,,,,,,,,,,,,,,,,,,,,,,,,,,,,,,,,,,,,,,,,,,0,2,2,1,1,,,,,,,,,,,,,,,,,,,,,,,,,,,,,,,,,,,,,,,,,,,,,,
798245,001,2022-11-20_23h56.22.721,Info_measure_main_exp,2022.2.2,Win32,60.18657839,,,,,,,,,,,,,,,,,,masks/mask_004.jpg,,,,,,,,,,,,,,,,,,,,,,,,,,,,,,,,,,,,,,,,,,,0,3,3,3,1,,,,,,,,,,,,,,,,,,,,,,,,,,,,,,,,,,,,,,,,,,,,,,
798245,001,2022-11-20_23h56.22.721,Info_measure_main_exp,2022.2.2,Win32,60.18657839,,,,,,,,,,,,,,,,,,masks/mask_005.jpg,,,,,,,,,,,,,,,,,,,,,,,,,,,,,,,,,,,,,,,,,,,0,4,4,4,1,,,,,,,,,,,,,,,,,,,,,,,,,,,,,,,,,,,,,,,,,,,,,,
798245,001,2022-11-20_23h56.22.721,Info_measure_main_exp,2022.2.2,Win32,60.18657839,,,,,,,,,,,,,,,,,,masks/mask_001.jpg,,,,,,,,,,,,,,,,,,,,,,,,,,,,,,,,,,,,,,,,,,,,,,,,0,0,0,0,1,,,,,,,,,,,,,,,,,,,,,,,,,,,,,,,,,,,,,,,,,
798245,001,2022-11-20_23h56.22.721,Info_measure_main_exp,2022.2.2,Win32,60.18657839,,,,,,,,,,,,,,,,,,masks/mask_005.jpg,,,,,,,,,,,,,,,,,,,,,,,,,,,,,,,,,,,,,,,,,,,,,,,,0,1,1,4,1,,,,,,,,,,,,,,,,,,,,,,,,,,,,,,,,,,,,,,,,,
798245,001,2022-11-20_23h56.22.721,Info_measure_main_exp,2022.2.2,Win32,60.18657839,,,,,,,,,,,,,,,,,,masks/mask_004.jpg,,,,,,,,,,,,,,,,,,,,,,,,,,,,,,,,,,,,,,,,,,,,,,,,0,2,2,3,1,,,,,,,,,,,,,,,,,,,,,,,,,,,,,,,,,,,,,,,,,
798245,001,2022-11-20_23h56.22.721,Info_measure_main_exp,2022.2.2,Win32,60.18657839,,,,,,,,,,,,,,,,,,masks/mask_003.jpg,,,,,,,,,,,,,,,,,,,,,,,,,,,,,,,,,,,,,,,,,,,,,,,,0,3,3,2,1,,,,,,,,,,,,,,,,,,,,,,,,,,,,,,,,,,,,,,,,,
798245,001,2022-11-20_23h56.22.721,Info_measure_main_exp,2022.2.2,Win32,60.18657839,,,,,,,,,,,,,,,,,,masks/mask_002.jpg,,,,,,,,,,,,,,,,,,,,,,,,,,,,,,,,,,,,,,,,,,,,,,,,0,4,4,1,1,,,,,,,,,,,,,,,,,,,,,,,,,,,,,,,,,,,,,,,,,
798245,001,2022-11-20_23h56.22.721,Info_measure_main_exp,2022.2.2,Win32,60.18657839,,,,,,,,,,,,,,,,,,,,,,,,,,,,,,7,0.7832,1,,,,,,,,,,,,0,131,5,5,2154,2190,absent_patch/patch0002154.jpg,absent_patch/patch0002190.jpg,,,,,,,,,,,,,,,,,,,,0.027777778,0.069444444,1,0,0,response1disk,23,0.001851894,0.012962942,1,0,0,center_square,0,22,22,68,1,,,,,,,,,,,,,,,,,,,,,,,
798245,001,2022-11-20_23h56.22.721,Info_measure_main_exp,2022.2.2,Win32,60.18657839,,,,,,,,,,,,,,,,,,masks/mask_003.jpg,,,,,,,,,,,,,,,,,,,,,,,,,,,,,,,,,,,,,,,,,,,0,0,0,2,1,,,,,,,,,,,,,,,,,,,,,,,,,,,,,,,,,,,,,,,,,,,,,,
798245,001,2022-11-20_23h56.22.721,Info_measure_main_exp,2022.2.2,Win32,60.18657839,,,,,,,,,,,,,,,,,,masks/mask_002.jpg,,,,,,,,,,,,,,,,,,,,,,,,,,,,,,,,,,,,,,,,,,,0,1,1,1,1,,,,,,,,,,,,,,,,,,,,,,,,,,,,,,,,,,,,,,,,,,,,,,
798245,001,2022-11-20_23h56.22.721,Info_measure_main_exp,2022.2.2,Win32,60.18657839,,,,,,,,,,,,,,,,,,masks/mask_001.jpg,,,,,,,,,,,,,,,,,,,,,,,,,,,,,,,,,,,,,,,,,,,0,2,2,0,1,,,,,,,,,,,,,,,,,,,,,,,,,,,,,,,,,,,,,,,,,,,,,,
798245,001,2022-11-20_23h56.22.721,Info_measure_main_exp,2022.2.2,Win32,60.18657839,,,,,,,,,,,,,,,,,,masks/mask_005.jpg,,,,,,,,,,,,,,,,,,,,,,,,,,,,,,,,,,,,,,,,,,,0,3,3,4,1,,,,,,,,,,,,,,,,,,,,,,,,,,,,,,,,,,,,,,,,,,,,,,
798245,001,2022-11-20_23h56.22.721,Info_measure_main_exp,2022.2.2,Win32,60.18657839,,,,,,,,,,,,,,,,,,masks/mask_004.jpg,,,,,,,,,,,,,,,,,,,,,,,,,,,,,,,,,,,,,,,,,,,0,4,4,3,1,,,,,,,,,,,,,,,,,,,,,,,,,,,,,,,,,,,,,,,,,,,,,,
798245,001,2022-11-20_23h56.22.721,Info_measure_main_exp,2022.2.2,Win32,60.18657839,,,,,,,,,,,,,,,,,,masks/mask_002.jpg,,,,,,,,,,,,,,,,,,,,,,,,,,,,,,,,,,,,,,,,,,,,,,,,0,0,0,1,1,,,,,,,,,,,,,,,,,,,,,,,,,,,,,,,,,,,,,,,,,
798245,001,2022-11-20_23h56.22.721,Info_measure_main_exp,2022.2.2,Win32,60.18657839,,,,,,,,,,,,,,,,,,masks/mask_003.jpg,,,,,,,,,,,,,,,,,,,,,,,,,,,,,,,,,,,,,,,,,,,,,,,,0,1,1,2,1,,,,,,,,,,,,,,,,,,,,,,,,,,,,,,,,,,,,,,,,,
798245,001,2022-11-20_23h56.22.721,Info_measure_main_exp,2022.2.2,Win32,60.18657839,,,,,,,,,,,,,,,,,,masks/mask_004.jpg,,,,,,,,,,,,,,,,,,,,,,,,,,,,,,,,,,,,,,,,,,,,,,,,0,2,2,3,1,,,,,,,,,,,,,,,,,,,,,,,,,,,,,,,,,,,,,,,,,
798245,001,2022-11-20_23h56.22.721,Info_measure_main_exp,2022.2.2,Win32,60.18657839,,,,,,,,,,,,,,,,,,masks/mask_005.jpg,,,,,,,,,,,,,,,,,,,,,,,,,,,,,,,,,,,,,,,,,,,,,,,,0,3,3,4,1,,,,,,,,,,,,,,,,,,,,,,,,,,,,,,,,,,,,,,,,,
798245,001,2022-11-20_23h56.22.721,Info_measure_main_exp,2022.2.2,Win32,60.18657839,,,,,,,,,,,,,,,,,,masks/mask_001.jpg,,,,,,,,,,,,,,,,,,,,,,,,,,,,,,,,,,,,,,,,,,,,,,,,0,4,4,0,1,,,,,,,,,,,,,,,,,,,,,,,,,,,,,,,,,,,,,,,,,
798245,001,2022-11-20_23h56.22.721,Info_measure_main_exp,2022.2.2,Win32,60.18657839,,,,,,,,,,,,,,,,,,,,,,,,,,,,,,7,0.5497,1,,,,,,,,,,,,0,131,5,5,2082,2238,absent_patch/patch0002082.jpg,absent_patch/patch0002238.jpg,,,,,,,,,,,,,,,,,,,,0.012962977,0.065740727,1,0,0,response1disk,24,-0.006481453,0.012962942,1,0,0,center_square,0,23,23,22,1,,,,,,,,,,,,,,,,,,,,,,,
798245,001,2022-11-20_23h56.22.721,Info_measure_main_exp,2022.2.2,Win32,60.18657839,,,,,,,,,,,,,,,,,,masks/mask_004.jpg,,,,,,,,,,,,,,,,,,,,,,,,,,,,,,,,,,,,,,,,,,,0,0,0,3,1,,,,,,,,,,,,,,,,,,,,,,,,,,,,,,,,,,,,,,,,,,,,,,
798245,001,2022-11-20_23h56.22.721,Info_measure_main_exp,2022.2.2,Win32,60.18657839,,,,,,,,,,,,,,,,,,masks/mask_003.jpg,,,,,,,,,,,,,,,,,,,,,,,,,,,,,,,,,,,,,,,,,,,0,1,1,2,1,,,,,,,,,,,,,,,,,,,,,,,,,,,,,,,,,,,,,,,,,,,,,,
798245,001,2022-11-20_23h56.22.721,Info_measure_main_exp,2022.2.2,Win32,60.18657839,,,,,,,,,,,,,,,,,,masks/mask_002.jpg,,,,,,,,,,,,,,,,,,,,,,,,,,,,,,,,,,,,,,,,,,,0,2,2,1,1,,,,,,,,,,,,,,,,,,,,,,,,,,,,,,,,,,,,,,,,,,,,,,
798245,001,2022-11-20_23h56.22.721,Info_measure_main_exp,2022.2.2,Win32,60.18657839,,,,,,,,,,,,,,,,,,masks/mask_001.jpg,,,,,,,,,,,,,,,,,,,,,,,,,,,,,,,,,,,,,,,,,,,0,3,3,0,1,,,,,,,,,,,,,,,,,,,,,,,,,,,,,,,,,,,,,,,,,,,,,,
798245,001,2022-11-20_23h56.22.721,Info_measure_main_exp,2022.2.2,Win32,60.18657839,,,,,,,,,,,,,,,,,,masks/mask_005.jpg,,,,,,,,,,,,,,,,,,,,,,,,,,,,,,,,,,,,,,,,,,,0,4,4,4,1,,,,,,,,,,,,,,,,,,,,,,,,,,,,,,,,,,,,,,,,,,,,,,
798245,001,2022-11-20_23h56.22.721,Info_measure_main_exp,2022.2.2,Win32,60.18657839,,,,,,,,,,,,,,,,,,masks/mask_004.jpg,,,,,,,,,,,,,,,,,,,,,,,,,,,,,,,,,,,,,,,,,,,,,,,,0,0,0,3,1,,,,,,,,,,,,,,,,,,,,,,,,,,,,,,,,,,,,,,,,,
798245,001,2022-11-20_23h56.22.721,Info_measure_main_exp,2022.2.2,Win32,60.18657839,,,,,,,,,,,,,,,,,,masks/mask_002.jpg,,,,,,,,,,,,,,,,,,,,,,,,,,,,,,,,,,,,,,,,,,,,,,,,0,1,1,1,1,,,,,,,,,,,,,,,,,,,,,,,,,,,,,,,,,,,,,,,,,
798245,001,2022-11-20_23h56.22.721,Info_measure_main_exp,2022.2.2,Win32,60.18657839,,,,,,,,,,,,,,,,,,masks/mask_005.jpg,,,,,,,,,,,,,,,,,,,,,,,,,,,,,,,,,,,,,,,,,,,,,,,,0,2,2,4,1,,,,,,,,,,,,,,,,,,,,,,,,,,,,,,,,,,,,,,,,,
798245,001,2022-11-20_23h56.22.721,Info_measure_main_exp,2022.2.2,Win32,60.18657839,,,,,,,,,,,,,,,,,,masks/mask_003.jpg,,,,,,,,,,,,,,,,,,,,,,,,,,,,,,,,,,,,,,,,,,,,,,,,0,3,3,2,1,,,,,,,,,,,,,,,,,,,,,,,,,,,,,,,,,,,,,,,,,
798245,001,2022-11-20_23h56.22.721,Info_measure_main_exp,2022.2.2,Win32,60.18657839,,,,,,,,,,,,,,,,,,masks/mask_001.jpg,,,,,,,,,,,,,,,,,,,,,,,,,,,,,,,,,,,,,,,,,,,,,,,,0,4,4,0,1,,,,,,,,,,,,,,,,,,,,,,,,,,,,,,,,,,,,,,,,,
798245,001,2022-11-20_23h56.22.721,Info_measure_main_exp,2022.2.2,Win32,60.18657839,,,,,,,,,,,,,,,,,,,,,,,,,,,,,,0,0.4663,1,,,,,,,,,,,,0,131,5,5,2166,2166,absent_patch/patch0002166.jpg,absent_patch/patch0002166.jpg,,,,,,,,,,,,,,,,,,,,-0.073148162,0.10833334,1,0,0,response7disk,25,-0.007407365,-0.005555577,1,0,0,center_square,0,24,24,42,1,,,,,,,,,,,,,,,,,,,,,,,
798245,001,2022-11-20_23h56.22.721,Info_measure_main_exp,2022.2.2,Win32,60.18657839,,,,,,,,,,,,,,,,,,masks/mask_003.jpg,,,,,,,,,,,,,,,,,,,,,,,,,,,,,,,,,,,,,,,,,,,0,0,0,2,1,,,,,,,,,,,,,,,,,,,,,,,,,,,,,,,,,,,,,,,,,,,,,,
798245,001,2022-11-20_23h56.22.721,Info_measure_main_exp,2022.2.2,Win32,60.18657839,,,,,,,,,,,,,,,,,,masks/mask_005.jpg,,,,,,,,,,,,,,,,,,,,,,,,,,,,,,,,,,,,,,,,,,,0,1,1,4,1,,,,,,,,,,,,,,,,,,,,,,,,,,,,,,,,,,,,,,,,,,,,,,
798245,001,2022-11-20_23h56.22.721,Info_measure_main_exp,2022.2.2,Win32,60.18657839,,,,,,,,,,,,,,,,,,masks/mask_001.jpg,,,,,,,,,,,,,,,,,,,,,,,,,,,,,,,,,,,,,,,,,,,0,2,2,0,1,,,,,,,,,,,,,,,,,,,,,,,,,,,,,,,,,,,,,,,,,,,,,,
798245,001,2022-11-20_23h56.22.721,Info_measure_main_exp,2022.2.2,Win32,60.18657839,,,,,,,,,,,,,,,,,,masks/mask_002.jpg,,,,,,,,,,,,,,,,,,,,,,,,,,,,,,,,,,,,,,,,,,,0,3,3,1,1,,,,,,,,,,,,,,,,,,,,,,,,,,,,,,,,,,,,,,,,,,,,,,
798245,001,2022-11-20_23h56.22.721,Info_measure_main_exp,2022.2.2,Win32,60.18657839,,,,,,,,,,,,,,,,,,masks/mask_004.jpg,,,,,,,,,,,,,,,,,,,,,,,,,,,,,,,,,,,,,,,,,,,0,4,4,3,1,,,,,,,,,,,,,,,,,,,,,,,,,,,,,,,,,,,,,,,,,,,,,,
798245,001,2022-11-20_23h56.22.721,Info_measure_main_exp,2022.2.2,Win32,60.18657839,,,,,,,,,,,,,,,,,,masks/mask_002.jpg,,,,,,,,,,,,,,,,,,,,,,,,,,,,,,,,,,,,,,,,,,,,,,,,0,0,0,1,1,,,,,,,,,,,,,,,,,,,,,,,,,,,,,,,,,,,,,,,,,
798245,001,2022-11-20_23h56.22.721,Info_measure_main_exp,2022.2.2,Win32,60.18657839,,,,,,,,,,,,,,,,,,masks/mask_003.jpg,,,,,,,,,,,,,,,,,,,,,,,,,,,,,,,,,,,,,,,,,,,,,,,,0,1,1,2,1,,,,,,,,,,,,,,,,,,,,,,,,,,,,,,,,,,,,,,,,,
798245,001,2022-11-20_23h56.22.721,Info_measure_main_exp,2022.2.2,Win32,60.18657839,,,,,,,,,,,,,,,,,,masks/mask_004.jpg,,,,,,,,,,,,,,,,,,,,,,,,,,,,,,,,,,,,,,,,,,,,,,,,0,2,2,3,1,,,,,,,,,,,,,,,,,,,,,,,,,,,,,,,,,,,,,,,,,
798245,001,2022-11-20_23h56.22.721,Info_measure_main_exp,2022.2.2,Win32,60.18657839,,,,,,,,,,,,,,,,,,masks/mask_005.jpg,,,,,,,,,,,,,,,,,,,,,,,,,,,,,,,,,,,,,,,,,,,,,,,,0,3,3,4,1,,,,,,,,,,,,,,,,,,,,,,,,,,,,,,,,,,,,,,,,,
798245,001,2022-11-20_23h56.22.721,Info_measure_main_exp,2022.2.2,Win32,60.18657839,,,,,,,,,,,,,,,,,,masks/mask_001.jpg,,,,,,,,,,,,,,,,,,,,,,,,,,,,,,,,,,,,,,,,,,,,,,,,0,4,4,0,1,,,,,,,,,,,,,,,,,,,,,,,,,,,,,,,,,,,,,,,,,
798245,001,2022-11-20_23h56.22.721,Info_measure_main_exp,2022.2.2,Win32,60.18657839,,,,,,,,,,,,,,,,,,,,,,,,,,,,,,5,1.7334,1,,,,,,,,,,,,0,131,5,5,2190,1950,absent_patch/patch0002190.jpg,absent_patch/patch0001950.jpg,,,,,,,,,,,,,,,,,,,,0.071296339,-0.067592586,1,0,0,response3disk,26,0.002777806,-0.000925947,1,0,0,center_square,0,25,25,73,1,,,,,,,,,,,,,,,,,,,,,,,
798245,001,2022-11-20_23h56.22.721,Info_measure_main_exp,2022.2.2,Win32,60.18657839,,,,,,,,,,,,,,,,,,masks/mask_002.jpg,,,,,,,,,,,,,,,,,,,,,,,,,,,,,,,,,,,,,,,,,,,0,0,0,1,1,,,,,,,,,,,,,,,,,,,,,,,,,,,,,,,,,,,,,,,,,,,,,,
798245,001,2022-11-20_23h56.22.721,Info_measure_main_exp,2022.2.2,Win32,60.18657839,,,,,,,,,,,,,,,,,,masks/mask_004.jpg,,,,,,,,,,,,,,,,,,,,,,,,,,,,,,,,,,,,,,,,,,,0,1,1,3,1,,,,,,,,,,,,,,,,,,,,,,,,,,,,,,,,,,,,,,,,,,,,,,
798245,001,2022-11-20_23h56.22.721,Info_measure_main_exp,2022.2.2,Win32,60.18657839,,,,,,,,,,,,,,,,,,masks/mask_001.jpg,,,,,,,,,,,,,,,,,,,,,,,,,,,,,,,,,,,,,,,,,,,0,2,2,0,1,,,,,,,,,,,,,,,,,,,,,,,,,,,,,,,,,,,,,,,,,,,,,,
798245,001,2022-11-20_23h56.22.721,Info_measure_main_exp,2022.2.2,Win32,60.18657839,,,,,,,,,,,,,,,,,,masks/mask_005.jpg,,,,,,,,,,,,,,,,,,,,,,,,,,,,,,,,,,,,,,,,,,,0,3,3,4,1,,,,,,,,,,,,,,,,,,,,,,,,,,,,,,,,,,,,,,,,,,,,,,
798245,001,2022-11-20_23h56.22.721,Info_measure_main_exp,2022.2.2,Win32,60.18657839,,,,,,,,,,,,,,,,,,masks/mask_003.jpg,,,,,,,,,,,,,,,,,,,,,,,,,,,,,,,,,,,,,,,,,,,0,4,4,2,1,,,,,,,,,,,,,,,,,,,,,,,,,,,,,,,,,,,,,,,,,,,,,,
798245,001,2022-11-20_23h56.22.721,Info_measure_main_exp,2022.2.2,Win32,60.18657839,,,,,,,,,,,,,,,,,,masks/mask_003.jpg,,,,,,,,,,,,,,,,,,,,,,,,,,,,,,,,,,,,,,,,,,,,,,,,0,0,0,2,1,,,,,,,,,,,,,,,,,,,,,,,,,,,,,,,,,,,,,,,,,
798245,001,2022-11-20_23h56.22.721,Info_measure_main_exp,2022.2.2,Win32,60.18657839,,,,,,,,,,,,,,,,,,masks/mask_001.jpg,,,,,,,,,,,,,,,,,,,,,,,,,,,,,,,,,,,,,,,,,,,,,,,,0,1,1,0,1,,,,,,,,,,,,,,,,,,,,,,,,,,,,,,,,,,,,,,,,,
798245,001,2022-11-20_23h56.22.721,Info_measure_main_exp,2022.2.2,Win32,60.18657839,,,,,,,,,,,,,,,,,,masks/mask_004.jpg,,,,,,,,,,,,,,,,,,,,,,,,,,,,,,,,,,,,,,,,,,,,,,,,0,2,2,3,1,,,,,,,,,,,,,,,,,,,,,,,,,,,,,,,,,,,,,,,,,
798245,001,2022-11-20_23h56.22.721,Info_measure_main_exp,2022.2.2,Win32,60.18657839,,,,,,,,,,,,,,,,,,masks/mask_005.jpg,,,,,,,,,,,,,,,,,,,,,,,,,,,,,,,,,,,,,,,,,,,,,,,,0,3,3,4,1,,,,,,,,,,,,,,,,,,,,,,,,,,,,,,,,,,,,,,,,,
798245,001,2022-11-20_23h56.22.721,Info_measure_main_exp,2022.2.2,Win32,60.18657839,,,,,,,,,,,,,,,,,,masks/mask_002.jpg,,,,,,,,,,,,,,,,,,,,,,,,,,,,,,,,,,,,,,,,,,,,,,,,0,4,4,1,1,,,,,,,,,,,,,,,,,,,,,,,,,,,,,,,,,,,,,,,,,
798245,001,2022-11-20_23h56.22.721,Info_measure_main_exp,2022.2.2,Win32,60.18657839,,,,,,,,,,,,,,,,,,,,,,,,,,,,,,3,1.3333,1,,,,,,,,,,,,0,131,5,5,2274,2154,absent_patch/patch0002274.jpg,absent_patch/patch0002154.jpg,,,,,,,,,,,,,,,,,,,,-0.040740755,-0.095370399,1,0,0,response5disk,27,-0.00462963,-0.001851859,1,0,0,center_square,0,26,26,23,1,,,,,,,,,,,,,,,,,,,,,,,
798245,001,2022-11-20_23h56.22.721,Info_measure_main_exp,2022.2.2,Win32,60.18657839,,,,,,,,,,,,,,,,,,masks/mask_004.jpg,,,,,,,,,,,,,,,,,,,,,,,,,,,,,,,,,,,,,,,,,,,0,0,0,3,1,,,,,,,,,,,,,,,,,,,,,,,,,,,,,,,,,,,,,,,,,,,,,,
798245,001,2022-11-20_23h56.22.721,Info_measure_main_exp,2022.2.2,Win32,60.18657839,,,,,,,,,,,,,,,,,,masks/mask_001.jpg,,,,,,,,,,,,,,,,,,,,,,,,,,,,,,,,,,,,,,,,,,,0,1,1,0,1,,,,,,,,,,,,,,,,,,,,,,,,,,,,,,,,,,,,,,,,,,,,,,
798245,001,2022-11-20_23h56.22.721,Info_measure_main_exp,2022.2.2,Win32,60.18657839,,,,,,,,,,,,,,,,,,masks/mask_002.jpg,,,,,,,,,,,,,,,,,,,,,,,,,,,,,,,,,,,,,,,,,,,0,2,2,1,1,,,,,,,,,,,,,,,,,,,,,,,,,,,,,,,,,,,,,,,,,,,,,,
798245,001,2022-11-20_23h56.22.721,Info_measure_main_exp,2022.2.2,Win32,60.18657839,,,,,,,,,,,,,,,,,,masks/mask_005.jpg,,,,,,,,,,,,,,,,,,,,,,,,,,,,,,,,,,,,,,,,,,,0,3,3,4,1,,,,,,,,,,,,,,,,,,,,,,,,,,,,,,,,,,,,,,,,,,,,,,
798245,001,2022-11-20_23h56.22.721,Info_measure_main_exp,2022.2.2,Win32,60.18657839,,,,,,,,,,,,,,,,,,masks/mask_003.jpg,,,,,,,,,,,,,,,,,,,,,,,,,,,,,,,,,,,,,,,,,,,0,4,4,2,1,,,,,,,,,,,,,,,,,,,,,,,,,,,,,,,,,,,,,,,,,,,,,,
798245,001,2022-11-20_23h56.22.721,Info_measure_main_exp,2022.2.2,Win32,60.18657839,,,,,,,,,,,,,,,,,,masks/mask_004.jpg,,,,,,,,,,,,,,,,,,,,,,,,,,,,,,,,,,,,,,,,,,,,,,,,0,0,0,3,1,,,,,,,,,,,,,,,,,,,,,,,,,,,,,,,,,,,,,,,,,
798245,001,2022-11-20_23h56.22.721,Info_measure_main_exp,2022.2.2,Win32,60.18657839,,,,,,,,,,,,,,,,,,masks/mask_005.jpg,,,,,,,,,,,,,,,,,,,,,,,,,,,,,,,,,,,,,,,,,,,,,,,,0,1,1,4,1,,,,,,,,,,,,,,,,,,,,,,,,,,,,,,,,,,,,,,,,,
798245,001,2022-11-20_23h56.22.721,Info_measure_main_exp,2022.2.2,Win32,60.18657839,,,,,,,,,,,,,,,,,,masks/mask_001.jpg,,,,,,,,,,,,,,,,,,,,,,,,,,,,,,,,,,,,,,,,,,,,,,,,0,2,2,0,1,,,,,,,,,,,,,,,,,,,,,,,,,,,,,,,,,,,,,,,,,
798245,001,2022-11-20_23h56.22.721,Info_measure_main_exp,2022.2.2,Win32,60.18657839,,,,,,,,,,,,,,,,,,masks/mask_003.jpg,,,,,,,,,,,,,,,,,,,,,,,,,,,,,,,,,,,,,,,,,,,,,,,,0,3,3,2,1,,,,,,,,,,,,,,,,,,,,,,,,,,,,,,,,,,,,,,,,,
798245,001,2022-11-20_23h56.22.721,Info_measure_main_exp,2022.2.2,Win32,60.18657839,,,,,,,,,,,,,,,,,,masks/mask_002.jpg,,,,,,,,,,,,,,,,,,,,,,,,,,,,,,,,,,,,,,,,,,,,,,,,0,4,4,1,1,,,,,,,,,,,,,,,,,,,,,,,,,,,,,,,,,,,,,,,,,
798245,001,2022-11-20_23h56.22.721,Info_measure_main_exp,2022.2.2,Win32,60.18657839,,,,,,,,,,,,,,,,,,,,,,,,,,,,,,7,1.1001,1,,,,,,,,,,,,1,131,5,5,1,2166,present_patch/cong_131_5_a.jpg,absent_patch/patch0002166.jpg,,,,,,,,,,,,,,,,,,,,0.025925954,0.082407386,1,0,0,response1disk,28,0.002777806,-0.00462963,1,0,0,center_square,0,27,27,54,1,,,,,,,,,,,,,,,,,,,,,,,
798245,001,2022-11-20_23h56.22.721,Info_measure_main_exp,2022.2.2,Win32,60.18657839,,,,,,,,,,,,,,,,,,masks/mask_002.jpg,,,,,,,,,,,,,,,,,,,,,,,,,,,,,,,,,,,,,,,,,,,0,0,0,1,1,,,,,,,,,,,,,,,,,,,,,,,,,,,,,,,,,,,,,,,,,,,,,,
798245,001,2022-11-20_23h56.22.721,Info_measure_main_exp,2022.2.2,Win32,60.18657839,,,,,,,,,,,,,,,,,,masks/mask_005.jpg,,,,,,,,,,,,,,,,,,,,,,,,,,,,,,,,,,,,,,,,,,,0,1,1,4,1,,,,,,,,,,,,,,,,,,,,,,,,,,,,,,,,,,,,,,,,,,,,,,
798245,001,2022-11-20_23h56.22.721,Info_measure_main_exp,2022.2.2,Win32,60.18657839,,,,,,,,,,,,,,,,,,masks/mask_003.jpg,,,,,,,,,,,,,,,,,,,,,,,,,,,,,,,,,,,,,,,,,,,0,2,2,2,1,,,,,,,,,,,,,,,,,,,,,,,,,,,,,,,,,,,,,,,,,,,,,,
798245,001,2022-11-20_23h56.22.721,Info_measure_main_exp,2022.2.2,Win32,60.18657839,,,,,,,,,,,,,,,,,,masks/mask_004.jpg,,,,,,,,,,,,,,,,,,,,,,,,,,,,,,,,,,,,,,,,,,,0,3,3,3,1,,,,,,,,,,,,,,,,,,,,,,,,,,,,,,,,,,,,,,,,,,,,,,
798245,001,2022-11-20_23h56.22.721,Info_measure_main_exp,2022.2.2,Win32,60.18657839,,,,,,,,,,,,,,,,,,masks/mask_001.jpg,,,,,,,,,,,,,,,,,,,,,,,,,,,,,,,,,,,,,,,,,,,0,4,4,0,1,,,,,,,,,,,,,,,,,,,,,,,,,,,,,,,,,,,,,,,,,,,,,,
798245,001,2022-11-20_23h56.22.721,Info_measure_main_exp,2022.2.2,Win32,60.18657839,,,,,,,,,,,,,,,,,,masks/mask_002.jpg,,,,,,,,,,,,,,,,,,,,,,,,,,,,,,,,,,,,,,,,,,,,,,,,0,0,0,1,1,,,,,,,,,,,,,,,,,,,,,,,,,,,,,,,,,,,,,,,,,
798245,001,2022-11-20_23h56.22.721,Info_measure_main_exp,2022.2.2,Win32,60.18657839,,,,,,,,,,,,,,,,,,masks/mask_003.jpg,,,,,,,,,,,,,,,,,,,,,,,,,,,,,,,,,,,,,,,,,,,,,,,,0,1,1,2,1,,,,,,,,,,,,,,,,,,,,,,,,,,,,,,,,,,,,,,,,,
798245,001,2022-11-20_23h56.22.721,Info_measure_main_exp,2022.2.2,Win32,60.18657839,,,,,,,,,,,,,,,,,,masks/mask_001.jpg,,,,,,,,,,,,,,,,,,,,,,,,,,,,,,,,,,,,,,,,,,,,,,,,0,2,2,0,1,,,,,,,,,,,,,,,,,,,,,,,,,,,,,,,,,,,,,,,,,
798245,001,2022-11-20_23h56.22.721,Info_measure_main_exp,2022.2.2,Win32,60.18657839,,,,,,,,,,,,,,,,,,masks/mask_004.jpg,,,,,,,,,,,,,,,,,,,,,,,,,,,,,,,,,,,,,,,,,,,,,,,,0,3,3,3,1,,,,,,,,,,,,,,,,,,,,,,,,,,,,,,,,,,,,,,,,,
798245,001,2022-11-20_23h56.22.721,Info_measure_main_exp,2022.2.2,Win32,60.18657839,,,,,,,,,,,,,,,,,,masks/mask_005.jpg,,,,,,,,,,,,,,,,,,,,,,,,,,,,,,,,,,,,,,,,,,,,,,,,0,4,4,4,1,,,,,,,,,,,,,,,,,,,,,,,,,,,,,,,,,,,,,,,,,
798245,001,2022-11-20_23h56.22.721,Info_measure_main_exp,2022.2.2,Win32,60.18657839,,,,,,,,,,,,,,,,,,,,,,,,,,,,,,6,1.3832,1,,,,,,,,,,,,0,131,5,5,1974,2298,absent_patch/patch0001974.jpg,absent_patch/patch0002298.jpg,,,,,,,,,,,,,,,,,,,,0.046296296,0.02407406,1,0,0,response1disk,29,0.014814801,0.006481489,1,0,0,center_square,0,28,28,6,1,,,,,,,,,,,,,,,,,,,,,,,
798245,001,2022-11-20_23h56.22.721,Info_measure_main_exp,2022.2.2,Win32,60.18657839,,,,,,,,,,,,,,,,,,masks/mask_002.jpg,,,,,,,,,,,,,,,,,,,,,,,,,,,,,,,,,,,,,,,,,,,0,0,0,1,1,,,,,,,,,,,,,,,,,,,,,,,,,,,,,,,,,,,,,,,,,,,,,,
798245,001,2022-11-20_23h56.22.721,Info_measure_main_exp,2022.2.2,Win32,60.18657839,,,,,,,,,,,,,,,,,,masks/mask_004.jpg,,,,,,,,,,,,,,,,,,,,,,,,,,,,,,,,,,,,,,,,,,,0,1,1,3,1,,,,,,,,,,,,,,,,,,,,,,,,,,,,,,,,,,,,,,,,,,,,,,
798245,001,2022-11-20_23h56.22.721,Info_measure_main_exp,2022.2.2,Win32,60.18657839,,,,,,,,,,,,,,,,,,masks/mask_001.jpg,,,,,,,,,,,,,,,,,,,,,,,,,,,,,,,,,,,,,,,,,,,0,2,2,0,1,,,,,,,,,,,,,,,,,,,,,,,,,,,,,,,,,,,,,,,,,,,,,,
798245,001,2022-11-20_23h56.22.721,Info_measure_main_exp,2022.2.2,Win32,60.18657839,,,,,,,,,,,,,,,,,,masks/mask_003.jpg,,,,,,,,,,,,,,,,,,,,,,,,,,,,,,,,,,,,,,,,,,,0,3,3,2,1,,,,,,,,,,,,,,,,,,,,,,,,,,,,,,,,,,,,,,,,,,,,,,
798245,001,2022-11-20_23h56.22.721,Info_measure_main_exp,2022.2.2,Win32,60.18657839,,,,,,,,,,,,,,,,,,masks/mask_005.jpg,,,,,,,,,,,,,,,,,,,,,,,,,,,,,,,,,,,,,,,,,,,0,4,4,4,1,,,,,,,,,,,,,,,,,,,,,,,,,,,,,,,,,,,,,,,,,,,,,,
798245,001,2022-11-20_23h56.22.721,Info_measure_main_exp,2022.2.2,Win32,60.18657839,,,,,,,,,,,,,,,,,,masks/mask_005.jpg,,,,,,,,,,,,,,,,,,,,,,,,,,,,,,,,,,,,,,,,,,,,,,,,0,0,0,4,1,,,,,,,,,,,,,,,,,,,,,,,,,,,,,,,,,,,,,,,,,
798245,001,2022-11-20_23h56.22.721,Info_measure_main_exp,2022.2.2,Win32,60.18657839,,,,,,,,,,,,,,,,,,masks/mask_001.jpg,,,,,,,,,,,,,,,,,,,,,,,,,,,,,,,,,,,,,,,,,,,,,,,,0,1,1,0,1,,,,,,,,,,,,,,,,,,,,,,,,,,,,,,,,,,,,,,,,,
798245,001,2022-11-20_23h56.22.721,Info_measure_main_exp,2022.2.2,Win32,60.18657839,,,,,,,,,,,,,,,,,,masks/mask_003.jpg,,,,,,,,,,,,,,,,,,,,,,,,,,,,,,,,,,,,,,,,,,,,,,,,0,2,2,2,1,,,,,,,,,,,,,,,,,,,,,,,,,,,,,,,,,,,,,,,,,
798245,001,2022-11-20_23h56.22.721,Info_measure_main_exp,2022.2.2,Win32,60.18657839,,,,,,,,,,,,,,,,,,masks/mask_002.jpg,,,,,,,,,,,,,,,,,,,,,,,,,,,,,,,,,,,,,,,,,,,,,,,,0,3,3,1,1,,,,,,,,,,,,,,,,,,,,,,,,,,,,,,,,,,,,,,,,,
798245,001,2022-11-20_23h56.22.721,Info_measure_main_exp,2022.2.2,Win32,60.18657839,,,,,,,,,,,,,,,,,,masks/mask_004.jpg,,,,,,,,,,,,,,,,,,,,,,,,,,,,,,,,,,,,,,,,,,,,,,,,0,4,4,3,1,,,,,,,,,,,,,,,,,,,,,,,,,,,,,,,,,,,,,,,,,
798245,001,2022-11-20_23h56.22.721,Info_measure_main_exp,2022.2.2,Win32,60.18657839,,,,,,,,,,,,,,,,,,,,,,,,,,,,,,0,0.6,1,,,,,,,,,,,,0,131,5,5,2298,2298,absent_patch/patch0002298.jpg,absent_patch/patch0002298.jpg,,,,,,,,,,,,,,,,,,,,-0.062962921,0.11296297,1,0,0,response7disk,30,-0.008333347,-0.002777771,1,0,0,center_square,0,29,29,37,1,,,,,,,,,,,,,,,,,,,,,,,
798245,001,2022-11-20_23h56.22.721,Info_measure_main_exp,2022.2.2,Win32,60.18657839,,,,,,,,,,,,,,,,,,masks/mask_003.jpg,,,,,,,,,,,,,,,,,,,,,,,,,,,,,,,,,,,,,,,,,,,0,0,0,2,1,,,,,,,,,,,,,,,,,,,,,,,,,,,,,,,,,,,,,,,,,,,,,,
798245,001,2022-11-20_23h56.22.721,Info_measure_main_exp,2022.2.2,Win32,60.18657839,,,,,,,,,,,,,,,,,,masks/mask_002.jpg,,,,,,,,,,,,,,,,,,,,,,,,,,,,,,,,,,,,,,,,,,,0,1,1,1,1,,,,,,,,,,,,,,,,,,,,,,,,,,,,,,,,,,,,,,,,,,,,,,
798245,001,2022-11-20_23h56.22.721,Info_measure_main_exp,2022.2.2,Win32,60.18657839,,,,,,,,,,,,,,,,,,masks/mask_004.jpg,,,,,,,,,,,,,,,,,,,,,,,,,,,,,,,,,,,,,,,,,,,0,2,2,3,1,,,,,,,,,,,,,,,,,,,,,,,,,,,,,,,,,,,,,,,,,,,,,,
798245,001,2022-11-20_23h56.22.721,Info_measure_main_exp,2022.2.2,Win32,60.18657839,,,,,,,,,,,,,,,,,,masks/mask_001.jpg,,,,,,,,,,,,,,,,,,,,,,,,,,,,,,,,,,,,,,,,,,,0,3,3,0,1,,,,,,,,,,,,,,,,,,,,,,,,,,,,,,,,,,,,,,,,,,,,,,
798245,001,2022-11-20_23h56.22.721,Info_measure_main_exp,2022.2.2,Win32,60.18657839,,,,,,,,,,,,,,,,,,masks/mask_005.jpg,,,,,,,,,,,,,,,,,,,,,,,,,,,,,,,,,,,,,,,,,,,0,4,4,4,1,,,,,,,,,,,,,,,,,,,,,,,,,,,,,,,,,,,,,,,,,,,,,,
798245,001,2022-11-20_23h56.22.721,Info_measure_main_exp,2022.2.2,Win32,60.18657839,,,,,,,,,,,,,,,,,,masks/mask_004.jpg,,,,,,,,,,,,,,,,,,,,,,,,,,,,,,,,,,,,,,,,,,,,,,,,0,0,0,3,1,,,,,,,,,,,,,,,,,,,,,,,,,,,,,,,,,,,,,,,,,
798245,001,2022-11-20_23h56.22.721,Info_measure_main_exp,2022.2.2,Win32,60.18657839,,,,,,,,,,,,,,,,,,masks/mask_001.jpg,,,,,,,,,,,,,,,,,,,,,,,,,,,,,,,,,,,,,,,,,,,,,,,,0,1,1,0,1,,,,,,,,,,,,,,,,,,,,,,,,,,,,,,,,,,,,,,,,,
798245,001,2022-11-20_23h56.22.721,Info_measure_main_exp,2022.2.2,Win32,60.18657839,,,,,,,,,,,,,,,,,,masks/mask_002.jpg,,,,,,,,,,,,,,,,,,,,,,,,,,,,,,,,,,,,,,,,,,,,,,,,0,2,2,1,1,,,,,,,,,,,,,,,,,,,,,,,,,,,,,,,,,,,,,,,,,
798245,001,2022-11-20_23h56.22.721,Info_measure_main_exp,2022.2.2,Win32,60.18657839,,,,,,,,,,,,,,,,,,masks/mask_003.jpg,,,,,,,,,,,,,,,,,,,,,,,,,,,,,,,,,,,,,,,,,,,,,,,,0,3,3,2,1,,,,,,,,,,,,,,,,,,,,,,,,,,,,,,,,,,,,,,,,,
798245,001,2022-11-20_23h56.22.721,Info_measure_main_exp,2022.2.2,Win32,60.18657839,,,,,,,,,,,,,,,,,,masks/mask_005.jpg,,,,,,,,,,,,,,,,,,,,,,,,,,,,,,,,,,,,,,,,,,,,,,,,0,4,4,4,1,,,,,,,,,,,,,,,,,,,,,,,,,,,,,,,,,,,,,,,,,
798245,001,2022-11-20_23h56.22.721,Info_measure_main_exp,2022.2.2,Win32,60.18657839,,,,,,,,,,,,,,,,,,,,,,,,,,,,,,7,0.7666,1,,,,,,,,,,,,0,131,5,5,2250,1986,absent_patch/patch0002250.jpg,absent_patch/patch0001986.jpg,,,,,,,,,,,,,,,,,,,,0.021296325,0.122222229,1,0,0,response1disk,31,-0.003703718,0.000925912,1,0,0,center_square,0,30,30,29,1,,,,,,,,,,,,,,,,,,,,,,,
798245,001,2022-11-20_23h56.22.721,Info_measure_main_exp,2022.2.2,Win32,60.18657839,,,,,,,,,,,,,,,,,,masks/mask_001.jpg,,,,,,,,,,,,,,,,,,,,,,,,,,,,,,,,,,,,,,,,,,,0,0,0,0,1,,,,,,,,,,,,,,,,,,,,,,,,,,,,,,,,,,,,,,,,,,,,,,
798245,001,2022-11-20_23h56.22.721,Info_measure_main_exp,2022.2.2,Win32,60.18657839,,,,,,,,,,,,,,,,,,masks/mask_004.jpg,,,,,,,,,,,,,,,,,,,,,,,,,,,,,,,,,,,,,,,,,,,0,1,1,3,1,,,,,,,,,,,,,,,,,,,,,,,,,,,,,,,,,,,,,,,,,,,,,,
798245,001,2022-11-20_23h56.22.721,Info_measure_main_exp,2022.2.2,Win32,60.18657839,,,,,,,,,,,,,,,,,,masks/mask_002.jpg,,,,,,,,,,,,,,,,,,,,,,,,,,,,,,,,,,,,,,,,,,,0,2,2,1,1,,,,,,,,,,,,,,,,,,,,,,,,,,,,,,,,,,,,,,,,,,,,,,
798245,001,2022-11-20_23h56.22.721,Info_measure_main_exp,2022.2.2,Win32,60.18657839,,,,,,,,,,,,,,,,,,masks/mask_005.jpg,,,,,,,,,,,,,,,,,,,,,,,,,,,,,,,,,,,,,,,,,,,0,3,3,4,1,,,,,,,,,,,,,,,,,,,,,,,,,,,,,,,,,,,,,,,,,,,,,,
798245,001,2022-11-20_23h56.22.721,Info_measure_main_exp,2022.2.2,Win32,60.18657839,,,,,,,,,,,,,,,,,,masks/mask_003.jpg,,,,,,,,,,,,,,,,,,,,,,,,,,,,,,,,,,,,,,,,,,,0,4,4,2,1,,,,,,,,,,,,,,,,,,,,,,,,,,,,,,,,,,,,,,,,,,,,,,
798245,001,2022-11-20_23h56.22.721,Info_measure_main_exp,2022.2.2,Win32,60.18657839,,,,,,,,,,,,,,,,,,masks/mask_002.jpg,,,,,,,,,,,,,,,,,,,,,,,,,,,,,,,,,,,,,,,,,,,,,,,,0,0,0,1,1,,,,,,,,,,,,,,,,,,,,,,,,,,,,,,,,,,,,,,,,,
798245,001,2022-11-20_23h56.22.721,Info_measure_main_exp,2022.2.2,Win32,60.18657839,,,,,,,,,,,,,,,,,,masks/mask_003.jpg,,,,,,,,,,,,,,,,,,,,,,,,,,,,,,,,,,,,,,,,,,,,,,,,0,1,1,2,1,,,,,,,,,,,,,,,,,,,,,,,,,,,,,,,,,,,,,,,,,
798245,001,2022-11-20_23h56.22.721,Info_measure_main_exp,2022.2.2,Win32,60.18657839,,,,,,,,,,,,,,,,,,masks/mask_004.jpg,,,,,,,,,,,,,,,,,,,,,,,,,,,,,,,,,,,,,,,,,,,,,,,,0,2,2,3,1,,,,,,,,,,,,,,,,,,,,,,,,,,,,,,,,,,,,,,,,,
798245,001,2022-11-20_23h56.22.721,Info_measure_main_exp,2022.2.2,Win32,60.18657839,,,,,,,,,,,,,,,,,,masks/mask_001.jpg,,,,,,,,,,,,,,,,,,,,,,,,,,,,,,,,,,,,,,,,,,,,,,,,0,3,3,0,1,,,,,,,,,,,,,,,,,,,,,,,,,,,,,,,,,,,,,,,,,
798245,001,2022-11-20_23h56.22.721,Info_measure_main_exp,2022.2.2,Win32,60.18657839,,,,,,,,,,,,,,,,,,masks/mask_005.jpg,,,,,,,,,,,,,,,,,,,,,,,,,,,,,,,,,,,,,,,,,,,,,,,,0,4,4,4,1,,,,,,,,,,,,,,,,,,,,,,,,,,,,,,,,,,,,,,,,,
798245,001,2022-11-20_23h56.22.721,Info_measure_main_exp,2022.2.2,Win32,60.18657839,,,,,,,,,,,,,,,,,,,,,,,,,,,,,,0,0.4666,1,,,,,,,,,,,,1,131,5,5,1,1,present_patch/cong_131_5_a.jpg,present_patch/cong_131_5_a.jpg,,,,,,,,,,,,,,,,,,,,-0.033333319,0.076851845,1,0,0,response7disk,32,-0.003703718,0.008333312,1,0,0,center_square,0,31,31,30,1,,,,,,,,,,,,,,,,,,,,,,,
798245,001,2022-11-20_23h56.22.721,Info_measure_main_exp,2022.2.2,Win32,60.18657839,,,,,,,,,,,,,,,,,,masks/mask_003.jpg,,,,,,,,,,,,,,,,,,,,,,,,,,,,,,,,,,,,,,,,,,,0,0,0,2,1,,,,,,,,,,,,,,,,,,,,,,,,,,,,,,,,,,,,,,,,,,,,,,
798245,001,2022-11-20_23h56.22.721,Info_measure_main_exp,2022.2.2,Win32,60.18657839,,,,,,,,,,,,,,,,,,masks/mask_002.jpg,,,,,,,,,,,,,,,,,,,,,,,,,,,,,,,,,,,,,,,,,,,0,1,1,1,1,,,,,,,,,,,,,,,,,,,,,,,,,,,,,,,,,,,,,,,,,,,,,,
798245,001,2022-11-20_23h56.22.721,Info_measure_main_exp,2022.2.2,Win32,60.18657839,,,,,,,,,,,,,,,,,,masks/mask_001.jpg,,,,,,,,,,,,,,,,,,,,,,,,,,,,,,,,,,,,,,,,,,,0,2,2,0,1,,,,,,,,,,,,,,,,,,,,,,,,,,,,,,,,,,,,,,,,,,,,,,
798245,001,2022-11-20_23h56.22.721,Info_measure_main_exp,2022.2.2,Win32,60.18657839,,,,,,,,,,,,,,,,,,masks/mask_004.jpg,,,,,,,,,,,,,,,,,,,,,,,,,,,,,,,,,,,,,,,,,,,0,3,3,3,1,,,,,,,,,,,,,,,,,,,,,,,,,,,,,,,,,,,,,,,,,,,,,,
798245,001,2022-11-20_23h56.22.721,Info_measure_main_exp,2022.2.2,Win32,60.18657839,,,,,,,,,,,,,,,,,,masks/mask_005.jpg,,,,,,,,,,,,,,,,,,,,,,,,,,,,,,,,,,,,,,,,,,,0,4,4,4,1,,,,,,,,,,,,,,,,,,,,,,,,,,,,,,,,,,,,,,,,,,,,,,
798245,001,2022-11-20_23h56.22.721,Info_measure_main_exp,2022.2.2,Win32,60.18657839,,,,,,,,,,,,,,,,,,masks/mask_001.jpg,,,,,,,,,,,,,,,,,,,,,,,,,,,,,,,,,,,,,,,,,,,,,,,,0,0,0,0,1,,,,,,,,,,,,,,,,,,,,,,,,,,,,,,,,,,,,,,,,,
798245,001,2022-11-20_23h56.22.721,Info_measure_main_exp,2022.2.2,Win32,60.18657839,,,,,,,,,,,,,,,,,,masks/mask_005.jpg,,,,,,,,,,,,,,,,,,,,,,,,,,,,,,,,,,,,,,,,,,,,,,,,0,1,1,4,1,,,,,,,,,,,,,,,,,,,,,,,,,,,,,,,,,,,,,,,,,
798245,001,2022-11-20_23h56.22.721,Info_measure_main_exp,2022.2.2,Win32,60.18657839,,,,,,,,,,,,,,,,,,masks/mask_004.jpg,,,,,,,,,,,,,,,,,,,,,,,,,,,,,,,,,,,,,,,,,,,,,,,,0,2,2,3,1,,,,,,,,,,,,,,,,,,,,,,,,,,,,,,,,,,,,,,,,,
798245,001,2022-11-20_23h56.22.721,Info_measure_main_exp,2022.2.2,Win32,60.18657839,,,,,,,,,,,,,,,,,,masks/mask_003.jpg,,,,,,,,,,,,,,,,,,,,,,,,,,,,,,,,,,,,,,,,,,,,,,,,0,3,3,2,1,,,,,,,,,,,,,,,,,,,,,,,,,,,,,,,,,,,,,,,,,
798245,001,2022-11-20_23h56.22.721,Info_measure_main_exp,2022.2.2,Win32,60.18657839,,,,,,,,,,,,,,,,,,masks/mask_002.jpg,,,,,,,,,,,,,,,,,,,,,,,,,,,,,,,,,,,,,,,,,,,,,,,,0,4,4,1,1,,,,,,,,,,,,,,,,,,,,,,,,,,,,,,,,,,,,,,,,,
798245,001,2022-11-20_23h56.22.721,Info_measure_main_exp,2022.2.2,Win32,60.18657839,,,,,,,,,,,,,,,,,,,,,,,,,,,,,,5,1.4168,1,,,,,,,,,,,,0,131,5,5,2298,2274,absent_patch/patch0002298.jpg,absent_patch/patch0002274.jpg,,,,,,,,,,,,,,,,,,,,0.107407393,-0.050925926,1,0,0,response3disk,33,-0.006481453,0.0074074,1,0,0,center_square,0,32,32,1,1,,,,,,,,,,,,,,,,,,,,,,,
798245,001,2022-11-20_23h56.22.721,Info_measure_main_exp,2022.2.2,Win32,60.18657839,,,,,,,,,,,,,,,,,,masks/mask_005.jpg,,,,,,,,,,,,,,,,,,,,,,,,,,,,,,,,,,,,,,,,,,,0,0,0,4,1,,,,,,,,,,,,,,,,,,,,,,,,,,,,,,,,,,,,,,,,,,,,,,
798245,001,2022-11-20_23h56.22.721,Info_measure_main_exp,2022.2.2,Win32,60.18657839,,,,,,,,,,,,,,,,,,masks/mask_003.jpg,,,,,,,,,,,,,,,,,,,,,,,,,,,,,,,,,,,,,,,,,,,0,1,1,2,1,,,,,,,,,,,,,,,,,,,,,,,,,,,,,,,,,,,,,,,,,,,,,,
798245,001,2022-11-20_23h56.22.721,Info_measure_main_exp,2022.2.2,Win32,60.18657839,,,,,,,,,,,,,,,,,,masks/mask_001.jpg,,,,,,,,,,,,,,,,,,,,,,,,,,,,,,,,,,,,,,,,,,,0,2,2,0,1,,,,,,,,,,,,,,,,,,,,,,,,,,,,,,,,,,,,,,,,,,,,,,
798245,001,2022-11-20_23h56.22.721,Info_measure_main_exp,2022.2.2,Win32,60.18657839,,,,,,,,,,,,,,,,,,masks/mask_004.jpg,,,,,,,,,,,,,,,,,,,,,,,,,,,,,,,,,,,,,,,,,,,0,3,3,3,1,,,,,,,,,,,,,,,,,,,,,,,,,,,,,,,,,,,,,,,,,,,,,,
798245,001,2022-11-20_23h56.22.721,Info_measure_main_exp,2022.2.2,Win32,60.18657839,,,,,,,,,,,,,,,,,,masks/mask_002.jpg,,,,,,,,,,,,,,,,,,,,,,,,,,,,,,,,,,,,,,,,,,,0,4,4,1,1,,,,,,,,,,,,,,,,,,,,,,,,,,,,,,,,,,,,,,,,,,,,,,
798245,001,2022-11-20_23h56.22.721,Info_measure_main_exp,2022.2.2,Win32,60.18657839,,,,,,,,,,,,,,,,,,masks/mask_001.jpg,,,,,,,,,,,,,,,,,,,,,,,,,,,,,,,,,,,,,,,,,,,,,,,,0,0,0,0,1,,,,,,,,,,,,,,,,,,,,,,,,,,,,,,,,,,,,,,,,,
798245,001,2022-11-20_23h56.22.721,Info_measure_main_exp,2022.2.2,Win32,60.18657839,,,,,,,,,,,,,,,,,,masks/mask_003.jpg,,,,,,,,,,,,,,,,,,,,,,,,,,,,,,,,,,,,,,,,,,,,,,,,0,1,1,2,1,,,,,,,,,,,,,,,,,,,,,,,,,,,,,,,,,,,,,,,,,
798245,001,2022-11-20_23h56.22.721,Info_measure_main_exp,2022.2.2,Win32,60.18657839,,,,,,,,,,,,,,,,,,masks/mask_002.jpg,,,,,,,,,,,,,,,,,,,,,,,,,,,,,,,,,,,,,,,,,,,,,,,,0,2,2,1,1,,,,,,,,,,,,,,,,,,,,,,,,,,,,,,,,,,,,,,,,,
798245,001,2022-11-20_23h56.22.721,Info_measure_main_exp,2022.2.2,Win32,60.18657839,,,,,,,,,,,,,,,,,,masks/mask_004.jpg,,,,,,,,,,,,,,,,,,,,,,,,,,,,,,,,,,,,,,,,,,,,,,,,0,3,3,3,1,,,,,,,,,,,,,,,,,,,,,,,,,,,,,,,,,,,,,,,,,
798245,001,2022-11-20_23h56.22.721,Info_measure_main_exp,2022.2.2,Win32,60.18657839,,,,,,,,,,,,,,,,,,masks/mask_005.jpg,,,,,,,,,,,,,,,,,,,,,,,,,,,,,,,,,,,,,,,,,,,,,,,,0,4,4,4,1,,,,,,,,,,,,,,,,,,,,,,,,,,,,,,,,,,,,,,,,,
798245,001,2022-11-20_23h56.22.721,Info_measure_main_exp,2022.2.2,Win32,60.18657839,,,,,,,,,,,,,,,,,,,,,,,,,,,,,,5,0.8497,1,,,,,,,,,,,,0,131,5,5,2190,1974,absent_patch/patch0002190.jpg,absent_patch/patch0001974.jpg,,,,,,,,,,,,,,,,,,,,0.12037037,-0.00462963,1,0,0,response3disk,34,-0.010185171,-0.000925947,1,0,0,center_square,0,33,33,119,1,,,,,,,,,,,,,,,,,,,,,,,
798245,001,2022-11-20_23h56.22.721,Info_measure_main_exp,2022.2.2,Win32,60.18657839,,,,,,,,,,,,,,,,,,masks/mask_002.jpg,,,,,,,,,,,,,,,,,,,,,,,,,,,,,,,,,,,,,,,,,,,0,0,0,1,1,,,,,,,,,,,,,,,,,,,,,,,,,,,,,,,,,,,,,,,,,,,,,,
798245,001,2022-11-20_23h56.22.721,Info_measure_main_exp,2022.2.2,Win32,60.18657839,,,,,,,,,,,,,,,,,,masks/mask_004.jpg,,,,,,,,,,,,,,,,,,,,,,,,,,,,,,,,,,,,,,,,,,,0,1,1,3,1,,,,,,,,,,,,,,,,,,,,,,,,,,,,,,,,,,,,,,,,,,,,,,
798245,001,2022-11-20_23h56.22.721,Info_measure_main_exp,2022.2.2,Win32,60.18657839,,,,,,,,,,,,,,,,,,masks/mask_005.jpg,,,,,,,,,,,,,,,,,,,,,,,,,,,,,,,,,,,,,,,,,,,0,2,2,4,1,,,,,,,,,,,,,,,,,,,,,,,,,,,,,,,,,,,,,,,,,,,,,,
798245,001,2022-11-20_23h56.22.721,Info_measure_main_exp,2022.2.2,Win32,60.18657839,,,,,,,,,,,,,,,,,,masks/mask_003.jpg,,,,,,,,,,,,,,,,,,,,,,,,,,,,,,,,,,,,,,,,,,,0,3,3,2,1,,,,,,,,,,,,,,,,,,,,,,,,,,,,,,,,,,,,,,,,,,,,,,
798245,001,2022-11-20_23h56.22.721,Info_measure_main_exp,2022.2.2,Win32,60.18657839,,,,,,,,,,,,,,,,,,masks/mask_001.jpg,,,,,,,,,,,,,,,,,,,,,,,,,,,,,,,,,,,,,,,,,,,0,4,4,0,1,,,,,,,,,,,,,,,,,,,,,,,,,,,,,,,,,,,,,,,,,,,,,,
798245,001,2022-11-20_23h56.22.721,Info_measure_main_exp,2022.2.2,Win32,60.18657839,,,,,,,,,,,,,,,,,,masks/mask_003.jpg,,,,,,,,,,,,,,,,,,,,,,,,,,,,,,,,,,,,,,,,,,,,,,,,0,0,0,2,1,,,,,,,,,,,,,,,,,,,,,,,,,,,,,,,,,,,,,,,,,
798245,001,2022-11-20_23h56.22.721,Info_measure_main_exp,2022.2.2,Win32,60.18657839,,,,,,,,,,,,,,,,,,masks/mask_001.jpg,,,,,,,,,,,,,,,,,,,,,,,,,,,,,,,,,,,,,,,,,,,,,,,,0,1,1,0,1,,,,,,,,,,,,,,,,,,,,,,,,,,,,,,,,,,,,,,,,,
798245,001,2022-11-20_23h56.22.721,Info_measure_main_exp,2022.2.2,Win32,60.18657839,,,,,,,,,,,,,,,,,,masks/mask_004.jpg,,,,,,,,,,,,,,,,,,,,,,,,,,,,,,,,,,,,,,,,,,,,,,,,0,2,2,3,1,,,,,,,,,,,,,,,,,,,,,,,,,,,,,,,,,,,,,,,,,
798245,001,2022-11-20_23h56.22.721,Info_measure_main_exp,2022.2.2,Win32,60.18657839,,,,,,,,,,,,,,,,,,masks/mask_005.jpg,,,,,,,,,,,,,,,,,,,,,,,,,,,,,,,,,,,,,,,,,,,,,,,,0,3,3,4,1,,,,,,,,,,,,,,,,,,,,,,,,,,,,,,,,,,,,,,,,,
