participant,session,date,expName,psychopyVersion,OS,frameRate,space_press_continue.keys,space_press_continue.rt,space_press_continue_2.keys,space_press_continue_2.rt,space_press_continue_3.keys,space_press_continue_3.rt,space_press_continue_4.keys,space_press_continue_4.rt,space_press_continue_5.keys,space_press_continue_5.rt,space_press_continue_6.keys,space_press_continue_6.rt,prac_mask_loop_1.thisRepN,prac_mask_loop_1.thisTrialN,prac_mask_loop_1.thisN,prac_mask_loop_1.thisIndex,prac_mask_loop_1.ran,mask_name,prac_mask_loop_2.thisRepN,prac_mask_loop_2.thisTrialN,prac_mask_loop_2.thisN,prac_mask_loop_2.thisIndex,prac_mask_loop_2.ran,mouse_2.x,mouse_2.y,mouse_2.leftButton,mouse_2.midButton,mouse_2.rightButton,mouse_2.clicked_name,similarity,response_time,Pass,mouse_12.x,mouse_12.y,mouse_12.leftButton,mouse_12.midButton,mouse_12.rightButton,mouse_12.clicked_name,prac_loop.thisRepN,prac_loop.thisTrialN,prac_loop.thisN,prac_loop.thisIndex,prac_loop.ran,Pair_type,Image_num,Patch_1_loc,Patch_2_loc,Patch_1_info,Patch_2_info,Patch_1_name,Patch_2_name,mouse_1.x,mouse_1.y,mouse_1.leftButton,mouse_1.midButton,mouse_1.rightButton,mouse_1.time,mouse_1.clicked_name,space_press_continue_7.keys,space_press_continue_7.rt,mask_loop.thisRepN,mask_loop.thisTrialN,mask_loop.thisN,mask_loop.thisIndex,mask_loop.ran,mask_loop_2.thisRepN,mask_loop_2.thisTrialN,mask_loop_2.thisN,mask_loop_2.thisIndex,mask_loop_2.ran,mouse.x,mouse.y,mouse.leftButton,mouse.midButton,mouse.rightButton,mouse.clicked_name,trialNumber,mouse_11.x,mouse_11.y,mouse_11.leftButton,mouse_11.midButton,mouse_11.rightButton,mouse_11.clicked_name,first_pass_loop.thisRepN,first_pass_loop.thisTrialN,first_pass_loop.thisN,first_pass_loop.thisIndex,first_pass_loop.ran,mask_loop_3.thisRepN,mask_loop_3.thisTrialN,mask_loop_3.thisN,mask_loop_3.thisIndex,mask_loop_3.ran,mask_loop_4.thisRepN,mask_loop_4.thisTrialN,mask_loop_4.thisN,mask_loop_4.thisIndex,mask_loop_4.ran,mouse_3.x,mouse_3.y,mouse_3.leftButton,mouse_3.midButton,mouse_3.rightButton,mouse_3.clicked_name,double_pass_loop.thisRepN,double_pass_loop.thisTrialN,double_pass_loop.thisN,double_pass_loop.thisIndex,double_pass_loop.ran,space_exit.keys,space_exit.rt
798491,001,2022-11-20_17h55.47.358,Info_measure_main_exp,2022.2.2,Win32,59.94844434,,,,,,,,,,,,,,,,,,,,,,,,,,,,,,,,,,,,,,,,,,,,,,,,,,,,,,,,,,,,,,,,,,,,,,,,,,,,,,,,,,,,,,,,,,,,,,,,,,,,,,,,,,,,,,,
798491,001,2022-11-20_17h55.47.358,Info_measure_main_exp,2022.2.2,Win32,59.94844434,,,,,,,,,,,,,,,,,,,,,,,,,,,,,,,,,,,,,,,,,,,,,,,,,,,,,,,,,,,,,,,,,,,,,,,,,,,,,,,,,,,,,,,,,,,,,,,,,,,,,,,,,,,,,,,
798491,001,2022-11-20_17h55.47.358,Info_measure_main_exp,2022.2.2,Win32,59.94844434,space,6.5045,,,,,,,,,,,,,,,,,,,,,,,,,,,,,,,,,,,,,,,,,,,,,,,,,,,,,,,,,,,,,,,,,,,,,,,,,,,,,,,,,,,,,,,,,,,,,,,,,,,,,,,,,,,,,
798491,001,2022-11-20_17h55.47.358,Info_measure_main_exp,2022.2.2,Win32,59.94844434,,,space,9.2145,,,,,,,,,,,,,,,,,,,,,,,,,,,,,,,,,,,,,,,,,,,,,,,,,,,,,,,,,,,,,,,,,,,,,,,,,,,,,,,,,,,,,,,,,,,,,,,,,,,,,,,,,,,
798491,001,2022-11-20_17h55.47.358,Info_measure_main_exp,2022.2.2,Win32,59.94844434,,,,,space,4.1915,,,,,,,,,,,,,,,,,,,,,,,,,,,,,,,,,,,,,,,,,,,,,,,,,,,,,,,,,,,,,,,,,,,,,,,,,,,,,,,,,,,,,,,,,,,,,,,,,,,,,,,,,
798491,001,2022-11-20_17h55.47.358,Info_measure_main_exp,2022.2.2,Win32,59.94844434,,,,,,,space,17.2918,,,,,,,,,,,,,,,,,,,,,,,,,,,,,,,,,,,,,,,,,,,,,,,,,,,,,,,,,,,,,,,,,,,,,,,,,,,,,,,,,,,,,,,,,,,,,,,,,,,,,,,
798491,001,2022-11-20_17h55.47.358,Info_measure_main_exp,2022.2.2,Win32,59.94844434,,,,,,,,,space,10.0625,,,,,,,,,,,,,,,,,,,,,,,,,,,,,,,,,,,,,,,,,,,,,,,,,,,,,,,,,,,,,,,,,,,,,,,,,,,,,,,,,,,,,,,,,,,,,,,,,,,,,
798491,001,2022-11-20_17h55.47.358,Info_measure_main_exp,2022.2.2,Win32,59.94844434,,,,,,,,,,,space,4.2562,,,,,,,,,,,,,,,,,,,,,,,,,,,,,,,,,,,,,,,,,,,,,,,,,,,,,,,,,,,,,,,,,,,,,,,,,,,,,,,,,,,,,,,,,,,,,,,,,,,
798491,001,2022-11-20_17h55.47.358,Info_measure_main_exp,2022.2.2,Win32,59.94844434,,,,,,,,,,,,,0,0,0,1,1,masks/mask_002.jpg,,,,,,,,,,,,,,,,,,,,,,,,,,,,,,,,,,,,,,,,,,,,,,,,,,,,,,,,,,,,,,,,,,,,,,,,,,,,,,,,,,,,,,,,,,,,,
798491,001,2022-11-20_17h55.47.358,Info_measure_main_exp,2022.2.2,Win32,59.94844434,,,,,,,,,,,,,0,1,1,2,1,masks/mask_003.jpg,,,,,,,,,,,,,,,,,,,,,,,,,,,,,,,,,,,,,,,,,,,,,,,,,,,,,,,,,,,,,,,,,,,,,,,,,,,,,,,,,,,,,,,,,,,,,
798491,001,2022-11-20_17h55.47.358,Info_measure_main_exp,2022.2.2,Win32,59.94844434,,,,,,,,,,,,,0,2,2,3,1,masks/mask_004.jpg,,,,,,,,,,,,,,,,,,,,,,,,,,,,,,,,,,,,,,,,,,,,,,,,,,,,,,,,,,,,,,,,,,,,,,,,,,,,,,,,,,,,,,,,,,,,,
798491,001,2022-11-20_17h55.47.358,Info_measure_main_exp,2022.2.2,Win32,59.94844434,,,,,,,,,,,,,0,3,3,4,1,masks/mask_005.jpg,,,,,,,,,,,,,,,,,,,,,,,,,,,,,,,,,,,,,,,,,,,,,,,,,,,,,,,,,,,,,,,,,,,,,,,,,,,,,,,,,,,,,,,,,,,,,
798491,001,2022-11-20_17h55.47.358,Info_measure_main_exp,2022.2.2,Win32,59.94844434,,,,,,,,,,,,,0,4,4,0,1,masks/mask_001.jpg,,,,,,,,,,,,,,,,,,,,,,,,,,,,,,,,,,,,,,,,,,,,,,,,,,,,,,,,,,,,,,,,,,,,,,,,,,,,,,,,,,,,,,,,,,,,,
798491,001,2022-11-20_17h55.47.358,Info_measure_main_exp,2022.2.2,Win32,59.94844434,,,,,,,,,,,,,,,,,,masks/mask_005.jpg,0,0,0,4,1,,,,,,,,,,,,,,,,,,,,,,,,,,,,,,,,,,,,,,,,,,,,,,,,,,,,,,,,,,,,,,,,,,,,,,,,,,,,,,,,,,,,,,,,
798491,001,2022-11-20_17h55.47.358,Info_measure_main_exp,2022.2.2,Win32,59.94844434,,,,,,,,,,,,,,,,,,masks/mask_001.jpg,0,1,1,0,1,,,,,,,,,,,,,,,,,,,,,,,,,,,,,,,,,,,,,,,,,,,,,,,,,,,,,,,,,,,,,,,,,,,,,,,,,,,,,,,,,,,,,,,,
798491,001,2022-11-20_17h55.47.358,Info_measure_main_exp,2022.2.2,Win32,59.94844434,,,,,,,,,,,,,,,,,,masks/mask_003.jpg,0,2,2,2,1,,,,,,,,,,,,,,,,,,,,,,,,,,,,,,,,,,,,,,,,,,,,,,,,,,,,,,,,,,,,,,,,,,,,,,,,,,,,,,,,,,,,,,,,
798491,001,2022-11-20_17h55.47.358,Info_measure_main_exp,2022.2.2,Win32,59.94844434,,,,,,,,,,,,,,,,,,masks/mask_002.jpg,0,3,3,1,1,,,,,,,,,,,,,,,,,,,,,,,,,,,,,,,,,,,,,,,,,,,,,,,,,,,,,,,,,,,,,,,,,,,,,,,,,,,,,,,,,,,,,,,,
798491,001,2022-11-20_17h55.47.358,Info_measure_main_exp,2022.2.2,Win32,59.94844434,,,,,,,,,,,,,,,,,,masks/mask_004.jpg,0,4,4,3,1,,,,,,,,,,,,,,,,,,,,,,,,,,,,,,,,,,,,,,,,,,,,,,,,,,,,,,,,,,,,,,,,,,,,,,,,,,,,,,,,,,,,,,,,
798491,001,2022-11-20_17h55.47.358,Info_measure_main_exp,2022.2.2,Win32,59.94844434,,,,,,,,,,,,,,,,,,,,,,,,-0.153645833,0.057291667,1,0,0,response7disk,1,58.2928,1,0.002604167,0.005208333,1,0,0,center_square,0,0,0,1,1,0,131,5,5,2514,2490,prac_patch/patch0002514.jpg,prac_patch/patch0002490.jpg,,,,,,,,,,,,,,,,,,,,,,,,,,,,,,,,,,,,,,,,,,,,,,,,,,,,,,,,,,,,
798491,001,2022-11-20_17h55.47.358,Info_measure_main_exp,2022.2.2,Win32,59.94844434,,,,,,,,,,,,,0,0,0,1,1,masks/mask_002.jpg,,,,,,,,,,,,,,,,,,,,,,,,,,,,,,,,,,,,,,,,,,,,,,,,,,,,,,,,,,,,,,,,,,,,,,,,,,,,,,,,,,,,,,,,,,,,,
798491,001,2022-11-20_17h55.47.358,Info_measure_main_exp,2022.2.2,Win32,59.94844434,,,,,,,,,,,,,0,1,1,3,1,masks/mask_004.jpg,,,,,,,,,,,,,,,,,,,,,,,,,,,,,,,,,,,,,,,,,,,,,,,,,,,,,,,,,,,,,,,,,,,,,,,,,,,,,,,,,,,,,,,,,,,,,
798491,001,2022-11-20_17h55.47.358,Info_measure_main_exp,2022.2.2,Win32,59.94844434,,,,,,,,,,,,,0,2,2,0,1,masks/mask_001.jpg,,,,,,,,,,,,,,,,,,,,,,,,,,,,,,,,,,,,,,,,,,,,,,,,,,,,,,,,,,,,,,,,,,,,,,,,,,,,,,,,,,,,,,,,,,,,,
798491,001,2022-11-20_17h55.47.358,Info_measure_main_exp,2022.2.2,Win32,59.94844434,,,,,,,,,,,,,0,3,3,2,1,masks/mask_003.jpg,,,,,,,,,,,,,,,,,,,,,,,,,,,,,,,,,,,,,,,,,,,,,,,,,,,,,,,,,,,,,,,,,,,,,,,,,,,,,,,,,,,,,,,,,,,,,
798491,001,2022-11-20_17h55.47.358,Info_measure_main_exp,2022.2.2,Win32,59.94844434,,,,,,,,,,,,,0,4,4,4,1,masks/mask_005.jpg,,,,,,,,,,,,,,,,,,,,,,,,,,,,,,,,,,,,,,,,,,,,,,,,,,,,,,,,,,,,,,,,,,,,,,,,,,,,,,,,,,,,,,,,,,,,,
798491,001,2022-11-20_17h55.47.358,Info_measure_main_exp,2022.2.2,Win32,59.94844434,,,,,,,,,,,,,,,,,,masks/mask_001.jpg,0,0,0,0,1,,,,,,,,,,,,,,,,,,,,,,,,,,,,,,,,,,,,,,,,,,,,,,,,,,,,,,,,,,,,,,,,,,,,,,,,,,,,,,,,,,,,,,,,
798491,001,2022-11-20_17h55.47.358,Info_measure_main_exp,2022.2.2,Win32,59.94844434,,,,,,,,,,,,,,,,,,masks/mask_003.jpg,0,1,1,2,1,,,,,,,,,,,,,,,,,,,,,,,,,,,,,,,,,,,,,,,,,,,,,,,,,,,,,,,,,,,,,,,,,,,,,,,,,,,,,,,,,,,,,,,,
798491,001,2022-11-20_17h55.47.358,Info_measure_main_exp,2022.2.2,Win32,59.94844434,,,,,,,,,,,,,,,,,,masks/mask_004.jpg,0,2,2,3,1,,,,,,,,,,,,,,,,,,,,,,,,,,,,,,,,,,,,,,,,,,,,,,,,,,,,,,,,,,,,,,,,,,,,,,,,,,,,,,,,,,,,,,,,
798491,001,2022-11-20_17h55.47.358,Info_measure_main_exp,2022.2.2,Win32,59.94844434,,,,,,,,,,,,,,,,,,masks/mask_002.jpg,0,3,3,1,1,,,,,,,,,,,,,,,,,,,,,,,,,,,,,,,,,,,,,,,,,,,,,,,,,,,,,,,,,,,,,,,,,,,,,,,,,,,,,,,,,,,,,,,,
798491,001,2022-11-20_17h55.47.358,Info_measure_main_exp,2022.2.2,Win32,59.94844434,,,,,,,,,,,,,,,,,,masks/mask_005.jpg,0,4,4,4,1,,,,,,,,,,,,,,,,,,,,,,,,,,,,,,,,,,,,,,,,,,,,,,,,,,,,,,,,,,,,,,,,,,,,,,,,,,,,,,,,,,,,,,,,
798491,001,2022-11-20_17h55.47.358,Info_measure_main_exp,2022.2.2,Win32,59.94844434,,,,,,,,,,,,,,,,,,,,,,,,0.04296875,0.14453125,1,0,0,response1disk,7,73.0845,1,0,0.009114583,1,0,0,center_square,0,1,1,2,1,0,131,5,5,2526,2526,prac_patch/patch0002526.jpg,prac_patch/patch0002526.jpg,,,,,,,,,,,,,,,,,,,,,,,,,,,,,,,,,,,,,,,,,,,,,,,,,,,,,,,,,,,,
798491,001,2022-11-20_17h55.47.358,Info_measure_main_exp,2022.2.2,Win32,59.94844434,,,,,,,,,,,,,0,0,0,0,1,masks/mask_001.jpg,,,,,,,,,,,,,,,,,,,,,,,,,,,,,,,,,,,,,,,,,,,,,,,,,,,,,,,,,,,,,,,,,,,,,,,,,,,,,,,,,,,,,,,,,,,,,
798491,001,2022-11-20_17h55.47.358,Info_measure_main_exp,2022.2.2,Win32,59.94844434,,,,,,,,,,,,,0,1,1,3,1,masks/mask_004.jpg,,,,,,,,,,,,,,,,,,,,,,,,,,,,,,,,,,,,,,,,,,,,,,,,,,,,,,,,,,,,,,,,,,,,,,,,,,,,,,,,,,,,,,,,,,,,,
798491,001,2022-11-20_17h55.47.358,Info_measure_main_exp,2022.2.2,Win32,59.94844434,,,,,,,,,,,,,0,2,2,2,1,masks/mask_003.jpg,,,,,,,,,,,,,,,,,,,,,,,,,,,,,,,,,,,,,,,,,,,,,,,,,,,,,,,,,,,,,,,,,,,,,,,,,,,,,,,,,,,,,,,,,,,,,
798491,001,2022-11-20_17h55.47.358,Info_measure_main_exp,2022.2.2,Win32,59.94844434,,,,,,,,,,,,,0,3,3,1,1,masks/mask_002.jpg,,,,,,,,,,,,,,,,,,,,,,,,,,,,,,,,,,,,,,,,,,,,,,,,,,,,,,,,,,,,,,,,,,,,,,,,,,,,,,,,,,,,,,,,,,,,,
798491,001,2022-11-20_17h55.47.358,Info_measure_main_exp,2022.2.2,Win32,59.94844434,,,,,,,,,,,,,0,4,4,4,1,masks/mask_005.jpg,,,,,,,,,,,,,,,,,,,,,,,,,,,,,,,,,,,,,,,,,,,,,,,,,,,,,,,,,,,,,,,,,,,,,,,,,,,,,,,,,,,,,,,,,,,,,
798491,001,2022-11-20_17h55.47.358,Info_measure_main_exp,2022.2.2,Win32,59.94844434,,,,,,,,,,,,,,,,,,masks/mask_004.jpg,0,0,0,3,1,,,,,,,,,,,,,,,,,,,,,,,,,,,,,,,,,,,,,,,,,,,,,,,,,,,,,,,,,,,,,,,,,,,,,,,,,,,,,,,,,,,,,,,,
798491,001,2022-11-20_17h55.47.358,Info_measure_main_exp,2022.2.2,Win32,59.94844434,,,,,,,,,,,,,,,,,,masks/mask_005.jpg,0,1,1,4,1,,,,,,,,,,,,,,,,,,,,,,,,,,,,,,,,,,,,,,,,,,,,,,,,,,,,,,,,,,,,,,,,,,,,,,,,,,,,,,,,,,,,,,,,
798491,001,2022-11-20_17h55.47.358,Info_measure_main_exp,2022.2.2,Win32,59.94844434,,,,,,,,,,,,,,,,,,masks/mask_002.jpg,0,2,2,1,1,,,,,,,,,,,,,,,,,,,,,,,,,,,,,,,,,,,,,,,,,,,,,,,,,,,,,,,,,,,,,,,,,,,,,,,,,,,,,,,,,,,,,,,,
798491,001,2022-11-20_17h55.47.358,Info_measure_main_exp,2022.2.2,Win32,59.94844434,,,,,,,,,,,,,,,,,,masks/mask_001.jpg,0,3,3,0,1,,,,,,,,,,,,,,,,,,,,,,,,,,,,,,,,,,,,,,,,,,,,,,,,,,,,,,,,,,,,,,,,,,,,,,,,,,,,,,,,,,,,,,,,
798491,001,2022-11-20_17h55.47.358,Info_measure_main_exp,2022.2.2,Win32,59.94844434,,,,,,,,,,,,,,,,,,masks/mask_003.jpg,0,4,4,2,1,,,,,,,,,,,,,,,,,,,,,,,,,,,,,,,,,,,,,,,,,,,,,,,,,,,,,,,,,,,,,,,,,,,,,,,,,,,,,,,,,,,,,,,,
798491,001,2022-11-20_17h55.47.358,Info_measure_main_exp,2022.2.2,Win32,59.94844434,,,,,,,,,,,,,,,,,,,,,,,,0.014322917,0.059895833,1,0,0,response1disk,7,81.6269,1,0.001302083,-0.001302083,1,0,0,center_square,0,2,2,0,1,0,131,5,5,2370,2406,prac_patch/patch0002370.jpg,prac_patch/patch0002406.jpg,,,,,,,,,,,,,,,,,,,,,,,,,,,,,,,,,,,,,,,,,,,,,,,,,,,,,,,,,,,,
798491,001,2022-11-20_17h55.47.358,Info_measure_main_exp,2022.2.2,Win32,59.94844434,,,,,,,,,,,,,,,,,,,,,,,,,,,,,,,,,,,,,,,,,,,,,,,,,,,,,,,,,,,space,1.9296,,,,,,,,,,,,,,,,,,,,,,,,,,,,,,,,,,,,,,,,,,,,,,,,,,,
798491,001,2022-11-20_17h55.47.358,Info_measure_main_exp,2022.2.2,Win32,59.94844434,,,,,,,,,,,,,,,,,,masks/mask_001.jpg,,,,,,,,,,,,,,,,,,,,,,,,,,,,,,,,,,,,,,,,,,,0,0,0,0,1,,,,,,,,,,,,,,,,,,,,,,,,,,,,,,,,,,,,,,,,,,,,,,
798491,001,2022-11-20_17h55.47.358,Info_measure_main_exp,2022.2.2,Win32,59.94844434,,,,,,,,,,,,,,,,,,masks/mask_005.jpg,,,,,,,,,,,,,,,,,,,,,,,,,,,,,,,,,,,,,,,,,,,0,1,1,4,1,,,,,,,,,,,,,,,,,,,,,,,,,,,,,,,,,,,,,,,,,,,,,,
798491,001,2022-11-20_17h55.47.358,Info_measure_main_exp,2022.2.2,Win32,59.94844434,,,,,,,,,,,,,,,,,,masks/mask_003.jpg,,,,,,,,,,,,,,,,,,,,,,,,,,,,,,,,,,,,,,,,,,,0,2,2,2,1,,,,,,,,,,,,,,,,,,,,,,,,,,,,,,,,,,,,,,,,,,,,,,
798491,001,2022-11-20_17h55.47.358,Info_measure_main_exp,2022.2.2,Win32,59.94844434,,,,,,,,,,,,,,,,,,masks/mask_002.jpg,,,,,,,,,,,,,,,,,,,,,,,,,,,,,,,,,,,,,,,,,,,0,3,3,1,1,,,,,,,,,,,,,,,,,,,,,,,,,,,,,,,,,,,,,,,,,,,,,,
798491,001,2022-11-20_17h55.47.358,Info_measure_main_exp,2022.2.2,Win32,59.94844434,,,,,,,,,,,,,,,,,,masks/mask_004.jpg,,,,,,,,,,,,,,,,,,,,,,,,,,,,,,,,,,,,,,,,,,,0,4,4,3,1,,,,,,,,,,,,,,,,,,,,,,,,,,,,,,,,,,,,,,,,,,,,,,
798491,001,2022-11-20_17h55.47.358,Info_measure_main_exp,2022.2.2,Win32,59.94844434,,,,,,,,,,,,,,,,,,masks/mask_004.jpg,,,,,,,,,,,,,,,,,,,,,,,,,,,,,,,,,,,,,,,,,,,,,,,,0,0,0,3,1,,,,,,,,,,,,,,,,,,,,,,,,,,,,,,,,,,,,,,,,,
798491,001,2022-11-20_17h55.47.358,Info_measure_main_exp,2022.2.2,Win32,59.94844434,,,,,,,,,,,,,,,,,,masks/mask_003.jpg,,,,,,,,,,,,,,,,,,,,,,,,,,,,,,,,,,,,,,,,,,,,,,,,0,1,1,2,1,,,,,,,,,,,,,,,,,,,,,,,,,,,,,,,,,,,,,,,,,
798491,001,2022-11-20_17h55.47.358,Info_measure_main_exp,2022.2.2,Win32,59.94844434,,,,,,,,,,,,,,,,,,masks/mask_002.jpg,,,,,,,,,,,,,,,,,,,,,,,,,,,,,,,,,,,,,,,,,,,,,,,,0,2,2,1,1,,,,,,,,,,,,,,,,,,,,,,,,,,,,,,,,,,,,,,,,,
798491,001,2022-11-20_17h55.47.358,Info_measure_main_exp,2022.2.2,Win32,59.94844434,,,,,,,,,,,,,,,,,,masks/mask_001.jpg,,,,,,,,,,,,,,,,,,,,,,,,,,,,,,,,,,,,,,,,,,,,,,,,0,3,3,0,1,,,,,,,,,,,,,,,,,,,,,,,,,,,,,,,,,,,,,,,,,
798491,001,2022-11-20_17h55.47.358,Info_measure_main_exp,2022.2.2,Win32,59.94844434,,,,,,,,,,,,,,,,,,masks/mask_005.jpg,,,,,,,,,,,,,,,,,,,,,,,,,,,,,,,,,,,,,,,,,,,,,,,,0,4,4,4,1,,,,,,,,,,,,,,,,,,,,,,,,,,,,,,,,,,,,,,,,,
798491,001,2022-11-20_17h55.47.358,Info_measure_main_exp,2022.2.2,Win32,59.94844434,,,,,,,,,,,,,,,,,,,,,,,,,,,,,,7,1.0247,1,,,,,,,,,,,,0,131,5,5,2166,2298,absent_patch/patch0002166.jpg,absent_patch/patch0002298.jpg,,,,,,,,,,,,,,,,,,,,0.046875,0.102864583,1,0,0,response1disk,1,0.01171875,0.015625,1,0,0,center_square,0,0,0,52,1,,,,,,,,,,,,,,,,,,,,,,,
798491,001,2022-11-20_17h55.47.358,Info_measure_main_exp,2022.2.2,Win32,59.94844434,,,,,,,,,,,,,,,,,,masks/mask_005.jpg,,,,,,,,,,,,,,,,,,,,,,,,,,,,,,,,,,,,,,,,,,,0,0,0,4,1,,,,,,,,,,,,,,,,,,,,,,,,,,,,,,,,,,,,,,,,,,,,,,
798491,001,2022-11-20_17h55.47.358,Info_measure_main_exp,2022.2.2,Win32,59.94844434,,,,,,,,,,,,,,,,,,masks/mask_002.jpg,,,,,,,,,,,,,,,,,,,,,,,,,,,,,,,,,,,,,,,,,,,0,1,1,1,1,,,,,,,,,,,,,,,,,,,,,,,,,,,,,,,,,,,,,,,,,,,,,,
798491,001,2022-11-20_17h55.47.358,Info_measure_main_exp,2022.2.2,Win32,59.94844434,,,,,,,,,,,,,,,,,,masks/mask_004.jpg,,,,,,,,,,,,,,,,,,,,,,,,,,,,,,,,,,,,,,,,,,,0,2,2,3,1,,,,,,,,,,,,,,,,,,,,,,,,,,,,,,,,,,,,,,,,,,,,,,
798491,001,2022-11-20_17h55.47.358,Info_measure_main_exp,2022.2.2,Win32,59.94844434,,,,,,,,,,,,,,,,,,masks/mask_001.jpg,,,,,,,,,,,,,,,,,,,,,,,,,,,,,,,,,,,,,,,,,,,0,3,3,0,1,,,,,,,,,,,,,,,,,,,,,,,,,,,,,,,,,,,,,,,,,,,,,,
798491,001,2022-11-20_17h55.47.358,Info_measure_main_exp,2022.2.2,Win32,59.94844434,,,,,,,,,,,,,,,,,,masks/mask_003.jpg,,,,,,,,,,,,,,,,,,,,,,,,,,,,,,,,,,,,,,,,,,,0,4,4,2,1,,,,,,,,,,,,,,,,,,,,,,,,,,,,,,,,,,,,,,,,,,,,,,
798491,001,2022-11-20_17h55.47.358,Info_measure_main_exp,2022.2.2,Win32,59.94844434,,,,,,,,,,,,,,,,,,masks/mask_002.jpg,,,,,,,,,,,,,,,,,,,,,,,,,,,,,,,,,,,,,,,,,,,,,,,,0,0,0,1,1,,,,,,,,,,,,,,,,,,,,,,,,,,,,,,,,,,,,,,,,,
798491,001,2022-11-20_17h55.47.358,Info_measure_main_exp,2022.2.2,Win32,59.94844434,,,,,,,,,,,,,,,,,,masks/mask_005.jpg,,,,,,,,,,,,,,,,,,,,,,,,,,,,,,,,,,,,,,,,,,,,,,,,0,1,1,4,1,,,,,,,,,,,,,,,,,,,,,,,,,,,,,,,,,,,,,,,,,
798491,001,2022-11-20_17h55.47.358,Info_measure_main_exp,2022.2.2,Win32,59.94844434,,,,,,,,,,,,,,,,,,masks/mask_003.jpg,,,,,,,,,,,,,,,,,,,,,,,,,,,,,,,,,,,,,,,,,,,,,,,,0,2,2,2,1,,,,,,,,,,,,,,,,,,,,,,,,,,,,,,,,,,,,,,,,,
798491,001,2022-11-20_17h55.47.358,Info_measure_main_exp,2022.2.2,Win32,59.94844434,,,,,,,,,,,,,,,,,,masks/mask_001.jpg,,,,,,,,,,,,,,,,,,,,,,,,,,,,,,,,,,,,,,,,,,,,,,,,0,3,3,0,1,,,,,,,,,,,,,,,,,,,,,,,,,,,,,,,,,,,,,,,,,
798491,001,2022-11-20_17h55.47.358,Info_measure_main_exp,2022.2.2,Win32,59.94844434,,,,,,,,,,,,,,,,,,masks/mask_004.jpg,,,,,,,,,,,,,,,,,,,,,,,,,,,,,,,,,,,,,,,,,,,,,,,,0,4,4,3,1,,,,,,,,,,,,,,,,,,,,,,,,,,,,,,,,,,,,,,,,,
798491,001,2022-11-20_17h55.47.358,Info_measure_main_exp,2022.2.2,Win32,59.94844434,,,,,,,,,,,,,,,,,,,,,,,,,,,,,,7,0.8814,1,,,,,,,,,,,,0,131,5,5,2154,1974,absent_patch/patch0002154.jpg,absent_patch/patch0001974.jpg,,,,,,,,,,,,,,,,,,,,0.01953125,0.052083333,1,0,0,response1disk,2,0,0.010416667,1,0,0,center_square,0,1,1,82,1,,,,,,,,,,,,,,,,,,,,,,,
798491,001,2022-11-20_17h55.47.358,Info_measure_main_exp,2022.2.2,Win32,59.94844434,,,,,,,,,,,,,,,,,,masks/mask_004.jpg,,,,,,,,,,,,,,,,,,,,,,,,,,,,,,,,,,,,,,,,,,,0,0,0,3,1,,,,,,,,,,,,,,,,,,,,,,,,,,,,,,,,,,,,,,,,,,,,,,
798491,001,2022-11-20_17h55.47.358,Info_measure_main_exp,2022.2.2,Win32,59.94844434,,,,,,,,,,,,,,,,,,masks/mask_001.jpg,,,,,,,,,,,,,,,,,,,,,,,,,,,,,,,,,,,,,,,,,,,0,1,1,0,1,,,,,,,,,,,,,,,,,,,,,,,,,,,,,,,,,,,,,,,,,,,,,,
798491,001,2022-11-20_17h55.47.358,Info_measure_main_exp,2022.2.2,Win32,59.94844434,,,,,,,,,,,,,,,,,,masks/mask_003.jpg,,,,,,,,,,,,,,,,,,,,,,,,,,,,,,,,,,,,,,,,,,,0,2,2,2,1,,,,,,,,,,,,,,,,,,,,,,,,,,,,,,,,,,,,,,,,,,,,,,
798491,001,2022-11-20_17h55.47.358,Info_measure_main_exp,2022.2.2,Win32,59.94844434,,,,,,,,,,,,,,,,,,masks/mask_002.jpg,,,,,,,,,,,,,,,,,,,,,,,,,,,,,,,,,,,,,,,,,,,0,3,3,1,1,,,,,,,,,,,,,,,,,,,,,,,,,,,,,,,,,,,,,,,,,,,,,,
798491,001,2022-11-20_17h55.47.358,Info_measure_main_exp,2022.2.2,Win32,59.94844434,,,,,,,,,,,,,,,,,,masks/mask_005.jpg,,,,,,,,,,,,,,,,,,,,,,,,,,,,,,,,,,,,,,,,,,,0,4,4,4,1,,,,,,,,,,,,,,,,,,,,,,,,,,,,,,,,,,,,,,,,,,,,,,
798491,001,2022-11-20_17h55.47.358,Info_measure_main_exp,2022.2.2,Win32,59.94844434,,,,,,,,,,,,,,,,,,masks/mask_004.jpg,,,,,,,,,,,,,,,,,,,,,,,,,,,,,,,,,,,,,,,,,,,,,,,,0,0,0,3,1,,,,,,,,,,,,,,,,,,,,,,,,,,,,,,,,,,,,,,,,,
798491,001,2022-11-20_17h55.47.358,Info_measure_main_exp,2022.2.2,Win32,59.94844434,,,,,,,,,,,,,,,,,,masks/mask_001.jpg,,,,,,,,,,,,,,,,,,,,,,,,,,,,,,,,,,,,,,,,,,,,,,,,0,1,1,0,1,,,,,,,,,,,,,,,,,,,,,,,,,,,,,,,,,,,,,,,,,
798491,001,2022-11-20_17h55.47.358,Info_measure_main_exp,2022.2.2,Win32,59.94844434,,,,,,,,,,,,,,,,,,masks/mask_002.jpg,,,,,,,,,,,,,,,,,,,,,,,,,,,,,,,,,,,,,,,,,,,,,,,,0,2,2,1,1,,,,,,,,,,,,,,,,,,,,,,,,,,,,,,,,,,,,,,,,,
798491,001,2022-11-20_17h55.47.358,Info_measure_main_exp,2022.2.2,Win32,59.94844434,,,,,,,,,,,,,,,,,,masks/mask_005.jpg,,,,,,,,,,,,,,,,,,,,,,,,,,,,,,,,,,,,,,,,,,,,,,,,0,3,3,4,1,,,,,,,,,,,,,,,,,,,,,,,,,,,,,,,,,,,,,,,,,
798491,001,2022-11-20_17h55.47.358,Info_measure_main_exp,2022.2.2,Win32,59.94844434,,,,,,,,,,,,,,,,,,masks/mask_003.jpg,,,,,,,,,,,,,,,,,,,,,,,,,,,,,,,,,,,,,,,,,,,,,,,,0,4,4,2,1,,,,,,,,,,,,,,,,,,,,,,,,,,,,,,,,,,,,,,,,,
798491,001,2022-11-20_17h55.47.358,Info_measure_main_exp,2022.2.2,Win32,59.94844434,,,,,,,,,,,,,,,,,,,,,,,,,,,,,,7,0.8664,1,,,,,,,,,,,,0,131,5,5,2082,2166,absent_patch/patch0002082.jpg,absent_patch/patch0002166.jpg,,,,,,,,,,,,,,,,,,,,0.01953125,0.05078125,1,0,0,response1disk,3,-0.006510417,0.01171875,1,0,0,center_square,0,2,2,43,1,,,,,,,,,,,,,,,,,,,,,,,
798491,001,2022-11-20_17h55.47.358,Info_measure_main_exp,2022.2.2,Win32,59.94844434,,,,,,,,,,,,,,,,,,masks/mask_001.jpg,,,,,,,,,,,,,,,,,,,,,,,,,,,,,,,,,,,,,,,,,,,0,0,0,0,1,,,,,,,,,,,,,,,,,,,,,,,,,,,,,,,,,,,,,,,,,,,,,,
798491,001,2022-11-20_17h55.47.358,Info_measure_main_exp,2022.2.2,Win32,59.94844434,,,,,,,,,,,,,,,,,,masks/mask_002.jpg,,,,,,,,,,,,,,,,,,,,,,,,,,,,,,,,,,,,,,,,,,,0,1,1,1,1,,,,,,,,,,,,,,,,,,,,,,,,,,,,,,,,,,,,,,,,,,,,,,
798491,001,2022-11-20_17h55.47.358,Info_measure_main_exp,2022.2.2,Win32,59.94844434,,,,,,,,,,,,,,,,,,masks/mask_003.jpg,,,,,,,,,,,,,,,,,,,,,,,,,,,,,,,,,,,,,,,,,,,0,2,2,2,1,,,,,,,,,,,,,,,,,,,,,,,,,,,,,,,,,,,,,,,,,,,,,,
798491,001,2022-11-20_17h55.47.358,Info_measure_main_exp,2022.2.2,Win32,59.94844434,,,,,,,,,,,,,,,,,,masks/mask_004.jpg,,,,,,,,,,,,,,,,,,,,,,,,,,,,,,,,,,,,,,,,,,,0,3,3,3,1,,,,,,,,,,,,,,,,,,,,,,,,,,,,,,,,,,,,,,,,,,,,,,
798491,001,2022-11-20_17h55.47.358,Info_measure_main_exp,2022.2.2,Win32,59.94844434,,,,,,,,,,,,,,,,,,masks/mask_005.jpg,,,,,,,,,,,,,,,,,,,,,,,,,,,,,,,,,,,,,,,,,,,0,4,4,4,1,,,,,,,,,,,,,,,,,,,,,,,,,,,,,,,,,,,,,,,,,,,,,,
798491,001,2022-11-20_17h55.47.358,Info_measure_main_exp,2022.2.2,Win32,59.94844434,,,,,,,,,,,,,,,,,,masks/mask_002.jpg,,,,,,,,,,,,,,,,,,,,,,,,,,,,,,,,,,,,,,,,,,,,,,,,0,0,0,1,1,,,,,,,,,,,,,,,,,,,,,,,,,,,,,,,,,,,,,,,,,
798491,001,2022-11-20_17h55.47.358,Info_measure_main_exp,2022.2.2,Win32,59.94844434,,,,,,,,,,,,,,,,,,masks/mask_001.jpg,,,,,,,,,,,,,,,,,,,,,,,,,,,,,,,,,,,,,,,,,,,,,,,,0,1,1,0,1,,,,,,,,,,,,,,,,,,,,,,,,,,,,,,,,,,,,,,,,,
798491,001,2022-11-20_17h55.47.358,Info_measure_main_exp,2022.2.2,Win32,59.94844434,,,,,,,,,,,,,,,,,,masks/mask_004.jpg,,,,,,,,,,,,,,,,,,,,,,,,,,,,,,,,,,,,,,,,,,,,,,,,0,2,2,3,1,,,,,,,,,,,,,,,,,,,,,,,,,,,,,,,,,,,,,,,,,
798491,001,2022-11-20_17h55.47.358,Info_measure_main_exp,2022.2.2,Win32,59.94844434,,,,,,,,,,,,,,,,,,masks/mask_003.jpg,,,,,,,,,,,,,,,,,,,,,,,,,,,,,,,,,,,,,,,,,,,,,,,,0,3,3,2,1,,,,,,,,,,,,,,,,,,,,,,,,,,,,,,,,,,,,,,,,,
798491,001,2022-11-20_17h55.47.358,Info_measure_main_exp,2022.2.2,Win32,59.94844434,,,,,,,,,,,,,,,,,,masks/mask_005.jpg,,,,,,,,,,,,,,,,,,,,,,,,,,,,,,,,,,,,,,,,,,,,,,,,0,4,4,4,1,,,,,,,,,,,,,,,,,,,,,,,,,,,,,,,,,,,,,,,,,
798491,001,2022-11-20_17h55.47.358,Info_measure_main_exp,2022.2.2,Win32,59.94844434,,,,,,,,,,,,,,,,,,,,,,,,,,,,,,2,1.3486,1,,,,,,,,,,,,0,131,5,5,2082,2298,absent_patch/patch0002082.jpg,absent_patch/patch0002298.jpg,,,,,,,,,,,,,,,,,,,,-0.130208333,-0.057291667,1,0,0,response5disk,4,-0.01171875,-0.010416667,1,0,0,center_square,0,3,3,107,1,,,,,,,,,,,,,,,,,,,,,,,
798491,001,2022-11-20_17h55.47.358,Info_measure_main_exp,2022.2.2,Win32,59.94844434,,,,,,,,,,,,,,,,,,masks/mask_003.jpg,,,,,,,,,,,,,,,,,,,,,,,,,,,,,,,,,,,,,,,,,,,0,0,0,2,1,,,,,,,,,,,,,,,,,,,,,,,,,,,,,,,,,,,,,,,,,,,,,,
798491,001,2022-11-20_17h55.47.358,Info_measure_main_exp,2022.2.2,Win32,59.94844434,,,,,,,,,,,,,,,,,,masks/mask_002.jpg,,,,,,,,,,,,,,,,,,,,,,,,,,,,,,,,,,,,,,,,,,,0,1,1,1,1,,,,,,,,,,,,,,,,,,,,,,,,,,,,,,,,,,,,,,,,,,,,,,
798491,001,2022-11-20_17h55.47.358,Info_measure_main_exp,2022.2.2,Win32,59.94844434,,,,,,,,,,,,,,,,,,masks/mask_001.jpg,,,,,,,,,,,,,,,,,,,,,,,,,,,,,,,,,,,,,,,,,,,0,2,2,0,1,,,,,,,,,,,,,,,,,,,,,,,,,,,,,,,,,,,,,,,,,,,,,,
798491,001,2022-11-20_17h55.47.358,Info_measure_main_exp,2022.2.2,Win32,59.94844434,,,,,,,,,,,,,,,,,,masks/mask_004.jpg,,,,,,,,,,,,,,,,,,,,,,,,,,,,,,,,,,,,,,,,,,,0,3,3,3,1,,,,,,,,,,,,,,,,,,,,,,,,,,,,,,,,,,,,,,,,,,,,,,
798491,001,2022-11-20_17h55.47.358,Info_measure_main_exp,2022.2.2,Win32,59.94844434,,,,,,,,,,,,,,,,,,masks/mask_005.jpg,,,,,,,,,,,,,,,,,,,,,,,,,,,,,,,,,,,,,,,,,,,0,4,4,4,1,,,,,,,,,,,,,,,,,,,,,,,,,,,,,,,,,,,,,,,,,,,,,,
798491,001,2022-11-20_17h55.47.358,Info_measure_main_exp,2022.2.2,Win32,59.94844434,,,,,,,,,,,,,,,,,,masks/mask_001.jpg,,,,,,,,,,,,,,,,,,,,,,,,,,,,,,,,,,,,,,,,,,,,,,,,0,0,0,0,1,,,,,,,,,,,,,,,,,,,,,,,,,,,,,,,,,,,,,,,,,
798491,001,2022-11-20_17h55.47.358,Info_measure_main_exp,2022.2.2,Win32,59.94844434,,,,,,,,,,,,,,,,,,masks/mask_002.jpg,,,,,,,,,,,,,,,,,,,,,,,,,,,,,,,,,,,,,,,,,,,,,,,,0,1,1,1,1,,,,,,,,,,,,,,,,,,,,,,,,,,,,,,,,,,,,,,,,,
798491,001,2022-11-20_17h55.47.358,Info_measure_main_exp,2022.2.2,Win32,59.94844434,,,,,,,,,,,,,,,,,,masks/mask_003.jpg,,,,,,,,,,,,,,,,,,,,,,,,,,,,,,,,,,,,,,,,,,,,,,,,0,2,2,2,1,,,,,,,,,,,,,,,,,,,,,,,,,,,,,,,,,,,,,,,,,
798491,001,2022-11-20_17h55.47.358,Info_measure_main_exp,2022.2.2,Win32,59.94844434,,,,,,,,,,,,,,,,,,masks/mask_005.jpg,,,,,,,,,,,,,,,,,,,,,,,,,,,,,,,,,,,,,,,,,,,,,,,,0,3,3,4,1,,,,,,,,,,,,,,,,,,,,,,,,,,,,,,,,,,,,,,,,,
798491,001,2022-11-20_17h55.47.358,Info_measure_main_exp,2022.2.2,Win32,59.94844434,,,,,,,,,,,,,,,,,,masks/mask_004.jpg,,,,,,,,,,,,,,,,,,,,,,,,,,,,,,,,,,,,,,,,,,,,,,,,0,4,4,3,1,,,,,,,,,,,,,,,,,,,,,,,,,,,,,,,,,,,,,,,,,
798491,001,2022-11-20_17h55.47.358,Info_measure_main_exp,2022.2.2,Win32,59.94844434,,,,,,,,,,,,,,,,,,,,,,,,,,,,,,7,2.1077,1,,,,,,,,,,,,0,131,5,5,2142,2082,absent_patch/patch0002142.jpg,absent_patch/patch0002082.jpg,,,,,,,,,,,,,,,,,,,,0.03125,0.100260417,1,0,0,response1disk,5,-0.00390625,0.006510417,1,0,0,center_square,0,4,4,88,1,,,,,,,,,,,,,,,,,,,,,,,
798491,001,2022-11-20_17h55.47.358,Info_measure_main_exp,2022.2.2,Win32,59.94844434,,,,,,,,,,,,,,,,,,masks/mask_004.jpg,,,,,,,,,,,,,,,,,,,,,,,,,,,,,,,,,,,,,,,,,,,0,0,0,3,1,,,,,,,,,,,,,,,,,,,,,,,,,,,,,,,,,,,,,,,,,,,,,,
798491,001,2022-11-20_17h55.47.358,Info_measure_main_exp,2022.2.2,Win32,59.94844434,,,,,,,,,,,,,,,,,,masks/mask_003.jpg,,,,,,,,,,,,,,,,,,,,,,,,,,,,,,,,,,,,,,,,,,,0,1,1,2,1,,,,,,,,,,,,,,,,,,,,,,,,,,,,,,,,,,,,,,,,,,,,,,
798491,001,2022-11-20_17h55.47.358,Info_measure_main_exp,2022.2.2,Win32,59.94844434,,,,,,,,,,,,,,,,,,masks/mask_001.jpg,,,,,,,,,,,,,,,,,,,,,,,,,,,,,,,,,,,,,,,,,,,0,2,2,0,1,,,,,,,,,,,,,,,,,,,,,,,,,,,,,,,,,,,,,,,,,,,,,,
798491,001,2022-11-20_17h55.47.358,Info_measure_main_exp,2022.2.2,Win32,59.94844434,,,,,,,,,,,,,,,,,,masks/mask_005.jpg,,,,,,,,,,,,,,,,,,,,,,,,,,,,,,,,,,,,,,,,,,,0,3,3,4,1,,,,,,,,,,,,,,,,,,,,,,,,,,,,,,,,,,,,,,,,,,,,,,
798491,001,2022-11-20_17h55.47.358,Info_measure_main_exp,2022.2.2,Win32,59.94844434,,,,,,,,,,,,,,,,,,masks/mask_002.jpg,,,,,,,,,,,,,,,,,,,,,,,,,,,,,,,,,,,,,,,,,,,0,4,4,1,1,,,,,,,,,,,,,,,,,,,,,,,,,,,,,,,,,,,,,,,,,,,,,,
798491,001,2022-11-20_17h55.47.358,Info_measure_main_exp,2022.2.2,Win32,59.94844434,,,,,,,,,,,,,,,,,,masks/mask_002.jpg,,,,,,,,,,,,,,,,,,,,,,,,,,,,,,,,,,,,,,,,,,,,,,,,0,0,0,1,1,,,,,,,,,,,,,,,,,,,,,,,,,,,,,,,,,,,,,,,,,
798491,001,2022-11-20_17h55.47.358,Info_measure_main_exp,2022.2.2,Win32,59.94844434,,,,,,,,,,,,,,,,,,masks/mask_003.jpg,,,,,,,,,,,,,,,,,,,,,,,,,,,,,,,,,,,,,,,,,,,,,,,,0,1,1,2,1,,,,,,,,,,,,,,,,,,,,,,,,,,,,,,,,,,,,,,,,,
798491,001,2022-11-20_17h55.47.358,Info_measure_main_exp,2022.2.2,Win32,59.94844434,,,,,,,,,,,,,,,,,,masks/mask_005.jpg,,,,,,,,,,,,,,,,,,,,,,,,,,,,,,,,,,,,,,,,,,,,,,,,0,2,2,4,1,,,,,,,,,,,,,,,,,,,,,,,,,,,,,,,,,,,,,,,,,
798491,001,2022-11-20_17h55.47.358,Info_measure_main_exp,2022.2.2,Win32,59.94844434,,,,,,,,,,,,,,,,,,masks/mask_001.jpg,,,,,,,,,,,,,,,,,,,,,,,,,,,,,,,,,,,,,,,,,,,,,,,,0,3,3,0,1,,,,,,,,,,,,,,,,,,,,,,,,,,,,,,,,,,,,,,,,,
798491,001,2022-11-20_17h55.47.358,Info_measure_main_exp,2022.2.2,Win32,59.94844434,,,,,,,,,,,,,,,,,,masks/mask_004.jpg,,,,,,,,,,,,,,,,,,,,,,,,,,,,,,,,,,,,,,,,,,,,,,,,0,4,4,3,1,,,,,,,,,,,,,,,,,,,,,,,,,,,,,,,,,,,,,,,,,
798491,001,2022-11-20_17h55.47.358,Info_measure_main_exp,2022.2.2,Win32,59.94844434,,,,,,,,,,,,,,,,,,,,,,,,,,,,,,6,1.3762,1,,,,,,,,,,,,0,131,5,5,1974,2142,absent_patch/patch0001974.jpg,absent_patch/patch0002142.jpg,,,,,,,,,,,,,,,,,,,,0.084635417,0.057291667,1,0,0,response1disk,6,-0.002604167,0.002604167,1,0,0,center_square,0,5,5,38,1,,,,,,,,,,,,,,,,,,,,,,,
798491,001,2022-11-20_17h55.47.358,Info_measure_main_exp,2022.2.2,Win32,59.94844434,,,,,,,,,,,,,,,,,,masks/mask_002.jpg,,,,,,,,,,,,,,,,,,,,,,,,,,,,,,,,,,,,,,,,,,,0,0,0,1,1,,,,,,,,,,,,,,,,,,,,,,,,,,,,,,,,,,,,,,,,,,,,,,
798491,001,2022-11-20_17h55.47.358,Info_measure_main_exp,2022.2.2,Win32,59.94844434,,,,,,,,,,,,,,,,,,masks/mask_004.jpg,,,,,,,,,,,,,,,,,,,,,,,,,,,,,,,,,,,,,,,,,,,0,1,1,3,1,,,,,,,,,,,,,,,,,,,,,,,,,,,,,,,,,,,,,,,,,,,,,,
798491,001,2022-11-20_17h55.47.358,Info_measure_main_exp,2022.2.2,Win32,59.94844434,,,,,,,,,,,,,,,,,,masks/mask_005.jpg,,,,,,,,,,,,,,,,,,,,,,,,,,,,,,,,,,,,,,,,,,,0,2,2,4,1,,,,,,,,,,,,,,,,,,,,,,,,,,,,,,,,,,,,,,,,,,,,,,
798491,001,2022-11-20_17h55.47.358,Info_measure_main_exp,2022.2.2,Win32,59.94844434,,,,,,,,,,,,,,,,,,masks/mask_003.jpg,,,,,,,,,,,,,,,,,,,,,,,,,,,,,,,,,,,,,,,,,,,0,3,3,2,1,,,,,,,,,,,,,,,,,,,,,,,,,,,,,,,,,,,,,,,,,,,,,,
798491,001,2022-11-20_17h55.47.358,Info_measure_main_exp,2022.2.2,Win32,59.94844434,,,,,,,,,,,,,,,,,,masks/mask_001.jpg,,,,,,,,,,,,,,,,,,,,,,,,,,,,,,,,,,,,,,,,,,,0,4,4,0,1,,,,,,,,,,,,,,,,,,,,,,,,,,,,,,,,,,,,,,,,,,,,,,
798491,001,2022-11-20_17h55.47.358,Info_measure_main_exp,2022.2.2,Win32,59.94844434,,,,,,,,,,,,,,,,,,masks/mask_002.jpg,,,,,,,,,,,,,,,,,,,,,,,,,,,,,,,,,,,,,,,,,,,,,,,,0,0,0,1,1,,,,,,,,,,,,,,,,,,,,,,,,,,,,,,,,,,,,,,,,,
798491,001,2022-11-20_17h55.47.358,Info_measure_main_exp,2022.2.2,Win32,59.94844434,,,,,,,,,,,,,,,,,,masks/mask_005.jpg,,,,,,,,,,,,,,,,,,,,,,,,,,,,,,,,,,,,,,,,,,,,,,,,0,1,1,4,1,,,,,,,,,,,,,,,,,,,,,,,,,,,,,,,,,,,,,,,,,
798491,001,2022-11-20_17h55.47.358,Info_measure_main_exp,2022.2.2,Win32,59.94844434,,,,,,,,,,,,,,,,,,masks/mask_001.jpg,,,,,,,,,,,,,,,,,,,,,,,,,,,,,,,,,,,,,,,,,,,,,,,,0,2,2,0,1,,,,,,,,,,,,,,,,,,,,,,,,,,,,,,,,,,,,,,,,,
798491,001,2022-11-20_17h55.47.358,Info_measure_main_exp,2022.2.2,Win32,59.94844434,,,,,,,,,,,,,,,,,,masks/mask_003.jpg,,,,,,,,,,,,,,,,,,,,,,,,,,,,,,,,,,,,,,,,,,,,,,,,0,3,3,2,1,,,,,,,,,,,,,,,,,,,,,,,,,,,,,,,,,,,,,,,,,
798491,001,2022-11-20_17h55.47.358,Info_measure_main_exp,2022.2.2,Win32,59.94844434,,,,,,,,,,,,,,,,,,masks/mask_004.jpg,,,,,,,,,,,,,,,,,,,,,,,,,,,,,,,,,,,,,,,,,,,,,,,,0,4,4,3,1,,,,,,,,,,,,,,,,,,,,,,,,,,,,,,,,,,,,,,,,,
798491,001,2022-11-20_17h55.47.358,Info_measure_main_exp,2022.2.2,Win32,59.94844434,,,,,,,,,,,,,,,,,,,,,,,,,,,,,,7,0.9823,1,,,,,,,,,,,,0,131,5,5,2154,2190,absent_patch/patch0002154.jpg,absent_patch/patch0002190.jpg,,,,,,,,,,,,,,,,,,,,0.029947917,0.0703125,1,0,0,response1disk,7,0,0.015625,1,0,0,center_square,0,6,6,68,1,,,,,,,,,,,,,,,,,,,,,,,
798491,001,2022-11-20_17h55.47.358,Info_measure_main_exp,2022.2.2,Win32,59.94844434,,,,,,,,,,,,,,,,,,masks/mask_001.jpg,,,,,,,,,,,,,,,,,,,,,,,,,,,,,,,,,,,,,,,,,,,0,0,0,0,1,,,,,,,,,,,,,,,,,,,,,,,,,,,,,,,,,,,,,,,,,,,,,,
798491,001,2022-11-20_17h55.47.358,Info_measure_main_exp,2022.2.2,Win32,59.94844434,,,,,,,,,,,,,,,,,,masks/mask_002.jpg,,,,,,,,,,,,,,,,,,,,,,,,,,,,,,,,,,,,,,,,,,,0,1,1,1,1,,,,,,,,,,,,,,,,,,,,,,,,,,,,,,,,,,,,,,,,,,,,,,
798491,001,2022-11-20_17h55.47.358,Info_measure_main_exp,2022.2.2,Win32,59.94844434,,,,,,,,,,,,,,,,,,masks/mask_005.jpg,,,,,,,,,,,,,,,,,,,,,,,,,,,,,,,,,,,,,,,,,,,0,2,2,4,1,,,,,,,,,,,,,,,,,,,,,,,,,,,,,,,,,,,,,,,,,,,,,,
798491,001,2022-11-20_17h55.47.358,Info_measure_main_exp,2022.2.2,Win32,59.94844434,,,,,,,,,,,,,,,,,,masks/mask_004.jpg,,,,,,,,,,,,,,,,,,,,,,,,,,,,,,,,,,,,,,,,,,,0,3,3,3,1,,,,,,,,,,,,,,,,,,,,,,,,,,,,,,,,,,,,,,,,,,,,,,
798491,001,2022-11-20_17h55.47.358,Info_measure_main_exp,2022.2.2,Win32,59.94844434,,,,,,,,,,,,,,,,,,masks/mask_003.jpg,,,,,,,,,,,,,,,,,,,,,,,,,,,,,,,,,,,,,,,,,,,0,4,4,2,1,,,,,,,,,,,,,,,,,,,,,,,,,,,,,,,,,,,,,,,,,,,,,,
798491,001,2022-11-20_17h55.47.358,Info_measure_main_exp,2022.2.2,Win32,59.94844434,,,,,,,,,,,,,,,,,,masks/mask_003.jpg,,,,,,,,,,,,,,,,,,,,,,,,,,,,,,,,,,,,,,,,,,,,,,,,0,0,0,2,1,,,,,,,,,,,,,,,,,,,,,,,,,,,,,,,,,,,,,,,,,
798491,001,2022-11-20_17h55.47.358,Info_measure_main_exp,2022.2.2,Win32,59.94844434,,,,,,,,,,,,,,,,,,masks/mask_002.jpg,,,,,,,,,,,,,,,,,,,,,,,,,,,,,,,,,,,,,,,,,,,,,,,,0,1,1,1,1,,,,,,,,,,,,,,,,,,,,,,,,,,,,,,,,,,,,,,,,,
798491,001,2022-11-20_17h55.47.358,Info_measure_main_exp,2022.2.2,Win32,59.94844434,,,,,,,,,,,,,,,,,,masks/mask_001.jpg,,,,,,,,,,,,,,,,,,,,,,,,,,,,,,,,,,,,,,,,,,,,,,,,0,2,2,0,1,,,,,,,,,,,,,,,,,,,,,,,,,,,,,,,,,,,,,,,,,
798491,001,2022-11-20_17h55.47.358,Info_measure_main_exp,2022.2.2,Win32,59.94844434,,,,,,,,,,,,,,,,,,masks/mask_004.jpg,,,,,,,,,,,,,,,,,,,,,,,,,,,,,,,,,,,,,,,,,,,,,,,,0,3,3,3,1,,,,,,,,,,,,,,,,,,,,,,,,,,,,,,,,,,,,,,,,,
798491,001,2022-11-20_17h55.47.358,Info_measure_main_exp,2022.2.2,Win32,59.94844434,,,,,,,,,,,,,,,,,,masks/mask_005.jpg,,,,,,,,,,,,,,,,,,,,,,,,,,,,,,,,,,,,,,,,,,,,,,,,0,4,4,4,1,,,,,,,,,,,,,,,,,,,,,,,,,,,,,,,,,,,,,,,,,
798491,001,2022-11-20_17h55.47.358,Info_measure_main_exp,2022.2.2,Win32,59.94844434,,,,,,,,,,,,,,,,,,,,,,,,,,,,,,7,4.887,1,,,,,,,,,,,,0,131,5,5,1974,2238,absent_patch/patch0001974.jpg,absent_patch/patch0002238.jpg,,,,,,,,,,,,,,,,,,,,0.044270833,0.12109375,1,0,0,response1disk,8,0.006510417,0.006510417,1,0,0,center_square,0,7,7,95,1,,,,,,,,,,,,,,,,,,,,,,,
798491,001,2022-11-20_17h55.47.358,Info_measure_main_exp,2022.2.2,Win32,59.94844434,,,,,,,,,,,,,,,,,,masks/mask_001.jpg,,,,,,,,,,,,,,,,,,,,,,,,,,,,,,,,,,,,,,,,,,,0,0,0,0,1,,,,,,,,,,,,,,,,,,,,,,,,,,,,,,,,,,,,,,,,,,,,,,
798491,001,2022-11-20_17h55.47.358,Info_measure_main_exp,2022.2.2,Win32,59.94844434,,,,,,,,,,,,,,,,,,masks/mask_004.jpg,,,,,,,,,,,,,,,,,,,,,,,,,,,,,,,,,,,,,,,,,,,0,1,1,3,1,,,,,,,,,,,,,,,,,,,,,,,,,,,,,,,,,,,,,,,,,,,,,,
798491,001,2022-11-20_17h55.47.358,Info_measure_main_exp,2022.2.2,Win32,59.94844434,,,,,,,,,,,,,,,,,,masks/mask_002.jpg,,,,,,,,,,,,,,,,,,,,,,,,,,,,,,,,,,,,,,,,,,,0,2,2,1,1,,,,,,,,,,,,,,,,,,,,,,,,,,,,,,,,,,,,,,,,,,,,,,
798491,001,2022-11-20_17h55.47.358,Info_measure_main_exp,2022.2.2,Win32,59.94844434,,,,,,,,,,,,,,,,,,masks/mask_003.jpg,,,,,,,,,,,,,,,,,,,,,,,,,,,,,,,,,,,,,,,,,,,0,3,3,2,1,,,,,,,,,,,,,,,,,,,,,,,,,,,,,,,,,,,,,,,,,,,,,,
798491,001,2022-11-20_17h55.47.358,Info_measure_main_exp,2022.2.2,Win32,59.94844434,,,,,,,,,,,,,,,,,,masks/mask_005.jpg,,,,,,,,,,,,,,,,,,,,,,,,,,,,,,,,,,,,,,,,,,,0,4,4,4,1,,,,,,,,,,,,,,,,,,,,,,,,,,,,,,,,,,,,,,,,,,,,,,
798491,001,2022-11-20_17h55.47.358,Info_measure_main_exp,2022.2.2,Win32,59.94844434,,,,,,,,,,,,,,,,,,masks/mask_004.jpg,,,,,,,,,,,,,,,,,,,,,,,,,,,,,,,,,,,,,,,,,,,,,,,,0,0,0,3,1,,,,,,,,,,,,,,,,,,,,,,,,,,,,,,,,,,,,,,,,,
798491,001,2022-11-20_17h55.47.358,Info_measure_main_exp,2022.2.2,Win32,59.94844434,,,,,,,,,,,,,,,,,,masks/mask_003.jpg,,,,,,,,,,,,,,,,,,,,,,,,,,,,,,,,,,,,,,,,,,,,,,,,0,1,1,2,1,,,,,,,,,,,,,,,,,,,,,,,,,,,,,,,,,,,,,,,,,
798491,001,2022-11-20_17h55.47.358,Info_measure_main_exp,2022.2.2,Win32,59.94844434,,,,,,,,,,,,,,,,,,masks/mask_001.jpg,,,,,,,,,,,,,,,,,,,,,,,,,,,,,,,,,,,,,,,,,,,,,,,,0,2,2,0,1,,,,,,,,,,,,,,,,,,,,,,,,,,,,,,,,,,,,,,,,,
798491,001,2022-11-20_17h55.47.358,Info_measure_main_exp,2022.2.2,Win32,59.94844434,,,,,,,,,,,,,,,,,,masks/mask_002.jpg,,,,,,,,,,,,,,,,,,,,,,,,,,,,,,,,,,,,,,,,,,,,,,,,0,3,3,1,1,,,,,,,,,,,,,,,,,,,,,,,,,,,,,,,,,,,,,,,,,
798491,001,2022-11-20_17h55.47.358,Info_measure_main_exp,2022.2.2,Win32,59.94844434,,,,,,,,,,,,,,,,,,masks/mask_005.jpg,,,,,,,,,,,,,,,,,,,,,,,,,,,,,,,,,,,,,,,,,,,,,,,,0,4,4,4,1,,,,,,,,,,,,,,,,,,,,,,,,,,,,,,,,,,,,,,,,,
798491,001,2022-11-20_17h55.47.358,Info_measure_main_exp,2022.2.2,Win32,59.94844434,,,,,,,,,,,,,,,,,,,,,,,,,,,,,,5,1.3324,1,,,,,,,,,,,,0,131,5,5,1950,2142,absent_patch/patch0001950.jpg,absent_patch/patch0002142.jpg,,,,,,,,,,,,,,,,,,,,0.126302083,-0.0234375,1,0,0,response3disk,9,-0.002604167,0,1,0,0,center_square,0,8,8,83,1,,,,,,,,,,,,,,,,,,,,,,,
798491,001,2022-11-20_17h55.47.358,Info_measure_main_exp,2022.2.2,Win32,59.94844434,,,,,,,,,,,,,,,,,,masks/mask_002.jpg,,,,,,,,,,,,,,,,,,,,,,,,,,,,,,,,,,,,,,,,,,,0,0,0,1,1,,,,,,,,,,,,,,,,,,,,,,,,,,,,,,,,,,,,,,,,,,,,,,
798491,001,2022-11-20_17h55.47.358,Info_measure_main_exp,2022.2.2,Win32,59.94844434,,,,,,,,,,,,,,,,,,masks/mask_001.jpg,,,,,,,,,,,,,,,,,,,,,,,,,,,,,,,,,,,,,,,,,,,0,1,1,0,1,,,,,,,,,,,,,,,,,,,,,,,,,,,,,,,,,,,,,,,,,,,,,,
798491,001,2022-11-20_17h55.47.358,Info_measure_main_exp,2022.2.2,Win32,59.94844434,,,,,,,,,,,,,,,,,,masks/mask_005.jpg,,,,,,,,,,,,,,,,,,,,,,,,,,,,,,,,,,,,,,,,,,,0,2,2,4,1,,,,,,,,,,,,,,,,,,,,,,,,,,,,,,,,,,,,,,,,,,,,,,
798491,001,2022-11-20_17h55.47.358,Info_measure_main_exp,2022.2.2,Win32,59.94844434,,,,,,,,,,,,,,,,,,masks/mask_003.jpg,,,,,,,,,,,,,,,,,,,,,,,,,,,,,,,,,,,,,,,,,,,0,3,3,2,1,,,,,,,,,,,,,,,,,,,,,,,,,,,,,,,,,,,,,,,,,,,,,,
798491,001,2022-11-20_17h55.47.358,Info_measure_main_exp,2022.2.2,Win32,59.94844434,,,,,,,,,,,,,,,,,,masks/mask_004.jpg,,,,,,,,,,,,,,,,,,,,,,,,,,,,,,,,,,,,,,,,,,,0,4,4,3,1,,,,,,,,,,,,,,,,,,,,,,,,,,,,,,,,,,,,,,,,,,,,,,
798491,001,2022-11-20_17h55.47.358,Info_measure_main_exp,2022.2.2,Win32,59.94844434,,,,,,,,,,,,,,,,,,masks/mask_004.jpg,,,,,,,,,,,,,,,,,,,,,,,,,,,,,,,,,,,,,,,,,,,,,,,,0,0,0,3,1,,,,,,,,,,,,,,,,,,,,,,,,,,,,,,,,,,,,,,,,,
798491,001,2022-11-20_17h55.47.358,Info_measure_main_exp,2022.2.2,Win32,59.94844434,,,,,,,,,,,,,,,,,,masks/mask_002.jpg,,,,,,,,,,,,,,,,,,,,,,,,,,,,,,,,,,,,,,,,,,,,,,,,0,1,1,1,1,,,,,,,,,,,,,,,,,,,,,,,,,,,,,,,,,,,,,,,,,
798491,001,2022-11-20_17h55.47.358,Info_measure_main_exp,2022.2.2,Win32,59.94844434,,,,,,,,,,,,,,,,,,masks/mask_003.jpg,,,,,,,,,,,,,,,,,,,,,,,,,,,,,,,,,,,,,,,,,,,,,,,,0,2,2,2,1,,,,,,,,,,,,,,,,,,,,,,,,,,,,,,,,,,,,,,,,,
798491,001,2022-11-20_17h55.47.358,Info_measure_main_exp,2022.2.2,Win32,59.94844434,,,,,,,,,,,,,,,,,,masks/mask_005.jpg,,,,,,,,,,,,,,,,,,,,,,,,,,,,,,,,,,,,,,,,,,,,,,,,0,3,3,4,1,,,,,,,,,,,,,,,,,,,,,,,,,,,,,,,,,,,,,,,,,
798491,001,2022-11-20_17h55.47.358,Info_measure_main_exp,2022.2.2,Win32,59.94844434,,,,,,,,,,,,,,,,,,masks/mask_001.jpg,,,,,,,,,,,,,,,,,,,,,,,,,,,,,,,,,,,,,,,,,,,,,,,,0,4,4,0,1,,,,,,,,,,,,,,,,,,,,,,,,,,,,,,,,,,,,,,,,,
798491,001,2022-11-20_17h55.47.358,Info_measure_main_exp,2022.2.2,Win32,59.94844434,,,,,,,,,,,,,,,,,,,,,,,,,,,,,,7,0.8831,1,,,,,,,,,,,,0,131,5,5,2214,1986,absent_patch/patch0002214.jpg,absent_patch/patch0001986.jpg,,,,,,,,,,,,,,,,,,,,0.041666667,0.096354167,1,0,0,response1disk,10,0.005208333,-0.002604167,1,0,0,center_square,0,9,9,34,1,,,,,,,,,,,,,,,,,,,,,,,
798491,001,2022-11-20_17h55.47.358,Info_measure_main_exp,2022.2.2,Win32,59.94844434,,,,,,,,,,,,,,,,,,masks/mask_005.jpg,,,,,,,,,,,,,,,,,,,,,,,,,,,,,,,,,,,,,,,,,,,0,0,0,4,1,,,,,,,,,,,,,,,,,,,,,,,,,,,,,,,,,,,,,,,,,,,,,,
798491,001,2022-11-20_17h55.47.358,Info_measure_main_exp,2022.2.2,Win32,59.94844434,,,,,,,,,,,,,,,,,,masks/mask_004.jpg,,,,,,,,,,,,,,,,,,,,,,,,,,,,,,,,,,,,,,,,,,,0,1,1,3,1,,,,,,,,,,,,,,,,,,,,,,,,,,,,,,,,,,,,,,,,,,,,,,
798491,001,2022-11-20_17h55.47.358,Info_measure_main_exp,2022.2.2,Win32,59.94844434,,,,,,,,,,,,,,,,,,masks/mask_001.jpg,,,,,,,,,,,,,,,,,,,,,,,,,,,,,,,,,,,,,,,,,,,0,2,2,0,1,,,,,,,,,,,,,,,,,,,,,,,,,,,,,,,,,,,,,,,,,,,,,,
798491,001,2022-11-20_17h55.47.358,Info_measure_main_exp,2022.2.2,Win32,59.94844434,,,,,,,,,,,,,,,,,,masks/mask_002.jpg,,,,,,,,,,,,,,,,,,,,,,,,,,,,,,,,,,,,,,,,,,,0,3,3,1,1,,,,,,,,,,,,,,,,,,,,,,,,,,,,,,,,,,,,,,,,,,,,,,
798491,001,2022-11-20_17h55.47.358,Info_measure_main_exp,2022.2.2,Win32,59.94844434,,,,,,,,,,,,,,,,,,masks/mask_003.jpg,,,,,,,,,,,,,,,,,,,,,,,,,,,,,,,,,,,,,,,,,,,0,4,4,2,1,,,,,,,,,,,,,,,,,,,,,,,,,,,,,,,,,,,,,,,,,,,,,,
798491,001,2022-11-20_17h55.47.358,Info_measure_main_exp,2022.2.2,Win32,59.94844434,,,,,,,,,,,,,,,,,,masks/mask_004.jpg,,,,,,,,,,,,,,,,,,,,,,,,,,,,,,,,,,,,,,,,,,,,,,,,0,0,0,3,1,,,,,,,,,,,,,,,,,,,,,,,,,,,,,,,,,,,,,,,,,
798491,001,2022-11-20_17h55.47.358,Info_measure_main_exp,2022.2.2,Win32,59.94844434,,,,,,,,,,,,,,,,,,masks/mask_001.jpg,,,,,,,,,,,,,,,,,,,,,,,,,,,,,,,,,,,,,,,,,,,,,,,,0,1,1,0,1,,,,,,,,,,,,,,,,,,,,,,,,,,,,,,,,,,,,,,,,,
798491,001,2022-11-20_17h55.47.358,Info_measure_main_exp,2022.2.2,Win32,59.94844434,,,,,,,,,,,,,,,,,,masks/mask_002.jpg,,,,,,,,,,,,,,,,,,,,,,,,,,,,,,,,,,,,,,,,,,,,,,,,0,2,2,1,1,,,,,,,,,,,,,,,,,,,,,,,,,,,,,,,,,,,,,,,,,
798491,001,2022-11-20_17h55.47.358,Info_measure_main_exp,2022.2.2,Win32,59.94844434,,,,,,,,,,,,,,,,,,masks/mask_003.jpg,,,,,,,,,,,,,,,,,,,,,,,,,,,,,,,,,,,,,,,,,,,,,,,,0,3,3,2,1,,,,,,,,,,,,,,,,,,,,,,,,,,,,,,,,,,,,,,,,,
798491,001,2022-11-20_17h55.47.358,Info_measure_main_exp,2022.2.2,Win32,59.94844434,,,,,,,,,,,,,,,,,,masks/mask_005.jpg,,,,,,,,,,,,,,,,,,,,,,,,,,,,,,,,,,,,,,,,,,,,,,,,0,4,4,4,1,,,,,,,,,,,,,,,,,,,,,,,,,,,,,,,,,,,,,,,,,
798491,001,2022-11-20_17h55.47.358,Info_measure_main_exp,2022.2.2,Win32,59.94844434,,,,,,,,,,,,,,,,,,,,,,,,,,,,,,7,0.8758,1,,,,,,,,,,,,0,131,5,5,2214,2166,absent_patch/patch0002214.jpg,absent_patch/patch0002166.jpg,,,,,,,,,,,,,,,,,,,,0.026041667,0.114583333,1,0,0,response1disk,11,-0.009114583,0.010416667,1,0,0,center_square,0,10,10,109,1,,,,,,,,,,,,,,,,,,,,,,,
798491,001,2022-11-20_17h55.47.358,Info_measure_main_exp,2022.2.2,Win32,59.94844434,,,,,,,,,,,,,,,,,,masks/mask_004.jpg,,,,,,,,,,,,,,,,,,,,,,,,,,,,,,,,,,,,,,,,,,,0,0,0,3,1,,,,,,,,,,,,,,,,,,,,,,,,,,,,,,,,,,,,,,,,,,,,,,
798491,001,2022-11-20_17h55.47.358,Info_measure_main_exp,2022.2.2,Win32,59.94844434,,,,,,,,,,,,,,,,,,masks/mask_002.jpg,,,,,,,,,,,,,,,,,,,,,,,,,,,,,,,,,,,,,,,,,,,0,1,1,1,1,,,,,,,,,,,,,,,,,,,,,,,,,,,,,,,,,,,,,,,,,,,,,,
798491,001,2022-11-20_17h55.47.358,Info_measure_main_exp,2022.2.2,Win32,59.94844434,,,,,,,,,,,,,,,,,,masks/mask_005.jpg,,,,,,,,,,,,,,,,,,,,,,,,,,,,,,,,,,,,,,,,,,,0,2,2,4,1,,,,,,,,,,,,,,,,,,,,,,,,,,,,,,,,,,,,,,,,,,,,,,
798491,001,2022-11-20_17h55.47.358,Info_measure_main_exp,2022.2.2,Win32,59.94844434,,,,,,,,,,,,,,,,,,masks/mask_003.jpg,,,,,,,,,,,,,,,,,,,,,,,,,,,,,,,,,,,,,,,,,,,0,3,3,2,1,,,,,,,,,,,,,,,,,,,,,,,,,,,,,,,,,,,,,,,,,,,,,,
798491,001,2022-11-20_17h55.47.358,Info_measure_main_exp,2022.2.2,Win32,59.94844434,,,,,,,,,,,,,,,,,,masks/mask_001.jpg,,,,,,,,,,,,,,,,,,,,,,,,,,,,,,,,,,,,,,,,,,,0,4,4,0,1,,,,,,,,,,,,,,,,,,,,,,,,,,,,,,,,,,,,,,,,,,,,,,
798491,001,2022-11-20_17h55.47.358,Info_measure_main_exp,2022.2.2,Win32,59.94844434,,,,,,,,,,,,,,,,,,masks/mask_003.jpg,,,,,,,,,,,,,,,,,,,,,,,,,,,,,,,,,,,,,,,,,,,,,,,,0,0,0,2,1,,,,,,,,,,,,,,,,,,,,,,,,,,,,,,,,,,,,,,,,,
798491,001,2022-11-20_17h55.47.358,Info_measure_main_exp,2022.2.2,Win32,59.94844434,,,,,,,,,,,,,,,,,,masks/mask_002.jpg,,,,,,,,,,,,,,,,,,,,,,,,,,,,,,,,,,,,,,,,,,,,,,,,0,1,1,1,1,,,,,,,,,,,,,,,,,,,,,,,,,,,,,,,,,,,,,,,,,
798491,001,2022-11-20_17h55.47.358,Info_measure_main_exp,2022.2.2,Win32,59.94844434,,,,,,,,,,,,,,,,,,masks/mask_004.jpg,,,,,,,,,,,,,,,,,,,,,,,,,,,,,,,,,,,,,,,,,,,,,,,,0,2,2,3,1,,,,,,,,,,,,,,,,,,,,,,,,,,,,,,,,,,,,,,,,,
798491,001,2022-11-20_17h55.47.358,Info_measure_main_exp,2022.2.2,Win32,59.94844434,,,,,,,,,,,,,,,,,,masks/mask_001.jpg,,,,,,,,,,,,,,,,,,,,,,,,,,,,,,,,,,,,,,,,,,,,,,,,0,3,3,0,1,,,,,,,,,,,,,,,,,,,,,,,,,,,,,,,,,,,,,,,,,
798491,001,2022-11-20_17h55.47.358,Info_measure_main_exp,2022.2.2,Win32,59.94844434,,,,,,,,,,,,,,,,,,masks/mask_005.jpg,,,,,,,,,,,,,,,,,,,,,,,,,,,,,,,,,,,,,,,,,,,,,,,,0,4,4,4,1,,,,,,,,,,,,,,,,,,,,,,,,,,,,,,,,,,,,,,,,,
798491,001,2022-11-20_17h55.47.358,Info_measure_main_exp,2022.2.2,Win32,59.94844434,,,,,,,,,,,,,,,,,,,,,,,,,,,,,,5,1.1987,1,,,,,,,,,,,,0,131,5,5,2166,2154,absent_patch/patch0002166.jpg,absent_patch/patch0002154.jpg,,,,,,,,,,,,,,,,,,,,0.11328125,-0.057291667,1,0,0,response3disk,12,0.001302083,-0.006510417,1,0,0,center_square,0,11,11,79,1,,,,,,,,,,,,,,,,,,,,,,,
798491,001,2022-11-20_17h55.47.358,Info_measure_main_exp,2022.2.2,Win32,59.94844434,,,,,,,,,,,,,,,,,,masks/mask_003.jpg,,,,,,,,,,,,,,,,,,,,,,,,,,,,,,,,,,,,,,,,,,,0,0,0,2,1,,,,,,,,,,,,,,,,,,,,,,,,,,,,,,,,,,,,,,,,,,,,,,
798491,001,2022-11-20_17h55.47.358,Info_measure_main_exp,2022.2.2,Win32,59.94844434,,,,,,,,,,,,,,,,,,masks/mask_004.jpg,,,,,,,,,,,,,,,,,,,,,,,,,,,,,,,,,,,,,,,,,,,0,1,1,3,1,,,,,,,,,,,,,,,,,,,,,,,,,,,,,,,,,,,,,,,,,,,,,,
798491,001,2022-11-20_17h55.47.358,Info_measure_main_exp,2022.2.2,Win32,59.94844434,,,,,,,,,,,,,,,,,,masks/mask_001.jpg,,,,,,,,,,,,,,,,,,,,,,,,,,,,,,,,,,,,,,,,,,,0,2,2,0,1,,,,,,,,,,,,,,,,,,,,,,,,,,,,,,,,,,,,,,,,,,,,,,
798491,001,2022-11-20_17h55.47.358,Info_measure_main_exp,2022.2.2,Win32,59.94844434,,,,,,,,,,,,,,,,,,masks/mask_005.jpg,,,,,,,,,,,,,,,,,,,,,,,,,,,,,,,,,,,,,,,,,,,0,3,3,4,1,,,,,,,,,,,,,,,,,,,,,,,,,,,,,,,,,,,,,,,,,,,,,,
798491,001,2022-11-20_17h55.47.358,Info_measure_main_exp,2022.2.2,Win32,59.94844434,,,,,,,,,,,,,,,,,,masks/mask_002.jpg,,,,,,,,,,,,,,,,,,,,,,,,,,,,,,,,,,,,,,,,,,,0,4,4,1,1,,,,,,,,,,,,,,,,,,,,,,,,,,,,,,,,,,,,,,,,,,,,,,
798491,001,2022-11-20_17h55.47.358,Info_measure_main_exp,2022.2.2,Win32,59.94844434,,,,,,,,,,,,,,,,,,masks/mask_002.jpg,,,,,,,,,,,,,,,,,,,,,,,,,,,,,,,,,,,,,,,,,,,,,,,,0,0,0,1,1,,,,,,,,,,,,,,,,,,,,,,,,,,,,,,,,,,,,,,,,,
798491,001,2022-11-20_17h55.47.358,Info_measure_main_exp,2022.2.2,Win32,59.94844434,,,,,,,,,,,,,,,,,,masks/mask_003.jpg,,,,,,,,,,,,,,,,,,,,,,,,,,,,,,,,,,,,,,,,,,,,,,,,0,1,1,2,1,,,,,,,,,,,,,,,,,,,,,,,,,,,,,,,,,,,,,,,,,
798491,001,2022-11-20_17h55.47.358,Info_measure_main_exp,2022.2.2,Win32,59.94844434,,,,,,,,,,,,,,,,,,masks/mask_001.jpg,,,,,,,,,,,,,,,,,,,,,,,,,,,,,,,,,,,,,,,,,,,,,,,,0,2,2,0,1,,,,,,,,,,,,,,,,,,,,,,,,,,,,,,,,,,,,,,,,,
798491,001,2022-11-20_17h55.47.358,Info_measure_main_exp,2022.2.2,Win32,59.94844434,,,,,,,,,,,,,,,,,,masks/mask_005.jpg,,,,,,,,,,,,,,,,,,,,,,,,,,,,,,,,,,,,,,,,,,,,,,,,0,3,3,4,1,,,,,,,,,,,,,,,,,,,,,,,,,,,,,,,,,,,,,,,,,
798491,001,2022-11-20_17h55.47.358,Info_measure_main_exp,2022.2.2,Win32,59.94844434,,,,,,,,,,,,,,,,,,masks/mask_004.jpg,,,,,,,,,,,,,,,,,,,,,,,,,,,,,,,,,,,,,,,,,,,,,,,,0,4,4,3,1,,,,,,,,,,,,,,,,,,,,,,,,,,,,,,,,,,,,,,,,,
798491,001,2022-11-20_17h55.47.358,Info_measure_main_exp,2022.2.2,Win32,59.94844434,,,,,,,,,,,,,,,,,,,,,,,,,,,,,,7,0.7851,1,,,,,,,,,,,,0,131,5,5,2274,2214,absent_patch/patch0002274.jpg,absent_patch/patch0002214.jpg,,,,,,,,,,,,,,,,,,,,0.065104167,0.153645833,1,0,0,response1disk,13,0.009114583,0.002604167,1,0,0,center_square,0,12,12,11,1,,,,,,,,,,,,,,,,,,,,,,,
798491,001,2022-11-20_17h55.47.358,Info_measure_main_exp,2022.2.2,Win32,59.94844434,,,,,,,,,,,,,,,,,,masks/mask_003.jpg,,,,,,,,,,,,,,,,,,,,,,,,,,,,,,,,,,,,,,,,,,,0,0,0,2,1,,,,,,,,,,,,,,,,,,,,,,,,,,,,,,,,,,,,,,,,,,,,,,
798491,001,2022-11-20_17h55.47.358,Info_measure_main_exp,2022.2.2,Win32,59.94844434,,,,,,,,,,,,,,,,,,masks/mask_001.jpg,,,,,,,,,,,,,,,,,,,,,,,,,,,,,,,,,,,,,,,,,,,0,1,1,0,1,,,,,,,,,,,,,,,,,,,,,,,,,,,,,,,,,,,,,,,,,,,,,,
798491,001,2022-11-20_17h55.47.358,Info_measure_main_exp,2022.2.2,Win32,59.94844434,,,,,,,,,,,,,,,,,,masks/mask_004.jpg,,,,,,,,,,,,,,,,,,,,,,,,,,,,,,,,,,,,,,,,,,,0,2,2,3,1,,,,,,,,,,,,,,,,,,,,,,,,,,,,,,,,,,,,,,,,,,,,,,
798491,001,2022-11-20_17h55.47.358,Info_measure_main_exp,2022.2.2,Win32,59.94844434,,,,,,,,,,,,,,,,,,masks/mask_002.jpg,,,,,,,,,,,,,,,,,,,,,,,,,,,,,,,,,,,,,,,,,,,0,3,3,1,1,,,,,,,,,,,,,,,,,,,,,,,,,,,,,,,,,,,,,,,,,,,,,,
798491,001,2022-11-20_17h55.47.358,Info_measure_main_exp,2022.2.2,Win32,59.94844434,,,,,,,,,,,,,,,,,,masks/mask_005.jpg,,,,,,,,,,,,,,,,,,,,,,,,,,,,,,,,,,,,,,,,,,,0,4,4,4,1,,,,,,,,,,,,,,,,,,,,,,,,,,,,,,,,,,,,,,,,,,,,,,
798491,001,2022-11-20_17h55.47.358,Info_measure_main_exp,2022.2.2,Win32,59.94844434,,,,,,,,,,,,,,,,,,masks/mask_002.jpg,,,,,,,,,,,,,,,,,,,,,,,,,,,,,,,,,,,,,,,,,,,,,,,,0,0,0,1,1,,,,,,,,,,,,,,,,,,,,,,,,,,,,,,,,,,,,,,,,,
798491,001,2022-11-20_17h55.47.358,Info_measure_main_exp,2022.2.2,Win32,59.94844434,,,,,,,,,,,,,,,,,,masks/mask_005.jpg,,,,,,,,,,,,,,,,,,,,,,,,,,,,,,,,,,,,,,,,,,,,,,,,0,1,1,4,1,,,,,,,,,,,,,,,,,,,,,,,,,,,,,,,,,,,,,,,,,
798491,001,2022-11-20_17h55.47.358,Info_measure_main_exp,2022.2.2,Win32,59.94844434,,,,,,,,,,,,,,,,,,masks/mask_004.jpg,,,,,,,,,,,,,,,,,,,,,,,,,,,,,,,,,,,,,,,,,,,,,,,,0,2,2,3,1,,,,,,,,,,,,,,,,,,,,,,,,,,,,,,,,,,,,,,,,,
798491,001,2022-11-20_17h55.47.358,Info_measure_main_exp,2022.2.2,Win32,59.94844434,,,,,,,,,,,,,,,,,,masks/mask_003.jpg,,,,,,,,,,,,,,,,,,,,,,,,,,,,,,,,,,,,,,,,,,,,,,,,0,3,3,2,1,,,,,,,,,,,,,,,,,,,,,,,,,,,,,,,,,,,,,,,,,
798491,001,2022-11-20_17h55.47.358,Info_measure_main_exp,2022.2.2,Win32,59.94844434,,,,,,,,,,,,,,,,,,masks/mask_001.jpg,,,,,,,,,,,,,,,,,,,,,,,,,,,,,,,,,,,,,,,,,,,,,,,,0,4,4,0,1,,,,,,,,,,,,,,,,,,,,,,,,,,,,,,,,,,,,,,,,,
798491,001,2022-11-20_17h55.47.358,Info_measure_main_exp,2022.2.2,Win32,59.94844434,,,,,,,,,,,,,,,,,,,,,,,,,,,,,,1,1.7817,1,,,,,,,,,,,,0,131,5,5,2238,2166,absent_patch/patch0002238.jpg,absent_patch/patch0002166.jpg,,,,,,,,,,,,,,,,,,,,-0.111979167,0.041666667,1,0,0,response7disk,14,-0.002604167,-0.005208333,1,0,0,center_square,0,13,13,118,1,,,,,,,,,,,,,,,,,,,,,,,
798491,001,2022-11-20_17h55.47.358,Info_measure_main_exp,2022.2.2,Win32,59.94844434,,,,,,,,,,,,,,,,,,masks/mask_001.jpg,,,,,,,,,,,,,,,,,,,,,,,,,,,,,,,,,,,,,,,,,,,0,0,0,0,1,,,,,,,,,,,,,,,,,,,,,,,,,,,,,,,,,,,,,,,,,,,,,,
798491,001,2022-11-20_17h55.47.358,Info_measure_main_exp,2022.2.2,Win32,59.94844434,,,,,,,,,,,,,,,,,,masks/mask_004.jpg,,,,,,,,,,,,,,,,,,,,,,,,,,,,,,,,,,,,,,,,,,,0,1,1,3,1,,,,,,,,,,,,,,,,,,,,,,,,,,,,,,,,,,,,,,,,,,,,,,
798491,001,2022-11-20_17h55.47.358,Info_measure_main_exp,2022.2.2,Win32,59.94844434,,,,,,,,,,,,,,,,,,masks/mask_002.jpg,,,,,,,,,,,,,,,,,,,,,,,,,,,,,,,,,,,,,,,,,,,0,2,2,1,1,,,,,,,,,,,,,,,,,,,,,,,,,,,,,,,,,,,,,,,,,,,,,,
798491,001,2022-11-20_17h55.47.358,Info_measure_main_exp,2022.2.2,Win32,59.94844434,,,,,,,,,,,,,,,,,,masks/mask_003.jpg,,,,,,,,,,,,,,,,,,,,,,,,,,,,,,,,,,,,,,,,,,,0,3,3,2,1,,,,,,,,,,,,,,,,,,,,,,,,,,,,,,,,,,,,,,,,,,,,,,
798491,001,2022-11-20_17h55.47.358,Info_measure_main_exp,2022.2.2,Win32,59.94844434,,,,,,,,,,,,,,,,,,masks/mask_005.jpg,,,,,,,,,,,,,,,,,,,,,,,,,,,,,,,,,,,,,,,,,,,0,4,4,4,1,,,,,,,,,,,,,,,,,,,,,,,,,,,,,,,,,,,,,,,,,,,,,,
798491,001,2022-11-20_17h55.47.358,Info_measure_main_exp,2022.2.2,Win32,59.94844434,,,,,,,,,,,,,,,,,,masks/mask_001.jpg,,,,,,,,,,,,,,,,,,,,,,,,,,,,,,,,,,,,,,,,,,,,,,,,0,0,0,0,1,,,,,,,,,,,,,,,,,,,,,,,,,,,,,,,,,,,,,,,,,
798491,001,2022-11-20_17h55.47.358,Info_measure_main_exp,2022.2.2,Win32,59.94844434,,,,,,,,,,,,,,,,,,masks/mask_005.jpg,,,,,,,,,,,,,,,,,,,,,,,,,,,,,,,,,,,,,,,,,,,,,,,,0,1,1,4,1,,,,,,,,,,,,,,,,,,,,,,,,,,,,,,,,,,,,,,,,,
798491,001,2022-11-20_17h55.47.358,Info_measure_main_exp,2022.2.2,Win32,59.94844434,,,,,,,,,,,,,,,,,,masks/mask_002.jpg,,,,,,,,,,,,,,,,,,,,,,,,,,,,,,,,,,,,,,,,,,,,,,,,0,2,2,1,1,,,,,,,,,,,,,,,,,,,,,,,,,,,,,,,,,,,,,,,,,
798491,001,2022-11-20_17h55.47.358,Info_measure_main_exp,2022.2.2,Win32,59.94844434,,,,,,,,,,,,,,,,,,masks/mask_003.jpg,,,,,,,,,,,,,,,,,,,,,,,,,,,,,,,,,,,,,,,,,,,,,,,,0,3,3,2,1,,,,,,,,,,,,,,,,,,,,,,,,,,,,,,,,,,,,,,,,,
798491,001,2022-11-20_17h55.47.358,Info_measure_main_exp,2022.2.2,Win32,59.94844434,,,,,,,,,,,,,,,,,,masks/mask_004.jpg,,,,,,,,,,,,,,,,,,,,,,,,,,,,,,,,,,,,,,,,,,,,,,,,0,4,4,3,1,,,,,,,,,,,,,,,,,,,,,,,,,,,,,,,,,,,,,,,,,
798491,001,2022-11-20_17h55.47.358,Info_measure_main_exp,2022.2.2,Win32,59.94844434,,,,,,,,,,,,,,,,,,,,,,,,,,,,,,0,1.7574,1,,,,,,,,,,,,0,131,5,5,1950,1950,absent_patch/patch0001950.jpg,absent_patch/patch0001950.jpg,,,,,,,,,,,,,,,,,,,,-0.046875,0.084635417,1,0,0,response7disk,15,0.001302083,-0.005208333,1,0,0,center_square,0,14,14,92,1,,,,,,,,,,,,,,,,,,,,,,,
798491,001,2022-11-20_17h55.47.358,Info_measure_main_exp,2022.2.2,Win32,59.94844434,,,,,,,,,,,,,,,,,,masks/mask_002.jpg,,,,,,,,,,,,,,,,,,,,,,,,,,,,,,,,,,,,,,,,,,,0,0,0,1,1,,,,,,,,,,,,,,,,,,,,,,,,,,,,,,,,,,,,,,,,,,,,,,
798491,001,2022-11-20_17h55.47.358,Info_measure_main_exp,2022.2.2,Win32,59.94844434,,,,,,,,,,,,,,,,,,masks/mask_001.jpg,,,,,,,,,,,,,,,,,,,,,,,,,,,,,,,,,,,,,,,,,,,0,1,1,0,1,,,,,,,,,,,,,,,,,,,,,,,,,,,,,,,,,,,,,,,,,,,,,,
798491,001,2022-11-20_17h55.47.358,Info_measure_main_exp,2022.2.2,Win32,59.94844434,,,,,,,,,,,,,,,,,,masks/mask_005.jpg,,,,,,,,,,,,,,,,,,,,,,,,,,,,,,,,,,,,,,,,,,,0,2,2,4,1,,,,,,,,,,,,,,,,,,,,,,,,,,,,,,,,,,,,,,,,,,,,,,
798491,001,2022-11-20_17h55.47.358,Info_measure_main_exp,2022.2.2,Win32,59.94844434,,,,,,,,,,,,,,,,,,masks/mask_003.jpg,,,,,,,,,,,,,,,,,,,,,,,,,,,,,,,,,,,,,,,,,,,0,3,3,2,1,,,,,,,,,,,,,,,,,,,,,,,,,,,,,,,,,,,,,,,,,,,,,,
798491,001,2022-11-20_17h55.47.358,Info_measure_main_exp,2022.2.2,Win32,59.94844434,,,,,,,,,,,,,,,,,,masks/mask_004.jpg,,,,,,,,,,,,,,,,,,,,,,,,,,,,,,,,,,,,,,,,,,,0,4,4,3,1,,,,,,,,,,,,,,,,,,,,,,,,,,,,,,,,,,,,,,,,,,,,,,
798491,001,2022-11-20_17h55.47.358,Info_measure_main_exp,2022.2.2,Win32,59.94844434,,,,,,,,,,,,,,,,,,masks/mask_004.jpg,,,,,,,,,,,,,,,,,,,,,,,,,,,,,,,,,,,,,,,,,,,,,,,,0,0,0,3,1,,,,,,,,,,,,,,,,,,,,,,,,,,,,,,,,,,,,,,,,,
798491,001,2022-11-20_17h55.47.358,Info_measure_main_exp,2022.2.2,Win32,59.94844434,,,,,,,,,,,,,,,,,,masks/mask_005.jpg,,,,,,,,,,,,,,,,,,,,,,,,,,,,,,,,,,,,,,,,,,,,,,,,0,1,1,4,1,,,,,,,,,,,,,,,,,,,,,,,,,,,,,,,,,,,,,,,,,
798491,001,2022-11-20_17h55.47.358,Info_measure_main_exp,2022.2.2,Win32,59.94844434,,,,,,,,,,,,,,,,,,masks/mask_003.jpg,,,,,,,,,,,,,,,,,,,,,,,,,,,,,,,,,,,,,,,,,,,,,,,,0,2,2,2,1,,,,,,,,,,,,,,,,,,,,,,,,,,,,,,,,,,,,,,,,,
798491,001,2022-11-20_17h55.47.358,Info_measure_main_exp,2022.2.2,Win32,59.94844434,,,,,,,,,,,,,,,,,,masks/mask_002.jpg,,,,,,,,,,,,,,,,,,,,,,,,,,,,,,,,,,,,,,,,,,,,,,,,0,3,3,1,1,,,,,,,,,,,,,,,,,,,,,,,,,,,,,,,,,,,,,,,,,
798491,001,2022-11-20_17h55.47.358,Info_measure_main_exp,2022.2.2,Win32,59.94844434,,,,,,,,,,,,,,,,,,masks/mask_001.jpg,,,,,,,,,,,,,,,,,,,,,,,,,,,,,,,,,,,,,,,,,,,,,,,,0,4,4,0,1,,,,,,,,,,,,,,,,,,,,,,,,,,,,,,,,,,,,,,,,,
798491,001,2022-11-20_17h55.47.358,Info_measure_main_exp,2022.2.2,Win32,59.94844434,,,,,,,,,,,,,,,,,,,,,,,,,,,,,,7,1.4077,1,,,,,,,,,,,,0,131,5,5,2238,2214,absent_patch/patch0002238.jpg,absent_patch/patch0002214.jpg,,,,,,,,,,,,,,,,,,,,0.016927083,0.151041667,1,0,0,response1disk,16,-0.00390625,-0.005208333,1,0,0,center_square,0,15,15,81,1,,,,,,,,,,,,,,,,,,,,,,,
798491,001,2022-11-20_17h55.47.358,Info_measure_main_exp,2022.2.2,Win32,59.94844434,,,,,,,,,,,,,,,,,,masks/mask_002.jpg,,,,,,,,,,,,,,,,,,,,,,,,,,,,,,,,,,,,,,,,,,,0,0,0,1,1,,,,,,,,,,,,,,,,,,,,,,,,,,,,,,,,,,,,,,,,,,,,,,
798491,001,2022-11-20_17h55.47.358,Info_measure_main_exp,2022.2.2,Win32,59.94844434,,,,,,,,,,,,,,,,,,masks/mask_004.jpg,,,,,,,,,,,,,,,,,,,,,,,,,,,,,,,,,,,,,,,,,,,0,1,1,3,1,,,,,,,,,,,,,,,,,,,,,,,,,,,,,,,,,,,,,,,,,,,,,,
798491,001,2022-11-20_17h55.47.358,Info_measure_main_exp,2022.2.2,Win32,59.94844434,,,,,,,,,,,,,,,,,,masks/mask_005.jpg,,,,,,,,,,,,,,,,,,,,,,,,,,,,,,,,,,,,,,,,,,,0,2,2,4,1,,,,,,,,,,,,,,,,,,,,,,,,,,,,,,,,,,,,,,,,,,,,,,
798491,001,2022-11-20_17h55.47.358,Info_measure_main_exp,2022.2.2,Win32,59.94844434,,,,,,,,,,,,,,,,,,masks/mask_001.jpg,,,,,,,,,,,,,,,,,,,,,,,,,,,,,,,,,,,,,,,,,,,0,3,3,0,1,,,,,,,,,,,,,,,,,,,,,,,,,,,,,,,,,,,,,,,,,,,,,,
798491,001,2022-11-20_17h55.47.358,Info_measure_main_exp,2022.2.2,Win32,59.94844434,,,,,,,,,,,,,,,,,,masks/mask_003.jpg,,,,,,,,,,,,,,,,,,,,,,,,,,,,,,,,,,,,,,,,,,,0,4,4,2,1,,,,,,,,,,,,,,,,,,,,,,,,,,,,,,,,,,,,,,,,,,,,,,
798491,001,2022-11-20_17h55.47.358,Info_measure_main_exp,2022.2.2,Win32,59.94844434,,,,,,,,,,,,,,,,,,masks/mask_005.jpg,,,,,,,,,,,,,,,,,,,,,,,,,,,,,,,,,,,,,,,,,,,,,,,,0,0,0,4,1,,,,,,,,,,,,,,,,,,,,,,,,,,,,,,,,,,,,,,,,,
798491,001,2022-11-20_17h55.47.358,Info_measure_main_exp,2022.2.2,Win32,59.94844434,,,,,,,,,,,,,,,,,,masks/mask_001.jpg,,,,,,,,,,,,,,,,,,,,,,,,,,,,,,,,,,,,,,,,,,,,,,,,0,1,1,0,1,,,,,,,,,,,,,,,,,,,,,,,,,,,,,,,,,,,,,,,,,
798491,001,2022-11-20_17h55.47.358,Info_measure_main_exp,2022.2.2,Win32,59.94844434,,,,,,,,,,,,,,,,,,masks/mask_002.jpg,,,,,,,,,,,,,,,,,,,,,,,,,,,,,,,,,,,,,,,,,,,,,,,,0,2,2,1,1,,,,,,,,,,,,,,,,,,,,,,,,,,,,,,,,,,,,,,,,,
798491,001,2022-11-20_17h55.47.358,Info_measure_main_exp,2022.2.2,Win32,59.94844434,,,,,,,,,,,,,,,,,,masks/mask_004.jpg,,,,,,,,,,,,,,,,,,,,,,,,,,,,,,,,,,,,,,,,,,,,,,,,0,3,3,3,1,,,,,,,,,,,,,,,,,,,,,,,,,,,,,,,,,,,,,,,,,
798491,001,2022-11-20_17h55.47.358,Info_measure_main_exp,2022.2.2,Win32,59.94844434,,,,,,,,,,,,,,,,,,masks/mask_003.jpg,,,,,,,,,,,,,,,,,,,,,,,,,,,,,,,,,,,,,,,,,,,,,,,,0,4,4,2,1,,,,,,,,,,,,,,,,,,,,,,,,,,,,,,,,,,,,,,,,,
798491,001,2022-11-20_17h55.47.358,Info_measure_main_exp,2022.2.2,Win32,59.94844434,,,,,,,,,,,,,,,,,,,,,,,,,,,,,,4,5.2472,1,,,,,,,,,,,,0,131,5,5,2154,2154,absent_patch/patch0002154.jpg,absent_patch/patch0002154.jpg,,,,,,,,,,,,,,,,,,,,0.059895833,-0.139322917,1,0,0,response3disk,17,0.0078125,-0.009114583,1,0,0,center_square,0,16,16,89,1,,,,,,,,,,,,,,,,,,,,,,,
798491,001,2022-11-20_17h55.47.358,Info_measure_main_exp,2022.2.2,Win32,59.94844434,,,,,,,,,,,,,,,,,,masks/mask_001.jpg,,,,,,,,,,,,,,,,,,,,,,,,,,,,,,,,,,,,,,,,,,,0,0,0,0,1,,,,,,,,,,,,,,,,,,,,,,,,,,,,,,,,,,,,,,,,,,,,,,
798491,001,2022-11-20_17h55.47.358,Info_measure_main_exp,2022.2.2,Win32,59.94844434,,,,,,,,,,,,,,,,,,masks/mask_005.jpg,,,,,,,,,,,,,,,,,,,,,,,,,,,,,,,,,,,,,,,,,,,0,1,1,4,1,,,,,,,,,,,,,,,,,,,,,,,,,,,,,,,,,,,,,,,,,,,,,,
798491,001,2022-11-20_17h55.47.358,Info_measure_main_exp,2022.2.2,Win32,59.94844434,,,,,,,,,,,,,,,,,,masks/mask_004.jpg,,,,,,,,,,,,,,,,,,,,,,,,,,,,,,,,,,,,,,,,,,,0,2,2,3,1,,,,,,,,,,,,,,,,,,,,,,,,,,,,,,,,,,,,,,,,,,,,,,
798491,001,2022-11-20_17h55.47.358,Info_measure_main_exp,2022.2.2,Win32,59.94844434,,,,,,,,,,,,,,,,,,masks/mask_003.jpg,,,,,,,,,,,,,,,,,,,,,,,,,,,,,,,,,,,,,,,,,,,0,3,3,2,1,,,,,,,,,,,,,,,,,,,,,,,,,,,,,,,,,,,,,,,,,,,,,,
798491,001,2022-11-20_17h55.47.358,Info_measure_main_exp,2022.2.2,Win32,59.94844434,,,,,,,,,,,,,,,,,,masks/mask_002.jpg,,,,,,,,,,,,,,,,,,,,,,,,,,,,,,,,,,,,,,,,,,,0,4,4,1,1,,,,,,,,,,,,,,,,,,,,,,,,,,,,,,,,,,,,,,,,,,,,,,
798491,001,2022-11-20_17h55.47.358,Info_measure_main_exp,2022.2.2,Win32,59.94844434,,,,,,,,,,,,,,,,,,masks/mask_004.jpg,,,,,,,,,,,,,,,,,,,,,,,,,,,,,,,,,,,,,,,,,,,,,,,,0,0,0,3,1,,,,,,,,,,,,,,,,,,,,,,,,,,,,,,,,,,,,,,,,,
798491,001,2022-11-20_17h55.47.358,Info_measure_main_exp,2022.2.2,Win32,59.94844434,,,,,,,,,,,,,,,,,,masks/mask_002.jpg,,,,,,,,,,,,,,,,,,,,,,,,,,,,,,,,,,,,,,,,,,,,,,,,0,1,1,1,1,,,,,,,,,,,,,,,,,,,,,,,,,,,,,,,,,,,,,,,,,
798491,001,2022-11-20_17h55.47.358,Info_measure_main_exp,2022.2.2,Win32,59.94844434,,,,,,,,,,,,,,,,,,masks/mask_003.jpg,,,,,,,,,,,,,,,,,,,,,,,,,,,,,,,,,,,,,,,,,,,,,,,,0,2,2,2,1,,,,,,,,,,,,,,,,,,,,,,,,,,,,,,,,,,,,,,,,,
798491,001,2022-11-20_17h55.47.358,Info_measure_main_exp,2022.2.2,Win32,59.94844434,,,,,,,,,,,,,,,,,,masks/mask_001.jpg,,,,,,,,,,,,,,,,,,,,,,,,,,,,,,,,,,,,,,,,,,,,,,,,0,3,3,0,1,,,,,,,,,,,,,,,,,,,,,,,,,,,,,,,,,,,,,,,,,
798491,001,2022-11-20_17h55.47.358,Info_measure_main_exp,2022.2.2,Win32,59.94844434,,,,,,,,,,,,,,,,,,masks/mask_005.jpg,,,,,,,,,,,,,,,,,,,,,,,,,,,,,,,,,,,,,,,,,,,,,,,,0,4,4,4,1,,,,,,,,,,,,,,,,,,,,,,,,,,,,,,,,,,,,,,,,,
798491,001,2022-11-20_17h55.47.358,Info_measure_main_exp,2022.2.2,Win32,59.94844434,,,,,,,,,,,,,,,,,,,,,,,,,,,,,,0,1.2339,1,,,,,,,,,,,,0,131,5,5,2274,2274,absent_patch/patch0002274.jpg,absent_patch/patch0002274.jpg,,,,,,,,,,,,,,,,,,,,-0.00390625,0.15234375,1,0,0,response7disk,18,-0.001302083,-0.005208333,1,0,0,center_square,0,17,17,114,1,,,,,,,,,,,,,,,,,,,,,,,
798491,001,2022-11-20_17h55.47.358,Info_measure_main_exp,2022.2.2,Win32,59.94844434,,,,,,,,,,,,,,,,,,masks/mask_004.jpg,,,,,,,,,,,,,,,,,,,,,,,,,,,,,,,,,,,,,,,,,,,0,0,0,3,1,,,,,,,,,,,,,,,,,,,,,,,,,,,,,,,,,,,,,,,,,,,,,,
798491,001,2022-11-20_17h55.47.358,Info_measure_main_exp,2022.2.2,Win32,59.94844434,,,,,,,,,,,,,,,,,,masks/mask_002.jpg,,,,,,,,,,,,,,,,,,,,,,,,,,,,,,,,,,,,,,,,,,,0,1,1,1,1,,,,,,,,,,,,,,,,,,,,,,,,,,,,,,,,,,,,,,,,,,,,,,
798491,001,2022-11-20_17h55.47.358,Info_measure_main_exp,2022.2.2,Win32,59.94844434,,,,,,,,,,,,,,,,,,masks/mask_005.jpg,,,,,,,,,,,,,,,,,,,,,,,,,,,,,,,,,,,,,,,,,,,0,2,2,4,1,,,,,,,,,,,,,,,,,,,,,,,,,,,,,,,,,,,,,,,,,,,,,,
798491,001,2022-11-20_17h55.47.358,Info_measure_main_exp,2022.2.2,Win32,59.94844434,,,,,,,,,,,,,,,,,,masks/mask_001.jpg,,,,,,,,,,,,,,,,,,,,,,,,,,,,,,,,,,,,,,,,,,,0,3,3,0,1,,,,,,,,,,,,,,,,,,,,,,,,,,,,,,,,,,,,,,,,,,,,,,
798491,001,2022-11-20_17h55.47.358,Info_measure_main_exp,2022.2.2,Win32,59.94844434,,,,,,,,,,,,,,,,,,masks/mask_003.jpg,,,,,,,,,,,,,,,,,,,,,,,,,,,,,,,,,,,,,,,,,,,0,4,4,2,1,,,,,,,,,,,,,,,,,,,,,,,,,,,,,,,,,,,,,,,,,,,,,,
798491,001,2022-11-20_17h55.47.358,Info_measure_main_exp,2022.2.2,Win32,59.94844434,,,,,,,,,,,,,,,,,,masks/mask_005.jpg,,,,,,,,,,,,,,,,,,,,,,,,,,,,,,,,,,,,,,,,,,,,,,,,0,0,0,4,1,,,,,,,,,,,,,,,,,,,,,,,,,,,,,,,,,,,,,,,,,
798491,001,2022-11-20_17h55.47.358,Info_measure_main_exp,2022.2.2,Win32,59.94844434,,,,,,,,,,,,,,,,,,masks/mask_002.jpg,,,,,,,,,,,,,,,,,,,,,,,,,,,,,,,,,,,,,,,,,,,,,,,,0,1,1,1,1,,,,,,,,,,,,,,,,,,,,,,,,,,,,,,,,,,,,,,,,,
798491,001,2022-11-20_17h55.47.358,Info_measure_main_exp,2022.2.2,Win32,59.94844434,,,,,,,,,,,,,,,,,,masks/mask_004.jpg,,,,,,,,,,,,,,,,,,,,,,,,,,,,,,,,,,,,,,,,,,,,,,,,0,2,2,3,1,,,,,,,,,,,,,,,,,,,,,,,,,,,,,,,,,,,,,,,,,
798491,001,2022-11-20_17h55.47.358,Info_measure_main_exp,2022.2.2,Win32,59.94844434,,,,,,,,,,,,,,,,,,masks/mask_003.jpg,,,,,,,,,,,,,,,,,,,,,,,,,,,,,,,,,,,,,,,,,,,,,,,,0,3,3,2,1,,,,,,,,,,,,,,,,,,,,,,,,,,,,,,,,,,,,,,,,,
798491,001,2022-11-20_17h55.47.358,Info_measure_main_exp,2022.2.2,Win32,59.94844434,,,,,,,,,,,,,,,,,,masks/mask_001.jpg,,,,,,,,,,,,,,,,,,,,,,,,,,,,,,,,,,,,,,,,,,,,,,,,0,4,4,0,1,,,,,,,,,,,,,,,,,,,,,,,,,,,,,,,,,,,,,,,,,
798491,001,2022-11-20_17h55.47.358,Info_measure_main_exp,2022.2.2,Win32,59.94844434,,,,,,,,,,,,,,,,,,,,,,,,,,,,,,7,1.8656,1,,,,,,,,,,,,0,131,5,5,2154,2214,absent_patch/patch0002154.jpg,absent_patch/patch0002214.jpg,,,,,,,,,,,,,,,,,,,,0.069010417,0.109375,1,0,0,response1disk,19,-0.015625,0,1,0,0,center_square,0,18,18,67,1,,,,,,,,,,,,,,,,,,,,,,,
798491,001,2022-11-20_17h55.47.358,Info_measure_main_exp,2022.2.2,Win32,59.94844434,,,,,,,,,,,,,,,,,,masks/mask_005.jpg,,,,,,,,,,,,,,,,,,,,,,,,,,,,,,,,,,,,,,,,,,,0,0,0,4,1,,,,,,,,,,,,,,,,,,,,,,,,,,,,,,,,,,,,,,,,,,,,,,
798491,001,2022-11-20_17h55.47.358,Info_measure_main_exp,2022.2.2,Win32,59.94844434,,,,,,,,,,,,,,,,,,masks/mask_003.jpg,,,,,,,,,,,,,,,,,,,,,,,,,,,,,,,,,,,,,,,,,,,0,1,1,2,1,,,,,,,,,,,,,,,,,,,,,,,,,,,,,,,,,,,,,,,,,,,,,,
798491,001,2022-11-20_17h55.47.358,Info_measure_main_exp,2022.2.2,Win32,59.94844434,,,,,,,,,,,,,,,,,,masks/mask_001.jpg,,,,,,,,,,,,,,,,,,,,,,,,,,,,,,,,,,,,,,,,,,,0,2,2,0,1,,,,,,,,,,,,,,,,,,,,,,,,,,,,,,,,,,,,,,,,,,,,,,
798491,001,2022-11-20_17h55.47.358,Info_measure_main_exp,2022.2.2,Win32,59.94844434,,,,,,,,,,,,,,,,,,masks/mask_004.jpg,,,,,,,,,,,,,,,,,,,,,,,,,,,,,,,,,,,,,,,,,,,0,3,3,3,1,,,,,,,,,,,,,,,,,,,,,,,,,,,,,,,,,,,,,,,,,,,,,,
798491,001,2022-11-20_17h55.47.358,Info_measure_main_exp,2022.2.2,Win32,59.94844434,,,,,,,,,,,,,,,,,,masks/mask_002.jpg,,,,,,,,,,,,,,,,,,,,,,,,,,,,,,,,,,,,,,,,,,,0,4,4,1,1,,,,,,,,,,,,,,,,,,,,,,,,,,,,,,,,,,,,,,,,,,,,,,
798491,001,2022-11-20_17h55.47.358,Info_measure_main_exp,2022.2.2,Win32,59.94844434,,,,,,,,,,,,,,,,,,masks/mask_003.jpg,,,,,,,,,,,,,,,,,,,,,,,,,,,,,,,,,,,,,,,,,,,,,,,,0,0,0,2,1,,,,,,,,,,,,,,,,,,,,,,,,,,,,,,,,,,,,,,,,,
798491,001,2022-11-20_17h55.47.358,Info_measure_main_exp,2022.2.2,Win32,59.94844434,,,,,,,,,,,,,,,,,,masks/mask_001.jpg,,,,,,,,,,,,,,,,,,,,,,,,,,,,,,,,,,,,,,,,,,,,,,,,0,1,1,0,1,,,,,,,,,,,,,,,,,,,,,,,,,,,,,,,,,,,,,,,,,
798491,001,2022-11-20_17h55.47.358,Info_measure_main_exp,2022.2.2,Win32,59.94844434,,,,,,,,,,,,,,,,,,masks/mask_002.jpg,,,,,,,,,,,,,,,,,,,,,,,,,,,,,,,,,,,,,,,,,,,,,,,,0,2,2,1,1,,,,,,,,,,,,,,,,,,,,,,,,,,,,,,,,,,,,,,,,,
798491,001,2022-11-20_17h55.47.358,Info_measure_main_exp,2022.2.2,Win32,59.94844434,,,,,,,,,,,,,,,,,,masks/mask_005.jpg,,,,,,,,,,,,,,,,,,,,,,,,,,,,,,,,,,,,,,,,,,,,,,,,0,3,3,4,1,,,,,,,,,,,,,,,,,,,,,,,,,,,,,,,,,,,,,,,,,
798491,001,2022-11-20_17h55.47.358,Info_measure_main_exp,2022.2.2,Win32,59.94844434,,,,,,,,,,,,,,,,,,masks/mask_004.jpg,,,,,,,,,,,,,,,,,,,,,,,,,,,,,,,,,,,,,,,,,,,,,,,,0,4,4,3,1,,,,,,,,,,,,,,,,,,,,,,,,,,,,,,,,,,,,,,,,,
798491,001,2022-11-20_17h55.47.358,Info_measure_main_exp,2022.2.2,Win32,59.94844434,,,,,,,,,,,,,,,,,,,,,,,,,,,,,,7,2.7813,1,,,,,,,,,,,,0,131,5,5,2082,1974,absent_patch/patch0002082.jpg,absent_patch/patch0001974.jpg,,,,,,,,,,,,,,,,,,,,0.05078125,0.11328125,1,0,0,response1disk,20,0,0.005208333,1,0,0,center_square,0,19,19,26,1,,,,,,,,,,,,,,,,,,,,,,,
798491,001,2022-11-20_17h55.47.358,Info_measure_main_exp,2022.2.2,Win32,59.94844434,,,,,,,,,,,,,,,,,,masks/mask_001.jpg,,,,,,,,,,,,,,,,,,,,,,,,,,,,,,,,,,,,,,,,,,,0,0,0,0,1,,,,,,,,,,,,,,,,,,,,,,,,,,,,,,,,,,,,,,,,,,,,,,
798491,001,2022-11-20_17h55.47.358,Info_measure_main_exp,2022.2.2,Win32,59.94844434,,,,,,,,,,,,,,,,,,masks/mask_002.jpg,,,,,,,,,,,,,,,,,,,,,,,,,,,,,,,,,,,,,,,,,,,0,1,1,1,1,,,,,,,,,,,,,,,,,,,,,,,,,,,,,,,,,,,,,,,,,,,,,,
798491,001,2022-11-20_17h55.47.358,Info_measure_main_exp,2022.2.2,Win32,59.94844434,,,,,,,,,,,,,,,,,,masks/mask_004.jpg,,,,,,,,,,,,,,,,,,,,,,,,,,,,,,,,,,,,,,,,,,,0,2,2,3,1,,,,,,,,,,,,,,,,,,,,,,,,,,,,,,,,,,,,,,,,,,,,,,
798491,001,2022-11-20_17h55.47.358,Info_measure_main_exp,2022.2.2,Win32,59.94844434,,,,,,,,,,,,,,,,,,masks/mask_003.jpg,,,,,,,,,,,,,,,,,,,,,,,,,,,,,,,,,,,,,,,,,,,0,3,3,2,1,,,,,,,,,,,,,,,,,,,,,,,,,,,,,,,,,,,,,,,,,,,,,,
798491,001,2022-11-20_17h55.47.358,Info_measure_main_exp,2022.2.2,Win32,59.94844434,,,,,,,,,,,,,,,,,,masks/mask_005.jpg,,,,,,,,,,,,,,,,,,,,,,,,,,,,,,,,,,,,,,,,,,,0,4,4,4,1,,,,,,,,,,,,,,,,,,,,,,,,,,,,,,,,,,,,,,,,,,,,,,
798491,001,2022-11-20_17h55.47.358,Info_measure_main_exp,2022.2.2,Win32,59.94844434,,,,,,,,,,,,,,,,,,masks/mask_005.jpg,,,,,,,,,,,,,,,,,,,,,,,,,,,,,,,,,,,,,,,,,,,,,,,,0,0,0,4,1,,,,,,,,,,,,,,,,,,,,,,,,,,,,,,,,,,,,,,,,,
798491,001,2022-11-20_17h55.47.358,Info_measure_main_exp,2022.2.2,Win32,59.94844434,,,,,,,,,,,,,,,,,,masks/mask_003.jpg,,,,,,,,,,,,,,,,,,,,,,,,,,,,,,,,,,,,,,,,,,,,,,,,0,1,1,2,1,,,,,,,,,,,,,,,,,,,,,,,,,,,,,,,,,,,,,,,,,
798491,001,2022-11-20_17h55.47.358,Info_measure_main_exp,2022.2.2,Win32,59.94844434,,,,,,,,,,,,,,,,,,masks/mask_001.jpg,,,,,,,,,,,,,,,,,,,,,,,,,,,,,,,,,,,,,,,,,,,,,,,,0,2,2,0,1,,,,,,,,,,,,,,,,,,,,,,,,,,,,,,,,,,,,,,,,,
798491,001,2022-11-20_17h55.47.358,Info_measure_main_exp,2022.2.2,Win32,59.94844434,,,,,,,,,,,,,,,,,,masks/mask_004.jpg,,,,,,,,,,,,,,,,,,,,,,,,,,,,,,,,,,,,,,,,,,,,,,,,0,3,3,3,1,,,,,,,,,,,,,,,,,,,,,,,,,,,,,,,,,,,,,,,,,
798491,001,2022-11-20_17h55.47.358,Info_measure_main_exp,2022.2.2,Win32,59.94844434,,,,,,,,,,,,,,,,,,masks/mask_002.jpg,,,,,,,,,,,,,,,,,,,,,,,,,,,,,,,,,,,,,,,,,,,,,,,,0,4,4,1,1,,,,,,,,,,,,,,,,,,,,,,,,,,,,,,,,,,,,,,,,,
798491,001,2022-11-20_17h55.47.358,Info_measure_main_exp,2022.2.2,Win32,59.94844434,,,,,,,,,,,,,,,,,,,,,,,,,,,,,,6,1.5256,1,,,,,,,,,,,,0,131,5,5,1950,2238,absent_patch/patch0001950.jpg,absent_patch/patch0002238.jpg,,,,,,,,,,,,,,,,,,,,0.083333333,0.048177083,1,0,0,response1disk,21,0.006510417,-0.002604167,1,0,0,center_square,0,20,20,8,1,,,,,,,,,,,,,,,,,,,,,,,
798491,001,2022-11-20_17h55.47.358,Info_measure_main_exp,2022.2.2,Win32,59.94844434,,,,,,,,,,,,,,,,,,masks/mask_002.jpg,,,,,,,,,,,,,,,,,,,,,,,,,,,,,,,,,,,,,,,,,,,0,0,0,1,1,,,,,,,,,,,,,,,,,,,,,,,,,,,,,,,,,,,,,,,,,,,,,,
798491,001,2022-11-20_17h55.47.358,Info_measure_main_exp,2022.2.2,Win32,59.94844434,,,,,,,,,,,,,,,,,,masks/mask_001.jpg,,,,,,,,,,,,,,,,,,,,,,,,,,,,,,,,,,,,,,,,,,,0,1,1,0,1,,,,,,,,,,,,,,,,,,,,,,,,,,,,,,,,,,,,,,,,,,,,,,
798491,001,2022-11-20_17h55.47.358,Info_measure_main_exp,2022.2.2,Win32,59.94844434,,,,,,,,,,,,,,,,,,masks/mask_004.jpg,,,,,,,,,,,,,,,,,,,,,,,,,,,,,,,,,,,,,,,,,,,0,2,2,3,1,,,,,,,,,,,,,,,,,,,,,,,,,,,,,,,,,,,,,,,,,,,,,,
798491,001,2022-11-20_17h55.47.358,Info_measure_main_exp,2022.2.2,Win32,59.94844434,,,,,,,,,,,,,,,,,,masks/mask_003.jpg,,,,,,,,,,,,,,,,,,,,,,,,,,,,,,,,,,,,,,,,,,,0,3,3,2,1,,,,,,,,,,,,,,,,,,,,,,,,,,,,,,,,,,,,,,,,,,,,,,
798491,001,2022-11-20_17h55.47.358,Info_measure_main_exp,2022.2.2,Win32,59.94844434,,,,,,,,,,,,,,,,,,masks/mask_005.jpg,,,,,,,,,,,,,,,,,,,,,,,,,,,,,,,,,,,,,,,,,,,0,4,4,4,1,,,,,,,,,,,,,,,,,,,,,,,,,,,,,,,,,,,,,,,,,,,,,,
798491,001,2022-11-20_17h55.47.358,Info_measure_main_exp,2022.2.2,Win32,59.94844434,,,,,,,,,,,,,,,,,,masks/mask_004.jpg,,,,,,,,,,,,,,,,,,,,,,,,,,,,,,,,,,,,,,,,,,,,,,,,0,0,0,3,1,,,,,,,,,,,,,,,,,,,,,,,,,,,,,,,,,,,,,,,,,
798491,001,2022-11-20_17h55.47.358,Info_measure_main_exp,2022.2.2,Win32,59.94844434,,,,,,,,,,,,,,,,,,masks/mask_005.jpg,,,,,,,,,,,,,,,,,,,,,,,,,,,,,,,,,,,,,,,,,,,,,,,,0,1,1,4,1,,,,,,,,,,,,,,,,,,,,,,,,,,,,,,,,,,,,,,,,,
798491,001,2022-11-20_17h55.47.358,Info_measure_main_exp,2022.2.2,Win32,59.94844434,,,,,,,,,,,,,,,,,,masks/mask_001.jpg,,,,,,,,,,,,,,,,,,,,,,,,,,,,,,,,,,,,,,,,,,,,,,,,0,2,2,0,1,,,,,,,,,,,,,,,,,,,,,,,,,,,,,,,,,,,,,,,,,
798491,001,2022-11-20_17h55.47.358,Info_measure_main_exp,2022.2.2,Win32,59.94844434,,,,,,,,,,,,,,,,,,masks/mask_003.jpg,,,,,,,,,,,,,,,,,,,,,,,,,,,,,,,,,,,,,,,,,,,,,,,,0,3,3,2,1,,,,,,,,,,,,,,,,,,,,,,,,,,,,,,,,,,,,,,,,,
798491,001,2022-11-20_17h55.47.358,Info_measure_main_exp,2022.2.2,Win32,59.94844434,,,,,,,,,,,,,,,,,,masks/mask_002.jpg,,,,,,,,,,,,,,,,,,,,,,,,,,,,,,,,,,,,,,,,,,,,,,,,0,4,4,1,1,,,,,,,,,,,,,,,,,,,,,,,,,,,,,,,,,,,,,,,,,
798491,001,2022-11-20_17h55.47.358,Info_measure_main_exp,2022.2.2,Win32,59.94844434,,,,,,,,,,,,,,,,,,,,,,,,,,,,,,7,0.7271,1,,,,,,,,,,,,0,131,5,5,2190,1950,absent_patch/patch0002190.jpg,absent_patch/patch0001950.jpg,,,,,,,,,,,,,,,,,,,,0.065104167,0.131510417,1,0,0,response1disk,22,0.002604167,0.01171875,1,0,0,center_square,0,21,21,73,1,,,,,,,,,,,,,,,,,,,,,,,
798491,001,2022-11-20_17h55.47.358,Info_measure_main_exp,2022.2.2,Win32,59.94844434,,,,,,,,,,,,,,,,,,masks/mask_003.jpg,,,,,,,,,,,,,,,,,,,,,,,,,,,,,,,,,,,,,,,,,,,0,0,0,2,1,,,,,,,,,,,,,,,,,,,,,,,,,,,,,,,,,,,,,,,,,,,,,,
798491,001,2022-11-20_17h55.47.358,Info_measure_main_exp,2022.2.2,Win32,59.94844434,,,,,,,,,,,,,,,,,,masks/mask_002.jpg,,,,,,,,,,,,,,,,,,,,,,,,,,,,,,,,,,,,,,,,,,,0,1,1,1,1,,,,,,,,,,,,,,,,,,,,,,,,,,,,,,,,,,,,,,,,,,,,,,
798491,001,2022-11-20_17h55.47.358,Info_measure_main_exp,2022.2.2,Win32,59.94844434,,,,,,,,,,,,,,,,,,masks/mask_001.jpg,,,,,,,,,,,,,,,,,,,,,,,,,,,,,,,,,,,,,,,,,,,0,2,2,0,1,,,,,,,,,,,,,,,,,,,,,,,,,,,,,,,,,,,,,,,,,,,,,,
798491,001,2022-11-20_17h55.47.358,Info_measure_main_exp,2022.2.2,Win32,59.94844434,,,,,,,,,,,,,,,,,,masks/mask_005.jpg,,,,,,,,,,,,,,,,,,,,,,,,,,,,,,,,,,,,,,,,,,,0,3,3,4,1,,,,,,,,,,,,,,,,,,,,,,,,,,,,,,,,,,,,,,,,,,,,,,
798491,001,2022-11-20_17h55.47.358,Info_measure_main_exp,2022.2.2,Win32,59.94844434,,,,,,,,,,,,,,,,,,masks/mask_004.jpg,,,,,,,,,,,,,,,,,,,,,,,,,,,,,,,,,,,,,,,,,,,0,4,4,3,1,,,,,,,,,,,,,,,,,,,,,,,,,,,,,,,,,,,,,,,,,,,,,,
798491,001,2022-11-20_17h55.47.358,Info_measure_main_exp,2022.2.2,Win32,59.94844434,,,,,,,,,,,,,,,,,,masks/mask_001.jpg,,,,,,,,,,,,,,,,,,,,,,,,,,,,,,,,,,,,,,,,,,,,,,,,0,0,0,0,1,,,,,,,,,,,,,,,,,,,,,,,,,,,,,,,,,,,,,,,,,
798491,001,2022-11-20_17h55.47.358,Info_measure_main_exp,2022.2.2,Win32,59.94844434,,,,,,,,,,,,,,,,,,masks/mask_002.jpg,,,,,,,,,,,,,,,,,,,,,,,,,,,,,,,,,,,,,,,,,,,,,,,,0,1,1,1,1,,,,,,,,,,,,,,,,,,,,,,,,,,,,,,,,,,,,,,,,,
798491,001,2022-11-20_17h55.47.358,Info_measure_main_exp,2022.2.2,Win32,59.94844434,,,,,,,,,,,,,,,,,,masks/mask_005.jpg,,,,,,,,,,,,,,,,,,,,,,,,,,,,,,,,,,,,,,,,,,,,,,,,0,2,2,4,1,,,,,,,,,,,,,,,,,,,,,,,,,,,,,,,,,,,,,,,,,
798491,001,2022-11-20_17h55.47.358,Info_measure_main_exp,2022.2.2,Win32,59.94844434,,,,,,,,,,,,,,,,,,masks/mask_003.jpg,,,,,,,,,,,,,,,,,,,,,,,,,,,,,,,,,,,,,,,,,,,,,,,,0,3,3,2,1,,,,,,,,,,,,,,,,,,,,,,,,,,,,,,,,,,,,,,,,,
798491,001,2022-11-20_17h55.47.358,Info_measure_main_exp,2022.2.2,Win32,59.94844434,,,,,,,,,,,,,,,,,,masks/mask_004.jpg,,,,,,,,,,,,,,,,,,,,,,,,,,,,,,,,,,,,,,,,,,,,,,,,0,4,4,3,1,,,,,,,,,,,,,,,,,,,,,,,,,,,,,,,,,,,,,,,,,
798491,001,2022-11-20_17h55.47.358,Info_measure_main_exp,2022.2.2,Win32,59.94844434,,,,,,,,,,,,,,,,,,,,,,,,,,,,,,7,0.6857,1,,,,,,,,,,,,0,131,5,5,2298,2274,absent_patch/patch0002298.jpg,absent_patch/patch0002274.jpg,,,,,,,,,,,,,,,,,,,,0.048177083,0.110677083,1,0,0,response1disk,23,0.01171875,0.010416667,1,0,0,center_square,0,22,22,1,1,,,,,,,,,,,,,,,,,,,,,,,
798491,001,2022-11-20_17h55.47.358,Info_measure_main_exp,2022.2.2,Win32,59.94844434,,,,,,,,,,,,,,,,,,masks/mask_005.jpg,,,,,,,,,,,,,,,,,,,,,,,,,,,,,,,,,,,,,,,,,,,0,0,0,4,1,,,,,,,,,,,,,,,,,,,,,,,,,,,,,,,,,,,,,,,,,,,,,,
798491,001,2022-11-20_17h55.47.358,Info_measure_main_exp,2022.2.2,Win32,59.94844434,,,,,,,,,,,,,,,,,,masks/mask_003.jpg,,,,,,,,,,,,,,,,,,,,,,,,,,,,,,,,,,,,,,,,,,,0,1,1,2,1,,,,,,,,,,,,,,,,,,,,,,,,,,,,,,,,,,,,,,,,,,,,,,
798491,001,2022-11-20_17h55.47.358,Info_measure_main_exp,2022.2.2,Win32,59.94844434,,,,,,,,,,,,,,,,,,masks/mask_001.jpg,,,,,,,,,,,,,,,,,,,,,,,,,,,,,,,,,,,,,,,,,,,0,2,2,0,1,,,,,,,,,,,,,,,,,,,,,,,,,,,,,,,,,,,,,,,,,,,,,,
798491,001,2022-11-20_17h55.47.358,Info_measure_main_exp,2022.2.2,Win32,59.94844434,,,,,,,,,,,,,,,,,,masks/mask_004.jpg,,,,,,,,,,,,,,,,,,,,,,,,,,,,,,,,,,,,,,,,,,,0,3,3,3,1,,,,,,,,,,,,,,,,,,,,,,,,,,,,,,,,,,,,,,,,,,,,,,
798491,001,2022-11-20_17h55.47.358,Info_measure_main_exp,2022.2.2,Win32,59.94844434,,,,,,,,,,,,,,,,,,masks/mask_002.jpg,,,,,,,,,,,,,,,,,,,,,,,,,,,,,,,,,,,,,,,,,,,0,4,4,1,1,,,,,,,,,,,,,,,,,,,,,,,,,,,,,,,,,,,,,,,,,,,,,,
798491,001,2022-11-20_17h55.47.358,Info_measure_main_exp,2022.2.2,Win32,59.94844434,,,,,,,,,,,,,,,,,,masks/mask_004.jpg,,,,,,,,,,,,,,,,,,,,,,,,,,,,,,,,,,,,,,,,,,,,,,,,0,0,0,3,1,,,,,,,,,,,,,,,,,,,,,,,,,,,,,,,,,,,,,,,,,
798491,001,2022-11-20_17h55.47.358,Info_measure_main_exp,2022.2.2,Win32,59.94844434,,,,,,,,,,,,,,,,,,masks/mask_005.jpg,,,,,,,,,,,,,,,,,,,,,,,,,,,,,,,,,,,,,,,,,,,,,,,,0,1,1,4,1,,,,,,,,,,,,,,,,,,,,,,,,,,,,,,,,,,,,,,,,,
798491,001,2022-11-20_17h55.47.358,Info_measure_main_exp,2022.2.2,Win32,59.94844434,,,,,,,,,,,,,,,,,,masks/mask_002.jpg,,,,,,,,,,,,,,,,,,,,,,,,,,,,,,,,,,,,,,,,,,,,,,,,0,2,2,1,1,,,,,,,,,,,,,,,,,,,,,,,,,,,,,,,,,,,,,,,,,
798491,001,2022-11-20_17h55.47.358,Info_measure_main_exp,2022.2.2,Win32,59.94844434,,,,,,,,,,,,,,,,,,masks/mask_003.jpg,,,,,,,,,,,,,,,,,,,,,,,,,,,,,,,,,,,,,,,,,,,,,,,,0,3,3,2,1,,,,,,,,,,,,,,,,,,,,,,,,,,,,,,,,,,,,,,,,,
798491,001,2022-11-20_17h55.47.358,Info_measure_main_exp,2022.2.2,Win32,59.94844434,,,,,,,,,,,,,,,,,,masks/mask_001.jpg,,,,,,,,,,,,,,,,,,,,,,,,,,,,,,,,,,,,,,,,,,,,,,,,0,4,4,0,1,,,,,,,,,,,,,,,,,,,,,,,,,,,,,,,,,,,,,,,,,
798491,001,2022-11-20_17h55.47.358,Info_measure_main_exp,2022.2.2,Win32,59.94844434,,,,,,,,,,,,,,,,,,,,,,,,,,,,,,7,0.7263,1,,,,,,,,,,,,0,131,5,5,1974,2214,absent_patch/patch0001974.jpg,absent_patch/patch0002214.jpg,,,,,,,,,,,,,,,,,,,,0.018229167,0.072916667,1,0,0,response1disk,24,0,0.014322917,1,0,0,center_square,0,23,23,24,1,,,,,,,,,,,,,,,,,,,,,,,
798491,001,2022-11-20_17h55.47.358,Info_measure_main_exp,2022.2.2,Win32,59.94844434,,,,,,,,,,,,,,,,,,masks/mask_005.jpg,,,,,,,,,,,,,,,,,,,,,,,,,,,,,,,,,,,,,,,,,,,0,0,0,4,1,,,,,,,,,,,,,,,,,,,,,,,,,,,,,,,,,,,,,,,,,,,,,,
798491,001,2022-11-20_17h55.47.358,Info_measure_main_exp,2022.2.2,Win32,59.94844434,,,,,,,,,,,,,,,,,,masks/mask_002.jpg,,,,,,,,,,,,,,,,,,,,,,,,,,,,,,,,,,,,,,,,,,,0,1,1,1,1,,,,,,,,,,,,,,,,,,,,,,,,,,,,,,,,,,,,,,,,,,,,,,
798491,001,2022-11-20_17h55.47.358,Info_measure_main_exp,2022.2.2,Win32,59.94844434,,,,,,,,,,,,,,,,,,masks/mask_004.jpg,,,,,,,,,,,,,,,,,,,,,,,,,,,,,,,,,,,,,,,,,,,0,2,2,3,1,,,,,,,,,,,,,,,,,,,,,,,,,,,,,,,,,,,,,,,,,,,,,,
798491,001,2022-11-20_17h55.47.358,Info_measure_main_exp,2022.2.2,Win32,59.94844434,,,,,,,,,,,,,,,,,,masks/mask_003.jpg,,,,,,,,,,,,,,,,,,,,,,,,,,,,,,,,,,,,,,,,,,,0,3,3,2,1,,,,,,,,,,,,,,,,,,,,,,,,,,,,,,,,,,,,,,,,,,,,,,
798491,001,2022-11-20_17h55.47.358,Info_measure_main_exp,2022.2.2,Win32,59.94844434,,,,,,,,,,,,,,,,,,masks/mask_001.jpg,,,,,,,,,,,,,,,,,,,,,,,,,,,,,,,,,,,,,,,,,,,0,4,4,0,1,,,,,,,,,,,,,,,,,,,,,,,,,,,,,,,,,,,,,,,,,,,,,,
798491,001,2022-11-20_17h55.47.358,Info_measure_main_exp,2022.2.2,Win32,59.94844434,,,,,,,,,,,,,,,,,,masks/mask_002.jpg,,,,,,,,,,,,,,,,,,,,,,,,,,,,,,,,,,,,,,,,,,,,,,,,0,0,0,1,1,,,,,,,,,,,,,,,,,,,,,,,,,,,,,,,,,,,,,,,,,
798491,001,2022-11-20_17h55.47.358,Info_measure_main_exp,2022.2.2,Win32,59.94844434,,,,,,,,,,,,,,,,,,masks/mask_005.jpg,,,,,,,,,,,,,,,,,,,,,,,,,,,,,,,,,,,,,,,,,,,,,,,,0,1,1,4,1,,,,,,,,,,,,,,,,,,,,,,,,,,,,,,,,,,,,,,,,,
798491,001,2022-11-20_17h55.47.358,Info_measure_main_exp,2022.2.2,Win32,59.94844434,,,,,,,,,,,,,,,,,,masks/mask_001.jpg,,,,,,,,,,,,,,,,,,,,,,,,,,,,,,,,,,,,,,,,,,,,,,,,0,2,2,0,1,,,,,,,,,,,,,,,,,,,,,,,,,,,,,,,,,,,,,,,,,
798491,001,2022-11-20_17h55.47.358,Info_measure_main_exp,2022.2.2,Win32,59.94844434,,,,,,,,,,,,,,,,,,masks/mask_004.jpg,,,,,,,,,,,,,,,,,,,,,,,,,,,,,,,,,,,,,,,,,,,,,,,,0,3,3,3,1,,,,,,,,,,,,,,,,,,,,,,,,,,,,,,,,,,,,,,,,,
798491,001,2022-11-20_17h55.47.358,Info_measure_main_exp,2022.2.2,Win32,59.94844434,,,,,,,,,,,,,,,,,,masks/mask_003.jpg,,,,,,,,,,,,,,,,,,,,,,,,,,,,,,,,,,,,,,,,,,,,,,,,0,4,4,2,1,,,,,,,,,,,,,,,,,,,,,,,,,,,,,,,,,,,,,,,,,
798491,001,2022-11-20_17h55.47.358,Info_measure_main_exp,2022.2.2,Win32,59.94844434,,,,,,,,,,,,,,,,,,,,,,,,,,,,,,7,0.9019,1,,,,,,,,,,,,0,131,5,5,2154,2250,absent_patch/patch0002154.jpg,absent_patch/patch0002250.jpg,,,,,,,,,,,,,,,,,,,,0.052083333,0.09375,1,0,0,response1disk,25,0.00390625,0.014322917,1,0,0,center_square,0,24,24,108,1,,,,,,,,,,,,,,,,,,,,,,,
798491,001,2022-11-20_17h55.47.358,Info_measure_main_exp,2022.2.2,Win32,59.94844434,,,,,,,,,,,,,,,,,,masks/mask_002.jpg,,,,,,,,,,,,,,,,,,,,,,,,,,,,,,,,,,,,,,,,,,,0,0,0,1,1,,,,,,,,,,,,,,,,,,,,,,,,,,,,,,,,,,,,,,,,,,,,,,
798491,001,2022-11-20_17h55.47.358,Info_measure_main_exp,2022.2.2,Win32,59.94844434,,,,,,,,,,,,,,,,,,masks/mask_004.jpg,,,,,,,,,,,,,,,,,,,,,,,,,,,,,,,,,,,,,,,,,,,0,1,1,3,1,,,,,,,,,,,,,,,,,,,,,,,,,,,,,,,,,,,,,,,,,,,,,,
798491,001,2022-11-20_17h55.47.358,Info_measure_main_exp,2022.2.2,Win32,59.94844434,,,,,,,,,,,,,,,,,,masks/mask_003.jpg,,,,,,,,,,,,,,,,,,,,,,,,,,,,,,,,,,,,,,,,,,,0,2,2,2,1,,,,,,,,,,,,,,,,,,,,,,,,,,,,,,,,,,,,,,,,,,,,,,
798491,001,2022-11-20_17h55.47.358,Info_measure_main_exp,2022.2.2,Win32,59.94844434,,,,,,,,,,,,,,,,,,masks/mask_001.jpg,,,,,,,,,,,,,,,,,,,,,,,,,,,,,,,,,,,,,,,,,,,0,3,3,0,1,,,,,,,,,,,,,,,,,,,,,,,,,,,,,,,,,,,,,,,,,,,,,,
798491,001,2022-11-20_17h55.47.358,Info_measure_main_exp,2022.2.2,Win32,59.94844434,,,,,,,,,,,,,,,,,,masks/mask_005.jpg,,,,,,,,,,,,,,,,,,,,,,,,,,,,,,,,,,,,,,,,,,,0,4,4,4,1,,,,,,,,,,,,,,,,,,,,,,,,,,,,,,,,,,,,,,,,,,,,,,
798491,001,2022-11-20_17h55.47.358,Info_measure_main_exp,2022.2.2,Win32,59.94844434,,,,,,,,,,,,,,,,,,masks/mask_003.jpg,,,,,,,,,,,,,,,,,,,,,,,,,,,,,,,,,,,,,,,,,,,,,,,,0,0,0,2,1,,,,,,,,,,,,,,,,,,,,,,,,,,,,,,,,,,,,,,,,,
798491,001,2022-11-20_17h55.47.358,Info_measure_main_exp,2022.2.2,Win32,59.94844434,,,,,,,,,,,,,,,,,,masks/mask_005.jpg,,,,,,,,,,,,,,,,,,,,,,,,,,,,,,,,,,,,,,,,,,,,,,,,0,1,1,4,1,,,,,,,,,,,,,,,,,,,,,,,,,,,,,,,,,,,,,,,,,
798491,001,2022-11-20_17h55.47.358,Info_measure_main_exp,2022.2.2,Win32,59.94844434,,,,,,,,,,,,,,,,,,masks/mask_001.jpg,,,,,,,,,,,,,,,,,,,,,,,,,,,,,,,,,,,,,,,,,,,,,,,,0,2,2,0,1,,,,,,,,,,,,,,,,,,,,,,,,,,,,,,,,,,,,,,,,,
798491,001,2022-11-20_17h55.47.358,Info_measure_main_exp,2022.2.2,Win32,59.94844434,,,,,,,,,,,,,,,,,,masks/mask_002.jpg,,,,,,,,,,,,,,,,,,,,,,,,,,,,,,,,,,,,,,,,,,,,,,,,0,3,3,1,1,,,,,,,,,,,,,,,,,,,,,,,,,,,,,,,,,,,,,,,,,
798491,001,2022-11-20_17h55.47.358,Info_measure_main_exp,2022.2.2,Win32,59.94844434,,,,,,,,,,,,,,,,,,masks/mask_004.jpg,,,,,,,,,,,,,,,,,,,,,,,,,,,,,,,,,,,,,,,,,,,,,,,,0,4,4,3,1,,,,,,,,,,,,,,,,,,,,,,,,,,,,,,,,,,,,,,,,,
798491,001,2022-11-20_17h55.47.358,Info_measure_main_exp,2022.2.2,Win32,59.94844434,,,,,,,,,,,,,,,,,,,,,,,,,,,,,,0,0.7006,1,,,,,,,,,,,,0,131,5,5,2298,2298,absent_patch/patch0002298.jpg,absent_patch/patch0002298.jpg,,,,,,,,,,,,,,,,,,,,-0.032552083,0.1015625,1,0,0,response7disk,26,-0.006510417,0,1,0,0,center_square,0,25,25,37,1,,,,,,,,,,,,,,,,,,,,,,,
798491,001,2022-11-20_17h55.47.358,Info_measure_main_exp,2022.2.2,Win32,59.94844434,,,,,,,,,,,,,,,,,,masks/mask_004.jpg,,,,,,,,,,,,,,,,,,,,,,,,,,,,,,,,,,,,,,,,,,,0,0,0,3,1,,,,,,,,,,,,,,,,,,,,,,,,,,,,,,,,,,,,,,,,,,,,,,
798491,001,2022-11-20_17h55.47.358,Info_measure_main_exp,2022.2.2,Win32,59.94844434,,,,,,,,,,,,,,,,,,masks/mask_002.jpg,,,,,,,,,,,,,,,,,,,,,,,,,,,,,,,,,,,,,,,,,,,0,1,1,1,1,,,,,,,,,,,,,,,,,,,,,,,,,,,,,,,,,,,,,,,,,,,,,,
798491,001,2022-11-20_17h55.47.358,Info_measure_main_exp,2022.2.2,Win32,59.94844434,,,,,,,,,,,,,,,,,,masks/mask_003.jpg,,,,,,,,,,,,,,,,,,,,,,,,,,,,,,,,,,,,,,,,,,,0,2,2,2,1,,,,,,,,,,,,,,,,,,,,,,,,,,,,,,,,,,,,,,,,,,,,,,
798491,001,2022-11-20_17h55.47.358,Info_measure_main_exp,2022.2.2,Win32,59.94844434,,,,,,,,,,,,,,,,,,masks/mask_001.jpg,,,,,,,,,,,,,,,,,,,,,,,,,,,,,,,,,,,,,,,,,,,0,3,3,0,1,,,,,,,,,,,,,,,,,,,,,,,,,,,,,,,,,,,,,,,,,,,,,,
798491,001,2022-11-20_17h55.47.358,Info_measure_main_exp,2022.2.2,Win32,59.94844434,,,,,,,,,,,,,,,,,,masks/mask_005.jpg,,,,,,,,,,,,,,,,,,,,,,,,,,,,,,,,,,,,,,,,,,,0,4,4,4,1,,,,,,,,,,,,,,,,,,,,,,,,,,,,,,,,,,,,,,,,,,,,,,
798491,001,2022-11-20_17h55.47.358,Info_measure_main_exp,2022.2.2,Win32,59.94844434,,,,,,,,,,,,,,,,,,masks/mask_004.jpg,,,,,,,,,,,,,,,,,,,,,,,,,,,,,,,,,,,,,,,,,,,,,,,,0,0,0,3,1,,,,,,,,,,,,,,,,,,,,,,,,,,,,,,,,,,,,,,,,,
798491,001,2022-11-20_17h55.47.358,Info_measure_main_exp,2022.2.2,Win32,59.94844434,,,,,,,,,,,,,,,,,,masks/mask_005.jpg,,,,,,,,,,,,,,,,,,,,,,,,,,,,,,,,,,,,,,,,,,,,,,,,0,1,1,4,1,,,,,,,,,,,,,,,,,,,,,,,,,,,,,,,,,,,,,,,,,
798491,001,2022-11-20_17h55.47.358,Info_measure_main_exp,2022.2.2,Win32,59.94844434,,,,,,,,,,,,,,,,,,masks/mask_002.jpg,,,,,,,,,,,,,,,,,,,,,,,,,,,,,,,,,,,,,,,,,,,,,,,,0,2,2,1,1,,,,,,,,,,,,,,,,,,,,,,,,,,,,,,,,,,,,,,,,,
798491,001,2022-11-20_17h55.47.358,Info_measure_main_exp,2022.2.2,Win32,59.94844434,,,,,,,,,,,,,,,,,,masks/mask_003.jpg,,,,,,,,,,,,,,,,,,,,,,,,,,,,,,,,,,,,,,,,,,,,,,,,0,3,3,2,1,,,,,,,,,,,,,,,,,,,,,,,,,,,,,,,,,,,,,,,,,
798491,001,2022-11-20_17h55.47.358,Info_measure_main_exp,2022.2.2,Win32,59.94844434,,,,,,,,,,,,,,,,,,masks/mask_001.jpg,,,,,,,,,,,,,,,,,,,,,,,,,,,,,,,,,,,,,,,,,,,,,,,,0,4,4,0,1,,,,,,,,,,,,,,,,,,,,,,,,,,,,,,,,,,,,,,,,,
798491,001,2022-11-20_17h55.47.358,Info_measure_main_exp,2022.2.2,Win32,59.94844434,,,,,,,,,,,,,,,,,,,,,,,,,,,,,,7,0.892,1,,,,,,,,,,,,0,131,5,5,2190,2082,absent_patch/patch0002190.jpg,absent_patch/patch0002082.jpg,,,,,,,,,,,,,,,,,,,,0.01171875,0.061197917,1,0,0,response1disk,27,-0.001302083,-0.005208333,1,0,0,center_square,0,26,26,112,1,,,,,,,,,,,,,,,,,,,,,,,
798491,001,2022-11-20_17h55.47.358,Info_measure_main_exp,2022.2.2,Win32,59.94844434,,,,,,,,,,,,,,,,,,masks/mask_004.jpg,,,,,,,,,,,,,,,,,,,,,,,,,,,,,,,,,,,,,,,,,,,0,0,0,3,1,,,,,,,,,,,,,,,,,,,,,,,,,,,,,,,,,,,,,,,,,,,,,,
798491,001,2022-11-20_17h55.47.358,Info_measure_main_exp,2022.2.2,Win32,59.94844434,,,,,,,,,,,,,,,,,,masks/mask_003.jpg,,,,,,,,,,,,,,,,,,,,,,,,,,,,,,,,,,,,,,,,,,,0,1,1,2,1,,,,,,,,,,,,,,,,,,,,,,,,,,,,,,,,,,,,,,,,,,,,,,
798491,001,2022-11-20_17h55.47.358,Info_measure_main_exp,2022.2.2,Win32,59.94844434,,,,,,,,,,,,,,,,,,masks/mask_001.jpg,,,,,,,,,,,,,,,,,,,,,,,,,,,,,,,,,,,,,,,,,,,0,2,2,0,1,,,,,,,,,,,,,,,,,,,,,,,,,,,,,,,,,,,,,,,,,,,,,,
798491,001,2022-11-20_17h55.47.358,Info_measure_main_exp,2022.2.2,Win32,59.94844434,,,,,,,,,,,,,,,,,,masks/mask_002.jpg,,,,,,,,,,,,,,,,,,,,,,,,,,,,,,,,,,,,,,,,,,,0,3,3,1,1,,,,,,,,,,,,,,,,,,,,,,,,,,,,,,,,,,,,,,,,,,,,,,
798491,001,2022-11-20_17h55.47.358,Info_measure_main_exp,2022.2.2,Win32,59.94844434,,,,,,,,,,,,,,,,,,masks/mask_005.jpg,,,,,,,,,,,,,,,,,,,,,,,,,,,,,,,,,,,,,,,,,,,0,4,4,4,1,,,,,,,,,,,,,,,,,,,,,,,,,,,,,,,,,,,,,,,,,,,,,,
798491,001,2022-11-20_17h55.47.358,Info_measure_main_exp,2022.2.2,Win32,59.94844434,,,,,,,,,,,,,,,,,,masks/mask_005.jpg,,,,,,,,,,,,,,,,,,,,,,,,,,,,,,,,,,,,,,,,,,,,,,,,0,0,0,4,1,,,,,,,,,,,,,,,,,,,,,,,,,,,,,,,,,,,,,,,,,
798491,001,2022-11-20_17h55.47.358,Info_measure_main_exp,2022.2.2,Win32,59.94844434,,,,,,,,,,,,,,,,,,masks/mask_004.jpg,,,,,,,,,,,,,,,,,,,,,,,,,,,,,,,,,,,,,,,,,,,,,,,,0,1,1,3,1,,,,,,,,,,,,,,,,,,,,,,,,,,,,,,,,,,,,,,,,,
798491,001,2022-11-20_17h55.47.358,Info_measure_main_exp,2022.2.2,Win32,59.94844434,,,,,,,,,,,,,,,,,,masks/mask_001.jpg,,,,,,,,,,,,,,,,,,,,,,,,,,,,,,,,,,,,,,,,,,,,,,,,0,2,2,0,1,,,,,,,,,,,,,,,,,,,,,,,,,,,,,,,,,,,,,,,,,
798491,001,2022-11-20_17h55.47.358,Info_measure_main_exp,2022.2.2,Win32,59.94844434,,,,,,,,,,,,,,,,,,masks/mask_003.jpg,,,,,,,,,,,,,,,,,,,,,,,,,,,,,,,,,,,,,,,,,,,,,,,,0,3,3,2,1,,,,,,,,,,,,,,,,,,,,,,,,,,,,,,,,,,,,,,,,,
798491,001,2022-11-20_17h55.47.358,Info_measure_main_exp,2022.2.2,Win32,59.94844434,,,,,,,,,,,,,,,,,,masks/mask_002.jpg,,,,,,,,,,,,,,,,,,,,,,,,,,,,,,,,,,,,,,,,,,,,,,,,0,4,4,1,1,,,,,,,,,,,,,,,,,,,,,,,,,,,,,,,,,,,,,,,,,
798491,001,2022-11-20_17h55.47.358,Info_measure_main_exp,2022.2.2,Win32,59.94844434,,,,,,,,,,,,,,,,,,,,,,,,,,,,,,7,0.8237,1,,,,,,,,,,,,0,131,5,5,2274,2250,absent_patch/patch0002274.jpg,absent_patch/patch0002250.jpg,,,,,,,,,,,,,,,,,,,,0.026041667,0.080729167,1,0,0,response1disk,28,0.009114583,0.010416667,1,0,0,center_square,0,27,27,28,1,,,,,,,,,,,,,,,,,,,,,,,
798491,001,2022-11-20_17h55.47.358,Info_measure_main_exp,2022.2.2,Win32,59.94844434,,,,,,,,,,,,,,,,,,masks/mask_005.jpg,,,,,,,,,,,,,,,,,,,,,,,,,,,,,,,,,,,,,,,,,,,0,0,0,4,1,,,,,,,,,,,,,,,,,,,,,,,,,,,,,,,,,,,,,,,,,,,,,,
798491,001,2022-11-20_17h55.47.358,Info_measure_main_exp,2022.2.2,Win32,59.94844434,,,,,,,,,,,,,,,,,,masks/mask_003.jpg,,,,,,,,,,,,,,,,,,,,,,,,,,,,,,,,,,,,,,,,,,,0,1,1,2,1,,,,,,,,,,,,,,,,,,,,,,,,,,,,,,,,,,,,,,,,,,,,,,
798491,001,2022-11-20_17h55.47.358,Info_measure_main_exp,2022.2.2,Win32,59.94844434,,,,,,,,,,,,,,,,,,masks/mask_002.jpg,,,,,,,,,,,,,,,,,,,,,,,,,,,,,,,,,,,,,,,,,,,0,2,2,1,1,,,,,,,,,,,,,,,,,,,,,,,,,,,,,,,,,,,,,,,,,,,,,,
798491,001,2022-11-20_17h55.47.358,Info_measure_main_exp,2022.2.2,Win32,59.94844434,,,,,,,,,,,,,,,,,,masks/mask_004.jpg,,,,,,,,,,,,,,,,,,,,,,,,,,,,,,,,,,,,,,,,,,,0,3,3,3,1,,,,,,,,,,,,,,,,,,,,,,,,,,,,,,,,,,,,,,,,,,,,,,
798491,001,2022-11-20_17h55.47.358,Info_measure_main_exp,2022.2.2,Win32,59.94844434,,,,,,,,,,,,,,,,,,masks/mask_001.jpg,,,,,,,,,,,,,,,,,,,,,,,,,,,,,,,,,,,,,,,,,,,0,4,4,0,1,,,,,,,,,,,,,,,,,,,,,,,,,,,,,,,,,,,,,,,,,,,,,,
798491,001,2022-11-20_17h55.47.358,Info_measure_main_exp,2022.2.2,Win32,59.94844434,,,,,,,,,,,,,,,,,,masks/mask_004.jpg,,,,,,,,,,,,,,,,,,,,,,,,,,,,,,,,,,,,,,,,,,,,,,,,0,0,0,3,1,,,,,,,,,,,,,,,,,,,,,,,,,,,,,,,,,,,,,,,,,
798491,001,2022-11-20_17h55.47.358,Info_measure_main_exp,2022.2.2,Win32,59.94844434,,,,,,,,,,,,,,,,,,masks/mask_002.jpg,,,,,,,,,,,,,,,,,,,,,,,,,,,,,,,,,,,,,,,,,,,,,,,,0,1,1,1,1,,,,,,,,,,,,,,,,,,,,,,,,,,,,,,,,,,,,,,,,,
798491,001,2022-11-20_17h55.47.358,Info_measure_main_exp,2022.2.2,Win32,59.94844434,,,,,,,,,,,,,,,,,,masks/mask_005.jpg,,,,,,,,,,,,,,,,,,,,,,,,,,,,,,,,,,,,,,,,,,,,,,,,0,2,2,4,1,,,,,,,,,,,,,,,,,,,,,,,,,,,,,,,,,,,,,,,,,
798491,001,2022-11-20_17h55.47.358,Info_measure_main_exp,2022.2.2,Win32,59.94844434,,,,,,,,,,,,,,,,,,masks/mask_001.jpg,,,,,,,,,,,,,,,,,,,,,,,,,,,,,,,,,,,,,,,,,,,,,,,,0,3,3,0,1,,,,,,,,,,,,,,,,,,,,,,,,,,,,,,,,,,,,,,,,,
798491,001,2022-11-20_17h55.47.358,Info_measure_main_exp,2022.2.2,Win32,59.94844434,,,,,,,,,,,,,,,,,,masks/mask_003.jpg,,,,,,,,,,,,,,,,,,,,,,,,,,,,,,,,,,,,,,,,,,,,,,,,0,4,4,2,1,,,,,,,,,,,,,,,,,,,,,,,,,,,,,,,,,,,,,,,,,
798491,001,2022-11-20_17h55.47.358,Info_measure_main_exp,2022.2.2,Win32,59.94844434,,,,,,,,,,,,,,,,,,,,,,,,,,,,,,7,0.732,1,,,,,,,,,,,,0,131,5,5,2190,2238,absent_patch/patch0002190.jpg,absent_patch/patch0002238.jpg,,,,,,,,,,,,,,,,,,,,0.014322917,0.063802083,1,0,0,response1disk,29,0.002604167,0.0078125,1,0,0,center_square,0,28,28,53,1,,,,,,,,,,,,,,,,,,,,,,,
798491,001,2022-11-20_17h55.47.358,Info_measure_main_exp,2022.2.2,Win32,59.94844434,,,,,,,,,,,,,,,,,,masks/mask_004.jpg,,,,,,,,,,,,,,,,,,,,,,,,,,,,,,,,,,,,,,,,,,,0,0,0,3,1,,,,,,,,,,,,,,,,,,,,,,,,,,,,,,,,,,,,,,,,,,,,,,
798491,001,2022-11-20_17h55.47.358,Info_measure_main_exp,2022.2.2,Win32,59.94844434,,,,,,,,,,,,,,,,,,masks/mask_002.jpg,,,,,,,,,,,,,,,,,,,,,,,,,,,,,,,,,,,,,,,,,,,0,1,1,1,1,,,,,,,,,,,,,,,,,,,,,,,,,,,,,,,,,,,,,,,,,,,,,,
798491,001,2022-11-20_17h55.47.358,Info_measure_main_exp,2022.2.2,Win32,59.94844434,,,,,,,,,,,,,,,,,,masks/mask_001.jpg,,,,,,,,,,,,,,,,,,,,,,,,,,,,,,,,,,,,,,,,,,,0,2,2,0,1,,,,,,,,,,,,,,,,,,,,,,,,,,,,,,,,,,,,,,,,,,,,,,
798491,001,2022-11-20_17h55.47.358,Info_measure_main_exp,2022.2.2,Win32,59.94844434,,,,,,,,,,,,,,,,,,masks/mask_003.jpg,,,,,,,,,,,,,,,,,,,,,,,,,,,,,,,,,,,,,,,,,,,0,3,3,2,1,,,,,,,,,,,,,,,,,,,,,,,,,,,,,,,,,,,,,,,,,,,,,,
798491,001,2022-11-20_17h55.47.358,Info_measure_main_exp,2022.2.2,Win32,59.94844434,,,,,,,,,,,,,,,,,,masks/mask_005.jpg,,,,,,,,,,,,,,,,,,,,,,,,,,,,,,,,,,,,,,,,,,,0,4,4,4,1,,,,,,,,,,,,,,,,,,,,,,,,,,,,,,,,,,,,,,,,,,,,,,
798491,001,2022-11-20_17h55.47.358,Info_measure_main_exp,2022.2.2,Win32,59.94844434,,,,,,,,,,,,,,,,,,masks/mask_003.jpg,,,,,,,,,,,,,,,,,,,,,,,,,,,,,,,,,,,,,,,,,,,,,,,,0,0,0,2,1,,,,,,,,,,,,,,,,,,,,,,,,,,,,,,,,,,,,,,,,,
798491,001,2022-11-20_17h55.47.358,Info_measure_main_exp,2022.2.2,Win32,59.94844434,,,,,,,,,,,,,,,,,,masks/mask_005.jpg,,,,,,,,,,,,,,,,,,,,,,,,,,,,,,,,,,,,,,,,,,,,,,,,0,1,1,4,1,,,,,,,,,,,,,,,,,,,,,,,,,,,,,,,,,,,,,,,,,
798491,001,2022-11-20_17h55.47.358,Info_measure_main_exp,2022.2.2,Win32,59.94844434,,,,,,,,,,,,,,,,,,masks/mask_002.jpg,,,,,,,,,,,,,,,,,,,,,,,,,,,,,,,,,,,,,,,,,,,,,,,,0,2,2,1,1,,,,,,,,,,,,,,,,,,,,,,,,,,,,,,,,,,,,,,,,,
798491,001,2022-11-20_17h55.47.358,Info_measure_main_exp,2022.2.2,Win32,59.94844434,,,,,,,,,,,,,,,,,,masks/mask_001.jpg,,,,,,,,,,,,,,,,,,,,,,,,,,,,,,,,,,,,,,,,,,,,,,,,0,3,3,0,1,,,,,,,,,,,,,,,,,,,,,,,,,,,,,,,,,,,,,,,,,
798491,001,2022-11-20_17h55.47.358,Info_measure_main_exp,2022.2.2,Win32,59.94844434,,,,,,,,,,,,,,,,,,masks/mask_004.jpg,,,,,,,,,,,,,,,,,,,,,,,,,,,,,,,,,,,,,,,,,,,,,,,,0,4,4,3,1,,,,,,,,,,,,,,,,,,,,,,,,,,,,,,,,,,,,,,,,,
798491,001,2022-11-20_17h55.47.358,Info_measure_main_exp,2022.2.2,Win32,59.94844434,,,,,,,,,,,,,,,,,,,,,,,,,,,,,,0,0.6407,1,,,,,,,,,,,,0,131,5,5,2142,2142,absent_patch/patch0002142.jpg,absent_patch/patch0002142.jpg,,,,,,,,,,,,,,,,,,,,-0.055989583,0.11328125,1,0,0,response7disk,30,-0.001302083,-0.006510417,1,0,0,center_square,0,29,29,13,1,,,,,,,,,,,,,,,,,,,,,,,
798491,001,2022-11-20_17h55.47.358,Info_measure_main_exp,2022.2.2,Win32,59.94844434,,,,,,,,,,,,,,,,,,masks/mask_002.jpg,,,,,,,,,,,,,,,,,,,,,,,,,,,,,,,,,,,,,,,,,,,0,0,0,1,1,,,,,,,,,,,,,,,,,,,,,,,,,,,,,,,,,,,,,,,,,,,,,,
798491,001,2022-11-20_17h55.47.358,Info_measure_main_exp,2022.2.2,Win32,59.94844434,,,,,,,,,,,,,,,,,,masks/mask_004.jpg,,,,,,,,,,,,,,,,,,,,,,,,,,,,,,,,,,,,,,,,,,,0,1,1,3,1,,,,,,,,,,,,,,,,,,,,,,,,,,,,,,,,,,,,,,,,,,,,,,
798491,001,2022-11-20_17h55.47.358,Info_measure_main_exp,2022.2.2,Win32,59.94844434,,,,,,,,,,,,,,,,,,masks/mask_001.jpg,,,,,,,,,,,,,,,,,,,,,,,,,,,,,,,,,,,,,,,,,,,0,2,2,0,1,,,,,,,,,,,,,,,,,,,,,,,,,,,,,,,,,,,,,,,,,,,,,,
798491,001,2022-11-20_17h55.47.358,Info_measure_main_exp,2022.2.2,Win32,59.94844434,,,,,,,,,,,,,,,,,,masks/mask_003.jpg,,,,,,,,,,,,,,,,,,,,,,,,,,,,,,,,,,,,,,,,,,,0,3,3,2,1,,,,,,,,,,,,,,,,,,,,,,,,,,,,,,,,,,,,,,,,,,,,,,
798491,001,2022-11-20_17h55.47.358,Info_measure_main_exp,2022.2.2,Win32,59.94844434,,,,,,,,,,,,,,,,,,masks/mask_005.jpg,,,,,,,,,,,,,,,,,,,,,,,,,,,,,,,,,,,,,,,,,,,0,4,4,4,1,,,,,,,,,,,,,,,,,,,,,,,,,,,,,,,,,,,,,,,,,,,,,,
798491,001,2022-11-20_17h55.47.358,Info_measure_main_exp,2022.2.2,Win32,59.94844434,,,,,,,,,,,,,,,,,,masks/mask_005.jpg,,,,,,,,,,,,,,,,,,,,,,,,,,,,,,,,,,,,,,,,,,,,,,,,0,0,0,4,1,,,,,,,,,,,,,,,,,,,,,,,,,,,,,,,,,,,,,,,,,
798491,001,2022-11-20_17h55.47.358,Info_measure_main_exp,2022.2.2,Win32,59.94844434,,,,,,,,,,,,,,,,,,masks/mask_001.jpg,,,,,,,,,,,,,,,,,,,,,,,,,,,,,,,,,,,,,,,,,,,,,,,,0,1,1,0,1,,,,,,,,,,,,,,,,,,,,,,,,,,,,,,,,,,,,,,,,,
798491,001,2022-11-20_17h55.47.358,Info_measure_main_exp,2022.2.2,Win32,59.94844434,,,,,,,,,,,,,,,,,,masks/mask_002.jpg,,,,,,,,,,,,,,,,,,,,,,,,,,,,,,,,,,,,,,,,,,,,,,,,0,2,2,1,1,,,,,,,,,,,,,,,,,,,,,,,,,,,,,,,,,,,,,,,,,
798491,001,2022-11-20_17h55.47.358,Info_measure_main_exp,2022.2.2,Win32,59.94844434,,,,,,,,,,,,,,,,,,masks/mask_004.jpg,,,,,,,,,,,,,,,,,,,,,,,,,,,,,,,,,,,,,,,,,,,,,,,,0,3,3,3,1,,,,,,,,,,,,,,,,,,,,,,,,,,,,,,,,,,,,,,,,,
798491,001,2022-11-20_17h55.47.358,Info_measure_main_exp,2022.2.2,Win32,59.94844434,,,,,,,,,,,,,,,,,,masks/mask_003.jpg,,,,,,,,,,,,,,,,,,,,,,,,,,,,,,,,,,,,,,,,,,,,,,,,0,4,4,2,1,,,,,,,,,,,,,,,,,,,,,,,,,,,,,,,,,,,,,,,,,
798491,001,2022-11-20_17h55.47.358,Info_measure_main_exp,2022.2.2,Win32,59.94844434,,,,,,,,,,,,,,,,,,,,,,,,,,,,,,7,0.7926,1,,,,,,,,,,,,0,131,5,5,2190,1974,absent_patch/patch0002190.jpg,absent_patch/patch0001974.jpg,,,,,,,,,,,,,,,,,,,,0.016927083,0.05078125,1,0,0,response1disk,31,0.00390625,0.014322917,1,0,0,center_square,0,30,30,119,1,,,,,,,,,,,,,,,,,,,,,,,
798491,001,2022-11-20_17h55.47.358,Info_measure_main_exp,2022.2.2,Win32,59.94844434,,,,,,,,,,,,,,,,,,masks/mask_002.jpg,,,,,,,,,,,,,,,,,,,,,,,,,,,,,,,,,,,,,,,,,,,0,0,0,1,1,,,,,,,,,,,,,,,,,,,,,,,,,,,,,,,,,,,,,,,,,,,,,,
798491,001,2022-11-20_17h55.47.358,Info_measure_main_exp,2022.2.2,Win32,59.94844434,,,,,,,,,,,,,,,,,,masks/mask_004.jpg,,,,,,,,,,,,,,,,,,,,,,,,,,,,,,,,,,,,,,,,,,,0,1,1,3,1,,,,,,,,,,,,,,,,,,,,,,,,,,,,,,,,,,,,,,,,,,,,,,
798491,001,2022-11-20_17h55.47.358,Info_measure_main_exp,2022.2.2,Win32,59.94844434,,,,,,,,,,,,,,,,,,masks/mask_005.jpg,,,,,,,,,,,,,,,,,,,,,,,,,,,,,,,,,,,,,,,,,,,0,2,2,4,1,,,,,,,,,,,,,,,,,,,,,,,,,,,,,,,,,,,,,,,,,,,,,,
798491,001,2022-11-20_17h55.47.358,Info_measure_main_exp,2022.2.2,Win32,59.94844434,,,,,,,,,,,,,,,,,,masks/mask_003.jpg,,,,,,,,,,,,,,,,,,,,,,,,,,,,,,,,,,,,,,,,,,,0,3,3,2,1,,,,,,,,,,,,,,,,,,,,,,,,,,,,,,,,,,,,,,,,,,,,,,
798491,001,2022-11-20_17h55.47.358,Info_measure_main_exp,2022.2.2,Win32,59.94844434,,,,,,,,,,,,,,,,,,masks/mask_001.jpg,,,,,,,,,,,,,,,,,,,,,,,,,,,,,,,,,,,,,,,,,,,0,4,4,0,1,,,,,,,,,,,,,,,,,,,,,,,,,,,,,,,,,,,,,,,,,,,,,,
798491,001,2022-11-20_17h55.47.358,Info_measure_main_exp,2022.2.2,Win32,59.94844434,,,,,,,,,,,,,,,,,,masks/mask_004.jpg,,,,,,,,,,,,,,,,,,,,,,,,,,,,,,,,,,,,,,,,,,,,,,,,0,0,0,3,1,,,,,,,,,,,,,,,,,,,,,,,,,,,,,,,,,,,,,,,,,
798491,001,2022-11-20_17h55.47.358,Info_measure_main_exp,2022.2.2,Win32,59.94844434,,,,,,,,,,,,,,,,,,masks/mask_002.jpg,,,,,,,,,,,,,,,,,,,,,,,,,,,,,,,,,,,,,,,,,,,,,,,,0,1,1,1,1,,,,,,,,,,,,,,,,,,,,,,,,,,,,,,,,,,,,,,,,,
798491,001,2022-11-20_17h55.47.358,Info_measure_main_exp,2022.2.2,Win32,59.94844434,,,,,,,,,,,,,,,,,,masks/mask_001.jpg,,,,,,,,,,,,,,,,,,,,,,,,,,,,,,,,,,,,,,,,,,,,,,,,0,2,2,0,1,,,,,,,,,,,,,,,,,,,,,,,,,,,,,,,,,,,,,,,,,
798491,001,2022-11-20_17h55.47.358,Info_measure_main_exp,2022.2.2,Win32,59.94844434,,,,,,,,,,,,,,,,,,masks/mask_005.jpg,,,,,,,,,,,,,,,,,,,,,,,,,,,,,,,,,,,,,,,,,,,,,,,,0,3,3,4,1,,,,,,,,,,,,,,,,,,,,,,,,,,,,,,,,,,,,,,,,,
798491,001,2022-11-20_17h55.47.358,Info_measure_main_exp,2022.2.2,Win32,59.94844434,,,,,,,,,,,,,,,,,,masks/mask_003.jpg,,,,,,,,,,,,,,,,,,,,,,,,,,,,,,,,,,,,,,,,,,,,,,,,0,4,4,2,1,,,,,,,,,,,,,,,,,,,,,,,,,,,,,,,,,,,,,,,,,
798491,001,2022-11-20_17h55.47.358,Info_measure_main_exp,2022.2.2,Win32,59.94844434,,,,,,,,,,,,,,,,,,,,,,,,,,,,,,7,0.7507,1,,,,,,,,,,,,0,131,5,5,2250,2238,absent_patch/patch0002250.jpg,absent_patch/patch0002238.jpg,,,,,,,,,,,,,,,,,,,,0.013020833,0.046875,1,0,0,response1disk,32,-0.001302083,-0.005208333,1,0,0,center_square,0,31,31,110,1,,,,,,,,,,,,,,,,,,,,,,,
798491,001,2022-11-20_17h55.47.358,Info_measure_main_exp,2022.2.2,Win32,59.94844434,,,,,,,,,,,,,,,,,,masks/mask_005.jpg,,,,,,,,,,,,,,,,,,,,,,,,,,,,,,,,,,,,,,,,,,,0,0,0,4,1,,,,,,,,,,,,,,,,,,,,,,,,,,,,,,,,,,,,,,,,,,,,,,
798491,001,2022-11-20_17h55.47.358,Info_measure_main_exp,2022.2.2,Win32,59.94844434,,,,,,,,,,,,,,,,,,masks/mask_003.jpg,,,,,,,,,,,,,,,,,,,,,,,,,,,,,,,,,,,,,,,,,,,0,1,1,2,1,,,,,,,,,,,,,,,,,,,,,,,,,,,,,,,,,,,,,,,,,,,,,,
798491,001,2022-11-20_17h55.47.358,Info_measure_main_exp,2022.2.2,Win32,59.94844434,,,,,,,,,,,,,,,,,,masks/mask_001.jpg,,,,,,,,,,,,,,,,,,,,,,,,,,,,,,,,,,,,,,,,,,,0,2,2,0,1,,,,,,,,,,,,,,,,,,,,,,,,,,,,,,,,,,,,,,,,,,,,,,
798491,001,2022-11-20_17h55.47.358,Info_measure_main_exp,2022.2.2,Win32,59.94844434,,,,,,,,,,,,,,,,,,masks/mask_002.jpg,,,,,,,,,,,,,,,,,,,,,,,,,,,,,,,,,,,,,,,,,,,0,3,3,1,1,,,,,,,,,,,,,,,,,,,,,,,,,,,,,,,,,,,,,,,,,,,,,,
798491,001,2022-11-20_17h55.47.358,Info_measure_main_exp,2022.2.2,Win32,59.94844434,,,,,,,,,,,,,,,,,,masks/mask_004.jpg,,,,,,,,,,,,,,,,,,,,,,,,,,,,,,,,,,,,,,,,,,,0,4,4,3,1,,,,,,,,,,,,,,,,,,,,,,,,,,,,,,,,,,,,,,,,,,,,,,
798491,001,2022-11-20_17h55.47.358,Info_measure_main_exp,2022.2.2,Win32,59.94844434,,,,,,,,,,,,,,,,,,masks/mask_003.jpg,,,,,,,,,,,,,,,,,,,,,,,,,,,,,,,,,,,,,,,,,,,,,,,,0,0,0,2,1,,,,,,,,,,,,,,,,,,,,,,,,,,,,,,,,,,,,,,,,,
798491,001,2022-11-20_17h55.47.358,Info_measure_main_exp,2022.2.2,Win32,59.94844434,,,,,,,,,,,,,,,,,,masks/mask_004.jpg,,,,,,,,,,,,,,,,,,,,,,,,,,,,,,,,,,,,,,,,,,,,,,,,0,1,1,3,1,,,,,,,,,,,,,,,,,,,,,,,,,,,,,,,,,,,,,,,,,
798491,001,2022-11-20_17h55.47.358,Info_measure_main_exp,2022.2.2,Win32,59.94844434,,,,,,,,,,,,,,,,,,masks/mask_002.jpg,,,,,,,,,,,,,,,,,,,,,,,,,,,,,,,,,,,,,,,,,,,,,,,,0,2,2,1,1,,,,,,,,,,,,,,,,,,,,,,,,,,,,,,,,,,,,,,,,,
798491,001,2022-11-20_17h55.47.358,Info_measure_main_exp,2022.2.2,Win32,59.94844434,,,,,,,,,,,,,,,,,,masks/mask_001.jpg,,,,,,,,,,,,,,,,,,,,,,,,,,,,,,,,,,,,,,,,,,,,,,,,0,3,3,0,1,,,,,,,,,,,,,,,,,,,,,,,,,,,,,,,,,,,,,,,,,
798491,001,2022-11-20_17h55.47.358,Info_measure_main_exp,2022.2.2,Win32,59.94844434,,,,,,,,,,,,,,,,,,masks/mask_005.jpg,,,,,,,,,,,,,,,,,,,,,,,,,,,,,,,,,,,,,,,,,,,,,,,,0,4,4,4,1,,,,,,,,,,,,,,,,,,,,,,,,,,,,,,,,,,,,,,,,,
798491,001,2022-11-20_17h55.47.358,Info_measure_main_exp,2022.2.2,Win32,59.94844434,,,,,,,,,,,,,,,,,,,,,,,,,,,,,,7,0.5983,1,,,,,,,,,,,,0,131,5,5,2142,2154,absent_patch/patch0002142.jpg,absent_patch/patch0002154.jpg,,,,,,,,,,,,,,,,,,,,0.013020833,0.052083333,1,0,0,response1disk,33,0.005208333,0.009114583,1,0,0,center_square,0,32,32,9,1,,,,,,,,,,,,,,,,,,,,,,,
798491,001,2022-11-20_17h55.47.358,Info_measure_main_exp,2022.2.2,Win32,59.94844434,,,,,,,,,,,,,,,,,,masks/mask_005.jpg,,,,,,,,,,,,,,,,,,,,,,,,,,,,,,,,,,,,,,,,,,,0,0,0,4,1,,,,,,,,,,,,,,,,,,,,,,,,,,,,,,,,,,,,,,,,,,,,,,
798491,001,2022-11-20_17h55.47.358,Info_measure_main_exp,2022.2.2,Win32,59.94844434,,,,,,,,,,,,,,,,,,masks/mask_002.jpg,,,,,,,,,,,,,,,,,,,,,,,,,,,,,,,,,,,,,,,,,,,0,1,1,1,1,,,,,,,,,,,,,,,,,,,,,,,,,,,,,,,,,,,,,,,,,,,,,,
798491,001,2022-11-20_17h55.47.358,Info_measure_main_exp,2022.2.2,Win32,59.94844434,,,,,,,,,,,,,,,,,,masks/mask_004.jpg,,,,,,,,,,,,,,,,,,,,,,,,,,,,,,,,,,,,,,,,,,,0,2,2,3,1,,,,,,,,,,,,,,,,,,,,,,,,,,,,,,,,,,,,,,,,,,,,,,
798491,001,2022-11-20_17h55.47.358,Info_measure_main_exp,2022.2.2,Win32,59.94844434,,,,,,,,,,,,,,,,,,masks/mask_003.jpg,,,,,,,,,,,,,,,,,,,,,,,,,,,,,,,,,,,,,,,,,,,0,3,3,2,1,,,,,,,,,,,,,,,,,,,,,,,,,,,,,,,,,,,,,,,,,,,,,,
798491,001,2022-11-20_17h55.47.358,Info_measure_main_exp,2022.2.2,Win32,59.94844434,,,,,,,,,,,,,,,,,,masks/mask_001.jpg,,,,,,,,,,,,,,,,,,,,,,,,,,,,,,,,,,,,,,,,,,,0,4,4,0,1,,,,,,,,,,,,,,,,,,,,,,,,,,,,,,,,,,,,,,,,,,,,,,
798491,001,2022-11-20_17h55.47.358,Info_measure_main_exp,2022.2.2,Win32,59.94844434,,,,,,,,,,,,,,,,,,masks/mask_001.jpg,,,,,,,,,,,,,,,,,,,,,,,,,,,,,,,,,,,,,,,,,,,,,,,,0,0,0,0,1,,,,,,,,,,,,,,,,,,,,,,,,,,,,,,,,,,,,,,,,,
798491,001,2022-11-20_17h55.47.358,Info_measure_main_exp,2022.2.2,Win32,59.94844434,,,,,,,,,,,,,,,,,,masks/mask_002.jpg,,,,,,,,,,,,,,,,,,,,,,,,,,,,,,,,,,,,,,,,,,,,,,,,0,1,1,1,1,,,,,,,,,,,,,,,,,,,,,,,,,,,,,,,,,,,,,,,,,
798491,001,2022-11-20_17h55.47.358,Info_measure_main_exp,2022.2.2,Win32,59.94844434,,,,,,,,,,,,,,,,,,masks/mask_005.jpg,,,,,,,,,,,,,,,,,,,,,,,,,,,,,,,,,,,,,,,,,,,,,,,,0,2,2,4,1,,,,,,,,,,,,,,,,,,,,,,,,,,,,,,,,,,,,,,,,,
798491,001,2022-11-20_17h55.47.358,Info_measure_main_exp,2022.2.2,Win32,59.94844434,,,,,,,,,,,,,,,,,,masks/mask_004.jpg,,,,,,,,,,,,,,,,,,,,,,,,,,,,,,,,,,,,,,,,,,,,,,,,0,3,3,3,1,,,,,,,,,,,,,,,,,,,,,,,,,,,,,,,,,,,,,,,,,
798491,001,2022-11-20_17h55.47.358,Info_measure_main_exp,2022.2.2,Win32,59.94844434,,,,,,,,,,,,,,,,,,masks/mask_003.jpg,,,,,,,,,,,,,,,,,,,,,,,,,,,,,,,,,,,,,,,,,,,,,,,,0,4,4,2,1,,,,,,,,,,,,,,,,,,,,,,,,,,,,,,,,,,,,,,,,,
798491,001,2022-11-20_17h55.47.358,Info_measure_main_exp,2022.2.2,Win32,59.94844434,,,,,,,,,,,,,,,,,,,,,,,,,,,,,,0,1.5991,1,,,,,,,,,,,,0,131,5,5,2178,2178,absent_patch/patch0002178.jpg,absent_patch/patch0002178.jpg,,,,,,,,,,,,,,,,,,,,-0.032552083,0.100260417,1,0,0,response7disk,34,-0.0078125,0,1,0,0,center_square,0,33,33,98,1,,,,,,,,,,,,,,,,,,,,,,,
798491,001,2022-11-20_17h55.47.358,Info_measure_main_exp,2022.2.2,Win32,59.94844434,,,,,,,,,,,,,,,,,,masks/mask_002.jpg,,,,,,,,,,,,,,,,,,,,,,,,,,,,,,,,,,,,,,,,,,,0,0,0,1,1,,,,,,,,,,,,,,,,,,,,,,,,,,,,,,,,,,,,,,,,,,,,,,
798491,001,2022-11-20_17h55.47.358,Info_measure_main_exp,2022.2.2,Win32,59.94844434,,,,,,,,,,,,,,,,,,masks/mask_001.jpg,,,,,,,,,,,,,,,,,,,,,,,,,,,,,,,,,,,,,,,,,,,0,1,1,0,1,,,,,,,,,,,,,,,,,,,,,,,,,,,,,,,,,,,,,,,,,,,,,,
798491,001,2022-11-20_17h55.47.358,Info_measure_main_exp,2022.2.2,Win32,59.94844434,,,,,,,,,,,,,,,,,,masks/mask_005.jpg,,,,,,,,,,,,,,,,,,,,,,,,,,,,,,,,,,,,,,,,,,,0,2,2,4,1,,,,,,,,,,,,,,,,,,,,,,,,,,,,,,,,,,,,,,,,,,,,,,
798491,001,2022-11-20_17h55.47.358,Info_measure_main_exp,2022.2.2,Win32,59.94844434,,,,,,,,,,,,,,,,,,masks/mask_003.jpg,,,,,,,,,,,,,,,,,,,,,,,,,,,,,,,,,,,,,,,,,,,0,3,3,2,1,,,,,,,,,,,,,,,,,,,,,,,,,,,,,,,,,,,,,,,,,,,,,,
798491,001,2022-11-20_17h55.47.358,Info_measure_main_exp,2022.2.2,Win32,59.94844434,,,,,,,,,,,,,,,,,,masks/mask_004.jpg,,,,,,,,,,,,,,,,,,,,,,,,,,,,,,,,,,,,,,,,,,,0,4,4,3,1,,,,,,,,,,,,,,,,,,,,,,,,,,,,,,,,,,,,,,,,,,,,,,
798491,001,2022-11-20_17h55.47.358,Info_measure_main_exp,2022.2.2,Win32,59.94844434,,,,,,,,,,,,,,,,,,masks/mask_004.jpg,,,,,,,,,,,,,,,,,,,,,,,,,,,,,,,,,,,,,,,,,,,,,,,,0,0,0,3,1,,,,,,,,,,,,,,,,,,,,,,,,,,,,,,,,,,,,,,,,,
798491,001,2022-11-20_17h55.47.358,Info_measure_main_exp,2022.2.2,Win32,59.94844434,,,,,,,,,,,,,,,,,,masks/mask_001.jpg,,,,,,,,,,,,,,,,,,,,,,,,,,,,,,,,,,,,,,,,,,,,,,,,0,1,1,0,1,,,,,,,,,,,,,,,,,,,,,,,,,,,,,,,,,,,,,,,,,
798491,001,2022-11-20_17h55.47.358,Info_measure_main_exp,2022.2.2,Win32,59.94844434,,,,,,,,,,,,,,,,,,masks/mask_005.jpg,,,,,,,,,,,,,,,,,,,,,,,,,,,,,,,,,,,,,,,,,,,,,,,,0,2,2,4,1,,,,,,,,,,,,,,,,,,,,,,,,,,,,,,,,,,,,,,,,,
798491,001,2022-11-20_17h55.47.358,Info_measure_main_exp,2022.2.2,Win32,59.94844434,,,,,,,,,,,,,,,,,,masks/mask_003.jpg,,,,,,,,,,,,,,,,,,,,,,,,,,,,,,,,,,,,,,,,,,,,,,,,0,3,3,2,1,,,,,,,,,,,,,,,,,,,,,,,,,,,,,,,,,,,,,,,,,
