participant,session,date,expName,psychopyVersion,OS,frameRate,space_press_continue.keys,space_press_continue.rt,space_press_continue_2.keys,space_press_continue_2.rt,space_press_continue_3.keys,space_press_continue_3.rt,space_press_continue_4.keys,space_press_continue_4.rt,space_press_continue_5.keys,space_press_continue_5.rt,space_press_continue_6.keys,space_press_continue_6.rt,prac_mask_loop_1.thisRepN,prac_mask_loop_1.thisTrialN,prac_mask_loop_1.thisN,prac_mask_loop_1.thisIndex,prac_mask_loop_1.ran,mask_name,prac_mask_loop_2.thisRepN,prac_mask_loop_2.thisTrialN,prac_mask_loop_2.thisN,prac_mask_loop_2.thisIndex,prac_mask_loop_2.ran,mouse_2.x,mouse_2.y,mouse_2.leftButton,mouse_2.midButton,mouse_2.rightButton,mouse_2.clicked_name,similarity,response_time,Pass,mouse_12.x,mouse_12.y,mouse_12.leftButton,mouse_12.midButton,mouse_12.rightButton,mouse_12.clicked_name,prac_loop.thisRepN,prac_loop.thisTrialN,prac_loop.thisN,prac_loop.thisIndex,prac_loop.ran,Pair_type,Image_num,Patch_1_loc,Patch_2_loc,Patch_1_info,Patch_2_info,Patch_1_name,Patch_2_name,mouse_1.x,mouse_1.y,mouse_1.leftButton,mouse_1.midButton,mouse_1.rightButton,mouse_1.time,mouse_1.clicked_name,space_press_continue_7.keys,space_press_continue_7.rt,mask_loop.thisRepN,mask_loop.thisTrialN,mask_loop.thisN,mask_loop.thisIndex,mask_loop.ran,mask_loop_2.thisRepN,mask_loop_2.thisTrialN,mask_loop_2.thisN,mask_loop_2.thisIndex,mask_loop_2.ran,mouse.x,mouse.y,mouse.leftButton,mouse.midButton,mouse.rightButton,mouse.clicked_name,trialNumber,mouse_11.x,mouse_11.y,mouse_11.leftButton,mouse_11.midButton,mouse_11.rightButton,mouse_11.clicked_name,first_pass_loop.thisRepN,first_pass_loop.thisTrialN,first_pass_loop.thisN,first_pass_loop.thisIndex,first_pass_loop.ran,mask_loop_3.thisRepN,mask_loop_3.thisTrialN,mask_loop_3.thisN,mask_loop_3.thisIndex,mask_loop_3.ran,mask_loop_4.thisRepN,mask_loop_4.thisTrialN,mask_loop_4.thisN,mask_loop_4.thisIndex,mask_loop_4.ran,mouse_3.x,mouse_3.y,mouse_3.leftButton,mouse_3.midButton,mouse_3.rightButton,mouse_3.clicked_name,double_pass_loop.thisRepN,double_pass_loop.thisTrialN,double_pass_loop.thisN,double_pass_loop.thisIndex,double_pass_loop.ran,space_exit.keys,space_exit.rt
812424,001,2022-11-20_20h57.27.045,Info_measure_main_exp,2022.2.2,Win32,12.00278465,,,,,,,,,,,,,,,,,,,,,,,,,,,,,,,,,,,,,,,,,,,,,,,,,,,,,,,,,,,,,,,,,,,,,,,,,,,,,,,,,,,,,,,,,,,,,,,,,,,,,,,,,,,,,,,
812424,001,2022-11-20_20h57.27.045,Info_measure_main_exp,2022.2.2,Win32,12.00278465,,,,,,,,,,,,,,,,,,,,,,,,,,,,,,,,,,,,,,,,,,,,,,,,,,,,,,,,,,,,,,,,,,,,,,,,,,,,,,,,,,,,,,,,,,,,,,,,,,,,,,,,,,,,,,,
812424,001,2022-11-20_20h57.27.045,Info_measure_main_exp,2022.2.2,Win32,12.00278465,space,186.0441,,,,,,,,,,,,,,,,,,,,,,,,,,,,,,,,,,,,,,,,,,,,,,,,,,,,,,,,,,,,,,,,,,,,,,,,,,,,,,,,,,,,,,,,,,,,,,,,,,,,,,,,,,,,,
812424,001,2022-11-20_20h57.27.045,Info_measure_main_exp,2022.2.2,Win32,12.00278465,,,space,10.1869,,,,,,,,,,,,,,,,,,,,,,,,,,,,,,,,,,,,,,,,,,,,,,,,,,,,,,,,,,,,,,,,,,,,,,,,,,,,,,,,,,,,,,,,,,,,,,,,,,,,,,,,,,,
812424,001,2022-11-20_20h57.27.045,Info_measure_main_exp,2022.2.2,Win32,12.00278465,,,,,space,5.8407,,,,,,,,,,,,,,,,,,,,,,,,,,,,,,,,,,,,,,,,,,,,,,,,,,,,,,,,,,,,,,,,,,,,,,,,,,,,,,,,,,,,,,,,,,,,,,,,,,,,,,,,,
812424,001,2022-11-20_20h57.27.045,Info_measure_main_exp,2022.2.2,Win32,12.00278465,,,,,,,space,17.872,,,,,,,,,,,,,,,,,,,,,,,,,,,,,,,,,,,,,,,,,,,,,,,,,,,,,,,,,,,,,,,,,,,,,,,,,,,,,,,,,,,,,,,,,,,,,,,,,,,,,,,
812424,001,2022-11-20_20h57.27.045,Info_measure_main_exp,2022.2.2,Win32,12.00278465,,,,,,,,,space,7.0195,,,,,,,,,,,,,,,,,,,,,,,,,,,,,,,,,,,,,,,,,,,,,,,,,,,,,,,,,,,,,,,,,,,,,,,,,,,,,,,,,,,,,,,,,,,,,,,,,,,,,
812424,001,2022-11-20_20h57.27.045,Info_measure_main_exp,2022.2.2,Win32,12.00278465,,,,,,,,,,,space,4.9361,,,,,,,,,,,,,,,,,,,,,,,,,,,,,,,,,,,,,,,,,,,,,,,,,,,,,,,,,,,,,,,,,,,,,,,,,,,,,,,,,,,,,,,,,,,,,,,,,,,
812424,001,2022-11-20_20h57.27.045,Info_measure_main_exp,2022.2.2,Win32,12.00278465,,,,,,,,,,,,,0,0,0,0,1,masks/mask_001.jpg,,,,,,,,,,,,,,,,,,,,,,,,,,,,,,,,,,,,,,,,,,,,,,,,,,,,,,,,,,,,,,,,,,,,,,,,,,,,,,,,,,,,,,,,,,,,,
812424,001,2022-11-20_20h57.27.045,Info_measure_main_exp,2022.2.2,Win32,12.00278465,,,,,,,,,,,,,0,1,1,1,1,masks/mask_002.jpg,,,,,,,,,,,,,,,,,,,,,,,,,,,,,,,,,,,,,,,,,,,,,,,,,,,,,,,,,,,,,,,,,,,,,,,,,,,,,,,,,,,,,,,,,,,,,
812424,001,2022-11-20_20h57.27.045,Info_measure_main_exp,2022.2.2,Win32,12.00278465,,,,,,,,,,,,,0,2,2,3,1,masks/mask_004.jpg,,,,,,,,,,,,,,,,,,,,,,,,,,,,,,,,,,,,,,,,,,,,,,,,,,,,,,,,,,,,,,,,,,,,,,,,,,,,,,,,,,,,,,,,,,,,,
812424,001,2022-11-20_20h57.27.045,Info_measure_main_exp,2022.2.2,Win32,12.00278465,,,,,,,,,,,,,0,3,3,4,1,masks/mask_005.jpg,,,,,,,,,,,,,,,,,,,,,,,,,,,,,,,,,,,,,,,,,,,,,,,,,,,,,,,,,,,,,,,,,,,,,,,,,,,,,,,,,,,,,,,,,,,,,
812424,001,2022-11-20_20h57.27.045,Info_measure_main_exp,2022.2.2,Win32,12.00278465,,,,,,,,,,,,,0,4,4,2,1,masks/mask_003.jpg,,,,,,,,,,,,,,,,,,,,,,,,,,,,,,,,,,,,,,,,,,,,,,,,,,,,,,,,,,,,,,,,,,,,,,,,,,,,,,,,,,,,,,,,,,,,,
812424,001,2022-11-20_20h57.27.045,Info_measure_main_exp,2022.2.2,Win32,12.00278465,,,,,,,,,,,,,,,,,,masks/mask_001.jpg,0,0,0,0,1,,,,,,,,,,,,,,,,,,,,,,,,,,,,,,,,,,,,,,,,,,,,,,,,,,,,,,,,,,,,,,,,,,,,,,,,,,,,,,,,,,,,,,,,
812424,001,2022-11-20_20h57.27.045,Info_measure_main_exp,2022.2.2,Win32,12.00278465,,,,,,,,,,,,,,,,,,masks/mask_005.jpg,0,1,1,4,1,,,,,,,,,,,,,,,,,,,,,,,,,,,,,,,,,,,,,,,,,,,,,,,,,,,,,,,,,,,,,,,,,,,,,,,,,,,,,,,,,,,,,,,,
812424,001,2022-11-20_20h57.27.045,Info_measure_main_exp,2022.2.2,Win32,12.00278465,,,,,,,,,,,,,,,,,,masks/mask_004.jpg,0,2,2,3,1,,,,,,,,,,,,,,,,,,,,,,,,,,,,,,,,,,,,,,,,,,,,,,,,,,,,,,,,,,,,,,,,,,,,,,,,,,,,,,,,,,,,,,,,
812424,001,2022-11-20_20h57.27.045,Info_measure_main_exp,2022.2.2,Win32,12.00278465,,,,,,,,,,,,,,,,,,masks/mask_003.jpg,0,3,3,2,1,,,,,,,,,,,,,,,,,,,,,,,,,,,,,,,,,,,,,,,,,,,,,,,,,,,,,,,,,,,,,,,,,,,,,,,,,,,,,,,,,,,,,,,,
812424,001,2022-11-20_20h57.27.045,Info_measure_main_exp,2022.2.2,Win32,12.00278465,,,,,,,,,,,,,,,,,,masks/mask_002.jpg,0,4,4,1,1,,,,,,,,,,,,,,,,,,,,,,,,,,,,,,,,,,,,,,,,,,,,,,,,,,,,,,,,,,,,,,,,,,,,,,,,,,,,,,,,,,,,,,,,
812424,001,2022-11-20_20h57.27.045,Info_measure_main_exp,2022.2.2,Win32,12.00278465,,,,,,,,,,,,,,,,,,,,,,,,-0.002777778,0,1,0,0,response7disk,2,236.1078,1,0.011111111,0.012962963,1,0,0,center_square,0,0,0,1,1,0,131,5,5,2514,2490,prac_patch/patch0002514.jpg,prac_patch/patch0002490.jpg,,,,,,,,,,,,,,,,,,,,,,,,,,,,,,,,,,,,,,,,,,,,,,,,,,,,,,,,,,,,
812424,001,2022-11-20_20h57.27.045,Info_measure_main_exp,2022.2.2,Win32,12.00278465,,,,,,,,,,,,,0,0,0,0,1,masks/mask_001.jpg,,,,,,,,,,,,,,,,,,,,,,,,,,,,,,,,,,,,,,,,,,,,,,,,,,,,,,,,,,,,,,,,,,,,,,,,,,,,,,,,,,,,,,,,,,,,,
812424,001,2022-11-20_20h57.27.045,Info_measure_main_exp,2022.2.2,Win32,12.00278465,,,,,,,,,,,,,0,1,1,3,1,masks/mask_004.jpg,,,,,,,,,,,,,,,,,,,,,,,,,,,,,,,,,,,,,,,,,,,,,,,,,,,,,,,,,,,,,,,,,,,,,,,,,,,,,,,,,,,,,,,,,,,,,
812424,001,2022-11-20_20h57.27.045,Info_measure_main_exp,2022.2.2,Win32,12.00278465,,,,,,,,,,,,,0,2,2,2,1,masks/mask_003.jpg,,,,,,,,,,,,,,,,,,,,,,,,,,,,,,,,,,,,,,,,,,,,,,,,,,,,,,,,,,,,,,,,,,,,,,,,,,,,,,,,,,,,,,,,,,,,,
812424,001,2022-11-20_20h57.27.045,Info_measure_main_exp,2022.2.2,Win32,12.00278465,,,,,,,,,,,,,0,3,3,1,1,masks/mask_002.jpg,,,,,,,,,,,,,,,,,,,,,,,,,,,,,,,,,,,,,,,,,,,,,,,,,,,,,,,,,,,,,,,,,,,,,,,,,,,,,,,,,,,,,,,,,,,,,
812424,001,2022-11-20_20h57.27.045,Info_measure_main_exp,2022.2.2,Win32,12.00278465,,,,,,,,,,,,,0,4,4,4,1,masks/mask_005.jpg,,,,,,,,,,,,,,,,,,,,,,,,,,,,,,,,,,,,,,,,,,,,,,,,,,,,,,,,,,,,,,,,,,,,,,,,,,,,,,,,,,,,,,,,,,,,,
812424,001,2022-11-20_20h57.27.045,Info_measure_main_exp,2022.2.2,Win32,12.00278465,,,,,,,,,,,,,,,,,,masks/mask_003.jpg,0,0,0,2,1,,,,,,,,,,,,,,,,,,,,,,,,,,,,,,,,,,,,,,,,,,,,,,,,,,,,,,,,,,,,,,,,,,,,,,,,,,,,,,,,,,,,,,,,
812424,001,2022-11-20_20h57.27.045,Info_measure_main_exp,2022.2.2,Win32,12.00278465,,,,,,,,,,,,,,,,,,masks/mask_002.jpg,0,1,1,1,1,,,,,,,,,,,,,,,,,,,,,,,,,,,,,,,,,,,,,,,,,,,,,,,,,,,,,,,,,,,,,,,,,,,,,,,,,,,,,,,,,,,,,,,,
812424,001,2022-11-20_20h57.27.045,Info_measure_main_exp,2022.2.2,Win32,12.00278465,,,,,,,,,,,,,,,,,,masks/mask_005.jpg,0,2,2,4,1,,,,,,,,,,,,,,,,,,,,,,,,,,,,,,,,,,,,,,,,,,,,,,,,,,,,,,,,,,,,,,,,,,,,,,,,,,,,,,,,,,,,,,,,
812424,001,2022-11-20_20h57.27.045,Info_measure_main_exp,2022.2.2,Win32,12.00278465,,,,,,,,,,,,,,,,,,masks/mask_004.jpg,0,3,3,3,1,,,,,,,,,,,,,,,,,,,,,,,,,,,,,,,,,,,,,,,,,,,,,,,,,,,,,,,,,,,,,,,,,,,,,,,,,,,,,,,,,,,,,,,,
812424,001,2022-11-20_20h57.27.045,Info_measure_main_exp,2022.2.2,Win32,12.00278465,,,,,,,,,,,,,,,,,,masks/mask_001.jpg,0,4,4,0,1,,,,,,,,,,,,,,,,,,,,,,,,,,,,,,,,,,,,,,,,,,,,,,,,,,,,,,,,,,,,,,,,,,,,,,,,,,,,,,,,,,,,,,,,
812424,001,2022-11-20_20h57.27.045,Info_measure_main_exp,2022.2.2,Win32,12.00278465,,,,,,,,,,,,,,,,,,,,,,,,0.113888889,-0.092592593,1,0,0,response3disk,5,249.0532,1,-0.006481481,0.003703704,1,0,0,center_square,0,1,1,0,1,0,131,5,5,2370,2406,prac_patch/patch0002370.jpg,prac_patch/patch0002406.jpg,,,,,,,,,,,,,,,,,,,,,,,,,,,,,,,,,,,,,,,,,,,,,,,,,,,,,,,,,,,,
812424,001,2022-11-20_20h57.27.045,Info_measure_main_exp,2022.2.2,Win32,12.00278465,,,,,,,,,,,,,0,0,0,2,1,masks/mask_003.jpg,,,,,,,,,,,,,,,,,,,,,,,,,,,,,,,,,,,,,,,,,,,,,,,,,,,,,,,,,,,,,,,,,,,,,,,,,,,,,,,,,,,,,,,,,,,,,
812424,001,2022-11-20_20h57.27.045,Info_measure_main_exp,2022.2.2,Win32,12.00278465,,,,,,,,,,,,,0,1,1,1,1,masks/mask_002.jpg,,,,,,,,,,,,,,,,,,,,,,,,,,,,,,,,,,,,,,,,,,,,,,,,,,,,,,,,,,,,,,,,,,,,,,,,,,,,,,,,,,,,,,,,,,,,,
812424,001,2022-11-20_20h57.27.045,Info_measure_main_exp,2022.2.2,Win32,12.00278465,,,,,,,,,,,,,0,2,2,3,1,masks/mask_004.jpg,,,,,,,,,,,,,,,,,,,,,,,,,,,,,,,,,,,,,,,,,,,,,,,,,,,,,,,,,,,,,,,,,,,,,,,,,,,,,,,,,,,,,,,,,,,,,
812424,001,2022-11-20_20h57.27.045,Info_measure_main_exp,2022.2.2,Win32,12.00278465,,,,,,,,,,,,,0,3,3,0,1,masks/mask_001.jpg,,,,,,,,,,,,,,,,,,,,,,,,,,,,,,,,,,,,,,,,,,,,,,,,,,,,,,,,,,,,,,,,,,,,,,,,,,,,,,,,,,,,,,,,,,,,,
812424,001,2022-11-20_20h57.27.045,Info_measure_main_exp,2022.2.2,Win32,12.00278465,,,,,,,,,,,,,0,4,4,4,1,masks/mask_005.jpg,,,,,,,,,,,,,,,,,,,,,,,,,,,,,,,,,,,,,,,,,,,,,,,,,,,,,,,,,,,,,,,,,,,,,,,,,,,,,,,,,,,,,,,,,,,,,
812424,001,2022-11-20_20h57.27.045,Info_measure_main_exp,2022.2.2,Win32,12.00278465,,,,,,,,,,,,,,,,,,masks/mask_003.jpg,0,0,0,2,1,,,,,,,,,,,,,,,,,,,,,,,,,,,,,,,,,,,,,,,,,,,,,,,,,,,,,,,,,,,,,,,,,,,,,,,,,,,,,,,,,,,,,,,,
812424,001,2022-11-20_20h57.27.045,Info_measure_main_exp,2022.2.2,Win32,12.00278465,,,,,,,,,,,,,,,,,,masks/mask_001.jpg,0,1,1,0,1,,,,,,,,,,,,,,,,,,,,,,,,,,,,,,,,,,,,,,,,,,,,,,,,,,,,,,,,,,,,,,,,,,,,,,,,,,,,,,,,,,,,,,,,
812424,001,2022-11-20_20h57.27.045,Info_measure_main_exp,2022.2.2,Win32,12.00278465,,,,,,,,,,,,,,,,,,masks/mask_002.jpg,0,2,2,1,1,,,,,,,,,,,,,,,,,,,,,,,,,,,,,,,,,,,,,,,,,,,,,,,,,,,,,,,,,,,,,,,,,,,,,,,,,,,,,,,,,,,,,,,,
812424,001,2022-11-20_20h57.27.045,Info_measure_main_exp,2022.2.2,Win32,12.00278465,,,,,,,,,,,,,,,,,,masks/mask_004.jpg,0,3,3,3,1,,,,,,,,,,,,,,,,,,,,,,,,,,,,,,,,,,,,,,,,,,,,,,,,,,,,,,,,,,,,,,,,,,,,,,,,,,,,,,,,,,,,,,,,
812424,001,2022-11-20_20h57.27.045,Info_measure_main_exp,2022.2.2,Win32,12.00278465,,,,,,,,,,,,,,,,,,masks/mask_005.jpg,0,4,4,4,1,,,,,,,,,,,,,,,,,,,,,,,,,,,,,,,,,,,,,,,,,,,,,,,,,,,,,,,,,,,,,,,,,,,,,,,,,,,,,,,,,,,,,,,,
812424,001,2022-11-20_20h57.27.045,Info_measure_main_exp,2022.2.2,Win32,12.00278465,,,,,,,,,,,,,,,,,,,,,,,,-0.057407407,0.132407407,1,0,0,response7disk,0,260.1835,1,-0.005555556,0.011111111,1,0,0,center_square,0,2,2,2,1,0,131,5,5,2526,2526,prac_patch/patch0002526.jpg,prac_patch/patch0002526.jpg,,,,,,,,,,,,,,,,,,,,,,,,,,,,,,,,,,,,,,,,,,,,,,,,,,,,,,,,,,,,
812424,001,2022-11-20_20h57.27.045,Info_measure_main_exp,2022.2.2,Win32,12.00278465,,,,,,,,,,,,,,,,,,,,,,,,,,,,,,,,,,,,,,,,,,,,,,,,,,,,,,,,,,,space,2.8335,,,,,,,,,,,,,,,,,,,,,,,,,,,,,,,,,,,,,,,,,,,,,,,,,,,
812424,001,2022-11-20_20h57.27.045,Info_measure_main_exp,2022.2.2,Win32,12.00278465,,,,,,,,,,,,,,,,,,masks/mask_004.jpg,,,,,,,,,,,,,,,,,,,,,,,,,,,,,,,,,,,,,,,,,,,0,0,0,3,1,,,,,,,,,,,,,,,,,,,,,,,,,,,,,,,,,,,,,,,,,,,,,,
812424,001,2022-11-20_20h57.27.045,Info_measure_main_exp,2022.2.2,Win32,12.00278465,,,,,,,,,,,,,,,,,,masks/mask_002.jpg,,,,,,,,,,,,,,,,,,,,,,,,,,,,,,,,,,,,,,,,,,,0,1,1,1,1,,,,,,,,,,,,,,,,,,,,,,,,,,,,,,,,,,,,,,,,,,,,,,
812424,001,2022-11-20_20h57.27.045,Info_measure_main_exp,2022.2.2,Win32,12.00278465,,,,,,,,,,,,,,,,,,masks/mask_001.jpg,,,,,,,,,,,,,,,,,,,,,,,,,,,,,,,,,,,,,,,,,,,0,2,2,0,1,,,,,,,,,,,,,,,,,,,,,,,,,,,,,,,,,,,,,,,,,,,,,,
812424,001,2022-11-20_20h57.27.045,Info_measure_main_exp,2022.2.2,Win32,12.00278465,,,,,,,,,,,,,,,,,,masks/mask_003.jpg,,,,,,,,,,,,,,,,,,,,,,,,,,,,,,,,,,,,,,,,,,,0,3,3,2,1,,,,,,,,,,,,,,,,,,,,,,,,,,,,,,,,,,,,,,,,,,,,,,
812424,001,2022-11-20_20h57.27.045,Info_measure_main_exp,2022.2.2,Win32,12.00278465,,,,,,,,,,,,,,,,,,masks/mask_005.jpg,,,,,,,,,,,,,,,,,,,,,,,,,,,,,,,,,,,,,,,,,,,0,4,4,4,1,,,,,,,,,,,,,,,,,,,,,,,,,,,,,,,,,,,,,,,,,,,,,,
812424,001,2022-11-20_20h57.27.045,Info_measure_main_exp,2022.2.2,Win32,12.00278465,,,,,,,,,,,,,,,,,,masks/mask_005.jpg,,,,,,,,,,,,,,,,,,,,,,,,,,,,,,,,,,,,,,,,,,,,,,,,0,0,0,4,1,,,,,,,,,,,,,,,,,,,,,,,,,,,,,,,,,,,,,,,,,
812424,001,2022-11-20_20h57.27.045,Info_measure_main_exp,2022.2.2,Win32,12.00278465,,,,,,,,,,,,,,,,,,masks/mask_003.jpg,,,,,,,,,,,,,,,,,,,,,,,,,,,,,,,,,,,,,,,,,,,,,,,,0,1,1,2,1,,,,,,,,,,,,,,,,,,,,,,,,,,,,,,,,,,,,,,,,,
812424,001,2022-11-20_20h57.27.045,Info_measure_main_exp,2022.2.2,Win32,12.00278465,,,,,,,,,,,,,,,,,,masks/mask_004.jpg,,,,,,,,,,,,,,,,,,,,,,,,,,,,,,,,,,,,,,,,,,,,,,,,0,2,2,3,1,,,,,,,,,,,,,,,,,,,,,,,,,,,,,,,,,,,,,,,,,
812424,001,2022-11-20_20h57.27.045,Info_measure_main_exp,2022.2.2,Win32,12.00278465,,,,,,,,,,,,,,,,,,masks/mask_002.jpg,,,,,,,,,,,,,,,,,,,,,,,,,,,,,,,,,,,,,,,,,,,,,,,,0,3,3,1,1,,,,,,,,,,,,,,,,,,,,,,,,,,,,,,,,,,,,,,,,,
812424,001,2022-11-20_20h57.27.045,Info_measure_main_exp,2022.2.2,Win32,12.00278465,,,,,,,,,,,,,,,,,,masks/mask_001.jpg,,,,,,,,,,,,,,,,,,,,,,,,,,,,,,,,,,,,,,,,,,,,,,,,0,4,4,0,1,,,,,,,,,,,,,,,,,,,,,,,,,,,,,,,,,,,,,,,,,
812424,001,2022-11-20_20h57.27.045,Info_measure_main_exp,2022.2.2,Win32,12.00278465,,,,,,,,,,,,,,,,,,,,,,,,,,,,,,4,4.047,1,,,,,,,,,,,,0,131,5,5,1950,2142,absent_patch/patch0001950.jpg,absent_patch/patch0002142.jpg,,,,,,,,,,,,,,,,,,,,0.003703704,-0.116666667,1,0,0,response3disk,1,-0.001851852,-0.008333333,1,0,0,center_square,0,0,0,83,1,,,,,,,,,,,,,,,,,,,,,,,
812424,001,2022-11-20_20h57.27.045,Info_measure_main_exp,2022.2.2,Win32,12.00278465,,,,,,,,,,,,,,,,,,masks/mask_004.jpg,,,,,,,,,,,,,,,,,,,,,,,,,,,,,,,,,,,,,,,,,,,0,0,0,3,1,,,,,,,,,,,,,,,,,,,,,,,,,,,,,,,,,,,,,,,,,,,,,,
812424,001,2022-11-20_20h57.27.045,Info_measure_main_exp,2022.2.2,Win32,12.00278465,,,,,,,,,,,,,,,,,,masks/mask_003.jpg,,,,,,,,,,,,,,,,,,,,,,,,,,,,,,,,,,,,,,,,,,,0,1,1,2,1,,,,,,,,,,,,,,,,,,,,,,,,,,,,,,,,,,,,,,,,,,,,,,
812424,001,2022-11-20_20h57.27.045,Info_measure_main_exp,2022.2.2,Win32,12.00278465,,,,,,,,,,,,,,,,,,masks/mask_001.jpg,,,,,,,,,,,,,,,,,,,,,,,,,,,,,,,,,,,,,,,,,,,0,2,2,0,1,,,,,,,,,,,,,,,,,,,,,,,,,,,,,,,,,,,,,,,,,,,,,,
812424,001,2022-11-20_20h57.27.045,Info_measure_main_exp,2022.2.2,Win32,12.00278465,,,,,,,,,,,,,,,,,,masks/mask_002.jpg,,,,,,,,,,,,,,,,,,,,,,,,,,,,,,,,,,,,,,,,,,,0,3,3,1,1,,,,,,,,,,,,,,,,,,,,,,,,,,,,,,,,,,,,,,,,,,,,,,
812424,001,2022-11-20_20h57.27.045,Info_measure_main_exp,2022.2.2,Win32,12.00278465,,,,,,,,,,,,,,,,,,masks/mask_005.jpg,,,,,,,,,,,,,,,,,,,,,,,,,,,,,,,,,,,,,,,,,,,0,4,4,4,1,,,,,,,,,,,,,,,,,,,,,,,,,,,,,,,,,,,,,,,,,,,,,,
812424,001,2022-11-20_20h57.27.045,Info_measure_main_exp,2022.2.2,Win32,12.00278465,,,,,,,,,,,,,,,,,,masks/mask_001.jpg,,,,,,,,,,,,,,,,,,,,,,,,,,,,,,,,,,,,,,,,,,,,,,,,0,0,0,0,1,,,,,,,,,,,,,,,,,,,,,,,,,,,,,,,,,,,,,,,,,
812424,001,2022-11-20_20h57.27.045,Info_measure_main_exp,2022.2.2,Win32,12.00278465,,,,,,,,,,,,,,,,,,masks/mask_003.jpg,,,,,,,,,,,,,,,,,,,,,,,,,,,,,,,,,,,,,,,,,,,,,,,,0,1,1,2,1,,,,,,,,,,,,,,,,,,,,,,,,,,,,,,,,,,,,,,,,,
812424,001,2022-11-20_20h57.27.045,Info_measure_main_exp,2022.2.2,Win32,12.00278465,,,,,,,,,,,,,,,,,,masks/mask_002.jpg,,,,,,,,,,,,,,,,,,,,,,,,,,,,,,,,,,,,,,,,,,,,,,,,0,2,2,1,1,,,,,,,,,,,,,,,,,,,,,,,,,,,,,,,,,,,,,,,,,
812424,001,2022-11-20_20h57.27.045,Info_measure_main_exp,2022.2.2,Win32,12.00278465,,,,,,,,,,,,,,,,,,masks/mask_004.jpg,,,,,,,,,,,,,,,,,,,,,,,,,,,,,,,,,,,,,,,,,,,,,,,,0,3,3,3,1,,,,,,,,,,,,,,,,,,,,,,,,,,,,,,,,,,,,,,,,,
812424,001,2022-11-20_20h57.27.045,Info_measure_main_exp,2022.2.2,Win32,12.00278465,,,,,,,,,,,,,,,,,,masks/mask_005.jpg,,,,,,,,,,,,,,,,,,,,,,,,,,,,,,,,,,,,,,,,,,,,,,,,0,4,4,4,1,,,,,,,,,,,,,,,,,,,,,,,,,,,,,,,,,,,,,,,,,
812424,001,2022-11-20_20h57.27.045,Info_measure_main_exp,2022.2.2,Win32,12.00278465,,,,,,,,,,,,,,,,,,,,,,,,,,,,,,4,3.5933,1,,,,,,,,,,,,0,131,5,5,1986,2154,absent_patch/patch0001986.jpg,absent_patch/patch0002154.jpg,,,,,,,,,,,,,,,,,,,,0.024074074,-0.072222222,1,0,0,response3disk,2,-0.001851852,-0.003703704,1,0,0,center_square,0,1,1,36,1,,,,,,,,,,,,,,,,,,,,,,,
812424,001,2022-11-20_20h57.27.045,Info_measure_main_exp,2022.2.2,Win32,12.00278465,,,,,,,,,,,,,,,,,,masks/mask_004.jpg,,,,,,,,,,,,,,,,,,,,,,,,,,,,,,,,,,,,,,,,,,,0,0,0,3,1,,,,,,,,,,,,,,,,,,,,,,,,,,,,,,,,,,,,,,,,,,,,,,
812424,001,2022-11-20_20h57.27.045,Info_measure_main_exp,2022.2.2,Win32,12.00278465,,,,,,,,,,,,,,,,,,masks/mask_001.jpg,,,,,,,,,,,,,,,,,,,,,,,,,,,,,,,,,,,,,,,,,,,0,1,1,0,1,,,,,,,,,,,,,,,,,,,,,,,,,,,,,,,,,,,,,,,,,,,,,,
812424,001,2022-11-20_20h57.27.045,Info_measure_main_exp,2022.2.2,Win32,12.00278465,,,,,,,,,,,,,,,,,,masks/mask_003.jpg,,,,,,,,,,,,,,,,,,,,,,,,,,,,,,,,,,,,,,,,,,,0,2,2,2,1,,,,,,,,,,,,,,,,,,,,,,,,,,,,,,,,,,,,,,,,,,,,,,
812424,001,2022-11-20_20h57.27.045,Info_measure_main_exp,2022.2.2,Win32,12.00278465,,,,,,,,,,,,,,,,,,masks/mask_002.jpg,,,,,,,,,,,,,,,,,,,,,,,,,,,,,,,,,,,,,,,,,,,0,3,3,1,1,,,,,,,,,,,,,,,,,,,,,,,,,,,,,,,,,,,,,,,,,,,,,,
812424,001,2022-11-20_20h57.27.045,Info_measure_main_exp,2022.2.2,Win32,12.00278465,,,,,,,,,,,,,,,,,,masks/mask_005.jpg,,,,,,,,,,,,,,,,,,,,,,,,,,,,,,,,,,,,,,,,,,,0,4,4,4,1,,,,,,,,,,,,,,,,,,,,,,,,,,,,,,,,,,,,,,,,,,,,,,
812424,001,2022-11-20_20h57.27.045,Info_measure_main_exp,2022.2.2,Win32,12.00278465,,,,,,,,,,,,,,,,,,masks/mask_001.jpg,,,,,,,,,,,,,,,,,,,,,,,,,,,,,,,,,,,,,,,,,,,,,,,,0,0,0,0,1,,,,,,,,,,,,,,,,,,,,,,,,,,,,,,,,,,,,,,,,,
812424,001,2022-11-20_20h57.27.045,Info_measure_main_exp,2022.2.2,Win32,12.00278465,,,,,,,,,,,,,,,,,,masks/mask_005.jpg,,,,,,,,,,,,,,,,,,,,,,,,,,,,,,,,,,,,,,,,,,,,,,,,0,1,1,4,1,,,,,,,,,,,,,,,,,,,,,,,,,,,,,,,,,,,,,,,,,
812424,001,2022-11-20_20h57.27.045,Info_measure_main_exp,2022.2.2,Win32,12.00278465,,,,,,,,,,,,,,,,,,masks/mask_003.jpg,,,,,,,,,,,,,,,,,,,,,,,,,,,,,,,,,,,,,,,,,,,,,,,,0,2,2,2,1,,,,,,,,,,,,,,,,,,,,,,,,,,,,,,,,,,,,,,,,,
812424,001,2022-11-20_20h57.27.045,Info_measure_main_exp,2022.2.2,Win32,12.00278465,,,,,,,,,,,,,,,,,,masks/mask_002.jpg,,,,,,,,,,,,,,,,,,,,,,,,,,,,,,,,,,,,,,,,,,,,,,,,0,3,3,1,1,,,,,,,,,,,,,,,,,,,,,,,,,,,,,,,,,,,,,,,,,
812424,001,2022-11-20_20h57.27.045,Info_measure_main_exp,2022.2.2,Win32,12.00278465,,,,,,,,,,,,,,,,,,masks/mask_004.jpg,,,,,,,,,,,,,,,,,,,,,,,,,,,,,,,,,,,,,,,,,,,,,,,,0,4,4,3,1,,,,,,,,,,,,,,,,,,,,,,,,,,,,,,,,,,,,,,,,,
812424,001,2022-11-20_20h57.27.045,Info_measure_main_exp,2022.2.2,Win32,12.00278465,,,,,,,,,,,,,,,,,,,,,,,,,,,,,,0,3.3332,1,,,,,,,,,,,,0,131,5,5,2214,2166,absent_patch/patch0002214.jpg,absent_patch/patch0002166.jpg,,,,,,,,,,,,,,,,,,,,-0.056481481,0.092592593,1,0,0,response7disk,3,-0.001851852,0.003703704,1,0,0,center_square,0,2,2,109,1,,,,,,,,,,,,,,,,,,,,,,,
812424,001,2022-11-20_20h57.27.045,Info_measure_main_exp,2022.2.2,Win32,12.00278465,,,,,,,,,,,,,,,,,,masks/mask_002.jpg,,,,,,,,,,,,,,,,,,,,,,,,,,,,,,,,,,,,,,,,,,,0,0,0,1,1,,,,,,,,,,,,,,,,,,,,,,,,,,,,,,,,,,,,,,,,,,,,,,
812424,001,2022-11-20_20h57.27.045,Info_measure_main_exp,2022.2.2,Win32,12.00278465,,,,,,,,,,,,,,,,,,masks/mask_001.jpg,,,,,,,,,,,,,,,,,,,,,,,,,,,,,,,,,,,,,,,,,,,0,1,1,0,1,,,,,,,,,,,,,,,,,,,,,,,,,,,,,,,,,,,,,,,,,,,,,,
812424,001,2022-11-20_20h57.27.045,Info_measure_main_exp,2022.2.2,Win32,12.00278465,,,,,,,,,,,,,,,,,,masks/mask_004.jpg,,,,,,,,,,,,,,,,,,,,,,,,,,,,,,,,,,,,,,,,,,,0,2,2,3,1,,,,,,,,,,,,,,,,,,,,,,,,,,,,,,,,,,,,,,,,,,,,,,
812424,001,2022-11-20_20h57.27.045,Info_measure_main_exp,2022.2.2,Win32,12.00278465,,,,,,,,,,,,,,,,,,masks/mask_003.jpg,,,,,,,,,,,,,,,,,,,,,,,,,,,,,,,,,,,,,,,,,,,0,3,3,2,1,,,,,,,,,,,,,,,,,,,,,,,,,,,,,,,,,,,,,,,,,,,,,,
812424,001,2022-11-20_20h57.27.045,Info_measure_main_exp,2022.2.2,Win32,12.00278465,,,,,,,,,,,,,,,,,,masks/mask_005.jpg,,,,,,,,,,,,,,,,,,,,,,,,,,,,,,,,,,,,,,,,,,,0,4,4,4,1,,,,,,,,,,,,,,,,,,,,,,,,,,,,,,,,,,,,,,,,,,,,,,
812424,001,2022-11-20_20h57.27.045,Info_measure_main_exp,2022.2.2,Win32,12.00278465,,,,,,,,,,,,,,,,,,masks/mask_004.jpg,,,,,,,,,,,,,,,,,,,,,,,,,,,,,,,,,,,,,,,,,,,,,,,,0,0,0,3,1,,,,,,,,,,,,,,,,,,,,,,,,,,,,,,,,,,,,,,,,,
812424,001,2022-11-20_20h57.27.045,Info_measure_main_exp,2022.2.2,Win32,12.00278465,,,,,,,,,,,,,,,,,,masks/mask_002.jpg,,,,,,,,,,,,,,,,,,,,,,,,,,,,,,,,,,,,,,,,,,,,,,,,0,1,1,1,1,,,,,,,,,,,,,,,,,,,,,,,,,,,,,,,,,,,,,,,,,
812424,001,2022-11-20_20h57.27.045,Info_measure_main_exp,2022.2.2,Win32,12.00278465,,,,,,,,,,,,,,,,,,masks/mask_001.jpg,,,,,,,,,,,,,,,,,,,,,,,,,,,,,,,,,,,,,,,,,,,,,,,,0,2,2,0,1,,,,,,,,,,,,,,,,,,,,,,,,,,,,,,,,,,,,,,,,,
812424,001,2022-11-20_20h57.27.045,Info_measure_main_exp,2022.2.2,Win32,12.00278465,,,,,,,,,,,,,,,,,,masks/mask_005.jpg,,,,,,,,,,,,,,,,,,,,,,,,,,,,,,,,,,,,,,,,,,,,,,,,0,3,3,4,1,,,,,,,,,,,,,,,,,,,,,,,,,,,,,,,,,,,,,,,,,
812424,001,2022-11-20_20h57.27.045,Info_measure_main_exp,2022.2.2,Win32,12.00278465,,,,,,,,,,,,,,,,,,masks/mask_003.jpg,,,,,,,,,,,,,,,,,,,,,,,,,,,,,,,,,,,,,,,,,,,,,,,,0,4,4,2,1,,,,,,,,,,,,,,,,,,,,,,,,,,,,,,,,,,,,,,,,,
812424,001,2022-11-20_20h57.27.045,Info_measure_main_exp,2022.2.2,Win32,12.00278465,,,,,,,,,,,,,,,,,,,,,,,,,,,,,,7,1.4292,1,,,,,,,,,,,,0,131,5,5,2214,1986,absent_patch/patch0002214.jpg,absent_patch/patch0001986.jpg,,,,,,,,,,,,,,,,,,,,0.061111111,0.133333333,1,0,0,response1disk,4,0.007407407,0.007407407,1,0,0,center_square,0,3,3,34,1,,,,,,,,,,,,,,,,,,,,,,,
812424,001,2022-11-20_20h57.27.045,Info_measure_main_exp,2022.2.2,Win32,12.00278465,,,,,,,,,,,,,,,,,,masks/mask_001.jpg,,,,,,,,,,,,,,,,,,,,,,,,,,,,,,,,,,,,,,,,,,,0,0,0,0,1,,,,,,,,,,,,,,,,,,,,,,,,,,,,,,,,,,,,,,,,,,,,,,
812424,001,2022-11-20_20h57.27.045,Info_measure_main_exp,2022.2.2,Win32,12.00278465,,,,,,,,,,,,,,,,,,masks/mask_004.jpg,,,,,,,,,,,,,,,,,,,,,,,,,,,,,,,,,,,,,,,,,,,0,1,1,3,1,,,,,,,,,,,,,,,,,,,,,,,,,,,,,,,,,,,,,,,,,,,,,,
812424,001,2022-11-20_20h57.27.045,Info_measure_main_exp,2022.2.2,Win32,12.00278465,,,,,,,,,,,,,,,,,,masks/mask_003.jpg,,,,,,,,,,,,,,,,,,,,,,,,,,,,,,,,,,,,,,,,,,,0,2,2,2,1,,,,,,,,,,,,,,,,,,,,,,,,,,,,,,,,,,,,,,,,,,,,,,
812424,001,2022-11-20_20h57.27.045,Info_measure_main_exp,2022.2.2,Win32,12.00278465,,,,,,,,,,,,,,,,,,masks/mask_002.jpg,,,,,,,,,,,,,,,,,,,,,,,,,,,,,,,,,,,,,,,,,,,0,3,3,1,1,,,,,,,,,,,,,,,,,,,,,,,,,,,,,,,,,,,,,,,,,,,,,,
812424,001,2022-11-20_20h57.27.045,Info_measure_main_exp,2022.2.2,Win32,12.00278465,,,,,,,,,,,,,,,,,,masks/mask_005.jpg,,,,,,,,,,,,,,,,,,,,,,,,,,,,,,,,,,,,,,,,,,,0,4,4,4,1,,,,,,,,,,,,,,,,,,,,,,,,,,,,,,,,,,,,,,,,,,,,,,
812424,001,2022-11-20_20h57.27.045,Info_measure_main_exp,2022.2.2,Win32,12.00278465,,,,,,,,,,,,,,,,,,masks/mask_005.jpg,,,,,,,,,,,,,,,,,,,,,,,,,,,,,,,,,,,,,,,,,,,,,,,,0,0,0,4,1,,,,,,,,,,,,,,,,,,,,,,,,,,,,,,,,,,,,,,,,,
812424,001,2022-11-20_20h57.27.045,Info_measure_main_exp,2022.2.2,Win32,12.00278465,,,,,,,,,,,,,,,,,,masks/mask_002.jpg,,,,,,,,,,,,,,,,,,,,,,,,,,,,,,,,,,,,,,,,,,,,,,,,0,1,1,1,1,,,,,,,,,,,,,,,,,,,,,,,,,,,,,,,,,,,,,,,,,
812424,001,2022-11-20_20h57.27.045,Info_measure_main_exp,2022.2.2,Win32,12.00278465,,,,,,,,,,,,,,,,,,masks/mask_004.jpg,,,,,,,,,,,,,,,,,,,,,,,,,,,,,,,,,,,,,,,,,,,,,,,,0,2,2,3,1,,,,,,,,,,,,,,,,,,,,,,,,,,,,,,,,,,,,,,,,,
812424,001,2022-11-20_20h57.27.045,Info_measure_main_exp,2022.2.2,Win32,12.00278465,,,,,,,,,,,,,,,,,,masks/mask_003.jpg,,,,,,,,,,,,,,,,,,,,,,,,,,,,,,,,,,,,,,,,,,,,,,,,0,3,3,2,1,,,,,,,,,,,,,,,,,,,,,,,,,,,,,,,,,,,,,,,,,
812424,001,2022-11-20_20h57.27.045,Info_measure_main_exp,2022.2.2,Win32,12.00278465,,,,,,,,,,,,,,,,,,masks/mask_001.jpg,,,,,,,,,,,,,,,,,,,,,,,,,,,,,,,,,,,,,,,,,,,,,,,,0,4,4,0,1,,,,,,,,,,,,,,,,,,,,,,,,,,,,,,,,,,,,,,,,,
812424,001,2022-11-20_20h57.27.045,Info_measure_main_exp,2022.2.2,Win32,12.00278465,,,,,,,,,,,,,,,,,,,,,,,,,,,,,,3,2.5328,1,,,,,,,,,,,,0,131,5,5,2298,2190,absent_patch/patch0002298.jpg,absent_patch/patch0002190.jpg,,,,,,,,,,,,,,,,,,,,-0.066666667,-0.117592593,1,0,0,response5disk,5,0.00462963,0.013888889,1,0,0,center_square,0,4,4,20,1,,,,,,,,,,,,,,,,,,,,,,,
812424,001,2022-11-20_20h57.27.045,Info_measure_main_exp,2022.2.2,Win32,12.00278465,,,,,,,,,,,,,,,,,,masks/mask_004.jpg,,,,,,,,,,,,,,,,,,,,,,,,,,,,,,,,,,,,,,,,,,,0,0,0,3,1,,,,,,,,,,,,,,,,,,,,,,,,,,,,,,,,,,,,,,,,,,,,,,
812424,001,2022-11-20_20h57.27.045,Info_measure_main_exp,2022.2.2,Win32,12.00278465,,,,,,,,,,,,,,,,,,masks/mask_005.jpg,,,,,,,,,,,,,,,,,,,,,,,,,,,,,,,,,,,,,,,,,,,0,1,1,4,1,,,,,,,,,,,,,,,,,,,,,,,,,,,,,,,,,,,,,,,,,,,,,,
812424,001,2022-11-20_20h57.27.045,Info_measure_main_exp,2022.2.2,Win32,12.00278465,,,,,,,,,,,,,,,,,,masks/mask_002.jpg,,,,,,,,,,,,,,,,,,,,,,,,,,,,,,,,,,,,,,,,,,,0,2,2,1,1,,,,,,,,,,,,,,,,,,,,,,,,,,,,,,,,,,,,,,,,,,,,,,
812424,001,2022-11-20_20h57.27.045,Info_measure_main_exp,2022.2.2,Win32,12.00278465,,,,,,,,,,,,,,,,,,masks/mask_001.jpg,,,,,,,,,,,,,,,,,,,,,,,,,,,,,,,,,,,,,,,,,,,0,3,3,0,1,,,,,,,,,,,,,,,,,,,,,,,,,,,,,,,,,,,,,,,,,,,,,,
812424,001,2022-11-20_20h57.27.045,Info_measure_main_exp,2022.2.2,Win32,12.00278465,,,,,,,,,,,,,,,,,,masks/mask_003.jpg,,,,,,,,,,,,,,,,,,,,,,,,,,,,,,,,,,,,,,,,,,,0,4,4,2,1,,,,,,,,,,,,,,,,,,,,,,,,,,,,,,,,,,,,,,,,,,,,,,
812424,001,2022-11-20_20h57.27.045,Info_measure_main_exp,2022.2.2,Win32,12.00278465,,,,,,,,,,,,,,,,,,masks/mask_005.jpg,,,,,,,,,,,,,,,,,,,,,,,,,,,,,,,,,,,,,,,,,,,,,,,,0,0,0,4,1,,,,,,,,,,,,,,,,,,,,,,,,,,,,,,,,,,,,,,,,,
812424,001,2022-11-20_20h57.27.045,Info_measure_main_exp,2022.2.2,Win32,12.00278465,,,,,,,,,,,,,,,,,,masks/mask_001.jpg,,,,,,,,,,,,,,,,,,,,,,,,,,,,,,,,,,,,,,,,,,,,,,,,0,1,1,0,1,,,,,,,,,,,,,,,,,,,,,,,,,,,,,,,,,,,,,,,,,
812424,001,2022-11-20_20h57.27.045,Info_measure_main_exp,2022.2.2,Win32,12.00278465,,,,,,,,,,,,,,,,,,masks/mask_004.jpg,,,,,,,,,,,,,,,,,,,,,,,,,,,,,,,,,,,,,,,,,,,,,,,,0,2,2,3,1,,,,,,,,,,,,,,,,,,,,,,,,,,,,,,,,,,,,,,,,,
812424,001,2022-11-20_20h57.27.045,Info_measure_main_exp,2022.2.2,Win32,12.00278465,,,,,,,,,,,,,,,,,,masks/mask_003.jpg,,,,,,,,,,,,,,,,,,,,,,,,,,,,,,,,,,,,,,,,,,,,,,,,0,3,3,2,1,,,,,,,,,,,,,,,,,,,,,,,,,,,,,,,,,,,,,,,,,
812424,001,2022-11-20_20h57.27.045,Info_measure_main_exp,2022.2.2,Win32,12.00278465,,,,,,,,,,,,,,,,,,masks/mask_002.jpg,,,,,,,,,,,,,,,,,,,,,,,,,,,,,,,,,,,,,,,,,,,,,,,,0,4,4,1,1,,,,,,,,,,,,,,,,,,,,,,,,,,,,,,,,,,,,,,,,,
812424,001,2022-11-20_20h57.27.045,Info_measure_main_exp,2022.2.2,Win32,12.00278465,,,,,,,,,,,,,,,,,,,,,,,,,,,,,,7,2.3599,1,,,,,,,,,,,,0,131,5,5,2190,1974,absent_patch/patch0002190.jpg,absent_patch/patch0001974.jpg,,,,,,,,,,,,,,,,,,,,0.071296296,0.103703704,1,0,0,response1disk,6,-0.012962963,-0.012962963,1,0,0,center_square,0,5,5,119,1,,,,,,,,,,,,,,,,,,,,,,,
812424,001,2022-11-20_20h57.27.045,Info_measure_main_exp,2022.2.2,Win32,12.00278465,,,,,,,,,,,,,,,,,,masks/mask_003.jpg,,,,,,,,,,,,,,,,,,,,,,,,,,,,,,,,,,,,,,,,,,,0,0,0,2,1,,,,,,,,,,,,,,,,,,,,,,,,,,,,,,,,,,,,,,,,,,,,,,
812424,001,2022-11-20_20h57.27.045,Info_measure_main_exp,2022.2.2,Win32,12.00278465,,,,,,,,,,,,,,,,,,masks/mask_005.jpg,,,,,,,,,,,,,,,,,,,,,,,,,,,,,,,,,,,,,,,,,,,0,1,1,4,1,,,,,,,,,,,,,,,,,,,,,,,,,,,,,,,,,,,,,,,,,,,,,,
812424,001,2022-11-20_20h57.27.045,Info_measure_main_exp,2022.2.2,Win32,12.00278465,,,,,,,,,,,,,,,,,,masks/mask_004.jpg,,,,,,,,,,,,,,,,,,,,,,,,,,,,,,,,,,,,,,,,,,,0,2,2,3,1,,,,,,,,,,,,,,,,,,,,,,,,,,,,,,,,,,,,,,,,,,,,,,
812424,001,2022-11-20_20h57.27.045,Info_measure_main_exp,2022.2.2,Win32,12.00278465,,,,,,,,,,,,,,,,,,masks/mask_002.jpg,,,,,,,,,,,,,,,,,,,,,,,,,,,,,,,,,,,,,,,,,,,0,3,3,1,1,,,,,,,,,,,,,,,,,,,,,,,,,,,,,,,,,,,,,,,,,,,,,,
812424,001,2022-11-20_20h57.27.045,Info_measure_main_exp,2022.2.2,Win32,12.00278465,,,,,,,,,,,,,,,,,,masks/mask_001.jpg,,,,,,,,,,,,,,,,,,,,,,,,,,,,,,,,,,,,,,,,,,,0,4,4,0,1,,,,,,,,,,,,,,,,,,,,,,,,,,,,,,,,,,,,,,,,,,,,,,
812424,001,2022-11-20_20h57.27.045,Info_measure_main_exp,2022.2.2,Win32,12.00278465,,,,,,,,,,,,,,,,,,masks/mask_001.jpg,,,,,,,,,,,,,,,,,,,,,,,,,,,,,,,,,,,,,,,,,,,,,,,,0,0,0,0,1,,,,,,,,,,,,,,,,,,,,,,,,,,,,,,,,,,,,,,,,,
812424,001,2022-11-20_20h57.27.045,Info_measure_main_exp,2022.2.2,Win32,12.00278465,,,,,,,,,,,,,,,,,,masks/mask_004.jpg,,,,,,,,,,,,,,,,,,,,,,,,,,,,,,,,,,,,,,,,,,,,,,,,0,1,1,3,1,,,,,,,,,,,,,,,,,,,,,,,,,,,,,,,,,,,,,,,,,
812424,001,2022-11-20_20h57.27.045,Info_measure_main_exp,2022.2.2,Win32,12.00278465,,,,,,,,,,,,,,,,,,masks/mask_003.jpg,,,,,,,,,,,,,,,,,,,,,,,,,,,,,,,,,,,,,,,,,,,,,,,,0,2,2,2,1,,,,,,,,,,,,,,,,,,,,,,,,,,,,,,,,,,,,,,,,,
812424,001,2022-11-20_20h57.27.045,Info_measure_main_exp,2022.2.2,Win32,12.00278465,,,,,,,,,,,,,,,,,,masks/mask_002.jpg,,,,,,,,,,,,,,,,,,,,,,,,,,,,,,,,,,,,,,,,,,,,,,,,0,3,3,1,1,,,,,,,,,,,,,,,,,,,,,,,,,,,,,,,,,,,,,,,,,
812424,001,2022-11-20_20h57.27.045,Info_measure_main_exp,2022.2.2,Win32,12.00278465,,,,,,,,,,,,,,,,,,masks/mask_005.jpg,,,,,,,,,,,,,,,,,,,,,,,,,,,,,,,,,,,,,,,,,,,,,,,,0,4,4,4,1,,,,,,,,,,,,,,,,,,,,,,,,,,,,,,,,,,,,,,,,,
812424,001,2022-11-20_20h57.27.045,Info_measure_main_exp,2022.2.2,Win32,12.00278465,,,,,,,,,,,,,,,,,,,,,,,,,,,,,,4,1.6441,1,,,,,,,,,,,,0,131,5,5,1986,1986,absent_patch/patch0001986.jpg,absent_patch/patch0001986.jpg,,,,,,,,,,,,,,,,,,,,0.014814815,-0.102777778,1,0,0,response3disk,7,-0.009259259,-0.014814815,1,0,0,center_square,0,6,6,19,1,,,,,,,,,,,,,,,,,,,,,,,
812424,001,2022-11-20_20h57.27.045,Info_measure_main_exp,2022.2.2,Win32,12.00278465,,,,,,,,,,,,,,,,,,masks/mask_004.jpg,,,,,,,,,,,,,,,,,,,,,,,,,,,,,,,,,,,,,,,,,,,0,0,0,3,1,,,,,,,,,,,,,,,,,,,,,,,,,,,,,,,,,,,,,,,,,,,,,,
812424,001,2022-11-20_20h57.27.045,Info_measure_main_exp,2022.2.2,Win32,12.00278465,,,,,,,,,,,,,,,,,,masks/mask_002.jpg,,,,,,,,,,,,,,,,,,,,,,,,,,,,,,,,,,,,,,,,,,,0,1,1,1,1,,,,,,,,,,,,,,,,,,,,,,,,,,,,,,,,,,,,,,,,,,,,,,
812424,001,2022-11-20_20h57.27.045,Info_measure_main_exp,2022.2.2,Win32,12.00278465,,,,,,,,,,,,,,,,,,masks/mask_005.jpg,,,,,,,,,,,,,,,,,,,,,,,,,,,,,,,,,,,,,,,,,,,0,2,2,4,1,,,,,,,,,,,,,,,,,,,,,,,,,,,,,,,,,,,,,,,,,,,,,,
812424,001,2022-11-20_20h57.27.045,Info_measure_main_exp,2022.2.2,Win32,12.00278465,,,,,,,,,,,,,,,,,,masks/mask_003.jpg,,,,,,,,,,,,,,,,,,,,,,,,,,,,,,,,,,,,,,,,,,,0,3,3,2,1,,,,,,,,,,,,,,,,,,,,,,,,,,,,,,,,,,,,,,,,,,,,,,
812424,001,2022-11-20_20h57.27.045,Info_measure_main_exp,2022.2.2,Win32,12.00278465,,,,,,,,,,,,,,,,,,masks/mask_001.jpg,,,,,,,,,,,,,,,,,,,,,,,,,,,,,,,,,,,,,,,,,,,0,4,4,0,1,,,,,,,,,,,,,,,,,,,,,,,,,,,,,,,,,,,,,,,,,,,,,,
812424,001,2022-11-20_20h57.27.045,Info_measure_main_exp,2022.2.2,Win32,12.00278465,,,,,,,,,,,,,,,,,,masks/mask_003.jpg,,,,,,,,,,,,,,,,,,,,,,,,,,,,,,,,,,,,,,,,,,,,,,,,0,0,0,2,1,,,,,,,,,,,,,,,,,,,,,,,,,,,,,,,,,,,,,,,,,
812424,001,2022-11-20_20h57.27.045,Info_measure_main_exp,2022.2.2,Win32,12.00278465,,,,,,,,,,,,,,,,,,masks/mask_004.jpg,,,,,,,,,,,,,,,,,,,,,,,,,,,,,,,,,,,,,,,,,,,,,,,,0,1,1,3,1,,,,,,,,,,,,,,,,,,,,,,,,,,,,,,,,,,,,,,,,,
812424,001,2022-11-20_20h57.27.045,Info_measure_main_exp,2022.2.2,Win32,12.00278465,,,,,,,,,,,,,,,,,,masks/mask_005.jpg,,,,,,,,,,,,,,,,,,,,,,,,,,,,,,,,,,,,,,,,,,,,,,,,0,2,2,4,1,,,,,,,,,,,,,,,,,,,,,,,,,,,,,,,,,,,,,,,,,
812424,001,2022-11-20_20h57.27.045,Info_measure_main_exp,2022.2.2,Win32,12.00278465,,,,,,,,,,,,,,,,,,masks/mask_002.jpg,,,,,,,,,,,,,,,,,,,,,,,,,,,,,,,,,,,,,,,,,,,,,,,,0,3,3,1,1,,,,,,,,,,,,,,,,,,,,,,,,,,,,,,,,,,,,,,,,,
812424,001,2022-11-20_20h57.27.045,Info_measure_main_exp,2022.2.2,Win32,12.00278465,,,,,,,,,,,,,,,,,,masks/mask_001.jpg,,,,,,,,,,,,,,,,,,,,,,,,,,,,,,,,,,,,,,,,,,,,,,,,0,4,4,0,1,,,,,,,,,,,,,,,,,,,,,,,,,,,,,,,,,,,,,,,,,
812424,001,2022-11-20_20h57.27.045,Info_measure_main_exp,2022.2.2,Win32,12.00278465,,,,,,,,,,,,,,,,,,,,,,,,,,,,,,3,1.1503,1,,,,,,,,,,,,0,131,5,5,2274,2274,absent_patch/patch0002274.jpg,absent_patch/patch0002274.jpg,,,,,,,,,,,,,,,,,,,,-0.040740741,-0.064814815,1,0,0,response5disk,8,-0.011111111,0.002777778,1,0,0,center_square,0,7,7,114,1,,,,,,,,,,,,,,,,,,,,,,,
812424,001,2022-11-20_20h57.27.045,Info_measure_main_exp,2022.2.2,Win32,12.00278465,,,,,,,,,,,,,,,,,,masks/mask_005.jpg,,,,,,,,,,,,,,,,,,,,,,,,,,,,,,,,,,,,,,,,,,,0,0,0,4,1,,,,,,,,,,,,,,,,,,,,,,,,,,,,,,,,,,,,,,,,,,,,,,
812424,001,2022-11-20_20h57.27.045,Info_measure_main_exp,2022.2.2,Win32,12.00278465,,,,,,,,,,,,,,,,,,masks/mask_001.jpg,,,,,,,,,,,,,,,,,,,,,,,,,,,,,,,,,,,,,,,,,,,0,1,1,0,1,,,,,,,,,,,,,,,,,,,,,,,,,,,,,,,,,,,,,,,,,,,,,,
812424,001,2022-11-20_20h57.27.045,Info_measure_main_exp,2022.2.2,Win32,12.00278465,,,,,,,,,,,,,,,,,,masks/mask_004.jpg,,,,,,,,,,,,,,,,,,,,,,,,,,,,,,,,,,,,,,,,,,,0,2,2,3,1,,,,,,,,,,,,,,,,,,,,,,,,,,,,,,,,,,,,,,,,,,,,,,
812424,001,2022-11-20_20h57.27.045,Info_measure_main_exp,2022.2.2,Win32,12.00278465,,,,,,,,,,,,,,,,,,masks/mask_003.jpg,,,,,,,,,,,,,,,,,,,,,,,,,,,,,,,,,,,,,,,,,,,0,3,3,2,1,,,,,,,,,,,,,,,,,,,,,,,,,,,,,,,,,,,,,,,,,,,,,,
812424,001,2022-11-20_20h57.27.045,Info_measure_main_exp,2022.2.2,Win32,12.00278465,,,,,,,,,,,,,,,,,,masks/mask_002.jpg,,,,,,,,,,,,,,,,,,,,,,,,,,,,,,,,,,,,,,,,,,,0,4,4,1,1,,,,,,,,,,,,,,,,,,,,,,,,,,,,,,,,,,,,,,,,,,,,,,
812424,001,2022-11-20_20h57.27.045,Info_measure_main_exp,2022.2.2,Win32,12.00278465,,,,,,,,,,,,,,,,,,masks/mask_003.jpg,,,,,,,,,,,,,,,,,,,,,,,,,,,,,,,,,,,,,,,,,,,,,,,,0,0,0,2,1,,,,,,,,,,,,,,,,,,,,,,,,,,,,,,,,,,,,,,,,,
812424,001,2022-11-20_20h57.27.045,Info_measure_main_exp,2022.2.2,Win32,12.00278465,,,,,,,,,,,,,,,,,,masks/mask_004.jpg,,,,,,,,,,,,,,,,,,,,,,,,,,,,,,,,,,,,,,,,,,,,,,,,0,1,1,3,1,,,,,,,,,,,,,,,,,,,,,,,,,,,,,,,,,,,,,,,,,
812424,001,2022-11-20_20h57.27.045,Info_measure_main_exp,2022.2.2,Win32,12.00278465,,,,,,,,,,,,,,,,,,masks/mask_001.jpg,,,,,,,,,,,,,,,,,,,,,,,,,,,,,,,,,,,,,,,,,,,,,,,,0,2,2,0,1,,,,,,,,,,,,,,,,,,,,,,,,,,,,,,,,,,,,,,,,,
812424,001,2022-11-20_20h57.27.045,Info_measure_main_exp,2022.2.2,Win32,12.00278465,,,,,,,,,,,,,,,,,,masks/mask_005.jpg,,,,,,,,,,,,,,,,,,,,,,,,,,,,,,,,,,,,,,,,,,,,,,,,0,3,3,4,1,,,,,,,,,,,,,,,,,,,,,,,,,,,,,,,,,,,,,,,,,
812424,001,2022-11-20_20h57.27.045,Info_measure_main_exp,2022.2.2,Win32,12.00278465,,,,,,,,,,,,,,,,,,masks/mask_002.jpg,,,,,,,,,,,,,,,,,,,,,,,,,,,,,,,,,,,,,,,,,,,,,,,,0,4,4,1,1,,,,,,,,,,,,,,,,,,,,,,,,,,,,,,,,,,,,,,,,,
812424,001,2022-11-20_20h57.27.045,Info_measure_main_exp,2022.2.2,Win32,12.00278465,,,,,,,,,,,,,,,,,,,,,,,,,,,,,,4,1.7714,1,,,,,,,,,,,,0,131,5,5,2238,2298,absent_patch/patch0002238.jpg,absent_patch/patch0002298.jpg,,,,,,,,,,,,,,,,,,,,0.028703704,-0.043518519,1,0,0,response3disk,9,-0.003703704,0.001851852,1,0,0,center_square,0,8,8,51,1,,,,,,,,,,,,,,,,,,,,,,,
812424,001,2022-11-20_20h57.27.045,Info_measure_main_exp,2022.2.2,Win32,12.00278465,,,,,,,,,,,,,,,,,,masks/mask_001.jpg,,,,,,,,,,,,,,,,,,,,,,,,,,,,,,,,,,,,,,,,,,,0,0,0,0,1,,,,,,,,,,,,,,,,,,,,,,,,,,,,,,,,,,,,,,,,,,,,,,
812424,001,2022-11-20_20h57.27.045,Info_measure_main_exp,2022.2.2,Win32,12.00278465,,,,,,,,,,,,,,,,,,masks/mask_002.jpg,,,,,,,,,,,,,,,,,,,,,,,,,,,,,,,,,,,,,,,,,,,0,1,1,1,1,,,,,,,,,,,,,,,,,,,,,,,,,,,,,,,,,,,,,,,,,,,,,,
812424,001,2022-11-20_20h57.27.045,Info_measure_main_exp,2022.2.2,Win32,12.00278465,,,,,,,,,,,,,,,,,,masks/mask_003.jpg,,,,,,,,,,,,,,,,,,,,,,,,,,,,,,,,,,,,,,,,,,,0,2,2,2,1,,,,,,,,,,,,,,,,,,,,,,,,,,,,,,,,,,,,,,,,,,,,,,
812424,001,2022-11-20_20h57.27.045,Info_measure_main_exp,2022.2.2,Win32,12.00278465,,,,,,,,,,,,,,,,,,masks/mask_005.jpg,,,,,,,,,,,,,,,,,,,,,,,,,,,,,,,,,,,,,,,,,,,0,3,3,4,1,,,,,,,,,,,,,,,,,,,,,,,,,,,,,,,,,,,,,,,,,,,,,,
812424,001,2022-11-20_20h57.27.045,Info_measure_main_exp,2022.2.2,Win32,12.00278465,,,,,,,,,,,,,,,,,,masks/mask_004.jpg,,,,,,,,,,,,,,,,,,,,,,,,,,,,,,,,,,,,,,,,,,,0,4,4,3,1,,,,,,,,,,,,,,,,,,,,,,,,,,,,,,,,,,,,,,,,,,,,,,
812424,001,2022-11-20_20h57.27.045,Info_measure_main_exp,2022.2.2,Win32,12.00278465,,,,,,,,,,,,,,,,,,masks/mask_003.jpg,,,,,,,,,,,,,,,,,,,,,,,,,,,,,,,,,,,,,,,,,,,,,,,,0,0,0,2,1,,,,,,,,,,,,,,,,,,,,,,,,,,,,,,,,,,,,,,,,,
812424,001,2022-11-20_20h57.27.045,Info_measure_main_exp,2022.2.2,Win32,12.00278465,,,,,,,,,,,,,,,,,,masks/mask_005.jpg,,,,,,,,,,,,,,,,,,,,,,,,,,,,,,,,,,,,,,,,,,,,,,,,0,1,1,4,1,,,,,,,,,,,,,,,,,,,,,,,,,,,,,,,,,,,,,,,,,
812424,001,2022-11-20_20h57.27.045,Info_measure_main_exp,2022.2.2,Win32,12.00278465,,,,,,,,,,,,,,,,,,masks/mask_004.jpg,,,,,,,,,,,,,,,,,,,,,,,,,,,,,,,,,,,,,,,,,,,,,,,,0,2,2,3,1,,,,,,,,,,,,,,,,,,,,,,,,,,,,,,,,,,,,,,,,,
812424,001,2022-11-20_20h57.27.045,Info_measure_main_exp,2022.2.2,Win32,12.00278465,,,,,,,,,,,,,,,,,,masks/mask_001.jpg,,,,,,,,,,,,,,,,,,,,,,,,,,,,,,,,,,,,,,,,,,,,,,,,0,3,3,0,1,,,,,,,,,,,,,,,,,,,,,,,,,,,,,,,,,,,,,,,,,
812424,001,2022-11-20_20h57.27.045,Info_measure_main_exp,2022.2.2,Win32,12.00278465,,,,,,,,,,,,,,,,,,masks/mask_002.jpg,,,,,,,,,,,,,,,,,,,,,,,,,,,,,,,,,,,,,,,,,,,,,,,,0,4,4,1,1,,,,,,,,,,,,,,,,,,,,,,,,,,,,,,,,,,,,,,,,,
812424,001,2022-11-20_20h57.27.045,Info_measure_main_exp,2022.2.2,Win32,12.00278465,,,,,,,,,,,,,,,,,,,,,,,,,,,,,,4,7.7029,1,,,,,,,,,,,,0,131,5,5,2274,2178,absent_patch/patch0002274.jpg,absent_patch/patch0002178.jpg,,,,,,,,,,,,,,,,,,,,0,-0.001851852,1,0,0,response3disk,10,0.001851852,0.011111111,1,0,0,center_square,0,9,9,117,1,,,,,,,,,,,,,,,,,,,,,,,
812424,001,2022-11-20_20h57.27.045,Info_measure_main_exp,2022.2.2,Win32,12.00278465,,,,,,,,,,,,,,,,,,masks/mask_002.jpg,,,,,,,,,,,,,,,,,,,,,,,,,,,,,,,,,,,,,,,,,,,0,0,0,1,1,,,,,,,,,,,,,,,,,,,,,,,,,,,,,,,,,,,,,,,,,,,,,,
812424,001,2022-11-20_20h57.27.045,Info_measure_main_exp,2022.2.2,Win32,12.00278465,,,,,,,,,,,,,,,,,,masks/mask_001.jpg,,,,,,,,,,,,,,,,,,,,,,,,,,,,,,,,,,,,,,,,,,,0,1,1,0,1,,,,,,,,,,,,,,,,,,,,,,,,,,,,,,,,,,,,,,,,,,,,,,
812424,001,2022-11-20_20h57.27.045,Info_measure_main_exp,2022.2.2,Win32,12.00278465,,,,,,,,,,,,,,,,,,masks/mask_003.jpg,,,,,,,,,,,,,,,,,,,,,,,,,,,,,,,,,,,,,,,,,,,0,2,2,2,1,,,,,,,,,,,,,,,,,,,,,,,,,,,,,,,,,,,,,,,,,,,,,,
812424,001,2022-11-20_20h57.27.045,Info_measure_main_exp,2022.2.2,Win32,12.00278465,,,,,,,,,,,,,,,,,,masks/mask_004.jpg,,,,,,,,,,,,,,,,,,,,,,,,,,,,,,,,,,,,,,,,,,,0,3,3,3,1,,,,,,,,,,,,,,,,,,,,,,,,,,,,,,,,,,,,,,,,,,,,,,
812424,001,2022-11-20_20h57.27.045,Info_measure_main_exp,2022.2.2,Win32,12.00278465,,,,,,,,,,,,,,,,,,masks/mask_005.jpg,,,,,,,,,,,,,,,,,,,,,,,,,,,,,,,,,,,,,,,,,,,0,4,4,4,1,,,,,,,,,,,,,,,,,,,,,,,,,,,,,,,,,,,,,,,,,,,,,,
812424,001,2022-11-20_20h57.27.045,Info_measure_main_exp,2022.2.2,Win32,12.00278465,,,,,,,,,,,,,,,,,,masks/mask_001.jpg,,,,,,,,,,,,,,,,,,,,,,,,,,,,,,,,,,,,,,,,,,,,,,,,0,0,0,0,1,,,,,,,,,,,,,,,,,,,,,,,,,,,,,,,,,,,,,,,,,
812424,001,2022-11-20_20h57.27.045,Info_measure_main_exp,2022.2.2,Win32,12.00278465,,,,,,,,,,,,,,,,,,masks/mask_005.jpg,,,,,,,,,,,,,,,,,,,,,,,,,,,,,,,,,,,,,,,,,,,,,,,,0,1,1,4,1,,,,,,,,,,,,,,,,,,,,,,,,,,,,,,,,,,,,,,,,,
812424,001,2022-11-20_20h57.27.045,Info_measure_main_exp,2022.2.2,Win32,12.00278465,,,,,,,,,,,,,,,,,,masks/mask_003.jpg,,,,,,,,,,,,,,,,,,,,,,,,,,,,,,,,,,,,,,,,,,,,,,,,0,2,2,2,1,,,,,,,,,,,,,,,,,,,,,,,,,,,,,,,,,,,,,,,,,
812424,001,2022-11-20_20h57.27.045,Info_measure_main_exp,2022.2.2,Win32,12.00278465,,,,,,,,,,,,,,,,,,masks/mask_004.jpg,,,,,,,,,,,,,,,,,,,,,,,,,,,,,,,,,,,,,,,,,,,,,,,,0,3,3,3,1,,,,,,,,,,,,,,,,,,,,,,,,,,,,,,,,,,,,,,,,,
812424,001,2022-11-20_20h57.27.045,Info_measure_main_exp,2022.2.2,Win32,12.00278465,,,,,,,,,,,,,,,,,,masks/mask_002.jpg,,,,,,,,,,,,,,,,,,,,,,,,,,,,,,,,,,,,,,,,,,,,,,,,0,4,4,1,1,,,,,,,,,,,,,,,,,,,,,,,,,,,,,,,,,,,,,,,,,
812424,001,2022-11-20_20h57.27.045,Info_measure_main_exp,2022.2.2,Win32,12.00278465,,,,,,,,,,,,,,,,,,,,,,,,,,,,,,3,1.2456,1,,,,,,,,,,,,0,131,5,5,1950,2082,absent_patch/patch0001950.jpg,absent_patch/patch0002082.jpg,,,,,,,,,,,,,,,,,,,,-0.037962963,-0.112962963,1,0,0,response5disk,11,-0.003703704,0.007407407,1,0,0,center_square,0,10,10,12,1,,,,,,,,,,,,,,,,,,,,,,,
812424,001,2022-11-20_20h57.27.045,Info_measure_main_exp,2022.2.2,Win32,12.00278465,,,,,,,,,,,,,,,,,,masks/mask_003.jpg,,,,,,,,,,,,,,,,,,,,,,,,,,,,,,,,,,,,,,,,,,,0,0,0,2,1,,,,,,,,,,,,,,,,,,,,,,,,,,,,,,,,,,,,,,,,,,,,,,
812424,001,2022-11-20_20h57.27.045,Info_measure_main_exp,2022.2.2,Win32,12.00278465,,,,,,,,,,,,,,,,,,masks/mask_001.jpg,,,,,,,,,,,,,,,,,,,,,,,,,,,,,,,,,,,,,,,,,,,0,1,1,0,1,,,,,,,,,,,,,,,,,,,,,,,,,,,,,,,,,,,,,,,,,,,,,,
812424,001,2022-11-20_20h57.27.045,Info_measure_main_exp,2022.2.2,Win32,12.00278465,,,,,,,,,,,,,,,,,,masks/mask_005.jpg,,,,,,,,,,,,,,,,,,,,,,,,,,,,,,,,,,,,,,,,,,,0,2,2,4,1,,,,,,,,,,,,,,,,,,,,,,,,,,,,,,,,,,,,,,,,,,,,,,
812424,001,2022-11-20_20h57.27.045,Info_measure_main_exp,2022.2.2,Win32,12.00278465,,,,,,,,,,,,,,,,,,masks/mask_002.jpg,,,,,,,,,,,,,,,,,,,,,,,,,,,,,,,,,,,,,,,,,,,0,3,3,1,1,,,,,,,,,,,,,,,,,,,,,,,,,,,,,,,,,,,,,,,,,,,,,,
812424,001,2022-11-20_20h57.27.045,Info_measure_main_exp,2022.2.2,Win32,12.00278465,,,,,,,,,,,,,,,,,,masks/mask_004.jpg,,,,,,,,,,,,,,,,,,,,,,,,,,,,,,,,,,,,,,,,,,,0,4,4,3,1,,,,,,,,,,,,,,,,,,,,,,,,,,,,,,,,,,,,,,,,,,,,,,
812424,001,2022-11-20_20h57.27.045,Info_measure_main_exp,2022.2.2,Win32,12.00278465,,,,,,,,,,,,,,,,,,masks/mask_001.jpg,,,,,,,,,,,,,,,,,,,,,,,,,,,,,,,,,,,,,,,,,,,,,,,,0,0,0,0,1,,,,,,,,,,,,,,,,,,,,,,,,,,,,,,,,,,,,,,,,,
812424,001,2022-11-20_20h57.27.045,Info_measure_main_exp,2022.2.2,Win32,12.00278465,,,,,,,,,,,,,,,,,,masks/mask_003.jpg,,,,,,,,,,,,,,,,,,,,,,,,,,,,,,,,,,,,,,,,,,,,,,,,0,1,1,2,1,,,,,,,,,,,,,,,,,,,,,,,,,,,,,,,,,,,,,,,,,
812424,001,2022-11-20_20h57.27.045,Info_measure_main_exp,2022.2.2,Win32,12.00278465,,,,,,,,,,,,,,,,,,masks/mask_004.jpg,,,,,,,,,,,,,,,,,,,,,,,,,,,,,,,,,,,,,,,,,,,,,,,,0,2,2,3,1,,,,,,,,,,,,,,,,,,,,,,,,,,,,,,,,,,,,,,,,,
812424,001,2022-11-20_20h57.27.045,Info_measure_main_exp,2022.2.2,Win32,12.00278465,,,,,,,,,,,,,,,,,,masks/mask_002.jpg,,,,,,,,,,,,,,,,,,,,,,,,,,,,,,,,,,,,,,,,,,,,,,,,0,3,3,1,1,,,,,,,,,,,,,,,,,,,,,,,,,,,,,,,,,,,,,,,,,
812424,001,2022-11-20_20h57.27.045,Info_measure_main_exp,2022.2.2,Win32,12.00278465,,,,,,,,,,,,,,,,,,masks/mask_005.jpg,,,,,,,,,,,,,,,,,,,,,,,,,,,,,,,,,,,,,,,,,,,,,,,,0,4,4,4,1,,,,,,,,,,,,,,,,,,,,,,,,,,,,,,,,,,,,,,,,,
812424,001,2022-11-20_20h57.27.045,Info_measure_main_exp,2022.2.2,Win32,12.00278465,,,,,,,,,,,,,,,,,,,,,,,,,,,,,,6,4.1394,1,,,,,,,,,,,,0,131,5,5,2190,2166,absent_patch/patch0002190.jpg,absent_patch/patch0002166.jpg,,,,,,,,,,,,,,,,,,,,0.118518519,0.058333333,1,0,0,response1disk,12,-0.010185185,-0.007407407,1,0,0,center_square,0,11,11,50,1,,,,,,,,,,,,,,,,,,,,,,,
812424,001,2022-11-20_20h57.27.045,Info_measure_main_exp,2022.2.2,Win32,12.00278465,,,,,,,,,,,,,,,,,,masks/mask_001.jpg,,,,,,,,,,,,,,,,,,,,,,,,,,,,,,,,,,,,,,,,,,,0,0,0,0,1,,,,,,,,,,,,,,,,,,,,,,,,,,,,,,,,,,,,,,,,,,,,,,
812424,001,2022-11-20_20h57.27.045,Info_measure_main_exp,2022.2.2,Win32,12.00278465,,,,,,,,,,,,,,,,,,masks/mask_003.jpg,,,,,,,,,,,,,,,,,,,,,,,,,,,,,,,,,,,,,,,,,,,0,1,1,2,1,,,,,,,,,,,,,,,,,,,,,,,,,,,,,,,,,,,,,,,,,,,,,,
812424,001,2022-11-20_20h57.27.045,Info_measure_main_exp,2022.2.2,Win32,12.00278465,,,,,,,,,,,,,,,,,,masks/mask_002.jpg,,,,,,,,,,,,,,,,,,,,,,,,,,,,,,,,,,,,,,,,,,,0,2,2,1,1,,,,,,,,,,,,,,,,,,,,,,,,,,,,,,,,,,,,,,,,,,,,,,
812424,001,2022-11-20_20h57.27.045,Info_measure_main_exp,2022.2.2,Win32,12.00278465,,,,,,,,,,,,,,,,,,masks/mask_005.jpg,,,,,,,,,,,,,,,,,,,,,,,,,,,,,,,,,,,,,,,,,,,0,3,3,4,1,,,,,,,,,,,,,,,,,,,,,,,,,,,,,,,,,,,,,,,,,,,,,,
812424,001,2022-11-20_20h57.27.045,Info_measure_main_exp,2022.2.2,Win32,12.00278465,,,,,,,,,,,,,,,,,,masks/mask_004.jpg,,,,,,,,,,,,,,,,,,,,,,,,,,,,,,,,,,,,,,,,,,,0,4,4,3,1,,,,,,,,,,,,,,,,,,,,,,,,,,,,,,,,,,,,,,,,,,,,,,
812424,001,2022-11-20_20h57.27.045,Info_measure_main_exp,2022.2.2,Win32,12.00278465,,,,,,,,,,,,,,,,,,masks/mask_002.jpg,,,,,,,,,,,,,,,,,,,,,,,,,,,,,,,,,,,,,,,,,,,,,,,,0,0,0,1,1,,,,,,,,,,,,,,,,,,,,,,,,,,,,,,,,,,,,,,,,,
812424,001,2022-11-20_20h57.27.045,Info_measure_main_exp,2022.2.2,Win32,12.00278465,,,,,,,,,,,,,,,,,,masks/mask_004.jpg,,,,,,,,,,,,,,,,,,,,,,,,,,,,,,,,,,,,,,,,,,,,,,,,0,1,1,3,1,,,,,,,,,,,,,,,,,,,,,,,,,,,,,,,,,,,,,,,,,
812424,001,2022-11-20_20h57.27.045,Info_measure_main_exp,2022.2.2,Win32,12.00278465,,,,,,,,,,,,,,,,,,masks/mask_003.jpg,,,,,,,,,,,,,,,,,,,,,,,,,,,,,,,,,,,,,,,,,,,,,,,,0,2,2,2,1,,,,,,,,,,,,,,,,,,,,,,,,,,,,,,,,,,,,,,,,,
812424,001,2022-11-20_20h57.27.045,Info_measure_main_exp,2022.2.2,Win32,12.00278465,,,,,,,,,,,,,,,,,,masks/mask_001.jpg,,,,,,,,,,,,,,,,,,,,,,,,,,,,,,,,,,,,,,,,,,,,,,,,0,3,3,0,1,,,,,,,,,,,,,,,,,,,,,,,,,,,,,,,,,,,,,,,,,
812424,001,2022-11-20_20h57.27.045,Info_measure_main_exp,2022.2.2,Win32,12.00278465,,,,,,,,,,,,,,,,,,masks/mask_005.jpg,,,,,,,,,,,,,,,,,,,,,,,,,,,,,,,,,,,,,,,,,,,,,,,,0,4,4,4,1,,,,,,,,,,,,,,,,,,,,,,,,,,,,,,,,,,,,,,,,,
812424,001,2022-11-20_20h57.27.045,Info_measure_main_exp,2022.2.2,Win32,12.00278465,,,,,,,,,,,,,,,,,,,,,,,,,,,,,,2,1.535,1,,,,,,,,,,,,0,131,5,5,2298,2142,absent_patch/patch0002298.jpg,absent_patch/patch0002142.jpg,,,,,,,,,,,,,,,,,,,,-0.134259259,-0.037037037,1,0,0,response5disk,13,-0.014814815,-0.003703704,1,0,0,center_square,0,12,12,49,1,,,,,,,,,,,,,,,,,,,,,,,
812424,001,2022-11-20_20h57.27.045,Info_measure_main_exp,2022.2.2,Win32,12.00278465,,,,,,,,,,,,,,,,,,masks/mask_003.jpg,,,,,,,,,,,,,,,,,,,,,,,,,,,,,,,,,,,,,,,,,,,0,0,0,2,1,,,,,,,,,,,,,,,,,,,,,,,,,,,,,,,,,,,,,,,,,,,,,,
812424,001,2022-11-20_20h57.27.045,Info_measure_main_exp,2022.2.2,Win32,12.00278465,,,,,,,,,,,,,,,,,,masks/mask_004.jpg,,,,,,,,,,,,,,,,,,,,,,,,,,,,,,,,,,,,,,,,,,,0,1,1,3,1,,,,,,,,,,,,,,,,,,,,,,,,,,,,,,,,,,,,,,,,,,,,,,
812424,001,2022-11-20_20h57.27.045,Info_measure_main_exp,2022.2.2,Win32,12.00278465,,,,,,,,,,,,,,,,,,masks/mask_005.jpg,,,,,,,,,,,,,,,,,,,,,,,,,,,,,,,,,,,,,,,,,,,0,2,2,4,1,,,,,,,,,,,,,,,,,,,,,,,,,,,,,,,,,,,,,,,,,,,,,,
812424,001,2022-11-20_20h57.27.045,Info_measure_main_exp,2022.2.2,Win32,12.00278465,,,,,,,,,,,,,,,,,,masks/mask_001.jpg,,,,,,,,,,,,,,,,,,,,,,,,,,,,,,,,,,,,,,,,,,,0,3,3,0,1,,,,,,,,,,,,,,,,,,,,,,,,,,,,,,,,,,,,,,,,,,,,,,
812424,001,2022-11-20_20h57.27.045,Info_measure_main_exp,2022.2.2,Win32,12.00278465,,,,,,,,,,,,,,,,,,masks/mask_002.jpg,,,,,,,,,,,,,,,,,,,,,,,,,,,,,,,,,,,,,,,,,,,0,4,4,1,1,,,,,,,,,,,,,,,,,,,,,,,,,,,,,,,,,,,,,,,,,,,,,,
812424,001,2022-11-20_20h57.27.045,Info_measure_main_exp,2022.2.2,Win32,12.00278465,,,,,,,,,,,,,,,,,,masks/mask_002.jpg,,,,,,,,,,,,,,,,,,,,,,,,,,,,,,,,,,,,,,,,,,,,,,,,0,0,0,1,1,,,,,,,,,,,,,,,,,,,,,,,,,,,,,,,,,,,,,,,,,
812424,001,2022-11-20_20h57.27.045,Info_measure_main_exp,2022.2.2,Win32,12.00278465,,,,,,,,,,,,,,,,,,masks/mask_003.jpg,,,,,,,,,,,,,,,,,,,,,,,,,,,,,,,,,,,,,,,,,,,,,,,,0,1,1,2,1,,,,,,,,,,,,,,,,,,,,,,,,,,,,,,,,,,,,,,,,,
812424,001,2022-11-20_20h57.27.045,Info_measure_main_exp,2022.2.2,Win32,12.00278465,,,,,,,,,,,,,,,,,,masks/mask_004.jpg,,,,,,,,,,,,,,,,,,,,,,,,,,,,,,,,,,,,,,,,,,,,,,,,0,2,2,3,1,,,,,,,,,,,,,,,,,,,,,,,,,,,,,,,,,,,,,,,,,
812424,001,2022-11-20_20h57.27.045,Info_measure_main_exp,2022.2.2,Win32,12.00278465,,,,,,,,,,,,,,,,,,masks/mask_001.jpg,,,,,,,,,,,,,,,,,,,,,,,,,,,,,,,,,,,,,,,,,,,,,,,,0,3,3,0,1,,,,,,,,,,,,,,,,,,,,,,,,,,,,,,,,,,,,,,,,,
812424,001,2022-11-20_20h57.27.045,Info_measure_main_exp,2022.2.2,Win32,12.00278465,,,,,,,,,,,,,,,,,,masks/mask_005.jpg,,,,,,,,,,,,,,,,,,,,,,,,,,,,,,,,,,,,,,,,,,,,,,,,0,4,4,4,1,,,,,,,,,,,,,,,,,,,,,,,,,,,,,,,,,,,,,,,,,
812424,001,2022-11-20_20h57.27.045,Info_measure_main_exp,2022.2.2,Win32,12.00278465,,,,,,,,,,,,,,,,,,,,,,,,,,,,,,2,0.9324,1,,,,,,,,,,,,0,131,5,5,2274,2142,absent_patch/patch0002274.jpg,absent_patch/patch0002142.jpg,,,,,,,,,,,,,,,,,,,,-0.112037037,-0.028703704,1,0,0,response5disk,14,-0.012962963,0,1,0,0,center_square,0,13,13,75,1,,,,,,,,,,,,,,,,,,,,,,,
812424,001,2022-11-20_20h57.27.045,Info_measure_main_exp,2022.2.2,Win32,12.00278465,,,,,,,,,,,,,,,,,,masks/mask_004.jpg,,,,,,,,,,,,,,,,,,,,,,,,,,,,,,,,,,,,,,,,,,,0,0,0,3,1,,,,,,,,,,,,,,,,,,,,,,,,,,,,,,,,,,,,,,,,,,,,,,
812424,001,2022-11-20_20h57.27.045,Info_measure_main_exp,2022.2.2,Win32,12.00278465,,,,,,,,,,,,,,,,,,masks/mask_002.jpg,,,,,,,,,,,,,,,,,,,,,,,,,,,,,,,,,,,,,,,,,,,0,1,1,1,1,,,,,,,,,,,,,,,,,,,,,,,,,,,,,,,,,,,,,,,,,,,,,,
812424,001,2022-11-20_20h57.27.045,Info_measure_main_exp,2022.2.2,Win32,12.00278465,,,,,,,,,,,,,,,,,,masks/mask_005.jpg,,,,,,,,,,,,,,,,,,,,,,,,,,,,,,,,,,,,,,,,,,,0,2,2,4,1,,,,,,,,,,,,,,,,,,,,,,,,,,,,,,,,,,,,,,,,,,,,,,
812424,001,2022-11-20_20h57.27.045,Info_measure_main_exp,2022.2.2,Win32,12.00278465,,,,,,,,,,,,,,,,,,masks/mask_003.jpg,,,,,,,,,,,,,,,,,,,,,,,,,,,,,,,,,,,,,,,,,,,0,3,3,2,1,,,,,,,,,,,,,,,,,,,,,,,,,,,,,,,,,,,,,,,,,,,,,,
812424,001,2022-11-20_20h57.27.045,Info_measure_main_exp,2022.2.2,Win32,12.00278465,,,,,,,,,,,,,,,,,,masks/mask_001.jpg,,,,,,,,,,,,,,,,,,,,,,,,,,,,,,,,,,,,,,,,,,,0,4,4,0,1,,,,,,,,,,,,,,,,,,,,,,,,,,,,,,,,,,,,,,,,,,,,,,
812424,001,2022-11-20_20h57.27.045,Info_measure_main_exp,2022.2.2,Win32,12.00278465,,,,,,,,,,,,,,,,,,masks/mask_001.jpg,,,,,,,,,,,,,,,,,,,,,,,,,,,,,,,,,,,,,,,,,,,,,,,,0,0,0,0,1,,,,,,,,,,,,,,,,,,,,,,,,,,,,,,,,,,,,,,,,,
812424,001,2022-11-20_20h57.27.045,Info_measure_main_exp,2022.2.2,Win32,12.00278465,,,,,,,,,,,,,,,,,,masks/mask_005.jpg,,,,,,,,,,,,,,,,,,,,,,,,,,,,,,,,,,,,,,,,,,,,,,,,0,1,1,4,1,,,,,,,,,,,,,,,,,,,,,,,,,,,,,,,,,,,,,,,,,
812424,001,2022-11-20_20h57.27.045,Info_measure_main_exp,2022.2.2,Win32,12.00278465,,,,,,,,,,,,,,,,,,masks/mask_004.jpg,,,,,,,,,,,,,,,,,,,,,,,,,,,,,,,,,,,,,,,,,,,,,,,,0,2,2,3,1,,,,,,,,,,,,,,,,,,,,,,,,,,,,,,,,,,,,,,,,,
812424,001,2022-11-20_20h57.27.045,Info_measure_main_exp,2022.2.2,Win32,12.00278465,,,,,,,,,,,,,,,,,,masks/mask_002.jpg,,,,,,,,,,,,,,,,,,,,,,,,,,,,,,,,,,,,,,,,,,,,,,,,0,3,3,1,1,,,,,,,,,,,,,,,,,,,,,,,,,,,,,,,,,,,,,,,,,
812424,001,2022-11-20_20h57.27.045,Info_measure_main_exp,2022.2.2,Win32,12.00278465,,,,,,,,,,,,,,,,,,masks/mask_003.jpg,,,,,,,,,,,,,,,,,,,,,,,,,,,,,,,,,,,,,,,,,,,,,,,,0,4,4,2,1,,,,,,,,,,,,,,,,,,,,,,,,,,,,,,,,,,,,,,,,,
812424,001,2022-11-20_20h57.27.045,Info_measure_main_exp,2022.2.2,Win32,12.00278465,,,,,,,,,,,,,,,,,,,,,,,,,,,,,,5,1.0207,1,,,,,,,,,,,,0,131,5,5,2250,2166,absent_patch/patch0002250.jpg,absent_patch/patch0002166.jpg,,,,,,,,,,,,,,,,,,,,0.119444444,-0.056481481,1,0,0,response3disk,15,-0.011111111,0,1,0,0,center_square,0,14,14,60,1,,,,,,,,,,,,,,,,,,,,,,,
812424,001,2022-11-20_20h57.27.045,Info_measure_main_exp,2022.2.2,Win32,12.00278465,,,,,,,,,,,,,,,,,,masks/mask_001.jpg,,,,,,,,,,,,,,,,,,,,,,,,,,,,,,,,,,,,,,,,,,,0,0,0,0,1,,,,,,,,,,,,,,,,,,,,,,,,,,,,,,,,,,,,,,,,,,,,,,
812424,001,2022-11-20_20h57.27.045,Info_measure_main_exp,2022.2.2,Win32,12.00278465,,,,,,,,,,,,,,,,,,masks/mask_004.jpg,,,,,,,,,,,,,,,,,,,,,,,,,,,,,,,,,,,,,,,,,,,0,1,1,3,1,,,,,,,,,,,,,,,,,,,,,,,,,,,,,,,,,,,,,,,,,,,,,,
812424,001,2022-11-20_20h57.27.045,Info_measure_main_exp,2022.2.2,Win32,12.00278465,,,,,,,,,,,,,,,,,,masks/mask_002.jpg,,,,,,,,,,,,,,,,,,,,,,,,,,,,,,,,,,,,,,,,,,,0,2,2,1,1,,,,,,,,,,,,,,,,,,,,,,,,,,,,,,,,,,,,,,,,,,,,,,
812424,001,2022-11-20_20h57.27.045,Info_measure_main_exp,2022.2.2,Win32,12.00278465,,,,,,,,,,,,,,,,,,masks/mask_005.jpg,,,,,,,,,,,,,,,,,,,,,,,,,,,,,,,,,,,,,,,,,,,0,3,3,4,1,,,,,,,,,,,,,,,,,,,,,,,,,,,,,,,,,,,,,,,,,,,,,,
812424,001,2022-11-20_20h57.27.045,Info_measure_main_exp,2022.2.2,Win32,12.00278465,,,,,,,,,,,,,,,,,,masks/mask_003.jpg,,,,,,,,,,,,,,,,,,,,,,,,,,,,,,,,,,,,,,,,,,,0,4,4,2,1,,,,,,,,,,,,,,,,,,,,,,,,,,,,,,,,,,,,,,,,,,,,,,
812424,001,2022-11-20_20h57.27.045,Info_measure_main_exp,2022.2.2,Win32,12.00278465,,,,,,,,,,,,,,,,,,masks/mask_003.jpg,,,,,,,,,,,,,,,,,,,,,,,,,,,,,,,,,,,,,,,,,,,,,,,,0,0,0,2,1,,,,,,,,,,,,,,,,,,,,,,,,,,,,,,,,,,,,,,,,,
812424,001,2022-11-20_20h57.27.045,Info_measure_main_exp,2022.2.2,Win32,12.00278465,,,,,,,,,,,,,,,,,,masks/mask_002.jpg,,,,,,,,,,,,,,,,,,,,,,,,,,,,,,,,,,,,,,,,,,,,,,,,0,1,1,1,1,,,,,,,,,,,,,,,,,,,,,,,,,,,,,,,,,,,,,,,,,
812424,001,2022-11-20_20h57.27.045,Info_measure_main_exp,2022.2.2,Win32,12.00278465,,,,,,,,,,,,,,,,,,masks/mask_004.jpg,,,,,,,,,,,,,,,,,,,,,,,,,,,,,,,,,,,,,,,,,,,,,,,,0,2,2,3,1,,,,,,,,,,,,,,,,,,,,,,,,,,,,,,,,,,,,,,,,,
812424,001,2022-11-20_20h57.27.045,Info_measure_main_exp,2022.2.2,Win32,12.00278465,,,,,,,,,,,,,,,,,,masks/mask_001.jpg,,,,,,,,,,,,,,,,,,,,,,,,,,,,,,,,,,,,,,,,,,,,,,,,0,3,3,0,1,,,,,,,,,,,,,,,,,,,,,,,,,,,,,,,,,,,,,,,,,
812424,001,2022-11-20_20h57.27.045,Info_measure_main_exp,2022.2.2,Win32,12.00278465,,,,,,,,,,,,,,,,,,masks/mask_005.jpg,,,,,,,,,,,,,,,,,,,,,,,,,,,,,,,,,,,,,,,,,,,,,,,,0,4,4,4,1,,,,,,,,,,,,,,,,,,,,,,,,,,,,,,,,,,,,,,,,,
812424,001,2022-11-20_20h57.27.045,Info_measure_main_exp,2022.2.2,Win32,12.00278465,,,,,,,,,,,,,,,,,,,,,,,,,,,,,,2,1.2335,1,,,,,,,,,,,,0,131,5,5,1950,2238,absent_patch/patch0001950.jpg,absent_patch/patch0002238.jpg,,,,,,,,,,,,,,,,,,,,-0.103703704,-0.035185185,1,0,0,response5disk,16,-0.001851852,-0.001851852,1,0,0,center_square,0,15,15,8,1,,,,,,,,,,,,,,,,,,,,,,,
812424,001,2022-11-20_20h57.27.045,Info_measure_main_exp,2022.2.2,Win32,12.00278465,,,,,,,,,,,,,,,,,,masks/mask_004.jpg,,,,,,,,,,,,,,,,,,,,,,,,,,,,,,,,,,,,,,,,,,,0,0,0,3,1,,,,,,,,,,,,,,,,,,,,,,,,,,,,,,,,,,,,,,,,,,,,,,
812424,001,2022-11-20_20h57.27.045,Info_measure_main_exp,2022.2.2,Win32,12.00278465,,,,,,,,,,,,,,,,,,masks/mask_005.jpg,,,,,,,,,,,,,,,,,,,,,,,,,,,,,,,,,,,,,,,,,,,0,1,1,4,1,,,,,,,,,,,,,,,,,,,,,,,,,,,,,,,,,,,,,,,,,,,,,,
812424,001,2022-11-20_20h57.27.045,Info_measure_main_exp,2022.2.2,Win32,12.00278465,,,,,,,,,,,,,,,,,,masks/mask_003.jpg,,,,,,,,,,,,,,,,,,,,,,,,,,,,,,,,,,,,,,,,,,,0,2,2,2,1,,,,,,,,,,,,,,,,,,,,,,,,,,,,,,,,,,,,,,,,,,,,,,
812424,001,2022-11-20_20h57.27.045,Info_measure_main_exp,2022.2.2,Win32,12.00278465,,,,,,,,,,,,,,,,,,masks/mask_002.jpg,,,,,,,,,,,,,,,,,,,,,,,,,,,,,,,,,,,,,,,,,,,0,3,3,1,1,,,,,,,,,,,,,,,,,,,,,,,,,,,,,,,,,,,,,,,,,,,,,,
812424,001,2022-11-20_20h57.27.045,Info_measure_main_exp,2022.2.2,Win32,12.00278465,,,,,,,,,,,,,,,,,,masks/mask_001.jpg,,,,,,,,,,,,,,,,,,,,,,,,,,,,,,,,,,,,,,,,,,,0,4,4,0,1,,,,,,,,,,,,,,,,,,,,,,,,,,,,,,,,,,,,,,,,,,,,,,
812424,001,2022-11-20_20h57.27.045,Info_measure_main_exp,2022.2.2,Win32,12.00278465,,,,,,,,,,,,,,,,,,masks/mask_005.jpg,,,,,,,,,,,,,,,,,,,,,,,,,,,,,,,,,,,,,,,,,,,,,,,,0,0,0,4,1,,,,,,,,,,,,,,,,,,,,,,,,,,,,,,,,,,,,,,,,,
812424,001,2022-11-20_20h57.27.045,Info_measure_main_exp,2022.2.2,Win32,12.00278465,,,,,,,,,,,,,,,,,,masks/mask_004.jpg,,,,,,,,,,,,,,,,,,,,,,,,,,,,,,,,,,,,,,,,,,,,,,,,0,1,1,3,1,,,,,,,,,,,,,,,,,,,,,,,,,,,,,,,,,,,,,,,,,
812424,001,2022-11-20_20h57.27.045,Info_measure_main_exp,2022.2.2,Win32,12.00278465,,,,,,,,,,,,,,,,,,masks/mask_003.jpg,,,,,,,,,,,,,,,,,,,,,,,,,,,,,,,,,,,,,,,,,,,,,,,,0,2,2,2,1,,,,,,,,,,,,,,,,,,,,,,,,,,,,,,,,,,,,,,,,,
812424,001,2022-11-20_20h57.27.045,Info_measure_main_exp,2022.2.2,Win32,12.00278465,,,,,,,,,,,,,,,,,,masks/mask_002.jpg,,,,,,,,,,,,,,,,,,,,,,,,,,,,,,,,,,,,,,,,,,,,,,,,0,3,3,1,1,,,,,,,,,,,,,,,,,,,,,,,,,,,,,,,,,,,,,,,,,
812424,001,2022-11-20_20h57.27.045,Info_measure_main_exp,2022.2.2,Win32,12.00278465,,,,,,,,,,,,,,,,,,masks/mask_001.jpg,,,,,,,,,,,,,,,,,,,,,,,,,,,,,,,,,,,,,,,,,,,,,,,,0,4,4,0,1,,,,,,,,,,,,,,,,,,,,,,,,,,,,,,,,,,,,,,,,,
812424,001,2022-11-20_20h57.27.045,Info_measure_main_exp,2022.2.2,Win32,12.00278465,,,,,,,,,,,,,,,,,,,,,,,,,,,,,,4,1.1154,1,,,,,,,,,,,,0,131,5,5,1950,2166,absent_patch/patch0001950.jpg,absent_patch/patch0002166.jpg,,,,,,,,,,,,,,,,,,,,0.018518519,-0.085185185,1,0,0,response3disk,17,-0.014814815,0.00462963,1,0,0,center_square,0,16,16,0,1,,,,,,,,,,,,,,,,,,,,,,,
812424,001,2022-11-20_20h57.27.045,Info_measure_main_exp,2022.2.2,Win32,12.00278465,,,,,,,,,,,,,,,,,,masks/mask_005.jpg,,,,,,,,,,,,,,,,,,,,,,,,,,,,,,,,,,,,,,,,,,,0,0,0,4,1,,,,,,,,,,,,,,,,,,,,,,,,,,,,,,,,,,,,,,,,,,,,,,
812424,001,2022-11-20_20h57.27.045,Info_measure_main_exp,2022.2.2,Win32,12.00278465,,,,,,,,,,,,,,,,,,masks/mask_004.jpg,,,,,,,,,,,,,,,,,,,,,,,,,,,,,,,,,,,,,,,,,,,0,1,1,3,1,,,,,,,,,,,,,,,,,,,,,,,,,,,,,,,,,,,,,,,,,,,,,,
812424,001,2022-11-20_20h57.27.045,Info_measure_main_exp,2022.2.2,Win32,12.00278465,,,,,,,,,,,,,,,,,,masks/mask_001.jpg,,,,,,,,,,,,,,,,,,,,,,,,,,,,,,,,,,,,,,,,,,,0,2,2,0,1,,,,,,,,,,,,,,,,,,,,,,,,,,,,,,,,,,,,,,,,,,,,,,
812424,001,2022-11-20_20h57.27.045,Info_measure_main_exp,2022.2.2,Win32,12.00278465,,,,,,,,,,,,,,,,,,masks/mask_003.jpg,,,,,,,,,,,,,,,,,,,,,,,,,,,,,,,,,,,,,,,,,,,0,3,3,2,1,,,,,,,,,,,,,,,,,,,,,,,,,,,,,,,,,,,,,,,,,,,,,,
812424,001,2022-11-20_20h57.27.045,Info_measure_main_exp,2022.2.2,Win32,12.00278465,,,,,,,,,,,,,,,,,,masks/mask_002.jpg,,,,,,,,,,,,,,,,,,,,,,,,,,,,,,,,,,,,,,,,,,,0,4,4,1,1,,,,,,,,,,,,,,,,,,,,,,,,,,,,,,,,,,,,,,,,,,,,,,
812424,001,2022-11-20_20h57.27.045,Info_measure_main_exp,2022.2.2,Win32,12.00278465,,,,,,,,,,,,,,,,,,masks/mask_002.jpg,,,,,,,,,,,,,,,,,,,,,,,,,,,,,,,,,,,,,,,,,,,,,,,,0,0,0,1,1,,,,,,,,,,,,,,,,,,,,,,,,,,,,,,,,,,,,,,,,,
812424,001,2022-11-20_20h57.27.045,Info_measure_main_exp,2022.2.2,Win32,12.00278465,,,,,,,,,,,,,,,,,,masks/mask_001.jpg,,,,,,,,,,,,,,,,,,,,,,,,,,,,,,,,,,,,,,,,,,,,,,,,0,1,1,0,1,,,,,,,,,,,,,,,,,,,,,,,,,,,,,,,,,,,,,,,,,
812424,001,2022-11-20_20h57.27.045,Info_measure_main_exp,2022.2.2,Win32,12.00278465,,,,,,,,,,,,,,,,,,masks/mask_005.jpg,,,,,,,,,,,,,,,,,,,,,,,,,,,,,,,,,,,,,,,,,,,,,,,,0,2,2,4,1,,,,,,,,,,,,,,,,,,,,,,,,,,,,,,,,,,,,,,,,,
812424,001,2022-11-20_20h57.27.045,Info_measure_main_exp,2022.2.2,Win32,12.00278465,,,,,,,,,,,,,,,,,,masks/mask_004.jpg,,,,,,,,,,,,,,,,,,,,,,,,,,,,,,,,,,,,,,,,,,,,,,,,0,3,3,3,1,,,,,,,,,,,,,,,,,,,,,,,,,,,,,,,,,,,,,,,,,
812424,001,2022-11-20_20h57.27.045,Info_measure_main_exp,2022.2.2,Win32,12.00278465,,,,,,,,,,,,,,,,,,masks/mask_003.jpg,,,,,,,,,,,,,,,,,,,,,,,,,,,,,,,,,,,,,,,,,,,,,,,,0,4,4,2,1,,,,,,,,,,,,,,,,,,,,,,,,,,,,,,,,,,,,,,,,,
812424,001,2022-11-20_20h57.27.045,Info_measure_main_exp,2022.2.2,Win32,12.00278465,,,,,,,,,,,,,,,,,,,,,,,,,,,,,,5,1.3428,1,,,,,,,,,,,,1,131,5,5,1,2166,present_patch/cong_131_5_a.jpg,absent_patch/patch0002166.jpg,,,,,,,,,,,,,,,,,,,,0.071296296,-0.031481481,1,0,0,response3disk,18,-0.005555556,0.001851852,1,0,0,center_square,0,17,17,54,1,,,,,,,,,,,,,,,,,,,,,,,
812424,001,2022-11-20_20h57.27.045,Info_measure_main_exp,2022.2.2,Win32,12.00278465,,,,,,,,,,,,,,,,,,masks/mask_001.jpg,,,,,,,,,,,,,,,,,,,,,,,,,,,,,,,,,,,,,,,,,,,0,0,0,0,1,,,,,,,,,,,,,,,,,,,,,,,,,,,,,,,,,,,,,,,,,,,,,,
812424,001,2022-11-20_20h57.27.045,Info_measure_main_exp,2022.2.2,Win32,12.00278465,,,,,,,,,,,,,,,,,,masks/mask_004.jpg,,,,,,,,,,,,,,,,,,,,,,,,,,,,,,,,,,,,,,,,,,,0,1,1,3,1,,,,,,,,,,,,,,,,,,,,,,,,,,,,,,,,,,,,,,,,,,,,,,
812424,001,2022-11-20_20h57.27.045,Info_measure_main_exp,2022.2.2,Win32,12.00278465,,,,,,,,,,,,,,,,,,masks/mask_005.jpg,,,,,,,,,,,,,,,,,,,,,,,,,,,,,,,,,,,,,,,,,,,0,2,2,4,1,,,,,,,,,,,,,,,,,,,,,,,,,,,,,,,,,,,,,,,,,,,,,,
812424,001,2022-11-20_20h57.27.045,Info_measure_main_exp,2022.2.2,Win32,12.00278465,,,,,,,,,,,,,,,,,,masks/mask_003.jpg,,,,,,,,,,,,,,,,,,,,,,,,,,,,,,,,,,,,,,,,,,,0,3,3,2,1,,,,,,,,,,,,,,,,,,,,,,,,,,,,,,,,,,,,,,,,,,,,,,
812424,001,2022-11-20_20h57.27.045,Info_measure_main_exp,2022.2.2,Win32,12.00278465,,,,,,,,,,,,,,,,,,masks/mask_002.jpg,,,,,,,,,,,,,,,,,,,,,,,,,,,,,,,,,,,,,,,,,,,0,4,4,1,1,,,,,,,,,,,,,,,,,,,,,,,,,,,,,,,,,,,,,,,,,,,,,,
812424,001,2022-11-20_20h57.27.045,Info_measure_main_exp,2022.2.2,Win32,12.00278465,,,,,,,,,,,,,,,,,,masks/mask_005.jpg,,,,,,,,,,,,,,,,,,,,,,,,,,,,,,,,,,,,,,,,,,,,,,,,0,0,0,4,1,,,,,,,,,,,,,,,,,,,,,,,,,,,,,,,,,,,,,,,,,
812424,001,2022-11-20_20h57.27.045,Info_measure_main_exp,2022.2.2,Win32,12.00278465,,,,,,,,,,,,,,,,,,masks/mask_003.jpg,,,,,,,,,,,,,,,,,,,,,,,,,,,,,,,,,,,,,,,,,,,,,,,,0,1,1,2,1,,,,,,,,,,,,,,,,,,,,,,,,,,,,,,,,,,,,,,,,,
812424,001,2022-11-20_20h57.27.045,Info_measure_main_exp,2022.2.2,Win32,12.00278465,,,,,,,,,,,,,,,,,,masks/mask_002.jpg,,,,,,,,,,,,,,,,,,,,,,,,,,,,,,,,,,,,,,,,,,,,,,,,0,2,2,1,1,,,,,,,,,,,,,,,,,,,,,,,,,,,,,,,,,,,,,,,,,
812424,001,2022-11-20_20h57.27.045,Info_measure_main_exp,2022.2.2,Win32,12.00278465,,,,,,,,,,,,,,,,,,masks/mask_001.jpg,,,,,,,,,,,,,,,,,,,,,,,,,,,,,,,,,,,,,,,,,,,,,,,,0,3,3,0,1,,,,,,,,,,,,,,,,,,,,,,,,,,,,,,,,,,,,,,,,,
812424,001,2022-11-20_20h57.27.045,Info_measure_main_exp,2022.2.2,Win32,12.00278465,,,,,,,,,,,,,,,,,,masks/mask_004.jpg,,,,,,,,,,,,,,,,,,,,,,,,,,,,,,,,,,,,,,,,,,,,,,,,0,4,4,3,1,,,,,,,,,,,,,,,,,,,,,,,,,,,,,,,,,,,,,,,,,
812424,001,2022-11-20_20h57.27.045,Info_measure_main_exp,2022.2.2,Win32,12.00278465,,,,,,,,,,,,,,,,,,,,,,,,,,,,,,6,2.483,1,,,,,,,,,,,,0,131,5,5,2082,2154,absent_patch/patch0002082.jpg,absent_patch/patch0002154.jpg,,,,,,,,,,,,,,,,,,,,0.114814815,0.042592593,1,0,0,response1disk,19,-0.011111111,0.003703704,1,0,0,center_square,0,18,18,33,1,,,,,,,,,,,,,,,,,,,,,,,
812424,001,2022-11-20_20h57.27.045,Info_measure_main_exp,2022.2.2,Win32,12.00278465,,,,,,,,,,,,,,,,,,masks/mask_001.jpg,,,,,,,,,,,,,,,,,,,,,,,,,,,,,,,,,,,,,,,,,,,0,0,0,0,1,,,,,,,,,,,,,,,,,,,,,,,,,,,,,,,,,,,,,,,,,,,,,,
812424,001,2022-11-20_20h57.27.045,Info_measure_main_exp,2022.2.2,Win32,12.00278465,,,,,,,,,,,,,,,,,,masks/mask_002.jpg,,,,,,,,,,,,,,,,,,,,,,,,,,,,,,,,,,,,,,,,,,,0,1,1,1,1,,,,,,,,,,,,,,,,,,,,,,,,,,,,,,,,,,,,,,,,,,,,,,
812424,001,2022-11-20_20h57.27.045,Info_measure_main_exp,2022.2.2,Win32,12.00278465,,,,,,,,,,,,,,,,,,masks/mask_004.jpg,,,,,,,,,,,,,,,,,,,,,,,,,,,,,,,,,,,,,,,,,,,0,2,2,3,1,,,,,,,,,,,,,,,,,,,,,,,,,,,,,,,,,,,,,,,,,,,,,,
812424,001,2022-11-20_20h57.27.045,Info_measure_main_exp,2022.2.2,Win32,12.00278465,,,,,,,,,,,,,,,,,,masks/mask_005.jpg,,,,,,,,,,,,,,,,,,,,,,,,,,,,,,,,,,,,,,,,,,,0,3,3,4,1,,,,,,,,,,,,,,,,,,,,,,,,,,,,,,,,,,,,,,,,,,,,,,
812424,001,2022-11-20_20h57.27.045,Info_measure_main_exp,2022.2.2,Win32,12.00278465,,,,,,,,,,,,,,,,,,masks/mask_003.jpg,,,,,,,,,,,,,,,,,,,,,,,,,,,,,,,,,,,,,,,,,,,0,4,4,2,1,,,,,,,,,,,,,,,,,,,,,,,,,,,,,,,,,,,,,,,,,,,,,,
812424,001,2022-11-20_20h57.27.045,Info_measure_main_exp,2022.2.2,Win32,12.00278465,,,,,,,,,,,,,,,,,,masks/mask_005.jpg,,,,,,,,,,,,,,,,,,,,,,,,,,,,,,,,,,,,,,,,,,,,,,,,0,0,0,4,1,,,,,,,,,,,,,,,,,,,,,,,,,,,,,,,,,,,,,,,,,
812424,001,2022-11-20_20h57.27.045,Info_measure_main_exp,2022.2.2,Win32,12.00278465,,,,,,,,,,,,,,,,,,masks/mask_001.jpg,,,,,,,,,,,,,,,,,,,,,,,,,,,,,,,,,,,,,,,,,,,,,,,,0,1,1,0,1,,,,,,,,,,,,,,,,,,,,,,,,,,,,,,,,,,,,,,,,,
812424,001,2022-11-20_20h57.27.045,Info_measure_main_exp,2022.2.2,Win32,12.00278465,,,,,,,,,,,,,,,,,,masks/mask_004.jpg,,,,,,,,,,,,,,,,,,,,,,,,,,,,,,,,,,,,,,,,,,,,,,,,0,2,2,3,1,,,,,,,,,,,,,,,,,,,,,,,,,,,,,,,,,,,,,,,,,
812424,001,2022-11-20_20h57.27.045,Info_measure_main_exp,2022.2.2,Win32,12.00278465,,,,,,,,,,,,,,,,,,masks/mask_003.jpg,,,,,,,,,,,,,,,,,,,,,,,,,,,,,,,,,,,,,,,,,,,,,,,,0,3,3,2,1,,,,,,,,,,,,,,,,,,,,,,,,,,,,,,,,,,,,,,,,,
812424,001,2022-11-20_20h57.27.045,Info_measure_main_exp,2022.2.2,Win32,12.00278465,,,,,,,,,,,,,,,,,,masks/mask_002.jpg,,,,,,,,,,,,,,,,,,,,,,,,,,,,,,,,,,,,,,,,,,,,,,,,0,4,4,1,1,,,,,,,,,,,,,,,,,,,,,,,,,,,,,,,,,,,,,,,,,
812424,001,2022-11-20_20h57.27.045,Info_measure_main_exp,2022.2.2,Win32,12.00278465,,,,,,,,,,,,,,,,,,,,,,,,,,,,,,3,5.6948,1,,,,,,,,,,,,0,131,5,5,2214,2214,absent_patch/patch0002214.jpg,absent_patch/patch0002214.jpg,,,,,,,,,,,,,,,,,,,,-0.037962963,-0.077777778,1,0,0,response5disk,20,0.006481481,0.001851852,1,0,0,center_square,0,19,19,115,1,,,,,,,,,,,,,,,,,,,,,,,
812424,001,2022-11-20_20h57.27.045,Info_measure_main_exp,2022.2.2,Win32,12.00278465,,,,,,,,,,,,,,,,,,masks/mask_003.jpg,,,,,,,,,,,,,,,,,,,,,,,,,,,,,,,,,,,,,,,,,,,0,0,0,2,1,,,,,,,,,,,,,,,,,,,,,,,,,,,,,,,,,,,,,,,,,,,,,,
812424,001,2022-11-20_20h57.27.045,Info_measure_main_exp,2022.2.2,Win32,12.00278465,,,,,,,,,,,,,,,,,,masks/mask_004.jpg,,,,,,,,,,,,,,,,,,,,,,,,,,,,,,,,,,,,,,,,,,,0,1,1,3,1,,,,,,,,,,,,,,,,,,,,,,,,,,,,,,,,,,,,,,,,,,,,,,
812424,001,2022-11-20_20h57.27.045,Info_measure_main_exp,2022.2.2,Win32,12.00278465,,,,,,,,,,,,,,,,,,masks/mask_002.jpg,,,,,,,,,,,,,,,,,,,,,,,,,,,,,,,,,,,,,,,,,,,0,2,2,1,1,,,,,,,,,,,,,,,,,,,,,,,,,,,,,,,,,,,,,,,,,,,,,,
812424,001,2022-11-20_20h57.27.045,Info_measure_main_exp,2022.2.2,Win32,12.00278465,,,,,,,,,,,,,,,,,,masks/mask_001.jpg,,,,,,,,,,,,,,,,,,,,,,,,,,,,,,,,,,,,,,,,,,,0,3,3,0,1,,,,,,,,,,,,,,,,,,,,,,,,,,,,,,,,,,,,,,,,,,,,,,
812424,001,2022-11-20_20h57.27.045,Info_measure_main_exp,2022.2.2,Win32,12.00278465,,,,,,,,,,,,,,,,,,masks/mask_005.jpg,,,,,,,,,,,,,,,,,,,,,,,,,,,,,,,,,,,,,,,,,,,0,4,4,4,1,,,,,,,,,,,,,,,,,,,,,,,,,,,,,,,,,,,,,,,,,,,,,,
812424,001,2022-11-20_20h57.27.045,Info_measure_main_exp,2022.2.2,Win32,12.00278465,,,,,,,,,,,,,,,,,,masks/mask_003.jpg,,,,,,,,,,,,,,,,,,,,,,,,,,,,,,,,,,,,,,,,,,,,,,,,0,0,0,2,1,,,,,,,,,,,,,,,,,,,,,,,,,,,,,,,,,,,,,,,,,
812424,001,2022-11-20_20h57.27.045,Info_measure_main_exp,2022.2.2,Win32,12.00278465,,,,,,,,,,,,,,,,,,masks/mask_005.jpg,,,,,,,,,,,,,,,,,,,,,,,,,,,,,,,,,,,,,,,,,,,,,,,,0,1,1,4,1,,,,,,,,,,,,,,,,,,,,,,,,,,,,,,,,,,,,,,,,,
812424,001,2022-11-20_20h57.27.045,Info_measure_main_exp,2022.2.2,Win32,12.00278465,,,,,,,,,,,,,,,,,,masks/mask_004.jpg,,,,,,,,,,,,,,,,,,,,,,,,,,,,,,,,,,,,,,,,,,,,,,,,0,2,2,3,1,,,,,,,,,,,,,,,,,,,,,,,,,,,,,,,,,,,,,,,,,
812424,001,2022-11-20_20h57.27.045,Info_measure_main_exp,2022.2.2,Win32,12.00278465,,,,,,,,,,,,,,,,,,masks/mask_002.jpg,,,,,,,,,,,,,,,,,,,,,,,,,,,,,,,,,,,,,,,,,,,,,,,,0,3,3,1,1,,,,,,,,,,,,,,,,,,,,,,,,,,,,,,,,,,,,,,,,,
812424,001,2022-11-20_20h57.27.045,Info_measure_main_exp,2022.2.2,Win32,12.00278465,,,,,,,,,,,,,,,,,,masks/mask_001.jpg,,,,,,,,,,,,,,,,,,,,,,,,,,,,,,,,,,,,,,,,,,,,,,,,0,4,4,0,1,,,,,,,,,,,,,,,,,,,,,,,,,,,,,,,,,,,,,,,,,
812424,001,2022-11-20_20h57.27.045,Info_measure_main_exp,2022.2.2,Win32,12.00278465,,,,,,,,,,,,,,,,,,,,,,,,,,,,,,7,1.6447,1,,,,,,,,,,,,0,131,5,5,2166,2154,absent_patch/patch0002166.jpg,absent_patch/patch0002154.jpg,,,,,,,,,,,,,,,,,,,,0.071296296,0.142592593,1,0,0,response1disk,21,0.007407407,0.003703704,1,0,0,center_square,0,20,20,79,1,,,,,,,,,,,,,,,,,,,,,,,
812424,001,2022-11-20_20h57.27.045,Info_measure_main_exp,2022.2.2,Win32,12.00278465,,,,,,,,,,,,,,,,,,masks/mask_003.jpg,,,,,,,,,,,,,,,,,,,,,,,,,,,,,,,,,,,,,,,,,,,0,0,0,2,1,,,,,,,,,,,,,,,,,,,,,,,,,,,,,,,,,,,,,,,,,,,,,,
812424,001,2022-11-20_20h57.27.045,Info_measure_main_exp,2022.2.2,Win32,12.00278465,,,,,,,,,,,,,,,,,,masks/mask_002.jpg,,,,,,,,,,,,,,,,,,,,,,,,,,,,,,,,,,,,,,,,,,,0,1,1,1,1,,,,,,,,,,,,,,,,,,,,,,,,,,,,,,,,,,,,,,,,,,,,,,
812424,001,2022-11-20_20h57.27.045,Info_measure_main_exp,2022.2.2,Win32,12.00278465,,,,,,,,,,,,,,,,,,masks/mask_004.jpg,,,,,,,,,,,,,,,,,,,,,,,,,,,,,,,,,,,,,,,,,,,0,2,2,3,1,,,,,,,,,,,,,,,,,,,,,,,,,,,,,,,,,,,,,,,,,,,,,,
812424,001,2022-11-20_20h57.27.045,Info_measure_main_exp,2022.2.2,Win32,12.00278465,,,,,,,,,,,,,,,,,,masks/mask_001.jpg,,,,,,,,,,,,,,,,,,,,,,,,,,,,,,,,,,,,,,,,,,,0,3,3,0,1,,,,,,,,,,,,,,,,,,,,,,,,,,,,,,,,,,,,,,,,,,,,,,
812424,001,2022-11-20_20h57.27.045,Info_measure_main_exp,2022.2.2,Win32,12.00278465,,,,,,,,,,,,,,,,,,masks/mask_005.jpg,,,,,,,,,,,,,,,,,,,,,,,,,,,,,,,,,,,,,,,,,,,0,4,4,4,1,,,,,,,,,,,,,,,,,,,,,,,,,,,,,,,,,,,,,,,,,,,,,,
812424,001,2022-11-20_20h57.27.045,Info_measure_main_exp,2022.2.2,Win32,12.00278465,,,,,,,,,,,,,,,,,,masks/mask_001.jpg,,,,,,,,,,,,,,,,,,,,,,,,,,,,,,,,,,,,,,,,,,,,,,,,0,0,0,0,1,,,,,,,,,,,,,,,,,,,,,,,,,,,,,,,,,,,,,,,,,
812424,001,2022-11-20_20h57.27.045,Info_measure_main_exp,2022.2.2,Win32,12.00278465,,,,,,,,,,,,,,,,,,masks/mask_003.jpg,,,,,,,,,,,,,,,,,,,,,,,,,,,,,,,,,,,,,,,,,,,,,,,,0,1,1,2,1,,,,,,,,,,,,,,,,,,,,,,,,,,,,,,,,,,,,,,,,,
812424,001,2022-11-20_20h57.27.045,Info_measure_main_exp,2022.2.2,Win32,12.00278465,,,,,,,,,,,,,,,,,,masks/mask_004.jpg,,,,,,,,,,,,,,,,,,,,,,,,,,,,,,,,,,,,,,,,,,,,,,,,0,2,2,3,1,,,,,,,,,,,,,,,,,,,,,,,,,,,,,,,,,,,,,,,,,
812424,001,2022-11-20_20h57.27.045,Info_measure_main_exp,2022.2.2,Win32,12.00278465,,,,,,,,,,,,,,,,,,masks/mask_005.jpg,,,,,,,,,,,,,,,,,,,,,,,,,,,,,,,,,,,,,,,,,,,,,,,,0,3,3,4,1,,,,,,,,,,,,,,,,,,,,,,,,,,,,,,,,,,,,,,,,,
812424,001,2022-11-20_20h57.27.045,Info_measure_main_exp,2022.2.2,Win32,12.00278465,,,,,,,,,,,,,,,,,,masks/mask_002.jpg,,,,,,,,,,,,,,,,,,,,,,,,,,,,,,,,,,,,,,,,,,,,,,,,0,4,4,1,1,,,,,,,,,,,,,,,,,,,,,,,,,,,,,,,,,,,,,,,,,
812424,001,2022-11-20_20h57.27.045,Info_measure_main_exp,2022.2.2,Win32,12.00278465,,,,,,,,,,,,,,,,,,,,,,,,,,,,,,0,1.0398,1,,,,,,,,,,,,0,131,5,5,2082,1986,absent_patch/patch0002082.jpg,absent_patch/patch0001986.jpg,,,,,,,,,,,,,,,,,,,,-0.009259259,0.153703704,1,0,0,response7disk,22,-0.001851852,-0.011111111,1,0,0,center_square,0,21,21,94,1,,,,,,,,,,,,,,,,,,,,,,,
812424,001,2022-11-20_20h57.27.045,Info_measure_main_exp,2022.2.2,Win32,12.00278465,,,,,,,,,,,,,,,,,,masks/mask_001.jpg,,,,,,,,,,,,,,,,,,,,,,,,,,,,,,,,,,,,,,,,,,,0,0,0,0,1,,,,,,,,,,,,,,,,,,,,,,,,,,,,,,,,,,,,,,,,,,,,,,
812424,001,2022-11-20_20h57.27.045,Info_measure_main_exp,2022.2.2,Win32,12.00278465,,,,,,,,,,,,,,,,,,masks/mask_004.jpg,,,,,,,,,,,,,,,,,,,,,,,,,,,,,,,,,,,,,,,,,,,0,1,1,3,1,,,,,,,,,,,,,,,,,,,,,,,,,,,,,,,,,,,,,,,,,,,,,,
812424,001,2022-11-20_20h57.27.045,Info_measure_main_exp,2022.2.2,Win32,12.00278465,,,,,,,,,,,,,,,,,,masks/mask_002.jpg,,,,,,,,,,,,,,,,,,,,,,,,,,,,,,,,,,,,,,,,,,,0,2,2,1,1,,,,,,,,,,,,,,,,,,,,,,,,,,,,,,,,,,,,,,,,,,,,,,
812424,001,2022-11-20_20h57.27.045,Info_measure_main_exp,2022.2.2,Win32,12.00278465,,,,,,,,,,,,,,,,,,masks/mask_003.jpg,,,,,,,,,,,,,,,,,,,,,,,,,,,,,,,,,,,,,,,,,,,0,3,3,2,1,,,,,,,,,,,,,,,,,,,,,,,,,,,,,,,,,,,,,,,,,,,,,,
812424,001,2022-11-20_20h57.27.045,Info_measure_main_exp,2022.2.2,Win32,12.00278465,,,,,,,,,,,,,,,,,,masks/mask_005.jpg,,,,,,,,,,,,,,,,,,,,,,,,,,,,,,,,,,,,,,,,,,,0,4,4,4,1,,,,,,,,,,,,,,,,,,,,,,,,,,,,,,,,,,,,,,,,,,,,,,
812424,001,2022-11-20_20h57.27.045,Info_measure_main_exp,2022.2.2,Win32,12.00278465,,,,,,,,,,,,,,,,,,masks/mask_003.jpg,,,,,,,,,,,,,,,,,,,,,,,,,,,,,,,,,,,,,,,,,,,,,,,,0,0,0,2,1,,,,,,,,,,,,,,,,,,,,,,,,,,,,,,,,,,,,,,,,,
812424,001,2022-11-20_20h57.27.045,Info_measure_main_exp,2022.2.2,Win32,12.00278465,,,,,,,,,,,,,,,,,,masks/mask_001.jpg,,,,,,,,,,,,,,,,,,,,,,,,,,,,,,,,,,,,,,,,,,,,,,,,0,1,1,0,1,,,,,,,,,,,,,,,,,,,,,,,,,,,,,,,,,,,,,,,,,
812424,001,2022-11-20_20h57.27.045,Info_measure_main_exp,2022.2.2,Win32,12.00278465,,,,,,,,,,,,,,,,,,masks/mask_004.jpg,,,,,,,,,,,,,,,,,,,,,,,,,,,,,,,,,,,,,,,,,,,,,,,,0,2,2,3,1,,,,,,,,,,,,,,,,,,,,,,,,,,,,,,,,,,,,,,,,,
812424,001,2022-11-20_20h57.27.045,Info_measure_main_exp,2022.2.2,Win32,12.00278465,,,,,,,,,,,,,,,,,,masks/mask_005.jpg,,,,,,,,,,,,,,,,,,,,,,,,,,,,,,,,,,,,,,,,,,,,,,,,0,3,3,4,1,,,,,,,,,,,,,,,,,,,,,,,,,,,,,,,,,,,,,,,,,
812424,001,2022-11-20_20h57.27.045,Info_measure_main_exp,2022.2.2,Win32,12.00278465,,,,,,,,,,,,,,,,,,masks/mask_002.jpg,,,,,,,,,,,,,,,,,,,,,,,,,,,,,,,,,,,,,,,,,,,,,,,,0,4,4,1,1,,,,,,,,,,,,,,,,,,,,,,,,,,,,,,,,,,,,,,,,,
812424,001,2022-11-20_20h57.27.045,Info_measure_main_exp,2022.2.2,Win32,12.00278465,,,,,,,,,,,,,,,,,,,,,,,,,,,,,,7,0.9335,1,,,,,,,,,,,,0,131,5,5,2154,2298,absent_patch/patch0002154.jpg,absent_patch/patch0002298.jpg,,,,,,,,,,,,,,,,,,,,0.047222222,0.093518519,1,0,0,response1disk,23,-0.010185185,-0.001851852,1,0,0,center_square,0,22,22,27,1,,,,,,,,,,,,,,,,,,,,,,,
812424,001,2022-11-20_20h57.27.045,Info_measure_main_exp,2022.2.2,Win32,12.00278465,,,,,,,,,,,,,,,,,,masks/mask_004.jpg,,,,,,,,,,,,,,,,,,,,,,,,,,,,,,,,,,,,,,,,,,,0,0,0,3,1,,,,,,,,,,,,,,,,,,,,,,,,,,,,,,,,,,,,,,,,,,,,,,
812424,001,2022-11-20_20h57.27.045,Info_measure_main_exp,2022.2.2,Win32,12.00278465,,,,,,,,,,,,,,,,,,masks/mask_003.jpg,,,,,,,,,,,,,,,,,,,,,,,,,,,,,,,,,,,,,,,,,,,0,1,1,2,1,,,,,,,,,,,,,,,,,,,,,,,,,,,,,,,,,,,,,,,,,,,,,,
812424,001,2022-11-20_20h57.27.045,Info_measure_main_exp,2022.2.2,Win32,12.00278465,,,,,,,,,,,,,,,,,,masks/mask_001.jpg,,,,,,,,,,,,,,,,,,,,,,,,,,,,,,,,,,,,,,,,,,,0,2,2,0,1,,,,,,,,,,,,,,,,,,,,,,,,,,,,,,,,,,,,,,,,,,,,,,
812424,001,2022-11-20_20h57.27.045,Info_measure_main_exp,2022.2.2,Win32,12.00278465,,,,,,,,,,,,,,,,,,masks/mask_002.jpg,,,,,,,,,,,,,,,,,,,,,,,,,,,,,,,,,,,,,,,,,,,0,3,3,1,1,,,,,,,,,,,,,,,,,,,,,,,,,,,,,,,,,,,,,,,,,,,,,,
812424,001,2022-11-20_20h57.27.045,Info_measure_main_exp,2022.2.2,Win32,12.00278465,,,,,,,,,,,,,,,,,,masks/mask_005.jpg,,,,,,,,,,,,,,,,,,,,,,,,,,,,,,,,,,,,,,,,,,,0,4,4,4,1,,,,,,,,,,,,,,,,,,,,,,,,,,,,,,,,,,,,,,,,,,,,,,
812424,001,2022-11-20_20h57.27.045,Info_measure_main_exp,2022.2.2,Win32,12.00278465,,,,,,,,,,,,,,,,,,masks/mask_003.jpg,,,,,,,,,,,,,,,,,,,,,,,,,,,,,,,,,,,,,,,,,,,,,,,,0,0,0,2,1,,,,,,,,,,,,,,,,,,,,,,,,,,,,,,,,,,,,,,,,,
812424,001,2022-11-20_20h57.27.045,Info_measure_main_exp,2022.2.2,Win32,12.00278465,,,,,,,,,,,,,,,,,,masks/mask_001.jpg,,,,,,,,,,,,,,,,,,,,,,,,,,,,,,,,,,,,,,,,,,,,,,,,0,1,1,0,1,,,,,,,,,,,,,,,,,,,,,,,,,,,,,,,,,,,,,,,,,
812424,001,2022-11-20_20h57.27.045,Info_measure_main_exp,2022.2.2,Win32,12.00278465,,,,,,,,,,,,,,,,,,masks/mask_004.jpg,,,,,,,,,,,,,,,,,,,,,,,,,,,,,,,,,,,,,,,,,,,,,,,,0,2,2,3,1,,,,,,,,,,,,,,,,,,,,,,,,,,,,,,,,,,,,,,,,,
812424,001,2022-11-20_20h57.27.045,Info_measure_main_exp,2022.2.2,Win32,12.00278465,,,,,,,,,,,,,,,,,,masks/mask_002.jpg,,,,,,,,,,,,,,,,,,,,,,,,,,,,,,,,,,,,,,,,,,,,,,,,0,3,3,1,1,,,,,,,,,,,,,,,,,,,,,,,,,,,,,,,,,,,,,,,,,
812424,001,2022-11-20_20h57.27.045,Info_measure_main_exp,2022.2.2,Win32,12.00278465,,,,,,,,,,,,,,,,,,masks/mask_005.jpg,,,,,,,,,,,,,,,,,,,,,,,,,,,,,,,,,,,,,,,,,,,,,,,,0,4,4,4,1,,,,,,,,,,,,,,,,,,,,,,,,,,,,,,,,,,,,,,,,,
812424,001,2022-11-20_20h57.27.045,Info_measure_main_exp,2022.2.2,Win32,12.00278465,,,,,,,,,,,,,,,,,,,,,,,,,,,,,,7,0.9342,1,,,,,,,,,,,,0,131,5,5,2250,1986,absent_patch/patch0002250.jpg,absent_patch/patch0001986.jpg,,,,,,,,,,,,,,,,,,,,0.037962963,0.106481481,1,0,0,response1disk,24,0.001851852,-0.005555556,1,0,0,center_square,0,23,23,29,1,,,,,,,,,,,,,,,,,,,,,,,
812424,001,2022-11-20_20h57.27.045,Info_measure_main_exp,2022.2.2,Win32,12.00278465,,,,,,,,,,,,,,,,,,masks/mask_002.jpg,,,,,,,,,,,,,,,,,,,,,,,,,,,,,,,,,,,,,,,,,,,0,0,0,1,1,,,,,,,,,,,,,,,,,,,,,,,,,,,,,,,,,,,,,,,,,,,,,,
812424,001,2022-11-20_20h57.27.045,Info_measure_main_exp,2022.2.2,Win32,12.00278465,,,,,,,,,,,,,,,,,,masks/mask_003.jpg,,,,,,,,,,,,,,,,,,,,,,,,,,,,,,,,,,,,,,,,,,,0,1,1,2,1,,,,,,,,,,,,,,,,,,,,,,,,,,,,,,,,,,,,,,,,,,,,,,
812424,001,2022-11-20_20h57.27.045,Info_measure_main_exp,2022.2.2,Win32,12.00278465,,,,,,,,,,,,,,,,,,masks/mask_001.jpg,,,,,,,,,,,,,,,,,,,,,,,,,,,,,,,,,,,,,,,,,,,0,2,2,0,1,,,,,,,,,,,,,,,,,,,,,,,,,,,,,,,,,,,,,,,,,,,,,,
812424,001,2022-11-20_20h57.27.045,Info_measure_main_exp,2022.2.2,Win32,12.00278465,,,,,,,,,,,,,,,,,,masks/mask_005.jpg,,,,,,,,,,,,,,,,,,,,,,,,,,,,,,,,,,,,,,,,,,,0,3,3,4,1,,,,,,,,,,,,,,,,,,,,,,,,,,,,,,,,,,,,,,,,,,,,,,
812424,001,2022-11-20_20h57.27.045,Info_measure_main_exp,2022.2.2,Win32,12.00278465,,,,,,,,,,,,,,,,,,masks/mask_004.jpg,,,,,,,,,,,,,,,,,,,,,,,,,,,,,,,,,,,,,,,,,,,0,4,4,3,1,,,,,,,,,,,,,,,,,,,,,,,,,,,,,,,,,,,,,,,,,,,,,,
812424,001,2022-11-20_20h57.27.045,Info_measure_main_exp,2022.2.2,Win32,12.00278465,,,,,,,,,,,,,,,,,,masks/mask_003.jpg,,,,,,,,,,,,,,,,,,,,,,,,,,,,,,,,,,,,,,,,,,,,,,,,0,0,0,2,1,,,,,,,,,,,,,,,,,,,,,,,,,,,,,,,,,,,,,,,,,
812424,001,2022-11-20_20h57.27.045,Info_measure_main_exp,2022.2.2,Win32,12.00278465,,,,,,,,,,,,,,,,,,masks/mask_001.jpg,,,,,,,,,,,,,,,,,,,,,,,,,,,,,,,,,,,,,,,,,,,,,,,,0,1,1,0,1,,,,,,,,,,,,,,,,,,,,,,,,,,,,,,,,,,,,,,,,,
812424,001,2022-11-20_20h57.27.045,Info_measure_main_exp,2022.2.2,Win32,12.00278465,,,,,,,,,,,,,,,,,,masks/mask_005.jpg,,,,,,,,,,,,,,,,,,,,,,,,,,,,,,,,,,,,,,,,,,,,,,,,0,2,2,4,1,,,,,,,,,,,,,,,,,,,,,,,,,,,,,,,,,,,,,,,,,
812424,001,2022-11-20_20h57.27.045,Info_measure_main_exp,2022.2.2,Win32,12.00278465,,,,,,,,,,,,,,,,,,masks/mask_004.jpg,,,,,,,,,,,,,,,,,,,,,,,,,,,,,,,,,,,,,,,,,,,,,,,,0,3,3,3,1,,,,,,,,,,,,,,,,,,,,,,,,,,,,,,,,,,,,,,,,,
812424,001,2022-11-20_20h57.27.045,Info_measure_main_exp,2022.2.2,Win32,12.00278465,,,,,,,,,,,,,,,,,,masks/mask_002.jpg,,,,,,,,,,,,,,,,,,,,,,,,,,,,,,,,,,,,,,,,,,,,,,,,0,4,4,1,1,,,,,,,,,,,,,,,,,,,,,,,,,,,,,,,,,,,,,,,,,
812424,001,2022-11-20_20h57.27.045,Info_measure_main_exp,2022.2.2,Win32,12.00278465,,,,,,,,,,,,,,,,,,,,,,,,,,,,,,7,0.8279,1,,,,,,,,,,,,0,131,5,5,1974,2166,absent_patch/patch0001974.jpg,absent_patch/patch0002166.jpg,,,,,,,,,,,,,,,,,,,,0.049074074,0.110185185,1,0,0,response1disk,25,-0.000925926,-0.016666667,1,0,0,center_square,0,24,24,77,1,,,,,,,,,,,,,,,,,,,,,,,
812424,001,2022-11-20_20h57.27.045,Info_measure_main_exp,2022.2.2,Win32,12.00278465,,,,,,,,,,,,,,,,,,masks/mask_001.jpg,,,,,,,,,,,,,,,,,,,,,,,,,,,,,,,,,,,,,,,,,,,0,0,0,0,1,,,,,,,,,,,,,,,,,,,,,,,,,,,,,,,,,,,,,,,,,,,,,,
812424,001,2022-11-20_20h57.27.045,Info_measure_main_exp,2022.2.2,Win32,12.00278465,,,,,,,,,,,,,,,,,,masks/mask_005.jpg,,,,,,,,,,,,,,,,,,,,,,,,,,,,,,,,,,,,,,,,,,,0,1,1,4,1,,,,,,,,,,,,,,,,,,,,,,,,,,,,,,,,,,,,,,,,,,,,,,
812424,001,2022-11-20_20h57.27.045,Info_measure_main_exp,2022.2.2,Win32,12.00278465,,,,,,,,,,,,,,,,,,masks/mask_004.jpg,,,,,,,,,,,,,,,,,,,,,,,,,,,,,,,,,,,,,,,,,,,0,2,2,3,1,,,,,,,,,,,,,,,,,,,,,,,,,,,,,,,,,,,,,,,,,,,,,,
812424,001,2022-11-20_20h57.27.045,Info_measure_main_exp,2022.2.2,Win32,12.00278465,,,,,,,,,,,,,,,,,,masks/mask_002.jpg,,,,,,,,,,,,,,,,,,,,,,,,,,,,,,,,,,,,,,,,,,,0,3,3,1,1,,,,,,,,,,,,,,,,,,,,,,,,,,,,,,,,,,,,,,,,,,,,,,
812424,001,2022-11-20_20h57.27.045,Info_measure_main_exp,2022.2.2,Win32,12.00278465,,,,,,,,,,,,,,,,,,masks/mask_003.jpg,,,,,,,,,,,,,,,,,,,,,,,,,,,,,,,,,,,,,,,,,,,0,4,4,2,1,,,,,,,,,,,,,,,,,,,,,,,,,,,,,,,,,,,,,,,,,,,,,,
812424,001,2022-11-20_20h57.27.045,Info_measure_main_exp,2022.2.2,Win32,12.00278465,,,,,,,,,,,,,,,,,,masks/mask_004.jpg,,,,,,,,,,,,,,,,,,,,,,,,,,,,,,,,,,,,,,,,,,,,,,,,0,0,0,3,1,,,,,,,,,,,,,,,,,,,,,,,,,,,,,,,,,,,,,,,,,
812424,001,2022-11-20_20h57.27.045,Info_measure_main_exp,2022.2.2,Win32,12.00278465,,,,,,,,,,,,,,,,,,masks/mask_003.jpg,,,,,,,,,,,,,,,,,,,,,,,,,,,,,,,,,,,,,,,,,,,,,,,,0,1,1,2,1,,,,,,,,,,,,,,,,,,,,,,,,,,,,,,,,,,,,,,,,,
812424,001,2022-11-20_20h57.27.045,Info_measure_main_exp,2022.2.2,Win32,12.00278465,,,,,,,,,,,,,,,,,,masks/mask_002.jpg,,,,,,,,,,,,,,,,,,,,,,,,,,,,,,,,,,,,,,,,,,,,,,,,0,2,2,1,1,,,,,,,,,,,,,,,,,,,,,,,,,,,,,,,,,,,,,,,,,
812424,001,2022-11-20_20h57.27.045,Info_measure_main_exp,2022.2.2,Win32,12.00278465,,,,,,,,,,,,,,,,,,masks/mask_005.jpg,,,,,,,,,,,,,,,,,,,,,,,,,,,,,,,,,,,,,,,,,,,,,,,,0,3,3,4,1,,,,,,,,,,,,,,,,,,,,,,,,,,,,,,,,,,,,,,,,,
812424,001,2022-11-20_20h57.27.045,Info_measure_main_exp,2022.2.2,Win32,12.00278465,,,,,,,,,,,,,,,,,,masks/mask_001.jpg,,,,,,,,,,,,,,,,,,,,,,,,,,,,,,,,,,,,,,,,,,,,,,,,0,4,4,0,1,,,,,,,,,,,,,,,,,,,,,,,,,,,,,,,,,,,,,,,,,
812424,001,2022-11-20_20h57.27.045,Info_measure_main_exp,2022.2.2,Win32,12.00278465,,,,,,,,,,,,,,,,,,,,,,,,,,,,,,7,1.1196,1,,,,,,,,,,,,0,131,5,5,1974,2214,absent_patch/patch0001974.jpg,absent_patch/patch0002214.jpg,,,,,,,,,,,,,,,,,,,,0.039814815,0.086111111,1,0,0,response1disk,26,-0.001851852,0.005555556,1,0,0,center_square,0,25,25,24,1,,,,,,,,,,,,,,,,,,,,,,,
812424,001,2022-11-20_20h57.27.045,Info_measure_main_exp,2022.2.2,Win32,12.00278465,,,,,,,,,,,,,,,,,,masks/mask_003.jpg,,,,,,,,,,,,,,,,,,,,,,,,,,,,,,,,,,,,,,,,,,,0,0,0,2,1,,,,,,,,,,,,,,,,,,,,,,,,,,,,,,,,,,,,,,,,,,,,,,
812424,001,2022-11-20_20h57.27.045,Info_measure_main_exp,2022.2.2,Win32,12.00278465,,,,,,,,,,,,,,,,,,masks/mask_005.jpg,,,,,,,,,,,,,,,,,,,,,,,,,,,,,,,,,,,,,,,,,,,0,1,1,4,1,,,,,,,,,,,,,,,,,,,,,,,,,,,,,,,,,,,,,,,,,,,,,,
812424,001,2022-11-20_20h57.27.045,Info_measure_main_exp,2022.2.2,Win32,12.00278465,,,,,,,,,,,,,,,,,,masks/mask_002.jpg,,,,,,,,,,,,,,,,,,,,,,,,,,,,,,,,,,,,,,,,,,,0,2,2,1,1,,,,,,,,,,,,,,,,,,,,,,,,,,,,,,,,,,,,,,,,,,,,,,
812424,001,2022-11-20_20h57.27.045,Info_measure_main_exp,2022.2.2,Win32,12.00278465,,,,,,,,,,,,,,,,,,masks/mask_001.jpg,,,,,,,,,,,,,,,,,,,,,,,,,,,,,,,,,,,,,,,,,,,0,3,3,0,1,,,,,,,,,,,,,,,,,,,,,,,,,,,,,,,,,,,,,,,,,,,,,,
812424,001,2022-11-20_20h57.27.045,Info_measure_main_exp,2022.2.2,Win32,12.00278465,,,,,,,,,,,,,,,,,,masks/mask_004.jpg,,,,,,,,,,,,,,,,,,,,,,,,,,,,,,,,,,,,,,,,,,,0,4,4,3,1,,,,,,,,,,,,,,,,,,,,,,,,,,,,,,,,,,,,,,,,,,,,,,
812424,001,2022-11-20_20h57.27.045,Info_measure_main_exp,2022.2.2,Win32,12.00278465,,,,,,,,,,,,,,,,,,masks/mask_003.jpg,,,,,,,,,,,,,,,,,,,,,,,,,,,,,,,,,,,,,,,,,,,,,,,,0,0,0,2,1,,,,,,,,,,,,,,,,,,,,,,,,,,,,,,,,,,,,,,,,,
812424,001,2022-11-20_20h57.27.045,Info_measure_main_exp,2022.2.2,Win32,12.00278465,,,,,,,,,,,,,,,,,,masks/mask_002.jpg,,,,,,,,,,,,,,,,,,,,,,,,,,,,,,,,,,,,,,,,,,,,,,,,0,1,1,1,1,,,,,,,,,,,,,,,,,,,,,,,,,,,,,,,,,,,,,,,,,
812424,001,2022-11-20_20h57.27.045,Info_measure_main_exp,2022.2.2,Win32,12.00278465,,,,,,,,,,,,,,,,,,masks/mask_004.jpg,,,,,,,,,,,,,,,,,,,,,,,,,,,,,,,,,,,,,,,,,,,,,,,,0,2,2,3,1,,,,,,,,,,,,,,,,,,,,,,,,,,,,,,,,,,,,,,,,,
812424,001,2022-11-20_20h57.27.045,Info_measure_main_exp,2022.2.2,Win32,12.00278465,,,,,,,,,,,,,,,,,,masks/mask_005.jpg,,,,,,,,,,,,,,,,,,,,,,,,,,,,,,,,,,,,,,,,,,,,,,,,0,3,3,4,1,,,,,,,,,,,,,,,,,,,,,,,,,,,,,,,,,,,,,,,,,
812424,001,2022-11-20_20h57.27.045,Info_measure_main_exp,2022.2.2,Win32,12.00278465,,,,,,,,,,,,,,,,,,masks/mask_001.jpg,,,,,,,,,,,,,,,,,,,,,,,,,,,,,,,,,,,,,,,,,,,,,,,,0,4,4,0,1,,,,,,,,,,,,,,,,,,,,,,,,,,,,,,,,,,,,,,,,,
812424,001,2022-11-20_20h57.27.045,Info_measure_main_exp,2022.2.2,Win32,12.00278465,,,,,,,,,,,,,,,,,,,,,,,,,,,,,,7,0.9481,1,,,,,,,,,,,,0,131,5,5,2274,2190,absent_patch/patch0002274.jpg,absent_patch/patch0002190.jpg,,,,,,,,,,,,,,,,,,,,0.036111111,0.072222222,1,0,0,response1disk,27,0.007407407,-0.009259259,1,0,0,center_square,0,26,26,116,1,,,,,,,,,,,,,,,,,,,,,,,
812424,001,2022-11-20_20h57.27.045,Info_measure_main_exp,2022.2.2,Win32,12.00278465,,,,,,,,,,,,,,,,,,masks/mask_004.jpg,,,,,,,,,,,,,,,,,,,,,,,,,,,,,,,,,,,,,,,,,,,0,0,0,3,1,,,,,,,,,,,,,,,,,,,,,,,,,,,,,,,,,,,,,,,,,,,,,,
812424,001,2022-11-20_20h57.27.045,Info_measure_main_exp,2022.2.2,Win32,12.00278465,,,,,,,,,,,,,,,,,,masks/mask_003.jpg,,,,,,,,,,,,,,,,,,,,,,,,,,,,,,,,,,,,,,,,,,,0,1,1,2,1,,,,,,,,,,,,,,,,,,,,,,,,,,,,,,,,,,,,,,,,,,,,,,
812424,001,2022-11-20_20h57.27.045,Info_measure_main_exp,2022.2.2,Win32,12.00278465,,,,,,,,,,,,,,,,,,masks/mask_002.jpg,,,,,,,,,,,,,,,,,,,,,,,,,,,,,,,,,,,,,,,,,,,0,2,2,1,1,,,,,,,,,,,,,,,,,,,,,,,,,,,,,,,,,,,,,,,,,,,,,,
812424,001,2022-11-20_20h57.27.045,Info_measure_main_exp,2022.2.2,Win32,12.00278465,,,,,,,,,,,,,,,,,,masks/mask_005.jpg,,,,,,,,,,,,,,,,,,,,,,,,,,,,,,,,,,,,,,,,,,,0,3,3,4,1,,,,,,,,,,,,,,,,,,,,,,,,,,,,,,,,,,,,,,,,,,,,,,
812424,001,2022-11-20_20h57.27.045,Info_measure_main_exp,2022.2.2,Win32,12.00278465,,,,,,,,,,,,,,,,,,masks/mask_001.jpg,,,,,,,,,,,,,,,,,,,,,,,,,,,,,,,,,,,,,,,,,,,0,4,4,0,1,,,,,,,,,,,,,,,,,,,,,,,,,,,,,,,,,,,,,,,,,,,,,,
812424,001,2022-11-20_20h57.27.045,Info_measure_main_exp,2022.2.2,Win32,12.00278465,,,,,,,,,,,,,,,,,,masks/mask_003.jpg,,,,,,,,,,,,,,,,,,,,,,,,,,,,,,,,,,,,,,,,,,,,,,,,0,0,0,2,1,,,,,,,,,,,,,,,,,,,,,,,,,,,,,,,,,,,,,,,,,
812424,001,2022-11-20_20h57.27.045,Info_measure_main_exp,2022.2.2,Win32,12.00278465,,,,,,,,,,,,,,,,,,masks/mask_005.jpg,,,,,,,,,,,,,,,,,,,,,,,,,,,,,,,,,,,,,,,,,,,,,,,,0,1,1,4,1,,,,,,,,,,,,,,,,,,,,,,,,,,,,,,,,,,,,,,,,,
812424,001,2022-11-20_20h57.27.045,Info_measure_main_exp,2022.2.2,Win32,12.00278465,,,,,,,,,,,,,,,,,,masks/mask_002.jpg,,,,,,,,,,,,,,,,,,,,,,,,,,,,,,,,,,,,,,,,,,,,,,,,0,2,2,1,1,,,,,,,,,,,,,,,,,,,,,,,,,,,,,,,,,,,,,,,,,
812424,001,2022-11-20_20h57.27.045,Info_measure_main_exp,2022.2.2,Win32,12.00278465,,,,,,,,,,,,,,,,,,masks/mask_004.jpg,,,,,,,,,,,,,,,,,,,,,,,,,,,,,,,,,,,,,,,,,,,,,,,,0,3,3,3,1,,,,,,,,,,,,,,,,,,,,,,,,,,,,,,,,,,,,,,,,,
812424,001,2022-11-20_20h57.27.045,Info_measure_main_exp,2022.2.2,Win32,12.00278465,,,,,,,,,,,,,,,,,,masks/mask_001.jpg,,,,,,,,,,,,,,,,,,,,,,,,,,,,,,,,,,,,,,,,,,,,,,,,0,4,4,0,1,,,,,,,,,,,,,,,,,,,,,,,,,,,,,,,,,,,,,,,,,
812424,001,2022-11-20_20h57.27.045,Info_measure_main_exp,2022.2.2,Win32,12.00278465,,,,,,,,,,,,,,,,,,,,,,,,,,,,,,7,0.8196,1,,,,,,,,,,,,0,131,5,5,2142,2154,absent_patch/patch0002142.jpg,absent_patch/patch0002154.jpg,,,,,,,,,,,,,,,,,,,,0.042592593,0.111111111,1,0,0,response1disk,28,-0.003703704,-0.014814815,1,0,0,center_square,0,27,27,9,1,,,,,,,,,,,,,,,,,,,,,,,
812424,001,2022-11-20_20h57.27.045,Info_measure_main_exp,2022.2.2,Win32,12.00278465,,,,,,,,,,,,,,,,,,masks/mask_004.jpg,,,,,,,,,,,,,,,,,,,,,,,,,,,,,,,,,,,,,,,,,,,0,0,0,3,1,,,,,,,,,,,,,,,,,,,,,,,,,,,,,,,,,,,,,,,,,,,,,,
812424,001,2022-11-20_20h57.27.045,Info_measure_main_exp,2022.2.2,Win32,12.00278465,,,,,,,,,,,,,,,,,,masks/mask_003.jpg,,,,,,,,,,,,,,,,,,,,,,,,,,,,,,,,,,,,,,,,,,,0,1,1,2,1,,,,,,,,,,,,,,,,,,,,,,,,,,,,,,,,,,,,,,,,,,,,,,
812424,001,2022-11-20_20h57.27.045,Info_measure_main_exp,2022.2.2,Win32,12.00278465,,,,,,,,,,,,,,,,,,masks/mask_002.jpg,,,,,,,,,,,,,,,,,,,,,,,,,,,,,,,,,,,,,,,,,,,0,2,2,1,1,,,,,,,,,,,,,,,,,,,,,,,,,,,,,,,,,,,,,,,,,,,,,,
812424,001,2022-11-20_20h57.27.045,Info_measure_main_exp,2022.2.2,Win32,12.00278465,,,,,,,,,,,,,,,,,,masks/mask_001.jpg,,,,,,,,,,,,,,,,,,,,,,,,,,,,,,,,,,,,,,,,,,,0,3,3,0,1,,,,,,,,,,,,,,,,,,,,,,,,,,,,,,,,,,,,,,,,,,,,,,
812424,001,2022-11-20_20h57.27.045,Info_measure_main_exp,2022.2.2,Win32,12.00278465,,,,,,,,,,,,,,,,,,masks/mask_005.jpg,,,,,,,,,,,,,,,,,,,,,,,,,,,,,,,,,,,,,,,,,,,0,4,4,4,1,,,,,,,,,,,,,,,,,,,,,,,,,,,,,,,,,,,,,,,,,,,,,,
812424,001,2022-11-20_20h57.27.045,Info_measure_main_exp,2022.2.2,Win32,12.00278465,,,,,,,,,,,,,,,,,,masks/mask_004.jpg,,,,,,,,,,,,,,,,,,,,,,,,,,,,,,,,,,,,,,,,,,,,,,,,0,0,0,3,1,,,,,,,,,,,,,,,,,,,,,,,,,,,,,,,,,,,,,,,,,
812424,001,2022-11-20_20h57.27.045,Info_measure_main_exp,2022.2.2,Win32,12.00278465,,,,,,,,,,,,,,,,,,masks/mask_005.jpg,,,,,,,,,,,,,,,,,,,,,,,,,,,,,,,,,,,,,,,,,,,,,,,,0,1,1,4,1,,,,,,,,,,,,,,,,,,,,,,,,,,,,,,,,,,,,,,,,,
812424,001,2022-11-20_20h57.27.045,Info_measure_main_exp,2022.2.2,Win32,12.00278465,,,,,,,,,,,,,,,,,,masks/mask_002.jpg,,,,,,,,,,,,,,,,,,,,,,,,,,,,,,,,,,,,,,,,,,,,,,,,0,2,2,1,1,,,,,,,,,,,,,,,,,,,,,,,,,,,,,,,,,,,,,,,,,
812424,001,2022-11-20_20h57.27.045,Info_measure_main_exp,2022.2.2,Win32,12.00278465,,,,,,,,,,,,,,,,,,masks/mask_001.jpg,,,,,,,,,,,,,,,,,,,,,,,,,,,,,,,,,,,,,,,,,,,,,,,,0,3,3,0,1,,,,,,,,,,,,,,,,,,,,,,,,,,,,,,,,,,,,,,,,,
812424,001,2022-11-20_20h57.27.045,Info_measure_main_exp,2022.2.2,Win32,12.00278465,,,,,,,,,,,,,,,,,,masks/mask_003.jpg,,,,,,,,,,,,,,,,,,,,,,,,,,,,,,,,,,,,,,,,,,,,,,,,0,4,4,2,1,,,,,,,,,,,,,,,,,,,,,,,,,,,,,,,,,,,,,,,,,
812424,001,2022-11-20_20h57.27.045,Info_measure_main_exp,2022.2.2,Win32,12.00278465,,,,,,,,,,,,,,,,,,,,,,,,,,,,,,7,0.8285,1,,,,,,,,,,,,0,131,5,5,1986,2142,absent_patch/patch0001986.jpg,absent_patch/patch0002142.jpg,,,,,,,,,,,,,,,,,,,,0.043518519,0.118518519,1,0,0,response1disk,29,-0.007407407,-0.000925926,1,0,0,center_square,0,28,28,76,1,,,,,,,,,,,,,,,,,,,,,,,
812424,001,2022-11-20_20h57.27.045,Info_measure_main_exp,2022.2.2,Win32,12.00278465,,,,,,,,,,,,,,,,,,masks/mask_005.jpg,,,,,,,,,,,,,,,,,,,,,,,,,,,,,,,,,,,,,,,,,,,0,0,0,4,1,,,,,,,,,,,,,,,,,,,,,,,,,,,,,,,,,,,,,,,,,,,,,,
812424,001,2022-11-20_20h57.27.045,Info_measure_main_exp,2022.2.2,Win32,12.00278465,,,,,,,,,,,,,,,,,,masks/mask_002.jpg,,,,,,,,,,,,,,,,,,,,,,,,,,,,,,,,,,,,,,,,,,,0,1,1,1,1,,,,,,,,,,,,,,,,,,,,,,,,,,,,,,,,,,,,,,,,,,,,,,
812424,001,2022-11-20_20h57.27.045,Info_measure_main_exp,2022.2.2,Win32,12.00278465,,,,,,,,,,,,,,,,,,masks/mask_003.jpg,,,,,,,,,,,,,,,,,,,,,,,,,,,,,,,,,,,,,,,,,,,0,2,2,2,1,,,,,,,,,,,,,,,,,,,,,,,,,,,,,,,,,,,,,,,,,,,,,,
812424,001,2022-11-20_20h57.27.045,Info_measure_main_exp,2022.2.2,Win32,12.00278465,,,,,,,,,,,,,,,,,,masks/mask_004.jpg,,,,,,,,,,,,,,,,,,,,,,,,,,,,,,,,,,,,,,,,,,,0,3,3,3,1,,,,,,,,,,,,,,,,,,,,,,,,,,,,,,,,,,,,,,,,,,,,,,
812424,001,2022-11-20_20h57.27.045,Info_measure_main_exp,2022.2.2,Win32,12.00278465,,,,,,,,,,,,,,,,,,masks/mask_001.jpg,,,,,,,,,,,,,,,,,,,,,,,,,,,,,,,,,,,,,,,,,,,0,4,4,0,1,,,,,,,,,,,,,,,,,,,,,,,,,,,,,,,,,,,,,,,,,,,,,,
812424,001,2022-11-20_20h57.27.045,Info_measure_main_exp,2022.2.2,Win32,12.00278465,,,,,,,,,,,,,,,,,,masks/mask_001.jpg,,,,,,,,,,,,,,,,,,,,,,,,,,,,,,,,,,,,,,,,,,,,,,,,0,0,0,0,1,,,,,,,,,,,,,,,,,,,,,,,,,,,,,,,,,,,,,,,,,
812424,001,2022-11-20_20h57.27.045,Info_measure_main_exp,2022.2.2,Win32,12.00278465,,,,,,,,,,,,,,,,,,masks/mask_003.jpg,,,,,,,,,,,,,,,,,,,,,,,,,,,,,,,,,,,,,,,,,,,,,,,,0,1,1,2,1,,,,,,,,,,,,,,,,,,,,,,,,,,,,,,,,,,,,,,,,,
812424,001,2022-11-20_20h57.27.045,Info_measure_main_exp,2022.2.2,Win32,12.00278465,,,,,,,,,,,,,,,,,,masks/mask_004.jpg,,,,,,,,,,,,,,,,,,,,,,,,,,,,,,,,,,,,,,,,,,,,,,,,0,2,2,3,1,,,,,,,,,,,,,,,,,,,,,,,,,,,,,,,,,,,,,,,,,
812424,001,2022-11-20_20h57.27.045,Info_measure_main_exp,2022.2.2,Win32,12.00278465,,,,,,,,,,,,,,,,,,masks/mask_005.jpg,,,,,,,,,,,,,,,,,,,,,,,,,,,,,,,,,,,,,,,,,,,,,,,,0,3,3,4,1,,,,,,,,,,,,,,,,,,,,,,,,,,,,,,,,,,,,,,,,,
812424,001,2022-11-20_20h57.27.045,Info_measure_main_exp,2022.2.2,Win32,12.00278465,,,,,,,,,,,,,,,,,,masks/mask_002.jpg,,,,,,,,,,,,,,,,,,,,,,,,,,,,,,,,,,,,,,,,,,,,,,,,0,4,4,1,1,,,,,,,,,,,,,,,,,,,,,,,,,,,,,,,,,,,,,,,,,
812424,001,2022-11-20_20h57.27.045,Info_measure_main_exp,2022.2.2,Win32,12.00278465,,,,,,,,,,,,,,,,,,,,,,,,,,,,,,7,1.6213,1,,,,,,,,,,,,0,131,5,5,1986,1950,absent_patch/patch0001986.jpg,absent_patch/patch0001950.jpg,,,,,,,,,,,,,,,,,,,,0.051851852,0.09537037,1,0,0,response1disk,30,0.008333333,-0.005555556,1,0,0,center_square,0,29,29,15,1,,,,,,,,,,,,,,,,,,,,,,,
812424,001,2022-11-20_20h57.27.045,Info_measure_main_exp,2022.2.2,Win32,12.00278465,,,,,,,,,,,,,,,,,,masks/mask_004.jpg,,,,,,,,,,,,,,,,,,,,,,,,,,,,,,,,,,,,,,,,,,,0,0,0,3,1,,,,,,,,,,,,,,,,,,,,,,,,,,,,,,,,,,,,,,,,,,,,,,
812424,001,2022-11-20_20h57.27.045,Info_measure_main_exp,2022.2.2,Win32,12.00278465,,,,,,,,,,,,,,,,,,masks/mask_001.jpg,,,,,,,,,,,,,,,,,,,,,,,,,,,,,,,,,,,,,,,,,,,0,1,1,0,1,,,,,,,,,,,,,,,,,,,,,,,,,,,,,,,,,,,,,,,,,,,,,,
812424,001,2022-11-20_20h57.27.045,Info_measure_main_exp,2022.2.2,Win32,12.00278465,,,,,,,,,,,,,,,,,,masks/mask_005.jpg,,,,,,,,,,,,,,,,,,,,,,,,,,,,,,,,,,,,,,,,,,,0,2,2,4,1,,,,,,,,,,,,,,,,,,,,,,,,,,,,,,,,,,,,,,,,,,,,,,
812424,001,2022-11-20_20h57.27.045,Info_measure_main_exp,2022.2.2,Win32,12.00278465,,,,,,,,,,,,,,,,,,masks/mask_003.jpg,,,,,,,,,,,,,,,,,,,,,,,,,,,,,,,,,,,,,,,,,,,0,3,3,2,1,,,,,,,,,,,,,,,,,,,,,,,,,,,,,,,,,,,,,,,,,,,,,,
812424,001,2022-11-20_20h57.27.045,Info_measure_main_exp,2022.2.2,Win32,12.00278465,,,,,,,,,,,,,,,,,,masks/mask_002.jpg,,,,,,,,,,,,,,,,,,,,,,,,,,,,,,,,,,,,,,,,,,,0,4,4,1,1,,,,,,,,,,,,,,,,,,,,,,,,,,,,,,,,,,,,,,,,,,,,,,
812424,001,2022-11-20_20h57.27.045,Info_measure_main_exp,2022.2.2,Win32,12.00278465,,,,,,,,,,,,,,,,,,masks/mask_005.jpg,,,,,,,,,,,,,,,,,,,,,,,,,,,,,,,,,,,,,,,,,,,,,,,,0,0,0,4,1,,,,,,,,,,,,,,,,,,,,,,,,,,,,,,,,,,,,,,,,,
812424,001,2022-11-20_20h57.27.045,Info_measure_main_exp,2022.2.2,Win32,12.00278465,,,,,,,,,,,,,,,,,,masks/mask_001.jpg,,,,,,,,,,,,,,,,,,,,,,,,,,,,,,,,,,,,,,,,,,,,,,,,0,1,1,0,1,,,,,,,,,,,,,,,,,,,,,,,,,,,,,,,,,,,,,,,,,
812424,001,2022-11-20_20h57.27.045,Info_measure_main_exp,2022.2.2,Win32,12.00278465,,,,,,,,,,,,,,,,,,masks/mask_002.jpg,,,,,,,,,,,,,,,,,,,,,,,,,,,,,,,,,,,,,,,,,,,,,,,,0,2,2,1,1,,,,,,,,,,,,,,,,,,,,,,,,,,,,,,,,,,,,,,,,,
812424,001,2022-11-20_20h57.27.045,Info_measure_main_exp,2022.2.2,Win32,12.00278465,,,,,,,,,,,,,,,,,,masks/mask_004.jpg,,,,,,,,,,,,,,,,,,,,,,,,,,,,,,,,,,,,,,,,,,,,,,,,0,3,3,3,1,,,,,,,,,,,,,,,,,,,,,,,,,,,,,,,,,,,,,,,,,
812424,001,2022-11-20_20h57.27.045,Info_measure_main_exp,2022.2.2,Win32,12.00278465,,,,,,,,,,,,,,,,,,masks/mask_003.jpg,,,,,,,,,,,,,,,,,,,,,,,,,,,,,,,,,,,,,,,,,,,,,,,,0,4,4,2,1,,,,,,,,,,,,,,,,,,,,,,,,,,,,,,,,,,,,,,,,,
812424,001,2022-11-20_20h57.27.045,Info_measure_main_exp,2022.2.2,Win32,12.00278465,,,,,,,,,,,,,,,,,,,,,,,,,,,,,,3,1.2435,1,,,,,,,,,,,,1,131,5,5,1,2274,present_patch/cong_131_5_a.jpg,absent_patch/patch0002274.jpg,,,,,,,,,,,,,,,,,,,,-0.039814815,-0.12962963,1,0,0,response5disk,31,-0.001851852,0.010185185,1,0,0,center_square,0,30,30,105,1,,,,,,,,,,,,,,,,,,,,,,,
812424,001,2022-11-20_20h57.27.045,Info_measure_main_exp,2022.2.2,Win32,12.00278465,,,,,,,,,,,,,,,,,,masks/mask_004.jpg,,,,,,,,,,,,,,,,,,,,,,,,,,,,,,,,,,,,,,,,,,,0,0,0,3,1,,,,,,,,,,,,,,,,,,,,,,,,,,,,,,,,,,,,,,,,,,,,,,
812424,001,2022-11-20_20h57.27.045,Info_measure_main_exp,2022.2.2,Win32,12.00278465,,,,,,,,,,,,,,,,,,masks/mask_003.jpg,,,,,,,,,,,,,,,,,,,,,,,,,,,,,,,,,,,,,,,,,,,0,1,1,2,1,,,,,,,,,,,,,,,,,,,,,,,,,,,,,,,,,,,,,,,,,,,,,,
812424,001,2022-11-20_20h57.27.045,Info_measure_main_exp,2022.2.2,Win32,12.00278465,,,,,,,,,,,,,,,,,,masks/mask_001.jpg,,,,,,,,,,,,,,,,,,,,,,,,,,,,,,,,,,,,,,,,,,,0,2,2,0,1,,,,,,,,,,,,,,,,,,,,,,,,,,,,,,,,,,,,,,,,,,,,,,
812424,001,2022-11-20_20h57.27.045,Info_measure_main_exp,2022.2.2,Win32,12.00278465,,,,,,,,,,,,,,,,,,masks/mask_005.jpg,,,,,,,,,,,,,,,,,,,,,,,,,,,,,,,,,,,,,,,,,,,0,3,3,4,1,,,,,,,,,,,,,,,,,,,,,,,,,,,,,,,,,,,,,,,,,,,,,,
812424,001,2022-11-20_20h57.27.045,Info_measure_main_exp,2022.2.2,Win32,12.00278465,,,,,,,,,,,,,,,,,,masks/mask_002.jpg,,,,,,,,,,,,,,,,,,,,,,,,,,,,,,,,,,,,,,,,,,,0,4,4,1,1,,,,,,,,,,,,,,,,,,,,,,,,,,,,,,,,,,,,,,,,,,,,,,
812424,001,2022-11-20_20h57.27.045,Info_measure_main_exp,2022.2.2,Win32,12.00278465,,,,,,,,,,,,,,,,,,masks/mask_003.jpg,,,,,,,,,,,,,,,,,,,,,,,,,,,,,,,,,,,,,,,,,,,,,,,,0,0,0,2,1,,,,,,,,,,,,,,,,,,,,,,,,,,,,,,,,,,,,,,,,,
812424,001,2022-11-20_20h57.27.045,Info_measure_main_exp,2022.2.2,Win32,12.00278465,,,,,,,,,,,,,,,,,,masks/mask_005.jpg,,,,,,,,,,,,,,,,,,,,,,,,,,,,,,,,,,,,,,,,,,,,,,,,0,1,1,4,1,,,,,,,,,,,,,,,,,,,,,,,,,,,,,,,,,,,,,,,,,
812424,001,2022-11-20_20h57.27.045,Info_measure_main_exp,2022.2.2,Win32,12.00278465,,,,,,,,,,,,,,,,,,masks/mask_001.jpg,,,,,,,,,,,,,,,,,,,,,,,,,,,,,,,,,,,,,,,,,,,,,,,,0,2,2,0,1,,,,,,,,,,,,,,,,,,,,,,,,,,,,,,,,,,,,,,,,,
812424,001,2022-11-20_20h57.27.045,Info_measure_main_exp,2022.2.2,Win32,12.00278465,,,,,,,,,,,,,,,,,,masks/mask_002.jpg,,,,,,,,,,,,,,,,,,,,,,,,,,,,,,,,,,,,,,,,,,,,,,,,0,3,3,1,1,,,,,,,,,,,,,,,,,,,,,,,,,,,,,,,,,,,,,,,,,
812424,001,2022-11-20_20h57.27.045,Info_measure_main_exp,2022.2.2,Win32,12.00278465,,,,,,,,,,,,,,,,,,masks/mask_004.jpg,,,,,,,,,,,,,,,,,,,,,,,,,,,,,,,,,,,,,,,,,,,,,,,,0,4,4,3,1,,,,,,,,,,,,,,,,,,,,,,,,,,,,,,,,,,,,,,,,,
812424,001,2022-11-20_20h57.27.045,Info_measure_main_exp,2022.2.2,Win32,12.00278465,,,,,,,,,,,,,,,,,,,,,,,,,,,,,,2,0.9136,1,,,,,,,,,,,,0,131,5,5,2142,2190,absent_patch/patch0002142.jpg,absent_patch/patch0002190.jpg,,,,,,,,,,,,,,,,,,,,-0.080555556,-0.027777778,1,0,0,response5disk,32,0.001851852,-0.002777778,1,0,0,center_square,0,31,31,70,1,,,,,,,,,,,,,,,,,,,,,,,
812424,001,2022-11-20_20h57.27.045,Info_measure_main_exp,2022.2.2,Win32,12.00278465,,,,,,,,,,,,,,,,,,masks/mask_001.jpg,,,,,,,,,,,,,,,,,,,,,,,,,,,,,,,,,,,,,,,,,,,0,0,0,0,1,,,,,,,,,,,,,,,,,,,,,,,,,,,,,,,,,,,,,,,,,,,,,,
812424,001,2022-11-20_20h57.27.045,Info_measure_main_exp,2022.2.2,Win32,12.00278465,,,,,,,,,,,,,,,,,,masks/mask_003.jpg,,,,,,,,,,,,,,,,,,,,,,,,,,,,,,,,,,,,,,,,,,,0,1,1,2,1,,,,,,,,,,,,,,,,,,,,,,,,,,,,,,,,,,,,,,,,,,,,,,
812424,001,2022-11-20_20h57.27.045,Info_measure_main_exp,2022.2.2,Win32,12.00278465,,,,,,,,,,,,,,,,,,masks/mask_004.jpg,,,,,,,,,,,,,,,,,,,,,,,,,,,,,,,,,,,,,,,,,,,0,2,2,3,1,,,,,,,,,,,,,,,,,,,,,,,,,,,,,,,,,,,,,,,,,,,,,,
812424,001,2022-11-20_20h57.27.045,Info_measure_main_exp,2022.2.2,Win32,12.00278465,,,,,,,,,,,,,,,,,,masks/mask_005.jpg,,,,,,,,,,,,,,,,,,,,,,,,,,,,,,,,,,,,,,,,,,,0,3,3,4,1,,,,,,,,,,,,,,,,,,,,,,,,,,,,,,,,,,,,,,,,,,,,,,
812424,001,2022-11-20_20h57.27.045,Info_measure_main_exp,2022.2.2,Win32,12.00278465,,,,,,,,,,,,,,,,,,masks/mask_002.jpg,,,,,,,,,,,,,,,,,,,,,,,,,,,,,,,,,,,,,,,,,,,0,4,4,1,1,,,,,,,,,,,,,,,,,,,,,,,,,,,,,,,,,,,,,,,,,,,,,,
812424,001,2022-11-20_20h57.27.045,Info_measure_main_exp,2022.2.2,Win32,12.00278465,,,,,,,,,,,,,,,,,,masks/mask_001.jpg,,,,,,,,,,,,,,,,,,,,,,,,,,,,,,,,,,,,,,,,,,,,,,,,0,0,0,0,1,,,,,,,,,,,,,,,,,,,,,,,,,,,,,,,,,,,,,,,,,
812424,001,2022-11-20_20h57.27.045,Info_measure_main_exp,2022.2.2,Win32,12.00278465,,,,,,,,,,,,,,,,,,masks/mask_005.jpg,,,,,,,,,,,,,,,,,,,,,,,,,,,,,,,,,,,,,,,,,,,,,,,,0,1,1,4,1,,,,,,,,,,,,,,,,,,,,,,,,,,,,,,,,,,,,,,,,,
812424,001,2022-11-20_20h57.27.045,Info_measure_main_exp,2022.2.2,Win32,12.00278465,,,,,,,,,,,,,,,,,,masks/mask_003.jpg,,,,,,,,,,,,,,,,,,,,,,,,,,,,,,,,,,,,,,,,,,,,,,,,0,2,2,2,1,,,,,,,,,,,,,,,,,,,,,,,,,,,,,,,,,,,,,,,,,
812424,001,2022-11-20_20h57.27.045,Info_measure_main_exp,2022.2.2,Win32,12.00278465,,,,,,,,,,,,,,,,,,masks/mask_002.jpg,,,,,,,,,,,,,,,,,,,,,,,,,,,,,,,,,,,,,,,,,,,,,,,,0,3,3,1,1,,,,,,,,,,,,,,,,,,,,,,,,,,,,,,,,,,,,,,,,,
812424,001,2022-11-20_20h57.27.045,Info_measure_main_exp,2022.2.2,Win32,12.00278465,,,,,,,,,,,,,,,,,,masks/mask_004.jpg,,,,,,,,,,,,,,,,,,,,,,,,,,,,,,,,,,,,,,,,,,,,,,,,0,4,4,3,1,,,,,,,,,,,,,,,,,,,,,,,,,,,,,,,,,,,,,,,,,
812424,001,2022-11-20_20h57.27.045,Info_measure_main_exp,2022.2.2,Win32,12.00278465,,,,,,,,,,,,,,,,,,,,,,,,,,,,,,0,1.4194,1,,,,,,,,,,,,0,131,5,5,2142,2142,absent_patch/patch0002142.jpg,absent_patch/patch0002142.jpg,,,,,,,,,,,,,,,,,,,,-0.05462963,0.140740741,1,0,0,response7disk,33,-0.001851852,-0.00462963,1,0,0,center_square,0,32,32,13,1,,,,,,,,,,,,,,,,,,,,,,,
812424,001,2022-11-20_20h57.27.045,Info_measure_main_exp,2022.2.2,Win32,12.00278465,,,,,,,,,,,,,,,,,,masks/mask_001.jpg,,,,,,,,,,,,,,,,,,,,,,,,,,,,,,,,,,,,,,,,,,,0,0,0,0,1,,,,,,,,,,,,,,,,,,,,,,,,,,,,,,,,,,,,,,,,,,,,,,
812424,001,2022-11-20_20h57.27.045,Info_measure_main_exp,2022.2.2,Win32,12.00278465,,,,,,,,,,,,,,,,,,masks/mask_004.jpg,,,,,,,,,,,,,,,,,,,,,,,,,,,,,,,,,,,,,,,,,,,0,1,1,3,1,,,,,,,,,,,,,,,,,,,,,,,,,,,,,,,,,,,,,,,,,,,,,,
812424,001,2022-11-20_20h57.27.045,Info_measure_main_exp,2022.2.2,Win32,12.00278465,,,,,,,,,,,,,,,,,,masks/mask_003.jpg,,,,,,,,,,,,,,,,,,,,,,,,,,,,,,,,,,,,,,,,,,,0,2,2,2,1,,,,,,,,,,,,,,,,,,,,,,,,,,,,,,,,,,,,,,,,,,,,,,
812424,001,2022-11-20_20h57.27.045,Info_measure_main_exp,2022.2.2,Win32,12.00278465,,,,,,,,,,,,,,,,,,masks/mask_005.jpg,,,,,,,,,,,,,,,,,,,,,,,,,,,,,,,,,,,,,,,,,,,0,3,3,4,1,,,,,,,,,,,,,,,,,,,,,,,,,,,,,,,,,,,,,,,,,,,,,,
812424,001,2022-11-20_20h57.27.045,Info_measure_main_exp,2022.2.2,Win32,12.00278465,,,,,,,,,,,,,,,,,,masks/mask_002.jpg,,,,,,,,,,,,,,,,,,,,,,,,,,,,,,,,,,,,,,,,,,,0,4,4,1,1,,,,,,,,,,,,,,,,,,,,,,,,,,,,,,,,,,,,,,,,,,,,,,
812424,001,2022-11-20_20h57.27.045,Info_measure_main_exp,2022.2.2,Win32,12.00278465,,,,,,,,,,,,,,,,,,masks/mask_001.jpg,,,,,,,,,,,,,,,,,,,,,,,,,,,,,,,,,,,,,,,,,,,,,,,,0,0,0,0,1,,,,,,,,,,,,,,,,,,,,,,,,,,,,,,,,,,,,,,,,,
812424,001,2022-11-20_20h57.27.045,Info_measure_main_exp,2022.2.2,Win32,12.00278465,,,,,,,,,,,,,,,,,,masks/mask_005.jpg,,,,,,,,,,,,,,,,,,,,,,,,,,,,,,,,,,,,,,,,,,,,,,,,0,1,1,4,1,,,,,,,,,,,,,,,,,,,,,,,,,,,,,,,,,,,,,,,,,
812424,001,2022-11-20_20h57.27.045,Info_measure_main_exp,2022.2.2,Win32,12.00278465,,,,,,,,,,,,,,,,,,masks/mask_002.jpg,,,,,,,,,,,,,,,,,,,,,,,,,,,,,,,,,,,,,,,,,,,,,,,,0,2,2,1,1,,,,,,,,,,,,,,,,,,,,,,,,,,,,,,,,,,,,,,,,,
812424,001,2022-11-20_20h57.27.045,Info_measure_main_exp,2022.2.2,Win32,12.00278465,,,,,,,,,,,,,,,,,,masks/mask_003.jpg,,,,,,,,,,,,,,,,,,,,,,,,,,,,,,,,,,,,,,,,,,,,,,,,0,3,3,2,1,,,,,,,,,,,,,,,,,,,,,,,,,,,,,,,,,,,,,,,,,
812424,001,2022-11-20_20h57.27.045,Info_measure_main_exp,2022.2.2,Win32,12.00278465,,,,,,,,,,,,,,,,,,masks/mask_004.jpg,,,,,,,,,,,,,,,,,,,,,,,,,,,,,,,,,,,,,,,,,,,,,,,,0,4,4,3,1,,,,,,,,,,,,,,,,,,,,,,,,,,,,,,,,,,,,,,,,,
812424,001,2022-11-20_20h57.27.045,Info_measure_main_exp,2022.2.2,Win32,12.00278465,,,,,,,,,,,,,,,,,,,,,,,,,,,,,,2,2.0046,1,,,,,,,,,,,,0,131,5,5,1974,2142,absent_patch/patch0001974.jpg,absent_patch/patch0002142.jpg,,,,,,,,,,,,,,,,,,,,-0.080555556,-0.032407407,1,0,0,response5disk,34,0.014814815,-0.003703704,1,0,0,center_square,0,33,33,38,1,,,,,,,,,,,,,,,,,,,,,,,
812424,001,2022-11-20_20h57.27.045,Info_measure_main_exp,2022.2.2,Win32,12.00278465,,,,,,,,,,,,,,,,,,masks/mask_005.jpg,,,,,,,,,,,,,,,,,,,,,,,,,,,,,,,,,,,,,,,,,,,0,0,0,4,1,,,,,,,,,,,,,,,,,,,,,,,,,,,,,,,,,,,,,,,,,,,,,,
812424,001,2022-11-20_20h57.27.045,Info_measure_main_exp,2022.2.2,Win32,12.00278465,,,,,,,,,,,,,,,,,,masks/mask_003.jpg,,,,,,,,,,,,,,,,,,,,,,,,,,,,,,,,,,,,,,,,,,,0,1,1,2,1,,,,,,,,,,,,,,,,,,,,,,,,,,,,,,,,,,,,,,,,,,,,,,
812424,001,2022-11-20_20h57.27.045,Info_measure_main_exp,2022.2.2,Win32,12.00278465,,,,,,,,,,,,,,,,,,masks/mask_004.jpg,,,,,,,,,,,,,,,,,,,,,,,,,,,,,,,,,,,,,,,,,,,0,2,2,3,1,,,,,,,,,,,,,,,,,,,,,,,,,,,,,,,,,,,,,,,,,,,,,,
812424,001,2022-11-20_20h57.27.045,Info_measure_main_exp,2022.2.2,Win32,12.00278465,,,,,,,,,,,,,,,,,,masks/mask_002.jpg,,,,,,,,,,,,,,,,,,,,,,,,,,,,,,,,,,,,,,,,,,,0,3,3,1,1,,,,,,,,,,,,,,,,,,,,,,,,,,,,,,,,,,,,,,,,,,,,,,
812424,001,2022-11-20_20h57.27.045,Info_measure_main_exp,2022.2.2,Win32,12.00278465,,,,,,,,,,,,,,,,,,masks/mask_001.jpg,,,,,,,,,,,,,,,,,,,,,,,,,,,,,,,,,,,,,,,,,,,0,4,4,0,1,,,,,,,,,,,,,,,,,,,,,,,,,,,,,,,,,,,,,,,,,,,,,,
812424,001,2022-11-20_20h57.27.045,Info_measure_main_exp,2022.2.2,Win32,12.00278465,,,,,,,,,,,,,,,,,,masks/mask_001.jpg,,,,,,,,,,,,,,,,,,,,,,,,,,,,,,,,,,,,,,,,,,,,,,,,0,0,0,0,1,,,,,,,,,,,,,,,,,,,,,,,,,,,,,,,,,,,,,,,,,
812424,001,2022-11-20_20h57.27.045,Info_measure_main_exp,2022.2.2,Win32,12.00278465,,,,,,,,,,,,,,,,,,masks/mask_005.jpg,,,,,,,,,,,,,,,,,,,,,,,,,,,,,,,,,,,,,,,,,,,,,,,,0,1,1,4,1,,,,,,,,,,,,,,,,,,,,,,,,,,,,,,,,,,,,,,,,,
812424,001,2022-11-20_20h57.27.045,Info_measure_main_exp,2022.2.2,Win32,12.00278465,,,,,,,,,,,,,,,,,,masks/mask_003.jpg,,,,,,,,,,,,,,,,,,,,,,,,,,,,,,,,,,,,,,,,,,,,,,,,0,2,2,2,1,,,,,,,,,,,,,,,,,,,,,,,,,,,,,,,,,,,,,,,,,
812424,001,2022-11-20_20h57.27.045,Info_measure_main_exp,2022.2.2,Win32,12.00278465,,,,,,,,,,,,,,,,,,masks/mask_004.jpg,,,,,,,,,,,,,,,,,,,,,,,,,,,,,,,,,,,,,,,,,,,,,,,,0,3,3,3,1,,,,,,,,,,,,,,,,,,,,,,,,,,,,,,,,,,,,,,,,,
