participant,session,date,expName,psychopyVersion,OS,frameRate,space_press_continue.keys,space_press_continue.rt,space_press_continue_2.keys,space_press_continue_2.rt,space_press_continue_3.keys,space_press_continue_3.rt,space_press_continue_4.keys,space_press_continue_4.rt,space_press_continue_5.keys,space_press_continue_5.rt,space_press_continue_6.keys,space_press_continue_6.rt,prac_mask_loop_1.thisRepN,prac_mask_loop_1.thisTrialN,prac_mask_loop_1.thisN,prac_mask_loop_1.thisIndex,prac_mask_loop_1.ran,mask_name,prac_mask_loop_2.thisRepN,prac_mask_loop_2.thisTrialN,prac_mask_loop_2.thisN,prac_mask_loop_2.thisIndex,prac_mask_loop_2.ran,mouse_2.x,mouse_2.y,mouse_2.leftButton,mouse_2.midButton,mouse_2.rightButton,mouse_2.clicked_name,similarity,response_time,Pass,mouse_12.x,mouse_12.y,mouse_12.leftButton,mouse_12.midButton,mouse_12.rightButton,mouse_12.clicked_name,prac_loop.thisRepN,prac_loop.thisTrialN,prac_loop.thisN,prac_loop.thisIndex,prac_loop.ran,Pair_type,Image_num,Patch_1_loc,Patch_2_loc,Patch_1_info,Patch_2_info,Patch_1_name,Patch_2_name,mouse_1.x,mouse_1.y,mouse_1.leftButton,mouse_1.midButton,mouse_1.rightButton,mouse_1.time,mouse_1.clicked_name,space_press_continue_7.keys,space_press_continue_7.rt,mask_loop.thisRepN,mask_loop.thisTrialN,mask_loop.thisN,mask_loop.thisIndex,mask_loop.ran,mask_loop_2.thisRepN,mask_loop_2.thisTrialN,mask_loop_2.thisN,mask_loop_2.thisIndex,mask_loop_2.ran,mouse.x,mouse.y,mouse.leftButton,mouse.midButton,mouse.rightButton,mouse.clicked_name,trialNumber,mouse_11.x,mouse_11.y,mouse_11.leftButton,mouse_11.midButton,mouse_11.rightButton,mouse_11.clicked_name,first_pass_loop.thisRepN,first_pass_loop.thisTrialN,first_pass_loop.thisN,first_pass_loop.thisIndex,first_pass_loop.ran,mask_loop_3.thisRepN,mask_loop_3.thisTrialN,mask_loop_3.thisN,mask_loop_3.thisIndex,mask_loop_3.ran,mask_loop_4.thisRepN,mask_loop_4.thisTrialN,mask_loop_4.thisN,mask_loop_4.thisIndex,mask_loop_4.ran,mouse_3.x,mouse_3.y,mouse_3.leftButton,mouse_3.midButton,mouse_3.rightButton,mouse_3.clicked_name,double_pass_loop.thisRepN,double_pass_loop.thisTrialN,double_pass_loop.thisN,double_pass_loop.thisIndex,double_pass_loop.ran,space_exit.keys,space_exit.rt
818197,001,2022-11-20_20h50.41.971,Info_measure_main_exp,2022.2.2,Win32,59.79788315,,,,,,,,,,,,,,,,,,,,,,,,,,,,,,,,,,,,,,,,,,,,,,,,,,,,,,,,,,,,,,,,,,,,,,,,,,,,,,,,,,,,,,,,,,,,,,,,,,,,,,,,,,,,,,,
818197,001,2022-11-20_20h50.41.971,Info_measure_main_exp,2022.2.2,Win32,59.79788315,,,,,,,,,,,,,,,,,,,,,,,,,,,,,,,,,,,,,,,,,,,,,,,,,,,,,,,,,,,,,,,,,,,,,,,,,,,,,,,,,,,,,,,,,,,,,,,,,,,,,,,,,,,,,,,
818197,001,2022-11-20_20h50.41.971,Info_measure_main_exp,2022.2.2,Win32,59.79788315,space,40.1289,,,,,,,,,,,,,,,,,,,,,,,,,,,,,,,,,,,,,,,,,,,,,,,,,,,,,,,,,,,,,,,,,,,,,,,,,,,,,,,,,,,,,,,,,,,,,,,,,,,,,,,,,,,,,
818197,001,2022-11-20_20h50.41.971,Info_measure_main_exp,2022.2.2,Win32,59.79788315,,,space,6.9737,,,,,,,,,,,,,,,,,,,,,,,,,,,,,,,,,,,,,,,,,,,,,,,,,,,,,,,,,,,,,,,,,,,,,,,,,,,,,,,,,,,,,,,,,,,,,,,,,,,,,,,,,,,
818197,001,2022-11-20_20h50.41.971,Info_measure_main_exp,2022.2.2,Win32,59.79788315,,,,,space,17.0213,,,,,,,,,,,,,,,,,,,,,,,,,,,,,,,,,,,,,,,,,,,,,,,,,,,,,,,,,,,,,,,,,,,,,,,,,,,,,,,,,,,,,,,,,,,,,,,,,,,,,,,,,
818197,001,2022-11-20_20h50.41.971,Info_measure_main_exp,2022.2.2,Win32,59.79788315,,,,,,,space,33.0509,,,,,,,,,,,,,,,,,,,,,,,,,,,,,,,,,,,,,,,,,,,,,,,,,,,,,,,,,,,,,,,,,,,,,,,,,,,,,,,,,,,,,,,,,,,,,,,,,,,,,,,
818197,001,2022-11-20_20h50.41.971,Info_measure_main_exp,2022.2.2,Win32,59.79788315,,,,,,,,,space,11.1556,,,,,,,,,,,,,,,,,,,,,,,,,,,,,,,,,,,,,,,,,,,,,,,,,,,,,,,,,,,,,,,,,,,,,,,,,,,,,,,,,,,,,,,,,,,,,,,,,,,,,
818197,001,2022-11-20_20h50.41.971,Info_measure_main_exp,2022.2.2,Win32,59.79788315,,,,,,,,,,,space,4.3602,,,,,,,,,,,,,,,,,,,,,,,,,,,,,,,,,,,,,,,,,,,,,,,,,,,,,,,,,,,,,,,,,,,,,,,,,,,,,,,,,,,,,,,,,,,,,,,,,,,
818197,001,2022-11-20_20h50.41.971,Info_measure_main_exp,2022.2.2,Win32,59.79788315,,,,,,,,,,,,,0,0,0,0,1,masks/mask_001.jpg,,,,,,,,,,,,,,,,,,,,,,,,,,,,,,,,,,,,,,,,,,,,,,,,,,,,,,,,,,,,,,,,,,,,,,,,,,,,,,,,,,,,,,,,,,,,,
818197,001,2022-11-20_20h50.41.971,Info_measure_main_exp,2022.2.2,Win32,59.79788315,,,,,,,,,,,,,0,1,1,3,1,masks/mask_004.jpg,,,,,,,,,,,,,,,,,,,,,,,,,,,,,,,,,,,,,,,,,,,,,,,,,,,,,,,,,,,,,,,,,,,,,,,,,,,,,,,,,,,,,,,,,,,,,
818197,001,2022-11-20_20h50.41.971,Info_measure_main_exp,2022.2.2,Win32,59.79788315,,,,,,,,,,,,,0,2,2,1,1,masks/mask_002.jpg,,,,,,,,,,,,,,,,,,,,,,,,,,,,,,,,,,,,,,,,,,,,,,,,,,,,,,,,,,,,,,,,,,,,,,,,,,,,,,,,,,,,,,,,,,,,,
818197,001,2022-11-20_20h50.41.971,Info_measure_main_exp,2022.2.2,Win32,59.79788315,,,,,,,,,,,,,0,3,3,2,1,masks/mask_003.jpg,,,,,,,,,,,,,,,,,,,,,,,,,,,,,,,,,,,,,,,,,,,,,,,,,,,,,,,,,,,,,,,,,,,,,,,,,,,,,,,,,,,,,,,,,,,,,
818197,001,2022-11-20_20h50.41.971,Info_measure_main_exp,2022.2.2,Win32,59.79788315,,,,,,,,,,,,,0,4,4,4,1,masks/mask_005.jpg,,,,,,,,,,,,,,,,,,,,,,,,,,,,,,,,,,,,,,,,,,,,,,,,,,,,,,,,,,,,,,,,,,,,,,,,,,,,,,,,,,,,,,,,,,,,,
818197,001,2022-11-20_20h50.41.971,Info_measure_main_exp,2022.2.2,Win32,59.79788315,,,,,,,,,,,,,,,,,,masks/mask_003.jpg,0,0,0,2,1,,,,,,,,,,,,,,,,,,,,,,,,,,,,,,,,,,,,,,,,,,,,,,,,,,,,,,,,,,,,,,,,,,,,,,,,,,,,,,,,,,,,,,,,
818197,001,2022-11-20_20h50.41.971,Info_measure_main_exp,2022.2.2,Win32,59.79788315,,,,,,,,,,,,,,,,,,masks/mask_001.jpg,0,1,1,0,1,,,,,,,,,,,,,,,,,,,,,,,,,,,,,,,,,,,,,,,,,,,,,,,,,,,,,,,,,,,,,,,,,,,,,,,,,,,,,,,,,,,,,,,,
818197,001,2022-11-20_20h50.41.971,Info_measure_main_exp,2022.2.2,Win32,59.79788315,,,,,,,,,,,,,,,,,,masks/mask_004.jpg,0,2,2,3,1,,,,,,,,,,,,,,,,,,,,,,,,,,,,,,,,,,,,,,,,,,,,,,,,,,,,,,,,,,,,,,,,,,,,,,,,,,,,,,,,,,,,,,,,
818197,001,2022-11-20_20h50.41.971,Info_measure_main_exp,2022.2.2,Win32,59.79788315,,,,,,,,,,,,,,,,,,masks/mask_002.jpg,0,3,3,1,1,,,,,,,,,,,,,,,,,,,,,,,,,,,,,,,,,,,,,,,,,,,,,,,,,,,,,,,,,,,,,,,,,,,,,,,,,,,,,,,,,,,,,,,,
818197,001,2022-11-20_20h50.41.971,Info_measure_main_exp,2022.2.2,Win32,59.79788315,,,,,,,,,,,,,,,,,,masks/mask_005.jpg,0,4,4,4,1,,,,,,,,,,,,,,,,,,,,,,,,,,,,,,,,,,,,,,,,,,,,,,,,,,,,,,,,,,,,,,,,,,,,,,,,,,,,,,,,,,,,,,,,
818197,001,2022-11-20_20h50.41.971,Info_measure_main_exp,2022.2.2,Win32,59.79788315,,,,,,,,,,,,,,,,,,,,,,,,-0.03515625,0.141927083,1,0,0,response7disk,0,124.1911,1,0.002604167,0.001302083,1,0,0,center_square,0,0,0,2,1,0,131,5,5,2526,2526,prac_patch/patch0002526.jpg,prac_patch/patch0002526.jpg,,,,,,,,,,,,,,,,,,,,,,,,,,,,,,,,,,,,,,,,,,,,,,,,,,,,,,,,,,,,
818197,001,2022-11-20_20h50.41.971,Info_measure_main_exp,2022.2.2,Win32,59.79788315,,,,,,,,,,,,,0,0,0,2,1,masks/mask_003.jpg,,,,,,,,,,,,,,,,,,,,,,,,,,,,,,,,,,,,,,,,,,,,,,,,,,,,,,,,,,,,,,,,,,,,,,,,,,,,,,,,,,,,,,,,,,,,,
818197,001,2022-11-20_20h50.41.971,Info_measure_main_exp,2022.2.2,Win32,59.79788315,,,,,,,,,,,,,0,1,1,1,1,masks/mask_002.jpg,,,,,,,,,,,,,,,,,,,,,,,,,,,,,,,,,,,,,,,,,,,,,,,,,,,,,,,,,,,,,,,,,,,,,,,,,,,,,,,,,,,,,,,,,,,,,
818197,001,2022-11-20_20h50.41.971,Info_measure_main_exp,2022.2.2,Win32,59.79788315,,,,,,,,,,,,,0,2,2,3,1,masks/mask_004.jpg,,,,,,,,,,,,,,,,,,,,,,,,,,,,,,,,,,,,,,,,,,,,,,,,,,,,,,,,,,,,,,,,,,,,,,,,,,,,,,,,,,,,,,,,,,,,,
818197,001,2022-11-20_20h50.41.971,Info_measure_main_exp,2022.2.2,Win32,59.79788315,,,,,,,,,,,,,0,3,3,0,1,masks/mask_001.jpg,,,,,,,,,,,,,,,,,,,,,,,,,,,,,,,,,,,,,,,,,,,,,,,,,,,,,,,,,,,,,,,,,,,,,,,,,,,,,,,,,,,,,,,,,,,,,
818197,001,2022-11-20_20h50.41.971,Info_measure_main_exp,2022.2.2,Win32,59.79788315,,,,,,,,,,,,,0,4,4,4,1,masks/mask_005.jpg,,,,,,,,,,,,,,,,,,,,,,,,,,,,,,,,,,,,,,,,,,,,,,,,,,,,,,,,,,,,,,,,,,,,,,,,,,,,,,,,,,,,,,,,,,,,,
818197,001,2022-11-20_20h50.41.971,Info_measure_main_exp,2022.2.2,Win32,59.79788315,,,,,,,,,,,,,,,,,,masks/mask_002.jpg,0,0,0,1,1,,,,,,,,,,,,,,,,,,,,,,,,,,,,,,,,,,,,,,,,,,,,,,,,,,,,,,,,,,,,,,,,,,,,,,,,,,,,,,,,,,,,,,,,
818197,001,2022-11-20_20h50.41.971,Info_measure_main_exp,2022.2.2,Win32,59.79788315,,,,,,,,,,,,,,,,,,masks/mask_001.jpg,0,1,1,0,1,,,,,,,,,,,,,,,,,,,,,,,,,,,,,,,,,,,,,,,,,,,,,,,,,,,,,,,,,,,,,,,,,,,,,,,,,,,,,,,,,,,,,,,,
818197,001,2022-11-20_20h50.41.971,Info_measure_main_exp,2022.2.2,Win32,59.79788315,,,,,,,,,,,,,,,,,,masks/mask_005.jpg,0,2,2,4,1,,,,,,,,,,,,,,,,,,,,,,,,,,,,,,,,,,,,,,,,,,,,,,,,,,,,,,,,,,,,,,,,,,,,,,,,,,,,,,,,,,,,,,,,
818197,001,2022-11-20_20h50.41.971,Info_measure_main_exp,2022.2.2,Win32,59.79788315,,,,,,,,,,,,,,,,,,masks/mask_004.jpg,0,3,3,3,1,,,,,,,,,,,,,,,,,,,,,,,,,,,,,,,,,,,,,,,,,,,,,,,,,,,,,,,,,,,,,,,,,,,,,,,,,,,,,,,,,,,,,,,,
818197,001,2022-11-20_20h50.41.971,Info_measure_main_exp,2022.2.2,Win32,59.79788315,,,,,,,,,,,,,,,,,,masks/mask_003.jpg,0,4,4,2,1,,,,,,,,,,,,,,,,,,,,,,,,,,,,,,,,,,,,,,,,,,,,,,,,,,,,,,,,,,,,,,,,,,,,,,,,,,,,,,,,,,,,,,,,
818197,001,2022-11-20_20h50.41.971,Info_measure_main_exp,2022.2.2,Win32,59.79788315,,,,,,,,,,,,,,,,,,,,,,,,0.154947917,-0.04296875,1,0,0,response3disk,5,142.2884,1,-0.001302083,-0.002604167,1,0,0,center_square,0,1,1,1,1,0,131,5,5,2514,2490,prac_patch/patch0002514.jpg,prac_patch/patch0002490.jpg,,,,,,,,,,,,,,,,,,,,,,,,,,,,,,,,,,,,,,,,,,,,,,,,,,,,,,,,,,,,
818197,001,2022-11-20_20h50.41.971,Info_measure_main_exp,2022.2.2,Win32,59.79788315,,,,,,,,,,,,,0,0,0,2,1,masks/mask_003.jpg,,,,,,,,,,,,,,,,,,,,,,,,,,,,,,,,,,,,,,,,,,,,,,,,,,,,,,,,,,,,,,,,,,,,,,,,,,,,,,,,,,,,,,,,,,,,,
818197,001,2022-11-20_20h50.41.971,Info_measure_main_exp,2022.2.2,Win32,59.79788315,,,,,,,,,,,,,0,1,1,1,1,masks/mask_002.jpg,,,,,,,,,,,,,,,,,,,,,,,,,,,,,,,,,,,,,,,,,,,,,,,,,,,,,,,,,,,,,,,,,,,,,,,,,,,,,,,,,,,,,,,,,,,,,
818197,001,2022-11-20_20h50.41.971,Info_measure_main_exp,2022.2.2,Win32,59.79788315,,,,,,,,,,,,,0,2,2,4,1,masks/mask_005.jpg,,,,,,,,,,,,,,,,,,,,,,,,,,,,,,,,,,,,,,,,,,,,,,,,,,,,,,,,,,,,,,,,,,,,,,,,,,,,,,,,,,,,,,,,,,,,,
818197,001,2022-11-20_20h50.41.971,Info_measure_main_exp,2022.2.2,Win32,59.79788315,,,,,,,,,,,,,0,3,3,0,1,masks/mask_001.jpg,,,,,,,,,,,,,,,,,,,,,,,,,,,,,,,,,,,,,,,,,,,,,,,,,,,,,,,,,,,,,,,,,,,,,,,,,,,,,,,,,,,,,,,,,,,,,
818197,001,2022-11-20_20h50.41.971,Info_measure_main_exp,2022.2.2,Win32,59.79788315,,,,,,,,,,,,,0,4,4,3,1,masks/mask_004.jpg,,,,,,,,,,,,,,,,,,,,,,,,,,,,,,,,,,,,,,,,,,,,,,,,,,,,,,,,,,,,,,,,,,,,,,,,,,,,,,,,,,,,,,,,,,,,,
818197,001,2022-11-20_20h50.41.971,Info_measure_main_exp,2022.2.2,Win32,59.79788315,,,,,,,,,,,,,,,,,,masks/mask_001.jpg,0,0,0,0,1,,,,,,,,,,,,,,,,,,,,,,,,,,,,,,,,,,,,,,,,,,,,,,,,,,,,,,,,,,,,,,,,,,,,,,,,,,,,,,,,,,,,,,,,
818197,001,2022-11-20_20h50.41.971,Info_measure_main_exp,2022.2.2,Win32,59.79788315,,,,,,,,,,,,,,,,,,masks/mask_003.jpg,0,1,1,2,1,,,,,,,,,,,,,,,,,,,,,,,,,,,,,,,,,,,,,,,,,,,,,,,,,,,,,,,,,,,,,,,,,,,,,,,,,,,,,,,,,,,,,,,,
818197,001,2022-11-20_20h50.41.971,Info_measure_main_exp,2022.2.2,Win32,59.79788315,,,,,,,,,,,,,,,,,,masks/mask_005.jpg,0,2,2,4,1,,,,,,,,,,,,,,,,,,,,,,,,,,,,,,,,,,,,,,,,,,,,,,,,,,,,,,,,,,,,,,,,,,,,,,,,,,,,,,,,,,,,,,,,
818197,001,2022-11-20_20h50.41.971,Info_measure_main_exp,2022.2.2,Win32,59.79788315,,,,,,,,,,,,,,,,,,masks/mask_004.jpg,0,3,3,3,1,,,,,,,,,,,,,,,,,,,,,,,,,,,,,,,,,,,,,,,,,,,,,,,,,,,,,,,,,,,,,,,,,,,,,,,,,,,,,,,,,,,,,,,,
818197,001,2022-11-20_20h50.41.971,Info_measure_main_exp,2022.2.2,Win32,59.79788315,,,,,,,,,,,,,,,,,,masks/mask_002.jpg,0,4,4,1,1,,,,,,,,,,,,,,,,,,,,,,,,,,,,,,,,,,,,,,,,,,,,,,,,,,,,,,,,,,,,,,,,,,,,,,,,,,,,,,,,,,,,,,,,
818197,001,2022-11-20_20h50.41.971,Info_measure_main_exp,2022.2.2,Win32,59.79788315,,,,,,,,,,,,,,,,,,,,,,,,0.083333333,0.135416667,1,0,0,response1disk,7,152.7091,1,0,-0.001302083,1,0,0,center_square,0,2,2,0,1,0,131,5,5,2370,2406,prac_patch/patch0002370.jpg,prac_patch/patch0002406.jpg,,,,,,,,,,,,,,,,,,,,,,,,,,,,,,,,,,,,,,,,,,,,,,,,,,,,,,,,,,,,
818197,001,2022-11-20_20h50.41.971,Info_measure_main_exp,2022.2.2,Win32,59.79788315,,,,,,,,,,,,,,,,,,,,,,,,,,,,,,,,,,,,,,,,,,,,,,,,,,,,,,,,,,,space,2.5047,,,,,,,,,,,,,,,,,,,,,,,,,,,,,,,,,,,,,,,,,,,,,,,,,,,
818197,001,2022-11-20_20h50.41.971,Info_measure_main_exp,2022.2.2,Win32,59.79788315,,,,,,,,,,,,,,,,,,masks/mask_003.jpg,,,,,,,,,,,,,,,,,,,,,,,,,,,,,,,,,,,,,,,,,,,0,0,0,2,1,,,,,,,,,,,,,,,,,,,,,,,,,,,,,,,,,,,,,,,,,,,,,,
818197,001,2022-11-20_20h50.41.971,Info_measure_main_exp,2022.2.2,Win32,59.79788315,,,,,,,,,,,,,,,,,,masks/mask_005.jpg,,,,,,,,,,,,,,,,,,,,,,,,,,,,,,,,,,,,,,,,,,,0,1,1,4,1,,,,,,,,,,,,,,,,,,,,,,,,,,,,,,,,,,,,,,,,,,,,,,
818197,001,2022-11-20_20h50.41.971,Info_measure_main_exp,2022.2.2,Win32,59.79788315,,,,,,,,,,,,,,,,,,masks/mask_004.jpg,,,,,,,,,,,,,,,,,,,,,,,,,,,,,,,,,,,,,,,,,,,0,2,2,3,1,,,,,,,,,,,,,,,,,,,,,,,,,,,,,,,,,,,,,,,,,,,,,,
818197,001,2022-11-20_20h50.41.971,Info_measure_main_exp,2022.2.2,Win32,59.79788315,,,,,,,,,,,,,,,,,,masks/mask_001.jpg,,,,,,,,,,,,,,,,,,,,,,,,,,,,,,,,,,,,,,,,,,,0,3,3,0,1,,,,,,,,,,,,,,,,,,,,,,,,,,,,,,,,,,,,,,,,,,,,,,
818197,001,2022-11-20_20h50.41.971,Info_measure_main_exp,2022.2.2,Win32,59.79788315,,,,,,,,,,,,,,,,,,masks/mask_002.jpg,,,,,,,,,,,,,,,,,,,,,,,,,,,,,,,,,,,,,,,,,,,0,4,4,1,1,,,,,,,,,,,,,,,,,,,,,,,,,,,,,,,,,,,,,,,,,,,,,,
818197,001,2022-11-20_20h50.41.971,Info_measure_main_exp,2022.2.2,Win32,59.79788315,,,,,,,,,,,,,,,,,,masks/mask_002.jpg,,,,,,,,,,,,,,,,,,,,,,,,,,,,,,,,,,,,,,,,,,,,,,,,0,0,0,1,1,,,,,,,,,,,,,,,,,,,,,,,,,,,,,,,,,,,,,,,,,
818197,001,2022-11-20_20h50.41.971,Info_measure_main_exp,2022.2.2,Win32,59.79788315,,,,,,,,,,,,,,,,,,masks/mask_004.jpg,,,,,,,,,,,,,,,,,,,,,,,,,,,,,,,,,,,,,,,,,,,,,,,,0,1,1,3,1,,,,,,,,,,,,,,,,,,,,,,,,,,,,,,,,,,,,,,,,,
818197,001,2022-11-20_20h50.41.971,Info_measure_main_exp,2022.2.2,Win32,59.79788315,,,,,,,,,,,,,,,,,,masks/mask_001.jpg,,,,,,,,,,,,,,,,,,,,,,,,,,,,,,,,,,,,,,,,,,,,,,,,0,2,2,0,1,,,,,,,,,,,,,,,,,,,,,,,,,,,,,,,,,,,,,,,,,
818197,001,2022-11-20_20h50.41.971,Info_measure_main_exp,2022.2.2,Win32,59.79788315,,,,,,,,,,,,,,,,,,masks/mask_003.jpg,,,,,,,,,,,,,,,,,,,,,,,,,,,,,,,,,,,,,,,,,,,,,,,,0,3,3,2,1,,,,,,,,,,,,,,,,,,,,,,,,,,,,,,,,,,,,,,,,,
818197,001,2022-11-20_20h50.41.971,Info_measure_main_exp,2022.2.2,Win32,59.79788315,,,,,,,,,,,,,,,,,,masks/mask_005.jpg,,,,,,,,,,,,,,,,,,,,,,,,,,,,,,,,,,,,,,,,,,,,,,,,0,4,4,4,1,,,,,,,,,,,,,,,,,,,,,,,,,,,,,,,,,,,,,,,,,
818197,001,2022-11-20_20h50.41.971,Info_measure_main_exp,2022.2.2,Win32,59.79788315,,,,,,,,,,,,,,,,,,,,,,,,,,,,,,7,3.6597,1,,,,,,,,,,,,0,131,5,5,2274,2250,absent_patch/patch0002274.jpg,absent_patch/patch0002250.jpg,,,,,,,,,,,,,,,,,,,,0.04296875,0.173177083,1,0,0,response1disk,1,-0.002604167,0,1,0,0,center_square,0,0,0,28,1,,,,,,,,,,,,,,,,,,,,,,,
818197,001,2022-11-20_20h50.41.971,Info_measure_main_exp,2022.2.2,Win32,59.79788315,,,,,,,,,,,,,,,,,,masks/mask_004.jpg,,,,,,,,,,,,,,,,,,,,,,,,,,,,,,,,,,,,,,,,,,,0,0,0,3,1,,,,,,,,,,,,,,,,,,,,,,,,,,,,,,,,,,,,,,,,,,,,,,
818197,001,2022-11-20_20h50.41.971,Info_measure_main_exp,2022.2.2,Win32,59.79788315,,,,,,,,,,,,,,,,,,masks/mask_001.jpg,,,,,,,,,,,,,,,,,,,,,,,,,,,,,,,,,,,,,,,,,,,0,1,1,0,1,,,,,,,,,,,,,,,,,,,,,,,,,,,,,,,,,,,,,,,,,,,,,,
818197,001,2022-11-20_20h50.41.971,Info_measure_main_exp,2022.2.2,Win32,59.79788315,,,,,,,,,,,,,,,,,,masks/mask_003.jpg,,,,,,,,,,,,,,,,,,,,,,,,,,,,,,,,,,,,,,,,,,,0,2,2,2,1,,,,,,,,,,,,,,,,,,,,,,,,,,,,,,,,,,,,,,,,,,,,,,
818197,001,2022-11-20_20h50.41.971,Info_measure_main_exp,2022.2.2,Win32,59.79788315,,,,,,,,,,,,,,,,,,masks/mask_005.jpg,,,,,,,,,,,,,,,,,,,,,,,,,,,,,,,,,,,,,,,,,,,0,3,3,4,1,,,,,,,,,,,,,,,,,,,,,,,,,,,,,,,,,,,,,,,,,,,,,,
818197,001,2022-11-20_20h50.41.971,Info_measure_main_exp,2022.2.2,Win32,59.79788315,,,,,,,,,,,,,,,,,,masks/mask_002.jpg,,,,,,,,,,,,,,,,,,,,,,,,,,,,,,,,,,,,,,,,,,,0,4,4,1,1,,,,,,,,,,,,,,,,,,,,,,,,,,,,,,,,,,,,,,,,,,,,,,
818197,001,2022-11-20_20h50.41.971,Info_measure_main_exp,2022.2.2,Win32,59.79788315,,,,,,,,,,,,,,,,,,masks/mask_004.jpg,,,,,,,,,,,,,,,,,,,,,,,,,,,,,,,,,,,,,,,,,,,,,,,,0,0,0,3,1,,,,,,,,,,,,,,,,,,,,,,,,,,,,,,,,,,,,,,,,,
818197,001,2022-11-20_20h50.41.971,Info_measure_main_exp,2022.2.2,Win32,59.79788315,,,,,,,,,,,,,,,,,,masks/mask_003.jpg,,,,,,,,,,,,,,,,,,,,,,,,,,,,,,,,,,,,,,,,,,,,,,,,0,1,1,2,1,,,,,,,,,,,,,,,,,,,,,,,,,,,,,,,,,,,,,,,,,
818197,001,2022-11-20_20h50.41.971,Info_measure_main_exp,2022.2.2,Win32,59.79788315,,,,,,,,,,,,,,,,,,masks/mask_001.jpg,,,,,,,,,,,,,,,,,,,,,,,,,,,,,,,,,,,,,,,,,,,,,,,,0,2,2,0,1,,,,,,,,,,,,,,,,,,,,,,,,,,,,,,,,,,,,,,,,,
818197,001,2022-11-20_20h50.41.971,Info_measure_main_exp,2022.2.2,Win32,59.79788315,,,,,,,,,,,,,,,,,,masks/mask_002.jpg,,,,,,,,,,,,,,,,,,,,,,,,,,,,,,,,,,,,,,,,,,,,,,,,0,3,3,1,1,,,,,,,,,,,,,,,,,,,,,,,,,,,,,,,,,,,,,,,,,
818197,001,2022-11-20_20h50.41.971,Info_measure_main_exp,2022.2.2,Win32,59.79788315,,,,,,,,,,,,,,,,,,masks/mask_005.jpg,,,,,,,,,,,,,,,,,,,,,,,,,,,,,,,,,,,,,,,,,,,,,,,,0,4,4,4,1,,,,,,,,,,,,,,,,,,,,,,,,,,,,,,,,,,,,,,,,,
818197,001,2022-11-20_20h50.41.971,Info_measure_main_exp,2022.2.2,Win32,59.79788315,,,,,,,,,,,,,,,,,,,,,,,,,,,,,,7,3.5629,1,,,,,,,,,,,,0,131,5,5,2154,2214,absent_patch/patch0002154.jpg,absent_patch/patch0002214.jpg,,,,,,,,,,,,,,,,,,,,0.057291667,0.140625,1,0,0,response1disk,2,0,-0.001302083,1,0,0,center_square,0,1,1,67,1,,,,,,,,,,,,,,,,,,,,,,,
818197,001,2022-11-20_20h50.41.971,Info_measure_main_exp,2022.2.2,Win32,59.79788315,,,,,,,,,,,,,,,,,,masks/mask_001.jpg,,,,,,,,,,,,,,,,,,,,,,,,,,,,,,,,,,,,,,,,,,,0,0,0,0,1,,,,,,,,,,,,,,,,,,,,,,,,,,,,,,,,,,,,,,,,,,,,,,
818197,001,2022-11-20_20h50.41.971,Info_measure_main_exp,2022.2.2,Win32,59.79788315,,,,,,,,,,,,,,,,,,masks/mask_003.jpg,,,,,,,,,,,,,,,,,,,,,,,,,,,,,,,,,,,,,,,,,,,0,1,1,2,1,,,,,,,,,,,,,,,,,,,,,,,,,,,,,,,,,,,,,,,,,,,,,,
818197,001,2022-11-20_20h50.41.971,Info_measure_main_exp,2022.2.2,Win32,59.79788315,,,,,,,,,,,,,,,,,,masks/mask_004.jpg,,,,,,,,,,,,,,,,,,,,,,,,,,,,,,,,,,,,,,,,,,,0,2,2,3,1,,,,,,,,,,,,,,,,,,,,,,,,,,,,,,,,,,,,,,,,,,,,,,
818197,001,2022-11-20_20h50.41.971,Info_measure_main_exp,2022.2.2,Win32,59.79788315,,,,,,,,,,,,,,,,,,masks/mask_002.jpg,,,,,,,,,,,,,,,,,,,,,,,,,,,,,,,,,,,,,,,,,,,0,3,3,1,1,,,,,,,,,,,,,,,,,,,,,,,,,,,,,,,,,,,,,,,,,,,,,,
818197,001,2022-11-20_20h50.41.971,Info_measure_main_exp,2022.2.2,Win32,59.79788315,,,,,,,,,,,,,,,,,,masks/mask_005.jpg,,,,,,,,,,,,,,,,,,,,,,,,,,,,,,,,,,,,,,,,,,,0,4,4,4,1,,,,,,,,,,,,,,,,,,,,,,,,,,,,,,,,,,,,,,,,,,,,,,
818197,001,2022-11-20_20h50.41.971,Info_measure_main_exp,2022.2.2,Win32,59.79788315,,,,,,,,,,,,,,,,,,masks/mask_002.jpg,,,,,,,,,,,,,,,,,,,,,,,,,,,,,,,,,,,,,,,,,,,,,,,,0,0,0,1,1,,,,,,,,,,,,,,,,,,,,,,,,,,,,,,,,,,,,,,,,,
818197,001,2022-11-20_20h50.41.971,Info_measure_main_exp,2022.2.2,Win32,59.79788315,,,,,,,,,,,,,,,,,,masks/mask_001.jpg,,,,,,,,,,,,,,,,,,,,,,,,,,,,,,,,,,,,,,,,,,,,,,,,0,1,1,0,1,,,,,,,,,,,,,,,,,,,,,,,,,,,,,,,,,,,,,,,,,
818197,001,2022-11-20_20h50.41.971,Info_measure_main_exp,2022.2.2,Win32,59.79788315,,,,,,,,,,,,,,,,,,masks/mask_003.jpg,,,,,,,,,,,,,,,,,,,,,,,,,,,,,,,,,,,,,,,,,,,,,,,,0,2,2,2,1,,,,,,,,,,,,,,,,,,,,,,,,,,,,,,,,,,,,,,,,,
818197,001,2022-11-20_20h50.41.971,Info_measure_main_exp,2022.2.2,Win32,59.79788315,,,,,,,,,,,,,,,,,,masks/mask_005.jpg,,,,,,,,,,,,,,,,,,,,,,,,,,,,,,,,,,,,,,,,,,,,,,,,0,3,3,4,1,,,,,,,,,,,,,,,,,,,,,,,,,,,,,,,,,,,,,,,,,
818197,001,2022-11-20_20h50.41.971,Info_measure_main_exp,2022.2.2,Win32,59.79788315,,,,,,,,,,,,,,,,,,masks/mask_004.jpg,,,,,,,,,,,,,,,,,,,,,,,,,,,,,,,,,,,,,,,,,,,,,,,,0,4,4,3,1,,,,,,,,,,,,,,,,,,,,,,,,,,,,,,,,,,,,,,,,,
818197,001,2022-11-20_20h50.41.971,Info_measure_main_exp,2022.2.2,Win32,59.79788315,,,,,,,,,,,,,,,,,,,,,,,,,,,,,,7,0.8363,1,,,,,,,,,,,,0,131,5,5,1986,1950,absent_patch/patch0001986.jpg,absent_patch/patch0001950.jpg,,,,,,,,,,,,,,,,,,,,0.07421875,0.141927083,1,0,0,response1disk,3,0.005208333,0.001302083,1,0,0,center_square,0,2,2,15,1,,,,,,,,,,,,,,,,,,,,,,,
818197,001,2022-11-20_20h50.41.971,Info_measure_main_exp,2022.2.2,Win32,59.79788315,,,,,,,,,,,,,,,,,,masks/mask_002.jpg,,,,,,,,,,,,,,,,,,,,,,,,,,,,,,,,,,,,,,,,,,,0,0,0,1,1,,,,,,,,,,,,,,,,,,,,,,,,,,,,,,,,,,,,,,,,,,,,,,
818197,001,2022-11-20_20h50.41.971,Info_measure_main_exp,2022.2.2,Win32,59.79788315,,,,,,,,,,,,,,,,,,masks/mask_001.jpg,,,,,,,,,,,,,,,,,,,,,,,,,,,,,,,,,,,,,,,,,,,0,1,1,0,1,,,,,,,,,,,,,,,,,,,,,,,,,,,,,,,,,,,,,,,,,,,,,,
818197,001,2022-11-20_20h50.41.971,Info_measure_main_exp,2022.2.2,Win32,59.79788315,,,,,,,,,,,,,,,,,,masks/mask_004.jpg,,,,,,,,,,,,,,,,,,,,,,,,,,,,,,,,,,,,,,,,,,,0,2,2,3,1,,,,,,,,,,,,,,,,,,,,,,,,,,,,,,,,,,,,,,,,,,,,,,
818197,001,2022-11-20_20h50.41.971,Info_measure_main_exp,2022.2.2,Win32,59.79788315,,,,,,,,,,,,,,,,,,masks/mask_005.jpg,,,,,,,,,,,,,,,,,,,,,,,,,,,,,,,,,,,,,,,,,,,0,3,3,4,1,,,,,,,,,,,,,,,,,,,,,,,,,,,,,,,,,,,,,,,,,,,,,,
818197,001,2022-11-20_20h50.41.971,Info_measure_main_exp,2022.2.2,Win32,59.79788315,,,,,,,,,,,,,,,,,,masks/mask_003.jpg,,,,,,,,,,,,,,,,,,,,,,,,,,,,,,,,,,,,,,,,,,,0,4,4,2,1,,,,,,,,,,,,,,,,,,,,,,,,,,,,,,,,,,,,,,,,,,,,,,
818197,001,2022-11-20_20h50.41.971,Info_measure_main_exp,2022.2.2,Win32,59.79788315,,,,,,,,,,,,,,,,,,masks/mask_001.jpg,,,,,,,,,,,,,,,,,,,,,,,,,,,,,,,,,,,,,,,,,,,,,,,,0,0,0,0,1,,,,,,,,,,,,,,,,,,,,,,,,,,,,,,,,,,,,,,,,,
818197,001,2022-11-20_20h50.41.971,Info_measure_main_exp,2022.2.2,Win32,59.79788315,,,,,,,,,,,,,,,,,,masks/mask_004.jpg,,,,,,,,,,,,,,,,,,,,,,,,,,,,,,,,,,,,,,,,,,,,,,,,0,1,1,3,1,,,,,,,,,,,,,,,,,,,,,,,,,,,,,,,,,,,,,,,,,
818197,001,2022-11-20_20h50.41.971,Info_measure_main_exp,2022.2.2,Win32,59.79788315,,,,,,,,,,,,,,,,,,masks/mask_003.jpg,,,,,,,,,,,,,,,,,,,,,,,,,,,,,,,,,,,,,,,,,,,,,,,,0,2,2,2,1,,,,,,,,,,,,,,,,,,,,,,,,,,,,,,,,,,,,,,,,,
818197,001,2022-11-20_20h50.41.971,Info_measure_main_exp,2022.2.2,Win32,59.79788315,,,,,,,,,,,,,,,,,,masks/mask_005.jpg,,,,,,,,,,,,,,,,,,,,,,,,,,,,,,,,,,,,,,,,,,,,,,,,0,3,3,4,1,,,,,,,,,,,,,,,,,,,,,,,,,,,,,,,,,,,,,,,,,
818197,001,2022-11-20_20h50.41.971,Info_measure_main_exp,2022.2.2,Win32,59.79788315,,,,,,,,,,,,,,,,,,masks/mask_002.jpg,,,,,,,,,,,,,,,,,,,,,,,,,,,,,,,,,,,,,,,,,,,,,,,,0,4,4,1,1,,,,,,,,,,,,,,,,,,,,,,,,,,,,,,,,,,,,,,,,,
818197,001,2022-11-20_20h50.41.971,Info_measure_main_exp,2022.2.2,Win32,59.79788315,,,,,,,,,,,,,,,,,,,,,,,,,,,,,,7,0.586,1,,,,,,,,,,,,0,131,5,5,2190,2250,absent_patch/patch0002190.jpg,absent_patch/patch0002250.jpg,,,,,,,,,,,,,,,,,,,,0.067708333,0.140625,1,0,0,response1disk,4,-0.002604167,0.00390625,1,0,0,center_square,0,3,3,93,1,,,,,,,,,,,,,,,,,,,,,,,
818197,001,2022-11-20_20h50.41.971,Info_measure_main_exp,2022.2.2,Win32,59.79788315,,,,,,,,,,,,,,,,,,masks/mask_004.jpg,,,,,,,,,,,,,,,,,,,,,,,,,,,,,,,,,,,,,,,,,,,0,0,0,3,1,,,,,,,,,,,,,,,,,,,,,,,,,,,,,,,,,,,,,,,,,,,,,,
818197,001,2022-11-20_20h50.41.971,Info_measure_main_exp,2022.2.2,Win32,59.79788315,,,,,,,,,,,,,,,,,,masks/mask_003.jpg,,,,,,,,,,,,,,,,,,,,,,,,,,,,,,,,,,,,,,,,,,,0,1,1,2,1,,,,,,,,,,,,,,,,,,,,,,,,,,,,,,,,,,,,,,,,,,,,,,
818197,001,2022-11-20_20h50.41.971,Info_measure_main_exp,2022.2.2,Win32,59.79788315,,,,,,,,,,,,,,,,,,masks/mask_002.jpg,,,,,,,,,,,,,,,,,,,,,,,,,,,,,,,,,,,,,,,,,,,0,2,2,1,1,,,,,,,,,,,,,,,,,,,,,,,,,,,,,,,,,,,,,,,,,,,,,,
818197,001,2022-11-20_20h50.41.971,Info_measure_main_exp,2022.2.2,Win32,59.79788315,,,,,,,,,,,,,,,,,,masks/mask_005.jpg,,,,,,,,,,,,,,,,,,,,,,,,,,,,,,,,,,,,,,,,,,,0,3,3,4,1,,,,,,,,,,,,,,,,,,,,,,,,,,,,,,,,,,,,,,,,,,,,,,
818197,001,2022-11-20_20h50.41.971,Info_measure_main_exp,2022.2.2,Win32,59.79788315,,,,,,,,,,,,,,,,,,masks/mask_001.jpg,,,,,,,,,,,,,,,,,,,,,,,,,,,,,,,,,,,,,,,,,,,0,4,4,0,1,,,,,,,,,,,,,,,,,,,,,,,,,,,,,,,,,,,,,,,,,,,,,,
818197,001,2022-11-20_20h50.41.971,Info_measure_main_exp,2022.2.2,Win32,59.79788315,,,,,,,,,,,,,,,,,,masks/mask_002.jpg,,,,,,,,,,,,,,,,,,,,,,,,,,,,,,,,,,,,,,,,,,,,,,,,0,0,0,1,1,,,,,,,,,,,,,,,,,,,,,,,,,,,,,,,,,,,,,,,,,
818197,001,2022-11-20_20h50.41.971,Info_measure_main_exp,2022.2.2,Win32,59.79788315,,,,,,,,,,,,,,,,,,masks/mask_004.jpg,,,,,,,,,,,,,,,,,,,,,,,,,,,,,,,,,,,,,,,,,,,,,,,,0,1,1,3,1,,,,,,,,,,,,,,,,,,,,,,,,,,,,,,,,,,,,,,,,,
818197,001,2022-11-20_20h50.41.971,Info_measure_main_exp,2022.2.2,Win32,59.79788315,,,,,,,,,,,,,,,,,,masks/mask_001.jpg,,,,,,,,,,,,,,,,,,,,,,,,,,,,,,,,,,,,,,,,,,,,,,,,0,2,2,0,1,,,,,,,,,,,,,,,,,,,,,,,,,,,,,,,,,,,,,,,,,
818197,001,2022-11-20_20h50.41.971,Info_measure_main_exp,2022.2.2,Win32,59.79788315,,,,,,,,,,,,,,,,,,masks/mask_005.jpg,,,,,,,,,,,,,,,,,,,,,,,,,,,,,,,,,,,,,,,,,,,,,,,,0,3,3,4,1,,,,,,,,,,,,,,,,,,,,,,,,,,,,,,,,,,,,,,,,,
818197,001,2022-11-20_20h50.41.971,Info_measure_main_exp,2022.2.2,Win32,59.79788315,,,,,,,,,,,,,,,,,,masks/mask_003.jpg,,,,,,,,,,,,,,,,,,,,,,,,,,,,,,,,,,,,,,,,,,,,,,,,0,4,4,2,1,,,,,,,,,,,,,,,,,,,,,,,,,,,,,,,,,,,,,,,,,
818197,001,2022-11-20_20h50.41.971,Info_measure_main_exp,2022.2.2,Win32,59.79788315,,,,,,,,,,,,,,,,,,,,,,,,,,,,,,6,1.2879,1,,,,,,,,,,,,0,131,5,5,2154,2298,absent_patch/patch0002154.jpg,absent_patch/patch0002298.jpg,,,,,,,,,,,,,,,,,,,,0.123697917,0.03125,1,0,0,response1disk,5,0,0.00390625,1,0,0,center_square,0,4,4,27,1,,,,,,,,,,,,,,,,,,,,,,,
818197,001,2022-11-20_20h50.41.971,Info_measure_main_exp,2022.2.2,Win32,59.79788315,,,,,,,,,,,,,,,,,,masks/mask_003.jpg,,,,,,,,,,,,,,,,,,,,,,,,,,,,,,,,,,,,,,,,,,,0,0,0,2,1,,,,,,,,,,,,,,,,,,,,,,,,,,,,,,,,,,,,,,,,,,,,,,
818197,001,2022-11-20_20h50.41.971,Info_measure_main_exp,2022.2.2,Win32,59.79788315,,,,,,,,,,,,,,,,,,masks/mask_005.jpg,,,,,,,,,,,,,,,,,,,,,,,,,,,,,,,,,,,,,,,,,,,0,1,1,4,1,,,,,,,,,,,,,,,,,,,,,,,,,,,,,,,,,,,,,,,,,,,,,,
818197,001,2022-11-20_20h50.41.971,Info_measure_main_exp,2022.2.2,Win32,59.79788315,,,,,,,,,,,,,,,,,,masks/mask_001.jpg,,,,,,,,,,,,,,,,,,,,,,,,,,,,,,,,,,,,,,,,,,,0,2,2,0,1,,,,,,,,,,,,,,,,,,,,,,,,,,,,,,,,,,,,,,,,,,,,,,
818197,001,2022-11-20_20h50.41.971,Info_measure_main_exp,2022.2.2,Win32,59.79788315,,,,,,,,,,,,,,,,,,masks/mask_004.jpg,,,,,,,,,,,,,,,,,,,,,,,,,,,,,,,,,,,,,,,,,,,0,3,3,3,1,,,,,,,,,,,,,,,,,,,,,,,,,,,,,,,,,,,,,,,,,,,,,,
818197,001,2022-11-20_20h50.41.971,Info_measure_main_exp,2022.2.2,Win32,59.79788315,,,,,,,,,,,,,,,,,,masks/mask_002.jpg,,,,,,,,,,,,,,,,,,,,,,,,,,,,,,,,,,,,,,,,,,,0,4,4,1,1,,,,,,,,,,,,,,,,,,,,,,,,,,,,,,,,,,,,,,,,,,,,,,
818197,001,2022-11-20_20h50.41.971,Info_measure_main_exp,2022.2.2,Win32,59.79788315,,,,,,,,,,,,,,,,,,masks/mask_001.jpg,,,,,,,,,,,,,,,,,,,,,,,,,,,,,,,,,,,,,,,,,,,,,,,,0,0,0,0,1,,,,,,,,,,,,,,,,,,,,,,,,,,,,,,,,,,,,,,,,,
818197,001,2022-11-20_20h50.41.971,Info_measure_main_exp,2022.2.2,Win32,59.79788315,,,,,,,,,,,,,,,,,,masks/mask_005.jpg,,,,,,,,,,,,,,,,,,,,,,,,,,,,,,,,,,,,,,,,,,,,,,,,0,1,1,4,1,,,,,,,,,,,,,,,,,,,,,,,,,,,,,,,,,,,,,,,,,
818197,001,2022-11-20_20h50.41.971,Info_measure_main_exp,2022.2.2,Win32,59.79788315,,,,,,,,,,,,,,,,,,masks/mask_003.jpg,,,,,,,,,,,,,,,,,,,,,,,,,,,,,,,,,,,,,,,,,,,,,,,,0,2,2,2,1,,,,,,,,,,,,,,,,,,,,,,,,,,,,,,,,,,,,,,,,,
818197,001,2022-11-20_20h50.41.971,Info_measure_main_exp,2022.2.2,Win32,59.79788315,,,,,,,,,,,,,,,,,,masks/mask_004.jpg,,,,,,,,,,,,,,,,,,,,,,,,,,,,,,,,,,,,,,,,,,,,,,,,0,3,3,3,1,,,,,,,,,,,,,,,,,,,,,,,,,,,,,,,,,,,,,,,,,
818197,001,2022-11-20_20h50.41.971,Info_measure_main_exp,2022.2.2,Win32,59.79788315,,,,,,,,,,,,,,,,,,masks/mask_002.jpg,,,,,,,,,,,,,,,,,,,,,,,,,,,,,,,,,,,,,,,,,,,,,,,,0,4,4,1,1,,,,,,,,,,,,,,,,,,,,,,,,,,,,,,,,,,,,,,,,,
818197,001,2022-11-20_20h50.41.971,Info_measure_main_exp,2022.2.2,Win32,59.79788315,,,,,,,,,,,,,,,,,,,,,,,,,,,,,,0,1.522,1,,,,,,,,,,,,0,131,5,5,2238,2238,absent_patch/patch0002238.jpg,absent_patch/patch0002238.jpg,,,,,,,,,,,,,,,,,,,,-0.083333333,0.125,1,0,0,response7disk,6,-0.006510417,0.00390625,1,0,0,center_square,0,5,5,58,1,,,,,,,,,,,,,,,,,,,,,,,
818197,001,2022-11-20_20h50.41.971,Info_measure_main_exp,2022.2.2,Win32,59.79788315,,,,,,,,,,,,,,,,,,masks/mask_005.jpg,,,,,,,,,,,,,,,,,,,,,,,,,,,,,,,,,,,,,,,,,,,0,0,0,4,1,,,,,,,,,,,,,,,,,,,,,,,,,,,,,,,,,,,,,,,,,,,,,,
818197,001,2022-11-20_20h50.41.971,Info_measure_main_exp,2022.2.2,Win32,59.79788315,,,,,,,,,,,,,,,,,,masks/mask_004.jpg,,,,,,,,,,,,,,,,,,,,,,,,,,,,,,,,,,,,,,,,,,,0,1,1,3,1,,,,,,,,,,,,,,,,,,,,,,,,,,,,,,,,,,,,,,,,,,,,,,
818197,001,2022-11-20_20h50.41.971,Info_measure_main_exp,2022.2.2,Win32,59.79788315,,,,,,,,,,,,,,,,,,masks/mask_001.jpg,,,,,,,,,,,,,,,,,,,,,,,,,,,,,,,,,,,,,,,,,,,0,2,2,0,1,,,,,,,,,,,,,,,,,,,,,,,,,,,,,,,,,,,,,,,,,,,,,,
818197,001,2022-11-20_20h50.41.971,Info_measure_main_exp,2022.2.2,Win32,59.79788315,,,,,,,,,,,,,,,,,,masks/mask_002.jpg,,,,,,,,,,,,,,,,,,,,,,,,,,,,,,,,,,,,,,,,,,,0,3,3,1,1,,,,,,,,,,,,,,,,,,,,,,,,,,,,,,,,,,,,,,,,,,,,,,
818197,001,2022-11-20_20h50.41.971,Info_measure_main_exp,2022.2.2,Win32,59.79788315,,,,,,,,,,,,,,,,,,masks/mask_003.jpg,,,,,,,,,,,,,,,,,,,,,,,,,,,,,,,,,,,,,,,,,,,0,4,4,2,1,,,,,,,,,,,,,,,,,,,,,,,,,,,,,,,,,,,,,,,,,,,,,,
818197,001,2022-11-20_20h50.41.971,Info_measure_main_exp,2022.2.2,Win32,59.79788315,,,,,,,,,,,,,,,,,,masks/mask_001.jpg,,,,,,,,,,,,,,,,,,,,,,,,,,,,,,,,,,,,,,,,,,,,,,,,0,0,0,0,1,,,,,,,,,,,,,,,,,,,,,,,,,,,,,,,,,,,,,,,,,
818197,001,2022-11-20_20h50.41.971,Info_measure_main_exp,2022.2.2,Win32,59.79788315,,,,,,,,,,,,,,,,,,masks/mask_002.jpg,,,,,,,,,,,,,,,,,,,,,,,,,,,,,,,,,,,,,,,,,,,,,,,,0,1,1,1,1,,,,,,,,,,,,,,,,,,,,,,,,,,,,,,,,,,,,,,,,,
818197,001,2022-11-20_20h50.41.971,Info_measure_main_exp,2022.2.2,Win32,59.79788315,,,,,,,,,,,,,,,,,,masks/mask_005.jpg,,,,,,,,,,,,,,,,,,,,,,,,,,,,,,,,,,,,,,,,,,,,,,,,0,2,2,4,1,,,,,,,,,,,,,,,,,,,,,,,,,,,,,,,,,,,,,,,,,
818197,001,2022-11-20_20h50.41.971,Info_measure_main_exp,2022.2.2,Win32,59.79788315,,,,,,,,,,,,,,,,,,masks/mask_004.jpg,,,,,,,,,,,,,,,,,,,,,,,,,,,,,,,,,,,,,,,,,,,,,,,,0,3,3,3,1,,,,,,,,,,,,,,,,,,,,,,,,,,,,,,,,,,,,,,,,,
818197,001,2022-11-20_20h50.41.971,Info_measure_main_exp,2022.2.2,Win32,59.79788315,,,,,,,,,,,,,,,,,,masks/mask_003.jpg,,,,,,,,,,,,,,,,,,,,,,,,,,,,,,,,,,,,,,,,,,,,,,,,0,4,4,2,1,,,,,,,,,,,,,,,,,,,,,,,,,,,,,,,,,,,,,,,,,
818197,001,2022-11-20_20h50.41.971,Info_measure_main_exp,2022.2.2,Win32,59.79788315,,,,,,,,,,,,,,,,,,,,,,,,,,,,,,6,2.1422,1,,,,,,,,,,,,1,131,5,5,2190,1,absent_patch/patch0002190.jpg,present_patch/cong_131_5_a.jpg,,,,,,,,,,,,,,,,,,,,0.138020833,0.041666667,1,0,0,response1disk,7,-0.002604167,0.006510417,1,0,0,center_square,0,6,6,64,1,,,,,,,,,,,,,,,,,,,,,,,
818197,001,2022-11-20_20h50.41.971,Info_measure_main_exp,2022.2.2,Win32,59.79788315,,,,,,,,,,,,,,,,,,masks/mask_005.jpg,,,,,,,,,,,,,,,,,,,,,,,,,,,,,,,,,,,,,,,,,,,0,0,0,4,1,,,,,,,,,,,,,,,,,,,,,,,,,,,,,,,,,,,,,,,,,,,,,,
818197,001,2022-11-20_20h50.41.971,Info_measure_main_exp,2022.2.2,Win32,59.79788315,,,,,,,,,,,,,,,,,,masks/mask_001.jpg,,,,,,,,,,,,,,,,,,,,,,,,,,,,,,,,,,,,,,,,,,,0,1,1,0,1,,,,,,,,,,,,,,,,,,,,,,,,,,,,,,,,,,,,,,,,,,,,,,
818197,001,2022-11-20_20h50.41.971,Info_measure_main_exp,2022.2.2,Win32,59.79788315,,,,,,,,,,,,,,,,,,masks/mask_002.jpg,,,,,,,,,,,,,,,,,,,,,,,,,,,,,,,,,,,,,,,,,,,0,2,2,1,1,,,,,,,,,,,,,,,,,,,,,,,,,,,,,,,,,,,,,,,,,,,,,,
818197,001,2022-11-20_20h50.41.971,Info_measure_main_exp,2022.2.2,Win32,59.79788315,,,,,,,,,,,,,,,,,,masks/mask_004.jpg,,,,,,,,,,,,,,,,,,,,,,,,,,,,,,,,,,,,,,,,,,,0,3,3,3,1,,,,,,,,,,,,,,,,,,,,,,,,,,,,,,,,,,,,,,,,,,,,,,
818197,001,2022-11-20_20h50.41.971,Info_measure_main_exp,2022.2.2,Win32,59.79788315,,,,,,,,,,,,,,,,,,masks/mask_003.jpg,,,,,,,,,,,,,,,,,,,,,,,,,,,,,,,,,,,,,,,,,,,0,4,4,2,1,,,,,,,,,,,,,,,,,,,,,,,,,,,,,,,,,,,,,,,,,,,,,,
818197,001,2022-11-20_20h50.41.971,Info_measure_main_exp,2022.2.2,Win32,59.79788315,,,,,,,,,,,,,,,,,,masks/mask_004.jpg,,,,,,,,,,,,,,,,,,,,,,,,,,,,,,,,,,,,,,,,,,,,,,,,0,0,0,3,1,,,,,,,,,,,,,,,,,,,,,,,,,,,,,,,,,,,,,,,,,
818197,001,2022-11-20_20h50.41.971,Info_measure_main_exp,2022.2.2,Win32,59.79788315,,,,,,,,,,,,,,,,,,masks/mask_001.jpg,,,,,,,,,,,,,,,,,,,,,,,,,,,,,,,,,,,,,,,,,,,,,,,,0,1,1,0,1,,,,,,,,,,,,,,,,,,,,,,,,,,,,,,,,,,,,,,,,,
818197,001,2022-11-20_20h50.41.971,Info_measure_main_exp,2022.2.2,Win32,59.79788315,,,,,,,,,,,,,,,,,,masks/mask_002.jpg,,,,,,,,,,,,,,,,,,,,,,,,,,,,,,,,,,,,,,,,,,,,,,,,0,2,2,1,1,,,,,,,,,,,,,,,,,,,,,,,,,,,,,,,,,,,,,,,,,
818197,001,2022-11-20_20h50.41.971,Info_measure_main_exp,2022.2.2,Win32,59.79788315,,,,,,,,,,,,,,,,,,masks/mask_003.jpg,,,,,,,,,,,,,,,,,,,,,,,,,,,,,,,,,,,,,,,,,,,,,,,,0,3,3,2,1,,,,,,,,,,,,,,,,,,,,,,,,,,,,,,,,,,,,,,,,,
818197,001,2022-11-20_20h50.41.971,Info_measure_main_exp,2022.2.2,Win32,59.79788315,,,,,,,,,,,,,,,,,,masks/mask_005.jpg,,,,,,,,,,,,,,,,,,,,,,,,,,,,,,,,,,,,,,,,,,,,,,,,0,4,4,4,1,,,,,,,,,,,,,,,,,,,,,,,,,,,,,,,,,,,,,,,,,
818197,001,2022-11-20_20h50.41.971,Info_measure_main_exp,2022.2.2,Win32,59.79788315,,,,,,,,,,,,,,,,,,,,,,,,,,,,,,4,2.4427,1,,,,,,,,,,,,0,131,5,5,1974,2178,absent_patch/patch0001974.jpg,absent_patch/patch0002178.jpg,,,,,,,,,,,,,,,,,,,,0.018229167,-0.139322917,1,0,0,response3disk,8,-0.00390625,-0.005208333,1,0,0,center_square,0,7,7,44,1,,,,,,,,,,,,,,,,,,,,,,,
818197,001,2022-11-20_20h50.41.971,Info_measure_main_exp,2022.2.2,Win32,59.79788315,,,,,,,,,,,,,,,,,,masks/mask_004.jpg,,,,,,,,,,,,,,,,,,,,,,,,,,,,,,,,,,,,,,,,,,,0,0,0,3,1,,,,,,,,,,,,,,,,,,,,,,,,,,,,,,,,,,,,,,,,,,,,,,
818197,001,2022-11-20_20h50.41.971,Info_measure_main_exp,2022.2.2,Win32,59.79788315,,,,,,,,,,,,,,,,,,masks/mask_001.jpg,,,,,,,,,,,,,,,,,,,,,,,,,,,,,,,,,,,,,,,,,,,0,1,1,0,1,,,,,,,,,,,,,,,,,,,,,,,,,,,,,,,,,,,,,,,,,,,,,,
818197,001,2022-11-20_20h50.41.971,Info_measure_main_exp,2022.2.2,Win32,59.79788315,,,,,,,,,,,,,,,,,,masks/mask_002.jpg,,,,,,,,,,,,,,,,,,,,,,,,,,,,,,,,,,,,,,,,,,,0,2,2,1,1,,,,,,,,,,,,,,,,,,,,,,,,,,,,,,,,,,,,,,,,,,,,,,
818197,001,2022-11-20_20h50.41.971,Info_measure_main_exp,2022.2.2,Win32,59.79788315,,,,,,,,,,,,,,,,,,masks/mask_003.jpg,,,,,,,,,,,,,,,,,,,,,,,,,,,,,,,,,,,,,,,,,,,0,3,3,2,1,,,,,,,,,,,,,,,,,,,,,,,,,,,,,,,,,,,,,,,,,,,,,,
818197,001,2022-11-20_20h50.41.971,Info_measure_main_exp,2022.2.2,Win32,59.79788315,,,,,,,,,,,,,,,,,,masks/mask_005.jpg,,,,,,,,,,,,,,,,,,,,,,,,,,,,,,,,,,,,,,,,,,,0,4,4,4,1,,,,,,,,,,,,,,,,,,,,,,,,,,,,,,,,,,,,,,,,,,,,,,
818197,001,2022-11-20_20h50.41.971,Info_measure_main_exp,2022.2.2,Win32,59.79788315,,,,,,,,,,,,,,,,,,masks/mask_003.jpg,,,,,,,,,,,,,,,,,,,,,,,,,,,,,,,,,,,,,,,,,,,,,,,,0,0,0,2,1,,,,,,,,,,,,,,,,,,,,,,,,,,,,,,,,,,,,,,,,,
818197,001,2022-11-20_20h50.41.971,Info_measure_main_exp,2022.2.2,Win32,59.79788315,,,,,,,,,,,,,,,,,,masks/mask_004.jpg,,,,,,,,,,,,,,,,,,,,,,,,,,,,,,,,,,,,,,,,,,,,,,,,0,1,1,3,1,,,,,,,,,,,,,,,,,,,,,,,,,,,,,,,,,,,,,,,,,
818197,001,2022-11-20_20h50.41.971,Info_measure_main_exp,2022.2.2,Win32,59.79788315,,,,,,,,,,,,,,,,,,masks/mask_002.jpg,,,,,,,,,,,,,,,,,,,,,,,,,,,,,,,,,,,,,,,,,,,,,,,,0,2,2,1,1,,,,,,,,,,,,,,,,,,,,,,,,,,,,,,,,,,,,,,,,,
818197,001,2022-11-20_20h50.41.971,Info_measure_main_exp,2022.2.2,Win32,59.79788315,,,,,,,,,,,,,,,,,,masks/mask_001.jpg,,,,,,,,,,,,,,,,,,,,,,,,,,,,,,,,,,,,,,,,,,,,,,,,0,3,3,0,1,,,,,,,,,,,,,,,,,,,,,,,,,,,,,,,,,,,,,,,,,
818197,001,2022-11-20_20h50.41.971,Info_measure_main_exp,2022.2.2,Win32,59.79788315,,,,,,,,,,,,,,,,,,masks/mask_005.jpg,,,,,,,,,,,,,,,,,,,,,,,,,,,,,,,,,,,,,,,,,,,,,,,,0,4,4,4,1,,,,,,,,,,,,,,,,,,,,,,,,,,,,,,,,,,,,,,,,,
818197,001,2022-11-20_20h50.41.971,Info_measure_main_exp,2022.2.2,Win32,59.79788315,,,,,,,,,,,,,,,,,,,,,,,,,,,,,,0,1.4051,1,,,,,,,,,,,,0,131,5,5,2154,2154,absent_patch/patch0002154.jpg,absent_patch/patch0002154.jpg,,,,,,,,,,,,,,,,,,,,-0.083333333,0.111979167,1,0,0,response7disk,9,0.001302083,0.001302083,1,0,0,center_square,0,8,8,89,1,,,,,,,,,,,,,,,,,,,,,,,
818197,001,2022-11-20_20h50.41.971,Info_measure_main_exp,2022.2.2,Win32,59.79788315,,,,,,,,,,,,,,,,,,masks/mask_003.jpg,,,,,,,,,,,,,,,,,,,,,,,,,,,,,,,,,,,,,,,,,,,0,0,0,2,1,,,,,,,,,,,,,,,,,,,,,,,,,,,,,,,,,,,,,,,,,,,,,,
818197,001,2022-11-20_20h50.41.971,Info_measure_main_exp,2022.2.2,Win32,59.79788315,,,,,,,,,,,,,,,,,,masks/mask_005.jpg,,,,,,,,,,,,,,,,,,,,,,,,,,,,,,,,,,,,,,,,,,,0,1,1,4,1,,,,,,,,,,,,,,,,,,,,,,,,,,,,,,,,,,,,,,,,,,,,,,
818197,001,2022-11-20_20h50.41.971,Info_measure_main_exp,2022.2.2,Win32,59.79788315,,,,,,,,,,,,,,,,,,masks/mask_001.jpg,,,,,,,,,,,,,,,,,,,,,,,,,,,,,,,,,,,,,,,,,,,0,2,2,0,1,,,,,,,,,,,,,,,,,,,,,,,,,,,,,,,,,,,,,,,,,,,,,,
818197,001,2022-11-20_20h50.41.971,Info_measure_main_exp,2022.2.2,Win32,59.79788315,,,,,,,,,,,,,,,,,,masks/mask_002.jpg,,,,,,,,,,,,,,,,,,,,,,,,,,,,,,,,,,,,,,,,,,,0,3,3,1,1,,,,,,,,,,,,,,,,,,,,,,,,,,,,,,,,,,,,,,,,,,,,,,
818197,001,2022-11-20_20h50.41.971,Info_measure_main_exp,2022.2.2,Win32,59.79788315,,,,,,,,,,,,,,,,,,masks/mask_004.jpg,,,,,,,,,,,,,,,,,,,,,,,,,,,,,,,,,,,,,,,,,,,0,4,4,3,1,,,,,,,,,,,,,,,,,,,,,,,,,,,,,,,,,,,,,,,,,,,,,,
818197,001,2022-11-20_20h50.41.971,Info_measure_main_exp,2022.2.2,Win32,59.79788315,,,,,,,,,,,,,,,,,,masks/mask_003.jpg,,,,,,,,,,,,,,,,,,,,,,,,,,,,,,,,,,,,,,,,,,,,,,,,0,0,0,2,1,,,,,,,,,,,,,,,,,,,,,,,,,,,,,,,,,,,,,,,,,
818197,001,2022-11-20_20h50.41.971,Info_measure_main_exp,2022.2.2,Win32,59.79788315,,,,,,,,,,,,,,,,,,masks/mask_001.jpg,,,,,,,,,,,,,,,,,,,,,,,,,,,,,,,,,,,,,,,,,,,,,,,,0,1,1,0,1,,,,,,,,,,,,,,,,,,,,,,,,,,,,,,,,,,,,,,,,,
818197,001,2022-11-20_20h50.41.971,Info_measure_main_exp,2022.2.2,Win32,59.79788315,,,,,,,,,,,,,,,,,,masks/mask_005.jpg,,,,,,,,,,,,,,,,,,,,,,,,,,,,,,,,,,,,,,,,,,,,,,,,0,2,2,4,1,,,,,,,,,,,,,,,,,,,,,,,,,,,,,,,,,,,,,,,,,
818197,001,2022-11-20_20h50.41.971,Info_measure_main_exp,2022.2.2,Win32,59.79788315,,,,,,,,,,,,,,,,,,masks/mask_002.jpg,,,,,,,,,,,,,,,,,,,,,,,,,,,,,,,,,,,,,,,,,,,,,,,,0,3,3,1,1,,,,,,,,,,,,,,,,,,,,,,,,,,,,,,,,,,,,,,,,,
818197,001,2022-11-20_20h50.41.971,Info_measure_main_exp,2022.2.2,Win32,59.79788315,,,,,,,,,,,,,,,,,,masks/mask_004.jpg,,,,,,,,,,,,,,,,,,,,,,,,,,,,,,,,,,,,,,,,,,,,,,,,0,4,4,3,1,,,,,,,,,,,,,,,,,,,,,,,,,,,,,,,,,,,,,,,,,
818197,001,2022-11-20_20h50.41.971,Info_measure_main_exp,2022.2.2,Win32,59.79788315,,,,,,,,,,,,,,,,,,,,,,,,,,,,,,3,4.6166,1,,,,,,,,,,,,0,131,5,5,1974,2298,absent_patch/patch0001974.jpg,absent_patch/patch0002298.jpg,,,,,,,,,,,,,,,,,,,,-0.03125,-0.130208333,1,0,0,response5disk,10,0,-0.005208333,1,0,0,center_square,0,9,9,6,1,,,,,,,,,,,,,,,,,,,,,,,
818197,001,2022-11-20_20h50.41.971,Info_measure_main_exp,2022.2.2,Win32,59.79788315,,,,,,,,,,,,,,,,,,masks/mask_004.jpg,,,,,,,,,,,,,,,,,,,,,,,,,,,,,,,,,,,,,,,,,,,0,0,0,3,1,,,,,,,,,,,,,,,,,,,,,,,,,,,,,,,,,,,,,,,,,,,,,,
818197,001,2022-11-20_20h50.41.971,Info_measure_main_exp,2022.2.2,Win32,59.79788315,,,,,,,,,,,,,,,,,,masks/mask_002.jpg,,,,,,,,,,,,,,,,,,,,,,,,,,,,,,,,,,,,,,,,,,,0,1,1,1,1,,,,,,,,,,,,,,,,,,,,,,,,,,,,,,,,,,,,,,,,,,,,,,
818197,001,2022-11-20_20h50.41.971,Info_measure_main_exp,2022.2.2,Win32,59.79788315,,,,,,,,,,,,,,,,,,masks/mask_001.jpg,,,,,,,,,,,,,,,,,,,,,,,,,,,,,,,,,,,,,,,,,,,0,2,2,0,1,,,,,,,,,,,,,,,,,,,,,,,,,,,,,,,,,,,,,,,,,,,,,,
818197,001,2022-11-20_20h50.41.971,Info_measure_main_exp,2022.2.2,Win32,59.79788315,,,,,,,,,,,,,,,,,,masks/mask_005.jpg,,,,,,,,,,,,,,,,,,,,,,,,,,,,,,,,,,,,,,,,,,,0,3,3,4,1,,,,,,,,,,,,,,,,,,,,,,,,,,,,,,,,,,,,,,,,,,,,,,
818197,001,2022-11-20_20h50.41.971,Info_measure_main_exp,2022.2.2,Win32,59.79788315,,,,,,,,,,,,,,,,,,masks/mask_003.jpg,,,,,,,,,,,,,,,,,,,,,,,,,,,,,,,,,,,,,,,,,,,0,4,4,2,1,,,,,,,,,,,,,,,,,,,,,,,,,,,,,,,,,,,,,,,,,,,,,,
818197,001,2022-11-20_20h50.41.971,Info_measure_main_exp,2022.2.2,Win32,59.79788315,,,,,,,,,,,,,,,,,,masks/mask_004.jpg,,,,,,,,,,,,,,,,,,,,,,,,,,,,,,,,,,,,,,,,,,,,,,,,0,0,0,3,1,,,,,,,,,,,,,,,,,,,,,,,,,,,,,,,,,,,,,,,,,
818197,001,2022-11-20_20h50.41.971,Info_measure_main_exp,2022.2.2,Win32,59.79788315,,,,,,,,,,,,,,,,,,masks/mask_001.jpg,,,,,,,,,,,,,,,,,,,,,,,,,,,,,,,,,,,,,,,,,,,,,,,,0,1,1,0,1,,,,,,,,,,,,,,,,,,,,,,,,,,,,,,,,,,,,,,,,,
818197,001,2022-11-20_20h50.41.971,Info_measure_main_exp,2022.2.2,Win32,59.79788315,,,,,,,,,,,,,,,,,,masks/mask_003.jpg,,,,,,,,,,,,,,,,,,,,,,,,,,,,,,,,,,,,,,,,,,,,,,,,0,2,2,2,1,,,,,,,,,,,,,,,,,,,,,,,,,,,,,,,,,,,,,,,,,
818197,001,2022-11-20_20h50.41.971,Info_measure_main_exp,2022.2.2,Win32,59.79788315,,,,,,,,,,,,,,,,,,masks/mask_002.jpg,,,,,,,,,,,,,,,,,,,,,,,,,,,,,,,,,,,,,,,,,,,,,,,,0,3,3,1,1,,,,,,,,,,,,,,,,,,,,,,,,,,,,,,,,,,,,,,,,,
818197,001,2022-11-20_20h50.41.971,Info_measure_main_exp,2022.2.2,Win32,59.79788315,,,,,,,,,,,,,,,,,,masks/mask_005.jpg,,,,,,,,,,,,,,,,,,,,,,,,,,,,,,,,,,,,,,,,,,,,,,,,0,4,4,4,1,,,,,,,,,,,,,,,,,,,,,,,,,,,,,,,,,,,,,,,,,
818197,001,2022-11-20_20h50.41.971,Info_measure_main_exp,2022.2.2,Win32,59.79788315,,,,,,,,,,,,,,,,,,,,,,,,,,,,,,7,2.2244,1,,,,,,,,,,,,0,131,5,5,2154,2190,absent_patch/patch0002154.jpg,absent_patch/patch0002190.jpg,,,,,,,,,,,,,,,,,,,,0.055989583,0.110677083,1,0,0,response1disk,11,0.002604167,-0.010416667,1,0,0,center_square,0,10,10,68,1,,,,,,,,,,,,,,,,,,,,,,,
818197,001,2022-11-20_20h50.41.971,Info_measure_main_exp,2022.2.2,Win32,59.79788315,,,,,,,,,,,,,,,,,,masks/mask_004.jpg,,,,,,,,,,,,,,,,,,,,,,,,,,,,,,,,,,,,,,,,,,,0,0,0,3,1,,,,,,,,,,,,,,,,,,,,,,,,,,,,,,,,,,,,,,,,,,,,,,
818197,001,2022-11-20_20h50.41.971,Info_measure_main_exp,2022.2.2,Win32,59.79788315,,,,,,,,,,,,,,,,,,masks/mask_005.jpg,,,,,,,,,,,,,,,,,,,,,,,,,,,,,,,,,,,,,,,,,,,0,1,1,4,1,,,,,,,,,,,,,,,,,,,,,,,,,,,,,,,,,,,,,,,,,,,,,,
818197,001,2022-11-20_20h50.41.971,Info_measure_main_exp,2022.2.2,Win32,59.79788315,,,,,,,,,,,,,,,,,,masks/mask_003.jpg,,,,,,,,,,,,,,,,,,,,,,,,,,,,,,,,,,,,,,,,,,,0,2,2,2,1,,,,,,,,,,,,,,,,,,,,,,,,,,,,,,,,,,,,,,,,,,,,,,
818197,001,2022-11-20_20h50.41.971,Info_measure_main_exp,2022.2.2,Win32,59.79788315,,,,,,,,,,,,,,,,,,masks/mask_001.jpg,,,,,,,,,,,,,,,,,,,,,,,,,,,,,,,,,,,,,,,,,,,0,3,3,0,1,,,,,,,,,,,,,,,,,,,,,,,,,,,,,,,,,,,,,,,,,,,,,,
818197,001,2022-11-20_20h50.41.971,Info_measure_main_exp,2022.2.2,Win32,59.79788315,,,,,,,,,,,,,,,,,,masks/mask_002.jpg,,,,,,,,,,,,,,,,,,,,,,,,,,,,,,,,,,,,,,,,,,,0,4,4,1,1,,,,,,,,,,,,,,,,,,,,,,,,,,,,,,,,,,,,,,,,,,,,,,
818197,001,2022-11-20_20h50.41.971,Info_measure_main_exp,2022.2.2,Win32,59.79788315,,,,,,,,,,,,,,,,,,masks/mask_002.jpg,,,,,,,,,,,,,,,,,,,,,,,,,,,,,,,,,,,,,,,,,,,,,,,,0,0,0,1,1,,,,,,,,,,,,,,,,,,,,,,,,,,,,,,,,,,,,,,,,,
818197,001,2022-11-20_20h50.41.971,Info_measure_main_exp,2022.2.2,Win32,59.79788315,,,,,,,,,,,,,,,,,,masks/mask_005.jpg,,,,,,,,,,,,,,,,,,,,,,,,,,,,,,,,,,,,,,,,,,,,,,,,0,1,1,4,1,,,,,,,,,,,,,,,,,,,,,,,,,,,,,,,,,,,,,,,,,
818197,001,2022-11-20_20h50.41.971,Info_measure_main_exp,2022.2.2,Win32,59.79788315,,,,,,,,,,,,,,,,,,masks/mask_004.jpg,,,,,,,,,,,,,,,,,,,,,,,,,,,,,,,,,,,,,,,,,,,,,,,,0,2,2,3,1,,,,,,,,,,,,,,,,,,,,,,,,,,,,,,,,,,,,,,,,,
818197,001,2022-11-20_20h50.41.971,Info_measure_main_exp,2022.2.2,Win32,59.79788315,,,,,,,,,,,,,,,,,,masks/mask_001.jpg,,,,,,,,,,,,,,,,,,,,,,,,,,,,,,,,,,,,,,,,,,,,,,,,0,3,3,0,1,,,,,,,,,,,,,,,,,,,,,,,,,,,,,,,,,,,,,,,,,
818197,001,2022-11-20_20h50.41.971,Info_measure_main_exp,2022.2.2,Win32,59.79788315,,,,,,,,,,,,,,,,,,masks/mask_003.jpg,,,,,,,,,,,,,,,,,,,,,,,,,,,,,,,,,,,,,,,,,,,,,,,,0,4,4,2,1,,,,,,,,,,,,,,,,,,,,,,,,,,,,,,,,,,,,,,,,,
818197,001,2022-11-20_20h50.41.971,Info_measure_main_exp,2022.2.2,Win32,59.79788315,,,,,,,,,,,,,,,,,,,,,,,,,,,,,,6,1.8734,1,,,,,,,,,,,,1,131,5,5,1,1974,present_patch/cong_131_5_a.jpg,absent_patch/patch0001974.jpg,,,,,,,,,,,,,,,,,,,,0.11328125,0.013020833,1,0,0,response1disk,12,-0.002604167,0.001302083,1,0,0,center_square,0,11,11,69,1,,,,,,,,,,,,,,,,,,,,,,,
818197,001,2022-11-20_20h50.41.971,Info_measure_main_exp,2022.2.2,Win32,59.79788315,,,,,,,,,,,,,,,,,,masks/mask_001.jpg,,,,,,,,,,,,,,,,,,,,,,,,,,,,,,,,,,,,,,,,,,,0,0,0,0,1,,,,,,,,,,,,,,,,,,,,,,,,,,,,,,,,,,,,,,,,,,,,,,
818197,001,2022-11-20_20h50.41.971,Info_measure_main_exp,2022.2.2,Win32,59.79788315,,,,,,,,,,,,,,,,,,masks/mask_004.jpg,,,,,,,,,,,,,,,,,,,,,,,,,,,,,,,,,,,,,,,,,,,0,1,1,3,1,,,,,,,,,,,,,,,,,,,,,,,,,,,,,,,,,,,,,,,,,,,,,,
818197,001,2022-11-20_20h50.41.971,Info_measure_main_exp,2022.2.2,Win32,59.79788315,,,,,,,,,,,,,,,,,,masks/mask_002.jpg,,,,,,,,,,,,,,,,,,,,,,,,,,,,,,,,,,,,,,,,,,,0,2,2,1,1,,,,,,,,,,,,,,,,,,,,,,,,,,,,,,,,,,,,,,,,,,,,,,
818197,001,2022-11-20_20h50.41.971,Info_measure_main_exp,2022.2.2,Win32,59.79788315,,,,,,,,,,,,,,,,,,masks/mask_005.jpg,,,,,,,,,,,,,,,,,,,,,,,,,,,,,,,,,,,,,,,,,,,0,3,3,4,1,,,,,,,,,,,,,,,,,,,,,,,,,,,,,,,,,,,,,,,,,,,,,,
818197,001,2022-11-20_20h50.41.971,Info_measure_main_exp,2022.2.2,Win32,59.79788315,,,,,,,,,,,,,,,,,,masks/mask_003.jpg,,,,,,,,,,,,,,,,,,,,,,,,,,,,,,,,,,,,,,,,,,,0,4,4,2,1,,,,,,,,,,,,,,,,,,,,,,,,,,,,,,,,,,,,,,,,,,,,,,
818197,001,2022-11-20_20h50.41.971,Info_measure_main_exp,2022.2.2,Win32,59.79788315,,,,,,,,,,,,,,,,,,masks/mask_004.jpg,,,,,,,,,,,,,,,,,,,,,,,,,,,,,,,,,,,,,,,,,,,,,,,,0,0,0,3,1,,,,,,,,,,,,,,,,,,,,,,,,,,,,,,,,,,,,,,,,,
818197,001,2022-11-20_20h50.41.971,Info_measure_main_exp,2022.2.2,Win32,59.79788315,,,,,,,,,,,,,,,,,,masks/mask_002.jpg,,,,,,,,,,,,,,,,,,,,,,,,,,,,,,,,,,,,,,,,,,,,,,,,0,1,1,1,1,,,,,,,,,,,,,,,,,,,,,,,,,,,,,,,,,,,,,,,,,
818197,001,2022-11-20_20h50.41.971,Info_measure_main_exp,2022.2.2,Win32,59.79788315,,,,,,,,,,,,,,,,,,masks/mask_003.jpg,,,,,,,,,,,,,,,,,,,,,,,,,,,,,,,,,,,,,,,,,,,,,,,,0,2,2,2,1,,,,,,,,,,,,,,,,,,,,,,,,,,,,,,,,,,,,,,,,,
818197,001,2022-11-20_20h50.41.971,Info_measure_main_exp,2022.2.2,Win32,59.79788315,,,,,,,,,,,,,,,,,,masks/mask_005.jpg,,,,,,,,,,,,,,,,,,,,,,,,,,,,,,,,,,,,,,,,,,,,,,,,0,3,3,4,1,,,,,,,,,,,,,,,,,,,,,,,,,,,,,,,,,,,,,,,,,
818197,001,2022-11-20_20h50.41.971,Info_measure_main_exp,2022.2.2,Win32,59.79788315,,,,,,,,,,,,,,,,,,masks/mask_001.jpg,,,,,,,,,,,,,,,,,,,,,,,,,,,,,,,,,,,,,,,,,,,,,,,,0,4,4,0,1,,,,,,,,,,,,,,,,,,,,,,,,,,,,,,,,,,,,,,,,,
818197,001,2022-11-20_20h50.41.971,Info_measure_main_exp,2022.2.2,Win32,59.79788315,,,,,,,,,,,,,,,,,,,,,,,,,,,,,,6,2.2576,1,,,,,,,,,,,,0,131,5,5,2178,2166,absent_patch/patch0002178.jpg,absent_patch/patch0002166.jpg,,,,,,,,,,,,,,,,,,,,0.145833333,0.032552083,1,0,0,response1disk,13,0.002604167,0.006510417,1,0,0,center_square,0,12,12,72,1,,,,,,,,,,,,,,,,,,,,,,,
818197,001,2022-11-20_20h50.41.971,Info_measure_main_exp,2022.2.2,Win32,59.79788315,,,,,,,,,,,,,,,,,,masks/mask_001.jpg,,,,,,,,,,,,,,,,,,,,,,,,,,,,,,,,,,,,,,,,,,,0,0,0,0,1,,,,,,,,,,,,,,,,,,,,,,,,,,,,,,,,,,,,,,,,,,,,,,
818197,001,2022-11-20_20h50.41.971,Info_measure_main_exp,2022.2.2,Win32,59.79788315,,,,,,,,,,,,,,,,,,masks/mask_002.jpg,,,,,,,,,,,,,,,,,,,,,,,,,,,,,,,,,,,,,,,,,,,0,1,1,1,1,,,,,,,,,,,,,,,,,,,,,,,,,,,,,,,,,,,,,,,,,,,,,,
818197,001,2022-11-20_20h50.41.971,Info_measure_main_exp,2022.2.2,Win32,59.79788315,,,,,,,,,,,,,,,,,,masks/mask_005.jpg,,,,,,,,,,,,,,,,,,,,,,,,,,,,,,,,,,,,,,,,,,,0,2,2,4,1,,,,,,,,,,,,,,,,,,,,,,,,,,,,,,,,,,,,,,,,,,,,,,
818197,001,2022-11-20_20h50.41.971,Info_measure_main_exp,2022.2.2,Win32,59.79788315,,,,,,,,,,,,,,,,,,masks/mask_004.jpg,,,,,,,,,,,,,,,,,,,,,,,,,,,,,,,,,,,,,,,,,,,0,3,3,3,1,,,,,,,,,,,,,,,,,,,,,,,,,,,,,,,,,,,,,,,,,,,,,,
818197,001,2022-11-20_20h50.41.971,Info_measure_main_exp,2022.2.2,Win32,59.79788315,,,,,,,,,,,,,,,,,,masks/mask_003.jpg,,,,,,,,,,,,,,,,,,,,,,,,,,,,,,,,,,,,,,,,,,,0,4,4,2,1,,,,,,,,,,,,,,,,,,,,,,,,,,,,,,,,,,,,,,,,,,,,,,
818197,001,2022-11-20_20h50.41.971,Info_measure_main_exp,2022.2.2,Win32,59.79788315,,,,,,,,,,,,,,,,,,masks/mask_002.jpg,,,,,,,,,,,,,,,,,,,,,,,,,,,,,,,,,,,,,,,,,,,,,,,,0,0,0,1,1,,,,,,,,,,,,,,,,,,,,,,,,,,,,,,,,,,,,,,,,,
818197,001,2022-11-20_20h50.41.971,Info_measure_main_exp,2022.2.2,Win32,59.79788315,,,,,,,,,,,,,,,,,,masks/mask_001.jpg,,,,,,,,,,,,,,,,,,,,,,,,,,,,,,,,,,,,,,,,,,,,,,,,0,1,1,0,1,,,,,,,,,,,,,,,,,,,,,,,,,,,,,,,,,,,,,,,,,
818197,001,2022-11-20_20h50.41.971,Info_measure_main_exp,2022.2.2,Win32,59.79788315,,,,,,,,,,,,,,,,,,masks/mask_004.jpg,,,,,,,,,,,,,,,,,,,,,,,,,,,,,,,,,,,,,,,,,,,,,,,,0,2,2,3,1,,,,,,,,,,,,,,,,,,,,,,,,,,,,,,,,,,,,,,,,,
818197,001,2022-11-20_20h50.41.971,Info_measure_main_exp,2022.2.2,Win32,59.79788315,,,,,,,,,,,,,,,,,,masks/mask_005.jpg,,,,,,,,,,,,,,,,,,,,,,,,,,,,,,,,,,,,,,,,,,,,,,,,0,3,3,4,1,,,,,,,,,,,,,,,,,,,,,,,,,,,,,,,,,,,,,,,,,
818197,001,2022-11-20_20h50.41.971,Info_measure_main_exp,2022.2.2,Win32,59.79788315,,,,,,,,,,,,,,,,,,masks/mask_003.jpg,,,,,,,,,,,,,,,,,,,,,,,,,,,,,,,,,,,,,,,,,,,,,,,,0,4,4,2,1,,,,,,,,,,,,,,,,,,,,,,,,,,,,,,,,,,,,,,,,,
818197,001,2022-11-20_20h50.41.971,Info_measure_main_exp,2022.2.2,Win32,59.79788315,,,,,,,,,,,,,,,,,,,,,,,,,,,,,,3,2.927,1,,,,,,,,,,,,0,131,5,5,2154,2238,absent_patch/patch0002154.jpg,absent_patch/patch0002238.jpg,,,,,,,,,,,,,,,,,,,,-0.0625,-0.118489583,1,0,0,response5disk,14,0,-0.005208333,1,0,0,center_square,0,13,13,21,1,,,,,,,,,,,,,,,,,,,,,,,
818197,001,2022-11-20_20h50.41.971,Info_measure_main_exp,2022.2.2,Win32,59.79788315,,,,,,,,,,,,,,,,,,masks/mask_004.jpg,,,,,,,,,,,,,,,,,,,,,,,,,,,,,,,,,,,,,,,,,,,0,0,0,3,1,,,,,,,,,,,,,,,,,,,,,,,,,,,,,,,,,,,,,,,,,,,,,,
818197,001,2022-11-20_20h50.41.971,Info_measure_main_exp,2022.2.2,Win32,59.79788315,,,,,,,,,,,,,,,,,,masks/mask_003.jpg,,,,,,,,,,,,,,,,,,,,,,,,,,,,,,,,,,,,,,,,,,,0,1,1,2,1,,,,,,,,,,,,,,,,,,,,,,,,,,,,,,,,,,,,,,,,,,,,,,
818197,001,2022-11-20_20h50.41.971,Info_measure_main_exp,2022.2.2,Win32,59.79788315,,,,,,,,,,,,,,,,,,masks/mask_002.jpg,,,,,,,,,,,,,,,,,,,,,,,,,,,,,,,,,,,,,,,,,,,0,2,2,1,1,,,,,,,,,,,,,,,,,,,,,,,,,,,,,,,,,,,,,,,,,,,,,,
818197,001,2022-11-20_20h50.41.971,Info_measure_main_exp,2022.2.2,Win32,59.79788315,,,,,,,,,,,,,,,,,,masks/mask_005.jpg,,,,,,,,,,,,,,,,,,,,,,,,,,,,,,,,,,,,,,,,,,,0,3,3,4,1,,,,,,,,,,,,,,,,,,,,,,,,,,,,,,,,,,,,,,,,,,,,,,
818197,001,2022-11-20_20h50.41.971,Info_measure_main_exp,2022.2.2,Win32,59.79788315,,,,,,,,,,,,,,,,,,masks/mask_001.jpg,,,,,,,,,,,,,,,,,,,,,,,,,,,,,,,,,,,,,,,,,,,0,4,4,0,1,,,,,,,,,,,,,,,,,,,,,,,,,,,,,,,,,,,,,,,,,,,,,,
818197,001,2022-11-20_20h50.41.971,Info_measure_main_exp,2022.2.2,Win32,59.79788315,,,,,,,,,,,,,,,,,,masks/mask_004.jpg,,,,,,,,,,,,,,,,,,,,,,,,,,,,,,,,,,,,,,,,,,,,,,,,0,0,0,3,1,,,,,,,,,,,,,,,,,,,,,,,,,,,,,,,,,,,,,,,,,
818197,001,2022-11-20_20h50.41.971,Info_measure_main_exp,2022.2.2,Win32,59.79788315,,,,,,,,,,,,,,,,,,masks/mask_005.jpg,,,,,,,,,,,,,,,,,,,,,,,,,,,,,,,,,,,,,,,,,,,,,,,,0,1,1,4,1,,,,,,,,,,,,,,,,,,,,,,,,,,,,,,,,,,,,,,,,,
818197,001,2022-11-20_20h50.41.971,Info_measure_main_exp,2022.2.2,Win32,59.79788315,,,,,,,,,,,,,,,,,,masks/mask_002.jpg,,,,,,,,,,,,,,,,,,,,,,,,,,,,,,,,,,,,,,,,,,,,,,,,0,2,2,1,1,,,,,,,,,,,,,,,,,,,,,,,,,,,,,,,,,,,,,,,,,
818197,001,2022-11-20_20h50.41.971,Info_measure_main_exp,2022.2.2,Win32,59.79788315,,,,,,,,,,,,,,,,,,masks/mask_001.jpg,,,,,,,,,,,,,,,,,,,,,,,,,,,,,,,,,,,,,,,,,,,,,,,,0,3,3,0,1,,,,,,,,,,,,,,,,,,,,,,,,,,,,,,,,,,,,,,,,,
818197,001,2022-11-20_20h50.41.971,Info_measure_main_exp,2022.2.2,Win32,59.79788315,,,,,,,,,,,,,,,,,,masks/mask_003.jpg,,,,,,,,,,,,,,,,,,,,,,,,,,,,,,,,,,,,,,,,,,,,,,,,0,4,4,2,1,,,,,,,,,,,,,,,,,,,,,,,,,,,,,,,,,,,,,,,,,
818197,001,2022-11-20_20h50.41.971,Info_measure_main_exp,2022.2.2,Win32,59.79788315,,,,,,,,,,,,,,,,,,,,,,,,,,,,,,7,0.7023,1,,,,,,,,,,,,0,131,5,5,2274,2082,absent_patch/patch0002274.jpg,absent_patch/patch0002082.jpg,,,,,,,,,,,,,,,,,,,,0.080729167,0.119791667,1,0,0,response1disk,15,-0.005208333,-0.00390625,1,0,0,center_square,0,14,14,100,1,,,,,,,,,,,,,,,,,,,,,,,
818197,001,2022-11-20_20h50.41.971,Info_measure_main_exp,2022.2.2,Win32,59.79788315,,,,,,,,,,,,,,,,,,masks/mask_005.jpg,,,,,,,,,,,,,,,,,,,,,,,,,,,,,,,,,,,,,,,,,,,0,0,0,4,1,,,,,,,,,,,,,,,,,,,,,,,,,,,,,,,,,,,,,,,,,,,,,,
818197,001,2022-11-20_20h50.41.971,Info_measure_main_exp,2022.2.2,Win32,59.79788315,,,,,,,,,,,,,,,,,,masks/mask_001.jpg,,,,,,,,,,,,,,,,,,,,,,,,,,,,,,,,,,,,,,,,,,,0,1,1,0,1,,,,,,,,,,,,,,,,,,,,,,,,,,,,,,,,,,,,,,,,,,,,,,
818197,001,2022-11-20_20h50.41.971,Info_measure_main_exp,2022.2.2,Win32,59.79788315,,,,,,,,,,,,,,,,,,masks/mask_002.jpg,,,,,,,,,,,,,,,,,,,,,,,,,,,,,,,,,,,,,,,,,,,0,2,2,1,1,,,,,,,,,,,,,,,,,,,,,,,,,,,,,,,,,,,,,,,,,,,,,,
818197,001,2022-11-20_20h50.41.971,Info_measure_main_exp,2022.2.2,Win32,59.79788315,,,,,,,,,,,,,,,,,,masks/mask_003.jpg,,,,,,,,,,,,,,,,,,,,,,,,,,,,,,,,,,,,,,,,,,,0,3,3,2,1,,,,,,,,,,,,,,,,,,,,,,,,,,,,,,,,,,,,,,,,,,,,,,
818197,001,2022-11-20_20h50.41.971,Info_measure_main_exp,2022.2.2,Win32,59.79788315,,,,,,,,,,,,,,,,,,masks/mask_004.jpg,,,,,,,,,,,,,,,,,,,,,,,,,,,,,,,,,,,,,,,,,,,0,4,4,3,1,,,,,,,,,,,,,,,,,,,,,,,,,,,,,,,,,,,,,,,,,,,,,,
818197,001,2022-11-20_20h50.41.971,Info_measure_main_exp,2022.2.2,Win32,59.79788315,,,,,,,,,,,,,,,,,,masks/mask_002.jpg,,,,,,,,,,,,,,,,,,,,,,,,,,,,,,,,,,,,,,,,,,,,,,,,0,0,0,1,1,,,,,,,,,,,,,,,,,,,,,,,,,,,,,,,,,,,,,,,,,
818197,001,2022-11-20_20h50.41.971,Info_measure_main_exp,2022.2.2,Win32,59.79788315,,,,,,,,,,,,,,,,,,masks/mask_004.jpg,,,,,,,,,,,,,,,,,,,,,,,,,,,,,,,,,,,,,,,,,,,,,,,,0,1,1,3,1,,,,,,,,,,,,,,,,,,,,,,,,,,,,,,,,,,,,,,,,,
818197,001,2022-11-20_20h50.41.971,Info_measure_main_exp,2022.2.2,Win32,59.79788315,,,,,,,,,,,,,,,,,,masks/mask_003.jpg,,,,,,,,,,,,,,,,,,,,,,,,,,,,,,,,,,,,,,,,,,,,,,,,0,2,2,2,1,,,,,,,,,,,,,,,,,,,,,,,,,,,,,,,,,,,,,,,,,
818197,001,2022-11-20_20h50.41.971,Info_measure_main_exp,2022.2.2,Win32,59.79788315,,,,,,,,,,,,,,,,,,masks/mask_001.jpg,,,,,,,,,,,,,,,,,,,,,,,,,,,,,,,,,,,,,,,,,,,,,,,,0,3,3,0,1,,,,,,,,,,,,,,,,,,,,,,,,,,,,,,,,,,,,,,,,,
818197,001,2022-11-20_20h50.41.971,Info_measure_main_exp,2022.2.2,Win32,59.79788315,,,,,,,,,,,,,,,,,,masks/mask_005.jpg,,,,,,,,,,,,,,,,,,,,,,,,,,,,,,,,,,,,,,,,,,,,,,,,0,4,4,4,1,,,,,,,,,,,,,,,,,,,,,,,,,,,,,,,,,,,,,,,,,
818197,001,2022-11-20_20h50.41.971,Info_measure_main_exp,2022.2.2,Win32,59.79788315,,,,,,,,,,,,,,,,,,,,,,,,,,,,,,3,3.7467,1,,,,,,,,,,,,1,131,5,5,1,2166,present_patch/cong_131_5_a.jpg,absent_patch/patch0002166.jpg,,,,,,,,,,,,,,,,,,,,-0.061197917,-0.1328125,1,0,0,response5disk,16,0.014322917,-0.014322917,1,0,0,center_square,0,15,15,54,1,,,,,,,,,,,,,,,,,,,,,,,
818197,001,2022-11-20_20h50.41.971,Info_measure_main_exp,2022.2.2,Win32,59.79788315,,,,,,,,,,,,,,,,,,masks/mask_001.jpg,,,,,,,,,,,,,,,,,,,,,,,,,,,,,,,,,,,,,,,,,,,0,0,0,0,1,,,,,,,,,,,,,,,,,,,,,,,,,,,,,,,,,,,,,,,,,,,,,,
818197,001,2022-11-20_20h50.41.971,Info_measure_main_exp,2022.2.2,Win32,59.79788315,,,,,,,,,,,,,,,,,,masks/mask_005.jpg,,,,,,,,,,,,,,,,,,,,,,,,,,,,,,,,,,,,,,,,,,,0,1,1,4,1,,,,,,,,,,,,,,,,,,,,,,,,,,,,,,,,,,,,,,,,,,,,,,
818197,001,2022-11-20_20h50.41.971,Info_measure_main_exp,2022.2.2,Win32,59.79788315,,,,,,,,,,,,,,,,,,masks/mask_003.jpg,,,,,,,,,,,,,,,,,,,,,,,,,,,,,,,,,,,,,,,,,,,0,2,2,2,1,,,,,,,,,,,,,,,,,,,,,,,,,,,,,,,,,,,,,,,,,,,,,,
818197,001,2022-11-20_20h50.41.971,Info_measure_main_exp,2022.2.2,Win32,59.79788315,,,,,,,,,,,,,,,,,,masks/mask_002.jpg,,,,,,,,,,,,,,,,,,,,,,,,,,,,,,,,,,,,,,,,,,,0,3,3,1,1,,,,,,,,,,,,,,,,,,,,,,,,,,,,,,,,,,,,,,,,,,,,,,
818197,001,2022-11-20_20h50.41.971,Info_measure_main_exp,2022.2.2,Win32,59.79788315,,,,,,,,,,,,,,,,,,masks/mask_004.jpg,,,,,,,,,,,,,,,,,,,,,,,,,,,,,,,,,,,,,,,,,,,0,4,4,3,1,,,,,,,,,,,,,,,,,,,,,,,,,,,,,,,,,,,,,,,,,,,,,,
818197,001,2022-11-20_20h50.41.971,Info_measure_main_exp,2022.2.2,Win32,59.79788315,,,,,,,,,,,,,,,,,,masks/mask_002.jpg,,,,,,,,,,,,,,,,,,,,,,,,,,,,,,,,,,,,,,,,,,,,,,,,0,0,0,1,1,,,,,,,,,,,,,,,,,,,,,,,,,,,,,,,,,,,,,,,,,
818197,001,2022-11-20_20h50.41.971,Info_measure_main_exp,2022.2.2,Win32,59.79788315,,,,,,,,,,,,,,,,,,masks/mask_005.jpg,,,,,,,,,,,,,,,,,,,,,,,,,,,,,,,,,,,,,,,,,,,,,,,,0,1,1,4,1,,,,,,,,,,,,,,,,,,,,,,,,,,,,,,,,,,,,,,,,,
818197,001,2022-11-20_20h50.41.971,Info_measure_main_exp,2022.2.2,Win32,59.79788315,,,,,,,,,,,,,,,,,,masks/mask_001.jpg,,,,,,,,,,,,,,,,,,,,,,,,,,,,,,,,,,,,,,,,,,,,,,,,0,2,2,0,1,,,,,,,,,,,,,,,,,,,,,,,,,,,,,,,,,,,,,,,,,
818197,001,2022-11-20_20h50.41.971,Info_measure_main_exp,2022.2.2,Win32,59.79788315,,,,,,,,,,,,,,,,,,masks/mask_003.jpg,,,,,,,,,,,,,,,,,,,,,,,,,,,,,,,,,,,,,,,,,,,,,,,,0,3,3,2,1,,,,,,,,,,,,,,,,,,,,,,,,,,,,,,,,,,,,,,,,,
818197,001,2022-11-20_20h50.41.971,Info_measure_main_exp,2022.2.2,Win32,59.79788315,,,,,,,,,,,,,,,,,,masks/mask_004.jpg,,,,,,,,,,,,,,,,,,,,,,,,,,,,,,,,,,,,,,,,,,,,,,,,0,4,4,3,1,,,,,,,,,,,,,,,,,,,,,,,,,,,,,,,,,,,,,,,,,
818197,001,2022-11-20_20h50.41.971,Info_measure_main_exp,2022.2.2,Win32,59.79788315,,,,,,,,,,,,,,,,,,,,,,,,,,,,,,3,6.4397,1,,,,,,,,,,,,1,131,5,5,1,2274,present_patch/cong_131_5_a.jpg,absent_patch/patch0002274.jpg,,,,,,,,,,,,,,,,,,,,-0.022135417,-0.12890625,1,0,0,response5disk,17,0.001302083,-0.001302083,1,0,0,center_square,0,16,16,105,1,,,,,,,,,,,,,,,,,,,,,,,
818197,001,2022-11-20_20h50.41.971,Info_measure_main_exp,2022.2.2,Win32,59.79788315,,,,,,,,,,,,,,,,,,masks/mask_002.jpg,,,,,,,,,,,,,,,,,,,,,,,,,,,,,,,,,,,,,,,,,,,0,0,0,1,1,,,,,,,,,,,,,,,,,,,,,,,,,,,,,,,,,,,,,,,,,,,,,,
818197,001,2022-11-20_20h50.41.971,Info_measure_main_exp,2022.2.2,Win32,59.79788315,,,,,,,,,,,,,,,,,,masks/mask_005.jpg,,,,,,,,,,,,,,,,,,,,,,,,,,,,,,,,,,,,,,,,,,,0,1,1,4,1,,,,,,,,,,,,,,,,,,,,,,,,,,,,,,,,,,,,,,,,,,,,,,
818197,001,2022-11-20_20h50.41.971,Info_measure_main_exp,2022.2.2,Win32,59.79788315,,,,,,,,,,,,,,,,,,masks/mask_001.jpg,,,,,,,,,,,,,,,,,,,,,,,,,,,,,,,,,,,,,,,,,,,0,2,2,0,1,,,,,,,,,,,,,,,,,,,,,,,,,,,,,,,,,,,,,,,,,,,,,,
818197,001,2022-11-20_20h50.41.971,Info_measure_main_exp,2022.2.2,Win32,59.79788315,,,,,,,,,,,,,,,,,,masks/mask_003.jpg,,,,,,,,,,,,,,,,,,,,,,,,,,,,,,,,,,,,,,,,,,,0,3,3,2,1,,,,,,,,,,,,,,,,,,,,,,,,,,,,,,,,,,,,,,,,,,,,,,
818197,001,2022-11-20_20h50.41.971,Info_measure_main_exp,2022.2.2,Win32,59.79788315,,,,,,,,,,,,,,,,,,masks/mask_004.jpg,,,,,,,,,,,,,,,,,,,,,,,,,,,,,,,,,,,,,,,,,,,0,4,4,3,1,,,,,,,,,,,,,,,,,,,,,,,,,,,,,,,,,,,,,,,,,,,,,,
818197,001,2022-11-20_20h50.41.971,Info_measure_main_exp,2022.2.2,Win32,59.79788315,,,,,,,,,,,,,,,,,,masks/mask_005.jpg,,,,,,,,,,,,,,,,,,,,,,,,,,,,,,,,,,,,,,,,,,,,,,,,0,0,0,4,1,,,,,,,,,,,,,,,,,,,,,,,,,,,,,,,,,,,,,,,,,
818197,001,2022-11-20_20h50.41.971,Info_measure_main_exp,2022.2.2,Win32,59.79788315,,,,,,,,,,,,,,,,,,masks/mask_003.jpg,,,,,,,,,,,,,,,,,,,,,,,,,,,,,,,,,,,,,,,,,,,,,,,,0,1,1,2,1,,,,,,,,,,,,,,,,,,,,,,,,,,,,,,,,,,,,,,,,,
818197,001,2022-11-20_20h50.41.971,Info_measure_main_exp,2022.2.2,Win32,59.79788315,,,,,,,,,,,,,,,,,,masks/mask_002.jpg,,,,,,,,,,,,,,,,,,,,,,,,,,,,,,,,,,,,,,,,,,,,,,,,0,2,2,1,1,,,,,,,,,,,,,,,,,,,,,,,,,,,,,,,,,,,,,,,,,
818197,001,2022-11-20_20h50.41.971,Info_measure_main_exp,2022.2.2,Win32,59.79788315,,,,,,,,,,,,,,,,,,masks/mask_001.jpg,,,,,,,,,,,,,,,,,,,,,,,,,,,,,,,,,,,,,,,,,,,,,,,,0,3,3,0,1,,,,,,,,,,,,,,,,,,,,,,,,,,,,,,,,,,,,,,,,,
818197,001,2022-11-20_20h50.41.971,Info_measure_main_exp,2022.2.2,Win32,59.79788315,,,,,,,,,,,,,,,,,,masks/mask_004.jpg,,,,,,,,,,,,,,,,,,,,,,,,,,,,,,,,,,,,,,,,,,,,,,,,0,4,4,3,1,,,,,,,,,,,,,,,,,,,,,,,,,,,,,,,,,,,,,,,,,
818197,001,2022-11-20_20h50.41.971,Info_measure_main_exp,2022.2.2,Win32,59.79788315,,,,,,,,,,,,,,,,,,,,,,,,,,,,,,3,3.3119,1,,,,,,,,,,,,0,131,5,5,1986,2238,absent_patch/patch0001986.jpg,absent_patch/patch0002238.jpg,,,,,,,,,,,,,,,,,,,,-0.0546875,-0.092447917,1,0,0,response5disk,18,0.0078125,0.001302083,1,0,0,center_square,0,17,17,31,1,,,,,,,,,,,,,,,,,,,,,,,
818197,001,2022-11-20_20h50.41.971,Info_measure_main_exp,2022.2.2,Win32,59.79788315,,,,,,,,,,,,,,,,,,masks/mask_004.jpg,,,,,,,,,,,,,,,,,,,,,,,,,,,,,,,,,,,,,,,,,,,0,0,0,3,1,,,,,,,,,,,,,,,,,,,,,,,,,,,,,,,,,,,,,,,,,,,,,,
818197,001,2022-11-20_20h50.41.971,Info_measure_main_exp,2022.2.2,Win32,59.79788315,,,,,,,,,,,,,,,,,,masks/mask_003.jpg,,,,,,,,,,,,,,,,,,,,,,,,,,,,,,,,,,,,,,,,,,,0,1,1,2,1,,,,,,,,,,,,,,,,,,,,,,,,,,,,,,,,,,,,,,,,,,,,,,
818197,001,2022-11-20_20h50.41.971,Info_measure_main_exp,2022.2.2,Win32,59.79788315,,,,,,,,,,,,,,,,,,masks/mask_001.jpg,,,,,,,,,,,,,,,,,,,,,,,,,,,,,,,,,,,,,,,,,,,0,2,2,0,1,,,,,,,,,,,,,,,,,,,,,,,,,,,,,,,,,,,,,,,,,,,,,,
818197,001,2022-11-20_20h50.41.971,Info_measure_main_exp,2022.2.2,Win32,59.79788315,,,,,,,,,,,,,,,,,,masks/mask_005.jpg,,,,,,,,,,,,,,,,,,,,,,,,,,,,,,,,,,,,,,,,,,,0,3,3,4,1,,,,,,,,,,,,,,,,,,,,,,,,,,,,,,,,,,,,,,,,,,,,,,
818197,001,2022-11-20_20h50.41.971,Info_measure_main_exp,2022.2.2,Win32,59.79788315,,,,,,,,,,,,,,,,,,masks/mask_002.jpg,,,,,,,,,,,,,,,,,,,,,,,,,,,,,,,,,,,,,,,,,,,0,4,4,1,1,,,,,,,,,,,,,,,,,,,,,,,,,,,,,,,,,,,,,,,,,,,,,,
818197,001,2022-11-20_20h50.41.971,Info_measure_main_exp,2022.2.2,Win32,59.79788315,,,,,,,,,,,,,,,,,,masks/mask_004.jpg,,,,,,,,,,,,,,,,,,,,,,,,,,,,,,,,,,,,,,,,,,,,,,,,0,0,0,3,1,,,,,,,,,,,,,,,,,,,,,,,,,,,,,,,,,,,,,,,,,
818197,001,2022-11-20_20h50.41.971,Info_measure_main_exp,2022.2.2,Win32,59.79788315,,,,,,,,,,,,,,,,,,masks/mask_002.jpg,,,,,,,,,,,,,,,,,,,,,,,,,,,,,,,,,,,,,,,,,,,,,,,,0,1,1,1,1,,,,,,,,,,,,,,,,,,,,,,,,,,,,,,,,,,,,,,,,,
818197,001,2022-11-20_20h50.41.971,Info_measure_main_exp,2022.2.2,Win32,59.79788315,,,,,,,,,,,,,,,,,,masks/mask_003.jpg,,,,,,,,,,,,,,,,,,,,,,,,,,,,,,,,,,,,,,,,,,,,,,,,0,2,2,2,1,,,,,,,,,,,,,,,,,,,,,,,,,,,,,,,,,,,,,,,,,
818197,001,2022-11-20_20h50.41.971,Info_measure_main_exp,2022.2.2,Win32,59.79788315,,,,,,,,,,,,,,,,,,masks/mask_001.jpg,,,,,,,,,,,,,,,,,,,,,,,,,,,,,,,,,,,,,,,,,,,,,,,,0,3,3,0,1,,,,,,,,,,,,,,,,,,,,,,,,,,,,,,,,,,,,,,,,,
818197,001,2022-11-20_20h50.41.971,Info_measure_main_exp,2022.2.2,Win32,59.79788315,,,,,,,,,,,,,,,,,,masks/mask_005.jpg,,,,,,,,,,,,,,,,,,,,,,,,,,,,,,,,,,,,,,,,,,,,,,,,0,4,4,4,1,,,,,,,,,,,,,,,,,,,,,,,,,,,,,,,,,,,,,,,,,
818197,001,2022-11-20_20h50.41.971,Info_measure_main_exp,2022.2.2,Win32,59.79788315,,,,,,,,,,,,,,,,,,,,,,,,,,,,,,7,1.8067,1,,,,,,,,,,,,0,131,5,5,2154,1974,absent_patch/patch0002154.jpg,absent_patch/patch0001974.jpg,,,,,,,,,,,,,,,,,,,,0.08203125,0.127604167,1,0,0,response1disk,19,0,-0.001302083,1,0,0,center_square,0,18,18,82,1,,,,,,,,,,,,,,,,,,,,,,,
818197,001,2022-11-20_20h50.41.971,Info_measure_main_exp,2022.2.2,Win32,59.79788315,,,,,,,,,,,,,,,,,,masks/mask_002.jpg,,,,,,,,,,,,,,,,,,,,,,,,,,,,,,,,,,,,,,,,,,,0,0,0,1,1,,,,,,,,,,,,,,,,,,,,,,,,,,,,,,,,,,,,,,,,,,,,,,
818197,001,2022-11-20_20h50.41.971,Info_measure_main_exp,2022.2.2,Win32,59.79788315,,,,,,,,,,,,,,,,,,masks/mask_001.jpg,,,,,,,,,,,,,,,,,,,,,,,,,,,,,,,,,,,,,,,,,,,0,1,1,0,1,,,,,,,,,,,,,,,,,,,,,,,,,,,,,,,,,,,,,,,,,,,,,,
818197,001,2022-11-20_20h50.41.971,Info_measure_main_exp,2022.2.2,Win32,59.79788315,,,,,,,,,,,,,,,,,,masks/mask_004.jpg,,,,,,,,,,,,,,,,,,,,,,,,,,,,,,,,,,,,,,,,,,,0,2,2,3,1,,,,,,,,,,,,,,,,,,,,,,,,,,,,,,,,,,,,,,,,,,,,,,
818197,001,2022-11-20_20h50.41.971,Info_measure_main_exp,2022.2.2,Win32,59.79788315,,,,,,,,,,,,,,,,,,masks/mask_005.jpg,,,,,,,,,,,,,,,,,,,,,,,,,,,,,,,,,,,,,,,,,,,0,3,3,4,1,,,,,,,,,,,,,,,,,,,,,,,,,,,,,,,,,,,,,,,,,,,,,,
818197,001,2022-11-20_20h50.41.971,Info_measure_main_exp,2022.2.2,Win32,59.79788315,,,,,,,,,,,,,,,,,,masks/mask_003.jpg,,,,,,,,,,,,,,,,,,,,,,,,,,,,,,,,,,,,,,,,,,,0,4,4,2,1,,,,,,,,,,,,,,,,,,,,,,,,,,,,,,,,,,,,,,,,,,,,,,
818197,001,2022-11-20_20h50.41.971,Info_measure_main_exp,2022.2.2,Win32,59.79788315,,,,,,,,,,,,,,,,,,masks/mask_002.jpg,,,,,,,,,,,,,,,,,,,,,,,,,,,,,,,,,,,,,,,,,,,,,,,,0,0,0,1,1,,,,,,,,,,,,,,,,,,,,,,,,,,,,,,,,,,,,,,,,,
818197,001,2022-11-20_20h50.41.971,Info_measure_main_exp,2022.2.2,Win32,59.79788315,,,,,,,,,,,,,,,,,,masks/mask_005.jpg,,,,,,,,,,,,,,,,,,,,,,,,,,,,,,,,,,,,,,,,,,,,,,,,0,1,1,4,1,,,,,,,,,,,,,,,,,,,,,,,,,,,,,,,,,,,,,,,,,
818197,001,2022-11-20_20h50.41.971,Info_measure_main_exp,2022.2.2,Win32,59.79788315,,,,,,,,,,,,,,,,,,masks/mask_001.jpg,,,,,,,,,,,,,,,,,,,,,,,,,,,,,,,,,,,,,,,,,,,,,,,,0,2,2,0,1,,,,,,,,,,,,,,,,,,,,,,,,,,,,,,,,,,,,,,,,,
818197,001,2022-11-20_20h50.41.971,Info_measure_main_exp,2022.2.2,Win32,59.79788315,,,,,,,,,,,,,,,,,,masks/mask_003.jpg,,,,,,,,,,,,,,,,,,,,,,,,,,,,,,,,,,,,,,,,,,,,,,,,0,3,3,2,1,,,,,,,,,,,,,,,,,,,,,,,,,,,,,,,,,,,,,,,,,
818197,001,2022-11-20_20h50.41.971,Info_measure_main_exp,2022.2.2,Win32,59.79788315,,,,,,,,,,,,,,,,,,masks/mask_004.jpg,,,,,,,,,,,,,,,,,,,,,,,,,,,,,,,,,,,,,,,,,,,,,,,,0,4,4,3,1,,,,,,,,,,,,,,,,,,,,,,,,,,,,,,,,,,,,,,,,,
818197,001,2022-11-20_20h50.41.971,Info_measure_main_exp,2022.2.2,Win32,59.79788315,,,,,,,,,,,,,,,,,,,,,,,,,,,,,,7,0.5697,1,,,,,,,,,,,,1,131,5,5,2250,1,absent_patch/patch0002250.jpg,present_patch/cong_131_5_a.jpg,,,,,,,,,,,,,,,,,,,,0.0625,0.135416667,1,0,0,response1disk,20,0.001302083,0.001302083,1,0,0,center_square,0,19,19,5,1,,,,,,,,,,,,,,,,,,,,,,,
818197,001,2022-11-20_20h50.41.971,Info_measure_main_exp,2022.2.2,Win32,59.79788315,,,,,,,,,,,,,,,,,,masks/mask_004.jpg,,,,,,,,,,,,,,,,,,,,,,,,,,,,,,,,,,,,,,,,,,,0,0,0,3,1,,,,,,,,,,,,,,,,,,,,,,,,,,,,,,,,,,,,,,,,,,,,,,
818197,001,2022-11-20_20h50.41.971,Info_measure_main_exp,2022.2.2,Win32,59.79788315,,,,,,,,,,,,,,,,,,masks/mask_002.jpg,,,,,,,,,,,,,,,,,,,,,,,,,,,,,,,,,,,,,,,,,,,0,1,1,1,1,,,,,,,,,,,,,,,,,,,,,,,,,,,,,,,,,,,,,,,,,,,,,,
818197,001,2022-11-20_20h50.41.971,Info_measure_main_exp,2022.2.2,Win32,59.79788315,,,,,,,,,,,,,,,,,,masks/mask_003.jpg,,,,,,,,,,,,,,,,,,,,,,,,,,,,,,,,,,,,,,,,,,,0,2,2,2,1,,,,,,,,,,,,,,,,,,,,,,,,,,,,,,,,,,,,,,,,,,,,,,
818197,001,2022-11-20_20h50.41.971,Info_measure_main_exp,2022.2.2,Win32,59.79788315,,,,,,,,,,,,,,,,,,masks/mask_005.jpg,,,,,,,,,,,,,,,,,,,,,,,,,,,,,,,,,,,,,,,,,,,0,3,3,4,1,,,,,,,,,,,,,,,,,,,,,,,,,,,,,,,,,,,,,,,,,,,,,,
818197,001,2022-11-20_20h50.41.971,Info_measure_main_exp,2022.2.2,Win32,59.79788315,,,,,,,,,,,,,,,,,,masks/mask_001.jpg,,,,,,,,,,,,,,,,,,,,,,,,,,,,,,,,,,,,,,,,,,,0,4,4,0,1,,,,,,,,,,,,,,,,,,,,,,,,,,,,,,,,,,,,,,,,,,,,,,
818197,001,2022-11-20_20h50.41.971,Info_measure_main_exp,2022.2.2,Win32,59.79788315,,,,,,,,,,,,,,,,,,masks/mask_001.jpg,,,,,,,,,,,,,,,,,,,,,,,,,,,,,,,,,,,,,,,,,,,,,,,,0,0,0,0,1,,,,,,,,,,,,,,,,,,,,,,,,,,,,,,,,,,,,,,,,,
818197,001,2022-11-20_20h50.41.971,Info_measure_main_exp,2022.2.2,Win32,59.79788315,,,,,,,,,,,,,,,,,,masks/mask_005.jpg,,,,,,,,,,,,,,,,,,,,,,,,,,,,,,,,,,,,,,,,,,,,,,,,0,1,1,4,1,,,,,,,,,,,,,,,,,,,,,,,,,,,,,,,,,,,,,,,,,
818197,001,2022-11-20_20h50.41.971,Info_measure_main_exp,2022.2.2,Win32,59.79788315,,,,,,,,,,,,,,,,,,masks/mask_004.jpg,,,,,,,,,,,,,,,,,,,,,,,,,,,,,,,,,,,,,,,,,,,,,,,,0,2,2,3,1,,,,,,,,,,,,,,,,,,,,,,,,,,,,,,,,,,,,,,,,,
818197,001,2022-11-20_20h50.41.971,Info_measure_main_exp,2022.2.2,Win32,59.79788315,,,,,,,,,,,,,,,,,,masks/mask_003.jpg,,,,,,,,,,,,,,,,,,,,,,,,,,,,,,,,,,,,,,,,,,,,,,,,0,3,3,2,1,,,,,,,,,,,,,,,,,,,,,,,,,,,,,,,,,,,,,,,,,
818197,001,2022-11-20_20h50.41.971,Info_measure_main_exp,2022.2.2,Win32,59.79788315,,,,,,,,,,,,,,,,,,masks/mask_002.jpg,,,,,,,,,,,,,,,,,,,,,,,,,,,,,,,,,,,,,,,,,,,,,,,,0,4,4,1,1,,,,,,,,,,,,,,,,,,,,,,,,,,,,,,,,,,,,,,,,,
818197,001,2022-11-20_20h50.41.971,Info_measure_main_exp,2022.2.2,Win32,59.79788315,,,,,,,,,,,,,,,,,,,,,,,,,,,,,,2,2.2583,1,,,,,,,,,,,,0,131,5,5,1974,2214,absent_patch/patch0001974.jpg,absent_patch/patch0002214.jpg,,,,,,,,,,,,,,,,,,,,-0.084635417,-0.057291667,1,0,0,response5disk,21,0.0078125,0.002604167,1,0,0,center_square,0,20,20,24,1,,,,,,,,,,,,,,,,,,,,,,,
818197,001,2022-11-20_20h50.41.971,Info_measure_main_exp,2022.2.2,Win32,59.79788315,,,,,,,,,,,,,,,,,,masks/mask_002.jpg,,,,,,,,,,,,,,,,,,,,,,,,,,,,,,,,,,,,,,,,,,,0,0,0,1,1,,,,,,,,,,,,,,,,,,,,,,,,,,,,,,,,,,,,,,,,,,,,,,
818197,001,2022-11-20_20h50.41.971,Info_measure_main_exp,2022.2.2,Win32,59.79788315,,,,,,,,,,,,,,,,,,masks/mask_003.jpg,,,,,,,,,,,,,,,,,,,,,,,,,,,,,,,,,,,,,,,,,,,0,1,1,2,1,,,,,,,,,,,,,,,,,,,,,,,,,,,,,,,,,,,,,,,,,,,,,,
818197,001,2022-11-20_20h50.41.971,Info_measure_main_exp,2022.2.2,Win32,59.79788315,,,,,,,,,,,,,,,,,,masks/mask_001.jpg,,,,,,,,,,,,,,,,,,,,,,,,,,,,,,,,,,,,,,,,,,,0,2,2,0,1,,,,,,,,,,,,,,,,,,,,,,,,,,,,,,,,,,,,,,,,,,,,,,
818197,001,2022-11-20_20h50.41.971,Info_measure_main_exp,2022.2.2,Win32,59.79788315,,,,,,,,,,,,,,,,,,masks/mask_004.jpg,,,,,,,,,,,,,,,,,,,,,,,,,,,,,,,,,,,,,,,,,,,0,3,3,3,1,,,,,,,,,,,,,,,,,,,,,,,,,,,,,,,,,,,,,,,,,,,,,,
818197,001,2022-11-20_20h50.41.971,Info_measure_main_exp,2022.2.2,Win32,59.79788315,,,,,,,,,,,,,,,,,,masks/mask_005.jpg,,,,,,,,,,,,,,,,,,,,,,,,,,,,,,,,,,,,,,,,,,,0,4,4,4,1,,,,,,,,,,,,,,,,,,,,,,,,,,,,,,,,,,,,,,,,,,,,,,
818197,001,2022-11-20_20h50.41.971,Info_measure_main_exp,2022.2.2,Win32,59.79788315,,,,,,,,,,,,,,,,,,masks/mask_002.jpg,,,,,,,,,,,,,,,,,,,,,,,,,,,,,,,,,,,,,,,,,,,,,,,,0,0,0,1,1,,,,,,,,,,,,,,,,,,,,,,,,,,,,,,,,,,,,,,,,,
818197,001,2022-11-20_20h50.41.971,Info_measure_main_exp,2022.2.2,Win32,59.79788315,,,,,,,,,,,,,,,,,,masks/mask_004.jpg,,,,,,,,,,,,,,,,,,,,,,,,,,,,,,,,,,,,,,,,,,,,,,,,0,1,1,3,1,,,,,,,,,,,,,,,,,,,,,,,,,,,,,,,,,,,,,,,,,
818197,001,2022-11-20_20h50.41.971,Info_measure_main_exp,2022.2.2,Win32,59.79788315,,,,,,,,,,,,,,,,,,masks/mask_005.jpg,,,,,,,,,,,,,,,,,,,,,,,,,,,,,,,,,,,,,,,,,,,,,,,,0,2,2,4,1,,,,,,,,,,,,,,,,,,,,,,,,,,,,,,,,,,,,,,,,,
818197,001,2022-11-20_20h50.41.971,Info_measure_main_exp,2022.2.2,Win32,59.79788315,,,,,,,,,,,,,,,,,,masks/mask_001.jpg,,,,,,,,,,,,,,,,,,,,,,,,,,,,,,,,,,,,,,,,,,,,,,,,0,3,3,0,1,,,,,,,,,,,,,,,,,,,,,,,,,,,,,,,,,,,,,,,,,
818197,001,2022-11-20_20h50.41.971,Info_measure_main_exp,2022.2.2,Win32,59.79788315,,,,,,,,,,,,,,,,,,masks/mask_003.jpg,,,,,,,,,,,,,,,,,,,,,,,,,,,,,,,,,,,,,,,,,,,,,,,,0,4,4,2,1,,,,,,,,,,,,,,,,,,,,,,,,,,,,,,,,,,,,,,,,,
818197,001,2022-11-20_20h50.41.971,Info_measure_main_exp,2022.2.2,Win32,59.79788315,,,,,,,,,,,,,,,,,,,,,,,,,,,,,,0,0.9702,1,,,,,,,,,,,,0,131,5,5,2142,2142,absent_patch/patch0002142.jpg,absent_patch/patch0002142.jpg,,,,,,,,,,,,,,,,,,,,-0.053385417,0.130208333,1,0,0,response7disk,22,0.00390625,0.001302083,1,0,0,center_square,0,21,21,13,1,,,,,,,,,,,,,,,,,,,,,,,
818197,001,2022-11-20_20h50.41.971,Info_measure_main_exp,2022.2.2,Win32,59.79788315,,,,,,,,,,,,,,,,,,masks/mask_003.jpg,,,,,,,,,,,,,,,,,,,,,,,,,,,,,,,,,,,,,,,,,,,0,0,0,2,1,,,,,,,,,,,,,,,,,,,,,,,,,,,,,,,,,,,,,,,,,,,,,,
818197,001,2022-11-20_20h50.41.971,Info_measure_main_exp,2022.2.2,Win32,59.79788315,,,,,,,,,,,,,,,,,,masks/mask_002.jpg,,,,,,,,,,,,,,,,,,,,,,,,,,,,,,,,,,,,,,,,,,,0,1,1,1,1,,,,,,,,,,,,,,,,,,,,,,,,,,,,,,,,,,,,,,,,,,,,,,
818197,001,2022-11-20_20h50.41.971,Info_measure_main_exp,2022.2.2,Win32,59.79788315,,,,,,,,,,,,,,,,,,masks/mask_005.jpg,,,,,,,,,,,,,,,,,,,,,,,,,,,,,,,,,,,,,,,,,,,0,2,2,4,1,,,,,,,,,,,,,,,,,,,,,,,,,,,,,,,,,,,,,,,,,,,,,,
818197,001,2022-11-20_20h50.41.971,Info_measure_main_exp,2022.2.2,Win32,59.79788315,,,,,,,,,,,,,,,,,,masks/mask_001.jpg,,,,,,,,,,,,,,,,,,,,,,,,,,,,,,,,,,,,,,,,,,,0,3,3,0,1,,,,,,,,,,,,,,,,,,,,,,,,,,,,,,,,,,,,,,,,,,,,,,
818197,001,2022-11-20_20h50.41.971,Info_measure_main_exp,2022.2.2,Win32,59.79788315,,,,,,,,,,,,,,,,,,masks/mask_004.jpg,,,,,,,,,,,,,,,,,,,,,,,,,,,,,,,,,,,,,,,,,,,0,4,4,3,1,,,,,,,,,,,,,,,,,,,,,,,,,,,,,,,,,,,,,,,,,,,,,,
818197,001,2022-11-20_20h50.41.971,Info_measure_main_exp,2022.2.2,Win32,59.79788315,,,,,,,,,,,,,,,,,,masks/mask_002.jpg,,,,,,,,,,,,,,,,,,,,,,,,,,,,,,,,,,,,,,,,,,,,,,,,0,0,0,1,1,,,,,,,,,,,,,,,,,,,,,,,,,,,,,,,,,,,,,,,,,
818197,001,2022-11-20_20h50.41.971,Info_measure_main_exp,2022.2.2,Win32,59.79788315,,,,,,,,,,,,,,,,,,masks/mask_001.jpg,,,,,,,,,,,,,,,,,,,,,,,,,,,,,,,,,,,,,,,,,,,,,,,,0,1,1,0,1,,,,,,,,,,,,,,,,,,,,,,,,,,,,,,,,,,,,,,,,,
818197,001,2022-11-20_20h50.41.971,Info_measure_main_exp,2022.2.2,Win32,59.79788315,,,,,,,,,,,,,,,,,,masks/mask_003.jpg,,,,,,,,,,,,,,,,,,,,,,,,,,,,,,,,,,,,,,,,,,,,,,,,0,2,2,2,1,,,,,,,,,,,,,,,,,,,,,,,,,,,,,,,,,,,,,,,,,
818197,001,2022-11-20_20h50.41.971,Info_measure_main_exp,2022.2.2,Win32,59.79788315,,,,,,,,,,,,,,,,,,masks/mask_005.jpg,,,,,,,,,,,,,,,,,,,,,,,,,,,,,,,,,,,,,,,,,,,,,,,,0,3,3,4,1,,,,,,,,,,,,,,,,,,,,,,,,,,,,,,,,,,,,,,,,,
818197,001,2022-11-20_20h50.41.971,Info_measure_main_exp,2022.2.2,Win32,59.79788315,,,,,,,,,,,,,,,,,,masks/mask_004.jpg,,,,,,,,,,,,,,,,,,,,,,,,,,,,,,,,,,,,,,,,,,,,,,,,0,4,4,3,1,,,,,,,,,,,,,,,,,,,,,,,,,,,,,,,,,,,,,,,,,
818197,001,2022-11-20_20h50.41.971,Info_measure_main_exp,2022.2.2,Win32,59.79788315,,,,,,,,,,,,,,,,,,,,,,,,,,,,,,4,1.5056,1,,,,,,,,,,,,0,131,5,5,1950,2214,absent_patch/patch0001950.jpg,absent_patch/patch0002214.jpg,,,,,,,,,,,,,,,,,,,,0.053385417,-0.114583333,1,0,0,response3disk,23,-0.0078125,0.002604167,1,0,0,center_square,0,22,22,85,1,,,,,,,,,,,,,,,,,,,,,,,
818197,001,2022-11-20_20h50.41.971,Info_measure_main_exp,2022.2.2,Win32,59.79788315,,,,,,,,,,,,,,,,,,masks/mask_001.jpg,,,,,,,,,,,,,,,,,,,,,,,,,,,,,,,,,,,,,,,,,,,0,0,0,0,1,,,,,,,,,,,,,,,,,,,,,,,,,,,,,,,,,,,,,,,,,,,,,,
818197,001,2022-11-20_20h50.41.971,Info_measure_main_exp,2022.2.2,Win32,59.79788315,,,,,,,,,,,,,,,,,,masks/mask_003.jpg,,,,,,,,,,,,,,,,,,,,,,,,,,,,,,,,,,,,,,,,,,,0,1,1,2,1,,,,,,,,,,,,,,,,,,,,,,,,,,,,,,,,,,,,,,,,,,,,,,
818197,001,2022-11-20_20h50.41.971,Info_measure_main_exp,2022.2.2,Win32,59.79788315,,,,,,,,,,,,,,,,,,masks/mask_004.jpg,,,,,,,,,,,,,,,,,,,,,,,,,,,,,,,,,,,,,,,,,,,0,2,2,3,1,,,,,,,,,,,,,,,,,,,,,,,,,,,,,,,,,,,,,,,,,,,,,,
818197,001,2022-11-20_20h50.41.971,Info_measure_main_exp,2022.2.2,Win32,59.79788315,,,,,,,,,,,,,,,,,,masks/mask_005.jpg,,,,,,,,,,,,,,,,,,,,,,,,,,,,,,,,,,,,,,,,,,,0,3,3,4,1,,,,,,,,,,,,,,,,,,,,,,,,,,,,,,,,,,,,,,,,,,,,,,
818197,001,2022-11-20_20h50.41.971,Info_measure_main_exp,2022.2.2,Win32,59.79788315,,,,,,,,,,,,,,,,,,masks/mask_002.jpg,,,,,,,,,,,,,,,,,,,,,,,,,,,,,,,,,,,,,,,,,,,0,4,4,1,1,,,,,,,,,,,,,,,,,,,,,,,,,,,,,,,,,,,,,,,,,,,,,,
818197,001,2022-11-20_20h50.41.971,Info_measure_main_exp,2022.2.2,Win32,59.79788315,,,,,,,,,,,,,,,,,,masks/mask_001.jpg,,,,,,,,,,,,,,,,,,,,,,,,,,,,,,,,,,,,,,,,,,,,,,,,0,0,0,0,1,,,,,,,,,,,,,,,,,,,,,,,,,,,,,,,,,,,,,,,,,
818197,001,2022-11-20_20h50.41.971,Info_measure_main_exp,2022.2.2,Win32,59.79788315,,,,,,,,,,,,,,,,,,masks/mask_002.jpg,,,,,,,,,,,,,,,,,,,,,,,,,,,,,,,,,,,,,,,,,,,,,,,,0,1,1,1,1,,,,,,,,,,,,,,,,,,,,,,,,,,,,,,,,,,,,,,,,,
818197,001,2022-11-20_20h50.41.971,Info_measure_main_exp,2022.2.2,Win32,59.79788315,,,,,,,,,,,,,,,,,,masks/mask_003.jpg,,,,,,,,,,,,,,,,,,,,,,,,,,,,,,,,,,,,,,,,,,,,,,,,0,2,2,2,1,,,,,,,,,,,,,,,,,,,,,,,,,,,,,,,,,,,,,,,,,
818197,001,2022-11-20_20h50.41.971,Info_measure_main_exp,2022.2.2,Win32,59.79788315,,,,,,,,,,,,,,,,,,masks/mask_004.jpg,,,,,,,,,,,,,,,,,,,,,,,,,,,,,,,,,,,,,,,,,,,,,,,,0,3,3,3,1,,,,,,,,,,,,,,,,,,,,,,,,,,,,,,,,,,,,,,,,,
818197,001,2022-11-20_20h50.41.971,Info_measure_main_exp,2022.2.2,Win32,59.79788315,,,,,,,,,,,,,,,,,,masks/mask_005.jpg,,,,,,,,,,,,,,,,,,,,,,,,,,,,,,,,,,,,,,,,,,,,,,,,0,4,4,4,1,,,,,,,,,,,,,,,,,,,,,,,,,,,,,,,,,,,,,,,,,
818197,001,2022-11-20_20h50.41.971,Info_measure_main_exp,2022.2.2,Win32,59.79788315,,,,,,,,,,,,,,,,,,,,,,,,,,,,,,2,2.1736,1,,,,,,,,,,,,0,131,5,5,2298,2190,absent_patch/patch0002298.jpg,absent_patch/patch0002190.jpg,,,,,,,,,,,,,,,,,,,,-0.10546875,-0.069010417,1,0,0,response5disk,24,-0.006510417,0.002604167,1,0,0,center_square,0,23,23,20,1,,,,,,,,,,,,,,,,,,,,,,,
818197,001,2022-11-20_20h50.41.971,Info_measure_main_exp,2022.2.2,Win32,59.79788315,,,,,,,,,,,,,,,,,,masks/mask_001.jpg,,,,,,,,,,,,,,,,,,,,,,,,,,,,,,,,,,,,,,,,,,,0,0,0,0,1,,,,,,,,,,,,,,,,,,,,,,,,,,,,,,,,,,,,,,,,,,,,,,
818197,001,2022-11-20_20h50.41.971,Info_measure_main_exp,2022.2.2,Win32,59.79788315,,,,,,,,,,,,,,,,,,masks/mask_005.jpg,,,,,,,,,,,,,,,,,,,,,,,,,,,,,,,,,,,,,,,,,,,0,1,1,4,1,,,,,,,,,,,,,,,,,,,,,,,,,,,,,,,,,,,,,,,,,,,,,,
818197,001,2022-11-20_20h50.41.971,Info_measure_main_exp,2022.2.2,Win32,59.79788315,,,,,,,,,,,,,,,,,,masks/mask_002.jpg,,,,,,,,,,,,,,,,,,,,,,,,,,,,,,,,,,,,,,,,,,,0,2,2,1,1,,,,,,,,,,,,,,,,,,,,,,,,,,,,,,,,,,,,,,,,,,,,,,
818197,001,2022-11-20_20h50.41.971,Info_measure_main_exp,2022.2.2,Win32,59.79788315,,,,,,,,,,,,,,,,,,masks/mask_003.jpg,,,,,,,,,,,,,,,,,,,,,,,,,,,,,,,,,,,,,,,,,,,0,3,3,2,1,,,,,,,,,,,,,,,,,,,,,,,,,,,,,,,,,,,,,,,,,,,,,,
818197,001,2022-11-20_20h50.41.971,Info_measure_main_exp,2022.2.2,Win32,59.79788315,,,,,,,,,,,,,,,,,,masks/mask_004.jpg,,,,,,,,,,,,,,,,,,,,,,,,,,,,,,,,,,,,,,,,,,,0,4,4,3,1,,,,,,,,,,,,,,,,,,,,,,,,,,,,,,,,,,,,,,,,,,,,,,
818197,001,2022-11-20_20h50.41.971,Info_measure_main_exp,2022.2.2,Win32,59.79788315,,,,,,,,,,,,,,,,,,masks/mask_001.jpg,,,,,,,,,,,,,,,,,,,,,,,,,,,,,,,,,,,,,,,,,,,,,,,,0,0,0,0,1,,,,,,,,,,,,,,,,,,,,,,,,,,,,,,,,,,,,,,,,,
818197,001,2022-11-20_20h50.41.971,Info_measure_main_exp,2022.2.2,Win32,59.79788315,,,,,,,,,,,,,,,,,,masks/mask_002.jpg,,,,,,,,,,,,,,,,,,,,,,,,,,,,,,,,,,,,,,,,,,,,,,,,0,1,1,1,1,,,,,,,,,,,,,,,,,,,,,,,,,,,,,,,,,,,,,,,,,
818197,001,2022-11-20_20h50.41.971,Info_measure_main_exp,2022.2.2,Win32,59.79788315,,,,,,,,,,,,,,,,,,masks/mask_003.jpg,,,,,,,,,,,,,,,,,,,,,,,,,,,,,,,,,,,,,,,,,,,,,,,,0,2,2,2,1,,,,,,,,,,,,,,,,,,,,,,,,,,,,,,,,,,,,,,,,,
818197,001,2022-11-20_20h50.41.971,Info_measure_main_exp,2022.2.2,Win32,59.79788315,,,,,,,,,,,,,,,,,,masks/mask_005.jpg,,,,,,,,,,,,,,,,,,,,,,,,,,,,,,,,,,,,,,,,,,,,,,,,0,3,3,4,1,,,,,,,,,,,,,,,,,,,,,,,,,,,,,,,,,,,,,,,,,
818197,001,2022-11-20_20h50.41.971,Info_measure_main_exp,2022.2.2,Win32,59.79788315,,,,,,,,,,,,,,,,,,masks/mask_004.jpg,,,,,,,,,,,,,,,,,,,,,,,,,,,,,,,,,,,,,,,,,,,,,,,,0,4,4,3,1,,,,,,,,,,,,,,,,,,,,,,,,,,,,,,,,,,,,,,,,,
818197,001,2022-11-20_20h50.41.971,Info_measure_main_exp,2022.2.2,Win32,59.79788315,,,,,,,,,,,,,,,,,,,,,,,,,,,,,,6,1.2379,1,,,,,,,,,,,,0,131,5,5,2082,2166,absent_patch/patch0002082.jpg,absent_patch/patch0002166.jpg,,,,,,,,,,,,,,,,,,,,0.125,0.036458333,1,0,0,response1disk,25,0.00390625,-0.001302083,1,0,0,center_square,0,24,24,43,1,,,,,,,,,,,,,,,,,,,,,,,
818197,001,2022-11-20_20h50.41.971,Info_measure_main_exp,2022.2.2,Win32,59.79788315,,,,,,,,,,,,,,,,,,masks/mask_002.jpg,,,,,,,,,,,,,,,,,,,,,,,,,,,,,,,,,,,,,,,,,,,0,0,0,1,1,,,,,,,,,,,,,,,,,,,,,,,,,,,,,,,,,,,,,,,,,,,,,,
818197,001,2022-11-20_20h50.41.971,Info_measure_main_exp,2022.2.2,Win32,59.79788315,,,,,,,,,,,,,,,,,,masks/mask_005.jpg,,,,,,,,,,,,,,,,,,,,,,,,,,,,,,,,,,,,,,,,,,,0,1,1,4,1,,,,,,,,,,,,,,,,,,,,,,,,,,,,,,,,,,,,,,,,,,,,,,
818197,001,2022-11-20_20h50.41.971,Info_measure_main_exp,2022.2.2,Win32,59.79788315,,,,,,,,,,,,,,,,,,masks/mask_003.jpg,,,,,,,,,,,,,,,,,,,,,,,,,,,,,,,,,,,,,,,,,,,0,2,2,2,1,,,,,,,,,,,,,,,,,,,,,,,,,,,,,,,,,,,,,,,,,,,,,,
818197,001,2022-11-20_20h50.41.971,Info_measure_main_exp,2022.2.2,Win32,59.79788315,,,,,,,,,,,,,,,,,,masks/mask_004.jpg,,,,,,,,,,,,,,,,,,,,,,,,,,,,,,,,,,,,,,,,,,,0,3,3,3,1,,,,,,,,,,,,,,,,,,,,,,,,,,,,,,,,,,,,,,,,,,,,,,
818197,001,2022-11-20_20h50.41.971,Info_measure_main_exp,2022.2.2,Win32,59.79788315,,,,,,,,,,,,,,,,,,masks/mask_001.jpg,,,,,,,,,,,,,,,,,,,,,,,,,,,,,,,,,,,,,,,,,,,0,4,4,0,1,,,,,,,,,,,,,,,,,,,,,,,,,,,,,,,,,,,,,,,,,,,,,,
818197,001,2022-11-20_20h50.41.971,Info_measure_main_exp,2022.2.2,Win32,59.79788315,,,,,,,,,,,,,,,,,,masks/mask_003.jpg,,,,,,,,,,,,,,,,,,,,,,,,,,,,,,,,,,,,,,,,,,,,,,,,0,0,0,2,1,,,,,,,,,,,,,,,,,,,,,,,,,,,,,,,,,,,,,,,,,
818197,001,2022-11-20_20h50.41.971,Info_measure_main_exp,2022.2.2,Win32,59.79788315,,,,,,,,,,,,,,,,,,masks/mask_005.jpg,,,,,,,,,,,,,,,,,,,,,,,,,,,,,,,,,,,,,,,,,,,,,,,,0,1,1,4,1,,,,,,,,,,,,,,,,,,,,,,,,,,,,,,,,,,,,,,,,,
818197,001,2022-11-20_20h50.41.971,Info_measure_main_exp,2022.2.2,Win32,59.79788315,,,,,,,,,,,,,,,,,,masks/mask_004.jpg,,,,,,,,,,,,,,,,,,,,,,,,,,,,,,,,,,,,,,,,,,,,,,,,0,2,2,3,1,,,,,,,,,,,,,,,,,,,,,,,,,,,,,,,,,,,,,,,,,
818197,001,2022-11-20_20h50.41.971,Info_measure_main_exp,2022.2.2,Win32,59.79788315,,,,,,,,,,,,,,,,,,masks/mask_002.jpg,,,,,,,,,,,,,,,,,,,,,,,,,,,,,,,,,,,,,,,,,,,,,,,,0,3,3,1,1,,,,,,,,,,,,,,,,,,,,,,,,,,,,,,,,,,,,,,,,,
818197,001,2022-11-20_20h50.41.971,Info_measure_main_exp,2022.2.2,Win32,59.79788315,,,,,,,,,,,,,,,,,,masks/mask_001.jpg,,,,,,,,,,,,,,,,,,,,,,,,,,,,,,,,,,,,,,,,,,,,,,,,0,4,4,0,1,,,,,,,,,,,,,,,,,,,,,,,,,,,,,,,,,,,,,,,,,
818197,001,2022-11-20_20h50.41.971,Info_measure_main_exp,2022.2.2,Win32,59.79788315,,,,,,,,,,,,,,,,,,,,,,,,,,,,,,2,2.1744,1,,,,,,,,,,,,0,131,5,5,2142,2166,absent_patch/patch0002142.jpg,absent_patch/patch0002166.jpg,,,,,,,,,,,,,,,,,,,,-0.130208333,-0.049479167,1,0,0,response5disk,26,-0.001302083,0.001302083,1,0,0,center_square,0,25,25,66,1,,,,,,,,,,,,,,,,,,,,,,,
818197,001,2022-11-20_20h50.41.971,Info_measure_main_exp,2022.2.2,Win32,59.79788315,,,,,,,,,,,,,,,,,,masks/mask_003.jpg,,,,,,,,,,,,,,,,,,,,,,,,,,,,,,,,,,,,,,,,,,,0,0,0,2,1,,,,,,,,,,,,,,,,,,,,,,,,,,,,,,,,,,,,,,,,,,,,,,
818197,001,2022-11-20_20h50.41.971,Info_measure_main_exp,2022.2.2,Win32,59.79788315,,,,,,,,,,,,,,,,,,masks/mask_002.jpg,,,,,,,,,,,,,,,,,,,,,,,,,,,,,,,,,,,,,,,,,,,0,1,1,1,1,,,,,,,,,,,,,,,,,,,,,,,,,,,,,,,,,,,,,,,,,,,,,,
818197,001,2022-11-20_20h50.41.971,Info_measure_main_exp,2022.2.2,Win32,59.79788315,,,,,,,,,,,,,,,,,,masks/mask_004.jpg,,,,,,,,,,,,,,,,,,,,,,,,,,,,,,,,,,,,,,,,,,,0,2,2,3,1,,,,,,,,,,,,,,,,,,,,,,,,,,,,,,,,,,,,,,,,,,,,,,
818197,001,2022-11-20_20h50.41.971,Info_measure_main_exp,2022.2.2,Win32,59.79788315,,,,,,,,,,,,,,,,,,masks/mask_001.jpg,,,,,,,,,,,,,,,,,,,,,,,,,,,,,,,,,,,,,,,,,,,0,3,3,0,1,,,,,,,,,,,,,,,,,,,,,,,,,,,,,,,,,,,,,,,,,,,,,,
818197,001,2022-11-20_20h50.41.971,Info_measure_main_exp,2022.2.2,Win32,59.79788315,,,,,,,,,,,,,,,,,,masks/mask_005.jpg,,,,,,,,,,,,,,,,,,,,,,,,,,,,,,,,,,,,,,,,,,,0,4,4,4,1,,,,,,,,,,,,,,,,,,,,,,,,,,,,,,,,,,,,,,,,,,,,,,
818197,001,2022-11-20_20h50.41.971,Info_measure_main_exp,2022.2.2,Win32,59.79788315,,,,,,,,,,,,,,,,,,masks/mask_001.jpg,,,,,,,,,,,,,,,,,,,,,,,,,,,,,,,,,,,,,,,,,,,,,,,,0,0,0,0,1,,,,,,,,,,,,,,,,,,,,,,,,,,,,,,,,,,,,,,,,,
818197,001,2022-11-20_20h50.41.971,Info_measure_main_exp,2022.2.2,Win32,59.79788315,,,,,,,,,,,,,,,,,,masks/mask_005.jpg,,,,,,,,,,,,,,,,,,,,,,,,,,,,,,,,,,,,,,,,,,,,,,,,0,1,1,4,1,,,,,,,,,,,,,,,,,,,,,,,,,,,,,,,,,,,,,,,,,
818197,001,2022-11-20_20h50.41.971,Info_measure_main_exp,2022.2.2,Win32,59.79788315,,,,,,,,,,,,,,,,,,masks/mask_004.jpg,,,,,,,,,,,,,,,,,,,,,,,,,,,,,,,,,,,,,,,,,,,,,,,,0,2,2,3,1,,,,,,,,,,,,,,,,,,,,,,,,,,,,,,,,,,,,,,,,,
818197,001,2022-11-20_20h50.41.971,Info_measure_main_exp,2022.2.2,Win32,59.79788315,,,,,,,,,,,,,,,,,,masks/mask_003.jpg,,,,,,,,,,,,,,,,,,,,,,,,,,,,,,,,,,,,,,,,,,,,,,,,0,3,3,2,1,,,,,,,,,,,,,,,,,,,,,,,,,,,,,,,,,,,,,,,,,
818197,001,2022-11-20_20h50.41.971,Info_measure_main_exp,2022.2.2,Win32,59.79788315,,,,,,,,,,,,,,,,,,masks/mask_002.jpg,,,,,,,,,,,,,,,,,,,,,,,,,,,,,,,,,,,,,,,,,,,,,,,,0,4,4,1,1,,,,,,,,,,,,,,,,,,,,,,,,,,,,,,,,,,,,,,,,,
818197,001,2022-11-20_20h50.41.971,Info_measure_main_exp,2022.2.2,Win32,59.79788315,,,,,,,,,,,,,,,,,,,,,,,,,,,,,,3,1.5724,1,,,,,,,,,,,,0,131,5,5,1974,2250,absent_patch/patch0001974.jpg,absent_patch/patch0002250.jpg,,,,,,,,,,,,,,,,,,,,-0.052083333,-0.127604167,1,0,0,response5disk,27,-0.001302083,0.009114583,1,0,0,center_square,0,26,26,55,1,,,,,,,,,,,,,,,,,,,,,,,
818197,001,2022-11-20_20h50.41.971,Info_measure_main_exp,2022.2.2,Win32,59.79788315,,,,,,,,,,,,,,,,,,masks/mask_001.jpg,,,,,,,,,,,,,,,,,,,,,,,,,,,,,,,,,,,,,,,,,,,0,0,0,0,1,,,,,,,,,,,,,,,,,,,,,,,,,,,,,,,,,,,,,,,,,,,,,,
818197,001,2022-11-20_20h50.41.971,Info_measure_main_exp,2022.2.2,Win32,59.79788315,,,,,,,,,,,,,,,,,,masks/mask_004.jpg,,,,,,,,,,,,,,,,,,,,,,,,,,,,,,,,,,,,,,,,,,,0,1,1,3,1,,,,,,,,,,,,,,,,,,,,,,,,,,,,,,,,,,,,,,,,,,,,,,
818197,001,2022-11-20_20h50.41.971,Info_measure_main_exp,2022.2.2,Win32,59.79788315,,,,,,,,,,,,,,,,,,masks/mask_005.jpg,,,,,,,,,,,,,,,,,,,,,,,,,,,,,,,,,,,,,,,,,,,0,2,2,4,1,,,,,,,,,,,,,,,,,,,,,,,,,,,,,,,,,,,,,,,,,,,,,,
818197,001,2022-11-20_20h50.41.971,Info_measure_main_exp,2022.2.2,Win32,59.79788315,,,,,,,,,,,,,,,,,,masks/mask_002.jpg,,,,,,,,,,,,,,,,,,,,,,,,,,,,,,,,,,,,,,,,,,,0,3,3,1,1,,,,,,,,,,,,,,,,,,,,,,,,,,,,,,,,,,,,,,,,,,,,,,
818197,001,2022-11-20_20h50.41.971,Info_measure_main_exp,2022.2.2,Win32,59.79788315,,,,,,,,,,,,,,,,,,masks/mask_003.jpg,,,,,,,,,,,,,,,,,,,,,,,,,,,,,,,,,,,,,,,,,,,0,4,4,2,1,,,,,,,,,,,,,,,,,,,,,,,,,,,,,,,,,,,,,,,,,,,,,,
818197,001,2022-11-20_20h50.41.971,Info_measure_main_exp,2022.2.2,Win32,59.79788315,,,,,,,,,,,,,,,,,,masks/mask_005.jpg,,,,,,,,,,,,,,,,,,,,,,,,,,,,,,,,,,,,,,,,,,,,,,,,0,0,0,4,1,,,,,,,,,,,,,,,,,,,,,,,,,,,,,,,,,,,,,,,,,
818197,001,2022-11-20_20h50.41.971,Info_measure_main_exp,2022.2.2,Win32,59.79788315,,,,,,,,,,,,,,,,,,masks/mask_004.jpg,,,,,,,,,,,,,,,,,,,,,,,,,,,,,,,,,,,,,,,,,,,,,,,,0,1,1,3,1,,,,,,,,,,,,,,,,,,,,,,,,,,,,,,,,,,,,,,,,,
818197,001,2022-11-20_20h50.41.971,Info_measure_main_exp,2022.2.2,Win32,59.79788315,,,,,,,,,,,,,,,,,,masks/mask_001.jpg,,,,,,,,,,,,,,,,,,,,,,,,,,,,,,,,,,,,,,,,,,,,,,,,0,2,2,0,1,,,,,,,,,,,,,,,,,,,,,,,,,,,,,,,,,,,,,,,,,
818197,001,2022-11-20_20h50.41.971,Info_measure_main_exp,2022.2.2,Win32,59.79788315,,,,,,,,,,,,,,,,,,masks/mask_002.jpg,,,,,,,,,,,,,,,,,,,,,,,,,,,,,,,,,,,,,,,,,,,,,,,,0,3,3,1,1,,,,,,,,,,,,,,,,,,,,,,,,,,,,,,,,,,,,,,,,,
818197,001,2022-11-20_20h50.41.971,Info_measure_main_exp,2022.2.2,Win32,59.79788315,,,,,,,,,,,,,,,,,,masks/mask_003.jpg,,,,,,,,,,,,,,,,,,,,,,,,,,,,,,,,,,,,,,,,,,,,,,,,0,4,4,2,1,,,,,,,,,,,,,,,,,,,,,,,,,,,,,,,,,,,,,,,,,
818197,001,2022-11-20_20h50.41.971,Info_measure_main_exp,2022.2.2,Win32,59.79788315,,,,,,,,,,,,,,,,,,,,,,,,,,,,,,0,0.7193,1,,,,,,,,,,,,0,131,5,5,1974,1974,absent_patch/patch0001974.jpg,absent_patch/patch0001974.jpg,,,,,,,,,,,,,,,,,,,,-0.079427083,0.130208333,1,0,0,response7disk,28,-0.005208333,0,1,0,0,center_square,0,27,27,113,1,,,,,,,,,,,,,,,,,,,,,,,
818197,001,2022-11-20_20h50.41.971,Info_measure_main_exp,2022.2.2,Win32,59.79788315,,,,,,,,,,,,,,,,,,masks/mask_005.jpg,,,,,,,,,,,,,,,,,,,,,,,,,,,,,,,,,,,,,,,,,,,0,0,0,4,1,,,,,,,,,,,,,,,,,,,,,,,,,,,,,,,,,,,,,,,,,,,,,,
818197,001,2022-11-20_20h50.41.971,Info_measure_main_exp,2022.2.2,Win32,59.79788315,,,,,,,,,,,,,,,,,,masks/mask_002.jpg,,,,,,,,,,,,,,,,,,,,,,,,,,,,,,,,,,,,,,,,,,,0,1,1,1,1,,,,,,,,,,,,,,,,,,,,,,,,,,,,,,,,,,,,,,,,,,,,,,
818197,001,2022-11-20_20h50.41.971,Info_measure_main_exp,2022.2.2,Win32,59.79788315,,,,,,,,,,,,,,,,,,masks/mask_004.jpg,,,,,,,,,,,,,,,,,,,,,,,,,,,,,,,,,,,,,,,,,,,0,2,2,3,1,,,,,,,,,,,,,,,,,,,,,,,,,,,,,,,,,,,,,,,,,,,,,,
818197,001,2022-11-20_20h50.41.971,Info_measure_main_exp,2022.2.2,Win32,59.79788315,,,,,,,,,,,,,,,,,,masks/mask_001.jpg,,,,,,,,,,,,,,,,,,,,,,,,,,,,,,,,,,,,,,,,,,,0,3,3,0,1,,,,,,,,,,,,,,,,,,,,,,,,,,,,,,,,,,,,,,,,,,,,,,
818197,001,2022-11-20_20h50.41.971,Info_measure_main_exp,2022.2.2,Win32,59.79788315,,,,,,,,,,,,,,,,,,masks/mask_003.jpg,,,,,,,,,,,,,,,,,,,,,,,,,,,,,,,,,,,,,,,,,,,0,4,4,2,1,,,,,,,,,,,,,,,,,,,,,,,,,,,,,,,,,,,,,,,,,,,,,,
818197,001,2022-11-20_20h50.41.971,Info_measure_main_exp,2022.2.2,Win32,59.79788315,,,,,,,,,,,,,,,,,,masks/mask_002.jpg,,,,,,,,,,,,,,,,,,,,,,,,,,,,,,,,,,,,,,,,,,,,,,,,0,0,0,1,1,,,,,,,,,,,,,,,,,,,,,,,,,,,,,,,,,,,,,,,,,
818197,001,2022-11-20_20h50.41.971,Info_measure_main_exp,2022.2.2,Win32,59.79788315,,,,,,,,,,,,,,,,,,masks/mask_001.jpg,,,,,,,,,,,,,,,,,,,,,,,,,,,,,,,,,,,,,,,,,,,,,,,,0,1,1,0,1,,,,,,,,,,,,,,,,,,,,,,,,,,,,,,,,,,,,,,,,,
818197,001,2022-11-20_20h50.41.971,Info_measure_main_exp,2022.2.2,Win32,59.79788315,,,,,,,,,,,,,,,,,,masks/mask_004.jpg,,,,,,,,,,,,,,,,,,,,,,,,,,,,,,,,,,,,,,,,,,,,,,,,0,2,2,3,1,,,,,,,,,,,,,,,,,,,,,,,,,,,,,,,,,,,,,,,,,
818197,001,2022-11-20_20h50.41.971,Info_measure_main_exp,2022.2.2,Win32,59.79788315,,,,,,,,,,,,,,,,,,masks/mask_005.jpg,,,,,,,,,,,,,,,,,,,,,,,,,,,,,,,,,,,,,,,,,,,,,,,,0,3,3,4,1,,,,,,,,,,,,,,,,,,,,,,,,,,,,,,,,,,,,,,,,,
818197,001,2022-11-20_20h50.41.971,Info_measure_main_exp,2022.2.2,Win32,59.79788315,,,,,,,,,,,,,,,,,,masks/mask_003.jpg,,,,,,,,,,,,,,,,,,,,,,,,,,,,,,,,,,,,,,,,,,,,,,,,0,4,4,2,1,,,,,,,,,,,,,,,,,,,,,,,,,,,,,,,,,,,,,,,,,
818197,001,2022-11-20_20h50.41.971,Info_measure_main_exp,2022.2.2,Win32,59.79788315,,,,,,,,,,,,,,,,,,,,,,,,,,,,,,0,0.552,1,,,,,,,,,,,,0,131,5,5,2082,2082,absent_patch/patch0002082.jpg,absent_patch/patch0002082.jpg,,,,,,,,,,,,,,,,,,,,-0.02734375,0.122395833,1,0,0,response7disk,29,0.006510417,0.00390625,1,0,0,center_square,0,28,28,74,1,,,,,,,,,,,,,,,,,,,,,,,
818197,001,2022-11-20_20h50.41.971,Info_measure_main_exp,2022.2.2,Win32,59.79788315,,,,,,,,,,,,,,,,,,masks/mask_004.jpg,,,,,,,,,,,,,,,,,,,,,,,,,,,,,,,,,,,,,,,,,,,0,0,0,3,1,,,,,,,,,,,,,,,,,,,,,,,,,,,,,,,,,,,,,,,,,,,,,,
818197,001,2022-11-20_20h50.41.971,Info_measure_main_exp,2022.2.2,Win32,59.79788315,,,,,,,,,,,,,,,,,,masks/mask_003.jpg,,,,,,,,,,,,,,,,,,,,,,,,,,,,,,,,,,,,,,,,,,,0,1,1,2,1,,,,,,,,,,,,,,,,,,,,,,,,,,,,,,,,,,,,,,,,,,,,,,
818197,001,2022-11-20_20h50.41.971,Info_measure_main_exp,2022.2.2,Win32,59.79788315,,,,,,,,,,,,,,,,,,masks/mask_002.jpg,,,,,,,,,,,,,,,,,,,,,,,,,,,,,,,,,,,,,,,,,,,0,2,2,1,1,,,,,,,,,,,,,,,,,,,,,,,,,,,,,,,,,,,,,,,,,,,,,,
818197,001,2022-11-20_20h50.41.971,Info_measure_main_exp,2022.2.2,Win32,59.79788315,,,,,,,,,,,,,,,,,,masks/mask_005.jpg,,,,,,,,,,,,,,,,,,,,,,,,,,,,,,,,,,,,,,,,,,,0,3,3,4,1,,,,,,,,,,,,,,,,,,,,,,,,,,,,,,,,,,,,,,,,,,,,,,
818197,001,2022-11-20_20h50.41.971,Info_measure_main_exp,2022.2.2,Win32,59.79788315,,,,,,,,,,,,,,,,,,masks/mask_001.jpg,,,,,,,,,,,,,,,,,,,,,,,,,,,,,,,,,,,,,,,,,,,0,4,4,0,1,,,,,,,,,,,,,,,,,,,,,,,,,,,,,,,,,,,,,,,,,,,,,,
818197,001,2022-11-20_20h50.41.971,Info_measure_main_exp,2022.2.2,Win32,59.79788315,,,,,,,,,,,,,,,,,,masks/mask_001.jpg,,,,,,,,,,,,,,,,,,,,,,,,,,,,,,,,,,,,,,,,,,,,,,,,0,0,0,0,1,,,,,,,,,,,,,,,,,,,,,,,,,,,,,,,,,,,,,,,,,
818197,001,2022-11-20_20h50.41.971,Info_measure_main_exp,2022.2.2,Win32,59.79788315,,,,,,,,,,,,,,,,,,masks/mask_002.jpg,,,,,,,,,,,,,,,,,,,,,,,,,,,,,,,,,,,,,,,,,,,,,,,,0,1,1,1,1,,,,,,,,,,,,,,,,,,,,,,,,,,,,,,,,,,,,,,,,,
818197,001,2022-11-20_20h50.41.971,Info_measure_main_exp,2022.2.2,Win32,59.79788315,,,,,,,,,,,,,,,,,,masks/mask_004.jpg,,,,,,,,,,,,,,,,,,,,,,,,,,,,,,,,,,,,,,,,,,,,,,,,0,2,2,3,1,,,,,,,,,,,,,,,,,,,,,,,,,,,,,,,,,,,,,,,,,
818197,001,2022-11-20_20h50.41.971,Info_measure_main_exp,2022.2.2,Win32,59.79788315,,,,,,,,,,,,,,,,,,masks/mask_003.jpg,,,,,,,,,,,,,,,,,,,,,,,,,,,,,,,,,,,,,,,,,,,,,,,,0,3,3,2,1,,,,,,,,,,,,,,,,,,,,,,,,,,,,,,,,,,,,,,,,,
818197,001,2022-11-20_20h50.41.971,Info_measure_main_exp,2022.2.2,Win32,59.79788315,,,,,,,,,,,,,,,,,,masks/mask_005.jpg,,,,,,,,,,,,,,,,,,,,,,,,,,,,,,,,,,,,,,,,,,,,,,,,0,4,4,4,1,,,,,,,,,,,,,,,,,,,,,,,,,,,,,,,,,,,,,,,,,
818197,001,2022-11-20_20h50.41.971,Info_measure_main_exp,2022.2.2,Win32,59.79788315,,,,,,,,,,,,,,,,,,,,,,,,,,,,,,3,3.0285,1,,,,,,,,,,,,0,131,5,5,2298,2178,absent_patch/patch0002298.jpg,absent_patch/patch0002178.jpg,,,,,,,,,,,,,,,,,,,,-0.045572917,-0.087239583,1,0,0,response5disk,30,0.00390625,-0.0078125,1,0,0,center_square,0,29,29,84,1,,,,,,,,,,,,,,,,,,,,,,,
818197,001,2022-11-20_20h50.41.971,Info_measure_main_exp,2022.2.2,Win32,59.79788315,,,,,,,,,,,,,,,,,,masks/mask_001.jpg,,,,,,,,,,,,,,,,,,,,,,,,,,,,,,,,,,,,,,,,,,,0,0,0,0,1,,,,,,,,,,,,,,,,,,,,,,,,,,,,,,,,,,,,,,,,,,,,,,
818197,001,2022-11-20_20h50.41.971,Info_measure_main_exp,2022.2.2,Win32,59.79788315,,,,,,,,,,,,,,,,,,masks/mask_004.jpg,,,,,,,,,,,,,,,,,,,,,,,,,,,,,,,,,,,,,,,,,,,0,1,1,3,1,,,,,,,,,,,,,,,,,,,,,,,,,,,,,,,,,,,,,,,,,,,,,,
818197,001,2022-11-20_20h50.41.971,Info_measure_main_exp,2022.2.2,Win32,59.79788315,,,,,,,,,,,,,,,,,,masks/mask_002.jpg,,,,,,,,,,,,,,,,,,,,,,,,,,,,,,,,,,,,,,,,,,,0,2,2,1,1,,,,,,,,,,,,,,,,,,,,,,,,,,,,,,,,,,,,,,,,,,,,,,
818197,001,2022-11-20_20h50.41.971,Info_measure_main_exp,2022.2.2,Win32,59.79788315,,,,,,,,,,,,,,,,,,masks/mask_003.jpg,,,,,,,,,,,,,,,,,,,,,,,,,,,,,,,,,,,,,,,,,,,0,3,3,2,1,,,,,,,,,,,,,,,,,,,,,,,,,,,,,,,,,,,,,,,,,,,,,,
818197,001,2022-11-20_20h50.41.971,Info_measure_main_exp,2022.2.2,Win32,59.79788315,,,,,,,,,,,,,,,,,,masks/mask_005.jpg,,,,,,,,,,,,,,,,,,,,,,,,,,,,,,,,,,,,,,,,,,,0,4,4,4,1,,,,,,,,,,,,,,,,,,,,,,,,,,,,,,,,,,,,,,,,,,,,,,
818197,001,2022-11-20_20h50.41.971,Info_measure_main_exp,2022.2.2,Win32,59.79788315,,,,,,,,,,,,,,,,,,masks/mask_001.jpg,,,,,,,,,,,,,,,,,,,,,,,,,,,,,,,,,,,,,,,,,,,,,,,,0,0,0,0,1,,,,,,,,,,,,,,,,,,,,,,,,,,,,,,,,,,,,,,,,,
818197,001,2022-11-20_20h50.41.971,Info_measure_main_exp,2022.2.2,Win32,59.79788315,,,,,,,,,,,,,,,,,,masks/mask_004.jpg,,,,,,,,,,,,,,,,,,,,,,,,,,,,,,,,,,,,,,,,,,,,,,,,0,1,1,3,1,,,,,,,,,,,,,,,,,,,,,,,,,,,,,,,,,,,,,,,,,
818197,001,2022-11-20_20h50.41.971,Info_measure_main_exp,2022.2.2,Win32,59.79788315,,,,,,,,,,,,,,,,,,masks/mask_003.jpg,,,,,,,,,,,,,,,,,,,,,,,,,,,,,,,,,,,,,,,,,,,,,,,,0,2,2,2,1,,,,,,,,,,,,,,,,,,,,,,,,,,,,,,,,,,,,,,,,,
818197,001,2022-11-20_20h50.41.971,Info_measure_main_exp,2022.2.2,Win32,59.79788315,,,,,,,,,,,,,,,,,,masks/mask_002.jpg,,,,,,,,,,,,,,,,,,,,,,,,,,,,,,,,,,,,,,,,,,,,,,,,0,3,3,1,1,,,,,,,,,,,,,,,,,,,,,,,,,,,,,,,,,,,,,,,,,
818197,001,2022-11-20_20h50.41.971,Info_measure_main_exp,2022.2.2,Win32,59.79788315,,,,,,,,,,,,,,,,,,masks/mask_005.jpg,,,,,,,,,,,,,,,,,,,,,,,,,,,,,,,,,,,,,,,,,,,,,,,,0,4,4,4,1,,,,,,,,,,,,,,,,,,,,,,,,,,,,,,,,,,,,,,,,,
818197,001,2022-11-20_20h50.41.971,Info_measure_main_exp,2022.2.2,Win32,59.79788315,,,,,,,,,,,,,,,,,,,,,,,,,,,,,,6,5.202,1,,,,,,,,,,,,0,131,5,5,2154,2250,absent_patch/patch0002154.jpg,absent_patch/patch0002250.jpg,,,,,,,,,,,,,,,,,,,,0.149739583,0.024739583,1,0,0,response1disk,31,0.00390625,-0.010416667,1,0,0,center_square,0,30,30,108,1,,,,,,,,,,,,,,,,,,,,,,,
818197,001,2022-11-20_20h50.41.971,Info_measure_main_exp,2022.2.2,Win32,59.79788315,,,,,,,,,,,,,,,,,,masks/mask_001.jpg,,,,,,,,,,,,,,,,,,,,,,,,,,,,,,,,,,,,,,,,,,,0,0,0,0,1,,,,,,,,,,,,,,,,,,,,,,,,,,,,,,,,,,,,,,,,,,,,,,
818197,001,2022-11-20_20h50.41.971,Info_measure_main_exp,2022.2.2,Win32,59.79788315,,,,,,,,,,,,,,,,,,masks/mask_002.jpg,,,,,,,,,,,,,,,,,,,,,,,,,,,,,,,,,,,,,,,,,,,0,1,1,1,1,,,,,,,,,,,,,,,,,,,,,,,,,,,,,,,,,,,,,,,,,,,,,,
818197,001,2022-11-20_20h50.41.971,Info_measure_main_exp,2022.2.2,Win32,59.79788315,,,,,,,,,,,,,,,,,,masks/mask_005.jpg,,,,,,,,,,,,,,,,,,,,,,,,,,,,,,,,,,,,,,,,,,,0,2,2,4,1,,,,,,,,,,,,,,,,,,,,,,,,,,,,,,,,,,,,,,,,,,,,,,
818197,001,2022-11-20_20h50.41.971,Info_measure_main_exp,2022.2.2,Win32,59.79788315,,,,,,,,,,,,,,,,,,masks/mask_003.jpg,,,,,,,,,,,,,,,,,,,,,,,,,,,,,,,,,,,,,,,,,,,0,3,3,2,1,,,,,,,,,,,,,,,,,,,,,,,,,,,,,,,,,,,,,,,,,,,,,,
818197,001,2022-11-20_20h50.41.971,Info_measure_main_exp,2022.2.2,Win32,59.79788315,,,,,,,,,,,,,,,,,,masks/mask_004.jpg,,,,,,,,,,,,,,,,,,,,,,,,,,,,,,,,,,,,,,,,,,,0,4,4,3,1,,,,,,,,,,,,,,,,,,,,,,,,,,,,,,,,,,,,,,,,,,,,,,
818197,001,2022-11-20_20h50.41.971,Info_measure_main_exp,2022.2.2,Win32,59.79788315,,,,,,,,,,,,,,,,,,masks/mask_005.jpg,,,,,,,,,,,,,,,,,,,,,,,,,,,,,,,,,,,,,,,,,,,,,,,,0,0,0,4,1,,,,,,,,,,,,,,,,,,,,,,,,,,,,,,,,,,,,,,,,,
818197,001,2022-11-20_20h50.41.971,Info_measure_main_exp,2022.2.2,Win32,59.79788315,,,,,,,,,,,,,,,,,,masks/mask_003.jpg,,,,,,,,,,,,,,,,,,,,,,,,,,,,,,,,,,,,,,,,,,,,,,,,0,1,1,2,1,,,,,,,,,,,,,,,,,,,,,,,,,,,,,,,,,,,,,,,,,
818197,001,2022-11-20_20h50.41.971,Info_measure_main_exp,2022.2.2,Win32,59.79788315,,,,,,,,,,,,,,,,,,masks/mask_001.jpg,,,,,,,,,,,,,,,,,,,,,,,,,,,,,,,,,,,,,,,,,,,,,,,,0,2,2,0,1,,,,,,,,,,,,,,,,,,,,,,,,,,,,,,,,,,,,,,,,,
818197,001,2022-11-20_20h50.41.971,Info_measure_main_exp,2022.2.2,Win32,59.79788315,,,,,,,,,,,,,,,,,,masks/mask_002.jpg,,,,,,,,,,,,,,,,,,,,,,,,,,,,,,,,,,,,,,,,,,,,,,,,0,3,3,1,1,,,,,,,,,,,,,,,,,,,,,,,,,,,,,,,,,,,,,,,,,
818197,001,2022-11-20_20h50.41.971,Info_measure_main_exp,2022.2.2,Win32,59.79788315,,,,,,,,,,,,,,,,,,masks/mask_004.jpg,,,,,,,,,,,,,,,,,,,,,,,,,,,,,,,,,,,,,,,,,,,,,,,,0,4,4,3,1,,,,,,,,,,,,,,,,,,,,,,,,,,,,,,,,,,,,,,,,,
818197,001,2022-11-20_20h50.41.971,Info_measure_main_exp,2022.2.2,Win32,59.79788315,,,,,,,,,,,,,,,,,,,,,,,,,,,,,,2,1.8393,1,,,,,,,,,,,,0,131,5,5,2274,2154,absent_patch/patch0002274.jpg,absent_patch/patch0002154.jpg,,,,,,,,,,,,,,,,,,,,-0.104166667,-0.045572917,1,0,0,response5disk,32,0.006510417,0.0078125,1,0,0,center_square,0,31,31,23,1,,,,,,,,,,,,,,,,,,,,,,,
818197,001,2022-11-20_20h50.41.971,Info_measure_main_exp,2022.2.2,Win32,59.79788315,,,,,,,,,,,,,,,,,,masks/mask_003.jpg,,,,,,,,,,,,,,,,,,,,,,,,,,,,,,,,,,,,,,,,,,,0,0,0,2,1,,,,,,,,,,,,,,,,,,,,,,,,,,,,,,,,,,,,,,,,,,,,,,
818197,001,2022-11-20_20h50.41.971,Info_measure_main_exp,2022.2.2,Win32,59.79788315,,,,,,,,,,,,,,,,,,masks/mask_005.jpg,,,,,,,,,,,,,,,,,,,,,,,,,,,,,,,,,,,,,,,,,,,0,1,1,4,1,,,,,,,,,,,,,,,,,,,,,,,,,,,,,,,,,,,,,,,,,,,,,,
818197,001,2022-11-20_20h50.41.971,Info_measure_main_exp,2022.2.2,Win32,59.79788315,,,,,,,,,,,,,,,,,,masks/mask_001.jpg,,,,,,,,,,,,,,,,,,,,,,,,,,,,,,,,,,,,,,,,,,,0,2,2,0,1,,,,,,,,,,,,,,,,,,,,,,,,,,,,,,,,,,,,,,,,,,,,,,
818197,001,2022-11-20_20h50.41.971,Info_measure_main_exp,2022.2.2,Win32,59.79788315,,,,,,,,,,,,,,,,,,masks/mask_004.jpg,,,,,,,,,,,,,,,,,,,,,,,,,,,,,,,,,,,,,,,,,,,0,3,3,3,1,,,,,,,,,,,,,,,,,,,,,,,,,,,,,,,,,,,,,,,,,,,,,,
818197,001,2022-11-20_20h50.41.971,Info_measure_main_exp,2022.2.2,Win32,59.79788315,,,,,,,,,,,,,,,,,,masks/mask_002.jpg,,,,,,,,,,,,,,,,,,,,,,,,,,,,,,,,,,,,,,,,,,,0,4,4,1,1,,,,,,,,,,,,,,,,,,,,,,,,,,,,,,,,,,,,,,,,,,,,,,
818197,001,2022-11-20_20h50.41.971,Info_measure_main_exp,2022.2.2,Win32,59.79788315,,,,,,,,,,,,,,,,,,masks/mask_002.jpg,,,,,,,,,,,,,,,,,,,,,,,,,,,,,,,,,,,,,,,,,,,,,,,,0,0,0,1,1,,,,,,,,,,,,,,,,,,,,,,,,,,,,,,,,,,,,,,,,,
818197,001,2022-11-20_20h50.41.971,Info_measure_main_exp,2022.2.2,Win32,59.79788315,,,,,,,,,,,,,,,,,,masks/mask_005.jpg,,,,,,,,,,,,,,,,,,,,,,,,,,,,,,,,,,,,,,,,,,,,,,,,0,1,1,4,1,,,,,,,,,,,,,,,,,,,,,,,,,,,,,,,,,,,,,,,,,
818197,001,2022-11-20_20h50.41.971,Info_measure_main_exp,2022.2.2,Win32,59.79788315,,,,,,,,,,,,,,,,,,masks/mask_003.jpg,,,,,,,,,,,,,,,,,,,,,,,,,,,,,,,,,,,,,,,,,,,,,,,,0,2,2,2,1,,,,,,,,,,,,,,,,,,,,,,,,,,,,,,,,,,,,,,,,,
818197,001,2022-11-20_20h50.41.971,Info_measure_main_exp,2022.2.2,Win32,59.79788315,,,,,,,,,,,,,,,,,,masks/mask_004.jpg,,,,,,,,,,,,,,,,,,,,,,,,,,,,,,,,,,,,,,,,,,,,,,,,0,3,3,3,1,,,,,,,,,,,,,,,,,,,,,,,,,,,,,,,,,,,,,,,,,
818197,001,2022-11-20_20h50.41.971,Info_measure_main_exp,2022.2.2,Win32,59.79788315,,,,,,,,,,,,,,,,,,masks/mask_001.jpg,,,,,,,,,,,,,,,,,,,,,,,,,,,,,,,,,,,,,,,,,,,,,,,,0,4,4,0,1,,,,,,,,,,,,,,,,,,,,,,,,,,,,,,,,,,,,,,,,,
818197,001,2022-11-20_20h50.41.971,Info_measure_main_exp,2022.2.2,Win32,59.79788315,,,,,,,,,,,,,,,,,,,,,,,,,,,,,,5,4.3656,1,,,,,,,,,,,,0,131,5,5,2250,2298,absent_patch/patch0002250.jpg,absent_patch/patch0002298.jpg,,,,,,,,,,,,,,,,,,,,0.087239583,-0.063802083,1,0,0,response3disk,33,-0.010416667,-0.006510417,1,0,0,center_square,0,32,32,59,1,,,,,,,,,,,,,,,,,,,,,,,
818197,001,2022-11-20_20h50.41.971,Info_measure_main_exp,2022.2.2,Win32,59.79788315,,,,,,,,,,,,,,,,,,masks/mask_003.jpg,,,,,,,,,,,,,,,,,,,,,,,,,,,,,,,,,,,,,,,,,,,0,0,0,2,1,,,,,,,,,,,,,,,,,,,,,,,,,,,,,,,,,,,,,,,,,,,,,,
818197,001,2022-11-20_20h50.41.971,Info_measure_main_exp,2022.2.2,Win32,59.79788315,,,,,,,,,,,,,,,,,,masks/mask_004.jpg,,,,,,,,,,,,,,,,,,,,,,,,,,,,,,,,,,,,,,,,,,,0,1,1,3,1,,,,,,,,,,,,,,,,,,,,,,,,,,,,,,,,,,,,,,,,,,,,,,
818197,001,2022-11-20_20h50.41.971,Info_measure_main_exp,2022.2.2,Win32,59.79788315,,,,,,,,,,,,,,,,,,masks/mask_002.jpg,,,,,,,,,,,,,,,,,,,,,,,,,,,,,,,,,,,,,,,,,,,0,2,2,1,1,,,,,,,,,,,,,,,,,,,,,,,,,,,,,,,,,,,,,,,,,,,,,,
818197,001,2022-11-20_20h50.41.971,Info_measure_main_exp,2022.2.2,Win32,59.79788315,,,,,,,,,,,,,,,,,,masks/mask_005.jpg,,,,,,,,,,,,,,,,,,,,,,,,,,,,,,,,,,,,,,,,,,,0,3,3,4,1,,,,,,,,,,,,,,,,,,,,,,,,,,,,,,,,,,,,,,,,,,,,,,
818197,001,2022-11-20_20h50.41.971,Info_measure_main_exp,2022.2.2,Win32,59.79788315,,,,,,,,,,,,,,,,,,masks/mask_001.jpg,,,,,,,,,,,,,,,,,,,,,,,,,,,,,,,,,,,,,,,,,,,0,4,4,0,1,,,,,,,,,,,,,,,,,,,,,,,,,,,,,,,,,,,,,,,,,,,,,,
818197,001,2022-11-20_20h50.41.971,Info_measure_main_exp,2022.2.2,Win32,59.79788315,,,,,,,,,,,,,,,,,,masks/mask_005.jpg,,,,,,,,,,,,,,,,,,,,,,,,,,,,,,,,,,,,,,,,,,,,,,,,0,0,0,4,1,,,,,,,,,,,,,,,,,,,,,,,,,,,,,,,,,,,,,,,,,
818197,001,2022-11-20_20h50.41.971,Info_measure_main_exp,2022.2.2,Win32,59.79788315,,,,,,,,,,,,,,,,,,masks/mask_002.jpg,,,,,,,,,,,,,,,,,,,,,,,,,,,,,,,,,,,,,,,,,,,,,,,,0,1,1,1,1,,,,,,,,,,,,,,,,,,,,,,,,,,,,,,,,,,,,,,,,,
818197,001,2022-11-20_20h50.41.971,Info_measure_main_exp,2022.2.2,Win32,59.79788315,,,,,,,,,,,,,,,,,,masks/mask_004.jpg,,,,,,,,,,,,,,,,,,,,,,,,,,,,,,,,,,,,,,,,,,,,,,,,0,2,2,3,1,,,,,,,,,,,,,,,,,,,,,,,,,,,,,,,,,,,,,,,,,
818197,001,2022-11-20_20h50.41.971,Info_measure_main_exp,2022.2.2,Win32,59.79788315,,,,,,,,,,,,,,,,,,masks/mask_003.jpg,,,,,,,,,,,,,,,,,,,,,,,,,,,,,,,,,,,,,,,,,,,,,,,,0,3,3,2,1,,,,,,,,,,,,,,,,,,,,,,,,,,,,,,,,,,,,,,,,,
818197,001,2022-11-20_20h50.41.971,Info_measure_main_exp,2022.2.2,Win32,59.79788315,,,,,,,,,,,,,,,,,,masks/mask_001.jpg,,,,,,,,,,,,,,,,,,,,,,,,,,,,,,,,,,,,,,,,,,,,,,,,0,4,4,0,1,,,,,,,,,,,,,,,,,,,,,,,,,,,,,,,,,,,,,,,,,
818197,001,2022-11-20_20h50.41.971,Info_measure_main_exp,2022.2.2,Win32,59.79788315,,,,,,,,,,,,,,,,,,,,,,,,,,,,,,6,2.1234,1,,,,,,,,,,,,0,131,5,5,1950,2298,absent_patch/patch0001950.jpg,absent_patch/patch0002298.jpg,,,,,,,,,,,,,,,,,,,,0.119791667,0.024739583,1,0,0,response1disk,34,0.010416667,0.002604167,1,0,0,center_square,0,33,33,18,1,,,,,,,,,,,,,,,,,,,,,,,
818197,001,2022-11-20_20h50.41.971,Info_measure_main_exp,2022.2.2,Win32,59.79788315,,,,,,,,,,,,,,,,,,masks/mask_004.jpg,,,,,,,,,,,,,,,,,,,,,,,,,,,,,,,,,,,,,,,,,,,0,0,0,3,1,,,,,,,,,,,,,,,,,,,,,,,,,,,,,,,,,,,,,,,,,,,,,,
818197,001,2022-11-20_20h50.41.971,Info_measure_main_exp,2022.2.2,Win32,59.79788315,,,,,,,,,,,,,,,,,,masks/mask_001.jpg,,,,,,,,,,,,,,,,,,,,,,,,,,,,,,,,,,,,,,,,,,,0,1,1,0,1,,,,,,,,,,,,,,,,,,,,,,,,,,,,,,,,,,,,,,,,,,,,,,
818197,001,2022-11-20_20h50.41.971,Info_measure_main_exp,2022.2.2,Win32,59.79788315,,,,,,,,,,,,,,,,,,masks/mask_002.jpg,,,,,,,,,,,,,,,,,,,,,,,,,,,,,,,,,,,,,,,,,,,0,2,2,1,1,,,,,,,,,,,,,,,,,,,,,,,,,,,,,,,,,,,,,,,,,,,,,,
818197,001,2022-11-20_20h50.41.971,Info_measure_main_exp,2022.2.2,Win32,59.79788315,,,,,,,,,,,,,,,,,,masks/mask_005.jpg,,,,,,,,,,,,,,,,,,,,,,,,,,,,,,,,,,,,,,,,,,,0,3,3,4,1,,,,,,,,,,,,,,,,,,,,,,,,,,,,,,,,,,,,,,,,,,,,,,
818197,001,2022-11-20_20h50.41.971,Info_measure_main_exp,2022.2.2,Win32,59.79788315,,,,,,,,,,,,,,,,,,masks/mask_003.jpg,,,,,,,,,,,,,,,,,,,,,,,,,,,,,,,,,,,,,,,,,,,0,4,4,2,1,,,,,,,,,,,,,,,,,,,,,,,,,,,,,,,,,,,,,,,,,,,,,,
818197,001,2022-11-20_20h50.41.971,Info_measure_main_exp,2022.2.2,Win32,59.79788315,,,,,,,,,,,,,,,,,,masks/mask_002.jpg,,,,,,,,,,,,,,,,,,,,,,,,,,,,,,,,,,,,,,,,,,,,,,,,0,0,0,1,1,,,,,,,,,,,,,,,,,,,,,,,,,,,,,,,,,,,,,,,,,
818197,001,2022-11-20_20h50.41.971,Info_measure_main_exp,2022.2.2,Win32,59.79788315,,,,,,,,,,,,,,,,,,masks/mask_001.jpg,,,,,,,,,,,,,,,,,,,,,,,,,,,,,,,,,,,,,,,,,,,,,,,,0,1,1,0,1,,,,,,,,,,,,,,,,,,,,,,,,,,,,,,,,,,,,,,,,,
818197,001,2022-11-20_20h50.41.971,Info_measure_main_exp,2022.2.2,Win32,59.79788315,,,,,,,,,,,,,,,,,,masks/mask_003.jpg,,,,,,,,,,,,,,,,,,,,,,,,,,,,,,,,,,,,,,,,,,,,,,,,0,2,2,2,1,,,,,,,,,,,,,,,,,,,,,,,,,,,,,,,,,,,,,,,,,
818197,001,2022-11-20_20h50.41.971,Info_measure_main_exp,2022.2.2,Win32,59.79788315,,,,,,,,,,,,,,,,,,masks/mask_004.jpg,,,,,,,,,,,,,,,,,,,,,,,,,,,,,,,,,,,,,,,,,,,,,,,,0,3,3,3,1,,,,,,,,,,,,,,,,,,,,,,,,,,,,,,,,,,,,,,,,,
