Trial_number,Pair_type,Image_num,Patch_1_loc,Patch_2_loc,Patch_1_info,Patch_2_info,Patch_1_name,Patch_2_name,mask_name,prac_loop.thisRepN,prac_loop.thisTrialN,prac_loop.thisN,prac_loop.thisIndex,prac_mask_loop_1.thisRepN,prac_mask_loop_1.thisTrialN,prac_mask_loop_1.thisN,prac_mask_loop_1.thisIndex,prac_mask_loop_2.thisRepN,prac_mask_loop_2.thisTrialN,prac_mask_loop_2.thisN,prac_mask_loop_2.thisIndex,first_pass_loop.thisRepN,first_pass_loop.thisTrialN,first_pass_loop.thisN,first_pass_loop.thisIndex,mask_loop.thisRepN,mask_loop.thisTrialN,mask_loop.thisN,mask_loop.thisIndex,mask_loop_2.thisRepN,mask_loop_2.thisTrialN,mask_loop_2.thisN,mask_loop_2.thisIndex,double_pass_loop.thisRepN,double_pass_loop.thisTrialN,double_pass_loop.thisN,double_pass_loop.thisIndex,mask_loop_3.thisRepN,mask_loop_3.thisTrialN,mask_loop_3.thisN,mask_loop_3.thisIndex,mask_loop_4.thisRepN,mask_loop_4.thisTrialN,mask_loop_4.thisN,mask_loop_4.thisIndex,instruction_1_text.started,all_patches.started,space_press_continue.started,press_space_continue.started,space_press_continue.keys,space_press_continue.rt,patch_1_movie.started,space_press_continue_2.started,space_press_continue_2.keys,space_press_continue_2.rt,patch_2_movie.started,space_press_continue_3.started,space_press_continue_3.keys,space_press_continue_3.rt,instruction_text_4.started,response_screen_intr.started,space_press_continue_4.started,space_continue_low.started,space_press_continue_4.keys,space_press_continue_4.rt,instruction_text_5.started,response_screen_after.started,space_press_continue_5.started,space_continue_low_2.started,space_press_continue_5.keys,space_press_continue_5.rt,prac_begin_space.started,space_press_continue_6.started,space_press_continue_6.keys,space_press_continue_6.rt,practice_patch_1.started,practice_patch_1.stopped,practice_patch_2.started,practice_patch_2.stopped,mouse.started,text_23.started,mouse.x,mouse.y,mouse.leftButton,mouse.midButton,mouse.rightButton,mouse.clicked_name,similarity,response_time,Pass,text_55.started,text_56.started,text_55.stopped,text_56.stopped,mouse_11.started,mouse_11.x,mouse_11.y,mouse_11.leftButton,mouse_11.midButton,mouse_11.rightButton,mouse_11.clicked_name,space_press_continue_7.started,mouse_1.x,mouse_1.y,mouse_1.leftButton,mouse_1.midButton,mouse_1.rightButton,mouse_1.time,mouse_1.clicked_name,space_press_continue_7.keys,space_press_continue_7.rt,first_patch.started,first_patch.stopped,second_patch.started,second_patch.stopped,trial_num_text.started,space_press_continue_8.started,space_press_continue_8.keys,space_press_continue_8.rt,space_exit.started,space_exit.keys,space_exit.rt,participant,session,date,expName,psychopyVersion,frameRate,
,,,,,,,,,,,,,,,,,,,,,,,,,,,,,,,,,,,,,,,,,,,,,,9.307637299993075,9.307637299993075,9.307637299993075,9.307637299993075,space,0.7754986999789253,,,,,,,,,,,,,,,,,,,,,,,,,,,,,,,,,,,,,,,,,,,,,,,,,,,,,,,,,,,,,,,,,,,,,,,,818564,001,2022-11-07_11h02.19.484,Info_measure_main_exp,2022.2.2,144.66336824602325,
,,,,,,,,,,,,,,,,,,,,,,,,,,,,,,,,,,,,,,,,,,,,,,,,,,,,10.093340099963825,10.093340099963825,space,1.3529567000223324,,,,,,,,,,,,,,,,,,,,,,,,,,,,,,,,,,,,,,,,,,,,,,,,,,,,,,,,,,,,,,,,,,,,818564,001,2022-11-07_11h02.19.484,Info_measure_main_exp,2022.2.2,144.66336824602325,
,,,,,,,,,,,,,,,,,,,,,,,,,,,,,,,,,,,,,,,,,,,,,,,,,,,,,,,,11.458090499974787,11.458090499974787,space,1.1044776000198908,,,,,,,,,,,,,,,,,,,,,,,,,,,,,,,,,,,,,,,,,,,,,,,,,,,,,,,,,,,,,,,,818564,001,2022-11-07_11h02.19.484,Info_measure_main_exp,2022.2.2,144.66336824602325,
,,,,,,,,,,,,,,,,,,,,,,,,,,,,,,,,,,,,,,,,,,,,,,,,,,,,,,,,,,,,12.575733200006653,12.575733200006653,12.575733200006653,12.575733200006653,space,1.3327489999937825,,,,,,,,,,,,,,,,,,,,,,,,,,,,,,,,,,,,,,,,,,,,,,,,,,,,,,,,,,818564,001,2022-11-07_11h02.19.484,Info_measure_main_exp,2022.2.2,144.66336824602325,
,,,,,,,,,,,,,,,,,,,,,,,,,,,,,,,,,,,,,,,,,,,,,,,,,,,,,,,,,,,,,,,,,,13.915770799969323,13.915770799969323,13.915770799969323,13.915770799969323,space,0.8712817000341602,,,,,,,,,,,,,,,,,,,,,,,,,,,,,,,,,,,,,,,,,,,,,,,,,,,,818564,001,2022-11-07_11h02.19.484,Info_measure_main_exp,2022.2.2,144.66336824602325,
,,,,,,,,,,,,,,,,,,,,,,,,,,,,,,,,,,,,,,,,,,,,,,,,,,,,,,,,,,,,,,,,,,,,,,,,14.797971099964343,14.797971099964343,space,1.8920871999580413,,,,,,,,,,,,,,,,,,,,,,,,,,,,,,,,,,,,,,,,,,,,,,,,818564,001,2022-11-07_11h02.19.484,Info_measure_main_exp,2022.2.2,144.66336824602325,
3,0,131,5,5,2154,2142,prac_patch/patch0002154.jpg,prac_patch/patch0002142.jpg,masks/mask_001.jpg,0,0,0,2,0,0,0,0,,,,,,,,,,,,,,,,,,,,,,,,,,,,,,,,,,,,,,,,,,,,,,,,,,,,,,,,,,,17.19364959996892,17.351340699999128,,,,,,,,,,,,,,,,,,,,,,,,,,,,,,,,,,,,,,,,,,,,,,818564,001,2022-11-07_11h02.19.484,Info_measure_main_exp,2022.2.2,144.66336824602325,
3,0,131,5,5,2154,2142,prac_patch/patch0002154.jpg,prac_patch/patch0002142.jpg,masks/mask_004.jpg,0,0,0,2,0,1,1,3,,,,,,,,,,,,,,,,,,,,,,,,,,,,,,,,,,,,,,,,,,,,,,,,,,,,,,,,,,,,,,,,,,,,,,,,,,,,,,,,,,,,,,,,,,,,,,,,,,,,,,,,,,818564,001,2022-11-07_11h02.19.484,Info_measure_main_exp,2022.2.2,144.66336824602325,
3,0,131,5,5,2154,2142,prac_patch/patch0002154.jpg,prac_patch/patch0002142.jpg,masks/mask_005.jpg,0,0,0,2,0,2,2,4,,,,,,,,,,,,,,,,,,,,,,,,,,,,,,,,,,,,,,,,,,,,,,,,,,,,,,,,,,,,,,,,,,,,,,,,,,,,,,,,,,,,,,,,,,,,,,,,,,,,,,,,,,818564,001,2022-11-07_11h02.19.484,Info_measure_main_exp,2022.2.2,144.66336824602325,
3,0,131,5,5,2154,2142,prac_patch/patch0002154.jpg,prac_patch/patch0002142.jpg,masks/mask_003.jpg,0,0,0,2,0,3,3,2,,,,,,,,,,,,,,,,,,,,,,,,,,,,,,,,,,,,,,,,,,,,,,,,,,,,,,,,,,,,,,,,,,,,,,,,,,,,,,,,,,,,,,,,,,,,,,,,,,,,,,,,,,818564,001,2022-11-07_11h02.19.484,Info_measure_main_exp,2022.2.2,144.66336824602325,
3,0,131,5,5,2154,2142,prac_patch/patch0002154.jpg,prac_patch/patch0002142.jpg,masks/mask_002.jpg,0,0,0,2,0,4,4,1,,,,,,,,,,,,,,,,,,,,,,,,,,,,,,,,,,,,,,,,,,,,,,,,,,,,,,,,,,,,,,,,,,,,,,,,,,,,,,,,,,,,,,,,,,,,,,,,,,,,,,,,,,818564,001,2022-11-07_11h02.19.484,Info_measure_main_exp,2022.2.2,144.66336824602325,
3,0,131,5,5,2154,2142,prac_patch/patch0002154.jpg,prac_patch/patch0002142.jpg,masks/mask_003.jpg,0,0,0,2,,,,,0,0,0,2,,,,,,,,,,,,,,,,,,,,,,,,,,,,,,,,,,,,,,,,,,,,,,,,,,,,,,,,,18.145663300005253,18.30186909995973,,,,,,,,,,,,,,,,,,,,,,,,,,,,,,,,,,,,,,,,,,,,818564,001,2022-11-07_11h02.19.484,Info_measure_main_exp,2022.2.2,144.66336824602325,
3,0,131,5,5,2154,2142,prac_patch/patch0002154.jpg,prac_patch/patch0002142.jpg,masks/mask_001.jpg,0,0,0,2,,,,,0,1,1,0,,,,,,,,,,,,,,,,,,,,,,,,,,,,,,,,,,,,,,,,,,,,,,,,,,,,,,,,,,,,,,,,,,,,,,,,,,,,,,,,,,,,,,,,,,,,,,,,,,,,,,818564,001,2022-11-07_11h02.19.484,Info_measure_main_exp,2022.2.2,144.66336824602325,
3,0,131,5,5,2154,2142,prac_patch/patch0002154.jpg,prac_patch/patch0002142.jpg,masks/mask_005.jpg,0,0,0,2,,,,,0,2,2,4,,,,,,,,,,,,,,,,,,,,,,,,,,,,,,,,,,,,,,,,,,,,,,,,,,,,,,,,,,,,,,,,,,,,,,,,,,,,,,,,,,,,,,,,,,,,,,,,,,,,,,818564,001,2022-11-07_11h02.19.484,Info_measure_main_exp,2022.2.2,144.66336824602325,
3,0,131,5,5,2154,2142,prac_patch/patch0002154.jpg,prac_patch/patch0002142.jpg,masks/mask_004.jpg,0,0,0,2,,,,,0,3,3,3,,,,,,,,,,,,,,,,,,,,,,,,,,,,,,,,,,,,,,,,,,,,,,,,,,,,,,,,,,,,,,,,,,,,,,,,,,,,,,,,,,,,,,,,,,,,,,,,,,,,,,818564,001,2022-11-07_11h02.19.484,Info_measure_main_exp,2022.2.2,144.66336824602325,
3,0,131,5,5,2154,2142,prac_patch/patch0002154.jpg,prac_patch/patch0002142.jpg,masks/mask_002.jpg,0,0,0,2,,,,,0,4,4,1,,,,,,,,,,,,,,,,,,,,,,,,,,,,,,,,,,,,,,,,,,,,,,,,,,,,,,,,,,,,,,,,,,,,,,,,,,,,,,,,,,,,,,,,,,,,,,,,,,,,,,818564,001,2022-11-07_11h02.19.484,Info_measure_main_exp,2022.2.2,144.66336824602325,
3,0,131,5,5,2154,2142,prac_patch/patch0002154.jpg,prac_patch/patch0002142.jpg,,0,0,0,2,,,,,,,,,,,,,,,,,,,,,,,,,,,,,,,,,,,,,,,,,,,,,,,,,,,,,,,,,,,,,,,,,,,0.004817799956072122,18.603906099975575,0.1962962962962963,-0.0962962962962963,1,0,0,response3disk,5,1.7231061000493355,1,20.340090699959546,20.340090699959546,24.341129999957047,24.341129999957047,2.719997428357601e-05,-0.001851851851851852,0.000925925925925926,1,0,0,center_square_2,,,,,,,,,,,,,,,,,,,,,,818564,001,2022-11-07_11h02.19.484,Info_measure_main_exp,2022.2.2,144.66336824602325,
1,0,131,5,5,2178,2190,prac_patch/patch0002178.jpg,prac_patch/patch0002190.jpg,masks/mask_004.jpg,0,1,1,0,0,0,0,3,,,,,,,,,,,,,,,,,,,,,,,,,,,,,,,,,,,,,,,,,,,,,,,,,,,,,,,,,,,26.61067029996775,26.771089699992444,,,,,,,,,,,,,,,,,,,,,,,,,,,,,,,,,,,,,,,,,,,,,,818564,001,2022-11-07_11h02.19.484,Info_measure_main_exp,2022.2.2,144.66336824602325,
1,0,131,5,5,2178,2190,prac_patch/patch0002178.jpg,prac_patch/patch0002190.jpg,masks/mask_005.jpg,0,1,1,0,0,1,1,4,,,,,,,,,,,,,,,,,,,,,,,,,,,,,,,,,,,,,,,,,,,,,,,,,,,,,,,,,,,,,,,,,,,,,,,,,,,,,,,,,,,,,,,,,,,,,,,,,,,,,,,,,,818564,001,2022-11-07_11h02.19.484,Info_measure_main_exp,2022.2.2,144.66336824602325,
1,0,131,5,5,2178,2190,prac_patch/patch0002178.jpg,prac_patch/patch0002190.jpg,masks/mask_003.jpg,0,1,1,0,0,2,2,2,,,,,,,,,,,,,,,,,,,,,,,,,,,,,,,,,,,,,,,,,,,,,,,,,,,,,,,,,,,,,,,,,,,,,,,,,,,,,,,,,,,,,,,,,,,,,,,,,,,,,,,,,,818564,001,2022-11-07_11h02.19.484,Info_measure_main_exp,2022.2.2,144.66336824602325,
1,0,131,5,5,2178,2190,prac_patch/patch0002178.jpg,prac_patch/patch0002190.jpg,masks/mask_002.jpg,0,1,1,0,0,3,3,1,,,,,,,,,,,,,,,,,,,,,,,,,,,,,,,,,,,,,,,,,,,,,,,,,,,,,,,,,,,,,,,,,,,,,,,,,,,,,,,,,,,,,,,,,,,,,,,,,,,,,,,,,,818564,001,2022-11-07_11h02.19.484,Info_measure_main_exp,2022.2.2,144.66336824602325,
1,0,131,5,5,2178,2190,prac_patch/patch0002178.jpg,prac_patch/patch0002190.jpg,masks/mask_001.jpg,0,1,1,0,0,4,4,0,,,,,,,,,,,,,,,,,,,,,,,,,,,,,,,,,,,,,,,,,,,,,,,,,,,,,,,,,,,,,,,,,,,,,,,,,,,,,,,,,,,,,,,,,,,,,,,,,,,,,,,,,,818564,001,2022-11-07_11h02.19.484,Info_measure_main_exp,2022.2.2,144.66336824602325,
1,0,131,5,5,2178,2190,prac_patch/patch0002178.jpg,prac_patch/patch0002190.jpg,masks/mask_003.jpg,0,1,1,0,,,,,0,0,0,2,,,,,,,,,,,,,,,,,,,,,,,,,,,,,,,,,,,,,,,,,,,,,,,,,,,,,,,,,27.56214519997593,27.71759049996035,,,,,,,,,,,,,,,,,,,,,,,,,,,,,,,,,,,,,,,,,,,,818564,001,2022-11-07_11h02.19.484,Info_measure_main_exp,2022.2.2,144.66336824602325,
1,0,131,5,5,2178,2190,prac_patch/patch0002178.jpg,prac_patch/patch0002190.jpg,masks/mask_002.jpg,0,1,1,0,,,,,0,1,1,1,,,,,,,,,,,,,,,,,,,,,,,,,,,,,,,,,,,,,,,,,,,,,,,,,,,,,,,,,,,,,,,,,,,,,,,,,,,,,,,,,,,,,,,,,,,,,,,,,,,,,,818564,001,2022-11-07_11h02.19.484,Info_measure_main_exp,2022.2.2,144.66336824602325,
1,0,131,5,5,2178,2190,prac_patch/patch0002178.jpg,prac_patch/patch0002190.jpg,masks/mask_005.jpg,0,1,1,0,,,,,0,2,2,4,,,,,,,,,,,,,,,,,,,,,,,,,,,,,,,,,,,,,,,,,,,,,,,,,,,,,,,,,,,,,,,,,,,,,,,,,,,,,,,,,,,,,,,,,,,,,,,,,,,,,,818564,001,2022-11-07_11h02.19.484,Info_measure_main_exp,2022.2.2,144.66336824602325,
1,0,131,5,5,2178,2190,prac_patch/patch0002178.jpg,prac_patch/patch0002190.jpg,masks/mask_004.jpg,0,1,1,0,,,,,0,3,3,3,,,,,,,,,,,,,,,,,,,,,,,,,,,,,,,,,,,,,,,,,,,,,,,,,,,,,,,,,,,,,,,,,,,,,,,,,,,,,,,,,,,,,,,,,,,,,,,,,,,,,,818564,001,2022-11-07_11h02.19.484,Info_measure_main_exp,2022.2.2,144.66336824602325,
1,0,131,5,5,2178,2190,prac_patch/patch0002178.jpg,prac_patch/patch0002190.jpg,masks/mask_001.jpg,0,1,1,0,,,,,0,4,4,0,,,,,,,,,,,,,,,,,,,,,,,,,,,,,,,,,,,,,,,,,,,,,,,,,,,,,,,,,,,,,,,,,,,,,,,,,,,,,,,,,,,,,,,,,,,,,,,,,,,,,,818564,001,2022-11-07_11h02.19.484,Info_measure_main_exp,2022.2.2,144.66336824602325,
1,0,131,5,5,2178,2190,prac_patch/patch0002178.jpg,prac_patch/patch0002190.jpg,,0,1,1,0,,,,,,,,,,,,,,,,,,,,,,,,,,,,,,,,,,,,,,,,,,,,,,,,,,,,,,,,,,,,,,,,,,,0.005737600033171475,28.020673399965744,-0.08518518518518518,0.030555555555555555,1,0,0,response7disk,1,1.8693888999987394,1,29.895957299973816,29.895957299973816,33.89495489996625,33.89495489996625,2.2499996703118086e-05,0.004629629629629629,-0.008333333333333333,1,0,0,center_square_2,,,,,,,,,,,,,,,,,,,,,,818564,001,2022-11-07_11h02.19.484,Info_measure_main_exp,2022.2.2,144.66336824602325,
2,0,131,5,5,2214,2082,prac_patch/patch0002214.jpg,prac_patch/patch0002082.jpg,masks/mask_001.jpg,0,2,2,1,0,0,0,0,,,,,,,,,,,,,,,,,,,,,,,,,,,,,,,,,,,,,,,,,,,,,,,,,,,,,,,,,,,35.45091749995481,35.6111896999646,,,,,,,,,,,,,,,,,,,,,,,,,,,,,,,,,,,,,,,,,,,,,,818564,001,2022-11-07_11h02.19.484,Info_measure_main_exp,2022.2.2,144.66336824602325,
2,0,131,5,5,2214,2082,prac_patch/patch0002214.jpg,prac_patch/patch0002082.jpg,masks/mask_002.jpg,0,2,2,1,0,1,1,1,,,,,,,,,,,,,,,,,,,,,,,,,,,,,,,,,,,,,,,,,,,,,,,,,,,,,,,,,,,,,,,,,,,,,,,,,,,,,,,,,,,,,,,,,,,,,,,,,,,,,,,,,,818564,001,2022-11-07_11h02.19.484,Info_measure_main_exp,2022.2.2,144.66336824602325,
2,0,131,5,5,2214,2082,prac_patch/patch0002214.jpg,prac_patch/patch0002082.jpg,masks/mask_005.jpg,0,2,2,1,0,2,2,4,,,,,,,,,,,,,,,,,,,,,,,,,,,,,,,,,,,,,,,,,,,,,,,,,,,,,,,,,,,,,,,,,,,,,,,,,,,,,,,,,,,,,,,,,,,,,,,,,,,,,,,,,,818564,001,2022-11-07_11h02.19.484,Info_measure_main_exp,2022.2.2,144.66336824602325,
2,0,131,5,5,2214,2082,prac_patch/patch0002214.jpg,prac_patch/patch0002082.jpg,masks/mask_003.jpg,0,2,2,1,0,3,3,2,,,,,,,,,,,,,,,,,,,,,,,,,,,,,,,,,,,,,,,,,,,,,,,,,,,,,,,,,,,,,,,,,,,,,,,,,,,,,,,,,,,,,,,,,,,,,,,,,,,,,,,,,,818564,001,2022-11-07_11h02.19.484,Info_measure_main_exp,2022.2.2,144.66336824602325,
2,0,131,5,5,2214,2082,prac_patch/patch0002214.jpg,prac_patch/patch0002082.jpg,masks/mask_004.jpg,0,2,2,1,0,4,4,3,,,,,,,,,,,,,,,,,,,,,,,,,,,,,,,,,,,,,,,,,,,,,,,,,,,,,,,,,,,,,,,,,,,,,,,,,,,,,,,,,,,,,,,,,,,,,,,,,,,,,,,,,,818564,001,2022-11-07_11h02.19.484,Info_measure_main_exp,2022.2.2,144.66336824602325,
2,0,131,5,5,2214,2082,prac_patch/patch0002214.jpg,prac_patch/patch0002082.jpg,masks/mask_005.jpg,0,2,2,1,,,,,0,0,0,4,,,,,,,,,,,,,,,,,,,,,,,,,,,,,,,,,,,,,,,,,,,,,,,,,,,,,,,,,36.40267219999805,36.558264399995096,,,,,,,,,,,,,,,,,,,,,,,,,,,,,,,,,,,,,,,,,,,,818564,001,2022-11-07_11h02.19.484,Info_measure_main_exp,2022.2.2,144.66336824602325,
2,0,131,5,5,2214,2082,prac_patch/patch0002214.jpg,prac_patch/patch0002082.jpg,masks/mask_002.jpg,0,2,2,1,,,,,0,1,1,1,,,,,,,,,,,,,,,,,,,,,,,,,,,,,,,,,,,,,,,,,,,,,,,,,,,,,,,,,,,,,,,,,,,,,,,,,,,,,,,,,,,,,,,,,,,,,,,,,,,,,,818564,001,2022-11-07_11h02.19.484,Info_measure_main_exp,2022.2.2,144.66336824602325,
2,0,131,5,5,2214,2082,prac_patch/patch0002214.jpg,prac_patch/patch0002082.jpg,masks/mask_003.jpg,0,2,2,1,,,,,0,2,2,2,,,,,,,,,,,,,,,,,,,,,,,,,,,,,,,,,,,,,,,,,,,,,,,,,,,,,,,,,,,,,,,,,,,,,,,,,,,,,,,,,,,,,,,,,,,,,,,,,,,,,,818564,001,2022-11-07_11h02.19.484,Info_measure_main_exp,2022.2.2,144.66336824602325,
2,0,131,5,5,2214,2082,prac_patch/patch0002214.jpg,prac_patch/patch0002082.jpg,masks/mask_001.jpg,0,2,2,1,,,,,0,3,3,0,,,,,,,,,,,,,,,,,,,,,,,,,,,,,,,,,,,,,,,,,,,,,,,,,,,,,,,,,,,,,,,,,,,,,,,,,,,,,,,,,,,,,,,,,,,,,,,,,,,,,,818564,001,2022-11-07_11h02.19.484,Info_measure_main_exp,2022.2.2,144.66336824602325,
2,0,131,5,5,2214,2082,prac_patch/patch0002214.jpg,prac_patch/patch0002082.jpg,masks/mask_004.jpg,0,2,2,1,,,,,0,4,4,3,,,,,,,,,,,,,,,,,,,,,,,,,,,,,,,,,,,,,,,,,,,,,,,,,,,,,,,,,,,,,,,,,,,,,,,,,,,,,,,,,,,,,,,,,,,,,,,,,,,,,,818564,001,2022-11-07_11h02.19.484,Info_measure_main_exp,2022.2.2,144.66336824602325,
2,0,131,5,5,2214,2082,prac_patch/patch0002214.jpg,prac_patch/patch0002082.jpg,,0,2,2,1,,,,,,,,,,,,,,,,,,,,,,,,,,,,,,,,,,,,,,,,,,,,,,,,,,,,,,,,,,,,,,,,,,,0.005729100026655942,36.86019499995746,0.05185185185185185,-0.10833333333333334,1,0,0,response3disk,4,1.473471299977973,1,38.340413699974306,38.340413699974306,42.33935729996301,42.33935729996301,1.9599974621087313e-05,0.007407407407407408,-0.006481481481481481,1,0,0,center_square_2,,,,,,,,,,,,,,,,,,,,,,818564,001,2022-11-07_11h02.19.484,Info_measure_main_exp,2022.2.2,144.66336824602325,
,,,,,,,,,,,,,,,,,,,,,,,,,,,,,,,,,,,,,,,,,,,,,,,,,,,,,,,,,,,,,,,,,,,,,,,,,,,,,,,,,,,,,,,,,,,,,,,,,,,,,,43.11771600000793,[],[],[],[],[],[],[],,,,,,,,,,,,,,818564,001,2022-11-07_11h02.19.484,Info_measure_main_exp,2022.2.2,144.66336824602325,
,,,,,,,,,,,,,,,,,,,,,,,,,,,,,,,,,,,,,,,,,,,,,,,,,,,,,,,,,,,,,,,,,,,,,,,,,,,,,,,,,,,,,,,,,,,,,,,,,,,,,,,,,,,,,,space,2.814500499982387,,,,,,,,,,,,818564,001,2022-11-07_11h02.19.484,Info_measure_main_exp,2022.2.2,144.66336824602325,
2,0,131,5,5,2166,1986,absent_patch/patch0002166.jpg,absent_patch/patch0001986.jpg,masks/mask_001.jpg,,,,,,,,,,,,,0,0,0,1,0,0,0,0,,,,,,,,,,,,,,,,,,,,,,,,,,,,,,,,,,,,,,,,,,,,,,,,,,,,,,,,,,,,,,,,,,,,,,,,,,,,,,,,,,,46.43694439996034,46.59727500000736,,,,,,,,,,818564,001,2022-11-07_11h02.19.484,Info_measure_main_exp,2022.2.2,144.66336824602325,
2,0,131,5,5,2166,1986,absent_patch/patch0002166.jpg,absent_patch/patch0001986.jpg,masks/mask_005.jpg,,,,,,,,,,,,,0,0,0,1,0,1,1,4,,,,,,,,,,,,,,,,,,,,,,,,,,,,,,,,,,,,,,,,,,,,,,,,,,,,,,,,,,,,,,,,,,,,,,,,,,,,,,,,,,,,,,,,,,,,,,818564,001,2022-11-07_11h02.19.484,Info_measure_main_exp,2022.2.2,144.66336824602325,
2,0,131,5,5,2166,1986,absent_patch/patch0002166.jpg,absent_patch/patch0001986.jpg,masks/mask_002.jpg,,,,,,,,,,,,,0,0,0,1,0,2,2,1,,,,,,,,,,,,,,,,,,,,,,,,,,,,,,,,,,,,,,,,,,,,,,,,,,,,,,,,,,,,,,,,,,,,,,,,,,,,,,,,,,,,,,,,,,,,,,818564,001,2022-11-07_11h02.19.484,Info_measure_main_exp,2022.2.2,144.66336824602325,
2,0,131,5,5,2166,1986,absent_patch/patch0002166.jpg,absent_patch/patch0001986.jpg,masks/mask_003.jpg,,,,,,,,,,,,,0,0,0,1,0,3,3,2,,,,,,,,,,,,,,,,,,,,,,,,,,,,,,,,,,,,,,,,,,,,,,,,,,,,,,,,,,,,,,,,,,,,,,,,,,,,,,,,,,,,,,,,,,,,,,818564,001,2022-11-07_11h02.19.484,Info_measure_main_exp,2022.2.2,144.66336824602325,
2,0,131,5,5,2166,1986,absent_patch/patch0002166.jpg,absent_patch/patch0001986.jpg,masks/mask_004.jpg,,,,,,,,,,,,,0,0,0,1,0,4,4,3,,,,,,,,,,,,,,,,,,,,,,,,,,,,,,,,,,,,,,,,,,,,,,,,,,,,,,,,,,,,,,,,,,,,,,,,,,,,,,,,,,,,,,,,,,,,,,818564,001,2022-11-07_11h02.19.484,Info_measure_main_exp,2022.2.2,144.66336824602325,
2,0,131,5,5,2166,1986,absent_patch/patch0002166.jpg,absent_patch/patch0001986.jpg,masks/mask_001.jpg,,,,,,,,,,,,,0,0,0,1,,,,,0,0,0,0,,,,,,,,,,,,,,,,,,,,,,,,,,,,,,,,,,,,,,,,,,,,,,,,,,,,,,,,,,,,,,,,,,,,,,,,,,,,,,,,,47.38868509995518,47.548679500003345,,,,,,,,818564,001,2022-11-07_11h02.19.484,Info_measure_main_exp,2022.2.2,144.66336824602325,
2,0,131,5,5,2166,1986,absent_patch/patch0002166.jpg,absent_patch/patch0001986.jpg,masks/mask_002.jpg,,,,,,,,,,,,,0,0,0,1,,,,,0,1,1,1,,,,,,,,,,,,,,,,,,,,,,,,,,,,,,,,,,,,,,,,,,,,,,,,,,,,,,,,,,,,,,,,,,,,,,,,,,,,,,,,,,,,,,,,,,818564,001,2022-11-07_11h02.19.484,Info_measure_main_exp,2022.2.2,144.66336824602325,
2,0,131,5,5,2166,1986,absent_patch/patch0002166.jpg,absent_patch/patch0001986.jpg,masks/mask_003.jpg,,,,,,,,,,,,,0,0,0,1,,,,,0,2,2,2,,,,,,,,,,,,,,,,,,,,,,,,,,,,,,,,,,,,,,,,,,,,,,,,,,,,,,,,,,,,,,,,,,,,,,,,,,,,,,,,,,,,,,,,,,818564,001,2022-11-07_11h02.19.484,Info_measure_main_exp,2022.2.2,144.66336824602325,
2,0,131,5,5,2166,1986,absent_patch/patch0002166.jpg,absent_patch/patch0001986.jpg,masks/mask_004.jpg,,,,,,,,,,,,,0,0,0,1,,,,,0,3,3,3,,,,,,,,,,,,,,,,,,,,,,,,,,,,,,,,,,,,,,,,,,,,,,,,,,,,,,,,,,,,,,,,,,,,,,,,,,,,,,,,,,,,,,,,,,818564,001,2022-11-07_11h02.19.484,Info_measure_main_exp,2022.2.2,144.66336824602325,
2,0,131,5,5,2166,1986,absent_patch/patch0002166.jpg,absent_patch/patch0001986.jpg,masks/mask_005.jpg,,,,,,,,,,,,,0,0,0,1,,,,,0,4,4,4,,,,,,,,,,,,,,,,,,,,,,,,,,,,,,,,,,,,,,,,,,,,,,,,,,,,,,,,,,,,,,,,,,,,,,,,,,,,,,,,,,,,,,,,,,818564,001,2022-11-07_11h02.19.484,Info_measure_main_exp,2022.2.2,144.66336824602325,
2,0,131,5,5,2166,1986,absent_patch/patch0002166.jpg,absent_patch/patch0001986.jpg,,,,,,,,,,,,,,0,0,0,1,,,,,,,,,,,,,,,,,,,,,,,,,,,,,,,,,,,,,,,,,,,,,,,,,,,,,,,0.0056570000015199184,47.84626879997086,0.13518518518518519,-0.08796296296296297,1,0,0,response3disk,5,7.591395199997351,1,,,,,1.71000137925148e-05,-0.006481481481481481,0.006481481481481481,1,0,0,center_square_2,,,,,,,,,,,,,,,,,,,,,,818564,001,2022-11-07_11h02.19.484,Info_measure_main_exp,2022.2.2,144.66336824602325,
1,1,131,5,5,1986,1,absent_patch/patch0001986.jpg,present_patch/cong_131_5_a.jpg,masks/mask_005.jpg,,,,,,,,,,,,,0,1,1,0,0,0,0,4,,,,,,,,,,,,,,,,,,,,,,,,,,,,,,,,,,,,,,,,,,,,,,,,,,,,,,,,,,,,,,,,,,,,,,,,,,,,,,,,,,,56.86089619999984,57.0158135999809,,,,,,,,,,818564,001,2022-11-07_11h02.19.484,Info_measure_main_exp,2022.2.2,144.66336824602325,
1,1,131,5,5,1986,1,absent_patch/patch0001986.jpg,present_patch/cong_131_5_a.jpg,masks/mask_002.jpg,,,,,,,,,,,,,0,1,1,0,0,1,1,1,,,,,,,,,,,,,,,,,,,,,,,,,,,,,,,,,,,,,,,,,,,,,,,,,,,,,,,,,,,,,,,,,,,,,,,,,,,,,,,,,,,,,,,,,,,,,,818564,001,2022-11-07_11h02.19.484,Info_measure_main_exp,2022.2.2,144.66336824602325,
1,1,131,5,5,1986,1,absent_patch/patch0001986.jpg,present_patch/cong_131_5_a.jpg,masks/mask_004.jpg,,,,,,,,,,,,,0,1,1,0,0,2,2,3,,,,,,,,,,,,,,,,,,,,,,,,,,,,,,,,,,,,,,,,,,,,,,,,,,,,,,,,,,,,,,,,,,,,,,,,,,,,,,,,,,,,,,,,,,,,,,818564,001,2022-11-07_11h02.19.484,Info_measure_main_exp,2022.2.2,144.66336824602325,
1,1,131,5,5,1986,1,absent_patch/patch0001986.jpg,present_patch/cong_131_5_a.jpg,masks/mask_003.jpg,,,,,,,,,,,,,0,1,1,0,0,3,3,2,,,,,,,,,,,,,,,,,,,,,,,,,,,,,,,,,,,,,,,,,,,,,,,,,,,,,,,,,,,,,,,,,,,,,,,,,,,,,,,,,,,,,,,,,,,,,,818564,001,2022-11-07_11h02.19.484,Info_measure_main_exp,2022.2.2,144.66336824602325,
1,1,131,5,5,1986,1,absent_patch/patch0001986.jpg,present_patch/cong_131_5_a.jpg,masks/mask_001.jpg,,,,,,,,,,,,,0,1,1,0,0,4,4,0,,,,,,,,,,,,,,,,,,,,,,,,,,,,,,,,,,,,,,,,,,,,,,,,,,,,,,,,,,,,,,,,,,,,,,,,,,,,,,,,,,,,,,,,,,,,,,818564,001,2022-11-07_11h02.19.484,Info_measure_main_exp,2022.2.2,144.66336824602325,
1,1,131,5,5,1986,1,absent_patch/patch0001986.jpg,present_patch/cong_131_5_a.jpg,masks/mask_004.jpg,,,,,,,,,,,,,0,1,1,0,,,,,0,0,0,3,,,,,,,,,,,,,,,,,,,,,,,,,,,,,,,,,,,,,,,,,,,,,,,,,,,,,,,,,,,,,,,,,,,,,,,,,,,,,,,,,57.81269399996381,57.96769610000774,,,,,,,,818564,001,2022-11-07_11h02.19.484,Info_measure_main_exp,2022.2.2,144.66336824602325,
1,1,131,5,5,1986,1,absent_patch/patch0001986.jpg,present_patch/cong_131_5_a.jpg,masks/mask_002.jpg,,,,,,,,,,,,,0,1,1,0,,,,,0,1,1,1,,,,,,,,,,,,,,,,,,,,,,,,,,,,,,,,,,,,,,,,,,,,,,,,,,,,,,,,,,,,,,,,,,,,,,,,,,,,,,,,,,,,,,,,,,818564,001,2022-11-07_11h02.19.484,Info_measure_main_exp,2022.2.2,144.66336824602325,
1,1,131,5,5,1986,1,absent_patch/patch0001986.jpg,present_patch/cong_131_5_a.jpg,masks/mask_003.jpg,,,,,,,,,,,,,0,1,1,0,,,,,0,2,2,2,,,,,,,,,,,,,,,,,,,,,,,,,,,,,,,,,,,,,,,,,,,,,,,,,,,,,,,,,,,,,,,,,,,,,,,,,,,,,,,,,,,,,,,,,,818564,001,2022-11-07_11h02.19.484,Info_measure_main_exp,2022.2.2,144.66336824602325,
1,1,131,5,5,1986,1,absent_patch/patch0001986.jpg,present_patch/cong_131_5_a.jpg,masks/mask_005.jpg,,,,,,,,,,,,,0,1,1,0,,,,,0,3,3,4,,,,,,,,,,,,,,,,,,,,,,,,,,,,,,,,,,,,,,,,,,,,,,,,,,,,,,,,,,,,,,,,,,,,,,,,,,,,,,,,,,,,,,,,,,818564,001,2022-11-07_11h02.19.484,Info_measure_main_exp,2022.2.2,144.66336824602325,
1,1,131,5,5,1986,1,absent_patch/patch0001986.jpg,present_patch/cong_131_5_a.jpg,masks/mask_001.jpg,,,,,,,,,,,,,0,1,1,0,,,,,0,4,4,0,,,,,,,,,,,,,,,,,,,,,,,,,,,,,,,,,,,,,,,,,,,,,,,,,,,,,,,,,,,,,,,,,,,,,,,,,,,,,,,,,,,,,,,,,,818564,001,2022-11-07_11h02.19.484,Info_measure_main_exp,2022.2.2,144.66336824602325,
1,1,131,5,5,1986,1,absent_patch/patch0001986.jpg,present_patch/cong_131_5_a.jpg,,,,,,,,,,,,,,0,1,1,0,,,,,,,,,,,,,,,,,,,,,,,,,,,,,,,,,,,,,,,,,,,,,,,,,,,,,,,0.0058037000126205385,58.270559899974614,0.1527777777777778,0.07777777777777778,1,0,0,response1disk,6,1.8963640000438318,1,,,,,1.7900019884109497e-05,0.003703703703703704,0.009259259259259259,1,0,0,center_square_2,,,,,,,,,,,,,,,,,,,,,,818564,001,2022-11-07_11h02.19.484,Info_measure_main_exp,2022.2.2,144.66336824602325,
10,0,131,5,5,1974,2166,absent_patch/patch0001974.jpg,absent_patch/patch0002166.jpg,masks/mask_004.jpg,,,,,,,,,,,,,0,2,2,9,0,0,0,3,,,,,,,,,,,,,,,,,,,,,,,,,,,,,,,,,,,,,,,,,,,,,,,,,,,,,,,,,,,,,,,,,,,,,,,,,,,,,,,,,,,61.15237279998837,61.312510299962014,,,,,,,,,,818564,001,2022-11-07_11h02.19.484,Info_measure_main_exp,2022.2.2,144.66336824602325,
10,0,131,5,5,1974,2166,absent_patch/patch0001974.jpg,absent_patch/patch0002166.jpg,masks/mask_001.jpg,,,,,,,,,,,,,0,2,2,9,0,1,1,0,,,,,,,,,,,,,,,,,,,,,,,,,,,,,,,,,,,,,,,,,,,,,,,,,,,,,,,,,,,,,,,,,,,,,,,,,,,,,,,,,,,,,,,,,,,,,,818564,001,2022-11-07_11h02.19.484,Info_measure_main_exp,2022.2.2,144.66336824602325,
10,0,131,5,5,1974,2166,absent_patch/patch0001974.jpg,absent_patch/patch0002166.jpg,masks/mask_002.jpg,,,,,,,,,,,,,0,2,2,9,0,2,2,1,,,,,,,,,,,,,,,,,,,,,,,,,,,,,,,,,,,,,,,,,,,,,,,,,,,,,,,,,,,,,,,,,,,,,,,,,,,,,,,,,,,,,,,,,,,,,,818564,001,2022-11-07_11h02.19.484,Info_measure_main_exp,2022.2.2,144.66336824602325,
10,0,131,5,5,1974,2166,absent_patch/patch0001974.jpg,absent_patch/patch0002166.jpg,masks/mask_005.jpg,,,,,,,,,,,,,0,2,2,9,0,3,3,4,,,,,,,,,,,,,,,,,,,,,,,,,,,,,,,,,,,,,,,,,,,,,,,,,,,,,,,,,,,,,,,,,,,,,,,,,,,,,,,,,,,,,,,,,,,,,,818564,001,2022-11-07_11h02.19.484,Info_measure_main_exp,2022.2.2,144.66336824602325,
10,0,131,5,5,1974,2166,absent_patch/patch0001974.jpg,absent_patch/patch0002166.jpg,masks/mask_003.jpg,,,,,,,,,,,,,0,2,2,9,0,4,4,2,,,,,,,,,,,,,,,,,,,,,,,,,,,,,,,,,,,,,,,,,,,,,,,,,,,,,,,,,,,,,,,,,,,,,,,,,,,,,,,,,,,,,,,,,,,,,,818564,001,2022-11-07_11h02.19.484,Info_measure_main_exp,2022.2.2,144.66336824602325,
10,0,131,5,5,1974,2166,absent_patch/patch0001974.jpg,absent_patch/patch0002166.jpg,masks/mask_003.jpg,,,,,,,,,,,,,0,2,2,9,,,,,0,0,0,2,,,,,,,,,,,,,,,,,,,,,,,,,,,,,,,,,,,,,,,,,,,,,,,,,,,,,,,,,,,,,,,,,,,,,,,,,,,,,,,,,62.10401579999598,62.25921990000643,,,,,,,,818564,001,2022-11-07_11h02.19.484,Info_measure_main_exp,2022.2.2,144.66336824602325,
10,0,131,5,5,1974,2166,absent_patch/patch0001974.jpg,absent_patch/patch0002166.jpg,masks/mask_002.jpg,,,,,,,,,,,,,0,2,2,9,,,,,0,1,1,1,,,,,,,,,,,,,,,,,,,,,,,,,,,,,,,,,,,,,,,,,,,,,,,,,,,,,,,,,,,,,,,,,,,,,,,,,,,,,,,,,,,,,,,,,,818564,001,2022-11-07_11h02.19.484,Info_measure_main_exp,2022.2.2,144.66336824602325,
10,0,131,5,5,1974,2166,absent_patch/patch0001974.jpg,absent_patch/patch0002166.jpg,masks/mask_004.jpg,,,,,,,,,,,,,0,2,2,9,,,,,0,2,2,3,,,,,,,,,,,,,,,,,,,,,,,,,,,,,,,,,,,,,,,,,,,,,,,,,,,,,,,,,,,,,,,,,,,,,,,,,,,,,,,,,,,,,,,,,,818564,001,2022-11-07_11h02.19.484,Info_measure_main_exp,2022.2.2,144.66336824602325,
10,0,131,5,5,1974,2166,absent_patch/patch0001974.jpg,absent_patch/patch0002166.jpg,masks/mask_005.jpg,,,,,,,,,,,,,0,2,2,9,,,,,0,3,3,4,,,,,,,,,,,,,,,,,,,,,,,,,,,,,,,,,,,,,,,,,,,,,,,,,,,,,,,,,,,,,,,,,,,,,,,,,,,,,,,,,,,,,,,,,,818564,001,2022-11-07_11h02.19.484,Info_measure_main_exp,2022.2.2,144.66336824602325,
10,0,131,5,5,1974,2166,absent_patch/patch0001974.jpg,absent_patch/patch0002166.jpg,masks/mask_001.jpg,,,,,,,,,,,,,0,2,2,9,,,,,0,4,4,0,,,,,,,,,,,,,,,,,,,,,,,,,,,,,,,,,,,,,,,,,,,,,,,,,,,,,,,,,,,,,,,,,,,,,,,,,,,,,,,,,,,,,,,,,,818564,001,2022-11-07_11h02.19.484,Info_measure_main_exp,2022.2.2,144.66336824602325,
10,0,131,5,5,1974,2166,absent_patch/patch0001974.jpg,absent_patch/patch0002166.jpg,,,,,,,,,,,,,,0,2,2,9,,,,,,,,,,,,,,,,,,,,,,,,,,,,,,,,,,,,,,,,,,,,,,,,,,,,,,,0.006284400005824864,62.56162399996538,0.049074074074074076,0.13055555555555556,1,0,0,response1disk,7,1.028343699988909,1,,,,,1.7300015315413475e-05,0.008333333333333333,0.0,1,0,0,center_square_2,,,,,,,,,,,,,,,,,,,,,,818564,001,2022-11-07_11h02.19.484,Info_measure_main_exp,2022.2.2,144.66336824602325,
13,1,131,5,5,1950,1,absent_patch/patch0001950.jpg,present_patch/cong_131_5_a.jpg,masks/mask_002.jpg,,,,,,,,,,,,,0,3,3,12,0,0,0,1,,,,,,,,,,,,,,,,,,,,,,,,,,,,,,,,,,,,,,,,,,,,,,,,,,,,,,,,,,,,,,,,,,,,,,,,,,,,,,,,,,,64.63181779999286,64.79168749996461,,,,,,,,,,818564,001,2022-11-07_11h02.19.484,Info_measure_main_exp,2022.2.2,144.66336824602325,
13,1,131,5,5,1950,1,absent_patch/patch0001950.jpg,present_patch/cong_131_5_a.jpg,masks/mask_001.jpg,,,,,,,,,,,,,0,3,3,12,0,1,1,0,,,,,,,,,,,,,,,,,,,,,,,,,,,,,,,,,,,,,,,,,,,,,,,,,,,,,,,,,,,,,,,,,,,,,,,,,,,,,,,,,,,,,,,,,,,,,,818564,001,2022-11-07_11h02.19.484,Info_measure_main_exp,2022.2.2,144.66336824602325,
13,1,131,5,5,1950,1,absent_patch/patch0001950.jpg,present_patch/cong_131_5_a.jpg,masks/mask_005.jpg,,,,,,,,,,,,,0,3,3,12,0,2,2,4,,,,,,,,,,,,,,,,,,,,,,,,,,,,,,,,,,,,,,,,,,,,,,,,,,,,,,,,,,,,,,,,,,,,,,,,,,,,,,,,,,,,,,,,,,,,,,818564,001,2022-11-07_11h02.19.484,Info_measure_main_exp,2022.2.2,144.66336824602325,
13,1,131,5,5,1950,1,absent_patch/patch0001950.jpg,present_patch/cong_131_5_a.jpg,masks/mask_003.jpg,,,,,,,,,,,,,0,3,3,12,0,3,3,2,,,,,,,,,,,,,,,,,,,,,,,,,,,,,,,,,,,,,,,,,,,,,,,,,,,,,,,,,,,,,,,,,,,,,,,,,,,,,,,,,,,,,,,,,,,,,,818564,001,2022-11-07_11h02.19.484,Info_measure_main_exp,2022.2.2,144.66336824602325,
13,1,131,5,5,1950,1,absent_patch/patch0001950.jpg,present_patch/cong_131_5_a.jpg,masks/mask_004.jpg,,,,,,,,,,,,,0,3,3,12,0,4,4,3,,,,,,,,,,,,,,,,,,,,,,,,,,,,,,,,,,,,,,,,,,,,,,,,,,,,,,,,,,,,,,,,,,,,,,,,,,,,,,,,,,,,,,,,,,,,,,818564,001,2022-11-07_11h02.19.484,Info_measure_main_exp,2022.2.2,144.66336824602325,
13,1,131,5,5,1950,1,absent_patch/patch0001950.jpg,present_patch/cong_131_5_a.jpg,masks/mask_003.jpg,,,,,,,,,,,,,0,3,3,12,,,,,0,0,0,2,,,,,,,,,,,,,,,,,,,,,,,,,,,,,,,,,,,,,,,,,,,,,,,,,,,,,,,,,,,,,,,,,,,,,,,,,,,,,,,,,65.58325769996736,65.73854369996116,,,,,,,,818564,001,2022-11-07_11h02.19.484,Info_measure_main_exp,2022.2.2,144.66336824602325,
13,1,131,5,5,1950,1,absent_patch/patch0001950.jpg,present_patch/cong_131_5_a.jpg,masks/mask_004.jpg,,,,,,,,,,,,,0,3,3,12,,,,,0,1,1,3,,,,,,,,,,,,,,,,,,,,,,,,,,,,,,,,,,,,,,,,,,,,,,,,,,,,,,,,,,,,,,,,,,,,,,,,,,,,,,,,,,,,,,,,,,818564,001,2022-11-07_11h02.19.484,Info_measure_main_exp,2022.2.2,144.66336824602325,
13,1,131,5,5,1950,1,absent_patch/patch0001950.jpg,present_patch/cong_131_5_a.jpg,masks/mask_001.jpg,,,,,,,,,,,,,0,3,3,12,,,,,0,2,2,0,,,,,,,,,,,,,,,,,,,,,,,,,,,,,,,,,,,,,,,,,,,,,,,,,,,,,,,,,,,,,,,,,,,,,,,,,,,,,,,,,,,,,,,,,,818564,001,2022-11-07_11h02.19.484,Info_measure_main_exp,2022.2.2,144.66336824602325,
13,1,131,5,5,1950,1,absent_patch/patch0001950.jpg,present_patch/cong_131_5_a.jpg,masks/mask_002.jpg,,,,,,,,,,,,,0,3,3,12,,,,,0,3,3,1,,,,,,,,,,,,,,,,,,,,,,,,,,,,,,,,,,,,,,,,,,,,,,,,,,,,,,,,,,,,,,,,,,,,,,,,,,,,,,,,,,,,,,,,,,818564,001,2022-11-07_11h02.19.484,Info_measure_main_exp,2022.2.2,144.66336824602325,
13,1,131,5,5,1950,1,absent_patch/patch0001950.jpg,present_patch/cong_131_5_a.jpg,masks/mask_005.jpg,,,,,,,,,,,,,0,3,3,12,,,,,0,4,4,4,,,,,,,,,,,,,,,,,,,,,,,,,,,,,,,,,,,,,,,,,,,,,,,,,,,,,,,,,,,,,,,,,,,,,,,,,,,,,,,,,,,,,,,,,,818564,001,2022-11-07_11h02.19.484,Info_measure_main_exp,2022.2.2,144.66336824602325,
13,1,131,5,5,1950,1,absent_patch/patch0001950.jpg,present_patch/cong_131_5_a.jpg,,,,,,,,,,,,,,0,3,3,12,,,,,,,,,,,,,,,,,,,,,,,,,,,,,,,,,,,,,,,,,,,,,,,,,,,,,,,0.005709399993065745,66.04093570000259,0.040740740740740744,0.14074074074074075,1,0,0,response1disk,7,0.5982403999660164,1,,,,,1.8599967006593943e-05,-0.002777777777777778,0.002777777777777778,1,0,0,center_square_2,,,,,,,,,,,,,,,,,,,,,,818564,001,2022-11-07_11h02.19.484,Info_measure_main_exp,2022.2.2,144.66336824602325,
9,0,131,5,5,1986,1950,absent_patch/patch0001986.jpg,absent_patch/patch0001950.jpg,masks/mask_004.jpg,,,,,,,,,,,,,0,4,4,8,0,0,0,3,,,,,,,,,,,,,,,,,,,,,,,,,,,,,,,,,,,,,,,,,,,,,,,,,,,,,,,,,,,,,,,,,,,,,,,,,,,,,,,,,,,67.82595289999153,67.98619379999582,,,,,,,,,,818564,001,2022-11-07_11h02.19.484,Info_measure_main_exp,2022.2.2,144.66336824602325,
9,0,131,5,5,1986,1950,absent_patch/patch0001986.jpg,absent_patch/patch0001950.jpg,masks/mask_001.jpg,,,,,,,,,,,,,0,4,4,8,0,1,1,0,,,,,,,,,,,,,,,,,,,,,,,,,,,,,,,,,,,,,,,,,,,,,,,,,,,,,,,,,,,,,,,,,,,,,,,,,,,,,,,,,,,,,,,,,,,,,,818564,001,2022-11-07_11h02.19.484,Info_measure_main_exp,2022.2.2,144.66336824602325,
9,0,131,5,5,1986,1950,absent_patch/patch0001986.jpg,absent_patch/patch0001950.jpg,masks/mask_002.jpg,,,,,,,,,,,,,0,4,4,8,0,2,2,1,,,,,,,,,,,,,,,,,,,,,,,,,,,,,,,,,,,,,,,,,,,,,,,,,,,,,,,,,,,,,,,,,,,,,,,,,,,,,,,,,,,,,,,,,,,,,,818564,001,2022-11-07_11h02.19.484,Info_measure_main_exp,2022.2.2,144.66336824602325,
9,0,131,5,5,1986,1950,absent_patch/patch0001986.jpg,absent_patch/patch0001950.jpg,masks/mask_005.jpg,,,,,,,,,,,,,0,4,4,8,0,3,3,4,,,,,,,,,,,,,,,,,,,,,,,,,,,,,,,,,,,,,,,,,,,,,,,,,,,,,,,,,,,,,,,,,,,,,,,,,,,,,,,,,,,,,,,,,,,,,,818564,001,2022-11-07_11h02.19.484,Info_measure_main_exp,2022.2.2,144.66336824602325,
9,0,131,5,5,1986,1950,absent_patch/patch0001986.jpg,absent_patch/patch0001950.jpg,masks/mask_003.jpg,,,,,,,,,,,,,0,4,4,8,0,4,4,2,,,,,,,,,,,,,,,,,,,,,,,,,,,,,,,,,,,,,,,,,,,,,,,,,,,,,,,,,,,,,,,,,,,,,,,,,,,,,,,,,,,,,,,,,,,,,,818564,001,2022-11-07_11h02.19.484,Info_measure_main_exp,2022.2.2,144.66336824602325,
9,0,131,5,5,1986,1950,absent_patch/patch0001986.jpg,absent_patch/patch0001950.jpg,masks/mask_004.jpg,,,,,,,,,,,,,0,4,4,8,,,,,0,0,0,3,,,,,,,,,,,,,,,,,,,,,,,,,,,,,,,,,,,,,,,,,,,,,,,,,,,,,,,,,,,,,,,,,,,,,,,,,,,,,,,,,68.77751990000252,68.93318379996344,,,,,,,,818564,001,2022-11-07_11h02.19.484,Info_measure_main_exp,2022.2.2,144.66336824602325,
9,0,131,5,5,1986,1950,absent_patch/patch0001986.jpg,absent_patch/patch0001950.jpg,masks/mask_002.jpg,,,,,,,,,,,,,0,4,4,8,,,,,0,1,1,1,,,,,,,,,,,,,,,,,,,,,,,,,,,,,,,,,,,,,,,,,,,,,,,,,,,,,,,,,,,,,,,,,,,,,,,,,,,,,,,,,,,,,,,,,,818564,001,2022-11-07_11h02.19.484,Info_measure_main_exp,2022.2.2,144.66336824602325,
9,0,131,5,5,1986,1950,absent_patch/patch0001986.jpg,absent_patch/patch0001950.jpg,masks/mask_003.jpg,,,,,,,,,,,,,0,4,4,8,,,,,0,2,2,2,,,,,,,,,,,,,,,,,,,,,,,,,,,,,,,,,,,,,,,,,,,,,,,,,,,,,,,,,,,,,,,,,,,,,,,,,,,,,,,,,,,,,,,,,,818564,001,2022-11-07_11h02.19.484,Info_measure_main_exp,2022.2.2,144.66336824602325,
9,0,131,5,5,1986,1950,absent_patch/patch0001986.jpg,absent_patch/patch0001950.jpg,masks/mask_001.jpg,,,,,,,,,,,,,0,4,4,8,,,,,0,3,3,0,,,,,,,,,,,,,,,,,,,,,,,,,,,,,,,,,,,,,,,,,,,,,,,,,,,,,,,,,,,,,,,,,,,,,,,,,,,,,,,,,,,,,,,,,,818564,001,2022-11-07_11h02.19.484,Info_measure_main_exp,2022.2.2,144.66336824602325,
9,0,131,5,5,1986,1950,absent_patch/patch0001986.jpg,absent_patch/patch0001950.jpg,masks/mask_005.jpg,,,,,,,,,,,,,0,4,4,8,,,,,0,4,4,4,,,,,,,,,,,,,,,,,,,,,,,,,,,,,,,,,,,,,,,,,,,,,,,,,,,,,,,,,,,,,,,,,,,,,,,,,,,,,,,,,,,,,,,,,,818564,001,2022-11-07_11h02.19.484,Info_measure_main_exp,2022.2.2,144.66336824602325,
9,0,131,5,5,1986,1950,absent_patch/patch0001986.jpg,absent_patch/patch0001950.jpg,,,,,,,,,,,,,,0,4,4,8,,,,,,,,,,,,,,,,,,,,,,,,,,,,,,,,,,,,,,,,,,,,,,,,,,,,,,,0.00594580004690215,69.2353979999898,0.1388888888888889,0.08055555555555556,1,0,0,response1disk,6,2.8971121999784373,1,,,,,1.71000137925148e-05,0.000925925925925926,-0.001851851851851852,1,0,0,center_square_2,,,,,,,,,,,,,,,,,,,,,,818564,001,2022-11-07_11h02.19.484,Info_measure_main_exp,2022.2.2,144.66336824602325,
15,0,131,5,5,1950,2166,absent_patch/patch0001950.jpg,absent_patch/patch0002166.jpg,masks/mask_003.jpg,,,,,,,,,,,,,0,5,5,14,0,0,0,2,,,,,,,,,,,,,,,,,,,,,,,,,,,,,,,,,,,,,,,,,,,,,,,,,,,,,,,,,,,,,,,,,,,,,,,,,,,,,,,,,,,73.40960529999575,73.56947749998653,,,,,,,,,,818564,001,2022-11-07_11h02.19.484,Info_measure_main_exp,2022.2.2,144.66336824602325,
15,0,131,5,5,1950,2166,absent_patch/patch0001950.jpg,absent_patch/patch0002166.jpg,masks/mask_005.jpg,,,,,,,,,,,,,0,5,5,14,0,1,1,4,,,,,,,,,,,,,,,,,,,,,,,,,,,,,,,,,,,,,,,,,,,,,,,,,,,,,,,,,,,,,,,,,,,,,,,,,,,,,,,,,,,,,,,,,,,,,,818564,001,2022-11-07_11h02.19.484,Info_measure_main_exp,2022.2.2,144.66336824602325,
15,0,131,5,5,1950,2166,absent_patch/patch0001950.jpg,absent_patch/patch0002166.jpg,masks/mask_002.jpg,,,,,,,,,,,,,0,5,5,14,0,2,2,1,,,,,,,,,,,,,,,,,,,,,,,,,,,,,,,,,,,,,,,,,,,,,,,,,,,,,,,,,,,,,,,,,,,,,,,,,,,,,,,,,,,,,,,,,,,,,,818564,001,2022-11-07_11h02.19.484,Info_measure_main_exp,2022.2.2,144.66336824602325,
15,0,131,5,5,1950,2166,absent_patch/patch0001950.jpg,absent_patch/patch0002166.jpg,masks/mask_001.jpg,,,,,,,,,,,,,0,5,5,14,0,3,3,0,,,,,,,,,,,,,,,,,,,,,,,,,,,,,,,,,,,,,,,,,,,,,,,,,,,,,,,,,,,,,,,,,,,,,,,,,,,,,,,,,,,,,,,,,,,,,,818564,001,2022-11-07_11h02.19.484,Info_measure_main_exp,2022.2.2,144.66336824602325,
15,0,131,5,5,1950,2166,absent_patch/patch0001950.jpg,absent_patch/patch0002166.jpg,masks/mask_004.jpg,,,,,,,,,,,,,0,5,5,14,0,4,4,3,,,,,,,,,,,,,,,,,,,,,,,,,,,,,,,,,,,,,,,,,,,,,,,,,,,,,,,,,,,,,,,,,,,,,,,,,,,,,,,,,,,,,,,,,,,,,,818564,001,2022-11-07_11h02.19.484,Info_measure_main_exp,2022.2.2,144.66336824602325,
15,0,131,5,5,1950,2166,absent_patch/patch0001950.jpg,absent_patch/patch0002166.jpg,masks/mask_002.jpg,,,,,,,,,,,,,0,5,5,14,,,,,0,0,0,1,,,,,,,,,,,,,,,,,,,,,,,,,,,,,,,,,,,,,,,,,,,,,,,,,,,,,,,,,,,,,,,,,,,,,,,,,,,,,,,,,74.36108349997085,74.51658529997803,,,,,,,,818564,001,2022-11-07_11h02.19.484,Info_measure_main_exp,2022.2.2,144.66336824602325,
15,0,131,5,5,1950,2166,absent_patch/patch0001950.jpg,absent_patch/patch0002166.jpg,masks/mask_005.jpg,,,,,,,,,,,,,0,5,5,14,,,,,0,1,1,4,,,,,,,,,,,,,,,,,,,,,,,,,,,,,,,,,,,,,,,,,,,,,,,,,,,,,,,,,,,,,,,,,,,,,,,,,,,,,,,,,,,,,,,,,,818564,001,2022-11-07_11h02.19.484,Info_measure_main_exp,2022.2.2,144.66336824602325,
15,0,131,5,5,1950,2166,absent_patch/patch0001950.jpg,absent_patch/patch0002166.jpg,masks/mask_003.jpg,,,,,,,,,,,,,0,5,5,14,,,,,0,2,2,2,,,,,,,,,,,,,,,,,,,,,,,,,,,,,,,,,,,,,,,,,,,,,,,,,,,,,,,,,,,,,,,,,,,,,,,,,,,,,,,,,,,,,,,,,,818564,001,2022-11-07_11h02.19.484,Info_measure_main_exp,2022.2.2,144.66336824602325,
15,0,131,5,5,1950,2166,absent_patch/patch0001950.jpg,absent_patch/patch0002166.jpg,masks/mask_001.jpg,,,,,,,,,,,,,0,5,5,14,,,,,0,3,3,0,,,,,,,,,,,,,,,,,,,,,,,,,,,,,,,,,,,,,,,,,,,,,,,,,,,,,,,,,,,,,,,,,,,,,,,,,,,,,,,,,,,,,,,,,,818564,001,2022-11-07_11h02.19.484,Info_measure_main_exp,2022.2.2,144.66336824602325,
15,0,131,5,5,1950,2166,absent_patch/patch0001950.jpg,absent_patch/patch0002166.jpg,masks/mask_004.jpg,,,,,,,,,,,,,0,5,5,14,,,,,0,4,4,3,,,,,,,,,,,,,,,,,,,,,,,,,,,,,,,,,,,,,,,,,,,,,,,,,,,,,,,,,,,,,,,,,,,,,,,,,,,,,,,,,,,,,,,,,,818564,001,2022-11-07_11h02.19.484,Info_measure_main_exp,2022.2.2,144.66336824602325,
15,0,131,5,5,1950,2166,absent_patch/patch0001950.jpg,absent_patch/patch0002166.jpg,,,,,,,,,,,,,,0,5,5,14,,,,,,,,,,,,,,,,,,,,,,,,,,,,,,,,,,,,,,,,,,,,,,,,,,,,,,,0.005333700042683631,74.81934799998999,0.06851851851851852,0.11574074074074074,1,0,0,response1disk,7,1.5701774000190198,1,,,,,1.98000343516469e-05,0.004629629629629629,0.008333333333333333,1,0,0,center_square_2,,,,,,,,,,,,,,,,,,,,,,818564,001,2022-11-07_11h02.19.484,Info_measure_main_exp,2022.2.2,144.66336824602325,
7,0,131,5,5,1986,2238,absent_patch/patch0001986.jpg,absent_patch/patch0002238.jpg,masks/mask_001.jpg,,,,,,,,,,,,,0,6,6,6,0,0,0,0,,,,,,,,,,,,,,,,,,,,,,,,,,,,,,,,,,,,,,,,,,,,,,,,,,,,,,,,,,,,,,,,,,,,,,,,,,,,,,,,,,,77.33319360000314,77.48812629998429,,,,,,,,,,818564,001,2022-11-07_11h02.19.484,Info_measure_main_exp,2022.2.2,144.66336824602325,
7,0,131,5,5,1986,2238,absent_patch/patch0001986.jpg,absent_patch/patch0002238.jpg,masks/mask_005.jpg,,,,,,,,,,,,,0,6,6,6,0,1,1,4,,,,,,,,,,,,,,,,,,,,,,,,,,,,,,,,,,,,,,,,,,,,,,,,,,,,,,,,,,,,,,,,,,,,,,,,,,,,,,,,,,,,,,,,,,,,,,818564,001,2022-11-07_11h02.19.484,Info_measure_main_exp,2022.2.2,144.66336824602325,
7,0,131,5,5,1986,2238,absent_patch/patch0001986.jpg,absent_patch/patch0002238.jpg,masks/mask_002.jpg,,,,,,,,,,,,,0,6,6,6,0,2,2,1,,,,,,,,,,,,,,,,,,,,,,,,,,,,,,,,,,,,,,,,,,,,,,,,,,,,,,,,,,,,,,,,,,,,,,,,,,,,,,,,,,,,,,,,,,,,,,818564,001,2022-11-07_11h02.19.484,Info_measure_main_exp,2022.2.2,144.66336824602325,
7,0,131,5,5,1986,2238,absent_patch/patch0001986.jpg,absent_patch/patch0002238.jpg,masks/mask_003.jpg,,,,,,,,,,,,,0,6,6,6,0,3,3,2,,,,,,,,,,,,,,,,,,,,,,,,,,,,,,,,,,,,,,,,,,,,,,,,,,,,,,,,,,,,,,,,,,,,,,,,,,,,,,,,,,,,,,,,,,,,,,818564,001,2022-11-07_11h02.19.484,Info_measure_main_exp,2022.2.2,144.66336824602325,
7,0,131,5,5,1986,2238,absent_patch/patch0001986.jpg,absent_patch/patch0002238.jpg,masks/mask_004.jpg,,,,,,,,,,,,,0,6,6,6,0,4,4,3,,,,,,,,,,,,,,,,,,,,,,,,,,,,,,,,,,,,,,,,,,,,,,,,,,,,,,,,,,,,,,,,,,,,,,,,,,,,,,,,,,,,,,,,,,,,,,818564,001,2022-11-07_11h02.19.484,Info_measure_main_exp,2022.2.2,144.66336824602325,
7,0,131,5,5,1986,2238,absent_patch/patch0001986.jpg,absent_patch/patch0002238.jpg,masks/mask_001.jpg,,,,,,,,,,,,,0,6,6,6,,,,,0,0,0,0,,,,,,,,,,,,,,,,,,,,,,,,,,,,,,,,,,,,,,,,,,,,,,,,,,,,,,,,,,,,,,,,,,,,,,,,,,,,,,,,,78.28461999999126,78.44012210000074,,,,,,,,818564,001,2022-11-07_11h02.19.484,Info_measure_main_exp,2022.2.2,144.66336824602325,
7,0,131,5,5,1986,2238,absent_patch/patch0001986.jpg,absent_patch/patch0002238.jpg,masks/mask_004.jpg,,,,,,,,,,,,,0,6,6,6,,,,,0,1,1,3,,,,,,,,,,,,,,,,,,,,,,,,,,,,,,,,,,,,,,,,,,,,,,,,,,,,,,,,,,,,,,,,,,,,,,,,,,,,,,,,,,,,,,,,,,818564,001,2022-11-07_11h02.19.484,Info_measure_main_exp,2022.2.2,144.66336824602325,
7,0,131,5,5,1986,2238,absent_patch/patch0001986.jpg,absent_patch/patch0002238.jpg,masks/mask_003.jpg,,,,,,,,,,,,,0,6,6,6,,,,,0,2,2,2,,,,,,,,,,,,,,,,,,,,,,,,,,,,,,,,,,,,,,,,,,,,,,,,,,,,,,,,,,,,,,,,,,,,,,,,,,,,,,,,,,,,,,,,,,818564,001,2022-11-07_11h02.19.484,Info_measure_main_exp,2022.2.2,144.66336824602325,
7,0,131,5,5,1986,2238,absent_patch/patch0001986.jpg,absent_patch/patch0002238.jpg,masks/mask_005.jpg,,,,,,,,,,,,,0,6,6,6,,,,,0,3,3,4,,,,,,,,,,,,,,,,,,,,,,,,,,,,,,,,,,,,,,,,,,,,,,,,,,,,,,,,,,,,,,,,,,,,,,,,,,,,,,,,,,,,,,,,,,818564,001,2022-11-07_11h02.19.484,Info_measure_main_exp,2022.2.2,144.66336824602325,
7,0,131,5,5,1986,2238,absent_patch/patch0001986.jpg,absent_patch/patch0002238.jpg,masks/mask_002.jpg,,,,,,,,,,,,,0,6,6,6,,,,,0,4,4,1,,,,,,,,,,,,,,,,,,,,,,,,,,,,,,,,,,,,,,,,,,,,,,,,,,,,,,,,,,,,,,,,,,,,,,,,,,,,,,,,,,,,,,,,,,818564,001,2022-11-07_11h02.19.484,Info_measure_main_exp,2022.2.2,144.66336824602325,
7,0,131,5,5,1986,2238,absent_patch/patch0001986.jpg,absent_patch/patch0002238.jpg,,,,,,,,,,,,,,0,6,6,6,,,,,,,,,,,,,,,,,,,,,,,,,,,,,,,,,,,,,,,,,,,,,,,,,,,,,,,0.005705400020815432,78.74229729996296,-0.11388888888888889,-0.04722222222222222,1,0,0,response5disk,2,1.7580922999768518,1,,,,,1.7200014553964138e-05,-0.008333333333333333,-0.002777777777777778,1,0,0,center_square_2,,,,,,,,,,,,,,,,,,,,,,818564,001,2022-11-07_11h02.19.484,Info_measure_main_exp,2022.2.2,144.66336824602325,
3,0,131,5,5,1950,1974,absent_patch/patch0001950.jpg,absent_patch/patch0001974.jpg,masks/mask_002.jpg,,,,,,,,,,,,,0,7,7,2,0,0,0,1,,,,,,,,,,,,,,,,,,,,,,,,,,,,,,,,,,,,,,,,,,,,,,,,,,,,,,,,,,,,,,,,,,,,,,,,,,,,,,,,,,,81.73562920000404,81.89156269998057,,,,,,,,,,818564,001,2022-11-07_11h02.19.484,Info_measure_main_exp,2022.2.2,144.66336824602325,
3,0,131,5,5,1950,1974,absent_patch/patch0001950.jpg,absent_patch/patch0001974.jpg,masks/mask_004.jpg,,,,,,,,,,,,,0,7,7,2,0,1,1,3,,,,,,,,,,,,,,,,,,,,,,,,,,,,,,,,,,,,,,,,,,,,,,,,,,,,,,,,,,,,,,,,,,,,,,,,,,,,,,,,,,,,,,,,,,,,,,818564,001,2022-11-07_11h02.19.484,Info_measure_main_exp,2022.2.2,144.66336824602325,
3,0,131,5,5,1950,1974,absent_patch/patch0001950.jpg,absent_patch/patch0001974.jpg,masks/mask_005.jpg,,,,,,,,,,,,,0,7,7,2,0,2,2,4,,,,,,,,,,,,,,,,,,,,,,,,,,,,,,,,,,,,,,,,,,,,,,,,,,,,,,,,,,,,,,,,,,,,,,,,,,,,,,,,,,,,,,,,,,,,,,818564,001,2022-11-07_11h02.19.484,Info_measure_main_exp,2022.2.2,144.66336824602325,
3,0,131,5,5,1950,1974,absent_patch/patch0001950.jpg,absent_patch/patch0001974.jpg,masks/mask_001.jpg,,,,,,,,,,,,,0,7,7,2,0,3,3,0,,,,,,,,,,,,,,,,,,,,,,,,,,,,,,,,,,,,,,,,,,,,,,,,,,,,,,,,,,,,,,,,,,,,,,,,,,,,,,,,,,,,,,,,,,,,,,818564,001,2022-11-07_11h02.19.484,Info_measure_main_exp,2022.2.2,144.66336824602325,
3,0,131,5,5,1950,1974,absent_patch/patch0001950.jpg,absent_patch/patch0001974.jpg,masks/mask_003.jpg,,,,,,,,,,,,,0,7,7,2,0,4,4,2,,,,,,,,,,,,,,,,,,,,,,,,,,,,,,,,,,,,,,,,,,,,,,,,,,,,,,,,,,,,,,,,,,,,,,,,,,,,,,,,,,,,,,,,,,,,,,818564,001,2022-11-07_11h02.19.484,Info_measure_main_exp,2022.2.2,144.66336824602325,
3,0,131,5,5,1950,1974,absent_patch/patch0001950.jpg,absent_patch/patch0001974.jpg,masks/mask_004.jpg,,,,,,,,,,,,,0,7,7,2,,,,,0,0,0,3,,,,,,,,,,,,,,,,,,,,,,,,,,,,,,,,,,,,,,,,,,,,,,,,,,,,,,,,,,,,,,,,,,,,,,,,,,,,,,,,,82.68735789996572,82.84292219998315,,,,,,,,818564,001,2022-11-07_11h02.19.484,Info_measure_main_exp,2022.2.2,144.66336824602325,
3,0,131,5,5,1950,1974,absent_patch/patch0001950.jpg,absent_patch/patch0001974.jpg,masks/mask_005.jpg,,,,,,,,,,,,,0,7,7,2,,,,,0,1,1,4,,,,,,,,,,,,,,,,,,,,,,,,,,,,,,,,,,,,,,,,,,,,,,,,,,,,,,,,,,,,,,,,,,,,,,,,,,,,,,,,,,,,,,,,,,818564,001,2022-11-07_11h02.19.484,Info_measure_main_exp,2022.2.2,144.66336824602325,
3,0,131,5,5,1950,1974,absent_patch/patch0001950.jpg,absent_patch/patch0001974.jpg,masks/mask_003.jpg,,,,,,,,,,,,,0,7,7,2,,,,,0,2,2,2,,,,,,,,,,,,,,,,,,,,,,,,,,,,,,,,,,,,,,,,,,,,,,,,,,,,,,,,,,,,,,,,,,,,,,,,,,,,,,,,,,,,,,,,,,818564,001,2022-11-07_11h02.19.484,Info_measure_main_exp,2022.2.2,144.66336824602325,
3,0,131,5,5,1950,1974,absent_patch/patch0001950.jpg,absent_patch/patch0001974.jpg,masks/mask_001.jpg,,,,,,,,,,,,,0,7,7,2,,,,,0,3,3,0,,,,,,,,,,,,,,,,,,,,,,,,,,,,,,,,,,,,,,,,,,,,,,,,,,,,,,,,,,,,,,,,,,,,,,,,,,,,,,,,,,,,,,,,,,818564,001,2022-11-07_11h02.19.484,Info_measure_main_exp,2022.2.2,144.66336824602325,
3,0,131,5,5,1950,1974,absent_patch/patch0001950.jpg,absent_patch/patch0001974.jpg,masks/mask_002.jpg,,,,,,,,,,,,,0,7,7,2,,,,,0,4,4,1,,,,,,,,,,,,,,,,,,,,,,,,,,,,,,,,,,,,,,,,,,,,,,,,,,,,,,,,,,,,,,,,,,,,,,,,,,,,,,,,,,,,,,,,,,818564,001,2022-11-07_11h02.19.484,Info_measure_main_exp,2022.2.2,144.66336824602325,
3,0,131,5,5,1950,1974,absent_patch/patch0001950.jpg,absent_patch/patch0001974.jpg,,,,,,,,,,,,,,0,7,7,2,,,,,,,,,,,,,,,,,,,,,,,,,,,,,,,,,,,,,,,,,,,,,,,,,,,,,,,0.005802000057883561,83.14500509999925,-0.02962962962962963,0.12314814814814815,1,0,0,response7disk,0,1.147105299984105,1,,,,,1.8000020645558834e-05,0.000925925925925926,0.005555555555555556,1,0,0,center_square_2,,,,,,,,,,,,,,,,,,,,,,818564,001,2022-11-07_11h02.19.484,Info_measure_main_exp,2022.2.2,144.66336824602325,
6,0,131,5,5,1974,2238,absent_patch/patch0001974.jpg,absent_patch/patch0002238.jpg,masks/mask_002.jpg,,,,,,,,,,,,,0,8,8,5,0,0,0,1,,,,,,,,,,,,,,,,,,,,,,,,,,,,,,,,,,,,,,,,,,,,,,,,,,,,,,,,,,,,,,,,,,,,,,,,,,,,,,,,,,,85.29132129997015,85.44643389998237,,,,,,,,,,818564,001,2022-11-07_11h02.19.484,Info_measure_main_exp,2022.2.2,144.66336824602325,
6,0,131,5,5,1974,2238,absent_patch/patch0001974.jpg,absent_patch/patch0002238.jpg,masks/mask_003.jpg,,,,,,,,,,,,,0,8,8,5,0,1,1,2,,,,,,,,,,,,,,,,,,,,,,,,,,,,,,,,,,,,,,,,,,,,,,,,,,,,,,,,,,,,,,,,,,,,,,,,,,,,,,,,,,,,,,,,,,,,,,818564,001,2022-11-07_11h02.19.484,Info_measure_main_exp,2022.2.2,144.66336824602325,
6,0,131,5,5,1974,2238,absent_patch/patch0001974.jpg,absent_patch/patch0002238.jpg,masks/mask_005.jpg,,,,,,,,,,,,,0,8,8,5,0,2,2,4,,,,,,,,,,,,,,,,,,,,,,,,,,,,,,,,,,,,,,,,,,,,,,,,,,,,,,,,,,,,,,,,,,,,,,,,,,,,,,,,,,,,,,,,,,,,,,818564,001,2022-11-07_11h02.19.484,Info_measure_main_exp,2022.2.2,144.66336824602325,
6,0,131,5,5,1974,2238,absent_patch/patch0001974.jpg,absent_patch/patch0002238.jpg,masks/mask_001.jpg,,,,,,,,,,,,,0,8,8,5,0,3,3,0,,,,,,,,,,,,,,,,,,,,,,,,,,,,,,,,,,,,,,,,,,,,,,,,,,,,,,,,,,,,,,,,,,,,,,,,,,,,,,,,,,,,,,,,,,,,,,818564,001,2022-11-07_11h02.19.484,Info_measure_main_exp,2022.2.2,144.66336824602325,
6,0,131,5,5,1974,2238,absent_patch/patch0001974.jpg,absent_patch/patch0002238.jpg,masks/mask_004.jpg,,,,,,,,,,,,,0,8,8,5,0,4,4,3,,,,,,,,,,,,,,,,,,,,,,,,,,,,,,,,,,,,,,,,,,,,,,,,,,,,,,,,,,,,,,,,,,,,,,,,,,,,,,,,,,,,,,,,,,,,,,818564,001,2022-11-07_11h02.19.484,Info_measure_main_exp,2022.2.2,144.66336824602325,
6,0,131,5,5,1974,2238,absent_patch/patch0001974.jpg,absent_patch/patch0002238.jpg,masks/mask_002.jpg,,,,,,,,,,,,,0,8,8,5,,,,,0,0,0,1,,,,,,,,,,,,,,,,,,,,,,,,,,,,,,,,,,,,,,,,,,,,,,,,,,,,,,,,,,,,,,,,,,,,,,,,,,,,,,,,,86.24296969996067,86.39870279998286,,,,,,,,818564,001,2022-11-07_11h02.19.484,Info_measure_main_exp,2022.2.2,144.66336824602325,
6,0,131,5,5,1974,2238,absent_patch/patch0001974.jpg,absent_patch/patch0002238.jpg,masks/mask_004.jpg,,,,,,,,,,,,,0,8,8,5,,,,,0,1,1,3,,,,,,,,,,,,,,,,,,,,,,,,,,,,,,,,,,,,,,,,,,,,,,,,,,,,,,,,,,,,,,,,,,,,,,,,,,,,,,,,,,,,,,,,,,818564,001,2022-11-07_11h02.19.484,Info_measure_main_exp,2022.2.2,144.66336824602325,
6,0,131,5,5,1974,2238,absent_patch/patch0001974.jpg,absent_patch/patch0002238.jpg,masks/mask_003.jpg,,,,,,,,,,,,,0,8,8,5,,,,,0,2,2,2,,,,,,,,,,,,,,,,,,,,,,,,,,,,,,,,,,,,,,,,,,,,,,,,,,,,,,,,,,,,,,,,,,,,,,,,,,,,,,,,,,,,,,,,,,818564,001,2022-11-07_11h02.19.484,Info_measure_main_exp,2022.2.2,144.66336824602325,
6,0,131,5,5,1974,2238,absent_patch/patch0001974.jpg,absent_patch/patch0002238.jpg,masks/mask_005.jpg,,,,,,,,,,,,,0,8,8,5,,,,,0,3,3,4,,,,,,,,,,,,,,,,,,,,,,,,,,,,,,,,,,,,,,,,,,,,,,,,,,,,,,,,,,,,,,,,,,,,,,,,,,,,,,,,,,,,,,,,,,818564,001,2022-11-07_11h02.19.484,Info_measure_main_exp,2022.2.2,144.66336824602325,
6,0,131,5,5,1974,2238,absent_patch/patch0001974.jpg,absent_patch/patch0002238.jpg,masks/mask_001.jpg,,,,,,,,,,,,,0,8,8,5,,,,,0,4,4,0,,,,,,,,,,,,,,,,,,,,,,,,,,,,,,,,,,,,,,,,,,,,,,,,,,,,,,,,,,,,,,,,,,,,,,,,,,,,,,,,,,,,,,,,,,818564,001,2022-11-07_11h02.19.484,Info_measure_main_exp,2022.2.2,144.66336824602325,
6,0,131,5,5,1974,2238,absent_patch/patch0001974.jpg,absent_patch/patch0002238.jpg,,,,,,,,,,,,,,0,8,8,5,,,,,,,,,,,,,,,,,,,,,,,,,,,,,,,,,,,,,,,,,,,,,,,,,,,,,,,0.005701399990357459,86.70116929995129,0.046296296296296294,0.08518518518518518,1,0,0,response1disk,7,0.7785499999881722,1,,,,,1.580000389367342e-05,0.007407407407407408,0.007407407407407408,1,0,0,center_square_2,,,,,,,,,,,,,,,,,,,,,,818564,001,2022-11-07_11h02.19.484,Info_measure_main_exp,2022.2.2,144.66336824602325,
8,0,131,5,5,1974,1986,absent_patch/patch0001974.jpg,absent_patch/patch0001986.jpg,masks/mask_002.jpg,,,,,,,,,,,,,0,9,9,7,0,0,0,1,,,,,,,,,,,,,,,,,,,,,,,,,,,,,,,,,,,,,,,,,,,,,,,,,,,,,,,,,,,,,,,,,,,,,,,,,,,,,,,,,,,88.41640299995197,88.57645999995293,,,,,,,,,,818564,001,2022-11-07_11h02.19.484,Info_measure_main_exp,2022.2.2,144.66336824602325,
8,0,131,5,5,1974,1986,absent_patch/patch0001974.jpg,absent_patch/patch0001986.jpg,masks/mask_005.jpg,,,,,,,,,,,,,0,9,9,7,0,1,1,4,,,,,,,,,,,,,,,,,,,,,,,,,,,,,,,,,,,,,,,,,,,,,,,,,,,,,,,,,,,,,,,,,,,,,,,,,,,,,,,,,,,,,,,,,,,,,,818564,001,2022-11-07_11h02.19.484,Info_measure_main_exp,2022.2.2,144.66336824602325,
8,0,131,5,5,1974,1986,absent_patch/patch0001974.jpg,absent_patch/patch0001986.jpg,masks/mask_004.jpg,,,,,,,,,,,,,0,9,9,7,0,2,2,3,,,,,,,,,,,,,,,,,,,,,,,,,,,,,,,,,,,,,,,,,,,,,,,,,,,,,,,,,,,,,,,,,,,,,,,,,,,,,,,,,,,,,,,,,,,,,,818564,001,2022-11-07_11h02.19.484,Info_measure_main_exp,2022.2.2,144.66336824602325,
8,0,131,5,5,1974,1986,absent_patch/patch0001974.jpg,absent_patch/patch0001986.jpg,masks/mask_001.jpg,,,,,,,,,,,,,0,9,9,7,0,3,3,0,,,,,,,,,,,,,,,,,,,,,,,,,,,,,,,,,,,,,,,,,,,,,,,,,,,,,,,,,,,,,,,,,,,,,,,,,,,,,,,,,,,,,,,,,,,,,,818564,001,2022-11-07_11h02.19.484,Info_measure_main_exp,2022.2.2,144.66336824602325,
8,0,131,5,5,1974,1986,absent_patch/patch0001974.jpg,absent_patch/patch0001986.jpg,masks/mask_003.jpg,,,,,,,,,,,,,0,9,9,7,0,4,4,2,,,,,,,,,,,,,,,,,,,,,,,,,,,,,,,,,,,,,,,,,,,,,,,,,,,,,,,,,,,,,,,,,,,,,,,,,,,,,,,,,,,,,,,,,,,,,,818564,001,2022-11-07_11h02.19.484,Info_measure_main_exp,2022.2.2,144.66336824602325,
8,0,131,5,5,1974,1986,absent_patch/patch0001974.jpg,absent_patch/patch0001986.jpg,masks/mask_001.jpg,,,,,,,,,,,,,0,9,9,7,,,,,0,0,0,0,,,,,,,,,,,,,,,,,,,,,,,,,,,,,,,,,,,,,,,,,,,,,,,,,,,,,,,,,,,,,,,,,,,,,,,,,,,,,,,,,89.36806549999164,89.52326369995717,,,,,,,,818564,001,2022-11-07_11h02.19.484,Info_measure_main_exp,2022.2.2,144.66336824602325,
8,0,131,5,5,1974,1986,absent_patch/patch0001974.jpg,absent_patch/patch0001986.jpg,masks/mask_004.jpg,,,,,,,,,,,,,0,9,9,7,,,,,0,1,1,3,,,,,,,,,,,,,,,,,,,,,,,,,,,,,,,,,,,,,,,,,,,,,,,,,,,,,,,,,,,,,,,,,,,,,,,,,,,,,,,,,,,,,,,,,,818564,001,2022-11-07_11h02.19.484,Info_measure_main_exp,2022.2.2,144.66336824602325,
8,0,131,5,5,1974,1986,absent_patch/patch0001974.jpg,absent_patch/patch0001986.jpg,masks/mask_005.jpg,,,,,,,,,,,,,0,9,9,7,,,,,0,2,2,4,,,,,,,,,,,,,,,,,,,,,,,,,,,,,,,,,,,,,,,,,,,,,,,,,,,,,,,,,,,,,,,,,,,,,,,,,,,,,,,,,,,,,,,,,,818564,001,2022-11-07_11h02.19.484,Info_measure_main_exp,2022.2.2,144.66336824602325,
8,0,131,5,5,1974,1986,absent_patch/patch0001974.jpg,absent_patch/patch0001986.jpg,masks/mask_003.jpg,,,,,,,,,,,,,0,9,9,7,,,,,0,3,3,2,,,,,,,,,,,,,,,,,,,,,,,,,,,,,,,,,,,,,,,,,,,,,,,,,,,,,,,,,,,,,,,,,,,,,,,,,,,,,,,,,,,,,,,,,,818564,001,2022-11-07_11h02.19.484,Info_measure_main_exp,2022.2.2,144.66336824602325,
8,0,131,5,5,1974,1986,absent_patch/patch0001974.jpg,absent_patch/patch0001986.jpg,masks/mask_002.jpg,,,,,,,,,,,,,0,9,9,7,,,,,0,4,4,1,,,,,,,,,,,,,,,,,,,,,,,,,,,,,,,,,,,,,,,,,,,,,,,,,,,,,,,,,,,,,,,,,,,,,,,,,,,,,,,,,,,,,,,,,,818564,001,2022-11-07_11h02.19.484,Info_measure_main_exp,2022.2.2,144.66336824602325,
8,0,131,5,5,1974,1986,absent_patch/patch0001974.jpg,absent_patch/patch0001986.jpg,,,,,,,,,,,,,,0,9,9,7,,,,,,,,,,,,,,,,,,,,,,,,,,,,,,,,,,,,,,,,,,,,,,,,,,,,,,,0.00578280002810061,89.82559899997432,0.012962962962962963,0.08981481481481482,1,0,0,response1disk,7,1.542851599981077,1,,,,,1.7300015315413475e-05,-0.005555555555555556,0.009259259259259259,1,0,0,center_square_2,,,,,,,,,,,,,,,,,,,,,,818564,001,2022-11-07_11h02.19.484,Info_measure_main_exp,2022.2.2,144.66336824602325,
4,0,131,5,5,2238,1950,absent_patch/patch0002238.jpg,absent_patch/patch0001950.jpg,masks/mask_001.jpg,,,,,,,,,,,,,0,10,10,3,0,0,0,0,,,,,,,,,,,,,,,,,,,,,,,,,,,,,,,,,,,,,,,,,,,,,,,,,,,,,,,,,,,,,,,,,,,,,,,,,,,,,,,,,,,92.63850329996785,92.79889529995853,,,,,,,,,,818564,001,2022-11-07_11h02.19.484,Info_measure_main_exp,2022.2.2,144.66336824602325,
4,0,131,5,5,2238,1950,absent_patch/patch0002238.jpg,absent_patch/patch0001950.jpg,masks/mask_004.jpg,,,,,,,,,,,,,0,10,10,3,0,1,1,3,,,,,,,,,,,,,,,,,,,,,,,,,,,,,,,,,,,,,,,,,,,,,,,,,,,,,,,,,,,,,,,,,,,,,,,,,,,,,,,,,,,,,,,,,,,,,,818564,001,2022-11-07_11h02.19.484,Info_measure_main_exp,2022.2.2,144.66336824602325,
4,0,131,5,5,2238,1950,absent_patch/patch0002238.jpg,absent_patch/patch0001950.jpg,masks/mask_003.jpg,,,,,,,,,,,,,0,10,10,3,0,2,2,2,,,,,,,,,,,,,,,,,,,,,,,,,,,,,,,,,,,,,,,,,,,,,,,,,,,,,,,,,,,,,,,,,,,,,,,,,,,,,,,,,,,,,,,,,,,,,,818564,001,2022-11-07_11h02.19.484,Info_measure_main_exp,2022.2.2,144.66336824602325,
4,0,131,5,5,2238,1950,absent_patch/patch0002238.jpg,absent_patch/patch0001950.jpg,masks/mask_005.jpg,,,,,,,,,,,,,0,10,10,3,0,3,3,4,,,,,,,,,,,,,,,,,,,,,,,,,,,,,,,,,,,,,,,,,,,,,,,,,,,,,,,,,,,,,,,,,,,,,,,,,,,,,,,,,,,,,,,,,,,,,,818564,001,2022-11-07_11h02.19.484,Info_measure_main_exp,2022.2.2,144.66336824602325,
4,0,131,5,5,2238,1950,absent_patch/patch0002238.jpg,absent_patch/patch0001950.jpg,masks/mask_002.jpg,,,,,,,,,,,,,0,10,10,3,0,4,4,1,,,,,,,,,,,,,,,,,,,,,,,,,,,,,,,,,,,,,,,,,,,,,,,,,,,,,,,,,,,,,,,,,,,,,,,,,,,,,,,,,,,,,,,,,,,,,,818564,001,2022-11-07_11h02.19.484,Info_measure_main_exp,2022.2.2,144.66336824602325,
4,0,131,5,5,2238,1950,absent_patch/patch0002238.jpg,absent_patch/patch0001950.jpg,masks/mask_004.jpg,,,,,,,,,,,,,0,10,10,3,,,,,0,0,0,3,,,,,,,,,,,,,,,,,,,,,,,,,,,,,,,,,,,,,,,,,,,,,,,,,,,,,,,,,,,,,,,,,,,,,,,,,,,,,,,,,93.59014190000016,93.7452776999562,,,,,,,,818564,001,2022-11-07_11h02.19.484,Info_measure_main_exp,2022.2.2,144.66336824602325,
4,0,131,5,5,2238,1950,absent_patch/patch0002238.jpg,absent_patch/patch0001950.jpg,masks/mask_003.jpg,,,,,,,,,,,,,0,10,10,3,,,,,0,1,1,2,,,,,,,,,,,,,,,,,,,,,,,,,,,,,,,,,,,,,,,,,,,,,,,,,,,,,,,,,,,,,,,,,,,,,,,,,,,,,,,,,,,,,,,,,,818564,001,2022-11-07_11h02.19.484,Info_measure_main_exp,2022.2.2,144.66336824602325,
4,0,131,5,5,2238,1950,absent_patch/patch0002238.jpg,absent_patch/patch0001950.jpg,masks/mask_001.jpg,,,,,,,,,,,,,0,10,10,3,,,,,0,2,2,0,,,,,,,,,,,,,,,,,,,,,,,,,,,,,,,,,,,,,,,,,,,,,,,,,,,,,,,,,,,,,,,,,,,,,,,,,,,,,,,,,,,,,,,,,,818564,001,2022-11-07_11h02.19.484,Info_measure_main_exp,2022.2.2,144.66336824602325,
4,0,131,5,5,2238,1950,absent_patch/patch0002238.jpg,absent_patch/patch0001950.jpg,masks/mask_005.jpg,,,,,,,,,,,,,0,10,10,3,,,,,0,3,3,4,,,,,,,,,,,,,,,,,,,,,,,,,,,,,,,,,,,,,,,,,,,,,,,,,,,,,,,,,,,,,,,,,,,,,,,,,,,,,,,,,,,,,,,,,,818564,001,2022-11-07_11h02.19.484,Info_measure_main_exp,2022.2.2,144.66336824602325,
4,0,131,5,5,2238,1950,absent_patch/patch0002238.jpg,absent_patch/patch0001950.jpg,masks/mask_002.jpg,,,,,,,,,,,,,0,10,10,3,,,,,0,4,4,1,,,,,,,,,,,,,,,,,,,,,,,,,,,,,,,,,,,,,,,,,,,,,,,,,,,,,,,,,,,,,,,,,,,,,,,,,,,,,,,,,,,,,,,,,,818564,001,2022-11-07_11h02.19.484,Info_measure_main_exp,2022.2.2,144.66336824602325,
4,0,131,5,5,2238,1950,absent_patch/patch0002238.jpg,absent_patch/patch0001950.jpg,,,,,,,,,,,,,,0,10,10,3,,,,,,,,,,,,,,,,,,,,,,,,,,,,,,,,,,,,,,,,,,,,,,,,,,,,,,,0.00574270001379773,94.04786839999724,-0.13425925925925927,0.06388888888888888,1,0,0,response7disk,1,1.4599242000258528,1,,,,,1.899997005239129e-05,-0.013888888888888888,0.010185185185185186,1,0,0,center_square_2,,,,,,,,,,,,,,,,,,,,,,818564,001,2022-11-07_11h02.19.484,Info_measure_main_exp,2022.2.2,144.66336824602325,
11,0,131,5,5,2238,2166,absent_patch/patch0002238.jpg,absent_patch/patch0002166.jpg,masks/mask_002.jpg,,,,,,,,,,,,,0,11,11,10,0,0,0,1,,,,,,,,,,,,,,,,,,,,,,,,,,,,,,,,,,,,,,,,,,,,,,,,,,,,,,,,,,,,,,,,,,,,,,,,,,,,,,,,,,,96.72219429997494,96.88181869999971,,,,,,,,,,818564,001,2022-11-07_11h02.19.484,Info_measure_main_exp,2022.2.2,144.66336824602325,
11,0,131,5,5,2238,2166,absent_patch/patch0002238.jpg,absent_patch/patch0002166.jpg,masks/mask_005.jpg,,,,,,,,,,,,,0,11,11,10,0,1,1,4,,,,,,,,,,,,,,,,,,,,,,,,,,,,,,,,,,,,,,,,,,,,,,,,,,,,,,,,,,,,,,,,,,,,,,,,,,,,,,,,,,,,,,,,,,,,,,818564,001,2022-11-07_11h02.19.484,Info_measure_main_exp,2022.2.2,144.66336824602325,
11,0,131,5,5,2238,2166,absent_patch/patch0002238.jpg,absent_patch/patch0002166.jpg,masks/mask_001.jpg,,,,,,,,,,,,,0,11,11,10,0,2,2,0,,,,,,,,,,,,,,,,,,,,,,,,,,,,,,,,,,,,,,,,,,,,,,,,,,,,,,,,,,,,,,,,,,,,,,,,,,,,,,,,,,,,,,,,,,,,,,818564,001,2022-11-07_11h02.19.484,Info_measure_main_exp,2022.2.2,144.66336824602325,
11,0,131,5,5,2238,2166,absent_patch/patch0002238.jpg,absent_patch/patch0002166.jpg,masks/mask_004.jpg,,,,,,,,,,,,,0,11,11,10,0,3,3,3,,,,,,,,,,,,,,,,,,,,,,,,,,,,,,,,,,,,,,,,,,,,,,,,,,,,,,,,,,,,,,,,,,,,,,,,,,,,,,,,,,,,,,,,,,,,,,818564,001,2022-11-07_11h02.19.484,Info_measure_main_exp,2022.2.2,144.66336824602325,
11,0,131,5,5,2238,2166,absent_patch/patch0002238.jpg,absent_patch/patch0002166.jpg,masks/mask_003.jpg,,,,,,,,,,,,,0,11,11,10,0,4,4,2,,,,,,,,,,,,,,,,,,,,,,,,,,,,,,,,,,,,,,,,,,,,,,,,,,,,,,,,,,,,,,,,,,,,,,,,,,,,,,,,,,,,,,,,,,,,,,818564,001,2022-11-07_11h02.19.484,Info_measure_main_exp,2022.2.2,144.66336824602325,
11,0,131,5,5,2238,2166,absent_patch/patch0002238.jpg,absent_patch/patch0002166.jpg,masks/mask_003.jpg,,,,,,,,,,,,,0,11,11,10,,,,,0,0,0,2,,,,,,,,,,,,,,,,,,,,,,,,,,,,,,,,,,,,,,,,,,,,,,,,,,,,,,,,,,,,,,,,,,,,,,,,,,,,,,,,,97.6731041999883,97.82900079997489,,,,,,,,818564,001,2022-11-07_11h02.19.484,Info_measure_main_exp,2022.2.2,144.66336824602325,
11,0,131,5,5,2238,2166,absent_patch/patch0002238.jpg,absent_patch/patch0002166.jpg,masks/mask_002.jpg,,,,,,,,,,,,,0,11,11,10,,,,,0,1,1,1,,,,,,,,,,,,,,,,,,,,,,,,,,,,,,,,,,,,,,,,,,,,,,,,,,,,,,,,,,,,,,,,,,,,,,,,,,,,,,,,,,,,,,,,,,818564,001,2022-11-07_11h02.19.484,Info_measure_main_exp,2022.2.2,144.66336824602325,
11,0,131,5,5,2238,2166,absent_patch/patch0002238.jpg,absent_patch/patch0002166.jpg,masks/mask_001.jpg,,,,,,,,,,,,,0,11,11,10,,,,,0,2,2,0,,,,,,,,,,,,,,,,,,,,,,,,,,,,,,,,,,,,,,,,,,,,,,,,,,,,,,,,,,,,,,,,,,,,,,,,,,,,,,,,,,,,,,,,,,818564,001,2022-11-07_11h02.19.484,Info_measure_main_exp,2022.2.2,144.66336824602325,
11,0,131,5,5,2238,2166,absent_patch/patch0002238.jpg,absent_patch/patch0002166.jpg,masks/mask_005.jpg,,,,,,,,,,,,,0,11,11,10,,,,,0,3,3,4,,,,,,,,,,,,,,,,,,,,,,,,,,,,,,,,,,,,,,,,,,,,,,,,,,,,,,,,,,,,,,,,,,,,,,,,,,,,,,,,,,,,,,,,,,818564,001,2022-11-07_11h02.19.484,Info_measure_main_exp,2022.2.2,144.66336824602325,
11,0,131,5,5,2238,2166,absent_patch/patch0002238.jpg,absent_patch/patch0002166.jpg,masks/mask_004.jpg,,,,,,,,,,,,,0,11,11,10,,,,,0,4,4,3,,,,,,,,,,,,,,,,,,,,,,,,,,,,,,,,,,,,,,,,,,,,,,,,,,,,,,,,,,,,,,,,,,,,,,,,,,,,,,,,,,,,,,,,,,818564,001,2022-11-07_11h02.19.484,Info_measure_main_exp,2022.2.2,144.66336824602325,
11,0,131,5,5,2238,2166,absent_patch/patch0002238.jpg,absent_patch/patch0002166.jpg,,,,,,,,,,,,,,0,11,11,10,,,,,,,,,,,,,,,,,,,,,,,,,,,,,,,,,,,,,,,,,,,,,,,,,,,,,,,0.005892799992579967,98.1316921999678,0.06666666666666667,0.1388888888888889,1,0,0,response1disk,7,1.5077449000091292,1,,,,,1.750001683831215e-05,0.004629629629629629,0.008333333333333333,1,0,0,center_square_2,,,,,,,,,,,,,,,,,,,,,,818564,001,2022-11-07_11h02.19.484,Info_measure_main_exp,2022.2.2,144.66336824602325,
5,1,131,5,5,1,2166,present_patch/cong_131_5_a.jpg,absent_patch/patch0002166.jpg,masks/mask_004.jpg,,,,,,,,,,,,,0,12,12,4,0,0,0,3,,,,,,,,,,,,,,,,,,,,,,,,,,,,,,,,,,,,,,,,,,,,,,,,,,,,,,,,,,,,,,,,,,,,,,,,,,,,,,,,,,,100.78415099997073,100.9398857000051,,,,,,,,,,818564,001,2022-11-07_11h02.19.484,Info_measure_main_exp,2022.2.2,144.66336824602325,
5,1,131,5,5,1,2166,present_patch/cong_131_5_a.jpg,absent_patch/patch0002166.jpg,masks/mask_003.jpg,,,,,,,,,,,,,0,12,12,4,0,1,1,2,,,,,,,,,,,,,,,,,,,,,,,,,,,,,,,,,,,,,,,,,,,,,,,,,,,,,,,,,,,,,,,,,,,,,,,,,,,,,,,,,,,,,,,,,,,,,,818564,001,2022-11-07_11h02.19.484,Info_measure_main_exp,2022.2.2,144.66336824602325,
5,1,131,5,5,1,2166,present_patch/cong_131_5_a.jpg,absent_patch/patch0002166.jpg,masks/mask_005.jpg,,,,,,,,,,,,,0,12,12,4,0,2,2,4,,,,,,,,,,,,,,,,,,,,,,,,,,,,,,,,,,,,,,,,,,,,,,,,,,,,,,,,,,,,,,,,,,,,,,,,,,,,,,,,,,,,,,,,,,,,,,818564,001,2022-11-07_11h02.19.484,Info_measure_main_exp,2022.2.2,144.66336824602325,
5,1,131,5,5,1,2166,present_patch/cong_131_5_a.jpg,absent_patch/patch0002166.jpg,masks/mask_002.jpg,,,,,,,,,,,,,0,12,12,4,0,3,3,1,,,,,,,,,,,,,,,,,,,,,,,,,,,,,,,,,,,,,,,,,,,,,,,,,,,,,,,,,,,,,,,,,,,,,,,,,,,,,,,,,,,,,,,,,,,,,,818564,001,2022-11-07_11h02.19.484,Info_measure_main_exp,2022.2.2,144.66336824602325,
5,1,131,5,5,1,2166,present_patch/cong_131_5_a.jpg,absent_patch/patch0002166.jpg,masks/mask_001.jpg,,,,,,,,,,,,,0,12,12,4,0,4,4,0,,,,,,,,,,,,,,,,,,,,,,,,,,,,,,,,,,,,,,,,,,,,,,,,,,,,,,,,,,,,,,,,,,,,,,,,,,,,,,,,,,,,,,,,,,,,,,818564,001,2022-11-07_11h02.19.484,Info_measure_main_exp,2022.2.2,144.66336824602325,
5,1,131,5,5,1,2166,present_patch/cong_131_5_a.jpg,absent_patch/patch0002166.jpg,masks/mask_003.jpg,,,,,,,,,,,,,0,12,12,4,,,,,0,0,0,2,,,,,,,,,,,,,,,,,,,,,,,,,,,,,,,,,,,,,,,,,,,,,,,,,,,,,,,,,,,,,,,,,,,,,,,,,,,,,,,,,101.73752689996036,101.89147410000442,,,,,,,,818564,001,2022-11-07_11h02.19.484,Info_measure_main_exp,2022.2.2,144.66336824602325,
5,1,131,5,5,1,2166,present_patch/cong_131_5_a.jpg,absent_patch/patch0002166.jpg,masks/mask_005.jpg,,,,,,,,,,,,,0,12,12,4,,,,,0,1,1,4,,,,,,,,,,,,,,,,,,,,,,,,,,,,,,,,,,,,,,,,,,,,,,,,,,,,,,,,,,,,,,,,,,,,,,,,,,,,,,,,,,,,,,,,,,818564,001,2022-11-07_11h02.19.484,Info_measure_main_exp,2022.2.2,144.66336824602325,
5,1,131,5,5,1,2166,present_patch/cong_131_5_a.jpg,absent_patch/patch0002166.jpg,masks/mask_002.jpg,,,,,,,,,,,,,0,12,12,4,,,,,0,2,2,1,,,,,,,,,,,,,,,,,,,,,,,,,,,,,,,,,,,,,,,,,,,,,,,,,,,,,,,,,,,,,,,,,,,,,,,,,,,,,,,,,,,,,,,,,,818564,001,2022-11-07_11h02.19.484,Info_measure_main_exp,2022.2.2,144.66336824602325,
5,1,131,5,5,1,2166,present_patch/cong_131_5_a.jpg,absent_patch/patch0002166.jpg,masks/mask_001.jpg,,,,,,,,,,,,,0,12,12,4,,,,,0,3,3,0,,,,,,,,,,,,,,,,,,,,,,,,,,,,,,,,,,,,,,,,,,,,,,,,,,,,,,,,,,,,,,,,,,,,,,,,,,,,,,,,,,,,,,,,,,818564,001,2022-11-07_11h02.19.484,Info_measure_main_exp,2022.2.2,144.66336824602325,
5,1,131,5,5,1,2166,present_patch/cong_131_5_a.jpg,absent_patch/patch0002166.jpg,masks/mask_004.jpg,,,,,,,,,,,,,0,12,12,4,,,,,0,4,4,3,,,,,,,,,,,,,,,,,,,,,,,,,,,,,,,,,,,,,,,,,,,,,,,,,,,,,,,,,,,,,,,,,,,,,,,,,,,,,,,,,,,,,,,,,,818564,001,2022-11-07_11h02.19.484,Info_measure_main_exp,2022.2.2,144.66336824602325,
5,1,131,5,5,1,2166,present_patch/cong_131_5_a.jpg,absent_patch/patch0002166.jpg,,,,,,,,,,,,,,0,12,12,4,,,,,,,,,,,,,,,,,,,,,,,,,,,,,,,,,,,,,,,,,,,,,,,,,,,,,,,0.005681100010406226,102.19384459999856,-0.062037037037037036,-0.17407407407407408,1,0,0,response5disk,3,1.333867100009229,1,,,,,1.6900012269616127e-05,0.008333333333333333,-0.002777777777777778,1,0,0,center_square_2,,,,,,,,,,,,,,,,,,,,,,818564,001,2022-11-07_11h02.19.484,Info_measure_main_exp,2022.2.2,144.66336824602325,
14,1,131,5,5,1974,1,absent_patch/patch0001974.jpg,present_patch/cong_131_5_a.jpg,masks/mask_004.jpg,,,,,,,,,,,,,0,13,13,13,0,0,0,3,,,,,,,,,,,,,,,,,,,,,,,,,,,,,,,,,,,,,,,,,,,,,,,,,,,,,,,,,,,,,,,,,,,,,,,,,,,,,,,,,,,104.65251300000818,104.8125308000017,,,,,,,,,,818564,001,2022-11-07_11h02.19.484,Info_measure_main_exp,2022.2.2,144.66336824602325,
14,1,131,5,5,1974,1,absent_patch/patch0001974.jpg,present_patch/cong_131_5_a.jpg,masks/mask_001.jpg,,,,,,,,,,,,,0,13,13,13,0,1,1,0,,,,,,,,,,,,,,,,,,,,,,,,,,,,,,,,,,,,,,,,,,,,,,,,,,,,,,,,,,,,,,,,,,,,,,,,,,,,,,,,,,,,,,,,,,,,,,818564,001,2022-11-07_11h02.19.484,Info_measure_main_exp,2022.2.2,144.66336824602325,
14,1,131,5,5,1974,1,absent_patch/patch0001974.jpg,present_patch/cong_131_5_a.jpg,masks/mask_002.jpg,,,,,,,,,,,,,0,13,13,13,0,2,2,1,,,,,,,,,,,,,,,,,,,,,,,,,,,,,,,,,,,,,,,,,,,,,,,,,,,,,,,,,,,,,,,,,,,,,,,,,,,,,,,,,,,,,,,,,,,,,,818564,001,2022-11-07_11h02.19.484,Info_measure_main_exp,2022.2.2,144.66336824602325,
14,1,131,5,5,1974,1,absent_patch/patch0001974.jpg,present_patch/cong_131_5_a.jpg,masks/mask_005.jpg,,,,,,,,,,,,,0,13,13,13,0,3,3,4,,,,,,,,,,,,,,,,,,,,,,,,,,,,,,,,,,,,,,,,,,,,,,,,,,,,,,,,,,,,,,,,,,,,,,,,,,,,,,,,,,,,,,,,,,,,,,818564,001,2022-11-07_11h02.19.484,Info_measure_main_exp,2022.2.2,144.66336824602325,
14,1,131,5,5,1974,1,absent_patch/patch0001974.jpg,present_patch/cong_131_5_a.jpg,masks/mask_003.jpg,,,,,,,,,,,,,0,13,13,13,0,4,4,2,,,,,,,,,,,,,,,,,,,,,,,,,,,,,,,,,,,,,,,,,,,,,,,,,,,,,,,,,,,,,,,,,,,,,,,,,,,,,,,,,,,,,,,,,,,,,,818564,001,2022-11-07_11h02.19.484,Info_measure_main_exp,2022.2.2,144.66336824602325,
14,1,131,5,5,1974,1,absent_patch/patch0001974.jpg,present_patch/cong_131_5_a.jpg,masks/mask_004.jpg,,,,,,,,,,,,,0,13,13,13,,,,,0,0,0,3,,,,,,,,,,,,,,,,,,,,,,,,,,,,,,,,,,,,,,,,,,,,,,,,,,,,,,,,,,,,,,,,,,,,,,,,,,,,,,,,,105.60388399998192,105.75968279998051,,,,,,,,818564,001,2022-11-07_11h02.19.484,Info_measure_main_exp,2022.2.2,144.66336824602325,
14,1,131,5,5,1974,1,absent_patch/patch0001974.jpg,present_patch/cong_131_5_a.jpg,masks/mask_002.jpg,,,,,,,,,,,,,0,13,13,13,,,,,0,1,1,1,,,,,,,,,,,,,,,,,,,,,,,,,,,,,,,,,,,,,,,,,,,,,,,,,,,,,,,,,,,,,,,,,,,,,,,,,,,,,,,,,,,,,,,,,,818564,001,2022-11-07_11h02.19.484,Info_measure_main_exp,2022.2.2,144.66336824602325,
14,1,131,5,5,1974,1,absent_patch/patch0001974.jpg,present_patch/cong_131_5_a.jpg,masks/mask_003.jpg,,,,,,,,,,,,,0,13,13,13,,,,,0,2,2,2,,,,,,,,,,,,,,,,,,,,,,,,,,,,,,,,,,,,,,,,,,,,,,,,,,,,,,,,,,,,,,,,,,,,,,,,,,,,,,,,,,,,,,,,,,818564,001,2022-11-07_11h02.19.484,Info_measure_main_exp,2022.2.2,144.66336824602325,
14,1,131,5,5,1974,1,absent_patch/patch0001974.jpg,present_patch/cong_131_5_a.jpg,masks/mask_005.jpg,,,,,,,,,,,,,0,13,13,13,,,,,0,3,3,4,,,,,,,,,,,,,,,,,,,,,,,,,,,,,,,,,,,,,,,,,,,,,,,,,,,,,,,,,,,,,,,,,,,,,,,,,,,,,,,,,,,,,,,,,,818564,001,2022-11-07_11h02.19.484,Info_measure_main_exp,2022.2.2,144.66336824602325,
14,1,131,5,5,1974,1,absent_patch/patch0001974.jpg,present_patch/cong_131_5_a.jpg,masks/mask_001.jpg,,,,,,,,,,,,,0,13,13,13,,,,,0,4,4,0,,,,,,,,,,,,,,,,,,,,,,,,,,,,,,,,,,,,,,,,,,,,,,,,,,,,,,,,,,,,,,,,,,,,,,,,,,,,,,,,,,,,,,,,,,818564,001,2022-11-07_11h02.19.484,Info_measure_main_exp,2022.2.2,144.66336824602325,
14,1,131,5,5,1974,1,absent_patch/patch0001974.jpg,present_patch/cong_131_5_a.jpg,,,,,,,,,,,,,,0,13,13,13,,,,,,,,,,,,,,,,,,,,,,,,,,,,,,,,,,,,,,,,,,,,,,,,,,,,,,,0.00577240000711754,106.06176149996463,0.023148148148148147,0.12685185185185185,1,0,0,response1disk,7,0.8692527000093833,1,,,,,1.6300007700920105e-05,0.000925925925925926,0.001851851851851852,1,0,0,center_square_2,,,,,,,,,,,,,,,,,,,,,,818564,001,2022-11-07_11h02.19.484,Info_measure_main_exp,2022.2.2,144.66336824602325,
12,1,131,5,5,1,2238,present_patch/cong_131_5_a.jpg,absent_patch/patch0002238.jpg,masks/mask_003.jpg,,,,,,,,,,,,,0,14,14,11,0,0,0,2,,,,,,,,,,,,,,,,,,,,,,,,,,,,,,,,,,,,,,,,,,,,,,,,,,,,,,,,,,,,,,,,,,,,,,,,,,,,,,,,,,,108.06904509995366,108.22938360000262,,,,,,,,,,818564,001,2022-11-07_11h02.19.484,Info_measure_main_exp,2022.2.2,144.66336824602325,
12,1,131,5,5,1,2238,present_patch/cong_131_5_a.jpg,absent_patch/patch0002238.jpg,masks/mask_002.jpg,,,,,,,,,,,,,0,14,14,11,0,1,1,1,,,,,,,,,,,,,,,,,,,,,,,,,,,,,,,,,,,,,,,,,,,,,,,,,,,,,,,,,,,,,,,,,,,,,,,,,,,,,,,,,,,,,,,,,,,,,,818564,001,2022-11-07_11h02.19.484,Info_measure_main_exp,2022.2.2,144.66336824602325,
12,1,131,5,5,1,2238,present_patch/cong_131_5_a.jpg,absent_patch/patch0002238.jpg,masks/mask_004.jpg,,,,,,,,,,,,,0,14,14,11,0,2,2,3,,,,,,,,,,,,,,,,,,,,,,,,,,,,,,,,,,,,,,,,,,,,,,,,,,,,,,,,,,,,,,,,,,,,,,,,,,,,,,,,,,,,,,,,,,,,,,818564,001,2022-11-07_11h02.19.484,Info_measure_main_exp,2022.2.2,144.66336824602325,
12,1,131,5,5,1,2238,present_patch/cong_131_5_a.jpg,absent_patch/patch0002238.jpg,masks/mask_005.jpg,,,,,,,,,,,,,0,14,14,11,0,3,3,4,,,,,,,,,,,,,,,,,,,,,,,,,,,,,,,,,,,,,,,,,,,,,,,,,,,,,,,,,,,,,,,,,,,,,,,,,,,,,,,,,,,,,,,,,,,,,,818564,001,2022-11-07_11h02.19.484,Info_measure_main_exp,2022.2.2,144.66336824602325,
12,1,131,5,5,1,2238,present_patch/cong_131_5_a.jpg,absent_patch/patch0002238.jpg,masks/mask_001.jpg,,,,,,,,,,,,,0,14,14,11,0,4,4,0,,,,,,,,,,,,,,,,,,,,,,,,,,,,,,,,,,,,,,,,,,,,,,,,,,,,,,,,,,,,,,,,,,,,,,,,,,,,,,,,,,,,,,,,,,,,,,818564,001,2022-11-07_11h02.19.484,Info_measure_main_exp,2022.2.2,144.66336824602325,
12,1,131,5,5,1,2238,present_patch/cong_131_5_a.jpg,absent_patch/patch0002238.jpg,masks/mask_003.jpg,,,,,,,,,,,,,0,14,14,11,,,,,0,0,0,2,,,,,,,,,,,,,,,,,,,,,,,,,,,,,,,,,,,,,,,,,,,,,,,,,,,,,,,,,,,,,,,,,,,,,,,,,,,,,,,,,109.02074059995357,109.17588429996977,,,,,,,,818564,001,2022-11-07_11h02.19.484,Info_measure_main_exp,2022.2.2,144.66336824602325,
12,1,131,5,5,1,2238,present_patch/cong_131_5_a.jpg,absent_patch/patch0002238.jpg,masks/mask_004.jpg,,,,,,,,,,,,,0,14,14,11,,,,,0,1,1,3,,,,,,,,,,,,,,,,,,,,,,,,,,,,,,,,,,,,,,,,,,,,,,,,,,,,,,,,,,,,,,,,,,,,,,,,,,,,,,,,,,,,,,,,,,818564,001,2022-11-07_11h02.19.484,Info_measure_main_exp,2022.2.2,144.66336824602325,
12,1,131,5,5,1,2238,present_patch/cong_131_5_a.jpg,absent_patch/patch0002238.jpg,masks/mask_002.jpg,,,,,,,,,,,,,0,14,14,11,,,,,0,2,2,1,,,,,,,,,,,,,,,,,,,,,,,,,,,,,,,,,,,,,,,,,,,,,,,,,,,,,,,,,,,,,,,,,,,,,,,,,,,,,,,,,,,,,,,,,,818564,001,2022-11-07_11h02.19.484,Info_measure_main_exp,2022.2.2,144.66336824602325,
12,1,131,5,5,1,2238,present_patch/cong_131_5_a.jpg,absent_patch/patch0002238.jpg,masks/mask_005.jpg,,,,,,,,,,,,,0,14,14,11,,,,,0,3,3,4,,,,,,,,,,,,,,,,,,,,,,,,,,,,,,,,,,,,,,,,,,,,,,,,,,,,,,,,,,,,,,,,,,,,,,,,,,,,,,,,,,,,,,,,,,818564,001,2022-11-07_11h02.19.484,Info_measure_main_exp,2022.2.2,144.66336824602325,
12,1,131,5,5,1,2238,present_patch/cong_131_5_a.jpg,absent_patch/patch0002238.jpg,masks/mask_001.jpg,,,,,,,,,,,,,0,14,14,11,,,,,0,4,4,0,,,,,,,,,,,,,,,,,,,,,,,,,,,,,,,,,,,,,,,,,,,,,,,,,,,,,,,,,,,,,,,,,,,,,,,,,,,,,,,,,,,,,,,,,,818564,001,2022-11-07_11h02.19.484,Info_measure_main_exp,2022.2.2,144.66336824602325,
12,1,131,5,5,1,2238,present_patch/cong_131_5_a.jpg,absent_patch/patch0002238.jpg,,,,,,,,,,,,,,0,14,14,11,,,,,,,,,,,,,,,,,,,,,,,,,,,,,,,,,,,,,,,,,,,,,,,,,,,,,,,0.005860000033862889,109.47909419995267,0.07962962962962963,-0.13425925925925927,1,0,0,response3disk,4,2.2926993999863043,1,,,,,1.629994949325919e-05,-0.000925925925925926,0.000925925925925926,1,0,0,center_square_2,,,,,,,,,,,,,,,,,,,,,,818564,001,2022-11-07_11h02.19.484,Info_measure_main_exp,2022.2.2,144.66336824602325,
,,,,,,,,,,,,,,,,,,,,,,,,,,,,,,,,,,,,,,,,,,,,,,,,,,,,,,,,,,,,,,,,,,,,,,,,,,,,,,,,,,,,,,,,,,,,,,,,,,,,,,,,,,,,,,,,,,,,112.31931079999777,112.31931079999777,space,1.7577802000450902,,,,818564,001,2022-11-07_11h02.19.484,Info_measure_main_exp,2022.2.2,144.66336824602325,
10,0,131,5,5,1974,2166,absent_patch/patch0001974.jpg,absent_patch/patch0002166.jpg,masks/mask_001.jpg,,,,,,,,,,,,,,,,,,,,,,,,,0,0,0,9,0,0,0,0,,,,,,,,,,,,,,,,,,,,,,,,,,,,,,,,,,,,,,,,,,,,,,,,,,,,,,,,,,,,,,,,,,,,,,,,,114.5902677999693,114.74536010000156,,,,,,,,818564,001,2022-11-07_11h02.19.484,Info_measure_main_exp,2022.2.2,144.66336824602325,
10,0,131,5,5,1974,2166,absent_patch/patch0001974.jpg,absent_patch/patch0002166.jpg,masks/mask_004.jpg,,,,,,,,,,,,,,,,,,,,,,,,,0,0,0,9,0,1,1,3,,,,,,,,,,,,,,,,,,,,,,,,,,,,,,,,,,,,,,,,,,,,,,,,,,,,,,,,,,,,,,,,,,,,,,,,,,,,,,,,,,818564,001,2022-11-07_11h02.19.484,Info_measure_main_exp,2022.2.2,144.66336824602325,
10,0,131,5,5,1974,2166,absent_patch/patch0001974.jpg,absent_patch/patch0002166.jpg,masks/mask_005.jpg,,,,,,,,,,,,,,,,,,,,,,,,,0,0,0,9,0,2,2,4,,,,,,,,,,,,,,,,,,,,,,,,,,,,,,,,,,,,,,,,,,,,,,,,,,,,,,,,,,,,,,,,,,,,,,,,,,,,,,,,,,818564,001,2022-11-07_11h02.19.484,Info_measure_main_exp,2022.2.2,144.66336824602325,
10,0,131,5,5,1974,2166,absent_patch/patch0001974.jpg,absent_patch/patch0002166.jpg,masks/mask_003.jpg,,,,,,,,,,,,,,,,,,,,,,,,,0,0,0,9,0,3,3,2,,,,,,,,,,,,,,,,,,,,,,,,,,,,,,,,,,,,,,,,,,,,,,,,,,,,,,,,,,,,,,,,,,,,,,,,,,,,,,,,,,818564,001,2022-11-07_11h02.19.484,Info_measure_main_exp,2022.2.2,144.66336824602325,
10,0,131,5,5,1974,2166,absent_patch/patch0001974.jpg,absent_patch/patch0002166.jpg,masks/mask_002.jpg,,,,,,,,,,,,,,,,,,,,,,,,,0,0,0,9,0,4,4,1,,,,,,,,,,,,,,,,,,,,,,,,,,,,,,,,,,,,,,,,,,,,,,,,,,,,,,,,,,,,,,,,,,,,,,,,,,,,,,,,,,818564,001,2022-11-07_11h02.19.484,Info_measure_main_exp,2022.2.2,144.66336824602325,
10,0,131,5,5,1974,2166,absent_patch/patch0001974.jpg,absent_patch/patch0002166.jpg,masks/mask_003.jpg,,,,,,,,,,,,,,,,,,,,,,,,,0,0,0,9,,,,,0,0,0,2,,,,,,,,,,,,,,,,,,,,,,,,,,,,,,,,,,,,,,,,,,,,,,,,,,,,,,,,,,,,,,,,,,,115.54134179995162,115.69731869996758,,,,,,,,,,818564,001,2022-11-07_11h02.19.484,Info_measure_main_exp,2022.2.2,144.66336824602325,
10,0,131,5,5,1974,2166,absent_patch/patch0001974.jpg,absent_patch/patch0002166.jpg,masks/mask_002.jpg,,,,,,,,,,,,,,,,,,,,,,,,,0,0,0,9,,,,,0,1,1,1,,,,,,,,,,,,,,,,,,,,,,,,,,,,,,,,,,,,,,,,,,,,,,,,,,,,,,,,,,,,,,,,,,,,,,,,,,,,,,818564,001,2022-11-07_11h02.19.484,Info_measure_main_exp,2022.2.2,144.66336824602325,
10,0,131,5,5,1974,2166,absent_patch/patch0001974.jpg,absent_patch/patch0002166.jpg,masks/mask_005.jpg,,,,,,,,,,,,,,,,,,,,,,,,,0,0,0,9,,,,,0,2,2,4,,,,,,,,,,,,,,,,,,,,,,,,,,,,,,,,,,,,,,,,,,,,,,,,,,,,,,,,,,,,,,,,,,,,,,,,,,,,,,818564,001,2022-11-07_11h02.19.484,Info_measure_main_exp,2022.2.2,144.66336824602325,
10,0,131,5,5,1974,2166,absent_patch/patch0001974.jpg,absent_patch/patch0002166.jpg,masks/mask_004.jpg,,,,,,,,,,,,,,,,,,,,,,,,,0,0,0,9,,,,,0,3,3,3,,,,,,,,,,,,,,,,,,,,,,,,,,,,,,,,,,,,,,,,,,,,,,,,,,,,,,,,,,,,,,,,,,,,,,,,,,,,,,818564,001,2022-11-07_11h02.19.484,Info_measure_main_exp,2022.2.2,144.66336824602325,
10,0,131,5,5,1974,2166,absent_patch/patch0001974.jpg,absent_patch/patch0002166.jpg,masks/mask_001.jpg,,,,,,,,,,,,,,,,,,,,,,,,,0,0,0,9,,,,,0,4,4,0,,,,,,,,,,,,,,,,,,,,,,,,,,,,,,,,,,,,,,,,,,,,,,,,,,,,,,,,,,,,,,,,,,,,,,,,,,,,,,818564,001,2022-11-07_11h02.19.484,Info_measure_main_exp,2022.2.2,144.66336824602325,
10,0,131,5,5,1974,2166,absent_patch/patch0001974.jpg,absent_patch/patch0002166.jpg,,,,,,,,,,,,,,,,,,,,,,,,,,0,0,0,9,,,,,,,,,,,,,,,,,,,,,,,,,,,,,,,,,,,,,,,,,,,0.006348900031298399,115.99935299996287,0.032407407407407406,0.09259259259259259,1,0,0,response1disk,7,1.216366000007838,1,,,,,1.6200006939470768e-05,-0.001851851851851852,-0.002777777777777778,1,0,0,center_square_2,,,,,,,,,,,,,,,,,,,,,,818564,001,2022-11-07_11h02.19.484,Info_measure_main_exp,2022.2.2,144.66336824602325,
4,0,131,5,5,2238,1950,absent_patch/patch0002238.jpg,absent_patch/patch0001950.jpg,masks/mask_001.jpg,,,,,,,,,,,,,,,,,,,,,,,,,0,1,1,3,0,0,0,0,,,,,,,,,,,,,,,,,,,,,,,,,,,,,,,,,,,,,,,,,,,,,,,,,,,,,,,,,,,,,,,,,,,,,,,,,118.22222140000667,118.38188259996241,,,,,,,,818564,001,2022-11-07_11h02.19.484,Info_measure_main_exp,2022.2.2,144.66336824602325,
4,0,131,5,5,2238,1950,absent_patch/patch0002238.jpg,absent_patch/patch0001950.jpg,masks/mask_002.jpg,,,,,,,,,,,,,,,,,,,,,,,,,0,1,1,3,0,1,1,1,,,,,,,,,,,,,,,,,,,,,,,,,,,,,,,,,,,,,,,,,,,,,,,,,,,,,,,,,,,,,,,,,,,,,,,,,,,,,,,,,,818564,001,2022-11-07_11h02.19.484,Info_measure_main_exp,2022.2.2,144.66336824602325,
4,0,131,5,5,2238,1950,absent_patch/patch0002238.jpg,absent_patch/patch0001950.jpg,masks/mask_004.jpg,,,,,,,,,,,,,,,,,,,,,,,,,0,1,1,3,0,2,2,3,,,,,,,,,,,,,,,,,,,,,,,,,,,,,,,,,,,,,,,,,,,,,,,,,,,,,,,,,,,,,,,,,,,,,,,,,,,,,,,,,,818564,001,2022-11-07_11h02.19.484,Info_measure_main_exp,2022.2.2,144.66336824602325,
4,0,131,5,5,2238,1950,absent_patch/patch0002238.jpg,absent_patch/patch0001950.jpg,masks/mask_003.jpg,,,,,,,,,,,,,,,,,,,,,,,,,0,1,1,3,0,3,3,2,,,,,,,,,,,,,,,,,,,,,,,,,,,,,,,,,,,,,,,,,,,,,,,,,,,,,,,,,,,,,,,,,,,,,,,,,,,,,,,,,,818564,001,2022-11-07_11h02.19.484,Info_measure_main_exp,2022.2.2,144.66336824602325,
4,0,131,5,5,2238,1950,absent_patch/patch0002238.jpg,absent_patch/patch0001950.jpg,masks/mask_005.jpg,,,,,,,,,,,,,,,,,,,,,,,,,0,1,1,3,0,4,4,4,,,,,,,,,,,,,,,,,,,,,,,,,,,,,,,,,,,,,,,,,,,,,,,,,,,,,,,,,,,,,,,,,,,,,,,,,,,,,,,,,,818564,001,2022-11-07_11h02.19.484,Info_measure_main_exp,2022.2.2,144.66336824602325,
4,0,131,5,5,2238,1950,absent_patch/patch0002238.jpg,absent_patch/patch0001950.jpg,masks/mask_001.jpg,,,,,,,,,,,,,,,,,,,,,,,,,0,1,1,3,,,,,0,0,0,0,,,,,,,,,,,,,,,,,,,,,,,,,,,,,,,,,,,,,,,,,,,,,,,,,,,,,,,,,,,,,,,,,,,119.17328799999086,119.32877629995346,,,,,,,,,,818564,001,2022-11-07_11h02.19.484,Info_measure_main_exp,2022.2.2,144.66336824602325,
4,0,131,5,5,2238,1950,absent_patch/patch0002238.jpg,absent_patch/patch0001950.jpg,masks/mask_005.jpg,,,,,,,,,,,,,,,,,,,,,,,,,0,1,1,3,,,,,0,1,1,4,,,,,,,,,,,,,,,,,,,,,,,,,,,,,,,,,,,,,,,,,,,,,,,,,,,,,,,,,,,,,,,,,,,,,,,,,,,,,,818564,001,2022-11-07_11h02.19.484,Info_measure_main_exp,2022.2.2,144.66336824602325,
4,0,131,5,5,2238,1950,absent_patch/patch0002238.jpg,absent_patch/patch0001950.jpg,masks/mask_003.jpg,,,,,,,,,,,,,,,,,,,,,,,,,0,1,1,3,,,,,0,2,2,2,,,,,,,,,,,,,,,,,,,,,,,,,,,,,,,,,,,,,,,,,,,,,,,,,,,,,,,,,,,,,,,,,,,,,,,,,,,,,,818564,001,2022-11-07_11h02.19.484,Info_measure_main_exp,2022.2.2,144.66336824602325,
4,0,131,5,5,2238,1950,absent_patch/patch0002238.jpg,absent_patch/patch0001950.jpg,masks/mask_002.jpg,,,,,,,,,,,,,,,,,,,,,,,,,0,1,1,3,,,,,0,3,3,1,,,,,,,,,,,,,,,,,,,,,,,,,,,,,,,,,,,,,,,,,,,,,,,,,,,,,,,,,,,,,,,,,,,,,,,,,,,,,,818564,001,2022-11-07_11h02.19.484,Info_measure_main_exp,2022.2.2,144.66336824602325,
4,0,131,5,5,2238,1950,absent_patch/patch0002238.jpg,absent_patch/patch0001950.jpg,masks/mask_004.jpg,,,,,,,,,,,,,,,,,,,,,,,,,0,1,1,3,,,,,0,4,4,3,,,,,,,,,,,,,,,,,,,,,,,,,,,,,,,,,,,,,,,,,,,,,,,,,,,,,,,,,,,,,,,,,,,,,,,,,,,,,,818564,001,2022-11-07_11h02.19.484,Info_measure_main_exp,2022.2.2,144.66336824602325,
4,0,131,5,5,2238,1950,absent_patch/patch0002238.jpg,absent_patch/patch0001950.jpg,,,,,,,,,,,,,,,,,,,,,,,,,,0,1,1,3,,,,,,,,,,,,,,,,,,,,,,,,,,,,,,,,,,,,,,,,,,,0.005828799970913678,119.6311705999542,0.1111111111111111,-0.07314814814814814,1,0,0,response3disk,5,0.903667000005953,1,,,,,1.8000020645558834e-05,0.007407407407407408,0.006481481481481481,1,0,0,center_square_2,,,,,,,,,,,,,,,,,,,,,,818564,001,2022-11-07_11h02.19.484,Info_measure_main_exp,2022.2.2,144.66336824602325,
14,1,131,5,5,1974,1,absent_patch/patch0001974.jpg,present_patch/cong_131_5_a.jpg,masks/mask_005.jpg,,,,,,,,,,,,,,,,,,,,,,,,,0,2,2,13,0,0,0,4,,,,,,,,,,,,,,,,,,,,,,,,,,,,,,,,,,,,,,,,,,,,,,,,,,,,,,,,,,,,,,,,,,,,,,,,,121.47880489996169,121.63909630000126,,,,,,,,818564,001,2022-11-07_11h02.19.484,Info_measure_main_exp,2022.2.2,144.66336824602325,
14,1,131,5,5,1974,1,absent_patch/patch0001974.jpg,present_patch/cong_131_5_a.jpg,masks/mask_002.jpg,,,,,,,,,,,,,,,,,,,,,,,,,0,2,2,13,0,1,1,1,,,,,,,,,,,,,,,,,,,,,,,,,,,,,,,,,,,,,,,,,,,,,,,,,,,,,,,,,,,,,,,,,,,,,,,,,,,,,,,,,,818564,001,2022-11-07_11h02.19.484,Info_measure_main_exp,2022.2.2,144.66336824602325,
14,1,131,5,5,1974,1,absent_patch/patch0001974.jpg,present_patch/cong_131_5_a.jpg,masks/mask_001.jpg,,,,,,,,,,,,,,,,,,,,,,,,,0,2,2,13,0,2,2,0,,,,,,,,,,,,,,,,,,,,,,,,,,,,,,,,,,,,,,,,,,,,,,,,,,,,,,,,,,,,,,,,,,,,,,,,,,,,,,,,,,818564,001,2022-11-07_11h02.19.484,Info_measure_main_exp,2022.2.2,144.66336824602325,
14,1,131,5,5,1974,1,absent_patch/patch0001974.jpg,present_patch/cong_131_5_a.jpg,masks/mask_003.jpg,,,,,,,,,,,,,,,,,,,,,,,,,0,2,2,13,0,3,3,2,,,,,,,,,,,,,,,,,,,,,,,,,,,,,,,,,,,,,,,,,,,,,,,,,,,,,,,,,,,,,,,,,,,,,,,,,,,,,,,,,,818564,001,2022-11-07_11h02.19.484,Info_measure_main_exp,2022.2.2,144.66336824602325,
14,1,131,5,5,1974,1,absent_patch/patch0001974.jpg,present_patch/cong_131_5_a.jpg,masks/mask_004.jpg,,,,,,,,,,,,,,,,,,,,,,,,,0,2,2,13,0,4,4,3,,,,,,,,,,,,,,,,,,,,,,,,,,,,,,,,,,,,,,,,,,,,,,,,,,,,,,,,,,,,,,,,,,,,,,,,,,,,,,,,,,818564,001,2022-11-07_11h02.19.484,Info_measure_main_exp,2022.2.2,144.66336824602325,
14,1,131,5,5,1974,1,absent_patch/patch0001974.jpg,present_patch/cong_131_5_a.jpg,masks/mask_003.jpg,,,,,,,,,,,,,,,,,,,,,,,,,0,2,2,13,,,,,0,0,0,2,,,,,,,,,,,,,,,,,,,,,,,,,,,,,,,,,,,,,,,,,,,,,,,,,,,,,,,,,,,,,,,,,,,122.43023429997265,122.585881099978,,,,,,,,,,818564,001,2022-11-07_11h02.19.484,Info_measure_main_exp,2022.2.2,144.66336824602325,
14,1,131,5,5,1974,1,absent_patch/patch0001974.jpg,present_patch/cong_131_5_a.jpg,masks/mask_005.jpg,,,,,,,,,,,,,,,,,,,,,,,,,0,2,2,13,,,,,0,1,1,4,,,,,,,,,,,,,,,,,,,,,,,,,,,,,,,,,,,,,,,,,,,,,,,,,,,,,,,,,,,,,,,,,,,,,,,,,,,,,,818564,001,2022-11-07_11h02.19.484,Info_measure_main_exp,2022.2.2,144.66336824602325,
14,1,131,5,5,1974,1,absent_patch/patch0001974.jpg,present_patch/cong_131_5_a.jpg,masks/mask_002.jpg,,,,,,,,,,,,,,,,,,,,,,,,,0,2,2,13,,,,,0,2,2,1,,,,,,,,,,,,,,,,,,,,,,,,,,,,,,,,,,,,,,,,,,,,,,,,,,,,,,,,,,,,,,,,,,,,,,,,,,,,,,818564,001,2022-11-07_11h02.19.484,Info_measure_main_exp,2022.2.2,144.66336824602325,
14,1,131,5,5,1974,1,absent_patch/patch0001974.jpg,present_patch/cong_131_5_a.jpg,masks/mask_004.jpg,,,,,,,,,,,,,,,,,,,,,,,,,0,2,2,13,,,,,0,3,3,3,,,,,,,,,,,,,,,,,,,,,,,,,,,,,,,,,,,,,,,,,,,,,,,,,,,,,,,,,,,,,,,,,,,,,,,,,,,,,,818564,001,2022-11-07_11h02.19.484,Info_measure_main_exp,2022.2.2,144.66336824602325,
14,1,131,5,5,1974,1,absent_patch/patch0001974.jpg,present_patch/cong_131_5_a.jpg,masks/mask_001.jpg,,,,,,,,,,,,,,,,,,,,,,,,,0,2,2,13,,,,,0,4,4,0,,,,,,,,,,,,,,,,,,,,,,,,,,,,,,,,,,,,,,,,,,,,,,,,,,,,,,,,,,,,,,,,,,,,,,,,,,,,,,818564,001,2022-11-07_11h02.19.484,Info_measure_main_exp,2022.2.2,144.66336824602325,
14,1,131,5,5,1974,1,absent_patch/patch0001974.jpg,present_patch/cong_131_5_a.jpg,,,,,,,,,,,,,,,,,,,,,,,,,,0,2,2,13,,,,,,,,,,,,,,,,,,,,,,,,,,,,,,,,,,,,,,,,,,,0.006357399979606271,122.88824649999151,0.04537037037037037,0.1037037037037037,1,0,0,response1disk,7,1.063144400017336,1,,,,,1.6700010746717453e-05,-0.003703703703703704,-0.000925925925925926,1,0,0,center_square_2,,,,,,,,,,,,,,,,,,,,,,818564,001,2022-11-07_11h02.19.484,Info_measure_main_exp,2022.2.2,144.66336824602325,
13,1,131,5,5,1950,1,absent_patch/patch0001950.jpg,present_patch/cong_131_5_a.jpg,masks/mask_001.jpg,,,,,,,,,,,,,,,,,,,,,,,,,0,3,3,12,0,0,0,0,,,,,,,,,,,,,,,,,,,,,,,,,,,,,,,,,,,,,,,,,,,,,,,,,,,,,,,,,,,,,,,,,,,,,,,,,124.90934710000874,125.06964999996126,,,,,,,,818564,001,2022-11-07_11h02.19.484,Info_measure_main_exp,2022.2.2,144.66336824602325,
13,1,131,5,5,1950,1,absent_patch/patch0001950.jpg,present_patch/cong_131_5_a.jpg,masks/mask_003.jpg,,,,,,,,,,,,,,,,,,,,,,,,,0,3,3,12,0,1,1,2,,,,,,,,,,,,,,,,,,,,,,,,,,,,,,,,,,,,,,,,,,,,,,,,,,,,,,,,,,,,,,,,,,,,,,,,,,,,,,,,,,818564,001,2022-11-07_11h02.19.484,Info_measure_main_exp,2022.2.2,144.66336824602325,
13,1,131,5,5,1950,1,absent_patch/patch0001950.jpg,present_patch/cong_131_5_a.jpg,masks/mask_005.jpg,,,,,,,,,,,,,,,,,,,,,,,,,0,3,3,12,0,2,2,4,,,,,,,,,,,,,,,,,,,,,,,,,,,,,,,,,,,,,,,,,,,,,,,,,,,,,,,,,,,,,,,,,,,,,,,,,,,,,,,,,,818564,001,2022-11-07_11h02.19.484,Info_measure_main_exp,2022.2.2,144.66336824602325,
13,1,131,5,5,1950,1,absent_patch/patch0001950.jpg,present_patch/cong_131_5_a.jpg,masks/mask_002.jpg,,,,,,,,,,,,,,,,,,,,,,,,,0,3,3,12,0,3,3,1,,,,,,,,,,,,,,,,,,,,,,,,,,,,,,,,,,,,,,,,,,,,,,,,,,,,,,,,,,,,,,,,,,,,,,,,,,,,,,,,,,818564,001,2022-11-07_11h02.19.484,Info_measure_main_exp,2022.2.2,144.66336824602325,
13,1,131,5,5,1950,1,absent_patch/patch0001950.jpg,present_patch/cong_131_5_a.jpg,masks/mask_004.jpg,,,,,,,,,,,,,,,,,,,,,,,,,0,3,3,12,0,4,4,3,,,,,,,,,,,,,,,,,,,,,,,,,,,,,,,,,,,,,,,,,,,,,,,,,,,,,,,,,,,,,,,,,,,,,,,,,,,,,,,,,,818564,001,2022-11-07_11h02.19.484,Info_measure_main_exp,2022.2.2,144.66336824602325,
13,1,131,5,5,1950,1,absent_patch/patch0001950.jpg,present_patch/cong_131_5_a.jpg,masks/mask_004.jpg,,,,,,,,,,,,,,,,,,,,,,,,,0,3,3,12,,,,,0,0,0,3,,,,,,,,,,,,,,,,,,,,,,,,,,,,,,,,,,,,,,,,,,,,,,,,,,,,,,,,,,,,,,,,,,,125.86079750000499,126.01604039996164,,,,,,,,,,818564,001,2022-11-07_11h02.19.484,Info_measure_main_exp,2022.2.2,144.66336824602325,
13,1,131,5,5,1950,1,absent_patch/patch0001950.jpg,present_patch/cong_131_5_a.jpg,masks/mask_005.jpg,,,,,,,,,,,,,,,,,,,,,,,,,0,3,3,12,,,,,0,1,1,4,,,,,,,,,,,,,,,,,,,,,,,,,,,,,,,,,,,,,,,,,,,,,,,,,,,,,,,,,,,,,,,,,,,,,,,,,,,,,,818564,001,2022-11-07_11h02.19.484,Info_measure_main_exp,2022.2.2,144.66336824602325,
13,1,131,5,5,1950,1,absent_patch/patch0001950.jpg,present_patch/cong_131_5_a.jpg,masks/mask_001.jpg,,,,,,,,,,,,,,,,,,,,,,,,,0,3,3,12,,,,,0,2,2,0,,,,,,,,,,,,,,,,,,,,,,,,,,,,,,,,,,,,,,,,,,,,,,,,,,,,,,,,,,,,,,,,,,,,,,,,,,,,,,818564,001,2022-11-07_11h02.19.484,Info_measure_main_exp,2022.2.2,144.66336824602325,
13,1,131,5,5,1950,1,absent_patch/patch0001950.jpg,present_patch/cong_131_5_a.jpg,masks/mask_003.jpg,,,,,,,,,,,,,,,,,,,,,,,,,0,3,3,12,,,,,0,3,3,2,,,,,,,,,,,,,,,,,,,,,,,,,,,,,,,,,,,,,,,,,,,,,,,,,,,,,,,,,,,,,,,,,,,,,,,,,,,,,,818564,001,2022-11-07_11h02.19.484,Info_measure_main_exp,2022.2.2,144.66336824602325,
13,1,131,5,5,1950,1,absent_patch/patch0001950.jpg,present_patch/cong_131_5_a.jpg,masks/mask_002.jpg,,,,,,,,,,,,,,,,,,,,,,,,,0,3,3,12,,,,,0,4,4,1,,,,,,,,,,,,,,,,,,,,,,,,,,,,,,,,,,,,,,,,,,,,,,,,,,,,,,,,,,,,,,,,,,,,,,,,,,,,,,818564,001,2022-11-07_11h02.19.484,Info_measure_main_exp,2022.2.2,144.66336824602325,
13,1,131,5,5,1950,1,absent_patch/patch0001950.jpg,present_patch/cong_131_5_a.jpg,,,,,,,,,,,,,,,,,,,,,,,,,,0,3,3,12,,,,,,,,,,,,,,,,,,,,,,,,,,,,,,,,,,,,,,,,,,,0.005699000030290335,126.3187229000032,0.14444444444444443,0.044444444444444446,1,0,0,response1disk,6,1.1819562999880873,1,,,,,1.6700010746717453e-05,-0.018518518518518517,0.000925925925925926,1,0,0,center_square_2,,,,,,,,,,,,,,,,,,,,,,818564,001,2022-11-07_11h02.19.484,Info_measure_main_exp,2022.2.2,144.66336824602325,
7,0,131,5,5,1986,2238,absent_patch/patch0001986.jpg,absent_patch/patch0002238.jpg,masks/mask_003.jpg,,,,,,,,,,,,,,,,,,,,,,,,,0,4,4,6,0,0,0,2,,,,,,,,,,,,,,,,,,,,,,,,,,,,,,,,,,,,,,,,,,,,,,,,,,,,,,,,,,,,,,,,,,,,,,,,,128.47921540000243,128.63914589997148,,,,,,,,818564,001,2022-11-07_11h02.19.484,Info_measure_main_exp,2022.2.2,144.66336824602325,
7,0,131,5,5,1986,2238,absent_patch/patch0001986.jpg,absent_patch/patch0002238.jpg,masks/mask_004.jpg,,,,,,,,,,,,,,,,,,,,,,,,,0,4,4,6,0,1,1,3,,,,,,,,,,,,,,,,,,,,,,,,,,,,,,,,,,,,,,,,,,,,,,,,,,,,,,,,,,,,,,,,,,,,,,,,,,,,,,,,,,818564,001,2022-11-07_11h02.19.484,Info_measure_main_exp,2022.2.2,144.66336824602325,
7,0,131,5,5,1986,2238,absent_patch/patch0001986.jpg,absent_patch/patch0002238.jpg,masks/mask_005.jpg,,,,,,,,,,,,,,,,,,,,,,,,,0,4,4,6,0,2,2,4,,,,,,,,,,,,,,,,,,,,,,,,,,,,,,,,,,,,,,,,,,,,,,,,,,,,,,,,,,,,,,,,,,,,,,,,,,,,,,,,,,818564,001,2022-11-07_11h02.19.484,Info_measure_main_exp,2022.2.2,144.66336824602325,
7,0,131,5,5,1986,2238,absent_patch/patch0001986.jpg,absent_patch/patch0002238.jpg,masks/mask_002.jpg,,,,,,,,,,,,,,,,,,,,,,,,,0,4,4,6,0,3,3,1,,,,,,,,,,,,,,,,,,,,,,,,,,,,,,,,,,,,,,,,,,,,,,,,,,,,,,,,,,,,,,,,,,,,,,,,,,,,,,,,,,818564,001,2022-11-07_11h02.19.484,Info_measure_main_exp,2022.2.2,144.66336824602325,
7,0,131,5,5,1986,2238,absent_patch/patch0001986.jpg,absent_patch/patch0002238.jpg,masks/mask_001.jpg,,,,,,,,,,,,,,,,,,,,,,,,,0,4,4,6,0,4,4,0,,,,,,,,,,,,,,,,,,,,,,,,,,,,,,,,,,,,,,,,,,,,,,,,,,,,,,,,,,,,,,,,,,,,,,,,,,,,,,,,,,818564,001,2022-11-07_11h02.19.484,Info_measure_main_exp,2022.2.2,144.66336824602325,
7,0,131,5,5,1986,2238,absent_patch/patch0001986.jpg,absent_patch/patch0002238.jpg,masks/mask_003.jpg,,,,,,,,,,,,,,,,,,,,,,,,,0,4,4,6,,,,,0,0,0,2,,,,,,,,,,,,,,,,,,,,,,,,,,,,,,,,,,,,,,,,,,,,,,,,,,,,,,,,,,,,,,,,,,,129.43013849999988,129.58578079997096,,,,,,,,,,818564,001,2022-11-07_11h02.19.484,Info_measure_main_exp,2022.2.2,144.66336824602325,
7,0,131,5,5,1986,2238,absent_patch/patch0001986.jpg,absent_patch/patch0002238.jpg,masks/mask_001.jpg,,,,,,,,,,,,,,,,,,,,,,,,,0,4,4,6,,,,,0,1,1,0,,,,,,,,,,,,,,,,,,,,,,,,,,,,,,,,,,,,,,,,,,,,,,,,,,,,,,,,,,,,,,,,,,,,,,,,,,,,,,818564,001,2022-11-07_11h02.19.484,Info_measure_main_exp,2022.2.2,144.66336824602325,
7,0,131,5,5,1986,2238,absent_patch/patch0001986.jpg,absent_patch/patch0002238.jpg,masks/mask_005.jpg,,,,,,,,,,,,,,,,,,,,,,,,,0,4,4,6,,,,,0,2,2,4,,,,,,,,,,,,,,,,,,,,,,,,,,,,,,,,,,,,,,,,,,,,,,,,,,,,,,,,,,,,,,,,,,,,,,,,,,,,,,818564,001,2022-11-07_11h02.19.484,Info_measure_main_exp,2022.2.2,144.66336824602325,
7,0,131,5,5,1986,2238,absent_patch/patch0001986.jpg,absent_patch/patch0002238.jpg,masks/mask_002.jpg,,,,,,,,,,,,,,,,,,,,,,,,,0,4,4,6,,,,,0,3,3,1,,,,,,,,,,,,,,,,,,,,,,,,,,,,,,,,,,,,,,,,,,,,,,,,,,,,,,,,,,,,,,,,,,,,,,,,,,,,,,818564,001,2022-11-07_11h02.19.484,Info_measure_main_exp,2022.2.2,144.66336824602325,
7,0,131,5,5,1986,2238,absent_patch/patch0001986.jpg,absent_patch/patch0002238.jpg,masks/mask_004.jpg,,,,,,,,,,,,,,,,,,,,,,,,,0,4,4,6,,,,,0,4,4,3,,,,,,,,,,,,,,,,,,,,,,,,,,,,,,,,,,,,,,,,,,,,,,,,,,,,,,,,,,,,,,,,,,,,,,,,,,,,,,818564,001,2022-11-07_11h02.19.484,Info_measure_main_exp,2022.2.2,144.66336824602325,
7,0,131,5,5,1986,2238,absent_patch/patch0001986.jpg,absent_patch/patch0002238.jpg,,,,,,,,,,,,,,,,,,,,,,,,,,0,4,4,6,,,,,,,,,,,,,,,,,,,,,,,,,,,,,,,,,,,,,,,,,,,0.0057622999884188175,129.88857339997776,0.016666666666666666,-0.17777777777777778,1,0,0,response3disk,4,1.8896491000195965,1,,,,,1.7200014553964138e-05,-0.010185185185185186,-0.007407407407407408,1,0,0,center_square_2,,,,,,,,,,,,,,,,,,,,,,818564,001,2022-11-07_11h02.19.484,Info_measure_main_exp,2022.2.2,144.66336824602325,
1,1,131,5,5,1986,1,absent_patch/patch0001986.jpg,present_patch/cong_131_5_a.jpg,masks/mask_004.jpg,,,,,,,,,,,,,,,,,,,,,,,,,0,5,5,0,0,0,0,3,,,,,,,,,,,,,,,,,,,,,,,,,,,,,,,,,,,,,,,,,,,,,,,,,,,,,,,,,,,,,,,,,,,,,,,,,132.91655769996578,133.07164799998282,,,,,,,,818564,001,2022-11-07_11h02.19.484,Info_measure_main_exp,2022.2.2,144.66336824602325,
1,1,131,5,5,1986,1,absent_patch/patch0001986.jpg,present_patch/cong_131_5_a.jpg,masks/mask_001.jpg,,,,,,,,,,,,,,,,,,,,,,,,,0,5,5,0,0,1,1,0,,,,,,,,,,,,,,,,,,,,,,,,,,,,,,,,,,,,,,,,,,,,,,,,,,,,,,,,,,,,,,,,,,,,,,,,,,,,,,,,,,818564,001,2022-11-07_11h02.19.484,Info_measure_main_exp,2022.2.2,144.66336824602325,
1,1,131,5,5,1986,1,absent_patch/patch0001986.jpg,present_patch/cong_131_5_a.jpg,masks/mask_005.jpg,,,,,,,,,,,,,,,,,,,,,,,,,0,5,5,0,0,2,2,4,,,,,,,,,,,,,,,,,,,,,,,,,,,,,,,,,,,,,,,,,,,,,,,,,,,,,,,,,,,,,,,,,,,,,,,,,,,,,,,,,,818564,001,2022-11-07_11h02.19.484,Info_measure_main_exp,2022.2.2,144.66336824602325,
1,1,131,5,5,1986,1,absent_patch/patch0001986.jpg,present_patch/cong_131_5_a.jpg,masks/mask_003.jpg,,,,,,,,,,,,,,,,,,,,,,,,,0,5,5,0,0,3,3,2,,,,,,,,,,,,,,,,,,,,,,,,,,,,,,,,,,,,,,,,,,,,,,,,,,,,,,,,,,,,,,,,,,,,,,,,,,,,,,,,,,818564,001,2022-11-07_11h02.19.484,Info_measure_main_exp,2022.2.2,144.66336824602325,
1,1,131,5,5,1986,1,absent_patch/patch0001986.jpg,present_patch/cong_131_5_a.jpg,masks/mask_002.jpg,,,,,,,,,,,,,,,,,,,,,,,,,0,5,5,0,0,4,4,1,,,,,,,,,,,,,,,,,,,,,,,,,,,,,,,,,,,,,,,,,,,,,,,,,,,,,,,,,,,,,,,,,,,,,,,,,,,,,,,,,,818564,001,2022-11-07_11h02.19.484,Info_measure_main_exp,2022.2.2,144.66336824602325,
1,1,131,5,5,1986,1,absent_patch/patch0001986.jpg,present_patch/cong_131_5_a.jpg,masks/mask_005.jpg,,,,,,,,,,,,,,,,,,,,,,,,,0,5,5,0,,,,,0,0,0,4,,,,,,,,,,,,,,,,,,,,,,,,,,,,,,,,,,,,,,,,,,,,,,,,,,,,,,,,,,,,,,,,,,,133.86762689996976,134.02334680000786,,,,,,,,,,818564,001,2022-11-07_11h02.19.484,Info_measure_main_exp,2022.2.2,144.66336824602325,
1,1,131,5,5,1986,1,absent_patch/patch0001986.jpg,present_patch/cong_131_5_a.jpg,masks/mask_004.jpg,,,,,,,,,,,,,,,,,,,,,,,,,0,5,5,0,,,,,0,1,1,3,,,,,,,,,,,,,,,,,,,,,,,,,,,,,,,,,,,,,,,,,,,,,,,,,,,,,,,,,,,,,,,,,,,,,,,,,,,,,,818564,001,2022-11-07_11h02.19.484,Info_measure_main_exp,2022.2.2,144.66336824602325,
1,1,131,5,5,1986,1,absent_patch/patch0001986.jpg,present_patch/cong_131_5_a.jpg,masks/mask_002.jpg,,,,,,,,,,,,,,,,,,,,,,,,,0,5,5,0,,,,,0,2,2,1,,,,,,,,,,,,,,,,,,,,,,,,,,,,,,,,,,,,,,,,,,,,,,,,,,,,,,,,,,,,,,,,,,,,,,,,,,,,,,818564,001,2022-11-07_11h02.19.484,Info_measure_main_exp,2022.2.2,144.66336824602325,
1,1,131,5,5,1986,1,absent_patch/patch0001986.jpg,present_patch/cong_131_5_a.jpg,masks/mask_003.jpg,,,,,,,,,,,,,,,,,,,,,,,,,0,5,5,0,,,,,0,3,3,2,,,,,,,,,,,,,,,,,,,,,,,,,,,,,,,,,,,,,,,,,,,,,,,,,,,,,,,,,,,,,,,,,,,,,,,,,,,,,,818564,001,2022-11-07_11h02.19.484,Info_measure_main_exp,2022.2.2,144.66336824602325,
1,1,131,5,5,1986,1,absent_patch/patch0001986.jpg,present_patch/cong_131_5_a.jpg,masks/mask_001.jpg,,,,,,,,,,,,,,,,,,,,,,,,,0,5,5,0,,,,,0,4,4,0,,,,,,,,,,,,,,,,,,,,,,,,,,,,,,,,,,,,,,,,,,,,,,,,,,,,,,,,,,,,,,,,,,,,,,,,,,,,,,818564,001,2022-11-07_11h02.19.484,Info_measure_main_exp,2022.2.2,144.66336824602325,
1,1,131,5,5,1986,1,absent_patch/patch0001986.jpg,present_patch/cong_131_5_a.jpg,,,,,,,,,,,,,,,,,,,,,,,,,,0,5,5,0,,,,,,,,,,,,,,,,,,,,,,,,,,,,,,,,,,,,,,,,,,,0.005735500017181039,134.3263297000085,0.062037037037037036,-0.15833333333333333,1,0,0,response3disk,4,1.7021781000075862,1,,,,,1.650000922381878e-05,-0.006481481481481481,-0.004629629629629629,1,0,0,center_square_2,,,,,,,,,,,,,,,,,,,,,,818564,001,2022-11-07_11h02.19.484,Info_measure_main_exp,2022.2.2,144.66336824602325,
2,0,131,5,5,2166,1986,absent_patch/patch0002166.jpg,absent_patch/patch0001986.jpg,masks/mask_004.jpg,,,,,,,,,,,,,,,,,,,,,,,,,0,6,6,1,0,0,0,3,,,,,,,,,,,,,,,,,,,,,,,,,,,,,,,,,,,,,,,,,,,,,,,,,,,,,,,,,,,,,,,,,,,,,,,,,137.08971349999774,137.25010780000594,,,,,,,,818564,001,2022-11-07_11h02.19.484,Info_measure_main_exp,2022.2.2,144.66336824602325,
2,0,131,5,5,2166,1986,absent_patch/patch0002166.jpg,absent_patch/patch0001986.jpg,masks/mask_002.jpg,,,,,,,,,,,,,,,,,,,,,,,,,0,6,6,1,0,1,1,1,,,,,,,,,,,,,,,,,,,,,,,,,,,,,,,,,,,,,,,,,,,,,,,,,,,,,,,,,,,,,,,,,,,,,,,,,,,,,,,,,,818564,001,2022-11-07_11h02.19.484,Info_measure_main_exp,2022.2.2,144.66336824602325,
2,0,131,5,5,2166,1986,absent_patch/patch0002166.jpg,absent_patch/patch0001986.jpg,masks/mask_003.jpg,,,,,,,,,,,,,,,,,,,,,,,,,0,6,6,1,0,2,2,2,,,,,,,,,,,,,,,,,,,,,,,,,,,,,,,,,,,,,,,,,,,,,,,,,,,,,,,,,,,,,,,,,,,,,,,,,,,,,,,,,,818564,001,2022-11-07_11h02.19.484,Info_measure_main_exp,2022.2.2,144.66336824602325,
2,0,131,5,5,2166,1986,absent_patch/patch0002166.jpg,absent_patch/patch0001986.jpg,masks/mask_001.jpg,,,,,,,,,,,,,,,,,,,,,,,,,0,6,6,1,0,3,3,0,,,,,,,,,,,,,,,,,,,,,,,,,,,,,,,,,,,,,,,,,,,,,,,,,,,,,,,,,,,,,,,,,,,,,,,,,,,,,,,,,,818564,001,2022-11-07_11h02.19.484,Info_measure_main_exp,2022.2.2,144.66336824602325,
2,0,131,5,5,2166,1986,absent_patch/patch0002166.jpg,absent_patch/patch0001986.jpg,masks/mask_005.jpg,,,,,,,,,,,,,,,,,,,,,,,,,0,6,6,1,0,4,4,4,,,,,,,,,,,,,,,,,,,,,,,,,,,,,,,,,,,,,,,,,,,,,,,,,,,,,,,,,,,,,,,,,,,,,,,,,,,,,,,,,,818564,001,2022-11-07_11h02.19.484,Info_measure_main_exp,2022.2.2,144.66336824602325,
2,0,131,5,5,2166,1986,absent_patch/patch0002166.jpg,absent_patch/patch0001986.jpg,masks/mask_002.jpg,,,,,,,,,,,,,,,,,,,,,,,,,0,6,6,1,,,,,0,0,0,1,,,,,,,,,,,,,,,,,,,,,,,,,,,,,,,,,,,,,,,,,,,,,,,,,,,,,,,,,,,,,,,,,,,138.04131000000052,138.19634450000012,,,,,,,,,,818564,001,2022-11-07_11h02.19.484,Info_measure_main_exp,2022.2.2,144.66336824602325,
2,0,131,5,5,2166,1986,absent_patch/patch0002166.jpg,absent_patch/patch0001986.jpg,masks/mask_001.jpg,,,,,,,,,,,,,,,,,,,,,,,,,0,6,6,1,,,,,0,1,1,0,,,,,,,,,,,,,,,,,,,,,,,,,,,,,,,,,,,,,,,,,,,,,,,,,,,,,,,,,,,,,,,,,,,,,,,,,,,,,,818564,001,2022-11-07_11h02.19.484,Info_measure_main_exp,2022.2.2,144.66336824602325,
2,0,131,5,5,2166,1986,absent_patch/patch0002166.jpg,absent_patch/patch0001986.jpg,masks/mask_004.jpg,,,,,,,,,,,,,,,,,,,,,,,,,0,6,6,1,,,,,0,2,2,3,,,,,,,,,,,,,,,,,,,,,,,,,,,,,,,,,,,,,,,,,,,,,,,,,,,,,,,,,,,,,,,,,,,,,,,,,,,,,,818564,001,2022-11-07_11h02.19.484,Info_measure_main_exp,2022.2.2,144.66336824602325,
2,0,131,5,5,2166,1986,absent_patch/patch0002166.jpg,absent_patch/patch0001986.jpg,masks/mask_003.jpg,,,,,,,,,,,,,,,,,,,,,,,,,0,6,6,1,,,,,0,3,3,2,,,,,,,,,,,,,,,,,,,,,,,,,,,,,,,,,,,,,,,,,,,,,,,,,,,,,,,,,,,,,,,,,,,,,,,,,,,,,,818564,001,2022-11-07_11h02.19.484,Info_measure_main_exp,2022.2.2,144.66336824602325,
2,0,131,5,5,2166,1986,absent_patch/patch0002166.jpg,absent_patch/patch0001986.jpg,masks/mask_005.jpg,,,,,,,,,,,,,,,,,,,,,,,,,0,6,6,1,,,,,0,4,4,4,,,,,,,,,,,,,,,,,,,,,,,,,,,,,,,,,,,,,,,,,,,,,,,,,,,,,,,,,,,,,,,,,,,,,,,,,,,,,,818564,001,2022-11-07_11h02.19.484,Info_measure_main_exp,2022.2.2,144.66336824602325,
2,0,131,5,5,2166,1986,absent_patch/patch0002166.jpg,absent_patch/patch0001986.jpg,,,,,,,,,,,,,,,,,,,,,,,,,,0,6,6,1,,,,,,,,,,,,,,,,,,,,,,,,,,,,,,,,,,,,,,,,,,,0.008605900045949966,138.4997321999981,0.05462962962962963,-0.17314814814814813,1,0,0,response3disk,4,0.7902418000157923,1,,,,,1.6900012269616127e-05,-0.006481481481481481,0.000925925925925926,1,0,0,center_square_2,,,,,,,,,,,,,,,,,,,,,,818564,001,2022-11-07_11h02.19.484,Info_measure_main_exp,2022.2.2,144.66336824602325,
3,0,131,5,5,1950,1974,absent_patch/patch0001950.jpg,absent_patch/patch0001974.jpg,masks/mask_005.jpg,,,,,,,,,,,,,,,,,,,,,,,,,0,7,7,2,0,0,0,4,,,,,,,,,,,,,,,,,,,,,,,,,,,,,,,,,,,,,,,,,,,,,,,,,,,,,,,,,,,,,,,,,,,,,,,,,140.58335209998768,140.7384810000076,,,,,,,,818564,001,2022-11-07_11h02.19.484,Info_measure_main_exp,2022.2.2,144.66336824602325,
3,0,131,5,5,1950,1974,absent_patch/patch0001950.jpg,absent_patch/patch0001974.jpg,masks/mask_003.jpg,,,,,,,,,,,,,,,,,,,,,,,,,0,7,7,2,0,1,1,2,,,,,,,,,,,,,,,,,,,,,,,,,,,,,,,,,,,,,,,,,,,,,,,,,,,,,,,,,,,,,,,,,,,,,,,,,,,,,,,,,,818564,001,2022-11-07_11h02.19.484,Info_measure_main_exp,2022.2.2,144.66336824602325,
3,0,131,5,5,1950,1974,absent_patch/patch0001950.jpg,absent_patch/patch0001974.jpg,masks/mask_004.jpg,,,,,,,,,,,,,,,,,,,,,,,,,0,7,7,2,0,2,2,3,,,,,,,,,,,,,,,,,,,,,,,,,,,,,,,,,,,,,,,,,,,,,,,,,,,,,,,,,,,,,,,,,,,,,,,,,,,,,,,,,,818564,001,2022-11-07_11h02.19.484,Info_measure_main_exp,2022.2.2,144.66336824602325,
3,0,131,5,5,1950,1974,absent_patch/patch0001950.jpg,absent_patch/patch0001974.jpg,masks/mask_002.jpg,,,,,,,,,,,,,,,,,,,,,,,,,0,7,7,2,0,3,3,1,,,,,,,,,,,,,,,,,,,,,,,,,,,,,,,,,,,,,,,,,,,,,,,,,,,,,,,,,,,,,,,,,,,,,,,,,,,,,,,,,,818564,001,2022-11-07_11h02.19.484,Info_measure_main_exp,2022.2.2,144.66336824602325,
3,0,131,5,5,1950,1974,absent_patch/patch0001950.jpg,absent_patch/patch0001974.jpg,masks/mask_001.jpg,,,,,,,,,,,,,,,,,,,,,,,,,0,7,7,2,0,4,4,0,,,,,,,,,,,,,,,,,,,,,,,,,,,,,,,,,,,,,,,,,,,,,,,,,,,,,,,,,,,,,,,,,,,,,,,,,,,,,,,,,,818564,001,2022-11-07_11h02.19.484,Info_measure_main_exp,2022.2.2,144.66336824602325,
3,0,131,5,5,1950,1974,absent_patch/patch0001950.jpg,absent_patch/patch0001974.jpg,masks/mask_004.jpg,,,,,,,,,,,,,,,,,,,,,,,,,0,7,7,2,,,,,0,0,0,3,,,,,,,,,,,,,,,,,,,,,,,,,,,,,,,,,,,,,,,,,,,,,,,,,,,,,,,,,,,,,,,,,,,141.53494089999003,141.69016399997054,,,,,,,,,,818564,001,2022-11-07_11h02.19.484,Info_measure_main_exp,2022.2.2,144.66336824602325,
3,0,131,5,5,1950,1974,absent_patch/patch0001950.jpg,absent_patch/patch0001974.jpg,masks/mask_003.jpg,,,,,,,,,,,,,,,,,,,,,,,,,0,7,7,2,,,,,0,1,1,2,,,,,,,,,,,,,,,,,,,,,,,,,,,,,,,,,,,,,,,,,,,,,,,,,,,,,,,,,,,,,,,,,,,,,,,,,,,,,,818564,001,2022-11-07_11h02.19.484,Info_measure_main_exp,2022.2.2,144.66336824602325,
3,0,131,5,5,1950,1974,absent_patch/patch0001950.jpg,absent_patch/patch0001974.jpg,masks/mask_001.jpg,,,,,,,,,,,,,,,,,,,,,,,,,0,7,7,2,,,,,0,2,2,0,,,,,,,,,,,,,,,,,,,,,,,,,,,,,,,,,,,,,,,,,,,,,,,,,,,,,,,,,,,,,,,,,,,,,,,,,,,,,,818564,001,2022-11-07_11h02.19.484,Info_measure_main_exp,2022.2.2,144.66336824602325,
3,0,131,5,5,1950,1974,absent_patch/patch0001950.jpg,absent_patch/patch0001974.jpg,masks/mask_002.jpg,,,,,,,,,,,,,,,,,,,,,,,,,0,7,7,2,,,,,0,3,3,1,,,,,,,,,,,,,,,,,,,,,,,,,,,,,,,,,,,,,,,,,,,,,,,,,,,,,,,,,,,,,,,,,,,,,,,,,,,,,,818564,001,2022-11-07_11h02.19.484,Info_measure_main_exp,2022.2.2,144.66336824602325,
3,0,131,5,5,1950,1974,absent_patch/patch0001950.jpg,absent_patch/patch0001974.jpg,masks/mask_005.jpg,,,,,,,,,,,,,,,,,,,,,,,,,0,7,7,2,,,,,0,4,4,4,,,,,,,,,,,,,,,,,,,,,,,,,,,,,,,,,,,,,,,,,,,,,,,,,,,,,,,,,,,,,,,,,,,,,,,,,,,,,,818564,001,2022-11-07_11h02.19.484,Info_measure_main_exp,2022.2.2,144.66336824602325,
3,0,131,5,5,1950,1974,absent_patch/patch0001950.jpg,absent_patch/patch0001974.jpg,,,,,,,,,,,,,,,,,,,,,,,,,,0,7,7,2,,,,,,,,,,,,,,,,,,,,,,,,,,,,,,,,,,,,,,,,,,,0.0060140000423416495,141.9926087000058,-0.07037037037037037,0.040740740740740744,1,0,0,response7disk,1,0.9867073000059463,1,,,,,1.899997005239129e-05,-0.000925925925925926,-0.005555555555555556,1,0,0,center_square_2,,,,,,,,,,,,,,,,,,,,,,818564,001,2022-11-07_11h02.19.484,Info_measure_main_exp,2022.2.2,144.66336824602325,
8,0,131,5,5,1974,1986,absent_patch/patch0001974.jpg,absent_patch/patch0001986.jpg,masks/mask_002.jpg,,,,,,,,,,,,,,,,,,,,,,,,,0,8,8,7,0,0,0,1,,,,,,,,,,,,,,,,,,,,,,,,,,,,,,,,,,,,,,,,,,,,,,,,,,,,,,,,,,,,,,,,,,,,,,,,,143.97895229997812,144.13903049996588,,,,,,,,818564,001,2022-11-07_11h02.19.484,Info_measure_main_exp,2022.2.2,144.66336824602325,
