participant,session,date,expName,psychopyVersion,OS,frameRate,space_press_continue.keys,space_press_continue.rt,space_press_continue_2.keys,space_press_continue_2.rt,space_press_continue_3.keys,space_press_continue_3.rt,space_press_continue_4.keys,space_press_continue_4.rt,space_press_continue_5.keys,space_press_continue_5.rt,space_press_continue_6.keys,space_press_continue_6.rt,prac_mask_loop_1.thisRepN,prac_mask_loop_1.thisTrialN,prac_mask_loop_1.thisN,prac_mask_loop_1.thisIndex,prac_mask_loop_1.ran,mask_name,prac_mask_loop_2.thisRepN,prac_mask_loop_2.thisTrialN,prac_mask_loop_2.thisN,prac_mask_loop_2.thisIndex,prac_mask_loop_2.ran,mouse_2.x,mouse_2.y,mouse_2.leftButton,mouse_2.midButton,mouse_2.rightButton,mouse_2.clicked_name,similarity,response_time,Pass,mouse_12.x,mouse_12.y,mouse_12.leftButton,mouse_12.midButton,mouse_12.rightButton,mouse_12.clicked_name,prac_loop.thisRepN,prac_loop.thisTrialN,prac_loop.thisN,prac_loop.thisIndex,prac_loop.ran,Pair_type,Image_num,Patch_1_loc,Patch_2_loc,Patch_1_info,Patch_2_info,Patch_1_name,Patch_2_name,mouse_1.x,mouse_1.y,mouse_1.leftButton,mouse_1.midButton,mouse_1.rightButton,mouse_1.time,mouse_1.clicked_name,space_press_continue_7.keys,space_press_continue_7.rt,mask_loop.thisRepN,mask_loop.thisTrialN,mask_loop.thisN,mask_loop.thisIndex,mask_loop.ran,mask_loop_2.thisRepN,mask_loop_2.thisTrialN,mask_loop_2.thisN,mask_loop_2.thisIndex,mask_loop_2.ran,mouse.x,mouse.y,mouse.leftButton,mouse.midButton,mouse.rightButton,mouse.clicked_name,trialNumber,mouse_11.x,mouse_11.y,mouse_11.leftButton,mouse_11.midButton,mouse_11.rightButton,mouse_11.clicked_name,first_pass_loop.thisRepN,first_pass_loop.thisTrialN,first_pass_loop.thisN,first_pass_loop.thisIndex,first_pass_loop.ran,mask_loop_3.thisRepN,mask_loop_3.thisTrialN,mask_loop_3.thisN,mask_loop_3.thisIndex,mask_loop_3.ran,mask_loop_4.thisRepN,mask_loop_4.thisTrialN,mask_loop_4.thisN,mask_loop_4.thisIndex,mask_loop_4.ran,mouse_3.x,mouse_3.y,mouse_3.leftButton,mouse_3.midButton,mouse_3.rightButton,mouse_3.clicked_name,double_pass_loop.thisRepN,double_pass_loop.thisTrialN,double_pass_loop.thisN,double_pass_loop.thisIndex,double_pass_loop.ran,space_exit.keys,space_exit.rt
818610,001,2022-11-21_01h10.28.746,Info_measure_main_exp,2022.2.2,Win32,13.09174696,,,,,,,,,,,,,,,,,,,,,,,,,,,,,,,,,,,,,,,,,,,,,,,,,,,,,,,,,,,,,,,,,,,,,,,,,,,,,,,,,,,,,,,,,,,,,,,,,,,,,,,,,,,,,,,
818610,001,2022-11-21_01h10.28.746,Info_measure_main_exp,2022.2.2,Win32,13.09174696,,,,,,,,,,,,,,,,,,,,,,,,,,,,,,,,,,,,,,,,,,,,,,,,,,,,,,,,,,,,,,,,,,,,,,,,,,,,,,,,,,,,,,,,,,,,,,,,,,,,,,,,,,,,,,,
818610,001,2022-11-21_01h10.28.746,Info_measure_main_exp,2022.2.2,Win32,13.09174696,space,7.5579,,,,,,,,,,,,,,,,,,,,,,,,,,,,,,,,,,,,,,,,,,,,,,,,,,,,,,,,,,,,,,,,,,,,,,,,,,,,,,,,,,,,,,,,,,,,,,,,,,,,,,,,,,,,,
818610,001,2022-11-21_01h10.28.746,Info_measure_main_exp,2022.2.2,Win32,13.09174696,,,space,15.3226,,,,,,,,,,,,,,,,,,,,,,,,,,,,,,,,,,,,,,,,,,,,,,,,,,,,,,,,,,,,,,,,,,,,,,,,,,,,,,,,,,,,,,,,,,,,,,,,,,,,,,,,,,,
818610,001,2022-11-21_01h10.28.746,Info_measure_main_exp,2022.2.2,Win32,13.09174696,,,,,space,9.4176,,,,,,,,,,,,,,,,,,,,,,,,,,,,,,,,,,,,,,,,,,,,,,,,,,,,,,,,,,,,,,,,,,,,,,,,,,,,,,,,,,,,,,,,,,,,,,,,,,,,,,,,,
818610,001,2022-11-21_01h10.28.746,Info_measure_main_exp,2022.2.2,Win32,13.09174696,,,,,,,space,25.1055,,,,,,,,,,,,,,,,,,,,,,,,,,,,,,,,,,,,,,,,,,,,,,,,,,,,,,,,,,,,,,,,,,,,,,,,,,,,,,,,,,,,,,,,,,,,,,,,,,,,,,,
818610,001,2022-11-21_01h10.28.746,Info_measure_main_exp,2022.2.2,Win32,13.09174696,,,,,,,,,space,5.8898,,,,,,,,,,,,,,,,,,,,,,,,,,,,,,,,,,,,,,,,,,,,,,,,,,,,,,,,,,,,,,,,,,,,,,,,,,,,,,,,,,,,,,,,,,,,,,,,,,,,,
818610,001,2022-11-21_01h10.28.746,Info_measure_main_exp,2022.2.2,Win32,13.09174696,,,,,,,,,,,space,8.5423,,,,,,,,,,,,,,,,,,,,,,,,,,,,,,,,,,,,,,,,,,,,,,,,,,,,,,,,,,,,,,,,,,,,,,,,,,,,,,,,,,,,,,,,,,,,,,,,,,,
818610,001,2022-11-21_01h10.28.746,Info_measure_main_exp,2022.2.2,Win32,13.09174696,,,,,,,,,,,,,0,0,0,3,1,masks/mask_004.jpg,,,,,,,,,,,,,,,,,,,,,,,,,,,,,,,,,,,,,,,,,,,,,,,,,,,,,,,,,,,,,,,,,,,,,,,,,,,,,,,,,,,,,,,,,,,,,
818610,001,2022-11-21_01h10.28.746,Info_measure_main_exp,2022.2.2,Win32,13.09174696,,,,,,,,,,,,,0,1,1,2,1,masks/mask_003.jpg,,,,,,,,,,,,,,,,,,,,,,,,,,,,,,,,,,,,,,,,,,,,,,,,,,,,,,,,,,,,,,,,,,,,,,,,,,,,,,,,,,,,,,,,,,,,,
818610,001,2022-11-21_01h10.28.746,Info_measure_main_exp,2022.2.2,Win32,13.09174696,,,,,,,,,,,,,0,2,2,4,1,masks/mask_005.jpg,,,,,,,,,,,,,,,,,,,,,,,,,,,,,,,,,,,,,,,,,,,,,,,,,,,,,,,,,,,,,,,,,,,,,,,,,,,,,,,,,,,,,,,,,,,,,
818610,001,2022-11-21_01h10.28.746,Info_measure_main_exp,2022.2.2,Win32,13.09174696,,,,,,,,,,,,,0,3,3,1,1,masks/mask_002.jpg,,,,,,,,,,,,,,,,,,,,,,,,,,,,,,,,,,,,,,,,,,,,,,,,,,,,,,,,,,,,,,,,,,,,,,,,,,,,,,,,,,,,,,,,,,,,,
818610,001,2022-11-21_01h10.28.746,Info_measure_main_exp,2022.2.2,Win32,13.09174696,,,,,,,,,,,,,0,4,4,0,1,masks/mask_001.jpg,,,,,,,,,,,,,,,,,,,,,,,,,,,,,,,,,,,,,,,,,,,,,,,,,,,,,,,,,,,,,,,,,,,,,,,,,,,,,,,,,,,,,,,,,,,,,
818610,001,2022-11-21_01h10.28.746,Info_measure_main_exp,2022.2.2,Win32,13.09174696,,,,,,,,,,,,,,,,,,masks/mask_002.jpg,0,0,0,1,1,,,,,,,,,,,,,,,,,,,,,,,,,,,,,,,,,,,,,,,,,,,,,,,,,,,,,,,,,,,,,,,,,,,,,,,,,,,,,,,,,,,,,,,,
818610,001,2022-11-21_01h10.28.746,Info_measure_main_exp,2022.2.2,Win32,13.09174696,,,,,,,,,,,,,,,,,,masks/mask_001.jpg,0,1,1,0,1,,,,,,,,,,,,,,,,,,,,,,,,,,,,,,,,,,,,,,,,,,,,,,,,,,,,,,,,,,,,,,,,,,,,,,,,,,,,,,,,,,,,,,,,
818610,001,2022-11-21_01h10.28.746,Info_measure_main_exp,2022.2.2,Win32,13.09174696,,,,,,,,,,,,,,,,,,masks/mask_003.jpg,0,2,2,2,1,,,,,,,,,,,,,,,,,,,,,,,,,,,,,,,,,,,,,,,,,,,,,,,,,,,,,,,,,,,,,,,,,,,,,,,,,,,,,,,,,,,,,,,,
818610,001,2022-11-21_01h10.28.746,Info_measure_main_exp,2022.2.2,Win32,13.09174696,,,,,,,,,,,,,,,,,,masks/mask_004.jpg,0,3,3,3,1,,,,,,,,,,,,,,,,,,,,,,,,,,,,,,,,,,,,,,,,,,,,,,,,,,,,,,,,,,,,,,,,,,,,,,,,,,,,,,,,,,,,,,,,
818610,001,2022-11-21_01h10.28.746,Info_measure_main_exp,2022.2.2,Win32,13.09174696,,,,,,,,,,,,,,,,,,masks/mask_005.jpg,0,4,4,4,1,,,,,,,,,,,,,,,,,,,,,,,,,,,,,,,,,,,,,,,,,,,,,,,,,,,,,,,,,,,,,,,,,,,,,,,,,,,,,,,,,,,,,,,,
818610,001,2022-11-21_01h10.28.746,Info_measure_main_exp,2022.2.2,Win32,13.09174696,,,,,,,,,,,,,,,,,,,,,,,,-0.039814815,0.131481481,1,0,0,response7disk,0,78.7991,1,0.003703704,0.010185185,1,0,0,center_square,0,0,0,2,1,0,131,5,5,2526,2526,prac_patch/patch0002526.jpg,prac_patch/patch0002526.jpg,,,,,,,,,,,,,,,,,,,,,,,,,,,,,,,,,,,,,,,,,,,,,,,,,,,,,,,,,,,,
818610,001,2022-11-21_01h10.28.746,Info_measure_main_exp,2022.2.2,Win32,13.09174696,,,,,,,,,,,,,0,0,0,0,1,masks/mask_001.jpg,,,,,,,,,,,,,,,,,,,,,,,,,,,,,,,,,,,,,,,,,,,,,,,,,,,,,,,,,,,,,,,,,,,,,,,,,,,,,,,,,,,,,,,,,,,,,
818610,001,2022-11-21_01h10.28.746,Info_measure_main_exp,2022.2.2,Win32,13.09174696,,,,,,,,,,,,,0,1,1,2,1,masks/mask_003.jpg,,,,,,,,,,,,,,,,,,,,,,,,,,,,,,,,,,,,,,,,,,,,,,,,,,,,,,,,,,,,,,,,,,,,,,,,,,,,,,,,,,,,,,,,,,,,,
818610,001,2022-11-21_01h10.28.746,Info_measure_main_exp,2022.2.2,Win32,13.09174696,,,,,,,,,,,,,0,2,2,1,1,masks/mask_002.jpg,,,,,,,,,,,,,,,,,,,,,,,,,,,,,,,,,,,,,,,,,,,,,,,,,,,,,,,,,,,,,,,,,,,,,,,,,,,,,,,,,,,,,,,,,,,,,
818610,001,2022-11-21_01h10.28.746,Info_measure_main_exp,2022.2.2,Win32,13.09174696,,,,,,,,,,,,,0,3,3,4,1,masks/mask_005.jpg,,,,,,,,,,,,,,,,,,,,,,,,,,,,,,,,,,,,,,,,,,,,,,,,,,,,,,,,,,,,,,,,,,,,,,,,,,,,,,,,,,,,,,,,,,,,,
818610,001,2022-11-21_01h10.28.746,Info_measure_main_exp,2022.2.2,Win32,13.09174696,,,,,,,,,,,,,0,4,4,3,1,masks/mask_004.jpg,,,,,,,,,,,,,,,,,,,,,,,,,,,,,,,,,,,,,,,,,,,,,,,,,,,,,,,,,,,,,,,,,,,,,,,,,,,,,,,,,,,,,,,,,,,,,
818610,001,2022-11-21_01h10.28.746,Info_measure_main_exp,2022.2.2,Win32,13.09174696,,,,,,,,,,,,,,,,,,masks/mask_002.jpg,0,0,0,1,1,,,,,,,,,,,,,,,,,,,,,,,,,,,,,,,,,,,,,,,,,,,,,,,,,,,,,,,,,,,,,,,,,,,,,,,,,,,,,,,,,,,,,,,,
818610,001,2022-11-21_01h10.28.746,Info_measure_main_exp,2022.2.2,Win32,13.09174696,,,,,,,,,,,,,,,,,,masks/mask_005.jpg,0,1,1,4,1,,,,,,,,,,,,,,,,,,,,,,,,,,,,,,,,,,,,,,,,,,,,,,,,,,,,,,,,,,,,,,,,,,,,,,,,,,,,,,,,,,,,,,,,
818610,001,2022-11-21_01h10.28.746,Info_measure_main_exp,2022.2.2,Win32,13.09174696,,,,,,,,,,,,,,,,,,masks/mask_001.jpg,0,2,2,0,1,,,,,,,,,,,,,,,,,,,,,,,,,,,,,,,,,,,,,,,,,,,,,,,,,,,,,,,,,,,,,,,,,,,,,,,,,,,,,,,,,,,,,,,,
818610,001,2022-11-21_01h10.28.746,Info_measure_main_exp,2022.2.2,Win32,13.09174696,,,,,,,,,,,,,,,,,,masks/mask_003.jpg,0,3,3,2,1,,,,,,,,,,,,,,,,,,,,,,,,,,,,,,,,,,,,,,,,,,,,,,,,,,,,,,,,,,,,,,,,,,,,,,,,,,,,,,,,,,,,,,,,
818610,001,2022-11-21_01h10.28.746,Info_measure_main_exp,2022.2.2,Win32,13.09174696,,,,,,,,,,,,,,,,,,masks/mask_004.jpg,0,4,4,3,1,,,,,,,,,,,,,,,,,,,,,,,,,,,,,,,,,,,,,,,,,,,,,,,,,,,,,,,,,,,,,,,,,,,,,,,,,,,,,,,,,,,,,,,,
818610,001,2022-11-21_01h10.28.746,Info_measure_main_exp,2022.2.2,Win32,13.09174696,,,,,,,,,,,,,,,,,,,,,,,,0.024074074,0.066666667,1,0,0,response1disk,7,91.9358,1,-0.003703704,0.001851852,1,0,0,center_square,0,1,1,0,1,0,131,5,5,2370,2406,prac_patch/patch0002370.jpg,prac_patch/patch0002406.jpg,,,,,,,,,,,,,,,,,,,,,,,,,,,,,,,,,,,,,,,,,,,,,,,,,,,,,,,,,,,,
818610,001,2022-11-21_01h10.28.746,Info_measure_main_exp,2022.2.2,Win32,13.09174696,,,,,,,,,,,,,0,0,0,1,1,masks/mask_002.jpg,,,,,,,,,,,,,,,,,,,,,,,,,,,,,,,,,,,,,,,,,,,,,,,,,,,,,,,,,,,,,,,,,,,,,,,,,,,,,,,,,,,,,,,,,,,,,
818610,001,2022-11-21_01h10.28.746,Info_measure_main_exp,2022.2.2,Win32,13.09174696,,,,,,,,,,,,,0,1,1,4,1,masks/mask_005.jpg,,,,,,,,,,,,,,,,,,,,,,,,,,,,,,,,,,,,,,,,,,,,,,,,,,,,,,,,,,,,,,,,,,,,,,,,,,,,,,,,,,,,,,,,,,,,,
818610,001,2022-11-21_01h10.28.746,Info_measure_main_exp,2022.2.2,Win32,13.09174696,,,,,,,,,,,,,0,2,2,0,1,masks/mask_001.jpg,,,,,,,,,,,,,,,,,,,,,,,,,,,,,,,,,,,,,,,,,,,,,,,,,,,,,,,,,,,,,,,,,,,,,,,,,,,,,,,,,,,,,,,,,,,,,
818610,001,2022-11-21_01h10.28.746,Info_measure_main_exp,2022.2.2,Win32,13.09174696,,,,,,,,,,,,,0,3,3,3,1,masks/mask_004.jpg,,,,,,,,,,,,,,,,,,,,,,,,,,,,,,,,,,,,,,,,,,,,,,,,,,,,,,,,,,,,,,,,,,,,,,,,,,,,,,,,,,,,,,,,,,,,,
818610,001,2022-11-21_01h10.28.746,Info_measure_main_exp,2022.2.2,Win32,13.09174696,,,,,,,,,,,,,0,4,4,2,1,masks/mask_003.jpg,,,,,,,,,,,,,,,,,,,,,,,,,,,,,,,,,,,,,,,,,,,,,,,,,,,,,,,,,,,,,,,,,,,,,,,,,,,,,,,,,,,,,,,,,,,,,
818610,001,2022-11-21_01h10.28.746,Info_measure_main_exp,2022.2.2,Win32,13.09174696,,,,,,,,,,,,,,,,,,masks/mask_001.jpg,0,0,0,0,1,,,,,,,,,,,,,,,,,,,,,,,,,,,,,,,,,,,,,,,,,,,,,,,,,,,,,,,,,,,,,,,,,,,,,,,,,,,,,,,,,,,,,,,,
818610,001,2022-11-21_01h10.28.746,Info_measure_main_exp,2022.2.2,Win32,13.09174696,,,,,,,,,,,,,,,,,,masks/mask_003.jpg,0,1,1,2,1,,,,,,,,,,,,,,,,,,,,,,,,,,,,,,,,,,,,,,,,,,,,,,,,,,,,,,,,,,,,,,,,,,,,,,,,,,,,,,,,,,,,,,,,
818610,001,2022-11-21_01h10.28.746,Info_measure_main_exp,2022.2.2,Win32,13.09174696,,,,,,,,,,,,,,,,,,masks/mask_005.jpg,0,2,2,4,1,,,,,,,,,,,,,,,,,,,,,,,,,,,,,,,,,,,,,,,,,,,,,,,,,,,,,,,,,,,,,,,,,,,,,,,,,,,,,,,,,,,,,,,,
818610,001,2022-11-21_01h10.28.746,Info_measure_main_exp,2022.2.2,Win32,13.09174696,,,,,,,,,,,,,,,,,,masks/mask_004.jpg,0,3,3,3,1,,,,,,,,,,,,,,,,,,,,,,,,,,,,,,,,,,,,,,,,,,,,,,,,,,,,,,,,,,,,,,,,,,,,,,,,,,,,,,,,,,,,,,,,
818610,001,2022-11-21_01h10.28.746,Info_measure_main_exp,2022.2.2,Win32,13.09174696,,,,,,,,,,,,,,,,,,masks/mask_002.jpg,0,4,4,1,1,,,,,,,,,,,,,,,,,,,,,,,,,,,,,,,,,,,,,,,,,,,,,,,,,,,,,,,,,,,,,,,,,,,,,,,,,,,,,,,,,,,,,,,,
818610,001,2022-11-21_01h10.28.746,Info_measure_main_exp,2022.2.2,Win32,13.09174696,,,,,,,,,,,,,,,,,,,,,,,,-0.031481481,-0.142592593,1,0,0,response5disk,3,104.213,1,0.011111111,0.010185185,1,0,0,center_square,0,2,2,1,1,0,131,5,5,2514,2490,prac_patch/patch0002514.jpg,prac_patch/patch0002490.jpg,,,,,,,,,,,,,,,,,,,,,,,,,,,,,,,,,,,,,,,,,,,,,,,,,,,,,,,,,,,,
818610,001,2022-11-21_01h10.28.746,Info_measure_main_exp,2022.2.2,Win32,13.09174696,,,,,,,,,,,,,,,,,,,,,,,,,,,,,,,,,,,,,,,,,,,,,,,,,,,,,,,,,,,space,3.2755,,,,,,,,,,,,,,,,,,,,,,,,,,,,,,,,,,,,,,,,,,,,,,,,,,,
818610,001,2022-11-21_01h10.28.746,Info_measure_main_exp,2022.2.2,Win32,13.09174696,,,,,,,,,,,,,,,,,,masks/mask_004.jpg,,,,,,,,,,,,,,,,,,,,,,,,,,,,,,,,,,,,,,,,,,,0,0,0,3,1,,,,,,,,,,,,,,,,,,,,,,,,,,,,,,,,,,,,,,,,,,,,,,
818610,001,2022-11-21_01h10.28.746,Info_measure_main_exp,2022.2.2,Win32,13.09174696,,,,,,,,,,,,,,,,,,masks/mask_002.jpg,,,,,,,,,,,,,,,,,,,,,,,,,,,,,,,,,,,,,,,,,,,0,1,1,1,1,,,,,,,,,,,,,,,,,,,,,,,,,,,,,,,,,,,,,,,,,,,,,,
818610,001,2022-11-21_01h10.28.746,Info_measure_main_exp,2022.2.2,Win32,13.09174696,,,,,,,,,,,,,,,,,,masks/mask_003.jpg,,,,,,,,,,,,,,,,,,,,,,,,,,,,,,,,,,,,,,,,,,,0,2,2,2,1,,,,,,,,,,,,,,,,,,,,,,,,,,,,,,,,,,,,,,,,,,,,,,
818610,001,2022-11-21_01h10.28.746,Info_measure_main_exp,2022.2.2,Win32,13.09174696,,,,,,,,,,,,,,,,,,masks/mask_005.jpg,,,,,,,,,,,,,,,,,,,,,,,,,,,,,,,,,,,,,,,,,,,0,3,3,4,1,,,,,,,,,,,,,,,,,,,,,,,,,,,,,,,,,,,,,,,,,,,,,,
818610,001,2022-11-21_01h10.28.746,Info_measure_main_exp,2022.2.2,Win32,13.09174696,,,,,,,,,,,,,,,,,,masks/mask_001.jpg,,,,,,,,,,,,,,,,,,,,,,,,,,,,,,,,,,,,,,,,,,,0,4,4,0,1,,,,,,,,,,,,,,,,,,,,,,,,,,,,,,,,,,,,,,,,,,,,,,
818610,001,2022-11-21_01h10.28.746,Info_measure_main_exp,2022.2.2,Win32,13.09174696,,,,,,,,,,,,,,,,,,masks/mask_001.jpg,,,,,,,,,,,,,,,,,,,,,,,,,,,,,,,,,,,,,,,,,,,,,,,,0,0,0,0,1,,,,,,,,,,,,,,,,,,,,,,,,,,,,,,,,,,,,,,,,,
818610,001,2022-11-21_01h10.28.746,Info_measure_main_exp,2022.2.2,Win32,13.09174696,,,,,,,,,,,,,,,,,,masks/mask_004.jpg,,,,,,,,,,,,,,,,,,,,,,,,,,,,,,,,,,,,,,,,,,,,,,,,0,1,1,3,1,,,,,,,,,,,,,,,,,,,,,,,,,,,,,,,,,,,,,,,,,
818610,001,2022-11-21_01h10.28.746,Info_measure_main_exp,2022.2.2,Win32,13.09174696,,,,,,,,,,,,,,,,,,masks/mask_005.jpg,,,,,,,,,,,,,,,,,,,,,,,,,,,,,,,,,,,,,,,,,,,,,,,,0,2,2,4,1,,,,,,,,,,,,,,,,,,,,,,,,,,,,,,,,,,,,,,,,,
818610,001,2022-11-21_01h10.28.746,Info_measure_main_exp,2022.2.2,Win32,13.09174696,,,,,,,,,,,,,,,,,,masks/mask_003.jpg,,,,,,,,,,,,,,,,,,,,,,,,,,,,,,,,,,,,,,,,,,,,,,,,0,3,3,2,1,,,,,,,,,,,,,,,,,,,,,,,,,,,,,,,,,,,,,,,,,
818610,001,2022-11-21_01h10.28.746,Info_measure_main_exp,2022.2.2,Win32,13.09174696,,,,,,,,,,,,,,,,,,masks/mask_002.jpg,,,,,,,,,,,,,,,,,,,,,,,,,,,,,,,,,,,,,,,,,,,,,,,,0,4,4,1,1,,,,,,,,,,,,,,,,,,,,,,,,,,,,,,,,,,,,,,,,,
818610,001,2022-11-21_01h10.28.746,Info_measure_main_exp,2022.2.2,Win32,13.09174696,,,,,,,,,,,,,,,,,,,,,,,,,,,,,,7,1.9508,1,,,,,,,,,,,,0,131,5,5,2298,2214,absent_patch/patch0002298.jpg,absent_patch/patch0002214.jpg,,,,,,,,,,,,,,,,,,,,0.115740741,0.132407407,1,0,0,response1disk,1,0.003703704,0,1,0,0,center_square,0,0,0,99,1,,,,,,,,,,,,,,,,,,,,,,,
818610,001,2022-11-21_01h10.28.746,Info_measure_main_exp,2022.2.2,Win32,13.09174696,,,,,,,,,,,,,,,,,,masks/mask_003.jpg,,,,,,,,,,,,,,,,,,,,,,,,,,,,,,,,,,,,,,,,,,,0,0,0,2,1,,,,,,,,,,,,,,,,,,,,,,,,,,,,,,,,,,,,,,,,,,,,,,
818610,001,2022-11-21_01h10.28.746,Info_measure_main_exp,2022.2.2,Win32,13.09174696,,,,,,,,,,,,,,,,,,masks/mask_004.jpg,,,,,,,,,,,,,,,,,,,,,,,,,,,,,,,,,,,,,,,,,,,0,1,1,3,1,,,,,,,,,,,,,,,,,,,,,,,,,,,,,,,,,,,,,,,,,,,,,,
818610,001,2022-11-21_01h10.28.746,Info_measure_main_exp,2022.2.2,Win32,13.09174696,,,,,,,,,,,,,,,,,,masks/mask_002.jpg,,,,,,,,,,,,,,,,,,,,,,,,,,,,,,,,,,,,,,,,,,,0,2,2,1,1,,,,,,,,,,,,,,,,,,,,,,,,,,,,,,,,,,,,,,,,,,,,,,
818610,001,2022-11-21_01h10.28.746,Info_measure_main_exp,2022.2.2,Win32,13.09174696,,,,,,,,,,,,,,,,,,masks/mask_005.jpg,,,,,,,,,,,,,,,,,,,,,,,,,,,,,,,,,,,,,,,,,,,0,3,3,4,1,,,,,,,,,,,,,,,,,,,,,,,,,,,,,,,,,,,,,,,,,,,,,,
818610,001,2022-11-21_01h10.28.746,Info_measure_main_exp,2022.2.2,Win32,13.09174696,,,,,,,,,,,,,,,,,,masks/mask_001.jpg,,,,,,,,,,,,,,,,,,,,,,,,,,,,,,,,,,,,,,,,,,,0,4,4,0,1,,,,,,,,,,,,,,,,,,,,,,,,,,,,,,,,,,,,,,,,,,,,,,
818610,001,2022-11-21_01h10.28.746,Info_measure_main_exp,2022.2.2,Win32,13.09174696,,,,,,,,,,,,,,,,,,masks/mask_005.jpg,,,,,,,,,,,,,,,,,,,,,,,,,,,,,,,,,,,,,,,,,,,,,,,,0,0,0,4,1,,,,,,,,,,,,,,,,,,,,,,,,,,,,,,,,,,,,,,,,,
818610,001,2022-11-21_01h10.28.746,Info_measure_main_exp,2022.2.2,Win32,13.09174696,,,,,,,,,,,,,,,,,,masks/mask_004.jpg,,,,,,,,,,,,,,,,,,,,,,,,,,,,,,,,,,,,,,,,,,,,,,,,0,1,1,3,1,,,,,,,,,,,,,,,,,,,,,,,,,,,,,,,,,,,,,,,,,
818610,001,2022-11-21_01h10.28.746,Info_measure_main_exp,2022.2.2,Win32,13.09174696,,,,,,,,,,,,,,,,,,masks/mask_001.jpg,,,,,,,,,,,,,,,,,,,,,,,,,,,,,,,,,,,,,,,,,,,,,,,,0,2,2,0,1,,,,,,,,,,,,,,,,,,,,,,,,,,,,,,,,,,,,,,,,,
818610,001,2022-11-21_01h10.28.746,Info_measure_main_exp,2022.2.2,Win32,13.09174696,,,,,,,,,,,,,,,,,,masks/mask_002.jpg,,,,,,,,,,,,,,,,,,,,,,,,,,,,,,,,,,,,,,,,,,,,,,,,0,3,3,1,1,,,,,,,,,,,,,,,,,,,,,,,,,,,,,,,,,,,,,,,,,
818610,001,2022-11-21_01h10.28.746,Info_measure_main_exp,2022.2.2,Win32,13.09174696,,,,,,,,,,,,,,,,,,masks/mask_003.jpg,,,,,,,,,,,,,,,,,,,,,,,,,,,,,,,,,,,,,,,,,,,,,,,,0,4,4,2,1,,,,,,,,,,,,,,,,,,,,,,,,,,,,,,,,,,,,,,,,,
818610,001,2022-11-21_01h10.28.746,Info_measure_main_exp,2022.2.2,Win32,13.09174696,,,,,,,,,,,,,,,,,,,,,,,,,,,,,,7,1.6222,1,,,,,,,,,,,,1,131,5,5,1,2178,present_patch/cong_131_5_a.jpg,absent_patch/patch0002178.jpg,,,,,,,,,,,,,,,,,,,,0.057407407,0.115740741,1,0,0,response1disk,2,-0.000925926,-0.003703704,1,0,0,center_square,0,1,1,40,1,,,,,,,,,,,,,,,,,,,,,,,
818610,001,2022-11-21_01h10.28.746,Info_measure_main_exp,2022.2.2,Win32,13.09174696,,,,,,,,,,,,,,,,,,masks/mask_003.jpg,,,,,,,,,,,,,,,,,,,,,,,,,,,,,,,,,,,,,,,,,,,0,0,0,2,1,,,,,,,,,,,,,,,,,,,,,,,,,,,,,,,,,,,,,,,,,,,,,,
818610,001,2022-11-21_01h10.28.746,Info_measure_main_exp,2022.2.2,Win32,13.09174696,,,,,,,,,,,,,,,,,,masks/mask_001.jpg,,,,,,,,,,,,,,,,,,,,,,,,,,,,,,,,,,,,,,,,,,,0,1,1,0,1,,,,,,,,,,,,,,,,,,,,,,,,,,,,,,,,,,,,,,,,,,,,,,
818610,001,2022-11-21_01h10.28.746,Info_measure_main_exp,2022.2.2,Win32,13.09174696,,,,,,,,,,,,,,,,,,masks/mask_004.jpg,,,,,,,,,,,,,,,,,,,,,,,,,,,,,,,,,,,,,,,,,,,0,2,2,3,1,,,,,,,,,,,,,,,,,,,,,,,,,,,,,,,,,,,,,,,,,,,,,,
818610,001,2022-11-21_01h10.28.746,Info_measure_main_exp,2022.2.2,Win32,13.09174696,,,,,,,,,,,,,,,,,,masks/mask_002.jpg,,,,,,,,,,,,,,,,,,,,,,,,,,,,,,,,,,,,,,,,,,,0,3,3,1,1,,,,,,,,,,,,,,,,,,,,,,,,,,,,,,,,,,,,,,,,,,,,,,
818610,001,2022-11-21_01h10.28.746,Info_measure_main_exp,2022.2.2,Win32,13.09174696,,,,,,,,,,,,,,,,,,masks/mask_005.jpg,,,,,,,,,,,,,,,,,,,,,,,,,,,,,,,,,,,,,,,,,,,0,4,4,4,1,,,,,,,,,,,,,,,,,,,,,,,,,,,,,,,,,,,,,,,,,,,,,,
818610,001,2022-11-21_01h10.28.746,Info_measure_main_exp,2022.2.2,Win32,13.09174696,,,,,,,,,,,,,,,,,,masks/mask_004.jpg,,,,,,,,,,,,,,,,,,,,,,,,,,,,,,,,,,,,,,,,,,,,,,,,0,0,0,3,1,,,,,,,,,,,,,,,,,,,,,,,,,,,,,,,,,,,,,,,,,
818610,001,2022-11-21_01h10.28.746,Info_measure_main_exp,2022.2.2,Win32,13.09174696,,,,,,,,,,,,,,,,,,masks/mask_002.jpg,,,,,,,,,,,,,,,,,,,,,,,,,,,,,,,,,,,,,,,,,,,,,,,,0,1,1,1,1,,,,,,,,,,,,,,,,,,,,,,,,,,,,,,,,,,,,,,,,,
818610,001,2022-11-21_01h10.28.746,Info_measure_main_exp,2022.2.2,Win32,13.09174696,,,,,,,,,,,,,,,,,,masks/mask_003.jpg,,,,,,,,,,,,,,,,,,,,,,,,,,,,,,,,,,,,,,,,,,,,,,,,0,2,2,2,1,,,,,,,,,,,,,,,,,,,,,,,,,,,,,,,,,,,,,,,,,
818610,001,2022-11-21_01h10.28.746,Info_measure_main_exp,2022.2.2,Win32,13.09174696,,,,,,,,,,,,,,,,,,masks/mask_005.jpg,,,,,,,,,,,,,,,,,,,,,,,,,,,,,,,,,,,,,,,,,,,,,,,,0,3,3,4,1,,,,,,,,,,,,,,,,,,,,,,,,,,,,,,,,,,,,,,,,,
818610,001,2022-11-21_01h10.28.746,Info_measure_main_exp,2022.2.2,Win32,13.09174696,,,,,,,,,,,,,,,,,,masks/mask_001.jpg,,,,,,,,,,,,,,,,,,,,,,,,,,,,,,,,,,,,,,,,,,,,,,,,0,4,4,0,1,,,,,,,,,,,,,,,,,,,,,,,,,,,,,,,,,,,,,,,,,
818610,001,2022-11-21_01h10.28.746,Info_measure_main_exp,2022.2.2,Win32,13.09174696,,,,,,,,,,,,,,,,,,,,,,,,,,,,,,7,0.8278,1,,,,,,,,,,,,0,131,5,5,2250,2298,absent_patch/patch0002250.jpg,absent_patch/patch0002298.jpg,,,,,,,,,,,,,,,,,,,,0.02962963,0.110185185,1,0,0,response1disk,3,-0.007407407,-0.00462963,1,0,0,center_square,0,2,2,59,1,,,,,,,,,,,,,,,,,,,,,,,
818610,001,2022-11-21_01h10.28.746,Info_measure_main_exp,2022.2.2,Win32,13.09174696,,,,,,,,,,,,,,,,,,masks/mask_001.jpg,,,,,,,,,,,,,,,,,,,,,,,,,,,,,,,,,,,,,,,,,,,0,0,0,0,1,,,,,,,,,,,,,,,,,,,,,,,,,,,,,,,,,,,,,,,,,,,,,,
818610,001,2022-11-21_01h10.28.746,Info_measure_main_exp,2022.2.2,Win32,13.09174696,,,,,,,,,,,,,,,,,,masks/mask_003.jpg,,,,,,,,,,,,,,,,,,,,,,,,,,,,,,,,,,,,,,,,,,,0,1,1,2,1,,,,,,,,,,,,,,,,,,,,,,,,,,,,,,,,,,,,,,,,,,,,,,
818610,001,2022-11-21_01h10.28.746,Info_measure_main_exp,2022.2.2,Win32,13.09174696,,,,,,,,,,,,,,,,,,masks/mask_004.jpg,,,,,,,,,,,,,,,,,,,,,,,,,,,,,,,,,,,,,,,,,,,0,2,2,3,1,,,,,,,,,,,,,,,,,,,,,,,,,,,,,,,,,,,,,,,,,,,,,,
818610,001,2022-11-21_01h10.28.746,Info_measure_main_exp,2022.2.2,Win32,13.09174696,,,,,,,,,,,,,,,,,,masks/mask_002.jpg,,,,,,,,,,,,,,,,,,,,,,,,,,,,,,,,,,,,,,,,,,,0,3,3,1,1,,,,,,,,,,,,,,,,,,,,,,,,,,,,,,,,,,,,,,,,,,,,,,
818610,001,2022-11-21_01h10.28.746,Info_measure_main_exp,2022.2.2,Win32,13.09174696,,,,,,,,,,,,,,,,,,masks/mask_005.jpg,,,,,,,,,,,,,,,,,,,,,,,,,,,,,,,,,,,,,,,,,,,0,4,4,4,1,,,,,,,,,,,,,,,,,,,,,,,,,,,,,,,,,,,,,,,,,,,,,,
818610,001,2022-11-21_01h10.28.746,Info_measure_main_exp,2022.2.2,Win32,13.09174696,,,,,,,,,,,,,,,,,,masks/mask_003.jpg,,,,,,,,,,,,,,,,,,,,,,,,,,,,,,,,,,,,,,,,,,,,,,,,0,0,0,2,1,,,,,,,,,,,,,,,,,,,,,,,,,,,,,,,,,,,,,,,,,
818610,001,2022-11-21_01h10.28.746,Info_measure_main_exp,2022.2.2,Win32,13.09174696,,,,,,,,,,,,,,,,,,masks/mask_002.jpg,,,,,,,,,,,,,,,,,,,,,,,,,,,,,,,,,,,,,,,,,,,,,,,,0,1,1,1,1,,,,,,,,,,,,,,,,,,,,,,,,,,,,,,,,,,,,,,,,,
818610,001,2022-11-21_01h10.28.746,Info_measure_main_exp,2022.2.2,Win32,13.09174696,,,,,,,,,,,,,,,,,,masks/mask_001.jpg,,,,,,,,,,,,,,,,,,,,,,,,,,,,,,,,,,,,,,,,,,,,,,,,0,2,2,0,1,,,,,,,,,,,,,,,,,,,,,,,,,,,,,,,,,,,,,,,,,
818610,001,2022-11-21_01h10.28.746,Info_measure_main_exp,2022.2.2,Win32,13.09174696,,,,,,,,,,,,,,,,,,masks/mask_004.jpg,,,,,,,,,,,,,,,,,,,,,,,,,,,,,,,,,,,,,,,,,,,,,,,,0,3,3,3,1,,,,,,,,,,,,,,,,,,,,,,,,,,,,,,,,,,,,,,,,,
818610,001,2022-11-21_01h10.28.746,Info_measure_main_exp,2022.2.2,Win32,13.09174696,,,,,,,,,,,,,,,,,,masks/mask_005.jpg,,,,,,,,,,,,,,,,,,,,,,,,,,,,,,,,,,,,,,,,,,,,,,,,0,4,4,4,1,,,,,,,,,,,,,,,,,,,,,,,,,,,,,,,,,,,,,,,,,
818610,001,2022-11-21_01h10.28.746,Info_measure_main_exp,2022.2.2,Win32,13.09174696,,,,,,,,,,,,,,,,,,,,,,,,,,,,,,7,0.9491,1,,,,,,,,,,,,0,131,5,5,2250,2238,absent_patch/patch0002250.jpg,absent_patch/patch0002238.jpg,,,,,,,,,,,,,,,,,,,,0.039814815,0.124074074,1,0,0,response1disk,4,-0.001851852,0.014814815,1,0,0,center_square,0,3,3,110,1,,,,,,,,,,,,,,,,,,,,,,,
818610,001,2022-11-21_01h10.28.746,Info_measure_main_exp,2022.2.2,Win32,13.09174696,,,,,,,,,,,,,,,,,,masks/mask_005.jpg,,,,,,,,,,,,,,,,,,,,,,,,,,,,,,,,,,,,,,,,,,,0,0,0,4,1,,,,,,,,,,,,,,,,,,,,,,,,,,,,,,,,,,,,,,,,,,,,,,
818610,001,2022-11-21_01h10.28.746,Info_measure_main_exp,2022.2.2,Win32,13.09174696,,,,,,,,,,,,,,,,,,masks/mask_002.jpg,,,,,,,,,,,,,,,,,,,,,,,,,,,,,,,,,,,,,,,,,,,0,1,1,1,1,,,,,,,,,,,,,,,,,,,,,,,,,,,,,,,,,,,,,,,,,,,,,,
818610,001,2022-11-21_01h10.28.746,Info_measure_main_exp,2022.2.2,Win32,13.09174696,,,,,,,,,,,,,,,,,,masks/mask_003.jpg,,,,,,,,,,,,,,,,,,,,,,,,,,,,,,,,,,,,,,,,,,,0,2,2,2,1,,,,,,,,,,,,,,,,,,,,,,,,,,,,,,,,,,,,,,,,,,,,,,
818610,001,2022-11-21_01h10.28.746,Info_measure_main_exp,2022.2.2,Win32,13.09174696,,,,,,,,,,,,,,,,,,masks/mask_001.jpg,,,,,,,,,,,,,,,,,,,,,,,,,,,,,,,,,,,,,,,,,,,0,3,3,0,1,,,,,,,,,,,,,,,,,,,,,,,,,,,,,,,,,,,,,,,,,,,,,,
818610,001,2022-11-21_01h10.28.746,Info_measure_main_exp,2022.2.2,Win32,13.09174696,,,,,,,,,,,,,,,,,,masks/mask_004.jpg,,,,,,,,,,,,,,,,,,,,,,,,,,,,,,,,,,,,,,,,,,,0,4,4,3,1,,,,,,,,,,,,,,,,,,,,,,,,,,,,,,,,,,,,,,,,,,,,,,
818610,001,2022-11-21_01h10.28.746,Info_measure_main_exp,2022.2.2,Win32,13.09174696,,,,,,,,,,,,,,,,,,masks/mask_004.jpg,,,,,,,,,,,,,,,,,,,,,,,,,,,,,,,,,,,,,,,,,,,,,,,,0,0,0,3,1,,,,,,,,,,,,,,,,,,,,,,,,,,,,,,,,,,,,,,,,,
818610,001,2022-11-21_01h10.28.746,Info_measure_main_exp,2022.2.2,Win32,13.09174696,,,,,,,,,,,,,,,,,,masks/mask_003.jpg,,,,,,,,,,,,,,,,,,,,,,,,,,,,,,,,,,,,,,,,,,,,,,,,0,1,1,2,1,,,,,,,,,,,,,,,,,,,,,,,,,,,,,,,,,,,,,,,,,
818610,001,2022-11-21_01h10.28.746,Info_measure_main_exp,2022.2.2,Win32,13.09174696,,,,,,,,,,,,,,,,,,masks/mask_002.jpg,,,,,,,,,,,,,,,,,,,,,,,,,,,,,,,,,,,,,,,,,,,,,,,,0,2,2,1,1,,,,,,,,,,,,,,,,,,,,,,,,,,,,,,,,,,,,,,,,,
818610,001,2022-11-21_01h10.28.746,Info_measure_main_exp,2022.2.2,Win32,13.09174696,,,,,,,,,,,,,,,,,,masks/mask_001.jpg,,,,,,,,,,,,,,,,,,,,,,,,,,,,,,,,,,,,,,,,,,,,,,,,0,3,3,0,1,,,,,,,,,,,,,,,,,,,,,,,,,,,,,,,,,,,,,,,,,
818610,001,2022-11-21_01h10.28.746,Info_measure_main_exp,2022.2.2,Win32,13.09174696,,,,,,,,,,,,,,,,,,masks/mask_005.jpg,,,,,,,,,,,,,,,,,,,,,,,,,,,,,,,,,,,,,,,,,,,,,,,,0,4,4,4,1,,,,,,,,,,,,,,,,,,,,,,,,,,,,,,,,,,,,,,,,,
818610,001,2022-11-21_01h10.28.746,Info_measure_main_exp,2022.2.2,Win32,13.09174696,,,,,,,,,,,,,,,,,,,,,,,,,,,,,,7,0.7418,1,,,,,,,,,,,,0,131,5,5,2274,2178,absent_patch/patch0002274.jpg,absent_patch/patch0002178.jpg,,,,,,,,,,,,,,,,,,,,0.036111111,0.133333333,1,0,0,response1disk,5,0.000925926,0.007407407,1,0,0,center_square,0,4,4,117,1,,,,,,,,,,,,,,,,,,,,,,,
818610,001,2022-11-21_01h10.28.746,Info_measure_main_exp,2022.2.2,Win32,13.09174696,,,,,,,,,,,,,,,,,,masks/mask_005.jpg,,,,,,,,,,,,,,,,,,,,,,,,,,,,,,,,,,,,,,,,,,,0,0,0,4,1,,,,,,,,,,,,,,,,,,,,,,,,,,,,,,,,,,,,,,,,,,,,,,
818610,001,2022-11-21_01h10.28.746,Info_measure_main_exp,2022.2.2,Win32,13.09174696,,,,,,,,,,,,,,,,,,masks/mask_002.jpg,,,,,,,,,,,,,,,,,,,,,,,,,,,,,,,,,,,,,,,,,,,0,1,1,1,1,,,,,,,,,,,,,,,,,,,,,,,,,,,,,,,,,,,,,,,,,,,,,,
818610,001,2022-11-21_01h10.28.746,Info_measure_main_exp,2022.2.2,Win32,13.09174696,,,,,,,,,,,,,,,,,,masks/mask_003.jpg,,,,,,,,,,,,,,,,,,,,,,,,,,,,,,,,,,,,,,,,,,,0,2,2,2,1,,,,,,,,,,,,,,,,,,,,,,,,,,,,,,,,,,,,,,,,,,,,,,
818610,001,2022-11-21_01h10.28.746,Info_measure_main_exp,2022.2.2,Win32,13.09174696,,,,,,,,,,,,,,,,,,masks/mask_001.jpg,,,,,,,,,,,,,,,,,,,,,,,,,,,,,,,,,,,,,,,,,,,0,3,3,0,1,,,,,,,,,,,,,,,,,,,,,,,,,,,,,,,,,,,,,,,,,,,,,,
818610,001,2022-11-21_01h10.28.746,Info_measure_main_exp,2022.2.2,Win32,13.09174696,,,,,,,,,,,,,,,,,,masks/mask_004.jpg,,,,,,,,,,,,,,,,,,,,,,,,,,,,,,,,,,,,,,,,,,,0,4,4,3,1,,,,,,,,,,,,,,,,,,,,,,,,,,,,,,,,,,,,,,,,,,,,,,
818610,001,2022-11-21_01h10.28.746,Info_measure_main_exp,2022.2.2,Win32,13.09174696,,,,,,,,,,,,,,,,,,masks/mask_002.jpg,,,,,,,,,,,,,,,,,,,,,,,,,,,,,,,,,,,,,,,,,,,,,,,,0,0,0,1,1,,,,,,,,,,,,,,,,,,,,,,,,,,,,,,,,,,,,,,,,,
818610,001,2022-11-21_01h10.28.746,Info_measure_main_exp,2022.2.2,Win32,13.09174696,,,,,,,,,,,,,,,,,,masks/mask_003.jpg,,,,,,,,,,,,,,,,,,,,,,,,,,,,,,,,,,,,,,,,,,,,,,,,0,1,1,2,1,,,,,,,,,,,,,,,,,,,,,,,,,,,,,,,,,,,,,,,,,
818610,001,2022-11-21_01h10.28.746,Info_measure_main_exp,2022.2.2,Win32,13.09174696,,,,,,,,,,,,,,,,,,masks/mask_005.jpg,,,,,,,,,,,,,,,,,,,,,,,,,,,,,,,,,,,,,,,,,,,,,,,,0,2,2,4,1,,,,,,,,,,,,,,,,,,,,,,,,,,,,,,,,,,,,,,,,,
818610,001,2022-11-21_01h10.28.746,Info_measure_main_exp,2022.2.2,Win32,13.09174696,,,,,,,,,,,,,,,,,,masks/mask_004.jpg,,,,,,,,,,,,,,,,,,,,,,,,,,,,,,,,,,,,,,,,,,,,,,,,0,3,3,3,1,,,,,,,,,,,,,,,,,,,,,,,,,,,,,,,,,,,,,,,,,
818610,001,2022-11-21_01h10.28.746,Info_measure_main_exp,2022.2.2,Win32,13.09174696,,,,,,,,,,,,,,,,,,masks/mask_001.jpg,,,,,,,,,,,,,,,,,,,,,,,,,,,,,,,,,,,,,,,,,,,,,,,,0,4,4,0,1,,,,,,,,,,,,,,,,,,,,,,,,,,,,,,,,,,,,,,,,,
818610,001,2022-11-21_01h10.28.746,Info_measure_main_exp,2022.2.2,Win32,13.09174696,,,,,,,,,,,,,,,,,,,,,,,,,,,,,,0,1.2166,1,,,,,,,,,,,,0,131,5,5,2250,2250,absent_patch/patch0002250.jpg,absent_patch/patch0002250.jpg,,,,,,,,,,,,,,,,,,,,-0.048148148,0.156481481,1,0,0,response7disk,6,-0.009259259,0.006481481,1,0,0,center_square,0,5,5,56,1,,,,,,,,,,,,,,,,,,,,,,,
818610,001,2022-11-21_01h10.28.746,Info_measure_main_exp,2022.2.2,Win32,13.09174696,,,,,,,,,,,,,,,,,,masks/mask_002.jpg,,,,,,,,,,,,,,,,,,,,,,,,,,,,,,,,,,,,,,,,,,,0,0,0,1,1,,,,,,,,,,,,,,,,,,,,,,,,,,,,,,,,,,,,,,,,,,,,,,
818610,001,2022-11-21_01h10.28.746,Info_measure_main_exp,2022.2.2,Win32,13.09174696,,,,,,,,,,,,,,,,,,masks/mask_003.jpg,,,,,,,,,,,,,,,,,,,,,,,,,,,,,,,,,,,,,,,,,,,0,1,1,2,1,,,,,,,,,,,,,,,,,,,,,,,,,,,,,,,,,,,,,,,,,,,,,,
818610,001,2022-11-21_01h10.28.746,Info_measure_main_exp,2022.2.2,Win32,13.09174696,,,,,,,,,,,,,,,,,,masks/mask_005.jpg,,,,,,,,,,,,,,,,,,,,,,,,,,,,,,,,,,,,,,,,,,,0,2,2,4,1,,,,,,,,,,,,,,,,,,,,,,,,,,,,,,,,,,,,,,,,,,,,,,
818610,001,2022-11-21_01h10.28.746,Info_measure_main_exp,2022.2.2,Win32,13.09174696,,,,,,,,,,,,,,,,,,masks/mask_001.jpg,,,,,,,,,,,,,,,,,,,,,,,,,,,,,,,,,,,,,,,,,,,0,3,3,0,1,,,,,,,,,,,,,,,,,,,,,,,,,,,,,,,,,,,,,,,,,,,,,,
818610,001,2022-11-21_01h10.28.746,Info_measure_main_exp,2022.2.2,Win32,13.09174696,,,,,,,,,,,,,,,,,,masks/mask_004.jpg,,,,,,,,,,,,,,,,,,,,,,,,,,,,,,,,,,,,,,,,,,,0,4,4,3,1,,,,,,,,,,,,,,,,,,,,,,,,,,,,,,,,,,,,,,,,,,,,,,
818610,001,2022-11-21_01h10.28.746,Info_measure_main_exp,2022.2.2,Win32,13.09174696,,,,,,,,,,,,,,,,,,masks/mask_004.jpg,,,,,,,,,,,,,,,,,,,,,,,,,,,,,,,,,,,,,,,,,,,,,,,,0,0,0,3,1,,,,,,,,,,,,,,,,,,,,,,,,,,,,,,,,,,,,,,,,,
818610,001,2022-11-21_01h10.28.746,Info_measure_main_exp,2022.2.2,Win32,13.09174696,,,,,,,,,,,,,,,,,,masks/mask_001.jpg,,,,,,,,,,,,,,,,,,,,,,,,,,,,,,,,,,,,,,,,,,,,,,,,0,1,1,0,1,,,,,,,,,,,,,,,,,,,,,,,,,,,,,,,,,,,,,,,,,
818610,001,2022-11-21_01h10.28.746,Info_measure_main_exp,2022.2.2,Win32,13.09174696,,,,,,,,,,,,,,,,,,masks/mask_005.jpg,,,,,,,,,,,,,,,,,,,,,,,,,,,,,,,,,,,,,,,,,,,,,,,,0,2,2,4,1,,,,,,,,,,,,,,,,,,,,,,,,,,,,,,,,,,,,,,,,,
818610,001,2022-11-21_01h10.28.746,Info_measure_main_exp,2022.2.2,Win32,13.09174696,,,,,,,,,,,,,,,,,,masks/mask_003.jpg,,,,,,,,,,,,,,,,,,,,,,,,,,,,,,,,,,,,,,,,,,,,,,,,0,3,3,2,1,,,,,,,,,,,,,,,,,,,,,,,,,,,,,,,,,,,,,,,,,
818610,001,2022-11-21_01h10.28.746,Info_measure_main_exp,2022.2.2,Win32,13.09174696,,,,,,,,,,,,,,,,,,masks/mask_002.jpg,,,,,,,,,,,,,,,,,,,,,,,,,,,,,,,,,,,,,,,,,,,,,,,,0,4,4,1,1,,,,,,,,,,,,,,,,,,,,,,,,,,,,,,,,,,,,,,,,,
818610,001,2022-11-21_01h10.28.746,Info_measure_main_exp,2022.2.2,Win32,13.09174696,,,,,,,,,,,,,,,,,,,,,,,,,,,,,,7,0.8416,1,,,,,,,,,,,,0,131,5,5,2142,2166,absent_patch/patch0002142.jpg,absent_patch/patch0002166.jpg,,,,,,,,,,,,,,,,,,,,0.039814815,0.12037037,1,0,0,response1disk,7,0.012037037,0.010185185,1,0,0,center_square,0,6,6,66,1,,,,,,,,,,,,,,,,,,,,,,,
818610,001,2022-11-21_01h10.28.746,Info_measure_main_exp,2022.2.2,Win32,13.09174696,,,,,,,,,,,,,,,,,,masks/mask_002.jpg,,,,,,,,,,,,,,,,,,,,,,,,,,,,,,,,,,,,,,,,,,,0,0,0,1,1,,,,,,,,,,,,,,,,,,,,,,,,,,,,,,,,,,,,,,,,,,,,,,
818610,001,2022-11-21_01h10.28.746,Info_measure_main_exp,2022.2.2,Win32,13.09174696,,,,,,,,,,,,,,,,,,masks/mask_001.jpg,,,,,,,,,,,,,,,,,,,,,,,,,,,,,,,,,,,,,,,,,,,0,1,1,0,1,,,,,,,,,,,,,,,,,,,,,,,,,,,,,,,,,,,,,,,,,,,,,,
818610,001,2022-11-21_01h10.28.746,Info_measure_main_exp,2022.2.2,Win32,13.09174696,,,,,,,,,,,,,,,,,,masks/mask_005.jpg,,,,,,,,,,,,,,,,,,,,,,,,,,,,,,,,,,,,,,,,,,,0,2,2,4,1,,,,,,,,,,,,,,,,,,,,,,,,,,,,,,,,,,,,,,,,,,,,,,
818610,001,2022-11-21_01h10.28.746,Info_measure_main_exp,2022.2.2,Win32,13.09174696,,,,,,,,,,,,,,,,,,masks/mask_004.jpg,,,,,,,,,,,,,,,,,,,,,,,,,,,,,,,,,,,,,,,,,,,0,3,3,3,1,,,,,,,,,,,,,,,,,,,,,,,,,,,,,,,,,,,,,,,,,,,,,,
818610,001,2022-11-21_01h10.28.746,Info_measure_main_exp,2022.2.2,Win32,13.09174696,,,,,,,,,,,,,,,,,,masks/mask_003.jpg,,,,,,,,,,,,,,,,,,,,,,,,,,,,,,,,,,,,,,,,,,,0,4,4,2,1,,,,,,,,,,,,,,,,,,,,,,,,,,,,,,,,,,,,,,,,,,,,,,
818610,001,2022-11-21_01h10.28.746,Info_measure_main_exp,2022.2.2,Win32,13.09174696,,,,,,,,,,,,,,,,,,masks/mask_001.jpg,,,,,,,,,,,,,,,,,,,,,,,,,,,,,,,,,,,,,,,,,,,,,,,,0,0,0,0,1,,,,,,,,,,,,,,,,,,,,,,,,,,,,,,,,,,,,,,,,,
818610,001,2022-11-21_01h10.28.746,Info_measure_main_exp,2022.2.2,Win32,13.09174696,,,,,,,,,,,,,,,,,,masks/mask_003.jpg,,,,,,,,,,,,,,,,,,,,,,,,,,,,,,,,,,,,,,,,,,,,,,,,0,1,1,2,1,,,,,,,,,,,,,,,,,,,,,,,,,,,,,,,,,,,,,,,,,
818610,001,2022-11-21_01h10.28.746,Info_measure_main_exp,2022.2.2,Win32,13.09174696,,,,,,,,,,,,,,,,,,masks/mask_004.jpg,,,,,,,,,,,,,,,,,,,,,,,,,,,,,,,,,,,,,,,,,,,,,,,,0,2,2,3,1,,,,,,,,,,,,,,,,,,,,,,,,,,,,,,,,,,,,,,,,,
818610,001,2022-11-21_01h10.28.746,Info_measure_main_exp,2022.2.2,Win32,13.09174696,,,,,,,,,,,,,,,,,,masks/mask_002.jpg,,,,,,,,,,,,,,,,,,,,,,,,,,,,,,,,,,,,,,,,,,,,,,,,0,3,3,1,1,,,,,,,,,,,,,,,,,,,,,,,,,,,,,,,,,,,,,,,,,
818610,001,2022-11-21_01h10.28.746,Info_measure_main_exp,2022.2.2,Win32,13.09174696,,,,,,,,,,,,,,,,,,masks/mask_005.jpg,,,,,,,,,,,,,,,,,,,,,,,,,,,,,,,,,,,,,,,,,,,,,,,,0,4,4,4,1,,,,,,,,,,,,,,,,,,,,,,,,,,,,,,,,,,,,,,,,,
818610,001,2022-11-21_01h10.28.746,Info_measure_main_exp,2022.2.2,Win32,13.09174696,,,,,,,,,,,,,,,,,,,,,,,,,,,,,,0,0.8489,1,,,,,,,,,,,,0,131,5,5,2274,2274,absent_patch/patch0002274.jpg,absent_patch/patch0002274.jpg,,,,,,,,,,,,,,,,,,,,-0.031481481,0.12962963,1,0,0,response7disk,8,-0.010185185,-0.000925926,1,0,0,center_square,0,7,7,114,1,,,,,,,,,,,,,,,,,,,,,,,
818610,001,2022-11-21_01h10.28.746,Info_measure_main_exp,2022.2.2,Win32,13.09174696,,,,,,,,,,,,,,,,,,masks/mask_002.jpg,,,,,,,,,,,,,,,,,,,,,,,,,,,,,,,,,,,,,,,,,,,0,0,0,1,1,,,,,,,,,,,,,,,,,,,,,,,,,,,,,,,,,,,,,,,,,,,,,,
818610,001,2022-11-21_01h10.28.746,Info_measure_main_exp,2022.2.2,Win32,13.09174696,,,,,,,,,,,,,,,,,,masks/mask_005.jpg,,,,,,,,,,,,,,,,,,,,,,,,,,,,,,,,,,,,,,,,,,,0,1,1,4,1,,,,,,,,,,,,,,,,,,,,,,,,,,,,,,,,,,,,,,,,,,,,,,
818610,001,2022-11-21_01h10.28.746,Info_measure_main_exp,2022.2.2,Win32,13.09174696,,,,,,,,,,,,,,,,,,masks/mask_003.jpg,,,,,,,,,,,,,,,,,,,,,,,,,,,,,,,,,,,,,,,,,,,0,2,2,2,1,,,,,,,,,,,,,,,,,,,,,,,,,,,,,,,,,,,,,,,,,,,,,,
818610,001,2022-11-21_01h10.28.746,Info_measure_main_exp,2022.2.2,Win32,13.09174696,,,,,,,,,,,,,,,,,,masks/mask_001.jpg,,,,,,,,,,,,,,,,,,,,,,,,,,,,,,,,,,,,,,,,,,,0,3,3,0,1,,,,,,,,,,,,,,,,,,,,,,,,,,,,,,,,,,,,,,,,,,,,,,
818610,001,2022-11-21_01h10.28.746,Info_measure_main_exp,2022.2.2,Win32,13.09174696,,,,,,,,,,,,,,,,,,masks/mask_004.jpg,,,,,,,,,,,,,,,,,,,,,,,,,,,,,,,,,,,,,,,,,,,0,4,4,3,1,,,,,,,,,,,,,,,,,,,,,,,,,,,,,,,,,,,,,,,,,,,,,,
818610,001,2022-11-21_01h10.28.746,Info_measure_main_exp,2022.2.2,Win32,13.09174696,,,,,,,,,,,,,,,,,,masks/mask_003.jpg,,,,,,,,,,,,,,,,,,,,,,,,,,,,,,,,,,,,,,,,,,,,,,,,0,0,0,2,1,,,,,,,,,,,,,,,,,,,,,,,,,,,,,,,,,,,,,,,,,
818610,001,2022-11-21_01h10.28.746,Info_measure_main_exp,2022.2.2,Win32,13.09174696,,,,,,,,,,,,,,,,,,masks/mask_005.jpg,,,,,,,,,,,,,,,,,,,,,,,,,,,,,,,,,,,,,,,,,,,,,,,,0,1,1,4,1,,,,,,,,,,,,,,,,,,,,,,,,,,,,,,,,,,,,,,,,,
818610,001,2022-11-21_01h10.28.746,Info_measure_main_exp,2022.2.2,Win32,13.09174696,,,,,,,,,,,,,,,,,,masks/mask_004.jpg,,,,,,,,,,,,,,,,,,,,,,,,,,,,,,,,,,,,,,,,,,,,,,,,0,2,2,3,1,,,,,,,,,,,,,,,,,,,,,,,,,,,,,,,,,,,,,,,,,
818610,001,2022-11-21_01h10.28.746,Info_measure_main_exp,2022.2.2,Win32,13.09174696,,,,,,,,,,,,,,,,,,masks/mask_002.jpg,,,,,,,,,,,,,,,,,,,,,,,,,,,,,,,,,,,,,,,,,,,,,,,,0,3,3,1,1,,,,,,,,,,,,,,,,,,,,,,,,,,,,,,,,,,,,,,,,,
818610,001,2022-11-21_01h10.28.746,Info_measure_main_exp,2022.2.2,Win32,13.09174696,,,,,,,,,,,,,,,,,,masks/mask_001.jpg,,,,,,,,,,,,,,,,,,,,,,,,,,,,,,,,,,,,,,,,,,,,,,,,0,4,4,0,1,,,,,,,,,,,,,,,,,,,,,,,,,,,,,,,,,,,,,,,,,
818610,001,2022-11-21_01h10.28.746,Info_measure_main_exp,2022.2.2,Win32,13.09174696,,,,,,,,,,,,,,,,,,,,,,,,,,,,,,7,1.3799,1,,,,,,,,,,,,0,131,5,5,2142,2082,absent_patch/patch0002142.jpg,absent_patch/patch0002082.jpg,,,,,,,,,,,,,,,,,,,,0.039814815,0.132407407,1,0,0,response1disk,9,0.005555556,0.010185185,1,0,0,center_square,0,8,8,88,1,,,,,,,,,,,,,,,,,,,,,,,
818610,001,2022-11-21_01h10.28.746,Info_measure_main_exp,2022.2.2,Win32,13.09174696,,,,,,,,,,,,,,,,,,masks/mask_001.jpg,,,,,,,,,,,,,,,,,,,,,,,,,,,,,,,,,,,,,,,,,,,0,0,0,0,1,,,,,,,,,,,,,,,,,,,,,,,,,,,,,,,,,,,,,,,,,,,,,,
818610,001,2022-11-21_01h10.28.746,Info_measure_main_exp,2022.2.2,Win32,13.09174696,,,,,,,,,,,,,,,,,,masks/mask_002.jpg,,,,,,,,,,,,,,,,,,,,,,,,,,,,,,,,,,,,,,,,,,,0,1,1,1,1,,,,,,,,,,,,,,,,,,,,,,,,,,,,,,,,,,,,,,,,,,,,,,
818610,001,2022-11-21_01h10.28.746,Info_measure_main_exp,2022.2.2,Win32,13.09174696,,,,,,,,,,,,,,,,,,masks/mask_004.jpg,,,,,,,,,,,,,,,,,,,,,,,,,,,,,,,,,,,,,,,,,,,0,2,2,3,1,,,,,,,,,,,,,,,,,,,,,,,,,,,,,,,,,,,,,,,,,,,,,,
818610,001,2022-11-21_01h10.28.746,Info_measure_main_exp,2022.2.2,Win32,13.09174696,,,,,,,,,,,,,,,,,,masks/mask_003.jpg,,,,,,,,,,,,,,,,,,,,,,,,,,,,,,,,,,,,,,,,,,,0,3,3,2,1,,,,,,,,,,,,,,,,,,,,,,,,,,,,,,,,,,,,,,,,,,,,,,
818610,001,2022-11-21_01h10.28.746,Info_measure_main_exp,2022.2.2,Win32,13.09174696,,,,,,,,,,,,,,,,,,masks/mask_005.jpg,,,,,,,,,,,,,,,,,,,,,,,,,,,,,,,,,,,,,,,,,,,0,4,4,4,1,,,,,,,,,,,,,,,,,,,,,,,,,,,,,,,,,,,,,,,,,,,,,,
818610,001,2022-11-21_01h10.28.746,Info_measure_main_exp,2022.2.2,Win32,13.09174696,,,,,,,,,,,,,,,,,,masks/mask_005.jpg,,,,,,,,,,,,,,,,,,,,,,,,,,,,,,,,,,,,,,,,,,,,,,,,0,0,0,4,1,,,,,,,,,,,,,,,,,,,,,,,,,,,,,,,,,,,,,,,,,
818610,001,2022-11-21_01h10.28.746,Info_measure_main_exp,2022.2.2,Win32,13.09174696,,,,,,,,,,,,,,,,,,masks/mask_002.jpg,,,,,,,,,,,,,,,,,,,,,,,,,,,,,,,,,,,,,,,,,,,,,,,,0,1,1,1,1,,,,,,,,,,,,,,,,,,,,,,,,,,,,,,,,,,,,,,,,,
818610,001,2022-11-21_01h10.28.746,Info_measure_main_exp,2022.2.2,Win32,13.09174696,,,,,,,,,,,,,,,,,,masks/mask_001.jpg,,,,,,,,,,,,,,,,,,,,,,,,,,,,,,,,,,,,,,,,,,,,,,,,0,2,2,0,1,,,,,,,,,,,,,,,,,,,,,,,,,,,,,,,,,,,,,,,,,
818610,001,2022-11-21_01h10.28.746,Info_measure_main_exp,2022.2.2,Win32,13.09174696,,,,,,,,,,,,,,,,,,masks/mask_003.jpg,,,,,,,,,,,,,,,,,,,,,,,,,,,,,,,,,,,,,,,,,,,,,,,,0,3,3,2,1,,,,,,,,,,,,,,,,,,,,,,,,,,,,,,,,,,,,,,,,,
818610,001,2022-11-21_01h10.28.746,Info_measure_main_exp,2022.2.2,Win32,13.09174696,,,,,,,,,,,,,,,,,,masks/mask_004.jpg,,,,,,,,,,,,,,,,,,,,,,,,,,,,,,,,,,,,,,,,,,,,,,,,0,4,4,3,1,,,,,,,,,,,,,,,,,,,,,,,,,,,,,,,,,,,,,,,,,
818610,001,2022-11-21_01h10.28.746,Info_measure_main_exp,2022.2.2,Win32,13.09174696,,,,,,,,,,,,,,,,,,,,,,,,,,,,,,7,1.1038,1,,,,,,,,,,,,0,131,5,5,2166,1986,absent_patch/patch0002166.jpg,absent_patch/patch0001986.jpg,,,,,,,,,,,,,,,,,,,,0.04537037,0.135185185,1,0,0,response1disk,10,-0.009259259,0.012037037,1,0,0,center_square,0,9,9,47,1,,,,,,,,,,,,,,,,,,,,,,,
818610,001,2022-11-21_01h10.28.746,Info_measure_main_exp,2022.2.2,Win32,13.09174696,,,,,,,,,,,,,,,,,,masks/mask_001.jpg,,,,,,,,,,,,,,,,,,,,,,,,,,,,,,,,,,,,,,,,,,,0,0,0,0,1,,,,,,,,,,,,,,,,,,,,,,,,,,,,,,,,,,,,,,,,,,,,,,
818610,001,2022-11-21_01h10.28.746,Info_measure_main_exp,2022.2.2,Win32,13.09174696,,,,,,,,,,,,,,,,,,masks/mask_005.jpg,,,,,,,,,,,,,,,,,,,,,,,,,,,,,,,,,,,,,,,,,,,0,1,1,4,1,,,,,,,,,,,,,,,,,,,,,,,,,,,,,,,,,,,,,,,,,,,,,,
818610,001,2022-11-21_01h10.28.746,Info_measure_main_exp,2022.2.2,Win32,13.09174696,,,,,,,,,,,,,,,,,,masks/mask_003.jpg,,,,,,,,,,,,,,,,,,,,,,,,,,,,,,,,,,,,,,,,,,,0,2,2,2,1,,,,,,,,,,,,,,,,,,,,,,,,,,,,,,,,,,,,,,,,,,,,,,
818610,001,2022-11-21_01h10.28.746,Info_measure_main_exp,2022.2.2,Win32,13.09174696,,,,,,,,,,,,,,,,,,masks/mask_002.jpg,,,,,,,,,,,,,,,,,,,,,,,,,,,,,,,,,,,,,,,,,,,0,3,3,1,1,,,,,,,,,,,,,,,,,,,,,,,,,,,,,,,,,,,,,,,,,,,,,,
818610,001,2022-11-21_01h10.28.746,Info_measure_main_exp,2022.2.2,Win32,13.09174696,,,,,,,,,,,,,,,,,,masks/mask_004.jpg,,,,,,,,,,,,,,,,,,,,,,,,,,,,,,,,,,,,,,,,,,,0,4,4,3,1,,,,,,,,,,,,,,,,,,,,,,,,,,,,,,,,,,,,,,,,,,,,,,
818610,001,2022-11-21_01h10.28.746,Info_measure_main_exp,2022.2.2,Win32,13.09174696,,,,,,,,,,,,,,,,,,masks/mask_003.jpg,,,,,,,,,,,,,,,,,,,,,,,,,,,,,,,,,,,,,,,,,,,,,,,,0,0,0,2,1,,,,,,,,,,,,,,,,,,,,,,,,,,,,,,,,,,,,,,,,,
818610,001,2022-11-21_01h10.28.746,Info_measure_main_exp,2022.2.2,Win32,13.09174696,,,,,,,,,,,,,,,,,,masks/mask_005.jpg,,,,,,,,,,,,,,,,,,,,,,,,,,,,,,,,,,,,,,,,,,,,,,,,0,1,1,4,1,,,,,,,,,,,,,,,,,,,,,,,,,,,,,,,,,,,,,,,,,
818610,001,2022-11-21_01h10.28.746,Info_measure_main_exp,2022.2.2,Win32,13.09174696,,,,,,,,,,,,,,,,,,masks/mask_001.jpg,,,,,,,,,,,,,,,,,,,,,,,,,,,,,,,,,,,,,,,,,,,,,,,,0,2,2,0,1,,,,,,,,,,,,,,,,,,,,,,,,,,,,,,,,,,,,,,,,,
818610,001,2022-11-21_01h10.28.746,Info_measure_main_exp,2022.2.2,Win32,13.09174696,,,,,,,,,,,,,,,,,,masks/mask_002.jpg,,,,,,,,,,,,,,,,,,,,,,,,,,,,,,,,,,,,,,,,,,,,,,,,0,3,3,1,1,,,,,,,,,,,,,,,,,,,,,,,,,,,,,,,,,,,,,,,,,
818610,001,2022-11-21_01h10.28.746,Info_measure_main_exp,2022.2.2,Win32,13.09174696,,,,,,,,,,,,,,,,,,masks/mask_004.jpg,,,,,,,,,,,,,,,,,,,,,,,,,,,,,,,,,,,,,,,,,,,,,,,,0,4,4,3,1,,,,,,,,,,,,,,,,,,,,,,,,,,,,,,,,,,,,,,,,,
818610,001,2022-11-21_01h10.28.746,Info_measure_main_exp,2022.2.2,Win32,13.09174696,,,,,,,,,,,,,,,,,,,,,,,,,,,,,,7,0.842,1,,,,,,,,,,,,0,131,5,5,2082,2238,absent_patch/patch0002082.jpg,absent_patch/patch0002238.jpg,,,,,,,,,,,,,,,,,,,,0.04537037,0.139814815,1,0,0,response1disk,11,-0.000925926,0.005555556,1,0,0,center_square,0,10,10,22,1,,,,,,,,,,,,,,,,,,,,,,,
818610,001,2022-11-21_01h10.28.746,Info_measure_main_exp,2022.2.2,Win32,13.09174696,,,,,,,,,,,,,,,,,,masks/mask_004.jpg,,,,,,,,,,,,,,,,,,,,,,,,,,,,,,,,,,,,,,,,,,,0,0,0,3,1,,,,,,,,,,,,,,,,,,,,,,,,,,,,,,,,,,,,,,,,,,,,,,
818610,001,2022-11-21_01h10.28.746,Info_measure_main_exp,2022.2.2,Win32,13.09174696,,,,,,,,,,,,,,,,,,masks/mask_002.jpg,,,,,,,,,,,,,,,,,,,,,,,,,,,,,,,,,,,,,,,,,,,0,1,1,1,1,,,,,,,,,,,,,,,,,,,,,,,,,,,,,,,,,,,,,,,,,,,,,,
818610,001,2022-11-21_01h10.28.746,Info_measure_main_exp,2022.2.2,Win32,13.09174696,,,,,,,,,,,,,,,,,,masks/mask_005.jpg,,,,,,,,,,,,,,,,,,,,,,,,,,,,,,,,,,,,,,,,,,,0,2,2,4,1,,,,,,,,,,,,,,,,,,,,,,,,,,,,,,,,,,,,,,,,,,,,,,
818610,001,2022-11-21_01h10.28.746,Info_measure_main_exp,2022.2.2,Win32,13.09174696,,,,,,,,,,,,,,,,,,masks/mask_003.jpg,,,,,,,,,,,,,,,,,,,,,,,,,,,,,,,,,,,,,,,,,,,0,3,3,2,1,,,,,,,,,,,,,,,,,,,,,,,,,,,,,,,,,,,,,,,,,,,,,,
818610,001,2022-11-21_01h10.28.746,Info_measure_main_exp,2022.2.2,Win32,13.09174696,,,,,,,,,,,,,,,,,,masks/mask_001.jpg,,,,,,,,,,,,,,,,,,,,,,,,,,,,,,,,,,,,,,,,,,,0,4,4,0,1,,,,,,,,,,,,,,,,,,,,,,,,,,,,,,,,,,,,,,,,,,,,,,
818610,001,2022-11-21_01h10.28.746,Info_measure_main_exp,2022.2.2,Win32,13.09174696,,,,,,,,,,,,,,,,,,masks/mask_004.jpg,,,,,,,,,,,,,,,,,,,,,,,,,,,,,,,,,,,,,,,,,,,,,,,,0,0,0,3,1,,,,,,,,,,,,,,,,,,,,,,,,,,,,,,,,,,,,,,,,,
818610,001,2022-11-21_01h10.28.746,Info_measure_main_exp,2022.2.2,Win32,13.09174696,,,,,,,,,,,,,,,,,,masks/mask_002.jpg,,,,,,,,,,,,,,,,,,,,,,,,,,,,,,,,,,,,,,,,,,,,,,,,0,1,1,1,1,,,,,,,,,,,,,,,,,,,,,,,,,,,,,,,,,,,,,,,,,
818610,001,2022-11-21_01h10.28.746,Info_measure_main_exp,2022.2.2,Win32,13.09174696,,,,,,,,,,,,,,,,,,masks/mask_003.jpg,,,,,,,,,,,,,,,,,,,,,,,,,,,,,,,,,,,,,,,,,,,,,,,,0,2,2,2,1,,,,,,,,,,,,,,,,,,,,,,,,,,,,,,,,,,,,,,,,,
818610,001,2022-11-21_01h10.28.746,Info_measure_main_exp,2022.2.2,Win32,13.09174696,,,,,,,,,,,,,,,,,,masks/mask_001.jpg,,,,,,,,,,,,,,,,,,,,,,,,,,,,,,,,,,,,,,,,,,,,,,,,0,3,3,0,1,,,,,,,,,,,,,,,,,,,,,,,,,,,,,,,,,,,,,,,,,
818610,001,2022-11-21_01h10.28.746,Info_measure_main_exp,2022.2.2,Win32,13.09174696,,,,,,,,,,,,,,,,,,masks/mask_005.jpg,,,,,,,,,,,,,,,,,,,,,,,,,,,,,,,,,,,,,,,,,,,,,,,,0,4,4,4,1,,,,,,,,,,,,,,,,,,,,,,,,,,,,,,,,,,,,,,,,,
818610,001,2022-11-21_01h10.28.746,Info_measure_main_exp,2022.2.2,Win32,13.09174696,,,,,,,,,,,,,,,,,,,,,,,,,,,,,,7,1.0202,1,,,,,,,,,,,,0,131,5,5,2142,2190,absent_patch/patch0002142.jpg,absent_patch/patch0002190.jpg,,,,,,,,,,,,,,,,,,,,0.042592593,0.140740741,1,0,0,response1disk,12,-0.002777778,0.001851852,1,0,0,center_square,0,11,11,70,1,,,,,,,,,,,,,,,,,,,,,,,
818610,001,2022-11-21_01h10.28.746,Info_measure_main_exp,2022.2.2,Win32,13.09174696,,,,,,,,,,,,,,,,,,masks/mask_004.jpg,,,,,,,,,,,,,,,,,,,,,,,,,,,,,,,,,,,,,,,,,,,0,0,0,3,1,,,,,,,,,,,,,,,,,,,,,,,,,,,,,,,,,,,,,,,,,,,,,,
818610,001,2022-11-21_01h10.28.746,Info_measure_main_exp,2022.2.2,Win32,13.09174696,,,,,,,,,,,,,,,,,,masks/mask_003.jpg,,,,,,,,,,,,,,,,,,,,,,,,,,,,,,,,,,,,,,,,,,,0,1,1,2,1,,,,,,,,,,,,,,,,,,,,,,,,,,,,,,,,,,,,,,,,,,,,,,
818610,001,2022-11-21_01h10.28.746,Info_measure_main_exp,2022.2.2,Win32,13.09174696,,,,,,,,,,,,,,,,,,masks/mask_005.jpg,,,,,,,,,,,,,,,,,,,,,,,,,,,,,,,,,,,,,,,,,,,0,2,2,4,1,,,,,,,,,,,,,,,,,,,,,,,,,,,,,,,,,,,,,,,,,,,,,,
818610,001,2022-11-21_01h10.28.746,Info_measure_main_exp,2022.2.2,Win32,13.09174696,,,,,,,,,,,,,,,,,,masks/mask_001.jpg,,,,,,,,,,,,,,,,,,,,,,,,,,,,,,,,,,,,,,,,,,,0,3,3,0,1,,,,,,,,,,,,,,,,,,,,,,,,,,,,,,,,,,,,,,,,,,,,,,
818610,001,2022-11-21_01h10.28.746,Info_measure_main_exp,2022.2.2,Win32,13.09174696,,,,,,,,,,,,,,,,,,masks/mask_002.jpg,,,,,,,,,,,,,,,,,,,,,,,,,,,,,,,,,,,,,,,,,,,0,4,4,1,1,,,,,,,,,,,,,,,,,,,,,,,,,,,,,,,,,,,,,,,,,,,,,,
818610,001,2022-11-21_01h10.28.746,Info_measure_main_exp,2022.2.2,Win32,13.09174696,,,,,,,,,,,,,,,,,,masks/mask_001.jpg,,,,,,,,,,,,,,,,,,,,,,,,,,,,,,,,,,,,,,,,,,,,,,,,0,0,0,0,1,,,,,,,,,,,,,,,,,,,,,,,,,,,,,,,,,,,,,,,,,
818610,001,2022-11-21_01h10.28.746,Info_measure_main_exp,2022.2.2,Win32,13.09174696,,,,,,,,,,,,,,,,,,masks/mask_002.jpg,,,,,,,,,,,,,,,,,,,,,,,,,,,,,,,,,,,,,,,,,,,,,,,,0,1,1,1,1,,,,,,,,,,,,,,,,,,,,,,,,,,,,,,,,,,,,,,,,,
818610,001,2022-11-21_01h10.28.746,Info_measure_main_exp,2022.2.2,Win32,13.09174696,,,,,,,,,,,,,,,,,,masks/mask_005.jpg,,,,,,,,,,,,,,,,,,,,,,,,,,,,,,,,,,,,,,,,,,,,,,,,0,2,2,4,1,,,,,,,,,,,,,,,,,,,,,,,,,,,,,,,,,,,,,,,,,
818610,001,2022-11-21_01h10.28.746,Info_measure_main_exp,2022.2.2,Win32,13.09174696,,,,,,,,,,,,,,,,,,masks/mask_003.jpg,,,,,,,,,,,,,,,,,,,,,,,,,,,,,,,,,,,,,,,,,,,,,,,,0,3,3,2,1,,,,,,,,,,,,,,,,,,,,,,,,,,,,,,,,,,,,,,,,,
818610,001,2022-11-21_01h10.28.746,Info_measure_main_exp,2022.2.2,Win32,13.09174696,,,,,,,,,,,,,,,,,,masks/mask_004.jpg,,,,,,,,,,,,,,,,,,,,,,,,,,,,,,,,,,,,,,,,,,,,,,,,0,4,4,3,1,,,,,,,,,,,,,,,,,,,,,,,,,,,,,,,,,,,,,,,,,
818610,001,2022-11-21_01h10.28.746,Info_measure_main_exp,2022.2.2,Win32,13.09174696,,,,,,,,,,,,,,,,,,,,,,,,,,,,,,7,0.7551,1,,,,,,,,,,,,0,131,5,5,2274,2214,absent_patch/patch0002274.jpg,absent_patch/patch0002214.jpg,,,,,,,,,,,,,,,,,,,,0.046296296,0.118518519,1,0,0,response1disk,13,0.007407407,-0.014814815,1,0,0,center_square,0,12,12,11,1,,,,,,,,,,,,,,,,,,,,,,,
818610,001,2022-11-21_01h10.28.746,Info_measure_main_exp,2022.2.2,Win32,13.09174696,,,,,,,,,,,,,,,,,,masks/mask_005.jpg,,,,,,,,,,,,,,,,,,,,,,,,,,,,,,,,,,,,,,,,,,,0,0,0,4,1,,,,,,,,,,,,,,,,,,,,,,,,,,,,,,,,,,,,,,,,,,,,,,
818610,001,2022-11-21_01h10.28.746,Info_measure_main_exp,2022.2.2,Win32,13.09174696,,,,,,,,,,,,,,,,,,masks/mask_003.jpg,,,,,,,,,,,,,,,,,,,,,,,,,,,,,,,,,,,,,,,,,,,0,1,1,2,1,,,,,,,,,,,,,,,,,,,,,,,,,,,,,,,,,,,,,,,,,,,,,,
818610,001,2022-11-21_01h10.28.746,Info_measure_main_exp,2022.2.2,Win32,13.09174696,,,,,,,,,,,,,,,,,,masks/mask_002.jpg,,,,,,,,,,,,,,,,,,,,,,,,,,,,,,,,,,,,,,,,,,,0,2,2,1,1,,,,,,,,,,,,,,,,,,,,,,,,,,,,,,,,,,,,,,,,,,,,,,
818610,001,2022-11-21_01h10.28.746,Info_measure_main_exp,2022.2.2,Win32,13.09174696,,,,,,,,,,,,,,,,,,masks/mask_004.jpg,,,,,,,,,,,,,,,,,,,,,,,,,,,,,,,,,,,,,,,,,,,0,3,3,3,1,,,,,,,,,,,,,,,,,,,,,,,,,,,,,,,,,,,,,,,,,,,,,,
818610,001,2022-11-21_01h10.28.746,Info_measure_main_exp,2022.2.2,Win32,13.09174696,,,,,,,,,,,,,,,,,,masks/mask_001.jpg,,,,,,,,,,,,,,,,,,,,,,,,,,,,,,,,,,,,,,,,,,,0,4,4,0,1,,,,,,,,,,,,,,,,,,,,,,,,,,,,,,,,,,,,,,,,,,,,,,
818610,001,2022-11-21_01h10.28.746,Info_measure_main_exp,2022.2.2,Win32,13.09174696,,,,,,,,,,,,,,,,,,masks/mask_002.jpg,,,,,,,,,,,,,,,,,,,,,,,,,,,,,,,,,,,,,,,,,,,,,,,,0,0,0,1,1,,,,,,,,,,,,,,,,,,,,,,,,,,,,,,,,,,,,,,,,,
818610,001,2022-11-21_01h10.28.746,Info_measure_main_exp,2022.2.2,Win32,13.09174696,,,,,,,,,,,,,,,,,,masks/mask_005.jpg,,,,,,,,,,,,,,,,,,,,,,,,,,,,,,,,,,,,,,,,,,,,,,,,0,1,1,4,1,,,,,,,,,,,,,,,,,,,,,,,,,,,,,,,,,,,,,,,,,
818610,001,2022-11-21_01h10.28.746,Info_measure_main_exp,2022.2.2,Win32,13.09174696,,,,,,,,,,,,,,,,,,masks/mask_003.jpg,,,,,,,,,,,,,,,,,,,,,,,,,,,,,,,,,,,,,,,,,,,,,,,,0,2,2,2,1,,,,,,,,,,,,,,,,,,,,,,,,,,,,,,,,,,,,,,,,,
818610,001,2022-11-21_01h10.28.746,Info_measure_main_exp,2022.2.2,Win32,13.09174696,,,,,,,,,,,,,,,,,,masks/mask_004.jpg,,,,,,,,,,,,,,,,,,,,,,,,,,,,,,,,,,,,,,,,,,,,,,,,0,3,3,3,1,,,,,,,,,,,,,,,,,,,,,,,,,,,,,,,,,,,,,,,,,
818610,001,2022-11-21_01h10.28.746,Info_measure_main_exp,2022.2.2,Win32,13.09174696,,,,,,,,,,,,,,,,,,masks/mask_001.jpg,,,,,,,,,,,,,,,,,,,,,,,,,,,,,,,,,,,,,,,,,,,,,,,,0,4,4,0,1,,,,,,,,,,,,,,,,,,,,,,,,,,,,,,,,,,,,,,,,,
818610,001,2022-11-21_01h10.28.746,Info_measure_main_exp,2022.2.2,Win32,13.09174696,,,,,,,,,,,,,,,,,,,,,,,,,,,,,,7,0.6489,1,,,,,,,,,,,,0,131,5,5,1950,2214,absent_patch/patch0001950.jpg,absent_patch/patch0002214.jpg,,,,,,,,,,,,,,,,,,,,0.032407407,0.146296296,1,0,0,response1disk,14,-0.006481481,-0.005555556,1,0,0,center_square,0,13,13,85,1,,,,,,,,,,,,,,,,,,,,,,,
818610,001,2022-11-21_01h10.28.746,Info_measure_main_exp,2022.2.2,Win32,13.09174696,,,,,,,,,,,,,,,,,,masks/mask_005.jpg,,,,,,,,,,,,,,,,,,,,,,,,,,,,,,,,,,,,,,,,,,,0,0,0,4,1,,,,,,,,,,,,,,,,,,,,,,,,,,,,,,,,,,,,,,,,,,,,,,
818610,001,2022-11-21_01h10.28.746,Info_measure_main_exp,2022.2.2,Win32,13.09174696,,,,,,,,,,,,,,,,,,masks/mask_003.jpg,,,,,,,,,,,,,,,,,,,,,,,,,,,,,,,,,,,,,,,,,,,0,1,1,2,1,,,,,,,,,,,,,,,,,,,,,,,,,,,,,,,,,,,,,,,,,,,,,,
818610,001,2022-11-21_01h10.28.746,Info_measure_main_exp,2022.2.2,Win32,13.09174696,,,,,,,,,,,,,,,,,,masks/mask_004.jpg,,,,,,,,,,,,,,,,,,,,,,,,,,,,,,,,,,,,,,,,,,,0,2,2,3,1,,,,,,,,,,,,,,,,,,,,,,,,,,,,,,,,,,,,,,,,,,,,,,
818610,001,2022-11-21_01h10.28.746,Info_measure_main_exp,2022.2.2,Win32,13.09174696,,,,,,,,,,,,,,,,,,masks/mask_001.jpg,,,,,,,,,,,,,,,,,,,,,,,,,,,,,,,,,,,,,,,,,,,0,3,3,0,1,,,,,,,,,,,,,,,,,,,,,,,,,,,,,,,,,,,,,,,,,,,,,,
818610,001,2022-11-21_01h10.28.746,Info_measure_main_exp,2022.2.2,Win32,13.09174696,,,,,,,,,,,,,,,,,,masks/mask_002.jpg,,,,,,,,,,,,,,,,,,,,,,,,,,,,,,,,,,,,,,,,,,,0,4,4,1,1,,,,,,,,,,,,,,,,,,,,,,,,,,,,,,,,,,,,,,,,,,,,,,
818610,001,2022-11-21_01h10.28.746,Info_measure_main_exp,2022.2.2,Win32,13.09174696,,,,,,,,,,,,,,,,,,masks/mask_003.jpg,,,,,,,,,,,,,,,,,,,,,,,,,,,,,,,,,,,,,,,,,,,,,,,,0,0,0,2,1,,,,,,,,,,,,,,,,,,,,,,,,,,,,,,,,,,,,,,,,,
818610,001,2022-11-21_01h10.28.746,Info_measure_main_exp,2022.2.2,Win32,13.09174696,,,,,,,,,,,,,,,,,,masks/mask_005.jpg,,,,,,,,,,,,,,,,,,,,,,,,,,,,,,,,,,,,,,,,,,,,,,,,0,1,1,4,1,,,,,,,,,,,,,,,,,,,,,,,,,,,,,,,,,,,,,,,,,
818610,001,2022-11-21_01h10.28.746,Info_measure_main_exp,2022.2.2,Win32,13.09174696,,,,,,,,,,,,,,,,,,masks/mask_001.jpg,,,,,,,,,,,,,,,,,,,,,,,,,,,,,,,,,,,,,,,,,,,,,,,,0,2,2,0,1,,,,,,,,,,,,,,,,,,,,,,,,,,,,,,,,,,,,,,,,,
818610,001,2022-11-21_01h10.28.746,Info_measure_main_exp,2022.2.2,Win32,13.09174696,,,,,,,,,,,,,,,,,,masks/mask_004.jpg,,,,,,,,,,,,,,,,,,,,,,,,,,,,,,,,,,,,,,,,,,,,,,,,0,3,3,3,1,,,,,,,,,,,,,,,,,,,,,,,,,,,,,,,,,,,,,,,,,
818610,001,2022-11-21_01h10.28.746,Info_measure_main_exp,2022.2.2,Win32,13.09174696,,,,,,,,,,,,,,,,,,masks/mask_002.jpg,,,,,,,,,,,,,,,,,,,,,,,,,,,,,,,,,,,,,,,,,,,,,,,,0,4,4,1,1,,,,,,,,,,,,,,,,,,,,,,,,,,,,,,,,,,,,,,,,,
818610,001,2022-11-21_01h10.28.746,Info_measure_main_exp,2022.2.2,Win32,13.09174696,,,,,,,,,,,,,,,,,,,,,,,,,,,,,,7,3.9119,1,,,,,,,,,,,,0,131,5,5,1974,2250,absent_patch/patch0001974.jpg,absent_patch/patch0002250.jpg,,,,,,,,,,,,,,,,,,,,0.036111111,0.082407407,1,0,0,response1disk,15,0.00462963,-0.003703704,1,0,0,center_square,0,14,14,55,1,,,,,,,,,,,,,,,,,,,,,,,
818610,001,2022-11-21_01h10.28.746,Info_measure_main_exp,2022.2.2,Win32,13.09174696,,,,,,,,,,,,,,,,,,masks/mask_002.jpg,,,,,,,,,,,,,,,,,,,,,,,,,,,,,,,,,,,,,,,,,,,0,0,0,1,1,,,,,,,,,,,,,,,,,,,,,,,,,,,,,,,,,,,,,,,,,,,,,,
818610,001,2022-11-21_01h10.28.746,Info_measure_main_exp,2022.2.2,Win32,13.09174696,,,,,,,,,,,,,,,,,,masks/mask_004.jpg,,,,,,,,,,,,,,,,,,,,,,,,,,,,,,,,,,,,,,,,,,,0,1,1,3,1,,,,,,,,,,,,,,,,,,,,,,,,,,,,,,,,,,,,,,,,,,,,,,
818610,001,2022-11-21_01h10.28.746,Info_measure_main_exp,2022.2.2,Win32,13.09174696,,,,,,,,,,,,,,,,,,masks/mask_005.jpg,,,,,,,,,,,,,,,,,,,,,,,,,,,,,,,,,,,,,,,,,,,0,2,2,4,1,,,,,,,,,,,,,,,,,,,,,,,,,,,,,,,,,,,,,,,,,,,,,,
818610,001,2022-11-21_01h10.28.746,Info_measure_main_exp,2022.2.2,Win32,13.09174696,,,,,,,,,,,,,,,,,,masks/mask_003.jpg,,,,,,,,,,,,,,,,,,,,,,,,,,,,,,,,,,,,,,,,,,,0,3,3,2,1,,,,,,,,,,,,,,,,,,,,,,,,,,,,,,,,,,,,,,,,,,,,,,
818610,001,2022-11-21_01h10.28.746,Info_measure_main_exp,2022.2.2,Win32,13.09174696,,,,,,,,,,,,,,,,,,masks/mask_001.jpg,,,,,,,,,,,,,,,,,,,,,,,,,,,,,,,,,,,,,,,,,,,0,4,4,0,1,,,,,,,,,,,,,,,,,,,,,,,,,,,,,,,,,,,,,,,,,,,,,,
818610,001,2022-11-21_01h10.28.746,Info_measure_main_exp,2022.2.2,Win32,13.09174696,,,,,,,,,,,,,,,,,,masks/mask_003.jpg,,,,,,,,,,,,,,,,,,,,,,,,,,,,,,,,,,,,,,,,,,,,,,,,0,0,0,2,1,,,,,,,,,,,,,,,,,,,,,,,,,,,,,,,,,,,,,,,,,
818610,001,2022-11-21_01h10.28.746,Info_measure_main_exp,2022.2.2,Win32,13.09174696,,,,,,,,,,,,,,,,,,masks/mask_004.jpg,,,,,,,,,,,,,,,,,,,,,,,,,,,,,,,,,,,,,,,,,,,,,,,,0,1,1,3,1,,,,,,,,,,,,,,,,,,,,,,,,,,,,,,,,,,,,,,,,,
818610,001,2022-11-21_01h10.28.746,Info_measure_main_exp,2022.2.2,Win32,13.09174696,,,,,,,,,,,,,,,,,,masks/mask_001.jpg,,,,,,,,,,,,,,,,,,,,,,,,,,,,,,,,,,,,,,,,,,,,,,,,0,2,2,0,1,,,,,,,,,,,,,,,,,,,,,,,,,,,,,,,,,,,,,,,,,
818610,001,2022-11-21_01h10.28.746,Info_measure_main_exp,2022.2.2,Win32,13.09174696,,,,,,,,,,,,,,,,,,masks/mask_002.jpg,,,,,,,,,,,,,,,,,,,,,,,,,,,,,,,,,,,,,,,,,,,,,,,,0,3,3,1,1,,,,,,,,,,,,,,,,,,,,,,,,,,,,,,,,,,,,,,,,,
818610,001,2022-11-21_01h10.28.746,Info_measure_main_exp,2022.2.2,Win32,13.09174696,,,,,,,,,,,,,,,,,,masks/mask_005.jpg,,,,,,,,,,,,,,,,,,,,,,,,,,,,,,,,,,,,,,,,,,,,,,,,0,4,4,4,1,,,,,,,,,,,,,,,,,,,,,,,,,,,,,,,,,,,,,,,,,
818610,001,2022-11-21_01h10.28.746,Info_measure_main_exp,2022.2.2,Win32,13.09174696,,,,,,,,,,,,,,,,,,,,,,,,,,,,,,7,0.6605,1,,,,,,,,,,,,0,131,5,5,2178,2238,absent_patch/patch0002178.jpg,absent_patch/patch0002238.jpg,,,,,,,,,,,,,,,,,,,,0.024074074,0.090740741,1,0,0,response1disk,16,0.006481481,-0.007407407,1,0,0,center_square,0,15,15,57,1,,,,,,,,,,,,,,,,,,,,,,,
818610,001,2022-11-21_01h10.28.746,Info_measure_main_exp,2022.2.2,Win32,13.09174696,,,,,,,,,,,,,,,,,,masks/mask_002.jpg,,,,,,,,,,,,,,,,,,,,,,,,,,,,,,,,,,,,,,,,,,,0,0,0,1,1,,,,,,,,,,,,,,,,,,,,,,,,,,,,,,,,,,,,,,,,,,,,,,
818610,001,2022-11-21_01h10.28.746,Info_measure_main_exp,2022.2.2,Win32,13.09174696,,,,,,,,,,,,,,,,,,masks/mask_004.jpg,,,,,,,,,,,,,,,,,,,,,,,,,,,,,,,,,,,,,,,,,,,0,1,1,3,1,,,,,,,,,,,,,,,,,,,,,,,,,,,,,,,,,,,,,,,,,,,,,,
818610,001,2022-11-21_01h10.28.746,Info_measure_main_exp,2022.2.2,Win32,13.09174696,,,,,,,,,,,,,,,,,,masks/mask_003.jpg,,,,,,,,,,,,,,,,,,,,,,,,,,,,,,,,,,,,,,,,,,,0,2,2,2,1,,,,,,,,,,,,,,,,,,,,,,,,,,,,,,,,,,,,,,,,,,,,,,
818610,001,2022-11-21_01h10.28.746,Info_measure_main_exp,2022.2.2,Win32,13.09174696,,,,,,,,,,,,,,,,,,masks/mask_001.jpg,,,,,,,,,,,,,,,,,,,,,,,,,,,,,,,,,,,,,,,,,,,0,3,3,0,1,,,,,,,,,,,,,,,,,,,,,,,,,,,,,,,,,,,,,,,,,,,,,,
818610,001,2022-11-21_01h10.28.746,Info_measure_main_exp,2022.2.2,Win32,13.09174696,,,,,,,,,,,,,,,,,,masks/mask_005.jpg,,,,,,,,,,,,,,,,,,,,,,,,,,,,,,,,,,,,,,,,,,,0,4,4,4,1,,,,,,,,,,,,,,,,,,,,,,,,,,,,,,,,,,,,,,,,,,,,,,
818610,001,2022-11-21_01h10.28.746,Info_measure_main_exp,2022.2.2,Win32,13.09174696,,,,,,,,,,,,,,,,,,masks/mask_005.jpg,,,,,,,,,,,,,,,,,,,,,,,,,,,,,,,,,,,,,,,,,,,,,,,,0,0,0,4,1,,,,,,,,,,,,,,,,,,,,,,,,,,,,,,,,,,,,,,,,,
818610,001,2022-11-21_01h10.28.746,Info_measure_main_exp,2022.2.2,Win32,13.09174696,,,,,,,,,,,,,,,,,,masks/mask_001.jpg,,,,,,,,,,,,,,,,,,,,,,,,,,,,,,,,,,,,,,,,,,,,,,,,0,1,1,0,1,,,,,,,,,,,,,,,,,,,,,,,,,,,,,,,,,,,,,,,,,
818610,001,2022-11-21_01h10.28.746,Info_measure_main_exp,2022.2.2,Win32,13.09174696,,,,,,,,,,,,,,,,,,masks/mask_002.jpg,,,,,,,,,,,,,,,,,,,,,,,,,,,,,,,,,,,,,,,,,,,,,,,,0,2,2,1,1,,,,,,,,,,,,,,,,,,,,,,,,,,,,,,,,,,,,,,,,,
818610,001,2022-11-21_01h10.28.746,Info_measure_main_exp,2022.2.2,Win32,13.09174696,,,,,,,,,,,,,,,,,,masks/mask_004.jpg,,,,,,,,,,,,,,,,,,,,,,,,,,,,,,,,,,,,,,,,,,,,,,,,0,3,3,3,1,,,,,,,,,,,,,,,,,,,,,,,,,,,,,,,,,,,,,,,,,
818610,001,2022-11-21_01h10.28.746,Info_measure_main_exp,2022.2.2,Win32,13.09174696,,,,,,,,,,,,,,,,,,masks/mask_003.jpg,,,,,,,,,,,,,,,,,,,,,,,,,,,,,,,,,,,,,,,,,,,,,,,,0,4,4,2,1,,,,,,,,,,,,,,,,,,,,,,,,,,,,,,,,,,,,,,,,,
818610,001,2022-11-21_01h10.28.746,Info_measure_main_exp,2022.2.2,Win32,13.09174696,,,,,,,,,,,,,,,,,,,,,,,,,,,,,,7,0.6565,1,,,,,,,,,,,,0,131,5,5,2214,2178,absent_patch/patch0002214.jpg,absent_patch/patch0002178.jpg,,,,,,,,,,,,,,,,,,,,0.024074074,0.106481481,1,0,0,response1disk,17,0.00462963,0.00462963,1,0,0,center_square,0,16,16,62,1,,,,,,,,,,,,,,,,,,,,,,,
818610,001,2022-11-21_01h10.28.746,Info_measure_main_exp,2022.2.2,Win32,13.09174696,,,,,,,,,,,,,,,,,,masks/mask_001.jpg,,,,,,,,,,,,,,,,,,,,,,,,,,,,,,,,,,,,,,,,,,,0,0,0,0,1,,,,,,,,,,,,,,,,,,,,,,,,,,,,,,,,,,,,,,,,,,,,,,
818610,001,2022-11-21_01h10.28.746,Info_measure_main_exp,2022.2.2,Win32,13.09174696,,,,,,,,,,,,,,,,,,masks/mask_005.jpg,,,,,,,,,,,,,,,,,,,,,,,,,,,,,,,,,,,,,,,,,,,0,1,1,4,1,,,,,,,,,,,,,,,,,,,,,,,,,,,,,,,,,,,,,,,,,,,,,,
818610,001,2022-11-21_01h10.28.746,Info_measure_main_exp,2022.2.2,Win32,13.09174696,,,,,,,,,,,,,,,,,,masks/mask_003.jpg,,,,,,,,,,,,,,,,,,,,,,,,,,,,,,,,,,,,,,,,,,,0,2,2,2,1,,,,,,,,,,,,,,,,,,,,,,,,,,,,,,,,,,,,,,,,,,,,,,
818610,001,2022-11-21_01h10.28.746,Info_measure_main_exp,2022.2.2,Win32,13.09174696,,,,,,,,,,,,,,,,,,masks/mask_004.jpg,,,,,,,,,,,,,,,,,,,,,,,,,,,,,,,,,,,,,,,,,,,0,3,3,3,1,,,,,,,,,,,,,,,,,,,,,,,,,,,,,,,,,,,,,,,,,,,,,,
818610,001,2022-11-21_01h10.28.746,Info_measure_main_exp,2022.2.2,Win32,13.09174696,,,,,,,,,,,,,,,,,,masks/mask_002.jpg,,,,,,,,,,,,,,,,,,,,,,,,,,,,,,,,,,,,,,,,,,,0,4,4,1,1,,,,,,,,,,,,,,,,,,,,,,,,,,,,,,,,,,,,,,,,,,,,,,
818610,001,2022-11-21_01h10.28.746,Info_measure_main_exp,2022.2.2,Win32,13.09174696,,,,,,,,,,,,,,,,,,masks/mask_003.jpg,,,,,,,,,,,,,,,,,,,,,,,,,,,,,,,,,,,,,,,,,,,,,,,,0,0,0,2,1,,,,,,,,,,,,,,,,,,,,,,,,,,,,,,,,,,,,,,,,,
818610,001,2022-11-21_01h10.28.746,Info_measure_main_exp,2022.2.2,Win32,13.09174696,,,,,,,,,,,,,,,,,,masks/mask_002.jpg,,,,,,,,,,,,,,,,,,,,,,,,,,,,,,,,,,,,,,,,,,,,,,,,0,1,1,1,1,,,,,,,,,,,,,,,,,,,,,,,,,,,,,,,,,,,,,,,,,
818610,001,2022-11-21_01h10.28.746,Info_measure_main_exp,2022.2.2,Win32,13.09174696,,,,,,,,,,,,,,,,,,masks/mask_001.jpg,,,,,,,,,,,,,,,,,,,,,,,,,,,,,,,,,,,,,,,,,,,,,,,,0,2,2,0,1,,,,,,,,,,,,,,,,,,,,,,,,,,,,,,,,,,,,,,,,,
818610,001,2022-11-21_01h10.28.746,Info_measure_main_exp,2022.2.2,Win32,13.09174696,,,,,,,,,,,,,,,,,,masks/mask_004.jpg,,,,,,,,,,,,,,,,,,,,,,,,,,,,,,,,,,,,,,,,,,,,,,,,0,3,3,3,1,,,,,,,,,,,,,,,,,,,,,,,,,,,,,,,,,,,,,,,,,
818610,001,2022-11-21_01h10.28.746,Info_measure_main_exp,2022.2.2,Win32,13.09174696,,,,,,,,,,,,,,,,,,masks/mask_005.jpg,,,,,,,,,,,,,,,,,,,,,,,,,,,,,,,,,,,,,,,,,,,,,,,,0,4,4,4,1,,,,,,,,,,,,,,,,,,,,,,,,,,,,,,,,,,,,,,,,,
818610,001,2022-11-21_01h10.28.746,Info_measure_main_exp,2022.2.2,Win32,13.09174696,,,,,,,,,,,,,,,,,,,,,,,,,,,,,,7,0.6342,1,,,,,,,,,,,,1,131,5,5,1950,1,absent_patch/patch0001950.jpg,present_patch/cong_131_5_a.jpg,,,,,,,,,,,,,,,,,,,,0.026851852,0.107407407,1,0,0,response1disk,18,0.001851852,-0.00462963,1,0,0,center_square,0,17,17,39,1,,,,,,,,,,,,,,,,,,,,,,,
818610,001,2022-11-21_01h10.28.746,Info_measure_main_exp,2022.2.2,Win32,13.09174696,,,,,,,,,,,,,,,,,,masks/mask_002.jpg,,,,,,,,,,,,,,,,,,,,,,,,,,,,,,,,,,,,,,,,,,,0,0,0,1,1,,,,,,,,,,,,,,,,,,,,,,,,,,,,,,,,,,,,,,,,,,,,,,
818610,001,2022-11-21_01h10.28.746,Info_measure_main_exp,2022.2.2,Win32,13.09174696,,,,,,,,,,,,,,,,,,masks/mask_004.jpg,,,,,,,,,,,,,,,,,,,,,,,,,,,,,,,,,,,,,,,,,,,0,1,1,3,1,,,,,,,,,,,,,,,,,,,,,,,,,,,,,,,,,,,,,,,,,,,,,,
818610,001,2022-11-21_01h10.28.746,Info_measure_main_exp,2022.2.2,Win32,13.09174696,,,,,,,,,,,,,,,,,,masks/mask_003.jpg,,,,,,,,,,,,,,,,,,,,,,,,,,,,,,,,,,,,,,,,,,,0,2,2,2,1,,,,,,,,,,,,,,,,,,,,,,,,,,,,,,,,,,,,,,,,,,,,,,
818610,001,2022-11-21_01h10.28.746,Info_measure_main_exp,2022.2.2,Win32,13.09174696,,,,,,,,,,,,,,,,,,masks/mask_001.jpg,,,,,,,,,,,,,,,,,,,,,,,,,,,,,,,,,,,,,,,,,,,0,3,3,0,1,,,,,,,,,,,,,,,,,,,,,,,,,,,,,,,,,,,,,,,,,,,,,,
818610,001,2022-11-21_01h10.28.746,Info_measure_main_exp,2022.2.2,Win32,13.09174696,,,,,,,,,,,,,,,,,,masks/mask_005.jpg,,,,,,,,,,,,,,,,,,,,,,,,,,,,,,,,,,,,,,,,,,,0,4,4,4,1,,,,,,,,,,,,,,,,,,,,,,,,,,,,,,,,,,,,,,,,,,,,,,
818610,001,2022-11-21_01h10.28.746,Info_measure_main_exp,2022.2.2,Win32,13.09174696,,,,,,,,,,,,,,,,,,masks/mask_005.jpg,,,,,,,,,,,,,,,,,,,,,,,,,,,,,,,,,,,,,,,,,,,,,,,,0,0,0,4,1,,,,,,,,,,,,,,,,,,,,,,,,,,,,,,,,,,,,,,,,,
818610,001,2022-11-21_01h10.28.746,Info_measure_main_exp,2022.2.2,Win32,13.09174696,,,,,,,,,,,,,,,,,,masks/mask_002.jpg,,,,,,,,,,,,,,,,,,,,,,,,,,,,,,,,,,,,,,,,,,,,,,,,0,1,1,1,1,,,,,,,,,,,,,,,,,,,,,,,,,,,,,,,,,,,,,,,,,
818610,001,2022-11-21_01h10.28.746,Info_measure_main_exp,2022.2.2,Win32,13.09174696,,,,,,,,,,,,,,,,,,masks/mask_004.jpg,,,,,,,,,,,,,,,,,,,,,,,,,,,,,,,,,,,,,,,,,,,,,,,,0,2,2,3,1,,,,,,,,,,,,,,,,,,,,,,,,,,,,,,,,,,,,,,,,,
818610,001,2022-11-21_01h10.28.746,Info_measure_main_exp,2022.2.2,Win32,13.09174696,,,,,,,,,,,,,,,,,,masks/mask_001.jpg,,,,,,,,,,,,,,,,,,,,,,,,,,,,,,,,,,,,,,,,,,,,,,,,0,3,3,0,1,,,,,,,,,,,,,,,,,,,,,,,,,,,,,,,,,,,,,,,,,
818610,001,2022-11-21_01h10.28.746,Info_measure_main_exp,2022.2.2,Win32,13.09174696,,,,,,,,,,,,,,,,,,masks/mask_003.jpg,,,,,,,,,,,,,,,,,,,,,,,,,,,,,,,,,,,,,,,,,,,,,,,,0,4,4,2,1,,,,,,,,,,,,,,,,,,,,,,,,,,,,,,,,,,,,,,,,,
818610,001,2022-11-21_01h10.28.746,Info_measure_main_exp,2022.2.2,Win32,13.09174696,,,,,,,,,,,,,,,,,,,,,,,,,,,,,,7,0.6698,1,,,,,,,,,,,,0,131,5,5,1950,2142,absent_patch/patch0001950.jpg,absent_patch/patch0002142.jpg,,,,,,,,,,,,,,,,,,,,0.017592593,0.096296296,1,0,0,response1disk,19,0.006481481,-0.006481481,1,0,0,center_square,0,18,18,83,1,,,,,,,,,,,,,,,,,,,,,,,
818610,001,2022-11-21_01h10.28.746,Info_measure_main_exp,2022.2.2,Win32,13.09174696,,,,,,,,,,,,,,,,,,masks/mask_005.jpg,,,,,,,,,,,,,,,,,,,,,,,,,,,,,,,,,,,,,,,,,,,0,0,0,4,1,,,,,,,,,,,,,,,,,,,,,,,,,,,,,,,,,,,,,,,,,,,,,,
818610,001,2022-11-21_01h10.28.746,Info_measure_main_exp,2022.2.2,Win32,13.09174696,,,,,,,,,,,,,,,,,,masks/mask_004.jpg,,,,,,,,,,,,,,,,,,,,,,,,,,,,,,,,,,,,,,,,,,,0,1,1,3,1,,,,,,,,,,,,,,,,,,,,,,,,,,,,,,,,,,,,,,,,,,,,,,
818610,001,2022-11-21_01h10.28.746,Info_measure_main_exp,2022.2.2,Win32,13.09174696,,,,,,,,,,,,,,,,,,masks/mask_002.jpg,,,,,,,,,,,,,,,,,,,,,,,,,,,,,,,,,,,,,,,,,,,0,2,2,1,1,,,,,,,,,,,,,,,,,,,,,,,,,,,,,,,,,,,,,,,,,,,,,,
818610,001,2022-11-21_01h10.28.746,Info_measure_main_exp,2022.2.2,Win32,13.09174696,,,,,,,,,,,,,,,,,,masks/mask_001.jpg,,,,,,,,,,,,,,,,,,,,,,,,,,,,,,,,,,,,,,,,,,,0,3,3,0,1,,,,,,,,,,,,,,,,,,,,,,,,,,,,,,,,,,,,,,,,,,,,,,
818610,001,2022-11-21_01h10.28.746,Info_measure_main_exp,2022.2.2,Win32,13.09174696,,,,,,,,,,,,,,,,,,masks/mask_003.jpg,,,,,,,,,,,,,,,,,,,,,,,,,,,,,,,,,,,,,,,,,,,0,4,4,2,1,,,,,,,,,,,,,,,,,,,,,,,,,,,,,,,,,,,,,,,,,,,,,,
818610,001,2022-11-21_01h10.28.746,Info_measure_main_exp,2022.2.2,Win32,13.09174696,,,,,,,,,,,,,,,,,,masks/mask_004.jpg,,,,,,,,,,,,,,,,,,,,,,,,,,,,,,,,,,,,,,,,,,,,,,,,0,0,0,3,1,,,,,,,,,,,,,,,,,,,,,,,,,,,,,,,,,,,,,,,,,
818610,001,2022-11-21_01h10.28.746,Info_measure_main_exp,2022.2.2,Win32,13.09174696,,,,,,,,,,,,,,,,,,masks/mask_003.jpg,,,,,,,,,,,,,,,,,,,,,,,,,,,,,,,,,,,,,,,,,,,,,,,,0,1,1,2,1,,,,,,,,,,,,,,,,,,,,,,,,,,,,,,,,,,,,,,,,,
818610,001,2022-11-21_01h10.28.746,Info_measure_main_exp,2022.2.2,Win32,13.09174696,,,,,,,,,,,,,,,,,,masks/mask_001.jpg,,,,,,,,,,,,,,,,,,,,,,,,,,,,,,,,,,,,,,,,,,,,,,,,0,2,2,0,1,,,,,,,,,,,,,,,,,,,,,,,,,,,,,,,,,,,,,,,,,
818610,001,2022-11-21_01h10.28.746,Info_measure_main_exp,2022.2.2,Win32,13.09174696,,,,,,,,,,,,,,,,,,masks/mask_005.jpg,,,,,,,,,,,,,,,,,,,,,,,,,,,,,,,,,,,,,,,,,,,,,,,,0,3,3,4,1,,,,,,,,,,,,,,,,,,,,,,,,,,,,,,,,,,,,,,,,,
818610,001,2022-11-21_01h10.28.746,Info_measure_main_exp,2022.2.2,Win32,13.09174696,,,,,,,,,,,,,,,,,,masks/mask_002.jpg,,,,,,,,,,,,,,,,,,,,,,,,,,,,,,,,,,,,,,,,,,,,,,,,0,4,4,1,1,,,,,,,,,,,,,,,,,,,,,,,,,,,,,,,,,,,,,,,,,
818610,001,2022-11-21_01h10.28.746,Info_measure_main_exp,2022.2.2,Win32,13.09174696,,,,,,,,,,,,,,,,,,,,,,,,,,,,,,7,0.6649,1,,,,,,,,,,,,0,131,5,5,2274,2154,absent_patch/patch0002274.jpg,absent_patch/patch0002154.jpg,,,,,,,,,,,,,,,,,,,,0.018518519,0.090740741,1,0,0,response1disk,20,0.009259259,0.007407407,1,0,0,center_square,0,19,19,23,1,,,,,,,,,,,,,,,,,,,,,,,
818610,001,2022-11-21_01h10.28.746,Info_measure_main_exp,2022.2.2,Win32,13.09174696,,,,,,,,,,,,,,,,,,masks/mask_001.jpg,,,,,,,,,,,,,,,,,,,,,,,,,,,,,,,,,,,,,,,,,,,0,0,0,0,1,,,,,,,,,,,,,,,,,,,,,,,,,,,,,,,,,,,,,,,,,,,,,,
818610,001,2022-11-21_01h10.28.746,Info_measure_main_exp,2022.2.2,Win32,13.09174696,,,,,,,,,,,,,,,,,,masks/mask_003.jpg,,,,,,,,,,,,,,,,,,,,,,,,,,,,,,,,,,,,,,,,,,,0,1,1,2,1,,,,,,,,,,,,,,,,,,,,,,,,,,,,,,,,,,,,,,,,,,,,,,
818610,001,2022-11-21_01h10.28.746,Info_measure_main_exp,2022.2.2,Win32,13.09174696,,,,,,,,,,,,,,,,,,masks/mask_002.jpg,,,,,,,,,,,,,,,,,,,,,,,,,,,,,,,,,,,,,,,,,,,0,2,2,1,1,,,,,,,,,,,,,,,,,,,,,,,,,,,,,,,,,,,,,,,,,,,,,,
818610,001,2022-11-21_01h10.28.746,Info_measure_main_exp,2022.2.2,Win32,13.09174696,,,,,,,,,,,,,,,,,,masks/mask_004.jpg,,,,,,,,,,,,,,,,,,,,,,,,,,,,,,,,,,,,,,,,,,,0,3,3,3,1,,,,,,,,,,,,,,,,,,,,,,,,,,,,,,,,,,,,,,,,,,,,,,
818610,001,2022-11-21_01h10.28.746,Info_measure_main_exp,2022.2.2,Win32,13.09174696,,,,,,,,,,,,,,,,,,masks/mask_005.jpg,,,,,,,,,,,,,,,,,,,,,,,,,,,,,,,,,,,,,,,,,,,0,4,4,4,1,,,,,,,,,,,,,,,,,,,,,,,,,,,,,,,,,,,,,,,,,,,,,,
818610,001,2022-11-21_01h10.28.746,Info_measure_main_exp,2022.2.2,Win32,13.09174696,,,,,,,,,,,,,,,,,,masks/mask_002.jpg,,,,,,,,,,,,,,,,,,,,,,,,,,,,,,,,,,,,,,,,,,,,,,,,0,0,0,1,1,,,,,,,,,,,,,,,,,,,,,,,,,,,,,,,,,,,,,,,,,
818610,001,2022-11-21_01h10.28.746,Info_measure_main_exp,2022.2.2,Win32,13.09174696,,,,,,,,,,,,,,,,,,masks/mask_001.jpg,,,,,,,,,,,,,,,,,,,,,,,,,,,,,,,,,,,,,,,,,,,,,,,,0,1,1,0,1,,,,,,,,,,,,,,,,,,,,,,,,,,,,,,,,,,,,,,,,,
818610,001,2022-11-21_01h10.28.746,Info_measure_main_exp,2022.2.2,Win32,13.09174696,,,,,,,,,,,,,,,,,,masks/mask_005.jpg,,,,,,,,,,,,,,,,,,,,,,,,,,,,,,,,,,,,,,,,,,,,,,,,0,2,2,4,1,,,,,,,,,,,,,,,,,,,,,,,,,,,,,,,,,,,,,,,,,
818610,001,2022-11-21_01h10.28.746,Info_measure_main_exp,2022.2.2,Win32,13.09174696,,,,,,,,,,,,,,,,,,masks/mask_004.jpg,,,,,,,,,,,,,,,,,,,,,,,,,,,,,,,,,,,,,,,,,,,,,,,,0,3,3,3,1,,,,,,,,,,,,,,,,,,,,,,,,,,,,,,,,,,,,,,,,,
818610,001,2022-11-21_01h10.28.746,Info_measure_main_exp,2022.2.2,Win32,13.09174696,,,,,,,,,,,,,,,,,,masks/mask_003.jpg,,,,,,,,,,,,,,,,,,,,,,,,,,,,,,,,,,,,,,,,,,,,,,,,0,4,4,2,1,,,,,,,,,,,,,,,,,,,,,,,,,,,,,,,,,,,,,,,,,
818610,001,2022-11-21_01h10.28.746,Info_measure_main_exp,2022.2.2,Win32,13.09174696,,,,,,,,,,,,,,,,,,,,,,,,,,,,,,0,0.8336,1,,,,,,,,,,,,0,131,5,5,2190,2190,absent_patch/patch0002190.jpg,absent_patch/patch0002190.jpg,,,,,,,,,,,,,,,,,,,,-0.04537037,0.112962963,1,0,0,response7disk,21,0.001851852,-0.007407407,1,0,0,center_square,0,20,20,86,1,,,,,,,,,,,,,,,,,,,,,,,
818610,001,2022-11-21_01h10.28.746,Info_measure_main_exp,2022.2.2,Win32,13.09174696,,,,,,,,,,,,,,,,,,masks/mask_004.jpg,,,,,,,,,,,,,,,,,,,,,,,,,,,,,,,,,,,,,,,,,,,0,0,0,3,1,,,,,,,,,,,,,,,,,,,,,,,,,,,,,,,,,,,,,,,,,,,,,,
818610,001,2022-11-21_01h10.28.746,Info_measure_main_exp,2022.2.2,Win32,13.09174696,,,,,,,,,,,,,,,,,,masks/mask_003.jpg,,,,,,,,,,,,,,,,,,,,,,,,,,,,,,,,,,,,,,,,,,,0,1,1,2,1,,,,,,,,,,,,,,,,,,,,,,,,,,,,,,,,,,,,,,,,,,,,,,
818610,001,2022-11-21_01h10.28.746,Info_measure_main_exp,2022.2.2,Win32,13.09174696,,,,,,,,,,,,,,,,,,masks/mask_002.jpg,,,,,,,,,,,,,,,,,,,,,,,,,,,,,,,,,,,,,,,,,,,0,2,2,1,1,,,,,,,,,,,,,,,,,,,,,,,,,,,,,,,,,,,,,,,,,,,,,,
818610,001,2022-11-21_01h10.28.746,Info_measure_main_exp,2022.2.2,Win32,13.09174696,,,,,,,,,,,,,,,,,,masks/mask_005.jpg,,,,,,,,,,,,,,,,,,,,,,,,,,,,,,,,,,,,,,,,,,,0,3,3,4,1,,,,,,,,,,,,,,,,,,,,,,,,,,,,,,,,,,,,,,,,,,,,,,
818610,001,2022-11-21_01h10.28.746,Info_measure_main_exp,2022.2.2,Win32,13.09174696,,,,,,,,,,,,,,,,,,masks/mask_001.jpg,,,,,,,,,,,,,,,,,,,,,,,,,,,,,,,,,,,,,,,,,,,0,4,4,0,1,,,,,,,,,,,,,,,,,,,,,,,,,,,,,,,,,,,,,,,,,,,,,,
818610,001,2022-11-21_01h10.28.746,Info_measure_main_exp,2022.2.2,Win32,13.09174696,,,,,,,,,,,,,,,,,,masks/mask_001.jpg,,,,,,,,,,,,,,,,,,,,,,,,,,,,,,,,,,,,,,,,,,,,,,,,0,0,0,0,1,,,,,,,,,,,,,,,,,,,,,,,,,,,,,,,,,,,,,,,,,
818610,001,2022-11-21_01h10.28.746,Info_measure_main_exp,2022.2.2,Win32,13.09174696,,,,,,,,,,,,,,,,,,masks/mask_002.jpg,,,,,,,,,,,,,,,,,,,,,,,,,,,,,,,,,,,,,,,,,,,,,,,,0,1,1,1,1,,,,,,,,,,,,,,,,,,,,,,,,,,,,,,,,,,,,,,,,,
818610,001,2022-11-21_01h10.28.746,Info_measure_main_exp,2022.2.2,Win32,13.09174696,,,,,,,,,,,,,,,,,,masks/mask_004.jpg,,,,,,,,,,,,,,,,,,,,,,,,,,,,,,,,,,,,,,,,,,,,,,,,0,2,2,3,1,,,,,,,,,,,,,,,,,,,,,,,,,,,,,,,,,,,,,,,,,
818610,001,2022-11-21_01h10.28.746,Info_measure_main_exp,2022.2.2,Win32,13.09174696,,,,,,,,,,,,,,,,,,masks/mask_005.jpg,,,,,,,,,,,,,,,,,,,,,,,,,,,,,,,,,,,,,,,,,,,,,,,,0,3,3,4,1,,,,,,,,,,,,,,,,,,,,,,,,,,,,,,,,,,,,,,,,,
818610,001,2022-11-21_01h10.28.746,Info_measure_main_exp,2022.2.2,Win32,13.09174696,,,,,,,,,,,,,,,,,,masks/mask_003.jpg,,,,,,,,,,,,,,,,,,,,,,,,,,,,,,,,,,,,,,,,,,,,,,,,0,4,4,2,1,,,,,,,,,,,,,,,,,,,,,,,,,,,,,,,,,,,,,,,,,
818610,001,2022-11-21_01h10.28.746,Info_measure_main_exp,2022.2.2,Win32,13.09174696,,,,,,,,,,,,,,,,,,,,,,,,,,,,,,7,0.6549,1,,,,,,,,,,,,0,131,5,5,1986,2142,absent_patch/patch0001986.jpg,absent_patch/patch0002142.jpg,,,,,,,,,,,,,,,,,,,,0.032407407,0.117592593,1,0,0,response1disk,22,-0.001851852,-0.007407407,1,0,0,center_square,0,21,21,76,1,,,,,,,,,,,,,,,,,,,,,,,
818610,001,2022-11-21_01h10.28.746,Info_measure_main_exp,2022.2.2,Win32,13.09174696,,,,,,,,,,,,,,,,,,masks/mask_004.jpg,,,,,,,,,,,,,,,,,,,,,,,,,,,,,,,,,,,,,,,,,,,0,0,0,3,1,,,,,,,,,,,,,,,,,,,,,,,,,,,,,,,,,,,,,,,,,,,,,,
818610,001,2022-11-21_01h10.28.746,Info_measure_main_exp,2022.2.2,Win32,13.09174696,,,,,,,,,,,,,,,,,,masks/mask_003.jpg,,,,,,,,,,,,,,,,,,,,,,,,,,,,,,,,,,,,,,,,,,,0,1,1,2,1,,,,,,,,,,,,,,,,,,,,,,,,,,,,,,,,,,,,,,,,,,,,,,
818610,001,2022-11-21_01h10.28.746,Info_measure_main_exp,2022.2.2,Win32,13.09174696,,,,,,,,,,,,,,,,,,masks/mask_001.jpg,,,,,,,,,,,,,,,,,,,,,,,,,,,,,,,,,,,,,,,,,,,0,2,2,0,1,,,,,,,,,,,,,,,,,,,,,,,,,,,,,,,,,,,,,,,,,,,,,,
818610,001,2022-11-21_01h10.28.746,Info_measure_main_exp,2022.2.2,Win32,13.09174696,,,,,,,,,,,,,,,,,,masks/mask_005.jpg,,,,,,,,,,,,,,,,,,,,,,,,,,,,,,,,,,,,,,,,,,,0,3,3,4,1,,,,,,,,,,,,,,,,,,,,,,,,,,,,,,,,,,,,,,,,,,,,,,
818610,001,2022-11-21_01h10.28.746,Info_measure_main_exp,2022.2.2,Win32,13.09174696,,,,,,,,,,,,,,,,,,masks/mask_002.jpg,,,,,,,,,,,,,,,,,,,,,,,,,,,,,,,,,,,,,,,,,,,0,4,4,1,1,,,,,,,,,,,,,,,,,,,,,,,,,,,,,,,,,,,,,,,,,,,,,,
818610,001,2022-11-21_01h10.28.746,Info_measure_main_exp,2022.2.2,Win32,13.09174696,,,,,,,,,,,,,,,,,,masks/mask_001.jpg,,,,,,,,,,,,,,,,,,,,,,,,,,,,,,,,,,,,,,,,,,,,,,,,0,0,0,0,1,,,,,,,,,,,,,,,,,,,,,,,,,,,,,,,,,,,,,,,,,
818610,001,2022-11-21_01h10.28.746,Info_measure_main_exp,2022.2.2,Win32,13.09174696,,,,,,,,,,,,,,,,,,masks/mask_003.jpg,,,,,,,,,,,,,,,,,,,,,,,,,,,,,,,,,,,,,,,,,,,,,,,,0,1,1,2,1,,,,,,,,,,,,,,,,,,,,,,,,,,,,,,,,,,,,,,,,,
818610,001,2022-11-21_01h10.28.746,Info_measure_main_exp,2022.2.2,Win32,13.09174696,,,,,,,,,,,,,,,,,,masks/mask_004.jpg,,,,,,,,,,,,,,,,,,,,,,,,,,,,,,,,,,,,,,,,,,,,,,,,0,2,2,3,1,,,,,,,,,,,,,,,,,,,,,,,,,,,,,,,,,,,,,,,,,
818610,001,2022-11-21_01h10.28.746,Info_measure_main_exp,2022.2.2,Win32,13.09174696,,,,,,,,,,,,,,,,,,masks/mask_005.jpg,,,,,,,,,,,,,,,,,,,,,,,,,,,,,,,,,,,,,,,,,,,,,,,,0,3,3,4,1,,,,,,,,,,,,,,,,,,,,,,,,,,,,,,,,,,,,,,,,,
818610,001,2022-11-21_01h10.28.746,Info_measure_main_exp,2022.2.2,Win32,13.09174696,,,,,,,,,,,,,,,,,,masks/mask_002.jpg,,,,,,,,,,,,,,,,,,,,,,,,,,,,,,,,,,,,,,,,,,,,,,,,0,4,4,1,1,,,,,,,,,,,,,,,,,,,,,,,,,,,,,,,,,,,,,,,,,
818610,001,2022-11-21_01h10.28.746,Info_measure_main_exp,2022.2.2,Win32,13.09174696,,,,,,,,,,,,,,,,,,,,,,,,,,,,,,0,0.6746,1,,,,,,,,,,,,0,131,5,5,2238,2238,absent_patch/patch0002238.jpg,absent_patch/patch0002238.jpg,,,,,,,,,,,,,,,,,,,,-0.062037037,0.139814815,1,0,0,response7disk,23,-0.012037037,0.012962963,1,0,0,center_square,0,22,22,58,1,,,,,,,,,,,,,,,,,,,,,,,
818610,001,2022-11-21_01h10.28.746,Info_measure_main_exp,2022.2.2,Win32,13.09174696,,,,,,,,,,,,,,,,,,masks/mask_001.jpg,,,,,,,,,,,,,,,,,,,,,,,,,,,,,,,,,,,,,,,,,,,0,0,0,0,1,,,,,,,,,,,,,,,,,,,,,,,,,,,,,,,,,,,,,,,,,,,,,,
818610,001,2022-11-21_01h10.28.746,Info_measure_main_exp,2022.2.2,Win32,13.09174696,,,,,,,,,,,,,,,,,,masks/mask_002.jpg,,,,,,,,,,,,,,,,,,,,,,,,,,,,,,,,,,,,,,,,,,,0,1,1,1,1,,,,,,,,,,,,,,,,,,,,,,,,,,,,,,,,,,,,,,,,,,,,,,
818610,001,2022-11-21_01h10.28.746,Info_measure_main_exp,2022.2.2,Win32,13.09174696,,,,,,,,,,,,,,,,,,masks/mask_005.jpg,,,,,,,,,,,,,,,,,,,,,,,,,,,,,,,,,,,,,,,,,,,0,2,2,4,1,,,,,,,,,,,,,,,,,,,,,,,,,,,,,,,,,,,,,,,,,,,,,,
818610,001,2022-11-21_01h10.28.746,Info_measure_main_exp,2022.2.2,Win32,13.09174696,,,,,,,,,,,,,,,,,,masks/mask_003.jpg,,,,,,,,,,,,,,,,,,,,,,,,,,,,,,,,,,,,,,,,,,,0,3,3,2,1,,,,,,,,,,,,,,,,,,,,,,,,,,,,,,,,,,,,,,,,,,,,,,
818610,001,2022-11-21_01h10.28.746,Info_measure_main_exp,2022.2.2,Win32,13.09174696,,,,,,,,,,,,,,,,,,masks/mask_004.jpg,,,,,,,,,,,,,,,,,,,,,,,,,,,,,,,,,,,,,,,,,,,0,4,4,3,1,,,,,,,,,,,,,,,,,,,,,,,,,,,,,,,,,,,,,,,,,,,,,,
818610,001,2022-11-21_01h10.28.746,Info_measure_main_exp,2022.2.2,Win32,13.09174696,,,,,,,,,,,,,,,,,,masks/mask_004.jpg,,,,,,,,,,,,,,,,,,,,,,,,,,,,,,,,,,,,,,,,,,,,,,,,0,0,0,3,1,,,,,,,,,,,,,,,,,,,,,,,,,,,,,,,,,,,,,,,,,
818610,001,2022-11-21_01h10.28.746,Info_measure_main_exp,2022.2.2,Win32,13.09174696,,,,,,,,,,,,,,,,,,masks/mask_002.jpg,,,,,,,,,,,,,,,,,,,,,,,,,,,,,,,,,,,,,,,,,,,,,,,,0,1,1,1,1,,,,,,,,,,,,,,,,,,,,,,,,,,,,,,,,,,,,,,,,,
818610,001,2022-11-21_01h10.28.746,Info_measure_main_exp,2022.2.2,Win32,13.09174696,,,,,,,,,,,,,,,,,,masks/mask_001.jpg,,,,,,,,,,,,,,,,,,,,,,,,,,,,,,,,,,,,,,,,,,,,,,,,0,2,2,0,1,,,,,,,,,,,,,,,,,,,,,,,,,,,,,,,,,,,,,,,,,
818610,001,2022-11-21_01h10.28.746,Info_measure_main_exp,2022.2.2,Win32,13.09174696,,,,,,,,,,,,,,,,,,masks/mask_005.jpg,,,,,,,,,,,,,,,,,,,,,,,,,,,,,,,,,,,,,,,,,,,,,,,,0,3,3,4,1,,,,,,,,,,,,,,,,,,,,,,,,,,,,,,,,,,,,,,,,,
818610,001,2022-11-21_01h10.28.746,Info_measure_main_exp,2022.2.2,Win32,13.09174696,,,,,,,,,,,,,,,,,,masks/mask_003.jpg,,,,,,,,,,,,,,,,,,,,,,,,,,,,,,,,,,,,,,,,,,,,,,,,0,4,4,2,1,,,,,,,,,,,,,,,,,,,,,,,,,,,,,,,,,,,,,,,,,
818610,001,2022-11-21_01h10.28.746,Info_measure_main_exp,2022.2.2,Win32,13.09174696,,,,,,,,,,,,,,,,,,,,,,,,,,,,,,7,0.6607,1,,,,,,,,,,,,0,131,5,5,1986,2238,absent_patch/patch0001986.jpg,absent_patch/patch0002238.jpg,,,,,,,,,,,,,,,,,,,,0.026851852,0.112962963,1,0,0,response1disk,24,-0.000925926,0.010185185,1,0,0,center_square,0,23,23,31,1,,,,,,,,,,,,,,,,,,,,,,,
818610,001,2022-11-21_01h10.28.746,Info_measure_main_exp,2022.2.2,Win32,13.09174696,,,,,,,,,,,,,,,,,,masks/mask_001.jpg,,,,,,,,,,,,,,,,,,,,,,,,,,,,,,,,,,,,,,,,,,,0,0,0,0,1,,,,,,,,,,,,,,,,,,,,,,,,,,,,,,,,,,,,,,,,,,,,,,
818610,001,2022-11-21_01h10.28.746,Info_measure_main_exp,2022.2.2,Win32,13.09174696,,,,,,,,,,,,,,,,,,masks/mask_005.jpg,,,,,,,,,,,,,,,,,,,,,,,,,,,,,,,,,,,,,,,,,,,0,1,1,4,1,,,,,,,,,,,,,,,,,,,,,,,,,,,,,,,,,,,,,,,,,,,,,,
818610,001,2022-11-21_01h10.28.746,Info_measure_main_exp,2022.2.2,Win32,13.09174696,,,,,,,,,,,,,,,,,,masks/mask_002.jpg,,,,,,,,,,,,,,,,,,,,,,,,,,,,,,,,,,,,,,,,,,,0,2,2,1,1,,,,,,,,,,,,,,,,,,,,,,,,,,,,,,,,,,,,,,,,,,,,,,
818610,001,2022-11-21_01h10.28.746,Info_measure_main_exp,2022.2.2,Win32,13.09174696,,,,,,,,,,,,,,,,,,masks/mask_004.jpg,,,,,,,,,,,,,,,,,,,,,,,,,,,,,,,,,,,,,,,,,,,0,3,3,3,1,,,,,,,,,,,,,,,,,,,,,,,,,,,,,,,,,,,,,,,,,,,,,,
818610,001,2022-11-21_01h10.28.746,Info_measure_main_exp,2022.2.2,Win32,13.09174696,,,,,,,,,,,,,,,,,,masks/mask_003.jpg,,,,,,,,,,,,,,,,,,,,,,,,,,,,,,,,,,,,,,,,,,,0,4,4,2,1,,,,,,,,,,,,,,,,,,,,,,,,,,,,,,,,,,,,,,,,,,,,,,
818610,001,2022-11-21_01h10.28.746,Info_measure_main_exp,2022.2.2,Win32,13.09174696,,,,,,,,,,,,,,,,,,masks/mask_002.jpg,,,,,,,,,,,,,,,,,,,,,,,,,,,,,,,,,,,,,,,,,,,,,,,,0,0,0,1,1,,,,,,,,,,,,,,,,,,,,,,,,,,,,,,,,,,,,,,,,,
818610,001,2022-11-21_01h10.28.746,Info_measure_main_exp,2022.2.2,Win32,13.09174696,,,,,,,,,,,,,,,,,,masks/mask_004.jpg,,,,,,,,,,,,,,,,,,,,,,,,,,,,,,,,,,,,,,,,,,,,,,,,0,1,1,3,1,,,,,,,,,,,,,,,,,,,,,,,,,,,,,,,,,,,,,,,,,
818610,001,2022-11-21_01h10.28.746,Info_measure_main_exp,2022.2.2,Win32,13.09174696,,,,,,,,,,,,,,,,,,masks/mask_003.jpg,,,,,,,,,,,,,,,,,,,,,,,,,,,,,,,,,,,,,,,,,,,,,,,,0,2,2,2,1,,,,,,,,,,,,,,,,,,,,,,,,,,,,,,,,,,,,,,,,,
818610,001,2022-11-21_01h10.28.746,Info_measure_main_exp,2022.2.2,Win32,13.09174696,,,,,,,,,,,,,,,,,,masks/mask_005.jpg,,,,,,,,,,,,,,,,,,,,,,,,,,,,,,,,,,,,,,,,,,,,,,,,0,3,3,4,1,,,,,,,,,,,,,,,,,,,,,,,,,,,,,,,,,,,,,,,,,
818610,001,2022-11-21_01h10.28.746,Info_measure_main_exp,2022.2.2,Win32,13.09174696,,,,,,,,,,,,,,,,,,masks/mask_001.jpg,,,,,,,,,,,,,,,,,,,,,,,,,,,,,,,,,,,,,,,,,,,,,,,,0,4,4,0,1,,,,,,,,,,,,,,,,,,,,,,,,,,,,,,,,,,,,,,,,,
818610,001,2022-11-21_01h10.28.746,Info_measure_main_exp,2022.2.2,Win32,13.09174696,,,,,,,,,,,,,,,,,,,,,,,,,,,,,,7,1.3293,1,,,,,,,,,,,,0,131,5,5,1950,2298,absent_patch/patch0001950.jpg,absent_patch/patch0002298.jpg,,,,,,,,,,,,,,,,,,,,0.037962963,0.12962963,1,0,0,response1disk,25,0.010185185,0.010185185,1,0,0,center_square,0,24,24,18,1,,,,,,,,,,,,,,,,,,,,,,,
818610,001,2022-11-21_01h10.28.746,Info_measure_main_exp,2022.2.2,Win32,13.09174696,,,,,,,,,,,,,,,,,,masks/mask_002.jpg,,,,,,,,,,,,,,,,,,,,,,,,,,,,,,,,,,,,,,,,,,,0,0,0,1,1,,,,,,,,,,,,,,,,,,,,,,,,,,,,,,,,,,,,,,,,,,,,,,
818610,001,2022-11-21_01h10.28.746,Info_measure_main_exp,2022.2.2,Win32,13.09174696,,,,,,,,,,,,,,,,,,masks/mask_003.jpg,,,,,,,,,,,,,,,,,,,,,,,,,,,,,,,,,,,,,,,,,,,0,1,1,2,1,,,,,,,,,,,,,,,,,,,,,,,,,,,,,,,,,,,,,,,,,,,,,,
818610,001,2022-11-21_01h10.28.746,Info_measure_main_exp,2022.2.2,Win32,13.09174696,,,,,,,,,,,,,,,,,,masks/mask_001.jpg,,,,,,,,,,,,,,,,,,,,,,,,,,,,,,,,,,,,,,,,,,,0,2,2,0,1,,,,,,,,,,,,,,,,,,,,,,,,,,,,,,,,,,,,,,,,,,,,,,
818610,001,2022-11-21_01h10.28.746,Info_measure_main_exp,2022.2.2,Win32,13.09174696,,,,,,,,,,,,,,,,,,masks/mask_004.jpg,,,,,,,,,,,,,,,,,,,,,,,,,,,,,,,,,,,,,,,,,,,0,3,3,3,1,,,,,,,,,,,,,,,,,,,,,,,,,,,,,,,,,,,,,,,,,,,,,,
818610,001,2022-11-21_01h10.28.746,Info_measure_main_exp,2022.2.2,Win32,13.09174696,,,,,,,,,,,,,,,,,,masks/mask_005.jpg,,,,,,,,,,,,,,,,,,,,,,,,,,,,,,,,,,,,,,,,,,,0,4,4,4,1,,,,,,,,,,,,,,,,,,,,,,,,,,,,,,,,,,,,,,,,,,,,,,
818610,001,2022-11-21_01h10.28.746,Info_measure_main_exp,2022.2.2,Win32,13.09174696,,,,,,,,,,,,,,,,,,masks/mask_002.jpg,,,,,,,,,,,,,,,,,,,,,,,,,,,,,,,,,,,,,,,,,,,,,,,,0,0,0,1,1,,,,,,,,,,,,,,,,,,,,,,,,,,,,,,,,,,,,,,,,,
818610,001,2022-11-21_01h10.28.746,Info_measure_main_exp,2022.2.2,Win32,13.09174696,,,,,,,,,,,,,,,,,,masks/mask_003.jpg,,,,,,,,,,,,,,,,,,,,,,,,,,,,,,,,,,,,,,,,,,,,,,,,0,1,1,2,1,,,,,,,,,,,,,,,,,,,,,,,,,,,,,,,,,,,,,,,,,
818610,001,2022-11-21_01h10.28.746,Info_measure_main_exp,2022.2.2,Win32,13.09174696,,,,,,,,,,,,,,,,,,masks/mask_004.jpg,,,,,,,,,,,,,,,,,,,,,,,,,,,,,,,,,,,,,,,,,,,,,,,,0,2,2,3,1,,,,,,,,,,,,,,,,,,,,,,,,,,,,,,,,,,,,,,,,,
818610,001,2022-11-21_01h10.28.746,Info_measure_main_exp,2022.2.2,Win32,13.09174696,,,,,,,,,,,,,,,,,,masks/mask_001.jpg,,,,,,,,,,,,,,,,,,,,,,,,,,,,,,,,,,,,,,,,,,,,,,,,0,3,3,0,1,,,,,,,,,,,,,,,,,,,,,,,,,,,,,,,,,,,,,,,,,
818610,001,2022-11-21_01h10.28.746,Info_measure_main_exp,2022.2.2,Win32,13.09174696,,,,,,,,,,,,,,,,,,masks/mask_005.jpg,,,,,,,,,,,,,,,,,,,,,,,,,,,,,,,,,,,,,,,,,,,,,,,,0,4,4,4,1,,,,,,,,,,,,,,,,,,,,,,,,,,,,,,,,,,,,,,,,,
818610,001,2022-11-21_01h10.28.746,Info_measure_main_exp,2022.2.2,Win32,13.09174696,,,,,,,,,,,,,,,,,,,,,,,,,,,,,,7,1.2004,1,,,,,,,,,,,,1,131,5,5,1,2166,present_patch/cong_131_5_a.jpg,absent_patch/patch0002166.jpg,,,,,,,,,,,,,,,,,,,,0.038888889,0.133333333,1,0,0,response1disk,26,0.010185185,0.010185185,1,0,0,center_square,0,25,25,54,1,,,,,,,,,,,,,,,,,,,,,,,
818610,001,2022-11-21_01h10.28.746,Info_measure_main_exp,2022.2.2,Win32,13.09174696,,,,,,,,,,,,,,,,,,masks/mask_003.jpg,,,,,,,,,,,,,,,,,,,,,,,,,,,,,,,,,,,,,,,,,,,0,0,0,2,1,,,,,,,,,,,,,,,,,,,,,,,,,,,,,,,,,,,,,,,,,,,,,,
818610,001,2022-11-21_01h10.28.746,Info_measure_main_exp,2022.2.2,Win32,13.09174696,,,,,,,,,,,,,,,,,,masks/mask_005.jpg,,,,,,,,,,,,,,,,,,,,,,,,,,,,,,,,,,,,,,,,,,,0,1,1,4,1,,,,,,,,,,,,,,,,,,,,,,,,,,,,,,,,,,,,,,,,,,,,,,
818610,001,2022-11-21_01h10.28.746,Info_measure_main_exp,2022.2.2,Win32,13.09174696,,,,,,,,,,,,,,,,,,masks/mask_001.jpg,,,,,,,,,,,,,,,,,,,,,,,,,,,,,,,,,,,,,,,,,,,0,2,2,0,1,,,,,,,,,,,,,,,,,,,,,,,,,,,,,,,,,,,,,,,,,,,,,,
818610,001,2022-11-21_01h10.28.746,Info_measure_main_exp,2022.2.2,Win32,13.09174696,,,,,,,,,,,,,,,,,,masks/mask_002.jpg,,,,,,,,,,,,,,,,,,,,,,,,,,,,,,,,,,,,,,,,,,,0,3,3,1,1,,,,,,,,,,,,,,,,,,,,,,,,,,,,,,,,,,,,,,,,,,,,,,
818610,001,2022-11-21_01h10.28.746,Info_measure_main_exp,2022.2.2,Win32,13.09174696,,,,,,,,,,,,,,,,,,masks/mask_004.jpg,,,,,,,,,,,,,,,,,,,,,,,,,,,,,,,,,,,,,,,,,,,0,4,4,3,1,,,,,,,,,,,,,,,,,,,,,,,,,,,,,,,,,,,,,,,,,,,,,,
818610,001,2022-11-21_01h10.28.746,Info_measure_main_exp,2022.2.2,Win32,13.09174696,,,,,,,,,,,,,,,,,,masks/mask_003.jpg,,,,,,,,,,,,,,,,,,,,,,,,,,,,,,,,,,,,,,,,,,,,,,,,0,0,0,2,1,,,,,,,,,,,,,,,,,,,,,,,,,,,,,,,,,,,,,,,,,
818610,001,2022-11-21_01h10.28.746,Info_measure_main_exp,2022.2.2,Win32,13.09174696,,,,,,,,,,,,,,,,,,masks/mask_002.jpg,,,,,,,,,,,,,,,,,,,,,,,,,,,,,,,,,,,,,,,,,,,,,,,,0,1,1,1,1,,,,,,,,,,,,,,,,,,,,,,,,,,,,,,,,,,,,,,,,,
818610,001,2022-11-21_01h10.28.746,Info_measure_main_exp,2022.2.2,Win32,13.09174696,,,,,,,,,,,,,,,,,,masks/mask_005.jpg,,,,,,,,,,,,,,,,,,,,,,,,,,,,,,,,,,,,,,,,,,,,,,,,0,2,2,4,1,,,,,,,,,,,,,,,,,,,,,,,,,,,,,,,,,,,,,,,,,
818610,001,2022-11-21_01h10.28.746,Info_measure_main_exp,2022.2.2,Win32,13.09174696,,,,,,,,,,,,,,,,,,masks/mask_001.jpg,,,,,,,,,,,,,,,,,,,,,,,,,,,,,,,,,,,,,,,,,,,,,,,,0,3,3,0,1,,,,,,,,,,,,,,,,,,,,,,,,,,,,,,,,,,,,,,,,,
818610,001,2022-11-21_01h10.28.746,Info_measure_main_exp,2022.2.2,Win32,13.09174696,,,,,,,,,,,,,,,,,,masks/mask_004.jpg,,,,,,,,,,,,,,,,,,,,,,,,,,,,,,,,,,,,,,,,,,,,,,,,0,4,4,3,1,,,,,,,,,,,,,,,,,,,,,,,,,,,,,,,,,,,,,,,,,
818610,001,2022-11-21_01h10.28.746,Info_measure_main_exp,2022.2.2,Win32,13.09174696,,,,,,,,,,,,,,,,,,,,,,,,,,,,,,7,0.724,1,,,,,,,,,,,,1,131,5,5,2238,1,absent_patch/patch0002238.jpg,present_patch/cong_131_5_a.jpg,,,,,,,,,,,,,,,,,,,,0.033333333,0.132407407,1,0,0,response1disk,27,0.010185185,0.009259259,1,0,0,center_square,0,26,26,104,1,,,,,,,,,,,,,,,,,,,,,,,
818610,001,2022-11-21_01h10.28.746,Info_measure_main_exp,2022.2.2,Win32,13.09174696,,,,,,,,,,,,,,,,,,masks/mask_002.jpg,,,,,,,,,,,,,,,,,,,,,,,,,,,,,,,,,,,,,,,,,,,0,0,0,1,1,,,,,,,,,,,,,,,,,,,,,,,,,,,,,,,,,,,,,,,,,,,,,,
818610,001,2022-11-21_01h10.28.746,Info_measure_main_exp,2022.2.2,Win32,13.09174696,,,,,,,,,,,,,,,,,,masks/mask_003.jpg,,,,,,,,,,,,,,,,,,,,,,,,,,,,,,,,,,,,,,,,,,,0,1,1,2,1,,,,,,,,,,,,,,,,,,,,,,,,,,,,,,,,,,,,,,,,,,,,,,
818610,001,2022-11-21_01h10.28.746,Info_measure_main_exp,2022.2.2,Win32,13.09174696,,,,,,,,,,,,,,,,,,masks/mask_004.jpg,,,,,,,,,,,,,,,,,,,,,,,,,,,,,,,,,,,,,,,,,,,0,2,2,3,1,,,,,,,,,,,,,,,,,,,,,,,,,,,,,,,,,,,,,,,,,,,,,,
818610,001,2022-11-21_01h10.28.746,Info_measure_main_exp,2022.2.2,Win32,13.09174696,,,,,,,,,,,,,,,,,,masks/mask_005.jpg,,,,,,,,,,,,,,,,,,,,,,,,,,,,,,,,,,,,,,,,,,,0,3,3,4,1,,,,,,,,,,,,,,,,,,,,,,,,,,,,,,,,,,,,,,,,,,,,,,
818610,001,2022-11-21_01h10.28.746,Info_measure_main_exp,2022.2.2,Win32,13.09174696,,,,,,,,,,,,,,,,,,masks/mask_001.jpg,,,,,,,,,,,,,,,,,,,,,,,,,,,,,,,,,,,,,,,,,,,0,4,4,0,1,,,,,,,,,,,,,,,,,,,,,,,,,,,,,,,,,,,,,,,,,,,,,,
818610,001,2022-11-21_01h10.28.746,Info_measure_main_exp,2022.2.2,Win32,13.09174696,,,,,,,,,,,,,,,,,,masks/mask_004.jpg,,,,,,,,,,,,,,,,,,,,,,,,,,,,,,,,,,,,,,,,,,,,,,,,0,0,0,3,1,,,,,,,,,,,,,,,,,,,,,,,,,,,,,,,,,,,,,,,,,
818610,001,2022-11-21_01h10.28.746,Info_measure_main_exp,2022.2.2,Win32,13.09174696,,,,,,,,,,,,,,,,,,masks/mask_003.jpg,,,,,,,,,,,,,,,,,,,,,,,,,,,,,,,,,,,,,,,,,,,,,,,,0,1,1,2,1,,,,,,,,,,,,,,,,,,,,,,,,,,,,,,,,,,,,,,,,,
818610,001,2022-11-21_01h10.28.746,Info_measure_main_exp,2022.2.2,Win32,13.09174696,,,,,,,,,,,,,,,,,,masks/mask_001.jpg,,,,,,,,,,,,,,,,,,,,,,,,,,,,,,,,,,,,,,,,,,,,,,,,0,2,2,0,1,,,,,,,,,,,,,,,,,,,,,,,,,,,,,,,,,,,,,,,,,
818610,001,2022-11-21_01h10.28.746,Info_measure_main_exp,2022.2.2,Win32,13.09174696,,,,,,,,,,,,,,,,,,masks/mask_002.jpg,,,,,,,,,,,,,,,,,,,,,,,,,,,,,,,,,,,,,,,,,,,,,,,,0,3,3,1,1,,,,,,,,,,,,,,,,,,,,,,,,,,,,,,,,,,,,,,,,,
818610,001,2022-11-21_01h10.28.746,Info_measure_main_exp,2022.2.2,Win32,13.09174696,,,,,,,,,,,,,,,,,,masks/mask_005.jpg,,,,,,,,,,,,,,,,,,,,,,,,,,,,,,,,,,,,,,,,,,,,,,,,0,4,4,4,1,,,,,,,,,,,,,,,,,,,,,,,,,,,,,,,,,,,,,,,,,
818610,001,2022-11-21_01h10.28.746,Info_measure_main_exp,2022.2.2,Win32,13.09174696,,,,,,,,,,,,,,,,,,,,,,,,,,,,,,7,0.6519,1,,,,,,,,,,,,0,131,5,5,2154,2190,absent_patch/patch0002154.jpg,absent_patch/patch0002190.jpg,,,,,,,,,,,,,,,,,,,,0.026851852,0.124074074,1,0,0,response1disk,28,0.010185185,-0.010185185,1,0,0,center_square,0,27,27,68,1,,,,,,,,,,,,,,,,,,,,,,,
818610,001,2022-11-21_01h10.28.746,Info_measure_main_exp,2022.2.2,Win32,13.09174696,,,,,,,,,,,,,,,,,,masks/mask_002.jpg,,,,,,,,,,,,,,,,,,,,,,,,,,,,,,,,,,,,,,,,,,,0,0,0,1,1,,,,,,,,,,,,,,,,,,,,,,,,,,,,,,,,,,,,,,,,,,,,,,
818610,001,2022-11-21_01h10.28.746,Info_measure_main_exp,2022.2.2,Win32,13.09174696,,,,,,,,,,,,,,,,,,masks/mask_003.jpg,,,,,,,,,,,,,,,,,,,,,,,,,,,,,,,,,,,,,,,,,,,0,1,1,2,1,,,,,,,,,,,,,,,,,,,,,,,,,,,,,,,,,,,,,,,,,,,,,,
818610,001,2022-11-21_01h10.28.746,Info_measure_main_exp,2022.2.2,Win32,13.09174696,,,,,,,,,,,,,,,,,,masks/mask_001.jpg,,,,,,,,,,,,,,,,,,,,,,,,,,,,,,,,,,,,,,,,,,,0,2,2,0,1,,,,,,,,,,,,,,,,,,,,,,,,,,,,,,,,,,,,,,,,,,,,,,
818610,001,2022-11-21_01h10.28.746,Info_measure_main_exp,2022.2.2,Win32,13.09174696,,,,,,,,,,,,,,,,,,masks/mask_004.jpg,,,,,,,,,,,,,,,,,,,,,,,,,,,,,,,,,,,,,,,,,,,0,3,3,3,1,,,,,,,,,,,,,,,,,,,,,,,,,,,,,,,,,,,,,,,,,,,,,,
818610,001,2022-11-21_01h10.28.746,Info_measure_main_exp,2022.2.2,Win32,13.09174696,,,,,,,,,,,,,,,,,,masks/mask_005.jpg,,,,,,,,,,,,,,,,,,,,,,,,,,,,,,,,,,,,,,,,,,,0,4,4,4,1,,,,,,,,,,,,,,,,,,,,,,,,,,,,,,,,,,,,,,,,,,,,,,
818610,001,2022-11-21_01h10.28.746,Info_measure_main_exp,2022.2.2,Win32,13.09174696,,,,,,,,,,,,,,,,,,masks/mask_001.jpg,,,,,,,,,,,,,,,,,,,,,,,,,,,,,,,,,,,,,,,,,,,,,,,,0,0,0,0,1,,,,,,,,,,,,,,,,,,,,,,,,,,,,,,,,,,,,,,,,,
818610,001,2022-11-21_01h10.28.746,Info_measure_main_exp,2022.2.2,Win32,13.09174696,,,,,,,,,,,,,,,,,,masks/mask_004.jpg,,,,,,,,,,,,,,,,,,,,,,,,,,,,,,,,,,,,,,,,,,,,,,,,0,1,1,3,1,,,,,,,,,,,,,,,,,,,,,,,,,,,,,,,,,,,,,,,,,
818610,001,2022-11-21_01h10.28.746,Info_measure_main_exp,2022.2.2,Win32,13.09174696,,,,,,,,,,,,,,,,,,masks/mask_005.jpg,,,,,,,,,,,,,,,,,,,,,,,,,,,,,,,,,,,,,,,,,,,,,,,,0,2,2,4,1,,,,,,,,,,,,,,,,,,,,,,,,,,,,,,,,,,,,,,,,,
818610,001,2022-11-21_01h10.28.746,Info_measure_main_exp,2022.2.2,Win32,13.09174696,,,,,,,,,,,,,,,,,,masks/mask_003.jpg,,,,,,,,,,,,,,,,,,,,,,,,,,,,,,,,,,,,,,,,,,,,,,,,0,3,3,2,1,,,,,,,,,,,,,,,,,,,,,,,,,,,,,,,,,,,,,,,,,
818610,001,2022-11-21_01h10.28.746,Info_measure_main_exp,2022.2.2,Win32,13.09174696,,,,,,,,,,,,,,,,,,masks/mask_002.jpg,,,,,,,,,,,,,,,,,,,,,,,,,,,,,,,,,,,,,,,,,,,,,,,,0,4,4,1,1,,,,,,,,,,,,,,,,,,,,,,,,,,,,,,,,,,,,,,,,,
818610,001,2022-11-21_01h10.28.746,Info_measure_main_exp,2022.2.2,Win32,13.09174696,,,,,,,,,,,,,,,,,,,,,,,,,,,,,,7,0.6506,1,,,,,,,,,,,,0,131,5,5,2154,1950,absent_patch/patch0002154.jpg,absent_patch/patch0001950.jpg,,,,,,,,,,,,,,,,,,,,0.033333333,0.125,1,0,0,response1disk,29,0.002777778,-0.013888889,1,0,0,center_square,0,28,28,96,1,,,,,,,,,,,,,,,,,,,,,,,
818610,001,2022-11-21_01h10.28.746,Info_measure_main_exp,2022.2.2,Win32,13.09174696,,,,,,,,,,,,,,,,,,masks/mask_004.jpg,,,,,,,,,,,,,,,,,,,,,,,,,,,,,,,,,,,,,,,,,,,0,0,0,3,1,,,,,,,,,,,,,,,,,,,,,,,,,,,,,,,,,,,,,,,,,,,,,,
818610,001,2022-11-21_01h10.28.746,Info_measure_main_exp,2022.2.2,Win32,13.09174696,,,,,,,,,,,,,,,,,,masks/mask_002.jpg,,,,,,,,,,,,,,,,,,,,,,,,,,,,,,,,,,,,,,,,,,,0,1,1,1,1,,,,,,,,,,,,,,,,,,,,,,,,,,,,,,,,,,,,,,,,,,,,,,
818610,001,2022-11-21_01h10.28.746,Info_measure_main_exp,2022.2.2,Win32,13.09174696,,,,,,,,,,,,,,,,,,masks/mask_003.jpg,,,,,,,,,,,,,,,,,,,,,,,,,,,,,,,,,,,,,,,,,,,0,2,2,2,1,,,,,,,,,,,,,,,,,,,,,,,,,,,,,,,,,,,,,,,,,,,,,,
818610,001,2022-11-21_01h10.28.746,Info_measure_main_exp,2022.2.2,Win32,13.09174696,,,,,,,,,,,,,,,,,,masks/mask_001.jpg,,,,,,,,,,,,,,,,,,,,,,,,,,,,,,,,,,,,,,,,,,,0,3,3,0,1,,,,,,,,,,,,,,,,,,,,,,,,,,,,,,,,,,,,,,,,,,,,,,
818610,001,2022-11-21_01h10.28.746,Info_measure_main_exp,2022.2.2,Win32,13.09174696,,,,,,,,,,,,,,,,,,masks/mask_005.jpg,,,,,,,,,,,,,,,,,,,,,,,,,,,,,,,,,,,,,,,,,,,0,4,4,4,1,,,,,,,,,,,,,,,,,,,,,,,,,,,,,,,,,,,,,,,,,,,,,,
818610,001,2022-11-21_01h10.28.746,Info_measure_main_exp,2022.2.2,Win32,13.09174696,,,,,,,,,,,,,,,,,,masks/mask_004.jpg,,,,,,,,,,,,,,,,,,,,,,,,,,,,,,,,,,,,,,,,,,,,,,,,0,0,0,3,1,,,,,,,,,,,,,,,,,,,,,,,,,,,,,,,,,,,,,,,,,
818610,001,2022-11-21_01h10.28.746,Info_measure_main_exp,2022.2.2,Win32,13.09174696,,,,,,,,,,,,,,,,,,masks/mask_003.jpg,,,,,,,,,,,,,,,,,,,,,,,,,,,,,,,,,,,,,,,,,,,,,,,,0,1,1,2,1,,,,,,,,,,,,,,,,,,,,,,,,,,,,,,,,,,,,,,,,,
818610,001,2022-11-21_01h10.28.746,Info_measure_main_exp,2022.2.2,Win32,13.09174696,,,,,,,,,,,,,,,,,,masks/mask_002.jpg,,,,,,,,,,,,,,,,,,,,,,,,,,,,,,,,,,,,,,,,,,,,,,,,0,2,2,1,1,,,,,,,,,,,,,,,,,,,,,,,,,,,,,,,,,,,,,,,,,
818610,001,2022-11-21_01h10.28.746,Info_measure_main_exp,2022.2.2,Win32,13.09174696,,,,,,,,,,,,,,,,,,masks/mask_005.jpg,,,,,,,,,,,,,,,,,,,,,,,,,,,,,,,,,,,,,,,,,,,,,,,,0,3,3,4,1,,,,,,,,,,,,,,,,,,,,,,,,,,,,,,,,,,,,,,,,,
818610,001,2022-11-21_01h10.28.746,Info_measure_main_exp,2022.2.2,Win32,13.09174696,,,,,,,,,,,,,,,,,,masks/mask_001.jpg,,,,,,,,,,,,,,,,,,,,,,,,,,,,,,,,,,,,,,,,,,,,,,,,0,4,4,0,1,,,,,,,,,,,,,,,,,,,,,,,,,,,,,,,,,,,,,,,,,
818610,001,2022-11-21_01h10.28.746,Info_measure_main_exp,2022.2.2,Win32,13.09174696,,,,,,,,,,,,,,,,,,,,,,,,,,,,,,7,0.584,1,,,,,,,,,,,,0,131,5,5,2082,1974,absent_patch/patch0002082.jpg,absent_patch/patch0001974.jpg,,,,,,,,,,,,,,,,,,,,0.032407407,0.112037037,1,0,0,response1disk,30,0.00462963,-0.003703704,1,0,0,center_square,0,29,29,26,1,,,,,,,,,,,,,,,,,,,,,,,
818610,001,2022-11-21_01h10.28.746,Info_measure_main_exp,2022.2.2,Win32,13.09174696,,,,,,,,,,,,,,,,,,masks/mask_004.jpg,,,,,,,,,,,,,,,,,,,,,,,,,,,,,,,,,,,,,,,,,,,0,0,0,3,1,,,,,,,,,,,,,,,,,,,,,,,,,,,,,,,,,,,,,,,,,,,,,,
818610,001,2022-11-21_01h10.28.746,Info_measure_main_exp,2022.2.2,Win32,13.09174696,,,,,,,,,,,,,,,,,,masks/mask_002.jpg,,,,,,,,,,,,,,,,,,,,,,,,,,,,,,,,,,,,,,,,,,,0,1,1,1,1,,,,,,,,,,,,,,,,,,,,,,,,,,,,,,,,,,,,,,,,,,,,,,
818610,001,2022-11-21_01h10.28.746,Info_measure_main_exp,2022.2.2,Win32,13.09174696,,,,,,,,,,,,,,,,,,masks/mask_001.jpg,,,,,,,,,,,,,,,,,,,,,,,,,,,,,,,,,,,,,,,,,,,0,2,2,0,1,,,,,,,,,,,,,,,,,,,,,,,,,,,,,,,,,,,,,,,,,,,,,,
818610,001,2022-11-21_01h10.28.746,Info_measure_main_exp,2022.2.2,Win32,13.09174696,,,,,,,,,,,,,,,,,,masks/mask_003.jpg,,,,,,,,,,,,,,,,,,,,,,,,,,,,,,,,,,,,,,,,,,,0,3,3,2,1,,,,,,,,,,,,,,,,,,,,,,,,,,,,,,,,,,,,,,,,,,,,,,
818610,001,2022-11-21_01h10.28.746,Info_measure_main_exp,2022.2.2,Win32,13.09174696,,,,,,,,,,,,,,,,,,masks/mask_005.jpg,,,,,,,,,,,,,,,,,,,,,,,,,,,,,,,,,,,,,,,,,,,0,4,4,4,1,,,,,,,,,,,,,,,,,,,,,,,,,,,,,,,,,,,,,,,,,,,,,,
818610,001,2022-11-21_01h10.28.746,Info_measure_main_exp,2022.2.2,Win32,13.09174696,,,,,,,,,,,,,,,,,,masks/mask_002.jpg,,,,,,,,,,,,,,,,,,,,,,,,,,,,,,,,,,,,,,,,,,,,,,,,0,0,0,1,1,,,,,,,,,,,,,,,,,,,,,,,,,,,,,,,,,,,,,,,,,
818610,001,2022-11-21_01h10.28.746,Info_measure_main_exp,2022.2.2,Win32,13.09174696,,,,,,,,,,,,,,,,,,masks/mask_003.jpg,,,,,,,,,,,,,,,,,,,,,,,,,,,,,,,,,,,,,,,,,,,,,,,,0,1,1,2,1,,,,,,,,,,,,,,,,,,,,,,,,,,,,,,,,,,,,,,,,,
818610,001,2022-11-21_01h10.28.746,Info_measure_main_exp,2022.2.2,Win32,13.09174696,,,,,,,,,,,,,,,,,,masks/mask_001.jpg,,,,,,,,,,,,,,,,,,,,,,,,,,,,,,,,,,,,,,,,,,,,,,,,0,2,2,0,1,,,,,,,,,,,,,,,,,,,,,,,,,,,,,,,,,,,,,,,,,
818610,001,2022-11-21_01h10.28.746,Info_measure_main_exp,2022.2.2,Win32,13.09174696,,,,,,,,,,,,,,,,,,masks/mask_005.jpg,,,,,,,,,,,,,,,,,,,,,,,,,,,,,,,,,,,,,,,,,,,,,,,,0,3,3,4,1,,,,,,,,,,,,,,,,,,,,,,,,,,,,,,,,,,,,,,,,,
818610,001,2022-11-21_01h10.28.746,Info_measure_main_exp,2022.2.2,Win32,13.09174696,,,,,,,,,,,,,,,,,,masks/mask_004.jpg,,,,,,,,,,,,,,,,,,,,,,,,,,,,,,,,,,,,,,,,,,,,,,,,0,4,4,3,1,,,,,,,,,,,,,,,,,,,,,,,,,,,,,,,,,,,,,,,,,
818610,001,2022-11-21_01h10.28.746,Info_measure_main_exp,2022.2.2,Win32,13.09174696,,,,,,,,,,,,,,,,,,,,,,,,,,,,,,7,1.0339,1,,,,,,,,,,,,0,131,5,5,2154,2214,absent_patch/patch0002154.jpg,absent_patch/patch0002214.jpg,,,,,,,,,,,,,,,,,,,,0.046296296,0.127777778,1,0,0,response1disk,31,0.006481481,0.005555556,1,0,0,center_square,0,30,30,67,1,,,,,,,,,,,,,,,,,,,,,,,
818610,001,2022-11-21_01h10.28.746,Info_measure_main_exp,2022.2.2,Win32,13.09174696,,,,,,,,,,,,,,,,,,masks/mask_005.jpg,,,,,,,,,,,,,,,,,,,,,,,,,,,,,,,,,,,,,,,,,,,0,0,0,4,1,,,,,,,,,,,,,,,,,,,,,,,,,,,,,,,,,,,,,,,,,,,,,,
818610,001,2022-11-21_01h10.28.746,Info_measure_main_exp,2022.2.2,Win32,13.09174696,,,,,,,,,,,,,,,,,,masks/mask_001.jpg,,,,,,,,,,,,,,,,,,,,,,,,,,,,,,,,,,,,,,,,,,,0,1,1,0,1,,,,,,,,,,,,,,,,,,,,,,,,,,,,,,,,,,,,,,,,,,,,,,
818610,001,2022-11-21_01h10.28.746,Info_measure_main_exp,2022.2.2,Win32,13.09174696,,,,,,,,,,,,,,,,,,masks/mask_003.jpg,,,,,,,,,,,,,,,,,,,,,,,,,,,,,,,,,,,,,,,,,,,0,2,2,2,1,,,,,,,,,,,,,,,,,,,,,,,,,,,,,,,,,,,,,,,,,,,,,,
818610,001,2022-11-21_01h10.28.746,Info_measure_main_exp,2022.2.2,Win32,13.09174696,,,,,,,,,,,,,,,,,,masks/mask_004.jpg,,,,,,,,,,,,,,,,,,,,,,,,,,,,,,,,,,,,,,,,,,,0,3,3,3,1,,,,,,,,,,,,,,,,,,,,,,,,,,,,,,,,,,,,,,,,,,,,,,
818610,001,2022-11-21_01h10.28.746,Info_measure_main_exp,2022.2.2,Win32,13.09174696,,,,,,,,,,,,,,,,,,masks/mask_002.jpg,,,,,,,,,,,,,,,,,,,,,,,,,,,,,,,,,,,,,,,,,,,0,4,4,1,1,,,,,,,,,,,,,,,,,,,,,,,,,,,,,,,,,,,,,,,,,,,,,,
818610,001,2022-11-21_01h10.28.746,Info_measure_main_exp,2022.2.2,Win32,13.09174696,,,,,,,,,,,,,,,,,,masks/mask_003.jpg,,,,,,,,,,,,,,,,,,,,,,,,,,,,,,,,,,,,,,,,,,,,,,,,0,0,0,2,1,,,,,,,,,,,,,,,,,,,,,,,,,,,,,,,,,,,,,,,,,
818610,001,2022-11-21_01h10.28.746,Info_measure_main_exp,2022.2.2,Win32,13.09174696,,,,,,,,,,,,,,,,,,masks/mask_004.jpg,,,,,,,,,,,,,,,,,,,,,,,,,,,,,,,,,,,,,,,,,,,,,,,,0,1,1,3,1,,,,,,,,,,,,,,,,,,,,,,,,,,,,,,,,,,,,,,,,,
818610,001,2022-11-21_01h10.28.746,Info_measure_main_exp,2022.2.2,Win32,13.09174696,,,,,,,,,,,,,,,,,,masks/mask_005.jpg,,,,,,,,,,,,,,,,,,,,,,,,,,,,,,,,,,,,,,,,,,,,,,,,0,2,2,4,1,,,,,,,,,,,,,,,,,,,,,,,,,,,,,,,,,,,,,,,,,
818610,001,2022-11-21_01h10.28.746,Info_measure_main_exp,2022.2.2,Win32,13.09174696,,,,,,,,,,,,,,,,,,masks/mask_002.jpg,,,,,,,,,,,,,,,,,,,,,,,,,,,,,,,,,,,,,,,,,,,,,,,,0,3,3,1,1,,,,,,,,,,,,,,,,,,,,,,,,,,,,,,,,,,,,,,,,,
818610,001,2022-11-21_01h10.28.746,Info_measure_main_exp,2022.2.2,Win32,13.09174696,,,,,,,,,,,,,,,,,,masks/mask_001.jpg,,,,,,,,,,,,,,,,,,,,,,,,,,,,,,,,,,,,,,,,,,,,,,,,0,4,4,0,1,,,,,,,,,,,,,,,,,,,,,,,,,,,,,,,,,,,,,,,,,
818610,001,2022-11-21_01h10.28.746,Info_measure_main_exp,2022.2.2,Win32,13.09174696,,,,,,,,,,,,,,,,,,,,,,,,,,,,,,0,0.6772,1,,,,,,,,,,,,1,131,5,5,1,1,present_patch/cong_131_5_a.jpg,present_patch/cong_131_5_a.jpg,,,,,,,,,,,,,,,,,,,,-0.062962963,0.130555556,1,0,0,response7disk,32,-0.014814815,-0.006481481,1,0,0,center_square,0,31,31,30,1,,,,,,,,,,,,,,,,,,,,,,,
818610,001,2022-11-21_01h10.28.746,Info_measure_main_exp,2022.2.2,Win32,13.09174696,,,,,,,,,,,,,,,,,,masks/mask_003.jpg,,,,,,,,,,,,,,,,,,,,,,,,,,,,,,,,,,,,,,,,,,,0,0,0,2,1,,,,,,,,,,,,,,,,,,,,,,,,,,,,,,,,,,,,,,,,,,,,,,
818610,001,2022-11-21_01h10.28.746,Info_measure_main_exp,2022.2.2,Win32,13.09174696,,,,,,,,,,,,,,,,,,masks/mask_005.jpg,,,,,,,,,,,,,,,,,,,,,,,,,,,,,,,,,,,,,,,,,,,0,1,1,4,1,,,,,,,,,,,,,,,,,,,,,,,,,,,,,,,,,,,,,,,,,,,,,,
818610,001,2022-11-21_01h10.28.746,Info_measure_main_exp,2022.2.2,Win32,13.09174696,,,,,,,,,,,,,,,,,,masks/mask_004.jpg,,,,,,,,,,,,,,,,,,,,,,,,,,,,,,,,,,,,,,,,,,,0,2,2,3,1,,,,,,,,,,,,,,,,,,,,,,,,,,,,,,,,,,,,,,,,,,,,,,
818610,001,2022-11-21_01h10.28.746,Info_measure_main_exp,2022.2.2,Win32,13.09174696,,,,,,,,,,,,,,,,,,masks/mask_002.jpg,,,,,,,,,,,,,,,,,,,,,,,,,,,,,,,,,,,,,,,,,,,0,3,3,1,1,,,,,,,,,,,,,,,,,,,,,,,,,,,,,,,,,,,,,,,,,,,,,,
818610,001,2022-11-21_01h10.28.746,Info_measure_main_exp,2022.2.2,Win32,13.09174696,,,,,,,,,,,,,,,,,,masks/mask_001.jpg,,,,,,,,,,,,,,,,,,,,,,,,,,,,,,,,,,,,,,,,,,,0,4,4,0,1,,,,,,,,,,,,,,,,,,,,,,,,,,,,,,,,,,,,,,,,,,,,,,
818610,001,2022-11-21_01h10.28.746,Info_measure_main_exp,2022.2.2,Win32,13.09174696,,,,,,,,,,,,,,,,,,masks/mask_004.jpg,,,,,,,,,,,,,,,,,,,,,,,,,,,,,,,,,,,,,,,,,,,,,,,,0,0,0,3,1,,,,,,,,,,,,,,,,,,,,,,,,,,,,,,,,,,,,,,,,,
818610,001,2022-11-21_01h10.28.746,Info_measure_main_exp,2022.2.2,Win32,13.09174696,,,,,,,,,,,,,,,,,,masks/mask_005.jpg,,,,,,,,,,,,,,,,,,,,,,,,,,,,,,,,,,,,,,,,,,,,,,,,0,1,1,4,1,,,,,,,,,,,,,,,,,,,,,,,,,,,,,,,,,,,,,,,,,
818610,001,2022-11-21_01h10.28.746,Info_measure_main_exp,2022.2.2,Win32,13.09174696,,,,,,,,,,,,,,,,,,masks/mask_002.jpg,,,,,,,,,,,,,,,,,,,,,,,,,,,,,,,,,,,,,,,,,,,,,,,,0,2,2,1,1,,,,,,,,,,,,,,,,,,,,,,,,,,,,,,,,,,,,,,,,,
818610,001,2022-11-21_01h10.28.746,Info_measure_main_exp,2022.2.2,Win32,13.09174696,,,,,,,,,,,,,,,,,,masks/mask_003.jpg,,,,,,,,,,,,,,,,,,,,,,,,,,,,,,,,,,,,,,,,,,,,,,,,0,3,3,2,1,,,,,,,,,,,,,,,,,,,,,,,,,,,,,,,,,,,,,,,,,
818610,001,2022-11-21_01h10.28.746,Info_measure_main_exp,2022.2.2,Win32,13.09174696,,,,,,,,,,,,,,,,,,masks/mask_001.jpg,,,,,,,,,,,,,,,,,,,,,,,,,,,,,,,,,,,,,,,,,,,,,,,,0,4,4,0,1,,,,,,,,,,,,,,,,,,,,,,,,,,,,,,,,,,,,,,,,,
818610,001,2022-11-21_01h10.28.746,Info_measure_main_exp,2022.2.2,Win32,13.09174696,,,,,,,,,,,,,,,,,,,,,,,,,,,,,,7,0.5602,1,,,,,,,,,,,,0,131,5,5,2082,2166,absent_patch/patch0002082.jpg,absent_patch/patch0002166.jpg,,,,,,,,,,,,,,,,,,,,0.044444444,0.149074074,1,0,0,response1disk,33,0.010185185,0.00462963,1,0,0,center_square,0,32,32,43,1,,,,,,,,,,,,,,,,,,,,,,,
818610,001,2022-11-21_01h10.28.746,Info_measure_main_exp,2022.2.2,Win32,13.09174696,,,,,,,,,,,,,,,,,,masks/mask_004.jpg,,,,,,,,,,,,,,,,,,,,,,,,,,,,,,,,,,,,,,,,,,,0,0,0,3,1,,,,,,,,,,,,,,,,,,,,,,,,,,,,,,,,,,,,,,,,,,,,,,
818610,001,2022-11-21_01h10.28.746,Info_measure_main_exp,2022.2.2,Win32,13.09174696,,,,,,,,,,,,,,,,,,masks/mask_005.jpg,,,,,,,,,,,,,,,,,,,,,,,,,,,,,,,,,,,,,,,,,,,0,1,1,4,1,,,,,,,,,,,,,,,,,,,,,,,,,,,,,,,,,,,,,,,,,,,,,,
818610,001,2022-11-21_01h10.28.746,Info_measure_main_exp,2022.2.2,Win32,13.09174696,,,,,,,,,,,,,,,,,,masks/mask_002.jpg,,,,,,,,,,,,,,,,,,,,,,,,,,,,,,,,,,,,,,,,,,,0,2,2,1,1,,,,,,,,,,,,,,,,,,,,,,,,,,,,,,,,,,,,,,,,,,,,,,
818610,001,2022-11-21_01h10.28.746,Info_measure_main_exp,2022.2.2,Win32,13.09174696,,,,,,,,,,,,,,,,,,masks/mask_001.jpg,,,,,,,,,,,,,,,,,,,,,,,,,,,,,,,,,,,,,,,,,,,0,3,3,0,1,,,,,,,,,,,,,,,,,,,,,,,,,,,,,,,,,,,,,,,,,,,,,,
818610,001,2022-11-21_01h10.28.746,Info_measure_main_exp,2022.2.2,Win32,13.09174696,,,,,,,,,,,,,,,,,,masks/mask_003.jpg,,,,,,,,,,,,,,,,,,,,,,,,,,,,,,,,,,,,,,,,,,,0,4,4,2,1,,,,,,,,,,,,,,,,,,,,,,,,,,,,,,,,,,,,,,,,,,,,,,
818610,001,2022-11-21_01h10.28.746,Info_measure_main_exp,2022.2.2,Win32,13.09174696,,,,,,,,,,,,,,,,,,masks/mask_005.jpg,,,,,,,,,,,,,,,,,,,,,,,,,,,,,,,,,,,,,,,,,,,,,,,,0,0,0,4,1,,,,,,,,,,,,,,,,,,,,,,,,,,,,,,,,,,,,,,,,,
818610,001,2022-11-21_01h10.28.746,Info_measure_main_exp,2022.2.2,Win32,13.09174696,,,,,,,,,,,,,,,,,,masks/mask_004.jpg,,,,,,,,,,,,,,,,,,,,,,,,,,,,,,,,,,,,,,,,,,,,,,,,0,1,1,3,1,,,,,,,,,,,,,,,,,,,,,,,,,,,,,,,,,,,,,,,,,
818610,001,2022-11-21_01h10.28.746,Info_measure_main_exp,2022.2.2,Win32,13.09174696,,,,,,,,,,,,,,,,,,masks/mask_002.jpg,,,,,,,,,,,,,,,,,,,,,,,,,,,,,,,,,,,,,,,,,,,,,,,,0,2,2,1,1,,,,,,,,,,,,,,,,,,,,,,,,,,,,,,,,,,,,,,,,,
818610,001,2022-11-21_01h10.28.746,Info_measure_main_exp,2022.2.2,Win32,13.09174696,,,,,,,,,,,,,,,,,,masks/mask_001.jpg,,,,,,,,,,,,,,,,,,,,,,,,,,,,,,,,,,,,,,,,,,,,,,,,0,3,3,0,1,,,,,,,,,,,,,,,,,,,,,,,,,,,,,,,,,,,,,,,,,
818610,001,2022-11-21_01h10.28.746,Info_measure_main_exp,2022.2.2,Win32,13.09174696,,,,,,,,,,,,,,,,,,masks/mask_003.jpg,,,,,,,,,,,,,,,,,,,,,,,,,,,,,,,,,,,,,,,,,,,,,,,,0,4,4,2,1,,,,,,,,,,,,,,,,,,,,,,,,,,,,,,,,,,,,,,,,,
818610,001,2022-11-21_01h10.28.746,Info_measure_main_exp,2022.2.2,Win32,13.09174696,,,,,,,,,,,,,,,,,,,,,,,,,,,,,,0,0.6708,1,,,,,,,,,,,,0,131,5,5,2178,2178,absent_patch/patch0002178.jpg,absent_patch/patch0002178.jpg,,,,,,,,,,,,,,,,,,,,-0.050925926,0.137962963,1,0,0,response7disk,34,-0.001851852,-0.000925926,1,0,0,center_square,0,33,33,98,1,,,,,,,,,,,,,,,,,,,,,,,
818610,001,2022-11-21_01h10.28.746,Info_measure_main_exp,2022.2.2,Win32,13.09174696,,,,,,,,,,,,,,,,,,masks/mask_004.jpg,,,,,,,,,,,,,,,,,,,,,,,,,,,,,,,,,,,,,,,,,,,0,0,0,3,1,,,,,,,,,,,,,,,,,,,,,,,,,,,,,,,,,,,,,,,,,,,,,,
818610,001,2022-11-21_01h10.28.746,Info_measure_main_exp,2022.2.2,Win32,13.09174696,,,,,,,,,,,,,,,,,,masks/mask_002.jpg,,,,,,,,,,,,,,,,,,,,,,,,,,,,,,,,,,,,,,,,,,,0,1,1,1,1,,,,,,,,,,,,,,,,,,,,,,,,,,,,,,,,,,,,,,,,,,,,,,
818610,001,2022-11-21_01h10.28.746,Info_measure_main_exp,2022.2.2,Win32,13.09174696,,,,,,,,,,,,,,,,,,masks/mask_005.jpg,,,,,,,,,,,,,,,,,,,,,,,,,,,,,,,,,,,,,,,,,,,0,2,2,4,1,,,,,,,,,,,,,,,,,,,,,,,,,,,,,,,,,,,,,,,,,,,,,,
818610,001,2022-11-21_01h10.28.746,Info_measure_main_exp,2022.2.2,Win32,13.09174696,,,,,,,,,,,,,,,,,,masks/mask_001.jpg,,,,,,,,,,,,,,,,,,,,,,,,,,,,,,,,,,,,,,,,,,,0,3,3,0,1,,,,,,,,,,,,,,,,,,,,,,,,,,,,,,,,,,,,,,,,,,,,,,
818610,001,2022-11-21_01h10.28.746,Info_measure_main_exp,2022.2.2,Win32,13.09174696,,,,,,,,,,,,,,,,,,masks/mask_003.jpg,,,,,,,,,,,,,,,,,,,,,,,,,,,,,,,,,,,,,,,,,,,0,4,4,2,1,,,,,,,,,,,,,,,,,,,,,,,,,,,,,,,,,,,,,,,,,,,,,,
818610,001,2022-11-21_01h10.28.746,Info_measure_main_exp,2022.2.2,Win32,13.09174696,,,,,,,,,,,,,,,,,,masks/mask_001.jpg,,,,,,,,,,,,,,,,,,,,,,,,,,,,,,,,,,,,,,,,,,,,,,,,0,0,0,0,1,,,,,,,,,,,,,,,,,,,,,,,,,,,,,,,,,,,,,,,,,
818610,001,2022-11-21_01h10.28.746,Info_measure_main_exp,2022.2.2,Win32,13.09174696,,,,,,,,,,,,,,,,,,masks/mask_005.jpg,,,,,,,,,,,,,,,,,,,,,,,,,,,,,,,,,,,,,,,,,,,,,,,,0,1,1,4,1,,,,,,,,,,,,,,,,,,,,,,,,,,,,,,,,,,,,,,,,,
818610,001,2022-11-21_01h10.28.746,Info_measure_main_exp,2022.2.2,Win32,13.09174696,,,,,,,,,,,,,,,,,,masks/mask_002.jpg,,,,,,,,,,,,,,,,,,,,,,,,,,,,,,,,,,,,,,,,,,,,,,,,0,2,2,1,1,,,,,,,,,,,,,,,,,,,,,,,,,,,,,,,,,,,,,,,,,
818610,001,2022-11-21_01h10.28.746,Info_measure_main_exp,2022.2.2,Win32,13.09174696,,,,,,,,,,,,,,,,,,masks/mask_003.jpg,,,,,,,,,,,,,,,,,,,,,,,,,,,,,,,,,,,,,,,,,,,,,,,,0,3,3,2,1,,,,,,,,,,,,,,,,,,,,,,,,,,,,,,,,,,,,,,,,,
