participant,session,date,expName,psychopyVersion,OS,frameRate,space_press_continue.keys,space_press_continue.rt,space_press_continue_2.keys,space_press_continue_2.rt,space_press_continue_3.keys,space_press_continue_3.rt,space_press_continue_4.keys,space_press_continue_4.rt,space_press_continue_5.keys,space_press_continue_5.rt,space_press_continue_6.keys,space_press_continue_6.rt,prac_mask_loop_1.thisRepN,prac_mask_loop_1.thisTrialN,prac_mask_loop_1.thisN,prac_mask_loop_1.thisIndex,prac_mask_loop_1.ran,mask_name,prac_mask_loop_2.thisRepN,prac_mask_loop_2.thisTrialN,prac_mask_loop_2.thisN,prac_mask_loop_2.thisIndex,prac_mask_loop_2.ran,mouse_2.x,mouse_2.y,mouse_2.leftButton,mouse_2.midButton,mouse_2.rightButton,mouse_2.clicked_name,similarity,response_time,Pass,mouse_12.x,mouse_12.y,mouse_12.leftButton,mouse_12.midButton,mouse_12.rightButton,mouse_12.clicked_name,prac_loop.thisRepN,prac_loop.thisTrialN,prac_loop.thisN,prac_loop.thisIndex,prac_loop.ran,Pair_type,Image_num,Patch_1_loc,Patch_2_loc,Patch_1_info,Patch_2_info,Patch_1_name,Patch_2_name,mouse_1.x,mouse_1.y,mouse_1.leftButton,mouse_1.midButton,mouse_1.rightButton,mouse_1.time,mouse_1.clicked_name,space_press_continue_7.keys,space_press_continue_7.rt,mask_loop.thisRepN,mask_loop.thisTrialN,mask_loop.thisN,mask_loop.thisIndex,mask_loop.ran,mask_loop_2.thisRepN,mask_loop_2.thisTrialN,mask_loop_2.thisN,mask_loop_2.thisIndex,mask_loop_2.ran,mouse.x,mouse.y,mouse.leftButton,mouse.midButton,mouse.rightButton,mouse.clicked_name,trialNumber,mouse_11.x,mouse_11.y,mouse_11.leftButton,mouse_11.midButton,mouse_11.rightButton,mouse_11.clicked_name,first_pass_loop.thisRepN,first_pass_loop.thisTrialN,first_pass_loop.thisN,first_pass_loop.thisIndex,first_pass_loop.ran,mask_loop_3.thisRepN,mask_loop_3.thisTrialN,mask_loop_3.thisN,mask_loop_3.thisIndex,mask_loop_3.ran,mask_loop_4.thisRepN,mask_loop_4.thisTrialN,mask_loop_4.thisN,mask_loop_4.thisIndex,mask_loop_4.ran,mouse_3.x,mouse_3.y,mouse_3.leftButton,mouse_3.midButton,mouse_3.rightButton,mouse_3.clicked_name,double_pass_loop.thisRepN,double_pass_loop.thisTrialN,double_pass_loop.thisN,double_pass_loop.thisIndex,double_pass_loop.ran,space_exit.keys,space_exit.rt
824160,001,2022-11-21_24h55.13.712,Info_measure_main_exp,2022.2.2,Win32,59.50255861,,,,,,,,,,,,,,,,,,,,,,,,,,,,,,,,,,,,,,,,,,,,,,,,,,,,,,,,,,,,,,,,,,,,,,,,,,,,,,,,,,,,,,,,,,,,,,,,,,,,,,,,,,,,,,,
824160,001,2022-11-21_24h55.13.712,Info_measure_main_exp,2022.2.2,Win32,59.50255861,,,,,,,,,,,,,,,,,,,,,,,,,,,,,,,,,,,,,,,,,,,,,,,,,,,,,,,,,,,,,,,,,,,,,,,,,,,,,,,,,,,,,,,,,,,,,,,,,,,,,,,,,,,,,,,
824160,001,2022-11-21_24h55.13.712,Info_measure_main_exp,2022.2.2,Win32,59.50255861,space,6.9593,,,,,,,,,,,,,,,,,,,,,,,,,,,,,,,,,,,,,,,,,,,,,,,,,,,,,,,,,,,,,,,,,,,,,,,,,,,,,,,,,,,,,,,,,,,,,,,,,,,,,,,,,,,,,
824160,001,2022-11-21_24h55.13.712,Info_measure_main_exp,2022.2.2,Win32,59.50255861,,,space,19.3375,,,,,,,,,,,,,,,,,,,,,,,,,,,,,,,,,,,,,,,,,,,,,,,,,,,,,,,,,,,,,,,,,,,,,,,,,,,,,,,,,,,,,,,,,,,,,,,,,,,,,,,,,,,
824160,001,2022-11-21_24h55.13.712,Info_measure_main_exp,2022.2.2,Win32,59.50255861,,,,,space,14.242,,,,,,,,,,,,,,,,,,,,,,,,,,,,,,,,,,,,,,,,,,,,,,,,,,,,,,,,,,,,,,,,,,,,,,,,,,,,,,,,,,,,,,,,,,,,,,,,,,,,,,,,,
824160,001,2022-11-21_24h55.13.712,Info_measure_main_exp,2022.2.2,Win32,59.50255861,,,,,,,space,32.2303,,,,,,,,,,,,,,,,,,,,,,,,,,,,,,,,,,,,,,,,,,,,,,,,,,,,,,,,,,,,,,,,,,,,,,,,,,,,,,,,,,,,,,,,,,,,,,,,,,,,,,,
824160,001,2022-11-21_24h55.13.712,Info_measure_main_exp,2022.2.2,Win32,59.50255861,,,,,,,,,space,7.8661,,,,,,,,,,,,,,,,,,,,,,,,,,,,,,,,,,,,,,,,,,,,,,,,,,,,,,,,,,,,,,,,,,,,,,,,,,,,,,,,,,,,,,,,,,,,,,,,,,,,,
824160,001,2022-11-21_24h55.13.712,Info_measure_main_exp,2022.2.2,Win32,59.50255861,,,,,,,,,,,space,8.8966,,,,,,,,,,,,,,,,,,,,,,,,,,,,,,,,,,,,,,,,,,,,,,,,,,,,,,,,,,,,,,,,,,,,,,,,,,,,,,,,,,,,,,,,,,,,,,,,,,,
824160,001,2022-11-21_24h55.13.712,Info_measure_main_exp,2022.2.2,Win32,59.50255861,,,,,,,,,,,,,0,0,0,4,1,masks/mask_005.jpg,,,,,,,,,,,,,,,,,,,,,,,,,,,,,,,,,,,,,,,,,,,,,,,,,,,,,,,,,,,,,,,,,,,,,,,,,,,,,,,,,,,,,,,,,,,,,
824160,001,2022-11-21_24h55.13.712,Info_measure_main_exp,2022.2.2,Win32,59.50255861,,,,,,,,,,,,,0,1,1,2,1,masks/mask_003.jpg,,,,,,,,,,,,,,,,,,,,,,,,,,,,,,,,,,,,,,,,,,,,,,,,,,,,,,,,,,,,,,,,,,,,,,,,,,,,,,,,,,,,,,,,,,,,,
824160,001,2022-11-21_24h55.13.712,Info_measure_main_exp,2022.2.2,Win32,59.50255861,,,,,,,,,,,,,0,2,2,1,1,masks/mask_002.jpg,,,,,,,,,,,,,,,,,,,,,,,,,,,,,,,,,,,,,,,,,,,,,,,,,,,,,,,,,,,,,,,,,,,,,,,,,,,,,,,,,,,,,,,,,,,,,
824160,001,2022-11-21_24h55.13.712,Info_measure_main_exp,2022.2.2,Win32,59.50255861,,,,,,,,,,,,,0,3,3,3,1,masks/mask_004.jpg,,,,,,,,,,,,,,,,,,,,,,,,,,,,,,,,,,,,,,,,,,,,,,,,,,,,,,,,,,,,,,,,,,,,,,,,,,,,,,,,,,,,,,,,,,,,,
824160,001,2022-11-21_24h55.13.712,Info_measure_main_exp,2022.2.2,Win32,59.50255861,,,,,,,,,,,,,0,4,4,0,1,masks/mask_001.jpg,,,,,,,,,,,,,,,,,,,,,,,,,,,,,,,,,,,,,,,,,,,,,,,,,,,,,,,,,,,,,,,,,,,,,,,,,,,,,,,,,,,,,,,,,,,,,
824160,001,2022-11-21_24h55.13.712,Info_measure_main_exp,2022.2.2,Win32,59.50255861,,,,,,,,,,,,,,,,,,masks/mask_003.jpg,0,0,0,2,1,,,,,,,,,,,,,,,,,,,,,,,,,,,,,,,,,,,,,,,,,,,,,,,,,,,,,,,,,,,,,,,,,,,,,,,,,,,,,,,,,,,,,,,,
824160,001,2022-11-21_24h55.13.712,Info_measure_main_exp,2022.2.2,Win32,59.50255861,,,,,,,,,,,,,,,,,,masks/mask_001.jpg,0,1,1,0,1,,,,,,,,,,,,,,,,,,,,,,,,,,,,,,,,,,,,,,,,,,,,,,,,,,,,,,,,,,,,,,,,,,,,,,,,,,,,,,,,,,,,,,,,
824160,001,2022-11-21_24h55.13.712,Info_measure_main_exp,2022.2.2,Win32,59.50255861,,,,,,,,,,,,,,,,,,masks/mask_004.jpg,0,2,2,3,1,,,,,,,,,,,,,,,,,,,,,,,,,,,,,,,,,,,,,,,,,,,,,,,,,,,,,,,,,,,,,,,,,,,,,,,,,,,,,,,,,,,,,,,,
824160,001,2022-11-21_24h55.13.712,Info_measure_main_exp,2022.2.2,Win32,59.50255861,,,,,,,,,,,,,,,,,,masks/mask_005.jpg,0,3,3,4,1,,,,,,,,,,,,,,,,,,,,,,,,,,,,,,,,,,,,,,,,,,,,,,,,,,,,,,,,,,,,,,,,,,,,,,,,,,,,,,,,,,,,,,,,
824160,001,2022-11-21_24h55.13.712,Info_measure_main_exp,2022.2.2,Win32,59.50255861,,,,,,,,,,,,,,,,,,masks/mask_002.jpg,0,4,4,1,1,,,,,,,,,,,,,,,,,,,,,,,,,,,,,,,,,,,,,,,,,,,,,,,,,,,,,,,,,,,,,,,,,,,,,,,,,,,,,,,,,,,,,,,,
824160,001,2022-11-21_24h55.13.712,Info_measure_main_exp,2022.2.2,Win32,59.50255861,,,,,,,,,,,,,,,,,,,,,,,,0.03500907,0.16318751,1,0,0,response1disk,7,94.9248,1,0.000772597,-0.001517477,1,0,0,center_square,0,0,0,2,1,0,131,5,5,2526,2526,prac_patch/patch0002526.jpg,prac_patch/patch0002526.jpg,,,,,,,,,,,,,,,,,,,,,,,,,,,,,,,,,,,,,,,,,,,,,,,,,,,,,,,,,,,,
824160,001,2022-11-21_24h55.13.712,Info_measure_main_exp,2022.2.2,Win32,59.50255861,,,,,,,,,,,,,0,0,0,4,1,masks/mask_005.jpg,,,,,,,,,,,,,,,,,,,,,,,,,,,,,,,,,,,,,,,,,,,,,,,,,,,,,,,,,,,,,,,,,,,,,,,,,,,,,,,,,,,,,,,,,,,,,
824160,001,2022-11-21_24h55.13.712,Info_measure_main_exp,2022.2.2,Win32,59.50255861,,,,,,,,,,,,,0,1,1,2,1,masks/mask_003.jpg,,,,,,,,,,,,,,,,,,,,,,,,,,,,,,,,,,,,,,,,,,,,,,,,,,,,,,,,,,,,,,,,,,,,,,,,,,,,,,,,,,,,,,,,,,,,,
824160,001,2022-11-21_24h55.13.712,Info_measure_main_exp,2022.2.2,Win32,59.50255861,,,,,,,,,,,,,0,2,2,1,1,masks/mask_002.jpg,,,,,,,,,,,,,,,,,,,,,,,,,,,,,,,,,,,,,,,,,,,,,,,,,,,,,,,,,,,,,,,,,,,,,,,,,,,,,,,,,,,,,,,,,,,,,
824160,001,2022-11-21_24h55.13.712,Info_measure_main_exp,2022.2.2,Win32,59.50255861,,,,,,,,,,,,,0,3,3,0,1,masks/mask_001.jpg,,,,,,,,,,,,,,,,,,,,,,,,,,,,,,,,,,,,,,,,,,,,,,,,,,,,,,,,,,,,,,,,,,,,,,,,,,,,,,,,,,,,,,,,,,,,,
824160,001,2022-11-21_24h55.13.712,Info_measure_main_exp,2022.2.2,Win32,59.50255861,,,,,,,,,,,,,0,4,4,3,1,masks/mask_004.jpg,,,,,,,,,,,,,,,,,,,,,,,,,,,,,,,,,,,,,,,,,,,,,,,,,,,,,,,,,,,,,,,,,,,,,,,,,,,,,,,,,,,,,,,,,,,,,
824160,001,2022-11-21_24h55.13.712,Info_measure_main_exp,2022.2.2,Win32,59.50255861,,,,,,,,,,,,,,,,,,masks/mask_001.jpg,0,0,0,0,1,,,,,,,,,,,,,,,,,,,,,,,,,,,,,,,,,,,,,,,,,,,,,,,,,,,,,,,,,,,,,,,,,,,,,,,,,,,,,,,,,,,,,,,,
824160,001,2022-11-21_24h55.13.712,Info_measure_main_exp,2022.2.2,Win32,59.50255861,,,,,,,,,,,,,,,,,,masks/mask_004.jpg,0,1,1,3,1,,,,,,,,,,,,,,,,,,,,,,,,,,,,,,,,,,,,,,,,,,,,,,,,,,,,,,,,,,,,,,,,,,,,,,,,,,,,,,,,,,,,,,,,
824160,001,2022-11-21_24h55.13.712,Info_measure_main_exp,2022.2.2,Win32,59.50255861,,,,,,,,,,,,,,,,,,masks/mask_002.jpg,0,2,2,1,1,,,,,,,,,,,,,,,,,,,,,,,,,,,,,,,,,,,,,,,,,,,,,,,,,,,,,,,,,,,,,,,,,,,,,,,,,,,,,,,,,,,,,,,,
824160,001,2022-11-21_24h55.13.712,Info_measure_main_exp,2022.2.2,Win32,59.50255861,,,,,,,,,,,,,,,,,,masks/mask_003.jpg,0,3,3,2,1,,,,,,,,,,,,,,,,,,,,,,,,,,,,,,,,,,,,,,,,,,,,,,,,,,,,,,,,,,,,,,,,,,,,,,,,,,,,,,,,,,,,,,,,
824160,001,2022-11-21_24h55.13.712,Info_measure_main_exp,2022.2.2,Win32,59.50255861,,,,,,,,,,,,,,,,,,masks/mask_005.jpg,0,4,4,4,1,,,,,,,,,,,,,,,,,,,,,,,,,,,,,,,,,,,,,,,,,,,,,,,,,,,,,,,,,,,,,,,,,,,,,,,,,,,,,,,,,,,,,,,,
824160,001,2022-11-21_24h55.13.712,Info_measure_main_exp,2022.2.2,Win32,59.50255861,,,,,,,,,,,,,,,,,,,,,,,,0.02760653,-0.076467538,1,0,0,response3disk,4,106.5367,1,0.002623256,0.004959686,1,0,0,center_square,0,1,1,1,1,0,131,5,5,2514,2490,prac_patch/patch0002514.jpg,prac_patch/patch0002490.jpg,,,,,,,,,,,,,,,,,,,,,,,,,,,,,,,,,,,,,,,,,,,,,,,,,,,,,,,,,,,,
824160,001,2022-11-21_24h55.13.712,Info_measure_main_exp,2022.2.2,Win32,59.50255861,,,,,,,,,,,,,0,0,0,4,1,masks/mask_005.jpg,,,,,,,,,,,,,,,,,,,,,,,,,,,,,,,,,,,,,,,,,,,,,,,,,,,,,,,,,,,,,,,,,,,,,,,,,,,,,,,,,,,,,,,,,,,,,
824160,001,2022-11-21_24h55.13.712,Info_measure_main_exp,2022.2.2,Win32,59.50255861,,,,,,,,,,,,,0,1,1,0,1,masks/mask_001.jpg,,,,,,,,,,,,,,,,,,,,,,,,,,,,,,,,,,,,,,,,,,,,,,,,,,,,,,,,,,,,,,,,,,,,,,,,,,,,,,,,,,,,,,,,,,,,,
824160,001,2022-11-21_24h55.13.712,Info_measure_main_exp,2022.2.2,Win32,59.50255861,,,,,,,,,,,,,0,2,2,2,1,masks/mask_003.jpg,,,,,,,,,,,,,,,,,,,,,,,,,,,,,,,,,,,,,,,,,,,,,,,,,,,,,,,,,,,,,,,,,,,,,,,,,,,,,,,,,,,,,,,,,,,,,
824160,001,2022-11-21_24h55.13.712,Info_measure_main_exp,2022.2.2,Win32,59.50255861,,,,,,,,,,,,,0,3,3,3,1,masks/mask_004.jpg,,,,,,,,,,,,,,,,,,,,,,,,,,,,,,,,,,,,,,,,,,,,,,,,,,,,,,,,,,,,,,,,,,,,,,,,,,,,,,,,,,,,,,,,,,,,,
824160,001,2022-11-21_24h55.13.712,Info_measure_main_exp,2022.2.2,Win32,59.50255861,,,,,,,,,,,,,0,4,4,1,1,masks/mask_002.jpg,,,,,,,,,,,,,,,,,,,,,,,,,,,,,,,,,,,,,,,,,,,,,,,,,,,,,,,,,,,,,,,,,,,,,,,,,,,,,,,,,,,,,,,,,,,,,
824160,001,2022-11-21_24h55.13.712,Info_measure_main_exp,2022.2.2,Win32,59.50255861,,,,,,,,,,,,,,,,,,masks/mask_001.jpg,0,0,0,0,1,,,,,,,,,,,,,,,,,,,,,,,,,,,,,,,,,,,,,,,,,,,,,,,,,,,,,,,,,,,,,,,,,,,,,,,,,,,,,,,,,,,,,,,,
824160,001,2022-11-21_24h55.13.712,Info_measure_main_exp,2022.2.2,Win32,59.50255861,,,,,,,,,,,,,,,,,,masks/mask_004.jpg,0,1,1,3,1,,,,,,,,,,,,,,,,,,,,,,,,,,,,,,,,,,,,,,,,,,,,,,,,,,,,,,,,,,,,,,,,,,,,,,,,,,,,,,,,,,,,,,,,
824160,001,2022-11-21_24h55.13.712,Info_measure_main_exp,2022.2.2,Win32,59.50255861,,,,,,,,,,,,,,,,,,masks/mask_005.jpg,0,2,2,4,1,,,,,,,,,,,,,,,,,,,,,,,,,,,,,,,,,,,,,,,,,,,,,,,,,,,,,,,,,,,,,,,,,,,,,,,,,,,,,,,,,,,,,,,,
824160,001,2022-11-21_24h55.13.712,Info_measure_main_exp,2022.2.2,Win32,59.50255861,,,,,,,,,,,,,,,,,,masks/mask_003.jpg,0,3,3,2,1,,,,,,,,,,,,,,,,,,,,,,,,,,,,,,,,,,,,,,,,,,,,,,,,,,,,,,,,,,,,,,,,,,,,,,,,,,,,,,,,,,,,,,,,
824160,001,2022-11-21_24h55.13.712,Info_measure_main_exp,2022.2.2,Win32,59.50255861,,,,,,,,,,,,,,,,,,masks/mask_002.jpg,0,4,4,1,1,,,,,,,,,,,,,,,,,,,,,,,,,,,,,,,,,,,,,,,,,,,,,,,,,,,,,,,,,,,,,,,,,,,,,,,,,,,,,,,,,,,,,,,,
824160,001,2022-11-21_24h55.13.712,Info_measure_main_exp,2022.2.2,Win32,59.50255861,,,,,,,,,,,,,,,,,,,,,,,,0.031307752,0.062328821,1,0,0,response1disk,7,116.2365,1,-0.006629847,0.000333134,1,0,0,center_square,0,2,2,0,1,0,131,5,5,2370,2406,prac_patch/patch0002370.jpg,prac_patch/patch0002406.jpg,,,,,,,,,,,,,,,,,,,,,,,,,,,,,,,,,,,,,,,,,,,,,,,,,,,,,,,,,,,,
824160,001,2022-11-21_24h55.13.712,Info_measure_main_exp,2022.2.2,Win32,59.50255861,,,,,,,,,,,,,,,,,,,,,,,,,,,,,,,,,,,,,,,,,,,,,,,,,,,,,,,,,,,space,3.478,,,,,,,,,,,,,,,,,,,,,,,,,,,,,,,,,,,,,,,,,,,,,,,,,,,
824160,001,2022-11-21_24h55.13.712,Info_measure_main_exp,2022.2.2,Win32,59.50255861,,,,,,,,,,,,,,,,,,masks/mask_002.jpg,,,,,,,,,,,,,,,,,,,,,,,,,,,,,,,,,,,,,,,,,,,0,0,0,1,1,,,,,,,,,,,,,,,,,,,,,,,,,,,,,,,,,,,,,,,,,,,,,,
824160,001,2022-11-21_24h55.13.712,Info_measure_main_exp,2022.2.2,Win32,59.50255861,,,,,,,,,,,,,,,,,,masks/mask_005.jpg,,,,,,,,,,,,,,,,,,,,,,,,,,,,,,,,,,,,,,,,,,,0,1,1,4,1,,,,,,,,,,,,,,,,,,,,,,,,,,,,,,,,,,,,,,,,,,,,,,
824160,001,2022-11-21_24h55.13.712,Info_measure_main_exp,2022.2.2,Win32,59.50255861,,,,,,,,,,,,,,,,,,masks/mask_001.jpg,,,,,,,,,,,,,,,,,,,,,,,,,,,,,,,,,,,,,,,,,,,0,2,2,0,1,,,,,,,,,,,,,,,,,,,,,,,,,,,,,,,,,,,,,,,,,,,,,,
824160,001,2022-11-21_24h55.13.712,Info_measure_main_exp,2022.2.2,Win32,59.50255861,,,,,,,,,,,,,,,,,,masks/mask_004.jpg,,,,,,,,,,,,,,,,,,,,,,,,,,,,,,,,,,,,,,,,,,,0,3,3,3,1,,,,,,,,,,,,,,,,,,,,,,,,,,,,,,,,,,,,,,,,,,,,,,
824160,001,2022-11-21_24h55.13.712,Info_measure_main_exp,2022.2.2,Win32,59.50255861,,,,,,,,,,,,,,,,,,masks/mask_003.jpg,,,,,,,,,,,,,,,,,,,,,,,,,,,,,,,,,,,,,,,,,,,0,4,4,2,1,,,,,,,,,,,,,,,,,,,,,,,,,,,,,,,,,,,,,,,,,,,,,,
824160,001,2022-11-21_24h55.13.712,Info_measure_main_exp,2022.2.2,Win32,59.50255861,,,,,,,,,,,,,,,,,,masks/mask_004.jpg,,,,,,,,,,,,,,,,,,,,,,,,,,,,,,,,,,,,,,,,,,,,,,,,0,0,0,3,1,,,,,,,,,,,,,,,,,,,,,,,,,,,,,,,,,,,,,,,,,
824160,001,2022-11-21_24h55.13.712,Info_measure_main_exp,2022.2.2,Win32,59.50255861,,,,,,,,,,,,,,,,,,masks/mask_002.jpg,,,,,,,,,,,,,,,,,,,,,,,,,,,,,,,,,,,,,,,,,,,,,,,,0,1,1,1,1,,,,,,,,,,,,,,,,,,,,,,,,,,,,,,,,,,,,,,,,,
824160,001,2022-11-21_24h55.13.712,Info_measure_main_exp,2022.2.2,Win32,59.50255861,,,,,,,,,,,,,,,,,,masks/mask_003.jpg,,,,,,,,,,,,,,,,,,,,,,,,,,,,,,,,,,,,,,,,,,,,,,,,0,2,2,2,1,,,,,,,,,,,,,,,,,,,,,,,,,,,,,,,,,,,,,,,,,
824160,001,2022-11-21_24h55.13.712,Info_measure_main_exp,2022.2.2,Win32,59.50255861,,,,,,,,,,,,,,,,,,masks/mask_005.jpg,,,,,,,,,,,,,,,,,,,,,,,,,,,,,,,,,,,,,,,,,,,,,,,,0,3,3,4,1,,,,,,,,,,,,,,,,,,,,,,,,,,,,,,,,,,,,,,,,,
824160,001,2022-11-21_24h55.13.712,Info_measure_main_exp,2022.2.2,Win32,59.50255861,,,,,,,,,,,,,,,,,,masks/mask_001.jpg,,,,,,,,,,,,,,,,,,,,,,,,,,,,,,,,,,,,,,,,,,,,,,,,0,4,4,0,1,,,,,,,,,,,,,,,,,,,,,,,,,,,,,,,,,,,,,,,,,
824160,001,2022-11-21_24h55.13.712,Info_measure_main_exp,2022.2.2,Win32,59.50255861,,,,,,,,,,,,,,,,,,,,,,,,,,,,,,0,0.834,1,,,,,,,,,,,,0,131,5,5,2250,2250,absent_patch/patch0002250.jpg,absent_patch/patch0002250.jpg,,,,,,,,,,,,,,,,,,,,-0.026986714,0.08546158,1,0,0,response7disk,1,-0.002003344,-0.003368088,1,0,0,center_square,0,0,0,56,1,,,,,,,,,,,,,,,,,,,,,,,
824160,001,2022-11-21_24h55.13.712,Info_measure_main_exp,2022.2.2,Win32,59.50255861,,,,,,,,,,,,,,,,,,masks/mask_005.jpg,,,,,,,,,,,,,,,,,,,,,,,,,,,,,,,,,,,,,,,,,,,0,0,0,4,1,,,,,,,,,,,,,,,,,,,,,,,,,,,,,,,,,,,,,,,,,,,,,,
824160,001,2022-11-21_24h55.13.712,Info_measure_main_exp,2022.2.2,Win32,59.50255861,,,,,,,,,,,,,,,,,,masks/mask_002.jpg,,,,,,,,,,,,,,,,,,,,,,,,,,,,,,,,,,,,,,,,,,,0,1,1,1,1,,,,,,,,,,,,,,,,,,,,,,,,,,,,,,,,,,,,,,,,,,,,,,
824160,001,2022-11-21_24h55.13.712,Info_measure_main_exp,2022.2.2,Win32,59.50255861,,,,,,,,,,,,,,,,,,masks/mask_004.jpg,,,,,,,,,,,,,,,,,,,,,,,,,,,,,,,,,,,,,,,,,,,0,2,2,3,1,,,,,,,,,,,,,,,,,,,,,,,,,,,,,,,,,,,,,,,,,,,,,,
824160,001,2022-11-21_24h55.13.712,Info_measure_main_exp,2022.2.2,Win32,59.50255861,,,,,,,,,,,,,,,,,,masks/mask_003.jpg,,,,,,,,,,,,,,,,,,,,,,,,,,,,,,,,,,,,,,,,,,,0,3,3,2,1,,,,,,,,,,,,,,,,,,,,,,,,,,,,,,,,,,,,,,,,,,,,,,
824160,001,2022-11-21_24h55.13.712,Info_measure_main_exp,2022.2.2,Win32,59.50255861,,,,,,,,,,,,,,,,,,masks/mask_001.jpg,,,,,,,,,,,,,,,,,,,,,,,,,,,,,,,,,,,,,,,,,,,0,4,4,0,1,,,,,,,,,,,,,,,,,,,,,,,,,,,,,,,,,,,,,,,,,,,,,,
824160,001,2022-11-21_24h55.13.712,Info_measure_main_exp,2022.2.2,Win32,59.50255861,,,,,,,,,,,,,,,,,,masks/mask_004.jpg,,,,,,,,,,,,,,,,,,,,,,,,,,,,,,,,,,,,,,,,,,,,,,,,0,0,0,3,1,,,,,,,,,,,,,,,,,,,,,,,,,,,,,,,,,,,,,,,,,
824160,001,2022-11-21_24h55.13.712,Info_measure_main_exp,2022.2.2,Win32,59.50255861,,,,,,,,,,,,,,,,,,masks/mask_005.jpg,,,,,,,,,,,,,,,,,,,,,,,,,,,,,,,,,,,,,,,,,,,,,,,,0,1,1,4,1,,,,,,,,,,,,,,,,,,,,,,,,,,,,,,,,,,,,,,,,,
824160,001,2022-11-21_24h55.13.712,Info_measure_main_exp,2022.2.2,Win32,59.50255861,,,,,,,,,,,,,,,,,,masks/mask_002.jpg,,,,,,,,,,,,,,,,,,,,,,,,,,,,,,,,,,,,,,,,,,,,,,,,0,2,2,1,1,,,,,,,,,,,,,,,,,,,,,,,,,,,,,,,,,,,,,,,,,
824160,001,2022-11-21_24h55.13.712,Info_measure_main_exp,2022.2.2,Win32,59.50255861,,,,,,,,,,,,,,,,,,masks/mask_001.jpg,,,,,,,,,,,,,,,,,,,,,,,,,,,,,,,,,,,,,,,,,,,,,,,,0,3,3,0,1,,,,,,,,,,,,,,,,,,,,,,,,,,,,,,,,,,,,,,,,,
824160,001,2022-11-21_24h55.13.712,Info_measure_main_exp,2022.2.2,Win32,59.50255861,,,,,,,,,,,,,,,,,,masks/mask_003.jpg,,,,,,,,,,,,,,,,,,,,,,,,,,,,,,,,,,,,,,,,,,,,,,,,0,4,4,2,1,,,,,,,,,,,,,,,,,,,,,,,,,,,,,,,,,,,,,,,,,
824160,001,2022-11-21_24h55.13.712,Info_measure_main_exp,2022.2.2,Win32,59.50255861,,,,,,,,,,,,,,,,,,,,,,,,,,,,,,7,1.1336,1,,,,,,,,,,,,0,131,5,5,2250,2214,absent_patch/patch0002250.jpg,absent_patch/patch0002214.jpg,,,,,,,,,,,,,,,,,,,,0.041486233,0.087312191,1,0,0,response1disk,2,-0.004779285,0.002183745,1,0,0,center_square,0,1,1,97,1,,,,,,,,,,,,,,,,,,,,,,,
824160,001,2022-11-21_24h55.13.712,Info_measure_main_exp,2022.2.2,Win32,59.50255861,,,,,,,,,,,,,,,,,,masks/mask_004.jpg,,,,,,,,,,,,,,,,,,,,,,,,,,,,,,,,,,,,,,,,,,,0,0,0,3,1,,,,,,,,,,,,,,,,,,,,,,,,,,,,,,,,,,,,,,,,,,,,,,
824160,001,2022-11-21_24h55.13.712,Info_measure_main_exp,2022.2.2,Win32,59.50255861,,,,,,,,,,,,,,,,,,masks/mask_005.jpg,,,,,,,,,,,,,,,,,,,,,,,,,,,,,,,,,,,,,,,,,,,0,1,1,4,1,,,,,,,,,,,,,,,,,,,,,,,,,,,,,,,,,,,,,,,,,,,,,,
824160,001,2022-11-21_24h55.13.712,Info_measure_main_exp,2022.2.2,Win32,59.50255861,,,,,,,,,,,,,,,,,,masks/mask_001.jpg,,,,,,,,,,,,,,,,,,,,,,,,,,,,,,,,,,,,,,,,,,,0,2,2,0,1,,,,,,,,,,,,,,,,,,,,,,,,,,,,,,,,,,,,,,,,,,,,,,
824160,001,2022-11-21_24h55.13.712,Info_measure_main_exp,2022.2.2,Win32,59.50255861,,,,,,,,,,,,,,,,,,masks/mask_002.jpg,,,,,,,,,,,,,,,,,,,,,,,,,,,,,,,,,,,,,,,,,,,0,3,3,1,1,,,,,,,,,,,,,,,,,,,,,,,,,,,,,,,,,,,,,,,,,,,,,,
824160,001,2022-11-21_24h55.13.712,Info_measure_main_exp,2022.2.2,Win32,59.50255861,,,,,,,,,,,,,,,,,,masks/mask_003.jpg,,,,,,,,,,,,,,,,,,,,,,,,,,,,,,,,,,,,,,,,,,,0,4,4,2,1,,,,,,,,,,,,,,,,,,,,,,,,,,,,,,,,,,,,,,,,,,,,,,
824160,001,2022-11-21_24h55.13.712,Info_measure_main_exp,2022.2.2,Win32,59.50255861,,,,,,,,,,,,,,,,,,masks/mask_005.jpg,,,,,,,,,,,,,,,,,,,,,,,,,,,,,,,,,,,,,,,,,,,,,,,,0,0,0,4,1,,,,,,,,,,,,,,,,,,,,,,,,,,,,,,,,,,,,,,,,,
824160,001,2022-11-21_24h55.13.712,Info_measure_main_exp,2022.2.2,Win32,59.50255861,,,,,,,,,,,,,,,,,,masks/mask_004.jpg,,,,,,,,,,,,,,,,,,,,,,,,,,,,,,,,,,,,,,,,,,,,,,,,0,1,1,3,1,,,,,,,,,,,,,,,,,,,,,,,,,,,,,,,,,,,,,,,,,
824160,001,2022-11-21_24h55.13.712,Info_measure_main_exp,2022.2.2,Win32,59.50255861,,,,,,,,,,,,,,,,,,masks/mask_001.jpg,,,,,,,,,,,,,,,,,,,,,,,,,,,,,,,,,,,,,,,,,,,,,,,,0,2,2,0,1,,,,,,,,,,,,,,,,,,,,,,,,,,,,,,,,,,,,,,,,,
824160,001,2022-11-21_24h55.13.712,Info_measure_main_exp,2022.2.2,Win32,59.50255861,,,,,,,,,,,,,,,,,,masks/mask_002.jpg,,,,,,,,,,,,,,,,,,,,,,,,,,,,,,,,,,,,,,,,,,,,,,,,0,3,3,1,1,,,,,,,,,,,,,,,,,,,,,,,,,,,,,,,,,,,,,,,,,
824160,001,2022-11-21_24h55.13.712,Info_measure_main_exp,2022.2.2,Win32,59.50255861,,,,,,,,,,,,,,,,,,masks/mask_003.jpg,,,,,,,,,,,,,,,,,,,,,,,,,,,,,,,,,,,,,,,,,,,,,,,,0,4,4,2,1,,,,,,,,,,,,,,,,,,,,,,,,,,,,,,,,,,,,,,,,,
824160,001,2022-11-21_24h55.13.712,Info_measure_main_exp,2022.2.2,Win32,59.50255861,,,,,,,,,,,,,,,,,,,,,,,,,,,,,,7,0.9833,1,,,,,,,,,,,,0,131,5,5,2298,1986,absent_patch/patch0002298.jpg,absent_patch/patch0001986.jpg,,,,,,,,,,,,,,,,,,,,0.047038018,0.103042434,1,0,0,response1disk,3,0.002623256,0.003109075,1,0,0,center_square,0,2,2,32,1,,,,,,,,,,,,,,,,,,,,,,,
824160,001,2022-11-21_24h55.13.712,Info_measure_main_exp,2022.2.2,Win32,59.50255861,,,,,,,,,,,,,,,,,,masks/mask_005.jpg,,,,,,,,,,,,,,,,,,,,,,,,,,,,,,,,,,,,,,,,,,,0,0,0,4,1,,,,,,,,,,,,,,,,,,,,,,,,,,,,,,,,,,,,,,,,,,,,,,
824160,001,2022-11-21_24h55.13.712,Info_measure_main_exp,2022.2.2,Win32,59.50255861,,,,,,,,,,,,,,,,,,masks/mask_003.jpg,,,,,,,,,,,,,,,,,,,,,,,,,,,,,,,,,,,,,,,,,,,0,1,1,2,1,,,,,,,,,,,,,,,,,,,,,,,,,,,,,,,,,,,,,,,,,,,,,,
824160,001,2022-11-21_24h55.13.712,Info_measure_main_exp,2022.2.2,Win32,59.50255861,,,,,,,,,,,,,,,,,,masks/mask_002.jpg,,,,,,,,,,,,,,,,,,,,,,,,,,,,,,,,,,,,,,,,,,,0,2,2,1,1,,,,,,,,,,,,,,,,,,,,,,,,,,,,,,,,,,,,,,,,,,,,,,
824160,001,2022-11-21_24h55.13.712,Info_measure_main_exp,2022.2.2,Win32,59.50255861,,,,,,,,,,,,,,,,,,masks/mask_001.jpg,,,,,,,,,,,,,,,,,,,,,,,,,,,,,,,,,,,,,,,,,,,0,3,3,0,1,,,,,,,,,,,,,,,,,,,,,,,,,,,,,,,,,,,,,,,,,,,,,,
824160,001,2022-11-21_24h55.13.712,Info_measure_main_exp,2022.2.2,Win32,59.50255861,,,,,,,,,,,,,,,,,,masks/mask_004.jpg,,,,,,,,,,,,,,,,,,,,,,,,,,,,,,,,,,,,,,,,,,,0,4,4,3,1,,,,,,,,,,,,,,,,,,,,,,,,,,,,,,,,,,,,,,,,,,,,,,
824160,001,2022-11-21_24h55.13.712,Info_measure_main_exp,2022.2.2,Win32,59.50255861,,,,,,,,,,,,,,,,,,masks/mask_003.jpg,,,,,,,,,,,,,,,,,,,,,,,,,,,,,,,,,,,,,,,,,,,,,,,,0,0,0,2,1,,,,,,,,,,,,,,,,,,,,,,,,,,,,,,,,,,,,,,,,,
824160,001,2022-11-21_24h55.13.712,Info_measure_main_exp,2022.2.2,Win32,59.50255861,,,,,,,,,,,,,,,,,,masks/mask_005.jpg,,,,,,,,,,,,,,,,,,,,,,,,,,,,,,,,,,,,,,,,,,,,,,,,0,1,1,4,1,,,,,,,,,,,,,,,,,,,,,,,,,,,,,,,,,,,,,,,,,
824160,001,2022-11-21_24h55.13.712,Info_measure_main_exp,2022.2.2,Win32,59.50255861,,,,,,,,,,,,,,,,,,masks/mask_002.jpg,,,,,,,,,,,,,,,,,,,,,,,,,,,,,,,,,,,,,,,,,,,,,,,,0,2,2,1,1,,,,,,,,,,,,,,,,,,,,,,,,,,,,,,,,,,,,,,,,,
824160,001,2022-11-21_24h55.13.712,Info_measure_main_exp,2022.2.2,Win32,59.50255861,,,,,,,,,,,,,,,,,,masks/mask_004.jpg,,,,,,,,,,,,,,,,,,,,,,,,,,,,,,,,,,,,,,,,,,,,,,,,0,3,3,3,1,,,,,,,,,,,,,,,,,,,,,,,,,,,,,,,,,,,,,,,,,
824160,001,2022-11-21_24h55.13.712,Info_measure_main_exp,2022.2.2,Win32,59.50255861,,,,,,,,,,,,,,,,,,masks/mask_001.jpg,,,,,,,,,,,,,,,,,,,,,,,,,,,,,,,,,,,,,,,,,,,,,,,,0,4,4,0,1,,,,,,,,,,,,,,,,,,,,,,,,,,,,,,,,,,,,,,,,,
824160,001,2022-11-21_24h55.13.712,Info_measure_main_exp,2022.2.2,Win32,59.50255861,,,,,,,,,,,,,,,,,,,,,,,,,,,,,,7,0.5999,1,,,,,,,,,,,,0,131,5,5,1986,2142,absent_patch/patch0001986.jpg,absent_patch/patch0002142.jpg,,,,,,,,,,,,,,,,,,,,0.031307752,0.084536251,1,0,0,response1disk,4,0.009100419,0.001258512,1,0,0,center_square,0,3,3,76,1,,,,,,,,,,,,,,,,,,,,,,,
824160,001,2022-11-21_24h55.13.712,Info_measure_main_exp,2022.2.2,Win32,59.50255861,,,,,,,,,,,,,,,,,,masks/mask_005.jpg,,,,,,,,,,,,,,,,,,,,,,,,,,,,,,,,,,,,,,,,,,,0,0,0,4,1,,,,,,,,,,,,,,,,,,,,,,,,,,,,,,,,,,,,,,,,,,,,,,
824160,001,2022-11-21_24h55.13.712,Info_measure_main_exp,2022.2.2,Win32,59.50255861,,,,,,,,,,,,,,,,,,masks/mask_004.jpg,,,,,,,,,,,,,,,,,,,,,,,,,,,,,,,,,,,,,,,,,,,0,1,1,3,1,,,,,,,,,,,,,,,,,,,,,,,,,,,,,,,,,,,,,,,,,,,,,,
824160,001,2022-11-21_24h55.13.712,Info_measure_main_exp,2022.2.2,Win32,59.50255861,,,,,,,,,,,,,,,,,,masks/mask_003.jpg,,,,,,,,,,,,,,,,,,,,,,,,,,,,,,,,,,,,,,,,,,,0,2,2,2,1,,,,,,,,,,,,,,,,,,,,,,,,,,,,,,,,,,,,,,,,,,,,,,
824160,001,2022-11-21_24h55.13.712,Info_measure_main_exp,2022.2.2,Win32,59.50255861,,,,,,,,,,,,,,,,,,masks/mask_001.jpg,,,,,,,,,,,,,,,,,,,,,,,,,,,,,,,,,,,,,,,,,,,0,3,3,0,1,,,,,,,,,,,,,,,,,,,,,,,,,,,,,,,,,,,,,,,,,,,,,,
824160,001,2022-11-21_24h55.13.712,Info_measure_main_exp,2022.2.2,Win32,59.50255861,,,,,,,,,,,,,,,,,,masks/mask_002.jpg,,,,,,,,,,,,,,,,,,,,,,,,,,,,,,,,,,,,,,,,,,,0,4,4,1,1,,,,,,,,,,,,,,,,,,,,,,,,,,,,,,,,,,,,,,,,,,,,,,
824160,001,2022-11-21_24h55.13.712,Info_measure_main_exp,2022.2.2,Win32,59.50255861,,,,,,,,,,,,,,,,,,masks/mask_003.jpg,,,,,,,,,,,,,,,,,,,,,,,,,,,,,,,,,,,,,,,,,,,,,,,,0,0,0,2,1,,,,,,,,,,,,,,,,,,,,,,,,,,,,,,,,,,,,,,,,,
824160,001,2022-11-21_24h55.13.712,Info_measure_main_exp,2022.2.2,Win32,59.50255861,,,,,,,,,,,,,,,,,,masks/mask_002.jpg,,,,,,,,,,,,,,,,,,,,,,,,,,,,,,,,,,,,,,,,,,,,,,,,0,1,1,1,1,,,,,,,,,,,,,,,,,,,,,,,,,,,,,,,,,,,,,,,,,
824160,001,2022-11-21_24h55.13.712,Info_measure_main_exp,2022.2.2,Win32,59.50255861,,,,,,,,,,,,,,,,,,masks/mask_004.jpg,,,,,,,,,,,,,,,,,,,,,,,,,,,,,,,,,,,,,,,,,,,,,,,,0,2,2,3,1,,,,,,,,,,,,,,,,,,,,,,,,,,,,,,,,,,,,,,,,,
824160,001,2022-11-21_24h55.13.712,Info_measure_main_exp,2022.2.2,Win32,59.50255861,,,,,,,,,,,,,,,,,,masks/mask_005.jpg,,,,,,,,,,,,,,,,,,,,,,,,,,,,,,,,,,,,,,,,,,,,,,,,0,3,3,4,1,,,,,,,,,,,,,,,,,,,,,,,,,,,,,,,,,,,,,,,,,
824160,001,2022-11-21_24h55.13.712,Info_measure_main_exp,2022.2.2,Win32,59.50255861,,,,,,,,,,,,,,,,,,masks/mask_001.jpg,,,,,,,,,,,,,,,,,,,,,,,,,,,,,,,,,,,,,,,,,,,,,,,,0,4,4,0,1,,,,,,,,,,,,,,,,,,,,,,,,,,,,,,,,,,,,,,,,,
824160,001,2022-11-21_24h55.13.712,Info_measure_main_exp,2022.2.2,Win32,59.50255861,,,,,,,,,,,,,,,,,,,,,,,,,,,,,,7,1.0666,1,,,,,,,,,,,,0,131,5,5,1986,2238,absent_patch/patch0001986.jpg,absent_patch/patch0002238.jpg,,,,,,,,,,,,,,,,,,,,0.028531907,0.062328821,1,0,0,response1disk,5,0.006324478,0.000333134,1,0,0,center_square,0,4,4,31,1,,,,,,,,,,,,,,,,,,,,,,,
824160,001,2022-11-21_24h55.13.712,Info_measure_main_exp,2022.2.2,Win32,59.50255861,,,,,,,,,,,,,,,,,,masks/mask_003.jpg,,,,,,,,,,,,,,,,,,,,,,,,,,,,,,,,,,,,,,,,,,,0,0,0,2,1,,,,,,,,,,,,,,,,,,,,,,,,,,,,,,,,,,,,,,,,,,,,,,
824160,001,2022-11-21_24h55.13.712,Info_measure_main_exp,2022.2.2,Win32,59.50255861,,,,,,,,,,,,,,,,,,masks/mask_004.jpg,,,,,,,,,,,,,,,,,,,,,,,,,,,,,,,,,,,,,,,,,,,0,1,1,3,1,,,,,,,,,,,,,,,,,,,,,,,,,,,,,,,,,,,,,,,,,,,,,,
824160,001,2022-11-21_24h55.13.712,Info_measure_main_exp,2022.2.2,Win32,59.50255861,,,,,,,,,,,,,,,,,,masks/mask_001.jpg,,,,,,,,,,,,,,,,,,,,,,,,,,,,,,,,,,,,,,,,,,,0,2,2,0,1,,,,,,,,,,,,,,,,,,,,,,,,,,,,,,,,,,,,,,,,,,,,,,
824160,001,2022-11-21_24h55.13.712,Info_measure_main_exp,2022.2.2,Win32,59.50255861,,,,,,,,,,,,,,,,,,masks/mask_002.jpg,,,,,,,,,,,,,,,,,,,,,,,,,,,,,,,,,,,,,,,,,,,0,3,3,1,1,,,,,,,,,,,,,,,,,,,,,,,,,,,,,,,,,,,,,,,,,,,,,,
824160,001,2022-11-21_24h55.13.712,Info_measure_main_exp,2022.2.2,Win32,59.50255861,,,,,,,,,,,,,,,,,,masks/mask_005.jpg,,,,,,,,,,,,,,,,,,,,,,,,,,,,,,,,,,,,,,,,,,,0,4,4,4,1,,,,,,,,,,,,,,,,,,,,,,,,,,,,,,,,,,,,,,,,,,,,,,
824160,001,2022-11-21_24h55.13.712,Info_measure_main_exp,2022.2.2,Win32,59.50255861,,,,,,,,,,,,,,,,,,masks/mask_002.jpg,,,,,,,,,,,,,,,,,,,,,,,,,,,,,,,,,,,,,,,,,,,,,,,,0,0,0,1,1,,,,,,,,,,,,,,,,,,,,,,,,,,,,,,,,,,,,,,,,,
824160,001,2022-11-21_24h55.13.712,Info_measure_main_exp,2022.2.2,Win32,59.50255861,,,,,,,,,,,,,,,,,,masks/mask_001.jpg,,,,,,,,,,,,,,,,,,,,,,,,,,,,,,,,,,,,,,,,,,,,,,,,0,1,1,0,1,,,,,,,,,,,,,,,,,,,,,,,,,,,,,,,,,,,,,,,,,
824160,001,2022-11-21_24h55.13.712,Info_measure_main_exp,2022.2.2,Win32,59.50255861,,,,,,,,,,,,,,,,,,masks/mask_003.jpg,,,,,,,,,,,,,,,,,,,,,,,,,,,,,,,,,,,,,,,,,,,,,,,,0,2,2,2,1,,,,,,,,,,,,,,,,,,,,,,,,,,,,,,,,,,,,,,,,,
824160,001,2022-11-21_24h55.13.712,Info_measure_main_exp,2022.2.2,Win32,59.50255861,,,,,,,,,,,,,,,,,,masks/mask_005.jpg,,,,,,,,,,,,,,,,,,,,,,,,,,,,,,,,,,,,,,,,,,,,,,,,0,3,3,4,1,,,,,,,,,,,,,,,,,,,,,,,,,,,,,,,,,,,,,,,,,
824160,001,2022-11-21_24h55.13.712,Info_measure_main_exp,2022.2.2,Win32,59.50255861,,,,,,,,,,,,,,,,,,masks/mask_004.jpg,,,,,,,,,,,,,,,,,,,,,,,,,,,,,,,,,,,,,,,,,,,,,,,,0,4,4,3,1,,,,,,,,,,,,,,,,,,,,,,,,,,,,,,,,,,,,,,,,,
824160,001,2022-11-21_24h55.13.712,Info_measure_main_exp,2022.2.2,Win32,59.50255861,,,,,,,,,,,,,,,,,,,,,,,,,,,,,,0,0.9811,1,,,,,,,,,,,,0,131,5,5,1986,1986,absent_patch/patch0001986.jpg,absent_patch/patch0001986.jpg,,,,,,,,,,,,,,,,,,,,-0.031613217,0.086386862,1,0,0,response7disk,6,-0.002928625,-0.005218651,1,0,0,center_square,0,5,5,19,1,,,,,,,,,,,,,,,,,,,,,,,
824160,001,2022-11-21_24h55.13.712,Info_measure_main_exp,2022.2.2,Win32,59.50255861,,,,,,,,,,,,,,,,,,masks/mask_005.jpg,,,,,,,,,,,,,,,,,,,,,,,,,,,,,,,,,,,,,,,,,,,0,0,0,4,1,,,,,,,,,,,,,,,,,,,,,,,,,,,,,,,,,,,,,,,,,,,,,,
824160,001,2022-11-21_24h55.13.712,Info_measure_main_exp,2022.2.2,Win32,59.50255861,,,,,,,,,,,,,,,,,,masks/mask_002.jpg,,,,,,,,,,,,,,,,,,,,,,,,,,,,,,,,,,,,,,,,,,,0,1,1,1,1,,,,,,,,,,,,,,,,,,,,,,,,,,,,,,,,,,,,,,,,,,,,,,
824160,001,2022-11-21_24h55.13.712,Info_measure_main_exp,2022.2.2,Win32,59.50255861,,,,,,,,,,,,,,,,,,masks/mask_003.jpg,,,,,,,,,,,,,,,,,,,,,,,,,,,,,,,,,,,,,,,,,,,0,2,2,2,1,,,,,,,,,,,,,,,,,,,,,,,,,,,,,,,,,,,,,,,,,,,,,,
824160,001,2022-11-21_24h55.13.712,Info_measure_main_exp,2022.2.2,Win32,59.50255861,,,,,,,,,,,,,,,,,,masks/mask_004.jpg,,,,,,,,,,,,,,,,,,,,,,,,,,,,,,,,,,,,,,,,,,,0,3,3,3,1,,,,,,,,,,,,,,,,,,,,,,,,,,,,,,,,,,,,,,,,,,,,,,
824160,001,2022-11-21_24h55.13.712,Info_measure_main_exp,2022.2.2,Win32,59.50255861,,,,,,,,,,,,,,,,,,masks/mask_001.jpg,,,,,,,,,,,,,,,,,,,,,,,,,,,,,,,,,,,,,,,,,,,0,4,4,0,1,,,,,,,,,,,,,,,,,,,,,,,,,,,,,,,,,,,,,,,,,,,,,,
824160,001,2022-11-21_24h55.13.712,Info_measure_main_exp,2022.2.2,Win32,59.50255861,,,,,,,,,,,,,,,,,,masks/mask_004.jpg,,,,,,,,,,,,,,,,,,,,,,,,,,,,,,,,,,,,,,,,,,,,,,,,0,0,0,3,1,,,,,,,,,,,,,,,,,,,,,,,,,,,,,,,,,,,,,,,,,
824160,001,2022-11-21_24h55.13.712,Info_measure_main_exp,2022.2.2,Win32,59.50255861,,,,,,,,,,,,,,,,,,masks/mask_003.jpg,,,,,,,,,,,,,,,,,,,,,,,,,,,,,,,,,,,,,,,,,,,,,,,,0,1,1,2,1,,,,,,,,,,,,,,,,,,,,,,,,,,,,,,,,,,,,,,,,,
824160,001,2022-11-21_24h55.13.712,Info_measure_main_exp,2022.2.2,Win32,59.50255861,,,,,,,,,,,,,,,,,,masks/mask_002.jpg,,,,,,,,,,,,,,,,,,,,,,,,,,,,,,,,,,,,,,,,,,,,,,,,0,2,2,1,1,,,,,,,,,,,,,,,,,,,,,,,,,,,,,,,,,,,,,,,,,
824160,001,2022-11-21_24h55.13.712,Info_measure_main_exp,2022.2.2,Win32,59.50255861,,,,,,,,,,,,,,,,,,masks/mask_001.jpg,,,,,,,,,,,,,,,,,,,,,,,,,,,,,,,,,,,,,,,,,,,,,,,,0,3,3,0,1,,,,,,,,,,,,,,,,,,,,,,,,,,,,,,,,,,,,,,,,,
824160,001,2022-11-21_24h55.13.712,Info_measure_main_exp,2022.2.2,Win32,59.50255861,,,,,,,,,,,,,,,,,,masks/mask_005.jpg,,,,,,,,,,,,,,,,,,,,,,,,,,,,,,,,,,,,,,,,,,,,,,,,0,4,4,4,1,,,,,,,,,,,,,,,,,,,,,,,,,,,,,,,,,,,,,,,,,
824160,001,2022-11-21_24h55.13.712,Info_measure_main_exp,2022.2.2,Win32,59.50255861,,,,,,,,,,,,,,,,,,,,,,,,,,,,,,7,0.6169,1,,,,,,,,,,,,0,131,5,5,1950,2178,absent_patch/patch0001950.jpg,absent_patch/patch0002178.jpg,,,,,,,,,,,,,,,,,,,,0.017428145,0.072507255,1,0,0,response1disk,7,0.002623256,-0.005218651,1,0,0,center_square,0,6,6,61,1,,,,,,,,,,,,,,,,,,,,,,,
824160,001,2022-11-21_24h55.13.712,Info_measure_main_exp,2022.2.2,Win32,59.50255861,,,,,,,,,,,,,,,,,,masks/mask_003.jpg,,,,,,,,,,,,,,,,,,,,,,,,,,,,,,,,,,,,,,,,,,,0,0,0,2,1,,,,,,,,,,,,,,,,,,,,,,,,,,,,,,,,,,,,,,,,,,,,,,
824160,001,2022-11-21_24h55.13.712,Info_measure_main_exp,2022.2.2,Win32,59.50255861,,,,,,,,,,,,,,,,,,masks/mask_005.jpg,,,,,,,,,,,,,,,,,,,,,,,,,,,,,,,,,,,,,,,,,,,0,1,1,4,1,,,,,,,,,,,,,,,,,,,,,,,,,,,,,,,,,,,,,,,,,,,,,,
824160,001,2022-11-21_24h55.13.712,Info_measure_main_exp,2022.2.2,Win32,59.50255861,,,,,,,,,,,,,,,,,,masks/mask_004.jpg,,,,,,,,,,,,,,,,,,,,,,,,,,,,,,,,,,,,,,,,,,,0,2,2,3,1,,,,,,,,,,,,,,,,,,,,,,,,,,,,,,,,,,,,,,,,,,,,,,
824160,001,2022-11-21_24h55.13.712,Info_measure_main_exp,2022.2.2,Win32,59.50255861,,,,,,,,,,,,,,,,,,masks/mask_001.jpg,,,,,,,,,,,,,,,,,,,,,,,,,,,,,,,,,,,,,,,,,,,0,3,3,0,1,,,,,,,,,,,,,,,,,,,,,,,,,,,,,,,,,,,,,,,,,,,,,,
824160,001,2022-11-21_24h55.13.712,Info_measure_main_exp,2022.2.2,Win32,59.50255861,,,,,,,,,,,,,,,,,,masks/mask_002.jpg,,,,,,,,,,,,,,,,,,,,,,,,,,,,,,,,,,,,,,,,,,,0,4,4,1,1,,,,,,,,,,,,,,,,,,,,,,,,,,,,,,,,,,,,,,,,,,,,,,
824160,001,2022-11-21_24h55.13.712,Info_measure_main_exp,2022.2.2,Win32,59.50255861,,,,,,,,,,,,,,,,,,masks/mask_001.jpg,,,,,,,,,,,,,,,,,,,,,,,,,,,,,,,,,,,,,,,,,,,,,,,,0,0,0,0,1,,,,,,,,,,,,,,,,,,,,,,,,,,,,,,,,,,,,,,,,,
824160,001,2022-11-21_24h55.13.712,Info_measure_main_exp,2022.2.2,Win32,59.50255861,,,,,,,,,,,,,,,,,,masks/mask_005.jpg,,,,,,,,,,,,,,,,,,,,,,,,,,,,,,,,,,,,,,,,,,,,,,,,0,1,1,4,1,,,,,,,,,,,,,,,,,,,,,,,,,,,,,,,,,,,,,,,,,
824160,001,2022-11-21_24h55.13.712,Info_measure_main_exp,2022.2.2,Win32,59.50255861,,,,,,,,,,,,,,,,,,masks/mask_004.jpg,,,,,,,,,,,,,,,,,,,,,,,,,,,,,,,,,,,,,,,,,,,,,,,,0,2,2,3,1,,,,,,,,,,,,,,,,,,,,,,,,,,,,,,,,,,,,,,,,,
824160,001,2022-11-21_24h55.13.712,Info_measure_main_exp,2022.2.2,Win32,59.50255861,,,,,,,,,,,,,,,,,,masks/mask_002.jpg,,,,,,,,,,,,,,,,,,,,,,,,,,,,,,,,,,,,,,,,,,,,,,,,0,3,3,1,1,,,,,,,,,,,,,,,,,,,,,,,,,,,,,,,,,,,,,,,,,
824160,001,2022-11-21_24h55.13.712,Info_measure_main_exp,2022.2.2,Win32,59.50255861,,,,,,,,,,,,,,,,,,masks/mask_003.jpg,,,,,,,,,,,,,,,,,,,,,,,,,,,,,,,,,,,,,,,,,,,,,,,,0,4,4,2,1,,,,,,,,,,,,,,,,,,,,,,,,,,,,,,,,,,,,,,,,,
824160,001,2022-11-21_24h55.13.712,Info_measure_main_exp,2022.2.2,Win32,59.50255861,,,,,,,,,,,,,,,,,,,,,,,,,,,,,,7,0.5662,1,,,,,,,,,,,,1,131,5,5,1,2214,present_patch/cong_131_5_a.jpg,absent_patch/patch0002214.jpg,,,,,,,,,,,,,,,,,,,,0.029457189,0.110444902,1,0,0,response1disk,8,0.0100257,0.002183745,1,0,0,center_square,0,7,7,4,1,,,,,,,,,,,,,,,,,,,,,,,
824160,001,2022-11-21_24h55.13.712,Info_measure_main_exp,2022.2.2,Win32,59.50255861,,,,,,,,,,,,,,,,,,masks/mask_002.jpg,,,,,,,,,,,,,,,,,,,,,,,,,,,,,,,,,,,,,,,,,,,0,0,0,1,1,,,,,,,,,,,,,,,,,,,,,,,,,,,,,,,,,,,,,,,,,,,,,,
824160,001,2022-11-21_24h55.13.712,Info_measure_main_exp,2022.2.2,Win32,59.50255861,,,,,,,,,,,,,,,,,,masks/mask_004.jpg,,,,,,,,,,,,,,,,,,,,,,,,,,,,,,,,,,,,,,,,,,,0,1,1,3,1,,,,,,,,,,,,,,,,,,,,,,,,,,,,,,,,,,,,,,,,,,,,,,
824160,001,2022-11-21_24h55.13.712,Info_measure_main_exp,2022.2.2,Win32,59.50255861,,,,,,,,,,,,,,,,,,masks/mask_001.jpg,,,,,,,,,,,,,,,,,,,,,,,,,,,,,,,,,,,,,,,,,,,0,2,2,0,1,,,,,,,,,,,,,,,,,,,,,,,,,,,,,,,,,,,,,,,,,,,,,,
824160,001,2022-11-21_24h55.13.712,Info_measure_main_exp,2022.2.2,Win32,59.50255861,,,,,,,,,,,,,,,,,,masks/mask_003.jpg,,,,,,,,,,,,,,,,,,,,,,,,,,,,,,,,,,,,,,,,,,,0,3,3,2,1,,,,,,,,,,,,,,,,,,,,,,,,,,,,,,,,,,,,,,,,,,,,,,
824160,001,2022-11-21_24h55.13.712,Info_measure_main_exp,2022.2.2,Win32,59.50255861,,,,,,,,,,,,,,,,,,masks/mask_005.jpg,,,,,,,,,,,,,,,,,,,,,,,,,,,,,,,,,,,,,,,,,,,0,4,4,4,1,,,,,,,,,,,,,,,,,,,,,,,,,,,,,,,,,,,,,,,,,,,,,,
824160,001,2022-11-21_24h55.13.712,Info_measure_main_exp,2022.2.2,Win32,59.50255861,,,,,,,,,,,,,,,,,,masks/mask_004.jpg,,,,,,,,,,,,,,,,,,,,,,,,,,,,,,,,,,,,,,,,,,,,,,,,0,0,0,3,1,,,,,,,,,,,,,,,,,,,,,,,,,,,,,,,,,,,,,,,,,
824160,001,2022-11-21_24h55.13.712,Info_measure_main_exp,2022.2.2,Win32,59.50255861,,,,,,,,,,,,,,,,,,masks/mask_005.jpg,,,,,,,,,,,,,,,,,,,,,,,,,,,,,,,,,,,,,,,,,,,,,,,,0,1,1,4,1,,,,,,,,,,,,,,,,,,,,,,,,,,,,,,,,,,,,,,,,,
824160,001,2022-11-21_24h55.13.712,Info_measure_main_exp,2022.2.2,Win32,59.50255861,,,,,,,,,,,,,,,,,,masks/mask_003.jpg,,,,,,,,,,,,,,,,,,,,,,,,,,,,,,,,,,,,,,,,,,,,,,,,0,2,2,2,1,,,,,,,,,,,,,,,,,,,,,,,,,,,,,,,,,,,,,,,,,
824160,001,2022-11-21_24h55.13.712,Info_measure_main_exp,2022.2.2,Win32,59.50255861,,,,,,,,,,,,,,,,,,masks/mask_002.jpg,,,,,,,,,,,,,,,,,,,,,,,,,,,,,,,,,,,,,,,,,,,,,,,,0,3,3,1,1,,,,,,,,,,,,,,,,,,,,,,,,,,,,,,,,,,,,,,,,,
824160,001,2022-11-21_24h55.13.712,Info_measure_main_exp,2022.2.2,Win32,59.50255861,,,,,,,,,,,,,,,,,,masks/mask_001.jpg,,,,,,,,,,,,,,,,,,,,,,,,,,,,,,,,,,,,,,,,,,,,,,,,0,4,4,0,1,,,,,,,,,,,,,,,,,,,,,,,,,,,,,,,,,,,,,,,,,
824160,001,2022-11-21_24h55.13.712,Info_measure_main_exp,2022.2.2,Win32,59.50255861,,,,,,,,,,,,,,,,,,,,,,,,,,,,,,7,1.0498,1,,,,,,,,,,,,0,131,5,5,2274,1974,absent_patch/patch0002274.jpg,absent_patch/patch0001974.jpg,,,,,,,,,,,,,,,,,,,,0.033158411,0.064179433,1,0,0,response1disk,9,0.001697878,-0.003368088,1,0,0,center_square,0,8,8,90,1,,,,,,,,,,,,,,,,,,,,,,,
824160,001,2022-11-21_24h55.13.712,Info_measure_main_exp,2022.2.2,Win32,59.50255861,,,,,,,,,,,,,,,,,,masks/mask_002.jpg,,,,,,,,,,,,,,,,,,,,,,,,,,,,,,,,,,,,,,,,,,,0,0,0,1,1,,,,,,,,,,,,,,,,,,,,,,,,,,,,,,,,,,,,,,,,,,,,,,
824160,001,2022-11-21_24h55.13.712,Info_measure_main_exp,2022.2.2,Win32,59.50255861,,,,,,,,,,,,,,,,,,masks/mask_003.jpg,,,,,,,,,,,,,,,,,,,,,,,,,,,,,,,,,,,,,,,,,,,0,1,1,2,1,,,,,,,,,,,,,,,,,,,,,,,,,,,,,,,,,,,,,,,,,,,,,,
824160,001,2022-11-21_24h55.13.712,Info_measure_main_exp,2022.2.2,Win32,59.50255861,,,,,,,,,,,,,,,,,,masks/mask_005.jpg,,,,,,,,,,,,,,,,,,,,,,,,,,,,,,,,,,,,,,,,,,,0,2,2,4,1,,,,,,,,,,,,,,,,,,,,,,,,,,,,,,,,,,,,,,,,,,,,,,
824160,001,2022-11-21_24h55.13.712,Info_measure_main_exp,2022.2.2,Win32,59.50255861,,,,,,,,,,,,,,,,,,masks/mask_001.jpg,,,,,,,,,,,,,,,,,,,,,,,,,,,,,,,,,,,,,,,,,,,0,3,3,0,1,,,,,,,,,,,,,,,,,,,,,,,,,,,,,,,,,,,,,,,,,,,,,,
824160,001,2022-11-21_24h55.13.712,Info_measure_main_exp,2022.2.2,Win32,59.50255861,,,,,,,,,,,,,,,,,,masks/mask_004.jpg,,,,,,,,,,,,,,,,,,,,,,,,,,,,,,,,,,,,,,,,,,,0,4,4,3,1,,,,,,,,,,,,,,,,,,,,,,,,,,,,,,,,,,,,,,,,,,,,,,
824160,001,2022-11-21_24h55.13.712,Info_measure_main_exp,2022.2.2,Win32,59.50255861,,,,,,,,,,,,,,,,,,masks/mask_005.jpg,,,,,,,,,,,,,,,,,,,,,,,,,,,,,,,,,,,,,,,,,,,,,,,,0,0,0,4,1,,,,,,,,,,,,,,,,,,,,,,,,,,,,,,,,,,,,,,,,,
824160,001,2022-11-21_24h55.13.712,Info_measure_main_exp,2022.2.2,Win32,59.50255861,,,,,,,,,,,,,,,,,,masks/mask_001.jpg,,,,,,,,,,,,,,,,,,,,,,,,,,,,,,,,,,,,,,,,,,,,,,,,0,1,1,0,1,,,,,,,,,,,,,,,,,,,,,,,,,,,,,,,,,,,,,,,,,
824160,001,2022-11-21_24h55.13.712,Info_measure_main_exp,2022.2.2,Win32,59.50255861,,,,,,,,,,,,,,,,,,masks/mask_004.jpg,,,,,,,,,,,,,,,,,,,,,,,,,,,,,,,,,,,,,,,,,,,,,,,,0,2,2,3,1,,,,,,,,,,,,,,,,,,,,,,,,,,,,,,,,,,,,,,,,,
824160,001,2022-11-21_24h55.13.712,Info_measure_main_exp,2022.2.2,Win32,59.50255861,,,,,,,,,,,,,,,,,,masks/mask_002.jpg,,,,,,,,,,,,,,,,,,,,,,,,,,,,,,,,,,,,,,,,,,,,,,,,0,3,3,1,1,,,,,,,,,,,,,,,,,,,,,,,,,,,,,,,,,,,,,,,,,
824160,001,2022-11-21_24h55.13.712,Info_measure_main_exp,2022.2.2,Win32,59.50255861,,,,,,,,,,,,,,,,,,masks/mask_003.jpg,,,,,,,,,,,,,,,,,,,,,,,,,,,,,,,,,,,,,,,,,,,,,,,,0,4,4,2,1,,,,,,,,,,,,,,,,,,,,,,,,,,,,,,,,,,,,,,,,,
824160,001,2022-11-21_24h55.13.712,Info_measure_main_exp,2022.2.2,Win32,59.50255861,,,,,,,,,,,,,,,,,,,,,,,,,,,,,,7,1.2332,1,,,,,,,,,,,,0,131,5,5,1986,2154,absent_patch/patch0001986.jpg,absent_patch/patch0002154.jpg,,,,,,,,,,,,,,,,,,,,0.023905307,0.06047821,1,0,0,response1disk,10,0.004473819,0.001258512,1,0,0,center_square,0,9,9,36,1,,,,,,,,,,,,,,,,,,,,,,,
824160,001,2022-11-21_24h55.13.712,Info_measure_main_exp,2022.2.2,Win32,59.50255861,,,,,,,,,,,,,,,,,,masks/mask_005.jpg,,,,,,,,,,,,,,,,,,,,,,,,,,,,,,,,,,,,,,,,,,,0,0,0,4,1,,,,,,,,,,,,,,,,,,,,,,,,,,,,,,,,,,,,,,,,,,,,,,
824160,001,2022-11-21_24h55.13.712,Info_measure_main_exp,2022.2.2,Win32,59.50255861,,,,,,,,,,,,,,,,,,masks/mask_003.jpg,,,,,,,,,,,,,,,,,,,,,,,,,,,,,,,,,,,,,,,,,,,0,1,1,2,1,,,,,,,,,,,,,,,,,,,,,,,,,,,,,,,,,,,,,,,,,,,,,,
824160,001,2022-11-21_24h55.13.712,Info_measure_main_exp,2022.2.2,Win32,59.50255861,,,,,,,,,,,,,,,,,,masks/mask_002.jpg,,,,,,,,,,,,,,,,,,,,,,,,,,,,,,,,,,,,,,,,,,,0,2,2,1,1,,,,,,,,,,,,,,,,,,,,,,,,,,,,,,,,,,,,,,,,,,,,,,
824160,001,2022-11-21_24h55.13.712,Info_measure_main_exp,2022.2.2,Win32,59.50255861,,,,,,,,,,,,,,,,,,masks/mask_004.jpg,,,,,,,,,,,,,,,,,,,,,,,,,,,,,,,,,,,,,,,,,,,0,3,3,3,1,,,,,,,,,,,,,,,,,,,,,,,,,,,,,,,,,,,,,,,,,,,,,,
824160,001,2022-11-21_24h55.13.712,Info_measure_main_exp,2022.2.2,Win32,59.50255861,,,,,,,,,,,,,,,,,,masks/mask_001.jpg,,,,,,,,,,,,,,,,,,,,,,,,,,,,,,,,,,,,,,,,,,,0,4,4,0,1,,,,,,,,,,,,,,,,,,,,,,,,,,,,,,,,,,,,,,,,,,,,,,
824160,001,2022-11-21_24h55.13.712,Info_measure_main_exp,2022.2.2,Win32,59.50255861,,,,,,,,,,,,,,,,,,masks/mask_002.jpg,,,,,,,,,,,,,,,,,,,,,,,,,,,,,,,,,,,,,,,,,,,,,,,,0,0,0,1,1,,,,,,,,,,,,,,,,,,,,,,,,,,,,,,,,,,,,,,,,,
824160,001,2022-11-21_24h55.13.712,Info_measure_main_exp,2022.2.2,Win32,59.50255861,,,,,,,,,,,,,,,,,,masks/mask_003.jpg,,,,,,,,,,,,,,,,,,,,,,,,,,,,,,,,,,,,,,,,,,,,,,,,0,1,1,2,1,,,,,,,,,,,,,,,,,,,,,,,,,,,,,,,,,,,,,,,,,
824160,001,2022-11-21_24h55.13.712,Info_measure_main_exp,2022.2.2,Win32,59.50255861,,,,,,,,,,,,,,,,,,masks/mask_004.jpg,,,,,,,,,,,,,,,,,,,,,,,,,,,,,,,,,,,,,,,,,,,,,,,,0,2,2,3,1,,,,,,,,,,,,,,,,,,,,,,,,,,,,,,,,,,,,,,,,,
824160,001,2022-11-21_24h55.13.712,Info_measure_main_exp,2022.2.2,Win32,59.50255861,,,,,,,,,,,,,,,,,,masks/mask_005.jpg,,,,,,,,,,,,,,,,,,,,,,,,,,,,,,,,,,,,,,,,,,,,,,,,0,3,3,4,1,,,,,,,,,,,,,,,,,,,,,,,,,,,,,,,,,,,,,,,,,
824160,001,2022-11-21_24h55.13.712,Info_measure_main_exp,2022.2.2,Win32,59.50255861,,,,,,,,,,,,,,,,,,masks/mask_001.jpg,,,,,,,,,,,,,,,,,,,,,,,,,,,,,,,,,,,,,,,,,,,,,,,,0,4,4,0,1,,,,,,,,,,,,,,,,,,,,,,,,,,,,,,,,,,,,,,,,,
824160,001,2022-11-21_24h55.13.712,Info_measure_main_exp,2022.2.2,Win32,59.50255861,,,,,,,,,,,,,,,,,,,,,,,,,,,,,,0,0.6001,1,,,,,,,,,,,,1,131,5,5,1,1,present_patch/cong_131_5_a.jpg,present_patch/cong_131_5_a.jpg,,,,,,,,,,,,,,,,,,,,-0.035314439,0.088237473,1,0,0,response7disk,11,-0.002003344,0.009586238,1,0,0,center_square,0,10,10,30,1,,,,,,,,,,,,,,,,,,,,,,,
824160,001,2022-11-21_24h55.13.712,Info_measure_main_exp,2022.2.2,Win32,59.50255861,,,,,,,,,,,,,,,,,,masks/mask_004.jpg,,,,,,,,,,,,,,,,,,,,,,,,,,,,,,,,,,,,,,,,,,,0,0,0,3,1,,,,,,,,,,,,,,,,,,,,,,,,,,,,,,,,,,,,,,,,,,,,,,
824160,001,2022-11-21_24h55.13.712,Info_measure_main_exp,2022.2.2,Win32,59.50255861,,,,,,,,,,,,,,,,,,masks/mask_003.jpg,,,,,,,,,,,,,,,,,,,,,,,,,,,,,,,,,,,,,,,,,,,0,1,1,2,1,,,,,,,,,,,,,,,,,,,,,,,,,,,,,,,,,,,,,,,,,,,,,,
824160,001,2022-11-21_24h55.13.712,Info_measure_main_exp,2022.2.2,Win32,59.50255861,,,,,,,,,,,,,,,,,,masks/mask_001.jpg,,,,,,,,,,,,,,,,,,,,,,,,,,,,,,,,,,,,,,,,,,,0,2,2,0,1,,,,,,,,,,,,,,,,,,,,,,,,,,,,,,,,,,,,,,,,,,,,,,
824160,001,2022-11-21_24h55.13.712,Info_measure_main_exp,2022.2.2,Win32,59.50255861,,,,,,,,,,,,,,,,,,masks/mask_005.jpg,,,,,,,,,,,,,,,,,,,,,,,,,,,,,,,,,,,,,,,,,,,0,3,3,4,1,,,,,,,,,,,,,,,,,,,,,,,,,,,,,,,,,,,,,,,,,,,,,,
824160,001,2022-11-21_24h55.13.712,Info_measure_main_exp,2022.2.2,Win32,59.50255861,,,,,,,,,,,,,,,,,,masks/mask_002.jpg,,,,,,,,,,,,,,,,,,,,,,,,,,,,,,,,,,,,,,,,,,,0,4,4,1,1,,,,,,,,,,,,,,,,,,,,,,,,,,,,,,,,,,,,,,,,,,,,,,
824160,001,2022-11-21_24h55.13.712,Info_measure_main_exp,2022.2.2,Win32,59.50255861,,,,,,,,,,,,,,,,,,masks/mask_003.jpg,,,,,,,,,,,,,,,,,,,,,,,,,,,,,,,,,,,,,,,,,,,,,,,,0,0,0,2,1,,,,,,,,,,,,,,,,,,,,,,,,,,,,,,,,,,,,,,,,,
824160,001,2022-11-21_24h55.13.712,Info_measure_main_exp,2022.2.2,Win32,59.50255861,,,,,,,,,,,,,,,,,,masks/mask_005.jpg,,,,,,,,,,,,,,,,,,,,,,,,,,,,,,,,,,,,,,,,,,,,,,,,0,1,1,4,1,,,,,,,,,,,,,,,,,,,,,,,,,,,,,,,,,,,,,,,,,
824160,001,2022-11-21_24h55.13.712,Info_measure_main_exp,2022.2.2,Win32,59.50255861,,,,,,,,,,,,,,,,,,masks/mask_001.jpg,,,,,,,,,,,,,,,,,,,,,,,,,,,,,,,,,,,,,,,,,,,,,,,,0,2,2,0,1,,,,,,,,,,,,,,,,,,,,,,,,,,,,,,,,,,,,,,,,,
824160,001,2022-11-21_24h55.13.712,Info_measure_main_exp,2022.2.2,Win32,59.50255861,,,,,,,,,,,,,,,,,,masks/mask_002.jpg,,,,,,,,,,,,,,,,,,,,,,,,,,,,,,,,,,,,,,,,,,,,,,,,0,3,3,1,1,,,,,,,,,,,,,,,,,,,,,,,,,,,,,,,,,,,,,,,,,
824160,001,2022-11-21_24h55.13.712,Info_measure_main_exp,2022.2.2,Win32,59.50255861,,,,,,,,,,,,,,,,,,masks/mask_004.jpg,,,,,,,,,,,,,,,,,,,,,,,,,,,,,,,,,,,,,,,,,,,,,,,,0,4,4,3,1,,,,,,,,,,,,,,,,,,,,,,,,,,,,,,,,,,,,,,,,,
824160,001,2022-11-21_24h55.13.712,Info_measure_main_exp,2022.2.2,Win32,59.50255861,,,,,,,,,,,,,,,,,,,,,,,,,,,,,,7,0.7922,1,,,,,,,,,,,,0,131,5,5,2250,2166,absent_patch/patch0002250.jpg,absent_patch/patch0002166.jpg,,,,,,,,,,,,,,,,,,,,0.022054745,0.066030092,1,0,0,response1disk,12,0.000772597,-0.00799464,1,0,0,center_square,0,11,11,60,1,,,,,,,,,,,,,,,,,,,,,,,
824160,001,2022-11-21_24h55.13.712,Info_measure_main_exp,2022.2.2,Win32,59.50255861,,,,,,,,,,,,,,,,,,masks/mask_003.jpg,,,,,,,,,,,,,,,,,,,,,,,,,,,,,,,,,,,,,,,,,,,0,0,0,2,1,,,,,,,,,,,,,,,,,,,,,,,,,,,,,,,,,,,,,,,,,,,,,,
824160,001,2022-11-21_24h55.13.712,Info_measure_main_exp,2022.2.2,Win32,59.50255861,,,,,,,,,,,,,,,,,,masks/mask_002.jpg,,,,,,,,,,,,,,,,,,,,,,,,,,,,,,,,,,,,,,,,,,,0,1,1,1,1,,,,,,,,,,,,,,,,,,,,,,,,,,,,,,,,,,,,,,,,,,,,,,
824160,001,2022-11-21_24h55.13.712,Info_measure_main_exp,2022.2.2,Win32,59.50255861,,,,,,,,,,,,,,,,,,masks/mask_004.jpg,,,,,,,,,,,,,,,,,,,,,,,,,,,,,,,,,,,,,,,,,,,0,2,2,3,1,,,,,,,,,,,,,,,,,,,,,,,,,,,,,,,,,,,,,,,,,,,,,,
824160,001,2022-11-21_24h55.13.712,Info_measure_main_exp,2022.2.2,Win32,59.50255861,,,,,,,,,,,,,,,,,,masks/mask_005.jpg,,,,,,,,,,,,,,,,,,,,,,,,,,,,,,,,,,,,,,,,,,,0,3,3,4,1,,,,,,,,,,,,,,,,,,,,,,,,,,,,,,,,,,,,,,,,,,,,,,
824160,001,2022-11-21_24h55.13.712,Info_measure_main_exp,2022.2.2,Win32,59.50255861,,,,,,,,,,,,,,,,,,masks/mask_001.jpg,,,,,,,,,,,,,,,,,,,,,,,,,,,,,,,,,,,,,,,,,,,0,4,4,0,1,,,,,,,,,,,,,,,,,,,,,,,,,,,,,,,,,,,,,,,,,,,,,,
824160,001,2022-11-21_24h55.13.712,Info_measure_main_exp,2022.2.2,Win32,59.50255861,,,,,,,,,,,,,,,,,,masks/mask_004.jpg,,,,,,,,,,,,,,,,,,,,,,,,,,,,,,,,,,,,,,,,,,,,,,,,0,0,0,3,1,,,,,,,,,,,,,,,,,,,,,,,,,,,,,,,,,,,,,,,,,
824160,001,2022-11-21_24h55.13.712,Info_measure_main_exp,2022.2.2,Win32,59.50255861,,,,,,,,,,,,,,,,,,masks/mask_001.jpg,,,,,,,,,,,,,,,,,,,,,,,,,,,,,,,,,,,,,,,,,,,,,,,,0,1,1,0,1,,,,,,,,,,,,,,,,,,,,,,,,,,,,,,,,,,,,,,,,,
824160,001,2022-11-21_24h55.13.712,Info_measure_main_exp,2022.2.2,Win32,59.50255861,,,,,,,,,,,,,,,,,,masks/mask_005.jpg,,,,,,,,,,,,,,,,,,,,,,,,,,,,,,,,,,,,,,,,,,,,,,,,0,2,2,4,1,,,,,,,,,,,,,,,,,,,,,,,,,,,,,,,,,,,,,,,,,
824160,001,2022-11-21_24h55.13.712,Info_measure_main_exp,2022.2.2,Win32,59.50255861,,,,,,,,,,,,,,,,,,masks/mask_002.jpg,,,,,,,,,,,,,,,,,,,,,,,,,,,,,,,,,,,,,,,,,,,,,,,,0,3,3,1,1,,,,,,,,,,,,,,,,,,,,,,,,,,,,,,,,,,,,,,,,,
824160,001,2022-11-21_24h55.13.712,Info_measure_main_exp,2022.2.2,Win32,59.50255861,,,,,,,,,,,,,,,,,,masks/mask_003.jpg,,,,,,,,,,,,,,,,,,,,,,,,,,,,,,,,,,,,,,,,,,,,,,,,0,4,4,2,1,,,,,,,,,,,,,,,,,,,,,,,,,,,,,,,,,,,,,,,,,
824160,001,2022-11-21_24h55.13.712,Info_measure_main_exp,2022.2.2,Win32,59.50255861,,,,,,,,,,,,,,,,,,,,,,,,,,,,,,7,0.6186,1,,,,,,,,,,,,0,131,5,5,2166,2298,absent_patch/patch0002166.jpg,absent_patch/patch0002298.jpg,,,,,,,,,,,,,,,,,,,,0.025755967,0.074357866,1,0,0,response1disk,13,0.006324478,-0.001517477,1,0,0,center_square,0,12,12,52,1,,,,,,,,,,,,,,,,,,,,,,,
824160,001,2022-11-21_24h55.13.712,Info_measure_main_exp,2022.2.2,Win32,59.50255861,,,,,,,,,,,,,,,,,,masks/mask_004.jpg,,,,,,,,,,,,,,,,,,,,,,,,,,,,,,,,,,,,,,,,,,,0,0,0,3,1,,,,,,,,,,,,,,,,,,,,,,,,,,,,,,,,,,,,,,,,,,,,,,
824160,001,2022-11-21_24h55.13.712,Info_measure_main_exp,2022.2.2,Win32,59.50255861,,,,,,,,,,,,,,,,,,masks/mask_005.jpg,,,,,,,,,,,,,,,,,,,,,,,,,,,,,,,,,,,,,,,,,,,0,1,1,4,1,,,,,,,,,,,,,,,,,,,,,,,,,,,,,,,,,,,,,,,,,,,,,,
824160,001,2022-11-21_24h55.13.712,Info_measure_main_exp,2022.2.2,Win32,59.50255861,,,,,,,,,,,,,,,,,,masks/mask_002.jpg,,,,,,,,,,,,,,,,,,,,,,,,,,,,,,,,,,,,,,,,,,,0,2,2,1,1,,,,,,,,,,,,,,,,,,,,,,,,,,,,,,,,,,,,,,,,,,,,,,
824160,001,2022-11-21_24h55.13.712,Info_measure_main_exp,2022.2.2,Win32,59.50255861,,,,,,,,,,,,,,,,,,masks/mask_001.jpg,,,,,,,,,,,,,,,,,,,,,,,,,,,,,,,,,,,,,,,,,,,0,3,3,0,1,,,,,,,,,,,,,,,,,,,,,,,,,,,,,,,,,,,,,,,,,,,,,,
824160,001,2022-11-21_24h55.13.712,Info_measure_main_exp,2022.2.2,Win32,59.50255861,,,,,,,,,,,,,,,,,,masks/mask_003.jpg,,,,,,,,,,,,,,,,,,,,,,,,,,,,,,,,,,,,,,,,,,,0,4,4,2,1,,,,,,,,,,,,,,,,,,,,,,,,,,,,,,,,,,,,,,,,,,,,,,
824160,001,2022-11-21_24h55.13.712,Info_measure_main_exp,2022.2.2,Win32,59.50255861,,,,,,,,,,,,,,,,,,masks/mask_001.jpg,,,,,,,,,,,,,,,,,,,,,,,,,,,,,,,,,,,,,,,,,,,,,,,,0,0,0,0,1,,,,,,,,,,,,,,,,,,,,,,,,,,,,,,,,,,,,,,,,,
824160,001,2022-11-21_24h55.13.712,Info_measure_main_exp,2022.2.2,Win32,59.50255861,,,,,,,,,,,,,,,,,,masks/mask_002.jpg,,,,,,,,,,,,,,,,,,,,,,,,,,,,,,,,,,,,,,,,,,,,,,,,0,1,1,1,1,,,,,,,,,,,,,,,,,,,,,,,,,,,,,,,,,,,,,,,,,
824160,001,2022-11-21_24h55.13.712,Info_measure_main_exp,2022.2.2,Win32,59.50255861,,,,,,,,,,,,,,,,,,masks/mask_004.jpg,,,,,,,,,,,,,,,,,,,,,,,,,,,,,,,,,,,,,,,,,,,,,,,,0,2,2,3,1,,,,,,,,,,,,,,,,,,,,,,,,,,,,,,,,,,,,,,,,,
824160,001,2022-11-21_24h55.13.712,Info_measure_main_exp,2022.2.2,Win32,59.50255861,,,,,,,,,,,,,,,,,,masks/mask_005.jpg,,,,,,,,,,,,,,,,,,,,,,,,,,,,,,,,,,,,,,,,,,,,,,,,0,3,3,4,1,,,,,,,,,,,,,,,,,,,,,,,,,,,,,,,,,,,,,,,,,
824160,001,2022-11-21_24h55.13.712,Info_measure_main_exp,2022.2.2,Win32,59.50255861,,,,,,,,,,,,,,,,,,masks/mask_003.jpg,,,,,,,,,,,,,,,,,,,,,,,,,,,,,,,,,,,,,,,,,,,,,,,,0,4,4,2,1,,,,,,,,,,,,,,,,,,,,,,,,,,,,,,,,,,,,,,,,,
824160,001,2022-11-21_24h55.13.712,Info_measure_main_exp,2022.2.2,Win32,59.50255861,,,,,,,,,,,,,,,,,,,,,,,,,,,,,,7,0.6188,1,,,,,,,,,,,,0,131,5,5,2274,2154,absent_patch/patch0002274.jpg,absent_patch/patch0002154.jpg,,,,,,,,,,,,,,,,,,,,0.029457189,0.083610921,1,0,0,response1disk,14,0.009100419,0.011436849,1,0,0,center_square,0,13,13,23,1,,,,,,,,,,,,,,,,,,,,,,,
824160,001,2022-11-21_24h55.13.712,Info_measure_main_exp,2022.2.2,Win32,59.50255861,,,,,,,,,,,,,,,,,,masks/mask_001.jpg,,,,,,,,,,,,,,,,,,,,,,,,,,,,,,,,,,,,,,,,,,,0,0,0,0,1,,,,,,,,,,,,,,,,,,,,,,,,,,,,,,,,,,,,,,,,,,,,,,
824160,001,2022-11-21_24h55.13.712,Info_measure_main_exp,2022.2.2,Win32,59.50255861,,,,,,,,,,,,,,,,,,masks/mask_002.jpg,,,,,,,,,,,,,,,,,,,,,,,,,,,,,,,,,,,,,,,,,,,0,1,1,1,1,,,,,,,,,,,,,,,,,,,,,,,,,,,,,,,,,,,,,,,,,,,,,,
824160,001,2022-11-21_24h55.13.712,Info_measure_main_exp,2022.2.2,Win32,59.50255861,,,,,,,,,,,,,,,,,,masks/mask_004.jpg,,,,,,,,,,,,,,,,,,,,,,,,,,,,,,,,,,,,,,,,,,,0,2,2,3,1,,,,,,,,,,,,,,,,,,,,,,,,,,,,,,,,,,,,,,,,,,,,,,
824160,001,2022-11-21_24h55.13.712,Info_measure_main_exp,2022.2.2,Win32,59.50255861,,,,,,,,,,,,,,,,,,masks/mask_005.jpg,,,,,,,,,,,,,,,,,,,,,,,,,,,,,,,,,,,,,,,,,,,0,3,3,4,1,,,,,,,,,,,,,,,,,,,,,,,,,,,,,,,,,,,,,,,,,,,,,,
824160,001,2022-11-21_24h55.13.712,Info_measure_main_exp,2022.2.2,Win32,59.50255861,,,,,,,,,,,,,,,,,,masks/mask_003.jpg,,,,,,,,,,,,,,,,,,,,,,,,,,,,,,,,,,,,,,,,,,,0,4,4,2,1,,,,,,,,,,,,,,,,,,,,,,,,,,,,,,,,,,,,,,,,,,,,,,
824160,001,2022-11-21_24h55.13.712,Info_measure_main_exp,2022.2.2,Win32,59.50255861,,,,,,,,,,,,,,,,,,masks/mask_001.jpg,,,,,,,,,,,,,,,,,,,,,,,,,,,,,,,,,,,,,,,,,,,,,,,,0,0,0,0,1,,,,,,,,,,,,,,,,,,,,,,,,,,,,,,,,,,,,,,,,,
824160,001,2022-11-21_24h55.13.712,Info_measure_main_exp,2022.2.2,Win32,59.50255861,,,,,,,,,,,,,,,,,,masks/mask_005.jpg,,,,,,,,,,,,,,,,,,,,,,,,,,,,,,,,,,,,,,,,,,,,,,,,0,1,1,4,1,,,,,,,,,,,,,,,,,,,,,,,,,,,,,,,,,,,,,,,,,
824160,001,2022-11-21_24h55.13.712,Info_measure_main_exp,2022.2.2,Win32,59.50255861,,,,,,,,,,,,,,,,,,masks/mask_002.jpg,,,,,,,,,,,,,,,,,,,,,,,,,,,,,,,,,,,,,,,,,,,,,,,,0,2,2,1,1,,,,,,,,,,,,,,,,,,,,,,,,,,,,,,,,,,,,,,,,,
824160,001,2022-11-21_24h55.13.712,Info_measure_main_exp,2022.2.2,Win32,59.50255861,,,,,,,,,,,,,,,,,,masks/mask_004.jpg,,,,,,,,,,,,,,,,,,,,,,,,,,,,,,,,,,,,,,,,,,,,,,,,0,3,3,3,1,,,,,,,,,,,,,,,,,,,,,,,,,,,,,,,,,,,,,,,,,
824160,001,2022-11-21_24h55.13.712,Info_measure_main_exp,2022.2.2,Win32,59.50255861,,,,,,,,,,,,,,,,,,masks/mask_003.jpg,,,,,,,,,,,,,,,,,,,,,,,,,,,,,,,,,,,,,,,,,,,,,,,,0,4,4,2,1,,,,,,,,,,,,,,,,,,,,,,,,,,,,,,,,,,,,,,,,,
824160,001,2022-11-21_24h55.13.712,Info_measure_main_exp,2022.2.2,Win32,59.50255861,,,,,,,,,,,,,,,,,,,,,,,,,,,,,,7,0.4342,1,,,,,,,,,,,,0,131,5,5,2238,2166,absent_patch/patch0002238.jpg,absent_patch/patch0002166.jpg,,,,,,,,,,,,,,,,,,,,0.022054745,0.066955373,1,0,0,response1disk,15,0.0053991,0.004034356,1,0,0,center_square,0,14,14,118,1,,,,,,,,,,,,,,,,,,,,,,,
824160,001,2022-11-21_24h55.13.712,Info_measure_main_exp,2022.2.2,Win32,59.50255861,,,,,,,,,,,,,,,,,,masks/mask_001.jpg,,,,,,,,,,,,,,,,,,,,,,,,,,,,,,,,,,,,,,,,,,,0,0,0,0,1,,,,,,,,,,,,,,,,,,,,,,,,,,,,,,,,,,,,,,,,,,,,,,
824160,001,2022-11-21_24h55.13.712,Info_measure_main_exp,2022.2.2,Win32,59.50255861,,,,,,,,,,,,,,,,,,masks/mask_003.jpg,,,,,,,,,,,,,,,,,,,,,,,,,,,,,,,,,,,,,,,,,,,0,1,1,2,1,,,,,,,,,,,,,,,,,,,,,,,,,,,,,,,,,,,,,,,,,,,,,,
824160,001,2022-11-21_24h55.13.712,Info_measure_main_exp,2022.2.2,Win32,59.50255861,,,,,,,,,,,,,,,,,,masks/mask_004.jpg,,,,,,,,,,,,,,,,,,,,,,,,,,,,,,,,,,,,,,,,,,,0,2,2,3,1,,,,,,,,,,,,,,,,,,,,,,,,,,,,,,,,,,,,,,,,,,,,,,
824160,001,2022-11-21_24h55.13.712,Info_measure_main_exp,2022.2.2,Win32,59.50255861,,,,,,,,,,,,,,,,,,masks/mask_002.jpg,,,,,,,,,,,,,,,,,,,,,,,,,,,,,,,,,,,,,,,,,,,0,3,3,1,1,,,,,,,,,,,,,,,,,,,,,,,,,,,,,,,,,,,,,,,,,,,,,,
824160,001,2022-11-21_24h55.13.712,Info_measure_main_exp,2022.2.2,Win32,59.50255861,,,,,,,,,,,,,,,,,,masks/mask_005.jpg,,,,,,,,,,,,,,,,,,,,,,,,,,,,,,,,,,,,,,,,,,,0,4,4,4,1,,,,,,,,,,,,,,,,,,,,,,,,,,,,,,,,,,,,,,,,,,,,,,
824160,001,2022-11-21_24h55.13.712,Info_measure_main_exp,2022.2.2,Win32,59.50255861,,,,,,,,,,,,,,,,,,masks/mask_002.jpg,,,,,,,,,,,,,,,,,,,,,,,,,,,,,,,,,,,,,,,,,,,,,,,,0,0,0,1,1,,,,,,,,,,,,,,,,,,,,,,,,,,,,,,,,,,,,,,,,,
824160,001,2022-11-21_24h55.13.712,Info_measure_main_exp,2022.2.2,Win32,59.50255861,,,,,,,,,,,,,,,,,,masks/mask_004.jpg,,,,,,,,,,,,,,,,,,,,,,,,,,,,,,,,,,,,,,,,,,,,,,,,0,1,1,3,1,,,,,,,,,,,,,,,,,,,,,,,,,,,,,,,,,,,,,,,,,
824160,001,2022-11-21_24h55.13.712,Info_measure_main_exp,2022.2.2,Win32,59.50255861,,,,,,,,,,,,,,,,,,masks/mask_005.jpg,,,,,,,,,,,,,,,,,,,,,,,,,,,,,,,,,,,,,,,,,,,,,,,,0,2,2,4,1,,,,,,,,,,,,,,,,,,,,,,,,,,,,,,,,,,,,,,,,,
824160,001,2022-11-21_24h55.13.712,Info_measure_main_exp,2022.2.2,Win32,59.50255861,,,,,,,,,,,,,,,,,,masks/mask_003.jpg,,,,,,,,,,,,,,,,,,,,,,,,,,,,,,,,,,,,,,,,,,,,,,,,0,3,3,2,1,,,,,,,,,,,,,,,,,,,,,,,,,,,,,,,,,,,,,,,,,
824160,001,2022-11-21_24h55.13.712,Info_measure_main_exp,2022.2.2,Win32,59.50255861,,,,,,,,,,,,,,,,,,masks/mask_001.jpg,,,,,,,,,,,,,,,,,,,,,,,,,,,,,,,,,,,,,,,,,,,,,,,,0,4,4,0,1,,,,,,,,,,,,,,,,,,,,,,,,,,,,,,,,,,,,,,,,,
824160,001,2022-11-21_24h55.13.712,Info_measure_main_exp,2022.2.2,Win32,59.50255861,,,,,,,,,,,,,,,,,,,,,,,,,,,,,,5,3.2038,1,,,,,,,,,,,,0,131,5,5,1986,1974,absent_patch/patch0001986.jpg,absent_patch/patch0001974.jpg,,,,,,,,,,,,,,,,,,,,0.074797329,-0.028351458,1,0,0,response3disk,16,0.00724976,-0.007069358,1,0,0,center_square,0,15,15,25,1,,,,,,,,,,,,,,,,,,,,,,,
824160,001,2022-11-21_24h55.13.712,Info_measure_main_exp,2022.2.2,Win32,59.50255861,,,,,,,,,,,,,,,,,,masks/mask_004.jpg,,,,,,,,,,,,,,,,,,,,,,,,,,,,,,,,,,,,,,,,,,,0,0,0,3,1,,,,,,,,,,,,,,,,,,,,,,,,,,,,,,,,,,,,,,,,,,,,,,
824160,001,2022-11-21_24h55.13.712,Info_measure_main_exp,2022.2.2,Win32,59.50255861,,,,,,,,,,,,,,,,,,masks/mask_001.jpg,,,,,,,,,,,,,,,,,,,,,,,,,,,,,,,,,,,,,,,,,,,0,1,1,0,1,,,,,,,,,,,,,,,,,,,,,,,,,,,,,,,,,,,,,,,,,,,,,,
824160,001,2022-11-21_24h55.13.712,Info_measure_main_exp,2022.2.2,Win32,59.50255861,,,,,,,,,,,,,,,,,,masks/mask_002.jpg,,,,,,,,,,,,,,,,,,,,,,,,,,,,,,,,,,,,,,,,,,,0,2,2,1,1,,,,,,,,,,,,,,,,,,,,,,,,,,,,,,,,,,,,,,,,,,,,,,
824160,001,2022-11-21_24h55.13.712,Info_measure_main_exp,2022.2.2,Win32,59.50255861,,,,,,,,,,,,,,,,,,masks/mask_003.jpg,,,,,,,,,,,,,,,,,,,,,,,,,,,,,,,,,,,,,,,,,,,0,3,3,2,1,,,,,,,,,,,,,,,,,,,,,,,,,,,,,,,,,,,,,,,,,,,,,,
824160,001,2022-11-21_24h55.13.712,Info_measure_main_exp,2022.2.2,Win32,59.50255861,,,,,,,,,,,,,,,,,,masks/mask_005.jpg,,,,,,,,,,,,,,,,,,,,,,,,,,,,,,,,,,,,,,,,,,,0,4,4,4,1,,,,,,,,,,,,,,,,,,,,,,,,,,,,,,,,,,,,,,,,,,,,,,
824160,001,2022-11-21_24h55.13.712,Info_measure_main_exp,2022.2.2,Win32,59.50255861,,,,,,,,,,,,,,,,,,masks/mask_003.jpg,,,,,,,,,,,,,,,,,,,,,,,,,,,,,,,,,,,,,,,,,,,,,,,,0,0,0,2,1,,,,,,,,,,,,,,,,,,,,,,,,,,,,,,,,,,,,,,,,,
824160,001,2022-11-21_24h55.13.712,Info_measure_main_exp,2022.2.2,Win32,59.50255861,,,,,,,,,,,,,,,,,,masks/mask_004.jpg,,,,,,,,,,,,,,,,,,,,,,,,,,,,,,,,,,,,,,,,,,,,,,,,0,1,1,3,1,,,,,,,,,,,,,,,,,,,,,,,,,,,,,,,,,,,,,,,,,
824160,001,2022-11-21_24h55.13.712,Info_measure_main_exp,2022.2.2,Win32,59.50255861,,,,,,,,,,,,,,,,,,masks/mask_002.jpg,,,,,,,,,,,,,,,,,,,,,,,,,,,,,,,,,,,,,,,,,,,,,,,,0,2,2,1,1,,,,,,,,,,,,,,,,,,,,,,,,,,,,,,,,,,,,,,,,,
824160,001,2022-11-21_24h55.13.712,Info_measure_main_exp,2022.2.2,Win32,59.50255861,,,,,,,,,,,,,,,,,,masks/mask_001.jpg,,,,,,,,,,,,,,,,,,,,,,,,,,,,,,,,,,,,,,,,,,,,,,,,0,3,3,0,1,,,,,,,,,,,,,,,,,,,,,,,,,,,,,,,,,,,,,,,,,
824160,001,2022-11-21_24h55.13.712,Info_measure_main_exp,2022.2.2,Win32,59.50255861,,,,,,,,,,,,,,,,,,masks/mask_005.jpg,,,,,,,,,,,,,,,,,,,,,,,,,,,,,,,,,,,,,,,,,,,,,,,,0,4,4,4,1,,,,,,,,,,,,,,,,,,,,,,,,,,,,,,,,,,,,,,,,,
824160,001,2022-11-21_24h55.13.712,Info_measure_main_exp,2022.2.2,Win32,59.50255861,,,,,,,,,,,,,,,,,,,,,,,,,,,,,,7,0.7543,1,,,,,,,,,,,,1,131,5,5,1,2142,present_patch/cong_131_5_a.jpg,absent_patch/patch0002142.jpg,,,,,,,,,,,,,,,,,,,,0.026681248,0.065104762,1,0,0,response1disk,17,0.012801641,0.001258512,1,0,0,center_square,0,16,16,80,1,,,,,,,,,,,,,,,,,,,,,,,
824160,001,2022-11-21_24h55.13.712,Info_measure_main_exp,2022.2.2,Win32,59.50255861,,,,,,,,,,,,,,,,,,masks/mask_001.jpg,,,,,,,,,,,,,,,,,,,,,,,,,,,,,,,,,,,,,,,,,,,0,0,0,0,1,,,,,,,,,,,,,,,,,,,,,,,,,,,,,,,,,,,,,,,,,,,,,,
824160,001,2022-11-21_24h55.13.712,Info_measure_main_exp,2022.2.2,Win32,59.50255861,,,,,,,,,,,,,,,,,,masks/mask_002.jpg,,,,,,,,,,,,,,,,,,,,,,,,,,,,,,,,,,,,,,,,,,,0,1,1,1,1,,,,,,,,,,,,,,,,,,,,,,,,,,,,,,,,,,,,,,,,,,,,,,
824160,001,2022-11-21_24h55.13.712,Info_measure_main_exp,2022.2.2,Win32,59.50255861,,,,,,,,,,,,,,,,,,masks/mask_004.jpg,,,,,,,,,,,,,,,,,,,,,,,,,,,,,,,,,,,,,,,,,,,0,2,2,3,1,,,,,,,,,,,,,,,,,,,,,,,,,,,,,,,,,,,,,,,,,,,,,,
824160,001,2022-11-21_24h55.13.712,Info_measure_main_exp,2022.2.2,Win32,59.50255861,,,,,,,,,,,,,,,,,,masks/mask_005.jpg,,,,,,,,,,,,,,,,,,,,,,,,,,,,,,,,,,,,,,,,,,,0,3,3,4,1,,,,,,,,,,,,,,,,,,,,,,,,,,,,,,,,,,,,,,,,,,,,,,
824160,001,2022-11-21_24h55.13.712,Info_measure_main_exp,2022.2.2,Win32,59.50255861,,,,,,,,,,,,,,,,,,masks/mask_003.jpg,,,,,,,,,,,,,,,,,,,,,,,,,,,,,,,,,,,,,,,,,,,0,4,4,2,1,,,,,,,,,,,,,,,,,,,,,,,,,,,,,,,,,,,,,,,,,,,,,,
824160,001,2022-11-21_24h55.13.712,Info_measure_main_exp,2022.2.2,Win32,59.50255861,,,,,,,,,,,,,,,,,,masks/mask_005.jpg,,,,,,,,,,,,,,,,,,,,,,,,,,,,,,,,,,,,,,,,,,,,,,,,0,0,0,4,1,,,,,,,,,,,,,,,,,,,,,,,,,,,,,,,,,,,,,,,,,
824160,001,2022-11-21_24h55.13.712,Info_measure_main_exp,2022.2.2,Win32,59.50255861,,,,,,,,,,,,,,,,,,masks/mask_002.jpg,,,,,,,,,,,,,,,,,,,,,,,,,,,,,,,,,,,,,,,,,,,,,,,,0,1,1,1,1,,,,,,,,,,,,,,,,,,,,,,,,,,,,,,,,,,,,,,,,,
824160,001,2022-11-21_24h55.13.712,Info_measure_main_exp,2022.2.2,Win32,59.50255861,,,,,,,,,,,,,,,,,,masks/mask_001.jpg,,,,,,,,,,,,,,,,,,,,,,,,,,,,,,,,,,,,,,,,,,,,,,,,0,2,2,0,1,,,,,,,,,,,,,,,,,,,,,,,,,,,,,,,,,,,,,,,,,
824160,001,2022-11-21_24h55.13.712,Info_measure_main_exp,2022.2.2,Win32,59.50255861,,,,,,,,,,,,,,,,,,masks/mask_003.jpg,,,,,,,,,,,,,,,,,,,,,,,,,,,,,,,,,,,,,,,,,,,,,,,,0,3,3,2,1,,,,,,,,,,,,,,,,,,,,,,,,,,,,,,,,,,,,,,,,,
824160,001,2022-11-21_24h55.13.712,Info_measure_main_exp,2022.2.2,Win32,59.50255861,,,,,,,,,,,,,,,,,,masks/mask_004.jpg,,,,,,,,,,,,,,,,,,,,,,,,,,,,,,,,,,,,,,,,,,,,,,,,0,4,4,3,1,,,,,,,,,,,,,,,,,,,,,,,,,,,,,,,,,,,,,,,,,
824160,001,2022-11-21_24h55.13.712,Info_measure_main_exp,2022.2.2,Win32,59.50255861,,,,,,,,,,,,,,,,,,,,,,,,,,,,,,7,0.651,1,,,,,,,,,,,,0,131,5,5,2154,2298,absent_patch/patch0002154.jpg,absent_patch/patch0002298.jpg,,,,,,,,,,,,,,,,,,,,0.028531907,0.08268564,1,0,0,response1disk,18,0.010950982,0.010511519,1,0,0,center_square,0,17,17,27,1,,,,,,,,,,,,,,,,,,,,,,,
824160,001,2022-11-21_24h55.13.712,Info_measure_main_exp,2022.2.2,Win32,59.50255861,,,,,,,,,,,,,,,,,,masks/mask_002.jpg,,,,,,,,,,,,,,,,,,,,,,,,,,,,,,,,,,,,,,,,,,,0,0,0,1,1,,,,,,,,,,,,,,,,,,,,,,,,,,,,,,,,,,,,,,,,,,,,,,
824160,001,2022-11-21_24h55.13.712,Info_measure_main_exp,2022.2.2,Win32,59.50255861,,,,,,,,,,,,,,,,,,masks/mask_005.jpg,,,,,,,,,,,,,,,,,,,,,,,,,,,,,,,,,,,,,,,,,,,0,1,1,4,1,,,,,,,,,,,,,,,,,,,,,,,,,,,,,,,,,,,,,,,,,,,,,,
824160,001,2022-11-21_24h55.13.712,Info_measure_main_exp,2022.2.2,Win32,59.50255861,,,,,,,,,,,,,,,,,,masks/mask_004.jpg,,,,,,,,,,,,,,,,,,,,,,,,,,,,,,,,,,,,,,,,,,,0,2,2,3,1,,,,,,,,,,,,,,,,,,,,,,,,,,,,,,,,,,,,,,,,,,,,,,
824160,001,2022-11-21_24h55.13.712,Info_measure_main_exp,2022.2.2,Win32,59.50255861,,,,,,,,,,,,,,,,,,masks/mask_001.jpg,,,,,,,,,,,,,,,,,,,,,,,,,,,,,,,,,,,,,,,,,,,0,3,3,0,1,,,,,,,,,,,,,,,,,,,,,,,,,,,,,,,,,,,,,,,,,,,,,,
824160,001,2022-11-21_24h55.13.712,Info_measure_main_exp,2022.2.2,Win32,59.50255861,,,,,,,,,,,,,,,,,,masks/mask_003.jpg,,,,,,,,,,,,,,,,,,,,,,,,,,,,,,,,,,,,,,,,,,,0,4,4,2,1,,,,,,,,,,,,,,,,,,,,,,,,,,,,,,,,,,,,,,,,,,,,,,
824160,001,2022-11-21_24h55.13.712,Info_measure_main_exp,2022.2.2,Win32,59.50255861,,,,,,,,,,,,,,,,,,masks/mask_004.jpg,,,,,,,,,,,,,,,,,,,,,,,,,,,,,,,,,,,,,,,,,,,,,,,,0,0,0,3,1,,,,,,,,,,,,,,,,,,,,,,,,,,,,,,,,,,,,,,,,,
824160,001,2022-11-21_24h55.13.712,Info_measure_main_exp,2022.2.2,Win32,59.50255861,,,,,,,,,,,,,,,,,,masks/mask_003.jpg,,,,,,,,,,,,,,,,,,,,,,,,,,,,,,,,,,,,,,,,,,,,,,,,0,1,1,2,1,,,,,,,,,,,,,,,,,,,,,,,,,,,,,,,,,,,,,,,,,
824160,001,2022-11-21_24h55.13.712,Info_measure_main_exp,2022.2.2,Win32,59.50255861,,,,,,,,,,,,,,,,,,masks/mask_002.jpg,,,,,,,,,,,,,,,,,,,,,,,,,,,,,,,,,,,,,,,,,,,,,,,,0,2,2,1,1,,,,,,,,,,,,,,,,,,,,,,,,,,,,,,,,,,,,,,,,,
824160,001,2022-11-21_24h55.13.712,Info_measure_main_exp,2022.2.2,Win32,59.50255861,,,,,,,,,,,,,,,,,,masks/mask_001.jpg,,,,,,,,,,,,,,,,,,,,,,,,,,,,,,,,,,,,,,,,,,,,,,,,0,3,3,0,1,,,,,,,,,,,,,,,,,,,,,,,,,,,,,,,,,,,,,,,,,
824160,001,2022-11-21_24h55.13.712,Info_measure_main_exp,2022.2.2,Win32,59.50255861,,,,,,,,,,,,,,,,,,masks/mask_005.jpg,,,,,,,,,,,,,,,,,,,,,,,,,,,,,,,,,,,,,,,,,,,,,,,,0,4,4,4,1,,,,,,,,,,,,,,,,,,,,,,,,,,,,,,,,,,,,,,,,,
824160,001,2022-11-21_24h55.13.712,Info_measure_main_exp,2022.2.2,Win32,59.50255861,,,,,,,,,,,,,,,,,,,,,,,,,,,,,,7,0.8562,1,,,,,,,,,,,,0,131,5,5,2154,2250,absent_patch/patch0002154.jpg,absent_patch/patch0002250.jpg,,,,,,,,,,,,,,,,,,,,0.020204085,0.049374496,1,0,0,response1disk,19,-0.002928625,-0.007069358,1,0,0,center_square,0,18,18,108,1,,,,,,,,,,,,,,,,,,,,,,,
824160,001,2022-11-21_24h55.13.712,Info_measure_main_exp,2022.2.2,Win32,59.50255861,,,,,,,,,,,,,,,,,,masks/mask_005.jpg,,,,,,,,,,,,,,,,,,,,,,,,,,,,,,,,,,,,,,,,,,,0,0,0,4,1,,,,,,,,,,,,,,,,,,,,,,,,,,,,,,,,,,,,,,,,,,,,,,
824160,001,2022-11-21_24h55.13.712,Info_measure_main_exp,2022.2.2,Win32,59.50255861,,,,,,,,,,,,,,,,,,masks/mask_002.jpg,,,,,,,,,,,,,,,,,,,,,,,,,,,,,,,,,,,,,,,,,,,0,1,1,1,1,,,,,,,,,,,,,,,,,,,,,,,,,,,,,,,,,,,,,,,,,,,,,,
824160,001,2022-11-21_24h55.13.712,Info_measure_main_exp,2022.2.2,Win32,59.50255861,,,,,,,,,,,,,,,,,,masks/mask_003.jpg,,,,,,,,,,,,,,,,,,,,,,,,,,,,,,,,,,,,,,,,,,,0,2,2,2,1,,,,,,,,,,,,,,,,,,,,,,,,,,,,,,,,,,,,,,,,,,,,,,
824160,001,2022-11-21_24h55.13.712,Info_measure_main_exp,2022.2.2,Win32,59.50255861,,,,,,,,,,,,,,,,,,masks/mask_004.jpg,,,,,,,,,,,,,,,,,,,,,,,,,,,,,,,,,,,,,,,,,,,0,3,3,3,1,,,,,,,,,,,,,,,,,,,,,,,,,,,,,,,,,,,,,,,,,,,,,,
824160,001,2022-11-21_24h55.13.712,Info_measure_main_exp,2022.2.2,Win32,59.50255861,,,,,,,,,,,,,,,,,,masks/mask_001.jpg,,,,,,,,,,,,,,,,,,,,,,,,,,,,,,,,,,,,,,,,,,,0,4,4,0,1,,,,,,,,,,,,,,,,,,,,,,,,,,,,,,,,,,,,,,,,,,,,,,
824160,001,2022-11-21_24h55.13.712,Info_measure_main_exp,2022.2.2,Win32,59.50255861,,,,,,,,,,,,,,,,,,masks/mask_004.jpg,,,,,,,,,,,,,,,,,,,,,,,,,,,,,,,,,,,,,,,,,,,,,,,,0,0,0,3,1,,,,,,,,,,,,,,,,,,,,,,,,,,,,,,,,,,,,,,,,,
824160,001,2022-11-21_24h55.13.712,Info_measure_main_exp,2022.2.2,Win32,59.50255861,,,,,,,,,,,,,,,,,,masks/mask_001.jpg,,,,,,,,,,,,,,,,,,,,,,,,,,,,,,,,,,,,,,,,,,,,,,,,0,1,1,0,1,,,,,,,,,,,,,,,,,,,,,,,,,,,,,,,,,,,,,,,,,
824160,001,2022-11-21_24h55.13.712,Info_measure_main_exp,2022.2.2,Win32,59.50255861,,,,,,,,,,,,,,,,,,masks/mask_002.jpg,,,,,,,,,,,,,,,,,,,,,,,,,,,,,,,,,,,,,,,,,,,,,,,,0,2,2,1,1,,,,,,,,,,,,,,,,,,,,,,,,,,,,,,,,,,,,,,,,,
824160,001,2022-11-21_24h55.13.712,Info_measure_main_exp,2022.2.2,Win32,59.50255861,,,,,,,,,,,,,,,,,,masks/mask_005.jpg,,,,,,,,,,,,,,,,,,,,,,,,,,,,,,,,,,,,,,,,,,,,,,,,0,3,3,4,1,,,,,,,,,,,,,,,,,,,,,,,,,,,,,,,,,,,,,,,,,
824160,001,2022-11-21_24h55.13.712,Info_measure_main_exp,2022.2.2,Win32,59.50255861,,,,,,,,,,,,,,,,,,masks/mask_003.jpg,,,,,,,,,,,,,,,,,,,,,,,,,,,,,,,,,,,,,,,,,,,,,,,,0,4,4,2,1,,,,,,,,,,,,,,,,,,,,,,,,,,,,,,,,,,,,,,,,,
824160,001,2022-11-21_24h55.13.712,Info_measure_main_exp,2022.2.2,Win32,59.50255861,,,,,,,,,,,,,,,,,,,,,,,,,,,,,,7,0.5671,1,,,,,,,,,,,,1,131,5,5,2298,1,absent_patch/patch0002298.jpg,present_patch/cong_131_5_a.jpg,,,,,,,,,,,,,,,,,,,,0.024830589,0.08546158,1,0,0,response1disk,20,0.000772597,0.004034356,1,0,0,center_square,0,19,19,45,1,,,,,,,,,,,,,,,,,,,,,,,
824160,001,2022-11-21_24h55.13.712,Info_measure_main_exp,2022.2.2,Win32,59.50255861,,,,,,,,,,,,,,,,,,masks/mask_002.jpg,,,,,,,,,,,,,,,,,,,,,,,,,,,,,,,,,,,,,,,,,,,0,0,0,1,1,,,,,,,,,,,,,,,,,,,,,,,,,,,,,,,,,,,,,,,,,,,,,,
824160,001,2022-11-21_24h55.13.712,Info_measure_main_exp,2022.2.2,Win32,59.50255861,,,,,,,,,,,,,,,,,,masks/mask_003.jpg,,,,,,,,,,,,,,,,,,,,,,,,,,,,,,,,,,,,,,,,,,,0,1,1,2,1,,,,,,,,,,,,,,,,,,,,,,,,,,,,,,,,,,,,,,,,,,,,,,
824160,001,2022-11-21_24h55.13.712,Info_measure_main_exp,2022.2.2,Win32,59.50255861,,,,,,,,,,,,,,,,,,masks/mask_004.jpg,,,,,,,,,,,,,,,,,,,,,,,,,,,,,,,,,,,,,,,,,,,0,2,2,3,1,,,,,,,,,,,,,,,,,,,,,,,,,,,,,,,,,,,,,,,,,,,,,,
824160,001,2022-11-21_24h55.13.712,Info_measure_main_exp,2022.2.2,Win32,59.50255861,,,,,,,,,,,,,,,,,,masks/mask_005.jpg,,,,,,,,,,,,,,,,,,,,,,,,,,,,,,,,,,,,,,,,,,,0,3,3,4,1,,,,,,,,,,,,,,,,,,,,,,,,,,,,,,,,,,,,,,,,,,,,,,
824160,001,2022-11-21_24h55.13.712,Info_measure_main_exp,2022.2.2,Win32,59.50255861,,,,,,,,,,,,,,,,,,masks/mask_001.jpg,,,,,,,,,,,,,,,,,,,,,,,,,,,,,,,,,,,,,,,,,,,0,4,4,0,1,,,,,,,,,,,,,,,,,,,,,,,,,,,,,,,,,,,,,,,,,,,,,,
824160,001,2022-11-21_24h55.13.712,Info_measure_main_exp,2022.2.2,Win32,59.50255861,,,,,,,,,,,,,,,,,,masks/mask_005.jpg,,,,,,,,,,,,,,,,,,,,,,,,,,,,,,,,,,,,,,,,,,,,,,,,0,0,0,4,1,,,,,,,,,,,,,,,,,,,,,,,,,,,,,,,,,,,,,,,,,
824160,001,2022-11-21_24h55.13.712,Info_measure_main_exp,2022.2.2,Win32,59.50255861,,,,,,,,,,,,,,,,,,masks/mask_003.jpg,,,,,,,,,,,,,,,,,,,,,,,,,,,,,,,,,,,,,,,,,,,,,,,,0,1,1,2,1,,,,,,,,,,,,,,,,,,,,,,,,,,,,,,,,,,,,,,,,,
824160,001,2022-11-21_24h55.13.712,Info_measure_main_exp,2022.2.2,Win32,59.50255861,,,,,,,,,,,,,,,,,,masks/mask_001.jpg,,,,,,,,,,,,,,,,,,,,,,,,,,,,,,,,,,,,,,,,,,,,,,,,0,2,2,0,1,,,,,,,,,,,,,,,,,,,,,,,,,,,,,,,,,,,,,,,,,
824160,001,2022-11-21_24h55.13.712,Info_measure_main_exp,2022.2.2,Win32,59.50255861,,,,,,,,,,,,,,,,,,masks/mask_002.jpg,,,,,,,,,,,,,,,,,,,,,,,,,,,,,,,,,,,,,,,,,,,,,,,,0,3,3,1,1,,,,,,,,,,,,,,,,,,,,,,,,,,,,,,,,,,,,,,,,,
824160,001,2022-11-21_24h55.13.712,Info_measure_main_exp,2022.2.2,Win32,59.50255861,,,,,,,,,,,,,,,,,,masks/mask_004.jpg,,,,,,,,,,,,,,,,,,,,,,,,,,,,,,,,,,,,,,,,,,,,,,,,0,4,4,3,1,,,,,,,,,,,,,,,,,,,,,,,,,,,,,,,,,,,,,,,,,
824160,001,2022-11-21_24h55.13.712,Info_measure_main_exp,2022.2.2,Win32,59.50255861,,,,,,,,,,,,,,,,,,,,,,,,,,,,,,7,0.8336,1,,,,,,,,,,,,0,131,5,5,1950,2214,absent_patch/patch0001950.jpg,absent_patch/patch0002214.jpg,,,,,,,,,,,,,,,,,,,,0.026681248,0.083610921,1,0,0,response1disk,21,0.001697878,-0.004293418,1,0,0,center_square,0,20,20,85,1,,,,,,,,,,,,,,,,,,,,,,,
824160,001,2022-11-21_24h55.13.712,Info_measure_main_exp,2022.2.2,Win32,59.50255861,,,,,,,,,,,,,,,,,,masks/mask_003.jpg,,,,,,,,,,,,,,,,,,,,,,,,,,,,,,,,,,,,,,,,,,,0,0,0,2,1,,,,,,,,,,,,,,,,,,,,,,,,,,,,,,,,,,,,,,,,,,,,,,
824160,001,2022-11-21_24h55.13.712,Info_measure_main_exp,2022.2.2,Win32,59.50255861,,,,,,,,,,,,,,,,,,masks/mask_005.jpg,,,,,,,,,,,,,,,,,,,,,,,,,,,,,,,,,,,,,,,,,,,0,1,1,4,1,,,,,,,,,,,,,,,,,,,,,,,,,,,,,,,,,,,,,,,,,,,,,,
824160,001,2022-11-21_24h55.13.712,Info_measure_main_exp,2022.2.2,Win32,59.50255861,,,,,,,,,,,,,,,,,,masks/mask_002.jpg,,,,,,,,,,,,,,,,,,,,,,,,,,,,,,,,,,,,,,,,,,,0,2,2,1,1,,,,,,,,,,,,,,,,,,,,,,,,,,,,,,,,,,,,,,,,,,,,,,
824160,001,2022-11-21_24h55.13.712,Info_measure_main_exp,2022.2.2,Win32,59.50255861,,,,,,,,,,,,,,,,,,masks/mask_001.jpg,,,,,,,,,,,,,,,,,,,,,,,,,,,,,,,,,,,,,,,,,,,0,3,3,0,1,,,,,,,,,,,,,,,,,,,,,,,,,,,,,,,,,,,,,,,,,,,,,,
824160,001,2022-11-21_24h55.13.712,Info_measure_main_exp,2022.2.2,Win32,59.50255861,,,,,,,,,,,,,,,,,,masks/mask_004.jpg,,,,,,,,,,,,,,,,,,,,,,,,,,,,,,,,,,,,,,,,,,,0,4,4,3,1,,,,,,,,,,,,,,,,,,,,,,,,,,,,,,,,,,,,,,,,,,,,,,
824160,001,2022-11-21_24h55.13.712,Info_measure_main_exp,2022.2.2,Win32,59.50255861,,,,,,,,,,,,,,,,,,masks/mask_003.jpg,,,,,,,,,,,,,,,,,,,,,,,,,,,,,,,,,,,,,,,,,,,,,,,,0,0,0,2,1,,,,,,,,,,,,,,,,,,,,,,,,,,,,,,,,,,,,,,,,,
824160,001,2022-11-21_24h55.13.712,Info_measure_main_exp,2022.2.2,Win32,59.50255861,,,,,,,,,,,,,,,,,,masks/mask_001.jpg,,,,,,,,,,,,,,,,,,,,,,,,,,,,,,,,,,,,,,,,,,,,,,,,0,1,1,0,1,,,,,,,,,,,,,,,,,,,,,,,,,,,,,,,,,,,,,,,,,
824160,001,2022-11-21_24h55.13.712,Info_measure_main_exp,2022.2.2,Win32,59.50255861,,,,,,,,,,,,,,,,,,masks/mask_005.jpg,,,,,,,,,,,,,,,,,,,,,,,,,,,,,,,,,,,,,,,,,,,,,,,,0,2,2,4,1,,,,,,,,,,,,,,,,,,,,,,,,,,,,,,,,,,,,,,,,,
824160,001,2022-11-21_24h55.13.712,Info_measure_main_exp,2022.2.2,Win32,59.50255861,,,,,,,,,,,,,,,,,,masks/mask_002.jpg,,,,,,,,,,,,,,,,,,,,,,,,,,,,,,,,,,,,,,,,,,,,,,,,0,3,3,1,1,,,,,,,,,,,,,,,,,,,,,,,,,,,,,,,,,,,,,,,,,
824160,001,2022-11-21_24h55.13.712,Info_measure_main_exp,2022.2.2,Win32,59.50255861,,,,,,,,,,,,,,,,,,masks/mask_004.jpg,,,,,,,,,,,,,,,,,,,,,,,,,,,,,,,,,,,,,,,,,,,,,,,,0,4,4,3,1,,,,,,,,,,,,,,,,,,,,,,,,,,,,,,,,,,,,,,,,,
824160,001,2022-11-21_24h55.13.712,Info_measure_main_exp,2022.2.2,Win32,59.50255861,,,,,,,,,,,,,,,,,,,,,,,,,,,,,,7,15.44,1,,,,,,,,,,,,0,131,5,5,2250,2178,absent_patch/patch0002250.jpg,absent_patch/patch0002178.jpg,,,,,,,,,,,,,,,,,,,,0.041486233,0.075283147,1,0,0,response1disk,22,0.000772597,0.002183745,1,0,0,center_square,0,21,21,48,1,,,,,,,,,,,,,,,,,,,,,,,
824160,001,2022-11-21_24h55.13.712,Info_measure_main_exp,2022.2.2,Win32,59.50255861,,,,,,,,,,,,,,,,,,masks/mask_004.jpg,,,,,,,,,,,,,,,,,,,,,,,,,,,,,,,,,,,,,,,,,,,0,0,0,3,1,,,,,,,,,,,,,,,,,,,,,,,,,,,,,,,,,,,,,,,,,,,,,,
824160,001,2022-11-21_24h55.13.712,Info_measure_main_exp,2022.2.2,Win32,59.50255861,,,,,,,,,,,,,,,,,,masks/mask_003.jpg,,,,,,,,,,,,,,,,,,,,,,,,,,,,,,,,,,,,,,,,,,,0,1,1,2,1,,,,,,,,,,,,,,,,,,,,,,,,,,,,,,,,,,,,,,,,,,,,,,
824160,001,2022-11-21_24h55.13.712,Info_measure_main_exp,2022.2.2,Win32,59.50255861,,,,,,,,,,,,,,,,,,masks/mask_001.jpg,,,,,,,,,,,,,,,,,,,,,,,,,,,,,,,,,,,,,,,,,,,0,2,2,0,1,,,,,,,,,,,,,,,,,,,,,,,,,,,,,,,,,,,,,,,,,,,,,,
824160,001,2022-11-21_24h55.13.712,Info_measure_main_exp,2022.2.2,Win32,59.50255861,,,,,,,,,,,,,,,,,,masks/mask_005.jpg,,,,,,,,,,,,,,,,,,,,,,,,,,,,,,,,,,,,,,,,,,,0,3,3,4,1,,,,,,,,,,,,,,,,,,,,,,,,,,,,,,,,,,,,,,,,,,,,,,
824160,001,2022-11-21_24h55.13.712,Info_measure_main_exp,2022.2.2,Win32,59.50255861,,,,,,,,,,,,,,,,,,masks/mask_002.jpg,,,,,,,,,,,,,,,,,,,,,,,,,,,,,,,,,,,,,,,,,,,0,4,4,1,1,,,,,,,,,,,,,,,,,,,,,,,,,,,,,,,,,,,,,,,,,,,,,,
824160,001,2022-11-21_24h55.13.712,Info_measure_main_exp,2022.2.2,Win32,59.50255861,,,,,,,,,,,,,,,,,,masks/mask_004.jpg,,,,,,,,,,,,,,,,,,,,,,,,,,,,,,,,,,,,,,,,,,,,,,,,0,0,0,3,1,,,,,,,,,,,,,,,,,,,,,,,,,,,,,,,,,,,,,,,,,
824160,001,2022-11-21_24h55.13.712,Info_measure_main_exp,2022.2.2,Win32,59.50255861,,,,,,,,,,,,,,,,,,masks/mask_001.jpg,,,,,,,,,,,,,,,,,,,,,,,,,,,,,,,,,,,,,,,,,,,,,,,,0,1,1,0,1,,,,,,,,,,,,,,,,,,,,,,,,,,,,,,,,,,,,,,,,,
824160,001,2022-11-21_24h55.13.712,Info_measure_main_exp,2022.2.2,Win32,59.50255861,,,,,,,,,,,,,,,,,,masks/mask_003.jpg,,,,,,,,,,,,,,,,,,,,,,,,,,,,,,,,,,,,,,,,,,,,,,,,0,2,2,2,1,,,,,,,,,,,,,,,,,,,,,,,,,,,,,,,,,,,,,,,,,
824160,001,2022-11-21_24h55.13.712,Info_measure_main_exp,2022.2.2,Win32,59.50255861,,,,,,,,,,,,,,,,,,masks/mask_002.jpg,,,,,,,,,,,,,,,,,,,,,,,,,,,,,,,,,,,,,,,,,,,,,,,,0,3,3,1,1,,,,,,,,,,,,,,,,,,,,,,,,,,,,,,,,,,,,,,,,,
824160,001,2022-11-21_24h55.13.712,Info_measure_main_exp,2022.2.2,Win32,59.50255861,,,,,,,,,,,,,,,,,,masks/mask_005.jpg,,,,,,,,,,,,,,,,,,,,,,,,,,,,,,,,,,,,,,,,,,,,,,,,0,4,4,4,1,,,,,,,,,,,,,,,,,,,,,,,,,,,,,,,,,,,,,,,,,
824160,001,2022-11-21_24h55.13.712,Info_measure_main_exp,2022.2.2,Win32,59.50255861,,,,,,,,,,,,,,,,,,,,,,,,,,,,,,0,0.4356,1,,,,,,,,,,,,0,131,5,5,2214,2214,absent_patch/patch0002214.jpg,absent_patch/patch0002214.jpg,,,,,,,,,,,,,,,,,,,,-0.051044706,0.086386862,1,0,0,response7disk,23,0.006324478,-0.009845251,1,0,0,center_square,0,22,22,115,1,,,,,,,,,,,,,,,,,,,,,,,
824160,001,2022-11-21_24h55.13.712,Info_measure_main_exp,2022.2.2,Win32,59.50255861,,,,,,,,,,,,,,,,,,masks/mask_003.jpg,,,,,,,,,,,,,,,,,,,,,,,,,,,,,,,,,,,,,,,,,,,0,0,0,2,1,,,,,,,,,,,,,,,,,,,,,,,,,,,,,,,,,,,,,,,,,,,,,,
824160,001,2022-11-21_24h55.13.712,Info_measure_main_exp,2022.2.2,Win32,59.50255861,,,,,,,,,,,,,,,,,,masks/mask_002.jpg,,,,,,,,,,,,,,,,,,,,,,,,,,,,,,,,,,,,,,,,,,,0,1,1,1,1,,,,,,,,,,,,,,,,,,,,,,,,,,,,,,,,,,,,,,,,,,,,,,
824160,001,2022-11-21_24h55.13.712,Info_measure_main_exp,2022.2.2,Win32,59.50255861,,,,,,,,,,,,,,,,,,masks/mask_001.jpg,,,,,,,,,,,,,,,,,,,,,,,,,,,,,,,,,,,,,,,,,,,0,2,2,0,1,,,,,,,,,,,,,,,,,,,,,,,,,,,,,,,,,,,,,,,,,,,,,,
824160,001,2022-11-21_24h55.13.712,Info_measure_main_exp,2022.2.2,Win32,59.50255861,,,,,,,,,,,,,,,,,,masks/mask_004.jpg,,,,,,,,,,,,,,,,,,,,,,,,,,,,,,,,,,,,,,,,,,,0,3,3,3,1,,,,,,,,,,,,,,,,,,,,,,,,,,,,,,,,,,,,,,,,,,,,,,
824160,001,2022-11-21_24h55.13.712,Info_measure_main_exp,2022.2.2,Win32,59.50255861,,,,,,,,,,,,,,,,,,masks/mask_005.jpg,,,,,,,,,,,,,,,,,,,,,,,,,,,,,,,,,,,,,,,,,,,0,4,4,4,1,,,,,,,,,,,,,,,,,,,,,,,,,,,,,,,,,,,,,,,,,,,,,,
824160,001,2022-11-21_24h55.13.712,Info_measure_main_exp,2022.2.2,Win32,59.50255861,,,,,,,,,,,,,,,,,,masks/mask_002.jpg,,,,,,,,,,,,,,,,,,,,,,,,,,,,,,,,,,,,,,,,,,,,,,,,0,0,0,1,1,,,,,,,,,,,,,,,,,,,,,,,,,,,,,,,,,,,,,,,,,
824160,001,2022-11-21_24h55.13.712,Info_measure_main_exp,2022.2.2,Win32,59.50255861,,,,,,,,,,,,,,,,,,masks/mask_001.jpg,,,,,,,,,,,,,,,,,,,,,,,,,,,,,,,,,,,,,,,,,,,,,,,,0,1,1,0,1,,,,,,,,,,,,,,,,,,,,,,,,,,,,,,,,,,,,,,,,,
824160,001,2022-11-21_24h55.13.712,Info_measure_main_exp,2022.2.2,Win32,59.50255861,,,,,,,,,,,,,,,,,,masks/mask_004.jpg,,,,,,,,,,,,,,,,,,,,,,,,,,,,,,,,,,,,,,,,,,,,,,,,0,2,2,3,1,,,,,,,,,,,,,,,,,,,,,,,,,,,,,,,,,,,,,,,,,
824160,001,2022-11-21_24h55.13.712,Info_measure_main_exp,2022.2.2,Win32,59.50255861,,,,,,,,,,,,,,,,,,masks/mask_005.jpg,,,,,,,,,,,,,,,,,,,,,,,,,,,,,,,,,,,,,,,,,,,,,,,,0,3,3,4,1,,,,,,,,,,,,,,,,,,,,,,,,,,,,,,,,,,,,,,,,,
824160,001,2022-11-21_24h55.13.712,Info_measure_main_exp,2022.2.2,Win32,59.50255861,,,,,,,,,,,,,,,,,,masks/mask_003.jpg,,,,,,,,,,,,,,,,,,,,,,,,,,,,,,,,,,,,,,,,,,,,,,,,0,4,4,2,1,,,,,,,,,,,,,,,,,,,,,,,,,,,,,,,,,,,,,,,,,
824160,001,2022-11-21_24h55.13.712,Info_measure_main_exp,2022.2.2,Win32,59.50255861,,,,,,,,,,,,,,,,,,,,,,,,,,,,,,7,1.4069,1,,,,,,,,,,,,0,131,5,5,2082,2178,absent_patch/patch0002082.jpg,absent_patch/patch0002178.jpg,,,,,,,,,,,,,,,,,,,,0.023905307,0.08546158,1,0,0,response1disk,24,-0.005704566,0.003109075,1,0,0,center_square,0,23,23,2,1,,,,,,,,,,,,,,,,,,,,,,,
824160,001,2022-11-21_24h55.13.712,Info_measure_main_exp,2022.2.2,Win32,59.50255861,,,,,,,,,,,,,,,,,,masks/mask_004.jpg,,,,,,,,,,,,,,,,,,,,,,,,,,,,,,,,,,,,,,,,,,,0,0,0,3,1,,,,,,,,,,,,,,,,,,,,,,,,,,,,,,,,,,,,,,,,,,,,,,
824160,001,2022-11-21_24h55.13.712,Info_measure_main_exp,2022.2.2,Win32,59.50255861,,,,,,,,,,,,,,,,,,masks/mask_005.jpg,,,,,,,,,,,,,,,,,,,,,,,,,,,,,,,,,,,,,,,,,,,0,1,1,4,1,,,,,,,,,,,,,,,,,,,,,,,,,,,,,,,,,,,,,,,,,,,,,,
824160,001,2022-11-21_24h55.13.712,Info_measure_main_exp,2022.2.2,Win32,59.50255861,,,,,,,,,,,,,,,,,,masks/mask_001.jpg,,,,,,,,,,,,,,,,,,,,,,,,,,,,,,,,,,,,,,,,,,,0,2,2,0,1,,,,,,,,,,,,,,,,,,,,,,,,,,,,,,,,,,,,,,,,,,,,,,
824160,001,2022-11-21_24h55.13.712,Info_measure_main_exp,2022.2.2,Win32,59.50255861,,,,,,,,,,,,,,,,,,masks/mask_003.jpg,,,,,,,,,,,,,,,,,,,,,,,,,,,,,,,,,,,,,,,,,,,0,3,3,2,1,,,,,,,,,,,,,,,,,,,,,,,,,,,,,,,,,,,,,,,,,,,,,,
824160,001,2022-11-21_24h55.13.712,Info_measure_main_exp,2022.2.2,Win32,59.50255861,,,,,,,,,,,,,,,,,,masks/mask_002.jpg,,,,,,,,,,,,,,,,,,,,,,,,,,,,,,,,,,,,,,,,,,,0,4,4,1,1,,,,,,,,,,,,,,,,,,,,,,,,,,,,,,,,,,,,,,,,,,,,,,
824160,001,2022-11-21_24h55.13.712,Info_measure_main_exp,2022.2.2,Win32,59.50255861,,,,,,,,,,,,,,,,,,masks/mask_003.jpg,,,,,,,,,,,,,,,,,,,,,,,,,,,,,,,,,,,,,,,,,,,,,,,,0,0,0,2,1,,,,,,,,,,,,,,,,,,,,,,,,,,,,,,,,,,,,,,,,,
824160,001,2022-11-21_24h55.13.712,Info_measure_main_exp,2022.2.2,Win32,59.50255861,,,,,,,,,,,,,,,,,,masks/mask_002.jpg,,,,,,,,,,,,,,,,,,,,,,,,,,,,,,,,,,,,,,,,,,,,,,,,0,1,1,1,1,,,,,,,,,,,,,,,,,,,,,,,,,,,,,,,,,,,,,,,,,
824160,001,2022-11-21_24h55.13.712,Info_measure_main_exp,2022.2.2,Win32,59.50255861,,,,,,,,,,,,,,,,,,masks/mask_001.jpg,,,,,,,,,,,,,,,,,,,,,,,,,,,,,,,,,,,,,,,,,,,,,,,,0,2,2,0,1,,,,,,,,,,,,,,,,,,,,,,,,,,,,,,,,,,,,,,,,,
824160,001,2022-11-21_24h55.13.712,Info_measure_main_exp,2022.2.2,Win32,59.50255861,,,,,,,,,,,,,,,,,,masks/mask_004.jpg,,,,,,,,,,,,,,,,,,,,,,,,,,,,,,,,,,,,,,,,,,,,,,,,0,3,3,3,1,,,,,,,,,,,,,,,,,,,,,,,,,,,,,,,,,,,,,,,,,
824160,001,2022-11-21_24h55.13.712,Info_measure_main_exp,2022.2.2,Win32,59.50255861,,,,,,,,,,,,,,,,,,masks/mask_005.jpg,,,,,,,,,,,,,,,,,,,,,,,,,,,,,,,,,,,,,,,,,,,,,,,,0,4,4,4,1,,,,,,,,,,,,,,,,,,,,,,,,,,,,,,,,,,,,,,,,,
824160,001,2022-11-21_24h55.13.712,Info_measure_main_exp,2022.2.2,Win32,59.50255861,,,,,,,,,,,,,,,,,,,,,,,,,,,,,,7,0.6035,1,,,,,,,,,,,,0,131,5,5,1974,2298,absent_patch/patch0001974.jpg,absent_patch/patch0002298.jpg,,,,,,,,,,,,,,,,,,,,0.022054745,0.095639965,1,0,0,response1disk,25,-0.002003344,-0.01077058,1,0,0,center_square,0,24,24,6,1,,,,,,,,,,,,,,,,,,,,,,,
824160,001,2022-11-21_24h55.13.712,Info_measure_main_exp,2022.2.2,Win32,59.50255861,,,,,,,,,,,,,,,,,,masks/mask_003.jpg,,,,,,,,,,,,,,,,,,,,,,,,,,,,,,,,,,,,,,,,,,,0,0,0,2,1,,,,,,,,,,,,,,,,,,,,,,,,,,,,,,,,,,,,,,,,,,,,,,
824160,001,2022-11-21_24h55.13.712,Info_measure_main_exp,2022.2.2,Win32,59.50255861,,,,,,,,,,,,,,,,,,masks/mask_004.jpg,,,,,,,,,,,,,,,,,,,,,,,,,,,,,,,,,,,,,,,,,,,0,1,1,3,1,,,,,,,,,,,,,,,,,,,,,,,,,,,,,,,,,,,,,,,,,,,,,,
824160,001,2022-11-21_24h55.13.712,Info_measure_main_exp,2022.2.2,Win32,59.50255861,,,,,,,,,,,,,,,,,,masks/mask_005.jpg,,,,,,,,,,,,,,,,,,,,,,,,,,,,,,,,,,,,,,,,,,,0,2,2,4,1,,,,,,,,,,,,,,,,,,,,,,,,,,,,,,,,,,,,,,,,,,,,,,
824160,001,2022-11-21_24h55.13.712,Info_measure_main_exp,2022.2.2,Win32,59.50255861,,,,,,,,,,,,,,,,,,masks/mask_002.jpg,,,,,,,,,,,,,,,,,,,,,,,,,,,,,,,,,,,,,,,,,,,0,3,3,1,1,,,,,,,,,,,,,,,,,,,,,,,,,,,,,,,,,,,,,,,,,,,,,,
824160,001,2022-11-21_24h55.13.712,Info_measure_main_exp,2022.2.2,Win32,59.50255861,,,,,,,,,,,,,,,,,,masks/mask_001.jpg,,,,,,,,,,,,,,,,,,,,,,,,,,,,,,,,,,,,,,,,,,,0,4,4,0,1,,,,,,,,,,,,,,,,,,,,,,,,,,,,,,,,,,,,,,,,,,,,,,
824160,001,2022-11-21_24h55.13.712,Info_measure_main_exp,2022.2.2,Win32,59.50255861,,,,,,,,,,,,,,,,,,masks/mask_003.jpg,,,,,,,,,,,,,,,,,,,,,,,,,,,,,,,,,,,,,,,,,,,,,,,,0,0,0,2,1,,,,,,,,,,,,,,,,,,,,,,,,,,,,,,,,,,,,,,,,,
824160,001,2022-11-21_24h55.13.712,Info_measure_main_exp,2022.2.2,Win32,59.50255861,,,,,,,,,,,,,,,,,,masks/mask_002.jpg,,,,,,,,,,,,,,,,,,,,,,,,,,,,,,,,,,,,,,,,,,,,,,,,0,1,1,1,1,,,,,,,,,,,,,,,,,,,,,,,,,,,,,,,,,,,,,,,,,
824160,001,2022-11-21_24h55.13.712,Info_measure_main_exp,2022.2.2,Win32,59.50255861,,,,,,,,,,,,,,,,,,masks/mask_004.jpg,,,,,,,,,,,,,,,,,,,,,,,,,,,,,,,,,,,,,,,,,,,,,,,,0,2,2,3,1,,,,,,,,,,,,,,,,,,,,,,,,,,,,,,,,,,,,,,,,,
824160,001,2022-11-21_24h55.13.712,Info_measure_main_exp,2022.2.2,Win32,59.50255861,,,,,,,,,,,,,,,,,,masks/mask_005.jpg,,,,,,,,,,,,,,,,,,,,,,,,,,,,,,,,,,,,,,,,,,,,,,,,0,3,3,4,1,,,,,,,,,,,,,,,,,,,,,,,,,,,,,,,,,,,,,,,,,
824160,001,2022-11-21_24h55.13.712,Info_measure_main_exp,2022.2.2,Win32,59.50255861,,,,,,,,,,,,,,,,,,masks/mask_001.jpg,,,,,,,,,,,,,,,,,,,,,,,,,,,,,,,,,,,,,,,,,,,,,,,,0,4,4,0,1,,,,,,,,,,,,,,,,,,,,,,,,,,,,,,,,,,,,,,,,,
824160,001,2022-11-21_24h55.13.712,Info_measure_main_exp,2022.2.2,Win32,59.50255861,,,,,,,,,,,,,,,,,,,,,,,,,,,,,,7,0.4386,1,,,,,,,,,,,,0,131,5,5,2250,2142,absent_patch/patch0002250.jpg,absent_patch/patch0002142.jpg,,,,,,,,,,,,,,,,,,,,0.029457189,0.093789354,1,0,0,response1disk,26,0.012801641,0.003109075,1,0,0,center_square,0,25,25,71,1,,,,,,,,,,,,,,,,,,,,,,,
824160,001,2022-11-21_24h55.13.712,Info_measure_main_exp,2022.2.2,Win32,59.50255861,,,,,,,,,,,,,,,,,,masks/mask_005.jpg,,,,,,,,,,,,,,,,,,,,,,,,,,,,,,,,,,,,,,,,,,,0,0,0,4,1,,,,,,,,,,,,,,,,,,,,,,,,,,,,,,,,,,,,,,,,,,,,,,
824160,001,2022-11-21_24h55.13.712,Info_measure_main_exp,2022.2.2,Win32,59.50255861,,,,,,,,,,,,,,,,,,masks/mask_002.jpg,,,,,,,,,,,,,,,,,,,,,,,,,,,,,,,,,,,,,,,,,,,0,1,1,1,1,,,,,,,,,,,,,,,,,,,,,,,,,,,,,,,,,,,,,,,,,,,,,,
824160,001,2022-11-21_24h55.13.712,Info_measure_main_exp,2022.2.2,Win32,59.50255861,,,,,,,,,,,,,,,,,,masks/mask_004.jpg,,,,,,,,,,,,,,,,,,,,,,,,,,,,,,,,,,,,,,,,,,,0,2,2,3,1,,,,,,,,,,,,,,,,,,,,,,,,,,,,,,,,,,,,,,,,,,,,,,
824160,001,2022-11-21_24h55.13.712,Info_measure_main_exp,2022.2.2,Win32,59.50255861,,,,,,,,,,,,,,,,,,masks/mask_001.jpg,,,,,,,,,,,,,,,,,,,,,,,,,,,,,,,,,,,,,,,,,,,0,3,3,0,1,,,,,,,,,,,,,,,,,,,,,,,,,,,,,,,,,,,,,,,,,,,,,,
824160,001,2022-11-21_24h55.13.712,Info_measure_main_exp,2022.2.2,Win32,59.50255861,,,,,,,,,,,,,,,,,,masks/mask_003.jpg,,,,,,,,,,,,,,,,,,,,,,,,,,,,,,,,,,,,,,,,,,,0,4,4,2,1,,,,,,,,,,,,,,,,,,,,,,,,,,,,,,,,,,,,,,,,,,,,,,
824160,001,2022-11-21_24h55.13.712,Info_measure_main_exp,2022.2.2,Win32,59.50255861,,,,,,,,,,,,,,,,,,masks/mask_002.jpg,,,,,,,,,,,,,,,,,,,,,,,,,,,,,,,,,,,,,,,,,,,,,,,,0,0,0,1,1,,,,,,,,,,,,,,,,,,,,,,,,,,,,,,,,,,,,,,,,,
824160,001,2022-11-21_24h55.13.712,Info_measure_main_exp,2022.2.2,Win32,59.50255861,,,,,,,,,,,,,,,,,,masks/mask_003.jpg,,,,,,,,,,,,,,,,,,,,,,,,,,,,,,,,,,,,,,,,,,,,,,,,0,1,1,2,1,,,,,,,,,,,,,,,,,,,,,,,,,,,,,,,,,,,,,,,,,
824160,001,2022-11-21_24h55.13.712,Info_measure_main_exp,2022.2.2,Win32,59.50255861,,,,,,,,,,,,,,,,,,masks/mask_005.jpg,,,,,,,,,,,,,,,,,,,,,,,,,,,,,,,,,,,,,,,,,,,,,,,,0,2,2,4,1,,,,,,,,,,,,,,,,,,,,,,,,,,,,,,,,,,,,,,,,,
824160,001,2022-11-21_24h55.13.712,Info_measure_main_exp,2022.2.2,Win32,59.50255861,,,,,,,,,,,,,,,,,,masks/mask_004.jpg,,,,,,,,,,,,,,,,,,,,,,,,,,,,,,,,,,,,,,,,,,,,,,,,0,3,3,3,1,,,,,,,,,,,,,,,,,,,,,,,,,,,,,,,,,,,,,,,,,
824160,001,2022-11-21_24h55.13.712,Info_measure_main_exp,2022.2.2,Win32,59.50255861,,,,,,,,,,,,,,,,,,masks/mask_001.jpg,,,,,,,,,,,,,,,,,,,,,,,,,,,,,,,,,,,,,,,,,,,,,,,,0,4,4,0,1,,,,,,,,,,,,,,,,,,,,,,,,,,,,,,,,,,,,,,,,,
824160,001,2022-11-21_24h55.13.712,Info_measure_main_exp,2022.2.2,Win32,59.50255861,,,,,,,,,,,,,,,,,,,,,,,,,,,,,,0,0.3974,1,,,,,,,,,,,,0,131,5,5,2154,2154,absent_patch/patch0002154.jpg,absent_patch/patch0002154.jpg,,,,,,,,,,,,,,,,,,,,-0.060297809,0.140054799,1,0,0,response7disk,27,-0.01310701,-0.00799464,1,0,0,center_square,0,26,26,89,1,,,,,,,,,,,,,,,,,,,,,,,
824160,001,2022-11-21_24h55.13.712,Info_measure_main_exp,2022.2.2,Win32,59.50255861,,,,,,,,,,,,,,,,,,masks/mask_001.jpg,,,,,,,,,,,,,,,,,,,,,,,,,,,,,,,,,,,,,,,,,,,0,0,0,0,1,,,,,,,,,,,,,,,,,,,,,,,,,,,,,,,,,,,,,,,,,,,,,,
824160,001,2022-11-21_24h55.13.712,Info_measure_main_exp,2022.2.2,Win32,59.50255861,,,,,,,,,,,,,,,,,,masks/mask_005.jpg,,,,,,,,,,,,,,,,,,,,,,,,,,,,,,,,,,,,,,,,,,,0,1,1,4,1,,,,,,,,,,,,,,,,,,,,,,,,,,,,,,,,,,,,,,,,,,,,,,
824160,001,2022-11-21_24h55.13.712,Info_measure_main_exp,2022.2.2,Win32,59.50255861,,,,,,,,,,,,,,,,,,masks/mask_004.jpg,,,,,,,,,,,,,,,,,,,,,,,,,,,,,,,,,,,,,,,,,,,0,2,2,3,1,,,,,,,,,,,,,,,,,,,,,,,,,,,,,,,,,,,,,,,,,,,,,,
824160,001,2022-11-21_24h55.13.712,Info_measure_main_exp,2022.2.2,Win32,59.50255861,,,,,,,,,,,,,,,,,,masks/mask_002.jpg,,,,,,,,,,,,,,,,,,,,,,,,,,,,,,,,,,,,,,,,,,,0,3,3,1,1,,,,,,,,,,,,,,,,,,,,,,,,,,,,,,,,,,,,,,,,,,,,,,
824160,001,2022-11-21_24h55.13.712,Info_measure_main_exp,2022.2.2,Win32,59.50255861,,,,,,,,,,,,,,,,,,masks/mask_003.jpg,,,,,,,,,,,,,,,,,,,,,,,,,,,,,,,,,,,,,,,,,,,0,4,4,2,1,,,,,,,,,,,,,,,,,,,,,,,,,,,,,,,,,,,,,,,,,,,,,,
824160,001,2022-11-21_24h55.13.712,Info_measure_main_exp,2022.2.2,Win32,59.50255861,,,,,,,,,,,,,,,,,,masks/mask_004.jpg,,,,,,,,,,,,,,,,,,,,,,,,,,,,,,,,,,,,,,,,,,,,,,,,0,0,0,3,1,,,,,,,,,,,,,,,,,,,,,,,,,,,,,,,,,,,,,,,,,
824160,001,2022-11-21_24h55.13.712,Info_measure_main_exp,2022.2.2,Win32,59.50255861,,,,,,,,,,,,,,,,,,masks/mask_002.jpg,,,,,,,,,,,,,,,,,,,,,,,,,,,,,,,,,,,,,,,,,,,,,,,,0,1,1,1,1,,,,,,,,,,,,,,,,,,,,,,,,,,,,,,,,,,,,,,,,,
824160,001,2022-11-21_24h55.13.712,Info_measure_main_exp,2022.2.2,Win32,59.50255861,,,,,,,,,,,,,,,,,,masks/mask_003.jpg,,,,,,,,,,,,,,,,,,,,,,,,,,,,,,,,,,,,,,,,,,,,,,,,0,2,2,2,1,,,,,,,,,,,,,,,,,,,,,,,,,,,,,,,,,,,,,,,,,
824160,001,2022-11-21_24h55.13.712,Info_measure_main_exp,2022.2.2,Win32,59.50255861,,,,,,,,,,,,,,,,,,masks/mask_001.jpg,,,,,,,,,,,,,,,,,,,,,,,,,,,,,,,,,,,,,,,,,,,,,,,,0,3,3,0,1,,,,,,,,,,,,,,,,,,,,,,,,,,,,,,,,,,,,,,,,,
824160,001,2022-11-21_24h55.13.712,Info_measure_main_exp,2022.2.2,Win32,59.50255861,,,,,,,,,,,,,,,,,,masks/mask_005.jpg,,,,,,,,,,,,,,,,,,,,,,,,,,,,,,,,,,,,,,,,,,,,,,,,0,4,4,4,1,,,,,,,,,,,,,,,,,,,,,,,,,,,,,,,,,,,,,,,,,
824160,001,2022-11-21_24h55.13.712,Info_measure_main_exp,2022.2.2,Win32,59.50255861,,,,,,,,,,,,,,,,,,,,,,,,,,,,,,6,2.2859,1,,,,,,,,,,,,0,131,5,5,2238,2214,absent_patch/patch0002238.jpg,absent_patch/patch0002214.jpg,,,,,,,,,,,,,,,,,,,,0.135867734,0.030868337,1,0,0,response1disk,28,-0.014032388,0.004034356,1,0,0,center_square,0,27,27,81,1,,,,,,,,,,,,,,,,,,,,,,,
824160,001,2022-11-21_24h55.13.712,Info_measure_main_exp,2022.2.2,Win32,59.50255861,,,,,,,,,,,,,,,,,,masks/mask_004.jpg,,,,,,,,,,,,,,,,,,,,,,,,,,,,,,,,,,,,,,,,,,,0,0,0,3,1,,,,,,,,,,,,,,,,,,,,,,,,,,,,,,,,,,,,,,,,,,,,,,
824160,001,2022-11-21_24h55.13.712,Info_measure_main_exp,2022.2.2,Win32,59.50255861,,,,,,,,,,,,,,,,,,masks/mask_002.jpg,,,,,,,,,,,,,,,,,,,,,,,,,,,,,,,,,,,,,,,,,,,0,1,1,1,1,,,,,,,,,,,,,,,,,,,,,,,,,,,,,,,,,,,,,,,,,,,,,,
824160,001,2022-11-21_24h55.13.712,Info_measure_main_exp,2022.2.2,Win32,59.50255861,,,,,,,,,,,,,,,,,,masks/mask_001.jpg,,,,,,,,,,,,,,,,,,,,,,,,,,,,,,,,,,,,,,,,,,,0,2,2,0,1,,,,,,,,,,,,,,,,,,,,,,,,,,,,,,,,,,,,,,,,,,,,,,
824160,001,2022-11-21_24h55.13.712,Info_measure_main_exp,2022.2.2,Win32,59.50255861,,,,,,,,,,,,,,,,,,masks/mask_005.jpg,,,,,,,,,,,,,,,,,,,,,,,,,,,,,,,,,,,,,,,,,,,0,3,3,4,1,,,,,,,,,,,,,,,,,,,,,,,,,,,,,,,,,,,,,,,,,,,,,,
824160,001,2022-11-21_24h55.13.712,Info_measure_main_exp,2022.2.2,Win32,59.50255861,,,,,,,,,,,,,,,,,,masks/mask_003.jpg,,,,,,,,,,,,,,,,,,,,,,,,,,,,,,,,,,,,,,,,,,,0,4,4,2,1,,,,,,,,,,,,,,,,,,,,,,,,,,,,,,,,,,,,,,,,,,,,,,
824160,001,2022-11-21_24h55.13.712,Info_measure_main_exp,2022.2.2,Win32,59.50255861,,,,,,,,,,,,,,,,,,masks/mask_002.jpg,,,,,,,,,,,,,,,,,,,,,,,,,,,,,,,,,,,,,,,,,,,,,,,,0,0,0,1,1,,,,,,,,,,,,,,,,,,,,,,,,,,,,,,,,,,,,,,,,,
824160,001,2022-11-21_24h55.13.712,Info_measure_main_exp,2022.2.2,Win32,59.50255861,,,,,,,,,,,,,,,,,,masks/mask_005.jpg,,,,,,,,,,,,,,,,,,,,,,,,,,,,,,,,,,,,,,,,,,,,,,,,0,1,1,4,1,,,,,,,,,,,,,,,,,,,,,,,,,,,,,,,,,,,,,,,,,
824160,001,2022-11-21_24h55.13.712,Info_measure_main_exp,2022.2.2,Win32,59.50255861,,,,,,,,,,,,,,,,,,masks/mask_003.jpg,,,,,,,,,,,,,,,,,,,,,,,,,,,,,,,,,,,,,,,,,,,,,,,,0,2,2,2,1,,,,,,,,,,,,,,,,,,,,,,,,,,,,,,,,,,,,,,,,,
824160,001,2022-11-21_24h55.13.712,Info_measure_main_exp,2022.2.2,Win32,59.50255861,,,,,,,,,,,,,,,,,,masks/mask_004.jpg,,,,,,,,,,,,,,,,,,,,,,,,,,,,,,,,,,,,,,,,,,,,,,,,0,3,3,3,1,,,,,,,,,,,,,,,,,,,,,,,,,,,,,,,,,,,,,,,,,
824160,001,2022-11-21_24h55.13.712,Info_measure_main_exp,2022.2.2,Win32,59.50255861,,,,,,,,,,,,,,,,,,masks/mask_001.jpg,,,,,,,,,,,,,,,,,,,,,,,,,,,,,,,,,,,,,,,,,,,,,,,,0,4,4,0,1,,,,,,,,,,,,,,,,,,,,,,,,,,,,,,,,,,,,,,,,,
824160,001,2022-11-21_24h55.13.712,Info_measure_main_exp,2022.2.2,Win32,59.50255861,,,,,,,,,,,,,,,,,,,,,,,,,,,,,,6,1.4341,1,,,,,,,,,,,,0,131,5,5,2298,2190,absent_patch/patch0002298.jpg,absent_patch/patch0002190.jpg,,,,,,,,,,,,,,,,,,,,0.092378158,0.030868337,1,0,0,response1disk,29,0.012801641,0.004034356,1,0,0,center_square,0,28,28,20,1,,,,,,,,,,,,,,,,,,,,,,,
824160,001,2022-11-21_24h55.13.712,Info_measure_main_exp,2022.2.2,Win32,59.50255861,,,,,,,,,,,,,,,,,,masks/mask_002.jpg,,,,,,,,,,,,,,,,,,,,,,,,,,,,,,,,,,,,,,,,,,,0,0,0,1,1,,,,,,,,,,,,,,,,,,,,,,,,,,,,,,,,,,,,,,,,,,,,,,
824160,001,2022-11-21_24h55.13.712,Info_measure_main_exp,2022.2.2,Win32,59.50255861,,,,,,,,,,,,,,,,,,masks/mask_003.jpg,,,,,,,,,,,,,,,,,,,,,,,,,,,,,,,,,,,,,,,,,,,0,1,1,2,1,,,,,,,,,,,,,,,,,,,,,,,,,,,,,,,,,,,,,,,,,,,,,,
824160,001,2022-11-21_24h55.13.712,Info_measure_main_exp,2022.2.2,Win32,59.50255861,,,,,,,,,,,,,,,,,,masks/mask_004.jpg,,,,,,,,,,,,,,,,,,,,,,,,,,,,,,,,,,,,,,,,,,,0,2,2,3,1,,,,,,,,,,,,,,,,,,,,,,,,,,,,,,,,,,,,,,,,,,,,,,
824160,001,2022-11-21_24h55.13.712,Info_measure_main_exp,2022.2.2,Win32,59.50255861,,,,,,,,,,,,,,,,,,masks/mask_001.jpg,,,,,,,,,,,,,,,,,,,,,,,,,,,,,,,,,,,,,,,,,,,0,3,3,0,1,,,,,,,,,,,,,,,,,,,,,,,,,,,,,,,,,,,,,,,,,,,,,,
824160,001,2022-11-21_24h55.13.712,Info_measure_main_exp,2022.2.2,Win32,59.50255861,,,,,,,,,,,,,,,,,,masks/mask_005.jpg,,,,,,,,,,,,,,,,,,,,,,,,,,,,,,,,,,,,,,,,,,,0,4,4,4,1,,,,,,,,,,,,,,,,,,,,,,,,,,,,,,,,,,,,,,,,,,,,,,
824160,001,2022-11-21_24h55.13.712,Info_measure_main_exp,2022.2.2,Win32,59.50255861,,,,,,,,,,,,,,,,,,masks/mask_001.jpg,,,,,,,,,,,,,,,,,,,,,,,,,,,,,,,,,,,,,,,,,,,,,,,,0,0,0,0,1,,,,,,,,,,,,,,,,,,,,,,,,,,,,,,,,,,,,,,,,,
824160,001,2022-11-21_24h55.13.712,Info_measure_main_exp,2022.2.2,Win32,59.50255861,,,,,,,,,,,,,,,,,,masks/mask_002.jpg,,,,,,,,,,,,,,,,,,,,,,,,,,,,,,,,,,,,,,,,,,,,,,,,0,1,1,1,1,,,,,,,,,,,,,,,,,,,,,,,,,,,,,,,,,,,,,,,,,
824160,001,2022-11-21_24h55.13.712,Info_measure_main_exp,2022.2.2,Win32,59.50255861,,,,,,,,,,,,,,,,,,masks/mask_003.jpg,,,,,,,,,,,,,,,,,,,,,,,,,,,,,,,,,,,,,,,,,,,,,,,,0,2,2,2,1,,,,,,,,,,,,,,,,,,,,,,,,,,,,,,,,,,,,,,,,,
824160,001,2022-11-21_24h55.13.712,Info_measure_main_exp,2022.2.2,Win32,59.50255861,,,,,,,,,,,,,,,,,,masks/mask_004.jpg,,,,,,,,,,,,,,,,,,,,,,,,,,,,,,,,,,,,,,,,,,,,,,,,0,3,3,3,1,,,,,,,,,,,,,,,,,,,,,,,,,,,,,,,,,,,,,,,,,
824160,001,2022-11-21_24h55.13.712,Info_measure_main_exp,2022.2.2,Win32,59.50255861,,,,,,,,,,,,,,,,,,masks/mask_005.jpg,,,,,,,,,,,,,,,,,,,,,,,,,,,,,,,,,,,,,,,,,,,,,,,,0,4,4,4,1,,,,,,,,,,,,,,,,,,,,,,,,,,,,,,,,,,,,,,,,,
824160,001,2022-11-21_24h55.13.712,Info_measure_main_exp,2022.2.2,Win32,59.50255861,,,,,,,,,,,,,,,,,,,,,,,,,,,,,,5,1.942,1,,,,,,,,,,,,0,131,5,5,1974,1950,absent_patch/patch0001974.jpg,absent_patch/patch0001950.jpg,,,,,,,,,,,,,,,,,,,,0.106257861,-0.042231017,1,0,0,response3disk,30,0.013726923,0.005884967,1,0,0,center_square,0,29,29,17,1,,,,,,,,,,,,,,,,,,,,,,,
824160,001,2022-11-21_24h55.13.712,Info_measure_main_exp,2022.2.2,Win32,59.50255861,,,,,,,,,,,,,,,,,,masks/mask_001.jpg,,,,,,,,,,,,,,,,,,,,,,,,,,,,,,,,,,,,,,,,,,,0,0,0,0,1,,,,,,,,,,,,,,,,,,,,,,,,,,,,,,,,,,,,,,,,,,,,,,
824160,001,2022-11-21_24h55.13.712,Info_measure_main_exp,2022.2.2,Win32,59.50255861,,,,,,,,,,,,,,,,,,masks/mask_004.jpg,,,,,,,,,,,,,,,,,,,,,,,,,,,,,,,,,,,,,,,,,,,0,1,1,3,1,,,,,,,,,,,,,,,,,,,,,,,,,,,,,,,,,,,,,,,,,,,,,,
824160,001,2022-11-21_24h55.13.712,Info_measure_main_exp,2022.2.2,Win32,59.50255861,,,,,,,,,,,,,,,,,,masks/mask_003.jpg,,,,,,,,,,,,,,,,,,,,,,,,,,,,,,,,,,,,,,,,,,,0,2,2,2,1,,,,,,,,,,,,,,,,,,,,,,,,,,,,,,,,,,,,,,,,,,,,,,
824160,001,2022-11-21_24h55.13.712,Info_measure_main_exp,2022.2.2,Win32,59.50255861,,,,,,,,,,,,,,,,,,masks/mask_005.jpg,,,,,,,,,,,,,,,,,,,,,,,,,,,,,,,,,,,,,,,,,,,0,3,3,4,1,,,,,,,,,,,,,,,,,,,,,,,,,,,,,,,,,,,,,,,,,,,,,,
824160,001,2022-11-21_24h55.13.712,Info_measure_main_exp,2022.2.2,Win32,59.50255861,,,,,,,,,,,,,,,,,,masks/mask_002.jpg,,,,,,,,,,,,,,,,,,,,,,,,,,,,,,,,,,,,,,,,,,,0,4,4,1,1,,,,,,,,,,,,,,,,,,,,,,,,,,,,,,,,,,,,,,,,,,,,,,
824160,001,2022-11-21_24h55.13.712,Info_measure_main_exp,2022.2.2,Win32,59.50255861,,,,,,,,,,,,,,,,,,masks/mask_003.jpg,,,,,,,,,,,,,,,,,,,,,,,,,,,,,,,,,,,,,,,,,,,,,,,,0,0,0,2,1,,,,,,,,,,,,,,,,,,,,,,,,,,,,,,,,,,,,,,,,,
824160,001,2022-11-21_24h55.13.712,Info_measure_main_exp,2022.2.2,Win32,59.50255861,,,,,,,,,,,,,,,,,,masks/mask_001.jpg,,,,,,,,,,,,,,,,,,,,,,,,,,,,,,,,,,,,,,,,,,,,,,,,0,1,1,0,1,,,,,,,,,,,,,,,,,,,,,,,,,,,,,,,,,,,,,,,,,
824160,001,2022-11-21_24h55.13.712,Info_measure_main_exp,2022.2.2,Win32,59.50255861,,,,,,,,,,,,,,,,,,masks/mask_002.jpg,,,,,,,,,,,,,,,,,,,,,,,,,,,,,,,,,,,,,,,,,,,,,,,,0,2,2,1,1,,,,,,,,,,,,,,,,,,,,,,,,,,,,,,,,,,,,,,,,,
824160,001,2022-11-21_24h55.13.712,Info_measure_main_exp,2022.2.2,Win32,59.50255861,,,,,,,,,,,,,,,,,,masks/mask_004.jpg,,,,,,,,,,,,,,,,,,,,,,,,,,,,,,,,,,,,,,,,,,,,,,,,0,3,3,3,1,,,,,,,,,,,,,,,,,,,,,,,,,,,,,,,,,,,,,,,,,
824160,001,2022-11-21_24h55.13.712,Info_measure_main_exp,2022.2.2,Win32,59.50255861,,,,,,,,,,,,,,,,,,masks/mask_005.jpg,,,,,,,,,,,,,,,,,,,,,,,,,,,,,,,,,,,,,,,,,,,,,,,,0,4,4,4,1,,,,,,,,,,,,,,,,,,,,,,,,,,,,,,,,,,,,,,,,,
824160,001,2022-11-21_24h55.13.712,Info_measure_main_exp,2022.2.2,Win32,59.50255861,,,,,,,,,,,,,,,,,,,,,,,,,,,,,,7,1.3162,1,,,,,,,,,,,,0,131,5,5,2154,2190,absent_patch/patch0002154.jpg,absent_patch/patch0002190.jpg,,,,,,,,,,,,,,,,,,,,0.006324478,0.152083844,1,0,0,response1disk,31,0.003548538,0.009586238,1,0,0,center_square,0,30,30,68,1,,,,,,,,,,,,,,,,,,,,,,,
824160,001,2022-11-21_24h55.13.712,Info_measure_main_exp,2022.2.2,Win32,59.50255861,,,,,,,,,,,,,,,,,,masks/mask_004.jpg,,,,,,,,,,,,,,,,,,,,,,,,,,,,,,,,,,,,,,,,,,,0,0,0,3,1,,,,,,,,,,,,,,,,,,,,,,,,,,,,,,,,,,,,,,,,,,,,,,
824160,001,2022-11-21_24h55.13.712,Info_measure_main_exp,2022.2.2,Win32,59.50255861,,,,,,,,,,,,,,,,,,masks/mask_001.jpg,,,,,,,,,,,,,,,,,,,,,,,,,,,,,,,,,,,,,,,,,,,0,1,1,0,1,,,,,,,,,,,,,,,,,,,,,,,,,,,,,,,,,,,,,,,,,,,,,,
824160,001,2022-11-21_24h55.13.712,Info_measure_main_exp,2022.2.2,Win32,59.50255861,,,,,,,,,,,,,,,,,,masks/mask_005.jpg,,,,,,,,,,,,,,,,,,,,,,,,,,,,,,,,,,,,,,,,,,,0,2,2,4,1,,,,,,,,,,,,,,,,,,,,,,,,,,,,,,,,,,,,,,,,,,,,,,
824160,001,2022-11-21_24h55.13.712,Info_measure_main_exp,2022.2.2,Win32,59.50255861,,,,,,,,,,,,,,,,,,masks/mask_002.jpg,,,,,,,,,,,,,,,,,,,,,,,,,,,,,,,,,,,,,,,,,,,0,3,3,1,1,,,,,,,,,,,,,,,,,,,,,,,,,,,,,,,,,,,,,,,,,,,,,,
824160,001,2022-11-21_24h55.13.712,Info_measure_main_exp,2022.2.2,Win32,59.50255861,,,,,,,,,,,,,,,,,,masks/mask_003.jpg,,,,,,,,,,,,,,,,,,,,,,,,,,,,,,,,,,,,,,,,,,,0,4,4,2,1,,,,,,,,,,,,,,,,,,,,,,,,,,,,,,,,,,,,,,,,,,,,,,
824160,001,2022-11-21_24h55.13.712,Info_measure_main_exp,2022.2.2,Win32,59.50255861,,,,,,,,,,,,,,,,,,masks/mask_005.jpg,,,,,,,,,,,,,,,,,,,,,,,,,,,,,,,,,,,,,,,,,,,,,,,,0,0,0,4,1,,,,,,,,,,,,,,,,,,,,,,,,,,,,,,,,,,,,,,,,,
824160,001,2022-11-21_24h55.13.712,Info_measure_main_exp,2022.2.2,Win32,59.50255861,,,,,,,,,,,,,,,,,,masks/mask_004.jpg,,,,,,,,,,,,,,,,,,,,,,,,,,,,,,,,,,,,,,,,,,,,,,,,0,1,1,3,1,,,,,,,,,,,,,,,,,,,,,,,,,,,,,,,,,,,,,,,,,
824160,001,2022-11-21_24h55.13.712,Info_measure_main_exp,2022.2.2,Win32,59.50255861,,,,,,,,,,,,,,,,,,masks/mask_003.jpg,,,,,,,,,,,,,,,,,,,,,,,,,,,,,,,,,,,,,,,,,,,,,,,,0,2,2,2,1,,,,,,,,,,,,,,,,,,,,,,,,,,,,,,,,,,,,,,,,,
824160,001,2022-11-21_24h55.13.712,Info_measure_main_exp,2022.2.2,Win32,59.50255861,,,,,,,,,,,,,,,,,,masks/mask_002.jpg,,,,,,,,,,,,,,,,,,,,,,,,,,,,,,,,,,,,,,,,,,,,,,,,0,3,3,1,1,,,,,,,,,,,,,,,,,,,,,,,,,,,,,,,,,,,,,,,,,
824160,001,2022-11-21_24h55.13.712,Info_measure_main_exp,2022.2.2,Win32,59.50255861,,,,,,,,,,,,,,,,,,masks/mask_001.jpg,,,,,,,,,,,,,,,,,,,,,,,,,,,,,,,,,,,,,,,,,,,,,,,,0,4,4,0,1,,,,,,,,,,,,,,,,,,,,,,,,,,,,,,,,,,,,,,,,,
824160,001,2022-11-21_24h55.13.712,Info_measure_main_exp,2022.2.2,Win32,59.50255861,,,,,,,,,,,,,,,,,,,,,,,,,,,,,,7,0.5003,1,,,,,,,,,,,,0,131,5,5,2250,1950,absent_patch/patch0002250.jpg,absent_patch/patch0001950.jpg,,,,,,,,,,,,,,,,,,,,0.03038247,0.121548616,1,0,0,response1disk,32,-0.005704566,0.009586238,1,0,0,center_square,0,31,31,16,1,,,,,,,,,,,,,,,,,,,,,,,
824160,001,2022-11-21_24h55.13.712,Info_measure_main_exp,2022.2.2,Win32,59.50255861,,,,,,,,,,,,,,,,,,masks/mask_002.jpg,,,,,,,,,,,,,,,,,,,,,,,,,,,,,,,,,,,,,,,,,,,0,0,0,1,1,,,,,,,,,,,,,,,,,,,,,,,,,,,,,,,,,,,,,,,,,,,,,,
824160,001,2022-11-21_24h55.13.712,Info_measure_main_exp,2022.2.2,Win32,59.50255861,,,,,,,,,,,,,,,,,,masks/mask_004.jpg,,,,,,,,,,,,,,,,,,,,,,,,,,,,,,,,,,,,,,,,,,,0,1,1,3,1,,,,,,,,,,,,,,,,,,,,,,,,,,,,,,,,,,,,,,,,,,,,,,
824160,001,2022-11-21_24h55.13.712,Info_measure_main_exp,2022.2.2,Win32,59.50255861,,,,,,,,,,,,,,,,,,masks/mask_005.jpg,,,,,,,,,,,,,,,,,,,,,,,,,,,,,,,,,,,,,,,,,,,0,2,2,4,1,,,,,,,,,,,,,,,,,,,,,,,,,,,,,,,,,,,,,,,,,,,,,,
824160,001,2022-11-21_24h55.13.712,Info_measure_main_exp,2022.2.2,Win32,59.50255861,,,,,,,,,,,,,,,,,,masks/mask_003.jpg,,,,,,,,,,,,,,,,,,,,,,,,,,,,,,,,,,,,,,,,,,,0,3,3,2,1,,,,,,,,,,,,,,,,,,,,,,,,,,,,,,,,,,,,,,,,,,,,,,
824160,001,2022-11-21_24h55.13.712,Info_measure_main_exp,2022.2.2,Win32,59.50255861,,,,,,,,,,,,,,,,,,masks/mask_001.jpg,,,,,,,,,,,,,,,,,,,,,,,,,,,,,,,,,,,,,,,,,,,0,4,4,0,1,,,,,,,,,,,,,,,,,,,,,,,,,,,,,,,,,,,,,,,,,,,,,,
824160,001,2022-11-21_24h55.13.712,Info_measure_main_exp,2022.2.2,Win32,59.50255861,,,,,,,,,,,,,,,,,,masks/mask_004.jpg,,,,,,,,,,,,,,,,,,,,,,,,,,,,,,,,,,,,,,,,,,,,,,,,0,0,0,3,1,,,,,,,,,,,,,,,,,,,,,,,,,,,,,,,,,,,,,,,,,
824160,001,2022-11-21_24h55.13.712,Info_measure_main_exp,2022.2.2,Win32,59.50255861,,,,,,,,,,,,,,,,,,masks/mask_002.jpg,,,,,,,,,,,,,,,,,,,,,,,,,,,,,,,,,,,,,,,,,,,,,,,,0,1,1,1,1,,,,,,,,,,,,,,,,,,,,,,,,,,,,,,,,,,,,,,,,,
824160,001,2022-11-21_24h55.13.712,Info_measure_main_exp,2022.2.2,Win32,59.50255861,,,,,,,,,,,,,,,,,,masks/mask_005.jpg,,,,,,,,,,,,,,,,,,,,,,,,,,,,,,,,,,,,,,,,,,,,,,,,0,2,2,4,1,,,,,,,,,,,,,,,,,,,,,,,,,,,,,,,,,,,,,,,,,
824160,001,2022-11-21_24h55.13.712,Info_measure_main_exp,2022.2.2,Win32,59.50255861,,,,,,,,,,,,,,,,,,masks/mask_001.jpg,,,,,,,,,,,,,,,,,,,,,,,,,,,,,,,,,,,,,,,,,,,,,,,,0,3,3,0,1,,,,,,,,,,,,,,,,,,,,,,,,,,,,,,,,,,,,,,,,,
824160,001,2022-11-21_24h55.13.712,Info_measure_main_exp,2022.2.2,Win32,59.50255861,,,,,,,,,,,,,,,,,,masks/mask_003.jpg,,,,,,,,,,,,,,,,,,,,,,,,,,,,,,,,,,,,,,,,,,,,,,,,0,4,4,2,1,,,,,,,,,,,,,,,,,,,,,,,,,,,,,,,,,,,,,,,,,
824160,001,2022-11-21_24h55.13.712,Info_measure_main_exp,2022.2.2,Win32,59.50255861,,,,,,,,,,,,,,,,,,,,,,,,,,,,,,0,0.592,1,,,,,,,,,,,,0,131,5,5,2298,2298,absent_patch/patch0002298.jpg,absent_patch/patch0002298.jpg,,,,,,,,,,,,,,,,,,,,-0.036239721,0.157635725,1,0,0,response7disk,33,0.000772597,0.001258512,1,0,0,center_square,0,32,32,37,1,,,,,,,,,,,,,,,,,,,,,,,
824160,001,2022-11-21_24h55.13.712,Info_measure_main_exp,2022.2.2,Win32,59.50255861,,,,,,,,,,,,,,,,,,masks/mask_005.jpg,,,,,,,,,,,,,,,,,,,,,,,,,,,,,,,,,,,,,,,,,,,0,0,0,4,1,,,,,,,,,,,,,,,,,,,,,,,,,,,,,,,,,,,,,,,,,,,,,,
824160,001,2022-11-21_24h55.13.712,Info_measure_main_exp,2022.2.2,Win32,59.50255861,,,,,,,,,,,,,,,,,,masks/mask_003.jpg,,,,,,,,,,,,,,,,,,,,,,,,,,,,,,,,,,,,,,,,,,,0,1,1,2,1,,,,,,,,,,,,,,,,,,,,,,,,,,,,,,,,,,,,,,,,,,,,,,
824160,001,2022-11-21_24h55.13.712,Info_measure_main_exp,2022.2.2,Win32,59.50255861,,,,,,,,,,,,,,,,,,masks/mask_001.jpg,,,,,,,,,,,,,,,,,,,,,,,,,,,,,,,,,,,,,,,,,,,0,2,2,0,1,,,,,,,,,,,,,,,,,,,,,,,,,,,,,,,,,,,,,,,,,,,,,,
824160,001,2022-11-21_24h55.13.712,Info_measure_main_exp,2022.2.2,Win32,59.50255861,,,,,,,,,,,,,,,,,,masks/mask_004.jpg,,,,,,,,,,,,,,,,,,,,,,,,,,,,,,,,,,,,,,,,,,,0,3,3,3,1,,,,,,,,,,,,,,,,,,,,,,,,,,,,,,,,,,,,,,,,,,,,,,
824160,001,2022-11-21_24h55.13.712,Info_measure_main_exp,2022.2.2,Win32,59.50255861,,,,,,,,,,,,,,,,,,masks/mask_002.jpg,,,,,,,,,,,,,,,,,,,,,,,,,,,,,,,,,,,,,,,,,,,0,4,4,1,1,,,,,,,,,,,,,,,,,,,,,,,,,,,,,,,,,,,,,,,,,,,,,,
824160,001,2022-11-21_24h55.13.712,Info_measure_main_exp,2022.2.2,Win32,59.50255861,,,,,,,,,,,,,,,,,,masks/mask_003.jpg,,,,,,,,,,,,,,,,,,,,,,,,,,,,,,,,,,,,,,,,,,,,,,,,0,0,0,2,1,,,,,,,,,,,,,,,,,,,,,,,,,,,,,,,,,,,,,,,,,
824160,001,2022-11-21_24h55.13.712,Info_measure_main_exp,2022.2.2,Win32,59.50255861,,,,,,,,,,,,,,,,,,masks/mask_002.jpg,,,,,,,,,,,,,,,,,,,,,,,,,,,,,,,,,,,,,,,,,,,,,,,,0,1,1,1,1,,,,,,,,,,,,,,,,,,,,,,,,,,,,,,,,,,,,,,,,,
824160,001,2022-11-21_24h55.13.712,Info_measure_main_exp,2022.2.2,Win32,59.50255861,,,,,,,,,,,,,,,,,,masks/mask_005.jpg,,,,,,,,,,,,,,,,,,,,,,,,,,,,,,,,,,,,,,,,,,,,,,,,0,2,2,4,1,,,,,,,,,,,,,,,,,,,,,,,,,,,,,,,,,,,,,,,,,
824160,001,2022-11-21_24h55.13.712,Info_measure_main_exp,2022.2.2,Win32,59.50255861,,,,,,,,,,,,,,,,,,masks/mask_001.jpg,,,,,,,,,,,,,,,,,,,,,,,,,,,,,,,,,,,,,,,,,,,,,,,,0,3,3,0,1,,,,,,,,,,,,,,,,,,,,,,,,,,,,,,,,,,,,,,,,,
824160,001,2022-11-21_24h55.13.712,Info_measure_main_exp,2022.2.2,Win32,59.50255861,,,,,,,,,,,,,,,,,,masks/mask_004.jpg,,,,,,,,,,,,,,,,,,,,,,,,,,,,,,,,,,,,,,,,,,,,,,,,0,4,4,3,1,,,,,,,,,,,,,,,,,,,,,,,,,,,,,,,,,,,,,,,,,
824160,001,2022-11-21_24h55.13.712,Info_measure_main_exp,2022.2.2,Win32,59.50255861,,,,,,,,,,,,,,,,,,,,,,,,,,,,,,7,0.5665,1,,,,,,,,,,,,1,131,5,5,1950,1,absent_patch/patch0001950.jpg,present_patch/cong_131_5_a.jpg,,,,,,,,,,,,,,,,,,,,0.02760653,0.149307879,1,0,0,response1disk,34,0.00724976,0.005884967,1,0,0,center_square,0,33,33,39,1,,,,,,,,,,,,,,,,,,,,,,,
824160,001,2022-11-21_24h55.13.712,Info_measure_main_exp,2022.2.2,Win32,59.50255861,,,,,,,,,,,,,,,,,,masks/mask_001.jpg,,,,,,,,,,,,,,,,,,,,,,,,,,,,,,,,,,,,,,,,,,,0,0,0,0,1,,,,,,,,,,,,,,,,,,,,,,,,,,,,,,,,,,,,,,,,,,,,,,
824160,001,2022-11-21_24h55.13.712,Info_measure_main_exp,2022.2.2,Win32,59.50255861,,,,,,,,,,,,,,,,,,masks/mask_005.jpg,,,,,,,,,,,,,,,,,,,,,,,,,,,,,,,,,,,,,,,,,,,0,1,1,4,1,,,,,,,,,,,,,,,,,,,,,,,,,,,,,,,,,,,,,,,,,,,,,,
824160,001,2022-11-21_24h55.13.712,Info_measure_main_exp,2022.2.2,Win32,59.50255861,,,,,,,,,,,,,,,,,,masks/mask_004.jpg,,,,,,,,,,,,,,,,,,,,,,,,,,,,,,,,,,,,,,,,,,,0,2,2,3,1,,,,,,,,,,,,,,,,,,,,,,,,,,,,,,,,,,,,,,,,,,,,,,
824160,001,2022-11-21_24h55.13.712,Info_measure_main_exp,2022.2.2,Win32,59.50255861,,,,,,,,,,,,,,,,,,masks/mask_003.jpg,,,,,,,,,,,,,,,,,,,,,,,,,,,,,,,,,,,,,,,,,,,0,3,3,2,1,,,,,,,,,,,,,,,,,,,,,,,,,,,,,,,,,,,,,,,,,,,,,,
824160,001,2022-11-21_24h55.13.712,Info_measure_main_exp,2022.2.2,Win32,59.50255861,,,,,,,,,,,,,,,,,,masks/mask_002.jpg,,,,,,,,,,,,,,,,,,,,,,,,,,,,,,,,,,,,,,,,,,,0,4,4,1,1,,,,,,,,,,,,,,,,,,,,,,,,,,,,,,,,,,,,,,,,,,,,,,
824160,001,2022-11-21_24h55.13.712,Info_measure_main_exp,2022.2.2,Win32,59.50255861,,,,,,,,,,,,,,,,,,masks/mask_004.jpg,,,,,,,,,,,,,,,,,,,,,,,,,,,,,,,,,,,,,,,,,,,,,,,,0,0,0,3,1,,,,,,,,,,,,,,,,,,,,,,,,,,,,,,,,,,,,,,,,,
824160,001,2022-11-21_24h55.13.712,Info_measure_main_exp,2022.2.2,Win32,59.50255861,,,,,,,,,,,,,,,,,,masks/mask_002.jpg,,,,,,,,,,,,,,,,,,,,,,,,,,,,,,,,,,,,,,,,,,,,,,,,0,1,1,1,1,,,,,,,,,,,,,,,,,,,,,,,,,,,,,,,,,,,,,,,,,
824160,001,2022-11-21_24h55.13.712,Info_measure_main_exp,2022.2.2,Win32,59.50255861,,,,,,,,,,,,,,,,,,masks/mask_001.jpg,,,,,,,,,,,,,,,,,,,,,,,,,,,,,,,,,,,,,,,,,,,,,,,,0,2,2,0,1,,,,,,,,,,,,,,,,,,,,,,,,,,,,,,,,,,,,,,,,,
824160,001,2022-11-21_24h55.13.712,Info_measure_main_exp,2022.2.2,Win32,59.50255861,,,,,,,,,,,,,,,,,,masks/mask_005.jpg,,,,,,,,,,,,,,,,,,,,,,,,,,,,,,,,,,,,,,,,,,,,,,,,0,3,3,4,1,,,,,,,,,,,,,,,,,,,,,,,,,,,,,,,,,,,,,,,,,
