participant,session,date,expName,psychopyVersion,OS,frameRate,space_press_continue.keys,space_press_continue.rt,space_press_continue_2.keys,space_press_continue_2.rt,space_press_continue_3.keys,space_press_continue_3.rt,space_press_continue_4.keys,space_press_continue_4.rt,space_press_continue_5.keys,space_press_continue_5.rt,space_press_continue_6.keys,space_press_continue_6.rt,prac_mask_loop_1.thisRepN,prac_mask_loop_1.thisTrialN,prac_mask_loop_1.thisN,prac_mask_loop_1.thisIndex,prac_mask_loop_1.ran,mask_name,prac_mask_loop_2.thisRepN,prac_mask_loop_2.thisTrialN,prac_mask_loop_2.thisN,prac_mask_loop_2.thisIndex,prac_mask_loop_2.ran,mouse_2.x,mouse_2.y,mouse_2.leftButton,mouse_2.midButton,mouse_2.rightButton,mouse_2.clicked_name,similarity,response_time,Pass,mouse_12.x,mouse_12.y,mouse_12.leftButton,mouse_12.midButton,mouse_12.rightButton,mouse_12.clicked_name,prac_loop.thisRepN,prac_loop.thisTrialN,prac_loop.thisN,prac_loop.thisIndex,prac_loop.ran,Pair_type,Image_num,Patch_1_loc,Patch_2_loc,Patch_1_info,Patch_2_info,Patch_1_name,Patch_2_name,mouse_1.x,mouse_1.y,mouse_1.leftButton,mouse_1.midButton,mouse_1.rightButton,mouse_1.time,mouse_1.clicked_name,space_press_continue_7.keys,space_press_continue_7.rt,mask_loop.thisRepN,mask_loop.thisTrialN,mask_loop.thisN,mask_loop.thisIndex,mask_loop.ran,mask_loop_2.thisRepN,mask_loop_2.thisTrialN,mask_loop_2.thisN,mask_loop_2.thisIndex,mask_loop_2.ran,mouse.x,mouse.y,mouse.leftButton,mouse.midButton,mouse.rightButton,mouse.clicked_name,trialNumber,mouse_11.x,mouse_11.y,mouse_11.leftButton,mouse_11.midButton,mouse_11.rightButton,mouse_11.clicked_name,first_pass_loop.thisRepN,first_pass_loop.thisTrialN,first_pass_loop.thisN,first_pass_loop.thisIndex,first_pass_loop.ran,mask_loop_3.thisRepN,mask_loop_3.thisTrialN,mask_loop_3.thisN,mask_loop_3.thisIndex,mask_loop_3.ran,mask_loop_4.thisRepN,mask_loop_4.thisTrialN,mask_loop_4.thisN,mask_loop_4.thisIndex,mask_loop_4.ran,mouse_3.x,mouse_3.y,mouse_3.leftButton,mouse_3.midButton,mouse_3.rightButton,mouse_3.clicked_name,double_pass_loop.thisRepN,double_pass_loop.thisTrialN,double_pass_loop.thisN,double_pass_loop.thisIndex,double_pass_loop.ran,space_exit.keys,space_exit.rt
829219,001,2022-11-20_23h55.16.924,Info_measure_main_exp,2022.2.2,Win32,60.07810153,,,,,,,,,,,,,,,,,,,,,,,,,,,,,,,,,,,,,,,,,,,,,,,,,,,,,,,,,,,,,,,,,,,,,,,,,,,,,,,,,,,,,,,,,,,,,,,,,,,,,,,,,,,,,,,
829219,001,2022-11-20_23h55.16.924,Info_measure_main_exp,2022.2.2,Win32,60.07810153,,,,,,,,,,,,,,,,,,,,,,,,,,,,,,,,,,,,,,,,,,,,,,,,,,,,,,,,,,,,,,,,,,,,,,,,,,,,,,,,,,,,,,,,,,,,,,,,,,,,,,,,,,,,,,,
829219,001,2022-11-20_23h55.16.924,Info_measure_main_exp,2022.2.2,Win32,60.07810153,space,11.7373,,,,,,,,,,,,,,,,,,,,,,,,,,,,,,,,,,,,,,,,,,,,,,,,,,,,,,,,,,,,,,,,,,,,,,,,,,,,,,,,,,,,,,,,,,,,,,,,,,,,,,,,,,,,,
829219,001,2022-11-20_23h55.16.924,Info_measure_main_exp,2022.2.2,Win32,60.07810153,,,space,15.8762,,,,,,,,,,,,,,,,,,,,,,,,,,,,,,,,,,,,,,,,,,,,,,,,,,,,,,,,,,,,,,,,,,,,,,,,,,,,,,,,,,,,,,,,,,,,,,,,,,,,,,,,,,,
829219,001,2022-11-20_23h55.16.924,Info_measure_main_exp,2022.2.2,Win32,60.07810153,,,,,space,9.5876,,,,,,,,,,,,,,,,,,,,,,,,,,,,,,,,,,,,,,,,,,,,,,,,,,,,,,,,,,,,,,,,,,,,,,,,,,,,,,,,,,,,,,,,,,,,,,,,,,,,,,,,,
829219,001,2022-11-20_23h55.16.924,Info_measure_main_exp,2022.2.2,Win32,60.07810153,,,,,,,space,29.1783,,,,,,,,,,,,,,,,,,,,,,,,,,,,,,,,,,,,,,,,,,,,,,,,,,,,,,,,,,,,,,,,,,,,,,,,,,,,,,,,,,,,,,,,,,,,,,,,,,,,,,,
829219,001,2022-11-20_23h55.16.924,Info_measure_main_exp,2022.2.2,Win32,60.07810153,,,,,,,,,space,26.9657,,,,,,,,,,,,,,,,,,,,,,,,,,,,,,,,,,,,,,,,,,,,,,,,,,,,,,,,,,,,,,,,,,,,,,,,,,,,,,,,,,,,,,,,,,,,,,,,,,,,,
829219,001,2022-11-20_23h55.16.924,Info_measure_main_exp,2022.2.2,Win32,60.07810153,,,,,,,,,,,space,9.4203,,,,,,,,,,,,,,,,,,,,,,,,,,,,,,,,,,,,,,,,,,,,,,,,,,,,,,,,,,,,,,,,,,,,,,,,,,,,,,,,,,,,,,,,,,,,,,,,,,,
829219,001,2022-11-20_23h55.16.924,Info_measure_main_exp,2022.2.2,Win32,60.07810153,,,,,,,,,,,,,0,0,0,3,1,masks/mask_004.jpg,,,,,,,,,,,,,,,,,,,,,,,,,,,,,,,,,,,,,,,,,,,,,,,,,,,,,,,,,,,,,,,,,,,,,,,,,,,,,,,,,,,,,,,,,,,,,
829219,001,2022-11-20_23h55.16.924,Info_measure_main_exp,2022.2.2,Win32,60.07810153,,,,,,,,,,,,,0,1,1,0,1,masks/mask_001.jpg,,,,,,,,,,,,,,,,,,,,,,,,,,,,,,,,,,,,,,,,,,,,,,,,,,,,,,,,,,,,,,,,,,,,,,,,,,,,,,,,,,,,,,,,,,,,,
829219,001,2022-11-20_23h55.16.924,Info_measure_main_exp,2022.2.2,Win32,60.07810153,,,,,,,,,,,,,0,2,2,4,1,masks/mask_005.jpg,,,,,,,,,,,,,,,,,,,,,,,,,,,,,,,,,,,,,,,,,,,,,,,,,,,,,,,,,,,,,,,,,,,,,,,,,,,,,,,,,,,,,,,,,,,,,
829219,001,2022-11-20_23h55.16.924,Info_measure_main_exp,2022.2.2,Win32,60.07810153,,,,,,,,,,,,,0,3,3,2,1,masks/mask_003.jpg,,,,,,,,,,,,,,,,,,,,,,,,,,,,,,,,,,,,,,,,,,,,,,,,,,,,,,,,,,,,,,,,,,,,,,,,,,,,,,,,,,,,,,,,,,,,,
829219,001,2022-11-20_23h55.16.924,Info_measure_main_exp,2022.2.2,Win32,60.07810153,,,,,,,,,,,,,0,4,4,1,1,masks/mask_002.jpg,,,,,,,,,,,,,,,,,,,,,,,,,,,,,,,,,,,,,,,,,,,,,,,,,,,,,,,,,,,,,,,,,,,,,,,,,,,,,,,,,,,,,,,,,,,,,
829219,001,2022-11-20_23h55.16.924,Info_measure_main_exp,2022.2.2,Win32,60.07810153,,,,,,,,,,,,,,,,,,masks/mask_005.jpg,0,0,0,4,1,,,,,,,,,,,,,,,,,,,,,,,,,,,,,,,,,,,,,,,,,,,,,,,,,,,,,,,,,,,,,,,,,,,,,,,,,,,,,,,,,,,,,,,,
829219,001,2022-11-20_23h55.16.924,Info_measure_main_exp,2022.2.2,Win32,60.07810153,,,,,,,,,,,,,,,,,,masks/mask_004.jpg,0,1,1,3,1,,,,,,,,,,,,,,,,,,,,,,,,,,,,,,,,,,,,,,,,,,,,,,,,,,,,,,,,,,,,,,,,,,,,,,,,,,,,,,,,,,,,,,,,
829219,001,2022-11-20_23h55.16.924,Info_measure_main_exp,2022.2.2,Win32,60.07810153,,,,,,,,,,,,,,,,,,masks/mask_001.jpg,0,2,2,0,1,,,,,,,,,,,,,,,,,,,,,,,,,,,,,,,,,,,,,,,,,,,,,,,,,,,,,,,,,,,,,,,,,,,,,,,,,,,,,,,,,,,,,,,,
829219,001,2022-11-20_23h55.16.924,Info_measure_main_exp,2022.2.2,Win32,60.07810153,,,,,,,,,,,,,,,,,,masks/mask_002.jpg,0,3,3,1,1,,,,,,,,,,,,,,,,,,,,,,,,,,,,,,,,,,,,,,,,,,,,,,,,,,,,,,,,,,,,,,,,,,,,,,,,,,,,,,,,,,,,,,,,
829219,001,2022-11-20_23h55.16.924,Info_measure_main_exp,2022.2.2,Win32,60.07810153,,,,,,,,,,,,,,,,,,masks/mask_003.jpg,0,4,4,2,1,,,,,,,,,,,,,,,,,,,,,,,,,,,,,,,,,,,,,,,,,,,,,,,,,,,,,,,,,,,,,,,,,,,,,,,,,,,,,,,,,,,,,,,,
829219,001,2022-11-20_23h55.16.924,Info_measure_main_exp,2022.2.2,Win32,60.07810153,,,,,,,,,,,,,,,,,,,,,,,,-0.124074088,-0.026851866,1,0,0,response5disk,2,110.5395,1,-0.009259259,0.001851859,1,0,0,center_square,0,0,0,2,1,0,131,5,5,2526,2526,prac_patch/patch0002526.jpg,prac_patch/patch0002526.jpg,,,,,,,,,,,,,,,,,,,,,,,,,,,,,,,,,,,,,,,,,,,,,,,,,,,,,,,,,,,,
829219,001,2022-11-20_23h55.16.924,Info_measure_main_exp,2022.2.2,Win32,60.07810153,,,,,,,,,,,,,0,0,0,2,1,masks/mask_003.jpg,,,,,,,,,,,,,,,,,,,,,,,,,,,,,,,,,,,,,,,,,,,,,,,,,,,,,,,,,,,,,,,,,,,,,,,,,,,,,,,,,,,,,,,,,,,,,
829219,001,2022-11-20_23h55.16.924,Info_measure_main_exp,2022.2.2,Win32,60.07810153,,,,,,,,,,,,,0,1,1,3,1,masks/mask_004.jpg,,,,,,,,,,,,,,,,,,,,,,,,,,,,,,,,,,,,,,,,,,,,,,,,,,,,,,,,,,,,,,,,,,,,,,,,,,,,,,,,,,,,,,,,,,,,,
829219,001,2022-11-20_23h55.16.924,Info_measure_main_exp,2022.2.2,Win32,60.07810153,,,,,,,,,,,,,0,2,2,0,1,masks/mask_001.jpg,,,,,,,,,,,,,,,,,,,,,,,,,,,,,,,,,,,,,,,,,,,,,,,,,,,,,,,,,,,,,,,,,,,,,,,,,,,,,,,,,,,,,,,,,,,,,
829219,001,2022-11-20_23h55.16.924,Info_measure_main_exp,2022.2.2,Win32,60.07810153,,,,,,,,,,,,,0,3,3,4,1,masks/mask_005.jpg,,,,,,,,,,,,,,,,,,,,,,,,,,,,,,,,,,,,,,,,,,,,,,,,,,,,,,,,,,,,,,,,,,,,,,,,,,,,,,,,,,,,,,,,,,,,,
829219,001,2022-11-20_23h55.16.924,Info_measure_main_exp,2022.2.2,Win32,60.07810153,,,,,,,,,,,,,0,4,4,1,1,masks/mask_002.jpg,,,,,,,,,,,,,,,,,,,,,,,,,,,,,,,,,,,,,,,,,,,,,,,,,,,,,,,,,,,,,,,,,,,,,,,,,,,,,,,,,,,,,,,,,,,,,
829219,001,2022-11-20_23h55.16.924,Info_measure_main_exp,2022.2.2,Win32,60.07810153,,,,,,,,,,,,,,,,,,masks/mask_004.jpg,0,0,0,3,1,,,,,,,,,,,,,,,,,,,,,,,,,,,,,,,,,,,,,,,,,,,,,,,,,,,,,,,,,,,,,,,,,,,,,,,,,,,,,,,,,,,,,,,,
829219,001,2022-11-20_23h55.16.924,Info_measure_main_exp,2022.2.2,Win32,60.07810153,,,,,,,,,,,,,,,,,,masks/mask_005.jpg,0,1,1,4,1,,,,,,,,,,,,,,,,,,,,,,,,,,,,,,,,,,,,,,,,,,,,,,,,,,,,,,,,,,,,,,,,,,,,,,,,,,,,,,,,,,,,,,,,
829219,001,2022-11-20_23h55.16.924,Info_measure_main_exp,2022.2.2,Win32,60.07810153,,,,,,,,,,,,,,,,,,masks/mask_003.jpg,0,2,2,2,1,,,,,,,,,,,,,,,,,,,,,,,,,,,,,,,,,,,,,,,,,,,,,,,,,,,,,,,,,,,,,,,,,,,,,,,,,,,,,,,,,,,,,,,,
829219,001,2022-11-20_23h55.16.924,Info_measure_main_exp,2022.2.2,Win32,60.07810153,,,,,,,,,,,,,,,,,,masks/mask_002.jpg,0,3,3,1,1,,,,,,,,,,,,,,,,,,,,,,,,,,,,,,,,,,,,,,,,,,,,,,,,,,,,,,,,,,,,,,,,,,,,,,,,,,,,,,,,,,,,,,,,
829219,001,2022-11-20_23h55.16.924,Info_measure_main_exp,2022.2.2,Win32,60.07810153,,,,,,,,,,,,,,,,,,masks/mask_001.jpg,0,4,4,0,1,,,,,,,,,,,,,,,,,,,,,,,,,,,,,,,,,,,,,,,,,,,,,,,,,,,,,,,,,,,,,,,,,,,,,,,,,,,,,,,,,,,,,,,,
829219,001,2022-11-20_23h55.16.924,Info_measure_main_exp,2022.2.2,Win32,60.07810153,,,,,,,,,,,,,,,,,,,,,,,,0.047222208,0.107407393,1,0,0,response1disk,7,126.1775,1,0.006481524,0.006481489,1,0,0,center_square,0,1,1,0,1,0,131,5,5,2370,2406,prac_patch/patch0002370.jpg,prac_patch/patch0002406.jpg,,,,,,,,,,,,,,,,,,,,,,,,,,,,,,,,,,,,,,,,,,,,,,,,,,,,,,,,,,,,
829219,001,2022-11-20_23h55.16.924,Info_measure_main_exp,2022.2.2,Win32,60.07810153,,,,,,,,,,,,,0,0,0,3,1,masks/mask_004.jpg,,,,,,,,,,,,,,,,,,,,,,,,,,,,,,,,,,,,,,,,,,,,,,,,,,,,,,,,,,,,,,,,,,,,,,,,,,,,,,,,,,,,,,,,,,,,,
829219,001,2022-11-20_23h55.16.924,Info_measure_main_exp,2022.2.2,Win32,60.07810153,,,,,,,,,,,,,0,1,1,2,1,masks/mask_003.jpg,,,,,,,,,,,,,,,,,,,,,,,,,,,,,,,,,,,,,,,,,,,,,,,,,,,,,,,,,,,,,,,,,,,,,,,,,,,,,,,,,,,,,,,,,,,,,
829219,001,2022-11-20_23h55.16.924,Info_measure_main_exp,2022.2.2,Win32,60.07810153,,,,,,,,,,,,,0,2,2,0,1,masks/mask_001.jpg,,,,,,,,,,,,,,,,,,,,,,,,,,,,,,,,,,,,,,,,,,,,,,,,,,,,,,,,,,,,,,,,,,,,,,,,,,,,,,,,,,,,,,,,,,,,,
829219,001,2022-11-20_23h55.16.924,Info_measure_main_exp,2022.2.2,Win32,60.07810153,,,,,,,,,,,,,0,3,3,1,1,masks/mask_002.jpg,,,,,,,,,,,,,,,,,,,,,,,,,,,,,,,,,,,,,,,,,,,,,,,,,,,,,,,,,,,,,,,,,,,,,,,,,,,,,,,,,,,,,,,,,,,,,
829219,001,2022-11-20_23h55.16.924,Info_measure_main_exp,2022.2.2,Win32,60.07810153,,,,,,,,,,,,,0,4,4,4,1,masks/mask_005.jpg,,,,,,,,,,,,,,,,,,,,,,,,,,,,,,,,,,,,,,,,,,,,,,,,,,,,,,,,,,,,,,,,,,,,,,,,,,,,,,,,,,,,,,,,,,,,,
829219,001,2022-11-20_23h55.16.924,Info_measure_main_exp,2022.2.2,Win32,60.07810153,,,,,,,,,,,,,,,,,,masks/mask_005.jpg,0,0,0,4,1,,,,,,,,,,,,,,,,,,,,,,,,,,,,,,,,,,,,,,,,,,,,,,,,,,,,,,,,,,,,,,,,,,,,,,,,,,,,,,,,,,,,,,,,
829219,001,2022-11-20_23h55.16.924,Info_measure_main_exp,2022.2.2,Win32,60.07810153,,,,,,,,,,,,,,,,,,masks/mask_004.jpg,0,1,1,3,1,,,,,,,,,,,,,,,,,,,,,,,,,,,,,,,,,,,,,,,,,,,,,,,,,,,,,,,,,,,,,,,,,,,,,,,,,,,,,,,,,,,,,,,,
829219,001,2022-11-20_23h55.16.924,Info_measure_main_exp,2022.2.2,Win32,60.07810153,,,,,,,,,,,,,,,,,,masks/mask_001.jpg,0,2,2,0,1,,,,,,,,,,,,,,,,,,,,,,,,,,,,,,,,,,,,,,,,,,,,,,,,,,,,,,,,,,,,,,,,,,,,,,,,,,,,,,,,,,,,,,,,
829219,001,2022-11-20_23h55.16.924,Info_measure_main_exp,2022.2.2,Win32,60.07810153,,,,,,,,,,,,,,,,,,masks/mask_002.jpg,0,3,3,1,1,,,,,,,,,,,,,,,,,,,,,,,,,,,,,,,,,,,,,,,,,,,,,,,,,,,,,,,,,,,,,,,,,,,,,,,,,,,,,,,,,,,,,,,,
829219,001,2022-11-20_23h55.16.924,Info_measure_main_exp,2022.2.2,Win32,60.07810153,,,,,,,,,,,,,,,,,,masks/mask_003.jpg,0,4,4,2,1,,,,,,,,,,,,,,,,,,,,,,,,,,,,,,,,,,,,,,,,,,,,,,,,,,,,,,,,,,,,,,,,,,,,,,,,,,,,,,,,,,,,,,,,
829219,001,2022-11-20_23h55.16.924,Info_measure_main_exp,2022.2.2,Win32,60.07810153,,,,,,,,,,,,,,,,,,,,,,,,0.054629644,0.107407393,1,0,0,response1disk,7,137.9969,1,-0.007407365,-0.00462963,1,0,0,center_square,0,2,2,1,1,0,131,5,5,2514,2490,prac_patch/patch0002514.jpg,prac_patch/patch0002490.jpg,,,,,,,,,,,,,,,,,,,,,,,,,,,,,,,,,,,,,,,,,,,,,,,,,,,,,,,,,,,,
829219,001,2022-11-20_23h55.16.924,Info_measure_main_exp,2022.2.2,Win32,60.07810153,,,,,,,,,,,,,,,,,,,,,,,,,,,,,,,,,,,,,,,,,,,,,,,,,,,,,,,,,,,space,7.2133,,,,,,,,,,,,,,,,,,,,,,,,,,,,,,,,,,,,,,,,,,,,,,,,,,,
829219,001,2022-11-20_23h55.16.924,Info_measure_main_exp,2022.2.2,Win32,60.07810153,,,,,,,,,,,,,,,,,,masks/mask_004.jpg,,,,,,,,,,,,,,,,,,,,,,,,,,,,,,,,,,,,,,,,,,,0,0,0,3,1,,,,,,,,,,,,,,,,,,,,,,,,,,,,,,,,,,,,,,,,,,,,,,
829219,001,2022-11-20_23h55.16.924,Info_measure_main_exp,2022.2.2,Win32,60.07810153,,,,,,,,,,,,,,,,,,masks/mask_002.jpg,,,,,,,,,,,,,,,,,,,,,,,,,,,,,,,,,,,,,,,,,,,0,1,1,1,1,,,,,,,,,,,,,,,,,,,,,,,,,,,,,,,,,,,,,,,,,,,,,,
829219,001,2022-11-20_23h55.16.924,Info_measure_main_exp,2022.2.2,Win32,60.07810153,,,,,,,,,,,,,,,,,,masks/mask_005.jpg,,,,,,,,,,,,,,,,,,,,,,,,,,,,,,,,,,,,,,,,,,,0,2,2,4,1,,,,,,,,,,,,,,,,,,,,,,,,,,,,,,,,,,,,,,,,,,,,,,
829219,001,2022-11-20_23h55.16.924,Info_measure_main_exp,2022.2.2,Win32,60.07810153,,,,,,,,,,,,,,,,,,masks/mask_003.jpg,,,,,,,,,,,,,,,,,,,,,,,,,,,,,,,,,,,,,,,,,,,0,3,3,2,1,,,,,,,,,,,,,,,,,,,,,,,,,,,,,,,,,,,,,,,,,,,,,,
829219,001,2022-11-20_23h55.16.924,Info_measure_main_exp,2022.2.2,Win32,60.07810153,,,,,,,,,,,,,,,,,,masks/mask_001.jpg,,,,,,,,,,,,,,,,,,,,,,,,,,,,,,,,,,,,,,,,,,,0,4,4,0,1,,,,,,,,,,,,,,,,,,,,,,,,,,,,,,,,,,,,,,,,,,,,,,
829219,001,2022-11-20_23h55.16.924,Info_measure_main_exp,2022.2.2,Win32,60.07810153,,,,,,,,,,,,,,,,,,masks/mask_002.jpg,,,,,,,,,,,,,,,,,,,,,,,,,,,,,,,,,,,,,,,,,,,,,,,,0,0,0,1,1,,,,,,,,,,,,,,,,,,,,,,,,,,,,,,,,,,,,,,,,,
829219,001,2022-11-20_23h55.16.924,Info_measure_main_exp,2022.2.2,Win32,60.07810153,,,,,,,,,,,,,,,,,,masks/mask_005.jpg,,,,,,,,,,,,,,,,,,,,,,,,,,,,,,,,,,,,,,,,,,,,,,,,0,1,1,4,1,,,,,,,,,,,,,,,,,,,,,,,,,,,,,,,,,,,,,,,,,
829219,001,2022-11-20_23h55.16.924,Info_measure_main_exp,2022.2.2,Win32,60.07810153,,,,,,,,,,,,,,,,,,masks/mask_004.jpg,,,,,,,,,,,,,,,,,,,,,,,,,,,,,,,,,,,,,,,,,,,,,,,,0,2,2,3,1,,,,,,,,,,,,,,,,,,,,,,,,,,,,,,,,,,,,,,,,,
829219,001,2022-11-20_23h55.16.924,Info_measure_main_exp,2022.2.2,Win32,60.07810153,,,,,,,,,,,,,,,,,,masks/mask_001.jpg,,,,,,,,,,,,,,,,,,,,,,,,,,,,,,,,,,,,,,,,,,,,,,,,0,3,3,0,1,,,,,,,,,,,,,,,,,,,,,,,,,,,,,,,,,,,,,,,,,
829219,001,2022-11-20_23h55.16.924,Info_measure_main_exp,2022.2.2,Win32,60.07810153,,,,,,,,,,,,,,,,,,masks/mask_003.jpg,,,,,,,,,,,,,,,,,,,,,,,,,,,,,,,,,,,,,,,,,,,,,,,,0,4,4,2,1,,,,,,,,,,,,,,,,,,,,,,,,,,,,,,,,,,,,,,,,,
829219,001,2022-11-20_23h55.16.924,Info_measure_main_exp,2022.2.2,Win32,60.07810153,,,,,,,,,,,,,,,,,,,,,,,,,,,,,,7,0.8503,1,,,,,,,,,,,,0,131,5,5,2082,2166,absent_patch/patch0002082.jpg,absent_patch/patch0002166.jpg,,,,,,,,,,,,,,,,,,,,0.059259273,0.131481489,1,0,0,response1disk,1,0.001851894,0.000925912,1,0,0,center_square,0,0,0,43,1,,,,,,,,,,,,,,,,,,,,,,,
829219,001,2022-11-20_23h55.16.924,Info_measure_main_exp,2022.2.2,Win32,60.07810153,,,,,,,,,,,,,,,,,,masks/mask_003.jpg,,,,,,,,,,,,,,,,,,,,,,,,,,,,,,,,,,,,,,,,,,,0,0,0,2,1,,,,,,,,,,,,,,,,,,,,,,,,,,,,,,,,,,,,,,,,,,,,,,
829219,001,2022-11-20_23h55.16.924,Info_measure_main_exp,2022.2.2,Win32,60.07810153,,,,,,,,,,,,,,,,,,masks/mask_001.jpg,,,,,,,,,,,,,,,,,,,,,,,,,,,,,,,,,,,,,,,,,,,0,1,1,0,1,,,,,,,,,,,,,,,,,,,,,,,,,,,,,,,,,,,,,,,,,,,,,,
829219,001,2022-11-20_23h55.16.924,Info_measure_main_exp,2022.2.2,Win32,60.07810153,,,,,,,,,,,,,,,,,,masks/mask_004.jpg,,,,,,,,,,,,,,,,,,,,,,,,,,,,,,,,,,,,,,,,,,,0,2,2,3,1,,,,,,,,,,,,,,,,,,,,,,,,,,,,,,,,,,,,,,,,,,,,,,
829219,001,2022-11-20_23h55.16.924,Info_measure_main_exp,2022.2.2,Win32,60.07810153,,,,,,,,,,,,,,,,,,masks/mask_005.jpg,,,,,,,,,,,,,,,,,,,,,,,,,,,,,,,,,,,,,,,,,,,0,3,3,4,1,,,,,,,,,,,,,,,,,,,,,,,,,,,,,,,,,,,,,,,,,,,,,,
829219,001,2022-11-20_23h55.16.924,Info_measure_main_exp,2022.2.2,Win32,60.07810153,,,,,,,,,,,,,,,,,,masks/mask_002.jpg,,,,,,,,,,,,,,,,,,,,,,,,,,,,,,,,,,,,,,,,,,,0,4,4,1,1,,,,,,,,,,,,,,,,,,,,,,,,,,,,,,,,,,,,,,,,,,,,,,
829219,001,2022-11-20_23h55.16.924,Info_measure_main_exp,2022.2.2,Win32,60.07810153,,,,,,,,,,,,,,,,,,masks/mask_004.jpg,,,,,,,,,,,,,,,,,,,,,,,,,,,,,,,,,,,,,,,,,,,,,,,,0,0,0,3,1,,,,,,,,,,,,,,,,,,,,,,,,,,,,,,,,,,,,,,,,,
829219,001,2022-11-20_23h55.16.924,Info_measure_main_exp,2022.2.2,Win32,60.07810153,,,,,,,,,,,,,,,,,,masks/mask_001.jpg,,,,,,,,,,,,,,,,,,,,,,,,,,,,,,,,,,,,,,,,,,,,,,,,0,1,1,0,1,,,,,,,,,,,,,,,,,,,,,,,,,,,,,,,,,,,,,,,,,
829219,001,2022-11-20_23h55.16.924,Info_measure_main_exp,2022.2.2,Win32,60.07810153,,,,,,,,,,,,,,,,,,masks/mask_005.jpg,,,,,,,,,,,,,,,,,,,,,,,,,,,,,,,,,,,,,,,,,,,,,,,,0,2,2,4,1,,,,,,,,,,,,,,,,,,,,,,,,,,,,,,,,,,,,,,,,,
829219,001,2022-11-20_23h55.16.924,Info_measure_main_exp,2022.2.2,Win32,60.07810153,,,,,,,,,,,,,,,,,,masks/mask_003.jpg,,,,,,,,,,,,,,,,,,,,,,,,,,,,,,,,,,,,,,,,,,,,,,,,0,3,3,2,1,,,,,,,,,,,,,,,,,,,,,,,,,,,,,,,,,,,,,,,,,
829219,001,2022-11-20_23h55.16.924,Info_measure_main_exp,2022.2.2,Win32,60.07810153,,,,,,,,,,,,,,,,,,masks/mask_002.jpg,,,,,,,,,,,,,,,,,,,,,,,,,,,,,,,,,,,,,,,,,,,,,,,,0,4,4,1,1,,,,,,,,,,,,,,,,,,,,,,,,,,,,,,,,,,,,,,,,,
829219,001,2022-11-20_23h55.16.924,Info_measure_main_exp,2022.2.2,Win32,60.07810153,,,,,,,,,,,,,,,,,,,,,,,,,,,,,,7,0.8158,1,,,,,,,,,,,,1,131,5,5,1,2178,present_patch/cong_131_5_a.jpg,absent_patch/patch0002178.jpg,,,,,,,,,,,,,,,,,,,,0.036111125,0.076851845,1,0,0,response1disk,2,0.007407436,0.005555541,1,0,0,center_square,0,1,1,40,1,,,,,,,,,,,,,,,,,,,,,,,
829219,001,2022-11-20_23h55.16.924,Info_measure_main_exp,2022.2.2,Win32,60.07810153,,,,,,,,,,,,,,,,,,masks/mask_002.jpg,,,,,,,,,,,,,,,,,,,,,,,,,,,,,,,,,,,,,,,,,,,0,0,0,1,1,,,,,,,,,,,,,,,,,,,,,,,,,,,,,,,,,,,,,,,,,,,,,,
829219,001,2022-11-20_23h55.16.924,Info_measure_main_exp,2022.2.2,Win32,60.07810153,,,,,,,,,,,,,,,,,,masks/mask_001.jpg,,,,,,,,,,,,,,,,,,,,,,,,,,,,,,,,,,,,,,,,,,,0,1,1,0,1,,,,,,,,,,,,,,,,,,,,,,,,,,,,,,,,,,,,,,,,,,,,,,
829219,001,2022-11-20_23h55.16.924,Info_measure_main_exp,2022.2.2,Win32,60.07810153,,,,,,,,,,,,,,,,,,masks/mask_004.jpg,,,,,,,,,,,,,,,,,,,,,,,,,,,,,,,,,,,,,,,,,,,0,2,2,3,1,,,,,,,,,,,,,,,,,,,,,,,,,,,,,,,,,,,,,,,,,,,,,,
829219,001,2022-11-20_23h55.16.924,Info_measure_main_exp,2022.2.2,Win32,60.07810153,,,,,,,,,,,,,,,,,,masks/mask_003.jpg,,,,,,,,,,,,,,,,,,,,,,,,,,,,,,,,,,,,,,,,,,,0,3,3,2,1,,,,,,,,,,,,,,,,,,,,,,,,,,,,,,,,,,,,,,,,,,,,,,
829219,001,2022-11-20_23h55.16.924,Info_measure_main_exp,2022.2.2,Win32,60.07810153,,,,,,,,,,,,,,,,,,masks/mask_005.jpg,,,,,,,,,,,,,,,,,,,,,,,,,,,,,,,,,,,,,,,,,,,0,4,4,4,1,,,,,,,,,,,,,,,,,,,,,,,,,,,,,,,,,,,,,,,,,,,,,,
829219,001,2022-11-20_23h55.16.924,Info_measure_main_exp,2022.2.2,Win32,60.07810153,,,,,,,,,,,,,,,,,,masks/mask_001.jpg,,,,,,,,,,,,,,,,,,,,,,,,,,,,,,,,,,,,,,,,,,,,,,,,0,0,0,0,1,,,,,,,,,,,,,,,,,,,,,,,,,,,,,,,,,,,,,,,,,
829219,001,2022-11-20_23h55.16.924,Info_measure_main_exp,2022.2.2,Win32,60.07810153,,,,,,,,,,,,,,,,,,masks/mask_004.jpg,,,,,,,,,,,,,,,,,,,,,,,,,,,,,,,,,,,,,,,,,,,,,,,,0,1,1,3,1,,,,,,,,,,,,,,,,,,,,,,,,,,,,,,,,,,,,,,,,,
829219,001,2022-11-20_23h55.16.924,Info_measure_main_exp,2022.2.2,Win32,60.07810153,,,,,,,,,,,,,,,,,,masks/mask_003.jpg,,,,,,,,,,,,,,,,,,,,,,,,,,,,,,,,,,,,,,,,,,,,,,,,0,2,2,2,1,,,,,,,,,,,,,,,,,,,,,,,,,,,,,,,,,,,,,,,,,
829219,001,2022-11-20_23h55.16.924,Info_measure_main_exp,2022.2.2,Win32,60.07810153,,,,,,,,,,,,,,,,,,masks/mask_005.jpg,,,,,,,,,,,,,,,,,,,,,,,,,,,,,,,,,,,,,,,,,,,,,,,,0,3,3,4,1,,,,,,,,,,,,,,,,,,,,,,,,,,,,,,,,,,,,,,,,,
829219,001,2022-11-20_23h55.16.924,Info_measure_main_exp,2022.2.2,Win32,60.07810153,,,,,,,,,,,,,,,,,,masks/mask_002.jpg,,,,,,,,,,,,,,,,,,,,,,,,,,,,,,,,,,,,,,,,,,,,,,,,0,4,4,1,1,,,,,,,,,,,,,,,,,,,,,,,,,,,,,,,,,,,,,,,,,
829219,001,2022-11-20_23h55.16.924,Info_measure_main_exp,2022.2.2,Win32,60.07810153,,,,,,,,,,,,,,,,,,,,,,,,,,,,,,7,0.7,1,,,,,,,,,,,,0,131,5,5,2154,2190,absent_patch/patch0002154.jpg,absent_patch/patch0002190.jpg,,,,,,,,,,,,,,,,,,,,0.064814815,0.147222201,1,0,0,response1disk,3,0.007407436,0.000925912,1,0,0,center_square,0,2,2,68,1,,,,,,,,,,,,,,,,,,,,,,,
829219,001,2022-11-20_23h55.16.924,Info_measure_main_exp,2022.2.2,Win32,60.07810153,,,,,,,,,,,,,,,,,,masks/mask_005.jpg,,,,,,,,,,,,,,,,,,,,,,,,,,,,,,,,,,,,,,,,,,,0,0,0,4,1,,,,,,,,,,,,,,,,,,,,,,,,,,,,,,,,,,,,,,,,,,,,,,
829219,001,2022-11-20_23h55.16.924,Info_measure_main_exp,2022.2.2,Win32,60.07810153,,,,,,,,,,,,,,,,,,masks/mask_004.jpg,,,,,,,,,,,,,,,,,,,,,,,,,,,,,,,,,,,,,,,,,,,0,1,1,3,1,,,,,,,,,,,,,,,,,,,,,,,,,,,,,,,,,,,,,,,,,,,,,,
829219,001,2022-11-20_23h55.16.924,Info_measure_main_exp,2022.2.2,Win32,60.07810153,,,,,,,,,,,,,,,,,,masks/mask_001.jpg,,,,,,,,,,,,,,,,,,,,,,,,,,,,,,,,,,,,,,,,,,,0,2,2,0,1,,,,,,,,,,,,,,,,,,,,,,,,,,,,,,,,,,,,,,,,,,,,,,
829219,001,2022-11-20_23h55.16.924,Info_measure_main_exp,2022.2.2,Win32,60.07810153,,,,,,,,,,,,,,,,,,masks/mask_002.jpg,,,,,,,,,,,,,,,,,,,,,,,,,,,,,,,,,,,,,,,,,,,0,3,3,1,1,,,,,,,,,,,,,,,,,,,,,,,,,,,,,,,,,,,,,,,,,,,,,,
829219,001,2022-11-20_23h55.16.924,Info_measure_main_exp,2022.2.2,Win32,60.07810153,,,,,,,,,,,,,,,,,,masks/mask_003.jpg,,,,,,,,,,,,,,,,,,,,,,,,,,,,,,,,,,,,,,,,,,,0,4,4,2,1,,,,,,,,,,,,,,,,,,,,,,,,,,,,,,,,,,,,,,,,,,,,,,
829219,001,2022-11-20_23h55.16.924,Info_measure_main_exp,2022.2.2,Win32,60.07810153,,,,,,,,,,,,,,,,,,masks/mask_002.jpg,,,,,,,,,,,,,,,,,,,,,,,,,,,,,,,,,,,,,,,,,,,,,,,,0,0,0,1,1,,,,,,,,,,,,,,,,,,,,,,,,,,,,,,,,,,,,,,,,,
829219,001,2022-11-20_23h55.16.924,Info_measure_main_exp,2022.2.2,Win32,60.07810153,,,,,,,,,,,,,,,,,,masks/mask_005.jpg,,,,,,,,,,,,,,,,,,,,,,,,,,,,,,,,,,,,,,,,,,,,,,,,0,1,1,4,1,,,,,,,,,,,,,,,,,,,,,,,,,,,,,,,,,,,,,,,,,
829219,001,2022-11-20_23h55.16.924,Info_measure_main_exp,2022.2.2,Win32,60.07810153,,,,,,,,,,,,,,,,,,masks/mask_004.jpg,,,,,,,,,,,,,,,,,,,,,,,,,,,,,,,,,,,,,,,,,,,,,,,,0,2,2,3,1,,,,,,,,,,,,,,,,,,,,,,,,,,,,,,,,,,,,,,,,,
829219,001,2022-11-20_23h55.16.924,Info_measure_main_exp,2022.2.2,Win32,60.07810153,,,,,,,,,,,,,,,,,,masks/mask_003.jpg,,,,,,,,,,,,,,,,,,,,,,,,,,,,,,,,,,,,,,,,,,,,,,,,0,3,3,2,1,,,,,,,,,,,,,,,,,,,,,,,,,,,,,,,,,,,,,,,,,
829219,001,2022-11-20_23h55.16.924,Info_measure_main_exp,2022.2.2,Win32,60.07810153,,,,,,,,,,,,,,,,,,masks/mask_001.jpg,,,,,,,,,,,,,,,,,,,,,,,,,,,,,,,,,,,,,,,,,,,,,,,,0,4,4,0,1,,,,,,,,,,,,,,,,,,,,,,,,,,,,,,,,,,,,,,,,,
829219,001,2022-11-20_23h55.16.924,Info_measure_main_exp,2022.2.2,Win32,60.07810153,,,,,,,,,,,,,,,,,,,,,,,,,,,,,,4,5.2611,1,,,,,,,,,,,,0,131,5,5,2190,2082,absent_patch/patch0002190.jpg,absent_patch/patch0002082.jpg,,,,,,,,,,,,,,,,,,,,0.067592621,-0.122222265,1,0,0,response3disk,4,0.002777806,-0.002777771,1,0,0,center_square,0,3,3,112,1,,,,,,,,,,,,,,,,,,,,,,,
829219,001,2022-11-20_23h55.16.924,Info_measure_main_exp,2022.2.2,Win32,60.07810153,,,,,,,,,,,,,,,,,,masks/mask_004.jpg,,,,,,,,,,,,,,,,,,,,,,,,,,,,,,,,,,,,,,,,,,,0,0,0,3,1,,,,,,,,,,,,,,,,,,,,,,,,,,,,,,,,,,,,,,,,,,,,,,
829219,001,2022-11-20_23h55.16.924,Info_measure_main_exp,2022.2.2,Win32,60.07810153,,,,,,,,,,,,,,,,,,masks/mask_005.jpg,,,,,,,,,,,,,,,,,,,,,,,,,,,,,,,,,,,,,,,,,,,0,1,1,4,1,,,,,,,,,,,,,,,,,,,,,,,,,,,,,,,,,,,,,,,,,,,,,,
829219,001,2022-11-20_23h55.16.924,Info_measure_main_exp,2022.2.2,Win32,60.07810153,,,,,,,,,,,,,,,,,,masks/mask_002.jpg,,,,,,,,,,,,,,,,,,,,,,,,,,,,,,,,,,,,,,,,,,,0,2,2,1,1,,,,,,,,,,,,,,,,,,,,,,,,,,,,,,,,,,,,,,,,,,,,,,
829219,001,2022-11-20_23h55.16.924,Info_measure_main_exp,2022.2.2,Win32,60.07810153,,,,,,,,,,,,,,,,,,masks/mask_003.jpg,,,,,,,,,,,,,,,,,,,,,,,,,,,,,,,,,,,,,,,,,,,0,3,3,2,1,,,,,,,,,,,,,,,,,,,,,,,,,,,,,,,,,,,,,,,,,,,,,,
829219,001,2022-11-20_23h55.16.924,Info_measure_main_exp,2022.2.2,Win32,60.07810153,,,,,,,,,,,,,,,,,,masks/mask_001.jpg,,,,,,,,,,,,,,,,,,,,,,,,,,,,,,,,,,,,,,,,,,,0,4,4,0,1,,,,,,,,,,,,,,,,,,,,,,,,,,,,,,,,,,,,,,,,,,,,,,
829219,001,2022-11-20_23h55.16.924,Info_measure_main_exp,2022.2.2,Win32,60.07810153,,,,,,,,,,,,,,,,,,masks/mask_001.jpg,,,,,,,,,,,,,,,,,,,,,,,,,,,,,,,,,,,,,,,,,,,,,,,,0,0,0,0,1,,,,,,,,,,,,,,,,,,,,,,,,,,,,,,,,,,,,,,,,,
829219,001,2022-11-20_23h55.16.924,Info_measure_main_exp,2022.2.2,Win32,60.07810153,,,,,,,,,,,,,,,,,,masks/mask_002.jpg,,,,,,,,,,,,,,,,,,,,,,,,,,,,,,,,,,,,,,,,,,,,,,,,0,1,1,1,1,,,,,,,,,,,,,,,,,,,,,,,,,,,,,,,,,,,,,,,,,
829219,001,2022-11-20_23h55.16.924,Info_measure_main_exp,2022.2.2,Win32,60.07810153,,,,,,,,,,,,,,,,,,masks/mask_005.jpg,,,,,,,,,,,,,,,,,,,,,,,,,,,,,,,,,,,,,,,,,,,,,,,,0,2,2,4,1,,,,,,,,,,,,,,,,,,,,,,,,,,,,,,,,,,,,,,,,,
829219,001,2022-11-20_23h55.16.924,Info_measure_main_exp,2022.2.2,Win32,60.07810153,,,,,,,,,,,,,,,,,,masks/mask_004.jpg,,,,,,,,,,,,,,,,,,,,,,,,,,,,,,,,,,,,,,,,,,,,,,,,0,3,3,3,1,,,,,,,,,,,,,,,,,,,,,,,,,,,,,,,,,,,,,,,,,
829219,001,2022-11-20_23h55.16.924,Info_measure_main_exp,2022.2.2,Win32,60.07810153,,,,,,,,,,,,,,,,,,masks/mask_003.jpg,,,,,,,,,,,,,,,,,,,,,,,,,,,,,,,,,,,,,,,,,,,,,,,,0,4,4,2,1,,,,,,,,,,,,,,,,,,,,,,,,,,,,,,,,,,,,,,,,,
829219,001,2022-11-20_23h55.16.924,Info_measure_main_exp,2022.2.2,Win32,60.07810153,,,,,,,,,,,,,,,,,,,,,,,,,,,,,,7,1.5958,1,,,,,,,,,,,,1,131,5,5,2190,1,absent_patch/patch0002190.jpg,present_patch/cong_131_5_a.jpg,,,,,,,,,,,,,,,,,,,,0.05740745,0.100925905,1,0,0,response1disk,5,0.012037065,-0.006481489,1,0,0,center_square,0,4,4,64,1,,,,,,,,,,,,,,,,,,,,,,,
829219,001,2022-11-20_23h55.16.924,Info_measure_main_exp,2022.2.2,Win32,60.07810153,,,,,,,,,,,,,,,,,,masks/mask_004.jpg,,,,,,,,,,,,,,,,,,,,,,,,,,,,,,,,,,,,,,,,,,,0,0,0,3,1,,,,,,,,,,,,,,,,,,,,,,,,,,,,,,,,,,,,,,,,,,,,,,
829219,001,2022-11-20_23h55.16.924,Info_measure_main_exp,2022.2.2,Win32,60.07810153,,,,,,,,,,,,,,,,,,masks/mask_005.jpg,,,,,,,,,,,,,,,,,,,,,,,,,,,,,,,,,,,,,,,,,,,0,1,1,4,1,,,,,,,,,,,,,,,,,,,,,,,,,,,,,,,,,,,,,,,,,,,,,,
829219,001,2022-11-20_23h55.16.924,Info_measure_main_exp,2022.2.2,Win32,60.07810153,,,,,,,,,,,,,,,,,,masks/mask_001.jpg,,,,,,,,,,,,,,,,,,,,,,,,,,,,,,,,,,,,,,,,,,,0,2,2,0,1,,,,,,,,,,,,,,,,,,,,,,,,,,,,,,,,,,,,,,,,,,,,,,
829219,001,2022-11-20_23h55.16.924,Info_measure_main_exp,2022.2.2,Win32,60.07810153,,,,,,,,,,,,,,,,,,masks/mask_002.jpg,,,,,,,,,,,,,,,,,,,,,,,,,,,,,,,,,,,,,,,,,,,0,3,3,1,1,,,,,,,,,,,,,,,,,,,,,,,,,,,,,,,,,,,,,,,,,,,,,,
829219,001,2022-11-20_23h55.16.924,Info_measure_main_exp,2022.2.2,Win32,60.07810153,,,,,,,,,,,,,,,,,,masks/mask_003.jpg,,,,,,,,,,,,,,,,,,,,,,,,,,,,,,,,,,,,,,,,,,,0,4,4,2,1,,,,,,,,,,,,,,,,,,,,,,,,,,,,,,,,,,,,,,,,,,,,,,
829219,001,2022-11-20_23h55.16.924,Info_measure_main_exp,2022.2.2,Win32,60.07810153,,,,,,,,,,,,,,,,,,masks/mask_004.jpg,,,,,,,,,,,,,,,,,,,,,,,,,,,,,,,,,,,,,,,,,,,,,,,,0,0,0,3,1,,,,,,,,,,,,,,,,,,,,,,,,,,,,,,,,,,,,,,,,,
829219,001,2022-11-20_23h55.16.924,Info_measure_main_exp,2022.2.2,Win32,60.07810153,,,,,,,,,,,,,,,,,,masks/mask_003.jpg,,,,,,,,,,,,,,,,,,,,,,,,,,,,,,,,,,,,,,,,,,,,,,,,0,1,1,2,1,,,,,,,,,,,,,,,,,,,,,,,,,,,,,,,,,,,,,,,,,
829219,001,2022-11-20_23h55.16.924,Info_measure_main_exp,2022.2.2,Win32,60.07810153,,,,,,,,,,,,,,,,,,masks/mask_001.jpg,,,,,,,,,,,,,,,,,,,,,,,,,,,,,,,,,,,,,,,,,,,,,,,,0,2,2,0,1,,,,,,,,,,,,,,,,,,,,,,,,,,,,,,,,,,,,,,,,,
829219,001,2022-11-20_23h55.16.924,Info_measure_main_exp,2022.2.2,Win32,60.07810153,,,,,,,,,,,,,,,,,,masks/mask_005.jpg,,,,,,,,,,,,,,,,,,,,,,,,,,,,,,,,,,,,,,,,,,,,,,,,0,3,3,4,1,,,,,,,,,,,,,,,,,,,,,,,,,,,,,,,,,,,,,,,,,
829219,001,2022-11-20_23h55.16.924,Info_measure_main_exp,2022.2.2,Win32,60.07810153,,,,,,,,,,,,,,,,,,masks/mask_002.jpg,,,,,,,,,,,,,,,,,,,,,,,,,,,,,,,,,,,,,,,,,,,,,,,,0,4,4,1,1,,,,,,,,,,,,,,,,,,,,,,,,,,,,,,,,,,,,,,,,,
829219,001,2022-11-20_23h55.16.924,Info_measure_main_exp,2022.2.2,Win32,60.07810153,,,,,,,,,,,,,,,,,,,,,,,,,,,,,,0,3.832,1,,,,,,,,,,,,0,131,5,5,2082,2082,absent_patch/patch0002082.jpg,absent_patch/patch0002082.jpg,,,,,,,,,,,,,,,,,,,,-0.069444444,0.125925912,1,0,0,response7disk,6,0.000925912,0.002777771,1,0,0,center_square,0,5,5,74,1,,,,,,,,,,,,,,,,,,,,,,,
829219,001,2022-11-20_23h55.16.924,Info_measure_main_exp,2022.2.2,Win32,60.07810153,,,,,,,,,,,,,,,,,,masks/mask_003.jpg,,,,,,,,,,,,,,,,,,,,,,,,,,,,,,,,,,,,,,,,,,,0,0,0,2,1,,,,,,,,,,,,,,,,,,,,,,,,,,,,,,,,,,,,,,,,,,,,,,
829219,001,2022-11-20_23h55.16.924,Info_measure_main_exp,2022.2.2,Win32,60.07810153,,,,,,,,,,,,,,,,,,masks/mask_005.jpg,,,,,,,,,,,,,,,,,,,,,,,,,,,,,,,,,,,,,,,,,,,0,1,1,4,1,,,,,,,,,,,,,,,,,,,,,,,,,,,,,,,,,,,,,,,,,,,,,,
829219,001,2022-11-20_23h55.16.924,Info_measure_main_exp,2022.2.2,Win32,60.07810153,,,,,,,,,,,,,,,,,,masks/mask_004.jpg,,,,,,,,,,,,,,,,,,,,,,,,,,,,,,,,,,,,,,,,,,,0,2,2,3,1,,,,,,,,,,,,,,,,,,,,,,,,,,,,,,,,,,,,,,,,,,,,,,
829219,001,2022-11-20_23h55.16.924,Info_measure_main_exp,2022.2.2,Win32,60.07810153,,,,,,,,,,,,,,,,,,masks/mask_001.jpg,,,,,,,,,,,,,,,,,,,,,,,,,,,,,,,,,,,,,,,,,,,0,3,3,0,1,,,,,,,,,,,,,,,,,,,,,,,,,,,,,,,,,,,,,,,,,,,,,,
829219,001,2022-11-20_23h55.16.924,Info_measure_main_exp,2022.2.2,Win32,60.07810153,,,,,,,,,,,,,,,,,,masks/mask_002.jpg,,,,,,,,,,,,,,,,,,,,,,,,,,,,,,,,,,,,,,,,,,,0,4,4,1,1,,,,,,,,,,,,,,,,,,,,,,,,,,,,,,,,,,,,,,,,,,,,,,
829219,001,2022-11-20_23h55.16.924,Info_measure_main_exp,2022.2.2,Win32,60.07810153,,,,,,,,,,,,,,,,,,masks/mask_005.jpg,,,,,,,,,,,,,,,,,,,,,,,,,,,,,,,,,,,,,,,,,,,,,,,,0,0,0,4,1,,,,,,,,,,,,,,,,,,,,,,,,,,,,,,,,,,,,,,,,,
829219,001,2022-11-20_23h55.16.924,Info_measure_main_exp,2022.2.2,Win32,60.07810153,,,,,,,,,,,,,,,,,,masks/mask_001.jpg,,,,,,,,,,,,,,,,,,,,,,,,,,,,,,,,,,,,,,,,,,,,,,,,0,1,1,0,1,,,,,,,,,,,,,,,,,,,,,,,,,,,,,,,,,,,,,,,,,
829219,001,2022-11-20_23h55.16.924,Info_measure_main_exp,2022.2.2,Win32,60.07810153,,,,,,,,,,,,,,,,,,masks/mask_002.jpg,,,,,,,,,,,,,,,,,,,,,,,,,,,,,,,,,,,,,,,,,,,,,,,,0,2,2,1,1,,,,,,,,,,,,,,,,,,,,,,,,,,,,,,,,,,,,,,,,,
829219,001,2022-11-20_23h55.16.924,Info_measure_main_exp,2022.2.2,Win32,60.07810153,,,,,,,,,,,,,,,,,,masks/mask_003.jpg,,,,,,,,,,,,,,,,,,,,,,,,,,,,,,,,,,,,,,,,,,,,,,,,0,3,3,2,1,,,,,,,,,,,,,,,,,,,,,,,,,,,,,,,,,,,,,,,,,
829219,001,2022-11-20_23h55.16.924,Info_measure_main_exp,2022.2.2,Win32,60.07810153,,,,,,,,,,,,,,,,,,masks/mask_004.jpg,,,,,,,,,,,,,,,,,,,,,,,,,,,,,,,,,,,,,,,,,,,,,,,,0,4,4,3,1,,,,,,,,,,,,,,,,,,,,,,,,,,,,,,,,,,,,,,,,,
829219,001,2022-11-20_23h55.16.924,Info_measure_main_exp,2022.2.2,Win32,60.07810153,,,,,,,,,,,,,,,,,,,,,,,,,,,,,,6,3.8418,1,,,,,,,,,,,,0,131,5,5,2238,2166,absent_patch/patch0002238.jpg,absent_patch/patch0002166.jpg,,,,,,,,,,,,,,,,,,,,0.147222236,0.050925926,1,0,0,response1disk,7,0.003703718,0.009259259,1,0,0,center_square,0,6,6,118,1,,,,,,,,,,,,,,,,,,,,,,,
829219,001,2022-11-20_23h55.16.924,Info_measure_main_exp,2022.2.2,Win32,60.07810153,,,,,,,,,,,,,,,,,,masks/mask_004.jpg,,,,,,,,,,,,,,,,,,,,,,,,,,,,,,,,,,,,,,,,,,,0,0,0,3,1,,,,,,,,,,,,,,,,,,,,,,,,,,,,,,,,,,,,,,,,,,,,,,
829219,001,2022-11-20_23h55.16.924,Info_measure_main_exp,2022.2.2,Win32,60.07810153,,,,,,,,,,,,,,,,,,masks/mask_002.jpg,,,,,,,,,,,,,,,,,,,,,,,,,,,,,,,,,,,,,,,,,,,0,1,1,1,1,,,,,,,,,,,,,,,,,,,,,,,,,,,,,,,,,,,,,,,,,,,,,,
829219,001,2022-11-20_23h55.16.924,Info_measure_main_exp,2022.2.2,Win32,60.07810153,,,,,,,,,,,,,,,,,,masks/mask_005.jpg,,,,,,,,,,,,,,,,,,,,,,,,,,,,,,,,,,,,,,,,,,,0,2,2,4,1,,,,,,,,,,,,,,,,,,,,,,,,,,,,,,,,,,,,,,,,,,,,,,
829219,001,2022-11-20_23h55.16.924,Info_measure_main_exp,2022.2.2,Win32,60.07810153,,,,,,,,,,,,,,,,,,masks/mask_001.jpg,,,,,,,,,,,,,,,,,,,,,,,,,,,,,,,,,,,,,,,,,,,0,3,3,0,1,,,,,,,,,,,,,,,,,,,,,,,,,,,,,,,,,,,,,,,,,,,,,,
829219,001,2022-11-20_23h55.16.924,Info_measure_main_exp,2022.2.2,Win32,60.07810153,,,,,,,,,,,,,,,,,,masks/mask_003.jpg,,,,,,,,,,,,,,,,,,,,,,,,,,,,,,,,,,,,,,,,,,,0,4,4,2,1,,,,,,,,,,,,,,,,,,,,,,,,,,,,,,,,,,,,,,,,,,,,,,
829219,001,2022-11-20_23h55.16.924,Info_measure_main_exp,2022.2.2,Win32,60.07810153,,,,,,,,,,,,,,,,,,masks/mask_004.jpg,,,,,,,,,,,,,,,,,,,,,,,,,,,,,,,,,,,,,,,,,,,,,,,,0,0,0,3,1,,,,,,,,,,,,,,,,,,,,,,,,,,,,,,,,,,,,,,,,,
829219,001,2022-11-20_23h55.16.924,Info_measure_main_exp,2022.2.2,Win32,60.07810153,,,,,,,,,,,,,,,,,,masks/mask_003.jpg,,,,,,,,,,,,,,,,,,,,,,,,,,,,,,,,,,,,,,,,,,,,,,,,0,1,1,2,1,,,,,,,,,,,,,,,,,,,,,,,,,,,,,,,,,,,,,,,,,
829219,001,2022-11-20_23h55.16.924,Info_measure_main_exp,2022.2.2,Win32,60.07810153,,,,,,,,,,,,,,,,,,masks/mask_002.jpg,,,,,,,,,,,,,,,,,,,,,,,,,,,,,,,,,,,,,,,,,,,,,,,,0,2,2,1,1,,,,,,,,,,,,,,,,,,,,,,,,,,,,,,,,,,,,,,,,,
829219,001,2022-11-20_23h55.16.924,Info_measure_main_exp,2022.2.2,Win32,60.07810153,,,,,,,,,,,,,,,,,,masks/mask_001.jpg,,,,,,,,,,,,,,,,,,,,,,,,,,,,,,,,,,,,,,,,,,,,,,,,0,3,3,0,1,,,,,,,,,,,,,,,,,,,,,,,,,,,,,,,,,,,,,,,,,
829219,001,2022-11-20_23h55.16.924,Info_measure_main_exp,2022.2.2,Win32,60.07810153,,,,,,,,,,,,,,,,,,masks/mask_005.jpg,,,,,,,,,,,,,,,,,,,,,,,,,,,,,,,,,,,,,,,,,,,,,,,,0,4,4,4,1,,,,,,,,,,,,,,,,,,,,,,,,,,,,,,,,,,,,,,,,,
829219,001,2022-11-20_23h55.16.924,Info_measure_main_exp,2022.2.2,Win32,60.07810153,,,,,,,,,,,,,,,,,,,,,,,,,,,,,,7,1.2817,1,,,,,,,,,,,,0,131,5,5,2154,2250,absent_patch/patch0002154.jpg,absent_patch/patch0002250.jpg,,,,,,,,,,,,,,,,,,,,0.058333362,0.114814794,1,0,0,response1disk,8,0.008333347,0.003703683,1,0,0,center_square,0,7,7,108,1,,,,,,,,,,,,,,,,,,,,,,,
829219,001,2022-11-20_23h55.16.924,Info_measure_main_exp,2022.2.2,Win32,60.07810153,,,,,,,,,,,,,,,,,,masks/mask_002.jpg,,,,,,,,,,,,,,,,,,,,,,,,,,,,,,,,,,,,,,,,,,,0,0,0,1,1,,,,,,,,,,,,,,,,,,,,,,,,,,,,,,,,,,,,,,,,,,,,,,
829219,001,2022-11-20_23h55.16.924,Info_measure_main_exp,2022.2.2,Win32,60.07810153,,,,,,,,,,,,,,,,,,masks/mask_004.jpg,,,,,,,,,,,,,,,,,,,,,,,,,,,,,,,,,,,,,,,,,,,0,1,1,3,1,,,,,,,,,,,,,,,,,,,,,,,,,,,,,,,,,,,,,,,,,,,,,,
829219,001,2022-11-20_23h55.16.924,Info_measure_main_exp,2022.2.2,Win32,60.07810153,,,,,,,,,,,,,,,,,,masks/mask_005.jpg,,,,,,,,,,,,,,,,,,,,,,,,,,,,,,,,,,,,,,,,,,,0,2,2,4,1,,,,,,,,,,,,,,,,,,,,,,,,,,,,,,,,,,,,,,,,,,,,,,
829219,001,2022-11-20_23h55.16.924,Info_measure_main_exp,2022.2.2,Win32,60.07810153,,,,,,,,,,,,,,,,,,masks/mask_003.jpg,,,,,,,,,,,,,,,,,,,,,,,,,,,,,,,,,,,,,,,,,,,0,3,3,2,1,,,,,,,,,,,,,,,,,,,,,,,,,,,,,,,,,,,,,,,,,,,,,,
829219,001,2022-11-20_23h55.16.924,Info_measure_main_exp,2022.2.2,Win32,60.07810153,,,,,,,,,,,,,,,,,,masks/mask_001.jpg,,,,,,,,,,,,,,,,,,,,,,,,,,,,,,,,,,,,,,,,,,,0,4,4,0,1,,,,,,,,,,,,,,,,,,,,,,,,,,,,,,,,,,,,,,,,,,,,,,
829219,001,2022-11-20_23h55.16.924,Info_measure_main_exp,2022.2.2,Win32,60.07810153,,,,,,,,,,,,,,,,,,masks/mask_001.jpg,,,,,,,,,,,,,,,,,,,,,,,,,,,,,,,,,,,,,,,,,,,,,,,,0,0,0,0,1,,,,,,,,,,,,,,,,,,,,,,,,,,,,,,,,,,,,,,,,,
829219,001,2022-11-20_23h55.16.924,Info_measure_main_exp,2022.2.2,Win32,60.07810153,,,,,,,,,,,,,,,,,,masks/mask_005.jpg,,,,,,,,,,,,,,,,,,,,,,,,,,,,,,,,,,,,,,,,,,,,,,,,0,1,1,4,1,,,,,,,,,,,,,,,,,,,,,,,,,,,,,,,,,,,,,,,,,
829219,001,2022-11-20_23h55.16.924,Info_measure_main_exp,2022.2.2,Win32,60.07810153,,,,,,,,,,,,,,,,,,masks/mask_003.jpg,,,,,,,,,,,,,,,,,,,,,,,,,,,,,,,,,,,,,,,,,,,,,,,,0,2,2,2,1,,,,,,,,,,,,,,,,,,,,,,,,,,,,,,,,,,,,,,,,,
829219,001,2022-11-20_23h55.16.924,Info_measure_main_exp,2022.2.2,Win32,60.07810153,,,,,,,,,,,,,,,,,,masks/mask_002.jpg,,,,,,,,,,,,,,,,,,,,,,,,,,,,,,,,,,,,,,,,,,,,,,,,0,3,3,1,1,,,,,,,,,,,,,,,,,,,,,,,,,,,,,,,,,,,,,,,,,
829219,001,2022-11-20_23h55.16.924,Info_measure_main_exp,2022.2.2,Win32,60.07810153,,,,,,,,,,,,,,,,,,masks/mask_004.jpg,,,,,,,,,,,,,,,,,,,,,,,,,,,,,,,,,,,,,,,,,,,,,,,,0,4,4,3,1,,,,,,,,,,,,,,,,,,,,,,,,,,,,,,,,,,,,,,,,,
829219,001,2022-11-20_23h55.16.924,Info_measure_main_exp,2022.2.2,Win32,60.07810153,,,,,,,,,,,,,,,,,,,,,,,,,,,,,,5,2.2088,1,,,,,,,,,,,,0,131,5,5,2250,2166,absent_patch/patch0002250.jpg,absent_patch/patch0002166.jpg,,,,,,,,,,,,,,,,,,,,0.112037023,-0.050925926,1,0,0,response3disk,9,0.000925912,-0.000925947,1,0,0,center_square,0,8,8,60,1,,,,,,,,,,,,,,,,,,,,,,,
829219,001,2022-11-20_23h55.16.924,Info_measure_main_exp,2022.2.2,Win32,60.07810153,,,,,,,,,,,,,,,,,,masks/mask_005.jpg,,,,,,,,,,,,,,,,,,,,,,,,,,,,,,,,,,,,,,,,,,,0,0,0,4,1,,,,,,,,,,,,,,,,,,,,,,,,,,,,,,,,,,,,,,,,,,,,,,
829219,001,2022-11-20_23h55.16.924,Info_measure_main_exp,2022.2.2,Win32,60.07810153,,,,,,,,,,,,,,,,,,masks/mask_001.jpg,,,,,,,,,,,,,,,,,,,,,,,,,,,,,,,,,,,,,,,,,,,0,1,1,0,1,,,,,,,,,,,,,,,,,,,,,,,,,,,,,,,,,,,,,,,,,,,,,,
829219,001,2022-11-20_23h55.16.924,Info_measure_main_exp,2022.2.2,Win32,60.07810153,,,,,,,,,,,,,,,,,,masks/mask_004.jpg,,,,,,,,,,,,,,,,,,,,,,,,,,,,,,,,,,,,,,,,,,,0,2,2,3,1,,,,,,,,,,,,,,,,,,,,,,,,,,,,,,,,,,,,,,,,,,,,,,
829219,001,2022-11-20_23h55.16.924,Info_measure_main_exp,2022.2.2,Win32,60.07810153,,,,,,,,,,,,,,,,,,masks/mask_003.jpg,,,,,,,,,,,,,,,,,,,,,,,,,,,,,,,,,,,,,,,,,,,0,3,3,2,1,,,,,,,,,,,,,,,,,,,,,,,,,,,,,,,,,,,,,,,,,,,,,,
829219,001,2022-11-20_23h55.16.924,Info_measure_main_exp,2022.2.2,Win32,60.07810153,,,,,,,,,,,,,,,,,,masks/mask_002.jpg,,,,,,,,,,,,,,,,,,,,,,,,,,,,,,,,,,,,,,,,,,,0,4,4,1,1,,,,,,,,,,,,,,,,,,,,,,,,,,,,,,,,,,,,,,,,,,,,,,
829219,001,2022-11-20_23h55.16.924,Info_measure_main_exp,2022.2.2,Win32,60.07810153,,,,,,,,,,,,,,,,,,masks/mask_005.jpg,,,,,,,,,,,,,,,,,,,,,,,,,,,,,,,,,,,,,,,,,,,,,,,,0,0,0,4,1,,,,,,,,,,,,,,,,,,,,,,,,,,,,,,,,,,,,,,,,,
829219,001,2022-11-20_23h55.16.924,Info_measure_main_exp,2022.2.2,Win32,60.07810153,,,,,,,,,,,,,,,,,,masks/mask_001.jpg,,,,,,,,,,,,,,,,,,,,,,,,,,,,,,,,,,,,,,,,,,,,,,,,0,1,1,0,1,,,,,,,,,,,,,,,,,,,,,,,,,,,,,,,,,,,,,,,,,
829219,001,2022-11-20_23h55.16.924,Info_measure_main_exp,2022.2.2,Win32,60.07810153,,,,,,,,,,,,,,,,,,masks/mask_002.jpg,,,,,,,,,,,,,,,,,,,,,,,,,,,,,,,,,,,,,,,,,,,,,,,,0,2,2,1,1,,,,,,,,,,,,,,,,,,,,,,,,,,,,,,,,,,,,,,,,,
829219,001,2022-11-20_23h55.16.924,Info_measure_main_exp,2022.2.2,Win32,60.07810153,,,,,,,,,,,,,,,,,,masks/mask_003.jpg,,,,,,,,,,,,,,,,,,,,,,,,,,,,,,,,,,,,,,,,,,,,,,,,0,3,3,2,1,,,,,,,,,,,,,,,,,,,,,,,,,,,,,,,,,,,,,,,,,
829219,001,2022-11-20_23h55.16.924,Info_measure_main_exp,2022.2.2,Win32,60.07810153,,,,,,,,,,,,,,,,,,masks/mask_004.jpg,,,,,,,,,,,,,,,,,,,,,,,,,,,,,,,,,,,,,,,,,,,,,,,,0,4,4,3,1,,,,,,,,,,,,,,,,,,,,,,,,,,,,,,,,,,,,,,,,,
829219,001,2022-11-20_23h55.16.924,Info_measure_main_exp,2022.2.2,Win32,60.07810153,,,,,,,,,,,,,,,,,,,,,,,,,,,,,,7,1.6253,1,,,,,,,,,,,,0,131,5,5,1986,1950,absent_patch/patch0001986.jpg,absent_patch/patch0001950.jpg,,,,,,,,,,,,,,,,,,,,0.070370356,0.091666645,1,0,0,response1disk,10,0.001851894,0,1,0,0,center_square,0,9,9,15,1,,,,,,,,,,,,,,,,,,,,,,,
829219,001,2022-11-20_23h55.16.924,Info_measure_main_exp,2022.2.2,Win32,60.07810153,,,,,,,,,,,,,,,,,,masks/mask_005.jpg,,,,,,,,,,,,,,,,,,,,,,,,,,,,,,,,,,,,,,,,,,,0,0,0,4,1,,,,,,,,,,,,,,,,,,,,,,,,,,,,,,,,,,,,,,,,,,,,,,
829219,001,2022-11-20_23h55.16.924,Info_measure_main_exp,2022.2.2,Win32,60.07810153,,,,,,,,,,,,,,,,,,masks/mask_004.jpg,,,,,,,,,,,,,,,,,,,,,,,,,,,,,,,,,,,,,,,,,,,0,1,1,3,1,,,,,,,,,,,,,,,,,,,,,,,,,,,,,,,,,,,,,,,,,,,,,,
829219,001,2022-11-20_23h55.16.924,Info_measure_main_exp,2022.2.2,Win32,60.07810153,,,,,,,,,,,,,,,,,,masks/mask_002.jpg,,,,,,,,,,,,,,,,,,,,,,,,,,,,,,,,,,,,,,,,,,,0,2,2,1,1,,,,,,,,,,,,,,,,,,,,,,,,,,,,,,,,,,,,,,,,,,,,,,
829219,001,2022-11-20_23h55.16.924,Info_measure_main_exp,2022.2.2,Win32,60.07810153,,,,,,,,,,,,,,,,,,masks/mask_003.jpg,,,,,,,,,,,,,,,,,,,,,,,,,,,,,,,,,,,,,,,,,,,0,3,3,2,1,,,,,,,,,,,,,,,,,,,,,,,,,,,,,,,,,,,,,,,,,,,,,,
829219,001,2022-11-20_23h55.16.924,Info_measure_main_exp,2022.2.2,Win32,60.07810153,,,,,,,,,,,,,,,,,,masks/mask_001.jpg,,,,,,,,,,,,,,,,,,,,,,,,,,,,,,,,,,,,,,,,,,,0,4,4,0,1,,,,,,,,,,,,,,,,,,,,,,,,,,,,,,,,,,,,,,,,,,,,,,
829219,001,2022-11-20_23h55.16.924,Info_measure_main_exp,2022.2.2,Win32,60.07810153,,,,,,,,,,,,,,,,,,masks/mask_005.jpg,,,,,,,,,,,,,,,,,,,,,,,,,,,,,,,,,,,,,,,,,,,,,,,,0,0,0,4,1,,,,,,,,,,,,,,,,,,,,,,,,,,,,,,,,,,,,,,,,,
829219,001,2022-11-20_23h55.16.924,Info_measure_main_exp,2022.2.2,Win32,60.07810153,,,,,,,,,,,,,,,,,,masks/mask_002.jpg,,,,,,,,,,,,,,,,,,,,,,,,,,,,,,,,,,,,,,,,,,,,,,,,0,1,1,1,1,,,,,,,,,,,,,,,,,,,,,,,,,,,,,,,,,,,,,,,,,
829219,001,2022-11-20_23h55.16.924,Info_measure_main_exp,2022.2.2,Win32,60.07810153,,,,,,,,,,,,,,,,,,masks/mask_001.jpg,,,,,,,,,,,,,,,,,,,,,,,,,,,,,,,,,,,,,,,,,,,,,,,,0,2,2,0,1,,,,,,,,,,,,,,,,,,,,,,,,,,,,,,,,,,,,,,,,,
829219,001,2022-11-20_23h55.16.924,Info_measure_main_exp,2022.2.2,Win32,60.07810153,,,,,,,,,,,,,,,,,,masks/mask_003.jpg,,,,,,,,,,,,,,,,,,,,,,,,,,,,,,,,,,,,,,,,,,,,,,,,0,3,3,2,1,,,,,,,,,,,,,,,,,,,,,,,,,,,,,,,,,,,,,,,,,
829219,001,2022-11-20_23h55.16.924,Info_measure_main_exp,2022.2.2,Win32,60.07810153,,,,,,,,,,,,,,,,,,masks/mask_004.jpg,,,,,,,,,,,,,,,,,,,,,,,,,,,,,,,,,,,,,,,,,,,,,,,,0,4,4,3,1,,,,,,,,,,,,,,,,,,,,,,,,,,,,,,,,,,,,,,,,,
829219,001,2022-11-20_23h55.16.924,Info_measure_main_exp,2022.2.2,Win32,60.07810153,,,,,,,,,,,,,,,,,,,,,,,,,,,,,,6,1.4178,1,,,,,,,,,,,,1,131,5,5,1950,1,absent_patch/patch0001950.jpg,present_patch/cong_131_5_a.jpg,,,,,,,,,,,,,,,,,,,,0.10092594,0.026851831,1,0,0,response1disk,11,-0.002777735,0,1,0,0,center_square,0,10,10,39,1,,,,,,,,,,,,,,,,,,,,,,,
829219,001,2022-11-20_23h55.16.924,Info_measure_main_exp,2022.2.2,Win32,60.07810153,,,,,,,,,,,,,,,,,,masks/mask_001.jpg,,,,,,,,,,,,,,,,,,,,,,,,,,,,,,,,,,,,,,,,,,,0,0,0,0,1,,,,,,,,,,,,,,,,,,,,,,,,,,,,,,,,,,,,,,,,,,,,,,
829219,001,2022-11-20_23h55.16.924,Info_measure_main_exp,2022.2.2,Win32,60.07810153,,,,,,,,,,,,,,,,,,masks/mask_002.jpg,,,,,,,,,,,,,,,,,,,,,,,,,,,,,,,,,,,,,,,,,,,0,1,1,1,1,,,,,,,,,,,,,,,,,,,,,,,,,,,,,,,,,,,,,,,,,,,,,,
829219,001,2022-11-20_23h55.16.924,Info_measure_main_exp,2022.2.2,Win32,60.07810153,,,,,,,,,,,,,,,,,,masks/mask_004.jpg,,,,,,,,,,,,,,,,,,,,,,,,,,,,,,,,,,,,,,,,,,,0,2,2,3,1,,,,,,,,,,,,,,,,,,,,,,,,,,,,,,,,,,,,,,,,,,,,,,
829219,001,2022-11-20_23h55.16.924,Info_measure_main_exp,2022.2.2,Win32,60.07810153,,,,,,,,,,,,,,,,,,masks/mask_005.jpg,,,,,,,,,,,,,,,,,,,,,,,,,,,,,,,,,,,,,,,,,,,0,3,3,4,1,,,,,,,,,,,,,,,,,,,,,,,,,,,,,,,,,,,,,,,,,,,,,,
829219,001,2022-11-20_23h55.16.924,Info_measure_main_exp,2022.2.2,Win32,60.07810153,,,,,,,,,,,,,,,,,,masks/mask_003.jpg,,,,,,,,,,,,,,,,,,,,,,,,,,,,,,,,,,,,,,,,,,,0,4,4,2,1,,,,,,,,,,,,,,,,,,,,,,,,,,,,,,,,,,,,,,,,,,,,,,
829219,001,2022-11-20_23h55.16.924,Info_measure_main_exp,2022.2.2,Win32,60.07810153,,,,,,,,,,,,,,,,,,masks/mask_003.jpg,,,,,,,,,,,,,,,,,,,,,,,,,,,,,,,,,,,,,,,,,,,,,,,,0,0,0,2,1,,,,,,,,,,,,,,,,,,,,,,,,,,,,,,,,,,,,,,,,,
829219,001,2022-11-20_23h55.16.924,Info_measure_main_exp,2022.2.2,Win32,60.07810153,,,,,,,,,,,,,,,,,,masks/mask_002.jpg,,,,,,,,,,,,,,,,,,,,,,,,,,,,,,,,,,,,,,,,,,,,,,,,0,1,1,1,1,,,,,,,,,,,,,,,,,,,,,,,,,,,,,,,,,,,,,,,,,
829219,001,2022-11-20_23h55.16.924,Info_measure_main_exp,2022.2.2,Win32,60.07810153,,,,,,,,,,,,,,,,,,masks/mask_004.jpg,,,,,,,,,,,,,,,,,,,,,,,,,,,,,,,,,,,,,,,,,,,,,,,,0,2,2,3,1,,,,,,,,,,,,,,,,,,,,,,,,,,,,,,,,,,,,,,,,,
829219,001,2022-11-20_23h55.16.924,Info_measure_main_exp,2022.2.2,Win32,60.07810153,,,,,,,,,,,,,,,,,,masks/mask_005.jpg,,,,,,,,,,,,,,,,,,,,,,,,,,,,,,,,,,,,,,,,,,,,,,,,0,3,3,4,1,,,,,,,,,,,,,,,,,,,,,,,,,,,,,,,,,,,,,,,,,
829219,001,2022-11-20_23h55.16.924,Info_measure_main_exp,2022.2.2,Win32,60.07810153,,,,,,,,,,,,,,,,,,masks/mask_001.jpg,,,,,,,,,,,,,,,,,,,,,,,,,,,,,,,,,,,,,,,,,,,,,,,,0,4,4,0,1,,,,,,,,,,,,,,,,,,,,,,,,,,,,,,,,,,,,,,,,,
829219,001,2022-11-20_23h55.16.924,Info_measure_main_exp,2022.2.2,Win32,60.07810153,,,,,,,,,,,,,,,,,,,,,,,,,,,,,,5,1.7927,1,,,,,,,,,,,,0,131,5,5,2190,1986,absent_patch/patch0002190.jpg,absent_patch/patch0001986.jpg,,,,,,,,,,,,,,,,,,,,0.086111139,-0.037962984,1,0,0,response3disk,12,0,-0.000925947,1,0,0,center_square,0,11,11,111,1,,,,,,,,,,,,,,,,,,,,,,,
829219,001,2022-11-20_23h55.16.924,Info_measure_main_exp,2022.2.2,Win32,60.07810153,,,,,,,,,,,,,,,,,,masks/mask_005.jpg,,,,,,,,,,,,,,,,,,,,,,,,,,,,,,,,,,,,,,,,,,,0,0,0,4,1,,,,,,,,,,,,,,,,,,,,,,,,,,,,,,,,,,,,,,,,,,,,,,
829219,001,2022-11-20_23h55.16.924,Info_measure_main_exp,2022.2.2,Win32,60.07810153,,,,,,,,,,,,,,,,,,masks/mask_001.jpg,,,,,,,,,,,,,,,,,,,,,,,,,,,,,,,,,,,,,,,,,,,0,1,1,0,1,,,,,,,,,,,,,,,,,,,,,,,,,,,,,,,,,,,,,,,,,,,,,,
829219,001,2022-11-20_23h55.16.924,Info_measure_main_exp,2022.2.2,Win32,60.07810153,,,,,,,,,,,,,,,,,,masks/mask_002.jpg,,,,,,,,,,,,,,,,,,,,,,,,,,,,,,,,,,,,,,,,,,,0,2,2,1,1,,,,,,,,,,,,,,,,,,,,,,,,,,,,,,,,,,,,,,,,,,,,,,
829219,001,2022-11-20_23h55.16.924,Info_measure_main_exp,2022.2.2,Win32,60.07810153,,,,,,,,,,,,,,,,,,masks/mask_004.jpg,,,,,,,,,,,,,,,,,,,,,,,,,,,,,,,,,,,,,,,,,,,0,3,3,3,1,,,,,,,,,,,,,,,,,,,,,,,,,,,,,,,,,,,,,,,,,,,,,,
829219,001,2022-11-20_23h55.16.924,Info_measure_main_exp,2022.2.2,Win32,60.07810153,,,,,,,,,,,,,,,,,,masks/mask_003.jpg,,,,,,,,,,,,,,,,,,,,,,,,,,,,,,,,,,,,,,,,,,,0,4,4,2,1,,,,,,,,,,,,,,,,,,,,,,,,,,,,,,,,,,,,,,,,,,,,,,
829219,001,2022-11-20_23h55.16.924,Info_measure_main_exp,2022.2.2,Win32,60.07810153,,,,,,,,,,,,,,,,,,masks/mask_002.jpg,,,,,,,,,,,,,,,,,,,,,,,,,,,,,,,,,,,,,,,,,,,,,,,,0,0,0,1,1,,,,,,,,,,,,,,,,,,,,,,,,,,,,,,,,,,,,,,,,,
829219,001,2022-11-20_23h55.16.924,Info_measure_main_exp,2022.2.2,Win32,60.07810153,,,,,,,,,,,,,,,,,,masks/mask_005.jpg,,,,,,,,,,,,,,,,,,,,,,,,,,,,,,,,,,,,,,,,,,,,,,,,0,1,1,4,1,,,,,,,,,,,,,,,,,,,,,,,,,,,,,,,,,,,,,,,,,
829219,001,2022-11-20_23h55.16.924,Info_measure_main_exp,2022.2.2,Win32,60.07810153,,,,,,,,,,,,,,,,,,masks/mask_001.jpg,,,,,,,,,,,,,,,,,,,,,,,,,,,,,,,,,,,,,,,,,,,,,,,,0,2,2,0,1,,,,,,,,,,,,,,,,,,,,,,,,,,,,,,,,,,,,,,,,,
829219,001,2022-11-20_23h55.16.924,Info_measure_main_exp,2022.2.2,Win32,60.07810153,,,,,,,,,,,,,,,,,,masks/mask_003.jpg,,,,,,,,,,,,,,,,,,,,,,,,,,,,,,,,,,,,,,,,,,,,,,,,0,3,3,2,1,,,,,,,,,,,,,,,,,,,,,,,,,,,,,,,,,,,,,,,,,
829219,001,2022-11-20_23h55.16.924,Info_measure_main_exp,2022.2.2,Win32,60.07810153,,,,,,,,,,,,,,,,,,masks/mask_004.jpg,,,,,,,,,,,,,,,,,,,,,,,,,,,,,,,,,,,,,,,,,,,,,,,,0,4,4,3,1,,,,,,,,,,,,,,,,,,,,,,,,,,,,,,,,,,,,,,,,,
829219,001,2022-11-20_23h55.16.924,Info_measure_main_exp,2022.2.2,Win32,60.07810153,,,,,,,,,,,,,,,,,,,,,,,,,,,,,,7,1.0949,1,,,,,,,,,,,,0,131,5,5,2178,2238,absent_patch/patch0002178.jpg,absent_patch/patch0002238.jpg,,,,,,,,,,,,,,,,,,,,0.037962949,0.054629608,1,0,0,response1disk,13,-0.003703718,-0.000925947,1,0,0,center_square,0,12,12,57,1,,,,,,,,,,,,,,,,,,,,,,,
829219,001,2022-11-20_23h55.16.924,Info_measure_main_exp,2022.2.2,Win32,60.07810153,,,,,,,,,,,,,,,,,,masks/mask_004.jpg,,,,,,,,,,,,,,,,,,,,,,,,,,,,,,,,,,,,,,,,,,,0,0,0,3,1,,,,,,,,,,,,,,,,,,,,,,,,,,,,,,,,,,,,,,,,,,,,,,
829219,001,2022-11-20_23h55.16.924,Info_measure_main_exp,2022.2.2,Win32,60.07810153,,,,,,,,,,,,,,,,,,masks/mask_002.jpg,,,,,,,,,,,,,,,,,,,,,,,,,,,,,,,,,,,,,,,,,,,0,1,1,1,1,,,,,,,,,,,,,,,,,,,,,,,,,,,,,,,,,,,,,,,,,,,,,,
829219,001,2022-11-20_23h55.16.924,Info_measure_main_exp,2022.2.2,Win32,60.07810153,,,,,,,,,,,,,,,,,,masks/mask_001.jpg,,,,,,,,,,,,,,,,,,,,,,,,,,,,,,,,,,,,,,,,,,,0,2,2,0,1,,,,,,,,,,,,,,,,,,,,,,,,,,,,,,,,,,,,,,,,,,,,,,
829219,001,2022-11-20_23h55.16.924,Info_measure_main_exp,2022.2.2,Win32,60.07810153,,,,,,,,,,,,,,,,,,masks/mask_003.jpg,,,,,,,,,,,,,,,,,,,,,,,,,,,,,,,,,,,,,,,,,,,0,3,3,2,1,,,,,,,,,,,,,,,,,,,,,,,,,,,,,,,,,,,,,,,,,,,,,,
829219,001,2022-11-20_23h55.16.924,Info_measure_main_exp,2022.2.2,Win32,60.07810153,,,,,,,,,,,,,,,,,,masks/mask_005.jpg,,,,,,,,,,,,,,,,,,,,,,,,,,,,,,,,,,,,,,,,,,,0,4,4,4,1,,,,,,,,,,,,,,,,,,,,,,,,,,,,,,,,,,,,,,,,,,,,,,
829219,001,2022-11-20_23h55.16.924,Info_measure_main_exp,2022.2.2,Win32,60.07810153,,,,,,,,,,,,,,,,,,masks/mask_001.jpg,,,,,,,,,,,,,,,,,,,,,,,,,,,,,,,,,,,,,,,,,,,,,,,,0,0,0,0,1,,,,,,,,,,,,,,,,,,,,,,,,,,,,,,,,,,,,,,,,,
829219,001,2022-11-20_23h55.16.924,Info_measure_main_exp,2022.2.2,Win32,60.07810153,,,,,,,,,,,,,,,,,,masks/mask_004.jpg,,,,,,,,,,,,,,,,,,,,,,,,,,,,,,,,,,,,,,,,,,,,,,,,0,1,1,3,1,,,,,,,,,,,,,,,,,,,,,,,,,,,,,,,,,,,,,,,,,
829219,001,2022-11-20_23h55.16.924,Info_measure_main_exp,2022.2.2,Win32,60.07810153,,,,,,,,,,,,,,,,,,masks/mask_003.jpg,,,,,,,,,,,,,,,,,,,,,,,,,,,,,,,,,,,,,,,,,,,,,,,,0,2,2,2,1,,,,,,,,,,,,,,,,,,,,,,,,,,,,,,,,,,,,,,,,,
829219,001,2022-11-20_23h55.16.924,Info_measure_main_exp,2022.2.2,Win32,60.07810153,,,,,,,,,,,,,,,,,,masks/mask_002.jpg,,,,,,,,,,,,,,,,,,,,,,,,,,,,,,,,,,,,,,,,,,,,,,,,0,3,3,1,1,,,,,,,,,,,,,,,,,,,,,,,,,,,,,,,,,,,,,,,,,
829219,001,2022-11-20_23h55.16.924,Info_measure_main_exp,2022.2.2,Win32,60.07810153,,,,,,,,,,,,,,,,,,masks/mask_005.jpg,,,,,,,,,,,,,,,,,,,,,,,,,,,,,,,,,,,,,,,,,,,,,,,,0,4,4,4,1,,,,,,,,,,,,,,,,,,,,,,,,,,,,,,,,,,,,,,,,,
829219,001,2022-11-20_23h55.16.924,Info_measure_main_exp,2022.2.2,Win32,60.07810153,,,,,,,,,,,,,,,,,,,,,,,,,,,,,,5,3.5548,1,,,,,,,,,,,,0,131,5,5,2250,2142,absent_patch/patch0002250.jpg,absent_patch/patch0002142.jpg,,,,,,,,,,,,,,,,,,,,0.124074088,-0.077777792,1,0,0,response3disk,14,0.002777806,0,1,0,0,center_square,0,13,13,71,1,,,,,,,,,,,,,,,,,,,,,,,
829219,001,2022-11-20_23h55.16.924,Info_measure_main_exp,2022.2.2,Win32,60.07810153,,,,,,,,,,,,,,,,,,masks/mask_005.jpg,,,,,,,,,,,,,,,,,,,,,,,,,,,,,,,,,,,,,,,,,,,0,0,0,4,1,,,,,,,,,,,,,,,,,,,,,,,,,,,,,,,,,,,,,,,,,,,,,,
829219,001,2022-11-20_23h55.16.924,Info_measure_main_exp,2022.2.2,Win32,60.07810153,,,,,,,,,,,,,,,,,,masks/mask_003.jpg,,,,,,,,,,,,,,,,,,,,,,,,,,,,,,,,,,,,,,,,,,,0,1,1,2,1,,,,,,,,,,,,,,,,,,,,,,,,,,,,,,,,,,,,,,,,,,,,,,
829219,001,2022-11-20_23h55.16.924,Info_measure_main_exp,2022.2.2,Win32,60.07810153,,,,,,,,,,,,,,,,,,masks/mask_001.jpg,,,,,,,,,,,,,,,,,,,,,,,,,,,,,,,,,,,,,,,,,,,0,2,2,0,1,,,,,,,,,,,,,,,,,,,,,,,,,,,,,,,,,,,,,,,,,,,,,,
829219,001,2022-11-20_23h55.16.924,Info_measure_main_exp,2022.2.2,Win32,60.07810153,,,,,,,,,,,,,,,,,,masks/mask_002.jpg,,,,,,,,,,,,,,,,,,,,,,,,,,,,,,,,,,,,,,,,,,,0,3,3,1,1,,,,,,,,,,,,,,,,,,,,,,,,,,,,,,,,,,,,,,,,,,,,,,
829219,001,2022-11-20_23h55.16.924,Info_measure_main_exp,2022.2.2,Win32,60.07810153,,,,,,,,,,,,,,,,,,masks/mask_004.jpg,,,,,,,,,,,,,,,,,,,,,,,,,,,,,,,,,,,,,,,,,,,0,4,4,3,1,,,,,,,,,,,,,,,,,,,,,,,,,,,,,,,,,,,,,,,,,,,,,,
829219,001,2022-11-20_23h55.16.924,Info_measure_main_exp,2022.2.2,Win32,60.07810153,,,,,,,,,,,,,,,,,,masks/mask_002.jpg,,,,,,,,,,,,,,,,,,,,,,,,,,,,,,,,,,,,,,,,,,,,,,,,0,0,0,1,1,,,,,,,,,,,,,,,,,,,,,,,,,,,,,,,,,,,,,,,,,
829219,001,2022-11-20_23h55.16.924,Info_measure_main_exp,2022.2.2,Win32,60.07810153,,,,,,,,,,,,,,,,,,masks/mask_005.jpg,,,,,,,,,,,,,,,,,,,,,,,,,,,,,,,,,,,,,,,,,,,,,,,,0,1,1,4,1,,,,,,,,,,,,,,,,,,,,,,,,,,,,,,,,,,,,,,,,,
829219,001,2022-11-20_23h55.16.924,Info_measure_main_exp,2022.2.2,Win32,60.07810153,,,,,,,,,,,,,,,,,,masks/mask_003.jpg,,,,,,,,,,,,,,,,,,,,,,,,,,,,,,,,,,,,,,,,,,,,,,,,0,2,2,2,1,,,,,,,,,,,,,,,,,,,,,,,,,,,,,,,,,,,,,,,,,
829219,001,2022-11-20_23h55.16.924,Info_measure_main_exp,2022.2.2,Win32,60.07810153,,,,,,,,,,,,,,,,,,masks/mask_001.jpg,,,,,,,,,,,,,,,,,,,,,,,,,,,,,,,,,,,,,,,,,,,,,,,,0,3,3,0,1,,,,,,,,,,,,,,,,,,,,,,,,,,,,,,,,,,,,,,,,,
829219,001,2022-11-20_23h55.16.924,Info_measure_main_exp,2022.2.2,Win32,60.07810153,,,,,,,,,,,,,,,,,,masks/mask_004.jpg,,,,,,,,,,,,,,,,,,,,,,,,,,,,,,,,,,,,,,,,,,,,,,,,0,4,4,3,1,,,,,,,,,,,,,,,,,,,,,,,,,,,,,,,,,,,,,,,,,
829219,001,2022-11-20_23h55.16.924,Info_measure_main_exp,2022.2.2,Win32,60.07810153,,,,,,,,,,,,,,,,,,,,,,,,,,,,,,2,1.2578,1,,,,,,,,,,,,0,131,5,5,2178,2142,absent_patch/patch0002178.jpg,absent_patch/patch0002142.jpg,,,,,,,,,,,,,,,,,,,,-0.095370328,-0.071296303,1,0,0,response5disk,15,0.006481524,-0.003703718,1,0,0,center_square,0,14,14,41,1,,,,,,,,,,,,,,,,,,,,,,,
829219,001,2022-11-20_23h55.16.924,Info_measure_main_exp,2022.2.2,Win32,60.07810153,,,,,,,,,,,,,,,,,,masks/mask_001.jpg,,,,,,,,,,,,,,,,,,,,,,,,,,,,,,,,,,,,,,,,,,,0,0,0,0,1,,,,,,,,,,,,,,,,,,,,,,,,,,,,,,,,,,,,,,,,,,,,,,
829219,001,2022-11-20_23h55.16.924,Info_measure_main_exp,2022.2.2,Win32,60.07810153,,,,,,,,,,,,,,,,,,masks/mask_005.jpg,,,,,,,,,,,,,,,,,,,,,,,,,,,,,,,,,,,,,,,,,,,0,1,1,4,1,,,,,,,,,,,,,,,,,,,,,,,,,,,,,,,,,,,,,,,,,,,,,,
829219,001,2022-11-20_23h55.16.924,Info_measure_main_exp,2022.2.2,Win32,60.07810153,,,,,,,,,,,,,,,,,,masks/mask_003.jpg,,,,,,,,,,,,,,,,,,,,,,,,,,,,,,,,,,,,,,,,,,,0,2,2,2,1,,,,,,,,,,,,,,,,,,,,,,,,,,,,,,,,,,,,,,,,,,,,,,
829219,001,2022-11-20_23h55.16.924,Info_measure_main_exp,2022.2.2,Win32,60.07810153,,,,,,,,,,,,,,,,,,masks/mask_004.jpg,,,,,,,,,,,,,,,,,,,,,,,,,,,,,,,,,,,,,,,,,,,0,3,3,3,1,,,,,,,,,,,,,,,,,,,,,,,,,,,,,,,,,,,,,,,,,,,,,,
829219,001,2022-11-20_23h55.16.924,Info_measure_main_exp,2022.2.2,Win32,60.07810153,,,,,,,,,,,,,,,,,,masks/mask_002.jpg,,,,,,,,,,,,,,,,,,,,,,,,,,,,,,,,,,,,,,,,,,,0,4,4,1,1,,,,,,,,,,,,,,,,,,,,,,,,,,,,,,,,,,,,,,,,,,,,,,
829219,001,2022-11-20_23h55.16.924,Info_measure_main_exp,2022.2.2,Win32,60.07810153,,,,,,,,,,,,,,,,,,masks/mask_004.jpg,,,,,,,,,,,,,,,,,,,,,,,,,,,,,,,,,,,,,,,,,,,,,,,,0,0,0,3,1,,,,,,,,,,,,,,,,,,,,,,,,,,,,,,,,,,,,,,,,,
829219,001,2022-11-20_23h55.16.924,Info_measure_main_exp,2022.2.2,Win32,60.07810153,,,,,,,,,,,,,,,,,,masks/mask_002.jpg,,,,,,,,,,,,,,,,,,,,,,,,,,,,,,,,,,,,,,,,,,,,,,,,0,1,1,1,1,,,,,,,,,,,,,,,,,,,,,,,,,,,,,,,,,,,,,,,,,
829219,001,2022-11-20_23h55.16.924,Info_measure_main_exp,2022.2.2,Win32,60.07810153,,,,,,,,,,,,,,,,,,masks/mask_005.jpg,,,,,,,,,,,,,,,,,,,,,,,,,,,,,,,,,,,,,,,,,,,,,,,,0,2,2,4,1,,,,,,,,,,,,,,,,,,,,,,,,,,,,,,,,,,,,,,,,,
829219,001,2022-11-20_23h55.16.924,Info_measure_main_exp,2022.2.2,Win32,60.07810153,,,,,,,,,,,,,,,,,,masks/mask_003.jpg,,,,,,,,,,,,,,,,,,,,,,,,,,,,,,,,,,,,,,,,,,,,,,,,0,3,3,2,1,,,,,,,,,,,,,,,,,,,,,,,,,,,,,,,,,,,,,,,,,
829219,001,2022-11-20_23h55.16.924,Info_measure_main_exp,2022.2.2,Win32,60.07810153,,,,,,,,,,,,,,,,,,masks/mask_001.jpg,,,,,,,,,,,,,,,,,,,,,,,,,,,,,,,,,,,,,,,,,,,,,,,,0,4,4,0,1,,,,,,,,,,,,,,,,,,,,,,,,,,,,,,,,,,,,,,,,,
829219,001,2022-11-20_23h55.16.924,Info_measure_main_exp,2022.2.2,Win32,60.07810153,,,,,,,,,,,,,,,,,,,,,,,,,,,,,,0,0.879,1,,,,,,,,,,,,0,131,5,5,2190,2190,absent_patch/patch0002190.jpg,absent_patch/patch0002190.jpg,,,,,,,,,,,,,,,,,,,,-0.077777792,0.112037023,1,0,0,response7disk,16,-0.011111083,-0.001851859,1,0,0,center_square,0,15,15,86,1,,,,,,,,,,,,,,,,,,,,,,,
829219,001,2022-11-20_23h55.16.924,Info_measure_main_exp,2022.2.2,Win32,60.07810153,,,,,,,,,,,,,,,,,,masks/mask_002.jpg,,,,,,,,,,,,,,,,,,,,,,,,,,,,,,,,,,,,,,,,,,,0,0,0,1,1,,,,,,,,,,,,,,,,,,,,,,,,,,,,,,,,,,,,,,,,,,,,,,
829219,001,2022-11-20_23h55.16.924,Info_measure_main_exp,2022.2.2,Win32,60.07810153,,,,,,,,,,,,,,,,,,masks/mask_004.jpg,,,,,,,,,,,,,,,,,,,,,,,,,,,,,,,,,,,,,,,,,,,0,1,1,3,1,,,,,,,,,,,,,,,,,,,,,,,,,,,,,,,,,,,,,,,,,,,,,,
829219,001,2022-11-20_23h55.16.924,Info_measure_main_exp,2022.2.2,Win32,60.07810153,,,,,,,,,,,,,,,,,,masks/mask_001.jpg,,,,,,,,,,,,,,,,,,,,,,,,,,,,,,,,,,,,,,,,,,,0,2,2,0,1,,,,,,,,,,,,,,,,,,,,,,,,,,,,,,,,,,,,,,,,,,,,,,
829219,001,2022-11-20_23h55.16.924,Info_measure_main_exp,2022.2.2,Win32,60.07810153,,,,,,,,,,,,,,,,,,masks/mask_003.jpg,,,,,,,,,,,,,,,,,,,,,,,,,,,,,,,,,,,,,,,,,,,0,3,3,2,1,,,,,,,,,,,,,,,,,,,,,,,,,,,,,,,,,,,,,,,,,,,,,,
829219,001,2022-11-20_23h55.16.924,Info_measure_main_exp,2022.2.2,Win32,60.07810153,,,,,,,,,,,,,,,,,,masks/mask_005.jpg,,,,,,,,,,,,,,,,,,,,,,,,,,,,,,,,,,,,,,,,,,,0,4,4,4,1,,,,,,,,,,,,,,,,,,,,,,,,,,,,,,,,,,,,,,,,,,,,,,
829219,001,2022-11-20_23h55.16.924,Info_measure_main_exp,2022.2.2,Win32,60.07810153,,,,,,,,,,,,,,,,,,masks/mask_005.jpg,,,,,,,,,,,,,,,,,,,,,,,,,,,,,,,,,,,,,,,,,,,,,,,,0,0,0,4,1,,,,,,,,,,,,,,,,,,,,,,,,,,,,,,,,,,,,,,,,,
829219,001,2022-11-20_23h55.16.924,Info_measure_main_exp,2022.2.2,Win32,60.07810153,,,,,,,,,,,,,,,,,,masks/mask_004.jpg,,,,,,,,,,,,,,,,,,,,,,,,,,,,,,,,,,,,,,,,,,,,,,,,0,1,1,3,1,,,,,,,,,,,,,,,,,,,,,,,,,,,,,,,,,,,,,,,,,
829219,001,2022-11-20_23h55.16.924,Info_measure_main_exp,2022.2.2,Win32,60.07810153,,,,,,,,,,,,,,,,,,masks/mask_003.jpg,,,,,,,,,,,,,,,,,,,,,,,,,,,,,,,,,,,,,,,,,,,,,,,,0,2,2,2,1,,,,,,,,,,,,,,,,,,,,,,,,,,,,,,,,,,,,,,,,,
829219,001,2022-11-20_23h55.16.924,Info_measure_main_exp,2022.2.2,Win32,60.07810153,,,,,,,,,,,,,,,,,,masks/mask_002.jpg,,,,,,,,,,,,,,,,,,,,,,,,,,,,,,,,,,,,,,,,,,,,,,,,0,3,3,1,1,,,,,,,,,,,,,,,,,,,,,,,,,,,,,,,,,,,,,,,,,
829219,001,2022-11-20_23h55.16.924,Info_measure_main_exp,2022.2.2,Win32,60.07810153,,,,,,,,,,,,,,,,,,masks/mask_001.jpg,,,,,,,,,,,,,,,,,,,,,,,,,,,,,,,,,,,,,,,,,,,,,,,,0,4,4,0,1,,,,,,,,,,,,,,,,,,,,,,,,,,,,,,,,,,,,,,,,,
829219,001,2022-11-20_23h55.16.924,Info_measure_main_exp,2022.2.2,Win32,60.07810153,,,,,,,,,,,,,,,,,,,,,,,,,,,,,,6,2.1675,1,,,,,,,,,,,,0,131,5,5,1974,2238,absent_patch/patch0001974.jpg,absent_patch/patch0002238.jpg,,,,,,,,,,,,,,,,,,,,0.090740769,0.022222201,1,0,0,response1disk,17,-0.003703718,0.003703683,1,0,0,center_square,0,16,16,95,1,,,,,,,,,,,,,,,,,,,,,,,
829219,001,2022-11-20_23h55.16.924,Info_measure_main_exp,2022.2.2,Win32,60.07810153,,,,,,,,,,,,,,,,,,masks/mask_004.jpg,,,,,,,,,,,,,,,,,,,,,,,,,,,,,,,,,,,,,,,,,,,0,0,0,3,1,,,,,,,,,,,,,,,,,,,,,,,,,,,,,,,,,,,,,,,,,,,,,,
829219,001,2022-11-20_23h55.16.924,Info_measure_main_exp,2022.2.2,Win32,60.07810153,,,,,,,,,,,,,,,,,,masks/mask_003.jpg,,,,,,,,,,,,,,,,,,,,,,,,,,,,,,,,,,,,,,,,,,,0,1,1,2,1,,,,,,,,,,,,,,,,,,,,,,,,,,,,,,,,,,,,,,,,,,,,,,
829219,001,2022-11-20_23h55.16.924,Info_measure_main_exp,2022.2.2,Win32,60.07810153,,,,,,,,,,,,,,,,,,masks/mask_001.jpg,,,,,,,,,,,,,,,,,,,,,,,,,,,,,,,,,,,,,,,,,,,0,2,2,0,1,,,,,,,,,,,,,,,,,,,,,,,,,,,,,,,,,,,,,,,,,,,,,,
829219,001,2022-11-20_23h55.16.924,Info_measure_main_exp,2022.2.2,Win32,60.07810153,,,,,,,,,,,,,,,,,,masks/mask_002.jpg,,,,,,,,,,,,,,,,,,,,,,,,,,,,,,,,,,,,,,,,,,,0,3,3,1,1,,,,,,,,,,,,,,,,,,,,,,,,,,,,,,,,,,,,,,,,,,,,,,
829219,001,2022-11-20_23h55.16.924,Info_measure_main_exp,2022.2.2,Win32,60.07810153,,,,,,,,,,,,,,,,,,masks/mask_005.jpg,,,,,,,,,,,,,,,,,,,,,,,,,,,,,,,,,,,,,,,,,,,0,4,4,4,1,,,,,,,,,,,,,,,,,,,,,,,,,,,,,,,,,,,,,,,,,,,,,,
829219,001,2022-11-20_23h55.16.924,Info_measure_main_exp,2022.2.2,Win32,60.07810153,,,,,,,,,,,,,,,,,,masks/mask_002.jpg,,,,,,,,,,,,,,,,,,,,,,,,,,,,,,,,,,,,,,,,,,,,,,,,0,0,0,1,1,,,,,,,,,,,,,,,,,,,,,,,,,,,,,,,,,,,,,,,,,
829219,001,2022-11-20_23h55.16.924,Info_measure_main_exp,2022.2.2,Win32,60.07810153,,,,,,,,,,,,,,,,,,masks/mask_003.jpg,,,,,,,,,,,,,,,,,,,,,,,,,,,,,,,,,,,,,,,,,,,,,,,,0,1,1,2,1,,,,,,,,,,,,,,,,,,,,,,,,,,,,,,,,,,,,,,,,,
829219,001,2022-11-20_23h55.16.924,Info_measure_main_exp,2022.2.2,Win32,60.07810153,,,,,,,,,,,,,,,,,,masks/mask_004.jpg,,,,,,,,,,,,,,,,,,,,,,,,,,,,,,,,,,,,,,,,,,,,,,,,0,2,2,3,1,,,,,,,,,,,,,,,,,,,,,,,,,,,,,,,,,,,,,,,,,
829219,001,2022-11-20_23h55.16.924,Info_measure_main_exp,2022.2.2,Win32,60.07810153,,,,,,,,,,,,,,,,,,masks/mask_005.jpg,,,,,,,,,,,,,,,,,,,,,,,,,,,,,,,,,,,,,,,,,,,,,,,,0,3,3,4,1,,,,,,,,,,,,,,,,,,,,,,,,,,,,,,,,,,,,,,,,,
829219,001,2022-11-20_23h55.16.924,Info_measure_main_exp,2022.2.2,Win32,60.07810153,,,,,,,,,,,,,,,,,,masks/mask_001.jpg,,,,,,,,,,,,,,,,,,,,,,,,,,,,,,,,,,,,,,,,,,,,,,,,0,4,4,0,1,,,,,,,,,,,,,,,,,,,,,,,,,,,,,,,,,,,,,,,,,
829219,001,2022-11-20_23h55.16.924,Info_measure_main_exp,2022.2.2,Win32,60.07810153,,,,,,,,,,,,,,,,,,,,,,,,,,,,,,5,1.999,1,,,,,,,,,,,,1,131,5,5,2298,1,absent_patch/patch0002298.jpg,present_patch/cong_131_5_a.jpg,,,,,,,,,,,,,,,,,,,,0.090740769,-0.024074095,1,0,0,response3disk,18,-0.009259259,0.000925912,1,0,0,center_square,0,17,17,45,1,,,,,,,,,,,,,,,,,,,,,,,
829219,001,2022-11-20_23h55.16.924,Info_measure_main_exp,2022.2.2,Win32,60.07810153,,,,,,,,,,,,,,,,,,masks/mask_004.jpg,,,,,,,,,,,,,,,,,,,,,,,,,,,,,,,,,,,,,,,,,,,0,0,0,3,1,,,,,,,,,,,,,,,,,,,,,,,,,,,,,,,,,,,,,,,,,,,,,,
829219,001,2022-11-20_23h55.16.924,Info_measure_main_exp,2022.2.2,Win32,60.07810153,,,,,,,,,,,,,,,,,,masks/mask_002.jpg,,,,,,,,,,,,,,,,,,,,,,,,,,,,,,,,,,,,,,,,,,,0,1,1,1,1,,,,,,,,,,,,,,,,,,,,,,,,,,,,,,,,,,,,,,,,,,,,,,
829219,001,2022-11-20_23h55.16.924,Info_measure_main_exp,2022.2.2,Win32,60.07810153,,,,,,,,,,,,,,,,,,masks/mask_003.jpg,,,,,,,,,,,,,,,,,,,,,,,,,,,,,,,,,,,,,,,,,,,0,2,2,2,1,,,,,,,,,,,,,,,,,,,,,,,,,,,,,,,,,,,,,,,,,,,,,,
829219,001,2022-11-20_23h55.16.924,Info_measure_main_exp,2022.2.2,Win32,60.07810153,,,,,,,,,,,,,,,,,,masks/mask_005.jpg,,,,,,,,,,,,,,,,,,,,,,,,,,,,,,,,,,,,,,,,,,,0,3,3,4,1,,,,,,,,,,,,,,,,,,,,,,,,,,,,,,,,,,,,,,,,,,,,,,
829219,001,2022-11-20_23h55.16.924,Info_measure_main_exp,2022.2.2,Win32,60.07810153,,,,,,,,,,,,,,,,,,masks/mask_001.jpg,,,,,,,,,,,,,,,,,,,,,,,,,,,,,,,,,,,,,,,,,,,0,4,4,0,1,,,,,,,,,,,,,,,,,,,,,,,,,,,,,,,,,,,,,,,,,,,,,,
829219,001,2022-11-20_23h55.16.924,Info_measure_main_exp,2022.2.2,Win32,60.07810153,,,,,,,,,,,,,,,,,,masks/mask_005.jpg,,,,,,,,,,,,,,,,,,,,,,,,,,,,,,,,,,,,,,,,,,,,,,,,0,0,0,4,1,,,,,,,,,,,,,,,,,,,,,,,,,,,,,,,,,,,,,,,,,
829219,001,2022-11-20_23h55.16.924,Info_measure_main_exp,2022.2.2,Win32,60.07810153,,,,,,,,,,,,,,,,,,masks/mask_001.jpg,,,,,,,,,,,,,,,,,,,,,,,,,,,,,,,,,,,,,,,,,,,,,,,,0,1,1,0,1,,,,,,,,,,,,,,,,,,,,,,,,,,,,,,,,,,,,,,,,,
829219,001,2022-11-20_23h55.16.924,Info_measure_main_exp,2022.2.2,Win32,60.07810153,,,,,,,,,,,,,,,,,,masks/mask_003.jpg,,,,,,,,,,,,,,,,,,,,,,,,,,,,,,,,,,,,,,,,,,,,,,,,0,2,2,2,1,,,,,,,,,,,,,,,,,,,,,,,,,,,,,,,,,,,,,,,,,
829219,001,2022-11-20_23h55.16.924,Info_measure_main_exp,2022.2.2,Win32,60.07810153,,,,,,,,,,,,,,,,,,masks/mask_002.jpg,,,,,,,,,,,,,,,,,,,,,,,,,,,,,,,,,,,,,,,,,,,,,,,,0,3,3,1,1,,,,,,,,,,,,,,,,,,,,,,,,,,,,,,,,,,,,,,,,,
829219,001,2022-11-20_23h55.16.924,Info_measure_main_exp,2022.2.2,Win32,60.07810153,,,,,,,,,,,,,,,,,,masks/mask_004.jpg,,,,,,,,,,,,,,,,,,,,,,,,,,,,,,,,,,,,,,,,,,,,,,,,0,4,4,3,1,,,,,,,,,,,,,,,,,,,,,,,,,,,,,,,,,,,,,,,,,
829219,001,2022-11-20_23h55.16.924,Info_measure_main_exp,2022.2.2,Win32,60.07810153,,,,,,,,,,,,,,,,,,,,,,,,,,,,,,5,1.599,1,,,,,,,,,,,,0,131,5,5,2166,1986,absent_patch/patch0002166.jpg,absent_patch/patch0001986.jpg,,,,,,,,,,,,,,,,,,,,0.12962963,-0.076851845,1,0,0,response3disk,19,0.000925912,-0.008333347,1,0,0,center_square,0,18,18,47,1,,,,,,,,,,,,,,,,,,,,,,,
829219,001,2022-11-20_23h55.16.924,Info_measure_main_exp,2022.2.2,Win32,60.07810153,,,,,,,,,,,,,,,,,,masks/mask_005.jpg,,,,,,,,,,,,,,,,,,,,,,,,,,,,,,,,,,,,,,,,,,,0,0,0,4,1,,,,,,,,,,,,,,,,,,,,,,,,,,,,,,,,,,,,,,,,,,,,,,
829219,001,2022-11-20_23h55.16.924,Info_measure_main_exp,2022.2.2,Win32,60.07810153,,,,,,,,,,,,,,,,,,masks/mask_001.jpg,,,,,,,,,,,,,,,,,,,,,,,,,,,,,,,,,,,,,,,,,,,0,1,1,0,1,,,,,,,,,,,,,,,,,,,,,,,,,,,,,,,,,,,,,,,,,,,,,,
829219,001,2022-11-20_23h55.16.924,Info_measure_main_exp,2022.2.2,Win32,60.07810153,,,,,,,,,,,,,,,,,,masks/mask_004.jpg,,,,,,,,,,,,,,,,,,,,,,,,,,,,,,,,,,,,,,,,,,,0,2,2,3,1,,,,,,,,,,,,,,,,,,,,,,,,,,,,,,,,,,,,,,,,,,,,,,
829219,001,2022-11-20_23h55.16.924,Info_measure_main_exp,2022.2.2,Win32,60.07810153,,,,,,,,,,,,,,,,,,masks/mask_003.jpg,,,,,,,,,,,,,,,,,,,,,,,,,,,,,,,,,,,,,,,,,,,0,3,3,2,1,,,,,,,,,,,,,,,,,,,,,,,,,,,,,,,,,,,,,,,,,,,,,,
829219,001,2022-11-20_23h55.16.924,Info_measure_main_exp,2022.2.2,Win32,60.07810153,,,,,,,,,,,,,,,,,,masks/mask_002.jpg,,,,,,,,,,,,,,,,,,,,,,,,,,,,,,,,,,,,,,,,,,,0,4,4,1,1,,,,,,,,,,,,,,,,,,,,,,,,,,,,,,,,,,,,,,,,,,,,,,
829219,001,2022-11-20_23h55.16.924,Info_measure_main_exp,2022.2.2,Win32,60.07810153,,,,,,,,,,,,,,,,,,masks/mask_003.jpg,,,,,,,,,,,,,,,,,,,,,,,,,,,,,,,,,,,,,,,,,,,,,,,,0,0,0,2,1,,,,,,,,,,,,,,,,,,,,,,,,,,,,,,,,,,,,,,,,,
829219,001,2022-11-20_23h55.16.924,Info_measure_main_exp,2022.2.2,Win32,60.07810153,,,,,,,,,,,,,,,,,,masks/mask_005.jpg,,,,,,,,,,,,,,,,,,,,,,,,,,,,,,,,,,,,,,,,,,,,,,,,0,1,1,4,1,,,,,,,,,,,,,,,,,,,,,,,,,,,,,,,,,,,,,,,,,
829219,001,2022-11-20_23h55.16.924,Info_measure_main_exp,2022.2.2,Win32,60.07810153,,,,,,,,,,,,,,,,,,masks/mask_002.jpg,,,,,,,,,,,,,,,,,,,,,,,,,,,,,,,,,,,,,,,,,,,,,,,,0,2,2,1,1,,,,,,,,,,,,,,,,,,,,,,,,,,,,,,,,,,,,,,,,,
829219,001,2022-11-20_23h55.16.924,Info_measure_main_exp,2022.2.2,Win32,60.07810153,,,,,,,,,,,,,,,,,,masks/mask_001.jpg,,,,,,,,,,,,,,,,,,,,,,,,,,,,,,,,,,,,,,,,,,,,,,,,0,3,3,0,1,,,,,,,,,,,,,,,,,,,,,,,,,,,,,,,,,,,,,,,,,
829219,001,2022-11-20_23h55.16.924,Info_measure_main_exp,2022.2.2,Win32,60.07810153,,,,,,,,,,,,,,,,,,masks/mask_004.jpg,,,,,,,,,,,,,,,,,,,,,,,,,,,,,,,,,,,,,,,,,,,,,,,,0,4,4,3,1,,,,,,,,,,,,,,,,,,,,,,,,,,,,,,,,,,,,,,,,,
829219,001,2022-11-20_23h55.16.924,Info_measure_main_exp,2022.2.2,Win32,60.07810153,,,,,,,,,,,,,,,,,,,,,,,,,,,,,,0,0.799,1,,,,,,,,,,,,0,131,5,5,2274,2274,absent_patch/patch0002274.jpg,absent_patch/patch0002274.jpg,,,,,,,,,,,,,,,,,,,,-0.045370384,0.096296275,1,0,0,response7disk,20,0.005555541,-0.005555577,1,0,0,center_square,0,19,19,114,1,,,,,,,,,,,,,,,,,,,,,,,
829219,001,2022-11-20_23h55.16.924,Info_measure_main_exp,2022.2.2,Win32,60.07810153,,,,,,,,,,,,,,,,,,masks/mask_005.jpg,,,,,,,,,,,,,,,,,,,,,,,,,,,,,,,,,,,,,,,,,,,0,0,0,4,1,,,,,,,,,,,,,,,,,,,,,,,,,,,,,,,,,,,,,,,,,,,,,,
829219,001,2022-11-20_23h55.16.924,Info_measure_main_exp,2022.2.2,Win32,60.07810153,,,,,,,,,,,,,,,,,,masks/mask_003.jpg,,,,,,,,,,,,,,,,,,,,,,,,,,,,,,,,,,,,,,,,,,,0,1,1,2,1,,,,,,,,,,,,,,,,,,,,,,,,,,,,,,,,,,,,,,,,,,,,,,
829219,001,2022-11-20_23h55.16.924,Info_measure_main_exp,2022.2.2,Win32,60.07810153,,,,,,,,,,,,,,,,,,masks/mask_004.jpg,,,,,,,,,,,,,,,,,,,,,,,,,,,,,,,,,,,,,,,,,,,0,2,2,3,1,,,,,,,,,,,,,,,,,,,,,,,,,,,,,,,,,,,,,,,,,,,,,,
829219,001,2022-11-20_23h55.16.924,Info_measure_main_exp,2022.2.2,Win32,60.07810153,,,,,,,,,,,,,,,,,,masks/mask_001.jpg,,,,,,,,,,,,,,,,,,,,,,,,,,,,,,,,,,,,,,,,,,,0,3,3,0,1,,,,,,,,,,,,,,,,,,,,,,,,,,,,,,,,,,,,,,,,,,,,,,
829219,001,2022-11-20_23h55.16.924,Info_measure_main_exp,2022.2.2,Win32,60.07810153,,,,,,,,,,,,,,,,,,masks/mask_002.jpg,,,,,,,,,,,,,,,,,,,,,,,,,,,,,,,,,,,,,,,,,,,0,4,4,1,1,,,,,,,,,,,,,,,,,,,,,,,,,,,,,,,,,,,,,,,,,,,,,,
829219,001,2022-11-20_23h55.16.924,Info_measure_main_exp,2022.2.2,Win32,60.07810153,,,,,,,,,,,,,,,,,,masks/mask_005.jpg,,,,,,,,,,,,,,,,,,,,,,,,,,,,,,,,,,,,,,,,,,,,,,,,0,0,0,4,1,,,,,,,,,,,,,,,,,,,,,,,,,,,,,,,,,,,,,,,,,
829219,001,2022-11-20_23h55.16.924,Info_measure_main_exp,2022.2.2,Win32,60.07810153,,,,,,,,,,,,,,,,,,masks/mask_001.jpg,,,,,,,,,,,,,,,,,,,,,,,,,,,,,,,,,,,,,,,,,,,,,,,,0,1,1,0,1,,,,,,,,,,,,,,,,,,,,,,,,,,,,,,,,,,,,,,,,,
829219,001,2022-11-20_23h55.16.924,Info_measure_main_exp,2022.2.2,Win32,60.07810153,,,,,,,,,,,,,,,,,,masks/mask_002.jpg,,,,,,,,,,,,,,,,,,,,,,,,,,,,,,,,,,,,,,,,,,,,,,,,0,2,2,1,1,,,,,,,,,,,,,,,,,,,,,,,,,,,,,,,,,,,,,,,,,
829219,001,2022-11-20_23h55.16.924,Info_measure_main_exp,2022.2.2,Win32,60.07810153,,,,,,,,,,,,,,,,,,masks/mask_003.jpg,,,,,,,,,,,,,,,,,,,,,,,,,,,,,,,,,,,,,,,,,,,,,,,,0,3,3,2,1,,,,,,,,,,,,,,,,,,,,,,,,,,,,,,,,,,,,,,,,,
829219,001,2022-11-20_23h55.16.924,Info_measure_main_exp,2022.2.2,Win32,60.07810153,,,,,,,,,,,,,,,,,,masks/mask_004.jpg,,,,,,,,,,,,,,,,,,,,,,,,,,,,,,,,,,,,,,,,,,,,,,,,0,4,4,3,1,,,,,,,,,,,,,,,,,,,,,,,,,,,,,,,,,,,,,,,,,
829219,001,2022-11-20_23h55.16.924,Info_measure_main_exp,2022.2.2,Win32,60.07810153,,,,,,,,,,,,,,,,,,,,,,,,,,,,,,3,0.9327,1,,,,,,,,,,,,0,131,5,5,2142,2166,absent_patch/patch0002142.jpg,absent_patch/patch0002166.jpg,,,,,,,,,,,,,,,,,,,,-0.038888861,-0.077777792,1,0,0,response5disk,21,-0.008333347,-0.006481489,1,0,0,center_square,0,20,20,66,1,,,,,,,,,,,,,,,,,,,,,,,
829219,001,2022-11-20_23h55.16.924,Info_measure_main_exp,2022.2.2,Win32,60.07810153,,,,,,,,,,,,,,,,,,masks/mask_003.jpg,,,,,,,,,,,,,,,,,,,,,,,,,,,,,,,,,,,,,,,,,,,0,0,0,2,1,,,,,,,,,,,,,,,,,,,,,,,,,,,,,,,,,,,,,,,,,,,,,,
829219,001,2022-11-20_23h55.16.924,Info_measure_main_exp,2022.2.2,Win32,60.07810153,,,,,,,,,,,,,,,,,,masks/mask_004.jpg,,,,,,,,,,,,,,,,,,,,,,,,,,,,,,,,,,,,,,,,,,,0,1,1,3,1,,,,,,,,,,,,,,,,,,,,,,,,,,,,,,,,,,,,,,,,,,,,,,
829219,001,2022-11-20_23h55.16.924,Info_measure_main_exp,2022.2.2,Win32,60.07810153,,,,,,,,,,,,,,,,,,masks/mask_002.jpg,,,,,,,,,,,,,,,,,,,,,,,,,,,,,,,,,,,,,,,,,,,0,2,2,1,1,,,,,,,,,,,,,,,,,,,,,,,,,,,,,,,,,,,,,,,,,,,,,,
829219,001,2022-11-20_23h55.16.924,Info_measure_main_exp,2022.2.2,Win32,60.07810153,,,,,,,,,,,,,,,,,,masks/mask_001.jpg,,,,,,,,,,,,,,,,,,,,,,,,,,,,,,,,,,,,,,,,,,,0,3,3,0,1,,,,,,,,,,,,,,,,,,,,,,,,,,,,,,,,,,,,,,,,,,,,,,
829219,001,2022-11-20_23h55.16.924,Info_measure_main_exp,2022.2.2,Win32,60.07810153,,,,,,,,,,,,,,,,,,masks/mask_005.jpg,,,,,,,,,,,,,,,,,,,,,,,,,,,,,,,,,,,,,,,,,,,0,4,4,4,1,,,,,,,,,,,,,,,,,,,,,,,,,,,,,,,,,,,,,,,,,,,,,,
829219,001,2022-11-20_23h55.16.924,Info_measure_main_exp,2022.2.2,Win32,60.07810153,,,,,,,,,,,,,,,,,,masks/mask_004.jpg,,,,,,,,,,,,,,,,,,,,,,,,,,,,,,,,,,,,,,,,,,,,,,,,0,0,0,3,1,,,,,,,,,,,,,,,,,,,,,,,,,,,,,,,,,,,,,,,,,
829219,001,2022-11-20_23h55.16.924,Info_measure_main_exp,2022.2.2,Win32,60.07810153,,,,,,,,,,,,,,,,,,masks/mask_003.jpg,,,,,,,,,,,,,,,,,,,,,,,,,,,,,,,,,,,,,,,,,,,,,,,,0,1,1,2,1,,,,,,,,,,,,,,,,,,,,,,,,,,,,,,,,,,,,,,,,,
829219,001,2022-11-20_23h55.16.924,Info_measure_main_exp,2022.2.2,Win32,60.07810153,,,,,,,,,,,,,,,,,,masks/mask_001.jpg,,,,,,,,,,,,,,,,,,,,,,,,,,,,,,,,,,,,,,,,,,,,,,,,0,2,2,0,1,,,,,,,,,,,,,,,,,,,,,,,,,,,,,,,,,,,,,,,,,
829219,001,2022-11-20_23h55.16.924,Info_measure_main_exp,2022.2.2,Win32,60.07810153,,,,,,,,,,,,,,,,,,masks/mask_002.jpg,,,,,,,,,,,,,,,,,,,,,,,,,,,,,,,,,,,,,,,,,,,,,,,,0,3,3,1,1,,,,,,,,,,,,,,,,,,,,,,,,,,,,,,,,,,,,,,,,,
829219,001,2022-11-20_23h55.16.924,Info_measure_main_exp,2022.2.2,Win32,60.07810153,,,,,,,,,,,,,,,,,,masks/mask_005.jpg,,,,,,,,,,,,,,,,,,,,,,,,,,,,,,,,,,,,,,,,,,,,,,,,0,4,4,4,1,,,,,,,,,,,,,,,,,,,,,,,,,,,,,,,,,,,,,,,,,
829219,001,2022-11-20_23h55.16.924,Info_measure_main_exp,2022.2.2,Win32,60.07810153,,,,,,,,,,,,,,,,,,,,,,,,,,,,,,0,0.7039,1,,,,,,,,,,,,0,131,5,5,2178,2178,absent_patch/patch0002178.jpg,absent_patch/patch0002178.jpg,,,,,,,,,,,,,,,,,,,,-0.020370342,0.088888875,1,0,0,response7disk,22,0.001851894,-0.003703718,1,0,0,center_square,0,21,21,98,1,,,,,,,,,,,,,,,,,,,,,,,
829219,001,2022-11-20_23h55.16.924,Info_measure_main_exp,2022.2.2,Win32,60.07810153,,,,,,,,,,,,,,,,,,masks/mask_004.jpg,,,,,,,,,,,,,,,,,,,,,,,,,,,,,,,,,,,,,,,,,,,0,0,0,3,1,,,,,,,,,,,,,,,,,,,,,,,,,,,,,,,,,,,,,,,,,,,,,,
829219,001,2022-11-20_23h55.16.924,Info_measure_main_exp,2022.2.2,Win32,60.07810153,,,,,,,,,,,,,,,,,,masks/mask_002.jpg,,,,,,,,,,,,,,,,,,,,,,,,,,,,,,,,,,,,,,,,,,,0,1,1,1,1,,,,,,,,,,,,,,,,,,,,,,,,,,,,,,,,,,,,,,,,,,,,,,
829219,001,2022-11-20_23h55.16.924,Info_measure_main_exp,2022.2.2,Win32,60.07810153,,,,,,,,,,,,,,,,,,masks/mask_001.jpg,,,,,,,,,,,,,,,,,,,,,,,,,,,,,,,,,,,,,,,,,,,0,2,2,0,1,,,,,,,,,,,,,,,,,,,,,,,,,,,,,,,,,,,,,,,,,,,,,,
829219,001,2022-11-20_23h55.16.924,Info_measure_main_exp,2022.2.2,Win32,60.07810153,,,,,,,,,,,,,,,,,,masks/mask_003.jpg,,,,,,,,,,,,,,,,,,,,,,,,,,,,,,,,,,,,,,,,,,,0,3,3,2,1,,,,,,,,,,,,,,,,,,,,,,,,,,,,,,,,,,,,,,,,,,,,,,
829219,001,2022-11-20_23h55.16.924,Info_measure_main_exp,2022.2.2,Win32,60.07810153,,,,,,,,,,,,,,,,,,masks/mask_005.jpg,,,,,,,,,,,,,,,,,,,,,,,,,,,,,,,,,,,,,,,,,,,0,4,4,4,1,,,,,,,,,,,,,,,,,,,,,,,,,,,,,,,,,,,,,,,,,,,,,,
829219,001,2022-11-20_23h55.16.924,Info_measure_main_exp,2022.2.2,Win32,60.07810153,,,,,,,,,,,,,,,,,,masks/mask_001.jpg,,,,,,,,,,,,,,,,,,,,,,,,,,,,,,,,,,,,,,,,,,,,,,,,0,0,0,0,1,,,,,,,,,,,,,,,,,,,,,,,,,,,,,,,,,,,,,,,,,
829219,001,2022-11-20_23h55.16.924,Info_measure_main_exp,2022.2.2,Win32,60.07810153,,,,,,,,,,,,,,,,,,masks/mask_003.jpg,,,,,,,,,,,,,,,,,,,,,,,,,,,,,,,,,,,,,,,,,,,,,,,,0,1,1,2,1,,,,,,,,,,,,,,,,,,,,,,,,,,,,,,,,,,,,,,,,,
829219,001,2022-11-20_23h55.16.924,Info_measure_main_exp,2022.2.2,Win32,60.07810153,,,,,,,,,,,,,,,,,,masks/mask_005.jpg,,,,,,,,,,,,,,,,,,,,,,,,,,,,,,,,,,,,,,,,,,,,,,,,0,2,2,4,1,,,,,,,,,,,,,,,,,,,,,,,,,,,,,,,,,,,,,,,,,
829219,001,2022-11-20_23h55.16.924,Info_measure_main_exp,2022.2.2,Win32,60.07810153,,,,,,,,,,,,,,,,,,masks/mask_002.jpg,,,,,,,,,,,,,,,,,,,,,,,,,,,,,,,,,,,,,,,,,,,,,,,,0,3,3,1,1,,,,,,,,,,,,,,,,,,,,,,,,,,,,,,,,,,,,,,,,,
829219,001,2022-11-20_23h55.16.924,Info_measure_main_exp,2022.2.2,Win32,60.07810153,,,,,,,,,,,,,,,,,,masks/mask_004.jpg,,,,,,,,,,,,,,,,,,,,,,,,,,,,,,,,,,,,,,,,,,,,,,,,0,4,4,3,1,,,,,,,,,,,,,,,,,,,,,,,,,,,,,,,,,,,,,,,,,
829219,001,2022-11-20_23h55.16.924,Info_measure_main_exp,2022.2.2,Win32,60.07810153,,,,,,,,,,,,,,,,,,,,,,,,,,,,,,0,0.6829,1,,,,,,,,,,,,0,131,5,5,2250,2250,absent_patch/patch0002250.jpg,absent_patch/patch0002250.jpg,,,,,,,,,,,,,,,,,,,,-0.01944443,0.066666674,1,0,0,response7disk,23,0.001851894,-0.001851859,1,0,0,center_square,0,22,22,56,1,,,,,,,,,,,,,,,,,,,,,,,
829219,001,2022-11-20_23h55.16.924,Info_measure_main_exp,2022.2.2,Win32,60.07810153,,,,,,,,,,,,,,,,,,masks/mask_004.jpg,,,,,,,,,,,,,,,,,,,,,,,,,,,,,,,,,,,,,,,,,,,0,0,0,3,1,,,,,,,,,,,,,,,,,,,,,,,,,,,,,,,,,,,,,,,,,,,,,,
829219,001,2022-11-20_23h55.16.924,Info_measure_main_exp,2022.2.2,Win32,60.07810153,,,,,,,,,,,,,,,,,,masks/mask_001.jpg,,,,,,,,,,,,,,,,,,,,,,,,,,,,,,,,,,,,,,,,,,,0,1,1,0,1,,,,,,,,,,,,,,,,,,,,,,,,,,,,,,,,,,,,,,,,,,,,,,
829219,001,2022-11-20_23h55.16.924,Info_measure_main_exp,2022.2.2,Win32,60.07810153,,,,,,,,,,,,,,,,,,masks/mask_005.jpg,,,,,,,,,,,,,,,,,,,,,,,,,,,,,,,,,,,,,,,,,,,0,2,2,4,1,,,,,,,,,,,,,,,,,,,,,,,,,,,,,,,,,,,,,,,,,,,,,,
829219,001,2022-11-20_23h55.16.924,Info_measure_main_exp,2022.2.2,Win32,60.07810153,,,,,,,,,,,,,,,,,,masks/mask_002.jpg,,,,,,,,,,,,,,,,,,,,,,,,,,,,,,,,,,,,,,,,,,,0,3,3,1,1,,,,,,,,,,,,,,,,,,,,,,,,,,,,,,,,,,,,,,,,,,,,,,
829219,001,2022-11-20_23h55.16.924,Info_measure_main_exp,2022.2.2,Win32,60.07810153,,,,,,,,,,,,,,,,,,masks/mask_003.jpg,,,,,,,,,,,,,,,,,,,,,,,,,,,,,,,,,,,,,,,,,,,0,4,4,2,1,,,,,,,,,,,,,,,,,,,,,,,,,,,,,,,,,,,,,,,,,,,,,,
829219,001,2022-11-20_23h55.16.924,Info_measure_main_exp,2022.2.2,Win32,60.07810153,,,,,,,,,,,,,,,,,,masks/mask_002.jpg,,,,,,,,,,,,,,,,,,,,,,,,,,,,,,,,,,,,,,,,,,,,,,,,0,0,0,1,1,,,,,,,,,,,,,,,,,,,,,,,,,,,,,,,,,,,,,,,,,
829219,001,2022-11-20_23h55.16.924,Info_measure_main_exp,2022.2.2,Win32,60.07810153,,,,,,,,,,,,,,,,,,masks/mask_001.jpg,,,,,,,,,,,,,,,,,,,,,,,,,,,,,,,,,,,,,,,,,,,,,,,,0,1,1,0,1,,,,,,,,,,,,,,,,,,,,,,,,,,,,,,,,,,,,,,,,,
829219,001,2022-11-20_23h55.16.924,Info_measure_main_exp,2022.2.2,Win32,60.07810153,,,,,,,,,,,,,,,,,,masks/mask_004.jpg,,,,,,,,,,,,,,,,,,,,,,,,,,,,,,,,,,,,,,,,,,,,,,,,0,2,2,3,1,,,,,,,,,,,,,,,,,,,,,,,,,,,,,,,,,,,,,,,,,
829219,001,2022-11-20_23h55.16.924,Info_measure_main_exp,2022.2.2,Win32,60.07810153,,,,,,,,,,,,,,,,,,masks/mask_005.jpg,,,,,,,,,,,,,,,,,,,,,,,,,,,,,,,,,,,,,,,,,,,,,,,,0,3,3,4,1,,,,,,,,,,,,,,,,,,,,,,,,,,,,,,,,,,,,,,,,,
829219,001,2022-11-20_23h55.16.924,Info_measure_main_exp,2022.2.2,Win32,60.07810153,,,,,,,,,,,,,,,,,,masks/mask_003.jpg,,,,,,,,,,,,,,,,,,,,,,,,,,,,,,,,,,,,,,,,,,,,,,,,0,4,4,2,1,,,,,,,,,,,,,,,,,,,,,,,,,,,,,,,,,,,,,,,,,
829219,001,2022-11-20_23h55.16.924,Info_measure_main_exp,2022.2.2,Win32,60.07810153,,,,,,,,,,,,,,,,,,,,,,,,,,,,,,4,2.0148,1,,,,,,,,,,,,0,131,5,5,2298,2274,absent_patch/patch0002298.jpg,absent_patch/patch0002274.jpg,,,,,,,,,,,,,,,,,,,,0.02407406,-0.12037037,1,0,0,response3disk,24,-0.005555541,0.005555541,1,0,0,center_square,0,23,23,1,1,,,,,,,,,,,,,,,,,,,,,,,
829219,001,2022-11-20_23h55.16.924,Info_measure_main_exp,2022.2.2,Win32,60.07810153,,,,,,,,,,,,,,,,,,masks/mask_003.jpg,,,,,,,,,,,,,,,,,,,,,,,,,,,,,,,,,,,,,,,,,,,0,0,0,2,1,,,,,,,,,,,,,,,,,,,,,,,,,,,,,,,,,,,,,,,,,,,,,,
829219,001,2022-11-20_23h55.16.924,Info_measure_main_exp,2022.2.2,Win32,60.07810153,,,,,,,,,,,,,,,,,,masks/mask_004.jpg,,,,,,,,,,,,,,,,,,,,,,,,,,,,,,,,,,,,,,,,,,,0,1,1,3,1,,,,,,,,,,,,,,,,,,,,,,,,,,,,,,,,,,,,,,,,,,,,,,
829219,001,2022-11-20_23h55.16.924,Info_measure_main_exp,2022.2.2,Win32,60.07810153,,,,,,,,,,,,,,,,,,masks/mask_002.jpg,,,,,,,,,,,,,,,,,,,,,,,,,,,,,,,,,,,,,,,,,,,0,2,2,1,1,,,,,,,,,,,,,,,,,,,,,,,,,,,,,,,,,,,,,,,,,,,,,,
829219,001,2022-11-20_23h55.16.924,Info_measure_main_exp,2022.2.2,Win32,60.07810153,,,,,,,,,,,,,,,,,,masks/mask_005.jpg,,,,,,,,,,,,,,,,,,,,,,,,,,,,,,,,,,,,,,,,,,,0,3,3,4,1,,,,,,,,,,,,,,,,,,,,,,,,,,,,,,,,,,,,,,,,,,,,,,
829219,001,2022-11-20_23h55.16.924,Info_measure_main_exp,2022.2.2,Win32,60.07810153,,,,,,,,,,,,,,,,,,masks/mask_001.jpg,,,,,,,,,,,,,,,,,,,,,,,,,,,,,,,,,,,,,,,,,,,0,4,4,0,1,,,,,,,,,,,,,,,,,,,,,,,,,,,,,,,,,,,,,,,,,,,,,,
829219,001,2022-11-20_23h55.16.924,Info_measure_main_exp,2022.2.2,Win32,60.07810153,,,,,,,,,,,,,,,,,,masks/mask_001.jpg,,,,,,,,,,,,,,,,,,,,,,,,,,,,,,,,,,,,,,,,,,,,,,,,0,0,0,0,1,,,,,,,,,,,,,,,,,,,,,,,,,,,,,,,,,,,,,,,,,
829219,001,2022-11-20_23h55.16.924,Info_measure_main_exp,2022.2.2,Win32,60.07810153,,,,,,,,,,,,,,,,,,masks/mask_003.jpg,,,,,,,,,,,,,,,,,,,,,,,,,,,,,,,,,,,,,,,,,,,,,,,,0,1,1,2,1,,,,,,,,,,,,,,,,,,,,,,,,,,,,,,,,,,,,,,,,,
829219,001,2022-11-20_23h55.16.924,Info_measure_main_exp,2022.2.2,Win32,60.07810153,,,,,,,,,,,,,,,,,,masks/mask_005.jpg,,,,,,,,,,,,,,,,,,,,,,,,,,,,,,,,,,,,,,,,,,,,,,,,0,2,2,4,1,,,,,,,,,,,,,,,,,,,,,,,,,,,,,,,,,,,,,,,,,
829219,001,2022-11-20_23h55.16.924,Info_measure_main_exp,2022.2.2,Win32,60.07810153,,,,,,,,,,,,,,,,,,masks/mask_004.jpg,,,,,,,,,,,,,,,,,,,,,,,,,,,,,,,,,,,,,,,,,,,,,,,,0,3,3,3,1,,,,,,,,,,,,,,,,,,,,,,,,,,,,,,,,,,,,,,,,,
829219,001,2022-11-20_23h55.16.924,Info_measure_main_exp,2022.2.2,Win32,60.07810153,,,,,,,,,,,,,,,,,,masks/mask_002.jpg,,,,,,,,,,,,,,,,,,,,,,,,,,,,,,,,,,,,,,,,,,,,,,,,0,4,4,1,1,,,,,,,,,,,,,,,,,,,,,,,,,,,,,,,,,,,,,,,,,
829219,001,2022-11-20_23h55.16.924,Info_measure_main_exp,2022.2.2,Win32,60.07810153,,,,,,,,,,,,,,,,,,,,,,,,,,,,,,4,0.916,1,,,,,,,,,,,,0,131,5,5,2274,2250,absent_patch/patch0002274.jpg,absent_patch/patch0002250.jpg,,,,,,,,,,,,,,,,,,,,0.049074102,-0.122222265,1,0,0,response3disk,25,0.009259259,-0.000925947,1,0,0,center_square,0,24,24,28,1,,,,,,,,,,,,,,,,,,,,,,,
829219,001,2022-11-20_23h55.16.924,Info_measure_main_exp,2022.2.2,Win32,60.07810153,,,,,,,,,,,,,,,,,,masks/mask_005.jpg,,,,,,,,,,,,,,,,,,,,,,,,,,,,,,,,,,,,,,,,,,,0,0,0,4,1,,,,,,,,,,,,,,,,,,,,,,,,,,,,,,,,,,,,,,,,,,,,,,
829219,001,2022-11-20_23h55.16.924,Info_measure_main_exp,2022.2.2,Win32,60.07810153,,,,,,,,,,,,,,,,,,masks/mask_004.jpg,,,,,,,,,,,,,,,,,,,,,,,,,,,,,,,,,,,,,,,,,,,0,1,1,3,1,,,,,,,,,,,,,,,,,,,,,,,,,,,,,,,,,,,,,,,,,,,,,,
829219,001,2022-11-20_23h55.16.924,Info_measure_main_exp,2022.2.2,Win32,60.07810153,,,,,,,,,,,,,,,,,,masks/mask_002.jpg,,,,,,,,,,,,,,,,,,,,,,,,,,,,,,,,,,,,,,,,,,,0,2,2,1,1,,,,,,,,,,,,,,,,,,,,,,,,,,,,,,,,,,,,,,,,,,,,,,
829219,001,2022-11-20_23h55.16.924,Info_measure_main_exp,2022.2.2,Win32,60.07810153,,,,,,,,,,,,,,,,,,masks/mask_003.jpg,,,,,,,,,,,,,,,,,,,,,,,,,,,,,,,,,,,,,,,,,,,0,3,3,2,1,,,,,,,,,,,,,,,,,,,,,,,,,,,,,,,,,,,,,,,,,,,,,,
829219,001,2022-11-20_23h55.16.924,Info_measure_main_exp,2022.2.2,Win32,60.07810153,,,,,,,,,,,,,,,,,,masks/mask_001.jpg,,,,,,,,,,,,,,,,,,,,,,,,,,,,,,,,,,,,,,,,,,,0,4,4,0,1,,,,,,,,,,,,,,,,,,,,,,,,,,,,,,,,,,,,,,,,,,,,,,
829219,001,2022-11-20_23h55.16.924,Info_measure_main_exp,2022.2.2,Win32,60.07810153,,,,,,,,,,,,,,,,,,masks/mask_003.jpg,,,,,,,,,,,,,,,,,,,,,,,,,,,,,,,,,,,,,,,,,,,,,,,,0,0,0,2,1,,,,,,,,,,,,,,,,,,,,,,,,,,,,,,,,,,,,,,,,,
829219,001,2022-11-20_23h55.16.924,Info_measure_main_exp,2022.2.2,Win32,60.07810153,,,,,,,,,,,,,,,,,,masks/mask_005.jpg,,,,,,,,,,,,,,,,,,,,,,,,,,,,,,,,,,,,,,,,,,,,,,,,0,1,1,4,1,,,,,,,,,,,,,,,,,,,,,,,,,,,,,,,,,,,,,,,,,
829219,001,2022-11-20_23h55.16.924,Info_measure_main_exp,2022.2.2,Win32,60.07810153,,,,,,,,,,,,,,,,,,masks/mask_004.jpg,,,,,,,,,,,,,,,,,,,,,,,,,,,,,,,,,,,,,,,,,,,,,,,,0,2,2,3,1,,,,,,,,,,,,,,,,,,,,,,,,,,,,,,,,,,,,,,,,,
829219,001,2022-11-20_23h55.16.924,Info_measure_main_exp,2022.2.2,Win32,60.07810153,,,,,,,,,,,,,,,,,,masks/mask_001.jpg,,,,,,,,,,,,,,,,,,,,,,,,,,,,,,,,,,,,,,,,,,,,,,,,0,3,3,0,1,,,,,,,,,,,,,,,,,,,,,,,,,,,,,,,,,,,,,,,,,
829219,001,2022-11-20_23h55.16.924,Info_measure_main_exp,2022.2.2,Win32,60.07810153,,,,,,,,,,,,,,,,,,masks/mask_002.jpg,,,,,,,,,,,,,,,,,,,,,,,,,,,,,,,,,,,,,,,,,,,,,,,,0,4,4,1,1,,,,,,,,,,,,,,,,,,,,,,,,,,,,,,,,,,,,,,,,,
829219,001,2022-11-20_23h55.16.924,Info_measure_main_exp,2022.2.2,Win32,60.07810153,,,,,,,,,,,,,,,,,,,,,,,,,,,,,,3,1.6356,1,,,,,,,,,,,,0,131,5,5,2154,2238,absent_patch/patch0002154.jpg,absent_patch/patch0002238.jpg,,,,,,,,,,,,,,,,,,,,-0.061111097,-0.112037023,1,0,0,response5disk,26,-0.012036995,0.008333312,1,0,0,center_square,0,25,25,21,1,,,,,,,,,,,,,,,,,,,,,,,
829219,001,2022-11-20_23h55.16.924,Info_measure_main_exp,2022.2.2,Win32,60.07810153,,,,,,,,,,,,,,,,,,masks/mask_003.jpg,,,,,,,,,,,,,,,,,,,,,,,,,,,,,,,,,,,,,,,,,,,0,0,0,2,1,,,,,,,,,,,,,,,,,,,,,,,,,,,,,,,,,,,,,,,,,,,,,,
829219,001,2022-11-20_23h55.16.924,Info_measure_main_exp,2022.2.2,Win32,60.07810153,,,,,,,,,,,,,,,,,,masks/mask_001.jpg,,,,,,,,,,,,,,,,,,,,,,,,,,,,,,,,,,,,,,,,,,,0,1,1,0,1,,,,,,,,,,,,,,,,,,,,,,,,,,,,,,,,,,,,,,,,,,,,,,
829219,001,2022-11-20_23h55.16.924,Info_measure_main_exp,2022.2.2,Win32,60.07810153,,,,,,,,,,,,,,,,,,masks/mask_002.jpg,,,,,,,,,,,,,,,,,,,,,,,,,,,,,,,,,,,,,,,,,,,0,2,2,1,1,,,,,,,,,,,,,,,,,,,,,,,,,,,,,,,,,,,,,,,,,,,,,,
829219,001,2022-11-20_23h55.16.924,Info_measure_main_exp,2022.2.2,Win32,60.07810153,,,,,,,,,,,,,,,,,,masks/mask_005.jpg,,,,,,,,,,,,,,,,,,,,,,,,,,,,,,,,,,,,,,,,,,,0,3,3,4,1,,,,,,,,,,,,,,,,,,,,,,,,,,,,,,,,,,,,,,,,,,,,,,
829219,001,2022-11-20_23h55.16.924,Info_measure_main_exp,2022.2.2,Win32,60.07810153,,,,,,,,,,,,,,,,,,masks/mask_004.jpg,,,,,,,,,,,,,,,,,,,,,,,,,,,,,,,,,,,,,,,,,,,0,4,4,3,1,,,,,,,,,,,,,,,,,,,,,,,,,,,,,,,,,,,,,,,,,,,,,,
829219,001,2022-11-20_23h55.16.924,Info_measure_main_exp,2022.2.2,Win32,60.07810153,,,,,,,,,,,,,,,,,,masks/mask_001.jpg,,,,,,,,,,,,,,,,,,,,,,,,,,,,,,,,,,,,,,,,,,,,,,,,0,0,0,0,1,,,,,,,,,,,,,,,,,,,,,,,,,,,,,,,,,,,,,,,,,
829219,001,2022-11-20_23h55.16.924,Info_measure_main_exp,2022.2.2,Win32,60.07810153,,,,,,,,,,,,,,,,,,masks/mask_003.jpg,,,,,,,,,,,,,,,,,,,,,,,,,,,,,,,,,,,,,,,,,,,,,,,,0,1,1,2,1,,,,,,,,,,,,,,,,,,,,,,,,,,,,,,,,,,,,,,,,,
829219,001,2022-11-20_23h55.16.924,Info_measure_main_exp,2022.2.2,Win32,60.07810153,,,,,,,,,,,,,,,,,,masks/mask_005.jpg,,,,,,,,,,,,,,,,,,,,,,,,,,,,,,,,,,,,,,,,,,,,,,,,0,2,2,4,1,,,,,,,,,,,,,,,,,,,,,,,,,,,,,,,,,,,,,,,,,
829219,001,2022-11-20_23h55.16.924,Info_measure_main_exp,2022.2.2,Win32,60.07810153,,,,,,,,,,,,,,,,,,masks/mask_004.jpg,,,,,,,,,,,,,,,,,,,,,,,,,,,,,,,,,,,,,,,,,,,,,,,,0,3,3,3,1,,,,,,,,,,,,,,,,,,,,,,,,,,,,,,,,,,,,,,,,,
829219,001,2022-11-20_23h55.16.924,Info_measure_main_exp,2022.2.2,Win32,60.07810153,,,,,,,,,,,,,,,,,,masks/mask_002.jpg,,,,,,,,,,,,,,,,,,,,,,,,,,,,,,,,,,,,,,,,,,,,,,,,0,4,4,1,1,,,,,,,,,,,,,,,,,,,,,,,,,,,,,,,,,,,,,,,,,
829219,001,2022-11-20_23h55.16.924,Info_measure_main_exp,2022.2.2,Win32,60.07810153,,,,,,,,,,,,,,,,,,,,,,,,,,,,,,5,1.1325,1,,,,,,,,,,,,1,131,5,5,1,2214,present_patch/cong_131_5_a.jpg,absent_patch/patch0002214.jpg,,,,,,,,,,,,,,,,,,,,0.070370356,-0.049074067,1,0,0,response3disk,27,-0.000925912,-0.005555577,1,0,0,center_square,0,26,26,4,1,,,,,,,,,,,,,,,,,,,,,,,
829219,001,2022-11-20_23h55.16.924,Info_measure_main_exp,2022.2.2,Win32,60.07810153,,,,,,,,,,,,,,,,,,masks/mask_003.jpg,,,,,,,,,,,,,,,,,,,,,,,,,,,,,,,,,,,,,,,,,,,0,0,0,2,1,,,,,,,,,,,,,,,,,,,,,,,,,,,,,,,,,,,,,,,,,,,,,,
829219,001,2022-11-20_23h55.16.924,Info_measure_main_exp,2022.2.2,Win32,60.07810153,,,,,,,,,,,,,,,,,,masks/mask_001.jpg,,,,,,,,,,,,,,,,,,,,,,,,,,,,,,,,,,,,,,,,,,,0,1,1,0,1,,,,,,,,,,,,,,,,,,,,,,,,,,,,,,,,,,,,,,,,,,,,,,
829219,001,2022-11-20_23h55.16.924,Info_measure_main_exp,2022.2.2,Win32,60.07810153,,,,,,,,,,,,,,,,,,masks/mask_004.jpg,,,,,,,,,,,,,,,,,,,,,,,,,,,,,,,,,,,,,,,,,,,0,2,2,3,1,,,,,,,,,,,,,,,,,,,,,,,,,,,,,,,,,,,,,,,,,,,,,,
829219,001,2022-11-20_23h55.16.924,Info_measure_main_exp,2022.2.2,Win32,60.07810153,,,,,,,,,,,,,,,,,,masks/mask_002.jpg,,,,,,,,,,,,,,,,,,,,,,,,,,,,,,,,,,,,,,,,,,,0,3,3,1,1,,,,,,,,,,,,,,,,,,,,,,,,,,,,,,,,,,,,,,,,,,,,,,
829219,001,2022-11-20_23h55.16.924,Info_measure_main_exp,2022.2.2,Win32,60.07810153,,,,,,,,,,,,,,,,,,masks/mask_005.jpg,,,,,,,,,,,,,,,,,,,,,,,,,,,,,,,,,,,,,,,,,,,0,4,4,4,1,,,,,,,,,,,,,,,,,,,,,,,,,,,,,,,,,,,,,,,,,,,,,,
829219,001,2022-11-20_23h55.16.924,Info_measure_main_exp,2022.2.2,Win32,60.07810153,,,,,,,,,,,,,,,,,,masks/mask_004.jpg,,,,,,,,,,,,,,,,,,,,,,,,,,,,,,,,,,,,,,,,,,,,,,,,0,0,0,3,1,,,,,,,,,,,,,,,,,,,,,,,,,,,,,,,,,,,,,,,,,
829219,001,2022-11-20_23h55.16.924,Info_measure_main_exp,2022.2.2,Win32,60.07810153,,,,,,,,,,,,,,,,,,masks/mask_005.jpg,,,,,,,,,,,,,,,,,,,,,,,,,,,,,,,,,,,,,,,,,,,,,,,,0,1,1,4,1,,,,,,,,,,,,,,,,,,,,,,,,,,,,,,,,,,,,,,,,,
829219,001,2022-11-20_23h55.16.924,Info_measure_main_exp,2022.2.2,Win32,60.07810153,,,,,,,,,,,,,,,,,,masks/mask_002.jpg,,,,,,,,,,,,,,,,,,,,,,,,,,,,,,,,,,,,,,,,,,,,,,,,0,2,2,1,1,,,,,,,,,,,,,,,,,,,,,,,,,,,,,,,,,,,,,,,,,
829219,001,2022-11-20_23h55.16.924,Info_measure_main_exp,2022.2.2,Win32,60.07810153,,,,,,,,,,,,,,,,,,masks/mask_001.jpg,,,,,,,,,,,,,,,,,,,,,,,,,,,,,,,,,,,,,,,,,,,,,,,,0,3,3,0,1,,,,,,,,,,,,,,,,,,,,,,,,,,,,,,,,,,,,,,,,,
829219,001,2022-11-20_23h55.16.924,Info_measure_main_exp,2022.2.2,Win32,60.07810153,,,,,,,,,,,,,,,,,,masks/mask_003.jpg,,,,,,,,,,,,,,,,,,,,,,,,,,,,,,,,,,,,,,,,,,,,,,,,0,4,4,2,1,,,,,,,,,,,,,,,,,,,,,,,,,,,,,,,,,,,,,,,,,
829219,001,2022-11-20_23h55.16.924,Info_measure_main_exp,2022.2.2,Win32,60.07810153,,,,,,,,,,,,,,,,,,,,,,,,,,,,,,6,1.1661,1,,,,,,,,,,,,0,131,5,5,2178,2154,absent_patch/patch0002178.jpg,absent_patch/patch0002154.jpg,,,,,,,,,,,,,,,,,,,,0.113888917,0.037962949,1,0,0,response1disk,28,-0.001851824,0.00462963,1,0,0,center_square,0,27,27,63,1,,,,,,,,,,,,,,,,,,,,,,,
829219,001,2022-11-20_23h55.16.924,Info_measure_main_exp,2022.2.2,Win32,60.07810153,,,,,,,,,,,,,,,,,,masks/mask_003.jpg,,,,,,,,,,,,,,,,,,,,,,,,,,,,,,,,,,,,,,,,,,,0,0,0,2,1,,,,,,,,,,,,,,,,,,,,,,,,,,,,,,,,,,,,,,,,,,,,,,
829219,001,2022-11-20_23h55.16.924,Info_measure_main_exp,2022.2.2,Win32,60.07810153,,,,,,,,,,,,,,,,,,masks/mask_001.jpg,,,,,,,,,,,,,,,,,,,,,,,,,,,,,,,,,,,,,,,,,,,0,1,1,0,1,,,,,,,,,,,,,,,,,,,,,,,,,,,,,,,,,,,,,,,,,,,,,,
829219,001,2022-11-20_23h55.16.924,Info_measure_main_exp,2022.2.2,Win32,60.07810153,,,,,,,,,,,,,,,,,,masks/mask_005.jpg,,,,,,,,,,,,,,,,,,,,,,,,,,,,,,,,,,,,,,,,,,,0,2,2,4,1,,,,,,,,,,,,,,,,,,,,,,,,,,,,,,,,,,,,,,,,,,,,,,
829219,001,2022-11-20_23h55.16.924,Info_measure_main_exp,2022.2.2,Win32,60.07810153,,,,,,,,,,,,,,,,,,masks/mask_004.jpg,,,,,,,,,,,,,,,,,,,,,,,,,,,,,,,,,,,,,,,,,,,0,3,3,3,1,,,,,,,,,,,,,,,,,,,,,,,,,,,,,,,,,,,,,,,,,,,,,,
829219,001,2022-11-20_23h55.16.924,Info_measure_main_exp,2022.2.2,Win32,60.07810153,,,,,,,,,,,,,,,,,,masks/mask_002.jpg,,,,,,,,,,,,,,,,,,,,,,,,,,,,,,,,,,,,,,,,,,,0,4,4,1,1,,,,,,,,,,,,,,,,,,,,,,,,,,,,,,,,,,,,,,,,,,,,,,
829219,001,2022-11-20_23h55.16.924,Info_measure_main_exp,2022.2.2,Win32,60.07810153,,,,,,,,,,,,,,,,,,masks/mask_004.jpg,,,,,,,,,,,,,,,,,,,,,,,,,,,,,,,,,,,,,,,,,,,,,,,,0,0,0,3,1,,,,,,,,,,,,,,,,,,,,,,,,,,,,,,,,,,,,,,,,,
829219,001,2022-11-20_23h55.16.924,Info_measure_main_exp,2022.2.2,Win32,60.07810153,,,,,,,,,,,,,,,,,,masks/mask_005.jpg,,,,,,,,,,,,,,,,,,,,,,,,,,,,,,,,,,,,,,,,,,,,,,,,0,1,1,4,1,,,,,,,,,,,,,,,,,,,,,,,,,,,,,,,,,,,,,,,,,
829219,001,2022-11-20_23h55.16.924,Info_measure_main_exp,2022.2.2,Win32,60.07810153,,,,,,,,,,,,,,,,,,masks/mask_002.jpg,,,,,,,,,,,,,,,,,,,,,,,,,,,,,,,,,,,,,,,,,,,,,,,,0,2,2,1,1,,,,,,,,,,,,,,,,,,,,,,,,,,,,,,,,,,,,,,,,,
829219,001,2022-11-20_23h55.16.924,Info_measure_main_exp,2022.2.2,Win32,60.07810153,,,,,,,,,,,,,,,,,,masks/mask_001.jpg,,,,,,,,,,,,,,,,,,,,,,,,,,,,,,,,,,,,,,,,,,,,,,,,0,3,3,0,1,,,,,,,,,,,,,,,,,,,,,,,,,,,,,,,,,,,,,,,,,
829219,001,2022-11-20_23h55.16.924,Info_measure_main_exp,2022.2.2,Win32,60.07810153,,,,,,,,,,,,,,,,,,masks/mask_003.jpg,,,,,,,,,,,,,,,,,,,,,,,,,,,,,,,,,,,,,,,,,,,,,,,,0,4,4,2,1,,,,,,,,,,,,,,,,,,,,,,,,,,,,,,,,,,,,,,,,,
829219,001,2022-11-20_23h55.16.924,Info_measure_main_exp,2022.2.2,Win32,60.07810153,,,,,,,,,,,,,,,,,,,,,,,,,,,,,,2,1.2155,1,,,,,,,,,,,,0,131,5,5,2274,1950,absent_patch/patch0002274.jpg,absent_patch/patch0001950.jpg,,,,,,,,,,,,,,,,,,,,-0.12037037,-0.077777792,1,0,0,response5disk,29,-0.007407365,-0.006481489,1,0,0,center_square,0,28,28,10,1,,,,,,,,,,,,,,,,,,,,,,,
829219,001,2022-11-20_23h55.16.924,Info_measure_main_exp,2022.2.2,Win32,60.07810153,,,,,,,,,,,,,,,,,,masks/mask_001.jpg,,,,,,,,,,,,,,,,,,,,,,,,,,,,,,,,,,,,,,,,,,,0,0,0,0,1,,,,,,,,,,,,,,,,,,,,,,,,,,,,,,,,,,,,,,,,,,,,,,
829219,001,2022-11-20_23h55.16.924,Info_measure_main_exp,2022.2.2,Win32,60.07810153,,,,,,,,,,,,,,,,,,masks/mask_003.jpg,,,,,,,,,,,,,,,,,,,,,,,,,,,,,,,,,,,,,,,,,,,0,1,1,2,1,,,,,,,,,,,,,,,,,,,,,,,,,,,,,,,,,,,,,,,,,,,,,,
829219,001,2022-11-20_23h55.16.924,Info_measure_main_exp,2022.2.2,Win32,60.07810153,,,,,,,,,,,,,,,,,,masks/mask_004.jpg,,,,,,,,,,,,,,,,,,,,,,,,,,,,,,,,,,,,,,,,,,,0,2,2,3,1,,,,,,,,,,,,,,,,,,,,,,,,,,,,,,,,,,,,,,,,,,,,,,
829219,001,2022-11-20_23h55.16.924,Info_measure_main_exp,2022.2.2,Win32,60.07810153,,,,,,,,,,,,,,,,,,masks/mask_005.jpg,,,,,,,,,,,,,,,,,,,,,,,,,,,,,,,,,,,,,,,,,,,0,3,3,4,1,,,,,,,,,,,,,,,,,,,,,,,,,,,,,,,,,,,,,,,,,,,,,,
829219,001,2022-11-20_23h55.16.924,Info_measure_main_exp,2022.2.2,Win32,60.07810153,,,,,,,,,,,,,,,,,,masks/mask_002.jpg,,,,,,,,,,,,,,,,,,,,,,,,,,,,,,,,,,,,,,,,,,,0,4,4,1,1,,,,,,,,,,,,,,,,,,,,,,,,,,,,,,,,,,,,,,,,,,,,,,
829219,001,2022-11-20_23h55.16.924,Info_measure_main_exp,2022.2.2,Win32,60.07810153,,,,,,,,,,,,,,,,,,masks/mask_002.jpg,,,,,,,,,,,,,,,,,,,,,,,,,,,,,,,,,,,,,,,,,,,,,,,,0,0,0,1,1,,,,,,,,,,,,,,,,,,,,,,,,,,,,,,,,,,,,,,,,,
829219,001,2022-11-20_23h55.16.924,Info_measure_main_exp,2022.2.2,Win32,60.07810153,,,,,,,,,,,,,,,,,,masks/mask_003.jpg,,,,,,,,,,,,,,,,,,,,,,,,,,,,,,,,,,,,,,,,,,,,,,,,0,1,1,2,1,,,,,,,,,,,,,,,,,,,,,,,,,,,,,,,,,,,,,,,,,
829219,001,2022-11-20_23h55.16.924,Info_measure_main_exp,2022.2.2,Win32,60.07810153,,,,,,,,,,,,,,,,,,masks/mask_001.jpg,,,,,,,,,,,,,,,,,,,,,,,,,,,,,,,,,,,,,,,,,,,,,,,,0,2,2,0,1,,,,,,,,,,,,,,,,,,,,,,,,,,,,,,,,,,,,,,,,,
829219,001,2022-11-20_23h55.16.924,Info_measure_main_exp,2022.2.2,Win32,60.07810153,,,,,,,,,,,,,,,,,,masks/mask_005.jpg,,,,,,,,,,,,,,,,,,,,,,,,,,,,,,,,,,,,,,,,,,,,,,,,0,3,3,4,1,,,,,,,,,,,,,,,,,,,,,,,,,,,,,,,,,,,,,,,,,
829219,001,2022-11-20_23h55.16.924,Info_measure_main_exp,2022.2.2,Win32,60.07810153,,,,,,,,,,,,,,,,,,masks/mask_004.jpg,,,,,,,,,,,,,,,,,,,,,,,,,,,,,,,,,,,,,,,,,,,,,,,,0,4,4,3,1,,,,,,,,,,,,,,,,,,,,,,,,,,,,,,,,,,,,,,,,,
829219,001,2022-11-20_23h55.16.924,Info_measure_main_exp,2022.2.2,Win32,60.07810153,,,,,,,,,,,,,,,,,,,,,,,,,,,,,,1,1.6483,1,,,,,,,,,,,,1,131,5,5,1,2274,present_patch/cong_131_5_a.jpg,absent_patch/patch0002274.jpg,,,,,,,,,,,,,,,,,,,,-0.12037037,0.03148146,1,0,0,response7disk,30,0.012962977,-0.002777771,1,0,0,center_square,0,29,29,105,1,,,,,,,,,,,,,,,,,,,,,,,
829219,001,2022-11-20_23h55.16.924,Info_measure_main_exp,2022.2.2,Win32,60.07810153,,,,,,,,,,,,,,,,,,masks/mask_003.jpg,,,,,,,,,,,,,,,,,,,,,,,,,,,,,,,,,,,,,,,,,,,0,0,0,2,1,,,,,,,,,,,,,,,,,,,,,,,,,,,,,,,,,,,,,,,,,,,,,,
829219,001,2022-11-20_23h55.16.924,Info_measure_main_exp,2022.2.2,Win32,60.07810153,,,,,,,,,,,,,,,,,,masks/mask_001.jpg,,,,,,,,,,,,,,,,,,,,,,,,,,,,,,,,,,,,,,,,,,,0,1,1,0,1,,,,,,,,,,,,,,,,,,,,,,,,,,,,,,,,,,,,,,,,,,,,,,
829219,001,2022-11-20_23h55.16.924,Info_measure_main_exp,2022.2.2,Win32,60.07810153,,,,,,,,,,,,,,,,,,masks/mask_002.jpg,,,,,,,,,,,,,,,,,,,,,,,,,,,,,,,,,,,,,,,,,,,0,2,2,1,1,,,,,,,,,,,,,,,,,,,,,,,,,,,,,,,,,,,,,,,,,,,,,,
829219,001,2022-11-20_23h55.16.924,Info_measure_main_exp,2022.2.2,Win32,60.07810153,,,,,,,,,,,,,,,,,,masks/mask_004.jpg,,,,,,,,,,,,,,,,,,,,,,,,,,,,,,,,,,,,,,,,,,,0,3,3,3,1,,,,,,,,,,,,,,,,,,,,,,,,,,,,,,,,,,,,,,,,,,,,,,
829219,001,2022-11-20_23h55.16.924,Info_measure_main_exp,2022.2.2,Win32,60.07810153,,,,,,,,,,,,,,,,,,masks/mask_005.jpg,,,,,,,,,,,,,,,,,,,,,,,,,,,,,,,,,,,,,,,,,,,0,4,4,4,1,,,,,,,,,,,,,,,,,,,,,,,,,,,,,,,,,,,,,,,,,,,,,,
829219,001,2022-11-20_23h55.16.924,Info_measure_main_exp,2022.2.2,Win32,60.07810153,,,,,,,,,,,,,,,,,,masks/mask_003.jpg,,,,,,,,,,,,,,,,,,,,,,,,,,,,,,,,,,,,,,,,,,,,,,,,0,0,0,2,1,,,,,,,,,,,,,,,,,,,,,,,,,,,,,,,,,,,,,,,,,
829219,001,2022-11-20_23h55.16.924,Info_measure_main_exp,2022.2.2,Win32,60.07810153,,,,,,,,,,,,,,,,,,masks/mask_001.jpg,,,,,,,,,,,,,,,,,,,,,,,,,,,,,,,,,,,,,,,,,,,,,,,,0,1,1,0,1,,,,,,,,,,,,,,,,,,,,,,,,,,,,,,,,,,,,,,,,,
829219,001,2022-11-20_23h55.16.924,Info_measure_main_exp,2022.2.2,Win32,60.07810153,,,,,,,,,,,,,,,,,,masks/mask_004.jpg,,,,,,,,,,,,,,,,,,,,,,,,,,,,,,,,,,,,,,,,,,,,,,,,0,2,2,3,1,,,,,,,,,,,,,,,,,,,,,,,,,,,,,,,,,,,,,,,,,
829219,001,2022-11-20_23h55.16.924,Info_measure_main_exp,2022.2.2,Win32,60.07810153,,,,,,,,,,,,,,,,,,masks/mask_002.jpg,,,,,,,,,,,,,,,,,,,,,,,,,,,,,,,,,,,,,,,,,,,,,,,,0,3,3,1,1,,,,,,,,,,,,,,,,,,,,,,,,,,,,,,,,,,,,,,,,,
829219,001,2022-11-20_23h55.16.924,Info_measure_main_exp,2022.2.2,Win32,60.07810153,,,,,,,,,,,,,,,,,,masks/mask_005.jpg,,,,,,,,,,,,,,,,,,,,,,,,,,,,,,,,,,,,,,,,,,,,,,,,0,4,4,4,1,,,,,,,,,,,,,,,,,,,,,,,,,,,,,,,,,,,,,,,,,
829219,001,2022-11-20_23h55.16.924,Info_measure_main_exp,2022.2.2,Win32,60.07810153,,,,,,,,,,,,,,,,,,,,,,,,,,,,,,3,1.5476,1,,,,,,,,,,,,1,131,5,5,1,1986,present_patch/cong_131_5_a.jpg,absent_patch/patch0001986.jpg,,,,,,,,,,,,,,,,,,,,-0.046296296,-0.123148176,1,0,0,response5disk,31,-0.002777735,-0.00462963,1,0,0,center_square,0,30,30,106,1,,,,,,,,,,,,,,,,,,,,,,,
829219,001,2022-11-20_23h55.16.924,Info_measure_main_exp,2022.2.2,Win32,60.07810153,,,,,,,,,,,,,,,,,,masks/mask_001.jpg,,,,,,,,,,,,,,,,,,,,,,,,,,,,,,,,,,,,,,,,,,,0,0,0,0,1,,,,,,,,,,,,,,,,,,,,,,,,,,,,,,,,,,,,,,,,,,,,,,
829219,001,2022-11-20_23h55.16.924,Info_measure_main_exp,2022.2.2,Win32,60.07810153,,,,,,,,,,,,,,,,,,masks/mask_004.jpg,,,,,,,,,,,,,,,,,,,,,,,,,,,,,,,,,,,,,,,,,,,0,1,1,3,1,,,,,,,,,,,,,,,,,,,,,,,,,,,,,,,,,,,,,,,,,,,,,,
829219,001,2022-11-20_23h55.16.924,Info_measure_main_exp,2022.2.2,Win32,60.07810153,,,,,,,,,,,,,,,,,,masks/mask_002.jpg,,,,,,,,,,,,,,,,,,,,,,,,,,,,,,,,,,,,,,,,,,,0,2,2,1,1,,,,,,,,,,,,,,,,,,,,,,,,,,,,,,,,,,,,,,,,,,,,,,
829219,001,2022-11-20_23h55.16.924,Info_measure_main_exp,2022.2.2,Win32,60.07810153,,,,,,,,,,,,,,,,,,masks/mask_005.jpg,,,,,,,,,,,,,,,,,,,,,,,,,,,,,,,,,,,,,,,,,,,0,3,3,4,1,,,,,,,,,,,,,,,,,,,,,,,,,,,,,,,,,,,,,,,,,,,,,,
829219,001,2022-11-20_23h55.16.924,Info_measure_main_exp,2022.2.2,Win32,60.07810153,,,,,,,,,,,,,,,,,,masks/mask_003.jpg,,,,,,,,,,,,,,,,,,,,,,,,,,,,,,,,,,,,,,,,,,,0,4,4,2,1,,,,,,,,,,,,,,,,,,,,,,,,,,,,,,,,,,,,,,,,,,,,,,
829219,001,2022-11-20_23h55.16.924,Info_measure_main_exp,2022.2.2,Win32,60.07810153,,,,,,,,,,,,,,,,,,masks/mask_001.jpg,,,,,,,,,,,,,,,,,,,,,,,,,,,,,,,,,,,,,,,,,,,,,,,,0,0,0,0,1,,,,,,,,,,,,,,,,,,,,,,,,,,,,,,,,,,,,,,,,,
829219,001,2022-11-20_23h55.16.924,Info_measure_main_exp,2022.2.2,Win32,60.07810153,,,,,,,,,,,,,,,,,,masks/mask_003.jpg,,,,,,,,,,,,,,,,,,,,,,,,,,,,,,,,,,,,,,,,,,,,,,,,0,1,1,2,1,,,,,,,,,,,,,,,,,,,,,,,,,,,,,,,,,,,,,,,,,
829219,001,2022-11-20_23h55.16.924,Info_measure_main_exp,2022.2.2,Win32,60.07810153,,,,,,,,,,,,,,,,,,masks/mask_004.jpg,,,,,,,,,,,,,,,,,,,,,,,,,,,,,,,,,,,,,,,,,,,,,,,,0,2,2,3,1,,,,,,,,,,,,,,,,,,,,,,,,,,,,,,,,,,,,,,,,,
829219,001,2022-11-20_23h55.16.924,Info_measure_main_exp,2022.2.2,Win32,60.07810153,,,,,,,,,,,,,,,,,,masks/mask_002.jpg,,,,,,,,,,,,,,,,,,,,,,,,,,,,,,,,,,,,,,,,,,,,,,,,0,3,3,1,1,,,,,,,,,,,,,,,,,,,,,,,,,,,,,,,,,,,,,,,,,
829219,001,2022-11-20_23h55.16.924,Info_measure_main_exp,2022.2.2,Win32,60.07810153,,,,,,,,,,,,,,,,,,masks/mask_005.jpg,,,,,,,,,,,,,,,,,,,,,,,,,,,,,,,,,,,,,,,,,,,,,,,,0,4,4,4,1,,,,,,,,,,,,,,,,,,,,,,,,,,,,,,,,,,,,,,,,,
829219,001,2022-11-20_23h55.16.924,Info_measure_main_exp,2022.2.2,Win32,60.07810153,,,,,,,,,,,,,,,,,,,,,,,,,,,,,,2,2.1314,1,,,,,,,,,,,,0,131,5,5,1950,2178,absent_patch/patch0001950.jpg,absent_patch/patch0002178.jpg,,,,,,,,,,,,,,,,,,,,-0.147222236,-0.08888891,1,0,0,response5disk,32,0.001851894,0.003703683,1,0,0,center_square,0,31,31,61,1,,,,,,,,,,,,,,,,,,,,,,,
829219,001,2022-11-20_23h55.16.924,Info_measure_main_exp,2022.2.2,Win32,60.07810153,,,,,,,,,,,,,,,,,,masks/mask_004.jpg,,,,,,,,,,,,,,,,,,,,,,,,,,,,,,,,,,,,,,,,,,,0,0,0,3,1,,,,,,,,,,,,,,,,,,,,,,,,,,,,,,,,,,,,,,,,,,,,,,
829219,001,2022-11-20_23h55.16.924,Info_measure_main_exp,2022.2.2,Win32,60.07810153,,,,,,,,,,,,,,,,,,masks/mask_005.jpg,,,,,,,,,,,,,,,,,,,,,,,,,,,,,,,,,,,,,,,,,,,0,1,1,4,1,,,,,,,,,,,,,,,,,,,,,,,,,,,,,,,,,,,,,,,,,,,,,,
829219,001,2022-11-20_23h55.16.924,Info_measure_main_exp,2022.2.2,Win32,60.07810153,,,,,,,,,,,,,,,,,,masks/mask_002.jpg,,,,,,,,,,,,,,,,,,,,,,,,,,,,,,,,,,,,,,,,,,,0,2,2,1,1,,,,,,,,,,,,,,,,,,,,,,,,,,,,,,,,,,,,,,,,,,,,,,
829219,001,2022-11-20_23h55.16.924,Info_measure_main_exp,2022.2.2,Win32,60.07810153,,,,,,,,,,,,,,,,,,masks/mask_003.jpg,,,,,,,,,,,,,,,,,,,,,,,,,,,,,,,,,,,,,,,,,,,0,3,3,2,1,,,,,,,,,,,,,,,,,,,,,,,,,,,,,,,,,,,,,,,,,,,,,,
829219,001,2022-11-20_23h55.16.924,Info_measure_main_exp,2022.2.2,Win32,60.07810153,,,,,,,,,,,,,,,,,,masks/mask_001.jpg,,,,,,,,,,,,,,,,,,,,,,,,,,,,,,,,,,,,,,,,,,,0,4,4,0,1,,,,,,,,,,,,,,,,,,,,,,,,,,,,,,,,,,,,,,,,,,,,,,
829219,001,2022-11-20_23h55.16.924,Info_measure_main_exp,2022.2.2,Win32,60.07810153,,,,,,,,,,,,,,,,,,masks/mask_004.jpg,,,,,,,,,,,,,,,,,,,,,,,,,,,,,,,,,,,,,,,,,,,,,,,,0,0,0,3,1,,,,,,,,,,,,,,,,,,,,,,,,,,,,,,,,,,,,,,,,,
829219,001,2022-11-20_23h55.16.924,Info_measure_main_exp,2022.2.2,Win32,60.07810153,,,,,,,,,,,,,,,,,,masks/mask_005.jpg,,,,,,,,,,,,,,,,,,,,,,,,,,,,,,,,,,,,,,,,,,,,,,,,0,1,1,4,1,,,,,,,,,,,,,,,,,,,,,,,,,,,,,,,,,,,,,,,,,
829219,001,2022-11-20_23h55.16.924,Info_measure_main_exp,2022.2.2,Win32,60.07810153,,,,,,,,,,,,,,,,,,masks/mask_003.jpg,,,,,,,,,,,,,,,,,,,,,,,,,,,,,,,,,,,,,,,,,,,,,,,,0,2,2,2,1,,,,,,,,,,,,,,,,,,,,,,,,,,,,,,,,,,,,,,,,,
829219,001,2022-11-20_23h55.16.924,Info_measure_main_exp,2022.2.2,Win32,60.07810153,,,,,,,,,,,,,,,,,,masks/mask_001.jpg,,,,,,,,,,,,,,,,,,,,,,,,,,,,,,,,,,,,,,,,,,,,,,,,0,3,3,0,1,,,,,,,,,,,,,,,,,,,,,,,,,,,,,,,,,,,,,,,,,
829219,001,2022-11-20_23h55.16.924,Info_measure_main_exp,2022.2.2,Win32,60.07810153,,,,,,,,,,,,,,,,,,masks/mask_002.jpg,,,,,,,,,,,,,,,,,,,,,,,,,,,,,,,,,,,,,,,,,,,,,,,,0,4,4,1,1,,,,,,,,,,,,,,,,,,,,,,,,,,,,,,,,,,,,,,,,,
829219,001,2022-11-20_23h55.16.924,Info_measure_main_exp,2022.2.2,Win32,60.07810153,,,,,,,,,,,,,,,,,,,,,,,,,,,,,,7,0.7001,1,,,,,,,,,,,,0,131,5,5,2178,2166,absent_patch/patch0002178.jpg,absent_patch/patch0002166.jpg,,,,,,,,,,,,,,,,,,,,0.035185213,0.098148134,1,0,0,response1disk,33,0.003703718,0.001851859,1,0,0,center_square,0,32,32,72,1,,,,,,,,,,,,,,,,,,,,,,,
829219,001,2022-11-20_23h55.16.924,Info_measure_main_exp,2022.2.2,Win32,60.07810153,,,,,,,,,,,,,,,,,,masks/mask_004.jpg,,,,,,,,,,,,,,,,,,,,,,,,,,,,,,,,,,,,,,,,,,,0,0,0,3,1,,,,,,,,,,,,,,,,,,,,,,,,,,,,,,,,,,,,,,,,,,,,,,
829219,001,2022-11-20_23h55.16.924,Info_measure_main_exp,2022.2.2,Win32,60.07810153,,,,,,,,,,,,,,,,,,masks/mask_003.jpg,,,,,,,,,,,,,,,,,,,,,,,,,,,,,,,,,,,,,,,,,,,0,1,1,2,1,,,,,,,,,,,,,,,,,,,,,,,,,,,,,,,,,,,,,,,,,,,,,,
829219,001,2022-11-20_23h55.16.924,Info_measure_main_exp,2022.2.2,Win32,60.07810153,,,,,,,,,,,,,,,,,,masks/mask_005.jpg,,,,,,,,,,,,,,,,,,,,,,,,,,,,,,,,,,,,,,,,,,,0,2,2,4,1,,,,,,,,,,,,,,,,,,,,,,,,,,,,,,,,,,,,,,,,,,,,,,
829219,001,2022-11-20_23h55.16.924,Info_measure_main_exp,2022.2.2,Win32,60.07810153,,,,,,,,,,,,,,,,,,masks/mask_001.jpg,,,,,,,,,,,,,,,,,,,,,,,,,,,,,,,,,,,,,,,,,,,0,3,3,0,1,,,,,,,,,,,,,,,,,,,,,,,,,,,,,,,,,,,,,,,,,,,,,,
829219,001,2022-11-20_23h55.16.924,Info_measure_main_exp,2022.2.2,Win32,60.07810153,,,,,,,,,,,,,,,,,,masks/mask_002.jpg,,,,,,,,,,,,,,,,,,,,,,,,,,,,,,,,,,,,,,,,,,,0,4,4,1,1,,,,,,,,,,,,,,,,,,,,,,,,,,,,,,,,,,,,,,,,,,,,,,
829219,001,2022-11-20_23h55.16.924,Info_measure_main_exp,2022.2.2,Win32,60.07810153,,,,,,,,,,,,,,,,,,masks/mask_001.jpg,,,,,,,,,,,,,,,,,,,,,,,,,,,,,,,,,,,,,,,,,,,,,,,,0,0,0,0,1,,,,,,,,,,,,,,,,,,,,,,,,,,,,,,,,,,,,,,,,,
829219,001,2022-11-20_23h55.16.924,Info_measure_main_exp,2022.2.2,Win32,60.07810153,,,,,,,,,,,,,,,,,,masks/mask_005.jpg,,,,,,,,,,,,,,,,,,,,,,,,,,,,,,,,,,,,,,,,,,,,,,,,0,1,1,4,1,,,,,,,,,,,,,,,,,,,,,,,,,,,,,,,,,,,,,,,,,
829219,001,2022-11-20_23h55.16.924,Info_measure_main_exp,2022.2.2,Win32,60.07810153,,,,,,,,,,,,,,,,,,masks/mask_003.jpg,,,,,,,,,,,,,,,,,,,,,,,,,,,,,,,,,,,,,,,,,,,,,,,,0,2,2,2,1,,,,,,,,,,,,,,,,,,,,,,,,,,,,,,,,,,,,,,,,,
829219,001,2022-11-20_23h55.16.924,Info_measure_main_exp,2022.2.2,Win32,60.07810153,,,,,,,,,,,,,,,,,,masks/mask_002.jpg,,,,,,,,,,,,,,,,,,,,,,,,,,,,,,,,,,,,,,,,,,,,,,,,0,3,3,1,1,,,,,,,,,,,,,,,,,,,,,,,,,,,,,,,,,,,,,,,,,
829219,001,2022-11-20_23h55.16.924,Info_measure_main_exp,2022.2.2,Win32,60.07810153,,,,,,,,,,,,,,,,,,masks/mask_004.jpg,,,,,,,,,,,,,,,,,,,,,,,,,,,,,,,,,,,,,,,,,,,,,,,,0,4,4,3,1,,,,,,,,,,,,,,,,,,,,,,,,,,,,,,,,,,,,,,,,,
829219,001,2022-11-20_23h55.16.924,Info_measure_main_exp,2022.2.2,Win32,60.07810153,,,,,,,,,,,,,,,,,,,,,,,,,,,,,,4,0.9159,1,,,,,,,,,,,,0,131,5,5,2214,1986,absent_patch/patch0002214.jpg,absent_patch/patch0001986.jpg,,,,,,,,,,,,,,,,,,,,0.060185185,-0.072222215,1,0,0,response3disk,34,-0.000925912,0.00462963,1,0,0,center_square,0,33,33,34,1,,,,,,,,,,,,,,,,,,,,,,,
829219,001,2022-11-20_23h55.16.924,Info_measure_main_exp,2022.2.2,Win32,60.07810153,,,,,,,,,,,,,,,,,,masks/mask_002.jpg,,,,,,,,,,,,,,,,,,,,,,,,,,,,,,,,,,,,,,,,,,,0,0,0,1,1,,,,,,,,,,,,,,,,,,,,,,,,,,,,,,,,,,,,,,,,,,,,,,
829219,001,2022-11-20_23h55.16.924,Info_measure_main_exp,2022.2.2,Win32,60.07810153,,,,,,,,,,,,,,,,,,masks/mask_005.jpg,,,,,,,,,,,,,,,,,,,,,,,,,,,,,,,,,,,,,,,,,,,0,1,1,4,1,,,,,,,,,,,,,,,,,,,,,,,,,,,,,,,,,,,,,,,,,,,,,,
829219,001,2022-11-20_23h55.16.924,Info_measure_main_exp,2022.2.2,Win32,60.07810153,,,,,,,,,,,,,,,,,,masks/mask_003.jpg,,,,,,,,,,,,,,,,,,,,,,,,,,,,,,,,,,,,,,,,,,,0,2,2,2,1,,,,,,,,,,,,,,,,,,,,,,,,,,,,,,,,,,,,,,,,,,,,,,
829219,001,2022-11-20_23h55.16.924,Info_measure_main_exp,2022.2.2,Win32,60.07810153,,,,,,,,,,,,,,,,,,masks/mask_001.jpg,,,,,,,,,,,,,,,,,,,,,,,,,,,,,,,,,,,,,,,,,,,0,3,3,0,1,,,,,,,,,,,,,,,,,,,,,,,,,,,,,,,,,,,,,,,,,,,,,,
829219,001,2022-11-20_23h55.16.924,Info_measure_main_exp,2022.2.2,Win32,60.07810153,,,,,,,,,,,,,,,,,,masks/mask_004.jpg,,,,,,,,,,,,,,,,,,,,,,,,,,,,,,,,,,,,,,,,,,,0,4,4,3,1,,,,,,,,,,,,,,,,,,,,,,,,,,,,,,,,,,,,,,,,,,,,,,
829219,001,2022-11-20_23h55.16.924,Info_measure_main_exp,2022.2.2,Win32,60.07810153,,,,,,,,,,,,,,,,,,masks/mask_005.jpg,,,,,,,,,,,,,,,,,,,,,,,,,,,,,,,,,,,,,,,,,,,,,,,,0,0,0,4,1,,,,,,,,,,,,,,,,,,,,,,,,,,,,,,,,,,,,,,,,,
829219,001,2022-11-20_23h55.16.924,Info_measure_main_exp,2022.2.2,Win32,60.07810153,,,,,,,,,,,,,,,,,,masks/mask_002.jpg,,,,,,,,,,,,,,,,,,,,,,,,,,,,,,,,,,,,,,,,,,,,,,,,0,1,1,1,1,,,,,,,,,,,,,,,,,,,,,,,,,,,,,,,,,,,,,,,,,
829219,001,2022-11-20_23h55.16.924,Info_measure_main_exp,2022.2.2,Win32,60.07810153,,,,,,,,,,,,,,,,,,masks/mask_003.jpg,,,,,,,,,,,,,,,,,,,,,,,,,,,,,,,,,,,,,,,,,,,,,,,,0,2,2,2,1,,,,,,,,,,,,,,,,,,,,,,,,,,,,,,,,,,,,,,,,,
829219,001,2022-11-20_23h55.16.924,Info_measure_main_exp,2022.2.2,Win32,60.07810153,,,,,,,,,,,,,,,,,,masks/mask_001.jpg,,,,,,,,,,,,,,,,,,,,,,,,,,,,,,,,,,,,,,,,,,,,,,,,0,3,3,0,1,,,,,,,,,,,,,,,,,,,,,,,,,,,,,,,,,,,,,,,,,
