participant,session,date,expName,psychopyVersion,OS,frameRate,space_press_continue.keys,space_press_continue.rt,space_press_continue_2.keys,space_press_continue_2.rt,space_press_continue_3.keys,space_press_continue_3.rt,space_press_continue_4.keys,space_press_continue_4.rt,space_press_continue_5.keys,space_press_continue_5.rt,space_press_continue_6.keys,space_press_continue_6.rt,prac_mask_loop_1.thisRepN,prac_mask_loop_1.thisTrialN,prac_mask_loop_1.thisN,prac_mask_loop_1.thisIndex,prac_mask_loop_1.ran,mask_name,prac_mask_loop_2.thisRepN,prac_mask_loop_2.thisTrialN,prac_mask_loop_2.thisN,prac_mask_loop_2.thisIndex,prac_mask_loop_2.ran,mouse_2.x,mouse_2.y,mouse_2.leftButton,mouse_2.midButton,mouse_2.rightButton,mouse_2.clicked_name,similarity,response_time,Pass,mouse_12.x,mouse_12.y,mouse_12.leftButton,mouse_12.midButton,mouse_12.rightButton,mouse_12.clicked_name,prac_loop.thisRepN,prac_loop.thisTrialN,prac_loop.thisN,prac_loop.thisIndex,prac_loop.ran,Pair_type,Image_num,Patch_1_loc,Patch_2_loc,Patch_1_info,Patch_2_info,Patch_1_name,Patch_2_name,mouse_1.x,mouse_1.y,mouse_1.leftButton,mouse_1.midButton,mouse_1.rightButton,mouse_1.time,mouse_1.clicked_name,space_press_continue_7.keys,space_press_continue_7.rt,mask_loop.thisRepN,mask_loop.thisTrialN,mask_loop.thisN,mask_loop.thisIndex,mask_loop.ran,mask_loop_2.thisRepN,mask_loop_2.thisTrialN,mask_loop_2.thisN,mask_loop_2.thisIndex,mask_loop_2.ran,mouse.x,mouse.y,mouse.leftButton,mouse.midButton,mouse.rightButton,mouse.clicked_name,trialNumber,mouse_11.x,mouse_11.y,mouse_11.leftButton,mouse_11.midButton,mouse_11.rightButton,mouse_11.clicked_name,first_pass_loop.thisRepN,first_pass_loop.thisTrialN,first_pass_loop.thisN,first_pass_loop.thisIndex,first_pass_loop.ran,mask_loop_3.thisRepN,mask_loop_3.thisTrialN,mask_loop_3.thisN,mask_loop_3.thisIndex,mask_loop_3.ran,mask_loop_4.thisRepN,mask_loop_4.thisTrialN,mask_loop_4.thisN,mask_loop_4.thisIndex,mask_loop_4.ran,mouse_3.x,mouse_3.y,mouse_3.leftButton,mouse_3.midButton,mouse_3.rightButton,mouse_3.clicked_name,double_pass_loop.thisRepN,double_pass_loop.thisTrialN,double_pass_loop.thisN,double_pass_loop.thisIndex,double_pass_loop.ran,space_exit.keys,space_exit.rt
830789,001,2022-11-20_23h55.03.640,Info_measure_main_exp,2022.2.2,Win32,63.93861893,,,,,,,,,,,,,,,,,,,,,,,,,,,,,,,,,,,,,,,,,,,,,,,,,,,,,,,,,,,,,,,,,,,,,,,,,,,,,,,,,,,,,,,,,,,,,,,,,,,,,,,,,,,,,,,
830789,001,2022-11-20_23h55.03.640,Info_measure_main_exp,2022.2.2,Win32,63.93861893,,,,,,,,,,,,,,,,,,,,,,,,,,,,,,,,,,,,,,,,,,,,,,,,,,,,,,,,,,,,,,,,,,,,,,,,,,,,,,,,,,,,,,,,,,,,,,,,,,,,,,,,,,,,,,,
830789,001,2022-11-20_23h55.03.640,Info_measure_main_exp,2022.2.2,Win32,63.93861893,space,14.99,,,,,,,,,,,,,,,,,,,,,,,,,,,,,,,,,,,,,,,,,,,,,,,,,,,,,,,,,,,,,,,,,,,,,,,,,,,,,,,,,,,,,,,,,,,,,,,,,,,,,,,,,,,,,
830789,001,2022-11-20_23h55.03.640,Info_measure_main_exp,2022.2.2,Win32,63.93861893,,,space,25.903,,,,,,,,,,,,,,,,,,,,,,,,,,,,,,,,,,,,,,,,,,,,,,,,,,,,,,,,,,,,,,,,,,,,,,,,,,,,,,,,,,,,,,,,,,,,,,,,,,,,,,,,,,,
830789,001,2022-11-20_23h55.03.640,Info_measure_main_exp,2022.2.2,Win32,63.93861893,,,,,space,11.118,,,,,,,,,,,,,,,,,,,,,,,,,,,,,,,,,,,,,,,,,,,,,,,,,,,,,,,,,,,,,,,,,,,,,,,,,,,,,,,,,,,,,,,,,,,,,,,,,,,,,,,,,
830789,001,2022-11-20_23h55.03.640,Info_measure_main_exp,2022.2.2,Win32,63.93861893,,,,,,,space,55.668,,,,,,,,,,,,,,,,,,,,,,,,,,,,,,,,,,,,,,,,,,,,,,,,,,,,,,,,,,,,,,,,,,,,,,,,,,,,,,,,,,,,,,,,,,,,,,,,,,,,,,,
830789,001,2022-11-20_23h55.03.640,Info_measure_main_exp,2022.2.2,Win32,63.93861893,,,,,,,,,space,12.729,,,,,,,,,,,,,,,,,,,,,,,,,,,,,,,,,,,,,,,,,,,,,,,,,,,,,,,,,,,,,,,,,,,,,,,,,,,,,,,,,,,,,,,,,,,,,,,,,,,,,
830789,001,2022-11-20_23h55.03.640,Info_measure_main_exp,2022.2.2,Win32,63.93861893,,,,,,,,,,,space,6.746,,,,,,,,,,,,,,,,,,,,,,,,,,,,,,,,,,,,,,,,,,,,,,,,,,,,,,,,,,,,,,,,,,,,,,,,,,,,,,,,,,,,,,,,,,,,,,,,,,,
830789,001,2022-11-20_23h55.03.640,Info_measure_main_exp,2022.2.2,Win32,63.93861893,,,,,,,,,,,,,0,0,0,3,1,masks/mask_004.jpg,,,,,,,,,,,,,,,,,,,,,,,,,,,,,,,,,,,,,,,,,,,,,,,,,,,,,,,,,,,,,,,,,,,,,,,,,,,,,,,,,,,,,,,,,,,,,
830789,001,2022-11-20_23h55.03.640,Info_measure_main_exp,2022.2.2,Win32,63.93861893,,,,,,,,,,,,,0,1,1,1,1,masks/mask_002.jpg,,,,,,,,,,,,,,,,,,,,,,,,,,,,,,,,,,,,,,,,,,,,,,,,,,,,,,,,,,,,,,,,,,,,,,,,,,,,,,,,,,,,,,,,,,,,,
830789,001,2022-11-20_23h55.03.640,Info_measure_main_exp,2022.2.2,Win32,63.93861893,,,,,,,,,,,,,0,2,2,0,1,masks/mask_001.jpg,,,,,,,,,,,,,,,,,,,,,,,,,,,,,,,,,,,,,,,,,,,,,,,,,,,,,,,,,,,,,,,,,,,,,,,,,,,,,,,,,,,,,,,,,,,,,
830789,001,2022-11-20_23h55.03.640,Info_measure_main_exp,2022.2.2,Win32,63.93861893,,,,,,,,,,,,,0,3,3,4,1,masks/mask_005.jpg,,,,,,,,,,,,,,,,,,,,,,,,,,,,,,,,,,,,,,,,,,,,,,,,,,,,,,,,,,,,,,,,,,,,,,,,,,,,,,,,,,,,,,,,,,,,,
830789,001,2022-11-20_23h55.03.640,Info_measure_main_exp,2022.2.2,Win32,63.93861893,,,,,,,,,,,,,0,4,4,2,1,masks/mask_003.jpg,,,,,,,,,,,,,,,,,,,,,,,,,,,,,,,,,,,,,,,,,,,,,,,,,,,,,,,,,,,,,,,,,,,,,,,,,,,,,,,,,,,,,,,,,,,,,
830789,001,2022-11-20_23h55.03.640,Info_measure_main_exp,2022.2.2,Win32,63.93861893,,,,,,,,,,,,,,,,,,masks/mask_003.jpg,0,0,0,2,1,,,,,,,,,,,,,,,,,,,,,,,,,,,,,,,,,,,,,,,,,,,,,,,,,,,,,,,,,,,,,,,,,,,,,,,,,,,,,,,,,,,,,,,,
830789,001,2022-11-20_23h55.03.640,Info_measure_main_exp,2022.2.2,Win32,63.93861893,,,,,,,,,,,,,,,,,,masks/mask_004.jpg,0,1,1,3,1,,,,,,,,,,,,,,,,,,,,,,,,,,,,,,,,,,,,,,,,,,,,,,,,,,,,,,,,,,,,,,,,,,,,,,,,,,,,,,,,,,,,,,,,
830789,001,2022-11-20_23h55.03.640,Info_measure_main_exp,2022.2.2,Win32,63.93861893,,,,,,,,,,,,,,,,,,masks/mask_001.jpg,0,2,2,0,1,,,,,,,,,,,,,,,,,,,,,,,,,,,,,,,,,,,,,,,,,,,,,,,,,,,,,,,,,,,,,,,,,,,,,,,,,,,,,,,,,,,,,,,,
830789,001,2022-11-20_23h55.03.640,Info_measure_main_exp,2022.2.2,Win32,63.93861893,,,,,,,,,,,,,,,,,,masks/mask_005.jpg,0,3,3,4,1,,,,,,,,,,,,,,,,,,,,,,,,,,,,,,,,,,,,,,,,,,,,,,,,,,,,,,,,,,,,,,,,,,,,,,,,,,,,,,,,,,,,,,,,
830789,001,2022-11-20_23h55.03.640,Info_measure_main_exp,2022.2.2,Win32,63.93861893,,,,,,,,,,,,,,,,,,masks/mask_002.jpg,0,4,4,1,1,,,,,,,,,,,,,,,,,,,,,,,,,,,,,,,,,,,,,,,,,,,,,,,,,,,,,,,,,,,,,,,,,,,,,,,,,,,,,,,,,,,,,,,,
830789,001,2022-11-20_23h55.03.640,Info_measure_main_exp,2022.2.2,Win32,63.93861893,,,,,,,,,,,,,,,,,,,,,,,,0.041666667,-0.104166667,1,0,0,response3disk,4,134.397,1,0.001302083,-0.0078125,1,0,0,center_square,0,0,0,1,1,0,131,5,5,2514,2490,prac_patch/patch0002514.jpg,prac_patch/patch0002490.jpg,,,,,,,,,,,,,,,,,,,,,,,,,,,,,,,,,,,,,,,,,,,,,,,,,,,,,,,,,,,,
830789,001,2022-11-20_23h55.03.640,Info_measure_main_exp,2022.2.2,Win32,63.93861893,,,,,,,,,,,,,0,0,0,4,1,masks/mask_005.jpg,,,,,,,,,,,,,,,,,,,,,,,,,,,,,,,,,,,,,,,,,,,,,,,,,,,,,,,,,,,,,,,,,,,,,,,,,,,,,,,,,,,,,,,,,,,,,
830789,001,2022-11-20_23h55.03.640,Info_measure_main_exp,2022.2.2,Win32,63.93861893,,,,,,,,,,,,,0,1,1,3,1,masks/mask_004.jpg,,,,,,,,,,,,,,,,,,,,,,,,,,,,,,,,,,,,,,,,,,,,,,,,,,,,,,,,,,,,,,,,,,,,,,,,,,,,,,,,,,,,,,,,,,,,,
830789,001,2022-11-20_23h55.03.640,Info_measure_main_exp,2022.2.2,Win32,63.93861893,,,,,,,,,,,,,0,2,2,0,1,masks/mask_001.jpg,,,,,,,,,,,,,,,,,,,,,,,,,,,,,,,,,,,,,,,,,,,,,,,,,,,,,,,,,,,,,,,,,,,,,,,,,,,,,,,,,,,,,,,,,,,,,
830789,001,2022-11-20_23h55.03.640,Info_measure_main_exp,2022.2.2,Win32,63.93861893,,,,,,,,,,,,,0,3,3,1,1,masks/mask_002.jpg,,,,,,,,,,,,,,,,,,,,,,,,,,,,,,,,,,,,,,,,,,,,,,,,,,,,,,,,,,,,,,,,,,,,,,,,,,,,,,,,,,,,,,,,,,,,,
830789,001,2022-11-20_23h55.03.640,Info_measure_main_exp,2022.2.2,Win32,63.93861893,,,,,,,,,,,,,0,4,4,2,1,masks/mask_003.jpg,,,,,,,,,,,,,,,,,,,,,,,,,,,,,,,,,,,,,,,,,,,,,,,,,,,,,,,,,,,,,,,,,,,,,,,,,,,,,,,,,,,,,,,,,,,,,
830789,001,2022-11-20_23h55.03.640,Info_measure_main_exp,2022.2.2,Win32,63.93861893,,,,,,,,,,,,,,,,,,masks/mask_005.jpg,0,0,0,4,1,,,,,,,,,,,,,,,,,,,,,,,,,,,,,,,,,,,,,,,,,,,,,,,,,,,,,,,,,,,,,,,,,,,,,,,,,,,,,,,,,,,,,,,,
830789,001,2022-11-20_23h55.03.640,Info_measure_main_exp,2022.2.2,Win32,63.93861893,,,,,,,,,,,,,,,,,,masks/mask_001.jpg,0,1,1,0,1,,,,,,,,,,,,,,,,,,,,,,,,,,,,,,,,,,,,,,,,,,,,,,,,,,,,,,,,,,,,,,,,,,,,,,,,,,,,,,,,,,,,,,,,
830789,001,2022-11-20_23h55.03.640,Info_measure_main_exp,2022.2.2,Win32,63.93861893,,,,,,,,,,,,,,,,,,masks/mask_002.jpg,0,2,2,1,1,,,,,,,,,,,,,,,,,,,,,,,,,,,,,,,,,,,,,,,,,,,,,,,,,,,,,,,,,,,,,,,,,,,,,,,,,,,,,,,,,,,,,,,,
830789,001,2022-11-20_23h55.03.640,Info_measure_main_exp,2022.2.2,Win32,63.93861893,,,,,,,,,,,,,,,,,,masks/mask_003.jpg,0,3,3,2,1,,,,,,,,,,,,,,,,,,,,,,,,,,,,,,,,,,,,,,,,,,,,,,,,,,,,,,,,,,,,,,,,,,,,,,,,,,,,,,,,,,,,,,,,
830789,001,2022-11-20_23h55.03.640,Info_measure_main_exp,2022.2.2,Win32,63.93861893,,,,,,,,,,,,,,,,,,masks/mask_004.jpg,0,4,4,3,1,,,,,,,,,,,,,,,,,,,,,,,,,,,,,,,,,,,,,,,,,,,,,,,,,,,,,,,,,,,,,,,,,,,,,,,,,,,,,,,,,,,,,,,,
830789,001,2022-11-20_23h55.03.640,Info_measure_main_exp,2022.2.2,Win32,63.93861893,,,,,,,,,,,,,,,,,,,,,,,,0.053385417,0.130208333,1,0,0,response1disk,7,146.691,1,0.002604167,0.01171875,1,0,0,center_square,0,1,1,0,1,0,131,5,5,2370,2406,prac_patch/patch0002370.jpg,prac_patch/patch0002406.jpg,,,,,,,,,,,,,,,,,,,,,,,,,,,,,,,,,,,,,,,,,,,,,,,,,,,,,,,,,,,,
830789,001,2022-11-20_23h55.03.640,Info_measure_main_exp,2022.2.2,Win32,63.93861893,,,,,,,,,,,,,0,0,0,2,1,masks/mask_003.jpg,,,,,,,,,,,,,,,,,,,,,,,,,,,,,,,,,,,,,,,,,,,,,,,,,,,,,,,,,,,,,,,,,,,,,,,,,,,,,,,,,,,,,,,,,,,,,
830789,001,2022-11-20_23h55.03.640,Info_measure_main_exp,2022.2.2,Win32,63.93861893,,,,,,,,,,,,,0,1,1,4,1,masks/mask_005.jpg,,,,,,,,,,,,,,,,,,,,,,,,,,,,,,,,,,,,,,,,,,,,,,,,,,,,,,,,,,,,,,,,,,,,,,,,,,,,,,,,,,,,,,,,,,,,,
830789,001,2022-11-20_23h55.03.640,Info_measure_main_exp,2022.2.2,Win32,63.93861893,,,,,,,,,,,,,0,2,2,0,1,masks/mask_001.jpg,,,,,,,,,,,,,,,,,,,,,,,,,,,,,,,,,,,,,,,,,,,,,,,,,,,,,,,,,,,,,,,,,,,,,,,,,,,,,,,,,,,,,,,,,,,,,
830789,001,2022-11-20_23h55.03.640,Info_measure_main_exp,2022.2.2,Win32,63.93861893,,,,,,,,,,,,,0,3,3,1,1,masks/mask_002.jpg,,,,,,,,,,,,,,,,,,,,,,,,,,,,,,,,,,,,,,,,,,,,,,,,,,,,,,,,,,,,,,,,,,,,,,,,,,,,,,,,,,,,,,,,,,,,,
830789,001,2022-11-20_23h55.03.640,Info_measure_main_exp,2022.2.2,Win32,63.93861893,,,,,,,,,,,,,0,4,4,3,1,masks/mask_004.jpg,,,,,,,,,,,,,,,,,,,,,,,,,,,,,,,,,,,,,,,,,,,,,,,,,,,,,,,,,,,,,,,,,,,,,,,,,,,,,,,,,,,,,,,,,,,,,
830789,001,2022-11-20_23h55.03.640,Info_measure_main_exp,2022.2.2,Win32,63.93861893,,,,,,,,,,,,,,,,,,masks/mask_005.jpg,0,0,0,4,1,,,,,,,,,,,,,,,,,,,,,,,,,,,,,,,,,,,,,,,,,,,,,,,,,,,,,,,,,,,,,,,,,,,,,,,,,,,,,,,,,,,,,,,,
830789,001,2022-11-20_23h55.03.640,Info_measure_main_exp,2022.2.2,Win32,63.93861893,,,,,,,,,,,,,,,,,,masks/mask_002.jpg,0,1,1,1,1,,,,,,,,,,,,,,,,,,,,,,,,,,,,,,,,,,,,,,,,,,,,,,,,,,,,,,,,,,,,,,,,,,,,,,,,,,,,,,,,,,,,,,,,
830789,001,2022-11-20_23h55.03.640,Info_measure_main_exp,2022.2.2,Win32,63.93861893,,,,,,,,,,,,,,,,,,masks/mask_001.jpg,0,2,2,0,1,,,,,,,,,,,,,,,,,,,,,,,,,,,,,,,,,,,,,,,,,,,,,,,,,,,,,,,,,,,,,,,,,,,,,,,,,,,,,,,,,,,,,,,,
830789,001,2022-11-20_23h55.03.640,Info_measure_main_exp,2022.2.2,Win32,63.93861893,,,,,,,,,,,,,,,,,,masks/mask_004.jpg,0,3,3,3,1,,,,,,,,,,,,,,,,,,,,,,,,,,,,,,,,,,,,,,,,,,,,,,,,,,,,,,,,,,,,,,,,,,,,,,,,,,,,,,,,,,,,,,,,
830789,001,2022-11-20_23h55.03.640,Info_measure_main_exp,2022.2.2,Win32,63.93861893,,,,,,,,,,,,,,,,,,masks/mask_003.jpg,0,4,4,2,1,,,,,,,,,,,,,,,,,,,,,,,,,,,,,,,,,,,,,,,,,,,,,,,,,,,,,,,,,,,,,,,,,,,,,,,,,,,,,,,,,,,,,,,,
830789,001,2022-11-20_23h55.03.640,Info_measure_main_exp,2022.2.2,Win32,63.93861893,,,,,,,,,,,,,,,,,,,,,,,,-0.046875,0.10546875,1,0,0,response7disk,0,156.098,1,-0.002604167,-0.0078125,1,0,0,center_square,0,2,2,2,1,0,131,5,5,2526,2526,prac_patch/patch0002526.jpg,prac_patch/patch0002526.jpg,,,,,,,,,,,,,,,,,,,,,,,,,,,,,,,,,,,,,,,,,,,,,,,,,,,,,,,,,,,,
830789,001,2022-11-20_23h55.03.640,Info_measure_main_exp,2022.2.2,Win32,63.93861893,,,,,,,,,,,,,,,,,,,,,,,,,,,,,,,,,,,,,,,,,,,,,,,,,,,,,,,,,,,space,3.952,,,,,,,,,,,,,,,,,,,,,,,,,,,,,,,,,,,,,,,,,,,,,,,,,,,
830789,001,2022-11-20_23h55.03.640,Info_measure_main_exp,2022.2.2,Win32,63.93861893,,,,,,,,,,,,,,,,,,masks/mask_004.jpg,,,,,,,,,,,,,,,,,,,,,,,,,,,,,,,,,,,,,,,,,,,0,0,0,3,1,,,,,,,,,,,,,,,,,,,,,,,,,,,,,,,,,,,,,,,,,,,,,,
830789,001,2022-11-20_23h55.03.640,Info_measure_main_exp,2022.2.2,Win32,63.93861893,,,,,,,,,,,,,,,,,,masks/mask_005.jpg,,,,,,,,,,,,,,,,,,,,,,,,,,,,,,,,,,,,,,,,,,,0,1,1,4,1,,,,,,,,,,,,,,,,,,,,,,,,,,,,,,,,,,,,,,,,,,,,,,
830789,001,2022-11-20_23h55.03.640,Info_measure_main_exp,2022.2.2,Win32,63.93861893,,,,,,,,,,,,,,,,,,masks/mask_001.jpg,,,,,,,,,,,,,,,,,,,,,,,,,,,,,,,,,,,,,,,,,,,0,2,2,0,1,,,,,,,,,,,,,,,,,,,,,,,,,,,,,,,,,,,,,,,,,,,,,,
830789,001,2022-11-20_23h55.03.640,Info_measure_main_exp,2022.2.2,Win32,63.93861893,,,,,,,,,,,,,,,,,,masks/mask_002.jpg,,,,,,,,,,,,,,,,,,,,,,,,,,,,,,,,,,,,,,,,,,,0,3,3,1,1,,,,,,,,,,,,,,,,,,,,,,,,,,,,,,,,,,,,,,,,,,,,,,
830789,001,2022-11-20_23h55.03.640,Info_measure_main_exp,2022.2.2,Win32,63.93861893,,,,,,,,,,,,,,,,,,masks/mask_003.jpg,,,,,,,,,,,,,,,,,,,,,,,,,,,,,,,,,,,,,,,,,,,0,4,4,2,1,,,,,,,,,,,,,,,,,,,,,,,,,,,,,,,,,,,,,,,,,,,,,,
830789,001,2022-11-20_23h55.03.640,Info_measure_main_exp,2022.2.2,Win32,63.93861893,,,,,,,,,,,,,,,,,,masks/mask_004.jpg,,,,,,,,,,,,,,,,,,,,,,,,,,,,,,,,,,,,,,,,,,,,,,,,0,0,0,3,1,,,,,,,,,,,,,,,,,,,,,,,,,,,,,,,,,,,,,,,,,
830789,001,2022-11-20_23h55.03.640,Info_measure_main_exp,2022.2.2,Win32,63.93861893,,,,,,,,,,,,,,,,,,masks/mask_001.jpg,,,,,,,,,,,,,,,,,,,,,,,,,,,,,,,,,,,,,,,,,,,,,,,,0,1,1,0,1,,,,,,,,,,,,,,,,,,,,,,,,,,,,,,,,,,,,,,,,,
830789,001,2022-11-20_23h55.03.640,Info_measure_main_exp,2022.2.2,Win32,63.93861893,,,,,,,,,,,,,,,,,,masks/mask_003.jpg,,,,,,,,,,,,,,,,,,,,,,,,,,,,,,,,,,,,,,,,,,,,,,,,0,2,2,2,1,,,,,,,,,,,,,,,,,,,,,,,,,,,,,,,,,,,,,,,,,
830789,001,2022-11-20_23h55.03.640,Info_measure_main_exp,2022.2.2,Win32,63.93861893,,,,,,,,,,,,,,,,,,masks/mask_005.jpg,,,,,,,,,,,,,,,,,,,,,,,,,,,,,,,,,,,,,,,,,,,,,,,,0,3,3,4,1,,,,,,,,,,,,,,,,,,,,,,,,,,,,,,,,,,,,,,,,,
830789,001,2022-11-20_23h55.03.640,Info_measure_main_exp,2022.2.2,Win32,63.93861893,,,,,,,,,,,,,,,,,,masks/mask_002.jpg,,,,,,,,,,,,,,,,,,,,,,,,,,,,,,,,,,,,,,,,,,,,,,,,0,4,4,1,1,,,,,,,,,,,,,,,,,,,,,,,,,,,,,,,,,,,,,,,,,
830789,001,2022-11-20_23h55.03.640,Info_measure_main_exp,2022.2.2,Win32,63.93861893,,,,,,,,,,,,,,,,,,,,,,,,,,,,,,0,3.745,1,,,,,,,,,,,,0,131,5,5,2274,2214,absent_patch/patch0002274.jpg,absent_patch/patch0002214.jpg,,,,,,,,,,,,,,,,,,,,-0.05078125,0.095052083,1,0,0,response7disk,1,-0.005208333,0.009114583,1,0,0,center_square,0,0,0,11,1,,,,,,,,,,,,,,,,,,,,,,,
830789,001,2022-11-20_23h55.03.640,Info_measure_main_exp,2022.2.2,Win32,63.93861893,,,,,,,,,,,,,,,,,,masks/mask_002.jpg,,,,,,,,,,,,,,,,,,,,,,,,,,,,,,,,,,,,,,,,,,,0,0,0,1,1,,,,,,,,,,,,,,,,,,,,,,,,,,,,,,,,,,,,,,,,,,,,,,
830789,001,2022-11-20_23h55.03.640,Info_measure_main_exp,2022.2.2,Win32,63.93861893,,,,,,,,,,,,,,,,,,masks/mask_005.jpg,,,,,,,,,,,,,,,,,,,,,,,,,,,,,,,,,,,,,,,,,,,0,1,1,4,1,,,,,,,,,,,,,,,,,,,,,,,,,,,,,,,,,,,,,,,,,,,,,,
830789,001,2022-11-20_23h55.03.640,Info_measure_main_exp,2022.2.2,Win32,63.93861893,,,,,,,,,,,,,,,,,,masks/mask_001.jpg,,,,,,,,,,,,,,,,,,,,,,,,,,,,,,,,,,,,,,,,,,,0,2,2,0,1,,,,,,,,,,,,,,,,,,,,,,,,,,,,,,,,,,,,,,,,,,,,,,
830789,001,2022-11-20_23h55.03.640,Info_measure_main_exp,2022.2.2,Win32,63.93861893,,,,,,,,,,,,,,,,,,masks/mask_003.jpg,,,,,,,,,,,,,,,,,,,,,,,,,,,,,,,,,,,,,,,,,,,0,3,3,2,1,,,,,,,,,,,,,,,,,,,,,,,,,,,,,,,,,,,,,,,,,,,,,,
830789,001,2022-11-20_23h55.03.640,Info_measure_main_exp,2022.2.2,Win32,63.93861893,,,,,,,,,,,,,,,,,,masks/mask_004.jpg,,,,,,,,,,,,,,,,,,,,,,,,,,,,,,,,,,,,,,,,,,,0,4,4,3,1,,,,,,,,,,,,,,,,,,,,,,,,,,,,,,,,,,,,,,,,,,,,,,
830789,001,2022-11-20_23h55.03.640,Info_measure_main_exp,2022.2.2,Win32,63.93861893,,,,,,,,,,,,,,,,,,masks/mask_003.jpg,,,,,,,,,,,,,,,,,,,,,,,,,,,,,,,,,,,,,,,,,,,,,,,,0,0,0,2,1,,,,,,,,,,,,,,,,,,,,,,,,,,,,,,,,,,,,,,,,,
830789,001,2022-11-20_23h55.03.640,Info_measure_main_exp,2022.2.2,Win32,63.93861893,,,,,,,,,,,,,,,,,,masks/mask_004.jpg,,,,,,,,,,,,,,,,,,,,,,,,,,,,,,,,,,,,,,,,,,,,,,,,0,1,1,3,1,,,,,,,,,,,,,,,,,,,,,,,,,,,,,,,,,,,,,,,,,
830789,001,2022-11-20_23h55.03.640,Info_measure_main_exp,2022.2.2,Win32,63.93861893,,,,,,,,,,,,,,,,,,masks/mask_005.jpg,,,,,,,,,,,,,,,,,,,,,,,,,,,,,,,,,,,,,,,,,,,,,,,,0,2,2,4,1,,,,,,,,,,,,,,,,,,,,,,,,,,,,,,,,,,,,,,,,,
830789,001,2022-11-20_23h55.03.640,Info_measure_main_exp,2022.2.2,Win32,63.93861893,,,,,,,,,,,,,,,,,,masks/mask_001.jpg,,,,,,,,,,,,,,,,,,,,,,,,,,,,,,,,,,,,,,,,,,,,,,,,0,3,3,0,1,,,,,,,,,,,,,,,,,,,,,,,,,,,,,,,,,,,,,,,,,
830789,001,2022-11-20_23h55.03.640,Info_measure_main_exp,2022.2.2,Win32,63.93861893,,,,,,,,,,,,,,,,,,masks/mask_002.jpg,,,,,,,,,,,,,,,,,,,,,,,,,,,,,,,,,,,,,,,,,,,,,,,,0,4,4,1,1,,,,,,,,,,,,,,,,,,,,,,,,,,,,,,,,,,,,,,,,,
830789,001,2022-11-20_23h55.03.640,Info_measure_main_exp,2022.2.2,Win32,63.93861893,,,,,,,,,,,,,,,,,,,,,,,,,,,,,,0,0.713,1,,,,,,,,,,,,0,131,5,5,1974,2214,absent_patch/patch0001974.jpg,absent_patch/patch0002214.jpg,,,,,,,,,,,,,,,,,,,,-0.078125,0.135416667,1,0,0,response7disk,2,-0.002604167,0.00390625,1,0,0,center_square,0,1,1,24,1,,,,,,,,,,,,,,,,,,,,,,,
830789,001,2022-11-20_23h55.03.640,Info_measure_main_exp,2022.2.2,Win32,63.93861893,,,,,,,,,,,,,,,,,,masks/mask_004.jpg,,,,,,,,,,,,,,,,,,,,,,,,,,,,,,,,,,,,,,,,,,,0,0,0,3,1,,,,,,,,,,,,,,,,,,,,,,,,,,,,,,,,,,,,,,,,,,,,,,
830789,001,2022-11-20_23h55.03.640,Info_measure_main_exp,2022.2.2,Win32,63.93861893,,,,,,,,,,,,,,,,,,masks/mask_003.jpg,,,,,,,,,,,,,,,,,,,,,,,,,,,,,,,,,,,,,,,,,,,0,1,1,2,1,,,,,,,,,,,,,,,,,,,,,,,,,,,,,,,,,,,,,,,,,,,,,,
830789,001,2022-11-20_23h55.03.640,Info_measure_main_exp,2022.2.2,Win32,63.93861893,,,,,,,,,,,,,,,,,,masks/mask_002.jpg,,,,,,,,,,,,,,,,,,,,,,,,,,,,,,,,,,,,,,,,,,,0,2,2,1,1,,,,,,,,,,,,,,,,,,,,,,,,,,,,,,,,,,,,,,,,,,,,,,
830789,001,2022-11-20_23h55.03.640,Info_measure_main_exp,2022.2.2,Win32,63.93861893,,,,,,,,,,,,,,,,,,masks/mask_001.jpg,,,,,,,,,,,,,,,,,,,,,,,,,,,,,,,,,,,,,,,,,,,0,3,3,0,1,,,,,,,,,,,,,,,,,,,,,,,,,,,,,,,,,,,,,,,,,,,,,,
830789,001,2022-11-20_23h55.03.640,Info_measure_main_exp,2022.2.2,Win32,63.93861893,,,,,,,,,,,,,,,,,,masks/mask_005.jpg,,,,,,,,,,,,,,,,,,,,,,,,,,,,,,,,,,,,,,,,,,,0,4,4,4,1,,,,,,,,,,,,,,,,,,,,,,,,,,,,,,,,,,,,,,,,,,,,,,
830789,001,2022-11-20_23h55.03.640,Info_measure_main_exp,2022.2.2,Win32,63.93861893,,,,,,,,,,,,,,,,,,masks/mask_001.jpg,,,,,,,,,,,,,,,,,,,,,,,,,,,,,,,,,,,,,,,,,,,,,,,,0,0,0,0,1,,,,,,,,,,,,,,,,,,,,,,,,,,,,,,,,,,,,,,,,,
830789,001,2022-11-20_23h55.03.640,Info_measure_main_exp,2022.2.2,Win32,63.93861893,,,,,,,,,,,,,,,,,,masks/mask_004.jpg,,,,,,,,,,,,,,,,,,,,,,,,,,,,,,,,,,,,,,,,,,,,,,,,0,1,1,3,1,,,,,,,,,,,,,,,,,,,,,,,,,,,,,,,,,,,,,,,,,
830789,001,2022-11-20_23h55.03.640,Info_measure_main_exp,2022.2.2,Win32,63.93861893,,,,,,,,,,,,,,,,,,masks/mask_003.jpg,,,,,,,,,,,,,,,,,,,,,,,,,,,,,,,,,,,,,,,,,,,,,,,,0,2,2,2,1,,,,,,,,,,,,,,,,,,,,,,,,,,,,,,,,,,,,,,,,,
830789,001,2022-11-20_23h55.03.640,Info_measure_main_exp,2022.2.2,Win32,63.93861893,,,,,,,,,,,,,,,,,,masks/mask_005.jpg,,,,,,,,,,,,,,,,,,,,,,,,,,,,,,,,,,,,,,,,,,,,,,,,0,3,3,4,1,,,,,,,,,,,,,,,,,,,,,,,,,,,,,,,,,,,,,,,,,
830789,001,2022-11-20_23h55.03.640,Info_measure_main_exp,2022.2.2,Win32,63.93861893,,,,,,,,,,,,,,,,,,masks/mask_002.jpg,,,,,,,,,,,,,,,,,,,,,,,,,,,,,,,,,,,,,,,,,,,,,,,,0,4,4,1,1,,,,,,,,,,,,,,,,,,,,,,,,,,,,,,,,,,,,,,,,,
830789,001,2022-11-20_23h55.03.640,Info_measure_main_exp,2022.2.2,Win32,63.93861893,,,,,,,,,,,,,,,,,,,,,,,,,,,,,,4,8.538,1,,,,,,,,,,,,0,131,5,5,2238,2298,absent_patch/patch0002238.jpg,absent_patch/patch0002298.jpg,,,,,,,,,,,,,,,,,,,,0.028645833,-0.1171875,1,0,0,response3disk,3,0.002604167,-0.0078125,1,0,0,center_square,0,2,2,51,1,,,,,,,,,,,,,,,,,,,,,,,
830789,001,2022-11-20_23h55.03.640,Info_measure_main_exp,2022.2.2,Win32,63.93861893,,,,,,,,,,,,,,,,,,masks/mask_004.jpg,,,,,,,,,,,,,,,,,,,,,,,,,,,,,,,,,,,,,,,,,,,0,0,0,3,1,,,,,,,,,,,,,,,,,,,,,,,,,,,,,,,,,,,,,,,,,,,,,,
830789,001,2022-11-20_23h55.03.640,Info_measure_main_exp,2022.2.2,Win32,63.93861893,,,,,,,,,,,,,,,,,,masks/mask_005.jpg,,,,,,,,,,,,,,,,,,,,,,,,,,,,,,,,,,,,,,,,,,,0,1,1,4,1,,,,,,,,,,,,,,,,,,,,,,,,,,,,,,,,,,,,,,,,,,,,,,
830789,001,2022-11-20_23h55.03.640,Info_measure_main_exp,2022.2.2,Win32,63.93861893,,,,,,,,,,,,,,,,,,masks/mask_002.jpg,,,,,,,,,,,,,,,,,,,,,,,,,,,,,,,,,,,,,,,,,,,0,2,2,1,1,,,,,,,,,,,,,,,,,,,,,,,,,,,,,,,,,,,,,,,,,,,,,,
830789,001,2022-11-20_23h55.03.640,Info_measure_main_exp,2022.2.2,Win32,63.93861893,,,,,,,,,,,,,,,,,,masks/mask_001.jpg,,,,,,,,,,,,,,,,,,,,,,,,,,,,,,,,,,,,,,,,,,,0,3,3,0,1,,,,,,,,,,,,,,,,,,,,,,,,,,,,,,,,,,,,,,,,,,,,,,
830789,001,2022-11-20_23h55.03.640,Info_measure_main_exp,2022.2.2,Win32,63.93861893,,,,,,,,,,,,,,,,,,masks/mask_003.jpg,,,,,,,,,,,,,,,,,,,,,,,,,,,,,,,,,,,,,,,,,,,0,4,4,2,1,,,,,,,,,,,,,,,,,,,,,,,,,,,,,,,,,,,,,,,,,,,,,,
830789,001,2022-11-20_23h55.03.640,Info_measure_main_exp,2022.2.2,Win32,63.93861893,,,,,,,,,,,,,,,,,,masks/mask_002.jpg,,,,,,,,,,,,,,,,,,,,,,,,,,,,,,,,,,,,,,,,,,,,,,,,0,0,0,1,1,,,,,,,,,,,,,,,,,,,,,,,,,,,,,,,,,,,,,,,,,
830789,001,2022-11-20_23h55.03.640,Info_measure_main_exp,2022.2.2,Win32,63.93861893,,,,,,,,,,,,,,,,,,masks/mask_003.jpg,,,,,,,,,,,,,,,,,,,,,,,,,,,,,,,,,,,,,,,,,,,,,,,,0,1,1,2,1,,,,,,,,,,,,,,,,,,,,,,,,,,,,,,,,,,,,,,,,,
830789,001,2022-11-20_23h55.03.640,Info_measure_main_exp,2022.2.2,Win32,63.93861893,,,,,,,,,,,,,,,,,,masks/mask_004.jpg,,,,,,,,,,,,,,,,,,,,,,,,,,,,,,,,,,,,,,,,,,,,,,,,0,2,2,3,1,,,,,,,,,,,,,,,,,,,,,,,,,,,,,,,,,,,,,,,,,
830789,001,2022-11-20_23h55.03.640,Info_measure_main_exp,2022.2.2,Win32,63.93861893,,,,,,,,,,,,,,,,,,masks/mask_005.jpg,,,,,,,,,,,,,,,,,,,,,,,,,,,,,,,,,,,,,,,,,,,,,,,,0,3,3,4,1,,,,,,,,,,,,,,,,,,,,,,,,,,,,,,,,,,,,,,,,,
830789,001,2022-11-20_23h55.03.640,Info_measure_main_exp,2022.2.2,Win32,63.93861893,,,,,,,,,,,,,,,,,,masks/mask_001.jpg,,,,,,,,,,,,,,,,,,,,,,,,,,,,,,,,,,,,,,,,,,,,,,,,0,4,4,0,1,,,,,,,,,,,,,,,,,,,,,,,,,,,,,,,,,,,,,,,,,
830789,001,2022-11-20_23h55.03.640,Info_measure_main_exp,2022.2.2,Win32,63.93861893,,,,,,,,,,,,,,,,,,,,,,,,,,,,,,5,5.248,1,,,,,,,,,,,,0,131,5,5,2178,2142,absent_patch/patch0002178.jpg,absent_patch/patch0002142.jpg,,,,,,,,,,,,,,,,,,,,0.11328125,-0.037760417,1,0,0,response3disk,4,-0.005208333,0.002604167,1,0,0,center_square,0,3,3,41,1,,,,,,,,,,,,,,,,,,,,,,,
830789,001,2022-11-20_23h55.03.640,Info_measure_main_exp,2022.2.2,Win32,63.93861893,,,,,,,,,,,,,,,,,,masks/mask_001.jpg,,,,,,,,,,,,,,,,,,,,,,,,,,,,,,,,,,,,,,,,,,,0,0,0,0,1,,,,,,,,,,,,,,,,,,,,,,,,,,,,,,,,,,,,,,,,,,,,,,
830789,001,2022-11-20_23h55.03.640,Info_measure_main_exp,2022.2.2,Win32,63.93861893,,,,,,,,,,,,,,,,,,masks/mask_005.jpg,,,,,,,,,,,,,,,,,,,,,,,,,,,,,,,,,,,,,,,,,,,0,1,1,4,1,,,,,,,,,,,,,,,,,,,,,,,,,,,,,,,,,,,,,,,,,,,,,,
830789,001,2022-11-20_23h55.03.640,Info_measure_main_exp,2022.2.2,Win32,63.93861893,,,,,,,,,,,,,,,,,,masks/mask_002.jpg,,,,,,,,,,,,,,,,,,,,,,,,,,,,,,,,,,,,,,,,,,,0,2,2,1,1,,,,,,,,,,,,,,,,,,,,,,,,,,,,,,,,,,,,,,,,,,,,,,
830789,001,2022-11-20_23h55.03.640,Info_measure_main_exp,2022.2.2,Win32,63.93861893,,,,,,,,,,,,,,,,,,masks/mask_003.jpg,,,,,,,,,,,,,,,,,,,,,,,,,,,,,,,,,,,,,,,,,,,0,3,3,2,1,,,,,,,,,,,,,,,,,,,,,,,,,,,,,,,,,,,,,,,,,,,,,,
830789,001,2022-11-20_23h55.03.640,Info_measure_main_exp,2022.2.2,Win32,63.93861893,,,,,,,,,,,,,,,,,,masks/mask_004.jpg,,,,,,,,,,,,,,,,,,,,,,,,,,,,,,,,,,,,,,,,,,,0,4,4,3,1,,,,,,,,,,,,,,,,,,,,,,,,,,,,,,,,,,,,,,,,,,,,,,
830789,001,2022-11-20_23h55.03.640,Info_measure_main_exp,2022.2.2,Win32,63.93861893,,,,,,,,,,,,,,,,,,masks/mask_002.jpg,,,,,,,,,,,,,,,,,,,,,,,,,,,,,,,,,,,,,,,,,,,,,,,,0,0,0,1,1,,,,,,,,,,,,,,,,,,,,,,,,,,,,,,,,,,,,,,,,,
830789,001,2022-11-20_23h55.03.640,Info_measure_main_exp,2022.2.2,Win32,63.93861893,,,,,,,,,,,,,,,,,,masks/mask_004.jpg,,,,,,,,,,,,,,,,,,,,,,,,,,,,,,,,,,,,,,,,,,,,,,,,0,1,1,3,1,,,,,,,,,,,,,,,,,,,,,,,,,,,,,,,,,,,,,,,,,
830789,001,2022-11-20_23h55.03.640,Info_measure_main_exp,2022.2.2,Win32,63.93861893,,,,,,,,,,,,,,,,,,masks/mask_001.jpg,,,,,,,,,,,,,,,,,,,,,,,,,,,,,,,,,,,,,,,,,,,,,,,,0,2,2,0,1,,,,,,,,,,,,,,,,,,,,,,,,,,,,,,,,,,,,,,,,,
830789,001,2022-11-20_23h55.03.640,Info_measure_main_exp,2022.2.2,Win32,63.93861893,,,,,,,,,,,,,,,,,,masks/mask_005.jpg,,,,,,,,,,,,,,,,,,,,,,,,,,,,,,,,,,,,,,,,,,,,,,,,0,3,3,4,1,,,,,,,,,,,,,,,,,,,,,,,,,,,,,,,,,,,,,,,,,
830789,001,2022-11-20_23h55.03.640,Info_measure_main_exp,2022.2.2,Win32,63.93861893,,,,,,,,,,,,,,,,,,masks/mask_003.jpg,,,,,,,,,,,,,,,,,,,,,,,,,,,,,,,,,,,,,,,,,,,,,,,,0,4,4,2,1,,,,,,,,,,,,,,,,,,,,,,,,,,,,,,,,,,,,,,,,,
830789,001,2022-11-20_23h55.03.640,Info_measure_main_exp,2022.2.2,Win32,63.93861893,,,,,,,,,,,,,,,,,,,,,,,,,,,,,,2,1.292,1,,,,,,,,,,,,0,131,5,5,2142,2166,absent_patch/patch0002142.jpg,absent_patch/patch0002166.jpg,,,,,,,,,,,,,,,,,,,,-0.091145833,-0.029947917,1,0,0,response5disk,5,0.009114583,0.00390625,1,0,0,center_square,0,4,4,66,1,,,,,,,,,,,,,,,,,,,,,,,
830789,001,2022-11-20_23h55.03.640,Info_measure_main_exp,2022.2.2,Win32,63.93861893,,,,,,,,,,,,,,,,,,masks/mask_005.jpg,,,,,,,,,,,,,,,,,,,,,,,,,,,,,,,,,,,,,,,,,,,0,0,0,4,1,,,,,,,,,,,,,,,,,,,,,,,,,,,,,,,,,,,,,,,,,,,,,,
830789,001,2022-11-20_23h55.03.640,Info_measure_main_exp,2022.2.2,Win32,63.93861893,,,,,,,,,,,,,,,,,,masks/mask_001.jpg,,,,,,,,,,,,,,,,,,,,,,,,,,,,,,,,,,,,,,,,,,,0,1,1,0,1,,,,,,,,,,,,,,,,,,,,,,,,,,,,,,,,,,,,,,,,,,,,,,
830789,001,2022-11-20_23h55.03.640,Info_measure_main_exp,2022.2.2,Win32,63.93861893,,,,,,,,,,,,,,,,,,masks/mask_002.jpg,,,,,,,,,,,,,,,,,,,,,,,,,,,,,,,,,,,,,,,,,,,0,2,2,1,1,,,,,,,,,,,,,,,,,,,,,,,,,,,,,,,,,,,,,,,,,,,,,,
830789,001,2022-11-20_23h55.03.640,Info_measure_main_exp,2022.2.2,Win32,63.93861893,,,,,,,,,,,,,,,,,,masks/mask_004.jpg,,,,,,,,,,,,,,,,,,,,,,,,,,,,,,,,,,,,,,,,,,,0,3,3,3,1,,,,,,,,,,,,,,,,,,,,,,,,,,,,,,,,,,,,,,,,,,,,,,
830789,001,2022-11-20_23h55.03.640,Info_measure_main_exp,2022.2.2,Win32,63.93861893,,,,,,,,,,,,,,,,,,masks/mask_003.jpg,,,,,,,,,,,,,,,,,,,,,,,,,,,,,,,,,,,,,,,,,,,0,4,4,2,1,,,,,,,,,,,,,,,,,,,,,,,,,,,,,,,,,,,,,,,,,,,,,,
830789,001,2022-11-20_23h55.03.640,Info_measure_main_exp,2022.2.2,Win32,63.93861893,,,,,,,,,,,,,,,,,,masks/mask_001.jpg,,,,,,,,,,,,,,,,,,,,,,,,,,,,,,,,,,,,,,,,,,,,,,,,0,0,0,0,1,,,,,,,,,,,,,,,,,,,,,,,,,,,,,,,,,,,,,,,,,
830789,001,2022-11-20_23h55.03.640,Info_measure_main_exp,2022.2.2,Win32,63.93861893,,,,,,,,,,,,,,,,,,masks/mask_004.jpg,,,,,,,,,,,,,,,,,,,,,,,,,,,,,,,,,,,,,,,,,,,,,,,,0,1,1,3,1,,,,,,,,,,,,,,,,,,,,,,,,,,,,,,,,,,,,,,,,,
830789,001,2022-11-20_23h55.03.640,Info_measure_main_exp,2022.2.2,Win32,63.93861893,,,,,,,,,,,,,,,,,,masks/mask_002.jpg,,,,,,,,,,,,,,,,,,,,,,,,,,,,,,,,,,,,,,,,,,,,,,,,0,2,2,1,1,,,,,,,,,,,,,,,,,,,,,,,,,,,,,,,,,,,,,,,,,
830789,001,2022-11-20_23h55.03.640,Info_measure_main_exp,2022.2.2,Win32,63.93861893,,,,,,,,,,,,,,,,,,masks/mask_005.jpg,,,,,,,,,,,,,,,,,,,,,,,,,,,,,,,,,,,,,,,,,,,,,,,,0,3,3,4,1,,,,,,,,,,,,,,,,,,,,,,,,,,,,,,,,,,,,,,,,,
830789,001,2022-11-20_23h55.03.640,Info_measure_main_exp,2022.2.2,Win32,63.93861893,,,,,,,,,,,,,,,,,,masks/mask_003.jpg,,,,,,,,,,,,,,,,,,,,,,,,,,,,,,,,,,,,,,,,,,,,,,,,0,4,4,2,1,,,,,,,,,,,,,,,,,,,,,,,,,,,,,,,,,,,,,,,,,
830789,001,2022-11-20_23h55.03.640,Info_measure_main_exp,2022.2.2,Win32,63.93861893,,,,,,,,,,,,,,,,,,,,,,,,,,,,,,0,1.167,1,,,,,,,,,,,,0,131,5,5,2166,2166,absent_patch/patch0002166.jpg,absent_patch/patch0002166.jpg,,,,,,,,,,,,,,,,,,,,-0.009114583,0.153645833,1,0,0,response7disk,6,0.002604167,-0.005208333,1,0,0,center_square,0,5,5,42,1,,,,,,,,,,,,,,,,,,,,,,,
830789,001,2022-11-20_23h55.03.640,Info_measure_main_exp,2022.2.2,Win32,63.93861893,,,,,,,,,,,,,,,,,,masks/mask_004.jpg,,,,,,,,,,,,,,,,,,,,,,,,,,,,,,,,,,,,,,,,,,,0,0,0,3,1,,,,,,,,,,,,,,,,,,,,,,,,,,,,,,,,,,,,,,,,,,,,,,
830789,001,2022-11-20_23h55.03.640,Info_measure_main_exp,2022.2.2,Win32,63.93861893,,,,,,,,,,,,,,,,,,masks/mask_003.jpg,,,,,,,,,,,,,,,,,,,,,,,,,,,,,,,,,,,,,,,,,,,0,1,1,2,1,,,,,,,,,,,,,,,,,,,,,,,,,,,,,,,,,,,,,,,,,,,,,,
830789,001,2022-11-20_23h55.03.640,Info_measure_main_exp,2022.2.2,Win32,63.93861893,,,,,,,,,,,,,,,,,,masks/mask_002.jpg,,,,,,,,,,,,,,,,,,,,,,,,,,,,,,,,,,,,,,,,,,,0,2,2,1,1,,,,,,,,,,,,,,,,,,,,,,,,,,,,,,,,,,,,,,,,,,,,,,
830789,001,2022-11-20_23h55.03.640,Info_measure_main_exp,2022.2.2,Win32,63.93861893,,,,,,,,,,,,,,,,,,masks/mask_005.jpg,,,,,,,,,,,,,,,,,,,,,,,,,,,,,,,,,,,,,,,,,,,0,3,3,4,1,,,,,,,,,,,,,,,,,,,,,,,,,,,,,,,,,,,,,,,,,,,,,,
830789,001,2022-11-20_23h55.03.640,Info_measure_main_exp,2022.2.2,Win32,63.93861893,,,,,,,,,,,,,,,,,,masks/mask_001.jpg,,,,,,,,,,,,,,,,,,,,,,,,,,,,,,,,,,,,,,,,,,,0,4,4,0,1,,,,,,,,,,,,,,,,,,,,,,,,,,,,,,,,,,,,,,,,,,,,,,
830789,001,2022-11-20_23h55.03.640,Info_measure_main_exp,2022.2.2,Win32,63.93861893,,,,,,,,,,,,,,,,,,masks/mask_001.jpg,,,,,,,,,,,,,,,,,,,,,,,,,,,,,,,,,,,,,,,,,,,,,,,,0,0,0,0,1,,,,,,,,,,,,,,,,,,,,,,,,,,,,,,,,,,,,,,,,,
830789,001,2022-11-20_23h55.03.640,Info_measure_main_exp,2022.2.2,Win32,63.93861893,,,,,,,,,,,,,,,,,,masks/mask_002.jpg,,,,,,,,,,,,,,,,,,,,,,,,,,,,,,,,,,,,,,,,,,,,,,,,0,1,1,1,1,,,,,,,,,,,,,,,,,,,,,,,,,,,,,,,,,,,,,,,,,
830789,001,2022-11-20_23h55.03.640,Info_measure_main_exp,2022.2.2,Win32,63.93861893,,,,,,,,,,,,,,,,,,masks/mask_004.jpg,,,,,,,,,,,,,,,,,,,,,,,,,,,,,,,,,,,,,,,,,,,,,,,,0,2,2,3,1,,,,,,,,,,,,,,,,,,,,,,,,,,,,,,,,,,,,,,,,,
830789,001,2022-11-20_23h55.03.640,Info_measure_main_exp,2022.2.2,Win32,63.93861893,,,,,,,,,,,,,,,,,,masks/mask_005.jpg,,,,,,,,,,,,,,,,,,,,,,,,,,,,,,,,,,,,,,,,,,,,,,,,0,3,3,4,1,,,,,,,,,,,,,,,,,,,,,,,,,,,,,,,,,,,,,,,,,
830789,001,2022-11-20_23h55.03.640,Info_measure_main_exp,2022.2.2,Win32,63.93861893,,,,,,,,,,,,,,,,,,masks/mask_003.jpg,,,,,,,,,,,,,,,,,,,,,,,,,,,,,,,,,,,,,,,,,,,,,,,,0,4,4,2,1,,,,,,,,,,,,,,,,,,,,,,,,,,,,,,,,,,,,,,,,,
830789,001,2022-11-20_23h55.03.640,Info_measure_main_exp,2022.2.2,Win32,63.93861893,,,,,,,,,,,,,,,,,,,,,,,,,,,,,,1,2.32,1,,,,,,,,,,,,0,131,5,5,2082,1974,absent_patch/patch0002082.jpg,absent_patch/patch0001974.jpg,,,,,,,,,,,,,,,,,,,,-0.1328125,0.01171875,1,0,0,response7disk,7,-0.005208333,-0.002604167,1,0,0,center_square,0,6,6,26,1,,,,,,,,,,,,,,,,,,,,,,,
830789,001,2022-11-20_23h55.03.640,Info_measure_main_exp,2022.2.2,Win32,63.93861893,,,,,,,,,,,,,,,,,,masks/mask_003.jpg,,,,,,,,,,,,,,,,,,,,,,,,,,,,,,,,,,,,,,,,,,,0,0,0,2,1,,,,,,,,,,,,,,,,,,,,,,,,,,,,,,,,,,,,,,,,,,,,,,
830789,001,2022-11-20_23h55.03.640,Info_measure_main_exp,2022.2.2,Win32,63.93861893,,,,,,,,,,,,,,,,,,masks/mask_001.jpg,,,,,,,,,,,,,,,,,,,,,,,,,,,,,,,,,,,,,,,,,,,0,1,1,0,1,,,,,,,,,,,,,,,,,,,,,,,,,,,,,,,,,,,,,,,,,,,,,,
830789,001,2022-11-20_23h55.03.640,Info_measure_main_exp,2022.2.2,Win32,63.93861893,,,,,,,,,,,,,,,,,,masks/mask_005.jpg,,,,,,,,,,,,,,,,,,,,,,,,,,,,,,,,,,,,,,,,,,,0,2,2,4,1,,,,,,,,,,,,,,,,,,,,,,,,,,,,,,,,,,,,,,,,,,,,,,
830789,001,2022-11-20_23h55.03.640,Info_measure_main_exp,2022.2.2,Win32,63.93861893,,,,,,,,,,,,,,,,,,masks/mask_004.jpg,,,,,,,,,,,,,,,,,,,,,,,,,,,,,,,,,,,,,,,,,,,0,3,3,3,1,,,,,,,,,,,,,,,,,,,,,,,,,,,,,,,,,,,,,,,,,,,,,,
830789,001,2022-11-20_23h55.03.640,Info_measure_main_exp,2022.2.2,Win32,63.93861893,,,,,,,,,,,,,,,,,,masks/mask_002.jpg,,,,,,,,,,,,,,,,,,,,,,,,,,,,,,,,,,,,,,,,,,,0,4,4,1,1,,,,,,,,,,,,,,,,,,,,,,,,,,,,,,,,,,,,,,,,,,,,,,
830789,001,2022-11-20_23h55.03.640,Info_measure_main_exp,2022.2.2,Win32,63.93861893,,,,,,,,,,,,,,,,,,masks/mask_004.jpg,,,,,,,,,,,,,,,,,,,,,,,,,,,,,,,,,,,,,,,,,,,,,,,,0,0,0,3,1,,,,,,,,,,,,,,,,,,,,,,,,,,,,,,,,,,,,,,,,,
830789,001,2022-11-20_23h55.03.640,Info_measure_main_exp,2022.2.2,Win32,63.93861893,,,,,,,,,,,,,,,,,,masks/mask_002.jpg,,,,,,,,,,,,,,,,,,,,,,,,,,,,,,,,,,,,,,,,,,,,,,,,0,1,1,1,1,,,,,,,,,,,,,,,,,,,,,,,,,,,,,,,,,,,,,,,,,
830789,001,2022-11-20_23h55.03.640,Info_measure_main_exp,2022.2.2,Win32,63.93861893,,,,,,,,,,,,,,,,,,masks/mask_001.jpg,,,,,,,,,,,,,,,,,,,,,,,,,,,,,,,,,,,,,,,,,,,,,,,,0,2,2,0,1,,,,,,,,,,,,,,,,,,,,,,,,,,,,,,,,,,,,,,,,,
830789,001,2022-11-20_23h55.03.640,Info_measure_main_exp,2022.2.2,Win32,63.93861893,,,,,,,,,,,,,,,,,,masks/mask_005.jpg,,,,,,,,,,,,,,,,,,,,,,,,,,,,,,,,,,,,,,,,,,,,,,,,0,3,3,4,1,,,,,,,,,,,,,,,,,,,,,,,,,,,,,,,,,,,,,,,,,
830789,001,2022-11-20_23h55.03.640,Info_measure_main_exp,2022.2.2,Win32,63.93861893,,,,,,,,,,,,,,,,,,masks/mask_003.jpg,,,,,,,,,,,,,,,,,,,,,,,,,,,,,,,,,,,,,,,,,,,,,,,,0,4,4,2,1,,,,,,,,,,,,,,,,,,,,,,,,,,,,,,,,,,,,,,,,,
830789,001,2022-11-20_23h55.03.640,Info_measure_main_exp,2022.2.2,Win32,63.93861893,,,,,,,,,,,,,,,,,,,,,,,,,,,,,,5,2.1,1,,,,,,,,,,,,0,131,5,5,2166,2298,absent_patch/patch0002166.jpg,absent_patch/patch0002298.jpg,,,,,,,,,,,,,,,,,,,,0.102864583,-0.05859375,1,0,0,response3disk,8,0.005208333,-0.001302083,1,0,0,center_square,0,7,7,52,1,,,,,,,,,,,,,,,,,,,,,,,
830789,001,2022-11-20_23h55.03.640,Info_measure_main_exp,2022.2.2,Win32,63.93861893,,,,,,,,,,,,,,,,,,masks/mask_002.jpg,,,,,,,,,,,,,,,,,,,,,,,,,,,,,,,,,,,,,,,,,,,0,0,0,1,1,,,,,,,,,,,,,,,,,,,,,,,,,,,,,,,,,,,,,,,,,,,,,,
830789,001,2022-11-20_23h55.03.640,Info_measure_main_exp,2022.2.2,Win32,63.93861893,,,,,,,,,,,,,,,,,,masks/mask_004.jpg,,,,,,,,,,,,,,,,,,,,,,,,,,,,,,,,,,,,,,,,,,,0,1,1,3,1,,,,,,,,,,,,,,,,,,,,,,,,,,,,,,,,,,,,,,,,,,,,,,
830789,001,2022-11-20_23h55.03.640,Info_measure_main_exp,2022.2.2,Win32,63.93861893,,,,,,,,,,,,,,,,,,masks/mask_001.jpg,,,,,,,,,,,,,,,,,,,,,,,,,,,,,,,,,,,,,,,,,,,0,2,2,0,1,,,,,,,,,,,,,,,,,,,,,,,,,,,,,,,,,,,,,,,,,,,,,,
830789,001,2022-11-20_23h55.03.640,Info_measure_main_exp,2022.2.2,Win32,63.93861893,,,,,,,,,,,,,,,,,,masks/mask_005.jpg,,,,,,,,,,,,,,,,,,,,,,,,,,,,,,,,,,,,,,,,,,,0,3,3,4,1,,,,,,,,,,,,,,,,,,,,,,,,,,,,,,,,,,,,,,,,,,,,,,
830789,001,2022-11-20_23h55.03.640,Info_measure_main_exp,2022.2.2,Win32,63.93861893,,,,,,,,,,,,,,,,,,masks/mask_003.jpg,,,,,,,,,,,,,,,,,,,,,,,,,,,,,,,,,,,,,,,,,,,0,4,4,2,1,,,,,,,,,,,,,,,,,,,,,,,,,,,,,,,,,,,,,,,,,,,,,,
830789,001,2022-11-20_23h55.03.640,Info_measure_main_exp,2022.2.2,Win32,63.93861893,,,,,,,,,,,,,,,,,,masks/mask_002.jpg,,,,,,,,,,,,,,,,,,,,,,,,,,,,,,,,,,,,,,,,,,,,,,,,0,0,0,1,1,,,,,,,,,,,,,,,,,,,,,,,,,,,,,,,,,,,,,,,,,
830789,001,2022-11-20_23h55.03.640,Info_measure_main_exp,2022.2.2,Win32,63.93861893,,,,,,,,,,,,,,,,,,masks/mask_004.jpg,,,,,,,,,,,,,,,,,,,,,,,,,,,,,,,,,,,,,,,,,,,,,,,,0,1,1,3,1,,,,,,,,,,,,,,,,,,,,,,,,,,,,,,,,,,,,,,,,,
830789,001,2022-11-20_23h55.03.640,Info_measure_main_exp,2022.2.2,Win32,63.93861893,,,,,,,,,,,,,,,,,,masks/mask_001.jpg,,,,,,,,,,,,,,,,,,,,,,,,,,,,,,,,,,,,,,,,,,,,,,,,0,2,2,0,1,,,,,,,,,,,,,,,,,,,,,,,,,,,,,,,,,,,,,,,,,
830789,001,2022-11-20_23h55.03.640,Info_measure_main_exp,2022.2.2,Win32,63.93861893,,,,,,,,,,,,,,,,,,masks/mask_005.jpg,,,,,,,,,,,,,,,,,,,,,,,,,,,,,,,,,,,,,,,,,,,,,,,,0,3,3,4,1,,,,,,,,,,,,,,,,,,,,,,,,,,,,,,,,,,,,,,,,,
830789,001,2022-11-20_23h55.03.640,Info_measure_main_exp,2022.2.2,Win32,63.93861893,,,,,,,,,,,,,,,,,,masks/mask_003.jpg,,,,,,,,,,,,,,,,,,,,,,,,,,,,,,,,,,,,,,,,,,,,,,,,0,4,4,2,1,,,,,,,,,,,,,,,,,,,,,,,,,,,,,,,,,,,,,,,,,
830789,001,2022-11-20_23h55.03.640,Info_measure_main_exp,2022.2.2,Win32,63.93861893,,,,,,,,,,,,,,,,,,,,,,,,,,,,,,7,0.752,1,,,,,,,,,,,,0,131,5,5,1986,1950,absent_patch/patch0001986.jpg,absent_patch/patch0001950.jpg,,,,,,,,,,,,,,,,,,,,0.036458333,0.080729167,1,0,0,response1disk,9,-0.009114583,0.00390625,1,0,0,center_square,0,8,8,15,1,,,,,,,,,,,,,,,,,,,,,,,
830789,001,2022-11-20_23h55.03.640,Info_measure_main_exp,2022.2.2,Win32,63.93861893,,,,,,,,,,,,,,,,,,masks/mask_003.jpg,,,,,,,,,,,,,,,,,,,,,,,,,,,,,,,,,,,,,,,,,,,0,0,0,2,1,,,,,,,,,,,,,,,,,,,,,,,,,,,,,,,,,,,,,,,,,,,,,,
830789,001,2022-11-20_23h55.03.640,Info_measure_main_exp,2022.2.2,Win32,63.93861893,,,,,,,,,,,,,,,,,,masks/mask_001.jpg,,,,,,,,,,,,,,,,,,,,,,,,,,,,,,,,,,,,,,,,,,,0,1,1,0,1,,,,,,,,,,,,,,,,,,,,,,,,,,,,,,,,,,,,,,,,,,,,,,
830789,001,2022-11-20_23h55.03.640,Info_measure_main_exp,2022.2.2,Win32,63.93861893,,,,,,,,,,,,,,,,,,masks/mask_005.jpg,,,,,,,,,,,,,,,,,,,,,,,,,,,,,,,,,,,,,,,,,,,0,2,2,4,1,,,,,,,,,,,,,,,,,,,,,,,,,,,,,,,,,,,,,,,,,,,,,,
830789,001,2022-11-20_23h55.03.640,Info_measure_main_exp,2022.2.2,Win32,63.93861893,,,,,,,,,,,,,,,,,,masks/mask_002.jpg,,,,,,,,,,,,,,,,,,,,,,,,,,,,,,,,,,,,,,,,,,,0,3,3,1,1,,,,,,,,,,,,,,,,,,,,,,,,,,,,,,,,,,,,,,,,,,,,,,
830789,001,2022-11-20_23h55.03.640,Info_measure_main_exp,2022.2.2,Win32,63.93861893,,,,,,,,,,,,,,,,,,masks/mask_004.jpg,,,,,,,,,,,,,,,,,,,,,,,,,,,,,,,,,,,,,,,,,,,0,4,4,3,1,,,,,,,,,,,,,,,,,,,,,,,,,,,,,,,,,,,,,,,,,,,,,,
830789,001,2022-11-20_23h55.03.640,Info_measure_main_exp,2022.2.2,Win32,63.93861893,,,,,,,,,,,,,,,,,,masks/mask_001.jpg,,,,,,,,,,,,,,,,,,,,,,,,,,,,,,,,,,,,,,,,,,,,,,,,0,0,0,0,1,,,,,,,,,,,,,,,,,,,,,,,,,,,,,,,,,,,,,,,,,
830789,001,2022-11-20_23h55.03.640,Info_measure_main_exp,2022.2.2,Win32,63.93861893,,,,,,,,,,,,,,,,,,masks/mask_004.jpg,,,,,,,,,,,,,,,,,,,,,,,,,,,,,,,,,,,,,,,,,,,,,,,,0,1,1,3,1,,,,,,,,,,,,,,,,,,,,,,,,,,,,,,,,,,,,,,,,,
830789,001,2022-11-20_23h55.03.640,Info_measure_main_exp,2022.2.2,Win32,63.93861893,,,,,,,,,,,,,,,,,,masks/mask_003.jpg,,,,,,,,,,,,,,,,,,,,,,,,,,,,,,,,,,,,,,,,,,,,,,,,0,2,2,2,1,,,,,,,,,,,,,,,,,,,,,,,,,,,,,,,,,,,,,,,,,
830789,001,2022-11-20_23h55.03.640,Info_measure_main_exp,2022.2.2,Win32,63.93861893,,,,,,,,,,,,,,,,,,masks/mask_002.jpg,,,,,,,,,,,,,,,,,,,,,,,,,,,,,,,,,,,,,,,,,,,,,,,,0,3,3,1,1,,,,,,,,,,,,,,,,,,,,,,,,,,,,,,,,,,,,,,,,,
830789,001,2022-11-20_23h55.03.640,Info_measure_main_exp,2022.2.2,Win32,63.93861893,,,,,,,,,,,,,,,,,,masks/mask_005.jpg,,,,,,,,,,,,,,,,,,,,,,,,,,,,,,,,,,,,,,,,,,,,,,,,0,4,4,4,1,,,,,,,,,,,,,,,,,,,,,,,,,,,,,,,,,,,,,,,,,
830789,001,2022-11-20_23h55.03.640,Info_measure_main_exp,2022.2.2,Win32,63.93861893,,,,,,,,,,,,,,,,,,,,,,,,,,,,,,7,1.166,1,,,,,,,,,,,,0,131,5,5,2298,2274,absent_patch/patch0002298.jpg,absent_patch/patch0002274.jpg,,,,,,,,,,,,,,,,,,,,0.072916667,0.106770833,1,0,0,response1disk,10,-0.002604167,-0.006510417,1,0,0,center_square,0,9,9,1,1,,,,,,,,,,,,,,,,,,,,,,,
830789,001,2022-11-20_23h55.03.640,Info_measure_main_exp,2022.2.2,Win32,63.93861893,,,,,,,,,,,,,,,,,,masks/mask_004.jpg,,,,,,,,,,,,,,,,,,,,,,,,,,,,,,,,,,,,,,,,,,,0,0,0,3,1,,,,,,,,,,,,,,,,,,,,,,,,,,,,,,,,,,,,,,,,,,,,,,
830789,001,2022-11-20_23h55.03.640,Info_measure_main_exp,2022.2.2,Win32,63.93861893,,,,,,,,,,,,,,,,,,masks/mask_002.jpg,,,,,,,,,,,,,,,,,,,,,,,,,,,,,,,,,,,,,,,,,,,0,1,1,1,1,,,,,,,,,,,,,,,,,,,,,,,,,,,,,,,,,,,,,,,,,,,,,,
830789,001,2022-11-20_23h55.03.640,Info_measure_main_exp,2022.2.2,Win32,63.93861893,,,,,,,,,,,,,,,,,,masks/mask_003.jpg,,,,,,,,,,,,,,,,,,,,,,,,,,,,,,,,,,,,,,,,,,,0,2,2,2,1,,,,,,,,,,,,,,,,,,,,,,,,,,,,,,,,,,,,,,,,,,,,,,
830789,001,2022-11-20_23h55.03.640,Info_measure_main_exp,2022.2.2,Win32,63.93861893,,,,,,,,,,,,,,,,,,masks/mask_005.jpg,,,,,,,,,,,,,,,,,,,,,,,,,,,,,,,,,,,,,,,,,,,0,3,3,4,1,,,,,,,,,,,,,,,,,,,,,,,,,,,,,,,,,,,,,,,,,,,,,,
830789,001,2022-11-20_23h55.03.640,Info_measure_main_exp,2022.2.2,Win32,63.93861893,,,,,,,,,,,,,,,,,,masks/mask_001.jpg,,,,,,,,,,,,,,,,,,,,,,,,,,,,,,,,,,,,,,,,,,,0,4,4,0,1,,,,,,,,,,,,,,,,,,,,,,,,,,,,,,,,,,,,,,,,,,,,,,
830789,001,2022-11-20_23h55.03.640,Info_measure_main_exp,2022.2.2,Win32,63.93861893,,,,,,,,,,,,,,,,,,masks/mask_002.jpg,,,,,,,,,,,,,,,,,,,,,,,,,,,,,,,,,,,,,,,,,,,,,,,,0,0,0,1,1,,,,,,,,,,,,,,,,,,,,,,,,,,,,,,,,,,,,,,,,,
830789,001,2022-11-20_23h55.03.640,Info_measure_main_exp,2022.2.2,Win32,63.93861893,,,,,,,,,,,,,,,,,,masks/mask_005.jpg,,,,,,,,,,,,,,,,,,,,,,,,,,,,,,,,,,,,,,,,,,,,,,,,0,1,1,4,1,,,,,,,,,,,,,,,,,,,,,,,,,,,,,,,,,,,,,,,,,
830789,001,2022-11-20_23h55.03.640,Info_measure_main_exp,2022.2.2,Win32,63.93861893,,,,,,,,,,,,,,,,,,masks/mask_003.jpg,,,,,,,,,,,,,,,,,,,,,,,,,,,,,,,,,,,,,,,,,,,,,,,,0,2,2,2,1,,,,,,,,,,,,,,,,,,,,,,,,,,,,,,,,,,,,,,,,,
830789,001,2022-11-20_23h55.03.640,Info_measure_main_exp,2022.2.2,Win32,63.93861893,,,,,,,,,,,,,,,,,,masks/mask_004.jpg,,,,,,,,,,,,,,,,,,,,,,,,,,,,,,,,,,,,,,,,,,,,,,,,0,3,3,3,1,,,,,,,,,,,,,,,,,,,,,,,,,,,,,,,,,,,,,,,,,
830789,001,2022-11-20_23h55.03.640,Info_measure_main_exp,2022.2.2,Win32,63.93861893,,,,,,,,,,,,,,,,,,masks/mask_001.jpg,,,,,,,,,,,,,,,,,,,,,,,,,,,,,,,,,,,,,,,,,,,,,,,,0,4,4,0,1,,,,,,,,,,,,,,,,,,,,,,,,,,,,,,,,,,,,,,,,,
830789,001,2022-11-20_23h55.03.640,Info_measure_main_exp,2022.2.2,Win32,63.93861893,,,,,,,,,,,,,,,,,,,,,,,,,,,,,,7,1.874,1,,,,,,,,,,,,0,131,5,5,2274,2250,absent_patch/patch0002274.jpg,absent_patch/patch0002250.jpg,,,,,,,,,,,,,,,,,,,,0.071614583,0.10546875,1,0,0,response1disk,11,0.014322917,0.0078125,1,0,0,center_square,0,10,10,28,1,,,,,,,,,,,,,,,,,,,,,,,
830789,001,2022-11-20_23h55.03.640,Info_measure_main_exp,2022.2.2,Win32,63.93861893,,,,,,,,,,,,,,,,,,masks/mask_004.jpg,,,,,,,,,,,,,,,,,,,,,,,,,,,,,,,,,,,,,,,,,,,0,0,0,3,1,,,,,,,,,,,,,,,,,,,,,,,,,,,,,,,,,,,,,,,,,,,,,,
830789,001,2022-11-20_23h55.03.640,Info_measure_main_exp,2022.2.2,Win32,63.93861893,,,,,,,,,,,,,,,,,,masks/mask_005.jpg,,,,,,,,,,,,,,,,,,,,,,,,,,,,,,,,,,,,,,,,,,,0,1,1,4,1,,,,,,,,,,,,,,,,,,,,,,,,,,,,,,,,,,,,,,,,,,,,,,
830789,001,2022-11-20_23h55.03.640,Info_measure_main_exp,2022.2.2,Win32,63.93861893,,,,,,,,,,,,,,,,,,masks/mask_001.jpg,,,,,,,,,,,,,,,,,,,,,,,,,,,,,,,,,,,,,,,,,,,0,2,2,0,1,,,,,,,,,,,,,,,,,,,,,,,,,,,,,,,,,,,,,,,,,,,,,,
830789,001,2022-11-20_23h55.03.640,Info_measure_main_exp,2022.2.2,Win32,63.93861893,,,,,,,,,,,,,,,,,,masks/mask_003.jpg,,,,,,,,,,,,,,,,,,,,,,,,,,,,,,,,,,,,,,,,,,,0,3,3,2,1,,,,,,,,,,,,,,,,,,,,,,,,,,,,,,,,,,,,,,,,,,,,,,
830789,001,2022-11-20_23h55.03.640,Info_measure_main_exp,2022.2.2,Win32,63.93861893,,,,,,,,,,,,,,,,,,masks/mask_002.jpg,,,,,,,,,,,,,,,,,,,,,,,,,,,,,,,,,,,,,,,,,,,0,4,4,1,1,,,,,,,,,,,,,,,,,,,,,,,,,,,,,,,,,,,,,,,,,,,,,,
830789,001,2022-11-20_23h55.03.640,Info_measure_main_exp,2022.2.2,Win32,63.93861893,,,,,,,,,,,,,,,,,,masks/mask_004.jpg,,,,,,,,,,,,,,,,,,,,,,,,,,,,,,,,,,,,,,,,,,,,,,,,0,0,0,3,1,,,,,,,,,,,,,,,,,,,,,,,,,,,,,,,,,,,,,,,,,
830789,001,2022-11-20_23h55.03.640,Info_measure_main_exp,2022.2.2,Win32,63.93861893,,,,,,,,,,,,,,,,,,masks/mask_002.jpg,,,,,,,,,,,,,,,,,,,,,,,,,,,,,,,,,,,,,,,,,,,,,,,,0,1,1,1,1,,,,,,,,,,,,,,,,,,,,,,,,,,,,,,,,,,,,,,,,,
830789,001,2022-11-20_23h55.03.640,Info_measure_main_exp,2022.2.2,Win32,63.93861893,,,,,,,,,,,,,,,,,,masks/mask_005.jpg,,,,,,,,,,,,,,,,,,,,,,,,,,,,,,,,,,,,,,,,,,,,,,,,0,2,2,4,1,,,,,,,,,,,,,,,,,,,,,,,,,,,,,,,,,,,,,,,,,
830789,001,2022-11-20_23h55.03.640,Info_measure_main_exp,2022.2.2,Win32,63.93861893,,,,,,,,,,,,,,,,,,masks/mask_003.jpg,,,,,,,,,,,,,,,,,,,,,,,,,,,,,,,,,,,,,,,,,,,,,,,,0,3,3,2,1,,,,,,,,,,,,,,,,,,,,,,,,,,,,,,,,,,,,,,,,,
830789,001,2022-11-20_23h55.03.640,Info_measure_main_exp,2022.2.2,Win32,63.93861893,,,,,,,,,,,,,,,,,,masks/mask_001.jpg,,,,,,,,,,,,,,,,,,,,,,,,,,,,,,,,,,,,,,,,,,,,,,,,0,4,4,0,1,,,,,,,,,,,,,,,,,,,,,,,,,,,,,,,,,,,,,,,,,
830789,001,2022-11-20_23h55.03.640,Info_measure_main_exp,2022.2.2,Win32,63.93861893,,,,,,,,,,,,,,,,,,,,,,,,,,,,,,7,3.19,1,,,,,,,,,,,,0,131,5,5,2142,2154,absent_patch/patch0002142.jpg,absent_patch/patch0002154.jpg,,,,,,,,,,,,,,,,,,,,0.098958333,0.143229167,1,0,0,response1disk,12,0.00390625,-0.00390625,1,0,0,center_square,0,11,11,9,1,,,,,,,,,,,,,,,,,,,,,,,
830789,001,2022-11-20_23h55.03.640,Info_measure_main_exp,2022.2.2,Win32,63.93861893,,,,,,,,,,,,,,,,,,masks/mask_002.jpg,,,,,,,,,,,,,,,,,,,,,,,,,,,,,,,,,,,,,,,,,,,0,0,0,1,1,,,,,,,,,,,,,,,,,,,,,,,,,,,,,,,,,,,,,,,,,,,,,,
830789,001,2022-11-20_23h55.03.640,Info_measure_main_exp,2022.2.2,Win32,63.93861893,,,,,,,,,,,,,,,,,,masks/mask_004.jpg,,,,,,,,,,,,,,,,,,,,,,,,,,,,,,,,,,,,,,,,,,,0,1,1,3,1,,,,,,,,,,,,,,,,,,,,,,,,,,,,,,,,,,,,,,,,,,,,,,
830789,001,2022-11-20_23h55.03.640,Info_measure_main_exp,2022.2.2,Win32,63.93861893,,,,,,,,,,,,,,,,,,masks/mask_003.jpg,,,,,,,,,,,,,,,,,,,,,,,,,,,,,,,,,,,,,,,,,,,0,2,2,2,1,,,,,,,,,,,,,,,,,,,,,,,,,,,,,,,,,,,,,,,,,,,,,,
830789,001,2022-11-20_23h55.03.640,Info_measure_main_exp,2022.2.2,Win32,63.93861893,,,,,,,,,,,,,,,,,,masks/mask_001.jpg,,,,,,,,,,,,,,,,,,,,,,,,,,,,,,,,,,,,,,,,,,,0,3,3,0,1,,,,,,,,,,,,,,,,,,,,,,,,,,,,,,,,,,,,,,,,,,,,,,
830789,001,2022-11-20_23h55.03.640,Info_measure_main_exp,2022.2.2,Win32,63.93861893,,,,,,,,,,,,,,,,,,masks/mask_005.jpg,,,,,,,,,,,,,,,,,,,,,,,,,,,,,,,,,,,,,,,,,,,0,4,4,4,1,,,,,,,,,,,,,,,,,,,,,,,,,,,,,,,,,,,,,,,,,,,,,,
830789,001,2022-11-20_23h55.03.640,Info_measure_main_exp,2022.2.2,Win32,63.93861893,,,,,,,,,,,,,,,,,,masks/mask_004.jpg,,,,,,,,,,,,,,,,,,,,,,,,,,,,,,,,,,,,,,,,,,,,,,,,0,0,0,3,1,,,,,,,,,,,,,,,,,,,,,,,,,,,,,,,,,,,,,,,,,
830789,001,2022-11-20_23h55.03.640,Info_measure_main_exp,2022.2.2,Win32,63.93861893,,,,,,,,,,,,,,,,,,masks/mask_005.jpg,,,,,,,,,,,,,,,,,,,,,,,,,,,,,,,,,,,,,,,,,,,,,,,,0,1,1,4,1,,,,,,,,,,,,,,,,,,,,,,,,,,,,,,,,,,,,,,,,,
830789,001,2022-11-20_23h55.03.640,Info_measure_main_exp,2022.2.2,Win32,63.93861893,,,,,,,,,,,,,,,,,,masks/mask_003.jpg,,,,,,,,,,,,,,,,,,,,,,,,,,,,,,,,,,,,,,,,,,,,,,,,0,2,2,2,1,,,,,,,,,,,,,,,,,,,,,,,,,,,,,,,,,,,,,,,,,
830789,001,2022-11-20_23h55.03.640,Info_measure_main_exp,2022.2.2,Win32,63.93861893,,,,,,,,,,,,,,,,,,masks/mask_002.jpg,,,,,,,,,,,,,,,,,,,,,,,,,,,,,,,,,,,,,,,,,,,,,,,,0,3,3,1,1,,,,,,,,,,,,,,,,,,,,,,,,,,,,,,,,,,,,,,,,,
830789,001,2022-11-20_23h55.03.640,Info_measure_main_exp,2022.2.2,Win32,63.93861893,,,,,,,,,,,,,,,,,,masks/mask_001.jpg,,,,,,,,,,,,,,,,,,,,,,,,,,,,,,,,,,,,,,,,,,,,,,,,0,4,4,0,1,,,,,,,,,,,,,,,,,,,,,,,,,,,,,,,,,,,,,,,,,
830789,001,2022-11-20_23h55.03.640,Info_measure_main_exp,2022.2.2,Win32,63.93861893,,,,,,,,,,,,,,,,,,,,,,,,,,,,,,7,3.439,1,,,,,,,,,,,,0,131,5,5,2190,2238,absent_patch/patch0002190.jpg,absent_patch/patch0002238.jpg,,,,,,,,,,,,,,,,,,,,0.076822917,0.126302083,1,0,0,response1disk,13,0.0078125,0.002604167,1,0,0,center_square,0,12,12,53,1,,,,,,,,,,,,,,,,,,,,,,,
830789,001,2022-11-20_23h55.03.640,Info_measure_main_exp,2022.2.2,Win32,63.93861893,,,,,,,,,,,,,,,,,,masks/mask_002.jpg,,,,,,,,,,,,,,,,,,,,,,,,,,,,,,,,,,,,,,,,,,,0,0,0,1,1,,,,,,,,,,,,,,,,,,,,,,,,,,,,,,,,,,,,,,,,,,,,,,
830789,001,2022-11-20_23h55.03.640,Info_measure_main_exp,2022.2.2,Win32,63.93861893,,,,,,,,,,,,,,,,,,masks/mask_005.jpg,,,,,,,,,,,,,,,,,,,,,,,,,,,,,,,,,,,,,,,,,,,0,1,1,4,1,,,,,,,,,,,,,,,,,,,,,,,,,,,,,,,,,,,,,,,,,,,,,,
830789,001,2022-11-20_23h55.03.640,Info_measure_main_exp,2022.2.2,Win32,63.93861893,,,,,,,,,,,,,,,,,,masks/mask_003.jpg,,,,,,,,,,,,,,,,,,,,,,,,,,,,,,,,,,,,,,,,,,,0,2,2,2,1,,,,,,,,,,,,,,,,,,,,,,,,,,,,,,,,,,,,,,,,,,,,,,
830789,001,2022-11-20_23h55.03.640,Info_measure_main_exp,2022.2.2,Win32,63.93861893,,,,,,,,,,,,,,,,,,masks/mask_001.jpg,,,,,,,,,,,,,,,,,,,,,,,,,,,,,,,,,,,,,,,,,,,0,3,3,0,1,,,,,,,,,,,,,,,,,,,,,,,,,,,,,,,,,,,,,,,,,,,,,,
830789,001,2022-11-20_23h55.03.640,Info_measure_main_exp,2022.2.2,Win32,63.93861893,,,,,,,,,,,,,,,,,,masks/mask_004.jpg,,,,,,,,,,,,,,,,,,,,,,,,,,,,,,,,,,,,,,,,,,,0,4,4,3,1,,,,,,,,,,,,,,,,,,,,,,,,,,,,,,,,,,,,,,,,,,,,,,
830789,001,2022-11-20_23h55.03.640,Info_measure_main_exp,2022.2.2,Win32,63.93861893,,,,,,,,,,,,,,,,,,masks/mask_004.jpg,,,,,,,,,,,,,,,,,,,,,,,,,,,,,,,,,,,,,,,,,,,,,,,,0,0,0,3,1,,,,,,,,,,,,,,,,,,,,,,,,,,,,,,,,,,,,,,,,,
830789,001,2022-11-20_23h55.03.640,Info_measure_main_exp,2022.2.2,Win32,63.93861893,,,,,,,,,,,,,,,,,,masks/mask_003.jpg,,,,,,,,,,,,,,,,,,,,,,,,,,,,,,,,,,,,,,,,,,,,,,,,0,1,1,2,1,,,,,,,,,,,,,,,,,,,,,,,,,,,,,,,,,,,,,,,,,
830789,001,2022-11-20_23h55.03.640,Info_measure_main_exp,2022.2.2,Win32,63.93861893,,,,,,,,,,,,,,,,,,masks/mask_001.jpg,,,,,,,,,,,,,,,,,,,,,,,,,,,,,,,,,,,,,,,,,,,,,,,,0,2,2,0,1,,,,,,,,,,,,,,,,,,,,,,,,,,,,,,,,,,,,,,,,,
830789,001,2022-11-20_23h55.03.640,Info_measure_main_exp,2022.2.2,Win32,63.93861893,,,,,,,,,,,,,,,,,,masks/mask_002.jpg,,,,,,,,,,,,,,,,,,,,,,,,,,,,,,,,,,,,,,,,,,,,,,,,0,3,3,1,1,,,,,,,,,,,,,,,,,,,,,,,,,,,,,,,,,,,,,,,,,
830789,001,2022-11-20_23h55.03.640,Info_measure_main_exp,2022.2.2,Win32,63.93861893,,,,,,,,,,,,,,,,,,masks/mask_005.jpg,,,,,,,,,,,,,,,,,,,,,,,,,,,,,,,,,,,,,,,,,,,,,,,,0,4,4,4,1,,,,,,,,,,,,,,,,,,,,,,,,,,,,,,,,,,,,,,,,,
830789,001,2022-11-20_23h55.03.640,Info_measure_main_exp,2022.2.2,Win32,63.93861893,,,,,,,,,,,,,,,,,,,,,,,,,,,,,,5,1.673,1,,,,,,,,,,,,0,131,5,5,2142,2190,absent_patch/patch0002142.jpg,absent_patch/patch0002190.jpg,,,,,,,,,,,,,,,,,,,,0.102864583,-0.015625,1,0,0,response3disk,14,-0.0078125,-0.001302083,1,0,0,center_square,0,13,13,70,1,,,,,,,,,,,,,,,,,,,,,,,
830789,001,2022-11-20_23h55.03.640,Info_measure_main_exp,2022.2.2,Win32,63.93861893,,,,,,,,,,,,,,,,,,masks/mask_003.jpg,,,,,,,,,,,,,,,,,,,,,,,,,,,,,,,,,,,,,,,,,,,0,0,0,2,1,,,,,,,,,,,,,,,,,,,,,,,,,,,,,,,,,,,,,,,,,,,,,,
830789,001,2022-11-20_23h55.03.640,Info_measure_main_exp,2022.2.2,Win32,63.93861893,,,,,,,,,,,,,,,,,,masks/mask_001.jpg,,,,,,,,,,,,,,,,,,,,,,,,,,,,,,,,,,,,,,,,,,,0,1,1,0,1,,,,,,,,,,,,,,,,,,,,,,,,,,,,,,,,,,,,,,,,,,,,,,
830789,001,2022-11-20_23h55.03.640,Info_measure_main_exp,2022.2.2,Win32,63.93861893,,,,,,,,,,,,,,,,,,masks/mask_005.jpg,,,,,,,,,,,,,,,,,,,,,,,,,,,,,,,,,,,,,,,,,,,0,2,2,4,1,,,,,,,,,,,,,,,,,,,,,,,,,,,,,,,,,,,,,,,,,,,,,,
830789,001,2022-11-20_23h55.03.640,Info_measure_main_exp,2022.2.2,Win32,63.93861893,,,,,,,,,,,,,,,,,,masks/mask_002.jpg,,,,,,,,,,,,,,,,,,,,,,,,,,,,,,,,,,,,,,,,,,,0,3,3,1,1,,,,,,,,,,,,,,,,,,,,,,,,,,,,,,,,,,,,,,,,,,,,,,
830789,001,2022-11-20_23h55.03.640,Info_measure_main_exp,2022.2.2,Win32,63.93861893,,,,,,,,,,,,,,,,,,masks/mask_004.jpg,,,,,,,,,,,,,,,,,,,,,,,,,,,,,,,,,,,,,,,,,,,0,4,4,3,1,,,,,,,,,,,,,,,,,,,,,,,,,,,,,,,,,,,,,,,,,,,,,,
830789,001,2022-11-20_23h55.03.640,Info_measure_main_exp,2022.2.2,Win32,63.93861893,,,,,,,,,,,,,,,,,,masks/mask_005.jpg,,,,,,,,,,,,,,,,,,,,,,,,,,,,,,,,,,,,,,,,,,,,,,,,0,0,0,4,1,,,,,,,,,,,,,,,,,,,,,,,,,,,,,,,,,,,,,,,,,
830789,001,2022-11-20_23h55.03.640,Info_measure_main_exp,2022.2.2,Win32,63.93861893,,,,,,,,,,,,,,,,,,masks/mask_002.jpg,,,,,,,,,,,,,,,,,,,,,,,,,,,,,,,,,,,,,,,,,,,,,,,,0,1,1,1,1,,,,,,,,,,,,,,,,,,,,,,,,,,,,,,,,,,,,,,,,,
830789,001,2022-11-20_23h55.03.640,Info_measure_main_exp,2022.2.2,Win32,63.93861893,,,,,,,,,,,,,,,,,,masks/mask_004.jpg,,,,,,,,,,,,,,,,,,,,,,,,,,,,,,,,,,,,,,,,,,,,,,,,0,2,2,3,1,,,,,,,,,,,,,,,,,,,,,,,,,,,,,,,,,,,,,,,,,
830789,001,2022-11-20_23h55.03.640,Info_measure_main_exp,2022.2.2,Win32,63.93861893,,,,,,,,,,,,,,,,,,masks/mask_003.jpg,,,,,,,,,,,,,,,,,,,,,,,,,,,,,,,,,,,,,,,,,,,,,,,,0,3,3,2,1,,,,,,,,,,,,,,,,,,,,,,,,,,,,,,,,,,,,,,,,,
830789,001,2022-11-20_23h55.03.640,Info_measure_main_exp,2022.2.2,Win32,63.93861893,,,,,,,,,,,,,,,,,,masks/mask_001.jpg,,,,,,,,,,,,,,,,,,,,,,,,,,,,,,,,,,,,,,,,,,,,,,,,0,4,4,0,1,,,,,,,,,,,,,,,,,,,,,,,,,,,,,,,,,,,,,,,,,
830789,001,2022-11-20_23h55.03.640,Info_measure_main_exp,2022.2.2,Win32,63.93861893,,,,,,,,,,,,,,,,,,,,,,,,,,,,,,6,2.84,1,,,,,,,,,,,,0,131,5,5,2166,2154,absent_patch/patch0002166.jpg,absent_patch/patch0002154.jpg,,,,,,,,,,,,,,,,,,,,0.115885417,0.044270833,1,0,0,response1disk,15,-0.0078125,-0.0078125,1,0,0,center_square,0,14,14,79,1,,,,,,,,,,,,,,,,,,,,,,,
830789,001,2022-11-20_23h55.03.640,Info_measure_main_exp,2022.2.2,Win32,63.93861893,,,,,,,,,,,,,,,,,,masks/mask_003.jpg,,,,,,,,,,,,,,,,,,,,,,,,,,,,,,,,,,,,,,,,,,,0,0,0,2,1,,,,,,,,,,,,,,,,,,,,,,,,,,,,,,,,,,,,,,,,,,,,,,
830789,001,2022-11-20_23h55.03.640,Info_measure_main_exp,2022.2.2,Win32,63.93861893,,,,,,,,,,,,,,,,,,masks/mask_001.jpg,,,,,,,,,,,,,,,,,,,,,,,,,,,,,,,,,,,,,,,,,,,0,1,1,0,1,,,,,,,,,,,,,,,,,,,,,,,,,,,,,,,,,,,,,,,,,,,,,,
830789,001,2022-11-20_23h55.03.640,Info_measure_main_exp,2022.2.2,Win32,63.93861893,,,,,,,,,,,,,,,,,,masks/mask_002.jpg,,,,,,,,,,,,,,,,,,,,,,,,,,,,,,,,,,,,,,,,,,,0,2,2,1,1,,,,,,,,,,,,,,,,,,,,,,,,,,,,,,,,,,,,,,,,,,,,,,
830789,001,2022-11-20_23h55.03.640,Info_measure_main_exp,2022.2.2,Win32,63.93861893,,,,,,,,,,,,,,,,,,masks/mask_004.jpg,,,,,,,,,,,,,,,,,,,,,,,,,,,,,,,,,,,,,,,,,,,0,3,3,3,1,,,,,,,,,,,,,,,,,,,,,,,,,,,,,,,,,,,,,,,,,,,,,,
830789,001,2022-11-20_23h55.03.640,Info_measure_main_exp,2022.2.2,Win32,63.93861893,,,,,,,,,,,,,,,,,,masks/mask_005.jpg,,,,,,,,,,,,,,,,,,,,,,,,,,,,,,,,,,,,,,,,,,,0,4,4,4,1,,,,,,,,,,,,,,,,,,,,,,,,,,,,,,,,,,,,,,,,,,,,,,
830789,001,2022-11-20_23h55.03.640,Info_measure_main_exp,2022.2.2,Win32,63.93861893,,,,,,,,,,,,,,,,,,masks/mask_003.jpg,,,,,,,,,,,,,,,,,,,,,,,,,,,,,,,,,,,,,,,,,,,,,,,,0,0,0,2,1,,,,,,,,,,,,,,,,,,,,,,,,,,,,,,,,,,,,,,,,,
830789,001,2022-11-20_23h55.03.640,Info_measure_main_exp,2022.2.2,Win32,63.93861893,,,,,,,,,,,,,,,,,,masks/mask_004.jpg,,,,,,,,,,,,,,,,,,,,,,,,,,,,,,,,,,,,,,,,,,,,,,,,0,1,1,3,1,,,,,,,,,,,,,,,,,,,,,,,,,,,,,,,,,,,,,,,,,
830789,001,2022-11-20_23h55.03.640,Info_measure_main_exp,2022.2.2,Win32,63.93861893,,,,,,,,,,,,,,,,,,masks/mask_001.jpg,,,,,,,,,,,,,,,,,,,,,,,,,,,,,,,,,,,,,,,,,,,,,,,,0,2,2,0,1,,,,,,,,,,,,,,,,,,,,,,,,,,,,,,,,,,,,,,,,,
830789,001,2022-11-20_23h55.03.640,Info_measure_main_exp,2022.2.2,Win32,63.93861893,,,,,,,,,,,,,,,,,,masks/mask_002.jpg,,,,,,,,,,,,,,,,,,,,,,,,,,,,,,,,,,,,,,,,,,,,,,,,0,3,3,1,1,,,,,,,,,,,,,,,,,,,,,,,,,,,,,,,,,,,,,,,,,
830789,001,2022-11-20_23h55.03.640,Info_measure_main_exp,2022.2.2,Win32,63.93861893,,,,,,,,,,,,,,,,,,masks/mask_005.jpg,,,,,,,,,,,,,,,,,,,,,,,,,,,,,,,,,,,,,,,,,,,,,,,,0,4,4,4,1,,,,,,,,,,,,,,,,,,,,,,,,,,,,,,,,,,,,,,,,,
830789,001,2022-11-20_23h55.03.640,Info_measure_main_exp,2022.2.2,Win32,63.93861893,,,,,,,,,,,,,,,,,,,,,,,,,,,,,,0,0.871,1,,,,,,,,,,,,0,131,5,5,2214,2214,absent_patch/patch0002214.jpg,absent_patch/patch0002214.jpg,,,,,,,,,,,,,,,,,,,,-0.014322917,0.096354167,1,0,0,response7disk,16,0.010416667,-0.009114583,1,0,0,center_square,0,15,15,115,1,,,,,,,,,,,,,,,,,,,,,,,
830789,001,2022-11-20_23h55.03.640,Info_measure_main_exp,2022.2.2,Win32,63.93861893,,,,,,,,,,,,,,,,,,masks/mask_003.jpg,,,,,,,,,,,,,,,,,,,,,,,,,,,,,,,,,,,,,,,,,,,0,0,0,2,1,,,,,,,,,,,,,,,,,,,,,,,,,,,,,,,,,,,,,,,,,,,,,,
830789,001,2022-11-20_23h55.03.640,Info_measure_main_exp,2022.2.2,Win32,63.93861893,,,,,,,,,,,,,,,,,,masks/mask_005.jpg,,,,,,,,,,,,,,,,,,,,,,,,,,,,,,,,,,,,,,,,,,,0,1,1,4,1,,,,,,,,,,,,,,,,,,,,,,,,,,,,,,,,,,,,,,,,,,,,,,
830789,001,2022-11-20_23h55.03.640,Info_measure_main_exp,2022.2.2,Win32,63.93861893,,,,,,,,,,,,,,,,,,masks/mask_001.jpg,,,,,,,,,,,,,,,,,,,,,,,,,,,,,,,,,,,,,,,,,,,0,2,2,0,1,,,,,,,,,,,,,,,,,,,,,,,,,,,,,,,,,,,,,,,,,,,,,,
830789,001,2022-11-20_23h55.03.640,Info_measure_main_exp,2022.2.2,Win32,63.93861893,,,,,,,,,,,,,,,,,,masks/mask_004.jpg,,,,,,,,,,,,,,,,,,,,,,,,,,,,,,,,,,,,,,,,,,,0,3,3,3,1,,,,,,,,,,,,,,,,,,,,,,,,,,,,,,,,,,,,,,,,,,,,,,
830789,001,2022-11-20_23h55.03.640,Info_measure_main_exp,2022.2.2,Win32,63.93861893,,,,,,,,,,,,,,,,,,masks/mask_002.jpg,,,,,,,,,,,,,,,,,,,,,,,,,,,,,,,,,,,,,,,,,,,0,4,4,1,1,,,,,,,,,,,,,,,,,,,,,,,,,,,,,,,,,,,,,,,,,,,,,,
830789,001,2022-11-20_23h55.03.640,Info_measure_main_exp,2022.2.2,Win32,63.93861893,,,,,,,,,,,,,,,,,,masks/mask_003.jpg,,,,,,,,,,,,,,,,,,,,,,,,,,,,,,,,,,,,,,,,,,,,,,,,0,0,0,2,1,,,,,,,,,,,,,,,,,,,,,,,,,,,,,,,,,,,,,,,,,
830789,001,2022-11-20_23h55.03.640,Info_measure_main_exp,2022.2.2,Win32,63.93861893,,,,,,,,,,,,,,,,,,masks/mask_001.jpg,,,,,,,,,,,,,,,,,,,,,,,,,,,,,,,,,,,,,,,,,,,,,,,,0,1,1,0,1,,,,,,,,,,,,,,,,,,,,,,,,,,,,,,,,,,,,,,,,,
830789,001,2022-11-20_23h55.03.640,Info_measure_main_exp,2022.2.2,Win32,63.93861893,,,,,,,,,,,,,,,,,,masks/mask_004.jpg,,,,,,,,,,,,,,,,,,,,,,,,,,,,,,,,,,,,,,,,,,,,,,,,0,2,2,3,1,,,,,,,,,,,,,,,,,,,,,,,,,,,,,,,,,,,,,,,,,
830789,001,2022-11-20_23h55.03.640,Info_measure_main_exp,2022.2.2,Win32,63.93861893,,,,,,,,,,,,,,,,,,masks/mask_002.jpg,,,,,,,,,,,,,,,,,,,,,,,,,,,,,,,,,,,,,,,,,,,,,,,,0,3,3,1,1,,,,,,,,,,,,,,,,,,,,,,,,,,,,,,,,,,,,,,,,,
830789,001,2022-11-20_23h55.03.640,Info_measure_main_exp,2022.2.2,Win32,63.93861893,,,,,,,,,,,,,,,,,,masks/mask_005.jpg,,,,,,,,,,,,,,,,,,,,,,,,,,,,,,,,,,,,,,,,,,,,,,,,0,4,4,4,1,,,,,,,,,,,,,,,,,,,,,,,,,,,,,,,,,,,,,,,,,
830789,001,2022-11-20_23h55.03.640,Info_measure_main_exp,2022.2.2,Win32,63.93861893,,,,,,,,,,,,,,,,,,,,,,,,,,,,,,2,1.779,1,,,,,,,,,,,,0,131,5,5,2142,2082,absent_patch/patch0002142.jpg,absent_patch/patch0002082.jpg,,,,,,,,,,,,,,,,,,,,-0.078125,-0.049479167,1,0,0,response5disk,17,0.001302083,0.013020833,1,0,0,center_square,0,16,16,88,1,,,,,,,,,,,,,,,,,,,,,,,
830789,001,2022-11-20_23h55.03.640,Info_measure_main_exp,2022.2.2,Win32,63.93861893,,,,,,,,,,,,,,,,,,masks/mask_004.jpg,,,,,,,,,,,,,,,,,,,,,,,,,,,,,,,,,,,,,,,,,,,0,0,0,3,1,,,,,,,,,,,,,,,,,,,,,,,,,,,,,,,,,,,,,,,,,,,,,,
830789,001,2022-11-20_23h55.03.640,Info_measure_main_exp,2022.2.2,Win32,63.93861893,,,,,,,,,,,,,,,,,,masks/mask_005.jpg,,,,,,,,,,,,,,,,,,,,,,,,,,,,,,,,,,,,,,,,,,,0,1,1,4,1,,,,,,,,,,,,,,,,,,,,,,,,,,,,,,,,,,,,,,,,,,,,,,
830789,001,2022-11-20_23h55.03.640,Info_measure_main_exp,2022.2.2,Win32,63.93861893,,,,,,,,,,,,,,,,,,masks/mask_003.jpg,,,,,,,,,,,,,,,,,,,,,,,,,,,,,,,,,,,,,,,,,,,0,2,2,2,1,,,,,,,,,,,,,,,,,,,,,,,,,,,,,,,,,,,,,,,,,,,,,,
830789,001,2022-11-20_23h55.03.640,Info_measure_main_exp,2022.2.2,Win32,63.93861893,,,,,,,,,,,,,,,,,,masks/mask_002.jpg,,,,,,,,,,,,,,,,,,,,,,,,,,,,,,,,,,,,,,,,,,,0,3,3,1,1,,,,,,,,,,,,,,,,,,,,,,,,,,,,,,,,,,,,,,,,,,,,,,
830789,001,2022-11-20_23h55.03.640,Info_measure_main_exp,2022.2.2,Win32,63.93861893,,,,,,,,,,,,,,,,,,masks/mask_001.jpg,,,,,,,,,,,,,,,,,,,,,,,,,,,,,,,,,,,,,,,,,,,0,4,4,0,1,,,,,,,,,,,,,,,,,,,,,,,,,,,,,,,,,,,,,,,,,,,,,,
830789,001,2022-11-20_23h55.03.640,Info_measure_main_exp,2022.2.2,Win32,63.93861893,,,,,,,,,,,,,,,,,,masks/mask_005.jpg,,,,,,,,,,,,,,,,,,,,,,,,,,,,,,,,,,,,,,,,,,,,,,,,0,0,0,4,1,,,,,,,,,,,,,,,,,,,,,,,,,,,,,,,,,,,,,,,,,
830789,001,2022-11-20_23h55.03.640,Info_measure_main_exp,2022.2.2,Win32,63.93861893,,,,,,,,,,,,,,,,,,masks/mask_001.jpg,,,,,,,,,,,,,,,,,,,,,,,,,,,,,,,,,,,,,,,,,,,,,,,,0,1,1,0,1,,,,,,,,,,,,,,,,,,,,,,,,,,,,,,,,,,,,,,,,,
830789,001,2022-11-20_23h55.03.640,Info_measure_main_exp,2022.2.2,Win32,63.93861893,,,,,,,,,,,,,,,,,,masks/mask_003.jpg,,,,,,,,,,,,,,,,,,,,,,,,,,,,,,,,,,,,,,,,,,,,,,,,0,2,2,2,1,,,,,,,,,,,,,,,,,,,,,,,,,,,,,,,,,,,,,,,,,
830789,001,2022-11-20_23h55.03.640,Info_measure_main_exp,2022.2.2,Win32,63.93861893,,,,,,,,,,,,,,,,,,masks/mask_004.jpg,,,,,,,,,,,,,,,,,,,,,,,,,,,,,,,,,,,,,,,,,,,,,,,,0,3,3,3,1,,,,,,,,,,,,,,,,,,,,,,,,,,,,,,,,,,,,,,,,,
830789,001,2022-11-20_23h55.03.640,Info_measure_main_exp,2022.2.2,Win32,63.93861893,,,,,,,,,,,,,,,,,,masks/mask_002.jpg,,,,,,,,,,,,,,,,,,,,,,,,,,,,,,,,,,,,,,,,,,,,,,,,0,4,4,1,1,,,,,,,,,,,,,,,,,,,,,,,,,,,,,,,,,,,,,,,,,
830789,001,2022-11-20_23h55.03.640,Info_measure_main_exp,2022.2.2,Win32,63.93861893,,,,,,,,,,,,,,,,,,,,,,,,,,,,,,7,1.166,1,,,,,,,,,,,,0,131,5,5,2250,2238,absent_patch/patch0002250.jpg,absent_patch/patch0002238.jpg,,,,,,,,,,,,,,,,,,,,0.063802083,0.079427083,1,0,0,response1disk,18,0.010416667,0.009114583,1,0,0,center_square,0,17,17,110,1,,,,,,,,,,,,,,,,,,,,,,,
830789,001,2022-11-20_23h55.03.640,Info_measure_main_exp,2022.2.2,Win32,63.93861893,,,,,,,,,,,,,,,,,,masks/mask_004.jpg,,,,,,,,,,,,,,,,,,,,,,,,,,,,,,,,,,,,,,,,,,,0,0,0,3,1,,,,,,,,,,,,,,,,,,,,,,,,,,,,,,,,,,,,,,,,,,,,,,
830789,001,2022-11-20_23h55.03.640,Info_measure_main_exp,2022.2.2,Win32,63.93861893,,,,,,,,,,,,,,,,,,masks/mask_003.jpg,,,,,,,,,,,,,,,,,,,,,,,,,,,,,,,,,,,,,,,,,,,0,1,1,2,1,,,,,,,,,,,,,,,,,,,,,,,,,,,,,,,,,,,,,,,,,,,,,,
830789,001,2022-11-20_23h55.03.640,Info_measure_main_exp,2022.2.2,Win32,63.93861893,,,,,,,,,,,,,,,,,,masks/mask_001.jpg,,,,,,,,,,,,,,,,,,,,,,,,,,,,,,,,,,,,,,,,,,,0,2,2,0,1,,,,,,,,,,,,,,,,,,,,,,,,,,,,,,,,,,,,,,,,,,,,,,
830789,001,2022-11-20_23h55.03.640,Info_measure_main_exp,2022.2.2,Win32,63.93861893,,,,,,,,,,,,,,,,,,masks/mask_002.jpg,,,,,,,,,,,,,,,,,,,,,,,,,,,,,,,,,,,,,,,,,,,0,3,3,1,1,,,,,,,,,,,,,,,,,,,,,,,,,,,,,,,,,,,,,,,,,,,,,,
830789,001,2022-11-20_23h55.03.640,Info_measure_main_exp,2022.2.2,Win32,63.93861893,,,,,,,,,,,,,,,,,,masks/mask_005.jpg,,,,,,,,,,,,,,,,,,,,,,,,,,,,,,,,,,,,,,,,,,,0,4,4,4,1,,,,,,,,,,,,,,,,,,,,,,,,,,,,,,,,,,,,,,,,,,,,,,
830789,001,2022-11-20_23h55.03.640,Info_measure_main_exp,2022.2.2,Win32,63.93861893,,,,,,,,,,,,,,,,,,masks/mask_005.jpg,,,,,,,,,,,,,,,,,,,,,,,,,,,,,,,,,,,,,,,,,,,,,,,,0,0,0,4,1,,,,,,,,,,,,,,,,,,,,,,,,,,,,,,,,,,,,,,,,,
830789,001,2022-11-20_23h55.03.640,Info_measure_main_exp,2022.2.2,Win32,63.93861893,,,,,,,,,,,,,,,,,,masks/mask_002.jpg,,,,,,,,,,,,,,,,,,,,,,,,,,,,,,,,,,,,,,,,,,,,,,,,0,1,1,1,1,,,,,,,,,,,,,,,,,,,,,,,,,,,,,,,,,,,,,,,,,
830789,001,2022-11-20_23h55.03.640,Info_measure_main_exp,2022.2.2,Win32,63.93861893,,,,,,,,,,,,,,,,,,masks/mask_003.jpg,,,,,,,,,,,,,,,,,,,,,,,,,,,,,,,,,,,,,,,,,,,,,,,,0,2,2,2,1,,,,,,,,,,,,,,,,,,,,,,,,,,,,,,,,,,,,,,,,,
830789,001,2022-11-20_23h55.03.640,Info_measure_main_exp,2022.2.2,Win32,63.93861893,,,,,,,,,,,,,,,,,,masks/mask_004.jpg,,,,,,,,,,,,,,,,,,,,,,,,,,,,,,,,,,,,,,,,,,,,,,,,0,3,3,3,1,,,,,,,,,,,,,,,,,,,,,,,,,,,,,,,,,,,,,,,,,
830789,001,2022-11-20_23h55.03.640,Info_measure_main_exp,2022.2.2,Win32,63.93861893,,,,,,,,,,,,,,,,,,masks/mask_001.jpg,,,,,,,,,,,,,,,,,,,,,,,,,,,,,,,,,,,,,,,,,,,,,,,,0,4,4,0,1,,,,,,,,,,,,,,,,,,,,,,,,,,,,,,,,,,,,,,,,,
830789,001,2022-11-20_23h55.03.640,Info_measure_main_exp,2022.2.2,Win32,63.93861893,,,,,,,,,,,,,,,,,,,,,,,,,,,,,,7,2.407,1,,,,,,,,,,,,1,131,5,5,2250,1,absent_patch/patch0002250.jpg,present_patch/cong_131_5_a.jpg,,,,,,,,,,,,,,,,,,,,0.045572917,0.065104167,1,0,0,response1disk,19,-0.014322917,0.001302083,1,0,0,center_square,0,18,18,5,1,,,,,,,,,,,,,,,,,,,,,,,
830789,001,2022-11-20_23h55.03.640,Info_measure_main_exp,2022.2.2,Win32,63.93861893,,,,,,,,,,,,,,,,,,masks/mask_003.jpg,,,,,,,,,,,,,,,,,,,,,,,,,,,,,,,,,,,,,,,,,,,0,0,0,2,1,,,,,,,,,,,,,,,,,,,,,,,,,,,,,,,,,,,,,,,,,,,,,,
830789,001,2022-11-20_23h55.03.640,Info_measure_main_exp,2022.2.2,Win32,63.93861893,,,,,,,,,,,,,,,,,,masks/mask_005.jpg,,,,,,,,,,,,,,,,,,,,,,,,,,,,,,,,,,,,,,,,,,,0,1,1,4,1,,,,,,,,,,,,,,,,,,,,,,,,,,,,,,,,,,,,,,,,,,,,,,
830789,001,2022-11-20_23h55.03.640,Info_measure_main_exp,2022.2.2,Win32,63.93861893,,,,,,,,,,,,,,,,,,masks/mask_001.jpg,,,,,,,,,,,,,,,,,,,,,,,,,,,,,,,,,,,,,,,,,,,0,2,2,0,1,,,,,,,,,,,,,,,,,,,,,,,,,,,,,,,,,,,,,,,,,,,,,,
830789,001,2022-11-20_23h55.03.640,Info_measure_main_exp,2022.2.2,Win32,63.93861893,,,,,,,,,,,,,,,,,,masks/mask_002.jpg,,,,,,,,,,,,,,,,,,,,,,,,,,,,,,,,,,,,,,,,,,,0,3,3,1,1,,,,,,,,,,,,,,,,,,,,,,,,,,,,,,,,,,,,,,,,,,,,,,
830789,001,2022-11-20_23h55.03.640,Info_measure_main_exp,2022.2.2,Win32,63.93861893,,,,,,,,,,,,,,,,,,masks/mask_004.jpg,,,,,,,,,,,,,,,,,,,,,,,,,,,,,,,,,,,,,,,,,,,0,4,4,3,1,,,,,,,,,,,,,,,,,,,,,,,,,,,,,,,,,,,,,,,,,,,,,,
830789,001,2022-11-20_23h55.03.640,Info_measure_main_exp,2022.2.2,Win32,63.93861893,,,,,,,,,,,,,,,,,,masks/mask_004.jpg,,,,,,,,,,,,,,,,,,,,,,,,,,,,,,,,,,,,,,,,,,,,,,,,0,0,0,3,1,,,,,,,,,,,,,,,,,,,,,,,,,,,,,,,,,,,,,,,,,
830789,001,2022-11-20_23h55.03.640,Info_measure_main_exp,2022.2.2,Win32,63.93861893,,,,,,,,,,,,,,,,,,masks/mask_001.jpg,,,,,,,,,,,,,,,,,,,,,,,,,,,,,,,,,,,,,,,,,,,,,,,,0,1,1,0,1,,,,,,,,,,,,,,,,,,,,,,,,,,,,,,,,,,,,,,,,,
830789,001,2022-11-20_23h55.03.640,Info_measure_main_exp,2022.2.2,Win32,63.93861893,,,,,,,,,,,,,,,,,,masks/mask_002.jpg,,,,,,,,,,,,,,,,,,,,,,,,,,,,,,,,,,,,,,,,,,,,,,,,0,2,2,1,1,,,,,,,,,,,,,,,,,,,,,,,,,,,,,,,,,,,,,,,,,
830789,001,2022-11-20_23h55.03.640,Info_measure_main_exp,2022.2.2,Win32,63.93861893,,,,,,,,,,,,,,,,,,masks/mask_003.jpg,,,,,,,,,,,,,,,,,,,,,,,,,,,,,,,,,,,,,,,,,,,,,,,,0,3,3,2,1,,,,,,,,,,,,,,,,,,,,,,,,,,,,,,,,,,,,,,,,,
830789,001,2022-11-20_23h55.03.640,Info_measure_main_exp,2022.2.2,Win32,63.93861893,,,,,,,,,,,,,,,,,,masks/mask_005.jpg,,,,,,,,,,,,,,,,,,,,,,,,,,,,,,,,,,,,,,,,,,,,,,,,0,4,4,4,1,,,,,,,,,,,,,,,,,,,,,,,,,,,,,,,,,,,,,,,,,
830789,001,2022-11-20_23h55.03.640,Info_measure_main_exp,2022.2.2,Win32,63.93861893,,,,,,,,,,,,,,,,,,,,,,,,,,,,,,6,3.856,1,,,,,,,,,,,,0,131,5,5,2298,2178,absent_patch/patch0002298.jpg,absent_patch/patch0002178.jpg,,,,,,,,,,,,,,,,,,,,0.1171875,0.0546875,1,0,0,response1disk,20,0.014322917,0.0078125,1,0,0,center_square,0,19,19,84,1,,,,,,,,,,,,,,,,,,,,,,,
830789,001,2022-11-20_23h55.03.640,Info_measure_main_exp,2022.2.2,Win32,63.93861893,,,,,,,,,,,,,,,,,,masks/mask_002.jpg,,,,,,,,,,,,,,,,,,,,,,,,,,,,,,,,,,,,,,,,,,,0,0,0,1,1,,,,,,,,,,,,,,,,,,,,,,,,,,,,,,,,,,,,,,,,,,,,,,
830789,001,2022-11-20_23h55.03.640,Info_measure_main_exp,2022.2.2,Win32,63.93861893,,,,,,,,,,,,,,,,,,masks/mask_001.jpg,,,,,,,,,,,,,,,,,,,,,,,,,,,,,,,,,,,,,,,,,,,0,1,1,0,1,,,,,,,,,,,,,,,,,,,,,,,,,,,,,,,,,,,,,,,,,,,,,,
830789,001,2022-11-20_23h55.03.640,Info_measure_main_exp,2022.2.2,Win32,63.93861893,,,,,,,,,,,,,,,,,,masks/mask_003.jpg,,,,,,,,,,,,,,,,,,,,,,,,,,,,,,,,,,,,,,,,,,,0,2,2,2,1,,,,,,,,,,,,,,,,,,,,,,,,,,,,,,,,,,,,,,,,,,,,,,
830789,001,2022-11-20_23h55.03.640,Info_measure_main_exp,2022.2.2,Win32,63.93861893,,,,,,,,,,,,,,,,,,masks/mask_004.jpg,,,,,,,,,,,,,,,,,,,,,,,,,,,,,,,,,,,,,,,,,,,0,3,3,3,1,,,,,,,,,,,,,,,,,,,,,,,,,,,,,,,,,,,,,,,,,,,,,,
830789,001,2022-11-20_23h55.03.640,Info_measure_main_exp,2022.2.2,Win32,63.93861893,,,,,,,,,,,,,,,,,,masks/mask_005.jpg,,,,,,,,,,,,,,,,,,,,,,,,,,,,,,,,,,,,,,,,,,,0,4,4,4,1,,,,,,,,,,,,,,,,,,,,,,,,,,,,,,,,,,,,,,,,,,,,,,
830789,001,2022-11-20_23h55.03.640,Info_measure_main_exp,2022.2.2,Win32,63.93861893,,,,,,,,,,,,,,,,,,masks/mask_003.jpg,,,,,,,,,,,,,,,,,,,,,,,,,,,,,,,,,,,,,,,,,,,,,,,,0,0,0,2,1,,,,,,,,,,,,,,,,,,,,,,,,,,,,,,,,,,,,,,,,,
830789,001,2022-11-20_23h55.03.640,Info_measure_main_exp,2022.2.2,Win32,63.93861893,,,,,,,,,,,,,,,,,,masks/mask_001.jpg,,,,,,,,,,,,,,,,,,,,,,,,,,,,,,,,,,,,,,,,,,,,,,,,0,1,1,0,1,,,,,,,,,,,,,,,,,,,,,,,,,,,,,,,,,,,,,,,,,
830789,001,2022-11-20_23h55.03.640,Info_measure_main_exp,2022.2.2,Win32,63.93861893,,,,,,,,,,,,,,,,,,masks/mask_002.jpg,,,,,,,,,,,,,,,,,,,,,,,,,,,,,,,,,,,,,,,,,,,,,,,,0,2,2,1,1,,,,,,,,,,,,,,,,,,,,,,,,,,,,,,,,,,,,,,,,,
830789,001,2022-11-20_23h55.03.640,Info_measure_main_exp,2022.2.2,Win32,63.93861893,,,,,,,,,,,,,,,,,,masks/mask_004.jpg,,,,,,,,,,,,,,,,,,,,,,,,,,,,,,,,,,,,,,,,,,,,,,,,0,3,3,3,1,,,,,,,,,,,,,,,,,,,,,,,,,,,,,,,,,,,,,,,,,
830789,001,2022-11-20_23h55.03.640,Info_measure_main_exp,2022.2.2,Win32,63.93861893,,,,,,,,,,,,,,,,,,masks/mask_005.jpg,,,,,,,,,,,,,,,,,,,,,,,,,,,,,,,,,,,,,,,,,,,,,,,,0,4,4,4,1,,,,,,,,,,,,,,,,,,,,,,,,,,,,,,,,,,,,,,,,,
830789,001,2022-11-20_23h55.03.640,Info_measure_main_exp,2022.2.2,Win32,63.93861893,,,,,,,,,,,,,,,,,,,,,,,,,,,,,,4,2.372,1,,,,,,,,,,,,0,131,5,5,1986,2238,absent_patch/patch0001986.jpg,absent_patch/patch0002238.jpg,,,,,,,,,,,,,,,,,,,,0.029947917,-0.0859375,1,0,0,response3disk,21,0.001302083,-0.002604167,1,0,0,center_square,0,20,20,31,1,,,,,,,,,,,,,,,,,,,,,,,
830789,001,2022-11-20_23h55.03.640,Info_measure_main_exp,2022.2.2,Win32,63.93861893,,,,,,,,,,,,,,,,,,masks/mask_001.jpg,,,,,,,,,,,,,,,,,,,,,,,,,,,,,,,,,,,,,,,,,,,0,0,0,0,1,,,,,,,,,,,,,,,,,,,,,,,,,,,,,,,,,,,,,,,,,,,,,,
830789,001,2022-11-20_23h55.03.640,Info_measure_main_exp,2022.2.2,Win32,63.93861893,,,,,,,,,,,,,,,,,,masks/mask_003.jpg,,,,,,,,,,,,,,,,,,,,,,,,,,,,,,,,,,,,,,,,,,,0,1,1,2,1,,,,,,,,,,,,,,,,,,,,,,,,,,,,,,,,,,,,,,,,,,,,,,
830789,001,2022-11-20_23h55.03.640,Info_measure_main_exp,2022.2.2,Win32,63.93861893,,,,,,,,,,,,,,,,,,masks/mask_002.jpg,,,,,,,,,,,,,,,,,,,,,,,,,,,,,,,,,,,,,,,,,,,0,2,2,1,1,,,,,,,,,,,,,,,,,,,,,,,,,,,,,,,,,,,,,,,,,,,,,,
830789,001,2022-11-20_23h55.03.640,Info_measure_main_exp,2022.2.2,Win32,63.93861893,,,,,,,,,,,,,,,,,,masks/mask_004.jpg,,,,,,,,,,,,,,,,,,,,,,,,,,,,,,,,,,,,,,,,,,,0,3,3,3,1,,,,,,,,,,,,,,,,,,,,,,,,,,,,,,,,,,,,,,,,,,,,,,
830789,001,2022-11-20_23h55.03.640,Info_measure_main_exp,2022.2.2,Win32,63.93861893,,,,,,,,,,,,,,,,,,masks/mask_005.jpg,,,,,,,,,,,,,,,,,,,,,,,,,,,,,,,,,,,,,,,,,,,0,4,4,4,1,,,,,,,,,,,,,,,,,,,,,,,,,,,,,,,,,,,,,,,,,,,,,,
830789,001,2022-11-20_23h55.03.640,Info_measure_main_exp,2022.2.2,Win32,63.93861893,,,,,,,,,,,,,,,,,,masks/mask_003.jpg,,,,,,,,,,,,,,,,,,,,,,,,,,,,,,,,,,,,,,,,,,,,,,,,0,0,0,2,1,,,,,,,,,,,,,,,,,,,,,,,,,,,,,,,,,,,,,,,,,
830789,001,2022-11-20_23h55.03.640,Info_measure_main_exp,2022.2.2,Win32,63.93861893,,,,,,,,,,,,,,,,,,masks/mask_002.jpg,,,,,,,,,,,,,,,,,,,,,,,,,,,,,,,,,,,,,,,,,,,,,,,,0,1,1,1,1,,,,,,,,,,,,,,,,,,,,,,,,,,,,,,,,,,,,,,,,,
830789,001,2022-11-20_23h55.03.640,Info_measure_main_exp,2022.2.2,Win32,63.93861893,,,,,,,,,,,,,,,,,,masks/mask_005.jpg,,,,,,,,,,,,,,,,,,,,,,,,,,,,,,,,,,,,,,,,,,,,,,,,0,2,2,4,1,,,,,,,,,,,,,,,,,,,,,,,,,,,,,,,,,,,,,,,,,
830789,001,2022-11-20_23h55.03.640,Info_measure_main_exp,2022.2.2,Win32,63.93861893,,,,,,,,,,,,,,,,,,masks/mask_001.jpg,,,,,,,,,,,,,,,,,,,,,,,,,,,,,,,,,,,,,,,,,,,,,,,,0,3,3,0,1,,,,,,,,,,,,,,,,,,,,,,,,,,,,,,,,,,,,,,,,,
830789,001,2022-11-20_23h55.03.640,Info_measure_main_exp,2022.2.2,Win32,63.93861893,,,,,,,,,,,,,,,,,,masks/mask_004.jpg,,,,,,,,,,,,,,,,,,,,,,,,,,,,,,,,,,,,,,,,,,,,,,,,0,4,4,3,1,,,,,,,,,,,,,,,,,,,,,,,,,,,,,,,,,,,,,,,,,
830789,001,2022-11-20_23h55.03.640,Info_measure_main_exp,2022.2.2,Win32,63.93861893,,,,,,,,,,,,,,,,,,,,,,,,,,,,,,6,2.279,1,,,,,,,,,,,,0,131,5,5,2250,2178,absent_patch/patch0002250.jpg,absent_patch/patch0002178.jpg,,,,,,,,,,,,,,,,,,,,0.123697917,0.014322917,1,0,0,response1disk,22,0.001302083,-0.001302083,1,0,0,center_square,0,21,21,48,1,,,,,,,,,,,,,,,,,,,,,,,
830789,001,2022-11-20_23h55.03.640,Info_measure_main_exp,2022.2.2,Win32,63.93861893,,,,,,,,,,,,,,,,,,masks/mask_003.jpg,,,,,,,,,,,,,,,,,,,,,,,,,,,,,,,,,,,,,,,,,,,0,0,0,2,1,,,,,,,,,,,,,,,,,,,,,,,,,,,,,,,,,,,,,,,,,,,,,,
830789,001,2022-11-20_23h55.03.640,Info_measure_main_exp,2022.2.2,Win32,63.93861893,,,,,,,,,,,,,,,,,,masks/mask_005.jpg,,,,,,,,,,,,,,,,,,,,,,,,,,,,,,,,,,,,,,,,,,,0,1,1,4,1,,,,,,,,,,,,,,,,,,,,,,,,,,,,,,,,,,,,,,,,,,,,,,
830789,001,2022-11-20_23h55.03.640,Info_measure_main_exp,2022.2.2,Win32,63.93861893,,,,,,,,,,,,,,,,,,masks/mask_004.jpg,,,,,,,,,,,,,,,,,,,,,,,,,,,,,,,,,,,,,,,,,,,0,2,2,3,1,,,,,,,,,,,,,,,,,,,,,,,,,,,,,,,,,,,,,,,,,,,,,,
830789,001,2022-11-20_23h55.03.640,Info_measure_main_exp,2022.2.2,Win32,63.93861893,,,,,,,,,,,,,,,,,,masks/mask_002.jpg,,,,,,,,,,,,,,,,,,,,,,,,,,,,,,,,,,,,,,,,,,,0,3,3,1,1,,,,,,,,,,,,,,,,,,,,,,,,,,,,,,,,,,,,,,,,,,,,,,
830789,001,2022-11-20_23h55.03.640,Info_measure_main_exp,2022.2.2,Win32,63.93861893,,,,,,,,,,,,,,,,,,masks/mask_001.jpg,,,,,,,,,,,,,,,,,,,,,,,,,,,,,,,,,,,,,,,,,,,0,4,4,0,1,,,,,,,,,,,,,,,,,,,,,,,,,,,,,,,,,,,,,,,,,,,,,,
830789,001,2022-11-20_23h55.03.640,Info_measure_main_exp,2022.2.2,Win32,63.93861893,,,,,,,,,,,,,,,,,,masks/mask_002.jpg,,,,,,,,,,,,,,,,,,,,,,,,,,,,,,,,,,,,,,,,,,,,,,,,0,0,0,1,1,,,,,,,,,,,,,,,,,,,,,,,,,,,,,,,,,,,,,,,,,
830789,001,2022-11-20_23h55.03.640,Info_measure_main_exp,2022.2.2,Win32,63.93861893,,,,,,,,,,,,,,,,,,masks/mask_005.jpg,,,,,,,,,,,,,,,,,,,,,,,,,,,,,,,,,,,,,,,,,,,,,,,,0,1,1,4,1,,,,,,,,,,,,,,,,,,,,,,,,,,,,,,,,,,,,,,,,,
830789,001,2022-11-20_23h55.03.640,Info_measure_main_exp,2022.2.2,Win32,63.93861893,,,,,,,,,,,,,,,,,,masks/mask_001.jpg,,,,,,,,,,,,,,,,,,,,,,,,,,,,,,,,,,,,,,,,,,,,,,,,0,2,2,0,1,,,,,,,,,,,,,,,,,,,,,,,,,,,,,,,,,,,,,,,,,
830789,001,2022-11-20_23h55.03.640,Info_measure_main_exp,2022.2.2,Win32,63.93861893,,,,,,,,,,,,,,,,,,masks/mask_004.jpg,,,,,,,,,,,,,,,,,,,,,,,,,,,,,,,,,,,,,,,,,,,,,,,,0,3,3,3,1,,,,,,,,,,,,,,,,,,,,,,,,,,,,,,,,,,,,,,,,,
830789,001,2022-11-20_23h55.03.640,Info_measure_main_exp,2022.2.2,Win32,63.93861893,,,,,,,,,,,,,,,,,,masks/mask_003.jpg,,,,,,,,,,,,,,,,,,,,,,,,,,,,,,,,,,,,,,,,,,,,,,,,0,4,4,2,1,,,,,,,,,,,,,,,,,,,,,,,,,,,,,,,,,,,,,,,,,
830789,001,2022-11-20_23h55.03.640,Info_measure_main_exp,2022.2.2,Win32,63.93861893,,,,,,,,,,,,,,,,,,,,,,,,,,,,,,6,2.935,1,,,,,,,,,,,,0,131,5,5,2274,2142,absent_patch/patch0002274.jpg,absent_patch/patch0002142.jpg,,,,,,,,,,,,,,,,,,,,0.11328125,0.026041667,1,0,0,response1disk,23,0.009114583,0,1,0,0,center_square,0,22,22,75,1,,,,,,,,,,,,,,,,,,,,,,,
830789,001,2022-11-20_23h55.03.640,Info_measure_main_exp,2022.2.2,Win32,63.93861893,,,,,,,,,,,,,,,,,,masks/mask_002.jpg,,,,,,,,,,,,,,,,,,,,,,,,,,,,,,,,,,,,,,,,,,,0,0,0,1,1,,,,,,,,,,,,,,,,,,,,,,,,,,,,,,,,,,,,,,,,,,,,,,
830789,001,2022-11-20_23h55.03.640,Info_measure_main_exp,2022.2.2,Win32,63.93861893,,,,,,,,,,,,,,,,,,masks/mask_005.jpg,,,,,,,,,,,,,,,,,,,,,,,,,,,,,,,,,,,,,,,,,,,0,1,1,4,1,,,,,,,,,,,,,,,,,,,,,,,,,,,,,,,,,,,,,,,,,,,,,,
830789,001,2022-11-20_23h55.03.640,Info_measure_main_exp,2022.2.2,Win32,63.93861893,,,,,,,,,,,,,,,,,,masks/mask_004.jpg,,,,,,,,,,,,,,,,,,,,,,,,,,,,,,,,,,,,,,,,,,,0,2,2,3,1,,,,,,,,,,,,,,,,,,,,,,,,,,,,,,,,,,,,,,,,,,,,,,
830789,001,2022-11-20_23h55.03.640,Info_measure_main_exp,2022.2.2,Win32,63.93861893,,,,,,,,,,,,,,,,,,masks/mask_001.jpg,,,,,,,,,,,,,,,,,,,,,,,,,,,,,,,,,,,,,,,,,,,0,3,3,0,1,,,,,,,,,,,,,,,,,,,,,,,,,,,,,,,,,,,,,,,,,,,,,,
830789,001,2022-11-20_23h55.03.640,Info_measure_main_exp,2022.2.2,Win32,63.93861893,,,,,,,,,,,,,,,,,,masks/mask_003.jpg,,,,,,,,,,,,,,,,,,,,,,,,,,,,,,,,,,,,,,,,,,,0,4,4,2,1,,,,,,,,,,,,,,,,,,,,,,,,,,,,,,,,,,,,,,,,,,,,,,
830789,001,2022-11-20_23h55.03.640,Info_measure_main_exp,2022.2.2,Win32,63.93861893,,,,,,,,,,,,,,,,,,masks/mask_001.jpg,,,,,,,,,,,,,,,,,,,,,,,,,,,,,,,,,,,,,,,,,,,,,,,,0,0,0,0,1,,,,,,,,,,,,,,,,,,,,,,,,,,,,,,,,,,,,,,,,,
830789,001,2022-11-20_23h55.03.640,Info_measure_main_exp,2022.2.2,Win32,63.93861893,,,,,,,,,,,,,,,,,,masks/mask_005.jpg,,,,,,,,,,,,,,,,,,,,,,,,,,,,,,,,,,,,,,,,,,,,,,,,0,1,1,4,1,,,,,,,,,,,,,,,,,,,,,,,,,,,,,,,,,,,,,,,,,
830789,001,2022-11-20_23h55.03.640,Info_measure_main_exp,2022.2.2,Win32,63.93861893,,,,,,,,,,,,,,,,,,masks/mask_002.jpg,,,,,,,,,,,,,,,,,,,,,,,,,,,,,,,,,,,,,,,,,,,,,,,,0,2,2,1,1,,,,,,,,,,,,,,,,,,,,,,,,,,,,,,,,,,,,,,,,,
830789,001,2022-11-20_23h55.03.640,Info_measure_main_exp,2022.2.2,Win32,63.93861893,,,,,,,,,,,,,,,,,,masks/mask_003.jpg,,,,,,,,,,,,,,,,,,,,,,,,,,,,,,,,,,,,,,,,,,,,,,,,0,3,3,2,1,,,,,,,,,,,,,,,,,,,,,,,,,,,,,,,,,,,,,,,,,
830789,001,2022-11-20_23h55.03.640,Info_measure_main_exp,2022.2.2,Win32,63.93861893,,,,,,,,,,,,,,,,,,masks/mask_004.jpg,,,,,,,,,,,,,,,,,,,,,,,,,,,,,,,,,,,,,,,,,,,,,,,,0,4,4,3,1,,,,,,,,,,,,,,,,,,,,,,,,,,,,,,,,,,,,,,,,,
830789,001,2022-11-20_23h55.03.640,Info_measure_main_exp,2022.2.2,Win32,63.93861893,,,,,,,,,,,,,,,,,,,,,,,,,,,,,,3,3.979,1,,,,,,,,,,,,0,131,5,5,2298,2214,absent_patch/patch0002298.jpg,absent_patch/patch0002214.jpg,,,,,,,,,,,,,,,,,,,,-0.032552083,-0.079427083,1,0,0,response5disk,24,0.0078125,0,1,0,0,center_square,0,23,23,99,1,,,,,,,,,,,,,,,,,,,,,,,
830789,001,2022-11-20_23h55.03.640,Info_measure_main_exp,2022.2.2,Win32,63.93861893,,,,,,,,,,,,,,,,,,masks/mask_005.jpg,,,,,,,,,,,,,,,,,,,,,,,,,,,,,,,,,,,,,,,,,,,0,0,0,4,1,,,,,,,,,,,,,,,,,,,,,,,,,,,,,,,,,,,,,,,,,,,,,,
830789,001,2022-11-20_23h55.03.640,Info_measure_main_exp,2022.2.2,Win32,63.93861893,,,,,,,,,,,,,,,,,,masks/mask_004.jpg,,,,,,,,,,,,,,,,,,,,,,,,,,,,,,,,,,,,,,,,,,,0,1,1,3,1,,,,,,,,,,,,,,,,,,,,,,,,,,,,,,,,,,,,,,,,,,,,,,
830789,001,2022-11-20_23h55.03.640,Info_measure_main_exp,2022.2.2,Win32,63.93861893,,,,,,,,,,,,,,,,,,masks/mask_001.jpg,,,,,,,,,,,,,,,,,,,,,,,,,,,,,,,,,,,,,,,,,,,0,2,2,0,1,,,,,,,,,,,,,,,,,,,,,,,,,,,,,,,,,,,,,,,,,,,,,,
830789,001,2022-11-20_23h55.03.640,Info_measure_main_exp,2022.2.2,Win32,63.93861893,,,,,,,,,,,,,,,,,,masks/mask_003.jpg,,,,,,,,,,,,,,,,,,,,,,,,,,,,,,,,,,,,,,,,,,,0,3,3,2,1,,,,,,,,,,,,,,,,,,,,,,,,,,,,,,,,,,,,,,,,,,,,,,
830789,001,2022-11-20_23h55.03.640,Info_measure_main_exp,2022.2.2,Win32,63.93861893,,,,,,,,,,,,,,,,,,masks/mask_002.jpg,,,,,,,,,,,,,,,,,,,,,,,,,,,,,,,,,,,,,,,,,,,0,4,4,1,1,,,,,,,,,,,,,,,,,,,,,,,,,,,,,,,,,,,,,,,,,,,,,,
830789,001,2022-11-20_23h55.03.640,Info_measure_main_exp,2022.2.2,Win32,63.93861893,,,,,,,,,,,,,,,,,,masks/mask_001.jpg,,,,,,,,,,,,,,,,,,,,,,,,,,,,,,,,,,,,,,,,,,,,,,,,0,0,0,0,1,,,,,,,,,,,,,,,,,,,,,,,,,,,,,,,,,,,,,,,,,
830789,001,2022-11-20_23h55.03.640,Info_measure_main_exp,2022.2.2,Win32,63.93861893,,,,,,,,,,,,,,,,,,masks/mask_002.jpg,,,,,,,,,,,,,,,,,,,,,,,,,,,,,,,,,,,,,,,,,,,,,,,,0,1,1,1,1,,,,,,,,,,,,,,,,,,,,,,,,,,,,,,,,,,,,,,,,,
830789,001,2022-11-20_23h55.03.640,Info_measure_main_exp,2022.2.2,Win32,63.93861893,,,,,,,,,,,,,,,,,,masks/mask_004.jpg,,,,,,,,,,,,,,,,,,,,,,,,,,,,,,,,,,,,,,,,,,,,,,,,0,2,2,3,1,,,,,,,,,,,,,,,,,,,,,,,,,,,,,,,,,,,,,,,,,
830789,001,2022-11-20_23h55.03.640,Info_measure_main_exp,2022.2.2,Win32,63.93861893,,,,,,,,,,,,,,,,,,masks/mask_003.jpg,,,,,,,,,,,,,,,,,,,,,,,,,,,,,,,,,,,,,,,,,,,,,,,,0,3,3,2,1,,,,,,,,,,,,,,,,,,,,,,,,,,,,,,,,,,,,,,,,,
830789,001,2022-11-20_23h55.03.640,Info_measure_main_exp,2022.2.2,Win32,63.93861893,,,,,,,,,,,,,,,,,,masks/mask_005.jpg,,,,,,,,,,,,,,,,,,,,,,,,,,,,,,,,,,,,,,,,,,,,,,,,0,4,4,4,1,,,,,,,,,,,,,,,,,,,,,,,,,,,,,,,,,,,,,,,,,
830789,001,2022-11-20_23h55.03.640,Info_measure_main_exp,2022.2.2,Win32,63.93861893,,,,,,,,,,,,,,,,,,,,,,,,,,,,,,7,1.354,1,,,,,,,,,,,,0,131,5,5,1986,1974,absent_patch/patch0001986.jpg,absent_patch/patch0001974.jpg,,,,,,,,,,,,,,,,,,,,0.055989583,0.115885417,1,0,0,response1disk,25,0,0.001302083,1,0,0,center_square,0,24,24,25,1,,,,,,,,,,,,,,,,,,,,,,,
830789,001,2022-11-20_23h55.03.640,Info_measure_main_exp,2022.2.2,Win32,63.93861893,,,,,,,,,,,,,,,,,,masks/mask_001.jpg,,,,,,,,,,,,,,,,,,,,,,,,,,,,,,,,,,,,,,,,,,,0,0,0,0,1,,,,,,,,,,,,,,,,,,,,,,,,,,,,,,,,,,,,,,,,,,,,,,
830789,001,2022-11-20_23h55.03.640,Info_measure_main_exp,2022.2.2,Win32,63.93861893,,,,,,,,,,,,,,,,,,masks/mask_003.jpg,,,,,,,,,,,,,,,,,,,,,,,,,,,,,,,,,,,,,,,,,,,0,1,1,2,1,,,,,,,,,,,,,,,,,,,,,,,,,,,,,,,,,,,,,,,,,,,,,,
830789,001,2022-11-20_23h55.03.640,Info_measure_main_exp,2022.2.2,Win32,63.93861893,,,,,,,,,,,,,,,,,,masks/mask_005.jpg,,,,,,,,,,,,,,,,,,,,,,,,,,,,,,,,,,,,,,,,,,,0,2,2,4,1,,,,,,,,,,,,,,,,,,,,,,,,,,,,,,,,,,,,,,,,,,,,,,
830789,001,2022-11-20_23h55.03.640,Info_measure_main_exp,2022.2.2,Win32,63.93861893,,,,,,,,,,,,,,,,,,masks/mask_002.jpg,,,,,,,,,,,,,,,,,,,,,,,,,,,,,,,,,,,,,,,,,,,0,3,3,1,1,,,,,,,,,,,,,,,,,,,,,,,,,,,,,,,,,,,,,,,,,,,,,,
830789,001,2022-11-20_23h55.03.640,Info_measure_main_exp,2022.2.2,Win32,63.93861893,,,,,,,,,,,,,,,,,,masks/mask_004.jpg,,,,,,,,,,,,,,,,,,,,,,,,,,,,,,,,,,,,,,,,,,,0,4,4,3,1,,,,,,,,,,,,,,,,,,,,,,,,,,,,,,,,,,,,,,,,,,,,,,
830789,001,2022-11-20_23h55.03.640,Info_measure_main_exp,2022.2.2,Win32,63.93861893,,,,,,,,,,,,,,,,,,masks/mask_003.jpg,,,,,,,,,,,,,,,,,,,,,,,,,,,,,,,,,,,,,,,,,,,,,,,,0,0,0,2,1,,,,,,,,,,,,,,,,,,,,,,,,,,,,,,,,,,,,,,,,,
830789,001,2022-11-20_23h55.03.640,Info_measure_main_exp,2022.2.2,Win32,63.93861893,,,,,,,,,,,,,,,,,,masks/mask_004.jpg,,,,,,,,,,,,,,,,,,,,,,,,,,,,,,,,,,,,,,,,,,,,,,,,0,1,1,3,1,,,,,,,,,,,,,,,,,,,,,,,,,,,,,,,,,,,,,,,,,
830789,001,2022-11-20_23h55.03.640,Info_measure_main_exp,2022.2.2,Win32,63.93861893,,,,,,,,,,,,,,,,,,masks/mask_002.jpg,,,,,,,,,,,,,,,,,,,,,,,,,,,,,,,,,,,,,,,,,,,,,,,,0,2,2,1,1,,,,,,,,,,,,,,,,,,,,,,,,,,,,,,,,,,,,,,,,,
830789,001,2022-11-20_23h55.03.640,Info_measure_main_exp,2022.2.2,Win32,63.93861893,,,,,,,,,,,,,,,,,,masks/mask_001.jpg,,,,,,,,,,,,,,,,,,,,,,,,,,,,,,,,,,,,,,,,,,,,,,,,0,3,3,0,1,,,,,,,,,,,,,,,,,,,,,,,,,,,,,,,,,,,,,,,,,
830789,001,2022-11-20_23h55.03.640,Info_measure_main_exp,2022.2.2,Win32,63.93861893,,,,,,,,,,,,,,,,,,masks/mask_005.jpg,,,,,,,,,,,,,,,,,,,,,,,,,,,,,,,,,,,,,,,,,,,,,,,,0,4,4,4,1,,,,,,,,,,,,,,,,,,,,,,,,,,,,,,,,,,,,,,,,,
830789,001,2022-11-20_23h55.03.640,Info_measure_main_exp,2022.2.2,Win32,63.93861893,,,,,,,,,,,,,,,,,,,,,,,,,,,,,,0,0.537,1,,,,,,,,,,,,1,131,5,5,1,1,present_patch/cong_131_5_a.jpg,present_patch/cong_131_5_a.jpg,,,,,,,,,,,,,,,,,,,,-0.041666667,0.06640625,1,0,0,response7disk,26,0,0.001302083,1,0,0,center_square,0,25,25,30,1,,,,,,,,,,,,,,,,,,,,,,,
830789,001,2022-11-20_23h55.03.640,Info_measure_main_exp,2022.2.2,Win32,63.93861893,,,,,,,,,,,,,,,,,,masks/mask_001.jpg,,,,,,,,,,,,,,,,,,,,,,,,,,,,,,,,,,,,,,,,,,,0,0,0,0,1,,,,,,,,,,,,,,,,,,,,,,,,,,,,,,,,,,,,,,,,,,,,,,
830789,001,2022-11-20_23h55.03.640,Info_measure_main_exp,2022.2.2,Win32,63.93861893,,,,,,,,,,,,,,,,,,masks/mask_005.jpg,,,,,,,,,,,,,,,,,,,,,,,,,,,,,,,,,,,,,,,,,,,0,1,1,4,1,,,,,,,,,,,,,,,,,,,,,,,,,,,,,,,,,,,,,,,,,,,,,,
830789,001,2022-11-20_23h55.03.640,Info_measure_main_exp,2022.2.2,Win32,63.93861893,,,,,,,,,,,,,,,,,,masks/mask_003.jpg,,,,,,,,,,,,,,,,,,,,,,,,,,,,,,,,,,,,,,,,,,,0,2,2,2,1,,,,,,,,,,,,,,,,,,,,,,,,,,,,,,,,,,,,,,,,,,,,,,
830789,001,2022-11-20_23h55.03.640,Info_measure_main_exp,2022.2.2,Win32,63.93861893,,,,,,,,,,,,,,,,,,masks/mask_002.jpg,,,,,,,,,,,,,,,,,,,,,,,,,,,,,,,,,,,,,,,,,,,0,3,3,1,1,,,,,,,,,,,,,,,,,,,,,,,,,,,,,,,,,,,,,,,,,,,,,,
830789,001,2022-11-20_23h55.03.640,Info_measure_main_exp,2022.2.2,Win32,63.93861893,,,,,,,,,,,,,,,,,,masks/mask_004.jpg,,,,,,,,,,,,,,,,,,,,,,,,,,,,,,,,,,,,,,,,,,,0,4,4,3,1,,,,,,,,,,,,,,,,,,,,,,,,,,,,,,,,,,,,,,,,,,,,,,
830789,001,2022-11-20_23h55.03.640,Info_measure_main_exp,2022.2.2,Win32,63.93861893,,,,,,,,,,,,,,,,,,masks/mask_001.jpg,,,,,,,,,,,,,,,,,,,,,,,,,,,,,,,,,,,,,,,,,,,,,,,,0,0,0,0,1,,,,,,,,,,,,,,,,,,,,,,,,,,,,,,,,,,,,,,,,,
830789,001,2022-11-20_23h55.03.640,Info_measure_main_exp,2022.2.2,Win32,63.93861893,,,,,,,,,,,,,,,,,,masks/mask_002.jpg,,,,,,,,,,,,,,,,,,,,,,,,,,,,,,,,,,,,,,,,,,,,,,,,0,1,1,1,1,,,,,,,,,,,,,,,,,,,,,,,,,,,,,,,,,,,,,,,,,
830789,001,2022-11-20_23h55.03.640,Info_measure_main_exp,2022.2.2,Win32,63.93861893,,,,,,,,,,,,,,,,,,masks/mask_005.jpg,,,,,,,,,,,,,,,,,,,,,,,,,,,,,,,,,,,,,,,,,,,,,,,,0,2,2,4,1,,,,,,,,,,,,,,,,,,,,,,,,,,,,,,,,,,,,,,,,,
830789,001,2022-11-20_23h55.03.640,Info_measure_main_exp,2022.2.2,Win32,63.93861893,,,,,,,,,,,,,,,,,,masks/mask_003.jpg,,,,,,,,,,,,,,,,,,,,,,,,,,,,,,,,,,,,,,,,,,,,,,,,0,3,3,2,1,,,,,,,,,,,,,,,,,,,,,,,,,,,,,,,,,,,,,,,,,
830789,001,2022-11-20_23h55.03.640,Info_measure_main_exp,2022.2.2,Win32,63.93861893,,,,,,,,,,,,,,,,,,masks/mask_004.jpg,,,,,,,,,,,,,,,,,,,,,,,,,,,,,,,,,,,,,,,,,,,,,,,,0,4,4,3,1,,,,,,,,,,,,,,,,,,,,,,,,,,,,,,,,,,,,,,,,,
830789,001,2022-11-20_23h55.03.640,Info_measure_main_exp,2022.2.2,Win32,63.93861893,,,,,,,,,,,,,,,,,,,,,,,,,,,,,,5,1.436,1,,,,,,,,,,,,0,131,5,5,2250,2298,absent_patch/patch0002250.jpg,absent_patch/patch0002298.jpg,,,,,,,,,,,,,,,,,,,,0.079427083,-0.041666667,1,0,0,response3disk,27,0.005208333,0.005208333,1,0,0,center_square,0,26,26,59,1,,,,,,,,,,,,,,,,,,,,,,,
830789,001,2022-11-20_23h55.03.640,Info_measure_main_exp,2022.2.2,Win32,63.93861893,,,,,,,,,,,,,,,,,,masks/mask_004.jpg,,,,,,,,,,,,,,,,,,,,,,,,,,,,,,,,,,,,,,,,,,,0,0,0,3,1,,,,,,,,,,,,,,,,,,,,,,,,,,,,,,,,,,,,,,,,,,,,,,
830789,001,2022-11-20_23h55.03.640,Info_measure_main_exp,2022.2.2,Win32,63.93861893,,,,,,,,,,,,,,,,,,masks/mask_002.jpg,,,,,,,,,,,,,,,,,,,,,,,,,,,,,,,,,,,,,,,,,,,0,1,1,1,1,,,,,,,,,,,,,,,,,,,,,,,,,,,,,,,,,,,,,,,,,,,,,,
830789,001,2022-11-20_23h55.03.640,Info_measure_main_exp,2022.2.2,Win32,63.93861893,,,,,,,,,,,,,,,,,,masks/mask_005.jpg,,,,,,,,,,,,,,,,,,,,,,,,,,,,,,,,,,,,,,,,,,,0,2,2,4,1,,,,,,,,,,,,,,,,,,,,,,,,,,,,,,,,,,,,,,,,,,,,,,
830789,001,2022-11-20_23h55.03.640,Info_measure_main_exp,2022.2.2,Win32,63.93861893,,,,,,,,,,,,,,,,,,masks/mask_001.jpg,,,,,,,,,,,,,,,,,,,,,,,,,,,,,,,,,,,,,,,,,,,0,3,3,0,1,,,,,,,,,,,,,,,,,,,,,,,,,,,,,,,,,,,,,,,,,,,,,,
830789,001,2022-11-20_23h55.03.640,Info_measure_main_exp,2022.2.2,Win32,63.93861893,,,,,,,,,,,,,,,,,,masks/mask_003.jpg,,,,,,,,,,,,,,,,,,,,,,,,,,,,,,,,,,,,,,,,,,,0,4,4,2,1,,,,,,,,,,,,,,,,,,,,,,,,,,,,,,,,,,,,,,,,,,,,,,
830789,001,2022-11-20_23h55.03.640,Info_measure_main_exp,2022.2.2,Win32,63.93861893,,,,,,,,,,,,,,,,,,masks/mask_002.jpg,,,,,,,,,,,,,,,,,,,,,,,,,,,,,,,,,,,,,,,,,,,,,,,,0,0,0,1,1,,,,,,,,,,,,,,,,,,,,,,,,,,,,,,,,,,,,,,,,,
830789,001,2022-11-20_23h55.03.640,Info_measure_main_exp,2022.2.2,Win32,63.93861893,,,,,,,,,,,,,,,,,,masks/mask_003.jpg,,,,,,,,,,,,,,,,,,,,,,,,,,,,,,,,,,,,,,,,,,,,,,,,0,1,1,2,1,,,,,,,,,,,,,,,,,,,,,,,,,,,,,,,,,,,,,,,,,
830789,001,2022-11-20_23h55.03.640,Info_measure_main_exp,2022.2.2,Win32,63.93861893,,,,,,,,,,,,,,,,,,masks/mask_005.jpg,,,,,,,,,,,,,,,,,,,,,,,,,,,,,,,,,,,,,,,,,,,,,,,,0,2,2,4,1,,,,,,,,,,,,,,,,,,,,,,,,,,,,,,,,,,,,,,,,,
830789,001,2022-11-20_23h55.03.640,Info_measure_main_exp,2022.2.2,Win32,63.93861893,,,,,,,,,,,,,,,,,,masks/mask_001.jpg,,,,,,,,,,,,,,,,,,,,,,,,,,,,,,,,,,,,,,,,,,,,,,,,0,3,3,0,1,,,,,,,,,,,,,,,,,,,,,,,,,,,,,,,,,,,,,,,,,
830789,001,2022-11-20_23h55.03.640,Info_measure_main_exp,2022.2.2,Win32,63.93861893,,,,,,,,,,,,,,,,,,masks/mask_004.jpg,,,,,,,,,,,,,,,,,,,,,,,,,,,,,,,,,,,,,,,,,,,,,,,,0,4,4,3,1,,,,,,,,,,,,,,,,,,,,,,,,,,,,,,,,,,,,,,,,,
830789,001,2022-11-20_23h55.03.640,Info_measure_main_exp,2022.2.2,Win32,63.93861893,,,,,,,,,,,,,,,,,,,,,,,,,,,,,,7,1.032,1,,,,,,,,,,,,1,131,5,5,2298,1,absent_patch/patch0002298.jpg,present_patch/cong_131_5_a.jpg,,,,,,,,,,,,,,,,,,,,0.048177083,0.087239583,1,0,0,response1disk,28,-0.0078125,-0.00390625,1,0,0,center_square,0,27,27,45,1,,,,,,,,,,,,,,,,,,,,,,,
830789,001,2022-11-20_23h55.03.640,Info_measure_main_exp,2022.2.2,Win32,63.93861893,,,,,,,,,,,,,,,,,,masks/mask_004.jpg,,,,,,,,,,,,,,,,,,,,,,,,,,,,,,,,,,,,,,,,,,,0,0,0,3,1,,,,,,,,,,,,,,,,,,,,,,,,,,,,,,,,,,,,,,,,,,,,,,
830789,001,2022-11-20_23h55.03.640,Info_measure_main_exp,2022.2.2,Win32,63.93861893,,,,,,,,,,,,,,,,,,masks/mask_002.jpg,,,,,,,,,,,,,,,,,,,,,,,,,,,,,,,,,,,,,,,,,,,0,1,1,1,1,,,,,,,,,,,,,,,,,,,,,,,,,,,,,,,,,,,,,,,,,,,,,,
830789,001,2022-11-20_23h55.03.640,Info_measure_main_exp,2022.2.2,Win32,63.93861893,,,,,,,,,,,,,,,,,,masks/mask_003.jpg,,,,,,,,,,,,,,,,,,,,,,,,,,,,,,,,,,,,,,,,,,,0,2,2,2,1,,,,,,,,,,,,,,,,,,,,,,,,,,,,,,,,,,,,,,,,,,,,,,
830789,001,2022-11-20_23h55.03.640,Info_measure_main_exp,2022.2.2,Win32,63.93861893,,,,,,,,,,,,,,,,,,masks/mask_001.jpg,,,,,,,,,,,,,,,,,,,,,,,,,,,,,,,,,,,,,,,,,,,0,3,3,0,1,,,,,,,,,,,,,,,,,,,,,,,,,,,,,,,,,,,,,,,,,,,,,,
830789,001,2022-11-20_23h55.03.640,Info_measure_main_exp,2022.2.2,Win32,63.93861893,,,,,,,,,,,,,,,,,,masks/mask_005.jpg,,,,,,,,,,,,,,,,,,,,,,,,,,,,,,,,,,,,,,,,,,,0,4,4,4,1,,,,,,,,,,,,,,,,,,,,,,,,,,,,,,,,,,,,,,,,,,,,,,
830789,001,2022-11-20_23h55.03.640,Info_measure_main_exp,2022.2.2,Win32,63.93861893,,,,,,,,,,,,,,,,,,masks/mask_004.jpg,,,,,,,,,,,,,,,,,,,,,,,,,,,,,,,,,,,,,,,,,,,,,,,,0,0,0,3,1,,,,,,,,,,,,,,,,,,,,,,,,,,,,,,,,,,,,,,,,,
830789,001,2022-11-20_23h55.03.640,Info_measure_main_exp,2022.2.2,Win32,63.93861893,,,,,,,,,,,,,,,,,,masks/mask_005.jpg,,,,,,,,,,,,,,,,,,,,,,,,,,,,,,,,,,,,,,,,,,,,,,,,0,1,1,4,1,,,,,,,,,,,,,,,,,,,,,,,,,,,,,,,,,,,,,,,,,
830789,001,2022-11-20_23h55.03.640,Info_measure_main_exp,2022.2.2,Win32,63.93861893,,,,,,,,,,,,,,,,,,masks/mask_003.jpg,,,,,,,,,,,,,,,,,,,,,,,,,,,,,,,,,,,,,,,,,,,,,,,,0,2,2,2,1,,,,,,,,,,,,,,,,,,,,,,,,,,,,,,,,,,,,,,,,,
830789,001,2022-11-20_23h55.03.640,Info_measure_main_exp,2022.2.2,Win32,63.93861893,,,,,,,,,,,,,,,,,,masks/mask_002.jpg,,,,,,,,,,,,,,,,,,,,,,,,,,,,,,,,,,,,,,,,,,,,,,,,0,3,3,1,1,,,,,,,,,,,,,,,,,,,,,,,,,,,,,,,,,,,,,,,,,
830789,001,2022-11-20_23h55.03.640,Info_measure_main_exp,2022.2.2,Win32,63.93861893,,,,,,,,,,,,,,,,,,masks/mask_001.jpg,,,,,,,,,,,,,,,,,,,,,,,,,,,,,,,,,,,,,,,,,,,,,,,,0,4,4,0,1,,,,,,,,,,,,,,,,,,,,,,,,,,,,,,,,,,,,,,,,,
830789,001,2022-11-20_23h55.03.640,Info_measure_main_exp,2022.2.2,Win32,63.93861893,,,,,,,,,,,,,,,,,,,,,,,,,,,,,,7,0.706,1,,,,,,,,,,,,0,131,5,5,2250,2166,absent_patch/patch0002250.jpg,absent_patch/patch0002166.jpg,,,,,,,,,,,,,,,,,,,,0.0390625,0.0703125,1,0,0,response1disk,29,0.00390625,0.002604167,1,0,0,center_square,0,28,28,60,1,,,,,,,,,,,,,,,,,,,,,,,
830789,001,2022-11-20_23h55.03.640,Info_measure_main_exp,2022.2.2,Win32,63.93861893,,,,,,,,,,,,,,,,,,masks/mask_004.jpg,,,,,,,,,,,,,,,,,,,,,,,,,,,,,,,,,,,,,,,,,,,0,0,0,3,1,,,,,,,,,,,,,,,,,,,,,,,,,,,,,,,,,,,,,,,,,,,,,,
830789,001,2022-11-20_23h55.03.640,Info_measure_main_exp,2022.2.2,Win32,63.93861893,,,,,,,,,,,,,,,,,,masks/mask_005.jpg,,,,,,,,,,,,,,,,,,,,,,,,,,,,,,,,,,,,,,,,,,,0,1,1,4,1,,,,,,,,,,,,,,,,,,,,,,,,,,,,,,,,,,,,,,,,,,,,,,
830789,001,2022-11-20_23h55.03.640,Info_measure_main_exp,2022.2.2,Win32,63.93861893,,,,,,,,,,,,,,,,,,masks/mask_001.jpg,,,,,,,,,,,,,,,,,,,,,,,,,,,,,,,,,,,,,,,,,,,0,2,2,0,1,,,,,,,,,,,,,,,,,,,,,,,,,,,,,,,,,,,,,,,,,,,,,,
830789,001,2022-11-20_23h55.03.640,Info_measure_main_exp,2022.2.2,Win32,63.93861893,,,,,,,,,,,,,,,,,,masks/mask_003.jpg,,,,,,,,,,,,,,,,,,,,,,,,,,,,,,,,,,,,,,,,,,,0,3,3,2,1,,,,,,,,,,,,,,,,,,,,,,,,,,,,,,,,,,,,,,,,,,,,,,
830789,001,2022-11-20_23h55.03.640,Info_measure_main_exp,2022.2.2,Win32,63.93861893,,,,,,,,,,,,,,,,,,masks/mask_002.jpg,,,,,,,,,,,,,,,,,,,,,,,,,,,,,,,,,,,,,,,,,,,0,4,4,1,1,,,,,,,,,,,,,,,,,,,,,,,,,,,,,,,,,,,,,,,,,,,,,,
830789,001,2022-11-20_23h55.03.640,Info_measure_main_exp,2022.2.2,Win32,63.93861893,,,,,,,,,,,,,,,,,,masks/mask_005.jpg,,,,,,,,,,,,,,,,,,,,,,,,,,,,,,,,,,,,,,,,,,,,,,,,0,0,0,4,1,,,,,,,,,,,,,,,,,,,,,,,,,,,,,,,,,,,,,,,,,
830789,001,2022-11-20_23h55.03.640,Info_measure_main_exp,2022.2.2,Win32,63.93861893,,,,,,,,,,,,,,,,,,masks/mask_001.jpg,,,,,,,,,,,,,,,,,,,,,,,,,,,,,,,,,,,,,,,,,,,,,,,,0,1,1,0,1,,,,,,,,,,,,,,,,,,,,,,,,,,,,,,,,,,,,,,,,,
830789,001,2022-11-20_23h55.03.640,Info_measure_main_exp,2022.2.2,Win32,63.93861893,,,,,,,,,,,,,,,,,,masks/mask_003.jpg,,,,,,,,,,,,,,,,,,,,,,,,,,,,,,,,,,,,,,,,,,,,,,,,0,2,2,2,1,,,,,,,,,,,,,,,,,,,,,,,,,,,,,,,,,,,,,,,,,
830789,001,2022-11-20_23h55.03.640,Info_measure_main_exp,2022.2.2,Win32,63.93861893,,,,,,,,,,,,,,,,,,masks/mask_004.jpg,,,,,,,,,,,,,,,,,,,,,,,,,,,,,,,,,,,,,,,,,,,,,,,,0,3,3,3,1,,,,,,,,,,,,,,,,,,,,,,,,,,,,,,,,,,,,,,,,,
830789,001,2022-11-20_23h55.03.640,Info_measure_main_exp,2022.2.2,Win32,63.93861893,,,,,,,,,,,,,,,,,,masks/mask_002.jpg,,,,,,,,,,,,,,,,,,,,,,,,,,,,,,,,,,,,,,,,,,,,,,,,0,4,4,1,1,,,,,,,,,,,,,,,,,,,,,,,,,,,,,,,,,,,,,,,,,
830789,001,2022-11-20_23h55.03.640,Info_measure_main_exp,2022.2.2,Win32,63.93861893,,,,,,,,,,,,,,,,,,,,,,,,,,,,,,3,3.344,1,,,,,,,,,,,,0,131,5,5,2274,2154,absent_patch/patch0002274.jpg,absent_patch/patch0002154.jpg,,,,,,,,,,,,,,,,,,,,-0.01953125,-0.055989583,1,0,0,response5disk,30,0.010416667,0,1,0,0,center_square,0,29,29,23,1,,,,,,,,,,,,,,,,,,,,,,,
830789,001,2022-11-20_23h55.03.640,Info_measure_main_exp,2022.2.2,Win32,63.93861893,,,,,,,,,,,,,,,,,,masks/mask_003.jpg,,,,,,,,,,,,,,,,,,,,,,,,,,,,,,,,,,,,,,,,,,,0,0,0,2,1,,,,,,,,,,,,,,,,,,,,,,,,,,,,,,,,,,,,,,,,,,,,,,
830789,001,2022-11-20_23h55.03.640,Info_measure_main_exp,2022.2.2,Win32,63.93861893,,,,,,,,,,,,,,,,,,masks/mask_002.jpg,,,,,,,,,,,,,,,,,,,,,,,,,,,,,,,,,,,,,,,,,,,0,1,1,1,1,,,,,,,,,,,,,,,,,,,,,,,,,,,,,,,,,,,,,,,,,,,,,,
830789,001,2022-11-20_23h55.03.640,Info_measure_main_exp,2022.2.2,Win32,63.93861893,,,,,,,,,,,,,,,,,,masks/mask_005.jpg,,,,,,,,,,,,,,,,,,,,,,,,,,,,,,,,,,,,,,,,,,,0,2,2,4,1,,,,,,,,,,,,,,,,,,,,,,,,,,,,,,,,,,,,,,,,,,,,,,
830789,001,2022-11-20_23h55.03.640,Info_measure_main_exp,2022.2.2,Win32,63.93861893,,,,,,,,,,,,,,,,,,masks/mask_001.jpg,,,,,,,,,,,,,,,,,,,,,,,,,,,,,,,,,,,,,,,,,,,0,3,3,0,1,,,,,,,,,,,,,,,,,,,,,,,,,,,,,,,,,,,,,,,,,,,,,,
830789,001,2022-11-20_23h55.03.640,Info_measure_main_exp,2022.2.2,Win32,63.93861893,,,,,,,,,,,,,,,,,,masks/mask_004.jpg,,,,,,,,,,,,,,,,,,,,,,,,,,,,,,,,,,,,,,,,,,,0,4,4,3,1,,,,,,,,,,,,,,,,,,,,,,,,,,,,,,,,,,,,,,,,,,,,,,
830789,001,2022-11-20_23h55.03.640,Info_measure_main_exp,2022.2.2,Win32,63.93861893,,,,,,,,,,,,,,,,,,masks/mask_001.jpg,,,,,,,,,,,,,,,,,,,,,,,,,,,,,,,,,,,,,,,,,,,,,,,,0,0,0,0,1,,,,,,,,,,,,,,,,,,,,,,,,,,,,,,,,,,,,,,,,,
830789,001,2022-11-20_23h55.03.640,Info_measure_main_exp,2022.2.2,Win32,63.93861893,,,,,,,,,,,,,,,,,,masks/mask_004.jpg,,,,,,,,,,,,,,,,,,,,,,,,,,,,,,,,,,,,,,,,,,,,,,,,0,1,1,3,1,,,,,,,,,,,,,,,,,,,,,,,,,,,,,,,,,,,,,,,,,
830789,001,2022-11-20_23h55.03.640,Info_measure_main_exp,2022.2.2,Win32,63.93861893,,,,,,,,,,,,,,,,,,masks/mask_002.jpg,,,,,,,,,,,,,,,,,,,,,,,,,,,,,,,,,,,,,,,,,,,,,,,,0,2,2,1,1,,,,,,,,,,,,,,,,,,,,,,,,,,,,,,,,,,,,,,,,,
830789,001,2022-11-20_23h55.03.640,Info_measure_main_exp,2022.2.2,Win32,63.93861893,,,,,,,,,,,,,,,,,,masks/mask_003.jpg,,,,,,,,,,,,,,,,,,,,,,,,,,,,,,,,,,,,,,,,,,,,,,,,0,3,3,2,1,,,,,,,,,,,,,,,,,,,,,,,,,,,,,,,,,,,,,,,,,
830789,001,2022-11-20_23h55.03.640,Info_measure_main_exp,2022.2.2,Win32,63.93861893,,,,,,,,,,,,,,,,,,masks/mask_005.jpg,,,,,,,,,,,,,,,,,,,,,,,,,,,,,,,,,,,,,,,,,,,,,,,,0,4,4,4,1,,,,,,,,,,,,,,,,,,,,,,,,,,,,,,,,,,,,,,,,,
830789,001,2022-11-20_23h55.03.640,Info_measure_main_exp,2022.2.2,Win32,63.93861893,,,,,,,,,,,,,,,,,,,,,,,,,,,,,,0,0.579,1,,,,,,,,,,,,0,131,5,5,2082,2082,absent_patch/patch0002082.jpg,absent_patch/patch0002082.jpg,,,,,,,,,,,,,,,,,,,,-0.052083333,0.091145833,1,0,0,response7disk,31,0.014322917,0.001302083,1,0,0,center_square,0,30,30,74,1,,,,,,,,,,,,,,,,,,,,,,,
830789,001,2022-11-20_23h55.03.640,Info_measure_main_exp,2022.2.2,Win32,63.93861893,,,,,,,,,,,,,,,,,,masks/mask_003.jpg,,,,,,,,,,,,,,,,,,,,,,,,,,,,,,,,,,,,,,,,,,,0,0,0,2,1,,,,,,,,,,,,,,,,,,,,,,,,,,,,,,,,,,,,,,,,,,,,,,
830789,001,2022-11-20_23h55.03.640,Info_measure_main_exp,2022.2.2,Win32,63.93861893,,,,,,,,,,,,,,,,,,masks/mask_004.jpg,,,,,,,,,,,,,,,,,,,,,,,,,,,,,,,,,,,,,,,,,,,0,1,1,3,1,,,,,,,,,,,,,,,,,,,,,,,,,,,,,,,,,,,,,,,,,,,,,,
830789,001,2022-11-20_23h55.03.640,Info_measure_main_exp,2022.2.2,Win32,63.93861893,,,,,,,,,,,,,,,,,,masks/mask_001.jpg,,,,,,,,,,,,,,,,,,,,,,,,,,,,,,,,,,,,,,,,,,,0,2,2,0,1,,,,,,,,,,,,,,,,,,,,,,,,,,,,,,,,,,,,,,,,,,,,,,
830789,001,2022-11-20_23h55.03.640,Info_measure_main_exp,2022.2.2,Win32,63.93861893,,,,,,,,,,,,,,,,,,masks/mask_005.jpg,,,,,,,,,,,,,,,,,,,,,,,,,,,,,,,,,,,,,,,,,,,0,3,3,4,1,,,,,,,,,,,,,,,,,,,,,,,,,,,,,,,,,,,,,,,,,,,,,,
830789,001,2022-11-20_23h55.03.640,Info_measure_main_exp,2022.2.2,Win32,63.93861893,,,,,,,,,,,,,,,,,,masks/mask_002.jpg,,,,,,,,,,,,,,,,,,,,,,,,,,,,,,,,,,,,,,,,,,,0,4,4,1,1,,,,,,,,,,,,,,,,,,,,,,,,,,,,,,,,,,,,,,,,,,,,,,
830789,001,2022-11-20_23h55.03.640,Info_measure_main_exp,2022.2.2,Win32,63.93861893,,,,,,,,,,,,,,,,,,masks/mask_003.jpg,,,,,,,,,,,,,,,,,,,,,,,,,,,,,,,,,,,,,,,,,,,,,,,,0,0,0,2,1,,,,,,,,,,,,,,,,,,,,,,,,,,,,,,,,,,,,,,,,,
830789,001,2022-11-20_23h55.03.640,Info_measure_main_exp,2022.2.2,Win32,63.93861893,,,,,,,,,,,,,,,,,,masks/mask_001.jpg,,,,,,,,,,,,,,,,,,,,,,,,,,,,,,,,,,,,,,,,,,,,,,,,0,1,1,0,1,,,,,,,,,,,,,,,,,,,,,,,,,,,,,,,,,,,,,,,,,
830789,001,2022-11-20_23h55.03.640,Info_measure_main_exp,2022.2.2,Win32,63.93861893,,,,,,,,,,,,,,,,,,masks/mask_002.jpg,,,,,,,,,,,,,,,,,,,,,,,,,,,,,,,,,,,,,,,,,,,,,,,,0,2,2,1,1,,,,,,,,,,,,,,,,,,,,,,,,,,,,,,,,,,,,,,,,,
830789,001,2022-11-20_23h55.03.640,Info_measure_main_exp,2022.2.2,Win32,63.93861893,,,,,,,,,,,,,,,,,,masks/mask_005.jpg,,,,,,,,,,,,,,,,,,,,,,,,,,,,,,,,,,,,,,,,,,,,,,,,0,3,3,4,1,,,,,,,,,,,,,,,,,,,,,,,,,,,,,,,,,,,,,,,,,
830789,001,2022-11-20_23h55.03.640,Info_measure_main_exp,2022.2.2,Win32,63.93861893,,,,,,,,,,,,,,,,,,masks/mask_004.jpg,,,,,,,,,,,,,,,,,,,,,,,,,,,,,,,,,,,,,,,,,,,,,,,,0,4,4,3,1,,,,,,,,,,,,,,,,,,,,,,,,,,,,,,,,,,,,,,,,,
830789,001,2022-11-20_23h55.03.640,Info_measure_main_exp,2022.2.2,Win32,63.93861893,,,,,,,,,,,,,,,,,,,,,,,,,,,,,,6,2.607,1,,,,,,,,,,,,0,131,5,5,2190,2166,absent_patch/patch0002190.jpg,absent_patch/patch0002166.jpg,,,,,,,,,,,,,,,,,,,,0.106770833,0.032552083,1,0,0,response1disk,32,0.001302083,0.006510417,1,0,0,center_square,0,31,31,50,1,,,,,,,,,,,,,,,,,,,,,,,
830789,001,2022-11-20_23h55.03.640,Info_measure_main_exp,2022.2.2,Win32,63.93861893,,,,,,,,,,,,,,,,,,masks/mask_005.jpg,,,,,,,,,,,,,,,,,,,,,,,,,,,,,,,,,,,,,,,,,,,0,0,0,4,1,,,,,,,,,,,,,,,,,,,,,,,,,,,,,,,,,,,,,,,,,,,,,,
830789,001,2022-11-20_23h55.03.640,Info_measure_main_exp,2022.2.2,Win32,63.93861893,,,,,,,,,,,,,,,,,,masks/mask_003.jpg,,,,,,,,,,,,,,,,,,,,,,,,,,,,,,,,,,,,,,,,,,,0,1,1,2,1,,,,,,,,,,,,,,,,,,,,,,,,,,,,,,,,,,,,,,,,,,,,,,
830789,001,2022-11-20_23h55.03.640,Info_measure_main_exp,2022.2.2,Win32,63.93861893,,,,,,,,,,,,,,,,,,masks/mask_004.jpg,,,,,,,,,,,,,,,,,,,,,,,,,,,,,,,,,,,,,,,,,,,0,2,2,3,1,,,,,,,,,,,,,,,,,,,,,,,,,,,,,,,,,,,,,,,,,,,,,,
830789,001,2022-11-20_23h55.03.640,Info_measure_main_exp,2022.2.2,Win32,63.93861893,,,,,,,,,,,,,,,,,,masks/mask_002.jpg,,,,,,,,,,,,,,,,,,,,,,,,,,,,,,,,,,,,,,,,,,,0,3,3,1,1,,,,,,,,,,,,,,,,,,,,,,,,,,,,,,,,,,,,,,,,,,,,,,
830789,001,2022-11-20_23h55.03.640,Info_measure_main_exp,2022.2.2,Win32,63.93861893,,,,,,,,,,,,,,,,,,masks/mask_001.jpg,,,,,,,,,,,,,,,,,,,,,,,,,,,,,,,,,,,,,,,,,,,0,4,4,0,1,,,,,,,,,,,,,,,,,,,,,,,,,,,,,,,,,,,,,,,,,,,,,,
830789,001,2022-11-20_23h55.03.640,Info_measure_main_exp,2022.2.2,Win32,63.93861893,,,,,,,,,,,,,,,,,,masks/mask_005.jpg,,,,,,,,,,,,,,,,,,,,,,,,,,,,,,,,,,,,,,,,,,,,,,,,0,0,0,4,1,,,,,,,,,,,,,,,,,,,,,,,,,,,,,,,,,,,,,,,,,
830789,001,2022-11-20_23h55.03.640,Info_measure_main_exp,2022.2.2,Win32,63.93861893,,,,,,,,,,,,,,,,,,masks/mask_003.jpg,,,,,,,,,,,,,,,,,,,,,,,,,,,,,,,,,,,,,,,,,,,,,,,,0,1,1,2,1,,,,,,,,,,,,,,,,,,,,,,,,,,,,,,,,,,,,,,,,,
830789,001,2022-11-20_23h55.03.640,Info_measure_main_exp,2022.2.2,Win32,63.93861893,,,,,,,,,,,,,,,,,,masks/mask_002.jpg,,,,,,,,,,,,,,,,,,,,,,,,,,,,,,,,,,,,,,,,,,,,,,,,0,2,2,1,1,,,,,,,,,,,,,,,,,,,,,,,,,,,,,,,,,,,,,,,,,
830789,001,2022-11-20_23h55.03.640,Info_measure_main_exp,2022.2.2,Win32,63.93861893,,,,,,,,,,,,,,,,,,masks/mask_001.jpg,,,,,,,,,,,,,,,,,,,,,,,,,,,,,,,,,,,,,,,,,,,,,,,,0,3,3,0,1,,,,,,,,,,,,,,,,,,,,,,,,,,,,,,,,,,,,,,,,,
830789,001,2022-11-20_23h55.03.640,Info_measure_main_exp,2022.2.2,Win32,63.93861893,,,,,,,,,,,,,,,,,,masks/mask_004.jpg,,,,,,,,,,,,,,,,,,,,,,,,,,,,,,,,,,,,,,,,,,,,,,,,0,4,4,3,1,,,,,,,,,,,,,,,,,,,,,,,,,,,,,,,,,,,,,,,,,
830789,001,2022-11-20_23h55.03.640,Info_measure_main_exp,2022.2.2,Win32,63.93861893,,,,,,,,,,,,,,,,,,,,,,,,,,,,,,7,2.569,1,,,,,,,,,,,,1,131,5,5,1,2142,present_patch/cong_131_5_a.jpg,absent_patch/patch0002142.jpg,,,,,,,,,,,,,,,,,,,,0.036458333,0.07421875,1,0,0,response1disk,33,-0.005208333,-0.005208333,1,0,0,center_square,0,32,32,80,1,,,,,,,,,,,,,,,,,,,,,,,
830789,001,2022-11-20_23h55.03.640,Info_measure_main_exp,2022.2.2,Win32,63.93861893,,,,,,,,,,,,,,,,,,masks/mask_002.jpg,,,,,,,,,,,,,,,,,,,,,,,,,,,,,,,,,,,,,,,,,,,0,0,0,1,1,,,,,,,,,,,,,,,,,,,,,,,,,,,,,,,,,,,,,,,,,,,,,,
830789,001,2022-11-20_23h55.03.640,Info_measure_main_exp,2022.2.2,Win32,63.93861893,,,,,,,,,,,,,,,,,,masks/mask_001.jpg,,,,,,,,,,,,,,,,,,,,,,,,,,,,,,,,,,,,,,,,,,,0,1,1,0,1,,,,,,,,,,,,,,,,,,,,,,,,,,,,,,,,,,,,,,,,,,,,,,
830789,001,2022-11-20_23h55.03.640,Info_measure_main_exp,2022.2.2,Win32,63.93861893,,,,,,,,,,,,,,,,,,masks/mask_003.jpg,,,,,,,,,,,,,,,,,,,,,,,,,,,,,,,,,,,,,,,,,,,0,2,2,2,1,,,,,,,,,,,,,,,,,,,,,,,,,,,,,,,,,,,,,,,,,,,,,,
830789,001,2022-11-20_23h55.03.640,Info_measure_main_exp,2022.2.2,Win32,63.93861893,,,,,,,,,,,,,,,,,,masks/mask_004.jpg,,,,,,,,,,,,,,,,,,,,,,,,,,,,,,,,,,,,,,,,,,,0,3,3,3,1,,,,,,,,,,,,,,,,,,,,,,,,,,,,,,,,,,,,,,,,,,,,,,
830789,001,2022-11-20_23h55.03.640,Info_measure_main_exp,2022.2.2,Win32,63.93861893,,,,,,,,,,,,,,,,,,masks/mask_005.jpg,,,,,,,,,,,,,,,,,,,,,,,,,,,,,,,,,,,,,,,,,,,0,4,4,4,1,,,,,,,,,,,,,,,,,,,,,,,,,,,,,,,,,,,,,,,,,,,,,,
830789,001,2022-11-20_23h55.03.640,Info_measure_main_exp,2022.2.2,Win32,63.93861893,,,,,,,,,,,,,,,,,,masks/mask_005.jpg,,,,,,,,,,,,,,,,,,,,,,,,,,,,,,,,,,,,,,,,,,,,,,,,0,0,0,4,1,,,,,,,,,,,,,,,,,,,,,,,,,,,,,,,,,,,,,,,,,
830789,001,2022-11-20_23h55.03.640,Info_measure_main_exp,2022.2.2,Win32,63.93861893,,,,,,,,,,,,,,,,,,masks/mask_003.jpg,,,,,,,,,,,,,,,,,,,,,,,,,,,,,,,,,,,,,,,,,,,,,,,,0,1,1,2,1,,,,,,,,,,,,,,,,,,,,,,,,,,,,,,,,,,,,,,,,,
830789,001,2022-11-20_23h55.03.640,Info_measure_main_exp,2022.2.2,Win32,63.93861893,,,,,,,,,,,,,,,,,,masks/mask_002.jpg,,,,,,,,,,,,,,,,,,,,,,,,,,,,,,,,,,,,,,,,,,,,,,,,0,2,2,1,1,,,,,,,,,,,,,,,,,,,,,,,,,,,,,,,,,,,,,,,,,
830789,001,2022-11-20_23h55.03.640,Info_measure_main_exp,2022.2.2,Win32,63.93861893,,,,,,,,,,,,,,,,,,masks/mask_001.jpg,,,,,,,,,,,,,,,,,,,,,,,,,,,,,,,,,,,,,,,,,,,,,,,,0,3,3,0,1,,,,,,,,,,,,,,,,,,,,,,,,,,,,,,,,,,,,,,,,,
830789,001,2022-11-20_23h55.03.640,Info_measure_main_exp,2022.2.2,Win32,63.93861893,,,,,,,,,,,,,,,,,,masks/mask_004.jpg,,,,,,,,,,,,,,,,,,,,,,,,,,,,,,,,,,,,,,,,,,,,,,,,0,4,4,3,1,,,,,,,,,,,,,,,,,,,,,,,,,,,,,,,,,,,,,,,,,
830789,001,2022-11-20_23h55.03.640,Info_measure_main_exp,2022.2.2,Win32,63.93861893,,,,,,,,,,,,,,,,,,,,,,,,,,,,,,6,1.234,1,,,,,,,,,,,,0,131,5,5,2238,2166,absent_patch/patch0002238.jpg,absent_patch/patch0002166.jpg,,,,,,,,,,,,,,,,,,,,0.04296875,0.032552083,1,0,0,response1disk,34,0.010416667,-0.00390625,1,0,0,center_square,0,33,33,118,1,,,,,,,,,,,,,,,,,,,,,,,
830789,001,2022-11-20_23h55.03.640,Info_measure_main_exp,2022.2.2,Win32,63.93861893,,,,,,,,,,,,,,,,,,masks/mask_001.jpg,,,,,,,,,,,,,,,,,,,,,,,,,,,,,,,,,,,,,,,,,,,0,0,0,0,1,,,,,,,,,,,,,,,,,,,,,,,,,,,,,,,,,,,,,,,,,,,,,,
830789,001,2022-11-20_23h55.03.640,Info_measure_main_exp,2022.2.2,Win32,63.93861893,,,,,,,,,,,,,,,,,,masks/mask_002.jpg,,,,,,,,,,,,,,,,,,,,,,,,,,,,,,,,,,,,,,,,,,,0,1,1,1,1,,,,,,,,,,,,,,,,,,,,,,,,,,,,,,,,,,,,,,,,,,,,,,
830789,001,2022-11-20_23h55.03.640,Info_measure_main_exp,2022.2.2,Win32,63.93861893,,,,,,,,,,,,,,,,,,masks/mask_005.jpg,,,,,,,,,,,,,,,,,,,,,,,,,,,,,,,,,,,,,,,,,,,0,2,2,4,1,,,,,,,,,,,,,,,,,,,,,,,,,,,,,,,,,,,,,,,,,,,,,,
830789,001,2022-11-20_23h55.03.640,Info_measure_main_exp,2022.2.2,Win32,63.93861893,,,,,,,,,,,,,,,,,,masks/mask_004.jpg,,,,,,,,,,,,,,,,,,,,,,,,,,,,,,,,,,,,,,,,,,,0,3,3,3,1,,,,,,,,,,,,,,,,,,,,,,,,,,,,,,,,,,,,,,,,,,,,,,
830789,001,2022-11-20_23h55.03.640,Info_measure_main_exp,2022.2.2,Win32,63.93861893,,,,,,,,,,,,,,,,,,masks/mask_003.jpg,,,,,,,,,,,,,,,,,,,,,,,,,,,,,,,,,,,,,,,,,,,0,4,4,2,1,,,,,,,,,,,,,,,,,,,,,,,,,,,,,,,,,,,,,,,,,,,,,,
830789,001,2022-11-20_23h55.03.640,Info_measure_main_exp,2022.2.2,Win32,63.93861893,,,,,,,,,,,,,,,,,,masks/mask_001.jpg,,,,,,,,,,,,,,,,,,,,,,,,,,,,,,,,,,,,,,,,,,,,,,,,0,0,0,0,1,,,,,,,,,,,,,,,,,,,,,,,,,,,,,,,,,,,,,,,,,
830789,001,2022-11-20_23h55.03.640,Info_measure_main_exp,2022.2.2,Win32,63.93861893,,,,,,,,,,,,,,,,,,masks/mask_002.jpg,,,,,,,,,,,,,,,,,,,,,,,,,,,,,,,,,,,,,,,,,,,,,,,,0,1,1,1,1,,,,,,,,,,,,,,,,,,,,,,,,,,,,,,,,,,,,,,,,,
830789,001,2022-11-20_23h55.03.640,Info_measure_main_exp,2022.2.2,Win32,63.93861893,,,,,,,,,,,,,,,,,,masks/mask_005.jpg,,,,,,,,,,,,,,,,,,,,,,,,,,,,,,,,,,,,,,,,,,,,,,,,0,2,2,4,1,,,,,,,,,,,,,,,,,,,,,,,,,,,,,,,,,,,,,,,,,
830789,001,2022-11-20_23h55.03.640,Info_measure_main_exp,2022.2.2,Win32,63.93861893,,,,,,,,,,,,,,,,,,masks/mask_003.jpg,,,,,,,,,,,,,,,,,,,,,,,,,,,,,,,,,,,,,,,,,,,,,,,,0,3,3,2,1,,,,,,,,,,,,,,,,,,,,,,,,,,,,,,,,,,,,,,,,,
