participant,session,date,expName,psychopyVersion,OS,frameRate,space_press_continue.keys,space_press_continue.rt,space_press_continue_2.keys,space_press_continue_2.rt,space_press_continue_3.keys,space_press_continue_3.rt,space_press_continue_4.keys,space_press_continue_4.rt,space_press_continue_5.keys,space_press_continue_5.rt,space_press_continue_6.keys,space_press_continue_6.rt,prac_mask_loop_1.thisRepN,prac_mask_loop_1.thisTrialN,prac_mask_loop_1.thisN,prac_mask_loop_1.thisIndex,prac_mask_loop_1.ran,mask_name,prac_mask_loop_2.thisRepN,prac_mask_loop_2.thisTrialN,prac_mask_loop_2.thisN,prac_mask_loop_2.thisIndex,prac_mask_loop_2.ran,mouse_2.x,mouse_2.y,mouse_2.leftButton,mouse_2.midButton,mouse_2.rightButton,mouse_2.clicked_name,similarity,response_time,Pass,mouse_12.x,mouse_12.y,mouse_12.leftButton,mouse_12.midButton,mouse_12.rightButton,mouse_12.clicked_name,prac_loop.thisRepN,prac_loop.thisTrialN,prac_loop.thisN,prac_loop.thisIndex,prac_loop.ran,Pair_type,Image_num,Patch_1_loc,Patch_2_loc,Patch_1_info,Patch_2_info,Patch_1_name,Patch_2_name,mouse_1.x,mouse_1.y,mouse_1.leftButton,mouse_1.midButton,mouse_1.rightButton,mouse_1.time,mouse_1.clicked_name,space_press_continue_7.keys,space_press_continue_7.rt,mask_loop.thisRepN,mask_loop.thisTrialN,mask_loop.thisN,mask_loop.thisIndex,mask_loop.ran,mask_loop_2.thisRepN,mask_loop_2.thisTrialN,mask_loop_2.thisN,mask_loop_2.thisIndex,mask_loop_2.ran,mouse.x,mouse.y,mouse.leftButton,mouse.midButton,mouse.rightButton,mouse.clicked_name,trialNumber,mouse_11.x,mouse_11.y,mouse_11.leftButton,mouse_11.midButton,mouse_11.rightButton,mouse_11.clicked_name,first_pass_loop.thisRepN,first_pass_loop.thisTrialN,first_pass_loop.thisN,first_pass_loop.thisIndex,first_pass_loop.ran,mask_loop_3.thisRepN,mask_loop_3.thisTrialN,mask_loop_3.thisN,mask_loop_3.thisIndex,mask_loop_3.ran,mask_loop_4.thisRepN,mask_loop_4.thisTrialN,mask_loop_4.thisN,mask_loop_4.thisIndex,mask_loop_4.ran,mouse_3.x,mouse_3.y,mouse_3.leftButton,mouse_3.midButton,mouse_3.rightButton,mouse_3.clicked_name,double_pass_loop.thisRepN,double_pass_loop.thisTrialN,double_pass_loop.thisN,double_pass_loop.thisIndex,double_pass_loop.ran,space_exit.keys,space_exit.rt
834318,001,2022-11-21_24h50.42.900,Info_measure_main_exp,2022.2.2,Win32,59.93766483,,,,,,,,,,,,,,,,,,,,,,,,,,,,,,,,,,,,,,,,,,,,,,,,,,,,,,,,,,,,,,,,,,,,,,,,,,,,,,,,,,,,,,,,,,,,,,,,,,,,,,,,,,,,,,,
834318,001,2022-11-21_24h50.42.900,Info_measure_main_exp,2022.2.2,Win32,59.93766483,,,,,,,,,,,,,,,,,,,,,,,,,,,,,,,,,,,,,,,,,,,,,,,,,,,,,,,,,,,,,,,,,,,,,,,,,,,,,,,,,,,,,,,,,,,,,,,,,,,,,,,,,,,,,,,
834318,001,2022-11-21_24h50.42.900,Info_measure_main_exp,2022.2.2,Win32,59.93766483,space,7.1794,,,,,,,,,,,,,,,,,,,,,,,,,,,,,,,,,,,,,,,,,,,,,,,,,,,,,,,,,,,,,,,,,,,,,,,,,,,,,,,,,,,,,,,,,,,,,,,,,,,,,,,,,,,,,
834318,001,2022-11-21_24h50.42.900,Info_measure_main_exp,2022.2.2,Win32,59.93766483,,,space,21.1645,,,,,,,,,,,,,,,,,,,,,,,,,,,,,,,,,,,,,,,,,,,,,,,,,,,,,,,,,,,,,,,,,,,,,,,,,,,,,,,,,,,,,,,,,,,,,,,,,,,,,,,,,,,
834318,001,2022-11-21_24h50.42.900,Info_measure_main_exp,2022.2.2,Win32,59.93766483,,,,,space,9.7493,,,,,,,,,,,,,,,,,,,,,,,,,,,,,,,,,,,,,,,,,,,,,,,,,,,,,,,,,,,,,,,,,,,,,,,,,,,,,,,,,,,,,,,,,,,,,,,,,,,,,,,,,
834318,001,2022-11-21_24h50.42.900,Info_measure_main_exp,2022.2.2,Win32,59.93766483,,,,,,,space,17.3797,,,,,,,,,,,,,,,,,,,,,,,,,,,,,,,,,,,,,,,,,,,,,,,,,,,,,,,,,,,,,,,,,,,,,,,,,,,,,,,,,,,,,,,,,,,,,,,,,,,,,,,
834318,001,2022-11-21_24h50.42.900,Info_measure_main_exp,2022.2.2,Win32,59.93766483,,,,,,,,,space,8.687,,,,,,,,,,,,,,,,,,,,,,,,,,,,,,,,,,,,,,,,,,,,,,,,,,,,,,,,,,,,,,,,,,,,,,,,,,,,,,,,,,,,,,,,,,,,,,,,,,,,,
834318,001,2022-11-21_24h50.42.900,Info_measure_main_exp,2022.2.2,Win32,59.93766483,,,,,,,,,,,space,2.6564,,,,,,,,,,,,,,,,,,,,,,,,,,,,,,,,,,,,,,,,,,,,,,,,,,,,,,,,,,,,,,,,,,,,,,,,,,,,,,,,,,,,,,,,,,,,,,,,,,,
834318,001,2022-11-21_24h50.42.900,Info_measure_main_exp,2022.2.2,Win32,59.93766483,,,,,,,,,,,,,0,0,0,0,1,masks/mask_001.jpg,,,,,,,,,,,,,,,,,,,,,,,,,,,,,,,,,,,,,,,,,,,,,,,,,,,,,,,,,,,,,,,,,,,,,,,,,,,,,,,,,,,,,,,,,,,,,
834318,001,2022-11-21_24h50.42.900,Info_measure_main_exp,2022.2.2,Win32,59.93766483,,,,,,,,,,,,,0,1,1,2,1,masks/mask_003.jpg,,,,,,,,,,,,,,,,,,,,,,,,,,,,,,,,,,,,,,,,,,,,,,,,,,,,,,,,,,,,,,,,,,,,,,,,,,,,,,,,,,,,,,,,,,,,,
834318,001,2022-11-21_24h50.42.900,Info_measure_main_exp,2022.2.2,Win32,59.93766483,,,,,,,,,,,,,0,2,2,3,1,masks/mask_004.jpg,,,,,,,,,,,,,,,,,,,,,,,,,,,,,,,,,,,,,,,,,,,,,,,,,,,,,,,,,,,,,,,,,,,,,,,,,,,,,,,,,,,,,,,,,,,,,
834318,001,2022-11-21_24h50.42.900,Info_measure_main_exp,2022.2.2,Win32,59.93766483,,,,,,,,,,,,,0,3,3,1,1,masks/mask_002.jpg,,,,,,,,,,,,,,,,,,,,,,,,,,,,,,,,,,,,,,,,,,,,,,,,,,,,,,,,,,,,,,,,,,,,,,,,,,,,,,,,,,,,,,,,,,,,,
834318,001,2022-11-21_24h50.42.900,Info_measure_main_exp,2022.2.2,Win32,59.93766483,,,,,,,,,,,,,0,4,4,4,1,masks/mask_005.jpg,,,,,,,,,,,,,,,,,,,,,,,,,,,,,,,,,,,,,,,,,,,,,,,,,,,,,,,,,,,,,,,,,,,,,,,,,,,,,,,,,,,,,,,,,,,,,
834318,001,2022-11-21_24h50.42.900,Info_measure_main_exp,2022.2.2,Win32,59.93766483,,,,,,,,,,,,,,,,,,masks/mask_004.jpg,0,0,0,3,1,,,,,,,,,,,,,,,,,,,,,,,,,,,,,,,,,,,,,,,,,,,,,,,,,,,,,,,,,,,,,,,,,,,,,,,,,,,,,,,,,,,,,,,,
834318,001,2022-11-21_24h50.42.900,Info_measure_main_exp,2022.2.2,Win32,59.93766483,,,,,,,,,,,,,,,,,,masks/mask_002.jpg,0,1,1,1,1,,,,,,,,,,,,,,,,,,,,,,,,,,,,,,,,,,,,,,,,,,,,,,,,,,,,,,,,,,,,,,,,,,,,,,,,,,,,,,,,,,,,,,,,
834318,001,2022-11-21_24h50.42.900,Info_measure_main_exp,2022.2.2,Win32,59.93766483,,,,,,,,,,,,,,,,,,masks/mask_005.jpg,0,2,2,4,1,,,,,,,,,,,,,,,,,,,,,,,,,,,,,,,,,,,,,,,,,,,,,,,,,,,,,,,,,,,,,,,,,,,,,,,,,,,,,,,,,,,,,,,,
834318,001,2022-11-21_24h50.42.900,Info_measure_main_exp,2022.2.2,Win32,59.93766483,,,,,,,,,,,,,,,,,,masks/mask_003.jpg,0,3,3,2,1,,,,,,,,,,,,,,,,,,,,,,,,,,,,,,,,,,,,,,,,,,,,,,,,,,,,,,,,,,,,,,,,,,,,,,,,,,,,,,,,,,,,,,,,
834318,001,2022-11-21_24h50.42.900,Info_measure_main_exp,2022.2.2,Win32,59.93766483,,,,,,,,,,,,,,,,,,masks/mask_001.jpg,0,4,4,0,1,,,,,,,,,,,,,,,,,,,,,,,,,,,,,,,,,,,,,,,,,,,,,,,,,,,,,,,,,,,,,,,,,,,,,,,,,,,,,,,,,,,,,,,,
834318,001,2022-11-21_24h50.42.900,Info_measure_main_exp,2022.2.2,Win32,59.93766483,,,,,,,,,,,,,,,,,,,,,,,,0.161111125,-0.051851873,1,0,0,response3disk,5,73.0177,1,0,-0.000925947,1,0,0,center_square,0,0,0,0,1,0,131,5,5,2370,2406,prac_patch/patch0002370.jpg,prac_patch/patch0002406.jpg,,,,,,,,,,,,,,,,,,,,,,,,,,,,,,,,,,,,,,,,,,,,,,,,,,,,,,,,,,,,
834318,001,2022-11-21_24h50.42.900,Info_measure_main_exp,2022.2.2,Win32,59.93766483,,,,,,,,,,,,,0,0,0,1,1,masks/mask_002.jpg,,,,,,,,,,,,,,,,,,,,,,,,,,,,,,,,,,,,,,,,,,,,,,,,,,,,,,,,,,,,,,,,,,,,,,,,,,,,,,,,,,,,,,,,,,,,,
834318,001,2022-11-21_24h50.42.900,Info_measure_main_exp,2022.2.2,Win32,59.93766483,,,,,,,,,,,,,0,1,1,2,1,masks/mask_003.jpg,,,,,,,,,,,,,,,,,,,,,,,,,,,,,,,,,,,,,,,,,,,,,,,,,,,,,,,,,,,,,,,,,,,,,,,,,,,,,,,,,,,,,,,,,,,,,
834318,001,2022-11-21_24h50.42.900,Info_measure_main_exp,2022.2.2,Win32,59.93766483,,,,,,,,,,,,,0,2,2,4,1,masks/mask_005.jpg,,,,,,,,,,,,,,,,,,,,,,,,,,,,,,,,,,,,,,,,,,,,,,,,,,,,,,,,,,,,,,,,,,,,,,,,,,,,,,,,,,,,,,,,,,,,,
834318,001,2022-11-21_24h50.42.900,Info_measure_main_exp,2022.2.2,Win32,59.93766483,,,,,,,,,,,,,0,3,3,0,1,masks/mask_001.jpg,,,,,,,,,,,,,,,,,,,,,,,,,,,,,,,,,,,,,,,,,,,,,,,,,,,,,,,,,,,,,,,,,,,,,,,,,,,,,,,,,,,,,,,,,,,,,
834318,001,2022-11-21_24h50.42.900,Info_measure_main_exp,2022.2.2,Win32,59.93766483,,,,,,,,,,,,,0,4,4,3,1,masks/mask_004.jpg,,,,,,,,,,,,,,,,,,,,,,,,,,,,,,,,,,,,,,,,,,,,,,,,,,,,,,,,,,,,,,,,,,,,,,,,,,,,,,,,,,,,,,,,,,,,,
834318,001,2022-11-21_24h50.42.900,Info_measure_main_exp,2022.2.2,Win32,59.93766483,,,,,,,,,,,,,,,,,,masks/mask_002.jpg,0,0,0,1,1,,,,,,,,,,,,,,,,,,,,,,,,,,,,,,,,,,,,,,,,,,,,,,,,,,,,,,,,,,,,,,,,,,,,,,,,,,,,,,,,,,,,,,,,
834318,001,2022-11-21_24h50.42.900,Info_measure_main_exp,2022.2.2,Win32,59.93766483,,,,,,,,,,,,,,,,,,masks/mask_004.jpg,0,1,1,3,1,,,,,,,,,,,,,,,,,,,,,,,,,,,,,,,,,,,,,,,,,,,,,,,,,,,,,,,,,,,,,,,,,,,,,,,,,,,,,,,,,,,,,,,,
834318,001,2022-11-21_24h50.42.900,Info_measure_main_exp,2022.2.2,Win32,59.93766483,,,,,,,,,,,,,,,,,,masks/mask_005.jpg,0,2,2,4,1,,,,,,,,,,,,,,,,,,,,,,,,,,,,,,,,,,,,,,,,,,,,,,,,,,,,,,,,,,,,,,,,,,,,,,,,,,,,,,,,,,,,,,,,
834318,001,2022-11-21_24h50.42.900,Info_measure_main_exp,2022.2.2,Win32,59.93766483,,,,,,,,,,,,,,,,,,masks/mask_003.jpg,0,3,3,2,1,,,,,,,,,,,,,,,,,,,,,,,,,,,,,,,,,,,,,,,,,,,,,,,,,,,,,,,,,,,,,,,,,,,,,,,,,,,,,,,,,,,,,,,,
834318,001,2022-11-21_24h50.42.900,Info_measure_main_exp,2022.2.2,Win32,59.93766483,,,,,,,,,,,,,,,,,,masks/mask_001.jpg,0,4,4,0,1,,,,,,,,,,,,,,,,,,,,,,,,,,,,,,,,,,,,,,,,,,,,,,,,,,,,,,,,,,,,,,,,,,,,,,,,,,,,,,,,,,,,,,,,
834318,001,2022-11-21_24h50.42.900,Info_measure_main_exp,2022.2.2,Win32,59.93766483,,,,,,,,,,,,,,,,,,,,,,,,-0.130555541,0.052777785,1,0,0,response7disk,1,86.5901,1,-0.007407365,-0.00462963,1,0,0,center_square,0,1,1,2,1,0,131,5,5,2526,2526,prac_patch/patch0002526.jpg,prac_patch/patch0002526.jpg,,,,,,,,,,,,,,,,,,,,,,,,,,,,,,,,,,,,,,,,,,,,,,,,,,,,,,,,,,,,
834318,001,2022-11-21_24h50.42.900,Info_measure_main_exp,2022.2.2,Win32,59.93766483,,,,,,,,,,,,,0,0,0,2,1,masks/mask_003.jpg,,,,,,,,,,,,,,,,,,,,,,,,,,,,,,,,,,,,,,,,,,,,,,,,,,,,,,,,,,,,,,,,,,,,,,,,,,,,,,,,,,,,,,,,,,,,,
834318,001,2022-11-21_24h50.42.900,Info_measure_main_exp,2022.2.2,Win32,59.93766483,,,,,,,,,,,,,0,1,1,0,1,masks/mask_001.jpg,,,,,,,,,,,,,,,,,,,,,,,,,,,,,,,,,,,,,,,,,,,,,,,,,,,,,,,,,,,,,,,,,,,,,,,,,,,,,,,,,,,,,,,,,,,,,
834318,001,2022-11-21_24h50.42.900,Info_measure_main_exp,2022.2.2,Win32,59.93766483,,,,,,,,,,,,,0,2,2,3,1,masks/mask_004.jpg,,,,,,,,,,,,,,,,,,,,,,,,,,,,,,,,,,,,,,,,,,,,,,,,,,,,,,,,,,,,,,,,,,,,,,,,,,,,,,,,,,,,,,,,,,,,,
834318,001,2022-11-21_24h50.42.900,Info_measure_main_exp,2022.2.2,Win32,59.93766483,,,,,,,,,,,,,0,3,3,1,1,masks/mask_002.jpg,,,,,,,,,,,,,,,,,,,,,,,,,,,,,,,,,,,,,,,,,,,,,,,,,,,,,,,,,,,,,,,,,,,,,,,,,,,,,,,,,,,,,,,,,,,,,
834318,001,2022-11-21_24h50.42.900,Info_measure_main_exp,2022.2.2,Win32,59.93766483,,,,,,,,,,,,,0,4,4,4,1,masks/mask_005.jpg,,,,,,,,,,,,,,,,,,,,,,,,,,,,,,,,,,,,,,,,,,,,,,,,,,,,,,,,,,,,,,,,,,,,,,,,,,,,,,,,,,,,,,,,,,,,,
834318,001,2022-11-21_24h50.42.900,Info_measure_main_exp,2022.2.2,Win32,59.93766483,,,,,,,,,,,,,,,,,,masks/mask_003.jpg,0,0,0,2,1,,,,,,,,,,,,,,,,,,,,,,,,,,,,,,,,,,,,,,,,,,,,,,,,,,,,,,,,,,,,,,,,,,,,,,,,,,,,,,,,,,,,,,,,
834318,001,2022-11-21_24h50.42.900,Info_measure_main_exp,2022.2.2,Win32,59.93766483,,,,,,,,,,,,,,,,,,masks/mask_002.jpg,0,1,1,1,1,,,,,,,,,,,,,,,,,,,,,,,,,,,,,,,,,,,,,,,,,,,,,,,,,,,,,,,,,,,,,,,,,,,,,,,,,,,,,,,,,,,,,,,,
834318,001,2022-11-21_24h50.42.900,Info_measure_main_exp,2022.2.2,Win32,59.93766483,,,,,,,,,,,,,,,,,,masks/mask_004.jpg,0,2,2,3,1,,,,,,,,,,,,,,,,,,,,,,,,,,,,,,,,,,,,,,,,,,,,,,,,,,,,,,,,,,,,,,,,,,,,,,,,,,,,,,,,,,,,,,,,
834318,001,2022-11-21_24h50.42.900,Info_measure_main_exp,2022.2.2,Win32,59.93766483,,,,,,,,,,,,,,,,,,masks/mask_001.jpg,0,3,3,0,1,,,,,,,,,,,,,,,,,,,,,,,,,,,,,,,,,,,,,,,,,,,,,,,,,,,,,,,,,,,,,,,,,,,,,,,,,,,,,,,,,,,,,,,,
834318,001,2022-11-21_24h50.42.900,Info_measure_main_exp,2022.2.2,Win32,59.93766483,,,,,,,,,,,,,,,,,,masks/mask_005.jpg,0,4,4,4,1,,,,,,,,,,,,,,,,,,,,,,,,,,,,,,,,,,,,,,,,,,,,,,,,,,,,,,,,,,,,,,,,,,,,,,,,,,,,,,,,,,,,,,,,
834318,001,2022-11-21_24h50.42.900,Info_measure_main_exp,2022.2.2,Win32,59.93766483,,,,,,,,,,,,,,,,,,,,,,,,-0.017592607,-0.125,1,0,0,response5disk,3,95.3428,1,0.003703718,0.000925912,1,0,0,center_square,0,2,2,1,1,0,131,5,5,2514,2490,prac_patch/patch0002514.jpg,prac_patch/patch0002490.jpg,,,,,,,,,,,,,,,,,,,,,,,,,,,,,,,,,,,,,,,,,,,,,,,,,,,,,,,,,,,,
834318,001,2022-11-21_24h50.42.900,Info_measure_main_exp,2022.2.2,Win32,59.93766483,,,,,,,,,,,,,,,,,,,,,,,,,,,,,,,,,,,,,,,,,,,,,,,,,,,,,,,,,,,space,4.035,,,,,,,,,,,,,,,,,,,,,,,,,,,,,,,,,,,,,,,,,,,,,,,,,,,
834318,001,2022-11-21_24h50.42.900,Info_measure_main_exp,2022.2.2,Win32,59.93766483,,,,,,,,,,,,,,,,,,masks/mask_003.jpg,,,,,,,,,,,,,,,,,,,,,,,,,,,,,,,,,,,,,,,,,,,0,0,0,2,1,,,,,,,,,,,,,,,,,,,,,,,,,,,,,,,,,,,,,,,,,,,,,,
834318,001,2022-11-21_24h50.42.900,Info_measure_main_exp,2022.2.2,Win32,59.93766483,,,,,,,,,,,,,,,,,,masks/mask_001.jpg,,,,,,,,,,,,,,,,,,,,,,,,,,,,,,,,,,,,,,,,,,,0,1,1,0,1,,,,,,,,,,,,,,,,,,,,,,,,,,,,,,,,,,,,,,,,,,,,,,
834318,001,2022-11-21_24h50.42.900,Info_measure_main_exp,2022.2.2,Win32,59.93766483,,,,,,,,,,,,,,,,,,masks/mask_004.jpg,,,,,,,,,,,,,,,,,,,,,,,,,,,,,,,,,,,,,,,,,,,0,2,2,3,1,,,,,,,,,,,,,,,,,,,,,,,,,,,,,,,,,,,,,,,,,,,,,,
834318,001,2022-11-21_24h50.42.900,Info_measure_main_exp,2022.2.2,Win32,59.93766483,,,,,,,,,,,,,,,,,,masks/mask_002.jpg,,,,,,,,,,,,,,,,,,,,,,,,,,,,,,,,,,,,,,,,,,,0,3,3,1,1,,,,,,,,,,,,,,,,,,,,,,,,,,,,,,,,,,,,,,,,,,,,,,
834318,001,2022-11-21_24h50.42.900,Info_measure_main_exp,2022.2.2,Win32,59.93766483,,,,,,,,,,,,,,,,,,masks/mask_005.jpg,,,,,,,,,,,,,,,,,,,,,,,,,,,,,,,,,,,,,,,,,,,0,4,4,4,1,,,,,,,,,,,,,,,,,,,,,,,,,,,,,,,,,,,,,,,,,,,,,,
834318,001,2022-11-21_24h50.42.900,Info_measure_main_exp,2022.2.2,Win32,59.93766483,,,,,,,,,,,,,,,,,,masks/mask_001.jpg,,,,,,,,,,,,,,,,,,,,,,,,,,,,,,,,,,,,,,,,,,,,,,,,0,0,0,0,1,,,,,,,,,,,,,,,,,,,,,,,,,,,,,,,,,,,,,,,,,
834318,001,2022-11-21_24h50.42.900,Info_measure_main_exp,2022.2.2,Win32,59.93766483,,,,,,,,,,,,,,,,,,masks/mask_004.jpg,,,,,,,,,,,,,,,,,,,,,,,,,,,,,,,,,,,,,,,,,,,,,,,,0,1,1,3,1,,,,,,,,,,,,,,,,,,,,,,,,,,,,,,,,,,,,,,,,,
834318,001,2022-11-21_24h50.42.900,Info_measure_main_exp,2022.2.2,Win32,59.93766483,,,,,,,,,,,,,,,,,,masks/mask_002.jpg,,,,,,,,,,,,,,,,,,,,,,,,,,,,,,,,,,,,,,,,,,,,,,,,0,2,2,1,1,,,,,,,,,,,,,,,,,,,,,,,,,,,,,,,,,,,,,,,,,
834318,001,2022-11-21_24h50.42.900,Info_measure_main_exp,2022.2.2,Win32,59.93766483,,,,,,,,,,,,,,,,,,masks/mask_005.jpg,,,,,,,,,,,,,,,,,,,,,,,,,,,,,,,,,,,,,,,,,,,,,,,,0,3,3,4,1,,,,,,,,,,,,,,,,,,,,,,,,,,,,,,,,,,,,,,,,,
834318,001,2022-11-21_24h50.42.900,Info_measure_main_exp,2022.2.2,Win32,59.93766483,,,,,,,,,,,,,,,,,,masks/mask_003.jpg,,,,,,,,,,,,,,,,,,,,,,,,,,,,,,,,,,,,,,,,,,,,,,,,0,4,4,2,1,,,,,,,,,,,,,,,,,,,,,,,,,,,,,,,,,,,,,,,,,
834318,001,2022-11-21_24h50.42.900,Info_measure_main_exp,2022.2.2,Win32,59.93766483,,,,,,,,,,,,,,,,,,,,,,,,,,,,,,0,1.4514,1,,,,,,,,,,,,1,131,5,5,1,1,present_patch/cong_131_5_a.jpg,present_patch/cong_131_5_a.jpg,,,,,,,,,,,,,,,,,,,,-0.063888903,0.16574072,1,0,0,response7disk,1,0,-0.001851859,1,0,0,center_square,0,0,0,30,1,,,,,,,,,,,,,,,,,,,,,,,
834318,001,2022-11-21_24h50.42.900,Info_measure_main_exp,2022.2.2,Win32,59.93766483,,,,,,,,,,,,,,,,,,masks/mask_003.jpg,,,,,,,,,,,,,,,,,,,,,,,,,,,,,,,,,,,,,,,,,,,0,0,0,2,1,,,,,,,,,,,,,,,,,,,,,,,,,,,,,,,,,,,,,,,,,,,,,,
834318,001,2022-11-21_24h50.42.900,Info_measure_main_exp,2022.2.2,Win32,59.93766483,,,,,,,,,,,,,,,,,,masks/mask_002.jpg,,,,,,,,,,,,,,,,,,,,,,,,,,,,,,,,,,,,,,,,,,,0,1,1,1,1,,,,,,,,,,,,,,,,,,,,,,,,,,,,,,,,,,,,,,,,,,,,,,
834318,001,2022-11-21_24h50.42.900,Info_measure_main_exp,2022.2.2,Win32,59.93766483,,,,,,,,,,,,,,,,,,masks/mask_001.jpg,,,,,,,,,,,,,,,,,,,,,,,,,,,,,,,,,,,,,,,,,,,0,2,2,0,1,,,,,,,,,,,,,,,,,,,,,,,,,,,,,,,,,,,,,,,,,,,,,,
834318,001,2022-11-21_24h50.42.900,Info_measure_main_exp,2022.2.2,Win32,59.93766483,,,,,,,,,,,,,,,,,,masks/mask_005.jpg,,,,,,,,,,,,,,,,,,,,,,,,,,,,,,,,,,,,,,,,,,,0,3,3,4,1,,,,,,,,,,,,,,,,,,,,,,,,,,,,,,,,,,,,,,,,,,,,,,
834318,001,2022-11-21_24h50.42.900,Info_measure_main_exp,2022.2.2,Win32,59.93766483,,,,,,,,,,,,,,,,,,masks/mask_004.jpg,,,,,,,,,,,,,,,,,,,,,,,,,,,,,,,,,,,,,,,,,,,0,4,4,3,1,,,,,,,,,,,,,,,,,,,,,,,,,,,,,,,,,,,,,,,,,,,,,,
834318,001,2022-11-21_24h50.42.900,Info_measure_main_exp,2022.2.2,Win32,59.93766483,,,,,,,,,,,,,,,,,,masks/mask_002.jpg,,,,,,,,,,,,,,,,,,,,,,,,,,,,,,,,,,,,,,,,,,,,,,,,0,0,0,1,1,,,,,,,,,,,,,,,,,,,,,,,,,,,,,,,,,,,,,,,,,
834318,001,2022-11-21_24h50.42.900,Info_measure_main_exp,2022.2.2,Win32,59.93766483,,,,,,,,,,,,,,,,,,masks/mask_005.jpg,,,,,,,,,,,,,,,,,,,,,,,,,,,,,,,,,,,,,,,,,,,,,,,,0,1,1,4,1,,,,,,,,,,,,,,,,,,,,,,,,,,,,,,,,,,,,,,,,,
834318,001,2022-11-21_24h50.42.900,Info_measure_main_exp,2022.2.2,Win32,59.93766483,,,,,,,,,,,,,,,,,,masks/mask_001.jpg,,,,,,,,,,,,,,,,,,,,,,,,,,,,,,,,,,,,,,,,,,,,,,,,0,2,2,0,1,,,,,,,,,,,,,,,,,,,,,,,,,,,,,,,,,,,,,,,,,
834318,001,2022-11-21_24h50.42.900,Info_measure_main_exp,2022.2.2,Win32,59.93766483,,,,,,,,,,,,,,,,,,masks/mask_003.jpg,,,,,,,,,,,,,,,,,,,,,,,,,,,,,,,,,,,,,,,,,,,,,,,,0,3,3,2,1,,,,,,,,,,,,,,,,,,,,,,,,,,,,,,,,,,,,,,,,,
834318,001,2022-11-21_24h50.42.900,Info_measure_main_exp,2022.2.2,Win32,59.93766483,,,,,,,,,,,,,,,,,,masks/mask_004.jpg,,,,,,,,,,,,,,,,,,,,,,,,,,,,,,,,,,,,,,,,,,,,,,,,0,4,4,3,1,,,,,,,,,,,,,,,,,,,,,,,,,,,,,,,,,,,,,,,,,
834318,001,2022-11-21_24h50.42.900,Info_measure_main_exp,2022.2.2,Win32,59.93766483,,,,,,,,,,,,,,,,,,,,,,,,,,,,,,6,1.9154,1,,,,,,,,,,,,0,131,5,5,2238,2298,absent_patch/patch0002238.jpg,absent_patch/patch0002298.jpg,,,,,,,,,,,,,,,,,,,,0.132407436,0.04074072,1,0,0,response1disk,2,-0.006481453,0.014814801,1,0,0,center_square,0,1,1,51,1,,,,,,,,,,,,,,,,,,,,,,,
834318,001,2022-11-21_24h50.42.900,Info_measure_main_exp,2022.2.2,Win32,59.93766483,,,,,,,,,,,,,,,,,,masks/mask_001.jpg,,,,,,,,,,,,,,,,,,,,,,,,,,,,,,,,,,,,,,,,,,,0,0,0,0,1,,,,,,,,,,,,,,,,,,,,,,,,,,,,,,,,,,,,,,,,,,,,,,
834318,001,2022-11-21_24h50.42.900,Info_measure_main_exp,2022.2.2,Win32,59.93766483,,,,,,,,,,,,,,,,,,masks/mask_003.jpg,,,,,,,,,,,,,,,,,,,,,,,,,,,,,,,,,,,,,,,,,,,0,1,1,2,1,,,,,,,,,,,,,,,,,,,,,,,,,,,,,,,,,,,,,,,,,,,,,,
834318,001,2022-11-21_24h50.42.900,Info_measure_main_exp,2022.2.2,Win32,59.93766483,,,,,,,,,,,,,,,,,,masks/mask_002.jpg,,,,,,,,,,,,,,,,,,,,,,,,,,,,,,,,,,,,,,,,,,,0,2,2,1,1,,,,,,,,,,,,,,,,,,,,,,,,,,,,,,,,,,,,,,,,,,,,,,
834318,001,2022-11-21_24h50.42.900,Info_measure_main_exp,2022.2.2,Win32,59.93766483,,,,,,,,,,,,,,,,,,masks/mask_005.jpg,,,,,,,,,,,,,,,,,,,,,,,,,,,,,,,,,,,,,,,,,,,0,3,3,4,1,,,,,,,,,,,,,,,,,,,,,,,,,,,,,,,,,,,,,,,,,,,,,,
834318,001,2022-11-21_24h50.42.900,Info_measure_main_exp,2022.2.2,Win32,59.93766483,,,,,,,,,,,,,,,,,,masks/mask_004.jpg,,,,,,,,,,,,,,,,,,,,,,,,,,,,,,,,,,,,,,,,,,,0,4,4,3,1,,,,,,,,,,,,,,,,,,,,,,,,,,,,,,,,,,,,,,,,,,,,,,
834318,001,2022-11-21_24h50.42.900,Info_measure_main_exp,2022.2.2,Win32,59.93766483,,,,,,,,,,,,,,,,,,masks/mask_002.jpg,,,,,,,,,,,,,,,,,,,,,,,,,,,,,,,,,,,,,,,,,,,,,,,,0,0,0,1,1,,,,,,,,,,,,,,,,,,,,,,,,,,,,,,,,,,,,,,,,,
834318,001,2022-11-21_24h50.42.900,Info_measure_main_exp,2022.2.2,Win32,59.93766483,,,,,,,,,,,,,,,,,,masks/mask_003.jpg,,,,,,,,,,,,,,,,,,,,,,,,,,,,,,,,,,,,,,,,,,,,,,,,0,1,1,2,1,,,,,,,,,,,,,,,,,,,,,,,,,,,,,,,,,,,,,,,,,
834318,001,2022-11-21_24h50.42.900,Info_measure_main_exp,2022.2.2,Win32,59.93766483,,,,,,,,,,,,,,,,,,masks/mask_001.jpg,,,,,,,,,,,,,,,,,,,,,,,,,,,,,,,,,,,,,,,,,,,,,,,,0,2,2,0,1,,,,,,,,,,,,,,,,,,,,,,,,,,,,,,,,,,,,,,,,,
834318,001,2022-11-21_24h50.42.900,Info_measure_main_exp,2022.2.2,Win32,59.93766483,,,,,,,,,,,,,,,,,,masks/mask_005.jpg,,,,,,,,,,,,,,,,,,,,,,,,,,,,,,,,,,,,,,,,,,,,,,,,0,3,3,4,1,,,,,,,,,,,,,,,,,,,,,,,,,,,,,,,,,,,,,,,,,
834318,001,2022-11-21_24h50.42.900,Info_measure_main_exp,2022.2.2,Win32,59.93766483,,,,,,,,,,,,,,,,,,masks/mask_004.jpg,,,,,,,,,,,,,,,,,,,,,,,,,,,,,,,,,,,,,,,,,,,,,,,,0,4,4,3,1,,,,,,,,,,,,,,,,,,,,,,,,,,,,,,,,,,,,,,,,,
834318,001,2022-11-21_24h50.42.900,Info_measure_main_exp,2022.2.2,Win32,59.93766483,,,,,,,,,,,,,,,,,,,,,,,,,,,,,,4,2.6826,1,,,,,,,,,,,,0,131,5,5,2274,2142,absent_patch/patch0002274.jpg,absent_patch/patch0002142.jpg,,,,,,,,,,,,,,,,,,,,0.050925926,-0.109259288,1,0,0,response3disk,3,0.010185171,-0.00462963,1,0,0,center_square,0,2,2,75,1,,,,,,,,,,,,,,,,,,,,,,,
834318,001,2022-11-21_24h50.42.900,Info_measure_main_exp,2022.2.2,Win32,59.93766483,,,,,,,,,,,,,,,,,,masks/mask_001.jpg,,,,,,,,,,,,,,,,,,,,,,,,,,,,,,,,,,,,,,,,,,,0,0,0,0,1,,,,,,,,,,,,,,,,,,,,,,,,,,,,,,,,,,,,,,,,,,,,,,
834318,001,2022-11-21_24h50.42.900,Info_measure_main_exp,2022.2.2,Win32,59.93766483,,,,,,,,,,,,,,,,,,masks/mask_005.jpg,,,,,,,,,,,,,,,,,,,,,,,,,,,,,,,,,,,,,,,,,,,0,1,1,4,1,,,,,,,,,,,,,,,,,,,,,,,,,,,,,,,,,,,,,,,,,,,,,,
834318,001,2022-11-21_24h50.42.900,Info_measure_main_exp,2022.2.2,Win32,59.93766483,,,,,,,,,,,,,,,,,,masks/mask_002.jpg,,,,,,,,,,,,,,,,,,,,,,,,,,,,,,,,,,,,,,,,,,,0,2,2,1,1,,,,,,,,,,,,,,,,,,,,,,,,,,,,,,,,,,,,,,,,,,,,,,
834318,001,2022-11-21_24h50.42.900,Info_measure_main_exp,2022.2.2,Win32,59.93766483,,,,,,,,,,,,,,,,,,masks/mask_003.jpg,,,,,,,,,,,,,,,,,,,,,,,,,,,,,,,,,,,,,,,,,,,0,3,3,2,1,,,,,,,,,,,,,,,,,,,,,,,,,,,,,,,,,,,,,,,,,,,,,,
834318,001,2022-11-21_24h50.42.900,Info_measure_main_exp,2022.2.2,Win32,59.93766483,,,,,,,,,,,,,,,,,,masks/mask_004.jpg,,,,,,,,,,,,,,,,,,,,,,,,,,,,,,,,,,,,,,,,,,,0,4,4,3,1,,,,,,,,,,,,,,,,,,,,,,,,,,,,,,,,,,,,,,,,,,,,,,
834318,001,2022-11-21_24h50.42.900,Info_measure_main_exp,2022.2.2,Win32,59.93766483,,,,,,,,,,,,,,,,,,masks/mask_001.jpg,,,,,,,,,,,,,,,,,,,,,,,,,,,,,,,,,,,,,,,,,,,,,,,,0,0,0,0,1,,,,,,,,,,,,,,,,,,,,,,,,,,,,,,,,,,,,,,,,,
834318,001,2022-11-21_24h50.42.900,Info_measure_main_exp,2022.2.2,Win32,59.93766483,,,,,,,,,,,,,,,,,,masks/mask_005.jpg,,,,,,,,,,,,,,,,,,,,,,,,,,,,,,,,,,,,,,,,,,,,,,,,0,1,1,4,1,,,,,,,,,,,,,,,,,,,,,,,,,,,,,,,,,,,,,,,,,
834318,001,2022-11-21_24h50.42.900,Info_measure_main_exp,2022.2.2,Win32,59.93766483,,,,,,,,,,,,,,,,,,masks/mask_002.jpg,,,,,,,,,,,,,,,,,,,,,,,,,,,,,,,,,,,,,,,,,,,,,,,,0,2,2,1,1,,,,,,,,,,,,,,,,,,,,,,,,,,,,,,,,,,,,,,,,,
834318,001,2022-11-21_24h50.42.900,Info_measure_main_exp,2022.2.2,Win32,59.93766483,,,,,,,,,,,,,,,,,,masks/mask_004.jpg,,,,,,,,,,,,,,,,,,,,,,,,,,,,,,,,,,,,,,,,,,,,,,,,0,3,3,3,1,,,,,,,,,,,,,,,,,,,,,,,,,,,,,,,,,,,,,,,,,
834318,001,2022-11-21_24h50.42.900,Info_measure_main_exp,2022.2.2,Win32,59.93766483,,,,,,,,,,,,,,,,,,masks/mask_003.jpg,,,,,,,,,,,,,,,,,,,,,,,,,,,,,,,,,,,,,,,,,,,,,,,,0,4,4,2,1,,,,,,,,,,,,,,,,,,,,,,,,,,,,,,,,,,,,,,,,,
834318,001,2022-11-21_24h50.42.900,Info_measure_main_exp,2022.2.2,Win32,59.93766483,,,,,,,,,,,,,,,,,,,,,,,,,,,,,,7,1.6061,1,,,,,,,,,,,,0,131,5,5,2082,2154,absent_patch/patch0002082.jpg,absent_patch/patch0002154.jpg,,,,,,,,,,,,,,,,,,,,0.055555556,0.133333312,1,0,0,response1disk,4,-0.008333347,0,1,0,0,center_square,0,3,3,33,1,,,,,,,,,,,,,,,,,,,,,,,
834318,001,2022-11-21_24h50.42.900,Info_measure_main_exp,2022.2.2,Win32,59.93766483,,,,,,,,,,,,,,,,,,masks/mask_004.jpg,,,,,,,,,,,,,,,,,,,,,,,,,,,,,,,,,,,,,,,,,,,0,0,0,3,1,,,,,,,,,,,,,,,,,,,,,,,,,,,,,,,,,,,,,,,,,,,,,,
834318,001,2022-11-21_24h50.42.900,Info_measure_main_exp,2022.2.2,Win32,59.93766483,,,,,,,,,,,,,,,,,,masks/mask_002.jpg,,,,,,,,,,,,,,,,,,,,,,,,,,,,,,,,,,,,,,,,,,,0,1,1,1,1,,,,,,,,,,,,,,,,,,,,,,,,,,,,,,,,,,,,,,,,,,,,,,
834318,001,2022-11-21_24h50.42.900,Info_measure_main_exp,2022.2.2,Win32,59.93766483,,,,,,,,,,,,,,,,,,masks/mask_005.jpg,,,,,,,,,,,,,,,,,,,,,,,,,,,,,,,,,,,,,,,,,,,0,2,2,4,1,,,,,,,,,,,,,,,,,,,,,,,,,,,,,,,,,,,,,,,,,,,,,,
834318,001,2022-11-21_24h50.42.900,Info_measure_main_exp,2022.2.2,Win32,59.93766483,,,,,,,,,,,,,,,,,,masks/mask_003.jpg,,,,,,,,,,,,,,,,,,,,,,,,,,,,,,,,,,,,,,,,,,,0,3,3,2,1,,,,,,,,,,,,,,,,,,,,,,,,,,,,,,,,,,,,,,,,,,,,,,
834318,001,2022-11-21_24h50.42.900,Info_measure_main_exp,2022.2.2,Win32,59.93766483,,,,,,,,,,,,,,,,,,masks/mask_001.jpg,,,,,,,,,,,,,,,,,,,,,,,,,,,,,,,,,,,,,,,,,,,0,4,4,0,1,,,,,,,,,,,,,,,,,,,,,,,,,,,,,,,,,,,,,,,,,,,,,,
834318,001,2022-11-21_24h50.42.900,Info_measure_main_exp,2022.2.2,Win32,59.93766483,,,,,,,,,,,,,,,,,,masks/mask_005.jpg,,,,,,,,,,,,,,,,,,,,,,,,,,,,,,,,,,,,,,,,,,,,,,,,0,0,0,4,1,,,,,,,,,,,,,,,,,,,,,,,,,,,,,,,,,,,,,,,,,
834318,001,2022-11-21_24h50.42.900,Info_measure_main_exp,2022.2.2,Win32,59.93766483,,,,,,,,,,,,,,,,,,masks/mask_004.jpg,,,,,,,,,,,,,,,,,,,,,,,,,,,,,,,,,,,,,,,,,,,,,,,,0,1,1,3,1,,,,,,,,,,,,,,,,,,,,,,,,,,,,,,,,,,,,,,,,,
834318,001,2022-11-21_24h50.42.900,Info_measure_main_exp,2022.2.2,Win32,59.93766483,,,,,,,,,,,,,,,,,,masks/mask_002.jpg,,,,,,,,,,,,,,,,,,,,,,,,,,,,,,,,,,,,,,,,,,,,,,,,0,2,2,1,1,,,,,,,,,,,,,,,,,,,,,,,,,,,,,,,,,,,,,,,,,
834318,001,2022-11-21_24h50.42.900,Info_measure_main_exp,2022.2.2,Win32,59.93766483,,,,,,,,,,,,,,,,,,masks/mask_003.jpg,,,,,,,,,,,,,,,,,,,,,,,,,,,,,,,,,,,,,,,,,,,,,,,,0,3,3,2,1,,,,,,,,,,,,,,,,,,,,,,,,,,,,,,,,,,,,,,,,,
834318,001,2022-11-21_24h50.42.900,Info_measure_main_exp,2022.2.2,Win32,59.93766483,,,,,,,,,,,,,,,,,,masks/mask_001.jpg,,,,,,,,,,,,,,,,,,,,,,,,,,,,,,,,,,,,,,,,,,,,,,,,0,4,4,0,1,,,,,,,,,,,,,,,,,,,,,,,,,,,,,,,,,,,,,,,,,
834318,001,2022-11-21_24h50.42.900,Info_measure_main_exp,2022.2.2,Win32,59.93766483,,,,,,,,,,,,,,,,,,,,,,,,,,,,,,6,1.4742,1,,,,,,,,,,,,0,131,5,5,2178,1986,absent_patch/patch0002178.jpg,absent_patch/patch0001986.jpg,,,,,,,,,,,,,,,,,,,,0.159259302,0.035185178,1,0,0,response1disk,5,0.001851894,0,1,0,0,center_square,0,4,4,46,1,,,,,,,,,,,,,,,,,,,,,,,
834318,001,2022-11-21_24h50.42.900,Info_measure_main_exp,2022.2.2,Win32,59.93766483,,,,,,,,,,,,,,,,,,masks/mask_002.jpg,,,,,,,,,,,,,,,,,,,,,,,,,,,,,,,,,,,,,,,,,,,0,0,0,1,1,,,,,,,,,,,,,,,,,,,,,,,,,,,,,,,,,,,,,,,,,,,,,,
834318,001,2022-11-21_24h50.42.900,Info_measure_main_exp,2022.2.2,Win32,59.93766483,,,,,,,,,,,,,,,,,,masks/mask_001.jpg,,,,,,,,,,,,,,,,,,,,,,,,,,,,,,,,,,,,,,,,,,,0,1,1,0,1,,,,,,,,,,,,,,,,,,,,,,,,,,,,,,,,,,,,,,,,,,,,,,
834318,001,2022-11-21_24h50.42.900,Info_measure_main_exp,2022.2.2,Win32,59.93766483,,,,,,,,,,,,,,,,,,masks/mask_004.jpg,,,,,,,,,,,,,,,,,,,,,,,,,,,,,,,,,,,,,,,,,,,0,2,2,3,1,,,,,,,,,,,,,,,,,,,,,,,,,,,,,,,,,,,,,,,,,,,,,,
834318,001,2022-11-21_24h50.42.900,Info_measure_main_exp,2022.2.2,Win32,59.93766483,,,,,,,,,,,,,,,,,,masks/mask_003.jpg,,,,,,,,,,,,,,,,,,,,,,,,,,,,,,,,,,,,,,,,,,,0,3,3,2,1,,,,,,,,,,,,,,,,,,,,,,,,,,,,,,,,,,,,,,,,,,,,,,
834318,001,2022-11-21_24h50.42.900,Info_measure_main_exp,2022.2.2,Win32,59.93766483,,,,,,,,,,,,,,,,,,masks/mask_005.jpg,,,,,,,,,,,,,,,,,,,,,,,,,,,,,,,,,,,,,,,,,,,0,4,4,4,1,,,,,,,,,,,,,,,,,,,,,,,,,,,,,,,,,,,,,,,,,,,,,,
834318,001,2022-11-21_24h50.42.900,Info_measure_main_exp,2022.2.2,Win32,59.93766483,,,,,,,,,,,,,,,,,,masks/mask_003.jpg,,,,,,,,,,,,,,,,,,,,,,,,,,,,,,,,,,,,,,,,,,,,,,,,0,0,0,2,1,,,,,,,,,,,,,,,,,,,,,,,,,,,,,,,,,,,,,,,,,
834318,001,2022-11-21_24h50.42.900,Info_measure_main_exp,2022.2.2,Win32,59.93766483,,,,,,,,,,,,,,,,,,masks/mask_004.jpg,,,,,,,,,,,,,,,,,,,,,,,,,,,,,,,,,,,,,,,,,,,,,,,,0,1,1,3,1,,,,,,,,,,,,,,,,,,,,,,,,,,,,,,,,,,,,,,,,,
834318,001,2022-11-21_24h50.42.900,Info_measure_main_exp,2022.2.2,Win32,59.93766483,,,,,,,,,,,,,,,,,,masks/mask_001.jpg,,,,,,,,,,,,,,,,,,,,,,,,,,,,,,,,,,,,,,,,,,,,,,,,0,2,2,0,1,,,,,,,,,,,,,,,,,,,,,,,,,,,,,,,,,,,,,,,,,
834318,001,2022-11-21_24h50.42.900,Info_measure_main_exp,2022.2.2,Win32,59.93766483,,,,,,,,,,,,,,,,,,masks/mask_005.jpg,,,,,,,,,,,,,,,,,,,,,,,,,,,,,,,,,,,,,,,,,,,,,,,,0,3,3,4,1,,,,,,,,,,,,,,,,,,,,,,,,,,,,,,,,,,,,,,,,,
834318,001,2022-11-21_24h50.42.900,Info_measure_main_exp,2022.2.2,Win32,59.93766483,,,,,,,,,,,,,,,,,,masks/mask_002.jpg,,,,,,,,,,,,,,,,,,,,,,,,,,,,,,,,,,,,,,,,,,,,,,,,0,4,4,1,1,,,,,,,,,,,,,,,,,,,,,,,,,,,,,,,,,,,,,,,,,
834318,001,2022-11-21_24h50.42.900,Info_measure_main_exp,2022.2.2,Win32,59.93766483,,,,,,,,,,,,,,,,,,,,,,,,,,,,,,0,1.0316,1,,,,,,,,,,,,0,131,5,5,2190,2190,absent_patch/patch0002190.jpg,absent_patch/patch0002190.jpg,,,,,,,,,,,,,,,,,,,,-0.047222208,0.12037037,1,0,0,response7disk,6,0.000925912,-0.001851859,1,0,0,center_square,0,5,5,86,1,,,,,,,,,,,,,,,,,,,,,,,
834318,001,2022-11-21_24h50.42.900,Info_measure_main_exp,2022.2.2,Win32,59.93766483,,,,,,,,,,,,,,,,,,masks/mask_002.jpg,,,,,,,,,,,,,,,,,,,,,,,,,,,,,,,,,,,,,,,,,,,0,0,0,1,1,,,,,,,,,,,,,,,,,,,,,,,,,,,,,,,,,,,,,,,,,,,,,,
834318,001,2022-11-21_24h50.42.900,Info_measure_main_exp,2022.2.2,Win32,59.93766483,,,,,,,,,,,,,,,,,,masks/mask_005.jpg,,,,,,,,,,,,,,,,,,,,,,,,,,,,,,,,,,,,,,,,,,,0,1,1,4,1,,,,,,,,,,,,,,,,,,,,,,,,,,,,,,,,,,,,,,,,,,,,,,
834318,001,2022-11-21_24h50.42.900,Info_measure_main_exp,2022.2.2,Win32,59.93766483,,,,,,,,,,,,,,,,,,masks/mask_004.jpg,,,,,,,,,,,,,,,,,,,,,,,,,,,,,,,,,,,,,,,,,,,0,2,2,3,1,,,,,,,,,,,,,,,,,,,,,,,,,,,,,,,,,,,,,,,,,,,,,,
834318,001,2022-11-21_24h50.42.900,Info_measure_main_exp,2022.2.2,Win32,59.93766483,,,,,,,,,,,,,,,,,,masks/mask_003.jpg,,,,,,,,,,,,,,,,,,,,,,,,,,,,,,,,,,,,,,,,,,,0,3,3,2,1,,,,,,,,,,,,,,,,,,,,,,,,,,,,,,,,,,,,,,,,,,,,,,
834318,001,2022-11-21_24h50.42.900,Info_measure_main_exp,2022.2.2,Win32,59.93766483,,,,,,,,,,,,,,,,,,masks/mask_001.jpg,,,,,,,,,,,,,,,,,,,,,,,,,,,,,,,,,,,,,,,,,,,0,4,4,0,1,,,,,,,,,,,,,,,,,,,,,,,,,,,,,,,,,,,,,,,,,,,,,,
834318,001,2022-11-21_24h50.42.900,Info_measure_main_exp,2022.2.2,Win32,59.93766483,,,,,,,,,,,,,,,,,,masks/mask_002.jpg,,,,,,,,,,,,,,,,,,,,,,,,,,,,,,,,,,,,,,,,,,,,,,,,0,0,0,1,1,,,,,,,,,,,,,,,,,,,,,,,,,,,,,,,,,,,,,,,,,
834318,001,2022-11-21_24h50.42.900,Info_measure_main_exp,2022.2.2,Win32,59.93766483,,,,,,,,,,,,,,,,,,masks/mask_005.jpg,,,,,,,,,,,,,,,,,,,,,,,,,,,,,,,,,,,,,,,,,,,,,,,,0,1,1,4,1,,,,,,,,,,,,,,,,,,,,,,,,,,,,,,,,,,,,,,,,,
834318,001,2022-11-21_24h50.42.900,Info_measure_main_exp,2022.2.2,Win32,59.93766483,,,,,,,,,,,,,,,,,,masks/mask_003.jpg,,,,,,,,,,,,,,,,,,,,,,,,,,,,,,,,,,,,,,,,,,,,,,,,0,2,2,2,1,,,,,,,,,,,,,,,,,,,,,,,,,,,,,,,,,,,,,,,,,
834318,001,2022-11-21_24h50.42.900,Info_measure_main_exp,2022.2.2,Win32,59.93766483,,,,,,,,,,,,,,,,,,masks/mask_004.jpg,,,,,,,,,,,,,,,,,,,,,,,,,,,,,,,,,,,,,,,,,,,,,,,,0,3,3,3,1,,,,,,,,,,,,,,,,,,,,,,,,,,,,,,,,,,,,,,,,,
834318,001,2022-11-21_24h50.42.900,Info_measure_main_exp,2022.2.2,Win32,59.93766483,,,,,,,,,,,,,,,,,,masks/mask_001.jpg,,,,,,,,,,,,,,,,,,,,,,,,,,,,,,,,,,,,,,,,,,,,,,,,0,4,4,0,1,,,,,,,,,,,,,,,,,,,,,,,,,,,,,,,,,,,,,,,,,
834318,001,2022-11-21_24h50.42.900,Info_measure_main_exp,2022.2.2,Win32,59.93766483,,,,,,,,,,,,,,,,,,,,,,,,,,,,,,0,0.7415,1,,,,,,,,,,,,0,131,5,5,2142,2142,absent_patch/patch0002142.jpg,absent_patch/patch0002142.jpg,,,,,,,,,,,,,,,,,,,,-0.065740727,0.135185171,1,0,0,response7disk,7,0.000925912,-0.008333347,1,0,0,center_square,0,6,6,13,1,,,,,,,,,,,,,,,,,,,,,,,
834318,001,2022-11-21_24h50.42.900,Info_measure_main_exp,2022.2.2,Win32,59.93766483,,,,,,,,,,,,,,,,,,masks/mask_003.jpg,,,,,,,,,,,,,,,,,,,,,,,,,,,,,,,,,,,,,,,,,,,0,0,0,2,1,,,,,,,,,,,,,,,,,,,,,,,,,,,,,,,,,,,,,,,,,,,,,,
834318,001,2022-11-21_24h50.42.900,Info_measure_main_exp,2022.2.2,Win32,59.93766483,,,,,,,,,,,,,,,,,,masks/mask_002.jpg,,,,,,,,,,,,,,,,,,,,,,,,,,,,,,,,,,,,,,,,,,,0,1,1,1,1,,,,,,,,,,,,,,,,,,,,,,,,,,,,,,,,,,,,,,,,,,,,,,
834318,001,2022-11-21_24h50.42.900,Info_measure_main_exp,2022.2.2,Win32,59.93766483,,,,,,,,,,,,,,,,,,masks/mask_004.jpg,,,,,,,,,,,,,,,,,,,,,,,,,,,,,,,,,,,,,,,,,,,0,2,2,3,1,,,,,,,,,,,,,,,,,,,,,,,,,,,,,,,,,,,,,,,,,,,,,,
834318,001,2022-11-21_24h50.42.900,Info_measure_main_exp,2022.2.2,Win32,59.93766483,,,,,,,,,,,,,,,,,,masks/mask_005.jpg,,,,,,,,,,,,,,,,,,,,,,,,,,,,,,,,,,,,,,,,,,,0,3,3,4,1,,,,,,,,,,,,,,,,,,,,,,,,,,,,,,,,,,,,,,,,,,,,,,
834318,001,2022-11-21_24h50.42.900,Info_measure_main_exp,2022.2.2,Win32,59.93766483,,,,,,,,,,,,,,,,,,masks/mask_001.jpg,,,,,,,,,,,,,,,,,,,,,,,,,,,,,,,,,,,,,,,,,,,0,4,4,0,1,,,,,,,,,,,,,,,,,,,,,,,,,,,,,,,,,,,,,,,,,,,,,,
834318,001,2022-11-21_24h50.42.900,Info_measure_main_exp,2022.2.2,Win32,59.93766483,,,,,,,,,,,,,,,,,,masks/mask_001.jpg,,,,,,,,,,,,,,,,,,,,,,,,,,,,,,,,,,,,,,,,,,,,,,,,0,0,0,0,1,,,,,,,,,,,,,,,,,,,,,,,,,,,,,,,,,,,,,,,,,
834318,001,2022-11-21_24h50.42.900,Info_measure_main_exp,2022.2.2,Win32,59.93766483,,,,,,,,,,,,,,,,,,masks/mask_004.jpg,,,,,,,,,,,,,,,,,,,,,,,,,,,,,,,,,,,,,,,,,,,,,,,,0,1,1,3,1,,,,,,,,,,,,,,,,,,,,,,,,,,,,,,,,,,,,,,,,,
834318,001,2022-11-21_24h50.42.900,Info_measure_main_exp,2022.2.2,Win32,59.93766483,,,,,,,,,,,,,,,,,,masks/mask_003.jpg,,,,,,,,,,,,,,,,,,,,,,,,,,,,,,,,,,,,,,,,,,,,,,,,0,2,2,2,1,,,,,,,,,,,,,,,,,,,,,,,,,,,,,,,,,,,,,,,,,
834318,001,2022-11-21_24h50.42.900,Info_measure_main_exp,2022.2.2,Win32,59.93766483,,,,,,,,,,,,,,,,,,masks/mask_005.jpg,,,,,,,,,,,,,,,,,,,,,,,,,,,,,,,,,,,,,,,,,,,,,,,,0,3,3,4,1,,,,,,,,,,,,,,,,,,,,,,,,,,,,,,,,,,,,,,,,,
834318,001,2022-11-21_24h50.42.900,Info_measure_main_exp,2022.2.2,Win32,59.93766483,,,,,,,,,,,,,,,,,,masks/mask_002.jpg,,,,,,,,,,,,,,,,,,,,,,,,,,,,,,,,,,,,,,,,,,,,,,,,0,4,4,1,1,,,,,,,,,,,,,,,,,,,,,,,,,,,,,,,,,,,,,,,,,
834318,001,2022-11-21_24h50.42.900,Info_measure_main_exp,2022.2.2,Win32,59.93766483,,,,,,,,,,,,,,,,,,,,,,,,,,,,,,4,1.6331,1,,,,,,,,,,,,0,131,5,5,1974,2178,absent_patch/patch0001974.jpg,absent_patch/patch0002178.jpg,,,,,,,,,,,,,,,,,,,,0.025000042,-0.082407422,1,0,0,response3disk,8,0.003703718,0.001851859,1,0,0,center_square,0,7,7,44,1,,,,,,,,,,,,,,,,,,,,,,,
834318,001,2022-11-21_24h50.42.900,Info_measure_main_exp,2022.2.2,Win32,59.93766483,,,,,,,,,,,,,,,,,,masks/mask_004.jpg,,,,,,,,,,,,,,,,,,,,,,,,,,,,,,,,,,,,,,,,,,,0,0,0,3,1,,,,,,,,,,,,,,,,,,,,,,,,,,,,,,,,,,,,,,,,,,,,,,
834318,001,2022-11-21_24h50.42.900,Info_measure_main_exp,2022.2.2,Win32,59.93766483,,,,,,,,,,,,,,,,,,masks/mask_002.jpg,,,,,,,,,,,,,,,,,,,,,,,,,,,,,,,,,,,,,,,,,,,0,1,1,1,1,,,,,,,,,,,,,,,,,,,,,,,,,,,,,,,,,,,,,,,,,,,,,,
834318,001,2022-11-21_24h50.42.900,Info_measure_main_exp,2022.2.2,Win32,59.93766483,,,,,,,,,,,,,,,,,,masks/mask_005.jpg,,,,,,,,,,,,,,,,,,,,,,,,,,,,,,,,,,,,,,,,,,,0,2,2,4,1,,,,,,,,,,,,,,,,,,,,,,,,,,,,,,,,,,,,,,,,,,,,,,
834318,001,2022-11-21_24h50.42.900,Info_measure_main_exp,2022.2.2,Win32,59.93766483,,,,,,,,,,,,,,,,,,masks/mask_003.jpg,,,,,,,,,,,,,,,,,,,,,,,,,,,,,,,,,,,,,,,,,,,0,3,3,2,1,,,,,,,,,,,,,,,,,,,,,,,,,,,,,,,,,,,,,,,,,,,,,,
834318,001,2022-11-21_24h50.42.900,Info_measure_main_exp,2022.2.2,Win32,59.93766483,,,,,,,,,,,,,,,,,,masks/mask_001.jpg,,,,,,,,,,,,,,,,,,,,,,,,,,,,,,,,,,,,,,,,,,,0,4,4,0,1,,,,,,,,,,,,,,,,,,,,,,,,,,,,,,,,,,,,,,,,,,,,,,
834318,001,2022-11-21_24h50.42.900,Info_measure_main_exp,2022.2.2,Win32,59.93766483,,,,,,,,,,,,,,,,,,masks/mask_002.jpg,,,,,,,,,,,,,,,,,,,,,,,,,,,,,,,,,,,,,,,,,,,,,,,,0,0,0,1,1,,,,,,,,,,,,,,,,,,,,,,,,,,,,,,,,,,,,,,,,,
834318,001,2022-11-21_24h50.42.900,Info_measure_main_exp,2022.2.2,Win32,59.93766483,,,,,,,,,,,,,,,,,,masks/mask_005.jpg,,,,,,,,,,,,,,,,,,,,,,,,,,,,,,,,,,,,,,,,,,,,,,,,0,1,1,4,1,,,,,,,,,,,,,,,,,,,,,,,,,,,,,,,,,,,,,,,,,
834318,001,2022-11-21_24h50.42.900,Info_measure_main_exp,2022.2.2,Win32,59.93766483,,,,,,,,,,,,,,,,,,masks/mask_004.jpg,,,,,,,,,,,,,,,,,,,,,,,,,,,,,,,,,,,,,,,,,,,,,,,,0,2,2,3,1,,,,,,,,,,,,,,,,,,,,,,,,,,,,,,,,,,,,,,,,,
834318,001,2022-11-21_24h50.42.900,Info_measure_main_exp,2022.2.2,Win32,59.93766483,,,,,,,,,,,,,,,,,,masks/mask_003.jpg,,,,,,,,,,,,,,,,,,,,,,,,,,,,,,,,,,,,,,,,,,,,,,,,0,3,3,2,1,,,,,,,,,,,,,,,,,,,,,,,,,,,,,,,,,,,,,,,,,
834318,001,2022-11-21_24h50.42.900,Info_measure_main_exp,2022.2.2,Win32,59.93766483,,,,,,,,,,,,,,,,,,masks/mask_001.jpg,,,,,,,,,,,,,,,,,,,,,,,,,,,,,,,,,,,,,,,,,,,,,,,,0,4,4,0,1,,,,,,,,,,,,,,,,,,,,,,,,,,,,,,,,,,,,,,,,,
834318,001,2022-11-21_24h50.42.900,Info_measure_main_exp,2022.2.2,Win32,59.93766483,,,,,,,,,,,,,,,,,,,,,,,,,,,,,,6,2.0659,1,,,,,,,,,,,,0,131,5,5,1950,2082,absent_patch/patch0001950.jpg,absent_patch/patch0002082.jpg,,,,,,,,,,,,,,,,,,,,0.147222236,0.042592578,1,0,0,response1disk,9,-0.000925912,-0.008333347,1,0,0,center_square,0,8,8,12,1,,,,,,,,,,,,,,,,,,,,,,,
834318,001,2022-11-21_24h50.42.900,Info_measure_main_exp,2022.2.2,Win32,59.93766483,,,,,,,,,,,,,,,,,,masks/mask_002.jpg,,,,,,,,,,,,,,,,,,,,,,,,,,,,,,,,,,,,,,,,,,,0,0,0,1,1,,,,,,,,,,,,,,,,,,,,,,,,,,,,,,,,,,,,,,,,,,,,,,
834318,001,2022-11-21_24h50.42.900,Info_measure_main_exp,2022.2.2,Win32,59.93766483,,,,,,,,,,,,,,,,,,masks/mask_004.jpg,,,,,,,,,,,,,,,,,,,,,,,,,,,,,,,,,,,,,,,,,,,0,1,1,3,1,,,,,,,,,,,,,,,,,,,,,,,,,,,,,,,,,,,,,,,,,,,,,,
834318,001,2022-11-21_24h50.42.900,Info_measure_main_exp,2022.2.2,Win32,59.93766483,,,,,,,,,,,,,,,,,,masks/mask_003.jpg,,,,,,,,,,,,,,,,,,,,,,,,,,,,,,,,,,,,,,,,,,,0,2,2,2,1,,,,,,,,,,,,,,,,,,,,,,,,,,,,,,,,,,,,,,,,,,,,,,
834318,001,2022-11-21_24h50.42.900,Info_measure_main_exp,2022.2.2,Win32,59.93766483,,,,,,,,,,,,,,,,,,masks/mask_005.jpg,,,,,,,,,,,,,,,,,,,,,,,,,,,,,,,,,,,,,,,,,,,0,3,3,4,1,,,,,,,,,,,,,,,,,,,,,,,,,,,,,,,,,,,,,,,,,,,,,,
834318,001,2022-11-21_24h50.42.900,Info_measure_main_exp,2022.2.2,Win32,59.93766483,,,,,,,,,,,,,,,,,,masks/mask_001.jpg,,,,,,,,,,,,,,,,,,,,,,,,,,,,,,,,,,,,,,,,,,,0,4,4,0,1,,,,,,,,,,,,,,,,,,,,,,,,,,,,,,,,,,,,,,,,,,,,,,
834318,001,2022-11-21_24h50.42.900,Info_measure_main_exp,2022.2.2,Win32,59.93766483,,,,,,,,,,,,,,,,,,masks/mask_003.jpg,,,,,,,,,,,,,,,,,,,,,,,,,,,,,,,,,,,,,,,,,,,,,,,,0,0,0,2,1,,,,,,,,,,,,,,,,,,,,,,,,,,,,,,,,,,,,,,,,,
834318,001,2022-11-21_24h50.42.900,Info_measure_main_exp,2022.2.2,Win32,59.93766483,,,,,,,,,,,,,,,,,,masks/mask_004.jpg,,,,,,,,,,,,,,,,,,,,,,,,,,,,,,,,,,,,,,,,,,,,,,,,0,1,1,3,1,,,,,,,,,,,,,,,,,,,,,,,,,,,,,,,,,,,,,,,,,
834318,001,2022-11-21_24h50.42.900,Info_measure_main_exp,2022.2.2,Win32,59.93766483,,,,,,,,,,,,,,,,,,masks/mask_002.jpg,,,,,,,,,,,,,,,,,,,,,,,,,,,,,,,,,,,,,,,,,,,,,,,,0,2,2,1,1,,,,,,,,,,,,,,,,,,,,,,,,,,,,,,,,,,,,,,,,,
834318,001,2022-11-21_24h50.42.900,Info_measure_main_exp,2022.2.2,Win32,59.93766483,,,,,,,,,,,,,,,,,,masks/mask_005.jpg,,,,,,,,,,,,,,,,,,,,,,,,,,,,,,,,,,,,,,,,,,,,,,,,0,3,3,4,1,,,,,,,,,,,,,,,,,,,,,,,,,,,,,,,,,,,,,,,,,
834318,001,2022-11-21_24h50.42.900,Info_measure_main_exp,2022.2.2,Win32,59.93766483,,,,,,,,,,,,,,,,,,masks/mask_001.jpg,,,,,,,,,,,,,,,,,,,,,,,,,,,,,,,,,,,,,,,,,,,,,,,,0,4,4,0,1,,,,,,,,,,,,,,,,,,,,,,,,,,,,,,,,,,,,,,,,,
834318,001,2022-11-21_24h50.42.900,Info_measure_main_exp,2022.2.2,Win32,59.93766483,,,,,,,,,,,,,,,,,,,,,,,,,,,,,,4,3.8698,1,,,,,,,,,,,,0,131,5,5,2166,2298,absent_patch/patch0002166.jpg,absent_patch/patch0002298.jpg,,,,,,,,,,,,,,,,,,,,0.029629672,-0.082407422,1,0,0,response3disk,10,0.008333347,-0.00462963,1,0,0,center_square,0,9,9,52,1,,,,,,,,,,,,,,,,,,,,,,,
834318,001,2022-11-21_24h50.42.900,Info_measure_main_exp,2022.2.2,Win32,59.93766483,,,,,,,,,,,,,,,,,,masks/mask_005.jpg,,,,,,,,,,,,,,,,,,,,,,,,,,,,,,,,,,,,,,,,,,,0,0,0,4,1,,,,,,,,,,,,,,,,,,,,,,,,,,,,,,,,,,,,,,,,,,,,,,
834318,001,2022-11-21_24h50.42.900,Info_measure_main_exp,2022.2.2,Win32,59.93766483,,,,,,,,,,,,,,,,,,masks/mask_002.jpg,,,,,,,,,,,,,,,,,,,,,,,,,,,,,,,,,,,,,,,,,,,0,1,1,1,1,,,,,,,,,,,,,,,,,,,,,,,,,,,,,,,,,,,,,,,,,,,,,,
834318,001,2022-11-21_24h50.42.900,Info_measure_main_exp,2022.2.2,Win32,59.93766483,,,,,,,,,,,,,,,,,,masks/mask_003.jpg,,,,,,,,,,,,,,,,,,,,,,,,,,,,,,,,,,,,,,,,,,,0,2,2,2,1,,,,,,,,,,,,,,,,,,,,,,,,,,,,,,,,,,,,,,,,,,,,,,
834318,001,2022-11-21_24h50.42.900,Info_measure_main_exp,2022.2.2,Win32,59.93766483,,,,,,,,,,,,,,,,,,masks/mask_001.jpg,,,,,,,,,,,,,,,,,,,,,,,,,,,,,,,,,,,,,,,,,,,0,3,3,0,1,,,,,,,,,,,,,,,,,,,,,,,,,,,,,,,,,,,,,,,,,,,,,,
834318,001,2022-11-21_24h50.42.900,Info_measure_main_exp,2022.2.2,Win32,59.93766483,,,,,,,,,,,,,,,,,,masks/mask_004.jpg,,,,,,,,,,,,,,,,,,,,,,,,,,,,,,,,,,,,,,,,,,,0,4,4,3,1,,,,,,,,,,,,,,,,,,,,,,,,,,,,,,,,,,,,,,,,,,,,,,
834318,001,2022-11-21_24h50.42.900,Info_measure_main_exp,2022.2.2,Win32,59.93766483,,,,,,,,,,,,,,,,,,masks/mask_001.jpg,,,,,,,,,,,,,,,,,,,,,,,,,,,,,,,,,,,,,,,,,,,,,,,,0,0,0,0,1,,,,,,,,,,,,,,,,,,,,,,,,,,,,,,,,,,,,,,,,,
834318,001,2022-11-21_24h50.42.900,Info_measure_main_exp,2022.2.2,Win32,59.93766483,,,,,,,,,,,,,,,,,,masks/mask_005.jpg,,,,,,,,,,,,,,,,,,,,,,,,,,,,,,,,,,,,,,,,,,,,,,,,0,1,1,4,1,,,,,,,,,,,,,,,,,,,,,,,,,,,,,,,,,,,,,,,,,
834318,001,2022-11-21_24h50.42.900,Info_measure_main_exp,2022.2.2,Win32,59.93766483,,,,,,,,,,,,,,,,,,masks/mask_002.jpg,,,,,,,,,,,,,,,,,,,,,,,,,,,,,,,,,,,,,,,,,,,,,,,,0,2,2,1,1,,,,,,,,,,,,,,,,,,,,,,,,,,,,,,,,,,,,,,,,,
834318,001,2022-11-21_24h50.42.900,Info_measure_main_exp,2022.2.2,Win32,59.93766483,,,,,,,,,,,,,,,,,,masks/mask_003.jpg,,,,,,,,,,,,,,,,,,,,,,,,,,,,,,,,,,,,,,,,,,,,,,,,0,3,3,2,1,,,,,,,,,,,,,,,,,,,,,,,,,,,,,,,,,,,,,,,,,
834318,001,2022-11-21_24h50.42.900,Info_measure_main_exp,2022.2.2,Win32,59.93766483,,,,,,,,,,,,,,,,,,masks/mask_004.jpg,,,,,,,,,,,,,,,,,,,,,,,,,,,,,,,,,,,,,,,,,,,,,,,,0,4,4,3,1,,,,,,,,,,,,,,,,,,,,,,,,,,,,,,,,,,,,,,,,,
834318,001,2022-11-21_24h50.42.900,Info_measure_main_exp,2022.2.2,Win32,59.93766483,,,,,,,,,,,,,,,,,,,,,,,,,,,,,,6,2.0651,1,,,,,,,,,,,,0,131,5,5,1974,2214,absent_patch/patch0001974.jpg,absent_patch/patch0002214.jpg,,,,,,,,,,,,,,,,,,,,0.139814801,0.047222208,1,0,0,response1disk,11,0.011111153,-0.010185206,1,0,0,center_square,0,10,10,24,1,,,,,,,,,,,,,,,,,,,,,,,
834318,001,2022-11-21_24h50.42.900,Info_measure_main_exp,2022.2.2,Win32,59.93766483,,,,,,,,,,,,,,,,,,masks/mask_004.jpg,,,,,,,,,,,,,,,,,,,,,,,,,,,,,,,,,,,,,,,,,,,0,0,0,3,1,,,,,,,,,,,,,,,,,,,,,,,,,,,,,,,,,,,,,,,,,,,,,,
834318,001,2022-11-21_24h50.42.900,Info_measure_main_exp,2022.2.2,Win32,59.93766483,,,,,,,,,,,,,,,,,,masks/mask_001.jpg,,,,,,,,,,,,,,,,,,,,,,,,,,,,,,,,,,,,,,,,,,,0,1,1,0,1,,,,,,,,,,,,,,,,,,,,,,,,,,,,,,,,,,,,,,,,,,,,,,
834318,001,2022-11-21_24h50.42.900,Info_measure_main_exp,2022.2.2,Win32,59.93766483,,,,,,,,,,,,,,,,,,masks/mask_005.jpg,,,,,,,,,,,,,,,,,,,,,,,,,,,,,,,,,,,,,,,,,,,0,2,2,4,1,,,,,,,,,,,,,,,,,,,,,,,,,,,,,,,,,,,,,,,,,,,,,,
834318,001,2022-11-21_24h50.42.900,Info_measure_main_exp,2022.2.2,Win32,59.93766483,,,,,,,,,,,,,,,,,,masks/mask_002.jpg,,,,,,,,,,,,,,,,,,,,,,,,,,,,,,,,,,,,,,,,,,,0,3,3,1,1,,,,,,,,,,,,,,,,,,,,,,,,,,,,,,,,,,,,,,,,,,,,,,
834318,001,2022-11-21_24h50.42.900,Info_measure_main_exp,2022.2.2,Win32,59.93766483,,,,,,,,,,,,,,,,,,masks/mask_003.jpg,,,,,,,,,,,,,,,,,,,,,,,,,,,,,,,,,,,,,,,,,,,0,4,4,2,1,,,,,,,,,,,,,,,,,,,,,,,,,,,,,,,,,,,,,,,,,,,,,,
834318,001,2022-11-21_24h50.42.900,Info_measure_main_exp,2022.2.2,Win32,59.93766483,,,,,,,,,,,,,,,,,,masks/mask_003.jpg,,,,,,,,,,,,,,,,,,,,,,,,,,,,,,,,,,,,,,,,,,,,,,,,0,0,0,2,1,,,,,,,,,,,,,,,,,,,,,,,,,,,,,,,,,,,,,,,,,
834318,001,2022-11-21_24h50.42.900,Info_measure_main_exp,2022.2.2,Win32,59.93766483,,,,,,,,,,,,,,,,,,masks/mask_001.jpg,,,,,,,,,,,,,,,,,,,,,,,,,,,,,,,,,,,,,,,,,,,,,,,,0,1,1,0,1,,,,,,,,,,,,,,,,,,,,,,,,,,,,,,,,,,,,,,,,,
834318,001,2022-11-21_24h50.42.900,Info_measure_main_exp,2022.2.2,Win32,59.93766483,,,,,,,,,,,,,,,,,,masks/mask_005.jpg,,,,,,,,,,,,,,,,,,,,,,,,,,,,,,,,,,,,,,,,,,,,,,,,0,2,2,4,1,,,,,,,,,,,,,,,,,,,,,,,,,,,,,,,,,,,,,,,,,
834318,001,2022-11-21_24h50.42.900,Info_measure_main_exp,2022.2.2,Win32,59.93766483,,,,,,,,,,,,,,,,,,masks/mask_002.jpg,,,,,,,,,,,,,,,,,,,,,,,,,,,,,,,,,,,,,,,,,,,,,,,,0,3,3,1,1,,,,,,,,,,,,,,,,,,,,,,,,,,,,,,,,,,,,,,,,,
834318,001,2022-11-21_24h50.42.900,Info_measure_main_exp,2022.2.2,Win32,59.93766483,,,,,,,,,,,,,,,,,,masks/mask_004.jpg,,,,,,,,,,,,,,,,,,,,,,,,,,,,,,,,,,,,,,,,,,,,,,,,0,4,4,3,1,,,,,,,,,,,,,,,,,,,,,,,,,,,,,,,,,,,,,,,,,
834318,001,2022-11-21_24h50.42.900,Info_measure_main_exp,2022.2.2,Win32,59.93766483,,,,,,,,,,,,,,,,,,,,,,,,,,,,,,6,0.888,1,,,,,,,,,,,,0,131,5,5,2082,2166,absent_patch/patch0002082.jpg,absent_patch/patch0002166.jpg,,,,,,,,,,,,,,,,,,,,0.08148151,0.039814808,1,0,0,response1disk,12,0.000925912,0.00462963,1,0,0,center_square,0,11,11,43,1,,,,,,,,,,,,,,,,,,,,,,,
834318,001,2022-11-21_24h50.42.900,Info_measure_main_exp,2022.2.2,Win32,59.93766483,,,,,,,,,,,,,,,,,,masks/mask_002.jpg,,,,,,,,,,,,,,,,,,,,,,,,,,,,,,,,,,,,,,,,,,,0,0,0,1,1,,,,,,,,,,,,,,,,,,,,,,,,,,,,,,,,,,,,,,,,,,,,,,
834318,001,2022-11-21_24h50.42.900,Info_measure_main_exp,2022.2.2,Win32,59.93766483,,,,,,,,,,,,,,,,,,masks/mask_005.jpg,,,,,,,,,,,,,,,,,,,,,,,,,,,,,,,,,,,,,,,,,,,0,1,1,4,1,,,,,,,,,,,,,,,,,,,,,,,,,,,,,,,,,,,,,,,,,,,,,,
834318,001,2022-11-21_24h50.42.900,Info_measure_main_exp,2022.2.2,Win32,59.93766483,,,,,,,,,,,,,,,,,,masks/mask_004.jpg,,,,,,,,,,,,,,,,,,,,,,,,,,,,,,,,,,,,,,,,,,,0,2,2,3,1,,,,,,,,,,,,,,,,,,,,,,,,,,,,,,,,,,,,,,,,,,,,,,
834318,001,2022-11-21_24h50.42.900,Info_measure_main_exp,2022.2.2,Win32,59.93766483,,,,,,,,,,,,,,,,,,masks/mask_001.jpg,,,,,,,,,,,,,,,,,,,,,,,,,,,,,,,,,,,,,,,,,,,0,3,3,0,1,,,,,,,,,,,,,,,,,,,,,,,,,,,,,,,,,,,,,,,,,,,,,,
834318,001,2022-11-21_24h50.42.900,Info_measure_main_exp,2022.2.2,Win32,59.93766483,,,,,,,,,,,,,,,,,,masks/mask_003.jpg,,,,,,,,,,,,,,,,,,,,,,,,,,,,,,,,,,,,,,,,,,,0,4,4,2,1,,,,,,,,,,,,,,,,,,,,,,,,,,,,,,,,,,,,,,,,,,,,,,
834318,001,2022-11-21_24h50.42.900,Info_measure_main_exp,2022.2.2,Win32,59.93766483,,,,,,,,,,,,,,,,,,masks/mask_002.jpg,,,,,,,,,,,,,,,,,,,,,,,,,,,,,,,,,,,,,,,,,,,,,,,,0,0,0,1,1,,,,,,,,,,,,,,,,,,,,,,,,,,,,,,,,,,,,,,,,,
834318,001,2022-11-21_24h50.42.900,Info_measure_main_exp,2022.2.2,Win32,59.93766483,,,,,,,,,,,,,,,,,,masks/mask_004.jpg,,,,,,,,,,,,,,,,,,,,,,,,,,,,,,,,,,,,,,,,,,,,,,,,0,1,1,3,1,,,,,,,,,,,,,,,,,,,,,,,,,,,,,,,,,,,,,,,,,
834318,001,2022-11-21_24h50.42.900,Info_measure_main_exp,2022.2.2,Win32,59.93766483,,,,,,,,,,,,,,,,,,masks/mask_003.jpg,,,,,,,,,,,,,,,,,,,,,,,,,,,,,,,,,,,,,,,,,,,,,,,,0,2,2,2,1,,,,,,,,,,,,,,,,,,,,,,,,,,,,,,,,,,,,,,,,,
834318,001,2022-11-21_24h50.42.900,Info_measure_main_exp,2022.2.2,Win32,59.93766483,,,,,,,,,,,,,,,,,,masks/mask_005.jpg,,,,,,,,,,,,,,,,,,,,,,,,,,,,,,,,,,,,,,,,,,,,,,,,0,3,3,4,1,,,,,,,,,,,,,,,,,,,,,,,,,,,,,,,,,,,,,,,,,
834318,001,2022-11-21_24h50.42.900,Info_measure_main_exp,2022.2.2,Win32,59.93766483,,,,,,,,,,,,,,,,,,masks/mask_001.jpg,,,,,,,,,,,,,,,,,,,,,,,,,,,,,,,,,,,,,,,,,,,,,,,,0,4,4,0,1,,,,,,,,,,,,,,,,,,,,,,,,,,,,,,,,,,,,,,,,,
834318,001,2022-11-21_24h50.42.900,Info_measure_main_exp,2022.2.2,Win32,59.93766483,,,,,,,,,,,,,,,,,,,,,,,,,,,,,,6,7.5301,1,,,,,,,,,,,,0,131,5,5,2214,2166,absent_patch/patch0002214.jpg,absent_patch/patch0002166.jpg,,,,,,,,,,,,,,,,,,,,0.150000042,0.073148127,1,0,0,response1disk,13,0,0.000925912,1,0,0,center_square,0,12,12,109,1,,,,,,,,,,,,,,,,,,,,,,,
834318,001,2022-11-21_24h50.42.900,Info_measure_main_exp,2022.2.2,Win32,59.93766483,,,,,,,,,,,,,,,,,,masks/mask_001.jpg,,,,,,,,,,,,,,,,,,,,,,,,,,,,,,,,,,,,,,,,,,,0,0,0,0,1,,,,,,,,,,,,,,,,,,,,,,,,,,,,,,,,,,,,,,,,,,,,,,
834318,001,2022-11-21_24h50.42.900,Info_measure_main_exp,2022.2.2,Win32,59.93766483,,,,,,,,,,,,,,,,,,masks/mask_003.jpg,,,,,,,,,,,,,,,,,,,,,,,,,,,,,,,,,,,,,,,,,,,0,1,1,2,1,,,,,,,,,,,,,,,,,,,,,,,,,,,,,,,,,,,,,,,,,,,,,,
834318,001,2022-11-21_24h50.42.900,Info_measure_main_exp,2022.2.2,Win32,59.93766483,,,,,,,,,,,,,,,,,,masks/mask_002.jpg,,,,,,,,,,,,,,,,,,,,,,,,,,,,,,,,,,,,,,,,,,,0,2,2,1,1,,,,,,,,,,,,,,,,,,,,,,,,,,,,,,,,,,,,,,,,,,,,,,
834318,001,2022-11-21_24h50.42.900,Info_measure_main_exp,2022.2.2,Win32,59.93766483,,,,,,,,,,,,,,,,,,masks/mask_004.jpg,,,,,,,,,,,,,,,,,,,,,,,,,,,,,,,,,,,,,,,,,,,0,3,3,3,1,,,,,,,,,,,,,,,,,,,,,,,,,,,,,,,,,,,,,,,,,,,,,,
834318,001,2022-11-21_24h50.42.900,Info_measure_main_exp,2022.2.2,Win32,59.93766483,,,,,,,,,,,,,,,,,,masks/mask_005.jpg,,,,,,,,,,,,,,,,,,,,,,,,,,,,,,,,,,,,,,,,,,,0,4,4,4,1,,,,,,,,,,,,,,,,,,,,,,,,,,,,,,,,,,,,,,,,,,,,,,
834318,001,2022-11-21_24h50.42.900,Info_measure_main_exp,2022.2.2,Win32,59.93766483,,,,,,,,,,,,,,,,,,masks/mask_002.jpg,,,,,,,,,,,,,,,,,,,,,,,,,,,,,,,,,,,,,,,,,,,,,,,,0,0,0,1,1,,,,,,,,,,,,,,,,,,,,,,,,,,,,,,,,,,,,,,,,,
834318,001,2022-11-21_24h50.42.900,Info_measure_main_exp,2022.2.2,Win32,59.93766483,,,,,,,,,,,,,,,,,,masks/mask_004.jpg,,,,,,,,,,,,,,,,,,,,,,,,,,,,,,,,,,,,,,,,,,,,,,,,0,1,1,3,1,,,,,,,,,,,,,,,,,,,,,,,,,,,,,,,,,,,,,,,,,
834318,001,2022-11-21_24h50.42.900,Info_measure_main_exp,2022.2.2,Win32,59.93766483,,,,,,,,,,,,,,,,,,masks/mask_003.jpg,,,,,,,,,,,,,,,,,,,,,,,,,,,,,,,,,,,,,,,,,,,,,,,,0,2,2,2,1,,,,,,,,,,,,,,,,,,,,,,,,,,,,,,,,,,,,,,,,,
834318,001,2022-11-21_24h50.42.900,Info_measure_main_exp,2022.2.2,Win32,59.93766483,,,,,,,,,,,,,,,,,,masks/mask_005.jpg,,,,,,,,,,,,,,,,,,,,,,,,,,,,,,,,,,,,,,,,,,,,,,,,0,3,3,4,1,,,,,,,,,,,,,,,,,,,,,,,,,,,,,,,,,,,,,,,,,
834318,001,2022-11-21_24h50.42.900,Info_measure_main_exp,2022.2.2,Win32,59.93766483,,,,,,,,,,,,,,,,,,masks/mask_001.jpg,,,,,,,,,,,,,,,,,,,,,,,,,,,,,,,,,,,,,,,,,,,,,,,,0,4,4,0,1,,,,,,,,,,,,,,,,,,,,,,,,,,,,,,,,,,,,,,,,,
834318,001,2022-11-21_24h50.42.900,Info_measure_main_exp,2022.2.2,Win32,59.93766483,,,,,,,,,,,,,,,,,,,,,,,,,,,,,,5,1.6899,1,,,,,,,,,,,,0,131,5,5,2250,2166,absent_patch/patch0002250.jpg,absent_patch/patch0002166.jpg,,,,,,,,,,,,,,,,,,,,0.106481481,-0.037037037,1,0,0,response3disk,14,0.000925912,0.010185171,1,0,0,center_square,0,13,13,60,1,,,,,,,,,,,,,,,,,,,,,,,
834318,001,2022-11-21_24h50.42.900,Info_measure_main_exp,2022.2.2,Win32,59.93766483,,,,,,,,,,,,,,,,,,masks/mask_001.jpg,,,,,,,,,,,,,,,,,,,,,,,,,,,,,,,,,,,,,,,,,,,0,0,0,0,1,,,,,,,,,,,,,,,,,,,,,,,,,,,,,,,,,,,,,,,,,,,,,,
834318,001,2022-11-21_24h50.42.900,Info_measure_main_exp,2022.2.2,Win32,59.93766483,,,,,,,,,,,,,,,,,,masks/mask_002.jpg,,,,,,,,,,,,,,,,,,,,,,,,,,,,,,,,,,,,,,,,,,,0,1,1,1,1,,,,,,,,,,,,,,,,,,,,,,,,,,,,,,,,,,,,,,,,,,,,,,
834318,001,2022-11-21_24h50.42.900,Info_measure_main_exp,2022.2.2,Win32,59.93766483,,,,,,,,,,,,,,,,,,masks/mask_003.jpg,,,,,,,,,,,,,,,,,,,,,,,,,,,,,,,,,,,,,,,,,,,0,2,2,2,1,,,,,,,,,,,,,,,,,,,,,,,,,,,,,,,,,,,,,,,,,,,,,,
834318,001,2022-11-21_24h50.42.900,Info_measure_main_exp,2022.2.2,Win32,59.93766483,,,,,,,,,,,,,,,,,,masks/mask_004.jpg,,,,,,,,,,,,,,,,,,,,,,,,,,,,,,,,,,,,,,,,,,,0,3,3,3,1,,,,,,,,,,,,,,,,,,,,,,,,,,,,,,,,,,,,,,,,,,,,,,
834318,001,2022-11-21_24h50.42.900,Info_measure_main_exp,2022.2.2,Win32,59.93766483,,,,,,,,,,,,,,,,,,masks/mask_005.jpg,,,,,,,,,,,,,,,,,,,,,,,,,,,,,,,,,,,,,,,,,,,0,4,4,4,1,,,,,,,,,,,,,,,,,,,,,,,,,,,,,,,,,,,,,,,,,,,,,,
834318,001,2022-11-21_24h50.42.900,Info_measure_main_exp,2022.2.2,Win32,59.93766483,,,,,,,,,,,,,,,,,,masks/mask_002.jpg,,,,,,,,,,,,,,,,,,,,,,,,,,,,,,,,,,,,,,,,,,,,,,,,0,0,0,1,1,,,,,,,,,,,,,,,,,,,,,,,,,,,,,,,,,,,,,,,,,
834318,001,2022-11-21_24h50.42.900,Info_measure_main_exp,2022.2.2,Win32,59.93766483,,,,,,,,,,,,,,,,,,masks/mask_001.jpg,,,,,,,,,,,,,,,,,,,,,,,,,,,,,,,,,,,,,,,,,,,,,,,,0,1,1,0,1,,,,,,,,,,,,,,,,,,,,,,,,,,,,,,,,,,,,,,,,,
834318,001,2022-11-21_24h50.42.900,Info_measure_main_exp,2022.2.2,Win32,59.93766483,,,,,,,,,,,,,,,,,,masks/mask_003.jpg,,,,,,,,,,,,,,,,,,,,,,,,,,,,,,,,,,,,,,,,,,,,,,,,0,2,2,2,1,,,,,,,,,,,,,,,,,,,,,,,,,,,,,,,,,,,,,,,,,
834318,001,2022-11-21_24h50.42.900,Info_measure_main_exp,2022.2.2,Win32,59.93766483,,,,,,,,,,,,,,,,,,masks/mask_004.jpg,,,,,,,,,,,,,,,,,,,,,,,,,,,,,,,,,,,,,,,,,,,,,,,,0,3,3,3,1,,,,,,,,,,,,,,,,,,,,,,,,,,,,,,,,,,,,,,,,,
834318,001,2022-11-21_24h50.42.900,Info_measure_main_exp,2022.2.2,Win32,59.93766483,,,,,,,,,,,,,,,,,,masks/mask_005.jpg,,,,,,,,,,,,,,,,,,,,,,,,,,,,,,,,,,,,,,,,,,,,,,,,0,4,4,4,1,,,,,,,,,,,,,,,,,,,,,,,,,,,,,,,,,,,,,,,,,
834318,001,2022-11-21_24h50.42.900,Info_measure_main_exp,2022.2.2,Win32,59.93766483,,,,,,,,,,,,,,,,,,,,,,,,,,,,,,4,1.4336,1,,,,,,,,,,,,1,131,5,5,1,2178,present_patch/cong_131_5_a.jpg,absent_patch/patch0002178.jpg,,,,,,,,,,,,,,,,,,,,0.053703732,-0.10555557,1,0,0,response3disk,15,-0.000925912,-0.003703718,1,0,0,center_square,0,14,14,40,1,,,,,,,,,,,,,,,,,,,,,,,
834318,001,2022-11-21_24h50.42.900,Info_measure_main_exp,2022.2.2,Win32,59.93766483,,,,,,,,,,,,,,,,,,masks/mask_005.jpg,,,,,,,,,,,,,,,,,,,,,,,,,,,,,,,,,,,,,,,,,,,0,0,0,4,1,,,,,,,,,,,,,,,,,,,,,,,,,,,,,,,,,,,,,,,,,,,,,,
834318,001,2022-11-21_24h50.42.900,Info_measure_main_exp,2022.2.2,Win32,59.93766483,,,,,,,,,,,,,,,,,,masks/mask_002.jpg,,,,,,,,,,,,,,,,,,,,,,,,,,,,,,,,,,,,,,,,,,,0,1,1,1,1,,,,,,,,,,,,,,,,,,,,,,,,,,,,,,,,,,,,,,,,,,,,,,
834318,001,2022-11-21_24h50.42.900,Info_measure_main_exp,2022.2.2,Win32,59.93766483,,,,,,,,,,,,,,,,,,masks/mask_003.jpg,,,,,,,,,,,,,,,,,,,,,,,,,,,,,,,,,,,,,,,,,,,0,2,2,2,1,,,,,,,,,,,,,,,,,,,,,,,,,,,,,,,,,,,,,,,,,,,,,,
834318,001,2022-11-21_24h50.42.900,Info_measure_main_exp,2022.2.2,Win32,59.93766483,,,,,,,,,,,,,,,,,,masks/mask_001.jpg,,,,,,,,,,,,,,,,,,,,,,,,,,,,,,,,,,,,,,,,,,,0,3,3,0,1,,,,,,,,,,,,,,,,,,,,,,,,,,,,,,,,,,,,,,,,,,,,,,
834318,001,2022-11-21_24h50.42.900,Info_measure_main_exp,2022.2.2,Win32,59.93766483,,,,,,,,,,,,,,,,,,masks/mask_004.jpg,,,,,,,,,,,,,,,,,,,,,,,,,,,,,,,,,,,,,,,,,,,0,4,4,3,1,,,,,,,,,,,,,,,,,,,,,,,,,,,,,,,,,,,,,,,,,,,,,,
834318,001,2022-11-21_24h50.42.900,Info_measure_main_exp,2022.2.2,Win32,59.93766483,,,,,,,,,,,,,,,,,,masks/mask_001.jpg,,,,,,,,,,,,,,,,,,,,,,,,,,,,,,,,,,,,,,,,,,,,,,,,0,0,0,0,1,,,,,,,,,,,,,,,,,,,,,,,,,,,,,,,,,,,,,,,,,
834318,001,2022-11-21_24h50.42.900,Info_measure_main_exp,2022.2.2,Win32,59.93766483,,,,,,,,,,,,,,,,,,masks/mask_004.jpg,,,,,,,,,,,,,,,,,,,,,,,,,,,,,,,,,,,,,,,,,,,,,,,,0,1,1,3,1,,,,,,,,,,,,,,,,,,,,,,,,,,,,,,,,,,,,,,,,,
834318,001,2022-11-21_24h50.42.900,Info_measure_main_exp,2022.2.2,Win32,59.93766483,,,,,,,,,,,,,,,,,,masks/mask_002.jpg,,,,,,,,,,,,,,,,,,,,,,,,,,,,,,,,,,,,,,,,,,,,,,,,0,2,2,1,1,,,,,,,,,,,,,,,,,,,,,,,,,,,,,,,,,,,,,,,,,
834318,001,2022-11-21_24h50.42.900,Info_measure_main_exp,2022.2.2,Win32,59.93766483,,,,,,,,,,,,,,,,,,masks/mask_005.jpg,,,,,,,,,,,,,,,,,,,,,,,,,,,,,,,,,,,,,,,,,,,,,,,,0,3,3,4,1,,,,,,,,,,,,,,,,,,,,,,,,,,,,,,,,,,,,,,,,,
834318,001,2022-11-21_24h50.42.900,Info_measure_main_exp,2022.2.2,Win32,59.93766483,,,,,,,,,,,,,,,,,,masks/mask_003.jpg,,,,,,,,,,,,,,,,,,,,,,,,,,,,,,,,,,,,,,,,,,,,,,,,0,4,4,2,1,,,,,,,,,,,,,,,,,,,,,,,,,,,,,,,,,,,,,,,,,
834318,001,2022-11-21_24h50.42.900,Info_measure_main_exp,2022.2.2,Win32,59.93766483,,,,,,,,,,,,,,,,,,,,,,,,,,,,,,6,1.6521,1,,,,,,,,,,,,0,131,5,5,1986,2142,absent_patch/patch0001986.jpg,absent_patch/patch0002142.jpg,,,,,,,,,,,,,,,,,,,,0.140740783,0.087962963,1,0,0,response1disk,16,0,-0.003703718,1,0,0,center_square,0,15,15,76,1,,,,,,,,,,,,,,,,,,,,,,,
834318,001,2022-11-21_24h50.42.900,Info_measure_main_exp,2022.2.2,Win32,59.93766483,,,,,,,,,,,,,,,,,,masks/mask_003.jpg,,,,,,,,,,,,,,,,,,,,,,,,,,,,,,,,,,,,,,,,,,,0,0,0,2,1,,,,,,,,,,,,,,,,,,,,,,,,,,,,,,,,,,,,,,,,,,,,,,
834318,001,2022-11-21_24h50.42.900,Info_measure_main_exp,2022.2.2,Win32,59.93766483,,,,,,,,,,,,,,,,,,masks/mask_001.jpg,,,,,,,,,,,,,,,,,,,,,,,,,,,,,,,,,,,,,,,,,,,0,1,1,0,1,,,,,,,,,,,,,,,,,,,,,,,,,,,,,,,,,,,,,,,,,,,,,,
834318,001,2022-11-21_24h50.42.900,Info_measure_main_exp,2022.2.2,Win32,59.93766483,,,,,,,,,,,,,,,,,,masks/mask_004.jpg,,,,,,,,,,,,,,,,,,,,,,,,,,,,,,,,,,,,,,,,,,,0,2,2,3,1,,,,,,,,,,,,,,,,,,,,,,,,,,,,,,,,,,,,,,,,,,,,,,
834318,001,2022-11-21_24h50.42.900,Info_measure_main_exp,2022.2.2,Win32,59.93766483,,,,,,,,,,,,,,,,,,masks/mask_002.jpg,,,,,,,,,,,,,,,,,,,,,,,,,,,,,,,,,,,,,,,,,,,0,3,3,1,1,,,,,,,,,,,,,,,,,,,,,,,,,,,,,,,,,,,,,,,,,,,,,,
834318,001,2022-11-21_24h50.42.900,Info_measure_main_exp,2022.2.2,Win32,59.93766483,,,,,,,,,,,,,,,,,,masks/mask_005.jpg,,,,,,,,,,,,,,,,,,,,,,,,,,,,,,,,,,,,,,,,,,,0,4,4,4,1,,,,,,,,,,,,,,,,,,,,,,,,,,,,,,,,,,,,,,,,,,,,,,
834318,001,2022-11-21_24h50.42.900,Info_measure_main_exp,2022.2.2,Win32,59.93766483,,,,,,,,,,,,,,,,,,masks/mask_004.jpg,,,,,,,,,,,,,,,,,,,,,,,,,,,,,,,,,,,,,,,,,,,,,,,,0,0,0,3,1,,,,,,,,,,,,,,,,,,,,,,,,,,,,,,,,,,,,,,,,,
834318,001,2022-11-21_24h50.42.900,Info_measure_main_exp,2022.2.2,Win32,59.93766483,,,,,,,,,,,,,,,,,,masks/mask_005.jpg,,,,,,,,,,,,,,,,,,,,,,,,,,,,,,,,,,,,,,,,,,,,,,,,0,1,1,4,1,,,,,,,,,,,,,,,,,,,,,,,,,,,,,,,,,,,,,,,,,
834318,001,2022-11-21_24h50.42.900,Info_measure_main_exp,2022.2.2,Win32,59.93766483,,,,,,,,,,,,,,,,,,masks/mask_003.jpg,,,,,,,,,,,,,,,,,,,,,,,,,,,,,,,,,,,,,,,,,,,,,,,,0,2,2,2,1,,,,,,,,,,,,,,,,,,,,,,,,,,,,,,,,,,,,,,,,,
834318,001,2022-11-21_24h50.42.900,Info_measure_main_exp,2022.2.2,Win32,59.93766483,,,,,,,,,,,,,,,,,,masks/mask_001.jpg,,,,,,,,,,,,,,,,,,,,,,,,,,,,,,,,,,,,,,,,,,,,,,,,0,3,3,0,1,,,,,,,,,,,,,,,,,,,,,,,,,,,,,,,,,,,,,,,,,
834318,001,2022-11-21_24h50.42.900,Info_measure_main_exp,2022.2.2,Win32,59.93766483,,,,,,,,,,,,,,,,,,masks/mask_002.jpg,,,,,,,,,,,,,,,,,,,,,,,,,,,,,,,,,,,,,,,,,,,,,,,,0,4,4,1,1,,,,,,,,,,,,,,,,,,,,,,,,,,,,,,,,,,,,,,,,,
834318,001,2022-11-21_24h50.42.900,Info_measure_main_exp,2022.2.2,Win32,59.93766483,,,,,,,,,,,,,,,,,,,,,,,,,,,,,,6,3.2717,1,,,,,,,,,,,,0,131,5,5,2154,2298,absent_patch/patch0002154.jpg,absent_patch/patch0002298.jpg,,,,,,,,,,,,,,,,,,,,0.125,0.055555556,1,0,0,response1disk,17,0.011111153,0.011111118,1,0,0,center_square,0,16,16,27,1,,,,,,,,,,,,,,,,,,,,,,,
834318,001,2022-11-21_24h50.42.900,Info_measure_main_exp,2022.2.2,Win32,59.93766483,,,,,,,,,,,,,,,,,,masks/mask_003.jpg,,,,,,,,,,,,,,,,,,,,,,,,,,,,,,,,,,,,,,,,,,,0,0,0,2,1,,,,,,,,,,,,,,,,,,,,,,,,,,,,,,,,,,,,,,,,,,,,,,
834318,001,2022-11-21_24h50.42.900,Info_measure_main_exp,2022.2.2,Win32,59.93766483,,,,,,,,,,,,,,,,,,masks/mask_001.jpg,,,,,,,,,,,,,,,,,,,,,,,,,,,,,,,,,,,,,,,,,,,0,1,1,0,1,,,,,,,,,,,,,,,,,,,,,,,,,,,,,,,,,,,,,,,,,,,,,,
834318,001,2022-11-21_24h50.42.900,Info_measure_main_exp,2022.2.2,Win32,59.93766483,,,,,,,,,,,,,,,,,,masks/mask_002.jpg,,,,,,,,,,,,,,,,,,,,,,,,,,,,,,,,,,,,,,,,,,,0,2,2,1,1,,,,,,,,,,,,,,,,,,,,,,,,,,,,,,,,,,,,,,,,,,,,,,
834318,001,2022-11-21_24h50.42.900,Info_measure_main_exp,2022.2.2,Win32,59.93766483,,,,,,,,,,,,,,,,,,masks/mask_004.jpg,,,,,,,,,,,,,,,,,,,,,,,,,,,,,,,,,,,,,,,,,,,0,3,3,3,1,,,,,,,,,,,,,,,,,,,,,,,,,,,,,,,,,,,,,,,,,,,,,,
834318,001,2022-11-21_24h50.42.900,Info_measure_main_exp,2022.2.2,Win32,59.93766483,,,,,,,,,,,,,,,,,,masks/mask_005.jpg,,,,,,,,,,,,,,,,,,,,,,,,,,,,,,,,,,,,,,,,,,,0,4,4,4,1,,,,,,,,,,,,,,,,,,,,,,,,,,,,,,,,,,,,,,,,,,,,,,
834318,001,2022-11-21_24h50.42.900,Info_measure_main_exp,2022.2.2,Win32,59.93766483,,,,,,,,,,,,,,,,,,masks/mask_004.jpg,,,,,,,,,,,,,,,,,,,,,,,,,,,,,,,,,,,,,,,,,,,,,,,,0,0,0,3,1,,,,,,,,,,,,,,,,,,,,,,,,,,,,,,,,,,,,,,,,,
834318,001,2022-11-21_24h50.42.900,Info_measure_main_exp,2022.2.2,Win32,59.93766483,,,,,,,,,,,,,,,,,,masks/mask_001.jpg,,,,,,,,,,,,,,,,,,,,,,,,,,,,,,,,,,,,,,,,,,,,,,,,0,1,1,0,1,,,,,,,,,,,,,,,,,,,,,,,,,,,,,,,,,,,,,,,,,
834318,001,2022-11-21_24h50.42.900,Info_measure_main_exp,2022.2.2,Win32,59.93766483,,,,,,,,,,,,,,,,,,masks/mask_003.jpg,,,,,,,,,,,,,,,,,,,,,,,,,,,,,,,,,,,,,,,,,,,,,,,,0,2,2,2,1,,,,,,,,,,,,,,,,,,,,,,,,,,,,,,,,,,,,,,,,,
834318,001,2022-11-21_24h50.42.900,Info_measure_main_exp,2022.2.2,Win32,59.93766483,,,,,,,,,,,,,,,,,,masks/mask_005.jpg,,,,,,,,,,,,,,,,,,,,,,,,,,,,,,,,,,,,,,,,,,,,,,,,0,3,3,4,1,,,,,,,,,,,,,,,,,,,,,,,,,,,,,,,,,,,,,,,,,
834318,001,2022-11-21_24h50.42.900,Info_measure_main_exp,2022.2.2,Win32,59.93766483,,,,,,,,,,,,,,,,,,masks/mask_002.jpg,,,,,,,,,,,,,,,,,,,,,,,,,,,,,,,,,,,,,,,,,,,,,,,,0,4,4,1,1,,,,,,,,,,,,,,,,,,,,,,,,,,,,,,,,,,,,,,,,,
834318,001,2022-11-21_24h50.42.900,Info_measure_main_exp,2022.2.2,Win32,59.93766483,,,,,,,,,,,,,,,,,,,,,,,,,,,,,,5,2.3317,1,,,,,,,,,,,,1,131,5,5,1,2274,present_patch/cong_131_5_a.jpg,absent_patch/patch0002274.jpg,,,,,,,,,,,,,,,,,,,,0.10555557,-0.070370392,1,0,0,response3disk,18,0.010185171,-0.005555577,1,0,0,center_square,0,17,17,105,1,,,,,,,,,,,,,,,,,,,,,,,
834318,001,2022-11-21_24h50.42.900,Info_measure_main_exp,2022.2.2,Win32,59.93766483,,,,,,,,,,,,,,,,,,masks/mask_004.jpg,,,,,,,,,,,,,,,,,,,,,,,,,,,,,,,,,,,,,,,,,,,0,0,0,3,1,,,,,,,,,,,,,,,,,,,,,,,,,,,,,,,,,,,,,,,,,,,,,,
834318,001,2022-11-21_24h50.42.900,Info_measure_main_exp,2022.2.2,Win32,59.93766483,,,,,,,,,,,,,,,,,,masks/mask_001.jpg,,,,,,,,,,,,,,,,,,,,,,,,,,,,,,,,,,,,,,,,,,,0,1,1,0,1,,,,,,,,,,,,,,,,,,,,,,,,,,,,,,,,,,,,,,,,,,,,,,
834318,001,2022-11-21_24h50.42.900,Info_measure_main_exp,2022.2.2,Win32,59.93766483,,,,,,,,,,,,,,,,,,masks/mask_005.jpg,,,,,,,,,,,,,,,,,,,,,,,,,,,,,,,,,,,,,,,,,,,0,2,2,4,1,,,,,,,,,,,,,,,,,,,,,,,,,,,,,,,,,,,,,,,,,,,,,,
834318,001,2022-11-21_24h50.42.900,Info_measure_main_exp,2022.2.2,Win32,59.93766483,,,,,,,,,,,,,,,,,,masks/mask_003.jpg,,,,,,,,,,,,,,,,,,,,,,,,,,,,,,,,,,,,,,,,,,,0,3,3,2,1,,,,,,,,,,,,,,,,,,,,,,,,,,,,,,,,,,,,,,,,,,,,,,
834318,001,2022-11-21_24h50.42.900,Info_measure_main_exp,2022.2.2,Win32,59.93766483,,,,,,,,,,,,,,,,,,masks/mask_002.jpg,,,,,,,,,,,,,,,,,,,,,,,,,,,,,,,,,,,,,,,,,,,0,4,4,1,1,,,,,,,,,,,,,,,,,,,,,,,,,,,,,,,,,,,,,,,,,,,,,,
834318,001,2022-11-21_24h50.42.900,Info_measure_main_exp,2022.2.2,Win32,59.93766483,,,,,,,,,,,,,,,,,,masks/mask_005.jpg,,,,,,,,,,,,,,,,,,,,,,,,,,,,,,,,,,,,,,,,,,,,,,,,0,0,0,4,1,,,,,,,,,,,,,,,,,,,,,,,,,,,,,,,,,,,,,,,,,
834318,001,2022-11-21_24h50.42.900,Info_measure_main_exp,2022.2.2,Win32,59.93766483,,,,,,,,,,,,,,,,,,masks/mask_003.jpg,,,,,,,,,,,,,,,,,,,,,,,,,,,,,,,,,,,,,,,,,,,,,,,,0,1,1,2,1,,,,,,,,,,,,,,,,,,,,,,,,,,,,,,,,,,,,,,,,,
834318,001,2022-11-21_24h50.42.900,Info_measure_main_exp,2022.2.2,Win32,59.93766483,,,,,,,,,,,,,,,,,,masks/mask_004.jpg,,,,,,,,,,,,,,,,,,,,,,,,,,,,,,,,,,,,,,,,,,,,,,,,0,2,2,3,1,,,,,,,,,,,,,,,,,,,,,,,,,,,,,,,,,,,,,,,,,
834318,001,2022-11-21_24h50.42.900,Info_measure_main_exp,2022.2.2,Win32,59.93766483,,,,,,,,,,,,,,,,,,masks/mask_001.jpg,,,,,,,,,,,,,,,,,,,,,,,,,,,,,,,,,,,,,,,,,,,,,,,,0,3,3,0,1,,,,,,,,,,,,,,,,,,,,,,,,,,,,,,,,,,,,,,,,,
834318,001,2022-11-21_24h50.42.900,Info_measure_main_exp,2022.2.2,Win32,59.93766483,,,,,,,,,,,,,,,,,,masks/mask_002.jpg,,,,,,,,,,,,,,,,,,,,,,,,,,,,,,,,,,,,,,,,,,,,,,,,0,4,4,1,1,,,,,,,,,,,,,,,,,,,,,,,,,,,,,,,,,,,,,,,,,
834318,001,2022-11-21_24h50.42.900,Info_measure_main_exp,2022.2.2,Win32,59.93766483,,,,,,,,,,,,,,,,,,,,,,,,,,,,,,7,1.366,1,,,,,,,,,,,,0,131,5,5,2298,2142,absent_patch/patch0002298.jpg,absent_patch/patch0002142.jpg,,,,,,,,,,,,,,,,,,,,0.048148191,0.091666645,1,0,0,response1disk,19,0.007407436,0.00462963,1,0,0,center_square,0,18,18,49,1,,,,,,,,,,,,,,,,,,,,,,,
834318,001,2022-11-21_24h50.42.900,Info_measure_main_exp,2022.2.2,Win32,59.93766483,,,,,,,,,,,,,,,,,,masks/mask_003.jpg,,,,,,,,,,,,,,,,,,,,,,,,,,,,,,,,,,,,,,,,,,,0,0,0,2,1,,,,,,,,,,,,,,,,,,,,,,,,,,,,,,,,,,,,,,,,,,,,,,
834318,001,2022-11-21_24h50.42.900,Info_measure_main_exp,2022.2.2,Win32,59.93766483,,,,,,,,,,,,,,,,,,masks/mask_005.jpg,,,,,,,,,,,,,,,,,,,,,,,,,,,,,,,,,,,,,,,,,,,0,1,1,4,1,,,,,,,,,,,,,,,,,,,,,,,,,,,,,,,,,,,,,,,,,,,,,,
834318,001,2022-11-21_24h50.42.900,Info_measure_main_exp,2022.2.2,Win32,59.93766483,,,,,,,,,,,,,,,,,,masks/mask_004.jpg,,,,,,,,,,,,,,,,,,,,,,,,,,,,,,,,,,,,,,,,,,,0,2,2,3,1,,,,,,,,,,,,,,,,,,,,,,,,,,,,,,,,,,,,,,,,,,,,,,
834318,001,2022-11-21_24h50.42.900,Info_measure_main_exp,2022.2.2,Win32,59.93766483,,,,,,,,,,,,,,,,,,masks/mask_001.jpg,,,,,,,,,,,,,,,,,,,,,,,,,,,,,,,,,,,,,,,,,,,0,3,3,0,1,,,,,,,,,,,,,,,,,,,,,,,,,,,,,,,,,,,,,,,,,,,,,,
834318,001,2022-11-21_24h50.42.900,Info_measure_main_exp,2022.2.2,Win32,59.93766483,,,,,,,,,,,,,,,,,,masks/mask_002.jpg,,,,,,,,,,,,,,,,,,,,,,,,,,,,,,,,,,,,,,,,,,,0,4,4,1,1,,,,,,,,,,,,,,,,,,,,,,,,,,,,,,,,,,,,,,,,,,,,,,
834318,001,2022-11-21_24h50.42.900,Info_measure_main_exp,2022.2.2,Win32,59.93766483,,,,,,,,,,,,,,,,,,masks/mask_005.jpg,,,,,,,,,,,,,,,,,,,,,,,,,,,,,,,,,,,,,,,,,,,,,,,,0,0,0,4,1,,,,,,,,,,,,,,,,,,,,,,,,,,,,,,,,,,,,,,,,,
834318,001,2022-11-21_24h50.42.900,Info_measure_main_exp,2022.2.2,Win32,59.93766483,,,,,,,,,,,,,,,,,,masks/mask_002.jpg,,,,,,,,,,,,,,,,,,,,,,,,,,,,,,,,,,,,,,,,,,,,,,,,0,1,1,1,1,,,,,,,,,,,,,,,,,,,,,,,,,,,,,,,,,,,,,,,,,
834318,001,2022-11-21_24h50.42.900,Info_measure_main_exp,2022.2.2,Win32,59.93766483,,,,,,,,,,,,,,,,,,masks/mask_004.jpg,,,,,,,,,,,,,,,,,,,,,,,,,,,,,,,,,,,,,,,,,,,,,,,,0,2,2,3,1,,,,,,,,,,,,,,,,,,,,,,,,,,,,,,,,,,,,,,,,,
834318,001,2022-11-21_24h50.42.900,Info_measure_main_exp,2022.2.2,Win32,59.93766483,,,,,,,,,,,,,,,,,,masks/mask_001.jpg,,,,,,,,,,,,,,,,,,,,,,,,,,,,,,,,,,,,,,,,,,,,,,,,0,3,3,0,1,,,,,,,,,,,,,,,,,,,,,,,,,,,,,,,,,,,,,,,,,
834318,001,2022-11-21_24h50.42.900,Info_measure_main_exp,2022.2.2,Win32,59.93766483,,,,,,,,,,,,,,,,,,masks/mask_003.jpg,,,,,,,,,,,,,,,,,,,,,,,,,,,,,,,,,,,,,,,,,,,,,,,,0,4,4,2,1,,,,,,,,,,,,,,,,,,,,,,,,,,,,,,,,,,,,,,,,,
834318,001,2022-11-21_24h50.42.900,Info_measure_main_exp,2022.2.2,Win32,59.93766483,,,,,,,,,,,,,,,,,,,,,,,,,,,,,,6,1.0067,1,,,,,,,,,,,,0,131,5,5,2274,2154,absent_patch/patch0002274.jpg,absent_patch/patch0002154.jpg,,,,,,,,,,,,,,,,,,,,0.069444444,0.03611109,1,0,0,response1disk,20,0.00462963,0.003703683,1,0,0,center_square,0,19,19,23,1,,,,,,,,,,,,,,,,,,,,,,,
834318,001,2022-11-21_24h50.42.900,Info_measure_main_exp,2022.2.2,Win32,59.93766483,,,,,,,,,,,,,,,,,,masks/mask_004.jpg,,,,,,,,,,,,,,,,,,,,,,,,,,,,,,,,,,,,,,,,,,,0,0,0,3,1,,,,,,,,,,,,,,,,,,,,,,,,,,,,,,,,,,,,,,,,,,,,,,
834318,001,2022-11-21_24h50.42.900,Info_measure_main_exp,2022.2.2,Win32,59.93766483,,,,,,,,,,,,,,,,,,masks/mask_005.jpg,,,,,,,,,,,,,,,,,,,,,,,,,,,,,,,,,,,,,,,,,,,0,1,1,4,1,,,,,,,,,,,,,,,,,,,,,,,,,,,,,,,,,,,,,,,,,,,,,,
834318,001,2022-11-21_24h50.42.900,Info_measure_main_exp,2022.2.2,Win32,59.93766483,,,,,,,,,,,,,,,,,,masks/mask_001.jpg,,,,,,,,,,,,,,,,,,,,,,,,,,,,,,,,,,,,,,,,,,,0,2,2,0,1,,,,,,,,,,,,,,,,,,,,,,,,,,,,,,,,,,,,,,,,,,,,,,
834318,001,2022-11-21_24h50.42.900,Info_measure_main_exp,2022.2.2,Win32,59.93766483,,,,,,,,,,,,,,,,,,masks/mask_002.jpg,,,,,,,,,,,,,,,,,,,,,,,,,,,,,,,,,,,,,,,,,,,0,3,3,1,1,,,,,,,,,,,,,,,,,,,,,,,,,,,,,,,,,,,,,,,,,,,,,,
834318,001,2022-11-21_24h50.42.900,Info_measure_main_exp,2022.2.2,Win32,59.93766483,,,,,,,,,,,,,,,,,,masks/mask_003.jpg,,,,,,,,,,,,,,,,,,,,,,,,,,,,,,,,,,,,,,,,,,,0,4,4,2,1,,,,,,,,,,,,,,,,,,,,,,,,,,,,,,,,,,,,,,,,,,,,,,
834318,001,2022-11-21_24h50.42.900,Info_measure_main_exp,2022.2.2,Win32,59.93766483,,,,,,,,,,,,,,,,,,masks/mask_005.jpg,,,,,,,,,,,,,,,,,,,,,,,,,,,,,,,,,,,,,,,,,,,,,,,,0,0,0,4,1,,,,,,,,,,,,,,,,,,,,,,,,,,,,,,,,,,,,,,,,,
834318,001,2022-11-21_24h50.42.900,Info_measure_main_exp,2022.2.2,Win32,59.93766483,,,,,,,,,,,,,,,,,,masks/mask_004.jpg,,,,,,,,,,,,,,,,,,,,,,,,,,,,,,,,,,,,,,,,,,,,,,,,0,1,1,3,1,,,,,,,,,,,,,,,,,,,,,,,,,,,,,,,,,,,,,,,,,
834318,001,2022-11-21_24h50.42.900,Info_measure_main_exp,2022.2.2,Win32,59.93766483,,,,,,,,,,,,,,,,,,masks/mask_002.jpg,,,,,,,,,,,,,,,,,,,,,,,,,,,,,,,,,,,,,,,,,,,,,,,,0,2,2,1,1,,,,,,,,,,,,,,,,,,,,,,,,,,,,,,,,,,,,,,,,,
834318,001,2022-11-21_24h50.42.900,Info_measure_main_exp,2022.2.2,Win32,59.93766483,,,,,,,,,,,,,,,,,,masks/mask_001.jpg,,,,,,,,,,,,,,,,,,,,,,,,,,,,,,,,,,,,,,,,,,,,,,,,0,3,3,0,1,,,,,,,,,,,,,,,,,,,,,,,,,,,,,,,,,,,,,,,,,
834318,001,2022-11-21_24h50.42.900,Info_measure_main_exp,2022.2.2,Win32,59.93766483,,,,,,,,,,,,,,,,,,masks/mask_003.jpg,,,,,,,,,,,,,,,,,,,,,,,,,,,,,,,,,,,,,,,,,,,,,,,,0,4,4,2,1,,,,,,,,,,,,,,,,,,,,,,,,,,,,,,,,,,,,,,,,,
834318,001,2022-11-21_24h50.42.900,Info_measure_main_exp,2022.2.2,Win32,59.93766483,,,,,,,,,,,,,,,,,,,,,,,,,,,,,,2,2.0322,1,,,,,,,,,,,,0,131,5,5,1986,2154,absent_patch/patch0001986.jpg,absent_patch/patch0002154.jpg,,,,,,,,,,,,,,,,,,,,-0.070370356,-0.069444444,1,0,0,response5disk,21,0.008333347,0.001851859,1,0,0,center_square,0,20,20,36,1,,,,,,,,,,,,,,,,,,,,,,,
834318,001,2022-11-21_24h50.42.900,Info_measure_main_exp,2022.2.2,Win32,59.93766483,,,,,,,,,,,,,,,,,,masks/mask_001.jpg,,,,,,,,,,,,,,,,,,,,,,,,,,,,,,,,,,,,,,,,,,,0,0,0,0,1,,,,,,,,,,,,,,,,,,,,,,,,,,,,,,,,,,,,,,,,,,,,,,
834318,001,2022-11-21_24h50.42.900,Info_measure_main_exp,2022.2.2,Win32,59.93766483,,,,,,,,,,,,,,,,,,masks/mask_003.jpg,,,,,,,,,,,,,,,,,,,,,,,,,,,,,,,,,,,,,,,,,,,0,1,1,2,1,,,,,,,,,,,,,,,,,,,,,,,,,,,,,,,,,,,,,,,,,,,,,,
834318,001,2022-11-21_24h50.42.900,Info_measure_main_exp,2022.2.2,Win32,59.93766483,,,,,,,,,,,,,,,,,,masks/mask_005.jpg,,,,,,,,,,,,,,,,,,,,,,,,,,,,,,,,,,,,,,,,,,,0,2,2,4,1,,,,,,,,,,,,,,,,,,,,,,,,,,,,,,,,,,,,,,,,,,,,,,
834318,001,2022-11-21_24h50.42.900,Info_measure_main_exp,2022.2.2,Win32,59.93766483,,,,,,,,,,,,,,,,,,masks/mask_002.jpg,,,,,,,,,,,,,,,,,,,,,,,,,,,,,,,,,,,,,,,,,,,0,3,3,1,1,,,,,,,,,,,,,,,,,,,,,,,,,,,,,,,,,,,,,,,,,,,,,,
834318,001,2022-11-21_24h50.42.900,Info_measure_main_exp,2022.2.2,Win32,59.93766483,,,,,,,,,,,,,,,,,,masks/mask_004.jpg,,,,,,,,,,,,,,,,,,,,,,,,,,,,,,,,,,,,,,,,,,,0,4,4,3,1,,,,,,,,,,,,,,,,,,,,,,,,,,,,,,,,,,,,,,,,,,,,,,
834318,001,2022-11-21_24h50.42.900,Info_measure_main_exp,2022.2.2,Win32,59.93766483,,,,,,,,,,,,,,,,,,masks/mask_001.jpg,,,,,,,,,,,,,,,,,,,,,,,,,,,,,,,,,,,,,,,,,,,,,,,,0,0,0,0,1,,,,,,,,,,,,,,,,,,,,,,,,,,,,,,,,,,,,,,,,,
834318,001,2022-11-21_24h50.42.900,Info_measure_main_exp,2022.2.2,Win32,59.93766483,,,,,,,,,,,,,,,,,,masks/mask_002.jpg,,,,,,,,,,,,,,,,,,,,,,,,,,,,,,,,,,,,,,,,,,,,,,,,0,1,1,1,1,,,,,,,,,,,,,,,,,,,,,,,,,,,,,,,,,,,,,,,,,
834318,001,2022-11-21_24h50.42.900,Info_measure_main_exp,2022.2.2,Win32,59.93766483,,,,,,,,,,,,,,,,,,masks/mask_005.jpg,,,,,,,,,,,,,,,,,,,,,,,,,,,,,,,,,,,,,,,,,,,,,,,,0,2,2,4,1,,,,,,,,,,,,,,,,,,,,,,,,,,,,,,,,,,,,,,,,,
834318,001,2022-11-21_24h50.42.900,Info_measure_main_exp,2022.2.2,Win32,59.93766483,,,,,,,,,,,,,,,,,,masks/mask_004.jpg,,,,,,,,,,,,,,,,,,,,,,,,,,,,,,,,,,,,,,,,,,,,,,,,0,3,3,3,1,,,,,,,,,,,,,,,,,,,,,,,,,,,,,,,,,,,,,,,,,
834318,001,2022-11-21_24h50.42.900,Info_measure_main_exp,2022.2.2,Win32,59.93766483,,,,,,,,,,,,,,,,,,masks/mask_003.jpg,,,,,,,,,,,,,,,,,,,,,,,,,,,,,,,,,,,,,,,,,,,,,,,,0,4,4,2,1,,,,,,,,,,,,,,,,,,,,,,,,,,,,,,,,,,,,,,,,,
834318,001,2022-11-21_24h50.42.900,Info_measure_main_exp,2022.2.2,Win32,59.93766483,,,,,,,,,,,,,,,,,,,,,,,,,,,,,,0,0.7995,1,,,,,,,,,,,,0,131,5,5,2154,2154,absent_patch/patch0002154.jpg,absent_patch/patch0002154.jpg,,,,,,,,,,,,,,,,,,,,-0.021296254,0.092592593,1,0,0,response7disk,22,-0.010185171,0.013888889,1,0,0,center_square,0,21,21,89,1,,,,,,,,,,,,,,,,,,,,,,,
834318,001,2022-11-21_24h50.42.900,Info_measure_main_exp,2022.2.2,Win32,59.93766483,,,,,,,,,,,,,,,,,,masks/mask_003.jpg,,,,,,,,,,,,,,,,,,,,,,,,,,,,,,,,,,,,,,,,,,,0,0,0,2,1,,,,,,,,,,,,,,,,,,,,,,,,,,,,,,,,,,,,,,,,,,,,,,
834318,001,2022-11-21_24h50.42.900,Info_measure_main_exp,2022.2.2,Win32,59.93766483,,,,,,,,,,,,,,,,,,masks/mask_005.jpg,,,,,,,,,,,,,,,,,,,,,,,,,,,,,,,,,,,,,,,,,,,0,1,1,4,1,,,,,,,,,,,,,,,,,,,,,,,,,,,,,,,,,,,,,,,,,,,,,,
834318,001,2022-11-21_24h50.42.900,Info_measure_main_exp,2022.2.2,Win32,59.93766483,,,,,,,,,,,,,,,,,,masks/mask_001.jpg,,,,,,,,,,,,,,,,,,,,,,,,,,,,,,,,,,,,,,,,,,,0,2,2,0,1,,,,,,,,,,,,,,,,,,,,,,,,,,,,,,,,,,,,,,,,,,,,,,
834318,001,2022-11-21_24h50.42.900,Info_measure_main_exp,2022.2.2,Win32,59.93766483,,,,,,,,,,,,,,,,,,masks/mask_002.jpg,,,,,,,,,,,,,,,,,,,,,,,,,,,,,,,,,,,,,,,,,,,0,3,3,1,1,,,,,,,,,,,,,,,,,,,,,,,,,,,,,,,,,,,,,,,,,,,,,,
834318,001,2022-11-21_24h50.42.900,Info_measure_main_exp,2022.2.2,Win32,59.93766483,,,,,,,,,,,,,,,,,,masks/mask_004.jpg,,,,,,,,,,,,,,,,,,,,,,,,,,,,,,,,,,,,,,,,,,,0,4,4,3,1,,,,,,,,,,,,,,,,,,,,,,,,,,,,,,,,,,,,,,,,,,,,,,
834318,001,2022-11-21_24h50.42.900,Info_measure_main_exp,2022.2.2,Win32,59.93766483,,,,,,,,,,,,,,,,,,masks/mask_004.jpg,,,,,,,,,,,,,,,,,,,,,,,,,,,,,,,,,,,,,,,,,,,,,,,,0,0,0,3,1,,,,,,,,,,,,,,,,,,,,,,,,,,,,,,,,,,,,,,,,,
834318,001,2022-11-21_24h50.42.900,Info_measure_main_exp,2022.2.2,Win32,59.93766483,,,,,,,,,,,,,,,,,,masks/mask_002.jpg,,,,,,,,,,,,,,,,,,,,,,,,,,,,,,,,,,,,,,,,,,,,,,,,0,1,1,1,1,,,,,,,,,,,,,,,,,,,,,,,,,,,,,,,,,,,,,,,,,
834318,001,2022-11-21_24h50.42.900,Info_measure_main_exp,2022.2.2,Win32,59.93766483,,,,,,,,,,,,,,,,,,masks/mask_001.jpg,,,,,,,,,,,,,,,,,,,,,,,,,,,,,,,,,,,,,,,,,,,,,,,,0,2,2,0,1,,,,,,,,,,,,,,,,,,,,,,,,,,,,,,,,,,,,,,,,,
834318,001,2022-11-21_24h50.42.900,Info_measure_main_exp,2022.2.2,Win32,59.93766483,,,,,,,,,,,,,,,,,,masks/mask_005.jpg,,,,,,,,,,,,,,,,,,,,,,,,,,,,,,,,,,,,,,,,,,,,,,,,0,3,3,4,1,,,,,,,,,,,,,,,,,,,,,,,,,,,,,,,,,,,,,,,,,
834318,001,2022-11-21_24h50.42.900,Info_measure_main_exp,2022.2.2,Win32,59.93766483,,,,,,,,,,,,,,,,,,masks/mask_003.jpg,,,,,,,,,,,,,,,,,,,,,,,,,,,,,,,,,,,,,,,,,,,,,,,,0,4,4,2,1,,,,,,,,,,,,,,,,,,,,,,,,,,,,,,,,,,,,,,,,,
834318,001,2022-11-21_24h50.42.900,Info_measure_main_exp,2022.2.2,Win32,59.93766483,,,,,,,,,,,,,,,,,,,,,,,,,,,,,,6,1.7653,1,,,,,,,,,,,,0,131,5,5,2190,2166,absent_patch/patch0002190.jpg,absent_patch/patch0002166.jpg,,,,,,,,,,,,,,,,,,,,0.08148151,0.02407406,1,0,0,response1disk,23,0.005555541,-0.003703718,1,0,0,center_square,0,22,22,50,1,,,,,,,,,,,,,,,,,,,,,,,
834318,001,2022-11-21_24h50.42.900,Info_measure_main_exp,2022.2.2,Win32,59.93766483,,,,,,,,,,,,,,,,,,masks/mask_002.jpg,,,,,,,,,,,,,,,,,,,,,,,,,,,,,,,,,,,,,,,,,,,0,0,0,1,1,,,,,,,,,,,,,,,,,,,,,,,,,,,,,,,,,,,,,,,,,,,,,,
834318,001,2022-11-21_24h50.42.900,Info_measure_main_exp,2022.2.2,Win32,59.93766483,,,,,,,,,,,,,,,,,,masks/mask_005.jpg,,,,,,,,,,,,,,,,,,,,,,,,,,,,,,,,,,,,,,,,,,,0,1,1,4,1,,,,,,,,,,,,,,,,,,,,,,,,,,,,,,,,,,,,,,,,,,,,,,
834318,001,2022-11-21_24h50.42.900,Info_measure_main_exp,2022.2.2,Win32,59.93766483,,,,,,,,,,,,,,,,,,masks/mask_004.jpg,,,,,,,,,,,,,,,,,,,,,,,,,,,,,,,,,,,,,,,,,,,0,2,2,3,1,,,,,,,,,,,,,,,,,,,,,,,,,,,,,,,,,,,,,,,,,,,,,,
834318,001,2022-11-21_24h50.42.900,Info_measure_main_exp,2022.2.2,Win32,59.93766483,,,,,,,,,,,,,,,,,,masks/mask_001.jpg,,,,,,,,,,,,,,,,,,,,,,,,,,,,,,,,,,,,,,,,,,,0,3,3,0,1,,,,,,,,,,,,,,,,,,,,,,,,,,,,,,,,,,,,,,,,,,,,,,
834318,001,2022-11-21_24h50.42.900,Info_measure_main_exp,2022.2.2,Win32,59.93766483,,,,,,,,,,,,,,,,,,masks/mask_003.jpg,,,,,,,,,,,,,,,,,,,,,,,,,,,,,,,,,,,,,,,,,,,0,4,4,2,1,,,,,,,,,,,,,,,,,,,,,,,,,,,,,,,,,,,,,,,,,,,,,,
834318,001,2022-11-21_24h50.42.900,Info_measure_main_exp,2022.2.2,Win32,59.93766483,,,,,,,,,,,,,,,,,,masks/mask_002.jpg,,,,,,,,,,,,,,,,,,,,,,,,,,,,,,,,,,,,,,,,,,,,,,,,0,0,0,1,1,,,,,,,,,,,,,,,,,,,,,,,,,,,,,,,,,,,,,,,,,
834318,001,2022-11-21_24h50.42.900,Info_measure_main_exp,2022.2.2,Win32,59.93766483,,,,,,,,,,,,,,,,,,masks/mask_001.jpg,,,,,,,,,,,,,,,,,,,,,,,,,,,,,,,,,,,,,,,,,,,,,,,,0,1,1,0,1,,,,,,,,,,,,,,,,,,,,,,,,,,,,,,,,,,,,,,,,,
834318,001,2022-11-21_24h50.42.900,Info_measure_main_exp,2022.2.2,Win32,59.93766483,,,,,,,,,,,,,,,,,,masks/mask_003.jpg,,,,,,,,,,,,,,,,,,,,,,,,,,,,,,,,,,,,,,,,,,,,,,,,0,2,2,2,1,,,,,,,,,,,,,,,,,,,,,,,,,,,,,,,,,,,,,,,,,
834318,001,2022-11-21_24h50.42.900,Info_measure_main_exp,2022.2.2,Win32,59.93766483,,,,,,,,,,,,,,,,,,masks/mask_005.jpg,,,,,,,,,,,,,,,,,,,,,,,,,,,,,,,,,,,,,,,,,,,,,,,,0,3,3,4,1,,,,,,,,,,,,,,,,,,,,,,,,,,,,,,,,,,,,,,,,,
834318,001,2022-11-21_24h50.42.900,Info_measure_main_exp,2022.2.2,Win32,59.93766483,,,,,,,,,,,,,,,,,,masks/mask_004.jpg,,,,,,,,,,,,,,,,,,,,,,,,,,,,,,,,,,,,,,,,,,,,,,,,0,4,4,3,1,,,,,,,,,,,,,,,,,,,,,,,,,,,,,,,,,,,,,,,,,
834318,001,2022-11-21_24h50.42.900,Info_measure_main_exp,2022.2.2,Win32,59.93766483,,,,,,,,,,,,,,,,,,,,,,,,,,,,,,3,2.769,1,,,,,,,,,,,,0,131,5,5,2154,2238,absent_patch/patch0002154.jpg,absent_patch/patch0002238.jpg,,,,,,,,,,,,,,,,,,,,-0.003703718,-0.101851852,1,0,0,response5disk,24,-0.003703718,0.002777771,1,0,0,center_square,0,23,23,21,1,,,,,,,,,,,,,,,,,,,,,,,
834318,001,2022-11-21_24h50.42.900,Info_measure_main_exp,2022.2.2,Win32,59.93766483,,,,,,,,,,,,,,,,,,masks/mask_005.jpg,,,,,,,,,,,,,,,,,,,,,,,,,,,,,,,,,,,,,,,,,,,0,0,0,4,1,,,,,,,,,,,,,,,,,,,,,,,,,,,,,,,,,,,,,,,,,,,,,,
834318,001,2022-11-21_24h50.42.900,Info_measure_main_exp,2022.2.2,Win32,59.93766483,,,,,,,,,,,,,,,,,,masks/mask_002.jpg,,,,,,,,,,,,,,,,,,,,,,,,,,,,,,,,,,,,,,,,,,,0,1,1,1,1,,,,,,,,,,,,,,,,,,,,,,,,,,,,,,,,,,,,,,,,,,,,,,
834318,001,2022-11-21_24h50.42.900,Info_measure_main_exp,2022.2.2,Win32,59.93766483,,,,,,,,,,,,,,,,,,masks/mask_004.jpg,,,,,,,,,,,,,,,,,,,,,,,,,,,,,,,,,,,,,,,,,,,0,2,2,3,1,,,,,,,,,,,,,,,,,,,,,,,,,,,,,,,,,,,,,,,,,,,,,,
834318,001,2022-11-21_24h50.42.900,Info_measure_main_exp,2022.2.2,Win32,59.93766483,,,,,,,,,,,,,,,,,,masks/mask_001.jpg,,,,,,,,,,,,,,,,,,,,,,,,,,,,,,,,,,,,,,,,,,,0,3,3,0,1,,,,,,,,,,,,,,,,,,,,,,,,,,,,,,,,,,,,,,,,,,,,,,
834318,001,2022-11-21_24h50.42.900,Info_measure_main_exp,2022.2.2,Win32,59.93766483,,,,,,,,,,,,,,,,,,masks/mask_003.jpg,,,,,,,,,,,,,,,,,,,,,,,,,,,,,,,,,,,,,,,,,,,0,4,4,2,1,,,,,,,,,,,,,,,,,,,,,,,,,,,,,,,,,,,,,,,,,,,,,,
834318,001,2022-11-21_24h50.42.900,Info_measure_main_exp,2022.2.2,Win32,59.93766483,,,,,,,,,,,,,,,,,,masks/mask_002.jpg,,,,,,,,,,,,,,,,,,,,,,,,,,,,,,,,,,,,,,,,,,,,,,,,0,0,0,1,1,,,,,,,,,,,,,,,,,,,,,,,,,,,,,,,,,,,,,,,,,
834318,001,2022-11-21_24h50.42.900,Info_measure_main_exp,2022.2.2,Win32,59.93766483,,,,,,,,,,,,,,,,,,masks/mask_005.jpg,,,,,,,,,,,,,,,,,,,,,,,,,,,,,,,,,,,,,,,,,,,,,,,,0,1,1,4,1,,,,,,,,,,,,,,,,,,,,,,,,,,,,,,,,,,,,,,,,,
834318,001,2022-11-21_24h50.42.900,Info_measure_main_exp,2022.2.2,Win32,59.93766483,,,,,,,,,,,,,,,,,,masks/mask_004.jpg,,,,,,,,,,,,,,,,,,,,,,,,,,,,,,,,,,,,,,,,,,,,,,,,0,2,2,3,1,,,,,,,,,,,,,,,,,,,,,,,,,,,,,,,,,,,,,,,,,
834318,001,2022-11-21_24h50.42.900,Info_measure_main_exp,2022.2.2,Win32,59.93766483,,,,,,,,,,,,,,,,,,masks/mask_003.jpg,,,,,,,,,,,,,,,,,,,,,,,,,,,,,,,,,,,,,,,,,,,,,,,,0,3,3,2,1,,,,,,,,,,,,,,,,,,,,,,,,,,,,,,,,,,,,,,,,,
834318,001,2022-11-21_24h50.42.900,Info_measure_main_exp,2022.2.2,Win32,59.93766483,,,,,,,,,,,,,,,,,,masks/mask_001.jpg,,,,,,,,,,,,,,,,,,,,,,,,,,,,,,,,,,,,,,,,,,,,,,,,0,4,4,0,1,,,,,,,,,,,,,,,,,,,,,,,,,,,,,,,,,,,,,,,,,
834318,001,2022-11-21_24h50.42.900,Info_measure_main_exp,2022.2.2,Win32,59.93766483,,,,,,,,,,,,,,,,,,,,,,,,,,,,,,5,2.048,1,,,,,,,,,,,,0,131,5,5,2214,2082,absent_patch/patch0002214.jpg,absent_patch/patch0002082.jpg,,,,,,,,,,,,,,,,,,,,0.12962963,-0.078703704,1,0,0,response3disk,25,-0.009259259,0.0074074,1,0,0,center_square,0,24,24,103,1,,,,,,,,,,,,,,,,,,,,,,,
834318,001,2022-11-21_24h50.42.900,Info_measure_main_exp,2022.2.2,Win32,59.93766483,,,,,,,,,,,,,,,,,,masks/mask_001.jpg,,,,,,,,,,,,,,,,,,,,,,,,,,,,,,,,,,,,,,,,,,,0,0,0,0,1,,,,,,,,,,,,,,,,,,,,,,,,,,,,,,,,,,,,,,,,,,,,,,
834318,001,2022-11-21_24h50.42.900,Info_measure_main_exp,2022.2.2,Win32,59.93766483,,,,,,,,,,,,,,,,,,masks/mask_002.jpg,,,,,,,,,,,,,,,,,,,,,,,,,,,,,,,,,,,,,,,,,,,0,1,1,1,1,,,,,,,,,,,,,,,,,,,,,,,,,,,,,,,,,,,,,,,,,,,,,,
834318,001,2022-11-21_24h50.42.900,Info_measure_main_exp,2022.2.2,Win32,59.93766483,,,,,,,,,,,,,,,,,,masks/mask_005.jpg,,,,,,,,,,,,,,,,,,,,,,,,,,,,,,,,,,,,,,,,,,,0,2,2,4,1,,,,,,,,,,,,,,,,,,,,,,,,,,,,,,,,,,,,,,,,,,,,,,
834318,001,2022-11-21_24h50.42.900,Info_measure_main_exp,2022.2.2,Win32,59.93766483,,,,,,,,,,,,,,,,,,masks/mask_003.jpg,,,,,,,,,,,,,,,,,,,,,,,,,,,,,,,,,,,,,,,,,,,0,3,3,2,1,,,,,,,,,,,,,,,,,,,,,,,,,,,,,,,,,,,,,,,,,,,,,,
834318,001,2022-11-21_24h50.42.900,Info_measure_main_exp,2022.2.2,Win32,59.93766483,,,,,,,,,,,,,,,,,,masks/mask_004.jpg,,,,,,,,,,,,,,,,,,,,,,,,,,,,,,,,,,,,,,,,,,,0,4,4,3,1,,,,,,,,,,,,,,,,,,,,,,,,,,,,,,,,,,,,,,,,,,,,,,
834318,001,2022-11-21_24h50.42.900,Info_measure_main_exp,2022.2.2,Win32,59.93766483,,,,,,,,,,,,,,,,,,masks/mask_004.jpg,,,,,,,,,,,,,,,,,,,,,,,,,,,,,,,,,,,,,,,,,,,,,,,,0,0,0,3,1,,,,,,,,,,,,,,,,,,,,,,,,,,,,,,,,,,,,,,,,,
834318,001,2022-11-21_24h50.42.900,Info_measure_main_exp,2022.2.2,Win32,59.93766483,,,,,,,,,,,,,,,,,,masks/mask_002.jpg,,,,,,,,,,,,,,,,,,,,,,,,,,,,,,,,,,,,,,,,,,,,,,,,0,1,1,1,1,,,,,,,,,,,,,,,,,,,,,,,,,,,,,,,,,,,,,,,,,
834318,001,2022-11-21_24h50.42.900,Info_measure_main_exp,2022.2.2,Win32,59.93766483,,,,,,,,,,,,,,,,,,masks/mask_001.jpg,,,,,,,,,,,,,,,,,,,,,,,,,,,,,,,,,,,,,,,,,,,,,,,,0,2,2,0,1,,,,,,,,,,,,,,,,,,,,,,,,,,,,,,,,,,,,,,,,,
834318,001,2022-11-21_24h50.42.900,Info_measure_main_exp,2022.2.2,Win32,59.93766483,,,,,,,,,,,,,,,,,,masks/mask_005.jpg,,,,,,,,,,,,,,,,,,,,,,,,,,,,,,,,,,,,,,,,,,,,,,,,0,3,3,4,1,,,,,,,,,,,,,,,,,,,,,,,,,,,,,,,,,,,,,,,,,
834318,001,2022-11-21_24h50.42.900,Info_measure_main_exp,2022.2.2,Win32,59.93766483,,,,,,,,,,,,,,,,,,masks/mask_003.jpg,,,,,,,,,,,,,,,,,,,,,,,,,,,,,,,,,,,,,,,,,,,,,,,,0,4,4,2,1,,,,,,,,,,,,,,,,,,,,,,,,,,,,,,,,,,,,,,,,,
834318,001,2022-11-21_24h50.42.900,Info_measure_main_exp,2022.2.2,Win32,59.93766483,,,,,,,,,,,,,,,,,,,,,,,,,,,,,,7,1.1841,1,,,,,,,,,,,,0,131,5,5,2250,2238,absent_patch/patch0002250.jpg,absent_patch/patch0002238.jpg,,,,,,,,,,,,,,,,,,,,0.063888903,0.084259245,1,0,0,response1disk,26,0.007407436,0.009259259,1,0,0,center_square,0,25,25,110,1,,,,,,,,,,,,,,,,,,,,,,,
834318,001,2022-11-21_24h50.42.900,Info_measure_main_exp,2022.2.2,Win32,59.93766483,,,,,,,,,,,,,,,,,,masks/mask_003.jpg,,,,,,,,,,,,,,,,,,,,,,,,,,,,,,,,,,,,,,,,,,,0,0,0,2,1,,,,,,,,,,,,,,,,,,,,,,,,,,,,,,,,,,,,,,,,,,,,,,
834318,001,2022-11-21_24h50.42.900,Info_measure_main_exp,2022.2.2,Win32,59.93766483,,,,,,,,,,,,,,,,,,masks/mask_004.jpg,,,,,,,,,,,,,,,,,,,,,,,,,,,,,,,,,,,,,,,,,,,0,1,1,3,1,,,,,,,,,,,,,,,,,,,,,,,,,,,,,,,,,,,,,,,,,,,,,,
834318,001,2022-11-21_24h50.42.900,Info_measure_main_exp,2022.2.2,Win32,59.93766483,,,,,,,,,,,,,,,,,,masks/mask_002.jpg,,,,,,,,,,,,,,,,,,,,,,,,,,,,,,,,,,,,,,,,,,,0,2,2,1,1,,,,,,,,,,,,,,,,,,,,,,,,,,,,,,,,,,,,,,,,,,,,,,
834318,001,2022-11-21_24h50.42.900,Info_measure_main_exp,2022.2.2,Win32,59.93766483,,,,,,,,,,,,,,,,,,masks/mask_001.jpg,,,,,,,,,,,,,,,,,,,,,,,,,,,,,,,,,,,,,,,,,,,0,3,3,0,1,,,,,,,,,,,,,,,,,,,,,,,,,,,,,,,,,,,,,,,,,,,,,,
834318,001,2022-11-21_24h50.42.900,Info_measure_main_exp,2022.2.2,Win32,59.93766483,,,,,,,,,,,,,,,,,,masks/mask_005.jpg,,,,,,,,,,,,,,,,,,,,,,,,,,,,,,,,,,,,,,,,,,,0,4,4,4,1,,,,,,,,,,,,,,,,,,,,,,,,,,,,,,,,,,,,,,,,,,,,,,
834318,001,2022-11-21_24h50.42.900,Info_measure_main_exp,2022.2.2,Win32,59.93766483,,,,,,,,,,,,,,,,,,masks/mask_005.jpg,,,,,,,,,,,,,,,,,,,,,,,,,,,,,,,,,,,,,,,,,,,,,,,,0,0,0,4,1,,,,,,,,,,,,,,,,,,,,,,,,,,,,,,,,,,,,,,,,,
834318,001,2022-11-21_24h50.42.900,Info_measure_main_exp,2022.2.2,Win32,59.93766483,,,,,,,,,,,,,,,,,,masks/mask_002.jpg,,,,,,,,,,,,,,,,,,,,,,,,,,,,,,,,,,,,,,,,,,,,,,,,0,1,1,1,1,,,,,,,,,,,,,,,,,,,,,,,,,,,,,,,,,,,,,,,,,
834318,001,2022-11-21_24h50.42.900,Info_measure_main_exp,2022.2.2,Win32,59.93766483,,,,,,,,,,,,,,,,,,masks/mask_001.jpg,,,,,,,,,,,,,,,,,,,,,,,,,,,,,,,,,,,,,,,,,,,,,,,,0,2,2,0,1,,,,,,,,,,,,,,,,,,,,,,,,,,,,,,,,,,,,,,,,,
834318,001,2022-11-21_24h50.42.900,Info_measure_main_exp,2022.2.2,Win32,59.93766483,,,,,,,,,,,,,,,,,,masks/mask_003.jpg,,,,,,,,,,,,,,,,,,,,,,,,,,,,,,,,,,,,,,,,,,,,,,,,0,3,3,2,1,,,,,,,,,,,,,,,,,,,,,,,,,,,,,,,,,,,,,,,,,
834318,001,2022-11-21_24h50.42.900,Info_measure_main_exp,2022.2.2,Win32,59.93766483,,,,,,,,,,,,,,,,,,masks/mask_004.jpg,,,,,,,,,,,,,,,,,,,,,,,,,,,,,,,,,,,,,,,,,,,,,,,,0,4,4,3,1,,,,,,,,,,,,,,,,,,,,,,,,,,,,,,,,,,,,,,,,,
834318,001,2022-11-21_24h50.42.900,Info_measure_main_exp,2022.2.2,Win32,59.93766483,,,,,,,,,,,,,,,,,,,,,,,,,,,,,,5,1.9322,1,,,,,,,,,,,,0,131,5,5,1986,2238,absent_patch/patch0001986.jpg,absent_patch/patch0002238.jpg,,,,,,,,,,,,,,,,,,,,0.10092594,-0.054629644,1,0,0,response3disk,27,-0.003703718,-0.000925947,1,0,0,center_square,0,26,26,31,1,,,,,,,,,,,,,,,,,,,,,,,
834318,001,2022-11-21_24h50.42.900,Info_measure_main_exp,2022.2.2,Win32,59.93766483,,,,,,,,,,,,,,,,,,masks/mask_004.jpg,,,,,,,,,,,,,,,,,,,,,,,,,,,,,,,,,,,,,,,,,,,0,0,0,3,1,,,,,,,,,,,,,,,,,,,,,,,,,,,,,,,,,,,,,,,,,,,,,,
834318,001,2022-11-21_24h50.42.900,Info_measure_main_exp,2022.2.2,Win32,59.93766483,,,,,,,,,,,,,,,,,,masks/mask_005.jpg,,,,,,,,,,,,,,,,,,,,,,,,,,,,,,,,,,,,,,,,,,,0,1,1,4,1,,,,,,,,,,,,,,,,,,,,,,,,,,,,,,,,,,,,,,,,,,,,,,
834318,001,2022-11-21_24h50.42.900,Info_measure_main_exp,2022.2.2,Win32,59.93766483,,,,,,,,,,,,,,,,,,masks/mask_002.jpg,,,,,,,,,,,,,,,,,,,,,,,,,,,,,,,,,,,,,,,,,,,0,2,2,1,1,,,,,,,,,,,,,,,,,,,,,,,,,,,,,,,,,,,,,,,,,,,,,,
834318,001,2022-11-21_24h50.42.900,Info_measure_main_exp,2022.2.2,Win32,59.93766483,,,,,,,,,,,,,,,,,,masks/mask_003.jpg,,,,,,,,,,,,,,,,,,,,,,,,,,,,,,,,,,,,,,,,,,,0,3,3,2,1,,,,,,,,,,,,,,,,,,,,,,,,,,,,,,,,,,,,,,,,,,,,,,
834318,001,2022-11-21_24h50.42.900,Info_measure_main_exp,2022.2.2,Win32,59.93766483,,,,,,,,,,,,,,,,,,masks/mask_001.jpg,,,,,,,,,,,,,,,,,,,,,,,,,,,,,,,,,,,,,,,,,,,0,4,4,0,1,,,,,,,,,,,,,,,,,,,,,,,,,,,,,,,,,,,,,,,,,,,,,,
834318,001,2022-11-21_24h50.42.900,Info_measure_main_exp,2022.2.2,Win32,59.93766483,,,,,,,,,,,,,,,,,,masks/mask_002.jpg,,,,,,,,,,,,,,,,,,,,,,,,,,,,,,,,,,,,,,,,,,,,,,,,0,0,0,1,1,,,,,,,,,,,,,,,,,,,,,,,,,,,,,,,,,,,,,,,,,
834318,001,2022-11-21_24h50.42.900,Info_measure_main_exp,2022.2.2,Win32,59.93766483,,,,,,,,,,,,,,,,,,masks/mask_004.jpg,,,,,,,,,,,,,,,,,,,,,,,,,,,,,,,,,,,,,,,,,,,,,,,,0,1,1,3,1,,,,,,,,,,,,,,,,,,,,,,,,,,,,,,,,,,,,,,,,,
834318,001,2022-11-21_24h50.42.900,Info_measure_main_exp,2022.2.2,Win32,59.93766483,,,,,,,,,,,,,,,,,,masks/mask_001.jpg,,,,,,,,,,,,,,,,,,,,,,,,,,,,,,,,,,,,,,,,,,,,,,,,0,2,2,0,1,,,,,,,,,,,,,,,,,,,,,,,,,,,,,,,,,,,,,,,,,
834318,001,2022-11-21_24h50.42.900,Info_measure_main_exp,2022.2.2,Win32,59.93766483,,,,,,,,,,,,,,,,,,masks/mask_003.jpg,,,,,,,,,,,,,,,,,,,,,,,,,,,,,,,,,,,,,,,,,,,,,,,,0,3,3,2,1,,,,,,,,,,,,,,,,,,,,,,,,,,,,,,,,,,,,,,,,,
834318,001,2022-11-21_24h50.42.900,Info_measure_main_exp,2022.2.2,Win32,59.93766483,,,,,,,,,,,,,,,,,,masks/mask_005.jpg,,,,,,,,,,,,,,,,,,,,,,,,,,,,,,,,,,,,,,,,,,,,,,,,0,4,4,4,1,,,,,,,,,,,,,,,,,,,,,,,,,,,,,,,,,,,,,,,,,
834318,001,2022-11-21_24h50.42.900,Info_measure_main_exp,2022.2.2,Win32,59.93766483,,,,,,,,,,,,,,,,,,,,,,,,,,,,,,5,2.3331,1,,,,,,,,,,,,0,131,5,5,2178,2166,absent_patch/patch0002178.jpg,absent_patch/patch0002166.jpg,,,,,,,,,,,,,,,,,,,,0.116666653,-0.041666667,1,0,0,response3disk,28,0.00462963,-0.009259259,1,0,0,center_square,0,27,27,72,1,,,,,,,,,,,,,,,,,,,,,,,
834318,001,2022-11-21_24h50.42.900,Info_measure_main_exp,2022.2.2,Win32,59.93766483,,,,,,,,,,,,,,,,,,masks/mask_003.jpg,,,,,,,,,,,,,,,,,,,,,,,,,,,,,,,,,,,,,,,,,,,0,0,0,2,1,,,,,,,,,,,,,,,,,,,,,,,,,,,,,,,,,,,,,,,,,,,,,,
834318,001,2022-11-21_24h50.42.900,Info_measure_main_exp,2022.2.2,Win32,59.93766483,,,,,,,,,,,,,,,,,,masks/mask_001.jpg,,,,,,,,,,,,,,,,,,,,,,,,,,,,,,,,,,,,,,,,,,,0,1,1,0,1,,,,,,,,,,,,,,,,,,,,,,,,,,,,,,,,,,,,,,,,,,,,,,
834318,001,2022-11-21_24h50.42.900,Info_measure_main_exp,2022.2.2,Win32,59.93766483,,,,,,,,,,,,,,,,,,masks/mask_004.jpg,,,,,,,,,,,,,,,,,,,,,,,,,,,,,,,,,,,,,,,,,,,0,2,2,3,1,,,,,,,,,,,,,,,,,,,,,,,,,,,,,,,,,,,,,,,,,,,,,,
834318,001,2022-11-21_24h50.42.900,Info_measure_main_exp,2022.2.2,Win32,59.93766483,,,,,,,,,,,,,,,,,,masks/mask_002.jpg,,,,,,,,,,,,,,,,,,,,,,,,,,,,,,,,,,,,,,,,,,,0,3,3,1,1,,,,,,,,,,,,,,,,,,,,,,,,,,,,,,,,,,,,,,,,,,,,,,
834318,001,2022-11-21_24h50.42.900,Info_measure_main_exp,2022.2.2,Win32,59.93766483,,,,,,,,,,,,,,,,,,masks/mask_005.jpg,,,,,,,,,,,,,,,,,,,,,,,,,,,,,,,,,,,,,,,,,,,0,4,4,4,1,,,,,,,,,,,,,,,,,,,,,,,,,,,,,,,,,,,,,,,,,,,,,,
834318,001,2022-11-21_24h50.42.900,Info_measure_main_exp,2022.2.2,Win32,59.93766483,,,,,,,,,,,,,,,,,,masks/mask_004.jpg,,,,,,,,,,,,,,,,,,,,,,,,,,,,,,,,,,,,,,,,,,,,,,,,0,0,0,3,1,,,,,,,,,,,,,,,,,,,,,,,,,,,,,,,,,,,,,,,,,
834318,001,2022-11-21_24h50.42.900,Info_measure_main_exp,2022.2.2,Win32,59.93766483,,,,,,,,,,,,,,,,,,masks/mask_005.jpg,,,,,,,,,,,,,,,,,,,,,,,,,,,,,,,,,,,,,,,,,,,,,,,,0,1,1,4,1,,,,,,,,,,,,,,,,,,,,,,,,,,,,,,,,,,,,,,,,,
834318,001,2022-11-21_24h50.42.900,Info_measure_main_exp,2022.2.2,Win32,59.93766483,,,,,,,,,,,,,,,,,,masks/mask_001.jpg,,,,,,,,,,,,,,,,,,,,,,,,,,,,,,,,,,,,,,,,,,,,,,,,0,2,2,0,1,,,,,,,,,,,,,,,,,,,,,,,,,,,,,,,,,,,,,,,,,
834318,001,2022-11-21_24h50.42.900,Info_measure_main_exp,2022.2.2,Win32,59.93766483,,,,,,,,,,,,,,,,,,masks/mask_003.jpg,,,,,,,,,,,,,,,,,,,,,,,,,,,,,,,,,,,,,,,,,,,,,,,,0,3,3,2,1,,,,,,,,,,,,,,,,,,,,,,,,,,,,,,,,,,,,,,,,,
834318,001,2022-11-21_24h50.42.900,Info_measure_main_exp,2022.2.2,Win32,59.93766483,,,,,,,,,,,,,,,,,,masks/mask_002.jpg,,,,,,,,,,,,,,,,,,,,,,,,,,,,,,,,,,,,,,,,,,,,,,,,0,4,4,1,1,,,,,,,,,,,,,,,,,,,,,,,,,,,,,,,,,,,,,,,,,
834318,001,2022-11-21_24h50.42.900,Info_measure_main_exp,2022.2.2,Win32,59.93766483,,,,,,,,,,,,,,,,,,,,,,,,,,,,,,4,1.3004,1,,,,,,,,,,,,1,131,5,5,2238,1,absent_patch/patch0002238.jpg,present_patch/cong_131_5_a.jpg,,,,,,,,,,,,,,,,,,,,0.054629644,-0.093518504,1,0,0,response3disk,29,0.003703718,-0.010185206,1,0,0,center_square,0,28,28,104,1,,,,,,,,,,,,,,,,,,,,,,,
834318,001,2022-11-21_24h50.42.900,Info_measure_main_exp,2022.2.2,Win32,59.93766483,,,,,,,,,,,,,,,,,,masks/mask_003.jpg,,,,,,,,,,,,,,,,,,,,,,,,,,,,,,,,,,,,,,,,,,,0,0,0,2,1,,,,,,,,,,,,,,,,,,,,,,,,,,,,,,,,,,,,,,,,,,,,,,
834318,001,2022-11-21_24h50.42.900,Info_measure_main_exp,2022.2.2,Win32,59.93766483,,,,,,,,,,,,,,,,,,masks/mask_001.jpg,,,,,,,,,,,,,,,,,,,,,,,,,,,,,,,,,,,,,,,,,,,0,1,1,0,1,,,,,,,,,,,,,,,,,,,,,,,,,,,,,,,,,,,,,,,,,,,,,,
834318,001,2022-11-21_24h50.42.900,Info_measure_main_exp,2022.2.2,Win32,59.93766483,,,,,,,,,,,,,,,,,,masks/mask_002.jpg,,,,,,,,,,,,,,,,,,,,,,,,,,,,,,,,,,,,,,,,,,,0,2,2,1,1,,,,,,,,,,,,,,,,,,,,,,,,,,,,,,,,,,,,,,,,,,,,,,
834318,001,2022-11-21_24h50.42.900,Info_measure_main_exp,2022.2.2,Win32,59.93766483,,,,,,,,,,,,,,,,,,masks/mask_004.jpg,,,,,,,,,,,,,,,,,,,,,,,,,,,,,,,,,,,,,,,,,,,0,3,3,3,1,,,,,,,,,,,,,,,,,,,,,,,,,,,,,,,,,,,,,,,,,,,,,,
834318,001,2022-11-21_24h50.42.900,Info_measure_main_exp,2022.2.2,Win32,59.93766483,,,,,,,,,,,,,,,,,,masks/mask_005.jpg,,,,,,,,,,,,,,,,,,,,,,,,,,,,,,,,,,,,,,,,,,,0,4,4,4,1,,,,,,,,,,,,,,,,,,,,,,,,,,,,,,,,,,,,,,,,,,,,,,
834318,001,2022-11-21_24h50.42.900,Info_measure_main_exp,2022.2.2,Win32,59.93766483,,,,,,,,,,,,,,,,,,masks/mask_004.jpg,,,,,,,,,,,,,,,,,,,,,,,,,,,,,,,,,,,,,,,,,,,,,,,,0,0,0,3,1,,,,,,,,,,,,,,,,,,,,,,,,,,,,,,,,,,,,,,,,,
834318,001,2022-11-21_24h50.42.900,Info_measure_main_exp,2022.2.2,Win32,59.93766483,,,,,,,,,,,,,,,,,,masks/mask_001.jpg,,,,,,,,,,,,,,,,,,,,,,,,,,,,,,,,,,,,,,,,,,,,,,,,0,1,1,0,1,,,,,,,,,,,,,,,,,,,,,,,,,,,,,,,,,,,,,,,,,
834318,001,2022-11-21_24h50.42.900,Info_measure_main_exp,2022.2.2,Win32,59.93766483,,,,,,,,,,,,,,,,,,masks/mask_002.jpg,,,,,,,,,,,,,,,,,,,,,,,,,,,,,,,,,,,,,,,,,,,,,,,,0,2,2,1,1,,,,,,,,,,,,,,,,,,,,,,,,,,,,,,,,,,,,,,,,,
834318,001,2022-11-21_24h50.42.900,Info_measure_main_exp,2022.2.2,Win32,59.93766483,,,,,,,,,,,,,,,,,,masks/mask_003.jpg,,,,,,,,,,,,,,,,,,,,,,,,,,,,,,,,,,,,,,,,,,,,,,,,0,3,3,2,1,,,,,,,,,,,,,,,,,,,,,,,,,,,,,,,,,,,,,,,,,
834318,001,2022-11-21_24h50.42.900,Info_measure_main_exp,2022.2.2,Win32,59.93766483,,,,,,,,,,,,,,,,,,masks/mask_005.jpg,,,,,,,,,,,,,,,,,,,,,,,,,,,,,,,,,,,,,,,,,,,,,,,,0,4,4,4,1,,,,,,,,,,,,,,,,,,,,,,,,,,,,,,,,,,,,,,,,,
834318,001,2022-11-21_24h50.42.900,Info_measure_main_exp,2022.2.2,Win32,59.93766483,,,,,,,,,,,,,,,,,,,,,,,,,,,,,,4,1.099,1,,,,,,,,,,,,0,131,5,5,1986,2274,absent_patch/patch0001986.jpg,absent_patch/patch0002274.jpg,,,,,,,,,,,,,,,,,,,,0.016666695,-0.070370392,1,0,0,response3disk,30,-0.005555541,0.00462963,1,0,0,center_square,0,29,29,7,1,,,,,,,,,,,,,,,,,,,,,,,
834318,001,2022-11-21_24h50.42.900,Info_measure_main_exp,2022.2.2,Win32,59.93766483,,,,,,,,,,,,,,,,,,masks/mask_003.jpg,,,,,,,,,,,,,,,,,,,,,,,,,,,,,,,,,,,,,,,,,,,0,0,0,2,1,,,,,,,,,,,,,,,,,,,,,,,,,,,,,,,,,,,,,,,,,,,,,,
834318,001,2022-11-21_24h50.42.900,Info_measure_main_exp,2022.2.2,Win32,59.93766483,,,,,,,,,,,,,,,,,,masks/mask_002.jpg,,,,,,,,,,,,,,,,,,,,,,,,,,,,,,,,,,,,,,,,,,,0,1,1,1,1,,,,,,,,,,,,,,,,,,,,,,,,,,,,,,,,,,,,,,,,,,,,,,
834318,001,2022-11-21_24h50.42.900,Info_measure_main_exp,2022.2.2,Win32,59.93766483,,,,,,,,,,,,,,,,,,masks/mask_004.jpg,,,,,,,,,,,,,,,,,,,,,,,,,,,,,,,,,,,,,,,,,,,0,2,2,3,1,,,,,,,,,,,,,,,,,,,,,,,,,,,,,,,,,,,,,,,,,,,,,,
834318,001,2022-11-21_24h50.42.900,Info_measure_main_exp,2022.2.2,Win32,59.93766483,,,,,,,,,,,,,,,,,,masks/mask_001.jpg,,,,,,,,,,,,,,,,,,,,,,,,,,,,,,,,,,,,,,,,,,,0,3,3,0,1,,,,,,,,,,,,,,,,,,,,,,,,,,,,,,,,,,,,,,,,,,,,,,
834318,001,2022-11-21_24h50.42.900,Info_measure_main_exp,2022.2.2,Win32,59.93766483,,,,,,,,,,,,,,,,,,masks/mask_005.jpg,,,,,,,,,,,,,,,,,,,,,,,,,,,,,,,,,,,,,,,,,,,0,4,4,4,1,,,,,,,,,,,,,,,,,,,,,,,,,,,,,,,,,,,,,,,,,,,,,,
834318,001,2022-11-21_24h50.42.900,Info_measure_main_exp,2022.2.2,Win32,59.93766483,,,,,,,,,,,,,,,,,,masks/mask_001.jpg,,,,,,,,,,,,,,,,,,,,,,,,,,,,,,,,,,,,,,,,,,,,,,,,0,0,0,0,1,,,,,,,,,,,,,,,,,,,,,,,,,,,,,,,,,,,,,,,,,
834318,001,2022-11-21_24h50.42.900,Info_measure_main_exp,2022.2.2,Win32,59.93766483,,,,,,,,,,,,,,,,,,masks/mask_004.jpg,,,,,,,,,,,,,,,,,,,,,,,,,,,,,,,,,,,,,,,,,,,,,,,,0,1,1,3,1,,,,,,,,,,,,,,,,,,,,,,,,,,,,,,,,,,,,,,,,,
834318,001,2022-11-21_24h50.42.900,Info_measure_main_exp,2022.2.2,Win32,59.93766483,,,,,,,,,,,,,,,,,,masks/mask_003.jpg,,,,,,,,,,,,,,,,,,,,,,,,,,,,,,,,,,,,,,,,,,,,,,,,0,2,2,2,1,,,,,,,,,,,,,,,,,,,,,,,,,,,,,,,,,,,,,,,,,
834318,001,2022-11-21_24h50.42.900,Info_measure_main_exp,2022.2.2,Win32,59.93766483,,,,,,,,,,,,,,,,,,masks/mask_005.jpg,,,,,,,,,,,,,,,,,,,,,,,,,,,,,,,,,,,,,,,,,,,,,,,,0,3,3,4,1,,,,,,,,,,,,,,,,,,,,,,,,,,,,,,,,,,,,,,,,,
834318,001,2022-11-21_24h50.42.900,Info_measure_main_exp,2022.2.2,Win32,59.93766483,,,,,,,,,,,,,,,,,,masks/mask_002.jpg,,,,,,,,,,,,,,,,,,,,,,,,,,,,,,,,,,,,,,,,,,,,,,,,0,4,4,1,1,,,,,,,,,,,,,,,,,,,,,,,,,,,,,,,,,,,,,,,,,
834318,001,2022-11-21_24h50.42.900,Info_measure_main_exp,2022.2.2,Win32,59.93766483,,,,,,,,,,,,,,,,,,,,,,,,,,,,,,6,1.7496,1,,,,,,,,,,,,0,131,5,5,2142,2082,absent_patch/patch0002142.jpg,absent_patch/patch0002082.jpg,,,,,,,,,,,,,,,,,,,,0.119444459,0.046296296,1,0,0,response1disk,31,0.001851894,0.000925912,1,0,0,center_square,0,30,30,88,1,,,,,,,,,,,,,,,,,,,,,,,
834318,001,2022-11-21_24h50.42.900,Info_measure_main_exp,2022.2.2,Win32,59.93766483,,,,,,,,,,,,,,,,,,masks/mask_002.jpg,,,,,,,,,,,,,,,,,,,,,,,,,,,,,,,,,,,,,,,,,,,0,0,0,1,1,,,,,,,,,,,,,,,,,,,,,,,,,,,,,,,,,,,,,,,,,,,,,,
834318,001,2022-11-21_24h50.42.900,Info_measure_main_exp,2022.2.2,Win32,59.93766483,,,,,,,,,,,,,,,,,,masks/mask_001.jpg,,,,,,,,,,,,,,,,,,,,,,,,,,,,,,,,,,,,,,,,,,,0,1,1,0,1,,,,,,,,,,,,,,,,,,,,,,,,,,,,,,,,,,,,,,,,,,,,,,
834318,001,2022-11-21_24h50.42.900,Info_measure_main_exp,2022.2.2,Win32,59.93766483,,,,,,,,,,,,,,,,,,masks/mask_004.jpg,,,,,,,,,,,,,,,,,,,,,,,,,,,,,,,,,,,,,,,,,,,0,2,2,3,1,,,,,,,,,,,,,,,,,,,,,,,,,,,,,,,,,,,,,,,,,,,,,,
834318,001,2022-11-21_24h50.42.900,Info_measure_main_exp,2022.2.2,Win32,59.93766483,,,,,,,,,,,,,,,,,,masks/mask_005.jpg,,,,,,,,,,,,,,,,,,,,,,,,,,,,,,,,,,,,,,,,,,,0,3,3,4,1,,,,,,,,,,,,,,,,,,,,,,,,,,,,,,,,,,,,,,,,,,,,,,
834318,001,2022-11-21_24h50.42.900,Info_measure_main_exp,2022.2.2,Win32,59.93766483,,,,,,,,,,,,,,,,,,masks/mask_003.jpg,,,,,,,,,,,,,,,,,,,,,,,,,,,,,,,,,,,,,,,,,,,0,4,4,2,1,,,,,,,,,,,,,,,,,,,,,,,,,,,,,,,,,,,,,,,,,,,,,,
834318,001,2022-11-21_24h50.42.900,Info_measure_main_exp,2022.2.2,Win32,59.93766483,,,,,,,,,,,,,,,,,,masks/mask_001.jpg,,,,,,,,,,,,,,,,,,,,,,,,,,,,,,,,,,,,,,,,,,,,,,,,0,0,0,0,1,,,,,,,,,,,,,,,,,,,,,,,,,,,,,,,,,,,,,,,,,
834318,001,2022-11-21_24h50.42.900,Info_measure_main_exp,2022.2.2,Win32,59.93766483,,,,,,,,,,,,,,,,,,masks/mask_005.jpg,,,,,,,,,,,,,,,,,,,,,,,,,,,,,,,,,,,,,,,,,,,,,,,,0,1,1,4,1,,,,,,,,,,,,,,,,,,,,,,,,,,,,,,,,,,,,,,,,,
834318,001,2022-11-21_24h50.42.900,Info_measure_main_exp,2022.2.2,Win32,59.93766483,,,,,,,,,,,,,,,,,,masks/mask_004.jpg,,,,,,,,,,,,,,,,,,,,,,,,,,,,,,,,,,,,,,,,,,,,,,,,0,2,2,3,1,,,,,,,,,,,,,,,,,,,,,,,,,,,,,,,,,,,,,,,,,
834318,001,2022-11-21_24h50.42.900,Info_measure_main_exp,2022.2.2,Win32,59.93766483,,,,,,,,,,,,,,,,,,masks/mask_003.jpg,,,,,,,,,,,,,,,,,,,,,,,,,,,,,,,,,,,,,,,,,,,,,,,,0,3,3,2,1,,,,,,,,,,,,,,,,,,,,,,,,,,,,,,,,,,,,,,,,,
834318,001,2022-11-21_24h50.42.900,Info_measure_main_exp,2022.2.2,Win32,59.93766483,,,,,,,,,,,,,,,,,,masks/mask_002.jpg,,,,,,,,,,,,,,,,,,,,,,,,,,,,,,,,,,,,,,,,,,,,,,,,0,4,4,1,1,,,,,,,,,,,,,,,,,,,,,,,,,,,,,,,,,,,,,,,,,
834318,001,2022-11-21_24h50.42.900,Info_measure_main_exp,2022.2.2,Win32,59.93766483,,,,,,,,,,,,,,,,,,,,,,,,,,,,,,0,0.7497,1,,,,,,,,,,,,0,131,5,5,2274,2274,absent_patch/patch0002274.jpg,absent_patch/patch0002274.jpg,,,,,,,,,,,,,,,,,,,,-0.056481467,0.12037037,1,0,0,response7disk,32,0.010185171,-0.000925947,1,0,0,center_square,0,31,31,114,1,,,,,,,,,,,,,,,,,,,,,,,
834318,001,2022-11-21_24h50.42.900,Info_measure_main_exp,2022.2.2,Win32,59.93766483,,,,,,,,,,,,,,,,,,masks/mask_002.jpg,,,,,,,,,,,,,,,,,,,,,,,,,,,,,,,,,,,,,,,,,,,0,0,0,1,1,,,,,,,,,,,,,,,,,,,,,,,,,,,,,,,,,,,,,,,,,,,,,,
834318,001,2022-11-21_24h50.42.900,Info_measure_main_exp,2022.2.2,Win32,59.93766483,,,,,,,,,,,,,,,,,,masks/mask_001.jpg,,,,,,,,,,,,,,,,,,,,,,,,,,,,,,,,,,,,,,,,,,,0,1,1,0,1,,,,,,,,,,,,,,,,,,,,,,,,,,,,,,,,,,,,,,,,,,,,,,
834318,001,2022-11-21_24h50.42.900,Info_measure_main_exp,2022.2.2,Win32,59.93766483,,,,,,,,,,,,,,,,,,masks/mask_005.jpg,,,,,,,,,,,,,,,,,,,,,,,,,,,,,,,,,,,,,,,,,,,0,2,2,4,1,,,,,,,,,,,,,,,,,,,,,,,,,,,,,,,,,,,,,,,,,,,,,,
834318,001,2022-11-21_24h50.42.900,Info_measure_main_exp,2022.2.2,Win32,59.93766483,,,,,,,,,,,,,,,,,,masks/mask_004.jpg,,,,,,,,,,,,,,,,,,,,,,,,,,,,,,,,,,,,,,,,,,,0,3,3,3,1,,,,,,,,,,,,,,,,,,,,,,,,,,,,,,,,,,,,,,,,,,,,,,
834318,001,2022-11-21_24h50.42.900,Info_measure_main_exp,2022.2.2,Win32,59.93766483,,,,,,,,,,,,,,,,,,masks/mask_003.jpg,,,,,,,,,,,,,,,,,,,,,,,,,,,,,,,,,,,,,,,,,,,0,4,4,2,1,,,,,,,,,,,,,,,,,,,,,,,,,,,,,,,,,,,,,,,,,,,,,,
834318,001,2022-11-21_24h50.42.900,Info_measure_main_exp,2022.2.2,Win32,59.93766483,,,,,,,,,,,,,,,,,,masks/mask_004.jpg,,,,,,,,,,,,,,,,,,,,,,,,,,,,,,,,,,,,,,,,,,,,,,,,0,0,0,3,1,,,,,,,,,,,,,,,,,,,,,,,,,,,,,,,,,,,,,,,,,
834318,001,2022-11-21_24h50.42.900,Info_measure_main_exp,2022.2.2,Win32,59.93766483,,,,,,,,,,,,,,,,,,masks/mask_001.jpg,,,,,,,,,,,,,,,,,,,,,,,,,,,,,,,,,,,,,,,,,,,,,,,,0,1,1,0,1,,,,,,,,,,,,,,,,,,,,,,,,,,,,,,,,,,,,,,,,,
834318,001,2022-11-21_24h50.42.900,Info_measure_main_exp,2022.2.2,Win32,59.93766483,,,,,,,,,,,,,,,,,,masks/mask_005.jpg,,,,,,,,,,,,,,,,,,,,,,,,,,,,,,,,,,,,,,,,,,,,,,,,0,2,2,4,1,,,,,,,,,,,,,,,,,,,,,,,,,,,,,,,,,,,,,,,,,
834318,001,2022-11-21_24h50.42.900,Info_measure_main_exp,2022.2.2,Win32,59.93766483,,,,,,,,,,,,,,,,,,masks/mask_002.jpg,,,,,,,,,,,,,,,,,,,,,,,,,,,,,,,,,,,,,,,,,,,,,,,,0,3,3,1,1,,,,,,,,,,,,,,,,,,,,,,,,,,,,,,,,,,,,,,,,,
834318,001,2022-11-21_24h50.42.900,Info_measure_main_exp,2022.2.2,Win32,59.93766483,,,,,,,,,,,,,,,,,,masks/mask_003.jpg,,,,,,,,,,,,,,,,,,,,,,,,,,,,,,,,,,,,,,,,,,,,,,,,0,4,4,2,1,,,,,,,,,,,,,,,,,,,,,,,,,,,,,,,,,,,,,,,,,
834318,001,2022-11-21_24h50.42.900,Info_measure_main_exp,2022.2.2,Win32,59.93766483,,,,,,,,,,,,,,,,,,,,,,,,,,,,,,0,0.7081,1,,,,,,,,,,,,0,131,5,5,2250,2250,absent_patch/patch0002250.jpg,absent_patch/patch0002250.jpg,,,,,,,,,,,,,,,,,,,,-0.037962949,0.103703711,1,0,0,response7disk,33,0.010185171,0.003703683,1,0,0,center_square,0,32,32,56,1,,,,,,,,,,,,,,,,,,,,,,,
834318,001,2022-11-21_24h50.42.900,Info_measure_main_exp,2022.2.2,Win32,59.93766483,,,,,,,,,,,,,,,,,,masks/mask_003.jpg,,,,,,,,,,,,,,,,,,,,,,,,,,,,,,,,,,,,,,,,,,,0,0,0,2,1,,,,,,,,,,,,,,,,,,,,,,,,,,,,,,,,,,,,,,,,,,,,,,
834318,001,2022-11-21_24h50.42.900,Info_measure_main_exp,2022.2.2,Win32,59.93766483,,,,,,,,,,,,,,,,,,masks/mask_002.jpg,,,,,,,,,,,,,,,,,,,,,,,,,,,,,,,,,,,,,,,,,,,0,1,1,1,1,,,,,,,,,,,,,,,,,,,,,,,,,,,,,,,,,,,,,,,,,,,,,,
834318,001,2022-11-21_24h50.42.900,Info_measure_main_exp,2022.2.2,Win32,59.93766483,,,,,,,,,,,,,,,,,,masks/mask_004.jpg,,,,,,,,,,,,,,,,,,,,,,,,,,,,,,,,,,,,,,,,,,,0,2,2,3,1,,,,,,,,,,,,,,,,,,,,,,,,,,,,,,,,,,,,,,,,,,,,,,
834318,001,2022-11-21_24h50.42.900,Info_measure_main_exp,2022.2.2,Win32,59.93766483,,,,,,,,,,,,,,,,,,masks/mask_005.jpg,,,,,,,,,,,,,,,,,,,,,,,,,,,,,,,,,,,,,,,,,,,0,3,3,4,1,,,,,,,,,,,,,,,,,,,,,,,,,,,,,,,,,,,,,,,,,,,,,,
834318,001,2022-11-21_24h50.42.900,Info_measure_main_exp,2022.2.2,Win32,59.93766483,,,,,,,,,,,,,,,,,,masks/mask_001.jpg,,,,,,,,,,,,,,,,,,,,,,,,,,,,,,,,,,,,,,,,,,,0,4,4,0,1,,,,,,,,,,,,,,,,,,,,,,,,,,,,,,,,,,,,,,,,,,,,,,
834318,001,2022-11-21_24h50.42.900,Info_measure_main_exp,2022.2.2,Win32,59.93766483,,,,,,,,,,,,,,,,,,masks/mask_005.jpg,,,,,,,,,,,,,,,,,,,,,,,,,,,,,,,,,,,,,,,,,,,,,,,,0,0,0,4,1,,,,,,,,,,,,,,,,,,,,,,,,,,,,,,,,,,,,,,,,,
834318,001,2022-11-21_24h50.42.900,Info_measure_main_exp,2022.2.2,Win32,59.93766483,,,,,,,,,,,,,,,,,,masks/mask_004.jpg,,,,,,,,,,,,,,,,,,,,,,,,,,,,,,,,,,,,,,,,,,,,,,,,0,1,1,3,1,,,,,,,,,,,,,,,,,,,,,,,,,,,,,,,,,,,,,,,,,
834318,001,2022-11-21_24h50.42.900,Info_measure_main_exp,2022.2.2,Win32,59.93766483,,,,,,,,,,,,,,,,,,masks/mask_002.jpg,,,,,,,,,,,,,,,,,,,,,,,,,,,,,,,,,,,,,,,,,,,,,,,,0,2,2,1,1,,,,,,,,,,,,,,,,,,,,,,,,,,,,,,,,,,,,,,,,,
834318,001,2022-11-21_24h50.42.900,Info_measure_main_exp,2022.2.2,Win32,59.93766483,,,,,,,,,,,,,,,,,,masks/mask_001.jpg,,,,,,,,,,,,,,,,,,,,,,,,,,,,,,,,,,,,,,,,,,,,,,,,0,3,3,0,1,,,,,,,,,,,,,,,,,,,,,,,,,,,,,,,,,,,,,,,,,
834318,001,2022-11-21_24h50.42.900,Info_measure_main_exp,2022.2.2,Win32,59.93766483,,,,,,,,,,,,,,,,,,masks/mask_003.jpg,,,,,,,,,,,,,,,,,,,,,,,,,,,,,,,,,,,,,,,,,,,,,,,,0,4,4,2,1,,,,,,,,,,,,,,,,,,,,,,,,,,,,,,,,,,,,,,,,,
834318,001,2022-11-21_24h50.42.900,Info_measure_main_exp,2022.2.2,Win32,59.93766483,,,,,,,,,,,,,,,,,,,,,,,,,,,,,,6,1.6604,1,,,,,,,,,,,,0,131,5,5,2082,2298,absent_patch/patch0002082.jpg,absent_patch/patch0002298.jpg,,,,,,,,,,,,,,,,,,,,0.095370399,0.027777778,1,0,0,response1disk,34,-0.008333347,-0.003703718,1,0,0,center_square,0,33,33,107,1,,,,,,,,,,,,,,,,,,,,,,,
834318,001,2022-11-21_24h50.42.900,Info_measure_main_exp,2022.2.2,Win32,59.93766483,,,,,,,,,,,,,,,,,,masks/mask_005.jpg,,,,,,,,,,,,,,,,,,,,,,,,,,,,,,,,,,,,,,,,,,,0,0,0,4,1,,,,,,,,,,,,,,,,,,,,,,,,,,,,,,,,,,,,,,,,,,,,,,
834318,001,2022-11-21_24h50.42.900,Info_measure_main_exp,2022.2.2,Win32,59.93766483,,,,,,,,,,,,,,,,,,masks/mask_001.jpg,,,,,,,,,,,,,,,,,,,,,,,,,,,,,,,,,,,,,,,,,,,0,1,1,0,1,,,,,,,,,,,,,,,,,,,,,,,,,,,,,,,,,,,,,,,,,,,,,,
834318,001,2022-11-21_24h50.42.900,Info_measure_main_exp,2022.2.2,Win32,59.93766483,,,,,,,,,,,,,,,,,,masks/mask_003.jpg,,,,,,,,,,,,,,,,,,,,,,,,,,,,,,,,,,,,,,,,,,,0,2,2,2,1,,,,,,,,,,,,,,,,,,,,,,,,,,,,,,,,,,,,,,,,,,,,,,
834318,001,2022-11-21_24h50.42.900,Info_measure_main_exp,2022.2.2,Win32,59.93766483,,,,,,,,,,,,,,,,,,masks/mask_004.jpg,,,,,,,,,,,,,,,,,,,,,,,,,,,,,,,,,,,,,,,,,,,0,3,3,3,1,,,,,,,,,,,,,,,,,,,,,,,,,,,,,,,,,,,,,,,,,,,,,,
834318,001,2022-11-21_24h50.42.900,Info_measure_main_exp,2022.2.2,Win32,59.93766483,,,,,,,,,,,,,,,,,,masks/mask_002.jpg,,,,,,,,,,,,,,,,,,,,,,,,,,,,,,,,,,,,,,,,,,,0,4,4,1,1,,,,,,,,,,,,,,,,,,,,,,,,,,,,,,,,,,,,,,,,,,,,,,
834318,001,2022-11-21_24h50.42.900,Info_measure_main_exp,2022.2.2,Win32,59.93766483,,,,,,,,,,,,,,,,,,masks/mask_004.jpg,,,,,,,,,,,,,,,,,,,,,,,,,,,,,,,,,,,,,,,,,,,,,,,,0,0,0,3,1,,,,,,,,,,,,,,,,,,,,,,,,,,,,,,,,,,,,,,,,,
834318,001,2022-11-21_24h50.42.900,Info_measure_main_exp,2022.2.2,Win32,59.93766483,,,,,,,,,,,,,,,,,,masks/mask_005.jpg,,,,,,,,,,,,,,,,,,,,,,,,,,,,,,,,,,,,,,,,,,,,,,,,0,1,1,4,1,,,,,,,,,,,,,,,,,,,,,,,,,,,,,,,,,,,,,,,,,
834318,001,2022-11-21_24h50.42.900,Info_measure_main_exp,2022.2.2,Win32,59.93766483,,,,,,,,,,,,,,,,,,masks/mask_002.jpg,,,,,,,,,,,,,,,,,,,,,,,,,,,,,,,,,,,,,,,,,,,,,,,,0,2,2,1,1,,,,,,,,,,,,,,,,,,,,,,,,,,,,,,,,,,,,,,,,,
834318,001,2022-11-21_24h50.42.900,Info_measure_main_exp,2022.2.2,Win32,59.93766483,,,,,,,,,,,,,,,,,,masks/mask_003.jpg,,,,,,,,,,,,,,,,,,,,,,,,,,,,,,,,,,,,,,,,,,,,,,,,0,3,3,2,1,,,,,,,,,,,,,,,,,,,,,,,,,,,,,,,,,,,,,,,,,
