participant,session,date,expName,psychopyVersion,OS,frameRate,space_press_continue.keys,space_press_continue.rt,space_press_continue_2.keys,space_press_continue_2.rt,space_press_continue_3.keys,space_press_continue_3.rt,space_press_continue_4.keys,space_press_continue_4.rt,space_press_continue_5.keys,space_press_continue_5.rt,space_press_continue_6.keys,space_press_continue_6.rt,prac_mask_loop_1.thisRepN,prac_mask_loop_1.thisTrialN,prac_mask_loop_1.thisN,prac_mask_loop_1.thisIndex,prac_mask_loop_1.ran,mask_name,prac_mask_loop_2.thisRepN,prac_mask_loop_2.thisTrialN,prac_mask_loop_2.thisN,prac_mask_loop_2.thisIndex,prac_mask_loop_2.ran,mouse_2.x,mouse_2.y,mouse_2.leftButton,mouse_2.midButton,mouse_2.rightButton,mouse_2.clicked_name,similarity,response_time,Pass,mouse_12.x,mouse_12.y,mouse_12.leftButton,mouse_12.midButton,mouse_12.rightButton,mouse_12.clicked_name,prac_loop.thisRepN,prac_loop.thisTrialN,prac_loop.thisN,prac_loop.thisIndex,prac_loop.ran,Pair_type,Image_num,Patch_1_loc,Patch_2_loc,Patch_1_info,Patch_2_info,Patch_1_name,Patch_2_name,mouse_1.x,mouse_1.y,mouse_1.leftButton,mouse_1.midButton,mouse_1.rightButton,mouse_1.time,mouse_1.clicked_name,space_press_continue_7.keys,space_press_continue_7.rt,mask_loop.thisRepN,mask_loop.thisTrialN,mask_loop.thisN,mask_loop.thisIndex,mask_loop.ran,mask_loop_2.thisRepN,mask_loop_2.thisTrialN,mask_loop_2.thisN,mask_loop_2.thisIndex,mask_loop_2.ran,mouse.x,mouse.y,mouse.leftButton,mouse.midButton,mouse.rightButton,mouse.clicked_name,trialNumber,mouse_11.x,mouse_11.y,mouse_11.leftButton,mouse_11.midButton,mouse_11.rightButton,mouse_11.clicked_name,first_pass_loop.thisRepN,first_pass_loop.thisTrialN,first_pass_loop.thisN,first_pass_loop.thisIndex,first_pass_loop.ran,mask_loop_3.thisRepN,mask_loop_3.thisTrialN,mask_loop_3.thisN,mask_loop_3.thisIndex,mask_loop_3.ran,mask_loop_4.thisRepN,mask_loop_4.thisTrialN,mask_loop_4.thisN,mask_loop_4.thisIndex,mask_loop_4.ran,mouse_3.x,mouse_3.y,mouse_3.leftButton,mouse_3.midButton,mouse_3.rightButton,mouse_3.clicked_name,double_pass_loop.thisRepN,double_pass_loop.thisTrialN,double_pass_loop.thisN,double_pass_loop.thisIndex,double_pass_loop.ran,space_exit.keys,space_exit.rt
838553,001,2022-11-20_23h54.19.661,Info_measure_main_exp,2022.2.2,Win32,120.6709304,,,,,,,,,,,,,,,,,,,,,,,,,,,,,,,,,,,,,,,,,,,,,,,,,,,,,,,,,,,,,,,,,,,,,,,,,,,,,,,,,,,,,,,,,,,,,,,,,,,,,,,,,,,,,,,
838553,001,2022-11-20_23h54.19.661,Info_measure_main_exp,2022.2.2,Win32,120.6709304,,,,,,,,,,,,,,,,,,,,,,,,,,,,,,,,,,,,,,,,,,,,,,,,,,,,,,,,,,,,,,,,,,,,,,,,,,,,,,,,,,,,,,,,,,,,,,,,,,,,,,,,,,,,,,,
838553,001,2022-11-20_23h54.19.661,Info_measure_main_exp,2022.2.2,Win32,120.6709304,space,7.0617,,,,,,,,,,,,,,,,,,,,,,,,,,,,,,,,,,,,,,,,,,,,,,,,,,,,,,,,,,,,,,,,,,,,,,,,,,,,,,,,,,,,,,,,,,,,,,,,,,,,,,,,,,,,,
838553,001,2022-11-20_23h54.19.661,Info_measure_main_exp,2022.2.2,Win32,120.6709304,,,space,37.292,,,,,,,,,,,,,,,,,,,,,,,,,,,,,,,,,,,,,,,,,,,,,,,,,,,,,,,,,,,,,,,,,,,,,,,,,,,,,,,,,,,,,,,,,,,,,,,,,,,,,,,,,,,
838553,001,2022-11-20_23h54.19.661,Info_measure_main_exp,2022.2.2,Win32,120.6709304,,,,,space,6.9089,,,,,,,,,,,,,,,,,,,,,,,,,,,,,,,,,,,,,,,,,,,,,,,,,,,,,,,,,,,,,,,,,,,,,,,,,,,,,,,,,,,,,,,,,,,,,,,,,,,,,,,,,
838553,001,2022-11-20_23h54.19.661,Info_measure_main_exp,2022.2.2,Win32,120.6709304,,,,,,,space,18.9688,,,,,,,,,,,,,,,,,,,,,,,,,,,,,,,,,,,,,,,,,,,,,,,,,,,,,,,,,,,,,,,,,,,,,,,,,,,,,,,,,,,,,,,,,,,,,,,,,,,,,,,
838553,001,2022-11-20_23h54.19.661,Info_measure_main_exp,2022.2.2,Win32,120.6709304,,,,,,,,,space,5.5567,,,,,,,,,,,,,,,,,,,,,,,,,,,,,,,,,,,,,,,,,,,,,,,,,,,,,,,,,,,,,,,,,,,,,,,,,,,,,,,,,,,,,,,,,,,,,,,,,,,,,
838553,001,2022-11-20_23h54.19.661,Info_measure_main_exp,2022.2.2,Win32,120.6709304,,,,,,,,,,,space,2.8713,,,,,,,,,,,,,,,,,,,,,,,,,,,,,,,,,,,,,,,,,,,,,,,,,,,,,,,,,,,,,,,,,,,,,,,,,,,,,,,,,,,,,,,,,,,,,,,,,,,
838553,001,2022-11-20_23h54.19.661,Info_measure_main_exp,2022.2.2,Win32,120.6709304,,,,,,,,,,,,,0,0,0,3,1,masks/mask_004.jpg,,,,,,,,,,,,,,,,,,,,,,,,,,,,,,,,,,,,,,,,,,,,,,,,,,,,,,,,,,,,,,,,,,,,,,,,,,,,,,,,,,,,,,,,,,,,,
838553,001,2022-11-20_23h54.19.661,Info_measure_main_exp,2022.2.2,Win32,120.6709304,,,,,,,,,,,,,0,1,1,4,1,masks/mask_005.jpg,,,,,,,,,,,,,,,,,,,,,,,,,,,,,,,,,,,,,,,,,,,,,,,,,,,,,,,,,,,,,,,,,,,,,,,,,,,,,,,,,,,,,,,,,,,,,
838553,001,2022-11-20_23h54.19.661,Info_measure_main_exp,2022.2.2,Win32,120.6709304,,,,,,,,,,,,,0,2,2,0,1,masks/mask_001.jpg,,,,,,,,,,,,,,,,,,,,,,,,,,,,,,,,,,,,,,,,,,,,,,,,,,,,,,,,,,,,,,,,,,,,,,,,,,,,,,,,,,,,,,,,,,,,,
838553,001,2022-11-20_23h54.19.661,Info_measure_main_exp,2022.2.2,Win32,120.6709304,,,,,,,,,,,,,0,3,3,1,1,masks/mask_002.jpg,,,,,,,,,,,,,,,,,,,,,,,,,,,,,,,,,,,,,,,,,,,,,,,,,,,,,,,,,,,,,,,,,,,,,,,,,,,,,,,,,,,,,,,,,,,,,
838553,001,2022-11-20_23h54.19.661,Info_measure_main_exp,2022.2.2,Win32,120.6709304,,,,,,,,,,,,,0,4,4,2,1,masks/mask_003.jpg,,,,,,,,,,,,,,,,,,,,,,,,,,,,,,,,,,,,,,,,,,,,,,,,,,,,,,,,,,,,,,,,,,,,,,,,,,,,,,,,,,,,,,,,,,,,,
838553,001,2022-11-20_23h54.19.661,Info_measure_main_exp,2022.2.2,Win32,120.6709304,,,,,,,,,,,,,,,,,,masks/mask_005.jpg,0,0,0,4,1,,,,,,,,,,,,,,,,,,,,,,,,,,,,,,,,,,,,,,,,,,,,,,,,,,,,,,,,,,,,,,,,,,,,,,,,,,,,,,,,,,,,,,,,
838553,001,2022-11-20_23h54.19.661,Info_measure_main_exp,2022.2.2,Win32,120.6709304,,,,,,,,,,,,,,,,,,masks/mask_003.jpg,0,1,1,2,1,,,,,,,,,,,,,,,,,,,,,,,,,,,,,,,,,,,,,,,,,,,,,,,,,,,,,,,,,,,,,,,,,,,,,,,,,,,,,,,,,,,,,,,,
838553,001,2022-11-20_23h54.19.661,Info_measure_main_exp,2022.2.2,Win32,120.6709304,,,,,,,,,,,,,,,,,,masks/mask_002.jpg,0,2,2,1,1,,,,,,,,,,,,,,,,,,,,,,,,,,,,,,,,,,,,,,,,,,,,,,,,,,,,,,,,,,,,,,,,,,,,,,,,,,,,,,,,,,,,,,,,
838553,001,2022-11-20_23h54.19.661,Info_measure_main_exp,2022.2.2,Win32,120.6709304,,,,,,,,,,,,,,,,,,masks/mask_001.jpg,0,3,3,0,1,,,,,,,,,,,,,,,,,,,,,,,,,,,,,,,,,,,,,,,,,,,,,,,,,,,,,,,,,,,,,,,,,,,,,,,,,,,,,,,,,,,,,,,,
838553,001,2022-11-20_23h54.19.661,Info_measure_main_exp,2022.2.2,Win32,120.6709304,,,,,,,,,,,,,,,,,,masks/mask_004.jpg,0,4,4,3,1,,,,,,,,,,,,,,,,,,,,,,,,,,,,,,,,,,,,,,,,,,,,,,,,,,,,,,,,,,,,,,,,,,,,,,,,,,,,,,,,,,,,,,,,
838553,001,2022-11-20_23h54.19.661,Info_measure_main_exp,2022.2.2,Win32,120.6709304,,,,,,,,,,,,,,,,,,,,,,,,-0.047392407,0.139988467,1,0,0,response7disk,0,82.3847,1,-0.007596838,-0.009939184,1,0,0,center_square,0,0,0,1,1,0,131,5,5,2514,2490,prac_patch/patch0002514.jpg,prac_patch/patch0002490.jpg,,,,,,,,,,,,,,,,,,,,,,,,,,,,,,,,,,,,,,,,,,,,,,,,,,,,,,,,,,,,
838553,001,2022-11-20_23h54.19.661,Info_measure_main_exp,2022.2.2,Win32,120.6709304,,,,,,,,,,,,,0,0,0,2,1,masks/mask_003.jpg,,,,,,,,,,,,,,,,,,,,,,,,,,,,,,,,,,,,,,,,,,,,,,,,,,,,,,,,,,,,,,,,,,,,,,,,,,,,,,,,,,,,,,,,,,,,,
838553,001,2022-11-20_23h54.19.661,Info_measure_main_exp,2022.2.2,Win32,120.6709304,,,,,,,,,,,,,0,1,1,0,1,masks/mask_001.jpg,,,,,,,,,,,,,,,,,,,,,,,,,,,,,,,,,,,,,,,,,,,,,,,,,,,,,,,,,,,,,,,,,,,,,,,,,,,,,,,,,,,,,,,,,,,,,
838553,001,2022-11-20_23h54.19.661,Info_measure_main_exp,2022.2.2,Win32,120.6709304,,,,,,,,,,,,,0,2,2,4,1,masks/mask_005.jpg,,,,,,,,,,,,,,,,,,,,,,,,,,,,,,,,,,,,,,,,,,,,,,,,,,,,,,,,,,,,,,,,,,,,,,,,,,,,,,,,,,,,,,,,,,,,,
838553,001,2022-11-20_23h54.19.661,Info_measure_main_exp,2022.2.2,Win32,120.6709304,,,,,,,,,,,,,0,3,3,3,1,masks/mask_004.jpg,,,,,,,,,,,,,,,,,,,,,,,,,,,,,,,,,,,,,,,,,,,,,,,,,,,,,,,,,,,,,,,,,,,,,,,,,,,,,,,,,,,,,,,,,,,,,
838553,001,2022-11-20_23h54.19.661,Info_measure_main_exp,2022.2.2,Win32,120.6709304,,,,,,,,,,,,,0,4,4,1,1,masks/mask_002.jpg,,,,,,,,,,,,,,,,,,,,,,,,,,,,,,,,,,,,,,,,,,,,,,,,,,,,,,,,,,,,,,,,,,,,,,,,,,,,,,,,,,,,,,,,,,,,,
838553,001,2022-11-20_23h54.19.661,Info_measure_main_exp,2022.2.2,Win32,120.6709304,,,,,,,,,,,,,,,,,,masks/mask_005.jpg,0,0,0,4,1,,,,,,,,,,,,,,,,,,,,,,,,,,,,,,,,,,,,,,,,,,,,,,,,,,,,,,,,,,,,,,,,,,,,,,,,,,,,,,,,,,,,,,,,
838553,001,2022-11-20_23h54.19.661,Info_measure_main_exp,2022.2.2,Win32,120.6709304,,,,,,,,,,,,,,,,,,masks/mask_004.jpg,0,1,1,3,1,,,,,,,,,,,,,,,,,,,,,,,,,,,,,,,,,,,,,,,,,,,,,,,,,,,,,,,,,,,,,,,,,,,,,,,,,,,,,,,,,,,,,,,,
838553,001,2022-11-20_23h54.19.661,Info_measure_main_exp,2022.2.2,Win32,120.6709304,,,,,,,,,,,,,,,,,,masks/mask_001.jpg,0,2,2,0,1,,,,,,,,,,,,,,,,,,,,,,,,,,,,,,,,,,,,,,,,,,,,,,,,,,,,,,,,,,,,,,,,,,,,,,,,,,,,,,,,,,,,,,,,
838553,001,2022-11-20_23h54.19.661,Info_measure_main_exp,2022.2.2,Win32,120.6709304,,,,,,,,,,,,,,,,,,masks/mask_002.jpg,0,3,3,1,1,,,,,,,,,,,,,,,,,,,,,,,,,,,,,,,,,,,,,,,,,,,,,,,,,,,,,,,,,,,,,,,,,,,,,,,,,,,,,,,,,,,,,,,,
838553,001,2022-11-20_23h54.19.661,Info_measure_main_exp,2022.2.2,Win32,120.6709304,,,,,,,,,,,,,,,,,,masks/mask_003.jpg,0,4,4,2,1,,,,,,,,,,,,,,,,,,,,,,,,,,,,,,,,,,,,,,,,,,,,,,,,,,,,,,,,,,,,,,,,,,,,,,,,,,,,,,,,,,,,,,,,
838553,001,2022-11-20_23h54.19.661,Info_measure_main_exp,2022.2.2,Win32,120.6709304,,,,,,,,,,,,,,,,,,,,,,,,0.100684383,0.145541404,1,0,0,response1disk,7,94.4957,1,-0.005745719,-0.009939184,1,0,0,center_square,0,1,1,0,1,0,131,5,5,2370,2406,prac_patch/patch0002370.jpg,prac_patch/patch0002406.jpg,,,,,,,,,,,,,,,,,,,,,,,,,,,,,,,,,,,,,,,,,,,,,,,,,,,,,,,,,,,,
838553,001,2022-11-20_23h54.19.661,Info_measure_main_exp,2022.2.2,Win32,120.6709304,,,,,,,,,,,,,0,0,0,4,1,masks/mask_005.jpg,,,,,,,,,,,,,,,,,,,,,,,,,,,,,,,,,,,,,,,,,,,,,,,,,,,,,,,,,,,,,,,,,,,,,,,,,,,,,,,,,,,,,,,,,,,,,
838553,001,2022-11-20_23h54.19.661,Info_measure_main_exp,2022.2.2,Win32,120.6709304,,,,,,,,,,,,,0,1,1,0,1,masks/mask_001.jpg,,,,,,,,,,,,,,,,,,,,,,,,,,,,,,,,,,,,,,,,,,,,,,,,,,,,,,,,,,,,,,,,,,,,,,,,,,,,,,,,,,,,,,,,,,,,,
838553,001,2022-11-20_23h54.19.661,Info_measure_main_exp,2022.2.2,Win32,120.6709304,,,,,,,,,,,,,0,2,2,3,1,masks/mask_004.jpg,,,,,,,,,,,,,,,,,,,,,,,,,,,,,,,,,,,,,,,,,,,,,,,,,,,,,,,,,,,,,,,,,,,,,,,,,,,,,,,,,,,,,,,,,,,,,
838553,001,2022-11-20_23h54.19.661,Info_measure_main_exp,2022.2.2,Win32,120.6709304,,,,,,,,,,,,,0,3,3,2,1,masks/mask_003.jpg,,,,,,,,,,,,,,,,,,,,,,,,,,,,,,,,,,,,,,,,,,,,,,,,,,,,,,,,,,,,,,,,,,,,,,,,,,,,,,,,,,,,,,,,,,,,,
838553,001,2022-11-20_23h54.19.661,Info_measure_main_exp,2022.2.2,Win32,120.6709304,,,,,,,,,,,,,0,4,4,1,1,masks/mask_002.jpg,,,,,,,,,,,,,,,,,,,,,,,,,,,,,,,,,,,,,,,,,,,,,,,,,,,,,,,,,,,,,,,,,,,,,,,,,,,,,,,,,,,,,,,,,,,,,
838553,001,2022-11-20_23h54.19.661,Info_measure_main_exp,2022.2.2,Win32,120.6709304,,,,,,,,,,,,,,,,,,masks/mask_002.jpg,0,0,0,1,1,,,,,,,,,,,,,,,,,,,,,,,,,,,,,,,,,,,,,,,,,,,,,,,,,,,,,,,,,,,,,,,,,,,,,,,,,,,,,,,,,,,,,,,,
838553,001,2022-11-20_23h54.19.661,Info_measure_main_exp,2022.2.2,Win32,120.6709304,,,,,,,,,,,,,,,,,,masks/mask_001.jpg,0,1,1,0,1,,,,,,,,,,,,,,,,,,,,,,,,,,,,,,,,,,,,,,,,,,,,,,,,,,,,,,,,,,,,,,,,,,,,,,,,,,,,,,,,,,,,,,,,
838553,001,2022-11-20_23h54.19.661,Info_measure_main_exp,2022.2.2,Win32,120.6709304,,,,,,,,,,,,,,,,,,masks/mask_003.jpg,0,2,2,2,1,,,,,,,,,,,,,,,,,,,,,,,,,,,,,,,,,,,,,,,,,,,,,,,,,,,,,,,,,,,,,,,,,,,,,,,,,,,,,,,,,,,,,,,,
838553,001,2022-11-20_23h54.19.661,Info_measure_main_exp,2022.2.2,Win32,120.6709304,,,,,,,,,,,,,,,,,,masks/mask_004.jpg,0,3,3,3,1,,,,,,,,,,,,,,,,,,,,,,,,,,,,,,,,,,,,,,,,,,,,,,,,,,,,,,,,,,,,,,,,,,,,,,,,,,,,,,,,,,,,,,,,
838553,001,2022-11-20_23h54.19.661,Info_measure_main_exp,2022.2.2,Win32,120.6709304,,,,,,,,,,,,,,,,,,masks/mask_005.jpg,0,4,4,4,1,,,,,,,,,,,,,,,,,,,,,,,,,,,,,,,,,,,,,,,,,,,,,,,,,,,,,,,,,,,,,,,,,,,,,,,,,,,,,,,,,,,,,,,,
838553,001,2022-11-20_23h54.19.661,Info_measure_main_exp,2022.2.2,Win32,120.6709304,,,,,,,,,,,,,,,,,,,,,,,,-0.049243268,0.120553398,1,0,0,response7disk,0,102.1655,1,0.009987436,-0.003460881,1,0,0,center_square,0,2,2,2,1,0,131,5,5,2526,2526,prac_patch/patch0002526.jpg,prac_patch/patch0002526.jpg,,,,,,,,,,,,,,,,,,,,,,,,,,,,,,,,,,,,,,,,,,,,,,,,,,,,,,,,,,,,
838553,001,2022-11-20_23h54.19.661,Info_measure_main_exp,2022.2.2,Win32,120.6709304,,,,,,,,,,,,,,,,,,,,,,,,,,,,,,,,,,,,,,,,,,,,,,,,,,,,,,,,,,,space,1.2246,,,,,,,,,,,,,,,,,,,,,,,,,,,,,,,,,,,,,,,,,,,,,,,,,,,
838553,001,2022-11-20_23h54.19.661,Info_measure_main_exp,2022.2.2,Win32,120.6709304,,,,,,,,,,,,,,,,,,masks/mask_003.jpg,,,,,,,,,,,,,,,,,,,,,,,,,,,,,,,,,,,,,,,,,,,0,0,0,2,1,,,,,,,,,,,,,,,,,,,,,,,,,,,,,,,,,,,,,,,,,,,,,,
838553,001,2022-11-20_23h54.19.661,Info_measure_main_exp,2022.2.2,Win32,120.6709304,,,,,,,,,,,,,,,,,,masks/mask_004.jpg,,,,,,,,,,,,,,,,,,,,,,,,,,,,,,,,,,,,,,,,,,,0,1,1,3,1,,,,,,,,,,,,,,,,,,,,,,,,,,,,,,,,,,,,,,,,,,,,,,
838553,001,2022-11-20_23h54.19.661,Info_measure_main_exp,2022.2.2,Win32,120.6709304,,,,,,,,,,,,,,,,,,masks/mask_005.jpg,,,,,,,,,,,,,,,,,,,,,,,,,,,,,,,,,,,,,,,,,,,0,2,2,4,1,,,,,,,,,,,,,,,,,,,,,,,,,,,,,,,,,,,,,,,,,,,,,,
838553,001,2022-11-20_23h54.19.661,Info_measure_main_exp,2022.2.2,Win32,120.6709304,,,,,,,,,,,,,,,,,,masks/mask_002.jpg,,,,,,,,,,,,,,,,,,,,,,,,,,,,,,,,,,,,,,,,,,,0,3,3,1,1,,,,,,,,,,,,,,,,,,,,,,,,,,,,,,,,,,,,,,,,,,,,,,
838553,001,2022-11-20_23h54.19.661,Info_measure_main_exp,2022.2.2,Win32,120.6709304,,,,,,,,,,,,,,,,,,masks/mask_001.jpg,,,,,,,,,,,,,,,,,,,,,,,,,,,,,,,,,,,,,,,,,,,0,4,4,0,1,,,,,,,,,,,,,,,,,,,,,,,,,,,,,,,,,,,,,,,,,,,,,,
838553,001,2022-11-20_23h54.19.661,Info_measure_main_exp,2022.2.2,Win32,120.6709304,,,,,,,,,,,,,,,,,,masks/mask_002.jpg,,,,,,,,,,,,,,,,,,,,,,,,,,,,,,,,,,,,,,,,,,,,,,,,0,0,0,1,1,,,,,,,,,,,,,,,,,,,,,,,,,,,,,,,,,,,,,,,,,
838553,001,2022-11-20_23h54.19.661,Info_measure_main_exp,2022.2.2,Win32,120.6709304,,,,,,,,,,,,,,,,,,masks/mask_004.jpg,,,,,,,,,,,,,,,,,,,,,,,,,,,,,,,,,,,,,,,,,,,,,,,,0,1,1,3,1,,,,,,,,,,,,,,,,,,,,,,,,,,,,,,,,,,,,,,,,,
838553,001,2022-11-20_23h54.19.661,Info_measure_main_exp,2022.2.2,Win32,120.6709304,,,,,,,,,,,,,,,,,,masks/mask_003.jpg,,,,,,,,,,,,,,,,,,,,,,,,,,,,,,,,,,,,,,,,,,,,,,,,0,2,2,2,1,,,,,,,,,,,,,,,,,,,,,,,,,,,,,,,,,,,,,,,,,
838553,001,2022-11-20_23h54.19.661,Info_measure_main_exp,2022.2.2,Win32,120.6709304,,,,,,,,,,,,,,,,,,masks/mask_005.jpg,,,,,,,,,,,,,,,,,,,,,,,,,,,,,,,,,,,,,,,,,,,,,,,,0,3,3,4,1,,,,,,,,,,,,,,,,,,,,,,,,,,,,,,,,,,,,,,,,,
838553,001,2022-11-20_23h54.19.661,Info_measure_main_exp,2022.2.2,Win32,120.6709304,,,,,,,,,,,,,,,,,,masks/mask_001.jpg,,,,,,,,,,,,,,,,,,,,,,,,,,,,,,,,,,,,,,,,,,,,,,,,0,4,4,0,1,,,,,,,,,,,,,,,,,,,,,,,,,,,,,,,,,,,,,,,,,
838553,001,2022-11-20_23h54.19.661,Info_measure_main_exp,2022.2.2,Win32,120.6709304,,,,,,,,,,,,,,,,,,,,,,,,,,,,,,7,1.5475,1,,,,,,,,,,,,0,131,5,5,2082,1974,absent_patch/patch0002082.jpg,absent_patch/patch0001974.jpg,,,,,,,,,,,,,,,,,,,,0.096057038,0.147392362,1,0,0,response1disk,1,0.008136316,-0.009939184,1,0,0,center_square,0,0,0,26,1,,,,,,,,,,,,,,,,,,,,,,,
838553,001,2022-11-20_23h54.19.661,Info_measure_main_exp,2022.2.2,Win32,120.6709304,,,,,,,,,,,,,,,,,,masks/mask_003.jpg,,,,,,,,,,,,,,,,,,,,,,,,,,,,,,,,,,,,,,,,,,,0,0,0,2,1,,,,,,,,,,,,,,,,,,,,,,,,,,,,,,,,,,,,,,,,,,,,,,
838553,001,2022-11-20_23h54.19.661,Info_measure_main_exp,2022.2.2,Win32,120.6709304,,,,,,,,,,,,,,,,,,masks/mask_002.jpg,,,,,,,,,,,,,,,,,,,,,,,,,,,,,,,,,,,,,,,,,,,0,1,1,1,1,,,,,,,,,,,,,,,,,,,,,,,,,,,,,,,,,,,,,,,,,,,,,,
838553,001,2022-11-20_23h54.19.661,Info_measure_main_exp,2022.2.2,Win32,120.6709304,,,,,,,,,,,,,,,,,,masks/mask_004.jpg,,,,,,,,,,,,,,,,,,,,,,,,,,,,,,,,,,,,,,,,,,,0,2,2,3,1,,,,,,,,,,,,,,,,,,,,,,,,,,,,,,,,,,,,,,,,,,,,,,
838553,001,2022-11-20_23h54.19.661,Info_measure_main_exp,2022.2.2,Win32,120.6709304,,,,,,,,,,,,,,,,,,masks/mask_005.jpg,,,,,,,,,,,,,,,,,,,,,,,,,,,,,,,,,,,,,,,,,,,0,3,3,4,1,,,,,,,,,,,,,,,,,,,,,,,,,,,,,,,,,,,,,,,,,,,,,,
838553,001,2022-11-20_23h54.19.661,Info_measure_main_exp,2022.2.2,Win32,120.6709304,,,,,,,,,,,,,,,,,,masks/mask_001.jpg,,,,,,,,,,,,,,,,,,,,,,,,,,,,,,,,,,,,,,,,,,,0,4,4,0,1,,,,,,,,,,,,,,,,,,,,,,,,,,,,,,,,,,,,,,,,,,,,,,
838553,001,2022-11-20_23h54.19.661,Info_measure_main_exp,2022.2.2,Win32,120.6709304,,,,,,,,,,,,,,,,,,masks/mask_005.jpg,,,,,,,,,,,,,,,,,,,,,,,,,,,,,,,,,,,,,,,,,,,,,,,,0,0,0,4,1,,,,,,,,,,,,,,,,,,,,,,,,,,,,,,,,,,,,,,,,,
838553,001,2022-11-20_23h54.19.661,Info_measure_main_exp,2022.2.2,Win32,120.6709304,,,,,,,,,,,,,,,,,,masks/mask_003.jpg,,,,,,,,,,,,,,,,,,,,,,,,,,,,,,,,,,,,,,,,,,,,,,,,0,1,1,2,1,,,,,,,,,,,,,,,,,,,,,,,,,,,,,,,,,,,,,,,,,
838553,001,2022-11-20_23h54.19.661,Info_measure_main_exp,2022.2.2,Win32,120.6709304,,,,,,,,,,,,,,,,,,masks/mask_001.jpg,,,,,,,,,,,,,,,,,,,,,,,,,,,,,,,,,,,,,,,,,,,,,,,,0,2,2,0,1,,,,,,,,,,,,,,,,,,,,,,,,,,,,,,,,,,,,,,,,,
838553,001,2022-11-20_23h54.19.661,Info_measure_main_exp,2022.2.2,Win32,120.6709304,,,,,,,,,,,,,,,,,,masks/mask_004.jpg,,,,,,,,,,,,,,,,,,,,,,,,,,,,,,,,,,,,,,,,,,,,,,,,0,3,3,3,1,,,,,,,,,,,,,,,,,,,,,,,,,,,,,,,,,,,,,,,,,
838553,001,2022-11-20_23h54.19.661,Info_measure_main_exp,2022.2.2,Win32,120.6709304,,,,,,,,,,,,,,,,,,masks/mask_002.jpg,,,,,,,,,,,,,,,,,,,,,,,,,,,,,,,,,,,,,,,,,,,,,,,,0,4,4,1,1,,,,,,,,,,,,,,,,,,,,,,,,,,,,,,,,,,,,,,,,,
838553,001,2022-11-20_23h54.19.661,Info_measure_main_exp,2022.2.2,Win32,120.6709304,,,,,,,,,,,,,,,,,,,,,,,,,,,,,,7,1.3809,1,,,,,,,,,,,,0,131,5,5,2166,2298,absent_patch/patch0002166.jpg,absent_patch/patch0002298.jpg,,,,,,,,,,,,,,,,,,,,0.0581122,0.11870244,1,0,0,response1disk,2,0.009061941,-0.009013753,1,0,0,center_square,0,1,1,52,1,,,,,,,,,,,,,,,,,,,,,,,
838553,001,2022-11-20_23h54.19.661,Info_measure_main_exp,2022.2.2,Win32,120.6709304,,,,,,,,,,,,,,,,,,masks/mask_004.jpg,,,,,,,,,,,,,,,,,,,,,,,,,,,,,,,,,,,,,,,,,,,0,0,0,3,1,,,,,,,,,,,,,,,,,,,,,,,,,,,,,,,,,,,,,,,,,,,,,,
838553,001,2022-11-20_23h54.19.661,Info_measure_main_exp,2022.2.2,Win32,120.6709304,,,,,,,,,,,,,,,,,,masks/mask_002.jpg,,,,,,,,,,,,,,,,,,,,,,,,,,,,,,,,,,,,,,,,,,,0,1,1,1,1,,,,,,,,,,,,,,,,,,,,,,,,,,,,,,,,,,,,,,,,,,,,,,
838553,001,2022-11-20_23h54.19.661,Info_measure_main_exp,2022.2.2,Win32,120.6709304,,,,,,,,,,,,,,,,,,masks/mask_003.jpg,,,,,,,,,,,,,,,,,,,,,,,,,,,,,,,,,,,,,,,,,,,0,2,2,2,1,,,,,,,,,,,,,,,,,,,,,,,,,,,,,,,,,,,,,,,,,,,,,,
838553,001,2022-11-20_23h54.19.661,Info_measure_main_exp,2022.2.2,Win32,120.6709304,,,,,,,,,,,,,,,,,,masks/mask_005.jpg,,,,,,,,,,,,,,,,,,,,,,,,,,,,,,,,,,,,,,,,,,,0,3,3,4,1,,,,,,,,,,,,,,,,,,,,,,,,,,,,,,,,,,,,,,,,,,,,,,
838553,001,2022-11-20_23h54.19.661,Info_measure_main_exp,2022.2.2,Win32,120.6709304,,,,,,,,,,,,,,,,,,masks/mask_001.jpg,,,,,,,,,,,,,,,,,,,,,,,,,,,,,,,,,,,,,,,,,,,0,4,4,0,1,,,,,,,,,,,,,,,,,,,,,,,,,,,,,,,,,,,,,,,,,,,,,,
838553,001,2022-11-20_23h54.19.661,Info_measure_main_exp,2022.2.2,Win32,120.6709304,,,,,,,,,,,,,,,,,,masks/mask_003.jpg,,,,,,,,,,,,,,,,,,,,,,,,,,,,,,,,,,,,,,,,,,,,,,,,0,0,0,2,1,,,,,,,,,,,,,,,,,,,,,,,,,,,,,,,,,,,,,,,,,
838553,001,2022-11-20_23h54.19.661,Info_measure_main_exp,2022.2.2,Win32,120.6709304,,,,,,,,,,,,,,,,,,masks/mask_004.jpg,,,,,,,,,,,,,,,,,,,,,,,,,,,,,,,,,,,,,,,,,,,,,,,,0,1,1,3,1,,,,,,,,,,,,,,,,,,,,,,,,,,,,,,,,,,,,,,,,,
838553,001,2022-11-20_23h54.19.661,Info_measure_main_exp,2022.2.2,Win32,120.6709304,,,,,,,,,,,,,,,,,,masks/mask_002.jpg,,,,,,,,,,,,,,,,,,,,,,,,,,,,,,,,,,,,,,,,,,,,,,,,0,2,2,1,1,,,,,,,,,,,,,,,,,,,,,,,,,,,,,,,,,,,,,,,,,
838553,001,2022-11-20_23h54.19.661,Info_measure_main_exp,2022.2.2,Win32,120.6709304,,,,,,,,,,,,,,,,,,masks/mask_005.jpg,,,,,,,,,,,,,,,,,,,,,,,,,,,,,,,,,,,,,,,,,,,,,,,,0,3,3,4,1,,,,,,,,,,,,,,,,,,,,,,,,,,,,,,,,,,,,,,,,,
838553,001,2022-11-20_23h54.19.661,Info_measure_main_exp,2022.2.2,Win32,120.6709304,,,,,,,,,,,,,,,,,,masks/mask_001.jpg,,,,,,,,,,,,,,,,,,,,,,,,,,,,,,,,,,,,,,,,,,,,,,,,0,4,4,0,1,,,,,,,,,,,,,,,,,,,,,,,,,,,,,,,,,,,,,,,,,
838553,001,2022-11-20_23h54.19.661,Info_measure_main_exp,2022.2.2,Win32,120.6709304,,,,,,,,,,,,,,,,,,,,,,,,,,,,,,0,1.8468,1,,,,,,,,,,,,0,131,5,5,2142,2190,absent_patch/patch0002142.jpg,absent_patch/patch0002190.jpg,,,,,,,,,,,,,,,,,,,,-0.064976422,0.136286552,1,0,0,response7disk,3,-0.001118374,-0.000684429,1,0,0,center_square,0,2,2,70,1,,,,,,,,,,,,,,,,,,,,,,,
838553,001,2022-11-20_23h54.19.661,Info_measure_main_exp,2022.2.2,Win32,120.6709304,,,,,,,,,,,,,,,,,,masks/mask_004.jpg,,,,,,,,,,,,,,,,,,,,,,,,,,,,,,,,,,,,,,,,,,,0,0,0,3,1,,,,,,,,,,,,,,,,,,,,,,,,,,,,,,,,,,,,,,,,,,,,,,
838553,001,2022-11-20_23h54.19.661,Info_measure_main_exp,2022.2.2,Win32,120.6709304,,,,,,,,,,,,,,,,,,masks/mask_003.jpg,,,,,,,,,,,,,,,,,,,,,,,,,,,,,,,,,,,,,,,,,,,0,1,1,2,1,,,,,,,,,,,,,,,,,,,,,,,,,,,,,,,,,,,,,,,,,,,,,,
838553,001,2022-11-20_23h54.19.661,Info_measure_main_exp,2022.2.2,Win32,120.6709304,,,,,,,,,,,,,,,,,,masks/mask_001.jpg,,,,,,,,,,,,,,,,,,,,,,,,,,,,,,,,,,,,,,,,,,,0,2,2,0,1,,,,,,,,,,,,,,,,,,,,,,,,,,,,,,,,,,,,,,,,,,,,,,
838553,001,2022-11-20_23h54.19.661,Info_measure_main_exp,2022.2.2,Win32,120.6709304,,,,,,,,,,,,,,,,,,masks/mask_005.jpg,,,,,,,,,,,,,,,,,,,,,,,,,,,,,,,,,,,,,,,,,,,0,3,3,4,1,,,,,,,,,,,,,,,,,,,,,,,,,,,,,,,,,,,,,,,,,,,,,,
838553,001,2022-11-20_23h54.19.661,Info_measure_main_exp,2022.2.2,Win32,120.6709304,,,,,,,,,,,,,,,,,,masks/mask_002.jpg,,,,,,,,,,,,,,,,,,,,,,,,,,,,,,,,,,,,,,,,,,,0,4,4,1,1,,,,,,,,,,,,,,,,,,,,,,,,,,,,,,,,,,,,,,,,,,,,,,
838553,001,2022-11-20_23h54.19.661,Info_measure_main_exp,2022.2.2,Win32,120.6709304,,,,,,,,,,,,,,,,,,masks/mask_001.jpg,,,,,,,,,,,,,,,,,,,,,,,,,,,,,,,,,,,,,,,,,,,,,,,,0,0,0,0,1,,,,,,,,,,,,,,,,,,,,,,,,,,,,,,,,,,,,,,,,,
838553,001,2022-11-20_23h54.19.661,Info_measure_main_exp,2022.2.2,Win32,120.6709304,,,,,,,,,,,,,,,,,,masks/mask_004.jpg,,,,,,,,,,,,,,,,,,,,,,,,,,,,,,,,,,,,,,,,,,,,,,,,0,1,1,3,1,,,,,,,,,,,,,,,,,,,,,,,,,,,,,,,,,,,,,,,,,
838553,001,2022-11-20_23h54.19.661,Info_measure_main_exp,2022.2.2,Win32,120.6709304,,,,,,,,,,,,,,,,,,masks/mask_003.jpg,,,,,,,,,,,,,,,,,,,,,,,,,,,,,,,,,,,,,,,,,,,,,,,,0,2,2,2,1,,,,,,,,,,,,,,,,,,,,,,,,,,,,,,,,,,,,,,,,,
838553,001,2022-11-20_23h54.19.661,Info_measure_main_exp,2022.2.2,Win32,120.6709304,,,,,,,,,,,,,,,,,,masks/mask_002.jpg,,,,,,,,,,,,,,,,,,,,,,,,,,,,,,,,,,,,,,,,,,,,,,,,0,3,3,1,1,,,,,,,,,,,,,,,,,,,,,,,,,,,,,,,,,,,,,,,,,
838553,001,2022-11-20_23h54.19.661,Info_measure_main_exp,2022.2.2,Win32,120.6709304,,,,,,,,,,,,,,,,,,masks/mask_005.jpg,,,,,,,,,,,,,,,,,,,,,,,,,,,,,,,,,,,,,,,,,,,,,,,,0,4,4,4,1,,,,,,,,,,,,,,,,,,,,,,,,,,,,,,,,,,,,,,,,,
838553,001,2022-11-20_23h54.19.661,Info_measure_main_exp,2022.2.2,Win32,120.6709304,,,,,,,,,,,,,,,,,,,,,,,,,,,,,,7,1.0649,1,,,,,,,,,,,,1,131,5,5,1950,1,absent_patch/patch0001950.jpg,present_patch/cong_131_5_a.jpg,,,,,,,,,,,,,,,,,,,,0.115492108,0.126106303,1,0,0,response1disk,4,0.003508907,0.007644864,1,0,0,center_square,0,3,3,39,1,,,,,,,,,,,,,,,,,,,,,,,
838553,001,2022-11-20_23h54.19.661,Info_measure_main_exp,2022.2.2,Win32,120.6709304,,,,,,,,,,,,,,,,,,masks/mask_002.jpg,,,,,,,,,,,,,,,,,,,,,,,,,,,,,,,,,,,,,,,,,,,0,0,0,1,1,,,,,,,,,,,,,,,,,,,,,,,,,,,,,,,,,,,,,,,,,,,,,,
838553,001,2022-11-20_23h54.19.661,Info_measure_main_exp,2022.2.2,Win32,120.6709304,,,,,,,,,,,,,,,,,,masks/mask_001.jpg,,,,,,,,,,,,,,,,,,,,,,,,,,,,,,,,,,,,,,,,,,,0,1,1,0,1,,,,,,,,,,,,,,,,,,,,,,,,,,,,,,,,,,,,,,,,,,,,,,
838553,001,2022-11-20_23h54.19.661,Info_measure_main_exp,2022.2.2,Win32,120.6709304,,,,,,,,,,,,,,,,,,masks/mask_003.jpg,,,,,,,,,,,,,,,,,,,,,,,,,,,,,,,,,,,,,,,,,,,0,2,2,2,1,,,,,,,,,,,,,,,,,,,,,,,,,,,,,,,,,,,,,,,,,,,,,,
838553,001,2022-11-20_23h54.19.661,Info_measure_main_exp,2022.2.2,Win32,120.6709304,,,,,,,,,,,,,,,,,,masks/mask_005.jpg,,,,,,,,,,,,,,,,,,,,,,,,,,,,,,,,,,,,,,,,,,,0,3,3,4,1,,,,,,,,,,,,,,,,,,,,,,,,,,,,,,,,,,,,,,,,,,,,,,
838553,001,2022-11-20_23h54.19.661,Info_measure_main_exp,2022.2.2,Win32,120.6709304,,,,,,,,,,,,,,,,,,masks/mask_004.jpg,,,,,,,,,,,,,,,,,,,,,,,,,,,,,,,,,,,,,,,,,,,0,4,4,3,1,,,,,,,,,,,,,,,,,,,,,,,,,,,,,,,,,,,,,,,,,,,,,,
838553,001,2022-11-20_23h54.19.661,Info_measure_main_exp,2022.2.2,Win32,120.6709304,,,,,,,,,,,,,,,,,,masks/mask_004.jpg,,,,,,,,,,,,,,,,,,,,,,,,,,,,,,,,,,,,,,,,,,,,,,,,0,0,0,3,1,,,,,,,,,,,,,,,,,,,,,,,,,,,,,,,,,,,,,,,,,
838553,001,2022-11-20_23h54.19.661,Info_measure_main_exp,2022.2.2,Win32,120.6709304,,,,,,,,,,,,,,,,,,masks/mask_005.jpg,,,,,,,,,,,,,,,,,,,,,,,,,,,,,,,,,,,,,,,,,,,,,,,,0,1,1,4,1,,,,,,,,,,,,,,,,,,,,,,,,,,,,,,,,,,,,,,,,,
838553,001,2022-11-20_23h54.19.661,Info_measure_main_exp,2022.2.2,Win32,120.6709304,,,,,,,,,,,,,,,,,,masks/mask_003.jpg,,,,,,,,,,,,,,,,,,,,,,,,,,,,,,,,,,,,,,,,,,,,,,,,0,2,2,2,1,,,,,,,,,,,,,,,,,,,,,,,,,,,,,,,,,,,,,,,,,
838553,001,2022-11-20_23h54.19.661,Info_measure_main_exp,2022.2.2,Win32,120.6709304,,,,,,,,,,,,,,,,,,masks/mask_002.jpg,,,,,,,,,,,,,,,,,,,,,,,,,,,,,,,,,,,,,,,,,,,,,,,,0,3,3,1,1,,,,,,,,,,,,,,,,,,,,,,,,,,,,,,,,,,,,,,,,,
838553,001,2022-11-20_23h54.19.661,Info_measure_main_exp,2022.2.2,Win32,120.6709304,,,,,,,,,,,,,,,,,,masks/mask_001.jpg,,,,,,,,,,,,,,,,,,,,,,,,,,,,,,,,,,,,,,,,,,,,,,,,0,4,4,0,1,,,,,,,,,,,,,,,,,,,,,,,,,,,,,,,,,,,,,,,,,
838553,001,2022-11-20_23h54.19.661,Info_measure_main_exp,2022.2.2,Win32,120.6709304,,,,,,,,,,,,,,,,,,,,,,,,,,,,,,7,0.7921,1,,,,,,,,,,,,0,131,5,5,1950,2298,absent_patch/patch0001950.jpg,absent_patch/patch0002298.jpg,,,,,,,,,,,,,,,,,,,,0.062739739,0.114075095,1,0,0,response1disk,5,-0.002043804,-0.001609924,1,0,0,center_square,0,4,4,18,1,,,,,,,,,,,,,,,,,,,,,,,
838553,001,2022-11-20_23h54.19.661,Info_measure_main_exp,2022.2.2,Win32,120.6709304,,,,,,,,,,,,,,,,,,masks/mask_001.jpg,,,,,,,,,,,,,,,,,,,,,,,,,,,,,,,,,,,,,,,,,,,0,0,0,0,1,,,,,,,,,,,,,,,,,,,,,,,,,,,,,,,,,,,,,,,,,,,,,,
838553,001,2022-11-20_23h54.19.661,Info_measure_main_exp,2022.2.2,Win32,120.6709304,,,,,,,,,,,,,,,,,,masks/mask_002.jpg,,,,,,,,,,,,,,,,,,,,,,,,,,,,,,,,,,,,,,,,,,,0,1,1,1,1,,,,,,,,,,,,,,,,,,,,,,,,,,,,,,,,,,,,,,,,,,,,,,
838553,001,2022-11-20_23h54.19.661,Info_measure_main_exp,2022.2.2,Win32,120.6709304,,,,,,,,,,,,,,,,,,masks/mask_003.jpg,,,,,,,,,,,,,,,,,,,,,,,,,,,,,,,,,,,,,,,,,,,0,2,2,2,1,,,,,,,,,,,,,,,,,,,,,,,,,,,,,,,,,,,,,,,,,,,,,,
838553,001,2022-11-20_23h54.19.661,Info_measure_main_exp,2022.2.2,Win32,120.6709304,,,,,,,,,,,,,,,,,,masks/mask_005.jpg,,,,,,,,,,,,,,,,,,,,,,,,,,,,,,,,,,,,,,,,,,,0,3,3,4,1,,,,,,,,,,,,,,,,,,,,,,,,,,,,,,,,,,,,,,,,,,,,,,
838553,001,2022-11-20_23h54.19.661,Info_measure_main_exp,2022.2.2,Win32,120.6709304,,,,,,,,,,,,,,,,,,masks/mask_004.jpg,,,,,,,,,,,,,,,,,,,,,,,,,,,,,,,,,,,,,,,,,,,0,4,4,3,1,,,,,,,,,,,,,,,,,,,,,,,,,,,,,,,,,,,,,,,,,,,,,,
838553,001,2022-11-20_23h54.19.661,Info_measure_main_exp,2022.2.2,Win32,120.6709304,,,,,,,,,,,,,,,,,,masks/mask_004.jpg,,,,,,,,,,,,,,,,,,,,,,,,,,,,,,,,,,,,,,,,,,,,,,,,0,0,0,3,1,,,,,,,,,,,,,,,,,,,,,,,,,,,,,,,,,,,,,,,,,
838553,001,2022-11-20_23h54.19.661,Info_measure_main_exp,2022.2.2,Win32,120.6709304,,,,,,,,,,,,,,,,,,masks/mask_003.jpg,,,,,,,,,,,,,,,,,,,,,,,,,,,,,,,,,,,,,,,,,,,,,,,,0,1,1,2,1,,,,,,,,,,,,,,,,,,,,,,,,,,,,,,,,,,,,,,,,,
838553,001,2022-11-20_23h54.19.661,Info_measure_main_exp,2022.2.2,Win32,120.6709304,,,,,,,,,,,,,,,,,,masks/mask_002.jpg,,,,,,,,,,,,,,,,,,,,,,,,,,,,,,,,,,,,,,,,,,,,,,,,0,2,2,1,1,,,,,,,,,,,,,,,,,,,,,,,,,,,,,,,,,,,,,,,,,
838553,001,2022-11-20_23h54.19.661,Info_measure_main_exp,2022.2.2,Win32,120.6709304,,,,,,,,,,,,,,,,,,masks/mask_001.jpg,,,,,,,,,,,,,,,,,,,,,,,,,,,,,,,,,,,,,,,,,,,,,,,,0,3,3,0,1,,,,,,,,,,,,,,,,,,,,,,,,,,,,,,,,,,,,,,,,,
838553,001,2022-11-20_23h54.19.661,Info_measure_main_exp,2022.2.2,Win32,120.6709304,,,,,,,,,,,,,,,,,,masks/mask_005.jpg,,,,,,,,,,,,,,,,,,,,,,,,,,,,,,,,,,,,,,,,,,,,,,,,0,4,4,4,1,,,,,,,,,,,,,,,,,,,,,,,,,,,,,,,,,,,,,,,,,
838553,001,2022-11-20_23h54.19.661,Info_measure_main_exp,2022.2.2,Win32,120.6709304,,,,,,,,,,,,,,,,,,,,,,,,,,,,,,7,1.8384,1,,,,,,,,,,,,1,131,5,5,1,2154,present_patch/cong_131_5_a.jpg,absent_patch/patch0002154.jpg,,,,,,,,,,,,,,,,,,,,0.072919924,0.124255345,1,0,0,response1disk,6,-0.007596838,0.004868444,1,0,0,center_square,0,5,5,87,1,,,,,,,,,,,,,,,,,,,,,,,
838553,001,2022-11-20_23h54.19.661,Info_measure_main_exp,2022.2.2,Win32,120.6709304,,,,,,,,,,,,,,,,,,masks/mask_004.jpg,,,,,,,,,,,,,,,,,,,,,,,,,,,,,,,,,,,,,,,,,,,0,0,0,3,1,,,,,,,,,,,,,,,,,,,,,,,,,,,,,,,,,,,,,,,,,,,,,,
838553,001,2022-11-20_23h54.19.661,Info_measure_main_exp,2022.2.2,Win32,120.6709304,,,,,,,,,,,,,,,,,,masks/mask_003.jpg,,,,,,,,,,,,,,,,,,,,,,,,,,,,,,,,,,,,,,,,,,,0,1,1,2,1,,,,,,,,,,,,,,,,,,,,,,,,,,,,,,,,,,,,,,,,,,,,,,
838553,001,2022-11-20_23h54.19.661,Info_measure_main_exp,2022.2.2,Win32,120.6709304,,,,,,,,,,,,,,,,,,masks/mask_001.jpg,,,,,,,,,,,,,,,,,,,,,,,,,,,,,,,,,,,,,,,,,,,0,2,2,0,1,,,,,,,,,,,,,,,,,,,,,,,,,,,,,,,,,,,,,,,,,,,,,,
838553,001,2022-11-20_23h54.19.661,Info_measure_main_exp,2022.2.2,Win32,120.6709304,,,,,,,,,,,,,,,,,,masks/mask_005.jpg,,,,,,,,,,,,,,,,,,,,,,,,,,,,,,,,,,,,,,,,,,,0,3,3,4,1,,,,,,,,,,,,,,,,,,,,,,,,,,,,,,,,,,,,,,,,,,,,,,
838553,001,2022-11-20_23h54.19.661,Info_measure_main_exp,2022.2.2,Win32,120.6709304,,,,,,,,,,,,,,,,,,masks/mask_002.jpg,,,,,,,,,,,,,,,,,,,,,,,,,,,,,,,,,,,,,,,,,,,0,4,4,1,1,,,,,,,,,,,,,,,,,,,,,,,,,,,,,,,,,,,,,,,,,,,,,,
838553,001,2022-11-20_23h54.19.661,Info_measure_main_exp,2022.2.2,Win32,120.6709304,,,,,,,,,,,,,,,,,,masks/mask_005.jpg,,,,,,,,,,,,,,,,,,,,,,,,,,,,,,,,,,,,,,,,,,,,,,,,0,0,0,4,1,,,,,,,,,,,,,,,,,,,,,,,,,,,,,,,,,,,,,,,,,
838553,001,2022-11-20_23h54.19.661,Info_measure_main_exp,2022.2.2,Win32,120.6709304,,,,,,,,,,,,,,,,,,masks/mask_001.jpg,,,,,,,,,,,,,,,,,,,,,,,,,,,,,,,,,,,,,,,,,,,,,,,,0,1,1,0,1,,,,,,,,,,,,,,,,,,,,,,,,,,,,,,,,,,,,,,,,,
838553,001,2022-11-20_23h54.19.661,Info_measure_main_exp,2022.2.2,Win32,120.6709304,,,,,,,,,,,,,,,,,,masks/mask_002.jpg,,,,,,,,,,,,,,,,,,,,,,,,,,,,,,,,,,,,,,,,,,,,,,,,0,2,2,1,1,,,,,,,,,,,,,,,,,,,,,,,,,,,,,,,,,,,,,,,,,
838553,001,2022-11-20_23h54.19.661,Info_measure_main_exp,2022.2.2,Win32,120.6709304,,,,,,,,,,,,,,,,,,masks/mask_003.jpg,,,,,,,,,,,,,,,,,,,,,,,,,,,,,,,,,,,,,,,,,,,,,,,,0,3,3,2,1,,,,,,,,,,,,,,,,,,,,,,,,,,,,,,,,,,,,,,,,,
838553,001,2022-11-20_23h54.19.661,Info_measure_main_exp,2022.2.2,Win32,120.6709304,,,,,,,,,,,,,,,,,,masks/mask_004.jpg,,,,,,,,,,,,,,,,,,,,,,,,,,,,,,,,,,,,,,,,,,,,,,,,0,4,4,3,1,,,,,,,,,,,,,,,,,,,,,,,,,,,,,,,,,,,,,,,,,
838553,001,2022-11-20_23h54.19.661,Info_measure_main_exp,2022.2.2,Win32,120.6709304,,,,,,,,,,,,,,,,,,,,,,,,,,,,,,0,1.439,1,,,,,,,,,,,,1,131,5,5,2238,1,absent_patch/patch0002238.jpg,present_patch/cong_131_5_a.jpg,,,,,,,,,,,,,,,,,,,,-0.045541353,0.102969286,1,0,0,response7disk,7,-0.006671214,0.005793906,1,0,0,center_square,0,6,6,104,1,,,,,,,,,,,,,,,,,,,,,,,
838553,001,2022-11-20_23h54.19.661,Info_measure_main_exp,2022.2.2,Win32,120.6709304,,,,,,,,,,,,,,,,,,masks/mask_003.jpg,,,,,,,,,,,,,,,,,,,,,,,,,,,,,,,,,,,,,,,,,,,0,0,0,2,1,,,,,,,,,,,,,,,,,,,,,,,,,,,,,,,,,,,,,,,,,,,,,,
838553,001,2022-11-20_23h54.19.661,Info_measure_main_exp,2022.2.2,Win32,120.6709304,,,,,,,,,,,,,,,,,,masks/mask_005.jpg,,,,,,,,,,,,,,,,,,,,,,,,,,,,,,,,,,,,,,,,,,,0,1,1,4,1,,,,,,,,,,,,,,,,,,,,,,,,,,,,,,,,,,,,,,,,,,,,,,
838553,001,2022-11-20_23h54.19.661,Info_measure_main_exp,2022.2.2,Win32,120.6709304,,,,,,,,,,,,,,,,,,masks/mask_002.jpg,,,,,,,,,,,,,,,,,,,,,,,,,,,,,,,,,,,,,,,,,,,0,2,2,1,1,,,,,,,,,,,,,,,,,,,,,,,,,,,,,,,,,,,,,,,,,,,,,,
838553,001,2022-11-20_23h54.19.661,Info_measure_main_exp,2022.2.2,Win32,120.6709304,,,,,,,,,,,,,,,,,,masks/mask_004.jpg,,,,,,,,,,,,,,,,,,,,,,,,,,,,,,,,,,,,,,,,,,,0,3,3,3,1,,,,,,,,,,,,,,,,,,,,,,,,,,,,,,,,,,,,,,,,,,,,,,
838553,001,2022-11-20_23h54.19.661,Info_measure_main_exp,2022.2.2,Win32,120.6709304,,,,,,,,,,,,,,,,,,masks/mask_001.jpg,,,,,,,,,,,,,,,,,,,,,,,,,,,,,,,,,,,,,,,,,,,0,4,4,0,1,,,,,,,,,,,,,,,,,,,,,,,,,,,,,,,,,,,,,,,,,,,,,,
838553,001,2022-11-20_23h54.19.661,Info_measure_main_exp,2022.2.2,Win32,120.6709304,,,,,,,,,,,,,,,,,,masks/mask_005.jpg,,,,,,,,,,,,,,,,,,,,,,,,,,,,,,,,,,,,,,,,,,,,,,,,0,0,0,4,1,,,,,,,,,,,,,,,,,,,,,,,,,,,,,,,,,,,,,,,,,
838553,001,2022-11-20_23h54.19.661,Info_measure_main_exp,2022.2.2,Win32,120.6709304,,,,,,,,,,,,,,,,,,masks/mask_001.jpg,,,,,,,,,,,,,,,,,,,,,,,,,,,,,,,,,,,,,,,,,,,,,,,,0,1,1,0,1,,,,,,,,,,,,,,,,,,,,,,,,,,,,,,,,,,,,,,,,,
838553,001,2022-11-20_23h54.19.661,Info_measure_main_exp,2022.2.2,Win32,120.6709304,,,,,,,,,,,,,,,,,,masks/mask_003.jpg,,,,,,,,,,,,,,,,,,,,,,,,,,,,,,,,,,,,,,,,,,,,,,,,0,2,2,2,1,,,,,,,,,,,,,,,,,,,,,,,,,,,,,,,,,,,,,,,,,
838553,001,2022-11-20_23h54.19.661,Info_measure_main_exp,2022.2.2,Win32,120.6709304,,,,,,,,,,,,,,,,,,masks/mask_004.jpg,,,,,,,,,,,,,,,,,,,,,,,,,,,,,,,,,,,,,,,,,,,,,,,,0,3,3,3,1,,,,,,,,,,,,,,,,,,,,,,,,,,,,,,,,,,,,,,,,,
838553,001,2022-11-20_23h54.19.661,Info_measure_main_exp,2022.2.2,Win32,120.6709304,,,,,,,,,,,,,,,,,,masks/mask_002.jpg,,,,,,,,,,,,,,,,,,,,,,,,,,,,,,,,,,,,,,,,,,,,,,,,0,4,4,1,1,,,,,,,,,,,,,,,,,,,,,,,,,,,,,,,,,,,,,,,,,
838553,001,2022-11-20_23h54.19.661,Info_measure_main_exp,2022.2.2,Win32,120.6709304,,,,,,,,,,,,,,,,,,,,,,,,,,,,,,5,1.6554,1,,,,,,,,,,,,0,131,5,5,1974,2250,absent_patch/patch0001974.jpg,absent_patch/patch0002250.jpg,,,,,,,,,,,,,,,,,,,,0.146032922,-0.03492719,1,0,0,response3disk,8,0.006285521,-0.002535386,1,0,0,center_square,0,7,7,55,1,,,,,,,,,,,,,,,,,,,,,,,
838553,001,2022-11-20_23h54.19.661,Info_measure_main_exp,2022.2.2,Win32,120.6709304,,,,,,,,,,,,,,,,,,masks/mask_005.jpg,,,,,,,,,,,,,,,,,,,,,,,,,,,,,,,,,,,,,,,,,,,0,0,0,4,1,,,,,,,,,,,,,,,,,,,,,,,,,,,,,,,,,,,,,,,,,,,,,,
838553,001,2022-11-20_23h54.19.661,Info_measure_main_exp,2022.2.2,Win32,120.6709304,,,,,,,,,,,,,,,,,,masks/mask_004.jpg,,,,,,,,,,,,,,,,,,,,,,,,,,,,,,,,,,,,,,,,,,,0,1,1,3,1,,,,,,,,,,,,,,,,,,,,,,,,,,,,,,,,,,,,,,,,,,,,,,
838553,001,2022-11-20_23h54.19.661,Info_measure_main_exp,2022.2.2,Win32,120.6709304,,,,,,,,,,,,,,,,,,masks/mask_001.jpg,,,,,,,,,,,,,,,,,,,,,,,,,,,,,,,,,,,,,,,,,,,0,2,2,0,1,,,,,,,,,,,,,,,,,,,,,,,,,,,,,,,,,,,,,,,,,,,,,,
838553,001,2022-11-20_23h54.19.661,Info_measure_main_exp,2022.2.2,Win32,120.6709304,,,,,,,,,,,,,,,,,,masks/mask_002.jpg,,,,,,,,,,,,,,,,,,,,,,,,,,,,,,,,,,,,,,,,,,,0,3,3,1,1,,,,,,,,,,,,,,,,,,,,,,,,,,,,,,,,,,,,,,,,,,,,,,
838553,001,2022-11-20_23h54.19.661,Info_measure_main_exp,2022.2.2,Win32,120.6709304,,,,,,,,,,,,,,,,,,masks/mask_003.jpg,,,,,,,,,,,,,,,,,,,,,,,,,,,,,,,,,,,,,,,,,,,0,4,4,2,1,,,,,,,,,,,,,,,,,,,,,,,,,,,,,,,,,,,,,,,,,,,,,,
838553,001,2022-11-20_23h54.19.661,Info_measure_main_exp,2022.2.2,Win32,120.6709304,,,,,,,,,,,,,,,,,,masks/mask_001.jpg,,,,,,,,,,,,,,,,,,,,,,,,,,,,,,,,,,,,,,,,,,,,,,,,0,0,0,0,1,,,,,,,,,,,,,,,,,,,,,,,,,,,,,,,,,,,,,,,,,
838553,001,2022-11-20_23h54.19.661,Info_measure_main_exp,2022.2.2,Win32,120.6709304,,,,,,,,,,,,,,,,,,masks/mask_003.jpg,,,,,,,,,,,,,,,,,,,,,,,,,,,,,,,,,,,,,,,,,,,,,,,,0,1,1,2,1,,,,,,,,,,,,,,,,,,,,,,,,,,,,,,,,,,,,,,,,,
838553,001,2022-11-20_23h54.19.661,Info_measure_main_exp,2022.2.2,Win32,120.6709304,,,,,,,,,,,,,,,,,,masks/mask_002.jpg,,,,,,,,,,,,,,,,,,,,,,,,,,,,,,,,,,,,,,,,,,,,,,,,0,2,2,1,1,,,,,,,,,,,,,,,,,,,,,,,,,,,,,,,,,,,,,,,,,
838553,001,2022-11-20_23h54.19.661,Info_measure_main_exp,2022.2.2,Win32,120.6709304,,,,,,,,,,,,,,,,,,masks/mask_005.jpg,,,,,,,,,,,,,,,,,,,,,,,,,,,,,,,,,,,,,,,,,,,,,,,,0,3,3,4,1,,,,,,,,,,,,,,,,,,,,,,,,,,,,,,,,,,,,,,,,,
838553,001,2022-11-20_23h54.19.661,Info_measure_main_exp,2022.2.2,Win32,120.6709304,,,,,,,,,,,,,,,,,,masks/mask_004.jpg,,,,,,,,,,,,,,,,,,,,,,,,,,,,,,,,,,,,,,,,,,,,,,,,0,4,4,3,1,,,,,,,,,,,,,,,,,,,,,,,,,,,,,,,,,,,,,,,,,
838553,001,2022-11-20_23h54.19.661,Info_measure_main_exp,2022.2.2,Win32,120.6709304,,,,,,,,,,,,,,,,,,,,,,,,,,,,,,7,2.171,1,,,,,,,,,,,,0,131,5,5,2214,2166,absent_patch/patch0002214.jpg,absent_patch/patch0002166.jpg,,,,,,,,,,,,,,,,,,,,0.056261404,0.136286552,1,0,0,response1disk,9,-0.005745719,0.003942949,1,0,0,center_square,0,8,8,109,1,,,,,,,,,,,,,,,,,,,,,,,
838553,001,2022-11-20_23h54.19.661,Info_measure_main_exp,2022.2.2,Win32,120.6709304,,,,,,,,,,,,,,,,,,masks/mask_001.jpg,,,,,,,,,,,,,,,,,,,,,,,,,,,,,,,,,,,,,,,,,,,0,0,0,0,1,,,,,,,,,,,,,,,,,,,,,,,,,,,,,,,,,,,,,,,,,,,,,,
838553,001,2022-11-20_23h54.19.661,Info_measure_main_exp,2022.2.2,Win32,120.6709304,,,,,,,,,,,,,,,,,,masks/mask_005.jpg,,,,,,,,,,,,,,,,,,,,,,,,,,,,,,,,,,,,,,,,,,,0,1,1,4,1,,,,,,,,,,,,,,,,,,,,,,,,,,,,,,,,,,,,,,,,,,,,,,
838553,001,2022-11-20_23h54.19.661,Info_measure_main_exp,2022.2.2,Win32,120.6709304,,,,,,,,,,,,,,,,,,masks/mask_002.jpg,,,,,,,,,,,,,,,,,,,,,,,,,,,,,,,,,,,,,,,,,,,0,2,2,1,1,,,,,,,,,,,,,,,,,,,,,,,,,,,,,,,,,,,,,,,,,,,,,,
838553,001,2022-11-20_23h54.19.661,Info_measure_main_exp,2022.2.2,Win32,120.6709304,,,,,,,,,,,,,,,,,,masks/mask_003.jpg,,,,,,,,,,,,,,,,,,,,,,,,,,,,,,,,,,,,,,,,,,,0,3,3,2,1,,,,,,,,,,,,,,,,,,,,,,,,,,,,,,,,,,,,,,,,,,,,,,
838553,001,2022-11-20_23h54.19.661,Info_measure_main_exp,2022.2.2,Win32,120.6709304,,,,,,,,,,,,,,,,,,masks/mask_004.jpg,,,,,,,,,,,,,,,,,,,,,,,,,,,,,,,,,,,,,,,,,,,0,4,4,3,1,,,,,,,,,,,,,,,,,,,,,,,,,,,,,,,,,,,,,,,,,,,,,,
838553,001,2022-11-20_23h54.19.661,Info_measure_main_exp,2022.2.2,Win32,120.6709304,,,,,,,,,,,,,,,,,,masks/mask_003.jpg,,,,,,,,,,,,,,,,,,,,,,,,,,,,,,,,,,,,,,,,,,,,,,,,0,0,0,2,1,,,,,,,,,,,,,,,,,,,,,,,,,,,,,,,,,,,,,,,,,
838553,001,2022-11-20_23h54.19.661,Info_measure_main_exp,2022.2.2,Win32,120.6709304,,,,,,,,,,,,,,,,,,masks/mask_004.jpg,,,,,,,,,,,,,,,,,,,,,,,,,,,,,,,,,,,,,,,,,,,,,,,,0,1,1,3,1,,,,,,,,,,,,,,,,,,,,,,,,,,,,,,,,,,,,,,,,,
838553,001,2022-11-20_23h54.19.661,Info_measure_main_exp,2022.2.2,Win32,120.6709304,,,,,,,,,,,,,,,,,,masks/mask_002.jpg,,,,,,,,,,,,,,,,,,,,,,,,,,,,,,,,,,,,,,,,,,,,,,,,0,2,2,1,1,,,,,,,,,,,,,,,,,,,,,,,,,,,,,,,,,,,,,,,,,
838553,001,2022-11-20_23h54.19.661,Info_measure_main_exp,2022.2.2,Win32,120.6709304,,,,,,,,,,,,,,,,,,masks/mask_001.jpg,,,,,,,,,,,,,,,,,,,,,,,,,,,,,,,,,,,,,,,,,,,,,,,,0,3,3,0,1,,,,,,,,,,,,,,,,,,,,,,,,,,,,,,,,,,,,,,,,,
838553,001,2022-11-20_23h54.19.661,Info_measure_main_exp,2022.2.2,Win32,120.6709304,,,,,,,,,,,,,,,,,,masks/mask_005.jpg,,,,,,,,,,,,,,,,,,,,,,,,,,,,,,,,,,,,,,,,,,,,,,,,0,4,4,4,1,,,,,,,,,,,,,,,,,,,,,,,,,,,,,,,,,,,,,,,,,
838553,001,2022-11-20_23h54.19.661,Info_measure_main_exp,2022.2.2,Win32,120.6709304,,,,,,,,,,,,,,,,,,,,,,,,,,,,,,7,1.0732,1,,,,,,,,,,,,0,131,5,5,2250,1950,absent_patch/patch0002250.jpg,absent_patch/patch0001950.jpg,,,,,,,,,,,,,,,,,,,,0.097907963,0.137212015,1,0,0,response1disk,10,-0.002969299,0.000241034,1,0,0,center_square,0,9,9,16,1,,,,,,,,,,,,,,,,,,,,,,,
838553,001,2022-11-20_23h54.19.661,Info_measure_main_exp,2022.2.2,Win32,120.6709304,,,,,,,,,,,,,,,,,,masks/mask_005.jpg,,,,,,,,,,,,,,,,,,,,,,,,,,,,,,,,,,,,,,,,,,,0,0,0,4,1,,,,,,,,,,,,,,,,,,,,,,,,,,,,,,,,,,,,,,,,,,,,,,
838553,001,2022-11-20_23h54.19.661,Info_measure_main_exp,2022.2.2,Win32,120.6709304,,,,,,,,,,,,,,,,,,masks/mask_002.jpg,,,,,,,,,,,,,,,,,,,,,,,,,,,,,,,,,,,,,,,,,,,0,1,1,1,1,,,,,,,,,,,,,,,,,,,,,,,,,,,,,,,,,,,,,,,,,,,,,,
838553,001,2022-11-20_23h54.19.661,Info_measure_main_exp,2022.2.2,Win32,120.6709304,,,,,,,,,,,,,,,,,,masks/mask_004.jpg,,,,,,,,,,,,,,,,,,,,,,,,,,,,,,,,,,,,,,,,,,,0,2,2,3,1,,,,,,,,,,,,,,,,,,,,,,,,,,,,,,,,,,,,,,,,,,,,,,
838553,001,2022-11-20_23h54.19.661,Info_measure_main_exp,2022.2.2,Win32,120.6709304,,,,,,,,,,,,,,,,,,masks/mask_003.jpg,,,,,,,,,,,,,,,,,,,,,,,,,,,,,,,,,,,,,,,,,,,0,3,3,2,1,,,,,,,,,,,,,,,,,,,,,,,,,,,,,,,,,,,,,,,,,,,,,,
838553,001,2022-11-20_23h54.19.661,Info_measure_main_exp,2022.2.2,Win32,120.6709304,,,,,,,,,,,,,,,,,,masks/mask_001.jpg,,,,,,,,,,,,,,,,,,,,,,,,,,,,,,,,,,,,,,,,,,,0,4,4,0,1,,,,,,,,,,,,,,,,,,,,,,,,,,,,,,,,,,,,,,,,,,,,,,
838553,001,2022-11-20_23h54.19.661,Info_measure_main_exp,2022.2.2,Win32,120.6709304,,,,,,,,,,,,,,,,,,masks/mask_003.jpg,,,,,,,,,,,,,,,,,,,,,,,,,,,,,,,,,,,,,,,,,,,,,,,,0,0,0,2,1,,,,,,,,,,,,,,,,,,,,,,,,,,,,,,,,,,,,,,,,,
838553,001,2022-11-20_23h54.19.661,Info_measure_main_exp,2022.2.2,Win32,120.6709304,,,,,,,,,,,,,,,,,,masks/mask_004.jpg,,,,,,,,,,,,,,,,,,,,,,,,,,,,,,,,,,,,,,,,,,,,,,,,0,1,1,3,1,,,,,,,,,,,,,,,,,,,,,,,,,,,,,,,,,,,,,,,,,
838553,001,2022-11-20_23h54.19.661,Info_measure_main_exp,2022.2.2,Win32,120.6709304,,,,,,,,,,,,,,,,,,masks/mask_002.jpg,,,,,,,,,,,,,,,,,,,,,,,,,,,,,,,,,,,,,,,,,,,,,,,,0,2,2,1,1,,,,,,,,,,,,,,,,,,,,,,,,,,,,,,,,,,,,,,,,,
838553,001,2022-11-20_23h54.19.661,Info_measure_main_exp,2022.2.2,Win32,120.6709304,,,,,,,,,,,,,,,,,,masks/mask_005.jpg,,,,,,,,,,,,,,,,,,,,,,,,,,,,,,,,,,,,,,,,,,,,,,,,0,3,3,4,1,,,,,,,,,,,,,,,,,,,,,,,,,,,,,,,,,,,,,,,,,
838553,001,2022-11-20_23h54.19.661,Info_measure_main_exp,2022.2.2,Win32,120.6709304,,,,,,,,,,,,,,,,,,masks/mask_001.jpg,,,,,,,,,,,,,,,,,,,,,,,,,,,,,,,,,,,,,,,,,,,,,,,,0,4,4,0,1,,,,,,,,,,,,,,,,,,,,,,,,,,,,,,,,,,,,,,,,,
838553,001,2022-11-20_23h54.19.661,Info_measure_main_exp,2022.2.2,Win32,120.6709304,,,,,,,,,,,,,,,,,,,,,,,,,,,,,,2,2.1542,1,,,,,,,,,,,,0,131,5,5,2274,2154,absent_patch/patch0002274.jpg,absent_patch/patch0002154.jpg,,,,,,,,,,,,,,,,,,,,-0.102921066,-0.043256515,1,0,0,response5disk,11,-0.008522268,-0.008088226,1,0,0,center_square,0,10,10,23,1,,,,,,,,,,,,,,,,,,,,,,,
838553,001,2022-11-20_23h54.19.661,Info_measure_main_exp,2022.2.2,Win32,120.6709304,,,,,,,,,,,,,,,,,,masks/mask_003.jpg,,,,,,,,,,,,,,,,,,,,,,,,,,,,,,,,,,,,,,,,,,,0,0,0,2,1,,,,,,,,,,,,,,,,,,,,,,,,,,,,,,,,,,,,,,,,,,,,,,
838553,001,2022-11-20_23h54.19.661,Info_measure_main_exp,2022.2.2,Win32,120.6709304,,,,,,,,,,,,,,,,,,masks/mask_004.jpg,,,,,,,,,,,,,,,,,,,,,,,,,,,,,,,,,,,,,,,,,,,0,1,1,3,1,,,,,,,,,,,,,,,,,,,,,,,,,,,,,,,,,,,,,,,,,,,,,,
838553,001,2022-11-20_23h54.19.661,Info_measure_main_exp,2022.2.2,Win32,120.6709304,,,,,,,,,,,,,,,,,,masks/mask_005.jpg,,,,,,,,,,,,,,,,,,,,,,,,,,,,,,,,,,,,,,,,,,,0,2,2,4,1,,,,,,,,,,,,,,,,,,,,,,,,,,,,,,,,,,,,,,,,,,,,,,
838553,001,2022-11-20_23h54.19.661,Info_measure_main_exp,2022.2.2,Win32,120.6709304,,,,,,,,,,,,,,,,,,masks/mask_002.jpg,,,,,,,,,,,,,,,,,,,,,,,,,,,,,,,,,,,,,,,,,,,0,3,3,1,1,,,,,,,,,,,,,,,,,,,,,,,,,,,,,,,,,,,,,,,,,,,,,,
838553,001,2022-11-20_23h54.19.661,Info_measure_main_exp,2022.2.2,Win32,120.6709304,,,,,,,,,,,,,,,,,,masks/mask_001.jpg,,,,,,,,,,,,,,,,,,,,,,,,,,,,,,,,,,,,,,,,,,,0,4,4,0,1,,,,,,,,,,,,,,,,,,,,,,,,,,,,,,,,,,,,,,,,,,,,,,
838553,001,2022-11-20_23h54.19.661,Info_measure_main_exp,2022.2.2,Win32,120.6709304,,,,,,,,,,,,,,,,,,masks/mask_005.jpg,,,,,,,,,,,,,,,,,,,,,,,,,,,,,,,,,,,,,,,,,,,,,,,,0,0,0,4,1,,,,,,,,,,,,,,,,,,,,,,,,,,,,,,,,,,,,,,,,,
838553,001,2022-11-20_23h54.19.661,Info_measure_main_exp,2022.2.2,Win32,120.6709304,,,,,,,,,,,,,,,,,,masks/mask_001.jpg,,,,,,,,,,,,,,,,,,,,,,,,,,,,,,,,,,,,,,,,,,,,,,,,0,1,1,0,1,,,,,,,,,,,,,,,,,,,,,,,,,,,,,,,,,,,,,,,,,
838553,001,2022-11-20_23h54.19.661,Info_measure_main_exp,2022.2.2,Win32,120.6709304,,,,,,,,,,,,,,,,,,masks/mask_004.jpg,,,,,,,,,,,,,,,,,,,,,,,,,,,,,,,,,,,,,,,,,,,,,,,,0,2,2,3,1,,,,,,,,,,,,,,,,,,,,,,,,,,,,,,,,,,,,,,,,,
838553,001,2022-11-20_23h54.19.661,Info_measure_main_exp,2022.2.2,Win32,120.6709304,,,,,,,,,,,,,,,,,,masks/mask_003.jpg,,,,,,,,,,,,,,,,,,,,,,,,,,,,,,,,,,,,,,,,,,,,,,,,0,3,3,2,1,,,,,,,,,,,,,,,,,,,,,,,,,,,,,,,,,,,,,,,,,
838553,001,2022-11-20_23h54.19.661,Info_measure_main_exp,2022.2.2,Win32,120.6709304,,,,,,,,,,,,,,,,,,masks/mask_002.jpg,,,,,,,,,,,,,,,,,,,,,,,,,,,,,,,,,,,,,,,,,,,,,,,,0,4,4,1,1,,,,,,,,,,,,,,,,,,,,,,,,,,,,,,,,,,,,,,,,,
838553,001,2022-11-20_23h54.19.661,Info_measure_main_exp,2022.2.2,Win32,120.6709304,,,,,,,,,,,,,,,,,,,,,,,,,,,,,,0,1.2478,1,,,,,,,,,,,,0,131,5,5,1974,2166,absent_patch/patch0001974.jpg,absent_patch/patch0002166.jpg,,,,,,,,,,,,,,,,,,,,-0.025180788,0.099267371,1,0,0,response7disk,12,-0.002043804,0.004868444,1,0,0,center_square,0,11,11,77,1,,,,,,,,,,,,,,,,,,,,,,,
838553,001,2022-11-20_23h54.19.661,Info_measure_main_exp,2022.2.2,Win32,120.6709304,,,,,,,,,,,,,,,,,,masks/mask_003.jpg,,,,,,,,,,,,,,,,,,,,,,,,,,,,,,,,,,,,,,,,,,,0,0,0,2,1,,,,,,,,,,,,,,,,,,,,,,,,,,,,,,,,,,,,,,,,,,,,,,
838553,001,2022-11-20_23h54.19.661,Info_measure_main_exp,2022.2.2,Win32,120.6709304,,,,,,,,,,,,,,,,,,masks/mask_004.jpg,,,,,,,,,,,,,,,,,,,,,,,,,,,,,,,,,,,,,,,,,,,0,1,1,3,1,,,,,,,,,,,,,,,,,,,,,,,,,,,,,,,,,,,,,,,,,,,,,,
838553,001,2022-11-20_23h54.19.661,Info_measure_main_exp,2022.2.2,Win32,120.6709304,,,,,,,,,,,,,,,,,,masks/mask_001.jpg,,,,,,,,,,,,,,,,,,,,,,,,,,,,,,,,,,,,,,,,,,,0,2,2,0,1,,,,,,,,,,,,,,,,,,,,,,,,,,,,,,,,,,,,,,,,,,,,,,
838553,001,2022-11-20_23h54.19.661,Info_measure_main_exp,2022.2.2,Win32,120.6709304,,,,,,,,,,,,,,,,,,masks/mask_002.jpg,,,,,,,,,,,,,,,,,,,,,,,,,,,,,,,,,,,,,,,,,,,0,3,3,1,1,,,,,,,,,,,,,,,,,,,,,,,,,,,,,,,,,,,,,,,,,,,,,,
838553,001,2022-11-20_23h54.19.661,Info_measure_main_exp,2022.2.2,Win32,120.6709304,,,,,,,,,,,,,,,,,,masks/mask_005.jpg,,,,,,,,,,,,,,,,,,,,,,,,,,,,,,,,,,,,,,,,,,,0,4,4,4,1,,,,,,,,,,,,,,,,,,,,,,,,,,,,,,,,,,,,,,,,,,,,,,
838553,001,2022-11-20_23h54.19.661,Info_measure_main_exp,2022.2.2,Win32,120.6709304,,,,,,,,,,,,,,,,,,masks/mask_004.jpg,,,,,,,,,,,,,,,,,,,,,,,,,,,,,,,,,,,,,,,,,,,,,,,,0,0,0,3,1,,,,,,,,,,,,,,,,,,,,,,,,,,,,,,,,,,,,,,,,,
838553,001,2022-11-20_23h54.19.661,Info_measure_main_exp,2022.2.2,Win32,120.6709304,,,,,,,,,,,,,,,,,,masks/mask_005.jpg,,,,,,,,,,,,,,,,,,,,,,,,,,,,,,,,,,,,,,,,,,,,,,,,0,1,1,4,1,,,,,,,,,,,,,,,,,,,,,,,,,,,,,,,,,,,,,,,,,
838553,001,2022-11-20_23h54.19.661,Info_measure_main_exp,2022.2.2,Win32,120.6709304,,,,,,,,,,,,,,,,,,masks/mask_002.jpg,,,,,,,,,,,,,,,,,,,,,,,,,,,,,,,,,,,,,,,,,,,,,,,,0,2,2,1,1,,,,,,,,,,,,,,,,,,,,,,,,,,,,,,,,,,,,,,,,,
838553,001,2022-11-20_23h54.19.661,Info_measure_main_exp,2022.2.2,Win32,120.6709304,,,,,,,,,,,,,,,,,,masks/mask_003.jpg,,,,,,,,,,,,,,,,,,,,,,,,,,,,,,,,,,,,,,,,,,,,,,,,0,3,3,2,1,,,,,,,,,,,,,,,,,,,,,,,,,,,,,,,,,,,,,,,,,
838553,001,2022-11-20_23h54.19.661,Info_measure_main_exp,2022.2.2,Win32,120.6709304,,,,,,,,,,,,,,,,,,masks/mask_001.jpg,,,,,,,,,,,,,,,,,,,,,,,,,,,,,,,,,,,,,,,,,,,,,,,,0,4,4,0,1,,,,,,,,,,,,,,,,,,,,,,,,,,,,,,,,,,,,,,,,,
838553,001,2022-11-20_23h54.19.661,Info_measure_main_exp,2022.2.2,Win32,120.6709304,,,,,,,,,,,,,,,,,,,,,,,,,,,,,,5,2.3208,1,,,,,,,,,,,,0,131,5,5,2250,2214,absent_patch/patch0002250.jpg,absent_patch/patch0002214.jpg,,,,,,,,,,,,,,,,,,,,0.109013708,-0.020119498,1,0,0,response3disk,13,0.008136316,-0.003460881,1,0,0,center_square,0,12,12,97,1,,,,,,,,,,,,,,,,,,,,,,,
838553,001,2022-11-20_23h54.19.661,Info_measure_main_exp,2022.2.2,Win32,120.6709304,,,,,,,,,,,,,,,,,,masks/mask_004.jpg,,,,,,,,,,,,,,,,,,,,,,,,,,,,,,,,,,,,,,,,,,,0,0,0,3,1,,,,,,,,,,,,,,,,,,,,,,,,,,,,,,,,,,,,,,,,,,,,,,
838553,001,2022-11-20_23h54.19.661,Info_measure_main_exp,2022.2.2,Win32,120.6709304,,,,,,,,,,,,,,,,,,masks/mask_003.jpg,,,,,,,,,,,,,,,,,,,,,,,,,,,,,,,,,,,,,,,,,,,0,1,1,2,1,,,,,,,,,,,,,,,,,,,,,,,,,,,,,,,,,,,,,,,,,,,,,,
838553,001,2022-11-20_23h54.19.661,Info_measure_main_exp,2022.2.2,Win32,120.6709304,,,,,,,,,,,,,,,,,,masks/mask_001.jpg,,,,,,,,,,,,,,,,,,,,,,,,,,,,,,,,,,,,,,,,,,,0,2,2,0,1,,,,,,,,,,,,,,,,,,,,,,,,,,,,,,,,,,,,,,,,,,,,,,
838553,001,2022-11-20_23h54.19.661,Info_measure_main_exp,2022.2.2,Win32,120.6709304,,,,,,,,,,,,,,,,,,masks/mask_005.jpg,,,,,,,,,,,,,,,,,,,,,,,,,,,,,,,,,,,,,,,,,,,0,3,3,4,1,,,,,,,,,,,,,,,,,,,,,,,,,,,,,,,,,,,,,,,,,,,,,,
838553,001,2022-11-20_23h54.19.661,Info_measure_main_exp,2022.2.2,Win32,120.6709304,,,,,,,,,,,,,,,,,,masks/mask_002.jpg,,,,,,,,,,,,,,,,,,,,,,,,,,,,,,,,,,,,,,,,,,,0,4,4,1,1,,,,,,,,,,,,,,,,,,,,,,,,,,,,,,,,,,,,,,,,,,,,,,
838553,001,2022-11-20_23h54.19.661,Info_measure_main_exp,2022.2.2,Win32,120.6709304,,,,,,,,,,,,,,,,,,masks/mask_002.jpg,,,,,,,,,,,,,,,,,,,,,,,,,,,,,,,,,,,,,,,,,,,,,,,,0,0,0,1,1,,,,,,,,,,,,,,,,,,,,,,,,,,,,,,,,,,,,,,,,,
838553,001,2022-11-20_23h54.19.661,Info_measure_main_exp,2022.2.2,Win32,120.6709304,,,,,,,,,,,,,,,,,,masks/mask_001.jpg,,,,,,,,,,,,,,,,,,,,,,,,,,,,,,,,,,,,,,,,,,,,,,,,0,1,1,0,1,,,,,,,,,,,,,,,,,,,,,,,,,,,,,,,,,,,,,,,,,
838553,001,2022-11-20_23h54.19.661,Info_measure_main_exp,2022.2.2,Win32,120.6709304,,,,,,,,,,,,,,,,,,masks/mask_004.jpg,,,,,,,,,,,,,,,,,,,,,,,,,,,,,,,,,,,,,,,,,,,,,,,,0,2,2,3,1,,,,,,,,,,,,,,,,,,,,,,,,,,,,,,,,,,,,,,,,,
838553,001,2022-11-20_23h54.19.661,Info_measure_main_exp,2022.2.2,Win32,120.6709304,,,,,,,,,,,,,,,,,,masks/mask_003.jpg,,,,,,,,,,,,,,,,,,,,,,,,,,,,,,,,,,,,,,,,,,,,,,,,0,3,3,2,1,,,,,,,,,,,,,,,,,,,,,,,,,,,,,,,,,,,,,,,,,
838553,001,2022-11-20_23h54.19.661,Info_measure_main_exp,2022.2.2,Win32,120.6709304,,,,,,,,,,,,,,,,,,masks/mask_005.jpg,,,,,,,,,,,,,,,,,,,,,,,,,,,,,,,,,,,,,,,,,,,,,,,,0,4,4,4,1,,,,,,,,,,,,,,,,,,,,,,,,,,,,,,,,,,,,,,,,,
838553,001,2022-11-20_23h54.19.661,Info_measure_main_exp,2022.2.2,Win32,120.6709304,,,,,,,,,,,,,,,,,,,,,,,,,,,,,,7,1.3252,1,,,,,,,,,,,,0,131,5,5,2178,2154,absent_patch/patch0002178.jpg,absent_patch/patch0002154.jpg,,,,,,,,,,,,,,,,,,,,0.084951229,0.127031733,1,0,0,response1disk,14,0.015540146,0.009495886,1,0,0,center_square,0,13,13,63,1,,,,,,,,,,,,,,,,,,,,,,,
838553,001,2022-11-20_23h54.19.661,Info_measure_main_exp,2022.2.2,Win32,120.6709304,,,,,,,,,,,,,,,,,,masks/mask_002.jpg,,,,,,,,,,,,,,,,,,,,,,,,,,,,,,,,,,,,,,,,,,,0,0,0,1,1,,,,,,,,,,,,,,,,,,,,,,,,,,,,,,,,,,,,,,,,,,,,,,
838553,001,2022-11-20_23h54.19.661,Info_measure_main_exp,2022.2.2,Win32,120.6709304,,,,,,,,,,,,,,,,,,masks/mask_004.jpg,,,,,,,,,,,,,,,,,,,,,,,,,,,,,,,,,,,,,,,,,,,0,1,1,3,1,,,,,,,,,,,,,,,,,,,,,,,,,,,,,,,,,,,,,,,,,,,,,,
838553,001,2022-11-20_23h54.19.661,Info_measure_main_exp,2022.2.2,Win32,120.6709304,,,,,,,,,,,,,,,,,,masks/mask_005.jpg,,,,,,,,,,,,,,,,,,,,,,,,,,,,,,,,,,,,,,,,,,,0,2,2,4,1,,,,,,,,,,,,,,,,,,,,,,,,,,,,,,,,,,,,,,,,,,,,,,
838553,001,2022-11-20_23h54.19.661,Info_measure_main_exp,2022.2.2,Win32,120.6709304,,,,,,,,,,,,,,,,,,masks/mask_003.jpg,,,,,,,,,,,,,,,,,,,,,,,,,,,,,,,,,,,,,,,,,,,0,3,3,2,1,,,,,,,,,,,,,,,,,,,,,,,,,,,,,,,,,,,,,,,,,,,,,,
838553,001,2022-11-20_23h54.19.661,Info_measure_main_exp,2022.2.2,Win32,120.6709304,,,,,,,,,,,,,,,,,,masks/mask_001.jpg,,,,,,,,,,,,,,,,,,,,,,,,,,,,,,,,,,,,,,,,,,,0,4,4,0,1,,,,,,,,,,,,,,,,,,,,,,,,,,,,,,,,,,,,,,,,,,,,,,
838553,001,2022-11-20_23h54.19.661,Info_measure_main_exp,2022.2.2,Win32,120.6709304,,,,,,,,,,,,,,,,,,masks/mask_002.jpg,,,,,,,,,,,,,,,,,,,,,,,,,,,,,,,,,,,,,,,,,,,,,,,,0,0,0,1,1,,,,,,,,,,,,,,,,,,,,,,,,,,,,,,,,,,,,,,,,,
838553,001,2022-11-20_23h54.19.661,Info_measure_main_exp,2022.2.2,Win32,120.6709304,,,,,,,,,,,,,,,,,,masks/mask_004.jpg,,,,,,,,,,,,,,,,,,,,,,,,,,,,,,,,,,,,,,,,,,,,,,,,0,1,1,3,1,,,,,,,,,,,,,,,,,,,,,,,,,,,,,,,,,,,,,,,,,
838553,001,2022-11-20_23h54.19.661,Info_measure_main_exp,2022.2.2,Win32,120.6709304,,,,,,,,,,,,,,,,,,masks/mask_003.jpg,,,,,,,,,,,,,,,,,,,,,,,,,,,,,,,,,,,,,,,,,,,,,,,,0,2,2,2,1,,,,,,,,,,,,,,,,,,,,,,,,,,,,,,,,,,,,,,,,,
838553,001,2022-11-20_23h54.19.661,Info_measure_main_exp,2022.2.2,Win32,120.6709304,,,,,,,,,,,,,,,,,,masks/mask_001.jpg,,,,,,,,,,,,,,,,,,,,,,,,,,,,,,,,,,,,,,,,,,,,,,,,0,3,3,0,1,,,,,,,,,,,,,,,,,,,,,,,,,,,,,,,,,,,,,,,,,
838553,001,2022-11-20_23h54.19.661,Info_measure_main_exp,2022.2.2,Win32,120.6709304,,,,,,,,,,,,,,,,,,masks/mask_005.jpg,,,,,,,,,,,,,,,,,,,,,,,,,,,,,,,,,,,,,,,,,,,,,,,,0,4,4,4,1,,,,,,,,,,,,,,,,,,,,,,,,,,,,,,,,,,,,,,,,,
838553,001,2022-11-20_23h54.19.661,Info_measure_main_exp,2022.2.2,Win32,120.6709304,,,,,,,,,,,,,,,,,,,,,,,,,,,,,,7,0.7737,1,,,,,,,,,,,,0,131,5,5,2190,2214,absent_patch/patch0002190.jpg,absent_patch/patch0002214.jpg,,,,,,,,,,,,,,,,,,,,0.070143569,0.096490983,1,0,0,response1disk,15,0.013689351,-0.003460881,1,0,0,center_square,0,14,14,35,1,,,,,,,,,,,,,,,,,,,,,,,
838553,001,2022-11-20_23h54.19.661,Info_measure_main_exp,2022.2.2,Win32,120.6709304,,,,,,,,,,,,,,,,,,masks/mask_002.jpg,,,,,,,,,,,,,,,,,,,,,,,,,,,,,,,,,,,,,,,,,,,0,0,0,1,1,,,,,,,,,,,,,,,,,,,,,,,,,,,,,,,,,,,,,,,,,,,,,,
838553,001,2022-11-20_23h54.19.661,Info_measure_main_exp,2022.2.2,Win32,120.6709304,,,,,,,,,,,,,,,,,,masks/mask_001.jpg,,,,,,,,,,,,,,,,,,,,,,,,,,,,,,,,,,,,,,,,,,,0,1,1,0,1,,,,,,,,,,,,,,,,,,,,,,,,,,,,,,,,,,,,,,,,,,,,,,
838553,001,2022-11-20_23h54.19.661,Info_measure_main_exp,2022.2.2,Win32,120.6709304,,,,,,,,,,,,,,,,,,masks/mask_003.jpg,,,,,,,,,,,,,,,,,,,,,,,,,,,,,,,,,,,,,,,,,,,0,2,2,2,1,,,,,,,,,,,,,,,,,,,,,,,,,,,,,,,,,,,,,,,,,,,,,,
838553,001,2022-11-20_23h54.19.661,Info_measure_main_exp,2022.2.2,Win32,120.6709304,,,,,,,,,,,,,,,,,,masks/mask_004.jpg,,,,,,,,,,,,,,,,,,,,,,,,,,,,,,,,,,,,,,,,,,,0,3,3,3,1,,,,,,,,,,,,,,,,,,,,,,,,,,,,,,,,,,,,,,,,,,,,,,
838553,001,2022-11-20_23h54.19.661,Info_measure_main_exp,2022.2.2,Win32,120.6709304,,,,,,,,,,,,,,,,,,masks/mask_005.jpg,,,,,,,,,,,,,,,,,,,,,,,,,,,,,,,,,,,,,,,,,,,0,4,4,4,1,,,,,,,,,,,,,,,,,,,,,,,,,,,,,,,,,,,,,,,,,,,,,,
838553,001,2022-11-20_23h54.19.661,Info_measure_main_exp,2022.2.2,Win32,120.6709304,,,,,,,,,,,,,,,,,,masks/mask_003.jpg,,,,,,,,,,,,,,,,,,,,,,,,,,,,,,,,,,,,,,,,,,,,,,,,0,0,0,2,1,,,,,,,,,,,,,,,,,,,,,,,,,,,,,,,,,,,,,,,,,
838553,001,2022-11-20_23h54.19.661,Info_measure_main_exp,2022.2.2,Win32,120.6709304,,,,,,,,,,,,,,,,,,masks/mask_002.jpg,,,,,,,,,,,,,,,,,,,,,,,,,,,,,,,,,,,,,,,,,,,,,,,,0,1,1,1,1,,,,,,,,,,,,,,,,,,,,,,,,,,,,,,,,,,,,,,,,,
838553,001,2022-11-20_23h54.19.661,Info_measure_main_exp,2022.2.2,Win32,120.6709304,,,,,,,,,,,,,,,,,,masks/mask_004.jpg,,,,,,,,,,,,,,,,,,,,,,,,,,,,,,,,,,,,,,,,,,,,,,,,0,2,2,3,1,,,,,,,,,,,,,,,,,,,,,,,,,,,,,,,,,,,,,,,,,
838553,001,2022-11-20_23h54.19.661,Info_measure_main_exp,2022.2.2,Win32,120.6709304,,,,,,,,,,,,,,,,,,masks/mask_005.jpg,,,,,,,,,,,,,,,,,,,,,,,,,,,,,,,,,,,,,,,,,,,,,,,,0,3,3,4,1,,,,,,,,,,,,,,,,,,,,,,,,,,,,,,,,,,,,,,,,,
838553,001,2022-11-20_23h54.19.661,Info_measure_main_exp,2022.2.2,Win32,120.6709304,,,,,,,,,,,,,,,,,,masks/mask_001.jpg,,,,,,,,,,,,,,,,,,,,,,,,,,,,,,,,,,,,,,,,,,,,,,,,0,4,4,0,1,,,,,,,,,,,,,,,,,,,,,,,,,,,,,,,,,,,,,,,,,
838553,001,2022-11-20_23h54.19.661,Info_measure_main_exp,2022.2.2,Win32,120.6709304,,,,,,,,,,,,,,,,,,,,,,,,,,,,,,7,1.1711,1,,,,,,,,,,,,0,131,5,5,2274,1974,absent_patch/patch0002274.jpg,absent_patch/patch0001974.jpg,,,,,,,,,,,,,,,,,,,,0.066441654,0.12147886,1,0,0,response1disk,16,0.003508907,-0.005311839,1,0,0,center_square,0,15,15,90,1,,,,,,,,,,,,,,,,,,,,,,,
838553,001,2022-11-20_23h54.19.661,Info_measure_main_exp,2022.2.2,Win32,120.6709304,,,,,,,,,,,,,,,,,,masks/mask_004.jpg,,,,,,,,,,,,,,,,,,,,,,,,,,,,,,,,,,,,,,,,,,,0,0,0,3,1,,,,,,,,,,,,,,,,,,,,,,,,,,,,,,,,,,,,,,,,,,,,,,
838553,001,2022-11-20_23h54.19.661,Info_measure_main_exp,2022.2.2,Win32,120.6709304,,,,,,,,,,,,,,,,,,masks/mask_005.jpg,,,,,,,,,,,,,,,,,,,,,,,,,,,,,,,,,,,,,,,,,,,0,1,1,4,1,,,,,,,,,,,,,,,,,,,,,,,,,,,,,,,,,,,,,,,,,,,,,,
838553,001,2022-11-20_23h54.19.661,Info_measure_main_exp,2022.2.2,Win32,120.6709304,,,,,,,,,,,,,,,,,,masks/mask_003.jpg,,,,,,,,,,,,,,,,,,,,,,,,,,,,,,,,,,,,,,,,,,,0,2,2,2,1,,,,,,,,,,,,,,,,,,,,,,,,,,,,,,,,,,,,,,,,,,,,,,
838553,001,2022-11-20_23h54.19.661,Info_measure_main_exp,2022.2.2,Win32,120.6709304,,,,,,,,,,,,,,,,,,masks/mask_002.jpg,,,,,,,,,,,,,,,,,,,,,,,,,,,,,,,,,,,,,,,,,,,0,3,3,1,1,,,,,,,,,,,,,,,,,,,,,,,,,,,,,,,,,,,,,,,,,,,,,,
838553,001,2022-11-20_23h54.19.661,Info_measure_main_exp,2022.2.2,Win32,120.6709304,,,,,,,,,,,,,,,,,,masks/mask_001.jpg,,,,,,,,,,,,,,,,,,,,,,,,,,,,,,,,,,,,,,,,,,,0,4,4,0,1,,,,,,,,,,,,,,,,,,,,,,,,,,,,,,,,,,,,,,,,,,,,,,
838553,001,2022-11-20_23h54.19.661,Info_measure_main_exp,2022.2.2,Win32,120.6709304,,,,,,,,,,,,,,,,,,masks/mask_003.jpg,,,,,,,,,,,,,,,,,,,,,,,,,,,,,,,,,,,,,,,,,,,,,,,,0,0,0,2,1,,,,,,,,,,,,,,,,,,,,,,,,,,,,,,,,,,,,,,,,,
838553,001,2022-11-20_23h54.19.661,Info_measure_main_exp,2022.2.2,Win32,120.6709304,,,,,,,,,,,,,,,,,,masks/mask_005.jpg,,,,,,,,,,,,,,,,,,,,,,,,,,,,,,,,,,,,,,,,,,,,,,,,0,1,1,4,1,,,,,,,,,,,,,,,,,,,,,,,,,,,,,,,,,,,,,,,,,
838553,001,2022-11-20_23h54.19.661,Info_measure_main_exp,2022.2.2,Win32,120.6709304,,,,,,,,,,,,,,,,,,masks/mask_001.jpg,,,,,,,,,,,,,,,,,,,,,,,,,,,,,,,,,,,,,,,,,,,,,,,,0,2,2,0,1,,,,,,,,,,,,,,,,,,,,,,,,,,,,,,,,,,,,,,,,,
838553,001,2022-11-20_23h54.19.661,Info_measure_main_exp,2022.2.2,Win32,120.6709304,,,,,,,,,,,,,,,,,,masks/mask_002.jpg,,,,,,,,,,,,,,,,,,,,,,,,,,,,,,,,,,,,,,,,,,,,,,,,0,3,3,1,1,,,,,,,,,,,,,,,,,,,,,,,,,,,,,,,,,,,,,,,,,
838553,001,2022-11-20_23h54.19.661,Info_measure_main_exp,2022.2.2,Win32,120.6709304,,,,,,,,,,,,,,,,,,masks/mask_004.jpg,,,,,,,,,,,,,,,,,,,,,,,,,,,,,,,,,,,,,,,,,,,,,,,,0,4,4,3,1,,,,,,,,,,,,,,,,,,,,,,,,,,,,,,,,,,,,,,,,,
838553,001,2022-11-20_23h54.19.661,Info_measure_main_exp,2022.2.2,Win32,120.6709304,,,,,,,,,,,,,,,,,,,,,,,,,,,,,,0,1.2646,1,,,,,,,,,,,,0,131,5,5,2166,2166,absent_patch/patch0002166.jpg,absent_patch/patch0002166.jpg,,,,,,,,,,,,,,,,,,,,-0.068678337,0.147392362,1,0,0,response7disk,17,-0.002043804,-0.000684429,1,0,0,center_square,0,16,16,42,1,,,,,,,,,,,,,,,,,,,,,,,
838553,001,2022-11-20_23h54.19.661,Info_measure_main_exp,2022.2.2,Win32,120.6709304,,,,,,,,,,,,,,,,,,masks/mask_001.jpg,,,,,,,,,,,,,,,,,,,,,,,,,,,,,,,,,,,,,,,,,,,0,0,0,0,1,,,,,,,,,,,,,,,,,,,,,,,,,,,,,,,,,,,,,,,,,,,,,,
838553,001,2022-11-20_23h54.19.661,Info_measure_main_exp,2022.2.2,Win32,120.6709304,,,,,,,,,,,,,,,,,,masks/mask_004.jpg,,,,,,,,,,,,,,,,,,,,,,,,,,,,,,,,,,,,,,,,,,,0,1,1,3,1,,,,,,,,,,,,,,,,,,,,,,,,,,,,,,,,,,,,,,,,,,,,,,
838553,001,2022-11-20_23h54.19.661,Info_measure_main_exp,2022.2.2,Win32,120.6709304,,,,,,,,,,,,,,,,,,masks/mask_002.jpg,,,,,,,,,,,,,,,,,,,,,,,,,,,,,,,,,,,,,,,,,,,0,2,2,1,1,,,,,,,,,,,,,,,,,,,,,,,,,,,,,,,,,,,,,,,,,,,,,,
838553,001,2022-11-20_23h54.19.661,Info_measure_main_exp,2022.2.2,Win32,120.6709304,,,,,,,,,,,,,,,,,,masks/mask_003.jpg,,,,,,,,,,,,,,,,,,,,,,,,,,,,,,,,,,,,,,,,,,,0,3,3,2,1,,,,,,,,,,,,,,,,,,,,,,,,,,,,,,,,,,,,,,,,,,,,,,
838553,001,2022-11-20_23h54.19.661,Info_measure_main_exp,2022.2.2,Win32,120.6709304,,,,,,,,,,,,,,,,,,masks/mask_005.jpg,,,,,,,,,,,,,,,,,,,,,,,,,,,,,,,,,,,,,,,,,,,0,4,4,4,1,,,,,,,,,,,,,,,,,,,,,,,,,,,,,,,,,,,,,,,,,,,,,,
838553,001,2022-11-20_23h54.19.661,Info_measure_main_exp,2022.2.2,Win32,120.6709304,,,,,,,,,,,,,,,,,,masks/mask_004.jpg,,,,,,,,,,,,,,,,,,,,,,,,,,,,,,,,,,,,,,,,,,,,,,,,0,0,0,3,1,,,,,,,,,,,,,,,,,,,,,,,,,,,,,,,,,,,,,,,,,
838553,001,2022-11-20_23h54.19.661,Info_measure_main_exp,2022.2.2,Win32,120.6709304,,,,,,,,,,,,,,,,,,masks/mask_001.jpg,,,,,,,,,,,,,,,,,,,,,,,,,,,,,,,,,,,,,,,,,,,,,,,,0,1,1,0,1,,,,,,,,,,,,,,,,,,,,,,,,,,,,,,,,,,,,,,,,,
838553,001,2022-11-20_23h54.19.661,Info_measure_main_exp,2022.2.2,Win32,120.6709304,,,,,,,,,,,,,,,,,,masks/mask_003.jpg,,,,,,,,,,,,,,,,,,,,,,,,,,,,,,,,,,,,,,,,,,,,,,,,0,2,2,2,1,,,,,,,,,,,,,,,,,,,,,,,,,,,,,,,,,,,,,,,,,
838553,001,2022-11-20_23h54.19.661,Info_measure_main_exp,2022.2.2,Win32,120.6709304,,,,,,,,,,,,,,,,,,masks/mask_005.jpg,,,,,,,,,,,,,,,,,,,,,,,,,,,,,,,,,,,,,,,,,,,,,,,,0,3,3,4,1,,,,,,,,,,,,,,,,,,,,,,,,,,,,,,,,,,,,,,,,,
838553,001,2022-11-20_23h54.19.661,Info_measure_main_exp,2022.2.2,Win32,120.6709304,,,,,,,,,,,,,,,,,,masks/mask_002.jpg,,,,,,,,,,,,,,,,,,,,,,,,,,,,,,,,,,,,,,,,,,,,,,,,0,4,4,1,1,,,,,,,,,,,,,,,,,,,,,,,,,,,,,,,,,,,,,,,,,
838553,001,2022-11-20_23h54.19.661,Info_measure_main_exp,2022.2.2,Win32,120.6709304,,,,,,,,,,,,,,,,,,,,,,,,,,,,,,7,0.9548,1,,,,,,,,,,,,0,131,5,5,2238,2166,absent_patch/patch0002238.jpg,absent_patch/patch0002166.jpg,,,,,,,,,,,,,,,,,,,,0.066441654,0.115000493,1,0,0,response1disk,18,0.005360026,0.003017486,1,0,0,center_square,0,17,17,118,1,,,,,,,,,,,,,,,,,,,,,,,
838553,001,2022-11-20_23h54.19.661,Info_measure_main_exp,2022.2.2,Win32,120.6709304,,,,,,,,,,,,,,,,,,masks/mask_002.jpg,,,,,,,,,,,,,,,,,,,,,,,,,,,,,,,,,,,,,,,,,,,0,0,0,1,1,,,,,,,,,,,,,,,,,,,,,,,,,,,,,,,,,,,,,,,,,,,,,,
838553,001,2022-11-20_23h54.19.661,Info_measure_main_exp,2022.2.2,Win32,120.6709304,,,,,,,,,,,,,,,,,,masks/mask_004.jpg,,,,,,,,,,,,,,,,,,,,,,,,,,,,,,,,,,,,,,,,,,,0,1,1,3,1,,,,,,,,,,,,,,,,,,,,,,,,,,,,,,,,,,,,,,,,,,,,,,
838553,001,2022-11-20_23h54.19.661,Info_measure_main_exp,2022.2.2,Win32,120.6709304,,,,,,,,,,,,,,,,,,masks/mask_003.jpg,,,,,,,,,,,,,,,,,,,,,,,,,,,,,,,,,,,,,,,,,,,0,2,2,2,1,,,,,,,,,,,,,,,,,,,,,,,,,,,,,,,,,,,,,,,,,,,,,,
838553,001,2022-11-20_23h54.19.661,Info_measure_main_exp,2022.2.2,Win32,120.6709304,,,,,,,,,,,,,,,,,,masks/mask_005.jpg,,,,,,,,,,,,,,,,,,,,,,,,,,,,,,,,,,,,,,,,,,,0,3,3,4,1,,,,,,,,,,,,,,,,,,,,,,,,,,,,,,,,,,,,,,,,,,,,,,
838553,001,2022-11-20_23h54.19.661,Info_measure_main_exp,2022.2.2,Win32,120.6709304,,,,,,,,,,,,,,,,,,masks/mask_001.jpg,,,,,,,,,,,,,,,,,,,,,,,,,,,,,,,,,,,,,,,,,,,0,4,4,0,1,,,,,,,,,,,,,,,,,,,,,,,,,,,,,,,,,,,,,,,,,,,,,,
838553,001,2022-11-20_23h54.19.661,Info_measure_main_exp,2022.2.2,Win32,120.6709304,,,,,,,,,,,,,,,,,,masks/mask_001.jpg,,,,,,,,,,,,,,,,,,,,,,,,,,,,,,,,,,,,,,,,,,,,,,,,0,0,0,0,1,,,,,,,,,,,,,,,,,,,,,,,,,,,,,,,,,,,,,,,,,
838553,001,2022-11-20_23h54.19.661,Info_measure_main_exp,2022.2.2,Win32,120.6709304,,,,,,,,,,,,,,,,,,masks/mask_005.jpg,,,,,,,,,,,,,,,,,,,,,,,,,,,,,,,,,,,,,,,,,,,,,,,,0,1,1,4,1,,,,,,,,,,,,,,,,,,,,,,,,,,,,,,,,,,,,,,,,,
838553,001,2022-11-20_23h54.19.661,Info_measure_main_exp,2022.2.2,Win32,120.6709304,,,,,,,,,,,,,,,,,,masks/mask_003.jpg,,,,,,,,,,,,,,,,,,,,,,,,,,,,,,,,,,,,,,,,,,,,,,,,0,2,2,2,1,,,,,,,,,,,,,,,,,,,,,,,,,,,,,,,,,,,,,,,,,
838553,001,2022-11-20_23h54.19.661,Info_measure_main_exp,2022.2.2,Win32,120.6709304,,,,,,,,,,,,,,,,,,masks/mask_002.jpg,,,,,,,,,,,,,,,,,,,,,,,,,,,,,,,,,,,,,,,,,,,,,,,,0,3,3,1,1,,,,,,,,,,,,,,,,,,,,,,,,,,,,,,,,,,,,,,,,,
838553,001,2022-11-20_23h54.19.661,Info_measure_main_exp,2022.2.2,Win32,120.6709304,,,,,,,,,,,,,,,,,,masks/mask_004.jpg,,,,,,,,,,,,,,,,,,,,,,,,,,,,,,,,,,,,,,,,,,,,,,,,0,4,4,3,1,,,,,,,,,,,,,,,,,,,,,,,,,,,,,,,,,,,,,,,,,
838553,001,2022-11-20_23h54.19.661,Info_measure_main_exp,2022.2.2,Win32,120.6709304,,,,,,,,,,,,,,,,,,,,,,,,,,,,,,6,2.0047,1,,,,,,,,,,,,1,131,5,5,1,2274,present_patch/cong_131_5_a.jpg,absent_patch/patch0002274.jpg,,,,,,,,,,,,,,,,,,,,0.133076187,0.0603972,1,0,0,response1disk,19,0.011838231,0.005793906,1,0,0,center_square,0,18,18,105,1,,,,,,,,,,,,,,,,,,,,,,,
838553,001,2022-11-20_23h54.19.661,Info_measure_main_exp,2022.2.2,Win32,120.6709304,,,,,,,,,,,,,,,,,,masks/mask_005.jpg,,,,,,,,,,,,,,,,,,,,,,,,,,,,,,,,,,,,,,,,,,,0,0,0,4,1,,,,,,,,,,,,,,,,,,,,,,,,,,,,,,,,,,,,,,,,,,,,,,
838553,001,2022-11-20_23h54.19.661,Info_measure_main_exp,2022.2.2,Win32,120.6709304,,,,,,,,,,,,,,,,,,masks/mask_001.jpg,,,,,,,,,,,,,,,,,,,,,,,,,,,,,,,,,,,,,,,,,,,0,1,1,0,1,,,,,,,,,,,,,,,,,,,,,,,,,,,,,,,,,,,,,,,,,,,,,,
838553,001,2022-11-20_23h54.19.661,Info_measure_main_exp,2022.2.2,Win32,120.6709304,,,,,,,,,,,,,,,,,,masks/mask_004.jpg,,,,,,,,,,,,,,,,,,,,,,,,,,,,,,,,,,,,,,,,,,,0,2,2,3,1,,,,,,,,,,,,,,,,,,,,,,,,,,,,,,,,,,,,,,,,,,,,,,
838553,001,2022-11-20_23h54.19.661,Info_measure_main_exp,2022.2.2,Win32,120.6709304,,,,,,,,,,,,,,,,,,masks/mask_002.jpg,,,,,,,,,,,,,,,,,,,,,,,,,,,,,,,,,,,,,,,,,,,0,3,3,1,1,,,,,,,,,,,,,,,,,,,,,,,,,,,,,,,,,,,,,,,,,,,,,,
838553,001,2022-11-20_23h54.19.661,Info_measure_main_exp,2022.2.2,Win32,120.6709304,,,,,,,,,,,,,,,,,,masks/mask_003.jpg,,,,,,,,,,,,,,,,,,,,,,,,,,,,,,,,,,,,,,,,,,,0,4,4,2,1,,,,,,,,,,,,,,,,,,,,,,,,,,,,,,,,,,,,,,,,,,,,,,
838553,001,2022-11-20_23h54.19.661,Info_measure_main_exp,2022.2.2,Win32,120.6709304,,,,,,,,,,,,,,,,,,masks/mask_001.jpg,,,,,,,,,,,,,,,,,,,,,,,,,,,,,,,,,,,,,,,,,,,,,,,,0,0,0,0,1,,,,,,,,,,,,,,,,,,,,,,,,,,,,,,,,,,,,,,,,,
838553,001,2022-11-20_23h54.19.661,Info_measure_main_exp,2022.2.2,Win32,120.6709304,,,,,,,,,,,,,,,,,,masks/mask_002.jpg,,,,,,,,,,,,,,,,,,,,,,,,,,,,,,,,,,,,,,,,,,,,,,,,0,1,1,1,1,,,,,,,,,,,,,,,,,,,,,,,,,,,,,,,,,,,,,,,,,
838553,001,2022-11-20_23h54.19.661,Info_measure_main_exp,2022.2.2,Win32,120.6709304,,,,,,,,,,,,,,,,,,masks/mask_004.jpg,,,,,,,,,,,,,,,,,,,,,,,,,,,,,,,,,,,,,,,,,,,,,,,,0,2,2,3,1,,,,,,,,,,,,,,,,,,,,,,,,,,,,,,,,,,,,,,,,,
838553,001,2022-11-20_23h54.19.661,Info_measure_main_exp,2022.2.2,Win32,120.6709304,,,,,,,,,,,,,,,,,,masks/mask_005.jpg,,,,,,,,,,,,,,,,,,,,,,,,,,,,,,,,,,,,,,,,,,,,,,,,0,3,3,4,1,,,,,,,,,,,,,,,,,,,,,,,,,,,,,,,,,,,,,,,,,
838553,001,2022-11-20_23h54.19.661,Info_measure_main_exp,2022.2.2,Win32,120.6709304,,,,,,,,,,,,,,,,,,masks/mask_003.jpg,,,,,,,,,,,,,,,,,,,,,,,,,,,,,,,,,,,,,,,,,,,,,,,,0,4,4,2,1,,,,,,,,,,,,,,,,,,,,,,,,,,,,,,,,,,,,,,,,,
838553,001,2022-11-20_23h54.19.661,Info_measure_main_exp,2022.2.2,Win32,120.6709304,,,,,,,,,,,,,,,,,,,,,,,,,,,,,,2,3.1111,1,,,,,,,,,,,,0,131,5,5,2274,2142,absent_patch/patch0002274.jpg,absent_patch/patch0002142.jpg,,,,,,,,,,,,,,,,,,,,-0.131610955,-0.021044993,1,0,0,response5disk,20,-0.001118374,-0.012715668,1,0,0,center_square,0,19,19,75,1,,,,,,,,,,,,,,,,,,,,,,,
838553,001,2022-11-20_23h54.19.661,Info_measure_main_exp,2022.2.2,Win32,120.6709304,,,,,,,,,,,,,,,,,,masks/mask_004.jpg,,,,,,,,,,,,,,,,,,,,,,,,,,,,,,,,,,,,,,,,,,,0,0,0,3,1,,,,,,,,,,,,,,,,,,,,,,,,,,,,,,,,,,,,,,,,,,,,,,
838553,001,2022-11-20_23h54.19.661,Info_measure_main_exp,2022.2.2,Win32,120.6709304,,,,,,,,,,,,,,,,,,masks/mask_001.jpg,,,,,,,,,,,,,,,,,,,,,,,,,,,,,,,,,,,,,,,,,,,0,1,1,0,1,,,,,,,,,,,,,,,,,,,,,,,,,,,,,,,,,,,,,,,,,,,,,,
838553,001,2022-11-20_23h54.19.661,Info_measure_main_exp,2022.2.2,Win32,120.6709304,,,,,,,,,,,,,,,,,,masks/mask_005.jpg,,,,,,,,,,,,,,,,,,,,,,,,,,,,,,,,,,,,,,,,,,,0,2,2,4,1,,,,,,,,,,,,,,,,,,,,,,,,,,,,,,,,,,,,,,,,,,,,,,
838553,001,2022-11-20_23h54.19.661,Info_measure_main_exp,2022.2.2,Win32,120.6709304,,,,,,,,,,,,,,,,,,masks/mask_002.jpg,,,,,,,,,,,,,,,,,,,,,,,,,,,,,,,,,,,,,,,,,,,0,3,3,1,1,,,,,,,,,,,,,,,,,,,,,,,,,,,,,,,,,,,,,,,,,,,,,,
838553,001,2022-11-20_23h54.19.661,Info_measure_main_exp,2022.2.2,Win32,120.6709304,,,,,,,,,,,,,,,,,,masks/mask_003.jpg,,,,,,,,,,,,,,,,,,,,,,,,,,,,,,,,,,,,,,,,,,,0,4,4,2,1,,,,,,,,,,,,,,,,,,,,,,,,,,,,,,,,,,,,,,,,,,,,,,
838553,001,2022-11-20_23h54.19.661,Info_measure_main_exp,2022.2.2,Win32,120.6709304,,,,,,,,,,,,,,,,,,masks/mask_005.jpg,,,,,,,,,,,,,,,,,,,,,,,,,,,,,,,,,,,,,,,,,,,,,,,,0,0,0,4,1,,,,,,,,,,,,,,,,,,,,,,,,,,,,,,,,,,,,,,,,,
838553,001,2022-11-20_23h54.19.661,Info_measure_main_exp,2022.2.2,Win32,120.6709304,,,,,,,,,,,,,,,,,,masks/mask_001.jpg,,,,,,,,,,,,,,,,,,,,,,,,,,,,,,,,,,,,,,,,,,,,,,,,0,1,1,0,1,,,,,,,,,,,,,,,,,,,,,,,,,,,,,,,,,,,,,,,,,
838553,001,2022-11-20_23h54.19.661,Info_measure_main_exp,2022.2.2,Win32,120.6709304,,,,,,,,,,,,,,,,,,masks/mask_002.jpg,,,,,,,,,,,,,,,,,,,,,,,,,,,,,,,,,,,,,,,,,,,,,,,,0,2,2,1,1,,,,,,,,,,,,,,,,,,,,,,,,,,,,,,,,,,,,,,,,,
838553,001,2022-11-20_23h54.19.661,Info_measure_main_exp,2022.2.2,Win32,120.6709304,,,,,,,,,,,,,,,,,,masks/mask_003.jpg,,,,,,,,,,,,,,,,,,,,,,,,,,,,,,,,,,,,,,,,,,,,,,,,0,3,3,2,1,,,,,,,,,,,,,,,,,,,,,,,,,,,,,,,,,,,,,,,,,
838553,001,2022-11-20_23h54.19.661,Info_measure_main_exp,2022.2.2,Win32,120.6709304,,,,,,,,,,,,,,,,,,masks/mask_004.jpg,,,,,,,,,,,,,,,,,,,,,,,,,,,,,,,,,,,,,,,,,,,,,,,,0,4,4,3,1,,,,,,,,,,,,,,,,,,,,,,,,,,,,,,,,,,,,,,,,,
838553,001,2022-11-20_23h54.19.661,Info_measure_main_exp,2022.2.2,Win32,120.6709304,,,,,,,,,,,,,,,,,,,,,,,,,,,,,,5,1.8548,1,,,,,,,,,,,,0,131,5,5,2274,2250,absent_patch/patch0002274.jpg,absent_patch/patch0002250.jpg,,,,,,,,,,,,,,,,,,,,0.110864698,-0.035852653,1,0,0,response3disk,21,0.004434531,-0.000684429,1,0,0,center_square,0,20,20,28,1,,,,,,,,,,,,,,,,,,,,,,,
838553,001,2022-11-20_23h54.19.661,Info_measure_main_exp,2022.2.2,Win32,120.6709304,,,,,,,,,,,,,,,,,,masks/mask_002.jpg,,,,,,,,,,,,,,,,,,,,,,,,,,,,,,,,,,,,,,,,,,,0,0,0,1,1,,,,,,,,,,,,,,,,,,,,,,,,,,,,,,,,,,,,,,,,,,,,,,
838553,001,2022-11-20_23h54.19.661,Info_measure_main_exp,2022.2.2,Win32,120.6709304,,,,,,,,,,,,,,,,,,masks/mask_005.jpg,,,,,,,,,,,,,,,,,,,,,,,,,,,,,,,,,,,,,,,,,,,0,1,1,4,1,,,,,,,,,,,,,,,,,,,,,,,,,,,,,,,,,,,,,,,,,,,,,,
838553,001,2022-11-20_23h54.19.661,Info_measure_main_exp,2022.2.2,Win32,120.6709304,,,,,,,,,,,,,,,,,,masks/mask_003.jpg,,,,,,,,,,,,,,,,,,,,,,,,,,,,,,,,,,,,,,,,,,,0,2,2,2,1,,,,,,,,,,,,,,,,,,,,,,,,,,,,,,,,,,,,,,,,,,,,,,
838553,001,2022-11-20_23h54.19.661,Info_measure_main_exp,2022.2.2,Win32,120.6709304,,,,,,,,,,,,,,,,,,masks/mask_001.jpg,,,,,,,,,,,,,,,,,,,,,,,,,,,,,,,,,,,,,,,,,,,0,3,3,0,1,,,,,,,,,,,,,,,,,,,,,,,,,,,,,,,,,,,,,,,,,,,,,,
838553,001,2022-11-20_23h54.19.661,Info_measure_main_exp,2022.2.2,Win32,120.6709304,,,,,,,,,,,,,,,,,,masks/mask_004.jpg,,,,,,,,,,,,,,,,,,,,,,,,,,,,,,,,,,,,,,,,,,,0,4,4,3,1,,,,,,,,,,,,,,,,,,,,,,,,,,,,,,,,,,,,,,,,,,,,,,
838553,001,2022-11-20_23h54.19.661,Info_measure_main_exp,2022.2.2,Win32,120.6709304,,,,,,,,,,,,,,,,,,masks/mask_002.jpg,,,,,,,,,,,,,,,,,,,,,,,,,,,,,,,,,,,,,,,,,,,,,,,,0,0,0,1,1,,,,,,,,,,,,,,,,,,,,,,,,,,,,,,,,,,,,,,,,,
838553,001,2022-11-20_23h54.19.661,Info_measure_main_exp,2022.2.2,Win32,120.6709304,,,,,,,,,,,,,,,,,,masks/mask_005.jpg,,,,,,,,,,,,,,,,,,,,,,,,,,,,,,,,,,,,,,,,,,,,,,,,0,1,1,4,1,,,,,,,,,,,,,,,,,,,,,,,,,,,,,,,,,,,,,,,,,
838553,001,2022-11-20_23h54.19.661,Info_measure_main_exp,2022.2.2,Win32,120.6709304,,,,,,,,,,,,,,,,,,masks/mask_003.jpg,,,,,,,,,,,,,,,,,,,,,,,,,,,,,,,,,,,,,,,,,,,,,,,,0,2,2,2,1,,,,,,,,,,,,,,,,,,,,,,,,,,,,,,,,,,,,,,,,,
838553,001,2022-11-20_23h54.19.661,Info_measure_main_exp,2022.2.2,Win32,120.6709304,,,,,,,,,,,,,,,,,,masks/mask_004.jpg,,,,,,,,,,,,,,,,,,,,,,,,,,,,,,,,,,,,,,,,,,,,,,,,0,3,3,3,1,,,,,,,,,,,,,,,,,,,,,,,,,,,,,,,,,,,,,,,,,
838553,001,2022-11-20_23h54.19.661,Info_measure_main_exp,2022.2.2,Win32,120.6709304,,,,,,,,,,,,,,,,,,masks/mask_001.jpg,,,,,,,,,,,,,,,,,,,,,,,,,,,,,,,,,,,,,,,,,,,,,,,,0,4,4,0,1,,,,,,,,,,,,,,,,,,,,,,,,,,,,,,,,,,,,,,,,,
838553,001,2022-11-20_23h54.19.661,Info_measure_main_exp,2022.2.2,Win32,120.6709304,,,,,,,,,,,,,,,,,,,,,,,,,,,,,,2,2.4789,1,,,,,,,,,,,,0,131,5,5,1974,1974,absent_patch/patch0001974.jpg,absent_patch/patch0001974.jpg,,,,,,,,,,,,,,,,,,,,-0.104772056,-0.04695843,1,0,0,response5disk,22,-0.015926163,-0.008088226,1,0,0,center_square,0,21,21,113,1,,,,,,,,,,,,,,,,,,,,,,,
838553,001,2022-11-20_23h54.19.661,Info_measure_main_exp,2022.2.2,Win32,120.6709304,,,,,,,,,,,,,,,,,,masks/mask_001.jpg,,,,,,,,,,,,,,,,,,,,,,,,,,,,,,,,,,,,,,,,,,,0,0,0,0,1,,,,,,,,,,,,,,,,,,,,,,,,,,,,,,,,,,,,,,,,,,,,,,
838553,001,2022-11-20_23h54.19.661,Info_measure_main_exp,2022.2.2,Win32,120.6709304,,,,,,,,,,,,,,,,,,masks/mask_004.jpg,,,,,,,,,,,,,,,,,,,,,,,,,,,,,,,,,,,,,,,,,,,0,1,1,3,1,,,,,,,,,,,,,,,,,,,,,,,,,,,,,,,,,,,,,,,,,,,,,,
838553,001,2022-11-20_23h54.19.661,Info_measure_main_exp,2022.2.2,Win32,120.6709304,,,,,,,,,,,,,,,,,,masks/mask_002.jpg,,,,,,,,,,,,,,,,,,,,,,,,,,,,,,,,,,,,,,,,,,,0,2,2,1,1,,,,,,,,,,,,,,,,,,,,,,,,,,,,,,,,,,,,,,,,,,,,,,
838553,001,2022-11-20_23h54.19.661,Info_measure_main_exp,2022.2.2,Win32,120.6709304,,,,,,,,,,,,,,,,,,masks/mask_003.jpg,,,,,,,,,,,,,,,,,,,,,,,,,,,,,,,,,,,,,,,,,,,0,3,3,2,1,,,,,,,,,,,,,,,,,,,,,,,,,,,,,,,,,,,,,,,,,,,,,,
838553,001,2022-11-20_23h54.19.661,Info_measure_main_exp,2022.2.2,Win32,120.6709304,,,,,,,,,,,,,,,,,,masks/mask_005.jpg,,,,,,,,,,,,,,,,,,,,,,,,,,,,,,,,,,,,,,,,,,,0,4,4,4,1,,,,,,,,,,,,,,,,,,,,,,,,,,,,,,,,,,,,,,,,,,,,,,
838553,001,2022-11-20_23h54.19.661,Info_measure_main_exp,2022.2.2,Win32,120.6709304,,,,,,,,,,,,,,,,,,masks/mask_005.jpg,,,,,,,,,,,,,,,,,,,,,,,,,,,,,,,,,,,,,,,,,,,,,,,,0,0,0,4,1,,,,,,,,,,,,,,,,,,,,,,,,,,,,,,,,,,,,,,,,,
838553,001,2022-11-20_23h54.19.661,Info_measure_main_exp,2022.2.2,Win32,120.6709304,,,,,,,,,,,,,,,,,,masks/mask_003.jpg,,,,,,,,,,,,,,,,,,,,,,,,,,,,,,,,,,,,,,,,,,,,,,,,0,1,1,2,1,,,,,,,,,,,,,,,,,,,,,,,,,,,,,,,,,,,,,,,,,
838553,001,2022-11-20_23h54.19.661,Info_measure_main_exp,2022.2.2,Win32,120.6709304,,,,,,,,,,,,,,,,,,masks/mask_004.jpg,,,,,,,,,,,,,,,,,,,,,,,,,,,,,,,,,,,,,,,,,,,,,,,,0,2,2,3,1,,,,,,,,,,,,,,,,,,,,,,,,,,,,,,,,,,,,,,,,,
838553,001,2022-11-20_23h54.19.661,Info_measure_main_exp,2022.2.2,Win32,120.6709304,,,,,,,,,,,,,,,,,,masks/mask_001.jpg,,,,,,,,,,,,,,,,,,,,,,,,,,,,,,,,,,,,,,,,,,,,,,,,0,3,3,0,1,,,,,,,,,,,,,,,,,,,,,,,,,,,,,,,,,,,,,,,,,
838553,001,2022-11-20_23h54.19.661,Info_measure_main_exp,2022.2.2,Win32,120.6709304,,,,,,,,,,,,,,,,,,masks/mask_002.jpg,,,,,,,,,,,,,,,,,,,,,,,,,,,,,,,,,,,,,,,,,,,,,,,,0,4,4,1,1,,,,,,,,,,,,,,,,,,,,,,,,,,,,,,,,,,,,,,,,,
838553,001,2022-11-20_23h54.19.661,Info_measure_main_exp,2022.2.2,Win32,120.6709304,,,,,,,,,,,,,,,,,,,,,,,,,,,,,,1,2.6702,1,,,,,,,,,,,,1,131,5,5,2298,1,absent_patch/patch0002298.jpg,present_patch/cong_131_5_a.jpg,,,,,,,,,,,,,,,,,,,,-0.13346201,0.044664078,1,0,0,response7disk,23,0.000732616,0.002091991,1,0,0,center_square,0,22,22,45,1,,,,,,,,,,,,,,,,,,,,,,,
838553,001,2022-11-20_23h54.19.661,Info_measure_main_exp,2022.2.2,Win32,120.6709304,,,,,,,,,,,,,,,,,,masks/mask_005.jpg,,,,,,,,,,,,,,,,,,,,,,,,,,,,,,,,,,,,,,,,,,,0,0,0,4,1,,,,,,,,,,,,,,,,,,,,,,,,,,,,,,,,,,,,,,,,,,,,,,
838553,001,2022-11-20_23h54.19.661,Info_measure_main_exp,2022.2.2,Win32,120.6709304,,,,,,,,,,,,,,,,,,masks/mask_004.jpg,,,,,,,,,,,,,,,,,,,,,,,,,,,,,,,,,,,,,,,,,,,0,1,1,3,1,,,,,,,,,,,,,,,,,,,,,,,,,,,,,,,,,,,,,,,,,,,,,,
838553,001,2022-11-20_23h54.19.661,Info_measure_main_exp,2022.2.2,Win32,120.6709304,,,,,,,,,,,,,,,,,,masks/mask_002.jpg,,,,,,,,,,,,,,,,,,,,,,,,,,,,,,,,,,,,,,,,,,,0,2,2,1,1,,,,,,,,,,,,,,,,,,,,,,,,,,,,,,,,,,,,,,,,,,,,,,
838553,001,2022-11-20_23h54.19.661,Info_measure_main_exp,2022.2.2,Win32,120.6709304,,,,,,,,,,,,,,,,,,masks/mask_003.jpg,,,,,,,,,,,,,,,,,,,,,,,,,,,,,,,,,,,,,,,,,,,0,3,3,2,1,,,,,,,,,,,,,,,,,,,,,,,,,,,,,,,,,,,,,,,,,,,,,,
838553,001,2022-11-20_23h54.19.661,Info_measure_main_exp,2022.2.2,Win32,120.6709304,,,,,,,,,,,,,,,,,,masks/mask_001.jpg,,,,,,,,,,,,,,,,,,,,,,,,,,,,,,,,,,,,,,,,,,,0,4,4,0,1,,,,,,,,,,,,,,,,,,,,,,,,,,,,,,,,,,,,,,,,,,,,,,
838553,001,2022-11-20_23h54.19.661,Info_measure_main_exp,2022.2.2,Win32,120.6709304,,,,,,,,,,,,,,,,,,masks/mask_005.jpg,,,,,,,,,,,,,,,,,,,,,,,,,,,,,,,,,,,,,,,,,,,,,,,,0,0,0,4,1,,,,,,,,,,,,,,,,,,,,,,,,,,,,,,,,,,,,,,,,,
838553,001,2022-11-20_23h54.19.661,Info_measure_main_exp,2022.2.2,Win32,120.6709304,,,,,,,,,,,,,,,,,,masks/mask_001.jpg,,,,,,,,,,,,,,,,,,,,,,,,,,,,,,,,,,,,,,,,,,,,,,,,0,1,1,0,1,,,,,,,,,,,,,,,,,,,,,,,,,,,,,,,,,,,,,,,,,
838553,001,2022-11-20_23h54.19.661,Info_measure_main_exp,2022.2.2,Win32,120.6709304,,,,,,,,,,,,,,,,,,masks/mask_002.jpg,,,,,,,,,,,,,,,,,,,,,,,,,,,,,,,,,,,,,,,,,,,,,,,,0,2,2,1,1,,,,,,,,,,,,,,,,,,,,,,,,,,,,,,,,,,,,,,,,,
838553,001,2022-11-20_23h54.19.661,Info_measure_main_exp,2022.2.2,Win32,120.6709304,,,,,,,,,,,,,,,,,,masks/mask_003.jpg,,,,,,,,,,,,,,,,,,,,,,,,,,,,,,,,,,,,,,,,,,,,,,,,0,3,3,2,1,,,,,,,,,,,,,,,,,,,,,,,,,,,,,,,,,,,,,,,,,
838553,001,2022-11-20_23h54.19.661,Info_measure_main_exp,2022.2.2,Win32,120.6709304,,,,,,,,,,,,,,,,,,masks/mask_004.jpg,,,,,,,,,,,,,,,,,,,,,,,,,,,,,,,,,,,,,,,,,,,,,,,,0,4,4,3,1,,,,,,,,,,,,,,,,,,,,,,,,,,,,,,,,,,,,,,,,,
838553,001,2022-11-20_23h54.19.661,Info_measure_main_exp,2022.2.2,Win32,120.6709304,,,,,,,,,,,,,,,,,,,,,,,,,,,,,,6,0.8486,1,,,,,,,,,,,,0,131,5,5,2142,2238,absent_patch/patch0002142.jpg,absent_patch/patch0002238.jpg,,,,,,,,,,,,,,,,,,,,0.158989527,0.040036732,1,0,0,response1disk,24,-0.003894923,-0.013641163,1,0,0,center_square,0,23,23,101,1,,,,,,,,,,,,,,,,,,,,,,,
838553,001,2022-11-20_23h54.19.661,Info_measure_main_exp,2022.2.2,Win32,120.6709304,,,,,,,,,,,,,,,,,,masks/mask_004.jpg,,,,,,,,,,,,,,,,,,,,,,,,,,,,,,,,,,,,,,,,,,,0,0,0,3,1,,,,,,,,,,,,,,,,,,,,,,,,,,,,,,,,,,,,,,,,,,,,,,
838553,001,2022-11-20_23h54.19.661,Info_measure_main_exp,2022.2.2,Win32,120.6709304,,,,,,,,,,,,,,,,,,masks/mask_005.jpg,,,,,,,,,,,,,,,,,,,,,,,,,,,,,,,,,,,,,,,,,,,0,1,1,4,1,,,,,,,,,,,,,,,,,,,,,,,,,,,,,,,,,,,,,,,,,,,,,,
838553,001,2022-11-20_23h54.19.661,Info_measure_main_exp,2022.2.2,Win32,120.6709304,,,,,,,,,,,,,,,,,,masks/mask_003.jpg,,,,,,,,,,,,,,,,,,,,,,,,,,,,,,,,,,,,,,,,,,,0,2,2,2,1,,,,,,,,,,,,,,,,,,,,,,,,,,,,,,,,,,,,,,,,,,,,,,
838553,001,2022-11-20_23h54.19.661,Info_measure_main_exp,2022.2.2,Win32,120.6709304,,,,,,,,,,,,,,,,,,masks/mask_001.jpg,,,,,,,,,,,,,,,,,,,,,,,,,,,,,,,,,,,,,,,,,,,0,3,3,0,1,,,,,,,,,,,,,,,,,,,,,,,,,,,,,,,,,,,,,,,,,,,,,,
838553,001,2022-11-20_23h54.19.661,Info_measure_main_exp,2022.2.2,Win32,120.6709304,,,,,,,,,,,,,,,,,,masks/mask_002.jpg,,,,,,,,,,,,,,,,,,,,,,,,,,,,,,,,,,,,,,,,,,,0,4,4,1,1,,,,,,,,,,,,,,,,,,,,,,,,,,,,,,,,,,,,,,,,,,,,,,
838553,001,2022-11-20_23h54.19.661,Info_measure_main_exp,2022.2.2,Win32,120.6709304,,,,,,,,,,,,,,,,,,masks/mask_003.jpg,,,,,,,,,,,,,,,,,,,,,,,,,,,,,,,,,,,,,,,,,,,,,,,,0,0,0,2,1,,,,,,,,,,,,,,,,,,,,,,,,,,,,,,,,,,,,,,,,,
838553,001,2022-11-20_23h54.19.661,Info_measure_main_exp,2022.2.2,Win32,120.6709304,,,,,,,,,,,,,,,,,,masks/mask_005.jpg,,,,,,,,,,,,,,,,,,,,,,,,,,,,,,,,,,,,,,,,,,,,,,,,0,1,1,4,1,,,,,,,,,,,,,,,,,,,,,,,,,,,,,,,,,,,,,,,,,
838553,001,2022-11-20_23h54.19.661,Info_measure_main_exp,2022.2.2,Win32,120.6709304,,,,,,,,,,,,,,,,,,masks/mask_001.jpg,,,,,,,,,,,,,,,,,,,,,,,,,,,,,,,,,,,,,,,,,,,,,,,,0,2,2,0,1,,,,,,,,,,,,,,,,,,,,,,,,,,,,,,,,,,,,,,,,,
838553,001,2022-11-20_23h54.19.661,Info_measure_main_exp,2022.2.2,Win32,120.6709304,,,,,,,,,,,,,,,,,,masks/mask_004.jpg,,,,,,,,,,,,,,,,,,,,,,,,,,,,,,,,,,,,,,,,,,,,,,,,0,3,3,3,1,,,,,,,,,,,,,,,,,,,,,,,,,,,,,,,,,,,,,,,,,
838553,001,2022-11-20_23h54.19.661,Info_measure_main_exp,2022.2.2,Win32,120.6709304,,,,,,,,,,,,,,,,,,masks/mask_002.jpg,,,,,,,,,,,,,,,,,,,,,,,,,,,,,,,,,,,,,,,,,,,,,,,,0,4,4,1,1,,,,,,,,,,,,,,,,,,,,,,,,,,,,,,,,,,,,,,,,,
838553,001,2022-11-20_23h54.19.661,Info_measure_main_exp,2022.2.2,Win32,120.6709304,,,,,,,,,,,,,,,,,,,,,,,,,,,,,,6,1.9965,1,,,,,,,,,,,,0,131,5,5,2250,1986,absent_patch/patch0002250.jpg,absent_patch/patch0001986.jpg,,,,,,,,,,,,,,,,,,,,0.152511257,0.047440498,1,0,0,response1disk,25,-0.008522268,0.001166529,1,0,0,center_square,0,24,24,29,1,,,,,,,,,,,,,,,,,,,,,,,
838553,001,2022-11-20_23h54.19.661,Info_measure_main_exp,2022.2.2,Win32,120.6709304,,,,,,,,,,,,,,,,,,masks/mask_003.jpg,,,,,,,,,,,,,,,,,,,,,,,,,,,,,,,,,,,,,,,,,,,0,0,0,2,1,,,,,,,,,,,,,,,,,,,,,,,,,,,,,,,,,,,,,,,,,,,,,,
838553,001,2022-11-20_23h54.19.661,Info_measure_main_exp,2022.2.2,Win32,120.6709304,,,,,,,,,,,,,,,,,,masks/mask_004.jpg,,,,,,,,,,,,,,,,,,,,,,,,,,,,,,,,,,,,,,,,,,,0,1,1,3,1,,,,,,,,,,,,,,,,,,,,,,,,,,,,,,,,,,,,,,,,,,,,,,
838553,001,2022-11-20_23h54.19.661,Info_measure_main_exp,2022.2.2,Win32,120.6709304,,,,,,,,,,,,,,,,,,masks/mask_005.jpg,,,,,,,,,,,,,,,,,,,,,,,,,,,,,,,,,,,,,,,,,,,0,2,2,4,1,,,,,,,,,,,,,,,,,,,,,,,,,,,,,,,,,,,,,,,,,,,,,,
838553,001,2022-11-20_23h54.19.661,Info_measure_main_exp,2022.2.2,Win32,120.6709304,,,,,,,,,,,,,,,,,,masks/mask_001.jpg,,,,,,,,,,,,,,,,,,,,,,,,,,,,,,,,,,,,,,,,,,,0,3,3,0,1,,,,,,,,,,,,,,,,,,,,,,,,,,,,,,,,,,,,,,,,,,,,,,
838553,001,2022-11-20_23h54.19.661,Info_measure_main_exp,2022.2.2,Win32,120.6709304,,,,,,,,,,,,,,,,,,masks/mask_002.jpg,,,,,,,,,,,,,,,,,,,,,,,,,,,,,,,,,,,,,,,,,,,0,4,4,1,1,,,,,,,,,,,,,,,,,,,,,,,,,,,,,,,,,,,,,,,,,,,,,,
838553,001,2022-11-20_23h54.19.661,Info_measure_main_exp,2022.2.2,Win32,120.6709304,,,,,,,,,,,,,,,,,,masks/mask_001.jpg,,,,,,,,,,,,,,,,,,,,,,,,,,,,,,,,,,,,,,,,,,,,,,,,0,0,0,0,1,,,,,,,,,,,,,,,,,,,,,,,,,,,,,,,,,,,,,,,,,
838553,001,2022-11-20_23h54.19.661,Info_measure_main_exp,2022.2.2,Win32,120.6709304,,,,,,,,,,,,,,,,,,masks/mask_003.jpg,,,,,,,,,,,,,,,,,,,,,,,,,,,,,,,,,,,,,,,,,,,,,,,,0,1,1,2,1,,,,,,,,,,,,,,,,,,,,,,,,,,,,,,,,,,,,,,,,,
838553,001,2022-11-20_23h54.19.661,Info_measure_main_exp,2022.2.2,Win32,120.6709304,,,,,,,,,,,,,,,,,,masks/mask_004.jpg,,,,,,,,,,,,,,,,,,,,,,,,,,,,,,,,,,,,,,,,,,,,,,,,0,2,2,3,1,,,,,,,,,,,,,,,,,,,,,,,,,,,,,,,,,,,,,,,,,
838553,001,2022-11-20_23h54.19.661,Info_measure_main_exp,2022.2.2,Win32,120.6709304,,,,,,,,,,,,,,,,,,masks/mask_002.jpg,,,,,,,,,,,,,,,,,,,,,,,,,,,,,,,,,,,,,,,,,,,,,,,,0,3,3,1,1,,,,,,,,,,,,,,,,,,,,,,,,,,,,,,,,,,,,,,,,,
838553,001,2022-11-20_23h54.19.661,Info_measure_main_exp,2022.2.2,Win32,120.6709304,,,,,,,,,,,,,,,,,,masks/mask_005.jpg,,,,,,,,,,,,,,,,,,,,,,,,,,,,,,,,,,,,,,,,,,,,,,,,0,4,4,4,1,,,,,,,,,,,,,,,,,,,,,,,,,,,,,,,,,,,,,,,,,
838553,001,2022-11-20_23h54.19.661,Info_measure_main_exp,2022.2.2,Win32,120.6709304,,,,,,,,,,,,,,,,,,,,,,,,,,,,,,6,0.7574,1,,,,,,,,,,,,0,131,5,5,2238,2298,absent_patch/patch0002238.jpg,absent_patch/patch0002298.jpg,,,,,,,,,,,,,,,,,,,,0.137703597,0.015974188,1,0,0,response1disk,26,0.010912801,-0.009013753,1,0,0,center_square,0,25,25,51,1,,,,,,,,,,,,,,,,,,,,,,,
838553,001,2022-11-20_23h54.19.661,Info_measure_main_exp,2022.2.2,Win32,120.6709304,,,,,,,,,,,,,,,,,,masks/mask_003.jpg,,,,,,,,,,,,,,,,,,,,,,,,,,,,,,,,,,,,,,,,,,,0,0,0,2,1,,,,,,,,,,,,,,,,,,,,,,,,,,,,,,,,,,,,,,,,,,,,,,
838553,001,2022-11-20_23h54.19.661,Info_measure_main_exp,2022.2.2,Win32,120.6709304,,,,,,,,,,,,,,,,,,masks/mask_001.jpg,,,,,,,,,,,,,,,,,,,,,,,,,,,,,,,,,,,,,,,,,,,0,1,1,0,1,,,,,,,,,,,,,,,,,,,,,,,,,,,,,,,,,,,,,,,,,,,,,,
838553,001,2022-11-20_23h54.19.661,Info_measure_main_exp,2022.2.2,Win32,120.6709304,,,,,,,,,,,,,,,,,,masks/mask_005.jpg,,,,,,,,,,,,,,,,,,,,,,,,,,,,,,,,,,,,,,,,,,,0,2,2,4,1,,,,,,,,,,,,,,,,,,,,,,,,,,,,,,,,,,,,,,,,,,,,,,
838553,001,2022-11-20_23h54.19.661,Info_measure_main_exp,2022.2.2,Win32,120.6709304,,,,,,,,,,,,,,,,,,masks/mask_004.jpg,,,,,,,,,,,,,,,,,,,,,,,,,,,,,,,,,,,,,,,,,,,0,3,3,3,1,,,,,,,,,,,,,,,,,,,,,,,,,,,,,,,,,,,,,,,,,,,,,,
838553,001,2022-11-20_23h54.19.661,Info_measure_main_exp,2022.2.2,Win32,120.6709304,,,,,,,,,,,,,,,,,,masks/mask_002.jpg,,,,,,,,,,,,,,,,,,,,,,,,,,,,,,,,,,,,,,,,,,,0,4,4,1,1,,,,,,,,,,,,,,,,,,,,,,,,,,,,,,,,,,,,,,,,,,,,,,
838553,001,2022-11-20_23h54.19.661,Info_measure_main_exp,2022.2.2,Win32,120.6709304,,,,,,,,,,,,,,,,,,masks/mask_004.jpg,,,,,,,,,,,,,,,,,,,,,,,,,,,,,,,,,,,,,,,,,,,,,,,,0,0,0,3,1,,,,,,,,,,,,,,,,,,,,,,,,,,,,,,,,,,,,,,,,,
838553,001,2022-11-20_23h54.19.661,Info_measure_main_exp,2022.2.2,Win32,120.6709304,,,,,,,,,,,,,,,,,,masks/mask_001.jpg,,,,,,,,,,,,,,,,,,,,,,,,,,,,,,,,,,,,,,,,,,,,,,,,0,1,1,0,1,,,,,,,,,,,,,,,,,,,,,,,,,,,,,,,,,,,,,,,,,
838553,001,2022-11-20_23h54.19.661,Info_measure_main_exp,2022.2.2,Win32,120.6709304,,,,,,,,,,,,,,,,,,masks/mask_002.jpg,,,,,,,,,,,,,,,,,,,,,,,,,,,,,,,,,,,,,,,,,,,,,,,,0,2,2,1,1,,,,,,,,,,,,,,,,,,,,,,,,,,,,,,,,,,,,,,,,,
838553,001,2022-11-20_23h54.19.661,Info_measure_main_exp,2022.2.2,Win32,120.6709304,,,,,,,,,,,,,,,,,,masks/mask_005.jpg,,,,,,,,,,,,,,,,,,,,,,,,,,,,,,,,,,,,,,,,,,,,,,,,0,3,3,4,1,,,,,,,,,,,,,,,,,,,,,,,,,,,,,,,,,,,,,,,,,
838553,001,2022-11-20_23h54.19.661,Info_measure_main_exp,2022.2.2,Win32,120.6709304,,,,,,,,,,,,,,,,,,masks/mask_003.jpg,,,,,,,,,,,,,,,,,,,,,,,,,,,,,,,,,,,,,,,,,,,,,,,,0,4,4,2,1,,,,,,,,,,,,,,,,,,,,,,,,,,,,,,,,,,,,,,,,,
838553,001,2022-11-20_23h54.19.661,Info_measure_main_exp,2022.2.2,Win32,120.6709304,,,,,,,,,,,,,,,,,,,,,,,,,,,,,,6,0.5995,1,,,,,,,,,,,,0,131,5,5,2298,2214,absent_patch/patch0002298.jpg,absent_patch/patch0002214.jpg,,,,,,,,,,,,,,,,,,,,0.106237288,0.0335583,1,0,0,response1disk,27,-0.002043804,-0.000684429,1,0,0,center_square,0,26,26,99,1,,,,,,,,,,,,,,,,,,,,,,,
838553,001,2022-11-20_23h54.19.661,Info_measure_main_exp,2022.2.2,Win32,120.6709304,,,,,,,,,,,,,,,,,,masks/mask_005.jpg,,,,,,,,,,,,,,,,,,,,,,,,,,,,,,,,,,,,,,,,,,,0,0,0,4,1,,,,,,,,,,,,,,,,,,,,,,,,,,,,,,,,,,,,,,,,,,,,,,
838553,001,2022-11-20_23h54.19.661,Info_measure_main_exp,2022.2.2,Win32,120.6709304,,,,,,,,,,,,,,,,,,masks/mask_003.jpg,,,,,,,,,,,,,,,,,,,,,,,,,,,,,,,,,,,,,,,,,,,0,1,1,2,1,,,,,,,,,,,,,,,,,,,,,,,,,,,,,,,,,,,,,,,,,,,,,,
838553,001,2022-11-20_23h54.19.661,Info_measure_main_exp,2022.2.2,Win32,120.6709304,,,,,,,,,,,,,,,,,,masks/mask_001.jpg,,,,,,,,,,,,,,,,,,,,,,,,,,,,,,,,,,,,,,,,,,,0,2,2,0,1,,,,,,,,,,,,,,,,,,,,,,,,,,,,,,,,,,,,,,,,,,,,,,
838553,001,2022-11-20_23h54.19.661,Info_measure_main_exp,2022.2.2,Win32,120.6709304,,,,,,,,,,,,,,,,,,masks/mask_004.jpg,,,,,,,,,,,,,,,,,,,,,,,,,,,,,,,,,,,,,,,,,,,0,3,3,3,1,,,,,,,,,,,,,,,,,,,,,,,,,,,,,,,,,,,,,,,,,,,,,,
838553,001,2022-11-20_23h54.19.661,Info_measure_main_exp,2022.2.2,Win32,120.6709304,,,,,,,,,,,,,,,,,,masks/mask_002.jpg,,,,,,,,,,,,,,,,,,,,,,,,,,,,,,,,,,,,,,,,,,,0,4,4,1,1,,,,,,,,,,,,,,,,,,,,,,,,,,,,,,,,,,,,,,,,,,,,,,
838553,001,2022-11-20_23h54.19.661,Info_measure_main_exp,2022.2.2,Win32,120.6709304,,,,,,,,,,,,,,,,,,masks/mask_002.jpg,,,,,,,,,,,,,,,,,,,,,,,,,,,,,,,,,,,,,,,,,,,,,,,,0,0,0,1,1,,,,,,,,,,,,,,,,,,,,,,,,,,,,,,,,,,,,,,,,,
838553,001,2022-11-20_23h54.19.661,Info_measure_main_exp,2022.2.2,Win32,120.6709304,,,,,,,,,,,,,,,,,,masks/mask_001.jpg,,,,,,,,,,,,,,,,,,,,,,,,,,,,,,,,,,,,,,,,,,,,,,,,0,1,1,0,1,,,,,,,,,,,,,,,,,,,,,,,,,,,,,,,,,,,,,,,,,
838553,001,2022-11-20_23h54.19.661,Info_measure_main_exp,2022.2.2,Win32,120.6709304,,,,,,,,,,,,,,,,,,masks/mask_004.jpg,,,,,,,,,,,,,,,,,,,,,,,,,,,,,,,,,,,,,,,,,,,,,,,,0,2,2,3,1,,,,,,,,,,,,,,,,,,,,,,,,,,,,,,,,,,,,,,,,,
838553,001,2022-11-20_23h54.19.661,Info_measure_main_exp,2022.2.2,Win32,120.6709304,,,,,,,,,,,,,,,,,,masks/mask_003.jpg,,,,,,,,,,,,,,,,,,,,,,,,,,,,,,,,,,,,,,,,,,,,,,,,0,3,3,2,1,,,,,,,,,,,,,,,,,,,,,,,,,,,,,,,,,,,,,,,,,
838553,001,2022-11-20_23h54.19.661,Info_measure_main_exp,2022.2.2,Win32,120.6709304,,,,,,,,,,,,,,,,,,masks/mask_005.jpg,,,,,,,,,,,,,,,,,,,,,,,,,,,,,,,,,,,,,,,,,,,,,,,,0,4,4,4,1,,,,,,,,,,,,,,,,,,,,,,,,,,,,,,,,,,,,,,,,,
838553,001,2022-11-20_23h54.19.661,Info_measure_main_exp,2022.2.2,Win32,120.6709304,,,,,,,,,,,,,,,,,,,,,,,,,,,,,,6,0.8959,1,,,,,,,,,,,,0,131,5,5,2214,2142,absent_patch/patch0002214.jpg,absent_patch/patch0002142.jpg,,,,,,,,,,,,,,,,,,,,0.158064162,0.04558954,1,0,0,response1disk,28,0.011838231,-0.009013753,1,0,0,center_square,0,27,27,102,1,,,,,,,,,,,,,,,,,,,,,,,
838553,001,2022-11-20_23h54.19.661,Info_measure_main_exp,2022.2.2,Win32,120.6709304,,,,,,,,,,,,,,,,,,masks/mask_003.jpg,,,,,,,,,,,,,,,,,,,,,,,,,,,,,,,,,,,,,,,,,,,0,0,0,2,1,,,,,,,,,,,,,,,,,,,,,,,,,,,,,,,,,,,,,,,,,,,,,,
838553,001,2022-11-20_23h54.19.661,Info_measure_main_exp,2022.2.2,Win32,120.6709304,,,,,,,,,,,,,,,,,,masks/mask_005.jpg,,,,,,,,,,,,,,,,,,,,,,,,,,,,,,,,,,,,,,,,,,,0,1,1,4,1,,,,,,,,,,,,,,,,,,,,,,,,,,,,,,,,,,,,,,,,,,,,,,
838553,001,2022-11-20_23h54.19.661,Info_measure_main_exp,2022.2.2,Win32,120.6709304,,,,,,,,,,,,,,,,,,masks/mask_004.jpg,,,,,,,,,,,,,,,,,,,,,,,,,,,,,,,,,,,,,,,,,,,0,2,2,3,1,,,,,,,,,,,,,,,,,,,,,,,,,,,,,,,,,,,,,,,,,,,,,,
838553,001,2022-11-20_23h54.19.661,Info_measure_main_exp,2022.2.2,Win32,120.6709304,,,,,,,,,,,,,,,,,,masks/mask_001.jpg,,,,,,,,,,,,,,,,,,,,,,,,,,,,,,,,,,,,,,,,,,,0,3,3,0,1,,,,,,,,,,,,,,,,,,,,,,,,,,,,,,,,,,,,,,,,,,,,,,
838553,001,2022-11-20_23h54.19.661,Info_measure_main_exp,2022.2.2,Win32,120.6709304,,,,,,,,,,,,,,,,,,masks/mask_002.jpg,,,,,,,,,,,,,,,,,,,,,,,,,,,,,,,,,,,,,,,,,,,0,4,4,1,1,,,,,,,,,,,,,,,,,,,,,,,,,,,,,,,,,,,,,,,,,,,,,,
838553,001,2022-11-20_23h54.19.661,Info_measure_main_exp,2022.2.2,Win32,120.6709304,,,,,,,,,,,,,,,,,,masks/mask_005.jpg,,,,,,,,,,,,,,,,,,,,,,,,,,,,,,,,,,,,,,,,,,,,,,,,0,0,0,4,1,,,,,,,,,,,,,,,,,,,,,,,,,,,,,,,,,,,,,,,,,
838553,001,2022-11-20_23h54.19.661,Info_measure_main_exp,2022.2.2,Win32,120.6709304,,,,,,,,,,,,,,,,,,masks/mask_001.jpg,,,,,,,,,,,,,,,,,,,,,,,,,,,,,,,,,,,,,,,,,,,,,,,,0,1,1,0,1,,,,,,,,,,,,,,,,,,,,,,,,,,,,,,,,,,,,,,,,,
838553,001,2022-11-20_23h54.19.661,Info_measure_main_exp,2022.2.2,Win32,120.6709304,,,,,,,,,,,,,,,,,,masks/mask_004.jpg,,,,,,,,,,,,,,,,,,,,,,,,,,,,,,,,,,,,,,,,,,,,,,,,0,2,2,3,1,,,,,,,,,,,,,,,,,,,,,,,,,,,,,,,,,,,,,,,,,
838553,001,2022-11-20_23h54.19.661,Info_measure_main_exp,2022.2.2,Win32,120.6709304,,,,,,,,,,,,,,,,,,masks/mask_002.jpg,,,,,,,,,,,,,,,,,,,,,,,,,,,,,,,,,,,,,,,,,,,,,,,,0,3,3,1,1,,,,,,,,,,,,,,,,,,,,,,,,,,,,,,,,,,,,,,,,,
838553,001,2022-11-20_23h54.19.661,Info_measure_main_exp,2022.2.2,Win32,120.6709304,,,,,,,,,,,,,,,,,,masks/mask_003.jpg,,,,,,,,,,,,,,,,,,,,,,,,,,,,,,,,,,,,,,,,,,,,,,,,0,4,4,2,1,,,,,,,,,,,,,,,,,,,,,,,,,,,,,,,,,,,,,,,,,
838553,001,2022-11-20_23h54.19.661,Info_measure_main_exp,2022.2.2,Win32,120.6709304,,,,,,,,,,,,,,,,,,,,,,,,,,,,,,7,1.6636,1,,,,,,,,,,,,0,131,5,5,2154,2190,absent_patch/patch0002154.jpg,absent_patch/patch0002190.jpg,,,,,,,,,,,,,,,,,,,,0.095131543,0.115000493,1,0,0,response1disk,29,0.007210886,0.003942949,1,0,0,center_square,0,28,28,68,1,,,,,,,,,,,,,,,,,,,,,,,
838553,001,2022-11-20_23h54.19.661,Info_measure_main_exp,2022.2.2,Win32,120.6709304,,,,,,,,,,,,,,,,,,masks/mask_001.jpg,,,,,,,,,,,,,,,,,,,,,,,,,,,,,,,,,,,,,,,,,,,0,0,0,0,1,,,,,,,,,,,,,,,,,,,,,,,,,,,,,,,,,,,,,,,,,,,,,,
838553,001,2022-11-20_23h54.19.661,Info_measure_main_exp,2022.2.2,Win32,120.6709304,,,,,,,,,,,,,,,,,,masks/mask_003.jpg,,,,,,,,,,,,,,,,,,,,,,,,,,,,,,,,,,,,,,,,,,,0,1,1,2,1,,,,,,,,,,,,,,,,,,,,,,,,,,,,,,,,,,,,,,,,,,,,,,
838553,001,2022-11-20_23h54.19.661,Info_measure_main_exp,2022.2.2,Win32,120.6709304,,,,,,,,,,,,,,,,,,masks/mask_005.jpg,,,,,,,,,,,,,,,,,,,,,,,,,,,,,,,,,,,,,,,,,,,0,2,2,4,1,,,,,,,,,,,,,,,,,,,,,,,,,,,,,,,,,,,,,,,,,,,,,,
838553,001,2022-11-20_23h54.19.661,Info_measure_main_exp,2022.2.2,Win32,120.6709304,,,,,,,,,,,,,,,,,,masks/mask_004.jpg,,,,,,,,,,,,,,,,,,,,,,,,,,,,,,,,,,,,,,,,,,,0,3,3,3,1,,,,,,,,,,,,,,,,,,,,,,,,,,,,,,,,,,,,,,,,,,,,,,
838553,001,2022-11-20_23h54.19.661,Info_measure_main_exp,2022.2.2,Win32,120.6709304,,,,,,,,,,,,,,,,,,masks/mask_002.jpg,,,,,,,,,,,,,,,,,,,,,,,,,,,,,,,,,,,,,,,,,,,0,4,4,1,1,,,,,,,,,,,,,,,,,,,,,,,,,,,,,,,,,,,,,,,,,,,,,,
838553,001,2022-11-20_23h54.19.661,Info_measure_main_exp,2022.2.2,Win32,120.6709304,,,,,,,,,,,,,,,,,,masks/mask_005.jpg,,,,,,,,,,,,,,,,,,,,,,,,,,,,,,,,,,,,,,,,,,,,,,,,0,0,0,4,1,,,,,,,,,,,,,,,,,,,,,,,,,,,,,,,,,,,,,,,,,
838553,001,2022-11-20_23h54.19.661,Info_measure_main_exp,2022.2.2,Win32,120.6709304,,,,,,,,,,,,,,,,,,masks/mask_002.jpg,,,,,,,,,,,,,,,,,,,,,,,,,,,,,,,,,,,,,,,,,,,,,,,,0,1,1,1,1,,,,,,,,,,,,,,,,,,,,,,,,,,,,,,,,,,,,,,,,,
838553,001,2022-11-20_23h54.19.661,Info_measure_main_exp,2022.2.2,Win32,120.6709304,,,,,,,,,,,,,,,,,,masks/mask_001.jpg,,,,,,,,,,,,,,,,,,,,,,,,,,,,,,,,,,,,,,,,,,,,,,,,0,2,2,0,1,,,,,,,,,,,,,,,,,,,,,,,,,,,,,,,,,,,,,,,,,
838553,001,2022-11-20_23h54.19.661,Info_measure_main_exp,2022.2.2,Win32,120.6709304,,,,,,,,,,,,,,,,,,masks/mask_004.jpg,,,,,,,,,,,,,,,,,,,,,,,,,,,,,,,,,,,,,,,,,,,,,,,,0,3,3,3,1,,,,,,,,,,,,,,,,,,,,,,,,,,,,,,,,,,,,,,,,,
838553,001,2022-11-20_23h54.19.661,Info_measure_main_exp,2022.2.2,Win32,120.6709304,,,,,,,,,,,,,,,,,,masks/mask_003.jpg,,,,,,,,,,,,,,,,,,,,,,,,,,,,,,,,,,,,,,,,,,,,,,,,0,4,4,2,1,,,,,,,,,,,,,,,,,,,,,,,,,,,,,,,,,,,,,,,,,
838553,001,2022-11-20_23h54.19.661,Info_measure_main_exp,2022.2.2,Win32,120.6709304,,,,,,,,,,,,,,,,,,,,,,,,,,,,,,6,0.4328,1,,,,,,,,,,,,0,131,5,5,2250,2142,absent_patch/patch0002250.jpg,absent_patch/patch0002142.jpg,,,,,,,,,,,,,,,,,,,,0.117343033,0.04558954,1,0,0,response1disk,30,0.004434531,0.005793906,1,0,0,center_square,0,29,29,71,1,,,,,,,,,,,,,,,,,,,,,,,
838553,001,2022-11-20_23h54.19.661,Info_measure_main_exp,2022.2.2,Win32,120.6709304,,,,,,,,,,,,,,,,,,masks/mask_003.jpg,,,,,,,,,,,,,,,,,,,,,,,,,,,,,,,,,,,,,,,,,,,0,0,0,2,1,,,,,,,,,,,,,,,,,,,,,,,,,,,,,,,,,,,,,,,,,,,,,,
838553,001,2022-11-20_23h54.19.661,Info_measure_main_exp,2022.2.2,Win32,120.6709304,,,,,,,,,,,,,,,,,,masks/mask_005.jpg,,,,,,,,,,,,,,,,,,,,,,,,,,,,,,,,,,,,,,,,,,,0,1,1,4,1,,,,,,,,,,,,,,,,,,,,,,,,,,,,,,,,,,,,,,,,,,,,,,
838553,001,2022-11-20_23h54.19.661,Info_measure_main_exp,2022.2.2,Win32,120.6709304,,,,,,,,,,,,,,,,,,masks/mask_002.jpg,,,,,,,,,,,,,,,,,,,,,,,,,,,,,,,,,,,,,,,,,,,0,2,2,1,1,,,,,,,,,,,,,,,,,,,,,,,,,,,,,,,,,,,,,,,,,,,,,,
838553,001,2022-11-20_23h54.19.661,Info_measure_main_exp,2022.2.2,Win32,120.6709304,,,,,,,,,,,,,,,,,,masks/mask_001.jpg,,,,,,,,,,,,,,,,,,,,,,,,,,,,,,,,,,,,,,,,,,,0,3,3,0,1,,,,,,,,,,,,,,,,,,,,,,,,,,,,,,,,,,,,,,,,,,,,,,
838553,001,2022-11-20_23h54.19.661,Info_measure_main_exp,2022.2.2,Win32,120.6709304,,,,,,,,,,,,,,,,,,masks/mask_004.jpg,,,,,,,,,,,,,,,,,,,,,,,,,,,,,,,,,,,,,,,,,,,0,4,4,3,1,,,,,,,,,,,,,,,,,,,,,,,,,,,,,,,,,,,,,,,,,,,,,,
838553,001,2022-11-20_23h54.19.661,Info_measure_main_exp,2022.2.2,Win32,120.6709304,,,,,,,,,,,,,,,,,,masks/mask_004.jpg,,,,,,,,,,,,,,,,,,,,,,,,,,,,,,,,,,,,,,,,,,,,,,,,0,0,0,3,1,,,,,,,,,,,,,,,,,,,,,,,,,,,,,,,,,,,,,,,,,
838553,001,2022-11-20_23h54.19.661,Info_measure_main_exp,2022.2.2,Win32,120.6709304,,,,,,,,,,,,,,,,,,masks/mask_001.jpg,,,,,,,,,,,,,,,,,,,,,,,,,,,,,,,,,,,,,,,,,,,,,,,,0,1,1,0,1,,,,,,,,,,,,,,,,,,,,,,,,,,,,,,,,,,,,,,,,,
838553,001,2022-11-20_23h54.19.661,Info_measure_main_exp,2022.2.2,Win32,120.6709304,,,,,,,,,,,,,,,,,,masks/mask_005.jpg,,,,,,,,,,,,,,,,,,,,,,,,,,,,,,,,,,,,,,,,,,,,,,,,0,2,2,4,1,,,,,,,,,,,,,,,,,,,,,,,,,,,,,,,,,,,,,,,,,
838553,001,2022-11-20_23h54.19.661,Info_measure_main_exp,2022.2.2,Win32,120.6709304,,,,,,,,,,,,,,,,,,masks/mask_003.jpg,,,,,,,,,,,,,,,,,,,,,,,,,,,,,,,,,,,,,,,,,,,,,,,,0,3,3,2,1,,,,,,,,,,,,,,,,,,,,,,,,,,,,,,,,,,,,,,,,,
838553,001,2022-11-20_23h54.19.661,Info_measure_main_exp,2022.2.2,Win32,120.6709304,,,,,,,,,,,,,,,,,,masks/mask_002.jpg,,,,,,,,,,,,,,,,,,,,,,,,,,,,,,,,,,,,,,,,,,,,,,,,0,4,4,1,1,,,,,,,,,,,,,,,,,,,,,,,,,,,,,,,,,,,,,,,,,
838553,001,2022-11-20_23h54.19.661,Info_measure_main_exp,2022.2.2,Win32,120.6709304,,,,,,,,,,,,,,,,,,,,,,,,,,,,,,6,0.5064,1,,,,,,,,,,,,0,131,5,5,2178,2166,absent_patch/patch0002178.jpg,absent_patch/patch0002166.jpg,,,,,,,,,,,,,,,,,,,,0.145107427,0.036334818,1,0,0,response1disk,31,0.010912801,-0.005311839,1,0,0,center_square,0,30,30,72,1,,,,,,,,,,,,,,,,,,,,,,,
838553,001,2022-11-20_23h54.19.661,Info_measure_main_exp,2022.2.2,Win32,120.6709304,,,,,,,,,,,,,,,,,,masks/mask_001.jpg,,,,,,,,,,,,,,,,,,,,,,,,,,,,,,,,,,,,,,,,,,,0,0,0,0,1,,,,,,,,,,,,,,,,,,,,,,,,,,,,,,,,,,,,,,,,,,,,,,
838553,001,2022-11-20_23h54.19.661,Info_measure_main_exp,2022.2.2,Win32,120.6709304,,,,,,,,,,,,,,,,,,masks/mask_002.jpg,,,,,,,,,,,,,,,,,,,,,,,,,,,,,,,,,,,,,,,,,,,0,1,1,1,1,,,,,,,,,,,,,,,,,,,,,,,,,,,,,,,,,,,,,,,,,,,,,,
838553,001,2022-11-20_23h54.19.661,Info_measure_main_exp,2022.2.2,Win32,120.6709304,,,,,,,,,,,,,,,,,,masks/mask_003.jpg,,,,,,,,,,,,,,,,,,,,,,,,,,,,,,,,,,,,,,,,,,,0,2,2,2,1,,,,,,,,,,,,,,,,,,,,,,,,,,,,,,,,,,,,,,,,,,,,,,
838553,001,2022-11-20_23h54.19.661,Info_measure_main_exp,2022.2.2,Win32,120.6709304,,,,,,,,,,,,,,,,,,masks/mask_004.jpg,,,,,,,,,,,,,,,,,,,,,,,,,,,,,,,,,,,,,,,,,,,0,3,3,3,1,,,,,,,,,,,,,,,,,,,,,,,,,,,,,,,,,,,,,,,,,,,,,,
838553,001,2022-11-20_23h54.19.661,Info_measure_main_exp,2022.2.2,Win32,120.6709304,,,,,,,,,,,,,,,,,,masks/mask_005.jpg,,,,,,,,,,,,,,,,,,,,,,,,,,,,,,,,,,,,,,,,,,,0,4,4,4,1,,,,,,,,,,,,,,,,,,,,,,,,,,,,,,,,,,,,,,,,,,,,,,
838553,001,2022-11-20_23h54.19.661,Info_measure_main_exp,2022.2.2,Win32,120.6709304,,,,,,,,,,,,,,,,,,masks/mask_001.jpg,,,,,,,,,,,,,,,,,,,,,,,,,,,,,,,,,,,,,,,,,,,,,,,,0,0,0,0,1,,,,,,,,,,,,,,,,,,,,,,,,,,,,,,,,,,,,,,,,,
838553,001,2022-11-20_23h54.19.661,Info_measure_main_exp,2022.2.2,Win32,120.6709304,,,,,,,,,,,,,,,,,,masks/mask_002.jpg,,,,,,,,,,,,,,,,,,,,,,,,,,,,,,,,,,,,,,,,,,,,,,,,0,1,1,1,1,,,,,,,,,,,,,,,,,,,,,,,,,,,,,,,,,,,,,,,,,
838553,001,2022-11-20_23h54.19.661,Info_measure_main_exp,2022.2.2,Win32,120.6709304,,,,,,,,,,,,,,,,,,masks/mask_003.jpg,,,,,,,,,,,,,,,,,,,,,,,,,,,,,,,,,,,,,,,,,,,,,,,,0,2,2,2,1,,,,,,,,,,,,,,,,,,,,,,,,,,,,,,,,,,,,,,,,,
838553,001,2022-11-20_23h54.19.661,Info_measure_main_exp,2022.2.2,Win32,120.6709304,,,,,,,,,,,,,,,,,,masks/mask_004.jpg,,,,,,,,,,,,,,,,,,,,,,,,,,,,,,,,,,,,,,,,,,,,,,,,0,3,3,3,1,,,,,,,,,,,,,,,,,,,,,,,,,,,,,,,,,,,,,,,,,
838553,001,2022-11-20_23h54.19.661,Info_measure_main_exp,2022.2.2,Win32,120.6709304,,,,,,,,,,,,,,,,,,masks/mask_005.jpg,,,,,,,,,,,,,,,,,,,,,,,,,,,,,,,,,,,,,,,,,,,,,,,,0,4,4,4,1,,,,,,,,,,,,,,,,,,,,,,,,,,,,,,,,,,,,,,,,,
838553,001,2022-11-20_23h54.19.661,Info_measure_main_exp,2022.2.2,Win32,120.6709304,,,,,,,,,,,,,,,,,,,,,,,,,,,,,,6,0.6323,1,,,,,,,,,,,,1,131,5,5,1,1986,present_patch/cong_131_5_a.jpg,absent_patch/patch0001986.jpg,,,,,,,,,,,,,,,,,,,,0.132150692,0.04558954,1,0,0,response1disk,32,0.007210886,0.007644864,1,0,0,center_square,0,31,31,106,1,,,,,,,,,,,,,,,,,,,,,,,
838553,001,2022-11-20_23h54.19.661,Info_measure_main_exp,2022.2.2,Win32,120.6709304,,,,,,,,,,,,,,,,,,masks/mask_002.jpg,,,,,,,,,,,,,,,,,,,,,,,,,,,,,,,,,,,,,,,,,,,0,0,0,1,1,,,,,,,,,,,,,,,,,,,,,,,,,,,,,,,,,,,,,,,,,,,,,,
838553,001,2022-11-20_23h54.19.661,Info_measure_main_exp,2022.2.2,Win32,120.6709304,,,,,,,,,,,,,,,,,,masks/mask_001.jpg,,,,,,,,,,,,,,,,,,,,,,,,,,,,,,,,,,,,,,,,,,,0,1,1,0,1,,,,,,,,,,,,,,,,,,,,,,,,,,,,,,,,,,,,,,,,,,,,,,
838553,001,2022-11-20_23h54.19.661,Info_measure_main_exp,2022.2.2,Win32,120.6709304,,,,,,,,,,,,,,,,,,masks/mask_004.jpg,,,,,,,,,,,,,,,,,,,,,,,,,,,,,,,,,,,,,,,,,,,0,2,2,3,1,,,,,,,,,,,,,,,,,,,,,,,,,,,,,,,,,,,,,,,,,,,,,,
838553,001,2022-11-20_23h54.19.661,Info_measure_main_exp,2022.2.2,Win32,120.6709304,,,,,,,,,,,,,,,,,,masks/mask_003.jpg,,,,,,,,,,,,,,,,,,,,,,,,,,,,,,,,,,,,,,,,,,,0,3,3,2,1,,,,,,,,,,,,,,,,,,,,,,,,,,,,,,,,,,,,,,,,,,,,,,
838553,001,2022-11-20_23h54.19.661,Info_measure_main_exp,2022.2.2,Win32,120.6709304,,,,,,,,,,,,,,,,,,masks/mask_005.jpg,,,,,,,,,,,,,,,,,,,,,,,,,,,,,,,,,,,,,,,,,,,0,4,4,4,1,,,,,,,,,,,,,,,,,,,,,,,,,,,,,,,,,,,,,,,,,,,,,,
838553,001,2022-11-20_23h54.19.661,Info_measure_main_exp,2022.2.2,Win32,120.6709304,,,,,,,,,,,,,,,,,,masks/mask_005.jpg,,,,,,,,,,,,,,,,,,,,,,,,,,,,,,,,,,,,,,,,,,,,,,,,0,0,0,4,1,,,,,,,,,,,,,,,,,,,,,,,,,,,,,,,,,,,,,,,,,
838553,001,2022-11-20_23h54.19.661,Info_measure_main_exp,2022.2.2,Win32,120.6709304,,,,,,,,,,,,,,,,,,masks/mask_001.jpg,,,,,,,,,,,,,,,,,,,,,,,,,,,,,,,,,,,,,,,,,,,,,,,,0,1,1,0,1,,,,,,,,,,,,,,,,,,,,,,,,,,,,,,,,,,,,,,,,,
838553,001,2022-11-20_23h54.19.661,Info_measure_main_exp,2022.2.2,Win32,120.6709304,,,,,,,,,,,,,,,,,,masks/mask_003.jpg,,,,,,,,,,,,,,,,,,,,,,,,,,,,,,,,,,,,,,,,,,,,,,,,0,2,2,2,1,,,,,,,,,,,,,,,,,,,,,,,,,,,,,,,,,,,,,,,,,
838553,001,2022-11-20_23h54.19.661,Info_measure_main_exp,2022.2.2,Win32,120.6709304,,,,,,,,,,,,,,,,,,masks/mask_002.jpg,,,,,,,,,,,,,,,,,,,,,,,,,,,,,,,,,,,,,,,,,,,,,,,,0,3,3,1,1,,,,,,,,,,,,,,,,,,,,,,,,,,,,,,,,,,,,,,,,,
838553,001,2022-11-20_23h54.19.661,Info_measure_main_exp,2022.2.2,Win32,120.6709304,,,,,,,,,,,,,,,,,,masks/mask_004.jpg,,,,,,,,,,,,,,,,,,,,,,,,,,,,,,,,,,,,,,,,,,,,,,,,0,4,4,3,1,,,,,,,,,,,,,,,,,,,,,,,,,,,,,,,,,,,,,,,,,
838553,001,2022-11-20_23h54.19.661,Info_measure_main_exp,2022.2.2,Win32,120.6709304,,,,,,,,,,,,,,,,,,,,,,,,,,,,,,6,1.7385,1,,,,,,,,,,,,0,131,5,5,1974,1950,absent_patch/patch0001974.jpg,absent_patch/patch0001950.jpg,,,,,,,,,,,,,,,,,,,,0.115492108,0.05299337,1,0,0,response1disk,33,0.007210886,0.008570359,1,0,0,center_square,0,32,32,17,1,,,,,,,,,,,,,,,,,,,,,,,
838553,001,2022-11-20_23h54.19.661,Info_measure_main_exp,2022.2.2,Win32,120.6709304,,,,,,,,,,,,,,,,,,masks/mask_005.jpg,,,,,,,,,,,,,,,,,,,,,,,,,,,,,,,,,,,,,,,,,,,0,0,0,4,1,,,,,,,,,,,,,,,,,,,,,,,,,,,,,,,,,,,,,,,,,,,,,,
838553,001,2022-11-20_23h54.19.661,Info_measure_main_exp,2022.2.2,Win32,120.6709304,,,,,,,,,,,,,,,,,,masks/mask_002.jpg,,,,,,,,,,,,,,,,,,,,,,,,,,,,,,,,,,,,,,,,,,,0,1,1,1,1,,,,,,,,,,,,,,,,,,,,,,,,,,,,,,,,,,,,,,,,,,,,,,
838553,001,2022-11-20_23h54.19.661,Info_measure_main_exp,2022.2.2,Win32,120.6709304,,,,,,,,,,,,,,,,,,masks/mask_001.jpg,,,,,,,,,,,,,,,,,,,,,,,,,,,,,,,,,,,,,,,,,,,0,2,2,0,1,,,,,,,,,,,,,,,,,,,,,,,,,,,,,,,,,,,,,,,,,,,,,,
838553,001,2022-11-20_23h54.19.661,Info_measure_main_exp,2022.2.2,Win32,120.6709304,,,,,,,,,,,,,,,,,,masks/mask_003.jpg,,,,,,,,,,,,,,,,,,,,,,,,,,,,,,,,,,,,,,,,,,,0,3,3,2,1,,,,,,,,,,,,,,,,,,,,,,,,,,,,,,,,,,,,,,,,,,,,,,
838553,001,2022-11-20_23h54.19.661,Info_measure_main_exp,2022.2.2,Win32,120.6709304,,,,,,,,,,,,,,,,,,masks/mask_004.jpg,,,,,,,,,,,,,,,,,,,,,,,,,,,,,,,,,,,,,,,,,,,0,4,4,3,1,,,,,,,,,,,,,,,,,,,,,,,,,,,,,,,,,,,,,,,,,,,,,,
838553,001,2022-11-20_23h54.19.661,Info_measure_main_exp,2022.2.2,Win32,120.6709304,,,,,,,,,,,,,,,,,,masks/mask_004.jpg,,,,,,,,,,,,,,,,,,,,,,,,,,,,,,,,,,,,,,,,,,,,,,,,0,0,0,3,1,,,,,,,,,,,,,,,,,,,,,,,,,,,,,,,,,,,,,,,,,
838553,001,2022-11-20_23h54.19.661,Info_measure_main_exp,2022.2.2,Win32,120.6709304,,,,,,,,,,,,,,,,,,masks/mask_001.jpg,,,,,,,,,,,,,,,,,,,,,,,,,,,,,,,,,,,,,,,,,,,,,,,,0,1,1,0,1,,,,,,,,,,,,,,,,,,,,,,,,,,,,,,,,,,,,,,,,,
838553,001,2022-11-20_23h54.19.661,Info_measure_main_exp,2022.2.2,Win32,120.6709304,,,,,,,,,,,,,,,,,,masks/mask_005.jpg,,,,,,,,,,,,,,,,,,,,,,,,,,,,,,,,,,,,,,,,,,,,,,,,0,2,2,4,1,,,,,,,,,,,,,,,,,,,,,,,,,,,,,,,,,,,,,,,,,
838553,001,2022-11-20_23h54.19.661,Info_measure_main_exp,2022.2.2,Win32,120.6709304,,,,,,,,,,,,,,,,,,masks/mask_002.jpg,,,,,,,,,,,,,,,,,,,,,,,,,,,,,,,,,,,,,,,,,,,,,,,,0,3,3,1,1,,,,,,,,,,,,,,,,,,,,,,,,,,,,,,,,,,,,,,,,,
838553,001,2022-11-20_23h54.19.661,Info_measure_main_exp,2022.2.2,Win32,120.6709304,,,,,,,,,,,,,,,,,,masks/mask_003.jpg,,,,,,,,,,,,,,,,,,,,,,,,,,,,,,,,,,,,,,,,,,,,,,,,0,4,4,2,1,,,,,,,,,,,,,,,,,,,,,,,,,,,,,,,,,,,,,,,,,
838553,001,2022-11-20_23h54.19.661,Info_measure_main_exp,2022.2.2,Win32,120.6709304,,,,,,,,,,,,,,,,,,,,,,,,,,,,,,6,0.5096,1,,,,,,,,,,,,0,131,5,5,2250,2166,absent_patch/patch0002250.jpg,absent_patch/patch0002166.jpg,,,,,,,,,,,,,,,,,,,,0.129374272,0.046515035,1,0,0,response1disk,34,0.006285521,0.004868444,1,0,0,center_square,0,33,33,60,1,,,,,,,,,,,,,,,,,,,,,,,
838553,001,2022-11-20_23h54.19.661,Info_measure_main_exp,2022.2.2,Win32,120.6709304,,,,,,,,,,,,,,,,,,masks/mask_001.jpg,,,,,,,,,,,,,,,,,,,,,,,,,,,,,,,,,,,,,,,,,,,0,0,0,0,1,,,,,,,,,,,,,,,,,,,,,,,,,,,,,,,,,,,,,,,,,,,,,,
838553,001,2022-11-20_23h54.19.661,Info_measure_main_exp,2022.2.2,Win32,120.6709304,,,,,,,,,,,,,,,,,,masks/mask_002.jpg,,,,,,,,,,,,,,,,,,,,,,,,,,,,,,,,,,,,,,,,,,,0,1,1,1,1,,,,,,,,,,,,,,,,,,,,,,,,,,,,,,,,,,,,,,,,,,,,,,
838553,001,2022-11-20_23h54.19.661,Info_measure_main_exp,2022.2.2,Win32,120.6709304,,,,,,,,,,,,,,,,,,masks/mask_005.jpg,,,,,,,,,,,,,,,,,,,,,,,,,,,,,,,,,,,,,,,,,,,0,2,2,4,1,,,,,,,,,,,,,,,,,,,,,,,,,,,,,,,,,,,,,,,,,,,,,,
838553,001,2022-11-20_23h54.19.661,Info_measure_main_exp,2022.2.2,Win32,120.6709304,,,,,,,,,,,,,,,,,,masks/mask_003.jpg,,,,,,,,,,,,,,,,,,,,,,,,,,,,,,,,,,,,,,,,,,,0,3,3,2,1,,,,,,,,,,,,,,,,,,,,,,,,,,,,,,,,,,,,,,,,,,,,,,
838553,001,2022-11-20_23h54.19.661,Info_measure_main_exp,2022.2.2,Win32,120.6709304,,,,,,,,,,,,,,,,,,masks/mask_004.jpg,,,,,,,,,,,,,,,,,,,,,,,,,,,,,,,,,,,,,,,,,,,0,4,4,3,1,,,,,,,,,,,,,,,,,,,,,,,,,,,,,,,,,,,,,,,,,,,,,,
838553,001,2022-11-20_23h54.19.661,Info_measure_main_exp,2022.2.2,Win32,120.6709304,,,,,,,,,,,,,,,,,,masks/mask_003.jpg,,,,,,,,,,,,,,,,,,,,,,,,,,,,,,,,,,,,,,,,,,,,,,,,0,0,0,2,1,,,,,,,,,,,,,,,,,,,,,,,,,,,,,,,,,,,,,,,,,
838553,001,2022-11-20_23h54.19.661,Info_measure_main_exp,2022.2.2,Win32,120.6709304,,,,,,,,,,,,,,,,,,masks/mask_002.jpg,,,,,,,,,,,,,,,,,,,,,,,,,,,,,,,,,,,,,,,,,,,,,,,,0,1,1,1,1,,,,,,,,,,,,,,,,,,,,,,,,,,,,,,,,,,,,,,,,,
838553,001,2022-11-20_23h54.19.661,Info_measure_main_exp,2022.2.2,Win32,120.6709304,,,,,,,,,,,,,,,,,,masks/mask_001.jpg,,,,,,,,,,,,,,,,,,,,,,,,,,,,,,,,,,,,,,,,,,,,,,,,0,2,2,0,1,,,,,,,,,,,,,,,,,,,,,,,,,,,,,,,,,,,,,,,,,
838553,001,2022-11-20_23h54.19.661,Info_measure_main_exp,2022.2.2,Win32,120.6709304,,,,,,,,,,,,,,,,,,masks/mask_004.jpg,,,,,,,,,,,,,,,,,,,,,,,,,,,,,,,,,,,,,,,,,,,,,,,,0,3,3,3,1,,,,,,,,,,,,,,,,,,,,,,,,,,,,,,,,,,,,,,,,,
