participant,session,date,expName,psychopyVersion,OS,frameRate,space_press_continue.keys,space_press_continue.rt,space_press_continue_2.keys,space_press_continue_2.rt,space_press_continue_3.keys,space_press_continue_3.rt,space_press_continue_4.keys,space_press_continue_4.rt,space_press_continue_5.keys,space_press_continue_5.rt,space_press_continue_6.keys,space_press_continue_6.rt,prac_mask_loop_1.thisRepN,prac_mask_loop_1.thisTrialN,prac_mask_loop_1.thisN,prac_mask_loop_1.thisIndex,prac_mask_loop_1.ran,mask_name,prac_mask_loop_2.thisRepN,prac_mask_loop_2.thisTrialN,prac_mask_loop_2.thisN,prac_mask_loop_2.thisIndex,prac_mask_loop_2.ran,mouse_2.x,mouse_2.y,mouse_2.leftButton,mouse_2.midButton,mouse_2.rightButton,mouse_2.clicked_name,similarity,response_time,Pass,mouse_12.x,mouse_12.y,mouse_12.leftButton,mouse_12.midButton,mouse_12.rightButton,mouse_12.clicked_name,prac_loop.thisRepN,prac_loop.thisTrialN,prac_loop.thisN,prac_loop.thisIndex,prac_loop.ran,Pair_type,Image_num,Patch_1_loc,Patch_2_loc,Patch_1_info,Patch_2_info,Patch_1_name,Patch_2_name,mouse_1.x,mouse_1.y,mouse_1.leftButton,mouse_1.midButton,mouse_1.rightButton,mouse_1.time,mouse_1.clicked_name,space_press_continue_7.keys,space_press_continue_7.rt,mask_loop.thisRepN,mask_loop.thisTrialN,mask_loop.thisN,mask_loop.thisIndex,mask_loop.ran,mask_loop_2.thisRepN,mask_loop_2.thisTrialN,mask_loop_2.thisN,mask_loop_2.thisIndex,mask_loop_2.ran,mouse.x,mouse.y,mouse.leftButton,mouse.midButton,mouse.rightButton,mouse.clicked_name,trialNumber,mouse_11.x,mouse_11.y,mouse_11.leftButton,mouse_11.midButton,mouse_11.rightButton,mouse_11.clicked_name,first_pass_loop.thisRepN,first_pass_loop.thisTrialN,first_pass_loop.thisN,first_pass_loop.thisIndex,first_pass_loop.ran,mask_loop_3.thisRepN,mask_loop_3.thisTrialN,mask_loop_3.thisN,mask_loop_3.thisIndex,mask_loop_3.ran,mask_loop_4.thisRepN,mask_loop_4.thisTrialN,mask_loop_4.thisN,mask_loop_4.thisIndex,mask_loop_4.ran,mouse_3.x,mouse_3.y,mouse_3.leftButton,mouse_3.midButton,mouse_3.rightButton,mouse_3.clicked_name,double_pass_loop.thisRepN,double_pass_loop.thisTrialN,double_pass_loop.thisN,double_pass_loop.thisIndex,double_pass_loop.ran,space_exit.keys,space_exit.rt
843464,001,2022-11-21_24h54.29.729,Info_measure_main_exp,2022.2.2,Win32,63.85696041,,,,,,,,,,,,,,,,,,,,,,,,,,,,,,,,,,,,,,,,,,,,,,,,,,,,,,,,,,,,,,,,,,,,,,,,,,,,,,,,,,,,,,,,,,,,,,,,,,,,,,,,,,,,,,,
843464,001,2022-11-21_24h54.29.729,Info_measure_main_exp,2022.2.2,Win32,63.85696041,,,,,,,,,,,,,,,,,,,,,,,,,,,,,,,,,,,,,,,,,,,,,,,,,,,,,,,,,,,,,,,,,,,,,,,,,,,,,,,,,,,,,,,,,,,,,,,,,,,,,,,,,,,,,,,
843464,001,2022-11-21_24h54.29.729,Info_measure_main_exp,2022.2.2,Win32,63.85696041,space,7.7858,,,,,,,,,,,,,,,,,,,,,,,,,,,,,,,,,,,,,,,,,,,,,,,,,,,,,,,,,,,,,,,,,,,,,,,,,,,,,,,,,,,,,,,,,,,,,,,,,,,,,,,,,,,,,
843464,001,2022-11-21_24h54.29.729,Info_measure_main_exp,2022.2.2,Win32,63.85696041,,,space,11.946,,,,,,,,,,,,,,,,,,,,,,,,,,,,,,,,,,,,,,,,,,,,,,,,,,,,,,,,,,,,,,,,,,,,,,,,,,,,,,,,,,,,,,,,,,,,,,,,,,,,,,,,,,,
843464,001,2022-11-21_24h54.29.729,Info_measure_main_exp,2022.2.2,Win32,63.85696041,,,,,space,7.0799,,,,,,,,,,,,,,,,,,,,,,,,,,,,,,,,,,,,,,,,,,,,,,,,,,,,,,,,,,,,,,,,,,,,,,,,,,,,,,,,,,,,,,,,,,,,,,,,,,,,,,,,,
843464,001,2022-11-21_24h54.29.729,Info_measure_main_exp,2022.2.2,Win32,63.85696041,,,,,,,space,23.1306,,,,,,,,,,,,,,,,,,,,,,,,,,,,,,,,,,,,,,,,,,,,,,,,,,,,,,,,,,,,,,,,,,,,,,,,,,,,,,,,,,,,,,,,,,,,,,,,,,,,,,,
843464,001,2022-11-21_24h54.29.729,Info_measure_main_exp,2022.2.2,Win32,63.85696041,,,,,,,,,space,8.134,,,,,,,,,,,,,,,,,,,,,,,,,,,,,,,,,,,,,,,,,,,,,,,,,,,,,,,,,,,,,,,,,,,,,,,,,,,,,,,,,,,,,,,,,,,,,,,,,,,,,
843464,001,2022-11-21_24h54.29.729,Info_measure_main_exp,2022.2.2,Win32,63.85696041,,,,,,,,,,,space,5.5447,,,,,,,,,,,,,,,,,,,,,,,,,,,,,,,,,,,,,,,,,,,,,,,,,,,,,,,,,,,,,,,,,,,,,,,,,,,,,,,,,,,,,,,,,,,,,,,,,,,
843464,001,2022-11-21_24h54.29.729,Info_measure_main_exp,2022.2.2,Win32,63.85696041,,,,,,,,,,,,,0,0,0,2,1,masks/mask_003.jpg,,,,,,,,,,,,,,,,,,,,,,,,,,,,,,,,,,,,,,,,,,,,,,,,,,,,,,,,,,,,,,,,,,,,,,,,,,,,,,,,,,,,,,,,,,,,,
843464,001,2022-11-21_24h54.29.729,Info_measure_main_exp,2022.2.2,Win32,63.85696041,,,,,,,,,,,,,0,1,1,4,1,masks/mask_005.jpg,,,,,,,,,,,,,,,,,,,,,,,,,,,,,,,,,,,,,,,,,,,,,,,,,,,,,,,,,,,,,,,,,,,,,,,,,,,,,,,,,,,,,,,,,,,,,
843464,001,2022-11-21_24h54.29.729,Info_measure_main_exp,2022.2.2,Win32,63.85696041,,,,,,,,,,,,,0,2,2,3,1,masks/mask_004.jpg,,,,,,,,,,,,,,,,,,,,,,,,,,,,,,,,,,,,,,,,,,,,,,,,,,,,,,,,,,,,,,,,,,,,,,,,,,,,,,,,,,,,,,,,,,,,,
843464,001,2022-11-21_24h54.29.729,Info_measure_main_exp,2022.2.2,Win32,63.85696041,,,,,,,,,,,,,0,3,3,0,1,masks/mask_001.jpg,,,,,,,,,,,,,,,,,,,,,,,,,,,,,,,,,,,,,,,,,,,,,,,,,,,,,,,,,,,,,,,,,,,,,,,,,,,,,,,,,,,,,,,,,,,,,
843464,001,2022-11-21_24h54.29.729,Info_measure_main_exp,2022.2.2,Win32,63.85696041,,,,,,,,,,,,,0,4,4,1,1,masks/mask_002.jpg,,,,,,,,,,,,,,,,,,,,,,,,,,,,,,,,,,,,,,,,,,,,,,,,,,,,,,,,,,,,,,,,,,,,,,,,,,,,,,,,,,,,,,,,,,,,,
843464,001,2022-11-21_24h54.29.729,Info_measure_main_exp,2022.2.2,Win32,63.85696041,,,,,,,,,,,,,,,,,,masks/mask_001.jpg,0,0,0,0,1,,,,,,,,,,,,,,,,,,,,,,,,,,,,,,,,,,,,,,,,,,,,,,,,,,,,,,,,,,,,,,,,,,,,,,,,,,,,,,,,,,,,,,,,
843464,001,2022-11-21_24h54.29.729,Info_measure_main_exp,2022.2.2,Win32,63.85696041,,,,,,,,,,,,,,,,,,masks/mask_003.jpg,0,1,1,2,1,,,,,,,,,,,,,,,,,,,,,,,,,,,,,,,,,,,,,,,,,,,,,,,,,,,,,,,,,,,,,,,,,,,,,,,,,,,,,,,,,,,,,,,,
843464,001,2022-11-21_24h54.29.729,Info_measure_main_exp,2022.2.2,Win32,63.85696041,,,,,,,,,,,,,,,,,,masks/mask_002.jpg,0,2,2,1,1,,,,,,,,,,,,,,,,,,,,,,,,,,,,,,,,,,,,,,,,,,,,,,,,,,,,,,,,,,,,,,,,,,,,,,,,,,,,,,,,,,,,,,,,
843464,001,2022-11-21_24h54.29.729,Info_measure_main_exp,2022.2.2,Win32,63.85696041,,,,,,,,,,,,,,,,,,masks/mask_004.jpg,0,3,3,3,1,,,,,,,,,,,,,,,,,,,,,,,,,,,,,,,,,,,,,,,,,,,,,,,,,,,,,,,,,,,,,,,,,,,,,,,,,,,,,,,,,,,,,,,,
843464,001,2022-11-21_24h54.29.729,Info_measure_main_exp,2022.2.2,Win32,63.85696041,,,,,,,,,,,,,,,,,,masks/mask_005.jpg,0,4,4,4,1,,,,,,,,,,,,,,,,,,,,,,,,,,,,,,,,,,,,,,,,,,,,,,,,,,,,,,,,,,,,,,,,,,,,,,,,,,,,,,,,,,,,,,,,
843464,001,2022-11-21_24h54.29.729,Info_measure_main_exp,2022.2.2,Win32,63.85696041,,,,,,,,,,,,,,,,,,,,,,,,0.034259259,-0.112037037,1,0,0,response3disk,4,72.4417,1,-0.002777778,0.009259259,1,0,0,center_square,0,0,0,0,1,0,131,5,5,2370,2406,prac_patch/patch0002370.jpg,prac_patch/patch0002406.jpg,,,,,,,,,,,,,,,,,,,,,,,,,,,,,,,,,,,,,,,,,,,,,,,,,,,,,,,,,,,,
843464,001,2022-11-21_24h54.29.729,Info_measure_main_exp,2022.2.2,Win32,63.85696041,,,,,,,,,,,,,0,0,0,0,1,masks/mask_001.jpg,,,,,,,,,,,,,,,,,,,,,,,,,,,,,,,,,,,,,,,,,,,,,,,,,,,,,,,,,,,,,,,,,,,,,,,,,,,,,,,,,,,,,,,,,,,,,
843464,001,2022-11-21_24h54.29.729,Info_measure_main_exp,2022.2.2,Win32,63.85696041,,,,,,,,,,,,,0,1,1,2,1,masks/mask_003.jpg,,,,,,,,,,,,,,,,,,,,,,,,,,,,,,,,,,,,,,,,,,,,,,,,,,,,,,,,,,,,,,,,,,,,,,,,,,,,,,,,,,,,,,,,,,,,,
843464,001,2022-11-21_24h54.29.729,Info_measure_main_exp,2022.2.2,Win32,63.85696041,,,,,,,,,,,,,0,2,2,3,1,masks/mask_004.jpg,,,,,,,,,,,,,,,,,,,,,,,,,,,,,,,,,,,,,,,,,,,,,,,,,,,,,,,,,,,,,,,,,,,,,,,,,,,,,,,,,,,,,,,,,,,,,
843464,001,2022-11-21_24h54.29.729,Info_measure_main_exp,2022.2.2,Win32,63.85696041,,,,,,,,,,,,,0,3,3,4,1,masks/mask_005.jpg,,,,,,,,,,,,,,,,,,,,,,,,,,,,,,,,,,,,,,,,,,,,,,,,,,,,,,,,,,,,,,,,,,,,,,,,,,,,,,,,,,,,,,,,,,,,,
843464,001,2022-11-21_24h54.29.729,Info_measure_main_exp,2022.2.2,Win32,63.85696041,,,,,,,,,,,,,0,4,4,1,1,masks/mask_002.jpg,,,,,,,,,,,,,,,,,,,,,,,,,,,,,,,,,,,,,,,,,,,,,,,,,,,,,,,,,,,,,,,,,,,,,,,,,,,,,,,,,,,,,,,,,,,,,
843464,001,2022-11-21_24h54.29.729,Info_measure_main_exp,2022.2.2,Win32,63.85696041,,,,,,,,,,,,,,,,,,masks/mask_005.jpg,0,0,0,4,1,,,,,,,,,,,,,,,,,,,,,,,,,,,,,,,,,,,,,,,,,,,,,,,,,,,,,,,,,,,,,,,,,,,,,,,,,,,,,,,,,,,,,,,,
843464,001,2022-11-21_24h54.29.729,Info_measure_main_exp,2022.2.2,Win32,63.85696041,,,,,,,,,,,,,,,,,,masks/mask_002.jpg,0,1,1,1,1,,,,,,,,,,,,,,,,,,,,,,,,,,,,,,,,,,,,,,,,,,,,,,,,,,,,,,,,,,,,,,,,,,,,,,,,,,,,,,,,,,,,,,,,
843464,001,2022-11-21_24h54.29.729,Info_measure_main_exp,2022.2.2,Win32,63.85696041,,,,,,,,,,,,,,,,,,masks/mask_001.jpg,0,2,2,0,1,,,,,,,,,,,,,,,,,,,,,,,,,,,,,,,,,,,,,,,,,,,,,,,,,,,,,,,,,,,,,,,,,,,,,,,,,,,,,,,,,,,,,,,,
843464,001,2022-11-21_24h54.29.729,Info_measure_main_exp,2022.2.2,Win32,63.85696041,,,,,,,,,,,,,,,,,,masks/mask_004.jpg,0,3,3,3,1,,,,,,,,,,,,,,,,,,,,,,,,,,,,,,,,,,,,,,,,,,,,,,,,,,,,,,,,,,,,,,,,,,,,,,,,,,,,,,,,,,,,,,,,
843464,001,2022-11-21_24h54.29.729,Info_measure_main_exp,2022.2.2,Win32,63.85696041,,,,,,,,,,,,,,,,,,masks/mask_003.jpg,0,4,4,2,1,,,,,,,,,,,,,,,,,,,,,,,,,,,,,,,,,,,,,,,,,,,,,,,,,,,,,,,,,,,,,,,,,,,,,,,,,,,,,,,,,,,,,,,,
843464,001,2022-11-21_24h54.29.729,Info_measure_main_exp,2022.2.2,Win32,63.85696041,,,,,,,,,,,,,,,,,,,,,,,,-0.040740741,-0.075925926,1,0,0,response5disk,3,85.2786,1,0.002777778,-0.006481481,1,0,0,center_square,0,1,1,1,1,0,131,5,5,2514,2490,prac_patch/patch0002514.jpg,prac_patch/patch0002490.jpg,,,,,,,,,,,,,,,,,,,,,,,,,,,,,,,,,,,,,,,,,,,,,,,,,,,,,,,,,,,,
843464,001,2022-11-21_24h54.29.729,Info_measure_main_exp,2022.2.2,Win32,63.85696041,,,,,,,,,,,,,0,0,0,0,1,masks/mask_001.jpg,,,,,,,,,,,,,,,,,,,,,,,,,,,,,,,,,,,,,,,,,,,,,,,,,,,,,,,,,,,,,,,,,,,,,,,,,,,,,,,,,,,,,,,,,,,,,
843464,001,2022-11-21_24h54.29.729,Info_measure_main_exp,2022.2.2,Win32,63.85696041,,,,,,,,,,,,,0,1,1,4,1,masks/mask_005.jpg,,,,,,,,,,,,,,,,,,,,,,,,,,,,,,,,,,,,,,,,,,,,,,,,,,,,,,,,,,,,,,,,,,,,,,,,,,,,,,,,,,,,,,,,,,,,,
843464,001,2022-11-21_24h54.29.729,Info_measure_main_exp,2022.2.2,Win32,63.85696041,,,,,,,,,,,,,0,2,2,1,1,masks/mask_002.jpg,,,,,,,,,,,,,,,,,,,,,,,,,,,,,,,,,,,,,,,,,,,,,,,,,,,,,,,,,,,,,,,,,,,,,,,,,,,,,,,,,,,,,,,,,,,,,
843464,001,2022-11-21_24h54.29.729,Info_measure_main_exp,2022.2.2,Win32,63.85696041,,,,,,,,,,,,,0,3,3,2,1,masks/mask_003.jpg,,,,,,,,,,,,,,,,,,,,,,,,,,,,,,,,,,,,,,,,,,,,,,,,,,,,,,,,,,,,,,,,,,,,,,,,,,,,,,,,,,,,,,,,,,,,,
843464,001,2022-11-21_24h54.29.729,Info_measure_main_exp,2022.2.2,Win32,63.85696041,,,,,,,,,,,,,0,4,4,3,1,masks/mask_004.jpg,,,,,,,,,,,,,,,,,,,,,,,,,,,,,,,,,,,,,,,,,,,,,,,,,,,,,,,,,,,,,,,,,,,,,,,,,,,,,,,,,,,,,,,,,,,,,
843464,001,2022-11-21_24h54.29.729,Info_measure_main_exp,2022.2.2,Win32,63.85696041,,,,,,,,,,,,,,,,,,masks/mask_002.jpg,0,0,0,1,1,,,,,,,,,,,,,,,,,,,,,,,,,,,,,,,,,,,,,,,,,,,,,,,,,,,,,,,,,,,,,,,,,,,,,,,,,,,,,,,,,,,,,,,,
843464,001,2022-11-21_24h54.29.729,Info_measure_main_exp,2022.2.2,Win32,63.85696041,,,,,,,,,,,,,,,,,,masks/mask_005.jpg,0,1,1,4,1,,,,,,,,,,,,,,,,,,,,,,,,,,,,,,,,,,,,,,,,,,,,,,,,,,,,,,,,,,,,,,,,,,,,,,,,,,,,,,,,,,,,,,,,
843464,001,2022-11-21_24h54.29.729,Info_measure_main_exp,2022.2.2,Win32,63.85696041,,,,,,,,,,,,,,,,,,masks/mask_004.jpg,0,2,2,3,1,,,,,,,,,,,,,,,,,,,,,,,,,,,,,,,,,,,,,,,,,,,,,,,,,,,,,,,,,,,,,,,,,,,,,,,,,,,,,,,,,,,,,,,,
843464,001,2022-11-21_24h54.29.729,Info_measure_main_exp,2022.2.2,Win32,63.85696041,,,,,,,,,,,,,,,,,,masks/mask_003.jpg,0,3,3,2,1,,,,,,,,,,,,,,,,,,,,,,,,,,,,,,,,,,,,,,,,,,,,,,,,,,,,,,,,,,,,,,,,,,,,,,,,,,,,,,,,,,,,,,,,
843464,001,2022-11-21_24h54.29.729,Info_measure_main_exp,2022.2.2,Win32,63.85696041,,,,,,,,,,,,,,,,,,masks/mask_001.jpg,0,4,4,0,1,,,,,,,,,,,,,,,,,,,,,,,,,,,,,,,,,,,,,,,,,,,,,,,,,,,,,,,,,,,,,,,,,,,,,,,,,,,,,,,,,,,,,,,,
843464,001,2022-11-21_24h54.29.729,Info_measure_main_exp,2022.2.2,Win32,63.85696041,,,,,,,,,,,,,,,,,,,,,,,,-0.059259259,0.159259259,1,0,0,response7disk,0,95.0361,1,0.002777778,0.000925926,1,0,0,center_square,0,2,2,2,1,0,131,5,5,2526,2526,prac_patch/patch0002526.jpg,prac_patch/patch0002526.jpg,,,,,,,,,,,,,,,,,,,,,,,,,,,,,,,,,,,,,,,,,,,,,,,,,,,,,,,,,,,,
843464,001,2022-11-21_24h54.29.729,Info_measure_main_exp,2022.2.2,Win32,63.85696041,,,,,,,,,,,,,,,,,,,,,,,,,,,,,,,,,,,,,,,,,,,,,,,,,,,,,,,,,,,space,2.4616,,,,,,,,,,,,,,,,,,,,,,,,,,,,,,,,,,,,,,,,,,,,,,,,,,,
843464,001,2022-11-21_24h54.29.729,Info_measure_main_exp,2022.2.2,Win32,63.85696041,,,,,,,,,,,,,,,,,,masks/mask_005.jpg,,,,,,,,,,,,,,,,,,,,,,,,,,,,,,,,,,,,,,,,,,,0,0,0,4,1,,,,,,,,,,,,,,,,,,,,,,,,,,,,,,,,,,,,,,,,,,,,,,
843464,001,2022-11-21_24h54.29.729,Info_measure_main_exp,2022.2.2,Win32,63.85696041,,,,,,,,,,,,,,,,,,masks/mask_001.jpg,,,,,,,,,,,,,,,,,,,,,,,,,,,,,,,,,,,,,,,,,,,0,1,1,0,1,,,,,,,,,,,,,,,,,,,,,,,,,,,,,,,,,,,,,,,,,,,,,,
843464,001,2022-11-21_24h54.29.729,Info_measure_main_exp,2022.2.2,Win32,63.85696041,,,,,,,,,,,,,,,,,,masks/mask_004.jpg,,,,,,,,,,,,,,,,,,,,,,,,,,,,,,,,,,,,,,,,,,,0,2,2,3,1,,,,,,,,,,,,,,,,,,,,,,,,,,,,,,,,,,,,,,,,,,,,,,
843464,001,2022-11-21_24h54.29.729,Info_measure_main_exp,2022.2.2,Win32,63.85696041,,,,,,,,,,,,,,,,,,masks/mask_002.jpg,,,,,,,,,,,,,,,,,,,,,,,,,,,,,,,,,,,,,,,,,,,0,3,3,1,1,,,,,,,,,,,,,,,,,,,,,,,,,,,,,,,,,,,,,,,,,,,,,,
843464,001,2022-11-21_24h54.29.729,Info_measure_main_exp,2022.2.2,Win32,63.85696041,,,,,,,,,,,,,,,,,,masks/mask_003.jpg,,,,,,,,,,,,,,,,,,,,,,,,,,,,,,,,,,,,,,,,,,,0,4,4,2,1,,,,,,,,,,,,,,,,,,,,,,,,,,,,,,,,,,,,,,,,,,,,,,
843464,001,2022-11-21_24h54.29.729,Info_measure_main_exp,2022.2.2,Win32,63.85696041,,,,,,,,,,,,,,,,,,masks/mask_004.jpg,,,,,,,,,,,,,,,,,,,,,,,,,,,,,,,,,,,,,,,,,,,,,,,,0,0,0,3,1,,,,,,,,,,,,,,,,,,,,,,,,,,,,,,,,,,,,,,,,,
843464,001,2022-11-21_24h54.29.729,Info_measure_main_exp,2022.2.2,Win32,63.85696041,,,,,,,,,,,,,,,,,,masks/mask_003.jpg,,,,,,,,,,,,,,,,,,,,,,,,,,,,,,,,,,,,,,,,,,,,,,,,0,1,1,2,1,,,,,,,,,,,,,,,,,,,,,,,,,,,,,,,,,,,,,,,,,
843464,001,2022-11-21_24h54.29.729,Info_measure_main_exp,2022.2.2,Win32,63.85696041,,,,,,,,,,,,,,,,,,masks/mask_001.jpg,,,,,,,,,,,,,,,,,,,,,,,,,,,,,,,,,,,,,,,,,,,,,,,,0,2,2,0,1,,,,,,,,,,,,,,,,,,,,,,,,,,,,,,,,,,,,,,,,,
843464,001,2022-11-21_24h54.29.729,Info_measure_main_exp,2022.2.2,Win32,63.85696041,,,,,,,,,,,,,,,,,,masks/mask_002.jpg,,,,,,,,,,,,,,,,,,,,,,,,,,,,,,,,,,,,,,,,,,,,,,,,0,3,3,1,1,,,,,,,,,,,,,,,,,,,,,,,,,,,,,,,,,,,,,,,,,
843464,001,2022-11-21_24h54.29.729,Info_measure_main_exp,2022.2.2,Win32,63.85696041,,,,,,,,,,,,,,,,,,masks/mask_005.jpg,,,,,,,,,,,,,,,,,,,,,,,,,,,,,,,,,,,,,,,,,,,,,,,,0,4,4,4,1,,,,,,,,,,,,,,,,,,,,,,,,,,,,,,,,,,,,,,,,,
843464,001,2022-11-21_24h54.29.729,Info_measure_main_exp,2022.2.2,Win32,63.85696041,,,,,,,,,,,,,,,,,,,,,,,,,,,,,,3,5.3376,1,,,,,,,,,,,,0,131,5,5,2178,2238,absent_patch/patch0002178.jpg,absent_patch/patch0002238.jpg,,,,,,,,,,,,,,,,,,,,-0.026851852,-0.100925926,1,0,0,response5disk,1,0.000925926,-0.002777778,1,0,0,center_square,0,0,0,57,1,,,,,,,,,,,,,,,,,,,,,,,
843464,001,2022-11-21_24h54.29.729,Info_measure_main_exp,2022.2.2,Win32,63.85696041,,,,,,,,,,,,,,,,,,masks/mask_001.jpg,,,,,,,,,,,,,,,,,,,,,,,,,,,,,,,,,,,,,,,,,,,0,0,0,0,1,,,,,,,,,,,,,,,,,,,,,,,,,,,,,,,,,,,,,,,,,,,,,,
843464,001,2022-11-21_24h54.29.729,Info_measure_main_exp,2022.2.2,Win32,63.85696041,,,,,,,,,,,,,,,,,,masks/mask_004.jpg,,,,,,,,,,,,,,,,,,,,,,,,,,,,,,,,,,,,,,,,,,,0,1,1,3,1,,,,,,,,,,,,,,,,,,,,,,,,,,,,,,,,,,,,,,,,,,,,,,
843464,001,2022-11-21_24h54.29.729,Info_measure_main_exp,2022.2.2,Win32,63.85696041,,,,,,,,,,,,,,,,,,masks/mask_003.jpg,,,,,,,,,,,,,,,,,,,,,,,,,,,,,,,,,,,,,,,,,,,0,2,2,2,1,,,,,,,,,,,,,,,,,,,,,,,,,,,,,,,,,,,,,,,,,,,,,,
843464,001,2022-11-21_24h54.29.729,Info_measure_main_exp,2022.2.2,Win32,63.85696041,,,,,,,,,,,,,,,,,,masks/mask_002.jpg,,,,,,,,,,,,,,,,,,,,,,,,,,,,,,,,,,,,,,,,,,,0,3,3,1,1,,,,,,,,,,,,,,,,,,,,,,,,,,,,,,,,,,,,,,,,,,,,,,
843464,001,2022-11-21_24h54.29.729,Info_measure_main_exp,2022.2.2,Win32,63.85696041,,,,,,,,,,,,,,,,,,masks/mask_005.jpg,,,,,,,,,,,,,,,,,,,,,,,,,,,,,,,,,,,,,,,,,,,0,4,4,4,1,,,,,,,,,,,,,,,,,,,,,,,,,,,,,,,,,,,,,,,,,,,,,,
843464,001,2022-11-21_24h54.29.729,Info_measure_main_exp,2022.2.2,Win32,63.85696041,,,,,,,,,,,,,,,,,,masks/mask_003.jpg,,,,,,,,,,,,,,,,,,,,,,,,,,,,,,,,,,,,,,,,,,,,,,,,0,0,0,2,1,,,,,,,,,,,,,,,,,,,,,,,,,,,,,,,,,,,,,,,,,
843464,001,2022-11-21_24h54.29.729,Info_measure_main_exp,2022.2.2,Win32,63.85696041,,,,,,,,,,,,,,,,,,masks/mask_005.jpg,,,,,,,,,,,,,,,,,,,,,,,,,,,,,,,,,,,,,,,,,,,,,,,,0,1,1,4,1,,,,,,,,,,,,,,,,,,,,,,,,,,,,,,,,,,,,,,,,,
843464,001,2022-11-21_24h54.29.729,Info_measure_main_exp,2022.2.2,Win32,63.85696041,,,,,,,,,,,,,,,,,,masks/mask_002.jpg,,,,,,,,,,,,,,,,,,,,,,,,,,,,,,,,,,,,,,,,,,,,,,,,0,2,2,1,1,,,,,,,,,,,,,,,,,,,,,,,,,,,,,,,,,,,,,,,,,
843464,001,2022-11-21_24h54.29.729,Info_measure_main_exp,2022.2.2,Win32,63.85696041,,,,,,,,,,,,,,,,,,masks/mask_001.jpg,,,,,,,,,,,,,,,,,,,,,,,,,,,,,,,,,,,,,,,,,,,,,,,,0,3,3,0,1,,,,,,,,,,,,,,,,,,,,,,,,,,,,,,,,,,,,,,,,,
843464,001,2022-11-21_24h54.29.729,Info_measure_main_exp,2022.2.2,Win32,63.85696041,,,,,,,,,,,,,,,,,,masks/mask_004.jpg,,,,,,,,,,,,,,,,,,,,,,,,,,,,,,,,,,,,,,,,,,,,,,,,0,4,4,3,1,,,,,,,,,,,,,,,,,,,,,,,,,,,,,,,,,,,,,,,,,
843464,001,2022-11-21_24h54.29.729,Info_measure_main_exp,2022.2.2,Win32,63.85696041,,,,,,,,,,,,,,,,,,,,,,,,,,,,,,5,2.5888,1,,,,,,,,,,,,0,131,5,5,2250,2298,absent_patch/patch0002250.jpg,absent_patch/patch0002298.jpg,,,,,,,,,,,,,,,,,,,,0.125,-0.074074074,1,0,0,response3disk,2,0.001851852,0,1,0,0,center_square,0,1,1,59,1,,,,,,,,,,,,,,,,,,,,,,,
843464,001,2022-11-21_24h54.29.729,Info_measure_main_exp,2022.2.2,Win32,63.85696041,,,,,,,,,,,,,,,,,,masks/mask_004.jpg,,,,,,,,,,,,,,,,,,,,,,,,,,,,,,,,,,,,,,,,,,,0,0,0,3,1,,,,,,,,,,,,,,,,,,,,,,,,,,,,,,,,,,,,,,,,,,,,,,
843464,001,2022-11-21_24h54.29.729,Info_measure_main_exp,2022.2.2,Win32,63.85696041,,,,,,,,,,,,,,,,,,masks/mask_003.jpg,,,,,,,,,,,,,,,,,,,,,,,,,,,,,,,,,,,,,,,,,,,0,1,1,2,1,,,,,,,,,,,,,,,,,,,,,,,,,,,,,,,,,,,,,,,,,,,,,,
843464,001,2022-11-21_24h54.29.729,Info_measure_main_exp,2022.2.2,Win32,63.85696041,,,,,,,,,,,,,,,,,,masks/mask_005.jpg,,,,,,,,,,,,,,,,,,,,,,,,,,,,,,,,,,,,,,,,,,,0,2,2,4,1,,,,,,,,,,,,,,,,,,,,,,,,,,,,,,,,,,,,,,,,,,,,,,
843464,001,2022-11-21_24h54.29.729,Info_measure_main_exp,2022.2.2,Win32,63.85696041,,,,,,,,,,,,,,,,,,masks/mask_001.jpg,,,,,,,,,,,,,,,,,,,,,,,,,,,,,,,,,,,,,,,,,,,0,3,3,0,1,,,,,,,,,,,,,,,,,,,,,,,,,,,,,,,,,,,,,,,,,,,,,,
843464,001,2022-11-21_24h54.29.729,Info_measure_main_exp,2022.2.2,Win32,63.85696041,,,,,,,,,,,,,,,,,,masks/mask_002.jpg,,,,,,,,,,,,,,,,,,,,,,,,,,,,,,,,,,,,,,,,,,,0,4,4,1,1,,,,,,,,,,,,,,,,,,,,,,,,,,,,,,,,,,,,,,,,,,,,,,
843464,001,2022-11-21_24h54.29.729,Info_measure_main_exp,2022.2.2,Win32,63.85696041,,,,,,,,,,,,,,,,,,masks/mask_003.jpg,,,,,,,,,,,,,,,,,,,,,,,,,,,,,,,,,,,,,,,,,,,,,,,,0,0,0,2,1,,,,,,,,,,,,,,,,,,,,,,,,,,,,,,,,,,,,,,,,,
843464,001,2022-11-21_24h54.29.729,Info_measure_main_exp,2022.2.2,Win32,63.85696041,,,,,,,,,,,,,,,,,,masks/mask_002.jpg,,,,,,,,,,,,,,,,,,,,,,,,,,,,,,,,,,,,,,,,,,,,,,,,0,1,1,1,1,,,,,,,,,,,,,,,,,,,,,,,,,,,,,,,,,,,,,,,,,
843464,001,2022-11-21_24h54.29.729,Info_measure_main_exp,2022.2.2,Win32,63.85696041,,,,,,,,,,,,,,,,,,masks/mask_005.jpg,,,,,,,,,,,,,,,,,,,,,,,,,,,,,,,,,,,,,,,,,,,,,,,,0,2,2,4,1,,,,,,,,,,,,,,,,,,,,,,,,,,,,,,,,,,,,,,,,,
843464,001,2022-11-21_24h54.29.729,Info_measure_main_exp,2022.2.2,Win32,63.85696041,,,,,,,,,,,,,,,,,,masks/mask_004.jpg,,,,,,,,,,,,,,,,,,,,,,,,,,,,,,,,,,,,,,,,,,,,,,,,0,3,3,3,1,,,,,,,,,,,,,,,,,,,,,,,,,,,,,,,,,,,,,,,,,
843464,001,2022-11-21_24h54.29.729,Info_measure_main_exp,2022.2.2,Win32,63.85696041,,,,,,,,,,,,,,,,,,masks/mask_001.jpg,,,,,,,,,,,,,,,,,,,,,,,,,,,,,,,,,,,,,,,,,,,,,,,,0,4,4,0,1,,,,,,,,,,,,,,,,,,,,,,,,,,,,,,,,,,,,,,,,,
843464,001,2022-11-21_24h54.29.729,Info_measure_main_exp,2022.2.2,Win32,63.85696041,,,,,,,,,,,,,,,,,,,,,,,,,,,,,,0,0.7377,1,,,,,,,,,,,,0,131,5,5,2238,2238,absent_patch/patch0002238.jpg,absent_patch/patch0002238.jpg,,,,,,,,,,,,,,,,,,,,-0.024074074,0.107407407,1,0,0,response7disk,3,0.000925926,0.002777778,1,0,0,center_square,0,2,2,58,1,,,,,,,,,,,,,,,,,,,,,,,
843464,001,2022-11-21_24h54.29.729,Info_measure_main_exp,2022.2.2,Win32,63.85696041,,,,,,,,,,,,,,,,,,masks/mask_005.jpg,,,,,,,,,,,,,,,,,,,,,,,,,,,,,,,,,,,,,,,,,,,0,0,0,4,1,,,,,,,,,,,,,,,,,,,,,,,,,,,,,,,,,,,,,,,,,,,,,,
843464,001,2022-11-21_24h54.29.729,Info_measure_main_exp,2022.2.2,Win32,63.85696041,,,,,,,,,,,,,,,,,,masks/mask_004.jpg,,,,,,,,,,,,,,,,,,,,,,,,,,,,,,,,,,,,,,,,,,,0,1,1,3,1,,,,,,,,,,,,,,,,,,,,,,,,,,,,,,,,,,,,,,,,,,,,,,
843464,001,2022-11-21_24h54.29.729,Info_measure_main_exp,2022.2.2,Win32,63.85696041,,,,,,,,,,,,,,,,,,masks/mask_002.jpg,,,,,,,,,,,,,,,,,,,,,,,,,,,,,,,,,,,,,,,,,,,0,2,2,1,1,,,,,,,,,,,,,,,,,,,,,,,,,,,,,,,,,,,,,,,,,,,,,,
843464,001,2022-11-21_24h54.29.729,Info_measure_main_exp,2022.2.2,Win32,63.85696041,,,,,,,,,,,,,,,,,,masks/mask_003.jpg,,,,,,,,,,,,,,,,,,,,,,,,,,,,,,,,,,,,,,,,,,,0,3,3,2,1,,,,,,,,,,,,,,,,,,,,,,,,,,,,,,,,,,,,,,,,,,,,,,
843464,001,2022-11-21_24h54.29.729,Info_measure_main_exp,2022.2.2,Win32,63.85696041,,,,,,,,,,,,,,,,,,masks/mask_001.jpg,,,,,,,,,,,,,,,,,,,,,,,,,,,,,,,,,,,,,,,,,,,0,4,4,0,1,,,,,,,,,,,,,,,,,,,,,,,,,,,,,,,,,,,,,,,,,,,,,,
843464,001,2022-11-21_24h54.29.729,Info_measure_main_exp,2022.2.2,Win32,63.85696041,,,,,,,,,,,,,,,,,,masks/mask_004.jpg,,,,,,,,,,,,,,,,,,,,,,,,,,,,,,,,,,,,,,,,,,,,,,,,0,0,0,3,1,,,,,,,,,,,,,,,,,,,,,,,,,,,,,,,,,,,,,,,,,
843464,001,2022-11-21_24h54.29.729,Info_measure_main_exp,2022.2.2,Win32,63.85696041,,,,,,,,,,,,,,,,,,masks/mask_003.jpg,,,,,,,,,,,,,,,,,,,,,,,,,,,,,,,,,,,,,,,,,,,,,,,,0,1,1,2,1,,,,,,,,,,,,,,,,,,,,,,,,,,,,,,,,,,,,,,,,,
843464,001,2022-11-21_24h54.29.729,Info_measure_main_exp,2022.2.2,Win32,63.85696041,,,,,,,,,,,,,,,,,,masks/mask_005.jpg,,,,,,,,,,,,,,,,,,,,,,,,,,,,,,,,,,,,,,,,,,,,,,,,0,2,2,4,1,,,,,,,,,,,,,,,,,,,,,,,,,,,,,,,,,,,,,,,,,
843464,001,2022-11-21_24h54.29.729,Info_measure_main_exp,2022.2.2,Win32,63.85696041,,,,,,,,,,,,,,,,,,masks/mask_001.jpg,,,,,,,,,,,,,,,,,,,,,,,,,,,,,,,,,,,,,,,,,,,,,,,,0,3,3,0,1,,,,,,,,,,,,,,,,,,,,,,,,,,,,,,,,,,,,,,,,,
843464,001,2022-11-21_24h54.29.729,Info_measure_main_exp,2022.2.2,Win32,63.85696041,,,,,,,,,,,,,,,,,,masks/mask_002.jpg,,,,,,,,,,,,,,,,,,,,,,,,,,,,,,,,,,,,,,,,,,,,,,,,0,4,4,1,1,,,,,,,,,,,,,,,,,,,,,,,,,,,,,,,,,,,,,,,,,
843464,001,2022-11-21_24h54.29.729,Info_measure_main_exp,2022.2.2,Win32,63.85696041,,,,,,,,,,,,,,,,,,,,,,,,,,,,,,3,3.4679,1,,,,,,,,,,,,0,131,5,5,2214,2142,absent_patch/patch0002214.jpg,absent_patch/patch0002142.jpg,,,,,,,,,,,,,,,,,,,,-0.011111111,-0.088888889,1,0,0,response5disk,4,0.002777778,-0.008333333,1,0,0,center_square,0,3,3,102,1,,,,,,,,,,,,,,,,,,,,,,,
843464,001,2022-11-21_24h54.29.729,Info_measure_main_exp,2022.2.2,Win32,63.85696041,,,,,,,,,,,,,,,,,,masks/mask_003.jpg,,,,,,,,,,,,,,,,,,,,,,,,,,,,,,,,,,,,,,,,,,,0,0,0,2,1,,,,,,,,,,,,,,,,,,,,,,,,,,,,,,,,,,,,,,,,,,,,,,
843464,001,2022-11-21_24h54.29.729,Info_measure_main_exp,2022.2.2,Win32,63.85696041,,,,,,,,,,,,,,,,,,masks/mask_001.jpg,,,,,,,,,,,,,,,,,,,,,,,,,,,,,,,,,,,,,,,,,,,0,1,1,0,1,,,,,,,,,,,,,,,,,,,,,,,,,,,,,,,,,,,,,,,,,,,,,,
843464,001,2022-11-21_24h54.29.729,Info_measure_main_exp,2022.2.2,Win32,63.85696041,,,,,,,,,,,,,,,,,,masks/mask_005.jpg,,,,,,,,,,,,,,,,,,,,,,,,,,,,,,,,,,,,,,,,,,,0,2,2,4,1,,,,,,,,,,,,,,,,,,,,,,,,,,,,,,,,,,,,,,,,,,,,,,
843464,001,2022-11-21_24h54.29.729,Info_measure_main_exp,2022.2.2,Win32,63.85696041,,,,,,,,,,,,,,,,,,masks/mask_002.jpg,,,,,,,,,,,,,,,,,,,,,,,,,,,,,,,,,,,,,,,,,,,0,3,3,1,1,,,,,,,,,,,,,,,,,,,,,,,,,,,,,,,,,,,,,,,,,,,,,,
843464,001,2022-11-21_24h54.29.729,Info_measure_main_exp,2022.2.2,Win32,63.85696041,,,,,,,,,,,,,,,,,,masks/mask_004.jpg,,,,,,,,,,,,,,,,,,,,,,,,,,,,,,,,,,,,,,,,,,,0,4,4,3,1,,,,,,,,,,,,,,,,,,,,,,,,,,,,,,,,,,,,,,,,,,,,,,
843464,001,2022-11-21_24h54.29.729,Info_measure_main_exp,2022.2.2,Win32,63.85696041,,,,,,,,,,,,,,,,,,masks/mask_004.jpg,,,,,,,,,,,,,,,,,,,,,,,,,,,,,,,,,,,,,,,,,,,,,,,,0,0,0,3,1,,,,,,,,,,,,,,,,,,,,,,,,,,,,,,,,,,,,,,,,,
843464,001,2022-11-21_24h54.29.729,Info_measure_main_exp,2022.2.2,Win32,63.85696041,,,,,,,,,,,,,,,,,,masks/mask_001.jpg,,,,,,,,,,,,,,,,,,,,,,,,,,,,,,,,,,,,,,,,,,,,,,,,0,1,1,0,1,,,,,,,,,,,,,,,,,,,,,,,,,,,,,,,,,,,,,,,,,
843464,001,2022-11-21_24h54.29.729,Info_measure_main_exp,2022.2.2,Win32,63.85696041,,,,,,,,,,,,,,,,,,masks/mask_005.jpg,,,,,,,,,,,,,,,,,,,,,,,,,,,,,,,,,,,,,,,,,,,,,,,,0,2,2,4,1,,,,,,,,,,,,,,,,,,,,,,,,,,,,,,,,,,,,,,,,,
843464,001,2022-11-21_24h54.29.729,Info_measure_main_exp,2022.2.2,Win32,63.85696041,,,,,,,,,,,,,,,,,,masks/mask_003.jpg,,,,,,,,,,,,,,,,,,,,,,,,,,,,,,,,,,,,,,,,,,,,,,,,0,3,3,2,1,,,,,,,,,,,,,,,,,,,,,,,,,,,,,,,,,,,,,,,,,
843464,001,2022-11-21_24h54.29.729,Info_measure_main_exp,2022.2.2,Win32,63.85696041,,,,,,,,,,,,,,,,,,masks/mask_002.jpg,,,,,,,,,,,,,,,,,,,,,,,,,,,,,,,,,,,,,,,,,,,,,,,,0,4,4,1,1,,,,,,,,,,,,,,,,,,,,,,,,,,,,,,,,,,,,,,,,,
843464,001,2022-11-21_24h54.29.729,Info_measure_main_exp,2022.2.2,Win32,63.85696041,,,,,,,,,,,,,,,,,,,,,,,,,,,,,,2,3.3056,1,,,,,,,,,,,,0,131,5,5,2214,2082,absent_patch/patch0002214.jpg,absent_patch/patch0002082.jpg,,,,,,,,,,,,,,,,,,,,-0.12962963,-0.081481481,1,0,0,response5disk,5,0.001851852,-0.002777778,1,0,0,center_square,0,4,4,103,1,,,,,,,,,,,,,,,,,,,,,,,
843464,001,2022-11-21_24h54.29.729,Info_measure_main_exp,2022.2.2,Win32,63.85696041,,,,,,,,,,,,,,,,,,masks/mask_002.jpg,,,,,,,,,,,,,,,,,,,,,,,,,,,,,,,,,,,,,,,,,,,0,0,0,1,1,,,,,,,,,,,,,,,,,,,,,,,,,,,,,,,,,,,,,,,,,,,,,,
843464,001,2022-11-21_24h54.29.729,Info_measure_main_exp,2022.2.2,Win32,63.85696041,,,,,,,,,,,,,,,,,,masks/mask_004.jpg,,,,,,,,,,,,,,,,,,,,,,,,,,,,,,,,,,,,,,,,,,,0,1,1,3,1,,,,,,,,,,,,,,,,,,,,,,,,,,,,,,,,,,,,,,,,,,,,,,
843464,001,2022-11-21_24h54.29.729,Info_measure_main_exp,2022.2.2,Win32,63.85696041,,,,,,,,,,,,,,,,,,masks/mask_001.jpg,,,,,,,,,,,,,,,,,,,,,,,,,,,,,,,,,,,,,,,,,,,0,2,2,0,1,,,,,,,,,,,,,,,,,,,,,,,,,,,,,,,,,,,,,,,,,,,,,,
843464,001,2022-11-21_24h54.29.729,Info_measure_main_exp,2022.2.2,Win32,63.85696041,,,,,,,,,,,,,,,,,,masks/mask_005.jpg,,,,,,,,,,,,,,,,,,,,,,,,,,,,,,,,,,,,,,,,,,,0,3,3,4,1,,,,,,,,,,,,,,,,,,,,,,,,,,,,,,,,,,,,,,,,,,,,,,
843464,001,2022-11-21_24h54.29.729,Info_measure_main_exp,2022.2.2,Win32,63.85696041,,,,,,,,,,,,,,,,,,masks/mask_003.jpg,,,,,,,,,,,,,,,,,,,,,,,,,,,,,,,,,,,,,,,,,,,0,4,4,2,1,,,,,,,,,,,,,,,,,,,,,,,,,,,,,,,,,,,,,,,,,,,,,,
843464,001,2022-11-21_24h54.29.729,Info_measure_main_exp,2022.2.2,Win32,63.85696041,,,,,,,,,,,,,,,,,,masks/mask_005.jpg,,,,,,,,,,,,,,,,,,,,,,,,,,,,,,,,,,,,,,,,,,,,,,,,0,0,0,4,1,,,,,,,,,,,,,,,,,,,,,,,,,,,,,,,,,,,,,,,,,
843464,001,2022-11-21_24h54.29.729,Info_measure_main_exp,2022.2.2,Win32,63.85696041,,,,,,,,,,,,,,,,,,masks/mask_003.jpg,,,,,,,,,,,,,,,,,,,,,,,,,,,,,,,,,,,,,,,,,,,,,,,,0,1,1,2,1,,,,,,,,,,,,,,,,,,,,,,,,,,,,,,,,,,,,,,,,,
843464,001,2022-11-21_24h54.29.729,Info_measure_main_exp,2022.2.2,Win32,63.85696041,,,,,,,,,,,,,,,,,,masks/mask_004.jpg,,,,,,,,,,,,,,,,,,,,,,,,,,,,,,,,,,,,,,,,,,,,,,,,0,2,2,3,1,,,,,,,,,,,,,,,,,,,,,,,,,,,,,,,,,,,,,,,,,
843464,001,2022-11-21_24h54.29.729,Info_measure_main_exp,2022.2.2,Win32,63.85696041,,,,,,,,,,,,,,,,,,masks/mask_001.jpg,,,,,,,,,,,,,,,,,,,,,,,,,,,,,,,,,,,,,,,,,,,,,,,,0,3,3,0,1,,,,,,,,,,,,,,,,,,,,,,,,,,,,,,,,,,,,,,,,,
843464,001,2022-11-21_24h54.29.729,Info_measure_main_exp,2022.2.2,Win32,63.85696041,,,,,,,,,,,,,,,,,,masks/mask_002.jpg,,,,,,,,,,,,,,,,,,,,,,,,,,,,,,,,,,,,,,,,,,,,,,,,0,4,4,1,1,,,,,,,,,,,,,,,,,,,,,,,,,,,,,,,,,,,,,,,,,
843464,001,2022-11-21_24h54.29.729,Info_measure_main_exp,2022.2.2,Win32,63.85696041,,,,,,,,,,,,,,,,,,,,,,,,,,,,,,5,3.2454,1,,,,,,,,,,,,0,131,5,5,2298,2274,absent_patch/patch0002298.jpg,absent_patch/patch0002274.jpg,,,,,,,,,,,,,,,,,,,,0.131481481,-0.10462963,1,0,0,response3disk,6,0.001851852,-0.005555556,1,0,0,center_square,0,5,5,1,1,,,,,,,,,,,,,,,,,,,,,,,
843464,001,2022-11-21_24h54.29.729,Info_measure_main_exp,2022.2.2,Win32,63.85696041,,,,,,,,,,,,,,,,,,masks/mask_003.jpg,,,,,,,,,,,,,,,,,,,,,,,,,,,,,,,,,,,,,,,,,,,0,0,0,2,1,,,,,,,,,,,,,,,,,,,,,,,,,,,,,,,,,,,,,,,,,,,,,,
843464,001,2022-11-21_24h54.29.729,Info_measure_main_exp,2022.2.2,Win32,63.85696041,,,,,,,,,,,,,,,,,,masks/mask_001.jpg,,,,,,,,,,,,,,,,,,,,,,,,,,,,,,,,,,,,,,,,,,,0,1,1,0,1,,,,,,,,,,,,,,,,,,,,,,,,,,,,,,,,,,,,,,,,,,,,,,
843464,001,2022-11-21_24h54.29.729,Info_measure_main_exp,2022.2.2,Win32,63.85696041,,,,,,,,,,,,,,,,,,masks/mask_002.jpg,,,,,,,,,,,,,,,,,,,,,,,,,,,,,,,,,,,,,,,,,,,0,2,2,1,1,,,,,,,,,,,,,,,,,,,,,,,,,,,,,,,,,,,,,,,,,,,,,,
843464,001,2022-11-21_24h54.29.729,Info_measure_main_exp,2022.2.2,Win32,63.85696041,,,,,,,,,,,,,,,,,,masks/mask_004.jpg,,,,,,,,,,,,,,,,,,,,,,,,,,,,,,,,,,,,,,,,,,,0,3,3,3,1,,,,,,,,,,,,,,,,,,,,,,,,,,,,,,,,,,,,,,,,,,,,,,
843464,001,2022-11-21_24h54.29.729,Info_measure_main_exp,2022.2.2,Win32,63.85696041,,,,,,,,,,,,,,,,,,masks/mask_005.jpg,,,,,,,,,,,,,,,,,,,,,,,,,,,,,,,,,,,,,,,,,,,0,4,4,4,1,,,,,,,,,,,,,,,,,,,,,,,,,,,,,,,,,,,,,,,,,,,,,,
843464,001,2022-11-21_24h54.29.729,Info_measure_main_exp,2022.2.2,Win32,63.85696041,,,,,,,,,,,,,,,,,,masks/mask_003.jpg,,,,,,,,,,,,,,,,,,,,,,,,,,,,,,,,,,,,,,,,,,,,,,,,0,0,0,2,1,,,,,,,,,,,,,,,,,,,,,,,,,,,,,,,,,,,,,,,,,
843464,001,2022-11-21_24h54.29.729,Info_measure_main_exp,2022.2.2,Win32,63.85696041,,,,,,,,,,,,,,,,,,masks/mask_004.jpg,,,,,,,,,,,,,,,,,,,,,,,,,,,,,,,,,,,,,,,,,,,,,,,,0,1,1,3,1,,,,,,,,,,,,,,,,,,,,,,,,,,,,,,,,,,,,,,,,,
843464,001,2022-11-21_24h54.29.729,Info_measure_main_exp,2022.2.2,Win32,63.85696041,,,,,,,,,,,,,,,,,,masks/mask_005.jpg,,,,,,,,,,,,,,,,,,,,,,,,,,,,,,,,,,,,,,,,,,,,,,,,0,2,2,4,1,,,,,,,,,,,,,,,,,,,,,,,,,,,,,,,,,,,,,,,,,
843464,001,2022-11-21_24h54.29.729,Info_measure_main_exp,2022.2.2,Win32,63.85696041,,,,,,,,,,,,,,,,,,masks/mask_001.jpg,,,,,,,,,,,,,,,,,,,,,,,,,,,,,,,,,,,,,,,,,,,,,,,,0,3,3,0,1,,,,,,,,,,,,,,,,,,,,,,,,,,,,,,,,,,,,,,,,,
843464,001,2022-11-21_24h54.29.729,Info_measure_main_exp,2022.2.2,Win32,63.85696041,,,,,,,,,,,,,,,,,,masks/mask_002.jpg,,,,,,,,,,,,,,,,,,,,,,,,,,,,,,,,,,,,,,,,,,,,,,,,0,4,4,1,1,,,,,,,,,,,,,,,,,,,,,,,,,,,,,,,,,,,,,,,,,
843464,001,2022-11-21_24h54.29.729,Info_measure_main_exp,2022.2.2,Win32,63.85696041,,,,,,,,,,,,,,,,,,,,,,,,,,,,,,3,1.4737,1,,,,,,,,,,,,0,131,5,5,2082,1974,absent_patch/patch0002082.jpg,absent_patch/patch0001974.jpg,,,,,,,,,,,,,,,,,,,,-0.014814815,-0.069444444,1,0,0,response5disk,7,-0.00462963,0,1,0,0,center_square,0,6,6,26,1,,,,,,,,,,,,,,,,,,,,,,,
843464,001,2022-11-21_24h54.29.729,Info_measure_main_exp,2022.2.2,Win32,63.85696041,,,,,,,,,,,,,,,,,,masks/mask_001.jpg,,,,,,,,,,,,,,,,,,,,,,,,,,,,,,,,,,,,,,,,,,,0,0,0,0,1,,,,,,,,,,,,,,,,,,,,,,,,,,,,,,,,,,,,,,,,,,,,,,
843464,001,2022-11-21_24h54.29.729,Info_measure_main_exp,2022.2.2,Win32,63.85696041,,,,,,,,,,,,,,,,,,masks/mask_003.jpg,,,,,,,,,,,,,,,,,,,,,,,,,,,,,,,,,,,,,,,,,,,0,1,1,2,1,,,,,,,,,,,,,,,,,,,,,,,,,,,,,,,,,,,,,,,,,,,,,,
843464,001,2022-11-21_24h54.29.729,Info_measure_main_exp,2022.2.2,Win32,63.85696041,,,,,,,,,,,,,,,,,,masks/mask_004.jpg,,,,,,,,,,,,,,,,,,,,,,,,,,,,,,,,,,,,,,,,,,,0,2,2,3,1,,,,,,,,,,,,,,,,,,,,,,,,,,,,,,,,,,,,,,,,,,,,,,
843464,001,2022-11-21_24h54.29.729,Info_measure_main_exp,2022.2.2,Win32,63.85696041,,,,,,,,,,,,,,,,,,masks/mask_002.jpg,,,,,,,,,,,,,,,,,,,,,,,,,,,,,,,,,,,,,,,,,,,0,3,3,1,1,,,,,,,,,,,,,,,,,,,,,,,,,,,,,,,,,,,,,,,,,,,,,,
843464,001,2022-11-21_24h54.29.729,Info_measure_main_exp,2022.2.2,Win32,63.85696041,,,,,,,,,,,,,,,,,,masks/mask_005.jpg,,,,,,,,,,,,,,,,,,,,,,,,,,,,,,,,,,,,,,,,,,,0,4,4,4,1,,,,,,,,,,,,,,,,,,,,,,,,,,,,,,,,,,,,,,,,,,,,,,
843464,001,2022-11-21_24h54.29.729,Info_measure_main_exp,2022.2.2,Win32,63.85696041,,,,,,,,,,,,,,,,,,masks/mask_002.jpg,,,,,,,,,,,,,,,,,,,,,,,,,,,,,,,,,,,,,,,,,,,,,,,,0,0,0,1,1,,,,,,,,,,,,,,,,,,,,,,,,,,,,,,,,,,,,,,,,,
843464,001,2022-11-21_24h54.29.729,Info_measure_main_exp,2022.2.2,Win32,63.85696041,,,,,,,,,,,,,,,,,,masks/mask_005.jpg,,,,,,,,,,,,,,,,,,,,,,,,,,,,,,,,,,,,,,,,,,,,,,,,0,1,1,4,1,,,,,,,,,,,,,,,,,,,,,,,,,,,,,,,,,,,,,,,,,
843464,001,2022-11-21_24h54.29.729,Info_measure_main_exp,2022.2.2,Win32,63.85696041,,,,,,,,,,,,,,,,,,masks/mask_004.jpg,,,,,,,,,,,,,,,,,,,,,,,,,,,,,,,,,,,,,,,,,,,,,,,,0,2,2,3,1,,,,,,,,,,,,,,,,,,,,,,,,,,,,,,,,,,,,,,,,,
843464,001,2022-11-21_24h54.29.729,Info_measure_main_exp,2022.2.2,Win32,63.85696041,,,,,,,,,,,,,,,,,,masks/mask_001.jpg,,,,,,,,,,,,,,,,,,,,,,,,,,,,,,,,,,,,,,,,,,,,,,,,0,3,3,0,1,,,,,,,,,,,,,,,,,,,,,,,,,,,,,,,,,,,,,,,,,
843464,001,2022-11-21_24h54.29.729,Info_measure_main_exp,2022.2.2,Win32,63.85696041,,,,,,,,,,,,,,,,,,masks/mask_003.jpg,,,,,,,,,,,,,,,,,,,,,,,,,,,,,,,,,,,,,,,,,,,,,,,,0,4,4,2,1,,,,,,,,,,,,,,,,,,,,,,,,,,,,,,,,,,,,,,,,,
843464,001,2022-11-21_24h54.29.729,Info_measure_main_exp,2022.2.2,Win32,63.85696041,,,,,,,,,,,,,,,,,,,,,,,,,,,,,,4,1.3177,1,,,,,,,,,,,,0,131,5,5,2250,2238,absent_patch/patch0002250.jpg,absent_patch/patch0002238.jpg,,,,,,,,,,,,,,,,,,,,0.035185185,-0.087962963,1,0,0,response3disk,8,0.003703704,-0.006481481,1,0,0,center_square,0,7,7,110,1,,,,,,,,,,,,,,,,,,,,,,,
843464,001,2022-11-21_24h54.29.729,Info_measure_main_exp,2022.2.2,Win32,63.85696041,,,,,,,,,,,,,,,,,,masks/mask_004.jpg,,,,,,,,,,,,,,,,,,,,,,,,,,,,,,,,,,,,,,,,,,,0,0,0,3,1,,,,,,,,,,,,,,,,,,,,,,,,,,,,,,,,,,,,,,,,,,,,,,
843464,001,2022-11-21_24h54.29.729,Info_measure_main_exp,2022.2.2,Win32,63.85696041,,,,,,,,,,,,,,,,,,masks/mask_005.jpg,,,,,,,,,,,,,,,,,,,,,,,,,,,,,,,,,,,,,,,,,,,0,1,1,4,1,,,,,,,,,,,,,,,,,,,,,,,,,,,,,,,,,,,,,,,,,,,,,,
843464,001,2022-11-21_24h54.29.729,Info_measure_main_exp,2022.2.2,Win32,63.85696041,,,,,,,,,,,,,,,,,,masks/mask_003.jpg,,,,,,,,,,,,,,,,,,,,,,,,,,,,,,,,,,,,,,,,,,,0,2,2,2,1,,,,,,,,,,,,,,,,,,,,,,,,,,,,,,,,,,,,,,,,,,,,,,
843464,001,2022-11-21_24h54.29.729,Info_measure_main_exp,2022.2.2,Win32,63.85696041,,,,,,,,,,,,,,,,,,masks/mask_002.jpg,,,,,,,,,,,,,,,,,,,,,,,,,,,,,,,,,,,,,,,,,,,0,3,3,1,1,,,,,,,,,,,,,,,,,,,,,,,,,,,,,,,,,,,,,,,,,,,,,,
843464,001,2022-11-21_24h54.29.729,Info_measure_main_exp,2022.2.2,Win32,63.85696041,,,,,,,,,,,,,,,,,,masks/mask_001.jpg,,,,,,,,,,,,,,,,,,,,,,,,,,,,,,,,,,,,,,,,,,,0,4,4,0,1,,,,,,,,,,,,,,,,,,,,,,,,,,,,,,,,,,,,,,,,,,,,,,
843464,001,2022-11-21_24h54.29.729,Info_measure_main_exp,2022.2.2,Win32,63.85696041,,,,,,,,,,,,,,,,,,masks/mask_004.jpg,,,,,,,,,,,,,,,,,,,,,,,,,,,,,,,,,,,,,,,,,,,,,,,,0,0,0,3,1,,,,,,,,,,,,,,,,,,,,,,,,,,,,,,,,,,,,,,,,,
843464,001,2022-11-21_24h54.29.729,Info_measure_main_exp,2022.2.2,Win32,63.85696041,,,,,,,,,,,,,,,,,,masks/mask_005.jpg,,,,,,,,,,,,,,,,,,,,,,,,,,,,,,,,,,,,,,,,,,,,,,,,0,1,1,4,1,,,,,,,,,,,,,,,,,,,,,,,,,,,,,,,,,,,,,,,,,
843464,001,2022-11-21_24h54.29.729,Info_measure_main_exp,2022.2.2,Win32,63.85696041,,,,,,,,,,,,,,,,,,masks/mask_003.jpg,,,,,,,,,,,,,,,,,,,,,,,,,,,,,,,,,,,,,,,,,,,,,,,,0,2,2,2,1,,,,,,,,,,,,,,,,,,,,,,,,,,,,,,,,,,,,,,,,,
843464,001,2022-11-21_24h54.29.729,Info_measure_main_exp,2022.2.2,Win32,63.85696041,,,,,,,,,,,,,,,,,,masks/mask_002.jpg,,,,,,,,,,,,,,,,,,,,,,,,,,,,,,,,,,,,,,,,,,,,,,,,0,3,3,1,1,,,,,,,,,,,,,,,,,,,,,,,,,,,,,,,,,,,,,,,,,
843464,001,2022-11-21_24h54.29.729,Info_measure_main_exp,2022.2.2,Win32,63.85696041,,,,,,,,,,,,,,,,,,masks/mask_001.jpg,,,,,,,,,,,,,,,,,,,,,,,,,,,,,,,,,,,,,,,,,,,,,,,,0,4,4,0,1,,,,,,,,,,,,,,,,,,,,,,,,,,,,,,,,,,,,,,,,,
843464,001,2022-11-21_24h54.29.729,Info_measure_main_exp,2022.2.2,Win32,63.85696041,,,,,,,,,,,,,,,,,,,,,,,,,,,,,,5,1.266,1,,,,,,,,,,,,0,131,5,5,2190,1974,absent_patch/patch0002190.jpg,absent_patch/patch0001974.jpg,,,,,,,,,,,,,,,,,,,,0.115740741,-0.055555556,1,0,0,response3disk,9,-0.012962963,-0.002777778,1,0,0,center_square,0,8,8,119,1,,,,,,,,,,,,,,,,,,,,,,,
843464,001,2022-11-21_24h54.29.729,Info_measure_main_exp,2022.2.2,Win32,63.85696041,,,,,,,,,,,,,,,,,,masks/mask_005.jpg,,,,,,,,,,,,,,,,,,,,,,,,,,,,,,,,,,,,,,,,,,,0,0,0,4,1,,,,,,,,,,,,,,,,,,,,,,,,,,,,,,,,,,,,,,,,,,,,,,
843464,001,2022-11-21_24h54.29.729,Info_measure_main_exp,2022.2.2,Win32,63.85696041,,,,,,,,,,,,,,,,,,masks/mask_003.jpg,,,,,,,,,,,,,,,,,,,,,,,,,,,,,,,,,,,,,,,,,,,0,1,1,2,1,,,,,,,,,,,,,,,,,,,,,,,,,,,,,,,,,,,,,,,,,,,,,,
843464,001,2022-11-21_24h54.29.729,Info_measure_main_exp,2022.2.2,Win32,63.85696041,,,,,,,,,,,,,,,,,,masks/mask_002.jpg,,,,,,,,,,,,,,,,,,,,,,,,,,,,,,,,,,,,,,,,,,,0,2,2,1,1,,,,,,,,,,,,,,,,,,,,,,,,,,,,,,,,,,,,,,,,,,,,,,
843464,001,2022-11-21_24h54.29.729,Info_measure_main_exp,2022.2.2,Win32,63.85696041,,,,,,,,,,,,,,,,,,masks/mask_004.jpg,,,,,,,,,,,,,,,,,,,,,,,,,,,,,,,,,,,,,,,,,,,0,3,3,3,1,,,,,,,,,,,,,,,,,,,,,,,,,,,,,,,,,,,,,,,,,,,,,,
843464,001,2022-11-21_24h54.29.729,Info_measure_main_exp,2022.2.2,Win32,63.85696041,,,,,,,,,,,,,,,,,,masks/mask_001.jpg,,,,,,,,,,,,,,,,,,,,,,,,,,,,,,,,,,,,,,,,,,,0,4,4,0,1,,,,,,,,,,,,,,,,,,,,,,,,,,,,,,,,,,,,,,,,,,,,,,
843464,001,2022-11-21_24h54.29.729,Info_measure_main_exp,2022.2.2,Win32,63.85696041,,,,,,,,,,,,,,,,,,masks/mask_003.jpg,,,,,,,,,,,,,,,,,,,,,,,,,,,,,,,,,,,,,,,,,,,,,,,,0,0,0,2,1,,,,,,,,,,,,,,,,,,,,,,,,,,,,,,,,,,,,,,,,,
843464,001,2022-11-21_24h54.29.729,Info_measure_main_exp,2022.2.2,Win32,63.85696041,,,,,,,,,,,,,,,,,,masks/mask_004.jpg,,,,,,,,,,,,,,,,,,,,,,,,,,,,,,,,,,,,,,,,,,,,,,,,0,1,1,3,1,,,,,,,,,,,,,,,,,,,,,,,,,,,,,,,,,,,,,,,,,
843464,001,2022-11-21_24h54.29.729,Info_measure_main_exp,2022.2.2,Win32,63.85696041,,,,,,,,,,,,,,,,,,masks/mask_002.jpg,,,,,,,,,,,,,,,,,,,,,,,,,,,,,,,,,,,,,,,,,,,,,,,,0,2,2,1,1,,,,,,,,,,,,,,,,,,,,,,,,,,,,,,,,,,,,,,,,,
843464,001,2022-11-21_24h54.29.729,Info_measure_main_exp,2022.2.2,Win32,63.85696041,,,,,,,,,,,,,,,,,,masks/mask_001.jpg,,,,,,,,,,,,,,,,,,,,,,,,,,,,,,,,,,,,,,,,,,,,,,,,0,3,3,0,1,,,,,,,,,,,,,,,,,,,,,,,,,,,,,,,,,,,,,,,,,
843464,001,2022-11-21_24h54.29.729,Info_measure_main_exp,2022.2.2,Win32,63.85696041,,,,,,,,,,,,,,,,,,masks/mask_005.jpg,,,,,,,,,,,,,,,,,,,,,,,,,,,,,,,,,,,,,,,,,,,,,,,,0,4,4,4,1,,,,,,,,,,,,,,,,,,,,,,,,,,,,,,,,,,,,,,,,,
843464,001,2022-11-21_24h54.29.729,Info_measure_main_exp,2022.2.2,Win32,63.85696041,,,,,,,,,,,,,,,,,,,,,,,,,,,,,,5,1.6609,1,,,,,,,,,,,,0,131,5,5,2178,2166,absent_patch/patch0002178.jpg,absent_patch/patch0002166.jpg,,,,,,,,,,,,,,,,,,,,0.119444444,-0.051851852,1,0,0,response3disk,10,0,-0.005555556,1,0,0,center_square,0,9,9,72,1,,,,,,,,,,,,,,,,,,,,,,,
843464,001,2022-11-21_24h54.29.729,Info_measure_main_exp,2022.2.2,Win32,63.85696041,,,,,,,,,,,,,,,,,,masks/mask_003.jpg,,,,,,,,,,,,,,,,,,,,,,,,,,,,,,,,,,,,,,,,,,,0,0,0,2,1,,,,,,,,,,,,,,,,,,,,,,,,,,,,,,,,,,,,,,,,,,,,,,
843464,001,2022-11-21_24h54.29.729,Info_measure_main_exp,2022.2.2,Win32,63.85696041,,,,,,,,,,,,,,,,,,masks/mask_005.jpg,,,,,,,,,,,,,,,,,,,,,,,,,,,,,,,,,,,,,,,,,,,0,1,1,4,1,,,,,,,,,,,,,,,,,,,,,,,,,,,,,,,,,,,,,,,,,,,,,,
843464,001,2022-11-21_24h54.29.729,Info_measure_main_exp,2022.2.2,Win32,63.85696041,,,,,,,,,,,,,,,,,,masks/mask_002.jpg,,,,,,,,,,,,,,,,,,,,,,,,,,,,,,,,,,,,,,,,,,,0,2,2,1,1,,,,,,,,,,,,,,,,,,,,,,,,,,,,,,,,,,,,,,,,,,,,,,
843464,001,2022-11-21_24h54.29.729,Info_measure_main_exp,2022.2.2,Win32,63.85696041,,,,,,,,,,,,,,,,,,masks/mask_004.jpg,,,,,,,,,,,,,,,,,,,,,,,,,,,,,,,,,,,,,,,,,,,0,3,3,3,1,,,,,,,,,,,,,,,,,,,,,,,,,,,,,,,,,,,,,,,,,,,,,,
843464,001,2022-11-21_24h54.29.729,Info_measure_main_exp,2022.2.2,Win32,63.85696041,,,,,,,,,,,,,,,,,,masks/mask_001.jpg,,,,,,,,,,,,,,,,,,,,,,,,,,,,,,,,,,,,,,,,,,,0,4,4,0,1,,,,,,,,,,,,,,,,,,,,,,,,,,,,,,,,,,,,,,,,,,,,,,
843464,001,2022-11-21_24h54.29.729,Info_measure_main_exp,2022.2.2,Win32,63.85696041,,,,,,,,,,,,,,,,,,masks/mask_002.jpg,,,,,,,,,,,,,,,,,,,,,,,,,,,,,,,,,,,,,,,,,,,,,,,,0,0,0,1,1,,,,,,,,,,,,,,,,,,,,,,,,,,,,,,,,,,,,,,,,,
843464,001,2022-11-21_24h54.29.729,Info_measure_main_exp,2022.2.2,Win32,63.85696041,,,,,,,,,,,,,,,,,,masks/mask_004.jpg,,,,,,,,,,,,,,,,,,,,,,,,,,,,,,,,,,,,,,,,,,,,,,,,0,1,1,3,1,,,,,,,,,,,,,,,,,,,,,,,,,,,,,,,,,,,,,,,,,
843464,001,2022-11-21_24h54.29.729,Info_measure_main_exp,2022.2.2,Win32,63.85696041,,,,,,,,,,,,,,,,,,masks/mask_001.jpg,,,,,,,,,,,,,,,,,,,,,,,,,,,,,,,,,,,,,,,,,,,,,,,,0,2,2,0,1,,,,,,,,,,,,,,,,,,,,,,,,,,,,,,,,,,,,,,,,,
843464,001,2022-11-21_24h54.29.729,Info_measure_main_exp,2022.2.2,Win32,63.85696041,,,,,,,,,,,,,,,,,,masks/mask_003.jpg,,,,,,,,,,,,,,,,,,,,,,,,,,,,,,,,,,,,,,,,,,,,,,,,0,3,3,2,1,,,,,,,,,,,,,,,,,,,,,,,,,,,,,,,,,,,,,,,,,
843464,001,2022-11-21_24h54.29.729,Info_measure_main_exp,2022.2.2,Win32,63.85696041,,,,,,,,,,,,,,,,,,masks/mask_005.jpg,,,,,,,,,,,,,,,,,,,,,,,,,,,,,,,,,,,,,,,,,,,,,,,,0,4,4,4,1,,,,,,,,,,,,,,,,,,,,,,,,,,,,,,,,,,,,,,,,,
843464,001,2022-11-21_24h54.29.729,Info_measure_main_exp,2022.2.2,Win32,63.85696041,,,,,,,,,,,,,,,,,,,,,,,,,,,,,,0,0.7405,1,,,,,,,,,,,,0,131,5,5,2142,2142,absent_patch/patch0002142.jpg,absent_patch/patch0002142.jpg,,,,,,,,,,,,,,,,,,,,-0.043518519,0.096296296,1,0,0,response7disk,11,0.000925926,0.005555556,1,0,0,center_square,0,10,10,13,1,,,,,,,,,,,,,,,,,,,,,,,
843464,001,2022-11-21_24h54.29.729,Info_measure_main_exp,2022.2.2,Win32,63.85696041,,,,,,,,,,,,,,,,,,masks/mask_001.jpg,,,,,,,,,,,,,,,,,,,,,,,,,,,,,,,,,,,,,,,,,,,0,0,0,0,1,,,,,,,,,,,,,,,,,,,,,,,,,,,,,,,,,,,,,,,,,,,,,,
843464,001,2022-11-21_24h54.29.729,Info_measure_main_exp,2022.2.2,Win32,63.85696041,,,,,,,,,,,,,,,,,,masks/mask_003.jpg,,,,,,,,,,,,,,,,,,,,,,,,,,,,,,,,,,,,,,,,,,,0,1,1,2,1,,,,,,,,,,,,,,,,,,,,,,,,,,,,,,,,,,,,,,,,,,,,,,
843464,001,2022-11-21_24h54.29.729,Info_measure_main_exp,2022.2.2,Win32,63.85696041,,,,,,,,,,,,,,,,,,masks/mask_002.jpg,,,,,,,,,,,,,,,,,,,,,,,,,,,,,,,,,,,,,,,,,,,0,2,2,1,1,,,,,,,,,,,,,,,,,,,,,,,,,,,,,,,,,,,,,,,,,,,,,,
843464,001,2022-11-21_24h54.29.729,Info_measure_main_exp,2022.2.2,Win32,63.85696041,,,,,,,,,,,,,,,,,,masks/mask_004.jpg,,,,,,,,,,,,,,,,,,,,,,,,,,,,,,,,,,,,,,,,,,,0,3,3,3,1,,,,,,,,,,,,,,,,,,,,,,,,,,,,,,,,,,,,,,,,,,,,,,
843464,001,2022-11-21_24h54.29.729,Info_measure_main_exp,2022.2.2,Win32,63.85696041,,,,,,,,,,,,,,,,,,masks/mask_005.jpg,,,,,,,,,,,,,,,,,,,,,,,,,,,,,,,,,,,,,,,,,,,0,4,4,4,1,,,,,,,,,,,,,,,,,,,,,,,,,,,,,,,,,,,,,,,,,,,,,,
843464,001,2022-11-21_24h54.29.729,Info_measure_main_exp,2022.2.2,Win32,63.85696041,,,,,,,,,,,,,,,,,,masks/mask_004.jpg,,,,,,,,,,,,,,,,,,,,,,,,,,,,,,,,,,,,,,,,,,,,,,,,0,0,0,3,1,,,,,,,,,,,,,,,,,,,,,,,,,,,,,,,,,,,,,,,,,
843464,001,2022-11-21_24h54.29.729,Info_measure_main_exp,2022.2.2,Win32,63.85696041,,,,,,,,,,,,,,,,,,masks/mask_002.jpg,,,,,,,,,,,,,,,,,,,,,,,,,,,,,,,,,,,,,,,,,,,,,,,,0,1,1,1,1,,,,,,,,,,,,,,,,,,,,,,,,,,,,,,,,,,,,,,,,,
843464,001,2022-11-21_24h54.29.729,Info_measure_main_exp,2022.2.2,Win32,63.85696041,,,,,,,,,,,,,,,,,,masks/mask_003.jpg,,,,,,,,,,,,,,,,,,,,,,,,,,,,,,,,,,,,,,,,,,,,,,,,0,2,2,2,1,,,,,,,,,,,,,,,,,,,,,,,,,,,,,,,,,,,,,,,,,
843464,001,2022-11-21_24h54.29.729,Info_measure_main_exp,2022.2.2,Win32,63.85696041,,,,,,,,,,,,,,,,,,masks/mask_005.jpg,,,,,,,,,,,,,,,,,,,,,,,,,,,,,,,,,,,,,,,,,,,,,,,,0,3,3,4,1,,,,,,,,,,,,,,,,,,,,,,,,,,,,,,,,,,,,,,,,,
843464,001,2022-11-21_24h54.29.729,Info_measure_main_exp,2022.2.2,Win32,63.85696041,,,,,,,,,,,,,,,,,,masks/mask_001.jpg,,,,,,,,,,,,,,,,,,,,,,,,,,,,,,,,,,,,,,,,,,,,,,,,0,4,4,0,1,,,,,,,,,,,,,,,,,,,,,,,,,,,,,,,,,,,,,,,,,
843464,001,2022-11-21_24h54.29.729,Info_measure_main_exp,2022.2.2,Win32,63.85696041,,,,,,,,,,,,,,,,,,,,,,,,,,,,,,4,0.8334,1,,,,,,,,,,,,1,131,5,5,1950,1,absent_patch/patch0001950.jpg,present_patch/cong_131_5_a.jpg,,,,,,,,,,,,,,,,,,,,0.068518519,-0.125,1,0,0,response3disk,12,0.006481481,-0.00462963,1,0,0,center_square,0,11,11,39,1,,,,,,,,,,,,,,,,,,,,,,,
843464,001,2022-11-21_24h54.29.729,Info_measure_main_exp,2022.2.2,Win32,63.85696041,,,,,,,,,,,,,,,,,,masks/mask_002.jpg,,,,,,,,,,,,,,,,,,,,,,,,,,,,,,,,,,,,,,,,,,,0,0,0,1,1,,,,,,,,,,,,,,,,,,,,,,,,,,,,,,,,,,,,,,,,,,,,,,
843464,001,2022-11-21_24h54.29.729,Info_measure_main_exp,2022.2.2,Win32,63.85696041,,,,,,,,,,,,,,,,,,masks/mask_005.jpg,,,,,,,,,,,,,,,,,,,,,,,,,,,,,,,,,,,,,,,,,,,0,1,1,4,1,,,,,,,,,,,,,,,,,,,,,,,,,,,,,,,,,,,,,,,,,,,,,,
843464,001,2022-11-21_24h54.29.729,Info_measure_main_exp,2022.2.2,Win32,63.85696041,,,,,,,,,,,,,,,,,,masks/mask_003.jpg,,,,,,,,,,,,,,,,,,,,,,,,,,,,,,,,,,,,,,,,,,,0,2,2,2,1,,,,,,,,,,,,,,,,,,,,,,,,,,,,,,,,,,,,,,,,,,,,,,
843464,001,2022-11-21_24h54.29.729,Info_measure_main_exp,2022.2.2,Win32,63.85696041,,,,,,,,,,,,,,,,,,masks/mask_004.jpg,,,,,,,,,,,,,,,,,,,,,,,,,,,,,,,,,,,,,,,,,,,0,3,3,3,1,,,,,,,,,,,,,,,,,,,,,,,,,,,,,,,,,,,,,,,,,,,,,,
843464,001,2022-11-21_24h54.29.729,Info_measure_main_exp,2022.2.2,Win32,63.85696041,,,,,,,,,,,,,,,,,,masks/mask_001.jpg,,,,,,,,,,,,,,,,,,,,,,,,,,,,,,,,,,,,,,,,,,,0,4,4,0,1,,,,,,,,,,,,,,,,,,,,,,,,,,,,,,,,,,,,,,,,,,,,,,
843464,001,2022-11-21_24h54.29.729,Info_measure_main_exp,2022.2.2,Win32,63.85696041,,,,,,,,,,,,,,,,,,masks/mask_004.jpg,,,,,,,,,,,,,,,,,,,,,,,,,,,,,,,,,,,,,,,,,,,,,,,,0,0,0,3,1,,,,,,,,,,,,,,,,,,,,,,,,,,,,,,,,,,,,,,,,,
843464,001,2022-11-21_24h54.29.729,Info_measure_main_exp,2022.2.2,Win32,63.85696041,,,,,,,,,,,,,,,,,,masks/mask_001.jpg,,,,,,,,,,,,,,,,,,,,,,,,,,,,,,,,,,,,,,,,,,,,,,,,0,1,1,0,1,,,,,,,,,,,,,,,,,,,,,,,,,,,,,,,,,,,,,,,,,
843464,001,2022-11-21_24h54.29.729,Info_measure_main_exp,2022.2.2,Win32,63.85696041,,,,,,,,,,,,,,,,,,masks/mask_005.jpg,,,,,,,,,,,,,,,,,,,,,,,,,,,,,,,,,,,,,,,,,,,,,,,,0,2,2,4,1,,,,,,,,,,,,,,,,,,,,,,,,,,,,,,,,,,,,,,,,,
843464,001,2022-11-21_24h54.29.729,Info_measure_main_exp,2022.2.2,Win32,63.85696041,,,,,,,,,,,,,,,,,,masks/mask_003.jpg,,,,,,,,,,,,,,,,,,,,,,,,,,,,,,,,,,,,,,,,,,,,,,,,0,3,3,2,1,,,,,,,,,,,,,,,,,,,,,,,,,,,,,,,,,,,,,,,,,
843464,001,2022-11-21_24h54.29.729,Info_measure_main_exp,2022.2.2,Win32,63.85696041,,,,,,,,,,,,,,,,,,masks/mask_002.jpg,,,,,,,,,,,,,,,,,,,,,,,,,,,,,,,,,,,,,,,,,,,,,,,,0,4,4,1,1,,,,,,,,,,,,,,,,,,,,,,,,,,,,,,,,,,,,,,,,,
843464,001,2022-11-21_24h54.29.729,Info_measure_main_exp,2022.2.2,Win32,63.85696041,,,,,,,,,,,,,,,,,,,,,,,,,,,,,,0,0.5461,1,,,,,,,,,,,,0,131,5,5,2154,2154,absent_patch/patch0002154.jpg,absent_patch/patch0002154.jpg,,,,,,,,,,,,,,,,,,,,-0.043518519,0.138888889,1,0,0,response7disk,13,0,0.002777778,1,0,0,center_square,0,12,12,89,1,,,,,,,,,,,,,,,,,,,,,,,
843464,001,2022-11-21_24h54.29.729,Info_measure_main_exp,2022.2.2,Win32,63.85696041,,,,,,,,,,,,,,,,,,masks/mask_005.jpg,,,,,,,,,,,,,,,,,,,,,,,,,,,,,,,,,,,,,,,,,,,0,0,0,4,1,,,,,,,,,,,,,,,,,,,,,,,,,,,,,,,,,,,,,,,,,,,,,,
843464,001,2022-11-21_24h54.29.729,Info_measure_main_exp,2022.2.2,Win32,63.85696041,,,,,,,,,,,,,,,,,,masks/mask_004.jpg,,,,,,,,,,,,,,,,,,,,,,,,,,,,,,,,,,,,,,,,,,,0,1,1,3,1,,,,,,,,,,,,,,,,,,,,,,,,,,,,,,,,,,,,,,,,,,,,,,
843464,001,2022-11-21_24h54.29.729,Info_measure_main_exp,2022.2.2,Win32,63.85696041,,,,,,,,,,,,,,,,,,masks/mask_003.jpg,,,,,,,,,,,,,,,,,,,,,,,,,,,,,,,,,,,,,,,,,,,0,2,2,2,1,,,,,,,,,,,,,,,,,,,,,,,,,,,,,,,,,,,,,,,,,,,,,,
843464,001,2022-11-21_24h54.29.729,Info_measure_main_exp,2022.2.2,Win32,63.85696041,,,,,,,,,,,,,,,,,,masks/mask_002.jpg,,,,,,,,,,,,,,,,,,,,,,,,,,,,,,,,,,,,,,,,,,,0,3,3,1,1,,,,,,,,,,,,,,,,,,,,,,,,,,,,,,,,,,,,,,,,,,,,,,
843464,001,2022-11-21_24h54.29.729,Info_measure_main_exp,2022.2.2,Win32,63.85696041,,,,,,,,,,,,,,,,,,masks/mask_001.jpg,,,,,,,,,,,,,,,,,,,,,,,,,,,,,,,,,,,,,,,,,,,0,4,4,0,1,,,,,,,,,,,,,,,,,,,,,,,,,,,,,,,,,,,,,,,,,,,,,,
843464,001,2022-11-21_24h54.29.729,Info_measure_main_exp,2022.2.2,Win32,63.85696041,,,,,,,,,,,,,,,,,,masks/mask_002.jpg,,,,,,,,,,,,,,,,,,,,,,,,,,,,,,,,,,,,,,,,,,,,,,,,0,0,0,1,1,,,,,,,,,,,,,,,,,,,,,,,,,,,,,,,,,,,,,,,,,
843464,001,2022-11-21_24h54.29.729,Info_measure_main_exp,2022.2.2,Win32,63.85696041,,,,,,,,,,,,,,,,,,masks/mask_005.jpg,,,,,,,,,,,,,,,,,,,,,,,,,,,,,,,,,,,,,,,,,,,,,,,,0,1,1,4,1,,,,,,,,,,,,,,,,,,,,,,,,,,,,,,,,,,,,,,,,,
843464,001,2022-11-21_24h54.29.729,Info_measure_main_exp,2022.2.2,Win32,63.85696041,,,,,,,,,,,,,,,,,,masks/mask_004.jpg,,,,,,,,,,,,,,,,,,,,,,,,,,,,,,,,,,,,,,,,,,,,,,,,0,2,2,3,1,,,,,,,,,,,,,,,,,,,,,,,,,,,,,,,,,,,,,,,,,
843464,001,2022-11-21_24h54.29.729,Info_measure_main_exp,2022.2.2,Win32,63.85696041,,,,,,,,,,,,,,,,,,masks/mask_001.jpg,,,,,,,,,,,,,,,,,,,,,,,,,,,,,,,,,,,,,,,,,,,,,,,,0,3,3,0,1,,,,,,,,,,,,,,,,,,,,,,,,,,,,,,,,,,,,,,,,,
843464,001,2022-11-21_24h54.29.729,Info_measure_main_exp,2022.2.2,Win32,63.85696041,,,,,,,,,,,,,,,,,,masks/mask_003.jpg,,,,,,,,,,,,,,,,,,,,,,,,,,,,,,,,,,,,,,,,,,,,,,,,0,4,4,2,1,,,,,,,,,,,,,,,,,,,,,,,,,,,,,,,,,,,,,,,,,
843464,001,2022-11-21_24h54.29.729,Info_measure_main_exp,2022.2.2,Win32,63.85696041,,,,,,,,,,,,,,,,,,,,,,,,,,,,,,2,2.9031,1,,,,,,,,,,,,0,131,5,5,2274,2154,absent_patch/patch0002274.jpg,absent_patch/patch0002154.jpg,,,,,,,,,,,,,,,,,,,,-0.125,-0.075,1,0,0,response5disk,14,0.00462963,0.005555556,1,0,0,center_square,0,13,13,23,1,,,,,,,,,,,,,,,,,,,,,,,
843464,001,2022-11-21_24h54.29.729,Info_measure_main_exp,2022.2.2,Win32,63.85696041,,,,,,,,,,,,,,,,,,masks/mask_004.jpg,,,,,,,,,,,,,,,,,,,,,,,,,,,,,,,,,,,,,,,,,,,0,0,0,3,1,,,,,,,,,,,,,,,,,,,,,,,,,,,,,,,,,,,,,,,,,,,,,,
843464,001,2022-11-21_24h54.29.729,Info_measure_main_exp,2022.2.2,Win32,63.85696041,,,,,,,,,,,,,,,,,,masks/mask_002.jpg,,,,,,,,,,,,,,,,,,,,,,,,,,,,,,,,,,,,,,,,,,,0,1,1,1,1,,,,,,,,,,,,,,,,,,,,,,,,,,,,,,,,,,,,,,,,,,,,,,
843464,001,2022-11-21_24h54.29.729,Info_measure_main_exp,2022.2.2,Win32,63.85696041,,,,,,,,,,,,,,,,,,masks/mask_001.jpg,,,,,,,,,,,,,,,,,,,,,,,,,,,,,,,,,,,,,,,,,,,0,2,2,0,1,,,,,,,,,,,,,,,,,,,,,,,,,,,,,,,,,,,,,,,,,,,,,,
843464,001,2022-11-21_24h54.29.729,Info_measure_main_exp,2022.2.2,Win32,63.85696041,,,,,,,,,,,,,,,,,,masks/mask_005.jpg,,,,,,,,,,,,,,,,,,,,,,,,,,,,,,,,,,,,,,,,,,,0,3,3,4,1,,,,,,,,,,,,,,,,,,,,,,,,,,,,,,,,,,,,,,,,,,,,,,
843464,001,2022-11-21_24h54.29.729,Info_measure_main_exp,2022.2.2,Win32,63.85696041,,,,,,,,,,,,,,,,,,masks/mask_003.jpg,,,,,,,,,,,,,,,,,,,,,,,,,,,,,,,,,,,,,,,,,,,0,4,4,2,1,,,,,,,,,,,,,,,,,,,,,,,,,,,,,,,,,,,,,,,,,,,,,,
843464,001,2022-11-21_24h54.29.729,Info_measure_main_exp,2022.2.2,Win32,63.85696041,,,,,,,,,,,,,,,,,,masks/mask_005.jpg,,,,,,,,,,,,,,,,,,,,,,,,,,,,,,,,,,,,,,,,,,,,,,,,0,0,0,4,1,,,,,,,,,,,,,,,,,,,,,,,,,,,,,,,,,,,,,,,,,
843464,001,2022-11-21_24h54.29.729,Info_measure_main_exp,2022.2.2,Win32,63.85696041,,,,,,,,,,,,,,,,,,masks/mask_003.jpg,,,,,,,,,,,,,,,,,,,,,,,,,,,,,,,,,,,,,,,,,,,,,,,,0,1,1,2,1,,,,,,,,,,,,,,,,,,,,,,,,,,,,,,,,,,,,,,,,,
843464,001,2022-11-21_24h54.29.729,Info_measure_main_exp,2022.2.2,Win32,63.85696041,,,,,,,,,,,,,,,,,,masks/mask_001.jpg,,,,,,,,,,,,,,,,,,,,,,,,,,,,,,,,,,,,,,,,,,,,,,,,0,2,2,0,1,,,,,,,,,,,,,,,,,,,,,,,,,,,,,,,,,,,,,,,,,
843464,001,2022-11-21_24h54.29.729,Info_measure_main_exp,2022.2.2,Win32,63.85696041,,,,,,,,,,,,,,,,,,masks/mask_004.jpg,,,,,,,,,,,,,,,,,,,,,,,,,,,,,,,,,,,,,,,,,,,,,,,,0,3,3,3,1,,,,,,,,,,,,,,,,,,,,,,,,,,,,,,,,,,,,,,,,,
843464,001,2022-11-21_24h54.29.729,Info_measure_main_exp,2022.2.2,Win32,63.85696041,,,,,,,,,,,,,,,,,,masks/mask_002.jpg,,,,,,,,,,,,,,,,,,,,,,,,,,,,,,,,,,,,,,,,,,,,,,,,0,4,4,1,1,,,,,,,,,,,,,,,,,,,,,,,,,,,,,,,,,,,,,,,,,
843464,001,2022-11-21_24h54.29.729,Info_measure_main_exp,2022.2.2,Win32,63.85696041,,,,,,,,,,,,,,,,,,,,,,,,,,,,,,6,2.1655,1,,,,,,,,,,,,0,131,5,5,2142,2154,absent_patch/patch0002142.jpg,absent_patch/patch0002154.jpg,,,,,,,,,,,,,,,,,,,,0.15462963,0.051851852,1,0,0,response1disk,15,-0.000925926,0,1,0,0,center_square,0,14,14,9,1,,,,,,,,,,,,,,,,,,,,,,,
843464,001,2022-11-21_24h54.29.729,Info_measure_main_exp,2022.2.2,Win32,63.85696041,,,,,,,,,,,,,,,,,,masks/mask_004.jpg,,,,,,,,,,,,,,,,,,,,,,,,,,,,,,,,,,,,,,,,,,,0,0,0,3,1,,,,,,,,,,,,,,,,,,,,,,,,,,,,,,,,,,,,,,,,,,,,,,
843464,001,2022-11-21_24h54.29.729,Info_measure_main_exp,2022.2.2,Win32,63.85696041,,,,,,,,,,,,,,,,,,masks/mask_003.jpg,,,,,,,,,,,,,,,,,,,,,,,,,,,,,,,,,,,,,,,,,,,0,1,1,2,1,,,,,,,,,,,,,,,,,,,,,,,,,,,,,,,,,,,,,,,,,,,,,,
843464,001,2022-11-21_24h54.29.729,Info_measure_main_exp,2022.2.2,Win32,63.85696041,,,,,,,,,,,,,,,,,,masks/mask_002.jpg,,,,,,,,,,,,,,,,,,,,,,,,,,,,,,,,,,,,,,,,,,,0,2,2,1,1,,,,,,,,,,,,,,,,,,,,,,,,,,,,,,,,,,,,,,,,,,,,,,
843464,001,2022-11-21_24h54.29.729,Info_measure_main_exp,2022.2.2,Win32,63.85696041,,,,,,,,,,,,,,,,,,masks/mask_005.jpg,,,,,,,,,,,,,,,,,,,,,,,,,,,,,,,,,,,,,,,,,,,0,3,3,4,1,,,,,,,,,,,,,,,,,,,,,,,,,,,,,,,,,,,,,,,,,,,,,,
843464,001,2022-11-21_24h54.29.729,Info_measure_main_exp,2022.2.2,Win32,63.85696041,,,,,,,,,,,,,,,,,,masks/mask_001.jpg,,,,,,,,,,,,,,,,,,,,,,,,,,,,,,,,,,,,,,,,,,,0,4,4,0,1,,,,,,,,,,,,,,,,,,,,,,,,,,,,,,,,,,,,,,,,,,,,,,
843464,001,2022-11-21_24h54.29.729,Info_measure_main_exp,2022.2.2,Win32,63.85696041,,,,,,,,,,,,,,,,,,masks/mask_005.jpg,,,,,,,,,,,,,,,,,,,,,,,,,,,,,,,,,,,,,,,,,,,,,,,,0,0,0,4,1,,,,,,,,,,,,,,,,,,,,,,,,,,,,,,,,,,,,,,,,,
843464,001,2022-11-21_24h54.29.729,Info_measure_main_exp,2022.2.2,Win32,63.85696041,,,,,,,,,,,,,,,,,,masks/mask_003.jpg,,,,,,,,,,,,,,,,,,,,,,,,,,,,,,,,,,,,,,,,,,,,,,,,0,1,1,2,1,,,,,,,,,,,,,,,,,,,,,,,,,,,,,,,,,,,,,,,,,
843464,001,2022-11-21_24h54.29.729,Info_measure_main_exp,2022.2.2,Win32,63.85696041,,,,,,,,,,,,,,,,,,masks/mask_001.jpg,,,,,,,,,,,,,,,,,,,,,,,,,,,,,,,,,,,,,,,,,,,,,,,,0,2,2,0,1,,,,,,,,,,,,,,,,,,,,,,,,,,,,,,,,,,,,,,,,,
843464,001,2022-11-21_24h54.29.729,Info_measure_main_exp,2022.2.2,Win32,63.85696041,,,,,,,,,,,,,,,,,,masks/mask_004.jpg,,,,,,,,,,,,,,,,,,,,,,,,,,,,,,,,,,,,,,,,,,,,,,,,0,3,3,3,1,,,,,,,,,,,,,,,,,,,,,,,,,,,,,,,,,,,,,,,,,
843464,001,2022-11-21_24h54.29.729,Info_measure_main_exp,2022.2.2,Win32,63.85696041,,,,,,,,,,,,,,,,,,masks/mask_002.jpg,,,,,,,,,,,,,,,,,,,,,,,,,,,,,,,,,,,,,,,,,,,,,,,,0,4,4,1,1,,,,,,,,,,,,,,,,,,,,,,,,,,,,,,,,,,,,,,,,,
843464,001,2022-11-21_24h54.29.729,Info_measure_main_exp,2022.2.2,Win32,63.85696041,,,,,,,,,,,,,,,,,,,,,,,,,,,,,,0,0.4334,1,,,,,,,,,,,,0,131,5,5,2082,2082,absent_patch/patch0002082.jpg,absent_patch/patch0002082.jpg,,,,,,,,,,,,,,,,,,,,-0.047222222,0.12037037,1,0,0,response7disk,16,-0.001851852,0.001851852,1,0,0,center_square,0,15,15,74,1,,,,,,,,,,,,,,,,,,,,,,,
843464,001,2022-11-21_24h54.29.729,Info_measure_main_exp,2022.2.2,Win32,63.85696041,,,,,,,,,,,,,,,,,,masks/mask_005.jpg,,,,,,,,,,,,,,,,,,,,,,,,,,,,,,,,,,,,,,,,,,,0,0,0,4,1,,,,,,,,,,,,,,,,,,,,,,,,,,,,,,,,,,,,,,,,,,,,,,
843464,001,2022-11-21_24h54.29.729,Info_measure_main_exp,2022.2.2,Win32,63.85696041,,,,,,,,,,,,,,,,,,masks/mask_003.jpg,,,,,,,,,,,,,,,,,,,,,,,,,,,,,,,,,,,,,,,,,,,0,1,1,2,1,,,,,,,,,,,,,,,,,,,,,,,,,,,,,,,,,,,,,,,,,,,,,,
843464,001,2022-11-21_24h54.29.729,Info_measure_main_exp,2022.2.2,Win32,63.85696041,,,,,,,,,,,,,,,,,,masks/mask_004.jpg,,,,,,,,,,,,,,,,,,,,,,,,,,,,,,,,,,,,,,,,,,,0,2,2,3,1,,,,,,,,,,,,,,,,,,,,,,,,,,,,,,,,,,,,,,,,,,,,,,
843464,001,2022-11-21_24h54.29.729,Info_measure_main_exp,2022.2.2,Win32,63.85696041,,,,,,,,,,,,,,,,,,masks/mask_002.jpg,,,,,,,,,,,,,,,,,,,,,,,,,,,,,,,,,,,,,,,,,,,0,3,3,1,1,,,,,,,,,,,,,,,,,,,,,,,,,,,,,,,,,,,,,,,,,,,,,,
843464,001,2022-11-21_24h54.29.729,Info_measure_main_exp,2022.2.2,Win32,63.85696041,,,,,,,,,,,,,,,,,,masks/mask_001.jpg,,,,,,,,,,,,,,,,,,,,,,,,,,,,,,,,,,,,,,,,,,,0,4,4,0,1,,,,,,,,,,,,,,,,,,,,,,,,,,,,,,,,,,,,,,,,,,,,,,
843464,001,2022-11-21_24h54.29.729,Info_measure_main_exp,2022.2.2,Win32,63.85696041,,,,,,,,,,,,,,,,,,masks/mask_004.jpg,,,,,,,,,,,,,,,,,,,,,,,,,,,,,,,,,,,,,,,,,,,,,,,,0,0,0,3,1,,,,,,,,,,,,,,,,,,,,,,,,,,,,,,,,,,,,,,,,,
843464,001,2022-11-21_24h54.29.729,Info_measure_main_exp,2022.2.2,Win32,63.85696041,,,,,,,,,,,,,,,,,,masks/mask_002.jpg,,,,,,,,,,,,,,,,,,,,,,,,,,,,,,,,,,,,,,,,,,,,,,,,0,1,1,1,1,,,,,,,,,,,,,,,,,,,,,,,,,,,,,,,,,,,,,,,,,
843464,001,2022-11-21_24h54.29.729,Info_measure_main_exp,2022.2.2,Win32,63.85696041,,,,,,,,,,,,,,,,,,masks/mask_003.jpg,,,,,,,,,,,,,,,,,,,,,,,,,,,,,,,,,,,,,,,,,,,,,,,,0,2,2,2,1,,,,,,,,,,,,,,,,,,,,,,,,,,,,,,,,,,,,,,,,,
843464,001,2022-11-21_24h54.29.729,Info_measure_main_exp,2022.2.2,Win32,63.85696041,,,,,,,,,,,,,,,,,,masks/mask_005.jpg,,,,,,,,,,,,,,,,,,,,,,,,,,,,,,,,,,,,,,,,,,,,,,,,0,3,3,4,1,,,,,,,,,,,,,,,,,,,,,,,,,,,,,,,,,,,,,,,,,
843464,001,2022-11-21_24h54.29.729,Info_measure_main_exp,2022.2.2,Win32,63.85696041,,,,,,,,,,,,,,,,,,masks/mask_001.jpg,,,,,,,,,,,,,,,,,,,,,,,,,,,,,,,,,,,,,,,,,,,,,,,,0,4,4,0,1,,,,,,,,,,,,,,,,,,,,,,,,,,,,,,,,,,,,,,,,,
843464,001,2022-11-21_24h54.29.729,Info_measure_main_exp,2022.2.2,Win32,63.85696041,,,,,,,,,,,,,,,,,,,,,,,,,,,,,,0,0.4206,1,,,,,,,,,,,,0,131,5,5,2298,2298,absent_patch/patch0002298.jpg,absent_patch/patch0002298.jpg,,,,,,,,,,,,,,,,,,,,-0.036111111,0.125925926,1,0,0,response7disk,17,0.011111111,-0.000925926,1,0,0,center_square,0,16,16,37,1,,,,,,,,,,,,,,,,,,,,,,,
843464,001,2022-11-21_24h54.29.729,Info_measure_main_exp,2022.2.2,Win32,63.85696041,,,,,,,,,,,,,,,,,,masks/mask_002.jpg,,,,,,,,,,,,,,,,,,,,,,,,,,,,,,,,,,,,,,,,,,,0,0,0,1,1,,,,,,,,,,,,,,,,,,,,,,,,,,,,,,,,,,,,,,,,,,,,,,
843464,001,2022-11-21_24h54.29.729,Info_measure_main_exp,2022.2.2,Win32,63.85696041,,,,,,,,,,,,,,,,,,masks/mask_005.jpg,,,,,,,,,,,,,,,,,,,,,,,,,,,,,,,,,,,,,,,,,,,0,1,1,4,1,,,,,,,,,,,,,,,,,,,,,,,,,,,,,,,,,,,,,,,,,,,,,,
843464,001,2022-11-21_24h54.29.729,Info_measure_main_exp,2022.2.2,Win32,63.85696041,,,,,,,,,,,,,,,,,,masks/mask_003.jpg,,,,,,,,,,,,,,,,,,,,,,,,,,,,,,,,,,,,,,,,,,,0,2,2,2,1,,,,,,,,,,,,,,,,,,,,,,,,,,,,,,,,,,,,,,,,,,,,,,
843464,001,2022-11-21_24h54.29.729,Info_measure_main_exp,2022.2.2,Win32,63.85696041,,,,,,,,,,,,,,,,,,masks/mask_004.jpg,,,,,,,,,,,,,,,,,,,,,,,,,,,,,,,,,,,,,,,,,,,0,3,3,3,1,,,,,,,,,,,,,,,,,,,,,,,,,,,,,,,,,,,,,,,,,,,,,,
843464,001,2022-11-21_24h54.29.729,Info_measure_main_exp,2022.2.2,Win32,63.85696041,,,,,,,,,,,,,,,,,,masks/mask_001.jpg,,,,,,,,,,,,,,,,,,,,,,,,,,,,,,,,,,,,,,,,,,,0,4,4,0,1,,,,,,,,,,,,,,,,,,,,,,,,,,,,,,,,,,,,,,,,,,,,,,
843464,001,2022-11-21_24h54.29.729,Info_measure_main_exp,2022.2.2,Win32,63.85696041,,,,,,,,,,,,,,,,,,masks/mask_002.jpg,,,,,,,,,,,,,,,,,,,,,,,,,,,,,,,,,,,,,,,,,,,,,,,,0,0,0,1,1,,,,,,,,,,,,,,,,,,,,,,,,,,,,,,,,,,,,,,,,,
843464,001,2022-11-21_24h54.29.729,Info_measure_main_exp,2022.2.2,Win32,63.85696041,,,,,,,,,,,,,,,,,,masks/mask_004.jpg,,,,,,,,,,,,,,,,,,,,,,,,,,,,,,,,,,,,,,,,,,,,,,,,0,1,1,3,1,,,,,,,,,,,,,,,,,,,,,,,,,,,,,,,,,,,,,,,,,
843464,001,2022-11-21_24h54.29.729,Info_measure_main_exp,2022.2.2,Win32,63.85696041,,,,,,,,,,,,,,,,,,masks/mask_005.jpg,,,,,,,,,,,,,,,,,,,,,,,,,,,,,,,,,,,,,,,,,,,,,,,,0,2,2,4,1,,,,,,,,,,,,,,,,,,,,,,,,,,,,,,,,,,,,,,,,,
843464,001,2022-11-21_24h54.29.729,Info_measure_main_exp,2022.2.2,Win32,63.85696041,,,,,,,,,,,,,,,,,,masks/mask_003.jpg,,,,,,,,,,,,,,,,,,,,,,,,,,,,,,,,,,,,,,,,,,,,,,,,0,3,3,2,1,,,,,,,,,,,,,,,,,,,,,,,,,,,,,,,,,,,,,,,,,
843464,001,2022-11-21_24h54.29.729,Info_measure_main_exp,2022.2.2,Win32,63.85696041,,,,,,,,,,,,,,,,,,masks/mask_001.jpg,,,,,,,,,,,,,,,,,,,,,,,,,,,,,,,,,,,,,,,,,,,,,,,,0,4,4,0,1,,,,,,,,,,,,,,,,,,,,,,,,,,,,,,,,,,,,,,,,,
843464,001,2022-11-21_24h54.29.729,Info_measure_main_exp,2022.2.2,Win32,63.85696041,,,,,,,,,,,,,,,,,,,,,,,,,,,,,,5,1.5751,1,,,,,,,,,,,,0,131,5,5,2190,2250,absent_patch/patch0002190.jpg,absent_patch/patch0002250.jpg,,,,,,,,,,,,,,,,,,,,0.106481481,-0.080555556,1,0,0,response3disk,18,0.001851852,-0.00462963,1,0,0,center_square,0,17,17,93,1,,,,,,,,,,,,,,,,,,,,,,,
843464,001,2022-11-21_24h54.29.729,Info_measure_main_exp,2022.2.2,Win32,63.85696041,,,,,,,,,,,,,,,,,,masks/mask_005.jpg,,,,,,,,,,,,,,,,,,,,,,,,,,,,,,,,,,,,,,,,,,,0,0,0,4,1,,,,,,,,,,,,,,,,,,,,,,,,,,,,,,,,,,,,,,,,,,,,,,
843464,001,2022-11-21_24h54.29.729,Info_measure_main_exp,2022.2.2,Win32,63.85696041,,,,,,,,,,,,,,,,,,masks/mask_003.jpg,,,,,,,,,,,,,,,,,,,,,,,,,,,,,,,,,,,,,,,,,,,0,1,1,2,1,,,,,,,,,,,,,,,,,,,,,,,,,,,,,,,,,,,,,,,,,,,,,,
843464,001,2022-11-21_24h54.29.729,Info_measure_main_exp,2022.2.2,Win32,63.85696041,,,,,,,,,,,,,,,,,,masks/mask_002.jpg,,,,,,,,,,,,,,,,,,,,,,,,,,,,,,,,,,,,,,,,,,,0,2,2,1,1,,,,,,,,,,,,,,,,,,,,,,,,,,,,,,,,,,,,,,,,,,,,,,
843464,001,2022-11-21_24h54.29.729,Info_measure_main_exp,2022.2.2,Win32,63.85696041,,,,,,,,,,,,,,,,,,masks/mask_001.jpg,,,,,,,,,,,,,,,,,,,,,,,,,,,,,,,,,,,,,,,,,,,0,3,3,0,1,,,,,,,,,,,,,,,,,,,,,,,,,,,,,,,,,,,,,,,,,,,,,,
843464,001,2022-11-21_24h54.29.729,Info_measure_main_exp,2022.2.2,Win32,63.85696041,,,,,,,,,,,,,,,,,,masks/mask_004.jpg,,,,,,,,,,,,,,,,,,,,,,,,,,,,,,,,,,,,,,,,,,,0,4,4,3,1,,,,,,,,,,,,,,,,,,,,,,,,,,,,,,,,,,,,,,,,,,,,,,
843464,001,2022-11-21_24h54.29.729,Info_measure_main_exp,2022.2.2,Win32,63.85696041,,,,,,,,,,,,,,,,,,masks/mask_003.jpg,,,,,,,,,,,,,,,,,,,,,,,,,,,,,,,,,,,,,,,,,,,,,,,,0,0,0,2,1,,,,,,,,,,,,,,,,,,,,,,,,,,,,,,,,,,,,,,,,,
843464,001,2022-11-21_24h54.29.729,Info_measure_main_exp,2022.2.2,Win32,63.85696041,,,,,,,,,,,,,,,,,,masks/mask_001.jpg,,,,,,,,,,,,,,,,,,,,,,,,,,,,,,,,,,,,,,,,,,,,,,,,0,1,1,0,1,,,,,,,,,,,,,,,,,,,,,,,,,,,,,,,,,,,,,,,,,
843464,001,2022-11-21_24h54.29.729,Info_measure_main_exp,2022.2.2,Win32,63.85696041,,,,,,,,,,,,,,,,,,masks/mask_002.jpg,,,,,,,,,,,,,,,,,,,,,,,,,,,,,,,,,,,,,,,,,,,,,,,,0,2,2,1,1,,,,,,,,,,,,,,,,,,,,,,,,,,,,,,,,,,,,,,,,,
843464,001,2022-11-21_24h54.29.729,Info_measure_main_exp,2022.2.2,Win32,63.85696041,,,,,,,,,,,,,,,,,,masks/mask_005.jpg,,,,,,,,,,,,,,,,,,,,,,,,,,,,,,,,,,,,,,,,,,,,,,,,0,3,3,4,1,,,,,,,,,,,,,,,,,,,,,,,,,,,,,,,,,,,,,,,,,
843464,001,2022-11-21_24h54.29.729,Info_measure_main_exp,2022.2.2,Win32,63.85696041,,,,,,,,,,,,,,,,,,masks/mask_004.jpg,,,,,,,,,,,,,,,,,,,,,,,,,,,,,,,,,,,,,,,,,,,,,,,,0,4,4,3,1,,,,,,,,,,,,,,,,,,,,,,,,,,,,,,,,,,,,,,,,,
843464,001,2022-11-21_24h54.29.729,Info_measure_main_exp,2022.2.2,Win32,63.85696041,,,,,,,,,,,,,,,,,,,,,,,,,,,,,,6,1.8695,1,,,,,,,,,,,,0,131,5,5,2154,1950,absent_patch/patch0002154.jpg,absent_patch/patch0001950.jpg,,,,,,,,,,,,,,,,,,,,0.153703704,0.040740741,1,0,0,response1disk,19,0.00462963,-0.000925926,1,0,0,center_square,0,18,18,96,1,,,,,,,,,,,,,,,,,,,,,,,
843464,001,2022-11-21_24h54.29.729,Info_measure_main_exp,2022.2.2,Win32,63.85696041,,,,,,,,,,,,,,,,,,masks/mask_005.jpg,,,,,,,,,,,,,,,,,,,,,,,,,,,,,,,,,,,,,,,,,,,0,0,0,4,1,,,,,,,,,,,,,,,,,,,,,,,,,,,,,,,,,,,,,,,,,,,,,,
843464,001,2022-11-21_24h54.29.729,Info_measure_main_exp,2022.2.2,Win32,63.85696041,,,,,,,,,,,,,,,,,,masks/mask_004.jpg,,,,,,,,,,,,,,,,,,,,,,,,,,,,,,,,,,,,,,,,,,,0,1,1,3,1,,,,,,,,,,,,,,,,,,,,,,,,,,,,,,,,,,,,,,,,,,,,,,
843464,001,2022-11-21_24h54.29.729,Info_measure_main_exp,2022.2.2,Win32,63.85696041,,,,,,,,,,,,,,,,,,masks/mask_003.jpg,,,,,,,,,,,,,,,,,,,,,,,,,,,,,,,,,,,,,,,,,,,0,2,2,2,1,,,,,,,,,,,,,,,,,,,,,,,,,,,,,,,,,,,,,,,,,,,,,,
843464,001,2022-11-21_24h54.29.729,Info_measure_main_exp,2022.2.2,Win32,63.85696041,,,,,,,,,,,,,,,,,,masks/mask_001.jpg,,,,,,,,,,,,,,,,,,,,,,,,,,,,,,,,,,,,,,,,,,,0,3,3,0,1,,,,,,,,,,,,,,,,,,,,,,,,,,,,,,,,,,,,,,,,,,,,,,
843464,001,2022-11-21_24h54.29.729,Info_measure_main_exp,2022.2.2,Win32,63.85696041,,,,,,,,,,,,,,,,,,masks/mask_002.jpg,,,,,,,,,,,,,,,,,,,,,,,,,,,,,,,,,,,,,,,,,,,0,4,4,1,1,,,,,,,,,,,,,,,,,,,,,,,,,,,,,,,,,,,,,,,,,,,,,,
843464,001,2022-11-21_24h54.29.729,Info_measure_main_exp,2022.2.2,Win32,63.85696041,,,,,,,,,,,,,,,,,,masks/mask_005.jpg,,,,,,,,,,,,,,,,,,,,,,,,,,,,,,,,,,,,,,,,,,,,,,,,0,0,0,4,1,,,,,,,,,,,,,,,,,,,,,,,,,,,,,,,,,,,,,,,,,
843464,001,2022-11-21_24h54.29.729,Info_measure_main_exp,2022.2.2,Win32,63.85696041,,,,,,,,,,,,,,,,,,masks/mask_004.jpg,,,,,,,,,,,,,,,,,,,,,,,,,,,,,,,,,,,,,,,,,,,,,,,,0,1,1,3,1,,,,,,,,,,,,,,,,,,,,,,,,,,,,,,,,,,,,,,,,,
843464,001,2022-11-21_24h54.29.729,Info_measure_main_exp,2022.2.2,Win32,63.85696041,,,,,,,,,,,,,,,,,,masks/mask_001.jpg,,,,,,,,,,,,,,,,,,,,,,,,,,,,,,,,,,,,,,,,,,,,,,,,0,2,2,0,1,,,,,,,,,,,,,,,,,,,,,,,,,,,,,,,,,,,,,,,,,
843464,001,2022-11-21_24h54.29.729,Info_measure_main_exp,2022.2.2,Win32,63.85696041,,,,,,,,,,,,,,,,,,masks/mask_003.jpg,,,,,,,,,,,,,,,,,,,,,,,,,,,,,,,,,,,,,,,,,,,,,,,,0,3,3,2,1,,,,,,,,,,,,,,,,,,,,,,,,,,,,,,,,,,,,,,,,,
843464,001,2022-11-21_24h54.29.729,Info_measure_main_exp,2022.2.2,Win32,63.85696041,,,,,,,,,,,,,,,,,,masks/mask_002.jpg,,,,,,,,,,,,,,,,,,,,,,,,,,,,,,,,,,,,,,,,,,,,,,,,0,4,4,1,1,,,,,,,,,,,,,,,,,,,,,,,,,,,,,,,,,,,,,,,,,
843464,001,2022-11-21_24h54.29.729,Info_measure_main_exp,2022.2.2,Win32,63.85696041,,,,,,,,,,,,,,,,,,,,,,,,,,,,,,4,1.5821,1,,,,,,,,,,,,1,131,5,5,2298,1,absent_patch/patch0002298.jpg,present_patch/cong_131_5_a.jpg,,,,,,,,,,,,,,,,,,,,0.067592593,-0.12962963,1,0,0,response3disk,20,0,-0.001851852,1,0,0,center_square,0,19,19,45,1,,,,,,,,,,,,,,,,,,,,,,,
843464,001,2022-11-21_24h54.29.729,Info_measure_main_exp,2022.2.2,Win32,63.85696041,,,,,,,,,,,,,,,,,,masks/mask_001.jpg,,,,,,,,,,,,,,,,,,,,,,,,,,,,,,,,,,,,,,,,,,,0,0,0,0,1,,,,,,,,,,,,,,,,,,,,,,,,,,,,,,,,,,,,,,,,,,,,,,
843464,001,2022-11-21_24h54.29.729,Info_measure_main_exp,2022.2.2,Win32,63.85696041,,,,,,,,,,,,,,,,,,masks/mask_002.jpg,,,,,,,,,,,,,,,,,,,,,,,,,,,,,,,,,,,,,,,,,,,0,1,1,1,1,,,,,,,,,,,,,,,,,,,,,,,,,,,,,,,,,,,,,,,,,,,,,,
843464,001,2022-11-21_24h54.29.729,Info_measure_main_exp,2022.2.2,Win32,63.85696041,,,,,,,,,,,,,,,,,,masks/mask_003.jpg,,,,,,,,,,,,,,,,,,,,,,,,,,,,,,,,,,,,,,,,,,,0,2,2,2,1,,,,,,,,,,,,,,,,,,,,,,,,,,,,,,,,,,,,,,,,,,,,,,
843464,001,2022-11-21_24h54.29.729,Info_measure_main_exp,2022.2.2,Win32,63.85696041,,,,,,,,,,,,,,,,,,masks/mask_005.jpg,,,,,,,,,,,,,,,,,,,,,,,,,,,,,,,,,,,,,,,,,,,0,3,3,4,1,,,,,,,,,,,,,,,,,,,,,,,,,,,,,,,,,,,,,,,,,,,,,,
843464,001,2022-11-21_24h54.29.729,Info_measure_main_exp,2022.2.2,Win32,63.85696041,,,,,,,,,,,,,,,,,,masks/mask_004.jpg,,,,,,,,,,,,,,,,,,,,,,,,,,,,,,,,,,,,,,,,,,,0,4,4,3,1,,,,,,,,,,,,,,,,,,,,,,,,,,,,,,,,,,,,,,,,,,,,,,
843464,001,2022-11-21_24h54.29.729,Info_measure_main_exp,2022.2.2,Win32,63.85696041,,,,,,,,,,,,,,,,,,masks/mask_002.jpg,,,,,,,,,,,,,,,,,,,,,,,,,,,,,,,,,,,,,,,,,,,,,,,,0,0,0,1,1,,,,,,,,,,,,,,,,,,,,,,,,,,,,,,,,,,,,,,,,,
843464,001,2022-11-21_24h54.29.729,Info_measure_main_exp,2022.2.2,Win32,63.85696041,,,,,,,,,,,,,,,,,,masks/mask_005.jpg,,,,,,,,,,,,,,,,,,,,,,,,,,,,,,,,,,,,,,,,,,,,,,,,0,1,1,4,1,,,,,,,,,,,,,,,,,,,,,,,,,,,,,,,,,,,,,,,,,
843464,001,2022-11-21_24h54.29.729,Info_measure_main_exp,2022.2.2,Win32,63.85696041,,,,,,,,,,,,,,,,,,masks/mask_004.jpg,,,,,,,,,,,,,,,,,,,,,,,,,,,,,,,,,,,,,,,,,,,,,,,,0,2,2,3,1,,,,,,,,,,,,,,,,,,,,,,,,,,,,,,,,,,,,,,,,,
843464,001,2022-11-21_24h54.29.729,Info_measure_main_exp,2022.2.2,Win32,63.85696041,,,,,,,,,,,,,,,,,,masks/mask_003.jpg,,,,,,,,,,,,,,,,,,,,,,,,,,,,,,,,,,,,,,,,,,,,,,,,0,3,3,2,1,,,,,,,,,,,,,,,,,,,,,,,,,,,,,,,,,,,,,,,,,
843464,001,2022-11-21_24h54.29.729,Info_measure_main_exp,2022.2.2,Win32,63.85696041,,,,,,,,,,,,,,,,,,masks/mask_001.jpg,,,,,,,,,,,,,,,,,,,,,,,,,,,,,,,,,,,,,,,,,,,,,,,,0,4,4,0,1,,,,,,,,,,,,,,,,,,,,,,,,,,,,,,,,,,,,,,,,,
843464,001,2022-11-21_24h54.29.729,Info_measure_main_exp,2022.2.2,Win32,63.85696041,,,,,,,,,,,,,,,,,,,,,,,,,,,,,,0,0.6667,1,,,,,,,,,,,,0,131,5,5,1950,1950,absent_patch/patch0001950.jpg,absent_patch/patch0001950.jpg,,,,,,,,,,,,,,,,,,,,-0.071296296,0.171296296,1,0,0,response7disk,21,0.006481481,-0.005555556,1,0,0,center_square,0,20,20,92,1,,,,,,,,,,,,,,,,,,,,,,,
843464,001,2022-11-21_24h54.29.729,Info_measure_main_exp,2022.2.2,Win32,63.85696041,,,,,,,,,,,,,,,,,,masks/mask_001.jpg,,,,,,,,,,,,,,,,,,,,,,,,,,,,,,,,,,,,,,,,,,,0,0,0,0,1,,,,,,,,,,,,,,,,,,,,,,,,,,,,,,,,,,,,,,,,,,,,,,
843464,001,2022-11-21_24h54.29.729,Info_measure_main_exp,2022.2.2,Win32,63.85696041,,,,,,,,,,,,,,,,,,masks/mask_004.jpg,,,,,,,,,,,,,,,,,,,,,,,,,,,,,,,,,,,,,,,,,,,0,1,1,3,1,,,,,,,,,,,,,,,,,,,,,,,,,,,,,,,,,,,,,,,,,,,,,,
843464,001,2022-11-21_24h54.29.729,Info_measure_main_exp,2022.2.2,Win32,63.85696041,,,,,,,,,,,,,,,,,,masks/mask_003.jpg,,,,,,,,,,,,,,,,,,,,,,,,,,,,,,,,,,,,,,,,,,,0,2,2,2,1,,,,,,,,,,,,,,,,,,,,,,,,,,,,,,,,,,,,,,,,,,,,,,
843464,001,2022-11-21_24h54.29.729,Info_measure_main_exp,2022.2.2,Win32,63.85696041,,,,,,,,,,,,,,,,,,masks/mask_005.jpg,,,,,,,,,,,,,,,,,,,,,,,,,,,,,,,,,,,,,,,,,,,0,3,3,4,1,,,,,,,,,,,,,,,,,,,,,,,,,,,,,,,,,,,,,,,,,,,,,,
843464,001,2022-11-21_24h54.29.729,Info_measure_main_exp,2022.2.2,Win32,63.85696041,,,,,,,,,,,,,,,,,,masks/mask_002.jpg,,,,,,,,,,,,,,,,,,,,,,,,,,,,,,,,,,,,,,,,,,,0,4,4,1,1,,,,,,,,,,,,,,,,,,,,,,,,,,,,,,,,,,,,,,,,,,,,,,
843464,001,2022-11-21_24h54.29.729,Info_measure_main_exp,2022.2.2,Win32,63.85696041,,,,,,,,,,,,,,,,,,masks/mask_001.jpg,,,,,,,,,,,,,,,,,,,,,,,,,,,,,,,,,,,,,,,,,,,,,,,,0,0,0,0,1,,,,,,,,,,,,,,,,,,,,,,,,,,,,,,,,,,,,,,,,,
843464,001,2022-11-21_24h54.29.729,Info_measure_main_exp,2022.2.2,Win32,63.85696041,,,,,,,,,,,,,,,,,,masks/mask_003.jpg,,,,,,,,,,,,,,,,,,,,,,,,,,,,,,,,,,,,,,,,,,,,,,,,0,1,1,2,1,,,,,,,,,,,,,,,,,,,,,,,,,,,,,,,,,,,,,,,,,
843464,001,2022-11-21_24h54.29.729,Info_measure_main_exp,2022.2.2,Win32,63.85696041,,,,,,,,,,,,,,,,,,masks/mask_002.jpg,,,,,,,,,,,,,,,,,,,,,,,,,,,,,,,,,,,,,,,,,,,,,,,,0,2,2,1,1,,,,,,,,,,,,,,,,,,,,,,,,,,,,,,,,,,,,,,,,,
843464,001,2022-11-21_24h54.29.729,Info_measure_main_exp,2022.2.2,Win32,63.85696041,,,,,,,,,,,,,,,,,,masks/mask_004.jpg,,,,,,,,,,,,,,,,,,,,,,,,,,,,,,,,,,,,,,,,,,,,,,,,0,3,3,3,1,,,,,,,,,,,,,,,,,,,,,,,,,,,,,,,,,,,,,,,,,
843464,001,2022-11-21_24h54.29.729,Info_measure_main_exp,2022.2.2,Win32,63.85696041,,,,,,,,,,,,,,,,,,masks/mask_005.jpg,,,,,,,,,,,,,,,,,,,,,,,,,,,,,,,,,,,,,,,,,,,,,,,,0,4,4,4,1,,,,,,,,,,,,,,,,,,,,,,,,,,,,,,,,,,,,,,,,,
843464,001,2022-11-21_24h54.29.729,Info_measure_main_exp,2022.2.2,Win32,63.85696041,,,,,,,,,,,,,,,,,,,,,,,,,,,,,,2,1.2549,1,,,,,,,,,,,,0,131,5,5,1974,2178,absent_patch/patch0001974.jpg,absent_patch/patch0002178.jpg,,,,,,,,,,,,,,,,,,,,-0.108333333,-0.075925926,1,0,0,response5disk,22,0,-0.002777778,1,0,0,center_square,0,21,21,44,1,,,,,,,,,,,,,,,,,,,,,,,
843464,001,2022-11-21_24h54.29.729,Info_measure_main_exp,2022.2.2,Win32,63.85696041,,,,,,,,,,,,,,,,,,masks/mask_001.jpg,,,,,,,,,,,,,,,,,,,,,,,,,,,,,,,,,,,,,,,,,,,0,0,0,0,1,,,,,,,,,,,,,,,,,,,,,,,,,,,,,,,,,,,,,,,,,,,,,,
843464,001,2022-11-21_24h54.29.729,Info_measure_main_exp,2022.2.2,Win32,63.85696041,,,,,,,,,,,,,,,,,,masks/mask_003.jpg,,,,,,,,,,,,,,,,,,,,,,,,,,,,,,,,,,,,,,,,,,,0,1,1,2,1,,,,,,,,,,,,,,,,,,,,,,,,,,,,,,,,,,,,,,,,,,,,,,
843464,001,2022-11-21_24h54.29.729,Info_measure_main_exp,2022.2.2,Win32,63.85696041,,,,,,,,,,,,,,,,,,masks/mask_002.jpg,,,,,,,,,,,,,,,,,,,,,,,,,,,,,,,,,,,,,,,,,,,0,2,2,1,1,,,,,,,,,,,,,,,,,,,,,,,,,,,,,,,,,,,,,,,,,,,,,,
843464,001,2022-11-21_24h54.29.729,Info_measure_main_exp,2022.2.2,Win32,63.85696041,,,,,,,,,,,,,,,,,,masks/mask_005.jpg,,,,,,,,,,,,,,,,,,,,,,,,,,,,,,,,,,,,,,,,,,,0,3,3,4,1,,,,,,,,,,,,,,,,,,,,,,,,,,,,,,,,,,,,,,,,,,,,,,
843464,001,2022-11-21_24h54.29.729,Info_measure_main_exp,2022.2.2,Win32,63.85696041,,,,,,,,,,,,,,,,,,masks/mask_004.jpg,,,,,,,,,,,,,,,,,,,,,,,,,,,,,,,,,,,,,,,,,,,0,4,4,3,1,,,,,,,,,,,,,,,,,,,,,,,,,,,,,,,,,,,,,,,,,,,,,,
843464,001,2022-11-21_24h54.29.729,Info_measure_main_exp,2022.2.2,Win32,63.85696041,,,,,,,,,,,,,,,,,,masks/mask_001.jpg,,,,,,,,,,,,,,,,,,,,,,,,,,,,,,,,,,,,,,,,,,,,,,,,0,0,0,0,1,,,,,,,,,,,,,,,,,,,,,,,,,,,,,,,,,,,,,,,,,
843464,001,2022-11-21_24h54.29.729,Info_measure_main_exp,2022.2.2,Win32,63.85696041,,,,,,,,,,,,,,,,,,masks/mask_004.jpg,,,,,,,,,,,,,,,,,,,,,,,,,,,,,,,,,,,,,,,,,,,,,,,,0,1,1,3,1,,,,,,,,,,,,,,,,,,,,,,,,,,,,,,,,,,,,,,,,,
843464,001,2022-11-21_24h54.29.729,Info_measure_main_exp,2022.2.2,Win32,63.85696041,,,,,,,,,,,,,,,,,,masks/mask_002.jpg,,,,,,,,,,,,,,,,,,,,,,,,,,,,,,,,,,,,,,,,,,,,,,,,0,2,2,1,1,,,,,,,,,,,,,,,,,,,,,,,,,,,,,,,,,,,,,,,,,
843464,001,2022-11-21_24h54.29.729,Info_measure_main_exp,2022.2.2,Win32,63.85696041,,,,,,,,,,,,,,,,,,masks/mask_005.jpg,,,,,,,,,,,,,,,,,,,,,,,,,,,,,,,,,,,,,,,,,,,,,,,,0,3,3,4,1,,,,,,,,,,,,,,,,,,,,,,,,,,,,,,,,,,,,,,,,,
843464,001,2022-11-21_24h54.29.729,Info_measure_main_exp,2022.2.2,Win32,63.85696041,,,,,,,,,,,,,,,,,,masks/mask_003.jpg,,,,,,,,,,,,,,,,,,,,,,,,,,,,,,,,,,,,,,,,,,,,,,,,0,4,4,2,1,,,,,,,,,,,,,,,,,,,,,,,,,,,,,,,,,,,,,,,,,
843464,001,2022-11-21_24h54.29.729,Info_measure_main_exp,2022.2.2,Win32,63.85696041,,,,,,,,,,,,,,,,,,,,,,,,,,,,,,0,0.5584,1,,,,,,,,,,,,0,131,5,5,2178,2178,absent_patch/patch0002178.jpg,absent_patch/patch0002178.jpg,,,,,,,,,,,,,,,,,,,,-0.038888889,0.128703704,1,0,0,response7disk,23,-0.005555556,-0.008333333,1,0,0,center_square,0,22,22,98,1,,,,,,,,,,,,,,,,,,,,,,,
843464,001,2022-11-21_24h54.29.729,Info_measure_main_exp,2022.2.2,Win32,63.85696041,,,,,,,,,,,,,,,,,,masks/mask_004.jpg,,,,,,,,,,,,,,,,,,,,,,,,,,,,,,,,,,,,,,,,,,,0,0,0,3,1,,,,,,,,,,,,,,,,,,,,,,,,,,,,,,,,,,,,,,,,,,,,,,
843464,001,2022-11-21_24h54.29.729,Info_measure_main_exp,2022.2.2,Win32,63.85696041,,,,,,,,,,,,,,,,,,masks/mask_003.jpg,,,,,,,,,,,,,,,,,,,,,,,,,,,,,,,,,,,,,,,,,,,0,1,1,2,1,,,,,,,,,,,,,,,,,,,,,,,,,,,,,,,,,,,,,,,,,,,,,,
843464,001,2022-11-21_24h54.29.729,Info_measure_main_exp,2022.2.2,Win32,63.85696041,,,,,,,,,,,,,,,,,,masks/mask_005.jpg,,,,,,,,,,,,,,,,,,,,,,,,,,,,,,,,,,,,,,,,,,,0,2,2,4,1,,,,,,,,,,,,,,,,,,,,,,,,,,,,,,,,,,,,,,,,,,,,,,
843464,001,2022-11-21_24h54.29.729,Info_measure_main_exp,2022.2.2,Win32,63.85696041,,,,,,,,,,,,,,,,,,masks/mask_002.jpg,,,,,,,,,,,,,,,,,,,,,,,,,,,,,,,,,,,,,,,,,,,0,3,3,1,1,,,,,,,,,,,,,,,,,,,,,,,,,,,,,,,,,,,,,,,,,,,,,,
843464,001,2022-11-21_24h54.29.729,Info_measure_main_exp,2022.2.2,Win32,63.85696041,,,,,,,,,,,,,,,,,,masks/mask_001.jpg,,,,,,,,,,,,,,,,,,,,,,,,,,,,,,,,,,,,,,,,,,,0,4,4,0,1,,,,,,,,,,,,,,,,,,,,,,,,,,,,,,,,,,,,,,,,,,,,,,
843464,001,2022-11-21_24h54.29.729,Info_measure_main_exp,2022.2.2,Win32,63.85696041,,,,,,,,,,,,,,,,,,masks/mask_002.jpg,,,,,,,,,,,,,,,,,,,,,,,,,,,,,,,,,,,,,,,,,,,,,,,,0,0,0,1,1,,,,,,,,,,,,,,,,,,,,,,,,,,,,,,,,,,,,,,,,,
843464,001,2022-11-21_24h54.29.729,Info_measure_main_exp,2022.2.2,Win32,63.85696041,,,,,,,,,,,,,,,,,,masks/mask_004.jpg,,,,,,,,,,,,,,,,,,,,,,,,,,,,,,,,,,,,,,,,,,,,,,,,0,1,1,3,1,,,,,,,,,,,,,,,,,,,,,,,,,,,,,,,,,,,,,,,,,
843464,001,2022-11-21_24h54.29.729,Info_measure_main_exp,2022.2.2,Win32,63.85696041,,,,,,,,,,,,,,,,,,masks/mask_005.jpg,,,,,,,,,,,,,,,,,,,,,,,,,,,,,,,,,,,,,,,,,,,,,,,,0,2,2,4,1,,,,,,,,,,,,,,,,,,,,,,,,,,,,,,,,,,,,,,,,,
843464,001,2022-11-21_24h54.29.729,Info_measure_main_exp,2022.2.2,Win32,63.85696041,,,,,,,,,,,,,,,,,,masks/mask_001.jpg,,,,,,,,,,,,,,,,,,,,,,,,,,,,,,,,,,,,,,,,,,,,,,,,0,3,3,0,1,,,,,,,,,,,,,,,,,,,,,,,,,,,,,,,,,,,,,,,,,
843464,001,2022-11-21_24h54.29.729,Info_measure_main_exp,2022.2.2,Win32,63.85696041,,,,,,,,,,,,,,,,,,masks/mask_003.jpg,,,,,,,,,,,,,,,,,,,,,,,,,,,,,,,,,,,,,,,,,,,,,,,,0,4,4,2,1,,,,,,,,,,,,,,,,,,,,,,,,,,,,,,,,,,,,,,,,,
843464,001,2022-11-21_24h54.29.729,Info_measure_main_exp,2022.2.2,Win32,63.85696041,,,,,,,,,,,,,,,,,,,,,,,,,,,,,,1,1.9078,1,,,,,,,,,,,,1,131,5,5,1,2154,present_patch/cong_131_5_a.jpg,absent_patch/patch0002154.jpg,,,,,,,,,,,,,,,,,,,,-0.101851852,0.014814815,1,0,0,response7disk,24,0.000925926,0.001851852,1,0,0,center_square,0,23,23,87,1,,,,,,,,,,,,,,,,,,,,,,,
843464,001,2022-11-21_24h54.29.729,Info_measure_main_exp,2022.2.2,Win32,63.85696041,,,,,,,,,,,,,,,,,,masks/mask_002.jpg,,,,,,,,,,,,,,,,,,,,,,,,,,,,,,,,,,,,,,,,,,,0,0,0,1,1,,,,,,,,,,,,,,,,,,,,,,,,,,,,,,,,,,,,,,,,,,,,,,
843464,001,2022-11-21_24h54.29.729,Info_measure_main_exp,2022.2.2,Win32,63.85696041,,,,,,,,,,,,,,,,,,masks/mask_001.jpg,,,,,,,,,,,,,,,,,,,,,,,,,,,,,,,,,,,,,,,,,,,0,1,1,0,1,,,,,,,,,,,,,,,,,,,,,,,,,,,,,,,,,,,,,,,,,,,,,,
843464,001,2022-11-21_24h54.29.729,Info_measure_main_exp,2022.2.2,Win32,63.85696041,,,,,,,,,,,,,,,,,,masks/mask_005.jpg,,,,,,,,,,,,,,,,,,,,,,,,,,,,,,,,,,,,,,,,,,,0,2,2,4,1,,,,,,,,,,,,,,,,,,,,,,,,,,,,,,,,,,,,,,,,,,,,,,
843464,001,2022-11-21_24h54.29.729,Info_measure_main_exp,2022.2.2,Win32,63.85696041,,,,,,,,,,,,,,,,,,masks/mask_004.jpg,,,,,,,,,,,,,,,,,,,,,,,,,,,,,,,,,,,,,,,,,,,0,3,3,3,1,,,,,,,,,,,,,,,,,,,,,,,,,,,,,,,,,,,,,,,,,,,,,,
843464,001,2022-11-21_24h54.29.729,Info_measure_main_exp,2022.2.2,Win32,63.85696041,,,,,,,,,,,,,,,,,,masks/mask_003.jpg,,,,,,,,,,,,,,,,,,,,,,,,,,,,,,,,,,,,,,,,,,,0,4,4,2,1,,,,,,,,,,,,,,,,,,,,,,,,,,,,,,,,,,,,,,,,,,,,,,
843464,001,2022-11-21_24h54.29.729,Info_measure_main_exp,2022.2.2,Win32,63.85696041,,,,,,,,,,,,,,,,,,masks/mask_005.jpg,,,,,,,,,,,,,,,,,,,,,,,,,,,,,,,,,,,,,,,,,,,,,,,,0,0,0,4,1,,,,,,,,,,,,,,,,,,,,,,,,,,,,,,,,,,,,,,,,,
843464,001,2022-11-21_24h54.29.729,Info_measure_main_exp,2022.2.2,Win32,63.85696041,,,,,,,,,,,,,,,,,,masks/mask_004.jpg,,,,,,,,,,,,,,,,,,,,,,,,,,,,,,,,,,,,,,,,,,,,,,,,0,1,1,3,1,,,,,,,,,,,,,,,,,,,,,,,,,,,,,,,,,,,,,,,,,
843464,001,2022-11-21_24h54.29.729,Info_measure_main_exp,2022.2.2,Win32,63.85696041,,,,,,,,,,,,,,,,,,masks/mask_003.jpg,,,,,,,,,,,,,,,,,,,,,,,,,,,,,,,,,,,,,,,,,,,,,,,,0,2,2,2,1,,,,,,,,,,,,,,,,,,,,,,,,,,,,,,,,,,,,,,,,,
843464,001,2022-11-21_24h54.29.729,Info_measure_main_exp,2022.2.2,Win32,63.85696041,,,,,,,,,,,,,,,,,,masks/mask_002.jpg,,,,,,,,,,,,,,,,,,,,,,,,,,,,,,,,,,,,,,,,,,,,,,,,0,3,3,1,1,,,,,,,,,,,,,,,,,,,,,,,,,,,,,,,,,,,,,,,,,
843464,001,2022-11-21_24h54.29.729,Info_measure_main_exp,2022.2.2,Win32,63.85696041,,,,,,,,,,,,,,,,,,masks/mask_001.jpg,,,,,,,,,,,,,,,,,,,,,,,,,,,,,,,,,,,,,,,,,,,,,,,,0,4,4,0,1,,,,,,,,,,,,,,,,,,,,,,,,,,,,,,,,,,,,,,,,,
843464,001,2022-11-21_24h54.29.729,Info_measure_main_exp,2022.2.2,Win32,63.85696041,,,,,,,,,,,,,,,,,,,,,,,,,,,,,,4,0.9467,1,,,,,,,,,,,,0,131,5,5,2154,2298,absent_patch/patch0002154.jpg,absent_patch/patch0002298.jpg,,,,,,,,,,,,,,,,,,,,0.022222222,-0.147222222,1,0,0,response3disk,25,0.001851852,-0.006481481,1,0,0,center_square,0,24,24,27,1,,,,,,,,,,,,,,,,,,,,,,,
843464,001,2022-11-21_24h54.29.729,Info_measure_main_exp,2022.2.2,Win32,63.85696041,,,,,,,,,,,,,,,,,,masks/mask_004.jpg,,,,,,,,,,,,,,,,,,,,,,,,,,,,,,,,,,,,,,,,,,,0,0,0,3,1,,,,,,,,,,,,,,,,,,,,,,,,,,,,,,,,,,,,,,,,,,,,,,
843464,001,2022-11-21_24h54.29.729,Info_measure_main_exp,2022.2.2,Win32,63.85696041,,,,,,,,,,,,,,,,,,masks/mask_002.jpg,,,,,,,,,,,,,,,,,,,,,,,,,,,,,,,,,,,,,,,,,,,0,1,1,1,1,,,,,,,,,,,,,,,,,,,,,,,,,,,,,,,,,,,,,,,,,,,,,,
843464,001,2022-11-21_24h54.29.729,Info_measure_main_exp,2022.2.2,Win32,63.85696041,,,,,,,,,,,,,,,,,,masks/mask_001.jpg,,,,,,,,,,,,,,,,,,,,,,,,,,,,,,,,,,,,,,,,,,,0,2,2,0,1,,,,,,,,,,,,,,,,,,,,,,,,,,,,,,,,,,,,,,,,,,,,,,
843464,001,2022-11-21_24h54.29.729,Info_measure_main_exp,2022.2.2,Win32,63.85696041,,,,,,,,,,,,,,,,,,masks/mask_005.jpg,,,,,,,,,,,,,,,,,,,,,,,,,,,,,,,,,,,,,,,,,,,0,3,3,4,1,,,,,,,,,,,,,,,,,,,,,,,,,,,,,,,,,,,,,,,,,,,,,,
843464,001,2022-11-21_24h54.29.729,Info_measure_main_exp,2022.2.2,Win32,63.85696041,,,,,,,,,,,,,,,,,,masks/mask_003.jpg,,,,,,,,,,,,,,,,,,,,,,,,,,,,,,,,,,,,,,,,,,,0,4,4,2,1,,,,,,,,,,,,,,,,,,,,,,,,,,,,,,,,,,,,,,,,,,,,,,
843464,001,2022-11-21_24h54.29.729,Info_measure_main_exp,2022.2.2,Win32,63.85696041,,,,,,,,,,,,,,,,,,masks/mask_002.jpg,,,,,,,,,,,,,,,,,,,,,,,,,,,,,,,,,,,,,,,,,,,,,,,,0,0,0,1,1,,,,,,,,,,,,,,,,,,,,,,,,,,,,,,,,,,,,,,,,,
843464,001,2022-11-21_24h54.29.729,Info_measure_main_exp,2022.2.2,Win32,63.85696041,,,,,,,,,,,,,,,,,,masks/mask_003.jpg,,,,,,,,,,,,,,,,,,,,,,,,,,,,,,,,,,,,,,,,,,,,,,,,0,1,1,2,1,,,,,,,,,,,,,,,,,,,,,,,,,,,,,,,,,,,,,,,,,
843464,001,2022-11-21_24h54.29.729,Info_measure_main_exp,2022.2.2,Win32,63.85696041,,,,,,,,,,,,,,,,,,masks/mask_001.jpg,,,,,,,,,,,,,,,,,,,,,,,,,,,,,,,,,,,,,,,,,,,,,,,,0,2,2,0,1,,,,,,,,,,,,,,,,,,,,,,,,,,,,,,,,,,,,,,,,,
843464,001,2022-11-21_24h54.29.729,Info_measure_main_exp,2022.2.2,Win32,63.85696041,,,,,,,,,,,,,,,,,,masks/mask_005.jpg,,,,,,,,,,,,,,,,,,,,,,,,,,,,,,,,,,,,,,,,,,,,,,,,0,3,3,4,1,,,,,,,,,,,,,,,,,,,,,,,,,,,,,,,,,,,,,,,,,
843464,001,2022-11-21_24h54.29.729,Info_measure_main_exp,2022.2.2,Win32,63.85696041,,,,,,,,,,,,,,,,,,masks/mask_004.jpg,,,,,,,,,,,,,,,,,,,,,,,,,,,,,,,,,,,,,,,,,,,,,,,,0,4,4,3,1,,,,,,,,,,,,,,,,,,,,,,,,,,,,,,,,,,,,,,,,,
843464,001,2022-11-21_24h54.29.729,Info_measure_main_exp,2022.2.2,Win32,63.85696041,,,,,,,,,,,,,,,,,,,,,,,,,,,,,,3,0.7266,1,,,,,,,,,,,,1,131,5,5,2238,1,absent_patch/patch0002238.jpg,present_patch/cong_131_5_a.jpg,,,,,,,,,,,,,,,,,,,,-0.034259259,-0.077777778,1,0,0,response5disk,26,-0.00462963,0.000925926,1,0,0,center_square,0,25,25,104,1,,,,,,,,,,,,,,,,,,,,,,,
843464,001,2022-11-21_24h54.29.729,Info_measure_main_exp,2022.2.2,Win32,63.85696041,,,,,,,,,,,,,,,,,,masks/mask_005.jpg,,,,,,,,,,,,,,,,,,,,,,,,,,,,,,,,,,,,,,,,,,,0,0,0,4,1,,,,,,,,,,,,,,,,,,,,,,,,,,,,,,,,,,,,,,,,,,,,,,
843464,001,2022-11-21_24h54.29.729,Info_measure_main_exp,2022.2.2,Win32,63.85696041,,,,,,,,,,,,,,,,,,masks/mask_004.jpg,,,,,,,,,,,,,,,,,,,,,,,,,,,,,,,,,,,,,,,,,,,0,1,1,3,1,,,,,,,,,,,,,,,,,,,,,,,,,,,,,,,,,,,,,,,,,,,,,,
843464,001,2022-11-21_24h54.29.729,Info_measure_main_exp,2022.2.2,Win32,63.85696041,,,,,,,,,,,,,,,,,,masks/mask_003.jpg,,,,,,,,,,,,,,,,,,,,,,,,,,,,,,,,,,,,,,,,,,,0,2,2,2,1,,,,,,,,,,,,,,,,,,,,,,,,,,,,,,,,,,,,,,,,,,,,,,
843464,001,2022-11-21_24h54.29.729,Info_measure_main_exp,2022.2.2,Win32,63.85696041,,,,,,,,,,,,,,,,,,masks/mask_002.jpg,,,,,,,,,,,,,,,,,,,,,,,,,,,,,,,,,,,,,,,,,,,0,3,3,1,1,,,,,,,,,,,,,,,,,,,,,,,,,,,,,,,,,,,,,,,,,,,,,,
843464,001,2022-11-21_24h54.29.729,Info_measure_main_exp,2022.2.2,Win32,63.85696041,,,,,,,,,,,,,,,,,,masks/mask_001.jpg,,,,,,,,,,,,,,,,,,,,,,,,,,,,,,,,,,,,,,,,,,,0,4,4,0,1,,,,,,,,,,,,,,,,,,,,,,,,,,,,,,,,,,,,,,,,,,,,,,
843464,001,2022-11-21_24h54.29.729,Info_measure_main_exp,2022.2.2,Win32,63.85696041,,,,,,,,,,,,,,,,,,masks/mask_005.jpg,,,,,,,,,,,,,,,,,,,,,,,,,,,,,,,,,,,,,,,,,,,,,,,,0,0,0,4,1,,,,,,,,,,,,,,,,,,,,,,,,,,,,,,,,,,,,,,,,,
843464,001,2022-11-21_24h54.29.729,Info_measure_main_exp,2022.2.2,Win32,63.85696041,,,,,,,,,,,,,,,,,,masks/mask_001.jpg,,,,,,,,,,,,,,,,,,,,,,,,,,,,,,,,,,,,,,,,,,,,,,,,0,1,1,0,1,,,,,,,,,,,,,,,,,,,,,,,,,,,,,,,,,,,,,,,,,
843464,001,2022-11-21_24h54.29.729,Info_measure_main_exp,2022.2.2,Win32,63.85696041,,,,,,,,,,,,,,,,,,masks/mask_003.jpg,,,,,,,,,,,,,,,,,,,,,,,,,,,,,,,,,,,,,,,,,,,,,,,,0,2,2,2,1,,,,,,,,,,,,,,,,,,,,,,,,,,,,,,,,,,,,,,,,,
843464,001,2022-11-21_24h54.29.729,Info_measure_main_exp,2022.2.2,Win32,63.85696041,,,,,,,,,,,,,,,,,,masks/mask_002.jpg,,,,,,,,,,,,,,,,,,,,,,,,,,,,,,,,,,,,,,,,,,,,,,,,0,3,3,1,1,,,,,,,,,,,,,,,,,,,,,,,,,,,,,,,,,,,,,,,,,
843464,001,2022-11-21_24h54.29.729,Info_measure_main_exp,2022.2.2,Win32,63.85696041,,,,,,,,,,,,,,,,,,masks/mask_004.jpg,,,,,,,,,,,,,,,,,,,,,,,,,,,,,,,,,,,,,,,,,,,,,,,,0,4,4,3,1,,,,,,,,,,,,,,,,,,,,,,,,,,,,,,,,,,,,,,,,,
843464,001,2022-11-21_24h54.29.729,Info_measure_main_exp,2022.2.2,Win32,63.85696041,,,,,,,,,,,,,,,,,,,,,,,,,,,,,,2,2.2701,1,,,,,,,,,,,,0,131,5,5,2082,2298,absent_patch/patch0002082.jpg,absent_patch/patch0002298.jpg,,,,,,,,,,,,,,,,,,,,-0.128703704,-0.060185185,1,0,0,response5disk,27,0.012037037,0.005555556,1,0,0,center_square,0,26,26,107,1,,,,,,,,,,,,,,,,,,,,,,,
843464,001,2022-11-21_24h54.29.729,Info_measure_main_exp,2022.2.2,Win32,63.85696041,,,,,,,,,,,,,,,,,,masks/mask_004.jpg,,,,,,,,,,,,,,,,,,,,,,,,,,,,,,,,,,,,,,,,,,,0,0,0,3,1,,,,,,,,,,,,,,,,,,,,,,,,,,,,,,,,,,,,,,,,,,,,,,
843464,001,2022-11-21_24h54.29.729,Info_measure_main_exp,2022.2.2,Win32,63.85696041,,,,,,,,,,,,,,,,,,masks/mask_003.jpg,,,,,,,,,,,,,,,,,,,,,,,,,,,,,,,,,,,,,,,,,,,0,1,1,2,1,,,,,,,,,,,,,,,,,,,,,,,,,,,,,,,,,,,,,,,,,,,,,,
843464,001,2022-11-21_24h54.29.729,Info_measure_main_exp,2022.2.2,Win32,63.85696041,,,,,,,,,,,,,,,,,,masks/mask_002.jpg,,,,,,,,,,,,,,,,,,,,,,,,,,,,,,,,,,,,,,,,,,,0,2,2,1,1,,,,,,,,,,,,,,,,,,,,,,,,,,,,,,,,,,,,,,,,,,,,,,
843464,001,2022-11-21_24h54.29.729,Info_measure_main_exp,2022.2.2,Win32,63.85696041,,,,,,,,,,,,,,,,,,masks/mask_005.jpg,,,,,,,,,,,,,,,,,,,,,,,,,,,,,,,,,,,,,,,,,,,0,3,3,4,1,,,,,,,,,,,,,,,,,,,,,,,,,,,,,,,,,,,,,,,,,,,,,,
843464,001,2022-11-21_24h54.29.729,Info_measure_main_exp,2022.2.2,Win32,63.85696041,,,,,,,,,,,,,,,,,,masks/mask_001.jpg,,,,,,,,,,,,,,,,,,,,,,,,,,,,,,,,,,,,,,,,,,,0,4,4,0,1,,,,,,,,,,,,,,,,,,,,,,,,,,,,,,,,,,,,,,,,,,,,,,
843464,001,2022-11-21_24h54.29.729,Info_measure_main_exp,2022.2.2,Win32,63.85696041,,,,,,,,,,,,,,,,,,masks/mask_003.jpg,,,,,,,,,,,,,,,,,,,,,,,,,,,,,,,,,,,,,,,,,,,,,,,,0,0,0,2,1,,,,,,,,,,,,,,,,,,,,,,,,,,,,,,,,,,,,,,,,,
843464,001,2022-11-21_24h54.29.729,Info_measure_main_exp,2022.2.2,Win32,63.85696041,,,,,,,,,,,,,,,,,,masks/mask_001.jpg,,,,,,,,,,,,,,,,,,,,,,,,,,,,,,,,,,,,,,,,,,,,,,,,0,1,1,0,1,,,,,,,,,,,,,,,,,,,,,,,,,,,,,,,,,,,,,,,,,
843464,001,2022-11-21_24h54.29.729,Info_measure_main_exp,2022.2.2,Win32,63.85696041,,,,,,,,,,,,,,,,,,masks/mask_005.jpg,,,,,,,,,,,,,,,,,,,,,,,,,,,,,,,,,,,,,,,,,,,,,,,,0,2,2,4,1,,,,,,,,,,,,,,,,,,,,,,,,,,,,,,,,,,,,,,,,,
843464,001,2022-11-21_24h54.29.729,Info_measure_main_exp,2022.2.2,Win32,63.85696041,,,,,,,,,,,,,,,,,,masks/mask_004.jpg,,,,,,,,,,,,,,,,,,,,,,,,,,,,,,,,,,,,,,,,,,,,,,,,0,3,3,3,1,,,,,,,,,,,,,,,,,,,,,,,,,,,,,,,,,,,,,,,,,
843464,001,2022-11-21_24h54.29.729,Info_measure_main_exp,2022.2.2,Win32,63.85696041,,,,,,,,,,,,,,,,,,masks/mask_002.jpg,,,,,,,,,,,,,,,,,,,,,,,,,,,,,,,,,,,,,,,,,,,,,,,,0,4,4,1,1,,,,,,,,,,,,,,,,,,,,,,,,,,,,,,,,,,,,,,,,,
843464,001,2022-11-21_24h54.29.729,Info_measure_main_exp,2022.2.2,Win32,63.85696041,,,,,,,,,,,,,,,,,,,,,,,,,,,,,,5,1.2595,1,,,,,,,,,,,,0,131,5,5,2190,2166,absent_patch/patch0002190.jpg,absent_patch/patch0002166.jpg,,,,,,,,,,,,,,,,,,,,0.143518519,-0.094444444,1,0,0,response3disk,28,0.002777778,-0.014814815,1,0,0,center_square,0,27,27,50,1,,,,,,,,,,,,,,,,,,,,,,,
843464,001,2022-11-21_24h54.29.729,Info_measure_main_exp,2022.2.2,Win32,63.85696041,,,,,,,,,,,,,,,,,,masks/mask_005.jpg,,,,,,,,,,,,,,,,,,,,,,,,,,,,,,,,,,,,,,,,,,,0,0,0,4,1,,,,,,,,,,,,,,,,,,,,,,,,,,,,,,,,,,,,,,,,,,,,,,
843464,001,2022-11-21_24h54.29.729,Info_measure_main_exp,2022.2.2,Win32,63.85696041,,,,,,,,,,,,,,,,,,masks/mask_003.jpg,,,,,,,,,,,,,,,,,,,,,,,,,,,,,,,,,,,,,,,,,,,0,1,1,2,1,,,,,,,,,,,,,,,,,,,,,,,,,,,,,,,,,,,,,,,,,,,,,,
843464,001,2022-11-21_24h54.29.729,Info_measure_main_exp,2022.2.2,Win32,63.85696041,,,,,,,,,,,,,,,,,,masks/mask_002.jpg,,,,,,,,,,,,,,,,,,,,,,,,,,,,,,,,,,,,,,,,,,,0,2,2,1,1,,,,,,,,,,,,,,,,,,,,,,,,,,,,,,,,,,,,,,,,,,,,,,
843464,001,2022-11-21_24h54.29.729,Info_measure_main_exp,2022.2.2,Win32,63.85696041,,,,,,,,,,,,,,,,,,masks/mask_001.jpg,,,,,,,,,,,,,,,,,,,,,,,,,,,,,,,,,,,,,,,,,,,0,3,3,0,1,,,,,,,,,,,,,,,,,,,,,,,,,,,,,,,,,,,,,,,,,,,,,,
843464,001,2022-11-21_24h54.29.729,Info_measure_main_exp,2022.2.2,Win32,63.85696041,,,,,,,,,,,,,,,,,,masks/mask_004.jpg,,,,,,,,,,,,,,,,,,,,,,,,,,,,,,,,,,,,,,,,,,,0,4,4,3,1,,,,,,,,,,,,,,,,,,,,,,,,,,,,,,,,,,,,,,,,,,,,,,
843464,001,2022-11-21_24h54.29.729,Info_measure_main_exp,2022.2.2,Win32,63.85696041,,,,,,,,,,,,,,,,,,masks/mask_005.jpg,,,,,,,,,,,,,,,,,,,,,,,,,,,,,,,,,,,,,,,,,,,,,,,,0,0,0,4,1,,,,,,,,,,,,,,,,,,,,,,,,,,,,,,,,,,,,,,,,,
843464,001,2022-11-21_24h54.29.729,Info_measure_main_exp,2022.2.2,Win32,63.85696041,,,,,,,,,,,,,,,,,,masks/mask_001.jpg,,,,,,,,,,,,,,,,,,,,,,,,,,,,,,,,,,,,,,,,,,,,,,,,0,1,1,0,1,,,,,,,,,,,,,,,,,,,,,,,,,,,,,,,,,,,,,,,,,
843464,001,2022-11-21_24h54.29.729,Info_measure_main_exp,2022.2.2,Win32,63.85696041,,,,,,,,,,,,,,,,,,masks/mask_004.jpg,,,,,,,,,,,,,,,,,,,,,,,,,,,,,,,,,,,,,,,,,,,,,,,,0,2,2,3,1,,,,,,,,,,,,,,,,,,,,,,,,,,,,,,,,,,,,,,,,,
843464,001,2022-11-21_24h54.29.729,Info_measure_main_exp,2022.2.2,Win32,63.85696041,,,,,,,,,,,,,,,,,,masks/mask_003.jpg,,,,,,,,,,,,,,,,,,,,,,,,,,,,,,,,,,,,,,,,,,,,,,,,0,3,3,2,1,,,,,,,,,,,,,,,,,,,,,,,,,,,,,,,,,,,,,,,,,
843464,001,2022-11-21_24h54.29.729,Info_measure_main_exp,2022.2.2,Win32,63.85696041,,,,,,,,,,,,,,,,,,masks/mask_002.jpg,,,,,,,,,,,,,,,,,,,,,,,,,,,,,,,,,,,,,,,,,,,,,,,,0,4,4,1,1,,,,,,,,,,,,,,,,,,,,,,,,,,,,,,,,,,,,,,,,,
843464,001,2022-11-21_24h54.29.729,Info_measure_main_exp,2022.2.2,Win32,63.85696041,,,,,,,,,,,,,,,,,,,,,,,,,,,,,,3,2.1412,1,,,,,,,,,,,,0,131,5,5,1950,2214,absent_patch/patch0001950.jpg,absent_patch/patch0002214.jpg,,,,,,,,,,,,,,,,,,,,-0.059259259,-0.135185185,1,0,0,response5disk,29,0.000925926,0,1,0,0,center_square,0,28,28,85,1,,,,,,,,,,,,,,,,,,,,,,,
843464,001,2022-11-21_24h54.29.729,Info_measure_main_exp,2022.2.2,Win32,63.85696041,,,,,,,,,,,,,,,,,,masks/mask_001.jpg,,,,,,,,,,,,,,,,,,,,,,,,,,,,,,,,,,,,,,,,,,,0,0,0,0,1,,,,,,,,,,,,,,,,,,,,,,,,,,,,,,,,,,,,,,,,,,,,,,
843464,001,2022-11-21_24h54.29.729,Info_measure_main_exp,2022.2.2,Win32,63.85696041,,,,,,,,,,,,,,,,,,masks/mask_004.jpg,,,,,,,,,,,,,,,,,,,,,,,,,,,,,,,,,,,,,,,,,,,0,1,1,3,1,,,,,,,,,,,,,,,,,,,,,,,,,,,,,,,,,,,,,,,,,,,,,,
843464,001,2022-11-21_24h54.29.729,Info_measure_main_exp,2022.2.2,Win32,63.85696041,,,,,,,,,,,,,,,,,,masks/mask_003.jpg,,,,,,,,,,,,,,,,,,,,,,,,,,,,,,,,,,,,,,,,,,,0,2,2,2,1,,,,,,,,,,,,,,,,,,,,,,,,,,,,,,,,,,,,,,,,,,,,,,
843464,001,2022-11-21_24h54.29.729,Info_measure_main_exp,2022.2.2,Win32,63.85696041,,,,,,,,,,,,,,,,,,masks/mask_002.jpg,,,,,,,,,,,,,,,,,,,,,,,,,,,,,,,,,,,,,,,,,,,0,3,3,1,1,,,,,,,,,,,,,,,,,,,,,,,,,,,,,,,,,,,,,,,,,,,,,,
843464,001,2022-11-21_24h54.29.729,Info_measure_main_exp,2022.2.2,Win32,63.85696041,,,,,,,,,,,,,,,,,,masks/mask_005.jpg,,,,,,,,,,,,,,,,,,,,,,,,,,,,,,,,,,,,,,,,,,,0,4,4,4,1,,,,,,,,,,,,,,,,,,,,,,,,,,,,,,,,,,,,,,,,,,,,,,
843464,001,2022-11-21_24h54.29.729,Info_measure_main_exp,2022.2.2,Win32,63.85696041,,,,,,,,,,,,,,,,,,masks/mask_005.jpg,,,,,,,,,,,,,,,,,,,,,,,,,,,,,,,,,,,,,,,,,,,,,,,,0,0,0,4,1,,,,,,,,,,,,,,,,,,,,,,,,,,,,,,,,,,,,,,,,,
843464,001,2022-11-21_24h54.29.729,Info_measure_main_exp,2022.2.2,Win32,63.85696041,,,,,,,,,,,,,,,,,,masks/mask_003.jpg,,,,,,,,,,,,,,,,,,,,,,,,,,,,,,,,,,,,,,,,,,,,,,,,0,1,1,2,1,,,,,,,,,,,,,,,,,,,,,,,,,,,,,,,,,,,,,,,,,
843464,001,2022-11-21_24h54.29.729,Info_measure_main_exp,2022.2.2,Win32,63.85696041,,,,,,,,,,,,,,,,,,masks/mask_004.jpg,,,,,,,,,,,,,,,,,,,,,,,,,,,,,,,,,,,,,,,,,,,,,,,,0,2,2,3,1,,,,,,,,,,,,,,,,,,,,,,,,,,,,,,,,,,,,,,,,,
843464,001,2022-11-21_24h54.29.729,Info_measure_main_exp,2022.2.2,Win32,63.85696041,,,,,,,,,,,,,,,,,,masks/mask_002.jpg,,,,,,,,,,,,,,,,,,,,,,,,,,,,,,,,,,,,,,,,,,,,,,,,0,3,3,1,1,,,,,,,,,,,,,,,,,,,,,,,,,,,,,,,,,,,,,,,,,
843464,001,2022-11-21_24h54.29.729,Info_measure_main_exp,2022.2.2,Win32,63.85696041,,,,,,,,,,,,,,,,,,masks/mask_001.jpg,,,,,,,,,,,,,,,,,,,,,,,,,,,,,,,,,,,,,,,,,,,,,,,,0,4,4,0,1,,,,,,,,,,,,,,,,,,,,,,,,,,,,,,,,,,,,,,,,,
843464,001,2022-11-21_24h54.29.729,Info_measure_main_exp,2022.2.2,Win32,63.85696041,,,,,,,,,,,,,,,,,,,,,,,,,,,,,,5,0.7588,1,,,,,,,,,,,,0,131,5,5,2238,2298,absent_patch/patch0002238.jpg,absent_patch/patch0002298.jpg,,,,,,,,,,,,,,,,,,,,0.143518519,-0.075925926,1,0,0,response3disk,30,0.013888889,-0.007407407,1,0,0,center_square,0,29,29,51,1,,,,,,,,,,,,,,,,,,,,,,,
843464,001,2022-11-21_24h54.29.729,Info_measure_main_exp,2022.2.2,Win32,63.85696041,,,,,,,,,,,,,,,,,,masks/mask_003.jpg,,,,,,,,,,,,,,,,,,,,,,,,,,,,,,,,,,,,,,,,,,,0,0,0,2,1,,,,,,,,,,,,,,,,,,,,,,,,,,,,,,,,,,,,,,,,,,,,,,
843464,001,2022-11-21_24h54.29.729,Info_measure_main_exp,2022.2.2,Win32,63.85696041,,,,,,,,,,,,,,,,,,masks/mask_004.jpg,,,,,,,,,,,,,,,,,,,,,,,,,,,,,,,,,,,,,,,,,,,0,1,1,3,1,,,,,,,,,,,,,,,,,,,,,,,,,,,,,,,,,,,,,,,,,,,,,,
843464,001,2022-11-21_24h54.29.729,Info_measure_main_exp,2022.2.2,Win32,63.85696041,,,,,,,,,,,,,,,,,,masks/mask_005.jpg,,,,,,,,,,,,,,,,,,,,,,,,,,,,,,,,,,,,,,,,,,,0,2,2,4,1,,,,,,,,,,,,,,,,,,,,,,,,,,,,,,,,,,,,,,,,,,,,,,
843464,001,2022-11-21_24h54.29.729,Info_measure_main_exp,2022.2.2,Win32,63.85696041,,,,,,,,,,,,,,,,,,masks/mask_001.jpg,,,,,,,,,,,,,,,,,,,,,,,,,,,,,,,,,,,,,,,,,,,0,3,3,0,1,,,,,,,,,,,,,,,,,,,,,,,,,,,,,,,,,,,,,,,,,,,,,,
843464,001,2022-11-21_24h54.29.729,Info_measure_main_exp,2022.2.2,Win32,63.85696041,,,,,,,,,,,,,,,,,,masks/mask_002.jpg,,,,,,,,,,,,,,,,,,,,,,,,,,,,,,,,,,,,,,,,,,,0,4,4,1,1,,,,,,,,,,,,,,,,,,,,,,,,,,,,,,,,,,,,,,,,,,,,,,
843464,001,2022-11-21_24h54.29.729,Info_measure_main_exp,2022.2.2,Win32,63.85696041,,,,,,,,,,,,,,,,,,masks/mask_005.jpg,,,,,,,,,,,,,,,,,,,,,,,,,,,,,,,,,,,,,,,,,,,,,,,,0,0,0,4,1,,,,,,,,,,,,,,,,,,,,,,,,,,,,,,,,,,,,,,,,,
843464,001,2022-11-21_24h54.29.729,Info_measure_main_exp,2022.2.2,Win32,63.85696041,,,,,,,,,,,,,,,,,,masks/mask_003.jpg,,,,,,,,,,,,,,,,,,,,,,,,,,,,,,,,,,,,,,,,,,,,,,,,0,1,1,2,1,,,,,,,,,,,,,,,,,,,,,,,,,,,,,,,,,,,,,,,,,
843464,001,2022-11-21_24h54.29.729,Info_measure_main_exp,2022.2.2,Win32,63.85696041,,,,,,,,,,,,,,,,,,masks/mask_002.jpg,,,,,,,,,,,,,,,,,,,,,,,,,,,,,,,,,,,,,,,,,,,,,,,,0,2,2,1,1,,,,,,,,,,,,,,,,,,,,,,,,,,,,,,,,,,,,,,,,,
843464,001,2022-11-21_24h54.29.729,Info_measure_main_exp,2022.2.2,Win32,63.85696041,,,,,,,,,,,,,,,,,,masks/mask_001.jpg,,,,,,,,,,,,,,,,,,,,,,,,,,,,,,,,,,,,,,,,,,,,,,,,0,3,3,0,1,,,,,,,,,,,,,,,,,,,,,,,,,,,,,,,,,,,,,,,,,
843464,001,2022-11-21_24h54.29.729,Info_measure_main_exp,2022.2.2,Win32,63.85696041,,,,,,,,,,,,,,,,,,masks/mask_004.jpg,,,,,,,,,,,,,,,,,,,,,,,,,,,,,,,,,,,,,,,,,,,,,,,,0,4,4,3,1,,,,,,,,,,,,,,,,,,,,,,,,,,,,,,,,,,,,,,,,,
843464,001,2022-11-21_24h54.29.729,Info_measure_main_exp,2022.2.2,Win32,63.85696041,,,,,,,,,,,,,,,,,,,,,,,,,,,,,,5,1.5603,1,,,,,,,,,,,,0,131,5,5,2274,2178,absent_patch/patch0002274.jpg,absent_patch/patch0002178.jpg,,,,,,,,,,,,,,,,,,,,0.132407407,-0.063888889,1,0,0,response3disk,31,-0.012037037,-0.007407407,1,0,0,center_square,0,30,30,117,1,,,,,,,,,,,,,,,,,,,,,,,
843464,001,2022-11-21_24h54.29.729,Info_measure_main_exp,2022.2.2,Win32,63.85696041,,,,,,,,,,,,,,,,,,masks/mask_004.jpg,,,,,,,,,,,,,,,,,,,,,,,,,,,,,,,,,,,,,,,,,,,0,0,0,3,1,,,,,,,,,,,,,,,,,,,,,,,,,,,,,,,,,,,,,,,,,,,,,,
843464,001,2022-11-21_24h54.29.729,Info_measure_main_exp,2022.2.2,Win32,63.85696041,,,,,,,,,,,,,,,,,,masks/mask_002.jpg,,,,,,,,,,,,,,,,,,,,,,,,,,,,,,,,,,,,,,,,,,,0,1,1,1,1,,,,,,,,,,,,,,,,,,,,,,,,,,,,,,,,,,,,,,,,,,,,,,
843464,001,2022-11-21_24h54.29.729,Info_measure_main_exp,2022.2.2,Win32,63.85696041,,,,,,,,,,,,,,,,,,masks/mask_001.jpg,,,,,,,,,,,,,,,,,,,,,,,,,,,,,,,,,,,,,,,,,,,0,2,2,0,1,,,,,,,,,,,,,,,,,,,,,,,,,,,,,,,,,,,,,,,,,,,,,,
843464,001,2022-11-21_24h54.29.729,Info_measure_main_exp,2022.2.2,Win32,63.85696041,,,,,,,,,,,,,,,,,,masks/mask_003.jpg,,,,,,,,,,,,,,,,,,,,,,,,,,,,,,,,,,,,,,,,,,,0,3,3,2,1,,,,,,,,,,,,,,,,,,,,,,,,,,,,,,,,,,,,,,,,,,,,,,
843464,001,2022-11-21_24h54.29.729,Info_measure_main_exp,2022.2.2,Win32,63.85696041,,,,,,,,,,,,,,,,,,masks/mask_005.jpg,,,,,,,,,,,,,,,,,,,,,,,,,,,,,,,,,,,,,,,,,,,0,4,4,4,1,,,,,,,,,,,,,,,,,,,,,,,,,,,,,,,,,,,,,,,,,,,,,,
843464,001,2022-11-21_24h54.29.729,Info_measure_main_exp,2022.2.2,Win32,63.85696041,,,,,,,,,,,,,,,,,,masks/mask_004.jpg,,,,,,,,,,,,,,,,,,,,,,,,,,,,,,,,,,,,,,,,,,,,,,,,0,0,0,3,1,,,,,,,,,,,,,,,,,,,,,,,,,,,,,,,,,,,,,,,,,
843464,001,2022-11-21_24h54.29.729,Info_measure_main_exp,2022.2.2,Win32,63.85696041,,,,,,,,,,,,,,,,,,masks/mask_001.jpg,,,,,,,,,,,,,,,,,,,,,,,,,,,,,,,,,,,,,,,,,,,,,,,,0,1,1,0,1,,,,,,,,,,,,,,,,,,,,,,,,,,,,,,,,,,,,,,,,,
843464,001,2022-11-21_24h54.29.729,Info_measure_main_exp,2022.2.2,Win32,63.85696041,,,,,,,,,,,,,,,,,,masks/mask_003.jpg,,,,,,,,,,,,,,,,,,,,,,,,,,,,,,,,,,,,,,,,,,,,,,,,0,2,2,2,1,,,,,,,,,,,,,,,,,,,,,,,,,,,,,,,,,,,,,,,,,
843464,001,2022-11-21_24h54.29.729,Info_measure_main_exp,2022.2.2,Win32,63.85696041,,,,,,,,,,,,,,,,,,masks/mask_002.jpg,,,,,,,,,,,,,,,,,,,,,,,,,,,,,,,,,,,,,,,,,,,,,,,,0,3,3,1,1,,,,,,,,,,,,,,,,,,,,,,,,,,,,,,,,,,,,,,,,,
843464,001,2022-11-21_24h54.29.729,Info_measure_main_exp,2022.2.2,Win32,63.85696041,,,,,,,,,,,,,,,,,,masks/mask_005.jpg,,,,,,,,,,,,,,,,,,,,,,,,,,,,,,,,,,,,,,,,,,,,,,,,0,4,4,4,1,,,,,,,,,,,,,,,,,,,,,,,,,,,,,,,,,,,,,,,,,
843464,001,2022-11-21_24h54.29.729,Info_measure_main_exp,2022.2.2,Win32,63.85696041,,,,,,,,,,,,,,,,,,,,,,,,,,,,,,0,0.3431,1,,,,,,,,,,,,0,131,5,5,2274,2274,absent_patch/patch0002274.jpg,absent_patch/patch0002274.jpg,,,,,,,,,,,,,,,,,,,,-0.030555556,0.112962963,1,0,0,response7disk,32,0.008333333,-0.003703704,1,0,0,center_square,0,31,31,114,1,,,,,,,,,,,,,,,,,,,,,,,
843464,001,2022-11-21_24h54.29.729,Info_measure_main_exp,2022.2.2,Win32,63.85696041,,,,,,,,,,,,,,,,,,masks/mask_005.jpg,,,,,,,,,,,,,,,,,,,,,,,,,,,,,,,,,,,,,,,,,,,0,0,0,4,1,,,,,,,,,,,,,,,,,,,,,,,,,,,,,,,,,,,,,,,,,,,,,,
843464,001,2022-11-21_24h54.29.729,Info_measure_main_exp,2022.2.2,Win32,63.85696041,,,,,,,,,,,,,,,,,,masks/mask_002.jpg,,,,,,,,,,,,,,,,,,,,,,,,,,,,,,,,,,,,,,,,,,,0,1,1,1,1,,,,,,,,,,,,,,,,,,,,,,,,,,,,,,,,,,,,,,,,,,,,,,
843464,001,2022-11-21_24h54.29.729,Info_measure_main_exp,2022.2.2,Win32,63.85696041,,,,,,,,,,,,,,,,,,masks/mask_001.jpg,,,,,,,,,,,,,,,,,,,,,,,,,,,,,,,,,,,,,,,,,,,0,2,2,0,1,,,,,,,,,,,,,,,,,,,,,,,,,,,,,,,,,,,,,,,,,,,,,,
843464,001,2022-11-21_24h54.29.729,Info_measure_main_exp,2022.2.2,Win32,63.85696041,,,,,,,,,,,,,,,,,,masks/mask_004.jpg,,,,,,,,,,,,,,,,,,,,,,,,,,,,,,,,,,,,,,,,,,,0,3,3,3,1,,,,,,,,,,,,,,,,,,,,,,,,,,,,,,,,,,,,,,,,,,,,,,
843464,001,2022-11-21_24h54.29.729,Info_measure_main_exp,2022.2.2,Win32,63.85696041,,,,,,,,,,,,,,,,,,masks/mask_003.jpg,,,,,,,,,,,,,,,,,,,,,,,,,,,,,,,,,,,,,,,,,,,0,4,4,2,1,,,,,,,,,,,,,,,,,,,,,,,,,,,,,,,,,,,,,,,,,,,,,,
843464,001,2022-11-21_24h54.29.729,Info_measure_main_exp,2022.2.2,Win32,63.85696041,,,,,,,,,,,,,,,,,,masks/mask_002.jpg,,,,,,,,,,,,,,,,,,,,,,,,,,,,,,,,,,,,,,,,,,,,,,,,0,0,0,1,1,,,,,,,,,,,,,,,,,,,,,,,,,,,,,,,,,,,,,,,,,
843464,001,2022-11-21_24h54.29.729,Info_measure_main_exp,2022.2.2,Win32,63.85696041,,,,,,,,,,,,,,,,,,masks/mask_005.jpg,,,,,,,,,,,,,,,,,,,,,,,,,,,,,,,,,,,,,,,,,,,,,,,,0,1,1,4,1,,,,,,,,,,,,,,,,,,,,,,,,,,,,,,,,,,,,,,,,,
843464,001,2022-11-21_24h54.29.729,Info_measure_main_exp,2022.2.2,Win32,63.85696041,,,,,,,,,,,,,,,,,,masks/mask_001.jpg,,,,,,,,,,,,,,,,,,,,,,,,,,,,,,,,,,,,,,,,,,,,,,,,0,2,2,0,1,,,,,,,,,,,,,,,,,,,,,,,,,,,,,,,,,,,,,,,,,
843464,001,2022-11-21_24h54.29.729,Info_measure_main_exp,2022.2.2,Win32,63.85696041,,,,,,,,,,,,,,,,,,masks/mask_003.jpg,,,,,,,,,,,,,,,,,,,,,,,,,,,,,,,,,,,,,,,,,,,,,,,,0,3,3,2,1,,,,,,,,,,,,,,,,,,,,,,,,,,,,,,,,,,,,,,,,,
843464,001,2022-11-21_24h54.29.729,Info_measure_main_exp,2022.2.2,Win32,63.85696041,,,,,,,,,,,,,,,,,,masks/mask_004.jpg,,,,,,,,,,,,,,,,,,,,,,,,,,,,,,,,,,,,,,,,,,,,,,,,0,4,4,3,1,,,,,,,,,,,,,,,,,,,,,,,,,,,,,,,,,,,,,,,,,
843464,001,2022-11-21_24h54.29.729,Info_measure_main_exp,2022.2.2,Win32,63.85696041,,,,,,,,,,,,,,,,,,,,,,,,,,,,,,5,1.7758,1,,,,,,,,,,,,0,131,5,5,2082,2178,absent_patch/patch0002082.jpg,absent_patch/patch0002178.jpg,,,,,,,,,,,,,,,,,,,,0.163888889,-0.09537037,1,0,0,response3disk,33,0.012037037,0.003703704,1,0,0,center_square,0,32,32,2,1,,,,,,,,,,,,,,,,,,,,,,,
843464,001,2022-11-21_24h54.29.729,Info_measure_main_exp,2022.2.2,Win32,63.85696041,,,,,,,,,,,,,,,,,,masks/mask_005.jpg,,,,,,,,,,,,,,,,,,,,,,,,,,,,,,,,,,,,,,,,,,,0,0,0,4,1,,,,,,,,,,,,,,,,,,,,,,,,,,,,,,,,,,,,,,,,,,,,,,
843464,001,2022-11-21_24h54.29.729,Info_measure_main_exp,2022.2.2,Win32,63.85696041,,,,,,,,,,,,,,,,,,masks/mask_003.jpg,,,,,,,,,,,,,,,,,,,,,,,,,,,,,,,,,,,,,,,,,,,0,1,1,2,1,,,,,,,,,,,,,,,,,,,,,,,,,,,,,,,,,,,,,,,,,,,,,,
843464,001,2022-11-21_24h54.29.729,Info_measure_main_exp,2022.2.2,Win32,63.85696041,,,,,,,,,,,,,,,,,,masks/mask_001.jpg,,,,,,,,,,,,,,,,,,,,,,,,,,,,,,,,,,,,,,,,,,,0,2,2,0,1,,,,,,,,,,,,,,,,,,,,,,,,,,,,,,,,,,,,,,,,,,,,,,
843464,001,2022-11-21_24h54.29.729,Info_measure_main_exp,2022.2.2,Win32,63.85696041,,,,,,,,,,,,,,,,,,masks/mask_004.jpg,,,,,,,,,,,,,,,,,,,,,,,,,,,,,,,,,,,,,,,,,,,0,3,3,3,1,,,,,,,,,,,,,,,,,,,,,,,,,,,,,,,,,,,,,,,,,,,,,,
843464,001,2022-11-21_24h54.29.729,Info_measure_main_exp,2022.2.2,Win32,63.85696041,,,,,,,,,,,,,,,,,,masks/mask_002.jpg,,,,,,,,,,,,,,,,,,,,,,,,,,,,,,,,,,,,,,,,,,,0,4,4,1,1,,,,,,,,,,,,,,,,,,,,,,,,,,,,,,,,,,,,,,,,,,,,,,
843464,001,2022-11-21_24h54.29.729,Info_measure_main_exp,2022.2.2,Win32,63.85696041,,,,,,,,,,,,,,,,,,masks/mask_002.jpg,,,,,,,,,,,,,,,,,,,,,,,,,,,,,,,,,,,,,,,,,,,,,,,,0,0,0,1,1,,,,,,,,,,,,,,,,,,,,,,,,,,,,,,,,,,,,,,,,,
843464,001,2022-11-21_24h54.29.729,Info_measure_main_exp,2022.2.2,Win32,63.85696041,,,,,,,,,,,,,,,,,,masks/mask_001.jpg,,,,,,,,,,,,,,,,,,,,,,,,,,,,,,,,,,,,,,,,,,,,,,,,0,1,1,0,1,,,,,,,,,,,,,,,,,,,,,,,,,,,,,,,,,,,,,,,,,
843464,001,2022-11-21_24h54.29.729,Info_measure_main_exp,2022.2.2,Win32,63.85696041,,,,,,,,,,,,,,,,,,masks/mask_003.jpg,,,,,,,,,,,,,,,,,,,,,,,,,,,,,,,,,,,,,,,,,,,,,,,,0,2,2,2,1,,,,,,,,,,,,,,,,,,,,,,,,,,,,,,,,,,,,,,,,,
843464,001,2022-11-21_24h54.29.729,Info_measure_main_exp,2022.2.2,Win32,63.85696041,,,,,,,,,,,,,,,,,,masks/mask_005.jpg,,,,,,,,,,,,,,,,,,,,,,,,,,,,,,,,,,,,,,,,,,,,,,,,0,3,3,4,1,,,,,,,,,,,,,,,,,,,,,,,,,,,,,,,,,,,,,,,,,
843464,001,2022-11-21_24h54.29.729,Info_measure_main_exp,2022.2.2,Win32,63.85696041,,,,,,,,,,,,,,,,,,masks/mask_004.jpg,,,,,,,,,,,,,,,,,,,,,,,,,,,,,,,,,,,,,,,,,,,,,,,,0,4,4,3,1,,,,,,,,,,,,,,,,,,,,,,,,,,,,,,,,,,,,,,,,,
843464,001,2022-11-21_24h54.29.729,Info_measure_main_exp,2022.2.2,Win32,63.85696041,,,,,,,,,,,,,,,,,,,,,,,,,,,,,,4,1.5603,1,,,,,,,,,,,,0,131,5,5,2214,2166,absent_patch/patch0002214.jpg,absent_patch/patch0002166.jpg,,,,,,,,,,,,,,,,,,,,0.053703704,-0.106481481,1,0,0,response3disk,34,-0.008333333,0.006481481,1,0,0,center_square,0,33,33,109,1,,,,,,,,,,,,,,,,,,,,,,,
843464,001,2022-11-21_24h54.29.729,Info_measure_main_exp,2022.2.2,Win32,63.85696041,,,,,,,,,,,,,,,,,,masks/mask_002.jpg,,,,,,,,,,,,,,,,,,,,,,,,,,,,,,,,,,,,,,,,,,,0,0,0,1,1,,,,,,,,,,,,,,,,,,,,,,,,,,,,,,,,,,,,,,,,,,,,,,
843464,001,2022-11-21_24h54.29.729,Info_measure_main_exp,2022.2.2,Win32,63.85696041,,,,,,,,,,,,,,,,,,masks/mask_004.jpg,,,,,,,,,,,,,,,,,,,,,,,,,,,,,,,,,,,,,,,,,,,0,1,1,3,1,,,,,,,,,,,,,,,,,,,,,,,,,,,,,,,,,,,,,,,,,,,,,,
843464,001,2022-11-21_24h54.29.729,Info_measure_main_exp,2022.2.2,Win32,63.85696041,,,,,,,,,,,,,,,,,,masks/mask_005.jpg,,,,,,,,,,,,,,,,,,,,,,,,,,,,,,,,,,,,,,,,,,,0,2,2,4,1,,,,,,,,,,,,,,,,,,,,,,,,,,,,,,,,,,,,,,,,,,,,,,
843464,001,2022-11-21_24h54.29.729,Info_measure_main_exp,2022.2.2,Win32,63.85696041,,,,,,,,,,,,,,,,,,masks/mask_001.jpg,,,,,,,,,,,,,,,,,,,,,,,,,,,,,,,,,,,,,,,,,,,0,3,3,0,1,,,,,,,,,,,,,,,,,,,,,,,,,,,,,,,,,,,,,,,,,,,,,,
843464,001,2022-11-21_24h54.29.729,Info_measure_main_exp,2022.2.2,Win32,63.85696041,,,,,,,,,,,,,,,,,,masks/mask_003.jpg,,,,,,,,,,,,,,,,,,,,,,,,,,,,,,,,,,,,,,,,,,,0,4,4,2,1,,,,,,,,,,,,,,,,,,,,,,,,,,,,,,,,,,,,,,,,,,,,,,
843464,001,2022-11-21_24h54.29.729,Info_measure_main_exp,2022.2.2,Win32,63.85696041,,,,,,,,,,,,,,,,,,masks/mask_004.jpg,,,,,,,,,,,,,,,,,,,,,,,,,,,,,,,,,,,,,,,,,,,,,,,,0,0,0,3,1,,,,,,,,,,,,,,,,,,,,,,,,,,,,,,,,,,,,,,,,,
843464,001,2022-11-21_24h54.29.729,Info_measure_main_exp,2022.2.2,Win32,63.85696041,,,,,,,,,,,,,,,,,,masks/mask_002.jpg,,,,,,,,,,,,,,,,,,,,,,,,,,,,,,,,,,,,,,,,,,,,,,,,0,1,1,1,1,,,,,,,,,,,,,,,,,,,,,,,,,,,,,,,,,,,,,,,,,
843464,001,2022-11-21_24h54.29.729,Info_measure_main_exp,2022.2.2,Win32,63.85696041,,,,,,,,,,,,,,,,,,masks/mask_003.jpg,,,,,,,,,,,,,,,,,,,,,,,,,,,,,,,,,,,,,,,,,,,,,,,,0,2,2,2,1,,,,,,,,,,,,,,,,,,,,,,,,,,,,,,,,,,,,,,,,,
843464,001,2022-11-21_24h54.29.729,Info_measure_main_exp,2022.2.2,Win32,63.85696041,,,,,,,,,,,,,,,,,,masks/mask_005.jpg,,,,,,,,,,,,,,,,,,,,,,,,,,,,,,,,,,,,,,,,,,,,,,,,0,3,3,4,1,,,,,,,,,,,,,,,,,,,,,,,,,,,,,,,,,,,,,,,,,
