participant,session,date,expName,psychopyVersion,OS,frameRate,space_press_continue.keys,space_press_continue.rt,space_press_continue_2.keys,space_press_continue_2.rt,space_press_continue_3.keys,space_press_continue_3.rt,space_press_continue_4.keys,space_press_continue_4.rt,space_press_continue_5.keys,space_press_continue_5.rt,space_press_continue_6.keys,space_press_continue_6.rt,prac_mask_loop_1.thisRepN,prac_mask_loop_1.thisTrialN,prac_mask_loop_1.thisN,prac_mask_loop_1.thisIndex,prac_mask_loop_1.ran,mask_name,prac_mask_loop_2.thisRepN,prac_mask_loop_2.thisTrialN,prac_mask_loop_2.thisN,prac_mask_loop_2.thisIndex,prac_mask_loop_2.ran,mouse_2.x,mouse_2.y,mouse_2.leftButton,mouse_2.midButton,mouse_2.rightButton,mouse_2.clicked_name,similarity,response_time,Pass,mouse_12.x,mouse_12.y,mouse_12.leftButton,mouse_12.midButton,mouse_12.rightButton,mouse_12.clicked_name,prac_loop.thisRepN,prac_loop.thisTrialN,prac_loop.thisN,prac_loop.thisIndex,prac_loop.ran,Pair_type,Image_num,Patch_1_loc,Patch_2_loc,Patch_1_info,Patch_2_info,Patch_1_name,Patch_2_name,mouse_1.x,mouse_1.y,mouse_1.leftButton,mouse_1.midButton,mouse_1.rightButton,mouse_1.time,mouse_1.clicked_name,space_press_continue_7.keys,space_press_continue_7.rt,mask_loop.thisRepN,mask_loop.thisTrialN,mask_loop.thisN,mask_loop.thisIndex,mask_loop.ran,mask_loop_2.thisRepN,mask_loop_2.thisTrialN,mask_loop_2.thisN,mask_loop_2.thisIndex,mask_loop_2.ran,mouse.x,mouse.y,mouse.leftButton,mouse.midButton,mouse.rightButton,mouse.clicked_name,trialNumber,mouse_11.x,mouse_11.y,mouse_11.leftButton,mouse_11.midButton,mouse_11.rightButton,mouse_11.clicked_name,first_pass_loop.thisRepN,first_pass_loop.thisTrialN,first_pass_loop.thisN,first_pass_loop.thisIndex,first_pass_loop.ran,mask_loop_3.thisRepN,mask_loop_3.thisTrialN,mask_loop_3.thisN,mask_loop_3.thisIndex,mask_loop_3.ran,mask_loop_4.thisRepN,mask_loop_4.thisTrialN,mask_loop_4.thisN,mask_loop_4.thisIndex,mask_loop_4.ran,mouse_3.x,mouse_3.y,mouse_3.leftButton,mouse_3.midButton,mouse_3.rightButton,mouse_3.clicked_name,double_pass_loop.thisRepN,double_pass_loop.thisTrialN,double_pass_loop.thisN,double_pass_loop.thisIndex,double_pass_loop.ran,space_exit.keys,space_exit.rt
843758,001,2022-11-21_24h53.21.811,Info_measure_main_exp,2022.2.2,Win32,59.93407252,,,,,,,,,,,,,,,,,,,,,,,,,,,,,,,,,,,,,,,,,,,,,,,,,,,,,,,,,,,,,,,,,,,,,,,,,,,,,,,,,,,,,,,,,,,,,,,,,,,,,,,,,,,,,,,
843758,001,2022-11-21_24h53.21.811,Info_measure_main_exp,2022.2.2,Win32,59.93407252,,,,,,,,,,,,,,,,,,,,,,,,,,,,,,,,,,,,,,,,,,,,,,,,,,,,,,,,,,,,,,,,,,,,,,,,,,,,,,,,,,,,,,,,,,,,,,,,,,,,,,,,,,,,,,,
843758,001,2022-11-21_24h53.21.811,Info_measure_main_exp,2022.2.2,Win32,59.93407252,space,7.07,,,,,,,,,,,,,,,,,,,,,,,,,,,,,,,,,,,,,,,,,,,,,,,,,,,,,,,,,,,,,,,,,,,,,,,,,,,,,,,,,,,,,,,,,,,,,,,,,,,,,,,,,,,,,
843758,001,2022-11-21_24h53.21.811,Info_measure_main_exp,2022.2.2,Win32,59.93407252,,,space,8.9014,,,,,,,,,,,,,,,,,,,,,,,,,,,,,,,,,,,,,,,,,,,,,,,,,,,,,,,,,,,,,,,,,,,,,,,,,,,,,,,,,,,,,,,,,,,,,,,,,,,,,,,,,,,
843758,001,2022-11-21_24h53.21.811,Info_measure_main_exp,2022.2.2,Win32,59.93407252,,,,,space,4.016,,,,,,,,,,,,,,,,,,,,,,,,,,,,,,,,,,,,,,,,,,,,,,,,,,,,,,,,,,,,,,,,,,,,,,,,,,,,,,,,,,,,,,,,,,,,,,,,,,,,,,,,,
843758,001,2022-11-21_24h53.21.811,Info_measure_main_exp,2022.2.2,Win32,59.93407252,,,,,,,space,7.5144,,,,,,,,,,,,,,,,,,,,,,,,,,,,,,,,,,,,,,,,,,,,,,,,,,,,,,,,,,,,,,,,,,,,,,,,,,,,,,,,,,,,,,,,,,,,,,,,,,,,,,,
843758,001,2022-11-21_24h53.21.811,Info_measure_main_exp,2022.2.2,Win32,59.93407252,,,,,,,,,space,5.6467,,,,,,,,,,,,,,,,,,,,,,,,,,,,,,,,,,,,,,,,,,,,,,,,,,,,,,,,,,,,,,,,,,,,,,,,,,,,,,,,,,,,,,,,,,,,,,,,,,,,,
843758,001,2022-11-21_24h53.21.811,Info_measure_main_exp,2022.2.2,Win32,59.93407252,,,,,,,,,,,space,1.3552,,,,,,,,,,,,,,,,,,,,,,,,,,,,,,,,,,,,,,,,,,,,,,,,,,,,,,,,,,,,,,,,,,,,,,,,,,,,,,,,,,,,,,,,,,,,,,,,,,,
843758,001,2022-11-21_24h53.21.811,Info_measure_main_exp,2022.2.2,Win32,59.93407252,,,,,,,,,,,,,0,0,0,3,1,masks/mask_004.jpg,,,,,,,,,,,,,,,,,,,,,,,,,,,,,,,,,,,,,,,,,,,,,,,,,,,,,,,,,,,,,,,,,,,,,,,,,,,,,,,,,,,,,,,,,,,,,
843758,001,2022-11-21_24h53.21.811,Info_measure_main_exp,2022.2.2,Win32,59.93407252,,,,,,,,,,,,,0,1,1,2,1,masks/mask_003.jpg,,,,,,,,,,,,,,,,,,,,,,,,,,,,,,,,,,,,,,,,,,,,,,,,,,,,,,,,,,,,,,,,,,,,,,,,,,,,,,,,,,,,,,,,,,,,,
843758,001,2022-11-21_24h53.21.811,Info_measure_main_exp,2022.2.2,Win32,59.93407252,,,,,,,,,,,,,0,2,2,4,1,masks/mask_005.jpg,,,,,,,,,,,,,,,,,,,,,,,,,,,,,,,,,,,,,,,,,,,,,,,,,,,,,,,,,,,,,,,,,,,,,,,,,,,,,,,,,,,,,,,,,,,,,
843758,001,2022-11-21_24h53.21.811,Info_measure_main_exp,2022.2.2,Win32,59.93407252,,,,,,,,,,,,,0,3,3,1,1,masks/mask_002.jpg,,,,,,,,,,,,,,,,,,,,,,,,,,,,,,,,,,,,,,,,,,,,,,,,,,,,,,,,,,,,,,,,,,,,,,,,,,,,,,,,,,,,,,,,,,,,,
843758,001,2022-11-21_24h53.21.811,Info_measure_main_exp,2022.2.2,Win32,59.93407252,,,,,,,,,,,,,0,4,4,0,1,masks/mask_001.jpg,,,,,,,,,,,,,,,,,,,,,,,,,,,,,,,,,,,,,,,,,,,,,,,,,,,,,,,,,,,,,,,,,,,,,,,,,,,,,,,,,,,,,,,,,,,,,
843758,001,2022-11-21_24h53.21.811,Info_measure_main_exp,2022.2.2,Win32,59.93407252,,,,,,,,,,,,,,,,,,masks/mask_001.jpg,0,0,0,0,1,,,,,,,,,,,,,,,,,,,,,,,,,,,,,,,,,,,,,,,,,,,,,,,,,,,,,,,,,,,,,,,,,,,,,,,,,,,,,,,,,,,,,,,,
843758,001,2022-11-21_24h53.21.811,Info_measure_main_exp,2022.2.2,Win32,59.93407252,,,,,,,,,,,,,,,,,,masks/mask_002.jpg,0,1,1,1,1,,,,,,,,,,,,,,,,,,,,,,,,,,,,,,,,,,,,,,,,,,,,,,,,,,,,,,,,,,,,,,,,,,,,,,,,,,,,,,,,,,,,,,,,
843758,001,2022-11-21_24h53.21.811,Info_measure_main_exp,2022.2.2,Win32,59.93407252,,,,,,,,,,,,,,,,,,masks/mask_005.jpg,0,2,2,4,1,,,,,,,,,,,,,,,,,,,,,,,,,,,,,,,,,,,,,,,,,,,,,,,,,,,,,,,,,,,,,,,,,,,,,,,,,,,,,,,,,,,,,,,,
843758,001,2022-11-21_24h53.21.811,Info_measure_main_exp,2022.2.2,Win32,59.93407252,,,,,,,,,,,,,,,,,,masks/mask_004.jpg,0,3,3,3,1,,,,,,,,,,,,,,,,,,,,,,,,,,,,,,,,,,,,,,,,,,,,,,,,,,,,,,,,,,,,,,,,,,,,,,,,,,,,,,,,,,,,,,,,
843758,001,2022-11-21_24h53.21.811,Info_measure_main_exp,2022.2.2,Win32,59.93407252,,,,,,,,,,,,,,,,,,masks/mask_003.jpg,0,4,4,2,1,,,,,,,,,,,,,,,,,,,,,,,,,,,,,,,,,,,,,,,,,,,,,,,,,,,,,,,,,,,,,,,,,,,,,,,,,,,,,,,,,,,,,,,,
843758,001,2022-11-21_24h53.21.811,Info_measure_main_exp,2022.2.2,Win32,59.93407252,,,,,,,,,,,,,,,,,,,,,,,,-0.00462963,0.008333312,1,0,0,response7disk,0,39.223,1,0.005555541,0.003703683,1,0,0,center_square,0,0,0,2,1,0,131,5,5,2526,2526,prac_patch/patch0002526.jpg,prac_patch/patch0002526.jpg,,,,,,,,,,,,,,,,,,,,,,,,,,,,,,,,,,,,,,,,,,,,,,,,,,,,,,,,,,,,
843758,001,2022-11-21_24h53.21.811,Info_measure_main_exp,2022.2.2,Win32,59.93407252,,,,,,,,,,,,,0,0,0,1,1,masks/mask_002.jpg,,,,,,,,,,,,,,,,,,,,,,,,,,,,,,,,,,,,,,,,,,,,,,,,,,,,,,,,,,,,,,,,,,,,,,,,,,,,,,,,,,,,,,,,,,,,,
843758,001,2022-11-21_24h53.21.811,Info_measure_main_exp,2022.2.2,Win32,59.93407252,,,,,,,,,,,,,0,1,1,3,1,masks/mask_004.jpg,,,,,,,,,,,,,,,,,,,,,,,,,,,,,,,,,,,,,,,,,,,,,,,,,,,,,,,,,,,,,,,,,,,,,,,,,,,,,,,,,,,,,,,,,,,,,
843758,001,2022-11-21_24h53.21.811,Info_measure_main_exp,2022.2.2,Win32,59.93407252,,,,,,,,,,,,,0,2,2,2,1,masks/mask_003.jpg,,,,,,,,,,,,,,,,,,,,,,,,,,,,,,,,,,,,,,,,,,,,,,,,,,,,,,,,,,,,,,,,,,,,,,,,,,,,,,,,,,,,,,,,,,,,,
843758,001,2022-11-21_24h53.21.811,Info_measure_main_exp,2022.2.2,Win32,59.93407252,,,,,,,,,,,,,0,3,3,4,1,masks/mask_005.jpg,,,,,,,,,,,,,,,,,,,,,,,,,,,,,,,,,,,,,,,,,,,,,,,,,,,,,,,,,,,,,,,,,,,,,,,,,,,,,,,,,,,,,,,,,,,,,
843758,001,2022-11-21_24h53.21.811,Info_measure_main_exp,2022.2.2,Win32,59.93407252,,,,,,,,,,,,,0,4,4,0,1,masks/mask_001.jpg,,,,,,,,,,,,,,,,,,,,,,,,,,,,,,,,,,,,,,,,,,,,,,,,,,,,,,,,,,,,,,,,,,,,,,,,,,,,,,,,,,,,,,,,,,,,,
843758,001,2022-11-21_24h53.21.811,Info_measure_main_exp,2022.2.2,Win32,59.93407252,,,,,,,,,,,,,,,,,,masks/mask_005.jpg,0,0,0,4,1,,,,,,,,,,,,,,,,,,,,,,,,,,,,,,,,,,,,,,,,,,,,,,,,,,,,,,,,,,,,,,,,,,,,,,,,,,,,,,,,,,,,,,,,
843758,001,2022-11-21_24h53.21.811,Info_measure_main_exp,2022.2.2,Win32,59.93407252,,,,,,,,,,,,,,,,,,masks/mask_003.jpg,0,1,1,2,1,,,,,,,,,,,,,,,,,,,,,,,,,,,,,,,,,,,,,,,,,,,,,,,,,,,,,,,,,,,,,,,,,,,,,,,,,,,,,,,,,,,,,,,,
843758,001,2022-11-21_24h53.21.811,Info_measure_main_exp,2022.2.2,Win32,59.93407252,,,,,,,,,,,,,,,,,,masks/mask_001.jpg,0,2,2,0,1,,,,,,,,,,,,,,,,,,,,,,,,,,,,,,,,,,,,,,,,,,,,,,,,,,,,,,,,,,,,,,,,,,,,,,,,,,,,,,,,,,,,,,,,
843758,001,2022-11-21_24h53.21.811,Info_measure_main_exp,2022.2.2,Win32,59.93407252,,,,,,,,,,,,,,,,,,masks/mask_004.jpg,0,3,3,3,1,,,,,,,,,,,,,,,,,,,,,,,,,,,,,,,,,,,,,,,,,,,,,,,,,,,,,,,,,,,,,,,,,,,,,,,,,,,,,,,,,,,,,,,,
843758,001,2022-11-21_24h53.21.811,Info_measure_main_exp,2022.2.2,Win32,59.93407252,,,,,,,,,,,,,,,,,,masks/mask_002.jpg,0,4,4,1,1,,,,,,,,,,,,,,,,,,,,,,,,,,,,,,,,,,,,,,,,,,,,,,,,,,,,,,,,,,,,,,,,,,,,,,,,,,,,,,,,,,,,,,,,
843758,001,2022-11-21_24h53.21.811,Info_measure_main_exp,2022.2.2,Win32,59.93407252,,,,,,,,,,,,,,,,,,,,,,,,-0.131481453,-0.066666674,1,0,0,response5disk,2,52.4644,1,0.002777806,0.006481489,1,0,0,center_square,0,1,1,0,1,0,131,5,5,2370,2406,prac_patch/patch0002370.jpg,prac_patch/patch0002406.jpg,,,,,,,,,,,,,,,,,,,,,,,,,,,,,,,,,,,,,,,,,,,,,,,,,,,,,,,,,,,,
843758,001,2022-11-21_24h53.21.811,Info_measure_main_exp,2022.2.2,Win32,59.93407252,,,,,,,,,,,,,0,0,0,4,1,masks/mask_005.jpg,,,,,,,,,,,,,,,,,,,,,,,,,,,,,,,,,,,,,,,,,,,,,,,,,,,,,,,,,,,,,,,,,,,,,,,,,,,,,,,,,,,,,,,,,,,,,
843758,001,2022-11-21_24h53.21.811,Info_measure_main_exp,2022.2.2,Win32,59.93407252,,,,,,,,,,,,,0,1,1,3,1,masks/mask_004.jpg,,,,,,,,,,,,,,,,,,,,,,,,,,,,,,,,,,,,,,,,,,,,,,,,,,,,,,,,,,,,,,,,,,,,,,,,,,,,,,,,,,,,,,,,,,,,,
843758,001,2022-11-21_24h53.21.811,Info_measure_main_exp,2022.2.2,Win32,59.93407252,,,,,,,,,,,,,0,2,2,0,1,masks/mask_001.jpg,,,,,,,,,,,,,,,,,,,,,,,,,,,,,,,,,,,,,,,,,,,,,,,,,,,,,,,,,,,,,,,,,,,,,,,,,,,,,,,,,,,,,,,,,,,,,
843758,001,2022-11-21_24h53.21.811,Info_measure_main_exp,2022.2.2,Win32,59.93407252,,,,,,,,,,,,,0,3,3,1,1,masks/mask_002.jpg,,,,,,,,,,,,,,,,,,,,,,,,,,,,,,,,,,,,,,,,,,,,,,,,,,,,,,,,,,,,,,,,,,,,,,,,,,,,,,,,,,,,,,,,,,,,,
843758,001,2022-11-21_24h53.21.811,Info_measure_main_exp,2022.2.2,Win32,59.93407252,,,,,,,,,,,,,0,4,4,2,1,masks/mask_003.jpg,,,,,,,,,,,,,,,,,,,,,,,,,,,,,,,,,,,,,,,,,,,,,,,,,,,,,,,,,,,,,,,,,,,,,,,,,,,,,,,,,,,,,,,,,,,,,
843758,001,2022-11-21_24h53.21.811,Info_measure_main_exp,2022.2.2,Win32,59.93407252,,,,,,,,,,,,,,,,,,masks/mask_005.jpg,0,0,0,4,1,,,,,,,,,,,,,,,,,,,,,,,,,,,,,,,,,,,,,,,,,,,,,,,,,,,,,,,,,,,,,,,,,,,,,,,,,,,,,,,,,,,,,,,,
843758,001,2022-11-21_24h53.21.811,Info_measure_main_exp,2022.2.2,Win32,59.93407252,,,,,,,,,,,,,,,,,,masks/mask_002.jpg,0,1,1,1,1,,,,,,,,,,,,,,,,,,,,,,,,,,,,,,,,,,,,,,,,,,,,,,,,,,,,,,,,,,,,,,,,,,,,,,,,,,,,,,,,,,,,,,,,
843758,001,2022-11-21_24h53.21.811,Info_measure_main_exp,2022.2.2,Win32,59.93407252,,,,,,,,,,,,,,,,,,masks/mask_003.jpg,0,2,2,2,1,,,,,,,,,,,,,,,,,,,,,,,,,,,,,,,,,,,,,,,,,,,,,,,,,,,,,,,,,,,,,,,,,,,,,,,,,,,,,,,,,,,,,,,,
843758,001,2022-11-21_24h53.21.811,Info_measure_main_exp,2022.2.2,Win32,59.93407252,,,,,,,,,,,,,,,,,,masks/mask_004.jpg,0,3,3,3,1,,,,,,,,,,,,,,,,,,,,,,,,,,,,,,,,,,,,,,,,,,,,,,,,,,,,,,,,,,,,,,,,,,,,,,,,,,,,,,,,,,,,,,,,
843758,001,2022-11-21_24h53.21.811,Info_measure_main_exp,2022.2.2,Win32,59.93407252,,,,,,,,,,,,,,,,,,masks/mask_001.jpg,0,4,4,0,1,,,,,,,,,,,,,,,,,,,,,,,,,,,,,,,,,,,,,,,,,,,,,,,,,,,,,,,,,,,,,,,,,,,,,,,,,,,,,,,,,,,,,,,,
843758,001,2022-11-21_24h53.21.811,Info_measure_main_exp,2022.2.2,Win32,59.93407252,,,,,,,,,,,,,,,,,,,,,,,,0.143518519,-0.033333355,1,0,0,response3disk,5,65.9423,1,-0.003703718,0.002777771,1,0,0,center_square,0,2,2,1,1,0,131,5,5,2514,2490,prac_patch/patch0002514.jpg,prac_patch/patch0002490.jpg,,,,,,,,,,,,,,,,,,,,,,,,,,,,,,,,,,,,,,,,,,,,,,,,,,,,,,,,,,,,
843758,001,2022-11-21_24h53.21.811,Info_measure_main_exp,2022.2.2,Win32,59.93407252,,,,,,,,,,,,,,,,,,,,,,,,,,,,,,,,,,,,,,,,,,,,,,,,,,,,,,,,,,,space,1.7969,,,,,,,,,,,,,,,,,,,,,,,,,,,,,,,,,,,,,,,,,,,,,,,,,,,
843758,001,2022-11-21_24h53.21.811,Info_measure_main_exp,2022.2.2,Win32,59.93407252,,,,,,,,,,,,,,,,,,masks/mask_002.jpg,,,,,,,,,,,,,,,,,,,,,,,,,,,,,,,,,,,,,,,,,,,0,0,0,1,1,,,,,,,,,,,,,,,,,,,,,,,,,,,,,,,,,,,,,,,,,,,,,,
843758,001,2022-11-21_24h53.21.811,Info_measure_main_exp,2022.2.2,Win32,59.93407252,,,,,,,,,,,,,,,,,,masks/mask_001.jpg,,,,,,,,,,,,,,,,,,,,,,,,,,,,,,,,,,,,,,,,,,,0,1,1,0,1,,,,,,,,,,,,,,,,,,,,,,,,,,,,,,,,,,,,,,,,,,,,,,
843758,001,2022-11-21_24h53.21.811,Info_measure_main_exp,2022.2.2,Win32,59.93407252,,,,,,,,,,,,,,,,,,masks/mask_005.jpg,,,,,,,,,,,,,,,,,,,,,,,,,,,,,,,,,,,,,,,,,,,0,2,2,4,1,,,,,,,,,,,,,,,,,,,,,,,,,,,,,,,,,,,,,,,,,,,,,,
843758,001,2022-11-21_24h53.21.811,Info_measure_main_exp,2022.2.2,Win32,59.93407252,,,,,,,,,,,,,,,,,,masks/mask_003.jpg,,,,,,,,,,,,,,,,,,,,,,,,,,,,,,,,,,,,,,,,,,,0,3,3,2,1,,,,,,,,,,,,,,,,,,,,,,,,,,,,,,,,,,,,,,,,,,,,,,
843758,001,2022-11-21_24h53.21.811,Info_measure_main_exp,2022.2.2,Win32,59.93407252,,,,,,,,,,,,,,,,,,masks/mask_004.jpg,,,,,,,,,,,,,,,,,,,,,,,,,,,,,,,,,,,,,,,,,,,0,4,4,3,1,,,,,,,,,,,,,,,,,,,,,,,,,,,,,,,,,,,,,,,,,,,,,,
843758,001,2022-11-21_24h53.21.811,Info_measure_main_exp,2022.2.2,Win32,59.93407252,,,,,,,,,,,,,,,,,,masks/mask_003.jpg,,,,,,,,,,,,,,,,,,,,,,,,,,,,,,,,,,,,,,,,,,,,,,,,0,0,0,2,1,,,,,,,,,,,,,,,,,,,,,,,,,,,,,,,,,,,,,,,,,
843758,001,2022-11-21_24h53.21.811,Info_measure_main_exp,2022.2.2,Win32,59.93407252,,,,,,,,,,,,,,,,,,masks/mask_002.jpg,,,,,,,,,,,,,,,,,,,,,,,,,,,,,,,,,,,,,,,,,,,,,,,,0,1,1,1,1,,,,,,,,,,,,,,,,,,,,,,,,,,,,,,,,,,,,,,,,,
843758,001,2022-11-21_24h53.21.811,Info_measure_main_exp,2022.2.2,Win32,59.93407252,,,,,,,,,,,,,,,,,,masks/mask_001.jpg,,,,,,,,,,,,,,,,,,,,,,,,,,,,,,,,,,,,,,,,,,,,,,,,0,2,2,0,1,,,,,,,,,,,,,,,,,,,,,,,,,,,,,,,,,,,,,,,,,
843758,001,2022-11-21_24h53.21.811,Info_measure_main_exp,2022.2.2,Win32,59.93407252,,,,,,,,,,,,,,,,,,masks/mask_004.jpg,,,,,,,,,,,,,,,,,,,,,,,,,,,,,,,,,,,,,,,,,,,,,,,,0,3,3,3,1,,,,,,,,,,,,,,,,,,,,,,,,,,,,,,,,,,,,,,,,,
843758,001,2022-11-21_24h53.21.811,Info_measure_main_exp,2022.2.2,Win32,59.93407252,,,,,,,,,,,,,,,,,,masks/mask_005.jpg,,,,,,,,,,,,,,,,,,,,,,,,,,,,,,,,,,,,,,,,,,,,,,,,0,4,4,4,1,,,,,,,,,,,,,,,,,,,,,,,,,,,,,,,,,,,,,,,,,
843758,001,2022-11-21_24h53.21.811,Info_measure_main_exp,2022.2.2,Win32,59.93407252,,,,,,,,,,,,,,,,,,,,,,,,,,,,,,3,2.066,1,,,,,,,,,,,,0,131,5,5,2178,1986,absent_patch/patch0002178.jpg,absent_patch/patch0001986.jpg,,,,,,,,,,,,,,,,,,,,-0.032407407,-0.114814829,1,0,0,response5disk,1,0.00462963,0.006481489,1,0,0,center_square,0,0,0,46,1,,,,,,,,,,,,,,,,,,,,,,,
843758,001,2022-11-21_24h53.21.811,Info_measure_main_exp,2022.2.2,Win32,59.93407252,,,,,,,,,,,,,,,,,,masks/mask_004.jpg,,,,,,,,,,,,,,,,,,,,,,,,,,,,,,,,,,,,,,,,,,,0,0,0,3,1,,,,,,,,,,,,,,,,,,,,,,,,,,,,,,,,,,,,,,,,,,,,,,
843758,001,2022-11-21_24h53.21.811,Info_measure_main_exp,2022.2.2,Win32,59.93407252,,,,,,,,,,,,,,,,,,masks/mask_003.jpg,,,,,,,,,,,,,,,,,,,,,,,,,,,,,,,,,,,,,,,,,,,0,1,1,2,1,,,,,,,,,,,,,,,,,,,,,,,,,,,,,,,,,,,,,,,,,,,,,,
843758,001,2022-11-21_24h53.21.811,Info_measure_main_exp,2022.2.2,Win32,59.93407252,,,,,,,,,,,,,,,,,,masks/mask_001.jpg,,,,,,,,,,,,,,,,,,,,,,,,,,,,,,,,,,,,,,,,,,,0,2,2,0,1,,,,,,,,,,,,,,,,,,,,,,,,,,,,,,,,,,,,,,,,,,,,,,
843758,001,2022-11-21_24h53.21.811,Info_measure_main_exp,2022.2.2,Win32,59.93407252,,,,,,,,,,,,,,,,,,masks/mask_002.jpg,,,,,,,,,,,,,,,,,,,,,,,,,,,,,,,,,,,,,,,,,,,0,3,3,1,1,,,,,,,,,,,,,,,,,,,,,,,,,,,,,,,,,,,,,,,,,,,,,,
843758,001,2022-11-21_24h53.21.811,Info_measure_main_exp,2022.2.2,Win32,59.93407252,,,,,,,,,,,,,,,,,,masks/mask_005.jpg,,,,,,,,,,,,,,,,,,,,,,,,,,,,,,,,,,,,,,,,,,,0,4,4,4,1,,,,,,,,,,,,,,,,,,,,,,,,,,,,,,,,,,,,,,,,,,,,,,
843758,001,2022-11-21_24h53.21.811,Info_measure_main_exp,2022.2.2,Win32,59.93407252,,,,,,,,,,,,,,,,,,masks/mask_001.jpg,,,,,,,,,,,,,,,,,,,,,,,,,,,,,,,,,,,,,,,,,,,,,,,,0,0,0,0,1,,,,,,,,,,,,,,,,,,,,,,,,,,,,,,,,,,,,,,,,,
843758,001,2022-11-21_24h53.21.811,Info_measure_main_exp,2022.2.2,Win32,59.93407252,,,,,,,,,,,,,,,,,,masks/mask_002.jpg,,,,,,,,,,,,,,,,,,,,,,,,,,,,,,,,,,,,,,,,,,,,,,,,0,1,1,1,1,,,,,,,,,,,,,,,,,,,,,,,,,,,,,,,,,,,,,,,,,
843758,001,2022-11-21_24h53.21.811,Info_measure_main_exp,2022.2.2,Win32,59.93407252,,,,,,,,,,,,,,,,,,masks/mask_003.jpg,,,,,,,,,,,,,,,,,,,,,,,,,,,,,,,,,,,,,,,,,,,,,,,,0,2,2,2,1,,,,,,,,,,,,,,,,,,,,,,,,,,,,,,,,,,,,,,,,,
843758,001,2022-11-21_24h53.21.811,Info_measure_main_exp,2022.2.2,Win32,59.93407252,,,,,,,,,,,,,,,,,,masks/mask_005.jpg,,,,,,,,,,,,,,,,,,,,,,,,,,,,,,,,,,,,,,,,,,,,,,,,0,3,3,4,1,,,,,,,,,,,,,,,,,,,,,,,,,,,,,,,,,,,,,,,,,
843758,001,2022-11-21_24h53.21.811,Info_measure_main_exp,2022.2.2,Win32,59.93407252,,,,,,,,,,,,,,,,,,masks/mask_004.jpg,,,,,,,,,,,,,,,,,,,,,,,,,,,,,,,,,,,,,,,,,,,,,,,,0,4,4,3,1,,,,,,,,,,,,,,,,,,,,,,,,,,,,,,,,,,,,,,,,,
843758,001,2022-11-21_24h53.21.811,Info_measure_main_exp,2022.2.2,Win32,59.93407252,,,,,,,,,,,,,,,,,,,,,,,,,,,,,,6,2.5741,1,,,,,,,,,,,,1,131,5,5,2298,1,absent_patch/patch0002298.jpg,present_patch/cong_131_5_a.jpg,,,,,,,,,,,,,,,,,,,,0.134259259,0.077777757,1,0,0,response1disk,2,-0.00462963,0.005555541,1,0,0,center_square,0,1,1,45,1,,,,,,,,,,,,,,,,,,,,,,,
843758,001,2022-11-21_24h53.21.811,Info_measure_main_exp,2022.2.2,Win32,59.93407252,,,,,,,,,,,,,,,,,,masks/mask_005.jpg,,,,,,,,,,,,,,,,,,,,,,,,,,,,,,,,,,,,,,,,,,,0,0,0,4,1,,,,,,,,,,,,,,,,,,,,,,,,,,,,,,,,,,,,,,,,,,,,,,
843758,001,2022-11-21_24h53.21.811,Info_measure_main_exp,2022.2.2,Win32,59.93407252,,,,,,,,,,,,,,,,,,masks/mask_004.jpg,,,,,,,,,,,,,,,,,,,,,,,,,,,,,,,,,,,,,,,,,,,0,1,1,3,1,,,,,,,,,,,,,,,,,,,,,,,,,,,,,,,,,,,,,,,,,,,,,,
843758,001,2022-11-21_24h53.21.811,Info_measure_main_exp,2022.2.2,Win32,59.93407252,,,,,,,,,,,,,,,,,,masks/mask_001.jpg,,,,,,,,,,,,,,,,,,,,,,,,,,,,,,,,,,,,,,,,,,,0,2,2,0,1,,,,,,,,,,,,,,,,,,,,,,,,,,,,,,,,,,,,,,,,,,,,,,
843758,001,2022-11-21_24h53.21.811,Info_measure_main_exp,2022.2.2,Win32,59.93407252,,,,,,,,,,,,,,,,,,masks/mask_002.jpg,,,,,,,,,,,,,,,,,,,,,,,,,,,,,,,,,,,,,,,,,,,0,3,3,1,1,,,,,,,,,,,,,,,,,,,,,,,,,,,,,,,,,,,,,,,,,,,,,,
843758,001,2022-11-21_24h53.21.811,Info_measure_main_exp,2022.2.2,Win32,59.93407252,,,,,,,,,,,,,,,,,,masks/mask_003.jpg,,,,,,,,,,,,,,,,,,,,,,,,,,,,,,,,,,,,,,,,,,,0,4,4,2,1,,,,,,,,,,,,,,,,,,,,,,,,,,,,,,,,,,,,,,,,,,,,,,
843758,001,2022-11-21_24h53.21.811,Info_measure_main_exp,2022.2.2,Win32,59.93407252,,,,,,,,,,,,,,,,,,masks/mask_004.jpg,,,,,,,,,,,,,,,,,,,,,,,,,,,,,,,,,,,,,,,,,,,,,,,,0,0,0,3,1,,,,,,,,,,,,,,,,,,,,,,,,,,,,,,,,,,,,,,,,,
843758,001,2022-11-21_24h53.21.811,Info_measure_main_exp,2022.2.2,Win32,59.93407252,,,,,,,,,,,,,,,,,,masks/mask_005.jpg,,,,,,,,,,,,,,,,,,,,,,,,,,,,,,,,,,,,,,,,,,,,,,,,0,1,1,4,1,,,,,,,,,,,,,,,,,,,,,,,,,,,,,,,,,,,,,,,,,
843758,001,2022-11-21_24h53.21.811,Info_measure_main_exp,2022.2.2,Win32,59.93407252,,,,,,,,,,,,,,,,,,masks/mask_003.jpg,,,,,,,,,,,,,,,,,,,,,,,,,,,,,,,,,,,,,,,,,,,,,,,,0,2,2,2,1,,,,,,,,,,,,,,,,,,,,,,,,,,,,,,,,,,,,,,,,,
843758,001,2022-11-21_24h53.21.811,Info_measure_main_exp,2022.2.2,Win32,59.93407252,,,,,,,,,,,,,,,,,,masks/mask_002.jpg,,,,,,,,,,,,,,,,,,,,,,,,,,,,,,,,,,,,,,,,,,,,,,,,0,3,3,1,1,,,,,,,,,,,,,,,,,,,,,,,,,,,,,,,,,,,,,,,,,
843758,001,2022-11-21_24h53.21.811,Info_measure_main_exp,2022.2.2,Win32,59.93407252,,,,,,,,,,,,,,,,,,masks/mask_001.jpg,,,,,,,,,,,,,,,,,,,,,,,,,,,,,,,,,,,,,,,,,,,,,,,,0,4,4,0,1,,,,,,,,,,,,,,,,,,,,,,,,,,,,,,,,,,,,,,,,,
843758,001,2022-11-21_24h53.21.811,Info_measure_main_exp,2022.2.2,Win32,59.93407252,,,,,,,,,,,,,,,,,,,,,,,,,,,,,,3,2.4661,1,,,,,,,,,,,,0,131,5,5,2250,2298,absent_patch/patch0002250.jpg,absent_patch/patch0002298.jpg,,,,,,,,,,,,,,,,,,,,-0.041666667,-0.131481524,1,0,0,response5disk,3,0.001851894,-0.00462963,1,0,0,center_square,0,2,2,59,1,,,,,,,,,,,,,,,,,,,,,,,
843758,001,2022-11-21_24h53.21.811,Info_measure_main_exp,2022.2.2,Win32,59.93407252,,,,,,,,,,,,,,,,,,masks/mask_002.jpg,,,,,,,,,,,,,,,,,,,,,,,,,,,,,,,,,,,,,,,,,,,0,0,0,1,1,,,,,,,,,,,,,,,,,,,,,,,,,,,,,,,,,,,,,,,,,,,,,,
843758,001,2022-11-21_24h53.21.811,Info_measure_main_exp,2022.2.2,Win32,59.93407252,,,,,,,,,,,,,,,,,,masks/mask_004.jpg,,,,,,,,,,,,,,,,,,,,,,,,,,,,,,,,,,,,,,,,,,,0,1,1,3,1,,,,,,,,,,,,,,,,,,,,,,,,,,,,,,,,,,,,,,,,,,,,,,
843758,001,2022-11-21_24h53.21.811,Info_measure_main_exp,2022.2.2,Win32,59.93407252,,,,,,,,,,,,,,,,,,masks/mask_005.jpg,,,,,,,,,,,,,,,,,,,,,,,,,,,,,,,,,,,,,,,,,,,0,2,2,4,1,,,,,,,,,,,,,,,,,,,,,,,,,,,,,,,,,,,,,,,,,,,,,,
843758,001,2022-11-21_24h53.21.811,Info_measure_main_exp,2022.2.2,Win32,59.93407252,,,,,,,,,,,,,,,,,,masks/mask_003.jpg,,,,,,,,,,,,,,,,,,,,,,,,,,,,,,,,,,,,,,,,,,,0,3,3,2,1,,,,,,,,,,,,,,,,,,,,,,,,,,,,,,,,,,,,,,,,,,,,,,
843758,001,2022-11-21_24h53.21.811,Info_measure_main_exp,2022.2.2,Win32,59.93407252,,,,,,,,,,,,,,,,,,masks/mask_001.jpg,,,,,,,,,,,,,,,,,,,,,,,,,,,,,,,,,,,,,,,,,,,0,4,4,0,1,,,,,,,,,,,,,,,,,,,,,,,,,,,,,,,,,,,,,,,,,,,,,,
843758,001,2022-11-21_24h53.21.811,Info_measure_main_exp,2022.2.2,Win32,59.93407252,,,,,,,,,,,,,,,,,,masks/mask_003.jpg,,,,,,,,,,,,,,,,,,,,,,,,,,,,,,,,,,,,,,,,,,,,,,,,0,0,0,2,1,,,,,,,,,,,,,,,,,,,,,,,,,,,,,,,,,,,,,,,,,
843758,001,2022-11-21_24h53.21.811,Info_measure_main_exp,2022.2.2,Win32,59.93407252,,,,,,,,,,,,,,,,,,masks/mask_005.jpg,,,,,,,,,,,,,,,,,,,,,,,,,,,,,,,,,,,,,,,,,,,,,,,,0,1,1,4,1,,,,,,,,,,,,,,,,,,,,,,,,,,,,,,,,,,,,,,,,,
843758,001,2022-11-21_24h53.21.811,Info_measure_main_exp,2022.2.2,Win32,59.93407252,,,,,,,,,,,,,,,,,,masks/mask_002.jpg,,,,,,,,,,,,,,,,,,,,,,,,,,,,,,,,,,,,,,,,,,,,,,,,0,2,2,1,1,,,,,,,,,,,,,,,,,,,,,,,,,,,,,,,,,,,,,,,,,
843758,001,2022-11-21_24h53.21.811,Info_measure_main_exp,2022.2.2,Win32,59.93407252,,,,,,,,,,,,,,,,,,masks/mask_004.jpg,,,,,,,,,,,,,,,,,,,,,,,,,,,,,,,,,,,,,,,,,,,,,,,,0,3,3,3,1,,,,,,,,,,,,,,,,,,,,,,,,,,,,,,,,,,,,,,,,,
843758,001,2022-11-21_24h53.21.811,Info_measure_main_exp,2022.2.2,Win32,59.93407252,,,,,,,,,,,,,,,,,,masks/mask_001.jpg,,,,,,,,,,,,,,,,,,,,,,,,,,,,,,,,,,,,,,,,,,,,,,,,0,4,4,0,1,,,,,,,,,,,,,,,,,,,,,,,,,,,,,,,,,,,,,,,,,
843758,001,2022-11-21_24h53.21.811,Info_measure_main_exp,2022.2.2,Win32,59.93407252,,,,,,,,,,,,,,,,,,,,,,,,,,,,,,7,1.4061,1,,,,,,,,,,,,0,131,5,5,2238,2238,absent_patch/patch0002238.jpg,absent_patch/patch0002238.jpg,,,,,,,,,,,,,,,,,,,,0.047222208,0.10833334,1,0,0,response1disk,4,0,0,1,0,0,center_square,0,3,3,58,1,,,,,,,,,,,,,,,,,,,,,,,
843758,001,2022-11-21_24h53.21.811,Info_measure_main_exp,2022.2.2,Win32,59.93407252,,,,,,,,,,,,,,,,,,masks/mask_003.jpg,,,,,,,,,,,,,,,,,,,,,,,,,,,,,,,,,,,,,,,,,,,0,0,0,2,1,,,,,,,,,,,,,,,,,,,,,,,,,,,,,,,,,,,,,,,,,,,,,,
843758,001,2022-11-21_24h53.21.811,Info_measure_main_exp,2022.2.2,Win32,59.93407252,,,,,,,,,,,,,,,,,,masks/mask_002.jpg,,,,,,,,,,,,,,,,,,,,,,,,,,,,,,,,,,,,,,,,,,,0,1,1,1,1,,,,,,,,,,,,,,,,,,,,,,,,,,,,,,,,,,,,,,,,,,,,,,
843758,001,2022-11-21_24h53.21.811,Info_measure_main_exp,2022.2.2,Win32,59.93407252,,,,,,,,,,,,,,,,,,masks/mask_004.jpg,,,,,,,,,,,,,,,,,,,,,,,,,,,,,,,,,,,,,,,,,,,0,2,2,3,1,,,,,,,,,,,,,,,,,,,,,,,,,,,,,,,,,,,,,,,,,,,,,,
843758,001,2022-11-21_24h53.21.811,Info_measure_main_exp,2022.2.2,Win32,59.93407252,,,,,,,,,,,,,,,,,,masks/mask_005.jpg,,,,,,,,,,,,,,,,,,,,,,,,,,,,,,,,,,,,,,,,,,,0,3,3,4,1,,,,,,,,,,,,,,,,,,,,,,,,,,,,,,,,,,,,,,,,,,,,,,
843758,001,2022-11-21_24h53.21.811,Info_measure_main_exp,2022.2.2,Win32,59.93407252,,,,,,,,,,,,,,,,,,masks/mask_001.jpg,,,,,,,,,,,,,,,,,,,,,,,,,,,,,,,,,,,,,,,,,,,0,4,4,0,1,,,,,,,,,,,,,,,,,,,,,,,,,,,,,,,,,,,,,,,,,,,,,,
843758,001,2022-11-21_24h53.21.811,Info_measure_main_exp,2022.2.2,Win32,59.93407252,,,,,,,,,,,,,,,,,,masks/mask_003.jpg,,,,,,,,,,,,,,,,,,,,,,,,,,,,,,,,,,,,,,,,,,,,,,,,0,0,0,2,1,,,,,,,,,,,,,,,,,,,,,,,,,,,,,,,,,,,,,,,,,
843758,001,2022-11-21_24h53.21.811,Info_measure_main_exp,2022.2.2,Win32,59.93407252,,,,,,,,,,,,,,,,,,masks/mask_002.jpg,,,,,,,,,,,,,,,,,,,,,,,,,,,,,,,,,,,,,,,,,,,,,,,,0,1,1,1,1,,,,,,,,,,,,,,,,,,,,,,,,,,,,,,,,,,,,,,,,,
843758,001,2022-11-21_24h53.21.811,Info_measure_main_exp,2022.2.2,Win32,59.93407252,,,,,,,,,,,,,,,,,,masks/mask_005.jpg,,,,,,,,,,,,,,,,,,,,,,,,,,,,,,,,,,,,,,,,,,,,,,,,0,2,2,4,1,,,,,,,,,,,,,,,,,,,,,,,,,,,,,,,,,,,,,,,,,
843758,001,2022-11-21_24h53.21.811,Info_measure_main_exp,2022.2.2,Win32,59.93407252,,,,,,,,,,,,,,,,,,masks/mask_004.jpg,,,,,,,,,,,,,,,,,,,,,,,,,,,,,,,,,,,,,,,,,,,,,,,,0,3,3,3,1,,,,,,,,,,,,,,,,,,,,,,,,,,,,,,,,,,,,,,,,,
843758,001,2022-11-21_24h53.21.811,Info_measure_main_exp,2022.2.2,Win32,59.93407252,,,,,,,,,,,,,,,,,,masks/mask_001.jpg,,,,,,,,,,,,,,,,,,,,,,,,,,,,,,,,,,,,,,,,,,,,,,,,0,4,4,0,1,,,,,,,,,,,,,,,,,,,,,,,,,,,,,,,,,,,,,,,,,
843758,001,2022-11-21_24h53.21.811,Info_measure_main_exp,2022.2.2,Win32,59.93407252,,,,,,,,,,,,,,,,,,,,,,,,,,,,,,7,0.7331,1,,,,,,,,,,,,0,131,5,5,2298,2298,absent_patch/patch0002298.jpg,absent_patch/patch0002298.jpg,,,,,,,,,,,,,,,,,,,,0.070370356,0.139814801,1,0,0,response1disk,5,-0.008333347,0.008333312,1,0,0,center_square,0,4,4,37,1,,,,,,,,,,,,,,,,,,,,,,,
843758,001,2022-11-21_24h53.21.811,Info_measure_main_exp,2022.2.2,Win32,59.93407252,,,,,,,,,,,,,,,,,,masks/mask_003.jpg,,,,,,,,,,,,,,,,,,,,,,,,,,,,,,,,,,,,,,,,,,,0,0,0,2,1,,,,,,,,,,,,,,,,,,,,,,,,,,,,,,,,,,,,,,,,,,,,,,
843758,001,2022-11-21_24h53.21.811,Info_measure_main_exp,2022.2.2,Win32,59.93407252,,,,,,,,,,,,,,,,,,masks/mask_002.jpg,,,,,,,,,,,,,,,,,,,,,,,,,,,,,,,,,,,,,,,,,,,0,1,1,1,1,,,,,,,,,,,,,,,,,,,,,,,,,,,,,,,,,,,,,,,,,,,,,,
843758,001,2022-11-21_24h53.21.811,Info_measure_main_exp,2022.2.2,Win32,59.93407252,,,,,,,,,,,,,,,,,,masks/mask_001.jpg,,,,,,,,,,,,,,,,,,,,,,,,,,,,,,,,,,,,,,,,,,,0,2,2,0,1,,,,,,,,,,,,,,,,,,,,,,,,,,,,,,,,,,,,,,,,,,,,,,
843758,001,2022-11-21_24h53.21.811,Info_measure_main_exp,2022.2.2,Win32,59.93407252,,,,,,,,,,,,,,,,,,masks/mask_004.jpg,,,,,,,,,,,,,,,,,,,,,,,,,,,,,,,,,,,,,,,,,,,0,3,3,3,1,,,,,,,,,,,,,,,,,,,,,,,,,,,,,,,,,,,,,,,,,,,,,,
843758,001,2022-11-21_24h53.21.811,Info_measure_main_exp,2022.2.2,Win32,59.93407252,,,,,,,,,,,,,,,,,,masks/mask_005.jpg,,,,,,,,,,,,,,,,,,,,,,,,,,,,,,,,,,,,,,,,,,,0,4,4,4,1,,,,,,,,,,,,,,,,,,,,,,,,,,,,,,,,,,,,,,,,,,,,,,
843758,001,2022-11-21_24h53.21.811,Info_measure_main_exp,2022.2.2,Win32,59.93407252,,,,,,,,,,,,,,,,,,masks/mask_005.jpg,,,,,,,,,,,,,,,,,,,,,,,,,,,,,,,,,,,,,,,,,,,,,,,,0,0,0,4,1,,,,,,,,,,,,,,,,,,,,,,,,,,,,,,,,,,,,,,,,,
843758,001,2022-11-21_24h53.21.811,Info_measure_main_exp,2022.2.2,Win32,59.93407252,,,,,,,,,,,,,,,,,,masks/mask_002.jpg,,,,,,,,,,,,,,,,,,,,,,,,,,,,,,,,,,,,,,,,,,,,,,,,0,1,1,1,1,,,,,,,,,,,,,,,,,,,,,,,,,,,,,,,,,,,,,,,,,
843758,001,2022-11-21_24h53.21.811,Info_measure_main_exp,2022.2.2,Win32,59.93407252,,,,,,,,,,,,,,,,,,masks/mask_004.jpg,,,,,,,,,,,,,,,,,,,,,,,,,,,,,,,,,,,,,,,,,,,,,,,,0,2,2,3,1,,,,,,,,,,,,,,,,,,,,,,,,,,,,,,,,,,,,,,,,,
843758,001,2022-11-21_24h53.21.811,Info_measure_main_exp,2022.2.2,Win32,59.93407252,,,,,,,,,,,,,,,,,,masks/mask_003.jpg,,,,,,,,,,,,,,,,,,,,,,,,,,,,,,,,,,,,,,,,,,,,,,,,0,3,3,2,1,,,,,,,,,,,,,,,,,,,,,,,,,,,,,,,,,,,,,,,,,
843758,001,2022-11-21_24h53.21.811,Info_measure_main_exp,2022.2.2,Win32,59.93407252,,,,,,,,,,,,,,,,,,masks/mask_001.jpg,,,,,,,,,,,,,,,,,,,,,,,,,,,,,,,,,,,,,,,,,,,,,,,,0,4,4,0,1,,,,,,,,,,,,,,,,,,,,,,,,,,,,,,,,,,,,,,,,,
843758,001,2022-11-21_24h53.21.811,Info_measure_main_exp,2022.2.2,Win32,59.93407252,,,,,,,,,,,,,,,,,,,,,,,,,,,,,,7,1.3728,1,,,,,,,,,,,,0,131,5,5,2190,2238,absent_patch/patch0002190.jpg,absent_patch/patch0002238.jpg,,,,,,,,,,,,,,,,,,,,0.031481496,0.041666667,1,0,0,response1disk,6,-0.001851824,-0.000925947,1,0,0,center_square,0,5,5,53,1,,,,,,,,,,,,,,,,,,,,,,,
843758,001,2022-11-21_24h53.21.811,Info_measure_main_exp,2022.2.2,Win32,59.93407252,,,,,,,,,,,,,,,,,,masks/mask_002.jpg,,,,,,,,,,,,,,,,,,,,,,,,,,,,,,,,,,,,,,,,,,,0,0,0,1,1,,,,,,,,,,,,,,,,,,,,,,,,,,,,,,,,,,,,,,,,,,,,,,
843758,001,2022-11-21_24h53.21.811,Info_measure_main_exp,2022.2.2,Win32,59.93407252,,,,,,,,,,,,,,,,,,masks/mask_005.jpg,,,,,,,,,,,,,,,,,,,,,,,,,,,,,,,,,,,,,,,,,,,0,1,1,4,1,,,,,,,,,,,,,,,,,,,,,,,,,,,,,,,,,,,,,,,,,,,,,,
843758,001,2022-11-21_24h53.21.811,Info_measure_main_exp,2022.2.2,Win32,59.93407252,,,,,,,,,,,,,,,,,,masks/mask_001.jpg,,,,,,,,,,,,,,,,,,,,,,,,,,,,,,,,,,,,,,,,,,,0,2,2,0,1,,,,,,,,,,,,,,,,,,,,,,,,,,,,,,,,,,,,,,,,,,,,,,
843758,001,2022-11-21_24h53.21.811,Info_measure_main_exp,2022.2.2,Win32,59.93407252,,,,,,,,,,,,,,,,,,masks/mask_004.jpg,,,,,,,,,,,,,,,,,,,,,,,,,,,,,,,,,,,,,,,,,,,0,3,3,3,1,,,,,,,,,,,,,,,,,,,,,,,,,,,,,,,,,,,,,,,,,,,,,,
843758,001,2022-11-21_24h53.21.811,Info_measure_main_exp,2022.2.2,Win32,59.93407252,,,,,,,,,,,,,,,,,,masks/mask_003.jpg,,,,,,,,,,,,,,,,,,,,,,,,,,,,,,,,,,,,,,,,,,,0,4,4,2,1,,,,,,,,,,,,,,,,,,,,,,,,,,,,,,,,,,,,,,,,,,,,,,
843758,001,2022-11-21_24h53.21.811,Info_measure_main_exp,2022.2.2,Win32,59.93407252,,,,,,,,,,,,,,,,,,masks/mask_003.jpg,,,,,,,,,,,,,,,,,,,,,,,,,,,,,,,,,,,,,,,,,,,,,,,,0,0,0,2,1,,,,,,,,,,,,,,,,,,,,,,,,,,,,,,,,,,,,,,,,,
843758,001,2022-11-21_24h53.21.811,Info_measure_main_exp,2022.2.2,Win32,59.93407252,,,,,,,,,,,,,,,,,,masks/mask_005.jpg,,,,,,,,,,,,,,,,,,,,,,,,,,,,,,,,,,,,,,,,,,,,,,,,0,1,1,4,1,,,,,,,,,,,,,,,,,,,,,,,,,,,,,,,,,,,,,,,,,
843758,001,2022-11-21_24h53.21.811,Info_measure_main_exp,2022.2.2,Win32,59.93407252,,,,,,,,,,,,,,,,,,masks/mask_002.jpg,,,,,,,,,,,,,,,,,,,,,,,,,,,,,,,,,,,,,,,,,,,,,,,,0,2,2,1,1,,,,,,,,,,,,,,,,,,,,,,,,,,,,,,,,,,,,,,,,,
843758,001,2022-11-21_24h53.21.811,Info_measure_main_exp,2022.2.2,Win32,59.93407252,,,,,,,,,,,,,,,,,,masks/mask_001.jpg,,,,,,,,,,,,,,,,,,,,,,,,,,,,,,,,,,,,,,,,,,,,,,,,0,3,3,0,1,,,,,,,,,,,,,,,,,,,,,,,,,,,,,,,,,,,,,,,,,
843758,001,2022-11-21_24h53.21.811,Info_measure_main_exp,2022.2.2,Win32,59.93407252,,,,,,,,,,,,,,,,,,masks/mask_004.jpg,,,,,,,,,,,,,,,,,,,,,,,,,,,,,,,,,,,,,,,,,,,,,,,,0,4,4,3,1,,,,,,,,,,,,,,,,,,,,,,,,,,,,,,,,,,,,,,,,,
843758,001,2022-11-21_24h53.21.811,Info_measure_main_exp,2022.2.2,Win32,59.93407252,,,,,,,,,,,,,,,,,,,,,,,,,,,,,,7,0.8727,1,,,,,,,,,,,,0,131,5,5,1974,2298,absent_patch/patch0001974.jpg,absent_patch/patch0002298.jpg,,,,,,,,,,,,,,,,,,,,0.031481496,0.087037016,1,0,0,response1disk,7,0.005555541,-0.002777771,1,0,0,center_square,0,6,6,6,1,,,,,,,,,,,,,,,,,,,,,,,
843758,001,2022-11-21_24h53.21.811,Info_measure_main_exp,2022.2.2,Win32,59.93407252,,,,,,,,,,,,,,,,,,masks/mask_005.jpg,,,,,,,,,,,,,,,,,,,,,,,,,,,,,,,,,,,,,,,,,,,0,0,0,4,1,,,,,,,,,,,,,,,,,,,,,,,,,,,,,,,,,,,,,,,,,,,,,,
843758,001,2022-11-21_24h53.21.811,Info_measure_main_exp,2022.2.2,Win32,59.93407252,,,,,,,,,,,,,,,,,,masks/mask_004.jpg,,,,,,,,,,,,,,,,,,,,,,,,,,,,,,,,,,,,,,,,,,,0,1,1,3,1,,,,,,,,,,,,,,,,,,,,,,,,,,,,,,,,,,,,,,,,,,,,,,
843758,001,2022-11-21_24h53.21.811,Info_measure_main_exp,2022.2.2,Win32,59.93407252,,,,,,,,,,,,,,,,,,masks/mask_003.jpg,,,,,,,,,,,,,,,,,,,,,,,,,,,,,,,,,,,,,,,,,,,0,2,2,2,1,,,,,,,,,,,,,,,,,,,,,,,,,,,,,,,,,,,,,,,,,,,,,,
843758,001,2022-11-21_24h53.21.811,Info_measure_main_exp,2022.2.2,Win32,59.93407252,,,,,,,,,,,,,,,,,,masks/mask_002.jpg,,,,,,,,,,,,,,,,,,,,,,,,,,,,,,,,,,,,,,,,,,,0,3,3,1,1,,,,,,,,,,,,,,,,,,,,,,,,,,,,,,,,,,,,,,,,,,,,,,
843758,001,2022-11-21_24h53.21.811,Info_measure_main_exp,2022.2.2,Win32,59.93407252,,,,,,,,,,,,,,,,,,masks/mask_001.jpg,,,,,,,,,,,,,,,,,,,,,,,,,,,,,,,,,,,,,,,,,,,0,4,4,0,1,,,,,,,,,,,,,,,,,,,,,,,,,,,,,,,,,,,,,,,,,,,,,,
843758,001,2022-11-21_24h53.21.811,Info_measure_main_exp,2022.2.2,Win32,59.93407252,,,,,,,,,,,,,,,,,,masks/mask_001.jpg,,,,,,,,,,,,,,,,,,,,,,,,,,,,,,,,,,,,,,,,,,,,,,,,0,0,0,0,1,,,,,,,,,,,,,,,,,,,,,,,,,,,,,,,,,,,,,,,,,
843758,001,2022-11-21_24h53.21.811,Info_measure_main_exp,2022.2.2,Win32,59.93407252,,,,,,,,,,,,,,,,,,masks/mask_005.jpg,,,,,,,,,,,,,,,,,,,,,,,,,,,,,,,,,,,,,,,,,,,,,,,,0,1,1,4,1,,,,,,,,,,,,,,,,,,,,,,,,,,,,,,,,,,,,,,,,,
843758,001,2022-11-21_24h53.21.811,Info_measure_main_exp,2022.2.2,Win32,59.93407252,,,,,,,,,,,,,,,,,,masks/mask_004.jpg,,,,,,,,,,,,,,,,,,,,,,,,,,,,,,,,,,,,,,,,,,,,,,,,0,2,2,3,1,,,,,,,,,,,,,,,,,,,,,,,,,,,,,,,,,,,,,,,,,
843758,001,2022-11-21_24h53.21.811,Info_measure_main_exp,2022.2.2,Win32,59.93407252,,,,,,,,,,,,,,,,,,masks/mask_002.jpg,,,,,,,,,,,,,,,,,,,,,,,,,,,,,,,,,,,,,,,,,,,,,,,,0,3,3,1,1,,,,,,,,,,,,,,,,,,,,,,,,,,,,,,,,,,,,,,,,,
843758,001,2022-11-21_24h53.21.811,Info_measure_main_exp,2022.2.2,Win32,59.93407252,,,,,,,,,,,,,,,,,,masks/mask_003.jpg,,,,,,,,,,,,,,,,,,,,,,,,,,,,,,,,,,,,,,,,,,,,,,,,0,4,4,2,1,,,,,,,,,,,,,,,,,,,,,,,,,,,,,,,,,,,,,,,,,
843758,001,2022-11-21_24h53.21.811,Info_measure_main_exp,2022.2.2,Win32,59.93407252,,,,,,,,,,,,,,,,,,,,,,,,,,,,,,7,1.0495,1,,,,,,,,,,,,0,131,5,5,1986,2142,absent_patch/patch0001986.jpg,absent_patch/patch0002142.jpg,,,,,,,,,,,,,,,,,,,,0.012962977,0.087037016,1,0,0,response1disk,8,-0.010185171,0.003703683,1,0,0,center_square,0,7,7,76,1,,,,,,,,,,,,,,,,,,,,,,,
843758,001,2022-11-21_24h53.21.811,Info_measure_main_exp,2022.2.2,Win32,59.93407252,,,,,,,,,,,,,,,,,,masks/mask_003.jpg,,,,,,,,,,,,,,,,,,,,,,,,,,,,,,,,,,,,,,,,,,,0,0,0,2,1,,,,,,,,,,,,,,,,,,,,,,,,,,,,,,,,,,,,,,,,,,,,,,
843758,001,2022-11-21_24h53.21.811,Info_measure_main_exp,2022.2.2,Win32,59.93407252,,,,,,,,,,,,,,,,,,masks/mask_004.jpg,,,,,,,,,,,,,,,,,,,,,,,,,,,,,,,,,,,,,,,,,,,0,1,1,3,1,,,,,,,,,,,,,,,,,,,,,,,,,,,,,,,,,,,,,,,,,,,,,,
843758,001,2022-11-21_24h53.21.811,Info_measure_main_exp,2022.2.2,Win32,59.93407252,,,,,,,,,,,,,,,,,,masks/mask_001.jpg,,,,,,,,,,,,,,,,,,,,,,,,,,,,,,,,,,,,,,,,,,,0,2,2,0,1,,,,,,,,,,,,,,,,,,,,,,,,,,,,,,,,,,,,,,,,,,,,,,
843758,001,2022-11-21_24h53.21.811,Info_measure_main_exp,2022.2.2,Win32,59.93407252,,,,,,,,,,,,,,,,,,masks/mask_005.jpg,,,,,,,,,,,,,,,,,,,,,,,,,,,,,,,,,,,,,,,,,,,0,3,3,4,1,,,,,,,,,,,,,,,,,,,,,,,,,,,,,,,,,,,,,,,,,,,,,,
843758,001,2022-11-21_24h53.21.811,Info_measure_main_exp,2022.2.2,Win32,59.93407252,,,,,,,,,,,,,,,,,,masks/mask_002.jpg,,,,,,,,,,,,,,,,,,,,,,,,,,,,,,,,,,,,,,,,,,,0,4,4,1,1,,,,,,,,,,,,,,,,,,,,,,,,,,,,,,,,,,,,,,,,,,,,,,
843758,001,2022-11-21_24h53.21.811,Info_measure_main_exp,2022.2.2,Win32,59.93407252,,,,,,,,,,,,,,,,,,masks/mask_001.jpg,,,,,,,,,,,,,,,,,,,,,,,,,,,,,,,,,,,,,,,,,,,,,,,,0,0,0,0,1,,,,,,,,,,,,,,,,,,,,,,,,,,,,,,,,,,,,,,,,,
843758,001,2022-11-21_24h53.21.811,Info_measure_main_exp,2022.2.2,Win32,59.93407252,,,,,,,,,,,,,,,,,,masks/mask_004.jpg,,,,,,,,,,,,,,,,,,,,,,,,,,,,,,,,,,,,,,,,,,,,,,,,0,1,1,3,1,,,,,,,,,,,,,,,,,,,,,,,,,,,,,,,,,,,,,,,,,
843758,001,2022-11-21_24h53.21.811,Info_measure_main_exp,2022.2.2,Win32,59.93407252,,,,,,,,,,,,,,,,,,masks/mask_002.jpg,,,,,,,,,,,,,,,,,,,,,,,,,,,,,,,,,,,,,,,,,,,,,,,,0,2,2,1,1,,,,,,,,,,,,,,,,,,,,,,,,,,,,,,,,,,,,,,,,,
843758,001,2022-11-21_24h53.21.811,Info_measure_main_exp,2022.2.2,Win32,59.93407252,,,,,,,,,,,,,,,,,,masks/mask_003.jpg,,,,,,,,,,,,,,,,,,,,,,,,,,,,,,,,,,,,,,,,,,,,,,,,0,3,3,2,1,,,,,,,,,,,,,,,,,,,,,,,,,,,,,,,,,,,,,,,,,
843758,001,2022-11-21_24h53.21.811,Info_measure_main_exp,2022.2.2,Win32,59.93407252,,,,,,,,,,,,,,,,,,masks/mask_005.jpg,,,,,,,,,,,,,,,,,,,,,,,,,,,,,,,,,,,,,,,,,,,,,,,,0,4,4,4,1,,,,,,,,,,,,,,,,,,,,,,,,,,,,,,,,,,,,,,,,,
843758,001,2022-11-21_24h53.21.811,Info_measure_main_exp,2022.2.2,Win32,59.93407252,,,,,,,,,,,,,,,,,,,,,,,,,,,,,,7,1.0833,1,,,,,,,,,,,,0,131,5,5,2154,2298,absent_patch/patch0002154.jpg,absent_patch/patch0002298.jpg,,,,,,,,,,,,,,,,,,,,0.046296296,0.087962963,1,0,0,response1disk,9,0.005555541,0.009259259,1,0,0,center_square,0,8,8,27,1,,,,,,,,,,,,,,,,,,,,,,,
843758,001,2022-11-21_24h53.21.811,Info_measure_main_exp,2022.2.2,Win32,59.93407252,,,,,,,,,,,,,,,,,,masks/mask_002.jpg,,,,,,,,,,,,,,,,,,,,,,,,,,,,,,,,,,,,,,,,,,,0,0,0,1,1,,,,,,,,,,,,,,,,,,,,,,,,,,,,,,,,,,,,,,,,,,,,,,
843758,001,2022-11-21_24h53.21.811,Info_measure_main_exp,2022.2.2,Win32,59.93407252,,,,,,,,,,,,,,,,,,masks/mask_003.jpg,,,,,,,,,,,,,,,,,,,,,,,,,,,,,,,,,,,,,,,,,,,0,1,1,2,1,,,,,,,,,,,,,,,,,,,,,,,,,,,,,,,,,,,,,,,,,,,,,,
843758,001,2022-11-21_24h53.21.811,Info_measure_main_exp,2022.2.2,Win32,59.93407252,,,,,,,,,,,,,,,,,,masks/mask_005.jpg,,,,,,,,,,,,,,,,,,,,,,,,,,,,,,,,,,,,,,,,,,,0,2,2,4,1,,,,,,,,,,,,,,,,,,,,,,,,,,,,,,,,,,,,,,,,,,,,,,
843758,001,2022-11-21_24h53.21.811,Info_measure_main_exp,2022.2.2,Win32,59.93407252,,,,,,,,,,,,,,,,,,masks/mask_004.jpg,,,,,,,,,,,,,,,,,,,,,,,,,,,,,,,,,,,,,,,,,,,0,3,3,3,1,,,,,,,,,,,,,,,,,,,,,,,,,,,,,,,,,,,,,,,,,,,,,,
843758,001,2022-11-21_24h53.21.811,Info_measure_main_exp,2022.2.2,Win32,59.93407252,,,,,,,,,,,,,,,,,,masks/mask_001.jpg,,,,,,,,,,,,,,,,,,,,,,,,,,,,,,,,,,,,,,,,,,,0,4,4,0,1,,,,,,,,,,,,,,,,,,,,,,,,,,,,,,,,,,,,,,,,,,,,,,
843758,001,2022-11-21_24h53.21.811,Info_measure_main_exp,2022.2.2,Win32,59.93407252,,,,,,,,,,,,,,,,,,masks/mask_005.jpg,,,,,,,,,,,,,,,,,,,,,,,,,,,,,,,,,,,,,,,,,,,,,,,,0,0,0,4,1,,,,,,,,,,,,,,,,,,,,,,,,,,,,,,,,,,,,,,,,,
843758,001,2022-11-21_24h53.21.811,Info_measure_main_exp,2022.2.2,Win32,59.93407252,,,,,,,,,,,,,,,,,,masks/mask_001.jpg,,,,,,,,,,,,,,,,,,,,,,,,,,,,,,,,,,,,,,,,,,,,,,,,0,1,1,0,1,,,,,,,,,,,,,,,,,,,,,,,,,,,,,,,,,,,,,,,,,
843758,001,2022-11-21_24h53.21.811,Info_measure_main_exp,2022.2.2,Win32,59.93407252,,,,,,,,,,,,,,,,,,masks/mask_003.jpg,,,,,,,,,,,,,,,,,,,,,,,,,,,,,,,,,,,,,,,,,,,,,,,,0,2,2,2,1,,,,,,,,,,,,,,,,,,,,,,,,,,,,,,,,,,,,,,,,,
843758,001,2022-11-21_24h53.21.811,Info_measure_main_exp,2022.2.2,Win32,59.93407252,,,,,,,,,,,,,,,,,,masks/mask_004.jpg,,,,,,,,,,,,,,,,,,,,,,,,,,,,,,,,,,,,,,,,,,,,,,,,0,3,3,3,1,,,,,,,,,,,,,,,,,,,,,,,,,,,,,,,,,,,,,,,,,
843758,001,2022-11-21_24h53.21.811,Info_measure_main_exp,2022.2.2,Win32,59.93407252,,,,,,,,,,,,,,,,,,masks/mask_002.jpg,,,,,,,,,,,,,,,,,,,,,,,,,,,,,,,,,,,,,,,,,,,,,,,,0,4,4,1,1,,,,,,,,,,,,,,,,,,,,,,,,,,,,,,,,,,,,,,,,,
843758,001,2022-11-21_24h53.21.811,Info_measure_main_exp,2022.2.2,Win32,59.93407252,,,,,,,,,,,,,,,,,,,,,,,,,,,,,,7,0.7063,1,,,,,,,,,,,,0,131,5,5,2082,1986,absent_patch/patch0002082.jpg,absent_patch/patch0001986.jpg,,,,,,,,,,,,,,,,,,,,0.013888889,0.049074067,1,0,0,response1disk,10,-0.002777735,0.01203703,1,0,0,center_square,0,9,9,94,1,,,,,,,,,,,,,,,,,,,,,,,
843758,001,2022-11-21_24h53.21.811,Info_measure_main_exp,2022.2.2,Win32,59.93407252,,,,,,,,,,,,,,,,,,masks/mask_005.jpg,,,,,,,,,,,,,,,,,,,,,,,,,,,,,,,,,,,,,,,,,,,0,0,0,4,1,,,,,,,,,,,,,,,,,,,,,,,,,,,,,,,,,,,,,,,,,,,,,,
843758,001,2022-11-21_24h53.21.811,Info_measure_main_exp,2022.2.2,Win32,59.93407252,,,,,,,,,,,,,,,,,,masks/mask_003.jpg,,,,,,,,,,,,,,,,,,,,,,,,,,,,,,,,,,,,,,,,,,,0,1,1,2,1,,,,,,,,,,,,,,,,,,,,,,,,,,,,,,,,,,,,,,,,,,,,,,
843758,001,2022-11-21_24h53.21.811,Info_measure_main_exp,2022.2.2,Win32,59.93407252,,,,,,,,,,,,,,,,,,masks/mask_001.jpg,,,,,,,,,,,,,,,,,,,,,,,,,,,,,,,,,,,,,,,,,,,0,2,2,0,1,,,,,,,,,,,,,,,,,,,,,,,,,,,,,,,,,,,,,,,,,,,,,,
843758,001,2022-11-21_24h53.21.811,Info_measure_main_exp,2022.2.2,Win32,59.93407252,,,,,,,,,,,,,,,,,,masks/mask_002.jpg,,,,,,,,,,,,,,,,,,,,,,,,,,,,,,,,,,,,,,,,,,,0,3,3,1,1,,,,,,,,,,,,,,,,,,,,,,,,,,,,,,,,,,,,,,,,,,,,,,
843758,001,2022-11-21_24h53.21.811,Info_measure_main_exp,2022.2.2,Win32,59.93407252,,,,,,,,,,,,,,,,,,masks/mask_004.jpg,,,,,,,,,,,,,,,,,,,,,,,,,,,,,,,,,,,,,,,,,,,0,4,4,3,1,,,,,,,,,,,,,,,,,,,,,,,,,,,,,,,,,,,,,,,,,,,,,,
843758,001,2022-11-21_24h53.21.811,Info_measure_main_exp,2022.2.2,Win32,59.93407252,,,,,,,,,,,,,,,,,,masks/mask_004.jpg,,,,,,,,,,,,,,,,,,,,,,,,,,,,,,,,,,,,,,,,,,,,,,,,0,0,0,3,1,,,,,,,,,,,,,,,,,,,,,,,,,,,,,,,,,,,,,,,,,
843758,001,2022-11-21_24h53.21.811,Info_measure_main_exp,2022.2.2,Win32,59.93407252,,,,,,,,,,,,,,,,,,masks/mask_001.jpg,,,,,,,,,,,,,,,,,,,,,,,,,,,,,,,,,,,,,,,,,,,,,,,,0,1,1,0,1,,,,,,,,,,,,,,,,,,,,,,,,,,,,,,,,,,,,,,,,,
843758,001,2022-11-21_24h53.21.811,Info_measure_main_exp,2022.2.2,Win32,59.93407252,,,,,,,,,,,,,,,,,,masks/mask_002.jpg,,,,,,,,,,,,,,,,,,,,,,,,,,,,,,,,,,,,,,,,,,,,,,,,0,2,2,1,1,,,,,,,,,,,,,,,,,,,,,,,,,,,,,,,,,,,,,,,,,
843758,001,2022-11-21_24h53.21.811,Info_measure_main_exp,2022.2.2,Win32,59.93407252,,,,,,,,,,,,,,,,,,masks/mask_003.jpg,,,,,,,,,,,,,,,,,,,,,,,,,,,,,,,,,,,,,,,,,,,,,,,,0,3,3,2,1,,,,,,,,,,,,,,,,,,,,,,,,,,,,,,,,,,,,,,,,,
843758,001,2022-11-21_24h53.21.811,Info_measure_main_exp,2022.2.2,Win32,59.93407252,,,,,,,,,,,,,,,,,,masks/mask_005.jpg,,,,,,,,,,,,,,,,,,,,,,,,,,,,,,,,,,,,,,,,,,,,,,,,0,4,4,4,1,,,,,,,,,,,,,,,,,,,,,,,,,,,,,,,,,,,,,,,,,
843758,001,2022-11-21_24h53.21.811,Info_measure_main_exp,2022.2.2,Win32,59.93407252,,,,,,,,,,,,,,,,,,,,,,,,,,,,,,7,0.9496,1,,,,,,,,,,,,0,131,5,5,2250,2214,absent_patch/patch0002250.jpg,absent_patch/patch0002214.jpg,,,,,,,,,,,,,,,,,,,,0.05277782,0.055555556,1,0,0,response1disk,11,0.008333347,0.002777771,1,0,0,center_square,0,10,10,97,1,,,,,,,,,,,,,,,,,,,,,,,
843758,001,2022-11-21_24h53.21.811,Info_measure_main_exp,2022.2.2,Win32,59.93407252,,,,,,,,,,,,,,,,,,masks/mask_001.jpg,,,,,,,,,,,,,,,,,,,,,,,,,,,,,,,,,,,,,,,,,,,0,0,0,0,1,,,,,,,,,,,,,,,,,,,,,,,,,,,,,,,,,,,,,,,,,,,,,,
843758,001,2022-11-21_24h53.21.811,Info_measure_main_exp,2022.2.2,Win32,59.93407252,,,,,,,,,,,,,,,,,,masks/mask_002.jpg,,,,,,,,,,,,,,,,,,,,,,,,,,,,,,,,,,,,,,,,,,,0,1,1,1,1,,,,,,,,,,,,,,,,,,,,,,,,,,,,,,,,,,,,,,,,,,,,,,
843758,001,2022-11-21_24h53.21.811,Info_measure_main_exp,2022.2.2,Win32,59.93407252,,,,,,,,,,,,,,,,,,masks/mask_004.jpg,,,,,,,,,,,,,,,,,,,,,,,,,,,,,,,,,,,,,,,,,,,0,2,2,3,1,,,,,,,,,,,,,,,,,,,,,,,,,,,,,,,,,,,,,,,,,,,,,,
843758,001,2022-11-21_24h53.21.811,Info_measure_main_exp,2022.2.2,Win32,59.93407252,,,,,,,,,,,,,,,,,,masks/mask_005.jpg,,,,,,,,,,,,,,,,,,,,,,,,,,,,,,,,,,,,,,,,,,,0,3,3,4,1,,,,,,,,,,,,,,,,,,,,,,,,,,,,,,,,,,,,,,,,,,,,,,
843758,001,2022-11-21_24h53.21.811,Info_measure_main_exp,2022.2.2,Win32,59.93407252,,,,,,,,,,,,,,,,,,masks/mask_003.jpg,,,,,,,,,,,,,,,,,,,,,,,,,,,,,,,,,,,,,,,,,,,0,4,4,2,1,,,,,,,,,,,,,,,,,,,,,,,,,,,,,,,,,,,,,,,,,,,,,,
843758,001,2022-11-21_24h53.21.811,Info_measure_main_exp,2022.2.2,Win32,59.93407252,,,,,,,,,,,,,,,,,,masks/mask_005.jpg,,,,,,,,,,,,,,,,,,,,,,,,,,,,,,,,,,,,,,,,,,,,,,,,0,0,0,4,1,,,,,,,,,,,,,,,,,,,,,,,,,,,,,,,,,,,,,,,,,
843758,001,2022-11-21_24h53.21.811,Info_measure_main_exp,2022.2.2,Win32,59.93407252,,,,,,,,,,,,,,,,,,masks/mask_004.jpg,,,,,,,,,,,,,,,,,,,,,,,,,,,,,,,,,,,,,,,,,,,,,,,,0,1,1,3,1,,,,,,,,,,,,,,,,,,,,,,,,,,,,,,,,,,,,,,,,,
843758,001,2022-11-21_24h53.21.811,Info_measure_main_exp,2022.2.2,Win32,59.93407252,,,,,,,,,,,,,,,,,,masks/mask_002.jpg,,,,,,,,,,,,,,,,,,,,,,,,,,,,,,,,,,,,,,,,,,,,,,,,0,2,2,1,1,,,,,,,,,,,,,,,,,,,,,,,,,,,,,,,,,,,,,,,,,
843758,001,2022-11-21_24h53.21.811,Info_measure_main_exp,2022.2.2,Win32,59.93407252,,,,,,,,,,,,,,,,,,masks/mask_001.jpg,,,,,,,,,,,,,,,,,,,,,,,,,,,,,,,,,,,,,,,,,,,,,,,,0,3,3,0,1,,,,,,,,,,,,,,,,,,,,,,,,,,,,,,,,,,,,,,,,,
843758,001,2022-11-21_24h53.21.811,Info_measure_main_exp,2022.2.2,Win32,59.93407252,,,,,,,,,,,,,,,,,,masks/mask_003.jpg,,,,,,,,,,,,,,,,,,,,,,,,,,,,,,,,,,,,,,,,,,,,,,,,0,4,4,2,1,,,,,,,,,,,,,,,,,,,,,,,,,,,,,,,,,,,,,,,,,
843758,001,2022-11-21_24h53.21.811,Info_measure_main_exp,2022.2.2,Win32,59.93407252,,,,,,,,,,,,,,,,,,,,,,,,,,,,,,6,0.8727,1,,,,,,,,,,,,0,131,5,5,1950,2166,absent_patch/patch0001950.jpg,absent_patch/patch0002166.jpg,,,,,,,,,,,,,,,,,,,,0.069444444,0.044444437,1,0,0,response1disk,12,0.005555541,0.013888889,1,0,0,center_square,0,11,11,0,1,,,,,,,,,,,,,,,,,,,,,,,
843758,001,2022-11-21_24h53.21.811,Info_measure_main_exp,2022.2.2,Win32,59.93407252,,,,,,,,,,,,,,,,,,masks/mask_005.jpg,,,,,,,,,,,,,,,,,,,,,,,,,,,,,,,,,,,,,,,,,,,0,0,0,4,1,,,,,,,,,,,,,,,,,,,,,,,,,,,,,,,,,,,,,,,,,,,,,,
843758,001,2022-11-21_24h53.21.811,Info_measure_main_exp,2022.2.2,Win32,59.93407252,,,,,,,,,,,,,,,,,,masks/mask_002.jpg,,,,,,,,,,,,,,,,,,,,,,,,,,,,,,,,,,,,,,,,,,,0,1,1,1,1,,,,,,,,,,,,,,,,,,,,,,,,,,,,,,,,,,,,,,,,,,,,,,
843758,001,2022-11-21_24h53.21.811,Info_measure_main_exp,2022.2.2,Win32,59.93407252,,,,,,,,,,,,,,,,,,masks/mask_003.jpg,,,,,,,,,,,,,,,,,,,,,,,,,,,,,,,,,,,,,,,,,,,0,2,2,2,1,,,,,,,,,,,,,,,,,,,,,,,,,,,,,,,,,,,,,,,,,,,,,,
843758,001,2022-11-21_24h53.21.811,Info_measure_main_exp,2022.2.2,Win32,59.93407252,,,,,,,,,,,,,,,,,,masks/mask_001.jpg,,,,,,,,,,,,,,,,,,,,,,,,,,,,,,,,,,,,,,,,,,,0,3,3,0,1,,,,,,,,,,,,,,,,,,,,,,,,,,,,,,,,,,,,,,,,,,,,,,
843758,001,2022-11-21_24h53.21.811,Info_measure_main_exp,2022.2.2,Win32,59.93407252,,,,,,,,,,,,,,,,,,masks/mask_004.jpg,,,,,,,,,,,,,,,,,,,,,,,,,,,,,,,,,,,,,,,,,,,0,4,4,3,1,,,,,,,,,,,,,,,,,,,,,,,,,,,,,,,,,,,,,,,,,,,,,,
843758,001,2022-11-21_24h53.21.811,Info_measure_main_exp,2022.2.2,Win32,59.93407252,,,,,,,,,,,,,,,,,,masks/mask_003.jpg,,,,,,,,,,,,,,,,,,,,,,,,,,,,,,,,,,,,,,,,,,,,,,,,0,0,0,2,1,,,,,,,,,,,,,,,,,,,,,,,,,,,,,,,,,,,,,,,,,
843758,001,2022-11-21_24h53.21.811,Info_measure_main_exp,2022.2.2,Win32,59.93407252,,,,,,,,,,,,,,,,,,masks/mask_001.jpg,,,,,,,,,,,,,,,,,,,,,,,,,,,,,,,,,,,,,,,,,,,,,,,,0,1,1,0,1,,,,,,,,,,,,,,,,,,,,,,,,,,,,,,,,,,,,,,,,,
843758,001,2022-11-21_24h53.21.811,Info_measure_main_exp,2022.2.2,Win32,59.93407252,,,,,,,,,,,,,,,,,,masks/mask_002.jpg,,,,,,,,,,,,,,,,,,,,,,,,,,,,,,,,,,,,,,,,,,,,,,,,0,2,2,1,1,,,,,,,,,,,,,,,,,,,,,,,,,,,,,,,,,,,,,,,,,
843758,001,2022-11-21_24h53.21.811,Info_measure_main_exp,2022.2.2,Win32,59.93407252,,,,,,,,,,,,,,,,,,masks/mask_005.jpg,,,,,,,,,,,,,,,,,,,,,,,,,,,,,,,,,,,,,,,,,,,,,,,,0,3,3,4,1,,,,,,,,,,,,,,,,,,,,,,,,,,,,,,,,,,,,,,,,,
843758,001,2022-11-21_24h53.21.811,Info_measure_main_exp,2022.2.2,Win32,59.93407252,,,,,,,,,,,,,,,,,,masks/mask_004.jpg,,,,,,,,,,,,,,,,,,,,,,,,,,,,,,,,,,,,,,,,,,,,,,,,0,4,4,3,1,,,,,,,,,,,,,,,,,,,,,,,,,,,,,,,,,,,,,,,,,
843758,001,2022-11-21_24h53.21.811,Info_measure_main_exp,2022.2.2,Win32,59.93407252,,,,,,,,,,,,,,,,,,,,,,,,,,,,,,0,0.8994,1,,,,,,,,,,,,0,131,5,5,2250,2250,absent_patch/patch0002250.jpg,absent_patch/patch0002250.jpg,,,,,,,,,,,,,,,,,,,,-0.023148148,0.076851845,1,0,0,response7disk,13,-0.001851824,0.002777771,1,0,0,center_square,0,12,12,56,1,,,,,,,,,,,,,,,,,,,,,,,
843758,001,2022-11-21_24h53.21.811,Info_measure_main_exp,2022.2.2,Win32,59.93407252,,,,,,,,,,,,,,,,,,masks/mask_005.jpg,,,,,,,,,,,,,,,,,,,,,,,,,,,,,,,,,,,,,,,,,,,0,0,0,4,1,,,,,,,,,,,,,,,,,,,,,,,,,,,,,,,,,,,,,,,,,,,,,,
843758,001,2022-11-21_24h53.21.811,Info_measure_main_exp,2022.2.2,Win32,59.93407252,,,,,,,,,,,,,,,,,,masks/mask_002.jpg,,,,,,,,,,,,,,,,,,,,,,,,,,,,,,,,,,,,,,,,,,,0,1,1,1,1,,,,,,,,,,,,,,,,,,,,,,,,,,,,,,,,,,,,,,,,,,,,,,
843758,001,2022-11-21_24h53.21.811,Info_measure_main_exp,2022.2.2,Win32,59.93407252,,,,,,,,,,,,,,,,,,masks/mask_001.jpg,,,,,,,,,,,,,,,,,,,,,,,,,,,,,,,,,,,,,,,,,,,0,2,2,0,1,,,,,,,,,,,,,,,,,,,,,,,,,,,,,,,,,,,,,,,,,,,,,,
843758,001,2022-11-21_24h53.21.811,Info_measure_main_exp,2022.2.2,Win32,59.93407252,,,,,,,,,,,,,,,,,,masks/mask_003.jpg,,,,,,,,,,,,,,,,,,,,,,,,,,,,,,,,,,,,,,,,,,,0,3,3,2,1,,,,,,,,,,,,,,,,,,,,,,,,,,,,,,,,,,,,,,,,,,,,,,
843758,001,2022-11-21_24h53.21.811,Info_measure_main_exp,2022.2.2,Win32,59.93407252,,,,,,,,,,,,,,,,,,masks/mask_004.jpg,,,,,,,,,,,,,,,,,,,,,,,,,,,,,,,,,,,,,,,,,,,0,4,4,3,1,,,,,,,,,,,,,,,,,,,,,,,,,,,,,,,,,,,,,,,,,,,,,,
843758,001,2022-11-21_24h53.21.811,Info_measure_main_exp,2022.2.2,Win32,59.93407252,,,,,,,,,,,,,,,,,,masks/mask_005.jpg,,,,,,,,,,,,,,,,,,,,,,,,,,,,,,,,,,,,,,,,,,,,,,,,0,0,0,4,1,,,,,,,,,,,,,,,,,,,,,,,,,,,,,,,,,,,,,,,,,
843758,001,2022-11-21_24h53.21.811,Info_measure_main_exp,2022.2.2,Win32,59.93407252,,,,,,,,,,,,,,,,,,masks/mask_001.jpg,,,,,,,,,,,,,,,,,,,,,,,,,,,,,,,,,,,,,,,,,,,,,,,,0,1,1,0,1,,,,,,,,,,,,,,,,,,,,,,,,,,,,,,,,,,,,,,,,,
843758,001,2022-11-21_24h53.21.811,Info_measure_main_exp,2022.2.2,Win32,59.93407252,,,,,,,,,,,,,,,,,,masks/mask_002.jpg,,,,,,,,,,,,,,,,,,,,,,,,,,,,,,,,,,,,,,,,,,,,,,,,0,2,2,1,1,,,,,,,,,,,,,,,,,,,,,,,,,,,,,,,,,,,,,,,,,
843758,001,2022-11-21_24h53.21.811,Info_measure_main_exp,2022.2.2,Win32,59.93407252,,,,,,,,,,,,,,,,,,masks/mask_003.jpg,,,,,,,,,,,,,,,,,,,,,,,,,,,,,,,,,,,,,,,,,,,,,,,,0,3,3,2,1,,,,,,,,,,,,,,,,,,,,,,,,,,,,,,,,,,,,,,,,,
843758,001,2022-11-21_24h53.21.811,Info_measure_main_exp,2022.2.2,Win32,59.93407252,,,,,,,,,,,,,,,,,,masks/mask_004.jpg,,,,,,,,,,,,,,,,,,,,,,,,,,,,,,,,,,,,,,,,,,,,,,,,0,4,4,3,1,,,,,,,,,,,,,,,,,,,,,,,,,,,,,,,,,,,,,,,,,
843758,001,2022-11-21_24h53.21.811,Info_measure_main_exp,2022.2.2,Win32,59.93407252,,,,,,,,,,,,,,,,,,,,,,,,,,,,,,0,0.6065,1,,,,,,,,,,,,0,131,5,5,2178,2178,absent_patch/patch0002178.jpg,absent_patch/patch0002178.jpg,,,,,,,,,,,,,,,,,,,,-0.037037037,0.096296275,1,0,0,response7disk,14,-0.009259259,0.012962942,1,0,0,center_square,0,13,13,98,1,,,,,,,,,,,,,,,,,,,,,,,
843758,001,2022-11-21_24h53.21.811,Info_measure_main_exp,2022.2.2,Win32,59.93407252,,,,,,,,,,,,,,,,,,masks/mask_004.jpg,,,,,,,,,,,,,,,,,,,,,,,,,,,,,,,,,,,,,,,,,,,0,0,0,3,1,,,,,,,,,,,,,,,,,,,,,,,,,,,,,,,,,,,,,,,,,,,,,,
843758,001,2022-11-21_24h53.21.811,Info_measure_main_exp,2022.2.2,Win32,59.93407252,,,,,,,,,,,,,,,,,,masks/mask_005.jpg,,,,,,,,,,,,,,,,,,,,,,,,,,,,,,,,,,,,,,,,,,,0,1,1,4,1,,,,,,,,,,,,,,,,,,,,,,,,,,,,,,,,,,,,,,,,,,,,,,
843758,001,2022-11-21_24h53.21.811,Info_measure_main_exp,2022.2.2,Win32,59.93407252,,,,,,,,,,,,,,,,,,masks/mask_002.jpg,,,,,,,,,,,,,,,,,,,,,,,,,,,,,,,,,,,,,,,,,,,0,2,2,1,1,,,,,,,,,,,,,,,,,,,,,,,,,,,,,,,,,,,,,,,,,,,,,,
843758,001,2022-11-21_24h53.21.811,Info_measure_main_exp,2022.2.2,Win32,59.93407252,,,,,,,,,,,,,,,,,,masks/mask_001.jpg,,,,,,,,,,,,,,,,,,,,,,,,,,,,,,,,,,,,,,,,,,,0,3,3,0,1,,,,,,,,,,,,,,,,,,,,,,,,,,,,,,,,,,,,,,,,,,,,,,
843758,001,2022-11-21_24h53.21.811,Info_measure_main_exp,2022.2.2,Win32,59.93407252,,,,,,,,,,,,,,,,,,masks/mask_003.jpg,,,,,,,,,,,,,,,,,,,,,,,,,,,,,,,,,,,,,,,,,,,0,4,4,2,1,,,,,,,,,,,,,,,,,,,,,,,,,,,,,,,,,,,,,,,,,,,,,,
843758,001,2022-11-21_24h53.21.811,Info_measure_main_exp,2022.2.2,Win32,59.93407252,,,,,,,,,,,,,,,,,,masks/mask_003.jpg,,,,,,,,,,,,,,,,,,,,,,,,,,,,,,,,,,,,,,,,,,,,,,,,0,0,0,2,1,,,,,,,,,,,,,,,,,,,,,,,,,,,,,,,,,,,,,,,,,
843758,001,2022-11-21_24h53.21.811,Info_measure_main_exp,2022.2.2,Win32,59.93407252,,,,,,,,,,,,,,,,,,masks/mask_002.jpg,,,,,,,,,,,,,,,,,,,,,,,,,,,,,,,,,,,,,,,,,,,,,,,,0,1,1,1,1,,,,,,,,,,,,,,,,,,,,,,,,,,,,,,,,,,,,,,,,,
843758,001,2022-11-21_24h53.21.811,Info_measure_main_exp,2022.2.2,Win32,59.93407252,,,,,,,,,,,,,,,,,,masks/mask_004.jpg,,,,,,,,,,,,,,,,,,,,,,,,,,,,,,,,,,,,,,,,,,,,,,,,0,2,2,3,1,,,,,,,,,,,,,,,,,,,,,,,,,,,,,,,,,,,,,,,,,
843758,001,2022-11-21_24h53.21.811,Info_measure_main_exp,2022.2.2,Win32,59.93407252,,,,,,,,,,,,,,,,,,masks/mask_001.jpg,,,,,,,,,,,,,,,,,,,,,,,,,,,,,,,,,,,,,,,,,,,,,,,,0,3,3,0,1,,,,,,,,,,,,,,,,,,,,,,,,,,,,,,,,,,,,,,,,,
843758,001,2022-11-21_24h53.21.811,Info_measure_main_exp,2022.2.2,Win32,59.93407252,,,,,,,,,,,,,,,,,,masks/mask_005.jpg,,,,,,,,,,,,,,,,,,,,,,,,,,,,,,,,,,,,,,,,,,,,,,,,0,4,4,4,1,,,,,,,,,,,,,,,,,,,,,,,,,,,,,,,,,,,,,,,,,
843758,001,2022-11-21_24h53.21.811,Info_measure_main_exp,2022.2.2,Win32,59.93407252,,,,,,,,,,,,,,,,,,,,,,,,,,,,,,7,0.75,1,,,,,,,,,,,,0,131,5,5,2274,2250,absent_patch/patch0002274.jpg,absent_patch/patch0002250.jpg,,,,,,,,,,,,,,,,,,,,0.046296296,0.081481474,1,0,0,response1disk,15,0.008333347,0.005555541,1,0,0,center_square,0,14,14,28,1,,,,,,,,,,,,,,,,,,,,,,,
843758,001,2022-11-21_24h53.21.811,Info_measure_main_exp,2022.2.2,Win32,59.93407252,,,,,,,,,,,,,,,,,,masks/mask_002.jpg,,,,,,,,,,,,,,,,,,,,,,,,,,,,,,,,,,,,,,,,,,,0,0,0,1,1,,,,,,,,,,,,,,,,,,,,,,,,,,,,,,,,,,,,,,,,,,,,,,
843758,001,2022-11-21_24h53.21.811,Info_measure_main_exp,2022.2.2,Win32,59.93407252,,,,,,,,,,,,,,,,,,masks/mask_004.jpg,,,,,,,,,,,,,,,,,,,,,,,,,,,,,,,,,,,,,,,,,,,0,1,1,3,1,,,,,,,,,,,,,,,,,,,,,,,,,,,,,,,,,,,,,,,,,,,,,,
843758,001,2022-11-21_24h53.21.811,Info_measure_main_exp,2022.2.2,Win32,59.93407252,,,,,,,,,,,,,,,,,,masks/mask_003.jpg,,,,,,,,,,,,,,,,,,,,,,,,,,,,,,,,,,,,,,,,,,,0,2,2,2,1,,,,,,,,,,,,,,,,,,,,,,,,,,,,,,,,,,,,,,,,,,,,,,
843758,001,2022-11-21_24h53.21.811,Info_measure_main_exp,2022.2.2,Win32,59.93407252,,,,,,,,,,,,,,,,,,masks/mask_001.jpg,,,,,,,,,,,,,,,,,,,,,,,,,,,,,,,,,,,,,,,,,,,0,3,3,0,1,,,,,,,,,,,,,,,,,,,,,,,,,,,,,,,,,,,,,,,,,,,,,,
843758,001,2022-11-21_24h53.21.811,Info_measure_main_exp,2022.2.2,Win32,59.93407252,,,,,,,,,,,,,,,,,,masks/mask_005.jpg,,,,,,,,,,,,,,,,,,,,,,,,,,,,,,,,,,,,,,,,,,,0,4,4,4,1,,,,,,,,,,,,,,,,,,,,,,,,,,,,,,,,,,,,,,,,,,,,,,
843758,001,2022-11-21_24h53.21.811,Info_measure_main_exp,2022.2.2,Win32,59.93407252,,,,,,,,,,,,,,,,,,masks/mask_004.jpg,,,,,,,,,,,,,,,,,,,,,,,,,,,,,,,,,,,,,,,,,,,,,,,,0,0,0,3,1,,,,,,,,,,,,,,,,,,,,,,,,,,,,,,,,,,,,,,,,,
843758,001,2022-11-21_24h53.21.811,Info_measure_main_exp,2022.2.2,Win32,59.93407252,,,,,,,,,,,,,,,,,,masks/mask_002.jpg,,,,,,,,,,,,,,,,,,,,,,,,,,,,,,,,,,,,,,,,,,,,,,,,0,1,1,1,1,,,,,,,,,,,,,,,,,,,,,,,,,,,,,,,,,,,,,,,,,
843758,001,2022-11-21_24h53.21.811,Info_measure_main_exp,2022.2.2,Win32,59.93407252,,,,,,,,,,,,,,,,,,masks/mask_001.jpg,,,,,,,,,,,,,,,,,,,,,,,,,,,,,,,,,,,,,,,,,,,,,,,,0,2,2,0,1,,,,,,,,,,,,,,,,,,,,,,,,,,,,,,,,,,,,,,,,,
843758,001,2022-11-21_24h53.21.811,Info_measure_main_exp,2022.2.2,Win32,59.93407252,,,,,,,,,,,,,,,,,,masks/mask_003.jpg,,,,,,,,,,,,,,,,,,,,,,,,,,,,,,,,,,,,,,,,,,,,,,,,0,3,3,2,1,,,,,,,,,,,,,,,,,,,,,,,,,,,,,,,,,,,,,,,,,
843758,001,2022-11-21_24h53.21.811,Info_measure_main_exp,2022.2.2,Win32,59.93407252,,,,,,,,,,,,,,,,,,masks/mask_005.jpg,,,,,,,,,,,,,,,,,,,,,,,,,,,,,,,,,,,,,,,,,,,,,,,,0,4,4,4,1,,,,,,,,,,,,,,,,,,,,,,,,,,,,,,,,,,,,,,,,,
843758,001,2022-11-21_24h53.21.811,Info_measure_main_exp,2022.2.2,Win32,59.93407252,,,,,,,,,,,,,,,,,,,,,,,,,,,,,,4,1.4389,1,,,,,,,,,,,,0,131,5,5,2190,2178,absent_patch/patch0002190.jpg,absent_patch/patch0002178.jpg,,,,,,,,,,,,,,,,,,,,0.051851838,-0.106481481,1,0,0,response3disk,16,0.000925912,0.005555541,1,0,0,center_square,0,15,15,14,1,,,,,,,,,,,,,,,,,,,,,,,
843758,001,2022-11-21_24h53.21.811,Info_measure_main_exp,2022.2.2,Win32,59.93407252,,,,,,,,,,,,,,,,,,masks/mask_001.jpg,,,,,,,,,,,,,,,,,,,,,,,,,,,,,,,,,,,,,,,,,,,0,0,0,0,1,,,,,,,,,,,,,,,,,,,,,,,,,,,,,,,,,,,,,,,,,,,,,,
843758,001,2022-11-21_24h53.21.811,Info_measure_main_exp,2022.2.2,Win32,59.93407252,,,,,,,,,,,,,,,,,,masks/mask_002.jpg,,,,,,,,,,,,,,,,,,,,,,,,,,,,,,,,,,,,,,,,,,,0,1,1,1,1,,,,,,,,,,,,,,,,,,,,,,,,,,,,,,,,,,,,,,,,,,,,,,
843758,001,2022-11-21_24h53.21.811,Info_measure_main_exp,2022.2.2,Win32,59.93407252,,,,,,,,,,,,,,,,,,masks/mask_004.jpg,,,,,,,,,,,,,,,,,,,,,,,,,,,,,,,,,,,,,,,,,,,0,2,2,3,1,,,,,,,,,,,,,,,,,,,,,,,,,,,,,,,,,,,,,,,,,,,,,,
843758,001,2022-11-21_24h53.21.811,Info_measure_main_exp,2022.2.2,Win32,59.93407252,,,,,,,,,,,,,,,,,,masks/mask_005.jpg,,,,,,,,,,,,,,,,,,,,,,,,,,,,,,,,,,,,,,,,,,,0,3,3,4,1,,,,,,,,,,,,,,,,,,,,,,,,,,,,,,,,,,,,,,,,,,,,,,
843758,001,2022-11-21_24h53.21.811,Info_measure_main_exp,2022.2.2,Win32,59.93407252,,,,,,,,,,,,,,,,,,masks/mask_003.jpg,,,,,,,,,,,,,,,,,,,,,,,,,,,,,,,,,,,,,,,,,,,0,4,4,2,1,,,,,,,,,,,,,,,,,,,,,,,,,,,,,,,,,,,,,,,,,,,,,,
843758,001,2022-11-21_24h53.21.811,Info_measure_main_exp,2022.2.2,Win32,59.93407252,,,,,,,,,,,,,,,,,,masks/mask_003.jpg,,,,,,,,,,,,,,,,,,,,,,,,,,,,,,,,,,,,,,,,,,,,,,,,0,0,0,2,1,,,,,,,,,,,,,,,,,,,,,,,,,,,,,,,,,,,,,,,,,
843758,001,2022-11-21_24h53.21.811,Info_measure_main_exp,2022.2.2,Win32,59.93407252,,,,,,,,,,,,,,,,,,masks/mask_002.jpg,,,,,,,,,,,,,,,,,,,,,,,,,,,,,,,,,,,,,,,,,,,,,,,,0,1,1,1,1,,,,,,,,,,,,,,,,,,,,,,,,,,,,,,,,,,,,,,,,,
843758,001,2022-11-21_24h53.21.811,Info_measure_main_exp,2022.2.2,Win32,59.93407252,,,,,,,,,,,,,,,,,,masks/mask_005.jpg,,,,,,,,,,,,,,,,,,,,,,,,,,,,,,,,,,,,,,,,,,,,,,,,0,2,2,4,1,,,,,,,,,,,,,,,,,,,,,,,,,,,,,,,,,,,,,,,,,
843758,001,2022-11-21_24h53.21.811,Info_measure_main_exp,2022.2.2,Win32,59.93407252,,,,,,,,,,,,,,,,,,masks/mask_004.jpg,,,,,,,,,,,,,,,,,,,,,,,,,,,,,,,,,,,,,,,,,,,,,,,,0,3,3,3,1,,,,,,,,,,,,,,,,,,,,,,,,,,,,,,,,,,,,,,,,,
843758,001,2022-11-21_24h53.21.811,Info_measure_main_exp,2022.2.2,Win32,59.93407252,,,,,,,,,,,,,,,,,,masks/mask_001.jpg,,,,,,,,,,,,,,,,,,,,,,,,,,,,,,,,,,,,,,,,,,,,,,,,0,4,4,0,1,,,,,,,,,,,,,,,,,,,,,,,,,,,,,,,,,,,,,,,,,
843758,001,2022-11-21_24h53.21.811,Info_measure_main_exp,2022.2.2,Win32,59.93407252,,,,,,,,,,,,,,,,,,,,,,,,,,,,,,6,1.5334,1,,,,,,,,,,,,0,131,5,5,1950,2298,absent_patch/patch0001950.jpg,absent_patch/patch0002298.jpg,,,,,,,,,,,,,,,,,,,,0.108333376,0.02407406,1,0,0,response1disk,17,-0.007407365,0.002777771,1,0,0,center_square,0,16,16,18,1,,,,,,,,,,,,,,,,,,,,,,,
843758,001,2022-11-21_24h53.21.811,Info_measure_main_exp,2022.2.2,Win32,59.93407252,,,,,,,,,,,,,,,,,,masks/mask_001.jpg,,,,,,,,,,,,,,,,,,,,,,,,,,,,,,,,,,,,,,,,,,,0,0,0,0,1,,,,,,,,,,,,,,,,,,,,,,,,,,,,,,,,,,,,,,,,,,,,,,
843758,001,2022-11-21_24h53.21.811,Info_measure_main_exp,2022.2.2,Win32,59.93407252,,,,,,,,,,,,,,,,,,masks/mask_004.jpg,,,,,,,,,,,,,,,,,,,,,,,,,,,,,,,,,,,,,,,,,,,0,1,1,3,1,,,,,,,,,,,,,,,,,,,,,,,,,,,,,,,,,,,,,,,,,,,,,,
843758,001,2022-11-21_24h53.21.811,Info_measure_main_exp,2022.2.2,Win32,59.93407252,,,,,,,,,,,,,,,,,,masks/mask_002.jpg,,,,,,,,,,,,,,,,,,,,,,,,,,,,,,,,,,,,,,,,,,,0,2,2,1,1,,,,,,,,,,,,,,,,,,,,,,,,,,,,,,,,,,,,,,,,,,,,,,
843758,001,2022-11-21_24h53.21.811,Info_measure_main_exp,2022.2.2,Win32,59.93407252,,,,,,,,,,,,,,,,,,masks/mask_003.jpg,,,,,,,,,,,,,,,,,,,,,,,,,,,,,,,,,,,,,,,,,,,0,3,3,2,1,,,,,,,,,,,,,,,,,,,,,,,,,,,,,,,,,,,,,,,,,,,,,,
843758,001,2022-11-21_24h53.21.811,Info_measure_main_exp,2022.2.2,Win32,59.93407252,,,,,,,,,,,,,,,,,,masks/mask_005.jpg,,,,,,,,,,,,,,,,,,,,,,,,,,,,,,,,,,,,,,,,,,,0,4,4,4,1,,,,,,,,,,,,,,,,,,,,,,,,,,,,,,,,,,,,,,,,,,,,,,
843758,001,2022-11-21_24h53.21.811,Info_measure_main_exp,2022.2.2,Win32,59.93407252,,,,,,,,,,,,,,,,,,masks/mask_001.jpg,,,,,,,,,,,,,,,,,,,,,,,,,,,,,,,,,,,,,,,,,,,,,,,,0,0,0,0,1,,,,,,,,,,,,,,,,,,,,,,,,,,,,,,,,,,,,,,,,,
843758,001,2022-11-21_24h53.21.811,Info_measure_main_exp,2022.2.2,Win32,59.93407252,,,,,,,,,,,,,,,,,,masks/mask_004.jpg,,,,,,,,,,,,,,,,,,,,,,,,,,,,,,,,,,,,,,,,,,,,,,,,0,1,1,3,1,,,,,,,,,,,,,,,,,,,,,,,,,,,,,,,,,,,,,,,,,
843758,001,2022-11-21_24h53.21.811,Info_measure_main_exp,2022.2.2,Win32,59.93407252,,,,,,,,,,,,,,,,,,masks/mask_002.jpg,,,,,,,,,,,,,,,,,,,,,,,,,,,,,,,,,,,,,,,,,,,,,,,,0,2,2,1,1,,,,,,,,,,,,,,,,,,,,,,,,,,,,,,,,,,,,,,,,,
843758,001,2022-11-21_24h53.21.811,Info_measure_main_exp,2022.2.2,Win32,59.93407252,,,,,,,,,,,,,,,,,,masks/mask_003.jpg,,,,,,,,,,,,,,,,,,,,,,,,,,,,,,,,,,,,,,,,,,,,,,,,0,3,3,2,1,,,,,,,,,,,,,,,,,,,,,,,,,,,,,,,,,,,,,,,,,
843758,001,2022-11-21_24h53.21.811,Info_measure_main_exp,2022.2.2,Win32,59.93407252,,,,,,,,,,,,,,,,,,masks/mask_005.jpg,,,,,,,,,,,,,,,,,,,,,,,,,,,,,,,,,,,,,,,,,,,,,,,,0,4,4,4,1,,,,,,,,,,,,,,,,,,,,,,,,,,,,,,,,,,,,,,,,,
843758,001,2022-11-21_24h53.21.811,Info_measure_main_exp,2022.2.2,Win32,59.93407252,,,,,,,,,,,,,,,,,,,,,,,,,,,,,,5,1.8493,1,,,,,,,,,,,,0,131,5,5,2178,2142,absent_patch/patch0002178.jpg,absent_patch/patch0002142.jpg,,,,,,,,,,,,,,,,,,,,0.083333333,-0.053703697,1,0,0,response3disk,18,0.006481524,-0.013888889,1,0,0,center_square,0,17,17,41,1,,,,,,,,,,,,,,,,,,,,,,,
843758,001,2022-11-21_24h53.21.811,Info_measure_main_exp,2022.2.2,Win32,59.93407252,,,,,,,,,,,,,,,,,,masks/mask_004.jpg,,,,,,,,,,,,,,,,,,,,,,,,,,,,,,,,,,,,,,,,,,,0,0,0,3,1,,,,,,,,,,,,,,,,,,,,,,,,,,,,,,,,,,,,,,,,,,,,,,
843758,001,2022-11-21_24h53.21.811,Info_measure_main_exp,2022.2.2,Win32,59.93407252,,,,,,,,,,,,,,,,,,masks/mask_002.jpg,,,,,,,,,,,,,,,,,,,,,,,,,,,,,,,,,,,,,,,,,,,0,1,1,1,1,,,,,,,,,,,,,,,,,,,,,,,,,,,,,,,,,,,,,,,,,,,,,,
843758,001,2022-11-21_24h53.21.811,Info_measure_main_exp,2022.2.2,Win32,59.93407252,,,,,,,,,,,,,,,,,,masks/mask_005.jpg,,,,,,,,,,,,,,,,,,,,,,,,,,,,,,,,,,,,,,,,,,,0,2,2,4,1,,,,,,,,,,,,,,,,,,,,,,,,,,,,,,,,,,,,,,,,,,,,,,
843758,001,2022-11-21_24h53.21.811,Info_measure_main_exp,2022.2.2,Win32,59.93407252,,,,,,,,,,,,,,,,,,masks/mask_001.jpg,,,,,,,,,,,,,,,,,,,,,,,,,,,,,,,,,,,,,,,,,,,0,3,3,0,1,,,,,,,,,,,,,,,,,,,,,,,,,,,,,,,,,,,,,,,,,,,,,,
843758,001,2022-11-21_24h53.21.811,Info_measure_main_exp,2022.2.2,Win32,59.93407252,,,,,,,,,,,,,,,,,,masks/mask_003.jpg,,,,,,,,,,,,,,,,,,,,,,,,,,,,,,,,,,,,,,,,,,,0,4,4,2,1,,,,,,,,,,,,,,,,,,,,,,,,,,,,,,,,,,,,,,,,,,,,,,
843758,001,2022-11-21_24h53.21.811,Info_measure_main_exp,2022.2.2,Win32,59.93407252,,,,,,,,,,,,,,,,,,masks/mask_005.jpg,,,,,,,,,,,,,,,,,,,,,,,,,,,,,,,,,,,,,,,,,,,,,,,,0,0,0,4,1,,,,,,,,,,,,,,,,,,,,,,,,,,,,,,,,,,,,,,,,,
843758,001,2022-11-21_24h53.21.811,Info_measure_main_exp,2022.2.2,Win32,59.93407252,,,,,,,,,,,,,,,,,,masks/mask_001.jpg,,,,,,,,,,,,,,,,,,,,,,,,,,,,,,,,,,,,,,,,,,,,,,,,0,1,1,0,1,,,,,,,,,,,,,,,,,,,,,,,,,,,,,,,,,,,,,,,,,
843758,001,2022-11-21_24h53.21.811,Info_measure_main_exp,2022.2.2,Win32,59.93407252,,,,,,,,,,,,,,,,,,masks/mask_004.jpg,,,,,,,,,,,,,,,,,,,,,,,,,,,,,,,,,,,,,,,,,,,,,,,,0,2,2,3,1,,,,,,,,,,,,,,,,,,,,,,,,,,,,,,,,,,,,,,,,,
843758,001,2022-11-21_24h53.21.811,Info_measure_main_exp,2022.2.2,Win32,59.93407252,,,,,,,,,,,,,,,,,,masks/mask_003.jpg,,,,,,,,,,,,,,,,,,,,,,,,,,,,,,,,,,,,,,,,,,,,,,,,0,3,3,2,1,,,,,,,,,,,,,,,,,,,,,,,,,,,,,,,,,,,,,,,,,
843758,001,2022-11-21_24h53.21.811,Info_measure_main_exp,2022.2.2,Win32,59.93407252,,,,,,,,,,,,,,,,,,masks/mask_002.jpg,,,,,,,,,,,,,,,,,,,,,,,,,,,,,,,,,,,,,,,,,,,,,,,,0,4,4,1,1,,,,,,,,,,,,,,,,,,,,,,,,,,,,,,,,,,,,,,,,,
843758,001,2022-11-21_24h53.21.811,Info_measure_main_exp,2022.2.2,Win32,59.93407252,,,,,,,,,,,,,,,,,,,,,,,,,,,,,,7,1.056,1,,,,,,,,,,,,0,131,5,5,2274,1974,absent_patch/patch0002274.jpg,absent_patch/patch0001974.jpg,,,,,,,,,,,,,,,,,,,,0.023148148,0.053703697,1,0,0,response1disk,19,0.011111153,0.01203703,1,0,0,center_square,0,18,18,90,1,,,,,,,,,,,,,,,,,,,,,,,
843758,001,2022-11-21_24h53.21.811,Info_measure_main_exp,2022.2.2,Win32,59.93407252,,,,,,,,,,,,,,,,,,masks/mask_001.jpg,,,,,,,,,,,,,,,,,,,,,,,,,,,,,,,,,,,,,,,,,,,0,0,0,0,1,,,,,,,,,,,,,,,,,,,,,,,,,,,,,,,,,,,,,,,,,,,,,,
843758,001,2022-11-21_24h53.21.811,Info_measure_main_exp,2022.2.2,Win32,59.93407252,,,,,,,,,,,,,,,,,,masks/mask_005.jpg,,,,,,,,,,,,,,,,,,,,,,,,,,,,,,,,,,,,,,,,,,,0,1,1,4,1,,,,,,,,,,,,,,,,,,,,,,,,,,,,,,,,,,,,,,,,,,,,,,
843758,001,2022-11-21_24h53.21.811,Info_measure_main_exp,2022.2.2,Win32,59.93407252,,,,,,,,,,,,,,,,,,masks/mask_002.jpg,,,,,,,,,,,,,,,,,,,,,,,,,,,,,,,,,,,,,,,,,,,0,2,2,1,1,,,,,,,,,,,,,,,,,,,,,,,,,,,,,,,,,,,,,,,,,,,,,,
843758,001,2022-11-21_24h53.21.811,Info_measure_main_exp,2022.2.2,Win32,59.93407252,,,,,,,,,,,,,,,,,,masks/mask_004.jpg,,,,,,,,,,,,,,,,,,,,,,,,,,,,,,,,,,,,,,,,,,,0,3,3,3,1,,,,,,,,,,,,,,,,,,,,,,,,,,,,,,,,,,,,,,,,,,,,,,
843758,001,2022-11-21_24h53.21.811,Info_measure_main_exp,2022.2.2,Win32,59.93407252,,,,,,,,,,,,,,,,,,masks/mask_003.jpg,,,,,,,,,,,,,,,,,,,,,,,,,,,,,,,,,,,,,,,,,,,0,4,4,2,1,,,,,,,,,,,,,,,,,,,,,,,,,,,,,,,,,,,,,,,,,,,,,,
843758,001,2022-11-21_24h53.21.811,Info_measure_main_exp,2022.2.2,Win32,59.93407252,,,,,,,,,,,,,,,,,,masks/mask_002.jpg,,,,,,,,,,,,,,,,,,,,,,,,,,,,,,,,,,,,,,,,,,,,,,,,0,0,0,1,1,,,,,,,,,,,,,,,,,,,,,,,,,,,,,,,,,,,,,,,,,
843758,001,2022-11-21_24h53.21.811,Info_measure_main_exp,2022.2.2,Win32,59.93407252,,,,,,,,,,,,,,,,,,masks/mask_005.jpg,,,,,,,,,,,,,,,,,,,,,,,,,,,,,,,,,,,,,,,,,,,,,,,,0,1,1,4,1,,,,,,,,,,,,,,,,,,,,,,,,,,,,,,,,,,,,,,,,,
843758,001,2022-11-21_24h53.21.811,Info_measure_main_exp,2022.2.2,Win32,59.93407252,,,,,,,,,,,,,,,,,,masks/mask_001.jpg,,,,,,,,,,,,,,,,,,,,,,,,,,,,,,,,,,,,,,,,,,,,,,,,0,2,2,0,1,,,,,,,,,,,,,,,,,,,,,,,,,,,,,,,,,,,,,,,,,
843758,001,2022-11-21_24h53.21.811,Info_measure_main_exp,2022.2.2,Win32,59.93407252,,,,,,,,,,,,,,,,,,masks/mask_004.jpg,,,,,,,,,,,,,,,,,,,,,,,,,,,,,,,,,,,,,,,,,,,,,,,,0,3,3,3,1,,,,,,,,,,,,,,,,,,,,,,,,,,,,,,,,,,,,,,,,,
843758,001,2022-11-21_24h53.21.811,Info_measure_main_exp,2022.2.2,Win32,59.93407252,,,,,,,,,,,,,,,,,,masks/mask_003.jpg,,,,,,,,,,,,,,,,,,,,,,,,,,,,,,,,,,,,,,,,,,,,,,,,0,4,4,2,1,,,,,,,,,,,,,,,,,,,,,,,,,,,,,,,,,,,,,,,,,
843758,001,2022-11-21_24h53.21.811,Info_measure_main_exp,2022.2.2,Win32,59.93407252,,,,,,,,,,,,,,,,,,,,,,,,,,,,,,0,0.8664,1,,,,,,,,,,,,0,131,5,5,2274,2274,absent_patch/patch0002274.jpg,absent_patch/patch0002274.jpg,,,,,,,,,,,,,,,,,,,,-0.031481496,0.072222215,1,0,0,response7disk,20,-0.007407365,0.014814801,1,0,0,center_square,0,19,19,114,1,,,,,,,,,,,,,,,,,,,,,,,
843758,001,2022-11-21_24h53.21.811,Info_measure_main_exp,2022.2.2,Win32,59.93407252,,,,,,,,,,,,,,,,,,masks/mask_003.jpg,,,,,,,,,,,,,,,,,,,,,,,,,,,,,,,,,,,,,,,,,,,0,0,0,2,1,,,,,,,,,,,,,,,,,,,,,,,,,,,,,,,,,,,,,,,,,,,,,,
843758,001,2022-11-21_24h53.21.811,Info_measure_main_exp,2022.2.2,Win32,59.93407252,,,,,,,,,,,,,,,,,,masks/mask_002.jpg,,,,,,,,,,,,,,,,,,,,,,,,,,,,,,,,,,,,,,,,,,,0,1,1,1,1,,,,,,,,,,,,,,,,,,,,,,,,,,,,,,,,,,,,,,,,,,,,,,
843758,001,2022-11-21_24h53.21.811,Info_measure_main_exp,2022.2.2,Win32,59.93407252,,,,,,,,,,,,,,,,,,masks/mask_004.jpg,,,,,,,,,,,,,,,,,,,,,,,,,,,,,,,,,,,,,,,,,,,0,2,2,3,1,,,,,,,,,,,,,,,,,,,,,,,,,,,,,,,,,,,,,,,,,,,,,,
843758,001,2022-11-21_24h53.21.811,Info_measure_main_exp,2022.2.2,Win32,59.93407252,,,,,,,,,,,,,,,,,,masks/mask_001.jpg,,,,,,,,,,,,,,,,,,,,,,,,,,,,,,,,,,,,,,,,,,,0,3,3,0,1,,,,,,,,,,,,,,,,,,,,,,,,,,,,,,,,,,,,,,,,,,,,,,
843758,001,2022-11-21_24h53.21.811,Info_measure_main_exp,2022.2.2,Win32,59.93407252,,,,,,,,,,,,,,,,,,masks/mask_005.jpg,,,,,,,,,,,,,,,,,,,,,,,,,,,,,,,,,,,,,,,,,,,0,4,4,4,1,,,,,,,,,,,,,,,,,,,,,,,,,,,,,,,,,,,,,,,,,,,,,,
843758,001,2022-11-21_24h53.21.811,Info_measure_main_exp,2022.2.2,Win32,59.93407252,,,,,,,,,,,,,,,,,,masks/mask_005.jpg,,,,,,,,,,,,,,,,,,,,,,,,,,,,,,,,,,,,,,,,,,,,,,,,0,0,0,4,1,,,,,,,,,,,,,,,,,,,,,,,,,,,,,,,,,,,,,,,,,
843758,001,2022-11-21_24h53.21.811,Info_measure_main_exp,2022.2.2,Win32,59.93407252,,,,,,,,,,,,,,,,,,masks/mask_002.jpg,,,,,,,,,,,,,,,,,,,,,,,,,,,,,,,,,,,,,,,,,,,,,,,,0,1,1,1,1,,,,,,,,,,,,,,,,,,,,,,,,,,,,,,,,,,,,,,,,,
843758,001,2022-11-21_24h53.21.811,Info_measure_main_exp,2022.2.2,Win32,59.93407252,,,,,,,,,,,,,,,,,,masks/mask_004.jpg,,,,,,,,,,,,,,,,,,,,,,,,,,,,,,,,,,,,,,,,,,,,,,,,0,2,2,3,1,,,,,,,,,,,,,,,,,,,,,,,,,,,,,,,,,,,,,,,,,
843758,001,2022-11-21_24h53.21.811,Info_measure_main_exp,2022.2.2,Win32,59.93407252,,,,,,,,,,,,,,,,,,masks/mask_001.jpg,,,,,,,,,,,,,,,,,,,,,,,,,,,,,,,,,,,,,,,,,,,,,,,,0,3,3,0,1,,,,,,,,,,,,,,,,,,,,,,,,,,,,,,,,,,,,,,,,,
843758,001,2022-11-21_24h53.21.811,Info_measure_main_exp,2022.2.2,Win32,59.93407252,,,,,,,,,,,,,,,,,,masks/mask_003.jpg,,,,,,,,,,,,,,,,,,,,,,,,,,,,,,,,,,,,,,,,,,,,,,,,0,4,4,2,1,,,,,,,,,,,,,,,,,,,,,,,,,,,,,,,,,,,,,,,,,
843758,001,2022-11-21_24h53.21.811,Info_measure_main_exp,2022.2.2,Win32,59.93407252,,,,,,,,,,,,,,,,,,,,,,,,,,,,,,4,1.4728,1,,,,,,,,,,,,0,131,5,5,2214,2082,absent_patch/patch0002214.jpg,absent_patch/patch0002082.jpg,,,,,,,,,,,,,,,,,,,,0.01944443,-0.072222215,1,0,0,response3disk,21,-0.000925912,0.000925912,1,0,0,center_square,0,20,20,103,1,,,,,,,,,,,,,,,,,,,,,,,
843758,001,2022-11-21_24h53.21.811,Info_measure_main_exp,2022.2.2,Win32,59.93407252,,,,,,,,,,,,,,,,,,masks/mask_002.jpg,,,,,,,,,,,,,,,,,,,,,,,,,,,,,,,,,,,,,,,,,,,0,0,0,1,1,,,,,,,,,,,,,,,,,,,,,,,,,,,,,,,,,,,,,,,,,,,,,,
843758,001,2022-11-21_24h53.21.811,Info_measure_main_exp,2022.2.2,Win32,59.93407252,,,,,,,,,,,,,,,,,,masks/mask_005.jpg,,,,,,,,,,,,,,,,,,,,,,,,,,,,,,,,,,,,,,,,,,,0,1,1,4,1,,,,,,,,,,,,,,,,,,,,,,,,,,,,,,,,,,,,,,,,,,,,,,
843758,001,2022-11-21_24h53.21.811,Info_measure_main_exp,2022.2.2,Win32,59.93407252,,,,,,,,,,,,,,,,,,masks/mask_004.jpg,,,,,,,,,,,,,,,,,,,,,,,,,,,,,,,,,,,,,,,,,,,0,2,2,3,1,,,,,,,,,,,,,,,,,,,,,,,,,,,,,,,,,,,,,,,,,,,,,,
843758,001,2022-11-21_24h53.21.811,Info_measure_main_exp,2022.2.2,Win32,59.93407252,,,,,,,,,,,,,,,,,,masks/mask_001.jpg,,,,,,,,,,,,,,,,,,,,,,,,,,,,,,,,,,,,,,,,,,,0,3,3,0,1,,,,,,,,,,,,,,,,,,,,,,,,,,,,,,,,,,,,,,,,,,,,,,
843758,001,2022-11-21_24h53.21.811,Info_measure_main_exp,2022.2.2,Win32,59.93407252,,,,,,,,,,,,,,,,,,masks/mask_003.jpg,,,,,,,,,,,,,,,,,,,,,,,,,,,,,,,,,,,,,,,,,,,0,4,4,2,1,,,,,,,,,,,,,,,,,,,,,,,,,,,,,,,,,,,,,,,,,,,,,,
843758,001,2022-11-21_24h53.21.811,Info_measure_main_exp,2022.2.2,Win32,59.93407252,,,,,,,,,,,,,,,,,,masks/mask_004.jpg,,,,,,,,,,,,,,,,,,,,,,,,,,,,,,,,,,,,,,,,,,,,,,,,0,0,0,3,1,,,,,,,,,,,,,,,,,,,,,,,,,,,,,,,,,,,,,,,,,
843758,001,2022-11-21_24h53.21.811,Info_measure_main_exp,2022.2.2,Win32,59.93407252,,,,,,,,,,,,,,,,,,masks/mask_002.jpg,,,,,,,,,,,,,,,,,,,,,,,,,,,,,,,,,,,,,,,,,,,,,,,,0,1,1,1,1,,,,,,,,,,,,,,,,,,,,,,,,,,,,,,,,,,,,,,,,,
843758,001,2022-11-21_24h53.21.811,Info_measure_main_exp,2022.2.2,Win32,59.93407252,,,,,,,,,,,,,,,,,,masks/mask_001.jpg,,,,,,,,,,,,,,,,,,,,,,,,,,,,,,,,,,,,,,,,,,,,,,,,0,2,2,0,1,,,,,,,,,,,,,,,,,,,,,,,,,,,,,,,,,,,,,,,,,
843758,001,2022-11-21_24h53.21.811,Info_measure_main_exp,2022.2.2,Win32,59.93407252,,,,,,,,,,,,,,,,,,masks/mask_005.jpg,,,,,,,,,,,,,,,,,,,,,,,,,,,,,,,,,,,,,,,,,,,,,,,,0,3,3,4,1,,,,,,,,,,,,,,,,,,,,,,,,,,,,,,,,,,,,,,,,,
843758,001,2022-11-21_24h53.21.811,Info_measure_main_exp,2022.2.2,Win32,59.93407252,,,,,,,,,,,,,,,,,,masks/mask_003.jpg,,,,,,,,,,,,,,,,,,,,,,,,,,,,,,,,,,,,,,,,,,,,,,,,0,4,4,2,1,,,,,,,,,,,,,,,,,,,,,,,,,,,,,,,,,,,,,,,,,
843758,001,2022-11-21_24h53.21.811,Info_measure_main_exp,2022.2.2,Win32,59.93407252,,,,,,,,,,,,,,,,,,,,,,,,,,,,,,3,1.6988,1,,,,,,,,,,,,1,131,5,5,2190,1,absent_patch/patch0002190.jpg,present_patch/cong_131_5_a.jpg,,,,,,,,,,,,,,,,,,,,-0.037962949,-0.050000014,1,0,0,response5disk,22,0.008333347,0.006481489,1,0,0,center_square,0,21,21,64,1,,,,,,,,,,,,,,,,,,,,,,,
843758,001,2022-11-21_24h53.21.811,Info_measure_main_exp,2022.2.2,Win32,59.93407252,,,,,,,,,,,,,,,,,,masks/mask_003.jpg,,,,,,,,,,,,,,,,,,,,,,,,,,,,,,,,,,,,,,,,,,,0,0,0,2,1,,,,,,,,,,,,,,,,,,,,,,,,,,,,,,,,,,,,,,,,,,,,,,
843758,001,2022-11-21_24h53.21.811,Info_measure_main_exp,2022.2.2,Win32,59.93407252,,,,,,,,,,,,,,,,,,masks/mask_001.jpg,,,,,,,,,,,,,,,,,,,,,,,,,,,,,,,,,,,,,,,,,,,0,1,1,0,1,,,,,,,,,,,,,,,,,,,,,,,,,,,,,,,,,,,,,,,,,,,,,,
843758,001,2022-11-21_24h53.21.811,Info_measure_main_exp,2022.2.2,Win32,59.93407252,,,,,,,,,,,,,,,,,,masks/mask_004.jpg,,,,,,,,,,,,,,,,,,,,,,,,,,,,,,,,,,,,,,,,,,,0,2,2,3,1,,,,,,,,,,,,,,,,,,,,,,,,,,,,,,,,,,,,,,,,,,,,,,
843758,001,2022-11-21_24h53.21.811,Info_measure_main_exp,2022.2.2,Win32,59.93407252,,,,,,,,,,,,,,,,,,masks/mask_005.jpg,,,,,,,,,,,,,,,,,,,,,,,,,,,,,,,,,,,,,,,,,,,0,3,3,4,1,,,,,,,,,,,,,,,,,,,,,,,,,,,,,,,,,,,,,,,,,,,,,,
843758,001,2022-11-21_24h53.21.811,Info_measure_main_exp,2022.2.2,Win32,59.93407252,,,,,,,,,,,,,,,,,,masks/mask_002.jpg,,,,,,,,,,,,,,,,,,,,,,,,,,,,,,,,,,,,,,,,,,,0,4,4,1,1,,,,,,,,,,,,,,,,,,,,,,,,,,,,,,,,,,,,,,,,,,,,,,
843758,001,2022-11-21_24h53.21.811,Info_measure_main_exp,2022.2.2,Win32,59.93407252,,,,,,,,,,,,,,,,,,masks/mask_003.jpg,,,,,,,,,,,,,,,,,,,,,,,,,,,,,,,,,,,,,,,,,,,,,,,,0,0,0,2,1,,,,,,,,,,,,,,,,,,,,,,,,,,,,,,,,,,,,,,,,,
843758,001,2022-11-21_24h53.21.811,Info_measure_main_exp,2022.2.2,Win32,59.93407252,,,,,,,,,,,,,,,,,,masks/mask_001.jpg,,,,,,,,,,,,,,,,,,,,,,,,,,,,,,,,,,,,,,,,,,,,,,,,0,1,1,0,1,,,,,,,,,,,,,,,,,,,,,,,,,,,,,,,,,,,,,,,,,
843758,001,2022-11-21_24h53.21.811,Info_measure_main_exp,2022.2.2,Win32,59.93407252,,,,,,,,,,,,,,,,,,masks/mask_002.jpg,,,,,,,,,,,,,,,,,,,,,,,,,,,,,,,,,,,,,,,,,,,,,,,,0,2,2,1,1,,,,,,,,,,,,,,,,,,,,,,,,,,,,,,,,,,,,,,,,,
843758,001,2022-11-21_24h53.21.811,Info_measure_main_exp,2022.2.2,Win32,59.93407252,,,,,,,,,,,,,,,,,,masks/mask_005.jpg,,,,,,,,,,,,,,,,,,,,,,,,,,,,,,,,,,,,,,,,,,,,,,,,0,3,3,4,1,,,,,,,,,,,,,,,,,,,,,,,,,,,,,,,,,,,,,,,,,
843758,001,2022-11-21_24h53.21.811,Info_measure_main_exp,2022.2.2,Win32,59.93407252,,,,,,,,,,,,,,,,,,masks/mask_004.jpg,,,,,,,,,,,,,,,,,,,,,,,,,,,,,,,,,,,,,,,,,,,,,,,,0,4,4,3,1,,,,,,,,,,,,,,,,,,,,,,,,,,,,,,,,,,,,,,,,,
843758,001,2022-11-21_24h53.21.811,Info_measure_main_exp,2022.2.2,Win32,59.93407252,,,,,,,,,,,,,,,,,,,,,,,,,,,,,,6,2.2493,1,,,,,,,,,,,,0,131,5,5,2298,2214,absent_patch/patch0002298.jpg,absent_patch/patch0002214.jpg,,,,,,,,,,,,,,,,,,,,0.085185228,0.047222208,1,0,0,response1disk,23,0.011111153,0.00462963,1,0,0,center_square,0,22,22,99,1,,,,,,,,,,,,,,,,,,,,,,,
843758,001,2022-11-21_24h53.21.811,Info_measure_main_exp,2022.2.2,Win32,59.93407252,,,,,,,,,,,,,,,,,,masks/mask_003.jpg,,,,,,,,,,,,,,,,,,,,,,,,,,,,,,,,,,,,,,,,,,,0,0,0,2,1,,,,,,,,,,,,,,,,,,,,,,,,,,,,,,,,,,,,,,,,,,,,,,
843758,001,2022-11-21_24h53.21.811,Info_measure_main_exp,2022.2.2,Win32,59.93407252,,,,,,,,,,,,,,,,,,masks/mask_005.jpg,,,,,,,,,,,,,,,,,,,,,,,,,,,,,,,,,,,,,,,,,,,0,1,1,4,1,,,,,,,,,,,,,,,,,,,,,,,,,,,,,,,,,,,,,,,,,,,,,,
843758,001,2022-11-21_24h53.21.811,Info_measure_main_exp,2022.2.2,Win32,59.93407252,,,,,,,,,,,,,,,,,,masks/mask_001.jpg,,,,,,,,,,,,,,,,,,,,,,,,,,,,,,,,,,,,,,,,,,,0,2,2,0,1,,,,,,,,,,,,,,,,,,,,,,,,,,,,,,,,,,,,,,,,,,,,,,
843758,001,2022-11-21_24h53.21.811,Info_measure_main_exp,2022.2.2,Win32,59.93407252,,,,,,,,,,,,,,,,,,masks/mask_004.jpg,,,,,,,,,,,,,,,,,,,,,,,,,,,,,,,,,,,,,,,,,,,0,3,3,3,1,,,,,,,,,,,,,,,,,,,,,,,,,,,,,,,,,,,,,,,,,,,,,,
843758,001,2022-11-21_24h53.21.811,Info_measure_main_exp,2022.2.2,Win32,59.93407252,,,,,,,,,,,,,,,,,,masks/mask_002.jpg,,,,,,,,,,,,,,,,,,,,,,,,,,,,,,,,,,,,,,,,,,,0,4,4,1,1,,,,,,,,,,,,,,,,,,,,,,,,,,,,,,,,,,,,,,,,,,,,,,
843758,001,2022-11-21_24h53.21.811,Info_measure_main_exp,2022.2.2,Win32,59.93407252,,,,,,,,,,,,,,,,,,masks/mask_002.jpg,,,,,,,,,,,,,,,,,,,,,,,,,,,,,,,,,,,,,,,,,,,,,,,,0,0,0,1,1,,,,,,,,,,,,,,,,,,,,,,,,,,,,,,,,,,,,,,,,,
843758,001,2022-11-21_24h53.21.811,Info_measure_main_exp,2022.2.2,Win32,59.93407252,,,,,,,,,,,,,,,,,,masks/mask_001.jpg,,,,,,,,,,,,,,,,,,,,,,,,,,,,,,,,,,,,,,,,,,,,,,,,0,1,1,0,1,,,,,,,,,,,,,,,,,,,,,,,,,,,,,,,,,,,,,,,,,
843758,001,2022-11-21_24h53.21.811,Info_measure_main_exp,2022.2.2,Win32,59.93407252,,,,,,,,,,,,,,,,,,masks/mask_004.jpg,,,,,,,,,,,,,,,,,,,,,,,,,,,,,,,,,,,,,,,,,,,,,,,,0,2,2,3,1,,,,,,,,,,,,,,,,,,,,,,,,,,,,,,,,,,,,,,,,,
843758,001,2022-11-21_24h53.21.811,Info_measure_main_exp,2022.2.2,Win32,59.93407252,,,,,,,,,,,,,,,,,,masks/mask_003.jpg,,,,,,,,,,,,,,,,,,,,,,,,,,,,,,,,,,,,,,,,,,,,,,,,0,3,3,2,1,,,,,,,,,,,,,,,,,,,,,,,,,,,,,,,,,,,,,,,,,
843758,001,2022-11-21_24h53.21.811,Info_measure_main_exp,2022.2.2,Win32,59.93407252,,,,,,,,,,,,,,,,,,masks/mask_005.jpg,,,,,,,,,,,,,,,,,,,,,,,,,,,,,,,,,,,,,,,,,,,,,,,,0,4,4,4,1,,,,,,,,,,,,,,,,,,,,,,,,,,,,,,,,,,,,,,,,,
843758,001,2022-11-21_24h53.21.811,Info_measure_main_exp,2022.2.2,Win32,59.93407252,,,,,,,,,,,,,,,,,,,,,,,,,,,,,,4,1.0903,1,,,,,,,,,,,,0,131,5,5,2250,2142,absent_patch/patch0002250.jpg,absent_patch/patch0002142.jpg,,,,,,,,,,,,,,,,,,,,0.015740783,-0.048148155,1,0,0,response3disk,24,0.012037065,-0.013888889,1,0,0,center_square,0,23,23,71,1,,,,,,,,,,,,,,,,,,,,,,,
843758,001,2022-11-21_24h53.21.811,Info_measure_main_exp,2022.2.2,Win32,59.93407252,,,,,,,,,,,,,,,,,,masks/mask_003.jpg,,,,,,,,,,,,,,,,,,,,,,,,,,,,,,,,,,,,,,,,,,,0,0,0,2,1,,,,,,,,,,,,,,,,,,,,,,,,,,,,,,,,,,,,,,,,,,,,,,
843758,001,2022-11-21_24h53.21.811,Info_measure_main_exp,2022.2.2,Win32,59.93407252,,,,,,,,,,,,,,,,,,masks/mask_002.jpg,,,,,,,,,,,,,,,,,,,,,,,,,,,,,,,,,,,,,,,,,,,0,1,1,1,1,,,,,,,,,,,,,,,,,,,,,,,,,,,,,,,,,,,,,,,,,,,,,,
843758,001,2022-11-21_24h53.21.811,Info_measure_main_exp,2022.2.2,Win32,59.93407252,,,,,,,,,,,,,,,,,,masks/mask_005.jpg,,,,,,,,,,,,,,,,,,,,,,,,,,,,,,,,,,,,,,,,,,,0,2,2,4,1,,,,,,,,,,,,,,,,,,,,,,,,,,,,,,,,,,,,,,,,,,,,,,
843758,001,2022-11-21_24h53.21.811,Info_measure_main_exp,2022.2.2,Win32,59.93407252,,,,,,,,,,,,,,,,,,masks/mask_004.jpg,,,,,,,,,,,,,,,,,,,,,,,,,,,,,,,,,,,,,,,,,,,0,3,3,3,1,,,,,,,,,,,,,,,,,,,,,,,,,,,,,,,,,,,,,,,,,,,,,,
843758,001,2022-11-21_24h53.21.811,Info_measure_main_exp,2022.2.2,Win32,59.93407252,,,,,,,,,,,,,,,,,,masks/mask_001.jpg,,,,,,,,,,,,,,,,,,,,,,,,,,,,,,,,,,,,,,,,,,,0,4,4,0,1,,,,,,,,,,,,,,,,,,,,,,,,,,,,,,,,,,,,,,,,,,,,,,
843758,001,2022-11-21_24h53.21.811,Info_measure_main_exp,2022.2.2,Win32,59.93407252,,,,,,,,,,,,,,,,,,masks/mask_004.jpg,,,,,,,,,,,,,,,,,,,,,,,,,,,,,,,,,,,,,,,,,,,,,,,,0,0,0,3,1,,,,,,,,,,,,,,,,,,,,,,,,,,,,,,,,,,,,,,,,,
843758,001,2022-11-21_24h53.21.811,Info_measure_main_exp,2022.2.2,Win32,59.93407252,,,,,,,,,,,,,,,,,,masks/mask_001.jpg,,,,,,,,,,,,,,,,,,,,,,,,,,,,,,,,,,,,,,,,,,,,,,,,0,1,1,0,1,,,,,,,,,,,,,,,,,,,,,,,,,,,,,,,,,,,,,,,,,
843758,001,2022-11-21_24h53.21.811,Info_measure_main_exp,2022.2.2,Win32,59.93407252,,,,,,,,,,,,,,,,,,masks/mask_005.jpg,,,,,,,,,,,,,,,,,,,,,,,,,,,,,,,,,,,,,,,,,,,,,,,,0,2,2,4,1,,,,,,,,,,,,,,,,,,,,,,,,,,,,,,,,,,,,,,,,,
843758,001,2022-11-21_24h53.21.811,Info_measure_main_exp,2022.2.2,Win32,59.93407252,,,,,,,,,,,,,,,,,,masks/mask_002.jpg,,,,,,,,,,,,,,,,,,,,,,,,,,,,,,,,,,,,,,,,,,,,,,,,0,3,3,1,1,,,,,,,,,,,,,,,,,,,,,,,,,,,,,,,,,,,,,,,,,
843758,001,2022-11-21_24h53.21.811,Info_measure_main_exp,2022.2.2,Win32,59.93407252,,,,,,,,,,,,,,,,,,masks/mask_003.jpg,,,,,,,,,,,,,,,,,,,,,,,,,,,,,,,,,,,,,,,,,,,,,,,,0,4,4,2,1,,,,,,,,,,,,,,,,,,,,,,,,,,,,,,,,,,,,,,,,,
843758,001,2022-11-21_24h53.21.811,Info_measure_main_exp,2022.2.2,Win32,59.93407252,,,,,,,,,,,,,,,,,,,,,,,,,,,,,,3,2.9984,1,,,,,,,,,,,,1,131,5,5,2238,1,absent_patch/patch0002238.jpg,present_patch/cong_131_5_a.jpg,,,,,,,,,,,,,,,,,,,,-0.024999972,-0.058333326,1,0,0,response5disk,25,-0.005555541,-0.00462963,1,0,0,center_square,0,24,24,104,1,,,,,,,,,,,,,,,,,,,,,,,
843758,001,2022-11-21_24h53.21.811,Info_measure_main_exp,2022.2.2,Win32,59.93407252,,,,,,,,,,,,,,,,,,masks/mask_003.jpg,,,,,,,,,,,,,,,,,,,,,,,,,,,,,,,,,,,,,,,,,,,0,0,0,2,1,,,,,,,,,,,,,,,,,,,,,,,,,,,,,,,,,,,,,,,,,,,,,,
843758,001,2022-11-21_24h53.21.811,Info_measure_main_exp,2022.2.2,Win32,59.93407252,,,,,,,,,,,,,,,,,,masks/mask_004.jpg,,,,,,,,,,,,,,,,,,,,,,,,,,,,,,,,,,,,,,,,,,,0,1,1,3,1,,,,,,,,,,,,,,,,,,,,,,,,,,,,,,,,,,,,,,,,,,,,,,
843758,001,2022-11-21_24h53.21.811,Info_measure_main_exp,2022.2.2,Win32,59.93407252,,,,,,,,,,,,,,,,,,masks/mask_005.jpg,,,,,,,,,,,,,,,,,,,,,,,,,,,,,,,,,,,,,,,,,,,0,2,2,4,1,,,,,,,,,,,,,,,,,,,,,,,,,,,,,,,,,,,,,,,,,,,,,,
843758,001,2022-11-21_24h53.21.811,Info_measure_main_exp,2022.2.2,Win32,59.93407252,,,,,,,,,,,,,,,,,,masks/mask_001.jpg,,,,,,,,,,,,,,,,,,,,,,,,,,,,,,,,,,,,,,,,,,,0,3,3,0,1,,,,,,,,,,,,,,,,,,,,,,,,,,,,,,,,,,,,,,,,,,,,,,
843758,001,2022-11-21_24h53.21.811,Info_measure_main_exp,2022.2.2,Win32,59.93407252,,,,,,,,,,,,,,,,,,masks/mask_002.jpg,,,,,,,,,,,,,,,,,,,,,,,,,,,,,,,,,,,,,,,,,,,0,4,4,1,1,,,,,,,,,,,,,,,,,,,,,,,,,,,,,,,,,,,,,,,,,,,,,,
843758,001,2022-11-21_24h53.21.811,Info_measure_main_exp,2022.2.2,Win32,59.93407252,,,,,,,,,,,,,,,,,,masks/mask_005.jpg,,,,,,,,,,,,,,,,,,,,,,,,,,,,,,,,,,,,,,,,,,,,,,,,0,0,0,4,1,,,,,,,,,,,,,,,,,,,,,,,,,,,,,,,,,,,,,,,,,
843758,001,2022-11-21_24h53.21.811,Info_measure_main_exp,2022.2.2,Win32,59.93407252,,,,,,,,,,,,,,,,,,masks/mask_001.jpg,,,,,,,,,,,,,,,,,,,,,,,,,,,,,,,,,,,,,,,,,,,,,,,,0,1,1,0,1,,,,,,,,,,,,,,,,,,,,,,,,,,,,,,,,,,,,,,,,,
843758,001,2022-11-21_24h53.21.811,Info_measure_main_exp,2022.2.2,Win32,59.93407252,,,,,,,,,,,,,,,,,,masks/mask_004.jpg,,,,,,,,,,,,,,,,,,,,,,,,,,,,,,,,,,,,,,,,,,,,,,,,0,2,2,3,1,,,,,,,,,,,,,,,,,,,,,,,,,,,,,,,,,,,,,,,,,
843758,001,2022-11-21_24h53.21.811,Info_measure_main_exp,2022.2.2,Win32,59.93407252,,,,,,,,,,,,,,,,,,masks/mask_002.jpg,,,,,,,,,,,,,,,,,,,,,,,,,,,,,,,,,,,,,,,,,,,,,,,,0,3,3,1,1,,,,,,,,,,,,,,,,,,,,,,,,,,,,,,,,,,,,,,,,,
843758,001,2022-11-21_24h53.21.811,Info_measure_main_exp,2022.2.2,Win32,59.93407252,,,,,,,,,,,,,,,,,,masks/mask_003.jpg,,,,,,,,,,,,,,,,,,,,,,,,,,,,,,,,,,,,,,,,,,,,,,,,0,4,4,2,1,,,,,,,,,,,,,,,,,,,,,,,,,,,,,,,,,,,,,,,,,
843758,001,2022-11-21_24h53.21.811,Info_measure_main_exp,2022.2.2,Win32,59.93407252,,,,,,,,,,,,,,,,,,,,,,,,,,,,,,6,1.5559,1,,,,,,,,,,,,0,131,5,5,2274,2082,absent_patch/patch0002274.jpg,absent_patch/patch0002082.jpg,,,,,,,,,,,,,,,,,,,,0.09629631,0.047222208,1,0,0,response1disk,26,0.005555541,0.009259259,1,0,0,center_square,0,25,25,100,1,,,,,,,,,,,,,,,,,,,,,,,
843758,001,2022-11-21_24h53.21.811,Info_measure_main_exp,2022.2.2,Win32,59.93407252,,,,,,,,,,,,,,,,,,masks/mask_005.jpg,,,,,,,,,,,,,,,,,,,,,,,,,,,,,,,,,,,,,,,,,,,0,0,0,4,1,,,,,,,,,,,,,,,,,,,,,,,,,,,,,,,,,,,,,,,,,,,,,,
843758,001,2022-11-21_24h53.21.811,Info_measure_main_exp,2022.2.2,Win32,59.93407252,,,,,,,,,,,,,,,,,,masks/mask_003.jpg,,,,,,,,,,,,,,,,,,,,,,,,,,,,,,,,,,,,,,,,,,,0,1,1,2,1,,,,,,,,,,,,,,,,,,,,,,,,,,,,,,,,,,,,,,,,,,,,,,
843758,001,2022-11-21_24h53.21.811,Info_measure_main_exp,2022.2.2,Win32,59.93407252,,,,,,,,,,,,,,,,,,masks/mask_001.jpg,,,,,,,,,,,,,,,,,,,,,,,,,,,,,,,,,,,,,,,,,,,0,2,2,0,1,,,,,,,,,,,,,,,,,,,,,,,,,,,,,,,,,,,,,,,,,,,,,,
843758,001,2022-11-21_24h53.21.811,Info_measure_main_exp,2022.2.2,Win32,59.93407252,,,,,,,,,,,,,,,,,,masks/mask_002.jpg,,,,,,,,,,,,,,,,,,,,,,,,,,,,,,,,,,,,,,,,,,,0,3,3,1,1,,,,,,,,,,,,,,,,,,,,,,,,,,,,,,,,,,,,,,,,,,,,,,
843758,001,2022-11-21_24h53.21.811,Info_measure_main_exp,2022.2.2,Win32,59.93407252,,,,,,,,,,,,,,,,,,masks/mask_004.jpg,,,,,,,,,,,,,,,,,,,,,,,,,,,,,,,,,,,,,,,,,,,0,4,4,3,1,,,,,,,,,,,,,,,,,,,,,,,,,,,,,,,,,,,,,,,,,,,,,,
843758,001,2022-11-21_24h53.21.811,Info_measure_main_exp,2022.2.2,Win32,59.93407252,,,,,,,,,,,,,,,,,,masks/mask_003.jpg,,,,,,,,,,,,,,,,,,,,,,,,,,,,,,,,,,,,,,,,,,,,,,,,0,0,0,2,1,,,,,,,,,,,,,,,,,,,,,,,,,,,,,,,,,,,,,,,,,
843758,001,2022-11-21_24h53.21.811,Info_measure_main_exp,2022.2.2,Win32,59.93407252,,,,,,,,,,,,,,,,,,masks/mask_005.jpg,,,,,,,,,,,,,,,,,,,,,,,,,,,,,,,,,,,,,,,,,,,,,,,,0,1,1,4,1,,,,,,,,,,,,,,,,,,,,,,,,,,,,,,,,,,,,,,,,,
843758,001,2022-11-21_24h53.21.811,Info_measure_main_exp,2022.2.2,Win32,59.93407252,,,,,,,,,,,,,,,,,,masks/mask_004.jpg,,,,,,,,,,,,,,,,,,,,,,,,,,,,,,,,,,,,,,,,,,,,,,,,0,2,2,3,1,,,,,,,,,,,,,,,,,,,,,,,,,,,,,,,,,,,,,,,,,
843758,001,2022-11-21_24h53.21.811,Info_measure_main_exp,2022.2.2,Win32,59.93407252,,,,,,,,,,,,,,,,,,masks/mask_001.jpg,,,,,,,,,,,,,,,,,,,,,,,,,,,,,,,,,,,,,,,,,,,,,,,,0,3,3,0,1,,,,,,,,,,,,,,,,,,,,,,,,,,,,,,,,,,,,,,,,,
843758,001,2022-11-21_24h53.21.811,Info_measure_main_exp,2022.2.2,Win32,59.93407252,,,,,,,,,,,,,,,,,,masks/mask_002.jpg,,,,,,,,,,,,,,,,,,,,,,,,,,,,,,,,,,,,,,,,,,,,,,,,0,4,4,1,1,,,,,,,,,,,,,,,,,,,,,,,,,,,,,,,,,,,,,,,,,
843758,001,2022-11-21_24h53.21.811,Info_measure_main_exp,2022.2.2,Win32,59.93407252,,,,,,,,,,,,,,,,,,,,,,,,,,,,,,0,0.74,1,,,,,,,,,,,,0,131,5,5,2154,2154,absent_patch/patch0002154.jpg,absent_patch/patch0002154.jpg,,,,,,,,,,,,,,,,,,,,-0.01944443,0.062962956,1,0,0,response7disk,27,-0.006481453,0.014814801,1,0,0,center_square,0,26,26,89,1,,,,,,,,,,,,,,,,,,,,,,,
843758,001,2022-11-21_24h53.21.811,Info_measure_main_exp,2022.2.2,Win32,59.93407252,,,,,,,,,,,,,,,,,,masks/mask_004.jpg,,,,,,,,,,,,,,,,,,,,,,,,,,,,,,,,,,,,,,,,,,,0,0,0,3,1,,,,,,,,,,,,,,,,,,,,,,,,,,,,,,,,,,,,,,,,,,,,,,
843758,001,2022-11-21_24h53.21.811,Info_measure_main_exp,2022.2.2,Win32,59.93407252,,,,,,,,,,,,,,,,,,masks/mask_003.jpg,,,,,,,,,,,,,,,,,,,,,,,,,,,,,,,,,,,,,,,,,,,0,1,1,2,1,,,,,,,,,,,,,,,,,,,,,,,,,,,,,,,,,,,,,,,,,,,,,,
843758,001,2022-11-21_24h53.21.811,Info_measure_main_exp,2022.2.2,Win32,59.93407252,,,,,,,,,,,,,,,,,,masks/mask_001.jpg,,,,,,,,,,,,,,,,,,,,,,,,,,,,,,,,,,,,,,,,,,,0,2,2,0,1,,,,,,,,,,,,,,,,,,,,,,,,,,,,,,,,,,,,,,,,,,,,,,
843758,001,2022-11-21_24h53.21.811,Info_measure_main_exp,2022.2.2,Win32,59.93407252,,,,,,,,,,,,,,,,,,masks/mask_005.jpg,,,,,,,,,,,,,,,,,,,,,,,,,,,,,,,,,,,,,,,,,,,0,3,3,4,1,,,,,,,,,,,,,,,,,,,,,,,,,,,,,,,,,,,,,,,,,,,,,,
843758,001,2022-11-21_24h53.21.811,Info_measure_main_exp,2022.2.2,Win32,59.93407252,,,,,,,,,,,,,,,,,,masks/mask_002.jpg,,,,,,,,,,,,,,,,,,,,,,,,,,,,,,,,,,,,,,,,,,,0,4,4,1,1,,,,,,,,,,,,,,,,,,,,,,,,,,,,,,,,,,,,,,,,,,,,,,
843758,001,2022-11-21_24h53.21.811,Info_measure_main_exp,2022.2.2,Win32,59.93407252,,,,,,,,,,,,,,,,,,masks/mask_004.jpg,,,,,,,,,,,,,,,,,,,,,,,,,,,,,,,,,,,,,,,,,,,,,,,,0,0,0,3,1,,,,,,,,,,,,,,,,,,,,,,,,,,,,,,,,,,,,,,,,,
843758,001,2022-11-21_24h53.21.811,Info_measure_main_exp,2022.2.2,Win32,59.93407252,,,,,,,,,,,,,,,,,,masks/mask_002.jpg,,,,,,,,,,,,,,,,,,,,,,,,,,,,,,,,,,,,,,,,,,,,,,,,0,1,1,1,1,,,,,,,,,,,,,,,,,,,,,,,,,,,,,,,,,,,,,,,,,
843758,001,2022-11-21_24h53.21.811,Info_measure_main_exp,2022.2.2,Win32,59.93407252,,,,,,,,,,,,,,,,,,masks/mask_003.jpg,,,,,,,,,,,,,,,,,,,,,,,,,,,,,,,,,,,,,,,,,,,,,,,,0,2,2,2,1,,,,,,,,,,,,,,,,,,,,,,,,,,,,,,,,,,,,,,,,,
843758,001,2022-11-21_24h53.21.811,Info_measure_main_exp,2022.2.2,Win32,59.93407252,,,,,,,,,,,,,,,,,,masks/mask_005.jpg,,,,,,,,,,,,,,,,,,,,,,,,,,,,,,,,,,,,,,,,,,,,,,,,0,3,3,4,1,,,,,,,,,,,,,,,,,,,,,,,,,,,,,,,,,,,,,,,,,
843758,001,2022-11-21_24h53.21.811,Info_measure_main_exp,2022.2.2,Win32,59.93407252,,,,,,,,,,,,,,,,,,masks/mask_001.jpg,,,,,,,,,,,,,,,,,,,,,,,,,,,,,,,,,,,,,,,,,,,,,,,,0,4,4,0,1,,,,,,,,,,,,,,,,,,,,,,,,,,,,,,,,,,,,,,,,,
843758,001,2022-11-21_24h53.21.811,Info_measure_main_exp,2022.2.2,Win32,59.93407252,,,,,,,,,,,,,,,,,,,,,,,,,,,,,,7,1.1232,1,,,,,,,,,,,,1,131,5,5,1950,1,absent_patch/patch0001950.jpg,present_patch/cong_131_5_a.jpg,,,,,,,,,,,,,,,,,,,,0.021296325,0.047222208,1,0,0,response1disk,28,0.005555541,0.003703683,1,0,0,center_square,0,27,27,39,1,,,,,,,,,,,,,,,,,,,,,,,
843758,001,2022-11-21_24h53.21.811,Info_measure_main_exp,2022.2.2,Win32,59.93407252,,,,,,,,,,,,,,,,,,masks/mask_002.jpg,,,,,,,,,,,,,,,,,,,,,,,,,,,,,,,,,,,,,,,,,,,0,0,0,1,1,,,,,,,,,,,,,,,,,,,,,,,,,,,,,,,,,,,,,,,,,,,,,,
843758,001,2022-11-21_24h53.21.811,Info_measure_main_exp,2022.2.2,Win32,59.93407252,,,,,,,,,,,,,,,,,,masks/mask_005.jpg,,,,,,,,,,,,,,,,,,,,,,,,,,,,,,,,,,,,,,,,,,,0,1,1,4,1,,,,,,,,,,,,,,,,,,,,,,,,,,,,,,,,,,,,,,,,,,,,,,
843758,001,2022-11-21_24h53.21.811,Info_measure_main_exp,2022.2.2,Win32,59.93407252,,,,,,,,,,,,,,,,,,masks/mask_003.jpg,,,,,,,,,,,,,,,,,,,,,,,,,,,,,,,,,,,,,,,,,,,0,2,2,2,1,,,,,,,,,,,,,,,,,,,,,,,,,,,,,,,,,,,,,,,,,,,,,,
843758,001,2022-11-21_24h53.21.811,Info_measure_main_exp,2022.2.2,Win32,59.93407252,,,,,,,,,,,,,,,,,,masks/mask_004.jpg,,,,,,,,,,,,,,,,,,,,,,,,,,,,,,,,,,,,,,,,,,,0,3,3,3,1,,,,,,,,,,,,,,,,,,,,,,,,,,,,,,,,,,,,,,,,,,,,,,
843758,001,2022-11-21_24h53.21.811,Info_measure_main_exp,2022.2.2,Win32,59.93407252,,,,,,,,,,,,,,,,,,masks/mask_001.jpg,,,,,,,,,,,,,,,,,,,,,,,,,,,,,,,,,,,,,,,,,,,0,4,4,0,1,,,,,,,,,,,,,,,,,,,,,,,,,,,,,,,,,,,,,,,,,,,,,,
843758,001,2022-11-21_24h53.21.811,Info_measure_main_exp,2022.2.2,Win32,59.93407252,,,,,,,,,,,,,,,,,,masks/mask_004.jpg,,,,,,,,,,,,,,,,,,,,,,,,,,,,,,,,,,,,,,,,,,,,,,,,0,0,0,3,1,,,,,,,,,,,,,,,,,,,,,,,,,,,,,,,,,,,,,,,,,
843758,001,2022-11-21_24h53.21.811,Info_measure_main_exp,2022.2.2,Win32,59.93407252,,,,,,,,,,,,,,,,,,masks/mask_001.jpg,,,,,,,,,,,,,,,,,,,,,,,,,,,,,,,,,,,,,,,,,,,,,,,,0,1,1,0,1,,,,,,,,,,,,,,,,,,,,,,,,,,,,,,,,,,,,,,,,,
843758,001,2022-11-21_24h53.21.811,Info_measure_main_exp,2022.2.2,Win32,59.93407252,,,,,,,,,,,,,,,,,,masks/mask_002.jpg,,,,,,,,,,,,,,,,,,,,,,,,,,,,,,,,,,,,,,,,,,,,,,,,0,2,2,1,1,,,,,,,,,,,,,,,,,,,,,,,,,,,,,,,,,,,,,,,,,
843758,001,2022-11-21_24h53.21.811,Info_measure_main_exp,2022.2.2,Win32,59.93407252,,,,,,,,,,,,,,,,,,masks/mask_003.jpg,,,,,,,,,,,,,,,,,,,,,,,,,,,,,,,,,,,,,,,,,,,,,,,,0,3,3,2,1,,,,,,,,,,,,,,,,,,,,,,,,,,,,,,,,,,,,,,,,,
843758,001,2022-11-21_24h53.21.811,Info_measure_main_exp,2022.2.2,Win32,59.93407252,,,,,,,,,,,,,,,,,,masks/mask_005.jpg,,,,,,,,,,,,,,,,,,,,,,,,,,,,,,,,,,,,,,,,,,,,,,,,0,4,4,4,1,,,,,,,,,,,,,,,,,,,,,,,,,,,,,,,,,,,,,,,,,
843758,001,2022-11-21_24h53.21.811,Info_measure_main_exp,2022.2.2,Win32,59.93407252,,,,,,,,,,,,,,,,,,,,,,,,,,,,,,4,1.3166,1,,,,,,,,,,,,0,131,5,5,2274,2154,absent_patch/patch0002274.jpg,absent_patch/patch0002154.jpg,,,,,,,,,,,,,,,,,,,,0.040740755,-0.067592586,1,0,0,response3disk,29,0.00462963,-0.000925947,1,0,0,center_square,0,28,28,23,1,,,,,,,,,,,,,,,,,,,,,,,
843758,001,2022-11-21_24h53.21.811,Info_measure_main_exp,2022.2.2,Win32,59.93407252,,,,,,,,,,,,,,,,,,masks/mask_001.jpg,,,,,,,,,,,,,,,,,,,,,,,,,,,,,,,,,,,,,,,,,,,0,0,0,0,1,,,,,,,,,,,,,,,,,,,,,,,,,,,,,,,,,,,,,,,,,,,,,,
843758,001,2022-11-21_24h53.21.811,Info_measure_main_exp,2022.2.2,Win32,59.93407252,,,,,,,,,,,,,,,,,,masks/mask_002.jpg,,,,,,,,,,,,,,,,,,,,,,,,,,,,,,,,,,,,,,,,,,,0,1,1,1,1,,,,,,,,,,,,,,,,,,,,,,,,,,,,,,,,,,,,,,,,,,,,,,
843758,001,2022-11-21_24h53.21.811,Info_measure_main_exp,2022.2.2,Win32,59.93407252,,,,,,,,,,,,,,,,,,masks/mask_003.jpg,,,,,,,,,,,,,,,,,,,,,,,,,,,,,,,,,,,,,,,,,,,0,2,2,2,1,,,,,,,,,,,,,,,,,,,,,,,,,,,,,,,,,,,,,,,,,,,,,,
843758,001,2022-11-21_24h53.21.811,Info_measure_main_exp,2022.2.2,Win32,59.93407252,,,,,,,,,,,,,,,,,,masks/mask_005.jpg,,,,,,,,,,,,,,,,,,,,,,,,,,,,,,,,,,,,,,,,,,,0,3,3,4,1,,,,,,,,,,,,,,,,,,,,,,,,,,,,,,,,,,,,,,,,,,,,,,
843758,001,2022-11-21_24h53.21.811,Info_measure_main_exp,2022.2.2,Win32,59.93407252,,,,,,,,,,,,,,,,,,masks/mask_004.jpg,,,,,,,,,,,,,,,,,,,,,,,,,,,,,,,,,,,,,,,,,,,0,4,4,3,1,,,,,,,,,,,,,,,,,,,,,,,,,,,,,,,,,,,,,,,,,,,,,,
843758,001,2022-11-21_24h53.21.811,Info_measure_main_exp,2022.2.2,Win32,59.93407252,,,,,,,,,,,,,,,,,,masks/mask_003.jpg,,,,,,,,,,,,,,,,,,,,,,,,,,,,,,,,,,,,,,,,,,,,,,,,0,0,0,2,1,,,,,,,,,,,,,,,,,,,,,,,,,,,,,,,,,,,,,,,,,
843758,001,2022-11-21_24h53.21.811,Info_measure_main_exp,2022.2.2,Win32,59.93407252,,,,,,,,,,,,,,,,,,masks/mask_002.jpg,,,,,,,,,,,,,,,,,,,,,,,,,,,,,,,,,,,,,,,,,,,,,,,,0,1,1,1,1,,,,,,,,,,,,,,,,,,,,,,,,,,,,,,,,,,,,,,,,,
843758,001,2022-11-21_24h53.21.811,Info_measure_main_exp,2022.2.2,Win32,59.93407252,,,,,,,,,,,,,,,,,,masks/mask_005.jpg,,,,,,,,,,,,,,,,,,,,,,,,,,,,,,,,,,,,,,,,,,,,,,,,0,2,2,4,1,,,,,,,,,,,,,,,,,,,,,,,,,,,,,,,,,,,,,,,,,
843758,001,2022-11-21_24h53.21.811,Info_measure_main_exp,2022.2.2,Win32,59.93407252,,,,,,,,,,,,,,,,,,masks/mask_001.jpg,,,,,,,,,,,,,,,,,,,,,,,,,,,,,,,,,,,,,,,,,,,,,,,,0,3,3,0,1,,,,,,,,,,,,,,,,,,,,,,,,,,,,,,,,,,,,,,,,,
843758,001,2022-11-21_24h53.21.811,Info_measure_main_exp,2022.2.2,Win32,59.93407252,,,,,,,,,,,,,,,,,,masks/mask_004.jpg,,,,,,,,,,,,,,,,,,,,,,,,,,,,,,,,,,,,,,,,,,,,,,,,0,4,4,3,1,,,,,,,,,,,,,,,,,,,,,,,,,,,,,,,,,,,,,,,,,
843758,001,2022-11-21_24h53.21.811,Info_measure_main_exp,2022.2.2,Win32,59.93407252,,,,,,,,,,,,,,,,,,,,,,,,,,,,,,6,1.1,1,,,,,,,,,,,,0,131,5,5,2238,2214,absent_patch/patch0002238.jpg,absent_patch/patch0002214.jpg,,,,,,,,,,,,,,,,,,,,0.090740769,0.034259266,1,0,0,response1disk,30,-0.000925912,0.003703683,1,0,0,center_square,0,29,29,81,1,,,,,,,,,,,,,,,,,,,,,,,
843758,001,2022-11-21_24h53.21.811,Info_measure_main_exp,2022.2.2,Win32,59.93407252,,,,,,,,,,,,,,,,,,masks/mask_001.jpg,,,,,,,,,,,,,,,,,,,,,,,,,,,,,,,,,,,,,,,,,,,0,0,0,0,1,,,,,,,,,,,,,,,,,,,,,,,,,,,,,,,,,,,,,,,,,,,,,,
843758,001,2022-11-21_24h53.21.811,Info_measure_main_exp,2022.2.2,Win32,59.93407252,,,,,,,,,,,,,,,,,,masks/mask_003.jpg,,,,,,,,,,,,,,,,,,,,,,,,,,,,,,,,,,,,,,,,,,,0,1,1,2,1,,,,,,,,,,,,,,,,,,,,,,,,,,,,,,,,,,,,,,,,,,,,,,
843758,001,2022-11-21_24h53.21.811,Info_measure_main_exp,2022.2.2,Win32,59.93407252,,,,,,,,,,,,,,,,,,masks/mask_005.jpg,,,,,,,,,,,,,,,,,,,,,,,,,,,,,,,,,,,,,,,,,,,0,2,2,4,1,,,,,,,,,,,,,,,,,,,,,,,,,,,,,,,,,,,,,,,,,,,,,,
843758,001,2022-11-21_24h53.21.811,Info_measure_main_exp,2022.2.2,Win32,59.93407252,,,,,,,,,,,,,,,,,,masks/mask_004.jpg,,,,,,,,,,,,,,,,,,,,,,,,,,,,,,,,,,,,,,,,,,,0,3,3,3,1,,,,,,,,,,,,,,,,,,,,,,,,,,,,,,,,,,,,,,,,,,,,,,
843758,001,2022-11-21_24h53.21.811,Info_measure_main_exp,2022.2.2,Win32,59.93407252,,,,,,,,,,,,,,,,,,masks/mask_002.jpg,,,,,,,,,,,,,,,,,,,,,,,,,,,,,,,,,,,,,,,,,,,0,4,4,1,1,,,,,,,,,,,,,,,,,,,,,,,,,,,,,,,,,,,,,,,,,,,,,,
843758,001,2022-11-21_24h53.21.811,Info_measure_main_exp,2022.2.2,Win32,59.93407252,,,,,,,,,,,,,,,,,,masks/mask_003.jpg,,,,,,,,,,,,,,,,,,,,,,,,,,,,,,,,,,,,,,,,,,,,,,,,0,0,0,2,1,,,,,,,,,,,,,,,,,,,,,,,,,,,,,,,,,,,,,,,,,
843758,001,2022-11-21_24h53.21.811,Info_measure_main_exp,2022.2.2,Win32,59.93407252,,,,,,,,,,,,,,,,,,masks/mask_001.jpg,,,,,,,,,,,,,,,,,,,,,,,,,,,,,,,,,,,,,,,,,,,,,,,,0,1,1,0,1,,,,,,,,,,,,,,,,,,,,,,,,,,,,,,,,,,,,,,,,,
843758,001,2022-11-21_24h53.21.811,Info_measure_main_exp,2022.2.2,Win32,59.93407252,,,,,,,,,,,,,,,,,,masks/mask_004.jpg,,,,,,,,,,,,,,,,,,,,,,,,,,,,,,,,,,,,,,,,,,,,,,,,0,2,2,3,1,,,,,,,,,,,,,,,,,,,,,,,,,,,,,,,,,,,,,,,,,
843758,001,2022-11-21_24h53.21.811,Info_measure_main_exp,2022.2.2,Win32,59.93407252,,,,,,,,,,,,,,,,,,masks/mask_002.jpg,,,,,,,,,,,,,,,,,,,,,,,,,,,,,,,,,,,,,,,,,,,,,,,,0,3,3,1,1,,,,,,,,,,,,,,,,,,,,,,,,,,,,,,,,,,,,,,,,,
843758,001,2022-11-21_24h53.21.811,Info_measure_main_exp,2022.2.2,Win32,59.93407252,,,,,,,,,,,,,,,,,,masks/mask_005.jpg,,,,,,,,,,,,,,,,,,,,,,,,,,,,,,,,,,,,,,,,,,,,,,,,0,4,4,4,1,,,,,,,,,,,,,,,,,,,,,,,,,,,,,,,,,,,,,,,,,
843758,001,2022-11-21_24h53.21.811,Info_measure_main_exp,2022.2.2,Win32,59.93407252,,,,,,,,,,,,,,,,,,,,,,,,,,,,,,4,1.2832,1,,,,,,,,,,,,0,131,5,5,1974,2178,absent_patch/patch0001974.jpg,absent_patch/patch0002178.jpg,,,,,,,,,,,,,,,,,,,,0.038888931,-0.075000021,1,0,0,response3disk,31,0.005555541,-0.01203703,1,0,0,center_square,0,30,30,44,1,,,,,,,,,,,,,,,,,,,,,,,
843758,001,2022-11-21_24h53.21.811,Info_measure_main_exp,2022.2.2,Win32,59.93407252,,,,,,,,,,,,,,,,,,masks/mask_004.jpg,,,,,,,,,,,,,,,,,,,,,,,,,,,,,,,,,,,,,,,,,,,0,0,0,3,1,,,,,,,,,,,,,,,,,,,,,,,,,,,,,,,,,,,,,,,,,,,,,,
843758,001,2022-11-21_24h53.21.811,Info_measure_main_exp,2022.2.2,Win32,59.93407252,,,,,,,,,,,,,,,,,,masks/mask_001.jpg,,,,,,,,,,,,,,,,,,,,,,,,,,,,,,,,,,,,,,,,,,,0,1,1,0,1,,,,,,,,,,,,,,,,,,,,,,,,,,,,,,,,,,,,,,,,,,,,,,
843758,001,2022-11-21_24h53.21.811,Info_measure_main_exp,2022.2.2,Win32,59.93407252,,,,,,,,,,,,,,,,,,masks/mask_005.jpg,,,,,,,,,,,,,,,,,,,,,,,,,,,,,,,,,,,,,,,,,,,0,2,2,4,1,,,,,,,,,,,,,,,,,,,,,,,,,,,,,,,,,,,,,,,,,,,,,,
843758,001,2022-11-21_24h53.21.811,Info_measure_main_exp,2022.2.2,Win32,59.93407252,,,,,,,,,,,,,,,,,,masks/mask_002.jpg,,,,,,,,,,,,,,,,,,,,,,,,,,,,,,,,,,,,,,,,,,,0,3,3,1,1,,,,,,,,,,,,,,,,,,,,,,,,,,,,,,,,,,,,,,,,,,,,,,
843758,001,2022-11-21_24h53.21.811,Info_measure_main_exp,2022.2.2,Win32,59.93407252,,,,,,,,,,,,,,,,,,masks/mask_003.jpg,,,,,,,,,,,,,,,,,,,,,,,,,,,,,,,,,,,,,,,,,,,0,4,4,2,1,,,,,,,,,,,,,,,,,,,,,,,,,,,,,,,,,,,,,,,,,,,,,,
843758,001,2022-11-21_24h53.21.811,Info_measure_main_exp,2022.2.2,Win32,59.93407252,,,,,,,,,,,,,,,,,,masks/mask_002.jpg,,,,,,,,,,,,,,,,,,,,,,,,,,,,,,,,,,,,,,,,,,,,,,,,0,0,0,1,1,,,,,,,,,,,,,,,,,,,,,,,,,,,,,,,,,,,,,,,,,
843758,001,2022-11-21_24h53.21.811,Info_measure_main_exp,2022.2.2,Win32,59.93407252,,,,,,,,,,,,,,,,,,masks/mask_001.jpg,,,,,,,,,,,,,,,,,,,,,,,,,,,,,,,,,,,,,,,,,,,,,,,,0,1,1,0,1,,,,,,,,,,,,,,,,,,,,,,,,,,,,,,,,,,,,,,,,,
843758,001,2022-11-21_24h53.21.811,Info_measure_main_exp,2022.2.2,Win32,59.93407252,,,,,,,,,,,,,,,,,,masks/mask_004.jpg,,,,,,,,,,,,,,,,,,,,,,,,,,,,,,,,,,,,,,,,,,,,,,,,0,2,2,3,1,,,,,,,,,,,,,,,,,,,,,,,,,,,,,,,,,,,,,,,,,
843758,001,2022-11-21_24h53.21.811,Info_measure_main_exp,2022.2.2,Win32,59.93407252,,,,,,,,,,,,,,,,,,masks/mask_005.jpg,,,,,,,,,,,,,,,,,,,,,,,,,,,,,,,,,,,,,,,,,,,,,,,,0,3,3,4,1,,,,,,,,,,,,,,,,,,,,,,,,,,,,,,,,,,,,,,,,,
843758,001,2022-11-21_24h53.21.811,Info_measure_main_exp,2022.2.2,Win32,59.93407252,,,,,,,,,,,,,,,,,,masks/mask_003.jpg,,,,,,,,,,,,,,,,,,,,,,,,,,,,,,,,,,,,,,,,,,,,,,,,0,4,4,2,1,,,,,,,,,,,,,,,,,,,,,,,,,,,,,,,,,,,,,,,,,
843758,001,2022-11-21_24h53.21.811,Info_measure_main_exp,2022.2.2,Win32,59.93407252,,,,,,,,,,,,,,,,,,,,,,,,,,,,,,7,2.1219,1,,,,,,,,,,,,1,131,5,5,1,2214,present_patch/cong_131_5_a.jpg,absent_patch/patch0002214.jpg,,,,,,,,,,,,,,,,,,,,0.039814843,0.065740727,1,0,0,response1disk,32,0.003703718,-0.001851859,1,0,0,center_square,0,31,31,4,1,,,,,,,,,,,,,,,,,,,,,,,
843758,001,2022-11-21_24h53.21.811,Info_measure_main_exp,2022.2.2,Win32,59.93407252,,,,,,,,,,,,,,,,,,masks/mask_003.jpg,,,,,,,,,,,,,,,,,,,,,,,,,,,,,,,,,,,,,,,,,,,0,0,0,2,1,,,,,,,,,,,,,,,,,,,,,,,,,,,,,,,,,,,,,,,,,,,,,,
843758,001,2022-11-21_24h53.21.811,Info_measure_main_exp,2022.2.2,Win32,59.93407252,,,,,,,,,,,,,,,,,,masks/mask_002.jpg,,,,,,,,,,,,,,,,,,,,,,,,,,,,,,,,,,,,,,,,,,,0,1,1,1,1,,,,,,,,,,,,,,,,,,,,,,,,,,,,,,,,,,,,,,,,,,,,,,
843758,001,2022-11-21_24h53.21.811,Info_measure_main_exp,2022.2.2,Win32,59.93407252,,,,,,,,,,,,,,,,,,masks/mask_001.jpg,,,,,,,,,,,,,,,,,,,,,,,,,,,,,,,,,,,,,,,,,,,0,2,2,0,1,,,,,,,,,,,,,,,,,,,,,,,,,,,,,,,,,,,,,,,,,,,,,,
843758,001,2022-11-21_24h53.21.811,Info_measure_main_exp,2022.2.2,Win32,59.93407252,,,,,,,,,,,,,,,,,,masks/mask_005.jpg,,,,,,,,,,,,,,,,,,,,,,,,,,,,,,,,,,,,,,,,,,,0,3,3,4,1,,,,,,,,,,,,,,,,,,,,,,,,,,,,,,,,,,,,,,,,,,,,,,
843758,001,2022-11-21_24h53.21.811,Info_measure_main_exp,2022.2.2,Win32,59.93407252,,,,,,,,,,,,,,,,,,masks/mask_004.jpg,,,,,,,,,,,,,,,,,,,,,,,,,,,,,,,,,,,,,,,,,,,0,4,4,3,1,,,,,,,,,,,,,,,,,,,,,,,,,,,,,,,,,,,,,,,,,,,,,,
843758,001,2022-11-21_24h53.21.811,Info_measure_main_exp,2022.2.2,Win32,59.93407252,,,,,,,,,,,,,,,,,,masks/mask_001.jpg,,,,,,,,,,,,,,,,,,,,,,,,,,,,,,,,,,,,,,,,,,,,,,,,0,0,0,0,1,,,,,,,,,,,,,,,,,,,,,,,,,,,,,,,,,,,,,,,,,
843758,001,2022-11-21_24h53.21.811,Info_measure_main_exp,2022.2.2,Win32,59.93407252,,,,,,,,,,,,,,,,,,masks/mask_004.jpg,,,,,,,,,,,,,,,,,,,,,,,,,,,,,,,,,,,,,,,,,,,,,,,,0,1,1,3,1,,,,,,,,,,,,,,,,,,,,,,,,,,,,,,,,,,,,,,,,,
843758,001,2022-11-21_24h53.21.811,Info_measure_main_exp,2022.2.2,Win32,59.93407252,,,,,,,,,,,,,,,,,,masks/mask_002.jpg,,,,,,,,,,,,,,,,,,,,,,,,,,,,,,,,,,,,,,,,,,,,,,,,0,2,2,1,1,,,,,,,,,,,,,,,,,,,,,,,,,,,,,,,,,,,,,,,,,
843758,001,2022-11-21_24h53.21.811,Info_measure_main_exp,2022.2.2,Win32,59.93407252,,,,,,,,,,,,,,,,,,masks/mask_005.jpg,,,,,,,,,,,,,,,,,,,,,,,,,,,,,,,,,,,,,,,,,,,,,,,,0,3,3,4,1,,,,,,,,,,,,,,,,,,,,,,,,,,,,,,,,,,,,,,,,,
843758,001,2022-11-21_24h53.21.811,Info_measure_main_exp,2022.2.2,Win32,59.93407252,,,,,,,,,,,,,,,,,,masks/mask_003.jpg,,,,,,,,,,,,,,,,,,,,,,,,,,,,,,,,,,,,,,,,,,,,,,,,0,4,4,2,1,,,,,,,,,,,,,,,,,,,,,,,,,,,,,,,,,,,,,,,,,
843758,001,2022-11-21_24h53.21.811,Info_measure_main_exp,2022.2.2,Win32,59.93407252,,,,,,,,,,,,,,,,,,,,,,,,,,,,,,7,1.3266,1,,,,,,,,,,,,0,131,5,5,2274,2214,absent_patch/patch0002274.jpg,absent_patch/patch0002214.jpg,,,,,,,,,,,,,,,,,,,,0.018518519,0.039814808,1,0,0,response1disk,33,0.009259259,0.013888889,1,0,0,center_square,0,32,32,11,1,,,,,,,,,,,,,,,,,,,,,,,
843758,001,2022-11-21_24h53.21.811,Info_measure_main_exp,2022.2.2,Win32,59.93407252,,,,,,,,,,,,,,,,,,masks/mask_002.jpg,,,,,,,,,,,,,,,,,,,,,,,,,,,,,,,,,,,,,,,,,,,0,0,0,1,1,,,,,,,,,,,,,,,,,,,,,,,,,,,,,,,,,,,,,,,,,,,,,,
843758,001,2022-11-21_24h53.21.811,Info_measure_main_exp,2022.2.2,Win32,59.93407252,,,,,,,,,,,,,,,,,,masks/mask_004.jpg,,,,,,,,,,,,,,,,,,,,,,,,,,,,,,,,,,,,,,,,,,,0,1,1,3,1,,,,,,,,,,,,,,,,,,,,,,,,,,,,,,,,,,,,,,,,,,,,,,
843758,001,2022-11-21_24h53.21.811,Info_measure_main_exp,2022.2.2,Win32,59.93407252,,,,,,,,,,,,,,,,,,masks/mask_005.jpg,,,,,,,,,,,,,,,,,,,,,,,,,,,,,,,,,,,,,,,,,,,0,2,2,4,1,,,,,,,,,,,,,,,,,,,,,,,,,,,,,,,,,,,,,,,,,,,,,,
843758,001,2022-11-21_24h53.21.811,Info_measure_main_exp,2022.2.2,Win32,59.93407252,,,,,,,,,,,,,,,,,,masks/mask_003.jpg,,,,,,,,,,,,,,,,,,,,,,,,,,,,,,,,,,,,,,,,,,,0,3,3,2,1,,,,,,,,,,,,,,,,,,,,,,,,,,,,,,,,,,,,,,,,,,,,,,
843758,001,2022-11-21_24h53.21.811,Info_measure_main_exp,2022.2.2,Win32,59.93407252,,,,,,,,,,,,,,,,,,masks/mask_001.jpg,,,,,,,,,,,,,,,,,,,,,,,,,,,,,,,,,,,,,,,,,,,0,4,4,0,1,,,,,,,,,,,,,,,,,,,,,,,,,,,,,,,,,,,,,,,,,,,,,,
843758,001,2022-11-21_24h53.21.811,Info_measure_main_exp,2022.2.2,Win32,59.93407252,,,,,,,,,,,,,,,,,,masks/mask_004.jpg,,,,,,,,,,,,,,,,,,,,,,,,,,,,,,,,,,,,,,,,,,,,,,,,0,0,0,3,1,,,,,,,,,,,,,,,,,,,,,,,,,,,,,,,,,,,,,,,,,
843758,001,2022-11-21_24h53.21.811,Info_measure_main_exp,2022.2.2,Win32,59.93407252,,,,,,,,,,,,,,,,,,masks/mask_005.jpg,,,,,,,,,,,,,,,,,,,,,,,,,,,,,,,,,,,,,,,,,,,,,,,,0,1,1,4,1,,,,,,,,,,,,,,,,,,,,,,,,,,,,,,,,,,,,,,,,,
843758,001,2022-11-21_24h53.21.811,Info_measure_main_exp,2022.2.2,Win32,59.93407252,,,,,,,,,,,,,,,,,,masks/mask_002.jpg,,,,,,,,,,,,,,,,,,,,,,,,,,,,,,,,,,,,,,,,,,,,,,,,0,2,2,1,1,,,,,,,,,,,,,,,,,,,,,,,,,,,,,,,,,,,,,,,,,
843758,001,2022-11-21_24h53.21.811,Info_measure_main_exp,2022.2.2,Win32,59.93407252,,,,,,,,,,,,,,,,,,masks/mask_003.jpg,,,,,,,,,,,,,,,,,,,,,,,,,,,,,,,,,,,,,,,,,,,,,,,,0,3,3,2,1,,,,,,,,,,,,,,,,,,,,,,,,,,,,,,,,,,,,,,,,,
843758,001,2022-11-21_24h53.21.811,Info_measure_main_exp,2022.2.2,Win32,59.93407252,,,,,,,,,,,,,,,,,,masks/mask_001.jpg,,,,,,,,,,,,,,,,,,,,,,,,,,,,,,,,,,,,,,,,,,,,,,,,0,4,4,0,1,,,,,,,,,,,,,,,,,,,,,,,,,,,,,,,,,,,,,,,,,
843758,001,2022-11-21_24h53.21.811,Info_measure_main_exp,2022.2.2,Win32,59.93407252,,,,,,,,,,,,,,,,,,,,,,,,,,,,,,7,1.1334,1,,,,,,,,,,,,0,131,5,5,2142,2154,absent_patch/patch0002142.jpg,absent_patch/patch0002154.jpg,,,,,,,,,,,,,,,,,,,,0.020370413,0.073148127,1,0,0,response1disk,34,0,0.008333312,1,0,0,center_square,0,33,33,9,1,,,,,,,,,,,,,,,,,,,,,,,
843758,001,2022-11-21_24h53.21.811,Info_measure_main_exp,2022.2.2,Win32,59.93407252,,,,,,,,,,,,,,,,,,masks/mask_003.jpg,,,,,,,,,,,,,,,,,,,,,,,,,,,,,,,,,,,,,,,,,,,0,0,0,2,1,,,,,,,,,,,,,,,,,,,,,,,,,,,,,,,,,,,,,,,,,,,,,,
843758,001,2022-11-21_24h53.21.811,Info_measure_main_exp,2022.2.2,Win32,59.93407252,,,,,,,,,,,,,,,,,,masks/mask_005.jpg,,,,,,,,,,,,,,,,,,,,,,,,,,,,,,,,,,,,,,,,,,,0,1,1,4,1,,,,,,,,,,,,,,,,,,,,,,,,,,,,,,,,,,,,,,,,,,,,,,
843758,001,2022-11-21_24h53.21.811,Info_measure_main_exp,2022.2.2,Win32,59.93407252,,,,,,,,,,,,,,,,,,masks/mask_004.jpg,,,,,,,,,,,,,,,,,,,,,,,,,,,,,,,,,,,,,,,,,,,0,2,2,3,1,,,,,,,,,,,,,,,,,,,,,,,,,,,,,,,,,,,,,,,,,,,,,,
843758,001,2022-11-21_24h53.21.811,Info_measure_main_exp,2022.2.2,Win32,59.93407252,,,,,,,,,,,,,,,,,,masks/mask_002.jpg,,,,,,,,,,,,,,,,,,,,,,,,,,,,,,,,,,,,,,,,,,,0,3,3,1,1,,,,,,,,,,,,,,,,,,,,,,,,,,,,,,,,,,,,,,,,,,,,,,
843758,001,2022-11-21_24h53.21.811,Info_measure_main_exp,2022.2.2,Win32,59.93407252,,,,,,,,,,,,,,,,,,masks/mask_001.jpg,,,,,,,,,,,,,,,,,,,,,,,,,,,,,,,,,,,,,,,,,,,0,4,4,0,1,,,,,,,,,,,,,,,,,,,,,,,,,,,,,,,,,,,,,,,,,,,,,,
843758,001,2022-11-21_24h53.21.811,Info_measure_main_exp,2022.2.2,Win32,59.93407252,,,,,,,,,,,,,,,,,,masks/mask_004.jpg,,,,,,,,,,,,,,,,,,,,,,,,,,,,,,,,,,,,,,,,,,,,,,,,0,0,0,3,1,,,,,,,,,,,,,,,,,,,,,,,,,,,,,,,,,,,,,,,,,
843758,001,2022-11-21_24h53.21.811,Info_measure_main_exp,2022.2.2,Win32,59.93407252,,,,,,,,,,,,,,,,,,masks/mask_005.jpg,,,,,,,,,,,,,,,,,,,,,,,,,,,,,,,,,,,,,,,,,,,,,,,,0,1,1,4,1,,,,,,,,,,,,,,,,,,,,,,,,,,,,,,,,,,,,,,,,,
843758,001,2022-11-21_24h53.21.811,Info_measure_main_exp,2022.2.2,Win32,59.93407252,,,,,,,,,,,,,,,,,,masks/mask_002.jpg,,,,,,,,,,,,,,,,,,,,,,,,,,,,,,,,,,,,,,,,,,,,,,,,0,2,2,1,1,,,,,,,,,,,,,,,,,,,,,,,,,,,,,,,,,,,,,,,,,
843758,001,2022-11-21_24h53.21.811,Info_measure_main_exp,2022.2.2,Win32,59.93407252,,,,,,,,,,,,,,,,,,masks/mask_003.jpg,,,,,,,,,,,,,,,,,,,,,,,,,,,,,,,,,,,,,,,,,,,,,,,,0,3,3,2,1,,,,,,,,,,,,,,,,,,,,,,,,,,,,,,,,,,,,,,,,,
