participant,session,date,expName,psychopyVersion,OS,frameRate,space_press_continue.keys,space_press_continue.rt,space_press_continue_2.keys,space_press_continue_2.rt,space_press_continue_3.keys,space_press_continue_3.rt,space_press_continue_4.keys,space_press_continue_4.rt,space_press_continue_5.keys,space_press_continue_5.rt,space_press_continue_6.keys,space_press_continue_6.rt,prac_mask_loop_1.thisRepN,prac_mask_loop_1.thisTrialN,prac_mask_loop_1.thisN,prac_mask_loop_1.thisIndex,prac_mask_loop_1.ran,mask_name,prac_mask_loop_2.thisRepN,prac_mask_loop_2.thisTrialN,prac_mask_loop_2.thisN,prac_mask_loop_2.thisIndex,prac_mask_loop_2.ran,mouse_2.x,mouse_2.y,mouse_2.leftButton,mouse_2.midButton,mouse_2.rightButton,mouse_2.clicked_name,similarity,response_time,Pass,mouse_12.x,mouse_12.y,mouse_12.leftButton,mouse_12.midButton,mouse_12.rightButton,mouse_12.clicked_name,prac_loop.thisRepN,prac_loop.thisTrialN,prac_loop.thisN,prac_loop.thisIndex,prac_loop.ran,Pair_type,Image_num,Patch_1_loc,Patch_2_loc,Patch_1_info,Patch_2_info,Patch_1_name,Patch_2_name,mouse_1.x,mouse_1.y,mouse_1.leftButton,mouse_1.midButton,mouse_1.rightButton,mouse_1.time,mouse_1.clicked_name,space_press_continue_7.keys,space_press_continue_7.rt,mask_loop.thisRepN,mask_loop.thisTrialN,mask_loop.thisN,mask_loop.thisIndex,mask_loop.ran,mask_loop_2.thisRepN,mask_loop_2.thisTrialN,mask_loop_2.thisN,mask_loop_2.thisIndex,mask_loop_2.ran,mouse.x,mouse.y,mouse.leftButton,mouse.midButton,mouse.rightButton,mouse.clicked_name,trialNumber,mouse_11.x,mouse_11.y,mouse_11.leftButton,mouse_11.midButton,mouse_11.rightButton,mouse_11.clicked_name,first_pass_loop.thisRepN,first_pass_loop.thisTrialN,first_pass_loop.thisN,first_pass_loop.thisIndex,first_pass_loop.ran,mask_loop_3.thisRepN,mask_loop_3.thisTrialN,mask_loop_3.thisN,mask_loop_3.thisIndex,mask_loop_3.ran,mask_loop_4.thisRepN,mask_loop_4.thisTrialN,mask_loop_4.thisN,mask_loop_4.thisIndex,mask_loop_4.ran,mouse_3.x,mouse_3.y,mouse_3.leftButton,mouse_3.midButton,mouse_3.rightButton,mouse_3.clicked_name,double_pass_loop.thisRepN,double_pass_loop.thisTrialN,double_pass_loop.thisN,double_pass_loop.thisIndex,double_pass_loop.ran,space_exit.keys,space_exit.rt
844457,001,2022-11-20_17h59.16.882,Info_measure_main_exp,2022.2.2,Win32,59.9268892,,,,,,,,,,,,,,,,,,,,,,,,,,,,,,,,,,,,,,,,,,,,,,,,,,,,,,,,,,,,,,,,,,,,,,,,,,,,,,,,,,,,,,,,,,,,,,,,,,,,,,,,,,,,,,,
844457,001,2022-11-20_17h59.16.882,Info_measure_main_exp,2022.2.2,Win32,59.9268892,,,,,,,,,,,,,,,,,,,,,,,,,,,,,,,,,,,,,,,,,,,,,,,,,,,,,,,,,,,,,,,,,,,,,,,,,,,,,,,,,,,,,,,,,,,,,,,,,,,,,,,,,,,,,,,
844457,001,2022-11-20_17h59.16.882,Info_measure_main_exp,2022.2.2,Win32,59.9268892,space,17.7051,,,,,,,,,,,,,,,,,,,,,,,,,,,,,,,,,,,,,,,,,,,,,,,,,,,,,,,,,,,,,,,,,,,,,,,,,,,,,,,,,,,,,,,,,,,,,,,,,,,,,,,,,,,,,
844457,001,2022-11-20_17h59.16.882,Info_measure_main_exp,2022.2.2,Win32,59.9268892,,,space,36.4138,,,,,,,,,,,,,,,,,,,,,,,,,,,,,,,,,,,,,,,,,,,,,,,,,,,,,,,,,,,,,,,,,,,,,,,,,,,,,,,,,,,,,,,,,,,,,,,,,,,,,,,,,,,
844457,001,2022-11-20_17h59.16.882,Info_measure_main_exp,2022.2.2,Win32,59.9268892,,,,,space,12.591,,,,,,,,,,,,,,,,,,,,,,,,,,,,,,,,,,,,,,,,,,,,,,,,,,,,,,,,,,,,,,,,,,,,,,,,,,,,,,,,,,,,,,,,,,,,,,,,,,,,,,,,,
844457,001,2022-11-20_17h59.16.882,Info_measure_main_exp,2022.2.2,Win32,59.9268892,,,,,,,space,68.6412,,,,,,,,,,,,,,,,,,,,,,,,,,,,,,,,,,,,,,,,,,,,,,,,,,,,,,,,,,,,,,,,,,,,,,,,,,,,,,,,,,,,,,,,,,,,,,,,,,,,,,,
844457,001,2022-11-20_17h59.16.882,Info_measure_main_exp,2022.2.2,Win32,59.9268892,,,,,,,,,space,6.673,,,,,,,,,,,,,,,,,,,,,,,,,,,,,,,,,,,,,,,,,,,,,,,,,,,,,,,,,,,,,,,,,,,,,,,,,,,,,,,,,,,,,,,,,,,,,,,,,,,,,
844457,001,2022-11-20_17h59.16.882,Info_measure_main_exp,2022.2.2,Win32,59.9268892,,,,,,,,,,,space,8.4062,,,,,,,,,,,,,,,,,,,,,,,,,,,,,,,,,,,,,,,,,,,,,,,,,,,,,,,,,,,,,,,,,,,,,,,,,,,,,,,,,,,,,,,,,,,,,,,,,,,
844457,001,2022-11-20_17h59.16.882,Info_measure_main_exp,2022.2.2,Win32,59.9268892,,,,,,,,,,,,,0,0,0,3,1,masks/mask_004.jpg,,,,,,,,,,,,,,,,,,,,,,,,,,,,,,,,,,,,,,,,,,,,,,,,,,,,,,,,,,,,,,,,,,,,,,,,,,,,,,,,,,,,,,,,,,,,,
844457,001,2022-11-20_17h59.16.882,Info_measure_main_exp,2022.2.2,Win32,59.9268892,,,,,,,,,,,,,0,1,1,0,1,masks/mask_001.jpg,,,,,,,,,,,,,,,,,,,,,,,,,,,,,,,,,,,,,,,,,,,,,,,,,,,,,,,,,,,,,,,,,,,,,,,,,,,,,,,,,,,,,,,,,,,,,
844457,001,2022-11-20_17h59.16.882,Info_measure_main_exp,2022.2.2,Win32,59.9268892,,,,,,,,,,,,,0,2,2,2,1,masks/mask_003.jpg,,,,,,,,,,,,,,,,,,,,,,,,,,,,,,,,,,,,,,,,,,,,,,,,,,,,,,,,,,,,,,,,,,,,,,,,,,,,,,,,,,,,,,,,,,,,,
844457,001,2022-11-20_17h59.16.882,Info_measure_main_exp,2022.2.2,Win32,59.9268892,,,,,,,,,,,,,0,3,3,1,1,masks/mask_002.jpg,,,,,,,,,,,,,,,,,,,,,,,,,,,,,,,,,,,,,,,,,,,,,,,,,,,,,,,,,,,,,,,,,,,,,,,,,,,,,,,,,,,,,,,,,,,,,
844457,001,2022-11-20_17h59.16.882,Info_measure_main_exp,2022.2.2,Win32,59.9268892,,,,,,,,,,,,,0,4,4,4,1,masks/mask_005.jpg,,,,,,,,,,,,,,,,,,,,,,,,,,,,,,,,,,,,,,,,,,,,,,,,,,,,,,,,,,,,,,,,,,,,,,,,,,,,,,,,,,,,,,,,,,,,,
844457,001,2022-11-20_17h59.16.882,Info_measure_main_exp,2022.2.2,Win32,59.9268892,,,,,,,,,,,,,,,,,,masks/mask_004.jpg,0,0,0,3,1,,,,,,,,,,,,,,,,,,,,,,,,,,,,,,,,,,,,,,,,,,,,,,,,,,,,,,,,,,,,,,,,,,,,,,,,,,,,,,,,,,,,,,,,
844457,001,2022-11-20_17h59.16.882,Info_measure_main_exp,2022.2.2,Win32,59.9268892,,,,,,,,,,,,,,,,,,masks/mask_001.jpg,0,1,1,0,1,,,,,,,,,,,,,,,,,,,,,,,,,,,,,,,,,,,,,,,,,,,,,,,,,,,,,,,,,,,,,,,,,,,,,,,,,,,,,,,,,,,,,,,,
844457,001,2022-11-20_17h59.16.882,Info_measure_main_exp,2022.2.2,Win32,59.9268892,,,,,,,,,,,,,,,,,,masks/mask_005.jpg,0,2,2,4,1,,,,,,,,,,,,,,,,,,,,,,,,,,,,,,,,,,,,,,,,,,,,,,,,,,,,,,,,,,,,,,,,,,,,,,,,,,,,,,,,,,,,,,,,
844457,001,2022-11-20_17h59.16.882,Info_measure_main_exp,2022.2.2,Win32,59.9268892,,,,,,,,,,,,,,,,,,masks/mask_002.jpg,0,3,3,1,1,,,,,,,,,,,,,,,,,,,,,,,,,,,,,,,,,,,,,,,,,,,,,,,,,,,,,,,,,,,,,,,,,,,,,,,,,,,,,,,,,,,,,,,,
844457,001,2022-11-20_17h59.16.882,Info_measure_main_exp,2022.2.2,Win32,59.9268892,,,,,,,,,,,,,,,,,,masks/mask_003.jpg,0,4,4,2,1,,,,,,,,,,,,,,,,,,,,,,,,,,,,,,,,,,,,,,,,,,,,,,,,,,,,,,,,,,,,,,,,,,,,,,,,,,,,,,,,,,,,,,,,
844457,001,2022-11-20_17h59.16.882,Info_measure_main_exp,2022.2.2,Win32,59.9268892,,,,,,,,,,,,,,,,,,,,,,,,0.127604167,-0.044270833,1,0,0,response3disk,5,156.4644,1,-0.005208333,0.010416667,1,0,0,center_square,0,0,0,0,1,0,131,5,5,2370,2406,prac_patch/patch0002370.jpg,prac_patch/patch0002406.jpg,,,,,,,,,,,,,,,,,,,,,,,,,,,,,,,,,,,,,,,,,,,,,,,,,,,,,,,,,,,,
844457,001,2022-11-20_17h59.16.882,Info_measure_main_exp,2022.2.2,Win32,59.9268892,,,,,,,,,,,,,0,0,0,4,1,masks/mask_005.jpg,,,,,,,,,,,,,,,,,,,,,,,,,,,,,,,,,,,,,,,,,,,,,,,,,,,,,,,,,,,,,,,,,,,,,,,,,,,,,,,,,,,,,,,,,,,,,
844457,001,2022-11-20_17h59.16.882,Info_measure_main_exp,2022.2.2,Win32,59.9268892,,,,,,,,,,,,,0,1,1,2,1,masks/mask_003.jpg,,,,,,,,,,,,,,,,,,,,,,,,,,,,,,,,,,,,,,,,,,,,,,,,,,,,,,,,,,,,,,,,,,,,,,,,,,,,,,,,,,,,,,,,,,,,,
844457,001,2022-11-20_17h59.16.882,Info_measure_main_exp,2022.2.2,Win32,59.9268892,,,,,,,,,,,,,0,2,2,1,1,masks/mask_002.jpg,,,,,,,,,,,,,,,,,,,,,,,,,,,,,,,,,,,,,,,,,,,,,,,,,,,,,,,,,,,,,,,,,,,,,,,,,,,,,,,,,,,,,,,,,,,,,
844457,001,2022-11-20_17h59.16.882,Info_measure_main_exp,2022.2.2,Win32,59.9268892,,,,,,,,,,,,,0,3,3,0,1,masks/mask_001.jpg,,,,,,,,,,,,,,,,,,,,,,,,,,,,,,,,,,,,,,,,,,,,,,,,,,,,,,,,,,,,,,,,,,,,,,,,,,,,,,,,,,,,,,,,,,,,,
844457,001,2022-11-20_17h59.16.882,Info_measure_main_exp,2022.2.2,Win32,59.9268892,,,,,,,,,,,,,0,4,4,3,1,masks/mask_004.jpg,,,,,,,,,,,,,,,,,,,,,,,,,,,,,,,,,,,,,,,,,,,,,,,,,,,,,,,,,,,,,,,,,,,,,,,,,,,,,,,,,,,,,,,,,,,,,
844457,001,2022-11-20_17h59.16.882,Info_measure_main_exp,2022.2.2,Win32,59.9268892,,,,,,,,,,,,,,,,,,masks/mask_005.jpg,0,0,0,4,1,,,,,,,,,,,,,,,,,,,,,,,,,,,,,,,,,,,,,,,,,,,,,,,,,,,,,,,,,,,,,,,,,,,,,,,,,,,,,,,,,,,,,,,,
844457,001,2022-11-20_17h59.16.882,Info_measure_main_exp,2022.2.2,Win32,59.9268892,,,,,,,,,,,,,,,,,,masks/mask_003.jpg,0,1,1,2,1,,,,,,,,,,,,,,,,,,,,,,,,,,,,,,,,,,,,,,,,,,,,,,,,,,,,,,,,,,,,,,,,,,,,,,,,,,,,,,,,,,,,,,,,
844457,001,2022-11-20_17h59.16.882,Info_measure_main_exp,2022.2.2,Win32,59.9268892,,,,,,,,,,,,,,,,,,masks/mask_002.jpg,0,2,2,1,1,,,,,,,,,,,,,,,,,,,,,,,,,,,,,,,,,,,,,,,,,,,,,,,,,,,,,,,,,,,,,,,,,,,,,,,,,,,,,,,,,,,,,,,,
844457,001,2022-11-20_17h59.16.882,Info_measure_main_exp,2022.2.2,Win32,59.9268892,,,,,,,,,,,,,,,,,,masks/mask_001.jpg,0,3,3,0,1,,,,,,,,,,,,,,,,,,,,,,,,,,,,,,,,,,,,,,,,,,,,,,,,,,,,,,,,,,,,,,,,,,,,,,,,,,,,,,,,,,,,,,,,
844457,001,2022-11-20_17h59.16.882,Info_measure_main_exp,2022.2.2,Win32,59.9268892,,,,,,,,,,,,,,,,,,masks/mask_004.jpg,0,4,4,3,1,,,,,,,,,,,,,,,,,,,,,,,,,,,,,,,,,,,,,,,,,,,,,,,,,,,,,,,,,,,,,,,,,,,,,,,,,,,,,,,,,,,,,,,,
844457,001,2022-11-20_17h59.16.882,Info_measure_main_exp,2022.2.2,Win32,59.9268892,,,,,,,,,,,,,,,,,,,,,,,,-0.0546875,0.122395833,1,0,0,response7disk,0,167.6656,1,-0.002604167,0.01171875,1,0,0,center_square,0,1,1,2,1,0,131,5,5,2526,2526,prac_patch/patch0002526.jpg,prac_patch/patch0002526.jpg,,,,,,,,,,,,,,,,,,,,,,,,,,,,,,,,,,,,,,,,,,,,,,,,,,,,,,,,,,,,
844457,001,2022-11-20_17h59.16.882,Info_measure_main_exp,2022.2.2,Win32,59.9268892,,,,,,,,,,,,,0,0,0,0,1,masks/mask_001.jpg,,,,,,,,,,,,,,,,,,,,,,,,,,,,,,,,,,,,,,,,,,,,,,,,,,,,,,,,,,,,,,,,,,,,,,,,,,,,,,,,,,,,,,,,,,,,,
844457,001,2022-11-20_17h59.16.882,Info_measure_main_exp,2022.2.2,Win32,59.9268892,,,,,,,,,,,,,0,1,1,1,1,masks/mask_002.jpg,,,,,,,,,,,,,,,,,,,,,,,,,,,,,,,,,,,,,,,,,,,,,,,,,,,,,,,,,,,,,,,,,,,,,,,,,,,,,,,,,,,,,,,,,,,,,
844457,001,2022-11-20_17h59.16.882,Info_measure_main_exp,2022.2.2,Win32,59.9268892,,,,,,,,,,,,,0,2,2,3,1,masks/mask_004.jpg,,,,,,,,,,,,,,,,,,,,,,,,,,,,,,,,,,,,,,,,,,,,,,,,,,,,,,,,,,,,,,,,,,,,,,,,,,,,,,,,,,,,,,,,,,,,,
844457,001,2022-11-20_17h59.16.882,Info_measure_main_exp,2022.2.2,Win32,59.9268892,,,,,,,,,,,,,0,3,3,4,1,masks/mask_005.jpg,,,,,,,,,,,,,,,,,,,,,,,,,,,,,,,,,,,,,,,,,,,,,,,,,,,,,,,,,,,,,,,,,,,,,,,,,,,,,,,,,,,,,,,,,,,,,
844457,001,2022-11-20_17h59.16.882,Info_measure_main_exp,2022.2.2,Win32,59.9268892,,,,,,,,,,,,,0,4,4,2,1,masks/mask_003.jpg,,,,,,,,,,,,,,,,,,,,,,,,,,,,,,,,,,,,,,,,,,,,,,,,,,,,,,,,,,,,,,,,,,,,,,,,,,,,,,,,,,,,,,,,,,,,,
844457,001,2022-11-20_17h59.16.882,Info_measure_main_exp,2022.2.2,Win32,59.9268892,,,,,,,,,,,,,,,,,,masks/mask_004.jpg,0,0,0,3,1,,,,,,,,,,,,,,,,,,,,,,,,,,,,,,,,,,,,,,,,,,,,,,,,,,,,,,,,,,,,,,,,,,,,,,,,,,,,,,,,,,,,,,,,
844457,001,2022-11-20_17h59.16.882,Info_measure_main_exp,2022.2.2,Win32,59.9268892,,,,,,,,,,,,,,,,,,masks/mask_005.jpg,0,1,1,4,1,,,,,,,,,,,,,,,,,,,,,,,,,,,,,,,,,,,,,,,,,,,,,,,,,,,,,,,,,,,,,,,,,,,,,,,,,,,,,,,,,,,,,,,,
844457,001,2022-11-20_17h59.16.882,Info_measure_main_exp,2022.2.2,Win32,59.9268892,,,,,,,,,,,,,,,,,,masks/mask_002.jpg,0,2,2,1,1,,,,,,,,,,,,,,,,,,,,,,,,,,,,,,,,,,,,,,,,,,,,,,,,,,,,,,,,,,,,,,,,,,,,,,,,,,,,,,,,,,,,,,,,
844457,001,2022-11-20_17h59.16.882,Info_measure_main_exp,2022.2.2,Win32,59.9268892,,,,,,,,,,,,,,,,,,masks/mask_003.jpg,0,3,3,2,1,,,,,,,,,,,,,,,,,,,,,,,,,,,,,,,,,,,,,,,,,,,,,,,,,,,,,,,,,,,,,,,,,,,,,,,,,,,,,,,,,,,,,,,,
844457,001,2022-11-20_17h59.16.882,Info_measure_main_exp,2022.2.2,Win32,59.9268892,,,,,,,,,,,,,,,,,,masks/mask_001.jpg,0,4,4,0,1,,,,,,,,,,,,,,,,,,,,,,,,,,,,,,,,,,,,,,,,,,,,,,,,,,,,,,,,,,,,,,,,,,,,,,,,,,,,,,,,,,,,,,,,
844457,001,2022-11-20_17h59.16.882,Info_measure_main_exp,2022.2.2,Win32,59.9268892,,,,,,,,,,,,,,,,,,,,,,,,0.053385417,-0.10546875,1,0,0,response3disk,4,178.7324,1,-0.005208333,0.010416667,1,0,0,center_square,0,2,2,1,1,0,131,5,5,2514,2490,prac_patch/patch0002514.jpg,prac_patch/patch0002490.jpg,,,,,,,,,,,,,,,,,,,,,,,,,,,,,,,,,,,,,,,,,,,,,,,,,,,,,,,,,,,,
844457,001,2022-11-20_17h59.16.882,Info_measure_main_exp,2022.2.2,Win32,59.9268892,,,,,,,,,,,,,,,,,,,,,,,,,,,,,,,,,,,,,,,,,,,,,,,,,,,,,,,,,,,space,4.9686,,,,,,,,,,,,,,,,,,,,,,,,,,,,,,,,,,,,,,,,,,,,,,,,,,,
844457,001,2022-11-20_17h59.16.882,Info_measure_main_exp,2022.2.2,Win32,59.9268892,,,,,,,,,,,,,,,,,,masks/mask_004.jpg,,,,,,,,,,,,,,,,,,,,,,,,,,,,,,,,,,,,,,,,,,,0,0,0,3,1,,,,,,,,,,,,,,,,,,,,,,,,,,,,,,,,,,,,,,,,,,,,,,
844457,001,2022-11-20_17h59.16.882,Info_measure_main_exp,2022.2.2,Win32,59.9268892,,,,,,,,,,,,,,,,,,masks/mask_005.jpg,,,,,,,,,,,,,,,,,,,,,,,,,,,,,,,,,,,,,,,,,,,0,1,1,4,1,,,,,,,,,,,,,,,,,,,,,,,,,,,,,,,,,,,,,,,,,,,,,,
844457,001,2022-11-20_17h59.16.882,Info_measure_main_exp,2022.2.2,Win32,59.9268892,,,,,,,,,,,,,,,,,,masks/mask_002.jpg,,,,,,,,,,,,,,,,,,,,,,,,,,,,,,,,,,,,,,,,,,,0,2,2,1,1,,,,,,,,,,,,,,,,,,,,,,,,,,,,,,,,,,,,,,,,,,,,,,
844457,001,2022-11-20_17h59.16.882,Info_measure_main_exp,2022.2.2,Win32,59.9268892,,,,,,,,,,,,,,,,,,masks/mask_003.jpg,,,,,,,,,,,,,,,,,,,,,,,,,,,,,,,,,,,,,,,,,,,0,3,3,2,1,,,,,,,,,,,,,,,,,,,,,,,,,,,,,,,,,,,,,,,,,,,,,,
844457,001,2022-11-20_17h59.16.882,Info_measure_main_exp,2022.2.2,Win32,59.9268892,,,,,,,,,,,,,,,,,,masks/mask_001.jpg,,,,,,,,,,,,,,,,,,,,,,,,,,,,,,,,,,,,,,,,,,,0,4,4,0,1,,,,,,,,,,,,,,,,,,,,,,,,,,,,,,,,,,,,,,,,,,,,,,
844457,001,2022-11-20_17h59.16.882,Info_measure_main_exp,2022.2.2,Win32,59.9268892,,,,,,,,,,,,,,,,,,masks/mask_004.jpg,,,,,,,,,,,,,,,,,,,,,,,,,,,,,,,,,,,,,,,,,,,,,,,,0,0,0,3,1,,,,,,,,,,,,,,,,,,,,,,,,,,,,,,,,,,,,,,,,,
844457,001,2022-11-20_17h59.16.882,Info_measure_main_exp,2022.2.2,Win32,59.9268892,,,,,,,,,,,,,,,,,,masks/mask_001.jpg,,,,,,,,,,,,,,,,,,,,,,,,,,,,,,,,,,,,,,,,,,,,,,,,0,1,1,0,1,,,,,,,,,,,,,,,,,,,,,,,,,,,,,,,,,,,,,,,,,
844457,001,2022-11-20_17h59.16.882,Info_measure_main_exp,2022.2.2,Win32,59.9268892,,,,,,,,,,,,,,,,,,masks/mask_003.jpg,,,,,,,,,,,,,,,,,,,,,,,,,,,,,,,,,,,,,,,,,,,,,,,,0,2,2,2,1,,,,,,,,,,,,,,,,,,,,,,,,,,,,,,,,,,,,,,,,,
844457,001,2022-11-20_17h59.16.882,Info_measure_main_exp,2022.2.2,Win32,59.9268892,,,,,,,,,,,,,,,,,,masks/mask_005.jpg,,,,,,,,,,,,,,,,,,,,,,,,,,,,,,,,,,,,,,,,,,,,,,,,0,3,3,4,1,,,,,,,,,,,,,,,,,,,,,,,,,,,,,,,,,,,,,,,,,
844457,001,2022-11-20_17h59.16.882,Info_measure_main_exp,2022.2.2,Win32,59.9268892,,,,,,,,,,,,,,,,,,masks/mask_002.jpg,,,,,,,,,,,,,,,,,,,,,,,,,,,,,,,,,,,,,,,,,,,,,,,,0,4,4,1,1,,,,,,,,,,,,,,,,,,,,,,,,,,,,,,,,,,,,,,,,,
844457,001,2022-11-20_17h59.16.882,Info_measure_main_exp,2022.2.2,Win32,59.9268892,,,,,,,,,,,,,,,,,,,,,,,,,,,,,,7,1.1453,1,,,,,,,,,,,,0,131,5,5,2154,2190,absent_patch/patch0002154.jpg,absent_patch/patch0002190.jpg,,,,,,,,,,,,,,,,,,,,0.044270833,0.147135417,1,0,0,response1disk,1,0.002604167,0.00390625,1,0,0,center_square,0,0,0,68,1,,,,,,,,,,,,,,,,,,,,,,,
844457,001,2022-11-20_17h59.16.882,Info_measure_main_exp,2022.2.2,Win32,59.9268892,,,,,,,,,,,,,,,,,,masks/mask_001.jpg,,,,,,,,,,,,,,,,,,,,,,,,,,,,,,,,,,,,,,,,,,,0,0,0,0,1,,,,,,,,,,,,,,,,,,,,,,,,,,,,,,,,,,,,,,,,,,,,,,
844457,001,2022-11-20_17h59.16.882,Info_measure_main_exp,2022.2.2,Win32,59.9268892,,,,,,,,,,,,,,,,,,masks/mask_004.jpg,,,,,,,,,,,,,,,,,,,,,,,,,,,,,,,,,,,,,,,,,,,0,1,1,3,1,,,,,,,,,,,,,,,,,,,,,,,,,,,,,,,,,,,,,,,,,,,,,,
844457,001,2022-11-20_17h59.16.882,Info_measure_main_exp,2022.2.2,Win32,59.9268892,,,,,,,,,,,,,,,,,,masks/mask_003.jpg,,,,,,,,,,,,,,,,,,,,,,,,,,,,,,,,,,,,,,,,,,,0,2,2,2,1,,,,,,,,,,,,,,,,,,,,,,,,,,,,,,,,,,,,,,,,,,,,,,
844457,001,2022-11-20_17h59.16.882,Info_measure_main_exp,2022.2.2,Win32,59.9268892,,,,,,,,,,,,,,,,,,masks/mask_002.jpg,,,,,,,,,,,,,,,,,,,,,,,,,,,,,,,,,,,,,,,,,,,0,3,3,1,1,,,,,,,,,,,,,,,,,,,,,,,,,,,,,,,,,,,,,,,,,,,,,,
844457,001,2022-11-20_17h59.16.882,Info_measure_main_exp,2022.2.2,Win32,59.9268892,,,,,,,,,,,,,,,,,,masks/mask_005.jpg,,,,,,,,,,,,,,,,,,,,,,,,,,,,,,,,,,,,,,,,,,,0,4,4,4,1,,,,,,,,,,,,,,,,,,,,,,,,,,,,,,,,,,,,,,,,,,,,,,
844457,001,2022-11-20_17h59.16.882,Info_measure_main_exp,2022.2.2,Win32,59.9268892,,,,,,,,,,,,,,,,,,masks/mask_003.jpg,,,,,,,,,,,,,,,,,,,,,,,,,,,,,,,,,,,,,,,,,,,,,,,,0,0,0,2,1,,,,,,,,,,,,,,,,,,,,,,,,,,,,,,,,,,,,,,,,,
844457,001,2022-11-20_17h59.16.882,Info_measure_main_exp,2022.2.2,Win32,59.9268892,,,,,,,,,,,,,,,,,,masks/mask_001.jpg,,,,,,,,,,,,,,,,,,,,,,,,,,,,,,,,,,,,,,,,,,,,,,,,0,1,1,0,1,,,,,,,,,,,,,,,,,,,,,,,,,,,,,,,,,,,,,,,,,
844457,001,2022-11-20_17h59.16.882,Info_measure_main_exp,2022.2.2,Win32,59.9268892,,,,,,,,,,,,,,,,,,masks/mask_004.jpg,,,,,,,,,,,,,,,,,,,,,,,,,,,,,,,,,,,,,,,,,,,,,,,,0,2,2,3,1,,,,,,,,,,,,,,,,,,,,,,,,,,,,,,,,,,,,,,,,,
844457,001,2022-11-20_17h59.16.882,Info_measure_main_exp,2022.2.2,Win32,59.9268892,,,,,,,,,,,,,,,,,,masks/mask_002.jpg,,,,,,,,,,,,,,,,,,,,,,,,,,,,,,,,,,,,,,,,,,,,,,,,0,3,3,1,1,,,,,,,,,,,,,,,,,,,,,,,,,,,,,,,,,,,,,,,,,
844457,001,2022-11-20_17h59.16.882,Info_measure_main_exp,2022.2.2,Win32,59.9268892,,,,,,,,,,,,,,,,,,masks/mask_005.jpg,,,,,,,,,,,,,,,,,,,,,,,,,,,,,,,,,,,,,,,,,,,,,,,,0,4,4,4,1,,,,,,,,,,,,,,,,,,,,,,,,,,,,,,,,,,,,,,,,,
844457,001,2022-11-20_17h59.16.882,Info_measure_main_exp,2022.2.2,Win32,59.9268892,,,,,,,,,,,,,,,,,,,,,,,,,,,,,,7,2.3124,1,,,,,,,,,,,,0,131,5,5,2214,2166,absent_patch/patch0002214.jpg,absent_patch/patch0002166.jpg,,,,,,,,,,,,,,,,,,,,0.057291667,0.075520833,1,0,0,response1disk,2,0,0.001302083,1,0,0,center_square,0,1,1,109,1,,,,,,,,,,,,,,,,,,,,,,,
844457,001,2022-11-20_17h59.16.882,Info_measure_main_exp,2022.2.2,Win32,59.9268892,,,,,,,,,,,,,,,,,,masks/mask_004.jpg,,,,,,,,,,,,,,,,,,,,,,,,,,,,,,,,,,,,,,,,,,,0,0,0,3,1,,,,,,,,,,,,,,,,,,,,,,,,,,,,,,,,,,,,,,,,,,,,,,
844457,001,2022-11-20_17h59.16.882,Info_measure_main_exp,2022.2.2,Win32,59.9268892,,,,,,,,,,,,,,,,,,masks/mask_001.jpg,,,,,,,,,,,,,,,,,,,,,,,,,,,,,,,,,,,,,,,,,,,0,1,1,0,1,,,,,,,,,,,,,,,,,,,,,,,,,,,,,,,,,,,,,,,,,,,,,,
844457,001,2022-11-20_17h59.16.882,Info_measure_main_exp,2022.2.2,Win32,59.9268892,,,,,,,,,,,,,,,,,,masks/mask_005.jpg,,,,,,,,,,,,,,,,,,,,,,,,,,,,,,,,,,,,,,,,,,,0,2,2,4,1,,,,,,,,,,,,,,,,,,,,,,,,,,,,,,,,,,,,,,,,,,,,,,
844457,001,2022-11-20_17h59.16.882,Info_measure_main_exp,2022.2.2,Win32,59.9268892,,,,,,,,,,,,,,,,,,masks/mask_003.jpg,,,,,,,,,,,,,,,,,,,,,,,,,,,,,,,,,,,,,,,,,,,0,3,3,2,1,,,,,,,,,,,,,,,,,,,,,,,,,,,,,,,,,,,,,,,,,,,,,,
844457,001,2022-11-20_17h59.16.882,Info_measure_main_exp,2022.2.2,Win32,59.9268892,,,,,,,,,,,,,,,,,,masks/mask_002.jpg,,,,,,,,,,,,,,,,,,,,,,,,,,,,,,,,,,,,,,,,,,,0,4,4,1,1,,,,,,,,,,,,,,,,,,,,,,,,,,,,,,,,,,,,,,,,,,,,,,
844457,001,2022-11-20_17h59.16.882,Info_measure_main_exp,2022.2.2,Win32,59.9268892,,,,,,,,,,,,,,,,,,masks/mask_001.jpg,,,,,,,,,,,,,,,,,,,,,,,,,,,,,,,,,,,,,,,,,,,,,,,,0,0,0,0,1,,,,,,,,,,,,,,,,,,,,,,,,,,,,,,,,,,,,,,,,,
844457,001,2022-11-20_17h59.16.882,Info_measure_main_exp,2022.2.2,Win32,59.9268892,,,,,,,,,,,,,,,,,,masks/mask_003.jpg,,,,,,,,,,,,,,,,,,,,,,,,,,,,,,,,,,,,,,,,,,,,,,,,0,1,1,2,1,,,,,,,,,,,,,,,,,,,,,,,,,,,,,,,,,,,,,,,,,
844457,001,2022-11-20_17h59.16.882,Info_measure_main_exp,2022.2.2,Win32,59.9268892,,,,,,,,,,,,,,,,,,masks/mask_005.jpg,,,,,,,,,,,,,,,,,,,,,,,,,,,,,,,,,,,,,,,,,,,,,,,,0,2,2,4,1,,,,,,,,,,,,,,,,,,,,,,,,,,,,,,,,,,,,,,,,,
844457,001,2022-11-20_17h59.16.882,Info_measure_main_exp,2022.2.2,Win32,59.9268892,,,,,,,,,,,,,,,,,,masks/mask_002.jpg,,,,,,,,,,,,,,,,,,,,,,,,,,,,,,,,,,,,,,,,,,,,,,,,0,3,3,1,1,,,,,,,,,,,,,,,,,,,,,,,,,,,,,,,,,,,,,,,,,
844457,001,2022-11-20_17h59.16.882,Info_measure_main_exp,2022.2.2,Win32,59.9268892,,,,,,,,,,,,,,,,,,masks/mask_004.jpg,,,,,,,,,,,,,,,,,,,,,,,,,,,,,,,,,,,,,,,,,,,,,,,,0,4,4,3,1,,,,,,,,,,,,,,,,,,,,,,,,,,,,,,,,,,,,,,,,,
844457,001,2022-11-20_17h59.16.882,Info_measure_main_exp,2022.2.2,Win32,59.9268892,,,,,,,,,,,,,,,,,,,,,,,,,,,,,,6,1.9858,1,,,,,,,,,,,,0,131,5,5,1950,2178,absent_patch/patch0001950.jpg,absent_patch/patch0002178.jpg,,,,,,,,,,,,,,,,,,,,0.10546875,0.026041667,1,0,0,response1disk,3,-0.00390625,0.014322917,1,0,0,center_square,0,2,2,61,1,,,,,,,,,,,,,,,,,,,,,,,
844457,001,2022-11-20_17h59.16.882,Info_measure_main_exp,2022.2.2,Win32,59.9268892,,,,,,,,,,,,,,,,,,masks/mask_005.jpg,,,,,,,,,,,,,,,,,,,,,,,,,,,,,,,,,,,,,,,,,,,0,0,0,4,1,,,,,,,,,,,,,,,,,,,,,,,,,,,,,,,,,,,,,,,,,,,,,,
844457,001,2022-11-20_17h59.16.882,Info_measure_main_exp,2022.2.2,Win32,59.9268892,,,,,,,,,,,,,,,,,,masks/mask_003.jpg,,,,,,,,,,,,,,,,,,,,,,,,,,,,,,,,,,,,,,,,,,,0,1,1,2,1,,,,,,,,,,,,,,,,,,,,,,,,,,,,,,,,,,,,,,,,,,,,,,
844457,001,2022-11-20_17h59.16.882,Info_measure_main_exp,2022.2.2,Win32,59.9268892,,,,,,,,,,,,,,,,,,masks/mask_004.jpg,,,,,,,,,,,,,,,,,,,,,,,,,,,,,,,,,,,,,,,,,,,0,2,2,3,1,,,,,,,,,,,,,,,,,,,,,,,,,,,,,,,,,,,,,,,,,,,,,,
844457,001,2022-11-20_17h59.16.882,Info_measure_main_exp,2022.2.2,Win32,59.9268892,,,,,,,,,,,,,,,,,,masks/mask_002.jpg,,,,,,,,,,,,,,,,,,,,,,,,,,,,,,,,,,,,,,,,,,,0,3,3,1,1,,,,,,,,,,,,,,,,,,,,,,,,,,,,,,,,,,,,,,,,,,,,,,
844457,001,2022-11-20_17h59.16.882,Info_measure_main_exp,2022.2.2,Win32,59.9268892,,,,,,,,,,,,,,,,,,masks/mask_001.jpg,,,,,,,,,,,,,,,,,,,,,,,,,,,,,,,,,,,,,,,,,,,0,4,4,0,1,,,,,,,,,,,,,,,,,,,,,,,,,,,,,,,,,,,,,,,,,,,,,,
844457,001,2022-11-20_17h59.16.882,Info_measure_main_exp,2022.2.2,Win32,59.9268892,,,,,,,,,,,,,,,,,,masks/mask_003.jpg,,,,,,,,,,,,,,,,,,,,,,,,,,,,,,,,,,,,,,,,,,,,,,,,0,0,0,2,1,,,,,,,,,,,,,,,,,,,,,,,,,,,,,,,,,,,,,,,,,
844457,001,2022-11-20_17h59.16.882,Info_measure_main_exp,2022.2.2,Win32,59.9268892,,,,,,,,,,,,,,,,,,masks/mask_002.jpg,,,,,,,,,,,,,,,,,,,,,,,,,,,,,,,,,,,,,,,,,,,,,,,,0,1,1,1,1,,,,,,,,,,,,,,,,,,,,,,,,,,,,,,,,,,,,,,,,,
844457,001,2022-11-20_17h59.16.882,Info_measure_main_exp,2022.2.2,Win32,59.9268892,,,,,,,,,,,,,,,,,,masks/mask_004.jpg,,,,,,,,,,,,,,,,,,,,,,,,,,,,,,,,,,,,,,,,,,,,,,,,0,2,2,3,1,,,,,,,,,,,,,,,,,,,,,,,,,,,,,,,,,,,,,,,,,
844457,001,2022-11-20_17h59.16.882,Info_measure_main_exp,2022.2.2,Win32,59.9268892,,,,,,,,,,,,,,,,,,masks/mask_005.jpg,,,,,,,,,,,,,,,,,,,,,,,,,,,,,,,,,,,,,,,,,,,,,,,,0,3,3,4,1,,,,,,,,,,,,,,,,,,,,,,,,,,,,,,,,,,,,,,,,,
844457,001,2022-11-20_17h59.16.882,Info_measure_main_exp,2022.2.2,Win32,59.9268892,,,,,,,,,,,,,,,,,,masks/mask_001.jpg,,,,,,,,,,,,,,,,,,,,,,,,,,,,,,,,,,,,,,,,,,,,,,,,0,4,4,0,1,,,,,,,,,,,,,,,,,,,,,,,,,,,,,,,,,,,,,,,,,
844457,001,2022-11-20_17h59.16.882,Info_measure_main_exp,2022.2.2,Win32,59.9268892,,,,,,,,,,,,,,,,,,,,,,,,,,,,,,4,3.6358,1,,,,,,,,,,,,1,131,5,5,1,2274,present_patch/cong_131_5_a.jpg,absent_patch/patch0002274.jpg,,,,,,,,,,,,,,,,,,,,0.0078125,-0.130208333,1,0,0,response3disk,4,-0.005208333,0.0078125,1,0,0,center_square,0,3,3,105,1,,,,,,,,,,,,,,,,,,,,,,,
844457,001,2022-11-20_17h59.16.882,Info_measure_main_exp,2022.2.2,Win32,59.9268892,,,,,,,,,,,,,,,,,,masks/mask_003.jpg,,,,,,,,,,,,,,,,,,,,,,,,,,,,,,,,,,,,,,,,,,,0,0,0,2,1,,,,,,,,,,,,,,,,,,,,,,,,,,,,,,,,,,,,,,,,,,,,,,
844457,001,2022-11-20_17h59.16.882,Info_measure_main_exp,2022.2.2,Win32,59.9268892,,,,,,,,,,,,,,,,,,masks/mask_004.jpg,,,,,,,,,,,,,,,,,,,,,,,,,,,,,,,,,,,,,,,,,,,0,1,1,3,1,,,,,,,,,,,,,,,,,,,,,,,,,,,,,,,,,,,,,,,,,,,,,,
844457,001,2022-11-20_17h59.16.882,Info_measure_main_exp,2022.2.2,Win32,59.9268892,,,,,,,,,,,,,,,,,,masks/mask_001.jpg,,,,,,,,,,,,,,,,,,,,,,,,,,,,,,,,,,,,,,,,,,,0,2,2,0,1,,,,,,,,,,,,,,,,,,,,,,,,,,,,,,,,,,,,,,,,,,,,,,
844457,001,2022-11-20_17h59.16.882,Info_measure_main_exp,2022.2.2,Win32,59.9268892,,,,,,,,,,,,,,,,,,masks/mask_002.jpg,,,,,,,,,,,,,,,,,,,,,,,,,,,,,,,,,,,,,,,,,,,0,3,3,1,1,,,,,,,,,,,,,,,,,,,,,,,,,,,,,,,,,,,,,,,,,,,,,,
844457,001,2022-11-20_17h59.16.882,Info_measure_main_exp,2022.2.2,Win32,59.9268892,,,,,,,,,,,,,,,,,,masks/mask_005.jpg,,,,,,,,,,,,,,,,,,,,,,,,,,,,,,,,,,,,,,,,,,,0,4,4,4,1,,,,,,,,,,,,,,,,,,,,,,,,,,,,,,,,,,,,,,,,,,,,,,
844457,001,2022-11-20_17h59.16.882,Info_measure_main_exp,2022.2.2,Win32,59.9268892,,,,,,,,,,,,,,,,,,masks/mask_002.jpg,,,,,,,,,,,,,,,,,,,,,,,,,,,,,,,,,,,,,,,,,,,,,,,,0,0,0,1,1,,,,,,,,,,,,,,,,,,,,,,,,,,,,,,,,,,,,,,,,,
844457,001,2022-11-20_17h59.16.882,Info_measure_main_exp,2022.2.2,Win32,59.9268892,,,,,,,,,,,,,,,,,,masks/mask_005.jpg,,,,,,,,,,,,,,,,,,,,,,,,,,,,,,,,,,,,,,,,,,,,,,,,0,1,1,4,1,,,,,,,,,,,,,,,,,,,,,,,,,,,,,,,,,,,,,,,,,
844457,001,2022-11-20_17h59.16.882,Info_measure_main_exp,2022.2.2,Win32,59.9268892,,,,,,,,,,,,,,,,,,masks/mask_001.jpg,,,,,,,,,,,,,,,,,,,,,,,,,,,,,,,,,,,,,,,,,,,,,,,,0,2,2,0,1,,,,,,,,,,,,,,,,,,,,,,,,,,,,,,,,,,,,,,,,,
844457,001,2022-11-20_17h59.16.882,Info_measure_main_exp,2022.2.2,Win32,59.9268892,,,,,,,,,,,,,,,,,,masks/mask_003.jpg,,,,,,,,,,,,,,,,,,,,,,,,,,,,,,,,,,,,,,,,,,,,,,,,0,3,3,2,1,,,,,,,,,,,,,,,,,,,,,,,,,,,,,,,,,,,,,,,,,
844457,001,2022-11-20_17h59.16.882,Info_measure_main_exp,2022.2.2,Win32,59.9268892,,,,,,,,,,,,,,,,,,masks/mask_004.jpg,,,,,,,,,,,,,,,,,,,,,,,,,,,,,,,,,,,,,,,,,,,,,,,,0,4,4,3,1,,,,,,,,,,,,,,,,,,,,,,,,,,,,,,,,,,,,,,,,,
844457,001,2022-11-20_17h59.16.882,Info_measure_main_exp,2022.2.2,Win32,59.9268892,,,,,,,,,,,,,,,,,,,,,,,,,,,,,,5,2.0179,1,,,,,,,,,,,,0,131,5,5,2250,1950,absent_patch/patch0002250.jpg,absent_patch/patch0001950.jpg,,,,,,,,,,,,,,,,,,,,0.078125,-0.028645833,1,0,0,response3disk,5,0.00390625,-0.006510417,1,0,0,center_square,0,4,4,16,1,,,,,,,,,,,,,,,,,,,,,,,
844457,001,2022-11-20_17h59.16.882,Info_measure_main_exp,2022.2.2,Win32,59.9268892,,,,,,,,,,,,,,,,,,masks/mask_004.jpg,,,,,,,,,,,,,,,,,,,,,,,,,,,,,,,,,,,,,,,,,,,0,0,0,3,1,,,,,,,,,,,,,,,,,,,,,,,,,,,,,,,,,,,,,,,,,,,,,,
844457,001,2022-11-20_17h59.16.882,Info_measure_main_exp,2022.2.2,Win32,59.9268892,,,,,,,,,,,,,,,,,,masks/mask_002.jpg,,,,,,,,,,,,,,,,,,,,,,,,,,,,,,,,,,,,,,,,,,,0,1,1,1,1,,,,,,,,,,,,,,,,,,,,,,,,,,,,,,,,,,,,,,,,,,,,,,
844457,001,2022-11-20_17h59.16.882,Info_measure_main_exp,2022.2.2,Win32,59.9268892,,,,,,,,,,,,,,,,,,masks/mask_001.jpg,,,,,,,,,,,,,,,,,,,,,,,,,,,,,,,,,,,,,,,,,,,0,2,2,0,1,,,,,,,,,,,,,,,,,,,,,,,,,,,,,,,,,,,,,,,,,,,,,,
844457,001,2022-11-20_17h59.16.882,Info_measure_main_exp,2022.2.2,Win32,59.9268892,,,,,,,,,,,,,,,,,,masks/mask_005.jpg,,,,,,,,,,,,,,,,,,,,,,,,,,,,,,,,,,,,,,,,,,,0,3,3,4,1,,,,,,,,,,,,,,,,,,,,,,,,,,,,,,,,,,,,,,,,,,,,,,
844457,001,2022-11-20_17h59.16.882,Info_measure_main_exp,2022.2.2,Win32,59.9268892,,,,,,,,,,,,,,,,,,masks/mask_003.jpg,,,,,,,,,,,,,,,,,,,,,,,,,,,,,,,,,,,,,,,,,,,0,4,4,2,1,,,,,,,,,,,,,,,,,,,,,,,,,,,,,,,,,,,,,,,,,,,,,,
844457,001,2022-11-20_17h59.16.882,Info_measure_main_exp,2022.2.2,Win32,59.9268892,,,,,,,,,,,,,,,,,,masks/mask_001.jpg,,,,,,,,,,,,,,,,,,,,,,,,,,,,,,,,,,,,,,,,,,,,,,,,0,0,0,0,1,,,,,,,,,,,,,,,,,,,,,,,,,,,,,,,,,,,,,,,,,
844457,001,2022-11-20_17h59.16.882,Info_measure_main_exp,2022.2.2,Win32,59.9268892,,,,,,,,,,,,,,,,,,masks/mask_004.jpg,,,,,,,,,,,,,,,,,,,,,,,,,,,,,,,,,,,,,,,,,,,,,,,,0,1,1,3,1,,,,,,,,,,,,,,,,,,,,,,,,,,,,,,,,,,,,,,,,,
844457,001,2022-11-20_17h59.16.882,Info_measure_main_exp,2022.2.2,Win32,59.9268892,,,,,,,,,,,,,,,,,,masks/mask_003.jpg,,,,,,,,,,,,,,,,,,,,,,,,,,,,,,,,,,,,,,,,,,,,,,,,0,2,2,2,1,,,,,,,,,,,,,,,,,,,,,,,,,,,,,,,,,,,,,,,,,
844457,001,2022-11-20_17h59.16.882,Info_measure_main_exp,2022.2.2,Win32,59.9268892,,,,,,,,,,,,,,,,,,masks/mask_005.jpg,,,,,,,,,,,,,,,,,,,,,,,,,,,,,,,,,,,,,,,,,,,,,,,,0,3,3,4,1,,,,,,,,,,,,,,,,,,,,,,,,,,,,,,,,,,,,,,,,,
844457,001,2022-11-20_17h59.16.882,Info_measure_main_exp,2022.2.2,Win32,59.9268892,,,,,,,,,,,,,,,,,,masks/mask_002.jpg,,,,,,,,,,,,,,,,,,,,,,,,,,,,,,,,,,,,,,,,,,,,,,,,0,4,4,1,1,,,,,,,,,,,,,,,,,,,,,,,,,,,,,,,,,,,,,,,,,
844457,001,2022-11-20_17h59.16.882,Info_measure_main_exp,2022.2.2,Win32,59.9268892,,,,,,,,,,,,,,,,,,,,,,,,,,,,,,7,1.1683,1,,,,,,,,,,,,0,131,5,5,2298,1986,absent_patch/patch0002298.jpg,absent_patch/patch0001986.jpg,,,,,,,,,,,,,,,,,,,,0.053385417,0.1015625,1,0,0,response1disk,6,-0.001302083,-0.00390625,1,0,0,center_square,0,5,5,32,1,,,,,,,,,,,,,,,,,,,,,,,
844457,001,2022-11-20_17h59.16.882,Info_measure_main_exp,2022.2.2,Win32,59.9268892,,,,,,,,,,,,,,,,,,masks/mask_004.jpg,,,,,,,,,,,,,,,,,,,,,,,,,,,,,,,,,,,,,,,,,,,0,0,0,3,1,,,,,,,,,,,,,,,,,,,,,,,,,,,,,,,,,,,,,,,,,,,,,,
844457,001,2022-11-20_17h59.16.882,Info_measure_main_exp,2022.2.2,Win32,59.9268892,,,,,,,,,,,,,,,,,,masks/mask_005.jpg,,,,,,,,,,,,,,,,,,,,,,,,,,,,,,,,,,,,,,,,,,,0,1,1,4,1,,,,,,,,,,,,,,,,,,,,,,,,,,,,,,,,,,,,,,,,,,,,,,
844457,001,2022-11-20_17h59.16.882,Info_measure_main_exp,2022.2.2,Win32,59.9268892,,,,,,,,,,,,,,,,,,masks/mask_001.jpg,,,,,,,,,,,,,,,,,,,,,,,,,,,,,,,,,,,,,,,,,,,0,2,2,0,1,,,,,,,,,,,,,,,,,,,,,,,,,,,,,,,,,,,,,,,,,,,,,,
844457,001,2022-11-20_17h59.16.882,Info_measure_main_exp,2022.2.2,Win32,59.9268892,,,,,,,,,,,,,,,,,,masks/mask_002.jpg,,,,,,,,,,,,,,,,,,,,,,,,,,,,,,,,,,,,,,,,,,,0,3,3,1,1,,,,,,,,,,,,,,,,,,,,,,,,,,,,,,,,,,,,,,,,,,,,,,
844457,001,2022-11-20_17h59.16.882,Info_measure_main_exp,2022.2.2,Win32,59.9268892,,,,,,,,,,,,,,,,,,masks/mask_003.jpg,,,,,,,,,,,,,,,,,,,,,,,,,,,,,,,,,,,,,,,,,,,0,4,4,2,1,,,,,,,,,,,,,,,,,,,,,,,,,,,,,,,,,,,,,,,,,,,,,,
844457,001,2022-11-20_17h59.16.882,Info_measure_main_exp,2022.2.2,Win32,59.9268892,,,,,,,,,,,,,,,,,,masks/mask_005.jpg,,,,,,,,,,,,,,,,,,,,,,,,,,,,,,,,,,,,,,,,,,,,,,,,0,0,0,4,1,,,,,,,,,,,,,,,,,,,,,,,,,,,,,,,,,,,,,,,,,
844457,001,2022-11-20_17h59.16.882,Info_measure_main_exp,2022.2.2,Win32,59.9268892,,,,,,,,,,,,,,,,,,masks/mask_004.jpg,,,,,,,,,,,,,,,,,,,,,,,,,,,,,,,,,,,,,,,,,,,,,,,,0,1,1,3,1,,,,,,,,,,,,,,,,,,,,,,,,,,,,,,,,,,,,,,,,,
844457,001,2022-11-20_17h59.16.882,Info_measure_main_exp,2022.2.2,Win32,59.9268892,,,,,,,,,,,,,,,,,,masks/mask_001.jpg,,,,,,,,,,,,,,,,,,,,,,,,,,,,,,,,,,,,,,,,,,,,,,,,0,2,2,0,1,,,,,,,,,,,,,,,,,,,,,,,,,,,,,,,,,,,,,,,,,
844457,001,2022-11-20_17h59.16.882,Info_measure_main_exp,2022.2.2,Win32,59.9268892,,,,,,,,,,,,,,,,,,masks/mask_003.jpg,,,,,,,,,,,,,,,,,,,,,,,,,,,,,,,,,,,,,,,,,,,,,,,,0,3,3,2,1,,,,,,,,,,,,,,,,,,,,,,,,,,,,,,,,,,,,,,,,,
844457,001,2022-11-20_17h59.16.882,Info_measure_main_exp,2022.2.2,Win32,59.9268892,,,,,,,,,,,,,,,,,,masks/mask_002.jpg,,,,,,,,,,,,,,,,,,,,,,,,,,,,,,,,,,,,,,,,,,,,,,,,0,4,4,1,1,,,,,,,,,,,,,,,,,,,,,,,,,,,,,,,,,,,,,,,,,
844457,001,2022-11-20_17h59.16.882,Info_measure_main_exp,2022.2.2,Win32,59.9268892,,,,,,,,,,,,,,,,,,,,,,,,,,,,,,7,2.2674,1,,,,,,,,,,,,0,131,5,5,2190,2166,absent_patch/patch0002190.jpg,absent_patch/patch0002166.jpg,,,,,,,,,,,,,,,,,,,,0.032552083,0.0625,1,0,0,response1disk,7,-0.0078125,0.005208333,1,0,0,center_square,0,6,6,50,1,,,,,,,,,,,,,,,,,,,,,,,
844457,001,2022-11-20_17h59.16.882,Info_measure_main_exp,2022.2.2,Win32,59.9268892,,,,,,,,,,,,,,,,,,masks/mask_002.jpg,,,,,,,,,,,,,,,,,,,,,,,,,,,,,,,,,,,,,,,,,,,0,0,0,1,1,,,,,,,,,,,,,,,,,,,,,,,,,,,,,,,,,,,,,,,,,,,,,,
844457,001,2022-11-20_17h59.16.882,Info_measure_main_exp,2022.2.2,Win32,59.9268892,,,,,,,,,,,,,,,,,,masks/mask_001.jpg,,,,,,,,,,,,,,,,,,,,,,,,,,,,,,,,,,,,,,,,,,,0,1,1,0,1,,,,,,,,,,,,,,,,,,,,,,,,,,,,,,,,,,,,,,,,,,,,,,
844457,001,2022-11-20_17h59.16.882,Info_measure_main_exp,2022.2.2,Win32,59.9268892,,,,,,,,,,,,,,,,,,masks/mask_005.jpg,,,,,,,,,,,,,,,,,,,,,,,,,,,,,,,,,,,,,,,,,,,0,2,2,4,1,,,,,,,,,,,,,,,,,,,,,,,,,,,,,,,,,,,,,,,,,,,,,,
844457,001,2022-11-20_17h59.16.882,Info_measure_main_exp,2022.2.2,Win32,59.9268892,,,,,,,,,,,,,,,,,,masks/mask_004.jpg,,,,,,,,,,,,,,,,,,,,,,,,,,,,,,,,,,,,,,,,,,,0,3,3,3,1,,,,,,,,,,,,,,,,,,,,,,,,,,,,,,,,,,,,,,,,,,,,,,
844457,001,2022-11-20_17h59.16.882,Info_measure_main_exp,2022.2.2,Win32,59.9268892,,,,,,,,,,,,,,,,,,masks/mask_003.jpg,,,,,,,,,,,,,,,,,,,,,,,,,,,,,,,,,,,,,,,,,,,0,4,4,2,1,,,,,,,,,,,,,,,,,,,,,,,,,,,,,,,,,,,,,,,,,,,,,,
844457,001,2022-11-20_17h59.16.882,Info_measure_main_exp,2022.2.2,Win32,59.9268892,,,,,,,,,,,,,,,,,,masks/mask_004.jpg,,,,,,,,,,,,,,,,,,,,,,,,,,,,,,,,,,,,,,,,,,,,,,,,0,0,0,3,1,,,,,,,,,,,,,,,,,,,,,,,,,,,,,,,,,,,,,,,,,
844457,001,2022-11-20_17h59.16.882,Info_measure_main_exp,2022.2.2,Win32,59.9268892,,,,,,,,,,,,,,,,,,masks/mask_005.jpg,,,,,,,,,,,,,,,,,,,,,,,,,,,,,,,,,,,,,,,,,,,,,,,,0,1,1,4,1,,,,,,,,,,,,,,,,,,,,,,,,,,,,,,,,,,,,,,,,,
844457,001,2022-11-20_17h59.16.882,Info_measure_main_exp,2022.2.2,Win32,59.9268892,,,,,,,,,,,,,,,,,,masks/mask_001.jpg,,,,,,,,,,,,,,,,,,,,,,,,,,,,,,,,,,,,,,,,,,,,,,,,0,2,2,0,1,,,,,,,,,,,,,,,,,,,,,,,,,,,,,,,,,,,,,,,,,
844457,001,2022-11-20_17h59.16.882,Info_measure_main_exp,2022.2.2,Win32,59.9268892,,,,,,,,,,,,,,,,,,masks/mask_003.jpg,,,,,,,,,,,,,,,,,,,,,,,,,,,,,,,,,,,,,,,,,,,,,,,,0,3,3,2,1,,,,,,,,,,,,,,,,,,,,,,,,,,,,,,,,,,,,,,,,,
844457,001,2022-11-20_17h59.16.882,Info_measure_main_exp,2022.2.2,Win32,59.9268892,,,,,,,,,,,,,,,,,,masks/mask_002.jpg,,,,,,,,,,,,,,,,,,,,,,,,,,,,,,,,,,,,,,,,,,,,,,,,0,4,4,1,1,,,,,,,,,,,,,,,,,,,,,,,,,,,,,,,,,,,,,,,,,
844457,001,2022-11-20_17h59.16.882,Info_measure_main_exp,2022.2.2,Win32,59.9268892,,,,,,,,,,,,,,,,,,,,,,,,,,,,,,4,1.7009,1,,,,,,,,,,,,0,131,5,5,1950,2214,absent_patch/patch0001950.jpg,absent_patch/patch0002214.jpg,,,,,,,,,,,,,,,,,,,,0.013020833,-0.095052083,1,0,0,response3disk,8,-0.0078125,0.002604167,1,0,0,center_square,0,7,7,85,1,,,,,,,,,,,,,,,,,,,,,,,
844457,001,2022-11-20_17h59.16.882,Info_measure_main_exp,2022.2.2,Win32,59.9268892,,,,,,,,,,,,,,,,,,masks/mask_003.jpg,,,,,,,,,,,,,,,,,,,,,,,,,,,,,,,,,,,,,,,,,,,0,0,0,2,1,,,,,,,,,,,,,,,,,,,,,,,,,,,,,,,,,,,,,,,,,,,,,,
844457,001,2022-11-20_17h59.16.882,Info_measure_main_exp,2022.2.2,Win32,59.9268892,,,,,,,,,,,,,,,,,,masks/mask_001.jpg,,,,,,,,,,,,,,,,,,,,,,,,,,,,,,,,,,,,,,,,,,,0,1,1,0,1,,,,,,,,,,,,,,,,,,,,,,,,,,,,,,,,,,,,,,,,,,,,,,
844457,001,2022-11-20_17h59.16.882,Info_measure_main_exp,2022.2.2,Win32,59.9268892,,,,,,,,,,,,,,,,,,masks/mask_005.jpg,,,,,,,,,,,,,,,,,,,,,,,,,,,,,,,,,,,,,,,,,,,0,2,2,4,1,,,,,,,,,,,,,,,,,,,,,,,,,,,,,,,,,,,,,,,,,,,,,,
844457,001,2022-11-20_17h59.16.882,Info_measure_main_exp,2022.2.2,Win32,59.9268892,,,,,,,,,,,,,,,,,,masks/mask_002.jpg,,,,,,,,,,,,,,,,,,,,,,,,,,,,,,,,,,,,,,,,,,,0,3,3,1,1,,,,,,,,,,,,,,,,,,,,,,,,,,,,,,,,,,,,,,,,,,,,,,
844457,001,2022-11-20_17h59.16.882,Info_measure_main_exp,2022.2.2,Win32,59.9268892,,,,,,,,,,,,,,,,,,masks/mask_004.jpg,,,,,,,,,,,,,,,,,,,,,,,,,,,,,,,,,,,,,,,,,,,0,4,4,3,1,,,,,,,,,,,,,,,,,,,,,,,,,,,,,,,,,,,,,,,,,,,,,,
844457,001,2022-11-20_17h59.16.882,Info_measure_main_exp,2022.2.2,Win32,59.9268892,,,,,,,,,,,,,,,,,,masks/mask_005.jpg,,,,,,,,,,,,,,,,,,,,,,,,,,,,,,,,,,,,,,,,,,,,,,,,0,0,0,4,1,,,,,,,,,,,,,,,,,,,,,,,,,,,,,,,,,,,,,,,,,
844457,001,2022-11-20_17h59.16.882,Info_measure_main_exp,2022.2.2,Win32,59.9268892,,,,,,,,,,,,,,,,,,masks/mask_004.jpg,,,,,,,,,,,,,,,,,,,,,,,,,,,,,,,,,,,,,,,,,,,,,,,,0,1,1,3,1,,,,,,,,,,,,,,,,,,,,,,,,,,,,,,,,,,,,,,,,,
844457,001,2022-11-20_17h59.16.882,Info_measure_main_exp,2022.2.2,Win32,59.9268892,,,,,,,,,,,,,,,,,,masks/mask_001.jpg,,,,,,,,,,,,,,,,,,,,,,,,,,,,,,,,,,,,,,,,,,,,,,,,0,2,2,0,1,,,,,,,,,,,,,,,,,,,,,,,,,,,,,,,,,,,,,,,,,
844457,001,2022-11-20_17h59.16.882,Info_measure_main_exp,2022.2.2,Win32,59.9268892,,,,,,,,,,,,,,,,,,masks/mask_002.jpg,,,,,,,,,,,,,,,,,,,,,,,,,,,,,,,,,,,,,,,,,,,,,,,,0,3,3,1,1,,,,,,,,,,,,,,,,,,,,,,,,,,,,,,,,,,,,,,,,,
844457,001,2022-11-20_17h59.16.882,Info_measure_main_exp,2022.2.2,Win32,59.9268892,,,,,,,,,,,,,,,,,,masks/mask_003.jpg,,,,,,,,,,,,,,,,,,,,,,,,,,,,,,,,,,,,,,,,,,,,,,,,0,4,4,2,1,,,,,,,,,,,,,,,,,,,,,,,,,,,,,,,,,,,,,,,,,
844457,001,2022-11-20_17h59.16.882,Info_measure_main_exp,2022.2.2,Win32,59.9268892,,,,,,,,,,,,,,,,,,,,,,,,,,,,,,4,3.4342,1,,,,,,,,,,,,0,131,5,5,2274,2214,absent_patch/patch0002274.jpg,absent_patch/patch0002214.jpg,,,,,,,,,,,,,,,,,,,,0.028645833,-0.055989583,1,0,0,response3disk,9,0,0.006510417,1,0,0,center_square,0,8,8,11,1,,,,,,,,,,,,,,,,,,,,,,,
844457,001,2022-11-20_17h59.16.882,Info_measure_main_exp,2022.2.2,Win32,59.9268892,,,,,,,,,,,,,,,,,,masks/mask_005.jpg,,,,,,,,,,,,,,,,,,,,,,,,,,,,,,,,,,,,,,,,,,,0,0,0,4,1,,,,,,,,,,,,,,,,,,,,,,,,,,,,,,,,,,,,,,,,,,,,,,
844457,001,2022-11-20_17h59.16.882,Info_measure_main_exp,2022.2.2,Win32,59.9268892,,,,,,,,,,,,,,,,,,masks/mask_004.jpg,,,,,,,,,,,,,,,,,,,,,,,,,,,,,,,,,,,,,,,,,,,0,1,1,3,1,,,,,,,,,,,,,,,,,,,,,,,,,,,,,,,,,,,,,,,,,,,,,,
844457,001,2022-11-20_17h59.16.882,Info_measure_main_exp,2022.2.2,Win32,59.9268892,,,,,,,,,,,,,,,,,,masks/mask_001.jpg,,,,,,,,,,,,,,,,,,,,,,,,,,,,,,,,,,,,,,,,,,,0,2,2,0,1,,,,,,,,,,,,,,,,,,,,,,,,,,,,,,,,,,,,,,,,,,,,,,
844457,001,2022-11-20_17h59.16.882,Info_measure_main_exp,2022.2.2,Win32,59.9268892,,,,,,,,,,,,,,,,,,masks/mask_003.jpg,,,,,,,,,,,,,,,,,,,,,,,,,,,,,,,,,,,,,,,,,,,0,3,3,2,1,,,,,,,,,,,,,,,,,,,,,,,,,,,,,,,,,,,,,,,,,,,,,,
844457,001,2022-11-20_17h59.16.882,Info_measure_main_exp,2022.2.2,Win32,59.9268892,,,,,,,,,,,,,,,,,,masks/mask_002.jpg,,,,,,,,,,,,,,,,,,,,,,,,,,,,,,,,,,,,,,,,,,,0,4,4,1,1,,,,,,,,,,,,,,,,,,,,,,,,,,,,,,,,,,,,,,,,,,,,,,
844457,001,2022-11-20_17h59.16.882,Info_measure_main_exp,2022.2.2,Win32,59.9268892,,,,,,,,,,,,,,,,,,masks/mask_002.jpg,,,,,,,,,,,,,,,,,,,,,,,,,,,,,,,,,,,,,,,,,,,,,,,,0,0,0,1,1,,,,,,,,,,,,,,,,,,,,,,,,,,,,,,,,,,,,,,,,,
844457,001,2022-11-20_17h59.16.882,Info_measure_main_exp,2022.2.2,Win32,59.9268892,,,,,,,,,,,,,,,,,,masks/mask_001.jpg,,,,,,,,,,,,,,,,,,,,,,,,,,,,,,,,,,,,,,,,,,,,,,,,0,1,1,0,1,,,,,,,,,,,,,,,,,,,,,,,,,,,,,,,,,,,,,,,,,
844457,001,2022-11-20_17h59.16.882,Info_measure_main_exp,2022.2.2,Win32,59.9268892,,,,,,,,,,,,,,,,,,masks/mask_004.jpg,,,,,,,,,,,,,,,,,,,,,,,,,,,,,,,,,,,,,,,,,,,,,,,,0,2,2,3,1,,,,,,,,,,,,,,,,,,,,,,,,,,,,,,,,,,,,,,,,,
844457,001,2022-11-20_17h59.16.882,Info_measure_main_exp,2022.2.2,Win32,59.9268892,,,,,,,,,,,,,,,,,,masks/mask_003.jpg,,,,,,,,,,,,,,,,,,,,,,,,,,,,,,,,,,,,,,,,,,,,,,,,0,3,3,2,1,,,,,,,,,,,,,,,,,,,,,,,,,,,,,,,,,,,,,,,,,
844457,001,2022-11-20_17h59.16.882,Info_measure_main_exp,2022.2.2,Win32,59.9268892,,,,,,,,,,,,,,,,,,masks/mask_005.jpg,,,,,,,,,,,,,,,,,,,,,,,,,,,,,,,,,,,,,,,,,,,,,,,,0,4,4,4,1,,,,,,,,,,,,,,,,,,,,,,,,,,,,,,,,,,,,,,,,,
844457,001,2022-11-20_17h59.16.882,Info_measure_main_exp,2022.2.2,Win32,59.9268892,,,,,,,,,,,,,,,,,,,,,,,,,,,,,,2,1.7348,1,,,,,,,,,,,,0,131,5,5,2178,1986,absent_patch/patch0002178.jpg,absent_patch/patch0001986.jpg,,,,,,,,,,,,,,,,,,,,-0.115885417,-0.026041667,1,0,0,response5disk,10,-0.001302083,-0.006510417,1,0,0,center_square,0,9,9,46,1,,,,,,,,,,,,,,,,,,,,,,,
844457,001,2022-11-20_17h59.16.882,Info_measure_main_exp,2022.2.2,Win32,59.9268892,,,,,,,,,,,,,,,,,,masks/mask_001.jpg,,,,,,,,,,,,,,,,,,,,,,,,,,,,,,,,,,,,,,,,,,,0,0,0,0,1,,,,,,,,,,,,,,,,,,,,,,,,,,,,,,,,,,,,,,,,,,,,,,
844457,001,2022-11-20_17h59.16.882,Info_measure_main_exp,2022.2.2,Win32,59.9268892,,,,,,,,,,,,,,,,,,masks/mask_004.jpg,,,,,,,,,,,,,,,,,,,,,,,,,,,,,,,,,,,,,,,,,,,0,1,1,3,1,,,,,,,,,,,,,,,,,,,,,,,,,,,,,,,,,,,,,,,,,,,,,,
844457,001,2022-11-20_17h59.16.882,Info_measure_main_exp,2022.2.2,Win32,59.9268892,,,,,,,,,,,,,,,,,,masks/mask_005.jpg,,,,,,,,,,,,,,,,,,,,,,,,,,,,,,,,,,,,,,,,,,,0,2,2,4,1,,,,,,,,,,,,,,,,,,,,,,,,,,,,,,,,,,,,,,,,,,,,,,
844457,001,2022-11-20_17h59.16.882,Info_measure_main_exp,2022.2.2,Win32,59.9268892,,,,,,,,,,,,,,,,,,masks/mask_003.jpg,,,,,,,,,,,,,,,,,,,,,,,,,,,,,,,,,,,,,,,,,,,0,3,3,2,1,,,,,,,,,,,,,,,,,,,,,,,,,,,,,,,,,,,,,,,,,,,,,,
844457,001,2022-11-20_17h59.16.882,Info_measure_main_exp,2022.2.2,Win32,59.9268892,,,,,,,,,,,,,,,,,,masks/mask_002.jpg,,,,,,,,,,,,,,,,,,,,,,,,,,,,,,,,,,,,,,,,,,,0,4,4,1,1,,,,,,,,,,,,,,,,,,,,,,,,,,,,,,,,,,,,,,,,,,,,,,
844457,001,2022-11-20_17h59.16.882,Info_measure_main_exp,2022.2.2,Win32,59.9268892,,,,,,,,,,,,,,,,,,masks/mask_004.jpg,,,,,,,,,,,,,,,,,,,,,,,,,,,,,,,,,,,,,,,,,,,,,,,,0,0,0,3,1,,,,,,,,,,,,,,,,,,,,,,,,,,,,,,,,,,,,,,,,,
844457,001,2022-11-20_17h59.16.882,Info_measure_main_exp,2022.2.2,Win32,59.9268892,,,,,,,,,,,,,,,,,,masks/mask_001.jpg,,,,,,,,,,,,,,,,,,,,,,,,,,,,,,,,,,,,,,,,,,,,,,,,0,1,1,0,1,,,,,,,,,,,,,,,,,,,,,,,,,,,,,,,,,,,,,,,,,
844457,001,2022-11-20_17h59.16.882,Info_measure_main_exp,2022.2.2,Win32,59.9268892,,,,,,,,,,,,,,,,,,masks/mask_003.jpg,,,,,,,,,,,,,,,,,,,,,,,,,,,,,,,,,,,,,,,,,,,,,,,,0,2,2,2,1,,,,,,,,,,,,,,,,,,,,,,,,,,,,,,,,,,,,,,,,,
844457,001,2022-11-20_17h59.16.882,Info_measure_main_exp,2022.2.2,Win32,59.9268892,,,,,,,,,,,,,,,,,,masks/mask_002.jpg,,,,,,,,,,,,,,,,,,,,,,,,,,,,,,,,,,,,,,,,,,,,,,,,0,3,3,1,1,,,,,,,,,,,,,,,,,,,,,,,,,,,,,,,,,,,,,,,,,
844457,001,2022-11-20_17h59.16.882,Info_measure_main_exp,2022.2.2,Win32,59.9268892,,,,,,,,,,,,,,,,,,masks/mask_005.jpg,,,,,,,,,,,,,,,,,,,,,,,,,,,,,,,,,,,,,,,,,,,,,,,,0,4,4,4,1,,,,,,,,,,,,,,,,,,,,,,,,,,,,,,,,,,,,,,,,,
844457,001,2022-11-20_17h59.16.882,Info_measure_main_exp,2022.2.2,Win32,59.9268892,,,,,,,,,,,,,,,,,,,,,,,,,,,,,,5,1.0487,1,,,,,,,,,,,,0,131,5,5,2154,1950,absent_patch/patch0002154.jpg,absent_patch/patch0001950.jpg,,,,,,,,,,,,,,,,,,,,0.102864583,-0.03125,1,0,0,response3disk,11,-0.005208333,0.001302083,1,0,0,center_square,0,10,10,96,1,,,,,,,,,,,,,,,,,,,,,,,
844457,001,2022-11-20_17h59.16.882,Info_measure_main_exp,2022.2.2,Win32,59.9268892,,,,,,,,,,,,,,,,,,masks/mask_005.jpg,,,,,,,,,,,,,,,,,,,,,,,,,,,,,,,,,,,,,,,,,,,0,0,0,4,1,,,,,,,,,,,,,,,,,,,,,,,,,,,,,,,,,,,,,,,,,,,,,,
844457,001,2022-11-20_17h59.16.882,Info_measure_main_exp,2022.2.2,Win32,59.9268892,,,,,,,,,,,,,,,,,,masks/mask_003.jpg,,,,,,,,,,,,,,,,,,,,,,,,,,,,,,,,,,,,,,,,,,,0,1,1,2,1,,,,,,,,,,,,,,,,,,,,,,,,,,,,,,,,,,,,,,,,,,,,,,
844457,001,2022-11-20_17h59.16.882,Info_measure_main_exp,2022.2.2,Win32,59.9268892,,,,,,,,,,,,,,,,,,masks/mask_001.jpg,,,,,,,,,,,,,,,,,,,,,,,,,,,,,,,,,,,,,,,,,,,0,2,2,0,1,,,,,,,,,,,,,,,,,,,,,,,,,,,,,,,,,,,,,,,,,,,,,,
844457,001,2022-11-20_17h59.16.882,Info_measure_main_exp,2022.2.2,Win32,59.9268892,,,,,,,,,,,,,,,,,,masks/mask_002.jpg,,,,,,,,,,,,,,,,,,,,,,,,,,,,,,,,,,,,,,,,,,,0,3,3,1,1,,,,,,,,,,,,,,,,,,,,,,,,,,,,,,,,,,,,,,,,,,,,,,
844457,001,2022-11-20_17h59.16.882,Info_measure_main_exp,2022.2.2,Win32,59.9268892,,,,,,,,,,,,,,,,,,masks/mask_004.jpg,,,,,,,,,,,,,,,,,,,,,,,,,,,,,,,,,,,,,,,,,,,0,4,4,3,1,,,,,,,,,,,,,,,,,,,,,,,,,,,,,,,,,,,,,,,,,,,,,,
844457,001,2022-11-20_17h59.16.882,Info_measure_main_exp,2022.2.2,Win32,59.9268892,,,,,,,,,,,,,,,,,,masks/mask_002.jpg,,,,,,,,,,,,,,,,,,,,,,,,,,,,,,,,,,,,,,,,,,,,,,,,0,0,0,1,1,,,,,,,,,,,,,,,,,,,,,,,,,,,,,,,,,,,,,,,,,
844457,001,2022-11-20_17h59.16.882,Info_measure_main_exp,2022.2.2,Win32,59.9268892,,,,,,,,,,,,,,,,,,masks/mask_003.jpg,,,,,,,,,,,,,,,,,,,,,,,,,,,,,,,,,,,,,,,,,,,,,,,,0,1,1,2,1,,,,,,,,,,,,,,,,,,,,,,,,,,,,,,,,,,,,,,,,,
844457,001,2022-11-20_17h59.16.882,Info_measure_main_exp,2022.2.2,Win32,59.9268892,,,,,,,,,,,,,,,,,,masks/mask_005.jpg,,,,,,,,,,,,,,,,,,,,,,,,,,,,,,,,,,,,,,,,,,,,,,,,0,2,2,4,1,,,,,,,,,,,,,,,,,,,,,,,,,,,,,,,,,,,,,,,,,
844457,001,2022-11-20_17h59.16.882,Info_measure_main_exp,2022.2.2,Win32,59.9268892,,,,,,,,,,,,,,,,,,masks/mask_001.jpg,,,,,,,,,,,,,,,,,,,,,,,,,,,,,,,,,,,,,,,,,,,,,,,,0,3,3,0,1,,,,,,,,,,,,,,,,,,,,,,,,,,,,,,,,,,,,,,,,,
844457,001,2022-11-20_17h59.16.882,Info_measure_main_exp,2022.2.2,Win32,59.9268892,,,,,,,,,,,,,,,,,,masks/mask_004.jpg,,,,,,,,,,,,,,,,,,,,,,,,,,,,,,,,,,,,,,,,,,,,,,,,0,4,4,3,1,,,,,,,,,,,,,,,,,,,,,,,,,,,,,,,,,,,,,,,,,
844457,001,2022-11-20_17h59.16.882,Info_measure_main_exp,2022.2.2,Win32,59.9268892,,,,,,,,,,,,,,,,,,,,,,,,,,,,,,6,1.3693,1,,,,,,,,,,,,0,131,5,5,2154,1974,absent_patch/patch0002154.jpg,absent_patch/patch0001974.jpg,,,,,,,,,,,,,,,,,,,,0.088541667,0.036458333,1,0,0,response1disk,12,0.002604167,0.0078125,1,0,0,center_square,0,11,11,82,1,,,,,,,,,,,,,,,,,,,,,,,
844457,001,2022-11-20_17h59.16.882,Info_measure_main_exp,2022.2.2,Win32,59.9268892,,,,,,,,,,,,,,,,,,masks/mask_004.jpg,,,,,,,,,,,,,,,,,,,,,,,,,,,,,,,,,,,,,,,,,,,0,0,0,3,1,,,,,,,,,,,,,,,,,,,,,,,,,,,,,,,,,,,,,,,,,,,,,,
844457,001,2022-11-20_17h59.16.882,Info_measure_main_exp,2022.2.2,Win32,59.9268892,,,,,,,,,,,,,,,,,,masks/mask_003.jpg,,,,,,,,,,,,,,,,,,,,,,,,,,,,,,,,,,,,,,,,,,,0,1,1,2,1,,,,,,,,,,,,,,,,,,,,,,,,,,,,,,,,,,,,,,,,,,,,,,
844457,001,2022-11-20_17h59.16.882,Info_measure_main_exp,2022.2.2,Win32,59.9268892,,,,,,,,,,,,,,,,,,masks/mask_001.jpg,,,,,,,,,,,,,,,,,,,,,,,,,,,,,,,,,,,,,,,,,,,0,2,2,0,1,,,,,,,,,,,,,,,,,,,,,,,,,,,,,,,,,,,,,,,,,,,,,,
844457,001,2022-11-20_17h59.16.882,Info_measure_main_exp,2022.2.2,Win32,59.9268892,,,,,,,,,,,,,,,,,,masks/mask_005.jpg,,,,,,,,,,,,,,,,,,,,,,,,,,,,,,,,,,,,,,,,,,,0,3,3,4,1,,,,,,,,,,,,,,,,,,,,,,,,,,,,,,,,,,,,,,,,,,,,,,
844457,001,2022-11-20_17h59.16.882,Info_measure_main_exp,2022.2.2,Win32,59.9268892,,,,,,,,,,,,,,,,,,masks/mask_002.jpg,,,,,,,,,,,,,,,,,,,,,,,,,,,,,,,,,,,,,,,,,,,0,4,4,1,1,,,,,,,,,,,,,,,,,,,,,,,,,,,,,,,,,,,,,,,,,,,,,,
844457,001,2022-11-20_17h59.16.882,Info_measure_main_exp,2022.2.2,Win32,59.9268892,,,,,,,,,,,,,,,,,,masks/mask_003.jpg,,,,,,,,,,,,,,,,,,,,,,,,,,,,,,,,,,,,,,,,,,,,,,,,0,0,0,2,1,,,,,,,,,,,,,,,,,,,,,,,,,,,,,,,,,,,,,,,,,
844457,001,2022-11-20_17h59.16.882,Info_measure_main_exp,2022.2.2,Win32,59.9268892,,,,,,,,,,,,,,,,,,masks/mask_001.jpg,,,,,,,,,,,,,,,,,,,,,,,,,,,,,,,,,,,,,,,,,,,,,,,,0,1,1,0,1,,,,,,,,,,,,,,,,,,,,,,,,,,,,,,,,,,,,,,,,,
844457,001,2022-11-20_17h59.16.882,Info_measure_main_exp,2022.2.2,Win32,59.9268892,,,,,,,,,,,,,,,,,,masks/mask_004.jpg,,,,,,,,,,,,,,,,,,,,,,,,,,,,,,,,,,,,,,,,,,,,,,,,0,2,2,3,1,,,,,,,,,,,,,,,,,,,,,,,,,,,,,,,,,,,,,,,,,
844457,001,2022-11-20_17h59.16.882,Info_measure_main_exp,2022.2.2,Win32,59.9268892,,,,,,,,,,,,,,,,,,masks/mask_002.jpg,,,,,,,,,,,,,,,,,,,,,,,,,,,,,,,,,,,,,,,,,,,,,,,,0,3,3,1,1,,,,,,,,,,,,,,,,,,,,,,,,,,,,,,,,,,,,,,,,,
844457,001,2022-11-20_17h59.16.882,Info_measure_main_exp,2022.2.2,Win32,59.9268892,,,,,,,,,,,,,,,,,,masks/mask_005.jpg,,,,,,,,,,,,,,,,,,,,,,,,,,,,,,,,,,,,,,,,,,,,,,,,0,4,4,4,1,,,,,,,,,,,,,,,,,,,,,,,,,,,,,,,,,,,,,,,,,
844457,001,2022-11-20_17h59.16.882,Info_measure_main_exp,2022.2.2,Win32,59.9268892,,,,,,,,,,,,,,,,,,,,,,,,,,,,,,7,1.0667,1,,,,,,,,,,,,0,131,5,5,2298,2274,absent_patch/patch0002298.jpg,absent_patch/patch0002274.jpg,,,,,,,,,,,,,,,,,,,,0.013020833,0.040364583,1,0,0,response1disk,13,-0.0078125,0.002604167,1,0,0,center_square,0,12,12,1,1,,,,,,,,,,,,,,,,,,,,,,,
844457,001,2022-11-20_17h59.16.882,Info_measure_main_exp,2022.2.2,Win32,59.9268892,,,,,,,,,,,,,,,,,,masks/mask_004.jpg,,,,,,,,,,,,,,,,,,,,,,,,,,,,,,,,,,,,,,,,,,,0,0,0,3,1,,,,,,,,,,,,,,,,,,,,,,,,,,,,,,,,,,,,,,,,,,,,,,
844457,001,2022-11-20_17h59.16.882,Info_measure_main_exp,2022.2.2,Win32,59.9268892,,,,,,,,,,,,,,,,,,masks/mask_002.jpg,,,,,,,,,,,,,,,,,,,,,,,,,,,,,,,,,,,,,,,,,,,0,1,1,1,1,,,,,,,,,,,,,,,,,,,,,,,,,,,,,,,,,,,,,,,,,,,,,,
844457,001,2022-11-20_17h59.16.882,Info_measure_main_exp,2022.2.2,Win32,59.9268892,,,,,,,,,,,,,,,,,,masks/mask_005.jpg,,,,,,,,,,,,,,,,,,,,,,,,,,,,,,,,,,,,,,,,,,,0,2,2,4,1,,,,,,,,,,,,,,,,,,,,,,,,,,,,,,,,,,,,,,,,,,,,,,
844457,001,2022-11-20_17h59.16.882,Info_measure_main_exp,2022.2.2,Win32,59.9268892,,,,,,,,,,,,,,,,,,masks/mask_003.jpg,,,,,,,,,,,,,,,,,,,,,,,,,,,,,,,,,,,,,,,,,,,0,3,3,2,1,,,,,,,,,,,,,,,,,,,,,,,,,,,,,,,,,,,,,,,,,,,,,,
844457,001,2022-11-20_17h59.16.882,Info_measure_main_exp,2022.2.2,Win32,59.9268892,,,,,,,,,,,,,,,,,,masks/mask_001.jpg,,,,,,,,,,,,,,,,,,,,,,,,,,,,,,,,,,,,,,,,,,,0,4,4,0,1,,,,,,,,,,,,,,,,,,,,,,,,,,,,,,,,,,,,,,,,,,,,,,
844457,001,2022-11-20_17h59.16.882,Info_measure_main_exp,2022.2.2,Win32,59.9268892,,,,,,,,,,,,,,,,,,masks/mask_004.jpg,,,,,,,,,,,,,,,,,,,,,,,,,,,,,,,,,,,,,,,,,,,,,,,,0,0,0,3,1,,,,,,,,,,,,,,,,,,,,,,,,,,,,,,,,,,,,,,,,,
844457,001,2022-11-20_17h59.16.882,Info_measure_main_exp,2022.2.2,Win32,59.9268892,,,,,,,,,,,,,,,,,,masks/mask_003.jpg,,,,,,,,,,,,,,,,,,,,,,,,,,,,,,,,,,,,,,,,,,,,,,,,0,1,1,2,1,,,,,,,,,,,,,,,,,,,,,,,,,,,,,,,,,,,,,,,,,
844457,001,2022-11-20_17h59.16.882,Info_measure_main_exp,2022.2.2,Win32,59.9268892,,,,,,,,,,,,,,,,,,masks/mask_002.jpg,,,,,,,,,,,,,,,,,,,,,,,,,,,,,,,,,,,,,,,,,,,,,,,,0,2,2,1,1,,,,,,,,,,,,,,,,,,,,,,,,,,,,,,,,,,,,,,,,,
844457,001,2022-11-20_17h59.16.882,Info_measure_main_exp,2022.2.2,Win32,59.9268892,,,,,,,,,,,,,,,,,,masks/mask_005.jpg,,,,,,,,,,,,,,,,,,,,,,,,,,,,,,,,,,,,,,,,,,,,,,,,0,3,3,4,1,,,,,,,,,,,,,,,,,,,,,,,,,,,,,,,,,,,,,,,,,
844457,001,2022-11-20_17h59.16.882,Info_measure_main_exp,2022.2.2,Win32,59.9268892,,,,,,,,,,,,,,,,,,masks/mask_001.jpg,,,,,,,,,,,,,,,,,,,,,,,,,,,,,,,,,,,,,,,,,,,,,,,,0,4,4,0,1,,,,,,,,,,,,,,,,,,,,,,,,,,,,,,,,,,,,,,,,,
844457,001,2022-11-20_17h59.16.882,Info_measure_main_exp,2022.2.2,Win32,59.9268892,,,,,,,,,,,,,,,,,,,,,,,,,,,,,,0,0.9168,1,,,,,,,,,,,,0,131,5,5,2250,2250,absent_patch/patch0002250.jpg,absent_patch/patch0002250.jpg,,,,,,,,,,,,,,,,,,,,-0.046875,0.12109375,1,0,0,response7disk,14,0,0.009114583,1,0,0,center_square,0,13,13,56,1,,,,,,,,,,,,,,,,,,,,,,,
844457,001,2022-11-20_17h59.16.882,Info_measure_main_exp,2022.2.2,Win32,59.9268892,,,,,,,,,,,,,,,,,,masks/mask_004.jpg,,,,,,,,,,,,,,,,,,,,,,,,,,,,,,,,,,,,,,,,,,,0,0,0,3,1,,,,,,,,,,,,,,,,,,,,,,,,,,,,,,,,,,,,,,,,,,,,,,
844457,001,2022-11-20_17h59.16.882,Info_measure_main_exp,2022.2.2,Win32,59.9268892,,,,,,,,,,,,,,,,,,masks/mask_002.jpg,,,,,,,,,,,,,,,,,,,,,,,,,,,,,,,,,,,,,,,,,,,0,1,1,1,1,,,,,,,,,,,,,,,,,,,,,,,,,,,,,,,,,,,,,,,,,,,,,,
844457,001,2022-11-20_17h59.16.882,Info_measure_main_exp,2022.2.2,Win32,59.9268892,,,,,,,,,,,,,,,,,,masks/mask_005.jpg,,,,,,,,,,,,,,,,,,,,,,,,,,,,,,,,,,,,,,,,,,,0,2,2,4,1,,,,,,,,,,,,,,,,,,,,,,,,,,,,,,,,,,,,,,,,,,,,,,
844457,001,2022-11-20_17h59.16.882,Info_measure_main_exp,2022.2.2,Win32,59.9268892,,,,,,,,,,,,,,,,,,masks/mask_001.jpg,,,,,,,,,,,,,,,,,,,,,,,,,,,,,,,,,,,,,,,,,,,0,3,3,0,1,,,,,,,,,,,,,,,,,,,,,,,,,,,,,,,,,,,,,,,,,,,,,,
844457,001,2022-11-20_17h59.16.882,Info_measure_main_exp,2022.2.2,Win32,59.9268892,,,,,,,,,,,,,,,,,,masks/mask_003.jpg,,,,,,,,,,,,,,,,,,,,,,,,,,,,,,,,,,,,,,,,,,,0,4,4,2,1,,,,,,,,,,,,,,,,,,,,,,,,,,,,,,,,,,,,,,,,,,,,,,
844457,001,2022-11-20_17h59.16.882,Info_measure_main_exp,2022.2.2,Win32,59.9268892,,,,,,,,,,,,,,,,,,masks/mask_004.jpg,,,,,,,,,,,,,,,,,,,,,,,,,,,,,,,,,,,,,,,,,,,,,,,,0,0,0,3,1,,,,,,,,,,,,,,,,,,,,,,,,,,,,,,,,,,,,,,,,,
844457,001,2022-11-20_17h59.16.882,Info_measure_main_exp,2022.2.2,Win32,59.9268892,,,,,,,,,,,,,,,,,,masks/mask_001.jpg,,,,,,,,,,,,,,,,,,,,,,,,,,,,,,,,,,,,,,,,,,,,,,,,0,1,1,0,1,,,,,,,,,,,,,,,,,,,,,,,,,,,,,,,,,,,,,,,,,
844457,001,2022-11-20_17h59.16.882,Info_measure_main_exp,2022.2.2,Win32,59.9268892,,,,,,,,,,,,,,,,,,masks/mask_005.jpg,,,,,,,,,,,,,,,,,,,,,,,,,,,,,,,,,,,,,,,,,,,,,,,,0,2,2,4,1,,,,,,,,,,,,,,,,,,,,,,,,,,,,,,,,,,,,,,,,,
844457,001,2022-11-20_17h59.16.882,Info_measure_main_exp,2022.2.2,Win32,59.9268892,,,,,,,,,,,,,,,,,,masks/mask_003.jpg,,,,,,,,,,,,,,,,,,,,,,,,,,,,,,,,,,,,,,,,,,,,,,,,0,3,3,2,1,,,,,,,,,,,,,,,,,,,,,,,,,,,,,,,,,,,,,,,,,
844457,001,2022-11-20_17h59.16.882,Info_measure_main_exp,2022.2.2,Win32,59.9268892,,,,,,,,,,,,,,,,,,masks/mask_002.jpg,,,,,,,,,,,,,,,,,,,,,,,,,,,,,,,,,,,,,,,,,,,,,,,,0,4,4,1,1,,,,,,,,,,,,,,,,,,,,,,,,,,,,,,,,,,,,,,,,,
844457,001,2022-11-20_17h59.16.882,Info_measure_main_exp,2022.2.2,Win32,59.9268892,,,,,,,,,,,,,,,,,,,,,,,,,,,,,,4,1.4335,1,,,,,,,,,,,,1,131,5,5,2298,1,absent_patch/patch0002298.jpg,present_patch/cong_131_5_a.jpg,,,,,,,,,,,,,,,,,,,,0.013020833,-0.098958333,1,0,0,response3disk,15,-0.005208333,0.009114583,1,0,0,center_square,0,14,14,45,1,,,,,,,,,,,,,,,,,,,,,,,
844457,001,2022-11-20_17h59.16.882,Info_measure_main_exp,2022.2.2,Win32,59.9268892,,,,,,,,,,,,,,,,,,masks/mask_005.jpg,,,,,,,,,,,,,,,,,,,,,,,,,,,,,,,,,,,,,,,,,,,0,0,0,4,1,,,,,,,,,,,,,,,,,,,,,,,,,,,,,,,,,,,,,,,,,,,,,,
844457,001,2022-11-20_17h59.16.882,Info_measure_main_exp,2022.2.2,Win32,59.9268892,,,,,,,,,,,,,,,,,,masks/mask_002.jpg,,,,,,,,,,,,,,,,,,,,,,,,,,,,,,,,,,,,,,,,,,,0,1,1,1,1,,,,,,,,,,,,,,,,,,,,,,,,,,,,,,,,,,,,,,,,,,,,,,
844457,001,2022-11-20_17h59.16.882,Info_measure_main_exp,2022.2.2,Win32,59.9268892,,,,,,,,,,,,,,,,,,masks/mask_001.jpg,,,,,,,,,,,,,,,,,,,,,,,,,,,,,,,,,,,,,,,,,,,0,2,2,0,1,,,,,,,,,,,,,,,,,,,,,,,,,,,,,,,,,,,,,,,,,,,,,,
844457,001,2022-11-20_17h59.16.882,Info_measure_main_exp,2022.2.2,Win32,59.9268892,,,,,,,,,,,,,,,,,,masks/mask_004.jpg,,,,,,,,,,,,,,,,,,,,,,,,,,,,,,,,,,,,,,,,,,,0,3,3,3,1,,,,,,,,,,,,,,,,,,,,,,,,,,,,,,,,,,,,,,,,,,,,,,
844457,001,2022-11-20_17h59.16.882,Info_measure_main_exp,2022.2.2,Win32,59.9268892,,,,,,,,,,,,,,,,,,masks/mask_003.jpg,,,,,,,,,,,,,,,,,,,,,,,,,,,,,,,,,,,,,,,,,,,0,4,4,2,1,,,,,,,,,,,,,,,,,,,,,,,,,,,,,,,,,,,,,,,,,,,,,,
844457,001,2022-11-20_17h59.16.882,Info_measure_main_exp,2022.2.2,Win32,59.9268892,,,,,,,,,,,,,,,,,,masks/mask_005.jpg,,,,,,,,,,,,,,,,,,,,,,,,,,,,,,,,,,,,,,,,,,,,,,,,0,0,0,4,1,,,,,,,,,,,,,,,,,,,,,,,,,,,,,,,,,,,,,,,,,
844457,001,2022-11-20_17h59.16.882,Info_measure_main_exp,2022.2.2,Win32,59.9268892,,,,,,,,,,,,,,,,,,masks/mask_003.jpg,,,,,,,,,,,,,,,,,,,,,,,,,,,,,,,,,,,,,,,,,,,,,,,,0,1,1,2,1,,,,,,,,,,,,,,,,,,,,,,,,,,,,,,,,,,,,,,,,,
844457,001,2022-11-20_17h59.16.882,Info_measure_main_exp,2022.2.2,Win32,59.9268892,,,,,,,,,,,,,,,,,,masks/mask_004.jpg,,,,,,,,,,,,,,,,,,,,,,,,,,,,,,,,,,,,,,,,,,,,,,,,0,2,2,3,1,,,,,,,,,,,,,,,,,,,,,,,,,,,,,,,,,,,,,,,,,
844457,001,2022-11-20_17h59.16.882,Info_measure_main_exp,2022.2.2,Win32,59.9268892,,,,,,,,,,,,,,,,,,masks/mask_001.jpg,,,,,,,,,,,,,,,,,,,,,,,,,,,,,,,,,,,,,,,,,,,,,,,,0,3,3,0,1,,,,,,,,,,,,,,,,,,,,,,,,,,,,,,,,,,,,,,,,,
844457,001,2022-11-20_17h59.16.882,Info_measure_main_exp,2022.2.2,Win32,59.9268892,,,,,,,,,,,,,,,,,,masks/mask_002.jpg,,,,,,,,,,,,,,,,,,,,,,,,,,,,,,,,,,,,,,,,,,,,,,,,0,4,4,1,1,,,,,,,,,,,,,,,,,,,,,,,,,,,,,,,,,,,,,,,,,
844457,001,2022-11-20_17h59.16.882,Info_measure_main_exp,2022.2.2,Win32,59.9268892,,,,,,,,,,,,,,,,,,,,,,,,,,,,,,3,3.2833,1,,,,,,,,,,,,0,131,5,5,2154,2214,absent_patch/patch0002154.jpg,absent_patch/patch0002214.jpg,,,,,,,,,,,,,,,,,,,,-0.04296875,-0.061197917,1,0,0,response5disk,16,0,0.009114583,1,0,0,center_square,0,15,15,67,1,,,,,,,,,,,,,,,,,,,,,,,
844457,001,2022-11-20_17h59.16.882,Info_measure_main_exp,2022.2.2,Win32,59.9268892,,,,,,,,,,,,,,,,,,masks/mask_005.jpg,,,,,,,,,,,,,,,,,,,,,,,,,,,,,,,,,,,,,,,,,,,0,0,0,4,1,,,,,,,,,,,,,,,,,,,,,,,,,,,,,,,,,,,,,,,,,,,,,,
844457,001,2022-11-20_17h59.16.882,Info_measure_main_exp,2022.2.2,Win32,59.9268892,,,,,,,,,,,,,,,,,,masks/mask_002.jpg,,,,,,,,,,,,,,,,,,,,,,,,,,,,,,,,,,,,,,,,,,,0,1,1,1,1,,,,,,,,,,,,,,,,,,,,,,,,,,,,,,,,,,,,,,,,,,,,,,
844457,001,2022-11-20_17h59.16.882,Info_measure_main_exp,2022.2.2,Win32,59.9268892,,,,,,,,,,,,,,,,,,masks/mask_003.jpg,,,,,,,,,,,,,,,,,,,,,,,,,,,,,,,,,,,,,,,,,,,0,2,2,2,1,,,,,,,,,,,,,,,,,,,,,,,,,,,,,,,,,,,,,,,,,,,,,,
844457,001,2022-11-20_17h59.16.882,Info_measure_main_exp,2022.2.2,Win32,59.9268892,,,,,,,,,,,,,,,,,,masks/mask_001.jpg,,,,,,,,,,,,,,,,,,,,,,,,,,,,,,,,,,,,,,,,,,,0,3,3,0,1,,,,,,,,,,,,,,,,,,,,,,,,,,,,,,,,,,,,,,,,,,,,,,
844457,001,2022-11-20_17h59.16.882,Info_measure_main_exp,2022.2.2,Win32,59.9268892,,,,,,,,,,,,,,,,,,masks/mask_004.jpg,,,,,,,,,,,,,,,,,,,,,,,,,,,,,,,,,,,,,,,,,,,0,4,4,3,1,,,,,,,,,,,,,,,,,,,,,,,,,,,,,,,,,,,,,,,,,,,,,,
844457,001,2022-11-20_17h59.16.882,Info_measure_main_exp,2022.2.2,Win32,59.9268892,,,,,,,,,,,,,,,,,,masks/mask_005.jpg,,,,,,,,,,,,,,,,,,,,,,,,,,,,,,,,,,,,,,,,,,,,,,,,0,0,0,4,1,,,,,,,,,,,,,,,,,,,,,,,,,,,,,,,,,,,,,,,,,
844457,001,2022-11-20_17h59.16.882,Info_measure_main_exp,2022.2.2,Win32,59.9268892,,,,,,,,,,,,,,,,,,masks/mask_002.jpg,,,,,,,,,,,,,,,,,,,,,,,,,,,,,,,,,,,,,,,,,,,,,,,,0,1,1,1,1,,,,,,,,,,,,,,,,,,,,,,,,,,,,,,,,,,,,,,,,,
844457,001,2022-11-20_17h59.16.882,Info_measure_main_exp,2022.2.2,Win32,59.9268892,,,,,,,,,,,,,,,,,,masks/mask_004.jpg,,,,,,,,,,,,,,,,,,,,,,,,,,,,,,,,,,,,,,,,,,,,,,,,0,2,2,3,1,,,,,,,,,,,,,,,,,,,,,,,,,,,,,,,,,,,,,,,,,
844457,001,2022-11-20_17h59.16.882,Info_measure_main_exp,2022.2.2,Win32,59.9268892,,,,,,,,,,,,,,,,,,masks/mask_003.jpg,,,,,,,,,,,,,,,,,,,,,,,,,,,,,,,,,,,,,,,,,,,,,,,,0,3,3,2,1,,,,,,,,,,,,,,,,,,,,,,,,,,,,,,,,,,,,,,,,,
844457,001,2022-11-20_17h59.16.882,Info_measure_main_exp,2022.2.2,Win32,59.9268892,,,,,,,,,,,,,,,,,,masks/mask_001.jpg,,,,,,,,,,,,,,,,,,,,,,,,,,,,,,,,,,,,,,,,,,,,,,,,0,4,4,0,1,,,,,,,,,,,,,,,,,,,,,,,,,,,,,,,,,,,,,,,,,
844457,001,2022-11-20_17h59.16.882,Info_measure_main_exp,2022.2.2,Win32,59.9268892,,,,,,,,,,,,,,,,,,,,,,,,,,,,,,3,0.95,1,,,,,,,,,,,,0,131,5,5,2274,2178,absent_patch/patch0002274.jpg,absent_patch/patch0002178.jpg,,,,,,,,,,,,,,,,,,,,-0.024739583,-0.09765625,1,0,0,response5disk,17,-0.002604167,0,1,0,0,center_square,0,16,16,117,1,,,,,,,,,,,,,,,,,,,,,,,
844457,001,2022-11-20_17h59.16.882,Info_measure_main_exp,2022.2.2,Win32,59.9268892,,,,,,,,,,,,,,,,,,masks/mask_003.jpg,,,,,,,,,,,,,,,,,,,,,,,,,,,,,,,,,,,,,,,,,,,0,0,0,2,1,,,,,,,,,,,,,,,,,,,,,,,,,,,,,,,,,,,,,,,,,,,,,,
844457,001,2022-11-20_17h59.16.882,Info_measure_main_exp,2022.2.2,Win32,59.9268892,,,,,,,,,,,,,,,,,,masks/mask_002.jpg,,,,,,,,,,,,,,,,,,,,,,,,,,,,,,,,,,,,,,,,,,,0,1,1,1,1,,,,,,,,,,,,,,,,,,,,,,,,,,,,,,,,,,,,,,,,,,,,,,
844457,001,2022-11-20_17h59.16.882,Info_measure_main_exp,2022.2.2,Win32,59.9268892,,,,,,,,,,,,,,,,,,masks/mask_004.jpg,,,,,,,,,,,,,,,,,,,,,,,,,,,,,,,,,,,,,,,,,,,0,2,2,3,1,,,,,,,,,,,,,,,,,,,,,,,,,,,,,,,,,,,,,,,,,,,,,,
844457,001,2022-11-20_17h59.16.882,Info_measure_main_exp,2022.2.2,Win32,59.9268892,,,,,,,,,,,,,,,,,,masks/mask_005.jpg,,,,,,,,,,,,,,,,,,,,,,,,,,,,,,,,,,,,,,,,,,,0,3,3,4,1,,,,,,,,,,,,,,,,,,,,,,,,,,,,,,,,,,,,,,,,,,,,,,
844457,001,2022-11-20_17h59.16.882,Info_measure_main_exp,2022.2.2,Win32,59.9268892,,,,,,,,,,,,,,,,,,masks/mask_001.jpg,,,,,,,,,,,,,,,,,,,,,,,,,,,,,,,,,,,,,,,,,,,0,4,4,0,1,,,,,,,,,,,,,,,,,,,,,,,,,,,,,,,,,,,,,,,,,,,,,,
844457,001,2022-11-20_17h59.16.882,Info_measure_main_exp,2022.2.2,Win32,59.9268892,,,,,,,,,,,,,,,,,,masks/mask_005.jpg,,,,,,,,,,,,,,,,,,,,,,,,,,,,,,,,,,,,,,,,,,,,,,,,0,0,0,4,1,,,,,,,,,,,,,,,,,,,,,,,,,,,,,,,,,,,,,,,,,
844457,001,2022-11-20_17h59.16.882,Info_measure_main_exp,2022.2.2,Win32,59.9268892,,,,,,,,,,,,,,,,,,masks/mask_002.jpg,,,,,,,,,,,,,,,,,,,,,,,,,,,,,,,,,,,,,,,,,,,,,,,,0,1,1,1,1,,,,,,,,,,,,,,,,,,,,,,,,,,,,,,,,,,,,,,,,,
844457,001,2022-11-20_17h59.16.882,Info_measure_main_exp,2022.2.2,Win32,59.9268892,,,,,,,,,,,,,,,,,,masks/mask_001.jpg,,,,,,,,,,,,,,,,,,,,,,,,,,,,,,,,,,,,,,,,,,,,,,,,0,2,2,0,1,,,,,,,,,,,,,,,,,,,,,,,,,,,,,,,,,,,,,,,,,
844457,001,2022-11-20_17h59.16.882,Info_measure_main_exp,2022.2.2,Win32,59.9268892,,,,,,,,,,,,,,,,,,masks/mask_004.jpg,,,,,,,,,,,,,,,,,,,,,,,,,,,,,,,,,,,,,,,,,,,,,,,,0,3,3,3,1,,,,,,,,,,,,,,,,,,,,,,,,,,,,,,,,,,,,,,,,,
844457,001,2022-11-20_17h59.16.882,Info_measure_main_exp,2022.2.2,Win32,59.9268892,,,,,,,,,,,,,,,,,,masks/mask_003.jpg,,,,,,,,,,,,,,,,,,,,,,,,,,,,,,,,,,,,,,,,,,,,,,,,0,4,4,2,1,,,,,,,,,,,,,,,,,,,,,,,,,,,,,,,,,,,,,,,,,
844457,001,2022-11-20_17h59.16.882,Info_measure_main_exp,2022.2.2,Win32,59.9268892,,,,,,,,,,,,,,,,,,,,,,,,,,,,,,4,2.4345,1,,,,,,,,,,,,0,131,5,5,1950,2142,absent_patch/patch0001950.jpg,absent_patch/patch0002142.jpg,,,,,,,,,,,,,,,,,,,,0.016927083,-0.080729167,1,0,0,response3disk,18,-0.006510417,-0.006510417,1,0,0,center_square,0,17,17,83,1,,,,,,,,,,,,,,,,,,,,,,,
844457,001,2022-11-20_17h59.16.882,Info_measure_main_exp,2022.2.2,Win32,59.9268892,,,,,,,,,,,,,,,,,,masks/mask_001.jpg,,,,,,,,,,,,,,,,,,,,,,,,,,,,,,,,,,,,,,,,,,,0,0,0,0,1,,,,,,,,,,,,,,,,,,,,,,,,,,,,,,,,,,,,,,,,,,,,,,
844457,001,2022-11-20_17h59.16.882,Info_measure_main_exp,2022.2.2,Win32,59.9268892,,,,,,,,,,,,,,,,,,masks/mask_002.jpg,,,,,,,,,,,,,,,,,,,,,,,,,,,,,,,,,,,,,,,,,,,0,1,1,1,1,,,,,,,,,,,,,,,,,,,,,,,,,,,,,,,,,,,,,,,,,,,,,,
844457,001,2022-11-20_17h59.16.882,Info_measure_main_exp,2022.2.2,Win32,59.9268892,,,,,,,,,,,,,,,,,,masks/mask_004.jpg,,,,,,,,,,,,,,,,,,,,,,,,,,,,,,,,,,,,,,,,,,,0,2,2,3,1,,,,,,,,,,,,,,,,,,,,,,,,,,,,,,,,,,,,,,,,,,,,,,
844457,001,2022-11-20_17h59.16.882,Info_measure_main_exp,2022.2.2,Win32,59.9268892,,,,,,,,,,,,,,,,,,masks/mask_005.jpg,,,,,,,,,,,,,,,,,,,,,,,,,,,,,,,,,,,,,,,,,,,0,3,3,4,1,,,,,,,,,,,,,,,,,,,,,,,,,,,,,,,,,,,,,,,,,,,,,,
844457,001,2022-11-20_17h59.16.882,Info_measure_main_exp,2022.2.2,Win32,59.9268892,,,,,,,,,,,,,,,,,,masks/mask_003.jpg,,,,,,,,,,,,,,,,,,,,,,,,,,,,,,,,,,,,,,,,,,,0,4,4,2,1,,,,,,,,,,,,,,,,,,,,,,,,,,,,,,,,,,,,,,,,,,,,,,
844457,001,2022-11-20_17h59.16.882,Info_measure_main_exp,2022.2.2,Win32,59.9268892,,,,,,,,,,,,,,,,,,masks/mask_004.jpg,,,,,,,,,,,,,,,,,,,,,,,,,,,,,,,,,,,,,,,,,,,,,,,,0,0,0,3,1,,,,,,,,,,,,,,,,,,,,,,,,,,,,,,,,,,,,,,,,,
844457,001,2022-11-20_17h59.16.882,Info_measure_main_exp,2022.2.2,Win32,59.9268892,,,,,,,,,,,,,,,,,,masks/mask_003.jpg,,,,,,,,,,,,,,,,,,,,,,,,,,,,,,,,,,,,,,,,,,,,,,,,0,1,1,2,1,,,,,,,,,,,,,,,,,,,,,,,,,,,,,,,,,,,,,,,,,
844457,001,2022-11-20_17h59.16.882,Info_measure_main_exp,2022.2.2,Win32,59.9268892,,,,,,,,,,,,,,,,,,masks/mask_002.jpg,,,,,,,,,,,,,,,,,,,,,,,,,,,,,,,,,,,,,,,,,,,,,,,,0,2,2,1,1,,,,,,,,,,,,,,,,,,,,,,,,,,,,,,,,,,,,,,,,,
844457,001,2022-11-20_17h59.16.882,Info_measure_main_exp,2022.2.2,Win32,59.9268892,,,,,,,,,,,,,,,,,,masks/mask_001.jpg,,,,,,,,,,,,,,,,,,,,,,,,,,,,,,,,,,,,,,,,,,,,,,,,0,3,3,0,1,,,,,,,,,,,,,,,,,,,,,,,,,,,,,,,,,,,,,,,,,
844457,001,2022-11-20_17h59.16.882,Info_measure_main_exp,2022.2.2,Win32,59.9268892,,,,,,,,,,,,,,,,,,masks/mask_005.jpg,,,,,,,,,,,,,,,,,,,,,,,,,,,,,,,,,,,,,,,,,,,,,,,,0,4,4,4,1,,,,,,,,,,,,,,,,,,,,,,,,,,,,,,,,,,,,,,,,,
844457,001,2022-11-20_17h59.16.882,Info_measure_main_exp,2022.2.2,Win32,59.9268892,,,,,,,,,,,,,,,,,,,,,,,,,,,,,,2,1.6718,1,,,,,,,,,,,,1,131,5,5,1,2166,present_patch/cong_131_5_a.jpg,absent_patch/patch0002166.jpg,,,,,,,,,,,,,,,,,,,,-0.078125,-0.015625,1,0,0,response5disk,19,0.006510417,0.014322917,1,0,0,center_square,0,18,18,54,1,,,,,,,,,,,,,,,,,,,,,,,
844457,001,2022-11-20_17h59.16.882,Info_measure_main_exp,2022.2.2,Win32,59.9268892,,,,,,,,,,,,,,,,,,masks/mask_003.jpg,,,,,,,,,,,,,,,,,,,,,,,,,,,,,,,,,,,,,,,,,,,0,0,0,2,1,,,,,,,,,,,,,,,,,,,,,,,,,,,,,,,,,,,,,,,,,,,,,,
844457,001,2022-11-20_17h59.16.882,Info_measure_main_exp,2022.2.2,Win32,59.9268892,,,,,,,,,,,,,,,,,,masks/mask_004.jpg,,,,,,,,,,,,,,,,,,,,,,,,,,,,,,,,,,,,,,,,,,,0,1,1,3,1,,,,,,,,,,,,,,,,,,,,,,,,,,,,,,,,,,,,,,,,,,,,,,
844457,001,2022-11-20_17h59.16.882,Info_measure_main_exp,2022.2.2,Win32,59.9268892,,,,,,,,,,,,,,,,,,masks/mask_001.jpg,,,,,,,,,,,,,,,,,,,,,,,,,,,,,,,,,,,,,,,,,,,0,2,2,0,1,,,,,,,,,,,,,,,,,,,,,,,,,,,,,,,,,,,,,,,,,,,,,,
844457,001,2022-11-20_17h59.16.882,Info_measure_main_exp,2022.2.2,Win32,59.9268892,,,,,,,,,,,,,,,,,,masks/mask_002.jpg,,,,,,,,,,,,,,,,,,,,,,,,,,,,,,,,,,,,,,,,,,,0,3,3,1,1,,,,,,,,,,,,,,,,,,,,,,,,,,,,,,,,,,,,,,,,,,,,,,
844457,001,2022-11-20_17h59.16.882,Info_measure_main_exp,2022.2.2,Win32,59.9268892,,,,,,,,,,,,,,,,,,masks/mask_005.jpg,,,,,,,,,,,,,,,,,,,,,,,,,,,,,,,,,,,,,,,,,,,0,4,4,4,1,,,,,,,,,,,,,,,,,,,,,,,,,,,,,,,,,,,,,,,,,,,,,,
844457,001,2022-11-20_17h59.16.882,Info_measure_main_exp,2022.2.2,Win32,59.9268892,,,,,,,,,,,,,,,,,,masks/mask_003.jpg,,,,,,,,,,,,,,,,,,,,,,,,,,,,,,,,,,,,,,,,,,,,,,,,0,0,0,2,1,,,,,,,,,,,,,,,,,,,,,,,,,,,,,,,,,,,,,,,,,
844457,001,2022-11-20_17h59.16.882,Info_measure_main_exp,2022.2.2,Win32,59.9268892,,,,,,,,,,,,,,,,,,masks/mask_001.jpg,,,,,,,,,,,,,,,,,,,,,,,,,,,,,,,,,,,,,,,,,,,,,,,,0,1,1,0,1,,,,,,,,,,,,,,,,,,,,,,,,,,,,,,,,,,,,,,,,,
844457,001,2022-11-20_17h59.16.882,Info_measure_main_exp,2022.2.2,Win32,59.9268892,,,,,,,,,,,,,,,,,,masks/mask_005.jpg,,,,,,,,,,,,,,,,,,,,,,,,,,,,,,,,,,,,,,,,,,,,,,,,0,2,2,4,1,,,,,,,,,,,,,,,,,,,,,,,,,,,,,,,,,,,,,,,,,
844457,001,2022-11-20_17h59.16.882,Info_measure_main_exp,2022.2.2,Win32,59.9268892,,,,,,,,,,,,,,,,,,masks/mask_002.jpg,,,,,,,,,,,,,,,,,,,,,,,,,,,,,,,,,,,,,,,,,,,,,,,,0,3,3,1,1,,,,,,,,,,,,,,,,,,,,,,,,,,,,,,,,,,,,,,,,,
844457,001,2022-11-20_17h59.16.882,Info_measure_main_exp,2022.2.2,Win32,59.9268892,,,,,,,,,,,,,,,,,,masks/mask_004.jpg,,,,,,,,,,,,,,,,,,,,,,,,,,,,,,,,,,,,,,,,,,,,,,,,0,4,4,3,1,,,,,,,,,,,,,,,,,,,,,,,,,,,,,,,,,,,,,,,,,
844457,001,2022-11-20_17h59.16.882,Info_measure_main_exp,2022.2.2,Win32,59.9268892,,,,,,,,,,,,,,,,,,,,,,,,,,,,,,1,0.9834,1,,,,,,,,,,,,0,131,5,5,2190,2214,absent_patch/patch0002190.jpg,absent_patch/patch0002214.jpg,,,,,,,,,,,,,,,,,,,,-0.1015625,0.013020833,1,0,0,response7disk,20,-0.014322917,0.005208333,1,0,0,center_square,0,19,19,35,1,,,,,,,,,,,,,,,,,,,,,,,
844457,001,2022-11-20_17h59.16.882,Info_measure_main_exp,2022.2.2,Win32,59.9268892,,,,,,,,,,,,,,,,,,masks/mask_003.jpg,,,,,,,,,,,,,,,,,,,,,,,,,,,,,,,,,,,,,,,,,,,0,0,0,2,1,,,,,,,,,,,,,,,,,,,,,,,,,,,,,,,,,,,,,,,,,,,,,,
844457,001,2022-11-20_17h59.16.882,Info_measure_main_exp,2022.2.2,Win32,59.9268892,,,,,,,,,,,,,,,,,,masks/mask_004.jpg,,,,,,,,,,,,,,,,,,,,,,,,,,,,,,,,,,,,,,,,,,,0,1,1,3,1,,,,,,,,,,,,,,,,,,,,,,,,,,,,,,,,,,,,,,,,,,,,,,
844457,001,2022-11-20_17h59.16.882,Info_measure_main_exp,2022.2.2,Win32,59.9268892,,,,,,,,,,,,,,,,,,masks/mask_001.jpg,,,,,,,,,,,,,,,,,,,,,,,,,,,,,,,,,,,,,,,,,,,0,2,2,0,1,,,,,,,,,,,,,,,,,,,,,,,,,,,,,,,,,,,,,,,,,,,,,,
844457,001,2022-11-20_17h59.16.882,Info_measure_main_exp,2022.2.2,Win32,59.9268892,,,,,,,,,,,,,,,,,,masks/mask_005.jpg,,,,,,,,,,,,,,,,,,,,,,,,,,,,,,,,,,,,,,,,,,,0,3,3,4,1,,,,,,,,,,,,,,,,,,,,,,,,,,,,,,,,,,,,,,,,,,,,,,
844457,001,2022-11-20_17h59.16.882,Info_measure_main_exp,2022.2.2,Win32,59.9268892,,,,,,,,,,,,,,,,,,masks/mask_002.jpg,,,,,,,,,,,,,,,,,,,,,,,,,,,,,,,,,,,,,,,,,,,0,4,4,1,1,,,,,,,,,,,,,,,,,,,,,,,,,,,,,,,,,,,,,,,,,,,,,,
844457,001,2022-11-20_17h59.16.882,Info_measure_main_exp,2022.2.2,Win32,59.9268892,,,,,,,,,,,,,,,,,,masks/mask_003.jpg,,,,,,,,,,,,,,,,,,,,,,,,,,,,,,,,,,,,,,,,,,,,,,,,0,0,0,2,1,,,,,,,,,,,,,,,,,,,,,,,,,,,,,,,,,,,,,,,,,
844457,001,2022-11-20_17h59.16.882,Info_measure_main_exp,2022.2.2,Win32,59.9268892,,,,,,,,,,,,,,,,,,masks/mask_002.jpg,,,,,,,,,,,,,,,,,,,,,,,,,,,,,,,,,,,,,,,,,,,,,,,,0,1,1,1,1,,,,,,,,,,,,,,,,,,,,,,,,,,,,,,,,,,,,,,,,,
844457,001,2022-11-20_17h59.16.882,Info_measure_main_exp,2022.2.2,Win32,59.9268892,,,,,,,,,,,,,,,,,,masks/mask_005.jpg,,,,,,,,,,,,,,,,,,,,,,,,,,,,,,,,,,,,,,,,,,,,,,,,0,2,2,4,1,,,,,,,,,,,,,,,,,,,,,,,,,,,,,,,,,,,,,,,,,
844457,001,2022-11-20_17h59.16.882,Info_measure_main_exp,2022.2.2,Win32,59.9268892,,,,,,,,,,,,,,,,,,masks/mask_001.jpg,,,,,,,,,,,,,,,,,,,,,,,,,,,,,,,,,,,,,,,,,,,,,,,,0,3,3,0,1,,,,,,,,,,,,,,,,,,,,,,,,,,,,,,,,,,,,,,,,,
844457,001,2022-11-20_17h59.16.882,Info_measure_main_exp,2022.2.2,Win32,59.9268892,,,,,,,,,,,,,,,,,,masks/mask_004.jpg,,,,,,,,,,,,,,,,,,,,,,,,,,,,,,,,,,,,,,,,,,,,,,,,0,4,4,3,1,,,,,,,,,,,,,,,,,,,,,,,,,,,,,,,,,,,,,,,,,
844457,001,2022-11-20_17h59.16.882,Info_measure_main_exp,2022.2.2,Win32,59.9268892,,,,,,,,,,,,,,,,,,,,,,,,,,,,,,1,1.7017,1,,,,,,,,,,,,0,131,5,5,1986,2154,absent_patch/patch0001986.jpg,absent_patch/patch0002154.jpg,,,,,,,,,,,,,,,,,,,,-0.1015625,0.069010417,1,0,0,response7disk,21,-0.005208333,0.01171875,1,0,0,center_square,0,20,20,36,1,,,,,,,,,,,,,,,,,,,,,,,
844457,001,2022-11-20_17h59.16.882,Info_measure_main_exp,2022.2.2,Win32,59.9268892,,,,,,,,,,,,,,,,,,masks/mask_003.jpg,,,,,,,,,,,,,,,,,,,,,,,,,,,,,,,,,,,,,,,,,,,0,0,0,2,1,,,,,,,,,,,,,,,,,,,,,,,,,,,,,,,,,,,,,,,,,,,,,,
844457,001,2022-11-20_17h59.16.882,Info_measure_main_exp,2022.2.2,Win32,59.9268892,,,,,,,,,,,,,,,,,,masks/mask_001.jpg,,,,,,,,,,,,,,,,,,,,,,,,,,,,,,,,,,,,,,,,,,,0,1,1,0,1,,,,,,,,,,,,,,,,,,,,,,,,,,,,,,,,,,,,,,,,,,,,,,
844457,001,2022-11-20_17h59.16.882,Info_measure_main_exp,2022.2.2,Win32,59.9268892,,,,,,,,,,,,,,,,,,masks/mask_005.jpg,,,,,,,,,,,,,,,,,,,,,,,,,,,,,,,,,,,,,,,,,,,0,2,2,4,1,,,,,,,,,,,,,,,,,,,,,,,,,,,,,,,,,,,,,,,,,,,,,,
844457,001,2022-11-20_17h59.16.882,Info_measure_main_exp,2022.2.2,Win32,59.9268892,,,,,,,,,,,,,,,,,,masks/mask_002.jpg,,,,,,,,,,,,,,,,,,,,,,,,,,,,,,,,,,,,,,,,,,,0,3,3,1,1,,,,,,,,,,,,,,,,,,,,,,,,,,,,,,,,,,,,,,,,,,,,,,
844457,001,2022-11-20_17h59.16.882,Info_measure_main_exp,2022.2.2,Win32,59.9268892,,,,,,,,,,,,,,,,,,masks/mask_004.jpg,,,,,,,,,,,,,,,,,,,,,,,,,,,,,,,,,,,,,,,,,,,0,4,4,3,1,,,,,,,,,,,,,,,,,,,,,,,,,,,,,,,,,,,,,,,,,,,,,,
844457,001,2022-11-20_17h59.16.882,Info_measure_main_exp,2022.2.2,Win32,59.9268892,,,,,,,,,,,,,,,,,,masks/mask_002.jpg,,,,,,,,,,,,,,,,,,,,,,,,,,,,,,,,,,,,,,,,,,,,,,,,0,0,0,1,1,,,,,,,,,,,,,,,,,,,,,,,,,,,,,,,,,,,,,,,,,
844457,001,2022-11-20_17h59.16.882,Info_measure_main_exp,2022.2.2,Win32,59.9268892,,,,,,,,,,,,,,,,,,masks/mask_004.jpg,,,,,,,,,,,,,,,,,,,,,,,,,,,,,,,,,,,,,,,,,,,,,,,,0,1,1,3,1,,,,,,,,,,,,,,,,,,,,,,,,,,,,,,,,,,,,,,,,,
844457,001,2022-11-20_17h59.16.882,Info_measure_main_exp,2022.2.2,Win32,59.9268892,,,,,,,,,,,,,,,,,,masks/mask_001.jpg,,,,,,,,,,,,,,,,,,,,,,,,,,,,,,,,,,,,,,,,,,,,,,,,0,2,2,0,1,,,,,,,,,,,,,,,,,,,,,,,,,,,,,,,,,,,,,,,,,
844457,001,2022-11-20_17h59.16.882,Info_measure_main_exp,2022.2.2,Win32,59.9268892,,,,,,,,,,,,,,,,,,masks/mask_003.jpg,,,,,,,,,,,,,,,,,,,,,,,,,,,,,,,,,,,,,,,,,,,,,,,,0,3,3,2,1,,,,,,,,,,,,,,,,,,,,,,,,,,,,,,,,,,,,,,,,,
844457,001,2022-11-20_17h59.16.882,Info_measure_main_exp,2022.2.2,Win32,59.9268892,,,,,,,,,,,,,,,,,,masks/mask_005.jpg,,,,,,,,,,,,,,,,,,,,,,,,,,,,,,,,,,,,,,,,,,,,,,,,0,4,4,4,1,,,,,,,,,,,,,,,,,,,,,,,,,,,,,,,,,,,,,,,,,
844457,001,2022-11-20_17h59.16.882,Info_measure_main_exp,2022.2.2,Win32,59.9268892,,,,,,,,,,,,,,,,,,,,,,,,,,,,,,4,1.1329,1,,,,,,,,,,,,0,131,5,5,2250,2214,absent_patch/patch0002250.jpg,absent_patch/patch0002214.jpg,,,,,,,,,,,,,,,,,,,,0.036458333,-0.06640625,1,0,0,response3disk,22,0.00390625,0.00390625,1,0,0,center_square,0,21,21,97,1,,,,,,,,,,,,,,,,,,,,,,,
844457,001,2022-11-20_17h59.16.882,Info_measure_main_exp,2022.2.2,Win32,59.9268892,,,,,,,,,,,,,,,,,,masks/mask_001.jpg,,,,,,,,,,,,,,,,,,,,,,,,,,,,,,,,,,,,,,,,,,,0,0,0,0,1,,,,,,,,,,,,,,,,,,,,,,,,,,,,,,,,,,,,,,,,,,,,,,
844457,001,2022-11-20_17h59.16.882,Info_measure_main_exp,2022.2.2,Win32,59.9268892,,,,,,,,,,,,,,,,,,masks/mask_004.jpg,,,,,,,,,,,,,,,,,,,,,,,,,,,,,,,,,,,,,,,,,,,0,1,1,3,1,,,,,,,,,,,,,,,,,,,,,,,,,,,,,,,,,,,,,,,,,,,,,,
844457,001,2022-11-20_17h59.16.882,Info_measure_main_exp,2022.2.2,Win32,59.9268892,,,,,,,,,,,,,,,,,,masks/mask_002.jpg,,,,,,,,,,,,,,,,,,,,,,,,,,,,,,,,,,,,,,,,,,,0,2,2,1,1,,,,,,,,,,,,,,,,,,,,,,,,,,,,,,,,,,,,,,,,,,,,,,
844457,001,2022-11-20_17h59.16.882,Info_measure_main_exp,2022.2.2,Win32,59.9268892,,,,,,,,,,,,,,,,,,masks/mask_003.jpg,,,,,,,,,,,,,,,,,,,,,,,,,,,,,,,,,,,,,,,,,,,0,3,3,2,1,,,,,,,,,,,,,,,,,,,,,,,,,,,,,,,,,,,,,,,,,,,,,,
844457,001,2022-11-20_17h59.16.882,Info_measure_main_exp,2022.2.2,Win32,59.9268892,,,,,,,,,,,,,,,,,,masks/mask_005.jpg,,,,,,,,,,,,,,,,,,,,,,,,,,,,,,,,,,,,,,,,,,,0,4,4,4,1,,,,,,,,,,,,,,,,,,,,,,,,,,,,,,,,,,,,,,,,,,,,,,
844457,001,2022-11-20_17h59.16.882,Info_measure_main_exp,2022.2.2,Win32,59.9268892,,,,,,,,,,,,,,,,,,masks/mask_005.jpg,,,,,,,,,,,,,,,,,,,,,,,,,,,,,,,,,,,,,,,,,,,,,,,,0,0,0,4,1,,,,,,,,,,,,,,,,,,,,,,,,,,,,,,,,,,,,,,,,,
844457,001,2022-11-20_17h59.16.882,Info_measure_main_exp,2022.2.2,Win32,59.9268892,,,,,,,,,,,,,,,,,,masks/mask_002.jpg,,,,,,,,,,,,,,,,,,,,,,,,,,,,,,,,,,,,,,,,,,,,,,,,0,1,1,1,1,,,,,,,,,,,,,,,,,,,,,,,,,,,,,,,,,,,,,,,,,
844457,001,2022-11-20_17h59.16.882,Info_measure_main_exp,2022.2.2,Win32,59.9268892,,,,,,,,,,,,,,,,,,masks/mask_004.jpg,,,,,,,,,,,,,,,,,,,,,,,,,,,,,,,,,,,,,,,,,,,,,,,,0,2,2,3,1,,,,,,,,,,,,,,,,,,,,,,,,,,,,,,,,,,,,,,,,,
844457,001,2022-11-20_17h59.16.882,Info_measure_main_exp,2022.2.2,Win32,59.9268892,,,,,,,,,,,,,,,,,,masks/mask_001.jpg,,,,,,,,,,,,,,,,,,,,,,,,,,,,,,,,,,,,,,,,,,,,,,,,0,3,3,0,1,,,,,,,,,,,,,,,,,,,,,,,,,,,,,,,,,,,,,,,,,
844457,001,2022-11-20_17h59.16.882,Info_measure_main_exp,2022.2.2,Win32,59.9268892,,,,,,,,,,,,,,,,,,masks/mask_003.jpg,,,,,,,,,,,,,,,,,,,,,,,,,,,,,,,,,,,,,,,,,,,,,,,,0,4,4,2,1,,,,,,,,,,,,,,,,,,,,,,,,,,,,,,,,,,,,,,,,,
844457,001,2022-11-20_17h59.16.882,Info_measure_main_exp,2022.2.2,Win32,59.9268892,,,,,,,,,,,,,,,,,,,,,,,,,,,,,,5,1.2686,1,,,,,,,,,,,,0,131,5,5,2214,2178,absent_patch/patch0002214.jpg,absent_patch/patch0002178.jpg,,,,,,,,,,,,,,,,,,,,0.0390625,-0.026041667,1,0,0,response3disk,23,0.002604167,-0.0078125,1,0,0,center_square,0,22,22,62,1,,,,,,,,,,,,,,,,,,,,,,,
844457,001,2022-11-20_17h59.16.882,Info_measure_main_exp,2022.2.2,Win32,59.9268892,,,,,,,,,,,,,,,,,,masks/mask_002.jpg,,,,,,,,,,,,,,,,,,,,,,,,,,,,,,,,,,,,,,,,,,,0,0,0,1,1,,,,,,,,,,,,,,,,,,,,,,,,,,,,,,,,,,,,,,,,,,,,,,
844457,001,2022-11-20_17h59.16.882,Info_measure_main_exp,2022.2.2,Win32,59.9268892,,,,,,,,,,,,,,,,,,masks/mask_005.jpg,,,,,,,,,,,,,,,,,,,,,,,,,,,,,,,,,,,,,,,,,,,0,1,1,4,1,,,,,,,,,,,,,,,,,,,,,,,,,,,,,,,,,,,,,,,,,,,,,,
844457,001,2022-11-20_17h59.16.882,Info_measure_main_exp,2022.2.2,Win32,59.9268892,,,,,,,,,,,,,,,,,,masks/mask_001.jpg,,,,,,,,,,,,,,,,,,,,,,,,,,,,,,,,,,,,,,,,,,,0,2,2,0,1,,,,,,,,,,,,,,,,,,,,,,,,,,,,,,,,,,,,,,,,,,,,,,
844457,001,2022-11-20_17h59.16.882,Info_measure_main_exp,2022.2.2,Win32,59.9268892,,,,,,,,,,,,,,,,,,masks/mask_003.jpg,,,,,,,,,,,,,,,,,,,,,,,,,,,,,,,,,,,,,,,,,,,0,3,3,2,1,,,,,,,,,,,,,,,,,,,,,,,,,,,,,,,,,,,,,,,,,,,,,,
844457,001,2022-11-20_17h59.16.882,Info_measure_main_exp,2022.2.2,Win32,59.9268892,,,,,,,,,,,,,,,,,,masks/mask_004.jpg,,,,,,,,,,,,,,,,,,,,,,,,,,,,,,,,,,,,,,,,,,,0,4,4,3,1,,,,,,,,,,,,,,,,,,,,,,,,,,,,,,,,,,,,,,,,,,,,,,
844457,001,2022-11-20_17h59.16.882,Info_measure_main_exp,2022.2.2,Win32,59.9268892,,,,,,,,,,,,,,,,,,masks/mask_002.jpg,,,,,,,,,,,,,,,,,,,,,,,,,,,,,,,,,,,,,,,,,,,,,,,,0,0,0,1,1,,,,,,,,,,,,,,,,,,,,,,,,,,,,,,,,,,,,,,,,,
844457,001,2022-11-20_17h59.16.882,Info_measure_main_exp,2022.2.2,Win32,59.9268892,,,,,,,,,,,,,,,,,,masks/mask_004.jpg,,,,,,,,,,,,,,,,,,,,,,,,,,,,,,,,,,,,,,,,,,,,,,,,0,1,1,3,1,,,,,,,,,,,,,,,,,,,,,,,,,,,,,,,,,,,,,,,,,
844457,001,2022-11-20_17h59.16.882,Info_measure_main_exp,2022.2.2,Win32,59.9268892,,,,,,,,,,,,,,,,,,masks/mask_005.jpg,,,,,,,,,,,,,,,,,,,,,,,,,,,,,,,,,,,,,,,,,,,,,,,,0,2,2,4,1,,,,,,,,,,,,,,,,,,,,,,,,,,,,,,,,,,,,,,,,,
844457,001,2022-11-20_17h59.16.882,Info_measure_main_exp,2022.2.2,Win32,59.9268892,,,,,,,,,,,,,,,,,,masks/mask_003.jpg,,,,,,,,,,,,,,,,,,,,,,,,,,,,,,,,,,,,,,,,,,,,,,,,0,3,3,2,1,,,,,,,,,,,,,,,,,,,,,,,,,,,,,,,,,,,,,,,,,
844457,001,2022-11-20_17h59.16.882,Info_measure_main_exp,2022.2.2,Win32,59.9268892,,,,,,,,,,,,,,,,,,masks/mask_001.jpg,,,,,,,,,,,,,,,,,,,,,,,,,,,,,,,,,,,,,,,,,,,,,,,,0,4,4,0,1,,,,,,,,,,,,,,,,,,,,,,,,,,,,,,,,,,,,,,,,,
844457,001,2022-11-20_17h59.16.882,Info_measure_main_exp,2022.2.2,Win32,59.9268892,,,,,,,,,,,,,,,,,,,,,,,,,,,,,,4,1.1176,1,,,,,,,,,,,,0,131,5,5,2238,2298,absent_patch/patch0002238.jpg,absent_patch/patch0002298.jpg,,,,,,,,,,,,,,,,,,,,0.01953125,-0.072916667,1,0,0,response3disk,24,-0.001302083,0,1,0,0,center_square,0,23,23,51,1,,,,,,,,,,,,,,,,,,,,,,,
844457,001,2022-11-20_17h59.16.882,Info_measure_main_exp,2022.2.2,Win32,59.9268892,,,,,,,,,,,,,,,,,,masks/mask_002.jpg,,,,,,,,,,,,,,,,,,,,,,,,,,,,,,,,,,,,,,,,,,,0,0,0,1,1,,,,,,,,,,,,,,,,,,,,,,,,,,,,,,,,,,,,,,,,,,,,,,
844457,001,2022-11-20_17h59.16.882,Info_measure_main_exp,2022.2.2,Win32,59.9268892,,,,,,,,,,,,,,,,,,masks/mask_005.jpg,,,,,,,,,,,,,,,,,,,,,,,,,,,,,,,,,,,,,,,,,,,0,1,1,4,1,,,,,,,,,,,,,,,,,,,,,,,,,,,,,,,,,,,,,,,,,,,,,,
844457,001,2022-11-20_17h59.16.882,Info_measure_main_exp,2022.2.2,Win32,59.9268892,,,,,,,,,,,,,,,,,,masks/mask_001.jpg,,,,,,,,,,,,,,,,,,,,,,,,,,,,,,,,,,,,,,,,,,,0,2,2,0,1,,,,,,,,,,,,,,,,,,,,,,,,,,,,,,,,,,,,,,,,,,,,,,
844457,001,2022-11-20_17h59.16.882,Info_measure_main_exp,2022.2.2,Win32,59.9268892,,,,,,,,,,,,,,,,,,masks/mask_004.jpg,,,,,,,,,,,,,,,,,,,,,,,,,,,,,,,,,,,,,,,,,,,0,3,3,3,1,,,,,,,,,,,,,,,,,,,,,,,,,,,,,,,,,,,,,,,,,,,,,,
844457,001,2022-11-20_17h59.16.882,Info_measure_main_exp,2022.2.2,Win32,59.9268892,,,,,,,,,,,,,,,,,,masks/mask_003.jpg,,,,,,,,,,,,,,,,,,,,,,,,,,,,,,,,,,,,,,,,,,,0,4,4,2,1,,,,,,,,,,,,,,,,,,,,,,,,,,,,,,,,,,,,,,,,,,,,,,
844457,001,2022-11-20_17h59.16.882,Info_measure_main_exp,2022.2.2,Win32,59.9268892,,,,,,,,,,,,,,,,,,masks/mask_004.jpg,,,,,,,,,,,,,,,,,,,,,,,,,,,,,,,,,,,,,,,,,,,,,,,,0,0,0,3,1,,,,,,,,,,,,,,,,,,,,,,,,,,,,,,,,,,,,,,,,,
844457,001,2022-11-20_17h59.16.882,Info_measure_main_exp,2022.2.2,Win32,59.9268892,,,,,,,,,,,,,,,,,,masks/mask_003.jpg,,,,,,,,,,,,,,,,,,,,,,,,,,,,,,,,,,,,,,,,,,,,,,,,0,1,1,2,1,,,,,,,,,,,,,,,,,,,,,,,,,,,,,,,,,,,,,,,,,
844457,001,2022-11-20_17h59.16.882,Info_measure_main_exp,2022.2.2,Win32,59.9268892,,,,,,,,,,,,,,,,,,masks/mask_005.jpg,,,,,,,,,,,,,,,,,,,,,,,,,,,,,,,,,,,,,,,,,,,,,,,,0,2,2,4,1,,,,,,,,,,,,,,,,,,,,,,,,,,,,,,,,,,,,,,,,,
844457,001,2022-11-20_17h59.16.882,Info_measure_main_exp,2022.2.2,Win32,59.9268892,,,,,,,,,,,,,,,,,,masks/mask_002.jpg,,,,,,,,,,,,,,,,,,,,,,,,,,,,,,,,,,,,,,,,,,,,,,,,0,3,3,1,1,,,,,,,,,,,,,,,,,,,,,,,,,,,,,,,,,,,,,,,,,
844457,001,2022-11-20_17h59.16.882,Info_measure_main_exp,2022.2.2,Win32,59.9268892,,,,,,,,,,,,,,,,,,masks/mask_001.jpg,,,,,,,,,,,,,,,,,,,,,,,,,,,,,,,,,,,,,,,,,,,,,,,,0,4,4,0,1,,,,,,,,,,,,,,,,,,,,,,,,,,,,,,,,,,,,,,,,,
844457,001,2022-11-20_17h59.16.882,Info_measure_main_exp,2022.2.2,Win32,59.9268892,,,,,,,,,,,,,,,,,,,,,,,,,,,,,,1,1.5519,1,,,,,,,,,,,,0,131,5,5,2238,2166,absent_patch/patch0002238.jpg,absent_patch/patch0002166.jpg,,,,,,,,,,,,,,,,,,,,-0.098958333,0.048177083,1,0,0,response7disk,25,0.001302083,0.010416667,1,0,0,center_square,0,24,24,118,1,,,,,,,,,,,,,,,,,,,,,,,
844457,001,2022-11-20_17h59.16.882,Info_measure_main_exp,2022.2.2,Win32,59.9268892,,,,,,,,,,,,,,,,,,masks/mask_005.jpg,,,,,,,,,,,,,,,,,,,,,,,,,,,,,,,,,,,,,,,,,,,0,0,0,4,1,,,,,,,,,,,,,,,,,,,,,,,,,,,,,,,,,,,,,,,,,,,,,,
844457,001,2022-11-20_17h59.16.882,Info_measure_main_exp,2022.2.2,Win32,59.9268892,,,,,,,,,,,,,,,,,,masks/mask_002.jpg,,,,,,,,,,,,,,,,,,,,,,,,,,,,,,,,,,,,,,,,,,,0,1,1,1,1,,,,,,,,,,,,,,,,,,,,,,,,,,,,,,,,,,,,,,,,,,,,,,
844457,001,2022-11-20_17h59.16.882,Info_measure_main_exp,2022.2.2,Win32,59.9268892,,,,,,,,,,,,,,,,,,masks/mask_001.jpg,,,,,,,,,,,,,,,,,,,,,,,,,,,,,,,,,,,,,,,,,,,0,2,2,0,1,,,,,,,,,,,,,,,,,,,,,,,,,,,,,,,,,,,,,,,,,,,,,,
844457,001,2022-11-20_17h59.16.882,Info_measure_main_exp,2022.2.2,Win32,59.9268892,,,,,,,,,,,,,,,,,,masks/mask_003.jpg,,,,,,,,,,,,,,,,,,,,,,,,,,,,,,,,,,,,,,,,,,,0,3,3,2,1,,,,,,,,,,,,,,,,,,,,,,,,,,,,,,,,,,,,,,,,,,,,,,
844457,001,2022-11-20_17h59.16.882,Info_measure_main_exp,2022.2.2,Win32,59.9268892,,,,,,,,,,,,,,,,,,masks/mask_004.jpg,,,,,,,,,,,,,,,,,,,,,,,,,,,,,,,,,,,,,,,,,,,0,4,4,3,1,,,,,,,,,,,,,,,,,,,,,,,,,,,,,,,,,,,,,,,,,,,,,,
844457,001,2022-11-20_17h59.16.882,Info_measure_main_exp,2022.2.2,Win32,59.9268892,,,,,,,,,,,,,,,,,,masks/mask_005.jpg,,,,,,,,,,,,,,,,,,,,,,,,,,,,,,,,,,,,,,,,,,,,,,,,0,0,0,4,1,,,,,,,,,,,,,,,,,,,,,,,,,,,,,,,,,,,,,,,,,
844457,001,2022-11-20_17h59.16.882,Info_measure_main_exp,2022.2.2,Win32,59.9268892,,,,,,,,,,,,,,,,,,masks/mask_001.jpg,,,,,,,,,,,,,,,,,,,,,,,,,,,,,,,,,,,,,,,,,,,,,,,,0,1,1,0,1,,,,,,,,,,,,,,,,,,,,,,,,,,,,,,,,,,,,,,,,,
844457,001,2022-11-20_17h59.16.882,Info_measure_main_exp,2022.2.2,Win32,59.9268892,,,,,,,,,,,,,,,,,,masks/mask_004.jpg,,,,,,,,,,,,,,,,,,,,,,,,,,,,,,,,,,,,,,,,,,,,,,,,0,2,2,3,1,,,,,,,,,,,,,,,,,,,,,,,,,,,,,,,,,,,,,,,,,
844457,001,2022-11-20_17h59.16.882,Info_measure_main_exp,2022.2.2,Win32,59.9268892,,,,,,,,,,,,,,,,,,masks/mask_003.jpg,,,,,,,,,,,,,,,,,,,,,,,,,,,,,,,,,,,,,,,,,,,,,,,,0,3,3,2,1,,,,,,,,,,,,,,,,,,,,,,,,,,,,,,,,,,,,,,,,,
844457,001,2022-11-20_17h59.16.882,Info_measure_main_exp,2022.2.2,Win32,59.9268892,,,,,,,,,,,,,,,,,,masks/mask_002.jpg,,,,,,,,,,,,,,,,,,,,,,,,,,,,,,,,,,,,,,,,,,,,,,,,0,4,4,1,1,,,,,,,,,,,,,,,,,,,,,,,,,,,,,,,,,,,,,,,,,
844457,001,2022-11-20_17h59.16.882,Info_measure_main_exp,2022.2.2,Win32,59.9268892,,,,,,,,,,,,,,,,,,,,,,,,,,,,,,4,1.8334,1,,,,,,,,,,,,0,131,5,5,2250,2238,absent_patch/patch0002250.jpg,absent_patch/patch0002238.jpg,,,,,,,,,,,,,,,,,,,,0.013020833,-0.119791667,1,0,0,response3disk,26,-0.010416667,0.006510417,1,0,0,center_square,0,25,25,110,1,,,,,,,,,,,,,,,,,,,,,,,
844457,001,2022-11-20_17h59.16.882,Info_measure_main_exp,2022.2.2,Win32,59.9268892,,,,,,,,,,,,,,,,,,masks/mask_003.jpg,,,,,,,,,,,,,,,,,,,,,,,,,,,,,,,,,,,,,,,,,,,0,0,0,2,1,,,,,,,,,,,,,,,,,,,,,,,,,,,,,,,,,,,,,,,,,,,,,,
844457,001,2022-11-20_17h59.16.882,Info_measure_main_exp,2022.2.2,Win32,59.9268892,,,,,,,,,,,,,,,,,,masks/mask_002.jpg,,,,,,,,,,,,,,,,,,,,,,,,,,,,,,,,,,,,,,,,,,,0,1,1,1,1,,,,,,,,,,,,,,,,,,,,,,,,,,,,,,,,,,,,,,,,,,,,,,
844457,001,2022-11-20_17h59.16.882,Info_measure_main_exp,2022.2.2,Win32,59.9268892,,,,,,,,,,,,,,,,,,masks/mask_004.jpg,,,,,,,,,,,,,,,,,,,,,,,,,,,,,,,,,,,,,,,,,,,0,2,2,3,1,,,,,,,,,,,,,,,,,,,,,,,,,,,,,,,,,,,,,,,,,,,,,,
844457,001,2022-11-20_17h59.16.882,Info_measure_main_exp,2022.2.2,Win32,59.9268892,,,,,,,,,,,,,,,,,,masks/mask_005.jpg,,,,,,,,,,,,,,,,,,,,,,,,,,,,,,,,,,,,,,,,,,,0,3,3,4,1,,,,,,,,,,,,,,,,,,,,,,,,,,,,,,,,,,,,,,,,,,,,,,
844457,001,2022-11-20_17h59.16.882,Info_measure_main_exp,2022.2.2,Win32,59.9268892,,,,,,,,,,,,,,,,,,masks/mask_001.jpg,,,,,,,,,,,,,,,,,,,,,,,,,,,,,,,,,,,,,,,,,,,0,4,4,0,1,,,,,,,,,,,,,,,,,,,,,,,,,,,,,,,,,,,,,,,,,,,,,,
844457,001,2022-11-20_17h59.16.882,Info_measure_main_exp,2022.2.2,Win32,59.9268892,,,,,,,,,,,,,,,,,,masks/mask_005.jpg,,,,,,,,,,,,,,,,,,,,,,,,,,,,,,,,,,,,,,,,,,,,,,,,0,0,0,4,1,,,,,,,,,,,,,,,,,,,,,,,,,,,,,,,,,,,,,,,,,
844457,001,2022-11-20_17h59.16.882,Info_measure_main_exp,2022.2.2,Win32,59.9268892,,,,,,,,,,,,,,,,,,masks/mask_001.jpg,,,,,,,,,,,,,,,,,,,,,,,,,,,,,,,,,,,,,,,,,,,,,,,,0,1,1,0,1,,,,,,,,,,,,,,,,,,,,,,,,,,,,,,,,,,,,,,,,,
844457,001,2022-11-20_17h59.16.882,Info_measure_main_exp,2022.2.2,Win32,59.9268892,,,,,,,,,,,,,,,,,,masks/mask_002.jpg,,,,,,,,,,,,,,,,,,,,,,,,,,,,,,,,,,,,,,,,,,,,,,,,0,2,2,1,1,,,,,,,,,,,,,,,,,,,,,,,,,,,,,,,,,,,,,,,,,
844457,001,2022-11-20_17h59.16.882,Info_measure_main_exp,2022.2.2,Win32,59.9268892,,,,,,,,,,,,,,,,,,masks/mask_004.jpg,,,,,,,,,,,,,,,,,,,,,,,,,,,,,,,,,,,,,,,,,,,,,,,,0,3,3,3,1,,,,,,,,,,,,,,,,,,,,,,,,,,,,,,,,,,,,,,,,,
844457,001,2022-11-20_17h59.16.882,Info_measure_main_exp,2022.2.2,Win32,59.9268892,,,,,,,,,,,,,,,,,,masks/mask_003.jpg,,,,,,,,,,,,,,,,,,,,,,,,,,,,,,,,,,,,,,,,,,,,,,,,0,4,4,2,1,,,,,,,,,,,,,,,,,,,,,,,,,,,,,,,,,,,,,,,,,
844457,001,2022-11-20_17h59.16.882,Info_measure_main_exp,2022.2.2,Win32,59.9268892,,,,,,,,,,,,,,,,,,,,,,,,,,,,,,0,0.7519,1,,,,,,,,,,,,0,131,5,5,2166,2166,absent_patch/patch0002166.jpg,absent_patch/patch0002166.jpg,,,,,,,,,,,,,,,,,,,,-0.061197917,0.180989583,1,0,0,response7disk,27,-0.00390625,0.010416667,1,0,0,center_square,0,26,26,42,1,,,,,,,,,,,,,,,,,,,,,,,
844457,001,2022-11-20_17h59.16.882,Info_measure_main_exp,2022.2.2,Win32,59.9268892,,,,,,,,,,,,,,,,,,masks/mask_004.jpg,,,,,,,,,,,,,,,,,,,,,,,,,,,,,,,,,,,,,,,,,,,0,0,0,3,1,,,,,,,,,,,,,,,,,,,,,,,,,,,,,,,,,,,,,,,,,,,,,,
844457,001,2022-11-20_17h59.16.882,Info_measure_main_exp,2022.2.2,Win32,59.9268892,,,,,,,,,,,,,,,,,,masks/mask_001.jpg,,,,,,,,,,,,,,,,,,,,,,,,,,,,,,,,,,,,,,,,,,,0,1,1,0,1,,,,,,,,,,,,,,,,,,,,,,,,,,,,,,,,,,,,,,,,,,,,,,
844457,001,2022-11-20_17h59.16.882,Info_measure_main_exp,2022.2.2,Win32,59.9268892,,,,,,,,,,,,,,,,,,masks/mask_005.jpg,,,,,,,,,,,,,,,,,,,,,,,,,,,,,,,,,,,,,,,,,,,0,2,2,4,1,,,,,,,,,,,,,,,,,,,,,,,,,,,,,,,,,,,,,,,,,,,,,,
844457,001,2022-11-20_17h59.16.882,Info_measure_main_exp,2022.2.2,Win32,59.9268892,,,,,,,,,,,,,,,,,,masks/mask_002.jpg,,,,,,,,,,,,,,,,,,,,,,,,,,,,,,,,,,,,,,,,,,,0,3,3,1,1,,,,,,,,,,,,,,,,,,,,,,,,,,,,,,,,,,,,,,,,,,,,,,
844457,001,2022-11-20_17h59.16.882,Info_measure_main_exp,2022.2.2,Win32,59.9268892,,,,,,,,,,,,,,,,,,masks/mask_003.jpg,,,,,,,,,,,,,,,,,,,,,,,,,,,,,,,,,,,,,,,,,,,0,4,4,2,1,,,,,,,,,,,,,,,,,,,,,,,,,,,,,,,,,,,,,,,,,,,,,,
844457,001,2022-11-20_17h59.16.882,Info_measure_main_exp,2022.2.2,Win32,59.9268892,,,,,,,,,,,,,,,,,,masks/mask_001.jpg,,,,,,,,,,,,,,,,,,,,,,,,,,,,,,,,,,,,,,,,,,,,,,,,0,0,0,0,1,,,,,,,,,,,,,,,,,,,,,,,,,,,,,,,,,,,,,,,,,
844457,001,2022-11-20_17h59.16.882,Info_measure_main_exp,2022.2.2,Win32,59.9268892,,,,,,,,,,,,,,,,,,masks/mask_003.jpg,,,,,,,,,,,,,,,,,,,,,,,,,,,,,,,,,,,,,,,,,,,,,,,,0,1,1,2,1,,,,,,,,,,,,,,,,,,,,,,,,,,,,,,,,,,,,,,,,,
844457,001,2022-11-20_17h59.16.882,Info_measure_main_exp,2022.2.2,Win32,59.9268892,,,,,,,,,,,,,,,,,,masks/mask_005.jpg,,,,,,,,,,,,,,,,,,,,,,,,,,,,,,,,,,,,,,,,,,,,,,,,0,2,2,4,1,,,,,,,,,,,,,,,,,,,,,,,,,,,,,,,,,,,,,,,,,
844457,001,2022-11-20_17h59.16.882,Info_measure_main_exp,2022.2.2,Win32,59.9268892,,,,,,,,,,,,,,,,,,masks/mask_002.jpg,,,,,,,,,,,,,,,,,,,,,,,,,,,,,,,,,,,,,,,,,,,,,,,,0,3,3,1,1,,,,,,,,,,,,,,,,,,,,,,,,,,,,,,,,,,,,,,,,,
844457,001,2022-11-20_17h59.16.882,Info_measure_main_exp,2022.2.2,Win32,59.9268892,,,,,,,,,,,,,,,,,,masks/mask_004.jpg,,,,,,,,,,,,,,,,,,,,,,,,,,,,,,,,,,,,,,,,,,,,,,,,0,4,4,3,1,,,,,,,,,,,,,,,,,,,,,,,,,,,,,,,,,,,,,,,,,
844457,001,2022-11-20_17h59.16.882,Info_measure_main_exp,2022.2.2,Win32,59.9268892,,,,,,,,,,,,,,,,,,,,,,,,,,,,,,1,2.9355,1,,,,,,,,,,,,0,131,5,5,1974,1950,absent_patch/patch0001974.jpg,absent_patch/patch0001950.jpg,,,,,,,,,,,,,,,,,,,,-0.1015625,0.05078125,1,0,0,response7disk,28,-0.002604167,0.0078125,1,0,0,center_square,0,27,27,17,1,,,,,,,,,,,,,,,,,,,,,,,
844457,001,2022-11-20_17h59.16.882,Info_measure_main_exp,2022.2.2,Win32,59.9268892,,,,,,,,,,,,,,,,,,masks/mask_003.jpg,,,,,,,,,,,,,,,,,,,,,,,,,,,,,,,,,,,,,,,,,,,0,0,0,2,1,,,,,,,,,,,,,,,,,,,,,,,,,,,,,,,,,,,,,,,,,,,,,,
844457,001,2022-11-20_17h59.16.882,Info_measure_main_exp,2022.2.2,Win32,59.9268892,,,,,,,,,,,,,,,,,,masks/mask_001.jpg,,,,,,,,,,,,,,,,,,,,,,,,,,,,,,,,,,,,,,,,,,,0,1,1,0,1,,,,,,,,,,,,,,,,,,,,,,,,,,,,,,,,,,,,,,,,,,,,,,
844457,001,2022-11-20_17h59.16.882,Info_measure_main_exp,2022.2.2,Win32,59.9268892,,,,,,,,,,,,,,,,,,masks/mask_002.jpg,,,,,,,,,,,,,,,,,,,,,,,,,,,,,,,,,,,,,,,,,,,0,2,2,1,1,,,,,,,,,,,,,,,,,,,,,,,,,,,,,,,,,,,,,,,,,,,,,,
844457,001,2022-11-20_17h59.16.882,Info_measure_main_exp,2022.2.2,Win32,59.9268892,,,,,,,,,,,,,,,,,,masks/mask_005.jpg,,,,,,,,,,,,,,,,,,,,,,,,,,,,,,,,,,,,,,,,,,,0,3,3,4,1,,,,,,,,,,,,,,,,,,,,,,,,,,,,,,,,,,,,,,,,,,,,,,
844457,001,2022-11-20_17h59.16.882,Info_measure_main_exp,2022.2.2,Win32,59.9268892,,,,,,,,,,,,,,,,,,masks/mask_004.jpg,,,,,,,,,,,,,,,,,,,,,,,,,,,,,,,,,,,,,,,,,,,0,4,4,3,1,,,,,,,,,,,,,,,,,,,,,,,,,,,,,,,,,,,,,,,,,,,,,,
844457,001,2022-11-20_17h59.16.882,Info_measure_main_exp,2022.2.2,Win32,59.9268892,,,,,,,,,,,,,,,,,,masks/mask_003.jpg,,,,,,,,,,,,,,,,,,,,,,,,,,,,,,,,,,,,,,,,,,,,,,,,0,0,0,2,1,,,,,,,,,,,,,,,,,,,,,,,,,,,,,,,,,,,,,,,,,
844457,001,2022-11-20_17h59.16.882,Info_measure_main_exp,2022.2.2,Win32,59.9268892,,,,,,,,,,,,,,,,,,masks/mask_001.jpg,,,,,,,,,,,,,,,,,,,,,,,,,,,,,,,,,,,,,,,,,,,,,,,,0,1,1,0,1,,,,,,,,,,,,,,,,,,,,,,,,,,,,,,,,,,,,,,,,,
844457,001,2022-11-20_17h59.16.882,Info_measure_main_exp,2022.2.2,Win32,59.9268892,,,,,,,,,,,,,,,,,,masks/mask_004.jpg,,,,,,,,,,,,,,,,,,,,,,,,,,,,,,,,,,,,,,,,,,,,,,,,0,2,2,3,1,,,,,,,,,,,,,,,,,,,,,,,,,,,,,,,,,,,,,,,,,
844457,001,2022-11-20_17h59.16.882,Info_measure_main_exp,2022.2.2,Win32,59.9268892,,,,,,,,,,,,,,,,,,masks/mask_005.jpg,,,,,,,,,,,,,,,,,,,,,,,,,,,,,,,,,,,,,,,,,,,,,,,,0,3,3,4,1,,,,,,,,,,,,,,,,,,,,,,,,,,,,,,,,,,,,,,,,,
844457,001,2022-11-20_17h59.16.882,Info_measure_main_exp,2022.2.2,Win32,59.9268892,,,,,,,,,,,,,,,,,,masks/mask_002.jpg,,,,,,,,,,,,,,,,,,,,,,,,,,,,,,,,,,,,,,,,,,,,,,,,0,4,4,1,1,,,,,,,,,,,,,,,,,,,,,,,,,,,,,,,,,,,,,,,,,
844457,001,2022-11-20_17h59.16.882,Info_measure_main_exp,2022.2.2,Win32,59.9268892,,,,,,,,,,,,,,,,,,,,,,,,,,,,,,4,3.339,1,,,,,,,,,,,,0,131,5,5,1950,2082,absent_patch/patch0001950.jpg,absent_patch/patch0002082.jpg,,,,,,,,,,,,,,,,,,,,0.0078125,-0.114583333,1,0,0,response3disk,29,-0.002604167,0.00390625,1,0,0,center_square,0,28,28,12,1,,,,,,,,,,,,,,,,,,,,,,,
844457,001,2022-11-20_17h59.16.882,Info_measure_main_exp,2022.2.2,Win32,59.9268892,,,,,,,,,,,,,,,,,,masks/mask_005.jpg,,,,,,,,,,,,,,,,,,,,,,,,,,,,,,,,,,,,,,,,,,,0,0,0,4,1,,,,,,,,,,,,,,,,,,,,,,,,,,,,,,,,,,,,,,,,,,,,,,
844457,001,2022-11-20_17h59.16.882,Info_measure_main_exp,2022.2.2,Win32,59.9268892,,,,,,,,,,,,,,,,,,masks/mask_001.jpg,,,,,,,,,,,,,,,,,,,,,,,,,,,,,,,,,,,,,,,,,,,0,1,1,0,1,,,,,,,,,,,,,,,,,,,,,,,,,,,,,,,,,,,,,,,,,,,,,,
844457,001,2022-11-20_17h59.16.882,Info_measure_main_exp,2022.2.2,Win32,59.9268892,,,,,,,,,,,,,,,,,,masks/mask_003.jpg,,,,,,,,,,,,,,,,,,,,,,,,,,,,,,,,,,,,,,,,,,,0,2,2,2,1,,,,,,,,,,,,,,,,,,,,,,,,,,,,,,,,,,,,,,,,,,,,,,
844457,001,2022-11-20_17h59.16.882,Info_measure_main_exp,2022.2.2,Win32,59.9268892,,,,,,,,,,,,,,,,,,masks/mask_002.jpg,,,,,,,,,,,,,,,,,,,,,,,,,,,,,,,,,,,,,,,,,,,0,3,3,1,1,,,,,,,,,,,,,,,,,,,,,,,,,,,,,,,,,,,,,,,,,,,,,,
844457,001,2022-11-20_17h59.16.882,Info_measure_main_exp,2022.2.2,Win32,59.9268892,,,,,,,,,,,,,,,,,,masks/mask_004.jpg,,,,,,,,,,,,,,,,,,,,,,,,,,,,,,,,,,,,,,,,,,,0,4,4,3,1,,,,,,,,,,,,,,,,,,,,,,,,,,,,,,,,,,,,,,,,,,,,,,
844457,001,2022-11-20_17h59.16.882,Info_measure_main_exp,2022.2.2,Win32,59.9268892,,,,,,,,,,,,,,,,,,masks/mask_005.jpg,,,,,,,,,,,,,,,,,,,,,,,,,,,,,,,,,,,,,,,,,,,,,,,,0,0,0,4,1,,,,,,,,,,,,,,,,,,,,,,,,,,,,,,,,,,,,,,,,,
844457,001,2022-11-20_17h59.16.882,Info_measure_main_exp,2022.2.2,Win32,59.9268892,,,,,,,,,,,,,,,,,,masks/mask_002.jpg,,,,,,,,,,,,,,,,,,,,,,,,,,,,,,,,,,,,,,,,,,,,,,,,0,1,1,1,1,,,,,,,,,,,,,,,,,,,,,,,,,,,,,,,,,,,,,,,,,
844457,001,2022-11-20_17h59.16.882,Info_measure_main_exp,2022.2.2,Win32,59.9268892,,,,,,,,,,,,,,,,,,masks/mask_004.jpg,,,,,,,,,,,,,,,,,,,,,,,,,,,,,,,,,,,,,,,,,,,,,,,,0,2,2,3,1,,,,,,,,,,,,,,,,,,,,,,,,,,,,,,,,,,,,,,,,,
844457,001,2022-11-20_17h59.16.882,Info_measure_main_exp,2022.2.2,Win32,59.9268892,,,,,,,,,,,,,,,,,,masks/mask_003.jpg,,,,,,,,,,,,,,,,,,,,,,,,,,,,,,,,,,,,,,,,,,,,,,,,0,3,3,2,1,,,,,,,,,,,,,,,,,,,,,,,,,,,,,,,,,,,,,,,,,
844457,001,2022-11-20_17h59.16.882,Info_measure_main_exp,2022.2.2,Win32,59.9268892,,,,,,,,,,,,,,,,,,masks/mask_001.jpg,,,,,,,,,,,,,,,,,,,,,,,,,,,,,,,,,,,,,,,,,,,,,,,,0,4,4,0,1,,,,,,,,,,,,,,,,,,,,,,,,,,,,,,,,,,,,,,,,,
844457,001,2022-11-20_17h59.16.882,Info_measure_main_exp,2022.2.2,Win32,59.9268892,,,,,,,,,,,,,,,,,,,,,,,,,,,,,,5,2.0005,1,,,,,,,,,,,,0,131,5,5,2082,2166,absent_patch/patch0002082.jpg,absent_patch/patch0002166.jpg,,,,,,,,,,,,,,,,,,,,0.059895833,-0.001302083,1,0,0,response3disk,30,-0.009114583,0.009114583,1,0,0,center_square,0,29,29,43,1,,,,,,,,,,,,,,,,,,,,,,,
844457,001,2022-11-20_17h59.16.882,Info_measure_main_exp,2022.2.2,Win32,59.9268892,,,,,,,,,,,,,,,,,,masks/mask_001.jpg,,,,,,,,,,,,,,,,,,,,,,,,,,,,,,,,,,,,,,,,,,,0,0,0,0,1,,,,,,,,,,,,,,,,,,,,,,,,,,,,,,,,,,,,,,,,,,,,,,
844457,001,2022-11-20_17h59.16.882,Info_measure_main_exp,2022.2.2,Win32,59.9268892,,,,,,,,,,,,,,,,,,masks/mask_003.jpg,,,,,,,,,,,,,,,,,,,,,,,,,,,,,,,,,,,,,,,,,,,0,1,1,2,1,,,,,,,,,,,,,,,,,,,,,,,,,,,,,,,,,,,,,,,,,,,,,,
844457,001,2022-11-20_17h59.16.882,Info_measure_main_exp,2022.2.2,Win32,59.9268892,,,,,,,,,,,,,,,,,,masks/mask_002.jpg,,,,,,,,,,,,,,,,,,,,,,,,,,,,,,,,,,,,,,,,,,,0,2,2,1,1,,,,,,,,,,,,,,,,,,,,,,,,,,,,,,,,,,,,,,,,,,,,,,
844457,001,2022-11-20_17h59.16.882,Info_measure_main_exp,2022.2.2,Win32,59.9268892,,,,,,,,,,,,,,,,,,masks/mask_004.jpg,,,,,,,,,,,,,,,,,,,,,,,,,,,,,,,,,,,,,,,,,,,0,3,3,3,1,,,,,,,,,,,,,,,,,,,,,,,,,,,,,,,,,,,,,,,,,,,,,,
844457,001,2022-11-20_17h59.16.882,Info_measure_main_exp,2022.2.2,Win32,59.9268892,,,,,,,,,,,,,,,,,,masks/mask_005.jpg,,,,,,,,,,,,,,,,,,,,,,,,,,,,,,,,,,,,,,,,,,,0,4,4,4,1,,,,,,,,,,,,,,,,,,,,,,,,,,,,,,,,,,,,,,,,,,,,,,
844457,001,2022-11-20_17h59.16.882,Info_measure_main_exp,2022.2.2,Win32,59.9268892,,,,,,,,,,,,,,,,,,masks/mask_005.jpg,,,,,,,,,,,,,,,,,,,,,,,,,,,,,,,,,,,,,,,,,,,,,,,,0,0,0,4,1,,,,,,,,,,,,,,,,,,,,,,,,,,,,,,,,,,,,,,,,,
844457,001,2022-11-20_17h59.16.882,Info_measure_main_exp,2022.2.2,Win32,59.9268892,,,,,,,,,,,,,,,,,,masks/mask_002.jpg,,,,,,,,,,,,,,,,,,,,,,,,,,,,,,,,,,,,,,,,,,,,,,,,0,1,1,1,1,,,,,,,,,,,,,,,,,,,,,,,,,,,,,,,,,,,,,,,,,
844457,001,2022-11-20_17h59.16.882,Info_measure_main_exp,2022.2.2,Win32,59.9268892,,,,,,,,,,,,,,,,,,masks/mask_004.jpg,,,,,,,,,,,,,,,,,,,,,,,,,,,,,,,,,,,,,,,,,,,,,,,,0,2,2,3,1,,,,,,,,,,,,,,,,,,,,,,,,,,,,,,,,,,,,,,,,,
844457,001,2022-11-20_17h59.16.882,Info_measure_main_exp,2022.2.2,Win32,59.9268892,,,,,,,,,,,,,,,,,,masks/mask_001.jpg,,,,,,,,,,,,,,,,,,,,,,,,,,,,,,,,,,,,,,,,,,,,,,,,0,3,3,0,1,,,,,,,,,,,,,,,,,,,,,,,,,,,,,,,,,,,,,,,,,
844457,001,2022-11-20_17h59.16.882,Info_measure_main_exp,2022.2.2,Win32,59.9268892,,,,,,,,,,,,,,,,,,masks/mask_003.jpg,,,,,,,,,,,,,,,,,,,,,,,,,,,,,,,,,,,,,,,,,,,,,,,,0,4,4,2,1,,,,,,,,,,,,,,,,,,,,,,,,,,,,,,,,,,,,,,,,,
844457,001,2022-11-20_17h59.16.882,Info_measure_main_exp,2022.2.2,Win32,59.9268892,,,,,,,,,,,,,,,,,,,,,,,,,,,,,,0,1.4662,1,,,,,,,,,,,,0,131,5,5,2142,2142,absent_patch/patch0002142.jpg,absent_patch/patch0002142.jpg,,,,,,,,,,,,,,,,,,,,-0.048177083,0.131510417,1,0,0,response7disk,31,-0.006510417,0.013020833,1,0,0,center_square,0,30,30,13,1,,,,,,,,,,,,,,,,,,,,,,,
844457,001,2022-11-20_17h59.16.882,Info_measure_main_exp,2022.2.2,Win32,59.9268892,,,,,,,,,,,,,,,,,,masks/mask_005.jpg,,,,,,,,,,,,,,,,,,,,,,,,,,,,,,,,,,,,,,,,,,,0,0,0,4,1,,,,,,,,,,,,,,,,,,,,,,,,,,,,,,,,,,,,,,,,,,,,,,
844457,001,2022-11-20_17h59.16.882,Info_measure_main_exp,2022.2.2,Win32,59.9268892,,,,,,,,,,,,,,,,,,masks/mask_004.jpg,,,,,,,,,,,,,,,,,,,,,,,,,,,,,,,,,,,,,,,,,,,0,1,1,3,1,,,,,,,,,,,,,,,,,,,,,,,,,,,,,,,,,,,,,,,,,,,,,,
844457,001,2022-11-20_17h59.16.882,Info_measure_main_exp,2022.2.2,Win32,59.9268892,,,,,,,,,,,,,,,,,,masks/mask_003.jpg,,,,,,,,,,,,,,,,,,,,,,,,,,,,,,,,,,,,,,,,,,,0,2,2,2,1,,,,,,,,,,,,,,,,,,,,,,,,,,,,,,,,,,,,,,,,,,,,,,
844457,001,2022-11-20_17h59.16.882,Info_measure_main_exp,2022.2.2,Win32,59.9268892,,,,,,,,,,,,,,,,,,masks/mask_002.jpg,,,,,,,,,,,,,,,,,,,,,,,,,,,,,,,,,,,,,,,,,,,0,3,3,1,1,,,,,,,,,,,,,,,,,,,,,,,,,,,,,,,,,,,,,,,,,,,,,,
844457,001,2022-11-20_17h59.16.882,Info_measure_main_exp,2022.2.2,Win32,59.9268892,,,,,,,,,,,,,,,,,,masks/mask_001.jpg,,,,,,,,,,,,,,,,,,,,,,,,,,,,,,,,,,,,,,,,,,,0,4,4,0,1,,,,,,,,,,,,,,,,,,,,,,,,,,,,,,,,,,,,,,,,,,,,,,
844457,001,2022-11-20_17h59.16.882,Info_measure_main_exp,2022.2.2,Win32,59.9268892,,,,,,,,,,,,,,,,,,masks/mask_002.jpg,,,,,,,,,,,,,,,,,,,,,,,,,,,,,,,,,,,,,,,,,,,,,,,,0,0,0,1,1,,,,,,,,,,,,,,,,,,,,,,,,,,,,,,,,,,,,,,,,,
844457,001,2022-11-20_17h59.16.882,Info_measure_main_exp,2022.2.2,Win32,59.9268892,,,,,,,,,,,,,,,,,,masks/mask_004.jpg,,,,,,,,,,,,,,,,,,,,,,,,,,,,,,,,,,,,,,,,,,,,,,,,0,1,1,3,1,,,,,,,,,,,,,,,,,,,,,,,,,,,,,,,,,,,,,,,,,
844457,001,2022-11-20_17h59.16.882,Info_measure_main_exp,2022.2.2,Win32,59.9268892,,,,,,,,,,,,,,,,,,masks/mask_003.jpg,,,,,,,,,,,,,,,,,,,,,,,,,,,,,,,,,,,,,,,,,,,,,,,,0,2,2,2,1,,,,,,,,,,,,,,,,,,,,,,,,,,,,,,,,,,,,,,,,,
844457,001,2022-11-20_17h59.16.882,Info_measure_main_exp,2022.2.2,Win32,59.9268892,,,,,,,,,,,,,,,,,,masks/mask_001.jpg,,,,,,,,,,,,,,,,,,,,,,,,,,,,,,,,,,,,,,,,,,,,,,,,0,3,3,0,1,,,,,,,,,,,,,,,,,,,,,,,,,,,,,,,,,,,,,,,,,
844457,001,2022-11-20_17h59.16.882,Info_measure_main_exp,2022.2.2,Win32,59.9268892,,,,,,,,,,,,,,,,,,masks/mask_005.jpg,,,,,,,,,,,,,,,,,,,,,,,,,,,,,,,,,,,,,,,,,,,,,,,,0,4,4,4,1,,,,,,,,,,,,,,,,,,,,,,,,,,,,,,,,,,,,,,,,,
844457,001,2022-11-20_17h59.16.882,Info_measure_main_exp,2022.2.2,Win32,59.9268892,,,,,,,,,,,,,,,,,,,,,,,,,,,,,,6,1.967,1,,,,,,,,,,,,0,131,5,5,2250,2178,absent_patch/patch0002250.jpg,absent_patch/patch0002178.jpg,,,,,,,,,,,,,,,,,,,,0.05078125,0.020833333,1,0,0,response1disk,32,0,0.010416667,1,0,0,center_square,0,31,31,48,1,,,,,,,,,,,,,,,,,,,,,,,
844457,001,2022-11-20_17h59.16.882,Info_measure_main_exp,2022.2.2,Win32,59.9268892,,,,,,,,,,,,,,,,,,masks/mask_004.jpg,,,,,,,,,,,,,,,,,,,,,,,,,,,,,,,,,,,,,,,,,,,0,0,0,3,1,,,,,,,,,,,,,,,,,,,,,,,,,,,,,,,,,,,,,,,,,,,,,,
844457,001,2022-11-20_17h59.16.882,Info_measure_main_exp,2022.2.2,Win32,59.9268892,,,,,,,,,,,,,,,,,,masks/mask_002.jpg,,,,,,,,,,,,,,,,,,,,,,,,,,,,,,,,,,,,,,,,,,,0,1,1,1,1,,,,,,,,,,,,,,,,,,,,,,,,,,,,,,,,,,,,,,,,,,,,,,
844457,001,2022-11-20_17h59.16.882,Info_measure_main_exp,2022.2.2,Win32,59.9268892,,,,,,,,,,,,,,,,,,masks/mask_005.jpg,,,,,,,,,,,,,,,,,,,,,,,,,,,,,,,,,,,,,,,,,,,0,2,2,4,1,,,,,,,,,,,,,,,,,,,,,,,,,,,,,,,,,,,,,,,,,,,,,,
844457,001,2022-11-20_17h59.16.882,Info_measure_main_exp,2022.2.2,Win32,59.9268892,,,,,,,,,,,,,,,,,,masks/mask_001.jpg,,,,,,,,,,,,,,,,,,,,,,,,,,,,,,,,,,,,,,,,,,,0,3,3,0,1,,,,,,,,,,,,,,,,,,,,,,,,,,,,,,,,,,,,,,,,,,,,,,
844457,001,2022-11-20_17h59.16.882,Info_measure_main_exp,2022.2.2,Win32,59.9268892,,,,,,,,,,,,,,,,,,masks/mask_003.jpg,,,,,,,,,,,,,,,,,,,,,,,,,,,,,,,,,,,,,,,,,,,0,4,4,2,1,,,,,,,,,,,,,,,,,,,,,,,,,,,,,,,,,,,,,,,,,,,,,,
844457,001,2022-11-20_17h59.16.882,Info_measure_main_exp,2022.2.2,Win32,59.9268892,,,,,,,,,,,,,,,,,,masks/mask_003.jpg,,,,,,,,,,,,,,,,,,,,,,,,,,,,,,,,,,,,,,,,,,,,,,,,0,0,0,2,1,,,,,,,,,,,,,,,,,,,,,,,,,,,,,,,,,,,,,,,,,
844457,001,2022-11-20_17h59.16.882,Info_measure_main_exp,2022.2.2,Win32,59.9268892,,,,,,,,,,,,,,,,,,masks/mask_001.jpg,,,,,,,,,,,,,,,,,,,,,,,,,,,,,,,,,,,,,,,,,,,,,,,,0,1,1,0,1,,,,,,,,,,,,,,,,,,,,,,,,,,,,,,,,,,,,,,,,,
844457,001,2022-11-20_17h59.16.882,Info_measure_main_exp,2022.2.2,Win32,59.9268892,,,,,,,,,,,,,,,,,,masks/mask_002.jpg,,,,,,,,,,,,,,,,,,,,,,,,,,,,,,,,,,,,,,,,,,,,,,,,0,2,2,1,1,,,,,,,,,,,,,,,,,,,,,,,,,,,,,,,,,,,,,,,,,
844457,001,2022-11-20_17h59.16.882,Info_measure_main_exp,2022.2.2,Win32,59.9268892,,,,,,,,,,,,,,,,,,masks/mask_004.jpg,,,,,,,,,,,,,,,,,,,,,,,,,,,,,,,,,,,,,,,,,,,,,,,,0,3,3,3,1,,,,,,,,,,,,,,,,,,,,,,,,,,,,,,,,,,,,,,,,,
844457,001,2022-11-20_17h59.16.882,Info_measure_main_exp,2022.2.2,Win32,59.9268892,,,,,,,,,,,,,,,,,,masks/mask_005.jpg,,,,,,,,,,,,,,,,,,,,,,,,,,,,,,,,,,,,,,,,,,,,,,,,0,4,4,4,1,,,,,,,,,,,,,,,,,,,,,,,,,,,,,,,,,,,,,,,,,
844457,001,2022-11-20_17h59.16.882,Info_measure_main_exp,2022.2.2,Win32,59.9268892,,,,,,,,,,,,,,,,,,,,,,,,,,,,,,2,1.9499,1,,,,,,,,,,,,0,131,5,5,2166,1986,absent_patch/patch0002166.jpg,absent_patch/patch0001986.jpg,,,,,,,,,,,,,,,,,,,,-0.123697917,-0.041666667,1,0,0,response5disk,33,-0.005208333,0.002604167,1,0,0,center_square,0,32,32,47,1,,,,,,,,,,,,,,,,,,,,,,,
844457,001,2022-11-20_17h59.16.882,Info_measure_main_exp,2022.2.2,Win32,59.9268892,,,,,,,,,,,,,,,,,,masks/mask_005.jpg,,,,,,,,,,,,,,,,,,,,,,,,,,,,,,,,,,,,,,,,,,,0,0,0,4,1,,,,,,,,,,,,,,,,,,,,,,,,,,,,,,,,,,,,,,,,,,,,,,
844457,001,2022-11-20_17h59.16.882,Info_measure_main_exp,2022.2.2,Win32,59.9268892,,,,,,,,,,,,,,,,,,masks/mask_001.jpg,,,,,,,,,,,,,,,,,,,,,,,,,,,,,,,,,,,,,,,,,,,0,1,1,0,1,,,,,,,,,,,,,,,,,,,,,,,,,,,,,,,,,,,,,,,,,,,,,,
844457,001,2022-11-20_17h59.16.882,Info_measure_main_exp,2022.2.2,Win32,59.9268892,,,,,,,,,,,,,,,,,,masks/mask_004.jpg,,,,,,,,,,,,,,,,,,,,,,,,,,,,,,,,,,,,,,,,,,,0,2,2,3,1,,,,,,,,,,,,,,,,,,,,,,,,,,,,,,,,,,,,,,,,,,,,,,
844457,001,2022-11-20_17h59.16.882,Info_measure_main_exp,2022.2.2,Win32,59.9268892,,,,,,,,,,,,,,,,,,masks/mask_003.jpg,,,,,,,,,,,,,,,,,,,,,,,,,,,,,,,,,,,,,,,,,,,0,3,3,2,1,,,,,,,,,,,,,,,,,,,,,,,,,,,,,,,,,,,,,,,,,,,,,,
844457,001,2022-11-20_17h59.16.882,Info_measure_main_exp,2022.2.2,Win32,59.9268892,,,,,,,,,,,,,,,,,,masks/mask_002.jpg,,,,,,,,,,,,,,,,,,,,,,,,,,,,,,,,,,,,,,,,,,,0,4,4,1,1,,,,,,,,,,,,,,,,,,,,,,,,,,,,,,,,,,,,,,,,,,,,,,
844457,001,2022-11-20_17h59.16.882,Info_measure_main_exp,2022.2.2,Win32,59.9268892,,,,,,,,,,,,,,,,,,masks/mask_005.jpg,,,,,,,,,,,,,,,,,,,,,,,,,,,,,,,,,,,,,,,,,,,,,,,,0,0,0,4,1,,,,,,,,,,,,,,,,,,,,,,,,,,,,,,,,,,,,,,,,,
844457,001,2022-11-20_17h59.16.882,Info_measure_main_exp,2022.2.2,Win32,59.9268892,,,,,,,,,,,,,,,,,,masks/mask_001.jpg,,,,,,,,,,,,,,,,,,,,,,,,,,,,,,,,,,,,,,,,,,,,,,,,0,1,1,0,1,,,,,,,,,,,,,,,,,,,,,,,,,,,,,,,,,,,,,,,,,
844457,001,2022-11-20_17h59.16.882,Info_measure_main_exp,2022.2.2,Win32,59.9268892,,,,,,,,,,,,,,,,,,masks/mask_004.jpg,,,,,,,,,,,,,,,,,,,,,,,,,,,,,,,,,,,,,,,,,,,,,,,,0,2,2,3,1,,,,,,,,,,,,,,,,,,,,,,,,,,,,,,,,,,,,,,,,,
844457,001,2022-11-20_17h59.16.882,Info_measure_main_exp,2022.2.2,Win32,59.9268892,,,,,,,,,,,,,,,,,,masks/mask_003.jpg,,,,,,,,,,,,,,,,,,,,,,,,,,,,,,,,,,,,,,,,,,,,,,,,0,3,3,2,1,,,,,,,,,,,,,,,,,,,,,,,,,,,,,,,,,,,,,,,,,
844457,001,2022-11-20_17h59.16.882,Info_measure_main_exp,2022.2.2,Win32,59.9268892,,,,,,,,,,,,,,,,,,masks/mask_002.jpg,,,,,,,,,,,,,,,,,,,,,,,,,,,,,,,,,,,,,,,,,,,,,,,,0,4,4,1,1,,,,,,,,,,,,,,,,,,,,,,,,,,,,,,,,,,,,,,,,,
844457,001,2022-11-20_17h59.16.882,Info_measure_main_exp,2022.2.2,Win32,59.9268892,,,,,,,,,,,,,,,,,,,,,,,,,,,,,,7,1.6835,1,,,,,,,,,,,,1,131,5,5,2250,1,absent_patch/patch0002250.jpg,present_patch/cong_131_5_a.jpg,,,,,,,,,,,,,,,,,,,,0.084635417,0.143229167,1,0,0,response1disk,34,0.00390625,0.0078125,1,0,0,center_square,0,33,33,5,1,,,,,,,,,,,,,,,,,,,,,,,
844457,001,2022-11-20_17h59.16.882,Info_measure_main_exp,2022.2.2,Win32,59.9268892,,,,,,,,,,,,,,,,,,masks/mask_001.jpg,,,,,,,,,,,,,,,,,,,,,,,,,,,,,,,,,,,,,,,,,,,0,0,0,0,1,,,,,,,,,,,,,,,,,,,,,,,,,,,,,,,,,,,,,,,,,,,,,,
844457,001,2022-11-20_17h59.16.882,Info_measure_main_exp,2022.2.2,Win32,59.9268892,,,,,,,,,,,,,,,,,,masks/mask_004.jpg,,,,,,,,,,,,,,,,,,,,,,,,,,,,,,,,,,,,,,,,,,,0,1,1,3,1,,,,,,,,,,,,,,,,,,,,,,,,,,,,,,,,,,,,,,,,,,,,,,
844457,001,2022-11-20_17h59.16.882,Info_measure_main_exp,2022.2.2,Win32,59.9268892,,,,,,,,,,,,,,,,,,masks/mask_005.jpg,,,,,,,,,,,,,,,,,,,,,,,,,,,,,,,,,,,,,,,,,,,0,2,2,4,1,,,,,,,,,,,,,,,,,,,,,,,,,,,,,,,,,,,,,,,,,,,,,,
844457,001,2022-11-20_17h59.16.882,Info_measure_main_exp,2022.2.2,Win32,59.9268892,,,,,,,,,,,,,,,,,,masks/mask_003.jpg,,,,,,,,,,,,,,,,,,,,,,,,,,,,,,,,,,,,,,,,,,,0,3,3,2,1,,,,,,,,,,,,,,,,,,,,,,,,,,,,,,,,,,,,,,,,,,,,,,
844457,001,2022-11-20_17h59.16.882,Info_measure_main_exp,2022.2.2,Win32,59.9268892,,,,,,,,,,,,,,,,,,masks/mask_002.jpg,,,,,,,,,,,,,,,,,,,,,,,,,,,,,,,,,,,,,,,,,,,0,4,4,1,1,,,,,,,,,,,,,,,,,,,,,,,,,,,,,,,,,,,,,,,,,,,,,,
844457,001,2022-11-20_17h59.16.882,Info_measure_main_exp,2022.2.2,Win32,59.9268892,,,,,,,,,,,,,,,,,,masks/mask_002.jpg,,,,,,,,,,,,,,,,,,,,,,,,,,,,,,,,,,,,,,,,,,,,,,,,0,0,0,1,1,,,,,,,,,,,,,,,,,,,,,,,,,,,,,,,,,,,,,,,,,
844457,001,2022-11-20_17h59.16.882,Info_measure_main_exp,2022.2.2,Win32,59.9268892,,,,,,,,,,,,,,,,,,masks/mask_001.jpg,,,,,,,,,,,,,,,,,,,,,,,,,,,,,,,,,,,,,,,,,,,,,,,,0,1,1,0,1,,,,,,,,,,,,,,,,,,,,,,,,,,,,,,,,,,,,,,,,,
844457,001,2022-11-20_17h59.16.882,Info_measure_main_exp,2022.2.2,Win32,59.9268892,,,,,,,,,,,,,,,,,,masks/mask_005.jpg,,,,,,,,,,,,,,,,,,,,,,,,,,,,,,,,,,,,,,,,,,,,,,,,0,2,2,4,1,,,,,,,,,,,,,,,,,,,,,,,,,,,,,,,,,,,,,,,,,
844457,001,2022-11-20_17h59.16.882,Info_measure_main_exp,2022.2.2,Win32,59.9268892,,,,,,,,,,,,,,,,,,masks/mask_004.jpg,,,,,,,,,,,,,,,,,,,,,,,,,,,,,,,,,,,,,,,,,,,,,,,,0,3,3,3,1,,,,,,,,,,,,,,,,,,,,,,,,,,,,,,,,,,,,,,,,,
844457,001,2022-11-20_17h59.16.882,Info_measure_main_exp,2022.2.2,Win32,59.9268892,,,,,,,,,,,,,,,,,,masks/mask_003.jpg,,,,,,,,,,,,,,,,,,,,,,,,,,,,,,,,,,,,,,,,,,,,,,,,0,4,4,2,1,,,,,,,,,,,,,,,,,,,,,,,,,,,,,,,,,,,,,,,,,
