participant,session,date,expName,psychopyVersion,OS,frameRate,space_press_continue.keys,space_press_continue.rt,space_press_continue_2.keys,space_press_continue_2.rt,space_press_continue_3.keys,space_press_continue_3.rt,space_press_continue_4.keys,space_press_continue_4.rt,space_press_continue_5.keys,space_press_continue_5.rt,space_press_continue_6.keys,space_press_continue_6.rt,prac_mask_loop_1.thisRepN,prac_mask_loop_1.thisTrialN,prac_mask_loop_1.thisN,prac_mask_loop_1.thisIndex,prac_mask_loop_1.ran,mask_name,prac_mask_loop_2.thisRepN,prac_mask_loop_2.thisTrialN,prac_mask_loop_2.thisN,prac_mask_loop_2.thisIndex,prac_mask_loop_2.ran,mouse_2.x,mouse_2.y,mouse_2.leftButton,mouse_2.midButton,mouse_2.rightButton,mouse_2.clicked_name,similarity,response_time,Pass,mouse_12.x,mouse_12.y,mouse_12.leftButton,mouse_12.midButton,mouse_12.rightButton,mouse_12.clicked_name,prac_loop.thisRepN,prac_loop.thisTrialN,prac_loop.thisN,prac_loop.thisIndex,prac_loop.ran,Pair_type,Image_num,Patch_1_loc,Patch_2_loc,Patch_1_info,Patch_2_info,Patch_1_name,Patch_2_name,mouse_1.x,mouse_1.y,mouse_1.leftButton,mouse_1.midButton,mouse_1.rightButton,mouse_1.time,mouse_1.clicked_name,space_press_continue_7.keys,space_press_continue_7.rt,mask_loop.thisRepN,mask_loop.thisTrialN,mask_loop.thisN,mask_loop.thisIndex,mask_loop.ran,mask_loop_2.thisRepN,mask_loop_2.thisTrialN,mask_loop_2.thisN,mask_loop_2.thisIndex,mask_loop_2.ran,mouse.x,mouse.y,mouse.leftButton,mouse.midButton,mouse.rightButton,mouse.clicked_name,trialNumber,mouse_11.x,mouse_11.y,mouse_11.leftButton,mouse_11.midButton,mouse_11.rightButton,mouse_11.clicked_name,first_pass_loop.thisRepN,first_pass_loop.thisTrialN,first_pass_loop.thisN,first_pass_loop.thisIndex,first_pass_loop.ran,mask_loop_3.thisRepN,mask_loop_3.thisTrialN,mask_loop_3.thisN,mask_loop_3.thisIndex,mask_loop_3.ran,mask_loop_4.thisRepN,mask_loop_4.thisTrialN,mask_loop_4.thisN,mask_loop_4.thisIndex,mask_loop_4.ran,mouse_3.x,mouse_3.y,mouse_3.leftButton,mouse_3.midButton,mouse_3.rightButton,mouse_3.clicked_name,double_pass_loop.thisRepN,double_pass_loop.thisTrialN,double_pass_loop.thisN,double_pass_loop.thisIndex,double_pass_loop.ran,space_exit.keys,space_exit.rt
850851,001,2022-11-20_23h54.18.345,Info_measure_main_exp,2022.2.2,Win32,161.6814875,,,,,,,,,,,,,,,,,,,,,,,,,,,,,,,,,,,,,,,,,,,,,,,,,,,,,,,,,,,,,,,,,,,,,,,,,,,,,,,,,,,,,,,,,,,,,,,,,,,,,,,,,,,,,,,
850851,001,2022-11-20_23h54.18.345,Info_measure_main_exp,2022.2.2,Win32,161.6814875,,,,,,,,,,,,,,,,,,,,,,,,,,,,,,,,,,,,,,,,,,,,,,,,,,,,,,,,,,,,,,,,,,,,,,,,,,,,,,,,,,,,,,,,,,,,,,,,,,,,,,,,,,,,,,,
850851,001,2022-11-20_23h54.18.345,Info_measure_main_exp,2022.2.2,Win32,161.6814875,space,6.3392,,,,,,,,,,,,,,,,,,,,,,,,,,,,,,,,,,,,,,,,,,,,,,,,,,,,,,,,,,,,,,,,,,,,,,,,,,,,,,,,,,,,,,,,,,,,,,,,,,,,,,,,,,,,,
850851,001,2022-11-20_23h54.18.345,Info_measure_main_exp,2022.2.2,Win32,161.6814875,,,space,33.0049,,,,,,,,,,,,,,,,,,,,,,,,,,,,,,,,,,,,,,,,,,,,,,,,,,,,,,,,,,,,,,,,,,,,,,,,,,,,,,,,,,,,,,,,,,,,,,,,,,,,,,,,,,,
850851,001,2022-11-20_23h54.18.345,Info_measure_main_exp,2022.2.2,Win32,161.6814875,,,,,space,7.95,,,,,,,,,,,,,,,,,,,,,,,,,,,,,,,,,,,,,,,,,,,,,,,,,,,,,,,,,,,,,,,,,,,,,,,,,,,,,,,,,,,,,,,,,,,,,,,,,,,,,,,,,
850851,001,2022-11-20_23h54.18.345,Info_measure_main_exp,2022.2.2,Win32,161.6814875,,,,,,,space,11.3621,,,,,,,,,,,,,,,,,,,,,,,,,,,,,,,,,,,,,,,,,,,,,,,,,,,,,,,,,,,,,,,,,,,,,,,,,,,,,,,,,,,,,,,,,,,,,,,,,,,,,,,
850851,001,2022-11-20_23h54.18.345,Info_measure_main_exp,2022.2.2,Win32,161.6814875,,,,,,,,,space,6.7335,,,,,,,,,,,,,,,,,,,,,,,,,,,,,,,,,,,,,,,,,,,,,,,,,,,,,,,,,,,,,,,,,,,,,,,,,,,,,,,,,,,,,,,,,,,,,,,,,,,,,
850851,001,2022-11-20_23h54.18.345,Info_measure_main_exp,2022.2.2,Win32,161.6814875,,,,,,,,,,,space,7.1169,,,,,,,,,,,,,,,,,,,,,,,,,,,,,,,,,,,,,,,,,,,,,,,,,,,,,,,,,,,,,,,,,,,,,,,,,,,,,,,,,,,,,,,,,,,,,,,,,,,
850851,001,2022-11-20_23h54.18.345,Info_measure_main_exp,2022.2.2,Win32,161.6814875,,,,,,,,,,,,,0,0,0,0,1,masks/mask_001.jpg,,,,,,,,,,,,,,,,,,,,,,,,,,,,,,,,,,,,,,,,,,,,,,,,,,,,,,,,,,,,,,,,,,,,,,,,,,,,,,,,,,,,,,,,,,,,,
850851,001,2022-11-20_23h54.18.345,Info_measure_main_exp,2022.2.2,Win32,161.6814875,,,,,,,,,,,,,0,1,1,1,1,masks/mask_002.jpg,,,,,,,,,,,,,,,,,,,,,,,,,,,,,,,,,,,,,,,,,,,,,,,,,,,,,,,,,,,,,,,,,,,,,,,,,,,,,,,,,,,,,,,,,,,,,
850851,001,2022-11-20_23h54.18.345,Info_measure_main_exp,2022.2.2,Win32,161.6814875,,,,,,,,,,,,,0,2,2,2,1,masks/mask_003.jpg,,,,,,,,,,,,,,,,,,,,,,,,,,,,,,,,,,,,,,,,,,,,,,,,,,,,,,,,,,,,,,,,,,,,,,,,,,,,,,,,,,,,,,,,,,,,,
850851,001,2022-11-20_23h54.18.345,Info_measure_main_exp,2022.2.2,Win32,161.6814875,,,,,,,,,,,,,0,3,3,3,1,masks/mask_004.jpg,,,,,,,,,,,,,,,,,,,,,,,,,,,,,,,,,,,,,,,,,,,,,,,,,,,,,,,,,,,,,,,,,,,,,,,,,,,,,,,,,,,,,,,,,,,,,
850851,001,2022-11-20_23h54.18.345,Info_measure_main_exp,2022.2.2,Win32,161.6814875,,,,,,,,,,,,,0,4,4,4,1,masks/mask_005.jpg,,,,,,,,,,,,,,,,,,,,,,,,,,,,,,,,,,,,,,,,,,,,,,,,,,,,,,,,,,,,,,,,,,,,,,,,,,,,,,,,,,,,,,,,,,,,,
850851,001,2022-11-20_23h54.18.345,Info_measure_main_exp,2022.2.2,Win32,161.6814875,,,,,,,,,,,,,,,,,,masks/mask_005.jpg,0,0,0,4,1,,,,,,,,,,,,,,,,,,,,,,,,,,,,,,,,,,,,,,,,,,,,,,,,,,,,,,,,,,,,,,,,,,,,,,,,,,,,,,,,,,,,,,,,
850851,001,2022-11-20_23h54.18.345,Info_measure_main_exp,2022.2.2,Win32,161.6814875,,,,,,,,,,,,,,,,,,masks/mask_001.jpg,0,1,1,0,1,,,,,,,,,,,,,,,,,,,,,,,,,,,,,,,,,,,,,,,,,,,,,,,,,,,,,,,,,,,,,,,,,,,,,,,,,,,,,,,,,,,,,,,,
850851,001,2022-11-20_23h54.18.345,Info_measure_main_exp,2022.2.2,Win32,161.6814875,,,,,,,,,,,,,,,,,,masks/mask_004.jpg,0,2,2,3,1,,,,,,,,,,,,,,,,,,,,,,,,,,,,,,,,,,,,,,,,,,,,,,,,,,,,,,,,,,,,,,,,,,,,,,,,,,,,,,,,,,,,,,,,
850851,001,2022-11-20_23h54.18.345,Info_measure_main_exp,2022.2.2,Win32,161.6814875,,,,,,,,,,,,,,,,,,masks/mask_003.jpg,0,3,3,2,1,,,,,,,,,,,,,,,,,,,,,,,,,,,,,,,,,,,,,,,,,,,,,,,,,,,,,,,,,,,,,,,,,,,,,,,,,,,,,,,,,,,,,,,,
850851,001,2022-11-20_23h54.18.345,Info_measure_main_exp,2022.2.2,Win32,161.6814875,,,,,,,,,,,,,,,,,,masks/mask_002.jpg,0,4,4,1,1,,,,,,,,,,,,,,,,,,,,,,,,,,,,,,,,,,,,,,,,,,,,,,,,,,,,,,,,,,,,,,,,,,,,,,,,,,,,,,,,,,,,,,,,
850851,001,2022-11-20_23h54.18.345,Info_measure_main_exp,2022.2.2,Win32,161.6814875,,,,,,,,,,,,,,,,,,,,,,,,0.008333333,-0.068518519,1,0,0,response3disk,4,77.0443,1,0.007407407,-0.002777778,1,0,0,center_square,0,0,0,0,1,0,131,5,5,2370,2406,prac_patch/patch0002370.jpg,prac_patch/patch0002406.jpg,,,,,,,,,,,,,,,,,,,,,,,,,,,,,,,,,,,,,,,,,,,,,,,,,,,,,,,,,,,,
850851,001,2022-11-20_23h54.18.345,Info_measure_main_exp,2022.2.2,Win32,161.6814875,,,,,,,,,,,,,0,0,0,4,1,masks/mask_005.jpg,,,,,,,,,,,,,,,,,,,,,,,,,,,,,,,,,,,,,,,,,,,,,,,,,,,,,,,,,,,,,,,,,,,,,,,,,,,,,,,,,,,,,,,,,,,,,
850851,001,2022-11-20_23h54.18.345,Info_measure_main_exp,2022.2.2,Win32,161.6814875,,,,,,,,,,,,,0,1,1,0,1,masks/mask_001.jpg,,,,,,,,,,,,,,,,,,,,,,,,,,,,,,,,,,,,,,,,,,,,,,,,,,,,,,,,,,,,,,,,,,,,,,,,,,,,,,,,,,,,,,,,,,,,,
850851,001,2022-11-20_23h54.18.345,Info_measure_main_exp,2022.2.2,Win32,161.6814875,,,,,,,,,,,,,0,2,2,2,1,masks/mask_003.jpg,,,,,,,,,,,,,,,,,,,,,,,,,,,,,,,,,,,,,,,,,,,,,,,,,,,,,,,,,,,,,,,,,,,,,,,,,,,,,,,,,,,,,,,,,,,,,
850851,001,2022-11-20_23h54.18.345,Info_measure_main_exp,2022.2.2,Win32,161.6814875,,,,,,,,,,,,,0,3,3,3,1,masks/mask_004.jpg,,,,,,,,,,,,,,,,,,,,,,,,,,,,,,,,,,,,,,,,,,,,,,,,,,,,,,,,,,,,,,,,,,,,,,,,,,,,,,,,,,,,,,,,,,,,,
850851,001,2022-11-20_23h54.18.345,Info_measure_main_exp,2022.2.2,Win32,161.6814875,,,,,,,,,,,,,0,4,4,1,1,masks/mask_002.jpg,,,,,,,,,,,,,,,,,,,,,,,,,,,,,,,,,,,,,,,,,,,,,,,,,,,,,,,,,,,,,,,,,,,,,,,,,,,,,,,,,,,,,,,,,,,,,
850851,001,2022-11-20_23h54.18.345,Info_measure_main_exp,2022.2.2,Win32,161.6814875,,,,,,,,,,,,,,,,,,masks/mask_004.jpg,0,0,0,3,1,,,,,,,,,,,,,,,,,,,,,,,,,,,,,,,,,,,,,,,,,,,,,,,,,,,,,,,,,,,,,,,,,,,,,,,,,,,,,,,,,,,,,,,,
850851,001,2022-11-20_23h54.18.345,Info_measure_main_exp,2022.2.2,Win32,161.6814875,,,,,,,,,,,,,,,,,,masks/mask_005.jpg,0,1,1,4,1,,,,,,,,,,,,,,,,,,,,,,,,,,,,,,,,,,,,,,,,,,,,,,,,,,,,,,,,,,,,,,,,,,,,,,,,,,,,,,,,,,,,,,,,
850851,001,2022-11-20_23h54.18.345,Info_measure_main_exp,2022.2.2,Win32,161.6814875,,,,,,,,,,,,,,,,,,masks/mask_001.jpg,0,2,2,0,1,,,,,,,,,,,,,,,,,,,,,,,,,,,,,,,,,,,,,,,,,,,,,,,,,,,,,,,,,,,,,,,,,,,,,,,,,,,,,,,,,,,,,,,,
850851,001,2022-11-20_23h54.18.345,Info_measure_main_exp,2022.2.2,Win32,161.6814875,,,,,,,,,,,,,,,,,,masks/mask_003.jpg,0,3,3,2,1,,,,,,,,,,,,,,,,,,,,,,,,,,,,,,,,,,,,,,,,,,,,,,,,,,,,,,,,,,,,,,,,,,,,,,,,,,,,,,,,,,,,,,,,
850851,001,2022-11-20_23h54.18.345,Info_measure_main_exp,2022.2.2,Win32,161.6814875,,,,,,,,,,,,,,,,,,masks/mask_002.jpg,0,4,4,1,1,,,,,,,,,,,,,,,,,,,,,,,,,,,,,,,,,,,,,,,,,,,,,,,,,,,,,,,,,,,,,,,,,,,,,,,,,,,,,,,,,,,,,,,,
850851,001,2022-11-20_23h54.18.345,Info_measure_main_exp,2022.2.2,Win32,161.6814875,,,,,,,,,,,,,,,,,,,,,,,,-0.063888889,0.097222222,1,0,0,response7disk,0,92.0532,1,0.001851852,0.001851852,1,0,0,center_square,0,1,1,2,1,0,131,5,5,2526,2526,prac_patch/patch0002526.jpg,prac_patch/patch0002526.jpg,,,,,,,,,,,,,,,,,,,,,,,,,,,,,,,,,,,,,,,,,,,,,,,,,,,,,,,,,,,,
850851,001,2022-11-20_23h54.18.345,Info_measure_main_exp,2022.2.2,Win32,161.6814875,,,,,,,,,,,,,0,0,0,2,1,masks/mask_003.jpg,,,,,,,,,,,,,,,,,,,,,,,,,,,,,,,,,,,,,,,,,,,,,,,,,,,,,,,,,,,,,,,,,,,,,,,,,,,,,,,,,,,,,,,,,,,,,
850851,001,2022-11-20_23h54.18.345,Info_measure_main_exp,2022.2.2,Win32,161.6814875,,,,,,,,,,,,,0,1,1,4,1,masks/mask_005.jpg,,,,,,,,,,,,,,,,,,,,,,,,,,,,,,,,,,,,,,,,,,,,,,,,,,,,,,,,,,,,,,,,,,,,,,,,,,,,,,,,,,,,,,,,,,,,,
850851,001,2022-11-20_23h54.18.345,Info_measure_main_exp,2022.2.2,Win32,161.6814875,,,,,,,,,,,,,0,2,2,1,1,masks/mask_002.jpg,,,,,,,,,,,,,,,,,,,,,,,,,,,,,,,,,,,,,,,,,,,,,,,,,,,,,,,,,,,,,,,,,,,,,,,,,,,,,,,,,,,,,,,,,,,,,
850851,001,2022-11-20_23h54.18.345,Info_measure_main_exp,2022.2.2,Win32,161.6814875,,,,,,,,,,,,,0,3,3,3,1,masks/mask_004.jpg,,,,,,,,,,,,,,,,,,,,,,,,,,,,,,,,,,,,,,,,,,,,,,,,,,,,,,,,,,,,,,,,,,,,,,,,,,,,,,,,,,,,,,,,,,,,,
850851,001,2022-11-20_23h54.18.345,Info_measure_main_exp,2022.2.2,Win32,161.6814875,,,,,,,,,,,,,0,4,4,0,1,masks/mask_001.jpg,,,,,,,,,,,,,,,,,,,,,,,,,,,,,,,,,,,,,,,,,,,,,,,,,,,,,,,,,,,,,,,,,,,,,,,,,,,,,,,,,,,,,,,,,,,,,
850851,001,2022-11-20_23h54.18.345,Info_measure_main_exp,2022.2.2,Win32,161.6814875,,,,,,,,,,,,,,,,,,masks/mask_002.jpg,0,0,0,1,1,,,,,,,,,,,,,,,,,,,,,,,,,,,,,,,,,,,,,,,,,,,,,,,,,,,,,,,,,,,,,,,,,,,,,,,,,,,,,,,,,,,,,,,,
850851,001,2022-11-20_23h54.18.345,Info_measure_main_exp,2022.2.2,Win32,161.6814875,,,,,,,,,,,,,,,,,,masks/mask_001.jpg,0,1,1,0,1,,,,,,,,,,,,,,,,,,,,,,,,,,,,,,,,,,,,,,,,,,,,,,,,,,,,,,,,,,,,,,,,,,,,,,,,,,,,,,,,,,,,,,,,
850851,001,2022-11-20_23h54.18.345,Info_measure_main_exp,2022.2.2,Win32,161.6814875,,,,,,,,,,,,,,,,,,masks/mask_005.jpg,0,2,2,4,1,,,,,,,,,,,,,,,,,,,,,,,,,,,,,,,,,,,,,,,,,,,,,,,,,,,,,,,,,,,,,,,,,,,,,,,,,,,,,,,,,,,,,,,,
850851,001,2022-11-20_23h54.18.345,Info_measure_main_exp,2022.2.2,Win32,161.6814875,,,,,,,,,,,,,,,,,,masks/mask_004.jpg,0,3,3,3,1,,,,,,,,,,,,,,,,,,,,,,,,,,,,,,,,,,,,,,,,,,,,,,,,,,,,,,,,,,,,,,,,,,,,,,,,,,,,,,,,,,,,,,,,
850851,001,2022-11-20_23h54.18.345,Info_measure_main_exp,2022.2.2,Win32,161.6814875,,,,,,,,,,,,,,,,,,masks/mask_003.jpg,0,4,4,2,1,,,,,,,,,,,,,,,,,,,,,,,,,,,,,,,,,,,,,,,,,,,,,,,,,,,,,,,,,,,,,,,,,,,,,,,,,,,,,,,,,,,,,,,,
850851,001,2022-11-20_23h54.18.345,Info_measure_main_exp,2022.2.2,Win32,161.6814875,,,,,,,,,,,,,,,,,,,,,,,,0.075925926,-0.051851852,1,0,0,response3disk,5,104.0864,1,0.001851852,-0.001851852,1,0,0,center_square,0,2,2,1,1,0,131,5,5,2514,2490,prac_patch/patch0002514.jpg,prac_patch/patch0002490.jpg,,,,,,,,,,,,,,,,,,,,,,,,,,,,,,,,,,,,,,,,,,,,,,,,,,,,,,,,,,,,
850851,001,2022-11-20_23h54.18.345,Info_measure_main_exp,2022.2.2,Win32,161.6814875,,,,,,,,,,,,,,,,,,,,,,,,,,,,,,,,,,,,,,,,,,,,,,,,,,,,,,,,,,,space,2.8338,,,,,,,,,,,,,,,,,,,,,,,,,,,,,,,,,,,,,,,,,,,,,,,,,,,
850851,001,2022-11-20_23h54.18.345,Info_measure_main_exp,2022.2.2,Win32,161.6814875,,,,,,,,,,,,,,,,,,masks/mask_001.jpg,,,,,,,,,,,,,,,,,,,,,,,,,,,,,,,,,,,,,,,,,,,0,0,0,0,1,,,,,,,,,,,,,,,,,,,,,,,,,,,,,,,,,,,,,,,,,,,,,,
850851,001,2022-11-20_23h54.18.345,Info_measure_main_exp,2022.2.2,Win32,161.6814875,,,,,,,,,,,,,,,,,,masks/mask_004.jpg,,,,,,,,,,,,,,,,,,,,,,,,,,,,,,,,,,,,,,,,,,,0,1,1,3,1,,,,,,,,,,,,,,,,,,,,,,,,,,,,,,,,,,,,,,,,,,,,,,
850851,001,2022-11-20_23h54.18.345,Info_measure_main_exp,2022.2.2,Win32,161.6814875,,,,,,,,,,,,,,,,,,masks/mask_003.jpg,,,,,,,,,,,,,,,,,,,,,,,,,,,,,,,,,,,,,,,,,,,0,2,2,2,1,,,,,,,,,,,,,,,,,,,,,,,,,,,,,,,,,,,,,,,,,,,,,,
850851,001,2022-11-20_23h54.18.345,Info_measure_main_exp,2022.2.2,Win32,161.6814875,,,,,,,,,,,,,,,,,,masks/mask_002.jpg,,,,,,,,,,,,,,,,,,,,,,,,,,,,,,,,,,,,,,,,,,,0,3,3,1,1,,,,,,,,,,,,,,,,,,,,,,,,,,,,,,,,,,,,,,,,,,,,,,
850851,001,2022-11-20_23h54.18.345,Info_measure_main_exp,2022.2.2,Win32,161.6814875,,,,,,,,,,,,,,,,,,masks/mask_005.jpg,,,,,,,,,,,,,,,,,,,,,,,,,,,,,,,,,,,,,,,,,,,0,4,4,4,1,,,,,,,,,,,,,,,,,,,,,,,,,,,,,,,,,,,,,,,,,,,,,,
850851,001,2022-11-20_23h54.18.345,Info_measure_main_exp,2022.2.2,Win32,161.6814875,,,,,,,,,,,,,,,,,,masks/mask_005.jpg,,,,,,,,,,,,,,,,,,,,,,,,,,,,,,,,,,,,,,,,,,,,,,,,0,0,0,4,1,,,,,,,,,,,,,,,,,,,,,,,,,,,,,,,,,,,,,,,,,
850851,001,2022-11-20_23h54.18.345,Info_measure_main_exp,2022.2.2,Win32,161.6814875,,,,,,,,,,,,,,,,,,masks/mask_002.jpg,,,,,,,,,,,,,,,,,,,,,,,,,,,,,,,,,,,,,,,,,,,,,,,,0,1,1,1,1,,,,,,,,,,,,,,,,,,,,,,,,,,,,,,,,,,,,,,,,,
850851,001,2022-11-20_23h54.18.345,Info_measure_main_exp,2022.2.2,Win32,161.6814875,,,,,,,,,,,,,,,,,,masks/mask_001.jpg,,,,,,,,,,,,,,,,,,,,,,,,,,,,,,,,,,,,,,,,,,,,,,,,0,2,2,0,1,,,,,,,,,,,,,,,,,,,,,,,,,,,,,,,,,,,,,,,,,
850851,001,2022-11-20_23h54.18.345,Info_measure_main_exp,2022.2.2,Win32,161.6814875,,,,,,,,,,,,,,,,,,masks/mask_004.jpg,,,,,,,,,,,,,,,,,,,,,,,,,,,,,,,,,,,,,,,,,,,,,,,,0,3,3,3,1,,,,,,,,,,,,,,,,,,,,,,,,,,,,,,,,,,,,,,,,,
850851,001,2022-11-20_23h54.18.345,Info_measure_main_exp,2022.2.2,Win32,161.6814875,,,,,,,,,,,,,,,,,,masks/mask_003.jpg,,,,,,,,,,,,,,,,,,,,,,,,,,,,,,,,,,,,,,,,,,,,,,,,0,4,4,2,1,,,,,,,,,,,,,,,,,,,,,,,,,,,,,,,,,,,,,,,,,
850851,001,2022-11-20_23h54.18.345,Info_measure_main_exp,2022.2.2,Win32,161.6814875,,,,,,,,,,,,,,,,,,,,,,,,,,,,,,5,1.2502,1,,,,,,,,,,,,0,131,5,5,2190,2214,absent_patch/patch0002190.jpg,absent_patch/patch0002214.jpg,,,,,,,,,,,,,,,,,,,,0.042592593,-0.008333333,1,0,0,response3disk,1,0.001851852,-0.000925926,1,0,0,center_square,0,0,0,35,1,,,,,,,,,,,,,,,,,,,,,,,
850851,001,2022-11-20_23h54.18.345,Info_measure_main_exp,2022.2.2,Win32,161.6814875,,,,,,,,,,,,,,,,,,masks/mask_002.jpg,,,,,,,,,,,,,,,,,,,,,,,,,,,,,,,,,,,,,,,,,,,0,0,0,1,1,,,,,,,,,,,,,,,,,,,,,,,,,,,,,,,,,,,,,,,,,,,,,,
850851,001,2022-11-20_23h54.18.345,Info_measure_main_exp,2022.2.2,Win32,161.6814875,,,,,,,,,,,,,,,,,,masks/mask_001.jpg,,,,,,,,,,,,,,,,,,,,,,,,,,,,,,,,,,,,,,,,,,,0,1,1,0,1,,,,,,,,,,,,,,,,,,,,,,,,,,,,,,,,,,,,,,,,,,,,,,
850851,001,2022-11-20_23h54.18.345,Info_measure_main_exp,2022.2.2,Win32,161.6814875,,,,,,,,,,,,,,,,,,masks/mask_003.jpg,,,,,,,,,,,,,,,,,,,,,,,,,,,,,,,,,,,,,,,,,,,0,2,2,2,1,,,,,,,,,,,,,,,,,,,,,,,,,,,,,,,,,,,,,,,,,,,,,,
850851,001,2022-11-20_23h54.18.345,Info_measure_main_exp,2022.2.2,Win32,161.6814875,,,,,,,,,,,,,,,,,,masks/mask_005.jpg,,,,,,,,,,,,,,,,,,,,,,,,,,,,,,,,,,,,,,,,,,,0,3,3,4,1,,,,,,,,,,,,,,,,,,,,,,,,,,,,,,,,,,,,,,,,,,,,,,
850851,001,2022-11-20_23h54.18.345,Info_measure_main_exp,2022.2.2,Win32,161.6814875,,,,,,,,,,,,,,,,,,masks/mask_004.jpg,,,,,,,,,,,,,,,,,,,,,,,,,,,,,,,,,,,,,,,,,,,0,4,4,3,1,,,,,,,,,,,,,,,,,,,,,,,,,,,,,,,,,,,,,,,,,,,,,,
850851,001,2022-11-20_23h54.18.345,Info_measure_main_exp,2022.2.2,Win32,161.6814875,,,,,,,,,,,,,,,,,,masks/mask_004.jpg,,,,,,,,,,,,,,,,,,,,,,,,,,,,,,,,,,,,,,,,,,,,,,,,0,0,0,3,1,,,,,,,,,,,,,,,,,,,,,,,,,,,,,,,,,,,,,,,,,
850851,001,2022-11-20_23h54.18.345,Info_measure_main_exp,2022.2.2,Win32,161.6814875,,,,,,,,,,,,,,,,,,masks/mask_002.jpg,,,,,,,,,,,,,,,,,,,,,,,,,,,,,,,,,,,,,,,,,,,,,,,,0,1,1,1,1,,,,,,,,,,,,,,,,,,,,,,,,,,,,,,,,,,,,,,,,,
850851,001,2022-11-20_23h54.18.345,Info_measure_main_exp,2022.2.2,Win32,161.6814875,,,,,,,,,,,,,,,,,,masks/mask_003.jpg,,,,,,,,,,,,,,,,,,,,,,,,,,,,,,,,,,,,,,,,,,,,,,,,0,2,2,2,1,,,,,,,,,,,,,,,,,,,,,,,,,,,,,,,,,,,,,,,,,
850851,001,2022-11-20_23h54.18.345,Info_measure_main_exp,2022.2.2,Win32,161.6814875,,,,,,,,,,,,,,,,,,masks/mask_005.jpg,,,,,,,,,,,,,,,,,,,,,,,,,,,,,,,,,,,,,,,,,,,,,,,,0,3,3,4,1,,,,,,,,,,,,,,,,,,,,,,,,,,,,,,,,,,,,,,,,,
850851,001,2022-11-20_23h54.18.345,Info_measure_main_exp,2022.2.2,Win32,161.6814875,,,,,,,,,,,,,,,,,,masks/mask_001.jpg,,,,,,,,,,,,,,,,,,,,,,,,,,,,,,,,,,,,,,,,,,,,,,,,0,4,4,0,1,,,,,,,,,,,,,,,,,,,,,,,,,,,,,,,,,,,,,,,,,
850851,001,2022-11-20_23h54.18.345,Info_measure_main_exp,2022.2.2,Win32,161.6814875,,,,,,,,,,,,,,,,,,,,,,,,,,,,,,5,0.8175,1,,,,,,,,,,,,0,131,5,5,1974,2214,absent_patch/patch0001974.jpg,absent_patch/patch0002214.jpg,,,,,,,,,,,,,,,,,,,,0.076851852,-0.036111111,1,0,0,response3disk,2,0.000925926,-0.000925926,1,0,0,center_square,0,1,1,24,1,,,,,,,,,,,,,,,,,,,,,,,
850851,001,2022-11-20_23h54.18.345,Info_measure_main_exp,2022.2.2,Win32,161.6814875,,,,,,,,,,,,,,,,,,masks/mask_005.jpg,,,,,,,,,,,,,,,,,,,,,,,,,,,,,,,,,,,,,,,,,,,0,0,0,4,1,,,,,,,,,,,,,,,,,,,,,,,,,,,,,,,,,,,,,,,,,,,,,,
850851,001,2022-11-20_23h54.18.345,Info_measure_main_exp,2022.2.2,Win32,161.6814875,,,,,,,,,,,,,,,,,,masks/mask_003.jpg,,,,,,,,,,,,,,,,,,,,,,,,,,,,,,,,,,,,,,,,,,,0,1,1,2,1,,,,,,,,,,,,,,,,,,,,,,,,,,,,,,,,,,,,,,,,,,,,,,
850851,001,2022-11-20_23h54.18.345,Info_measure_main_exp,2022.2.2,Win32,161.6814875,,,,,,,,,,,,,,,,,,masks/mask_004.jpg,,,,,,,,,,,,,,,,,,,,,,,,,,,,,,,,,,,,,,,,,,,0,2,2,3,1,,,,,,,,,,,,,,,,,,,,,,,,,,,,,,,,,,,,,,,,,,,,,,
850851,001,2022-11-20_23h54.18.345,Info_measure_main_exp,2022.2.2,Win32,161.6814875,,,,,,,,,,,,,,,,,,masks/mask_001.jpg,,,,,,,,,,,,,,,,,,,,,,,,,,,,,,,,,,,,,,,,,,,0,3,3,0,1,,,,,,,,,,,,,,,,,,,,,,,,,,,,,,,,,,,,,,,,,,,,,,
850851,001,2022-11-20_23h54.18.345,Info_measure_main_exp,2022.2.2,Win32,161.6814875,,,,,,,,,,,,,,,,,,masks/mask_002.jpg,,,,,,,,,,,,,,,,,,,,,,,,,,,,,,,,,,,,,,,,,,,0,4,4,1,1,,,,,,,,,,,,,,,,,,,,,,,,,,,,,,,,,,,,,,,,,,,,,,
850851,001,2022-11-20_23h54.18.345,Info_measure_main_exp,2022.2.2,Win32,161.6814875,,,,,,,,,,,,,,,,,,masks/mask_001.jpg,,,,,,,,,,,,,,,,,,,,,,,,,,,,,,,,,,,,,,,,,,,,,,,,0,0,0,0,1,,,,,,,,,,,,,,,,,,,,,,,,,,,,,,,,,,,,,,,,,
850851,001,2022-11-20_23h54.18.345,Info_measure_main_exp,2022.2.2,Win32,161.6814875,,,,,,,,,,,,,,,,,,masks/mask_003.jpg,,,,,,,,,,,,,,,,,,,,,,,,,,,,,,,,,,,,,,,,,,,,,,,,0,1,1,2,1,,,,,,,,,,,,,,,,,,,,,,,,,,,,,,,,,,,,,,,,,
850851,001,2022-11-20_23h54.18.345,Info_measure_main_exp,2022.2.2,Win32,161.6814875,,,,,,,,,,,,,,,,,,masks/mask_002.jpg,,,,,,,,,,,,,,,,,,,,,,,,,,,,,,,,,,,,,,,,,,,,,,,,0,2,2,1,1,,,,,,,,,,,,,,,,,,,,,,,,,,,,,,,,,,,,,,,,,
850851,001,2022-11-20_23h54.18.345,Info_measure_main_exp,2022.2.2,Win32,161.6814875,,,,,,,,,,,,,,,,,,masks/mask_005.jpg,,,,,,,,,,,,,,,,,,,,,,,,,,,,,,,,,,,,,,,,,,,,,,,,0,3,3,4,1,,,,,,,,,,,,,,,,,,,,,,,,,,,,,,,,,,,,,,,,,
850851,001,2022-11-20_23h54.18.345,Info_measure_main_exp,2022.2.2,Win32,161.6814875,,,,,,,,,,,,,,,,,,masks/mask_004.jpg,,,,,,,,,,,,,,,,,,,,,,,,,,,,,,,,,,,,,,,,,,,,,,,,0,4,4,3,1,,,,,,,,,,,,,,,,,,,,,,,,,,,,,,,,,,,,,,,,,
850851,001,2022-11-20_23h54.18.345,Info_measure_main_exp,2022.2.2,Win32,161.6814875,,,,,,,,,,,,,,,,,,,,,,,,,,,,,,7,2.1297,1,,,,,,,,,,,,0,131,5,5,2274,2142,absent_patch/patch0002274.jpg,absent_patch/patch0002142.jpg,,,,,,,,,,,,,,,,,,,,0.085185185,0.109259259,1,0,0,response1disk,3,0.003703704,-0.002777778,1,0,0,center_square,0,2,2,75,1,,,,,,,,,,,,,,,,,,,,,,,
850851,001,2022-11-20_23h54.18.345,Info_measure_main_exp,2022.2.2,Win32,161.6814875,,,,,,,,,,,,,,,,,,masks/mask_001.jpg,,,,,,,,,,,,,,,,,,,,,,,,,,,,,,,,,,,,,,,,,,,0,0,0,0,1,,,,,,,,,,,,,,,,,,,,,,,,,,,,,,,,,,,,,,,,,,,,,,
850851,001,2022-11-20_23h54.18.345,Info_measure_main_exp,2022.2.2,Win32,161.6814875,,,,,,,,,,,,,,,,,,masks/mask_004.jpg,,,,,,,,,,,,,,,,,,,,,,,,,,,,,,,,,,,,,,,,,,,0,1,1,3,1,,,,,,,,,,,,,,,,,,,,,,,,,,,,,,,,,,,,,,,,,,,,,,
850851,001,2022-11-20_23h54.18.345,Info_measure_main_exp,2022.2.2,Win32,161.6814875,,,,,,,,,,,,,,,,,,masks/mask_002.jpg,,,,,,,,,,,,,,,,,,,,,,,,,,,,,,,,,,,,,,,,,,,0,2,2,1,1,,,,,,,,,,,,,,,,,,,,,,,,,,,,,,,,,,,,,,,,,,,,,,
850851,001,2022-11-20_23h54.18.345,Info_measure_main_exp,2022.2.2,Win32,161.6814875,,,,,,,,,,,,,,,,,,masks/mask_003.jpg,,,,,,,,,,,,,,,,,,,,,,,,,,,,,,,,,,,,,,,,,,,0,3,3,2,1,,,,,,,,,,,,,,,,,,,,,,,,,,,,,,,,,,,,,,,,,,,,,,
850851,001,2022-11-20_23h54.18.345,Info_measure_main_exp,2022.2.2,Win32,161.6814875,,,,,,,,,,,,,,,,,,masks/mask_005.jpg,,,,,,,,,,,,,,,,,,,,,,,,,,,,,,,,,,,,,,,,,,,0,4,4,4,1,,,,,,,,,,,,,,,,,,,,,,,,,,,,,,,,,,,,,,,,,,,,,,
850851,001,2022-11-20_23h54.18.345,Info_measure_main_exp,2022.2.2,Win32,161.6814875,,,,,,,,,,,,,,,,,,masks/mask_005.jpg,,,,,,,,,,,,,,,,,,,,,,,,,,,,,,,,,,,,,,,,,,,,,,,,0,0,0,4,1,,,,,,,,,,,,,,,,,,,,,,,,,,,,,,,,,,,,,,,,,
850851,001,2022-11-20_23h54.18.345,Info_measure_main_exp,2022.2.2,Win32,161.6814875,,,,,,,,,,,,,,,,,,masks/mask_002.jpg,,,,,,,,,,,,,,,,,,,,,,,,,,,,,,,,,,,,,,,,,,,,,,,,0,1,1,1,1,,,,,,,,,,,,,,,,,,,,,,,,,,,,,,,,,,,,,,,,,
850851,001,2022-11-20_23h54.18.345,Info_measure_main_exp,2022.2.2,Win32,161.6814875,,,,,,,,,,,,,,,,,,masks/mask_001.jpg,,,,,,,,,,,,,,,,,,,,,,,,,,,,,,,,,,,,,,,,,,,,,,,,0,2,2,0,1,,,,,,,,,,,,,,,,,,,,,,,,,,,,,,,,,,,,,,,,,
850851,001,2022-11-20_23h54.18.345,Info_measure_main_exp,2022.2.2,Win32,161.6814875,,,,,,,,,,,,,,,,,,masks/mask_003.jpg,,,,,,,,,,,,,,,,,,,,,,,,,,,,,,,,,,,,,,,,,,,,,,,,0,3,3,2,1,,,,,,,,,,,,,,,,,,,,,,,,,,,,,,,,,,,,,,,,,
850851,001,2022-11-20_23h54.18.345,Info_measure_main_exp,2022.2.2,Win32,161.6814875,,,,,,,,,,,,,,,,,,masks/mask_004.jpg,,,,,,,,,,,,,,,,,,,,,,,,,,,,,,,,,,,,,,,,,,,,,,,,0,4,4,3,1,,,,,,,,,,,,,,,,,,,,,,,,,,,,,,,,,,,,,,,,,
850851,001,2022-11-20_23h54.18.345,Info_measure_main_exp,2022.2.2,Win32,161.6814875,,,,,,,,,,,,,,,,,,,,,,,,,,,,,,6,1.4674,1,,,,,,,,,,,,0,131,5,5,2142,2238,absent_patch/patch0002142.jpg,absent_patch/patch0002238.jpg,,,,,,,,,,,,,,,,,,,,0.07962963,0.034259259,1,0,0,response1disk,4,0.003703704,-0.006481481,1,0,0,center_square,0,3,3,101,1,,,,,,,,,,,,,,,,,,,,,,,
850851,001,2022-11-20_23h54.18.345,Info_measure_main_exp,2022.2.2,Win32,161.6814875,,,,,,,,,,,,,,,,,,masks/mask_004.jpg,,,,,,,,,,,,,,,,,,,,,,,,,,,,,,,,,,,,,,,,,,,0,0,0,3,1,,,,,,,,,,,,,,,,,,,,,,,,,,,,,,,,,,,,,,,,,,,,,,
850851,001,2022-11-20_23h54.18.345,Info_measure_main_exp,2022.2.2,Win32,161.6814875,,,,,,,,,,,,,,,,,,masks/mask_002.jpg,,,,,,,,,,,,,,,,,,,,,,,,,,,,,,,,,,,,,,,,,,,0,1,1,1,1,,,,,,,,,,,,,,,,,,,,,,,,,,,,,,,,,,,,,,,,,,,,,,
850851,001,2022-11-20_23h54.18.345,Info_measure_main_exp,2022.2.2,Win32,161.6814875,,,,,,,,,,,,,,,,,,masks/mask_003.jpg,,,,,,,,,,,,,,,,,,,,,,,,,,,,,,,,,,,,,,,,,,,0,2,2,2,1,,,,,,,,,,,,,,,,,,,,,,,,,,,,,,,,,,,,,,,,,,,,,,
850851,001,2022-11-20_23h54.18.345,Info_measure_main_exp,2022.2.2,Win32,161.6814875,,,,,,,,,,,,,,,,,,masks/mask_001.jpg,,,,,,,,,,,,,,,,,,,,,,,,,,,,,,,,,,,,,,,,,,,0,3,3,0,1,,,,,,,,,,,,,,,,,,,,,,,,,,,,,,,,,,,,,,,,,,,,,,
850851,001,2022-11-20_23h54.18.345,Info_measure_main_exp,2022.2.2,Win32,161.6814875,,,,,,,,,,,,,,,,,,masks/mask_005.jpg,,,,,,,,,,,,,,,,,,,,,,,,,,,,,,,,,,,,,,,,,,,0,4,4,4,1,,,,,,,,,,,,,,,,,,,,,,,,,,,,,,,,,,,,,,,,,,,,,,
850851,001,2022-11-20_23h54.18.345,Info_measure_main_exp,2022.2.2,Win32,161.6814875,,,,,,,,,,,,,,,,,,masks/mask_004.jpg,,,,,,,,,,,,,,,,,,,,,,,,,,,,,,,,,,,,,,,,,,,,,,,,0,0,0,3,1,,,,,,,,,,,,,,,,,,,,,,,,,,,,,,,,,,,,,,,,,
850851,001,2022-11-20_23h54.18.345,Info_measure_main_exp,2022.2.2,Win32,161.6814875,,,,,,,,,,,,,,,,,,masks/mask_001.jpg,,,,,,,,,,,,,,,,,,,,,,,,,,,,,,,,,,,,,,,,,,,,,,,,0,1,1,0,1,,,,,,,,,,,,,,,,,,,,,,,,,,,,,,,,,,,,,,,,,
850851,001,2022-11-20_23h54.18.345,Info_measure_main_exp,2022.2.2,Win32,161.6814875,,,,,,,,,,,,,,,,,,masks/mask_005.jpg,,,,,,,,,,,,,,,,,,,,,,,,,,,,,,,,,,,,,,,,,,,,,,,,0,2,2,4,1,,,,,,,,,,,,,,,,,,,,,,,,,,,,,,,,,,,,,,,,,
850851,001,2022-11-20_23h54.18.345,Info_measure_main_exp,2022.2.2,Win32,161.6814875,,,,,,,,,,,,,,,,,,masks/mask_003.jpg,,,,,,,,,,,,,,,,,,,,,,,,,,,,,,,,,,,,,,,,,,,,,,,,0,3,3,2,1,,,,,,,,,,,,,,,,,,,,,,,,,,,,,,,,,,,,,,,,,
850851,001,2022-11-20_23h54.18.345,Info_measure_main_exp,2022.2.2,Win32,161.6814875,,,,,,,,,,,,,,,,,,masks/mask_002.jpg,,,,,,,,,,,,,,,,,,,,,,,,,,,,,,,,,,,,,,,,,,,,,,,,0,4,4,1,1,,,,,,,,,,,,,,,,,,,,,,,,,,,,,,,,,,,,,,,,,
850851,001,2022-11-20_23h54.18.345,Info_measure_main_exp,2022.2.2,Win32,161.6814875,,,,,,,,,,,,,,,,,,,,,,,,,,,,,,6,1.462,1,,,,,,,,,,,,0,131,5,5,1974,2166,absent_patch/patch0001974.jpg,absent_patch/patch0002166.jpg,,,,,,,,,,,,,,,,,,,,0.069444444,0.026851852,1,0,0,response1disk,5,-0.001851852,-0.003703704,1,0,0,center_square,0,4,4,77,1,,,,,,,,,,,,,,,,,,,,,,,
850851,001,2022-11-20_23h54.18.345,Info_measure_main_exp,2022.2.2,Win32,161.6814875,,,,,,,,,,,,,,,,,,masks/mask_004.jpg,,,,,,,,,,,,,,,,,,,,,,,,,,,,,,,,,,,,,,,,,,,0,0,0,3,1,,,,,,,,,,,,,,,,,,,,,,,,,,,,,,,,,,,,,,,,,,,,,,
850851,001,2022-11-20_23h54.18.345,Info_measure_main_exp,2022.2.2,Win32,161.6814875,,,,,,,,,,,,,,,,,,masks/mask_003.jpg,,,,,,,,,,,,,,,,,,,,,,,,,,,,,,,,,,,,,,,,,,,0,1,1,2,1,,,,,,,,,,,,,,,,,,,,,,,,,,,,,,,,,,,,,,,,,,,,,,
850851,001,2022-11-20_23h54.18.345,Info_measure_main_exp,2022.2.2,Win32,161.6814875,,,,,,,,,,,,,,,,,,masks/mask_002.jpg,,,,,,,,,,,,,,,,,,,,,,,,,,,,,,,,,,,,,,,,,,,0,2,2,1,1,,,,,,,,,,,,,,,,,,,,,,,,,,,,,,,,,,,,,,,,,,,,,,
850851,001,2022-11-20_23h54.18.345,Info_measure_main_exp,2022.2.2,Win32,161.6814875,,,,,,,,,,,,,,,,,,masks/mask_005.jpg,,,,,,,,,,,,,,,,,,,,,,,,,,,,,,,,,,,,,,,,,,,0,3,3,4,1,,,,,,,,,,,,,,,,,,,,,,,,,,,,,,,,,,,,,,,,,,,,,,
850851,001,2022-11-20_23h54.18.345,Info_measure_main_exp,2022.2.2,Win32,161.6814875,,,,,,,,,,,,,,,,,,masks/mask_001.jpg,,,,,,,,,,,,,,,,,,,,,,,,,,,,,,,,,,,,,,,,,,,0,4,4,0,1,,,,,,,,,,,,,,,,,,,,,,,,,,,,,,,,,,,,,,,,,,,,,,
850851,001,2022-11-20_23h54.18.345,Info_measure_main_exp,2022.2.2,Win32,161.6814875,,,,,,,,,,,,,,,,,,masks/mask_005.jpg,,,,,,,,,,,,,,,,,,,,,,,,,,,,,,,,,,,,,,,,,,,,,,,,0,0,0,4,1,,,,,,,,,,,,,,,,,,,,,,,,,,,,,,,,,,,,,,,,,
850851,001,2022-11-20_23h54.18.345,Info_measure_main_exp,2022.2.2,Win32,161.6814875,,,,,,,,,,,,,,,,,,masks/mask_003.jpg,,,,,,,,,,,,,,,,,,,,,,,,,,,,,,,,,,,,,,,,,,,,,,,,0,1,1,2,1,,,,,,,,,,,,,,,,,,,,,,,,,,,,,,,,,,,,,,,,,
850851,001,2022-11-20_23h54.18.345,Info_measure_main_exp,2022.2.2,Win32,161.6814875,,,,,,,,,,,,,,,,,,masks/mask_002.jpg,,,,,,,,,,,,,,,,,,,,,,,,,,,,,,,,,,,,,,,,,,,,,,,,0,2,2,1,1,,,,,,,,,,,,,,,,,,,,,,,,,,,,,,,,,,,,,,,,,
850851,001,2022-11-20_23h54.18.345,Info_measure_main_exp,2022.2.2,Win32,161.6814875,,,,,,,,,,,,,,,,,,masks/mask_004.jpg,,,,,,,,,,,,,,,,,,,,,,,,,,,,,,,,,,,,,,,,,,,,,,,,0,3,3,3,1,,,,,,,,,,,,,,,,,,,,,,,,,,,,,,,,,,,,,,,,,
850851,001,2022-11-20_23h54.18.345,Info_measure_main_exp,2022.2.2,Win32,161.6814875,,,,,,,,,,,,,,,,,,masks/mask_001.jpg,,,,,,,,,,,,,,,,,,,,,,,,,,,,,,,,,,,,,,,,,,,,,,,,0,4,4,0,1,,,,,,,,,,,,,,,,,,,,,,,,,,,,,,,,,,,,,,,,,
850851,001,2022-11-20_23h54.18.345,Info_measure_main_exp,2022.2.2,Win32,161.6814875,,,,,,,,,,,,,,,,,,,,,,,,,,,,,,6,0.6166,1,,,,,,,,,,,,0,131,5,5,2082,2250,absent_patch/patch0002082.jpg,absent_patch/patch0002250.jpg,,,,,,,,,,,,,,,,,,,,0.05462963,0.015740741,1,0,0,response1disk,6,-0.001851852,-0.003703704,1,0,0,center_square,0,5,5,3,1,,,,,,,,,,,,,,,,,,,,,,,
850851,001,2022-11-20_23h54.18.345,Info_measure_main_exp,2022.2.2,Win32,161.6814875,,,,,,,,,,,,,,,,,,masks/mask_001.jpg,,,,,,,,,,,,,,,,,,,,,,,,,,,,,,,,,,,,,,,,,,,0,0,0,0,1,,,,,,,,,,,,,,,,,,,,,,,,,,,,,,,,,,,,,,,,,,,,,,
850851,001,2022-11-20_23h54.18.345,Info_measure_main_exp,2022.2.2,Win32,161.6814875,,,,,,,,,,,,,,,,,,masks/mask_005.jpg,,,,,,,,,,,,,,,,,,,,,,,,,,,,,,,,,,,,,,,,,,,0,1,1,4,1,,,,,,,,,,,,,,,,,,,,,,,,,,,,,,,,,,,,,,,,,,,,,,
850851,001,2022-11-20_23h54.18.345,Info_measure_main_exp,2022.2.2,Win32,161.6814875,,,,,,,,,,,,,,,,,,masks/mask_004.jpg,,,,,,,,,,,,,,,,,,,,,,,,,,,,,,,,,,,,,,,,,,,0,2,2,3,1,,,,,,,,,,,,,,,,,,,,,,,,,,,,,,,,,,,,,,,,,,,,,,
850851,001,2022-11-20_23h54.18.345,Info_measure_main_exp,2022.2.2,Win32,161.6814875,,,,,,,,,,,,,,,,,,masks/mask_003.jpg,,,,,,,,,,,,,,,,,,,,,,,,,,,,,,,,,,,,,,,,,,,0,3,3,2,1,,,,,,,,,,,,,,,,,,,,,,,,,,,,,,,,,,,,,,,,,,,,,,
850851,001,2022-11-20_23h54.18.345,Info_measure_main_exp,2022.2.2,Win32,161.6814875,,,,,,,,,,,,,,,,,,masks/mask_002.jpg,,,,,,,,,,,,,,,,,,,,,,,,,,,,,,,,,,,,,,,,,,,0,4,4,1,1,,,,,,,,,,,,,,,,,,,,,,,,,,,,,,,,,,,,,,,,,,,,,,
850851,001,2022-11-20_23h54.18.345,Info_measure_main_exp,2022.2.2,Win32,161.6814875,,,,,,,,,,,,,,,,,,masks/mask_005.jpg,,,,,,,,,,,,,,,,,,,,,,,,,,,,,,,,,,,,,,,,,,,,,,,,0,0,0,4,1,,,,,,,,,,,,,,,,,,,,,,,,,,,,,,,,,,,,,,,,,
850851,001,2022-11-20_23h54.18.345,Info_measure_main_exp,2022.2.2,Win32,161.6814875,,,,,,,,,,,,,,,,,,masks/mask_003.jpg,,,,,,,,,,,,,,,,,,,,,,,,,,,,,,,,,,,,,,,,,,,,,,,,0,1,1,2,1,,,,,,,,,,,,,,,,,,,,,,,,,,,,,,,,,,,,,,,,,
850851,001,2022-11-20_23h54.18.345,Info_measure_main_exp,2022.2.2,Win32,161.6814875,,,,,,,,,,,,,,,,,,masks/mask_001.jpg,,,,,,,,,,,,,,,,,,,,,,,,,,,,,,,,,,,,,,,,,,,,,,,,0,2,2,0,1,,,,,,,,,,,,,,,,,,,,,,,,,,,,,,,,,,,,,,,,,
850851,001,2022-11-20_23h54.18.345,Info_measure_main_exp,2022.2.2,Win32,161.6814875,,,,,,,,,,,,,,,,,,masks/mask_002.jpg,,,,,,,,,,,,,,,,,,,,,,,,,,,,,,,,,,,,,,,,,,,,,,,,0,3,3,1,1,,,,,,,,,,,,,,,,,,,,,,,,,,,,,,,,,,,,,,,,,
850851,001,2022-11-20_23h54.18.345,Info_measure_main_exp,2022.2.2,Win32,161.6814875,,,,,,,,,,,,,,,,,,masks/mask_004.jpg,,,,,,,,,,,,,,,,,,,,,,,,,,,,,,,,,,,,,,,,,,,,,,,,0,4,4,3,1,,,,,,,,,,,,,,,,,,,,,,,,,,,,,,,,,,,,,,,,,
850851,001,2022-11-20_23h54.18.345,Info_measure_main_exp,2022.2.2,Win32,161.6814875,,,,,,,,,,,,,,,,,,,,,,,,,,,,,,7,0.8665,1,,,,,,,,,,,,0,131,5,5,2190,1974,absent_patch/patch0002190.jpg,absent_patch/patch0001974.jpg,,,,,,,,,,,,,,,,,,,,0.047222222,0.092592593,1,0,0,response1disk,7,-0.003703704,-0.012962963,1,0,0,center_square,0,6,6,119,1,,,,,,,,,,,,,,,,,,,,,,,
850851,001,2022-11-20_23h54.18.345,Info_measure_main_exp,2022.2.2,Win32,161.6814875,,,,,,,,,,,,,,,,,,masks/mask_004.jpg,,,,,,,,,,,,,,,,,,,,,,,,,,,,,,,,,,,,,,,,,,,0,0,0,3,1,,,,,,,,,,,,,,,,,,,,,,,,,,,,,,,,,,,,,,,,,,,,,,
850851,001,2022-11-20_23h54.18.345,Info_measure_main_exp,2022.2.2,Win32,161.6814875,,,,,,,,,,,,,,,,,,masks/mask_003.jpg,,,,,,,,,,,,,,,,,,,,,,,,,,,,,,,,,,,,,,,,,,,0,1,1,2,1,,,,,,,,,,,,,,,,,,,,,,,,,,,,,,,,,,,,,,,,,,,,,,
850851,001,2022-11-20_23h54.18.345,Info_measure_main_exp,2022.2.2,Win32,161.6814875,,,,,,,,,,,,,,,,,,masks/mask_005.jpg,,,,,,,,,,,,,,,,,,,,,,,,,,,,,,,,,,,,,,,,,,,0,2,2,4,1,,,,,,,,,,,,,,,,,,,,,,,,,,,,,,,,,,,,,,,,,,,,,,
850851,001,2022-11-20_23h54.18.345,Info_measure_main_exp,2022.2.2,Win32,161.6814875,,,,,,,,,,,,,,,,,,masks/mask_001.jpg,,,,,,,,,,,,,,,,,,,,,,,,,,,,,,,,,,,,,,,,,,,0,3,3,0,1,,,,,,,,,,,,,,,,,,,,,,,,,,,,,,,,,,,,,,,,,,,,,,
850851,001,2022-11-20_23h54.18.345,Info_measure_main_exp,2022.2.2,Win32,161.6814875,,,,,,,,,,,,,,,,,,masks/mask_002.jpg,,,,,,,,,,,,,,,,,,,,,,,,,,,,,,,,,,,,,,,,,,,0,4,4,1,1,,,,,,,,,,,,,,,,,,,,,,,,,,,,,,,,,,,,,,,,,,,,,,
850851,001,2022-11-20_23h54.18.345,Info_measure_main_exp,2022.2.2,Win32,161.6814875,,,,,,,,,,,,,,,,,,masks/mask_004.jpg,,,,,,,,,,,,,,,,,,,,,,,,,,,,,,,,,,,,,,,,,,,,,,,,0,0,0,3,1,,,,,,,,,,,,,,,,,,,,,,,,,,,,,,,,,,,,,,,,,
850851,001,2022-11-20_23h54.18.345,Info_measure_main_exp,2022.2.2,Win32,161.6814875,,,,,,,,,,,,,,,,,,masks/mask_005.jpg,,,,,,,,,,,,,,,,,,,,,,,,,,,,,,,,,,,,,,,,,,,,,,,,0,1,1,4,1,,,,,,,,,,,,,,,,,,,,,,,,,,,,,,,,,,,,,,,,,
850851,001,2022-11-20_23h54.18.345,Info_measure_main_exp,2022.2.2,Win32,161.6814875,,,,,,,,,,,,,,,,,,masks/mask_003.jpg,,,,,,,,,,,,,,,,,,,,,,,,,,,,,,,,,,,,,,,,,,,,,,,,0,2,2,2,1,,,,,,,,,,,,,,,,,,,,,,,,,,,,,,,,,,,,,,,,,
850851,001,2022-11-20_23h54.18.345,Info_measure_main_exp,2022.2.2,Win32,161.6814875,,,,,,,,,,,,,,,,,,masks/mask_002.jpg,,,,,,,,,,,,,,,,,,,,,,,,,,,,,,,,,,,,,,,,,,,,,,,,0,3,3,1,1,,,,,,,,,,,,,,,,,,,,,,,,,,,,,,,,,,,,,,,,,
850851,001,2022-11-20_23h54.18.345,Info_measure_main_exp,2022.2.2,Win32,161.6814875,,,,,,,,,,,,,,,,,,masks/mask_001.jpg,,,,,,,,,,,,,,,,,,,,,,,,,,,,,,,,,,,,,,,,,,,,,,,,0,4,4,0,1,,,,,,,,,,,,,,,,,,,,,,,,,,,,,,,,,,,,,,,,,
850851,001,2022-11-20_23h54.18.345,Info_measure_main_exp,2022.2.2,Win32,161.6814875,,,,,,,,,,,,,,,,,,,,,,,,,,,,,,6,1.5827,1,,,,,,,,,,,,0,131,5,5,2166,2298,absent_patch/patch0002166.jpg,absent_patch/patch0002298.jpg,,,,,,,,,,,,,,,,,,,,0.078703704,0.018518519,1,0,0,response1disk,8,-0.003703704,-0.006481481,1,0,0,center_square,0,7,7,52,1,,,,,,,,,,,,,,,,,,,,,,,
850851,001,2022-11-20_23h54.18.345,Info_measure_main_exp,2022.2.2,Win32,161.6814875,,,,,,,,,,,,,,,,,,masks/mask_002.jpg,,,,,,,,,,,,,,,,,,,,,,,,,,,,,,,,,,,,,,,,,,,0,0,0,1,1,,,,,,,,,,,,,,,,,,,,,,,,,,,,,,,,,,,,,,,,,,,,,,
850851,001,2022-11-20_23h54.18.345,Info_measure_main_exp,2022.2.2,Win32,161.6814875,,,,,,,,,,,,,,,,,,masks/mask_003.jpg,,,,,,,,,,,,,,,,,,,,,,,,,,,,,,,,,,,,,,,,,,,0,1,1,2,1,,,,,,,,,,,,,,,,,,,,,,,,,,,,,,,,,,,,,,,,,,,,,,
850851,001,2022-11-20_23h54.18.345,Info_measure_main_exp,2022.2.2,Win32,161.6814875,,,,,,,,,,,,,,,,,,masks/mask_001.jpg,,,,,,,,,,,,,,,,,,,,,,,,,,,,,,,,,,,,,,,,,,,0,2,2,0,1,,,,,,,,,,,,,,,,,,,,,,,,,,,,,,,,,,,,,,,,,,,,,,
850851,001,2022-11-20_23h54.18.345,Info_measure_main_exp,2022.2.2,Win32,161.6814875,,,,,,,,,,,,,,,,,,masks/mask_004.jpg,,,,,,,,,,,,,,,,,,,,,,,,,,,,,,,,,,,,,,,,,,,0,3,3,3,1,,,,,,,,,,,,,,,,,,,,,,,,,,,,,,,,,,,,,,,,,,,,,,
850851,001,2022-11-20_23h54.18.345,Info_measure_main_exp,2022.2.2,Win32,161.6814875,,,,,,,,,,,,,,,,,,masks/mask_005.jpg,,,,,,,,,,,,,,,,,,,,,,,,,,,,,,,,,,,,,,,,,,,0,4,4,4,1,,,,,,,,,,,,,,,,,,,,,,,,,,,,,,,,,,,,,,,,,,,,,,
850851,001,2022-11-20_23h54.18.345,Info_measure_main_exp,2022.2.2,Win32,161.6814875,,,,,,,,,,,,,,,,,,masks/mask_004.jpg,,,,,,,,,,,,,,,,,,,,,,,,,,,,,,,,,,,,,,,,,,,,,,,,0,0,0,3,1,,,,,,,,,,,,,,,,,,,,,,,,,,,,,,,,,,,,,,,,,
850851,001,2022-11-20_23h54.18.345,Info_measure_main_exp,2022.2.2,Win32,161.6814875,,,,,,,,,,,,,,,,,,masks/mask_002.jpg,,,,,,,,,,,,,,,,,,,,,,,,,,,,,,,,,,,,,,,,,,,,,,,,0,1,1,1,1,,,,,,,,,,,,,,,,,,,,,,,,,,,,,,,,,,,,,,,,,
850851,001,2022-11-20_23h54.18.345,Info_measure_main_exp,2022.2.2,Win32,161.6814875,,,,,,,,,,,,,,,,,,masks/mask_001.jpg,,,,,,,,,,,,,,,,,,,,,,,,,,,,,,,,,,,,,,,,,,,,,,,,0,2,2,0,1,,,,,,,,,,,,,,,,,,,,,,,,,,,,,,,,,,,,,,,,,
850851,001,2022-11-20_23h54.18.345,Info_measure_main_exp,2022.2.2,Win32,161.6814875,,,,,,,,,,,,,,,,,,masks/mask_005.jpg,,,,,,,,,,,,,,,,,,,,,,,,,,,,,,,,,,,,,,,,,,,,,,,,0,3,3,4,1,,,,,,,,,,,,,,,,,,,,,,,,,,,,,,,,,,,,,,,,,
850851,001,2022-11-20_23h54.18.345,Info_measure_main_exp,2022.2.2,Win32,161.6814875,,,,,,,,,,,,,,,,,,masks/mask_003.jpg,,,,,,,,,,,,,,,,,,,,,,,,,,,,,,,,,,,,,,,,,,,,,,,,0,4,4,2,1,,,,,,,,,,,,,,,,,,,,,,,,,,,,,,,,,,,,,,,,,
850851,001,2022-11-20_23h54.18.345,Info_measure_main_exp,2022.2.2,Win32,161.6814875,,,,,,,,,,,,,,,,,,,,,,,,,,,,,,2,18.6008,1,,,,,,,,,,,,0,131,5,5,1974,2178,absent_patch/patch0001974.jpg,absent_patch/patch0002178.jpg,,,,,,,,,,,,,,,,,,,,-0.110185185,-0.062037037,1,0,0,response5disk,9,0.000925926,-0.000925926,1,0,0,center_square,0,8,8,44,1,,,,,,,,,,,,,,,,,,,,,,,
850851,001,2022-11-20_23h54.18.345,Info_measure_main_exp,2022.2.2,Win32,161.6814875,,,,,,,,,,,,,,,,,,masks/mask_001.jpg,,,,,,,,,,,,,,,,,,,,,,,,,,,,,,,,,,,,,,,,,,,0,0,0,0,1,,,,,,,,,,,,,,,,,,,,,,,,,,,,,,,,,,,,,,,,,,,,,,
850851,001,2022-11-20_23h54.18.345,Info_measure_main_exp,2022.2.2,Win32,161.6814875,,,,,,,,,,,,,,,,,,masks/mask_005.jpg,,,,,,,,,,,,,,,,,,,,,,,,,,,,,,,,,,,,,,,,,,,0,1,1,4,1,,,,,,,,,,,,,,,,,,,,,,,,,,,,,,,,,,,,,,,,,,,,,,
850851,001,2022-11-20_23h54.18.345,Info_measure_main_exp,2022.2.2,Win32,161.6814875,,,,,,,,,,,,,,,,,,masks/mask_004.jpg,,,,,,,,,,,,,,,,,,,,,,,,,,,,,,,,,,,,,,,,,,,0,2,2,3,1,,,,,,,,,,,,,,,,,,,,,,,,,,,,,,,,,,,,,,,,,,,,,,
850851,001,2022-11-20_23h54.18.345,Info_measure_main_exp,2022.2.2,Win32,161.6814875,,,,,,,,,,,,,,,,,,masks/mask_002.jpg,,,,,,,,,,,,,,,,,,,,,,,,,,,,,,,,,,,,,,,,,,,0,3,3,1,1,,,,,,,,,,,,,,,,,,,,,,,,,,,,,,,,,,,,,,,,,,,,,,
850851,001,2022-11-20_23h54.18.345,Info_measure_main_exp,2022.2.2,Win32,161.6814875,,,,,,,,,,,,,,,,,,masks/mask_003.jpg,,,,,,,,,,,,,,,,,,,,,,,,,,,,,,,,,,,,,,,,,,,0,4,4,2,1,,,,,,,,,,,,,,,,,,,,,,,,,,,,,,,,,,,,,,,,,,,,,,
850851,001,2022-11-20_23h54.18.345,Info_measure_main_exp,2022.2.2,Win32,161.6814875,,,,,,,,,,,,,,,,,,masks/mask_004.jpg,,,,,,,,,,,,,,,,,,,,,,,,,,,,,,,,,,,,,,,,,,,,,,,,0,0,0,3,1,,,,,,,,,,,,,,,,,,,,,,,,,,,,,,,,,,,,,,,,,
850851,001,2022-11-20_23h54.18.345,Info_measure_main_exp,2022.2.2,Win32,161.6814875,,,,,,,,,,,,,,,,,,masks/mask_003.jpg,,,,,,,,,,,,,,,,,,,,,,,,,,,,,,,,,,,,,,,,,,,,,,,,0,1,1,2,1,,,,,,,,,,,,,,,,,,,,,,,,,,,,,,,,,,,,,,,,,
850851,001,2022-11-20_23h54.18.345,Info_measure_main_exp,2022.2.2,Win32,161.6814875,,,,,,,,,,,,,,,,,,masks/mask_002.jpg,,,,,,,,,,,,,,,,,,,,,,,,,,,,,,,,,,,,,,,,,,,,,,,,0,2,2,1,1,,,,,,,,,,,,,,,,,,,,,,,,,,,,,,,,,,,,,,,,,
850851,001,2022-11-20_23h54.18.345,Info_measure_main_exp,2022.2.2,Win32,161.6814875,,,,,,,,,,,,,,,,,,masks/mask_005.jpg,,,,,,,,,,,,,,,,,,,,,,,,,,,,,,,,,,,,,,,,,,,,,,,,0,3,3,4,1,,,,,,,,,,,,,,,,,,,,,,,,,,,,,,,,,,,,,,,,,
850851,001,2022-11-20_23h54.18.345,Info_measure_main_exp,2022.2.2,Win32,161.6814875,,,,,,,,,,,,,,,,,,masks/mask_001.jpg,,,,,,,,,,,,,,,,,,,,,,,,,,,,,,,,,,,,,,,,,,,,,,,,0,4,4,0,1,,,,,,,,,,,,,,,,,,,,,,,,,,,,,,,,,,,,,,,,,
850851,001,2022-11-20_23h54.18.345,Info_measure_main_exp,2022.2.2,Win32,161.6814875,,,,,,,,,,,,,,,,,,,,,,,,,,,,,,7,1.8822,1,,,,,,,,,,,,0,131,5,5,2154,2250,absent_patch/patch0002154.jpg,absent_patch/patch0002250.jpg,,,,,,,,,,,,,,,,,,,,0.046296296,0.096296296,1,0,0,response1disk,10,0.005555556,0.006481481,1,0,0,center_square,0,9,9,108,1,,,,,,,,,,,,,,,,,,,,,,,
850851,001,2022-11-20_23h54.18.345,Info_measure_main_exp,2022.2.2,Win32,161.6814875,,,,,,,,,,,,,,,,,,masks/mask_002.jpg,,,,,,,,,,,,,,,,,,,,,,,,,,,,,,,,,,,,,,,,,,,0,0,0,1,1,,,,,,,,,,,,,,,,,,,,,,,,,,,,,,,,,,,,,,,,,,,,,,
850851,001,2022-11-20_23h54.18.345,Info_measure_main_exp,2022.2.2,Win32,161.6814875,,,,,,,,,,,,,,,,,,masks/mask_001.jpg,,,,,,,,,,,,,,,,,,,,,,,,,,,,,,,,,,,,,,,,,,,0,1,1,0,1,,,,,,,,,,,,,,,,,,,,,,,,,,,,,,,,,,,,,,,,,,,,,,
850851,001,2022-11-20_23h54.18.345,Info_measure_main_exp,2022.2.2,Win32,161.6814875,,,,,,,,,,,,,,,,,,masks/mask_003.jpg,,,,,,,,,,,,,,,,,,,,,,,,,,,,,,,,,,,,,,,,,,,0,2,2,2,1,,,,,,,,,,,,,,,,,,,,,,,,,,,,,,,,,,,,,,,,,,,,,,
850851,001,2022-11-20_23h54.18.345,Info_measure_main_exp,2022.2.2,Win32,161.6814875,,,,,,,,,,,,,,,,,,masks/mask_004.jpg,,,,,,,,,,,,,,,,,,,,,,,,,,,,,,,,,,,,,,,,,,,0,3,3,3,1,,,,,,,,,,,,,,,,,,,,,,,,,,,,,,,,,,,,,,,,,,,,,,
850851,001,2022-11-20_23h54.18.345,Info_measure_main_exp,2022.2.2,Win32,161.6814875,,,,,,,,,,,,,,,,,,masks/mask_005.jpg,,,,,,,,,,,,,,,,,,,,,,,,,,,,,,,,,,,,,,,,,,,0,4,4,4,1,,,,,,,,,,,,,,,,,,,,,,,,,,,,,,,,,,,,,,,,,,,,,,
850851,001,2022-11-20_23h54.18.345,Info_measure_main_exp,2022.2.2,Win32,161.6814875,,,,,,,,,,,,,,,,,,masks/mask_005.jpg,,,,,,,,,,,,,,,,,,,,,,,,,,,,,,,,,,,,,,,,,,,,,,,,0,0,0,4,1,,,,,,,,,,,,,,,,,,,,,,,,,,,,,,,,,,,,,,,,,
850851,001,2022-11-20_23h54.18.345,Info_measure_main_exp,2022.2.2,Win32,161.6814875,,,,,,,,,,,,,,,,,,masks/mask_004.jpg,,,,,,,,,,,,,,,,,,,,,,,,,,,,,,,,,,,,,,,,,,,,,,,,0,1,1,3,1,,,,,,,,,,,,,,,,,,,,,,,,,,,,,,,,,,,,,,,,,
850851,001,2022-11-20_23h54.18.345,Info_measure_main_exp,2022.2.2,Win32,161.6814875,,,,,,,,,,,,,,,,,,masks/mask_002.jpg,,,,,,,,,,,,,,,,,,,,,,,,,,,,,,,,,,,,,,,,,,,,,,,,0,2,2,1,1,,,,,,,,,,,,,,,,,,,,,,,,,,,,,,,,,,,,,,,,,
850851,001,2022-11-20_23h54.18.345,Info_measure_main_exp,2022.2.2,Win32,161.6814875,,,,,,,,,,,,,,,,,,masks/mask_003.jpg,,,,,,,,,,,,,,,,,,,,,,,,,,,,,,,,,,,,,,,,,,,,,,,,0,3,3,2,1,,,,,,,,,,,,,,,,,,,,,,,,,,,,,,,,,,,,,,,,,
850851,001,2022-11-20_23h54.18.345,Info_measure_main_exp,2022.2.2,Win32,161.6814875,,,,,,,,,,,,,,,,,,masks/mask_001.jpg,,,,,,,,,,,,,,,,,,,,,,,,,,,,,,,,,,,,,,,,,,,,,,,,0,4,4,0,1,,,,,,,,,,,,,,,,,,,,,,,,,,,,,,,,,,,,,,,,,
850851,001,2022-11-20_23h54.18.345,Info_measure_main_exp,2022.2.2,Win32,161.6814875,,,,,,,,,,,,,,,,,,,,,,,,,,,,,,6,1.6694,1,,,,,,,,,,,,1,131,5,5,2250,1,absent_patch/patch0002250.jpg,present_patch/cong_131_5_a.jpg,,,,,,,,,,,,,,,,,,,,0.099074074,0.034259259,1,0,0,response1disk,11,0.013888889,0.002777778,1,0,0,center_square,0,10,10,5,1,,,,,,,,,,,,,,,,,,,,,,,
850851,001,2022-11-20_23h54.18.345,Info_measure_main_exp,2022.2.2,Win32,161.6814875,,,,,,,,,,,,,,,,,,masks/mask_004.jpg,,,,,,,,,,,,,,,,,,,,,,,,,,,,,,,,,,,,,,,,,,,0,0,0,3,1,,,,,,,,,,,,,,,,,,,,,,,,,,,,,,,,,,,,,,,,,,,,,,
850851,001,2022-11-20_23h54.18.345,Info_measure_main_exp,2022.2.2,Win32,161.6814875,,,,,,,,,,,,,,,,,,masks/mask_001.jpg,,,,,,,,,,,,,,,,,,,,,,,,,,,,,,,,,,,,,,,,,,,0,1,1,0,1,,,,,,,,,,,,,,,,,,,,,,,,,,,,,,,,,,,,,,,,,,,,,,
850851,001,2022-11-20_23h54.18.345,Info_measure_main_exp,2022.2.2,Win32,161.6814875,,,,,,,,,,,,,,,,,,masks/mask_005.jpg,,,,,,,,,,,,,,,,,,,,,,,,,,,,,,,,,,,,,,,,,,,0,2,2,4,1,,,,,,,,,,,,,,,,,,,,,,,,,,,,,,,,,,,,,,,,,,,,,,
850851,001,2022-11-20_23h54.18.345,Info_measure_main_exp,2022.2.2,Win32,161.6814875,,,,,,,,,,,,,,,,,,masks/mask_002.jpg,,,,,,,,,,,,,,,,,,,,,,,,,,,,,,,,,,,,,,,,,,,0,3,3,1,1,,,,,,,,,,,,,,,,,,,,,,,,,,,,,,,,,,,,,,,,,,,,,,
850851,001,2022-11-20_23h54.18.345,Info_measure_main_exp,2022.2.2,Win32,161.6814875,,,,,,,,,,,,,,,,,,masks/mask_003.jpg,,,,,,,,,,,,,,,,,,,,,,,,,,,,,,,,,,,,,,,,,,,0,4,4,2,1,,,,,,,,,,,,,,,,,,,,,,,,,,,,,,,,,,,,,,,,,,,,,,
850851,001,2022-11-20_23h54.18.345,Info_measure_main_exp,2022.2.2,Win32,161.6814875,,,,,,,,,,,,,,,,,,masks/mask_003.jpg,,,,,,,,,,,,,,,,,,,,,,,,,,,,,,,,,,,,,,,,,,,,,,,,0,0,0,2,1,,,,,,,,,,,,,,,,,,,,,,,,,,,,,,,,,,,,,,,,,
850851,001,2022-11-20_23h54.18.345,Info_measure_main_exp,2022.2.2,Win32,161.6814875,,,,,,,,,,,,,,,,,,masks/mask_002.jpg,,,,,,,,,,,,,,,,,,,,,,,,,,,,,,,,,,,,,,,,,,,,,,,,0,1,1,1,1,,,,,,,,,,,,,,,,,,,,,,,,,,,,,,,,,,,,,,,,,
850851,001,2022-11-20_23h54.18.345,Info_measure_main_exp,2022.2.2,Win32,161.6814875,,,,,,,,,,,,,,,,,,masks/mask_005.jpg,,,,,,,,,,,,,,,,,,,,,,,,,,,,,,,,,,,,,,,,,,,,,,,,0,2,2,4,1,,,,,,,,,,,,,,,,,,,,,,,,,,,,,,,,,,,,,,,,,
850851,001,2022-11-20_23h54.18.345,Info_measure_main_exp,2022.2.2,Win32,161.6814875,,,,,,,,,,,,,,,,,,masks/mask_001.jpg,,,,,,,,,,,,,,,,,,,,,,,,,,,,,,,,,,,,,,,,,,,,,,,,0,3,3,0,1,,,,,,,,,,,,,,,,,,,,,,,,,,,,,,,,,,,,,,,,,
850851,001,2022-11-20_23h54.18.345,Info_measure_main_exp,2022.2.2,Win32,161.6814875,,,,,,,,,,,,,,,,,,masks/mask_004.jpg,,,,,,,,,,,,,,,,,,,,,,,,,,,,,,,,,,,,,,,,,,,,,,,,0,4,4,3,1,,,,,,,,,,,,,,,,,,,,,,,,,,,,,,,,,,,,,,,,,
850851,001,2022-11-20_23h54.18.345,Info_measure_main_exp,2022.2.2,Win32,161.6814875,,,,,,,,,,,,,,,,,,,,,,,,,,,,,,7,0.601,1,,,,,,,,,,,,0,131,5,5,2154,1950,absent_patch/patch0002154.jpg,absent_patch/patch0001950.jpg,,,,,,,,,,,,,,,,,,,,0.016666667,0.089814815,1,0,0,response1disk,12,0.008333333,-0.012037037,1,0,0,center_square,0,11,11,96,1,,,,,,,,,,,,,,,,,,,,,,,
850851,001,2022-11-20_23h54.18.345,Info_measure_main_exp,2022.2.2,Win32,161.6814875,,,,,,,,,,,,,,,,,,masks/mask_003.jpg,,,,,,,,,,,,,,,,,,,,,,,,,,,,,,,,,,,,,,,,,,,0,0,0,2,1,,,,,,,,,,,,,,,,,,,,,,,,,,,,,,,,,,,,,,,,,,,,,,
850851,001,2022-11-20_23h54.18.345,Info_measure_main_exp,2022.2.2,Win32,161.6814875,,,,,,,,,,,,,,,,,,masks/mask_001.jpg,,,,,,,,,,,,,,,,,,,,,,,,,,,,,,,,,,,,,,,,,,,0,1,1,0,1,,,,,,,,,,,,,,,,,,,,,,,,,,,,,,,,,,,,,,,,,,,,,,
850851,001,2022-11-20_23h54.18.345,Info_measure_main_exp,2022.2.2,Win32,161.6814875,,,,,,,,,,,,,,,,,,masks/mask_002.jpg,,,,,,,,,,,,,,,,,,,,,,,,,,,,,,,,,,,,,,,,,,,0,2,2,1,1,,,,,,,,,,,,,,,,,,,,,,,,,,,,,,,,,,,,,,,,,,,,,,
850851,001,2022-11-20_23h54.18.345,Info_measure_main_exp,2022.2.2,Win32,161.6814875,,,,,,,,,,,,,,,,,,masks/mask_004.jpg,,,,,,,,,,,,,,,,,,,,,,,,,,,,,,,,,,,,,,,,,,,0,3,3,3,1,,,,,,,,,,,,,,,,,,,,,,,,,,,,,,,,,,,,,,,,,,,,,,
850851,001,2022-11-20_23h54.18.345,Info_measure_main_exp,2022.2.2,Win32,161.6814875,,,,,,,,,,,,,,,,,,masks/mask_005.jpg,,,,,,,,,,,,,,,,,,,,,,,,,,,,,,,,,,,,,,,,,,,0,4,4,4,1,,,,,,,,,,,,,,,,,,,,,,,,,,,,,,,,,,,,,,,,,,,,,,
850851,001,2022-11-20_23h54.18.345,Info_measure_main_exp,2022.2.2,Win32,161.6814875,,,,,,,,,,,,,,,,,,masks/mask_003.jpg,,,,,,,,,,,,,,,,,,,,,,,,,,,,,,,,,,,,,,,,,,,,,,,,0,0,0,2,1,,,,,,,,,,,,,,,,,,,,,,,,,,,,,,,,,,,,,,,,,
850851,001,2022-11-20_23h54.18.345,Info_measure_main_exp,2022.2.2,Win32,161.6814875,,,,,,,,,,,,,,,,,,masks/mask_005.jpg,,,,,,,,,,,,,,,,,,,,,,,,,,,,,,,,,,,,,,,,,,,,,,,,0,1,1,4,1,,,,,,,,,,,,,,,,,,,,,,,,,,,,,,,,,,,,,,,,,
850851,001,2022-11-20_23h54.18.345,Info_measure_main_exp,2022.2.2,Win32,161.6814875,,,,,,,,,,,,,,,,,,masks/mask_004.jpg,,,,,,,,,,,,,,,,,,,,,,,,,,,,,,,,,,,,,,,,,,,,,,,,0,2,2,3,1,,,,,,,,,,,,,,,,,,,,,,,,,,,,,,,,,,,,,,,,,
850851,001,2022-11-20_23h54.18.345,Info_measure_main_exp,2022.2.2,Win32,161.6814875,,,,,,,,,,,,,,,,,,masks/mask_001.jpg,,,,,,,,,,,,,,,,,,,,,,,,,,,,,,,,,,,,,,,,,,,,,,,,0,3,3,0,1,,,,,,,,,,,,,,,,,,,,,,,,,,,,,,,,,,,,,,,,,
850851,001,2022-11-20_23h54.18.345,Info_measure_main_exp,2022.2.2,Win32,161.6814875,,,,,,,,,,,,,,,,,,masks/mask_002.jpg,,,,,,,,,,,,,,,,,,,,,,,,,,,,,,,,,,,,,,,,,,,,,,,,0,4,4,1,1,,,,,,,,,,,,,,,,,,,,,,,,,,,,,,,,,,,,,,,,,
850851,001,2022-11-20_23h54.18.345,Info_measure_main_exp,2022.2.2,Win32,161.6814875,,,,,,,,,,,,,,,,,,,,,,,,,,,,,,7,0.5833,1,,,,,,,,,,,,0,131,5,5,2214,2166,absent_patch/patch0002214.jpg,absent_patch/patch0002166.jpg,,,,,,,,,,,,,,,,,,,,0.013888889,0.075925926,1,0,0,response1disk,13,-0.002777778,-0.002777778,1,0,0,center_square,0,12,12,109,1,,,,,,,,,,,,,,,,,,,,,,,
850851,001,2022-11-20_23h54.18.345,Info_measure_main_exp,2022.2.2,Win32,161.6814875,,,,,,,,,,,,,,,,,,masks/mask_002.jpg,,,,,,,,,,,,,,,,,,,,,,,,,,,,,,,,,,,,,,,,,,,0,0,0,1,1,,,,,,,,,,,,,,,,,,,,,,,,,,,,,,,,,,,,,,,,,,,,,,
850851,001,2022-11-20_23h54.18.345,Info_measure_main_exp,2022.2.2,Win32,161.6814875,,,,,,,,,,,,,,,,,,masks/mask_003.jpg,,,,,,,,,,,,,,,,,,,,,,,,,,,,,,,,,,,,,,,,,,,0,1,1,2,1,,,,,,,,,,,,,,,,,,,,,,,,,,,,,,,,,,,,,,,,,,,,,,
850851,001,2022-11-20_23h54.18.345,Info_measure_main_exp,2022.2.2,Win32,161.6814875,,,,,,,,,,,,,,,,,,masks/mask_004.jpg,,,,,,,,,,,,,,,,,,,,,,,,,,,,,,,,,,,,,,,,,,,0,2,2,3,1,,,,,,,,,,,,,,,,,,,,,,,,,,,,,,,,,,,,,,,,,,,,,,
850851,001,2022-11-20_23h54.18.345,Info_measure_main_exp,2022.2.2,Win32,161.6814875,,,,,,,,,,,,,,,,,,masks/mask_005.jpg,,,,,,,,,,,,,,,,,,,,,,,,,,,,,,,,,,,,,,,,,,,0,3,3,4,1,,,,,,,,,,,,,,,,,,,,,,,,,,,,,,,,,,,,,,,,,,,,,,
850851,001,2022-11-20_23h54.18.345,Info_measure_main_exp,2022.2.2,Win32,161.6814875,,,,,,,,,,,,,,,,,,masks/mask_001.jpg,,,,,,,,,,,,,,,,,,,,,,,,,,,,,,,,,,,,,,,,,,,0,4,4,0,1,,,,,,,,,,,,,,,,,,,,,,,,,,,,,,,,,,,,,,,,,,,,,,
850851,001,2022-11-20_23h54.18.345,Info_measure_main_exp,2022.2.2,Win32,161.6814875,,,,,,,,,,,,,,,,,,masks/mask_001.jpg,,,,,,,,,,,,,,,,,,,,,,,,,,,,,,,,,,,,,,,,,,,,,,,,0,0,0,0,1,,,,,,,,,,,,,,,,,,,,,,,,,,,,,,,,,,,,,,,,,
850851,001,2022-11-20_23h54.18.345,Info_measure_main_exp,2022.2.2,Win32,161.6814875,,,,,,,,,,,,,,,,,,masks/mask_005.jpg,,,,,,,,,,,,,,,,,,,,,,,,,,,,,,,,,,,,,,,,,,,,,,,,0,1,1,4,1,,,,,,,,,,,,,,,,,,,,,,,,,,,,,,,,,,,,,,,,,
850851,001,2022-11-20_23h54.18.345,Info_measure_main_exp,2022.2.2,Win32,161.6814875,,,,,,,,,,,,,,,,,,masks/mask_003.jpg,,,,,,,,,,,,,,,,,,,,,,,,,,,,,,,,,,,,,,,,,,,,,,,,0,2,2,2,1,,,,,,,,,,,,,,,,,,,,,,,,,,,,,,,,,,,,,,,,,
850851,001,2022-11-20_23h54.18.345,Info_measure_main_exp,2022.2.2,Win32,161.6814875,,,,,,,,,,,,,,,,,,masks/mask_002.jpg,,,,,,,,,,,,,,,,,,,,,,,,,,,,,,,,,,,,,,,,,,,,,,,,0,3,3,1,1,,,,,,,,,,,,,,,,,,,,,,,,,,,,,,,,,,,,,,,,,
850851,001,2022-11-20_23h54.18.345,Info_measure_main_exp,2022.2.2,Win32,161.6814875,,,,,,,,,,,,,,,,,,masks/mask_004.jpg,,,,,,,,,,,,,,,,,,,,,,,,,,,,,,,,,,,,,,,,,,,,,,,,0,4,4,3,1,,,,,,,,,,,,,,,,,,,,,,,,,,,,,,,,,,,,,,,,,
850851,001,2022-11-20_23h54.18.345,Info_measure_main_exp,2022.2.2,Win32,161.6814875,,,,,,,,,,,,,,,,,,,,,,,,,,,,,,4,1.8667,1,,,,,,,,,,,,0,131,5,5,2082,2178,absent_patch/patch0002082.jpg,absent_patch/patch0002178.jpg,,,,,,,,,,,,,,,,,,,,0.013888889,-0.053703704,1,0,0,response3disk,14,0.00462963,0.002777778,1,0,0,center_square,0,13,13,2,1,,,,,,,,,,,,,,,,,,,,,,,
850851,001,2022-11-20_23h54.18.345,Info_measure_main_exp,2022.2.2,Win32,161.6814875,,,,,,,,,,,,,,,,,,masks/mask_002.jpg,,,,,,,,,,,,,,,,,,,,,,,,,,,,,,,,,,,,,,,,,,,0,0,0,1,1,,,,,,,,,,,,,,,,,,,,,,,,,,,,,,,,,,,,,,,,,,,,,,
850851,001,2022-11-20_23h54.18.345,Info_measure_main_exp,2022.2.2,Win32,161.6814875,,,,,,,,,,,,,,,,,,masks/mask_001.jpg,,,,,,,,,,,,,,,,,,,,,,,,,,,,,,,,,,,,,,,,,,,0,1,1,0,1,,,,,,,,,,,,,,,,,,,,,,,,,,,,,,,,,,,,,,,,,,,,,,
850851,001,2022-11-20_23h54.18.345,Info_measure_main_exp,2022.2.2,Win32,161.6814875,,,,,,,,,,,,,,,,,,masks/mask_004.jpg,,,,,,,,,,,,,,,,,,,,,,,,,,,,,,,,,,,,,,,,,,,0,2,2,3,1,,,,,,,,,,,,,,,,,,,,,,,,,,,,,,,,,,,,,,,,,,,,,,
850851,001,2022-11-20_23h54.18.345,Info_measure_main_exp,2022.2.2,Win32,161.6814875,,,,,,,,,,,,,,,,,,masks/mask_003.jpg,,,,,,,,,,,,,,,,,,,,,,,,,,,,,,,,,,,,,,,,,,,0,3,3,2,1,,,,,,,,,,,,,,,,,,,,,,,,,,,,,,,,,,,,,,,,,,,,,,
850851,001,2022-11-20_23h54.18.345,Info_measure_main_exp,2022.2.2,Win32,161.6814875,,,,,,,,,,,,,,,,,,masks/mask_005.jpg,,,,,,,,,,,,,,,,,,,,,,,,,,,,,,,,,,,,,,,,,,,0,4,4,4,1,,,,,,,,,,,,,,,,,,,,,,,,,,,,,,,,,,,,,,,,,,,,,,
850851,001,2022-11-20_23h54.18.345,Info_measure_main_exp,2022.2.2,Win32,161.6814875,,,,,,,,,,,,,,,,,,masks/mask_005.jpg,,,,,,,,,,,,,,,,,,,,,,,,,,,,,,,,,,,,,,,,,,,,,,,,0,0,0,4,1,,,,,,,,,,,,,,,,,,,,,,,,,,,,,,,,,,,,,,,,,
850851,001,2022-11-20_23h54.18.345,Info_measure_main_exp,2022.2.2,Win32,161.6814875,,,,,,,,,,,,,,,,,,masks/mask_003.jpg,,,,,,,,,,,,,,,,,,,,,,,,,,,,,,,,,,,,,,,,,,,,,,,,0,1,1,2,1,,,,,,,,,,,,,,,,,,,,,,,,,,,,,,,,,,,,,,,,,
850851,001,2022-11-20_23h54.18.345,Info_measure_main_exp,2022.2.2,Win32,161.6814875,,,,,,,,,,,,,,,,,,masks/mask_001.jpg,,,,,,,,,,,,,,,,,,,,,,,,,,,,,,,,,,,,,,,,,,,,,,,,0,2,2,0,1,,,,,,,,,,,,,,,,,,,,,,,,,,,,,,,,,,,,,,,,,
850851,001,2022-11-20_23h54.18.345,Info_measure_main_exp,2022.2.2,Win32,161.6814875,,,,,,,,,,,,,,,,,,masks/mask_002.jpg,,,,,,,,,,,,,,,,,,,,,,,,,,,,,,,,,,,,,,,,,,,,,,,,0,3,3,1,1,,,,,,,,,,,,,,,,,,,,,,,,,,,,,,,,,,,,,,,,,
850851,001,2022-11-20_23h54.18.345,Info_measure_main_exp,2022.2.2,Win32,161.6814875,,,,,,,,,,,,,,,,,,masks/mask_004.jpg,,,,,,,,,,,,,,,,,,,,,,,,,,,,,,,,,,,,,,,,,,,,,,,,0,4,4,3,1,,,,,,,,,,,,,,,,,,,,,,,,,,,,,,,,,,,,,,,,,
850851,001,2022-11-20_23h54.18.345,Info_measure_main_exp,2022.2.2,Win32,161.6814875,,,,,,,,,,,,,,,,,,,,,,,,,,,,,,6,2.9338,1,,,,,,,,,,,,0,131,5,5,2298,1986,absent_patch/patch0002298.jpg,absent_patch/patch0001986.jpg,,,,,,,,,,,,,,,,,,,,0.084259259,0.026851852,1,0,0,response1disk,15,0.007407407,-0.003703704,1,0,0,center_square,0,14,14,32,1,,,,,,,,,,,,,,,,,,,,,,,
850851,001,2022-11-20_23h54.18.345,Info_measure_main_exp,2022.2.2,Win32,161.6814875,,,,,,,,,,,,,,,,,,masks/mask_002.jpg,,,,,,,,,,,,,,,,,,,,,,,,,,,,,,,,,,,,,,,,,,,0,0,0,1,1,,,,,,,,,,,,,,,,,,,,,,,,,,,,,,,,,,,,,,,,,,,,,,
850851,001,2022-11-20_23h54.18.345,Info_measure_main_exp,2022.2.2,Win32,161.6814875,,,,,,,,,,,,,,,,,,masks/mask_004.jpg,,,,,,,,,,,,,,,,,,,,,,,,,,,,,,,,,,,,,,,,,,,0,1,1,3,1,,,,,,,,,,,,,,,,,,,,,,,,,,,,,,,,,,,,,,,,,,,,,,
850851,001,2022-11-20_23h54.18.345,Info_measure_main_exp,2022.2.2,Win32,161.6814875,,,,,,,,,,,,,,,,,,masks/mask_005.jpg,,,,,,,,,,,,,,,,,,,,,,,,,,,,,,,,,,,,,,,,,,,0,2,2,4,1,,,,,,,,,,,,,,,,,,,,,,,,,,,,,,,,,,,,,,,,,,,,,,
850851,001,2022-11-20_23h54.18.345,Info_measure_main_exp,2022.2.2,Win32,161.6814875,,,,,,,,,,,,,,,,,,masks/mask_001.jpg,,,,,,,,,,,,,,,,,,,,,,,,,,,,,,,,,,,,,,,,,,,0,3,3,0,1,,,,,,,,,,,,,,,,,,,,,,,,,,,,,,,,,,,,,,,,,,,,,,
850851,001,2022-11-20_23h54.18.345,Info_measure_main_exp,2022.2.2,Win32,161.6814875,,,,,,,,,,,,,,,,,,masks/mask_003.jpg,,,,,,,,,,,,,,,,,,,,,,,,,,,,,,,,,,,,,,,,,,,0,4,4,2,1,,,,,,,,,,,,,,,,,,,,,,,,,,,,,,,,,,,,,,,,,,,,,,
850851,001,2022-11-20_23h54.18.345,Info_measure_main_exp,2022.2.2,Win32,161.6814875,,,,,,,,,,,,,,,,,,masks/mask_005.jpg,,,,,,,,,,,,,,,,,,,,,,,,,,,,,,,,,,,,,,,,,,,,,,,,0,0,0,4,1,,,,,,,,,,,,,,,,,,,,,,,,,,,,,,,,,,,,,,,,,
850851,001,2022-11-20_23h54.18.345,Info_measure_main_exp,2022.2.2,Win32,161.6814875,,,,,,,,,,,,,,,,,,masks/mask_001.jpg,,,,,,,,,,,,,,,,,,,,,,,,,,,,,,,,,,,,,,,,,,,,,,,,0,1,1,0,1,,,,,,,,,,,,,,,,,,,,,,,,,,,,,,,,,,,,,,,,,
850851,001,2022-11-20_23h54.18.345,Info_measure_main_exp,2022.2.2,Win32,161.6814875,,,,,,,,,,,,,,,,,,masks/mask_003.jpg,,,,,,,,,,,,,,,,,,,,,,,,,,,,,,,,,,,,,,,,,,,,,,,,0,2,2,2,1,,,,,,,,,,,,,,,,,,,,,,,,,,,,,,,,,,,,,,,,,
850851,001,2022-11-20_23h54.18.345,Info_measure_main_exp,2022.2.2,Win32,161.6814875,,,,,,,,,,,,,,,,,,masks/mask_002.jpg,,,,,,,,,,,,,,,,,,,,,,,,,,,,,,,,,,,,,,,,,,,,,,,,0,3,3,1,1,,,,,,,,,,,,,,,,,,,,,,,,,,,,,,,,,,,,,,,,,
850851,001,2022-11-20_23h54.18.345,Info_measure_main_exp,2022.2.2,Win32,161.6814875,,,,,,,,,,,,,,,,,,masks/mask_004.jpg,,,,,,,,,,,,,,,,,,,,,,,,,,,,,,,,,,,,,,,,,,,,,,,,0,4,4,3,1,,,,,,,,,,,,,,,,,,,,,,,,,,,,,,,,,,,,,,,,,
850851,001,2022-11-20_23h54.18.345,Info_measure_main_exp,2022.2.2,Win32,161.6814875,,,,,,,,,,,,,,,,,,,,,,,,,,,,,,4,0.6502,1,,,,,,,,,,,,0,131,5,5,2082,1974,absent_patch/patch0002082.jpg,absent_patch/patch0001974.jpg,,,,,,,,,,,,,,,,,,,,0.02037037,-0.07037037,1,0,0,response3disk,16,0.012037037,0.015740741,1,0,0,center_square,0,15,15,26,1,,,,,,,,,,,,,,,,,,,,,,,
850851,001,2022-11-20_23h54.18.345,Info_measure_main_exp,2022.2.2,Win32,161.6814875,,,,,,,,,,,,,,,,,,masks/mask_002.jpg,,,,,,,,,,,,,,,,,,,,,,,,,,,,,,,,,,,,,,,,,,,0,0,0,1,1,,,,,,,,,,,,,,,,,,,,,,,,,,,,,,,,,,,,,,,,,,,,,,
850851,001,2022-11-20_23h54.18.345,Info_measure_main_exp,2022.2.2,Win32,161.6814875,,,,,,,,,,,,,,,,,,masks/mask_005.jpg,,,,,,,,,,,,,,,,,,,,,,,,,,,,,,,,,,,,,,,,,,,0,1,1,4,1,,,,,,,,,,,,,,,,,,,,,,,,,,,,,,,,,,,,,,,,,,,,,,
850851,001,2022-11-20_23h54.18.345,Info_measure_main_exp,2022.2.2,Win32,161.6814875,,,,,,,,,,,,,,,,,,masks/mask_004.jpg,,,,,,,,,,,,,,,,,,,,,,,,,,,,,,,,,,,,,,,,,,,0,2,2,3,1,,,,,,,,,,,,,,,,,,,,,,,,,,,,,,,,,,,,,,,,,,,,,,
850851,001,2022-11-20_23h54.18.345,Info_measure_main_exp,2022.2.2,Win32,161.6814875,,,,,,,,,,,,,,,,,,masks/mask_001.jpg,,,,,,,,,,,,,,,,,,,,,,,,,,,,,,,,,,,,,,,,,,,0,3,3,0,1,,,,,,,,,,,,,,,,,,,,,,,,,,,,,,,,,,,,,,,,,,,,,,
850851,001,2022-11-20_23h54.18.345,Info_measure_main_exp,2022.2.2,Win32,161.6814875,,,,,,,,,,,,,,,,,,masks/mask_003.jpg,,,,,,,,,,,,,,,,,,,,,,,,,,,,,,,,,,,,,,,,,,,0,4,4,2,1,,,,,,,,,,,,,,,,,,,,,,,,,,,,,,,,,,,,,,,,,,,,,,
850851,001,2022-11-20_23h54.18.345,Info_measure_main_exp,2022.2.2,Win32,161.6814875,,,,,,,,,,,,,,,,,,masks/mask_003.jpg,,,,,,,,,,,,,,,,,,,,,,,,,,,,,,,,,,,,,,,,,,,,,,,,0,0,0,2,1,,,,,,,,,,,,,,,,,,,,,,,,,,,,,,,,,,,,,,,,,
850851,001,2022-11-20_23h54.18.345,Info_measure_main_exp,2022.2.2,Win32,161.6814875,,,,,,,,,,,,,,,,,,masks/mask_005.jpg,,,,,,,,,,,,,,,,,,,,,,,,,,,,,,,,,,,,,,,,,,,,,,,,0,1,1,4,1,,,,,,,,,,,,,,,,,,,,,,,,,,,,,,,,,,,,,,,,,
850851,001,2022-11-20_23h54.18.345,Info_measure_main_exp,2022.2.2,Win32,161.6814875,,,,,,,,,,,,,,,,,,masks/mask_002.jpg,,,,,,,,,,,,,,,,,,,,,,,,,,,,,,,,,,,,,,,,,,,,,,,,0,2,2,1,1,,,,,,,,,,,,,,,,,,,,,,,,,,,,,,,,,,,,,,,,,
850851,001,2022-11-20_23h54.18.345,Info_measure_main_exp,2022.2.2,Win32,161.6814875,,,,,,,,,,,,,,,,,,masks/mask_001.jpg,,,,,,,,,,,,,,,,,,,,,,,,,,,,,,,,,,,,,,,,,,,,,,,,0,3,3,0,1,,,,,,,,,,,,,,,,,,,,,,,,,,,,,,,,,,,,,,,,,
850851,001,2022-11-20_23h54.18.345,Info_measure_main_exp,2022.2.2,Win32,161.6814875,,,,,,,,,,,,,,,,,,masks/mask_004.jpg,,,,,,,,,,,,,,,,,,,,,,,,,,,,,,,,,,,,,,,,,,,,,,,,0,4,4,3,1,,,,,,,,,,,,,,,,,,,,,,,,,,,,,,,,,,,,,,,,,
850851,001,2022-11-20_23h54.18.345,Info_measure_main_exp,2022.2.2,Win32,161.6814875,,,,,,,,,,,,,,,,,,,,,,,,,,,,,,7,0.5496,1,,,,,,,,,,,,0,131,5,5,2190,2166,absent_patch/patch0002190.jpg,absent_patch/patch0002166.jpg,,,,,,,,,,,,,,,,,,,,0.016666667,0.080555556,1,0,0,response1disk,17,-0.000925926,-0.000925926,1,0,0,center_square,0,16,16,50,1,,,,,,,,,,,,,,,,,,,,,,,
850851,001,2022-11-20_23h54.18.345,Info_measure_main_exp,2022.2.2,Win32,161.6814875,,,,,,,,,,,,,,,,,,masks/mask_004.jpg,,,,,,,,,,,,,,,,,,,,,,,,,,,,,,,,,,,,,,,,,,,0,0,0,3,1,,,,,,,,,,,,,,,,,,,,,,,,,,,,,,,,,,,,,,,,,,,,,,
850851,001,2022-11-20_23h54.18.345,Info_measure_main_exp,2022.2.2,Win32,161.6814875,,,,,,,,,,,,,,,,,,masks/mask_001.jpg,,,,,,,,,,,,,,,,,,,,,,,,,,,,,,,,,,,,,,,,,,,0,1,1,0,1,,,,,,,,,,,,,,,,,,,,,,,,,,,,,,,,,,,,,,,,,,,,,,
850851,001,2022-11-20_23h54.18.345,Info_measure_main_exp,2022.2.2,Win32,161.6814875,,,,,,,,,,,,,,,,,,masks/mask_005.jpg,,,,,,,,,,,,,,,,,,,,,,,,,,,,,,,,,,,,,,,,,,,0,2,2,4,1,,,,,,,,,,,,,,,,,,,,,,,,,,,,,,,,,,,,,,,,,,,,,,
850851,001,2022-11-20_23h54.18.345,Info_measure_main_exp,2022.2.2,Win32,161.6814875,,,,,,,,,,,,,,,,,,masks/mask_002.jpg,,,,,,,,,,,,,,,,,,,,,,,,,,,,,,,,,,,,,,,,,,,0,3,3,1,1,,,,,,,,,,,,,,,,,,,,,,,,,,,,,,,,,,,,,,,,,,,,,,
850851,001,2022-11-20_23h54.18.345,Info_measure_main_exp,2022.2.2,Win32,161.6814875,,,,,,,,,,,,,,,,,,masks/mask_003.jpg,,,,,,,,,,,,,,,,,,,,,,,,,,,,,,,,,,,,,,,,,,,0,4,4,2,1,,,,,,,,,,,,,,,,,,,,,,,,,,,,,,,,,,,,,,,,,,,,,,
850851,001,2022-11-20_23h54.18.345,Info_measure_main_exp,2022.2.2,Win32,161.6814875,,,,,,,,,,,,,,,,,,masks/mask_002.jpg,,,,,,,,,,,,,,,,,,,,,,,,,,,,,,,,,,,,,,,,,,,,,,,,0,0,0,1,1,,,,,,,,,,,,,,,,,,,,,,,,,,,,,,,,,,,,,,,,,
850851,001,2022-11-20_23h54.18.345,Info_measure_main_exp,2022.2.2,Win32,161.6814875,,,,,,,,,,,,,,,,,,masks/mask_003.jpg,,,,,,,,,,,,,,,,,,,,,,,,,,,,,,,,,,,,,,,,,,,,,,,,0,1,1,2,1,,,,,,,,,,,,,,,,,,,,,,,,,,,,,,,,,,,,,,,,,
850851,001,2022-11-20_23h54.18.345,Info_measure_main_exp,2022.2.2,Win32,161.6814875,,,,,,,,,,,,,,,,,,masks/mask_001.jpg,,,,,,,,,,,,,,,,,,,,,,,,,,,,,,,,,,,,,,,,,,,,,,,,0,2,2,0,1,,,,,,,,,,,,,,,,,,,,,,,,,,,,,,,,,,,,,,,,,
850851,001,2022-11-20_23h54.18.345,Info_measure_main_exp,2022.2.2,Win32,161.6814875,,,,,,,,,,,,,,,,,,masks/mask_004.jpg,,,,,,,,,,,,,,,,,,,,,,,,,,,,,,,,,,,,,,,,,,,,,,,,0,3,3,3,1,,,,,,,,,,,,,,,,,,,,,,,,,,,,,,,,,,,,,,,,,
850851,001,2022-11-20_23h54.18.345,Info_measure_main_exp,2022.2.2,Win32,161.6814875,,,,,,,,,,,,,,,,,,masks/mask_005.jpg,,,,,,,,,,,,,,,,,,,,,,,,,,,,,,,,,,,,,,,,,,,,,,,,0,4,4,4,1,,,,,,,,,,,,,,,,,,,,,,,,,,,,,,,,,,,,,,,,,
850851,001,2022-11-20_23h54.18.345,Info_measure_main_exp,2022.2.2,Win32,161.6814875,,,,,,,,,,,,,,,,,,,,,,,,,,,,,,6,1.0504,1,,,,,,,,,,,,0,131,5,5,2154,2298,absent_patch/patch0002154.jpg,absent_patch/patch0002298.jpg,,,,,,,,,,,,,,,,,,,,0.082407407,0.025925926,1,0,0,response1disk,18,0.002777778,-0.00462963,1,0,0,center_square,0,17,17,27,1,,,,,,,,,,,,,,,,,,,,,,,
850851,001,2022-11-20_23h54.18.345,Info_measure_main_exp,2022.2.2,Win32,161.6814875,,,,,,,,,,,,,,,,,,masks/mask_003.jpg,,,,,,,,,,,,,,,,,,,,,,,,,,,,,,,,,,,,,,,,,,,0,0,0,2,1,,,,,,,,,,,,,,,,,,,,,,,,,,,,,,,,,,,,,,,,,,,,,,
850851,001,2022-11-20_23h54.18.345,Info_measure_main_exp,2022.2.2,Win32,161.6814875,,,,,,,,,,,,,,,,,,masks/mask_005.jpg,,,,,,,,,,,,,,,,,,,,,,,,,,,,,,,,,,,,,,,,,,,0,1,1,4,1,,,,,,,,,,,,,,,,,,,,,,,,,,,,,,,,,,,,,,,,,,,,,,
850851,001,2022-11-20_23h54.18.345,Info_measure_main_exp,2022.2.2,Win32,161.6814875,,,,,,,,,,,,,,,,,,masks/mask_001.jpg,,,,,,,,,,,,,,,,,,,,,,,,,,,,,,,,,,,,,,,,,,,0,2,2,0,1,,,,,,,,,,,,,,,,,,,,,,,,,,,,,,,,,,,,,,,,,,,,,,
850851,001,2022-11-20_23h54.18.345,Info_measure_main_exp,2022.2.2,Win32,161.6814875,,,,,,,,,,,,,,,,,,masks/mask_004.jpg,,,,,,,,,,,,,,,,,,,,,,,,,,,,,,,,,,,,,,,,,,,0,3,3,3,1,,,,,,,,,,,,,,,,,,,,,,,,,,,,,,,,,,,,,,,,,,,,,,
850851,001,2022-11-20_23h54.18.345,Info_measure_main_exp,2022.2.2,Win32,161.6814875,,,,,,,,,,,,,,,,,,masks/mask_002.jpg,,,,,,,,,,,,,,,,,,,,,,,,,,,,,,,,,,,,,,,,,,,0,4,4,1,1,,,,,,,,,,,,,,,,,,,,,,,,,,,,,,,,,,,,,,,,,,,,,,
850851,001,2022-11-20_23h54.18.345,Info_measure_main_exp,2022.2.2,Win32,161.6814875,,,,,,,,,,,,,,,,,,masks/mask_002.jpg,,,,,,,,,,,,,,,,,,,,,,,,,,,,,,,,,,,,,,,,,,,,,,,,0,0,0,1,1,,,,,,,,,,,,,,,,,,,,,,,,,,,,,,,,,,,,,,,,,
850851,001,2022-11-20_23h54.18.345,Info_measure_main_exp,2022.2.2,Win32,161.6814875,,,,,,,,,,,,,,,,,,masks/mask_004.jpg,,,,,,,,,,,,,,,,,,,,,,,,,,,,,,,,,,,,,,,,,,,,,,,,0,1,1,3,1,,,,,,,,,,,,,,,,,,,,,,,,,,,,,,,,,,,,,,,,,
850851,001,2022-11-20_23h54.18.345,Info_measure_main_exp,2022.2.2,Win32,161.6814875,,,,,,,,,,,,,,,,,,masks/mask_003.jpg,,,,,,,,,,,,,,,,,,,,,,,,,,,,,,,,,,,,,,,,,,,,,,,,0,2,2,2,1,,,,,,,,,,,,,,,,,,,,,,,,,,,,,,,,,,,,,,,,,
850851,001,2022-11-20_23h54.18.345,Info_measure_main_exp,2022.2.2,Win32,161.6814875,,,,,,,,,,,,,,,,,,masks/mask_001.jpg,,,,,,,,,,,,,,,,,,,,,,,,,,,,,,,,,,,,,,,,,,,,,,,,0,3,3,0,1,,,,,,,,,,,,,,,,,,,,,,,,,,,,,,,,,,,,,,,,,
850851,001,2022-11-20_23h54.18.345,Info_measure_main_exp,2022.2.2,Win32,161.6814875,,,,,,,,,,,,,,,,,,masks/mask_005.jpg,,,,,,,,,,,,,,,,,,,,,,,,,,,,,,,,,,,,,,,,,,,,,,,,0,4,4,4,1,,,,,,,,,,,,,,,,,,,,,,,,,,,,,,,,,,,,,,,,,
850851,001,2022-11-20_23h54.18.345,Info_measure_main_exp,2022.2.2,Win32,161.6814875,,,,,,,,,,,,,,,,,,,,,,,,,,,,,,7,0.6499,1,,,,,,,,,,,,0,131,5,5,2298,2214,absent_patch/patch0002298.jpg,absent_patch/patch0002214.jpg,,,,,,,,,,,,,,,,,,,,0.028703704,0.066666667,1,0,0,response1disk,19,0.010185185,-0.000925926,1,0,0,center_square,0,18,18,99,1,,,,,,,,,,,,,,,,,,,,,,,
850851,001,2022-11-20_23h54.18.345,Info_measure_main_exp,2022.2.2,Win32,161.6814875,,,,,,,,,,,,,,,,,,masks/mask_003.jpg,,,,,,,,,,,,,,,,,,,,,,,,,,,,,,,,,,,,,,,,,,,0,0,0,2,1,,,,,,,,,,,,,,,,,,,,,,,,,,,,,,,,,,,,,,,,,,,,,,
850851,001,2022-11-20_23h54.18.345,Info_measure_main_exp,2022.2.2,Win32,161.6814875,,,,,,,,,,,,,,,,,,masks/mask_001.jpg,,,,,,,,,,,,,,,,,,,,,,,,,,,,,,,,,,,,,,,,,,,0,1,1,0,1,,,,,,,,,,,,,,,,,,,,,,,,,,,,,,,,,,,,,,,,,,,,,,
850851,001,2022-11-20_23h54.18.345,Info_measure_main_exp,2022.2.2,Win32,161.6814875,,,,,,,,,,,,,,,,,,masks/mask_004.jpg,,,,,,,,,,,,,,,,,,,,,,,,,,,,,,,,,,,,,,,,,,,0,2,2,3,1,,,,,,,,,,,,,,,,,,,,,,,,,,,,,,,,,,,,,,,,,,,,,,
850851,001,2022-11-20_23h54.18.345,Info_measure_main_exp,2022.2.2,Win32,161.6814875,,,,,,,,,,,,,,,,,,masks/mask_002.jpg,,,,,,,,,,,,,,,,,,,,,,,,,,,,,,,,,,,,,,,,,,,0,3,3,1,1,,,,,,,,,,,,,,,,,,,,,,,,,,,,,,,,,,,,,,,,,,,,,,
850851,001,2022-11-20_23h54.18.345,Info_measure_main_exp,2022.2.2,Win32,161.6814875,,,,,,,,,,,,,,,,,,masks/mask_005.jpg,,,,,,,,,,,,,,,,,,,,,,,,,,,,,,,,,,,,,,,,,,,0,4,4,4,1,,,,,,,,,,,,,,,,,,,,,,,,,,,,,,,,,,,,,,,,,,,,,,
850851,001,2022-11-20_23h54.18.345,Info_measure_main_exp,2022.2.2,Win32,161.6814875,,,,,,,,,,,,,,,,,,masks/mask_003.jpg,,,,,,,,,,,,,,,,,,,,,,,,,,,,,,,,,,,,,,,,,,,,,,,,0,0,0,2,1,,,,,,,,,,,,,,,,,,,,,,,,,,,,,,,,,,,,,,,,,
850851,001,2022-11-20_23h54.18.345,Info_measure_main_exp,2022.2.2,Win32,161.6814875,,,,,,,,,,,,,,,,,,masks/mask_005.jpg,,,,,,,,,,,,,,,,,,,,,,,,,,,,,,,,,,,,,,,,,,,,,,,,0,1,1,4,1,,,,,,,,,,,,,,,,,,,,,,,,,,,,,,,,,,,,,,,,,
850851,001,2022-11-20_23h54.18.345,Info_measure_main_exp,2022.2.2,Win32,161.6814875,,,,,,,,,,,,,,,,,,masks/mask_002.jpg,,,,,,,,,,,,,,,,,,,,,,,,,,,,,,,,,,,,,,,,,,,,,,,,0,2,2,1,1,,,,,,,,,,,,,,,,,,,,,,,,,,,,,,,,,,,,,,,,,
850851,001,2022-11-20_23h54.18.345,Info_measure_main_exp,2022.2.2,Win32,161.6814875,,,,,,,,,,,,,,,,,,masks/mask_004.jpg,,,,,,,,,,,,,,,,,,,,,,,,,,,,,,,,,,,,,,,,,,,,,,,,0,3,3,3,1,,,,,,,,,,,,,,,,,,,,,,,,,,,,,,,,,,,,,,,,,
850851,001,2022-11-20_23h54.18.345,Info_measure_main_exp,2022.2.2,Win32,161.6814875,,,,,,,,,,,,,,,,,,masks/mask_001.jpg,,,,,,,,,,,,,,,,,,,,,,,,,,,,,,,,,,,,,,,,,,,,,,,,0,4,4,0,1,,,,,,,,,,,,,,,,,,,,,,,,,,,,,,,,,,,,,,,,,
850851,001,2022-11-20_23h54.18.345,Info_measure_main_exp,2022.2.2,Win32,161.6814875,,,,,,,,,,,,,,,,,,,,,,,,,,,,,,6,2.0161,1,,,,,,,,,,,,0,131,5,5,2082,2238,absent_patch/patch0002082.jpg,absent_patch/patch0002238.jpg,,,,,,,,,,,,,,,,,,,,0.035185185,0.023148148,1,0,0,response1disk,20,0.00462963,-0.00462963,1,0,0,center_square,0,19,19,22,1,,,,,,,,,,,,,,,,,,,,,,,
850851,001,2022-11-20_23h54.18.345,Info_measure_main_exp,2022.2.2,Win32,161.6814875,,,,,,,,,,,,,,,,,,masks/mask_002.jpg,,,,,,,,,,,,,,,,,,,,,,,,,,,,,,,,,,,,,,,,,,,0,0,0,1,1,,,,,,,,,,,,,,,,,,,,,,,,,,,,,,,,,,,,,,,,,,,,,,
850851,001,2022-11-20_23h54.18.345,Info_measure_main_exp,2022.2.2,Win32,161.6814875,,,,,,,,,,,,,,,,,,masks/mask_005.jpg,,,,,,,,,,,,,,,,,,,,,,,,,,,,,,,,,,,,,,,,,,,0,1,1,4,1,,,,,,,,,,,,,,,,,,,,,,,,,,,,,,,,,,,,,,,,,,,,,,
850851,001,2022-11-20_23h54.18.345,Info_measure_main_exp,2022.2.2,Win32,161.6814875,,,,,,,,,,,,,,,,,,masks/mask_001.jpg,,,,,,,,,,,,,,,,,,,,,,,,,,,,,,,,,,,,,,,,,,,0,2,2,0,1,,,,,,,,,,,,,,,,,,,,,,,,,,,,,,,,,,,,,,,,,,,,,,
850851,001,2022-11-20_23h54.18.345,Info_measure_main_exp,2022.2.2,Win32,161.6814875,,,,,,,,,,,,,,,,,,masks/mask_004.jpg,,,,,,,,,,,,,,,,,,,,,,,,,,,,,,,,,,,,,,,,,,,0,3,3,3,1,,,,,,,,,,,,,,,,,,,,,,,,,,,,,,,,,,,,,,,,,,,,,,
850851,001,2022-11-20_23h54.18.345,Info_measure_main_exp,2022.2.2,Win32,161.6814875,,,,,,,,,,,,,,,,,,masks/mask_003.jpg,,,,,,,,,,,,,,,,,,,,,,,,,,,,,,,,,,,,,,,,,,,0,4,4,2,1,,,,,,,,,,,,,,,,,,,,,,,,,,,,,,,,,,,,,,,,,,,,,,
850851,001,2022-11-20_23h54.18.345,Info_measure_main_exp,2022.2.2,Win32,161.6814875,,,,,,,,,,,,,,,,,,masks/mask_005.jpg,,,,,,,,,,,,,,,,,,,,,,,,,,,,,,,,,,,,,,,,,,,,,,,,0,0,0,4,1,,,,,,,,,,,,,,,,,,,,,,,,,,,,,,,,,,,,,,,,,
850851,001,2022-11-20_23h54.18.345,Info_measure_main_exp,2022.2.2,Win32,161.6814875,,,,,,,,,,,,,,,,,,masks/mask_003.jpg,,,,,,,,,,,,,,,,,,,,,,,,,,,,,,,,,,,,,,,,,,,,,,,,0,1,1,2,1,,,,,,,,,,,,,,,,,,,,,,,,,,,,,,,,,,,,,,,,,
850851,001,2022-11-20_23h54.18.345,Info_measure_main_exp,2022.2.2,Win32,161.6814875,,,,,,,,,,,,,,,,,,masks/mask_001.jpg,,,,,,,,,,,,,,,,,,,,,,,,,,,,,,,,,,,,,,,,,,,,,,,,0,2,2,0,1,,,,,,,,,,,,,,,,,,,,,,,,,,,,,,,,,,,,,,,,,
850851,001,2022-11-20_23h54.18.345,Info_measure_main_exp,2022.2.2,Win32,161.6814875,,,,,,,,,,,,,,,,,,masks/mask_004.jpg,,,,,,,,,,,,,,,,,,,,,,,,,,,,,,,,,,,,,,,,,,,,,,,,0,3,3,3,1,,,,,,,,,,,,,,,,,,,,,,,,,,,,,,,,,,,,,,,,,
850851,001,2022-11-20_23h54.18.345,Info_measure_main_exp,2022.2.2,Win32,161.6814875,,,,,,,,,,,,,,,,,,masks/mask_002.jpg,,,,,,,,,,,,,,,,,,,,,,,,,,,,,,,,,,,,,,,,,,,,,,,,0,4,4,1,1,,,,,,,,,,,,,,,,,,,,,,,,,,,,,,,,,,,,,,,,,
850851,001,2022-11-20_23h54.18.345,Info_measure_main_exp,2022.2.2,Win32,161.6814875,,,,,,,,,,,,,,,,,,,,,,,,,,,,,,6,0.7178,1,,,,,,,,,,,,0,131,5,5,1974,2250,absent_patch/patch0001974.jpg,absent_patch/patch0002250.jpg,,,,,,,,,,,,,,,,,,,,0.058333333,0.019444444,1,0,0,response1disk,21,0.005555556,-0.001851852,1,0,0,center_square,0,20,20,55,1,,,,,,,,,,,,,,,,,,,,,,,
850851,001,2022-11-20_23h54.18.345,Info_measure_main_exp,2022.2.2,Win32,161.6814875,,,,,,,,,,,,,,,,,,masks/mask_005.jpg,,,,,,,,,,,,,,,,,,,,,,,,,,,,,,,,,,,,,,,,,,,0,0,0,4,1,,,,,,,,,,,,,,,,,,,,,,,,,,,,,,,,,,,,,,,,,,,,,,
850851,001,2022-11-20_23h54.18.345,Info_measure_main_exp,2022.2.2,Win32,161.6814875,,,,,,,,,,,,,,,,,,masks/mask_002.jpg,,,,,,,,,,,,,,,,,,,,,,,,,,,,,,,,,,,,,,,,,,,0,1,1,1,1,,,,,,,,,,,,,,,,,,,,,,,,,,,,,,,,,,,,,,,,,,,,,,
850851,001,2022-11-20_23h54.18.345,Info_measure_main_exp,2022.2.2,Win32,161.6814875,,,,,,,,,,,,,,,,,,masks/mask_003.jpg,,,,,,,,,,,,,,,,,,,,,,,,,,,,,,,,,,,,,,,,,,,0,2,2,2,1,,,,,,,,,,,,,,,,,,,,,,,,,,,,,,,,,,,,,,,,,,,,,,
850851,001,2022-11-20_23h54.18.345,Info_measure_main_exp,2022.2.2,Win32,161.6814875,,,,,,,,,,,,,,,,,,masks/mask_001.jpg,,,,,,,,,,,,,,,,,,,,,,,,,,,,,,,,,,,,,,,,,,,0,3,3,0,1,,,,,,,,,,,,,,,,,,,,,,,,,,,,,,,,,,,,,,,,,,,,,,
850851,001,2022-11-20_23h54.18.345,Info_measure_main_exp,2022.2.2,Win32,161.6814875,,,,,,,,,,,,,,,,,,masks/mask_004.jpg,,,,,,,,,,,,,,,,,,,,,,,,,,,,,,,,,,,,,,,,,,,0,4,4,3,1,,,,,,,,,,,,,,,,,,,,,,,,,,,,,,,,,,,,,,,,,,,,,,
850851,001,2022-11-20_23h54.18.345,Info_measure_main_exp,2022.2.2,Win32,161.6814875,,,,,,,,,,,,,,,,,,masks/mask_003.jpg,,,,,,,,,,,,,,,,,,,,,,,,,,,,,,,,,,,,,,,,,,,,,,,,0,0,0,2,1,,,,,,,,,,,,,,,,,,,,,,,,,,,,,,,,,,,,,,,,,
850851,001,2022-11-20_23h54.18.345,Info_measure_main_exp,2022.2.2,Win32,161.6814875,,,,,,,,,,,,,,,,,,masks/mask_004.jpg,,,,,,,,,,,,,,,,,,,,,,,,,,,,,,,,,,,,,,,,,,,,,,,,0,1,1,3,1,,,,,,,,,,,,,,,,,,,,,,,,,,,,,,,,,,,,,,,,,
850851,001,2022-11-20_23h54.18.345,Info_measure_main_exp,2022.2.2,Win32,161.6814875,,,,,,,,,,,,,,,,,,masks/mask_005.jpg,,,,,,,,,,,,,,,,,,,,,,,,,,,,,,,,,,,,,,,,,,,,,,,,0,2,2,4,1,,,,,,,,,,,,,,,,,,,,,,,,,,,,,,,,,,,,,,,,,
850851,001,2022-11-20_23h54.18.345,Info_measure_main_exp,2022.2.2,Win32,161.6814875,,,,,,,,,,,,,,,,,,masks/mask_001.jpg,,,,,,,,,,,,,,,,,,,,,,,,,,,,,,,,,,,,,,,,,,,,,,,,0,3,3,0,1,,,,,,,,,,,,,,,,,,,,,,,,,,,,,,,,,,,,,,,,,
850851,001,2022-11-20_23h54.18.345,Info_measure_main_exp,2022.2.2,Win32,161.6814875,,,,,,,,,,,,,,,,,,masks/mask_002.jpg,,,,,,,,,,,,,,,,,,,,,,,,,,,,,,,,,,,,,,,,,,,,,,,,0,4,4,1,1,,,,,,,,,,,,,,,,,,,,,,,,,,,,,,,,,,,,,,,,,
850851,001,2022-11-20_23h54.18.345,Info_measure_main_exp,2022.2.2,Win32,161.6814875,,,,,,,,,,,,,,,,,,,,,,,,,,,,,,6,5.984,1,,,,,,,,,,,,0,131,5,5,1974,1950,absent_patch/patch0001974.jpg,absent_patch/patch0001950.jpg,,,,,,,,,,,,,,,,,,,,0.059259259,0.023148148,1,0,0,response1disk,22,0.000925926,-0.006481481,1,0,0,center_square,0,21,21,17,1,,,,,,,,,,,,,,,,,,,,,,,
850851,001,2022-11-20_23h54.18.345,Info_measure_main_exp,2022.2.2,Win32,161.6814875,,,,,,,,,,,,,,,,,,masks/mask_003.jpg,,,,,,,,,,,,,,,,,,,,,,,,,,,,,,,,,,,,,,,,,,,0,0,0,2,1,,,,,,,,,,,,,,,,,,,,,,,,,,,,,,,,,,,,,,,,,,,,,,
850851,001,2022-11-20_23h54.18.345,Info_measure_main_exp,2022.2.2,Win32,161.6814875,,,,,,,,,,,,,,,,,,masks/mask_002.jpg,,,,,,,,,,,,,,,,,,,,,,,,,,,,,,,,,,,,,,,,,,,0,1,1,1,1,,,,,,,,,,,,,,,,,,,,,,,,,,,,,,,,,,,,,,,,,,,,,,
850851,001,2022-11-20_23h54.18.345,Info_measure_main_exp,2022.2.2,Win32,161.6814875,,,,,,,,,,,,,,,,,,masks/mask_005.jpg,,,,,,,,,,,,,,,,,,,,,,,,,,,,,,,,,,,,,,,,,,,0,2,2,4,1,,,,,,,,,,,,,,,,,,,,,,,,,,,,,,,,,,,,,,,,,,,,,,
850851,001,2022-11-20_23h54.18.345,Info_measure_main_exp,2022.2.2,Win32,161.6814875,,,,,,,,,,,,,,,,,,masks/mask_004.jpg,,,,,,,,,,,,,,,,,,,,,,,,,,,,,,,,,,,,,,,,,,,0,3,3,3,1,,,,,,,,,,,,,,,,,,,,,,,,,,,,,,,,,,,,,,,,,,,,,,
850851,001,2022-11-20_23h54.18.345,Info_measure_main_exp,2022.2.2,Win32,161.6814875,,,,,,,,,,,,,,,,,,masks/mask_001.jpg,,,,,,,,,,,,,,,,,,,,,,,,,,,,,,,,,,,,,,,,,,,0,4,4,0,1,,,,,,,,,,,,,,,,,,,,,,,,,,,,,,,,,,,,,,,,,,,,,,
850851,001,2022-11-20_23h54.18.345,Info_measure_main_exp,2022.2.2,Win32,161.6814875,,,,,,,,,,,,,,,,,,masks/mask_001.jpg,,,,,,,,,,,,,,,,,,,,,,,,,,,,,,,,,,,,,,,,,,,,,,,,0,0,0,0,1,,,,,,,,,,,,,,,,,,,,,,,,,,,,,,,,,,,,,,,,,
850851,001,2022-11-20_23h54.18.345,Info_measure_main_exp,2022.2.2,Win32,161.6814875,,,,,,,,,,,,,,,,,,masks/mask_005.jpg,,,,,,,,,,,,,,,,,,,,,,,,,,,,,,,,,,,,,,,,,,,,,,,,0,1,1,4,1,,,,,,,,,,,,,,,,,,,,,,,,,,,,,,,,,,,,,,,,,
850851,001,2022-11-20_23h54.18.345,Info_measure_main_exp,2022.2.2,Win32,161.6814875,,,,,,,,,,,,,,,,,,masks/mask_004.jpg,,,,,,,,,,,,,,,,,,,,,,,,,,,,,,,,,,,,,,,,,,,,,,,,0,2,2,3,1,,,,,,,,,,,,,,,,,,,,,,,,,,,,,,,,,,,,,,,,,
850851,001,2022-11-20_23h54.18.345,Info_measure_main_exp,2022.2.2,Win32,161.6814875,,,,,,,,,,,,,,,,,,masks/mask_002.jpg,,,,,,,,,,,,,,,,,,,,,,,,,,,,,,,,,,,,,,,,,,,,,,,,0,3,3,1,1,,,,,,,,,,,,,,,,,,,,,,,,,,,,,,,,,,,,,,,,,
850851,001,2022-11-20_23h54.18.345,Info_measure_main_exp,2022.2.2,Win32,161.6814875,,,,,,,,,,,,,,,,,,masks/mask_003.jpg,,,,,,,,,,,,,,,,,,,,,,,,,,,,,,,,,,,,,,,,,,,,,,,,0,4,4,2,1,,,,,,,,,,,,,,,,,,,,,,,,,,,,,,,,,,,,,,,,,
850851,001,2022-11-20_23h54.18.345,Info_measure_main_exp,2022.2.2,Win32,161.6814875,,,,,,,,,,,,,,,,,,,,,,,,,,,,,,6,0.6997,1,,,,,,,,,,,,0,131,5,5,2274,2214,absent_patch/patch0002274.jpg,absent_patch/patch0002214.jpg,,,,,,,,,,,,,,,,,,,,0.058333333,0.025,1,0,0,response1disk,23,0.001851852,-0.007407407,1,0,0,center_square,0,22,22,11,1,,,,,,,,,,,,,,,,,,,,,,,
850851,001,2022-11-20_23h54.18.345,Info_measure_main_exp,2022.2.2,Win32,161.6814875,,,,,,,,,,,,,,,,,,masks/mask_001.jpg,,,,,,,,,,,,,,,,,,,,,,,,,,,,,,,,,,,,,,,,,,,0,0,0,0,1,,,,,,,,,,,,,,,,,,,,,,,,,,,,,,,,,,,,,,,,,,,,,,
850851,001,2022-11-20_23h54.18.345,Info_measure_main_exp,2022.2.2,Win32,161.6814875,,,,,,,,,,,,,,,,,,masks/mask_003.jpg,,,,,,,,,,,,,,,,,,,,,,,,,,,,,,,,,,,,,,,,,,,0,1,1,2,1,,,,,,,,,,,,,,,,,,,,,,,,,,,,,,,,,,,,,,,,,,,,,,
850851,001,2022-11-20_23h54.18.345,Info_measure_main_exp,2022.2.2,Win32,161.6814875,,,,,,,,,,,,,,,,,,masks/mask_004.jpg,,,,,,,,,,,,,,,,,,,,,,,,,,,,,,,,,,,,,,,,,,,0,2,2,3,1,,,,,,,,,,,,,,,,,,,,,,,,,,,,,,,,,,,,,,,,,,,,,,
850851,001,2022-11-20_23h54.18.345,Info_measure_main_exp,2022.2.2,Win32,161.6814875,,,,,,,,,,,,,,,,,,masks/mask_002.jpg,,,,,,,,,,,,,,,,,,,,,,,,,,,,,,,,,,,,,,,,,,,0,3,3,1,1,,,,,,,,,,,,,,,,,,,,,,,,,,,,,,,,,,,,,,,,,,,,,,
850851,001,2022-11-20_23h54.18.345,Info_measure_main_exp,2022.2.2,Win32,161.6814875,,,,,,,,,,,,,,,,,,masks/mask_005.jpg,,,,,,,,,,,,,,,,,,,,,,,,,,,,,,,,,,,,,,,,,,,0,4,4,4,1,,,,,,,,,,,,,,,,,,,,,,,,,,,,,,,,,,,,,,,,,,,,,,
850851,001,2022-11-20_23h54.18.345,Info_measure_main_exp,2022.2.2,Win32,161.6814875,,,,,,,,,,,,,,,,,,masks/mask_003.jpg,,,,,,,,,,,,,,,,,,,,,,,,,,,,,,,,,,,,,,,,,,,,,,,,0,0,0,2,1,,,,,,,,,,,,,,,,,,,,,,,,,,,,,,,,,,,,,,,,,
850851,001,2022-11-20_23h54.18.345,Info_measure_main_exp,2022.2.2,Win32,161.6814875,,,,,,,,,,,,,,,,,,masks/mask_001.jpg,,,,,,,,,,,,,,,,,,,,,,,,,,,,,,,,,,,,,,,,,,,,,,,,0,1,1,0,1,,,,,,,,,,,,,,,,,,,,,,,,,,,,,,,,,,,,,,,,,
850851,001,2022-11-20_23h54.18.345,Info_measure_main_exp,2022.2.2,Win32,161.6814875,,,,,,,,,,,,,,,,,,masks/mask_004.jpg,,,,,,,,,,,,,,,,,,,,,,,,,,,,,,,,,,,,,,,,,,,,,,,,0,2,2,3,1,,,,,,,,,,,,,,,,,,,,,,,,,,,,,,,,,,,,,,,,,
850851,001,2022-11-20_23h54.18.345,Info_measure_main_exp,2022.2.2,Win32,161.6814875,,,,,,,,,,,,,,,,,,masks/mask_005.jpg,,,,,,,,,,,,,,,,,,,,,,,,,,,,,,,,,,,,,,,,,,,,,,,,0,3,3,4,1,,,,,,,,,,,,,,,,,,,,,,,,,,,,,,,,,,,,,,,,,
850851,001,2022-11-20_23h54.18.345,Info_measure_main_exp,2022.2.2,Win32,161.6814875,,,,,,,,,,,,,,,,,,masks/mask_002.jpg,,,,,,,,,,,,,,,,,,,,,,,,,,,,,,,,,,,,,,,,,,,,,,,,0,4,4,1,1,,,,,,,,,,,,,,,,,,,,,,,,,,,,,,,,,,,,,,,,,
850851,001,2022-11-20_23h54.18.345,Info_measure_main_exp,2022.2.2,Win32,161.6814875,,,,,,,,,,,,,,,,,,,,,,,,,,,,,,6,4.0666,1,,,,,,,,,,,,0,131,5,5,2250,2142,absent_patch/patch0002250.jpg,absent_patch/patch0002142.jpg,,,,,,,,,,,,,,,,,,,,0.047222222,0.017592593,1,0,0,response1disk,24,-0.005555556,-0.003703704,1,0,0,center_square,0,23,23,71,1,,,,,,,,,,,,,,,,,,,,,,,
850851,001,2022-11-20_23h54.18.345,Info_measure_main_exp,2022.2.2,Win32,161.6814875,,,,,,,,,,,,,,,,,,masks/mask_003.jpg,,,,,,,,,,,,,,,,,,,,,,,,,,,,,,,,,,,,,,,,,,,0,0,0,2,1,,,,,,,,,,,,,,,,,,,,,,,,,,,,,,,,,,,,,,,,,,,,,,
850851,001,2022-11-20_23h54.18.345,Info_measure_main_exp,2022.2.2,Win32,161.6814875,,,,,,,,,,,,,,,,,,masks/mask_001.jpg,,,,,,,,,,,,,,,,,,,,,,,,,,,,,,,,,,,,,,,,,,,0,1,1,0,1,,,,,,,,,,,,,,,,,,,,,,,,,,,,,,,,,,,,,,,,,,,,,,
850851,001,2022-11-20_23h54.18.345,Info_measure_main_exp,2022.2.2,Win32,161.6814875,,,,,,,,,,,,,,,,,,masks/mask_004.jpg,,,,,,,,,,,,,,,,,,,,,,,,,,,,,,,,,,,,,,,,,,,0,2,2,3,1,,,,,,,,,,,,,,,,,,,,,,,,,,,,,,,,,,,,,,,,,,,,,,
850851,001,2022-11-20_23h54.18.345,Info_measure_main_exp,2022.2.2,Win32,161.6814875,,,,,,,,,,,,,,,,,,masks/mask_002.jpg,,,,,,,,,,,,,,,,,,,,,,,,,,,,,,,,,,,,,,,,,,,0,3,3,1,1,,,,,,,,,,,,,,,,,,,,,,,,,,,,,,,,,,,,,,,,,,,,,,
850851,001,2022-11-20_23h54.18.345,Info_measure_main_exp,2022.2.2,Win32,161.6814875,,,,,,,,,,,,,,,,,,masks/mask_005.jpg,,,,,,,,,,,,,,,,,,,,,,,,,,,,,,,,,,,,,,,,,,,0,4,4,4,1,,,,,,,,,,,,,,,,,,,,,,,,,,,,,,,,,,,,,,,,,,,,,,
850851,001,2022-11-20_23h54.18.345,Info_measure_main_exp,2022.2.2,Win32,161.6814875,,,,,,,,,,,,,,,,,,masks/mask_003.jpg,,,,,,,,,,,,,,,,,,,,,,,,,,,,,,,,,,,,,,,,,,,,,,,,0,0,0,2,1,,,,,,,,,,,,,,,,,,,,,,,,,,,,,,,,,,,,,,,,,
850851,001,2022-11-20_23h54.18.345,Info_measure_main_exp,2022.2.2,Win32,161.6814875,,,,,,,,,,,,,,,,,,masks/mask_005.jpg,,,,,,,,,,,,,,,,,,,,,,,,,,,,,,,,,,,,,,,,,,,,,,,,0,1,1,4,1,,,,,,,,,,,,,,,,,,,,,,,,,,,,,,,,,,,,,,,,,
850851,001,2022-11-20_23h54.18.345,Info_measure_main_exp,2022.2.2,Win32,161.6814875,,,,,,,,,,,,,,,,,,masks/mask_004.jpg,,,,,,,,,,,,,,,,,,,,,,,,,,,,,,,,,,,,,,,,,,,,,,,,0,2,2,3,1,,,,,,,,,,,,,,,,,,,,,,,,,,,,,,,,,,,,,,,,,
850851,001,2022-11-20_23h54.18.345,Info_measure_main_exp,2022.2.2,Win32,161.6814875,,,,,,,,,,,,,,,,,,masks/mask_002.jpg,,,,,,,,,,,,,,,,,,,,,,,,,,,,,,,,,,,,,,,,,,,,,,,,0,3,3,1,1,,,,,,,,,,,,,,,,,,,,,,,,,,,,,,,,,,,,,,,,,
850851,001,2022-11-20_23h54.18.345,Info_measure_main_exp,2022.2.2,Win32,161.6814875,,,,,,,,,,,,,,,,,,masks/mask_001.jpg,,,,,,,,,,,,,,,,,,,,,,,,,,,,,,,,,,,,,,,,,,,,,,,,0,4,4,0,1,,,,,,,,,,,,,,,,,,,,,,,,,,,,,,,,,,,,,,,,,
850851,001,2022-11-20_23h54.18.345,Info_measure_main_exp,2022.2.2,Win32,161.6814875,,,,,,,,,,,,,,,,,,,,,,,,,,,,,,6,0.5498,1,,,,,,,,,,,,0,131,5,5,2154,2238,absent_patch/patch0002154.jpg,absent_patch/patch0002238.jpg,,,,,,,,,,,,,,,,,,,,0.07037037,0.015740741,1,0,0,response1disk,25,0.010185185,-0.00462963,1,0,0,center_square,0,24,24,21,1,,,,,,,,,,,,,,,,,,,,,,,
850851,001,2022-11-20_23h54.18.345,Info_measure_main_exp,2022.2.2,Win32,161.6814875,,,,,,,,,,,,,,,,,,masks/mask_001.jpg,,,,,,,,,,,,,,,,,,,,,,,,,,,,,,,,,,,,,,,,,,,0,0,0,0,1,,,,,,,,,,,,,,,,,,,,,,,,,,,,,,,,,,,,,,,,,,,,,,
850851,001,2022-11-20_23h54.18.345,Info_measure_main_exp,2022.2.2,Win32,161.6814875,,,,,,,,,,,,,,,,,,masks/mask_004.jpg,,,,,,,,,,,,,,,,,,,,,,,,,,,,,,,,,,,,,,,,,,,0,1,1,3,1,,,,,,,,,,,,,,,,,,,,,,,,,,,,,,,,,,,,,,,,,,,,,,
850851,001,2022-11-20_23h54.18.345,Info_measure_main_exp,2022.2.2,Win32,161.6814875,,,,,,,,,,,,,,,,,,masks/mask_002.jpg,,,,,,,,,,,,,,,,,,,,,,,,,,,,,,,,,,,,,,,,,,,0,2,2,1,1,,,,,,,,,,,,,,,,,,,,,,,,,,,,,,,,,,,,,,,,,,,,,,
850851,001,2022-11-20_23h54.18.345,Info_measure_main_exp,2022.2.2,Win32,161.6814875,,,,,,,,,,,,,,,,,,masks/mask_005.jpg,,,,,,,,,,,,,,,,,,,,,,,,,,,,,,,,,,,,,,,,,,,0,3,3,4,1,,,,,,,,,,,,,,,,,,,,,,,,,,,,,,,,,,,,,,,,,,,,,,
850851,001,2022-11-20_23h54.18.345,Info_measure_main_exp,2022.2.2,Win32,161.6814875,,,,,,,,,,,,,,,,,,masks/mask_003.jpg,,,,,,,,,,,,,,,,,,,,,,,,,,,,,,,,,,,,,,,,,,,0,4,4,2,1,,,,,,,,,,,,,,,,,,,,,,,,,,,,,,,,,,,,,,,,,,,,,,
850851,001,2022-11-20_23h54.18.345,Info_measure_main_exp,2022.2.2,Win32,161.6814875,,,,,,,,,,,,,,,,,,masks/mask_004.jpg,,,,,,,,,,,,,,,,,,,,,,,,,,,,,,,,,,,,,,,,,,,,,,,,0,0,0,3,1,,,,,,,,,,,,,,,,,,,,,,,,,,,,,,,,,,,,,,,,,
850851,001,2022-11-20_23h54.18.345,Info_measure_main_exp,2022.2.2,Win32,161.6814875,,,,,,,,,,,,,,,,,,masks/mask_001.jpg,,,,,,,,,,,,,,,,,,,,,,,,,,,,,,,,,,,,,,,,,,,,,,,,0,1,1,0,1,,,,,,,,,,,,,,,,,,,,,,,,,,,,,,,,,,,,,,,,,
850851,001,2022-11-20_23h54.18.345,Info_measure_main_exp,2022.2.2,Win32,161.6814875,,,,,,,,,,,,,,,,,,masks/mask_002.jpg,,,,,,,,,,,,,,,,,,,,,,,,,,,,,,,,,,,,,,,,,,,,,,,,0,2,2,1,1,,,,,,,,,,,,,,,,,,,,,,,,,,,,,,,,,,,,,,,,,
850851,001,2022-11-20_23h54.18.345,Info_measure_main_exp,2022.2.2,Win32,161.6814875,,,,,,,,,,,,,,,,,,masks/mask_005.jpg,,,,,,,,,,,,,,,,,,,,,,,,,,,,,,,,,,,,,,,,,,,,,,,,0,3,3,4,1,,,,,,,,,,,,,,,,,,,,,,,,,,,,,,,,,,,,,,,,,
850851,001,2022-11-20_23h54.18.345,Info_measure_main_exp,2022.2.2,Win32,161.6814875,,,,,,,,,,,,,,,,,,masks/mask_003.jpg,,,,,,,,,,,,,,,,,,,,,,,,,,,,,,,,,,,,,,,,,,,,,,,,0,4,4,2,1,,,,,,,,,,,,,,,,,,,,,,,,,,,,,,,,,,,,,,,,,
850851,001,2022-11-20_23h54.18.345,Info_measure_main_exp,2022.2.2,Win32,161.6814875,,,,,,,,,,,,,,,,,,,,,,,,,,,,,,7,1.3984,1,,,,,,,,,,,,0,131,5,5,2190,2250,absent_patch/patch0002190.jpg,absent_patch/patch0002250.jpg,,,,,,,,,,,,,,,,,,,,0.035185185,0.073148148,1,0,0,response1disk,26,0.012962963,-0.002777778,1,0,0,center_square,0,25,25,93,1,,,,,,,,,,,,,,,,,,,,,,,
850851,001,2022-11-20_23h54.18.345,Info_measure_main_exp,2022.2.2,Win32,161.6814875,,,,,,,,,,,,,,,,,,masks/mask_003.jpg,,,,,,,,,,,,,,,,,,,,,,,,,,,,,,,,,,,,,,,,,,,0,0,0,2,1,,,,,,,,,,,,,,,,,,,,,,,,,,,,,,,,,,,,,,,,,,,,,,
850851,001,2022-11-20_23h54.18.345,Info_measure_main_exp,2022.2.2,Win32,161.6814875,,,,,,,,,,,,,,,,,,masks/mask_001.jpg,,,,,,,,,,,,,,,,,,,,,,,,,,,,,,,,,,,,,,,,,,,0,1,1,0,1,,,,,,,,,,,,,,,,,,,,,,,,,,,,,,,,,,,,,,,,,,,,,,
850851,001,2022-11-20_23h54.18.345,Info_measure_main_exp,2022.2.2,Win32,161.6814875,,,,,,,,,,,,,,,,,,masks/mask_002.jpg,,,,,,,,,,,,,,,,,,,,,,,,,,,,,,,,,,,,,,,,,,,0,2,2,1,1,,,,,,,,,,,,,,,,,,,,,,,,,,,,,,,,,,,,,,,,,,,,,,
850851,001,2022-11-20_23h54.18.345,Info_measure_main_exp,2022.2.2,Win32,161.6814875,,,,,,,,,,,,,,,,,,masks/mask_004.jpg,,,,,,,,,,,,,,,,,,,,,,,,,,,,,,,,,,,,,,,,,,,0,3,3,3,1,,,,,,,,,,,,,,,,,,,,,,,,,,,,,,,,,,,,,,,,,,,,,,
850851,001,2022-11-20_23h54.18.345,Info_measure_main_exp,2022.2.2,Win32,161.6814875,,,,,,,,,,,,,,,,,,masks/mask_005.jpg,,,,,,,,,,,,,,,,,,,,,,,,,,,,,,,,,,,,,,,,,,,0,4,4,4,1,,,,,,,,,,,,,,,,,,,,,,,,,,,,,,,,,,,,,,,,,,,,,,
850851,001,2022-11-20_23h54.18.345,Info_measure_main_exp,2022.2.2,Win32,161.6814875,,,,,,,,,,,,,,,,,,masks/mask_005.jpg,,,,,,,,,,,,,,,,,,,,,,,,,,,,,,,,,,,,,,,,,,,,,,,,0,0,0,4,1,,,,,,,,,,,,,,,,,,,,,,,,,,,,,,,,,,,,,,,,,
850851,001,2022-11-20_23h54.18.345,Info_measure_main_exp,2022.2.2,Win32,161.6814875,,,,,,,,,,,,,,,,,,masks/mask_002.jpg,,,,,,,,,,,,,,,,,,,,,,,,,,,,,,,,,,,,,,,,,,,,,,,,0,1,1,1,1,,,,,,,,,,,,,,,,,,,,,,,,,,,,,,,,,,,,,,,,,
850851,001,2022-11-20_23h54.18.345,Info_measure_main_exp,2022.2.2,Win32,161.6814875,,,,,,,,,,,,,,,,,,masks/mask_004.jpg,,,,,,,,,,,,,,,,,,,,,,,,,,,,,,,,,,,,,,,,,,,,,,,,0,2,2,3,1,,,,,,,,,,,,,,,,,,,,,,,,,,,,,,,,,,,,,,,,,
850851,001,2022-11-20_23h54.18.345,Info_measure_main_exp,2022.2.2,Win32,161.6814875,,,,,,,,,,,,,,,,,,masks/mask_001.jpg,,,,,,,,,,,,,,,,,,,,,,,,,,,,,,,,,,,,,,,,,,,,,,,,0,3,3,0,1,,,,,,,,,,,,,,,,,,,,,,,,,,,,,,,,,,,,,,,,,
850851,001,2022-11-20_23h54.18.345,Info_measure_main_exp,2022.2.2,Win32,161.6814875,,,,,,,,,,,,,,,,,,masks/mask_003.jpg,,,,,,,,,,,,,,,,,,,,,,,,,,,,,,,,,,,,,,,,,,,,,,,,0,4,4,2,1,,,,,,,,,,,,,,,,,,,,,,,,,,,,,,,,,,,,,,,,,
850851,001,2022-11-20_23h54.18.345,Info_measure_main_exp,2022.2.2,Win32,161.6814875,,,,,,,,,,,,,,,,,,,,,,,,,,,,,,0,0.7995,1,,,,,,,,,,,,0,131,5,5,2154,2154,absent_patch/patch0002154.jpg,absent_patch/patch0002154.jpg,,,,,,,,,,,,,,,,,,,,-0.02962963,0.126851852,1,0,0,response7disk,27,0.002777778,-0.000925926,1,0,0,center_square,0,26,26,89,1,,,,,,,,,,,,,,,,,,,,,,,
850851,001,2022-11-20_23h54.18.345,Info_measure_main_exp,2022.2.2,Win32,161.6814875,,,,,,,,,,,,,,,,,,masks/mask_003.jpg,,,,,,,,,,,,,,,,,,,,,,,,,,,,,,,,,,,,,,,,,,,0,0,0,2,1,,,,,,,,,,,,,,,,,,,,,,,,,,,,,,,,,,,,,,,,,,,,,,
850851,001,2022-11-20_23h54.18.345,Info_measure_main_exp,2022.2.2,Win32,161.6814875,,,,,,,,,,,,,,,,,,masks/mask_002.jpg,,,,,,,,,,,,,,,,,,,,,,,,,,,,,,,,,,,,,,,,,,,0,1,1,1,1,,,,,,,,,,,,,,,,,,,,,,,,,,,,,,,,,,,,,,,,,,,,,,
850851,001,2022-11-20_23h54.18.345,Info_measure_main_exp,2022.2.2,Win32,161.6814875,,,,,,,,,,,,,,,,,,masks/mask_004.jpg,,,,,,,,,,,,,,,,,,,,,,,,,,,,,,,,,,,,,,,,,,,0,2,2,3,1,,,,,,,,,,,,,,,,,,,,,,,,,,,,,,,,,,,,,,,,,,,,,,
850851,001,2022-11-20_23h54.18.345,Info_measure_main_exp,2022.2.2,Win32,161.6814875,,,,,,,,,,,,,,,,,,masks/mask_001.jpg,,,,,,,,,,,,,,,,,,,,,,,,,,,,,,,,,,,,,,,,,,,0,3,3,0,1,,,,,,,,,,,,,,,,,,,,,,,,,,,,,,,,,,,,,,,,,,,,,,
850851,001,2022-11-20_23h54.18.345,Info_measure_main_exp,2022.2.2,Win32,161.6814875,,,,,,,,,,,,,,,,,,masks/mask_005.jpg,,,,,,,,,,,,,,,,,,,,,,,,,,,,,,,,,,,,,,,,,,,0,4,4,4,1,,,,,,,,,,,,,,,,,,,,,,,,,,,,,,,,,,,,,,,,,,,,,,
850851,001,2022-11-20_23h54.18.345,Info_measure_main_exp,2022.2.2,Win32,161.6814875,,,,,,,,,,,,,,,,,,masks/mask_003.jpg,,,,,,,,,,,,,,,,,,,,,,,,,,,,,,,,,,,,,,,,,,,,,,,,0,0,0,2,1,,,,,,,,,,,,,,,,,,,,,,,,,,,,,,,,,,,,,,,,,
850851,001,2022-11-20_23h54.18.345,Info_measure_main_exp,2022.2.2,Win32,161.6814875,,,,,,,,,,,,,,,,,,masks/mask_002.jpg,,,,,,,,,,,,,,,,,,,,,,,,,,,,,,,,,,,,,,,,,,,,,,,,0,1,1,1,1,,,,,,,,,,,,,,,,,,,,,,,,,,,,,,,,,,,,,,,,,
850851,001,2022-11-20_23h54.18.345,Info_measure_main_exp,2022.2.2,Win32,161.6814875,,,,,,,,,,,,,,,,,,masks/mask_005.jpg,,,,,,,,,,,,,,,,,,,,,,,,,,,,,,,,,,,,,,,,,,,,,,,,0,2,2,4,1,,,,,,,,,,,,,,,,,,,,,,,,,,,,,,,,,,,,,,,,,
850851,001,2022-11-20_23h54.18.345,Info_measure_main_exp,2022.2.2,Win32,161.6814875,,,,,,,,,,,,,,,,,,masks/mask_001.jpg,,,,,,,,,,,,,,,,,,,,,,,,,,,,,,,,,,,,,,,,,,,,,,,,0,3,3,0,1,,,,,,,,,,,,,,,,,,,,,,,,,,,,,,,,,,,,,,,,,
850851,001,2022-11-20_23h54.18.345,Info_measure_main_exp,2022.2.2,Win32,161.6814875,,,,,,,,,,,,,,,,,,masks/mask_004.jpg,,,,,,,,,,,,,,,,,,,,,,,,,,,,,,,,,,,,,,,,,,,,,,,,0,4,4,3,1,,,,,,,,,,,,,,,,,,,,,,,,,,,,,,,,,,,,,,,,,
850851,001,2022-11-20_23h54.18.345,Info_measure_main_exp,2022.2.2,Win32,161.6814875,,,,,,,,,,,,,,,,,,,,,,,,,,,,,,6,0.9341,1,,,,,,,,,,,,0,131,5,5,2082,2298,absent_patch/patch0002082.jpg,absent_patch/patch0002298.jpg,,,,,,,,,,,,,,,,,,,,0.085185185,0.024074074,1,0,0,response1disk,28,0.001851852,-0.000925926,1,0,0,center_square,0,27,27,107,1,,,,,,,,,,,,,,,,,,,,,,,
850851,001,2022-11-20_23h54.18.345,Info_measure_main_exp,2022.2.2,Win32,161.6814875,,,,,,,,,,,,,,,,,,masks/mask_003.jpg,,,,,,,,,,,,,,,,,,,,,,,,,,,,,,,,,,,,,,,,,,,0,0,0,2,1,,,,,,,,,,,,,,,,,,,,,,,,,,,,,,,,,,,,,,,,,,,,,,
850851,001,2022-11-20_23h54.18.345,Info_measure_main_exp,2022.2.2,Win32,161.6814875,,,,,,,,,,,,,,,,,,masks/mask_005.jpg,,,,,,,,,,,,,,,,,,,,,,,,,,,,,,,,,,,,,,,,,,,0,1,1,4,1,,,,,,,,,,,,,,,,,,,,,,,,,,,,,,,,,,,,,,,,,,,,,,
850851,001,2022-11-20_23h54.18.345,Info_measure_main_exp,2022.2.2,Win32,161.6814875,,,,,,,,,,,,,,,,,,masks/mask_001.jpg,,,,,,,,,,,,,,,,,,,,,,,,,,,,,,,,,,,,,,,,,,,0,2,2,0,1,,,,,,,,,,,,,,,,,,,,,,,,,,,,,,,,,,,,,,,,,,,,,,
850851,001,2022-11-20_23h54.18.345,Info_measure_main_exp,2022.2.2,Win32,161.6814875,,,,,,,,,,,,,,,,,,masks/mask_004.jpg,,,,,,,,,,,,,,,,,,,,,,,,,,,,,,,,,,,,,,,,,,,0,3,3,3,1,,,,,,,,,,,,,,,,,,,,,,,,,,,,,,,,,,,,,,,,,,,,,,
850851,001,2022-11-20_23h54.18.345,Info_measure_main_exp,2022.2.2,Win32,161.6814875,,,,,,,,,,,,,,,,,,masks/mask_002.jpg,,,,,,,,,,,,,,,,,,,,,,,,,,,,,,,,,,,,,,,,,,,0,4,4,1,1,,,,,,,,,,,,,,,,,,,,,,,,,,,,,,,,,,,,,,,,,,,,,,
850851,001,2022-11-20_23h54.18.345,Info_measure_main_exp,2022.2.2,Win32,161.6814875,,,,,,,,,,,,,,,,,,masks/mask_002.jpg,,,,,,,,,,,,,,,,,,,,,,,,,,,,,,,,,,,,,,,,,,,,,,,,0,0,0,1,1,,,,,,,,,,,,,,,,,,,,,,,,,,,,,,,,,,,,,,,,,
850851,001,2022-11-20_23h54.18.345,Info_measure_main_exp,2022.2.2,Win32,161.6814875,,,,,,,,,,,,,,,,,,masks/mask_001.jpg,,,,,,,,,,,,,,,,,,,,,,,,,,,,,,,,,,,,,,,,,,,,,,,,0,1,1,0,1,,,,,,,,,,,,,,,,,,,,,,,,,,,,,,,,,,,,,,,,,
850851,001,2022-11-20_23h54.18.345,Info_measure_main_exp,2022.2.2,Win32,161.6814875,,,,,,,,,,,,,,,,,,masks/mask_003.jpg,,,,,,,,,,,,,,,,,,,,,,,,,,,,,,,,,,,,,,,,,,,,,,,,0,2,2,2,1,,,,,,,,,,,,,,,,,,,,,,,,,,,,,,,,,,,,,,,,,
850851,001,2022-11-20_23h54.18.345,Info_measure_main_exp,2022.2.2,Win32,161.6814875,,,,,,,,,,,,,,,,,,masks/mask_005.jpg,,,,,,,,,,,,,,,,,,,,,,,,,,,,,,,,,,,,,,,,,,,,,,,,0,3,3,4,1,,,,,,,,,,,,,,,,,,,,,,,,,,,,,,,,,,,,,,,,,
850851,001,2022-11-20_23h54.18.345,Info_measure_main_exp,2022.2.2,Win32,161.6814875,,,,,,,,,,,,,,,,,,masks/mask_004.jpg,,,,,,,,,,,,,,,,,,,,,,,,,,,,,,,,,,,,,,,,,,,,,,,,0,4,4,3,1,,,,,,,,,,,,,,,,,,,,,,,,,,,,,,,,,,,,,,,,,
850851,001,2022-11-20_23h54.18.345,Info_measure_main_exp,2022.2.2,Win32,161.6814875,,,,,,,,,,,,,,,,,,,,,,,,,,,,,,6,1.4997,1,,,,,,,,,,,,0,131,5,5,2298,2274,absent_patch/patch0002298.jpg,absent_patch/patch0002274.jpg,,,,,,,,,,,,,,,,,,,,0.042592593,0.018518519,1,0,0,response1disk,29,0,-0.003703704,1,0,0,center_square,0,28,28,1,1,,,,,,,,,,,,,,,,,,,,,,,
850851,001,2022-11-20_23h54.18.345,Info_measure_main_exp,2022.2.2,Win32,161.6814875,,,,,,,,,,,,,,,,,,masks/mask_005.jpg,,,,,,,,,,,,,,,,,,,,,,,,,,,,,,,,,,,,,,,,,,,0,0,0,4,1,,,,,,,,,,,,,,,,,,,,,,,,,,,,,,,,,,,,,,,,,,,,,,
850851,001,2022-11-20_23h54.18.345,Info_measure_main_exp,2022.2.2,Win32,161.6814875,,,,,,,,,,,,,,,,,,masks/mask_004.jpg,,,,,,,,,,,,,,,,,,,,,,,,,,,,,,,,,,,,,,,,,,,0,1,1,3,1,,,,,,,,,,,,,,,,,,,,,,,,,,,,,,,,,,,,,,,,,,,,,,
850851,001,2022-11-20_23h54.18.345,Info_measure_main_exp,2022.2.2,Win32,161.6814875,,,,,,,,,,,,,,,,,,masks/mask_003.jpg,,,,,,,,,,,,,,,,,,,,,,,,,,,,,,,,,,,,,,,,,,,0,2,2,2,1,,,,,,,,,,,,,,,,,,,,,,,,,,,,,,,,,,,,,,,,,,,,,,
850851,001,2022-11-20_23h54.18.345,Info_measure_main_exp,2022.2.2,Win32,161.6814875,,,,,,,,,,,,,,,,,,masks/mask_002.jpg,,,,,,,,,,,,,,,,,,,,,,,,,,,,,,,,,,,,,,,,,,,0,3,3,1,1,,,,,,,,,,,,,,,,,,,,,,,,,,,,,,,,,,,,,,,,,,,,,,
850851,001,2022-11-20_23h54.18.345,Info_measure_main_exp,2022.2.2,Win32,161.6814875,,,,,,,,,,,,,,,,,,masks/mask_001.jpg,,,,,,,,,,,,,,,,,,,,,,,,,,,,,,,,,,,,,,,,,,,0,4,4,0,1,,,,,,,,,,,,,,,,,,,,,,,,,,,,,,,,,,,,,,,,,,,,,,
850851,001,2022-11-20_23h54.18.345,Info_measure_main_exp,2022.2.2,Win32,161.6814875,,,,,,,,,,,,,,,,,,masks/mask_001.jpg,,,,,,,,,,,,,,,,,,,,,,,,,,,,,,,,,,,,,,,,,,,,,,,,0,0,0,0,1,,,,,,,,,,,,,,,,,,,,,,,,,,,,,,,,,,,,,,,,,
850851,001,2022-11-20_23h54.18.345,Info_measure_main_exp,2022.2.2,Win32,161.6814875,,,,,,,,,,,,,,,,,,masks/mask_004.jpg,,,,,,,,,,,,,,,,,,,,,,,,,,,,,,,,,,,,,,,,,,,,,,,,0,1,1,3,1,,,,,,,,,,,,,,,,,,,,,,,,,,,,,,,,,,,,,,,,,
850851,001,2022-11-20_23h54.18.345,Info_measure_main_exp,2022.2.2,Win32,161.6814875,,,,,,,,,,,,,,,,,,masks/mask_003.jpg,,,,,,,,,,,,,,,,,,,,,,,,,,,,,,,,,,,,,,,,,,,,,,,,0,2,2,2,1,,,,,,,,,,,,,,,,,,,,,,,,,,,,,,,,,,,,,,,,,
850851,001,2022-11-20_23h54.18.345,Info_measure_main_exp,2022.2.2,Win32,161.6814875,,,,,,,,,,,,,,,,,,masks/mask_005.jpg,,,,,,,,,,,,,,,,,,,,,,,,,,,,,,,,,,,,,,,,,,,,,,,,0,3,3,4,1,,,,,,,,,,,,,,,,,,,,,,,,,,,,,,,,,,,,,,,,,
850851,001,2022-11-20_23h54.18.345,Info_measure_main_exp,2022.2.2,Win32,161.6814875,,,,,,,,,,,,,,,,,,masks/mask_002.jpg,,,,,,,,,,,,,,,,,,,,,,,,,,,,,,,,,,,,,,,,,,,,,,,,0,4,4,1,1,,,,,,,,,,,,,,,,,,,,,,,,,,,,,,,,,,,,,,,,,
850851,001,2022-11-20_23h54.18.345,Info_measure_main_exp,2022.2.2,Win32,161.6814875,,,,,,,,,,,,,,,,,,,,,,,,,,,,,,3,1.9674,1,,,,,,,,,,,,0,131,5,5,2142,2082,absent_patch/patch0002142.jpg,absent_patch/patch0002082.jpg,,,,,,,,,,,,,,,,,,,,-0.018518519,-0.10462963,1,0,0,response5disk,30,0.014814815,0.003703704,1,0,0,center_square,0,29,29,88,1,,,,,,,,,,,,,,,,,,,,,,,
850851,001,2022-11-20_23h54.18.345,Info_measure_main_exp,2022.2.2,Win32,161.6814875,,,,,,,,,,,,,,,,,,masks/mask_005.jpg,,,,,,,,,,,,,,,,,,,,,,,,,,,,,,,,,,,,,,,,,,,0,0,0,4,1,,,,,,,,,,,,,,,,,,,,,,,,,,,,,,,,,,,,,,,,,,,,,,
850851,001,2022-11-20_23h54.18.345,Info_measure_main_exp,2022.2.2,Win32,161.6814875,,,,,,,,,,,,,,,,,,masks/mask_004.jpg,,,,,,,,,,,,,,,,,,,,,,,,,,,,,,,,,,,,,,,,,,,0,1,1,3,1,,,,,,,,,,,,,,,,,,,,,,,,,,,,,,,,,,,,,,,,,,,,,,
850851,001,2022-11-20_23h54.18.345,Info_measure_main_exp,2022.2.2,Win32,161.6814875,,,,,,,,,,,,,,,,,,masks/mask_003.jpg,,,,,,,,,,,,,,,,,,,,,,,,,,,,,,,,,,,,,,,,,,,0,2,2,2,1,,,,,,,,,,,,,,,,,,,,,,,,,,,,,,,,,,,,,,,,,,,,,,
850851,001,2022-11-20_23h54.18.345,Info_measure_main_exp,2022.2.2,Win32,161.6814875,,,,,,,,,,,,,,,,,,masks/mask_002.jpg,,,,,,,,,,,,,,,,,,,,,,,,,,,,,,,,,,,,,,,,,,,0,3,3,1,1,,,,,,,,,,,,,,,,,,,,,,,,,,,,,,,,,,,,,,,,,,,,,,
850851,001,2022-11-20_23h54.18.345,Info_measure_main_exp,2022.2.2,Win32,161.6814875,,,,,,,,,,,,,,,,,,masks/mask_001.jpg,,,,,,,,,,,,,,,,,,,,,,,,,,,,,,,,,,,,,,,,,,,0,4,4,0,1,,,,,,,,,,,,,,,,,,,,,,,,,,,,,,,,,,,,,,,,,,,,,,
850851,001,2022-11-20_23h54.18.345,Info_measure_main_exp,2022.2.2,Win32,161.6814875,,,,,,,,,,,,,,,,,,masks/mask_003.jpg,,,,,,,,,,,,,,,,,,,,,,,,,,,,,,,,,,,,,,,,,,,,,,,,0,0,0,2,1,,,,,,,,,,,,,,,,,,,,,,,,,,,,,,,,,,,,,,,,,
850851,001,2022-11-20_23h54.18.345,Info_measure_main_exp,2022.2.2,Win32,161.6814875,,,,,,,,,,,,,,,,,,masks/mask_002.jpg,,,,,,,,,,,,,,,,,,,,,,,,,,,,,,,,,,,,,,,,,,,,,,,,0,1,1,1,1,,,,,,,,,,,,,,,,,,,,,,,,,,,,,,,,,,,,,,,,,
850851,001,2022-11-20_23h54.18.345,Info_measure_main_exp,2022.2.2,Win32,161.6814875,,,,,,,,,,,,,,,,,,masks/mask_005.jpg,,,,,,,,,,,,,,,,,,,,,,,,,,,,,,,,,,,,,,,,,,,,,,,,0,2,2,4,1,,,,,,,,,,,,,,,,,,,,,,,,,,,,,,,,,,,,,,,,,
850851,001,2022-11-20_23h54.18.345,Info_measure_main_exp,2022.2.2,Win32,161.6814875,,,,,,,,,,,,,,,,,,masks/mask_004.jpg,,,,,,,,,,,,,,,,,,,,,,,,,,,,,,,,,,,,,,,,,,,,,,,,0,3,3,3,1,,,,,,,,,,,,,,,,,,,,,,,,,,,,,,,,,,,,,,,,,
850851,001,2022-11-20_23h54.18.345,Info_measure_main_exp,2022.2.2,Win32,161.6814875,,,,,,,,,,,,,,,,,,masks/mask_001.jpg,,,,,,,,,,,,,,,,,,,,,,,,,,,,,,,,,,,,,,,,,,,,,,,,0,4,4,0,1,,,,,,,,,,,,,,,,,,,,,,,,,,,,,,,,,,,,,,,,,
850851,001,2022-11-20_23h54.18.345,Info_measure_main_exp,2022.2.2,Win32,161.6814875,,,,,,,,,,,,,,,,,,,,,,,,,,,,,,4,1.6671,1,,,,,,,,,,,,1,131,5,5,1,2154,present_patch/cong_131_5_a.jpg,absent_patch/patch0002154.jpg,,,,,,,,,,,,,,,,,,,,0.013888889,-0.062037037,1,0,0,response3disk,31,0.001851852,-0.008333333,1,0,0,center_square,0,30,30,87,1,,,,,,,,,,,,,,,,,,,,,,,
850851,001,2022-11-20_23h54.18.345,Info_measure_main_exp,2022.2.2,Win32,161.6814875,,,,,,,,,,,,,,,,,,masks/mask_003.jpg,,,,,,,,,,,,,,,,,,,,,,,,,,,,,,,,,,,,,,,,,,,0,0,0,2,1,,,,,,,,,,,,,,,,,,,,,,,,,,,,,,,,,,,,,,,,,,,,,,
850851,001,2022-11-20_23h54.18.345,Info_measure_main_exp,2022.2.2,Win32,161.6814875,,,,,,,,,,,,,,,,,,masks/mask_001.jpg,,,,,,,,,,,,,,,,,,,,,,,,,,,,,,,,,,,,,,,,,,,0,1,1,0,1,,,,,,,,,,,,,,,,,,,,,,,,,,,,,,,,,,,,,,,,,,,,,,
850851,001,2022-11-20_23h54.18.345,Info_measure_main_exp,2022.2.2,Win32,161.6814875,,,,,,,,,,,,,,,,,,masks/mask_004.jpg,,,,,,,,,,,,,,,,,,,,,,,,,,,,,,,,,,,,,,,,,,,0,2,2,3,1,,,,,,,,,,,,,,,,,,,,,,,,,,,,,,,,,,,,,,,,,,,,,,
850851,001,2022-11-20_23h54.18.345,Info_measure_main_exp,2022.2.2,Win32,161.6814875,,,,,,,,,,,,,,,,,,masks/mask_002.jpg,,,,,,,,,,,,,,,,,,,,,,,,,,,,,,,,,,,,,,,,,,,0,3,3,1,1,,,,,,,,,,,,,,,,,,,,,,,,,,,,,,,,,,,,,,,,,,,,,,
850851,001,2022-11-20_23h54.18.345,Info_measure_main_exp,2022.2.2,Win32,161.6814875,,,,,,,,,,,,,,,,,,masks/mask_005.jpg,,,,,,,,,,,,,,,,,,,,,,,,,,,,,,,,,,,,,,,,,,,0,4,4,4,1,,,,,,,,,,,,,,,,,,,,,,,,,,,,,,,,,,,,,,,,,,,,,,
850851,001,2022-11-20_23h54.18.345,Info_measure_main_exp,2022.2.2,Win32,161.6814875,,,,,,,,,,,,,,,,,,masks/mask_004.jpg,,,,,,,,,,,,,,,,,,,,,,,,,,,,,,,,,,,,,,,,,,,,,,,,0,0,0,3,1,,,,,,,,,,,,,,,,,,,,,,,,,,,,,,,,,,,,,,,,,
850851,001,2022-11-20_23h54.18.345,Info_measure_main_exp,2022.2.2,Win32,161.6814875,,,,,,,,,,,,,,,,,,masks/mask_005.jpg,,,,,,,,,,,,,,,,,,,,,,,,,,,,,,,,,,,,,,,,,,,,,,,,0,1,1,4,1,,,,,,,,,,,,,,,,,,,,,,,,,,,,,,,,,,,,,,,,,
850851,001,2022-11-20_23h54.18.345,Info_measure_main_exp,2022.2.2,Win32,161.6814875,,,,,,,,,,,,,,,,,,masks/mask_003.jpg,,,,,,,,,,,,,,,,,,,,,,,,,,,,,,,,,,,,,,,,,,,,,,,,0,2,2,2,1,,,,,,,,,,,,,,,,,,,,,,,,,,,,,,,,,,,,,,,,,
850851,001,2022-11-20_23h54.18.345,Info_measure_main_exp,2022.2.2,Win32,161.6814875,,,,,,,,,,,,,,,,,,masks/mask_002.jpg,,,,,,,,,,,,,,,,,,,,,,,,,,,,,,,,,,,,,,,,,,,,,,,,0,3,3,1,1,,,,,,,,,,,,,,,,,,,,,,,,,,,,,,,,,,,,,,,,,
850851,001,2022-11-20_23h54.18.345,Info_measure_main_exp,2022.2.2,Win32,161.6814875,,,,,,,,,,,,,,,,,,masks/mask_001.jpg,,,,,,,,,,,,,,,,,,,,,,,,,,,,,,,,,,,,,,,,,,,,,,,,0,4,4,0,1,,,,,,,,,,,,,,,,,,,,,,,,,,,,,,,,,,,,,,,,,
850851,001,2022-11-20_23h54.18.345,Info_measure_main_exp,2022.2.2,Win32,161.6814875,,,,,,,,,,,,,,,,,,,,,,,,,,,,,,6,0.6668,1,,,,,,,,,,,,0,131,5,5,2190,2238,absent_patch/patch0002190.jpg,absent_patch/patch0002238.jpg,,,,,,,,,,,,,,,,,,,,0.044444444,0.012962963,1,0,0,response1disk,32,0.002777778,-0.005555556,1,0,0,center_square,0,31,31,53,1,,,,,,,,,,,,,,,,,,,,,,,
850851,001,2022-11-20_23h54.18.345,Info_measure_main_exp,2022.2.2,Win32,161.6814875,,,,,,,,,,,,,,,,,,masks/mask_005.jpg,,,,,,,,,,,,,,,,,,,,,,,,,,,,,,,,,,,,,,,,,,,0,0,0,4,1,,,,,,,,,,,,,,,,,,,,,,,,,,,,,,,,,,,,,,,,,,,,,,
850851,001,2022-11-20_23h54.18.345,Info_measure_main_exp,2022.2.2,Win32,161.6814875,,,,,,,,,,,,,,,,,,masks/mask_001.jpg,,,,,,,,,,,,,,,,,,,,,,,,,,,,,,,,,,,,,,,,,,,0,1,1,0,1,,,,,,,,,,,,,,,,,,,,,,,,,,,,,,,,,,,,,,,,,,,,,,
850851,001,2022-11-20_23h54.18.345,Info_measure_main_exp,2022.2.2,Win32,161.6814875,,,,,,,,,,,,,,,,,,masks/mask_004.jpg,,,,,,,,,,,,,,,,,,,,,,,,,,,,,,,,,,,,,,,,,,,0,2,2,3,1,,,,,,,,,,,,,,,,,,,,,,,,,,,,,,,,,,,,,,,,,,,,,,
850851,001,2022-11-20_23h54.18.345,Info_measure_main_exp,2022.2.2,Win32,161.6814875,,,,,,,,,,,,,,,,,,masks/mask_003.jpg,,,,,,,,,,,,,,,,,,,,,,,,,,,,,,,,,,,,,,,,,,,0,3,3,2,1,,,,,,,,,,,,,,,,,,,,,,,,,,,,,,,,,,,,,,,,,,,,,,
850851,001,2022-11-20_23h54.18.345,Info_measure_main_exp,2022.2.2,Win32,161.6814875,,,,,,,,,,,,,,,,,,masks/mask_002.jpg,,,,,,,,,,,,,,,,,,,,,,,,,,,,,,,,,,,,,,,,,,,0,4,4,1,1,,,,,,,,,,,,,,,,,,,,,,,,,,,,,,,,,,,,,,,,,,,,,,
850851,001,2022-11-20_23h54.18.345,Info_measure_main_exp,2022.2.2,Win32,161.6814875,,,,,,,,,,,,,,,,,,masks/mask_004.jpg,,,,,,,,,,,,,,,,,,,,,,,,,,,,,,,,,,,,,,,,,,,,,,,,0,0,0,3,1,,,,,,,,,,,,,,,,,,,,,,,,,,,,,,,,,,,,,,,,,
850851,001,2022-11-20_23h54.18.345,Info_measure_main_exp,2022.2.2,Win32,161.6814875,,,,,,,,,,,,,,,,,,masks/mask_005.jpg,,,,,,,,,,,,,,,,,,,,,,,,,,,,,,,,,,,,,,,,,,,,,,,,0,1,1,4,1,,,,,,,,,,,,,,,,,,,,,,,,,,,,,,,,,,,,,,,,,
850851,001,2022-11-20_23h54.18.345,Info_measure_main_exp,2022.2.2,Win32,161.6814875,,,,,,,,,,,,,,,,,,masks/mask_003.jpg,,,,,,,,,,,,,,,,,,,,,,,,,,,,,,,,,,,,,,,,,,,,,,,,0,2,2,2,1,,,,,,,,,,,,,,,,,,,,,,,,,,,,,,,,,,,,,,,,,
850851,001,2022-11-20_23h54.18.345,Info_measure_main_exp,2022.2.2,Win32,161.6814875,,,,,,,,,,,,,,,,,,masks/mask_001.jpg,,,,,,,,,,,,,,,,,,,,,,,,,,,,,,,,,,,,,,,,,,,,,,,,0,3,3,0,1,,,,,,,,,,,,,,,,,,,,,,,,,,,,,,,,,,,,,,,,,
850851,001,2022-11-20_23h54.18.345,Info_measure_main_exp,2022.2.2,Win32,161.6814875,,,,,,,,,,,,,,,,,,masks/mask_002.jpg,,,,,,,,,,,,,,,,,,,,,,,,,,,,,,,,,,,,,,,,,,,,,,,,0,4,4,1,1,,,,,,,,,,,,,,,,,,,,,,,,,,,,,,,,,,,,,,,,,
850851,001,2022-11-20_23h54.18.345,Info_measure_main_exp,2022.2.2,Win32,161.6814875,,,,,,,,,,,,,,,,,,,,,,,,,,,,,,6,0.8169,1,,,,,,,,,,,,0,131,5,5,2082,1986,absent_patch/patch0002082.jpg,absent_patch/patch0001986.jpg,,,,,,,,,,,,,,,,,,,,0.036111111,0.015740741,1,0,0,response1disk,33,0.010185185,-0.005555556,1,0,0,center_square,0,32,32,94,1,,,,,,,,,,,,,,,,,,,,,,,
850851,001,2022-11-20_23h54.18.345,Info_measure_main_exp,2022.2.2,Win32,161.6814875,,,,,,,,,,,,,,,,,,masks/mask_003.jpg,,,,,,,,,,,,,,,,,,,,,,,,,,,,,,,,,,,,,,,,,,,0,0,0,2,1,,,,,,,,,,,,,,,,,,,,,,,,,,,,,,,,,,,,,,,,,,,,,,
850851,001,2022-11-20_23h54.18.345,Info_measure_main_exp,2022.2.2,Win32,161.6814875,,,,,,,,,,,,,,,,,,masks/mask_001.jpg,,,,,,,,,,,,,,,,,,,,,,,,,,,,,,,,,,,,,,,,,,,0,1,1,0,1,,,,,,,,,,,,,,,,,,,,,,,,,,,,,,,,,,,,,,,,,,,,,,
850851,001,2022-11-20_23h54.18.345,Info_measure_main_exp,2022.2.2,Win32,161.6814875,,,,,,,,,,,,,,,,,,masks/mask_002.jpg,,,,,,,,,,,,,,,,,,,,,,,,,,,,,,,,,,,,,,,,,,,0,2,2,1,1,,,,,,,,,,,,,,,,,,,,,,,,,,,,,,,,,,,,,,,,,,,,,,
850851,001,2022-11-20_23h54.18.345,Info_measure_main_exp,2022.2.2,Win32,161.6814875,,,,,,,,,,,,,,,,,,masks/mask_004.jpg,,,,,,,,,,,,,,,,,,,,,,,,,,,,,,,,,,,,,,,,,,,0,3,3,3,1,,,,,,,,,,,,,,,,,,,,,,,,,,,,,,,,,,,,,,,,,,,,,,
850851,001,2022-11-20_23h54.18.345,Info_measure_main_exp,2022.2.2,Win32,161.6814875,,,,,,,,,,,,,,,,,,masks/mask_005.jpg,,,,,,,,,,,,,,,,,,,,,,,,,,,,,,,,,,,,,,,,,,,0,4,4,4,1,,,,,,,,,,,,,,,,,,,,,,,,,,,,,,,,,,,,,,,,,,,,,,
850851,001,2022-11-20_23h54.18.345,Info_measure_main_exp,2022.2.2,Win32,161.6814875,,,,,,,,,,,,,,,,,,masks/mask_002.jpg,,,,,,,,,,,,,,,,,,,,,,,,,,,,,,,,,,,,,,,,,,,,,,,,0,0,0,1,1,,,,,,,,,,,,,,,,,,,,,,,,,,,,,,,,,,,,,,,,,
850851,001,2022-11-20_23h54.18.345,Info_measure_main_exp,2022.2.2,Win32,161.6814875,,,,,,,,,,,,,,,,,,masks/mask_005.jpg,,,,,,,,,,,,,,,,,,,,,,,,,,,,,,,,,,,,,,,,,,,,,,,,0,1,1,4,1,,,,,,,,,,,,,,,,,,,,,,,,,,,,,,,,,,,,,,,,,
850851,001,2022-11-20_23h54.18.345,Info_measure_main_exp,2022.2.2,Win32,161.6814875,,,,,,,,,,,,,,,,,,masks/mask_001.jpg,,,,,,,,,,,,,,,,,,,,,,,,,,,,,,,,,,,,,,,,,,,,,,,,0,2,2,0,1,,,,,,,,,,,,,,,,,,,,,,,,,,,,,,,,,,,,,,,,,
850851,001,2022-11-20_23h54.18.345,Info_measure_main_exp,2022.2.2,Win32,161.6814875,,,,,,,,,,,,,,,,,,masks/mask_004.jpg,,,,,,,,,,,,,,,,,,,,,,,,,,,,,,,,,,,,,,,,,,,,,,,,0,3,3,3,1,,,,,,,,,,,,,,,,,,,,,,,,,,,,,,,,,,,,,,,,,
850851,001,2022-11-20_23h54.18.345,Info_measure_main_exp,2022.2.2,Win32,161.6814875,,,,,,,,,,,,,,,,,,masks/mask_003.jpg,,,,,,,,,,,,,,,,,,,,,,,,,,,,,,,,,,,,,,,,,,,,,,,,0,4,4,2,1,,,,,,,,,,,,,,,,,,,,,,,,,,,,,,,,,,,,,,,,,
850851,001,2022-11-20_23h54.18.345,Info_measure_main_exp,2022.2.2,Win32,161.6814875,,,,,,,,,,,,,,,,,,,,,,,,,,,,,,7,1.0832,1,,,,,,,,,,,,1,131,5,5,1,2214,present_patch/cong_131_5_a.jpg,absent_patch/patch0002214.jpg,,,,,,,,,,,,,,,,,,,,0.038888889,0.062962963,1,0,0,response1disk,34,0.00462963,0.005555556,1,0,0,center_square,0,33,33,4,1,,,,,,,,,,,,,,,,,,,,,,,
850851,001,2022-11-20_23h54.18.345,Info_measure_main_exp,2022.2.2,Win32,161.6814875,,,,,,,,,,,,,,,,,,masks/mask_001.jpg,,,,,,,,,,,,,,,,,,,,,,,,,,,,,,,,,,,,,,,,,,,0,0,0,0,1,,,,,,,,,,,,,,,,,,,,,,,,,,,,,,,,,,,,,,,,,,,,,,
850851,001,2022-11-20_23h54.18.345,Info_measure_main_exp,2022.2.2,Win32,161.6814875,,,,,,,,,,,,,,,,,,masks/mask_005.jpg,,,,,,,,,,,,,,,,,,,,,,,,,,,,,,,,,,,,,,,,,,,0,1,1,4,1,,,,,,,,,,,,,,,,,,,,,,,,,,,,,,,,,,,,,,,,,,,,,,
850851,001,2022-11-20_23h54.18.345,Info_measure_main_exp,2022.2.2,Win32,161.6814875,,,,,,,,,,,,,,,,,,masks/mask_002.jpg,,,,,,,,,,,,,,,,,,,,,,,,,,,,,,,,,,,,,,,,,,,0,2,2,1,1,,,,,,,,,,,,,,,,,,,,,,,,,,,,,,,,,,,,,,,,,,,,,,
850851,001,2022-11-20_23h54.18.345,Info_measure_main_exp,2022.2.2,Win32,161.6814875,,,,,,,,,,,,,,,,,,masks/mask_003.jpg,,,,,,,,,,,,,,,,,,,,,,,,,,,,,,,,,,,,,,,,,,,0,3,3,2,1,,,,,,,,,,,,,,,,,,,,,,,,,,,,,,,,,,,,,,,,,,,,,,
850851,001,2022-11-20_23h54.18.345,Info_measure_main_exp,2022.2.2,Win32,161.6814875,,,,,,,,,,,,,,,,,,masks/mask_004.jpg,,,,,,,,,,,,,,,,,,,,,,,,,,,,,,,,,,,,,,,,,,,0,4,4,3,1,,,,,,,,,,,,,,,,,,,,,,,,,,,,,,,,,,,,,,,,,,,,,,
850851,001,2022-11-20_23h54.18.345,Info_measure_main_exp,2022.2.2,Win32,161.6814875,,,,,,,,,,,,,,,,,,masks/mask_003.jpg,,,,,,,,,,,,,,,,,,,,,,,,,,,,,,,,,,,,,,,,,,,,,,,,0,0,0,2,1,,,,,,,,,,,,,,,,,,,,,,,,,,,,,,,,,,,,,,,,,
850851,001,2022-11-20_23h54.18.345,Info_measure_main_exp,2022.2.2,Win32,161.6814875,,,,,,,,,,,,,,,,,,masks/mask_001.jpg,,,,,,,,,,,,,,,,,,,,,,,,,,,,,,,,,,,,,,,,,,,,,,,,0,1,1,0,1,,,,,,,,,,,,,,,,,,,,,,,,,,,,,,,,,,,,,,,,,
850851,001,2022-11-20_23h54.18.345,Info_measure_main_exp,2022.2.2,Win32,161.6814875,,,,,,,,,,,,,,,,,,masks/mask_002.jpg,,,,,,,,,,,,,,,,,,,,,,,,,,,,,,,,,,,,,,,,,,,,,,,,0,2,2,1,1,,,,,,,,,,,,,,,,,,,,,,,,,,,,,,,,,,,,,,,,,
850851,001,2022-11-20_23h54.18.345,Info_measure_main_exp,2022.2.2,Win32,161.6814875,,,,,,,,,,,,,,,,,,masks/mask_004.jpg,,,,,,,,,,,,,,,,,,,,,,,,,,,,,,,,,,,,,,,,,,,,,,,,0,3,3,3,1,,,,,,,,,,,,,,,,,,,,,,,,,,,,,,,,,,,,,,,,,
