Pair_type,Image_num,Patch_1_loc,Patch_2_loc,Patch_1_info,Patch_2_info,Patch_1_name,Patch_2_name,mask_name,prac_loop.thisRepN,prac_loop.thisTrialN,prac_loop.thisN,prac_loop.thisIndex,prac_mask_loop_1.thisRepN,prac_mask_loop_1.thisTrialN,prac_mask_loop_1.thisN,prac_mask_loop_1.thisIndex,prac_mask_loop_2.thisRepN,prac_mask_loop_2.thisTrialN,prac_mask_loop_2.thisN,prac_mask_loop_2.thisIndex,first_pass_loop.thisRepN,first_pass_loop.thisTrialN,first_pass_loop.thisN,first_pass_loop.thisIndex,mask_loop.thisRepN,mask_loop.thisTrialN,mask_loop.thisN,mask_loop.thisIndex,mask_loop_2.thisRepN,mask_loop_2.thisTrialN,mask_loop_2.thisN,mask_loop_2.thisIndex,instruction_1_text.started,all_patches.started,space_press_continue.started,press_space_continue.started,Esc_exit.started,space_press_continue.keys,space_press_continue.rt,patch_1_movie.started,space_press_continue_2.started,Esc_exit_2.started,space_press_continue_2.keys,space_press_continue_2.rt,patch_2_movie.started,space_press_continue_3.started,Esc_exit_3.started,space_press_continue_3.keys,space_press_continue_3.rt,instruction_text_4.started,use_all_numbers.started,response_screen_intr.started,space_press_continue_4.started,space_continue_low.started,Esc_exit_4.started,space_press_continue_4.keys,space_press_continue_4.rt,instruction_text_5.started,response_screen_after.started,space_press_continue_5.started,space_continue_low_2.started,Esc_exit_5.started,space_press_continue_5.keys,space_press_continue_5.rt,prac_begin_space.started,space_press_continue_6.started,Esc_exit_6.started,space_press_continue_6.keys,space_press_continue_6.rt,Esc_exit_13.started,practice_patch_1.started,Esc_exit_13.stopped,practice_patch_1.stopped,Esc_exit_14.started,Esc_exit_12.started,practice_patch_2.started,practice_patch_2.stopped,Esc_exit_12.stopped,mouse_2.started,text.started,most_similar_3.started,most_different_3.started,Esc_exit_7.started,mouse_2.x,mouse_2.y,mouse_2.leftButton,mouse_2.midButton,mouse_2.rightButton,mouse_2.clicked_name,similarity,response_time,Pass,text_55.started,text_56.started,Esc_exit_8.started,text_55.stopped,text_56.stopped,Esc_exit_8.stopped,mouse_12.started,most_similar_4.started,most_different_4.started,Esc_exit_9.started,mouse_12.x,mouse_12.y,mouse_12.leftButton,mouse_12.midButton,mouse_12.rightButton,mouse_12.clicked_name,Esc_exit_15.started,space_press_continue_7.started,mouse_1.x,mouse_1.y,mouse_1.leftButton,mouse_1.midButton,mouse_1.rightButton,mouse_1.time,mouse_1.clicked_name,space_press_continue_7.keys,space_press_continue_7.rt,Esc_exit_16.started,first_patch.started,first_patch.stopped,Esc_exit_16.stopped,Esc_exit_17.started,second_patch.started,second_patch.stopped,Esc_exit_17.stopped,mouse.started,text_23.started,most_similar.started,most_different.started,Esc_exit_10.started,mouse.x,mouse.y,mouse.leftButton,mouse.midButton,mouse.rightButton,mouse.clicked_name,trialNumber,mouse_11.started,most_similar_2.started,most_different_2.started,trial_text_2.started,Esc_exit_11.started,mouse_11.x,mouse_11.y,mouse_11.leftButton,mouse_11.midButton,mouse_11.rightButton,mouse_11.clicked_name,participant,session,date,expName,psychopyVersion,frameRate,
,,,,,,,,,,,,,,,,,,,,,,,,,,,,,,,,,18.643567236009403,18.643567236009403,18.643567236009403,18.643567236009403,18.643567236009403,space,3.532336378993932,,,,,,,,,,,,,,,,,,,,,,,,,,,,,,,,,,,,,,,,,,,,,,,,,,,,,,,,,,,,,,,,,,,,,,,,,,,,,,,,,,,,,,,,,,,,,,,,,,,,,,,,,,,,,,,,861543,001,2023-01-27_14h45.22.362,Info_measure_main_exp,2022.2.4,60.07313615592061,
,,,,,,,,,,,,,,,,,,,,,,,,,,,,,,,,,,,,,,,,23.33664094899723,23.33664094899723,23.33664094899723,space,1.7740444869996281,,,,,,,,,,,,,,,,,,,,,,,,,,,,,,,,,,,,,,,,,,,,,,,,,,,,,,,,,,,,,,,,,,,,,,,,,,,,,,,,,,,,,,,,,,,,,,,,,,,,,,,,,,,861543,001,2023-01-27_14h45.22.362,Info_measure_main_exp,2022.2.4,60.07313615592061,
,,,,,,,,,,,,,,,,,,,,,,,,,,,,,,,,,,,,,,,,,,,,,25.78464849400916,25.78464849400916,25.78464849400916,space,0.7204180330008967,,,,,,,,,,,,,,,,,,,,,,,,,,,,,,,,,,,,,,,,,,,,,,,,,,,,,,,,,,,,,,,,,,,,,,,,,,,,,,,,,,,,,,,,,,,,,,,,,,,,,,861543,001,2023-01-27_14h45.22.362,Info_measure_main_exp,2022.2.4,60.07313615592061,
,,,,,,,,,,,,,,,,,,,,,,,,,,,,,,,,,,,,,,,,,,,,,,,,,,26.538059108002926,26.538059108002926,26.538059108002926,26.538059108002926,26.538059108002926,26.538059108002926,space,0.6545121369999833,,,,,,,,,,,,,,,,,,,,,,,,,,,,,,,,,,,,,,,,,,,,,,,,,,,,,,,,,,,,,,,,,,,,,,,,,,,,,,,,,,,,,,,,,,,,,,861543,001,2023-01-27_14h45.22.362,Info_measure_main_exp,2022.2.4,60.07313615592061,
,,,,,,,,,,,,,,,,,,,,,,,,,,,,,,,,,,,,,,,,,,,,,,,,,,,,,,,,,,27.216925412998535,27.216925412998535,27.216925412998535,27.216925412998535,27.216925412998535,space,1.7139932729915017,,,,,,,,,,,,,,,,,,,,,,,,,,,,,,,,,,,,,,,,,,,,,,,,,,,,,,,,,,,,,,,,,,,,,,,,,,,,,,,,,,,,,,,861543,001,2023-01-27_14h45.22.362,Info_measure_main_exp,2022.2.4,60.07313615592061,
,,,,,,,,,,,,,,,,,,,,,,,,,,,,,,,,,,,,,,,,,,,,,,,,,,,,,,,,,,,,,,,,,28.967797852004878,28.967797852004878,28.967797852004878,space,0.6074665189953521,,,,,,,,,,,,,,,,,,,,,,,,,,,,,,,,,,,,,,,,,,,,,,,,,,,,,,,,,,,,,,,,,,,,,,,,,,,,,,,,,,861543,001,2023-01-27_14h45.22.362,Info_measure_main_exp,2022.2.4,60.07313615592061,
0,131,5,5,2370,2406,prac_patch/patch0002370.jpg,prac_patch/patch0002406.jpg,masks/mask_005.jpg,0,0,0,0,0,0,0,4,,,,,,,,,,,,,,,,,,,,,,,,,,,,,,,,,,,,,,,,,,,,,,,,,,,,,,29.652657979007927,30.168291723995935,30.315645655005937,30.36037677200511,30.36037677200511,,,,,,,,,,,,,,,,,,,,,,,,,,,,,,,,,,,,,,,,,,,,,,,,,,,,,,,,,,,,,,,,,,,,,,,,,,,,,861543,001,2023-01-27_14h45.22.362,Info_measure_main_exp,2022.2.4,60.07313615592061,
0,131,5,5,2370,2406,prac_patch/patch0002370.jpg,prac_patch/patch0002406.jpg,masks/mask_004.jpg,0,0,0,0,0,1,1,3,,,,,,,,,,,,,,,,,,,,,,,,,,,,,,,,,,,,,,,,,,,,,,,,,,,,,,,,,,30.416051346997847,,,,,,,,,,,,,,,,,,,,,,,,,,,,,,,,,,,,,,,,,,,,,,,,,,,,,,,,,,,,,,,,,,,,,,,,,,,,,861543,001,2023-01-27_14h45.22.362,Info_measure_main_exp,2022.2.4,60.07313615592061,
0,131,5,5,2370,2406,prac_patch/patch0002370.jpg,prac_patch/patch0002406.jpg,masks/mask_001.jpg,0,0,0,0,0,2,2,0,,,,,,,,,,,,,,,,,,,,,,,,,,,,,,,,,,,,,,,,,,,,,,,,,,,,,,,,,,30.47237507600221,,,,,,,,,,,,,,,,,,,,,,,,,,,,,,,,,,,,,,,,,,,,,,,,,,,,,,,,,,,,,,,,,,,,,,,,,,,,,861543,001,2023-01-27_14h45.22.362,Info_measure_main_exp,2022.2.4,60.07313615592061,
0,131,5,5,2370,2406,prac_patch/patch0002370.jpg,prac_patch/patch0002406.jpg,masks/mask_002.jpg,0,0,0,0,0,3,3,1,,,,,,,,,,,,,,,,,,,,,,,,,,,,,,,,,,,,,,,,,,,,,,,,,,,,,,,,,,30.526644507001038,,,,,,,,,,,,,,,,,,,,,,,,,,,,,,,,,,,,,,,,,,,,,,,,,,,,,,,,,,,,,,,,,,,,,,,,,,,,,861543,001,2023-01-27_14h45.22.362,Info_measure_main_exp,2022.2.4,60.07313615592061,
0,131,5,5,2370,2406,prac_patch/patch0002370.jpg,prac_patch/patch0002406.jpg,masks/mask_003.jpg,0,0,0,0,0,4,4,2,,,,,,,,,,,,,,,,,,,,,,,,,,,,,,,,,,,,,,,,,,,,,,,,,,,,,,,,,,30.582119287995738,,,,,,,,,,,,,,,,,,,,,,,,,,,,,,,,,,,,,,,,,,,,,,,,,,,,,,,,,,,,,,,,,,,,,,,,,,,,,861543,001,2023-01-27_14h45.22.362,Info_measure_main_exp,2022.2.4,60.07313615592061,
0,131,5,5,2370,2406,prac_patch/patch0002370.jpg,prac_patch/patch0002406.jpg,masks/mask_002.jpg,0,0,0,0,,,,,0,0,0,1,,,,,,,,,,,,,,,,,,,,,,,,,,,,,,,,,,,,,,,,,,,,,,,,,,,,,,31.308998419001,30.636095775000285,31.119287959998474,31.2693240600056,31.308998419001,,,,,,,,,,,,,,,,,,,,,,,,,,,,,,,,,,,,,,,,,,,,,,,,,,,,,,,,,,,,,,,,,,,,,,,,,861543,001,2023-01-27_14h45.22.362,Info_measure_main_exp,2022.2.4,60.07313615592061,
0,131,5,5,2370,2406,prac_patch/patch0002370.jpg,prac_patch/patch0002406.jpg,masks/mask_004.jpg,0,0,0,0,,,,,0,1,1,3,,,,,,,,,,,,,,,,,,,,,,,,,,,,,,,,,,,,,,,,,,,,,,,,,,,,,,31.36859249700501,,,,,,,,,,,,,,,,,,,,,,,,,,,,,,,,,,,,,,,,,,,,,,,,,,,,,,,,,,,,,,,,,,,,,,,,,,,,,861543,001,2023-01-27_14h45.22.362,Info_measure_main_exp,2022.2.4,60.07313615592061,
0,131,5,5,2370,2406,prac_patch/patch0002370.jpg,prac_patch/patch0002406.jpg,masks/mask_005.jpg,0,0,0,0,,,,,0,2,2,4,,,,,,,,,,,,,,,,,,,,,,,,,,,,,,,,,,,,,,,,,,,,,,,,,,,,,,31.426654502996826,,,,,,,,,,,,,,,,,,,,,,,,,,,,,,,,,,,,,,,,,,,,,,,,,,,,,,,,,,,,,,,,,,,,,,,,,,,,,861543,001,2023-01-27_14h45.22.362,Info_measure_main_exp,2022.2.4,60.07313615592061,
0,131,5,5,2370,2406,prac_patch/patch0002370.jpg,prac_patch/patch0002406.jpg,masks/mask_001.jpg,0,0,0,0,,,,,0,3,3,0,,,,,,,,,,,,,,,,,,,,,,,,,,,,,,,,,,,,,,,,,,,,,,,,,,,,,,31.48132530899602,,,,,,,,,,,,,,,,,,,,,,,,,,,,,,,,,,,,,,,,,,,,,,,,,,,,,,,,,,,,,,,,,,,,,,,,,,,,,861543,001,2023-01-27_14h45.22.362,Info_measure_main_exp,2022.2.4,60.07313615592061,
0,131,5,5,2370,2406,prac_patch/patch0002370.jpg,prac_patch/patch0002406.jpg,masks/mask_003.jpg,0,0,0,0,,,,,0,4,4,2,,,,,,,,,,,,,,,,,,,,,,,,,,,,,,,,,,,,,,,,,,,,,,,,,,,,,,31.537578235002,,,,,,,,,,,,,,,,,,,,,,,,,,,,,,,,,,,,,,,,,,,,,,,,,,,,,,,,,,,,,,,,,,,,,,,,,,,,,861543,001,2023-01-27_14h45.22.362,Info_measure_main_exp,2022.2.4,60.07313615592061,
0,131,5,5,2370,2406,prac_patch/patch0002370.jpg,prac_patch/patch0002406.jpg,,0,0,0,0,,,,,,,,,,,,,,,,,,,,,,,,,,,,,,,,,,,,,,,,,,,,,,,,,,,,,,,,,,,,,,,,,,,0.016452920011943206,31.616594609004096,31.616594609004096,31.616594609004096,31.616594609004096,0.15333333333333332,0.26,1,0,0,response1disk,7,16.061611709999852,1,34.17380557699653,34.17380557699653,34.17380557699653,38.195879851002246,38.195879851002246,38.195879851002246,6.0287988162599504e-05,38.195879851002246,38.195879851002246,38.195879851002246,0.01,-0.015555555555555555,1,0,0,center_square,,,,,,,,,,,,,,,,,,,,,,,,,,,,,,,,,,,,,,,,,,,861543,001,2023-01-27_14h45.22.362,Info_measure_main_exp,2022.2.4,60.07313615592061,
0,131,5,5,2526,2526,prac_patch/patch0002526.jpg,prac_patch/patch0002526.jpg,masks/mask_001.jpg,0,1,1,2,0,0,0,0,,,,,,,,,,,,,,,,,,,,,,,,,,,,,,,,,,,,,,,,,,,,,,,,,,,,,,40.611058545007836,41.09968513400236,41.28433910099557,41.25171902599686,41.28433910099557,,,,,,,,,,,,,,,,,,,,,,,,,,,,,,,,,,,,,,,,,,,,,,,,,,,,,,,,,,,,,,,,,,,,,,,,,,,,,861543,001,2023-01-27_14h45.22.362,Info_measure_main_exp,2022.2.4,60.07313615592061,
0,131,5,5,2526,2526,prac_patch/patch0002526.jpg,prac_patch/patch0002526.jpg,masks/mask_004.jpg,0,1,1,2,0,1,1,3,,,,,,,,,,,,,,,,,,,,,,,,,,,,,,,,,,,,,,,,,,,,,,,,,,,,,,,,,,41.34018320000905,,,,,,,,,,,,,,,,,,,,,,,,,,,,,,,,,,,,,,,,,,,,,,,,,,,,,,,,,,,,,,,,,,,,,,,,,,,,,861543,001,2023-01-27_14h45.22.362,Info_measure_main_exp,2022.2.4,60.07313615592061,
0,131,5,5,2526,2526,prac_patch/patch0002526.jpg,prac_patch/patch0002526.jpg,masks/mask_005.jpg,0,1,1,2,0,2,2,4,,,,,,,,,,,,,,,,,,,,,,,,,,,,,,,,,,,,,,,,,,,,,,,,,,,,,,,,,,41.413442176009994,,,,,,,,,,,,,,,,,,,,,,,,,,,,,,,,,,,,,,,,,,,,,,,,,,,,,,,,,,,,,,,,,,,,,,,,,,,,,861543,001,2023-01-27_14h45.22.362,Info_measure_main_exp,2022.2.4,60.07313615592061,
0,131,5,5,2526,2526,prac_patch/patch0002526.jpg,prac_patch/patch0002526.jpg,masks/mask_002.jpg,0,1,1,2,0,3,3,1,,,,,,,,,,,,,,,,,,,,,,,,,,,,,,,,,,,,,,,,,,,,,,,,,,,,,,,,,,41.46985659500933,,,,,,,,,,,,,,,,,,,,,,,,,,,,,,,,,,,,,,,,,,,,,,,,,,,,,,,,,,,,,,,,,,,,,,,,,,,,,861543,001,2023-01-27_14h45.22.362,Info_measure_main_exp,2022.2.4,60.07313615592061,
0,131,5,5,2526,2526,prac_patch/patch0002526.jpg,prac_patch/patch0002526.jpg,masks/mask_003.jpg,0,1,1,2,0,4,4,2,,,,,,,,,,,,,,,,,,,,,,,,,,,,,,,,,,,,,,,,,,,,,,,,,,,,,,,,,,41.52552645999822,,,,,,,,,,,,,,,,,,,,,,,,,,,,,,,,,,,,,,,,,,,,,,,,,,,,,,,,,,,,,,,,,,,,,,,,,,,,,861543,001,2023-01-27_14h45.22.362,Info_measure_main_exp,2022.2.4,60.07313615592061,
0,131,5,5,2526,2526,prac_patch/patch0002526.jpg,prac_patch/patch0002526.jpg,masks/mask_002.jpg,0,1,1,2,,,,,0,0,0,1,,,,,,,,,,,,,,,,,,,,,,,,,,,,,,,,,,,,,,,,,,,,,,,,,,,,,,42.252134716007276,41.574948537003365,42.0639875199995,42.215380142995855,42.252134716007276,,,,,,,,,,,,,,,,,,,,,,,,,,,,,,,,,,,,,,,,,,,,,,,,,,,,,,,,,,,,,,,,,,,,,,,,,861543,001,2023-01-27_14h45.22.362,Info_measure_main_exp,2022.2.4,60.07313615592061,
0,131,5,5,2526,2526,prac_patch/patch0002526.jpg,prac_patch/patch0002526.jpg,masks/mask_001.jpg,0,1,1,2,,,,,0,1,1,0,,,,,,,,,,,,,,,,,,,,,,,,,,,,,,,,,,,,,,,,,,,,,,,,,,,,,,42.30890268200892,,,,,,,,,,,,,,,,,,,,,,,,,,,,,,,,,,,,,,,,,,,,,,,,,,,,,,,,,,,,,,,,,,,,,,,,,,,,,861543,001,2023-01-27_14h45.22.362,Info_measure_main_exp,2022.2.4,60.07313615592061,
0,131,5,5,2526,2526,prac_patch/patch0002526.jpg,prac_patch/patch0002526.jpg,masks/mask_003.jpg,0,1,1,2,,,,,0,2,2,2,,,,,,,,,,,,,,,,,,,,,,,,,,,,,,,,,,,,,,,,,,,,,,,,,,,,,,42.366109648995916,,,,,,,,,,,,,,,,,,,,,,,,,,,,,,,,,,,,,,,,,,,,,,,,,,,,,,,,,,,,,,,,,,,,,,,,,,,,,861543,001,2023-01-27_14h45.22.362,Info_measure_main_exp,2022.2.4,60.07313615592061,
0,131,5,5,2526,2526,prac_patch/patch0002526.jpg,prac_patch/patch0002526.jpg,masks/mask_005.jpg,0,1,1,2,,,,,0,3,3,4,,,,,,,,,,,,,,,,,,,,,,,,,,,,,,,,,,,,,,,,,,,,,,,,,,,,,,42.42198050800653,,,,,,,,,,,,,,,,,,,,,,,,,,,,,,,,,,,,,,,,,,,,,,,,,,,,,,,,,,,,,,,,,,,,,,,,,,,,,861543,001,2023-01-27_14h45.22.362,Info_measure_main_exp,2022.2.4,60.07313615592061,
0,131,5,5,2526,2526,prac_patch/patch0002526.jpg,prac_patch/patch0002526.jpg,masks/mask_004.jpg,0,1,1,2,,,,,0,4,4,3,,,,,,,,,,,,,,,,,,,,,,,,,,,,,,,,,,,,,,,,,,,,,,,,,,,,,,42.49150841899973,,,,,,,,,,,,,,,,,,,,,,,,,,,,,,,,,,,,,,,,,,,,,,,,,,,,,,,,,,,,,,,,,,,,,,,,,,,,,861543,001,2023-01-27_14h45.22.362,Info_measure_main_exp,2022.2.4,60.07313615592061,
0,131,5,5,2526,2526,prac_patch/patch0002526.jpg,prac_patch/patch0002526.jpg,,0,1,1,2,,,,,,,,,,,,,,,,,,,,,,,,,,,,,,,,,,,,,,,,,,,,,,,,,,,,,,,,,,,,,,,,,,,0.01023674501630012,42.54737485499936,42.54737485499936,42.54737485499936,42.54737485499936,-0.1922222222222222,0.29,1,0,0,response7disk,0,28.09520105899719,1,46.19544407000649,46.19544407000649,46.19544407000649,50.2173077960033,50.2173077960033,50.2173077960033,5.292700370773673e-05,50.2173077960033,50.2173077960033,50.2173077960033,-0.02,0.021111111111111112,1,0,0,center_square,,,,,,,,,,,,,,,,,,,,,,,,,,,,,,,,,,,,,,,,,,,861543,001,2023-01-27_14h45.22.362,Info_measure_main_exp,2022.2.4,60.07313615592061,
0,131,5,5,2514,2490,prac_patch/patch0002514.jpg,prac_patch/patch0002490.jpg,masks/mask_001.jpg,0,2,2,1,0,0,0,0,,,,,,,,,,,,,,,,,,,,,,,,,,,,,,,,,,,,,,,,,,,,,,,,,,,,,,51.979581849009264,52.47045273600088,52.661771471000975,52.62078998600191,52.661771471000975,,,,,,,,,,,,,,,,,,,,,,,,,,,,,,,,,,,,,,,,,,,,,,,,,,,,,,,,,,,,,,,,,,,,,,,,,,,,,861543,001,2023-01-27_14h45.22.362,Info_measure_main_exp,2022.2.4,60.07313615592061,
0,131,5,5,2514,2490,prac_patch/patch0002514.jpg,prac_patch/patch0002490.jpg,masks/mask_003.jpg,0,2,2,1,0,1,1,2,,,,,,,,,,,,,,,,,,,,,,,,,,,,,,,,,,,,,,,,,,,,,,,,,,,,,,,,,,52.71534710400738,,,,,,,,,,,,,,,,,,,,,,,,,,,,,,,,,,,,,,,,,,,,,,,,,,,,,,,,,,,,,,,,,,,,,,,,,,,,,861543,001,2023-01-27_14h45.22.362,Info_measure_main_exp,2022.2.4,60.07313615592061,
0,131,5,5,2514,2490,prac_patch/patch0002514.jpg,prac_patch/patch0002490.jpg,masks/mask_004.jpg,0,2,2,1,0,2,2,3,,,,,,,,,,,,,,,,,,,,,,,,,,,,,,,,,,,,,,,,,,,,,,,,,,,,,,,,,,52.76949497900205,,,,,,,,,,,,,,,,,,,,,,,,,,,,,,,,,,,,,,,,,,,,,,,,,,,,,,,,,,,,,,,,,,,,,,,,,,,,,861543,001,2023-01-27_14h45.22.362,Info_measure_main_exp,2022.2.4,60.07313615592061,
0,131,5,5,2514,2490,prac_patch/patch0002514.jpg,prac_patch/patch0002490.jpg,masks/mask_002.jpg,0,2,2,1,0,3,3,1,,,,,,,,,,,,,,,,,,,,,,,,,,,,,,,,,,,,,,,,,,,,,,,,,,,,,,,,,,52.83856165900943,,,,,,,,,,,,,,,,,,,,,,,,,,,,,,,,,,,,,,,,,,,,,,,,,,,,,,,,,,,,,,,,,,,,,,,,,,,,,861543,001,2023-01-27_14h45.22.362,Info_measure_main_exp,2022.2.4,60.07313615592061,
0,131,5,5,2514,2490,prac_patch/patch0002514.jpg,prac_patch/patch0002490.jpg,masks/mask_005.jpg,0,2,2,1,0,4,4,4,,,,,,,,,,,,,,,,,,,,,,,,,,,,,,,,,,,,,,,,,,,,,,,,,,,,,,,,,,52.89191462600138,,,,,,,,,,,,,,,,,,,,,,,,,,,,,,,,,,,,,,,,,,,,,,,,,,,,,,,,,,,,,,,,,,,,,,,,,,,,,861543,001,2023-01-27_14h45.22.362,Info_measure_main_exp,2022.2.4,60.07313615592061,
0,131,5,5,2514,2490,prac_patch/patch0002514.jpg,prac_patch/patch0002490.jpg,masks/mask_002.jpg,0,2,2,1,,,,,0,0,0,1,,,,,,,,,,,,,,,,,,,,,,,,,,,,,,,,,,,,,,,,,,,,,,,,,,,,,,53.626454507000744,52.95384948600258,53.427904666998074,53.57801078799821,53.626454507000744,,,,,,,,,,,,,,,,,,,,,,,,,,,,,,,,,,,,,,,,,,,,,,,,,,,,,,,,,,,,,,,,,,,,,,,,,861543,001,2023-01-27_14h45.22.362,Info_measure_main_exp,2022.2.4,60.07313615592061,
0,131,5,5,2514,2490,prac_patch/patch0002514.jpg,prac_patch/patch0002490.jpg,masks/mask_001.jpg,0,2,2,1,,,,,0,1,1,0,,,,,,,,,,,,,,,,,,,,,,,,,,,,,,,,,,,,,,,,,,,,,,,,,,,,,,53.678468116006115,,,,,,,,,,,,,,,,,,,,,,,,,,,,,,,,,,,,,,,,,,,,,,,,,,,,,,,,,,,,,,,,,,,,,,,,,,,,,861543,001,2023-01-27_14h45.22.362,Info_measure_main_exp,2022.2.4,60.07313615592061,
0,131,5,5,2514,2490,prac_patch/patch0002514.jpg,prac_patch/patch0002490.jpg,masks/mask_005.jpg,0,2,2,1,,,,,0,2,2,4,,,,,,,,,,,,,,,,,,,,,,,,,,,,,,,,,,,,,,,,,,,,,,,,,,,,,,53.750953365000896,,,,,,,,,,,,,,,,,,,,,,,,,,,,,,,,,,,,,,,,,,,,,,,,,,,,,,,,,,,,,,,,,,,,,,,,,,,,,861543,001,2023-01-27_14h45.22.362,Info_measure_main_exp,2022.2.4,60.07313615592061,
0,131,5,5,2514,2490,prac_patch/patch0002514.jpg,prac_patch/patch0002490.jpg,masks/mask_003.jpg,0,2,2,1,,,,,0,3,3,2,,,,,,,,,,,,,,,,,,,,,,,,,,,,,,,,,,,,,,,,,,,,,,,,,,,,,,53.803290662996005,,,,,,,,,,,,,,,,,,,,,,,,,,,,,,,,,,,,,,,,,,,,,,,,,,,,,,,,,,,,,,,,,,,,,,,,,,,,,861543,001,2023-01-27_14h45.22.362,Info_measure_main_exp,2022.2.4,60.07313615592061,
0,131,5,5,2514,2490,prac_patch/patch0002514.jpg,prac_patch/patch0002490.jpg,masks/mask_004.jpg,0,2,2,1,,,,,0,4,4,3,,,,,,,,,,,,,,,,,,,,,,,,,,,,,,,,,,,,,,,,,,,,,,,,,,,,,,53.87224449100904,,,,,,,,,,,,,,,,,,,,,,,,,,,,,,,,,,,,,,,,,,,,,,,,,,,,,,,,,,,,,,,,,,,,,,,,,,,,,861543,001,2023-01-27_14h45.22.362,Info_measure_main_exp,2022.2.4,60.07313615592061,
0,131,5,5,2514,2490,prac_patch/patch0002514.jpg,prac_patch/patch0002490.jpg,,0,2,2,1,,,,,,,,,,,,,,,,,,,,,,,,,,,,,,,,,,,,,,,,,,,,,,,,,,,,,,,,,,,,,,,,,,,0.008729023014893755,53.923683205997804,53.923683205997804,53.923683205997804,53.923683205997804,0.29777777777777775,-0.1111111111111111,1,0,0,response3disk,5,39.29763958499825,1,57.388623170001665,57.388623170001665,57.388623170001665,61.415080972001306,61.415080972001306,61.415080972001306,0.00019503600196912885,61.415080972001306,61.415080972001306,61.415080972001306,0.011111111111111112,0.006666666666666667,1,0,0,center_square,,,,,,,,,,,,,,,,,,,,,,,,,,,,,,,,,,,,,,,,,,,861543,001,2023-01-27_14h45.22.362,Info_measure_main_exp,2022.2.4,60.07313615592061,
,,,,,,,,,,,,,,,,,,,,,,,,,,,,,,,,,,,,,,,,,,,,,,,,,,,,,,,,,,,,,,,,,,,,,,,,,,,,,,,,,,,,,,,,,,,,,,,,,,,,,,,,,,,,,62.086730292998254,62.086730292998254,[],[],[],[],[],[],[],,,,,,,,,,,,,,,,,,,,,,,,,,,,,,,,,,861543,001,2023-01-27_14h45.22.362,Info_measure_main_exp,2022.2.4,60.07313615592061,
,,,,,,,,,,,,,,,,,,,,,,,,,,,,,,,,,,,,,,,,,,,,,,,,,,,,,,,,,,,,,,,,,,,,,,,,,,,,,,,,,,,,,,,,,,,,,,,,,,,,,,,,,,,,,,,,,,,,,,space,1.9061470239976188,,,,,,,,,,,,,,,,,,,,,,,,,,,,,,,,861543,001,2023-01-27_14h45.22.362,Info_measure_main_exp,2022.2.4,60.07313615592061,
0,131,5,5,2151,2211,absent_patch/patch0002151.jpg,absent_patch/patch0002211.jpg,masks/mask_005.jpg,,,,,,,,,,,,,0,0,0,112,0,0,0,4,,,,,,,,,,,,,,,,,,,,,,,,,,,,,,,,,,,,,,,,,,,,,,64.85195003800618,,,,,,,,,,,,,,,,,,,,,,,,,,,,,,,,,,,,,,,,,,,,,,64.15889921000053,64.5127053650067,64.67318795900792,64.85195003800618,,,,,,,,,,,,,,,,,,,,,,,,,,,,861543,001,2023-01-27_14h45.22.362,Info_measure_main_exp,2022.2.4,60.07313615592061,
0,131,5,5,2151,2211,absent_patch/patch0002151.jpg,absent_patch/patch0002211.jpg,masks/mask_001.jpg,,,,,,,,,,,,,0,0,0,112,0,1,1,0,,,,,,,,,,,,,,,,,,,,,,,,,,,,,,,,,,,,,,,,,,,,,,64.9099515179987,,,,,,,,,,,,,,,,,,,,,,,,,,,,,,,,,,,,,,,,,,,,,,,,,,,,,,,,,,,,,,,,,,,,,,,,,,,,,861543,001,2023-01-27_14h45.22.362,Info_measure_main_exp,2022.2.4,60.07313615592061,
0,131,5,5,2151,2211,absent_patch/patch0002151.jpg,absent_patch/patch0002211.jpg,masks/mask_002.jpg,,,,,,,,,,,,,0,0,0,112,0,2,2,1,,,,,,,,,,,,,,,,,,,,,,,,,,,,,,,,,,,,,,,,,,,,,,64.9707861860079,,,,,,,,,,,,,,,,,,,,,,,,,,,,,,,,,,,,,,,,,,,,,,,,,,,,,,,,,,,,,,,,,,,,,,,,,,,,,861543,001,2023-01-27_14h45.22.362,Info_measure_main_exp,2022.2.4,60.07313615592061,
0,131,5,5,2151,2211,absent_patch/patch0002151.jpg,absent_patch/patch0002211.jpg,masks/mask_003.jpg,,,,,,,,,,,,,0,0,0,112,0,3,3,2,,,,,,,,,,,,,,,,,,,,,,,,,,,,,,,,,,,,,,,,,,,,,,65.03245345200412,,,,,,,,,,,,,,,,,,,,,,,,,,,,,,,,,,,,,,,,,,,,,,,,,,,,,,,,,,,,,,,,,,,,,,,,,,,,,861543,001,2023-01-27_14h45.22.362,Info_measure_main_exp,2022.2.4,60.07313615592061,
0,131,5,5,2151,2211,absent_patch/patch0002151.jpg,absent_patch/patch0002211.jpg,masks/mask_004.jpg,,,,,,,,,,,,,0,0,0,112,0,4,4,3,,,,,,,,,,,,,,,,,,,,,,,,,,,,,,,,,,,,,,,,,,,,,,65.07468680600869,,,,,,,,,,,,,,,,,,,,,,,,,,,,,,,,,,,,,,,,,,,,,,,,,,,,,,,,,,,,,,,,,,,,,,,,,,,,,861543,001,2023-01-27_14h45.22.362,Info_measure_main_exp,2022.2.4,60.07313615592061,
0,131,5,5,2151,2211,absent_patch/patch0002151.jpg,absent_patch/patch0002211.jpg,masks/mask_004.jpg,,,,,,,,,,,,,0,0,0,112,,,,,0,0,0,3,,,,,,,,,,,,,,,,,,,,,,,,,,,,,,,,,,,,,,,,,,65.83600667399878,,,,,,,,,,,,,,,,,,,,,,,,,,,,,,,,,,,,,,,,,,,,,,,,,,65.14128432700818,65.61899149800593,65.77241548900201,65.83600667399878,,,,,,,,,,,,,,,,,,,,,,,,861543,001,2023-01-27_14h45.22.362,Info_measure_main_exp,2022.2.4,60.07313615592061,
0,131,5,5,2151,2211,absent_patch/patch0002151.jpg,absent_patch/patch0002211.jpg,masks/mask_002.jpg,,,,,,,,,,,,,0,0,0,112,,,,,0,1,1,1,,,,,,,,,,,,,,,,,,,,,,,,,,,,,,,,,,,,,,,,,,65.88113348900515,,,,,,,,,,,,,,,,,,,,,,,,,,,,,,,,,,,,,,,,,,,,,,,,,,,,,,,,,,,,,,,,,,,,,,,,,,,,,861543,001,2023-01-27_14h45.22.362,Info_measure_main_exp,2022.2.4,60.07313615592061,
0,131,5,5,2151,2211,absent_patch/patch0002151.jpg,absent_patch/patch0002211.jpg,masks/mask_003.jpg,,,,,,,,,,,,,0,0,0,112,,,,,0,2,2,2,,,,,,,,,,,,,,,,,,,,,,,,,,,,,,,,,,,,,,,,,,65.94423931599886,,,,,,,,,,,,,,,,,,,,,,,,,,,,,,,,,,,,,,,,,,,,,,,,,,,,,,,,,,,,,,,,,,,,,,,,,,,,,861543,001,2023-01-27_14h45.22.362,Info_measure_main_exp,2022.2.4,60.07313615592061,
0,131,5,5,2151,2211,absent_patch/patch0002151.jpg,absent_patch/patch0002211.jpg,masks/mask_005.jpg,,,,,,,,,,,,,0,0,0,112,,,,,0,3,3,4,,,,,,,,,,,,,,,,,,,,,,,,,,,,,,,,,,,,,,,,,,66.00500114299939,,,,,,,,,,,,,,,,,,,,,,,,,,,,,,,,,,,,,,,,,,,,,,,,,,,,,,,,,,,,,,,,,,,,,,,,,,,,,861543,001,2023-01-27_14h45.22.362,Info_measure_main_exp,2022.2.4,60.07313615592061,
0,131,5,5,2151,2211,absent_patch/patch0002151.jpg,absent_patch/patch0002211.jpg,masks/mask_001.jpg,,,,,,,,,,,,,0,0,0,112,,,,,0,4,4,0,,,,,,,,,,,,,,,,,,,,,,,,,,,,,,,,,,,,,,,,,,66.07129693499883,,,,,,,,,,,,,,,,,,,,,,,,,,,,,,,,,,,,,,,,,,,,,,,,,,,,,,,,,,,,,,,,,,,,,,,,,,,,,861543,001,2023-01-27_14h45.22.362,Info_measure_main_exp,2022.2.4,60.07313615592061,
0,131,5,5,2151,2211,absent_patch/patch0002151.jpg,absent_patch/patch0002211.jpg,,,,,,,,,,,,,,0,0,0,112,,,,,,,,,,,,,,,,,,,,,,,,,,,,,,,,,,,,,,,,,,,,,,,,,,,,,,,,,,,,,,,,,,6,1.8858832269906998,1,,,,,,,,,,,,,,,,,,,,,,,,,,,,,,,,,,,,0.01669945400499273,66.13426684800652,66.13426684800652,66.13426684800652,66.13426684800652,0.37777777777777777,0.08333333333333333,1,0,0,response1disk,1,0.03184472900466062,68.05597616700106,68.05597616700106,68.05597616700106,68.05597616700106,0.011111111111111112,-0.005555555555555556,1,0,0,center_square,861543,001,2023-01-27_14h45.22.362,Info_measure_main_exp,2022.2.4,60.07313615592061,
0,131,5,5,2247,2175,absent_patch/patch0002247.jpg,absent_patch/patch0002175.jpg,masks/mask_001.jpg,,,,,,,,,,,,,0,1,1,14,0,0,0,0,,,,,,,,,,,,,,,,,,,,,,,,,,,,,,,,,,,,,,,,,,,,,,69.44764493800176,,,,,,,,,,,,,,,,,,,,,,,,,,,,,,,,,,,,,,,,,,,,,,68.76570551299665,69.26132106600562,69.41253054000845,69.44764493800176,,,,,,,,,,,,,,,,,,,,,,,,,,,,861543,001,2023-01-27_14h45.22.362,Info_measure_main_exp,2022.2.4,60.07313615592061,
0,131,5,5,2247,2175,absent_patch/patch0002247.jpg,absent_patch/patch0002175.jpg,masks/mask_004.jpg,,,,,,,,,,,,,0,1,1,14,0,1,1,3,,,,,,,,,,,,,,,,,,,,,,,,,,,,,,,,,,,,,,,,,,,,,,69.50559999899997,,,,,,,,,,,,,,,,,,,,,,,,,,,,,,,,,,,,,,,,,,,,,,,,,,,,,,,,,,,,,,,,,,,,,,,,,,,,,861543,001,2023-01-27_14h45.22.362,Info_measure_main_exp,2022.2.4,60.07313615592061,
0,131,5,5,2247,2175,absent_patch/patch0002247.jpg,absent_patch/patch0002175.jpg,masks/mask_003.jpg,,,,,,,,,,,,,0,1,1,14,0,2,2,2,,,,,,,,,,,,,,,,,,,,,,,,,,,,,,,,,,,,,,,,,,,,,,69.55942553700879,,,,,,,,,,,,,,,,,,,,,,,,,,,,,,,,,,,,,,,,,,,,,,,,,,,,,,,,,,,,,,,,,,,,,,,,,,,,,861543,001,2023-01-27_14h45.22.362,Info_measure_main_exp,2022.2.4,60.07313615592061,
0,131,5,5,2247,2175,absent_patch/patch0002247.jpg,absent_patch/patch0002175.jpg,masks/mask_002.jpg,,,,,,,,,,,,,0,1,1,14,0,3,3,1,,,,,,,,,,,,,,,,,,,,,,,,,,,,,,,,,,,,,,,,,,,,,,69.6335467260069,,,,,,,,,,,,,,,,,,,,,,,,,,,,,,,,,,,,,,,,,,,,,,,,,,,,,,,,,,,,,,,,,,,,,,,,,,,,,861543,001,2023-01-27_14h45.22.362,Info_measure_main_exp,2022.2.4,60.07313615592061,
0,131,5,5,2247,2175,absent_patch/patch0002247.jpg,absent_patch/patch0002175.jpg,masks/mask_005.jpg,,,,,,,,,,,,,0,1,1,14,0,4,4,4,,,,,,,,,,,,,,,,,,,,,,,,,,,,,,,,,,,,,,,,,,,,,,69.69390555100108,,,,,,,,,,,,,,,,,,,,,,,,,,,,,,,,,,,,,,,,,,,,,,,,,,,,,,,,,,,,,,,,,,,,,,,,,,,,,861543,001,2023-01-27_14h45.22.362,Info_measure_main_exp,2022.2.4,60.07313615592061,
0,131,5,5,2247,2175,absent_patch/patch0002247.jpg,absent_patch/patch0002175.jpg,masks/mask_001.jpg,,,,,,,,,,,,,0,1,1,14,,,,,0,0,0,0,,,,,,,,,,,,,,,,,,,,,,,,,,,,,,,,,,,,,,,,,,70.41131609999866,,,,,,,,,,,,,,,,,,,,,,,,,,,,,,,,,,,,,,,,,,,,,,,,,,69.73037588100124,70.2169853880041,70.36949030500546,70.41131609999866,,,,,,,,,,,,,,,,,,,,,,,,861543,001,2023-01-27_14h45.22.362,Info_measure_main_exp,2022.2.4,60.07313615592061,
0,131,5,5,2247,2175,absent_patch/patch0002247.jpg,absent_patch/patch0002175.jpg,masks/mask_003.jpg,,,,,,,,,,,,,0,1,1,14,,,,,0,1,1,2,,,,,,,,,,,,,,,,,,,,,,,,,,,,,,,,,,,,,,,,,,70.47398656200676,,,,,,,,,,,,,,,,,,,,,,,,,,,,,,,,,,,,,,,,,,,,,,,,,,,,,,,,,,,,,,,,,,,,,,,,,,,,,861543,001,2023-01-27_14h45.22.362,Info_measure_main_exp,2022.2.4,60.07313615592061,
0,131,5,5,2247,2175,absent_patch/patch0002247.jpg,absent_patch/patch0002175.jpg,masks/mask_004.jpg,,,,,,,,,,,,,0,1,1,14,,,,,0,2,2,3,,,,,,,,,,,,,,,,,,,,,,,,,,,,,,,,,,,,,,,,,,70.53212584099674,,,,,,,,,,,,,,,,,,,,,,,,,,,,,,,,,,,,,,,,,,,,,,,,,,,,,,,,,,,,,,,,,,,,,,,,,,,,,861543,001,2023-01-27_14h45.22.362,Info_measure_main_exp,2022.2.4,60.07313615592061,
0,131,5,5,2247,2175,absent_patch/patch0002247.jpg,absent_patch/patch0002175.jpg,masks/mask_005.jpg,,,,,,,,,,,,,0,1,1,14,,,,,0,3,3,4,,,,,,,,,,,,,,,,,,,,,,,,,,,,,,,,,,,,,,,,,,70.59856941300677,,,,,,,,,,,,,,,,,,,,,,,,,,,,,,,,,,,,,,,,,,,,,,,,,,,,,,,,,,,,,,,,,,,,,,,,,,,,,861543,001,2023-01-27_14h45.22.362,Info_measure_main_exp,2022.2.4,60.07313615592061,
0,131,5,5,2247,2175,absent_patch/patch0002247.jpg,absent_patch/patch0002175.jpg,masks/mask_002.jpg,,,,,,,,,,,,,0,1,1,14,,,,,0,4,4,1,,,,,,,,,,,,,,,,,,,,,,,,,,,,,,,,,,,,,,,,,,70.63623603800079,,,,,,,,,,,,,,,,,,,,,,,,,,,,,,,,,,,,,,,,,,,,,,,,,,,,,,,,,,,,,,,,,,,,,,,,,,,,,861543,001,2023-01-27_14h45.22.362,Info_measure_main_exp,2022.2.4,60.07313615592061,
0,131,5,5,2247,2175,absent_patch/patch0002247.jpg,absent_patch/patch0002175.jpg,,,,,,,,,,,,,,0,1,1,14,,,,,,,,,,,,,,,,,,,,,,,,,,,,,,,,,,,,,,,,,,,,,,,,,,,,,,,,,,,,,,,,,,6,9.590712025994435,1,,,,,,,,,,,,,,,,,,,,,,,,,,,,,,,,,,,,0.013402686003246345,70.7052156310092,70.7052156310092,70.7052156310092,70.7052156310092,0.18777777777777777,0.10444444444444445,1,0,0,response1disk,2,0.010643222005455755,80.3101751790091,80.3101751790091,80.3101751790091,80.3101751790091,0.006666666666666667,0.015555555555555555,1,0,0,center_square,861543,001,2023-01-27_14h45.22.362,Info_measure_main_exp,2022.2.4,60.07313615592061,
0,131,5,5,2283,2151,absent_patch/patch0002283.jpg,absent_patch/patch0002151.jpg,masks/mask_001.jpg,,,,,,,,,,,,,0,2,2,111,0,0,0,0,,,,,,,,,,,,,,,,,,,,,,,,,,,,,,,,,,,,,,,,,,,,,,81.98296916700201,,,,,,,,,,,,,,,,,,,,,,,,,,,,,,,,,,,,,,,,,,,,,,81.28868841200892,81.77116551100335,81.93483144600759,81.98296916700201,,,,,,,,,,,,,,,,,,,,,,,,,,,,861543,001,2023-01-27_14h45.22.362,Info_measure_main_exp,2022.2.4,60.07313615592061,
0,131,5,5,2283,2151,absent_patch/patch0002283.jpg,absent_patch/patch0002151.jpg,masks/mask_005.jpg,,,,,,,,,,,,,0,2,2,111,0,1,1,4,,,,,,,,,,,,,,,,,,,,,,,,,,,,,,,,,,,,,,,,,,,,,,82.02630579599645,,,,,,,,,,,,,,,,,,,,,,,,,,,,,,,,,,,,,,,,,,,,,,,,,,,,,,,,,,,,,,,,,,,,,,,,,,,,,861543,001,2023-01-27_14h45.22.362,Info_measure_main_exp,2022.2.4,60.07313615592061,
0,131,5,5,2283,2151,absent_patch/patch0002283.jpg,absent_patch/patch0002151.jpg,masks/mask_004.jpg,,,,,,,,,,,,,0,2,2,111,0,2,2,3,,,,,,,,,,,,,,,,,,,,,,,,,,,,,,,,,,,,,,,,,,,,,,82.09096097199654,,,,,,,,,,,,,,,,,,,,,,,,,,,,,,,,,,,,,,,,,,,,,,,,,,,,,,,,,,,,,,,,,,,,,,,,,,,,,861543,001,2023-01-27_14h45.22.362,Info_measure_main_exp,2022.2.4,60.07313615592061,
0,131,5,5,2283,2151,absent_patch/patch0002283.jpg,absent_patch/patch0002151.jpg,masks/mask_002.jpg,,,,,,,,,,,,,0,2,2,111,0,3,3,1,,,,,,,,,,,,,,,,,,,,,,,,,,,,,,,,,,,,,,,,,,,,,,82.1555467450089,,,,,,,,,,,,,,,,,,,,,,,,,,,,,,,,,,,,,,,,,,,,,,,,,,,,,,,,,,,,,,,,,,,,,,,,,,,,,861543,001,2023-01-27_14h45.22.362,Info_measure_main_exp,2022.2.4,60.07313615592061,
0,131,5,5,2283,2151,absent_patch/patch0002283.jpg,absent_patch/patch0002151.jpg,masks/mask_003.jpg,,,,,,,,,,,,,0,2,2,111,0,4,4,2,,,,,,,,,,,,,,,,,,,,,,,,,,,,,,,,,,,,,,,,,,,,,,82.2211713430006,,,,,,,,,,,,,,,,,,,,,,,,,,,,,,,,,,,,,,,,,,,,,,,,,,,,,,,,,,,,,,,,,,,,,,,,,,,,,861543,001,2023-01-27_14h45.22.362,Info_measure_main_exp,2022.2.4,60.07313615592061,
0,131,5,5,2283,2151,absent_patch/patch0002283.jpg,absent_patch/patch0002151.jpg,masks/mask_002.jpg,,,,,,,,,,,,,0,2,2,111,,,,,0,0,0,1,,,,,,,,,,,,,,,,,,,,,,,,,,,,,,,,,,,,,,,,,,82.9407942329999,,,,,,,,,,,,,,,,,,,,,,,,,,,,,,,,,,,,,,,,,,,,,,,,,,82.26022136300162,82.73797085300612,82.886547978007,82.9407942329999,,,,,,,,,,,,,,,,,,,,,,,,861543,001,2023-01-27_14h45.22.362,Info_measure_main_exp,2022.2.4,60.07313615592061,
0,131,5,5,2283,2151,absent_patch/patch0002283.jpg,absent_patch/patch0002151.jpg,masks/mask_001.jpg,,,,,,,,,,,,,0,2,2,111,,,,,0,1,1,0,,,,,,,,,,,,,,,,,,,,,,,,,,,,,,,,,,,,,,,,,,82.99860201800766,,,,,,,,,,,,,,,,,,,,,,,,,,,,,,,,,,,,,,,,,,,,,,,,,,,,,,,,,,,,,,,,,,,,,,,,,,,,,861543,001,2023-01-27_14h45.22.362,Info_measure_main_exp,2022.2.4,60.07313615592061,
0,131,5,5,2283,2151,absent_patch/patch0002283.jpg,absent_patch/patch0002151.jpg,masks/mask_005.jpg,,,,,,,,,,,,,0,2,2,111,,,,,0,2,2,4,,,,,,,,,,,,,,,,,,,,,,,,,,,,,,,,,,,,,,,,,,83.05040376800753,,,,,,,,,,,,,,,,,,,,,,,,,,,,,,,,,,,,,,,,,,,,,,,,,,,,,,,,,,,,,,,,,,,,,,,,,,,,,861543,001,2023-01-27_14h45.22.362,Info_measure_main_exp,2022.2.4,60.07313615592061,
0,131,5,5,2283,2151,absent_patch/patch0002283.jpg,absent_patch/patch0002151.jpg,masks/mask_004.jpg,,,,,,,,,,,,,0,2,2,111,,,,,0,3,3,3,,,,,,,,,,,,,,,,,,,,,,,,,,,,,,,,,,,,,,,,,,83.10951226600446,,,,,,,,,,,,,,,,,,,,,,,,,,,,,,,,,,,,,,,,,,,,,,,,,,,,,,,,,,,,,,,,,,,,,,,,,,,,,861543,001,2023-01-27_14h45.22.362,Info_measure_main_exp,2022.2.4,60.07313615592061,
0,131,5,5,2283,2151,absent_patch/patch0002283.jpg,absent_patch/patch0002151.jpg,masks/mask_003.jpg,,,,,,,,,,,,,0,2,2,111,,,,,0,4,4,2,,,,,,,,,,,,,,,,,,,,,,,,,,,,,,,,,,,,,,,,,,83.18584103000467,,,,,,,,,,,,,,,,,,,,,,,,,,,,,,,,,,,,,,,,,,,,,,,,,,,,,,,,,,,,,,,,,,,,,,,,,,,,,861543,001,2023-01-27_14h45.22.362,Info_measure_main_exp,2022.2.4,60.07313615592061,
0,131,5,5,2283,2151,absent_patch/patch0002283.jpg,absent_patch/patch0002151.jpg,,,,,,,,,,,,,,0,2,2,111,,,,,,,,,,,,,,,,,,,,,,,,,,,,,,,,,,,,,,,,,,,,,,,,,,,,,,,,,,,,,,,,,,7,0.9830494019988691,1,,,,,,,,,,,,,,,,,,,,,,,,,,,,,,,,,,,,0.016333318009856157,83.2421613339975,83.2421613339975,83.2421613339975,83.2421613339975,0.09111111111111111,0.20333333333333334,1,0,0,response1disk,3,0.012239540010341443,84.23887609799567,84.23887609799567,84.23887609799567,84.23887609799567,0.005555555555555556,0.017777777777777778,1,0,0,center_square,861543,001,2023-01-27_14h45.22.362,Info_measure_main_exp,2022.2.4,60.07313615592061,
0,131,5,5,2223,1995,absent_patch/patch0002223.jpg,absent_patch/patch0001995.jpg,masks/mask_003.jpg,,,,,,,,,,,,,0,3,3,4,0,0,0,2,,,,,,,,,,,,,,,,,,,,,,,,,,,,,,,,,,,,,,,,,,,,,,85.4763499719993,,,,,,,,,,,,,,,,,,,,,,,,,,,,,,,,,,,,,,,,,,,,,,84.78273241799616,85.28329227400536,85.4763499719993,85.4763499719993,,,,,,,,,,,,,,,,,,,,,,,,,,,,861543,001,2023-01-27_14h45.22.362,Info_measure_main_exp,2022.2.4,60.07313615592061,
0,131,5,5,2223,1995,absent_patch/patch0002223.jpg,absent_patch/patch0001995.jpg,masks/mask_005.jpg,,,,,,,,,,,,,0,3,3,4,0,1,1,4,,,,,,,,,,,,,,,,,,,,,,,,,,,,,,,,,,,,,,,,,,,,,,85.52471732500999,,,,,,,,,,,,,,,,,,,,,,,,,,,,,,,,,,,,,,,,,,,,,,,,,,,,,,,,,,,,,,,,,,,,,,,,,,,,,861543,001,2023-01-27_14h45.22.362,Info_measure_main_exp,2022.2.4,60.07313615592061,
0,131,5,5,2223,1995,absent_patch/patch0002223.jpg,absent_patch/patch0001995.jpg,masks/mask_001.jpg,,,,,,,,,,,,,0,3,3,4,0,2,2,0,,,,,,,,,,,,,,,,,,,,,,,,,,,,,,,,,,,,,,,,,,,,,,85.58861335300026,,,,,,,,,,,,,,,,,,,,,,,,,,,,,,,,,,,,,,,,,,,,,,,,,,,,,,,,,,,,,,,,,,,,,,,,,,,,,861543,001,2023-01-27_14h45.22.362,Info_measure_main_exp,2022.2.4,60.07313615592061,
0,131,5,5,2223,1995,absent_patch/patch0002223.jpg,absent_patch/patch0001995.jpg,masks/mask_002.jpg,,,,,,,,,,,,,0,3,3,4,0,3,3,1,,,,,,,,,,,,,,,,,,,,,,,,,,,,,,,,,,,,,,,,,,,,,,85.64967602099932,,,,,,,,,,,,,,,,,,,,,,,,,,,,,,,,,,,,,,,,,,,,,,,,,,,,,,,,,,,,,,,,,,,,,,,,,,,,,861543,001,2023-01-27_14h45.22.362,Info_measure_main_exp,2022.2.4,60.07313615592061,
0,131,5,5,2223,1995,absent_patch/patch0002223.jpg,absent_patch/patch0001995.jpg,masks/mask_004.jpg,,,,,,,,,,,,,0,3,3,4,0,4,4,3,,,,,,,,,,,,,,,,,,,,,,,,,,,,,,,,,,,,,,,,,,,,,,85.70939945000282,,,,,,,,,,,,,,,,,,,,,,,,,,,,,,,,,,,,,,,,,,,,,,,,,,,,,,,,,,,,,,,,,,,,,,,,,,,,,861543,001,2023-01-27_14h45.22.362,Info_measure_main_exp,2022.2.4,60.07313615592061,
0,131,5,5,2223,1995,absent_patch/patch0002223.jpg,absent_patch/patch0001995.jpg,masks/mask_005.jpg,,,,,,,,,,,,,0,3,3,4,,,,,0,0,0,4,,,,,,,,,,,,,,,,,,,,,,,,,,,,,,,,,,,,,,,,,,86.438106925998,,,,,,,,,,,,,,,,,,,,,,,,,,,,,,,,,,,,,,,,,,,,,,,,,,85.76115743700939,86.23489393699856,86.40080205500999,86.438106925998,,,,,,,,,,,,,,,,,,,,,,,,861543,001,2023-01-27_14h45.22.362,Info_measure_main_exp,2022.2.4,60.07313615592061,
0,131,5,5,2223,1995,absent_patch/patch0002223.jpg,absent_patch/patch0001995.jpg,masks/mask_003.jpg,,,,,,,,,,,,,0,3,3,4,,,,,0,1,1,2,,,,,,,,,,,,,,,,,,,,,,,,,,,,,,,,,,,,,,,,,,86.4956406459969,,,,,,,,,,,,,,,,,,,,,,,,,,,,,,,,,,,,,,,,,,,,,,,,,,,,,,,,,,,,,,,,,,,,,,,,,,,,,861543,001,2023-01-27_14h45.22.362,Info_measure_main_exp,2022.2.4,60.07313615592061,
0,131,5,5,2223,1995,absent_patch/patch0002223.jpg,absent_patch/patch0001995.jpg,masks/mask_002.jpg,,,,,,,,,,,,,0,3,3,4,,,,,0,2,2,1,,,,,,,,,,,,,,,,,,,,,,,,,,,,,,,,,,,,,,,,,,86.55460289900657,,,,,,,,,,,,,,,,,,,,,,,,,,,,,,,,,,,,,,,,,,,,,,,,,,,,,,,,,,,,,,,,,,,,,,,,,,,,,861543,001,2023-01-27_14h45.22.362,Info_measure_main_exp,2022.2.4,60.07313615592061,
0,131,5,5,2223,1995,absent_patch/patch0002223.jpg,absent_patch/patch0001995.jpg,masks/mask_001.jpg,,,,,,,,,,,,,0,3,3,4,,,,,0,3,3,0,,,,,,,,,,,,,,,,,,,,,,,,,,,,,,,,,,,,,,,,,,86.61239181000565,,,,,,,,,,,,,,,,,,,,,,,,,,,,,,,,,,,,,,,,,,,,,,,,,,,,,,,,,,,,,,,,,,,,,,,,,,,,,861543,001,2023-01-27_14h45.22.362,Info_measure_main_exp,2022.2.4,60.07313615592061,
0,131,5,5,2223,1995,absent_patch/patch0002223.jpg,absent_patch/patch0001995.jpg,masks/mask_004.jpg,,,,,,,,,,,,,0,3,3,4,,,,,0,4,4,3,,,,,,,,,,,,,,,,,,,,,,,,,,,,,,,,,,,,,,,,,,86.6735238149995,,,,,,,,,,,,,,,,,,,,,,,,,,,,,,,,,,,,,,,,,,,,,,,,,,,,,,,,,,,,,,,,,,,,,,,,,,,,,861543,001,2023-01-27_14h45.22.362,Info_measure_main_exp,2022.2.4,60.07313615592061,
0,131,5,5,2223,1995,absent_patch/patch0002223.jpg,absent_patch/patch0001995.jpg,,,,,,,,,,,,,,0,3,3,4,,,,,,,,,,,,,,,,,,,,,,,,,,,,,,,,,,,,,,,,,,,,,,,,,,,,,,,,,,,,,,,,,,7,0.863593273999868,1,,,,,,,,,,,,,,,,,,,,,,,,,,,,,,,,,,,,0.008010022007510997,86.73163623800792,86.73163623800792,86.73163623800792,86.73163623800792,0.08888888888888889,0.24888888888888888,1,0,0,response1disk,4,0.0106930539914174,87.60745799299912,87.60745799299912,87.60745799299912,87.60745799299912,0.0,-0.005555555555555556,1,0,0,center_square,861543,001,2023-01-27_14h45.22.362,Info_measure_main_exp,2022.2.4,60.07313615592061,
0,131,5,5,2211,2283,absent_patch/patch0002211.jpg,absent_patch/patch0002283.jpg,masks/mask_003.jpg,,,,,,,,,,,,,0,4,4,6,0,0,0,2,,,,,,,,,,,,,,,,,,,,,,,,,,,,,,,,,,,,,,,,,,,,,,89.62357931700535,,,,,,,,,,,,,,,,,,,,,,,,,,,,,,,,,,,,,,,,,,,,,,88.94893569100532,89.43225471299957,89.58192546400824,89.62357931700535,,,,,,,,,,,,,,,,,,,,,,,,,,,,861543,001,2023-01-27_14h45.22.362,Info_measure_main_exp,2022.2.4,60.07313615592061,
0,131,5,5,2211,2283,absent_patch/patch0002211.jpg,absent_patch/patch0002283.jpg,masks/mask_004.jpg,,,,,,,,,,,,,0,4,4,6,0,1,1,3,,,,,,,,,,,,,,,,,,,,,,,,,,,,,,,,,,,,,,,,,,,,,,89.68117617300595,,,,,,,,,,,,,,,,,,,,,,,,,,,,,,,,,,,,,,,,,,,,,,,,,,,,,,,,,,,,,,,,,,,,,,,,,,,,,861543,001,2023-01-27_14h45.22.362,Info_measure_main_exp,2022.2.4,60.07313615592061,
0,131,5,5,2211,2283,absent_patch/patch0002211.jpg,absent_patch/patch0002283.jpg,masks/mask_002.jpg,,,,,,,,,,,,,0,4,4,6,0,2,2,1,,,,,,,,,,,,,,,,,,,,,,,,,,,,,,,,,,,,,,,,,,,,,,89.73808034000103,,,,,,,,,,,,,,,,,,,,,,,,,,,,,,,,,,,,,,,,,,,,,,,,,,,,,,,,,,,,,,,,,,,,,,,,,,,,,861543,001,2023-01-27_14h45.22.362,Info_measure_main_exp,2022.2.4,60.07313615592061,
0,131,5,5,2211,2283,absent_patch/patch0002211.jpg,absent_patch/patch0002283.jpg,masks/mask_005.jpg,,,,,,,,,,,,,0,4,4,6,0,3,3,4,,,,,,,,,,,,,,,,,,,,,,,,,,,,,,,,,,,,,,,,,,,,,,89.79582961600681,,,,,,,,,,,,,,,,,,,,,,,,,,,,,,,,,,,,,,,,,,,,,,,,,,,,,,,,,,,,,,,,,,,,,,,,,,,,,861543,001,2023-01-27_14h45.22.362,Info_measure_main_exp,2022.2.4,60.07313615592061,
0,131,5,5,2211,2283,absent_patch/patch0002211.jpg,absent_patch/patch0002283.jpg,masks/mask_001.jpg,,,,,,,,,,,,,0,4,4,6,0,4,4,0,,,,,,,,,,,,,,,,,,,,,,,,,,,,,,,,,,,,,,,,,,,,,,89.85438155200973,,,,,,,,,,,,,,,,,,,,,,,,,,,,,,,,,,,,,,,,,,,,,,,,,,,,,,,,,,,,,,,,,,,,,,,,,,,,,861543,001,2023-01-27_14h45.22.362,Info_measure_main_exp,2022.2.4,60.07313615592061,
0,131,5,5,2211,2283,absent_patch/patch0002211.jpg,absent_patch/patch0002283.jpg,masks/mask_002.jpg,,,,,,,,,,,,,0,4,4,6,,,,,0,0,0,1,,,,,,,,,,,,,,,,,,,,,,,,,,,,,,,,,,,,,,,,,,90.58987572899787,,,,,,,,,,,,,,,,,,,,,,,,,,,,,,,,,,,,,,,,,,,,,,,,,,89.90536200400675,90.39737537500332,90.54929273000744,90.58987572899787,,,,,,,,,,,,,,,,,,,,,,,,861543,001,2023-01-27_14h45.22.362,Info_measure_main_exp,2022.2.4,60.07313615592061,
0,131,5,5,2211,2283,absent_patch/patch0002211.jpg,absent_patch/patch0002283.jpg,masks/mask_005.jpg,,,,,,,,,,,,,0,4,4,6,,,,,0,1,1,4,,,,,,,,,,,,,,,,,,,,,,,,,,,,,,,,,,,,,,,,,,90.64758502499899,,,,,,,,,,,,,,,,,,,,,,,,,,,,,,,,,,,,,,,,,,,,,,,,,,,,,,,,,,,,,,,,,,,,,,,,,,,,,861543,001,2023-01-27_14h45.22.362,Info_measure_main_exp,2022.2.4,60.07313615592061,
0,131,5,5,2211,2283,absent_patch/patch0002211.jpg,absent_patch/patch0002283.jpg,masks/mask_003.jpg,,,,,,,,,,,,,0,4,4,6,,,,,0,2,2,2,,,,,,,,,,,,,,,,,,,,,,,,,,,,,,,,,,,,,,,,,,90.70760317600798,,,,,,,,,,,,,,,,,,,,,,,,,,,,,,,,,,,,,,,,,,,,,,,,,,,,,,,,,,,,,,,,,,,,,,,,,,,,,861543,001,2023-01-27_14h45.22.362,Info_measure_main_exp,2022.2.4,60.07313615592061,
0,131,5,5,2211,2283,absent_patch/patch0002211.jpg,absent_patch/patch0002283.jpg,masks/mask_004.jpg,,,,,,,,,,,,,0,4,4,6,,,,,0,3,3,3,,,,,,,,,,,,,,,,,,,,,,,,,,,,,,,,,,,,,,,,,,90.76622884000244,,,,,,,,,,,,,,,,,,,,,,,,,,,,,,,,,,,,,,,,,,,,,,,,,,,,,,,,,,,,,,,,,,,,,,,,,,,,,861543,001,2023-01-27_14h45.22.362,Info_measure_main_exp,2022.2.4,60.07313615592061,
0,131,5,5,2211,2283,absent_patch/patch0002211.jpg,absent_patch/patch0002283.jpg,masks/mask_001.jpg,,,,,,,,,,,,,0,4,4,6,,,,,0,4,4,0,,,,,,,,,,,,,,,,,,,,,,,,,,,,,,,,,,,,,,,,,,90.82480817500618,,,,,,,,,,,,,,,,,,,,,,,,,,,,,,,,,,,,,,,,,,,,,,,,,,,,,,,,,,,,,,,,,,,,,,,,,,,,,861543,001,2023-01-27_14h45.22.362,Info_measure_main_exp,2022.2.4,60.07313615592061,
0,131,5,5,2211,2283,absent_patch/patch0002211.jpg,absent_patch/patch0002283.jpg,,,,,,,,,,,,,,0,4,4,6,,,,,,,,,,,,,,,,,,,,,,,,,,,,,,,,,,,,,,,,,,,,,,,,,,,,,,,,,,,,,,,,,,6,1.0312426699965727,1,,,,,,,,,,,,,,,,,,,,,,,,,,,,,,,,,,,,0.008638182014692575,90.88115713199659,90.88115713199659,90.88115713199659,90.88115713199659,0.2966666666666667,0.14333333333333334,1,0,0,response1disk,5,0.01074973501090426,91.9240196019964,91.9240196019964,91.9240196019964,91.9240196019964,0.012222222222222223,-0.006666666666666667,1,0,0,center_square,861543,001,2023-01-27_14h45.22.362,Info_measure_main_exp,2022.2.4,60.07313615592061,
1,131,5,5,2223,1,absent_patch/patch0002223.jpg,present_patch/cong_131_3_a.jpg,masks/mask_002.jpg,,,,,,,,,,,,,0,5,5,53,0,0,0,1,,,,,,,,,,,,,,,,,,,,,,,,,,,,,,,,,,,,,,,,,,,,,,93.28605470201,,,,,,,,,,,,,,,,,,,,,,,,,,,,,,,,,,,,,,,,,,,,,,92.60319257200172,93.09923266500118,93.28605470201,93.28605470201,,,,,,,,,,,,,,,,,,,,,,,,,,,,861543,001,2023-01-27_14h45.22.362,Info_measure_main_exp,2022.2.4,60.07313615592061,
1,131,5,5,2223,1,absent_patch/patch0002223.jpg,present_patch/cong_131_3_a.jpg,masks/mask_004.jpg,,,,,,,,,,,,,0,5,5,53,0,1,1,3,,,,,,,,,,,,,,,,,,,,,,,,,,,,,,,,,,,,,,,,,,,,,,93.34642250899924,,,,,,,,,,,,,,,,,,,,,,,,,,,,,,,,,,,,,,,,,,,,,,,,,,,,,,,,,,,,,,,,,,,,,,,,,,,,,861543,001,2023-01-27_14h45.22.362,Info_measure_main_exp,2022.2.4,60.07313615592061,
1,131,5,5,2223,1,absent_patch/patch0002223.jpg,present_patch/cong_131_3_a.jpg,masks/mask_001.jpg,,,,,,,,,,,,,0,5,5,53,0,2,2,0,,,,,,,,,,,,,,,,,,,,,,,,,,,,,,,,,,,,,,,,,,,,,,93.40782123000827,,,,,,,,,,,,,,,,,,,,,,,,,,,,,,,,,,,,,,,,,,,,,,,,,,,,,,,,,,,,,,,,,,,,,,,,,,,,,861543,001,2023-01-27_14h45.22.362,Info_measure_main_exp,2022.2.4,60.07313615592061,
1,131,5,5,2223,1,absent_patch/patch0002223.jpg,present_patch/cong_131_3_a.jpg,masks/mask_005.jpg,,,,,,,,,,,,,0,5,5,53,0,3,3,4,,,,,,,,,,,,,,,,,,,,,,,,,,,,,,,,,,,,,,,,,,,,,,93.46797776399762,,,,,,,,,,,,,,,,,,,,,,,,,,,,,,,,,,,,,,,,,,,,,,,,,,,,,,,,,,,,,,,,,,,,,,,,,,,,,861543,001,2023-01-27_14h45.22.362,Info_measure_main_exp,2022.2.4,60.07313615592061,
1,131,5,5,2223,1,absent_patch/patch0002223.jpg,present_patch/cong_131_3_a.jpg,masks/mask_003.jpg,,,,,,,,,,,,,0,5,5,53,0,4,4,2,,,,,,,,,,,,,,,,,,,,,,,,,,,,,,,,,,,,,,,,,,,,,,93.52751598700706,,,,,,,,,,,,,,,,,,,,,,,,,,,,,,,,,,,,,,,,,,,,,,,,,,,,,,,,,,,,,,,,,,,,,,,,,,,,,861543,001,2023-01-27_14h45.22.362,Info_measure_main_exp,2022.2.4,60.07313615592061,
1,131,5,5,2223,1,absent_patch/patch0002223.jpg,present_patch/cong_131_3_a.jpg,masks/mask_003.jpg,,,,,,,,,,,,,0,5,5,53,,,,,0,0,0,2,,,,,,,,,,,,,,,,,,,,,,,,,,,,,,,,,,,,,,,,,,94.27184818200476,,,,,,,,,,,,,,,,,,,,,,,,,,,,,,,,,,,,,,,,,,,,,,,,,,93.57951191499887,94.06440940100583,94.22548783299862,94.27184818200476,,,,,,,,,,,,,,,,,,,,,,,,861543,001,2023-01-27_14h45.22.362,Info_measure_main_exp,2022.2.4,60.07313615592061,
1,131,5,5,2223,1,absent_patch/patch0002223.jpg,present_patch/cong_131_3_a.jpg,masks/mask_002.jpg,,,,,,,,,,,,,0,5,5,53,,,,,0,1,1,1,,,,,,,,,,,,,,,,,,,,,,,,,,,,,,,,,,,,,,,,,,94.32042072700278,,,,,,,,,,,,,,,,,,,,,,,,,,,,,,,,,,,,,,,,,,,,,,,,,,,,,,,,,,,,,,,,,,,,,,,,,,,,,861543,001,2023-01-27_14h45.22.362,Info_measure_main_exp,2022.2.4,60.07313615592061,
1,131,5,5,2223,1,absent_patch/patch0002223.jpg,present_patch/cong_131_3_a.jpg,masks/mask_005.jpg,,,,,,,,,,,,,0,5,5,53,,,,,0,2,2,4,,,,,,,,,,,,,,,,,,,,,,,,,,,,,,,,,,,,,,,,,,94.38526837600511,,,,,,,,,,,,,,,,,,,,,,,,,,,,,,,,,,,,,,,,,,,,,,,,,,,,,,,,,,,,,,,,,,,,,,,,,,,,,861543,001,2023-01-27_14h45.22.362,Info_measure_main_exp,2022.2.4,60.07313615592061,
1,131,5,5,2223,1,absent_patch/patch0002223.jpg,present_patch/cong_131_3_a.jpg,masks/mask_001.jpg,,,,,,,,,,,,,0,5,5,53,,,,,0,3,3,0,,,,,,,,,,,,,,,,,,,,,,,,,,,,,,,,,,,,,,,,,,94.45074428900261,,,,,,,,,,,,,,,,,,,,,,,,,,,,,,,,,,,,,,,,,,,,,,,,,,,,,,,,,,,,,,,,,,,,,,,,,,,,,861543,001,2023-01-27_14h45.22.362,Info_measure_main_exp,2022.2.4,60.07313615592061,
1,131,5,5,2223,1,absent_patch/patch0002223.jpg,present_patch/cong_131_3_a.jpg,masks/mask_004.jpg,,,,,,,,,,,,,0,5,5,53,,,,,0,4,4,3,,,,,,,,,,,,,,,,,,,,,,,,,,,,,,,,,,,,,,,,,,94.52102417399874,,,,,,,,,,,,,,,,,,,,,,,,,,,,,,,,,,,,,,,,,,,,,,,,,,,,,,,,,,,,,,,,,,,,,,,,,,,,,861543,001,2023-01-27_14h45.22.362,Info_measure_main_exp,2022.2.4,60.07313615592061,
1,131,5,5,2223,1,absent_patch/patch0002223.jpg,present_patch/cong_131_3_a.jpg,,,,,,,,,,,,,,0,5,5,53,,,,,,,,,,,,,,,,,,,,,,,,,,,,,,,,,,,,,,,,,,,,,,,,,,,,,,,,,,,,,,,,,,6,2.8380093480081996,1,,,,,,,,,,,,,,,,,,,,,,,,,,,,,,,,,,,,0.012557240013848059,94.56225535999693,94.56225535999693,94.56225535999693,94.56225535999693,0.2388888888888889,0.04888888888888889,1,0,0,response1disk,6,0.015201425005216151,97.41911810099555,97.41911810099555,97.41911810099555,97.41911810099555,-0.006666666666666667,0.02666666666666667,1,0,0,center_square,861543,001,2023-01-27_14h45.22.362,Info_measure_main_exp,2022.2.4,60.07313615592061,
0,131,5,5,2175,1947,absent_patch/patch0002175.jpg,absent_patch/patch0001947.jpg,masks/mask_004.jpg,,,,,,,,,,,,,0,6,6,102,0,0,0,3,,,,,,,,,,,,,,,,,,,,,,,,,,,,,,,,,,,,,,,,,,,,,,98.7850207540032,,,,,,,,,,,,,,,,,,,,,,,,,,,,,,,,,,,,,,,,,,,,,,98.090268208005,98.57394348199887,98.73353253799723,98.7850207540032,,,,,,,,,,,,,,,,,,,,,,,,,,,,861543,001,2023-01-27_14h45.22.362,Info_measure_main_exp,2022.2.4,60.07313615592061,
0,131,5,5,2175,1947,absent_patch/patch0002175.jpg,absent_patch/patch0001947.jpg,masks/mask_001.jpg,,,,,,,,,,,,,0,6,6,102,0,1,1,0,,,,,,,,,,,,,,,,,,,,,,,,,,,,,,,,,,,,,,,,,,,,,,98.83362946000125,,,,,,,,,,,,,,,,,,,,,,,,,,,,,,,,,,,,,,,,,,,,,,,,,,,,,,,,,,,,,,,,,,,,,,,,,,,,,861543,001,2023-01-27_14h45.22.362,Info_measure_main_exp,2022.2.4,60.07313615592061,
0,131,5,5,2175,1947,absent_patch/patch0002175.jpg,absent_patch/patch0001947.jpg,masks/mask_005.jpg,,,,,,,,,,,,,0,6,6,102,0,2,2,4,,,,,,,,,,,,,,,,,,,,,,,,,,,,,,,,,,,,,,,,,,,,,,98.89816415800306,,,,,,,,,,,,,,,,,,,,,,,,,,,,,,,,,,,,,,,,,,,,,,,,,,,,,,,,,,,,,,,,,,,,,,,,,,,,,861543,001,2023-01-27_14h45.22.362,Info_measure_main_exp,2022.2.4,60.07313615592061,
0,131,5,5,2175,1947,absent_patch/patch0002175.jpg,absent_patch/patch0001947.jpg,masks/mask_003.jpg,,,,,,,,,,,,,0,6,6,102,0,3,3,2,,,,,,,,,,,,,,,,,,,,,,,,,,,,,,,,,,,,,,,,,,,,,,98.94334085199807,,,,,,,,,,,,,,,,,,,,,,,,,,,,,,,,,,,,,,,,,,,,,,,,,,,,,,,,,,,,,,,,,,,,,,,,,,,,,861543,001,2023-01-27_14h45.22.362,Info_measure_main_exp,2022.2.4,60.07313615592061,
0,131,5,5,2175,1947,absent_patch/patch0002175.jpg,absent_patch/patch0001947.jpg,masks/mask_002.jpg,,,,,,,,,,,,,0,6,6,102,0,4,4,1,,,,,,,,,,,,,,,,,,,,,,,,,,,,,,,,,,,,,,,,,,,,,,99.00377510100952,,,,,,,,,,,,,,,,,,,,,,,,,,,,,,,,,,,,,,,,,,,,,,,,,,,,,,,,,,,,,,,,,,,,,,,,,,,,,861543,001,2023-01-27_14h45.22.362,Info_measure_main_exp,2022.2.4,60.07313615592061,
0,131,5,5,2175,1947,absent_patch/patch0002175.jpg,absent_patch/patch0001947.jpg,masks/mask_003.jpg,,,,,,,,,,,,,0,6,6,102,,,,,0,0,0,2,,,,,,,,,,,,,,,,,,,,,,,,,,,,,,,,,,,,,,,,,,99.73707035199914,,,,,,,,,,,,,,,,,,,,,,,,,,,,,,,,,,,,,,,,,,,,,,,,,,99.06071048800368,99.54994013500982,99.70088878300157,99.73707035199914,,,,,,,,,,,,,,,,,,,,,,,,861543,001,2023-01-27_14h45.22.362,Info_measure_main_exp,2022.2.4,60.07313615592061,
0,131,5,5,2175,1947,absent_patch/patch0002175.jpg,absent_patch/patch0001947.jpg,masks/mask_002.jpg,,,,,,,,,,,,,0,6,6,102,,,,,0,1,1,1,,,,,,,,,,,,,,,,,,,,,,,,,,,,,,,,,,,,,,,,,,99.79688784800237,,,,,,,,,,,,,,,,,,,,,,,,,,,,,,,,,,,,,,,,,,,,,,,,,,,,,,,,,,,,,,,,,,,,,,,,,,,,,861543,001,2023-01-27_14h45.22.362,Info_measure_main_exp,2022.2.4,60.07313615592061,
0,131,5,5,2175,1947,absent_patch/patch0002175.jpg,absent_patch/patch0001947.jpg,masks/mask_004.jpg,,,,,,,,,,,,,0,6,6,102,,,,,0,2,2,3,,,,,,,,,,,,,,,,,,,,,,,,,,,,,,,,,,,,,,,,,,99.85763829200005,,,,,,,,,,,,,,,,,,,,,,,,,,,,,,,,,,,,,,,,,,,,,,,,,,,,,,,,,,,,,,,,,,,,,,,,,,,,,861543,001,2023-01-27_14h45.22.362,Info_measure_main_exp,2022.2.4,60.07313615592061,
0,131,5,5,2175,1947,absent_patch/patch0002175.jpg,absent_patch/patch0001947.jpg,masks/mask_005.jpg,,,,,,,,,,,,,0,6,6,102,,,,,0,3,3,4,,,,,,,,,,,,,,,,,,,,,,,,,,,,,,,,,,,,,,,,,,99.91542638800456,,,,,,,,,,,,,,,,,,,,,,,,,,,,,,,,,,,,,,,,,,,,,,,,,,,,,,,,,,,,,,,,,,,,,,,,,,,,,861543,001,2023-01-27_14h45.22.362,Info_measure_main_exp,2022.2.4,60.07313615592061,
0,131,5,5,2175,1947,absent_patch/patch0002175.jpg,absent_patch/patch0001947.jpg,masks/mask_001.jpg,,,,,,,,,,,,,0,6,6,102,,,,,0,4,4,0,,,,,,,,,,,,,,,,,,,,,,,,,,,,,,,,,,,,,,,,,,99.97454383400327,,,,,,,,,,,,,,,,,,,,,,,,,,,,,,,,,,,,,,,,,,,,,,,,,,,,,,,,,,,,,,,,,,,,,,,,,,,,,861543,001,2023-01-27_14h45.22.362,Info_measure_main_exp,2022.2.4,60.07313615592061,
0,131,5,5,2175,1947,absent_patch/patch0002175.jpg,absent_patch/patch0001947.jpg,,,,,,,,,,,,,,0,6,6,102,,,,,,,,,,,,,,,,,,,,,,,,,,,,,,,,,,,,,,,,,,,,,,,,,,,,,,,,,,,,,,,,,,5,1.0530782989953877,1,,,,,,,,,,,,,,,,,,,,,,,,,,,,,,,,,,,,0.008618500010925345,100.03219080100826,100.03219080100826,100.03219080100826,100.03219080100826,0.22,-0.042222222222222223,1,0,0,response3disk,7,0.010858759997063316,101.09730853099609,101.09730853099609,101.09730853099609,101.09730853099609,-0.015555555555555555,-0.0077777777777777776,1,0,0,center_square,861543,001,2023-01-27_14h45.22.362,Info_measure_main_exp,2022.2.4,60.07313615592061,
1,131,5,5,2151,1,absent_patch/patch0002151.jpg,present_patch/cong_131_3_a.jpg,masks/mask_005.jpg,,,,,,,,,,,,,0,7,7,113,0,0,0,4,,,,,,,,,,,,,,,,,,,,,,,,,,,,,,,,,,,,,,,,,,,,,,102.36204955499852,,,,,,,,,,,,,,,,,,,,,,,,,,,,,,,,,,,,,,,,,,,,,,101.68457147800655,102.16830949200084,102.32164407700475,102.36204955499852,,,,,,,,,,,,,,,,,,,,,,,,,,,,861543,001,2023-01-27_14h45.22.362,Info_measure_main_exp,2022.2.4,60.07313615592061,
1,131,5,5,2151,1,absent_patch/patch0002151.jpg,present_patch/cong_131_3_a.jpg,masks/mask_003.jpg,,,,,,,,,,,,,0,7,7,113,0,1,1,2,,,,,,,,,,,,,,,,,,,,,,,,,,,,,,,,,,,,,,,,,,,,,,102.42303276000894,,,,,,,,,,,,,,,,,,,,,,,,,,,,,,,,,,,,,,,,,,,,,,,,,,,,,,,,,,,,,,,,,,,,,,,,,,,,,861543,001,2023-01-27_14h45.22.362,Info_measure_main_exp,2022.2.4,60.07313615592061,
1,131,5,5,2151,1,absent_patch/patch0002151.jpg,present_patch/cong_131_3_a.jpg,masks/mask_002.jpg,,,,,,,,,,,,,0,7,7,113,0,2,2,1,,,,,,,,,,,,,,,,,,,,,,,,,,,,,,,,,,,,,,,,,,,,,,102.48087622800085,,,,,,,,,,,,,,,,,,,,,,,,,,,,,,,,,,,,,,,,,,,,,,,,,,,,,,,,,,,,,,,,,,,,,,,,,,,,,861543,001,2023-01-27_14h45.22.362,Info_measure_main_exp,2022.2.4,60.07313615592061,
1,131,5,5,2151,1,absent_patch/patch0002151.jpg,present_patch/cong_131_3_a.jpg,masks/mask_004.jpg,,,,,,,,,,,,,0,7,7,113,0,3,3,3,,,,,,,,,,,,,,,,,,,,,,,,,,,,,,,,,,,,,,,,,,,,,,102.5408551540022,,,,,,,,,,,,,,,,,,,,,,,,,,,,,,,,,,,,,,,,,,,,,,,,,,,,,,,,,,,,,,,,,,,,,,,,,,,,,861543,001,2023-01-27_14h45.22.362,Info_measure_main_exp,2022.2.4,60.07313615592061,
1,131,5,5,2151,1,absent_patch/patch0002151.jpg,present_patch/cong_131_3_a.jpg,masks/mask_001.jpg,,,,,,,,,,,,,0,7,7,113,0,4,4,0,,,,,,,,,,,,,,,,,,,,,,,,,,,,,,,,,,,,,,,,,,,,,,102.60011369100539,,,,,,,,,,,,,,,,,,,,,,,,,,,,,,,,,,,,,,,,,,,,,,,,,,,,,,,,,,,,,,,,,,,,,,,,,,,,,861543,001,2023-01-27_14h45.22.362,Info_measure_main_exp,2022.2.4,60.07313615592061,
1,131,5,5,2151,1,absent_patch/patch0002151.jpg,present_patch/cong_131_3_a.jpg,masks/mask_004.jpg,,,,,,,,,,,,,0,7,7,113,,,,,0,0,0,3,,,,,,,,,,,,,,,,,,,,,,,,,,,,,,,,,,,,,,,,,,103.35094752800069,,,,,,,,,,,,,,,,,,,,,,,,,,,,,,,,,,,,,,,,,,,,,,,,,,102.65335931400477,103.13802537800802,103.30317094900238,103.35094752800069,,,,,,,,,,,,,,,,,,,,,,,,861543,001,2023-01-27_14h45.22.362,Info_measure_main_exp,2022.2.4,60.07313615592061,
1,131,5,5,2151,1,absent_patch/patch0002151.jpg,present_patch/cong_131_3_a.jpg,masks/mask_003.jpg,,,,,,,,,,,,,0,7,7,113,,,,,0,1,1,2,,,,,,,,,,,,,,,,,,,,,,,,,,,,,,,,,,,,,,,,,,103.39895540200814,,,,,,,,,,,,,,,,,,,,,,,,,,,,,,,,,,,,,,,,,,,,,,,,,,,,,,,,,,,,,,,,,,,,,,,,,,,,,861543,001,2023-01-27_14h45.22.362,Info_measure_main_exp,2022.2.4,60.07313615592061,
1,131,5,5,2151,1,absent_patch/patch0002151.jpg,present_patch/cong_131_3_a.jpg,masks/mask_005.jpg,,,,,,,,,,,,,0,7,7,113,,,,,0,2,2,4,,,,,,,,,,,,,,,,,,,,,,,,,,,,,,,,,,,,,,,,,,103.46611668700643,,,,,,,,,,,,,,,,,,,,,,,,,,,,,,,,,,,,,,,,,,,,,,,,,,,,,,,,,,,,,,,,,,,,,,,,,,,,,861543,001,2023-01-27_14h45.22.362,Info_measure_main_exp,2022.2.4,60.07313615592061,
1,131,5,5,2151,1,absent_patch/patch0002151.jpg,present_patch/cong_131_3_a.jpg,masks/mask_001.jpg,,,,,,,,,,,,,0,7,7,113,,,,,0,3,3,0,,,,,,,,,,,,,,,,,,,,,,,,,,,,,,,,,,,,,,,,,,103.53610353599652,,,,,,,,,,,,,,,,,,,,,,,,,,,,,,,,,,,,,,,,,,,,,,,,,,,,,,,,,,,,,,,,,,,,,,,,,,,,,861543,001,2023-01-27_14h45.22.362,Info_measure_main_exp,2022.2.4,60.07313615592061,
1,131,5,5,2151,1,absent_patch/patch0002151.jpg,present_patch/cong_131_3_a.jpg,masks/mask_002.jpg,,,,,,,,,,,,,0,7,7,113,,,,,0,4,4,1,,,,,,,,,,,,,,,,,,,,,,,,,,,,,,,,,,,,,,,,,,103.58605123999587,,,,,,,,,,,,,,,,,,,,,,,,,,,,,,,,,,,,,,,,,,,,,,,,,,,,,,,,,,,,,,,,,,,,,,,,,,,,,861543,001,2023-01-27_14h45.22.362,Info_measure_main_exp,2022.2.4,60.07313615592061,
1,131,5,5,2151,1,absent_patch/patch0002151.jpg,present_patch/cong_131_3_a.jpg,,,,,,,,,,,,,,0,7,7,113,,,,,,,,,,,,,,,,,,,,,,,,,,,,,,,,,,,,,,,,,,,,,,,,,,,,,,,,,,,,,,,,,,6,1.2154568810074124,1,,,,,,,,,,,,,,,,,,,,,,,,,,,,,,,,,,,,0.019015813013538718,103.64644836400112,103.64644836400112,103.64644836400112,103.64644836400112,0.2477777777777778,0.09444444444444444,1,0,0,response1disk,8,0.010925770999165252,104.87409159399976,104.87409159399976,104.87409159399976,104.87409159399976,-0.006666666666666667,-0.022222222222222223,1,0,0,center_square,861543,001,2023-01-27_14h45.22.362,Info_measure_main_exp,2022.2.4,60.07313615592061,
0,131,5,5,1995,1995,absent_patch/patch0001995.jpg,absent_patch/patch0001995.jpg,masks/mask_004.jpg,,,,,,,,,,,,,0,8,8,71,0,0,0,3,,,,,,,,,,,,,,,,,,,,,,,,,,,,,,,,,,,,,,,,,,,,,,106.09465757200087,,,,,,,,,,,,,,,,,,,,,,,,,,,,,,,,,,,,,,,,,,,,,,105.39873365800304,105.88924729700375,106.04457040200941,106.09465757200087,,,,,,,,,,,,,,,,,,,,,,,,,,,,861543,001,2023-01-27_14h45.22.362,Info_measure_main_exp,2022.2.4,60.07313615592061,
0,131,5,5,1995,1995,absent_patch/patch0001995.jpg,absent_patch/patch0001995.jpg,masks/mask_005.jpg,,,,,,,,,,,,,0,8,8,71,0,1,1,4,,,,,,,,,,,,,,,,,,,,,,,,,,,,,,,,,,,,,,,,,,,,,,106.1422959019983,,,,,,,,,,,,,,,,,,,,,,,,,,,,,,,,,,,,,,,,,,,,,,,,,,,,,,,,,,,,,,,,,,,,,,,,,,,,,861543,001,2023-01-27_14h45.22.362,Info_measure_main_exp,2022.2.4,60.07313615592061,
0,131,5,5,1995,1995,absent_patch/patch0001995.jpg,absent_patch/patch0001995.jpg,masks/mask_003.jpg,,,,,,,,,,,,,0,8,8,71,0,2,2,2,,,,,,,,,,,,,,,,,,,,,,,,,,,,,,,,,,,,,,,,,,,,,,106.20778054500988,,,,,,,,,,,,,,,,,,,,,,,,,,,,,,,,,,,,,,,,,,,,,,,,,,,,,,,,,,,,,,,,,,,,,,,,,,,,,861543,001,2023-01-27_14h45.22.362,Info_measure_main_exp,2022.2.4,60.07313615592061,
0,131,5,5,1995,1995,absent_patch/patch0001995.jpg,absent_patch/patch0001995.jpg,masks/mask_002.jpg,,,,,,,,,,,,,0,8,8,71,0,3,3,1,,,,,,,,,,,,,,,,,,,,,,,,,,,,,,,,,,,,,,,,,,,,,,106.26237659800972,,,,,,,,,,,,,,,,,,,,,,,,,,,,,,,,,,,,,,,,,,,,,,,,,,,,,,,,,,,,,,,,,,,,,,,,,,,,,861543,001,2023-01-27_14h45.22.362,Info_measure_main_exp,2022.2.4,60.07313615592061,
0,131,5,5,1995,1995,absent_patch/patch0001995.jpg,absent_patch/patch0001995.jpg,masks/mask_001.jpg,,,,,,,,,,,,,0,8,8,71,0,4,4,0,,,,,,,,,,,,,,,,,,,,,,,,,,,,,,,,,,,,,,,,,,,,,,106.33963897099602,,,,,,,,,,,,,,,,,,,,,,,,,,,,,,,,,,,,,,,,,,,,,,,,,,,,,,,,,,,,,,,,,,,,,,,,,,,,,861543,001,2023-01-27_14h45.22.362,Info_measure_main_exp,2022.2.4,60.07313615592061,
0,131,5,5,1995,1995,absent_patch/patch0001995.jpg,absent_patch/patch0001995.jpg,masks/mask_002.jpg,,,,,,,,,,,,,0,8,8,71,,,,,0,0,0,1,,,,,,,,,,,,,,,,,,,,,,,,,,,,,,,,,,,,,,,,,,107.05336937100219,,,,,,,,,,,,,,,,,,,,,,,,,,,,,,,,,,,,,,,,,,,,,,,,,,106.38209343599738,106.84837388299638,107.0003528399975,107.05336937100219,,,,,,,,,,,,,,,,,,,,,,,,861543,001,2023-01-27_14h45.22.362,Info_measure_main_exp,2022.2.4,60.07313615592061,
0,131,5,5,1995,1995,absent_patch/patch0001995.jpg,absent_patch/patch0001995.jpg,masks/mask_004.jpg,,,,,,,,,,,,,0,8,8,71,,,,,0,1,1,3,,,,,,,,,,,,,,,,,,,,,,,,,,,,,,,,,,,,,,,,,,107.11277162100305,,,,,,,,,,,,,,,,,,,,,,,,,,,,,,,,,,,,,,,,,,,,,,,,,,,,,,,,,,,,,,,,,,,,,,,,,,,,,861543,001,2023-01-27_14h45.22.362,Info_measure_main_exp,2022.2.4,60.07313615592061,
0,131,5,5,1995,1995,absent_patch/patch0001995.jpg,absent_patch/patch0001995.jpg,masks/mask_005.jpg,,,,,,,,,,,,,0,8,8,71,,,,,0,2,2,4,,,,,,,,,,,,,,,,,,,,,,,,,,,,,,,,,,,,,,,,,,107.17415664999862,,,,,,,,,,,,,,,,,,,,,,,,,,,,,,,,,,,,,,,,,,,,,,,,,,,,,,,,,,,,,,,,,,,,,,,,,,,,,861543,001,2023-01-27_14h45.22.362,Info_measure_main_exp,2022.2.4,60.07313615592061,
0,131,5,5,1995,1995,absent_patch/patch0001995.jpg,absent_patch/patch0001995.jpg,masks/mask_003.jpg,,,,,,,,,,,,,0,8,8,71,,,,,0,3,3,2,,,,,,,,,,,,,,,,,,,,,,,,,,,,,,,,,,,,,,,,,,107.23452753700258,,,,,,,,,,,,,,,,,,,,,,,,,,,,,,,,,,,,,,,,,,,,,,,,,,,,,,,,,,,,,,,,,,,,,,,,,,,,,861543,001,2023-01-27_14h45.22.362,Info_measure_main_exp,2022.2.4,60.07313615592061,
0,131,5,5,1995,1995,absent_patch/patch0001995.jpg,absent_patch/patch0001995.jpg,masks/mask_001.jpg,,,,,,,,,,,,,0,8,8,71,,,,,0,4,4,0,,,,,,,,,,,,,,,,,,,,,,,,,,,,,,,,,,,,,,,,,,107.29329173400765,,,,,,,,,,,,,,,,,,,,,,,,,,,,,,,,,,,,,,,,,,,,,,,,,,,,,,,,,,,,,,,,,,,,,,,,,,,,,861543,001,2023-01-27_14h45.22.362,Info_measure_main_exp,2022.2.4,60.07313615592061,
0,131,5,5,1995,1995,absent_patch/patch0001995.jpg,absent_patch/patch0001995.jpg,,,,,,,,,,,,,,0,8,8,71,,,,,,,,,,,,,,,,,,,,,,,,,,,,,,,,,,,,,,,,,,,,,,,,,,,,,,,,,,,,,,,,,,0,0.44912894899607636,1,,,,,,,,,,,,,,,,,,,,,,,,,,,,,,,,,,,,0.012954721023561433,107.35467584000435,107.35467584000435,107.35467584000435,107.35467584000435,-0.07444444444444444,0.2,1,0,0,response7disk,9,0.01313773098809179,107.81583739499911,107.81583739499911,107.81583739499911,107.81583739499911,-0.01,-0.008888888888888889,1,0,0,center_square,861543,001,2023-01-27_14h45.22.362,Info_measure_main_exp,2022.2.4,60.07313615592061,
0,131,5,5,2247,2211,absent_patch/patch0002247.jpg,absent_patch/patch0002211.jpg,masks/mask_005.jpg,,,,,,,,,,,,,0,9,9,109,0,0,0,4,,,,,,,,,,,,,,,,,,,,,,,,,,,,,,,,,,,,,,,,,,,,,,109.00348879600642,,,,,,,,,,,,,,,,,,,,,,,,,,,,,,,,,,,,,,,,,,,,,,108.31504872599908,108.79398725100327,108.95377934099815,109.00348879600642,,,,,,,,,,,,,,,,,,,,,,,,,,,,861543,001,2023-01-27_14h45.22.362,Info_measure_main_exp,2022.2.4,60.07313615592061,
0,131,5,5,2247,2211,absent_patch/patch0002247.jpg,absent_patch/patch0002211.jpg,masks/mask_002.jpg,,,,,,,,,,,,,0,9,9,109,0,1,1,1,,,,,,,,,,,,,,,,,,,,,,,,,,,,,,,,,,,,,,,,,,,,,,109.06684106300236,,,,,,,,,,,,,,,,,,,,,,,,,,,,,,,,,,,,,,,,,,,,,,,,,,,,,,,,,,,,,,,,,,,,,,,,,,,,,861543,001,2023-01-27_14h45.22.362,Info_measure_main_exp,2022.2.4,60.07313615592061,
0,131,5,5,2247,2211,absent_patch/patch0002247.jpg,absent_patch/patch0002211.jpg,masks/mask_001.jpg,,,,,,,,,,,,,0,9,9,109,0,2,2,0,,,,,,,,,,,,,,,,,,,,,,,,,,,,,,,,,,,,,,,,,,,,,,109.11879748699721,,,,,,,,,,,,,,,,,,,,,,,,,,,,,,,,,,,,,,,,,,,,,,,,,,,,,,,,,,,,,,,,,,,,,,,,,,,,,861543,001,2023-01-27_14h45.22.362,Info_measure_main_exp,2022.2.4,60.07313615592061,
0,131,5,5,2247,2211,absent_patch/patch0002247.jpg,absent_patch/patch0002211.jpg,masks/mask_004.jpg,,,,,,,,,,,,,0,9,9,109,0,3,3,3,,,,,,,,,,,,,,,,,,,,,,,,,,,,,,,,,,,,,,,,,,,,,,109.19607039399853,,,,,,,,,,,,,,,,,,,,,,,,,,,,,,,,,,,,,,,,,,,,,,,,,,,,,,,,,,,,,,,,,,,,,,,,,,,,,861543,001,2023-01-27_14h45.22.362,Info_measure_main_exp,2022.2.4,60.07313615592061,
0,131,5,5,2247,2211,absent_patch/patch0002247.jpg,absent_patch/patch0002211.jpg,masks/mask_003.jpg,,,,,,,,,,,,,0,9,9,109,0,4,4,2,,,,,,,,,,,,,,,,,,,,,,,,,,,,,,,,,,,,,,,,,,,,,,109.25074214000779,,,,,,,,,,,,,,,,,,,,,,,,,,,,,,,,,,,,,,,,,,,,,,,,,,,,,,,,,,,,,,,,,,,,,,,,,,,,,861543,001,2023-01-27_14h45.22.362,Info_measure_main_exp,2022.2.4,60.07313615592061,
0,131,5,5,2247,2211,absent_patch/patch0002247.jpg,absent_patch/patch0002211.jpg,masks/mask_001.jpg,,,,,,,,,,,,,0,9,9,109,,,,,0,0,0,0,,,,,,,,,,,,,,,,,,,,,,,,,,,,,,,,,,,,,,,,,,109.98644147200685,,,,,,,,,,,,,,,,,,,,,,,,,,,,,,,,,,,,,,,,,,,,,,,,,,109.29133308200107,109.77800389300683,109.98644147200685,109.98644147200685,,,,,,,,,,,,,,,,,,,,,,,,861543,001,2023-01-27_14h45.22.362,Info_measure_main_exp,2022.2.4,60.07313615592061,
0,131,5,5,2247,2211,absent_patch/patch0002247.jpg,absent_patch/patch0002211.jpg,masks/mask_002.jpg,,,,,,,,,,,,,0,9,9,109,,,,,0,1,1,1,,,,,,,,,,,,,,,,,,,,,,,,,,,,,,,,,,,,,,,,,,110.04122072600876,,,,,,,,,,,,,,,,,,,,,,,,,,,,,,,,,,,,,,,,,,,,,,,,,,,,,,,,,,,,,,,,,,,,,,,,,,,,,861543,001,2023-01-27_14h45.22.362,Info_measure_main_exp,2022.2.4,60.07313615592061,
0,131,5,5,2247,2211,absent_patch/patch0002247.jpg,absent_patch/patch0002211.jpg,masks/mask_004.jpg,,,,,,,,,,,,,0,9,9,109,,,,,0,2,2,3,,,,,,,,,,,,,,,,,,,,,,,,,,,,,,,,,,,,,,,,,,110.09147907800798,,,,,,,,,,,,,,,,,,,,,,,,,,,,,,,,,,,,,,,,,,,,,,,,,,,,,,,,,,,,,,,,,,,,,,,,,,,,,861543,001,2023-01-27_14h45.22.362,Info_measure_main_exp,2022.2.4,60.07313615592061,
0,131,5,5,2247,2211,absent_patch/patch0002247.jpg,absent_patch/patch0002211.jpg,masks/mask_003.jpg,,,,,,,,,,,,,0,9,9,109,,,,,0,3,3,2,,,,,,,,,,,,,,,,,,,,,,,,,,,,,,,,,,,,,,,,,,110.23066005700093,,,,,,,,,,,,,,,,,,,,,,,,,,,,,,,,,,,,,,,,,,,,,,,,,,,,,,,,,,,,,,,,,,,,,,,,,,,,,861543,001,2023-01-27_14h45.22.362,Info_measure_main_exp,2022.2.4,60.07313615592061,
0,131,5,5,2247,2211,absent_patch/patch0002247.jpg,absent_patch/patch0002211.jpg,masks/mask_005.jpg,,,,,,,,,,,,,0,9,9,109,,,,,0,4,4,4,,,,,,,,,,,,,,,,,,,,,,,,,,,,,,,,,,,,,,,,,,,,,,,,,,,,,,,,,,,,,,,,,,,,,,,,,,,,,,,,,,,,,,,,,,,,,,,,,,,,,,,,,,,,,,,,,,,,,,,861543,001,2023-01-27_14h45.22.362,Info_measure_main_exp,2022.2.4,60.07313615592061,
0,131,5,5,2247,2211,absent_patch/patch0002247.jpg,absent_patch/patch0002211.jpg,,,,,,,,,,,,,,0,9,9,109,,,,,,,,,,,,,,,,,,,,,,,,,,,,,,,,,,,,,,,,,,,,,,,,,,,,,,,,,,,,,,,,,,7,1.224777572992025,1,,,,,,,,,,,,,,,,,,,,,,,,,,,,,,,,,,,,0.009513618017081171,110.26436802100216,110.26436802100216,110.26436802100216,110.26436802100216,0.1,0.2966666666666667,1,0,0,response1disk,10,0.017423855999368243,111.51507267300622,111.51507267300622,111.51507267300622,111.51507267300622,-0.0022222222222222222,0.0011111111111111111,1,0,0,center_square,861543,001,2023-01-27_14h45.22.362,Info_measure_main_exp,2022.2.4,60.07313615592061,
0,131,5,5,2247,2367,absent_patch/patch0002247.jpg,absent_patch/patch0002367.jpg,masks/mask_001.jpg,,,,,,,,,,,,,0,10,10,77,0,0,0,0,,,,,,,,,,,,,,,,,,,,,,,,,,,,,,,,,,,,,,,,,,,,,,113.19156395799655,,,,,,,,,,,,,,,,,,,,,,,,,,,,,,,,,,,,,,,,,,,,,,112.50952151999809,112.9965576280083,113.15091979700082,113.19156395799655,,,,,,,,,,,,,,,,,,,,,,,,,,,,861543,001,2023-01-27_14h45.22.362,Info_measure_main_exp,2022.2.4,60.07313615592061,
0,131,5,5,2247,2367,absent_patch/patch0002247.jpg,absent_patch/patch0002367.jpg,masks/mask_002.jpg,,,,,,,,,,,,,0,10,10,77,0,1,1,1,,,,,,,,,,,,,,,,,,,,,,,,,,,,,,,,,,,,,,,,,,,,,,113.24884115900204,,,,,,,,,,,,,,,,,,,,,,,,,,,,,,,,,,,,,,,,,,,,,,,,,,,,,,,,,,,,,,,,,,,,,,,,,,,,,861543,001,2023-01-27_14h45.22.362,Info_measure_main_exp,2022.2.4,60.07313615592061,
0,131,5,5,2247,2367,absent_patch/patch0002247.jpg,absent_patch/patch0002367.jpg,masks/mask_005.jpg,,,,,,,,,,,,,0,10,10,77,0,2,2,4,,,,,,,,,,,,,,,,,,,,,,,,,,,,,,,,,,,,,,,,,,,,,,113.30921350599965,,,,,,,,,,,,,,,,,,,,,,,,,,,,,,,,,,,,,,,,,,,,,,,,,,,,,,,,,,,,,,,,,,,,,,,,,,,,,861543,001,2023-01-27_14h45.22.362,Info_measure_main_exp,2022.2.4,60.07313615592061,
0,131,5,5,2247,2367,absent_patch/patch0002247.jpg,absent_patch/patch0002367.jpg,masks/mask_003.jpg,,,,,,,,,,,,,0,10,10,77,0,3,3,2,,,,,,,,,,,,,,,,,,,,,,,,,,,,,,,,,,,,,,,,,,,,,,113.37020980700618,,,,,,,,,,,,,,,,,,,,,,,,,,,,,,,,,,,,,,,,,,,,,,,,,,,,,,,,,,,,,,,,,,,,,,,,,,,,,861543,001,2023-01-27_14h45.22.362,Info_measure_main_exp,2022.2.4,60.07313615592061,
0,131,5,5,2247,2367,absent_patch/patch0002247.jpg,absent_patch/patch0002367.jpg,masks/mask_004.jpg,,,,,,,,,,,,,0,10,10,77,0,4,4,3,,,,,,,,,,,,,,,,,,,,,,,,,,,,,,,,,,,,,,,,,,,,,,113.43619362999743,,,,,,,,,,,,,,,,,,,,,,,,,,,,,,,,,,,,,,,,,,,,,,,,,,,,,,,,,,,,,,,,,,,,,,,,,,,,,861543,001,2023-01-27_14h45.22.362,Info_measure_main_exp,2022.2.4,60.07313615592061,
0,131,5,5,2247,2367,absent_patch/patch0002247.jpg,absent_patch/patch0002367.jpg,masks/mask_001.jpg,,,,,,,,,,,,,0,10,10,77,,,,,0,0,0,0,,,,,,,,,,,,,,,,,,,,,,,,,,,,,,,,,,,,,,,,,,114.15931862700381,,,,,,,,,,,,,,,,,,,,,,,,,,,,,,,,,,,,,,,,,,,,,,,,,,113.47322860499844,113.96622197200486,114.11793657200178,114.15931862700381,,,,,,,,,,,,,,,,,,,,,,,,861543,001,2023-01-27_14h45.22.362,Info_measure_main_exp,2022.2.4,60.07313615592061,
0,131,5,5,2247,2367,absent_patch/patch0002247.jpg,absent_patch/patch0002367.jpg,masks/mask_005.jpg,,,,,,,,,,,,,0,10,10,77,,,,,0,1,1,4,,,,,,,,,,,,,,,,,,,,,,,,,,,,,,,,,,,,,,,,,,114.21957514900714,,,,,,,,,,,,,,,,,,,,,,,,,,,,,,,,,,,,,,,,,,,,,,,,,,,,,,,,,,,,,,,,,,,,,,,,,,,,,861543,001,2023-01-27_14h45.22.362,Info_measure_main_exp,2022.2.4,60.07313615592061,
0,131,5,5,2247,2367,absent_patch/patch0002247.jpg,absent_patch/patch0002367.jpg,masks/mask_003.jpg,,,,,,,,,,,,,0,10,10,77,,,,,0,2,2,2,,,,,,,,,,,,,,,,,,,,,,,,,,,,,,,,,,,,,,,,,,114.27901672601001,,,,,,,,,,,,,,,,,,,,,,,,,,,,,,,,,,,,,,,,,,,,,,,,,,,,,,,,,,,,,,,,,,,,,,,,,,,,,861543,001,2023-01-27_14h45.22.362,Info_measure_main_exp,2022.2.4,60.07313615592061,
0,131,5,5,2247,2367,absent_patch/patch0002247.jpg,absent_patch/patch0002367.jpg,masks/mask_004.jpg,,,,,,,,,,,,,0,10,10,77,,,,,0,3,3,3,,,,,,,,,,,,,,,,,,,,,,,,,,,,,,,,,,,,,,,,,,114.35070734399778,,,,,,,,,,,,,,,,,,,,,,,,,,,,,,,,,,,,,,,,,,,,,,,,,,,,,,,,,,,,,,,,,,,,,,,,,,,,,861543,001,2023-01-27_14h45.22.362,Info_measure_main_exp,2022.2.4,60.07313615592061,
0,131,5,5,2247,2367,absent_patch/patch0002247.jpg,absent_patch/patch0002367.jpg,masks/mask_002.jpg,,,,,,,,,,,,,0,10,10,77,,,,,0,4,4,1,,,,,,,,,,,,,,,,,,,,,,,,,,,,,,,,,,,,,,,,,,114.38958479299617,,,,,,,,,,,,,,,,,,,,,,,,,,,,,,,,,,,,,,,,,,,,,,,,,,,,,,,,,,,,,,,,,,,,,,,,,,,,,861543,001,2023-01-27_14h45.22.362,Info_measure_main_exp,2022.2.4,60.07313615592061,
0,131,5,5,2247,2367,absent_patch/patch0002247.jpg,absent_patch/patch0002367.jpg,,,,,,,,,,,,,,0,10,10,77,,,,,,,,,,,,,,,,,,,,,,,,,,,,,,,,,,,,,,,,,,,,,,,,,,,,,,,,,,,,,,,,,,6,0.727154451989918,1,,,,,,,,,,,,,,,,,,,,,,,,,,,,,,,,,,,,0.005871408007806167,114.44695935300842,114.44695935300842,114.44695935300842,114.44695935300842,0.2311111111111111,0.09,1,0,0,response1disk,11,0.011748459000955336,115.19145699300861,115.19145699300861,115.19145699300861,115.19145699300861,0.025555555555555557,-0.011111111111111112,1,0,0,center_square,861543,001,2023-01-27_14h45.22.362,Info_measure_main_exp,2022.2.4,60.07313615592061,
0,131,5,5,2031,1995,absent_patch/patch0002031.jpg,absent_patch/patch0001995.jpg,masks/mask_004.jpg,,,,,,,,,,,,,0,11,11,79,0,0,0,3,,,,,,,,,,,,,,,,,,,,,,,,,,,,,,,,,,,,,,,,,,,,,,116.41063104399655,,,,,,,,,,,,,,,,,,,,,,,,,,,,,,,,,,,,,,,,,,,,,,115.72222679499828,116.2154885839991,116.41063104399655,116.41063104399655,,,,,,,,,,,,,,,,,,,,,,,,,,,,861543,001,2023-01-27_14h45.22.362,Info_measure_main_exp,2022.2.4,60.07313615592061,
0,131,5,5,2031,1995,absent_patch/patch0002031.jpg,absent_patch/patch0001995.jpg,masks/mask_002.jpg,,,,,,,,,,,,,0,11,11,79,0,1,1,1,,,,,,,,,,,,,,,,,,,,,,,,,,,,,,,,,,,,,,,,,,,,,,116.45550276100403,,,,,,,,,,,,,,,,,,,,,,,,,,,,,,,,,,,,,,,,,,,,,,,,,,,,,,,,,,,,,,,,,,,,,,,,,,,,,861543,001,2023-01-27_14h45.22.362,Info_measure_main_exp,2022.2.4,60.07313615592061,
0,131,5,5,2031,1995,absent_patch/patch0002031.jpg,absent_patch/patch0001995.jpg,masks/mask_003.jpg,,,,,,,,,,,,,0,11,11,79,0,2,2,2,,,,,,,,,,,,,,,,,,,,,,,,,,,,,,,,,,,,,,,,,,,,,,116.51469666299818,,,,,,,,,,,,,,,,,,,,,,,,,,,,,,,,,,,,,,,,,,,,,,,,,,,,,,,,,,,,,,,,,,,,,,,,,,,,,861543,001,2023-01-27_14h45.22.362,Info_measure_main_exp,2022.2.4,60.07313615592061,
0,131,5,5,2031,1995,absent_patch/patch0002031.jpg,absent_patch/patch0001995.jpg,masks/mask_001.jpg,,,,,,,,,,,,,0,11,11,79,0,3,3,0,,,,,,,,,,,,,,,,,,,,,,,,,,,,,,,,,,,,,,,,,,,,,,116.58517022900924,,,,,,,,,,,,,,,,,,,,,,,,,,,,,,,,,,,,,,,,,,,,,,,,,,,,,,,,,,,,,,,,,,,,,,,,,,,,,861543,001,2023-01-27_14h45.22.362,Info_measure_main_exp,2022.2.4,60.07313615592061,
0,131,5,5,2031,1995,absent_patch/patch0002031.jpg,absent_patch/patch0001995.jpg,masks/mask_005.jpg,,,,,,,,,,,,,0,11,11,79,0,4,4,4,,,,,,,,,,,,,,,,,,,,,,,,,,,,,,,,,,,,,,,,,,,,,,116.64571952199913,,,,,,,,,,,,,,,,,,,,,,,,,,,,,,,,,,,,,,,,,,,,,,,,,,,,,,,,,,,,,,,,,,,,,,,,,,,,,861543,001,2023-01-27_14h45.22.362,Info_measure_main_exp,2022.2.4,60.07313615592061,
0,131,5,5,2031,1995,absent_patch/patch0002031.jpg,absent_patch/patch0001995.jpg,masks/mask_005.jpg,,,,,,,,,,,,,0,11,11,79,,,,,0,0,0,4,,,,,,,,,,,,,,,,,,,,,,,,,,,,,,,,,,,,,,,,,,117.38081197200518,,,,,,,,,,,,,,,,,,,,,,,,,,,,,,,,,,,,,,,,,,,,,,,,,,116.70072824200906,117.18325872800779,117.34057908100658,117.38081197200518,,,,,,,,,,,,,,,,,,,,,,,,861543,001,2023-01-27_14h45.22.362,Info_measure_main_exp,2022.2.4,60.07313615592061,
0,131,5,5,2031,1995,absent_patch/patch0002031.jpg,absent_patch/patch0001995.jpg,masks/mask_003.jpg,,,,,,,,,,,,,0,11,11,79,,,,,0,1,1,2,,,,,,,,,,,,,,,,,,,,,,,,,,,,,,,,,,,,,,,,,,117.44231166900136,,,,,,,,,,,,,,,,,,,,,,,,,,,,,,,,,,,,,,,,,,,,,,,,,,,,,,,,,,,,,,,,,,,,,,,,,,,,,861543,001,2023-01-27_14h45.22.362,Info_measure_main_exp,2022.2.4,60.07313615592061,
0,131,5,5,2031,1995,absent_patch/patch0002031.jpg,absent_patch/patch0001995.jpg,masks/mask_002.jpg,,,,,,,,,,,,,0,11,11,79,,,,,0,2,2,1,,,,,,,,,,,,,,,,,,,,,,,,,,,,,,,,,,,,,,,,,,117.50215799899888,,,,,,,,,,,,,,,,,,,,,,,,,,,,,,,,,,,,,,,,,,,,,,,,,,,,,,,,,,,,,,,,,,,,,,,,,,,,,861543,001,2023-01-27_14h45.22.362,Info_measure_main_exp,2022.2.4,60.07313615592061,
0,131,5,5,2031,1995,absent_patch/patch0002031.jpg,absent_patch/patch0001995.jpg,masks/mask_001.jpg,,,,,,,,,,,,,0,11,11,79,,,,,0,3,3,0,,,,,,,,,,,,,,,,,,,,,,,,,,,,,,,,,,,,,,,,,,117.56145667399687,,,,,,,,,,,,,,,,,,,,,,,,,,,,,,,,,,,,,,,,,,,,,,,,,,,,,,,,,,,,,,,,,,,,,,,,,,,,,861543,001,2023-01-27_14h45.22.362,Info_measure_main_exp,2022.2.4,60.07313615592061,
0,131,5,5,2031,1995,absent_patch/patch0002031.jpg,absent_patch/patch0001995.jpg,masks/mask_004.jpg,,,,,,,,,,,,,0,11,11,79,,,,,0,4,4,3,,,,,,,,,,,,,,,,,,,,,,,,,,,,,,,,,,,,,,,,,,117.62313288199948,,,,,,,,,,,,,,,,,,,,,,,,,,,,,,,,,,,,,,,,,,,,,,,,,,,,,,,,,,,,,,,,,,,,,,,,,,,,,861543,001,2023-01-27_14h45.22.362,Info_measure_main_exp,2022.2.4,60.07313615592061,
0,131,5,5,2031,1995,absent_patch/patch0002031.jpg,absent_patch/patch0001995.jpg,,,,,,,,,,,,,,0,11,11,79,,,,,,,,,,,,,,,,,,,,,,,,,,,,,,,,,,,,,,,,,,,,,,,,,,,,,,,,,,,,,,,,,,6,2.6750856599974213,1,,,,,,,,,,,,,,,,,,,,,,,,,,,,,,,,,,,,0.015359795012045652,117.68148847900738,117.68148847900738,117.68148847900738,117.68148847900738,0.12111111111111111,0.06666666666666667,1,0,0,response1disk,12,0.008842532988637686,120.36674544699781,120.36674544699781,120.36674544699781,120.36674544699781,0.0044444444444444444,0.02,1,0,0,center_square,861543,001,2023-01-27_14h45.22.362,Info_measure_main_exp,2022.2.4,60.07313615592061,
0,131,5,5,2223,2283,absent_patch/patch0002223.jpg,absent_patch/patch0002283.jpg,masks/mask_003.jpg,,,,,,,,,,,,,0,12,12,41,0,0,0,2,,,,,,,,,,,,,,,,,,,,,,,,,,,,,,,,,,,,,,,,,,,,,,122.85537342200405,,,,,,,,,,,,,,,,,,,,,,,,,,,,,,,,,,,,,,,,,,,,,,122.17877640899678,122.66412359999958,122.81597734800016,122.85537342200405,,,,,,,,,,,,,,,,,,,,,,,,,,,,861543,001,2023-01-27_14h45.22.362,Info_measure_main_exp,2022.2.4,60.07313615592061,
0,131,5,5,2223,2283,absent_patch/patch0002223.jpg,absent_patch/patch0002283.jpg,masks/mask_004.jpg,,,,,,,,,,,,,0,12,12,41,0,1,1,3,,,,,,,,,,,,,,,,,,,,,,,,,,,,,,,,,,,,,,,,,,,,,,122.91379139300261,,,,,,,,,,,,,,,,,,,,,,,,,,,,,,,,,,,,,,,,,,,,,,,,,,,,,,,,,,,,,,,,,,,,,,,,,,,,,861543,001,2023-01-27_14h45.22.362,Info_measure_main_exp,2022.2.4,60.07313615592061,
0,131,5,5,2223,2283,absent_patch/patch0002223.jpg,absent_patch/patch0002283.jpg,masks/mask_005.jpg,,,,,,,,,,,,,0,12,12,41,0,2,2,4,,,,,,,,,,,,,,,,,,,,,,,,,,,,,,,,,,,,,,,,,,,,,,122.97366519999923,,,,,,,,,,,,,,,,,,,,,,,,,,,,,,,,,,,,,,,,,,,,,,,,,,,,,,,,,,,,,,,,,,,,,,,,,,,,,861543,001,2023-01-27_14h45.22.362,Info_measure_main_exp,2022.2.4,60.07313615592061,
0,131,5,5,2223,2283,absent_patch/patch0002223.jpg,absent_patch/patch0002283.jpg,masks/mask_002.jpg,,,,,,,,,,,,,0,12,12,41,0,3,3,1,,,,,,,,,,,,,,,,,,,,,,,,,,,,,,,,,,,,,,,,,,,,,,123.03406226400693,,,,,,,,,,,,,,,,,,,,,,,,,,,,,,,,,,,,,,,,,,,,,,,,,,,,,,,,,,,,,,,,,,,,,,,,,,,,,861543,001,2023-01-27_14h45.22.362,Info_measure_main_exp,2022.2.4,60.07313615592061,
0,131,5,5,2223,2283,absent_patch/patch0002223.jpg,absent_patch/patch0002283.jpg,masks/mask_001.jpg,,,,,,,,,,,,,0,12,12,41,0,4,4,0,,,,,,,,,,,,,,,,,,,,,,,,,,,,,,,,,,,,,,,,,,,,,,123.09227442300471,,,,,,,,,,,,,,,,,,,,,,,,,,,,,,,,,,,,,,,,,,,,,,,,,,,,,,,,,,,,,,,,,,,,,,,,,,,,,861543,001,2023-01-27_14h45.22.362,Info_measure_main_exp,2022.2.4,60.07313615592061,
0,131,5,5,2223,2283,absent_patch/patch0002223.jpg,absent_patch/patch0002283.jpg,masks/mask_005.jpg,,,,,,,,,,,,,0,12,12,41,,,,,0,0,0,4,,,,,,,,,,,,,,,,,,,,,,,,,,,,,,,,,,,,,,,,,,123.82236762699904,,,,,,,,,,,,,,,,,,,,,,,,,,,,,,,,,,,,,,,,,,,,,,,,,,123.14417740300996,123.63509359300951,123.78273814500426,123.82236762699904,,,,,,,,,,,,,,,,,,,,,,,,861543,001,2023-01-27_14h45.22.362,Info_measure_main_exp,2022.2.4,60.07313615592061,
0,131,5,5,2223,2283,absent_patch/patch0002223.jpg,absent_patch/patch0002283.jpg,masks/mask_001.jpg,,,,,,,,,,,,,0,12,12,41,,,,,0,1,1,0,,,,,,,,,,,,,,,,,,,,,,,,,,,,,,,,,,,,,,,,,,123.88158487100736,,,,,,,,,,,,,,,,,,,,,,,,,,,,,,,,,,,,,,,,,,,,,,,,,,,,,,,,,,,,,,,,,,,,,,,,,,,,,861543,001,2023-01-27_14h45.22.362,Info_measure_main_exp,2022.2.4,60.07313615592061,
0,131,5,5,2223,2283,absent_patch/patch0002223.jpg,absent_patch/patch0002283.jpg,masks/mask_004.jpg,,,,,,,,,,,,,0,12,12,41,,,,,0,2,2,3,,,,,,,,,,,,,,,,,,,,,,,,,,,,,,,,,,,,,,,,,,123.94256427799701,,,,,,,,,,,,,,,,,,,,,,,,,,,,,,,,,,,,,,,,,,,,,,,,,,,,,,,,,,,,,,,,,,,,,,,,,,,,,861543,001,2023-01-27_14h45.22.362,Info_measure_main_exp,2022.2.4,60.07313615592061,
0,131,5,5,2223,2283,absent_patch/patch0002223.jpg,absent_patch/patch0002283.jpg,masks/mask_003.jpg,,,,,,,,,,,,,0,12,12,41,,,,,0,3,3,2,,,,,,,,,,,,,,,,,,,,,,,,,,,,,,,,,,,,,,,,,,124.00319900299655,,,,,,,,,,,,,,,,,,,,,,,,,,,,,,,,,,,,,,,,,,,,,,,,,,,,,,,,,,,,,,,,,,,,,,,,,,,,,861543,001,2023-01-27_14h45.22.362,Info_measure_main_exp,2022.2.4,60.07313615592061,
0,131,5,5,2223,2283,absent_patch/patch0002223.jpg,absent_patch/patch0002283.jpg,masks/mask_002.jpg,,,,,,,,,,,,,0,12,12,41,,,,,0,4,4,1,,,,,,,,,,,,,,,,,,,,,,,,,,,,,,,,,,,,,,,,,,124.06459997600177,,,,,,,,,,,,,,,,,,,,,,,,,,,,,,,,,,,,,,,,,,,,,,,,,,,,,,,,,,,,,,,,,,,,,,,,,,,,,861543,001,2023-01-27_14h45.22.362,Info_measure_main_exp,2022.2.4,60.07313615592061,
0,131,5,5,2223,2283,absent_patch/patch0002223.jpg,absent_patch/patch0002283.jpg,,,,,,,,,,,,,,0,12,12,41,,,,,,,,,,,,,,,,,,,,,,,,,,,,,,,,,,,,,,,,,,,,,,,,,,,,,,,,,,,,,,,,,,6,0.6279171450005379,1,,,,,,,,,,,,,,,,,,,,,,,,,,,,,,,,,,,,0.019287250019260682,124.13053052400937,124.13053052400937,124.13053052400937,124.13053052400937,0.18777777777777777,0.09333333333333334,1,0,0,response1disk,13,0.01201968600798864,124.76677505200496,124.76677505200496,124.76677505200496,124.76677505200496,-0.03333333333333333,-0.011111111111111112,1,0,0,center_square,861543,001,2023-01-27_14h45.22.362,Info_measure_main_exp,2022.2.4,60.07313615592061,
0,131,5,5,2043,2271,absent_patch/patch0002043.jpg,absent_patch/patch0002271.jpg,masks/mask_003.jpg,,,,,,,,,,,,,0,13,13,62,0,0,0,2,,,,,,,,,,,,,,,,,,,,,,,,,,,,,,,,,,,,,,,,,,,,,,125.94038634900062,,,,,,,,,,,,,,,,,,,,,,,,,,,,,,,,,,,,,,,,,,,,,,125.26008249000006,125.75148072899901,125.94038634900062,125.94038634900062,,,,,,,,,,,,,,,,,,,,,,,,,,,,861543,001,2023-01-27_14h45.22.362,Info_measure_main_exp,2022.2.4,60.07313615592061,
0,131,5,5,2043,2271,absent_patch/patch0002043.jpg,absent_patch/patch0002271.jpg,masks/mask_001.jpg,,,,,,,,,,,,,0,13,13,62,0,1,1,0,,,,,,,,,,,,,,,,,,,,,,,,,,,,,,,,,,,,,,,,,,,,,,126.00154098200437,,,,,,,,,,,,,,,,,,,,,,,,,,,,,,,,,,,,,,,,,,,,,,,,,,,,,,,,,,,,,,,,,,,,,,,,,,,,,861543,001,2023-01-27_14h45.22.362,Info_measure_main_exp,2022.2.4,60.07313615592061,
0,131,5,5,2043,2271,absent_patch/patch0002043.jpg,absent_patch/patch0002271.jpg,masks/mask_005.jpg,,,,,,,,,,,,,0,13,13,62,0,2,2,4,,,,,,,,,,,,,,,,,,,,,,,,,,,,,,,,,,,,,,,,,,,,,,126.06422726799792,,,,,,,,,,,,,,,,,,,,,,,,,,,,,,,,,,,,,,,,,,,,,,,,,,,,,,,,,,,,,,,,,,,,,,,,,,,,,861543,001,2023-01-27_14h45.22.362,Info_measure_main_exp,2022.2.4,60.07313615592061,
0,131,5,5,2043,2271,absent_patch/patch0002043.jpg,absent_patch/patch0002271.jpg,masks/mask_004.jpg,,,,,,,,,,,,,0,13,13,62,0,3,3,3,,,,,,,,,,,,,,,,,,,,,,,,,,,,,,,,,,,,,,,,,,,,,,126.10857691800629,,,,,,,,,,,,,,,,,,,,,,,,,,,,,,,,,,,,,,,,,,,,,,,,,,,,,,,,,,,,,,,,,,,,,,,,,,,,,861543,001,2023-01-27_14h45.22.362,Info_measure_main_exp,2022.2.4,60.07313615592061,
0,131,5,5,2043,2271,absent_patch/patch0002043.jpg,absent_patch/patch0002271.jpg,masks/mask_002.jpg,,,,,,,,,,,,,0,13,13,62,0,4,4,1,,,,,,,,,,,,,,,,,,,,,,,,,,,,,,,,,,,,,,,,,,,,,,126.16941220199806,,,,,,,,,,,,,,,,,,,,,,,,,,,,,,,,,,,,,,,,,,,,,,,,,,,,,,,,,,,,,,,,,,,,,,,,,,,,,861543,001,2023-01-27_14h45.22.362,Info_measure_main_exp,2022.2.4,60.07313615592061,
0,131,5,5,2043,2271,absent_patch/patch0002043.jpg,absent_patch/patch0002271.jpg,masks/mask_004.jpg,,,,,,,,,,,,,0,13,13,62,,,,,0,0,0,3,,,,,,,,,,,,,,,,,,,,,,,,,,,,,,,,,,,,,,,,,,126.908560484997,,,,,,,,,,,,,,,,,,,,,,,,,,,,,,,,,,,,,,,,,,,,,,,,,,126.22323651899933,126.70441664500686,126.85340673700557,126.908560484997,,,,,,,,,,,,,,,,,,,,,,,,861543,001,2023-01-27_14h45.22.362,Info_measure_main_exp,2022.2.4,60.07313615592061,
0,131,5,5,2043,2271,absent_patch/patch0002043.jpg,absent_patch/patch0002271.jpg,masks/mask_002.jpg,,,,,,,,,,,,,0,13,13,62,,,,,0,1,1,1,,,,,,,,,,,,,,,,,,,,,,,,,,,,,,,,,,,,,,,,,,126.96724840000388,,,,,,,,,,,,,,,,,,,,,,,,,,,,,,,,,,,,,,,,,,,,,,,,,,,,,,,,,,,,,,,,,,,,,,,,,,,,,861543,001,2023-01-27_14h45.22.362,Info_measure_main_exp,2022.2.4,60.07313615592061,
0,131,5,5,2043,2271,absent_patch/patch0002043.jpg,absent_patch/patch0002271.jpg,masks/mask_005.jpg,,,,,,,,,,,,,0,13,13,62,,,,,0,2,2,4,,,,,,,,,,,,,,,,,,,,,,,,,,,,,,,,,,,,,,,,,,127.02776419800648,,,,,,,,,,,,,,,,,,,,,,,,,,,,,,,,,,,,,,,,,,,,,,,,,,,,,,,,,,,,,,,,,,,,,,,,,,,,,861543,001,2023-01-27_14h45.22.362,Info_measure_main_exp,2022.2.4,60.07313615592061,
0,131,5,5,2043,2271,absent_patch/patch0002043.jpg,absent_patch/patch0002271.jpg,masks/mask_001.jpg,,,,,,,,,,,,,0,13,13,62,,,,,0,3,3,0,,,,,,,,,,,,,,,,,,,,,,,,,,,,,,,,,,,,,,,,,,127.0874509520072,,,,,,,,,,,,,,,,,,,,,,,,,,,,,,,,,,,,,,,,,,,,,,,,,,,,,,,,,,,,,,,,,,,,,,,,,,,,,861543,001,2023-01-27_14h45.22.362,Info_measure_main_exp,2022.2.4,60.07313615592061,
0,131,5,5,2043,2271,absent_patch/patch0002043.jpg,absent_patch/patch0002271.jpg,masks/mask_003.jpg,,,,,,,,,,,,,0,13,13,62,,,,,0,4,4,2,,,,,,,,,,,,,,,,,,,,,,,,,,,,,,,,,,,,,,,,,,127.15799078000418,,,,,,,,,,,,,,,,,,,,,,,,,,,,,,,,,,,,,,,,,,,,,,,,,,,,,,,,,,,,,,,,,,,,,,,,,,,,,861543,001,2023-01-27_14h45.22.362,Info_measure_main_exp,2022.2.4,60.07313615592061,
0,131,5,5,2043,2271,absent_patch/patch0002043.jpg,absent_patch/patch0002271.jpg,,,,,,,,,,,,,,0,13,13,62,,,,,,,,,,,,,,,,,,,,,,,,,,,,,,,,,,,,,,,,,,,,,,,,,,,,,,,,,,,,,,,,,,7,0.6759115640015807,1,,,,,,,,,,,,,,,,,,,,,,,,,,,,,,,,,,,,0.01008044701302424,127.21011083600752,127.21011083600752,127.21011083600752,127.21011083600752,0.15888888888888889,0.23777777777777778,1,0,0,response1disk,14,0.009209652009303682,127.89142925100168,127.89142925100168,127.89142925100168,127.89142925100168,0.0044444444444444444,-0.0044444444444444444,1,0,0,center_square,861543,001,2023-01-27_14h45.22.362,Info_measure_main_exp,2022.2.4,60.07313615592061,
0,131,5,5,2247,2247,absent_patch/patch0002247.jpg,absent_patch/patch0002247.jpg,masks/mask_004.jpg,,,,,,,,,,,,,0,14,14,35,0,0,0,3,,,,,,,,,,,,,,,,,,,,,,,,,,,,,,,,,,,,,,,,,,,,,,129.252747904,,,,,,,,,,,,,,,,,,,,,,,,,,,,,,,,,,,,,,,,,,,,,,128.57456375099719,129.06670975399902,129.252747904,129.252747904,,,,,,,,,,,,,,,,,,,,,,,,,,,,861543,001,2023-01-27_14h45.22.362,Info_measure_main_exp,2022.2.4,60.07313615592061,
0,131,5,5,2247,2247,absent_patch/patch0002247.jpg,absent_patch/patch0002247.jpg,masks/mask_003.jpg,,,,,,,,,,,,,0,14,14,35,0,1,1,2,,,,,,,,,,,,,,,,,,,,,,,,,,,,,,,,,,,,,,,,,,,,,,129.31634330100496,,,,,,,,,,,,,,,,,,,,,,,,,,,,,,,,,,,,,,,,,,,,,,,,,,,,,,,,,,,,,,,,,,,,,,,,,,,,,861543,001,2023-01-27_14h45.22.362,Info_measure_main_exp,2022.2.4,60.07313615592061,
0,131,5,5,2247,2247,absent_patch/patch0002247.jpg,absent_patch/patch0002247.jpg,masks/mask_001.jpg,,,,,,,,,,,,,0,14,14,35,0,2,2,0,,,,,,,,,,,,,,,,,,,,,,,,,,,,,,,,,,,,,,,,,,,,,,129.3681885900005,,,,,,,,,,,,,,,,,,,,,,,,,,,,,,,,,,,,,,,,,,,,,,,,,,,,,,,,,,,,,,,,,,,,,,,,,,,,,861543,001,2023-01-27_14h45.22.362,Info_measure_main_exp,2022.2.4,60.07313615592061,
0,131,5,5,2247,2247,absent_patch/patch0002247.jpg,absent_patch/patch0002247.jpg,masks/mask_005.jpg,,,,,,,,,,,,,0,14,14,35,0,3,3,4,,,,,,,,,,,,,,,,,,,,,,,,,,,,,,,,,,,,,,,,,,,,,,129.43710142400232,,,,,,,,,,,,,,,,,,,,,,,,,,,,,,,,,,,,,,,,,,,,,,,,,,,,,,,,,,,,,,,,,,,,,,,,,,,,,861543,001,2023-01-27_14h45.22.362,Info_measure_main_exp,2022.2.4,60.07313615592061,
0,131,5,5,2247,2247,absent_patch/patch0002247.jpg,absent_patch/patch0002247.jpg,masks/mask_002.jpg,,,,,,,,,,,,,0,14,14,35,0,4,4,1,,,,,,,,,,,,,,,,,,,,,,,,,,,,,,,,,,,,,,,,,,,,,,129.48614743800135,,,,,,,,,,,,,,,,,,,,,,,,,,,,,,,,,,,,,,,,,,,,,,,,,,,,,,,,,,,,,,,,,,,,,,,,,,,,,861543,001,2023-01-27_14h45.22.362,Info_measure_main_exp,2022.2.4,60.07313615592061,
0,131,5,5,2247,2247,absent_patch/patch0002247.jpg,absent_patch/patch0002247.jpg,masks/mask_003.jpg,,,,,,,,,,,,,0,14,14,35,,,,,0,0,0,2,,,,,,,,,,,,,,,,,,,,,,,,,,,,,,,,,,,,,,,,,,130.24845950800227,,,,,,,,,,,,,,,,,,,,,,,,,,,,,,,,,,,,,,,,,,,,,,,,,,129.54088093299652,130.01873125100974,130.1830601690017,130.24845950800227,,,,,,,,,,,,,,,,,,,,,,,,861543,001,2023-01-27_14h45.22.362,Info_measure_main_exp,2022.2.4,60.07313615592061,
0,131,5,5,2247,2247,absent_patch/patch0002247.jpg,absent_patch/patch0002247.jpg,masks/mask_005.jpg,,,,,,,,,,,,,0,14,14,35,,,,,0,1,1,4,,,,,,,,,,,,,,,,,,,,,,,,,,,,,,,,,,,,,,,,,,130.28221482200024,,,,,,,,,,,,,,,,,,,,,,,,,,,,,,,,,,,,,,,,,,,,,,,,,,,,,,,,,,,,,,,,,,,,,,,,,,,,,861543,001,2023-01-27_14h45.22.362,Info_measure_main_exp,2022.2.4,60.07313615592061,
0,131,5,5,2247,2247,absent_patch/patch0002247.jpg,absent_patch/patch0002247.jpg,masks/mask_004.jpg,,,,,,,,,,,,,0,14,14,35,,,,,0,2,2,3,,,,,,,,,,,,,,,,,,,,,,,,,,,,,,,,,,,,,,,,,,130.35610764099692,,,,,,,,,,,,,,,,,,,,,,,,,,,,,,,,,,,,,,,,,,,,,,,,,,,,,,,,,,,,,,,,,,,,,,,,,,,,,861543,001,2023-01-27_14h45.22.362,Info_measure_main_exp,2022.2.4,60.07313615592061,
0,131,5,5,2247,2247,absent_patch/patch0002247.jpg,absent_patch/patch0002247.jpg,masks/mask_001.jpg,,,,,,,,,,,,,0,14,14,35,,,,,0,3,3,0,,,,,,,,,,,,,,,,,,,,,,,,,,,,,,,,,,,,,,,,,,130.41774462600006,,,,,,,,,,,,,,,,,,,,,,,,,,,,,,,,,,,,,,,,,,,,,,,,,,,,,,,,,,,,,,,,,,,,,,,,,,,,,861543,001,2023-01-27_14h45.22.362,Info_measure_main_exp,2022.2.4,60.07313615592061,
0,131,5,5,2247,2247,absent_patch/patch0002247.jpg,absent_patch/patch0002247.jpg,masks/mask_002.jpg,,,,,,,,,,,,,0,14,14,35,,,,,0,4,4,1,,,,,,,,,,,,,,,,,,,,,,,,,,,,,,,,,,,,,,,,,,130.46790578900254,,,,,,,,,,,,,,,,,,,,,,,,,,,,,,,,,,,,,,,,,,,,,,,,,,,,,,,,,,,,,,,,,,,,,,,,,,,,,861543,001,2023-01-27_14h45.22.362,Info_measure_main_exp,2022.2.4,60.07313615592061,
0,131,5,5,2247,2247,absent_patch/patch0002247.jpg,absent_patch/patch0002247.jpg,,,,,,,,,,,,,,0,14,14,35,,,,,,,,,,,,,,,,,,,,,,,,,,,,,,,,,,,,,,,,,,,,,,,,,,,,,,,,,,,,,,,,,,0,0.6218937489902601,1,,,,,,,,,,,,,,,,,,,,,,,,,,,,,,,,,,,,0.004255269013810903,130.51324508200923,130.51324508200923,130.51324508200923,130.51324508200923,-0.10666666666666667,0.25222222222222224,1,0,0,response7disk,15,0.009155313993687741,131.14356743400276,131.14356743400276,131.14356743400276,131.14356743400276,-0.006666666666666667,0.0033333333333333335,1,0,0,center_square,861543,001,2023-01-27_14h45.22.362,Info_measure_main_exp,2022.2.4,60.07313615592061,
0,131,5,5,2271,1995,absent_patch/patch0002271.jpg,absent_patch/patch0001995.jpg,masks/mask_005.jpg,,,,,,,,,,,,,0,15,15,18,0,0,0,4,,,,,,,,,,,,,,,,,,,,,,,,,,,,,,,,,,,,,,,,,,,,,,132.3614858380024,,,,,,,,,,,,,,,,,,,,,,,,,,,,,,,,,,,,,,,,,,,,,,131.68019749200903,132.16515666899795,132.31657757899666,132.3614858380024,,,,,,,,,,,,,,,,,,,,,,,,,,,,861543,001,2023-01-27_14h45.22.362,Info_measure_main_exp,2022.2.4,60.07313615592061,
0,131,5,5,2271,1995,absent_patch/patch0002271.jpg,absent_patch/patch0001995.jpg,masks/mask_003.jpg,,,,,,,,,,,,,0,15,15,18,0,1,1,2,,,,,,,,,,,,,,,,,,,,,,,,,,,,,,,,,,,,,,,,,,,,,,132.40646999899764,,,,,,,,,,,,,,,,,,,,,,,,,,,,,,,,,,,,,,,,,,,,,,,,,,,,,,,,,,,,,,,,,,,,,,,,,,,,,861543,001,2023-01-27_14h45.22.362,Info_measure_main_exp,2022.2.4,60.07313615592061,
0,131,5,5,2271,1995,absent_patch/patch0002271.jpg,absent_patch/patch0001995.jpg,masks/mask_004.jpg,,,,,,,,,,,,,0,15,15,18,0,2,2,3,,,,,,,,,,,,,,,,,,,,,,,,,,,,,,,,,,,,,,,,,,,,,,132.46642837600666,,,,,,,,,,,,,,,,,,,,,,,,,,,,,,,,,,,,,,,,,,,,,,,,,,,,,,,,,,,,,,,,,,,,,,,,,,,,,861543,001,2023-01-27_14h45.22.362,Info_measure_main_exp,2022.2.4,60.07313615592061,
0,131,5,5,2271,1995,absent_patch/patch0002271.jpg,absent_patch/patch0001995.jpg,masks/mask_002.jpg,,,,,,,,,,,,,0,15,15,18,0,3,3,1,,,,,,,,,,,,,,,,,,,,,,,,,,,,,,,,,,,,,,,,,,,,,,132.52577911800472,,,,,,,,,,,,,,,,,,,,,,,,,,,,,,,,,,,,,,,,,,,,,,,,,,,,,,,,,,,,,,,,,,,,,,,,,,,,,861543,001,2023-01-27_14h45.22.362,Info_measure_main_exp,2022.2.4,60.07313615592061,
0,131,5,5,2271,1995,absent_patch/patch0002271.jpg,absent_patch/patch0001995.jpg,masks/mask_001.jpg,,,,,,,,,,,,,0,15,15,18,0,4,4,0,,,,,,,,,,,,,,,,,,,,,,,,,,,,,,,,,,,,,,,,,,,,,,132.5868859970069,,,,,,,,,,,,,,,,,,,,,,,,,,,,,,,,,,,,,,,,,,,,,,,,,,,,,,,,,,,,,,,,,,,,,,,,,,,,,861543,001,2023-01-27_14h45.22.362,Info_measure_main_exp,2022.2.4,60.07313615592061,
0,131,5,5,2271,1995,absent_patch/patch0002271.jpg,absent_patch/patch0001995.jpg,masks/mask_001.jpg,,,,,,,,,,,,,0,15,15,18,,,,,0,0,0,0,,,,,,,,,,,,,,,,,,,,,,,,,,,,,,,,,,,,,,,,,,133.3388811390032,,,,,,,,,,,,,,,,,,,,,,,,,,,,,,,,,,,,,,,,,,,,,,,,,,132.6393551210058,133.13686699900427,133.3388811390032,133.3388811390032,,,,,,,,,,,,,,,,,,,,,,,,861543,001,2023-01-27_14h45.22.362,Info_measure_main_exp,2022.2.4,60.07313615592061,
0,131,5,5,2271,1995,absent_patch/patch0002271.jpg,absent_patch/patch0001995.jpg,masks/mask_003.jpg,,,,,,,,,,,,,0,15,15,18,,,,,0,1,1,2,,,,,,,,,,,,,,,,,,,,,,,,,,,,,,,,,,,,,,,,,,133.38730212200608,,,,,,,,,,,,,,,,,,,,,,,,,,,,,,,,,,,,,,,,,,,,,,,,,,,,,,,,,,,,,,,,,,,,,,,,,,,,,861543,001,2023-01-27_14h45.22.362,Info_measure_main_exp,2022.2.4,60.07313615592061,
0,131,5,5,2271,1995,absent_patch/patch0002271.jpg,absent_patch/patch0001995.jpg,masks/mask_002.jpg,,,,,,,,,,,,,0,15,15,18,,,,,0,2,2,1,,,,,,,,,,,,,,,,,,,,,,,,,,,,,,,,,,,,,,,,,,133.45798083599948,,,,,,,,,,,,,,,,,,,,,,,,,,,,,,,,,,,,,,,,,,,,,,,,,,,,,,,,,,,,,,,,,,,,,,,,,,,,,861543,001,2023-01-27_14h45.22.362,Info_measure_main_exp,2022.2.4,60.07313615592061,
0,131,5,5,2271,1995,absent_patch/patch0002271.jpg,absent_patch/patch0001995.jpg,masks/mask_004.jpg,,,,,,,,,,,,,0,15,15,18,,,,,0,3,3,3,,,,,,,,,,,,,,,,,,,,,,,,,,,,,,,,,,,,,,,,,,133.50665893399855,,,,,,,,,,,,,,,,,,,,,,,,,,,,,,,,,,,,,,,,,,,,,,,,,,,,,,,,,,,,,,,,,,,,,,,,,,,,,861543,001,2023-01-27_14h45.22.362,Info_measure_main_exp,2022.2.4,60.07313615592061,
0,131,5,5,2271,1995,absent_patch/patch0002271.jpg,absent_patch/patch0001995.jpg,masks/mask_005.jpg,,,,,,,,,,,,,0,15,15,18,,,,,0,4,4,4,,,,,,,,,,,,,,,,,,,,,,,,,,,,,,,,,,,,,,,,,,133.57707507000305,,,,,,,,,,,,,,,,,,,,,,,,,,,,,,,,,,,,,,,,,,,,,,,,,,,,,,,,,,,,,,,,,,,,,,,,,,,,,861543,001,2023-01-27_14h45.22.362,Info_measure_main_exp,2022.2.4,60.07313615592061,
0,131,5,5,2271,1995,absent_patch/patch0002271.jpg,absent_patch/patch0001995.jpg,,,,,,,,,,,,,,0,15,15,18,,,,,,,,,,,,,,,,,,,,,,,,,,,,,,,,,,,,,,,,,,,,,,,,,,,,,,,,,,,,,,,,,,6,0.7502005690039368,1,,,,,,,,,,,,,,,,,,,,,,,,,,,,,,,,,,,,0.007879838012740947,133.62545612599934,133.62545612599934,133.62545612599934,133.62545612599934,0.18,0.09333333333333334,1,0,0,response1disk,16,0.015238893000059761,134.3895348340011,134.3895348340011,134.3895348340011,134.3895348340011,0.01888888888888889,0.01888888888888889,1,0,0,center_square,861543,001,2023-01-27_14h45.22.362,Info_measure_main_exp,2022.2.4,60.07313615592061,
0,131,5,5,2031,2163,absent_patch/patch0002031.jpg,absent_patch/patch0002163.jpg,masks/mask_002.jpg,,,,,,,,,,,,,0,16,16,86,0,0,0,1,,,,,,,,,,,,,,,,,,,,,,,,,,,,,,,,,,,,,,,,,,,,,,135.68264755500422,,,,,,,,,,,,,,,,,,,,,,,,,,,,,,,,,,,,,,,,,,,,,,135.00672615600342,135.49974292299885,135.68264755500422,135.68264755500422,,,,,,,,,,,,,,,,,,,,,,,,,,,,861543,001,2023-01-27_14h45.22.362,Info_measure_main_exp,2022.2.4,60.07313615592061,
0,131,5,5,2031,2163,absent_patch/patch0002031.jpg,absent_patch/patch0002163.jpg,masks/mask_005.jpg,,,,,,,,,,,,,0,16,16,86,0,1,1,4,,,,,,,,,,,,,,,,,,,,,,,,,,,,,,,,,,,,,,,,,,,,,,135.7427618960064,,,,,,,,,,,,,,,,,,,,,,,,,,,,,,,,,,,,,,,,,,,,,,,,,,,,,,,,,,,,,,,,,,,,,,,,,,,,,861543,001,2023-01-27_14h45.22.362,Info_measure_main_exp,2022.2.4,60.07313615592061,
0,131,5,5,2031,2163,absent_patch/patch0002031.jpg,absent_patch/patch0002163.jpg,masks/mask_004.jpg,,,,,,,,,,,,,0,16,16,86,0,2,2,3,,,,,,,,,,,,,,,,,,,,,,,,,,,,,,,,,,,,,,,,,,,,,,135.8023827660072,,,,,,,,,,,,,,,,,,,,,,,,,,,,,,,,,,,,,,,,,,,,,,,,,,,,,,,,,,,,,,,,,,,,,,,,,,,,,861543,001,2023-01-27_14h45.22.362,Info_measure_main_exp,2022.2.4,60.07313615592061,
0,131,5,5,2031,2163,absent_patch/patch0002031.jpg,absent_patch/patch0002163.jpg,masks/mask_003.jpg,,,,,,,,,,,,,0,16,16,86,0,3,3,2,,,,,,,,,,,,,,,,,,,,,,,,,,,,,,,,,,,,,,,,,,,,,,135.864439691999,,,,,,,,,,,,,,,,,,,,,,,,,,,,,,,,,,,,,,,,,,,,,,,,,,,,,,,,,,,,,,,,,,,,,,,,,,,,,861543,001,2023-01-27_14h45.22.362,Info_measure_main_exp,2022.2.4,60.07313615592061,
0,131,5,5,2031,2163,absent_patch/patch0002031.jpg,absent_patch/patch0002163.jpg,masks/mask_001.jpg,,,,,,,,,,,,,0,16,16,86,0,4,4,0,,,,,,,,,,,,,,,,,,,,,,,,,,,,,,,,,,,,,,,,,,,,,,135.9266964260023,,,,,,,,,,,,,,,,,,,,,,,,,,,,,,,,,,,,,,,,,,,,,,,,,,,,,,,,,,,,,,,,,,,,,,,,,,,,,861543,001,2023-01-27_14h45.22.362,Info_measure_main_exp,2022.2.4,60.07313615592061,
0,131,5,5,2031,2163,absent_patch/patch0002031.jpg,absent_patch/patch0002163.jpg,masks/mask_002.jpg,,,,,,,,,,,,,0,16,16,86,,,,,0,0,0,1,,,,,,,,,,,,,,,,,,,,,,,,,,,,,,,,,,,,,,,,,,136.6709246870014,,,,,,,,,,,,,,,,,,,,,,,,,,,,,,,,,,,,,,,,,,,,,,,,,,135.98008525800833,136.4524732669961,136.60369206599717,136.6709246870014,,,,,,,,,,,,,,,,,,,,,,,,861543,001,2023-01-27_14h45.22.362,Info_measure_main_exp,2022.2.4,60.07313615592061,
0,131,5,5,2031,2163,absent_patch/patch0002031.jpg,absent_patch/patch0002163.jpg,masks/mask_004.jpg,,,,,,,,,,,,,0,16,16,86,,,,,0,1,1,3,,,,,,,,,,,,,,,,,,,,,,,,,,,,,,,,,,,,,,,,,,136.71545752200473,,,,,,,,,,,,,,,,,,,,,,,,,,,,,,,,,,,,,,,,,,,,,,,,,,,,,,,,,,,,,,,,,,,,,,,,,,,,,861543,001,2023-01-27_14h45.22.362,Info_measure_main_exp,2022.2.4,60.07313615592061,
0,131,5,5,2031,2163,absent_patch/patch0002031.jpg,absent_patch/patch0002163.jpg,masks/mask_003.jpg,,,,,,,,,,,,,0,16,16,86,,,,,0,2,2,2,,,,,,,,,,,,,,,,,,,,,,,,,,,,,,,,,,,,,,,,,,136.7755211420008,,,,,,,,,,,,,,,,,,,,,,,,,,,,,,,,,,,,,,,,,,,,,,,,,,,,,,,,,,,,,,,,,,,,,,,,,,,,,861543,001,2023-01-27_14h45.22.362,Info_measure_main_exp,2022.2.4,60.07313615592061,
0,131,5,5,2031,2163,absent_patch/patch0002031.jpg,absent_patch/patch0002163.jpg,masks/mask_001.jpg,,,,,,,,,,,,,0,16,16,86,,,,,0,3,3,0,,,,,,,,,,,,,,,,,,,,,,,,,,,,,,,,,,,,,,,,,,136.83941601999686,,,,,,,,,,,,,,,,,,,,,,,,,,,,,,,,,,,,,,,,,,,,,,,,,,,,,,,,,,,,,,,,,,,,,,,,,,,,,861543,001,2023-01-27_14h45.22.362,Info_measure_main_exp,2022.2.4,60.07313615592061,
0,131,5,5,2031,2163,absent_patch/patch0002031.jpg,absent_patch/patch0002163.jpg,masks/mask_005.jpg,,,,,,,,,,,,,0,16,16,86,,,,,0,4,4,4,,,,,,,,,,,,,,,,,,,,,,,,,,,,,,,,,,,,,,,,,,136.91470088099595,,,,,,,,,,,,,,,,,,,,,,,,,,,,,,,,,,,,,,,,,,,,,,,,,,,,,,,,,,,,,,,,,,,,,,,,,,,,,861543,001,2023-01-27_14h45.22.362,Info_measure_main_exp,2022.2.4,60.07313615592061,
0,131,5,5,2031,2163,absent_patch/patch0002031.jpg,absent_patch/patch0002163.jpg,,,,,,,,,,,,,,0,16,16,86,,,,,,,,,,,,,,,,,,,,,,,,,,,,,,,,,,,,,,,,,,,,,,,,,,,,,,,,,,,,,,,,,,7,1.3037781310122227,1,,,,,,,,,,,,,,,,,,,,,,,,,,,,,,,,,,,,0.012099791012587957,136.97145060700132,136.97145060700132,136.97145060700132,136.97145060700132,0.1288888888888889,0.2477777777777778,1,0,0,response1disk,17,0.009392046005814336,138.27629921300104,138.27629921300104,138.27629921300104,138.27629921300104,0.0033333333333333335,0.02666666666666667,1,0,0,center_square,861543,001,2023-01-27_14h45.22.362,Info_measure_main_exp,2022.2.4,60.07313615592061,
0,131,5,5,2079,2247,absent_patch/patch0002079.jpg,absent_patch/patch0002247.jpg,masks/mask_003.jpg,,,,,,,,,,,,,0,17,17,60,0,0,0,2,,,,,,,,,,,,,,,,,,,,,,,,,,,,,,,,,,,,,,,,,,,,,,139.59139380599663,,,,,,,,,,,,,,,,,,,,,,,,,,,,,,,,,,,,,,,,,,,,,,138.88219123599993,139.3693601910054,139.52751415400417,139.59139380599663,,,,,,,,,,,,,,,,,,,,,,,,,,,,861543,001,2023-01-27_14h45.22.362,Info_measure_main_exp,2022.2.4,60.07313615592061,
0,131,5,5,2079,2247,absent_patch/patch0002079.jpg,absent_patch/patch0002247.jpg,masks/mask_005.jpg,,,,,,,,,,,,,0,17,17,60,0,1,1,4,,,,,,,,,,,,,,,,,,,,,,,,,,,,,,,,,,,,,,,,,,,,,,139.64484042700497,,,,,,,,,,,,,,,,,,,,,,,,,,,,,,,,,,,,,,,,,,,,,,,,,,,,,,,,,,,,,,,,,,,,,,,,,,,,,861543,001,2023-01-27_14h45.22.362,Info_measure_main_exp,2022.2.4,60.07313615592061,
0,131,5,5,2079,2247,absent_patch/patch0002079.jpg,absent_patch/patch0002247.jpg,masks/mask_002.jpg,,,,,,,,,,,,,0,17,17,60,0,2,2,1,,,,,,,,,,,,,,,,,,,,,,,,,,,,,,,,,,,,,,,,,,,,,,139.69996807700954,,,,,,,,,,,,,,,,,,,,,,,,,,,,,,,,,,,,,,,,,,,,,,,,,,,,,,,,,,,,,,,,,,,,,,,,,,,,,861543,001,2023-01-27_14h45.22.362,Info_measure_main_exp,2022.2.4,60.07313615592061,
0,131,5,5,2079,2247,absent_patch/patch0002079.jpg,absent_patch/patch0002247.jpg,masks/mask_001.jpg,,,,,,,,,,,,,0,17,17,60,0,3,3,0,,,,,,,,,,,,,,,,,,,,,,,,,,,,,,,,,,,,,,,,,,,,,,139.75320014900353,,,,,,,,,,,,,,,,,,,,,,,,,,,,,,,,,,,,,,,,,,,,,,,,,,,,,,,,,,,,,,,,,,,,,,,,,,,,,861543,001,2023-01-27_14h45.22.362,Info_measure_main_exp,2022.2.4,60.07313615592061,
0,131,5,5,2079,2247,absent_patch/patch0002079.jpg,absent_patch/patch0002247.jpg,masks/mask_004.jpg,,,,,,,,,,,,,0,17,17,60,0,4,4,3,,,,,,,,,,,,,,,,,,,,,,,,,,,,,,,,,,,,,,,,,,,,,,139.8208783220034,,,,,,,,,,,,,,,,,,,,,,,,,,,,,,,,,,,,,,,,,,,,,,,,,,,,,,,,,,,,,,,,,,,,,,,,,,,,,861543,001,2023-01-27_14h45.22.362,Info_measure_main_exp,2022.2.4,60.07313615592061,
0,131,5,5,2079,2247,absent_patch/patch0002079.jpg,absent_patch/patch0002247.jpg,masks/mask_003.jpg,,,,,,,,,,,,,0,17,17,60,,,,,0,0,0,2,,,,,,,,,,,,,,,,,,,,,,,,,,,,,,,,,,,,,,,,,,140.56496841000626,,,,,,,,,,,,,,,,,,,,,,,,,,,,,,,,,,,,,,,,,,,,,,,,,,139.86070292700606,140.33596613600093,140.49222072400153,140.56496841000626,,,,,,,,,,,,,,,,,,,,,,,,861543,001,2023-01-27_14h45.22.362,Info_measure_main_exp,2022.2.4,60.07313615592061,
0,131,5,5,2079,2247,absent_patch/patch0002079.jpg,absent_patch/patch0002247.jpg,masks/mask_004.jpg,,,,,,,,,,,,,0,17,17,60,,,,,0,1,1,3,,,,,,,,,,,,,,,,,,,,,,,,,,,,,,,,,,,,,,,,,,140.63719527699868,,,,,,,,,,,,,,,,,,,,,,,,,,,,,,,,,,,,,,,,,,,,,,,,,,,,,,,,,,,,,,,,,,,,,,,,,,,,,861543,001,2023-01-27_14h45.22.362,Info_measure_main_exp,2022.2.4,60.07313615592061,
0,131,5,5,2079,2247,absent_patch/patch0002079.jpg,absent_patch/patch0002247.jpg,masks/mask_002.jpg,,,,,,,,,,,,,0,17,17,60,,,,,0,2,2,1,,,,,,,,,,,,,,,,,,,,,,,,,,,,,,,,,,,,,,,,,,140.66623949600034,,,,,,,,,,,,,,,,,,,,,,,,,,,,,,,,,,,,,,,,,,,,,,,,,,,,,,,,,,,,,,,,,,,,,,,,,,,,,861543,001,2023-01-27_14h45.22.362,Info_measure_main_exp,2022.2.4,60.07313615592061,
0,131,5,5,2079,2247,absent_patch/patch0002079.jpg,absent_patch/patch0002247.jpg,masks/mask_005.jpg,,,,,,,,,,,,,0,17,17,60,,,,,0,3,3,4,,,,,,,,,,,,,,,,,,,,,,,,,,,,,,,,,,,,,,,,,,140.74265575299796,,,,,,,,,,,,,,,,,,,,,,,,,,,,,,,,,,,,,,,,,,,,,,,,,,,,,,,,,,,,,,,,,,,,,,,,,,,,,861543,001,2023-01-27_14h45.22.362,Info_measure_main_exp,2022.2.4,60.07313615592061,
0,131,5,5,2079,2247,absent_patch/patch0002079.jpg,absent_patch/patch0002247.jpg,masks/mask_001.jpg,,,,,,,,,,,,,0,17,17,60,,,,,0,4,4,0,,,,,,,,,,,,,,,,,,,,,,,,,,,,,,,,,,,,,,,,,,140.7942755719996,,,,,,,,,,,,,,,,,,,,,,,,,,,,,,,,,,,,,,,,,,,,,,,,,,,,,,,,,,,,,,,,,,,,,,,,,,,,,861543,001,2023-01-27_14h45.22.362,Info_measure_main_exp,2022.2.4,60.07313615592061,
,,,,,,,,,,,,,,,,,,,,,,,,,,,,,,,,,,,,,,,,,,,,,,,,,,,,,,,,,,,,,,,,,,,,,,,,,,,,,,,,,,,,,,,,,,,,,,,,,,,,,,,,,,,,,,,,,,,,,,,,,,,,,,,,0.021080726000946015,140.86159948800923,140.86159948800923,140.86159948800923,140.86159948800923,,,,,,,,,,,,,,,,,,,,,,,,,
