participant,session,date,expName,psychopyVersion,OS,frameRate,space_press_continue.keys,space_press_continue.rt,space_press_continue_2.keys,space_press_continue_2.rt,space_press_continue_3.keys,space_press_continue_3.rt,space_press_continue_4.keys,space_press_continue_4.rt,space_press_continue_5.keys,space_press_continue_5.rt,space_press_continue_6.keys,space_press_continue_6.rt,prac_mask_loop_1.thisRepN,prac_mask_loop_1.thisTrialN,prac_mask_loop_1.thisN,prac_mask_loop_1.thisIndex,prac_mask_loop_1.ran,mask_name,prac_mask_loop_2.thisRepN,prac_mask_loop_2.thisTrialN,prac_mask_loop_2.thisN,prac_mask_loop_2.thisIndex,prac_mask_loop_2.ran,mouse_2.x,mouse_2.y,mouse_2.leftButton,mouse_2.midButton,mouse_2.rightButton,mouse_2.clicked_name,similarity,response_time,Pass,mouse_12.x,mouse_12.y,mouse_12.leftButton,mouse_12.midButton,mouse_12.rightButton,mouse_12.clicked_name,prac_loop.thisRepN,prac_loop.thisTrialN,prac_loop.thisN,prac_loop.thisIndex,prac_loop.ran,Pair_type,Image_num,Patch_1_loc,Patch_2_loc,Patch_1_info,Patch_2_info,Patch_1_name,Patch_2_name,mouse_1.x,mouse_1.y,mouse_1.leftButton,mouse_1.midButton,mouse_1.rightButton,mouse_1.time,mouse_1.clicked_name,space_press_continue_7.keys,space_press_continue_7.rt,mask_loop.thisRepN,mask_loop.thisTrialN,mask_loop.thisN,mask_loop.thisIndex,mask_loop.ran,mask_loop_2.thisRepN,mask_loop_2.thisTrialN,mask_loop_2.thisN,mask_loop_2.thisIndex,mask_loop_2.ran,mouse.x,mouse.y,mouse.leftButton,mouse.midButton,mouse.rightButton,mouse.clicked_name,trialNumber,mouse_11.x,mouse_11.y,mouse_11.leftButton,mouse_11.midButton,mouse_11.rightButton,mouse_11.clicked_name,first_pass_loop.thisRepN,first_pass_loop.thisTrialN,first_pass_loop.thisN,first_pass_loop.thisIndex,first_pass_loop.ran,mask_loop_3.thisRepN,mask_loop_3.thisTrialN,mask_loop_3.thisN,mask_loop_3.thisIndex,mask_loop_3.ran,mask_loop_4.thisRepN,mask_loop_4.thisTrialN,mask_loop_4.thisN,mask_loop_4.thisIndex,mask_loop_4.ran,mouse_3.x,mouse_3.y,mouse_3.leftButton,mouse_3.midButton,mouse_3.rightButton,mouse_3.clicked_name,double_pass_loop.thisRepN,double_pass_loop.thisTrialN,double_pass_loop.thisN,double_pass_loop.thisIndex,double_pass_loop.ran,space_exit.keys,space_exit.rt
875271,001,2022-11-20_17h52.43.107,Info_measure_main_exp,2022.2.2,Win32,60.0348202,,,,,,,,,,,,,,,,,,,,,,,,,,,,,,,,,,,,,,,,,,,,,,,,,,,,,,,,,,,,,,,,,,,,,,,,,,,,,,,,,,,,,,,,,,,,,,,,,,,,,,,,,,,,,,,
875271,001,2022-11-20_17h52.43.107,Info_measure_main_exp,2022.2.2,Win32,60.0348202,,,,,,,,,,,,,,,,,,,,,,,,,,,,,,,,,,,,,,,,,,,,,,,,,,,,,,,,,,,,,,,,,,,,,,,,,,,,,,,,,,,,,,,,,,,,,,,,,,,,,,,,,,,,,,,
875271,001,2022-11-20_17h52.43.107,Info_measure_main_exp,2022.2.2,Win32,60.0348202,space,4.3572,,,,,,,,,,,,,,,,,,,,,,,,,,,,,,,,,,,,,,,,,,,,,,,,,,,,,,,,,,,,,,,,,,,,,,,,,,,,,,,,,,,,,,,,,,,,,,,,,,,,,,,,,,,,,
875271,001,2022-11-20_17h52.43.107,Info_measure_main_exp,2022.2.2,Win32,60.0348202,,,space,9.105,,,,,,,,,,,,,,,,,,,,,,,,,,,,,,,,,,,,,,,,,,,,,,,,,,,,,,,,,,,,,,,,,,,,,,,,,,,,,,,,,,,,,,,,,,,,,,,,,,,,,,,,,,,
875271,001,2022-11-20_17h52.43.107,Info_measure_main_exp,2022.2.2,Win32,60.0348202,,,,,space,5.5731,,,,,,,,,,,,,,,,,,,,,,,,,,,,,,,,,,,,,,,,,,,,,,,,,,,,,,,,,,,,,,,,,,,,,,,,,,,,,,,,,,,,,,,,,,,,,,,,,,,,,,,,,
875271,001,2022-11-20_17h52.43.107,Info_measure_main_exp,2022.2.2,Win32,60.0348202,,,,,,,space,5.532,,,,,,,,,,,,,,,,,,,,,,,,,,,,,,,,,,,,,,,,,,,,,,,,,,,,,,,,,,,,,,,,,,,,,,,,,,,,,,,,,,,,,,,,,,,,,,,,,,,,,,,
875271,001,2022-11-20_17h52.43.107,Info_measure_main_exp,2022.2.2,Win32,60.0348202,,,,,,,,,space,4.8512,,,,,,,,,,,,,,,,,,,,,,,,,,,,,,,,,,,,,,,,,,,,,,,,,,,,,,,,,,,,,,,,,,,,,,,,,,,,,,,,,,,,,,,,,,,,,,,,,,,,,
875271,001,2022-11-20_17h52.43.107,Info_measure_main_exp,2022.2.2,Win32,60.0348202,,,,,,,,,,,space,1.5788,,,,,,,,,,,,,,,,,,,,,,,,,,,,,,,,,,,,,,,,,,,,,,,,,,,,,,,,,,,,,,,,,,,,,,,,,,,,,,,,,,,,,,,,,,,,,,,,,,,
875271,001,2022-11-20_17h52.43.107,Info_measure_main_exp,2022.2.2,Win32,60.0348202,,,,,,,,,,,,,0,0,0,4,1,masks/mask_005.jpg,,,,,,,,,,,,,,,,,,,,,,,,,,,,,,,,,,,,,,,,,,,,,,,,,,,,,,,,,,,,,,,,,,,,,,,,,,,,,,,,,,,,,,,,,,,,,
875271,001,2022-11-20_17h52.43.107,Info_measure_main_exp,2022.2.2,Win32,60.0348202,,,,,,,,,,,,,0,1,1,1,1,masks/mask_002.jpg,,,,,,,,,,,,,,,,,,,,,,,,,,,,,,,,,,,,,,,,,,,,,,,,,,,,,,,,,,,,,,,,,,,,,,,,,,,,,,,,,,,,,,,,,,,,,
875271,001,2022-11-20_17h52.43.107,Info_measure_main_exp,2022.2.2,Win32,60.0348202,,,,,,,,,,,,,0,2,2,0,1,masks/mask_001.jpg,,,,,,,,,,,,,,,,,,,,,,,,,,,,,,,,,,,,,,,,,,,,,,,,,,,,,,,,,,,,,,,,,,,,,,,,,,,,,,,,,,,,,,,,,,,,,
875271,001,2022-11-20_17h52.43.107,Info_measure_main_exp,2022.2.2,Win32,60.0348202,,,,,,,,,,,,,0,3,3,3,1,masks/mask_004.jpg,,,,,,,,,,,,,,,,,,,,,,,,,,,,,,,,,,,,,,,,,,,,,,,,,,,,,,,,,,,,,,,,,,,,,,,,,,,,,,,,,,,,,,,,,,,,,
875271,001,2022-11-20_17h52.43.107,Info_measure_main_exp,2022.2.2,Win32,60.0348202,,,,,,,,,,,,,0,4,4,2,1,masks/mask_003.jpg,,,,,,,,,,,,,,,,,,,,,,,,,,,,,,,,,,,,,,,,,,,,,,,,,,,,,,,,,,,,,,,,,,,,,,,,,,,,,,,,,,,,,,,,,,,,,
875271,001,2022-11-20_17h52.43.107,Info_measure_main_exp,2022.2.2,Win32,60.0348202,,,,,,,,,,,,,,,,,,masks/mask_005.jpg,0,0,0,4,1,,,,,,,,,,,,,,,,,,,,,,,,,,,,,,,,,,,,,,,,,,,,,,,,,,,,,,,,,,,,,,,,,,,,,,,,,,,,,,,,,,,,,,,,
875271,001,2022-11-20_17h52.43.107,Info_measure_main_exp,2022.2.2,Win32,60.0348202,,,,,,,,,,,,,,,,,,masks/mask_002.jpg,0,1,1,1,1,,,,,,,,,,,,,,,,,,,,,,,,,,,,,,,,,,,,,,,,,,,,,,,,,,,,,,,,,,,,,,,,,,,,,,,,,,,,,,,,,,,,,,,,
875271,001,2022-11-20_17h52.43.107,Info_measure_main_exp,2022.2.2,Win32,60.0348202,,,,,,,,,,,,,,,,,,masks/mask_001.jpg,0,2,2,0,1,,,,,,,,,,,,,,,,,,,,,,,,,,,,,,,,,,,,,,,,,,,,,,,,,,,,,,,,,,,,,,,,,,,,,,,,,,,,,,,,,,,,,,,,
875271,001,2022-11-20_17h52.43.107,Info_measure_main_exp,2022.2.2,Win32,60.0348202,,,,,,,,,,,,,,,,,,masks/mask_004.jpg,0,3,3,3,1,,,,,,,,,,,,,,,,,,,,,,,,,,,,,,,,,,,,,,,,,,,,,,,,,,,,,,,,,,,,,,,,,,,,,,,,,,,,,,,,,,,,,,,,
875271,001,2022-11-20_17h52.43.107,Info_measure_main_exp,2022.2.2,Win32,60.0348202,,,,,,,,,,,,,,,,,,masks/mask_003.jpg,0,4,4,2,1,,,,,,,,,,,,,,,,,,,,,,,,,,,,,,,,,,,,,,,,,,,,,,,,,,,,,,,,,,,,,,,,,,,,,,,,,,,,,,,,,,,,,,,,
875271,001,2022-11-20_17h52.43.107,Info_measure_main_exp,2022.2.2,Win32,60.0348202,,,,,,,,,,,,,,,,,,,,,,,,-0.038333333,0.115,1,0,0,response7disk,0,34.6903,1,-0.006666667,0.006666667,1,0,0,center_square,0,0,0,0,1,0,131,5,5,2370,2406,prac_patch/patch0002370.jpg,prac_patch/patch0002406.jpg,,,,,,,,,,,,,,,,,,,,,,,,,,,,,,,,,,,,,,,,,,,,,,,,,,,,,,,,,,,,
875271,001,2022-11-20_17h52.43.107,Info_measure_main_exp,2022.2.2,Win32,60.0348202,,,,,,,,,,,,,0,0,0,2,1,masks/mask_003.jpg,,,,,,,,,,,,,,,,,,,,,,,,,,,,,,,,,,,,,,,,,,,,,,,,,,,,,,,,,,,,,,,,,,,,,,,,,,,,,,,,,,,,,,,,,,,,,
875271,001,2022-11-20_17h52.43.107,Info_measure_main_exp,2022.2.2,Win32,60.0348202,,,,,,,,,,,,,0,1,1,1,1,masks/mask_002.jpg,,,,,,,,,,,,,,,,,,,,,,,,,,,,,,,,,,,,,,,,,,,,,,,,,,,,,,,,,,,,,,,,,,,,,,,,,,,,,,,,,,,,,,,,,,,,,
875271,001,2022-11-20_17h52.43.107,Info_measure_main_exp,2022.2.2,Win32,60.0348202,,,,,,,,,,,,,0,2,2,4,1,masks/mask_005.jpg,,,,,,,,,,,,,,,,,,,,,,,,,,,,,,,,,,,,,,,,,,,,,,,,,,,,,,,,,,,,,,,,,,,,,,,,,,,,,,,,,,,,,,,,,,,,,
875271,001,2022-11-20_17h52.43.107,Info_measure_main_exp,2022.2.2,Win32,60.0348202,,,,,,,,,,,,,0,3,3,3,1,masks/mask_004.jpg,,,,,,,,,,,,,,,,,,,,,,,,,,,,,,,,,,,,,,,,,,,,,,,,,,,,,,,,,,,,,,,,,,,,,,,,,,,,,,,,,,,,,,,,,,,,,
875271,001,2022-11-20_17h52.43.107,Info_measure_main_exp,2022.2.2,Win32,60.0348202,,,,,,,,,,,,,0,4,4,0,1,masks/mask_001.jpg,,,,,,,,,,,,,,,,,,,,,,,,,,,,,,,,,,,,,,,,,,,,,,,,,,,,,,,,,,,,,,,,,,,,,,,,,,,,,,,,,,,,,,,,,,,,,
875271,001,2022-11-20_17h52.43.107,Info_measure_main_exp,2022.2.2,Win32,60.0348202,,,,,,,,,,,,,,,,,,masks/mask_002.jpg,0,0,0,1,1,,,,,,,,,,,,,,,,,,,,,,,,,,,,,,,,,,,,,,,,,,,,,,,,,,,,,,,,,,,,,,,,,,,,,,,,,,,,,,,,,,,,,,,,
875271,001,2022-11-20_17h52.43.107,Info_measure_main_exp,2022.2.2,Win32,60.0348202,,,,,,,,,,,,,,,,,,masks/mask_004.jpg,0,1,1,3,1,,,,,,,,,,,,,,,,,,,,,,,,,,,,,,,,,,,,,,,,,,,,,,,,,,,,,,,,,,,,,,,,,,,,,,,,,,,,,,,,,,,,,,,,
875271,001,2022-11-20_17h52.43.107,Info_measure_main_exp,2022.2.2,Win32,60.0348202,,,,,,,,,,,,,,,,,,masks/mask_001.jpg,0,2,2,0,1,,,,,,,,,,,,,,,,,,,,,,,,,,,,,,,,,,,,,,,,,,,,,,,,,,,,,,,,,,,,,,,,,,,,,,,,,,,,,,,,,,,,,,,,
875271,001,2022-11-20_17h52.43.107,Info_measure_main_exp,2022.2.2,Win32,60.0348202,,,,,,,,,,,,,,,,,,masks/mask_005.jpg,0,3,3,4,1,,,,,,,,,,,,,,,,,,,,,,,,,,,,,,,,,,,,,,,,,,,,,,,,,,,,,,,,,,,,,,,,,,,,,,,,,,,,,,,,,,,,,,,,
875271,001,2022-11-20_17h52.43.107,Info_measure_main_exp,2022.2.2,Win32,60.0348202,,,,,,,,,,,,,,,,,,masks/mask_003.jpg,0,4,4,2,1,,,,,,,,,,,,,,,,,,,,,,,,,,,,,,,,,,,,,,,,,,,,,,,,,,,,,,,,,,,,,,,,,,,,,,,,,,,,,,,,,,,,,,,,
875271,001,2022-11-20_17h52.43.107,Info_measure_main_exp,2022.2.2,Win32,60.0348202,,,,,,,,,,,,,,,,,,,,,,,,0.126666667,-0.075,1,0,0,response3disk,5,45.9181,1,-0.009166667,0.0075,1,0,0,center_square,0,1,1,1,1,0,131,5,5,2514,2490,prac_patch/patch0002514.jpg,prac_patch/patch0002490.jpg,,,,,,,,,,,,,,,,,,,,,,,,,,,,,,,,,,,,,,,,,,,,,,,,,,,,,,,,,,,,
875271,001,2022-11-20_17h52.43.107,Info_measure_main_exp,2022.2.2,Win32,60.0348202,,,,,,,,,,,,,0,0,0,3,1,masks/mask_004.jpg,,,,,,,,,,,,,,,,,,,,,,,,,,,,,,,,,,,,,,,,,,,,,,,,,,,,,,,,,,,,,,,,,,,,,,,,,,,,,,,,,,,,,,,,,,,,,
875271,001,2022-11-20_17h52.43.107,Info_measure_main_exp,2022.2.2,Win32,60.0348202,,,,,,,,,,,,,0,1,1,4,1,masks/mask_005.jpg,,,,,,,,,,,,,,,,,,,,,,,,,,,,,,,,,,,,,,,,,,,,,,,,,,,,,,,,,,,,,,,,,,,,,,,,,,,,,,,,,,,,,,,,,,,,,
875271,001,2022-11-20_17h52.43.107,Info_measure_main_exp,2022.2.2,Win32,60.0348202,,,,,,,,,,,,,0,2,2,0,1,masks/mask_001.jpg,,,,,,,,,,,,,,,,,,,,,,,,,,,,,,,,,,,,,,,,,,,,,,,,,,,,,,,,,,,,,,,,,,,,,,,,,,,,,,,,,,,,,,,,,,,,,
875271,001,2022-11-20_17h52.43.107,Info_measure_main_exp,2022.2.2,Win32,60.0348202,,,,,,,,,,,,,0,3,3,1,1,masks/mask_002.jpg,,,,,,,,,,,,,,,,,,,,,,,,,,,,,,,,,,,,,,,,,,,,,,,,,,,,,,,,,,,,,,,,,,,,,,,,,,,,,,,,,,,,,,,,,,,,,
875271,001,2022-11-20_17h52.43.107,Info_measure_main_exp,2022.2.2,Win32,60.0348202,,,,,,,,,,,,,0,4,4,2,1,masks/mask_003.jpg,,,,,,,,,,,,,,,,,,,,,,,,,,,,,,,,,,,,,,,,,,,,,,,,,,,,,,,,,,,,,,,,,,,,,,,,,,,,,,,,,,,,,,,,,,,,,
875271,001,2022-11-20_17h52.43.107,Info_measure_main_exp,2022.2.2,Win32,60.0348202,,,,,,,,,,,,,,,,,,masks/mask_002.jpg,0,0,0,1,1,,,,,,,,,,,,,,,,,,,,,,,,,,,,,,,,,,,,,,,,,,,,,,,,,,,,,,,,,,,,,,,,,,,,,,,,,,,,,,,,,,,,,,,,
875271,001,2022-11-20_17h52.43.107,Info_measure_main_exp,2022.2.2,Win32,60.0348202,,,,,,,,,,,,,,,,,,masks/mask_005.jpg,0,1,1,4,1,,,,,,,,,,,,,,,,,,,,,,,,,,,,,,,,,,,,,,,,,,,,,,,,,,,,,,,,,,,,,,,,,,,,,,,,,,,,,,,,,,,,,,,,
875271,001,2022-11-20_17h52.43.107,Info_measure_main_exp,2022.2.2,Win32,60.0348202,,,,,,,,,,,,,,,,,,masks/mask_003.jpg,0,2,2,2,1,,,,,,,,,,,,,,,,,,,,,,,,,,,,,,,,,,,,,,,,,,,,,,,,,,,,,,,,,,,,,,,,,,,,,,,,,,,,,,,,,,,,,,,,
875271,001,2022-11-20_17h52.43.107,Info_measure_main_exp,2022.2.2,Win32,60.0348202,,,,,,,,,,,,,,,,,,masks/mask_001.jpg,0,3,3,0,1,,,,,,,,,,,,,,,,,,,,,,,,,,,,,,,,,,,,,,,,,,,,,,,,,,,,,,,,,,,,,,,,,,,,,,,,,,,,,,,,,,,,,,,,
875271,001,2022-11-20_17h52.43.107,Info_measure_main_exp,2022.2.2,Win32,60.0348202,,,,,,,,,,,,,,,,,,masks/mask_004.jpg,0,4,4,3,1,,,,,,,,,,,,,,,,,,,,,,,,,,,,,,,,,,,,,,,,,,,,,,,,,,,,,,,,,,,,,,,,,,,,,,,,,,,,,,,,,,,,,,,,
875271,001,2022-11-20_17h52.43.107,Info_measure_main_exp,2022.2.2,Win32,60.0348202,,,,,,,,,,,,,,,,,,,,,,,,-0.034166667,0.104166667,1,0,0,response7disk,0,55.733,1,0.005,0.003333333,1,0,0,center_square,0,2,2,2,1,0,131,5,5,2526,2526,prac_patch/patch0002526.jpg,prac_patch/patch0002526.jpg,,,,,,,,,,,,,,,,,,,,,,,,,,,,,,,,,,,,,,,,,,,,,,,,,,,,,,,,,,,,
875271,001,2022-11-20_17h52.43.107,Info_measure_main_exp,2022.2.2,Win32,60.0348202,,,,,,,,,,,,,,,,,,,,,,,,,,,,,,,,,,,,,,,,,,,,,,,,,,,,,,,,,,,space,64.9847,,,,,,,,,,,,,,,,,,,,,,,,,,,,,,,,,,,,,,,,,,,,,,,,,,,
875271,001,2022-11-20_17h52.43.107,Info_measure_main_exp,2022.2.2,Win32,60.0348202,,,,,,,,,,,,,,,,,,masks/mask_003.jpg,,,,,,,,,,,,,,,,,,,,,,,,,,,,,,,,,,,,,,,,,,,0,0,0,2,1,,,,,,,,,,,,,,,,,,,,,,,,,,,,,,,,,,,,,,,,,,,,,,
875271,001,2022-11-20_17h52.43.107,Info_measure_main_exp,2022.2.2,Win32,60.0348202,,,,,,,,,,,,,,,,,,masks/mask_005.jpg,,,,,,,,,,,,,,,,,,,,,,,,,,,,,,,,,,,,,,,,,,,0,1,1,4,1,,,,,,,,,,,,,,,,,,,,,,,,,,,,,,,,,,,,,,,,,,,,,,
875271,001,2022-11-20_17h52.43.107,Info_measure_main_exp,2022.2.2,Win32,60.0348202,,,,,,,,,,,,,,,,,,masks/mask_001.jpg,,,,,,,,,,,,,,,,,,,,,,,,,,,,,,,,,,,,,,,,,,,0,2,2,0,1,,,,,,,,,,,,,,,,,,,,,,,,,,,,,,,,,,,,,,,,,,,,,,
875271,001,2022-11-20_17h52.43.107,Info_measure_main_exp,2022.2.2,Win32,60.0348202,,,,,,,,,,,,,,,,,,masks/mask_002.jpg,,,,,,,,,,,,,,,,,,,,,,,,,,,,,,,,,,,,,,,,,,,0,3,3,1,1,,,,,,,,,,,,,,,,,,,,,,,,,,,,,,,,,,,,,,,,,,,,,,
875271,001,2022-11-20_17h52.43.107,Info_measure_main_exp,2022.2.2,Win32,60.0348202,,,,,,,,,,,,,,,,,,masks/mask_004.jpg,,,,,,,,,,,,,,,,,,,,,,,,,,,,,,,,,,,,,,,,,,,0,4,4,3,1,,,,,,,,,,,,,,,,,,,,,,,,,,,,,,,,,,,,,,,,,,,,,,
875271,001,2022-11-20_17h52.43.107,Info_measure_main_exp,2022.2.2,Win32,60.0348202,,,,,,,,,,,,,,,,,,masks/mask_005.jpg,,,,,,,,,,,,,,,,,,,,,,,,,,,,,,,,,,,,,,,,,,,,,,,,0,0,0,4,1,,,,,,,,,,,,,,,,,,,,,,,,,,,,,,,,,,,,,,,,,
875271,001,2022-11-20_17h52.43.107,Info_measure_main_exp,2022.2.2,Win32,60.0348202,,,,,,,,,,,,,,,,,,masks/mask_002.jpg,,,,,,,,,,,,,,,,,,,,,,,,,,,,,,,,,,,,,,,,,,,,,,,,0,1,1,1,1,,,,,,,,,,,,,,,,,,,,,,,,,,,,,,,,,,,,,,,,,
875271,001,2022-11-20_17h52.43.107,Info_measure_main_exp,2022.2.2,Win32,60.0348202,,,,,,,,,,,,,,,,,,masks/mask_004.jpg,,,,,,,,,,,,,,,,,,,,,,,,,,,,,,,,,,,,,,,,,,,,,,,,0,2,2,3,1,,,,,,,,,,,,,,,,,,,,,,,,,,,,,,,,,,,,,,,,,
875271,001,2022-11-20_17h52.43.107,Info_measure_main_exp,2022.2.2,Win32,60.0348202,,,,,,,,,,,,,,,,,,masks/mask_001.jpg,,,,,,,,,,,,,,,,,,,,,,,,,,,,,,,,,,,,,,,,,,,,,,,,0,3,3,0,1,,,,,,,,,,,,,,,,,,,,,,,,,,,,,,,,,,,,,,,,,
875271,001,2022-11-20_17h52.43.107,Info_measure_main_exp,2022.2.2,Win32,60.0348202,,,,,,,,,,,,,,,,,,masks/mask_003.jpg,,,,,,,,,,,,,,,,,,,,,,,,,,,,,,,,,,,,,,,,,,,,,,,,0,4,4,2,1,,,,,,,,,,,,,,,,,,,,,,,,,,,,,,,,,,,,,,,,,
875271,001,2022-11-20_17h52.43.107,Info_measure_main_exp,2022.2.2,Win32,60.0348202,,,,,,,,,,,,,,,,,,,,,,,,,,,,,,4,1.8079,1,,,,,,,,,,,,0,131,5,5,1950,2298,absent_patch/patch0001950.jpg,absent_patch/patch0002298.jpg,,,,,,,,,,,,,,,,,,,,0.009166667,-0.119166667,1,0,0,response3disk,1,0.009166667,0.014166667,1,0,0,center_square,0,0,0,18,1,,,,,,,,,,,,,,,,,,,,,,,
875271,001,2022-11-20_17h52.43.107,Info_measure_main_exp,2022.2.2,Win32,60.0348202,,,,,,,,,,,,,,,,,,masks/mask_003.jpg,,,,,,,,,,,,,,,,,,,,,,,,,,,,,,,,,,,,,,,,,,,0,0,0,2,1,,,,,,,,,,,,,,,,,,,,,,,,,,,,,,,,,,,,,,,,,,,,,,
875271,001,2022-11-20_17h52.43.107,Info_measure_main_exp,2022.2.2,Win32,60.0348202,,,,,,,,,,,,,,,,,,masks/mask_002.jpg,,,,,,,,,,,,,,,,,,,,,,,,,,,,,,,,,,,,,,,,,,,0,1,1,1,1,,,,,,,,,,,,,,,,,,,,,,,,,,,,,,,,,,,,,,,,,,,,,,
875271,001,2022-11-20_17h52.43.107,Info_measure_main_exp,2022.2.2,Win32,60.0348202,,,,,,,,,,,,,,,,,,masks/mask_004.jpg,,,,,,,,,,,,,,,,,,,,,,,,,,,,,,,,,,,,,,,,,,,0,2,2,3,1,,,,,,,,,,,,,,,,,,,,,,,,,,,,,,,,,,,,,,,,,,,,,,
875271,001,2022-11-20_17h52.43.107,Info_measure_main_exp,2022.2.2,Win32,60.0348202,,,,,,,,,,,,,,,,,,masks/mask_005.jpg,,,,,,,,,,,,,,,,,,,,,,,,,,,,,,,,,,,,,,,,,,,0,3,3,4,1,,,,,,,,,,,,,,,,,,,,,,,,,,,,,,,,,,,,,,,,,,,,,,
875271,001,2022-11-20_17h52.43.107,Info_measure_main_exp,2022.2.2,Win32,60.0348202,,,,,,,,,,,,,,,,,,masks/mask_001.jpg,,,,,,,,,,,,,,,,,,,,,,,,,,,,,,,,,,,,,,,,,,,0,4,4,0,1,,,,,,,,,,,,,,,,,,,,,,,,,,,,,,,,,,,,,,,,,,,,,,
875271,001,2022-11-20_17h52.43.107,Info_measure_main_exp,2022.2.2,Win32,60.0348202,,,,,,,,,,,,,,,,,,masks/mask_001.jpg,,,,,,,,,,,,,,,,,,,,,,,,,,,,,,,,,,,,,,,,,,,,,,,,0,0,0,0,1,,,,,,,,,,,,,,,,,,,,,,,,,,,,,,,,,,,,,,,,,
875271,001,2022-11-20_17h52.43.107,Info_measure_main_exp,2022.2.2,Win32,60.0348202,,,,,,,,,,,,,,,,,,masks/mask_002.jpg,,,,,,,,,,,,,,,,,,,,,,,,,,,,,,,,,,,,,,,,,,,,,,,,0,1,1,1,1,,,,,,,,,,,,,,,,,,,,,,,,,,,,,,,,,,,,,,,,,
875271,001,2022-11-20_17h52.43.107,Info_measure_main_exp,2022.2.2,Win32,60.0348202,,,,,,,,,,,,,,,,,,masks/mask_004.jpg,,,,,,,,,,,,,,,,,,,,,,,,,,,,,,,,,,,,,,,,,,,,,,,,0,2,2,3,1,,,,,,,,,,,,,,,,,,,,,,,,,,,,,,,,,,,,,,,,,
875271,001,2022-11-20_17h52.43.107,Info_measure_main_exp,2022.2.2,Win32,60.0348202,,,,,,,,,,,,,,,,,,masks/mask_003.jpg,,,,,,,,,,,,,,,,,,,,,,,,,,,,,,,,,,,,,,,,,,,,,,,,0,3,3,2,1,,,,,,,,,,,,,,,,,,,,,,,,,,,,,,,,,,,,,,,,,
875271,001,2022-11-20_17h52.43.107,Info_measure_main_exp,2022.2.2,Win32,60.0348202,,,,,,,,,,,,,,,,,,masks/mask_005.jpg,,,,,,,,,,,,,,,,,,,,,,,,,,,,,,,,,,,,,,,,,,,,,,,,0,4,4,4,1,,,,,,,,,,,,,,,,,,,,,,,,,,,,,,,,,,,,,,,,,
875271,001,2022-11-20_17h52.43.107,Info_measure_main_exp,2022.2.2,Win32,60.0348202,,,,,,,,,,,,,,,,,,,,,,,,,,,,,,7,1.3308,1,,,,,,,,,,,,0,131,5,5,2178,2238,absent_patch/patch0002178.jpg,absent_patch/patch0002238.jpg,,,,,,,,,,,,,,,,,,,,0.055,0.0775,1,0,0,response1disk,2,0.005,-0.004166667,1,0,0,center_square,0,1,1,57,1,,,,,,,,,,,,,,,,,,,,,,,
875271,001,2022-11-20_17h52.43.107,Info_measure_main_exp,2022.2.2,Win32,60.0348202,,,,,,,,,,,,,,,,,,masks/mask_001.jpg,,,,,,,,,,,,,,,,,,,,,,,,,,,,,,,,,,,,,,,,,,,0,0,0,0,1,,,,,,,,,,,,,,,,,,,,,,,,,,,,,,,,,,,,,,,,,,,,,,
875271,001,2022-11-20_17h52.43.107,Info_measure_main_exp,2022.2.2,Win32,60.0348202,,,,,,,,,,,,,,,,,,masks/mask_004.jpg,,,,,,,,,,,,,,,,,,,,,,,,,,,,,,,,,,,,,,,,,,,0,1,1,3,1,,,,,,,,,,,,,,,,,,,,,,,,,,,,,,,,,,,,,,,,,,,,,,
875271,001,2022-11-20_17h52.43.107,Info_measure_main_exp,2022.2.2,Win32,60.0348202,,,,,,,,,,,,,,,,,,masks/mask_002.jpg,,,,,,,,,,,,,,,,,,,,,,,,,,,,,,,,,,,,,,,,,,,0,2,2,1,1,,,,,,,,,,,,,,,,,,,,,,,,,,,,,,,,,,,,,,,,,,,,,,
875271,001,2022-11-20_17h52.43.107,Info_measure_main_exp,2022.2.2,Win32,60.0348202,,,,,,,,,,,,,,,,,,masks/mask_005.jpg,,,,,,,,,,,,,,,,,,,,,,,,,,,,,,,,,,,,,,,,,,,0,3,3,4,1,,,,,,,,,,,,,,,,,,,,,,,,,,,,,,,,,,,,,,,,,,,,,,
875271,001,2022-11-20_17h52.43.107,Info_measure_main_exp,2022.2.2,Win32,60.0348202,,,,,,,,,,,,,,,,,,masks/mask_003.jpg,,,,,,,,,,,,,,,,,,,,,,,,,,,,,,,,,,,,,,,,,,,0,4,4,2,1,,,,,,,,,,,,,,,,,,,,,,,,,,,,,,,,,,,,,,,,,,,,,,
875271,001,2022-11-20_17h52.43.107,Info_measure_main_exp,2022.2.2,Win32,60.0348202,,,,,,,,,,,,,,,,,,masks/mask_005.jpg,,,,,,,,,,,,,,,,,,,,,,,,,,,,,,,,,,,,,,,,,,,,,,,,0,0,0,4,1,,,,,,,,,,,,,,,,,,,,,,,,,,,,,,,,,,,,,,,,,
875271,001,2022-11-20_17h52.43.107,Info_measure_main_exp,2022.2.2,Win32,60.0348202,,,,,,,,,,,,,,,,,,masks/mask_003.jpg,,,,,,,,,,,,,,,,,,,,,,,,,,,,,,,,,,,,,,,,,,,,,,,,0,1,1,2,1,,,,,,,,,,,,,,,,,,,,,,,,,,,,,,,,,,,,,,,,,
875271,001,2022-11-20_17h52.43.107,Info_measure_main_exp,2022.2.2,Win32,60.0348202,,,,,,,,,,,,,,,,,,masks/mask_002.jpg,,,,,,,,,,,,,,,,,,,,,,,,,,,,,,,,,,,,,,,,,,,,,,,,0,2,2,1,1,,,,,,,,,,,,,,,,,,,,,,,,,,,,,,,,,,,,,,,,,
875271,001,2022-11-20_17h52.43.107,Info_measure_main_exp,2022.2.2,Win32,60.0348202,,,,,,,,,,,,,,,,,,masks/mask_004.jpg,,,,,,,,,,,,,,,,,,,,,,,,,,,,,,,,,,,,,,,,,,,,,,,,0,3,3,3,1,,,,,,,,,,,,,,,,,,,,,,,,,,,,,,,,,,,,,,,,,
875271,001,2022-11-20_17h52.43.107,Info_measure_main_exp,2022.2.2,Win32,60.0348202,,,,,,,,,,,,,,,,,,masks/mask_001.jpg,,,,,,,,,,,,,,,,,,,,,,,,,,,,,,,,,,,,,,,,,,,,,,,,0,4,4,0,1,,,,,,,,,,,,,,,,,,,,,,,,,,,,,,,,,,,,,,,,,
875271,001,2022-11-20_17h52.43.107,Info_measure_main_exp,2022.2.2,Win32,60.0348202,,,,,,,,,,,,,,,,,,,,,,,,,,,,,,2,2.2124,1,,,,,,,,,,,,0,131,5,5,1974,2250,absent_patch/patch0001974.jpg,absent_patch/patch0002250.jpg,,,,,,,,,,,,,,,,,,,,-0.085833333,-0.049166667,1,0,0,response5disk,3,-0.0075,0.001666667,1,0,0,center_square,0,2,2,55,1,,,,,,,,,,,,,,,,,,,,,,,
875271,001,2022-11-20_17h52.43.107,Info_measure_main_exp,2022.2.2,Win32,60.0348202,,,,,,,,,,,,,,,,,,masks/mask_002.jpg,,,,,,,,,,,,,,,,,,,,,,,,,,,,,,,,,,,,,,,,,,,0,0,0,1,1,,,,,,,,,,,,,,,,,,,,,,,,,,,,,,,,,,,,,,,,,,,,,,
875271,001,2022-11-20_17h52.43.107,Info_measure_main_exp,2022.2.2,Win32,60.0348202,,,,,,,,,,,,,,,,,,masks/mask_001.jpg,,,,,,,,,,,,,,,,,,,,,,,,,,,,,,,,,,,,,,,,,,,0,1,1,0,1,,,,,,,,,,,,,,,,,,,,,,,,,,,,,,,,,,,,,,,,,,,,,,
875271,001,2022-11-20_17h52.43.107,Info_measure_main_exp,2022.2.2,Win32,60.0348202,,,,,,,,,,,,,,,,,,masks/mask_004.jpg,,,,,,,,,,,,,,,,,,,,,,,,,,,,,,,,,,,,,,,,,,,0,2,2,3,1,,,,,,,,,,,,,,,,,,,,,,,,,,,,,,,,,,,,,,,,,,,,,,
875271,001,2022-11-20_17h52.43.107,Info_measure_main_exp,2022.2.2,Win32,60.0348202,,,,,,,,,,,,,,,,,,masks/mask_003.jpg,,,,,,,,,,,,,,,,,,,,,,,,,,,,,,,,,,,,,,,,,,,0,3,3,2,1,,,,,,,,,,,,,,,,,,,,,,,,,,,,,,,,,,,,,,,,,,,,,,
875271,001,2022-11-20_17h52.43.107,Info_measure_main_exp,2022.2.2,Win32,60.0348202,,,,,,,,,,,,,,,,,,masks/mask_005.jpg,,,,,,,,,,,,,,,,,,,,,,,,,,,,,,,,,,,,,,,,,,,0,4,4,4,1,,,,,,,,,,,,,,,,,,,,,,,,,,,,,,,,,,,,,,,,,,,,,,
875271,001,2022-11-20_17h52.43.107,Info_measure_main_exp,2022.2.2,Win32,60.0348202,,,,,,,,,,,,,,,,,,masks/mask_004.jpg,,,,,,,,,,,,,,,,,,,,,,,,,,,,,,,,,,,,,,,,,,,,,,,,0,0,0,3,1,,,,,,,,,,,,,,,,,,,,,,,,,,,,,,,,,,,,,,,,,
875271,001,2022-11-20_17h52.43.107,Info_measure_main_exp,2022.2.2,Win32,60.0348202,,,,,,,,,,,,,,,,,,masks/mask_005.jpg,,,,,,,,,,,,,,,,,,,,,,,,,,,,,,,,,,,,,,,,,,,,,,,,0,1,1,4,1,,,,,,,,,,,,,,,,,,,,,,,,,,,,,,,,,,,,,,,,,
875271,001,2022-11-20_17h52.43.107,Info_measure_main_exp,2022.2.2,Win32,60.0348202,,,,,,,,,,,,,,,,,,masks/mask_002.jpg,,,,,,,,,,,,,,,,,,,,,,,,,,,,,,,,,,,,,,,,,,,,,,,,0,2,2,1,1,,,,,,,,,,,,,,,,,,,,,,,,,,,,,,,,,,,,,,,,,
875271,001,2022-11-20_17h52.43.107,Info_measure_main_exp,2022.2.2,Win32,60.0348202,,,,,,,,,,,,,,,,,,masks/mask_001.jpg,,,,,,,,,,,,,,,,,,,,,,,,,,,,,,,,,,,,,,,,,,,,,,,,0,3,3,0,1,,,,,,,,,,,,,,,,,,,,,,,,,,,,,,,,,,,,,,,,,
875271,001,2022-11-20_17h52.43.107,Info_measure_main_exp,2022.2.2,Win32,60.0348202,,,,,,,,,,,,,,,,,,masks/mask_003.jpg,,,,,,,,,,,,,,,,,,,,,,,,,,,,,,,,,,,,,,,,,,,,,,,,0,4,4,2,1,,,,,,,,,,,,,,,,,,,,,,,,,,,,,,,,,,,,,,,,,
875271,001,2022-11-20_17h52.43.107,Info_measure_main_exp,2022.2.2,Win32,60.0348202,,,,,,,,,,,,,,,,,,,,,,,,,,,,,,5,2.8448,1,,,,,,,,,,,,0,131,5,5,2154,2238,absent_patch/patch0002154.jpg,absent_patch/patch0002238.jpg,,,,,,,,,,,,,,,,,,,,0.076666667,-0.043333333,1,0,0,response3disk,4,0.008333333,-0.013333333,1,0,0,center_square,0,3,3,21,1,,,,,,,,,,,,,,,,,,,,,,,
875271,001,2022-11-20_17h52.43.107,Info_measure_main_exp,2022.2.2,Win32,60.0348202,,,,,,,,,,,,,,,,,,masks/mask_002.jpg,,,,,,,,,,,,,,,,,,,,,,,,,,,,,,,,,,,,,,,,,,,0,0,0,1,1,,,,,,,,,,,,,,,,,,,,,,,,,,,,,,,,,,,,,,,,,,,,,,
875271,001,2022-11-20_17h52.43.107,Info_measure_main_exp,2022.2.2,Win32,60.0348202,,,,,,,,,,,,,,,,,,masks/mask_005.jpg,,,,,,,,,,,,,,,,,,,,,,,,,,,,,,,,,,,,,,,,,,,0,1,1,4,1,,,,,,,,,,,,,,,,,,,,,,,,,,,,,,,,,,,,,,,,,,,,,,
875271,001,2022-11-20_17h52.43.107,Info_measure_main_exp,2022.2.2,Win32,60.0348202,,,,,,,,,,,,,,,,,,masks/mask_003.jpg,,,,,,,,,,,,,,,,,,,,,,,,,,,,,,,,,,,,,,,,,,,0,2,2,2,1,,,,,,,,,,,,,,,,,,,,,,,,,,,,,,,,,,,,,,,,,,,,,,
875271,001,2022-11-20_17h52.43.107,Info_measure_main_exp,2022.2.2,Win32,60.0348202,,,,,,,,,,,,,,,,,,masks/mask_004.jpg,,,,,,,,,,,,,,,,,,,,,,,,,,,,,,,,,,,,,,,,,,,0,3,3,3,1,,,,,,,,,,,,,,,,,,,,,,,,,,,,,,,,,,,,,,,,,,,,,,
875271,001,2022-11-20_17h52.43.107,Info_measure_main_exp,2022.2.2,Win32,60.0348202,,,,,,,,,,,,,,,,,,masks/mask_001.jpg,,,,,,,,,,,,,,,,,,,,,,,,,,,,,,,,,,,,,,,,,,,0,4,4,0,1,,,,,,,,,,,,,,,,,,,,,,,,,,,,,,,,,,,,,,,,,,,,,,
875271,001,2022-11-20_17h52.43.107,Info_measure_main_exp,2022.2.2,Win32,60.0348202,,,,,,,,,,,,,,,,,,masks/mask_004.jpg,,,,,,,,,,,,,,,,,,,,,,,,,,,,,,,,,,,,,,,,,,,,,,,,0,0,0,3,1,,,,,,,,,,,,,,,,,,,,,,,,,,,,,,,,,,,,,,,,,
875271,001,2022-11-20_17h52.43.107,Info_measure_main_exp,2022.2.2,Win32,60.0348202,,,,,,,,,,,,,,,,,,masks/mask_003.jpg,,,,,,,,,,,,,,,,,,,,,,,,,,,,,,,,,,,,,,,,,,,,,,,,0,1,1,2,1,,,,,,,,,,,,,,,,,,,,,,,,,,,,,,,,,,,,,,,,,
875271,001,2022-11-20_17h52.43.107,Info_measure_main_exp,2022.2.2,Win32,60.0348202,,,,,,,,,,,,,,,,,,masks/mask_001.jpg,,,,,,,,,,,,,,,,,,,,,,,,,,,,,,,,,,,,,,,,,,,,,,,,0,2,2,0,1,,,,,,,,,,,,,,,,,,,,,,,,,,,,,,,,,,,,,,,,,
875271,001,2022-11-20_17h52.43.107,Info_measure_main_exp,2022.2.2,Win32,60.0348202,,,,,,,,,,,,,,,,,,masks/mask_002.jpg,,,,,,,,,,,,,,,,,,,,,,,,,,,,,,,,,,,,,,,,,,,,,,,,0,3,3,1,1,,,,,,,,,,,,,,,,,,,,,,,,,,,,,,,,,,,,,,,,,
875271,001,2022-11-20_17h52.43.107,Info_measure_main_exp,2022.2.2,Win32,60.0348202,,,,,,,,,,,,,,,,,,masks/mask_005.jpg,,,,,,,,,,,,,,,,,,,,,,,,,,,,,,,,,,,,,,,,,,,,,,,,0,4,4,4,1,,,,,,,,,,,,,,,,,,,,,,,,,,,,,,,,,,,,,,,,,
875271,001,2022-11-20_17h52.43.107,Info_measure_main_exp,2022.2.2,Win32,60.0348202,,,,,,,,,,,,,,,,,,,,,,,,,,,,,,7,0.9986,1,,,,,,,,,,,,0,131,5,5,2274,1950,absent_patch/patch0002274.jpg,absent_patch/patch0001950.jpg,,,,,,,,,,,,,,,,,,,,0.028333333,0.145,1,0,0,response1disk,5,-0.000833333,0.005,1,0,0,center_square,0,4,4,10,1,,,,,,,,,,,,,,,,,,,,,,,
875271,001,2022-11-20_17h52.43.107,Info_measure_main_exp,2022.2.2,Win32,60.0348202,,,,,,,,,,,,,,,,,,masks/mask_002.jpg,,,,,,,,,,,,,,,,,,,,,,,,,,,,,,,,,,,,,,,,,,,0,0,0,1,1,,,,,,,,,,,,,,,,,,,,,,,,,,,,,,,,,,,,,,,,,,,,,,
875271,001,2022-11-20_17h52.43.107,Info_measure_main_exp,2022.2.2,Win32,60.0348202,,,,,,,,,,,,,,,,,,masks/mask_004.jpg,,,,,,,,,,,,,,,,,,,,,,,,,,,,,,,,,,,,,,,,,,,0,1,1,3,1,,,,,,,,,,,,,,,,,,,,,,,,,,,,,,,,,,,,,,,,,,,,,,
875271,001,2022-11-20_17h52.43.107,Info_measure_main_exp,2022.2.2,Win32,60.0348202,,,,,,,,,,,,,,,,,,masks/mask_001.jpg,,,,,,,,,,,,,,,,,,,,,,,,,,,,,,,,,,,,,,,,,,,0,2,2,0,1,,,,,,,,,,,,,,,,,,,,,,,,,,,,,,,,,,,,,,,,,,,,,,
875271,001,2022-11-20_17h52.43.107,Info_measure_main_exp,2022.2.2,Win32,60.0348202,,,,,,,,,,,,,,,,,,masks/mask_005.jpg,,,,,,,,,,,,,,,,,,,,,,,,,,,,,,,,,,,,,,,,,,,0,3,3,4,1,,,,,,,,,,,,,,,,,,,,,,,,,,,,,,,,,,,,,,,,,,,,,,
875271,001,2022-11-20_17h52.43.107,Info_measure_main_exp,2022.2.2,Win32,60.0348202,,,,,,,,,,,,,,,,,,masks/mask_003.jpg,,,,,,,,,,,,,,,,,,,,,,,,,,,,,,,,,,,,,,,,,,,0,4,4,2,1,,,,,,,,,,,,,,,,,,,,,,,,,,,,,,,,,,,,,,,,,,,,,,
875271,001,2022-11-20_17h52.43.107,Info_measure_main_exp,2022.2.2,Win32,60.0348202,,,,,,,,,,,,,,,,,,masks/mask_001.jpg,,,,,,,,,,,,,,,,,,,,,,,,,,,,,,,,,,,,,,,,,,,,,,,,0,0,0,0,1,,,,,,,,,,,,,,,,,,,,,,,,,,,,,,,,,,,,,,,,,
875271,001,2022-11-20_17h52.43.107,Info_measure_main_exp,2022.2.2,Win32,60.0348202,,,,,,,,,,,,,,,,,,masks/mask_004.jpg,,,,,,,,,,,,,,,,,,,,,,,,,,,,,,,,,,,,,,,,,,,,,,,,0,1,1,3,1,,,,,,,,,,,,,,,,,,,,,,,,,,,,,,,,,,,,,,,,,
875271,001,2022-11-20_17h52.43.107,Info_measure_main_exp,2022.2.2,Win32,60.0348202,,,,,,,,,,,,,,,,,,masks/mask_002.jpg,,,,,,,,,,,,,,,,,,,,,,,,,,,,,,,,,,,,,,,,,,,,,,,,0,2,2,1,1,,,,,,,,,,,,,,,,,,,,,,,,,,,,,,,,,,,,,,,,,
875271,001,2022-11-20_17h52.43.107,Info_measure_main_exp,2022.2.2,Win32,60.0348202,,,,,,,,,,,,,,,,,,masks/mask_003.jpg,,,,,,,,,,,,,,,,,,,,,,,,,,,,,,,,,,,,,,,,,,,,,,,,0,3,3,2,1,,,,,,,,,,,,,,,,,,,,,,,,,,,,,,,,,,,,,,,,,
875271,001,2022-11-20_17h52.43.107,Info_measure_main_exp,2022.2.2,Win32,60.0348202,,,,,,,,,,,,,,,,,,masks/mask_005.jpg,,,,,,,,,,,,,,,,,,,,,,,,,,,,,,,,,,,,,,,,,,,,,,,,0,4,4,4,1,,,,,,,,,,,,,,,,,,,,,,,,,,,,,,,,,,,,,,,,,
875271,001,2022-11-20_17h52.43.107,Info_measure_main_exp,2022.2.2,Win32,60.0348202,,,,,,,,,,,,,,,,,,,,,,,,,,,,,,1,2.6618,1,,,,,,,,,,,,0,131,5,5,1950,2082,absent_patch/patch0001950.jpg,absent_patch/patch0002082.jpg,,,,,,,,,,,,,,,,,,,,-0.0775,0.023333333,1,0,0,response7disk,6,-0.003333333,-0.000833333,1,0,0,center_square,0,5,5,12,1,,,,,,,,,,,,,,,,,,,,,,,
875271,001,2022-11-20_17h52.43.107,Info_measure_main_exp,2022.2.2,Win32,60.0348202,,,,,,,,,,,,,,,,,,masks/mask_001.jpg,,,,,,,,,,,,,,,,,,,,,,,,,,,,,,,,,,,,,,,,,,,0,0,0,0,1,,,,,,,,,,,,,,,,,,,,,,,,,,,,,,,,,,,,,,,,,,,,,,
875271,001,2022-11-20_17h52.43.107,Info_measure_main_exp,2022.2.2,Win32,60.0348202,,,,,,,,,,,,,,,,,,masks/mask_004.jpg,,,,,,,,,,,,,,,,,,,,,,,,,,,,,,,,,,,,,,,,,,,0,1,1,3,1,,,,,,,,,,,,,,,,,,,,,,,,,,,,,,,,,,,,,,,,,,,,,,
875271,001,2022-11-20_17h52.43.107,Info_measure_main_exp,2022.2.2,Win32,60.0348202,,,,,,,,,,,,,,,,,,masks/mask_003.jpg,,,,,,,,,,,,,,,,,,,,,,,,,,,,,,,,,,,,,,,,,,,0,2,2,2,1,,,,,,,,,,,,,,,,,,,,,,,,,,,,,,,,,,,,,,,,,,,,,,
875271,001,2022-11-20_17h52.43.107,Info_measure_main_exp,2022.2.2,Win32,60.0348202,,,,,,,,,,,,,,,,,,masks/mask_002.jpg,,,,,,,,,,,,,,,,,,,,,,,,,,,,,,,,,,,,,,,,,,,0,3,3,1,1,,,,,,,,,,,,,,,,,,,,,,,,,,,,,,,,,,,,,,,,,,,,,,
875271,001,2022-11-20_17h52.43.107,Info_measure_main_exp,2022.2.2,Win32,60.0348202,,,,,,,,,,,,,,,,,,masks/mask_005.jpg,,,,,,,,,,,,,,,,,,,,,,,,,,,,,,,,,,,,,,,,,,,0,4,4,4,1,,,,,,,,,,,,,,,,,,,,,,,,,,,,,,,,,,,,,,,,,,,,,,
875271,001,2022-11-20_17h52.43.107,Info_measure_main_exp,2022.2.2,Win32,60.0348202,,,,,,,,,,,,,,,,,,masks/mask_002.jpg,,,,,,,,,,,,,,,,,,,,,,,,,,,,,,,,,,,,,,,,,,,,,,,,0,0,0,1,1,,,,,,,,,,,,,,,,,,,,,,,,,,,,,,,,,,,,,,,,,
875271,001,2022-11-20_17h52.43.107,Info_measure_main_exp,2022.2.2,Win32,60.0348202,,,,,,,,,,,,,,,,,,masks/mask_001.jpg,,,,,,,,,,,,,,,,,,,,,,,,,,,,,,,,,,,,,,,,,,,,,,,,0,1,1,0,1,,,,,,,,,,,,,,,,,,,,,,,,,,,,,,,,,,,,,,,,,
875271,001,2022-11-20_17h52.43.107,Info_measure_main_exp,2022.2.2,Win32,60.0348202,,,,,,,,,,,,,,,,,,masks/mask_003.jpg,,,,,,,,,,,,,,,,,,,,,,,,,,,,,,,,,,,,,,,,,,,,,,,,0,2,2,2,1,,,,,,,,,,,,,,,,,,,,,,,,,,,,,,,,,,,,,,,,,
875271,001,2022-11-20_17h52.43.107,Info_measure_main_exp,2022.2.2,Win32,60.0348202,,,,,,,,,,,,,,,,,,masks/mask_004.jpg,,,,,,,,,,,,,,,,,,,,,,,,,,,,,,,,,,,,,,,,,,,,,,,,0,3,3,3,1,,,,,,,,,,,,,,,,,,,,,,,,,,,,,,,,,,,,,,,,,
875271,001,2022-11-20_17h52.43.107,Info_measure_main_exp,2022.2.2,Win32,60.0348202,,,,,,,,,,,,,,,,,,masks/mask_005.jpg,,,,,,,,,,,,,,,,,,,,,,,,,,,,,,,,,,,,,,,,,,,,,,,,0,4,4,4,1,,,,,,,,,,,,,,,,,,,,,,,,,,,,,,,,,,,,,,,,,
875271,001,2022-11-20_17h52.43.107,Info_measure_main_exp,2022.2.2,Win32,60.0348202,,,,,,,,,,,,,,,,,,,,,,,,,,,,,,3,3.0616,1,,,,,,,,,,,,0,131,5,5,2298,2142,absent_patch/patch0002298.jpg,absent_patch/patch0002142.jpg,,,,,,,,,,,,,,,,,,,,-0.055,-0.066666667,1,0,0,response5disk,7,-0.015833333,-0.000833333,1,0,0,center_square,0,6,6,49,1,,,,,,,,,,,,,,,,,,,,,,,
875271,001,2022-11-20_17h52.43.107,Info_measure_main_exp,2022.2.2,Win32,60.0348202,,,,,,,,,,,,,,,,,,masks/mask_004.jpg,,,,,,,,,,,,,,,,,,,,,,,,,,,,,,,,,,,,,,,,,,,0,0,0,3,1,,,,,,,,,,,,,,,,,,,,,,,,,,,,,,,,,,,,,,,,,,,,,,
875271,001,2022-11-20_17h52.43.107,Info_measure_main_exp,2022.2.2,Win32,60.0348202,,,,,,,,,,,,,,,,,,masks/mask_001.jpg,,,,,,,,,,,,,,,,,,,,,,,,,,,,,,,,,,,,,,,,,,,0,1,1,0,1,,,,,,,,,,,,,,,,,,,,,,,,,,,,,,,,,,,,,,,,,,,,,,
875271,001,2022-11-20_17h52.43.107,Info_measure_main_exp,2022.2.2,Win32,60.0348202,,,,,,,,,,,,,,,,,,masks/mask_005.jpg,,,,,,,,,,,,,,,,,,,,,,,,,,,,,,,,,,,,,,,,,,,0,2,2,4,1,,,,,,,,,,,,,,,,,,,,,,,,,,,,,,,,,,,,,,,,,,,,,,
875271,001,2022-11-20_17h52.43.107,Info_measure_main_exp,2022.2.2,Win32,60.0348202,,,,,,,,,,,,,,,,,,masks/mask_003.jpg,,,,,,,,,,,,,,,,,,,,,,,,,,,,,,,,,,,,,,,,,,,0,3,3,2,1,,,,,,,,,,,,,,,,,,,,,,,,,,,,,,,,,,,,,,,,,,,,,,
875271,001,2022-11-20_17h52.43.107,Info_measure_main_exp,2022.2.2,Win32,60.0348202,,,,,,,,,,,,,,,,,,masks/mask_002.jpg,,,,,,,,,,,,,,,,,,,,,,,,,,,,,,,,,,,,,,,,,,,0,4,4,1,1,,,,,,,,,,,,,,,,,,,,,,,,,,,,,,,,,,,,,,,,,,,,,,
875271,001,2022-11-20_17h52.43.107,Info_measure_main_exp,2022.2.2,Win32,60.0348202,,,,,,,,,,,,,,,,,,masks/mask_004.jpg,,,,,,,,,,,,,,,,,,,,,,,,,,,,,,,,,,,,,,,,,,,,,,,,0,0,0,3,1,,,,,,,,,,,,,,,,,,,,,,,,,,,,,,,,,,,,,,,,,
875271,001,2022-11-20_17h52.43.107,Info_measure_main_exp,2022.2.2,Win32,60.0348202,,,,,,,,,,,,,,,,,,masks/mask_005.jpg,,,,,,,,,,,,,,,,,,,,,,,,,,,,,,,,,,,,,,,,,,,,,,,,0,1,1,4,1,,,,,,,,,,,,,,,,,,,,,,,,,,,,,,,,,,,,,,,,,
875271,001,2022-11-20_17h52.43.107,Info_measure_main_exp,2022.2.2,Win32,60.0348202,,,,,,,,,,,,,,,,,,masks/mask_001.jpg,,,,,,,,,,,,,,,,,,,,,,,,,,,,,,,,,,,,,,,,,,,,,,,,0,2,2,0,1,,,,,,,,,,,,,,,,,,,,,,,,,,,,,,,,,,,,,,,,,
875271,001,2022-11-20_17h52.43.107,Info_measure_main_exp,2022.2.2,Win32,60.0348202,,,,,,,,,,,,,,,,,,masks/mask_002.jpg,,,,,,,,,,,,,,,,,,,,,,,,,,,,,,,,,,,,,,,,,,,,,,,,0,3,3,1,1,,,,,,,,,,,,,,,,,,,,,,,,,,,,,,,,,,,,,,,,,
875271,001,2022-11-20_17h52.43.107,Info_measure_main_exp,2022.2.2,Win32,60.0348202,,,,,,,,,,,,,,,,,,masks/mask_003.jpg,,,,,,,,,,,,,,,,,,,,,,,,,,,,,,,,,,,,,,,,,,,,,,,,0,4,4,2,1,,,,,,,,,,,,,,,,,,,,,,,,,,,,,,,,,,,,,,,,,
875271,001,2022-11-20_17h52.43.107,Info_measure_main_exp,2022.2.2,Win32,60.0348202,,,,,,,,,,,,,,,,,,,,,,,,,,,,,,2,2.9615,1,,,,,,,,,,,,1,131,5,5,1,1986,present_patch/cong_131_5_a.jpg,absent_patch/patch0001986.jpg,,,,,,,,,,,,,,,,,,,,-0.050833333,-0.026666667,1,0,0,response5disk,8,0.005,0.005,1,0,0,center_square,0,7,7,106,1,,,,,,,,,,,,,,,,,,,,,,,
875271,001,2022-11-20_17h52.43.107,Info_measure_main_exp,2022.2.2,Win32,60.0348202,,,,,,,,,,,,,,,,,,masks/mask_005.jpg,,,,,,,,,,,,,,,,,,,,,,,,,,,,,,,,,,,,,,,,,,,0,0,0,4,1,,,,,,,,,,,,,,,,,,,,,,,,,,,,,,,,,,,,,,,,,,,,,,
875271,001,2022-11-20_17h52.43.107,Info_measure_main_exp,2022.2.2,Win32,60.0348202,,,,,,,,,,,,,,,,,,masks/mask_001.jpg,,,,,,,,,,,,,,,,,,,,,,,,,,,,,,,,,,,,,,,,,,,0,1,1,0,1,,,,,,,,,,,,,,,,,,,,,,,,,,,,,,,,,,,,,,,,,,,,,,
875271,001,2022-11-20_17h52.43.107,Info_measure_main_exp,2022.2.2,Win32,60.0348202,,,,,,,,,,,,,,,,,,masks/mask_003.jpg,,,,,,,,,,,,,,,,,,,,,,,,,,,,,,,,,,,,,,,,,,,0,2,2,2,1,,,,,,,,,,,,,,,,,,,,,,,,,,,,,,,,,,,,,,,,,,,,,,
875271,001,2022-11-20_17h52.43.107,Info_measure_main_exp,2022.2.2,Win32,60.0348202,,,,,,,,,,,,,,,,,,masks/mask_004.jpg,,,,,,,,,,,,,,,,,,,,,,,,,,,,,,,,,,,,,,,,,,,0,3,3,3,1,,,,,,,,,,,,,,,,,,,,,,,,,,,,,,,,,,,,,,,,,,,,,,
875271,001,2022-11-20_17h52.43.107,Info_measure_main_exp,2022.2.2,Win32,60.0348202,,,,,,,,,,,,,,,,,,masks/mask_002.jpg,,,,,,,,,,,,,,,,,,,,,,,,,,,,,,,,,,,,,,,,,,,0,4,4,1,1,,,,,,,,,,,,,,,,,,,,,,,,,,,,,,,,,,,,,,,,,,,,,,
875271,001,2022-11-20_17h52.43.107,Info_measure_main_exp,2022.2.2,Win32,60.0348202,,,,,,,,,,,,,,,,,,masks/mask_005.jpg,,,,,,,,,,,,,,,,,,,,,,,,,,,,,,,,,,,,,,,,,,,,,,,,0,0,0,4,1,,,,,,,,,,,,,,,,,,,,,,,,,,,,,,,,,,,,,,,,,
875271,001,2022-11-20_17h52.43.107,Info_measure_main_exp,2022.2.2,Win32,60.0348202,,,,,,,,,,,,,,,,,,masks/mask_002.jpg,,,,,,,,,,,,,,,,,,,,,,,,,,,,,,,,,,,,,,,,,,,,,,,,0,1,1,1,1,,,,,,,,,,,,,,,,,,,,,,,,,,,,,,,,,,,,,,,,,
875271,001,2022-11-20_17h52.43.107,Info_measure_main_exp,2022.2.2,Win32,60.0348202,,,,,,,,,,,,,,,,,,masks/mask_003.jpg,,,,,,,,,,,,,,,,,,,,,,,,,,,,,,,,,,,,,,,,,,,,,,,,0,2,2,2,1,,,,,,,,,,,,,,,,,,,,,,,,,,,,,,,,,,,,,,,,,
875271,001,2022-11-20_17h52.43.107,Info_measure_main_exp,2022.2.2,Win32,60.0348202,,,,,,,,,,,,,,,,,,masks/mask_001.jpg,,,,,,,,,,,,,,,,,,,,,,,,,,,,,,,,,,,,,,,,,,,,,,,,0,3,3,0,1,,,,,,,,,,,,,,,,,,,,,,,,,,,,,,,,,,,,,,,,,
875271,001,2022-11-20_17h52.43.107,Info_measure_main_exp,2022.2.2,Win32,60.0348202,,,,,,,,,,,,,,,,,,masks/mask_004.jpg,,,,,,,,,,,,,,,,,,,,,,,,,,,,,,,,,,,,,,,,,,,,,,,,0,4,4,3,1,,,,,,,,,,,,,,,,,,,,,,,,,,,,,,,,,,,,,,,,,
875271,001,2022-11-20_17h52.43.107,Info_measure_main_exp,2022.2.2,Win32,60.0348202,,,,,,,,,,,,,,,,,,,,,,,,,,,,,,7,1.414,1,,,,,,,,,,,,0,131,5,5,2274,2142,absent_patch/patch0002274.jpg,absent_patch/patch0002142.jpg,,,,,,,,,,,,,,,,,,,,0.030833333,0.093333333,1,0,0,response1disk,9,-0.001666667,0.005833333,1,0,0,center_square,0,8,8,75,1,,,,,,,,,,,,,,,,,,,,,,,
875271,001,2022-11-20_17h52.43.107,Info_measure_main_exp,2022.2.2,Win32,60.0348202,,,,,,,,,,,,,,,,,,masks/mask_001.jpg,,,,,,,,,,,,,,,,,,,,,,,,,,,,,,,,,,,,,,,,,,,0,0,0,0,1,,,,,,,,,,,,,,,,,,,,,,,,,,,,,,,,,,,,,,,,,,,,,,
875271,001,2022-11-20_17h52.43.107,Info_measure_main_exp,2022.2.2,Win32,60.0348202,,,,,,,,,,,,,,,,,,masks/mask_004.jpg,,,,,,,,,,,,,,,,,,,,,,,,,,,,,,,,,,,,,,,,,,,0,1,1,3,1,,,,,,,,,,,,,,,,,,,,,,,,,,,,,,,,,,,,,,,,,,,,,,
875271,001,2022-11-20_17h52.43.107,Info_measure_main_exp,2022.2.2,Win32,60.0348202,,,,,,,,,,,,,,,,,,masks/mask_003.jpg,,,,,,,,,,,,,,,,,,,,,,,,,,,,,,,,,,,,,,,,,,,0,2,2,2,1,,,,,,,,,,,,,,,,,,,,,,,,,,,,,,,,,,,,,,,,,,,,,,
875271,001,2022-11-20_17h52.43.107,Info_measure_main_exp,2022.2.2,Win32,60.0348202,,,,,,,,,,,,,,,,,,masks/mask_005.jpg,,,,,,,,,,,,,,,,,,,,,,,,,,,,,,,,,,,,,,,,,,,0,3,3,4,1,,,,,,,,,,,,,,,,,,,,,,,,,,,,,,,,,,,,,,,,,,,,,,
875271,001,2022-11-20_17h52.43.107,Info_measure_main_exp,2022.2.2,Win32,60.0348202,,,,,,,,,,,,,,,,,,masks/mask_002.jpg,,,,,,,,,,,,,,,,,,,,,,,,,,,,,,,,,,,,,,,,,,,0,4,4,1,1,,,,,,,,,,,,,,,,,,,,,,,,,,,,,,,,,,,,,,,,,,,,,,
875271,001,2022-11-20_17h52.43.107,Info_measure_main_exp,2022.2.2,Win32,60.0348202,,,,,,,,,,,,,,,,,,masks/mask_001.jpg,,,,,,,,,,,,,,,,,,,,,,,,,,,,,,,,,,,,,,,,,,,,,,,,0,0,0,0,1,,,,,,,,,,,,,,,,,,,,,,,,,,,,,,,,,,,,,,,,,
875271,001,2022-11-20_17h52.43.107,Info_measure_main_exp,2022.2.2,Win32,60.0348202,,,,,,,,,,,,,,,,,,masks/mask_003.jpg,,,,,,,,,,,,,,,,,,,,,,,,,,,,,,,,,,,,,,,,,,,,,,,,0,1,1,2,1,,,,,,,,,,,,,,,,,,,,,,,,,,,,,,,,,,,,,,,,,
875271,001,2022-11-20_17h52.43.107,Info_measure_main_exp,2022.2.2,Win32,60.0348202,,,,,,,,,,,,,,,,,,masks/mask_004.jpg,,,,,,,,,,,,,,,,,,,,,,,,,,,,,,,,,,,,,,,,,,,,,,,,0,2,2,3,1,,,,,,,,,,,,,,,,,,,,,,,,,,,,,,,,,,,,,,,,,
875271,001,2022-11-20_17h52.43.107,Info_measure_main_exp,2022.2.2,Win32,60.0348202,,,,,,,,,,,,,,,,,,masks/mask_002.jpg,,,,,,,,,,,,,,,,,,,,,,,,,,,,,,,,,,,,,,,,,,,,,,,,0,3,3,1,1,,,,,,,,,,,,,,,,,,,,,,,,,,,,,,,,,,,,,,,,,
875271,001,2022-11-20_17h52.43.107,Info_measure_main_exp,2022.2.2,Win32,60.0348202,,,,,,,,,,,,,,,,,,masks/mask_005.jpg,,,,,,,,,,,,,,,,,,,,,,,,,,,,,,,,,,,,,,,,,,,,,,,,0,4,4,4,1,,,,,,,,,,,,,,,,,,,,,,,,,,,,,,,,,,,,,,,,,
875271,001,2022-11-20_17h52.43.107,Info_measure_main_exp,2022.2.2,Win32,60.0348202,,,,,,,,,,,,,,,,,,,,,,,,,,,,,,0,1.2808,1,,,,,,,,,,,,0,131,5,5,2250,2250,absent_patch/patch0002250.jpg,absent_patch/patch0002250.jpg,,,,,,,,,,,,,,,,,,,,-0.050833333,0.1125,1,0,0,response7disk,10,-0.0025,0.000833333,1,0,0,center_square,0,9,9,56,1,,,,,,,,,,,,,,,,,,,,,,,
875271,001,2022-11-20_17h52.43.107,Info_measure_main_exp,2022.2.2,Win32,60.0348202,,,,,,,,,,,,,,,,,,masks/mask_003.jpg,,,,,,,,,,,,,,,,,,,,,,,,,,,,,,,,,,,,,,,,,,,0,0,0,2,1,,,,,,,,,,,,,,,,,,,,,,,,,,,,,,,,,,,,,,,,,,,,,,
875271,001,2022-11-20_17h52.43.107,Info_measure_main_exp,2022.2.2,Win32,60.0348202,,,,,,,,,,,,,,,,,,masks/mask_002.jpg,,,,,,,,,,,,,,,,,,,,,,,,,,,,,,,,,,,,,,,,,,,0,1,1,1,1,,,,,,,,,,,,,,,,,,,,,,,,,,,,,,,,,,,,,,,,,,,,,,
875271,001,2022-11-20_17h52.43.107,Info_measure_main_exp,2022.2.2,Win32,60.0348202,,,,,,,,,,,,,,,,,,masks/mask_001.jpg,,,,,,,,,,,,,,,,,,,,,,,,,,,,,,,,,,,,,,,,,,,0,2,2,0,1,,,,,,,,,,,,,,,,,,,,,,,,,,,,,,,,,,,,,,,,,,,,,,
875271,001,2022-11-20_17h52.43.107,Info_measure_main_exp,2022.2.2,Win32,60.0348202,,,,,,,,,,,,,,,,,,masks/mask_005.jpg,,,,,,,,,,,,,,,,,,,,,,,,,,,,,,,,,,,,,,,,,,,0,3,3,4,1,,,,,,,,,,,,,,,,,,,,,,,,,,,,,,,,,,,,,,,,,,,,,,
875271,001,2022-11-20_17h52.43.107,Info_measure_main_exp,2022.2.2,Win32,60.0348202,,,,,,,,,,,,,,,,,,masks/mask_004.jpg,,,,,,,,,,,,,,,,,,,,,,,,,,,,,,,,,,,,,,,,,,,0,4,4,3,1,,,,,,,,,,,,,,,,,,,,,,,,,,,,,,,,,,,,,,,,,,,,,,
875271,001,2022-11-20_17h52.43.107,Info_measure_main_exp,2022.2.2,Win32,60.0348202,,,,,,,,,,,,,,,,,,masks/mask_005.jpg,,,,,,,,,,,,,,,,,,,,,,,,,,,,,,,,,,,,,,,,,,,,,,,,0,0,0,4,1,,,,,,,,,,,,,,,,,,,,,,,,,,,,,,,,,,,,,,,,,
875271,001,2022-11-20_17h52.43.107,Info_measure_main_exp,2022.2.2,Win32,60.0348202,,,,,,,,,,,,,,,,,,masks/mask_004.jpg,,,,,,,,,,,,,,,,,,,,,,,,,,,,,,,,,,,,,,,,,,,,,,,,0,1,1,3,1,,,,,,,,,,,,,,,,,,,,,,,,,,,,,,,,,,,,,,,,,
875271,001,2022-11-20_17h52.43.107,Info_measure_main_exp,2022.2.2,Win32,60.0348202,,,,,,,,,,,,,,,,,,masks/mask_002.jpg,,,,,,,,,,,,,,,,,,,,,,,,,,,,,,,,,,,,,,,,,,,,,,,,0,2,2,1,1,,,,,,,,,,,,,,,,,,,,,,,,,,,,,,,,,,,,,,,,,
875271,001,2022-11-20_17h52.43.107,Info_measure_main_exp,2022.2.2,Win32,60.0348202,,,,,,,,,,,,,,,,,,masks/mask_001.jpg,,,,,,,,,,,,,,,,,,,,,,,,,,,,,,,,,,,,,,,,,,,,,,,,0,3,3,0,1,,,,,,,,,,,,,,,,,,,,,,,,,,,,,,,,,,,,,,,,,
875271,001,2022-11-20_17h52.43.107,Info_measure_main_exp,2022.2.2,Win32,60.0348202,,,,,,,,,,,,,,,,,,masks/mask_003.jpg,,,,,,,,,,,,,,,,,,,,,,,,,,,,,,,,,,,,,,,,,,,,,,,,0,4,4,2,1,,,,,,,,,,,,,,,,,,,,,,,,,,,,,,,,,,,,,,,,,
875271,001,2022-11-20_17h52.43.107,Info_measure_main_exp,2022.2.2,Win32,60.0348202,,,,,,,,,,,,,,,,,,,,,,,,,,,,,,7,10.7464,1,,,,,,,,,,,,0,131,5,5,2166,2298,absent_patch/patch0002166.jpg,absent_patch/patch0002298.jpg,,,,,,,,,,,,,,,,,,,,0.016666667,0.095,1,0,0,response1disk,11,0.010833333,0.008333333,1,0,0,center_square,0,10,10,52,1,,,,,,,,,,,,,,,,,,,,,,,
875271,001,2022-11-20_17h52.43.107,Info_measure_main_exp,2022.2.2,Win32,60.0348202,,,,,,,,,,,,,,,,,,masks/mask_005.jpg,,,,,,,,,,,,,,,,,,,,,,,,,,,,,,,,,,,,,,,,,,,0,0,0,4,1,,,,,,,,,,,,,,,,,,,,,,,,,,,,,,,,,,,,,,,,,,,,,,
875271,001,2022-11-20_17h52.43.107,Info_measure_main_exp,2022.2.2,Win32,60.0348202,,,,,,,,,,,,,,,,,,masks/mask_001.jpg,,,,,,,,,,,,,,,,,,,,,,,,,,,,,,,,,,,,,,,,,,,0,1,1,0,1,,,,,,,,,,,,,,,,,,,,,,,,,,,,,,,,,,,,,,,,,,,,,,
875271,001,2022-11-20_17h52.43.107,Info_measure_main_exp,2022.2.2,Win32,60.0348202,,,,,,,,,,,,,,,,,,masks/mask_004.jpg,,,,,,,,,,,,,,,,,,,,,,,,,,,,,,,,,,,,,,,,,,,0,2,2,3,1,,,,,,,,,,,,,,,,,,,,,,,,,,,,,,,,,,,,,,,,,,,,,,
875271,001,2022-11-20_17h52.43.107,Info_measure_main_exp,2022.2.2,Win32,60.0348202,,,,,,,,,,,,,,,,,,masks/mask_002.jpg,,,,,,,,,,,,,,,,,,,,,,,,,,,,,,,,,,,,,,,,,,,0,3,3,1,1,,,,,,,,,,,,,,,,,,,,,,,,,,,,,,,,,,,,,,,,,,,,,,
875271,001,2022-11-20_17h52.43.107,Info_measure_main_exp,2022.2.2,Win32,60.0348202,,,,,,,,,,,,,,,,,,masks/mask_003.jpg,,,,,,,,,,,,,,,,,,,,,,,,,,,,,,,,,,,,,,,,,,,0,4,4,2,1,,,,,,,,,,,,,,,,,,,,,,,,,,,,,,,,,,,,,,,,,,,,,,
875271,001,2022-11-20_17h52.43.107,Info_measure_main_exp,2022.2.2,Win32,60.0348202,,,,,,,,,,,,,,,,,,masks/mask_001.jpg,,,,,,,,,,,,,,,,,,,,,,,,,,,,,,,,,,,,,,,,,,,,,,,,0,0,0,0,1,,,,,,,,,,,,,,,,,,,,,,,,,,,,,,,,,,,,,,,,,
875271,001,2022-11-20_17h52.43.107,Info_measure_main_exp,2022.2.2,Win32,60.0348202,,,,,,,,,,,,,,,,,,masks/mask_003.jpg,,,,,,,,,,,,,,,,,,,,,,,,,,,,,,,,,,,,,,,,,,,,,,,,0,1,1,2,1,,,,,,,,,,,,,,,,,,,,,,,,,,,,,,,,,,,,,,,,,
875271,001,2022-11-20_17h52.43.107,Info_measure_main_exp,2022.2.2,Win32,60.0348202,,,,,,,,,,,,,,,,,,masks/mask_004.jpg,,,,,,,,,,,,,,,,,,,,,,,,,,,,,,,,,,,,,,,,,,,,,,,,0,2,2,3,1,,,,,,,,,,,,,,,,,,,,,,,,,,,,,,,,,,,,,,,,,
875271,001,2022-11-20_17h52.43.107,Info_measure_main_exp,2022.2.2,Win32,60.0348202,,,,,,,,,,,,,,,,,,masks/mask_002.jpg,,,,,,,,,,,,,,,,,,,,,,,,,,,,,,,,,,,,,,,,,,,,,,,,0,3,3,1,1,,,,,,,,,,,,,,,,,,,,,,,,,,,,,,,,,,,,,,,,,
875271,001,2022-11-20_17h52.43.107,Info_measure_main_exp,2022.2.2,Win32,60.0348202,,,,,,,,,,,,,,,,,,masks/mask_005.jpg,,,,,,,,,,,,,,,,,,,,,,,,,,,,,,,,,,,,,,,,,,,,,,,,0,4,4,4,1,,,,,,,,,,,,,,,,,,,,,,,,,,,,,,,,,,,,,,,,,
875271,001,2022-11-20_17h52.43.107,Info_measure_main_exp,2022.2.2,Win32,60.0348202,,,,,,,,,,,,,,,,,,,,,,,,,,,,,,7,1.1485,1,,,,,,,,,,,,0,131,5,5,2274,2190,absent_patch/patch0002274.jpg,absent_patch/patch0002190.jpg,,,,,,,,,,,,,,,,,,,,0.02,0.060833333,1,0,0,response1disk,12,-0.0025,0.008333333,1,0,0,center_square,0,11,11,116,1,,,,,,,,,,,,,,,,,,,,,,,
875271,001,2022-11-20_17h52.43.107,Info_measure_main_exp,2022.2.2,Win32,60.0348202,,,,,,,,,,,,,,,,,,masks/mask_004.jpg,,,,,,,,,,,,,,,,,,,,,,,,,,,,,,,,,,,,,,,,,,,0,0,0,3,1,,,,,,,,,,,,,,,,,,,,,,,,,,,,,,,,,,,,,,,,,,,,,,
875271,001,2022-11-20_17h52.43.107,Info_measure_main_exp,2022.2.2,Win32,60.0348202,,,,,,,,,,,,,,,,,,masks/mask_003.jpg,,,,,,,,,,,,,,,,,,,,,,,,,,,,,,,,,,,,,,,,,,,0,1,1,2,1,,,,,,,,,,,,,,,,,,,,,,,,,,,,,,,,,,,,,,,,,,,,,,
875271,001,2022-11-20_17h52.43.107,Info_measure_main_exp,2022.2.2,Win32,60.0348202,,,,,,,,,,,,,,,,,,masks/mask_005.jpg,,,,,,,,,,,,,,,,,,,,,,,,,,,,,,,,,,,,,,,,,,,0,2,2,4,1,,,,,,,,,,,,,,,,,,,,,,,,,,,,,,,,,,,,,,,,,,,,,,
875271,001,2022-11-20_17h52.43.107,Info_measure_main_exp,2022.2.2,Win32,60.0348202,,,,,,,,,,,,,,,,,,masks/mask_001.jpg,,,,,,,,,,,,,,,,,,,,,,,,,,,,,,,,,,,,,,,,,,,0,3,3,0,1,,,,,,,,,,,,,,,,,,,,,,,,,,,,,,,,,,,,,,,,,,,,,,
875271,001,2022-11-20_17h52.43.107,Info_measure_main_exp,2022.2.2,Win32,60.0348202,,,,,,,,,,,,,,,,,,masks/mask_002.jpg,,,,,,,,,,,,,,,,,,,,,,,,,,,,,,,,,,,,,,,,,,,0,4,4,1,1,,,,,,,,,,,,,,,,,,,,,,,,,,,,,,,,,,,,,,,,,,,,,,
875271,001,2022-11-20_17h52.43.107,Info_measure_main_exp,2022.2.2,Win32,60.0348202,,,,,,,,,,,,,,,,,,masks/mask_002.jpg,,,,,,,,,,,,,,,,,,,,,,,,,,,,,,,,,,,,,,,,,,,,,,,,0,0,0,1,1,,,,,,,,,,,,,,,,,,,,,,,,,,,,,,,,,,,,,,,,,
875271,001,2022-11-20_17h52.43.107,Info_measure_main_exp,2022.2.2,Win32,60.0348202,,,,,,,,,,,,,,,,,,masks/mask_005.jpg,,,,,,,,,,,,,,,,,,,,,,,,,,,,,,,,,,,,,,,,,,,,,,,,0,1,1,4,1,,,,,,,,,,,,,,,,,,,,,,,,,,,,,,,,,,,,,,,,,
875271,001,2022-11-20_17h52.43.107,Info_measure_main_exp,2022.2.2,Win32,60.0348202,,,,,,,,,,,,,,,,,,masks/mask_003.jpg,,,,,,,,,,,,,,,,,,,,,,,,,,,,,,,,,,,,,,,,,,,,,,,,0,2,2,2,1,,,,,,,,,,,,,,,,,,,,,,,,,,,,,,,,,,,,,,,,,
875271,001,2022-11-20_17h52.43.107,Info_measure_main_exp,2022.2.2,Win32,60.0348202,,,,,,,,,,,,,,,,,,masks/mask_001.jpg,,,,,,,,,,,,,,,,,,,,,,,,,,,,,,,,,,,,,,,,,,,,,,,,0,3,3,0,1,,,,,,,,,,,,,,,,,,,,,,,,,,,,,,,,,,,,,,,,,
875271,001,2022-11-20_17h52.43.107,Info_measure_main_exp,2022.2.2,Win32,60.0348202,,,,,,,,,,,,,,,,,,masks/mask_004.jpg,,,,,,,,,,,,,,,,,,,,,,,,,,,,,,,,,,,,,,,,,,,,,,,,0,4,4,3,1,,,,,,,,,,,,,,,,,,,,,,,,,,,,,,,,,,,,,,,,,
875271,001,2022-11-20_17h52.43.107,Info_measure_main_exp,2022.2.2,Win32,60.0348202,,,,,,,,,,,,,,,,,,,,,,,,,,,,,,7,0.9151,1,,,,,,,,,,,,0,131,5,5,1974,2214,absent_patch/patch0001974.jpg,absent_patch/patch0002214.jpg,,,,,,,,,,,,,,,,,,,,0.0075,0.033333333,1,0,0,response1disk,13,0.003333333,0.004166667,1,0,0,center_square,0,12,12,24,1,,,,,,,,,,,,,,,,,,,,,,,
875271,001,2022-11-20_17h52.43.107,Info_measure_main_exp,2022.2.2,Win32,60.0348202,,,,,,,,,,,,,,,,,,masks/mask_004.jpg,,,,,,,,,,,,,,,,,,,,,,,,,,,,,,,,,,,,,,,,,,,0,0,0,3,1,,,,,,,,,,,,,,,,,,,,,,,,,,,,,,,,,,,,,,,,,,,,,,
875271,001,2022-11-20_17h52.43.107,Info_measure_main_exp,2022.2.2,Win32,60.0348202,,,,,,,,,,,,,,,,,,masks/mask_001.jpg,,,,,,,,,,,,,,,,,,,,,,,,,,,,,,,,,,,,,,,,,,,0,1,1,0,1,,,,,,,,,,,,,,,,,,,,,,,,,,,,,,,,,,,,,,,,,,,,,,
875271,001,2022-11-20_17h52.43.107,Info_measure_main_exp,2022.2.2,Win32,60.0348202,,,,,,,,,,,,,,,,,,masks/mask_005.jpg,,,,,,,,,,,,,,,,,,,,,,,,,,,,,,,,,,,,,,,,,,,0,2,2,4,1,,,,,,,,,,,,,,,,,,,,,,,,,,,,,,,,,,,,,,,,,,,,,,
875271,001,2022-11-20_17h52.43.107,Info_measure_main_exp,2022.2.2,Win32,60.0348202,,,,,,,,,,,,,,,,,,masks/mask_002.jpg,,,,,,,,,,,,,,,,,,,,,,,,,,,,,,,,,,,,,,,,,,,0,3,3,1,1,,,,,,,,,,,,,,,,,,,,,,,,,,,,,,,,,,,,,,,,,,,,,,
875271,001,2022-11-20_17h52.43.107,Info_measure_main_exp,2022.2.2,Win32,60.0348202,,,,,,,,,,,,,,,,,,masks/mask_003.jpg,,,,,,,,,,,,,,,,,,,,,,,,,,,,,,,,,,,,,,,,,,,0,4,4,2,1,,,,,,,,,,,,,,,,,,,,,,,,,,,,,,,,,,,,,,,,,,,,,,
875271,001,2022-11-20_17h52.43.107,Info_measure_main_exp,2022.2.2,Win32,60.0348202,,,,,,,,,,,,,,,,,,masks/mask_004.jpg,,,,,,,,,,,,,,,,,,,,,,,,,,,,,,,,,,,,,,,,,,,,,,,,0,0,0,3,1,,,,,,,,,,,,,,,,,,,,,,,,,,,,,,,,,,,,,,,,,
875271,001,2022-11-20_17h52.43.107,Info_measure_main_exp,2022.2.2,Win32,60.0348202,,,,,,,,,,,,,,,,,,masks/mask_005.jpg,,,,,,,,,,,,,,,,,,,,,,,,,,,,,,,,,,,,,,,,,,,,,,,,0,1,1,4,1,,,,,,,,,,,,,,,,,,,,,,,,,,,,,,,,,,,,,,,,,
875271,001,2022-11-20_17h52.43.107,Info_measure_main_exp,2022.2.2,Win32,60.0348202,,,,,,,,,,,,,,,,,,masks/mask_001.jpg,,,,,,,,,,,,,,,,,,,,,,,,,,,,,,,,,,,,,,,,,,,,,,,,0,2,2,0,1,,,,,,,,,,,,,,,,,,,,,,,,,,,,,,,,,,,,,,,,,
875271,001,2022-11-20_17h52.43.107,Info_measure_main_exp,2022.2.2,Win32,60.0348202,,,,,,,,,,,,,,,,,,masks/mask_003.jpg,,,,,,,,,,,,,,,,,,,,,,,,,,,,,,,,,,,,,,,,,,,,,,,,0,3,3,2,1,,,,,,,,,,,,,,,,,,,,,,,,,,,,,,,,,,,,,,,,,
875271,001,2022-11-20_17h52.43.107,Info_measure_main_exp,2022.2.2,Win32,60.0348202,,,,,,,,,,,,,,,,,,masks/mask_002.jpg,,,,,,,,,,,,,,,,,,,,,,,,,,,,,,,,,,,,,,,,,,,,,,,,0,4,4,1,1,,,,,,,,,,,,,,,,,,,,,,,,,,,,,,,,,,,,,,,,,
875271,001,2022-11-20_17h52.43.107,Info_measure_main_exp,2022.2.2,Win32,60.0348202,,,,,,,,,,,,,,,,,,,,,,,,,,,,,,7,0.9149,1,,,,,,,,,,,,1,131,5,5,1,2142,present_patch/cong_131_5_a.jpg,absent_patch/patch0002142.jpg,,,,,,,,,,,,,,,,,,,,0.01,0.04,1,0,0,response1disk,14,-0.009166667,-0.005,1,0,0,center_square,0,13,13,80,1,,,,,,,,,,,,,,,,,,,,,,,
875271,001,2022-11-20_17h52.43.107,Info_measure_main_exp,2022.2.2,Win32,60.0348202,,,,,,,,,,,,,,,,,,masks/mask_001.jpg,,,,,,,,,,,,,,,,,,,,,,,,,,,,,,,,,,,,,,,,,,,0,0,0,0,1,,,,,,,,,,,,,,,,,,,,,,,,,,,,,,,,,,,,,,,,,,,,,,
875271,001,2022-11-20_17h52.43.107,Info_measure_main_exp,2022.2.2,Win32,60.0348202,,,,,,,,,,,,,,,,,,masks/mask_004.jpg,,,,,,,,,,,,,,,,,,,,,,,,,,,,,,,,,,,,,,,,,,,0,1,1,3,1,,,,,,,,,,,,,,,,,,,,,,,,,,,,,,,,,,,,,,,,,,,,,,
875271,001,2022-11-20_17h52.43.107,Info_measure_main_exp,2022.2.2,Win32,60.0348202,,,,,,,,,,,,,,,,,,masks/mask_002.jpg,,,,,,,,,,,,,,,,,,,,,,,,,,,,,,,,,,,,,,,,,,,0,2,2,1,1,,,,,,,,,,,,,,,,,,,,,,,,,,,,,,,,,,,,,,,,,,,,,,
875271,001,2022-11-20_17h52.43.107,Info_measure_main_exp,2022.2.2,Win32,60.0348202,,,,,,,,,,,,,,,,,,masks/mask_003.jpg,,,,,,,,,,,,,,,,,,,,,,,,,,,,,,,,,,,,,,,,,,,0,3,3,2,1,,,,,,,,,,,,,,,,,,,,,,,,,,,,,,,,,,,,,,,,,,,,,,
875271,001,2022-11-20_17h52.43.107,Info_measure_main_exp,2022.2.2,Win32,60.0348202,,,,,,,,,,,,,,,,,,masks/mask_005.jpg,,,,,,,,,,,,,,,,,,,,,,,,,,,,,,,,,,,,,,,,,,,0,4,4,4,1,,,,,,,,,,,,,,,,,,,,,,,,,,,,,,,,,,,,,,,,,,,,,,
875271,001,2022-11-20_17h52.43.107,Info_measure_main_exp,2022.2.2,Win32,60.0348202,,,,,,,,,,,,,,,,,,masks/mask_005.jpg,,,,,,,,,,,,,,,,,,,,,,,,,,,,,,,,,,,,,,,,,,,,,,,,0,0,0,4,1,,,,,,,,,,,,,,,,,,,,,,,,,,,,,,,,,,,,,,,,,
875271,001,2022-11-20_17h52.43.107,Info_measure_main_exp,2022.2.2,Win32,60.0348202,,,,,,,,,,,,,,,,,,masks/mask_002.jpg,,,,,,,,,,,,,,,,,,,,,,,,,,,,,,,,,,,,,,,,,,,,,,,,0,1,1,1,1,,,,,,,,,,,,,,,,,,,,,,,,,,,,,,,,,,,,,,,,,
875271,001,2022-11-20_17h52.43.107,Info_measure_main_exp,2022.2.2,Win32,60.0348202,,,,,,,,,,,,,,,,,,masks/mask_003.jpg,,,,,,,,,,,,,,,,,,,,,,,,,,,,,,,,,,,,,,,,,,,,,,,,0,2,2,2,1,,,,,,,,,,,,,,,,,,,,,,,,,,,,,,,,,,,,,,,,,
875271,001,2022-11-20_17h52.43.107,Info_measure_main_exp,2022.2.2,Win32,60.0348202,,,,,,,,,,,,,,,,,,masks/mask_001.jpg,,,,,,,,,,,,,,,,,,,,,,,,,,,,,,,,,,,,,,,,,,,,,,,,0,3,3,0,1,,,,,,,,,,,,,,,,,,,,,,,,,,,,,,,,,,,,,,,,,
875271,001,2022-11-20_17h52.43.107,Info_measure_main_exp,2022.2.2,Win32,60.0348202,,,,,,,,,,,,,,,,,,masks/mask_004.jpg,,,,,,,,,,,,,,,,,,,,,,,,,,,,,,,,,,,,,,,,,,,,,,,,0,4,4,3,1,,,,,,,,,,,,,,,,,,,,,,,,,,,,,,,,,,,,,,,,,
875271,001,2022-11-20_17h52.43.107,Info_measure_main_exp,2022.2.2,Win32,60.0348202,,,,,,,,,,,,,,,,,,,,,,,,,,,,,,0,1.3809,1,,,,,,,,,,,,0,131,5,5,2082,1974,absent_patch/patch0002082.jpg,absent_patch/patch0001974.jpg,,,,,,,,,,,,,,,,,,,,-0.000833333,0.015,1,0,0,response7disk,15,-0.000833333,0.010833333,1,0,0,center_square,0,14,14,26,1,,,,,,,,,,,,,,,,,,,,,,,
875271,001,2022-11-20_17h52.43.107,Info_measure_main_exp,2022.2.2,Win32,60.0348202,,,,,,,,,,,,,,,,,,masks/mask_005.jpg,,,,,,,,,,,,,,,,,,,,,,,,,,,,,,,,,,,,,,,,,,,0,0,0,4,1,,,,,,,,,,,,,,,,,,,,,,,,,,,,,,,,,,,,,,,,,,,,,,
875271,001,2022-11-20_17h52.43.107,Info_measure_main_exp,2022.2.2,Win32,60.0348202,,,,,,,,,,,,,,,,,,masks/mask_001.jpg,,,,,,,,,,,,,,,,,,,,,,,,,,,,,,,,,,,,,,,,,,,0,1,1,0,1,,,,,,,,,,,,,,,,,,,,,,,,,,,,,,,,,,,,,,,,,,,,,,
875271,001,2022-11-20_17h52.43.107,Info_measure_main_exp,2022.2.2,Win32,60.0348202,,,,,,,,,,,,,,,,,,masks/mask_002.jpg,,,,,,,,,,,,,,,,,,,,,,,,,,,,,,,,,,,,,,,,,,,0,2,2,1,1,,,,,,,,,,,,,,,,,,,,,,,,,,,,,,,,,,,,,,,,,,,,,,
875271,001,2022-11-20_17h52.43.107,Info_measure_main_exp,2022.2.2,Win32,60.0348202,,,,,,,,,,,,,,,,,,masks/mask_003.jpg,,,,,,,,,,,,,,,,,,,,,,,,,,,,,,,,,,,,,,,,,,,0,3,3,2,1,,,,,,,,,,,,,,,,,,,,,,,,,,,,,,,,,,,,,,,,,,,,,,
875271,001,2022-11-20_17h52.43.107,Info_measure_main_exp,2022.2.2,Win32,60.0348202,,,,,,,,,,,,,,,,,,masks/mask_004.jpg,,,,,,,,,,,,,,,,,,,,,,,,,,,,,,,,,,,,,,,,,,,0,4,4,3,1,,,,,,,,,,,,,,,,,,,,,,,,,,,,,,,,,,,,,,,,,,,,,,
875271,001,2022-11-20_17h52.43.107,Info_measure_main_exp,2022.2.2,Win32,60.0348202,,,,,,,,,,,,,,,,,,masks/mask_004.jpg,,,,,,,,,,,,,,,,,,,,,,,,,,,,,,,,,,,,,,,,,,,,,,,,0,0,0,3,1,,,,,,,,,,,,,,,,,,,,,,,,,,,,,,,,,,,,,,,,,
875271,001,2022-11-20_17h52.43.107,Info_measure_main_exp,2022.2.2,Win32,60.0348202,,,,,,,,,,,,,,,,,,masks/mask_002.jpg,,,,,,,,,,,,,,,,,,,,,,,,,,,,,,,,,,,,,,,,,,,,,,,,0,1,1,1,1,,,,,,,,,,,,,,,,,,,,,,,,,,,,,,,,,,,,,,,,,
875271,001,2022-11-20_17h52.43.107,Info_measure_main_exp,2022.2.2,Win32,60.0348202,,,,,,,,,,,,,,,,,,masks/mask_005.jpg,,,,,,,,,,,,,,,,,,,,,,,,,,,,,,,,,,,,,,,,,,,,,,,,0,2,2,4,1,,,,,,,,,,,,,,,,,,,,,,,,,,,,,,,,,,,,,,,,,
875271,001,2022-11-20_17h52.43.107,Info_measure_main_exp,2022.2.2,Win32,60.0348202,,,,,,,,,,,,,,,,,,masks/mask_003.jpg,,,,,,,,,,,,,,,,,,,,,,,,,,,,,,,,,,,,,,,,,,,,,,,,0,3,3,2,1,,,,,,,,,,,,,,,,,,,,,,,,,,,,,,,,,,,,,,,,,
875271,001,2022-11-20_17h52.43.107,Info_measure_main_exp,2022.2.2,Win32,60.0348202,,,,,,,,,,,,,,,,,,masks/mask_001.jpg,,,,,,,,,,,,,,,,,,,,,,,,,,,,,,,,,,,,,,,,,,,,,,,,0,4,4,0,1,,,,,,,,,,,,,,,,,,,,,,,,,,,,,,,,,,,,,,,,,
875271,001,2022-11-20_17h52.43.107,Info_measure_main_exp,2022.2.2,Win32,60.0348202,,,,,,,,,,,,,,,,,,,,,,,,,,,,,,4,4.077,1,,,,,,,,,,,,0,131,5,5,2166,2154,absent_patch/patch0002166.jpg,absent_patch/patch0002154.jpg,,,,,,,,,,,,,,,,,,,,0.018333333,-0.128333333,1,0,0,response3disk,16,-0.004166667,-0.009166667,1,0,0,center_square,0,15,15,79,1,,,,,,,,,,,,,,,,,,,,,,,
875271,001,2022-11-20_17h52.43.107,Info_measure_main_exp,2022.2.2,Win32,60.0348202,,,,,,,,,,,,,,,,,,masks/mask_003.jpg,,,,,,,,,,,,,,,,,,,,,,,,,,,,,,,,,,,,,,,,,,,0,0,0,2,1,,,,,,,,,,,,,,,,,,,,,,,,,,,,,,,,,,,,,,,,,,,,,,
875271,001,2022-11-20_17h52.43.107,Info_measure_main_exp,2022.2.2,Win32,60.0348202,,,,,,,,,,,,,,,,,,masks/mask_005.jpg,,,,,,,,,,,,,,,,,,,,,,,,,,,,,,,,,,,,,,,,,,,0,1,1,4,1,,,,,,,,,,,,,,,,,,,,,,,,,,,,,,,,,,,,,,,,,,,,,,
875271,001,2022-11-20_17h52.43.107,Info_measure_main_exp,2022.2.2,Win32,60.0348202,,,,,,,,,,,,,,,,,,masks/mask_001.jpg,,,,,,,,,,,,,,,,,,,,,,,,,,,,,,,,,,,,,,,,,,,0,2,2,0,1,,,,,,,,,,,,,,,,,,,,,,,,,,,,,,,,,,,,,,,,,,,,,,
875271,001,2022-11-20_17h52.43.107,Info_measure_main_exp,2022.2.2,Win32,60.0348202,,,,,,,,,,,,,,,,,,masks/mask_002.jpg,,,,,,,,,,,,,,,,,,,,,,,,,,,,,,,,,,,,,,,,,,,0,3,3,1,1,,,,,,,,,,,,,,,,,,,,,,,,,,,,,,,,,,,,,,,,,,,,,,
875271,001,2022-11-20_17h52.43.107,Info_measure_main_exp,2022.2.2,Win32,60.0348202,,,,,,,,,,,,,,,,,,masks/mask_004.jpg,,,,,,,,,,,,,,,,,,,,,,,,,,,,,,,,,,,,,,,,,,,0,4,4,3,1,,,,,,,,,,,,,,,,,,,,,,,,,,,,,,,,,,,,,,,,,,,,,,
875271,001,2022-11-20_17h52.43.107,Info_measure_main_exp,2022.2.2,Win32,60.0348202,,,,,,,,,,,,,,,,,,masks/mask_005.jpg,,,,,,,,,,,,,,,,,,,,,,,,,,,,,,,,,,,,,,,,,,,,,,,,0,0,0,4,1,,,,,,,,,,,,,,,,,,,,,,,,,,,,,,,,,,,,,,,,,
875271,001,2022-11-20_17h52.43.107,Info_measure_main_exp,2022.2.2,Win32,60.0348202,,,,,,,,,,,,,,,,,,masks/mask_001.jpg,,,,,,,,,,,,,,,,,,,,,,,,,,,,,,,,,,,,,,,,,,,,,,,,0,1,1,0,1,,,,,,,,,,,,,,,,,,,,,,,,,,,,,,,,,,,,,,,,,
875271,001,2022-11-20_17h52.43.107,Info_measure_main_exp,2022.2.2,Win32,60.0348202,,,,,,,,,,,,,,,,,,masks/mask_002.jpg,,,,,,,,,,,,,,,,,,,,,,,,,,,,,,,,,,,,,,,,,,,,,,,,0,2,2,1,1,,,,,,,,,,,,,,,,,,,,,,,,,,,,,,,,,,,,,,,,,
875271,001,2022-11-20_17h52.43.107,Info_measure_main_exp,2022.2.2,Win32,60.0348202,,,,,,,,,,,,,,,,,,masks/mask_003.jpg,,,,,,,,,,,,,,,,,,,,,,,,,,,,,,,,,,,,,,,,,,,,,,,,0,3,3,2,1,,,,,,,,,,,,,,,,,,,,,,,,,,,,,,,,,,,,,,,,,
875271,001,2022-11-20_17h52.43.107,Info_measure_main_exp,2022.2.2,Win32,60.0348202,,,,,,,,,,,,,,,,,,masks/mask_004.jpg,,,,,,,,,,,,,,,,,,,,,,,,,,,,,,,,,,,,,,,,,,,,,,,,0,4,4,3,1,,,,,,,,,,,,,,,,,,,,,,,,,,,,,,,,,,,,,,,,,
875271,001,2022-11-20_17h52.43.107,Info_measure_main_exp,2022.2.2,Win32,60.0348202,,,,,,,,,,,,,,,,,,,,,,,,,,,,,,7,0.599,1,,,,,,,,,,,,0,131,5,5,2190,2238,absent_patch/patch0002190.jpg,absent_patch/patch0002238.jpg,,,,,,,,,,,,,,,,,,,,0.015833333,0.056666667,1,0,0,response1disk,17,-0.000833333,-0.006666667,1,0,0,center_square,0,16,16,53,1,,,,,,,,,,,,,,,,,,,,,,,
875271,001,2022-11-20_17h52.43.107,Info_measure_main_exp,2022.2.2,Win32,60.0348202,,,,,,,,,,,,,,,,,,masks/mask_005.jpg,,,,,,,,,,,,,,,,,,,,,,,,,,,,,,,,,,,,,,,,,,,0,0,0,4,1,,,,,,,,,,,,,,,,,,,,,,,,,,,,,,,,,,,,,,,,,,,,,,
875271,001,2022-11-20_17h52.43.107,Info_measure_main_exp,2022.2.2,Win32,60.0348202,,,,,,,,,,,,,,,,,,masks/mask_002.jpg,,,,,,,,,,,,,,,,,,,,,,,,,,,,,,,,,,,,,,,,,,,0,1,1,1,1,,,,,,,,,,,,,,,,,,,,,,,,,,,,,,,,,,,,,,,,,,,,,,
875271,001,2022-11-20_17h52.43.107,Info_measure_main_exp,2022.2.2,Win32,60.0348202,,,,,,,,,,,,,,,,,,masks/mask_001.jpg,,,,,,,,,,,,,,,,,,,,,,,,,,,,,,,,,,,,,,,,,,,0,2,2,0,1,,,,,,,,,,,,,,,,,,,,,,,,,,,,,,,,,,,,,,,,,,,,,,
875271,001,2022-11-20_17h52.43.107,Info_measure_main_exp,2022.2.2,Win32,60.0348202,,,,,,,,,,,,,,,,,,masks/mask_004.jpg,,,,,,,,,,,,,,,,,,,,,,,,,,,,,,,,,,,,,,,,,,,0,3,3,3,1,,,,,,,,,,,,,,,,,,,,,,,,,,,,,,,,,,,,,,,,,,,,,,
875271,001,2022-11-20_17h52.43.107,Info_measure_main_exp,2022.2.2,Win32,60.0348202,,,,,,,,,,,,,,,,,,masks/mask_003.jpg,,,,,,,,,,,,,,,,,,,,,,,,,,,,,,,,,,,,,,,,,,,0,4,4,2,1,,,,,,,,,,,,,,,,,,,,,,,,,,,,,,,,,,,,,,,,,,,,,,
875271,001,2022-11-20_17h52.43.107,Info_measure_main_exp,2022.2.2,Win32,60.0348202,,,,,,,,,,,,,,,,,,masks/mask_004.jpg,,,,,,,,,,,,,,,,,,,,,,,,,,,,,,,,,,,,,,,,,,,,,,,,0,0,0,3,1,,,,,,,,,,,,,,,,,,,,,,,,,,,,,,,,,,,,,,,,,
875271,001,2022-11-20_17h52.43.107,Info_measure_main_exp,2022.2.2,Win32,60.0348202,,,,,,,,,,,,,,,,,,masks/mask_002.jpg,,,,,,,,,,,,,,,,,,,,,,,,,,,,,,,,,,,,,,,,,,,,,,,,0,1,1,1,1,,,,,,,,,,,,,,,,,,,,,,,,,,,,,,,,,,,,,,,,,
875271,001,2022-11-20_17h52.43.107,Info_measure_main_exp,2022.2.2,Win32,60.0348202,,,,,,,,,,,,,,,,,,masks/mask_003.jpg,,,,,,,,,,,,,,,,,,,,,,,,,,,,,,,,,,,,,,,,,,,,,,,,0,2,2,2,1,,,,,,,,,,,,,,,,,,,,,,,,,,,,,,,,,,,,,,,,,
875271,001,2022-11-20_17h52.43.107,Info_measure_main_exp,2022.2.2,Win32,60.0348202,,,,,,,,,,,,,,,,,,masks/mask_001.jpg,,,,,,,,,,,,,,,,,,,,,,,,,,,,,,,,,,,,,,,,,,,,,,,,0,3,3,0,1,,,,,,,,,,,,,,,,,,,,,,,,,,,,,,,,,,,,,,,,,
875271,001,2022-11-20_17h52.43.107,Info_measure_main_exp,2022.2.2,Win32,60.0348202,,,,,,,,,,,,,,,,,,masks/mask_005.jpg,,,,,,,,,,,,,,,,,,,,,,,,,,,,,,,,,,,,,,,,,,,,,,,,0,4,4,4,1,,,,,,,,,,,,,,,,,,,,,,,,,,,,,,,,,,,,,,,,,
875271,001,2022-11-20_17h52.43.107,Info_measure_main_exp,2022.2.2,Win32,60.0348202,,,,,,,,,,,,,,,,,,,,,,,,,,,,,,7,1.2313,1,,,,,,,,,,,,0,131,5,5,2298,2274,absent_patch/patch0002298.jpg,absent_patch/patch0002274.jpg,,,,,,,,,,,,,,,,,,,,0.011666667,0.0475,1,0,0,response1disk,18,-0.0025,0.003333333,1,0,0,center_square,0,17,17,1,1,,,,,,,,,,,,,,,,,,,,,,,
875271,001,2022-11-20_17h52.43.107,Info_measure_main_exp,2022.2.2,Win32,60.0348202,,,,,,,,,,,,,,,,,,masks/mask_001.jpg,,,,,,,,,,,,,,,,,,,,,,,,,,,,,,,,,,,,,,,,,,,0,0,0,0,1,,,,,,,,,,,,,,,,,,,,,,,,,,,,,,,,,,,,,,,,,,,,,,
875271,001,2022-11-20_17h52.43.107,Info_measure_main_exp,2022.2.2,Win32,60.0348202,,,,,,,,,,,,,,,,,,masks/mask_003.jpg,,,,,,,,,,,,,,,,,,,,,,,,,,,,,,,,,,,,,,,,,,,0,1,1,2,1,,,,,,,,,,,,,,,,,,,,,,,,,,,,,,,,,,,,,,,,,,,,,,
875271,001,2022-11-20_17h52.43.107,Info_measure_main_exp,2022.2.2,Win32,60.0348202,,,,,,,,,,,,,,,,,,masks/mask_004.jpg,,,,,,,,,,,,,,,,,,,,,,,,,,,,,,,,,,,,,,,,,,,0,2,2,3,1,,,,,,,,,,,,,,,,,,,,,,,,,,,,,,,,,,,,,,,,,,,,,,
875271,001,2022-11-20_17h52.43.107,Info_measure_main_exp,2022.2.2,Win32,60.0348202,,,,,,,,,,,,,,,,,,masks/mask_005.jpg,,,,,,,,,,,,,,,,,,,,,,,,,,,,,,,,,,,,,,,,,,,0,3,3,4,1,,,,,,,,,,,,,,,,,,,,,,,,,,,,,,,,,,,,,,,,,,,,,,
875271,001,2022-11-20_17h52.43.107,Info_measure_main_exp,2022.2.2,Win32,60.0348202,,,,,,,,,,,,,,,,,,masks/mask_002.jpg,,,,,,,,,,,,,,,,,,,,,,,,,,,,,,,,,,,,,,,,,,,0,4,4,1,1,,,,,,,,,,,,,,,,,,,,,,,,,,,,,,,,,,,,,,,,,,,,,,
875271,001,2022-11-20_17h52.43.107,Info_measure_main_exp,2022.2.2,Win32,60.0348202,,,,,,,,,,,,,,,,,,masks/mask_004.jpg,,,,,,,,,,,,,,,,,,,,,,,,,,,,,,,,,,,,,,,,,,,,,,,,0,0,0,3,1,,,,,,,,,,,,,,,,,,,,,,,,,,,,,,,,,,,,,,,,,
875271,001,2022-11-20_17h52.43.107,Info_measure_main_exp,2022.2.2,Win32,60.0348202,,,,,,,,,,,,,,,,,,masks/mask_005.jpg,,,,,,,,,,,,,,,,,,,,,,,,,,,,,,,,,,,,,,,,,,,,,,,,0,1,1,4,1,,,,,,,,,,,,,,,,,,,,,,,,,,,,,,,,,,,,,,,,,
875271,001,2022-11-20_17h52.43.107,Info_measure_main_exp,2022.2.2,Win32,60.0348202,,,,,,,,,,,,,,,,,,masks/mask_002.jpg,,,,,,,,,,,,,,,,,,,,,,,,,,,,,,,,,,,,,,,,,,,,,,,,0,2,2,1,1,,,,,,,,,,,,,,,,,,,,,,,,,,,,,,,,,,,,,,,,,
875271,001,2022-11-20_17h52.43.107,Info_measure_main_exp,2022.2.2,Win32,60.0348202,,,,,,,,,,,,,,,,,,masks/mask_003.jpg,,,,,,,,,,,,,,,,,,,,,,,,,,,,,,,,,,,,,,,,,,,,,,,,0,3,3,2,1,,,,,,,,,,,,,,,,,,,,,,,,,,,,,,,,,,,,,,,,,
875271,001,2022-11-20_17h52.43.107,Info_measure_main_exp,2022.2.2,Win32,60.0348202,,,,,,,,,,,,,,,,,,masks/mask_001.jpg,,,,,,,,,,,,,,,,,,,,,,,,,,,,,,,,,,,,,,,,,,,,,,,,0,4,4,0,1,,,,,,,,,,,,,,,,,,,,,,,,,,,,,,,,,,,,,,,,,
875271,001,2022-11-20_17h52.43.107,Info_measure_main_exp,2022.2.2,Win32,60.0348202,,,,,,,,,,,,,,,,,,,,,,,,,,,,,,2,1.0982,1,,,,,,,,,,,,0,131,5,5,2250,2178,absent_patch/patch0002250.jpg,absent_patch/patch0002178.jpg,,,,,,,,,,,,,,,,,,,,-0.076666667,-0.005833333,1,0,0,response5disk,19,-0.008333333,0.0025,1,0,0,center_square,0,18,18,48,1,,,,,,,,,,,,,,,,,,,,,,,
875271,001,2022-11-20_17h52.43.107,Info_measure_main_exp,2022.2.2,Win32,60.0348202,,,,,,,,,,,,,,,,,,masks/mask_001.jpg,,,,,,,,,,,,,,,,,,,,,,,,,,,,,,,,,,,,,,,,,,,0,0,0,0,1,,,,,,,,,,,,,,,,,,,,,,,,,,,,,,,,,,,,,,,,,,,,,,
875271,001,2022-11-20_17h52.43.107,Info_measure_main_exp,2022.2.2,Win32,60.0348202,,,,,,,,,,,,,,,,,,masks/mask_004.jpg,,,,,,,,,,,,,,,,,,,,,,,,,,,,,,,,,,,,,,,,,,,0,1,1,3,1,,,,,,,,,,,,,,,,,,,,,,,,,,,,,,,,,,,,,,,,,,,,,,
875271,001,2022-11-20_17h52.43.107,Info_measure_main_exp,2022.2.2,Win32,60.0348202,,,,,,,,,,,,,,,,,,masks/mask_002.jpg,,,,,,,,,,,,,,,,,,,,,,,,,,,,,,,,,,,,,,,,,,,0,2,2,1,1,,,,,,,,,,,,,,,,,,,,,,,,,,,,,,,,,,,,,,,,,,,,,,
875271,001,2022-11-20_17h52.43.107,Info_measure_main_exp,2022.2.2,Win32,60.0348202,,,,,,,,,,,,,,,,,,masks/mask_003.jpg,,,,,,,,,,,,,,,,,,,,,,,,,,,,,,,,,,,,,,,,,,,0,3,3,2,1,,,,,,,,,,,,,,,,,,,,,,,,,,,,,,,,,,,,,,,,,,,,,,
875271,001,2022-11-20_17h52.43.107,Info_measure_main_exp,2022.2.2,Win32,60.0348202,,,,,,,,,,,,,,,,,,masks/mask_005.jpg,,,,,,,,,,,,,,,,,,,,,,,,,,,,,,,,,,,,,,,,,,,0,4,4,4,1,,,,,,,,,,,,,,,,,,,,,,,,,,,,,,,,,,,,,,,,,,,,,,
875271,001,2022-11-20_17h52.43.107,Info_measure_main_exp,2022.2.2,Win32,60.0348202,,,,,,,,,,,,,,,,,,masks/mask_001.jpg,,,,,,,,,,,,,,,,,,,,,,,,,,,,,,,,,,,,,,,,,,,,,,,,0,0,0,0,1,,,,,,,,,,,,,,,,,,,,,,,,,,,,,,,,,,,,,,,,,
875271,001,2022-11-20_17h52.43.107,Info_measure_main_exp,2022.2.2,Win32,60.0348202,,,,,,,,,,,,,,,,,,masks/mask_003.jpg,,,,,,,,,,,,,,,,,,,,,,,,,,,,,,,,,,,,,,,,,,,,,,,,0,1,1,2,1,,,,,,,,,,,,,,,,,,,,,,,,,,,,,,,,,,,,,,,,,
875271,001,2022-11-20_17h52.43.107,Info_measure_main_exp,2022.2.2,Win32,60.0348202,,,,,,,,,,,,,,,,,,masks/mask_002.jpg,,,,,,,,,,,,,,,,,,,,,,,,,,,,,,,,,,,,,,,,,,,,,,,,0,2,2,1,1,,,,,,,,,,,,,,,,,,,,,,,,,,,,,,,,,,,,,,,,,
875271,001,2022-11-20_17h52.43.107,Info_measure_main_exp,2022.2.2,Win32,60.0348202,,,,,,,,,,,,,,,,,,masks/mask_004.jpg,,,,,,,,,,,,,,,,,,,,,,,,,,,,,,,,,,,,,,,,,,,,,,,,0,3,3,3,1,,,,,,,,,,,,,,,,,,,,,,,,,,,,,,,,,,,,,,,,,
875271,001,2022-11-20_17h52.43.107,Info_measure_main_exp,2022.2.2,Win32,60.0348202,,,,,,,,,,,,,,,,,,masks/mask_005.jpg,,,,,,,,,,,,,,,,,,,,,,,,,,,,,,,,,,,,,,,,,,,,,,,,0,4,4,4,1,,,,,,,,,,,,,,,,,,,,,,,,,,,,,,,,,,,,,,,,,
875271,001,2022-11-20_17h52.43.107,Info_measure_main_exp,2022.2.2,Win32,60.0348202,,,,,,,,,,,,,,,,,,,,,,,,,,,,,,0,0.9983,1,,,,,,,,,,,,0,131,5,5,1950,1950,absent_patch/patch0001950.jpg,absent_patch/patch0001950.jpg,,,,,,,,,,,,,,,,,,,,-0.0475,0.085833333,1,0,0,response7disk,20,-0.01,0.005,1,0,0,center_square,0,19,19,92,1,,,,,,,,,,,,,,,,,,,,,,,
875271,001,2022-11-20_17h52.43.107,Info_measure_main_exp,2022.2.2,Win32,60.0348202,,,,,,,,,,,,,,,,,,masks/mask_005.jpg,,,,,,,,,,,,,,,,,,,,,,,,,,,,,,,,,,,,,,,,,,,0,0,0,4,1,,,,,,,,,,,,,,,,,,,,,,,,,,,,,,,,,,,,,,,,,,,,,,
875271,001,2022-11-20_17h52.43.107,Info_measure_main_exp,2022.2.2,Win32,60.0348202,,,,,,,,,,,,,,,,,,masks/mask_002.jpg,,,,,,,,,,,,,,,,,,,,,,,,,,,,,,,,,,,,,,,,,,,0,1,1,1,1,,,,,,,,,,,,,,,,,,,,,,,,,,,,,,,,,,,,,,,,,,,,,,
875271,001,2022-11-20_17h52.43.107,Info_measure_main_exp,2022.2.2,Win32,60.0348202,,,,,,,,,,,,,,,,,,masks/mask_004.jpg,,,,,,,,,,,,,,,,,,,,,,,,,,,,,,,,,,,,,,,,,,,0,2,2,3,1,,,,,,,,,,,,,,,,,,,,,,,,,,,,,,,,,,,,,,,,,,,,,,
875271,001,2022-11-20_17h52.43.107,Info_measure_main_exp,2022.2.2,Win32,60.0348202,,,,,,,,,,,,,,,,,,masks/mask_001.jpg,,,,,,,,,,,,,,,,,,,,,,,,,,,,,,,,,,,,,,,,,,,0,3,3,0,1,,,,,,,,,,,,,,,,,,,,,,,,,,,,,,,,,,,,,,,,,,,,,,
875271,001,2022-11-20_17h52.43.107,Info_measure_main_exp,2022.2.2,Win32,60.0348202,,,,,,,,,,,,,,,,,,masks/mask_003.jpg,,,,,,,,,,,,,,,,,,,,,,,,,,,,,,,,,,,,,,,,,,,0,4,4,2,1,,,,,,,,,,,,,,,,,,,,,,,,,,,,,,,,,,,,,,,,,,,,,,
875271,001,2022-11-20_17h52.43.107,Info_measure_main_exp,2022.2.2,Win32,60.0348202,,,,,,,,,,,,,,,,,,masks/mask_005.jpg,,,,,,,,,,,,,,,,,,,,,,,,,,,,,,,,,,,,,,,,,,,,,,,,0,0,0,4,1,,,,,,,,,,,,,,,,,,,,,,,,,,,,,,,,,,,,,,,,,
875271,001,2022-11-20_17h52.43.107,Info_measure_main_exp,2022.2.2,Win32,60.0348202,,,,,,,,,,,,,,,,,,masks/mask_001.jpg,,,,,,,,,,,,,,,,,,,,,,,,,,,,,,,,,,,,,,,,,,,,,,,,0,1,1,0,1,,,,,,,,,,,,,,,,,,,,,,,,,,,,,,,,,,,,,,,,,
875271,001,2022-11-20_17h52.43.107,Info_measure_main_exp,2022.2.2,Win32,60.0348202,,,,,,,,,,,,,,,,,,masks/mask_004.jpg,,,,,,,,,,,,,,,,,,,,,,,,,,,,,,,,,,,,,,,,,,,,,,,,0,2,2,3,1,,,,,,,,,,,,,,,,,,,,,,,,,,,,,,,,,,,,,,,,,
875271,001,2022-11-20_17h52.43.107,Info_measure_main_exp,2022.2.2,Win32,60.0348202,,,,,,,,,,,,,,,,,,masks/mask_002.jpg,,,,,,,,,,,,,,,,,,,,,,,,,,,,,,,,,,,,,,,,,,,,,,,,0,3,3,1,1,,,,,,,,,,,,,,,,,,,,,,,,,,,,,,,,,,,,,,,,,
875271,001,2022-11-20_17h52.43.107,Info_measure_main_exp,2022.2.2,Win32,60.0348202,,,,,,,,,,,,,,,,,,masks/mask_003.jpg,,,,,,,,,,,,,,,,,,,,,,,,,,,,,,,,,,,,,,,,,,,,,,,,0,4,4,2,1,,,,,,,,,,,,,,,,,,,,,,,,,,,,,,,,,,,,,,,,,
875271,001,2022-11-20_17h52.43.107,Info_measure_main_exp,2022.2.2,Win32,60.0348202,,,,,,,,,,,,,,,,,,,,,,,,,,,,,,7,0.6821,1,,,,,,,,,,,,0,131,5,5,2154,2190,absent_patch/patch0002154.jpg,absent_patch/patch0002190.jpg,,,,,,,,,,,,,,,,,,,,0.015833333,0.049166667,1,0,0,response1disk,21,-0.000833333,0.001666667,1,0,0,center_square,0,20,20,68,1,,,,,,,,,,,,,,,,,,,,,,,
875271,001,2022-11-20_17h52.43.107,Info_measure_main_exp,2022.2.2,Win32,60.0348202,,,,,,,,,,,,,,,,,,masks/mask_001.jpg,,,,,,,,,,,,,,,,,,,,,,,,,,,,,,,,,,,,,,,,,,,0,0,0,0,1,,,,,,,,,,,,,,,,,,,,,,,,,,,,,,,,,,,,,,,,,,,,,,
875271,001,2022-11-20_17h52.43.107,Info_measure_main_exp,2022.2.2,Win32,60.0348202,,,,,,,,,,,,,,,,,,masks/mask_002.jpg,,,,,,,,,,,,,,,,,,,,,,,,,,,,,,,,,,,,,,,,,,,0,1,1,1,1,,,,,,,,,,,,,,,,,,,,,,,,,,,,,,,,,,,,,,,,,,,,,,
875271,001,2022-11-20_17h52.43.107,Info_measure_main_exp,2022.2.2,Win32,60.0348202,,,,,,,,,,,,,,,,,,masks/mask_005.jpg,,,,,,,,,,,,,,,,,,,,,,,,,,,,,,,,,,,,,,,,,,,0,2,2,4,1,,,,,,,,,,,,,,,,,,,,,,,,,,,,,,,,,,,,,,,,,,,,,,
875271,001,2022-11-20_17h52.43.107,Info_measure_main_exp,2022.2.2,Win32,60.0348202,,,,,,,,,,,,,,,,,,masks/mask_003.jpg,,,,,,,,,,,,,,,,,,,,,,,,,,,,,,,,,,,,,,,,,,,0,3,3,2,1,,,,,,,,,,,,,,,,,,,,,,,,,,,,,,,,,,,,,,,,,,,,,,
875271,001,2022-11-20_17h52.43.107,Info_measure_main_exp,2022.2.2,Win32,60.0348202,,,,,,,,,,,,,,,,,,masks/mask_004.jpg,,,,,,,,,,,,,,,,,,,,,,,,,,,,,,,,,,,,,,,,,,,0,4,4,3,1,,,,,,,,,,,,,,,,,,,,,,,,,,,,,,,,,,,,,,,,,,,,,,
875271,001,2022-11-20_17h52.43.107,Info_measure_main_exp,2022.2.2,Win32,60.0348202,,,,,,,,,,,,,,,,,,masks/mask_005.jpg,,,,,,,,,,,,,,,,,,,,,,,,,,,,,,,,,,,,,,,,,,,,,,,,0,0,0,4,1,,,,,,,,,,,,,,,,,,,,,,,,,,,,,,,,,,,,,,,,,
875271,001,2022-11-20_17h52.43.107,Info_measure_main_exp,2022.2.2,Win32,60.0348202,,,,,,,,,,,,,,,,,,masks/mask_002.jpg,,,,,,,,,,,,,,,,,,,,,,,,,,,,,,,,,,,,,,,,,,,,,,,,0,1,1,1,1,,,,,,,,,,,,,,,,,,,,,,,,,,,,,,,,,,,,,,,,,
875271,001,2022-11-20_17h52.43.107,Info_measure_main_exp,2022.2.2,Win32,60.0348202,,,,,,,,,,,,,,,,,,masks/mask_004.jpg,,,,,,,,,,,,,,,,,,,,,,,,,,,,,,,,,,,,,,,,,,,,,,,,0,2,2,3,1,,,,,,,,,,,,,,,,,,,,,,,,,,,,,,,,,,,,,,,,,
875271,001,2022-11-20_17h52.43.107,Info_measure_main_exp,2022.2.2,Win32,60.0348202,,,,,,,,,,,,,,,,,,masks/mask_003.jpg,,,,,,,,,,,,,,,,,,,,,,,,,,,,,,,,,,,,,,,,,,,,,,,,0,3,3,2,1,,,,,,,,,,,,,,,,,,,,,,,,,,,,,,,,,,,,,,,,,
875271,001,2022-11-20_17h52.43.107,Info_measure_main_exp,2022.2.2,Win32,60.0348202,,,,,,,,,,,,,,,,,,masks/mask_001.jpg,,,,,,,,,,,,,,,,,,,,,,,,,,,,,,,,,,,,,,,,,,,,,,,,0,4,4,0,1,,,,,,,,,,,,,,,,,,,,,,,,,,,,,,,,,,,,,,,,,
875271,001,2022-11-20_17h52.43.107,Info_measure_main_exp,2022.2.2,Win32,60.0348202,,,,,,,,,,,,,,,,,,,,,,,,,,,,,,7,0.733,1,,,,,,,,,,,,0,131,5,5,2274,2178,absent_patch/patch0002274.jpg,absent_patch/patch0002178.jpg,,,,,,,,,,,,,,,,,,,,0.0075,0.038333333,1,0,0,response1disk,22,0.000833333,-0.006666667,1,0,0,center_square,0,21,21,117,1,,,,,,,,,,,,,,,,,,,,,,,
875271,001,2022-11-20_17h52.43.107,Info_measure_main_exp,2022.2.2,Win32,60.0348202,,,,,,,,,,,,,,,,,,masks/mask_005.jpg,,,,,,,,,,,,,,,,,,,,,,,,,,,,,,,,,,,,,,,,,,,0,0,0,4,1,,,,,,,,,,,,,,,,,,,,,,,,,,,,,,,,,,,,,,,,,,,,,,
875271,001,2022-11-20_17h52.43.107,Info_measure_main_exp,2022.2.2,Win32,60.0348202,,,,,,,,,,,,,,,,,,masks/mask_003.jpg,,,,,,,,,,,,,,,,,,,,,,,,,,,,,,,,,,,,,,,,,,,0,1,1,2,1,,,,,,,,,,,,,,,,,,,,,,,,,,,,,,,,,,,,,,,,,,,,,,
875271,001,2022-11-20_17h52.43.107,Info_measure_main_exp,2022.2.2,Win32,60.0348202,,,,,,,,,,,,,,,,,,masks/mask_002.jpg,,,,,,,,,,,,,,,,,,,,,,,,,,,,,,,,,,,,,,,,,,,0,2,2,1,1,,,,,,,,,,,,,,,,,,,,,,,,,,,,,,,,,,,,,,,,,,,,,,
875271,001,2022-11-20_17h52.43.107,Info_measure_main_exp,2022.2.2,Win32,60.0348202,,,,,,,,,,,,,,,,,,masks/mask_001.jpg,,,,,,,,,,,,,,,,,,,,,,,,,,,,,,,,,,,,,,,,,,,0,3,3,0,1,,,,,,,,,,,,,,,,,,,,,,,,,,,,,,,,,,,,,,,,,,,,,,
875271,001,2022-11-20_17h52.43.107,Info_measure_main_exp,2022.2.2,Win32,60.0348202,,,,,,,,,,,,,,,,,,masks/mask_004.jpg,,,,,,,,,,,,,,,,,,,,,,,,,,,,,,,,,,,,,,,,,,,0,4,4,3,1,,,,,,,,,,,,,,,,,,,,,,,,,,,,,,,,,,,,,,,,,,,,,,
875271,001,2022-11-20_17h52.43.107,Info_measure_main_exp,2022.2.2,Win32,60.0348202,,,,,,,,,,,,,,,,,,masks/mask_002.jpg,,,,,,,,,,,,,,,,,,,,,,,,,,,,,,,,,,,,,,,,,,,,,,,,0,0,0,1,1,,,,,,,,,,,,,,,,,,,,,,,,,,,,,,,,,,,,,,,,,
875271,001,2022-11-20_17h52.43.107,Info_measure_main_exp,2022.2.2,Win32,60.0348202,,,,,,,,,,,,,,,,,,masks/mask_004.jpg,,,,,,,,,,,,,,,,,,,,,,,,,,,,,,,,,,,,,,,,,,,,,,,,0,1,1,3,1,,,,,,,,,,,,,,,,,,,,,,,,,,,,,,,,,,,,,,,,,
875271,001,2022-11-20_17h52.43.107,Info_measure_main_exp,2022.2.2,Win32,60.0348202,,,,,,,,,,,,,,,,,,masks/mask_003.jpg,,,,,,,,,,,,,,,,,,,,,,,,,,,,,,,,,,,,,,,,,,,,,,,,0,2,2,2,1,,,,,,,,,,,,,,,,,,,,,,,,,,,,,,,,,,,,,,,,,
875271,001,2022-11-20_17h52.43.107,Info_measure_main_exp,2022.2.2,Win32,60.0348202,,,,,,,,,,,,,,,,,,masks/mask_005.jpg,,,,,,,,,,,,,,,,,,,,,,,,,,,,,,,,,,,,,,,,,,,,,,,,0,3,3,4,1,,,,,,,,,,,,,,,,,,,,,,,,,,,,,,,,,,,,,,,,,
875271,001,2022-11-20_17h52.43.107,Info_measure_main_exp,2022.2.2,Win32,60.0348202,,,,,,,,,,,,,,,,,,masks/mask_001.jpg,,,,,,,,,,,,,,,,,,,,,,,,,,,,,,,,,,,,,,,,,,,,,,,,0,4,4,0,1,,,,,,,,,,,,,,,,,,,,,,,,,,,,,,,,,,,,,,,,,
875271,001,2022-11-20_17h52.43.107,Info_measure_main_exp,2022.2.2,Win32,60.0348202,,,,,,,,,,,,,,,,,,,,,,,,,,,,,,7,3.2438,1,,,,,,,,,,,,1,131,5,5,2250,1,absent_patch/patch0002250.jpg,present_patch/cong_131_5_a.jpg,,,,,,,,,,,,,,,,,,,,0.045,0.086666667,1,0,0,response1disk,23,0.000833333,-0.005,1,0,0,center_square,0,22,22,5,1,,,,,,,,,,,,,,,,,,,,,,,
875271,001,2022-11-20_17h52.43.107,Info_measure_main_exp,2022.2.2,Win32,60.0348202,,,,,,,,,,,,,,,,,,masks/mask_002.jpg,,,,,,,,,,,,,,,,,,,,,,,,,,,,,,,,,,,,,,,,,,,0,0,0,1,1,,,,,,,,,,,,,,,,,,,,,,,,,,,,,,,,,,,,,,,,,,,,,,
875271,001,2022-11-20_17h52.43.107,Info_measure_main_exp,2022.2.2,Win32,60.0348202,,,,,,,,,,,,,,,,,,masks/mask_005.jpg,,,,,,,,,,,,,,,,,,,,,,,,,,,,,,,,,,,,,,,,,,,0,1,1,4,1,,,,,,,,,,,,,,,,,,,,,,,,,,,,,,,,,,,,,,,,,,,,,,
875271,001,2022-11-20_17h52.43.107,Info_measure_main_exp,2022.2.2,Win32,60.0348202,,,,,,,,,,,,,,,,,,masks/mask_003.jpg,,,,,,,,,,,,,,,,,,,,,,,,,,,,,,,,,,,,,,,,,,,0,2,2,2,1,,,,,,,,,,,,,,,,,,,,,,,,,,,,,,,,,,,,,,,,,,,,,,
875271,001,2022-11-20_17h52.43.107,Info_measure_main_exp,2022.2.2,Win32,60.0348202,,,,,,,,,,,,,,,,,,masks/mask_004.jpg,,,,,,,,,,,,,,,,,,,,,,,,,,,,,,,,,,,,,,,,,,,0,3,3,3,1,,,,,,,,,,,,,,,,,,,,,,,,,,,,,,,,,,,,,,,,,,,,,,
875271,001,2022-11-20_17h52.43.107,Info_measure_main_exp,2022.2.2,Win32,60.0348202,,,,,,,,,,,,,,,,,,masks/mask_001.jpg,,,,,,,,,,,,,,,,,,,,,,,,,,,,,,,,,,,,,,,,,,,0,4,4,0,1,,,,,,,,,,,,,,,,,,,,,,,,,,,,,,,,,,,,,,,,,,,,,,
875271,001,2022-11-20_17h52.43.107,Info_measure_main_exp,2022.2.2,Win32,60.0348202,,,,,,,,,,,,,,,,,,masks/mask_005.jpg,,,,,,,,,,,,,,,,,,,,,,,,,,,,,,,,,,,,,,,,,,,,,,,,0,0,0,4,1,,,,,,,,,,,,,,,,,,,,,,,,,,,,,,,,,,,,,,,,,
875271,001,2022-11-20_17h52.43.107,Info_measure_main_exp,2022.2.2,Win32,60.0348202,,,,,,,,,,,,,,,,,,masks/mask_003.jpg,,,,,,,,,,,,,,,,,,,,,,,,,,,,,,,,,,,,,,,,,,,,,,,,0,1,1,2,1,,,,,,,,,,,,,,,,,,,,,,,,,,,,,,,,,,,,,,,,,
875271,001,2022-11-20_17h52.43.107,Info_measure_main_exp,2022.2.2,Win32,60.0348202,,,,,,,,,,,,,,,,,,masks/mask_004.jpg,,,,,,,,,,,,,,,,,,,,,,,,,,,,,,,,,,,,,,,,,,,,,,,,0,2,2,3,1,,,,,,,,,,,,,,,,,,,,,,,,,,,,,,,,,,,,,,,,,
875271,001,2022-11-20_17h52.43.107,Info_measure_main_exp,2022.2.2,Win32,60.0348202,,,,,,,,,,,,,,,,,,masks/mask_001.jpg,,,,,,,,,,,,,,,,,,,,,,,,,,,,,,,,,,,,,,,,,,,,,,,,0,3,3,0,1,,,,,,,,,,,,,,,,,,,,,,,,,,,,,,,,,,,,,,,,,
875271,001,2022-11-20_17h52.43.107,Info_measure_main_exp,2022.2.2,Win32,60.0348202,,,,,,,,,,,,,,,,,,masks/mask_002.jpg,,,,,,,,,,,,,,,,,,,,,,,,,,,,,,,,,,,,,,,,,,,,,,,,0,4,4,1,1,,,,,,,,,,,,,,,,,,,,,,,,,,,,,,,,,,,,,,,,,
875271,001,2022-11-20_17h52.43.107,Info_measure_main_exp,2022.2.2,Win32,60.0348202,,,,,,,,,,,,,,,,,,,,,,,,,,,,,,0,0.5158,1,,,,,,,,,,,,1,131,5,5,1,1,present_patch/cong_131_5_a.jpg,present_patch/cong_131_5_a.jpg,,,,,,,,,,,,,,,,,,,,-0.035,0.104166667,1,0,0,response7disk,24,0.01,0.006666667,1,0,0,center_square,0,23,23,30,1,,,,,,,,,,,,,,,,,,,,,,,
875271,001,2022-11-20_17h52.43.107,Info_measure_main_exp,2022.2.2,Win32,60.0348202,,,,,,,,,,,,,,,,,,masks/mask_005.jpg,,,,,,,,,,,,,,,,,,,,,,,,,,,,,,,,,,,,,,,,,,,0,0,0,4,1,,,,,,,,,,,,,,,,,,,,,,,,,,,,,,,,,,,,,,,,,,,,,,
875271,001,2022-11-20_17h52.43.107,Info_measure_main_exp,2022.2.2,Win32,60.0348202,,,,,,,,,,,,,,,,,,masks/mask_002.jpg,,,,,,,,,,,,,,,,,,,,,,,,,,,,,,,,,,,,,,,,,,,0,1,1,1,1,,,,,,,,,,,,,,,,,,,,,,,,,,,,,,,,,,,,,,,,,,,,,,
875271,001,2022-11-20_17h52.43.107,Info_measure_main_exp,2022.2.2,Win32,60.0348202,,,,,,,,,,,,,,,,,,masks/mask_003.jpg,,,,,,,,,,,,,,,,,,,,,,,,,,,,,,,,,,,,,,,,,,,0,2,2,2,1,,,,,,,,,,,,,,,,,,,,,,,,,,,,,,,,,,,,,,,,,,,,,,
875271,001,2022-11-20_17h52.43.107,Info_measure_main_exp,2022.2.2,Win32,60.0348202,,,,,,,,,,,,,,,,,,masks/mask_001.jpg,,,,,,,,,,,,,,,,,,,,,,,,,,,,,,,,,,,,,,,,,,,0,3,3,0,1,,,,,,,,,,,,,,,,,,,,,,,,,,,,,,,,,,,,,,,,,,,,,,
875271,001,2022-11-20_17h52.43.107,Info_measure_main_exp,2022.2.2,Win32,60.0348202,,,,,,,,,,,,,,,,,,masks/mask_004.jpg,,,,,,,,,,,,,,,,,,,,,,,,,,,,,,,,,,,,,,,,,,,0,4,4,3,1,,,,,,,,,,,,,,,,,,,,,,,,,,,,,,,,,,,,,,,,,,,,,,
875271,001,2022-11-20_17h52.43.107,Info_measure_main_exp,2022.2.2,Win32,60.0348202,,,,,,,,,,,,,,,,,,masks/mask_001.jpg,,,,,,,,,,,,,,,,,,,,,,,,,,,,,,,,,,,,,,,,,,,,,,,,0,0,0,0,1,,,,,,,,,,,,,,,,,,,,,,,,,,,,,,,,,,,,,,,,,
875271,001,2022-11-20_17h52.43.107,Info_measure_main_exp,2022.2.2,Win32,60.0348202,,,,,,,,,,,,,,,,,,masks/mask_005.jpg,,,,,,,,,,,,,,,,,,,,,,,,,,,,,,,,,,,,,,,,,,,,,,,,0,1,1,4,1,,,,,,,,,,,,,,,,,,,,,,,,,,,,,,,,,,,,,,,,,
875271,001,2022-11-20_17h52.43.107,Info_measure_main_exp,2022.2.2,Win32,60.0348202,,,,,,,,,,,,,,,,,,masks/mask_002.jpg,,,,,,,,,,,,,,,,,,,,,,,,,,,,,,,,,,,,,,,,,,,,,,,,0,2,2,1,1,,,,,,,,,,,,,,,,,,,,,,,,,,,,,,,,,,,,,,,,,
875271,001,2022-11-20_17h52.43.107,Info_measure_main_exp,2022.2.2,Win32,60.0348202,,,,,,,,,,,,,,,,,,masks/mask_003.jpg,,,,,,,,,,,,,,,,,,,,,,,,,,,,,,,,,,,,,,,,,,,,,,,,0,3,3,2,1,,,,,,,,,,,,,,,,,,,,,,,,,,,,,,,,,,,,,,,,,
875271,001,2022-11-20_17h52.43.107,Info_measure_main_exp,2022.2.2,Win32,60.0348202,,,,,,,,,,,,,,,,,,masks/mask_004.jpg,,,,,,,,,,,,,,,,,,,,,,,,,,,,,,,,,,,,,,,,,,,,,,,,0,4,4,3,1,,,,,,,,,,,,,,,,,,,,,,,,,,,,,,,,,,,,,,,,,
875271,001,2022-11-20_17h52.43.107,Info_measure_main_exp,2022.2.2,Win32,60.0348202,,,,,,,,,,,,,,,,,,,,,,,,,,,,,,4,1.347,1,,,,,,,,,,,,0,131,5,5,2238,2166,absent_patch/patch0002238.jpg,absent_patch/patch0002166.jpg,,,,,,,,,,,,,,,,,,,,0.031666667,-0.068333333,1,0,0,response3disk,25,0.005,-0.0025,1,0,0,center_square,0,24,24,118,1,,,,,,,,,,,,,,,,,,,,,,,
875271,001,2022-11-20_17h52.43.107,Info_measure_main_exp,2022.2.2,Win32,60.0348202,,,,,,,,,,,,,,,,,,masks/mask_004.jpg,,,,,,,,,,,,,,,,,,,,,,,,,,,,,,,,,,,,,,,,,,,0,0,0,3,1,,,,,,,,,,,,,,,,,,,,,,,,,,,,,,,,,,,,,,,,,,,,,,
875271,001,2022-11-20_17h52.43.107,Info_measure_main_exp,2022.2.2,Win32,60.0348202,,,,,,,,,,,,,,,,,,masks/mask_005.jpg,,,,,,,,,,,,,,,,,,,,,,,,,,,,,,,,,,,,,,,,,,,0,1,1,4,1,,,,,,,,,,,,,,,,,,,,,,,,,,,,,,,,,,,,,,,,,,,,,,
875271,001,2022-11-20_17h52.43.107,Info_measure_main_exp,2022.2.2,Win32,60.0348202,,,,,,,,,,,,,,,,,,masks/mask_003.jpg,,,,,,,,,,,,,,,,,,,,,,,,,,,,,,,,,,,,,,,,,,,0,2,2,2,1,,,,,,,,,,,,,,,,,,,,,,,,,,,,,,,,,,,,,,,,,,,,,,
875271,001,2022-11-20_17h52.43.107,Info_measure_main_exp,2022.2.2,Win32,60.0348202,,,,,,,,,,,,,,,,,,masks/mask_002.jpg,,,,,,,,,,,,,,,,,,,,,,,,,,,,,,,,,,,,,,,,,,,0,3,3,1,1,,,,,,,,,,,,,,,,,,,,,,,,,,,,,,,,,,,,,,,,,,,,,,
875271,001,2022-11-20_17h52.43.107,Info_measure_main_exp,2022.2.2,Win32,60.0348202,,,,,,,,,,,,,,,,,,masks/mask_001.jpg,,,,,,,,,,,,,,,,,,,,,,,,,,,,,,,,,,,,,,,,,,,0,4,4,0,1,,,,,,,,,,,,,,,,,,,,,,,,,,,,,,,,,,,,,,,,,,,,,,
875271,001,2022-11-20_17h52.43.107,Info_measure_main_exp,2022.2.2,Win32,60.0348202,,,,,,,,,,,,,,,,,,masks/mask_005.jpg,,,,,,,,,,,,,,,,,,,,,,,,,,,,,,,,,,,,,,,,,,,,,,,,0,0,0,4,1,,,,,,,,,,,,,,,,,,,,,,,,,,,,,,,,,,,,,,,,,
875271,001,2022-11-20_17h52.43.107,Info_measure_main_exp,2022.2.2,Win32,60.0348202,,,,,,,,,,,,,,,,,,masks/mask_001.jpg,,,,,,,,,,,,,,,,,,,,,,,,,,,,,,,,,,,,,,,,,,,,,,,,0,1,1,0,1,,,,,,,,,,,,,,,,,,,,,,,,,,,,,,,,,,,,,,,,,
875271,001,2022-11-20_17h52.43.107,Info_measure_main_exp,2022.2.2,Win32,60.0348202,,,,,,,,,,,,,,,,,,masks/mask_003.jpg,,,,,,,,,,,,,,,,,,,,,,,,,,,,,,,,,,,,,,,,,,,,,,,,0,2,2,2,1,,,,,,,,,,,,,,,,,,,,,,,,,,,,,,,,,,,,,,,,,
875271,001,2022-11-20_17h52.43.107,Info_measure_main_exp,2022.2.2,Win32,60.0348202,,,,,,,,,,,,,,,,,,masks/mask_004.jpg,,,,,,,,,,,,,,,,,,,,,,,,,,,,,,,,,,,,,,,,,,,,,,,,0,3,3,3,1,,,,,,,,,,,,,,,,,,,,,,,,,,,,,,,,,,,,,,,,,
875271,001,2022-11-20_17h52.43.107,Info_measure_main_exp,2022.2.2,Win32,60.0348202,,,,,,,,,,,,,,,,,,masks/mask_002.jpg,,,,,,,,,,,,,,,,,,,,,,,,,,,,,,,,,,,,,,,,,,,,,,,,0,4,4,1,1,,,,,,,,,,,,,,,,,,,,,,,,,,,,,,,,,,,,,,,,,
875271,001,2022-11-20_17h52.43.107,Info_measure_main_exp,2022.2.2,Win32,60.0348202,,,,,,,,,,,,,,,,,,,,,,,,,,,,,,0,2.1297,1,,,,,,,,,,,,0,131,5,5,1974,1950,absent_patch/patch0001974.jpg,absent_patch/patch0001950.jpg,,,,,,,,,,,,,,,,,,,,-0.03,0.046666667,1,0,0,response7disk,26,0.001666667,-0.0025,1,0,0,center_square,0,25,25,17,1,,,,,,,,,,,,,,,,,,,,,,,
875271,001,2022-11-20_17h52.43.107,Info_measure_main_exp,2022.2.2,Win32,60.0348202,,,,,,,,,,,,,,,,,,masks/mask_002.jpg,,,,,,,,,,,,,,,,,,,,,,,,,,,,,,,,,,,,,,,,,,,0,0,0,1,1,,,,,,,,,,,,,,,,,,,,,,,,,,,,,,,,,,,,,,,,,,,,,,
875271,001,2022-11-20_17h52.43.107,Info_measure_main_exp,2022.2.2,Win32,60.0348202,,,,,,,,,,,,,,,,,,masks/mask_003.jpg,,,,,,,,,,,,,,,,,,,,,,,,,,,,,,,,,,,,,,,,,,,0,1,1,2,1,,,,,,,,,,,,,,,,,,,,,,,,,,,,,,,,,,,,,,,,,,,,,,
875271,001,2022-11-20_17h52.43.107,Info_measure_main_exp,2022.2.2,Win32,60.0348202,,,,,,,,,,,,,,,,,,masks/mask_005.jpg,,,,,,,,,,,,,,,,,,,,,,,,,,,,,,,,,,,,,,,,,,,0,2,2,4,1,,,,,,,,,,,,,,,,,,,,,,,,,,,,,,,,,,,,,,,,,,,,,,
875271,001,2022-11-20_17h52.43.107,Info_measure_main_exp,2022.2.2,Win32,60.0348202,,,,,,,,,,,,,,,,,,masks/mask_001.jpg,,,,,,,,,,,,,,,,,,,,,,,,,,,,,,,,,,,,,,,,,,,0,3,3,0,1,,,,,,,,,,,,,,,,,,,,,,,,,,,,,,,,,,,,,,,,,,,,,,
875271,001,2022-11-20_17h52.43.107,Info_measure_main_exp,2022.2.2,Win32,60.0348202,,,,,,,,,,,,,,,,,,masks/mask_004.jpg,,,,,,,,,,,,,,,,,,,,,,,,,,,,,,,,,,,,,,,,,,,0,4,4,3,1,,,,,,,,,,,,,,,,,,,,,,,,,,,,,,,,,,,,,,,,,,,,,,
875271,001,2022-11-20_17h52.43.107,Info_measure_main_exp,2022.2.2,Win32,60.0348202,,,,,,,,,,,,,,,,,,masks/mask_005.jpg,,,,,,,,,,,,,,,,,,,,,,,,,,,,,,,,,,,,,,,,,,,,,,,,0,0,0,4,1,,,,,,,,,,,,,,,,,,,,,,,,,,,,,,,,,,,,,,,,,
875271,001,2022-11-20_17h52.43.107,Info_measure_main_exp,2022.2.2,Win32,60.0348202,,,,,,,,,,,,,,,,,,masks/mask_003.jpg,,,,,,,,,,,,,,,,,,,,,,,,,,,,,,,,,,,,,,,,,,,,,,,,0,1,1,2,1,,,,,,,,,,,,,,,,,,,,,,,,,,,,,,,,,,,,,,,,,
875271,001,2022-11-20_17h52.43.107,Info_measure_main_exp,2022.2.2,Win32,60.0348202,,,,,,,,,,,,,,,,,,masks/mask_002.jpg,,,,,,,,,,,,,,,,,,,,,,,,,,,,,,,,,,,,,,,,,,,,,,,,0,2,2,1,1,,,,,,,,,,,,,,,,,,,,,,,,,,,,,,,,,,,,,,,,,
875271,001,2022-11-20_17h52.43.107,Info_measure_main_exp,2022.2.2,Win32,60.0348202,,,,,,,,,,,,,,,,,,masks/mask_004.jpg,,,,,,,,,,,,,,,,,,,,,,,,,,,,,,,,,,,,,,,,,,,,,,,,0,3,3,3,1,,,,,,,,,,,,,,,,,,,,,,,,,,,,,,,,,,,,,,,,,
875271,001,2022-11-20_17h52.43.107,Info_measure_main_exp,2022.2.2,Win32,60.0348202,,,,,,,,,,,,,,,,,,masks/mask_001.jpg,,,,,,,,,,,,,,,,,,,,,,,,,,,,,,,,,,,,,,,,,,,,,,,,0,4,4,0,1,,,,,,,,,,,,,,,,,,,,,,,,,,,,,,,,,,,,,,,,,
875271,001,2022-11-20_17h52.43.107,Info_measure_main_exp,2022.2.2,Win32,60.0348202,,,,,,,,,,,,,,,,,,,,,,,,,,,,,,7,3.9094,1,,,,,,,,,,,,0,131,5,5,2154,2214,absent_patch/patch0002154.jpg,absent_patch/patch0002214.jpg,,,,,,,,,,,,,,,,,,,,0.056666667,0.111666667,1,0,0,response1disk,27,0.0075,0.004166667,1,0,0,center_square,0,26,26,67,1,,,,,,,,,,,,,,,,,,,,,,,
875271,001,2022-11-20_17h52.43.107,Info_measure_main_exp,2022.2.2,Win32,60.0348202,,,,,,,,,,,,,,,,,,masks/mask_005.jpg,,,,,,,,,,,,,,,,,,,,,,,,,,,,,,,,,,,,,,,,,,,0,0,0,4,1,,,,,,,,,,,,,,,,,,,,,,,,,,,,,,,,,,,,,,,,,,,,,,
875271,001,2022-11-20_17h52.43.107,Info_measure_main_exp,2022.2.2,Win32,60.0348202,,,,,,,,,,,,,,,,,,masks/mask_004.jpg,,,,,,,,,,,,,,,,,,,,,,,,,,,,,,,,,,,,,,,,,,,0,1,1,3,1,,,,,,,,,,,,,,,,,,,,,,,,,,,,,,,,,,,,,,,,,,,,,,
875271,001,2022-11-20_17h52.43.107,Info_measure_main_exp,2022.2.2,Win32,60.0348202,,,,,,,,,,,,,,,,,,masks/mask_001.jpg,,,,,,,,,,,,,,,,,,,,,,,,,,,,,,,,,,,,,,,,,,,0,2,2,0,1,,,,,,,,,,,,,,,,,,,,,,,,,,,,,,,,,,,,,,,,,,,,,,
875271,001,2022-11-20_17h52.43.107,Info_measure_main_exp,2022.2.2,Win32,60.0348202,,,,,,,,,,,,,,,,,,masks/mask_002.jpg,,,,,,,,,,,,,,,,,,,,,,,,,,,,,,,,,,,,,,,,,,,0,3,3,1,1,,,,,,,,,,,,,,,,,,,,,,,,,,,,,,,,,,,,,,,,,,,,,,
875271,001,2022-11-20_17h52.43.107,Info_measure_main_exp,2022.2.2,Win32,60.0348202,,,,,,,,,,,,,,,,,,masks/mask_003.jpg,,,,,,,,,,,,,,,,,,,,,,,,,,,,,,,,,,,,,,,,,,,0,4,4,2,1,,,,,,,,,,,,,,,,,,,,,,,,,,,,,,,,,,,,,,,,,,,,,,
875271,001,2022-11-20_17h52.43.107,Info_measure_main_exp,2022.2.2,Win32,60.0348202,,,,,,,,,,,,,,,,,,masks/mask_001.jpg,,,,,,,,,,,,,,,,,,,,,,,,,,,,,,,,,,,,,,,,,,,,,,,,0,0,0,0,1,,,,,,,,,,,,,,,,,,,,,,,,,,,,,,,,,,,,,,,,,
875271,001,2022-11-20_17h52.43.107,Info_measure_main_exp,2022.2.2,Win32,60.0348202,,,,,,,,,,,,,,,,,,masks/mask_004.jpg,,,,,,,,,,,,,,,,,,,,,,,,,,,,,,,,,,,,,,,,,,,,,,,,0,1,1,3,1,,,,,,,,,,,,,,,,,,,,,,,,,,,,,,,,,,,,,,,,,
875271,001,2022-11-20_17h52.43.107,Info_measure_main_exp,2022.2.2,Win32,60.0348202,,,,,,,,,,,,,,,,,,masks/mask_003.jpg,,,,,,,,,,,,,,,,,,,,,,,,,,,,,,,,,,,,,,,,,,,,,,,,0,2,2,2,1,,,,,,,,,,,,,,,,,,,,,,,,,,,,,,,,,,,,,,,,,
875271,001,2022-11-20_17h52.43.107,Info_measure_main_exp,2022.2.2,Win32,60.0348202,,,,,,,,,,,,,,,,,,masks/mask_002.jpg,,,,,,,,,,,,,,,,,,,,,,,,,,,,,,,,,,,,,,,,,,,,,,,,0,3,3,1,1,,,,,,,,,,,,,,,,,,,,,,,,,,,,,,,,,,,,,,,,,
875271,001,2022-11-20_17h52.43.107,Info_measure_main_exp,2022.2.2,Win32,60.0348202,,,,,,,,,,,,,,,,,,masks/mask_005.jpg,,,,,,,,,,,,,,,,,,,,,,,,,,,,,,,,,,,,,,,,,,,,,,,,0,4,4,4,1,,,,,,,,,,,,,,,,,,,,,,,,,,,,,,,,,,,,,,,,,
875271,001,2022-11-20_17h52.43.107,Info_measure_main_exp,2022.2.2,Win32,60.0348202,,,,,,,,,,,,,,,,,,,,,,,,,,,,,,5,2.6951,1,,,,,,,,,,,,0,131,5,5,1950,2214,absent_patch/patch0001950.jpg,absent_patch/patch0002214.jpg,,,,,,,,,,,,,,,,,,,,0.103333333,-0.013333333,1,0,0,response3disk,28,0,-0.001666667,1,0,0,center_square,0,27,27,85,1,,,,,,,,,,,,,,,,,,,,,,,
875271,001,2022-11-20_17h52.43.107,Info_measure_main_exp,2022.2.2,Win32,60.0348202,,,,,,,,,,,,,,,,,,masks/mask_001.jpg,,,,,,,,,,,,,,,,,,,,,,,,,,,,,,,,,,,,,,,,,,,0,0,0,0,1,,,,,,,,,,,,,,,,,,,,,,,,,,,,,,,,,,,,,,,,,,,,,,
875271,001,2022-11-20_17h52.43.107,Info_measure_main_exp,2022.2.2,Win32,60.0348202,,,,,,,,,,,,,,,,,,masks/mask_004.jpg,,,,,,,,,,,,,,,,,,,,,,,,,,,,,,,,,,,,,,,,,,,0,1,1,3,1,,,,,,,,,,,,,,,,,,,,,,,,,,,,,,,,,,,,,,,,,,,,,,
875271,001,2022-11-20_17h52.43.107,Info_measure_main_exp,2022.2.2,Win32,60.0348202,,,,,,,,,,,,,,,,,,masks/mask_002.jpg,,,,,,,,,,,,,,,,,,,,,,,,,,,,,,,,,,,,,,,,,,,0,2,2,1,1,,,,,,,,,,,,,,,,,,,,,,,,,,,,,,,,,,,,,,,,,,,,,,
875271,001,2022-11-20_17h52.43.107,Info_measure_main_exp,2022.2.2,Win32,60.0348202,,,,,,,,,,,,,,,,,,masks/mask_003.jpg,,,,,,,,,,,,,,,,,,,,,,,,,,,,,,,,,,,,,,,,,,,0,3,3,2,1,,,,,,,,,,,,,,,,,,,,,,,,,,,,,,,,,,,,,,,,,,,,,,
875271,001,2022-11-20_17h52.43.107,Info_measure_main_exp,2022.2.2,Win32,60.0348202,,,,,,,,,,,,,,,,,,masks/mask_005.jpg,,,,,,,,,,,,,,,,,,,,,,,,,,,,,,,,,,,,,,,,,,,0,4,4,4,1,,,,,,,,,,,,,,,,,,,,,,,,,,,,,,,,,,,,,,,,,,,,,,
875271,001,2022-11-20_17h52.43.107,Info_measure_main_exp,2022.2.2,Win32,60.0348202,,,,,,,,,,,,,,,,,,masks/mask_004.jpg,,,,,,,,,,,,,,,,,,,,,,,,,,,,,,,,,,,,,,,,,,,,,,,,0,0,0,3,1,,,,,,,,,,,,,,,,,,,,,,,,,,,,,,,,,,,,,,,,,
875271,001,2022-11-20_17h52.43.107,Info_measure_main_exp,2022.2.2,Win32,60.0348202,,,,,,,,,,,,,,,,,,masks/mask_005.jpg,,,,,,,,,,,,,,,,,,,,,,,,,,,,,,,,,,,,,,,,,,,,,,,,0,1,1,4,1,,,,,,,,,,,,,,,,,,,,,,,,,,,,,,,,,,,,,,,,,
875271,001,2022-11-20_17h52.43.107,Info_measure_main_exp,2022.2.2,Win32,60.0348202,,,,,,,,,,,,,,,,,,masks/mask_001.jpg,,,,,,,,,,,,,,,,,,,,,,,,,,,,,,,,,,,,,,,,,,,,,,,,0,2,2,0,1,,,,,,,,,,,,,,,,,,,,,,,,,,,,,,,,,,,,,,,,,
875271,001,2022-11-20_17h52.43.107,Info_measure_main_exp,2022.2.2,Win32,60.0348202,,,,,,,,,,,,,,,,,,masks/mask_002.jpg,,,,,,,,,,,,,,,,,,,,,,,,,,,,,,,,,,,,,,,,,,,,,,,,0,3,3,1,1,,,,,,,,,,,,,,,,,,,,,,,,,,,,,,,,,,,,,,,,,
875271,001,2022-11-20_17h52.43.107,Info_measure_main_exp,2022.2.2,Win32,60.0348202,,,,,,,,,,,,,,,,,,masks/mask_003.jpg,,,,,,,,,,,,,,,,,,,,,,,,,,,,,,,,,,,,,,,,,,,,,,,,0,4,4,2,1,,,,,,,,,,,,,,,,,,,,,,,,,,,,,,,,,,,,,,,,,
875271,001,2022-11-20_17h52.43.107,Info_measure_main_exp,2022.2.2,Win32,60.0348202,,,,,,,,,,,,,,,,,,,,,,,,,,,,,,3,1.0815,1,,,,,,,,,,,,0,131,5,5,2166,1986,absent_patch/patch0002166.jpg,absent_patch/patch0001986.jpg,,,,,,,,,,,,,,,,,,,,-0.013333333,-0.069166667,1,0,0,response5disk,29,-0.004166667,-0.005833333,1,0,0,center_square,0,28,28,47,1,,,,,,,,,,,,,,,,,,,,,,,
875271,001,2022-11-20_17h52.43.107,Info_measure_main_exp,2022.2.2,Win32,60.0348202,,,,,,,,,,,,,,,,,,masks/mask_004.jpg,,,,,,,,,,,,,,,,,,,,,,,,,,,,,,,,,,,,,,,,,,,0,0,0,3,1,,,,,,,,,,,,,,,,,,,,,,,,,,,,,,,,,,,,,,,,,,,,,,
875271,001,2022-11-20_17h52.43.107,Info_measure_main_exp,2022.2.2,Win32,60.0348202,,,,,,,,,,,,,,,,,,masks/mask_002.jpg,,,,,,,,,,,,,,,,,,,,,,,,,,,,,,,,,,,,,,,,,,,0,1,1,1,1,,,,,,,,,,,,,,,,,,,,,,,,,,,,,,,,,,,,,,,,,,,,,,
875271,001,2022-11-20_17h52.43.107,Info_measure_main_exp,2022.2.2,Win32,60.0348202,,,,,,,,,,,,,,,,,,masks/mask_005.jpg,,,,,,,,,,,,,,,,,,,,,,,,,,,,,,,,,,,,,,,,,,,0,2,2,4,1,,,,,,,,,,,,,,,,,,,,,,,,,,,,,,,,,,,,,,,,,,,,,,
875271,001,2022-11-20_17h52.43.107,Info_measure_main_exp,2022.2.2,Win32,60.0348202,,,,,,,,,,,,,,,,,,masks/mask_001.jpg,,,,,,,,,,,,,,,,,,,,,,,,,,,,,,,,,,,,,,,,,,,0,3,3,0,1,,,,,,,,,,,,,,,,,,,,,,,,,,,,,,,,,,,,,,,,,,,,,,
875271,001,2022-11-20_17h52.43.107,Info_measure_main_exp,2022.2.2,Win32,60.0348202,,,,,,,,,,,,,,,,,,masks/mask_003.jpg,,,,,,,,,,,,,,,,,,,,,,,,,,,,,,,,,,,,,,,,,,,0,4,4,2,1,,,,,,,,,,,,,,,,,,,,,,,,,,,,,,,,,,,,,,,,,,,,,,
875271,001,2022-11-20_17h52.43.107,Info_measure_main_exp,2022.2.2,Win32,60.0348202,,,,,,,,,,,,,,,,,,masks/mask_001.jpg,,,,,,,,,,,,,,,,,,,,,,,,,,,,,,,,,,,,,,,,,,,,,,,,0,0,0,0,1,,,,,,,,,,,,,,,,,,,,,,,,,,,,,,,,,,,,,,,,,
875271,001,2022-11-20_17h52.43.107,Info_measure_main_exp,2022.2.2,Win32,60.0348202,,,,,,,,,,,,,,,,,,masks/mask_004.jpg,,,,,,,,,,,,,,,,,,,,,,,,,,,,,,,,,,,,,,,,,,,,,,,,0,1,1,3,1,,,,,,,,,,,,,,,,,,,,,,,,,,,,,,,,,,,,,,,,,
875271,001,2022-11-20_17h52.43.107,Info_measure_main_exp,2022.2.2,Win32,60.0348202,,,,,,,,,,,,,,,,,,masks/mask_005.jpg,,,,,,,,,,,,,,,,,,,,,,,,,,,,,,,,,,,,,,,,,,,,,,,,0,2,2,4,1,,,,,,,,,,,,,,,,,,,,,,,,,,,,,,,,,,,,,,,,,
875271,001,2022-11-20_17h52.43.107,Info_measure_main_exp,2022.2.2,Win32,60.0348202,,,,,,,,,,,,,,,,,,masks/mask_002.jpg,,,,,,,,,,,,,,,,,,,,,,,,,,,,,,,,,,,,,,,,,,,,,,,,0,3,3,1,1,,,,,,,,,,,,,,,,,,,,,,,,,,,,,,,,,,,,,,,,,
875271,001,2022-11-20_17h52.43.107,Info_measure_main_exp,2022.2.2,Win32,60.0348202,,,,,,,,,,,,,,,,,,masks/mask_003.jpg,,,,,,,,,,,,,,,,,,,,,,,,,,,,,,,,,,,,,,,,,,,,,,,,0,4,4,2,1,,,,,,,,,,,,,,,,,,,,,,,,,,,,,,,,,,,,,,,,,
875271,001,2022-11-20_17h52.43.107,Info_measure_main_exp,2022.2.2,Win32,60.0348202,,,,,,,,,,,,,,,,,,,,,,,,,,,,,,0,1.4639,1,,,,,,,,,,,,0,131,5,5,2190,2178,absent_patch/patch0002190.jpg,absent_patch/patch0002178.jpg,,,,,,,,,,,,,,,,,,,,-0.0025,0.070833333,1,0,0,response7disk,30,-0.01,0.015,1,0,0,center_square,0,29,29,14,1,,,,,,,,,,,,,,,,,,,,,,,
875271,001,2022-11-20_17h52.43.107,Info_measure_main_exp,2022.2.2,Win32,60.0348202,,,,,,,,,,,,,,,,,,masks/mask_004.jpg,,,,,,,,,,,,,,,,,,,,,,,,,,,,,,,,,,,,,,,,,,,0,0,0,3,1,,,,,,,,,,,,,,,,,,,,,,,,,,,,,,,,,,,,,,,,,,,,,,
875271,001,2022-11-20_17h52.43.107,Info_measure_main_exp,2022.2.2,Win32,60.0348202,,,,,,,,,,,,,,,,,,masks/mask_001.jpg,,,,,,,,,,,,,,,,,,,,,,,,,,,,,,,,,,,,,,,,,,,0,1,1,0,1,,,,,,,,,,,,,,,,,,,,,,,,,,,,,,,,,,,,,,,,,,,,,,
875271,001,2022-11-20_17h52.43.107,Info_measure_main_exp,2022.2.2,Win32,60.0348202,,,,,,,,,,,,,,,,,,masks/mask_002.jpg,,,,,,,,,,,,,,,,,,,,,,,,,,,,,,,,,,,,,,,,,,,0,2,2,1,1,,,,,,,,,,,,,,,,,,,,,,,,,,,,,,,,,,,,,,,,,,,,,,
875271,001,2022-11-20_17h52.43.107,Info_measure_main_exp,2022.2.2,Win32,60.0348202,,,,,,,,,,,,,,,,,,masks/mask_005.jpg,,,,,,,,,,,,,,,,,,,,,,,,,,,,,,,,,,,,,,,,,,,0,3,3,4,1,,,,,,,,,,,,,,,,,,,,,,,,,,,,,,,,,,,,,,,,,,,,,,
875271,001,2022-11-20_17h52.43.107,Info_measure_main_exp,2022.2.2,Win32,60.0348202,,,,,,,,,,,,,,,,,,masks/mask_003.jpg,,,,,,,,,,,,,,,,,,,,,,,,,,,,,,,,,,,,,,,,,,,0,4,4,2,1,,,,,,,,,,,,,,,,,,,,,,,,,,,,,,,,,,,,,,,,,,,,,,
875271,001,2022-11-20_17h52.43.107,Info_measure_main_exp,2022.2.2,Win32,60.0348202,,,,,,,,,,,,,,,,,,masks/mask_001.jpg,,,,,,,,,,,,,,,,,,,,,,,,,,,,,,,,,,,,,,,,,,,,,,,,0,0,0,0,1,,,,,,,,,,,,,,,,,,,,,,,,,,,,,,,,,,,,,,,,,
875271,001,2022-11-20_17h52.43.107,Info_measure_main_exp,2022.2.2,Win32,60.0348202,,,,,,,,,,,,,,,,,,masks/mask_004.jpg,,,,,,,,,,,,,,,,,,,,,,,,,,,,,,,,,,,,,,,,,,,,,,,,0,1,1,3,1,,,,,,,,,,,,,,,,,,,,,,,,,,,,,,,,,,,,,,,,,
875271,001,2022-11-20_17h52.43.107,Info_measure_main_exp,2022.2.2,Win32,60.0348202,,,,,,,,,,,,,,,,,,masks/mask_005.jpg,,,,,,,,,,,,,,,,,,,,,,,,,,,,,,,,,,,,,,,,,,,,,,,,0,2,2,4,1,,,,,,,,,,,,,,,,,,,,,,,,,,,,,,,,,,,,,,,,,
875271,001,2022-11-20_17h52.43.107,Info_measure_main_exp,2022.2.2,Win32,60.0348202,,,,,,,,,,,,,,,,,,masks/mask_003.jpg,,,,,,,,,,,,,,,,,,,,,,,,,,,,,,,,,,,,,,,,,,,,,,,,0,3,3,2,1,,,,,,,,,,,,,,,,,,,,,,,,,,,,,,,,,,,,,,,,,
875271,001,2022-11-20_17h52.43.107,Info_measure_main_exp,2022.2.2,Win32,60.0348202,,,,,,,,,,,,,,,,,,masks/mask_002.jpg,,,,,,,,,,,,,,,,,,,,,,,,,,,,,,,,,,,,,,,,,,,,,,,,0,4,4,1,1,,,,,,,,,,,,,,,,,,,,,,,,,,,,,,,,,,,,,,,,,
875271,001,2022-11-20_17h52.43.107,Info_measure_main_exp,2022.2.2,Win32,60.0348202,,,,,,,,,,,,,,,,,,,,,,,,,,,,,,0,0.5656,1,,,,,,,,,,,,0,131,5,5,2190,2190,absent_patch/patch0002190.jpg,absent_patch/patch0002190.jpg,,,,,,,,,,,,,,,,,,,,-0.031666667,0.079166667,1,0,0,response7disk,31,-0.006666667,0.0075,1,0,0,center_square,0,30,30,86,1,,,,,,,,,,,,,,,,,,,,,,,
875271,001,2022-11-20_17h52.43.107,Info_measure_main_exp,2022.2.2,Win32,60.0348202,,,,,,,,,,,,,,,,,,masks/mask_001.jpg,,,,,,,,,,,,,,,,,,,,,,,,,,,,,,,,,,,,,,,,,,,0,0,0,0,1,,,,,,,,,,,,,,,,,,,,,,,,,,,,,,,,,,,,,,,,,,,,,,
875271,001,2022-11-20_17h52.43.107,Info_measure_main_exp,2022.2.2,Win32,60.0348202,,,,,,,,,,,,,,,,,,masks/mask_004.jpg,,,,,,,,,,,,,,,,,,,,,,,,,,,,,,,,,,,,,,,,,,,0,1,1,3,1,,,,,,,,,,,,,,,,,,,,,,,,,,,,,,,,,,,,,,,,,,,,,,
875271,001,2022-11-20_17h52.43.107,Info_measure_main_exp,2022.2.2,Win32,60.0348202,,,,,,,,,,,,,,,,,,masks/mask_003.jpg,,,,,,,,,,,,,,,,,,,,,,,,,,,,,,,,,,,,,,,,,,,0,2,2,2,1,,,,,,,,,,,,,,,,,,,,,,,,,,,,,,,,,,,,,,,,,,,,,,
875271,001,2022-11-20_17h52.43.107,Info_measure_main_exp,2022.2.2,Win32,60.0348202,,,,,,,,,,,,,,,,,,masks/mask_005.jpg,,,,,,,,,,,,,,,,,,,,,,,,,,,,,,,,,,,,,,,,,,,0,3,3,4,1,,,,,,,,,,,,,,,,,,,,,,,,,,,,,,,,,,,,,,,,,,,,,,
875271,001,2022-11-20_17h52.43.107,Info_measure_main_exp,2022.2.2,Win32,60.0348202,,,,,,,,,,,,,,,,,,masks/mask_002.jpg,,,,,,,,,,,,,,,,,,,,,,,,,,,,,,,,,,,,,,,,,,,0,4,4,1,1,,,,,,,,,,,,,,,,,,,,,,,,,,,,,,,,,,,,,,,,,,,,,,
875271,001,2022-11-20_17h52.43.107,Info_measure_main_exp,2022.2.2,Win32,60.0348202,,,,,,,,,,,,,,,,,,masks/mask_004.jpg,,,,,,,,,,,,,,,,,,,,,,,,,,,,,,,,,,,,,,,,,,,,,,,,0,0,0,3,1,,,,,,,,,,,,,,,,,,,,,,,,,,,,,,,,,,,,,,,,,
875271,001,2022-11-20_17h52.43.107,Info_measure_main_exp,2022.2.2,Win32,60.0348202,,,,,,,,,,,,,,,,,,masks/mask_002.jpg,,,,,,,,,,,,,,,,,,,,,,,,,,,,,,,,,,,,,,,,,,,,,,,,0,1,1,1,1,,,,,,,,,,,,,,,,,,,,,,,,,,,,,,,,,,,,,,,,,
875271,001,2022-11-20_17h52.43.107,Info_measure_main_exp,2022.2.2,Win32,60.0348202,,,,,,,,,,,,,,,,,,masks/mask_005.jpg,,,,,,,,,,,,,,,,,,,,,,,,,,,,,,,,,,,,,,,,,,,,,,,,0,2,2,4,1,,,,,,,,,,,,,,,,,,,,,,,,,,,,,,,,,,,,,,,,,
875271,001,2022-11-20_17h52.43.107,Info_measure_main_exp,2022.2.2,Win32,60.0348202,,,,,,,,,,,,,,,,,,masks/mask_003.jpg,,,,,,,,,,,,,,,,,,,,,,,,,,,,,,,,,,,,,,,,,,,,,,,,0,3,3,2,1,,,,,,,,,,,,,,,,,,,,,,,,,,,,,,,,,,,,,,,,,
875271,001,2022-11-20_17h52.43.107,Info_measure_main_exp,2022.2.2,Win32,60.0348202,,,,,,,,,,,,,,,,,,masks/mask_001.jpg,,,,,,,,,,,,,,,,,,,,,,,,,,,,,,,,,,,,,,,,,,,,,,,,0,4,4,0,1,,,,,,,,,,,,,,,,,,,,,,,,,,,,,,,,,,,,,,,,,
875271,001,2022-11-20_17h52.43.107,Info_measure_main_exp,2022.2.2,Win32,60.0348202,,,,,,,,,,,,,,,,,,,,,,,,,,,,,,0,0.8081,1,,,,,,,,,,,,0,131,5,5,2214,2214,absent_patch/patch0002214.jpg,absent_patch/patch0002214.jpg,,,,,,,,,,,,,,,,,,,,-0.006666667,0.015833333,1,0,0,response7disk,32,-0.0025,0.001666667,1,0,0,center_square,0,31,31,115,1,,,,,,,,,,,,,,,,,,,,,,,
875271,001,2022-11-20_17h52.43.107,Info_measure_main_exp,2022.2.2,Win32,60.0348202,,,,,,,,,,,,,,,,,,masks/mask_004.jpg,,,,,,,,,,,,,,,,,,,,,,,,,,,,,,,,,,,,,,,,,,,0,0,0,3,1,,,,,,,,,,,,,,,,,,,,,,,,,,,,,,,,,,,,,,,,,,,,,,
875271,001,2022-11-20_17h52.43.107,Info_measure_main_exp,2022.2.2,Win32,60.0348202,,,,,,,,,,,,,,,,,,masks/mask_005.jpg,,,,,,,,,,,,,,,,,,,,,,,,,,,,,,,,,,,,,,,,,,,0,1,1,4,1,,,,,,,,,,,,,,,,,,,,,,,,,,,,,,,,,,,,,,,,,,,,,,
875271,001,2022-11-20_17h52.43.107,Info_measure_main_exp,2022.2.2,Win32,60.0348202,,,,,,,,,,,,,,,,,,masks/mask_001.jpg,,,,,,,,,,,,,,,,,,,,,,,,,,,,,,,,,,,,,,,,,,,0,2,2,0,1,,,,,,,,,,,,,,,,,,,,,,,,,,,,,,,,,,,,,,,,,,,,,,
875271,001,2022-11-20_17h52.43.107,Info_measure_main_exp,2022.2.2,Win32,60.0348202,,,,,,,,,,,,,,,,,,masks/mask_003.jpg,,,,,,,,,,,,,,,,,,,,,,,,,,,,,,,,,,,,,,,,,,,0,3,3,2,1,,,,,,,,,,,,,,,,,,,,,,,,,,,,,,,,,,,,,,,,,,,,,,
875271,001,2022-11-20_17h52.43.107,Info_measure_main_exp,2022.2.2,Win32,60.0348202,,,,,,,,,,,,,,,,,,masks/mask_002.jpg,,,,,,,,,,,,,,,,,,,,,,,,,,,,,,,,,,,,,,,,,,,0,4,4,1,1,,,,,,,,,,,,,,,,,,,,,,,,,,,,,,,,,,,,,,,,,,,,,,
875271,001,2022-11-20_17h52.43.107,Info_measure_main_exp,2022.2.2,Win32,60.0348202,,,,,,,,,,,,,,,,,,masks/mask_001.jpg,,,,,,,,,,,,,,,,,,,,,,,,,,,,,,,,,,,,,,,,,,,,,,,,0,0,0,0,1,,,,,,,,,,,,,,,,,,,,,,,,,,,,,,,,,,,,,,,,,
875271,001,2022-11-20_17h52.43.107,Info_measure_main_exp,2022.2.2,Win32,60.0348202,,,,,,,,,,,,,,,,,,masks/mask_004.jpg,,,,,,,,,,,,,,,,,,,,,,,,,,,,,,,,,,,,,,,,,,,,,,,,0,1,1,3,1,,,,,,,,,,,,,,,,,,,,,,,,,,,,,,,,,,,,,,,,,
875271,001,2022-11-20_17h52.43.107,Info_measure_main_exp,2022.2.2,Win32,60.0348202,,,,,,,,,,,,,,,,,,masks/mask_002.jpg,,,,,,,,,,,,,,,,,,,,,,,,,,,,,,,,,,,,,,,,,,,,,,,,0,2,2,1,1,,,,,,,,,,,,,,,,,,,,,,,,,,,,,,,,,,,,,,,,,
875271,001,2022-11-20_17h52.43.107,Info_measure_main_exp,2022.2.2,Win32,60.0348202,,,,,,,,,,,,,,,,,,masks/mask_003.jpg,,,,,,,,,,,,,,,,,,,,,,,,,,,,,,,,,,,,,,,,,,,,,,,,0,3,3,2,1,,,,,,,,,,,,,,,,,,,,,,,,,,,,,,,,,,,,,,,,,
875271,001,2022-11-20_17h52.43.107,Info_measure_main_exp,2022.2.2,Win32,60.0348202,,,,,,,,,,,,,,,,,,masks/mask_005.jpg,,,,,,,,,,,,,,,,,,,,,,,,,,,,,,,,,,,,,,,,,,,,,,,,0,4,4,4,1,,,,,,,,,,,,,,,,,,,,,,,,,,,,,,,,,,,,,,,,,
875271,001,2022-11-20_17h52.43.107,Info_measure_main_exp,2022.2.2,Win32,60.0348202,,,,,,,,,,,,,,,,,,,,,,,,,,,,,,5,2.7119,1,,,,,,,,,,,,0,131,5,5,2082,1986,absent_patch/patch0002082.jpg,absent_patch/patch0001986.jpg,,,,,,,,,,,,,,,,,,,,0.048333333,-0.0175,1,0,0,response3disk,33,-0.005833333,0.008333333,1,0,0,center_square,0,32,32,94,1,,,,,,,,,,,,,,,,,,,,,,,
875271,001,2022-11-20_17h52.43.107,Info_measure_main_exp,2022.2.2,Win32,60.0348202,,,,,,,,,,,,,,,,,,masks/mask_002.jpg,,,,,,,,,,,,,,,,,,,,,,,,,,,,,,,,,,,,,,,,,,,0,0,0,1,1,,,,,,,,,,,,,,,,,,,,,,,,,,,,,,,,,,,,,,,,,,,,,,
875271,001,2022-11-20_17h52.43.107,Info_measure_main_exp,2022.2.2,Win32,60.0348202,,,,,,,,,,,,,,,,,,masks/mask_005.jpg,,,,,,,,,,,,,,,,,,,,,,,,,,,,,,,,,,,,,,,,,,,0,1,1,4,1,,,,,,,,,,,,,,,,,,,,,,,,,,,,,,,,,,,,,,,,,,,,,,
875271,001,2022-11-20_17h52.43.107,Info_measure_main_exp,2022.2.2,Win32,60.0348202,,,,,,,,,,,,,,,,,,masks/mask_001.jpg,,,,,,,,,,,,,,,,,,,,,,,,,,,,,,,,,,,,,,,,,,,0,2,2,0,1,,,,,,,,,,,,,,,,,,,,,,,,,,,,,,,,,,,,,,,,,,,,,,
875271,001,2022-11-20_17h52.43.107,Info_measure_main_exp,2022.2.2,Win32,60.0348202,,,,,,,,,,,,,,,,,,masks/mask_003.jpg,,,,,,,,,,,,,,,,,,,,,,,,,,,,,,,,,,,,,,,,,,,0,3,3,2,1,,,,,,,,,,,,,,,,,,,,,,,,,,,,,,,,,,,,,,,,,,,,,,
875271,001,2022-11-20_17h52.43.107,Info_measure_main_exp,2022.2.2,Win32,60.0348202,,,,,,,,,,,,,,,,,,masks/mask_004.jpg,,,,,,,,,,,,,,,,,,,,,,,,,,,,,,,,,,,,,,,,,,,0,4,4,3,1,,,,,,,,,,,,,,,,,,,,,,,,,,,,,,,,,,,,,,,,,,,,,,
875271,001,2022-11-20_17h52.43.107,Info_measure_main_exp,2022.2.2,Win32,60.0348202,,,,,,,,,,,,,,,,,,masks/mask_002.jpg,,,,,,,,,,,,,,,,,,,,,,,,,,,,,,,,,,,,,,,,,,,,,,,,0,0,0,1,1,,,,,,,,,,,,,,,,,,,,,,,,,,,,,,,,,,,,,,,,,
875271,001,2022-11-20_17h52.43.107,Info_measure_main_exp,2022.2.2,Win32,60.0348202,,,,,,,,,,,,,,,,,,masks/mask_005.jpg,,,,,,,,,,,,,,,,,,,,,,,,,,,,,,,,,,,,,,,,,,,,,,,,0,1,1,4,1,,,,,,,,,,,,,,,,,,,,,,,,,,,,,,,,,,,,,,,,,
875271,001,2022-11-20_17h52.43.107,Info_measure_main_exp,2022.2.2,Win32,60.0348202,,,,,,,,,,,,,,,,,,masks/mask_004.jpg,,,,,,,,,,,,,,,,,,,,,,,,,,,,,,,,,,,,,,,,,,,,,,,,0,2,2,3,1,,,,,,,,,,,,,,,,,,,,,,,,,,,,,,,,,,,,,,,,,
875271,001,2022-11-20_17h52.43.107,Info_measure_main_exp,2022.2.2,Win32,60.0348202,,,,,,,,,,,,,,,,,,masks/mask_003.jpg,,,,,,,,,,,,,,,,,,,,,,,,,,,,,,,,,,,,,,,,,,,,,,,,0,3,3,2,1,,,,,,,,,,,,,,,,,,,,,,,,,,,,,,,,,,,,,,,,,
875271,001,2022-11-20_17h52.43.107,Info_measure_main_exp,2022.2.2,Win32,60.0348202,,,,,,,,,,,,,,,,,,masks/mask_001.jpg,,,,,,,,,,,,,,,,,,,,,,,,,,,,,,,,,,,,,,,,,,,,,,,,0,4,4,0,1,,,,,,,,,,,,,,,,,,,,,,,,,,,,,,,,,,,,,,,,,
875271,001,2022-11-20_17h52.43.107,Info_measure_main_exp,2022.2.2,Win32,60.0348202,,,,,,,,,,,,,,,,,,,,,,,,,,,,,,7,2.0464,1,,,,,,,,,,,,0,131,5,5,2142,2166,absent_patch/patch0002142.jpg,absent_patch/patch0002166.jpg,,,,,,,,,,,,,,,,,,,,0.015,0.069166667,1,0,0,response1disk,34,-0.003333333,0.005,1,0,0,center_square,0,33,33,66,1,,,,,,,,,,,,,,,,,,,,,,,
875271,001,2022-11-20_17h52.43.107,Info_measure_main_exp,2022.2.2,Win32,60.0348202,,,,,,,,,,,,,,,,,,masks/mask_004.jpg,,,,,,,,,,,,,,,,,,,,,,,,,,,,,,,,,,,,,,,,,,,0,0,0,3,1,,,,,,,,,,,,,,,,,,,,,,,,,,,,,,,,,,,,,,,,,,,,,,
875271,001,2022-11-20_17h52.43.107,Info_measure_main_exp,2022.2.2,Win32,60.0348202,,,,,,,,,,,,,,,,,,masks/mask_001.jpg,,,,,,,,,,,,,,,,,,,,,,,,,,,,,,,,,,,,,,,,,,,0,1,1,0,1,,,,,,,,,,,,,,,,,,,,,,,,,,,,,,,,,,,,,,,,,,,,,,
875271,001,2022-11-20_17h52.43.107,Info_measure_main_exp,2022.2.2,Win32,60.0348202,,,,,,,,,,,,,,,,,,masks/mask_005.jpg,,,,,,,,,,,,,,,,,,,,,,,,,,,,,,,,,,,,,,,,,,,0,2,2,4,1,,,,,,,,,,,,,,,,,,,,,,,,,,,,,,,,,,,,,,,,,,,,,,
875271,001,2022-11-20_17h52.43.107,Info_measure_main_exp,2022.2.2,Win32,60.0348202,,,,,,,,,,,,,,,,,,masks/mask_002.jpg,,,,,,,,,,,,,,,,,,,,,,,,,,,,,,,,,,,,,,,,,,,0,3,3,1,1,,,,,,,,,,,,,,,,,,,,,,,,,,,,,,,,,,,,,,,,,,,,,,
875271,001,2022-11-20_17h52.43.107,Info_measure_main_exp,2022.2.2,Win32,60.0348202,,,,,,,,,,,,,,,,,,masks/mask_003.jpg,,,,,,,,,,,,,,,,,,,,,,,,,,,,,,,,,,,,,,,,,,,0,4,4,2,1,,,,,,,,,,,,,,,,,,,,,,,,,,,,,,,,,,,,,,,,,,,,,,
875271,001,2022-11-20_17h52.43.107,Info_measure_main_exp,2022.2.2,Win32,60.0348202,,,,,,,,,,,,,,,,,,masks/mask_002.jpg,,,,,,,,,,,,,,,,,,,,,,,,,,,,,,,,,,,,,,,,,,,,,,,,0,0,0,1,1,,,,,,,,,,,,,,,,,,,,,,,,,,,,,,,,,,,,,,,,,
875271,001,2022-11-20_17h52.43.107,Info_measure_main_exp,2022.2.2,Win32,60.0348202,,,,,,,,,,,,,,,,,,masks/mask_003.jpg,,,,,,,,,,,,,,,,,,,,,,,,,,,,,,,,,,,,,,,,,,,,,,,,0,1,1,2,1,,,,,,,,,,,,,,,,,,,,,,,,,,,,,,,,,,,,,,,,,
875271,001,2022-11-20_17h52.43.107,Info_measure_main_exp,2022.2.2,Win32,60.0348202,,,,,,,,,,,,,,,,,,masks/mask_005.jpg,,,,,,,,,,,,,,,,,,,,,,,,,,,,,,,,,,,,,,,,,,,,,,,,0,2,2,4,1,,,,,,,,,,,,,,,,,,,,,,,,,,,,,,,,,,,,,,,,,
875271,001,2022-11-20_17h52.43.107,Info_measure_main_exp,2022.2.2,Win32,60.0348202,,,,,,,,,,,,,,,,,,masks/mask_001.jpg,,,,,,,,,,,,,,,,,,,,,,,,,,,,,,,,,,,,,,,,,,,,,,,,0,3,3,0,1,,,,,,,,,,,,,,,,,,,,,,,,,,,,,,,,,,,,,,,,,
875271,001,2022-11-20_17h52.43.107,Info_measure_main_exp,2022.2.2,Win32,60.0348202,,,,,,,,,,,,,,,,,,masks/mask_004.jpg,,,,,,,,,,,,,,,,,,,,,,,,,,,,,,,,,,,,,,,,,,,,,,,,0,4,4,3,1,,,,,,,,,,,,,,,,,,,,,,,,,,,,,,,,,,,,,,,,,
875271,001,2022-11-20_17h52.43.107,Info_measure_main_exp,2022.2.2,Win32,60.0348202,,,,,,,,,,,,,,,,,,,,,,,,,,,,,,7,1.148,1,,,,,,,,,,,,0,131,5,5,2142,2154,absent_patch/patch0002142.jpg,absent_patch/patch0002154.jpg,,,,,,,,,,,,,,,,,,,,0.0225,0.135,1,0,0,response1disk,35,-0.005833333,0.003333333,1,0,0,center_square,0,34,34,9,1,,,,,,,,,,,,,,,,,,,,,,,
