participant,session,date,expName,psychopyVersion,OS,frameRate,space_press_continue.keys,space_press_continue.rt,space_press_continue_2.keys,space_press_continue_2.rt,space_press_continue_3.keys,space_press_continue_3.rt,space_press_continue_4.keys,space_press_continue_4.rt,space_press_continue_5.keys,space_press_continue_5.rt,space_press_continue_6.keys,space_press_continue_6.rt,prac_mask_loop_1.thisRepN,prac_mask_loop_1.thisTrialN,prac_mask_loop_1.thisN,prac_mask_loop_1.thisIndex,prac_mask_loop_1.ran,mask_name,prac_mask_loop_2.thisRepN,prac_mask_loop_2.thisTrialN,prac_mask_loop_2.thisN,prac_mask_loop_2.thisIndex,prac_mask_loop_2.ran,mouse_2.x,mouse_2.y,mouse_2.leftButton,mouse_2.midButton,mouse_2.rightButton,mouse_2.clicked_name,similarity,response_time,Pass,mouse_12.x,mouse_12.y,mouse_12.leftButton,mouse_12.midButton,mouse_12.rightButton,mouse_12.clicked_name,prac_loop.thisRepN,prac_loop.thisTrialN,prac_loop.thisN,prac_loop.thisIndex,prac_loop.ran,Pair_type,Image_num,Patch_1_loc,Patch_2_loc,Patch_1_info,Patch_2_info,Patch_1_name,Patch_2_name,mouse_1.x,mouse_1.y,mouse_1.leftButton,mouse_1.midButton,mouse_1.rightButton,mouse_1.time,mouse_1.clicked_name,space_press_continue_7.keys,space_press_continue_7.rt,mask_loop.thisRepN,mask_loop.thisTrialN,mask_loop.thisN,mask_loop.thisIndex,mask_loop.ran,mask_loop_2.thisRepN,mask_loop_2.thisTrialN,mask_loop_2.thisN,mask_loop_2.thisIndex,mask_loop_2.ran,mouse.x,mouse.y,mouse.leftButton,mouse.midButton,mouse.rightButton,mouse.clicked_name,trialNumber,mouse_11.x,mouse_11.y,mouse_11.leftButton,mouse_11.midButton,mouse_11.rightButton,mouse_11.clicked_name,first_pass_loop.thisRepN,first_pass_loop.thisTrialN,first_pass_loop.thisN,first_pass_loop.thisIndex,first_pass_loop.ran,mask_loop_3.thisRepN,mask_loop_3.thisTrialN,mask_loop_3.thisN,mask_loop_3.thisIndex,mask_loop_3.ran,mask_loop_4.thisRepN,mask_loop_4.thisTrialN,mask_loop_4.thisN,mask_loop_4.thisIndex,mask_loop_4.ran,mouse_3.x,mouse_3.y,mouse_3.leftButton,mouse_3.midButton,mouse_3.rightButton,mouse_3.clicked_name,double_pass_loop.thisRepN,double_pass_loop.thisTrialN,double_pass_loop.thisN,double_pass_loop.thisIndex,double_pass_loop.ran,space_exit.keys,space_exit.rt
881941,001,2022-11-20_23h53.52.023,Info_measure_main_exp,2022.2.2,Win32,246.123554,,,,,,,,,,,,,,,,,,,,,,,,,,,,,,,,,,,,,,,,,,,,,,,,,,,,,,,,,,,,,,,,,,,,,,,,,,,,,,,,,,,,,,,,,,,,,,,,,,,,,,,,,,,,,,,
881941,001,2022-11-20_23h53.52.023,Info_measure_main_exp,2022.2.2,Win32,246.123554,,,,,,,,,,,,,,,,,,,,,,,,,,,,,,,,,,,,,,,,,,,,,,,,,,,,,,,,,,,,,,,,,,,,,,,,,,,,,,,,,,,,,,,,,,,,,,,,,,,,,,,,,,,,,,,
881941,001,2022-11-20_23h53.52.023,Info_measure_main_exp,2022.2.2,Win32,246.123554,space,13.6348,,,,,,,,,,,,,,,,,,,,,,,,,,,,,,,,,,,,,,,,,,,,,,,,,,,,,,,,,,,,,,,,,,,,,,,,,,,,,,,,,,,,,,,,,,,,,,,,,,,,,,,,,,,,,
881941,001,2022-11-20_23h53.52.023,Info_measure_main_exp,2022.2.2,Win32,246.123554,,,space,46.1116,,,,,,,,,,,,,,,,,,,,,,,,,,,,,,,,,,,,,,,,,,,,,,,,,,,,,,,,,,,,,,,,,,,,,,,,,,,,,,,,,,,,,,,,,,,,,,,,,,,,,,,,,,,
881941,001,2022-11-20_23h53.52.023,Info_measure_main_exp,2022.2.2,Win32,246.123554,,,,,space,20.1,,,,,,,,,,,,,,,,,,,,,,,,,,,,,,,,,,,,,,,,,,,,,,,,,,,,,,,,,,,,,,,,,,,,,,,,,,,,,,,,,,,,,,,,,,,,,,,,,,,,,,,,,
881941,001,2022-11-20_23h53.52.023,Info_measure_main_exp,2022.2.2,Win32,246.123554,,,,,,,space,38.8468,,,,,,,,,,,,,,,,,,,,,,,,,,,,,,,,,,,,,,,,,,,,,,,,,,,,,,,,,,,,,,,,,,,,,,,,,,,,,,,,,,,,,,,,,,,,,,,,,,,,,,,
881941,001,2022-11-20_23h53.52.023,Info_measure_main_exp,2022.2.2,Win32,246.123554,,,,,,,,,space,19.649,,,,,,,,,,,,,,,,,,,,,,,,,,,,,,,,,,,,,,,,,,,,,,,,,,,,,,,,,,,,,,,,,,,,,,,,,,,,,,,,,,,,,,,,,,,,,,,,,,,,,
881941,001,2022-11-20_23h53.52.023,Info_measure_main_exp,2022.2.2,Win32,246.123554,,,,,,,,,,,space,18.9196,,,,,,,,,,,,,,,,,,,,,,,,,,,,,,,,,,,,,,,,,,,,,,,,,,,,,,,,,,,,,,,,,,,,,,,,,,,,,,,,,,,,,,,,,,,,,,,,,,,
881941,001,2022-11-20_23h53.52.023,Info_measure_main_exp,2022.2.2,Win32,246.123554,,,,,,,,,,,,,0,0,0,0,1,masks/mask_001.jpg,,,,,,,,,,,,,,,,,,,,,,,,,,,,,,,,,,,,,,,,,,,,,,,,,,,,,,,,,,,,,,,,,,,,,,,,,,,,,,,,,,,,,,,,,,,,,
881941,001,2022-11-20_23h53.52.023,Info_measure_main_exp,2022.2.2,Win32,246.123554,,,,,,,,,,,,,0,1,1,1,1,masks/mask_002.jpg,,,,,,,,,,,,,,,,,,,,,,,,,,,,,,,,,,,,,,,,,,,,,,,,,,,,,,,,,,,,,,,,,,,,,,,,,,,,,,,,,,,,,,,,,,,,,
881941,001,2022-11-20_23h53.52.023,Info_measure_main_exp,2022.2.2,Win32,246.123554,,,,,,,,,,,,,0,2,2,2,1,masks/mask_003.jpg,,,,,,,,,,,,,,,,,,,,,,,,,,,,,,,,,,,,,,,,,,,,,,,,,,,,,,,,,,,,,,,,,,,,,,,,,,,,,,,,,,,,,,,,,,,,,
881941,001,2022-11-20_23h53.52.023,Info_measure_main_exp,2022.2.2,Win32,246.123554,,,,,,,,,,,,,0,3,3,4,1,masks/mask_005.jpg,,,,,,,,,,,,,,,,,,,,,,,,,,,,,,,,,,,,,,,,,,,,,,,,,,,,,,,,,,,,,,,,,,,,,,,,,,,,,,,,,,,,,,,,,,,,,
881941,001,2022-11-20_23h53.52.023,Info_measure_main_exp,2022.2.2,Win32,246.123554,,,,,,,,,,,,,0,4,4,3,1,masks/mask_004.jpg,,,,,,,,,,,,,,,,,,,,,,,,,,,,,,,,,,,,,,,,,,,,,,,,,,,,,,,,,,,,,,,,,,,,,,,,,,,,,,,,,,,,,,,,,,,,,
881941,001,2022-11-20_23h53.52.023,Info_measure_main_exp,2022.2.2,Win32,246.123554,,,,,,,,,,,,,,,,,,masks/mask_003.jpg,0,0,0,2,1,,,,,,,,,,,,,,,,,,,,,,,,,,,,,,,,,,,,,,,,,,,,,,,,,,,,,,,,,,,,,,,,,,,,,,,,,,,,,,,,,,,,,,,,
881941,001,2022-11-20_23h53.52.023,Info_measure_main_exp,2022.2.2,Win32,246.123554,,,,,,,,,,,,,,,,,,masks/mask_004.jpg,0,1,1,3,1,,,,,,,,,,,,,,,,,,,,,,,,,,,,,,,,,,,,,,,,,,,,,,,,,,,,,,,,,,,,,,,,,,,,,,,,,,,,,,,,,,,,,,,,
881941,001,2022-11-20_23h53.52.023,Info_measure_main_exp,2022.2.2,Win32,246.123554,,,,,,,,,,,,,,,,,,masks/mask_002.jpg,0,2,2,1,1,,,,,,,,,,,,,,,,,,,,,,,,,,,,,,,,,,,,,,,,,,,,,,,,,,,,,,,,,,,,,,,,,,,,,,,,,,,,,,,,,,,,,,,,
881941,001,2022-11-20_23h53.52.023,Info_measure_main_exp,2022.2.2,Win32,246.123554,,,,,,,,,,,,,,,,,,masks/mask_005.jpg,0,3,3,4,1,,,,,,,,,,,,,,,,,,,,,,,,,,,,,,,,,,,,,,,,,,,,,,,,,,,,,,,,,,,,,,,,,,,,,,,,,,,,,,,,,,,,,,,,
881941,001,2022-11-20_23h53.52.023,Info_measure_main_exp,2022.2.2,Win32,246.123554,,,,,,,,,,,,,,,,,,masks/mask_001.jpg,0,4,4,0,1,,,,,,,,,,,,,,,,,,,,,,,,,,,,,,,,,,,,,,,,,,,,,,,,,,,,,,,,,,,,,,,,,,,,,,,,,,,,,,,,,,,,,,,,
881941,001,2022-11-20_23h53.52.023,Info_measure_main_exp,2022.2.2,Win32,246.123554,,,,,,,,,,,,,,,,,,,,,,,,-0.093518504,-0.121296282,1,0,0,response5disk,3,163.2671,1,-0.003703718,0,1,0,0,center_square,0,0,0,0,1,0,131,5,5,2370,2406,prac_patch/patch0002370.jpg,prac_patch/patch0002406.jpg,,,,,,,,,,,,,,,,,,,,,,,,,,,,,,,,,,,,,,,,,,,,,,,,,,,,,,,,,,,,
881941,001,2022-11-20_23h53.52.023,Info_measure_main_exp,2022.2.2,Win32,246.123554,,,,,,,,,,,,,0,0,0,1,1,masks/mask_002.jpg,,,,,,,,,,,,,,,,,,,,,,,,,,,,,,,,,,,,,,,,,,,,,,,,,,,,,,,,,,,,,,,,,,,,,,,,,,,,,,,,,,,,,,,,,,,,,
881941,001,2022-11-20_23h53.52.023,Info_measure_main_exp,2022.2.2,Win32,246.123554,,,,,,,,,,,,,0,1,1,2,1,masks/mask_003.jpg,,,,,,,,,,,,,,,,,,,,,,,,,,,,,,,,,,,,,,,,,,,,,,,,,,,,,,,,,,,,,,,,,,,,,,,,,,,,,,,,,,,,,,,,,,,,,
881941,001,2022-11-20_23h53.52.023,Info_measure_main_exp,2022.2.2,Win32,246.123554,,,,,,,,,,,,,0,2,2,4,1,masks/mask_005.jpg,,,,,,,,,,,,,,,,,,,,,,,,,,,,,,,,,,,,,,,,,,,,,,,,,,,,,,,,,,,,,,,,,,,,,,,,,,,,,,,,,,,,,,,,,,,,,
881941,001,2022-11-20_23h53.52.023,Info_measure_main_exp,2022.2.2,Win32,246.123554,,,,,,,,,,,,,0,3,3,3,1,masks/mask_004.jpg,,,,,,,,,,,,,,,,,,,,,,,,,,,,,,,,,,,,,,,,,,,,,,,,,,,,,,,,,,,,,,,,,,,,,,,,,,,,,,,,,,,,,,,,,,,,,
881941,001,2022-11-20_23h53.52.023,Info_measure_main_exp,2022.2.2,Win32,246.123554,,,,,,,,,,,,,0,4,4,0,1,masks/mask_001.jpg,,,,,,,,,,,,,,,,,,,,,,,,,,,,,,,,,,,,,,,,,,,,,,,,,,,,,,,,,,,,,,,,,,,,,,,,,,,,,,,,,,,,,,,,,,,,,
881941,001,2022-11-20_23h53.52.023,Info_measure_main_exp,2022.2.2,Win32,246.123554,,,,,,,,,,,,,,,,,,masks/mask_003.jpg,0,0,0,2,1,,,,,,,,,,,,,,,,,,,,,,,,,,,,,,,,,,,,,,,,,,,,,,,,,,,,,,,,,,,,,,,,,,,,,,,,,,,,,,,,,,,,,,,,
881941,001,2022-11-20_23h53.52.023,Info_measure_main_exp,2022.2.2,Win32,246.123554,,,,,,,,,,,,,,,,,,masks/mask_001.jpg,0,1,1,0,1,,,,,,,,,,,,,,,,,,,,,,,,,,,,,,,,,,,,,,,,,,,,,,,,,,,,,,,,,,,,,,,,,,,,,,,,,,,,,,,,,,,,,,,,
881941,001,2022-11-20_23h53.52.023,Info_measure_main_exp,2022.2.2,Win32,246.123554,,,,,,,,,,,,,,,,,,masks/mask_004.jpg,0,2,2,3,1,,,,,,,,,,,,,,,,,,,,,,,,,,,,,,,,,,,,,,,,,,,,,,,,,,,,,,,,,,,,,,,,,,,,,,,,,,,,,,,,,,,,,,,,
881941,001,2022-11-20_23h53.52.023,Info_measure_main_exp,2022.2.2,Win32,246.123554,,,,,,,,,,,,,,,,,,masks/mask_005.jpg,0,3,3,4,1,,,,,,,,,,,,,,,,,,,,,,,,,,,,,,,,,,,,,,,,,,,,,,,,,,,,,,,,,,,,,,,,,,,,,,,,,,,,,,,,,,,,,,,,
881941,001,2022-11-20_23h53.52.023,Info_measure_main_exp,2022.2.2,Win32,246.123554,,,,,,,,,,,,,,,,,,masks/mask_002.jpg,0,4,4,1,1,,,,,,,,,,,,,,,,,,,,,,,,,,,,,,,,,,,,,,,,,,,,,,,,,,,,,,,,,,,,,,,,,,,,,,,,,,,,,,,,,,,,,,,,
881941,001,2022-11-20_23h53.52.023,Info_measure_main_exp,2022.2.2,Win32,246.123554,,,,,,,,,,,,,,,,,,,,,,,,0.022222236,-0.151851866,1,0,0,response3disk,4,174.6039,1,-0.002777735,-0.005555577,1,0,0,center_square,0,1,1,1,1,0,131,5,5,2514,2490,prac_patch/patch0002514.jpg,prac_patch/patch0002490.jpg,,,,,,,,,,,,,,,,,,,,,,,,,,,,,,,,,,,,,,,,,,,,,,,,,,,,,,,,,,,,
881941,001,2022-11-20_23h53.52.023,Info_measure_main_exp,2022.2.2,Win32,246.123554,,,,,,,,,,,,,0,0,0,2,1,masks/mask_003.jpg,,,,,,,,,,,,,,,,,,,,,,,,,,,,,,,,,,,,,,,,,,,,,,,,,,,,,,,,,,,,,,,,,,,,,,,,,,,,,,,,,,,,,,,,,,,,,
881941,001,2022-11-20_23h53.52.023,Info_measure_main_exp,2022.2.2,Win32,246.123554,,,,,,,,,,,,,0,1,1,1,1,masks/mask_002.jpg,,,,,,,,,,,,,,,,,,,,,,,,,,,,,,,,,,,,,,,,,,,,,,,,,,,,,,,,,,,,,,,,,,,,,,,,,,,,,,,,,,,,,,,,,,,,,
881941,001,2022-11-20_23h53.52.023,Info_measure_main_exp,2022.2.2,Win32,246.123554,,,,,,,,,,,,,0,2,2,3,1,masks/mask_004.jpg,,,,,,,,,,,,,,,,,,,,,,,,,,,,,,,,,,,,,,,,,,,,,,,,,,,,,,,,,,,,,,,,,,,,,,,,,,,,,,,,,,,,,,,,,,,,,
881941,001,2022-11-20_23h53.52.023,Info_measure_main_exp,2022.2.2,Win32,246.123554,,,,,,,,,,,,,0,3,3,0,1,masks/mask_001.jpg,,,,,,,,,,,,,,,,,,,,,,,,,,,,,,,,,,,,,,,,,,,,,,,,,,,,,,,,,,,,,,,,,,,,,,,,,,,,,,,,,,,,,,,,,,,,,
881941,001,2022-11-20_23h53.52.023,Info_measure_main_exp,2022.2.2,Win32,246.123554,,,,,,,,,,,,,0,4,4,4,1,masks/mask_005.jpg,,,,,,,,,,,,,,,,,,,,,,,,,,,,,,,,,,,,,,,,,,,,,,,,,,,,,,,,,,,,,,,,,,,,,,,,,,,,,,,,,,,,,,,,,,,,,
881941,001,2022-11-20_23h53.52.023,Info_measure_main_exp,2022.2.2,Win32,246.123554,,,,,,,,,,,,,,,,,,masks/mask_002.jpg,0,0,0,1,1,,,,,,,,,,,,,,,,,,,,,,,,,,,,,,,,,,,,,,,,,,,,,,,,,,,,,,,,,,,,,,,,,,,,,,,,,,,,,,,,,,,,,,,,
881941,001,2022-11-20_23h53.52.023,Info_measure_main_exp,2022.2.2,Win32,246.123554,,,,,,,,,,,,,,,,,,masks/mask_004.jpg,0,1,1,3,1,,,,,,,,,,,,,,,,,,,,,,,,,,,,,,,,,,,,,,,,,,,,,,,,,,,,,,,,,,,,,,,,,,,,,,,,,,,,,,,,,,,,,,,,
881941,001,2022-11-20_23h53.52.023,Info_measure_main_exp,2022.2.2,Win32,246.123554,,,,,,,,,,,,,,,,,,masks/mask_003.jpg,0,2,2,2,1,,,,,,,,,,,,,,,,,,,,,,,,,,,,,,,,,,,,,,,,,,,,,,,,,,,,,,,,,,,,,,,,,,,,,,,,,,,,,,,,,,,,,,,,
881941,001,2022-11-20_23h53.52.023,Info_measure_main_exp,2022.2.2,Win32,246.123554,,,,,,,,,,,,,,,,,,masks/mask_005.jpg,0,3,3,4,1,,,,,,,,,,,,,,,,,,,,,,,,,,,,,,,,,,,,,,,,,,,,,,,,,,,,,,,,,,,,,,,,,,,,,,,,,,,,,,,,,,,,,,,,
881941,001,2022-11-20_23h53.52.023,Info_measure_main_exp,2022.2.2,Win32,246.123554,,,,,,,,,,,,,,,,,,masks/mask_001.jpg,0,4,4,0,1,,,,,,,,,,,,,,,,,,,,,,,,,,,,,,,,,,,,,,,,,,,,,,,,,,,,,,,,,,,,,,,,,,,,,,,,,,,,,,,,,,,,,,,,
881941,001,2022-11-20_23h53.52.023,Info_measure_main_exp,2022.2.2,Win32,246.123554,,,,,,,,,,,,,,,,,,,,,,,,-0.057407379,0.137962942,1,0,0,response7disk,0,183.7449,1,0.005555541,0.003703683,1,0,0,center_square,0,2,2,2,1,0,131,5,5,2526,2526,prac_patch/patch0002526.jpg,prac_patch/patch0002526.jpg,,,,,,,,,,,,,,,,,,,,,,,,,,,,,,,,,,,,,,,,,,,,,,,,,,,,,,,,,,,,
881941,001,2022-11-20_23h53.52.023,Info_measure_main_exp,2022.2.2,Win32,246.123554,,,,,,,,,,,,,,,,,,,,,,,,,,,,,,,,,,,,,,,,,,,,,,,,,,,,,,,,,,,space,3.3884,,,,,,,,,,,,,,,,,,,,,,,,,,,,,,,,,,,,,,,,,,,,,,,,,,,
881941,001,2022-11-20_23h53.52.023,Info_measure_main_exp,2022.2.2,Win32,246.123554,,,,,,,,,,,,,,,,,,masks/mask_003.jpg,,,,,,,,,,,,,,,,,,,,,,,,,,,,,,,,,,,,,,,,,,,0,0,0,2,1,,,,,,,,,,,,,,,,,,,,,,,,,,,,,,,,,,,,,,,,,,,,,,
881941,001,2022-11-20_23h53.52.023,Info_measure_main_exp,2022.2.2,Win32,246.123554,,,,,,,,,,,,,,,,,,masks/mask_004.jpg,,,,,,,,,,,,,,,,,,,,,,,,,,,,,,,,,,,,,,,,,,,0,1,1,3,1,,,,,,,,,,,,,,,,,,,,,,,,,,,,,,,,,,,,,,,,,,,,,,
881941,001,2022-11-20_23h53.52.023,Info_measure_main_exp,2022.2.2,Win32,246.123554,,,,,,,,,,,,,,,,,,masks/mask_001.jpg,,,,,,,,,,,,,,,,,,,,,,,,,,,,,,,,,,,,,,,,,,,0,2,2,0,1,,,,,,,,,,,,,,,,,,,,,,,,,,,,,,,,,,,,,,,,,,,,,,
881941,001,2022-11-20_23h53.52.023,Info_measure_main_exp,2022.2.2,Win32,246.123554,,,,,,,,,,,,,,,,,,masks/mask_005.jpg,,,,,,,,,,,,,,,,,,,,,,,,,,,,,,,,,,,,,,,,,,,0,3,3,4,1,,,,,,,,,,,,,,,,,,,,,,,,,,,,,,,,,,,,,,,,,,,,,,
881941,001,2022-11-20_23h53.52.023,Info_measure_main_exp,2022.2.2,Win32,246.123554,,,,,,,,,,,,,,,,,,masks/mask_002.jpg,,,,,,,,,,,,,,,,,,,,,,,,,,,,,,,,,,,,,,,,,,,0,4,4,1,1,,,,,,,,,,,,,,,,,,,,,,,,,,,,,,,,,,,,,,,,,,,,,,
881941,001,2022-11-20_23h53.52.023,Info_measure_main_exp,2022.2.2,Win32,246.123554,,,,,,,,,,,,,,,,,,masks/mask_003.jpg,,,,,,,,,,,,,,,,,,,,,,,,,,,,,,,,,,,,,,,,,,,,,,,,0,0,0,2,1,,,,,,,,,,,,,,,,,,,,,,,,,,,,,,,,,,,,,,,,,
881941,001,2022-11-20_23h53.52.023,Info_measure_main_exp,2022.2.2,Win32,246.123554,,,,,,,,,,,,,,,,,,masks/mask_002.jpg,,,,,,,,,,,,,,,,,,,,,,,,,,,,,,,,,,,,,,,,,,,,,,,,0,1,1,1,1,,,,,,,,,,,,,,,,,,,,,,,,,,,,,,,,,,,,,,,,,
881941,001,2022-11-20_23h53.52.023,Info_measure_main_exp,2022.2.2,Win32,246.123554,,,,,,,,,,,,,,,,,,masks/mask_004.jpg,,,,,,,,,,,,,,,,,,,,,,,,,,,,,,,,,,,,,,,,,,,,,,,,0,2,2,3,1,,,,,,,,,,,,,,,,,,,,,,,,,,,,,,,,,,,,,,,,,
881941,001,2022-11-20_23h53.52.023,Info_measure_main_exp,2022.2.2,Win32,246.123554,,,,,,,,,,,,,,,,,,masks/mask_005.jpg,,,,,,,,,,,,,,,,,,,,,,,,,,,,,,,,,,,,,,,,,,,,,,,,0,3,3,4,1,,,,,,,,,,,,,,,,,,,,,,,,,,,,,,,,,,,,,,,,,
881941,001,2022-11-20_23h53.52.023,Info_measure_main_exp,2022.2.2,Win32,246.123554,,,,,,,,,,,,,,,,,,masks/mask_001.jpg,,,,,,,,,,,,,,,,,,,,,,,,,,,,,,,,,,,,,,,,,,,,,,,,0,4,4,0,1,,,,,,,,,,,,,,,,,,,,,,,,,,,,,,,,,,,,,,,,,
881941,001,2022-11-20_23h53.52.023,Info_measure_main_exp,2022.2.2,Win32,246.123554,,,,,,,,,,,,,,,,,,,,,,,,,,,,,,0,0.6807,1,,,,,,,,,,,,0,131,5,5,2178,2178,absent_patch/patch0002178.jpg,absent_patch/patch0002178.jpg,,,,,,,,,,,,,,,,,,,,-0.062037009,0.110185164,1,0,0,response7disk,1,-0.005555541,0.001851859,1,0,0,center_square,0,0,0,98,1,,,,,,,,,,,,,,,,,,,,,,,
881941,001,2022-11-20_23h53.52.023,Info_measure_main_exp,2022.2.2,Win32,246.123554,,,,,,,,,,,,,,,,,,masks/mask_004.jpg,,,,,,,,,,,,,,,,,,,,,,,,,,,,,,,,,,,,,,,,,,,0,0,0,3,1,,,,,,,,,,,,,,,,,,,,,,,,,,,,,,,,,,,,,,,,,,,,,,
881941,001,2022-11-20_23h53.52.023,Info_measure_main_exp,2022.2.2,Win32,246.123554,,,,,,,,,,,,,,,,,,masks/mask_001.jpg,,,,,,,,,,,,,,,,,,,,,,,,,,,,,,,,,,,,,,,,,,,0,1,1,0,1,,,,,,,,,,,,,,,,,,,,,,,,,,,,,,,,,,,,,,,,,,,,,,
881941,001,2022-11-20_23h53.52.023,Info_measure_main_exp,2022.2.2,Win32,246.123554,,,,,,,,,,,,,,,,,,masks/mask_003.jpg,,,,,,,,,,,,,,,,,,,,,,,,,,,,,,,,,,,,,,,,,,,0,2,2,2,1,,,,,,,,,,,,,,,,,,,,,,,,,,,,,,,,,,,,,,,,,,,,,,
881941,001,2022-11-20_23h53.52.023,Info_measure_main_exp,2022.2.2,Win32,246.123554,,,,,,,,,,,,,,,,,,masks/mask_005.jpg,,,,,,,,,,,,,,,,,,,,,,,,,,,,,,,,,,,,,,,,,,,0,3,3,4,1,,,,,,,,,,,,,,,,,,,,,,,,,,,,,,,,,,,,,,,,,,,,,,
881941,001,2022-11-20_23h53.52.023,Info_measure_main_exp,2022.2.2,Win32,246.123554,,,,,,,,,,,,,,,,,,masks/mask_002.jpg,,,,,,,,,,,,,,,,,,,,,,,,,,,,,,,,,,,,,,,,,,,0,4,4,1,1,,,,,,,,,,,,,,,,,,,,,,,,,,,,,,,,,,,,,,,,,,,,,,
881941,001,2022-11-20_23h53.52.023,Info_measure_main_exp,2022.2.2,Win32,246.123554,,,,,,,,,,,,,,,,,,masks/mask_002.jpg,,,,,,,,,,,,,,,,,,,,,,,,,,,,,,,,,,,,,,,,,,,,,,,,0,0,0,1,1,,,,,,,,,,,,,,,,,,,,,,,,,,,,,,,,,,,,,,,,,
881941,001,2022-11-20_23h53.52.023,Info_measure_main_exp,2022.2.2,Win32,246.123554,,,,,,,,,,,,,,,,,,masks/mask_003.jpg,,,,,,,,,,,,,,,,,,,,,,,,,,,,,,,,,,,,,,,,,,,,,,,,0,1,1,2,1,,,,,,,,,,,,,,,,,,,,,,,,,,,,,,,,,,,,,,,,,
881941,001,2022-11-20_23h53.52.023,Info_measure_main_exp,2022.2.2,Win32,246.123554,,,,,,,,,,,,,,,,,,masks/mask_005.jpg,,,,,,,,,,,,,,,,,,,,,,,,,,,,,,,,,,,,,,,,,,,,,,,,0,2,2,4,1,,,,,,,,,,,,,,,,,,,,,,,,,,,,,,,,,,,,,,,,,
881941,001,2022-11-20_23h53.52.023,Info_measure_main_exp,2022.2.2,Win32,246.123554,,,,,,,,,,,,,,,,,,masks/mask_004.jpg,,,,,,,,,,,,,,,,,,,,,,,,,,,,,,,,,,,,,,,,,,,,,,,,0,3,3,3,1,,,,,,,,,,,,,,,,,,,,,,,,,,,,,,,,,,,,,,,,,
881941,001,2022-11-20_23h53.52.023,Info_measure_main_exp,2022.2.2,Win32,246.123554,,,,,,,,,,,,,,,,,,masks/mask_001.jpg,,,,,,,,,,,,,,,,,,,,,,,,,,,,,,,,,,,,,,,,,,,,,,,,0,4,4,0,1,,,,,,,,,,,,,,,,,,,,,,,,,,,,,,,,,,,,,,,,,
881941,001,2022-11-20_23h53.52.023,Info_measure_main_exp,2022.2.2,Win32,246.123554,,,,,,,,,,,,,,,,,,,,,,,,,,,,,,5,1.5846,1,,,,,,,,,,,,0,131,5,5,2154,1974,absent_patch/patch0002154.jpg,absent_patch/patch0001974.jpg,,,,,,,,,,,,,,,,,,,,0.140740783,-0.067592586,1,0,0,response3disk,2,0,0.00462963,1,0,0,center_square,0,1,1,82,1,,,,,,,,,,,,,,,,,,,,,,,
881941,001,2022-11-20_23h53.52.023,Info_measure_main_exp,2022.2.2,Win32,246.123554,,,,,,,,,,,,,,,,,,masks/mask_005.jpg,,,,,,,,,,,,,,,,,,,,,,,,,,,,,,,,,,,,,,,,,,,0,0,0,4,1,,,,,,,,,,,,,,,,,,,,,,,,,,,,,,,,,,,,,,,,,,,,,,
881941,001,2022-11-20_23h53.52.023,Info_measure_main_exp,2022.2.2,Win32,246.123554,,,,,,,,,,,,,,,,,,masks/mask_003.jpg,,,,,,,,,,,,,,,,,,,,,,,,,,,,,,,,,,,,,,,,,,,0,1,1,2,1,,,,,,,,,,,,,,,,,,,,,,,,,,,,,,,,,,,,,,,,,,,,,,
881941,001,2022-11-20_23h53.52.023,Info_measure_main_exp,2022.2.2,Win32,246.123554,,,,,,,,,,,,,,,,,,masks/mask_002.jpg,,,,,,,,,,,,,,,,,,,,,,,,,,,,,,,,,,,,,,,,,,,0,2,2,1,1,,,,,,,,,,,,,,,,,,,,,,,,,,,,,,,,,,,,,,,,,,,,,,
881941,001,2022-11-20_23h53.52.023,Info_measure_main_exp,2022.2.2,Win32,246.123554,,,,,,,,,,,,,,,,,,masks/mask_001.jpg,,,,,,,,,,,,,,,,,,,,,,,,,,,,,,,,,,,,,,,,,,,0,3,3,0,1,,,,,,,,,,,,,,,,,,,,,,,,,,,,,,,,,,,,,,,,,,,,,,
881941,001,2022-11-20_23h53.52.023,Info_measure_main_exp,2022.2.2,Win32,246.123554,,,,,,,,,,,,,,,,,,masks/mask_004.jpg,,,,,,,,,,,,,,,,,,,,,,,,,,,,,,,,,,,,,,,,,,,0,4,4,3,1,,,,,,,,,,,,,,,,,,,,,,,,,,,,,,,,,,,,,,,,,,,,,,
881941,001,2022-11-20_23h53.52.023,Info_measure_main_exp,2022.2.2,Win32,246.123554,,,,,,,,,,,,,,,,,,masks/mask_002.jpg,,,,,,,,,,,,,,,,,,,,,,,,,,,,,,,,,,,,,,,,,,,,,,,,0,0,0,1,1,,,,,,,,,,,,,,,,,,,,,,,,,,,,,,,,,,,,,,,,,
881941,001,2022-11-20_23h53.52.023,Info_measure_main_exp,2022.2.2,Win32,246.123554,,,,,,,,,,,,,,,,,,masks/mask_005.jpg,,,,,,,,,,,,,,,,,,,,,,,,,,,,,,,,,,,,,,,,,,,,,,,,0,1,1,4,1,,,,,,,,,,,,,,,,,,,,,,,,,,,,,,,,,,,,,,,,,
881941,001,2022-11-20_23h53.52.023,Info_measure_main_exp,2022.2.2,Win32,246.123554,,,,,,,,,,,,,,,,,,masks/mask_001.jpg,,,,,,,,,,,,,,,,,,,,,,,,,,,,,,,,,,,,,,,,,,,,,,,,0,2,2,0,1,,,,,,,,,,,,,,,,,,,,,,,,,,,,,,,,,,,,,,,,,
881941,001,2022-11-20_23h53.52.023,Info_measure_main_exp,2022.2.2,Win32,246.123554,,,,,,,,,,,,,,,,,,masks/mask_004.jpg,,,,,,,,,,,,,,,,,,,,,,,,,,,,,,,,,,,,,,,,,,,,,,,,0,3,3,3,1,,,,,,,,,,,,,,,,,,,,,,,,,,,,,,,,,,,,,,,,,
881941,001,2022-11-20_23h53.52.023,Info_measure_main_exp,2022.2.2,Win32,246.123554,,,,,,,,,,,,,,,,,,masks/mask_003.jpg,,,,,,,,,,,,,,,,,,,,,,,,,,,,,,,,,,,,,,,,,,,,,,,,0,4,4,2,1,,,,,,,,,,,,,,,,,,,,,,,,,,,,,,,,,,,,,,,,,
881941,001,2022-11-20_23h53.52.023,Info_measure_main_exp,2022.2.2,Win32,246.123554,,,,,,,,,,,,,,,,,,,,,,,,,,,,,,4,0.8411,1,,,,,,,,,,,,0,131,5,5,1950,2166,absent_patch/patch0001950.jpg,absent_patch/patch0002166.jpg,,,,,,,,,,,,,,,,,,,,0.05277782,-0.126851894,1,0,0,response3disk,3,-0.007407365,-0.000925947,1,0,0,center_square,0,2,2,0,1,,,,,,,,,,,,,,,,,,,,,,,
881941,001,2022-11-20_23h53.52.023,Info_measure_main_exp,2022.2.2,Win32,246.123554,,,,,,,,,,,,,,,,,,masks/mask_004.jpg,,,,,,,,,,,,,,,,,,,,,,,,,,,,,,,,,,,,,,,,,,,0,0,0,3,1,,,,,,,,,,,,,,,,,,,,,,,,,,,,,,,,,,,,,,,,,,,,,,
881941,001,2022-11-20_23h53.52.023,Info_measure_main_exp,2022.2.2,Win32,246.123554,,,,,,,,,,,,,,,,,,masks/mask_002.jpg,,,,,,,,,,,,,,,,,,,,,,,,,,,,,,,,,,,,,,,,,,,0,1,1,1,1,,,,,,,,,,,,,,,,,,,,,,,,,,,,,,,,,,,,,,,,,,,,,,
881941,001,2022-11-20_23h53.52.023,Info_measure_main_exp,2022.2.2,Win32,246.123554,,,,,,,,,,,,,,,,,,masks/mask_003.jpg,,,,,,,,,,,,,,,,,,,,,,,,,,,,,,,,,,,,,,,,,,,0,2,2,2,1,,,,,,,,,,,,,,,,,,,,,,,,,,,,,,,,,,,,,,,,,,,,,,
881941,001,2022-11-20_23h53.52.023,Info_measure_main_exp,2022.2.2,Win32,246.123554,,,,,,,,,,,,,,,,,,masks/mask_001.jpg,,,,,,,,,,,,,,,,,,,,,,,,,,,,,,,,,,,,,,,,,,,0,3,3,0,1,,,,,,,,,,,,,,,,,,,,,,,,,,,,,,,,,,,,,,,,,,,,,,
881941,001,2022-11-20_23h53.52.023,Info_measure_main_exp,2022.2.2,Win32,246.123554,,,,,,,,,,,,,,,,,,masks/mask_005.jpg,,,,,,,,,,,,,,,,,,,,,,,,,,,,,,,,,,,,,,,,,,,0,4,4,4,1,,,,,,,,,,,,,,,,,,,,,,,,,,,,,,,,,,,,,,,,,,,,,,
881941,001,2022-11-20_23h53.52.023,Info_measure_main_exp,2022.2.2,Win32,246.123554,,,,,,,,,,,,,,,,,,masks/mask_002.jpg,,,,,,,,,,,,,,,,,,,,,,,,,,,,,,,,,,,,,,,,,,,,,,,,0,0,0,1,1,,,,,,,,,,,,,,,,,,,,,,,,,,,,,,,,,,,,,,,,,
881941,001,2022-11-20_23h53.52.023,Info_measure_main_exp,2022.2.2,Win32,246.123554,,,,,,,,,,,,,,,,,,masks/mask_004.jpg,,,,,,,,,,,,,,,,,,,,,,,,,,,,,,,,,,,,,,,,,,,,,,,,0,1,1,3,1,,,,,,,,,,,,,,,,,,,,,,,,,,,,,,,,,,,,,,,,,
881941,001,2022-11-20_23h53.52.023,Info_measure_main_exp,2022.2.2,Win32,246.123554,,,,,,,,,,,,,,,,,,masks/mask_003.jpg,,,,,,,,,,,,,,,,,,,,,,,,,,,,,,,,,,,,,,,,,,,,,,,,0,2,2,2,1,,,,,,,,,,,,,,,,,,,,,,,,,,,,,,,,,,,,,,,,,
881941,001,2022-11-20_23h53.52.023,Info_measure_main_exp,2022.2.2,Win32,246.123554,,,,,,,,,,,,,,,,,,masks/mask_005.jpg,,,,,,,,,,,,,,,,,,,,,,,,,,,,,,,,,,,,,,,,,,,,,,,,0,3,3,4,1,,,,,,,,,,,,,,,,,,,,,,,,,,,,,,,,,,,,,,,,,
881941,001,2022-11-20_23h53.52.023,Info_measure_main_exp,2022.2.2,Win32,246.123554,,,,,,,,,,,,,,,,,,masks/mask_001.jpg,,,,,,,,,,,,,,,,,,,,,,,,,,,,,,,,,,,,,,,,,,,,,,,,0,4,4,0,1,,,,,,,,,,,,,,,,,,,,,,,,,,,,,,,,,,,,,,,,,
881941,001,2022-11-20_23h53.52.023,Info_measure_main_exp,2022.2.2,Win32,246.123554,,,,,,,,,,,,,,,,,,,,,,,,,,,,,,5,0.7811,1,,,,,,,,,,,,0,131,5,5,2250,2178,absent_patch/patch0002250.jpg,absent_patch/patch0002178.jpg,,,,,,,,,,,,,,,,,,,,0.112963005,-0.046296296,1,0,0,response3disk,4,-0.001851824,0.002777771,1,0,0,center_square,0,3,3,48,1,,,,,,,,,,,,,,,,,,,,,,,
881941,001,2022-11-20_23h53.52.023,Info_measure_main_exp,2022.2.2,Win32,246.123554,,,,,,,,,,,,,,,,,,masks/mask_001.jpg,,,,,,,,,,,,,,,,,,,,,,,,,,,,,,,,,,,,,,,,,,,0,0,0,0,1,,,,,,,,,,,,,,,,,,,,,,,,,,,,,,,,,,,,,,,,,,,,,,
881941,001,2022-11-20_23h53.52.023,Info_measure_main_exp,2022.2.2,Win32,246.123554,,,,,,,,,,,,,,,,,,masks/mask_004.jpg,,,,,,,,,,,,,,,,,,,,,,,,,,,,,,,,,,,,,,,,,,,0,1,1,3,1,,,,,,,,,,,,,,,,,,,,,,,,,,,,,,,,,,,,,,,,,,,,,,
881941,001,2022-11-20_23h53.52.023,Info_measure_main_exp,2022.2.2,Win32,246.123554,,,,,,,,,,,,,,,,,,masks/mask_005.jpg,,,,,,,,,,,,,,,,,,,,,,,,,,,,,,,,,,,,,,,,,,,0,2,2,4,1,,,,,,,,,,,,,,,,,,,,,,,,,,,,,,,,,,,,,,,,,,,,,,
881941,001,2022-11-20_23h53.52.023,Info_measure_main_exp,2022.2.2,Win32,246.123554,,,,,,,,,,,,,,,,,,masks/mask_002.jpg,,,,,,,,,,,,,,,,,,,,,,,,,,,,,,,,,,,,,,,,,,,0,3,3,1,1,,,,,,,,,,,,,,,,,,,,,,,,,,,,,,,,,,,,,,,,,,,,,,
881941,001,2022-11-20_23h53.52.023,Info_measure_main_exp,2022.2.2,Win32,246.123554,,,,,,,,,,,,,,,,,,masks/mask_003.jpg,,,,,,,,,,,,,,,,,,,,,,,,,,,,,,,,,,,,,,,,,,,0,4,4,2,1,,,,,,,,,,,,,,,,,,,,,,,,,,,,,,,,,,,,,,,,,,,,,,
881941,001,2022-11-20_23h53.52.023,Info_measure_main_exp,2022.2.2,Win32,246.123554,,,,,,,,,,,,,,,,,,masks/mask_001.jpg,,,,,,,,,,,,,,,,,,,,,,,,,,,,,,,,,,,,,,,,,,,,,,,,0,0,0,0,1,,,,,,,,,,,,,,,,,,,,,,,,,,,,,,,,,,,,,,,,,
881941,001,2022-11-20_23h53.52.023,Info_measure_main_exp,2022.2.2,Win32,246.123554,,,,,,,,,,,,,,,,,,masks/mask_002.jpg,,,,,,,,,,,,,,,,,,,,,,,,,,,,,,,,,,,,,,,,,,,,,,,,0,1,1,1,1,,,,,,,,,,,,,,,,,,,,,,,,,,,,,,,,,,,,,,,,,
881941,001,2022-11-20_23h53.52.023,Info_measure_main_exp,2022.2.2,Win32,246.123554,,,,,,,,,,,,,,,,,,masks/mask_003.jpg,,,,,,,,,,,,,,,,,,,,,,,,,,,,,,,,,,,,,,,,,,,,,,,,0,2,2,2,1,,,,,,,,,,,,,,,,,,,,,,,,,,,,,,,,,,,,,,,,,
881941,001,2022-11-20_23h53.52.023,Info_measure_main_exp,2022.2.2,Win32,246.123554,,,,,,,,,,,,,,,,,,masks/mask_005.jpg,,,,,,,,,,,,,,,,,,,,,,,,,,,,,,,,,,,,,,,,,,,,,,,,0,3,3,4,1,,,,,,,,,,,,,,,,,,,,,,,,,,,,,,,,,,,,,,,,,
881941,001,2022-11-20_23h53.52.023,Info_measure_main_exp,2022.2.2,Win32,246.123554,,,,,,,,,,,,,,,,,,masks/mask_004.jpg,,,,,,,,,,,,,,,,,,,,,,,,,,,,,,,,,,,,,,,,,,,,,,,,0,4,4,3,1,,,,,,,,,,,,,,,,,,,,,,,,,,,,,,,,,,,,,,,,,
881941,001,2022-11-20_23h53.52.023,Info_measure_main_exp,2022.2.2,Win32,246.123554,,,,,,,,,,,,,,,,,,,,,,,,,,,,,,4,0.5792,1,,,,,,,,,,,,0,131,5,5,2274,2250,absent_patch/patch0002274.jpg,absent_patch/patch0002250.jpg,,,,,,,,,,,,,,,,,,,,0.046296296,-0.148148148,1,0,0,response3disk,5,-0.014814801,-0.005555577,1,0,0,center_square,0,4,4,28,1,,,,,,,,,,,,,,,,,,,,,,,
881941,001,2022-11-20_23h53.52.023,Info_measure_main_exp,2022.2.2,Win32,246.123554,,,,,,,,,,,,,,,,,,masks/mask_002.jpg,,,,,,,,,,,,,,,,,,,,,,,,,,,,,,,,,,,,,,,,,,,0,0,0,1,1,,,,,,,,,,,,,,,,,,,,,,,,,,,,,,,,,,,,,,,,,,,,,,
881941,001,2022-11-20_23h53.52.023,Info_measure_main_exp,2022.2.2,Win32,246.123554,,,,,,,,,,,,,,,,,,masks/mask_001.jpg,,,,,,,,,,,,,,,,,,,,,,,,,,,,,,,,,,,,,,,,,,,0,1,1,0,1,,,,,,,,,,,,,,,,,,,,,,,,,,,,,,,,,,,,,,,,,,,,,,
881941,001,2022-11-20_23h53.52.023,Info_measure_main_exp,2022.2.2,Win32,246.123554,,,,,,,,,,,,,,,,,,masks/mask_005.jpg,,,,,,,,,,,,,,,,,,,,,,,,,,,,,,,,,,,,,,,,,,,0,2,2,4,1,,,,,,,,,,,,,,,,,,,,,,,,,,,,,,,,,,,,,,,,,,,,,,
881941,001,2022-11-20_23h53.52.023,Info_measure_main_exp,2022.2.2,Win32,246.123554,,,,,,,,,,,,,,,,,,masks/mask_004.jpg,,,,,,,,,,,,,,,,,,,,,,,,,,,,,,,,,,,,,,,,,,,0,3,3,3,1,,,,,,,,,,,,,,,,,,,,,,,,,,,,,,,,,,,,,,,,,,,,,,
881941,001,2022-11-20_23h53.52.023,Info_measure_main_exp,2022.2.2,Win32,246.123554,,,,,,,,,,,,,,,,,,masks/mask_003.jpg,,,,,,,,,,,,,,,,,,,,,,,,,,,,,,,,,,,,,,,,,,,0,4,4,2,1,,,,,,,,,,,,,,,,,,,,,,,,,,,,,,,,,,,,,,,,,,,,,,
881941,001,2022-11-20_23h53.52.023,Info_measure_main_exp,2022.2.2,Win32,246.123554,,,,,,,,,,,,,,,,,,masks/mask_005.jpg,,,,,,,,,,,,,,,,,,,,,,,,,,,,,,,,,,,,,,,,,,,,,,,,0,0,0,4,1,,,,,,,,,,,,,,,,,,,,,,,,,,,,,,,,,,,,,,,,,
881941,001,2022-11-20_23h53.52.023,Info_measure_main_exp,2022.2.2,Win32,246.123554,,,,,,,,,,,,,,,,,,masks/mask_002.jpg,,,,,,,,,,,,,,,,,,,,,,,,,,,,,,,,,,,,,,,,,,,,,,,,0,1,1,1,1,,,,,,,,,,,,,,,,,,,,,,,,,,,,,,,,,,,,,,,,,
881941,001,2022-11-20_23h53.52.023,Info_measure_main_exp,2022.2.2,Win32,246.123554,,,,,,,,,,,,,,,,,,masks/mask_004.jpg,,,,,,,,,,,,,,,,,,,,,,,,,,,,,,,,,,,,,,,,,,,,,,,,0,2,2,3,1,,,,,,,,,,,,,,,,,,,,,,,,,,,,,,,,,,,,,,,,,
881941,001,2022-11-20_23h53.52.023,Info_measure_main_exp,2022.2.2,Win32,246.123554,,,,,,,,,,,,,,,,,,masks/mask_001.jpg,,,,,,,,,,,,,,,,,,,,,,,,,,,,,,,,,,,,,,,,,,,,,,,,0,3,3,0,1,,,,,,,,,,,,,,,,,,,,,,,,,,,,,,,,,,,,,,,,,
881941,001,2022-11-20_23h53.52.023,Info_measure_main_exp,2022.2.2,Win32,246.123554,,,,,,,,,,,,,,,,,,masks/mask_003.jpg,,,,,,,,,,,,,,,,,,,,,,,,,,,,,,,,,,,,,,,,,,,,,,,,0,4,4,2,1,,,,,,,,,,,,,,,,,,,,,,,,,,,,,,,,,,,,,,,,,
881941,001,2022-11-20_23h53.52.023,Info_measure_main_exp,2022.2.2,Win32,246.123554,,,,,,,,,,,,,,,,,,,,,,,,,,,,,,3,1.6833,1,,,,,,,,,,,,0,131,5,5,2298,2178,absent_patch/patch0002298.jpg,absent_patch/patch0002178.jpg,,,,,,,,,,,,,,,,,,,,-0.031481496,-0.137962977,1,0,0,response5disk,6,-0.009259259,0,1,0,0,center_square,0,5,5,84,1,,,,,,,,,,,,,,,,,,,,,,,
881941,001,2022-11-20_23h53.52.023,Info_measure_main_exp,2022.2.2,Win32,246.123554,,,,,,,,,,,,,,,,,,masks/mask_004.jpg,,,,,,,,,,,,,,,,,,,,,,,,,,,,,,,,,,,,,,,,,,,0,0,0,3,1,,,,,,,,,,,,,,,,,,,,,,,,,,,,,,,,,,,,,,,,,,,,,,
881941,001,2022-11-20_23h53.52.023,Info_measure_main_exp,2022.2.2,Win32,246.123554,,,,,,,,,,,,,,,,,,masks/mask_001.jpg,,,,,,,,,,,,,,,,,,,,,,,,,,,,,,,,,,,,,,,,,,,0,1,1,0,1,,,,,,,,,,,,,,,,,,,,,,,,,,,,,,,,,,,,,,,,,,,,,,
881941,001,2022-11-20_23h53.52.023,Info_measure_main_exp,2022.2.2,Win32,246.123554,,,,,,,,,,,,,,,,,,masks/mask_005.jpg,,,,,,,,,,,,,,,,,,,,,,,,,,,,,,,,,,,,,,,,,,,0,2,2,4,1,,,,,,,,,,,,,,,,,,,,,,,,,,,,,,,,,,,,,,,,,,,,,,
881941,001,2022-11-20_23h53.52.023,Info_measure_main_exp,2022.2.2,Win32,246.123554,,,,,,,,,,,,,,,,,,masks/mask_003.jpg,,,,,,,,,,,,,,,,,,,,,,,,,,,,,,,,,,,,,,,,,,,0,3,3,2,1,,,,,,,,,,,,,,,,,,,,,,,,,,,,,,,,,,,,,,,,,,,,,,
881941,001,2022-11-20_23h53.52.023,Info_measure_main_exp,2022.2.2,Win32,246.123554,,,,,,,,,,,,,,,,,,masks/mask_002.jpg,,,,,,,,,,,,,,,,,,,,,,,,,,,,,,,,,,,,,,,,,,,0,4,4,1,1,,,,,,,,,,,,,,,,,,,,,,,,,,,,,,,,,,,,,,,,,,,,,,
881941,001,2022-11-20_23h53.52.023,Info_measure_main_exp,2022.2.2,Win32,246.123554,,,,,,,,,,,,,,,,,,masks/mask_003.jpg,,,,,,,,,,,,,,,,,,,,,,,,,,,,,,,,,,,,,,,,,,,,,,,,0,0,0,2,1,,,,,,,,,,,,,,,,,,,,,,,,,,,,,,,,,,,,,,,,,
881941,001,2022-11-20_23h53.52.023,Info_measure_main_exp,2022.2.2,Win32,246.123554,,,,,,,,,,,,,,,,,,masks/mask_001.jpg,,,,,,,,,,,,,,,,,,,,,,,,,,,,,,,,,,,,,,,,,,,,,,,,0,1,1,0,1,,,,,,,,,,,,,,,,,,,,,,,,,,,,,,,,,,,,,,,,,
881941,001,2022-11-20_23h53.52.023,Info_measure_main_exp,2022.2.2,Win32,246.123554,,,,,,,,,,,,,,,,,,masks/mask_004.jpg,,,,,,,,,,,,,,,,,,,,,,,,,,,,,,,,,,,,,,,,,,,,,,,,0,2,2,3,1,,,,,,,,,,,,,,,,,,,,,,,,,,,,,,,,,,,,,,,,,
881941,001,2022-11-20_23h53.52.023,Info_measure_main_exp,2022.2.2,Win32,246.123554,,,,,,,,,,,,,,,,,,masks/mask_005.jpg,,,,,,,,,,,,,,,,,,,,,,,,,,,,,,,,,,,,,,,,,,,,,,,,0,3,3,4,1,,,,,,,,,,,,,,,,,,,,,,,,,,,,,,,,,,,,,,,,,
881941,001,2022-11-20_23h53.52.023,Info_measure_main_exp,2022.2.2,Win32,246.123554,,,,,,,,,,,,,,,,,,masks/mask_002.jpg,,,,,,,,,,,,,,,,,,,,,,,,,,,,,,,,,,,,,,,,,,,,,,,,0,4,4,1,1,,,,,,,,,,,,,,,,,,,,,,,,,,,,,,,,,,,,,,,,,
881941,001,2022-11-20_23h53.52.023,Info_measure_main_exp,2022.2.2,Win32,246.123554,,,,,,,,,,,,,,,,,,,,,,,,,,,,,,6,0.812,1,,,,,,,,,,,,0,131,5,5,2214,1986,absent_patch/patch0002214.jpg,absent_patch/patch0001986.jpg,,,,,,,,,,,,,,,,,,,,0.173148191,0.032407407,1,0,0,response1disk,7,0.000925912,-0.005555577,1,0,0,center_square,0,6,6,34,1,,,,,,,,,,,,,,,,,,,,,,,
881941,001,2022-11-20_23h53.52.023,Info_measure_main_exp,2022.2.2,Win32,246.123554,,,,,,,,,,,,,,,,,,masks/mask_003.jpg,,,,,,,,,,,,,,,,,,,,,,,,,,,,,,,,,,,,,,,,,,,0,0,0,2,1,,,,,,,,,,,,,,,,,,,,,,,,,,,,,,,,,,,,,,,,,,,,,,
881941,001,2022-11-20_23h53.52.023,Info_measure_main_exp,2022.2.2,Win32,246.123554,,,,,,,,,,,,,,,,,,masks/mask_002.jpg,,,,,,,,,,,,,,,,,,,,,,,,,,,,,,,,,,,,,,,,,,,0,1,1,1,1,,,,,,,,,,,,,,,,,,,,,,,,,,,,,,,,,,,,,,,,,,,,,,
881941,001,2022-11-20_23h53.52.023,Info_measure_main_exp,2022.2.2,Win32,246.123554,,,,,,,,,,,,,,,,,,masks/mask_004.jpg,,,,,,,,,,,,,,,,,,,,,,,,,,,,,,,,,,,,,,,,,,,0,2,2,3,1,,,,,,,,,,,,,,,,,,,,,,,,,,,,,,,,,,,,,,,,,,,,,,
881941,001,2022-11-20_23h53.52.023,Info_measure_main_exp,2022.2.2,Win32,246.123554,,,,,,,,,,,,,,,,,,masks/mask_005.jpg,,,,,,,,,,,,,,,,,,,,,,,,,,,,,,,,,,,,,,,,,,,0,3,3,4,1,,,,,,,,,,,,,,,,,,,,,,,,,,,,,,,,,,,,,,,,,,,,,,
881941,001,2022-11-20_23h53.52.023,Info_measure_main_exp,2022.2.2,Win32,246.123554,,,,,,,,,,,,,,,,,,masks/mask_001.jpg,,,,,,,,,,,,,,,,,,,,,,,,,,,,,,,,,,,,,,,,,,,0,4,4,0,1,,,,,,,,,,,,,,,,,,,,,,,,,,,,,,,,,,,,,,,,,,,,,,
881941,001,2022-11-20_23h53.52.023,Info_measure_main_exp,2022.2.2,Win32,246.123554,,,,,,,,,,,,,,,,,,masks/mask_003.jpg,,,,,,,,,,,,,,,,,,,,,,,,,,,,,,,,,,,,,,,,,,,,,,,,0,0,0,2,1,,,,,,,,,,,,,,,,,,,,,,,,,,,,,,,,,,,,,,,,,
881941,001,2022-11-20_23h53.52.023,Info_measure_main_exp,2022.2.2,Win32,246.123554,,,,,,,,,,,,,,,,,,masks/mask_002.jpg,,,,,,,,,,,,,,,,,,,,,,,,,,,,,,,,,,,,,,,,,,,,,,,,0,1,1,1,1,,,,,,,,,,,,,,,,,,,,,,,,,,,,,,,,,,,,,,,,,
881941,001,2022-11-20_23h53.52.023,Info_measure_main_exp,2022.2.2,Win32,246.123554,,,,,,,,,,,,,,,,,,masks/mask_005.jpg,,,,,,,,,,,,,,,,,,,,,,,,,,,,,,,,,,,,,,,,,,,,,,,,0,2,2,4,1,,,,,,,,,,,,,,,,,,,,,,,,,,,,,,,,,,,,,,,,,
881941,001,2022-11-20_23h53.52.023,Info_measure_main_exp,2022.2.2,Win32,246.123554,,,,,,,,,,,,,,,,,,masks/mask_001.jpg,,,,,,,,,,,,,,,,,,,,,,,,,,,,,,,,,,,,,,,,,,,,,,,,0,3,3,0,1,,,,,,,,,,,,,,,,,,,,,,,,,,,,,,,,,,,,,,,,,
881941,001,2022-11-20_23h53.52.023,Info_measure_main_exp,2022.2.2,Win32,246.123554,,,,,,,,,,,,,,,,,,masks/mask_004.jpg,,,,,,,,,,,,,,,,,,,,,,,,,,,,,,,,,,,,,,,,,,,,,,,,0,4,4,3,1,,,,,,,,,,,,,,,,,,,,,,,,,,,,,,,,,,,,,,,,,
881941,001,2022-11-20_23h53.52.023,Info_measure_main_exp,2022.2.2,Win32,246.123554,,,,,,,,,,,,,,,,,,,,,,,,,,,,,,0,0.5761,1,,,,,,,,,,,,0,131,5,5,2250,2250,absent_patch/patch0002250.jpg,absent_patch/patch0002250.jpg,,,,,,,,,,,,,,,,,,,,-0.02870369,0.122222229,1,0,0,response7disk,8,-0.009259259,0.005555541,1,0,0,center_square,0,7,7,56,1,,,,,,,,,,,,,,,,,,,,,,,
881941,001,2022-11-20_23h53.52.023,Info_measure_main_exp,2022.2.2,Win32,246.123554,,,,,,,,,,,,,,,,,,masks/mask_003.jpg,,,,,,,,,,,,,,,,,,,,,,,,,,,,,,,,,,,,,,,,,,,0,0,0,2,1,,,,,,,,,,,,,,,,,,,,,,,,,,,,,,,,,,,,,,,,,,,,,,
881941,001,2022-11-20_23h53.52.023,Info_measure_main_exp,2022.2.2,Win32,246.123554,,,,,,,,,,,,,,,,,,masks/mask_002.jpg,,,,,,,,,,,,,,,,,,,,,,,,,,,,,,,,,,,,,,,,,,,0,1,1,1,1,,,,,,,,,,,,,,,,,,,,,,,,,,,,,,,,,,,,,,,,,,,,,,
881941,001,2022-11-20_23h53.52.023,Info_measure_main_exp,2022.2.2,Win32,246.123554,,,,,,,,,,,,,,,,,,masks/mask_001.jpg,,,,,,,,,,,,,,,,,,,,,,,,,,,,,,,,,,,,,,,,,,,0,2,2,0,1,,,,,,,,,,,,,,,,,,,,,,,,,,,,,,,,,,,,,,,,,,,,,,
881941,001,2022-11-20_23h53.52.023,Info_measure_main_exp,2022.2.2,Win32,246.123554,,,,,,,,,,,,,,,,,,masks/mask_005.jpg,,,,,,,,,,,,,,,,,,,,,,,,,,,,,,,,,,,,,,,,,,,0,3,3,4,1,,,,,,,,,,,,,,,,,,,,,,,,,,,,,,,,,,,,,,,,,,,,,,
881941,001,2022-11-20_23h53.52.023,Info_measure_main_exp,2022.2.2,Win32,246.123554,,,,,,,,,,,,,,,,,,masks/mask_004.jpg,,,,,,,,,,,,,,,,,,,,,,,,,,,,,,,,,,,,,,,,,,,0,4,4,3,1,,,,,,,,,,,,,,,,,,,,,,,,,,,,,,,,,,,,,,,,,,,,,,
881941,001,2022-11-20_23h53.52.023,Info_measure_main_exp,2022.2.2,Win32,246.123554,,,,,,,,,,,,,,,,,,masks/mask_005.jpg,,,,,,,,,,,,,,,,,,,,,,,,,,,,,,,,,,,,,,,,,,,,,,,,0,0,0,4,1,,,,,,,,,,,,,,,,,,,,,,,,,,,,,,,,,,,,,,,,,
881941,001,2022-11-20_23h53.52.023,Info_measure_main_exp,2022.2.2,Win32,246.123554,,,,,,,,,,,,,,,,,,masks/mask_004.jpg,,,,,,,,,,,,,,,,,,,,,,,,,,,,,,,,,,,,,,,,,,,,,,,,0,1,1,3,1,,,,,,,,,,,,,,,,,,,,,,,,,,,,,,,,,,,,,,,,,
881941,001,2022-11-20_23h53.52.023,Info_measure_main_exp,2022.2.2,Win32,246.123554,,,,,,,,,,,,,,,,,,masks/mask_003.jpg,,,,,,,,,,,,,,,,,,,,,,,,,,,,,,,,,,,,,,,,,,,,,,,,0,2,2,2,1,,,,,,,,,,,,,,,,,,,,,,,,,,,,,,,,,,,,,,,,,
881941,001,2022-11-20_23h53.52.023,Info_measure_main_exp,2022.2.2,Win32,246.123554,,,,,,,,,,,,,,,,,,masks/mask_002.jpg,,,,,,,,,,,,,,,,,,,,,,,,,,,,,,,,,,,,,,,,,,,,,,,,0,3,3,1,1,,,,,,,,,,,,,,,,,,,,,,,,,,,,,,,,,,,,,,,,,
881941,001,2022-11-20_23h53.52.023,Info_measure_main_exp,2022.2.2,Win32,246.123554,,,,,,,,,,,,,,,,,,masks/mask_001.jpg,,,,,,,,,,,,,,,,,,,,,,,,,,,,,,,,,,,,,,,,,,,,,,,,0,4,4,0,1,,,,,,,,,,,,,,,,,,,,,,,,,,,,,,,,,,,,,,,,,
881941,001,2022-11-20_23h53.52.023,Info_measure_main_exp,2022.2.2,Win32,246.123554,,,,,,,,,,,,,,,,,,,,,,,,,,,,,,3,1.0085,1,,,,,,,,,,,,0,131,5,5,2214,2178,absent_patch/patch0002214.jpg,absent_patch/patch0002178.jpg,,,,,,,,,,,,,,,,,,,,-0.050925926,-0.085185192,1,0,0,response5disk,9,-0.015740712,0.015740748,1,0,0,center_square,0,8,8,62,1,,,,,,,,,,,,,,,,,,,,,,,
881941,001,2022-11-20_23h53.52.023,Info_measure_main_exp,2022.2.2,Win32,246.123554,,,,,,,,,,,,,,,,,,masks/mask_002.jpg,,,,,,,,,,,,,,,,,,,,,,,,,,,,,,,,,,,,,,,,,,,0,0,0,1,1,,,,,,,,,,,,,,,,,,,,,,,,,,,,,,,,,,,,,,,,,,,,,,
881941,001,2022-11-20_23h53.52.023,Info_measure_main_exp,2022.2.2,Win32,246.123554,,,,,,,,,,,,,,,,,,masks/mask_004.jpg,,,,,,,,,,,,,,,,,,,,,,,,,,,,,,,,,,,,,,,,,,,0,1,1,3,1,,,,,,,,,,,,,,,,,,,,,,,,,,,,,,,,,,,,,,,,,,,,,,
881941,001,2022-11-20_23h53.52.023,Info_measure_main_exp,2022.2.2,Win32,246.123554,,,,,,,,,,,,,,,,,,masks/mask_005.jpg,,,,,,,,,,,,,,,,,,,,,,,,,,,,,,,,,,,,,,,,,,,0,2,2,4,1,,,,,,,,,,,,,,,,,,,,,,,,,,,,,,,,,,,,,,,,,,,,,,
881941,001,2022-11-20_23h53.52.023,Info_measure_main_exp,2022.2.2,Win32,246.123554,,,,,,,,,,,,,,,,,,masks/mask_003.jpg,,,,,,,,,,,,,,,,,,,,,,,,,,,,,,,,,,,,,,,,,,,0,3,3,2,1,,,,,,,,,,,,,,,,,,,,,,,,,,,,,,,,,,,,,,,,,,,,,,
881941,001,2022-11-20_23h53.52.023,Info_measure_main_exp,2022.2.2,Win32,246.123554,,,,,,,,,,,,,,,,,,masks/mask_001.jpg,,,,,,,,,,,,,,,,,,,,,,,,,,,,,,,,,,,,,,,,,,,0,4,4,0,1,,,,,,,,,,,,,,,,,,,,,,,,,,,,,,,,,,,,,,,,,,,,,,
881941,001,2022-11-20_23h53.52.023,Info_measure_main_exp,2022.2.2,Win32,246.123554,,,,,,,,,,,,,,,,,,masks/mask_001.jpg,,,,,,,,,,,,,,,,,,,,,,,,,,,,,,,,,,,,,,,,,,,,,,,,0,0,0,0,1,,,,,,,,,,,,,,,,,,,,,,,,,,,,,,,,,,,,,,,,,
881941,001,2022-11-20_23h53.52.023,Info_measure_main_exp,2022.2.2,Win32,246.123554,,,,,,,,,,,,,,,,,,masks/mask_005.jpg,,,,,,,,,,,,,,,,,,,,,,,,,,,,,,,,,,,,,,,,,,,,,,,,0,1,1,4,1,,,,,,,,,,,,,,,,,,,,,,,,,,,,,,,,,,,,,,,,,
881941,001,2022-11-20_23h53.52.023,Info_measure_main_exp,2022.2.2,Win32,246.123554,,,,,,,,,,,,,,,,,,masks/mask_004.jpg,,,,,,,,,,,,,,,,,,,,,,,,,,,,,,,,,,,,,,,,,,,,,,,,0,2,2,3,1,,,,,,,,,,,,,,,,,,,,,,,,,,,,,,,,,,,,,,,,,
881941,001,2022-11-20_23h53.52.023,Info_measure_main_exp,2022.2.2,Win32,246.123554,,,,,,,,,,,,,,,,,,masks/mask_003.jpg,,,,,,,,,,,,,,,,,,,,,,,,,,,,,,,,,,,,,,,,,,,,,,,,0,3,3,2,1,,,,,,,,,,,,,,,,,,,,,,,,,,,,,,,,,,,,,,,,,
881941,001,2022-11-20_23h53.52.023,Info_measure_main_exp,2022.2.2,Win32,246.123554,,,,,,,,,,,,,,,,,,masks/mask_002.jpg,,,,,,,,,,,,,,,,,,,,,,,,,,,,,,,,,,,,,,,,,,,,,,,,0,4,4,1,1,,,,,,,,,,,,,,,,,,,,,,,,,,,,,,,,,,,,,,,,,
881941,001,2022-11-20_23h53.52.023,Info_measure_main_exp,2022.2.2,Win32,246.123554,,,,,,,,,,,,,,,,,,,,,,,,,,,,,,5,1.3624,1,,,,,,,,,,,,0,131,5,5,2250,2142,absent_patch/patch0002250.jpg,absent_patch/patch0002142.jpg,,,,,,,,,,,,,,,,,,,,0.121296282,-0.066666674,1,0,0,response3disk,10,0.006481524,-0.011111118,1,0,0,center_square,0,9,9,71,1,,,,,,,,,,,,,,,,,,,,,,,
881941,001,2022-11-20_23h53.52.023,Info_measure_main_exp,2022.2.2,Win32,246.123554,,,,,,,,,,,,,,,,,,masks/mask_001.jpg,,,,,,,,,,,,,,,,,,,,,,,,,,,,,,,,,,,,,,,,,,,0,0,0,0,1,,,,,,,,,,,,,,,,,,,,,,,,,,,,,,,,,,,,,,,,,,,,,,
881941,001,2022-11-20_23h53.52.023,Info_measure_main_exp,2022.2.2,Win32,246.123554,,,,,,,,,,,,,,,,,,masks/mask_002.jpg,,,,,,,,,,,,,,,,,,,,,,,,,,,,,,,,,,,,,,,,,,,0,1,1,1,1,,,,,,,,,,,,,,,,,,,,,,,,,,,,,,,,,,,,,,,,,,,,,,
881941,001,2022-11-20_23h53.52.023,Info_measure_main_exp,2022.2.2,Win32,246.123554,,,,,,,,,,,,,,,,,,masks/mask_003.jpg,,,,,,,,,,,,,,,,,,,,,,,,,,,,,,,,,,,,,,,,,,,0,2,2,2,1,,,,,,,,,,,,,,,,,,,,,,,,,,,,,,,,,,,,,,,,,,,,,,
881941,001,2022-11-20_23h53.52.023,Info_measure_main_exp,2022.2.2,Win32,246.123554,,,,,,,,,,,,,,,,,,masks/mask_004.jpg,,,,,,,,,,,,,,,,,,,,,,,,,,,,,,,,,,,,,,,,,,,0,3,3,3,1,,,,,,,,,,,,,,,,,,,,,,,,,,,,,,,,,,,,,,,,,,,,,,
881941,001,2022-11-20_23h53.52.023,Info_measure_main_exp,2022.2.2,Win32,246.123554,,,,,,,,,,,,,,,,,,masks/mask_005.jpg,,,,,,,,,,,,,,,,,,,,,,,,,,,,,,,,,,,,,,,,,,,0,4,4,4,1,,,,,,,,,,,,,,,,,,,,,,,,,,,,,,,,,,,,,,,,,,,,,,
881941,001,2022-11-20_23h53.52.023,Info_measure_main_exp,2022.2.2,Win32,246.123554,,,,,,,,,,,,,,,,,,masks/mask_004.jpg,,,,,,,,,,,,,,,,,,,,,,,,,,,,,,,,,,,,,,,,,,,,,,,,0,0,0,3,1,,,,,,,,,,,,,,,,,,,,,,,,,,,,,,,,,,,,,,,,,
881941,001,2022-11-20_23h53.52.023,Info_measure_main_exp,2022.2.2,Win32,246.123554,,,,,,,,,,,,,,,,,,masks/mask_005.jpg,,,,,,,,,,,,,,,,,,,,,,,,,,,,,,,,,,,,,,,,,,,,,,,,0,1,1,4,1,,,,,,,,,,,,,,,,,,,,,,,,,,,,,,,,,,,,,,,,,
881941,001,2022-11-20_23h53.52.023,Info_measure_main_exp,2022.2.2,Win32,246.123554,,,,,,,,,,,,,,,,,,masks/mask_003.jpg,,,,,,,,,,,,,,,,,,,,,,,,,,,,,,,,,,,,,,,,,,,,,,,,0,2,2,2,1,,,,,,,,,,,,,,,,,,,,,,,,,,,,,,,,,,,,,,,,,
881941,001,2022-11-20_23h53.52.023,Info_measure_main_exp,2022.2.2,Win32,246.123554,,,,,,,,,,,,,,,,,,masks/mask_001.jpg,,,,,,,,,,,,,,,,,,,,,,,,,,,,,,,,,,,,,,,,,,,,,,,,0,3,3,0,1,,,,,,,,,,,,,,,,,,,,,,,,,,,,,,,,,,,,,,,,,
881941,001,2022-11-20_23h53.52.023,Info_measure_main_exp,2022.2.2,Win32,246.123554,,,,,,,,,,,,,,,,,,masks/mask_002.jpg,,,,,,,,,,,,,,,,,,,,,,,,,,,,,,,,,,,,,,,,,,,,,,,,0,4,4,1,1,,,,,,,,,,,,,,,,,,,,,,,,,,,,,,,,,,,,,,,,,
881941,001,2022-11-20_23h53.52.023,Info_measure_main_exp,2022.2.2,Win32,246.123554,,,,,,,,,,,,,,,,,,,,,,,,,,,,,,5,0.6898,1,,,,,,,,,,,,1,131,5,5,2082,1,absent_patch/patch0002082.jpg,present_patch/cong_131_5_a.jpg,,,,,,,,,,,,,,,,,,,,0.055555556,-0.045370384,1,0,0,response3disk,11,-0.005555541,-0.003703718,1,0,0,center_square,0,10,10,65,1,,,,,,,,,,,,,,,,,,,,,,,
881941,001,2022-11-20_23h53.52.023,Info_measure_main_exp,2022.2.2,Win32,246.123554,,,,,,,,,,,,,,,,,,masks/mask_005.jpg,,,,,,,,,,,,,,,,,,,,,,,,,,,,,,,,,,,,,,,,,,,0,0,0,4,1,,,,,,,,,,,,,,,,,,,,,,,,,,,,,,,,,,,,,,,,,,,,,,
881941,001,2022-11-20_23h53.52.023,Info_measure_main_exp,2022.2.2,Win32,246.123554,,,,,,,,,,,,,,,,,,masks/mask_004.jpg,,,,,,,,,,,,,,,,,,,,,,,,,,,,,,,,,,,,,,,,,,,0,1,1,3,1,,,,,,,,,,,,,,,,,,,,,,,,,,,,,,,,,,,,,,,,,,,,,,
881941,001,2022-11-20_23h53.52.023,Info_measure_main_exp,2022.2.2,Win32,246.123554,,,,,,,,,,,,,,,,,,masks/mask_003.jpg,,,,,,,,,,,,,,,,,,,,,,,,,,,,,,,,,,,,,,,,,,,0,2,2,2,1,,,,,,,,,,,,,,,,,,,,,,,,,,,,,,,,,,,,,,,,,,,,,,
881941,001,2022-11-20_23h53.52.023,Info_measure_main_exp,2022.2.2,Win32,246.123554,,,,,,,,,,,,,,,,,,masks/mask_002.jpg,,,,,,,,,,,,,,,,,,,,,,,,,,,,,,,,,,,,,,,,,,,0,3,3,1,1,,,,,,,,,,,,,,,,,,,,,,,,,,,,,,,,,,,,,,,,,,,,,,
881941,001,2022-11-20_23h53.52.023,Info_measure_main_exp,2022.2.2,Win32,246.123554,,,,,,,,,,,,,,,,,,masks/mask_001.jpg,,,,,,,,,,,,,,,,,,,,,,,,,,,,,,,,,,,,,,,,,,,0,4,4,0,1,,,,,,,,,,,,,,,,,,,,,,,,,,,,,,,,,,,,,,,,,,,,,,
881941,001,2022-11-20_23h53.52.023,Info_measure_main_exp,2022.2.2,Win32,246.123554,,,,,,,,,,,,,,,,,,masks/mask_004.jpg,,,,,,,,,,,,,,,,,,,,,,,,,,,,,,,,,,,,,,,,,,,,,,,,0,0,0,3,1,,,,,,,,,,,,,,,,,,,,,,,,,,,,,,,,,,,,,,,,,
881941,001,2022-11-20_23h53.52.023,Info_measure_main_exp,2022.2.2,Win32,246.123554,,,,,,,,,,,,,,,,,,masks/mask_001.jpg,,,,,,,,,,,,,,,,,,,,,,,,,,,,,,,,,,,,,,,,,,,,,,,,0,1,1,0,1,,,,,,,,,,,,,,,,,,,,,,,,,,,,,,,,,,,,,,,,,
881941,001,2022-11-20_23h53.52.023,Info_measure_main_exp,2022.2.2,Win32,246.123554,,,,,,,,,,,,,,,,,,masks/mask_003.jpg,,,,,,,,,,,,,,,,,,,,,,,,,,,,,,,,,,,,,,,,,,,,,,,,0,2,2,2,1,,,,,,,,,,,,,,,,,,,,,,,,,,,,,,,,,,,,,,,,,
881941,001,2022-11-20_23h53.52.023,Info_measure_main_exp,2022.2.2,Win32,246.123554,,,,,,,,,,,,,,,,,,masks/mask_002.jpg,,,,,,,,,,,,,,,,,,,,,,,,,,,,,,,,,,,,,,,,,,,,,,,,0,3,3,1,1,,,,,,,,,,,,,,,,,,,,,,,,,,,,,,,,,,,,,,,,,
881941,001,2022-11-20_23h53.52.023,Info_measure_main_exp,2022.2.2,Win32,246.123554,,,,,,,,,,,,,,,,,,masks/mask_005.jpg,,,,,,,,,,,,,,,,,,,,,,,,,,,,,,,,,,,,,,,,,,,,,,,,0,4,4,4,1,,,,,,,,,,,,,,,,,,,,,,,,,,,,,,,,,,,,,,,,,
881941,001,2022-11-20_23h53.52.023,Info_measure_main_exp,2022.2.2,Win32,246.123554,,,,,,,,,,,,,,,,,,,,,,,,,,,,,,0,0.5656,1,,,,,,,,,,,,0,131,5,5,2154,2154,absent_patch/patch0002154.jpg,absent_patch/patch0002154.jpg,,,,,,,,,,,,,,,,,,,,-0.025925884,0.086111104,1,0,0,response7disk,12,-0.008333347,0.000925912,1,0,0,center_square,0,11,11,89,1,,,,,,,,,,,,,,,,,,,,,,,
881941,001,2022-11-20_23h53.52.023,Info_measure_main_exp,2022.2.2,Win32,246.123554,,,,,,,,,,,,,,,,,,masks/mask_001.jpg,,,,,,,,,,,,,,,,,,,,,,,,,,,,,,,,,,,,,,,,,,,0,0,0,0,1,,,,,,,,,,,,,,,,,,,,,,,,,,,,,,,,,,,,,,,,,,,,,,
881941,001,2022-11-20_23h53.52.023,Info_measure_main_exp,2022.2.2,Win32,246.123554,,,,,,,,,,,,,,,,,,masks/mask_002.jpg,,,,,,,,,,,,,,,,,,,,,,,,,,,,,,,,,,,,,,,,,,,0,1,1,1,1,,,,,,,,,,,,,,,,,,,,,,,,,,,,,,,,,,,,,,,,,,,,,,
881941,001,2022-11-20_23h53.52.023,Info_measure_main_exp,2022.2.2,Win32,246.123554,,,,,,,,,,,,,,,,,,masks/mask_004.jpg,,,,,,,,,,,,,,,,,,,,,,,,,,,,,,,,,,,,,,,,,,,0,2,2,3,1,,,,,,,,,,,,,,,,,,,,,,,,,,,,,,,,,,,,,,,,,,,,,,
881941,001,2022-11-20_23h53.52.023,Info_measure_main_exp,2022.2.2,Win32,246.123554,,,,,,,,,,,,,,,,,,masks/mask_005.jpg,,,,,,,,,,,,,,,,,,,,,,,,,,,,,,,,,,,,,,,,,,,0,3,3,4,1,,,,,,,,,,,,,,,,,,,,,,,,,,,,,,,,,,,,,,,,,,,,,,
881941,001,2022-11-20_23h53.52.023,Info_measure_main_exp,2022.2.2,Win32,246.123554,,,,,,,,,,,,,,,,,,masks/mask_003.jpg,,,,,,,,,,,,,,,,,,,,,,,,,,,,,,,,,,,,,,,,,,,0,4,4,2,1,,,,,,,,,,,,,,,,,,,,,,,,,,,,,,,,,,,,,,,,,,,,,,
881941,001,2022-11-20_23h53.52.023,Info_measure_main_exp,2022.2.2,Win32,246.123554,,,,,,,,,,,,,,,,,,masks/mask_002.jpg,,,,,,,,,,,,,,,,,,,,,,,,,,,,,,,,,,,,,,,,,,,,,,,,0,0,0,1,1,,,,,,,,,,,,,,,,,,,,,,,,,,,,,,,,,,,,,,,,,
881941,001,2022-11-20_23h53.52.023,Info_measure_main_exp,2022.2.2,Win32,246.123554,,,,,,,,,,,,,,,,,,masks/mask_003.jpg,,,,,,,,,,,,,,,,,,,,,,,,,,,,,,,,,,,,,,,,,,,,,,,,0,1,1,2,1,,,,,,,,,,,,,,,,,,,,,,,,,,,,,,,,,,,,,,,,,
881941,001,2022-11-20_23h53.52.023,Info_measure_main_exp,2022.2.2,Win32,246.123554,,,,,,,,,,,,,,,,,,masks/mask_001.jpg,,,,,,,,,,,,,,,,,,,,,,,,,,,,,,,,,,,,,,,,,,,,,,,,0,2,2,0,1,,,,,,,,,,,,,,,,,,,,,,,,,,,,,,,,,,,,,,,,,
881941,001,2022-11-20_23h53.52.023,Info_measure_main_exp,2022.2.2,Win32,246.123554,,,,,,,,,,,,,,,,,,masks/mask_005.jpg,,,,,,,,,,,,,,,,,,,,,,,,,,,,,,,,,,,,,,,,,,,,,,,,0,3,3,4,1,,,,,,,,,,,,,,,,,,,,,,,,,,,,,,,,,,,,,,,,,
881941,001,2022-11-20_23h53.52.023,Info_measure_main_exp,2022.2.2,Win32,246.123554,,,,,,,,,,,,,,,,,,masks/mask_004.jpg,,,,,,,,,,,,,,,,,,,,,,,,,,,,,,,,,,,,,,,,,,,,,,,,0,4,4,3,1,,,,,,,,,,,,,,,,,,,,,,,,,,,,,,,,,,,,,,,,,
881941,001,2022-11-20_23h53.52.023,Info_measure_main_exp,2022.2.2,Win32,246.123554,,,,,,,,,,,,,,,,,,,,,,,,,,,,,,2,0.7252,1,,,,,,,,,,,,0,131,5,5,2082,2250,absent_patch/patch0002082.jpg,absent_patch/patch0002250.jpg,,,,,,,,,,,,,,,,,,,,-0.063888903,-0.034259266,1,0,0,response5disk,13,-0.003703718,0.002777771,1,0,0,center_square,0,12,12,3,1,,,,,,,,,,,,,,,,,,,,,,,
881941,001,2022-11-20_23h53.52.023,Info_measure_main_exp,2022.2.2,Win32,246.123554,,,,,,,,,,,,,,,,,,masks/mask_004.jpg,,,,,,,,,,,,,,,,,,,,,,,,,,,,,,,,,,,,,,,,,,,0,0,0,3,1,,,,,,,,,,,,,,,,,,,,,,,,,,,,,,,,,,,,,,,,,,,,,,
881941,001,2022-11-20_23h53.52.023,Info_measure_main_exp,2022.2.2,Win32,246.123554,,,,,,,,,,,,,,,,,,masks/mask_003.jpg,,,,,,,,,,,,,,,,,,,,,,,,,,,,,,,,,,,,,,,,,,,0,1,1,2,1,,,,,,,,,,,,,,,,,,,,,,,,,,,,,,,,,,,,,,,,,,,,,,
881941,001,2022-11-20_23h53.52.023,Info_measure_main_exp,2022.2.2,Win32,246.123554,,,,,,,,,,,,,,,,,,masks/mask_002.jpg,,,,,,,,,,,,,,,,,,,,,,,,,,,,,,,,,,,,,,,,,,,0,2,2,1,1,,,,,,,,,,,,,,,,,,,,,,,,,,,,,,,,,,,,,,,,,,,,,,
881941,001,2022-11-20_23h53.52.023,Info_measure_main_exp,2022.2.2,Win32,246.123554,,,,,,,,,,,,,,,,,,masks/mask_001.jpg,,,,,,,,,,,,,,,,,,,,,,,,,,,,,,,,,,,,,,,,,,,0,3,3,0,1,,,,,,,,,,,,,,,,,,,,,,,,,,,,,,,,,,,,,,,,,,,,,,
881941,001,2022-11-20_23h53.52.023,Info_measure_main_exp,2022.2.2,Win32,246.123554,,,,,,,,,,,,,,,,,,masks/mask_005.jpg,,,,,,,,,,,,,,,,,,,,,,,,,,,,,,,,,,,,,,,,,,,0,4,4,4,1,,,,,,,,,,,,,,,,,,,,,,,,,,,,,,,,,,,,,,,,,,,,,,
881941,001,2022-11-20_23h53.52.023,Info_measure_main_exp,2022.2.2,Win32,246.123554,,,,,,,,,,,,,,,,,,masks/mask_003.jpg,,,,,,,,,,,,,,,,,,,,,,,,,,,,,,,,,,,,,,,,,,,,,,,,0,0,0,2,1,,,,,,,,,,,,,,,,,,,,,,,,,,,,,,,,,,,,,,,,,
881941,001,2022-11-20_23h53.52.023,Info_measure_main_exp,2022.2.2,Win32,246.123554,,,,,,,,,,,,,,,,,,masks/mask_001.jpg,,,,,,,,,,,,,,,,,,,,,,,,,,,,,,,,,,,,,,,,,,,,,,,,0,1,1,0,1,,,,,,,,,,,,,,,,,,,,,,,,,,,,,,,,,,,,,,,,,
881941,001,2022-11-20_23h53.52.023,Info_measure_main_exp,2022.2.2,Win32,246.123554,,,,,,,,,,,,,,,,,,masks/mask_004.jpg,,,,,,,,,,,,,,,,,,,,,,,,,,,,,,,,,,,,,,,,,,,,,,,,0,2,2,3,1,,,,,,,,,,,,,,,,,,,,,,,,,,,,,,,,,,,,,,,,,
881941,001,2022-11-20_23h53.52.023,Info_measure_main_exp,2022.2.2,Win32,246.123554,,,,,,,,,,,,,,,,,,masks/mask_002.jpg,,,,,,,,,,,,,,,,,,,,,,,,,,,,,,,,,,,,,,,,,,,,,,,,0,3,3,1,1,,,,,,,,,,,,,,,,,,,,,,,,,,,,,,,,,,,,,,,,,
881941,001,2022-11-20_23h53.52.023,Info_measure_main_exp,2022.2.2,Win32,246.123554,,,,,,,,,,,,,,,,,,masks/mask_005.jpg,,,,,,,,,,,,,,,,,,,,,,,,,,,,,,,,,,,,,,,,,,,,,,,,0,4,4,4,1,,,,,,,,,,,,,,,,,,,,,,,,,,,,,,,,,,,,,,,,,
881941,001,2022-11-20_23h53.52.023,Info_measure_main_exp,2022.2.2,Win32,246.123554,,,,,,,,,,,,,,,,,,,,,,,,,,,,,,4,0.5502,1,,,,,,,,,,,,0,131,5,5,2154,2250,absent_patch/patch0002154.jpg,absent_patch/patch0002250.jpg,,,,,,,,,,,,,,,,,,,,0.047222208,-0.143518519,1,0,0,response3disk,14,0.000925912,0.002777771,1,0,0,center_square,0,13,13,108,1,,,,,,,,,,,,,,,,,,,,,,,
881941,001,2022-11-20_23h53.52.023,Info_measure_main_exp,2022.2.2,Win32,246.123554,,,,,,,,,,,,,,,,,,masks/mask_003.jpg,,,,,,,,,,,,,,,,,,,,,,,,,,,,,,,,,,,,,,,,,,,0,0,0,2,1,,,,,,,,,,,,,,,,,,,,,,,,,,,,,,,,,,,,,,,,,,,,,,
881941,001,2022-11-20_23h53.52.023,Info_measure_main_exp,2022.2.2,Win32,246.123554,,,,,,,,,,,,,,,,,,masks/mask_004.jpg,,,,,,,,,,,,,,,,,,,,,,,,,,,,,,,,,,,,,,,,,,,0,1,1,3,1,,,,,,,,,,,,,,,,,,,,,,,,,,,,,,,,,,,,,,,,,,,,,,
881941,001,2022-11-20_23h53.52.023,Info_measure_main_exp,2022.2.2,Win32,246.123554,,,,,,,,,,,,,,,,,,masks/mask_001.jpg,,,,,,,,,,,,,,,,,,,,,,,,,,,,,,,,,,,,,,,,,,,0,2,2,0,1,,,,,,,,,,,,,,,,,,,,,,,,,,,,,,,,,,,,,,,,,,,,,,
881941,001,2022-11-20_23h53.52.023,Info_measure_main_exp,2022.2.2,Win32,246.123554,,,,,,,,,,,,,,,,,,masks/mask_002.jpg,,,,,,,,,,,,,,,,,,,,,,,,,,,,,,,,,,,,,,,,,,,0,3,3,1,1,,,,,,,,,,,,,,,,,,,,,,,,,,,,,,,,,,,,,,,,,,,,,,
881941,001,2022-11-20_23h53.52.023,Info_measure_main_exp,2022.2.2,Win32,246.123554,,,,,,,,,,,,,,,,,,masks/mask_005.jpg,,,,,,,,,,,,,,,,,,,,,,,,,,,,,,,,,,,,,,,,,,,0,4,4,4,1,,,,,,,,,,,,,,,,,,,,,,,,,,,,,,,,,,,,,,,,,,,,,,
881941,001,2022-11-20_23h53.52.023,Info_measure_main_exp,2022.2.2,Win32,246.123554,,,,,,,,,,,,,,,,,,masks/mask_005.jpg,,,,,,,,,,,,,,,,,,,,,,,,,,,,,,,,,,,,,,,,,,,,,,,,0,0,0,4,1,,,,,,,,,,,,,,,,,,,,,,,,,,,,,,,,,,,,,,,,,
881941,001,2022-11-20_23h53.52.023,Info_measure_main_exp,2022.2.2,Win32,246.123554,,,,,,,,,,,,,,,,,,masks/mask_002.jpg,,,,,,,,,,,,,,,,,,,,,,,,,,,,,,,,,,,,,,,,,,,,,,,,0,1,1,1,1,,,,,,,,,,,,,,,,,,,,,,,,,,,,,,,,,,,,,,,,,
881941,001,2022-11-20_23h53.52.023,Info_measure_main_exp,2022.2.2,Win32,246.123554,,,,,,,,,,,,,,,,,,masks/mask_003.jpg,,,,,,,,,,,,,,,,,,,,,,,,,,,,,,,,,,,,,,,,,,,,,,,,0,2,2,2,1,,,,,,,,,,,,,,,,,,,,,,,,,,,,,,,,,,,,,,,,,
881941,001,2022-11-20_23h53.52.023,Info_measure_main_exp,2022.2.2,Win32,246.123554,,,,,,,,,,,,,,,,,,masks/mask_001.jpg,,,,,,,,,,,,,,,,,,,,,,,,,,,,,,,,,,,,,,,,,,,,,,,,0,3,3,0,1,,,,,,,,,,,,,,,,,,,,,,,,,,,,,,,,,,,,,,,,,
881941,001,2022-11-20_23h53.52.023,Info_measure_main_exp,2022.2.2,Win32,246.123554,,,,,,,,,,,,,,,,,,masks/mask_004.jpg,,,,,,,,,,,,,,,,,,,,,,,,,,,,,,,,,,,,,,,,,,,,,,,,0,4,4,3,1,,,,,,,,,,,,,,,,,,,,,,,,,,,,,,,,,,,,,,,,,
881941,001,2022-11-20_23h53.52.023,Info_measure_main_exp,2022.2.2,Win32,246.123554,,,,,,,,,,,,,,,,,,,,,,,,,,,,,,5,1.8085,1,,,,,,,,,,,,0,131,5,5,2142,2166,absent_patch/patch0002142.jpg,absent_patch/patch0002166.jpg,,,,,,,,,,,,,,,,,,,,0.123148176,-0.056481503,1,0,0,response3disk,15,-0.009259259,-0.006481489,1,0,0,center_square,0,14,14,66,1,,,,,,,,,,,,,,,,,,,,,,,
881941,001,2022-11-20_23h53.52.023,Info_measure_main_exp,2022.2.2,Win32,246.123554,,,,,,,,,,,,,,,,,,masks/mask_004.jpg,,,,,,,,,,,,,,,,,,,,,,,,,,,,,,,,,,,,,,,,,,,0,0,0,3,1,,,,,,,,,,,,,,,,,,,,,,,,,,,,,,,,,,,,,,,,,,,,,,
881941,001,2022-11-20_23h53.52.023,Info_measure_main_exp,2022.2.2,Win32,246.123554,,,,,,,,,,,,,,,,,,masks/mask_005.jpg,,,,,,,,,,,,,,,,,,,,,,,,,,,,,,,,,,,,,,,,,,,0,1,1,4,1,,,,,,,,,,,,,,,,,,,,,,,,,,,,,,,,,,,,,,,,,,,,,,
881941,001,2022-11-20_23h53.52.023,Info_measure_main_exp,2022.2.2,Win32,246.123554,,,,,,,,,,,,,,,,,,masks/mask_001.jpg,,,,,,,,,,,,,,,,,,,,,,,,,,,,,,,,,,,,,,,,,,,0,2,2,0,1,,,,,,,,,,,,,,,,,,,,,,,,,,,,,,,,,,,,,,,,,,,,,,
881941,001,2022-11-20_23h53.52.023,Info_measure_main_exp,2022.2.2,Win32,246.123554,,,,,,,,,,,,,,,,,,masks/mask_002.jpg,,,,,,,,,,,,,,,,,,,,,,,,,,,,,,,,,,,,,,,,,,,0,3,3,1,1,,,,,,,,,,,,,,,,,,,,,,,,,,,,,,,,,,,,,,,,,,,,,,
881941,001,2022-11-20_23h53.52.023,Info_measure_main_exp,2022.2.2,Win32,246.123554,,,,,,,,,,,,,,,,,,masks/mask_003.jpg,,,,,,,,,,,,,,,,,,,,,,,,,,,,,,,,,,,,,,,,,,,0,4,4,2,1,,,,,,,,,,,,,,,,,,,,,,,,,,,,,,,,,,,,,,,,,,,,,,
881941,001,2022-11-20_23h53.52.023,Info_measure_main_exp,2022.2.2,Win32,246.123554,,,,,,,,,,,,,,,,,,masks/mask_002.jpg,,,,,,,,,,,,,,,,,,,,,,,,,,,,,,,,,,,,,,,,,,,,,,,,0,0,0,1,1,,,,,,,,,,,,,,,,,,,,,,,,,,,,,,,,,,,,,,,,,
881941,001,2022-11-20_23h53.52.023,Info_measure_main_exp,2022.2.2,Win32,246.123554,,,,,,,,,,,,,,,,,,masks/mask_005.jpg,,,,,,,,,,,,,,,,,,,,,,,,,,,,,,,,,,,,,,,,,,,,,,,,0,1,1,4,1,,,,,,,,,,,,,,,,,,,,,,,,,,,,,,,,,,,,,,,,,
881941,001,2022-11-20_23h53.52.023,Info_measure_main_exp,2022.2.2,Win32,246.123554,,,,,,,,,,,,,,,,,,masks/mask_003.jpg,,,,,,,,,,,,,,,,,,,,,,,,,,,,,,,,,,,,,,,,,,,,,,,,0,2,2,2,1,,,,,,,,,,,,,,,,,,,,,,,,,,,,,,,,,,,,,,,,,
881941,001,2022-11-20_23h53.52.023,Info_measure_main_exp,2022.2.2,Win32,246.123554,,,,,,,,,,,,,,,,,,masks/mask_001.jpg,,,,,,,,,,,,,,,,,,,,,,,,,,,,,,,,,,,,,,,,,,,,,,,,0,3,3,0,1,,,,,,,,,,,,,,,,,,,,,,,,,,,,,,,,,,,,,,,,,
881941,001,2022-11-20_23h53.52.023,Info_measure_main_exp,2022.2.2,Win32,246.123554,,,,,,,,,,,,,,,,,,masks/mask_004.jpg,,,,,,,,,,,,,,,,,,,,,,,,,,,,,,,,,,,,,,,,,,,,,,,,0,4,4,3,1,,,,,,,,,,,,,,,,,,,,,,,,,,,,,,,,,,,,,,,,,
881941,001,2022-11-20_23h53.52.023,Info_measure_main_exp,2022.2.2,Win32,246.123554,,,,,,,,,,,,,,,,,,,,,,,,,,,,,,5,0.5732,1,,,,,,,,,,,,0,131,5,5,2250,2238,absent_patch/patch0002250.jpg,absent_patch/patch0002238.jpg,,,,,,,,,,,,,,,,,,,,0.166666667,-0.048148155,1,0,0,response3disk,16,0.002777806,-0.0074074,1,0,0,center_square,0,15,15,110,1,,,,,,,,,,,,,,,,,,,,,,,
881941,001,2022-11-20_23h53.52.023,Info_measure_main_exp,2022.2.2,Win32,246.123554,,,,,,,,,,,,,,,,,,masks/mask_005.jpg,,,,,,,,,,,,,,,,,,,,,,,,,,,,,,,,,,,,,,,,,,,0,0,0,4,1,,,,,,,,,,,,,,,,,,,,,,,,,,,,,,,,,,,,,,,,,,,,,,
881941,001,2022-11-20_23h53.52.023,Info_measure_main_exp,2022.2.2,Win32,246.123554,,,,,,,,,,,,,,,,,,masks/mask_002.jpg,,,,,,,,,,,,,,,,,,,,,,,,,,,,,,,,,,,,,,,,,,,0,1,1,1,1,,,,,,,,,,,,,,,,,,,,,,,,,,,,,,,,,,,,,,,,,,,,,,
881941,001,2022-11-20_23h53.52.023,Info_measure_main_exp,2022.2.2,Win32,246.123554,,,,,,,,,,,,,,,,,,masks/mask_001.jpg,,,,,,,,,,,,,,,,,,,,,,,,,,,,,,,,,,,,,,,,,,,0,2,2,0,1,,,,,,,,,,,,,,,,,,,,,,,,,,,,,,,,,,,,,,,,,,,,,,
881941,001,2022-11-20_23h53.52.023,Info_measure_main_exp,2022.2.2,Win32,246.123554,,,,,,,,,,,,,,,,,,masks/mask_004.jpg,,,,,,,,,,,,,,,,,,,,,,,,,,,,,,,,,,,,,,,,,,,0,3,3,3,1,,,,,,,,,,,,,,,,,,,,,,,,,,,,,,,,,,,,,,,,,,,,,,
881941,001,2022-11-20_23h53.52.023,Info_measure_main_exp,2022.2.2,Win32,246.123554,,,,,,,,,,,,,,,,,,masks/mask_003.jpg,,,,,,,,,,,,,,,,,,,,,,,,,,,,,,,,,,,,,,,,,,,0,4,4,2,1,,,,,,,,,,,,,,,,,,,,,,,,,,,,,,,,,,,,,,,,,,,,,,
881941,001,2022-11-20_23h53.52.023,Info_measure_main_exp,2022.2.2,Win32,246.123554,,,,,,,,,,,,,,,,,,masks/mask_003.jpg,,,,,,,,,,,,,,,,,,,,,,,,,,,,,,,,,,,,,,,,,,,,,,,,0,0,0,2,1,,,,,,,,,,,,,,,,,,,,,,,,,,,,,,,,,,,,,,,,,
881941,001,2022-11-20_23h53.52.023,Info_measure_main_exp,2022.2.2,Win32,246.123554,,,,,,,,,,,,,,,,,,masks/mask_004.jpg,,,,,,,,,,,,,,,,,,,,,,,,,,,,,,,,,,,,,,,,,,,,,,,,0,1,1,3,1,,,,,,,,,,,,,,,,,,,,,,,,,,,,,,,,,,,,,,,,,
881941,001,2022-11-20_23h53.52.023,Info_measure_main_exp,2022.2.2,Win32,246.123554,,,,,,,,,,,,,,,,,,masks/mask_005.jpg,,,,,,,,,,,,,,,,,,,,,,,,,,,,,,,,,,,,,,,,,,,,,,,,0,2,2,4,1,,,,,,,,,,,,,,,,,,,,,,,,,,,,,,,,,,,,,,,,,
881941,001,2022-11-20_23h53.52.023,Info_measure_main_exp,2022.2.2,Win32,246.123554,,,,,,,,,,,,,,,,,,masks/mask_001.jpg,,,,,,,,,,,,,,,,,,,,,,,,,,,,,,,,,,,,,,,,,,,,,,,,0,3,3,0,1,,,,,,,,,,,,,,,,,,,,,,,,,,,,,,,,,,,,,,,,,
881941,001,2022-11-20_23h53.52.023,Info_measure_main_exp,2022.2.2,Win32,246.123554,,,,,,,,,,,,,,,,,,masks/mask_002.jpg,,,,,,,,,,,,,,,,,,,,,,,,,,,,,,,,,,,,,,,,,,,,,,,,0,4,4,1,1,,,,,,,,,,,,,,,,,,,,,,,,,,,,,,,,,,,,,,,,,
881941,001,2022-11-20_23h53.52.023,Info_measure_main_exp,2022.2.2,Win32,246.123554,,,,,,,,,,,,,,,,,,,,,,,,,,,,,,3,0.5257,1,,,,,,,,,,,,0,131,5,5,2190,2178,absent_patch/patch0002190.jpg,absent_patch/patch0002178.jpg,,,,,,,,,,,,,,,,,,,,-0.029629601,-0.123148176,1,0,0,response5disk,17,0.002777806,-0.006481489,1,0,0,center_square,0,16,16,14,1,,,,,,,,,,,,,,,,,,,,,,,
881941,001,2022-11-20_23h53.52.023,Info_measure_main_exp,2022.2.2,Win32,246.123554,,,,,,,,,,,,,,,,,,masks/mask_005.jpg,,,,,,,,,,,,,,,,,,,,,,,,,,,,,,,,,,,,,,,,,,,0,0,0,4,1,,,,,,,,,,,,,,,,,,,,,,,,,,,,,,,,,,,,,,,,,,,,,,
881941,001,2022-11-20_23h53.52.023,Info_measure_main_exp,2022.2.2,Win32,246.123554,,,,,,,,,,,,,,,,,,masks/mask_001.jpg,,,,,,,,,,,,,,,,,,,,,,,,,,,,,,,,,,,,,,,,,,,0,1,1,0,1,,,,,,,,,,,,,,,,,,,,,,,,,,,,,,,,,,,,,,,,,,,,,,
881941,001,2022-11-20_23h53.52.023,Info_measure_main_exp,2022.2.2,Win32,246.123554,,,,,,,,,,,,,,,,,,masks/mask_004.jpg,,,,,,,,,,,,,,,,,,,,,,,,,,,,,,,,,,,,,,,,,,,0,2,2,3,1,,,,,,,,,,,,,,,,,,,,,,,,,,,,,,,,,,,,,,,,,,,,,,
881941,001,2022-11-20_23h53.52.023,Info_measure_main_exp,2022.2.2,Win32,246.123554,,,,,,,,,,,,,,,,,,masks/mask_002.jpg,,,,,,,,,,,,,,,,,,,,,,,,,,,,,,,,,,,,,,,,,,,0,3,3,1,1,,,,,,,,,,,,,,,,,,,,,,,,,,,,,,,,,,,,,,,,,,,,,,
881941,001,2022-11-20_23h53.52.023,Info_measure_main_exp,2022.2.2,Win32,246.123554,,,,,,,,,,,,,,,,,,masks/mask_003.jpg,,,,,,,,,,,,,,,,,,,,,,,,,,,,,,,,,,,,,,,,,,,0,4,4,2,1,,,,,,,,,,,,,,,,,,,,,,,,,,,,,,,,,,,,,,,,,,,,,,
881941,001,2022-11-20_23h53.52.023,Info_measure_main_exp,2022.2.2,Win32,246.123554,,,,,,,,,,,,,,,,,,masks/mask_001.jpg,,,,,,,,,,,,,,,,,,,,,,,,,,,,,,,,,,,,,,,,,,,,,,,,0,0,0,0,1,,,,,,,,,,,,,,,,,,,,,,,,,,,,,,,,,,,,,,,,,
881941,001,2022-11-20_23h53.52.023,Info_measure_main_exp,2022.2.2,Win32,246.123554,,,,,,,,,,,,,,,,,,masks/mask_005.jpg,,,,,,,,,,,,,,,,,,,,,,,,,,,,,,,,,,,,,,,,,,,,,,,,0,1,1,4,1,,,,,,,,,,,,,,,,,,,,,,,,,,,,,,,,,,,,,,,,,
881941,001,2022-11-20_23h53.52.023,Info_measure_main_exp,2022.2.2,Win32,246.123554,,,,,,,,,,,,,,,,,,masks/mask_002.jpg,,,,,,,,,,,,,,,,,,,,,,,,,,,,,,,,,,,,,,,,,,,,,,,,0,2,2,1,1,,,,,,,,,,,,,,,,,,,,,,,,,,,,,,,,,,,,,,,,,
881941,001,2022-11-20_23h53.52.023,Info_measure_main_exp,2022.2.2,Win32,246.123554,,,,,,,,,,,,,,,,,,masks/mask_004.jpg,,,,,,,,,,,,,,,,,,,,,,,,,,,,,,,,,,,,,,,,,,,,,,,,0,3,3,3,1,,,,,,,,,,,,,,,,,,,,,,,,,,,,,,,,,,,,,,,,,
881941,001,2022-11-20_23h53.52.023,Info_measure_main_exp,2022.2.2,Win32,246.123554,,,,,,,,,,,,,,,,,,masks/mask_003.jpg,,,,,,,,,,,,,,,,,,,,,,,,,,,,,,,,,,,,,,,,,,,,,,,,0,4,4,2,1,,,,,,,,,,,,,,,,,,,,,,,,,,,,,,,,,,,,,,,,,
881941,001,2022-11-20_23h53.52.023,Info_measure_main_exp,2022.2.2,Win32,246.123554,,,,,,,,,,,,,,,,,,,,,,,,,,,,,,5,1.3553,1,,,,,,,,,,,,0,131,5,5,2238,2298,absent_patch/patch0002238.jpg,absent_patch/patch0002298.jpg,,,,,,,,,,,,,,,,,,,,0.092592593,-0.031481496,1,0,0,response3disk,18,-0.008333347,-0.010185206,1,0,0,center_square,0,17,17,51,1,,,,,,,,,,,,,,,,,,,,,,,
881941,001,2022-11-20_23h53.52.023,Info_measure_main_exp,2022.2.2,Win32,246.123554,,,,,,,,,,,,,,,,,,masks/mask_005.jpg,,,,,,,,,,,,,,,,,,,,,,,,,,,,,,,,,,,,,,,,,,,0,0,0,4,1,,,,,,,,,,,,,,,,,,,,,,,,,,,,,,,,,,,,,,,,,,,,,,
881941,001,2022-11-20_23h53.52.023,Info_measure_main_exp,2022.2.2,Win32,246.123554,,,,,,,,,,,,,,,,,,masks/mask_001.jpg,,,,,,,,,,,,,,,,,,,,,,,,,,,,,,,,,,,,,,,,,,,0,1,1,0,1,,,,,,,,,,,,,,,,,,,,,,,,,,,,,,,,,,,,,,,,,,,,,,
881941,001,2022-11-20_23h53.52.023,Info_measure_main_exp,2022.2.2,Win32,246.123554,,,,,,,,,,,,,,,,,,masks/mask_002.jpg,,,,,,,,,,,,,,,,,,,,,,,,,,,,,,,,,,,,,,,,,,,0,2,2,1,1,,,,,,,,,,,,,,,,,,,,,,,,,,,,,,,,,,,,,,,,,,,,,,
881941,001,2022-11-20_23h53.52.023,Info_measure_main_exp,2022.2.2,Win32,246.123554,,,,,,,,,,,,,,,,,,masks/mask_003.jpg,,,,,,,,,,,,,,,,,,,,,,,,,,,,,,,,,,,,,,,,,,,0,3,3,2,1,,,,,,,,,,,,,,,,,,,,,,,,,,,,,,,,,,,,,,,,,,,,,,
881941,001,2022-11-20_23h53.52.023,Info_measure_main_exp,2022.2.2,Win32,246.123554,,,,,,,,,,,,,,,,,,masks/mask_004.jpg,,,,,,,,,,,,,,,,,,,,,,,,,,,,,,,,,,,,,,,,,,,0,4,4,3,1,,,,,,,,,,,,,,,,,,,,,,,,,,,,,,,,,,,,,,,,,,,,,,
881941,001,2022-11-20_23h53.52.023,Info_measure_main_exp,2022.2.2,Win32,246.123554,,,,,,,,,,,,,,,,,,masks/mask_002.jpg,,,,,,,,,,,,,,,,,,,,,,,,,,,,,,,,,,,,,,,,,,,,,,,,0,0,0,1,1,,,,,,,,,,,,,,,,,,,,,,,,,,,,,,,,,,,,,,,,,
881941,001,2022-11-20_23h53.52.023,Info_measure_main_exp,2022.2.2,Win32,246.123554,,,,,,,,,,,,,,,,,,masks/mask_005.jpg,,,,,,,,,,,,,,,,,,,,,,,,,,,,,,,,,,,,,,,,,,,,,,,,0,1,1,4,1,,,,,,,,,,,,,,,,,,,,,,,,,,,,,,,,,,,,,,,,,
881941,001,2022-11-20_23h53.52.023,Info_measure_main_exp,2022.2.2,Win32,246.123554,,,,,,,,,,,,,,,,,,masks/mask_004.jpg,,,,,,,,,,,,,,,,,,,,,,,,,,,,,,,,,,,,,,,,,,,,,,,,0,2,2,3,1,,,,,,,,,,,,,,,,,,,,,,,,,,,,,,,,,,,,,,,,,
881941,001,2022-11-20_23h53.52.023,Info_measure_main_exp,2022.2.2,Win32,246.123554,,,,,,,,,,,,,,,,,,masks/mask_003.jpg,,,,,,,,,,,,,,,,,,,,,,,,,,,,,,,,,,,,,,,,,,,,,,,,0,3,3,2,1,,,,,,,,,,,,,,,,,,,,,,,,,,,,,,,,,,,,,,,,,
881941,001,2022-11-20_23h53.52.023,Info_measure_main_exp,2022.2.2,Win32,246.123554,,,,,,,,,,,,,,,,,,masks/mask_001.jpg,,,,,,,,,,,,,,,,,,,,,,,,,,,,,,,,,,,,,,,,,,,,,,,,0,4,4,0,1,,,,,,,,,,,,,,,,,,,,,,,,,,,,,,,,,,,,,,,,,
881941,001,2022-11-20_23h53.52.023,Info_measure_main_exp,2022.2.2,Win32,246.123554,,,,,,,,,,,,,,,,,,,,,,,,,,,,,,4,0.5645,1,,,,,,,,,,,,0,131,5,5,2274,2178,absent_patch/patch0002274.jpg,absent_patch/patch0002178.jpg,,,,,,,,,,,,,,,,,,,,0.062037079,-0.143518519,1,0,0,response3disk,19,-0.005555541,0.000925912,1,0,0,center_square,0,18,18,117,1,,,,,,,,,,,,,,,,,,,,,,,
881941,001,2022-11-20_23h53.52.023,Info_measure_main_exp,2022.2.2,Win32,246.123554,,,,,,,,,,,,,,,,,,masks/mask_003.jpg,,,,,,,,,,,,,,,,,,,,,,,,,,,,,,,,,,,,,,,,,,,0,0,0,2,1,,,,,,,,,,,,,,,,,,,,,,,,,,,,,,,,,,,,,,,,,,,,,,
881941,001,2022-11-20_23h53.52.023,Info_measure_main_exp,2022.2.2,Win32,246.123554,,,,,,,,,,,,,,,,,,masks/mask_001.jpg,,,,,,,,,,,,,,,,,,,,,,,,,,,,,,,,,,,,,,,,,,,0,1,1,0,1,,,,,,,,,,,,,,,,,,,,,,,,,,,,,,,,,,,,,,,,,,,,,,
881941,001,2022-11-20_23h53.52.023,Info_measure_main_exp,2022.2.2,Win32,246.123554,,,,,,,,,,,,,,,,,,masks/mask_004.jpg,,,,,,,,,,,,,,,,,,,,,,,,,,,,,,,,,,,,,,,,,,,0,2,2,3,1,,,,,,,,,,,,,,,,,,,,,,,,,,,,,,,,,,,,,,,,,,,,,,
881941,001,2022-11-20_23h53.52.023,Info_measure_main_exp,2022.2.2,Win32,246.123554,,,,,,,,,,,,,,,,,,masks/mask_002.jpg,,,,,,,,,,,,,,,,,,,,,,,,,,,,,,,,,,,,,,,,,,,0,3,3,1,1,,,,,,,,,,,,,,,,,,,,,,,,,,,,,,,,,,,,,,,,,,,,,,
881941,001,2022-11-20_23h53.52.023,Info_measure_main_exp,2022.2.2,Win32,246.123554,,,,,,,,,,,,,,,,,,masks/mask_005.jpg,,,,,,,,,,,,,,,,,,,,,,,,,,,,,,,,,,,,,,,,,,,0,4,4,4,1,,,,,,,,,,,,,,,,,,,,,,,,,,,,,,,,,,,,,,,,,,,,,,
881941,001,2022-11-20_23h53.52.023,Info_measure_main_exp,2022.2.2,Win32,246.123554,,,,,,,,,,,,,,,,,,masks/mask_002.jpg,,,,,,,,,,,,,,,,,,,,,,,,,,,,,,,,,,,,,,,,,,,,,,,,0,0,0,1,1,,,,,,,,,,,,,,,,,,,,,,,,,,,,,,,,,,,,,,,,,
881941,001,2022-11-20_23h53.52.023,Info_measure_main_exp,2022.2.2,Win32,246.123554,,,,,,,,,,,,,,,,,,masks/mask_001.jpg,,,,,,,,,,,,,,,,,,,,,,,,,,,,,,,,,,,,,,,,,,,,,,,,0,1,1,0,1,,,,,,,,,,,,,,,,,,,,,,,,,,,,,,,,,,,,,,,,,
881941,001,2022-11-20_23h53.52.023,Info_measure_main_exp,2022.2.2,Win32,246.123554,,,,,,,,,,,,,,,,,,masks/mask_004.jpg,,,,,,,,,,,,,,,,,,,,,,,,,,,,,,,,,,,,,,,,,,,,,,,,0,2,2,3,1,,,,,,,,,,,,,,,,,,,,,,,,,,,,,,,,,,,,,,,,,
881941,001,2022-11-20_23h53.52.023,Info_measure_main_exp,2022.2.2,Win32,246.123554,,,,,,,,,,,,,,,,,,masks/mask_003.jpg,,,,,,,,,,,,,,,,,,,,,,,,,,,,,,,,,,,,,,,,,,,,,,,,0,3,3,2,1,,,,,,,,,,,,,,,,,,,,,,,,,,,,,,,,,,,,,,,,,
881941,001,2022-11-20_23h53.52.023,Info_measure_main_exp,2022.2.2,Win32,246.123554,,,,,,,,,,,,,,,,,,masks/mask_005.jpg,,,,,,,,,,,,,,,,,,,,,,,,,,,,,,,,,,,,,,,,,,,,,,,,0,4,4,4,1,,,,,,,,,,,,,,,,,,,,,,,,,,,,,,,,,,,,,,,,,
881941,001,2022-11-20_23h53.52.023,Info_measure_main_exp,2022.2.2,Win32,246.123554,,,,,,,,,,,,,,,,,,,,,,,,,,,,,,7,0.6529,1,,,,,,,,,,,,0,131,5,5,2274,2142,absent_patch/patch0002274.jpg,absent_patch/patch0002142.jpg,,,,,,,,,,,,,,,,,,,,0.030555584,0.135185171,1,0,0,response1disk,20,0,0.005555541,1,0,0,center_square,0,19,19,75,1,,,,,,,,,,,,,,,,,,,,,,,
881941,001,2022-11-20_23h53.52.023,Info_measure_main_exp,2022.2.2,Win32,246.123554,,,,,,,,,,,,,,,,,,masks/mask_003.jpg,,,,,,,,,,,,,,,,,,,,,,,,,,,,,,,,,,,,,,,,,,,0,0,0,2,1,,,,,,,,,,,,,,,,,,,,,,,,,,,,,,,,,,,,,,,,,,,,,,
881941,001,2022-11-20_23h53.52.023,Info_measure_main_exp,2022.2.2,Win32,246.123554,,,,,,,,,,,,,,,,,,masks/mask_005.jpg,,,,,,,,,,,,,,,,,,,,,,,,,,,,,,,,,,,,,,,,,,,0,1,1,4,1,,,,,,,,,,,,,,,,,,,,,,,,,,,,,,,,,,,,,,,,,,,,,,
881941,001,2022-11-20_23h53.52.023,Info_measure_main_exp,2022.2.2,Win32,246.123554,,,,,,,,,,,,,,,,,,masks/mask_002.jpg,,,,,,,,,,,,,,,,,,,,,,,,,,,,,,,,,,,,,,,,,,,0,2,2,1,1,,,,,,,,,,,,,,,,,,,,,,,,,,,,,,,,,,,,,,,,,,,,,,
881941,001,2022-11-20_23h53.52.023,Info_measure_main_exp,2022.2.2,Win32,246.123554,,,,,,,,,,,,,,,,,,masks/mask_001.jpg,,,,,,,,,,,,,,,,,,,,,,,,,,,,,,,,,,,,,,,,,,,0,3,3,0,1,,,,,,,,,,,,,,,,,,,,,,,,,,,,,,,,,,,,,,,,,,,,,,
881941,001,2022-11-20_23h53.52.023,Info_measure_main_exp,2022.2.2,Win32,246.123554,,,,,,,,,,,,,,,,,,masks/mask_004.jpg,,,,,,,,,,,,,,,,,,,,,,,,,,,,,,,,,,,,,,,,,,,0,4,4,3,1,,,,,,,,,,,,,,,,,,,,,,,,,,,,,,,,,,,,,,,,,,,,,,
881941,001,2022-11-20_23h53.52.023,Info_measure_main_exp,2022.2.2,Win32,246.123554,,,,,,,,,,,,,,,,,,masks/mask_002.jpg,,,,,,,,,,,,,,,,,,,,,,,,,,,,,,,,,,,,,,,,,,,,,,,,0,0,0,1,1,,,,,,,,,,,,,,,,,,,,,,,,,,,,,,,,,,,,,,,,,
881941,001,2022-11-20_23h53.52.023,Info_measure_main_exp,2022.2.2,Win32,246.123554,,,,,,,,,,,,,,,,,,masks/mask_001.jpg,,,,,,,,,,,,,,,,,,,,,,,,,,,,,,,,,,,,,,,,,,,,,,,,0,1,1,0,1,,,,,,,,,,,,,,,,,,,,,,,,,,,,,,,,,,,,,,,,,
881941,001,2022-11-20_23h53.52.023,Info_measure_main_exp,2022.2.2,Win32,246.123554,,,,,,,,,,,,,,,,,,masks/mask_003.jpg,,,,,,,,,,,,,,,,,,,,,,,,,,,,,,,,,,,,,,,,,,,,,,,,0,2,2,2,1,,,,,,,,,,,,,,,,,,,,,,,,,,,,,,,,,,,,,,,,,
881941,001,2022-11-20_23h53.52.023,Info_measure_main_exp,2022.2.2,Win32,246.123554,,,,,,,,,,,,,,,,,,masks/mask_004.jpg,,,,,,,,,,,,,,,,,,,,,,,,,,,,,,,,,,,,,,,,,,,,,,,,0,3,3,3,1,,,,,,,,,,,,,,,,,,,,,,,,,,,,,,,,,,,,,,,,,
881941,001,2022-11-20_23h53.52.023,Info_measure_main_exp,2022.2.2,Win32,246.123554,,,,,,,,,,,,,,,,,,masks/mask_005.jpg,,,,,,,,,,,,,,,,,,,,,,,,,,,,,,,,,,,,,,,,,,,,,,,,0,4,4,4,1,,,,,,,,,,,,,,,,,,,,,,,,,,,,,,,,,,,,,,,,,
881941,001,2022-11-20_23h53.52.023,Info_measure_main_exp,2022.2.2,Win32,246.123554,,,,,,,,,,,,,,,,,,,,,,,,,,,,,,6,0.4708,1,,,,,,,,,,,,0,131,5,5,2154,2214,absent_patch/patch0002154.jpg,absent_patch/patch0002214.jpg,,,,,,,,,,,,,,,,,,,,0.102777764,0.061111097,1,0,0,response1disk,21,-0.008333347,-0.002777771,1,0,0,center_square,0,20,20,67,1,,,,,,,,,,,,,,,,,,,,,,,
881941,001,2022-11-20_23h53.52.023,Info_measure_main_exp,2022.2.2,Win32,246.123554,,,,,,,,,,,,,,,,,,masks/mask_004.jpg,,,,,,,,,,,,,,,,,,,,,,,,,,,,,,,,,,,,,,,,,,,0,0,0,3,1,,,,,,,,,,,,,,,,,,,,,,,,,,,,,,,,,,,,,,,,,,,,,,
881941,001,2022-11-20_23h53.52.023,Info_measure_main_exp,2022.2.2,Win32,246.123554,,,,,,,,,,,,,,,,,,masks/mask_002.jpg,,,,,,,,,,,,,,,,,,,,,,,,,,,,,,,,,,,,,,,,,,,0,1,1,1,1,,,,,,,,,,,,,,,,,,,,,,,,,,,,,,,,,,,,,,,,,,,,,,
881941,001,2022-11-20_23h53.52.023,Info_measure_main_exp,2022.2.2,Win32,246.123554,,,,,,,,,,,,,,,,,,masks/mask_003.jpg,,,,,,,,,,,,,,,,,,,,,,,,,,,,,,,,,,,,,,,,,,,0,2,2,2,1,,,,,,,,,,,,,,,,,,,,,,,,,,,,,,,,,,,,,,,,,,,,,,
881941,001,2022-11-20_23h53.52.023,Info_measure_main_exp,2022.2.2,Win32,246.123554,,,,,,,,,,,,,,,,,,masks/mask_001.jpg,,,,,,,,,,,,,,,,,,,,,,,,,,,,,,,,,,,,,,,,,,,0,3,3,0,1,,,,,,,,,,,,,,,,,,,,,,,,,,,,,,,,,,,,,,,,,,,,,,
881941,001,2022-11-20_23h53.52.023,Info_measure_main_exp,2022.2.2,Win32,246.123554,,,,,,,,,,,,,,,,,,masks/mask_005.jpg,,,,,,,,,,,,,,,,,,,,,,,,,,,,,,,,,,,,,,,,,,,0,4,4,4,1,,,,,,,,,,,,,,,,,,,,,,,,,,,,,,,,,,,,,,,,,,,,,,
881941,001,2022-11-20_23h53.52.023,Info_measure_main_exp,2022.2.2,Win32,246.123554,,,,,,,,,,,,,,,,,,masks/mask_002.jpg,,,,,,,,,,,,,,,,,,,,,,,,,,,,,,,,,,,,,,,,,,,,,,,,0,0,0,1,1,,,,,,,,,,,,,,,,,,,,,,,,,,,,,,,,,,,,,,,,,
881941,001,2022-11-20_23h53.52.023,Info_measure_main_exp,2022.2.2,Win32,246.123554,,,,,,,,,,,,,,,,,,masks/mask_001.jpg,,,,,,,,,,,,,,,,,,,,,,,,,,,,,,,,,,,,,,,,,,,,,,,,0,1,1,0,1,,,,,,,,,,,,,,,,,,,,,,,,,,,,,,,,,,,,,,,,,
881941,001,2022-11-20_23h53.52.023,Info_measure_main_exp,2022.2.2,Win32,246.123554,,,,,,,,,,,,,,,,,,masks/mask_004.jpg,,,,,,,,,,,,,,,,,,,,,,,,,,,,,,,,,,,,,,,,,,,,,,,,0,2,2,3,1,,,,,,,,,,,,,,,,,,,,,,,,,,,,,,,,,,,,,,,,,
881941,001,2022-11-20_23h53.52.023,Info_measure_main_exp,2022.2.2,Win32,246.123554,,,,,,,,,,,,,,,,,,masks/mask_005.jpg,,,,,,,,,,,,,,,,,,,,,,,,,,,,,,,,,,,,,,,,,,,,,,,,0,3,3,4,1,,,,,,,,,,,,,,,,,,,,,,,,,,,,,,,,,,,,,,,,,
881941,001,2022-11-20_23h53.52.023,Info_measure_main_exp,2022.2.2,Win32,246.123554,,,,,,,,,,,,,,,,,,masks/mask_003.jpg,,,,,,,,,,,,,,,,,,,,,,,,,,,,,,,,,,,,,,,,,,,,,,,,0,4,4,2,1,,,,,,,,,,,,,,,,,,,,,,,,,,,,,,,,,,,,,,,,,
881941,001,2022-11-20_23h53.52.023,Info_measure_main_exp,2022.2.2,Win32,246.123554,,,,,,,,,,,,,,,,,,,,,,,,,,,,,,2,0.6793,1,,,,,,,,,,,,0,131,5,5,1986,2274,absent_patch/patch0001986.jpg,absent_patch/patch0002274.jpg,,,,,,,,,,,,,,,,,,,,-0.140740712,-0.073148162,1,0,0,response5disk,22,0.008333347,-0.015740748,1,0,0,center_square,0,21,21,7,1,,,,,,,,,,,,,,,,,,,,,,,
881941,001,2022-11-20_23h53.52.023,Info_measure_main_exp,2022.2.2,Win32,246.123554,,,,,,,,,,,,,,,,,,masks/mask_003.jpg,,,,,,,,,,,,,,,,,,,,,,,,,,,,,,,,,,,,,,,,,,,0,0,0,2,1,,,,,,,,,,,,,,,,,,,,,,,,,,,,,,,,,,,,,,,,,,,,,,
881941,001,2022-11-20_23h53.52.023,Info_measure_main_exp,2022.2.2,Win32,246.123554,,,,,,,,,,,,,,,,,,masks/mask_004.jpg,,,,,,,,,,,,,,,,,,,,,,,,,,,,,,,,,,,,,,,,,,,0,1,1,3,1,,,,,,,,,,,,,,,,,,,,,,,,,,,,,,,,,,,,,,,,,,,,,,
881941,001,2022-11-20_23h53.52.023,Info_measure_main_exp,2022.2.2,Win32,246.123554,,,,,,,,,,,,,,,,,,masks/mask_005.jpg,,,,,,,,,,,,,,,,,,,,,,,,,,,,,,,,,,,,,,,,,,,0,2,2,4,1,,,,,,,,,,,,,,,,,,,,,,,,,,,,,,,,,,,,,,,,,,,,,,
881941,001,2022-11-20_23h53.52.023,Info_measure_main_exp,2022.2.2,Win32,246.123554,,,,,,,,,,,,,,,,,,masks/mask_002.jpg,,,,,,,,,,,,,,,,,,,,,,,,,,,,,,,,,,,,,,,,,,,0,3,3,1,1,,,,,,,,,,,,,,,,,,,,,,,,,,,,,,,,,,,,,,,,,,,,,,
881941,001,2022-11-20_23h53.52.023,Info_measure_main_exp,2022.2.2,Win32,246.123554,,,,,,,,,,,,,,,,,,masks/mask_001.jpg,,,,,,,,,,,,,,,,,,,,,,,,,,,,,,,,,,,,,,,,,,,0,4,4,0,1,,,,,,,,,,,,,,,,,,,,,,,,,,,,,,,,,,,,,,,,,,,,,,
881941,001,2022-11-20_23h53.52.023,Info_measure_main_exp,2022.2.2,Win32,246.123554,,,,,,,,,,,,,,,,,,masks/mask_003.jpg,,,,,,,,,,,,,,,,,,,,,,,,,,,,,,,,,,,,,,,,,,,,,,,,0,0,0,2,1,,,,,,,,,,,,,,,,,,,,,,,,,,,,,,,,,,,,,,,,,
881941,001,2022-11-20_23h53.52.023,Info_measure_main_exp,2022.2.2,Win32,246.123554,,,,,,,,,,,,,,,,,,masks/mask_001.jpg,,,,,,,,,,,,,,,,,,,,,,,,,,,,,,,,,,,,,,,,,,,,,,,,0,1,1,0,1,,,,,,,,,,,,,,,,,,,,,,,,,,,,,,,,,,,,,,,,,
881941,001,2022-11-20_23h53.52.023,Info_measure_main_exp,2022.2.2,Win32,246.123554,,,,,,,,,,,,,,,,,,masks/mask_004.jpg,,,,,,,,,,,,,,,,,,,,,,,,,,,,,,,,,,,,,,,,,,,,,,,,0,2,2,3,1,,,,,,,,,,,,,,,,,,,,,,,,,,,,,,,,,,,,,,,,,
881941,001,2022-11-20_23h53.52.023,Info_measure_main_exp,2022.2.2,Win32,246.123554,,,,,,,,,,,,,,,,,,masks/mask_002.jpg,,,,,,,,,,,,,,,,,,,,,,,,,,,,,,,,,,,,,,,,,,,,,,,,0,3,3,1,1,,,,,,,,,,,,,,,,,,,,,,,,,,,,,,,,,,,,,,,,,
881941,001,2022-11-20_23h53.52.023,Info_measure_main_exp,2022.2.2,Win32,246.123554,,,,,,,,,,,,,,,,,,masks/mask_005.jpg,,,,,,,,,,,,,,,,,,,,,,,,,,,,,,,,,,,,,,,,,,,,,,,,0,4,4,4,1,,,,,,,,,,,,,,,,,,,,,,,,,,,,,,,,,,,,,,,,,
881941,001,2022-11-20_23h53.52.023,Info_measure_main_exp,2022.2.2,Win32,246.123554,,,,,,,,,,,,,,,,,,,,,,,,,,,,,,4,0.4992,1,,,,,,,,,,,,0,131,5,5,2250,1950,absent_patch/patch0002250.jpg,absent_patch/patch0001950.jpg,,,,,,,,,,,,,,,,,,,,0.061111097,-0.134259259,1,0,0,response3disk,23,-0.006481453,-0.009259259,1,0,0,center_square,0,22,22,16,1,,,,,,,,,,,,,,,,,,,,,,,
881941,001,2022-11-20_23h53.52.023,Info_measure_main_exp,2022.2.2,Win32,246.123554,,,,,,,,,,,,,,,,,,masks/mask_001.jpg,,,,,,,,,,,,,,,,,,,,,,,,,,,,,,,,,,,,,,,,,,,0,0,0,0,1,,,,,,,,,,,,,,,,,,,,,,,,,,,,,,,,,,,,,,,,,,,,,,
881941,001,2022-11-20_23h53.52.023,Info_measure_main_exp,2022.2.2,Win32,246.123554,,,,,,,,,,,,,,,,,,masks/mask_003.jpg,,,,,,,,,,,,,,,,,,,,,,,,,,,,,,,,,,,,,,,,,,,0,1,1,2,1,,,,,,,,,,,,,,,,,,,,,,,,,,,,,,,,,,,,,,,,,,,,,,
881941,001,2022-11-20_23h53.52.023,Info_measure_main_exp,2022.2.2,Win32,246.123554,,,,,,,,,,,,,,,,,,masks/mask_004.jpg,,,,,,,,,,,,,,,,,,,,,,,,,,,,,,,,,,,,,,,,,,,0,2,2,3,1,,,,,,,,,,,,,,,,,,,,,,,,,,,,,,,,,,,,,,,,,,,,,,
881941,001,2022-11-20_23h53.52.023,Info_measure_main_exp,2022.2.2,Win32,246.123554,,,,,,,,,,,,,,,,,,masks/mask_002.jpg,,,,,,,,,,,,,,,,,,,,,,,,,,,,,,,,,,,,,,,,,,,0,3,3,1,1,,,,,,,,,,,,,,,,,,,,,,,,,,,,,,,,,,,,,,,,,,,,,,
881941,001,2022-11-20_23h53.52.023,Info_measure_main_exp,2022.2.2,Win32,246.123554,,,,,,,,,,,,,,,,,,masks/mask_005.jpg,,,,,,,,,,,,,,,,,,,,,,,,,,,,,,,,,,,,,,,,,,,0,4,4,4,1,,,,,,,,,,,,,,,,,,,,,,,,,,,,,,,,,,,,,,,,,,,,,,
881941,001,2022-11-20_23h53.52.023,Info_measure_main_exp,2022.2.2,Win32,246.123554,,,,,,,,,,,,,,,,,,masks/mask_005.jpg,,,,,,,,,,,,,,,,,,,,,,,,,,,,,,,,,,,,,,,,,,,,,,,,0,0,0,4,1,,,,,,,,,,,,,,,,,,,,,,,,,,,,,,,,,,,,,,,,,
881941,001,2022-11-20_23h53.52.023,Info_measure_main_exp,2022.2.2,Win32,246.123554,,,,,,,,,,,,,,,,,,masks/mask_003.jpg,,,,,,,,,,,,,,,,,,,,,,,,,,,,,,,,,,,,,,,,,,,,,,,,0,1,1,2,1,,,,,,,,,,,,,,,,,,,,,,,,,,,,,,,,,,,,,,,,,
881941,001,2022-11-20_23h53.52.023,Info_measure_main_exp,2022.2.2,Win32,246.123554,,,,,,,,,,,,,,,,,,masks/mask_001.jpg,,,,,,,,,,,,,,,,,,,,,,,,,,,,,,,,,,,,,,,,,,,,,,,,0,2,2,0,1,,,,,,,,,,,,,,,,,,,,,,,,,,,,,,,,,,,,,,,,,
881941,001,2022-11-20_23h53.52.023,Info_measure_main_exp,2022.2.2,Win32,246.123554,,,,,,,,,,,,,,,,,,masks/mask_004.jpg,,,,,,,,,,,,,,,,,,,,,,,,,,,,,,,,,,,,,,,,,,,,,,,,0,3,3,3,1,,,,,,,,,,,,,,,,,,,,,,,,,,,,,,,,,,,,,,,,,
881941,001,2022-11-20_23h53.52.023,Info_measure_main_exp,2022.2.2,Win32,246.123554,,,,,,,,,,,,,,,,,,masks/mask_002.jpg,,,,,,,,,,,,,,,,,,,,,,,,,,,,,,,,,,,,,,,,,,,,,,,,0,4,4,1,1,,,,,,,,,,,,,,,,,,,,,,,,,,,,,,,,,,,,,,,,,
881941,001,2022-11-20_23h53.52.023,Info_measure_main_exp,2022.2.2,Win32,246.123554,,,,,,,,,,,,,,,,,,,,,,,,,,,,,,5,0.99,1,,,,,,,,,,,,0,131,5,5,2166,2154,absent_patch/patch0002166.jpg,absent_patch/patch0002154.jpg,,,,,,,,,,,,,,,,,,,,0.107407393,-0.062037044,1,0,0,response3disk,24,-0.003703718,0.002777771,1,0,0,center_square,0,23,23,79,1,,,,,,,,,,,,,,,,,,,,,,,
881941,001,2022-11-20_23h53.52.023,Info_measure_main_exp,2022.2.2,Win32,246.123554,,,,,,,,,,,,,,,,,,masks/mask_002.jpg,,,,,,,,,,,,,,,,,,,,,,,,,,,,,,,,,,,,,,,,,,,0,0,0,1,1,,,,,,,,,,,,,,,,,,,,,,,,,,,,,,,,,,,,,,,,,,,,,,
881941,001,2022-11-20_23h53.52.023,Info_measure_main_exp,2022.2.2,Win32,246.123554,,,,,,,,,,,,,,,,,,masks/mask_005.jpg,,,,,,,,,,,,,,,,,,,,,,,,,,,,,,,,,,,,,,,,,,,0,1,1,4,1,,,,,,,,,,,,,,,,,,,,,,,,,,,,,,,,,,,,,,,,,,,,,,
881941,001,2022-11-20_23h53.52.023,Info_measure_main_exp,2022.2.2,Win32,246.123554,,,,,,,,,,,,,,,,,,masks/mask_004.jpg,,,,,,,,,,,,,,,,,,,,,,,,,,,,,,,,,,,,,,,,,,,0,2,2,3,1,,,,,,,,,,,,,,,,,,,,,,,,,,,,,,,,,,,,,,,,,,,,,,
881941,001,2022-11-20_23h53.52.023,Info_measure_main_exp,2022.2.2,Win32,246.123554,,,,,,,,,,,,,,,,,,masks/mask_003.jpg,,,,,,,,,,,,,,,,,,,,,,,,,,,,,,,,,,,,,,,,,,,0,3,3,2,1,,,,,,,,,,,,,,,,,,,,,,,,,,,,,,,,,,,,,,,,,,,,,,
881941,001,2022-11-20_23h53.52.023,Info_measure_main_exp,2022.2.2,Win32,246.123554,,,,,,,,,,,,,,,,,,masks/mask_001.jpg,,,,,,,,,,,,,,,,,,,,,,,,,,,,,,,,,,,,,,,,,,,0,4,4,0,1,,,,,,,,,,,,,,,,,,,,,,,,,,,,,,,,,,,,,,,,,,,,,,
881941,001,2022-11-20_23h53.52.023,Info_measure_main_exp,2022.2.2,Win32,246.123554,,,,,,,,,,,,,,,,,,masks/mask_001.jpg,,,,,,,,,,,,,,,,,,,,,,,,,,,,,,,,,,,,,,,,,,,,,,,,0,0,0,0,1,,,,,,,,,,,,,,,,,,,,,,,,,,,,,,,,,,,,,,,,,
881941,001,2022-11-20_23h53.52.023,Info_measure_main_exp,2022.2.2,Win32,246.123554,,,,,,,,,,,,,,,,,,masks/mask_002.jpg,,,,,,,,,,,,,,,,,,,,,,,,,,,,,,,,,,,,,,,,,,,,,,,,0,1,1,1,1,,,,,,,,,,,,,,,,,,,,,,,,,,,,,,,,,,,,,,,,,
881941,001,2022-11-20_23h53.52.023,Info_measure_main_exp,2022.2.2,Win32,246.123554,,,,,,,,,,,,,,,,,,masks/mask_003.jpg,,,,,,,,,,,,,,,,,,,,,,,,,,,,,,,,,,,,,,,,,,,,,,,,0,2,2,2,1,,,,,,,,,,,,,,,,,,,,,,,,,,,,,,,,,,,,,,,,,
881941,001,2022-11-20_23h53.52.023,Info_measure_main_exp,2022.2.2,Win32,246.123554,,,,,,,,,,,,,,,,,,masks/mask_004.jpg,,,,,,,,,,,,,,,,,,,,,,,,,,,,,,,,,,,,,,,,,,,,,,,,0,3,3,3,1,,,,,,,,,,,,,,,,,,,,,,,,,,,,,,,,,,,,,,,,,
881941,001,2022-11-20_23h53.52.023,Info_measure_main_exp,2022.2.2,Win32,246.123554,,,,,,,,,,,,,,,,,,masks/mask_005.jpg,,,,,,,,,,,,,,,,,,,,,,,,,,,,,,,,,,,,,,,,,,,,,,,,0,4,4,4,1,,,,,,,,,,,,,,,,,,,,,,,,,,,,,,,,,,,,,,,,,
881941,001,2022-11-20_23h53.52.023,Info_measure_main_exp,2022.2.2,Win32,246.123554,,,,,,,,,,,,,,,,,,,,,,,,,,,,,,0,0.5703,1,,,,,,,,,,,,1,131,5,5,1,1,present_patch/cong_131_5_a.jpg,present_patch/cong_131_5_a.jpg,,,,,,,,,,,,,,,,,,,,-0.050000014,0.168518526,1,0,0,response7disk,25,-0.011111083,0.006481489,1,0,0,center_square,0,24,24,30,1,,,,,,,,,,,,,,,,,,,,,,,
881941,001,2022-11-20_23h53.52.023,Info_measure_main_exp,2022.2.2,Win32,246.123554,,,,,,,,,,,,,,,,,,masks/mask_004.jpg,,,,,,,,,,,,,,,,,,,,,,,,,,,,,,,,,,,,,,,,,,,0,0,0,3,1,,,,,,,,,,,,,,,,,,,,,,,,,,,,,,,,,,,,,,,,,,,,,,
881941,001,2022-11-20_23h53.52.023,Info_measure_main_exp,2022.2.2,Win32,246.123554,,,,,,,,,,,,,,,,,,masks/mask_001.jpg,,,,,,,,,,,,,,,,,,,,,,,,,,,,,,,,,,,,,,,,,,,0,1,1,0,1,,,,,,,,,,,,,,,,,,,,,,,,,,,,,,,,,,,,,,,,,,,,,,
881941,001,2022-11-20_23h53.52.023,Info_measure_main_exp,2022.2.2,Win32,246.123554,,,,,,,,,,,,,,,,,,masks/mask_003.jpg,,,,,,,,,,,,,,,,,,,,,,,,,,,,,,,,,,,,,,,,,,,0,2,2,2,1,,,,,,,,,,,,,,,,,,,,,,,,,,,,,,,,,,,,,,,,,,,,,,
881941,001,2022-11-20_23h53.52.023,Info_measure_main_exp,2022.2.2,Win32,246.123554,,,,,,,,,,,,,,,,,,masks/mask_002.jpg,,,,,,,,,,,,,,,,,,,,,,,,,,,,,,,,,,,,,,,,,,,0,3,3,1,1,,,,,,,,,,,,,,,,,,,,,,,,,,,,,,,,,,,,,,,,,,,,,,
881941,001,2022-11-20_23h53.52.023,Info_measure_main_exp,2022.2.2,Win32,246.123554,,,,,,,,,,,,,,,,,,masks/mask_005.jpg,,,,,,,,,,,,,,,,,,,,,,,,,,,,,,,,,,,,,,,,,,,0,4,4,4,1,,,,,,,,,,,,,,,,,,,,,,,,,,,,,,,,,,,,,,,,,,,,,,
881941,001,2022-11-20_23h53.52.023,Info_measure_main_exp,2022.2.2,Win32,246.123554,,,,,,,,,,,,,,,,,,masks/mask_001.jpg,,,,,,,,,,,,,,,,,,,,,,,,,,,,,,,,,,,,,,,,,,,,,,,,0,0,0,0,1,,,,,,,,,,,,,,,,,,,,,,,,,,,,,,,,,,,,,,,,,
881941,001,2022-11-20_23h53.52.023,Info_measure_main_exp,2022.2.2,Win32,246.123554,,,,,,,,,,,,,,,,,,masks/mask_004.jpg,,,,,,,,,,,,,,,,,,,,,,,,,,,,,,,,,,,,,,,,,,,,,,,,0,1,1,3,1,,,,,,,,,,,,,,,,,,,,,,,,,,,,,,,,,,,,,,,,,
881941,001,2022-11-20_23h53.52.023,Info_measure_main_exp,2022.2.2,Win32,246.123554,,,,,,,,,,,,,,,,,,masks/mask_003.jpg,,,,,,,,,,,,,,,,,,,,,,,,,,,,,,,,,,,,,,,,,,,,,,,,0,2,2,2,1,,,,,,,,,,,,,,,,,,,,,,,,,,,,,,,,,,,,,,,,,
881941,001,2022-11-20_23h53.52.023,Info_measure_main_exp,2022.2.2,Win32,246.123554,,,,,,,,,,,,,,,,,,masks/mask_005.jpg,,,,,,,,,,,,,,,,,,,,,,,,,,,,,,,,,,,,,,,,,,,,,,,,0,3,3,4,1,,,,,,,,,,,,,,,,,,,,,,,,,,,,,,,,,,,,,,,,,
881941,001,2022-11-20_23h53.52.023,Info_measure_main_exp,2022.2.2,Win32,246.123554,,,,,,,,,,,,,,,,,,masks/mask_002.jpg,,,,,,,,,,,,,,,,,,,,,,,,,,,,,,,,,,,,,,,,,,,,,,,,0,4,4,1,1,,,,,,,,,,,,,,,,,,,,,,,,,,,,,,,,,,,,,,,,,
881941,001,2022-11-20_23h53.52.023,Info_measure_main_exp,2022.2.2,Win32,246.123554,,,,,,,,,,,,,,,,,,,,,,,,,,,,,,0,0.4653,1,,,,,,,,,,,,0,131,5,5,2238,2238,absent_patch/patch0002238.jpg,absent_patch/patch0002238.jpg,,,,,,,,,,,,,,,,,,,,-0.041666667,0.14166666,1,0,0,response7disk,26,-0.012036995,-0.000925947,1,0,0,center_square,0,25,25,58,1,,,,,,,,,,,,,,,,,,,,,,,
881941,001,2022-11-20_23h53.52.023,Info_measure_main_exp,2022.2.2,Win32,246.123554,,,,,,,,,,,,,,,,,,masks/mask_002.jpg,,,,,,,,,,,,,,,,,,,,,,,,,,,,,,,,,,,,,,,,,,,0,0,0,1,1,,,,,,,,,,,,,,,,,,,,,,,,,,,,,,,,,,,,,,,,,,,,,,
881941,001,2022-11-20_23h53.52.023,Info_measure_main_exp,2022.2.2,Win32,246.123554,,,,,,,,,,,,,,,,,,masks/mask_003.jpg,,,,,,,,,,,,,,,,,,,,,,,,,,,,,,,,,,,,,,,,,,,0,1,1,2,1,,,,,,,,,,,,,,,,,,,,,,,,,,,,,,,,,,,,,,,,,,,,,,
881941,001,2022-11-20_23h53.52.023,Info_measure_main_exp,2022.2.2,Win32,246.123554,,,,,,,,,,,,,,,,,,masks/mask_005.jpg,,,,,,,,,,,,,,,,,,,,,,,,,,,,,,,,,,,,,,,,,,,0,2,2,4,1,,,,,,,,,,,,,,,,,,,,,,,,,,,,,,,,,,,,,,,,,,,,,,
881941,001,2022-11-20_23h53.52.023,Info_measure_main_exp,2022.2.2,Win32,246.123554,,,,,,,,,,,,,,,,,,masks/mask_001.jpg,,,,,,,,,,,,,,,,,,,,,,,,,,,,,,,,,,,,,,,,,,,0,3,3,0,1,,,,,,,,,,,,,,,,,,,,,,,,,,,,,,,,,,,,,,,,,,,,,,
881941,001,2022-11-20_23h53.52.023,Info_measure_main_exp,2022.2.2,Win32,246.123554,,,,,,,,,,,,,,,,,,masks/mask_004.jpg,,,,,,,,,,,,,,,,,,,,,,,,,,,,,,,,,,,,,,,,,,,0,4,4,3,1,,,,,,,,,,,,,,,,,,,,,,,,,,,,,,,,,,,,,,,,,,,,,,
881941,001,2022-11-20_23h53.52.023,Info_measure_main_exp,2022.2.2,Win32,246.123554,,,,,,,,,,,,,,,,,,masks/mask_003.jpg,,,,,,,,,,,,,,,,,,,,,,,,,,,,,,,,,,,,,,,,,,,,,,,,0,0,0,2,1,,,,,,,,,,,,,,,,,,,,,,,,,,,,,,,,,,,,,,,,,
881941,001,2022-11-20_23h53.52.023,Info_measure_main_exp,2022.2.2,Win32,246.123554,,,,,,,,,,,,,,,,,,masks/mask_001.jpg,,,,,,,,,,,,,,,,,,,,,,,,,,,,,,,,,,,,,,,,,,,,,,,,0,1,1,0,1,,,,,,,,,,,,,,,,,,,,,,,,,,,,,,,,,,,,,,,,,
881941,001,2022-11-20_23h53.52.023,Info_measure_main_exp,2022.2.2,Win32,246.123554,,,,,,,,,,,,,,,,,,masks/mask_004.jpg,,,,,,,,,,,,,,,,,,,,,,,,,,,,,,,,,,,,,,,,,,,,,,,,0,2,2,3,1,,,,,,,,,,,,,,,,,,,,,,,,,,,,,,,,,,,,,,,,,
881941,001,2022-11-20_23h53.52.023,Info_measure_main_exp,2022.2.2,Win32,246.123554,,,,,,,,,,,,,,,,,,masks/mask_005.jpg,,,,,,,,,,,,,,,,,,,,,,,,,,,,,,,,,,,,,,,,,,,,,,,,0,3,3,4,1,,,,,,,,,,,,,,,,,,,,,,,,,,,,,,,,,,,,,,,,,
881941,001,2022-11-20_23h53.52.023,Info_measure_main_exp,2022.2.2,Win32,246.123554,,,,,,,,,,,,,,,,,,masks/mask_002.jpg,,,,,,,,,,,,,,,,,,,,,,,,,,,,,,,,,,,,,,,,,,,,,,,,0,4,4,1,1,,,,,,,,,,,,,,,,,,,,,,,,,,,,,,,,,,,,,,,,,
881941,001,2022-11-20_23h53.52.023,Info_measure_main_exp,2022.2.2,Win32,246.123554,,,,,,,,,,,,,,,,,,,,,,,,,,,,,,6,0.5331,1,,,,,,,,,,,,0,131,5,5,1986,1950,absent_patch/patch0001986.jpg,absent_patch/patch0001950.jpg,,,,,,,,,,,,,,,,,,,,0.132407436,0.050925926,1,0,0,response1disk,27,0.001851894,0.00462963,1,0,0,center_square,0,26,26,15,1,,,,,,,,,,,,,,,,,,,,,,,
881941,001,2022-11-20_23h53.52.023,Info_measure_main_exp,2022.2.2,Win32,246.123554,,,,,,,,,,,,,,,,,,masks/mask_004.jpg,,,,,,,,,,,,,,,,,,,,,,,,,,,,,,,,,,,,,,,,,,,0,0,0,3,1,,,,,,,,,,,,,,,,,,,,,,,,,,,,,,,,,,,,,,,,,,,,,,
881941,001,2022-11-20_23h53.52.023,Info_measure_main_exp,2022.2.2,Win32,246.123554,,,,,,,,,,,,,,,,,,masks/mask_001.jpg,,,,,,,,,,,,,,,,,,,,,,,,,,,,,,,,,,,,,,,,,,,0,1,1,0,1,,,,,,,,,,,,,,,,,,,,,,,,,,,,,,,,,,,,,,,,,,,,,,
881941,001,2022-11-20_23h53.52.023,Info_measure_main_exp,2022.2.2,Win32,246.123554,,,,,,,,,,,,,,,,,,masks/mask_003.jpg,,,,,,,,,,,,,,,,,,,,,,,,,,,,,,,,,,,,,,,,,,,0,2,2,2,1,,,,,,,,,,,,,,,,,,,,,,,,,,,,,,,,,,,,,,,,,,,,,,
881941,001,2022-11-20_23h53.52.023,Info_measure_main_exp,2022.2.2,Win32,246.123554,,,,,,,,,,,,,,,,,,masks/mask_002.jpg,,,,,,,,,,,,,,,,,,,,,,,,,,,,,,,,,,,,,,,,,,,0,3,3,1,1,,,,,,,,,,,,,,,,,,,,,,,,,,,,,,,,,,,,,,,,,,,,,,
881941,001,2022-11-20_23h53.52.023,Info_measure_main_exp,2022.2.2,Win32,246.123554,,,,,,,,,,,,,,,,,,masks/mask_005.jpg,,,,,,,,,,,,,,,,,,,,,,,,,,,,,,,,,,,,,,,,,,,0,4,4,4,1,,,,,,,,,,,,,,,,,,,,,,,,,,,,,,,,,,,,,,,,,,,,,,
881941,001,2022-11-20_23h53.52.023,Info_measure_main_exp,2022.2.2,Win32,246.123554,,,,,,,,,,,,,,,,,,masks/mask_005.jpg,,,,,,,,,,,,,,,,,,,,,,,,,,,,,,,,,,,,,,,,,,,,,,,,0,0,0,4,1,,,,,,,,,,,,,,,,,,,,,,,,,,,,,,,,,,,,,,,,,
881941,001,2022-11-20_23h53.52.023,Info_measure_main_exp,2022.2.2,Win32,246.123554,,,,,,,,,,,,,,,,,,masks/mask_003.jpg,,,,,,,,,,,,,,,,,,,,,,,,,,,,,,,,,,,,,,,,,,,,,,,,0,1,1,2,1,,,,,,,,,,,,,,,,,,,,,,,,,,,,,,,,,,,,,,,,,
881941,001,2022-11-20_23h53.52.023,Info_measure_main_exp,2022.2.2,Win32,246.123554,,,,,,,,,,,,,,,,,,masks/mask_002.jpg,,,,,,,,,,,,,,,,,,,,,,,,,,,,,,,,,,,,,,,,,,,,,,,,0,2,2,1,1,,,,,,,,,,,,,,,,,,,,,,,,,,,,,,,,,,,,,,,,,
881941,001,2022-11-20_23h53.52.023,Info_measure_main_exp,2022.2.2,Win32,246.123554,,,,,,,,,,,,,,,,,,masks/mask_004.jpg,,,,,,,,,,,,,,,,,,,,,,,,,,,,,,,,,,,,,,,,,,,,,,,,0,3,3,3,1,,,,,,,,,,,,,,,,,,,,,,,,,,,,,,,,,,,,,,,,,
881941,001,2022-11-20_23h53.52.023,Info_measure_main_exp,2022.2.2,Win32,246.123554,,,,,,,,,,,,,,,,,,masks/mask_001.jpg,,,,,,,,,,,,,,,,,,,,,,,,,,,,,,,,,,,,,,,,,,,,,,,,0,4,4,0,1,,,,,,,,,,,,,,,,,,,,,,,,,,,,,,,,,,,,,,,,,
881941,001,2022-11-20_23h53.52.023,Info_measure_main_exp,2022.2.2,Win32,246.123554,,,,,,,,,,,,,,,,,,,,,,,,,,,,,,6,0.4544,1,,,,,,,,,,,,1,131,5,5,2190,1,absent_patch/patch0002190.jpg,present_patch/cong_131_5_a.jpg,,,,,,,,,,,,,,,,,,,,0.125925912,0.060185185,1,0,0,response1disk,28,-0.00462963,0.006481489,1,0,0,center_square,0,27,27,64,1,,,,,,,,,,,,,,,,,,,,,,,
881941,001,2022-11-20_23h53.52.023,Info_measure_main_exp,2022.2.2,Win32,246.123554,,,,,,,,,,,,,,,,,,masks/mask_003.jpg,,,,,,,,,,,,,,,,,,,,,,,,,,,,,,,,,,,,,,,,,,,0,0,0,2,1,,,,,,,,,,,,,,,,,,,,,,,,,,,,,,,,,,,,,,,,,,,,,,
881941,001,2022-11-20_23h53.52.023,Info_measure_main_exp,2022.2.2,Win32,246.123554,,,,,,,,,,,,,,,,,,masks/mask_002.jpg,,,,,,,,,,,,,,,,,,,,,,,,,,,,,,,,,,,,,,,,,,,0,1,1,1,1,,,,,,,,,,,,,,,,,,,,,,,,,,,,,,,,,,,,,,,,,,,,,,
881941,001,2022-11-20_23h53.52.023,Info_measure_main_exp,2022.2.2,Win32,246.123554,,,,,,,,,,,,,,,,,,masks/mask_004.jpg,,,,,,,,,,,,,,,,,,,,,,,,,,,,,,,,,,,,,,,,,,,0,2,2,3,1,,,,,,,,,,,,,,,,,,,,,,,,,,,,,,,,,,,,,,,,,,,,,,
881941,001,2022-11-20_23h53.52.023,Info_measure_main_exp,2022.2.2,Win32,246.123554,,,,,,,,,,,,,,,,,,masks/mask_001.jpg,,,,,,,,,,,,,,,,,,,,,,,,,,,,,,,,,,,,,,,,,,,0,3,3,0,1,,,,,,,,,,,,,,,,,,,,,,,,,,,,,,,,,,,,,,,,,,,,,,
881941,001,2022-11-20_23h53.52.023,Info_measure_main_exp,2022.2.2,Win32,246.123554,,,,,,,,,,,,,,,,,,masks/mask_005.jpg,,,,,,,,,,,,,,,,,,,,,,,,,,,,,,,,,,,,,,,,,,,0,4,4,4,1,,,,,,,,,,,,,,,,,,,,,,,,,,,,,,,,,,,,,,,,,,,,,,
881941,001,2022-11-20_23h53.52.023,Info_measure_main_exp,2022.2.2,Win32,246.123554,,,,,,,,,,,,,,,,,,masks/mask_002.jpg,,,,,,,,,,,,,,,,,,,,,,,,,,,,,,,,,,,,,,,,,,,,,,,,0,0,0,1,1,,,,,,,,,,,,,,,,,,,,,,,,,,,,,,,,,,,,,,,,,
881941,001,2022-11-20_23h53.52.023,Info_measure_main_exp,2022.2.2,Win32,246.123554,,,,,,,,,,,,,,,,,,masks/mask_003.jpg,,,,,,,,,,,,,,,,,,,,,,,,,,,,,,,,,,,,,,,,,,,,,,,,0,1,1,2,1,,,,,,,,,,,,,,,,,,,,,,,,,,,,,,,,,,,,,,,,,
881941,001,2022-11-20_23h53.52.023,Info_measure_main_exp,2022.2.2,Win32,246.123554,,,,,,,,,,,,,,,,,,masks/mask_005.jpg,,,,,,,,,,,,,,,,,,,,,,,,,,,,,,,,,,,,,,,,,,,,,,,,0,2,2,4,1,,,,,,,,,,,,,,,,,,,,,,,,,,,,,,,,,,,,,,,,,
881941,001,2022-11-20_23h53.52.023,Info_measure_main_exp,2022.2.2,Win32,246.123554,,,,,,,,,,,,,,,,,,masks/mask_001.jpg,,,,,,,,,,,,,,,,,,,,,,,,,,,,,,,,,,,,,,,,,,,,,,,,0,3,3,0,1,,,,,,,,,,,,,,,,,,,,,,,,,,,,,,,,,,,,,,,,,
881941,001,2022-11-20_23h53.52.023,Info_measure_main_exp,2022.2.2,Win32,246.123554,,,,,,,,,,,,,,,,,,masks/mask_004.jpg,,,,,,,,,,,,,,,,,,,,,,,,,,,,,,,,,,,,,,,,,,,,,,,,0,4,4,3,1,,,,,,,,,,,,,,,,,,,,,,,,,,,,,,,,,,,,,,,,,
881941,001,2022-11-20_23h53.52.023,Info_measure_main_exp,2022.2.2,Win32,246.123554,,,,,,,,,,,,,,,,,,,,,,,,,,,,,,4,0.5087,1,,,,,,,,,,,,0,131,5,5,1974,2298,absent_patch/patch0001974.jpg,absent_patch/patch0002298.jpg,,,,,,,,,,,,,,,,,,,,0.062037079,-0.110185199,1,0,0,response3disk,29,0.008333347,-0.001851859,1,0,0,center_square,0,28,28,6,1,,,,,,,,,,,,,,,,,,,,,,,
881941,001,2022-11-20_23h53.52.023,Info_measure_main_exp,2022.2.2,Win32,246.123554,,,,,,,,,,,,,,,,,,masks/mask_005.jpg,,,,,,,,,,,,,,,,,,,,,,,,,,,,,,,,,,,,,,,,,,,0,0,0,4,1,,,,,,,,,,,,,,,,,,,,,,,,,,,,,,,,,,,,,,,,,,,,,,
881941,001,2022-11-20_23h53.52.023,Info_measure_main_exp,2022.2.2,Win32,246.123554,,,,,,,,,,,,,,,,,,masks/mask_003.jpg,,,,,,,,,,,,,,,,,,,,,,,,,,,,,,,,,,,,,,,,,,,0,1,1,2,1,,,,,,,,,,,,,,,,,,,,,,,,,,,,,,,,,,,,,,,,,,,,,,
881941,001,2022-11-20_23h53.52.023,Info_measure_main_exp,2022.2.2,Win32,246.123554,,,,,,,,,,,,,,,,,,masks/mask_002.jpg,,,,,,,,,,,,,,,,,,,,,,,,,,,,,,,,,,,,,,,,,,,0,2,2,1,1,,,,,,,,,,,,,,,,,,,,,,,,,,,,,,,,,,,,,,,,,,,,,,
881941,001,2022-11-20_23h53.52.023,Info_measure_main_exp,2022.2.2,Win32,246.123554,,,,,,,,,,,,,,,,,,masks/mask_004.jpg,,,,,,,,,,,,,,,,,,,,,,,,,,,,,,,,,,,,,,,,,,,0,3,3,3,1,,,,,,,,,,,,,,,,,,,,,,,,,,,,,,,,,,,,,,,,,,,,,,
881941,001,2022-11-20_23h53.52.023,Info_measure_main_exp,2022.2.2,Win32,246.123554,,,,,,,,,,,,,,,,,,masks/mask_001.jpg,,,,,,,,,,,,,,,,,,,,,,,,,,,,,,,,,,,,,,,,,,,0,4,4,0,1,,,,,,,,,,,,,,,,,,,,,,,,,,,,,,,,,,,,,,,,,,,,,,
881941,001,2022-11-20_23h53.52.023,Info_measure_main_exp,2022.2.2,Win32,246.123554,,,,,,,,,,,,,,,,,,masks/mask_002.jpg,,,,,,,,,,,,,,,,,,,,,,,,,,,,,,,,,,,,,,,,,,,,,,,,0,0,0,1,1,,,,,,,,,,,,,,,,,,,,,,,,,,,,,,,,,,,,,,,,,
881941,001,2022-11-20_23h53.52.023,Info_measure_main_exp,2022.2.2,Win32,246.123554,,,,,,,,,,,,,,,,,,masks/mask_005.jpg,,,,,,,,,,,,,,,,,,,,,,,,,,,,,,,,,,,,,,,,,,,,,,,,0,1,1,4,1,,,,,,,,,,,,,,,,,,,,,,,,,,,,,,,,,,,,,,,,,
881941,001,2022-11-20_23h53.52.023,Info_measure_main_exp,2022.2.2,Win32,246.123554,,,,,,,,,,,,,,,,,,masks/mask_001.jpg,,,,,,,,,,,,,,,,,,,,,,,,,,,,,,,,,,,,,,,,,,,,,,,,0,2,2,0,1,,,,,,,,,,,,,,,,,,,,,,,,,,,,,,,,,,,,,,,,,
881941,001,2022-11-20_23h53.52.023,Info_measure_main_exp,2022.2.2,Win32,246.123554,,,,,,,,,,,,,,,,,,masks/mask_004.jpg,,,,,,,,,,,,,,,,,,,,,,,,,,,,,,,,,,,,,,,,,,,,,,,,0,3,3,3,1,,,,,,,,,,,,,,,,,,,,,,,,,,,,,,,,,,,,,,,,,
881941,001,2022-11-20_23h53.52.023,Info_measure_main_exp,2022.2.2,Win32,246.123554,,,,,,,,,,,,,,,,,,masks/mask_003.jpg,,,,,,,,,,,,,,,,,,,,,,,,,,,,,,,,,,,,,,,,,,,,,,,,0,4,4,2,1,,,,,,,,,,,,,,,,,,,,,,,,,,,,,,,,,,,,,,,,,
881941,001,2022-11-20_23h53.52.023,Info_measure_main_exp,2022.2.2,Win32,246.123554,,,,,,,,,,,,,,,,,,,,,,,,,,,,,,6,1.9336,1,,,,,,,,,,,,1,131,5,5,1,2142,present_patch/cong_131_5_a.jpg,absent_patch/patch0002142.jpg,,,,,,,,,,,,,,,,,,,,0.128703718,0.047222208,1,0,0,response1disk,30,-0.014814801,-0.00462963,1,0,0,center_square,0,29,29,80,1,,,,,,,,,,,,,,,,,,,,,,,
881941,001,2022-11-20_23h53.52.023,Info_measure_main_exp,2022.2.2,Win32,246.123554,,,,,,,,,,,,,,,,,,masks/mask_002.jpg,,,,,,,,,,,,,,,,,,,,,,,,,,,,,,,,,,,,,,,,,,,0,0,0,1,1,,,,,,,,,,,,,,,,,,,,,,,,,,,,,,,,,,,,,,,,,,,,,,
881941,001,2022-11-20_23h53.52.023,Info_measure_main_exp,2022.2.2,Win32,246.123554,,,,,,,,,,,,,,,,,,masks/mask_003.jpg,,,,,,,,,,,,,,,,,,,,,,,,,,,,,,,,,,,,,,,,,,,0,1,1,2,1,,,,,,,,,,,,,,,,,,,,,,,,,,,,,,,,,,,,,,,,,,,,,,
881941,001,2022-11-20_23h53.52.023,Info_measure_main_exp,2022.2.2,Win32,246.123554,,,,,,,,,,,,,,,,,,masks/mask_001.jpg,,,,,,,,,,,,,,,,,,,,,,,,,,,,,,,,,,,,,,,,,,,0,2,2,0,1,,,,,,,,,,,,,,,,,,,,,,,,,,,,,,,,,,,,,,,,,,,,,,
881941,001,2022-11-20_23h53.52.023,Info_measure_main_exp,2022.2.2,Win32,246.123554,,,,,,,,,,,,,,,,,,masks/mask_004.jpg,,,,,,,,,,,,,,,,,,,,,,,,,,,,,,,,,,,,,,,,,,,0,3,3,3,1,,,,,,,,,,,,,,,,,,,,,,,,,,,,,,,,,,,,,,,,,,,,,,
881941,001,2022-11-20_23h53.52.023,Info_measure_main_exp,2022.2.2,Win32,246.123554,,,,,,,,,,,,,,,,,,masks/mask_005.jpg,,,,,,,,,,,,,,,,,,,,,,,,,,,,,,,,,,,,,,,,,,,0,4,4,4,1,,,,,,,,,,,,,,,,,,,,,,,,,,,,,,,,,,,,,,,,,,,,,,
881941,001,2022-11-20_23h53.52.023,Info_measure_main_exp,2022.2.2,Win32,246.123554,,,,,,,,,,,,,,,,,,masks/mask_002.jpg,,,,,,,,,,,,,,,,,,,,,,,,,,,,,,,,,,,,,,,,,,,,,,,,0,0,0,1,1,,,,,,,,,,,,,,,,,,,,,,,,,,,,,,,,,,,,,,,,,
881941,001,2022-11-20_23h53.52.023,Info_measure_main_exp,2022.2.2,Win32,246.123554,,,,,,,,,,,,,,,,,,masks/mask_003.jpg,,,,,,,,,,,,,,,,,,,,,,,,,,,,,,,,,,,,,,,,,,,,,,,,0,1,1,2,1,,,,,,,,,,,,,,,,,,,,,,,,,,,,,,,,,,,,,,,,,
881941,001,2022-11-20_23h53.52.023,Info_measure_main_exp,2022.2.2,Win32,246.123554,,,,,,,,,,,,,,,,,,masks/mask_001.jpg,,,,,,,,,,,,,,,,,,,,,,,,,,,,,,,,,,,,,,,,,,,,,,,,0,2,2,0,1,,,,,,,,,,,,,,,,,,,,,,,,,,,,,,,,,,,,,,,,,
881941,001,2022-11-20_23h53.52.023,Info_measure_main_exp,2022.2.2,Win32,246.123554,,,,,,,,,,,,,,,,,,masks/mask_005.jpg,,,,,,,,,,,,,,,,,,,,,,,,,,,,,,,,,,,,,,,,,,,,,,,,0,3,3,4,1,,,,,,,,,,,,,,,,,,,,,,,,,,,,,,,,,,,,,,,,,
881941,001,2022-11-20_23h53.52.023,Info_measure_main_exp,2022.2.2,Win32,246.123554,,,,,,,,,,,,,,,,,,masks/mask_004.jpg,,,,,,,,,,,,,,,,,,,,,,,,,,,,,,,,,,,,,,,,,,,,,,,,0,4,4,3,1,,,,,,,,,,,,,,,,,,,,,,,,,,,,,,,,,,,,,,,,,
881941,001,2022-11-20_23h53.52.023,Info_measure_main_exp,2022.2.2,Win32,246.123554,,,,,,,,,,,,,,,,,,,,,,,,,,,,,,6,0.4842,1,,,,,,,,,,,,0,131,5,5,2142,2238,absent_patch/patch0002142.jpg,absent_patch/patch0002238.jpg,,,,,,,,,,,,,,,,,,,,0.077777792,0.032407407,1,0,0,response1disk,31,-0.016666624,-0.003703718,1,0,0,center_square,0,30,30,101,1,,,,,,,,,,,,,,,,,,,,,,,
881941,001,2022-11-20_23h53.52.023,Info_measure_main_exp,2022.2.2,Win32,246.123554,,,,,,,,,,,,,,,,,,masks/mask_001.jpg,,,,,,,,,,,,,,,,,,,,,,,,,,,,,,,,,,,,,,,,,,,0,0,0,0,1,,,,,,,,,,,,,,,,,,,,,,,,,,,,,,,,,,,,,,,,,,,,,,
881941,001,2022-11-20_23h53.52.023,Info_measure_main_exp,2022.2.2,Win32,246.123554,,,,,,,,,,,,,,,,,,masks/mask_003.jpg,,,,,,,,,,,,,,,,,,,,,,,,,,,,,,,,,,,,,,,,,,,0,1,1,2,1,,,,,,,,,,,,,,,,,,,,,,,,,,,,,,,,,,,,,,,,,,,,,,
881941,001,2022-11-20_23h53.52.023,Info_measure_main_exp,2022.2.2,Win32,246.123554,,,,,,,,,,,,,,,,,,masks/mask_005.jpg,,,,,,,,,,,,,,,,,,,,,,,,,,,,,,,,,,,,,,,,,,,0,2,2,4,1,,,,,,,,,,,,,,,,,,,,,,,,,,,,,,,,,,,,,,,,,,,,,,
881941,001,2022-11-20_23h53.52.023,Info_measure_main_exp,2022.2.2,Win32,246.123554,,,,,,,,,,,,,,,,,,masks/mask_004.jpg,,,,,,,,,,,,,,,,,,,,,,,,,,,,,,,,,,,,,,,,,,,0,3,3,3,1,,,,,,,,,,,,,,,,,,,,,,,,,,,,,,,,,,,,,,,,,,,,,,
881941,001,2022-11-20_23h53.52.023,Info_measure_main_exp,2022.2.2,Win32,246.123554,,,,,,,,,,,,,,,,,,masks/mask_002.jpg,,,,,,,,,,,,,,,,,,,,,,,,,,,,,,,,,,,,,,,,,,,0,4,4,1,1,,,,,,,,,,,,,,,,,,,,,,,,,,,,,,,,,,,,,,,,,,,,,,
881941,001,2022-11-20_23h53.52.023,Info_measure_main_exp,2022.2.2,Win32,246.123554,,,,,,,,,,,,,,,,,,masks/mask_005.jpg,,,,,,,,,,,,,,,,,,,,,,,,,,,,,,,,,,,,,,,,,,,,,,,,0,0,0,4,1,,,,,,,,,,,,,,,,,,,,,,,,,,,,,,,,,,,,,,,,,
881941,001,2022-11-20_23h53.52.023,Info_measure_main_exp,2022.2.2,Win32,246.123554,,,,,,,,,,,,,,,,,,masks/mask_003.jpg,,,,,,,,,,,,,,,,,,,,,,,,,,,,,,,,,,,,,,,,,,,,,,,,0,1,1,2,1,,,,,,,,,,,,,,,,,,,,,,,,,,,,,,,,,,,,,,,,,
881941,001,2022-11-20_23h53.52.023,Info_measure_main_exp,2022.2.2,Win32,246.123554,,,,,,,,,,,,,,,,,,masks/mask_002.jpg,,,,,,,,,,,,,,,,,,,,,,,,,,,,,,,,,,,,,,,,,,,,,,,,0,2,2,1,1,,,,,,,,,,,,,,,,,,,,,,,,,,,,,,,,,,,,,,,,,
881941,001,2022-11-20_23h53.52.023,Info_measure_main_exp,2022.2.2,Win32,246.123554,,,,,,,,,,,,,,,,,,masks/mask_001.jpg,,,,,,,,,,,,,,,,,,,,,,,,,,,,,,,,,,,,,,,,,,,,,,,,0,3,3,0,1,,,,,,,,,,,,,,,,,,,,,,,,,,,,,,,,,,,,,,,,,
881941,001,2022-11-20_23h53.52.023,Info_measure_main_exp,2022.2.2,Win32,246.123554,,,,,,,,,,,,,,,,,,masks/mask_004.jpg,,,,,,,,,,,,,,,,,,,,,,,,,,,,,,,,,,,,,,,,,,,,,,,,0,4,4,3,1,,,,,,,,,,,,,,,,,,,,,,,,,,,,,,,,,,,,,,,,,
881941,001,2022-11-20_23h53.52.023,Info_measure_main_exp,2022.2.2,Win32,246.123554,,,,,,,,,,,,,,,,,,,,,,,,,,,,,,4,0.5544,1,,,,,,,,,,,,0,131,5,5,2190,2238,absent_patch/patch0002190.jpg,absent_patch/patch0002238.jpg,,,,,,,,,,,,,,,,,,,,0.046296296,-0.101851852,1,0,0,response3disk,32,-0.007407365,0.011111118,1,0,0,center_square,0,31,31,53,1,,,,,,,,,,,,,,,,,,,,,,,
881941,001,2022-11-20_23h53.52.023,Info_measure_main_exp,2022.2.2,Win32,246.123554,,,,,,,,,,,,,,,,,,masks/mask_002.jpg,,,,,,,,,,,,,,,,,,,,,,,,,,,,,,,,,,,,,,,,,,,0,0,0,1,1,,,,,,,,,,,,,,,,,,,,,,,,,,,,,,,,,,,,,,,,,,,,,,
881941,001,2022-11-20_23h53.52.023,Info_measure_main_exp,2022.2.2,Win32,246.123554,,,,,,,,,,,,,,,,,,masks/mask_005.jpg,,,,,,,,,,,,,,,,,,,,,,,,,,,,,,,,,,,,,,,,,,,0,1,1,4,1,,,,,,,,,,,,,,,,,,,,,,,,,,,,,,,,,,,,,,,,,,,,,,
881941,001,2022-11-20_23h53.52.023,Info_measure_main_exp,2022.2.2,Win32,246.123554,,,,,,,,,,,,,,,,,,masks/mask_004.jpg,,,,,,,,,,,,,,,,,,,,,,,,,,,,,,,,,,,,,,,,,,,0,2,2,3,1,,,,,,,,,,,,,,,,,,,,,,,,,,,,,,,,,,,,,,,,,,,,,,
881941,001,2022-11-20_23h53.52.023,Info_measure_main_exp,2022.2.2,Win32,246.123554,,,,,,,,,,,,,,,,,,masks/mask_003.jpg,,,,,,,,,,,,,,,,,,,,,,,,,,,,,,,,,,,,,,,,,,,0,3,3,2,1,,,,,,,,,,,,,,,,,,,,,,,,,,,,,,,,,,,,,,,,,,,,,,
881941,001,2022-11-20_23h53.52.023,Info_measure_main_exp,2022.2.2,Win32,246.123554,,,,,,,,,,,,,,,,,,masks/mask_001.jpg,,,,,,,,,,,,,,,,,,,,,,,,,,,,,,,,,,,,,,,,,,,0,4,4,0,1,,,,,,,,,,,,,,,,,,,,,,,,,,,,,,,,,,,,,,,,,,,,,,
881941,001,2022-11-20_23h53.52.023,Info_measure_main_exp,2022.2.2,Win32,246.123554,,,,,,,,,,,,,,,,,,masks/mask_004.jpg,,,,,,,,,,,,,,,,,,,,,,,,,,,,,,,,,,,,,,,,,,,,,,,,0,0,0,3,1,,,,,,,,,,,,,,,,,,,,,,,,,,,,,,,,,,,,,,,,,
881941,001,2022-11-20_23h53.52.023,Info_measure_main_exp,2022.2.2,Win32,246.123554,,,,,,,,,,,,,,,,,,masks/mask_005.jpg,,,,,,,,,,,,,,,,,,,,,,,,,,,,,,,,,,,,,,,,,,,,,,,,0,1,1,4,1,,,,,,,,,,,,,,,,,,,,,,,,,,,,,,,,,,,,,,,,,
881941,001,2022-11-20_23h53.52.023,Info_measure_main_exp,2022.2.2,Win32,246.123554,,,,,,,,,,,,,,,,,,masks/mask_003.jpg,,,,,,,,,,,,,,,,,,,,,,,,,,,,,,,,,,,,,,,,,,,,,,,,0,2,2,2,1,,,,,,,,,,,,,,,,,,,,,,,,,,,,,,,,,,,,,,,,,
881941,001,2022-11-20_23h53.52.023,Info_measure_main_exp,2022.2.2,Win32,246.123554,,,,,,,,,,,,,,,,,,masks/mask_002.jpg,,,,,,,,,,,,,,,,,,,,,,,,,,,,,,,,,,,,,,,,,,,,,,,,0,3,3,1,1,,,,,,,,,,,,,,,,,,,,,,,,,,,,,,,,,,,,,,,,,
881941,001,2022-11-20_23h53.52.023,Info_measure_main_exp,2022.2.2,Win32,246.123554,,,,,,,,,,,,,,,,,,masks/mask_001.jpg,,,,,,,,,,,,,,,,,,,,,,,,,,,,,,,,,,,,,,,,,,,,,,,,0,4,4,0,1,,,,,,,,,,,,,,,,,,,,,,,,,,,,,,,,,,,,,,,,,
881941,001,2022-11-20_23h53.52.023,Info_measure_main_exp,2022.2.2,Win32,246.123554,,,,,,,,,,,,,,,,,,,,,,,,,,,,,,5,0.4882,1,,,,,,,,,,,,0,131,5,5,2178,1986,absent_patch/patch0002178.jpg,absent_patch/patch0001986.jpg,,,,,,,,,,,,,,,,,,,,0.092592593,-0.012962977,1,0,0,response3disk,33,0.005555541,0.001851859,1,0,0,center_square,0,32,32,46,1,,,,,,,,,,,,,,,,,,,,,,,
881941,001,2022-11-20_23h53.52.023,Info_measure_main_exp,2022.2.2,Win32,246.123554,,,,,,,,,,,,,,,,,,masks/mask_004.jpg,,,,,,,,,,,,,,,,,,,,,,,,,,,,,,,,,,,,,,,,,,,0,0,0,3,1,,,,,,,,,,,,,,,,,,,,,,,,,,,,,,,,,,,,,,,,,,,,,,
881941,001,2022-11-20_23h53.52.023,Info_measure_main_exp,2022.2.2,Win32,246.123554,,,,,,,,,,,,,,,,,,masks/mask_001.jpg,,,,,,,,,,,,,,,,,,,,,,,,,,,,,,,,,,,,,,,,,,,0,1,1,0,1,,,,,,,,,,,,,,,,,,,,,,,,,,,,,,,,,,,,,,,,,,,,,,
881941,001,2022-11-20_23h53.52.023,Info_measure_main_exp,2022.2.2,Win32,246.123554,,,,,,,,,,,,,,,,,,masks/mask_002.jpg,,,,,,,,,,,,,,,,,,,,,,,,,,,,,,,,,,,,,,,,,,,0,2,2,1,1,,,,,,,,,,,,,,,,,,,,,,,,,,,,,,,,,,,,,,,,,,,,,,
881941,001,2022-11-20_23h53.52.023,Info_measure_main_exp,2022.2.2,Win32,246.123554,,,,,,,,,,,,,,,,,,masks/mask_005.jpg,,,,,,,,,,,,,,,,,,,,,,,,,,,,,,,,,,,,,,,,,,,0,3,3,4,1,,,,,,,,,,,,,,,,,,,,,,,,,,,,,,,,,,,,,,,,,,,,,,
881941,001,2022-11-20_23h53.52.023,Info_measure_main_exp,2022.2.2,Win32,246.123554,,,,,,,,,,,,,,,,,,masks/mask_003.jpg,,,,,,,,,,,,,,,,,,,,,,,,,,,,,,,,,,,,,,,,,,,0,4,4,2,1,,,,,,,,,,,,,,,,,,,,,,,,,,,,,,,,,,,,,,,,,,,,,,
881941,001,2022-11-20_23h53.52.023,Info_measure_main_exp,2022.2.2,Win32,246.123554,,,,,,,,,,,,,,,,,,masks/mask_005.jpg,,,,,,,,,,,,,,,,,,,,,,,,,,,,,,,,,,,,,,,,,,,,,,,,0,0,0,4,1,,,,,,,,,,,,,,,,,,,,,,,,,,,,,,,,,,,,,,,,,
881941,001,2022-11-20_23h53.52.023,Info_measure_main_exp,2022.2.2,Win32,246.123554,,,,,,,,,,,,,,,,,,masks/mask_003.jpg,,,,,,,,,,,,,,,,,,,,,,,,,,,,,,,,,,,,,,,,,,,,,,,,0,1,1,2,1,,,,,,,,,,,,,,,,,,,,,,,,,,,,,,,,,,,,,,,,,
881941,001,2022-11-20_23h53.52.023,Info_measure_main_exp,2022.2.2,Win32,246.123554,,,,,,,,,,,,,,,,,,masks/mask_004.jpg,,,,,,,,,,,,,,,,,,,,,,,,,,,,,,,,,,,,,,,,,,,,,,,,0,2,2,3,1,,,,,,,,,,,,,,,,,,,,,,,,,,,,,,,,,,,,,,,,,
881941,001,2022-11-20_23h53.52.023,Info_measure_main_exp,2022.2.2,Win32,246.123554,,,,,,,,,,,,,,,,,,masks/mask_002.jpg,,,,,,,,,,,,,,,,,,,,,,,,,,,,,,,,,,,,,,,,,,,,,,,,0,3,3,1,1,,,,,,,,,,,,,,,,,,,,,,,,,,,,,,,,,,,,,,,,,
881941,001,2022-11-20_23h53.52.023,Info_measure_main_exp,2022.2.2,Win32,246.123554,,,,,,,,,,,,,,,,,,masks/mask_001.jpg,,,,,,,,,,,,,,,,,,,,,,,,,,,,,,,,,,,,,,,,,,,,,,,,0,4,4,0,1,,,,,,,,,,,,,,,,,,,,,,,,,,,,,,,,,,,,,,,,,
881941,001,2022-11-20_23h53.52.023,Info_measure_main_exp,2022.2.2,Win32,246.123554,,,,,,,,,,,,,,,,,,,,,,,,,,,,,,5,0.6547,1,,,,,,,,,,,,0,131,5,5,1974,2250,absent_patch/patch0001974.jpg,absent_patch/patch0002250.jpg,,,,,,,,,,,,,,,,,,,,0.135185171,-0.050925926,1,0,0,response3disk,34,0.013888889,0,1,0,0,center_square,0,33,33,55,1,,,,,,,,,,,,,,,,,,,,,,,
881941,001,2022-11-20_23h53.52.023,Info_measure_main_exp,2022.2.2,Win32,246.123554,,,,,,,,,,,,,,,,,,masks/mask_004.jpg,,,,,,,,,,,,,,,,,,,,,,,,,,,,,,,,,,,,,,,,,,,0,0,0,3,1,,,,,,,,,,,,,,,,,,,,,,,,,,,,,,,,,,,,,,,,,,,,,,
881941,001,2022-11-20_23h53.52.023,Info_measure_main_exp,2022.2.2,Win32,246.123554,,,,,,,,,,,,,,,,,,masks/mask_001.jpg,,,,,,,,,,,,,,,,,,,,,,,,,,,,,,,,,,,,,,,,,,,0,1,1,0,1,,,,,,,,,,,,,,,,,,,,,,,,,,,,,,,,,,,,,,,,,,,,,,
881941,001,2022-11-20_23h53.52.023,Info_measure_main_exp,2022.2.2,Win32,246.123554,,,,,,,,,,,,,,,,,,masks/mask_002.jpg,,,,,,,,,,,,,,,,,,,,,,,,,,,,,,,,,,,,,,,,,,,0,2,2,1,1,,,,,,,,,,,,,,,,,,,,,,,,,,,,,,,,,,,,,,,,,,,,,,
881941,001,2022-11-20_23h53.52.023,Info_measure_main_exp,2022.2.2,Win32,246.123554,,,,,,,,,,,,,,,,,,masks/mask_003.jpg,,,,,,,,,,,,,,,,,,,,,,,,,,,,,,,,,,,,,,,,,,,0,3,3,2,1,,,,,,,,,,,,,,,,,,,,,,,,,,,,,,,,,,,,,,,,,,,,,,
881941,001,2022-11-20_23h53.52.023,Info_measure_main_exp,2022.2.2,Win32,246.123554,,,,,,,,,,,,,,,,,,masks/mask_005.jpg,,,,,,,,,,,,,,,,,,,,,,,,,,,,,,,,,,,,,,,,,,,0,4,4,4,1,,,,,,,,,,,,,,,,,,,,,,,,,,,,,,,,,,,,,,,,,,,,,,
881941,001,2022-11-20_23h53.52.023,Info_measure_main_exp,2022.2.2,Win32,246.123554,,,,,,,,,,,,,,,,,,masks/mask_002.jpg,,,,,,,,,,,,,,,,,,,,,,,,,,,,,,,,,,,,,,,,,,,,,,,,0,0,0,1,1,,,,,,,,,,,,,,,,,,,,,,,,,,,,,,,,,,,,,,,,,
881941,001,2022-11-20_23h53.52.023,Info_measure_main_exp,2022.2.2,Win32,246.123554,,,,,,,,,,,,,,,,,,masks/mask_003.jpg,,,,,,,,,,,,,,,,,,,,,,,,,,,,,,,,,,,,,,,,,,,,,,,,0,1,1,2,1,,,,,,,,,,,,,,,,,,,,,,,,,,,,,,,,,,,,,,,,,
881941,001,2022-11-20_23h53.52.023,Info_measure_main_exp,2022.2.2,Win32,246.123554,,,,,,,,,,,,,,,,,,masks/mask_001.jpg,,,,,,,,,,,,,,,,,,,,,,,,,,,,,,,,,,,,,,,,,,,,,,,,0,2,2,0,1,,,,,,,,,,,,,,,,,,,,,,,,,,,,,,,,,,,,,,,,,
881941,001,2022-11-20_23h53.52.023,Info_measure_main_exp,2022.2.2,Win32,246.123554,,,,,,,,,,,,,,,,,,masks/mask_004.jpg,,,,,,,,,,,,,,,,,,,,,,,,,,,,,,,,,,,,,,,,,,,,,,,,0,3,3,3,1,,,,,,,,,,,,,,,,,,,,,,,,,,,,,,,,,,,,,,,,,
881941,001,2022-11-20_23h53.52.023,Info_measure_main_exp,2022.2.2,Win32,246.123554,,,,,,,,,,,,,,,,,,masks/mask_005.jpg,,,,,,,,,,,,,,,,,,,,,,,,,,,,,,,,,,,,,,,,,,,,,,,,0,4,4,4,1,,,,,,,,,,,,,,,,,,,,,,,,,,,,,,,,,,,,,,,,,
