participant,session,date,expName,psychopyVersion,OS,frameRate,space_press_continue.keys,space_press_continue.rt,space_press_continue_2.keys,space_press_continue_2.rt,space_press_continue_3.keys,space_press_continue_3.rt,space_press_continue_4.keys,space_press_continue_4.rt,space_press_continue_5.keys,space_press_continue_5.rt,space_press_continue_6.keys,space_press_continue_6.rt,prac_mask_loop_1.thisRepN,prac_mask_loop_1.thisTrialN,prac_mask_loop_1.thisN,prac_mask_loop_1.thisIndex,prac_mask_loop_1.ran,mask_name,prac_mask_loop_2.thisRepN,prac_mask_loop_2.thisTrialN,prac_mask_loop_2.thisN,prac_mask_loop_2.thisIndex,prac_mask_loop_2.ran,mouse_2.x,mouse_2.y,mouse_2.leftButton,mouse_2.midButton,mouse_2.rightButton,mouse_2.clicked_name,similarity,response_time,Pass,mouse_12.x,mouse_12.y,mouse_12.leftButton,mouse_12.midButton,mouse_12.rightButton,mouse_12.clicked_name,prac_loop.thisRepN,prac_loop.thisTrialN,prac_loop.thisN,prac_loop.thisIndex,prac_loop.ran,Pair_type,Image_num,Patch_1_loc,Patch_2_loc,Patch_1_info,Patch_2_info,Patch_1_name,Patch_2_name,mouse_1.x,mouse_1.y,mouse_1.leftButton,mouse_1.midButton,mouse_1.rightButton,mouse_1.time,mouse_1.clicked_name,space_press_continue_7.keys,space_press_continue_7.rt,mask_loop.thisRepN,mask_loop.thisTrialN,mask_loop.thisN,mask_loop.thisIndex,mask_loop.ran,mask_loop_2.thisRepN,mask_loop_2.thisTrialN,mask_loop_2.thisN,mask_loop_2.thisIndex,mask_loop_2.ran,mouse.x,mouse.y,mouse.leftButton,mouse.midButton,mouse.rightButton,mouse.clicked_name,trialNumber,mouse_11.x,mouse_11.y,mouse_11.leftButton,mouse_11.midButton,mouse_11.rightButton,mouse_11.clicked_name,first_pass_loop.thisRepN,first_pass_loop.thisTrialN,first_pass_loop.thisN,first_pass_loop.thisIndex,first_pass_loop.ran,mask_loop_3.thisRepN,mask_loop_3.thisTrialN,mask_loop_3.thisN,mask_loop_3.thisIndex,mask_loop_3.ran,mask_loop_4.thisRepN,mask_loop_4.thisTrialN,mask_loop_4.thisN,mask_loop_4.thisIndex,mask_loop_4.ran,mouse_3.x,mouse_3.y,mouse_3.leftButton,mouse_3.midButton,mouse_3.rightButton,mouse_3.clicked_name,double_pass_loop.thisRepN,double_pass_loop.thisTrialN,double_pass_loop.thisN,double_pass_loop.thisIndex,double_pass_loop.ran,space_exit.keys,space_exit.rt
889174,001,2022-11-20_17h53.45.378,Info_measure_main_exp,2022.2.2,Win32,61.56877232,,,,,,,,,,,,,,,,,,,,,,,,,,,,,,,,,,,,,,,,,,,,,,,,,,,,,,,,,,,,,,,,,,,,,,,,,,,,,,,,,,,,,,,,,,,,,,,,,,,,,,,,,,,,,,,
889174,001,2022-11-20_17h53.45.378,Info_measure_main_exp,2022.2.2,Win32,61.56877232,,,,,,,,,,,,,,,,,,,,,,,,,,,,,,,,,,,,,,,,,,,,,,,,,,,,,,,,,,,,,,,,,,,,,,,,,,,,,,,,,,,,,,,,,,,,,,,,,,,,,,,,,,,,,,,
889174,001,2022-11-20_17h53.45.378,Info_measure_main_exp,2022.2.2,Win32,61.56877232,space,33.5019,,,,,,,,,,,,,,,,,,,,,,,,,,,,,,,,,,,,,,,,,,,,,,,,,,,,,,,,,,,,,,,,,,,,,,,,,,,,,,,,,,,,,,,,,,,,,,,,,,,,,,,,,,,,,
889174,001,2022-11-20_17h53.45.378,Info_measure_main_exp,2022.2.2,Win32,61.56877232,,,space,21.1425,,,,,,,,,,,,,,,,,,,,,,,,,,,,,,,,,,,,,,,,,,,,,,,,,,,,,,,,,,,,,,,,,,,,,,,,,,,,,,,,,,,,,,,,,,,,,,,,,,,,,,,,,,,
889174,001,2022-11-20_17h53.45.378,Info_measure_main_exp,2022.2.2,Win32,61.56877232,,,,,space,15.3784,,,,,,,,,,,,,,,,,,,,,,,,,,,,,,,,,,,,,,,,,,,,,,,,,,,,,,,,,,,,,,,,,,,,,,,,,,,,,,,,,,,,,,,,,,,,,,,,,,,,,,,,,
889174,001,2022-11-20_17h53.45.378,Info_measure_main_exp,2022.2.2,Win32,61.56877232,,,,,,,space,24.2393,,,,,,,,,,,,,,,,,,,,,,,,,,,,,,,,,,,,,,,,,,,,,,,,,,,,,,,,,,,,,,,,,,,,,,,,,,,,,,,,,,,,,,,,,,,,,,,,,,,,,,,
889174,001,2022-11-20_17h53.45.378,Info_measure_main_exp,2022.2.2,Win32,61.56877232,,,,,,,,,space,18.0201,,,,,,,,,,,,,,,,,,,,,,,,,,,,,,,,,,,,,,,,,,,,,,,,,,,,,,,,,,,,,,,,,,,,,,,,,,,,,,,,,,,,,,,,,,,,,,,,,,,,,
889174,001,2022-11-20_17h53.45.378,Info_measure_main_exp,2022.2.2,Win32,61.56877232,,,,,,,,,,,space,75.3824,,,,,,,,,,,,,,,,,,,,,,,,,,,,,,,,,,,,,,,,,,,,,,,,,,,,,,,,,,,,,,,,,,,,,,,,,,,,,,,,,,,,,,,,,,,,,,,,,,,
889174,001,2022-11-20_17h53.45.378,Info_measure_main_exp,2022.2.2,Win32,61.56877232,,,,,,,,,,,,,0,0,0,4,1,masks/mask_005.jpg,,,,,,,,,,,,,,,,,,,,,,,,,,,,,,,,,,,,,,,,,,,,,,,,,,,,,,,,,,,,,,,,,,,,,,,,,,,,,,,,,,,,,,,,,,,,,
889174,001,2022-11-20_17h53.45.378,Info_measure_main_exp,2022.2.2,Win32,61.56877232,,,,,,,,,,,,,0,1,1,1,1,masks/mask_002.jpg,,,,,,,,,,,,,,,,,,,,,,,,,,,,,,,,,,,,,,,,,,,,,,,,,,,,,,,,,,,,,,,,,,,,,,,,,,,,,,,,,,,,,,,,,,,,,
889174,001,2022-11-20_17h53.45.378,Info_measure_main_exp,2022.2.2,Win32,61.56877232,,,,,,,,,,,,,0,2,2,3,1,masks/mask_004.jpg,,,,,,,,,,,,,,,,,,,,,,,,,,,,,,,,,,,,,,,,,,,,,,,,,,,,,,,,,,,,,,,,,,,,,,,,,,,,,,,,,,,,,,,,,,,,,
889174,001,2022-11-20_17h53.45.378,Info_measure_main_exp,2022.2.2,Win32,61.56877232,,,,,,,,,,,,,0,3,3,0,1,masks/mask_001.jpg,,,,,,,,,,,,,,,,,,,,,,,,,,,,,,,,,,,,,,,,,,,,,,,,,,,,,,,,,,,,,,,,,,,,,,,,,,,,,,,,,,,,,,,,,,,,,
889174,001,2022-11-20_17h53.45.378,Info_measure_main_exp,2022.2.2,Win32,61.56877232,,,,,,,,,,,,,0,4,4,2,1,masks/mask_003.jpg,,,,,,,,,,,,,,,,,,,,,,,,,,,,,,,,,,,,,,,,,,,,,,,,,,,,,,,,,,,,,,,,,,,,,,,,,,,,,,,,,,,,,,,,,,,,,
889174,001,2022-11-20_17h53.45.378,Info_measure_main_exp,2022.2.2,Win32,61.56877232,,,,,,,,,,,,,,,,,,masks/mask_001.jpg,0,0,0,0,1,,,,,,,,,,,,,,,,,,,,,,,,,,,,,,,,,,,,,,,,,,,,,,,,,,,,,,,,,,,,,,,,,,,,,,,,,,,,,,,,,,,,,,,,
889174,001,2022-11-20_17h53.45.378,Info_measure_main_exp,2022.2.2,Win32,61.56877232,,,,,,,,,,,,,,,,,,masks/mask_003.jpg,0,1,1,2,1,,,,,,,,,,,,,,,,,,,,,,,,,,,,,,,,,,,,,,,,,,,,,,,,,,,,,,,,,,,,,,,,,,,,,,,,,,,,,,,,,,,,,,,,
889174,001,2022-11-20_17h53.45.378,Info_measure_main_exp,2022.2.2,Win32,61.56877232,,,,,,,,,,,,,,,,,,masks/mask_002.jpg,0,2,2,1,1,,,,,,,,,,,,,,,,,,,,,,,,,,,,,,,,,,,,,,,,,,,,,,,,,,,,,,,,,,,,,,,,,,,,,,,,,,,,,,,,,,,,,,,,
889174,001,2022-11-20_17h53.45.378,Info_measure_main_exp,2022.2.2,Win32,61.56877232,,,,,,,,,,,,,,,,,,masks/mask_004.jpg,0,3,3,3,1,,,,,,,,,,,,,,,,,,,,,,,,,,,,,,,,,,,,,,,,,,,,,,,,,,,,,,,,,,,,,,,,,,,,,,,,,,,,,,,,,,,,,,,,
889174,001,2022-11-20_17h53.45.378,Info_measure_main_exp,2022.2.2,Win32,61.56877232,,,,,,,,,,,,,,,,,,masks/mask_005.jpg,0,4,4,4,1,,,,,,,,,,,,,,,,,,,,,,,,,,,,,,,,,,,,,,,,,,,,,,,,,,,,,,,,,,,,,,,,,,,,,,,,,,,,,,,,,,,,,,,,
889174,001,2022-11-20_17h53.45.378,Info_measure_main_exp,2022.2.2,Win32,61.56877232,,,,,,,,,,,,,,,,,,,,,,,,0.037760417,-0.154947917,1,0,0,response3disk,4,199.2017,1,0.002604167,0.001302083,1,0,0,center_square,0,0,0,0,1,0,131,5,5,2370,2406,prac_patch/patch0002370.jpg,prac_patch/patch0002406.jpg,,,,,,,,,,,,,,,,,,,,,,,,,,,,,,,,,,,,,,,,,,,,,,,,,,,,,,,,,,,,
889174,001,2022-11-20_17h53.45.378,Info_measure_main_exp,2022.2.2,Win32,61.56877232,,,,,,,,,,,,,0,0,0,4,1,masks/mask_005.jpg,,,,,,,,,,,,,,,,,,,,,,,,,,,,,,,,,,,,,,,,,,,,,,,,,,,,,,,,,,,,,,,,,,,,,,,,,,,,,,,,,,,,,,,,,,,,,
889174,001,2022-11-20_17h53.45.378,Info_measure_main_exp,2022.2.2,Win32,61.56877232,,,,,,,,,,,,,0,1,1,1,1,masks/mask_002.jpg,,,,,,,,,,,,,,,,,,,,,,,,,,,,,,,,,,,,,,,,,,,,,,,,,,,,,,,,,,,,,,,,,,,,,,,,,,,,,,,,,,,,,,,,,,,,,
889174,001,2022-11-20_17h53.45.378,Info_measure_main_exp,2022.2.2,Win32,61.56877232,,,,,,,,,,,,,0,2,2,0,1,masks/mask_001.jpg,,,,,,,,,,,,,,,,,,,,,,,,,,,,,,,,,,,,,,,,,,,,,,,,,,,,,,,,,,,,,,,,,,,,,,,,,,,,,,,,,,,,,,,,,,,,,
889174,001,2022-11-20_17h53.45.378,Info_measure_main_exp,2022.2.2,Win32,61.56877232,,,,,,,,,,,,,0,3,3,3,1,masks/mask_004.jpg,,,,,,,,,,,,,,,,,,,,,,,,,,,,,,,,,,,,,,,,,,,,,,,,,,,,,,,,,,,,,,,,,,,,,,,,,,,,,,,,,,,,,,,,,,,,,
889174,001,2022-11-20_17h53.45.378,Info_measure_main_exp,2022.2.2,Win32,61.56877232,,,,,,,,,,,,,0,4,4,2,1,masks/mask_003.jpg,,,,,,,,,,,,,,,,,,,,,,,,,,,,,,,,,,,,,,,,,,,,,,,,,,,,,,,,,,,,,,,,,,,,,,,,,,,,,,,,,,,,,,,,,,,,,
889174,001,2022-11-20_17h53.45.378,Info_measure_main_exp,2022.2.2,Win32,61.56877232,,,,,,,,,,,,,,,,,,masks/mask_004.jpg,0,0,0,3,1,,,,,,,,,,,,,,,,,,,,,,,,,,,,,,,,,,,,,,,,,,,,,,,,,,,,,,,,,,,,,,,,,,,,,,,,,,,,,,,,,,,,,,,,
889174,001,2022-11-20_17h53.45.378,Info_measure_main_exp,2022.2.2,Win32,61.56877232,,,,,,,,,,,,,,,,,,masks/mask_005.jpg,0,1,1,4,1,,,,,,,,,,,,,,,,,,,,,,,,,,,,,,,,,,,,,,,,,,,,,,,,,,,,,,,,,,,,,,,,,,,,,,,,,,,,,,,,,,,,,,,,
889174,001,2022-11-20_17h53.45.378,Info_measure_main_exp,2022.2.2,Win32,61.56877232,,,,,,,,,,,,,,,,,,masks/mask_002.jpg,0,2,2,1,1,,,,,,,,,,,,,,,,,,,,,,,,,,,,,,,,,,,,,,,,,,,,,,,,,,,,,,,,,,,,,,,,,,,,,,,,,,,,,,,,,,,,,,,,
889174,001,2022-11-20_17h53.45.378,Info_measure_main_exp,2022.2.2,Win32,61.56877232,,,,,,,,,,,,,,,,,,masks/mask_003.jpg,0,3,3,2,1,,,,,,,,,,,,,,,,,,,,,,,,,,,,,,,,,,,,,,,,,,,,,,,,,,,,,,,,,,,,,,,,,,,,,,,,,,,,,,,,,,,,,,,,
889174,001,2022-11-20_17h53.45.378,Info_measure_main_exp,2022.2.2,Win32,61.56877232,,,,,,,,,,,,,,,,,,masks/mask_001.jpg,0,4,4,0,1,,,,,,,,,,,,,,,,,,,,,,,,,,,,,,,,,,,,,,,,,,,,,,,,,,,,,,,,,,,,,,,,,,,,,,,,,,,,,,,,,,,,,,,,
889174,001,2022-11-20_17h53.45.378,Info_measure_main_exp,2022.2.2,Win32,61.56877232,,,,,,,,,,,,,,,,,,,,,,,,-0.143229167,-0.02734375,1,0,0,response5disk,2,209.0021,1,-0.00390625,0.014322917,1,0,0,center_square,0,1,1,2,1,0,131,5,5,2526,2526,prac_patch/patch0002526.jpg,prac_patch/patch0002526.jpg,,,,,,,,,,,,,,,,,,,,,,,,,,,,,,,,,,,,,,,,,,,,,,,,,,,,,,,,,,,,
889174,001,2022-11-20_17h53.45.378,Info_measure_main_exp,2022.2.2,Win32,61.56877232,,,,,,,,,,,,,0,0,0,2,1,masks/mask_003.jpg,,,,,,,,,,,,,,,,,,,,,,,,,,,,,,,,,,,,,,,,,,,,,,,,,,,,,,,,,,,,,,,,,,,,,,,,,,,,,,,,,,,,,,,,,,,,,
889174,001,2022-11-20_17h53.45.378,Info_measure_main_exp,2022.2.2,Win32,61.56877232,,,,,,,,,,,,,0,1,1,3,1,masks/mask_004.jpg,,,,,,,,,,,,,,,,,,,,,,,,,,,,,,,,,,,,,,,,,,,,,,,,,,,,,,,,,,,,,,,,,,,,,,,,,,,,,,,,,,,,,,,,,,,,,
889174,001,2022-11-20_17h53.45.378,Info_measure_main_exp,2022.2.2,Win32,61.56877232,,,,,,,,,,,,,0,2,2,4,1,masks/mask_005.jpg,,,,,,,,,,,,,,,,,,,,,,,,,,,,,,,,,,,,,,,,,,,,,,,,,,,,,,,,,,,,,,,,,,,,,,,,,,,,,,,,,,,,,,,,,,,,,
889174,001,2022-11-20_17h53.45.378,Info_measure_main_exp,2022.2.2,Win32,61.56877232,,,,,,,,,,,,,0,3,3,1,1,masks/mask_002.jpg,,,,,,,,,,,,,,,,,,,,,,,,,,,,,,,,,,,,,,,,,,,,,,,,,,,,,,,,,,,,,,,,,,,,,,,,,,,,,,,,,,,,,,,,,,,,,
889174,001,2022-11-20_17h53.45.378,Info_measure_main_exp,2022.2.2,Win32,61.56877232,,,,,,,,,,,,,0,4,4,0,1,masks/mask_001.jpg,,,,,,,,,,,,,,,,,,,,,,,,,,,,,,,,,,,,,,,,,,,,,,,,,,,,,,,,,,,,,,,,,,,,,,,,,,,,,,,,,,,,,,,,,,,,,
889174,001,2022-11-20_17h53.45.378,Info_measure_main_exp,2022.2.2,Win32,61.56877232,,,,,,,,,,,,,,,,,,masks/mask_003.jpg,0,0,0,2,1,,,,,,,,,,,,,,,,,,,,,,,,,,,,,,,,,,,,,,,,,,,,,,,,,,,,,,,,,,,,,,,,,,,,,,,,,,,,,,,,,,,,,,,,
889174,001,2022-11-20_17h53.45.378,Info_measure_main_exp,2022.2.2,Win32,61.56877232,,,,,,,,,,,,,,,,,,masks/mask_001.jpg,0,1,1,0,1,,,,,,,,,,,,,,,,,,,,,,,,,,,,,,,,,,,,,,,,,,,,,,,,,,,,,,,,,,,,,,,,,,,,,,,,,,,,,,,,,,,,,,,,
889174,001,2022-11-20_17h53.45.378,Info_measure_main_exp,2022.2.2,Win32,61.56877232,,,,,,,,,,,,,,,,,,masks/mask_002.jpg,0,2,2,1,1,,,,,,,,,,,,,,,,,,,,,,,,,,,,,,,,,,,,,,,,,,,,,,,,,,,,,,,,,,,,,,,,,,,,,,,,,,,,,,,,,,,,,,,,
889174,001,2022-11-20_17h53.45.378,Info_measure_main_exp,2022.2.2,Win32,61.56877232,,,,,,,,,,,,,,,,,,masks/mask_004.jpg,0,3,3,3,1,,,,,,,,,,,,,,,,,,,,,,,,,,,,,,,,,,,,,,,,,,,,,,,,,,,,,,,,,,,,,,,,,,,,,,,,,,,,,,,,,,,,,,,,
889174,001,2022-11-20_17h53.45.378,Info_measure_main_exp,2022.2.2,Win32,61.56877232,,,,,,,,,,,,,,,,,,masks/mask_005.jpg,0,4,4,4,1,,,,,,,,,,,,,,,,,,,,,,,,,,,,,,,,,,,,,,,,,,,,,,,,,,,,,,,,,,,,,,,,,,,,,,,,,,,,,,,,,,,,,,,,
889174,001,2022-11-20_17h53.45.378,Info_measure_main_exp,2022.2.2,Win32,61.56877232,,,,,,,,,,,,,,,,,,,,,,,,0.0859375,-0.055989583,1,0,0,response3disk,5,217.8104,1,0.00390625,0.002604167,1,0,0,center_square,0,2,2,1,1,0,131,5,5,2514,2490,prac_patch/patch0002514.jpg,prac_patch/patch0002490.jpg,,,,,,,,,,,,,,,,,,,,,,,,,,,,,,,,,,,,,,,,,,,,,,,,,,,,,,,,,,,,
889174,001,2022-11-20_17h53.45.378,Info_measure_main_exp,2022.2.2,Win32,61.56877232,,,,,,,,,,,,,,,,,,,,,,,,,,,,,,,,,,,,,,,,,,,,,,,,,,,,,,,,,,,space,2.4157,,,,,,,,,,,,,,,,,,,,,,,,,,,,,,,,,,,,,,,,,,,,,,,,,,,
889174,001,2022-11-20_17h53.45.378,Info_measure_main_exp,2022.2.2,Win32,61.56877232,,,,,,,,,,,,,,,,,,masks/mask_001.jpg,,,,,,,,,,,,,,,,,,,,,,,,,,,,,,,,,,,,,,,,,,,0,0,0,0,1,,,,,,,,,,,,,,,,,,,,,,,,,,,,,,,,,,,,,,,,,,,,,,
889174,001,2022-11-20_17h53.45.378,Info_measure_main_exp,2022.2.2,Win32,61.56877232,,,,,,,,,,,,,,,,,,masks/mask_003.jpg,,,,,,,,,,,,,,,,,,,,,,,,,,,,,,,,,,,,,,,,,,,0,1,1,2,1,,,,,,,,,,,,,,,,,,,,,,,,,,,,,,,,,,,,,,,,,,,,,,
889174,001,2022-11-20_17h53.45.378,Info_measure_main_exp,2022.2.2,Win32,61.56877232,,,,,,,,,,,,,,,,,,masks/mask_002.jpg,,,,,,,,,,,,,,,,,,,,,,,,,,,,,,,,,,,,,,,,,,,0,2,2,1,1,,,,,,,,,,,,,,,,,,,,,,,,,,,,,,,,,,,,,,,,,,,,,,
889174,001,2022-11-20_17h53.45.378,Info_measure_main_exp,2022.2.2,Win32,61.56877232,,,,,,,,,,,,,,,,,,masks/mask_005.jpg,,,,,,,,,,,,,,,,,,,,,,,,,,,,,,,,,,,,,,,,,,,0,3,3,4,1,,,,,,,,,,,,,,,,,,,,,,,,,,,,,,,,,,,,,,,,,,,,,,
889174,001,2022-11-20_17h53.45.378,Info_measure_main_exp,2022.2.2,Win32,61.56877232,,,,,,,,,,,,,,,,,,masks/mask_004.jpg,,,,,,,,,,,,,,,,,,,,,,,,,,,,,,,,,,,,,,,,,,,0,4,4,3,1,,,,,,,,,,,,,,,,,,,,,,,,,,,,,,,,,,,,,,,,,,,,,,
889174,001,2022-11-20_17h53.45.378,Info_measure_main_exp,2022.2.2,Win32,61.56877232,,,,,,,,,,,,,,,,,,masks/mask_003.jpg,,,,,,,,,,,,,,,,,,,,,,,,,,,,,,,,,,,,,,,,,,,,,,,,0,0,0,2,1,,,,,,,,,,,,,,,,,,,,,,,,,,,,,,,,,,,,,,,,,
889174,001,2022-11-20_17h53.45.378,Info_measure_main_exp,2022.2.2,Win32,61.56877232,,,,,,,,,,,,,,,,,,masks/mask_001.jpg,,,,,,,,,,,,,,,,,,,,,,,,,,,,,,,,,,,,,,,,,,,,,,,,0,1,1,0,1,,,,,,,,,,,,,,,,,,,,,,,,,,,,,,,,,,,,,,,,,
889174,001,2022-11-20_17h53.45.378,Info_measure_main_exp,2022.2.2,Win32,61.56877232,,,,,,,,,,,,,,,,,,masks/mask_004.jpg,,,,,,,,,,,,,,,,,,,,,,,,,,,,,,,,,,,,,,,,,,,,,,,,0,2,2,3,1,,,,,,,,,,,,,,,,,,,,,,,,,,,,,,,,,,,,,,,,,
889174,001,2022-11-20_17h53.45.378,Info_measure_main_exp,2022.2.2,Win32,61.56877232,,,,,,,,,,,,,,,,,,masks/mask_005.jpg,,,,,,,,,,,,,,,,,,,,,,,,,,,,,,,,,,,,,,,,,,,,,,,,0,3,3,4,1,,,,,,,,,,,,,,,,,,,,,,,,,,,,,,,,,,,,,,,,,
889174,001,2022-11-20_17h53.45.378,Info_measure_main_exp,2022.2.2,Win32,61.56877232,,,,,,,,,,,,,,,,,,masks/mask_002.jpg,,,,,,,,,,,,,,,,,,,,,,,,,,,,,,,,,,,,,,,,,,,,,,,,0,4,4,1,1,,,,,,,,,,,,,,,,,,,,,,,,,,,,,,,,,,,,,,,,,
889174,001,2022-11-20_17h53.45.378,Info_measure_main_exp,2022.2.2,Win32,61.56877232,,,,,,,,,,,,,,,,,,,,,,,,,,,,,,7,0.9669,1,,,,,,,,,,,,0,131,5,5,2214,1986,absent_patch/patch0002214.jpg,absent_patch/patch0001986.jpg,,,,,,,,,,,,,,,,,,,,0.02734375,0.087239583,1,0,0,response1disk,1,-0.00390625,-0.002604167,1,0,0,center_square,0,0,0,34,1,,,,,,,,,,,,,,,,,,,,,,,
889174,001,2022-11-20_17h53.45.378,Info_measure_main_exp,2022.2.2,Win32,61.56877232,,,,,,,,,,,,,,,,,,masks/mask_002.jpg,,,,,,,,,,,,,,,,,,,,,,,,,,,,,,,,,,,,,,,,,,,0,0,0,1,1,,,,,,,,,,,,,,,,,,,,,,,,,,,,,,,,,,,,,,,,,,,,,,
889174,001,2022-11-20_17h53.45.378,Info_measure_main_exp,2022.2.2,Win32,61.56877232,,,,,,,,,,,,,,,,,,masks/mask_004.jpg,,,,,,,,,,,,,,,,,,,,,,,,,,,,,,,,,,,,,,,,,,,0,1,1,3,1,,,,,,,,,,,,,,,,,,,,,,,,,,,,,,,,,,,,,,,,,,,,,,
889174,001,2022-11-20_17h53.45.378,Info_measure_main_exp,2022.2.2,Win32,61.56877232,,,,,,,,,,,,,,,,,,masks/mask_001.jpg,,,,,,,,,,,,,,,,,,,,,,,,,,,,,,,,,,,,,,,,,,,0,2,2,0,1,,,,,,,,,,,,,,,,,,,,,,,,,,,,,,,,,,,,,,,,,,,,,,
889174,001,2022-11-20_17h53.45.378,Info_measure_main_exp,2022.2.2,Win32,61.56877232,,,,,,,,,,,,,,,,,,masks/mask_005.jpg,,,,,,,,,,,,,,,,,,,,,,,,,,,,,,,,,,,,,,,,,,,0,3,3,4,1,,,,,,,,,,,,,,,,,,,,,,,,,,,,,,,,,,,,,,,,,,,,,,
889174,001,2022-11-20_17h53.45.378,Info_measure_main_exp,2022.2.2,Win32,61.56877232,,,,,,,,,,,,,,,,,,masks/mask_003.jpg,,,,,,,,,,,,,,,,,,,,,,,,,,,,,,,,,,,,,,,,,,,0,4,4,2,1,,,,,,,,,,,,,,,,,,,,,,,,,,,,,,,,,,,,,,,,,,,,,,
889174,001,2022-11-20_17h53.45.378,Info_measure_main_exp,2022.2.2,Win32,61.56877232,,,,,,,,,,,,,,,,,,masks/mask_005.jpg,,,,,,,,,,,,,,,,,,,,,,,,,,,,,,,,,,,,,,,,,,,,,,,,0,0,0,4,1,,,,,,,,,,,,,,,,,,,,,,,,,,,,,,,,,,,,,,,,,
889174,001,2022-11-20_17h53.45.378,Info_measure_main_exp,2022.2.2,Win32,61.56877232,,,,,,,,,,,,,,,,,,masks/mask_003.jpg,,,,,,,,,,,,,,,,,,,,,,,,,,,,,,,,,,,,,,,,,,,,,,,,0,1,1,2,1,,,,,,,,,,,,,,,,,,,,,,,,,,,,,,,,,,,,,,,,,
889174,001,2022-11-20_17h53.45.378,Info_measure_main_exp,2022.2.2,Win32,61.56877232,,,,,,,,,,,,,,,,,,masks/mask_002.jpg,,,,,,,,,,,,,,,,,,,,,,,,,,,,,,,,,,,,,,,,,,,,,,,,0,2,2,1,1,,,,,,,,,,,,,,,,,,,,,,,,,,,,,,,,,,,,,,,,,
889174,001,2022-11-20_17h53.45.378,Info_measure_main_exp,2022.2.2,Win32,61.56877232,,,,,,,,,,,,,,,,,,masks/mask_001.jpg,,,,,,,,,,,,,,,,,,,,,,,,,,,,,,,,,,,,,,,,,,,,,,,,0,3,3,0,1,,,,,,,,,,,,,,,,,,,,,,,,,,,,,,,,,,,,,,,,,
889174,001,2022-11-20_17h53.45.378,Info_measure_main_exp,2022.2.2,Win32,61.56877232,,,,,,,,,,,,,,,,,,masks/mask_004.jpg,,,,,,,,,,,,,,,,,,,,,,,,,,,,,,,,,,,,,,,,,,,,,,,,0,4,4,3,1,,,,,,,,,,,,,,,,,,,,,,,,,,,,,,,,,,,,,,,,,
889174,001,2022-11-20_17h53.45.378,Info_measure_main_exp,2022.2.2,Win32,61.56877232,,,,,,,,,,,,,,,,,,,,,,,,,,,,,,6,1.5835,1,,,,,,,,,,,,1,131,5,5,2250,1,absent_patch/patch0002250.jpg,present_patch/cong_131_5_a.jpg,,,,,,,,,,,,,,,,,,,,0.091145833,0.0234375,1,0,0,response1disk,2,-0.002604167,-0.00390625,1,0,0,center_square,0,1,1,5,1,,,,,,,,,,,,,,,,,,,,,,,
889174,001,2022-11-20_17h53.45.378,Info_measure_main_exp,2022.2.2,Win32,61.56877232,,,,,,,,,,,,,,,,,,masks/mask_002.jpg,,,,,,,,,,,,,,,,,,,,,,,,,,,,,,,,,,,,,,,,,,,0,0,0,1,1,,,,,,,,,,,,,,,,,,,,,,,,,,,,,,,,,,,,,,,,,,,,,,
889174,001,2022-11-20_17h53.45.378,Info_measure_main_exp,2022.2.2,Win32,61.56877232,,,,,,,,,,,,,,,,,,masks/mask_001.jpg,,,,,,,,,,,,,,,,,,,,,,,,,,,,,,,,,,,,,,,,,,,0,1,1,0,1,,,,,,,,,,,,,,,,,,,,,,,,,,,,,,,,,,,,,,,,,,,,,,
889174,001,2022-11-20_17h53.45.378,Info_measure_main_exp,2022.2.2,Win32,61.56877232,,,,,,,,,,,,,,,,,,masks/mask_003.jpg,,,,,,,,,,,,,,,,,,,,,,,,,,,,,,,,,,,,,,,,,,,0,2,2,2,1,,,,,,,,,,,,,,,,,,,,,,,,,,,,,,,,,,,,,,,,,,,,,,
889174,001,2022-11-20_17h53.45.378,Info_measure_main_exp,2022.2.2,Win32,61.56877232,,,,,,,,,,,,,,,,,,masks/mask_004.jpg,,,,,,,,,,,,,,,,,,,,,,,,,,,,,,,,,,,,,,,,,,,0,3,3,3,1,,,,,,,,,,,,,,,,,,,,,,,,,,,,,,,,,,,,,,,,,,,,,,
889174,001,2022-11-20_17h53.45.378,Info_measure_main_exp,2022.2.2,Win32,61.56877232,,,,,,,,,,,,,,,,,,masks/mask_005.jpg,,,,,,,,,,,,,,,,,,,,,,,,,,,,,,,,,,,,,,,,,,,0,4,4,4,1,,,,,,,,,,,,,,,,,,,,,,,,,,,,,,,,,,,,,,,,,,,,,,
889174,001,2022-11-20_17h53.45.378,Info_measure_main_exp,2022.2.2,Win32,61.56877232,,,,,,,,,,,,,,,,,,masks/mask_003.jpg,,,,,,,,,,,,,,,,,,,,,,,,,,,,,,,,,,,,,,,,,,,,,,,,0,0,0,2,1,,,,,,,,,,,,,,,,,,,,,,,,,,,,,,,,,,,,,,,,,
889174,001,2022-11-20_17h53.45.378,Info_measure_main_exp,2022.2.2,Win32,61.56877232,,,,,,,,,,,,,,,,,,masks/mask_002.jpg,,,,,,,,,,,,,,,,,,,,,,,,,,,,,,,,,,,,,,,,,,,,,,,,0,1,1,1,1,,,,,,,,,,,,,,,,,,,,,,,,,,,,,,,,,,,,,,,,,
889174,001,2022-11-20_17h53.45.378,Info_measure_main_exp,2022.2.2,Win32,61.56877232,,,,,,,,,,,,,,,,,,masks/mask_004.jpg,,,,,,,,,,,,,,,,,,,,,,,,,,,,,,,,,,,,,,,,,,,,,,,,0,2,2,3,1,,,,,,,,,,,,,,,,,,,,,,,,,,,,,,,,,,,,,,,,,
889174,001,2022-11-20_17h53.45.378,Info_measure_main_exp,2022.2.2,Win32,61.56877232,,,,,,,,,,,,,,,,,,masks/mask_001.jpg,,,,,,,,,,,,,,,,,,,,,,,,,,,,,,,,,,,,,,,,,,,,,,,,0,3,3,0,1,,,,,,,,,,,,,,,,,,,,,,,,,,,,,,,,,,,,,,,,,
889174,001,2022-11-20_17h53.45.378,Info_measure_main_exp,2022.2.2,Win32,61.56877232,,,,,,,,,,,,,,,,,,masks/mask_005.jpg,,,,,,,,,,,,,,,,,,,,,,,,,,,,,,,,,,,,,,,,,,,,,,,,0,4,4,4,1,,,,,,,,,,,,,,,,,,,,,,,,,,,,,,,,,,,,,,,,,
889174,001,2022-11-20_17h53.45.378,Info_measure_main_exp,2022.2.2,Win32,61.56877232,,,,,,,,,,,,,,,,,,,,,,,,,,,,,,0,0.8165,1,,,,,,,,,,,,0,131,5,5,2142,2142,absent_patch/patch0002142.jpg,absent_patch/patch0002142.jpg,,,,,,,,,,,,,,,,,,,,-0.022135417,0.06640625,1,0,0,response7disk,3,0,0,1,0,0,center_square,0,2,2,13,1,,,,,,,,,,,,,,,,,,,,,,,
889174,001,2022-11-20_17h53.45.378,Info_measure_main_exp,2022.2.2,Win32,61.56877232,,,,,,,,,,,,,,,,,,masks/mask_003.jpg,,,,,,,,,,,,,,,,,,,,,,,,,,,,,,,,,,,,,,,,,,,0,0,0,2,1,,,,,,,,,,,,,,,,,,,,,,,,,,,,,,,,,,,,,,,,,,,,,,
889174,001,2022-11-20_17h53.45.378,Info_measure_main_exp,2022.2.2,Win32,61.56877232,,,,,,,,,,,,,,,,,,masks/mask_002.jpg,,,,,,,,,,,,,,,,,,,,,,,,,,,,,,,,,,,,,,,,,,,0,1,1,1,1,,,,,,,,,,,,,,,,,,,,,,,,,,,,,,,,,,,,,,,,,,,,,,
889174,001,2022-11-20_17h53.45.378,Info_measure_main_exp,2022.2.2,Win32,61.56877232,,,,,,,,,,,,,,,,,,masks/mask_005.jpg,,,,,,,,,,,,,,,,,,,,,,,,,,,,,,,,,,,,,,,,,,,0,2,2,4,1,,,,,,,,,,,,,,,,,,,,,,,,,,,,,,,,,,,,,,,,,,,,,,
889174,001,2022-11-20_17h53.45.378,Info_measure_main_exp,2022.2.2,Win32,61.56877232,,,,,,,,,,,,,,,,,,masks/mask_001.jpg,,,,,,,,,,,,,,,,,,,,,,,,,,,,,,,,,,,,,,,,,,,0,3,3,0,1,,,,,,,,,,,,,,,,,,,,,,,,,,,,,,,,,,,,,,,,,,,,,,
889174,001,2022-11-20_17h53.45.378,Info_measure_main_exp,2022.2.2,Win32,61.56877232,,,,,,,,,,,,,,,,,,masks/mask_004.jpg,,,,,,,,,,,,,,,,,,,,,,,,,,,,,,,,,,,,,,,,,,,0,4,4,3,1,,,,,,,,,,,,,,,,,,,,,,,,,,,,,,,,,,,,,,,,,,,,,,
889174,001,2022-11-20_17h53.45.378,Info_measure_main_exp,2022.2.2,Win32,61.56877232,,,,,,,,,,,,,,,,,,masks/mask_001.jpg,,,,,,,,,,,,,,,,,,,,,,,,,,,,,,,,,,,,,,,,,,,,,,,,0,0,0,0,1,,,,,,,,,,,,,,,,,,,,,,,,,,,,,,,,,,,,,,,,,
889174,001,2022-11-20_17h53.45.378,Info_measure_main_exp,2022.2.2,Win32,61.56877232,,,,,,,,,,,,,,,,,,masks/mask_004.jpg,,,,,,,,,,,,,,,,,,,,,,,,,,,,,,,,,,,,,,,,,,,,,,,,0,1,1,3,1,,,,,,,,,,,,,,,,,,,,,,,,,,,,,,,,,,,,,,,,,
889174,001,2022-11-20_17h53.45.378,Info_measure_main_exp,2022.2.2,Win32,61.56877232,,,,,,,,,,,,,,,,,,masks/mask_002.jpg,,,,,,,,,,,,,,,,,,,,,,,,,,,,,,,,,,,,,,,,,,,,,,,,0,2,2,1,1,,,,,,,,,,,,,,,,,,,,,,,,,,,,,,,,,,,,,,,,,
889174,001,2022-11-20_17h53.45.378,Info_measure_main_exp,2022.2.2,Win32,61.56877232,,,,,,,,,,,,,,,,,,masks/mask_005.jpg,,,,,,,,,,,,,,,,,,,,,,,,,,,,,,,,,,,,,,,,,,,,,,,,0,3,3,4,1,,,,,,,,,,,,,,,,,,,,,,,,,,,,,,,,,,,,,,,,,
889174,001,2022-11-20_17h53.45.378,Info_measure_main_exp,2022.2.2,Win32,61.56877232,,,,,,,,,,,,,,,,,,masks/mask_003.jpg,,,,,,,,,,,,,,,,,,,,,,,,,,,,,,,,,,,,,,,,,,,,,,,,0,4,4,2,1,,,,,,,,,,,,,,,,,,,,,,,,,,,,,,,,,,,,,,,,,
889174,001,2022-11-20_17h53.45.378,Info_measure_main_exp,2022.2.2,Win32,61.56877232,,,,,,,,,,,,,,,,,,,,,,,,,,,,,,6,1.4672,1,,,,,,,,,,,,0,131,5,5,2298,2274,absent_patch/patch0002298.jpg,absent_patch/patch0002274.jpg,,,,,,,,,,,,,,,,,,,,0.05859375,0.016927083,1,0,0,response1disk,4,0,0.001302083,1,0,0,center_square,0,3,3,1,1,,,,,,,,,,,,,,,,,,,,,,,
889174,001,2022-11-20_17h53.45.378,Info_measure_main_exp,2022.2.2,Win32,61.56877232,,,,,,,,,,,,,,,,,,masks/mask_005.jpg,,,,,,,,,,,,,,,,,,,,,,,,,,,,,,,,,,,,,,,,,,,0,0,0,4,1,,,,,,,,,,,,,,,,,,,,,,,,,,,,,,,,,,,,,,,,,,,,,,
889174,001,2022-11-20_17h53.45.378,Info_measure_main_exp,2022.2.2,Win32,61.56877232,,,,,,,,,,,,,,,,,,masks/mask_002.jpg,,,,,,,,,,,,,,,,,,,,,,,,,,,,,,,,,,,,,,,,,,,0,1,1,1,1,,,,,,,,,,,,,,,,,,,,,,,,,,,,,,,,,,,,,,,,,,,,,,
889174,001,2022-11-20_17h53.45.378,Info_measure_main_exp,2022.2.2,Win32,61.56877232,,,,,,,,,,,,,,,,,,masks/mask_004.jpg,,,,,,,,,,,,,,,,,,,,,,,,,,,,,,,,,,,,,,,,,,,0,2,2,3,1,,,,,,,,,,,,,,,,,,,,,,,,,,,,,,,,,,,,,,,,,,,,,,
889174,001,2022-11-20_17h53.45.378,Info_measure_main_exp,2022.2.2,Win32,61.56877232,,,,,,,,,,,,,,,,,,masks/mask_001.jpg,,,,,,,,,,,,,,,,,,,,,,,,,,,,,,,,,,,,,,,,,,,0,3,3,0,1,,,,,,,,,,,,,,,,,,,,,,,,,,,,,,,,,,,,,,,,,,,,,,
889174,001,2022-11-20_17h53.45.378,Info_measure_main_exp,2022.2.2,Win32,61.56877232,,,,,,,,,,,,,,,,,,masks/mask_003.jpg,,,,,,,,,,,,,,,,,,,,,,,,,,,,,,,,,,,,,,,,,,,0,4,4,2,1,,,,,,,,,,,,,,,,,,,,,,,,,,,,,,,,,,,,,,,,,,,,,,
889174,001,2022-11-20_17h53.45.378,Info_measure_main_exp,2022.2.2,Win32,61.56877232,,,,,,,,,,,,,,,,,,masks/mask_004.jpg,,,,,,,,,,,,,,,,,,,,,,,,,,,,,,,,,,,,,,,,,,,,,,,,0,0,0,3,1,,,,,,,,,,,,,,,,,,,,,,,,,,,,,,,,,,,,,,,,,
889174,001,2022-11-20_17h53.45.378,Info_measure_main_exp,2022.2.2,Win32,61.56877232,,,,,,,,,,,,,,,,,,masks/mask_002.jpg,,,,,,,,,,,,,,,,,,,,,,,,,,,,,,,,,,,,,,,,,,,,,,,,0,1,1,1,1,,,,,,,,,,,,,,,,,,,,,,,,,,,,,,,,,,,,,,,,,
889174,001,2022-11-20_17h53.45.378,Info_measure_main_exp,2022.2.2,Win32,61.56877232,,,,,,,,,,,,,,,,,,masks/mask_001.jpg,,,,,,,,,,,,,,,,,,,,,,,,,,,,,,,,,,,,,,,,,,,,,,,,0,2,2,0,1,,,,,,,,,,,,,,,,,,,,,,,,,,,,,,,,,,,,,,,,,
889174,001,2022-11-20_17h53.45.378,Info_measure_main_exp,2022.2.2,Win32,61.56877232,,,,,,,,,,,,,,,,,,masks/mask_005.jpg,,,,,,,,,,,,,,,,,,,,,,,,,,,,,,,,,,,,,,,,,,,,,,,,0,3,3,4,1,,,,,,,,,,,,,,,,,,,,,,,,,,,,,,,,,,,,,,,,,
889174,001,2022-11-20_17h53.45.378,Info_measure_main_exp,2022.2.2,Win32,61.56877232,,,,,,,,,,,,,,,,,,masks/mask_003.jpg,,,,,,,,,,,,,,,,,,,,,,,,,,,,,,,,,,,,,,,,,,,,,,,,0,4,4,2,1,,,,,,,,,,,,,,,,,,,,,,,,,,,,,,,,,,,,,,,,,
889174,001,2022-11-20_17h53.45.378,Info_measure_main_exp,2022.2.2,Win32,61.56877232,,,,,,,,,,,,,,,,,,,,,,,,,,,,,,7,1.0005,1,,,,,,,,,,,,0,131,5,5,2154,1974,absent_patch/patch0002154.jpg,absent_patch/patch0001974.jpg,,,,,,,,,,,,,,,,,,,,0.01953125,0.083333333,1,0,0,response1disk,5,0.002604167,0.00390625,1,0,0,center_square,0,4,4,82,1,,,,,,,,,,,,,,,,,,,,,,,
889174,001,2022-11-20_17h53.45.378,Info_measure_main_exp,2022.2.2,Win32,61.56877232,,,,,,,,,,,,,,,,,,masks/mask_001.jpg,,,,,,,,,,,,,,,,,,,,,,,,,,,,,,,,,,,,,,,,,,,0,0,0,0,1,,,,,,,,,,,,,,,,,,,,,,,,,,,,,,,,,,,,,,,,,,,,,,
889174,001,2022-11-20_17h53.45.378,Info_measure_main_exp,2022.2.2,Win32,61.56877232,,,,,,,,,,,,,,,,,,masks/mask_005.jpg,,,,,,,,,,,,,,,,,,,,,,,,,,,,,,,,,,,,,,,,,,,0,1,1,4,1,,,,,,,,,,,,,,,,,,,,,,,,,,,,,,,,,,,,,,,,,,,,,,
889174,001,2022-11-20_17h53.45.378,Info_measure_main_exp,2022.2.2,Win32,61.56877232,,,,,,,,,,,,,,,,,,masks/mask_002.jpg,,,,,,,,,,,,,,,,,,,,,,,,,,,,,,,,,,,,,,,,,,,0,2,2,1,1,,,,,,,,,,,,,,,,,,,,,,,,,,,,,,,,,,,,,,,,,,,,,,
889174,001,2022-11-20_17h53.45.378,Info_measure_main_exp,2022.2.2,Win32,61.56877232,,,,,,,,,,,,,,,,,,masks/mask_003.jpg,,,,,,,,,,,,,,,,,,,,,,,,,,,,,,,,,,,,,,,,,,,0,3,3,2,1,,,,,,,,,,,,,,,,,,,,,,,,,,,,,,,,,,,,,,,,,,,,,,
889174,001,2022-11-20_17h53.45.378,Info_measure_main_exp,2022.2.2,Win32,61.56877232,,,,,,,,,,,,,,,,,,masks/mask_004.jpg,,,,,,,,,,,,,,,,,,,,,,,,,,,,,,,,,,,,,,,,,,,0,4,4,3,1,,,,,,,,,,,,,,,,,,,,,,,,,,,,,,,,,,,,,,,,,,,,,,
889174,001,2022-11-20_17h53.45.378,Info_measure_main_exp,2022.2.2,Win32,61.56877232,,,,,,,,,,,,,,,,,,masks/mask_005.jpg,,,,,,,,,,,,,,,,,,,,,,,,,,,,,,,,,,,,,,,,,,,,,,,,0,0,0,4,1,,,,,,,,,,,,,,,,,,,,,,,,,,,,,,,,,,,,,,,,,
889174,001,2022-11-20_17h53.45.378,Info_measure_main_exp,2022.2.2,Win32,61.56877232,,,,,,,,,,,,,,,,,,masks/mask_002.jpg,,,,,,,,,,,,,,,,,,,,,,,,,,,,,,,,,,,,,,,,,,,,,,,,0,1,1,1,1,,,,,,,,,,,,,,,,,,,,,,,,,,,,,,,,,,,,,,,,,
889174,001,2022-11-20_17h53.45.378,Info_measure_main_exp,2022.2.2,Win32,61.56877232,,,,,,,,,,,,,,,,,,masks/mask_004.jpg,,,,,,,,,,,,,,,,,,,,,,,,,,,,,,,,,,,,,,,,,,,,,,,,0,2,2,3,1,,,,,,,,,,,,,,,,,,,,,,,,,,,,,,,,,,,,,,,,,
889174,001,2022-11-20_17h53.45.378,Info_measure_main_exp,2022.2.2,Win32,61.56877232,,,,,,,,,,,,,,,,,,masks/mask_001.jpg,,,,,,,,,,,,,,,,,,,,,,,,,,,,,,,,,,,,,,,,,,,,,,,,0,3,3,0,1,,,,,,,,,,,,,,,,,,,,,,,,,,,,,,,,,,,,,,,,,
889174,001,2022-11-20_17h53.45.378,Info_measure_main_exp,2022.2.2,Win32,61.56877232,,,,,,,,,,,,,,,,,,masks/mask_003.jpg,,,,,,,,,,,,,,,,,,,,,,,,,,,,,,,,,,,,,,,,,,,,,,,,0,4,4,2,1,,,,,,,,,,,,,,,,,,,,,,,,,,,,,,,,,,,,,,,,,
889174,001,2022-11-20_17h53.45.378,Info_measure_main_exp,2022.2.2,Win32,61.56877232,,,,,,,,,,,,,,,,,,,,,,,,,,,,,,6,1.3496,1,,,,,,,,,,,,0,131,5,5,1986,2142,absent_patch/patch0001986.jpg,absent_patch/patch0002142.jpg,,,,,,,,,,,,,,,,,,,,0.063802083,0.026041667,1,0,0,response1disk,6,-0.001302083,-0.002604167,1,0,0,center_square,0,5,5,76,1,,,,,,,,,,,,,,,,,,,,,,,
889174,001,2022-11-20_17h53.45.378,Info_measure_main_exp,2022.2.2,Win32,61.56877232,,,,,,,,,,,,,,,,,,masks/mask_003.jpg,,,,,,,,,,,,,,,,,,,,,,,,,,,,,,,,,,,,,,,,,,,0,0,0,2,1,,,,,,,,,,,,,,,,,,,,,,,,,,,,,,,,,,,,,,,,,,,,,,
889174,001,2022-11-20_17h53.45.378,Info_measure_main_exp,2022.2.2,Win32,61.56877232,,,,,,,,,,,,,,,,,,masks/mask_001.jpg,,,,,,,,,,,,,,,,,,,,,,,,,,,,,,,,,,,,,,,,,,,0,1,1,0,1,,,,,,,,,,,,,,,,,,,,,,,,,,,,,,,,,,,,,,,,,,,,,,
889174,001,2022-11-20_17h53.45.378,Info_measure_main_exp,2022.2.2,Win32,61.56877232,,,,,,,,,,,,,,,,,,masks/mask_004.jpg,,,,,,,,,,,,,,,,,,,,,,,,,,,,,,,,,,,,,,,,,,,0,2,2,3,1,,,,,,,,,,,,,,,,,,,,,,,,,,,,,,,,,,,,,,,,,,,,,,
889174,001,2022-11-20_17h53.45.378,Info_measure_main_exp,2022.2.2,Win32,61.56877232,,,,,,,,,,,,,,,,,,masks/mask_005.jpg,,,,,,,,,,,,,,,,,,,,,,,,,,,,,,,,,,,,,,,,,,,0,3,3,4,1,,,,,,,,,,,,,,,,,,,,,,,,,,,,,,,,,,,,,,,,,,,,,,
889174,001,2022-11-20_17h53.45.378,Info_measure_main_exp,2022.2.2,Win32,61.56877232,,,,,,,,,,,,,,,,,,masks/mask_002.jpg,,,,,,,,,,,,,,,,,,,,,,,,,,,,,,,,,,,,,,,,,,,0,4,4,1,1,,,,,,,,,,,,,,,,,,,,,,,,,,,,,,,,,,,,,,,,,,,,,,
889174,001,2022-11-20_17h53.45.378,Info_measure_main_exp,2022.2.2,Win32,61.56877232,,,,,,,,,,,,,,,,,,masks/mask_001.jpg,,,,,,,,,,,,,,,,,,,,,,,,,,,,,,,,,,,,,,,,,,,,,,,,0,0,0,0,1,,,,,,,,,,,,,,,,,,,,,,,,,,,,,,,,,,,,,,,,,
889174,001,2022-11-20_17h53.45.378,Info_measure_main_exp,2022.2.2,Win32,61.56877232,,,,,,,,,,,,,,,,,,masks/mask_005.jpg,,,,,,,,,,,,,,,,,,,,,,,,,,,,,,,,,,,,,,,,,,,,,,,,0,1,1,4,1,,,,,,,,,,,,,,,,,,,,,,,,,,,,,,,,,,,,,,,,,
889174,001,2022-11-20_17h53.45.378,Info_measure_main_exp,2022.2.2,Win32,61.56877232,,,,,,,,,,,,,,,,,,masks/mask_002.jpg,,,,,,,,,,,,,,,,,,,,,,,,,,,,,,,,,,,,,,,,,,,,,,,,0,2,2,1,1,,,,,,,,,,,,,,,,,,,,,,,,,,,,,,,,,,,,,,,,,
889174,001,2022-11-20_17h53.45.378,Info_measure_main_exp,2022.2.2,Win32,61.56877232,,,,,,,,,,,,,,,,,,masks/mask_004.jpg,,,,,,,,,,,,,,,,,,,,,,,,,,,,,,,,,,,,,,,,,,,,,,,,0,3,3,3,1,,,,,,,,,,,,,,,,,,,,,,,,,,,,,,,,,,,,,,,,,
889174,001,2022-11-20_17h53.45.378,Info_measure_main_exp,2022.2.2,Win32,61.56877232,,,,,,,,,,,,,,,,,,masks/mask_003.jpg,,,,,,,,,,,,,,,,,,,,,,,,,,,,,,,,,,,,,,,,,,,,,,,,0,4,4,2,1,,,,,,,,,,,,,,,,,,,,,,,,,,,,,,,,,,,,,,,,,
889174,001,2022-11-20_17h53.45.378,Info_measure_main_exp,2022.2.2,Win32,61.56877232,,,,,,,,,,,,,,,,,,,,,,,,,,,,,,3,1.4204,1,,,,,,,,,,,,0,131,5,5,2142,2190,absent_patch/patch0002142.jpg,absent_patch/patch0002190.jpg,,,,,,,,,,,,,,,,,,,,-0.028645833,-0.11328125,1,0,0,response5disk,7,-0.0078125,0.005208333,1,0,0,center_square,0,6,6,70,1,,,,,,,,,,,,,,,,,,,,,,,
889174,001,2022-11-20_17h53.45.378,Info_measure_main_exp,2022.2.2,Win32,61.56877232,,,,,,,,,,,,,,,,,,masks/mask_001.jpg,,,,,,,,,,,,,,,,,,,,,,,,,,,,,,,,,,,,,,,,,,,0,0,0,0,1,,,,,,,,,,,,,,,,,,,,,,,,,,,,,,,,,,,,,,,,,,,,,,
889174,001,2022-11-20_17h53.45.378,Info_measure_main_exp,2022.2.2,Win32,61.56877232,,,,,,,,,,,,,,,,,,masks/mask_004.jpg,,,,,,,,,,,,,,,,,,,,,,,,,,,,,,,,,,,,,,,,,,,0,1,1,3,1,,,,,,,,,,,,,,,,,,,,,,,,,,,,,,,,,,,,,,,,,,,,,,
889174,001,2022-11-20_17h53.45.378,Info_measure_main_exp,2022.2.2,Win32,61.56877232,,,,,,,,,,,,,,,,,,masks/mask_003.jpg,,,,,,,,,,,,,,,,,,,,,,,,,,,,,,,,,,,,,,,,,,,0,2,2,2,1,,,,,,,,,,,,,,,,,,,,,,,,,,,,,,,,,,,,,,,,,,,,,,
889174,001,2022-11-20_17h53.45.378,Info_measure_main_exp,2022.2.2,Win32,61.56877232,,,,,,,,,,,,,,,,,,masks/mask_002.jpg,,,,,,,,,,,,,,,,,,,,,,,,,,,,,,,,,,,,,,,,,,,0,3,3,1,1,,,,,,,,,,,,,,,,,,,,,,,,,,,,,,,,,,,,,,,,,,,,,,
889174,001,2022-11-20_17h53.45.378,Info_measure_main_exp,2022.2.2,Win32,61.56877232,,,,,,,,,,,,,,,,,,masks/mask_005.jpg,,,,,,,,,,,,,,,,,,,,,,,,,,,,,,,,,,,,,,,,,,,0,4,4,4,1,,,,,,,,,,,,,,,,,,,,,,,,,,,,,,,,,,,,,,,,,,,,,,
889174,001,2022-11-20_17h53.45.378,Info_measure_main_exp,2022.2.2,Win32,61.56877232,,,,,,,,,,,,,,,,,,masks/mask_003.jpg,,,,,,,,,,,,,,,,,,,,,,,,,,,,,,,,,,,,,,,,,,,,,,,,0,0,0,2,1,,,,,,,,,,,,,,,,,,,,,,,,,,,,,,,,,,,,,,,,,
889174,001,2022-11-20_17h53.45.378,Info_measure_main_exp,2022.2.2,Win32,61.56877232,,,,,,,,,,,,,,,,,,masks/mask_005.jpg,,,,,,,,,,,,,,,,,,,,,,,,,,,,,,,,,,,,,,,,,,,,,,,,0,1,1,4,1,,,,,,,,,,,,,,,,,,,,,,,,,,,,,,,,,,,,,,,,,
889174,001,2022-11-20_17h53.45.378,Info_measure_main_exp,2022.2.2,Win32,61.56877232,,,,,,,,,,,,,,,,,,masks/mask_004.jpg,,,,,,,,,,,,,,,,,,,,,,,,,,,,,,,,,,,,,,,,,,,,,,,,0,2,2,3,1,,,,,,,,,,,,,,,,,,,,,,,,,,,,,,,,,,,,,,,,,
889174,001,2022-11-20_17h53.45.378,Info_measure_main_exp,2022.2.2,Win32,61.56877232,,,,,,,,,,,,,,,,,,masks/mask_001.jpg,,,,,,,,,,,,,,,,,,,,,,,,,,,,,,,,,,,,,,,,,,,,,,,,0,3,3,0,1,,,,,,,,,,,,,,,,,,,,,,,,,,,,,,,,,,,,,,,,,
889174,001,2022-11-20_17h53.45.378,Info_measure_main_exp,2022.2.2,Win32,61.56877232,,,,,,,,,,,,,,,,,,masks/mask_002.jpg,,,,,,,,,,,,,,,,,,,,,,,,,,,,,,,,,,,,,,,,,,,,,,,,0,4,4,1,1,,,,,,,,,,,,,,,,,,,,,,,,,,,,,,,,,,,,,,,,,
889174,001,2022-11-20_17h53.45.378,Info_measure_main_exp,2022.2.2,Win32,61.56877232,,,,,,,,,,,,,,,,,,,,,,,,,,,,,,7,0.7667,1,,,,,,,,,,,,0,131,5,5,2250,2214,absent_patch/patch0002250.jpg,absent_patch/patch0002214.jpg,,,,,,,,,,,,,,,,,,,,0.01953125,0.084635417,1,0,0,response1disk,8,-0.005208333,-0.002604167,1,0,0,center_square,0,7,7,97,1,,,,,,,,,,,,,,,,,,,,,,,
889174,001,2022-11-20_17h53.45.378,Info_measure_main_exp,2022.2.2,Win32,61.56877232,,,,,,,,,,,,,,,,,,masks/mask_001.jpg,,,,,,,,,,,,,,,,,,,,,,,,,,,,,,,,,,,,,,,,,,,0,0,0,0,1,,,,,,,,,,,,,,,,,,,,,,,,,,,,,,,,,,,,,,,,,,,,,,
889174,001,2022-11-20_17h53.45.378,Info_measure_main_exp,2022.2.2,Win32,61.56877232,,,,,,,,,,,,,,,,,,masks/mask_003.jpg,,,,,,,,,,,,,,,,,,,,,,,,,,,,,,,,,,,,,,,,,,,0,1,1,2,1,,,,,,,,,,,,,,,,,,,,,,,,,,,,,,,,,,,,,,,,,,,,,,
889174,001,2022-11-20_17h53.45.378,Info_measure_main_exp,2022.2.2,Win32,61.56877232,,,,,,,,,,,,,,,,,,masks/mask_004.jpg,,,,,,,,,,,,,,,,,,,,,,,,,,,,,,,,,,,,,,,,,,,0,2,2,3,1,,,,,,,,,,,,,,,,,,,,,,,,,,,,,,,,,,,,,,,,,,,,,,
889174,001,2022-11-20_17h53.45.378,Info_measure_main_exp,2022.2.2,Win32,61.56877232,,,,,,,,,,,,,,,,,,masks/mask_005.jpg,,,,,,,,,,,,,,,,,,,,,,,,,,,,,,,,,,,,,,,,,,,0,3,3,4,1,,,,,,,,,,,,,,,,,,,,,,,,,,,,,,,,,,,,,,,,,,,,,,
889174,001,2022-11-20_17h53.45.378,Info_measure_main_exp,2022.2.2,Win32,61.56877232,,,,,,,,,,,,,,,,,,masks/mask_002.jpg,,,,,,,,,,,,,,,,,,,,,,,,,,,,,,,,,,,,,,,,,,,0,4,4,1,1,,,,,,,,,,,,,,,,,,,,,,,,,,,,,,,,,,,,,,,,,,,,,,
889174,001,2022-11-20_17h53.45.378,Info_measure_main_exp,2022.2.2,Win32,61.56877232,,,,,,,,,,,,,,,,,,masks/mask_005.jpg,,,,,,,,,,,,,,,,,,,,,,,,,,,,,,,,,,,,,,,,,,,,,,,,0,0,0,4,1,,,,,,,,,,,,,,,,,,,,,,,,,,,,,,,,,,,,,,,,,
889174,001,2022-11-20_17h53.45.378,Info_measure_main_exp,2022.2.2,Win32,61.56877232,,,,,,,,,,,,,,,,,,masks/mask_001.jpg,,,,,,,,,,,,,,,,,,,,,,,,,,,,,,,,,,,,,,,,,,,,,,,,0,1,1,0,1,,,,,,,,,,,,,,,,,,,,,,,,,,,,,,,,,,,,,,,,,
889174,001,2022-11-20_17h53.45.378,Info_measure_main_exp,2022.2.2,Win32,61.56877232,,,,,,,,,,,,,,,,,,masks/mask_002.jpg,,,,,,,,,,,,,,,,,,,,,,,,,,,,,,,,,,,,,,,,,,,,,,,,0,2,2,1,1,,,,,,,,,,,,,,,,,,,,,,,,,,,,,,,,,,,,,,,,,
889174,001,2022-11-20_17h53.45.378,Info_measure_main_exp,2022.2.2,Win32,61.56877232,,,,,,,,,,,,,,,,,,masks/mask_003.jpg,,,,,,,,,,,,,,,,,,,,,,,,,,,,,,,,,,,,,,,,,,,,,,,,0,3,3,2,1,,,,,,,,,,,,,,,,,,,,,,,,,,,,,,,,,,,,,,,,,
889174,001,2022-11-20_17h53.45.378,Info_measure_main_exp,2022.2.2,Win32,61.56877232,,,,,,,,,,,,,,,,,,masks/mask_004.jpg,,,,,,,,,,,,,,,,,,,,,,,,,,,,,,,,,,,,,,,,,,,,,,,,0,4,4,3,1,,,,,,,,,,,,,,,,,,,,,,,,,,,,,,,,,,,,,,,,,
889174,001,2022-11-20_17h53.45.378,Info_measure_main_exp,2022.2.2,Win32,61.56877232,,,,,,,,,,,,,,,,,,,,,,,,,,,,,,7,0.6678,1,,,,,,,,,,,,1,131,5,5,1,1974,present_patch/cong_131_5_a.jpg,absent_patch/patch0001974.jpg,,,,,,,,,,,,,,,,,,,,0.01953125,0.071614583,1,0,0,response1disk,9,-0.009114583,0.001302083,1,0,0,center_square,0,8,8,69,1,,,,,,,,,,,,,,,,,,,,,,,
889174,001,2022-11-20_17h53.45.378,Info_measure_main_exp,2022.2.2,Win32,61.56877232,,,,,,,,,,,,,,,,,,masks/mask_001.jpg,,,,,,,,,,,,,,,,,,,,,,,,,,,,,,,,,,,,,,,,,,,0,0,0,0,1,,,,,,,,,,,,,,,,,,,,,,,,,,,,,,,,,,,,,,,,,,,,,,
889174,001,2022-11-20_17h53.45.378,Info_measure_main_exp,2022.2.2,Win32,61.56877232,,,,,,,,,,,,,,,,,,masks/mask_002.jpg,,,,,,,,,,,,,,,,,,,,,,,,,,,,,,,,,,,,,,,,,,,0,1,1,1,1,,,,,,,,,,,,,,,,,,,,,,,,,,,,,,,,,,,,,,,,,,,,,,
889174,001,2022-11-20_17h53.45.378,Info_measure_main_exp,2022.2.2,Win32,61.56877232,,,,,,,,,,,,,,,,,,masks/mask_003.jpg,,,,,,,,,,,,,,,,,,,,,,,,,,,,,,,,,,,,,,,,,,,0,2,2,2,1,,,,,,,,,,,,,,,,,,,,,,,,,,,,,,,,,,,,,,,,,,,,,,
889174,001,2022-11-20_17h53.45.378,Info_measure_main_exp,2022.2.2,Win32,61.56877232,,,,,,,,,,,,,,,,,,masks/mask_005.jpg,,,,,,,,,,,,,,,,,,,,,,,,,,,,,,,,,,,,,,,,,,,0,3,3,4,1,,,,,,,,,,,,,,,,,,,,,,,,,,,,,,,,,,,,,,,,,,,,,,
889174,001,2022-11-20_17h53.45.378,Info_measure_main_exp,2022.2.2,Win32,61.56877232,,,,,,,,,,,,,,,,,,masks/mask_004.jpg,,,,,,,,,,,,,,,,,,,,,,,,,,,,,,,,,,,,,,,,,,,0,4,4,3,1,,,,,,,,,,,,,,,,,,,,,,,,,,,,,,,,,,,,,,,,,,,,,,
889174,001,2022-11-20_17h53.45.378,Info_measure_main_exp,2022.2.2,Win32,61.56877232,,,,,,,,,,,,,,,,,,masks/mask_004.jpg,,,,,,,,,,,,,,,,,,,,,,,,,,,,,,,,,,,,,,,,,,,,,,,,0,0,0,3,1,,,,,,,,,,,,,,,,,,,,,,,,,,,,,,,,,,,,,,,,,
889174,001,2022-11-20_17h53.45.378,Info_measure_main_exp,2022.2.2,Win32,61.56877232,,,,,,,,,,,,,,,,,,masks/mask_005.jpg,,,,,,,,,,,,,,,,,,,,,,,,,,,,,,,,,,,,,,,,,,,,,,,,0,1,1,4,1,,,,,,,,,,,,,,,,,,,,,,,,,,,,,,,,,,,,,,,,,
889174,001,2022-11-20_17h53.45.378,Info_measure_main_exp,2022.2.2,Win32,61.56877232,,,,,,,,,,,,,,,,,,masks/mask_002.jpg,,,,,,,,,,,,,,,,,,,,,,,,,,,,,,,,,,,,,,,,,,,,,,,,0,2,2,1,1,,,,,,,,,,,,,,,,,,,,,,,,,,,,,,,,,,,,,,,,,
889174,001,2022-11-20_17h53.45.378,Info_measure_main_exp,2022.2.2,Win32,61.56877232,,,,,,,,,,,,,,,,,,masks/mask_001.jpg,,,,,,,,,,,,,,,,,,,,,,,,,,,,,,,,,,,,,,,,,,,,,,,,0,3,3,0,1,,,,,,,,,,,,,,,,,,,,,,,,,,,,,,,,,,,,,,,,,
889174,001,2022-11-20_17h53.45.378,Info_measure_main_exp,2022.2.2,Win32,61.56877232,,,,,,,,,,,,,,,,,,masks/mask_003.jpg,,,,,,,,,,,,,,,,,,,,,,,,,,,,,,,,,,,,,,,,,,,,,,,,0,4,4,2,1,,,,,,,,,,,,,,,,,,,,,,,,,,,,,,,,,,,,,,,,,
889174,001,2022-11-20_17h53.45.378,Info_measure_main_exp,2022.2.2,Win32,61.56877232,,,,,,,,,,,,,,,,,,,,,,,,,,,,,,0,0.6498,1,,,,,,,,,,,,0,131,5,5,1950,1950,absent_patch/patch0001950.jpg,absent_patch/patch0001950.jpg,,,,,,,,,,,,,,,,,,,,-0.015625,0.06640625,1,0,0,response7disk,10,-0.002604167,-0.0078125,1,0,0,center_square,0,9,9,92,1,,,,,,,,,,,,,,,,,,,,,,,
889174,001,2022-11-20_17h53.45.378,Info_measure_main_exp,2022.2.2,Win32,61.56877232,,,,,,,,,,,,,,,,,,masks/mask_002.jpg,,,,,,,,,,,,,,,,,,,,,,,,,,,,,,,,,,,,,,,,,,,0,0,0,1,1,,,,,,,,,,,,,,,,,,,,,,,,,,,,,,,,,,,,,,,,,,,,,,
889174,001,2022-11-20_17h53.45.378,Info_measure_main_exp,2022.2.2,Win32,61.56877232,,,,,,,,,,,,,,,,,,masks/mask_005.jpg,,,,,,,,,,,,,,,,,,,,,,,,,,,,,,,,,,,,,,,,,,,0,1,1,4,1,,,,,,,,,,,,,,,,,,,,,,,,,,,,,,,,,,,,,,,,,,,,,,
889174,001,2022-11-20_17h53.45.378,Info_measure_main_exp,2022.2.2,Win32,61.56877232,,,,,,,,,,,,,,,,,,masks/mask_003.jpg,,,,,,,,,,,,,,,,,,,,,,,,,,,,,,,,,,,,,,,,,,,0,2,2,2,1,,,,,,,,,,,,,,,,,,,,,,,,,,,,,,,,,,,,,,,,,,,,,,
889174,001,2022-11-20_17h53.45.378,Info_measure_main_exp,2022.2.2,Win32,61.56877232,,,,,,,,,,,,,,,,,,masks/mask_004.jpg,,,,,,,,,,,,,,,,,,,,,,,,,,,,,,,,,,,,,,,,,,,0,3,3,3,1,,,,,,,,,,,,,,,,,,,,,,,,,,,,,,,,,,,,,,,,,,,,,,
889174,001,2022-11-20_17h53.45.378,Info_measure_main_exp,2022.2.2,Win32,61.56877232,,,,,,,,,,,,,,,,,,masks/mask_001.jpg,,,,,,,,,,,,,,,,,,,,,,,,,,,,,,,,,,,,,,,,,,,0,4,4,0,1,,,,,,,,,,,,,,,,,,,,,,,,,,,,,,,,,,,,,,,,,,,,,,
889174,001,2022-11-20_17h53.45.378,Info_measure_main_exp,2022.2.2,Win32,61.56877232,,,,,,,,,,,,,,,,,,masks/mask_005.jpg,,,,,,,,,,,,,,,,,,,,,,,,,,,,,,,,,,,,,,,,,,,,,,,,0,0,0,4,1,,,,,,,,,,,,,,,,,,,,,,,,,,,,,,,,,,,,,,,,,
889174,001,2022-11-20_17h53.45.378,Info_measure_main_exp,2022.2.2,Win32,61.56877232,,,,,,,,,,,,,,,,,,masks/mask_001.jpg,,,,,,,,,,,,,,,,,,,,,,,,,,,,,,,,,,,,,,,,,,,,,,,,0,1,1,0,1,,,,,,,,,,,,,,,,,,,,,,,,,,,,,,,,,,,,,,,,,
889174,001,2022-11-20_17h53.45.378,Info_measure_main_exp,2022.2.2,Win32,61.56877232,,,,,,,,,,,,,,,,,,masks/mask_003.jpg,,,,,,,,,,,,,,,,,,,,,,,,,,,,,,,,,,,,,,,,,,,,,,,,0,2,2,2,1,,,,,,,,,,,,,,,,,,,,,,,,,,,,,,,,,,,,,,,,,
889174,001,2022-11-20_17h53.45.378,Info_measure_main_exp,2022.2.2,Win32,61.56877232,,,,,,,,,,,,,,,,,,masks/mask_004.jpg,,,,,,,,,,,,,,,,,,,,,,,,,,,,,,,,,,,,,,,,,,,,,,,,0,3,3,3,1,,,,,,,,,,,,,,,,,,,,,,,,,,,,,,,,,,,,,,,,,
889174,001,2022-11-20_17h53.45.378,Info_measure_main_exp,2022.2.2,Win32,61.56877232,,,,,,,,,,,,,,,,,,masks/mask_002.jpg,,,,,,,,,,,,,,,,,,,,,,,,,,,,,,,,,,,,,,,,,,,,,,,,0,4,4,1,1,,,,,,,,,,,,,,,,,,,,,,,,,,,,,,,,,,,,,,,,,
889174,001,2022-11-20_17h53.45.378,Info_measure_main_exp,2022.2.2,Win32,61.56877232,,,,,,,,,,,,,,,,,,,,,,,,,,,,,,7,0.9332,1,,,,,,,,,,,,1,131,5,5,1950,1,absent_patch/patch0001950.jpg,present_patch/cong_131_5_a.jpg,,,,,,,,,,,,,,,,,,,,0.022135417,0.065104167,1,0,0,response1disk,11,0.002604167,0,1,0,0,center_square,0,10,10,39,1,,,,,,,,,,,,,,,,,,,,,,,
889174,001,2022-11-20_17h53.45.378,Info_measure_main_exp,2022.2.2,Win32,61.56877232,,,,,,,,,,,,,,,,,,masks/mask_001.jpg,,,,,,,,,,,,,,,,,,,,,,,,,,,,,,,,,,,,,,,,,,,0,0,0,0,1,,,,,,,,,,,,,,,,,,,,,,,,,,,,,,,,,,,,,,,,,,,,,,
889174,001,2022-11-20_17h53.45.378,Info_measure_main_exp,2022.2.2,Win32,61.56877232,,,,,,,,,,,,,,,,,,masks/mask_005.jpg,,,,,,,,,,,,,,,,,,,,,,,,,,,,,,,,,,,,,,,,,,,0,1,1,4,1,,,,,,,,,,,,,,,,,,,,,,,,,,,,,,,,,,,,,,,,,,,,,,
889174,001,2022-11-20_17h53.45.378,Info_measure_main_exp,2022.2.2,Win32,61.56877232,,,,,,,,,,,,,,,,,,masks/mask_004.jpg,,,,,,,,,,,,,,,,,,,,,,,,,,,,,,,,,,,,,,,,,,,0,2,2,3,1,,,,,,,,,,,,,,,,,,,,,,,,,,,,,,,,,,,,,,,,,,,,,,
889174,001,2022-11-20_17h53.45.378,Info_measure_main_exp,2022.2.2,Win32,61.56877232,,,,,,,,,,,,,,,,,,masks/mask_002.jpg,,,,,,,,,,,,,,,,,,,,,,,,,,,,,,,,,,,,,,,,,,,0,3,3,1,1,,,,,,,,,,,,,,,,,,,,,,,,,,,,,,,,,,,,,,,,,,,,,,
889174,001,2022-11-20_17h53.45.378,Info_measure_main_exp,2022.2.2,Win32,61.56877232,,,,,,,,,,,,,,,,,,masks/mask_003.jpg,,,,,,,,,,,,,,,,,,,,,,,,,,,,,,,,,,,,,,,,,,,0,4,4,2,1,,,,,,,,,,,,,,,,,,,,,,,,,,,,,,,,,,,,,,,,,,,,,,
889174,001,2022-11-20_17h53.45.378,Info_measure_main_exp,2022.2.2,Win32,61.56877232,,,,,,,,,,,,,,,,,,masks/mask_003.jpg,,,,,,,,,,,,,,,,,,,,,,,,,,,,,,,,,,,,,,,,,,,,,,,,0,0,0,2,1,,,,,,,,,,,,,,,,,,,,,,,,,,,,,,,,,,,,,,,,,
889174,001,2022-11-20_17h53.45.378,Info_measure_main_exp,2022.2.2,Win32,61.56877232,,,,,,,,,,,,,,,,,,masks/mask_004.jpg,,,,,,,,,,,,,,,,,,,,,,,,,,,,,,,,,,,,,,,,,,,,,,,,0,1,1,3,1,,,,,,,,,,,,,,,,,,,,,,,,,,,,,,,,,,,,,,,,,
889174,001,2022-11-20_17h53.45.378,Info_measure_main_exp,2022.2.2,Win32,61.56877232,,,,,,,,,,,,,,,,,,masks/mask_005.jpg,,,,,,,,,,,,,,,,,,,,,,,,,,,,,,,,,,,,,,,,,,,,,,,,0,2,2,4,1,,,,,,,,,,,,,,,,,,,,,,,,,,,,,,,,,,,,,,,,,
889174,001,2022-11-20_17h53.45.378,Info_measure_main_exp,2022.2.2,Win32,61.56877232,,,,,,,,,,,,,,,,,,masks/mask_001.jpg,,,,,,,,,,,,,,,,,,,,,,,,,,,,,,,,,,,,,,,,,,,,,,,,0,3,3,0,1,,,,,,,,,,,,,,,,,,,,,,,,,,,,,,,,,,,,,,,,,
889174,001,2022-11-20_17h53.45.378,Info_measure_main_exp,2022.2.2,Win32,61.56877232,,,,,,,,,,,,,,,,,,masks/mask_002.jpg,,,,,,,,,,,,,,,,,,,,,,,,,,,,,,,,,,,,,,,,,,,,,,,,0,4,4,1,1,,,,,,,,,,,,,,,,,,,,,,,,,,,,,,,,,,,,,,,,,
889174,001,2022-11-20_17h53.45.378,Info_measure_main_exp,2022.2.2,Win32,61.56877232,,,,,,,,,,,,,,,,,,,,,,,,,,,,,,6,0.8511,1,,,,,,,,,,,,0,131,5,5,1950,2166,absent_patch/patch0001950.jpg,absent_patch/patch0002166.jpg,,,,,,,,,,,,,,,,,,,,0.061197917,0.020833333,1,0,0,response1disk,12,-0.002604167,0.00390625,1,0,0,center_square,0,11,11,0,1,,,,,,,,,,,,,,,,,,,,,,,
889174,001,2022-11-20_17h53.45.378,Info_measure_main_exp,2022.2.2,Win32,61.56877232,,,,,,,,,,,,,,,,,,masks/mask_004.jpg,,,,,,,,,,,,,,,,,,,,,,,,,,,,,,,,,,,,,,,,,,,0,0,0,3,1,,,,,,,,,,,,,,,,,,,,,,,,,,,,,,,,,,,,,,,,,,,,,,
889174,001,2022-11-20_17h53.45.378,Info_measure_main_exp,2022.2.2,Win32,61.56877232,,,,,,,,,,,,,,,,,,masks/mask_001.jpg,,,,,,,,,,,,,,,,,,,,,,,,,,,,,,,,,,,,,,,,,,,0,1,1,0,1,,,,,,,,,,,,,,,,,,,,,,,,,,,,,,,,,,,,,,,,,,,,,,
889174,001,2022-11-20_17h53.45.378,Info_measure_main_exp,2022.2.2,Win32,61.56877232,,,,,,,,,,,,,,,,,,masks/mask_002.jpg,,,,,,,,,,,,,,,,,,,,,,,,,,,,,,,,,,,,,,,,,,,0,2,2,1,1,,,,,,,,,,,,,,,,,,,,,,,,,,,,,,,,,,,,,,,,,,,,,,
889174,001,2022-11-20_17h53.45.378,Info_measure_main_exp,2022.2.2,Win32,61.56877232,,,,,,,,,,,,,,,,,,masks/mask_005.jpg,,,,,,,,,,,,,,,,,,,,,,,,,,,,,,,,,,,,,,,,,,,0,3,3,4,1,,,,,,,,,,,,,,,,,,,,,,,,,,,,,,,,,,,,,,,,,,,,,,
889174,001,2022-11-20_17h53.45.378,Info_measure_main_exp,2022.2.2,Win32,61.56877232,,,,,,,,,,,,,,,,,,masks/mask_003.jpg,,,,,,,,,,,,,,,,,,,,,,,,,,,,,,,,,,,,,,,,,,,0,4,4,2,1,,,,,,,,,,,,,,,,,,,,,,,,,,,,,,,,,,,,,,,,,,,,,,
889174,001,2022-11-20_17h53.45.378,Info_measure_main_exp,2022.2.2,Win32,61.56877232,,,,,,,,,,,,,,,,,,masks/mask_005.jpg,,,,,,,,,,,,,,,,,,,,,,,,,,,,,,,,,,,,,,,,,,,,,,,,0,0,0,4,1,,,,,,,,,,,,,,,,,,,,,,,,,,,,,,,,,,,,,,,,,
889174,001,2022-11-20_17h53.45.378,Info_measure_main_exp,2022.2.2,Win32,61.56877232,,,,,,,,,,,,,,,,,,masks/mask_003.jpg,,,,,,,,,,,,,,,,,,,,,,,,,,,,,,,,,,,,,,,,,,,,,,,,0,1,1,2,1,,,,,,,,,,,,,,,,,,,,,,,,,,,,,,,,,,,,,,,,,
889174,001,2022-11-20_17h53.45.378,Info_measure_main_exp,2022.2.2,Win32,61.56877232,,,,,,,,,,,,,,,,,,masks/mask_002.jpg,,,,,,,,,,,,,,,,,,,,,,,,,,,,,,,,,,,,,,,,,,,,,,,,0,2,2,1,1,,,,,,,,,,,,,,,,,,,,,,,,,,,,,,,,,,,,,,,,,
889174,001,2022-11-20_17h53.45.378,Info_measure_main_exp,2022.2.2,Win32,61.56877232,,,,,,,,,,,,,,,,,,masks/mask_001.jpg,,,,,,,,,,,,,,,,,,,,,,,,,,,,,,,,,,,,,,,,,,,,,,,,0,3,3,0,1,,,,,,,,,,,,,,,,,,,,,,,,,,,,,,,,,,,,,,,,,
889174,001,2022-11-20_17h53.45.378,Info_measure_main_exp,2022.2.2,Win32,61.56877232,,,,,,,,,,,,,,,,,,masks/mask_004.jpg,,,,,,,,,,,,,,,,,,,,,,,,,,,,,,,,,,,,,,,,,,,,,,,,0,4,4,3,1,,,,,,,,,,,,,,,,,,,,,,,,,,,,,,,,,,,,,,,,,
889174,001,2022-11-20_17h53.45.378,Info_measure_main_exp,2022.2.2,Win32,61.56877232,,,,,,,,,,,,,,,,,,,,,,,,,,,,,,5,1.4336,1,,,,,,,,,,,,0,131,5,5,2214,2082,absent_patch/patch0002214.jpg,absent_patch/patch0002082.jpg,,,,,,,,,,,,,,,,,,,,0.061197917,-0.026041667,1,0,0,response3disk,13,-0.00390625,0.001302083,1,0,0,center_square,0,12,12,103,1,,,,,,,,,,,,,,,,,,,,,,,
889174,001,2022-11-20_17h53.45.378,Info_measure_main_exp,2022.2.2,Win32,61.56877232,,,,,,,,,,,,,,,,,,masks/mask_003.jpg,,,,,,,,,,,,,,,,,,,,,,,,,,,,,,,,,,,,,,,,,,,0,0,0,2,1,,,,,,,,,,,,,,,,,,,,,,,,,,,,,,,,,,,,,,,,,,,,,,
889174,001,2022-11-20_17h53.45.378,Info_measure_main_exp,2022.2.2,Win32,61.56877232,,,,,,,,,,,,,,,,,,masks/mask_005.jpg,,,,,,,,,,,,,,,,,,,,,,,,,,,,,,,,,,,,,,,,,,,0,1,1,4,1,,,,,,,,,,,,,,,,,,,,,,,,,,,,,,,,,,,,,,,,,,,,,,
889174,001,2022-11-20_17h53.45.378,Info_measure_main_exp,2022.2.2,Win32,61.56877232,,,,,,,,,,,,,,,,,,masks/mask_004.jpg,,,,,,,,,,,,,,,,,,,,,,,,,,,,,,,,,,,,,,,,,,,0,2,2,3,1,,,,,,,,,,,,,,,,,,,,,,,,,,,,,,,,,,,,,,,,,,,,,,
889174,001,2022-11-20_17h53.45.378,Info_measure_main_exp,2022.2.2,Win32,61.56877232,,,,,,,,,,,,,,,,,,masks/mask_002.jpg,,,,,,,,,,,,,,,,,,,,,,,,,,,,,,,,,,,,,,,,,,,0,3,3,1,1,,,,,,,,,,,,,,,,,,,,,,,,,,,,,,,,,,,,,,,,,,,,,,
889174,001,2022-11-20_17h53.45.378,Info_measure_main_exp,2022.2.2,Win32,61.56877232,,,,,,,,,,,,,,,,,,masks/mask_001.jpg,,,,,,,,,,,,,,,,,,,,,,,,,,,,,,,,,,,,,,,,,,,0,4,4,0,1,,,,,,,,,,,,,,,,,,,,,,,,,,,,,,,,,,,,,,,,,,,,,,
889174,001,2022-11-20_17h53.45.378,Info_measure_main_exp,2022.2.2,Win32,61.56877232,,,,,,,,,,,,,,,,,,masks/mask_002.jpg,,,,,,,,,,,,,,,,,,,,,,,,,,,,,,,,,,,,,,,,,,,,,,,,0,0,0,1,1,,,,,,,,,,,,,,,,,,,,,,,,,,,,,,,,,,,,,,,,,
889174,001,2022-11-20_17h53.45.378,Info_measure_main_exp,2022.2.2,Win32,61.56877232,,,,,,,,,,,,,,,,,,masks/mask_003.jpg,,,,,,,,,,,,,,,,,,,,,,,,,,,,,,,,,,,,,,,,,,,,,,,,0,1,1,2,1,,,,,,,,,,,,,,,,,,,,,,,,,,,,,,,,,,,,,,,,,
889174,001,2022-11-20_17h53.45.378,Info_measure_main_exp,2022.2.2,Win32,61.56877232,,,,,,,,,,,,,,,,,,masks/mask_004.jpg,,,,,,,,,,,,,,,,,,,,,,,,,,,,,,,,,,,,,,,,,,,,,,,,0,2,2,3,1,,,,,,,,,,,,,,,,,,,,,,,,,,,,,,,,,,,,,,,,,
889174,001,2022-11-20_17h53.45.378,Info_measure_main_exp,2022.2.2,Win32,61.56877232,,,,,,,,,,,,,,,,,,masks/mask_001.jpg,,,,,,,,,,,,,,,,,,,,,,,,,,,,,,,,,,,,,,,,,,,,,,,,0,3,3,0,1,,,,,,,,,,,,,,,,,,,,,,,,,,,,,,,,,,,,,,,,,
889174,001,2022-11-20_17h53.45.378,Info_measure_main_exp,2022.2.2,Win32,61.56877232,,,,,,,,,,,,,,,,,,masks/mask_005.jpg,,,,,,,,,,,,,,,,,,,,,,,,,,,,,,,,,,,,,,,,,,,,,,,,0,4,4,4,1,,,,,,,,,,,,,,,,,,,,,,,,,,,,,,,,,,,,,,,,,
889174,001,2022-11-20_17h53.45.378,Info_measure_main_exp,2022.2.2,Win32,61.56877232,,,,,,,,,,,,,,,,,,,,,,,,,,,,,,4,1.1845,1,,,,,,,,,,,,0,131,5,5,2190,2178,absent_patch/patch0002190.jpg,absent_patch/patch0002178.jpg,,,,,,,,,,,,,,,,,,,,0.02734375,-0.08203125,1,0,0,response3disk,14,0.002604167,0.002604167,1,0,0,center_square,0,13,13,14,1,,,,,,,,,,,,,,,,,,,,,,,
889174,001,2022-11-20_17h53.45.378,Info_measure_main_exp,2022.2.2,Win32,61.56877232,,,,,,,,,,,,,,,,,,masks/mask_002.jpg,,,,,,,,,,,,,,,,,,,,,,,,,,,,,,,,,,,,,,,,,,,0,0,0,1,1,,,,,,,,,,,,,,,,,,,,,,,,,,,,,,,,,,,,,,,,,,,,,,
889174,001,2022-11-20_17h53.45.378,Info_measure_main_exp,2022.2.2,Win32,61.56877232,,,,,,,,,,,,,,,,,,masks/mask_001.jpg,,,,,,,,,,,,,,,,,,,,,,,,,,,,,,,,,,,,,,,,,,,0,1,1,0,1,,,,,,,,,,,,,,,,,,,,,,,,,,,,,,,,,,,,,,,,,,,,,,
889174,001,2022-11-20_17h53.45.378,Info_measure_main_exp,2022.2.2,Win32,61.56877232,,,,,,,,,,,,,,,,,,masks/mask_005.jpg,,,,,,,,,,,,,,,,,,,,,,,,,,,,,,,,,,,,,,,,,,,0,2,2,4,1,,,,,,,,,,,,,,,,,,,,,,,,,,,,,,,,,,,,,,,,,,,,,,
889174,001,2022-11-20_17h53.45.378,Info_measure_main_exp,2022.2.2,Win32,61.56877232,,,,,,,,,,,,,,,,,,masks/mask_003.jpg,,,,,,,,,,,,,,,,,,,,,,,,,,,,,,,,,,,,,,,,,,,0,3,3,2,1,,,,,,,,,,,,,,,,,,,,,,,,,,,,,,,,,,,,,,,,,,,,,,
889174,001,2022-11-20_17h53.45.378,Info_measure_main_exp,2022.2.2,Win32,61.56877232,,,,,,,,,,,,,,,,,,masks/mask_004.jpg,,,,,,,,,,,,,,,,,,,,,,,,,,,,,,,,,,,,,,,,,,,0,4,4,3,1,,,,,,,,,,,,,,,,,,,,,,,,,,,,,,,,,,,,,,,,,,,,,,
889174,001,2022-11-20_17h53.45.378,Info_measure_main_exp,2022.2.2,Win32,61.56877232,,,,,,,,,,,,,,,,,,masks/mask_003.jpg,,,,,,,,,,,,,,,,,,,,,,,,,,,,,,,,,,,,,,,,,,,,,,,,0,0,0,2,1,,,,,,,,,,,,,,,,,,,,,,,,,,,,,,,,,,,,,,,,,
889174,001,2022-11-20_17h53.45.378,Info_measure_main_exp,2022.2.2,Win32,61.56877232,,,,,,,,,,,,,,,,,,masks/mask_002.jpg,,,,,,,,,,,,,,,,,,,,,,,,,,,,,,,,,,,,,,,,,,,,,,,,0,1,1,1,1,,,,,,,,,,,,,,,,,,,,,,,,,,,,,,,,,,,,,,,,,
889174,001,2022-11-20_17h53.45.378,Info_measure_main_exp,2022.2.2,Win32,61.56877232,,,,,,,,,,,,,,,,,,masks/mask_005.jpg,,,,,,,,,,,,,,,,,,,,,,,,,,,,,,,,,,,,,,,,,,,,,,,,0,2,2,4,1,,,,,,,,,,,,,,,,,,,,,,,,,,,,,,,,,,,,,,,,,
889174,001,2022-11-20_17h53.45.378,Info_measure_main_exp,2022.2.2,Win32,61.56877232,,,,,,,,,,,,,,,,,,masks/mask_001.jpg,,,,,,,,,,,,,,,,,,,,,,,,,,,,,,,,,,,,,,,,,,,,,,,,0,3,3,0,1,,,,,,,,,,,,,,,,,,,,,,,,,,,,,,,,,,,,,,,,,
889174,001,2022-11-20_17h53.45.378,Info_measure_main_exp,2022.2.2,Win32,61.56877232,,,,,,,,,,,,,,,,,,masks/mask_004.jpg,,,,,,,,,,,,,,,,,,,,,,,,,,,,,,,,,,,,,,,,,,,,,,,,0,4,4,3,1,,,,,,,,,,,,,,,,,,,,,,,,,,,,,,,,,,,,,,,,,
889174,001,2022-11-20_17h53.45.378,Info_measure_main_exp,2022.2.2,Win32,61.56877232,,,,,,,,,,,,,,,,,,,,,,,,,,,,,,4,2.1169,1,,,,,,,,,,,,1,131,5,5,1,1986,present_patch/cong_131_5_a.jpg,absent_patch/patch0001986.jpg,,,,,,,,,,,,,,,,,,,,0.022135417,-0.071614583,1,0,0,response3disk,15,-0.006510417,0.001302083,1,0,0,center_square,0,14,14,106,1,,,,,,,,,,,,,,,,,,,,,,,
889174,001,2022-11-20_17h53.45.378,Info_measure_main_exp,2022.2.2,Win32,61.56877232,,,,,,,,,,,,,,,,,,masks/mask_001.jpg,,,,,,,,,,,,,,,,,,,,,,,,,,,,,,,,,,,,,,,,,,,0,0,0,0,1,,,,,,,,,,,,,,,,,,,,,,,,,,,,,,,,,,,,,,,,,,,,,,
889174,001,2022-11-20_17h53.45.378,Info_measure_main_exp,2022.2.2,Win32,61.56877232,,,,,,,,,,,,,,,,,,masks/mask_004.jpg,,,,,,,,,,,,,,,,,,,,,,,,,,,,,,,,,,,,,,,,,,,0,1,1,3,1,,,,,,,,,,,,,,,,,,,,,,,,,,,,,,,,,,,,,,,,,,,,,,
889174,001,2022-11-20_17h53.45.378,Info_measure_main_exp,2022.2.2,Win32,61.56877232,,,,,,,,,,,,,,,,,,masks/mask_003.jpg,,,,,,,,,,,,,,,,,,,,,,,,,,,,,,,,,,,,,,,,,,,0,2,2,2,1,,,,,,,,,,,,,,,,,,,,,,,,,,,,,,,,,,,,,,,,,,,,,,
889174,001,2022-11-20_17h53.45.378,Info_measure_main_exp,2022.2.2,Win32,61.56877232,,,,,,,,,,,,,,,,,,masks/mask_005.jpg,,,,,,,,,,,,,,,,,,,,,,,,,,,,,,,,,,,,,,,,,,,0,3,3,4,1,,,,,,,,,,,,,,,,,,,,,,,,,,,,,,,,,,,,,,,,,,,,,,
889174,001,2022-11-20_17h53.45.378,Info_measure_main_exp,2022.2.2,Win32,61.56877232,,,,,,,,,,,,,,,,,,masks/mask_002.jpg,,,,,,,,,,,,,,,,,,,,,,,,,,,,,,,,,,,,,,,,,,,0,4,4,1,1,,,,,,,,,,,,,,,,,,,,,,,,,,,,,,,,,,,,,,,,,,,,,,
889174,001,2022-11-20_17h53.45.378,Info_measure_main_exp,2022.2.2,Win32,61.56877232,,,,,,,,,,,,,,,,,,masks/mask_002.jpg,,,,,,,,,,,,,,,,,,,,,,,,,,,,,,,,,,,,,,,,,,,,,,,,0,0,0,1,1,,,,,,,,,,,,,,,,,,,,,,,,,,,,,,,,,,,,,,,,,
889174,001,2022-11-20_17h53.45.378,Info_measure_main_exp,2022.2.2,Win32,61.56877232,,,,,,,,,,,,,,,,,,masks/mask_001.jpg,,,,,,,,,,,,,,,,,,,,,,,,,,,,,,,,,,,,,,,,,,,,,,,,0,1,1,0,1,,,,,,,,,,,,,,,,,,,,,,,,,,,,,,,,,,,,,,,,,
889174,001,2022-11-20_17h53.45.378,Info_measure_main_exp,2022.2.2,Win32,61.56877232,,,,,,,,,,,,,,,,,,masks/mask_003.jpg,,,,,,,,,,,,,,,,,,,,,,,,,,,,,,,,,,,,,,,,,,,,,,,,0,2,2,2,1,,,,,,,,,,,,,,,,,,,,,,,,,,,,,,,,,,,,,,,,,
889174,001,2022-11-20_17h53.45.378,Info_measure_main_exp,2022.2.2,Win32,61.56877232,,,,,,,,,,,,,,,,,,masks/mask_005.jpg,,,,,,,,,,,,,,,,,,,,,,,,,,,,,,,,,,,,,,,,,,,,,,,,0,3,3,4,1,,,,,,,,,,,,,,,,,,,,,,,,,,,,,,,,,,,,,,,,,
889174,001,2022-11-20_17h53.45.378,Info_measure_main_exp,2022.2.2,Win32,61.56877232,,,,,,,,,,,,,,,,,,masks/mask_004.jpg,,,,,,,,,,,,,,,,,,,,,,,,,,,,,,,,,,,,,,,,,,,,,,,,0,4,4,3,1,,,,,,,,,,,,,,,,,,,,,,,,,,,,,,,,,,,,,,,,,
889174,001,2022-11-20_17h53.45.378,Info_measure_main_exp,2022.2.2,Win32,61.56877232,,,,,,,,,,,,,,,,,,,,,,,,,,,,,,7,2.5513,1,,,,,,,,,,,,0,131,5,5,1974,2238,absent_patch/patch0001974.jpg,absent_patch/patch0002238.jpg,,,,,,,,,,,,,,,,,,,,0.0390625,0.1015625,1,0,0,response1disk,16,0.002604167,-0.002604167,1,0,0,center_square,0,15,15,95,1,,,,,,,,,,,,,,,,,,,,,,,
889174,001,2022-11-20_17h53.45.378,Info_measure_main_exp,2022.2.2,Win32,61.56877232,,,,,,,,,,,,,,,,,,masks/mask_001.jpg,,,,,,,,,,,,,,,,,,,,,,,,,,,,,,,,,,,,,,,,,,,0,0,0,0,1,,,,,,,,,,,,,,,,,,,,,,,,,,,,,,,,,,,,,,,,,,,,,,
889174,001,2022-11-20_17h53.45.378,Info_measure_main_exp,2022.2.2,Win32,61.56877232,,,,,,,,,,,,,,,,,,masks/mask_005.jpg,,,,,,,,,,,,,,,,,,,,,,,,,,,,,,,,,,,,,,,,,,,0,1,1,4,1,,,,,,,,,,,,,,,,,,,,,,,,,,,,,,,,,,,,,,,,,,,,,,
889174,001,2022-11-20_17h53.45.378,Info_measure_main_exp,2022.2.2,Win32,61.56877232,,,,,,,,,,,,,,,,,,masks/mask_003.jpg,,,,,,,,,,,,,,,,,,,,,,,,,,,,,,,,,,,,,,,,,,,0,2,2,2,1,,,,,,,,,,,,,,,,,,,,,,,,,,,,,,,,,,,,,,,,,,,,,,
889174,001,2022-11-20_17h53.45.378,Info_measure_main_exp,2022.2.2,Win32,61.56877232,,,,,,,,,,,,,,,,,,masks/mask_004.jpg,,,,,,,,,,,,,,,,,,,,,,,,,,,,,,,,,,,,,,,,,,,0,3,3,3,1,,,,,,,,,,,,,,,,,,,,,,,,,,,,,,,,,,,,,,,,,,,,,,
889174,001,2022-11-20_17h53.45.378,Info_measure_main_exp,2022.2.2,Win32,61.56877232,,,,,,,,,,,,,,,,,,masks/mask_002.jpg,,,,,,,,,,,,,,,,,,,,,,,,,,,,,,,,,,,,,,,,,,,0,4,4,1,1,,,,,,,,,,,,,,,,,,,,,,,,,,,,,,,,,,,,,,,,,,,,,,
889174,001,2022-11-20_17h53.45.378,Info_measure_main_exp,2022.2.2,Win32,61.56877232,,,,,,,,,,,,,,,,,,masks/mask_002.jpg,,,,,,,,,,,,,,,,,,,,,,,,,,,,,,,,,,,,,,,,,,,,,,,,0,0,0,1,1,,,,,,,,,,,,,,,,,,,,,,,,,,,,,,,,,,,,,,,,,
889174,001,2022-11-20_17h53.45.378,Info_measure_main_exp,2022.2.2,Win32,61.56877232,,,,,,,,,,,,,,,,,,masks/mask_004.jpg,,,,,,,,,,,,,,,,,,,,,,,,,,,,,,,,,,,,,,,,,,,,,,,,0,1,1,3,1,,,,,,,,,,,,,,,,,,,,,,,,,,,,,,,,,,,,,,,,,
889174,001,2022-11-20_17h53.45.378,Info_measure_main_exp,2022.2.2,Win32,61.56877232,,,,,,,,,,,,,,,,,,masks/mask_005.jpg,,,,,,,,,,,,,,,,,,,,,,,,,,,,,,,,,,,,,,,,,,,,,,,,0,2,2,4,1,,,,,,,,,,,,,,,,,,,,,,,,,,,,,,,,,,,,,,,,,
889174,001,2022-11-20_17h53.45.378,Info_measure_main_exp,2022.2.2,Win32,61.56877232,,,,,,,,,,,,,,,,,,masks/mask_003.jpg,,,,,,,,,,,,,,,,,,,,,,,,,,,,,,,,,,,,,,,,,,,,,,,,0,3,3,2,1,,,,,,,,,,,,,,,,,,,,,,,,,,,,,,,,,,,,,,,,,
889174,001,2022-11-20_17h53.45.378,Info_measure_main_exp,2022.2.2,Win32,61.56877232,,,,,,,,,,,,,,,,,,masks/mask_001.jpg,,,,,,,,,,,,,,,,,,,,,,,,,,,,,,,,,,,,,,,,,,,,,,,,0,4,4,0,1,,,,,,,,,,,,,,,,,,,,,,,,,,,,,,,,,,,,,,,,,
889174,001,2022-11-20_17h53.45.378,Info_measure_main_exp,2022.2.2,Win32,61.56877232,,,,,,,,,,,,,,,,,,,,,,,,,,,,,,7,1.0998,1,,,,,,,,,,,,0,131,5,5,1974,2298,absent_patch/patch0001974.jpg,absent_patch/patch0002298.jpg,,,,,,,,,,,,,,,,,,,,0.016927083,0.069010417,1,0,0,response1disk,17,-0.0078125,-0.009114583,1,0,0,center_square,0,16,16,6,1,,,,,,,,,,,,,,,,,,,,,,,
889174,001,2022-11-20_17h53.45.378,Info_measure_main_exp,2022.2.2,Win32,61.56877232,,,,,,,,,,,,,,,,,,masks/mask_001.jpg,,,,,,,,,,,,,,,,,,,,,,,,,,,,,,,,,,,,,,,,,,,0,0,0,0,1,,,,,,,,,,,,,,,,,,,,,,,,,,,,,,,,,,,,,,,,,,,,,,
889174,001,2022-11-20_17h53.45.378,Info_measure_main_exp,2022.2.2,Win32,61.56877232,,,,,,,,,,,,,,,,,,masks/mask_004.jpg,,,,,,,,,,,,,,,,,,,,,,,,,,,,,,,,,,,,,,,,,,,0,1,1,3,1,,,,,,,,,,,,,,,,,,,,,,,,,,,,,,,,,,,,,,,,,,,,,,
889174,001,2022-11-20_17h53.45.378,Info_measure_main_exp,2022.2.2,Win32,61.56877232,,,,,,,,,,,,,,,,,,masks/mask_003.jpg,,,,,,,,,,,,,,,,,,,,,,,,,,,,,,,,,,,,,,,,,,,0,2,2,2,1,,,,,,,,,,,,,,,,,,,,,,,,,,,,,,,,,,,,,,,,,,,,,,
889174,001,2022-11-20_17h53.45.378,Info_measure_main_exp,2022.2.2,Win32,61.56877232,,,,,,,,,,,,,,,,,,masks/mask_005.jpg,,,,,,,,,,,,,,,,,,,,,,,,,,,,,,,,,,,,,,,,,,,0,3,3,4,1,,,,,,,,,,,,,,,,,,,,,,,,,,,,,,,,,,,,,,,,,,,,,,
889174,001,2022-11-20_17h53.45.378,Info_measure_main_exp,2022.2.2,Win32,61.56877232,,,,,,,,,,,,,,,,,,masks/mask_002.jpg,,,,,,,,,,,,,,,,,,,,,,,,,,,,,,,,,,,,,,,,,,,0,4,4,1,1,,,,,,,,,,,,,,,,,,,,,,,,,,,,,,,,,,,,,,,,,,,,,,
889174,001,2022-11-20_17h53.45.378,Info_measure_main_exp,2022.2.2,Win32,61.56877232,,,,,,,,,,,,,,,,,,masks/mask_003.jpg,,,,,,,,,,,,,,,,,,,,,,,,,,,,,,,,,,,,,,,,,,,,,,,,0,0,0,2,1,,,,,,,,,,,,,,,,,,,,,,,,,,,,,,,,,,,,,,,,,
889174,001,2022-11-20_17h53.45.378,Info_measure_main_exp,2022.2.2,Win32,61.56877232,,,,,,,,,,,,,,,,,,masks/mask_002.jpg,,,,,,,,,,,,,,,,,,,,,,,,,,,,,,,,,,,,,,,,,,,,,,,,0,1,1,1,1,,,,,,,,,,,,,,,,,,,,,,,,,,,,,,,,,,,,,,,,,
889174,001,2022-11-20_17h53.45.378,Info_measure_main_exp,2022.2.2,Win32,61.56877232,,,,,,,,,,,,,,,,,,masks/mask_004.jpg,,,,,,,,,,,,,,,,,,,,,,,,,,,,,,,,,,,,,,,,,,,,,,,,0,2,2,3,1,,,,,,,,,,,,,,,,,,,,,,,,,,,,,,,,,,,,,,,,,
889174,001,2022-11-20_17h53.45.378,Info_measure_main_exp,2022.2.2,Win32,61.56877232,,,,,,,,,,,,,,,,,,masks/mask_001.jpg,,,,,,,,,,,,,,,,,,,,,,,,,,,,,,,,,,,,,,,,,,,,,,,,0,3,3,0,1,,,,,,,,,,,,,,,,,,,,,,,,,,,,,,,,,,,,,,,,,
889174,001,2022-11-20_17h53.45.378,Info_measure_main_exp,2022.2.2,Win32,61.56877232,,,,,,,,,,,,,,,,,,masks/mask_005.jpg,,,,,,,,,,,,,,,,,,,,,,,,,,,,,,,,,,,,,,,,,,,,,,,,0,4,4,4,1,,,,,,,,,,,,,,,,,,,,,,,,,,,,,,,,,,,,,,,,,
889174,001,2022-11-20_17h53.45.378,Info_measure_main_exp,2022.2.2,Win32,61.56877232,,,,,,,,,,,,,,,,,,,,,,,,,,,,,,6,1.1013,1,,,,,,,,,,,,0,131,5,5,2142,2238,absent_patch/patch0002142.jpg,absent_patch/patch0002238.jpg,,,,,,,,,,,,,,,,,,,,0.028645833,0.010416667,1,0,0,response1disk,18,-0.001302083,0.001302083,1,0,0,center_square,0,17,17,101,1,,,,,,,,,,,,,,,,,,,,,,,
889174,001,2022-11-20_17h53.45.378,Info_measure_main_exp,2022.2.2,Win32,61.56877232,,,,,,,,,,,,,,,,,,masks/mask_003.jpg,,,,,,,,,,,,,,,,,,,,,,,,,,,,,,,,,,,,,,,,,,,0,0,0,2,1,,,,,,,,,,,,,,,,,,,,,,,,,,,,,,,,,,,,,,,,,,,,,,
889174,001,2022-11-20_17h53.45.378,Info_measure_main_exp,2022.2.2,Win32,61.56877232,,,,,,,,,,,,,,,,,,masks/mask_005.jpg,,,,,,,,,,,,,,,,,,,,,,,,,,,,,,,,,,,,,,,,,,,0,1,1,4,1,,,,,,,,,,,,,,,,,,,,,,,,,,,,,,,,,,,,,,,,,,,,,,
889174,001,2022-11-20_17h53.45.378,Info_measure_main_exp,2022.2.2,Win32,61.56877232,,,,,,,,,,,,,,,,,,masks/mask_001.jpg,,,,,,,,,,,,,,,,,,,,,,,,,,,,,,,,,,,,,,,,,,,0,2,2,0,1,,,,,,,,,,,,,,,,,,,,,,,,,,,,,,,,,,,,,,,,,,,,,,
889174,001,2022-11-20_17h53.45.378,Info_measure_main_exp,2022.2.2,Win32,61.56877232,,,,,,,,,,,,,,,,,,masks/mask_002.jpg,,,,,,,,,,,,,,,,,,,,,,,,,,,,,,,,,,,,,,,,,,,0,3,3,1,1,,,,,,,,,,,,,,,,,,,,,,,,,,,,,,,,,,,,,,,,,,,,,,
889174,001,2022-11-20_17h53.45.378,Info_measure_main_exp,2022.2.2,Win32,61.56877232,,,,,,,,,,,,,,,,,,masks/mask_004.jpg,,,,,,,,,,,,,,,,,,,,,,,,,,,,,,,,,,,,,,,,,,,0,4,4,3,1,,,,,,,,,,,,,,,,,,,,,,,,,,,,,,,,,,,,,,,,,,,,,,
889174,001,2022-11-20_17h53.45.378,Info_measure_main_exp,2022.2.2,Win32,61.56877232,,,,,,,,,,,,,,,,,,masks/mask_003.jpg,,,,,,,,,,,,,,,,,,,,,,,,,,,,,,,,,,,,,,,,,,,,,,,,0,0,0,2,1,,,,,,,,,,,,,,,,,,,,,,,,,,,,,,,,,,,,,,,,,
889174,001,2022-11-20_17h53.45.378,Info_measure_main_exp,2022.2.2,Win32,61.56877232,,,,,,,,,,,,,,,,,,masks/mask_001.jpg,,,,,,,,,,,,,,,,,,,,,,,,,,,,,,,,,,,,,,,,,,,,,,,,0,1,1,0,1,,,,,,,,,,,,,,,,,,,,,,,,,,,,,,,,,,,,,,,,,
889174,001,2022-11-20_17h53.45.378,Info_measure_main_exp,2022.2.2,Win32,61.56877232,,,,,,,,,,,,,,,,,,masks/mask_005.jpg,,,,,,,,,,,,,,,,,,,,,,,,,,,,,,,,,,,,,,,,,,,,,,,,0,2,2,4,1,,,,,,,,,,,,,,,,,,,,,,,,,,,,,,,,,,,,,,,,,
889174,001,2022-11-20_17h53.45.378,Info_measure_main_exp,2022.2.2,Win32,61.56877232,,,,,,,,,,,,,,,,,,masks/mask_004.jpg,,,,,,,,,,,,,,,,,,,,,,,,,,,,,,,,,,,,,,,,,,,,,,,,0,3,3,3,1,,,,,,,,,,,,,,,,,,,,,,,,,,,,,,,,,,,,,,,,,
889174,001,2022-11-20_17h53.45.378,Info_measure_main_exp,2022.2.2,Win32,61.56877232,,,,,,,,,,,,,,,,,,masks/mask_002.jpg,,,,,,,,,,,,,,,,,,,,,,,,,,,,,,,,,,,,,,,,,,,,,,,,0,4,4,1,1,,,,,,,,,,,,,,,,,,,,,,,,,,,,,,,,,,,,,,,,,
889174,001,2022-11-20_17h53.45.378,Info_measure_main_exp,2022.2.2,Win32,61.56877232,,,,,,,,,,,,,,,,,,,,,,,,,,,,,,7,1.3329,1,,,,,,,,,,,,0,131,5,5,2178,1986,absent_patch/patch0002178.jpg,absent_patch/patch0001986.jpg,,,,,,,,,,,,,,,,,,,,0.02734375,0.044270833,1,0,0,response1disk,19,0.005208333,0.00390625,1,0,0,center_square,0,18,18,46,1,,,,,,,,,,,,,,,,,,,,,,,
889174,001,2022-11-20_17h53.45.378,Info_measure_main_exp,2022.2.2,Win32,61.56877232,,,,,,,,,,,,,,,,,,masks/mask_002.jpg,,,,,,,,,,,,,,,,,,,,,,,,,,,,,,,,,,,,,,,,,,,0,0,0,1,1,,,,,,,,,,,,,,,,,,,,,,,,,,,,,,,,,,,,,,,,,,,,,,
889174,001,2022-11-20_17h53.45.378,Info_measure_main_exp,2022.2.2,Win32,61.56877232,,,,,,,,,,,,,,,,,,masks/mask_004.jpg,,,,,,,,,,,,,,,,,,,,,,,,,,,,,,,,,,,,,,,,,,,0,1,1,3,1,,,,,,,,,,,,,,,,,,,,,,,,,,,,,,,,,,,,,,,,,,,,,,
889174,001,2022-11-20_17h53.45.378,Info_measure_main_exp,2022.2.2,Win32,61.56877232,,,,,,,,,,,,,,,,,,masks/mask_001.jpg,,,,,,,,,,,,,,,,,,,,,,,,,,,,,,,,,,,,,,,,,,,0,2,2,0,1,,,,,,,,,,,,,,,,,,,,,,,,,,,,,,,,,,,,,,,,,,,,,,
889174,001,2022-11-20_17h53.45.378,Info_measure_main_exp,2022.2.2,Win32,61.56877232,,,,,,,,,,,,,,,,,,masks/mask_005.jpg,,,,,,,,,,,,,,,,,,,,,,,,,,,,,,,,,,,,,,,,,,,0,3,3,4,1,,,,,,,,,,,,,,,,,,,,,,,,,,,,,,,,,,,,,,,,,,,,,,
889174,001,2022-11-20_17h53.45.378,Info_measure_main_exp,2022.2.2,Win32,61.56877232,,,,,,,,,,,,,,,,,,masks/mask_003.jpg,,,,,,,,,,,,,,,,,,,,,,,,,,,,,,,,,,,,,,,,,,,0,4,4,2,1,,,,,,,,,,,,,,,,,,,,,,,,,,,,,,,,,,,,,,,,,,,,,,
889174,001,2022-11-20_17h53.45.378,Info_measure_main_exp,2022.2.2,Win32,61.56877232,,,,,,,,,,,,,,,,,,masks/mask_005.jpg,,,,,,,,,,,,,,,,,,,,,,,,,,,,,,,,,,,,,,,,,,,,,,,,0,0,0,4,1,,,,,,,,,,,,,,,,,,,,,,,,,,,,,,,,,,,,,,,,,
889174,001,2022-11-20_17h53.45.378,Info_measure_main_exp,2022.2.2,Win32,61.56877232,,,,,,,,,,,,,,,,,,masks/mask_002.jpg,,,,,,,,,,,,,,,,,,,,,,,,,,,,,,,,,,,,,,,,,,,,,,,,0,1,1,1,1,,,,,,,,,,,,,,,,,,,,,,,,,,,,,,,,,,,,,,,,,
889174,001,2022-11-20_17h53.45.378,Info_measure_main_exp,2022.2.2,Win32,61.56877232,,,,,,,,,,,,,,,,,,masks/mask_003.jpg,,,,,,,,,,,,,,,,,,,,,,,,,,,,,,,,,,,,,,,,,,,,,,,,0,2,2,2,1,,,,,,,,,,,,,,,,,,,,,,,,,,,,,,,,,,,,,,,,,
889174,001,2022-11-20_17h53.45.378,Info_measure_main_exp,2022.2.2,Win32,61.56877232,,,,,,,,,,,,,,,,,,masks/mask_004.jpg,,,,,,,,,,,,,,,,,,,,,,,,,,,,,,,,,,,,,,,,,,,,,,,,0,3,3,3,1,,,,,,,,,,,,,,,,,,,,,,,,,,,,,,,,,,,,,,,,,
889174,001,2022-11-20_17h53.45.378,Info_measure_main_exp,2022.2.2,Win32,61.56877232,,,,,,,,,,,,,,,,,,masks/mask_001.jpg,,,,,,,,,,,,,,,,,,,,,,,,,,,,,,,,,,,,,,,,,,,,,,,,0,4,4,0,1,,,,,,,,,,,,,,,,,,,,,,,,,,,,,,,,,,,,,,,,,
889174,001,2022-11-20_17h53.45.378,Info_measure_main_exp,2022.2.2,Win32,61.56877232,,,,,,,,,,,,,,,,,,,,,,,,,,,,,,0,0.6665,1,,,,,,,,,,,,0,131,5,5,2250,2250,absent_patch/patch0002250.jpg,absent_patch/patch0002250.jpg,,,,,,,,,,,,,,,,,,,,-0.024739583,0.06640625,1,0,0,response7disk,20,0.00390625,0.001302083,1,0,0,center_square,0,19,19,56,1,,,,,,,,,,,,,,,,,,,,,,,
889174,001,2022-11-20_17h53.45.378,Info_measure_main_exp,2022.2.2,Win32,61.56877232,,,,,,,,,,,,,,,,,,masks/mask_005.jpg,,,,,,,,,,,,,,,,,,,,,,,,,,,,,,,,,,,,,,,,,,,0,0,0,4,1,,,,,,,,,,,,,,,,,,,,,,,,,,,,,,,,,,,,,,,,,,,,,,
889174,001,2022-11-20_17h53.45.378,Info_measure_main_exp,2022.2.2,Win32,61.56877232,,,,,,,,,,,,,,,,,,masks/mask_002.jpg,,,,,,,,,,,,,,,,,,,,,,,,,,,,,,,,,,,,,,,,,,,0,1,1,1,1,,,,,,,,,,,,,,,,,,,,,,,,,,,,,,,,,,,,,,,,,,,,,,
889174,001,2022-11-20_17h53.45.378,Info_measure_main_exp,2022.2.2,Win32,61.56877232,,,,,,,,,,,,,,,,,,masks/mask_001.jpg,,,,,,,,,,,,,,,,,,,,,,,,,,,,,,,,,,,,,,,,,,,0,2,2,0,1,,,,,,,,,,,,,,,,,,,,,,,,,,,,,,,,,,,,,,,,,,,,,,
889174,001,2022-11-20_17h53.45.378,Info_measure_main_exp,2022.2.2,Win32,61.56877232,,,,,,,,,,,,,,,,,,masks/mask_004.jpg,,,,,,,,,,,,,,,,,,,,,,,,,,,,,,,,,,,,,,,,,,,0,3,3,3,1,,,,,,,,,,,,,,,,,,,,,,,,,,,,,,,,,,,,,,,,,,,,,,
889174,001,2022-11-20_17h53.45.378,Info_measure_main_exp,2022.2.2,Win32,61.56877232,,,,,,,,,,,,,,,,,,masks/mask_003.jpg,,,,,,,,,,,,,,,,,,,,,,,,,,,,,,,,,,,,,,,,,,,0,4,4,2,1,,,,,,,,,,,,,,,,,,,,,,,,,,,,,,,,,,,,,,,,,,,,,,
889174,001,2022-11-20_17h53.45.378,Info_measure_main_exp,2022.2.2,Win32,61.56877232,,,,,,,,,,,,,,,,,,masks/mask_005.jpg,,,,,,,,,,,,,,,,,,,,,,,,,,,,,,,,,,,,,,,,,,,,,,,,0,0,0,4,1,,,,,,,,,,,,,,,,,,,,,,,,,,,,,,,,,,,,,,,,,
889174,001,2022-11-20_17h53.45.378,Info_measure_main_exp,2022.2.2,Win32,61.56877232,,,,,,,,,,,,,,,,,,masks/mask_004.jpg,,,,,,,,,,,,,,,,,,,,,,,,,,,,,,,,,,,,,,,,,,,,,,,,0,1,1,3,1,,,,,,,,,,,,,,,,,,,,,,,,,,,,,,,,,,,,,,,,,
889174,001,2022-11-20_17h53.45.378,Info_measure_main_exp,2022.2.2,Win32,61.56877232,,,,,,,,,,,,,,,,,,masks/mask_002.jpg,,,,,,,,,,,,,,,,,,,,,,,,,,,,,,,,,,,,,,,,,,,,,,,,0,2,2,1,1,,,,,,,,,,,,,,,,,,,,,,,,,,,,,,,,,,,,,,,,,
889174,001,2022-11-20_17h53.45.378,Info_measure_main_exp,2022.2.2,Win32,61.56877232,,,,,,,,,,,,,,,,,,masks/mask_003.jpg,,,,,,,,,,,,,,,,,,,,,,,,,,,,,,,,,,,,,,,,,,,,,,,,0,3,3,2,1,,,,,,,,,,,,,,,,,,,,,,,,,,,,,,,,,,,,,,,,,
889174,001,2022-11-20_17h53.45.378,Info_measure_main_exp,2022.2.2,Win32,61.56877232,,,,,,,,,,,,,,,,,,masks/mask_001.jpg,,,,,,,,,,,,,,,,,,,,,,,,,,,,,,,,,,,,,,,,,,,,,,,,0,4,4,0,1,,,,,,,,,,,,,,,,,,,,,,,,,,,,,,,,,,,,,,,,,
889174,001,2022-11-20_17h53.45.378,Info_measure_main_exp,2022.2.2,Win32,61.56877232,,,,,,,,,,,,,,,,,,,,,,,,,,,,,,7,1.3999,1,,,,,,,,,,,,1,131,5,5,2082,1,absent_patch/patch0002082.jpg,present_patch/cong_131_5_a.jpg,,,,,,,,,,,,,,,,,,,,0.028645833,0.0625,1,0,0,response1disk,21,0.002604167,0.00390625,1,0,0,center_square,0,20,20,65,1,,,,,,,,,,,,,,,,,,,,,,,
889174,001,2022-11-20_17h53.45.378,Info_measure_main_exp,2022.2.2,Win32,61.56877232,,,,,,,,,,,,,,,,,,masks/mask_001.jpg,,,,,,,,,,,,,,,,,,,,,,,,,,,,,,,,,,,,,,,,,,,0,0,0,0,1,,,,,,,,,,,,,,,,,,,,,,,,,,,,,,,,,,,,,,,,,,,,,,
889174,001,2022-11-20_17h53.45.378,Info_measure_main_exp,2022.2.2,Win32,61.56877232,,,,,,,,,,,,,,,,,,masks/mask_003.jpg,,,,,,,,,,,,,,,,,,,,,,,,,,,,,,,,,,,,,,,,,,,0,1,1,2,1,,,,,,,,,,,,,,,,,,,,,,,,,,,,,,,,,,,,,,,,,,,,,,
889174,001,2022-11-20_17h53.45.378,Info_measure_main_exp,2022.2.2,Win32,61.56877232,,,,,,,,,,,,,,,,,,masks/mask_005.jpg,,,,,,,,,,,,,,,,,,,,,,,,,,,,,,,,,,,,,,,,,,,0,2,2,4,1,,,,,,,,,,,,,,,,,,,,,,,,,,,,,,,,,,,,,,,,,,,,,,
889174,001,2022-11-20_17h53.45.378,Info_measure_main_exp,2022.2.2,Win32,61.56877232,,,,,,,,,,,,,,,,,,masks/mask_004.jpg,,,,,,,,,,,,,,,,,,,,,,,,,,,,,,,,,,,,,,,,,,,0,3,3,3,1,,,,,,,,,,,,,,,,,,,,,,,,,,,,,,,,,,,,,,,,,,,,,,
889174,001,2022-11-20_17h53.45.378,Info_measure_main_exp,2022.2.2,Win32,61.56877232,,,,,,,,,,,,,,,,,,masks/mask_002.jpg,,,,,,,,,,,,,,,,,,,,,,,,,,,,,,,,,,,,,,,,,,,0,4,4,1,1,,,,,,,,,,,,,,,,,,,,,,,,,,,,,,,,,,,,,,,,,,,,,,
889174,001,2022-11-20_17h53.45.378,Info_measure_main_exp,2022.2.2,Win32,61.56877232,,,,,,,,,,,,,,,,,,masks/mask_001.jpg,,,,,,,,,,,,,,,,,,,,,,,,,,,,,,,,,,,,,,,,,,,,,,,,0,0,0,0,1,,,,,,,,,,,,,,,,,,,,,,,,,,,,,,,,,,,,,,,,,
889174,001,2022-11-20_17h53.45.378,Info_measure_main_exp,2022.2.2,Win32,61.56877232,,,,,,,,,,,,,,,,,,masks/mask_003.jpg,,,,,,,,,,,,,,,,,,,,,,,,,,,,,,,,,,,,,,,,,,,,,,,,0,1,1,2,1,,,,,,,,,,,,,,,,,,,,,,,,,,,,,,,,,,,,,,,,,
889174,001,2022-11-20_17h53.45.378,Info_measure_main_exp,2022.2.2,Win32,61.56877232,,,,,,,,,,,,,,,,,,masks/mask_005.jpg,,,,,,,,,,,,,,,,,,,,,,,,,,,,,,,,,,,,,,,,,,,,,,,,0,2,2,4,1,,,,,,,,,,,,,,,,,,,,,,,,,,,,,,,,,,,,,,,,,
889174,001,2022-11-20_17h53.45.378,Info_measure_main_exp,2022.2.2,Win32,61.56877232,,,,,,,,,,,,,,,,,,masks/mask_002.jpg,,,,,,,,,,,,,,,,,,,,,,,,,,,,,,,,,,,,,,,,,,,,,,,,0,3,3,1,1,,,,,,,,,,,,,,,,,,,,,,,,,,,,,,,,,,,,,,,,,
889174,001,2022-11-20_17h53.45.378,Info_measure_main_exp,2022.2.2,Win32,61.56877232,,,,,,,,,,,,,,,,,,masks/mask_004.jpg,,,,,,,,,,,,,,,,,,,,,,,,,,,,,,,,,,,,,,,,,,,,,,,,0,4,4,3,1,,,,,,,,,,,,,,,,,,,,,,,,,,,,,,,,,,,,,,,,,
889174,001,2022-11-20_17h53.45.378,Info_measure_main_exp,2022.2.2,Win32,61.56877232,,,,,,,,,,,,,,,,,,,,,,,,,,,,,,6,0.8343,1,,,,,,,,,,,,0,131,5,5,1950,2178,absent_patch/patch0001950.jpg,absent_patch/patch0002178.jpg,,,,,,,,,,,,,,,,,,,,0.036458333,0.020833333,1,0,0,response1disk,22,0.005208333,0.001302083,1,0,0,center_square,0,21,21,61,1,,,,,,,,,,,,,,,,,,,,,,,
889174,001,2022-11-20_17h53.45.378,Info_measure_main_exp,2022.2.2,Win32,61.56877232,,,,,,,,,,,,,,,,,,masks/mask_005.jpg,,,,,,,,,,,,,,,,,,,,,,,,,,,,,,,,,,,,,,,,,,,0,0,0,4,1,,,,,,,,,,,,,,,,,,,,,,,,,,,,,,,,,,,,,,,,,,,,,,
889174,001,2022-11-20_17h53.45.378,Info_measure_main_exp,2022.2.2,Win32,61.56877232,,,,,,,,,,,,,,,,,,masks/mask_003.jpg,,,,,,,,,,,,,,,,,,,,,,,,,,,,,,,,,,,,,,,,,,,0,1,1,2,1,,,,,,,,,,,,,,,,,,,,,,,,,,,,,,,,,,,,,,,,,,,,,,
889174,001,2022-11-20_17h53.45.378,Info_measure_main_exp,2022.2.2,Win32,61.56877232,,,,,,,,,,,,,,,,,,masks/mask_004.jpg,,,,,,,,,,,,,,,,,,,,,,,,,,,,,,,,,,,,,,,,,,,0,2,2,3,1,,,,,,,,,,,,,,,,,,,,,,,,,,,,,,,,,,,,,,,,,,,,,,
889174,001,2022-11-20_17h53.45.378,Info_measure_main_exp,2022.2.2,Win32,61.56877232,,,,,,,,,,,,,,,,,,masks/mask_002.jpg,,,,,,,,,,,,,,,,,,,,,,,,,,,,,,,,,,,,,,,,,,,0,3,3,1,1,,,,,,,,,,,,,,,,,,,,,,,,,,,,,,,,,,,,,,,,,,,,,,
889174,001,2022-11-20_17h53.45.378,Info_measure_main_exp,2022.2.2,Win32,61.56877232,,,,,,,,,,,,,,,,,,masks/mask_001.jpg,,,,,,,,,,,,,,,,,,,,,,,,,,,,,,,,,,,,,,,,,,,0,4,4,0,1,,,,,,,,,,,,,,,,,,,,,,,,,,,,,,,,,,,,,,,,,,,,,,
889174,001,2022-11-20_17h53.45.378,Info_measure_main_exp,2022.2.2,Win32,61.56877232,,,,,,,,,,,,,,,,,,masks/mask_004.jpg,,,,,,,,,,,,,,,,,,,,,,,,,,,,,,,,,,,,,,,,,,,,,,,,0,0,0,3,1,,,,,,,,,,,,,,,,,,,,,,,,,,,,,,,,,,,,,,,,,
889174,001,2022-11-20_17h53.45.378,Info_measure_main_exp,2022.2.2,Win32,61.56877232,,,,,,,,,,,,,,,,,,masks/mask_002.jpg,,,,,,,,,,,,,,,,,,,,,,,,,,,,,,,,,,,,,,,,,,,,,,,,0,1,1,1,1,,,,,,,,,,,,,,,,,,,,,,,,,,,,,,,,,,,,,,,,,
889174,001,2022-11-20_17h53.45.378,Info_measure_main_exp,2022.2.2,Win32,61.56877232,,,,,,,,,,,,,,,,,,masks/mask_001.jpg,,,,,,,,,,,,,,,,,,,,,,,,,,,,,,,,,,,,,,,,,,,,,,,,0,2,2,0,1,,,,,,,,,,,,,,,,,,,,,,,,,,,,,,,,,,,,,,,,,
889174,001,2022-11-20_17h53.45.378,Info_measure_main_exp,2022.2.2,Win32,61.56877232,,,,,,,,,,,,,,,,,,masks/mask_003.jpg,,,,,,,,,,,,,,,,,,,,,,,,,,,,,,,,,,,,,,,,,,,,,,,,0,3,3,2,1,,,,,,,,,,,,,,,,,,,,,,,,,,,,,,,,,,,,,,,,,
889174,001,2022-11-20_17h53.45.378,Info_measure_main_exp,2022.2.2,Win32,61.56877232,,,,,,,,,,,,,,,,,,masks/mask_005.jpg,,,,,,,,,,,,,,,,,,,,,,,,,,,,,,,,,,,,,,,,,,,,,,,,0,4,4,4,1,,,,,,,,,,,,,,,,,,,,,,,,,,,,,,,,,,,,,,,,,
889174,001,2022-11-20_17h53.45.378,Info_measure_main_exp,2022.2.2,Win32,61.56877232,,,,,,,,,,,,,,,,,,,,,,,,,,,,,,6,1.0639,1,,,,,,,,,,,,0,131,5,5,1986,2274,absent_patch/patch0001986.jpg,absent_patch/patch0002274.jpg,,,,,,,,,,,,,,,,,,,,0.028645833,0.0234375,1,0,0,response1disk,23,-0.006510417,0.001302083,1,0,0,center_square,0,22,22,7,1,,,,,,,,,,,,,,,,,,,,,,,
889174,001,2022-11-20_17h53.45.378,Info_measure_main_exp,2022.2.2,Win32,61.56877232,,,,,,,,,,,,,,,,,,masks/mask_001.jpg,,,,,,,,,,,,,,,,,,,,,,,,,,,,,,,,,,,,,,,,,,,0,0,0,0,1,,,,,,,,,,,,,,,,,,,,,,,,,,,,,,,,,,,,,,,,,,,,,,
889174,001,2022-11-20_17h53.45.378,Info_measure_main_exp,2022.2.2,Win32,61.56877232,,,,,,,,,,,,,,,,,,masks/mask_003.jpg,,,,,,,,,,,,,,,,,,,,,,,,,,,,,,,,,,,,,,,,,,,0,1,1,2,1,,,,,,,,,,,,,,,,,,,,,,,,,,,,,,,,,,,,,,,,,,,,,,
889174,001,2022-11-20_17h53.45.378,Info_measure_main_exp,2022.2.2,Win32,61.56877232,,,,,,,,,,,,,,,,,,masks/mask_005.jpg,,,,,,,,,,,,,,,,,,,,,,,,,,,,,,,,,,,,,,,,,,,0,2,2,4,1,,,,,,,,,,,,,,,,,,,,,,,,,,,,,,,,,,,,,,,,,,,,,,
889174,001,2022-11-20_17h53.45.378,Info_measure_main_exp,2022.2.2,Win32,61.56877232,,,,,,,,,,,,,,,,,,masks/mask_004.jpg,,,,,,,,,,,,,,,,,,,,,,,,,,,,,,,,,,,,,,,,,,,0,3,3,3,1,,,,,,,,,,,,,,,,,,,,,,,,,,,,,,,,,,,,,,,,,,,,,,
889174,001,2022-11-20_17h53.45.378,Info_measure_main_exp,2022.2.2,Win32,61.56877232,,,,,,,,,,,,,,,,,,masks/mask_002.jpg,,,,,,,,,,,,,,,,,,,,,,,,,,,,,,,,,,,,,,,,,,,0,4,4,1,1,,,,,,,,,,,,,,,,,,,,,,,,,,,,,,,,,,,,,,,,,,,,,,
889174,001,2022-11-20_17h53.45.378,Info_measure_main_exp,2022.2.2,Win32,61.56877232,,,,,,,,,,,,,,,,,,masks/mask_004.jpg,,,,,,,,,,,,,,,,,,,,,,,,,,,,,,,,,,,,,,,,,,,,,,,,0,0,0,3,1,,,,,,,,,,,,,,,,,,,,,,,,,,,,,,,,,,,,,,,,,
889174,001,2022-11-20_17h53.45.378,Info_measure_main_exp,2022.2.2,Win32,61.56877232,,,,,,,,,,,,,,,,,,masks/mask_003.jpg,,,,,,,,,,,,,,,,,,,,,,,,,,,,,,,,,,,,,,,,,,,,,,,,0,1,1,2,1,,,,,,,,,,,,,,,,,,,,,,,,,,,,,,,,,,,,,,,,,
889174,001,2022-11-20_17h53.45.378,Info_measure_main_exp,2022.2.2,Win32,61.56877232,,,,,,,,,,,,,,,,,,masks/mask_002.jpg,,,,,,,,,,,,,,,,,,,,,,,,,,,,,,,,,,,,,,,,,,,,,,,,0,2,2,1,1,,,,,,,,,,,,,,,,,,,,,,,,,,,,,,,,,,,,,,,,,
889174,001,2022-11-20_17h53.45.378,Info_measure_main_exp,2022.2.2,Win32,61.56877232,,,,,,,,,,,,,,,,,,masks/mask_005.jpg,,,,,,,,,,,,,,,,,,,,,,,,,,,,,,,,,,,,,,,,,,,,,,,,0,3,3,4,1,,,,,,,,,,,,,,,,,,,,,,,,,,,,,,,,,,,,,,,,,
889174,001,2022-11-20_17h53.45.378,Info_measure_main_exp,2022.2.2,Win32,61.56877232,,,,,,,,,,,,,,,,,,masks/mask_001.jpg,,,,,,,,,,,,,,,,,,,,,,,,,,,,,,,,,,,,,,,,,,,,,,,,0,4,4,0,1,,,,,,,,,,,,,,,,,,,,,,,,,,,,,,,,,,,,,,,,,
889174,001,2022-11-20_17h53.45.378,Info_measure_main_exp,2022.2.2,Win32,61.56877232,,,,,,,,,,,,,,,,,,,,,,,,,,,,,,5,1.0167,1,,,,,,,,,,,,0,131,5,5,2190,2082,absent_patch/patch0002190.jpg,absent_patch/patch0002082.jpg,,,,,,,,,,,,,,,,,,,,0.055989583,-0.016927083,1,0,0,response3disk,24,0.002604167,0.0078125,1,0,0,center_square,0,23,23,112,1,,,,,,,,,,,,,,,,,,,,,,,
889174,001,2022-11-20_17h53.45.378,Info_measure_main_exp,2022.2.2,Win32,61.56877232,,,,,,,,,,,,,,,,,,masks/mask_002.jpg,,,,,,,,,,,,,,,,,,,,,,,,,,,,,,,,,,,,,,,,,,,0,0,0,1,1,,,,,,,,,,,,,,,,,,,,,,,,,,,,,,,,,,,,,,,,,,,,,,
889174,001,2022-11-20_17h53.45.378,Info_measure_main_exp,2022.2.2,Win32,61.56877232,,,,,,,,,,,,,,,,,,masks/mask_001.jpg,,,,,,,,,,,,,,,,,,,,,,,,,,,,,,,,,,,,,,,,,,,0,1,1,0,1,,,,,,,,,,,,,,,,,,,,,,,,,,,,,,,,,,,,,,,,,,,,,,
889174,001,2022-11-20_17h53.45.378,Info_measure_main_exp,2022.2.2,Win32,61.56877232,,,,,,,,,,,,,,,,,,masks/mask_004.jpg,,,,,,,,,,,,,,,,,,,,,,,,,,,,,,,,,,,,,,,,,,,0,2,2,3,1,,,,,,,,,,,,,,,,,,,,,,,,,,,,,,,,,,,,,,,,,,,,,,
889174,001,2022-11-20_17h53.45.378,Info_measure_main_exp,2022.2.2,Win32,61.56877232,,,,,,,,,,,,,,,,,,masks/mask_005.jpg,,,,,,,,,,,,,,,,,,,,,,,,,,,,,,,,,,,,,,,,,,,0,3,3,4,1,,,,,,,,,,,,,,,,,,,,,,,,,,,,,,,,,,,,,,,,,,,,,,
889174,001,2022-11-20_17h53.45.378,Info_measure_main_exp,2022.2.2,Win32,61.56877232,,,,,,,,,,,,,,,,,,masks/mask_003.jpg,,,,,,,,,,,,,,,,,,,,,,,,,,,,,,,,,,,,,,,,,,,0,4,4,2,1,,,,,,,,,,,,,,,,,,,,,,,,,,,,,,,,,,,,,,,,,,,,,,
889174,001,2022-11-20_17h53.45.378,Info_measure_main_exp,2022.2.2,Win32,61.56877232,,,,,,,,,,,,,,,,,,masks/mask_003.jpg,,,,,,,,,,,,,,,,,,,,,,,,,,,,,,,,,,,,,,,,,,,,,,,,0,0,0,2,1,,,,,,,,,,,,,,,,,,,,,,,,,,,,,,,,,,,,,,,,,
889174,001,2022-11-20_17h53.45.378,Info_measure_main_exp,2022.2.2,Win32,61.56877232,,,,,,,,,,,,,,,,,,masks/mask_005.jpg,,,,,,,,,,,,,,,,,,,,,,,,,,,,,,,,,,,,,,,,,,,,,,,,0,1,1,4,1,,,,,,,,,,,,,,,,,,,,,,,,,,,,,,,,,,,,,,,,,
889174,001,2022-11-20_17h53.45.378,Info_measure_main_exp,2022.2.2,Win32,61.56877232,,,,,,,,,,,,,,,,,,masks/mask_002.jpg,,,,,,,,,,,,,,,,,,,,,,,,,,,,,,,,,,,,,,,,,,,,,,,,0,2,2,1,1,,,,,,,,,,,,,,,,,,,,,,,,,,,,,,,,,,,,,,,,,
889174,001,2022-11-20_17h53.45.378,Info_measure_main_exp,2022.2.2,Win32,61.56877232,,,,,,,,,,,,,,,,,,masks/mask_001.jpg,,,,,,,,,,,,,,,,,,,,,,,,,,,,,,,,,,,,,,,,,,,,,,,,0,3,3,0,1,,,,,,,,,,,,,,,,,,,,,,,,,,,,,,,,,,,,,,,,,
889174,001,2022-11-20_17h53.45.378,Info_measure_main_exp,2022.2.2,Win32,61.56877232,,,,,,,,,,,,,,,,,,masks/mask_004.jpg,,,,,,,,,,,,,,,,,,,,,,,,,,,,,,,,,,,,,,,,,,,,,,,,0,4,4,3,1,,,,,,,,,,,,,,,,,,,,,,,,,,,,,,,,,,,,,,,,,
889174,001,2022-11-20_17h53.45.378,Info_measure_main_exp,2022.2.2,Win32,61.56877232,,,,,,,,,,,,,,,,,,,,,,,,,,,,,,5,1.2524,1,,,,,,,,,,,,0,131,5,5,1974,2178,absent_patch/patch0001974.jpg,absent_patch/patch0002178.jpg,,,,,,,,,,,,,,,,,,,,0.03125,-0.0234375,1,0,0,response3disk,25,-0.015625,-0.00390625,1,0,0,center_square,0,24,24,44,1,,,,,,,,,,,,,,,,,,,,,,,
889174,001,2022-11-20_17h53.45.378,Info_measure_main_exp,2022.2.2,Win32,61.56877232,,,,,,,,,,,,,,,,,,masks/mask_003.jpg,,,,,,,,,,,,,,,,,,,,,,,,,,,,,,,,,,,,,,,,,,,0,0,0,2,1,,,,,,,,,,,,,,,,,,,,,,,,,,,,,,,,,,,,,,,,,,,,,,
889174,001,2022-11-20_17h53.45.378,Info_measure_main_exp,2022.2.2,Win32,61.56877232,,,,,,,,,,,,,,,,,,masks/mask_002.jpg,,,,,,,,,,,,,,,,,,,,,,,,,,,,,,,,,,,,,,,,,,,0,1,1,1,1,,,,,,,,,,,,,,,,,,,,,,,,,,,,,,,,,,,,,,,,,,,,,,
889174,001,2022-11-20_17h53.45.378,Info_measure_main_exp,2022.2.2,Win32,61.56877232,,,,,,,,,,,,,,,,,,masks/mask_004.jpg,,,,,,,,,,,,,,,,,,,,,,,,,,,,,,,,,,,,,,,,,,,0,2,2,3,1,,,,,,,,,,,,,,,,,,,,,,,,,,,,,,,,,,,,,,,,,,,,,,
889174,001,2022-11-20_17h53.45.378,Info_measure_main_exp,2022.2.2,Win32,61.56877232,,,,,,,,,,,,,,,,,,masks/mask_001.jpg,,,,,,,,,,,,,,,,,,,,,,,,,,,,,,,,,,,,,,,,,,,0,3,3,0,1,,,,,,,,,,,,,,,,,,,,,,,,,,,,,,,,,,,,,,,,,,,,,,
889174,001,2022-11-20_17h53.45.378,Info_measure_main_exp,2022.2.2,Win32,61.56877232,,,,,,,,,,,,,,,,,,masks/mask_005.jpg,,,,,,,,,,,,,,,,,,,,,,,,,,,,,,,,,,,,,,,,,,,0,4,4,4,1,,,,,,,,,,,,,,,,,,,,,,,,,,,,,,,,,,,,,,,,,,,,,,
889174,001,2022-11-20_17h53.45.378,Info_measure_main_exp,2022.2.2,Win32,61.56877232,,,,,,,,,,,,,,,,,,masks/mask_004.jpg,,,,,,,,,,,,,,,,,,,,,,,,,,,,,,,,,,,,,,,,,,,,,,,,0,0,0,3,1,,,,,,,,,,,,,,,,,,,,,,,,,,,,,,,,,,,,,,,,,
889174,001,2022-11-20_17h53.45.378,Info_measure_main_exp,2022.2.2,Win32,61.56877232,,,,,,,,,,,,,,,,,,masks/mask_003.jpg,,,,,,,,,,,,,,,,,,,,,,,,,,,,,,,,,,,,,,,,,,,,,,,,0,1,1,2,1,,,,,,,,,,,,,,,,,,,,,,,,,,,,,,,,,,,,,,,,,
889174,001,2022-11-20_17h53.45.378,Info_measure_main_exp,2022.2.2,Win32,61.56877232,,,,,,,,,,,,,,,,,,masks/mask_005.jpg,,,,,,,,,,,,,,,,,,,,,,,,,,,,,,,,,,,,,,,,,,,,,,,,0,2,2,4,1,,,,,,,,,,,,,,,,,,,,,,,,,,,,,,,,,,,,,,,,,
889174,001,2022-11-20_17h53.45.378,Info_measure_main_exp,2022.2.2,Win32,61.56877232,,,,,,,,,,,,,,,,,,masks/mask_001.jpg,,,,,,,,,,,,,,,,,,,,,,,,,,,,,,,,,,,,,,,,,,,,,,,,0,3,3,0,1,,,,,,,,,,,,,,,,,,,,,,,,,,,,,,,,,,,,,,,,,
889174,001,2022-11-20_17h53.45.378,Info_measure_main_exp,2022.2.2,Win32,61.56877232,,,,,,,,,,,,,,,,,,masks/mask_002.jpg,,,,,,,,,,,,,,,,,,,,,,,,,,,,,,,,,,,,,,,,,,,,,,,,0,4,4,1,1,,,,,,,,,,,,,,,,,,,,,,,,,,,,,,,,,,,,,,,,,
889174,001,2022-11-20_17h53.45.378,Info_measure_main_exp,2022.2.2,Win32,61.56877232,,,,,,,,,,,,,,,,,,,,,,,,,,,,,,6,0.6832,1,,,,,,,,,,,,0,131,5,5,2190,2238,absent_patch/patch0002190.jpg,absent_patch/patch0002238.jpg,,,,,,,,,,,,,,,,,,,,0.046875,0.029947917,1,0,0,response1disk,26,0,0.006510417,1,0,0,center_square,0,25,25,53,1,,,,,,,,,,,,,,,,,,,,,,,
889174,001,2022-11-20_17h53.45.378,Info_measure_main_exp,2022.2.2,Win32,61.56877232,,,,,,,,,,,,,,,,,,masks/mask_003.jpg,,,,,,,,,,,,,,,,,,,,,,,,,,,,,,,,,,,,,,,,,,,0,0,0,2,1,,,,,,,,,,,,,,,,,,,,,,,,,,,,,,,,,,,,,,,,,,,,,,
889174,001,2022-11-20_17h53.45.378,Info_measure_main_exp,2022.2.2,Win32,61.56877232,,,,,,,,,,,,,,,,,,masks/mask_005.jpg,,,,,,,,,,,,,,,,,,,,,,,,,,,,,,,,,,,,,,,,,,,0,1,1,4,1,,,,,,,,,,,,,,,,,,,,,,,,,,,,,,,,,,,,,,,,,,,,,,
889174,001,2022-11-20_17h53.45.378,Info_measure_main_exp,2022.2.2,Win32,61.56877232,,,,,,,,,,,,,,,,,,masks/mask_004.jpg,,,,,,,,,,,,,,,,,,,,,,,,,,,,,,,,,,,,,,,,,,,0,2,2,3,1,,,,,,,,,,,,,,,,,,,,,,,,,,,,,,,,,,,,,,,,,,,,,,
889174,001,2022-11-20_17h53.45.378,Info_measure_main_exp,2022.2.2,Win32,61.56877232,,,,,,,,,,,,,,,,,,masks/mask_001.jpg,,,,,,,,,,,,,,,,,,,,,,,,,,,,,,,,,,,,,,,,,,,0,3,3,0,1,,,,,,,,,,,,,,,,,,,,,,,,,,,,,,,,,,,,,,,,,,,,,,
889174,001,2022-11-20_17h53.45.378,Info_measure_main_exp,2022.2.2,Win32,61.56877232,,,,,,,,,,,,,,,,,,masks/mask_002.jpg,,,,,,,,,,,,,,,,,,,,,,,,,,,,,,,,,,,,,,,,,,,0,4,4,1,1,,,,,,,,,,,,,,,,,,,,,,,,,,,,,,,,,,,,,,,,,,,,,,
889174,001,2022-11-20_17h53.45.378,Info_measure_main_exp,2022.2.2,Win32,61.56877232,,,,,,,,,,,,,,,,,,masks/mask_004.jpg,,,,,,,,,,,,,,,,,,,,,,,,,,,,,,,,,,,,,,,,,,,,,,,,0,0,0,3,1,,,,,,,,,,,,,,,,,,,,,,,,,,,,,,,,,,,,,,,,,
889174,001,2022-11-20_17h53.45.378,Info_measure_main_exp,2022.2.2,Win32,61.56877232,,,,,,,,,,,,,,,,,,masks/mask_003.jpg,,,,,,,,,,,,,,,,,,,,,,,,,,,,,,,,,,,,,,,,,,,,,,,,0,1,1,2,1,,,,,,,,,,,,,,,,,,,,,,,,,,,,,,,,,,,,,,,,,
889174,001,2022-11-20_17h53.45.378,Info_measure_main_exp,2022.2.2,Win32,61.56877232,,,,,,,,,,,,,,,,,,masks/mask_002.jpg,,,,,,,,,,,,,,,,,,,,,,,,,,,,,,,,,,,,,,,,,,,,,,,,0,2,2,1,1,,,,,,,,,,,,,,,,,,,,,,,,,,,,,,,,,,,,,,,,,
889174,001,2022-11-20_17h53.45.378,Info_measure_main_exp,2022.2.2,Win32,61.56877232,,,,,,,,,,,,,,,,,,masks/mask_005.jpg,,,,,,,,,,,,,,,,,,,,,,,,,,,,,,,,,,,,,,,,,,,,,,,,0,3,3,4,1,,,,,,,,,,,,,,,,,,,,,,,,,,,,,,,,,,,,,,,,,
889174,001,2022-11-20_17h53.45.378,Info_measure_main_exp,2022.2.2,Win32,61.56877232,,,,,,,,,,,,,,,,,,masks/mask_001.jpg,,,,,,,,,,,,,,,,,,,,,,,,,,,,,,,,,,,,,,,,,,,,,,,,0,4,4,0,1,,,,,,,,,,,,,,,,,,,,,,,,,,,,,,,,,,,,,,,,,
889174,001,2022-11-20_17h53.45.378,Info_measure_main_exp,2022.2.2,Win32,61.56877232,,,,,,,,,,,,,,,,,,,,,,,,,,,,,,6,0.8336,1,,,,,,,,,,,,1,131,5,5,1,2166,present_patch/cong_131_5_a.jpg,absent_patch/patch0002166.jpg,,,,,,,,,,,,,,,,,,,,0.03125,0.006510417,1,0,0,response1disk,27,-0.009114583,-0.009114583,1,0,0,center_square,0,26,26,54,1,,,,,,,,,,,,,,,,,,,,,,,
889174,001,2022-11-20_17h53.45.378,Info_measure_main_exp,2022.2.2,Win32,61.56877232,,,,,,,,,,,,,,,,,,masks/mask_004.jpg,,,,,,,,,,,,,,,,,,,,,,,,,,,,,,,,,,,,,,,,,,,0,0,0,3,1,,,,,,,,,,,,,,,,,,,,,,,,,,,,,,,,,,,,,,,,,,,,,,
889174,001,2022-11-20_17h53.45.378,Info_measure_main_exp,2022.2.2,Win32,61.56877232,,,,,,,,,,,,,,,,,,masks/mask_003.jpg,,,,,,,,,,,,,,,,,,,,,,,,,,,,,,,,,,,,,,,,,,,0,1,1,2,1,,,,,,,,,,,,,,,,,,,,,,,,,,,,,,,,,,,,,,,,,,,,,,
889174,001,2022-11-20_17h53.45.378,Info_measure_main_exp,2022.2.2,Win32,61.56877232,,,,,,,,,,,,,,,,,,masks/mask_001.jpg,,,,,,,,,,,,,,,,,,,,,,,,,,,,,,,,,,,,,,,,,,,0,2,2,0,1,,,,,,,,,,,,,,,,,,,,,,,,,,,,,,,,,,,,,,,,,,,,,,
889174,001,2022-11-20_17h53.45.378,Info_measure_main_exp,2022.2.2,Win32,61.56877232,,,,,,,,,,,,,,,,,,masks/mask_005.jpg,,,,,,,,,,,,,,,,,,,,,,,,,,,,,,,,,,,,,,,,,,,0,3,3,4,1,,,,,,,,,,,,,,,,,,,,,,,,,,,,,,,,,,,,,,,,,,,,,,
889174,001,2022-11-20_17h53.45.378,Info_measure_main_exp,2022.2.2,Win32,61.56877232,,,,,,,,,,,,,,,,,,masks/mask_002.jpg,,,,,,,,,,,,,,,,,,,,,,,,,,,,,,,,,,,,,,,,,,,0,4,4,1,1,,,,,,,,,,,,,,,,,,,,,,,,,,,,,,,,,,,,,,,,,,,,,,
889174,001,2022-11-20_17h53.45.378,Info_measure_main_exp,2022.2.2,Win32,61.56877232,,,,,,,,,,,,,,,,,,masks/mask_003.jpg,,,,,,,,,,,,,,,,,,,,,,,,,,,,,,,,,,,,,,,,,,,,,,,,0,0,0,2,1,,,,,,,,,,,,,,,,,,,,,,,,,,,,,,,,,,,,,,,,,
889174,001,2022-11-20_17h53.45.378,Info_measure_main_exp,2022.2.2,Win32,61.56877232,,,,,,,,,,,,,,,,,,masks/mask_004.jpg,,,,,,,,,,,,,,,,,,,,,,,,,,,,,,,,,,,,,,,,,,,,,,,,0,1,1,3,1,,,,,,,,,,,,,,,,,,,,,,,,,,,,,,,,,,,,,,,,,
889174,001,2022-11-20_17h53.45.378,Info_measure_main_exp,2022.2.2,Win32,61.56877232,,,,,,,,,,,,,,,,,,masks/mask_002.jpg,,,,,,,,,,,,,,,,,,,,,,,,,,,,,,,,,,,,,,,,,,,,,,,,0,2,2,1,1,,,,,,,,,,,,,,,,,,,,,,,,,,,,,,,,,,,,,,,,,
889174,001,2022-11-20_17h53.45.378,Info_measure_main_exp,2022.2.2,Win32,61.56877232,,,,,,,,,,,,,,,,,,masks/mask_005.jpg,,,,,,,,,,,,,,,,,,,,,,,,,,,,,,,,,,,,,,,,,,,,,,,,0,3,3,4,1,,,,,,,,,,,,,,,,,,,,,,,,,,,,,,,,,,,,,,,,,
889174,001,2022-11-20_17h53.45.378,Info_measure_main_exp,2022.2.2,Win32,61.56877232,,,,,,,,,,,,,,,,,,masks/mask_001.jpg,,,,,,,,,,,,,,,,,,,,,,,,,,,,,,,,,,,,,,,,,,,,,,,,0,4,4,0,1,,,,,,,,,,,,,,,,,,,,,,,,,,,,,,,,,,,,,,,,,
889174,001,2022-11-20_17h53.45.378,Info_measure_main_exp,2022.2.2,Win32,61.56877232,,,,,,,,,,,,,,,,,,,,,,,,,,,,,,2,1.7184,1,,,,,,,,,,,,0,131,5,5,2190,2166,absent_patch/patch0002190.jpg,absent_patch/patch0002166.jpg,,,,,,,,,,,,,,,,,,,,-0.076822917,-0.0234375,1,0,0,response5disk,28,0.00390625,-0.00390625,1,0,0,center_square,0,27,27,50,1,,,,,,,,,,,,,,,,,,,,,,,
889174,001,2022-11-20_17h53.45.378,Info_measure_main_exp,2022.2.2,Win32,61.56877232,,,,,,,,,,,,,,,,,,masks/mask_003.jpg,,,,,,,,,,,,,,,,,,,,,,,,,,,,,,,,,,,,,,,,,,,0,0,0,2,1,,,,,,,,,,,,,,,,,,,,,,,,,,,,,,,,,,,,,,,,,,,,,,
889174,001,2022-11-20_17h53.45.378,Info_measure_main_exp,2022.2.2,Win32,61.56877232,,,,,,,,,,,,,,,,,,masks/mask_005.jpg,,,,,,,,,,,,,,,,,,,,,,,,,,,,,,,,,,,,,,,,,,,0,1,1,4,1,,,,,,,,,,,,,,,,,,,,,,,,,,,,,,,,,,,,,,,,,,,,,,
889174,001,2022-11-20_17h53.45.378,Info_measure_main_exp,2022.2.2,Win32,61.56877232,,,,,,,,,,,,,,,,,,masks/mask_001.jpg,,,,,,,,,,,,,,,,,,,,,,,,,,,,,,,,,,,,,,,,,,,0,2,2,0,1,,,,,,,,,,,,,,,,,,,,,,,,,,,,,,,,,,,,,,,,,,,,,,
889174,001,2022-11-20_17h53.45.378,Info_measure_main_exp,2022.2.2,Win32,61.56877232,,,,,,,,,,,,,,,,,,masks/mask_002.jpg,,,,,,,,,,,,,,,,,,,,,,,,,,,,,,,,,,,,,,,,,,,0,3,3,1,1,,,,,,,,,,,,,,,,,,,,,,,,,,,,,,,,,,,,,,,,,,,,,,
889174,001,2022-11-20_17h53.45.378,Info_measure_main_exp,2022.2.2,Win32,61.56877232,,,,,,,,,,,,,,,,,,masks/mask_004.jpg,,,,,,,,,,,,,,,,,,,,,,,,,,,,,,,,,,,,,,,,,,,0,4,4,3,1,,,,,,,,,,,,,,,,,,,,,,,,,,,,,,,,,,,,,,,,,,,,,,
889174,001,2022-11-20_17h53.45.378,Info_measure_main_exp,2022.2.2,Win32,61.56877232,,,,,,,,,,,,,,,,,,masks/mask_005.jpg,,,,,,,,,,,,,,,,,,,,,,,,,,,,,,,,,,,,,,,,,,,,,,,,0,0,0,4,1,,,,,,,,,,,,,,,,,,,,,,,,,,,,,,,,,,,,,,,,,
889174,001,2022-11-20_17h53.45.378,Info_measure_main_exp,2022.2.2,Win32,61.56877232,,,,,,,,,,,,,,,,,,masks/mask_002.jpg,,,,,,,,,,,,,,,,,,,,,,,,,,,,,,,,,,,,,,,,,,,,,,,,0,1,1,1,1,,,,,,,,,,,,,,,,,,,,,,,,,,,,,,,,,,,,,,,,,
889174,001,2022-11-20_17h53.45.378,Info_measure_main_exp,2022.2.2,Win32,61.56877232,,,,,,,,,,,,,,,,,,masks/mask_004.jpg,,,,,,,,,,,,,,,,,,,,,,,,,,,,,,,,,,,,,,,,,,,,,,,,0,2,2,3,1,,,,,,,,,,,,,,,,,,,,,,,,,,,,,,,,,,,,,,,,,
889174,001,2022-11-20_17h53.45.378,Info_measure_main_exp,2022.2.2,Win32,61.56877232,,,,,,,,,,,,,,,,,,masks/mask_001.jpg,,,,,,,,,,,,,,,,,,,,,,,,,,,,,,,,,,,,,,,,,,,,,,,,0,3,3,0,1,,,,,,,,,,,,,,,,,,,,,,,,,,,,,,,,,,,,,,,,,
889174,001,2022-11-20_17h53.45.378,Info_measure_main_exp,2022.2.2,Win32,61.56877232,,,,,,,,,,,,,,,,,,masks/mask_003.jpg,,,,,,,,,,,,,,,,,,,,,,,,,,,,,,,,,,,,,,,,,,,,,,,,0,4,4,2,1,,,,,,,,,,,,,,,,,,,,,,,,,,,,,,,,,,,,,,,,,
889174,001,2022-11-20_17h53.45.378,Info_measure_main_exp,2022.2.2,Win32,61.56877232,,,,,,,,,,,,,,,,,,,,,,,,,,,,,,0,0.7831,1,,,,,,,,,,,,0,131,5,5,2274,2274,absent_patch/patch0002274.jpg,absent_patch/patch0002274.jpg,,,,,,,,,,,,,,,,,,,,-0.059895833,0.130208333,1,0,0,response7disk,29,0.00390625,0.006510417,1,0,0,center_square,0,28,28,114,1,,,,,,,,,,,,,,,,,,,,,,,
889174,001,2022-11-20_17h53.45.378,Info_measure_main_exp,2022.2.2,Win32,61.56877232,,,,,,,,,,,,,,,,,,masks/mask_003.jpg,,,,,,,,,,,,,,,,,,,,,,,,,,,,,,,,,,,,,,,,,,,0,0,0,2,1,,,,,,,,,,,,,,,,,,,,,,,,,,,,,,,,,,,,,,,,,,,,,,
889174,001,2022-11-20_17h53.45.378,Info_measure_main_exp,2022.2.2,Win32,61.56877232,,,,,,,,,,,,,,,,,,masks/mask_001.jpg,,,,,,,,,,,,,,,,,,,,,,,,,,,,,,,,,,,,,,,,,,,0,1,1,0,1,,,,,,,,,,,,,,,,,,,,,,,,,,,,,,,,,,,,,,,,,,,,,,
889174,001,2022-11-20_17h53.45.378,Info_measure_main_exp,2022.2.2,Win32,61.56877232,,,,,,,,,,,,,,,,,,masks/mask_002.jpg,,,,,,,,,,,,,,,,,,,,,,,,,,,,,,,,,,,,,,,,,,,0,2,2,1,1,,,,,,,,,,,,,,,,,,,,,,,,,,,,,,,,,,,,,,,,,,,,,,
889174,001,2022-11-20_17h53.45.378,Info_measure_main_exp,2022.2.2,Win32,61.56877232,,,,,,,,,,,,,,,,,,masks/mask_004.jpg,,,,,,,,,,,,,,,,,,,,,,,,,,,,,,,,,,,,,,,,,,,0,3,3,3,1,,,,,,,,,,,,,,,,,,,,,,,,,,,,,,,,,,,,,,,,,,,,,,
889174,001,2022-11-20_17h53.45.378,Info_measure_main_exp,2022.2.2,Win32,61.56877232,,,,,,,,,,,,,,,,,,masks/mask_005.jpg,,,,,,,,,,,,,,,,,,,,,,,,,,,,,,,,,,,,,,,,,,,0,4,4,4,1,,,,,,,,,,,,,,,,,,,,,,,,,,,,,,,,,,,,,,,,,,,,,,
889174,001,2022-11-20_17h53.45.378,Info_measure_main_exp,2022.2.2,Win32,61.56877232,,,,,,,,,,,,,,,,,,masks/mask_004.jpg,,,,,,,,,,,,,,,,,,,,,,,,,,,,,,,,,,,,,,,,,,,,,,,,0,0,0,3,1,,,,,,,,,,,,,,,,,,,,,,,,,,,,,,,,,,,,,,,,,
889174,001,2022-11-20_17h53.45.378,Info_measure_main_exp,2022.2.2,Win32,61.56877232,,,,,,,,,,,,,,,,,,masks/mask_001.jpg,,,,,,,,,,,,,,,,,,,,,,,,,,,,,,,,,,,,,,,,,,,,,,,,0,1,1,0,1,,,,,,,,,,,,,,,,,,,,,,,,,,,,,,,,,,,,,,,,,
889174,001,2022-11-20_17h53.45.378,Info_measure_main_exp,2022.2.2,Win32,61.56877232,,,,,,,,,,,,,,,,,,masks/mask_005.jpg,,,,,,,,,,,,,,,,,,,,,,,,,,,,,,,,,,,,,,,,,,,,,,,,0,2,2,4,1,,,,,,,,,,,,,,,,,,,,,,,,,,,,,,,,,,,,,,,,,
889174,001,2022-11-20_17h53.45.378,Info_measure_main_exp,2022.2.2,Win32,61.56877232,,,,,,,,,,,,,,,,,,masks/mask_003.jpg,,,,,,,,,,,,,,,,,,,,,,,,,,,,,,,,,,,,,,,,,,,,,,,,0,3,3,2,1,,,,,,,,,,,,,,,,,,,,,,,,,,,,,,,,,,,,,,,,,
889174,001,2022-11-20_17h53.45.378,Info_measure_main_exp,2022.2.2,Win32,61.56877232,,,,,,,,,,,,,,,,,,masks/mask_002.jpg,,,,,,,,,,,,,,,,,,,,,,,,,,,,,,,,,,,,,,,,,,,,,,,,0,4,4,1,1,,,,,,,,,,,,,,,,,,,,,,,,,,,,,,,,,,,,,,,,,
889174,001,2022-11-20_17h53.45.378,Info_measure_main_exp,2022.2.2,Win32,61.56877232,,,,,,,,,,,,,,,,,,,,,,,,,,,,,,7,0.8,1,,,,,,,,,,,,0,131,5,5,1974,2250,absent_patch/patch0001974.jpg,absent_patch/patch0002250.jpg,,,,,,,,,,,,,,,,,,,,0.028645833,0.083333333,1,0,0,response1disk,30,0.005208333,0.006510417,1,0,0,center_square,0,29,29,55,1,,,,,,,,,,,,,,,,,,,,,,,
889174,001,2022-11-20_17h53.45.378,Info_measure_main_exp,2022.2.2,Win32,61.56877232,,,,,,,,,,,,,,,,,,masks/mask_004.jpg,,,,,,,,,,,,,,,,,,,,,,,,,,,,,,,,,,,,,,,,,,,0,0,0,3,1,,,,,,,,,,,,,,,,,,,,,,,,,,,,,,,,,,,,,,,,,,,,,,
889174,001,2022-11-20_17h53.45.378,Info_measure_main_exp,2022.2.2,Win32,61.56877232,,,,,,,,,,,,,,,,,,masks/mask_003.jpg,,,,,,,,,,,,,,,,,,,,,,,,,,,,,,,,,,,,,,,,,,,0,1,1,2,1,,,,,,,,,,,,,,,,,,,,,,,,,,,,,,,,,,,,,,,,,,,,,,
889174,001,2022-11-20_17h53.45.378,Info_measure_main_exp,2022.2.2,Win32,61.56877232,,,,,,,,,,,,,,,,,,masks/mask_002.jpg,,,,,,,,,,,,,,,,,,,,,,,,,,,,,,,,,,,,,,,,,,,0,2,2,1,1,,,,,,,,,,,,,,,,,,,,,,,,,,,,,,,,,,,,,,,,,,,,,,
889174,001,2022-11-20_17h53.45.378,Info_measure_main_exp,2022.2.2,Win32,61.56877232,,,,,,,,,,,,,,,,,,masks/mask_005.jpg,,,,,,,,,,,,,,,,,,,,,,,,,,,,,,,,,,,,,,,,,,,0,3,3,4,1,,,,,,,,,,,,,,,,,,,,,,,,,,,,,,,,,,,,,,,,,,,,,,
889174,001,2022-11-20_17h53.45.378,Info_measure_main_exp,2022.2.2,Win32,61.56877232,,,,,,,,,,,,,,,,,,masks/mask_001.jpg,,,,,,,,,,,,,,,,,,,,,,,,,,,,,,,,,,,,,,,,,,,0,4,4,0,1,,,,,,,,,,,,,,,,,,,,,,,,,,,,,,,,,,,,,,,,,,,,,,
889174,001,2022-11-20_17h53.45.378,Info_measure_main_exp,2022.2.2,Win32,61.56877232,,,,,,,,,,,,,,,,,,masks/mask_001.jpg,,,,,,,,,,,,,,,,,,,,,,,,,,,,,,,,,,,,,,,,,,,,,,,,0,0,0,0,1,,,,,,,,,,,,,,,,,,,,,,,,,,,,,,,,,,,,,,,,,
889174,001,2022-11-20_17h53.45.378,Info_measure_main_exp,2022.2.2,Win32,61.56877232,,,,,,,,,,,,,,,,,,masks/mask_003.jpg,,,,,,,,,,,,,,,,,,,,,,,,,,,,,,,,,,,,,,,,,,,,,,,,0,1,1,2,1,,,,,,,,,,,,,,,,,,,,,,,,,,,,,,,,,,,,,,,,,
889174,001,2022-11-20_17h53.45.378,Info_measure_main_exp,2022.2.2,Win32,61.56877232,,,,,,,,,,,,,,,,,,masks/mask_005.jpg,,,,,,,,,,,,,,,,,,,,,,,,,,,,,,,,,,,,,,,,,,,,,,,,0,2,2,4,1,,,,,,,,,,,,,,,,,,,,,,,,,,,,,,,,,,,,,,,,,
889174,001,2022-11-20_17h53.45.378,Info_measure_main_exp,2022.2.2,Win32,61.56877232,,,,,,,,,,,,,,,,,,masks/mask_002.jpg,,,,,,,,,,,,,,,,,,,,,,,,,,,,,,,,,,,,,,,,,,,,,,,,0,3,3,1,1,,,,,,,,,,,,,,,,,,,,,,,,,,,,,,,,,,,,,,,,,
889174,001,2022-11-20_17h53.45.378,Info_measure_main_exp,2022.2.2,Win32,61.56877232,,,,,,,,,,,,,,,,,,masks/mask_004.jpg,,,,,,,,,,,,,,,,,,,,,,,,,,,,,,,,,,,,,,,,,,,,,,,,0,4,4,3,1,,,,,,,,,,,,,,,,,,,,,,,,,,,,,,,,,,,,,,,,,
889174,001,2022-11-20_17h53.45.378,Info_measure_main_exp,2022.2.2,Win32,61.56877232,,,,,,,,,,,,,,,,,,,,,,,,,,,,,,6,1.5014,1,,,,,,,,,,,,0,131,5,5,2166,2154,absent_patch/patch0002166.jpg,absent_patch/patch0002154.jpg,,,,,,,,,,,,,,,,,,,,0.063802083,0.0234375,1,0,0,response1disk,31,0,0.001302083,1,0,0,center_square,0,30,30,79,1,,,,,,,,,,,,,,,,,,,,,,,
889174,001,2022-11-20_17h53.45.378,Info_measure_main_exp,2022.2.2,Win32,61.56877232,,,,,,,,,,,,,,,,,,masks/mask_002.jpg,,,,,,,,,,,,,,,,,,,,,,,,,,,,,,,,,,,,,,,,,,,0,0,0,1,1,,,,,,,,,,,,,,,,,,,,,,,,,,,,,,,,,,,,,,,,,,,,,,
889174,001,2022-11-20_17h53.45.378,Info_measure_main_exp,2022.2.2,Win32,61.56877232,,,,,,,,,,,,,,,,,,masks/mask_005.jpg,,,,,,,,,,,,,,,,,,,,,,,,,,,,,,,,,,,,,,,,,,,0,1,1,4,1,,,,,,,,,,,,,,,,,,,,,,,,,,,,,,,,,,,,,,,,,,,,,,
889174,001,2022-11-20_17h53.45.378,Info_measure_main_exp,2022.2.2,Win32,61.56877232,,,,,,,,,,,,,,,,,,masks/mask_004.jpg,,,,,,,,,,,,,,,,,,,,,,,,,,,,,,,,,,,,,,,,,,,0,2,2,3,1,,,,,,,,,,,,,,,,,,,,,,,,,,,,,,,,,,,,,,,,,,,,,,
889174,001,2022-11-20_17h53.45.378,Info_measure_main_exp,2022.2.2,Win32,61.56877232,,,,,,,,,,,,,,,,,,masks/mask_003.jpg,,,,,,,,,,,,,,,,,,,,,,,,,,,,,,,,,,,,,,,,,,,0,3,3,2,1,,,,,,,,,,,,,,,,,,,,,,,,,,,,,,,,,,,,,,,,,,,,,,
889174,001,2022-11-20_17h53.45.378,Info_measure_main_exp,2022.2.2,Win32,61.56877232,,,,,,,,,,,,,,,,,,masks/mask_001.jpg,,,,,,,,,,,,,,,,,,,,,,,,,,,,,,,,,,,,,,,,,,,0,4,4,0,1,,,,,,,,,,,,,,,,,,,,,,,,,,,,,,,,,,,,,,,,,,,,,,
889174,001,2022-11-20_17h53.45.378,Info_measure_main_exp,2022.2.2,Win32,61.56877232,,,,,,,,,,,,,,,,,,masks/mask_005.jpg,,,,,,,,,,,,,,,,,,,,,,,,,,,,,,,,,,,,,,,,,,,,,,,,0,0,0,4,1,,,,,,,,,,,,,,,,,,,,,,,,,,,,,,,,,,,,,,,,,
889174,001,2022-11-20_17h53.45.378,Info_measure_main_exp,2022.2.2,Win32,61.56877232,,,,,,,,,,,,,,,,,,masks/mask_003.jpg,,,,,,,,,,,,,,,,,,,,,,,,,,,,,,,,,,,,,,,,,,,,,,,,0,1,1,2,1,,,,,,,,,,,,,,,,,,,,,,,,,,,,,,,,,,,,,,,,,
889174,001,2022-11-20_17h53.45.378,Info_measure_main_exp,2022.2.2,Win32,61.56877232,,,,,,,,,,,,,,,,,,masks/mask_004.jpg,,,,,,,,,,,,,,,,,,,,,,,,,,,,,,,,,,,,,,,,,,,,,,,,0,2,2,3,1,,,,,,,,,,,,,,,,,,,,,,,,,,,,,,,,,,,,,,,,,
889174,001,2022-11-20_17h53.45.378,Info_measure_main_exp,2022.2.2,Win32,61.56877232,,,,,,,,,,,,,,,,,,masks/mask_001.jpg,,,,,,,,,,,,,,,,,,,,,,,,,,,,,,,,,,,,,,,,,,,,,,,,0,3,3,0,1,,,,,,,,,,,,,,,,,,,,,,,,,,,,,,,,,,,,,,,,,
889174,001,2022-11-20_17h53.45.378,Info_measure_main_exp,2022.2.2,Win32,61.56877232,,,,,,,,,,,,,,,,,,masks/mask_002.jpg,,,,,,,,,,,,,,,,,,,,,,,,,,,,,,,,,,,,,,,,,,,,,,,,0,4,4,1,1,,,,,,,,,,,,,,,,,,,,,,,,,,,,,,,,,,,,,,,,,
889174,001,2022-11-20_17h53.45.378,Info_measure_main_exp,2022.2.2,Win32,61.56877232,,,,,,,,,,,,,,,,,,,,,,,,,,,,,,7,0.5841,1,,,,,,,,,,,,0,131,5,5,1986,1974,absent_patch/patch0001986.jpg,absent_patch/patch0001974.jpg,,,,,,,,,,,,,,,,,,,,0.01953125,0.06640625,1,0,0,response1disk,32,0.002604167,0.001302083,1,0,0,center_square,0,31,31,25,1,,,,,,,,,,,,,,,,,,,,,,,
889174,001,2022-11-20_17h53.45.378,Info_measure_main_exp,2022.2.2,Win32,61.56877232,,,,,,,,,,,,,,,,,,masks/mask_005.jpg,,,,,,,,,,,,,,,,,,,,,,,,,,,,,,,,,,,,,,,,,,,0,0,0,4,1,,,,,,,,,,,,,,,,,,,,,,,,,,,,,,,,,,,,,,,,,,,,,,
889174,001,2022-11-20_17h53.45.378,Info_measure_main_exp,2022.2.2,Win32,61.56877232,,,,,,,,,,,,,,,,,,masks/mask_002.jpg,,,,,,,,,,,,,,,,,,,,,,,,,,,,,,,,,,,,,,,,,,,0,1,1,1,1,,,,,,,,,,,,,,,,,,,,,,,,,,,,,,,,,,,,,,,,,,,,,,
889174,001,2022-11-20_17h53.45.378,Info_measure_main_exp,2022.2.2,Win32,61.56877232,,,,,,,,,,,,,,,,,,masks/mask_001.jpg,,,,,,,,,,,,,,,,,,,,,,,,,,,,,,,,,,,,,,,,,,,0,2,2,0,1,,,,,,,,,,,,,,,,,,,,,,,,,,,,,,,,,,,,,,,,,,,,,,
889174,001,2022-11-20_17h53.45.378,Info_measure_main_exp,2022.2.2,Win32,61.56877232,,,,,,,,,,,,,,,,,,masks/mask_003.jpg,,,,,,,,,,,,,,,,,,,,,,,,,,,,,,,,,,,,,,,,,,,0,3,3,2,1,,,,,,,,,,,,,,,,,,,,,,,,,,,,,,,,,,,,,,,,,,,,,,
889174,001,2022-11-20_17h53.45.378,Info_measure_main_exp,2022.2.2,Win32,61.56877232,,,,,,,,,,,,,,,,,,masks/mask_004.jpg,,,,,,,,,,,,,,,,,,,,,,,,,,,,,,,,,,,,,,,,,,,0,4,4,3,1,,,,,,,,,,,,,,,,,,,,,,,,,,,,,,,,,,,,,,,,,,,,,,
889174,001,2022-11-20_17h53.45.378,Info_measure_main_exp,2022.2.2,Win32,61.56877232,,,,,,,,,,,,,,,,,,masks/mask_002.jpg,,,,,,,,,,,,,,,,,,,,,,,,,,,,,,,,,,,,,,,,,,,,,,,,0,0,0,1,1,,,,,,,,,,,,,,,,,,,,,,,,,,,,,,,,,,,,,,,,,
889174,001,2022-11-20_17h53.45.378,Info_measure_main_exp,2022.2.2,Win32,61.56877232,,,,,,,,,,,,,,,,,,masks/mask_003.jpg,,,,,,,,,,,,,,,,,,,,,,,,,,,,,,,,,,,,,,,,,,,,,,,,0,1,1,2,1,,,,,,,,,,,,,,,,,,,,,,,,,,,,,,,,,,,,,,,,,
889174,001,2022-11-20_17h53.45.378,Info_measure_main_exp,2022.2.2,Win32,61.56877232,,,,,,,,,,,,,,,,,,masks/mask_004.jpg,,,,,,,,,,,,,,,,,,,,,,,,,,,,,,,,,,,,,,,,,,,,,,,,0,2,2,3,1,,,,,,,,,,,,,,,,,,,,,,,,,,,,,,,,,,,,,,,,,
889174,001,2022-11-20_17h53.45.378,Info_measure_main_exp,2022.2.2,Win32,61.56877232,,,,,,,,,,,,,,,,,,masks/mask_001.jpg,,,,,,,,,,,,,,,,,,,,,,,,,,,,,,,,,,,,,,,,,,,,,,,,0,3,3,0,1,,,,,,,,,,,,,,,,,,,,,,,,,,,,,,,,,,,,,,,,,
889174,001,2022-11-20_17h53.45.378,Info_measure_main_exp,2022.2.2,Win32,61.56877232,,,,,,,,,,,,,,,,,,masks/mask_005.jpg,,,,,,,,,,,,,,,,,,,,,,,,,,,,,,,,,,,,,,,,,,,,,,,,0,4,4,4,1,,,,,,,,,,,,,,,,,,,,,,,,,,,,,,,,,,,,,,,,,
889174,001,2022-11-20_17h53.45.378,Info_measure_main_exp,2022.2.2,Win32,61.56877232,,,,,,,,,,,,,,,,,,,,,,,,,,,,,,7,2.554,1,,,,,,,,,,,,1,131,5,5,1,2274,present_patch/cong_131_5_a.jpg,absent_patch/patch0002274.jpg,,,,,,,,,,,,,,,,,,,,0.015625,0.026041667,1,0,0,response1disk,33,0.002604167,-0.002604167,1,0,0,center_square,0,32,32,105,1,,,,,,,,,,,,,,,,,,,,,,,
889174,001,2022-11-20_17h53.45.378,Info_measure_main_exp,2022.2.2,Win32,61.56877232,,,,,,,,,,,,,,,,,,masks/mask_004.jpg,,,,,,,,,,,,,,,,,,,,,,,,,,,,,,,,,,,,,,,,,,,0,0,0,3,1,,,,,,,,,,,,,,,,,,,,,,,,,,,,,,,,,,,,,,,,,,,,,,
889174,001,2022-11-20_17h53.45.378,Info_measure_main_exp,2022.2.2,Win32,61.56877232,,,,,,,,,,,,,,,,,,masks/mask_001.jpg,,,,,,,,,,,,,,,,,,,,,,,,,,,,,,,,,,,,,,,,,,,0,1,1,0,1,,,,,,,,,,,,,,,,,,,,,,,,,,,,,,,,,,,,,,,,,,,,,,
889174,001,2022-11-20_17h53.45.378,Info_measure_main_exp,2022.2.2,Win32,61.56877232,,,,,,,,,,,,,,,,,,masks/mask_003.jpg,,,,,,,,,,,,,,,,,,,,,,,,,,,,,,,,,,,,,,,,,,,0,2,2,2,1,,,,,,,,,,,,,,,,,,,,,,,,,,,,,,,,,,,,,,,,,,,,,,
889174,001,2022-11-20_17h53.45.378,Info_measure_main_exp,2022.2.2,Win32,61.56877232,,,,,,,,,,,,,,,,,,masks/mask_005.jpg,,,,,,,,,,,,,,,,,,,,,,,,,,,,,,,,,,,,,,,,,,,0,3,3,4,1,,,,,,,,,,,,,,,,,,,,,,,,,,,,,,,,,,,,,,,,,,,,,,
889174,001,2022-11-20_17h53.45.378,Info_measure_main_exp,2022.2.2,Win32,61.56877232,,,,,,,,,,,,,,,,,,masks/mask_002.jpg,,,,,,,,,,,,,,,,,,,,,,,,,,,,,,,,,,,,,,,,,,,0,4,4,1,1,,,,,,,,,,,,,,,,,,,,,,,,,,,,,,,,,,,,,,,,,,,,,,
889174,001,2022-11-20_17h53.45.378,Info_measure_main_exp,2022.2.2,Win32,61.56877232,,,,,,,,,,,,,,,,,,masks/mask_003.jpg,,,,,,,,,,,,,,,,,,,,,,,,,,,,,,,,,,,,,,,,,,,,,,,,0,0,0,2,1,,,,,,,,,,,,,,,,,,,,,,,,,,,,,,,,,,,,,,,,,
889174,001,2022-11-20_17h53.45.378,Info_measure_main_exp,2022.2.2,Win32,61.56877232,,,,,,,,,,,,,,,,,,masks/mask_002.jpg,,,,,,,,,,,,,,,,,,,,,,,,,,,,,,,,,,,,,,,,,,,,,,,,0,1,1,1,1,,,,,,,,,,,,,,,,,,,,,,,,,,,,,,,,,,,,,,,,,
889174,001,2022-11-20_17h53.45.378,Info_measure_main_exp,2022.2.2,Win32,61.56877232,,,,,,,,,,,,,,,,,,masks/mask_005.jpg,,,,,,,,,,,,,,,,,,,,,,,,,,,,,,,,,,,,,,,,,,,,,,,,0,2,2,4,1,,,,,,,,,,,,,,,,,,,,,,,,,,,,,,,,,,,,,,,,,
889174,001,2022-11-20_17h53.45.378,Info_measure_main_exp,2022.2.2,Win32,61.56877232,,,,,,,,,,,,,,,,,,masks/mask_001.jpg,,,,,,,,,,,,,,,,,,,,,,,,,,,,,,,,,,,,,,,,,,,,,,,,0,3,3,0,1,,,,,,,,,,,,,,,,,,,,,,,,,,,,,,,,,,,,,,,,,
889174,001,2022-11-20_17h53.45.378,Info_measure_main_exp,2022.2.2,Win32,61.56877232,,,,,,,,,,,,,,,,,,masks/mask_004.jpg,,,,,,,,,,,,,,,,,,,,,,,,,,,,,,,,,,,,,,,,,,,,,,,,0,4,4,3,1,,,,,,,,,,,,,,,,,,,,,,,,,,,,,,,,,,,,,,,,,
889174,001,2022-11-20_17h53.45.378,Info_measure_main_exp,2022.2.2,Win32,61.56877232,,,,,,,,,,,,,,,,,,,,,,,,,,,,,,6,0.557,1,,,,,,,,,,,,0,131,5,5,2178,2154,absent_patch/patch0002178.jpg,absent_patch/patch0002154.jpg,,,,,,,,,,,,,,,,,,,,0.04296875,0.010416667,1,0,0,response1disk,34,0.002604167,-0.0078125,1,0,0,center_square,0,33,33,63,1,,,,,,,,,,,,,,,,,,,,,,,
889174,001,2022-11-20_17h53.45.378,Info_measure_main_exp,2022.2.2,Win32,61.56877232,,,,,,,,,,,,,,,,,,masks/mask_001.jpg,,,,,,,,,,,,,,,,,,,,,,,,,,,,,,,,,,,,,,,,,,,0,0,0,0,1,,,,,,,,,,,,,,,,,,,,,,,,,,,,,,,,,,,,,,,,,,,,,,
889174,001,2022-11-20_17h53.45.378,Info_measure_main_exp,2022.2.2,Win32,61.56877232,,,,,,,,,,,,,,,,,,masks/mask_002.jpg,,,,,,,,,,,,,,,,,,,,,,,,,,,,,,,,,,,,,,,,,,,0,1,1,1,1,,,,,,,,,,,,,,,,,,,,,,,,,,,,,,,,,,,,,,,,,,,,,,
889174,001,2022-11-20_17h53.45.378,Info_measure_main_exp,2022.2.2,Win32,61.56877232,,,,,,,,,,,,,,,,,,masks/mask_005.jpg,,,,,,,,,,,,,,,,,,,,,,,,,,,,,,,,,,,,,,,,,,,0,2,2,4,1,,,,,,,,,,,,,,,,,,,,,,,,,,,,,,,,,,,,,,,,,,,,,,
889174,001,2022-11-20_17h53.45.378,Info_measure_main_exp,2022.2.2,Win32,61.56877232,,,,,,,,,,,,,,,,,,masks/mask_003.jpg,,,,,,,,,,,,,,,,,,,,,,,,,,,,,,,,,,,,,,,,,,,0,3,3,2,1,,,,,,,,,,,,,,,,,,,,,,,,,,,,,,,,,,,,,,,,,,,,,,
889174,001,2022-11-20_17h53.45.378,Info_measure_main_exp,2022.2.2,Win32,61.56877232,,,,,,,,,,,,,,,,,,masks/mask_004.jpg,,,,,,,,,,,,,,,,,,,,,,,,,,,,,,,,,,,,,,,,,,,0,4,4,3,1,,,,,,,,,,,,,,,,,,,,,,,,,,,,,,,,,,,,,,,,,,,,,,
889174,001,2022-11-20_17h53.45.378,Info_measure_main_exp,2022.2.2,Win32,61.56877232,,,,,,,,,,,,,,,,,,masks/mask_001.jpg,,,,,,,,,,,,,,,,,,,,,,,,,,,,,,,,,,,,,,,,,,,,,,,,0,0,0,0,1,,,,,,,,,,,,,,,,,,,,,,,,,,,,,,,,,,,,,,,,,
889174,001,2022-11-20_17h53.45.378,Info_measure_main_exp,2022.2.2,Win32,61.56877232,,,,,,,,,,,,,,,,,,masks/mask_005.jpg,,,,,,,,,,,,,,,,,,,,,,,,,,,,,,,,,,,,,,,,,,,,,,,,0,1,1,4,1,,,,,,,,,,,,,,,,,,,,,,,,,,,,,,,,,,,,,,,,,
889174,001,2022-11-20_17h53.45.378,Info_measure_main_exp,2022.2.2,Win32,61.56877232,,,,,,,,,,,,,,,,,,masks/mask_004.jpg,,,,,,,,,,,,,,,,,,,,,,,,,,,,,,,,,,,,,,,,,,,,,,,,0,2,2,3,1,,,,,,,,,,,,,,,,,,,,,,,,,,,,,,,,,,,,,,,,,
889174,001,2022-11-20_17h53.45.378,Info_measure_main_exp,2022.2.2,Win32,61.56877232,,,,,,,,,,,,,,,,,,masks/mask_002.jpg,,,,,,,,,,,,,,,,,,,,,,,,,,,,,,,,,,,,,,,,,,,,,,,,0,3,3,1,1,,,,,,,,,,,,,,,,,,,,,,,,,,,,,,,,,,,,,,,,,
