participant,session,date,expName,psychopyVersion,OS,frameRate,space_press_continue.keys,space_press_continue.rt,space_press_continue_2.keys,space_press_continue_2.rt,space_press_continue_3.keys,space_press_continue_3.rt,space_press_continue_4.keys,space_press_continue_4.rt,space_press_continue_5.keys,space_press_continue_5.rt,space_press_continue_6.keys,space_press_continue_6.rt,prac_mask_loop_1.thisRepN,prac_mask_loop_1.thisTrialN,prac_mask_loop_1.thisN,prac_mask_loop_1.thisIndex,prac_mask_loop_1.ran,mask_name,prac_mask_loop_2.thisRepN,prac_mask_loop_2.thisTrialN,prac_mask_loop_2.thisN,prac_mask_loop_2.thisIndex,prac_mask_loop_2.ran,mouse_2.x,mouse_2.y,mouse_2.leftButton,mouse_2.midButton,mouse_2.rightButton,mouse_2.clicked_name,similarity,response_time,Pass,mouse_12.x,mouse_12.y,mouse_12.leftButton,mouse_12.midButton,mouse_12.rightButton,mouse_12.clicked_name,prac_loop.thisRepN,prac_loop.thisTrialN,prac_loop.thisN,prac_loop.thisIndex,prac_loop.ran,Pair_type,Image_num,Patch_1_loc,Patch_2_loc,Patch_1_info,Patch_2_info,Patch_1_name,Patch_2_name,mouse_1.x,mouse_1.y,mouse_1.leftButton,mouse_1.midButton,mouse_1.rightButton,mouse_1.time,mouse_1.clicked_name,space_press_continue_7.keys,space_press_continue_7.rt,mask_loop.thisRepN,mask_loop.thisTrialN,mask_loop.thisN,mask_loop.thisIndex,mask_loop.ran,mask_loop_2.thisRepN,mask_loop_2.thisTrialN,mask_loop_2.thisN,mask_loop_2.thisIndex,mask_loop_2.ran,mouse.x,mouse.y,mouse.leftButton,mouse.midButton,mouse.rightButton,mouse.clicked_name,trialNumber,mouse_11.x,mouse_11.y,mouse_11.leftButton,mouse_11.midButton,mouse_11.rightButton,mouse_11.clicked_name,first_pass_loop.thisRepN,first_pass_loop.thisTrialN,first_pass_loop.thisN,first_pass_loop.thisIndex,first_pass_loop.ran,mask_loop_3.thisRepN,mask_loop_3.thisTrialN,mask_loop_3.thisN,mask_loop_3.thisIndex,mask_loop_3.ran,mask_loop_4.thisRepN,mask_loop_4.thisTrialN,mask_loop_4.thisN,mask_loop_4.thisIndex,mask_loop_4.ran,mouse_3.x,mouse_3.y,mouse_3.leftButton,mouse_3.midButton,mouse_3.rightButton,mouse_3.clicked_name,double_pass_loop.thisRepN,double_pass_loop.thisTrialN,double_pass_loop.thisN,double_pass_loop.thisIndex,double_pass_loop.ran,space_exit.keys,space_exit.rt
890563,001,2022-11-20_22h53.15.996,Info_measure_main_exp,2022.2.2,Win32,60.06727535,,,,,,,,,,,,,,,,,,,,,,,,,,,,,,,,,,,,,,,,,,,,,,,,,,,,,,,,,,,,,,,,,,,,,,,,,,,,,,,,,,,,,,,,,,,,,,,,,,,,,,,,,,,,,,,
890563,001,2022-11-20_22h53.15.996,Info_measure_main_exp,2022.2.2,Win32,60.06727535,,,,,,,,,,,,,,,,,,,,,,,,,,,,,,,,,,,,,,,,,,,,,,,,,,,,,,,,,,,,,,,,,,,,,,,,,,,,,,,,,,,,,,,,,,,,,,,,,,,,,,,,,,,,,,,
890563,001,2022-11-20_22h53.15.996,Info_measure_main_exp,2022.2.2,Win32,60.06727535,space,5.9316,,,,,,,,,,,,,,,,,,,,,,,,,,,,,,,,,,,,,,,,,,,,,,,,,,,,,,,,,,,,,,,,,,,,,,,,,,,,,,,,,,,,,,,,,,,,,,,,,,,,,,,,,,,,,
890563,001,2022-11-20_22h53.15.996,Info_measure_main_exp,2022.2.2,Win32,60.06727535,,,space,15.1989,,,,,,,,,,,,,,,,,,,,,,,,,,,,,,,,,,,,,,,,,,,,,,,,,,,,,,,,,,,,,,,,,,,,,,,,,,,,,,,,,,,,,,,,,,,,,,,,,,,,,,,,,,,
890563,001,2022-11-20_22h53.15.996,Info_measure_main_exp,2022.2.2,Win32,60.06727535,,,,,space,9.7073,,,,,,,,,,,,,,,,,,,,,,,,,,,,,,,,,,,,,,,,,,,,,,,,,,,,,,,,,,,,,,,,,,,,,,,,,,,,,,,,,,,,,,,,,,,,,,,,,,,,,,,,,
890563,001,2022-11-20_22h53.15.996,Info_measure_main_exp,2022.2.2,Win32,60.06727535,,,,,,,space,20.8379,,,,,,,,,,,,,,,,,,,,,,,,,,,,,,,,,,,,,,,,,,,,,,,,,,,,,,,,,,,,,,,,,,,,,,,,,,,,,,,,,,,,,,,,,,,,,,,,,,,,,,,
890563,001,2022-11-20_22h53.15.996,Info_measure_main_exp,2022.2.2,Win32,60.06727535,,,,,,,,,space,6.8791,,,,,,,,,,,,,,,,,,,,,,,,,,,,,,,,,,,,,,,,,,,,,,,,,,,,,,,,,,,,,,,,,,,,,,,,,,,,,,,,,,,,,,,,,,,,,,,,,,,,,
890563,001,2022-11-20_22h53.15.996,Info_measure_main_exp,2022.2.2,Win32,60.06727535,,,,,,,,,,,space,2.7934,,,,,,,,,,,,,,,,,,,,,,,,,,,,,,,,,,,,,,,,,,,,,,,,,,,,,,,,,,,,,,,,,,,,,,,,,,,,,,,,,,,,,,,,,,,,,,,,,,,
890563,001,2022-11-20_22h53.15.996,Info_measure_main_exp,2022.2.2,Win32,60.06727535,,,,,,,,,,,,,0,0,0,0,1,masks/mask_001.jpg,,,,,,,,,,,,,,,,,,,,,,,,,,,,,,,,,,,,,,,,,,,,,,,,,,,,,,,,,,,,,,,,,,,,,,,,,,,,,,,,,,,,,,,,,,,,,
890563,001,2022-11-20_22h53.15.996,Info_measure_main_exp,2022.2.2,Win32,60.06727535,,,,,,,,,,,,,0,1,1,4,1,masks/mask_005.jpg,,,,,,,,,,,,,,,,,,,,,,,,,,,,,,,,,,,,,,,,,,,,,,,,,,,,,,,,,,,,,,,,,,,,,,,,,,,,,,,,,,,,,,,,,,,,,
890563,001,2022-11-20_22h53.15.996,Info_measure_main_exp,2022.2.2,Win32,60.06727535,,,,,,,,,,,,,0,2,2,3,1,masks/mask_004.jpg,,,,,,,,,,,,,,,,,,,,,,,,,,,,,,,,,,,,,,,,,,,,,,,,,,,,,,,,,,,,,,,,,,,,,,,,,,,,,,,,,,,,,,,,,,,,,
890563,001,2022-11-20_22h53.15.996,Info_measure_main_exp,2022.2.2,Win32,60.06727535,,,,,,,,,,,,,0,3,3,2,1,masks/mask_003.jpg,,,,,,,,,,,,,,,,,,,,,,,,,,,,,,,,,,,,,,,,,,,,,,,,,,,,,,,,,,,,,,,,,,,,,,,,,,,,,,,,,,,,,,,,,,,,,
890563,001,2022-11-20_22h53.15.996,Info_measure_main_exp,2022.2.2,Win32,60.06727535,,,,,,,,,,,,,0,4,4,1,1,masks/mask_002.jpg,,,,,,,,,,,,,,,,,,,,,,,,,,,,,,,,,,,,,,,,,,,,,,,,,,,,,,,,,,,,,,,,,,,,,,,,,,,,,,,,,,,,,,,,,,,,,
890563,001,2022-11-20_22h53.15.996,Info_measure_main_exp,2022.2.2,Win32,60.06727535,,,,,,,,,,,,,,,,,,masks/mask_004.jpg,0,0,0,3,1,,,,,,,,,,,,,,,,,,,,,,,,,,,,,,,,,,,,,,,,,,,,,,,,,,,,,,,,,,,,,,,,,,,,,,,,,,,,,,,,,,,,,,,,
890563,001,2022-11-20_22h53.15.996,Info_measure_main_exp,2022.2.2,Win32,60.06727535,,,,,,,,,,,,,,,,,,masks/mask_005.jpg,0,1,1,4,1,,,,,,,,,,,,,,,,,,,,,,,,,,,,,,,,,,,,,,,,,,,,,,,,,,,,,,,,,,,,,,,,,,,,,,,,,,,,,,,,,,,,,,,,
890563,001,2022-11-20_22h53.15.996,Info_measure_main_exp,2022.2.2,Win32,60.06727535,,,,,,,,,,,,,,,,,,masks/mask_003.jpg,0,2,2,2,1,,,,,,,,,,,,,,,,,,,,,,,,,,,,,,,,,,,,,,,,,,,,,,,,,,,,,,,,,,,,,,,,,,,,,,,,,,,,,,,,,,,,,,,,
890563,001,2022-11-20_22h53.15.996,Info_measure_main_exp,2022.2.2,Win32,60.06727535,,,,,,,,,,,,,,,,,,masks/mask_001.jpg,0,3,3,0,1,,,,,,,,,,,,,,,,,,,,,,,,,,,,,,,,,,,,,,,,,,,,,,,,,,,,,,,,,,,,,,,,,,,,,,,,,,,,,,,,,,,,,,,,
890563,001,2022-11-20_22h53.15.996,Info_measure_main_exp,2022.2.2,Win32,60.06727535,,,,,,,,,,,,,,,,,,masks/mask_002.jpg,0,4,4,1,1,,,,,,,,,,,,,,,,,,,,,,,,,,,,,,,,,,,,,,,,,,,,,,,,,,,,,,,,,,,,,,,,,,,,,,,,,,,,,,,,,,,,,,,,
890563,001,2022-11-20_22h53.15.996,Info_measure_main_exp,2022.2.2,Win32,60.06727535,,,,,,,,,,,,,,,,,,,,,,,,-0.125925926,-0.060185185,1,0,0,response5disk,2,64.9135,1,0,0.005555556,1,0,0,center_square,0,0,0,0,1,0,131,5,5,2370,2406,prac_patch/patch0002370.jpg,prac_patch/patch0002406.jpg,,,,,,,,,,,,,,,,,,,,,,,,,,,,,,,,,,,,,,,,,,,,,,,,,,,,,,,,,,,,
890563,001,2022-11-20_22h53.15.996,Info_measure_main_exp,2022.2.2,Win32,60.06727535,,,,,,,,,,,,,0,0,0,1,1,masks/mask_002.jpg,,,,,,,,,,,,,,,,,,,,,,,,,,,,,,,,,,,,,,,,,,,,,,,,,,,,,,,,,,,,,,,,,,,,,,,,,,,,,,,,,,,,,,,,,,,,,
890563,001,2022-11-20_22h53.15.996,Info_measure_main_exp,2022.2.2,Win32,60.06727535,,,,,,,,,,,,,0,1,1,0,1,masks/mask_001.jpg,,,,,,,,,,,,,,,,,,,,,,,,,,,,,,,,,,,,,,,,,,,,,,,,,,,,,,,,,,,,,,,,,,,,,,,,,,,,,,,,,,,,,,,,,,,,,
890563,001,2022-11-20_22h53.15.996,Info_measure_main_exp,2022.2.2,Win32,60.06727535,,,,,,,,,,,,,0,2,2,3,1,masks/mask_004.jpg,,,,,,,,,,,,,,,,,,,,,,,,,,,,,,,,,,,,,,,,,,,,,,,,,,,,,,,,,,,,,,,,,,,,,,,,,,,,,,,,,,,,,,,,,,,,,
890563,001,2022-11-20_22h53.15.996,Info_measure_main_exp,2022.2.2,Win32,60.06727535,,,,,,,,,,,,,0,3,3,4,1,masks/mask_005.jpg,,,,,,,,,,,,,,,,,,,,,,,,,,,,,,,,,,,,,,,,,,,,,,,,,,,,,,,,,,,,,,,,,,,,,,,,,,,,,,,,,,,,,,,,,,,,,
890563,001,2022-11-20_22h53.15.996,Info_measure_main_exp,2022.2.2,Win32,60.06727535,,,,,,,,,,,,,0,4,4,2,1,masks/mask_003.jpg,,,,,,,,,,,,,,,,,,,,,,,,,,,,,,,,,,,,,,,,,,,,,,,,,,,,,,,,,,,,,,,,,,,,,,,,,,,,,,,,,,,,,,,,,,,,,
890563,001,2022-11-20_22h53.15.996,Info_measure_main_exp,2022.2.2,Win32,60.06727535,,,,,,,,,,,,,,,,,,masks/mask_001.jpg,0,0,0,0,1,,,,,,,,,,,,,,,,,,,,,,,,,,,,,,,,,,,,,,,,,,,,,,,,,,,,,,,,,,,,,,,,,,,,,,,,,,,,,,,,,,,,,,,,
890563,001,2022-11-20_22h53.15.996,Info_measure_main_exp,2022.2.2,Win32,60.06727535,,,,,,,,,,,,,,,,,,masks/mask_005.jpg,0,1,1,4,1,,,,,,,,,,,,,,,,,,,,,,,,,,,,,,,,,,,,,,,,,,,,,,,,,,,,,,,,,,,,,,,,,,,,,,,,,,,,,,,,,,,,,,,,
890563,001,2022-11-20_22h53.15.996,Info_measure_main_exp,2022.2.2,Win32,60.06727535,,,,,,,,,,,,,,,,,,masks/mask_003.jpg,0,2,2,2,1,,,,,,,,,,,,,,,,,,,,,,,,,,,,,,,,,,,,,,,,,,,,,,,,,,,,,,,,,,,,,,,,,,,,,,,,,,,,,,,,,,,,,,,,
890563,001,2022-11-20_22h53.15.996,Info_measure_main_exp,2022.2.2,Win32,60.06727535,,,,,,,,,,,,,,,,,,masks/mask_002.jpg,0,3,3,1,1,,,,,,,,,,,,,,,,,,,,,,,,,,,,,,,,,,,,,,,,,,,,,,,,,,,,,,,,,,,,,,,,,,,,,,,,,,,,,,,,,,,,,,,,
890563,001,2022-11-20_22h53.15.996,Info_measure_main_exp,2022.2.2,Win32,60.06727535,,,,,,,,,,,,,,,,,,masks/mask_004.jpg,0,4,4,3,1,,,,,,,,,,,,,,,,,,,,,,,,,,,,,,,,,,,,,,,,,,,,,,,,,,,,,,,,,,,,,,,,,,,,,,,,,,,,,,,,,,,,,,,,
890563,001,2022-11-20_22h53.15.996,Info_measure_main_exp,2022.2.2,Win32,60.06727535,,,,,,,,,,,,,,,,,,,,,,,,-0.094444444,-0.115740741,1,0,0,response5disk,3,75.7136,1,-0.00462963,-0.00462963,1,0,0,center_square,0,1,1,2,1,0,131,5,5,2526,2526,prac_patch/patch0002526.jpg,prac_patch/patch0002526.jpg,,,,,,,,,,,,,,,,,,,,,,,,,,,,,,,,,,,,,,,,,,,,,,,,,,,,,,,,,,,,
890563,001,2022-11-20_22h53.15.996,Info_measure_main_exp,2022.2.2,Win32,60.06727535,,,,,,,,,,,,,0,0,0,0,1,masks/mask_001.jpg,,,,,,,,,,,,,,,,,,,,,,,,,,,,,,,,,,,,,,,,,,,,,,,,,,,,,,,,,,,,,,,,,,,,,,,,,,,,,,,,,,,,,,,,,,,,,
890563,001,2022-11-20_22h53.15.996,Info_measure_main_exp,2022.2.2,Win32,60.06727535,,,,,,,,,,,,,0,1,1,2,1,masks/mask_003.jpg,,,,,,,,,,,,,,,,,,,,,,,,,,,,,,,,,,,,,,,,,,,,,,,,,,,,,,,,,,,,,,,,,,,,,,,,,,,,,,,,,,,,,,,,,,,,,
890563,001,2022-11-20_22h53.15.996,Info_measure_main_exp,2022.2.2,Win32,60.06727535,,,,,,,,,,,,,0,2,2,1,1,masks/mask_002.jpg,,,,,,,,,,,,,,,,,,,,,,,,,,,,,,,,,,,,,,,,,,,,,,,,,,,,,,,,,,,,,,,,,,,,,,,,,,,,,,,,,,,,,,,,,,,,,
890563,001,2022-11-20_22h53.15.996,Info_measure_main_exp,2022.2.2,Win32,60.06727535,,,,,,,,,,,,,0,3,3,4,1,masks/mask_005.jpg,,,,,,,,,,,,,,,,,,,,,,,,,,,,,,,,,,,,,,,,,,,,,,,,,,,,,,,,,,,,,,,,,,,,,,,,,,,,,,,,,,,,,,,,,,,,,
890563,001,2022-11-20_22h53.15.996,Info_measure_main_exp,2022.2.2,Win32,60.06727535,,,,,,,,,,,,,0,4,4,3,1,masks/mask_004.jpg,,,,,,,,,,,,,,,,,,,,,,,,,,,,,,,,,,,,,,,,,,,,,,,,,,,,,,,,,,,,,,,,,,,,,,,,,,,,,,,,,,,,,,,,,,,,,
890563,001,2022-11-20_22h53.15.996,Info_measure_main_exp,2022.2.2,Win32,60.06727535,,,,,,,,,,,,,,,,,,masks/mask_005.jpg,0,0,0,4,1,,,,,,,,,,,,,,,,,,,,,,,,,,,,,,,,,,,,,,,,,,,,,,,,,,,,,,,,,,,,,,,,,,,,,,,,,,,,,,,,,,,,,,,,
890563,001,2022-11-20_22h53.15.996,Info_measure_main_exp,2022.2.2,Win32,60.06727535,,,,,,,,,,,,,,,,,,masks/mask_001.jpg,0,1,1,0,1,,,,,,,,,,,,,,,,,,,,,,,,,,,,,,,,,,,,,,,,,,,,,,,,,,,,,,,,,,,,,,,,,,,,,,,,,,,,,,,,,,,,,,,,
890563,001,2022-11-20_22h53.15.996,Info_measure_main_exp,2022.2.2,Win32,60.06727535,,,,,,,,,,,,,,,,,,masks/mask_003.jpg,0,2,2,2,1,,,,,,,,,,,,,,,,,,,,,,,,,,,,,,,,,,,,,,,,,,,,,,,,,,,,,,,,,,,,,,,,,,,,,,,,,,,,,,,,,,,,,,,,
890563,001,2022-11-20_22h53.15.996,Info_measure_main_exp,2022.2.2,Win32,60.06727535,,,,,,,,,,,,,,,,,,masks/mask_004.jpg,0,3,3,3,1,,,,,,,,,,,,,,,,,,,,,,,,,,,,,,,,,,,,,,,,,,,,,,,,,,,,,,,,,,,,,,,,,,,,,,,,,,,,,,,,,,,,,,,,
890563,001,2022-11-20_22h53.15.996,Info_measure_main_exp,2022.2.2,Win32,60.06727535,,,,,,,,,,,,,,,,,,masks/mask_002.jpg,0,4,4,1,1,,,,,,,,,,,,,,,,,,,,,,,,,,,,,,,,,,,,,,,,,,,,,,,,,,,,,,,,,,,,,,,,,,,,,,,,,,,,,,,,,,,,,,,,
890563,001,2022-11-20_22h53.15.996,Info_measure_main_exp,2022.2.2,Win32,60.06727535,,,,,,,,,,,,,,,,,,,,,,,,0.124074074,-0.062037037,1,0,0,response3disk,5,86.2676,1,-0.001851852,0.001851852,1,0,0,center_square,0,2,2,1,1,0,131,5,5,2514,2490,prac_patch/patch0002514.jpg,prac_patch/patch0002490.jpg,,,,,,,,,,,,,,,,,,,,,,,,,,,,,,,,,,,,,,,,,,,,,,,,,,,,,,,,,,,,
890563,001,2022-11-20_22h53.15.996,Info_measure_main_exp,2022.2.2,Win32,60.06727535,,,,,,,,,,,,,,,,,,,,,,,,,,,,,,,,,,,,,,,,,,,,,,,,,,,,,,,,,,,space,3.1846,,,,,,,,,,,,,,,,,,,,,,,,,,,,,,,,,,,,,,,,,,,,,,,,,,,
890563,001,2022-11-20_22h53.15.996,Info_measure_main_exp,2022.2.2,Win32,60.06727535,,,,,,,,,,,,,,,,,,masks/mask_001.jpg,,,,,,,,,,,,,,,,,,,,,,,,,,,,,,,,,,,,,,,,,,,0,0,0,0,1,,,,,,,,,,,,,,,,,,,,,,,,,,,,,,,,,,,,,,,,,,,,,,
890563,001,2022-11-20_22h53.15.996,Info_measure_main_exp,2022.2.2,Win32,60.06727535,,,,,,,,,,,,,,,,,,masks/mask_002.jpg,,,,,,,,,,,,,,,,,,,,,,,,,,,,,,,,,,,,,,,,,,,0,1,1,1,1,,,,,,,,,,,,,,,,,,,,,,,,,,,,,,,,,,,,,,,,,,,,,,
890563,001,2022-11-20_22h53.15.996,Info_measure_main_exp,2022.2.2,Win32,60.06727535,,,,,,,,,,,,,,,,,,masks/mask_004.jpg,,,,,,,,,,,,,,,,,,,,,,,,,,,,,,,,,,,,,,,,,,,0,2,2,3,1,,,,,,,,,,,,,,,,,,,,,,,,,,,,,,,,,,,,,,,,,,,,,,
890563,001,2022-11-20_22h53.15.996,Info_measure_main_exp,2022.2.2,Win32,60.06727535,,,,,,,,,,,,,,,,,,masks/mask_005.jpg,,,,,,,,,,,,,,,,,,,,,,,,,,,,,,,,,,,,,,,,,,,0,3,3,4,1,,,,,,,,,,,,,,,,,,,,,,,,,,,,,,,,,,,,,,,,,,,,,,
890563,001,2022-11-20_22h53.15.996,Info_measure_main_exp,2022.2.2,Win32,60.06727535,,,,,,,,,,,,,,,,,,masks/mask_003.jpg,,,,,,,,,,,,,,,,,,,,,,,,,,,,,,,,,,,,,,,,,,,0,4,4,2,1,,,,,,,,,,,,,,,,,,,,,,,,,,,,,,,,,,,,,,,,,,,,,,
890563,001,2022-11-20_22h53.15.996,Info_measure_main_exp,2022.2.2,Win32,60.06727535,,,,,,,,,,,,,,,,,,masks/mask_001.jpg,,,,,,,,,,,,,,,,,,,,,,,,,,,,,,,,,,,,,,,,,,,,,,,,0,0,0,0,1,,,,,,,,,,,,,,,,,,,,,,,,,,,,,,,,,,,,,,,,,
890563,001,2022-11-20_22h53.15.996,Info_measure_main_exp,2022.2.2,Win32,60.06727535,,,,,,,,,,,,,,,,,,masks/mask_003.jpg,,,,,,,,,,,,,,,,,,,,,,,,,,,,,,,,,,,,,,,,,,,,,,,,0,1,1,2,1,,,,,,,,,,,,,,,,,,,,,,,,,,,,,,,,,,,,,,,,,
890563,001,2022-11-20_22h53.15.996,Info_measure_main_exp,2022.2.2,Win32,60.06727535,,,,,,,,,,,,,,,,,,masks/mask_004.jpg,,,,,,,,,,,,,,,,,,,,,,,,,,,,,,,,,,,,,,,,,,,,,,,,0,2,2,3,1,,,,,,,,,,,,,,,,,,,,,,,,,,,,,,,,,,,,,,,,,
890563,001,2022-11-20_22h53.15.996,Info_measure_main_exp,2022.2.2,Win32,60.06727535,,,,,,,,,,,,,,,,,,masks/mask_005.jpg,,,,,,,,,,,,,,,,,,,,,,,,,,,,,,,,,,,,,,,,,,,,,,,,0,3,3,4,1,,,,,,,,,,,,,,,,,,,,,,,,,,,,,,,,,,,,,,,,,
890563,001,2022-11-20_22h53.15.996,Info_measure_main_exp,2022.2.2,Win32,60.06727535,,,,,,,,,,,,,,,,,,masks/mask_002.jpg,,,,,,,,,,,,,,,,,,,,,,,,,,,,,,,,,,,,,,,,,,,,,,,,0,4,4,1,1,,,,,,,,,,,,,,,,,,,,,,,,,,,,,,,,,,,,,,,,,
890563,001,2022-11-20_22h53.15.996,Info_measure_main_exp,2022.2.2,Win32,60.06727535,,,,,,,,,,,,,,,,,,,,,,,,,,,,,,7,1.5852,1,,,,,,,,,,,,0,131,5,5,2238,2166,absent_patch/patch0002238.jpg,absent_patch/patch0002166.jpg,,,,,,,,,,,,,,,,,,,,0.081481481,0.131481481,1,0,0,response1disk,1,0,-0.003703704,1,0,0,center_square,0,0,0,118,1,,,,,,,,,,,,,,,,,,,,,,,
890563,001,2022-11-20_22h53.15.996,Info_measure_main_exp,2022.2.2,Win32,60.06727535,,,,,,,,,,,,,,,,,,masks/mask_005.jpg,,,,,,,,,,,,,,,,,,,,,,,,,,,,,,,,,,,,,,,,,,,0,0,0,4,1,,,,,,,,,,,,,,,,,,,,,,,,,,,,,,,,,,,,,,,,,,,,,,
890563,001,2022-11-20_22h53.15.996,Info_measure_main_exp,2022.2.2,Win32,60.06727535,,,,,,,,,,,,,,,,,,masks/mask_004.jpg,,,,,,,,,,,,,,,,,,,,,,,,,,,,,,,,,,,,,,,,,,,0,1,1,3,1,,,,,,,,,,,,,,,,,,,,,,,,,,,,,,,,,,,,,,,,,,,,,,
890563,001,2022-11-20_22h53.15.996,Info_measure_main_exp,2022.2.2,Win32,60.06727535,,,,,,,,,,,,,,,,,,masks/mask_001.jpg,,,,,,,,,,,,,,,,,,,,,,,,,,,,,,,,,,,,,,,,,,,0,2,2,0,1,,,,,,,,,,,,,,,,,,,,,,,,,,,,,,,,,,,,,,,,,,,,,,
890563,001,2022-11-20_22h53.15.996,Info_measure_main_exp,2022.2.2,Win32,60.06727535,,,,,,,,,,,,,,,,,,masks/mask_002.jpg,,,,,,,,,,,,,,,,,,,,,,,,,,,,,,,,,,,,,,,,,,,0,3,3,1,1,,,,,,,,,,,,,,,,,,,,,,,,,,,,,,,,,,,,,,,,,,,,,,
890563,001,2022-11-20_22h53.15.996,Info_measure_main_exp,2022.2.2,Win32,60.06727535,,,,,,,,,,,,,,,,,,masks/mask_003.jpg,,,,,,,,,,,,,,,,,,,,,,,,,,,,,,,,,,,,,,,,,,,0,4,4,2,1,,,,,,,,,,,,,,,,,,,,,,,,,,,,,,,,,,,,,,,,,,,,,,
890563,001,2022-11-20_22h53.15.996,Info_measure_main_exp,2022.2.2,Win32,60.06727535,,,,,,,,,,,,,,,,,,masks/mask_001.jpg,,,,,,,,,,,,,,,,,,,,,,,,,,,,,,,,,,,,,,,,,,,,,,,,0,0,0,0,1,,,,,,,,,,,,,,,,,,,,,,,,,,,,,,,,,,,,,,,,,
890563,001,2022-11-20_22h53.15.996,Info_measure_main_exp,2022.2.2,Win32,60.06727535,,,,,,,,,,,,,,,,,,masks/mask_005.jpg,,,,,,,,,,,,,,,,,,,,,,,,,,,,,,,,,,,,,,,,,,,,,,,,0,1,1,4,1,,,,,,,,,,,,,,,,,,,,,,,,,,,,,,,,,,,,,,,,,
890563,001,2022-11-20_22h53.15.996,Info_measure_main_exp,2022.2.2,Win32,60.06727535,,,,,,,,,,,,,,,,,,masks/mask_004.jpg,,,,,,,,,,,,,,,,,,,,,,,,,,,,,,,,,,,,,,,,,,,,,,,,0,2,2,3,1,,,,,,,,,,,,,,,,,,,,,,,,,,,,,,,,,,,,,,,,,
890563,001,2022-11-20_22h53.15.996,Info_measure_main_exp,2022.2.2,Win32,60.06727535,,,,,,,,,,,,,,,,,,masks/mask_002.jpg,,,,,,,,,,,,,,,,,,,,,,,,,,,,,,,,,,,,,,,,,,,,,,,,0,3,3,1,1,,,,,,,,,,,,,,,,,,,,,,,,,,,,,,,,,,,,,,,,,
890563,001,2022-11-20_22h53.15.996,Info_measure_main_exp,2022.2.2,Win32,60.06727535,,,,,,,,,,,,,,,,,,masks/mask_003.jpg,,,,,,,,,,,,,,,,,,,,,,,,,,,,,,,,,,,,,,,,,,,,,,,,0,4,4,2,1,,,,,,,,,,,,,,,,,,,,,,,,,,,,,,,,,,,,,,,,,
890563,001,2022-11-20_22h53.15.996,Info_measure_main_exp,2022.2.2,Win32,60.06727535,,,,,,,,,,,,,,,,,,,,,,,,,,,,,,7,0.7007,1,,,,,,,,,,,,0,131,5,5,2082,2166,absent_patch/patch0002082.jpg,absent_patch/patch0002166.jpg,,,,,,,,,,,,,,,,,,,,0.075,0.118518519,1,0,0,response1disk,2,-0.002777778,-0.011111111,1,0,0,center_square,0,1,1,43,1,,,,,,,,,,,,,,,,,,,,,,,
890563,001,2022-11-20_22h53.15.996,Info_measure_main_exp,2022.2.2,Win32,60.06727535,,,,,,,,,,,,,,,,,,masks/mask_003.jpg,,,,,,,,,,,,,,,,,,,,,,,,,,,,,,,,,,,,,,,,,,,0,0,0,2,1,,,,,,,,,,,,,,,,,,,,,,,,,,,,,,,,,,,,,,,,,,,,,,
890563,001,2022-11-20_22h53.15.996,Info_measure_main_exp,2022.2.2,Win32,60.06727535,,,,,,,,,,,,,,,,,,masks/mask_002.jpg,,,,,,,,,,,,,,,,,,,,,,,,,,,,,,,,,,,,,,,,,,,0,1,1,1,1,,,,,,,,,,,,,,,,,,,,,,,,,,,,,,,,,,,,,,,,,,,,,,
890563,001,2022-11-20_22h53.15.996,Info_measure_main_exp,2022.2.2,Win32,60.06727535,,,,,,,,,,,,,,,,,,masks/mask_001.jpg,,,,,,,,,,,,,,,,,,,,,,,,,,,,,,,,,,,,,,,,,,,0,2,2,0,1,,,,,,,,,,,,,,,,,,,,,,,,,,,,,,,,,,,,,,,,,,,,,,
890563,001,2022-11-20_22h53.15.996,Info_measure_main_exp,2022.2.2,Win32,60.06727535,,,,,,,,,,,,,,,,,,masks/mask_004.jpg,,,,,,,,,,,,,,,,,,,,,,,,,,,,,,,,,,,,,,,,,,,0,3,3,3,1,,,,,,,,,,,,,,,,,,,,,,,,,,,,,,,,,,,,,,,,,,,,,,
890563,001,2022-11-20_22h53.15.996,Info_measure_main_exp,2022.2.2,Win32,60.06727535,,,,,,,,,,,,,,,,,,masks/mask_005.jpg,,,,,,,,,,,,,,,,,,,,,,,,,,,,,,,,,,,,,,,,,,,0,4,4,4,1,,,,,,,,,,,,,,,,,,,,,,,,,,,,,,,,,,,,,,,,,,,,,,
890563,001,2022-11-20_22h53.15.996,Info_measure_main_exp,2022.2.2,Win32,60.06727535,,,,,,,,,,,,,,,,,,masks/mask_001.jpg,,,,,,,,,,,,,,,,,,,,,,,,,,,,,,,,,,,,,,,,,,,,,,,,0,0,0,0,1,,,,,,,,,,,,,,,,,,,,,,,,,,,,,,,,,,,,,,,,,
890563,001,2022-11-20_22h53.15.996,Info_measure_main_exp,2022.2.2,Win32,60.06727535,,,,,,,,,,,,,,,,,,masks/mask_005.jpg,,,,,,,,,,,,,,,,,,,,,,,,,,,,,,,,,,,,,,,,,,,,,,,,0,1,1,4,1,,,,,,,,,,,,,,,,,,,,,,,,,,,,,,,,,,,,,,,,,
890563,001,2022-11-20_22h53.15.996,Info_measure_main_exp,2022.2.2,Win32,60.06727535,,,,,,,,,,,,,,,,,,masks/mask_003.jpg,,,,,,,,,,,,,,,,,,,,,,,,,,,,,,,,,,,,,,,,,,,,,,,,0,2,2,2,1,,,,,,,,,,,,,,,,,,,,,,,,,,,,,,,,,,,,,,,,,
890563,001,2022-11-20_22h53.15.996,Info_measure_main_exp,2022.2.2,Win32,60.06727535,,,,,,,,,,,,,,,,,,masks/mask_002.jpg,,,,,,,,,,,,,,,,,,,,,,,,,,,,,,,,,,,,,,,,,,,,,,,,0,3,3,1,1,,,,,,,,,,,,,,,,,,,,,,,,,,,,,,,,,,,,,,,,,
890563,001,2022-11-20_22h53.15.996,Info_measure_main_exp,2022.2.2,Win32,60.06727535,,,,,,,,,,,,,,,,,,masks/mask_004.jpg,,,,,,,,,,,,,,,,,,,,,,,,,,,,,,,,,,,,,,,,,,,,,,,,0,4,4,3,1,,,,,,,,,,,,,,,,,,,,,,,,,,,,,,,,,,,,,,,,,
890563,001,2022-11-20_22h53.15.996,Info_measure_main_exp,2022.2.2,Win32,60.06727535,,,,,,,,,,,,,,,,,,,,,,,,,,,,,,0,0.753,1,,,,,,,,,,,,1,131,5,5,1,1,present_patch/cong_131_5_a.jpg,present_patch/cong_131_5_a.jpg,,,,,,,,,,,,,,,,,,,,-0.05,0.12037037,1,0,0,response7disk,3,0.011111111,-0.003703704,1,0,0,center_square,0,2,2,30,1,,,,,,,,,,,,,,,,,,,,,,,
890563,001,2022-11-20_22h53.15.996,Info_measure_main_exp,2022.2.2,Win32,60.06727535,,,,,,,,,,,,,,,,,,masks/mask_002.jpg,,,,,,,,,,,,,,,,,,,,,,,,,,,,,,,,,,,,,,,,,,,0,0,0,1,1,,,,,,,,,,,,,,,,,,,,,,,,,,,,,,,,,,,,,,,,,,,,,,
890563,001,2022-11-20_22h53.15.996,Info_measure_main_exp,2022.2.2,Win32,60.06727535,,,,,,,,,,,,,,,,,,masks/mask_005.jpg,,,,,,,,,,,,,,,,,,,,,,,,,,,,,,,,,,,,,,,,,,,0,1,1,4,1,,,,,,,,,,,,,,,,,,,,,,,,,,,,,,,,,,,,,,,,,,,,,,
890563,001,2022-11-20_22h53.15.996,Info_measure_main_exp,2022.2.2,Win32,60.06727535,,,,,,,,,,,,,,,,,,masks/mask_004.jpg,,,,,,,,,,,,,,,,,,,,,,,,,,,,,,,,,,,,,,,,,,,0,2,2,3,1,,,,,,,,,,,,,,,,,,,,,,,,,,,,,,,,,,,,,,,,,,,,,,
890563,001,2022-11-20_22h53.15.996,Info_measure_main_exp,2022.2.2,Win32,60.06727535,,,,,,,,,,,,,,,,,,masks/mask_001.jpg,,,,,,,,,,,,,,,,,,,,,,,,,,,,,,,,,,,,,,,,,,,0,3,3,0,1,,,,,,,,,,,,,,,,,,,,,,,,,,,,,,,,,,,,,,,,,,,,,,
890563,001,2022-11-20_22h53.15.996,Info_measure_main_exp,2022.2.2,Win32,60.06727535,,,,,,,,,,,,,,,,,,masks/mask_003.jpg,,,,,,,,,,,,,,,,,,,,,,,,,,,,,,,,,,,,,,,,,,,0,4,4,2,1,,,,,,,,,,,,,,,,,,,,,,,,,,,,,,,,,,,,,,,,,,,,,,
890563,001,2022-11-20_22h53.15.996,Info_measure_main_exp,2022.2.2,Win32,60.06727535,,,,,,,,,,,,,,,,,,masks/mask_001.jpg,,,,,,,,,,,,,,,,,,,,,,,,,,,,,,,,,,,,,,,,,,,,,,,,0,0,0,0,1,,,,,,,,,,,,,,,,,,,,,,,,,,,,,,,,,,,,,,,,,
890563,001,2022-11-20_22h53.15.996,Info_measure_main_exp,2022.2.2,Win32,60.06727535,,,,,,,,,,,,,,,,,,masks/mask_004.jpg,,,,,,,,,,,,,,,,,,,,,,,,,,,,,,,,,,,,,,,,,,,,,,,,0,1,1,3,1,,,,,,,,,,,,,,,,,,,,,,,,,,,,,,,,,,,,,,,,,
890563,001,2022-11-20_22h53.15.996,Info_measure_main_exp,2022.2.2,Win32,60.06727535,,,,,,,,,,,,,,,,,,masks/mask_003.jpg,,,,,,,,,,,,,,,,,,,,,,,,,,,,,,,,,,,,,,,,,,,,,,,,0,2,2,2,1,,,,,,,,,,,,,,,,,,,,,,,,,,,,,,,,,,,,,,,,,
890563,001,2022-11-20_22h53.15.996,Info_measure_main_exp,2022.2.2,Win32,60.06727535,,,,,,,,,,,,,,,,,,masks/mask_005.jpg,,,,,,,,,,,,,,,,,,,,,,,,,,,,,,,,,,,,,,,,,,,,,,,,0,3,3,4,1,,,,,,,,,,,,,,,,,,,,,,,,,,,,,,,,,,,,,,,,,
890563,001,2022-11-20_22h53.15.996,Info_measure_main_exp,2022.2.2,Win32,60.06727535,,,,,,,,,,,,,,,,,,masks/mask_002.jpg,,,,,,,,,,,,,,,,,,,,,,,,,,,,,,,,,,,,,,,,,,,,,,,,0,4,4,1,1,,,,,,,,,,,,,,,,,,,,,,,,,,,,,,,,,,,,,,,,,
890563,001,2022-11-20_22h53.15.996,Info_measure_main_exp,2022.2.2,Win32,60.06727535,,,,,,,,,,,,,,,,,,,,,,,,,,,,,,7,0.7007,1,,,,,,,,,,,,0,131,5,5,2154,1974,absent_patch/patch0002154.jpg,absent_patch/patch0001974.jpg,,,,,,,,,,,,,,,,,,,,0.057407407,0.125,1,0,0,response1disk,4,0.008333333,-0.000925926,1,0,0,center_square,0,3,3,82,1,,,,,,,,,,,,,,,,,,,,,,,
890563,001,2022-11-20_22h53.15.996,Info_measure_main_exp,2022.2.2,Win32,60.06727535,,,,,,,,,,,,,,,,,,masks/mask_004.jpg,,,,,,,,,,,,,,,,,,,,,,,,,,,,,,,,,,,,,,,,,,,0,0,0,3,1,,,,,,,,,,,,,,,,,,,,,,,,,,,,,,,,,,,,,,,,,,,,,,
890563,001,2022-11-20_22h53.15.996,Info_measure_main_exp,2022.2.2,Win32,60.06727535,,,,,,,,,,,,,,,,,,masks/mask_005.jpg,,,,,,,,,,,,,,,,,,,,,,,,,,,,,,,,,,,,,,,,,,,0,1,1,4,1,,,,,,,,,,,,,,,,,,,,,,,,,,,,,,,,,,,,,,,,,,,,,,
890563,001,2022-11-20_22h53.15.996,Info_measure_main_exp,2022.2.2,Win32,60.06727535,,,,,,,,,,,,,,,,,,masks/mask_003.jpg,,,,,,,,,,,,,,,,,,,,,,,,,,,,,,,,,,,,,,,,,,,0,2,2,2,1,,,,,,,,,,,,,,,,,,,,,,,,,,,,,,,,,,,,,,,,,,,,,,
890563,001,2022-11-20_22h53.15.996,Info_measure_main_exp,2022.2.2,Win32,60.06727535,,,,,,,,,,,,,,,,,,masks/mask_001.jpg,,,,,,,,,,,,,,,,,,,,,,,,,,,,,,,,,,,,,,,,,,,0,3,3,0,1,,,,,,,,,,,,,,,,,,,,,,,,,,,,,,,,,,,,,,,,,,,,,,
890563,001,2022-11-20_22h53.15.996,Info_measure_main_exp,2022.2.2,Win32,60.06727535,,,,,,,,,,,,,,,,,,masks/mask_002.jpg,,,,,,,,,,,,,,,,,,,,,,,,,,,,,,,,,,,,,,,,,,,0,4,4,1,1,,,,,,,,,,,,,,,,,,,,,,,,,,,,,,,,,,,,,,,,,,,,,,
890563,001,2022-11-20_22h53.15.996,Info_measure_main_exp,2022.2.2,Win32,60.06727535,,,,,,,,,,,,,,,,,,masks/mask_002.jpg,,,,,,,,,,,,,,,,,,,,,,,,,,,,,,,,,,,,,,,,,,,,,,,,0,0,0,1,1,,,,,,,,,,,,,,,,,,,,,,,,,,,,,,,,,,,,,,,,,
890563,001,2022-11-20_22h53.15.996,Info_measure_main_exp,2022.2.2,Win32,60.06727535,,,,,,,,,,,,,,,,,,masks/mask_004.jpg,,,,,,,,,,,,,,,,,,,,,,,,,,,,,,,,,,,,,,,,,,,,,,,,0,1,1,3,1,,,,,,,,,,,,,,,,,,,,,,,,,,,,,,,,,,,,,,,,,
890563,001,2022-11-20_22h53.15.996,Info_measure_main_exp,2022.2.2,Win32,60.06727535,,,,,,,,,,,,,,,,,,masks/mask_001.jpg,,,,,,,,,,,,,,,,,,,,,,,,,,,,,,,,,,,,,,,,,,,,,,,,0,2,2,0,1,,,,,,,,,,,,,,,,,,,,,,,,,,,,,,,,,,,,,,,,,
890563,001,2022-11-20_22h53.15.996,Info_measure_main_exp,2022.2.2,Win32,60.06727535,,,,,,,,,,,,,,,,,,masks/mask_005.jpg,,,,,,,,,,,,,,,,,,,,,,,,,,,,,,,,,,,,,,,,,,,,,,,,0,3,3,4,1,,,,,,,,,,,,,,,,,,,,,,,,,,,,,,,,,,,,,,,,,
890563,001,2022-11-20_22h53.15.996,Info_measure_main_exp,2022.2.2,Win32,60.06727535,,,,,,,,,,,,,,,,,,masks/mask_003.jpg,,,,,,,,,,,,,,,,,,,,,,,,,,,,,,,,,,,,,,,,,,,,,,,,0,4,4,2,1,,,,,,,,,,,,,,,,,,,,,,,,,,,,,,,,,,,,,,,,,
890563,001,2022-11-20_22h53.15.996,Info_measure_main_exp,2022.2.2,Win32,60.06727535,,,,,,,,,,,,,,,,,,,,,,,,,,,,,,7,0.9285,1,,,,,,,,,,,,1,131,5,5,1950,1,absent_patch/patch0001950.jpg,present_patch/cong_131_5_a.jpg,,,,,,,,,,,,,,,,,,,,0.053703704,0.100925926,1,0,0,response1disk,5,0.012962963,-0.010185185,1,0,0,center_square,0,4,4,39,1,,,,,,,,,,,,,,,,,,,,,,,
890563,001,2022-11-20_22h53.15.996,Info_measure_main_exp,2022.2.2,Win32,60.06727535,,,,,,,,,,,,,,,,,,masks/mask_004.jpg,,,,,,,,,,,,,,,,,,,,,,,,,,,,,,,,,,,,,,,,,,,0,0,0,3,1,,,,,,,,,,,,,,,,,,,,,,,,,,,,,,,,,,,,,,,,,,,,,,
890563,001,2022-11-20_22h53.15.996,Info_measure_main_exp,2022.2.2,Win32,60.06727535,,,,,,,,,,,,,,,,,,masks/mask_002.jpg,,,,,,,,,,,,,,,,,,,,,,,,,,,,,,,,,,,,,,,,,,,0,1,1,1,1,,,,,,,,,,,,,,,,,,,,,,,,,,,,,,,,,,,,,,,,,,,,,,
890563,001,2022-11-20_22h53.15.996,Info_measure_main_exp,2022.2.2,Win32,60.06727535,,,,,,,,,,,,,,,,,,masks/mask_001.jpg,,,,,,,,,,,,,,,,,,,,,,,,,,,,,,,,,,,,,,,,,,,0,2,2,0,1,,,,,,,,,,,,,,,,,,,,,,,,,,,,,,,,,,,,,,,,,,,,,,
890563,001,2022-11-20_22h53.15.996,Info_measure_main_exp,2022.2.2,Win32,60.06727535,,,,,,,,,,,,,,,,,,masks/mask_003.jpg,,,,,,,,,,,,,,,,,,,,,,,,,,,,,,,,,,,,,,,,,,,0,3,3,2,1,,,,,,,,,,,,,,,,,,,,,,,,,,,,,,,,,,,,,,,,,,,,,,
890563,001,2022-11-20_22h53.15.996,Info_measure_main_exp,2022.2.2,Win32,60.06727535,,,,,,,,,,,,,,,,,,masks/mask_005.jpg,,,,,,,,,,,,,,,,,,,,,,,,,,,,,,,,,,,,,,,,,,,0,4,4,4,1,,,,,,,,,,,,,,,,,,,,,,,,,,,,,,,,,,,,,,,,,,,,,,
890563,001,2022-11-20_22h53.15.996,Info_measure_main_exp,2022.2.2,Win32,60.06727535,,,,,,,,,,,,,,,,,,masks/mask_004.jpg,,,,,,,,,,,,,,,,,,,,,,,,,,,,,,,,,,,,,,,,,,,,,,,,0,0,0,3,1,,,,,,,,,,,,,,,,,,,,,,,,,,,,,,,,,,,,,,,,,
890563,001,2022-11-20_22h53.15.996,Info_measure_main_exp,2022.2.2,Win32,60.06727535,,,,,,,,,,,,,,,,,,masks/mask_005.jpg,,,,,,,,,,,,,,,,,,,,,,,,,,,,,,,,,,,,,,,,,,,,,,,,0,1,1,4,1,,,,,,,,,,,,,,,,,,,,,,,,,,,,,,,,,,,,,,,,,
890563,001,2022-11-20_22h53.15.996,Info_measure_main_exp,2022.2.2,Win32,60.06727535,,,,,,,,,,,,,,,,,,masks/mask_002.jpg,,,,,,,,,,,,,,,,,,,,,,,,,,,,,,,,,,,,,,,,,,,,,,,,0,2,2,1,1,,,,,,,,,,,,,,,,,,,,,,,,,,,,,,,,,,,,,,,,,
890563,001,2022-11-20_22h53.15.996,Info_measure_main_exp,2022.2.2,Win32,60.06727535,,,,,,,,,,,,,,,,,,masks/mask_001.jpg,,,,,,,,,,,,,,,,,,,,,,,,,,,,,,,,,,,,,,,,,,,,,,,,0,3,3,0,1,,,,,,,,,,,,,,,,,,,,,,,,,,,,,,,,,,,,,,,,,
890563,001,2022-11-20_22h53.15.996,Info_measure_main_exp,2022.2.2,Win32,60.06727535,,,,,,,,,,,,,,,,,,masks/mask_003.jpg,,,,,,,,,,,,,,,,,,,,,,,,,,,,,,,,,,,,,,,,,,,,,,,,0,4,4,2,1,,,,,,,,,,,,,,,,,,,,,,,,,,,,,,,,,,,,,,,,,
890563,001,2022-11-20_22h53.15.996,Info_measure_main_exp,2022.2.2,Win32,60.06727535,,,,,,,,,,,,,,,,,,,,,,,,,,,,,,5,1.001,1,,,,,,,,,,,,0,131,5,5,1974,2250,absent_patch/patch0001974.jpg,absent_patch/patch0002250.jpg,,,,,,,,,,,,,,,,,,,,0.128703704,-0.078703704,1,0,0,response3disk,6,-0.005555556,-0.002777778,1,0,0,center_square,0,5,5,55,1,,,,,,,,,,,,,,,,,,,,,,,
890563,001,2022-11-20_22h53.15.996,Info_measure_main_exp,2022.2.2,Win32,60.06727535,,,,,,,,,,,,,,,,,,masks/mask_002.jpg,,,,,,,,,,,,,,,,,,,,,,,,,,,,,,,,,,,,,,,,,,,0,0,0,1,1,,,,,,,,,,,,,,,,,,,,,,,,,,,,,,,,,,,,,,,,,,,,,,
890563,001,2022-11-20_22h53.15.996,Info_measure_main_exp,2022.2.2,Win32,60.06727535,,,,,,,,,,,,,,,,,,masks/mask_001.jpg,,,,,,,,,,,,,,,,,,,,,,,,,,,,,,,,,,,,,,,,,,,0,1,1,0,1,,,,,,,,,,,,,,,,,,,,,,,,,,,,,,,,,,,,,,,,,,,,,,
890563,001,2022-11-20_22h53.15.996,Info_measure_main_exp,2022.2.2,Win32,60.06727535,,,,,,,,,,,,,,,,,,masks/mask_005.jpg,,,,,,,,,,,,,,,,,,,,,,,,,,,,,,,,,,,,,,,,,,,0,2,2,4,1,,,,,,,,,,,,,,,,,,,,,,,,,,,,,,,,,,,,,,,,,,,,,,
890563,001,2022-11-20_22h53.15.996,Info_measure_main_exp,2022.2.2,Win32,60.06727535,,,,,,,,,,,,,,,,,,masks/mask_004.jpg,,,,,,,,,,,,,,,,,,,,,,,,,,,,,,,,,,,,,,,,,,,0,3,3,3,1,,,,,,,,,,,,,,,,,,,,,,,,,,,,,,,,,,,,,,,,,,,,,,
890563,001,2022-11-20_22h53.15.996,Info_measure_main_exp,2022.2.2,Win32,60.06727535,,,,,,,,,,,,,,,,,,masks/mask_003.jpg,,,,,,,,,,,,,,,,,,,,,,,,,,,,,,,,,,,,,,,,,,,0,4,4,2,1,,,,,,,,,,,,,,,,,,,,,,,,,,,,,,,,,,,,,,,,,,,,,,
890563,001,2022-11-20_22h53.15.996,Info_measure_main_exp,2022.2.2,Win32,60.06727535,,,,,,,,,,,,,,,,,,masks/mask_001.jpg,,,,,,,,,,,,,,,,,,,,,,,,,,,,,,,,,,,,,,,,,,,,,,,,0,0,0,0,1,,,,,,,,,,,,,,,,,,,,,,,,,,,,,,,,,,,,,,,,,
890563,001,2022-11-20_22h53.15.996,Info_measure_main_exp,2022.2.2,Win32,60.06727535,,,,,,,,,,,,,,,,,,masks/mask_003.jpg,,,,,,,,,,,,,,,,,,,,,,,,,,,,,,,,,,,,,,,,,,,,,,,,0,1,1,2,1,,,,,,,,,,,,,,,,,,,,,,,,,,,,,,,,,,,,,,,,,
890563,001,2022-11-20_22h53.15.996,Info_measure_main_exp,2022.2.2,Win32,60.06727535,,,,,,,,,,,,,,,,,,masks/mask_002.jpg,,,,,,,,,,,,,,,,,,,,,,,,,,,,,,,,,,,,,,,,,,,,,,,,0,2,2,1,1,,,,,,,,,,,,,,,,,,,,,,,,,,,,,,,,,,,,,,,,,
890563,001,2022-11-20_22h53.15.996,Info_measure_main_exp,2022.2.2,Win32,60.06727535,,,,,,,,,,,,,,,,,,masks/mask_005.jpg,,,,,,,,,,,,,,,,,,,,,,,,,,,,,,,,,,,,,,,,,,,,,,,,0,3,3,4,1,,,,,,,,,,,,,,,,,,,,,,,,,,,,,,,,,,,,,,,,,
890563,001,2022-11-20_22h53.15.996,Info_measure_main_exp,2022.2.2,Win32,60.06727535,,,,,,,,,,,,,,,,,,masks/mask_004.jpg,,,,,,,,,,,,,,,,,,,,,,,,,,,,,,,,,,,,,,,,,,,,,,,,0,4,4,3,1,,,,,,,,,,,,,,,,,,,,,,,,,,,,,,,,,,,,,,,,,
890563,001,2022-11-20_22h53.15.996,Info_measure_main_exp,2022.2.2,Win32,60.06727535,,,,,,,,,,,,,,,,,,,,,,,,,,,,,,3,1.1341,1,,,,,,,,,,,,0,131,5,5,1974,2178,absent_patch/patch0001974.jpg,absent_patch/patch0002178.jpg,,,,,,,,,,,,,,,,,,,,-0.005555556,-0.10462963,1,0,0,response5disk,7,0.008333333,0.003703704,1,0,0,center_square,0,6,6,44,1,,,,,,,,,,,,,,,,,,,,,,,
890563,001,2022-11-20_22h53.15.996,Info_measure_main_exp,2022.2.2,Win32,60.06727535,,,,,,,,,,,,,,,,,,masks/mask_002.jpg,,,,,,,,,,,,,,,,,,,,,,,,,,,,,,,,,,,,,,,,,,,0,0,0,1,1,,,,,,,,,,,,,,,,,,,,,,,,,,,,,,,,,,,,,,,,,,,,,,
890563,001,2022-11-20_22h53.15.996,Info_measure_main_exp,2022.2.2,Win32,60.06727535,,,,,,,,,,,,,,,,,,masks/mask_003.jpg,,,,,,,,,,,,,,,,,,,,,,,,,,,,,,,,,,,,,,,,,,,0,1,1,2,1,,,,,,,,,,,,,,,,,,,,,,,,,,,,,,,,,,,,,,,,,,,,,,
890563,001,2022-11-20_22h53.15.996,Info_measure_main_exp,2022.2.2,Win32,60.06727535,,,,,,,,,,,,,,,,,,masks/mask_001.jpg,,,,,,,,,,,,,,,,,,,,,,,,,,,,,,,,,,,,,,,,,,,0,2,2,0,1,,,,,,,,,,,,,,,,,,,,,,,,,,,,,,,,,,,,,,,,,,,,,,
890563,001,2022-11-20_22h53.15.996,Info_measure_main_exp,2022.2.2,Win32,60.06727535,,,,,,,,,,,,,,,,,,masks/mask_004.jpg,,,,,,,,,,,,,,,,,,,,,,,,,,,,,,,,,,,,,,,,,,,0,3,3,3,1,,,,,,,,,,,,,,,,,,,,,,,,,,,,,,,,,,,,,,,,,,,,,,
890563,001,2022-11-20_22h53.15.996,Info_measure_main_exp,2022.2.2,Win32,60.06727535,,,,,,,,,,,,,,,,,,masks/mask_005.jpg,,,,,,,,,,,,,,,,,,,,,,,,,,,,,,,,,,,,,,,,,,,0,4,4,4,1,,,,,,,,,,,,,,,,,,,,,,,,,,,,,,,,,,,,,,,,,,,,,,
890563,001,2022-11-20_22h53.15.996,Info_measure_main_exp,2022.2.2,Win32,60.06727535,,,,,,,,,,,,,,,,,,masks/mask_004.jpg,,,,,,,,,,,,,,,,,,,,,,,,,,,,,,,,,,,,,,,,,,,,,,,,0,0,0,3,1,,,,,,,,,,,,,,,,,,,,,,,,,,,,,,,,,,,,,,,,,
890563,001,2022-11-20_22h53.15.996,Info_measure_main_exp,2022.2.2,Win32,60.06727535,,,,,,,,,,,,,,,,,,masks/mask_002.jpg,,,,,,,,,,,,,,,,,,,,,,,,,,,,,,,,,,,,,,,,,,,,,,,,0,1,1,1,1,,,,,,,,,,,,,,,,,,,,,,,,,,,,,,,,,,,,,,,,,
890563,001,2022-11-20_22h53.15.996,Info_measure_main_exp,2022.2.2,Win32,60.06727535,,,,,,,,,,,,,,,,,,masks/mask_001.jpg,,,,,,,,,,,,,,,,,,,,,,,,,,,,,,,,,,,,,,,,,,,,,,,,0,2,2,0,1,,,,,,,,,,,,,,,,,,,,,,,,,,,,,,,,,,,,,,,,,
890563,001,2022-11-20_22h53.15.996,Info_measure_main_exp,2022.2.2,Win32,60.06727535,,,,,,,,,,,,,,,,,,masks/mask_005.jpg,,,,,,,,,,,,,,,,,,,,,,,,,,,,,,,,,,,,,,,,,,,,,,,,0,3,3,4,1,,,,,,,,,,,,,,,,,,,,,,,,,,,,,,,,,,,,,,,,,
890563,001,2022-11-20_22h53.15.996,Info_measure_main_exp,2022.2.2,Win32,60.06727535,,,,,,,,,,,,,,,,,,masks/mask_003.jpg,,,,,,,,,,,,,,,,,,,,,,,,,,,,,,,,,,,,,,,,,,,,,,,,0,4,4,2,1,,,,,,,,,,,,,,,,,,,,,,,,,,,,,,,,,,,,,,,,,
890563,001,2022-11-20_22h53.15.996,Info_measure_main_exp,2022.2.2,Win32,60.06727535,,,,,,,,,,,,,,,,,,,,,,,,,,,,,,6,1.1843,1,,,,,,,,,,,,0,131,5,5,1974,2214,absent_patch/patch0001974.jpg,absent_patch/patch0002214.jpg,,,,,,,,,,,,,,,,,,,,0.1,0.047222222,1,0,0,response1disk,8,0.000925926,-0.006481481,1,0,0,center_square,0,7,7,24,1,,,,,,,,,,,,,,,,,,,,,,,
890563,001,2022-11-20_22h53.15.996,Info_measure_main_exp,2022.2.2,Win32,60.06727535,,,,,,,,,,,,,,,,,,masks/mask_003.jpg,,,,,,,,,,,,,,,,,,,,,,,,,,,,,,,,,,,,,,,,,,,0,0,0,2,1,,,,,,,,,,,,,,,,,,,,,,,,,,,,,,,,,,,,,,,,,,,,,,
890563,001,2022-11-20_22h53.15.996,Info_measure_main_exp,2022.2.2,Win32,60.06727535,,,,,,,,,,,,,,,,,,masks/mask_004.jpg,,,,,,,,,,,,,,,,,,,,,,,,,,,,,,,,,,,,,,,,,,,0,1,1,3,1,,,,,,,,,,,,,,,,,,,,,,,,,,,,,,,,,,,,,,,,,,,,,,
890563,001,2022-11-20_22h53.15.996,Info_measure_main_exp,2022.2.2,Win32,60.06727535,,,,,,,,,,,,,,,,,,masks/mask_002.jpg,,,,,,,,,,,,,,,,,,,,,,,,,,,,,,,,,,,,,,,,,,,0,2,2,1,1,,,,,,,,,,,,,,,,,,,,,,,,,,,,,,,,,,,,,,,,,,,,,,
890563,001,2022-11-20_22h53.15.996,Info_measure_main_exp,2022.2.2,Win32,60.06727535,,,,,,,,,,,,,,,,,,masks/mask_005.jpg,,,,,,,,,,,,,,,,,,,,,,,,,,,,,,,,,,,,,,,,,,,0,3,3,4,1,,,,,,,,,,,,,,,,,,,,,,,,,,,,,,,,,,,,,,,,,,,,,,
890563,001,2022-11-20_22h53.15.996,Info_measure_main_exp,2022.2.2,Win32,60.06727535,,,,,,,,,,,,,,,,,,masks/mask_001.jpg,,,,,,,,,,,,,,,,,,,,,,,,,,,,,,,,,,,,,,,,,,,0,4,4,0,1,,,,,,,,,,,,,,,,,,,,,,,,,,,,,,,,,,,,,,,,,,,,,,
890563,001,2022-11-20_22h53.15.996,Info_measure_main_exp,2022.2.2,Win32,60.06727535,,,,,,,,,,,,,,,,,,masks/mask_001.jpg,,,,,,,,,,,,,,,,,,,,,,,,,,,,,,,,,,,,,,,,,,,,,,,,0,0,0,0,1,,,,,,,,,,,,,,,,,,,,,,,,,,,,,,,,,,,,,,,,,
890563,001,2022-11-20_22h53.15.996,Info_measure_main_exp,2022.2.2,Win32,60.06727535,,,,,,,,,,,,,,,,,,masks/mask_004.jpg,,,,,,,,,,,,,,,,,,,,,,,,,,,,,,,,,,,,,,,,,,,,,,,,0,1,1,3,1,,,,,,,,,,,,,,,,,,,,,,,,,,,,,,,,,,,,,,,,,
890563,001,2022-11-20_22h53.15.996,Info_measure_main_exp,2022.2.2,Win32,60.06727535,,,,,,,,,,,,,,,,,,masks/mask_005.jpg,,,,,,,,,,,,,,,,,,,,,,,,,,,,,,,,,,,,,,,,,,,,,,,,0,2,2,4,1,,,,,,,,,,,,,,,,,,,,,,,,,,,,,,,,,,,,,,,,,
890563,001,2022-11-20_22h53.15.996,Info_measure_main_exp,2022.2.2,Win32,60.06727535,,,,,,,,,,,,,,,,,,masks/mask_002.jpg,,,,,,,,,,,,,,,,,,,,,,,,,,,,,,,,,,,,,,,,,,,,,,,,0,3,3,1,1,,,,,,,,,,,,,,,,,,,,,,,,,,,,,,,,,,,,,,,,,
890563,001,2022-11-20_22h53.15.996,Info_measure_main_exp,2022.2.2,Win32,60.06727535,,,,,,,,,,,,,,,,,,masks/mask_003.jpg,,,,,,,,,,,,,,,,,,,,,,,,,,,,,,,,,,,,,,,,,,,,,,,,0,4,4,2,1,,,,,,,,,,,,,,,,,,,,,,,,,,,,,,,,,,,,,,,,,
890563,001,2022-11-20_22h53.15.996,Info_measure_main_exp,2022.2.2,Win32,60.06727535,,,,,,,,,,,,,,,,,,,,,,,,,,,,,,5,0.9676,1,,,,,,,,,,,,0,131,5,5,2190,1950,absent_patch/patch0002190.jpg,absent_patch/patch0001950.jpg,,,,,,,,,,,,,,,,,,,,0.1,-0.039814815,1,0,0,response3disk,9,0.015740741,0.010185185,1,0,0,center_square,0,8,8,73,1,,,,,,,,,,,,,,,,,,,,,,,
890563,001,2022-11-20_22h53.15.996,Info_measure_main_exp,2022.2.2,Win32,60.06727535,,,,,,,,,,,,,,,,,,masks/mask_002.jpg,,,,,,,,,,,,,,,,,,,,,,,,,,,,,,,,,,,,,,,,,,,0,0,0,1,1,,,,,,,,,,,,,,,,,,,,,,,,,,,,,,,,,,,,,,,,,,,,,,
890563,001,2022-11-20_22h53.15.996,Info_measure_main_exp,2022.2.2,Win32,60.06727535,,,,,,,,,,,,,,,,,,masks/mask_001.jpg,,,,,,,,,,,,,,,,,,,,,,,,,,,,,,,,,,,,,,,,,,,0,1,1,0,1,,,,,,,,,,,,,,,,,,,,,,,,,,,,,,,,,,,,,,,,,,,,,,
890563,001,2022-11-20_22h53.15.996,Info_measure_main_exp,2022.2.2,Win32,60.06727535,,,,,,,,,,,,,,,,,,masks/mask_003.jpg,,,,,,,,,,,,,,,,,,,,,,,,,,,,,,,,,,,,,,,,,,,0,2,2,2,1,,,,,,,,,,,,,,,,,,,,,,,,,,,,,,,,,,,,,,,,,,,,,,
890563,001,2022-11-20_22h53.15.996,Info_measure_main_exp,2022.2.2,Win32,60.06727535,,,,,,,,,,,,,,,,,,masks/mask_004.jpg,,,,,,,,,,,,,,,,,,,,,,,,,,,,,,,,,,,,,,,,,,,0,3,3,3,1,,,,,,,,,,,,,,,,,,,,,,,,,,,,,,,,,,,,,,,,,,,,,,
890563,001,2022-11-20_22h53.15.996,Info_measure_main_exp,2022.2.2,Win32,60.06727535,,,,,,,,,,,,,,,,,,masks/mask_005.jpg,,,,,,,,,,,,,,,,,,,,,,,,,,,,,,,,,,,,,,,,,,,0,4,4,4,1,,,,,,,,,,,,,,,,,,,,,,,,,,,,,,,,,,,,,,,,,,,,,,
890563,001,2022-11-20_22h53.15.996,Info_measure_main_exp,2022.2.2,Win32,60.06727535,,,,,,,,,,,,,,,,,,masks/mask_002.jpg,,,,,,,,,,,,,,,,,,,,,,,,,,,,,,,,,,,,,,,,,,,,,,,,0,0,0,1,1,,,,,,,,,,,,,,,,,,,,,,,,,,,,,,,,,,,,,,,,,
890563,001,2022-11-20_22h53.15.996,Info_measure_main_exp,2022.2.2,Win32,60.06727535,,,,,,,,,,,,,,,,,,masks/mask_004.jpg,,,,,,,,,,,,,,,,,,,,,,,,,,,,,,,,,,,,,,,,,,,,,,,,0,1,1,3,1,,,,,,,,,,,,,,,,,,,,,,,,,,,,,,,,,,,,,,,,,
890563,001,2022-11-20_22h53.15.996,Info_measure_main_exp,2022.2.2,Win32,60.06727535,,,,,,,,,,,,,,,,,,masks/mask_001.jpg,,,,,,,,,,,,,,,,,,,,,,,,,,,,,,,,,,,,,,,,,,,,,,,,0,2,2,0,1,,,,,,,,,,,,,,,,,,,,,,,,,,,,,,,,,,,,,,,,,
890563,001,2022-11-20_22h53.15.996,Info_measure_main_exp,2022.2.2,Win32,60.06727535,,,,,,,,,,,,,,,,,,masks/mask_005.jpg,,,,,,,,,,,,,,,,,,,,,,,,,,,,,,,,,,,,,,,,,,,,,,,,0,3,3,4,1,,,,,,,,,,,,,,,,,,,,,,,,,,,,,,,,,,,,,,,,,
890563,001,2022-11-20_22h53.15.996,Info_measure_main_exp,2022.2.2,Win32,60.06727535,,,,,,,,,,,,,,,,,,masks/mask_003.jpg,,,,,,,,,,,,,,,,,,,,,,,,,,,,,,,,,,,,,,,,,,,,,,,,0,4,4,2,1,,,,,,,,,,,,,,,,,,,,,,,,,,,,,,,,,,,,,,,,,
890563,001,2022-11-20_22h53.15.996,Info_measure_main_exp,2022.2.2,Win32,60.06727535,,,,,,,,,,,,,,,,,,,,,,,,,,,,,,0,0.5402,1,,,,,,,,,,,,0,131,5,5,2178,2178,absent_patch/patch0002178.jpg,absent_patch/patch0002178.jpg,,,,,,,,,,,,,,,,,,,,-0.037962963,0.127777778,1,0,0,response7disk,10,-0.00462963,0.002777778,1,0,0,center_square,0,9,9,98,1,,,,,,,,,,,,,,,,,,,,,,,
890563,001,2022-11-20_22h53.15.996,Info_measure_main_exp,2022.2.2,Win32,60.06727535,,,,,,,,,,,,,,,,,,masks/mask_005.jpg,,,,,,,,,,,,,,,,,,,,,,,,,,,,,,,,,,,,,,,,,,,0,0,0,4,1,,,,,,,,,,,,,,,,,,,,,,,,,,,,,,,,,,,,,,,,,,,,,,
890563,001,2022-11-20_22h53.15.996,Info_measure_main_exp,2022.2.2,Win32,60.06727535,,,,,,,,,,,,,,,,,,masks/mask_004.jpg,,,,,,,,,,,,,,,,,,,,,,,,,,,,,,,,,,,,,,,,,,,0,1,1,3,1,,,,,,,,,,,,,,,,,,,,,,,,,,,,,,,,,,,,,,,,,,,,,,
890563,001,2022-11-20_22h53.15.996,Info_measure_main_exp,2022.2.2,Win32,60.06727535,,,,,,,,,,,,,,,,,,masks/mask_001.jpg,,,,,,,,,,,,,,,,,,,,,,,,,,,,,,,,,,,,,,,,,,,0,2,2,0,1,,,,,,,,,,,,,,,,,,,,,,,,,,,,,,,,,,,,,,,,,,,,,,
890563,001,2022-11-20_22h53.15.996,Info_measure_main_exp,2022.2.2,Win32,60.06727535,,,,,,,,,,,,,,,,,,masks/mask_002.jpg,,,,,,,,,,,,,,,,,,,,,,,,,,,,,,,,,,,,,,,,,,,0,3,3,1,1,,,,,,,,,,,,,,,,,,,,,,,,,,,,,,,,,,,,,,,,,,,,,,
890563,001,2022-11-20_22h53.15.996,Info_measure_main_exp,2022.2.2,Win32,60.06727535,,,,,,,,,,,,,,,,,,masks/mask_003.jpg,,,,,,,,,,,,,,,,,,,,,,,,,,,,,,,,,,,,,,,,,,,0,4,4,2,1,,,,,,,,,,,,,,,,,,,,,,,,,,,,,,,,,,,,,,,,,,,,,,
890563,001,2022-11-20_22h53.15.996,Info_measure_main_exp,2022.2.2,Win32,60.06727535,,,,,,,,,,,,,,,,,,masks/mask_001.jpg,,,,,,,,,,,,,,,,,,,,,,,,,,,,,,,,,,,,,,,,,,,,,,,,0,0,0,0,1,,,,,,,,,,,,,,,,,,,,,,,,,,,,,,,,,,,,,,,,,
890563,001,2022-11-20_22h53.15.996,Info_measure_main_exp,2022.2.2,Win32,60.06727535,,,,,,,,,,,,,,,,,,masks/mask_002.jpg,,,,,,,,,,,,,,,,,,,,,,,,,,,,,,,,,,,,,,,,,,,,,,,,0,1,1,1,1,,,,,,,,,,,,,,,,,,,,,,,,,,,,,,,,,,,,,,,,,
890563,001,2022-11-20_22h53.15.996,Info_measure_main_exp,2022.2.2,Win32,60.06727535,,,,,,,,,,,,,,,,,,masks/mask_005.jpg,,,,,,,,,,,,,,,,,,,,,,,,,,,,,,,,,,,,,,,,,,,,,,,,0,2,2,4,1,,,,,,,,,,,,,,,,,,,,,,,,,,,,,,,,,,,,,,,,,
890563,001,2022-11-20_22h53.15.996,Info_measure_main_exp,2022.2.2,Win32,60.06727535,,,,,,,,,,,,,,,,,,masks/mask_004.jpg,,,,,,,,,,,,,,,,,,,,,,,,,,,,,,,,,,,,,,,,,,,,,,,,0,3,3,3,1,,,,,,,,,,,,,,,,,,,,,,,,,,,,,,,,,,,,,,,,,
890563,001,2022-11-20_22h53.15.996,Info_measure_main_exp,2022.2.2,Win32,60.06727535,,,,,,,,,,,,,,,,,,masks/mask_003.jpg,,,,,,,,,,,,,,,,,,,,,,,,,,,,,,,,,,,,,,,,,,,,,,,,0,4,4,2,1,,,,,,,,,,,,,,,,,,,,,,,,,,,,,,,,,,,,,,,,,
890563,001,2022-11-20_22h53.15.996,Info_measure_main_exp,2022.2.2,Win32,60.06727535,,,,,,,,,,,,,,,,,,,,,,,,,,,,,,3,2.419,1,,,,,,,,,,,,0,131,5,5,1986,2154,absent_patch/patch0001986.jpg,absent_patch/patch0002154.jpg,,,,,,,,,,,,,,,,,,,,-0.034259259,-0.113888889,1,0,0,response5disk,11,-0.000925926,0.009259259,1,0,0,center_square,0,10,10,36,1,,,,,,,,,,,,,,,,,,,,,,,
890563,001,2022-11-20_22h53.15.996,Info_measure_main_exp,2022.2.2,Win32,60.06727535,,,,,,,,,,,,,,,,,,masks/mask_001.jpg,,,,,,,,,,,,,,,,,,,,,,,,,,,,,,,,,,,,,,,,,,,0,0,0,0,1,,,,,,,,,,,,,,,,,,,,,,,,,,,,,,,,,,,,,,,,,,,,,,
890563,001,2022-11-20_22h53.15.996,Info_measure_main_exp,2022.2.2,Win32,60.06727535,,,,,,,,,,,,,,,,,,masks/mask_004.jpg,,,,,,,,,,,,,,,,,,,,,,,,,,,,,,,,,,,,,,,,,,,0,1,1,3,1,,,,,,,,,,,,,,,,,,,,,,,,,,,,,,,,,,,,,,,,,,,,,,
890563,001,2022-11-20_22h53.15.996,Info_measure_main_exp,2022.2.2,Win32,60.06727535,,,,,,,,,,,,,,,,,,masks/mask_002.jpg,,,,,,,,,,,,,,,,,,,,,,,,,,,,,,,,,,,,,,,,,,,0,2,2,1,1,,,,,,,,,,,,,,,,,,,,,,,,,,,,,,,,,,,,,,,,,,,,,,
890563,001,2022-11-20_22h53.15.996,Info_measure_main_exp,2022.2.2,Win32,60.06727535,,,,,,,,,,,,,,,,,,masks/mask_005.jpg,,,,,,,,,,,,,,,,,,,,,,,,,,,,,,,,,,,,,,,,,,,0,3,3,4,1,,,,,,,,,,,,,,,,,,,,,,,,,,,,,,,,,,,,,,,,,,,,,,
890563,001,2022-11-20_22h53.15.996,Info_measure_main_exp,2022.2.2,Win32,60.06727535,,,,,,,,,,,,,,,,,,masks/mask_003.jpg,,,,,,,,,,,,,,,,,,,,,,,,,,,,,,,,,,,,,,,,,,,0,4,4,2,1,,,,,,,,,,,,,,,,,,,,,,,,,,,,,,,,,,,,,,,,,,,,,,
890563,001,2022-11-20_22h53.15.996,Info_measure_main_exp,2022.2.2,Win32,60.06727535,,,,,,,,,,,,,,,,,,masks/mask_003.jpg,,,,,,,,,,,,,,,,,,,,,,,,,,,,,,,,,,,,,,,,,,,,,,,,0,0,0,2,1,,,,,,,,,,,,,,,,,,,,,,,,,,,,,,,,,,,,,,,,,
890563,001,2022-11-20_22h53.15.996,Info_measure_main_exp,2022.2.2,Win32,60.06727535,,,,,,,,,,,,,,,,,,masks/mask_005.jpg,,,,,,,,,,,,,,,,,,,,,,,,,,,,,,,,,,,,,,,,,,,,,,,,0,1,1,4,1,,,,,,,,,,,,,,,,,,,,,,,,,,,,,,,,,,,,,,,,,
890563,001,2022-11-20_22h53.15.996,Info_measure_main_exp,2022.2.2,Win32,60.06727535,,,,,,,,,,,,,,,,,,masks/mask_001.jpg,,,,,,,,,,,,,,,,,,,,,,,,,,,,,,,,,,,,,,,,,,,,,,,,0,2,2,0,1,,,,,,,,,,,,,,,,,,,,,,,,,,,,,,,,,,,,,,,,,
890563,001,2022-11-20_22h53.15.996,Info_measure_main_exp,2022.2.2,Win32,60.06727535,,,,,,,,,,,,,,,,,,masks/mask_002.jpg,,,,,,,,,,,,,,,,,,,,,,,,,,,,,,,,,,,,,,,,,,,,,,,,0,3,3,1,1,,,,,,,,,,,,,,,,,,,,,,,,,,,,,,,,,,,,,,,,,
890563,001,2022-11-20_22h53.15.996,Info_measure_main_exp,2022.2.2,Win32,60.06727535,,,,,,,,,,,,,,,,,,masks/mask_004.jpg,,,,,,,,,,,,,,,,,,,,,,,,,,,,,,,,,,,,,,,,,,,,,,,,0,4,4,3,1,,,,,,,,,,,,,,,,,,,,,,,,,,,,,,,,,,,,,,,,,
890563,001,2022-11-20_22h53.15.996,Info_measure_main_exp,2022.2.2,Win32,60.06727535,,,,,,,,,,,,,,,,,,,,,,,,,,,,,,4,1.268,1,,,,,,,,,,,,0,131,5,5,1986,2274,absent_patch/patch0001986.jpg,absent_patch/patch0002274.jpg,,,,,,,,,,,,,,,,,,,,0.07037037,-0.124074074,1,0,0,response3disk,12,0.009259259,0.006481481,1,0,0,center_square,0,11,11,7,1,,,,,,,,,,,,,,,,,,,,,,,
890563,001,2022-11-20_22h53.15.996,Info_measure_main_exp,2022.2.2,Win32,60.06727535,,,,,,,,,,,,,,,,,,masks/mask_001.jpg,,,,,,,,,,,,,,,,,,,,,,,,,,,,,,,,,,,,,,,,,,,0,0,0,0,1,,,,,,,,,,,,,,,,,,,,,,,,,,,,,,,,,,,,,,,,,,,,,,
890563,001,2022-11-20_22h53.15.996,Info_measure_main_exp,2022.2.2,Win32,60.06727535,,,,,,,,,,,,,,,,,,masks/mask_004.jpg,,,,,,,,,,,,,,,,,,,,,,,,,,,,,,,,,,,,,,,,,,,0,1,1,3,1,,,,,,,,,,,,,,,,,,,,,,,,,,,,,,,,,,,,,,,,,,,,,,
890563,001,2022-11-20_22h53.15.996,Info_measure_main_exp,2022.2.2,Win32,60.06727535,,,,,,,,,,,,,,,,,,masks/mask_005.jpg,,,,,,,,,,,,,,,,,,,,,,,,,,,,,,,,,,,,,,,,,,,0,2,2,4,1,,,,,,,,,,,,,,,,,,,,,,,,,,,,,,,,,,,,,,,,,,,,,,
890563,001,2022-11-20_22h53.15.996,Info_measure_main_exp,2022.2.2,Win32,60.06727535,,,,,,,,,,,,,,,,,,masks/mask_002.jpg,,,,,,,,,,,,,,,,,,,,,,,,,,,,,,,,,,,,,,,,,,,0,3,3,1,1,,,,,,,,,,,,,,,,,,,,,,,,,,,,,,,,,,,,,,,,,,,,,,
890563,001,2022-11-20_22h53.15.996,Info_measure_main_exp,2022.2.2,Win32,60.06727535,,,,,,,,,,,,,,,,,,masks/mask_003.jpg,,,,,,,,,,,,,,,,,,,,,,,,,,,,,,,,,,,,,,,,,,,0,4,4,2,1,,,,,,,,,,,,,,,,,,,,,,,,,,,,,,,,,,,,,,,,,,,,,,
890563,001,2022-11-20_22h53.15.996,Info_measure_main_exp,2022.2.2,Win32,60.06727535,,,,,,,,,,,,,,,,,,masks/mask_004.jpg,,,,,,,,,,,,,,,,,,,,,,,,,,,,,,,,,,,,,,,,,,,,,,,,0,0,0,3,1,,,,,,,,,,,,,,,,,,,,,,,,,,,,,,,,,,,,,,,,,
890563,001,2022-11-20_22h53.15.996,Info_measure_main_exp,2022.2.2,Win32,60.06727535,,,,,,,,,,,,,,,,,,masks/mask_001.jpg,,,,,,,,,,,,,,,,,,,,,,,,,,,,,,,,,,,,,,,,,,,,,,,,0,1,1,0,1,,,,,,,,,,,,,,,,,,,,,,,,,,,,,,,,,,,,,,,,,
890563,001,2022-11-20_22h53.15.996,Info_measure_main_exp,2022.2.2,Win32,60.06727535,,,,,,,,,,,,,,,,,,masks/mask_005.jpg,,,,,,,,,,,,,,,,,,,,,,,,,,,,,,,,,,,,,,,,,,,,,,,,0,2,2,4,1,,,,,,,,,,,,,,,,,,,,,,,,,,,,,,,,,,,,,,,,,
890563,001,2022-11-20_22h53.15.996,Info_measure_main_exp,2022.2.2,Win32,60.06727535,,,,,,,,,,,,,,,,,,masks/mask_003.jpg,,,,,,,,,,,,,,,,,,,,,,,,,,,,,,,,,,,,,,,,,,,,,,,,0,3,3,2,1,,,,,,,,,,,,,,,,,,,,,,,,,,,,,,,,,,,,,,,,,
890563,001,2022-11-20_22h53.15.996,Info_measure_main_exp,2022.2.2,Win32,60.06727535,,,,,,,,,,,,,,,,,,masks/mask_002.jpg,,,,,,,,,,,,,,,,,,,,,,,,,,,,,,,,,,,,,,,,,,,,,,,,0,4,4,1,1,,,,,,,,,,,,,,,,,,,,,,,,,,,,,,,,,,,,,,,,,
890563,001,2022-11-20_22h53.15.996,Info_measure_main_exp,2022.2.2,Win32,60.06727535,,,,,,,,,,,,,,,,,,,,,,,,,,,,,,5,2.9864,1,,,,,,,,,,,,0,131,5,5,2298,2190,absent_patch/patch0002298.jpg,absent_patch/patch0002190.jpg,,,,,,,,,,,,,,,,,,,,0.103703704,-0.052777778,1,0,0,response3disk,13,-0.003703704,-0.012037037,1,0,0,center_square,0,12,12,20,1,,,,,,,,,,,,,,,,,,,,,,,
890563,001,2022-11-20_22h53.15.996,Info_measure_main_exp,2022.2.2,Win32,60.06727535,,,,,,,,,,,,,,,,,,masks/mask_004.jpg,,,,,,,,,,,,,,,,,,,,,,,,,,,,,,,,,,,,,,,,,,,0,0,0,3,1,,,,,,,,,,,,,,,,,,,,,,,,,,,,,,,,,,,,,,,,,,,,,,
890563,001,2022-11-20_22h53.15.996,Info_measure_main_exp,2022.2.2,Win32,60.06727535,,,,,,,,,,,,,,,,,,masks/mask_001.jpg,,,,,,,,,,,,,,,,,,,,,,,,,,,,,,,,,,,,,,,,,,,0,1,1,0,1,,,,,,,,,,,,,,,,,,,,,,,,,,,,,,,,,,,,,,,,,,,,,,
890563,001,2022-11-20_22h53.15.996,Info_measure_main_exp,2022.2.2,Win32,60.06727535,,,,,,,,,,,,,,,,,,masks/mask_003.jpg,,,,,,,,,,,,,,,,,,,,,,,,,,,,,,,,,,,,,,,,,,,0,2,2,2,1,,,,,,,,,,,,,,,,,,,,,,,,,,,,,,,,,,,,,,,,,,,,,,
890563,001,2022-11-20_22h53.15.996,Info_measure_main_exp,2022.2.2,Win32,60.06727535,,,,,,,,,,,,,,,,,,masks/mask_002.jpg,,,,,,,,,,,,,,,,,,,,,,,,,,,,,,,,,,,,,,,,,,,0,3,3,1,1,,,,,,,,,,,,,,,,,,,,,,,,,,,,,,,,,,,,,,,,,,,,,,
890563,001,2022-11-20_22h53.15.996,Info_measure_main_exp,2022.2.2,Win32,60.06727535,,,,,,,,,,,,,,,,,,masks/mask_005.jpg,,,,,,,,,,,,,,,,,,,,,,,,,,,,,,,,,,,,,,,,,,,0,4,4,4,1,,,,,,,,,,,,,,,,,,,,,,,,,,,,,,,,,,,,,,,,,,,,,,
890563,001,2022-11-20_22h53.15.996,Info_measure_main_exp,2022.2.2,Win32,60.06727535,,,,,,,,,,,,,,,,,,masks/mask_001.jpg,,,,,,,,,,,,,,,,,,,,,,,,,,,,,,,,,,,,,,,,,,,,,,,,0,0,0,0,1,,,,,,,,,,,,,,,,,,,,,,,,,,,,,,,,,,,,,,,,,
890563,001,2022-11-20_22h53.15.996,Info_measure_main_exp,2022.2.2,Win32,60.06727535,,,,,,,,,,,,,,,,,,masks/mask_002.jpg,,,,,,,,,,,,,,,,,,,,,,,,,,,,,,,,,,,,,,,,,,,,,,,,0,1,1,1,1,,,,,,,,,,,,,,,,,,,,,,,,,,,,,,,,,,,,,,,,,
890563,001,2022-11-20_22h53.15.996,Info_measure_main_exp,2022.2.2,Win32,60.06727535,,,,,,,,,,,,,,,,,,masks/mask_005.jpg,,,,,,,,,,,,,,,,,,,,,,,,,,,,,,,,,,,,,,,,,,,,,,,,0,2,2,4,1,,,,,,,,,,,,,,,,,,,,,,,,,,,,,,,,,,,,,,,,,
890563,001,2022-11-20_22h53.15.996,Info_measure_main_exp,2022.2.2,Win32,60.06727535,,,,,,,,,,,,,,,,,,masks/mask_003.jpg,,,,,,,,,,,,,,,,,,,,,,,,,,,,,,,,,,,,,,,,,,,,,,,,0,3,3,2,1,,,,,,,,,,,,,,,,,,,,,,,,,,,,,,,,,,,,,,,,,
890563,001,2022-11-20_22h53.15.996,Info_measure_main_exp,2022.2.2,Win32,60.06727535,,,,,,,,,,,,,,,,,,masks/mask_004.jpg,,,,,,,,,,,,,,,,,,,,,,,,,,,,,,,,,,,,,,,,,,,,,,,,0,4,4,3,1,,,,,,,,,,,,,,,,,,,,,,,,,,,,,,,,,,,,,,,,,
890563,001,2022-11-20_22h53.15.996,Info_measure_main_exp,2022.2.2,Win32,60.06727535,,,,,,,,,,,,,,,,,,,,,,,,,,,,,,5,0.9006,1,,,,,,,,,,,,0,131,5,5,2190,2166,absent_patch/patch0002190.jpg,absent_patch/patch0002166.jpg,,,,,,,,,,,,,,,,,,,,0.12037037,-0.032407407,1,0,0,response3disk,14,-0.013888889,0.012037037,1,0,0,center_square,0,13,13,50,1,,,,,,,,,,,,,,,,,,,,,,,
890563,001,2022-11-20_22h53.15.996,Info_measure_main_exp,2022.2.2,Win32,60.06727535,,,,,,,,,,,,,,,,,,masks/mask_005.jpg,,,,,,,,,,,,,,,,,,,,,,,,,,,,,,,,,,,,,,,,,,,0,0,0,4,1,,,,,,,,,,,,,,,,,,,,,,,,,,,,,,,,,,,,,,,,,,,,,,
890563,001,2022-11-20_22h53.15.996,Info_measure_main_exp,2022.2.2,Win32,60.06727535,,,,,,,,,,,,,,,,,,masks/mask_003.jpg,,,,,,,,,,,,,,,,,,,,,,,,,,,,,,,,,,,,,,,,,,,0,1,1,2,1,,,,,,,,,,,,,,,,,,,,,,,,,,,,,,,,,,,,,,,,,,,,,,
890563,001,2022-11-20_22h53.15.996,Info_measure_main_exp,2022.2.2,Win32,60.06727535,,,,,,,,,,,,,,,,,,masks/mask_004.jpg,,,,,,,,,,,,,,,,,,,,,,,,,,,,,,,,,,,,,,,,,,,0,2,2,3,1,,,,,,,,,,,,,,,,,,,,,,,,,,,,,,,,,,,,,,,,,,,,,,
890563,001,2022-11-20_22h53.15.996,Info_measure_main_exp,2022.2.2,Win32,60.06727535,,,,,,,,,,,,,,,,,,masks/mask_002.jpg,,,,,,,,,,,,,,,,,,,,,,,,,,,,,,,,,,,,,,,,,,,0,3,3,1,1,,,,,,,,,,,,,,,,,,,,,,,,,,,,,,,,,,,,,,,,,,,,,,
890563,001,2022-11-20_22h53.15.996,Info_measure_main_exp,2022.2.2,Win32,60.06727535,,,,,,,,,,,,,,,,,,masks/mask_001.jpg,,,,,,,,,,,,,,,,,,,,,,,,,,,,,,,,,,,,,,,,,,,0,4,4,0,1,,,,,,,,,,,,,,,,,,,,,,,,,,,,,,,,,,,,,,,,,,,,,,
890563,001,2022-11-20_22h53.15.996,Info_measure_main_exp,2022.2.2,Win32,60.06727535,,,,,,,,,,,,,,,,,,masks/mask_002.jpg,,,,,,,,,,,,,,,,,,,,,,,,,,,,,,,,,,,,,,,,,,,,,,,,0,0,0,1,1,,,,,,,,,,,,,,,,,,,,,,,,,,,,,,,,,,,,,,,,,
890563,001,2022-11-20_22h53.15.996,Info_measure_main_exp,2022.2.2,Win32,60.06727535,,,,,,,,,,,,,,,,,,masks/mask_004.jpg,,,,,,,,,,,,,,,,,,,,,,,,,,,,,,,,,,,,,,,,,,,,,,,,0,1,1,3,1,,,,,,,,,,,,,,,,,,,,,,,,,,,,,,,,,,,,,,,,,
890563,001,2022-11-20_22h53.15.996,Info_measure_main_exp,2022.2.2,Win32,60.06727535,,,,,,,,,,,,,,,,,,masks/mask_005.jpg,,,,,,,,,,,,,,,,,,,,,,,,,,,,,,,,,,,,,,,,,,,,,,,,0,2,2,4,1,,,,,,,,,,,,,,,,,,,,,,,,,,,,,,,,,,,,,,,,,
890563,001,2022-11-20_22h53.15.996,Info_measure_main_exp,2022.2.2,Win32,60.06727535,,,,,,,,,,,,,,,,,,masks/mask_001.jpg,,,,,,,,,,,,,,,,,,,,,,,,,,,,,,,,,,,,,,,,,,,,,,,,0,3,3,0,1,,,,,,,,,,,,,,,,,,,,,,,,,,,,,,,,,,,,,,,,,
890563,001,2022-11-20_22h53.15.996,Info_measure_main_exp,2022.2.2,Win32,60.06727535,,,,,,,,,,,,,,,,,,masks/mask_003.jpg,,,,,,,,,,,,,,,,,,,,,,,,,,,,,,,,,,,,,,,,,,,,,,,,0,4,4,2,1,,,,,,,,,,,,,,,,,,,,,,,,,,,,,,,,,,,,,,,,,
890563,001,2022-11-20_22h53.15.996,Info_measure_main_exp,2022.2.2,Win32,60.06727535,,,,,,,,,,,,,,,,,,,,,,,,,,,,,,0,0.8843,1,,,,,,,,,,,,0,131,5,5,1974,1974,absent_patch/patch0001974.jpg,absent_patch/patch0001974.jpg,,,,,,,,,,,,,,,,,,,,-0.042592593,0.110185185,1,0,0,response7disk,15,0.010185185,-0.005555556,1,0,0,center_square,0,14,14,113,1,,,,,,,,,,,,,,,,,,,,,,,
890563,001,2022-11-20_22h53.15.996,Info_measure_main_exp,2022.2.2,Win32,60.06727535,,,,,,,,,,,,,,,,,,masks/mask_002.jpg,,,,,,,,,,,,,,,,,,,,,,,,,,,,,,,,,,,,,,,,,,,0,0,0,1,1,,,,,,,,,,,,,,,,,,,,,,,,,,,,,,,,,,,,,,,,,,,,,,
890563,001,2022-11-20_22h53.15.996,Info_measure_main_exp,2022.2.2,Win32,60.06727535,,,,,,,,,,,,,,,,,,masks/mask_005.jpg,,,,,,,,,,,,,,,,,,,,,,,,,,,,,,,,,,,,,,,,,,,0,1,1,4,1,,,,,,,,,,,,,,,,,,,,,,,,,,,,,,,,,,,,,,,,,,,,,,
890563,001,2022-11-20_22h53.15.996,Info_measure_main_exp,2022.2.2,Win32,60.06727535,,,,,,,,,,,,,,,,,,masks/mask_004.jpg,,,,,,,,,,,,,,,,,,,,,,,,,,,,,,,,,,,,,,,,,,,0,2,2,3,1,,,,,,,,,,,,,,,,,,,,,,,,,,,,,,,,,,,,,,,,,,,,,,
890563,001,2022-11-20_22h53.15.996,Info_measure_main_exp,2022.2.2,Win32,60.06727535,,,,,,,,,,,,,,,,,,masks/mask_001.jpg,,,,,,,,,,,,,,,,,,,,,,,,,,,,,,,,,,,,,,,,,,,0,3,3,0,1,,,,,,,,,,,,,,,,,,,,,,,,,,,,,,,,,,,,,,,,,,,,,,
890563,001,2022-11-20_22h53.15.996,Info_measure_main_exp,2022.2.2,Win32,60.06727535,,,,,,,,,,,,,,,,,,masks/mask_003.jpg,,,,,,,,,,,,,,,,,,,,,,,,,,,,,,,,,,,,,,,,,,,0,4,4,2,1,,,,,,,,,,,,,,,,,,,,,,,,,,,,,,,,,,,,,,,,,,,,,,
890563,001,2022-11-20_22h53.15.996,Info_measure_main_exp,2022.2.2,Win32,60.06727535,,,,,,,,,,,,,,,,,,masks/mask_004.jpg,,,,,,,,,,,,,,,,,,,,,,,,,,,,,,,,,,,,,,,,,,,,,,,,0,0,0,3,1,,,,,,,,,,,,,,,,,,,,,,,,,,,,,,,,,,,,,,,,,
890563,001,2022-11-20_22h53.15.996,Info_measure_main_exp,2022.2.2,Win32,60.06727535,,,,,,,,,,,,,,,,,,masks/mask_001.jpg,,,,,,,,,,,,,,,,,,,,,,,,,,,,,,,,,,,,,,,,,,,,,,,,0,1,1,0,1,,,,,,,,,,,,,,,,,,,,,,,,,,,,,,,,,,,,,,,,,
890563,001,2022-11-20_22h53.15.996,Info_measure_main_exp,2022.2.2,Win32,60.06727535,,,,,,,,,,,,,,,,,,masks/mask_005.jpg,,,,,,,,,,,,,,,,,,,,,,,,,,,,,,,,,,,,,,,,,,,,,,,,0,2,2,4,1,,,,,,,,,,,,,,,,,,,,,,,,,,,,,,,,,,,,,,,,,
890563,001,2022-11-20_22h53.15.996,Info_measure_main_exp,2022.2.2,Win32,60.06727535,,,,,,,,,,,,,,,,,,masks/mask_003.jpg,,,,,,,,,,,,,,,,,,,,,,,,,,,,,,,,,,,,,,,,,,,,,,,,0,3,3,2,1,,,,,,,,,,,,,,,,,,,,,,,,,,,,,,,,,,,,,,,,,
890563,001,2022-11-20_22h53.15.996,Info_measure_main_exp,2022.2.2,Win32,60.06727535,,,,,,,,,,,,,,,,,,masks/mask_002.jpg,,,,,,,,,,,,,,,,,,,,,,,,,,,,,,,,,,,,,,,,,,,,,,,,0,4,4,1,1,,,,,,,,,,,,,,,,,,,,,,,,,,,,,,,,,,,,,,,,,
890563,001,2022-11-20_22h53.15.996,Info_measure_main_exp,2022.2.2,Win32,60.06727535,,,,,,,,,,,,,,,,,,,,,,,,,,,,,,0,0.5671,1,,,,,,,,,,,,0,131,5,5,2166,2166,absent_patch/patch0002166.jpg,absent_patch/patch0002166.jpg,,,,,,,,,,,,,,,,,,,,-0.02962963,0.105555556,1,0,0,response7disk,16,0.000925926,-0.000925926,1,0,0,center_square,0,15,15,42,1,,,,,,,,,,,,,,,,,,,,,,,
890563,001,2022-11-20_22h53.15.996,Info_measure_main_exp,2022.2.2,Win32,60.06727535,,,,,,,,,,,,,,,,,,masks/mask_002.jpg,,,,,,,,,,,,,,,,,,,,,,,,,,,,,,,,,,,,,,,,,,,0,0,0,1,1,,,,,,,,,,,,,,,,,,,,,,,,,,,,,,,,,,,,,,,,,,,,,,
890563,001,2022-11-20_22h53.15.996,Info_measure_main_exp,2022.2.2,Win32,60.06727535,,,,,,,,,,,,,,,,,,masks/mask_005.jpg,,,,,,,,,,,,,,,,,,,,,,,,,,,,,,,,,,,,,,,,,,,0,1,1,4,1,,,,,,,,,,,,,,,,,,,,,,,,,,,,,,,,,,,,,,,,,,,,,,
890563,001,2022-11-20_22h53.15.996,Info_measure_main_exp,2022.2.2,Win32,60.06727535,,,,,,,,,,,,,,,,,,masks/mask_004.jpg,,,,,,,,,,,,,,,,,,,,,,,,,,,,,,,,,,,,,,,,,,,0,2,2,3,1,,,,,,,,,,,,,,,,,,,,,,,,,,,,,,,,,,,,,,,,,,,,,,
890563,001,2022-11-20_22h53.15.996,Info_measure_main_exp,2022.2.2,Win32,60.06727535,,,,,,,,,,,,,,,,,,masks/mask_003.jpg,,,,,,,,,,,,,,,,,,,,,,,,,,,,,,,,,,,,,,,,,,,0,3,3,2,1,,,,,,,,,,,,,,,,,,,,,,,,,,,,,,,,,,,,,,,,,,,,,,
890563,001,2022-11-20_22h53.15.996,Info_measure_main_exp,2022.2.2,Win32,60.06727535,,,,,,,,,,,,,,,,,,masks/mask_001.jpg,,,,,,,,,,,,,,,,,,,,,,,,,,,,,,,,,,,,,,,,,,,0,4,4,0,1,,,,,,,,,,,,,,,,,,,,,,,,,,,,,,,,,,,,,,,,,,,,,,
890563,001,2022-11-20_22h53.15.996,Info_measure_main_exp,2022.2.2,Win32,60.06727535,,,,,,,,,,,,,,,,,,masks/mask_001.jpg,,,,,,,,,,,,,,,,,,,,,,,,,,,,,,,,,,,,,,,,,,,,,,,,0,0,0,0,1,,,,,,,,,,,,,,,,,,,,,,,,,,,,,,,,,,,,,,,,,
890563,001,2022-11-20_22h53.15.996,Info_measure_main_exp,2022.2.2,Win32,60.06727535,,,,,,,,,,,,,,,,,,masks/mask_004.jpg,,,,,,,,,,,,,,,,,,,,,,,,,,,,,,,,,,,,,,,,,,,,,,,,0,1,1,3,1,,,,,,,,,,,,,,,,,,,,,,,,,,,,,,,,,,,,,,,,,
890563,001,2022-11-20_22h53.15.996,Info_measure_main_exp,2022.2.2,Win32,60.06727535,,,,,,,,,,,,,,,,,,masks/mask_005.jpg,,,,,,,,,,,,,,,,,,,,,,,,,,,,,,,,,,,,,,,,,,,,,,,,0,2,2,4,1,,,,,,,,,,,,,,,,,,,,,,,,,,,,,,,,,,,,,,,,,
890563,001,2022-11-20_22h53.15.996,Info_measure_main_exp,2022.2.2,Win32,60.06727535,,,,,,,,,,,,,,,,,,masks/mask_003.jpg,,,,,,,,,,,,,,,,,,,,,,,,,,,,,,,,,,,,,,,,,,,,,,,,0,3,3,2,1,,,,,,,,,,,,,,,,,,,,,,,,,,,,,,,,,,,,,,,,,
890563,001,2022-11-20_22h53.15.996,Info_measure_main_exp,2022.2.2,Win32,60.06727535,,,,,,,,,,,,,,,,,,masks/mask_002.jpg,,,,,,,,,,,,,,,,,,,,,,,,,,,,,,,,,,,,,,,,,,,,,,,,0,4,4,1,1,,,,,,,,,,,,,,,,,,,,,,,,,,,,,,,,,,,,,,,,,
890563,001,2022-11-20_22h53.15.996,Info_measure_main_exp,2022.2.2,Win32,60.06727535,,,,,,,,,,,,,,,,,,,,,,,,,,,,,,6,1.1677,1,,,,,,,,,,,,0,131,5,5,2298,2214,absent_patch/patch0002298.jpg,absent_patch/patch0002214.jpg,,,,,,,,,,,,,,,,,,,,0.09537037,0.017592593,1,0,0,response1disk,17,0.008333333,-0.013888889,1,0,0,center_square,0,16,16,99,1,,,,,,,,,,,,,,,,,,,,,,,
890563,001,2022-11-20_22h53.15.996,Info_measure_main_exp,2022.2.2,Win32,60.06727535,,,,,,,,,,,,,,,,,,masks/mask_005.jpg,,,,,,,,,,,,,,,,,,,,,,,,,,,,,,,,,,,,,,,,,,,0,0,0,4,1,,,,,,,,,,,,,,,,,,,,,,,,,,,,,,,,,,,,,,,,,,,,,,
890563,001,2022-11-20_22h53.15.996,Info_measure_main_exp,2022.2.2,Win32,60.06727535,,,,,,,,,,,,,,,,,,masks/mask_003.jpg,,,,,,,,,,,,,,,,,,,,,,,,,,,,,,,,,,,,,,,,,,,0,1,1,2,1,,,,,,,,,,,,,,,,,,,,,,,,,,,,,,,,,,,,,,,,,,,,,,
890563,001,2022-11-20_22h53.15.996,Info_measure_main_exp,2022.2.2,Win32,60.06727535,,,,,,,,,,,,,,,,,,masks/mask_004.jpg,,,,,,,,,,,,,,,,,,,,,,,,,,,,,,,,,,,,,,,,,,,0,2,2,3,1,,,,,,,,,,,,,,,,,,,,,,,,,,,,,,,,,,,,,,,,,,,,,,
890563,001,2022-11-20_22h53.15.996,Info_measure_main_exp,2022.2.2,Win32,60.06727535,,,,,,,,,,,,,,,,,,masks/mask_002.jpg,,,,,,,,,,,,,,,,,,,,,,,,,,,,,,,,,,,,,,,,,,,0,3,3,1,1,,,,,,,,,,,,,,,,,,,,,,,,,,,,,,,,,,,,,,,,,,,,,,
890563,001,2022-11-20_22h53.15.996,Info_measure_main_exp,2022.2.2,Win32,60.06727535,,,,,,,,,,,,,,,,,,masks/mask_001.jpg,,,,,,,,,,,,,,,,,,,,,,,,,,,,,,,,,,,,,,,,,,,0,4,4,0,1,,,,,,,,,,,,,,,,,,,,,,,,,,,,,,,,,,,,,,,,,,,,,,
890563,001,2022-11-20_22h53.15.996,Info_measure_main_exp,2022.2.2,Win32,60.06727535,,,,,,,,,,,,,,,,,,masks/mask_005.jpg,,,,,,,,,,,,,,,,,,,,,,,,,,,,,,,,,,,,,,,,,,,,,,,,0,0,0,4,1,,,,,,,,,,,,,,,,,,,,,,,,,,,,,,,,,,,,,,,,,
890563,001,2022-11-20_22h53.15.996,Info_measure_main_exp,2022.2.2,Win32,60.06727535,,,,,,,,,,,,,,,,,,masks/mask_002.jpg,,,,,,,,,,,,,,,,,,,,,,,,,,,,,,,,,,,,,,,,,,,,,,,,0,1,1,1,1,,,,,,,,,,,,,,,,,,,,,,,,,,,,,,,,,,,,,,,,,
890563,001,2022-11-20_22h53.15.996,Info_measure_main_exp,2022.2.2,Win32,60.06727535,,,,,,,,,,,,,,,,,,masks/mask_003.jpg,,,,,,,,,,,,,,,,,,,,,,,,,,,,,,,,,,,,,,,,,,,,,,,,0,2,2,2,1,,,,,,,,,,,,,,,,,,,,,,,,,,,,,,,,,,,,,,,,,
890563,001,2022-11-20_22h53.15.996,Info_measure_main_exp,2022.2.2,Win32,60.06727535,,,,,,,,,,,,,,,,,,masks/mask_004.jpg,,,,,,,,,,,,,,,,,,,,,,,,,,,,,,,,,,,,,,,,,,,,,,,,0,3,3,3,1,,,,,,,,,,,,,,,,,,,,,,,,,,,,,,,,,,,,,,,,,
890563,001,2022-11-20_22h53.15.996,Info_measure_main_exp,2022.2.2,Win32,60.06727535,,,,,,,,,,,,,,,,,,masks/mask_001.jpg,,,,,,,,,,,,,,,,,,,,,,,,,,,,,,,,,,,,,,,,,,,,,,,,0,4,4,0,1,,,,,,,,,,,,,,,,,,,,,,,,,,,,,,,,,,,,,,,,,
890563,001,2022-11-20_22h53.15.996,Info_measure_main_exp,2022.2.2,Win32,60.06727535,,,,,,,,,,,,,,,,,,,,,,,,,,,,,,4,1.3178,1,,,,,,,,,,,,0,131,5,5,2190,2178,absent_patch/patch0002190.jpg,absent_patch/patch0002178.jpg,,,,,,,,,,,,,,,,,,,,0.026851852,-0.099074074,1,0,0,response3disk,18,-0.005555556,0.008333333,1,0,0,center_square,0,17,17,14,1,,,,,,,,,,,,,,,,,,,,,,,
890563,001,2022-11-20_22h53.15.996,Info_measure_main_exp,2022.2.2,Win32,60.06727535,,,,,,,,,,,,,,,,,,masks/mask_002.jpg,,,,,,,,,,,,,,,,,,,,,,,,,,,,,,,,,,,,,,,,,,,0,0,0,1,1,,,,,,,,,,,,,,,,,,,,,,,,,,,,,,,,,,,,,,,,,,,,,,
890563,001,2022-11-20_22h53.15.996,Info_measure_main_exp,2022.2.2,Win32,60.06727535,,,,,,,,,,,,,,,,,,masks/mask_003.jpg,,,,,,,,,,,,,,,,,,,,,,,,,,,,,,,,,,,,,,,,,,,0,1,1,2,1,,,,,,,,,,,,,,,,,,,,,,,,,,,,,,,,,,,,,,,,,,,,,,
890563,001,2022-11-20_22h53.15.996,Info_measure_main_exp,2022.2.2,Win32,60.06727535,,,,,,,,,,,,,,,,,,masks/mask_004.jpg,,,,,,,,,,,,,,,,,,,,,,,,,,,,,,,,,,,,,,,,,,,0,2,2,3,1,,,,,,,,,,,,,,,,,,,,,,,,,,,,,,,,,,,,,,,,,,,,,,
890563,001,2022-11-20_22h53.15.996,Info_measure_main_exp,2022.2.2,Win32,60.06727535,,,,,,,,,,,,,,,,,,masks/mask_001.jpg,,,,,,,,,,,,,,,,,,,,,,,,,,,,,,,,,,,,,,,,,,,0,3,3,0,1,,,,,,,,,,,,,,,,,,,,,,,,,,,,,,,,,,,,,,,,,,,,,,
890563,001,2022-11-20_22h53.15.996,Info_measure_main_exp,2022.2.2,Win32,60.06727535,,,,,,,,,,,,,,,,,,masks/mask_005.jpg,,,,,,,,,,,,,,,,,,,,,,,,,,,,,,,,,,,,,,,,,,,0,4,4,4,1,,,,,,,,,,,,,,,,,,,,,,,,,,,,,,,,,,,,,,,,,,,,,,
890563,001,2022-11-20_22h53.15.996,Info_measure_main_exp,2022.2.2,Win32,60.06727535,,,,,,,,,,,,,,,,,,masks/mask_003.jpg,,,,,,,,,,,,,,,,,,,,,,,,,,,,,,,,,,,,,,,,,,,,,,,,0,0,0,2,1,,,,,,,,,,,,,,,,,,,,,,,,,,,,,,,,,,,,,,,,,
890563,001,2022-11-20_22h53.15.996,Info_measure_main_exp,2022.2.2,Win32,60.06727535,,,,,,,,,,,,,,,,,,masks/mask_005.jpg,,,,,,,,,,,,,,,,,,,,,,,,,,,,,,,,,,,,,,,,,,,,,,,,0,1,1,4,1,,,,,,,,,,,,,,,,,,,,,,,,,,,,,,,,,,,,,,,,,
890563,001,2022-11-20_22h53.15.996,Info_measure_main_exp,2022.2.2,Win32,60.06727535,,,,,,,,,,,,,,,,,,masks/mask_002.jpg,,,,,,,,,,,,,,,,,,,,,,,,,,,,,,,,,,,,,,,,,,,,,,,,0,2,2,1,1,,,,,,,,,,,,,,,,,,,,,,,,,,,,,,,,,,,,,,,,,
890563,001,2022-11-20_22h53.15.996,Info_measure_main_exp,2022.2.2,Win32,60.06727535,,,,,,,,,,,,,,,,,,masks/mask_004.jpg,,,,,,,,,,,,,,,,,,,,,,,,,,,,,,,,,,,,,,,,,,,,,,,,0,3,3,3,1,,,,,,,,,,,,,,,,,,,,,,,,,,,,,,,,,,,,,,,,,
890563,001,2022-11-20_22h53.15.996,Info_measure_main_exp,2022.2.2,Win32,60.06727535,,,,,,,,,,,,,,,,,,masks/mask_001.jpg,,,,,,,,,,,,,,,,,,,,,,,,,,,,,,,,,,,,,,,,,,,,,,,,0,4,4,0,1,,,,,,,,,,,,,,,,,,,,,,,,,,,,,,,,,,,,,,,,,
890563,001,2022-11-20_22h53.15.996,Info_measure_main_exp,2022.2.2,Win32,60.06727535,,,,,,,,,,,,,,,,,,,,,,,,,,,,,,2,1.218,1,,,,,,,,,,,,1,131,5,5,1,1986,present_patch/cong_131_5_a.jpg,absent_patch/patch0001986.jpg,,,,,,,,,,,,,,,,,,,,-0.124074074,-0.07962963,1,0,0,response5disk,19,-0.009259259,0.007407407,1,0,0,center_square,0,18,18,106,1,,,,,,,,,,,,,,,,,,,,,,,
890563,001,2022-11-20_22h53.15.996,Info_measure_main_exp,2022.2.2,Win32,60.06727535,,,,,,,,,,,,,,,,,,masks/mask_005.jpg,,,,,,,,,,,,,,,,,,,,,,,,,,,,,,,,,,,,,,,,,,,0,0,0,4,1,,,,,,,,,,,,,,,,,,,,,,,,,,,,,,,,,,,,,,,,,,,,,,
890563,001,2022-11-20_22h53.15.996,Info_measure_main_exp,2022.2.2,Win32,60.06727535,,,,,,,,,,,,,,,,,,masks/mask_004.jpg,,,,,,,,,,,,,,,,,,,,,,,,,,,,,,,,,,,,,,,,,,,0,1,1,3,1,,,,,,,,,,,,,,,,,,,,,,,,,,,,,,,,,,,,,,,,,,,,,,
890563,001,2022-11-20_22h53.15.996,Info_measure_main_exp,2022.2.2,Win32,60.06727535,,,,,,,,,,,,,,,,,,masks/mask_001.jpg,,,,,,,,,,,,,,,,,,,,,,,,,,,,,,,,,,,,,,,,,,,0,2,2,0,1,,,,,,,,,,,,,,,,,,,,,,,,,,,,,,,,,,,,,,,,,,,,,,
890563,001,2022-11-20_22h53.15.996,Info_measure_main_exp,2022.2.2,Win32,60.06727535,,,,,,,,,,,,,,,,,,masks/mask_003.jpg,,,,,,,,,,,,,,,,,,,,,,,,,,,,,,,,,,,,,,,,,,,0,3,3,2,1,,,,,,,,,,,,,,,,,,,,,,,,,,,,,,,,,,,,,,,,,,,,,,
890563,001,2022-11-20_22h53.15.996,Info_measure_main_exp,2022.2.2,Win32,60.06727535,,,,,,,,,,,,,,,,,,masks/mask_002.jpg,,,,,,,,,,,,,,,,,,,,,,,,,,,,,,,,,,,,,,,,,,,0,4,4,1,1,,,,,,,,,,,,,,,,,,,,,,,,,,,,,,,,,,,,,,,,,,,,,,
890563,001,2022-11-20_22h53.15.996,Info_measure_main_exp,2022.2.2,Win32,60.06727535,,,,,,,,,,,,,,,,,,masks/mask_003.jpg,,,,,,,,,,,,,,,,,,,,,,,,,,,,,,,,,,,,,,,,,,,,,,,,0,0,0,2,1,,,,,,,,,,,,,,,,,,,,,,,,,,,,,,,,,,,,,,,,,
890563,001,2022-11-20_22h53.15.996,Info_measure_main_exp,2022.2.2,Win32,60.06727535,,,,,,,,,,,,,,,,,,masks/mask_004.jpg,,,,,,,,,,,,,,,,,,,,,,,,,,,,,,,,,,,,,,,,,,,,,,,,0,1,1,3,1,,,,,,,,,,,,,,,,,,,,,,,,,,,,,,,,,,,,,,,,,
890563,001,2022-11-20_22h53.15.996,Info_measure_main_exp,2022.2.2,Win32,60.06727535,,,,,,,,,,,,,,,,,,masks/mask_002.jpg,,,,,,,,,,,,,,,,,,,,,,,,,,,,,,,,,,,,,,,,,,,,,,,,0,2,2,1,1,,,,,,,,,,,,,,,,,,,,,,,,,,,,,,,,,,,,,,,,,
890563,001,2022-11-20_22h53.15.996,Info_measure_main_exp,2022.2.2,Win32,60.06727535,,,,,,,,,,,,,,,,,,masks/mask_005.jpg,,,,,,,,,,,,,,,,,,,,,,,,,,,,,,,,,,,,,,,,,,,,,,,,0,3,3,4,1,,,,,,,,,,,,,,,,,,,,,,,,,,,,,,,,,,,,,,,,,
890563,001,2022-11-20_22h53.15.996,Info_measure_main_exp,2022.2.2,Win32,60.06727535,,,,,,,,,,,,,,,,,,masks/mask_001.jpg,,,,,,,,,,,,,,,,,,,,,,,,,,,,,,,,,,,,,,,,,,,,,,,,0,4,4,0,1,,,,,,,,,,,,,,,,,,,,,,,,,,,,,,,,,,,,,,,,,
890563,001,2022-11-20_22h53.15.996,Info_measure_main_exp,2022.2.2,Win32,60.06727535,,,,,,,,,,,,,,,,,,,,,,,,,,,,,,6,0.6341,1,,,,,,,,,,,,0,131,5,5,2082,2250,absent_patch/patch0002082.jpg,absent_patch/patch0002250.jpg,,,,,,,,,,,,,,,,,,,,0.169444444,0.032407407,1,0,0,response1disk,20,-0.003703704,0,1,0,0,center_square,0,19,19,3,1,,,,,,,,,,,,,,,,,,,,,,,
890563,001,2022-11-20_22h53.15.996,Info_measure_main_exp,2022.2.2,Win32,60.06727535,,,,,,,,,,,,,,,,,,masks/mask_002.jpg,,,,,,,,,,,,,,,,,,,,,,,,,,,,,,,,,,,,,,,,,,,0,0,0,1,1,,,,,,,,,,,,,,,,,,,,,,,,,,,,,,,,,,,,,,,,,,,,,,
890563,001,2022-11-20_22h53.15.996,Info_measure_main_exp,2022.2.2,Win32,60.06727535,,,,,,,,,,,,,,,,,,masks/mask_003.jpg,,,,,,,,,,,,,,,,,,,,,,,,,,,,,,,,,,,,,,,,,,,0,1,1,2,1,,,,,,,,,,,,,,,,,,,,,,,,,,,,,,,,,,,,,,,,,,,,,,
890563,001,2022-11-20_22h53.15.996,Info_measure_main_exp,2022.2.2,Win32,60.06727535,,,,,,,,,,,,,,,,,,masks/mask_001.jpg,,,,,,,,,,,,,,,,,,,,,,,,,,,,,,,,,,,,,,,,,,,0,2,2,0,1,,,,,,,,,,,,,,,,,,,,,,,,,,,,,,,,,,,,,,,,,,,,,,
890563,001,2022-11-20_22h53.15.996,Info_measure_main_exp,2022.2.2,Win32,60.06727535,,,,,,,,,,,,,,,,,,masks/mask_004.jpg,,,,,,,,,,,,,,,,,,,,,,,,,,,,,,,,,,,,,,,,,,,0,3,3,3,1,,,,,,,,,,,,,,,,,,,,,,,,,,,,,,,,,,,,,,,,,,,,,,
890563,001,2022-11-20_22h53.15.996,Info_measure_main_exp,2022.2.2,Win32,60.06727535,,,,,,,,,,,,,,,,,,masks/mask_005.jpg,,,,,,,,,,,,,,,,,,,,,,,,,,,,,,,,,,,,,,,,,,,0,4,4,4,1,,,,,,,,,,,,,,,,,,,,,,,,,,,,,,,,,,,,,,,,,,,,,,
890563,001,2022-11-20_22h53.15.996,Info_measure_main_exp,2022.2.2,Win32,60.06727535,,,,,,,,,,,,,,,,,,masks/mask_001.jpg,,,,,,,,,,,,,,,,,,,,,,,,,,,,,,,,,,,,,,,,,,,,,,,,0,0,0,0,1,,,,,,,,,,,,,,,,,,,,,,,,,,,,,,,,,,,,,,,,,
890563,001,2022-11-20_22h53.15.996,Info_measure_main_exp,2022.2.2,Win32,60.06727535,,,,,,,,,,,,,,,,,,masks/mask_005.jpg,,,,,,,,,,,,,,,,,,,,,,,,,,,,,,,,,,,,,,,,,,,,,,,,0,1,1,4,1,,,,,,,,,,,,,,,,,,,,,,,,,,,,,,,,,,,,,,,,,
890563,001,2022-11-20_22h53.15.996,Info_measure_main_exp,2022.2.2,Win32,60.06727535,,,,,,,,,,,,,,,,,,masks/mask_002.jpg,,,,,,,,,,,,,,,,,,,,,,,,,,,,,,,,,,,,,,,,,,,,,,,,0,2,2,1,1,,,,,,,,,,,,,,,,,,,,,,,,,,,,,,,,,,,,,,,,,
890563,001,2022-11-20_22h53.15.996,Info_measure_main_exp,2022.2.2,Win32,60.06727535,,,,,,,,,,,,,,,,,,masks/mask_004.jpg,,,,,,,,,,,,,,,,,,,,,,,,,,,,,,,,,,,,,,,,,,,,,,,,0,3,3,3,1,,,,,,,,,,,,,,,,,,,,,,,,,,,,,,,,,,,,,,,,,
890563,001,2022-11-20_22h53.15.996,Info_measure_main_exp,2022.2.2,Win32,60.06727535,,,,,,,,,,,,,,,,,,masks/mask_003.jpg,,,,,,,,,,,,,,,,,,,,,,,,,,,,,,,,,,,,,,,,,,,,,,,,0,4,4,2,1,,,,,,,,,,,,,,,,,,,,,,,,,,,,,,,,,,,,,,,,,
890563,001,2022-11-20_22h53.15.996,Info_measure_main_exp,2022.2.2,Win32,60.06727535,,,,,,,,,,,,,,,,,,,,,,,,,,,,,,5,0.9666,1,,,,,,,,,,,,0,131,5,5,1950,2214,absent_patch/patch0001950.jpg,absent_patch/patch0002214.jpg,,,,,,,,,,,,,,,,,,,,0.112037037,-0.067592593,1,0,0,response3disk,21,-0.006481481,0.006481481,1,0,0,center_square,0,20,20,85,1,,,,,,,,,,,,,,,,,,,,,,,
890563,001,2022-11-20_22h53.15.996,Info_measure_main_exp,2022.2.2,Win32,60.06727535,,,,,,,,,,,,,,,,,,masks/mask_004.jpg,,,,,,,,,,,,,,,,,,,,,,,,,,,,,,,,,,,,,,,,,,,0,0,0,3,1,,,,,,,,,,,,,,,,,,,,,,,,,,,,,,,,,,,,,,,,,,,,,,
890563,001,2022-11-20_22h53.15.996,Info_measure_main_exp,2022.2.2,Win32,60.06727535,,,,,,,,,,,,,,,,,,masks/mask_001.jpg,,,,,,,,,,,,,,,,,,,,,,,,,,,,,,,,,,,,,,,,,,,0,1,1,0,1,,,,,,,,,,,,,,,,,,,,,,,,,,,,,,,,,,,,,,,,,,,,,,
890563,001,2022-11-20_22h53.15.996,Info_measure_main_exp,2022.2.2,Win32,60.06727535,,,,,,,,,,,,,,,,,,masks/mask_005.jpg,,,,,,,,,,,,,,,,,,,,,,,,,,,,,,,,,,,,,,,,,,,0,2,2,4,1,,,,,,,,,,,,,,,,,,,,,,,,,,,,,,,,,,,,,,,,,,,,,,
890563,001,2022-11-20_22h53.15.996,Info_measure_main_exp,2022.2.2,Win32,60.06727535,,,,,,,,,,,,,,,,,,masks/mask_002.jpg,,,,,,,,,,,,,,,,,,,,,,,,,,,,,,,,,,,,,,,,,,,0,3,3,1,1,,,,,,,,,,,,,,,,,,,,,,,,,,,,,,,,,,,,,,,,,,,,,,
890563,001,2022-11-20_22h53.15.996,Info_measure_main_exp,2022.2.2,Win32,60.06727535,,,,,,,,,,,,,,,,,,masks/mask_003.jpg,,,,,,,,,,,,,,,,,,,,,,,,,,,,,,,,,,,,,,,,,,,0,4,4,2,1,,,,,,,,,,,,,,,,,,,,,,,,,,,,,,,,,,,,,,,,,,,,,,
890563,001,2022-11-20_22h53.15.996,Info_measure_main_exp,2022.2.2,Win32,60.06727535,,,,,,,,,,,,,,,,,,masks/mask_005.jpg,,,,,,,,,,,,,,,,,,,,,,,,,,,,,,,,,,,,,,,,,,,,,,,,0,0,0,4,1,,,,,,,,,,,,,,,,,,,,,,,,,,,,,,,,,,,,,,,,,
890563,001,2022-11-20_22h53.15.996,Info_measure_main_exp,2022.2.2,Win32,60.06727535,,,,,,,,,,,,,,,,,,masks/mask_004.jpg,,,,,,,,,,,,,,,,,,,,,,,,,,,,,,,,,,,,,,,,,,,,,,,,0,1,1,3,1,,,,,,,,,,,,,,,,,,,,,,,,,,,,,,,,,,,,,,,,,
890563,001,2022-11-20_22h53.15.996,Info_measure_main_exp,2022.2.2,Win32,60.06727535,,,,,,,,,,,,,,,,,,masks/mask_002.jpg,,,,,,,,,,,,,,,,,,,,,,,,,,,,,,,,,,,,,,,,,,,,,,,,0,2,2,1,1,,,,,,,,,,,,,,,,,,,,,,,,,,,,,,,,,,,,,,,,,
890563,001,2022-11-20_22h53.15.996,Info_measure_main_exp,2022.2.2,Win32,60.06727535,,,,,,,,,,,,,,,,,,masks/mask_001.jpg,,,,,,,,,,,,,,,,,,,,,,,,,,,,,,,,,,,,,,,,,,,,,,,,0,3,3,0,1,,,,,,,,,,,,,,,,,,,,,,,,,,,,,,,,,,,,,,,,,
890563,001,2022-11-20_22h53.15.996,Info_measure_main_exp,2022.2.2,Win32,60.06727535,,,,,,,,,,,,,,,,,,masks/mask_003.jpg,,,,,,,,,,,,,,,,,,,,,,,,,,,,,,,,,,,,,,,,,,,,,,,,0,4,4,2,1,,,,,,,,,,,,,,,,,,,,,,,,,,,,,,,,,,,,,,,,,
890563,001,2022-11-20_22h53.15.996,Info_measure_main_exp,2022.2.2,Win32,60.06727535,,,,,,,,,,,,,,,,,,,,,,,,,,,,,,5,0.8173,1,,,,,,,,,,,,0,131,5,5,1950,2082,absent_patch/patch0001950.jpg,absent_patch/patch0002082.jpg,,,,,,,,,,,,,,,,,,,,0.087962963,-0.05,1,0,0,response3disk,22,-0.005555556,-0.001851852,1,0,0,center_square,0,21,21,12,1,,,,,,,,,,,,,,,,,,,,,,,
890563,001,2022-11-20_22h53.15.996,Info_measure_main_exp,2022.2.2,Win32,60.06727535,,,,,,,,,,,,,,,,,,masks/mask_002.jpg,,,,,,,,,,,,,,,,,,,,,,,,,,,,,,,,,,,,,,,,,,,0,0,0,1,1,,,,,,,,,,,,,,,,,,,,,,,,,,,,,,,,,,,,,,,,,,,,,,
890563,001,2022-11-20_22h53.15.996,Info_measure_main_exp,2022.2.2,Win32,60.06727535,,,,,,,,,,,,,,,,,,masks/mask_004.jpg,,,,,,,,,,,,,,,,,,,,,,,,,,,,,,,,,,,,,,,,,,,0,1,1,3,1,,,,,,,,,,,,,,,,,,,,,,,,,,,,,,,,,,,,,,,,,,,,,,
890563,001,2022-11-20_22h53.15.996,Info_measure_main_exp,2022.2.2,Win32,60.06727535,,,,,,,,,,,,,,,,,,masks/mask_001.jpg,,,,,,,,,,,,,,,,,,,,,,,,,,,,,,,,,,,,,,,,,,,0,2,2,0,1,,,,,,,,,,,,,,,,,,,,,,,,,,,,,,,,,,,,,,,,,,,,,,
890563,001,2022-11-20_22h53.15.996,Info_measure_main_exp,2022.2.2,Win32,60.06727535,,,,,,,,,,,,,,,,,,masks/mask_003.jpg,,,,,,,,,,,,,,,,,,,,,,,,,,,,,,,,,,,,,,,,,,,0,3,3,2,1,,,,,,,,,,,,,,,,,,,,,,,,,,,,,,,,,,,,,,,,,,,,,,
890563,001,2022-11-20_22h53.15.996,Info_measure_main_exp,2022.2.2,Win32,60.06727535,,,,,,,,,,,,,,,,,,masks/mask_005.jpg,,,,,,,,,,,,,,,,,,,,,,,,,,,,,,,,,,,,,,,,,,,0,4,4,4,1,,,,,,,,,,,,,,,,,,,,,,,,,,,,,,,,,,,,,,,,,,,,,,
890563,001,2022-11-20_22h53.15.996,Info_measure_main_exp,2022.2.2,Win32,60.06727535,,,,,,,,,,,,,,,,,,masks/mask_002.jpg,,,,,,,,,,,,,,,,,,,,,,,,,,,,,,,,,,,,,,,,,,,,,,,,0,0,0,1,1,,,,,,,,,,,,,,,,,,,,,,,,,,,,,,,,,,,,,,,,,
890563,001,2022-11-20_22h53.15.996,Info_measure_main_exp,2022.2.2,Win32,60.06727535,,,,,,,,,,,,,,,,,,masks/mask_005.jpg,,,,,,,,,,,,,,,,,,,,,,,,,,,,,,,,,,,,,,,,,,,,,,,,0,1,1,4,1,,,,,,,,,,,,,,,,,,,,,,,,,,,,,,,,,,,,,,,,,
890563,001,2022-11-20_22h53.15.996,Info_measure_main_exp,2022.2.2,Win32,60.06727535,,,,,,,,,,,,,,,,,,masks/mask_004.jpg,,,,,,,,,,,,,,,,,,,,,,,,,,,,,,,,,,,,,,,,,,,,,,,,0,2,2,3,1,,,,,,,,,,,,,,,,,,,,,,,,,,,,,,,,,,,,,,,,,
890563,001,2022-11-20_22h53.15.996,Info_measure_main_exp,2022.2.2,Win32,60.06727535,,,,,,,,,,,,,,,,,,masks/mask_003.jpg,,,,,,,,,,,,,,,,,,,,,,,,,,,,,,,,,,,,,,,,,,,,,,,,0,3,3,2,1,,,,,,,,,,,,,,,,,,,,,,,,,,,,,,,,,,,,,,,,,
890563,001,2022-11-20_22h53.15.996,Info_measure_main_exp,2022.2.2,Win32,60.06727535,,,,,,,,,,,,,,,,,,masks/mask_001.jpg,,,,,,,,,,,,,,,,,,,,,,,,,,,,,,,,,,,,,,,,,,,,,,,,0,4,4,0,1,,,,,,,,,,,,,,,,,,,,,,,,,,,,,,,,,,,,,,,,,
890563,001,2022-11-20_22h53.15.996,Info_measure_main_exp,2022.2.2,Win32,60.06727535,,,,,,,,,,,,,,,,,,,,,,,,,,,,,,5,0.9013,1,,,,,,,,,,,,0,131,5,5,2250,1950,absent_patch/patch0002250.jpg,absent_patch/patch0001950.jpg,,,,,,,,,,,,,,,,,,,,0.09537037,-0.059259259,1,0,0,response3disk,23,-0.000925926,-0.007407407,1,0,0,center_square,0,22,22,16,1,,,,,,,,,,,,,,,,,,,,,,,
890563,001,2022-11-20_22h53.15.996,Info_measure_main_exp,2022.2.2,Win32,60.06727535,,,,,,,,,,,,,,,,,,masks/mask_001.jpg,,,,,,,,,,,,,,,,,,,,,,,,,,,,,,,,,,,,,,,,,,,0,0,0,0,1,,,,,,,,,,,,,,,,,,,,,,,,,,,,,,,,,,,,,,,,,,,,,,
890563,001,2022-11-20_22h53.15.996,Info_measure_main_exp,2022.2.2,Win32,60.06727535,,,,,,,,,,,,,,,,,,masks/mask_003.jpg,,,,,,,,,,,,,,,,,,,,,,,,,,,,,,,,,,,,,,,,,,,0,1,1,2,1,,,,,,,,,,,,,,,,,,,,,,,,,,,,,,,,,,,,,,,,,,,,,,
890563,001,2022-11-20_22h53.15.996,Info_measure_main_exp,2022.2.2,Win32,60.06727535,,,,,,,,,,,,,,,,,,masks/mask_002.jpg,,,,,,,,,,,,,,,,,,,,,,,,,,,,,,,,,,,,,,,,,,,0,2,2,1,1,,,,,,,,,,,,,,,,,,,,,,,,,,,,,,,,,,,,,,,,,,,,,,
890563,001,2022-11-20_22h53.15.996,Info_measure_main_exp,2022.2.2,Win32,60.06727535,,,,,,,,,,,,,,,,,,masks/mask_005.jpg,,,,,,,,,,,,,,,,,,,,,,,,,,,,,,,,,,,,,,,,,,,0,3,3,4,1,,,,,,,,,,,,,,,,,,,,,,,,,,,,,,,,,,,,,,,,,,,,,,
890563,001,2022-11-20_22h53.15.996,Info_measure_main_exp,2022.2.2,Win32,60.06727535,,,,,,,,,,,,,,,,,,masks/mask_004.jpg,,,,,,,,,,,,,,,,,,,,,,,,,,,,,,,,,,,,,,,,,,,0,4,4,3,1,,,,,,,,,,,,,,,,,,,,,,,,,,,,,,,,,,,,,,,,,,,,,,
890563,001,2022-11-20_22h53.15.996,Info_measure_main_exp,2022.2.2,Win32,60.06727535,,,,,,,,,,,,,,,,,,masks/mask_005.jpg,,,,,,,,,,,,,,,,,,,,,,,,,,,,,,,,,,,,,,,,,,,,,,,,0,0,0,4,1,,,,,,,,,,,,,,,,,,,,,,,,,,,,,,,,,,,,,,,,,
890563,001,2022-11-20_22h53.15.996,Info_measure_main_exp,2022.2.2,Win32,60.06727535,,,,,,,,,,,,,,,,,,masks/mask_001.jpg,,,,,,,,,,,,,,,,,,,,,,,,,,,,,,,,,,,,,,,,,,,,,,,,0,1,1,0,1,,,,,,,,,,,,,,,,,,,,,,,,,,,,,,,,,,,,,,,,,
890563,001,2022-11-20_22h53.15.996,Info_measure_main_exp,2022.2.2,Win32,60.06727535,,,,,,,,,,,,,,,,,,masks/mask_002.jpg,,,,,,,,,,,,,,,,,,,,,,,,,,,,,,,,,,,,,,,,,,,,,,,,0,2,2,1,1,,,,,,,,,,,,,,,,,,,,,,,,,,,,,,,,,,,,,,,,,
890563,001,2022-11-20_22h53.15.996,Info_measure_main_exp,2022.2.2,Win32,60.06727535,,,,,,,,,,,,,,,,,,masks/mask_004.jpg,,,,,,,,,,,,,,,,,,,,,,,,,,,,,,,,,,,,,,,,,,,,,,,,0,3,3,3,1,,,,,,,,,,,,,,,,,,,,,,,,,,,,,,,,,,,,,,,,,
890563,001,2022-11-20_22h53.15.996,Info_measure_main_exp,2022.2.2,Win32,60.06727535,,,,,,,,,,,,,,,,,,masks/mask_003.jpg,,,,,,,,,,,,,,,,,,,,,,,,,,,,,,,,,,,,,,,,,,,,,,,,0,4,4,2,1,,,,,,,,,,,,,,,,,,,,,,,,,,,,,,,,,,,,,,,,,
890563,001,2022-11-20_22h53.15.996,Info_measure_main_exp,2022.2.2,Win32,60.06727535,,,,,,,,,,,,,,,,,,,,,,,,,,,,,,3,1.0345,1,,,,,,,,,,,,0,131,5,5,2214,2166,absent_patch/patch0002214.jpg,absent_patch/patch0002166.jpg,,,,,,,,,,,,,,,,,,,,-0.049074074,-0.123148148,1,0,0,response5disk,24,-0.003703704,0.003703704,1,0,0,center_square,0,23,23,109,1,,,,,,,,,,,,,,,,,,,,,,,
890563,001,2022-11-20_22h53.15.996,Info_measure_main_exp,2022.2.2,Win32,60.06727535,,,,,,,,,,,,,,,,,,masks/mask_003.jpg,,,,,,,,,,,,,,,,,,,,,,,,,,,,,,,,,,,,,,,,,,,0,0,0,2,1,,,,,,,,,,,,,,,,,,,,,,,,,,,,,,,,,,,,,,,,,,,,,,
890563,001,2022-11-20_22h53.15.996,Info_measure_main_exp,2022.2.2,Win32,60.06727535,,,,,,,,,,,,,,,,,,masks/mask_002.jpg,,,,,,,,,,,,,,,,,,,,,,,,,,,,,,,,,,,,,,,,,,,0,1,1,1,1,,,,,,,,,,,,,,,,,,,,,,,,,,,,,,,,,,,,,,,,,,,,,,
890563,001,2022-11-20_22h53.15.996,Info_measure_main_exp,2022.2.2,Win32,60.06727535,,,,,,,,,,,,,,,,,,masks/mask_001.jpg,,,,,,,,,,,,,,,,,,,,,,,,,,,,,,,,,,,,,,,,,,,0,2,2,0,1,,,,,,,,,,,,,,,,,,,,,,,,,,,,,,,,,,,,,,,,,,,,,,
890563,001,2022-11-20_22h53.15.996,Info_measure_main_exp,2022.2.2,Win32,60.06727535,,,,,,,,,,,,,,,,,,masks/mask_005.jpg,,,,,,,,,,,,,,,,,,,,,,,,,,,,,,,,,,,,,,,,,,,0,3,3,4,1,,,,,,,,,,,,,,,,,,,,,,,,,,,,,,,,,,,,,,,,,,,,,,
890563,001,2022-11-20_22h53.15.996,Info_measure_main_exp,2022.2.2,Win32,60.06727535,,,,,,,,,,,,,,,,,,masks/mask_004.jpg,,,,,,,,,,,,,,,,,,,,,,,,,,,,,,,,,,,,,,,,,,,0,4,4,3,1,,,,,,,,,,,,,,,,,,,,,,,,,,,,,,,,,,,,,,,,,,,,,,
890563,001,2022-11-20_22h53.15.996,Info_measure_main_exp,2022.2.2,Win32,60.06727535,,,,,,,,,,,,,,,,,,masks/mask_001.jpg,,,,,,,,,,,,,,,,,,,,,,,,,,,,,,,,,,,,,,,,,,,,,,,,0,0,0,0,1,,,,,,,,,,,,,,,,,,,,,,,,,,,,,,,,,,,,,,,,,
890563,001,2022-11-20_22h53.15.996,Info_measure_main_exp,2022.2.2,Win32,60.06727535,,,,,,,,,,,,,,,,,,masks/mask_005.jpg,,,,,,,,,,,,,,,,,,,,,,,,,,,,,,,,,,,,,,,,,,,,,,,,0,1,1,4,1,,,,,,,,,,,,,,,,,,,,,,,,,,,,,,,,,,,,,,,,,
890563,001,2022-11-20_22h53.15.996,Info_measure_main_exp,2022.2.2,Win32,60.06727535,,,,,,,,,,,,,,,,,,masks/mask_003.jpg,,,,,,,,,,,,,,,,,,,,,,,,,,,,,,,,,,,,,,,,,,,,,,,,0,2,2,2,1,,,,,,,,,,,,,,,,,,,,,,,,,,,,,,,,,,,,,,,,,
890563,001,2022-11-20_22h53.15.996,Info_measure_main_exp,2022.2.2,Win32,60.06727535,,,,,,,,,,,,,,,,,,masks/mask_002.jpg,,,,,,,,,,,,,,,,,,,,,,,,,,,,,,,,,,,,,,,,,,,,,,,,0,3,3,1,1,,,,,,,,,,,,,,,,,,,,,,,,,,,,,,,,,,,,,,,,,
890563,001,2022-11-20_22h53.15.996,Info_measure_main_exp,2022.2.2,Win32,60.06727535,,,,,,,,,,,,,,,,,,masks/mask_004.jpg,,,,,,,,,,,,,,,,,,,,,,,,,,,,,,,,,,,,,,,,,,,,,,,,0,4,4,3,1,,,,,,,,,,,,,,,,,,,,,,,,,,,,,,,,,,,,,,,,,
890563,001,2022-11-20_22h53.15.996,Info_measure_main_exp,2022.2.2,Win32,60.06727535,,,,,,,,,,,,,,,,,,,,,,,,,,,,,,7,1.7184,1,,,,,,,,,,,,0,131,5,5,2082,1986,absent_patch/patch0002082.jpg,absent_patch/patch0001986.jpg,,,,,,,,,,,,,,,,,,,,0.075,0.148148148,1,0,0,response1disk,25,0.007407407,0.006481481,1,0,0,center_square,0,24,24,94,1,,,,,,,,,,,,,,,,,,,,,,,
890563,001,2022-11-20_22h53.15.996,Info_measure_main_exp,2022.2.2,Win32,60.06727535,,,,,,,,,,,,,,,,,,masks/mask_004.jpg,,,,,,,,,,,,,,,,,,,,,,,,,,,,,,,,,,,,,,,,,,,0,0,0,3,1,,,,,,,,,,,,,,,,,,,,,,,,,,,,,,,,,,,,,,,,,,,,,,
890563,001,2022-11-20_22h53.15.996,Info_measure_main_exp,2022.2.2,Win32,60.06727535,,,,,,,,,,,,,,,,,,masks/mask_005.jpg,,,,,,,,,,,,,,,,,,,,,,,,,,,,,,,,,,,,,,,,,,,0,1,1,4,1,,,,,,,,,,,,,,,,,,,,,,,,,,,,,,,,,,,,,,,,,,,,,,
890563,001,2022-11-20_22h53.15.996,Info_measure_main_exp,2022.2.2,Win32,60.06727535,,,,,,,,,,,,,,,,,,masks/mask_001.jpg,,,,,,,,,,,,,,,,,,,,,,,,,,,,,,,,,,,,,,,,,,,0,2,2,0,1,,,,,,,,,,,,,,,,,,,,,,,,,,,,,,,,,,,,,,,,,,,,,,
890563,001,2022-11-20_22h53.15.996,Info_measure_main_exp,2022.2.2,Win32,60.06727535,,,,,,,,,,,,,,,,,,masks/mask_002.jpg,,,,,,,,,,,,,,,,,,,,,,,,,,,,,,,,,,,,,,,,,,,0,3,3,1,1,,,,,,,,,,,,,,,,,,,,,,,,,,,,,,,,,,,,,,,,,,,,,,
890563,001,2022-11-20_22h53.15.996,Info_measure_main_exp,2022.2.2,Win32,60.06727535,,,,,,,,,,,,,,,,,,masks/mask_003.jpg,,,,,,,,,,,,,,,,,,,,,,,,,,,,,,,,,,,,,,,,,,,0,4,4,2,1,,,,,,,,,,,,,,,,,,,,,,,,,,,,,,,,,,,,,,,,,,,,,,
890563,001,2022-11-20_22h53.15.996,Info_measure_main_exp,2022.2.2,Win32,60.06727535,,,,,,,,,,,,,,,,,,masks/mask_002.jpg,,,,,,,,,,,,,,,,,,,,,,,,,,,,,,,,,,,,,,,,,,,,,,,,0,0,0,1,1,,,,,,,,,,,,,,,,,,,,,,,,,,,,,,,,,,,,,,,,,
890563,001,2022-11-20_22h53.15.996,Info_measure_main_exp,2022.2.2,Win32,60.06727535,,,,,,,,,,,,,,,,,,masks/mask_005.jpg,,,,,,,,,,,,,,,,,,,,,,,,,,,,,,,,,,,,,,,,,,,,,,,,0,1,1,4,1,,,,,,,,,,,,,,,,,,,,,,,,,,,,,,,,,,,,,,,,,
890563,001,2022-11-20_22h53.15.996,Info_measure_main_exp,2022.2.2,Win32,60.06727535,,,,,,,,,,,,,,,,,,masks/mask_003.jpg,,,,,,,,,,,,,,,,,,,,,,,,,,,,,,,,,,,,,,,,,,,,,,,,0,2,2,2,1,,,,,,,,,,,,,,,,,,,,,,,,,,,,,,,,,,,,,,,,,
890563,001,2022-11-20_22h53.15.996,Info_measure_main_exp,2022.2.2,Win32,60.06727535,,,,,,,,,,,,,,,,,,masks/mask_004.jpg,,,,,,,,,,,,,,,,,,,,,,,,,,,,,,,,,,,,,,,,,,,,,,,,0,3,3,3,1,,,,,,,,,,,,,,,,,,,,,,,,,,,,,,,,,,,,,,,,,
890563,001,2022-11-20_22h53.15.996,Info_measure_main_exp,2022.2.2,Win32,60.06727535,,,,,,,,,,,,,,,,,,masks/mask_001.jpg,,,,,,,,,,,,,,,,,,,,,,,,,,,,,,,,,,,,,,,,,,,,,,,,0,4,4,0,1,,,,,,,,,,,,,,,,,,,,,,,,,,,,,,,,,,,,,,,,,
890563,001,2022-11-20_22h53.15.996,Info_measure_main_exp,2022.2.2,Win32,60.06727535,,,,,,,,,,,,,,,,,,,,,,,,,,,,,,3,2.1014,1,,,,,,,,,,,,0,131,5,5,1974,2238,absent_patch/patch0001974.jpg,absent_patch/patch0002238.jpg,,,,,,,,,,,,,,,,,,,,-0.015740741,-0.141666667,1,0,0,response5disk,26,0.005555556,-0.00462963,1,0,0,center_square,0,25,25,95,1,,,,,,,,,,,,,,,,,,,,,,,
890563,001,2022-11-20_22h53.15.996,Info_measure_main_exp,2022.2.2,Win32,60.06727535,,,,,,,,,,,,,,,,,,masks/mask_002.jpg,,,,,,,,,,,,,,,,,,,,,,,,,,,,,,,,,,,,,,,,,,,0,0,0,1,1,,,,,,,,,,,,,,,,,,,,,,,,,,,,,,,,,,,,,,,,,,,,,,
890563,001,2022-11-20_22h53.15.996,Info_measure_main_exp,2022.2.2,Win32,60.06727535,,,,,,,,,,,,,,,,,,masks/mask_003.jpg,,,,,,,,,,,,,,,,,,,,,,,,,,,,,,,,,,,,,,,,,,,0,1,1,2,1,,,,,,,,,,,,,,,,,,,,,,,,,,,,,,,,,,,,,,,,,,,,,,
890563,001,2022-11-20_22h53.15.996,Info_measure_main_exp,2022.2.2,Win32,60.06727535,,,,,,,,,,,,,,,,,,masks/mask_004.jpg,,,,,,,,,,,,,,,,,,,,,,,,,,,,,,,,,,,,,,,,,,,0,2,2,3,1,,,,,,,,,,,,,,,,,,,,,,,,,,,,,,,,,,,,,,,,,,,,,,
890563,001,2022-11-20_22h53.15.996,Info_measure_main_exp,2022.2.2,Win32,60.06727535,,,,,,,,,,,,,,,,,,masks/mask_001.jpg,,,,,,,,,,,,,,,,,,,,,,,,,,,,,,,,,,,,,,,,,,,0,3,3,0,1,,,,,,,,,,,,,,,,,,,,,,,,,,,,,,,,,,,,,,,,,,,,,,
890563,001,2022-11-20_22h53.15.996,Info_measure_main_exp,2022.2.2,Win32,60.06727535,,,,,,,,,,,,,,,,,,masks/mask_005.jpg,,,,,,,,,,,,,,,,,,,,,,,,,,,,,,,,,,,,,,,,,,,0,4,4,4,1,,,,,,,,,,,,,,,,,,,,,,,,,,,,,,,,,,,,,,,,,,,,,,
890563,001,2022-11-20_22h53.15.996,Info_measure_main_exp,2022.2.2,Win32,60.06727535,,,,,,,,,,,,,,,,,,masks/mask_005.jpg,,,,,,,,,,,,,,,,,,,,,,,,,,,,,,,,,,,,,,,,,,,,,,,,0,0,0,4,1,,,,,,,,,,,,,,,,,,,,,,,,,,,,,,,,,,,,,,,,,
890563,001,2022-11-20_22h53.15.996,Info_measure_main_exp,2022.2.2,Win32,60.06727535,,,,,,,,,,,,,,,,,,masks/mask_003.jpg,,,,,,,,,,,,,,,,,,,,,,,,,,,,,,,,,,,,,,,,,,,,,,,,0,1,1,2,1,,,,,,,,,,,,,,,,,,,,,,,,,,,,,,,,,,,,,,,,,
890563,001,2022-11-20_22h53.15.996,Info_measure_main_exp,2022.2.2,Win32,60.06727535,,,,,,,,,,,,,,,,,,masks/mask_002.jpg,,,,,,,,,,,,,,,,,,,,,,,,,,,,,,,,,,,,,,,,,,,,,,,,0,2,2,1,1,,,,,,,,,,,,,,,,,,,,,,,,,,,,,,,,,,,,,,,,,
890563,001,2022-11-20_22h53.15.996,Info_measure_main_exp,2022.2.2,Win32,60.06727535,,,,,,,,,,,,,,,,,,masks/mask_004.jpg,,,,,,,,,,,,,,,,,,,,,,,,,,,,,,,,,,,,,,,,,,,,,,,,0,3,3,3,1,,,,,,,,,,,,,,,,,,,,,,,,,,,,,,,,,,,,,,,,,
890563,001,2022-11-20_22h53.15.996,Info_measure_main_exp,2022.2.2,Win32,60.06727535,,,,,,,,,,,,,,,,,,masks/mask_001.jpg,,,,,,,,,,,,,,,,,,,,,,,,,,,,,,,,,,,,,,,,,,,,,,,,0,4,4,0,1,,,,,,,,,,,,,,,,,,,,,,,,,,,,,,,,,,,,,,,,,
890563,001,2022-11-20_22h53.15.996,Info_measure_main_exp,2022.2.2,Win32,60.06727535,,,,,,,,,,,,,,,,,,,,,,,,,,,,,,0,0.7341,1,,,,,,,,,,,,0,131,5,5,2274,2274,absent_patch/patch0002274.jpg,absent_patch/patch0002274.jpg,,,,,,,,,,,,,,,,,,,,-0.055555556,0.103703704,1,0,0,response7disk,27,-0.008333333,-0.005555556,1,0,0,center_square,0,26,26,114,1,,,,,,,,,,,,,,,,,,,,,,,
890563,001,2022-11-20_22h53.15.996,Info_measure_main_exp,2022.2.2,Win32,60.06727535,,,,,,,,,,,,,,,,,,masks/mask_003.jpg,,,,,,,,,,,,,,,,,,,,,,,,,,,,,,,,,,,,,,,,,,,0,0,0,2,1,,,,,,,,,,,,,,,,,,,,,,,,,,,,,,,,,,,,,,,,,,,,,,
890563,001,2022-11-20_22h53.15.996,Info_measure_main_exp,2022.2.2,Win32,60.06727535,,,,,,,,,,,,,,,,,,masks/mask_005.jpg,,,,,,,,,,,,,,,,,,,,,,,,,,,,,,,,,,,,,,,,,,,0,1,1,4,1,,,,,,,,,,,,,,,,,,,,,,,,,,,,,,,,,,,,,,,,,,,,,,
890563,001,2022-11-20_22h53.15.996,Info_measure_main_exp,2022.2.2,Win32,60.06727535,,,,,,,,,,,,,,,,,,masks/mask_004.jpg,,,,,,,,,,,,,,,,,,,,,,,,,,,,,,,,,,,,,,,,,,,0,2,2,3,1,,,,,,,,,,,,,,,,,,,,,,,,,,,,,,,,,,,,,,,,,,,,,,
890563,001,2022-11-20_22h53.15.996,Info_measure_main_exp,2022.2.2,Win32,60.06727535,,,,,,,,,,,,,,,,,,masks/mask_001.jpg,,,,,,,,,,,,,,,,,,,,,,,,,,,,,,,,,,,,,,,,,,,0,3,3,0,1,,,,,,,,,,,,,,,,,,,,,,,,,,,,,,,,,,,,,,,,,,,,,,
890563,001,2022-11-20_22h53.15.996,Info_measure_main_exp,2022.2.2,Win32,60.06727535,,,,,,,,,,,,,,,,,,masks/mask_002.jpg,,,,,,,,,,,,,,,,,,,,,,,,,,,,,,,,,,,,,,,,,,,0,4,4,1,1,,,,,,,,,,,,,,,,,,,,,,,,,,,,,,,,,,,,,,,,,,,,,,
890563,001,2022-11-20_22h53.15.996,Info_measure_main_exp,2022.2.2,Win32,60.06727535,,,,,,,,,,,,,,,,,,masks/mask_004.jpg,,,,,,,,,,,,,,,,,,,,,,,,,,,,,,,,,,,,,,,,,,,,,,,,0,0,0,3,1,,,,,,,,,,,,,,,,,,,,,,,,,,,,,,,,,,,,,,,,,
890563,001,2022-11-20_22h53.15.996,Info_measure_main_exp,2022.2.2,Win32,60.06727535,,,,,,,,,,,,,,,,,,masks/mask_001.jpg,,,,,,,,,,,,,,,,,,,,,,,,,,,,,,,,,,,,,,,,,,,,,,,,0,1,1,0,1,,,,,,,,,,,,,,,,,,,,,,,,,,,,,,,,,,,,,,,,,
890563,001,2022-11-20_22h53.15.996,Info_measure_main_exp,2022.2.2,Win32,60.06727535,,,,,,,,,,,,,,,,,,masks/mask_005.jpg,,,,,,,,,,,,,,,,,,,,,,,,,,,,,,,,,,,,,,,,,,,,,,,,0,2,2,4,1,,,,,,,,,,,,,,,,,,,,,,,,,,,,,,,,,,,,,,,,,
890563,001,2022-11-20_22h53.15.996,Info_measure_main_exp,2022.2.2,Win32,60.06727535,,,,,,,,,,,,,,,,,,masks/mask_003.jpg,,,,,,,,,,,,,,,,,,,,,,,,,,,,,,,,,,,,,,,,,,,,,,,,0,3,3,2,1,,,,,,,,,,,,,,,,,,,,,,,,,,,,,,,,,,,,,,,,,
890563,001,2022-11-20_22h53.15.996,Info_measure_main_exp,2022.2.2,Win32,60.06727535,,,,,,,,,,,,,,,,,,masks/mask_002.jpg,,,,,,,,,,,,,,,,,,,,,,,,,,,,,,,,,,,,,,,,,,,,,,,,0,4,4,1,1,,,,,,,,,,,,,,,,,,,,,,,,,,,,,,,,,,,,,,,,,
890563,001,2022-11-20_22h53.15.996,Info_measure_main_exp,2022.2.2,Win32,60.06727535,,,,,,,,,,,,,,,,,,,,,,,,,,,,,,2,1.4682,1,,,,,,,,,,,,0,131,5,5,2214,2178,absent_patch/patch0002214.jpg,absent_patch/patch0002178.jpg,,,,,,,,,,,,,,,,,,,,-0.080555556,-0.059259259,1,0,0,response5disk,28,0.010185185,0.003703704,1,0,0,center_square,0,27,27,62,1,,,,,,,,,,,,,,,,,,,,,,,
890563,001,2022-11-20_22h53.15.996,Info_measure_main_exp,2022.2.2,Win32,60.06727535,,,,,,,,,,,,,,,,,,masks/mask_001.jpg,,,,,,,,,,,,,,,,,,,,,,,,,,,,,,,,,,,,,,,,,,,0,0,0,0,1,,,,,,,,,,,,,,,,,,,,,,,,,,,,,,,,,,,,,,,,,,,,,,
890563,001,2022-11-20_22h53.15.996,Info_measure_main_exp,2022.2.2,Win32,60.06727535,,,,,,,,,,,,,,,,,,masks/mask_005.jpg,,,,,,,,,,,,,,,,,,,,,,,,,,,,,,,,,,,,,,,,,,,0,1,1,4,1,,,,,,,,,,,,,,,,,,,,,,,,,,,,,,,,,,,,,,,,,,,,,,
890563,001,2022-11-20_22h53.15.996,Info_measure_main_exp,2022.2.2,Win32,60.06727535,,,,,,,,,,,,,,,,,,masks/mask_004.jpg,,,,,,,,,,,,,,,,,,,,,,,,,,,,,,,,,,,,,,,,,,,0,2,2,3,1,,,,,,,,,,,,,,,,,,,,,,,,,,,,,,,,,,,,,,,,,,,,,,
890563,001,2022-11-20_22h53.15.996,Info_measure_main_exp,2022.2.2,Win32,60.06727535,,,,,,,,,,,,,,,,,,masks/mask_003.jpg,,,,,,,,,,,,,,,,,,,,,,,,,,,,,,,,,,,,,,,,,,,0,3,3,2,1,,,,,,,,,,,,,,,,,,,,,,,,,,,,,,,,,,,,,,,,,,,,,,
890563,001,2022-11-20_22h53.15.996,Info_measure_main_exp,2022.2.2,Win32,60.06727535,,,,,,,,,,,,,,,,,,masks/mask_002.jpg,,,,,,,,,,,,,,,,,,,,,,,,,,,,,,,,,,,,,,,,,,,0,4,4,1,1,,,,,,,,,,,,,,,,,,,,,,,,,,,,,,,,,,,,,,,,,,,,,,
890563,001,2022-11-20_22h53.15.996,Info_measure_main_exp,2022.2.2,Win32,60.06727535,,,,,,,,,,,,,,,,,,masks/mask_004.jpg,,,,,,,,,,,,,,,,,,,,,,,,,,,,,,,,,,,,,,,,,,,,,,,,0,0,0,3,1,,,,,,,,,,,,,,,,,,,,,,,,,,,,,,,,,,,,,,,,,
890563,001,2022-11-20_22h53.15.996,Info_measure_main_exp,2022.2.2,Win32,60.06727535,,,,,,,,,,,,,,,,,,masks/mask_005.jpg,,,,,,,,,,,,,,,,,,,,,,,,,,,,,,,,,,,,,,,,,,,,,,,,0,1,1,4,1,,,,,,,,,,,,,,,,,,,,,,,,,,,,,,,,,,,,,,,,,
890563,001,2022-11-20_22h53.15.996,Info_measure_main_exp,2022.2.2,Win32,60.06727535,,,,,,,,,,,,,,,,,,masks/mask_003.jpg,,,,,,,,,,,,,,,,,,,,,,,,,,,,,,,,,,,,,,,,,,,,,,,,0,2,2,2,1,,,,,,,,,,,,,,,,,,,,,,,,,,,,,,,,,,,,,,,,,
890563,001,2022-11-20_22h53.15.996,Info_measure_main_exp,2022.2.2,Win32,60.06727535,,,,,,,,,,,,,,,,,,masks/mask_001.jpg,,,,,,,,,,,,,,,,,,,,,,,,,,,,,,,,,,,,,,,,,,,,,,,,0,3,3,0,1,,,,,,,,,,,,,,,,,,,,,,,,,,,,,,,,,,,,,,,,,
890563,001,2022-11-20_22h53.15.996,Info_measure_main_exp,2022.2.2,Win32,60.06727535,,,,,,,,,,,,,,,,,,masks/mask_002.jpg,,,,,,,,,,,,,,,,,,,,,,,,,,,,,,,,,,,,,,,,,,,,,,,,0,4,4,1,1,,,,,,,,,,,,,,,,,,,,,,,,,,,,,,,,,,,,,,,,,
890563,001,2022-11-20_22h53.15.996,Info_measure_main_exp,2022.2.2,Win32,60.06727535,,,,,,,,,,,,,,,,,,,,,,,,,,,,,,4,1.1844,1,,,,,,,,,,,,0,131,5,5,2166,1986,absent_patch/patch0002166.jpg,absent_patch/patch0001986.jpg,,,,,,,,,,,,,,,,,,,,0.076851852,-0.109259259,1,0,0,response3disk,29,0.010185185,-0.014814815,1,0,0,center_square,0,28,28,47,1,,,,,,,,,,,,,,,,,,,,,,,
890563,001,2022-11-20_22h53.15.996,Info_measure_main_exp,2022.2.2,Win32,60.06727535,,,,,,,,,,,,,,,,,,masks/mask_005.jpg,,,,,,,,,,,,,,,,,,,,,,,,,,,,,,,,,,,,,,,,,,,0,0,0,4,1,,,,,,,,,,,,,,,,,,,,,,,,,,,,,,,,,,,,,,,,,,,,,,
890563,001,2022-11-20_22h53.15.996,Info_measure_main_exp,2022.2.2,Win32,60.06727535,,,,,,,,,,,,,,,,,,masks/mask_001.jpg,,,,,,,,,,,,,,,,,,,,,,,,,,,,,,,,,,,,,,,,,,,0,1,1,0,1,,,,,,,,,,,,,,,,,,,,,,,,,,,,,,,,,,,,,,,,,,,,,,
890563,001,2022-11-20_22h53.15.996,Info_measure_main_exp,2022.2.2,Win32,60.06727535,,,,,,,,,,,,,,,,,,masks/mask_003.jpg,,,,,,,,,,,,,,,,,,,,,,,,,,,,,,,,,,,,,,,,,,,0,2,2,2,1,,,,,,,,,,,,,,,,,,,,,,,,,,,,,,,,,,,,,,,,,,,,,,
890563,001,2022-11-20_22h53.15.996,Info_measure_main_exp,2022.2.2,Win32,60.06727535,,,,,,,,,,,,,,,,,,masks/mask_004.jpg,,,,,,,,,,,,,,,,,,,,,,,,,,,,,,,,,,,,,,,,,,,0,3,3,3,1,,,,,,,,,,,,,,,,,,,,,,,,,,,,,,,,,,,,,,,,,,,,,,
890563,001,2022-11-20_22h53.15.996,Info_measure_main_exp,2022.2.2,Win32,60.06727535,,,,,,,,,,,,,,,,,,masks/mask_002.jpg,,,,,,,,,,,,,,,,,,,,,,,,,,,,,,,,,,,,,,,,,,,0,4,4,1,1,,,,,,,,,,,,,,,,,,,,,,,,,,,,,,,,,,,,,,,,,,,,,,
890563,001,2022-11-20_22h53.15.996,Info_measure_main_exp,2022.2.2,Win32,60.06727535,,,,,,,,,,,,,,,,,,masks/mask_003.jpg,,,,,,,,,,,,,,,,,,,,,,,,,,,,,,,,,,,,,,,,,,,,,,,,0,0,0,2,1,,,,,,,,,,,,,,,,,,,,,,,,,,,,,,,,,,,,,,,,,
890563,001,2022-11-20_22h53.15.996,Info_measure_main_exp,2022.2.2,Win32,60.06727535,,,,,,,,,,,,,,,,,,masks/mask_002.jpg,,,,,,,,,,,,,,,,,,,,,,,,,,,,,,,,,,,,,,,,,,,,,,,,0,1,1,1,1,,,,,,,,,,,,,,,,,,,,,,,,,,,,,,,,,,,,,,,,,
890563,001,2022-11-20_22h53.15.996,Info_measure_main_exp,2022.2.2,Win32,60.06727535,,,,,,,,,,,,,,,,,,masks/mask_004.jpg,,,,,,,,,,,,,,,,,,,,,,,,,,,,,,,,,,,,,,,,,,,,,,,,0,2,2,3,1,,,,,,,,,,,,,,,,,,,,,,,,,,,,,,,,,,,,,,,,,
890563,001,2022-11-20_22h53.15.996,Info_measure_main_exp,2022.2.2,Win32,60.06727535,,,,,,,,,,,,,,,,,,masks/mask_005.jpg,,,,,,,,,,,,,,,,,,,,,,,,,,,,,,,,,,,,,,,,,,,,,,,,0,3,3,4,1,,,,,,,,,,,,,,,,,,,,,,,,,,,,,,,,,,,,,,,,,
890563,001,2022-11-20_22h53.15.996,Info_measure_main_exp,2022.2.2,Win32,60.06727535,,,,,,,,,,,,,,,,,,masks/mask_001.jpg,,,,,,,,,,,,,,,,,,,,,,,,,,,,,,,,,,,,,,,,,,,,,,,,0,4,4,0,1,,,,,,,,,,,,,,,,,,,,,,,,,,,,,,,,,,,,,,,,,
890563,001,2022-11-20_22h53.15.996,Info_measure_main_exp,2022.2.2,Win32,60.06727535,,,,,,,,,,,,,,,,,,,,,,,,,,,,,,6,0.7675,1,,,,,,,,,,,,0,131,5,5,2154,2250,absent_patch/patch0002154.jpg,absent_patch/patch0002250.jpg,,,,,,,,,,,,,,,,,,,,0.074074074,0.025925926,1,0,0,response1disk,30,-0.003703704,-0.008333333,1,0,0,center_square,0,29,29,108,1,,,,,,,,,,,,,,,,,,,,,,,
890563,001,2022-11-20_22h53.15.996,Info_measure_main_exp,2022.2.2,Win32,60.06727535,,,,,,,,,,,,,,,,,,masks/mask_005.jpg,,,,,,,,,,,,,,,,,,,,,,,,,,,,,,,,,,,,,,,,,,,0,0,0,4,1,,,,,,,,,,,,,,,,,,,,,,,,,,,,,,,,,,,,,,,,,,,,,,
890563,001,2022-11-20_22h53.15.996,Info_measure_main_exp,2022.2.2,Win32,60.06727535,,,,,,,,,,,,,,,,,,masks/mask_002.jpg,,,,,,,,,,,,,,,,,,,,,,,,,,,,,,,,,,,,,,,,,,,0,1,1,1,1,,,,,,,,,,,,,,,,,,,,,,,,,,,,,,,,,,,,,,,,,,,,,,
890563,001,2022-11-20_22h53.15.996,Info_measure_main_exp,2022.2.2,Win32,60.06727535,,,,,,,,,,,,,,,,,,masks/mask_001.jpg,,,,,,,,,,,,,,,,,,,,,,,,,,,,,,,,,,,,,,,,,,,0,2,2,0,1,,,,,,,,,,,,,,,,,,,,,,,,,,,,,,,,,,,,,,,,,,,,,,
890563,001,2022-11-20_22h53.15.996,Info_measure_main_exp,2022.2.2,Win32,60.06727535,,,,,,,,,,,,,,,,,,masks/mask_003.jpg,,,,,,,,,,,,,,,,,,,,,,,,,,,,,,,,,,,,,,,,,,,0,3,3,2,1,,,,,,,,,,,,,,,,,,,,,,,,,,,,,,,,,,,,,,,,,,,,,,
890563,001,2022-11-20_22h53.15.996,Info_measure_main_exp,2022.2.2,Win32,60.06727535,,,,,,,,,,,,,,,,,,masks/mask_004.jpg,,,,,,,,,,,,,,,,,,,,,,,,,,,,,,,,,,,,,,,,,,,0,4,4,3,1,,,,,,,,,,,,,,,,,,,,,,,,,,,,,,,,,,,,,,,,,,,,,,
890563,001,2022-11-20_22h53.15.996,Info_measure_main_exp,2022.2.2,Win32,60.06727535,,,,,,,,,,,,,,,,,,masks/mask_002.jpg,,,,,,,,,,,,,,,,,,,,,,,,,,,,,,,,,,,,,,,,,,,,,,,,0,0,0,1,1,,,,,,,,,,,,,,,,,,,,,,,,,,,,,,,,,,,,,,,,,
890563,001,2022-11-20_22h53.15.996,Info_measure_main_exp,2022.2.2,Win32,60.06727535,,,,,,,,,,,,,,,,,,masks/mask_001.jpg,,,,,,,,,,,,,,,,,,,,,,,,,,,,,,,,,,,,,,,,,,,,,,,,0,1,1,0,1,,,,,,,,,,,,,,,,,,,,,,,,,,,,,,,,,,,,,,,,,
890563,001,2022-11-20_22h53.15.996,Info_measure_main_exp,2022.2.2,Win32,60.06727535,,,,,,,,,,,,,,,,,,masks/mask_004.jpg,,,,,,,,,,,,,,,,,,,,,,,,,,,,,,,,,,,,,,,,,,,,,,,,0,2,2,3,1,,,,,,,,,,,,,,,,,,,,,,,,,,,,,,,,,,,,,,,,,
890563,001,2022-11-20_22h53.15.996,Info_measure_main_exp,2022.2.2,Win32,60.06727535,,,,,,,,,,,,,,,,,,masks/mask_005.jpg,,,,,,,,,,,,,,,,,,,,,,,,,,,,,,,,,,,,,,,,,,,,,,,,0,3,3,4,1,,,,,,,,,,,,,,,,,,,,,,,,,,,,,,,,,,,,,,,,,
890563,001,2022-11-20_22h53.15.996,Info_measure_main_exp,2022.2.2,Win32,60.06727535,,,,,,,,,,,,,,,,,,masks/mask_003.jpg,,,,,,,,,,,,,,,,,,,,,,,,,,,,,,,,,,,,,,,,,,,,,,,,0,4,4,2,1,,,,,,,,,,,,,,,,,,,,,,,,,,,,,,,,,,,,,,,,,
890563,001,2022-11-20_22h53.15.996,Info_measure_main_exp,2022.2.2,Win32,60.06727535,,,,,,,,,,,,,,,,,,,,,,,,,,,,,,5,0.5505,1,,,,,,,,,,,,0,131,5,5,2214,2082,absent_patch/patch0002214.jpg,absent_patch/patch0002082.jpg,,,,,,,,,,,,,,,,,,,,0.118518519,-0.051851852,1,0,0,response3disk,31,0.007407407,0,1,0,0,center_square,0,30,30,103,1,,,,,,,,,,,,,,,,,,,,,,,
890563,001,2022-11-20_22h53.15.996,Info_measure_main_exp,2022.2.2,Win32,60.06727535,,,,,,,,,,,,,,,,,,masks/mask_003.jpg,,,,,,,,,,,,,,,,,,,,,,,,,,,,,,,,,,,,,,,,,,,0,0,0,2,1,,,,,,,,,,,,,,,,,,,,,,,,,,,,,,,,,,,,,,,,,,,,,,
890563,001,2022-11-20_22h53.15.996,Info_measure_main_exp,2022.2.2,Win32,60.06727535,,,,,,,,,,,,,,,,,,masks/mask_005.jpg,,,,,,,,,,,,,,,,,,,,,,,,,,,,,,,,,,,,,,,,,,,0,1,1,4,1,,,,,,,,,,,,,,,,,,,,,,,,,,,,,,,,,,,,,,,,,,,,,,
890563,001,2022-11-20_22h53.15.996,Info_measure_main_exp,2022.2.2,Win32,60.06727535,,,,,,,,,,,,,,,,,,masks/mask_001.jpg,,,,,,,,,,,,,,,,,,,,,,,,,,,,,,,,,,,,,,,,,,,0,2,2,0,1,,,,,,,,,,,,,,,,,,,,,,,,,,,,,,,,,,,,,,,,,,,,,,
890563,001,2022-11-20_22h53.15.996,Info_measure_main_exp,2022.2.2,Win32,60.06727535,,,,,,,,,,,,,,,,,,masks/mask_002.jpg,,,,,,,,,,,,,,,,,,,,,,,,,,,,,,,,,,,,,,,,,,,0,3,3,1,1,,,,,,,,,,,,,,,,,,,,,,,,,,,,,,,,,,,,,,,,,,,,,,
890563,001,2022-11-20_22h53.15.996,Info_measure_main_exp,2022.2.2,Win32,60.06727535,,,,,,,,,,,,,,,,,,masks/mask_004.jpg,,,,,,,,,,,,,,,,,,,,,,,,,,,,,,,,,,,,,,,,,,,0,4,4,3,1,,,,,,,,,,,,,,,,,,,,,,,,,,,,,,,,,,,,,,,,,,,,,,
890563,001,2022-11-20_22h53.15.996,Info_measure_main_exp,2022.2.2,Win32,60.06727535,,,,,,,,,,,,,,,,,,masks/mask_001.jpg,,,,,,,,,,,,,,,,,,,,,,,,,,,,,,,,,,,,,,,,,,,,,,,,0,0,0,0,1,,,,,,,,,,,,,,,,,,,,,,,,,,,,,,,,,,,,,,,,,
890563,001,2022-11-20_22h53.15.996,Info_measure_main_exp,2022.2.2,Win32,60.06727535,,,,,,,,,,,,,,,,,,masks/mask_003.jpg,,,,,,,,,,,,,,,,,,,,,,,,,,,,,,,,,,,,,,,,,,,,,,,,0,1,1,2,1,,,,,,,,,,,,,,,,,,,,,,,,,,,,,,,,,,,,,,,,,
890563,001,2022-11-20_22h53.15.996,Info_measure_main_exp,2022.2.2,Win32,60.06727535,,,,,,,,,,,,,,,,,,masks/mask_004.jpg,,,,,,,,,,,,,,,,,,,,,,,,,,,,,,,,,,,,,,,,,,,,,,,,0,2,2,3,1,,,,,,,,,,,,,,,,,,,,,,,,,,,,,,,,,,,,,,,,,
890563,001,2022-11-20_22h53.15.996,Info_measure_main_exp,2022.2.2,Win32,60.06727535,,,,,,,,,,,,,,,,,,masks/mask_002.jpg,,,,,,,,,,,,,,,,,,,,,,,,,,,,,,,,,,,,,,,,,,,,,,,,0,3,3,1,1,,,,,,,,,,,,,,,,,,,,,,,,,,,,,,,,,,,,,,,,,
890563,001,2022-11-20_22h53.15.996,Info_measure_main_exp,2022.2.2,Win32,60.06727535,,,,,,,,,,,,,,,,,,masks/mask_005.jpg,,,,,,,,,,,,,,,,,,,,,,,,,,,,,,,,,,,,,,,,,,,,,,,,0,4,4,4,1,,,,,,,,,,,,,,,,,,,,,,,,,,,,,,,,,,,,,,,,,
890563,001,2022-11-20_22h53.15.996,Info_measure_main_exp,2022.2.2,Win32,60.06727535,,,,,,,,,,,,,,,,,,,,,,,,,,,,,,0,0.8341,1,,,,,,,,,,,,0,131,5,5,2298,2298,absent_patch/patch0002298.jpg,absent_patch/patch0002298.jpg,,,,,,,,,,,,,,,,,,,,-0.041666667,0.103703704,1,0,0,response7disk,32,0.00462963,0.00462963,1,0,0,center_square,0,31,31,37,1,,,,,,,,,,,,,,,,,,,,,,,
890563,001,2022-11-20_22h53.15.996,Info_measure_main_exp,2022.2.2,Win32,60.06727535,,,,,,,,,,,,,,,,,,masks/mask_003.jpg,,,,,,,,,,,,,,,,,,,,,,,,,,,,,,,,,,,,,,,,,,,0,0,0,2,1,,,,,,,,,,,,,,,,,,,,,,,,,,,,,,,,,,,,,,,,,,,,,,
890563,001,2022-11-20_22h53.15.996,Info_measure_main_exp,2022.2.2,Win32,60.06727535,,,,,,,,,,,,,,,,,,masks/mask_005.jpg,,,,,,,,,,,,,,,,,,,,,,,,,,,,,,,,,,,,,,,,,,,0,1,1,4,1,,,,,,,,,,,,,,,,,,,,,,,,,,,,,,,,,,,,,,,,,,,,,,
890563,001,2022-11-20_22h53.15.996,Info_measure_main_exp,2022.2.2,Win32,60.06727535,,,,,,,,,,,,,,,,,,masks/mask_002.jpg,,,,,,,,,,,,,,,,,,,,,,,,,,,,,,,,,,,,,,,,,,,0,2,2,1,1,,,,,,,,,,,,,,,,,,,,,,,,,,,,,,,,,,,,,,,,,,,,,,
890563,001,2022-11-20_22h53.15.996,Info_measure_main_exp,2022.2.2,Win32,60.06727535,,,,,,,,,,,,,,,,,,masks/mask_001.jpg,,,,,,,,,,,,,,,,,,,,,,,,,,,,,,,,,,,,,,,,,,,0,3,3,0,1,,,,,,,,,,,,,,,,,,,,,,,,,,,,,,,,,,,,,,,,,,,,,,
890563,001,2022-11-20_22h53.15.996,Info_measure_main_exp,2022.2.2,Win32,60.06727535,,,,,,,,,,,,,,,,,,masks/mask_004.jpg,,,,,,,,,,,,,,,,,,,,,,,,,,,,,,,,,,,,,,,,,,,0,4,4,3,1,,,,,,,,,,,,,,,,,,,,,,,,,,,,,,,,,,,,,,,,,,,,,,
890563,001,2022-11-20_22h53.15.996,Info_measure_main_exp,2022.2.2,Win32,60.06727535,,,,,,,,,,,,,,,,,,masks/mask_002.jpg,,,,,,,,,,,,,,,,,,,,,,,,,,,,,,,,,,,,,,,,,,,,,,,,0,0,0,1,1,,,,,,,,,,,,,,,,,,,,,,,,,,,,,,,,,,,,,,,,,
890563,001,2022-11-20_22h53.15.996,Info_measure_main_exp,2022.2.2,Win32,60.06727535,,,,,,,,,,,,,,,,,,masks/mask_004.jpg,,,,,,,,,,,,,,,,,,,,,,,,,,,,,,,,,,,,,,,,,,,,,,,,0,1,1,3,1,,,,,,,,,,,,,,,,,,,,,,,,,,,,,,,,,,,,,,,,,
890563,001,2022-11-20_22h53.15.996,Info_measure_main_exp,2022.2.2,Win32,60.06727535,,,,,,,,,,,,,,,,,,masks/mask_001.jpg,,,,,,,,,,,,,,,,,,,,,,,,,,,,,,,,,,,,,,,,,,,,,,,,0,2,2,0,1,,,,,,,,,,,,,,,,,,,,,,,,,,,,,,,,,,,,,,,,,
890563,001,2022-11-20_22h53.15.996,Info_measure_main_exp,2022.2.2,Win32,60.06727535,,,,,,,,,,,,,,,,,,masks/mask_003.jpg,,,,,,,,,,,,,,,,,,,,,,,,,,,,,,,,,,,,,,,,,,,,,,,,0,3,3,2,1,,,,,,,,,,,,,,,,,,,,,,,,,,,,,,,,,,,,,,,,,
890563,001,2022-11-20_22h53.15.996,Info_measure_main_exp,2022.2.2,Win32,60.06727535,,,,,,,,,,,,,,,,,,masks/mask_005.jpg,,,,,,,,,,,,,,,,,,,,,,,,,,,,,,,,,,,,,,,,,,,,,,,,0,4,4,4,1,,,,,,,,,,,,,,,,,,,,,,,,,,,,,,,,,,,,,,,,,
890563,001,2022-11-20_22h53.15.996,Info_measure_main_exp,2022.2.2,Win32,60.06727535,,,,,,,,,,,,,,,,,,,,,,,,,,,,,,4,1.735,1,,,,,,,,,,,,1,131,5,5,1,2274,present_patch/cong_131_5_a.jpg,absent_patch/patch0002274.jpg,,,,,,,,,,,,,,,,,,,,0.026851852,-0.14537037,1,0,0,response3disk,33,-0.002777778,0.007407407,1,0,0,center_square,0,32,32,105,1,,,,,,,,,,,,,,,,,,,,,,,
890563,001,2022-11-20_22h53.15.996,Info_measure_main_exp,2022.2.2,Win32,60.06727535,,,,,,,,,,,,,,,,,,masks/mask_005.jpg,,,,,,,,,,,,,,,,,,,,,,,,,,,,,,,,,,,,,,,,,,,0,0,0,4,1,,,,,,,,,,,,,,,,,,,,,,,,,,,,,,,,,,,,,,,,,,,,,,
890563,001,2022-11-20_22h53.15.996,Info_measure_main_exp,2022.2.2,Win32,60.06727535,,,,,,,,,,,,,,,,,,masks/mask_001.jpg,,,,,,,,,,,,,,,,,,,,,,,,,,,,,,,,,,,,,,,,,,,0,1,1,0,1,,,,,,,,,,,,,,,,,,,,,,,,,,,,,,,,,,,,,,,,,,,,,,
890563,001,2022-11-20_22h53.15.996,Info_measure_main_exp,2022.2.2,Win32,60.06727535,,,,,,,,,,,,,,,,,,masks/mask_002.jpg,,,,,,,,,,,,,,,,,,,,,,,,,,,,,,,,,,,,,,,,,,,0,2,2,1,1,,,,,,,,,,,,,,,,,,,,,,,,,,,,,,,,,,,,,,,,,,,,,,
890563,001,2022-11-20_22h53.15.996,Info_measure_main_exp,2022.2.2,Win32,60.06727535,,,,,,,,,,,,,,,,,,masks/mask_003.jpg,,,,,,,,,,,,,,,,,,,,,,,,,,,,,,,,,,,,,,,,,,,0,3,3,2,1,,,,,,,,,,,,,,,,,,,,,,,,,,,,,,,,,,,,,,,,,,,,,,
890563,001,2022-11-20_22h53.15.996,Info_measure_main_exp,2022.2.2,Win32,60.06727535,,,,,,,,,,,,,,,,,,masks/mask_004.jpg,,,,,,,,,,,,,,,,,,,,,,,,,,,,,,,,,,,,,,,,,,,0,4,4,3,1,,,,,,,,,,,,,,,,,,,,,,,,,,,,,,,,,,,,,,,,,,,,,,
890563,001,2022-11-20_22h53.15.996,Info_measure_main_exp,2022.2.2,Win32,60.06727535,,,,,,,,,,,,,,,,,,masks/mask_004.jpg,,,,,,,,,,,,,,,,,,,,,,,,,,,,,,,,,,,,,,,,,,,,,,,,0,0,0,3,1,,,,,,,,,,,,,,,,,,,,,,,,,,,,,,,,,,,,,,,,,
890563,001,2022-11-20_22h53.15.996,Info_measure_main_exp,2022.2.2,Win32,60.06727535,,,,,,,,,,,,,,,,,,masks/mask_005.jpg,,,,,,,,,,,,,,,,,,,,,,,,,,,,,,,,,,,,,,,,,,,,,,,,0,1,1,4,1,,,,,,,,,,,,,,,,,,,,,,,,,,,,,,,,,,,,,,,,,
890563,001,2022-11-20_22h53.15.996,Info_measure_main_exp,2022.2.2,Win32,60.06727535,,,,,,,,,,,,,,,,,,masks/mask_002.jpg,,,,,,,,,,,,,,,,,,,,,,,,,,,,,,,,,,,,,,,,,,,,,,,,0,2,2,1,1,,,,,,,,,,,,,,,,,,,,,,,,,,,,,,,,,,,,,,,,,
890563,001,2022-11-20_22h53.15.996,Info_measure_main_exp,2022.2.2,Win32,60.06727535,,,,,,,,,,,,,,,,,,masks/mask_001.jpg,,,,,,,,,,,,,,,,,,,,,,,,,,,,,,,,,,,,,,,,,,,,,,,,0,3,3,0,1,,,,,,,,,,,,,,,,,,,,,,,,,,,,,,,,,,,,,,,,,
890563,001,2022-11-20_22h53.15.996,Info_measure_main_exp,2022.2.2,Win32,60.06727535,,,,,,,,,,,,,,,,,,masks/mask_003.jpg,,,,,,,,,,,,,,,,,,,,,,,,,,,,,,,,,,,,,,,,,,,,,,,,0,4,4,2,1,,,,,,,,,,,,,,,,,,,,,,,,,,,,,,,,,,,,,,,,,
890563,001,2022-11-20_22h53.15.996,Info_measure_main_exp,2022.2.2,Win32,60.06727535,,,,,,,,,,,,,,,,,,,,,,,,,,,,,,6,0.9175,1,,,,,,,,,,,,0,131,5,5,2142,2154,absent_patch/patch0002142.jpg,absent_patch/patch0002154.jpg,,,,,,,,,,,,,,,,,,,,0.071296296,0.022222222,1,0,0,response1disk,34,-0.008333333,0.006481481,1,0,0,center_square,0,33,33,9,1,,,,,,,,,,,,,,,,,,,,,,,
890563,001,2022-11-20_22h53.15.996,Info_measure_main_exp,2022.2.2,Win32,60.06727535,,,,,,,,,,,,,,,,,,masks/mask_001.jpg,,,,,,,,,,,,,,,,,,,,,,,,,,,,,,,,,,,,,,,,,,,0,0,0,0,1,,,,,,,,,,,,,,,,,,,,,,,,,,,,,,,,,,,,,,,,,,,,,,
890563,001,2022-11-20_22h53.15.996,Info_measure_main_exp,2022.2.2,Win32,60.06727535,,,,,,,,,,,,,,,,,,masks/mask_003.jpg,,,,,,,,,,,,,,,,,,,,,,,,,,,,,,,,,,,,,,,,,,,0,1,1,2,1,,,,,,,,,,,,,,,,,,,,,,,,,,,,,,,,,,,,,,,,,,,,,,
890563,001,2022-11-20_22h53.15.996,Info_measure_main_exp,2022.2.2,Win32,60.06727535,,,,,,,,,,,,,,,,,,masks/mask_005.jpg,,,,,,,,,,,,,,,,,,,,,,,,,,,,,,,,,,,,,,,,,,,0,2,2,4,1,,,,,,,,,,,,,,,,,,,,,,,,,,,,,,,,,,,,,,,,,,,,,,
890563,001,2022-11-20_22h53.15.996,Info_measure_main_exp,2022.2.2,Win32,60.06727535,,,,,,,,,,,,,,,,,,masks/mask_004.jpg,,,,,,,,,,,,,,,,,,,,,,,,,,,,,,,,,,,,,,,,,,,0,3,3,3,1,,,,,,,,,,,,,,,,,,,,,,,,,,,,,,,,,,,,,,,,,,,,,,
890563,001,2022-11-20_22h53.15.996,Info_measure_main_exp,2022.2.2,Win32,60.06727535,,,,,,,,,,,,,,,,,,masks/mask_002.jpg,,,,,,,,,,,,,,,,,,,,,,,,,,,,,,,,,,,,,,,,,,,0,4,4,1,1,,,,,,,,,,,,,,,,,,,,,,,,,,,,,,,,,,,,,,,,,,,,,,
890563,001,2022-11-20_22h53.15.996,Info_measure_main_exp,2022.2.2,Win32,60.06727535,,,,,,,,,,,,,,,,,,masks/mask_005.jpg,,,,,,,,,,,,,,,,,,,,,,,,,,,,,,,,,,,,,,,,,,,,,,,,0,0,0,4,1,,,,,,,,,,,,,,,,,,,,,,,,,,,,,,,,,,,,,,,,,
890563,001,2022-11-20_22h53.15.996,Info_measure_main_exp,2022.2.2,Win32,60.06727535,,,,,,,,,,,,,,,,,,masks/mask_002.jpg,,,,,,,,,,,,,,,,,,,,,,,,,,,,,,,,,,,,,,,,,,,,,,,,0,1,1,1,1,,,,,,,,,,,,,,,,,,,,,,,,,,,,,,,,,,,,,,,,,
890563,001,2022-11-20_22h53.15.996,Info_measure_main_exp,2022.2.2,Win32,60.06727535,,,,,,,,,,,,,,,,,,masks/mask_004.jpg,,,,,,,,,,,,,,,,,,,,,,,,,,,,,,,,,,,,,,,,,,,,,,,,0,2,2,3,1,,,,,,,,,,,,,,,,,,,,,,,,,,,,,,,,,,,,,,,,,
890563,001,2022-11-20_22h53.15.996,Info_measure_main_exp,2022.2.2,Win32,60.06727535,,,,,,,,,,,,,,,,,,masks/mask_001.jpg,,,,,,,,,,,,,,,,,,,,,,,,,,,,,,,,,,,,,,,,,,,,,,,,0,3,3,0,1,,,,,,,,,,,,,,,,,,,,,,,,,,,,,,,,,,,,,,,,,
