participant,session,date,expName,psychopyVersion,OS,frameRate,space_press_continue.keys,space_press_continue.rt,space_press_continue_2.keys,space_press_continue_2.rt,space_press_continue_3.keys,space_press_continue_3.rt,space_press_continue_4.keys,space_press_continue_4.rt,space_press_continue_5.keys,space_press_continue_5.rt,space_press_continue_6.keys,space_press_continue_6.rt,prac_mask_loop_1.thisRepN,prac_mask_loop_1.thisTrialN,prac_mask_loop_1.thisN,prac_mask_loop_1.thisIndex,prac_mask_loop_1.ran,mask_name,prac_mask_loop_2.thisRepN,prac_mask_loop_2.thisTrialN,prac_mask_loop_2.thisN,prac_mask_loop_2.thisIndex,prac_mask_loop_2.ran,mouse_2.x,mouse_2.y,mouse_2.leftButton,mouse_2.midButton,mouse_2.rightButton,mouse_2.clicked_name,similarity,response_time,Pass,mouse_12.x,mouse_12.y,mouse_12.leftButton,mouse_12.midButton,mouse_12.rightButton,mouse_12.clicked_name,prac_loop.thisRepN,prac_loop.thisTrialN,prac_loop.thisN,prac_loop.thisIndex,prac_loop.ran,Pair_type,Image_num,Patch_1_loc,Patch_2_loc,Patch_1_info,Patch_2_info,Patch_1_name,Patch_2_name,mouse_1.x,mouse_1.y,mouse_1.leftButton,mouse_1.midButton,mouse_1.rightButton,mouse_1.time,mouse_1.clicked_name,space_press_continue_7.keys,space_press_continue_7.rt,mask_loop.thisRepN,mask_loop.thisTrialN,mask_loop.thisN,mask_loop.thisIndex,mask_loop.ran,mask_loop_2.thisRepN,mask_loop_2.thisTrialN,mask_loop_2.thisN,mask_loop_2.thisIndex,mask_loop_2.ran,mouse.x,mouse.y,mouse.leftButton,mouse.midButton,mouse.rightButton,mouse.clicked_name,trialNumber,mouse_11.x,mouse_11.y,mouse_11.leftButton,mouse_11.midButton,mouse_11.rightButton,mouse_11.clicked_name,first_pass_loop.thisRepN,first_pass_loop.thisTrialN,first_pass_loop.thisN,first_pass_loop.thisIndex,first_pass_loop.ran,mask_loop_3.thisRepN,mask_loop_3.thisTrialN,mask_loop_3.thisN,mask_loop_3.thisIndex,mask_loop_3.ran,mask_loop_4.thisRepN,mask_loop_4.thisTrialN,mask_loop_4.thisN,mask_loop_4.thisIndex,mask_loop_4.ran,mouse_3.x,mouse_3.y,mouse_3.leftButton,mouse_3.midButton,mouse_3.rightButton,mouse_3.clicked_name,double_pass_loop.thisRepN,double_pass_loop.thisTrialN,double_pass_loop.thisN,double_pass_loop.thisIndex,double_pass_loop.ran,space_exit.keys,space_exit.rt
891774,001,2022-11-21_02h00.41.381,Info_measure_main_exp,2022.2.2,Win32,74.86711088,,,,,,,,,,,,,,,,,,,,,,,,,,,,,,,,,,,,,,,,,,,,,,,,,,,,,,,,,,,,,,,,,,,,,,,,,,,,,,,,,,,,,,,,,,,,,,,,,,,,,,,,,,,,,,,
891774,001,2022-11-21_02h00.41.381,Info_measure_main_exp,2022.2.2,Win32,74.86711088,,,,,,,,,,,,,,,,,,,,,,,,,,,,,,,,,,,,,,,,,,,,,,,,,,,,,,,,,,,,,,,,,,,,,,,,,,,,,,,,,,,,,,,,,,,,,,,,,,,,,,,,,,,,,,,
891774,001,2022-11-21_02h00.41.381,Info_measure_main_exp,2022.2.2,Win32,74.86711088,space,125.9968,,,,,,,,,,,,,,,,,,,,,,,,,,,,,,,,,,,,,,,,,,,,,,,,,,,,,,,,,,,,,,,,,,,,,,,,,,,,,,,,,,,,,,,,,,,,,,,,,,,,,,,,,,,,,
891774,001,2022-11-21_02h00.41.381,Info_measure_main_exp,2022.2.2,Win32,74.86711088,,,space,229.6292,,,,,,,,,,,,,,,,,,,,,,,,,,,,,,,,,,,,,,,,,,,,,,,,,,,,,,,,,,,,,,,,,,,,,,,,,,,,,,,,,,,,,,,,,,,,,,,,,,,,,,,,,,,
891774,001,2022-11-21_02h00.41.381,Info_measure_main_exp,2022.2.2,Win32,74.86711088,,,,,space,6.3994,,,,,,,,,,,,,,,,,,,,,,,,,,,,,,,,,,,,,,,,,,,,,,,,,,,,,,,,,,,,,,,,,,,,,,,,,,,,,,,,,,,,,,,,,,,,,,,,,,,,,,,,,
891774,001,2022-11-21_02h00.41.381,Info_measure_main_exp,2022.2.2,Win32,74.86711088,,,,,,,space,95.4516,,,,,,,,,,,,,,,,,,,,,,,,,,,,,,,,,,,,,,,,,,,,,,,,,,,,,,,,,,,,,,,,,,,,,,,,,,,,,,,,,,,,,,,,,,,,,,,,,,,,,,,
891774,001,2022-11-21_02h00.41.381,Info_measure_main_exp,2022.2.2,Win32,74.86711088,,,,,,,,,space,410.3872,,,,,,,,,,,,,,,,,,,,,,,,,,,,,,,,,,,,,,,,,,,,,,,,,,,,,,,,,,,,,,,,,,,,,,,,,,,,,,,,,,,,,,,,,,,,,,,,,,,,,
891774,001,2022-11-21_02h00.41.381,Info_measure_main_exp,2022.2.2,Win32,74.86711088,,,,,,,,,,,space,5.6268,,,,,,,,,,,,,,,,,,,,,,,,,,,,,,,,,,,,,,,,,,,,,,,,,,,,,,,,,,,,,,,,,,,,,,,,,,,,,,,,,,,,,,,,,,,,,,,,,,,
891774,001,2022-11-21_02h00.41.381,Info_measure_main_exp,2022.2.2,Win32,74.86711088,,,,,,,,,,,,,0,0,0,4,1,masks/mask_005.jpg,,,,,,,,,,,,,,,,,,,,,,,,,,,,,,,,,,,,,,,,,,,,,,,,,,,,,,,,,,,,,,,,,,,,,,,,,,,,,,,,,,,,,,,,,,,,,
891774,001,2022-11-21_02h00.41.381,Info_measure_main_exp,2022.2.2,Win32,74.86711088,,,,,,,,,,,,,0,1,1,2,1,masks/mask_003.jpg,,,,,,,,,,,,,,,,,,,,,,,,,,,,,,,,,,,,,,,,,,,,,,,,,,,,,,,,,,,,,,,,,,,,,,,,,,,,,,,,,,,,,,,,,,,,,
891774,001,2022-11-21_02h00.41.381,Info_measure_main_exp,2022.2.2,Win32,74.86711088,,,,,,,,,,,,,0,2,2,0,1,masks/mask_001.jpg,,,,,,,,,,,,,,,,,,,,,,,,,,,,,,,,,,,,,,,,,,,,,,,,,,,,,,,,,,,,,,,,,,,,,,,,,,,,,,,,,,,,,,,,,,,,,
891774,001,2022-11-21_02h00.41.381,Info_measure_main_exp,2022.2.2,Win32,74.86711088,,,,,,,,,,,,,0,3,3,1,1,masks/mask_002.jpg,,,,,,,,,,,,,,,,,,,,,,,,,,,,,,,,,,,,,,,,,,,,,,,,,,,,,,,,,,,,,,,,,,,,,,,,,,,,,,,,,,,,,,,,,,,,,
891774,001,2022-11-21_02h00.41.381,Info_measure_main_exp,2022.2.2,Win32,74.86711088,,,,,,,,,,,,,0,4,4,3,1,masks/mask_004.jpg,,,,,,,,,,,,,,,,,,,,,,,,,,,,,,,,,,,,,,,,,,,,,,,,,,,,,,,,,,,,,,,,,,,,,,,,,,,,,,,,,,,,,,,,,,,,,
891774,001,2022-11-21_02h00.41.381,Info_measure_main_exp,2022.2.2,Win32,74.86711088,,,,,,,,,,,,,,,,,,masks/mask_005.jpg,0,0,0,4,1,,,,,,,,,,,,,,,,,,,,,,,,,,,,,,,,,,,,,,,,,,,,,,,,,,,,,,,,,,,,,,,,,,,,,,,,,,,,,,,,,,,,,,,,
891774,001,2022-11-21_02h00.41.381,Info_measure_main_exp,2022.2.2,Win32,74.86711088,,,,,,,,,,,,,,,,,,masks/mask_004.jpg,0,1,1,3,1,,,,,,,,,,,,,,,,,,,,,,,,,,,,,,,,,,,,,,,,,,,,,,,,,,,,,,,,,,,,,,,,,,,,,,,,,,,,,,,,,,,,,,,,
891774,001,2022-11-21_02h00.41.381,Info_measure_main_exp,2022.2.2,Win32,74.86711088,,,,,,,,,,,,,,,,,,masks/mask_002.jpg,0,2,2,1,1,,,,,,,,,,,,,,,,,,,,,,,,,,,,,,,,,,,,,,,,,,,,,,,,,,,,,,,,,,,,,,,,,,,,,,,,,,,,,,,,,,,,,,,,
891774,001,2022-11-21_02h00.41.381,Info_measure_main_exp,2022.2.2,Win32,74.86711088,,,,,,,,,,,,,,,,,,masks/mask_001.jpg,0,3,3,0,1,,,,,,,,,,,,,,,,,,,,,,,,,,,,,,,,,,,,,,,,,,,,,,,,,,,,,,,,,,,,,,,,,,,,,,,,,,,,,,,,,,,,,,,,
891774,001,2022-11-21_02h00.41.381,Info_measure_main_exp,2022.2.2,Win32,74.86711088,,,,,,,,,,,,,,,,,,masks/mask_003.jpg,0,4,4,2,1,,,,,,,,,,,,,,,,,,,,,,,,,,,,,,,,,,,,,,,,,,,,,,,,,,,,,,,,,,,,,,,,,,,,,,,,,,,,,,,,,,,,,,,,
891774,001,2022-11-21_02h00.41.381,Info_measure_main_exp,2022.2.2,Win32,74.86711088,,,,,,,,,,,,,,,,,,,,,,,,0.059259259,0.140740741,1,0,0,response1disk,7,878.177,1,0.000925926,0.007407407,1,0,0,center_square,0,0,0,0,1,0,131,5,5,2370,2406,prac_patch/patch0002370.jpg,prac_patch/patch0002406.jpg,,,,,,,,,,,,,,,,,,,,,,,,,,,,,,,,,,,,,,,,,,,,,,,,,,,,,,,,,,,,
891774,001,2022-11-21_02h00.41.381,Info_measure_main_exp,2022.2.2,Win32,74.86711088,,,,,,,,,,,,,0,0,0,0,1,masks/mask_001.jpg,,,,,,,,,,,,,,,,,,,,,,,,,,,,,,,,,,,,,,,,,,,,,,,,,,,,,,,,,,,,,,,,,,,,,,,,,,,,,,,,,,,,,,,,,,,,,
891774,001,2022-11-21_02h00.41.381,Info_measure_main_exp,2022.2.2,Win32,74.86711088,,,,,,,,,,,,,0,1,1,1,1,masks/mask_002.jpg,,,,,,,,,,,,,,,,,,,,,,,,,,,,,,,,,,,,,,,,,,,,,,,,,,,,,,,,,,,,,,,,,,,,,,,,,,,,,,,,,,,,,,,,,,,,,
891774,001,2022-11-21_02h00.41.381,Info_measure_main_exp,2022.2.2,Win32,74.86711088,,,,,,,,,,,,,0,2,2,2,1,masks/mask_003.jpg,,,,,,,,,,,,,,,,,,,,,,,,,,,,,,,,,,,,,,,,,,,,,,,,,,,,,,,,,,,,,,,,,,,,,,,,,,,,,,,,,,,,,,,,,,,,,
891774,001,2022-11-21_02h00.41.381,Info_measure_main_exp,2022.2.2,Win32,74.86711088,,,,,,,,,,,,,0,3,3,4,1,masks/mask_005.jpg,,,,,,,,,,,,,,,,,,,,,,,,,,,,,,,,,,,,,,,,,,,,,,,,,,,,,,,,,,,,,,,,,,,,,,,,,,,,,,,,,,,,,,,,,,,,,
891774,001,2022-11-21_02h00.41.381,Info_measure_main_exp,2022.2.2,Win32,74.86711088,,,,,,,,,,,,,0,4,4,3,1,masks/mask_004.jpg,,,,,,,,,,,,,,,,,,,,,,,,,,,,,,,,,,,,,,,,,,,,,,,,,,,,,,,,,,,,,,,,,,,,,,,,,,,,,,,,,,,,,,,,,,,,,
891774,001,2022-11-21_02h00.41.381,Info_measure_main_exp,2022.2.2,Win32,74.86711088,,,,,,,,,,,,,,,,,,masks/mask_002.jpg,0,0,0,1,1,,,,,,,,,,,,,,,,,,,,,,,,,,,,,,,,,,,,,,,,,,,,,,,,,,,,,,,,,,,,,,,,,,,,,,,,,,,,,,,,,,,,,,,,
891774,001,2022-11-21_02h00.41.381,Info_measure_main_exp,2022.2.2,Win32,74.86711088,,,,,,,,,,,,,,,,,,masks/mask_005.jpg,0,1,1,4,1,,,,,,,,,,,,,,,,,,,,,,,,,,,,,,,,,,,,,,,,,,,,,,,,,,,,,,,,,,,,,,,,,,,,,,,,,,,,,,,,,,,,,,,,
891774,001,2022-11-21_02h00.41.381,Info_measure_main_exp,2022.2.2,Win32,74.86711088,,,,,,,,,,,,,,,,,,masks/mask_001.jpg,0,2,2,0,1,,,,,,,,,,,,,,,,,,,,,,,,,,,,,,,,,,,,,,,,,,,,,,,,,,,,,,,,,,,,,,,,,,,,,,,,,,,,,,,,,,,,,,,,
891774,001,2022-11-21_02h00.41.381,Info_measure_main_exp,2022.2.2,Win32,74.86711088,,,,,,,,,,,,,,,,,,masks/mask_003.jpg,0,3,3,2,1,,,,,,,,,,,,,,,,,,,,,,,,,,,,,,,,,,,,,,,,,,,,,,,,,,,,,,,,,,,,,,,,,,,,,,,,,,,,,,,,,,,,,,,,
891774,001,2022-11-21_02h00.41.381,Info_measure_main_exp,2022.2.2,Win32,74.86711088,,,,,,,,,,,,,,,,,,masks/mask_004.jpg,0,4,4,3,1,,,,,,,,,,,,,,,,,,,,,,,,,,,,,,,,,,,,,,,,,,,,,,,,,,,,,,,,,,,,,,,,,,,,,,,,,,,,,,,,,,,,,,,,
891774,001,2022-11-21_02h00.41.381,Info_measure_main_exp,2022.2.2,Win32,74.86711088,,,,,,,,,,,,,,,,,,,,,,,,-0.194444444,0.056481481,1,0,0,response7disk,1,887.389,1,-0.008333333,-0.00462963,1,0,0,center_square,0,1,1,2,1,0,131,5,5,2526,2526,prac_patch/patch0002526.jpg,prac_patch/patch0002526.jpg,,,,,,,,,,,,,,,,,,,,,,,,,,,,,,,,,,,,,,,,,,,,,,,,,,,,,,,,,,,,
891774,001,2022-11-21_02h00.41.381,Info_measure_main_exp,2022.2.2,Win32,74.86711088,,,,,,,,,,,,,0,0,0,0,1,masks/mask_001.jpg,,,,,,,,,,,,,,,,,,,,,,,,,,,,,,,,,,,,,,,,,,,,,,,,,,,,,,,,,,,,,,,,,,,,,,,,,,,,,,,,,,,,,,,,,,,,,
891774,001,2022-11-21_02h00.41.381,Info_measure_main_exp,2022.2.2,Win32,74.86711088,,,,,,,,,,,,,0,1,1,4,1,masks/mask_005.jpg,,,,,,,,,,,,,,,,,,,,,,,,,,,,,,,,,,,,,,,,,,,,,,,,,,,,,,,,,,,,,,,,,,,,,,,,,,,,,,,,,,,,,,,,,,,,,
891774,001,2022-11-21_02h00.41.381,Info_measure_main_exp,2022.2.2,Win32,74.86711088,,,,,,,,,,,,,0,2,2,3,1,masks/mask_004.jpg,,,,,,,,,,,,,,,,,,,,,,,,,,,,,,,,,,,,,,,,,,,,,,,,,,,,,,,,,,,,,,,,,,,,,,,,,,,,,,,,,,,,,,,,,,,,,
891774,001,2022-11-21_02h00.41.381,Info_measure_main_exp,2022.2.2,Win32,74.86711088,,,,,,,,,,,,,0,3,3,1,1,masks/mask_002.jpg,,,,,,,,,,,,,,,,,,,,,,,,,,,,,,,,,,,,,,,,,,,,,,,,,,,,,,,,,,,,,,,,,,,,,,,,,,,,,,,,,,,,,,,,,,,,,
891774,001,2022-11-21_02h00.41.381,Info_measure_main_exp,2022.2.2,Win32,74.86711088,,,,,,,,,,,,,0,4,4,2,1,masks/mask_003.jpg,,,,,,,,,,,,,,,,,,,,,,,,,,,,,,,,,,,,,,,,,,,,,,,,,,,,,,,,,,,,,,,,,,,,,,,,,,,,,,,,,,,,,,,,,,,,,
891774,001,2022-11-21_02h00.41.381,Info_measure_main_exp,2022.2.2,Win32,74.86711088,,,,,,,,,,,,,,,,,,masks/mask_004.jpg,0,0,0,3,1,,,,,,,,,,,,,,,,,,,,,,,,,,,,,,,,,,,,,,,,,,,,,,,,,,,,,,,,,,,,,,,,,,,,,,,,,,,,,,,,,,,,,,,,
891774,001,2022-11-21_02h00.41.381,Info_measure_main_exp,2022.2.2,Win32,74.86711088,,,,,,,,,,,,,,,,,,masks/mask_001.jpg,0,1,1,0,1,,,,,,,,,,,,,,,,,,,,,,,,,,,,,,,,,,,,,,,,,,,,,,,,,,,,,,,,,,,,,,,,,,,,,,,,,,,,,,,,,,,,,,,,
891774,001,2022-11-21_02h00.41.381,Info_measure_main_exp,2022.2.2,Win32,74.86711088,,,,,,,,,,,,,,,,,,masks/mask_005.jpg,0,2,2,4,1,,,,,,,,,,,,,,,,,,,,,,,,,,,,,,,,,,,,,,,,,,,,,,,,,,,,,,,,,,,,,,,,,,,,,,,,,,,,,,,,,,,,,,,,
891774,001,2022-11-21_02h00.41.381,Info_measure_main_exp,2022.2.2,Win32,74.86711088,,,,,,,,,,,,,,,,,,masks/mask_003.jpg,0,3,3,2,1,,,,,,,,,,,,,,,,,,,,,,,,,,,,,,,,,,,,,,,,,,,,,,,,,,,,,,,,,,,,,,,,,,,,,,,,,,,,,,,,,,,,,,,,
891774,001,2022-11-21_02h00.41.381,Info_measure_main_exp,2022.2.2,Win32,74.86711088,,,,,,,,,,,,,,,,,,masks/mask_002.jpg,0,4,4,1,1,,,,,,,,,,,,,,,,,,,,,,,,,,,,,,,,,,,,,,,,,,,,,,,,,,,,,,,,,,,,,,,,,,,,,,,,,,,,,,,,,,,,,,,,
891774,001,2022-11-21_02h00.41.381,Info_measure_main_exp,2022.2.2,Win32,74.86711088,,,,,,,,,,,,,,,,,,,,,,,,0.07962963,-0.138888889,1,0,0,response3disk,4,897.9496,1,-0.001851852,-0.003703704,1,0,0,center_square,0,2,2,1,1,0,131,5,5,2514,2490,prac_patch/patch0002514.jpg,prac_patch/patch0002490.jpg,,,,,,,,,,,,,,,,,,,,,,,,,,,,,,,,,,,,,,,,,,,,,,,,,,,,,,,,,,,,
891774,001,2022-11-21_02h00.41.381,Info_measure_main_exp,2022.2.2,Win32,74.86711088,,,,,,,,,,,,,,,,,,,,,,,,,,,,,,,,,,,,,,,,,,,,,,,,,,,,,,,,,,,space,3.8484,,,,,,,,,,,,,,,,,,,,,,,,,,,,,,,,,,,,,,,,,,,,,,,,,,,
891774,001,2022-11-21_02h00.41.381,Info_measure_main_exp,2022.2.2,Win32,74.86711088,,,,,,,,,,,,,,,,,,masks/mask_004.jpg,,,,,,,,,,,,,,,,,,,,,,,,,,,,,,,,,,,,,,,,,,,0,0,0,3,1,,,,,,,,,,,,,,,,,,,,,,,,,,,,,,,,,,,,,,,,,,,,,,
891774,001,2022-11-21_02h00.41.381,Info_measure_main_exp,2022.2.2,Win32,74.86711088,,,,,,,,,,,,,,,,,,masks/mask_003.jpg,,,,,,,,,,,,,,,,,,,,,,,,,,,,,,,,,,,,,,,,,,,0,1,1,2,1,,,,,,,,,,,,,,,,,,,,,,,,,,,,,,,,,,,,,,,,,,,,,,
891774,001,2022-11-21_02h00.41.381,Info_measure_main_exp,2022.2.2,Win32,74.86711088,,,,,,,,,,,,,,,,,,masks/mask_005.jpg,,,,,,,,,,,,,,,,,,,,,,,,,,,,,,,,,,,,,,,,,,,0,2,2,4,1,,,,,,,,,,,,,,,,,,,,,,,,,,,,,,,,,,,,,,,,,,,,,,
891774,001,2022-11-21_02h00.41.381,Info_measure_main_exp,2022.2.2,Win32,74.86711088,,,,,,,,,,,,,,,,,,masks/mask_002.jpg,,,,,,,,,,,,,,,,,,,,,,,,,,,,,,,,,,,,,,,,,,,0,3,3,1,1,,,,,,,,,,,,,,,,,,,,,,,,,,,,,,,,,,,,,,,,,,,,,,
891774,001,2022-11-21_02h00.41.381,Info_measure_main_exp,2022.2.2,Win32,74.86711088,,,,,,,,,,,,,,,,,,masks/mask_001.jpg,,,,,,,,,,,,,,,,,,,,,,,,,,,,,,,,,,,,,,,,,,,0,4,4,0,1,,,,,,,,,,,,,,,,,,,,,,,,,,,,,,,,,,,,,,,,,,,,,,
891774,001,2022-11-21_02h00.41.381,Info_measure_main_exp,2022.2.2,Win32,74.86711088,,,,,,,,,,,,,,,,,,masks/mask_005.jpg,,,,,,,,,,,,,,,,,,,,,,,,,,,,,,,,,,,,,,,,,,,,,,,,0,0,0,4,1,,,,,,,,,,,,,,,,,,,,,,,,,,,,,,,,,,,,,,,,,
891774,001,2022-11-21_02h00.41.381,Info_measure_main_exp,2022.2.2,Win32,74.86711088,,,,,,,,,,,,,,,,,,masks/mask_002.jpg,,,,,,,,,,,,,,,,,,,,,,,,,,,,,,,,,,,,,,,,,,,,,,,,0,1,1,1,1,,,,,,,,,,,,,,,,,,,,,,,,,,,,,,,,,,,,,,,,,
891774,001,2022-11-21_02h00.41.381,Info_measure_main_exp,2022.2.2,Win32,74.86711088,,,,,,,,,,,,,,,,,,masks/mask_001.jpg,,,,,,,,,,,,,,,,,,,,,,,,,,,,,,,,,,,,,,,,,,,,,,,,0,2,2,0,1,,,,,,,,,,,,,,,,,,,,,,,,,,,,,,,,,,,,,,,,,
891774,001,2022-11-21_02h00.41.381,Info_measure_main_exp,2022.2.2,Win32,74.86711088,,,,,,,,,,,,,,,,,,masks/mask_004.jpg,,,,,,,,,,,,,,,,,,,,,,,,,,,,,,,,,,,,,,,,,,,,,,,,0,3,3,3,1,,,,,,,,,,,,,,,,,,,,,,,,,,,,,,,,,,,,,,,,,
891774,001,2022-11-21_02h00.41.381,Info_measure_main_exp,2022.2.2,Win32,74.86711088,,,,,,,,,,,,,,,,,,masks/mask_003.jpg,,,,,,,,,,,,,,,,,,,,,,,,,,,,,,,,,,,,,,,,,,,,,,,,0,4,4,2,1,,,,,,,,,,,,,,,,,,,,,,,,,,,,,,,,,,,,,,,,,
891774,001,2022-11-21_02h00.41.381,Info_measure_main_exp,2022.2.2,Win32,74.86711088,,,,,,,,,,,,,,,,,,,,,,,,,,,,,,1,1.2669,1,,,,,,,,,,,,0,131,5,5,2190,2190,absent_patch/patch0002190.jpg,absent_patch/patch0002190.jpg,,,,,,,,,,,,,,,,,,,,-0.116666667,0.048148148,1,0,0,response7disk,1,0.000925926,0,1,0,0,center_square,0,0,0,86,1,,,,,,,,,,,,,,,,,,,,,,,
891774,001,2022-11-21_02h00.41.381,Info_measure_main_exp,2022.2.2,Win32,74.86711088,,,,,,,,,,,,,,,,,,masks/mask_005.jpg,,,,,,,,,,,,,,,,,,,,,,,,,,,,,,,,,,,,,,,,,,,0,0,0,4,1,,,,,,,,,,,,,,,,,,,,,,,,,,,,,,,,,,,,,,,,,,,,,,
891774,001,2022-11-21_02h00.41.381,Info_measure_main_exp,2022.2.2,Win32,74.86711088,,,,,,,,,,,,,,,,,,masks/mask_001.jpg,,,,,,,,,,,,,,,,,,,,,,,,,,,,,,,,,,,,,,,,,,,0,1,1,0,1,,,,,,,,,,,,,,,,,,,,,,,,,,,,,,,,,,,,,,,,,,,,,,
891774,001,2022-11-21_02h00.41.381,Info_measure_main_exp,2022.2.2,Win32,74.86711088,,,,,,,,,,,,,,,,,,masks/mask_004.jpg,,,,,,,,,,,,,,,,,,,,,,,,,,,,,,,,,,,,,,,,,,,0,2,2,3,1,,,,,,,,,,,,,,,,,,,,,,,,,,,,,,,,,,,,,,,,,,,,,,
891774,001,2022-11-21_02h00.41.381,Info_measure_main_exp,2022.2.2,Win32,74.86711088,,,,,,,,,,,,,,,,,,masks/mask_002.jpg,,,,,,,,,,,,,,,,,,,,,,,,,,,,,,,,,,,,,,,,,,,0,3,3,1,1,,,,,,,,,,,,,,,,,,,,,,,,,,,,,,,,,,,,,,,,,,,,,,
891774,001,2022-11-21_02h00.41.381,Info_measure_main_exp,2022.2.2,Win32,74.86711088,,,,,,,,,,,,,,,,,,masks/mask_003.jpg,,,,,,,,,,,,,,,,,,,,,,,,,,,,,,,,,,,,,,,,,,,0,4,4,2,1,,,,,,,,,,,,,,,,,,,,,,,,,,,,,,,,,,,,,,,,,,,,,,
891774,001,2022-11-21_02h00.41.381,Info_measure_main_exp,2022.2.2,Win32,74.86711088,,,,,,,,,,,,,,,,,,masks/mask_005.jpg,,,,,,,,,,,,,,,,,,,,,,,,,,,,,,,,,,,,,,,,,,,,,,,,0,0,0,4,1,,,,,,,,,,,,,,,,,,,,,,,,,,,,,,,,,,,,,,,,,
891774,001,2022-11-21_02h00.41.381,Info_measure_main_exp,2022.2.2,Win32,74.86711088,,,,,,,,,,,,,,,,,,masks/mask_002.jpg,,,,,,,,,,,,,,,,,,,,,,,,,,,,,,,,,,,,,,,,,,,,,,,,0,1,1,1,1,,,,,,,,,,,,,,,,,,,,,,,,,,,,,,,,,,,,,,,,,
891774,001,2022-11-21_02h00.41.381,Info_measure_main_exp,2022.2.2,Win32,74.86711088,,,,,,,,,,,,,,,,,,masks/mask_003.jpg,,,,,,,,,,,,,,,,,,,,,,,,,,,,,,,,,,,,,,,,,,,,,,,,0,2,2,2,1,,,,,,,,,,,,,,,,,,,,,,,,,,,,,,,,,,,,,,,,,
891774,001,2022-11-21_02h00.41.381,Info_measure_main_exp,2022.2.2,Win32,74.86711088,,,,,,,,,,,,,,,,,,masks/mask_001.jpg,,,,,,,,,,,,,,,,,,,,,,,,,,,,,,,,,,,,,,,,,,,,,,,,0,3,3,0,1,,,,,,,,,,,,,,,,,,,,,,,,,,,,,,,,,,,,,,,,,
891774,001,2022-11-21_02h00.41.381,Info_measure_main_exp,2022.2.2,Win32,74.86711088,,,,,,,,,,,,,,,,,,masks/mask_004.jpg,,,,,,,,,,,,,,,,,,,,,,,,,,,,,,,,,,,,,,,,,,,,,,,,0,4,4,3,1,,,,,,,,,,,,,,,,,,,,,,,,,,,,,,,,,,,,,,,,,
891774,001,2022-11-21_02h00.41.381,Info_measure_main_exp,2022.2.2,Win32,74.86711088,,,,,,,,,,,,,,,,,,,,,,,,,,,,,,7,2.0801,1,,,,,,,,,,,,0,131,5,5,2250,2214,absent_patch/patch0002250.jpg,absent_patch/patch0002214.jpg,,,,,,,,,,,,,,,,,,,,0.039814815,0.084259259,1,0,0,response1disk,2,-0.00462963,-0.007407407,1,0,0,center_square,0,1,1,97,1,,,,,,,,,,,,,,,,,,,,,,,
891774,001,2022-11-21_02h00.41.381,Info_measure_main_exp,2022.2.2,Win32,74.86711088,,,,,,,,,,,,,,,,,,masks/mask_005.jpg,,,,,,,,,,,,,,,,,,,,,,,,,,,,,,,,,,,,,,,,,,,0,0,0,4,1,,,,,,,,,,,,,,,,,,,,,,,,,,,,,,,,,,,,,,,,,,,,,,
891774,001,2022-11-21_02h00.41.381,Info_measure_main_exp,2022.2.2,Win32,74.86711088,,,,,,,,,,,,,,,,,,masks/mask_002.jpg,,,,,,,,,,,,,,,,,,,,,,,,,,,,,,,,,,,,,,,,,,,0,1,1,1,1,,,,,,,,,,,,,,,,,,,,,,,,,,,,,,,,,,,,,,,,,,,,,,
891774,001,2022-11-21_02h00.41.381,Info_measure_main_exp,2022.2.2,Win32,74.86711088,,,,,,,,,,,,,,,,,,masks/mask_001.jpg,,,,,,,,,,,,,,,,,,,,,,,,,,,,,,,,,,,,,,,,,,,0,2,2,0,1,,,,,,,,,,,,,,,,,,,,,,,,,,,,,,,,,,,,,,,,,,,,,,
891774,001,2022-11-21_02h00.41.381,Info_measure_main_exp,2022.2.2,Win32,74.86711088,,,,,,,,,,,,,,,,,,masks/mask_003.jpg,,,,,,,,,,,,,,,,,,,,,,,,,,,,,,,,,,,,,,,,,,,0,3,3,2,1,,,,,,,,,,,,,,,,,,,,,,,,,,,,,,,,,,,,,,,,,,,,,,
891774,001,2022-11-21_02h00.41.381,Info_measure_main_exp,2022.2.2,Win32,74.86711088,,,,,,,,,,,,,,,,,,masks/mask_004.jpg,,,,,,,,,,,,,,,,,,,,,,,,,,,,,,,,,,,,,,,,,,,0,4,4,3,1,,,,,,,,,,,,,,,,,,,,,,,,,,,,,,,,,,,,,,,,,,,,,,
891774,001,2022-11-21_02h00.41.381,Info_measure_main_exp,2022.2.2,Win32,74.86711088,,,,,,,,,,,,,,,,,,masks/mask_003.jpg,,,,,,,,,,,,,,,,,,,,,,,,,,,,,,,,,,,,,,,,,,,,,,,,0,0,0,2,1,,,,,,,,,,,,,,,,,,,,,,,,,,,,,,,,,,,,,,,,,
891774,001,2022-11-21_02h00.41.381,Info_measure_main_exp,2022.2.2,Win32,74.86711088,,,,,,,,,,,,,,,,,,masks/mask_004.jpg,,,,,,,,,,,,,,,,,,,,,,,,,,,,,,,,,,,,,,,,,,,,,,,,0,1,1,3,1,,,,,,,,,,,,,,,,,,,,,,,,,,,,,,,,,,,,,,,,,
891774,001,2022-11-21_02h00.41.381,Info_measure_main_exp,2022.2.2,Win32,74.86711088,,,,,,,,,,,,,,,,,,masks/mask_005.jpg,,,,,,,,,,,,,,,,,,,,,,,,,,,,,,,,,,,,,,,,,,,,,,,,0,2,2,4,1,,,,,,,,,,,,,,,,,,,,,,,,,,,,,,,,,,,,,,,,,
891774,001,2022-11-21_02h00.41.381,Info_measure_main_exp,2022.2.2,Win32,74.86711088,,,,,,,,,,,,,,,,,,masks/mask_002.jpg,,,,,,,,,,,,,,,,,,,,,,,,,,,,,,,,,,,,,,,,,,,,,,,,0,3,3,1,1,,,,,,,,,,,,,,,,,,,,,,,,,,,,,,,,,,,,,,,,,
891774,001,2022-11-21_02h00.41.381,Info_measure_main_exp,2022.2.2,Win32,74.86711088,,,,,,,,,,,,,,,,,,masks/mask_001.jpg,,,,,,,,,,,,,,,,,,,,,,,,,,,,,,,,,,,,,,,,,,,,,,,,0,4,4,0,1,,,,,,,,,,,,,,,,,,,,,,,,,,,,,,,,,,,,,,,,,
891774,001,2022-11-21_02h00.41.381,Info_measure_main_exp,2022.2.2,Win32,74.86711088,,,,,,,,,,,,,,,,,,,,,,,,,,,,,,6,1.4669,1,,,,,,,,,,,,0,131,5,5,2142,2082,absent_patch/patch0002142.jpg,absent_patch/patch0002082.jpg,,,,,,,,,,,,,,,,,,,,0.105555556,0.037037037,1,0,0,response1disk,3,-0.001851852,0.002777778,1,0,0,center_square,0,2,2,88,1,,,,,,,,,,,,,,,,,,,,,,,
891774,001,2022-11-21_02h00.41.381,Info_measure_main_exp,2022.2.2,Win32,74.86711088,,,,,,,,,,,,,,,,,,masks/mask_001.jpg,,,,,,,,,,,,,,,,,,,,,,,,,,,,,,,,,,,,,,,,,,,0,0,0,0,1,,,,,,,,,,,,,,,,,,,,,,,,,,,,,,,,,,,,,,,,,,,,,,
891774,001,2022-11-21_02h00.41.381,Info_measure_main_exp,2022.2.2,Win32,74.86711088,,,,,,,,,,,,,,,,,,masks/mask_004.jpg,,,,,,,,,,,,,,,,,,,,,,,,,,,,,,,,,,,,,,,,,,,0,1,1,3,1,,,,,,,,,,,,,,,,,,,,,,,,,,,,,,,,,,,,,,,,,,,,,,
891774,001,2022-11-21_02h00.41.381,Info_measure_main_exp,2022.2.2,Win32,74.86711088,,,,,,,,,,,,,,,,,,masks/mask_002.jpg,,,,,,,,,,,,,,,,,,,,,,,,,,,,,,,,,,,,,,,,,,,0,2,2,1,1,,,,,,,,,,,,,,,,,,,,,,,,,,,,,,,,,,,,,,,,,,,,,,
891774,001,2022-11-21_02h00.41.381,Info_measure_main_exp,2022.2.2,Win32,74.86711088,,,,,,,,,,,,,,,,,,masks/mask_005.jpg,,,,,,,,,,,,,,,,,,,,,,,,,,,,,,,,,,,,,,,,,,,0,3,3,4,1,,,,,,,,,,,,,,,,,,,,,,,,,,,,,,,,,,,,,,,,,,,,,,
891774,001,2022-11-21_02h00.41.381,Info_measure_main_exp,2022.2.2,Win32,74.86711088,,,,,,,,,,,,,,,,,,masks/mask_003.jpg,,,,,,,,,,,,,,,,,,,,,,,,,,,,,,,,,,,,,,,,,,,0,4,4,2,1,,,,,,,,,,,,,,,,,,,,,,,,,,,,,,,,,,,,,,,,,,,,,,
891774,001,2022-11-21_02h00.41.381,Info_measure_main_exp,2022.2.2,Win32,74.86711088,,,,,,,,,,,,,,,,,,masks/mask_004.jpg,,,,,,,,,,,,,,,,,,,,,,,,,,,,,,,,,,,,,,,,,,,,,,,,0,0,0,3,1,,,,,,,,,,,,,,,,,,,,,,,,,,,,,,,,,,,,,,,,,
891774,001,2022-11-21_02h00.41.381,Info_measure_main_exp,2022.2.2,Win32,74.86711088,,,,,,,,,,,,,,,,,,masks/mask_001.jpg,,,,,,,,,,,,,,,,,,,,,,,,,,,,,,,,,,,,,,,,,,,,,,,,0,1,1,0,1,,,,,,,,,,,,,,,,,,,,,,,,,,,,,,,,,,,,,,,,,
891774,001,2022-11-21_02h00.41.381,Info_measure_main_exp,2022.2.2,Win32,74.86711088,,,,,,,,,,,,,,,,,,masks/mask_005.jpg,,,,,,,,,,,,,,,,,,,,,,,,,,,,,,,,,,,,,,,,,,,,,,,,0,2,2,4,1,,,,,,,,,,,,,,,,,,,,,,,,,,,,,,,,,,,,,,,,,
891774,001,2022-11-21_02h00.41.381,Info_measure_main_exp,2022.2.2,Win32,74.86711088,,,,,,,,,,,,,,,,,,masks/mask_003.jpg,,,,,,,,,,,,,,,,,,,,,,,,,,,,,,,,,,,,,,,,,,,,,,,,0,3,3,2,1,,,,,,,,,,,,,,,,,,,,,,,,,,,,,,,,,,,,,,,,,
891774,001,2022-11-21_02h00.41.381,Info_measure_main_exp,2022.2.2,Win32,74.86711088,,,,,,,,,,,,,,,,,,masks/mask_002.jpg,,,,,,,,,,,,,,,,,,,,,,,,,,,,,,,,,,,,,,,,,,,,,,,,0,4,4,1,1,,,,,,,,,,,,,,,,,,,,,,,,,,,,,,,,,,,,,,,,,
891774,001,2022-11-21_02h00.41.381,Info_measure_main_exp,2022.2.2,Win32,74.86711088,,,,,,,,,,,,,,,,,,,,,,,,,,,,,,7,0.7332,1,,,,,,,,,,,,0,131,5,5,2178,2166,absent_patch/patch0002178.jpg,absent_patch/patch0002166.jpg,,,,,,,,,,,,,,,,,,,,0.044444444,0.112037037,1,0,0,response1disk,4,0.008333333,0.002777778,1,0,0,center_square,0,3,3,72,1,,,,,,,,,,,,,,,,,,,,,,,
891774,001,2022-11-21_02h00.41.381,Info_measure_main_exp,2022.2.2,Win32,74.86711088,,,,,,,,,,,,,,,,,,masks/mask_004.jpg,,,,,,,,,,,,,,,,,,,,,,,,,,,,,,,,,,,,,,,,,,,0,0,0,3,1,,,,,,,,,,,,,,,,,,,,,,,,,,,,,,,,,,,,,,,,,,,,,,
891774,001,2022-11-21_02h00.41.381,Info_measure_main_exp,2022.2.2,Win32,74.86711088,,,,,,,,,,,,,,,,,,masks/mask_002.jpg,,,,,,,,,,,,,,,,,,,,,,,,,,,,,,,,,,,,,,,,,,,0,1,1,1,1,,,,,,,,,,,,,,,,,,,,,,,,,,,,,,,,,,,,,,,,,,,,,,
891774,001,2022-11-21_02h00.41.381,Info_measure_main_exp,2022.2.2,Win32,74.86711088,,,,,,,,,,,,,,,,,,masks/mask_001.jpg,,,,,,,,,,,,,,,,,,,,,,,,,,,,,,,,,,,,,,,,,,,0,2,2,0,1,,,,,,,,,,,,,,,,,,,,,,,,,,,,,,,,,,,,,,,,,,,,,,
891774,001,2022-11-21_02h00.41.381,Info_measure_main_exp,2022.2.2,Win32,74.86711088,,,,,,,,,,,,,,,,,,masks/mask_003.jpg,,,,,,,,,,,,,,,,,,,,,,,,,,,,,,,,,,,,,,,,,,,0,3,3,2,1,,,,,,,,,,,,,,,,,,,,,,,,,,,,,,,,,,,,,,,,,,,,,,
891774,001,2022-11-21_02h00.41.381,Info_measure_main_exp,2022.2.2,Win32,74.86711088,,,,,,,,,,,,,,,,,,masks/mask_005.jpg,,,,,,,,,,,,,,,,,,,,,,,,,,,,,,,,,,,,,,,,,,,0,4,4,4,1,,,,,,,,,,,,,,,,,,,,,,,,,,,,,,,,,,,,,,,,,,,,,,
891774,001,2022-11-21_02h00.41.381,Info_measure_main_exp,2022.2.2,Win32,74.86711088,,,,,,,,,,,,,,,,,,masks/mask_004.jpg,,,,,,,,,,,,,,,,,,,,,,,,,,,,,,,,,,,,,,,,,,,,,,,,0,0,0,3,1,,,,,,,,,,,,,,,,,,,,,,,,,,,,,,,,,,,,,,,,,
891774,001,2022-11-21_02h00.41.381,Info_measure_main_exp,2022.2.2,Win32,74.86711088,,,,,,,,,,,,,,,,,,masks/mask_001.jpg,,,,,,,,,,,,,,,,,,,,,,,,,,,,,,,,,,,,,,,,,,,,,,,,0,1,1,0,1,,,,,,,,,,,,,,,,,,,,,,,,,,,,,,,,,,,,,,,,,
891774,001,2022-11-21_02h00.41.381,Info_measure_main_exp,2022.2.2,Win32,74.86711088,,,,,,,,,,,,,,,,,,masks/mask_003.jpg,,,,,,,,,,,,,,,,,,,,,,,,,,,,,,,,,,,,,,,,,,,,,,,,0,2,2,2,1,,,,,,,,,,,,,,,,,,,,,,,,,,,,,,,,,,,,,,,,,
891774,001,2022-11-21_02h00.41.381,Info_measure_main_exp,2022.2.2,Win32,74.86711088,,,,,,,,,,,,,,,,,,masks/mask_002.jpg,,,,,,,,,,,,,,,,,,,,,,,,,,,,,,,,,,,,,,,,,,,,,,,,0,3,3,1,1,,,,,,,,,,,,,,,,,,,,,,,,,,,,,,,,,,,,,,,,,
891774,001,2022-11-21_02h00.41.381,Info_measure_main_exp,2022.2.2,Win32,74.86711088,,,,,,,,,,,,,,,,,,masks/mask_005.jpg,,,,,,,,,,,,,,,,,,,,,,,,,,,,,,,,,,,,,,,,,,,,,,,,0,4,4,4,1,,,,,,,,,,,,,,,,,,,,,,,,,,,,,,,,,,,,,,,,,
891774,001,2022-11-21_02h00.41.381,Info_measure_main_exp,2022.2.2,Win32,74.86711088,,,,,,,,,,,,,,,,,,,,,,,,,,,,,,7,0.5866,1,,,,,,,,,,,,1,131,5,5,1,2142,present_patch/cong_131_5_a.jpg,absent_patch/patch0002142.jpg,,,,,,,,,,,,,,,,,,,,0.025925926,0.082407407,1,0,0,response1disk,5,-0.00462963,-0.003703704,1,0,0,center_square,0,4,4,80,1,,,,,,,,,,,,,,,,,,,,,,,
891774,001,2022-11-21_02h00.41.381,Info_measure_main_exp,2022.2.2,Win32,74.86711088,,,,,,,,,,,,,,,,,,masks/mask_001.jpg,,,,,,,,,,,,,,,,,,,,,,,,,,,,,,,,,,,,,,,,,,,0,0,0,0,1,,,,,,,,,,,,,,,,,,,,,,,,,,,,,,,,,,,,,,,,,,,,,,
891774,001,2022-11-21_02h00.41.381,Info_measure_main_exp,2022.2.2,Win32,74.86711088,,,,,,,,,,,,,,,,,,masks/mask_005.jpg,,,,,,,,,,,,,,,,,,,,,,,,,,,,,,,,,,,,,,,,,,,0,1,1,4,1,,,,,,,,,,,,,,,,,,,,,,,,,,,,,,,,,,,,,,,,,,,,,,
891774,001,2022-11-21_02h00.41.381,Info_measure_main_exp,2022.2.2,Win32,74.86711088,,,,,,,,,,,,,,,,,,masks/mask_004.jpg,,,,,,,,,,,,,,,,,,,,,,,,,,,,,,,,,,,,,,,,,,,0,2,2,3,1,,,,,,,,,,,,,,,,,,,,,,,,,,,,,,,,,,,,,,,,,,,,,,
891774,001,2022-11-21_02h00.41.381,Info_measure_main_exp,2022.2.2,Win32,74.86711088,,,,,,,,,,,,,,,,,,masks/mask_002.jpg,,,,,,,,,,,,,,,,,,,,,,,,,,,,,,,,,,,,,,,,,,,0,3,3,1,1,,,,,,,,,,,,,,,,,,,,,,,,,,,,,,,,,,,,,,,,,,,,,,
891774,001,2022-11-21_02h00.41.381,Info_measure_main_exp,2022.2.2,Win32,74.86711088,,,,,,,,,,,,,,,,,,masks/mask_003.jpg,,,,,,,,,,,,,,,,,,,,,,,,,,,,,,,,,,,,,,,,,,,0,4,4,2,1,,,,,,,,,,,,,,,,,,,,,,,,,,,,,,,,,,,,,,,,,,,,,,
891774,001,2022-11-21_02h00.41.381,Info_measure_main_exp,2022.2.2,Win32,74.86711088,,,,,,,,,,,,,,,,,,masks/mask_003.jpg,,,,,,,,,,,,,,,,,,,,,,,,,,,,,,,,,,,,,,,,,,,,,,,,0,0,0,2,1,,,,,,,,,,,,,,,,,,,,,,,,,,,,,,,,,,,,,,,,,
891774,001,2022-11-21_02h00.41.381,Info_measure_main_exp,2022.2.2,Win32,74.86711088,,,,,,,,,,,,,,,,,,masks/mask_002.jpg,,,,,,,,,,,,,,,,,,,,,,,,,,,,,,,,,,,,,,,,,,,,,,,,0,1,1,1,1,,,,,,,,,,,,,,,,,,,,,,,,,,,,,,,,,,,,,,,,,
891774,001,2022-11-21_02h00.41.381,Info_measure_main_exp,2022.2.2,Win32,74.86711088,,,,,,,,,,,,,,,,,,masks/mask_001.jpg,,,,,,,,,,,,,,,,,,,,,,,,,,,,,,,,,,,,,,,,,,,,,,,,0,2,2,0,1,,,,,,,,,,,,,,,,,,,,,,,,,,,,,,,,,,,,,,,,,
891774,001,2022-11-21_02h00.41.381,Info_measure_main_exp,2022.2.2,Win32,74.86711088,,,,,,,,,,,,,,,,,,masks/mask_005.jpg,,,,,,,,,,,,,,,,,,,,,,,,,,,,,,,,,,,,,,,,,,,,,,,,0,3,3,4,1,,,,,,,,,,,,,,,,,,,,,,,,,,,,,,,,,,,,,,,,,
891774,001,2022-11-21_02h00.41.381,Info_measure_main_exp,2022.2.2,Win32,74.86711088,,,,,,,,,,,,,,,,,,masks/mask_004.jpg,,,,,,,,,,,,,,,,,,,,,,,,,,,,,,,,,,,,,,,,,,,,,,,,0,4,4,3,1,,,,,,,,,,,,,,,,,,,,,,,,,,,,,,,,,,,,,,,,,
891774,001,2022-11-21_02h00.41.381,Info_measure_main_exp,2022.2.2,Win32,74.86711088,,,,,,,,,,,,,,,,,,,,,,,,,,,,,,6,1.84,1,,,,,,,,,,,,0,131,5,5,2298,2178,absent_patch/patch0002298.jpg,absent_patch/patch0002178.jpg,,,,,,,,,,,,,,,,,,,,0.103703704,0.026851852,1,0,0,response1disk,6,-0.010185185,-0.005555556,1,0,0,center_square,0,5,5,84,1,,,,,,,,,,,,,,,,,,,,,,,
891774,001,2022-11-21_02h00.41.381,Info_measure_main_exp,2022.2.2,Win32,74.86711088,,,,,,,,,,,,,,,,,,masks/mask_001.jpg,,,,,,,,,,,,,,,,,,,,,,,,,,,,,,,,,,,,,,,,,,,0,0,0,0,1,,,,,,,,,,,,,,,,,,,,,,,,,,,,,,,,,,,,,,,,,,,,,,
891774,001,2022-11-21_02h00.41.381,Info_measure_main_exp,2022.2.2,Win32,74.86711088,,,,,,,,,,,,,,,,,,masks/mask_003.jpg,,,,,,,,,,,,,,,,,,,,,,,,,,,,,,,,,,,,,,,,,,,0,1,1,2,1,,,,,,,,,,,,,,,,,,,,,,,,,,,,,,,,,,,,,,,,,,,,,,
891774,001,2022-11-21_02h00.41.381,Info_measure_main_exp,2022.2.2,Win32,74.86711088,,,,,,,,,,,,,,,,,,masks/mask_002.jpg,,,,,,,,,,,,,,,,,,,,,,,,,,,,,,,,,,,,,,,,,,,0,2,2,1,1,,,,,,,,,,,,,,,,,,,,,,,,,,,,,,,,,,,,,,,,,,,,,,
891774,001,2022-11-21_02h00.41.381,Info_measure_main_exp,2022.2.2,Win32,74.86711088,,,,,,,,,,,,,,,,,,masks/mask_005.jpg,,,,,,,,,,,,,,,,,,,,,,,,,,,,,,,,,,,,,,,,,,,0,3,3,4,1,,,,,,,,,,,,,,,,,,,,,,,,,,,,,,,,,,,,,,,,,,,,,,
891774,001,2022-11-21_02h00.41.381,Info_measure_main_exp,2022.2.2,Win32,74.86711088,,,,,,,,,,,,,,,,,,masks/mask_004.jpg,,,,,,,,,,,,,,,,,,,,,,,,,,,,,,,,,,,,,,,,,,,0,4,4,3,1,,,,,,,,,,,,,,,,,,,,,,,,,,,,,,,,,,,,,,,,,,,,,,
891774,001,2022-11-21_02h00.41.381,Info_measure_main_exp,2022.2.2,Win32,74.86711088,,,,,,,,,,,,,,,,,,masks/mask_003.jpg,,,,,,,,,,,,,,,,,,,,,,,,,,,,,,,,,,,,,,,,,,,,,,,,0,0,0,2,1,,,,,,,,,,,,,,,,,,,,,,,,,,,,,,,,,,,,,,,,,
891774,001,2022-11-21_02h00.41.381,Info_measure_main_exp,2022.2.2,Win32,74.86711088,,,,,,,,,,,,,,,,,,masks/mask_002.jpg,,,,,,,,,,,,,,,,,,,,,,,,,,,,,,,,,,,,,,,,,,,,,,,,0,1,1,1,1,,,,,,,,,,,,,,,,,,,,,,,,,,,,,,,,,,,,,,,,,
891774,001,2022-11-21_02h00.41.381,Info_measure_main_exp,2022.2.2,Win32,74.86711088,,,,,,,,,,,,,,,,,,masks/mask_001.jpg,,,,,,,,,,,,,,,,,,,,,,,,,,,,,,,,,,,,,,,,,,,,,,,,0,2,2,0,1,,,,,,,,,,,,,,,,,,,,,,,,,,,,,,,,,,,,,,,,,
891774,001,2022-11-21_02h00.41.381,Info_measure_main_exp,2022.2.2,Win32,74.86711088,,,,,,,,,,,,,,,,,,masks/mask_005.jpg,,,,,,,,,,,,,,,,,,,,,,,,,,,,,,,,,,,,,,,,,,,,,,,,0,3,3,4,1,,,,,,,,,,,,,,,,,,,,,,,,,,,,,,,,,,,,,,,,,
891774,001,2022-11-21_02h00.41.381,Info_measure_main_exp,2022.2.2,Win32,74.86711088,,,,,,,,,,,,,,,,,,masks/mask_004.jpg,,,,,,,,,,,,,,,,,,,,,,,,,,,,,,,,,,,,,,,,,,,,,,,,0,4,4,3,1,,,,,,,,,,,,,,,,,,,,,,,,,,,,,,,,,,,,,,,,,
891774,001,2022-11-21_02h00.41.381,Info_measure_main_exp,2022.2.2,Win32,74.86711088,,,,,,,,,,,,,,,,,,,,,,,,,,,,,,5,3.4134,1,,,,,,,,,,,,0,131,5,5,2166,1986,absent_patch/patch0002166.jpg,absent_patch/patch0001986.jpg,,,,,,,,,,,,,,,,,,,,0.124074074,-0.017592593,1,0,0,response3disk,7,-0.002777778,-0.001851852,1,0,0,center_square,0,6,6,47,1,,,,,,,,,,,,,,,,,,,,,,,
891774,001,2022-11-21_02h00.41.381,Info_measure_main_exp,2022.2.2,Win32,74.86711088,,,,,,,,,,,,,,,,,,masks/mask_003.jpg,,,,,,,,,,,,,,,,,,,,,,,,,,,,,,,,,,,,,,,,,,,0,0,0,2,1,,,,,,,,,,,,,,,,,,,,,,,,,,,,,,,,,,,,,,,,,,,,,,
891774,001,2022-11-21_02h00.41.381,Info_measure_main_exp,2022.2.2,Win32,74.86711088,,,,,,,,,,,,,,,,,,masks/mask_004.jpg,,,,,,,,,,,,,,,,,,,,,,,,,,,,,,,,,,,,,,,,,,,0,1,1,3,1,,,,,,,,,,,,,,,,,,,,,,,,,,,,,,,,,,,,,,,,,,,,,,
891774,001,2022-11-21_02h00.41.381,Info_measure_main_exp,2022.2.2,Win32,74.86711088,,,,,,,,,,,,,,,,,,masks/mask_001.jpg,,,,,,,,,,,,,,,,,,,,,,,,,,,,,,,,,,,,,,,,,,,0,2,2,0,1,,,,,,,,,,,,,,,,,,,,,,,,,,,,,,,,,,,,,,,,,,,,,,
891774,001,2022-11-21_02h00.41.381,Info_measure_main_exp,2022.2.2,Win32,74.86711088,,,,,,,,,,,,,,,,,,masks/mask_002.jpg,,,,,,,,,,,,,,,,,,,,,,,,,,,,,,,,,,,,,,,,,,,0,3,3,1,1,,,,,,,,,,,,,,,,,,,,,,,,,,,,,,,,,,,,,,,,,,,,,,
891774,001,2022-11-21_02h00.41.381,Info_measure_main_exp,2022.2.2,Win32,74.86711088,,,,,,,,,,,,,,,,,,masks/mask_005.jpg,,,,,,,,,,,,,,,,,,,,,,,,,,,,,,,,,,,,,,,,,,,0,4,4,4,1,,,,,,,,,,,,,,,,,,,,,,,,,,,,,,,,,,,,,,,,,,,,,,
891774,001,2022-11-21_02h00.41.381,Info_measure_main_exp,2022.2.2,Win32,74.86711088,,,,,,,,,,,,,,,,,,masks/mask_003.jpg,,,,,,,,,,,,,,,,,,,,,,,,,,,,,,,,,,,,,,,,,,,,,,,,0,0,0,2,1,,,,,,,,,,,,,,,,,,,,,,,,,,,,,,,,,,,,,,,,,
891774,001,2022-11-21_02h00.41.381,Info_measure_main_exp,2022.2.2,Win32,74.86711088,,,,,,,,,,,,,,,,,,masks/mask_004.jpg,,,,,,,,,,,,,,,,,,,,,,,,,,,,,,,,,,,,,,,,,,,,,,,,0,1,1,3,1,,,,,,,,,,,,,,,,,,,,,,,,,,,,,,,,,,,,,,,,,
891774,001,2022-11-21_02h00.41.381,Info_measure_main_exp,2022.2.2,Win32,74.86711088,,,,,,,,,,,,,,,,,,masks/mask_002.jpg,,,,,,,,,,,,,,,,,,,,,,,,,,,,,,,,,,,,,,,,,,,,,,,,0,2,2,1,1,,,,,,,,,,,,,,,,,,,,,,,,,,,,,,,,,,,,,,,,,
891774,001,2022-11-21_02h00.41.381,Info_measure_main_exp,2022.2.2,Win32,74.86711088,,,,,,,,,,,,,,,,,,masks/mask_005.jpg,,,,,,,,,,,,,,,,,,,,,,,,,,,,,,,,,,,,,,,,,,,,,,,,0,3,3,4,1,,,,,,,,,,,,,,,,,,,,,,,,,,,,,,,,,,,,,,,,,
891774,001,2022-11-21_02h00.41.381,Info_measure_main_exp,2022.2.2,Win32,74.86711088,,,,,,,,,,,,,,,,,,masks/mask_001.jpg,,,,,,,,,,,,,,,,,,,,,,,,,,,,,,,,,,,,,,,,,,,,,,,,0,4,4,0,1,,,,,,,,,,,,,,,,,,,,,,,,,,,,,,,,,,,,,,,,,
891774,001,2022-11-21_02h00.41.381,Info_measure_main_exp,2022.2.2,Win32,74.86711088,,,,,,,,,,,,,,,,,,,,,,,,,,,,,,1,0.8266,1,,,,,,,,,,,,0,131,5,5,2178,2178,absent_patch/patch0002178.jpg,absent_patch/patch0002178.jpg,,,,,,,,,,,,,,,,,,,,-0.085185185,0.036111111,1,0,0,response7disk,8,0.00462963,-0.001851852,1,0,0,center_square,0,7,7,98,1,,,,,,,,,,,,,,,,,,,,,,,
891774,001,2022-11-21_02h00.41.381,Info_measure_main_exp,2022.2.2,Win32,74.86711088,,,,,,,,,,,,,,,,,,masks/mask_002.jpg,,,,,,,,,,,,,,,,,,,,,,,,,,,,,,,,,,,,,,,,,,,0,0,0,1,1,,,,,,,,,,,,,,,,,,,,,,,,,,,,,,,,,,,,,,,,,,,,,,
891774,001,2022-11-21_02h00.41.381,Info_measure_main_exp,2022.2.2,Win32,74.86711088,,,,,,,,,,,,,,,,,,masks/mask_003.jpg,,,,,,,,,,,,,,,,,,,,,,,,,,,,,,,,,,,,,,,,,,,0,1,1,2,1,,,,,,,,,,,,,,,,,,,,,,,,,,,,,,,,,,,,,,,,,,,,,,
891774,001,2022-11-21_02h00.41.381,Info_measure_main_exp,2022.2.2,Win32,74.86711088,,,,,,,,,,,,,,,,,,masks/mask_004.jpg,,,,,,,,,,,,,,,,,,,,,,,,,,,,,,,,,,,,,,,,,,,0,2,2,3,1,,,,,,,,,,,,,,,,,,,,,,,,,,,,,,,,,,,,,,,,,,,,,,
891774,001,2022-11-21_02h00.41.381,Info_measure_main_exp,2022.2.2,Win32,74.86711088,,,,,,,,,,,,,,,,,,masks/mask_005.jpg,,,,,,,,,,,,,,,,,,,,,,,,,,,,,,,,,,,,,,,,,,,0,3,3,4,1,,,,,,,,,,,,,,,,,,,,,,,,,,,,,,,,,,,,,,,,,,,,,,
891774,001,2022-11-21_02h00.41.381,Info_measure_main_exp,2022.2.2,Win32,74.86711088,,,,,,,,,,,,,,,,,,masks/mask_001.jpg,,,,,,,,,,,,,,,,,,,,,,,,,,,,,,,,,,,,,,,,,,,0,4,4,0,1,,,,,,,,,,,,,,,,,,,,,,,,,,,,,,,,,,,,,,,,,,,,,,
891774,001,2022-11-21_02h00.41.381,Info_measure_main_exp,2022.2.2,Win32,74.86711088,,,,,,,,,,,,,,,,,,masks/mask_001.jpg,,,,,,,,,,,,,,,,,,,,,,,,,,,,,,,,,,,,,,,,,,,,,,,,0,0,0,0,1,,,,,,,,,,,,,,,,,,,,,,,,,,,,,,,,,,,,,,,,,
891774,001,2022-11-21_02h00.41.381,Info_measure_main_exp,2022.2.2,Win32,74.86711088,,,,,,,,,,,,,,,,,,masks/mask_005.jpg,,,,,,,,,,,,,,,,,,,,,,,,,,,,,,,,,,,,,,,,,,,,,,,,0,1,1,4,1,,,,,,,,,,,,,,,,,,,,,,,,,,,,,,,,,,,,,,,,,
891774,001,2022-11-21_02h00.41.381,Info_measure_main_exp,2022.2.2,Win32,74.86711088,,,,,,,,,,,,,,,,,,masks/mask_004.jpg,,,,,,,,,,,,,,,,,,,,,,,,,,,,,,,,,,,,,,,,,,,,,,,,0,2,2,3,1,,,,,,,,,,,,,,,,,,,,,,,,,,,,,,,,,,,,,,,,,
891774,001,2022-11-21_02h00.41.381,Info_measure_main_exp,2022.2.2,Win32,74.86711088,,,,,,,,,,,,,,,,,,masks/mask_002.jpg,,,,,,,,,,,,,,,,,,,,,,,,,,,,,,,,,,,,,,,,,,,,,,,,0,3,3,1,1,,,,,,,,,,,,,,,,,,,,,,,,,,,,,,,,,,,,,,,,,
891774,001,2022-11-21_02h00.41.381,Info_measure_main_exp,2022.2.2,Win32,74.86711088,,,,,,,,,,,,,,,,,,masks/mask_003.jpg,,,,,,,,,,,,,,,,,,,,,,,,,,,,,,,,,,,,,,,,,,,,,,,,0,4,4,2,1,,,,,,,,,,,,,,,,,,,,,,,,,,,,,,,,,,,,,,,,,
891774,001,2022-11-21_02h00.41.381,Info_measure_main_exp,2022.2.2,Win32,74.86711088,,,,,,,,,,,,,,,,,,,,,,,,,,,,,,4,1.6802,1,,,,,,,,,,,,0,131,5,5,2250,1950,absent_patch/patch0002250.jpg,absent_patch/patch0001950.jpg,,,,,,,,,,,,,,,,,,,,0.04537037,-0.071296296,1,0,0,response3disk,9,-0.006481481,0.007407407,1,0,0,center_square,0,8,8,16,1,,,,,,,,,,,,,,,,,,,,,,,
891774,001,2022-11-21_02h00.41.381,Info_measure_main_exp,2022.2.2,Win32,74.86711088,,,,,,,,,,,,,,,,,,masks/mask_003.jpg,,,,,,,,,,,,,,,,,,,,,,,,,,,,,,,,,,,,,,,,,,,0,0,0,2,1,,,,,,,,,,,,,,,,,,,,,,,,,,,,,,,,,,,,,,,,,,,,,,
891774,001,2022-11-21_02h00.41.381,Info_measure_main_exp,2022.2.2,Win32,74.86711088,,,,,,,,,,,,,,,,,,masks/mask_001.jpg,,,,,,,,,,,,,,,,,,,,,,,,,,,,,,,,,,,,,,,,,,,0,1,1,0,1,,,,,,,,,,,,,,,,,,,,,,,,,,,,,,,,,,,,,,,,,,,,,,
891774,001,2022-11-21_02h00.41.381,Info_measure_main_exp,2022.2.2,Win32,74.86711088,,,,,,,,,,,,,,,,,,masks/mask_004.jpg,,,,,,,,,,,,,,,,,,,,,,,,,,,,,,,,,,,,,,,,,,,0,2,2,3,1,,,,,,,,,,,,,,,,,,,,,,,,,,,,,,,,,,,,,,,,,,,,,,
891774,001,2022-11-21_02h00.41.381,Info_measure_main_exp,2022.2.2,Win32,74.86711088,,,,,,,,,,,,,,,,,,masks/mask_002.jpg,,,,,,,,,,,,,,,,,,,,,,,,,,,,,,,,,,,,,,,,,,,0,3,3,1,1,,,,,,,,,,,,,,,,,,,,,,,,,,,,,,,,,,,,,,,,,,,,,,
891774,001,2022-11-21_02h00.41.381,Info_measure_main_exp,2022.2.2,Win32,74.86711088,,,,,,,,,,,,,,,,,,masks/mask_005.jpg,,,,,,,,,,,,,,,,,,,,,,,,,,,,,,,,,,,,,,,,,,,0,4,4,4,1,,,,,,,,,,,,,,,,,,,,,,,,,,,,,,,,,,,,,,,,,,,,,,
891774,001,2022-11-21_02h00.41.381,Info_measure_main_exp,2022.2.2,Win32,74.86711088,,,,,,,,,,,,,,,,,,masks/mask_004.jpg,,,,,,,,,,,,,,,,,,,,,,,,,,,,,,,,,,,,,,,,,,,,,,,,0,0,0,3,1,,,,,,,,,,,,,,,,,,,,,,,,,,,,,,,,,,,,,,,,,
891774,001,2022-11-21_02h00.41.381,Info_measure_main_exp,2022.2.2,Win32,74.86711088,,,,,,,,,,,,,,,,,,masks/mask_003.jpg,,,,,,,,,,,,,,,,,,,,,,,,,,,,,,,,,,,,,,,,,,,,,,,,0,1,1,2,1,,,,,,,,,,,,,,,,,,,,,,,,,,,,,,,,,,,,,,,,,
891774,001,2022-11-21_02h00.41.381,Info_measure_main_exp,2022.2.2,Win32,74.86711088,,,,,,,,,,,,,,,,,,masks/mask_005.jpg,,,,,,,,,,,,,,,,,,,,,,,,,,,,,,,,,,,,,,,,,,,,,,,,0,2,2,4,1,,,,,,,,,,,,,,,,,,,,,,,,,,,,,,,,,,,,,,,,,
891774,001,2022-11-21_02h00.41.381,Info_measure_main_exp,2022.2.2,Win32,74.86711088,,,,,,,,,,,,,,,,,,masks/mask_002.jpg,,,,,,,,,,,,,,,,,,,,,,,,,,,,,,,,,,,,,,,,,,,,,,,,0,3,3,1,1,,,,,,,,,,,,,,,,,,,,,,,,,,,,,,,,,,,,,,,,,
891774,001,2022-11-21_02h00.41.381,Info_measure_main_exp,2022.2.2,Win32,74.86711088,,,,,,,,,,,,,,,,,,masks/mask_001.jpg,,,,,,,,,,,,,,,,,,,,,,,,,,,,,,,,,,,,,,,,,,,,,,,,0,4,4,0,1,,,,,,,,,,,,,,,,,,,,,,,,,,,,,,,,,,,,,,,,,
891774,001,2022-11-21_02h00.41.381,Info_measure_main_exp,2022.2.2,Win32,74.86711088,,,,,,,,,,,,,,,,,,,,,,,,,,,,,,7,0.8533,1,,,,,,,,,,,,0,131,5,5,2250,2166,absent_patch/patch0002250.jpg,absent_patch/patch0002166.jpg,,,,,,,,,,,,,,,,,,,,0.037037037,0.102777778,1,0,0,response1disk,10,-0.000925926,0.005555556,1,0,0,center_square,0,9,9,60,1,,,,,,,,,,,,,,,,,,,,,,,
891774,001,2022-11-21_02h00.41.381,Info_measure_main_exp,2022.2.2,Win32,74.86711088,,,,,,,,,,,,,,,,,,masks/mask_005.jpg,,,,,,,,,,,,,,,,,,,,,,,,,,,,,,,,,,,,,,,,,,,0,0,0,4,1,,,,,,,,,,,,,,,,,,,,,,,,,,,,,,,,,,,,,,,,,,,,,,
891774,001,2022-11-21_02h00.41.381,Info_measure_main_exp,2022.2.2,Win32,74.86711088,,,,,,,,,,,,,,,,,,masks/mask_001.jpg,,,,,,,,,,,,,,,,,,,,,,,,,,,,,,,,,,,,,,,,,,,0,1,1,0,1,,,,,,,,,,,,,,,,,,,,,,,,,,,,,,,,,,,,,,,,,,,,,,
891774,001,2022-11-21_02h00.41.381,Info_measure_main_exp,2022.2.2,Win32,74.86711088,,,,,,,,,,,,,,,,,,masks/mask_004.jpg,,,,,,,,,,,,,,,,,,,,,,,,,,,,,,,,,,,,,,,,,,,0,2,2,3,1,,,,,,,,,,,,,,,,,,,,,,,,,,,,,,,,,,,,,,,,,,,,,,
891774,001,2022-11-21_02h00.41.381,Info_measure_main_exp,2022.2.2,Win32,74.86711088,,,,,,,,,,,,,,,,,,masks/mask_002.jpg,,,,,,,,,,,,,,,,,,,,,,,,,,,,,,,,,,,,,,,,,,,0,3,3,1,1,,,,,,,,,,,,,,,,,,,,,,,,,,,,,,,,,,,,,,,,,,,,,,
891774,001,2022-11-21_02h00.41.381,Info_measure_main_exp,2022.2.2,Win32,74.86711088,,,,,,,,,,,,,,,,,,masks/mask_003.jpg,,,,,,,,,,,,,,,,,,,,,,,,,,,,,,,,,,,,,,,,,,,0,4,4,2,1,,,,,,,,,,,,,,,,,,,,,,,,,,,,,,,,,,,,,,,,,,,,,,
891774,001,2022-11-21_02h00.41.381,Info_measure_main_exp,2022.2.2,Win32,74.86711088,,,,,,,,,,,,,,,,,,masks/mask_004.jpg,,,,,,,,,,,,,,,,,,,,,,,,,,,,,,,,,,,,,,,,,,,,,,,,0,0,0,3,1,,,,,,,,,,,,,,,,,,,,,,,,,,,,,,,,,,,,,,,,,
891774,001,2022-11-21_02h00.41.381,Info_measure_main_exp,2022.2.2,Win32,74.86711088,,,,,,,,,,,,,,,,,,masks/mask_003.jpg,,,,,,,,,,,,,,,,,,,,,,,,,,,,,,,,,,,,,,,,,,,,,,,,0,1,1,2,1,,,,,,,,,,,,,,,,,,,,,,,,,,,,,,,,,,,,,,,,,
891774,001,2022-11-21_02h00.41.381,Info_measure_main_exp,2022.2.2,Win32,74.86711088,,,,,,,,,,,,,,,,,,masks/mask_001.jpg,,,,,,,,,,,,,,,,,,,,,,,,,,,,,,,,,,,,,,,,,,,,,,,,0,2,2,0,1,,,,,,,,,,,,,,,,,,,,,,,,,,,,,,,,,,,,,,,,,
891774,001,2022-11-21_02h00.41.381,Info_measure_main_exp,2022.2.2,Win32,74.86711088,,,,,,,,,,,,,,,,,,masks/mask_005.jpg,,,,,,,,,,,,,,,,,,,,,,,,,,,,,,,,,,,,,,,,,,,,,,,,0,3,3,4,1,,,,,,,,,,,,,,,,,,,,,,,,,,,,,,,,,,,,,,,,,
891774,001,2022-11-21_02h00.41.381,Info_measure_main_exp,2022.2.2,Win32,74.86711088,,,,,,,,,,,,,,,,,,masks/mask_002.jpg,,,,,,,,,,,,,,,,,,,,,,,,,,,,,,,,,,,,,,,,,,,,,,,,0,4,4,1,1,,,,,,,,,,,,,,,,,,,,,,,,,,,,,,,,,,,,,,,,,
891774,001,2022-11-21_02h00.41.381,Info_measure_main_exp,2022.2.2,Win32,74.86711088,,,,,,,,,,,,,,,,,,,,,,,,,,,,,,7,0.6931,1,,,,,,,,,,,,0,131,5,5,2082,2166,absent_patch/patch0002082.jpg,absent_patch/patch0002166.jpg,,,,,,,,,,,,,,,,,,,,0.030555556,0.113888889,1,0,0,response1disk,11,-0.001851852,0,1,0,0,center_square,0,10,10,43,1,,,,,,,,,,,,,,,,,,,,,,,
891774,001,2022-11-21_02h00.41.381,Info_measure_main_exp,2022.2.2,Win32,74.86711088,,,,,,,,,,,,,,,,,,masks/mask_002.jpg,,,,,,,,,,,,,,,,,,,,,,,,,,,,,,,,,,,,,,,,,,,0,0,0,1,1,,,,,,,,,,,,,,,,,,,,,,,,,,,,,,,,,,,,,,,,,,,,,,
891774,001,2022-11-21_02h00.41.381,Info_measure_main_exp,2022.2.2,Win32,74.86711088,,,,,,,,,,,,,,,,,,masks/mask_004.jpg,,,,,,,,,,,,,,,,,,,,,,,,,,,,,,,,,,,,,,,,,,,0,1,1,3,1,,,,,,,,,,,,,,,,,,,,,,,,,,,,,,,,,,,,,,,,,,,,,,
891774,001,2022-11-21_02h00.41.381,Info_measure_main_exp,2022.2.2,Win32,74.86711088,,,,,,,,,,,,,,,,,,masks/mask_005.jpg,,,,,,,,,,,,,,,,,,,,,,,,,,,,,,,,,,,,,,,,,,,0,2,2,4,1,,,,,,,,,,,,,,,,,,,,,,,,,,,,,,,,,,,,,,,,,,,,,,
891774,001,2022-11-21_02h00.41.381,Info_measure_main_exp,2022.2.2,Win32,74.86711088,,,,,,,,,,,,,,,,,,masks/mask_001.jpg,,,,,,,,,,,,,,,,,,,,,,,,,,,,,,,,,,,,,,,,,,,0,3,3,0,1,,,,,,,,,,,,,,,,,,,,,,,,,,,,,,,,,,,,,,,,,,,,,,
891774,001,2022-11-21_02h00.41.381,Info_measure_main_exp,2022.2.2,Win32,74.86711088,,,,,,,,,,,,,,,,,,masks/mask_003.jpg,,,,,,,,,,,,,,,,,,,,,,,,,,,,,,,,,,,,,,,,,,,0,4,4,2,1,,,,,,,,,,,,,,,,,,,,,,,,,,,,,,,,,,,,,,,,,,,,,,
891774,001,2022-11-21_02h00.41.381,Info_measure_main_exp,2022.2.2,Win32,74.86711088,,,,,,,,,,,,,,,,,,masks/mask_005.jpg,,,,,,,,,,,,,,,,,,,,,,,,,,,,,,,,,,,,,,,,,,,,,,,,0,0,0,4,1,,,,,,,,,,,,,,,,,,,,,,,,,,,,,,,,,,,,,,,,,
891774,001,2022-11-21_02h00.41.381,Info_measure_main_exp,2022.2.2,Win32,74.86711088,,,,,,,,,,,,,,,,,,masks/mask_002.jpg,,,,,,,,,,,,,,,,,,,,,,,,,,,,,,,,,,,,,,,,,,,,,,,,0,1,1,1,1,,,,,,,,,,,,,,,,,,,,,,,,,,,,,,,,,,,,,,,,,
891774,001,2022-11-21_02h00.41.381,Info_measure_main_exp,2022.2.2,Win32,74.86711088,,,,,,,,,,,,,,,,,,masks/mask_001.jpg,,,,,,,,,,,,,,,,,,,,,,,,,,,,,,,,,,,,,,,,,,,,,,,,0,2,2,0,1,,,,,,,,,,,,,,,,,,,,,,,,,,,,,,,,,,,,,,,,,
891774,001,2022-11-21_02h00.41.381,Info_measure_main_exp,2022.2.2,Win32,74.86711088,,,,,,,,,,,,,,,,,,masks/mask_004.jpg,,,,,,,,,,,,,,,,,,,,,,,,,,,,,,,,,,,,,,,,,,,,,,,,0,3,3,3,1,,,,,,,,,,,,,,,,,,,,,,,,,,,,,,,,,,,,,,,,,
891774,001,2022-11-21_02h00.41.381,Info_measure_main_exp,2022.2.2,Win32,74.86711088,,,,,,,,,,,,,,,,,,masks/mask_003.jpg,,,,,,,,,,,,,,,,,,,,,,,,,,,,,,,,,,,,,,,,,,,,,,,,0,4,4,2,1,,,,,,,,,,,,,,,,,,,,,,,,,,,,,,,,,,,,,,,,,
891774,001,2022-11-21_02h00.41.381,Info_measure_main_exp,2022.2.2,Win32,74.86711088,,,,,,,,,,,,,,,,,,,,,,,,,,,,,,4,3.2668,1,,,,,,,,,,,,0,131,5,5,2238,2166,absent_patch/patch0002238.jpg,absent_patch/patch0002166.jpg,,,,,,,,,,,,,,,,,,,,0.023148148,-0.103703704,1,0,0,response3disk,12,0.001851852,0.001851852,1,0,0,center_square,0,11,11,118,1,,,,,,,,,,,,,,,,,,,,,,,
891774,001,2022-11-21_02h00.41.381,Info_measure_main_exp,2022.2.2,Win32,74.86711088,,,,,,,,,,,,,,,,,,masks/mask_004.jpg,,,,,,,,,,,,,,,,,,,,,,,,,,,,,,,,,,,,,,,,,,,0,0,0,3,1,,,,,,,,,,,,,,,,,,,,,,,,,,,,,,,,,,,,,,,,,,,,,,
891774,001,2022-11-21_02h00.41.381,Info_measure_main_exp,2022.2.2,Win32,74.86711088,,,,,,,,,,,,,,,,,,masks/mask_002.jpg,,,,,,,,,,,,,,,,,,,,,,,,,,,,,,,,,,,,,,,,,,,0,1,1,1,1,,,,,,,,,,,,,,,,,,,,,,,,,,,,,,,,,,,,,,,,,,,,,,
891774,001,2022-11-21_02h00.41.381,Info_measure_main_exp,2022.2.2,Win32,74.86711088,,,,,,,,,,,,,,,,,,masks/mask_001.jpg,,,,,,,,,,,,,,,,,,,,,,,,,,,,,,,,,,,,,,,,,,,0,2,2,0,1,,,,,,,,,,,,,,,,,,,,,,,,,,,,,,,,,,,,,,,,,,,,,,
891774,001,2022-11-21_02h00.41.381,Info_measure_main_exp,2022.2.2,Win32,74.86711088,,,,,,,,,,,,,,,,,,masks/mask_003.jpg,,,,,,,,,,,,,,,,,,,,,,,,,,,,,,,,,,,,,,,,,,,0,3,3,2,1,,,,,,,,,,,,,,,,,,,,,,,,,,,,,,,,,,,,,,,,,,,,,,
891774,001,2022-11-21_02h00.41.381,Info_measure_main_exp,2022.2.2,Win32,74.86711088,,,,,,,,,,,,,,,,,,masks/mask_005.jpg,,,,,,,,,,,,,,,,,,,,,,,,,,,,,,,,,,,,,,,,,,,0,4,4,4,1,,,,,,,,,,,,,,,,,,,,,,,,,,,,,,,,,,,,,,,,,,,,,,
891774,001,2022-11-21_02h00.41.381,Info_measure_main_exp,2022.2.2,Win32,74.86711088,,,,,,,,,,,,,,,,,,masks/mask_001.jpg,,,,,,,,,,,,,,,,,,,,,,,,,,,,,,,,,,,,,,,,,,,,,,,,0,0,0,0,1,,,,,,,,,,,,,,,,,,,,,,,,,,,,,,,,,,,,,,,,,
891774,001,2022-11-21_02h00.41.381,Info_measure_main_exp,2022.2.2,Win32,74.86711088,,,,,,,,,,,,,,,,,,masks/mask_005.jpg,,,,,,,,,,,,,,,,,,,,,,,,,,,,,,,,,,,,,,,,,,,,,,,,0,1,1,4,1,,,,,,,,,,,,,,,,,,,,,,,,,,,,,,,,,,,,,,,,,
891774,001,2022-11-21_02h00.41.381,Info_measure_main_exp,2022.2.2,Win32,74.86711088,,,,,,,,,,,,,,,,,,masks/mask_004.jpg,,,,,,,,,,,,,,,,,,,,,,,,,,,,,,,,,,,,,,,,,,,,,,,,0,2,2,3,1,,,,,,,,,,,,,,,,,,,,,,,,,,,,,,,,,,,,,,,,,
891774,001,2022-11-21_02h00.41.381,Info_measure_main_exp,2022.2.2,Win32,74.86711088,,,,,,,,,,,,,,,,,,masks/mask_003.jpg,,,,,,,,,,,,,,,,,,,,,,,,,,,,,,,,,,,,,,,,,,,,,,,,0,3,3,2,1,,,,,,,,,,,,,,,,,,,,,,,,,,,,,,,,,,,,,,,,,
891774,001,2022-11-21_02h00.41.381,Info_measure_main_exp,2022.2.2,Win32,74.86711088,,,,,,,,,,,,,,,,,,masks/mask_002.jpg,,,,,,,,,,,,,,,,,,,,,,,,,,,,,,,,,,,,,,,,,,,,,,,,0,4,4,1,1,,,,,,,,,,,,,,,,,,,,,,,,,,,,,,,,,,,,,,,,,
891774,001,2022-11-21_02h00.41.381,Info_measure_main_exp,2022.2.2,Win32,74.86711088,,,,,,,,,,,,,,,,,,,,,,,,,,,,,,2,3.6267,1,,,,,,,,,,,,0,131,5,5,1974,1950,absent_patch/patch0001974.jpg,absent_patch/patch0001950.jpg,,,,,,,,,,,,,,,,,,,,-0.119444444,-0.031481481,1,0,0,response5disk,13,-0.000925926,-0.002777778,1,0,0,center_square,0,12,12,17,1,,,,,,,,,,,,,,,,,,,,,,,
891774,001,2022-11-21_02h00.41.381,Info_measure_main_exp,2022.2.2,Win32,74.86711088,,,,,,,,,,,,,,,,,,masks/mask_003.jpg,,,,,,,,,,,,,,,,,,,,,,,,,,,,,,,,,,,,,,,,,,,0,0,0,2,1,,,,,,,,,,,,,,,,,,,,,,,,,,,,,,,,,,,,,,,,,,,,,,
891774,001,2022-11-21_02h00.41.381,Info_measure_main_exp,2022.2.2,Win32,74.86711088,,,,,,,,,,,,,,,,,,masks/mask_001.jpg,,,,,,,,,,,,,,,,,,,,,,,,,,,,,,,,,,,,,,,,,,,0,1,1,0,1,,,,,,,,,,,,,,,,,,,,,,,,,,,,,,,,,,,,,,,,,,,,,,
891774,001,2022-11-21_02h00.41.381,Info_measure_main_exp,2022.2.2,Win32,74.86711088,,,,,,,,,,,,,,,,,,masks/mask_004.jpg,,,,,,,,,,,,,,,,,,,,,,,,,,,,,,,,,,,,,,,,,,,0,2,2,3,1,,,,,,,,,,,,,,,,,,,,,,,,,,,,,,,,,,,,,,,,,,,,,,
891774,001,2022-11-21_02h00.41.381,Info_measure_main_exp,2022.2.2,Win32,74.86711088,,,,,,,,,,,,,,,,,,masks/mask_005.jpg,,,,,,,,,,,,,,,,,,,,,,,,,,,,,,,,,,,,,,,,,,,0,3,3,4,1,,,,,,,,,,,,,,,,,,,,,,,,,,,,,,,,,,,,,,,,,,,,,,
891774,001,2022-11-21_02h00.41.381,Info_measure_main_exp,2022.2.2,Win32,74.86711088,,,,,,,,,,,,,,,,,,masks/mask_002.jpg,,,,,,,,,,,,,,,,,,,,,,,,,,,,,,,,,,,,,,,,,,,0,4,4,1,1,,,,,,,,,,,,,,,,,,,,,,,,,,,,,,,,,,,,,,,,,,,,,,
891774,001,2022-11-21_02h00.41.381,Info_measure_main_exp,2022.2.2,Win32,74.86711088,,,,,,,,,,,,,,,,,,masks/mask_003.jpg,,,,,,,,,,,,,,,,,,,,,,,,,,,,,,,,,,,,,,,,,,,,,,,,0,0,0,2,1,,,,,,,,,,,,,,,,,,,,,,,,,,,,,,,,,,,,,,,,,
891774,001,2022-11-21_02h00.41.381,Info_measure_main_exp,2022.2.2,Win32,74.86711088,,,,,,,,,,,,,,,,,,masks/mask_002.jpg,,,,,,,,,,,,,,,,,,,,,,,,,,,,,,,,,,,,,,,,,,,,,,,,0,1,1,1,1,,,,,,,,,,,,,,,,,,,,,,,,,,,,,,,,,,,,,,,,,
891774,001,2022-11-21_02h00.41.381,Info_measure_main_exp,2022.2.2,Win32,74.86711088,,,,,,,,,,,,,,,,,,masks/mask_001.jpg,,,,,,,,,,,,,,,,,,,,,,,,,,,,,,,,,,,,,,,,,,,,,,,,0,2,2,0,1,,,,,,,,,,,,,,,,,,,,,,,,,,,,,,,,,,,,,,,,,
891774,001,2022-11-21_02h00.41.381,Info_measure_main_exp,2022.2.2,Win32,74.86711088,,,,,,,,,,,,,,,,,,masks/mask_004.jpg,,,,,,,,,,,,,,,,,,,,,,,,,,,,,,,,,,,,,,,,,,,,,,,,0,3,3,3,1,,,,,,,,,,,,,,,,,,,,,,,,,,,,,,,,,,,,,,,,,
891774,001,2022-11-21_02h00.41.381,Info_measure_main_exp,2022.2.2,Win32,74.86711088,,,,,,,,,,,,,,,,,,masks/mask_005.jpg,,,,,,,,,,,,,,,,,,,,,,,,,,,,,,,,,,,,,,,,,,,,,,,,0,4,4,4,1,,,,,,,,,,,,,,,,,,,,,,,,,,,,,,,,,,,,,,,,,
891774,001,2022-11-21_02h00.41.381,Info_measure_main_exp,2022.2.2,Win32,74.86711088,,,,,,,,,,,,,,,,,,,,,,,,,,,,,,4,2.3069,1,,,,,,,,,,,,0,131,5,5,2250,2142,absent_patch/patch0002250.jpg,absent_patch/patch0002142.jpg,,,,,,,,,,,,,,,,,,,,0.039814815,-0.122222222,1,0,0,response3disk,14,0.005555556,0.011111111,1,0,0,center_square,0,13,13,71,1,,,,,,,,,,,,,,,,,,,,,,,
891774,001,2022-11-21_02h00.41.381,Info_measure_main_exp,2022.2.2,Win32,74.86711088,,,,,,,,,,,,,,,,,,masks/mask_001.jpg,,,,,,,,,,,,,,,,,,,,,,,,,,,,,,,,,,,,,,,,,,,0,0,0,0,1,,,,,,,,,,,,,,,,,,,,,,,,,,,,,,,,,,,,,,,,,,,,,,
891774,001,2022-11-21_02h00.41.381,Info_measure_main_exp,2022.2.2,Win32,74.86711088,,,,,,,,,,,,,,,,,,masks/mask_003.jpg,,,,,,,,,,,,,,,,,,,,,,,,,,,,,,,,,,,,,,,,,,,0,1,1,2,1,,,,,,,,,,,,,,,,,,,,,,,,,,,,,,,,,,,,,,,,,,,,,,
891774,001,2022-11-21_02h00.41.381,Info_measure_main_exp,2022.2.2,Win32,74.86711088,,,,,,,,,,,,,,,,,,masks/mask_005.jpg,,,,,,,,,,,,,,,,,,,,,,,,,,,,,,,,,,,,,,,,,,,0,2,2,4,1,,,,,,,,,,,,,,,,,,,,,,,,,,,,,,,,,,,,,,,,,,,,,,
891774,001,2022-11-21_02h00.41.381,Info_measure_main_exp,2022.2.2,Win32,74.86711088,,,,,,,,,,,,,,,,,,masks/mask_004.jpg,,,,,,,,,,,,,,,,,,,,,,,,,,,,,,,,,,,,,,,,,,,0,3,3,3,1,,,,,,,,,,,,,,,,,,,,,,,,,,,,,,,,,,,,,,,,,,,,,,
891774,001,2022-11-21_02h00.41.381,Info_measure_main_exp,2022.2.2,Win32,74.86711088,,,,,,,,,,,,,,,,,,masks/mask_002.jpg,,,,,,,,,,,,,,,,,,,,,,,,,,,,,,,,,,,,,,,,,,,0,4,4,1,1,,,,,,,,,,,,,,,,,,,,,,,,,,,,,,,,,,,,,,,,,,,,,,
891774,001,2022-11-21_02h00.41.381,Info_measure_main_exp,2022.2.2,Win32,74.86711088,,,,,,,,,,,,,,,,,,masks/mask_003.jpg,,,,,,,,,,,,,,,,,,,,,,,,,,,,,,,,,,,,,,,,,,,,,,,,0,0,0,2,1,,,,,,,,,,,,,,,,,,,,,,,,,,,,,,,,,,,,,,,,,
891774,001,2022-11-21_02h00.41.381,Info_measure_main_exp,2022.2.2,Win32,74.86711088,,,,,,,,,,,,,,,,,,masks/mask_004.jpg,,,,,,,,,,,,,,,,,,,,,,,,,,,,,,,,,,,,,,,,,,,,,,,,0,1,1,3,1,,,,,,,,,,,,,,,,,,,,,,,,,,,,,,,,,,,,,,,,,
891774,001,2022-11-21_02h00.41.381,Info_measure_main_exp,2022.2.2,Win32,74.86711088,,,,,,,,,,,,,,,,,,masks/mask_001.jpg,,,,,,,,,,,,,,,,,,,,,,,,,,,,,,,,,,,,,,,,,,,,,,,,0,2,2,0,1,,,,,,,,,,,,,,,,,,,,,,,,,,,,,,,,,,,,,,,,,
891774,001,2022-11-21_02h00.41.381,Info_measure_main_exp,2022.2.2,Win32,74.86711088,,,,,,,,,,,,,,,,,,masks/mask_005.jpg,,,,,,,,,,,,,,,,,,,,,,,,,,,,,,,,,,,,,,,,,,,,,,,,0,3,3,4,1,,,,,,,,,,,,,,,,,,,,,,,,,,,,,,,,,,,,,,,,,
891774,001,2022-11-21_02h00.41.381,Info_measure_main_exp,2022.2.2,Win32,74.86711088,,,,,,,,,,,,,,,,,,masks/mask_002.jpg,,,,,,,,,,,,,,,,,,,,,,,,,,,,,,,,,,,,,,,,,,,,,,,,0,4,4,1,1,,,,,,,,,,,,,,,,,,,,,,,,,,,,,,,,,,,,,,,,,
891774,001,2022-11-21_02h00.41.381,Info_measure_main_exp,2022.2.2,Win32,74.86711088,,,,,,,,,,,,,,,,,,,,,,,,,,,,,,3,1.1335,1,,,,,,,,,,,,0,131,5,5,1986,2238,absent_patch/patch0001986.jpg,absent_patch/patch0002238.jpg,,,,,,,,,,,,,,,,,,,,-0.038888889,-0.087037037,1,0,0,response5disk,15,0.007407407,0.000925926,1,0,0,center_square,0,14,14,31,1,,,,,,,,,,,,,,,,,,,,,,,
891774,001,2022-11-21_02h00.41.381,Info_measure_main_exp,2022.2.2,Win32,74.86711088,,,,,,,,,,,,,,,,,,masks/mask_001.jpg,,,,,,,,,,,,,,,,,,,,,,,,,,,,,,,,,,,,,,,,,,,0,0,0,0,1,,,,,,,,,,,,,,,,,,,,,,,,,,,,,,,,,,,,,,,,,,,,,,
891774,001,2022-11-21_02h00.41.381,Info_measure_main_exp,2022.2.2,Win32,74.86711088,,,,,,,,,,,,,,,,,,masks/mask_002.jpg,,,,,,,,,,,,,,,,,,,,,,,,,,,,,,,,,,,,,,,,,,,0,1,1,1,1,,,,,,,,,,,,,,,,,,,,,,,,,,,,,,,,,,,,,,,,,,,,,,
891774,001,2022-11-21_02h00.41.381,Info_measure_main_exp,2022.2.2,Win32,74.86711088,,,,,,,,,,,,,,,,,,masks/mask_003.jpg,,,,,,,,,,,,,,,,,,,,,,,,,,,,,,,,,,,,,,,,,,,0,2,2,2,1,,,,,,,,,,,,,,,,,,,,,,,,,,,,,,,,,,,,,,,,,,,,,,
891774,001,2022-11-21_02h00.41.381,Info_measure_main_exp,2022.2.2,Win32,74.86711088,,,,,,,,,,,,,,,,,,masks/mask_004.jpg,,,,,,,,,,,,,,,,,,,,,,,,,,,,,,,,,,,,,,,,,,,0,3,3,3,1,,,,,,,,,,,,,,,,,,,,,,,,,,,,,,,,,,,,,,,,,,,,,,
891774,001,2022-11-21_02h00.41.381,Info_measure_main_exp,2022.2.2,Win32,74.86711088,,,,,,,,,,,,,,,,,,masks/mask_005.jpg,,,,,,,,,,,,,,,,,,,,,,,,,,,,,,,,,,,,,,,,,,,0,4,4,4,1,,,,,,,,,,,,,,,,,,,,,,,,,,,,,,,,,,,,,,,,,,,,,,
891774,001,2022-11-21_02h00.41.381,Info_measure_main_exp,2022.2.2,Win32,74.86711088,,,,,,,,,,,,,,,,,,masks/mask_002.jpg,,,,,,,,,,,,,,,,,,,,,,,,,,,,,,,,,,,,,,,,,,,,,,,,0,0,0,1,1,,,,,,,,,,,,,,,,,,,,,,,,,,,,,,,,,,,,,,,,,
891774,001,2022-11-21_02h00.41.381,Info_measure_main_exp,2022.2.2,Win32,74.86711088,,,,,,,,,,,,,,,,,,masks/mask_003.jpg,,,,,,,,,,,,,,,,,,,,,,,,,,,,,,,,,,,,,,,,,,,,,,,,0,1,1,2,1,,,,,,,,,,,,,,,,,,,,,,,,,,,,,,,,,,,,,,,,,
891774,001,2022-11-21_02h00.41.381,Info_measure_main_exp,2022.2.2,Win32,74.86711088,,,,,,,,,,,,,,,,,,masks/mask_004.jpg,,,,,,,,,,,,,,,,,,,,,,,,,,,,,,,,,,,,,,,,,,,,,,,,0,2,2,3,1,,,,,,,,,,,,,,,,,,,,,,,,,,,,,,,,,,,,,,,,,
891774,001,2022-11-21_02h00.41.381,Info_measure_main_exp,2022.2.2,Win32,74.86711088,,,,,,,,,,,,,,,,,,masks/mask_001.jpg,,,,,,,,,,,,,,,,,,,,,,,,,,,,,,,,,,,,,,,,,,,,,,,,0,3,3,0,1,,,,,,,,,,,,,,,,,,,,,,,,,,,,,,,,,,,,,,,,,
891774,001,2022-11-21_02h00.41.381,Info_measure_main_exp,2022.2.2,Win32,74.86711088,,,,,,,,,,,,,,,,,,masks/mask_005.jpg,,,,,,,,,,,,,,,,,,,,,,,,,,,,,,,,,,,,,,,,,,,,,,,,0,4,4,4,1,,,,,,,,,,,,,,,,,,,,,,,,,,,,,,,,,,,,,,,,,
891774,001,2022-11-21_02h00.41.381,Info_measure_main_exp,2022.2.2,Win32,74.86711088,,,,,,,,,,,,,,,,,,,,,,,,,,,,,,6,0.8267,1,,,,,,,,,,,,0,131,5,5,1974,2166,absent_patch/patch0001974.jpg,absent_patch/patch0002166.jpg,,,,,,,,,,,,,,,,,,,,0.047222222,0.034259259,1,0,0,response1disk,16,0.002777778,-0.003703704,1,0,0,center_square,0,15,15,77,1,,,,,,,,,,,,,,,,,,,,,,,
891774,001,2022-11-21_02h00.41.381,Info_measure_main_exp,2022.2.2,Win32,74.86711088,,,,,,,,,,,,,,,,,,masks/mask_002.jpg,,,,,,,,,,,,,,,,,,,,,,,,,,,,,,,,,,,,,,,,,,,0,0,0,1,1,,,,,,,,,,,,,,,,,,,,,,,,,,,,,,,,,,,,,,,,,,,,,,
891774,001,2022-11-21_02h00.41.381,Info_measure_main_exp,2022.2.2,Win32,74.86711088,,,,,,,,,,,,,,,,,,masks/mask_005.jpg,,,,,,,,,,,,,,,,,,,,,,,,,,,,,,,,,,,,,,,,,,,0,1,1,4,1,,,,,,,,,,,,,,,,,,,,,,,,,,,,,,,,,,,,,,,,,,,,,,
891774,001,2022-11-21_02h00.41.381,Info_measure_main_exp,2022.2.2,Win32,74.86711088,,,,,,,,,,,,,,,,,,masks/mask_004.jpg,,,,,,,,,,,,,,,,,,,,,,,,,,,,,,,,,,,,,,,,,,,0,2,2,3,1,,,,,,,,,,,,,,,,,,,,,,,,,,,,,,,,,,,,,,,,,,,,,,
891774,001,2022-11-21_02h00.41.381,Info_measure_main_exp,2022.2.2,Win32,74.86711088,,,,,,,,,,,,,,,,,,masks/mask_001.jpg,,,,,,,,,,,,,,,,,,,,,,,,,,,,,,,,,,,,,,,,,,,0,3,3,0,1,,,,,,,,,,,,,,,,,,,,,,,,,,,,,,,,,,,,,,,,,,,,,,
891774,001,2022-11-21_02h00.41.381,Info_measure_main_exp,2022.2.2,Win32,74.86711088,,,,,,,,,,,,,,,,,,masks/mask_003.jpg,,,,,,,,,,,,,,,,,,,,,,,,,,,,,,,,,,,,,,,,,,,0,4,4,2,1,,,,,,,,,,,,,,,,,,,,,,,,,,,,,,,,,,,,,,,,,,,,,,
891774,001,2022-11-21_02h00.41.381,Info_measure_main_exp,2022.2.2,Win32,74.86711088,,,,,,,,,,,,,,,,,,masks/mask_001.jpg,,,,,,,,,,,,,,,,,,,,,,,,,,,,,,,,,,,,,,,,,,,,,,,,0,0,0,0,1,,,,,,,,,,,,,,,,,,,,,,,,,,,,,,,,,,,,,,,,,
891774,001,2022-11-21_02h00.41.381,Info_measure_main_exp,2022.2.2,Win32,74.86711088,,,,,,,,,,,,,,,,,,masks/mask_002.jpg,,,,,,,,,,,,,,,,,,,,,,,,,,,,,,,,,,,,,,,,,,,,,,,,0,1,1,1,1,,,,,,,,,,,,,,,,,,,,,,,,,,,,,,,,,,,,,,,,,
891774,001,2022-11-21_02h00.41.381,Info_measure_main_exp,2022.2.2,Win32,74.86711088,,,,,,,,,,,,,,,,,,masks/mask_004.jpg,,,,,,,,,,,,,,,,,,,,,,,,,,,,,,,,,,,,,,,,,,,,,,,,0,2,2,3,1,,,,,,,,,,,,,,,,,,,,,,,,,,,,,,,,,,,,,,,,,
891774,001,2022-11-21_02h00.41.381,Info_measure_main_exp,2022.2.2,Win32,74.86711088,,,,,,,,,,,,,,,,,,masks/mask_003.jpg,,,,,,,,,,,,,,,,,,,,,,,,,,,,,,,,,,,,,,,,,,,,,,,,0,3,3,2,1,,,,,,,,,,,,,,,,,,,,,,,,,,,,,,,,,,,,,,,,,
891774,001,2022-11-21_02h00.41.381,Info_measure_main_exp,2022.2.2,Win32,74.86711088,,,,,,,,,,,,,,,,,,masks/mask_005.jpg,,,,,,,,,,,,,,,,,,,,,,,,,,,,,,,,,,,,,,,,,,,,,,,,0,4,4,4,1,,,,,,,,,,,,,,,,,,,,,,,,,,,,,,,,,,,,,,,,,
891774,001,2022-11-21_02h00.41.381,Info_measure_main_exp,2022.2.2,Win32,74.86711088,,,,,,,,,,,,,,,,,,,,,,,,,,,,,,7,0.6267,1,,,,,,,,,,,,0,131,5,5,2250,2238,absent_patch/patch0002250.jpg,absent_patch/patch0002238.jpg,,,,,,,,,,,,,,,,,,,,0.011111111,0.098148148,1,0,0,response1disk,17,0.003703704,0.006481481,1,0,0,center_square,0,16,16,110,1,,,,,,,,,,,,,,,,,,,,,,,
891774,001,2022-11-21_02h00.41.381,Info_measure_main_exp,2022.2.2,Win32,74.86711088,,,,,,,,,,,,,,,,,,masks/mask_001.jpg,,,,,,,,,,,,,,,,,,,,,,,,,,,,,,,,,,,,,,,,,,,0,0,0,0,1,,,,,,,,,,,,,,,,,,,,,,,,,,,,,,,,,,,,,,,,,,,,,,
891774,001,2022-11-21_02h00.41.381,Info_measure_main_exp,2022.2.2,Win32,74.86711088,,,,,,,,,,,,,,,,,,masks/mask_005.jpg,,,,,,,,,,,,,,,,,,,,,,,,,,,,,,,,,,,,,,,,,,,0,1,1,4,1,,,,,,,,,,,,,,,,,,,,,,,,,,,,,,,,,,,,,,,,,,,,,,
891774,001,2022-11-21_02h00.41.381,Info_measure_main_exp,2022.2.2,Win32,74.86711088,,,,,,,,,,,,,,,,,,masks/mask_004.jpg,,,,,,,,,,,,,,,,,,,,,,,,,,,,,,,,,,,,,,,,,,,0,2,2,3,1,,,,,,,,,,,,,,,,,,,,,,,,,,,,,,,,,,,,,,,,,,,,,,
891774,001,2022-11-21_02h00.41.381,Info_measure_main_exp,2022.2.2,Win32,74.86711088,,,,,,,,,,,,,,,,,,masks/mask_002.jpg,,,,,,,,,,,,,,,,,,,,,,,,,,,,,,,,,,,,,,,,,,,0,3,3,1,1,,,,,,,,,,,,,,,,,,,,,,,,,,,,,,,,,,,,,,,,,,,,,,
891774,001,2022-11-21_02h00.41.381,Info_measure_main_exp,2022.2.2,Win32,74.86711088,,,,,,,,,,,,,,,,,,masks/mask_003.jpg,,,,,,,,,,,,,,,,,,,,,,,,,,,,,,,,,,,,,,,,,,,0,4,4,2,1,,,,,,,,,,,,,,,,,,,,,,,,,,,,,,,,,,,,,,,,,,,,,,
891774,001,2022-11-21_02h00.41.381,Info_measure_main_exp,2022.2.2,Win32,74.86711088,,,,,,,,,,,,,,,,,,masks/mask_004.jpg,,,,,,,,,,,,,,,,,,,,,,,,,,,,,,,,,,,,,,,,,,,,,,,,0,0,0,3,1,,,,,,,,,,,,,,,,,,,,,,,,,,,,,,,,,,,,,,,,,
891774,001,2022-11-21_02h00.41.381,Info_measure_main_exp,2022.2.2,Win32,74.86711088,,,,,,,,,,,,,,,,,,masks/mask_005.jpg,,,,,,,,,,,,,,,,,,,,,,,,,,,,,,,,,,,,,,,,,,,,,,,,0,1,1,4,1,,,,,,,,,,,,,,,,,,,,,,,,,,,,,,,,,,,,,,,,,
891774,001,2022-11-21_02h00.41.381,Info_measure_main_exp,2022.2.2,Win32,74.86711088,,,,,,,,,,,,,,,,,,masks/mask_001.jpg,,,,,,,,,,,,,,,,,,,,,,,,,,,,,,,,,,,,,,,,,,,,,,,,0,2,2,0,1,,,,,,,,,,,,,,,,,,,,,,,,,,,,,,,,,,,,,,,,,
891774,001,2022-11-21_02h00.41.381,Info_measure_main_exp,2022.2.2,Win32,74.86711088,,,,,,,,,,,,,,,,,,masks/mask_002.jpg,,,,,,,,,,,,,,,,,,,,,,,,,,,,,,,,,,,,,,,,,,,,,,,,0,3,3,1,1,,,,,,,,,,,,,,,,,,,,,,,,,,,,,,,,,,,,,,,,,
891774,001,2022-11-21_02h00.41.381,Info_measure_main_exp,2022.2.2,Win32,74.86711088,,,,,,,,,,,,,,,,,,masks/mask_003.jpg,,,,,,,,,,,,,,,,,,,,,,,,,,,,,,,,,,,,,,,,,,,,,,,,0,4,4,2,1,,,,,,,,,,,,,,,,,,,,,,,,,,,,,,,,,,,,,,,,,
891774,001,2022-11-21_02h00.41.381,Info_measure_main_exp,2022.2.2,Win32,74.86711088,,,,,,,,,,,,,,,,,,,,,,,,,,,,,,7,0.9733,1,,,,,,,,,,,,0,131,5,5,2274,2214,absent_patch/patch0002274.jpg,absent_patch/patch0002214.jpg,,,,,,,,,,,,,,,,,,,,0.030555556,0.058333333,1,0,0,response1disk,18,-0.000925926,-0.007407407,1,0,0,center_square,0,17,17,11,1,,,,,,,,,,,,,,,,,,,,,,,
891774,001,2022-11-21_02h00.41.381,Info_measure_main_exp,2022.2.2,Win32,74.86711088,,,,,,,,,,,,,,,,,,masks/mask_005.jpg,,,,,,,,,,,,,,,,,,,,,,,,,,,,,,,,,,,,,,,,,,,0,0,0,4,1,,,,,,,,,,,,,,,,,,,,,,,,,,,,,,,,,,,,,,,,,,,,,,
891774,001,2022-11-21_02h00.41.381,Info_measure_main_exp,2022.2.2,Win32,74.86711088,,,,,,,,,,,,,,,,,,masks/mask_003.jpg,,,,,,,,,,,,,,,,,,,,,,,,,,,,,,,,,,,,,,,,,,,0,1,1,2,1,,,,,,,,,,,,,,,,,,,,,,,,,,,,,,,,,,,,,,,,,,,,,,
891774,001,2022-11-21_02h00.41.381,Info_measure_main_exp,2022.2.2,Win32,74.86711088,,,,,,,,,,,,,,,,,,masks/mask_002.jpg,,,,,,,,,,,,,,,,,,,,,,,,,,,,,,,,,,,,,,,,,,,0,2,2,1,1,,,,,,,,,,,,,,,,,,,,,,,,,,,,,,,,,,,,,,,,,,,,,,
891774,001,2022-11-21_02h00.41.381,Info_measure_main_exp,2022.2.2,Win32,74.86711088,,,,,,,,,,,,,,,,,,masks/mask_001.jpg,,,,,,,,,,,,,,,,,,,,,,,,,,,,,,,,,,,,,,,,,,,0,3,3,0,1,,,,,,,,,,,,,,,,,,,,,,,,,,,,,,,,,,,,,,,,,,,,,,
891774,001,2022-11-21_02h00.41.381,Info_measure_main_exp,2022.2.2,Win32,74.86711088,,,,,,,,,,,,,,,,,,masks/mask_004.jpg,,,,,,,,,,,,,,,,,,,,,,,,,,,,,,,,,,,,,,,,,,,0,4,4,3,1,,,,,,,,,,,,,,,,,,,,,,,,,,,,,,,,,,,,,,,,,,,,,,
891774,001,2022-11-21_02h00.41.381,Info_measure_main_exp,2022.2.2,Win32,74.86711088,,,,,,,,,,,,,,,,,,masks/mask_003.jpg,,,,,,,,,,,,,,,,,,,,,,,,,,,,,,,,,,,,,,,,,,,,,,,,0,0,0,2,1,,,,,,,,,,,,,,,,,,,,,,,,,,,,,,,,,,,,,,,,,
891774,001,2022-11-21_02h00.41.381,Info_measure_main_exp,2022.2.2,Win32,74.86711088,,,,,,,,,,,,,,,,,,masks/mask_002.jpg,,,,,,,,,,,,,,,,,,,,,,,,,,,,,,,,,,,,,,,,,,,,,,,,0,1,1,1,1,,,,,,,,,,,,,,,,,,,,,,,,,,,,,,,,,,,,,,,,,
891774,001,2022-11-21_02h00.41.381,Info_measure_main_exp,2022.2.2,Win32,74.86711088,,,,,,,,,,,,,,,,,,masks/mask_004.jpg,,,,,,,,,,,,,,,,,,,,,,,,,,,,,,,,,,,,,,,,,,,,,,,,0,2,2,3,1,,,,,,,,,,,,,,,,,,,,,,,,,,,,,,,,,,,,,,,,,
891774,001,2022-11-21_02h00.41.381,Info_measure_main_exp,2022.2.2,Win32,74.86711088,,,,,,,,,,,,,,,,,,masks/mask_005.jpg,,,,,,,,,,,,,,,,,,,,,,,,,,,,,,,,,,,,,,,,,,,,,,,,0,3,3,4,1,,,,,,,,,,,,,,,,,,,,,,,,,,,,,,,,,,,,,,,,,
891774,001,2022-11-21_02h00.41.381,Info_measure_main_exp,2022.2.2,Win32,74.86711088,,,,,,,,,,,,,,,,,,masks/mask_001.jpg,,,,,,,,,,,,,,,,,,,,,,,,,,,,,,,,,,,,,,,,,,,,,,,,0,4,4,0,1,,,,,,,,,,,,,,,,,,,,,,,,,,,,,,,,,,,,,,,,,
891774,001,2022-11-21_02h00.41.381,Info_measure_main_exp,2022.2.2,Win32,74.86711088,,,,,,,,,,,,,,,,,,,,,,,,,,,,,,3,1.5604,1,,,,,,,,,,,,0,131,5,5,2082,1974,absent_patch/patch0002082.jpg,absent_patch/patch0001974.jpg,,,,,,,,,,,,,,,,,,,,-0.037962963,-0.059259259,1,0,0,response5disk,19,0.000925926,0.005555556,1,0,0,center_square,0,18,18,26,1,,,,,,,,,,,,,,,,,,,,,,,
891774,001,2022-11-21_02h00.41.381,Info_measure_main_exp,2022.2.2,Win32,74.86711088,,,,,,,,,,,,,,,,,,masks/mask_002.jpg,,,,,,,,,,,,,,,,,,,,,,,,,,,,,,,,,,,,,,,,,,,0,0,0,1,1,,,,,,,,,,,,,,,,,,,,,,,,,,,,,,,,,,,,,,,,,,,,,,
891774,001,2022-11-21_02h00.41.381,Info_measure_main_exp,2022.2.2,Win32,74.86711088,,,,,,,,,,,,,,,,,,masks/mask_001.jpg,,,,,,,,,,,,,,,,,,,,,,,,,,,,,,,,,,,,,,,,,,,0,1,1,0,1,,,,,,,,,,,,,,,,,,,,,,,,,,,,,,,,,,,,,,,,,,,,,,
891774,001,2022-11-21_02h00.41.381,Info_measure_main_exp,2022.2.2,Win32,74.86711088,,,,,,,,,,,,,,,,,,masks/mask_004.jpg,,,,,,,,,,,,,,,,,,,,,,,,,,,,,,,,,,,,,,,,,,,0,2,2,3,1,,,,,,,,,,,,,,,,,,,,,,,,,,,,,,,,,,,,,,,,,,,,,,
891774,001,2022-11-21_02h00.41.381,Info_measure_main_exp,2022.2.2,Win32,74.86711088,,,,,,,,,,,,,,,,,,masks/mask_003.jpg,,,,,,,,,,,,,,,,,,,,,,,,,,,,,,,,,,,,,,,,,,,0,3,3,2,1,,,,,,,,,,,,,,,,,,,,,,,,,,,,,,,,,,,,,,,,,,,,,,
891774,001,2022-11-21_02h00.41.381,Info_measure_main_exp,2022.2.2,Win32,74.86711088,,,,,,,,,,,,,,,,,,masks/mask_005.jpg,,,,,,,,,,,,,,,,,,,,,,,,,,,,,,,,,,,,,,,,,,,0,4,4,4,1,,,,,,,,,,,,,,,,,,,,,,,,,,,,,,,,,,,,,,,,,,,,,,
891774,001,2022-11-21_02h00.41.381,Info_measure_main_exp,2022.2.2,Win32,74.86711088,,,,,,,,,,,,,,,,,,masks/mask_001.jpg,,,,,,,,,,,,,,,,,,,,,,,,,,,,,,,,,,,,,,,,,,,,,,,,0,0,0,0,1,,,,,,,,,,,,,,,,,,,,,,,,,,,,,,,,,,,,,,,,,
891774,001,2022-11-21_02h00.41.381,Info_measure_main_exp,2022.2.2,Win32,74.86711088,,,,,,,,,,,,,,,,,,masks/mask_005.jpg,,,,,,,,,,,,,,,,,,,,,,,,,,,,,,,,,,,,,,,,,,,,,,,,0,1,1,4,1,,,,,,,,,,,,,,,,,,,,,,,,,,,,,,,,,,,,,,,,,
891774,001,2022-11-21_02h00.41.381,Info_measure_main_exp,2022.2.2,Win32,74.86711088,,,,,,,,,,,,,,,,,,masks/mask_003.jpg,,,,,,,,,,,,,,,,,,,,,,,,,,,,,,,,,,,,,,,,,,,,,,,,0,2,2,2,1,,,,,,,,,,,,,,,,,,,,,,,,,,,,,,,,,,,,,,,,,
891774,001,2022-11-21_02h00.41.381,Info_measure_main_exp,2022.2.2,Win32,74.86711088,,,,,,,,,,,,,,,,,,masks/mask_004.jpg,,,,,,,,,,,,,,,,,,,,,,,,,,,,,,,,,,,,,,,,,,,,,,,,0,3,3,3,1,,,,,,,,,,,,,,,,,,,,,,,,,,,,,,,,,,,,,,,,,
891774,001,2022-11-21_02h00.41.381,Info_measure_main_exp,2022.2.2,Win32,74.86711088,,,,,,,,,,,,,,,,,,masks/mask_002.jpg,,,,,,,,,,,,,,,,,,,,,,,,,,,,,,,,,,,,,,,,,,,,,,,,0,4,4,1,1,,,,,,,,,,,,,,,,,,,,,,,,,,,,,,,,,,,,,,,,,
891774,001,2022-11-21_02h00.41.381,Info_measure_main_exp,2022.2.2,Win32,74.86711088,,,,,,,,,,,,,,,,,,,,,,,,,,,,,,3,0.9468,1,,,,,,,,,,,,0,131,5,5,1950,2082,absent_patch/patch0001950.jpg,absent_patch/patch0002082.jpg,,,,,,,,,,,,,,,,,,,,-0.040740741,-0.086111111,1,0,0,response5disk,20,-0.002777778,0,1,0,0,center_square,0,19,19,12,1,,,,,,,,,,,,,,,,,,,,,,,
891774,001,2022-11-21_02h00.41.381,Info_measure_main_exp,2022.2.2,Win32,74.86711088,,,,,,,,,,,,,,,,,,masks/mask_005.jpg,,,,,,,,,,,,,,,,,,,,,,,,,,,,,,,,,,,,,,,,,,,0,0,0,4,1,,,,,,,,,,,,,,,,,,,,,,,,,,,,,,,,,,,,,,,,,,,,,,
891774,001,2022-11-21_02h00.41.381,Info_measure_main_exp,2022.2.2,Win32,74.86711088,,,,,,,,,,,,,,,,,,masks/mask_001.jpg,,,,,,,,,,,,,,,,,,,,,,,,,,,,,,,,,,,,,,,,,,,0,1,1,0,1,,,,,,,,,,,,,,,,,,,,,,,,,,,,,,,,,,,,,,,,,,,,,,
891774,001,2022-11-21_02h00.41.381,Info_measure_main_exp,2022.2.2,Win32,74.86711088,,,,,,,,,,,,,,,,,,masks/mask_002.jpg,,,,,,,,,,,,,,,,,,,,,,,,,,,,,,,,,,,,,,,,,,,0,2,2,1,1,,,,,,,,,,,,,,,,,,,,,,,,,,,,,,,,,,,,,,,,,,,,,,
891774,001,2022-11-21_02h00.41.381,Info_measure_main_exp,2022.2.2,Win32,74.86711088,,,,,,,,,,,,,,,,,,masks/mask_003.jpg,,,,,,,,,,,,,,,,,,,,,,,,,,,,,,,,,,,,,,,,,,,0,3,3,2,1,,,,,,,,,,,,,,,,,,,,,,,,,,,,,,,,,,,,,,,,,,,,,,
891774,001,2022-11-21_02h00.41.381,Info_measure_main_exp,2022.2.2,Win32,74.86711088,,,,,,,,,,,,,,,,,,masks/mask_004.jpg,,,,,,,,,,,,,,,,,,,,,,,,,,,,,,,,,,,,,,,,,,,0,4,4,3,1,,,,,,,,,,,,,,,,,,,,,,,,,,,,,,,,,,,,,,,,,,,,,,
891774,001,2022-11-21_02h00.41.381,Info_measure_main_exp,2022.2.2,Win32,74.86711088,,,,,,,,,,,,,,,,,,masks/mask_002.jpg,,,,,,,,,,,,,,,,,,,,,,,,,,,,,,,,,,,,,,,,,,,,,,,,0,0,0,1,1,,,,,,,,,,,,,,,,,,,,,,,,,,,,,,,,,,,,,,,,,
891774,001,2022-11-21_02h00.41.381,Info_measure_main_exp,2022.2.2,Win32,74.86711088,,,,,,,,,,,,,,,,,,masks/mask_001.jpg,,,,,,,,,,,,,,,,,,,,,,,,,,,,,,,,,,,,,,,,,,,,,,,,0,1,1,0,1,,,,,,,,,,,,,,,,,,,,,,,,,,,,,,,,,,,,,,,,,
891774,001,2022-11-21_02h00.41.381,Info_measure_main_exp,2022.2.2,Win32,74.86711088,,,,,,,,,,,,,,,,,,masks/mask_003.jpg,,,,,,,,,,,,,,,,,,,,,,,,,,,,,,,,,,,,,,,,,,,,,,,,0,2,2,2,1,,,,,,,,,,,,,,,,,,,,,,,,,,,,,,,,,,,,,,,,,
891774,001,2022-11-21_02h00.41.381,Info_measure_main_exp,2022.2.2,Win32,74.86711088,,,,,,,,,,,,,,,,,,masks/mask_005.jpg,,,,,,,,,,,,,,,,,,,,,,,,,,,,,,,,,,,,,,,,,,,,,,,,0,3,3,4,1,,,,,,,,,,,,,,,,,,,,,,,,,,,,,,,,,,,,,,,,,
891774,001,2022-11-21_02h00.41.381,Info_measure_main_exp,2022.2.2,Win32,74.86711088,,,,,,,,,,,,,,,,,,masks/mask_004.jpg,,,,,,,,,,,,,,,,,,,,,,,,,,,,,,,,,,,,,,,,,,,,,,,,0,4,4,3,1,,,,,,,,,,,,,,,,,,,,,,,,,,,,,,,,,,,,,,,,,
891774,001,2022-11-21_02h00.41.381,Info_measure_main_exp,2022.2.2,Win32,74.86711088,,,,,,,,,,,,,,,,,,,,,,,,,,,,,,4,1.3201,1,,,,,,,,,,,,1,131,5,5,1,2166,present_patch/cong_131_5_a.jpg,absent_patch/patch0002166.jpg,,,,,,,,,,,,,,,,,,,,0.039814815,-0.056481481,1,0,0,response3disk,21,0.009259259,0.006481481,1,0,0,center_square,0,20,20,54,1,,,,,,,,,,,,,,,,,,,,,,,
891774,001,2022-11-21_02h00.41.381,Info_measure_main_exp,2022.2.2,Win32,74.86711088,,,,,,,,,,,,,,,,,,masks/mask_004.jpg,,,,,,,,,,,,,,,,,,,,,,,,,,,,,,,,,,,,,,,,,,,0,0,0,3,1,,,,,,,,,,,,,,,,,,,,,,,,,,,,,,,,,,,,,,,,,,,,,,
891774,001,2022-11-21_02h00.41.381,Info_measure_main_exp,2022.2.2,Win32,74.86711088,,,,,,,,,,,,,,,,,,masks/mask_005.jpg,,,,,,,,,,,,,,,,,,,,,,,,,,,,,,,,,,,,,,,,,,,0,1,1,4,1,,,,,,,,,,,,,,,,,,,,,,,,,,,,,,,,,,,,,,,,,,,,,,
891774,001,2022-11-21_02h00.41.381,Info_measure_main_exp,2022.2.2,Win32,74.86711088,,,,,,,,,,,,,,,,,,masks/mask_002.jpg,,,,,,,,,,,,,,,,,,,,,,,,,,,,,,,,,,,,,,,,,,,0,2,2,1,1,,,,,,,,,,,,,,,,,,,,,,,,,,,,,,,,,,,,,,,,,,,,,,
891774,001,2022-11-21_02h00.41.381,Info_measure_main_exp,2022.2.2,Win32,74.86711088,,,,,,,,,,,,,,,,,,masks/mask_001.jpg,,,,,,,,,,,,,,,,,,,,,,,,,,,,,,,,,,,,,,,,,,,0,3,3,0,1,,,,,,,,,,,,,,,,,,,,,,,,,,,,,,,,,,,,,,,,,,,,,,
891774,001,2022-11-21_02h00.41.381,Info_measure_main_exp,2022.2.2,Win32,74.86711088,,,,,,,,,,,,,,,,,,masks/mask_003.jpg,,,,,,,,,,,,,,,,,,,,,,,,,,,,,,,,,,,,,,,,,,,0,4,4,2,1,,,,,,,,,,,,,,,,,,,,,,,,,,,,,,,,,,,,,,,,,,,,,,
891774,001,2022-11-21_02h00.41.381,Info_measure_main_exp,2022.2.2,Win32,74.86711088,,,,,,,,,,,,,,,,,,masks/mask_002.jpg,,,,,,,,,,,,,,,,,,,,,,,,,,,,,,,,,,,,,,,,,,,,,,,,0,0,0,1,1,,,,,,,,,,,,,,,,,,,,,,,,,,,,,,,,,,,,,,,,,
891774,001,2022-11-21_02h00.41.381,Info_measure_main_exp,2022.2.2,Win32,74.86711088,,,,,,,,,,,,,,,,,,masks/mask_005.jpg,,,,,,,,,,,,,,,,,,,,,,,,,,,,,,,,,,,,,,,,,,,,,,,,0,1,1,4,1,,,,,,,,,,,,,,,,,,,,,,,,,,,,,,,,,,,,,,,,,
891774,001,2022-11-21_02h00.41.381,Info_measure_main_exp,2022.2.2,Win32,74.86711088,,,,,,,,,,,,,,,,,,masks/mask_001.jpg,,,,,,,,,,,,,,,,,,,,,,,,,,,,,,,,,,,,,,,,,,,,,,,,0,2,2,0,1,,,,,,,,,,,,,,,,,,,,,,,,,,,,,,,,,,,,,,,,,
891774,001,2022-11-21_02h00.41.381,Info_measure_main_exp,2022.2.2,Win32,74.86711088,,,,,,,,,,,,,,,,,,masks/mask_004.jpg,,,,,,,,,,,,,,,,,,,,,,,,,,,,,,,,,,,,,,,,,,,,,,,,0,3,3,3,1,,,,,,,,,,,,,,,,,,,,,,,,,,,,,,,,,,,,,,,,,
891774,001,2022-11-21_02h00.41.381,Info_measure_main_exp,2022.2.2,Win32,74.86711088,,,,,,,,,,,,,,,,,,masks/mask_003.jpg,,,,,,,,,,,,,,,,,,,,,,,,,,,,,,,,,,,,,,,,,,,,,,,,0,4,4,2,1,,,,,,,,,,,,,,,,,,,,,,,,,,,,,,,,,,,,,,,,,
891774,001,2022-11-21_02h00.41.381,Info_measure_main_exp,2022.2.2,Win32,74.86711088,,,,,,,,,,,,,,,,,,,,,,,,,,,,,,6,1.4799,1,,,,,,,,,,,,0,131,5,5,2238,2298,absent_patch/patch0002238.jpg,absent_patch/patch0002298.jpg,,,,,,,,,,,,,,,,,,,,0.090740741,0.037037037,1,0,0,response1disk,22,-0.00462963,-0.001851852,1,0,0,center_square,0,21,21,51,1,,,,,,,,,,,,,,,,,,,,,,,
891774,001,2022-11-21_02h00.41.381,Info_measure_main_exp,2022.2.2,Win32,74.86711088,,,,,,,,,,,,,,,,,,masks/mask_001.jpg,,,,,,,,,,,,,,,,,,,,,,,,,,,,,,,,,,,,,,,,,,,0,0,0,0,1,,,,,,,,,,,,,,,,,,,,,,,,,,,,,,,,,,,,,,,,,,,,,,
891774,001,2022-11-21_02h00.41.381,Info_measure_main_exp,2022.2.2,Win32,74.86711088,,,,,,,,,,,,,,,,,,masks/mask_005.jpg,,,,,,,,,,,,,,,,,,,,,,,,,,,,,,,,,,,,,,,,,,,0,1,1,4,1,,,,,,,,,,,,,,,,,,,,,,,,,,,,,,,,,,,,,,,,,,,,,,
891774,001,2022-11-21_02h00.41.381,Info_measure_main_exp,2022.2.2,Win32,74.86711088,,,,,,,,,,,,,,,,,,masks/mask_003.jpg,,,,,,,,,,,,,,,,,,,,,,,,,,,,,,,,,,,,,,,,,,,0,2,2,2,1,,,,,,,,,,,,,,,,,,,,,,,,,,,,,,,,,,,,,,,,,,,,,,
891774,001,2022-11-21_02h00.41.381,Info_measure_main_exp,2022.2.2,Win32,74.86711088,,,,,,,,,,,,,,,,,,masks/mask_002.jpg,,,,,,,,,,,,,,,,,,,,,,,,,,,,,,,,,,,,,,,,,,,0,3,3,1,1,,,,,,,,,,,,,,,,,,,,,,,,,,,,,,,,,,,,,,,,,,,,,,
891774,001,2022-11-21_02h00.41.381,Info_measure_main_exp,2022.2.2,Win32,74.86711088,,,,,,,,,,,,,,,,,,masks/mask_004.jpg,,,,,,,,,,,,,,,,,,,,,,,,,,,,,,,,,,,,,,,,,,,0,4,4,3,1,,,,,,,,,,,,,,,,,,,,,,,,,,,,,,,,,,,,,,,,,,,,,,
891774,001,2022-11-21_02h00.41.381,Info_measure_main_exp,2022.2.2,Win32,74.86711088,,,,,,,,,,,,,,,,,,masks/mask_004.jpg,,,,,,,,,,,,,,,,,,,,,,,,,,,,,,,,,,,,,,,,,,,,,,,,0,0,0,3,1,,,,,,,,,,,,,,,,,,,,,,,,,,,,,,,,,,,,,,,,,
891774,001,2022-11-21_02h00.41.381,Info_measure_main_exp,2022.2.2,Win32,74.86711088,,,,,,,,,,,,,,,,,,masks/mask_005.jpg,,,,,,,,,,,,,,,,,,,,,,,,,,,,,,,,,,,,,,,,,,,,,,,,0,1,1,4,1,,,,,,,,,,,,,,,,,,,,,,,,,,,,,,,,,,,,,,,,,
891774,001,2022-11-21_02h00.41.381,Info_measure_main_exp,2022.2.2,Win32,74.86711088,,,,,,,,,,,,,,,,,,masks/mask_001.jpg,,,,,,,,,,,,,,,,,,,,,,,,,,,,,,,,,,,,,,,,,,,,,,,,0,2,2,0,1,,,,,,,,,,,,,,,,,,,,,,,,,,,,,,,,,,,,,,,,,
891774,001,2022-11-21_02h00.41.381,Info_measure_main_exp,2022.2.2,Win32,74.86711088,,,,,,,,,,,,,,,,,,masks/mask_002.jpg,,,,,,,,,,,,,,,,,,,,,,,,,,,,,,,,,,,,,,,,,,,,,,,,0,3,3,1,1,,,,,,,,,,,,,,,,,,,,,,,,,,,,,,,,,,,,,,,,,
891774,001,2022-11-21_02h00.41.381,Info_measure_main_exp,2022.2.2,Win32,74.86711088,,,,,,,,,,,,,,,,,,masks/mask_003.jpg,,,,,,,,,,,,,,,,,,,,,,,,,,,,,,,,,,,,,,,,,,,,,,,,0,4,4,2,1,,,,,,,,,,,,,,,,,,,,,,,,,,,,,,,,,,,,,,,,,
891774,001,2022-11-21_02h00.41.381,Info_measure_main_exp,2022.2.2,Win32,74.86711088,,,,,,,,,,,,,,,,,,,,,,,,,,,,,,5,2.4132,1,,,,,,,,,,,,1,131,5,5,2238,1,absent_patch/patch0002238.jpg,present_patch/cong_131_5_a.jpg,,,,,,,,,,,,,,,,,,,,0.084259259,-0.02962963,1,0,0,response3disk,23,-0.006481481,-0.001851852,1,0,0,center_square,0,22,22,104,1,,,,,,,,,,,,,,,,,,,,,,,
891774,001,2022-11-21_02h00.41.381,Info_measure_main_exp,2022.2.2,Win32,74.86711088,,,,,,,,,,,,,,,,,,masks/mask_004.jpg,,,,,,,,,,,,,,,,,,,,,,,,,,,,,,,,,,,,,,,,,,,0,0,0,3,1,,,,,,,,,,,,,,,,,,,,,,,,,,,,,,,,,,,,,,,,,,,,,,
891774,001,2022-11-21_02h00.41.381,Info_measure_main_exp,2022.2.2,Win32,74.86711088,,,,,,,,,,,,,,,,,,masks/mask_003.jpg,,,,,,,,,,,,,,,,,,,,,,,,,,,,,,,,,,,,,,,,,,,0,1,1,2,1,,,,,,,,,,,,,,,,,,,,,,,,,,,,,,,,,,,,,,,,,,,,,,
891774,001,2022-11-21_02h00.41.381,Info_measure_main_exp,2022.2.2,Win32,74.86711088,,,,,,,,,,,,,,,,,,masks/mask_002.jpg,,,,,,,,,,,,,,,,,,,,,,,,,,,,,,,,,,,,,,,,,,,0,2,2,1,1,,,,,,,,,,,,,,,,,,,,,,,,,,,,,,,,,,,,,,,,,,,,,,
891774,001,2022-11-21_02h00.41.381,Info_measure_main_exp,2022.2.2,Win32,74.86711088,,,,,,,,,,,,,,,,,,masks/mask_005.jpg,,,,,,,,,,,,,,,,,,,,,,,,,,,,,,,,,,,,,,,,,,,0,3,3,4,1,,,,,,,,,,,,,,,,,,,,,,,,,,,,,,,,,,,,,,,,,,,,,,
891774,001,2022-11-21_02h00.41.381,Info_measure_main_exp,2022.2.2,Win32,74.86711088,,,,,,,,,,,,,,,,,,masks/mask_001.jpg,,,,,,,,,,,,,,,,,,,,,,,,,,,,,,,,,,,,,,,,,,,0,4,4,0,1,,,,,,,,,,,,,,,,,,,,,,,,,,,,,,,,,,,,,,,,,,,,,,
891774,001,2022-11-21_02h00.41.381,Info_measure_main_exp,2022.2.2,Win32,74.86711088,,,,,,,,,,,,,,,,,,masks/mask_003.jpg,,,,,,,,,,,,,,,,,,,,,,,,,,,,,,,,,,,,,,,,,,,,,,,,0,0,0,2,1,,,,,,,,,,,,,,,,,,,,,,,,,,,,,,,,,,,,,,,,,
891774,001,2022-11-21_02h00.41.381,Info_measure_main_exp,2022.2.2,Win32,74.86711088,,,,,,,,,,,,,,,,,,masks/mask_001.jpg,,,,,,,,,,,,,,,,,,,,,,,,,,,,,,,,,,,,,,,,,,,,,,,,0,1,1,0,1,,,,,,,,,,,,,,,,,,,,,,,,,,,,,,,,,,,,,,,,,
891774,001,2022-11-21_02h00.41.381,Info_measure_main_exp,2022.2.2,Win32,74.86711088,,,,,,,,,,,,,,,,,,masks/mask_004.jpg,,,,,,,,,,,,,,,,,,,,,,,,,,,,,,,,,,,,,,,,,,,,,,,,0,2,2,3,1,,,,,,,,,,,,,,,,,,,,,,,,,,,,,,,,,,,,,,,,,
891774,001,2022-11-21_02h00.41.381,Info_measure_main_exp,2022.2.2,Win32,74.86711088,,,,,,,,,,,,,,,,,,masks/mask_002.jpg,,,,,,,,,,,,,,,,,,,,,,,,,,,,,,,,,,,,,,,,,,,,,,,,0,3,3,1,1,,,,,,,,,,,,,,,,,,,,,,,,,,,,,,,,,,,,,,,,,
891774,001,2022-11-21_02h00.41.381,Info_measure_main_exp,2022.2.2,Win32,74.86711088,,,,,,,,,,,,,,,,,,masks/mask_005.jpg,,,,,,,,,,,,,,,,,,,,,,,,,,,,,,,,,,,,,,,,,,,,,,,,0,4,4,4,1,,,,,,,,,,,,,,,,,,,,,,,,,,,,,,,,,,,,,,,,,
891774,001,2022-11-21_02h00.41.381,Info_measure_main_exp,2022.2.2,Win32,74.86711088,,,,,,,,,,,,,,,,,,,,,,,,,,,,,,7,1.6267,1,,,,,,,,,,,,0,131,5,5,2178,2154,absent_patch/patch0002178.jpg,absent_patch/patch0002154.jpg,,,,,,,,,,,,,,,,,,,,0.039814815,0.068518519,1,0,0,response1disk,24,-0.009259259,-0.001851852,1,0,0,center_square,0,23,23,63,1,,,,,,,,,,,,,,,,,,,,,,,
891774,001,2022-11-21_02h00.41.381,Info_measure_main_exp,2022.2.2,Win32,74.86711088,,,,,,,,,,,,,,,,,,masks/mask_003.jpg,,,,,,,,,,,,,,,,,,,,,,,,,,,,,,,,,,,,,,,,,,,0,0,0,2,1,,,,,,,,,,,,,,,,,,,,,,,,,,,,,,,,,,,,,,,,,,,,,,
891774,001,2022-11-21_02h00.41.381,Info_measure_main_exp,2022.2.2,Win32,74.86711088,,,,,,,,,,,,,,,,,,masks/mask_005.jpg,,,,,,,,,,,,,,,,,,,,,,,,,,,,,,,,,,,,,,,,,,,0,1,1,4,1,,,,,,,,,,,,,,,,,,,,,,,,,,,,,,,,,,,,,,,,,,,,,,
891774,001,2022-11-21_02h00.41.381,Info_measure_main_exp,2022.2.2,Win32,74.86711088,,,,,,,,,,,,,,,,,,masks/mask_004.jpg,,,,,,,,,,,,,,,,,,,,,,,,,,,,,,,,,,,,,,,,,,,0,2,2,3,1,,,,,,,,,,,,,,,,,,,,,,,,,,,,,,,,,,,,,,,,,,,,,,
891774,001,2022-11-21_02h00.41.381,Info_measure_main_exp,2022.2.2,Win32,74.86711088,,,,,,,,,,,,,,,,,,masks/mask_002.jpg,,,,,,,,,,,,,,,,,,,,,,,,,,,,,,,,,,,,,,,,,,,0,3,3,1,1,,,,,,,,,,,,,,,,,,,,,,,,,,,,,,,,,,,,,,,,,,,,,,
891774,001,2022-11-21_02h00.41.381,Info_measure_main_exp,2022.2.2,Win32,74.86711088,,,,,,,,,,,,,,,,,,masks/mask_001.jpg,,,,,,,,,,,,,,,,,,,,,,,,,,,,,,,,,,,,,,,,,,,0,4,4,0,1,,,,,,,,,,,,,,,,,,,,,,,,,,,,,,,,,,,,,,,,,,,,,,
891774,001,2022-11-21_02h00.41.381,Info_measure_main_exp,2022.2.2,Win32,74.86711088,,,,,,,,,,,,,,,,,,masks/mask_002.jpg,,,,,,,,,,,,,,,,,,,,,,,,,,,,,,,,,,,,,,,,,,,,,,,,0,0,0,1,1,,,,,,,,,,,,,,,,,,,,,,,,,,,,,,,,,,,,,,,,,
891774,001,2022-11-21_02h00.41.381,Info_measure_main_exp,2022.2.2,Win32,74.86711088,,,,,,,,,,,,,,,,,,masks/mask_005.jpg,,,,,,,,,,,,,,,,,,,,,,,,,,,,,,,,,,,,,,,,,,,,,,,,0,1,1,4,1,,,,,,,,,,,,,,,,,,,,,,,,,,,,,,,,,,,,,,,,,
891774,001,2022-11-21_02h00.41.381,Info_measure_main_exp,2022.2.2,Win32,74.86711088,,,,,,,,,,,,,,,,,,masks/mask_001.jpg,,,,,,,,,,,,,,,,,,,,,,,,,,,,,,,,,,,,,,,,,,,,,,,,0,2,2,0,1,,,,,,,,,,,,,,,,,,,,,,,,,,,,,,,,,,,,,,,,,
891774,001,2022-11-21_02h00.41.381,Info_measure_main_exp,2022.2.2,Win32,74.86711088,,,,,,,,,,,,,,,,,,masks/mask_003.jpg,,,,,,,,,,,,,,,,,,,,,,,,,,,,,,,,,,,,,,,,,,,,,,,,0,3,3,2,1,,,,,,,,,,,,,,,,,,,,,,,,,,,,,,,,,,,,,,,,,
891774,001,2022-11-21_02h00.41.381,Info_measure_main_exp,2022.2.2,Win32,74.86711088,,,,,,,,,,,,,,,,,,masks/mask_004.jpg,,,,,,,,,,,,,,,,,,,,,,,,,,,,,,,,,,,,,,,,,,,,,,,,0,4,4,3,1,,,,,,,,,,,,,,,,,,,,,,,,,,,,,,,,,,,,,,,,,
891774,001,2022-11-21_02h00.41.381,Info_measure_main_exp,2022.2.2,Win32,74.86711088,,,,,,,,,,,,,,,,,,,,,,,,,,,,,,1,0.9465,1,,,,,,,,,,,,0,131,5,5,1974,2178,absent_patch/patch0001974.jpg,absent_patch/patch0002178.jpg,,,,,,,,,,,,,,,,,,,,-0.057407407,0.018518519,1,0,0,response7disk,25,0.006481481,-0.000925926,1,0,0,center_square,0,24,24,44,1,,,,,,,,,,,,,,,,,,,,,,,
891774,001,2022-11-21_02h00.41.381,Info_measure_main_exp,2022.2.2,Win32,74.86711088,,,,,,,,,,,,,,,,,,masks/mask_001.jpg,,,,,,,,,,,,,,,,,,,,,,,,,,,,,,,,,,,,,,,,,,,0,0,0,0,1,,,,,,,,,,,,,,,,,,,,,,,,,,,,,,,,,,,,,,,,,,,,,,
891774,001,2022-11-21_02h00.41.381,Info_measure_main_exp,2022.2.2,Win32,74.86711088,,,,,,,,,,,,,,,,,,masks/mask_003.jpg,,,,,,,,,,,,,,,,,,,,,,,,,,,,,,,,,,,,,,,,,,,0,1,1,2,1,,,,,,,,,,,,,,,,,,,,,,,,,,,,,,,,,,,,,,,,,,,,,,
891774,001,2022-11-21_02h00.41.381,Info_measure_main_exp,2022.2.2,Win32,74.86711088,,,,,,,,,,,,,,,,,,masks/mask_004.jpg,,,,,,,,,,,,,,,,,,,,,,,,,,,,,,,,,,,,,,,,,,,0,2,2,3,1,,,,,,,,,,,,,,,,,,,,,,,,,,,,,,,,,,,,,,,,,,,,,,
891774,001,2022-11-21_02h00.41.381,Info_measure_main_exp,2022.2.2,Win32,74.86711088,,,,,,,,,,,,,,,,,,masks/mask_005.jpg,,,,,,,,,,,,,,,,,,,,,,,,,,,,,,,,,,,,,,,,,,,0,3,3,4,1,,,,,,,,,,,,,,,,,,,,,,,,,,,,,,,,,,,,,,,,,,,,,,
891774,001,2022-11-21_02h00.41.381,Info_measure_main_exp,2022.2.2,Win32,74.86711088,,,,,,,,,,,,,,,,,,masks/mask_002.jpg,,,,,,,,,,,,,,,,,,,,,,,,,,,,,,,,,,,,,,,,,,,0,4,4,1,1,,,,,,,,,,,,,,,,,,,,,,,,,,,,,,,,,,,,,,,,,,,,,,
891774,001,2022-11-21_02h00.41.381,Info_measure_main_exp,2022.2.2,Win32,74.86711088,,,,,,,,,,,,,,,,,,masks/mask_004.jpg,,,,,,,,,,,,,,,,,,,,,,,,,,,,,,,,,,,,,,,,,,,,,,,,0,0,0,3,1,,,,,,,,,,,,,,,,,,,,,,,,,,,,,,,,,,,,,,,,,
891774,001,2022-11-21_02h00.41.381,Info_measure_main_exp,2022.2.2,Win32,74.86711088,,,,,,,,,,,,,,,,,,masks/mask_005.jpg,,,,,,,,,,,,,,,,,,,,,,,,,,,,,,,,,,,,,,,,,,,,,,,,0,1,1,4,1,,,,,,,,,,,,,,,,,,,,,,,,,,,,,,,,,,,,,,,,,
891774,001,2022-11-21_02h00.41.381,Info_measure_main_exp,2022.2.2,Win32,74.86711088,,,,,,,,,,,,,,,,,,masks/mask_002.jpg,,,,,,,,,,,,,,,,,,,,,,,,,,,,,,,,,,,,,,,,,,,,,,,,0,2,2,1,1,,,,,,,,,,,,,,,,,,,,,,,,,,,,,,,,,,,,,,,,,
891774,001,2022-11-21_02h00.41.381,Info_measure_main_exp,2022.2.2,Win32,74.86711088,,,,,,,,,,,,,,,,,,masks/mask_003.jpg,,,,,,,,,,,,,,,,,,,,,,,,,,,,,,,,,,,,,,,,,,,,,,,,0,3,3,2,1,,,,,,,,,,,,,,,,,,,,,,,,,,,,,,,,,,,,,,,,,
891774,001,2022-11-21_02h00.41.381,Info_measure_main_exp,2022.2.2,Win32,74.86711088,,,,,,,,,,,,,,,,,,masks/mask_001.jpg,,,,,,,,,,,,,,,,,,,,,,,,,,,,,,,,,,,,,,,,,,,,,,,,0,4,4,0,1,,,,,,,,,,,,,,,,,,,,,,,,,,,,,,,,,,,,,,,,,
891774,001,2022-11-21_02h00.41.381,Info_measure_main_exp,2022.2.2,Win32,74.86711088,,,,,,,,,,,,,,,,,,,,,,,,,,,,,,4,2.7734,1,,,,,,,,,,,,0,131,5,5,2190,2082,absent_patch/patch0002190.jpg,absent_patch/patch0002082.jpg,,,,,,,,,,,,,,,,,,,,0.025925926,-0.043518519,1,0,0,response3disk,26,0.002777778,0.003703704,1,0,0,center_square,0,25,25,112,1,,,,,,,,,,,,,,,,,,,,,,,
891774,001,2022-11-21_02h00.41.381,Info_measure_main_exp,2022.2.2,Win32,74.86711088,,,,,,,,,,,,,,,,,,masks/mask_001.jpg,,,,,,,,,,,,,,,,,,,,,,,,,,,,,,,,,,,,,,,,,,,0,0,0,0,1,,,,,,,,,,,,,,,,,,,,,,,,,,,,,,,,,,,,,,,,,,,,,,
891774,001,2022-11-21_02h00.41.381,Info_measure_main_exp,2022.2.2,Win32,74.86711088,,,,,,,,,,,,,,,,,,masks/mask_004.jpg,,,,,,,,,,,,,,,,,,,,,,,,,,,,,,,,,,,,,,,,,,,0,1,1,3,1,,,,,,,,,,,,,,,,,,,,,,,,,,,,,,,,,,,,,,,,,,,,,,
891774,001,2022-11-21_02h00.41.381,Info_measure_main_exp,2022.2.2,Win32,74.86711088,,,,,,,,,,,,,,,,,,masks/mask_002.jpg,,,,,,,,,,,,,,,,,,,,,,,,,,,,,,,,,,,,,,,,,,,0,2,2,1,1,,,,,,,,,,,,,,,,,,,,,,,,,,,,,,,,,,,,,,,,,,,,,,
891774,001,2022-11-21_02h00.41.381,Info_measure_main_exp,2022.2.2,Win32,74.86711088,,,,,,,,,,,,,,,,,,masks/mask_005.jpg,,,,,,,,,,,,,,,,,,,,,,,,,,,,,,,,,,,,,,,,,,,0,3,3,4,1,,,,,,,,,,,,,,,,,,,,,,,,,,,,,,,,,,,,,,,,,,,,,,
891774,001,2022-11-21_02h00.41.381,Info_measure_main_exp,2022.2.2,Win32,74.86711088,,,,,,,,,,,,,,,,,,masks/mask_003.jpg,,,,,,,,,,,,,,,,,,,,,,,,,,,,,,,,,,,,,,,,,,,0,4,4,2,1,,,,,,,,,,,,,,,,,,,,,,,,,,,,,,,,,,,,,,,,,,,,,,
891774,001,2022-11-21_02h00.41.381,Info_measure_main_exp,2022.2.2,Win32,74.86711088,,,,,,,,,,,,,,,,,,masks/mask_001.jpg,,,,,,,,,,,,,,,,,,,,,,,,,,,,,,,,,,,,,,,,,,,,,,,,0,0,0,0,1,,,,,,,,,,,,,,,,,,,,,,,,,,,,,,,,,,,,,,,,,
891774,001,2022-11-21_02h00.41.381,Info_measure_main_exp,2022.2.2,Win32,74.86711088,,,,,,,,,,,,,,,,,,masks/mask_004.jpg,,,,,,,,,,,,,,,,,,,,,,,,,,,,,,,,,,,,,,,,,,,,,,,,0,1,1,3,1,,,,,,,,,,,,,,,,,,,,,,,,,,,,,,,,,,,,,,,,,
891774,001,2022-11-21_02h00.41.381,Info_measure_main_exp,2022.2.2,Win32,74.86711088,,,,,,,,,,,,,,,,,,masks/mask_003.jpg,,,,,,,,,,,,,,,,,,,,,,,,,,,,,,,,,,,,,,,,,,,,,,,,0,2,2,2,1,,,,,,,,,,,,,,,,,,,,,,,,,,,,,,,,,,,,,,,,,
891774,001,2022-11-21_02h00.41.381,Info_measure_main_exp,2022.2.2,Win32,74.86711088,,,,,,,,,,,,,,,,,,masks/mask_002.jpg,,,,,,,,,,,,,,,,,,,,,,,,,,,,,,,,,,,,,,,,,,,,,,,,0,3,3,1,1,,,,,,,,,,,,,,,,,,,,,,,,,,,,,,,,,,,,,,,,,
891774,001,2022-11-21_02h00.41.381,Info_measure_main_exp,2022.2.2,Win32,74.86711088,,,,,,,,,,,,,,,,,,masks/mask_005.jpg,,,,,,,,,,,,,,,,,,,,,,,,,,,,,,,,,,,,,,,,,,,,,,,,0,4,4,4,1,,,,,,,,,,,,,,,,,,,,,,,,,,,,,,,,,,,,,,,,,
891774,001,2022-11-21_02h00.41.381,Info_measure_main_exp,2022.2.2,Win32,74.86711088,,,,,,,,,,,,,,,,,,,,,,,,,,,,,,6,3.1201,1,,,,,,,,,,,,0,131,5,5,2190,2214,absent_patch/patch0002190.jpg,absent_patch/patch0002214.jpg,,,,,,,,,,,,,,,,,,,,0.075925926,0.028703704,1,0,0,response1disk,27,0.006481481,-0.003703704,1,0,0,center_square,0,26,26,35,1,,,,,,,,,,,,,,,,,,,,,,,
891774,001,2022-11-21_02h00.41.381,Info_measure_main_exp,2022.2.2,Win32,74.86711088,,,,,,,,,,,,,,,,,,masks/mask_004.jpg,,,,,,,,,,,,,,,,,,,,,,,,,,,,,,,,,,,,,,,,,,,0,0,0,3,1,,,,,,,,,,,,,,,,,,,,,,,,,,,,,,,,,,,,,,,,,,,,,,
891774,001,2022-11-21_02h00.41.381,Info_measure_main_exp,2022.2.2,Win32,74.86711088,,,,,,,,,,,,,,,,,,masks/mask_002.jpg,,,,,,,,,,,,,,,,,,,,,,,,,,,,,,,,,,,,,,,,,,,0,1,1,1,1,,,,,,,,,,,,,,,,,,,,,,,,,,,,,,,,,,,,,,,,,,,,,,
891774,001,2022-11-21_02h00.41.381,Info_measure_main_exp,2022.2.2,Win32,74.86711088,,,,,,,,,,,,,,,,,,masks/mask_001.jpg,,,,,,,,,,,,,,,,,,,,,,,,,,,,,,,,,,,,,,,,,,,0,2,2,0,1,,,,,,,,,,,,,,,,,,,,,,,,,,,,,,,,,,,,,,,,,,,,,,
891774,001,2022-11-21_02h00.41.381,Info_measure_main_exp,2022.2.2,Win32,74.86711088,,,,,,,,,,,,,,,,,,masks/mask_003.jpg,,,,,,,,,,,,,,,,,,,,,,,,,,,,,,,,,,,,,,,,,,,0,3,3,2,1,,,,,,,,,,,,,,,,,,,,,,,,,,,,,,,,,,,,,,,,,,,,,,
891774,001,2022-11-21_02h00.41.381,Info_measure_main_exp,2022.2.2,Win32,74.86711088,,,,,,,,,,,,,,,,,,masks/mask_005.jpg,,,,,,,,,,,,,,,,,,,,,,,,,,,,,,,,,,,,,,,,,,,0,4,4,4,1,,,,,,,,,,,,,,,,,,,,,,,,,,,,,,,,,,,,,,,,,,,,,,
891774,001,2022-11-21_02h00.41.381,Info_measure_main_exp,2022.2.2,Win32,74.86711088,,,,,,,,,,,,,,,,,,masks/mask_004.jpg,,,,,,,,,,,,,,,,,,,,,,,,,,,,,,,,,,,,,,,,,,,,,,,,0,0,0,3,1,,,,,,,,,,,,,,,,,,,,,,,,,,,,,,,,,,,,,,,,,
891774,001,2022-11-21_02h00.41.381,Info_measure_main_exp,2022.2.2,Win32,74.86711088,,,,,,,,,,,,,,,,,,masks/mask_005.jpg,,,,,,,,,,,,,,,,,,,,,,,,,,,,,,,,,,,,,,,,,,,,,,,,0,1,1,4,1,,,,,,,,,,,,,,,,,,,,,,,,,,,,,,,,,,,,,,,,,
891774,001,2022-11-21_02h00.41.381,Info_measure_main_exp,2022.2.2,Win32,74.86711088,,,,,,,,,,,,,,,,,,masks/mask_003.jpg,,,,,,,,,,,,,,,,,,,,,,,,,,,,,,,,,,,,,,,,,,,,,,,,0,2,2,2,1,,,,,,,,,,,,,,,,,,,,,,,,,,,,,,,,,,,,,,,,,
891774,001,2022-11-21_02h00.41.381,Info_measure_main_exp,2022.2.2,Win32,74.86711088,,,,,,,,,,,,,,,,,,masks/mask_002.jpg,,,,,,,,,,,,,,,,,,,,,,,,,,,,,,,,,,,,,,,,,,,,,,,,0,3,3,1,1,,,,,,,,,,,,,,,,,,,,,,,,,,,,,,,,,,,,,,,,,
891774,001,2022-11-21_02h00.41.381,Info_measure_main_exp,2022.2.2,Win32,74.86711088,,,,,,,,,,,,,,,,,,masks/mask_001.jpg,,,,,,,,,,,,,,,,,,,,,,,,,,,,,,,,,,,,,,,,,,,,,,,,0,4,4,0,1,,,,,,,,,,,,,,,,,,,,,,,,,,,,,,,,,,,,,,,,,
891774,001,2022-11-21_02h00.41.381,Info_measure_main_exp,2022.2.2,Win32,74.86711088,,,,,,,,,,,,,,,,,,,,,,,,,,,,,,7,0.7733,1,,,,,,,,,,,,0,131,5,5,2214,1986,absent_patch/patch0002214.jpg,absent_patch/patch0001986.jpg,,,,,,,,,,,,,,,,,,,,0.011111111,0.043518519,1,0,0,response1disk,28,-0.000925926,-0.007407407,1,0,0,center_square,0,27,27,34,1,,,,,,,,,,,,,,,,,,,,,,,
891774,001,2022-11-21_02h00.41.381,Info_measure_main_exp,2022.2.2,Win32,74.86711088,,,,,,,,,,,,,,,,,,masks/mask_003.jpg,,,,,,,,,,,,,,,,,,,,,,,,,,,,,,,,,,,,,,,,,,,0,0,0,2,1,,,,,,,,,,,,,,,,,,,,,,,,,,,,,,,,,,,,,,,,,,,,,,
891774,001,2022-11-21_02h00.41.381,Info_measure_main_exp,2022.2.2,Win32,74.86711088,,,,,,,,,,,,,,,,,,masks/mask_002.jpg,,,,,,,,,,,,,,,,,,,,,,,,,,,,,,,,,,,,,,,,,,,0,1,1,1,1,,,,,,,,,,,,,,,,,,,,,,,,,,,,,,,,,,,,,,,,,,,,,,
891774,001,2022-11-21_02h00.41.381,Info_measure_main_exp,2022.2.2,Win32,74.86711088,,,,,,,,,,,,,,,,,,masks/mask_005.jpg,,,,,,,,,,,,,,,,,,,,,,,,,,,,,,,,,,,,,,,,,,,0,2,2,4,1,,,,,,,,,,,,,,,,,,,,,,,,,,,,,,,,,,,,,,,,,,,,,,
891774,001,2022-11-21_02h00.41.381,Info_measure_main_exp,2022.2.2,Win32,74.86711088,,,,,,,,,,,,,,,,,,masks/mask_001.jpg,,,,,,,,,,,,,,,,,,,,,,,,,,,,,,,,,,,,,,,,,,,0,3,3,0,1,,,,,,,,,,,,,,,,,,,,,,,,,,,,,,,,,,,,,,,,,,,,,,
891774,001,2022-11-21_02h00.41.381,Info_measure_main_exp,2022.2.2,Win32,74.86711088,,,,,,,,,,,,,,,,,,masks/mask_004.jpg,,,,,,,,,,,,,,,,,,,,,,,,,,,,,,,,,,,,,,,,,,,0,4,4,3,1,,,,,,,,,,,,,,,,,,,,,,,,,,,,,,,,,,,,,,,,,,,,,,
891774,001,2022-11-21_02h00.41.381,Info_measure_main_exp,2022.2.2,Win32,74.86711088,,,,,,,,,,,,,,,,,,masks/mask_004.jpg,,,,,,,,,,,,,,,,,,,,,,,,,,,,,,,,,,,,,,,,,,,,,,,,0,0,0,3,1,,,,,,,,,,,,,,,,,,,,,,,,,,,,,,,,,,,,,,,,,
891774,001,2022-11-21_02h00.41.381,Info_measure_main_exp,2022.2.2,Win32,74.86711088,,,,,,,,,,,,,,,,,,masks/mask_002.jpg,,,,,,,,,,,,,,,,,,,,,,,,,,,,,,,,,,,,,,,,,,,,,,,,0,1,1,1,1,,,,,,,,,,,,,,,,,,,,,,,,,,,,,,,,,,,,,,,,,
891774,001,2022-11-21_02h00.41.381,Info_measure_main_exp,2022.2.2,Win32,74.86711088,,,,,,,,,,,,,,,,,,masks/mask_001.jpg,,,,,,,,,,,,,,,,,,,,,,,,,,,,,,,,,,,,,,,,,,,,,,,,0,2,2,0,1,,,,,,,,,,,,,,,,,,,,,,,,,,,,,,,,,,,,,,,,,
891774,001,2022-11-21_02h00.41.381,Info_measure_main_exp,2022.2.2,Win32,74.86711088,,,,,,,,,,,,,,,,,,masks/mask_005.jpg,,,,,,,,,,,,,,,,,,,,,,,,,,,,,,,,,,,,,,,,,,,,,,,,0,3,3,4,1,,,,,,,,,,,,,,,,,,,,,,,,,,,,,,,,,,,,,,,,,
891774,001,2022-11-21_02h00.41.381,Info_measure_main_exp,2022.2.2,Win32,74.86711088,,,,,,,,,,,,,,,,,,masks/mask_003.jpg,,,,,,,,,,,,,,,,,,,,,,,,,,,,,,,,,,,,,,,,,,,,,,,,0,4,4,2,1,,,,,,,,,,,,,,,,,,,,,,,,,,,,,,,,,,,,,,,,,
891774,001,2022-11-21_02h00.41.381,Info_measure_main_exp,2022.2.2,Win32,74.86711088,,,,,,,,,,,,,,,,,,,,,,,,,,,,,,7,0.48,1,,,,,,,,,,,,0,131,5,5,2082,2298,absent_patch/patch0002082.jpg,absent_patch/patch0002298.jpg,,,,,,,,,,,,,,,,,,,,0.021296296,0.05,1,0,0,response1disk,29,0.000925926,-0.005555556,1,0,0,center_square,0,28,28,107,1,,,,,,,,,,,,,,,,,,,,,,,
891774,001,2022-11-21_02h00.41.381,Info_measure_main_exp,2022.2.2,Win32,74.86711088,,,,,,,,,,,,,,,,,,masks/mask_005.jpg,,,,,,,,,,,,,,,,,,,,,,,,,,,,,,,,,,,,,,,,,,,0,0,0,4,1,,,,,,,,,,,,,,,,,,,,,,,,,,,,,,,,,,,,,,,,,,,,,,
891774,001,2022-11-21_02h00.41.381,Info_measure_main_exp,2022.2.2,Win32,74.86711088,,,,,,,,,,,,,,,,,,masks/mask_004.jpg,,,,,,,,,,,,,,,,,,,,,,,,,,,,,,,,,,,,,,,,,,,0,1,1,3,1,,,,,,,,,,,,,,,,,,,,,,,,,,,,,,,,,,,,,,,,,,,,,,
891774,001,2022-11-21_02h00.41.381,Info_measure_main_exp,2022.2.2,Win32,74.86711088,,,,,,,,,,,,,,,,,,masks/mask_003.jpg,,,,,,,,,,,,,,,,,,,,,,,,,,,,,,,,,,,,,,,,,,,0,2,2,2,1,,,,,,,,,,,,,,,,,,,,,,,,,,,,,,,,,,,,,,,,,,,,,,
891774,001,2022-11-21_02h00.41.381,Info_measure_main_exp,2022.2.2,Win32,74.86711088,,,,,,,,,,,,,,,,,,masks/mask_002.jpg,,,,,,,,,,,,,,,,,,,,,,,,,,,,,,,,,,,,,,,,,,,0,3,3,1,1,,,,,,,,,,,,,,,,,,,,,,,,,,,,,,,,,,,,,,,,,,,,,,
891774,001,2022-11-21_02h00.41.381,Info_measure_main_exp,2022.2.2,Win32,74.86711088,,,,,,,,,,,,,,,,,,masks/mask_001.jpg,,,,,,,,,,,,,,,,,,,,,,,,,,,,,,,,,,,,,,,,,,,0,4,4,0,1,,,,,,,,,,,,,,,,,,,,,,,,,,,,,,,,,,,,,,,,,,,,,,
891774,001,2022-11-21_02h00.41.381,Info_measure_main_exp,2022.2.2,Win32,74.86711088,,,,,,,,,,,,,,,,,,masks/mask_001.jpg,,,,,,,,,,,,,,,,,,,,,,,,,,,,,,,,,,,,,,,,,,,,,,,,0,0,0,0,1,,,,,,,,,,,,,,,,,,,,,,,,,,,,,,,,,,,,,,,,,
891774,001,2022-11-21_02h00.41.381,Info_measure_main_exp,2022.2.2,Win32,74.86711088,,,,,,,,,,,,,,,,,,masks/mask_003.jpg,,,,,,,,,,,,,,,,,,,,,,,,,,,,,,,,,,,,,,,,,,,,,,,,0,1,1,2,1,,,,,,,,,,,,,,,,,,,,,,,,,,,,,,,,,,,,,,,,,
891774,001,2022-11-21_02h00.41.381,Info_measure_main_exp,2022.2.2,Win32,74.86711088,,,,,,,,,,,,,,,,,,masks/mask_002.jpg,,,,,,,,,,,,,,,,,,,,,,,,,,,,,,,,,,,,,,,,,,,,,,,,0,2,2,1,1,,,,,,,,,,,,,,,,,,,,,,,,,,,,,,,,,,,,,,,,,
891774,001,2022-11-21_02h00.41.381,Info_measure_main_exp,2022.2.2,Win32,74.86711088,,,,,,,,,,,,,,,,,,masks/mask_004.jpg,,,,,,,,,,,,,,,,,,,,,,,,,,,,,,,,,,,,,,,,,,,,,,,,0,3,3,3,1,,,,,,,,,,,,,,,,,,,,,,,,,,,,,,,,,,,,,,,,,
891774,001,2022-11-21_02h00.41.381,Info_measure_main_exp,2022.2.2,Win32,74.86711088,,,,,,,,,,,,,,,,,,masks/mask_005.jpg,,,,,,,,,,,,,,,,,,,,,,,,,,,,,,,,,,,,,,,,,,,,,,,,0,4,4,4,1,,,,,,,,,,,,,,,,,,,,,,,,,,,,,,,,,,,,,,,,,
891774,001,2022-11-21_02h00.41.381,Info_measure_main_exp,2022.2.2,Win32,74.86711088,,,,,,,,,,,,,,,,,,,,,,,,,,,,,,1,0.5199,1,,,,,,,,,,,,0,131,5,5,2142,2142,absent_patch/patch0002142.jpg,absent_patch/patch0002142.jpg,,,,,,,,,,,,,,,,,,,,-0.059259259,0.042592593,1,0,0,response7disk,30,0.007407407,0.007407407,1,0,0,center_square,0,29,29,13,1,,,,,,,,,,,,,,,,,,,,,,,
891774,001,2022-11-21_02h00.41.381,Info_measure_main_exp,2022.2.2,Win32,74.86711088,,,,,,,,,,,,,,,,,,masks/mask_004.jpg,,,,,,,,,,,,,,,,,,,,,,,,,,,,,,,,,,,,,,,,,,,0,0,0,3,1,,,,,,,,,,,,,,,,,,,,,,,,,,,,,,,,,,,,,,,,,,,,,,
891774,001,2022-11-21_02h00.41.381,Info_measure_main_exp,2022.2.2,Win32,74.86711088,,,,,,,,,,,,,,,,,,masks/mask_001.jpg,,,,,,,,,,,,,,,,,,,,,,,,,,,,,,,,,,,,,,,,,,,0,1,1,0,1,,,,,,,,,,,,,,,,,,,,,,,,,,,,,,,,,,,,,,,,,,,,,,
891774,001,2022-11-21_02h00.41.381,Info_measure_main_exp,2022.2.2,Win32,74.86711088,,,,,,,,,,,,,,,,,,masks/mask_002.jpg,,,,,,,,,,,,,,,,,,,,,,,,,,,,,,,,,,,,,,,,,,,0,2,2,1,1,,,,,,,,,,,,,,,,,,,,,,,,,,,,,,,,,,,,,,,,,,,,,,
891774,001,2022-11-21_02h00.41.381,Info_measure_main_exp,2022.2.2,Win32,74.86711088,,,,,,,,,,,,,,,,,,masks/mask_003.jpg,,,,,,,,,,,,,,,,,,,,,,,,,,,,,,,,,,,,,,,,,,,0,3,3,2,1,,,,,,,,,,,,,,,,,,,,,,,,,,,,,,,,,,,,,,,,,,,,,,
891774,001,2022-11-21_02h00.41.381,Info_measure_main_exp,2022.2.2,Win32,74.86711088,,,,,,,,,,,,,,,,,,masks/mask_005.jpg,,,,,,,,,,,,,,,,,,,,,,,,,,,,,,,,,,,,,,,,,,,0,4,4,4,1,,,,,,,,,,,,,,,,,,,,,,,,,,,,,,,,,,,,,,,,,,,,,,
891774,001,2022-11-21_02h00.41.381,Info_measure_main_exp,2022.2.2,Win32,74.86711088,,,,,,,,,,,,,,,,,,masks/mask_003.jpg,,,,,,,,,,,,,,,,,,,,,,,,,,,,,,,,,,,,,,,,,,,,,,,,0,0,0,2,1,,,,,,,,,,,,,,,,,,,,,,,,,,,,,,,,,,,,,,,,,
891774,001,2022-11-21_02h00.41.381,Info_measure_main_exp,2022.2.2,Win32,74.86711088,,,,,,,,,,,,,,,,,,masks/mask_005.jpg,,,,,,,,,,,,,,,,,,,,,,,,,,,,,,,,,,,,,,,,,,,,,,,,0,1,1,4,1,,,,,,,,,,,,,,,,,,,,,,,,,,,,,,,,,,,,,,,,,
891774,001,2022-11-21_02h00.41.381,Info_measure_main_exp,2022.2.2,Win32,74.86711088,,,,,,,,,,,,,,,,,,masks/mask_001.jpg,,,,,,,,,,,,,,,,,,,,,,,,,,,,,,,,,,,,,,,,,,,,,,,,0,2,2,0,1,,,,,,,,,,,,,,,,,,,,,,,,,,,,,,,,,,,,,,,,,
891774,001,2022-11-21_02h00.41.381,Info_measure_main_exp,2022.2.2,Win32,74.86711088,,,,,,,,,,,,,,,,,,masks/mask_002.jpg,,,,,,,,,,,,,,,,,,,,,,,,,,,,,,,,,,,,,,,,,,,,,,,,0,3,3,1,1,,,,,,,,,,,,,,,,,,,,,,,,,,,,,,,,,,,,,,,,,
891774,001,2022-11-21_02h00.41.381,Info_measure_main_exp,2022.2.2,Win32,74.86711088,,,,,,,,,,,,,,,,,,masks/mask_004.jpg,,,,,,,,,,,,,,,,,,,,,,,,,,,,,,,,,,,,,,,,,,,,,,,,0,4,4,3,1,,,,,,,,,,,,,,,,,,,,,,,,,,,,,,,,,,,,,,,,,
891774,001,2022-11-21_02h00.41.381,Info_measure_main_exp,2022.2.2,Win32,74.86711088,,,,,,,,,,,,,,,,,,,,,,,,,,,,,,7,1.5202,1,,,,,,,,,,,,1,131,5,5,2190,1,absent_patch/patch0002190.jpg,present_patch/cong_131_5_a.jpg,,,,,,,,,,,,,,,,,,,,0.009259259,0.058333333,1,0,0,response1disk,31,-0.00462963,0.003703704,1,0,0,center_square,0,30,30,64,1,,,,,,,,,,,,,,,,,,,,,,,
891774,001,2022-11-21_02h00.41.381,Info_measure_main_exp,2022.2.2,Win32,74.86711088,,,,,,,,,,,,,,,,,,masks/mask_003.jpg,,,,,,,,,,,,,,,,,,,,,,,,,,,,,,,,,,,,,,,,,,,0,0,0,2,1,,,,,,,,,,,,,,,,,,,,,,,,,,,,,,,,,,,,,,,,,,,,,,
891774,001,2022-11-21_02h00.41.381,Info_measure_main_exp,2022.2.2,Win32,74.86711088,,,,,,,,,,,,,,,,,,masks/mask_002.jpg,,,,,,,,,,,,,,,,,,,,,,,,,,,,,,,,,,,,,,,,,,,0,1,1,1,1,,,,,,,,,,,,,,,,,,,,,,,,,,,,,,,,,,,,,,,,,,,,,,
891774,001,2022-11-21_02h00.41.381,Info_measure_main_exp,2022.2.2,Win32,74.86711088,,,,,,,,,,,,,,,,,,masks/mask_005.jpg,,,,,,,,,,,,,,,,,,,,,,,,,,,,,,,,,,,,,,,,,,,0,2,2,4,1,,,,,,,,,,,,,,,,,,,,,,,,,,,,,,,,,,,,,,,,,,,,,,
891774,001,2022-11-21_02h00.41.381,Info_measure_main_exp,2022.2.2,Win32,74.86711088,,,,,,,,,,,,,,,,,,masks/mask_004.jpg,,,,,,,,,,,,,,,,,,,,,,,,,,,,,,,,,,,,,,,,,,,0,3,3,3,1,,,,,,,,,,,,,,,,,,,,,,,,,,,,,,,,,,,,,,,,,,,,,,
891774,001,2022-11-21_02h00.41.381,Info_measure_main_exp,2022.2.2,Win32,74.86711088,,,,,,,,,,,,,,,,,,masks/mask_001.jpg,,,,,,,,,,,,,,,,,,,,,,,,,,,,,,,,,,,,,,,,,,,0,4,4,0,1,,,,,,,,,,,,,,,,,,,,,,,,,,,,,,,,,,,,,,,,,,,,,,
891774,001,2022-11-21_02h00.41.381,Info_measure_main_exp,2022.2.2,Win32,74.86711088,,,,,,,,,,,,,,,,,,masks/mask_002.jpg,,,,,,,,,,,,,,,,,,,,,,,,,,,,,,,,,,,,,,,,,,,,,,,,0,0,0,1,1,,,,,,,,,,,,,,,,,,,,,,,,,,,,,,,,,,,,,,,,,
891774,001,2022-11-21_02h00.41.381,Info_measure_main_exp,2022.2.2,Win32,74.86711088,,,,,,,,,,,,,,,,,,masks/mask_001.jpg,,,,,,,,,,,,,,,,,,,,,,,,,,,,,,,,,,,,,,,,,,,,,,,,0,1,1,0,1,,,,,,,,,,,,,,,,,,,,,,,,,,,,,,,,,,,,,,,,,
891774,001,2022-11-21_02h00.41.381,Info_measure_main_exp,2022.2.2,Win32,74.86711088,,,,,,,,,,,,,,,,,,masks/mask_004.jpg,,,,,,,,,,,,,,,,,,,,,,,,,,,,,,,,,,,,,,,,,,,,,,,,0,2,2,3,1,,,,,,,,,,,,,,,,,,,,,,,,,,,,,,,,,,,,,,,,,
891774,001,2022-11-21_02h00.41.381,Info_measure_main_exp,2022.2.2,Win32,74.86711088,,,,,,,,,,,,,,,,,,masks/mask_005.jpg,,,,,,,,,,,,,,,,,,,,,,,,,,,,,,,,,,,,,,,,,,,,,,,,0,3,3,4,1,,,,,,,,,,,,,,,,,,,,,,,,,,,,,,,,,,,,,,,,,
891774,001,2022-11-21_02h00.41.381,Info_measure_main_exp,2022.2.2,Win32,74.86711088,,,,,,,,,,,,,,,,,,masks/mask_003.jpg,,,,,,,,,,,,,,,,,,,,,,,,,,,,,,,,,,,,,,,,,,,,,,,,0,4,4,2,1,,,,,,,,,,,,,,,,,,,,,,,,,,,,,,,,,,,,,,,,,
891774,001,2022-11-21_02h00.41.381,Info_measure_main_exp,2022.2.2,Win32,74.86711088,,,,,,,,,,,,,,,,,,,,,,,,,,,,,,1,0.5068,1,,,,,,,,,,,,0,131,5,5,2154,2154,absent_patch/patch0002154.jpg,absent_patch/patch0002154.jpg,,,,,,,,,,,,,,,,,,,,-0.096296296,0.018518519,1,0,0,response7disk,32,-0.007407407,0.00462963,1,0,0,center_square,0,31,31,89,1,,,,,,,,,,,,,,,,,,,,,,,
891774,001,2022-11-21_02h00.41.381,Info_measure_main_exp,2022.2.2,Win32,74.86711088,,,,,,,,,,,,,,,,,,masks/mask_003.jpg,,,,,,,,,,,,,,,,,,,,,,,,,,,,,,,,,,,,,,,,,,,0,0,0,2,1,,,,,,,,,,,,,,,,,,,,,,,,,,,,,,,,,,,,,,,,,,,,,,
891774,001,2022-11-21_02h00.41.381,Info_measure_main_exp,2022.2.2,Win32,74.86711088,,,,,,,,,,,,,,,,,,masks/mask_005.jpg,,,,,,,,,,,,,,,,,,,,,,,,,,,,,,,,,,,,,,,,,,,0,1,1,4,1,,,,,,,,,,,,,,,,,,,,,,,,,,,,,,,,,,,,,,,,,,,,,,
891774,001,2022-11-21_02h00.41.381,Info_measure_main_exp,2022.2.2,Win32,74.86711088,,,,,,,,,,,,,,,,,,masks/mask_004.jpg,,,,,,,,,,,,,,,,,,,,,,,,,,,,,,,,,,,,,,,,,,,0,2,2,3,1,,,,,,,,,,,,,,,,,,,,,,,,,,,,,,,,,,,,,,,,,,,,,,
891774,001,2022-11-21_02h00.41.381,Info_measure_main_exp,2022.2.2,Win32,74.86711088,,,,,,,,,,,,,,,,,,masks/mask_002.jpg,,,,,,,,,,,,,,,,,,,,,,,,,,,,,,,,,,,,,,,,,,,0,3,3,1,1,,,,,,,,,,,,,,,,,,,,,,,,,,,,,,,,,,,,,,,,,,,,,,
891774,001,2022-11-21_02h00.41.381,Info_measure_main_exp,2022.2.2,Win32,74.86711088,,,,,,,,,,,,,,,,,,masks/mask_001.jpg,,,,,,,,,,,,,,,,,,,,,,,,,,,,,,,,,,,,,,,,,,,0,4,4,0,1,,,,,,,,,,,,,,,,,,,,,,,,,,,,,,,,,,,,,,,,,,,,,,
891774,001,2022-11-21_02h00.41.381,Info_measure_main_exp,2022.2.2,Win32,74.86711088,,,,,,,,,,,,,,,,,,masks/mask_005.jpg,,,,,,,,,,,,,,,,,,,,,,,,,,,,,,,,,,,,,,,,,,,,,,,,0,0,0,4,1,,,,,,,,,,,,,,,,,,,,,,,,,,,,,,,,,,,,,,,,,
891774,001,2022-11-21_02h00.41.381,Info_measure_main_exp,2022.2.2,Win32,74.86711088,,,,,,,,,,,,,,,,,,masks/mask_003.jpg,,,,,,,,,,,,,,,,,,,,,,,,,,,,,,,,,,,,,,,,,,,,,,,,0,1,1,2,1,,,,,,,,,,,,,,,,,,,,,,,,,,,,,,,,,,,,,,,,,
891774,001,2022-11-21_02h00.41.381,Info_measure_main_exp,2022.2.2,Win32,74.86711088,,,,,,,,,,,,,,,,,,masks/mask_002.jpg,,,,,,,,,,,,,,,,,,,,,,,,,,,,,,,,,,,,,,,,,,,,,,,,0,2,2,1,1,,,,,,,,,,,,,,,,,,,,,,,,,,,,,,,,,,,,,,,,,
891774,001,2022-11-21_02h00.41.381,Info_measure_main_exp,2022.2.2,Win32,74.86711088,,,,,,,,,,,,,,,,,,masks/mask_004.jpg,,,,,,,,,,,,,,,,,,,,,,,,,,,,,,,,,,,,,,,,,,,,,,,,0,3,3,3,1,,,,,,,,,,,,,,,,,,,,,,,,,,,,,,,,,,,,,,,,,
891774,001,2022-11-21_02h00.41.381,Info_measure_main_exp,2022.2.2,Win32,74.86711088,,,,,,,,,,,,,,,,,,masks/mask_001.jpg,,,,,,,,,,,,,,,,,,,,,,,,,,,,,,,,,,,,,,,,,,,,,,,,0,4,4,0,1,,,,,,,,,,,,,,,,,,,,,,,,,,,,,,,,,,,,,,,,,
891774,001,2022-11-21_02h00.41.381,Info_measure_main_exp,2022.2.2,Win32,74.86711088,,,,,,,,,,,,,,,,,,,,,,,,,,,,,,7,0.7999,1,,,,,,,,,,,,0,131,5,5,2298,1986,absent_patch/patch0002298.jpg,absent_patch/patch0001986.jpg,,,,,,,,,,,,,,,,,,,,0.018518519,0.044444444,1,0,0,response1disk,33,0.003703704,0,1,0,0,center_square,0,32,32,32,1,,,,,,,,,,,,,,,,,,,,,,,
891774,001,2022-11-21_02h00.41.381,Info_measure_main_exp,2022.2.2,Win32,74.86711088,,,,,,,,,,,,,,,,,,masks/mask_001.jpg,,,,,,,,,,,,,,,,,,,,,,,,,,,,,,,,,,,,,,,,,,,0,0,0,0,1,,,,,,,,,,,,,,,,,,,,,,,,,,,,,,,,,,,,,,,,,,,,,,
891774,001,2022-11-21_02h00.41.381,Info_measure_main_exp,2022.2.2,Win32,74.86711088,,,,,,,,,,,,,,,,,,masks/mask_003.jpg,,,,,,,,,,,,,,,,,,,,,,,,,,,,,,,,,,,,,,,,,,,0,1,1,2,1,,,,,,,,,,,,,,,,,,,,,,,,,,,,,,,,,,,,,,,,,,,,,,
891774,001,2022-11-21_02h00.41.381,Info_measure_main_exp,2022.2.2,Win32,74.86711088,,,,,,,,,,,,,,,,,,masks/mask_004.jpg,,,,,,,,,,,,,,,,,,,,,,,,,,,,,,,,,,,,,,,,,,,0,2,2,3,1,,,,,,,,,,,,,,,,,,,,,,,,,,,,,,,,,,,,,,,,,,,,,,
891774,001,2022-11-21_02h00.41.381,Info_measure_main_exp,2022.2.2,Win32,74.86711088,,,,,,,,,,,,,,,,,,masks/mask_002.jpg,,,,,,,,,,,,,,,,,,,,,,,,,,,,,,,,,,,,,,,,,,,0,3,3,1,1,,,,,,,,,,,,,,,,,,,,,,,,,,,,,,,,,,,,,,,,,,,,,,
891774,001,2022-11-21_02h00.41.381,Info_measure_main_exp,2022.2.2,Win32,74.86711088,,,,,,,,,,,,,,,,,,masks/mask_005.jpg,,,,,,,,,,,,,,,,,,,,,,,,,,,,,,,,,,,,,,,,,,,0,4,4,4,1,,,,,,,,,,,,,,,,,,,,,,,,,,,,,,,,,,,,,,,,,,,,,,
891774,001,2022-11-21_02h00.41.381,Info_measure_main_exp,2022.2.2,Win32,74.86711088,,,,,,,,,,,,,,,,,,masks/mask_004.jpg,,,,,,,,,,,,,,,,,,,,,,,,,,,,,,,,,,,,,,,,,,,,,,,,0,0,0,3,1,,,,,,,,,,,,,,,,,,,,,,,,,,,,,,,,,,,,,,,,,
891774,001,2022-11-21_02h00.41.381,Info_measure_main_exp,2022.2.2,Win32,74.86711088,,,,,,,,,,,,,,,,,,masks/mask_005.jpg,,,,,,,,,,,,,,,,,,,,,,,,,,,,,,,,,,,,,,,,,,,,,,,,0,1,1,4,1,,,,,,,,,,,,,,,,,,,,,,,,,,,,,,,,,,,,,,,,,
891774,001,2022-11-21_02h00.41.381,Info_measure_main_exp,2022.2.2,Win32,74.86711088,,,,,,,,,,,,,,,,,,masks/mask_001.jpg,,,,,,,,,,,,,,,,,,,,,,,,,,,,,,,,,,,,,,,,,,,,,,,,0,2,2,0,1,,,,,,,,,,,,,,,,,,,,,,,,,,,,,,,,,,,,,,,,,
891774,001,2022-11-21_02h00.41.381,Info_measure_main_exp,2022.2.2,Win32,74.86711088,,,,,,,,,,,,,,,,,,masks/mask_002.jpg,,,,,,,,,,,,,,,,,,,,,,,,,,,,,,,,,,,,,,,,,,,,,,,,0,3,3,1,1,,,,,,,,,,,,,,,,,,,,,,,,,,,,,,,,,,,,,,,,,
891774,001,2022-11-21_02h00.41.381,Info_measure_main_exp,2022.2.2,Win32,74.86711088,,,,,,,,,,,,,,,,,,masks/mask_003.jpg,,,,,,,,,,,,,,,,,,,,,,,,,,,,,,,,,,,,,,,,,,,,,,,,0,4,4,2,1,,,,,,,,,,,,,,,,,,,,,,,,,,,,,,,,,,,,,,,,,
891774,001,2022-11-21_02h00.41.381,Info_measure_main_exp,2022.2.2,Win32,74.86711088,,,,,,,,,,,,,,,,,,,,,,,,,,,,,,7,1.7067,1,,,,,,,,,,,,0,131,5,5,2190,1974,absent_patch/patch0002190.jpg,absent_patch/patch0001974.jpg,,,,,,,,,,,,,,,,,,,,0.038888889,0.080555556,1,0,0,response1disk,34,0.010185185,0.00462963,1,0,0,center_square,0,33,33,119,1,,,,,,,,,,,,,,,,,,,,,,,
891774,001,2022-11-21_02h00.41.381,Info_measure_main_exp,2022.2.2,Win32,74.86711088,,,,,,,,,,,,,,,,,,masks/mask_002.jpg,,,,,,,,,,,,,,,,,,,,,,,,,,,,,,,,,,,,,,,,,,,0,0,0,1,1,,,,,,,,,,,,,,,,,,,,,,,,,,,,,,,,,,,,,,,,,,,,,,
891774,001,2022-11-21_02h00.41.381,Info_measure_main_exp,2022.2.2,Win32,74.86711088,,,,,,,,,,,,,,,,,,masks/mask_003.jpg,,,,,,,,,,,,,,,,,,,,,,,,,,,,,,,,,,,,,,,,,,,0,1,1,2,1,,,,,,,,,,,,,,,,,,,,,,,,,,,,,,,,,,,,,,,,,,,,,,
891774,001,2022-11-21_02h00.41.381,Info_measure_main_exp,2022.2.2,Win32,74.86711088,,,,,,,,,,,,,,,,,,masks/mask_005.jpg,,,,,,,,,,,,,,,,,,,,,,,,,,,,,,,,,,,,,,,,,,,0,2,2,4,1,,,,,,,,,,,,,,,,,,,,,,,,,,,,,,,,,,,,,,,,,,,,,,
891774,001,2022-11-21_02h00.41.381,Info_measure_main_exp,2022.2.2,Win32,74.86711088,,,,,,,,,,,,,,,,,,masks/mask_004.jpg,,,,,,,,,,,,,,,,,,,,,,,,,,,,,,,,,,,,,,,,,,,0,3,3,3,1,,,,,,,,,,,,,,,,,,,,,,,,,,,,,,,,,,,,,,,,,,,,,,
891774,001,2022-11-21_02h00.41.381,Info_measure_main_exp,2022.2.2,Win32,74.86711088,,,,,,,,,,,,,,,,,,masks/mask_001.jpg,,,,,,,,,,,,,,,,,,,,,,,,,,,,,,,,,,,,,,,,,,,0,4,4,0,1,,,,,,,,,,,,,,,,,,,,,,,,,,,,,,,,,,,,,,,,,,,,,,
891774,001,2022-11-21_02h00.41.381,Info_measure_main_exp,2022.2.2,Win32,74.86711088,,,,,,,,,,,,,,,,,,masks/mask_002.jpg,,,,,,,,,,,,,,,,,,,,,,,,,,,,,,,,,,,,,,,,,,,,,,,,0,0,0,1,1,,,,,,,,,,,,,,,,,,,,,,,,,,,,,,,,,,,,,,,,,
891774,001,2022-11-21_02h00.41.381,Info_measure_main_exp,2022.2.2,Win32,74.86711088,,,,,,,,,,,,,,,,,,masks/mask_003.jpg,,,,,,,,,,,,,,,,,,,,,,,,,,,,,,,,,,,,,,,,,,,,,,,,0,1,1,2,1,,,,,,,,,,,,,,,,,,,,,,,,,,,,,,,,,,,,,,,,,
891774,001,2022-11-21_02h00.41.381,Info_measure_main_exp,2022.2.2,Win32,74.86711088,,,,,,,,,,,,,,,,,,masks/mask_004.jpg,,,,,,,,,,,,,,,,,,,,,,,,,,,,,,,,,,,,,,,,,,,,,,,,0,2,2,3,1,,,,,,,,,,,,,,,,,,,,,,,,,,,,,,,,,,,,,,,,,
891774,001,2022-11-21_02h00.41.381,Info_measure_main_exp,2022.2.2,Win32,74.86711088,,,,,,,,,,,,,,,,,,masks/mask_001.jpg,,,,,,,,,,,,,,,,,,,,,,,,,,,,,,,,,,,,,,,,,,,,,,,,0,3,3,0,1,,,,,,,,,,,,,,,,,,,,,,,,,,,,,,,,,,,,,,,,,
