participant,session,date,expName,psychopyVersion,OS,frameRate,space_press_continue.keys,space_press_continue.rt,space_press_continue_2.keys,space_press_continue_2.rt,space_press_continue_3.keys,space_press_continue_3.rt,space_press_continue_4.keys,space_press_continue_4.rt,space_press_continue_5.keys,space_press_continue_5.rt,space_press_continue_6.keys,space_press_continue_6.rt,prac_mask_loop_1.thisRepN,prac_mask_loop_1.thisTrialN,prac_mask_loop_1.thisN,prac_mask_loop_1.thisIndex,prac_mask_loop_1.ran,mask_name,prac_mask_loop_2.thisRepN,prac_mask_loop_2.thisTrialN,prac_mask_loop_2.thisN,prac_mask_loop_2.thisIndex,prac_mask_loop_2.ran,mouse_2.x,mouse_2.y,mouse_2.leftButton,mouse_2.midButton,mouse_2.rightButton,mouse_2.clicked_name,similarity,response_time,Pass,mouse_12.x,mouse_12.y,mouse_12.leftButton,mouse_12.midButton,mouse_12.rightButton,mouse_12.clicked_name,prac_loop.thisRepN,prac_loop.thisTrialN,prac_loop.thisN,prac_loop.thisIndex,prac_loop.ran,Pair_type,Image_num,Patch_1_loc,Patch_2_loc,Patch_1_info,Patch_2_info,Patch_1_name,Patch_2_name,mouse_1.x,mouse_1.y,mouse_1.leftButton,mouse_1.midButton,mouse_1.rightButton,mouse_1.time,mouse_1.clicked_name,space_press_continue_7.keys,space_press_continue_7.rt,mask_loop.thisRepN,mask_loop.thisTrialN,mask_loop.thisN,mask_loop.thisIndex,mask_loop.ran,mask_loop_2.thisRepN,mask_loop_2.thisTrialN,mask_loop_2.thisN,mask_loop_2.thisIndex,mask_loop_2.ran,mouse.x,mouse.y,mouse.leftButton,mouse.midButton,mouse.rightButton,mouse.clicked_name,trialNumber,mouse_11.x,mouse_11.y,mouse_11.leftButton,mouse_11.midButton,mouse_11.rightButton,mouse_11.clicked_name,first_pass_loop.thisRepN,first_pass_loop.thisTrialN,first_pass_loop.thisN,first_pass_loop.thisIndex,first_pass_loop.ran,mask_loop_3.thisRepN,mask_loop_3.thisTrialN,mask_loop_3.thisN,mask_loop_3.thisIndex,mask_loop_3.ran,mask_loop_4.thisRepN,mask_loop_4.thisTrialN,mask_loop_4.thisN,mask_loop_4.thisIndex,mask_loop_4.ran,mouse_3.x,mouse_3.y,mouse_3.leftButton,mouse_3.midButton,mouse_3.rightButton,mouse_3.clicked_name,double_pass_loop.thisRepN,double_pass_loop.thisTrialN,double_pass_loop.thisN,double_pass_loop.thisIndex,double_pass_loop.ran,space_exit.keys,space_exit.rt
892059,001,2022-11-20_23h54.55.656,Info_measure_main_exp,2022.2.2,Win32,59.80503558,,,,,,,,,,,,,,,,,,,,,,,,,,,,,,,,,,,,,,,,,,,,,,,,,,,,,,,,,,,,,,,,,,,,,,,,,,,,,,,,,,,,,,,,,,,,,,,,,,,,,,,,,,,,,,,
892059,001,2022-11-20_23h54.55.656,Info_measure_main_exp,2022.2.2,Win32,59.80503558,,,,,,,,,,,,,,,,,,,,,,,,,,,,,,,,,,,,,,,,,,,,,,,,,,,,,,,,,,,,,,,,,,,,,,,,,,,,,,,,,,,,,,,,,,,,,,,,,,,,,,,,,,,,,,,
892059,001,2022-11-20_23h54.55.656,Info_measure_main_exp,2022.2.2,Win32,59.80503558,space,20.9162,,,,,,,,,,,,,,,,,,,,,,,,,,,,,,,,,,,,,,,,,,,,,,,,,,,,,,,,,,,,,,,,,,,,,,,,,,,,,,,,,,,,,,,,,,,,,,,,,,,,,,,,,,,,,
892059,001,2022-11-20_23h54.55.656,Info_measure_main_exp,2022.2.2,Win32,59.80503558,,,space,21.4188,,,,,,,,,,,,,,,,,,,,,,,,,,,,,,,,,,,,,,,,,,,,,,,,,,,,,,,,,,,,,,,,,,,,,,,,,,,,,,,,,,,,,,,,,,,,,,,,,,,,,,,,,,,
892059,001,2022-11-20_23h54.55.656,Info_measure_main_exp,2022.2.2,Win32,59.80503558,,,,,space,15.6064,,,,,,,,,,,,,,,,,,,,,,,,,,,,,,,,,,,,,,,,,,,,,,,,,,,,,,,,,,,,,,,,,,,,,,,,,,,,,,,,,,,,,,,,,,,,,,,,,,,,,,,,,
892059,001,2022-11-20_23h54.55.656,Info_measure_main_exp,2022.2.2,Win32,59.80503558,,,,,,,space,45.4105,,,,,,,,,,,,,,,,,,,,,,,,,,,,,,,,,,,,,,,,,,,,,,,,,,,,,,,,,,,,,,,,,,,,,,,,,,,,,,,,,,,,,,,,,,,,,,,,,,,,,,,
892059,001,2022-11-20_23h54.55.656,Info_measure_main_exp,2022.2.2,Win32,59.80503558,,,,,,,,,space,14.6791,,,,,,,,,,,,,,,,,,,,,,,,,,,,,,,,,,,,,,,,,,,,,,,,,,,,,,,,,,,,,,,,,,,,,,,,,,,,,,,,,,,,,,,,,,,,,,,,,,,,,
892059,001,2022-11-20_23h54.55.656,Info_measure_main_exp,2022.2.2,Win32,59.80503558,,,,,,,,,,,space,4.7315,,,,,,,,,,,,,,,,,,,,,,,,,,,,,,,,,,,,,,,,,,,,,,,,,,,,,,,,,,,,,,,,,,,,,,,,,,,,,,,,,,,,,,,,,,,,,,,,,,,
892059,001,2022-11-20_23h54.55.656,Info_measure_main_exp,2022.2.2,Win32,59.80503558,,,,,,,,,,,,,0,0,0,2,1,masks/mask_003.jpg,,,,,,,,,,,,,,,,,,,,,,,,,,,,,,,,,,,,,,,,,,,,,,,,,,,,,,,,,,,,,,,,,,,,,,,,,,,,,,,,,,,,,,,,,,,,,
892059,001,2022-11-20_23h54.55.656,Info_measure_main_exp,2022.2.2,Win32,59.80503558,,,,,,,,,,,,,0,1,1,0,1,masks/mask_001.jpg,,,,,,,,,,,,,,,,,,,,,,,,,,,,,,,,,,,,,,,,,,,,,,,,,,,,,,,,,,,,,,,,,,,,,,,,,,,,,,,,,,,,,,,,,,,,,
892059,001,2022-11-20_23h54.55.656,Info_measure_main_exp,2022.2.2,Win32,59.80503558,,,,,,,,,,,,,0,2,2,4,1,masks/mask_005.jpg,,,,,,,,,,,,,,,,,,,,,,,,,,,,,,,,,,,,,,,,,,,,,,,,,,,,,,,,,,,,,,,,,,,,,,,,,,,,,,,,,,,,,,,,,,,,,
892059,001,2022-11-20_23h54.55.656,Info_measure_main_exp,2022.2.2,Win32,59.80503558,,,,,,,,,,,,,0,3,3,3,1,masks/mask_004.jpg,,,,,,,,,,,,,,,,,,,,,,,,,,,,,,,,,,,,,,,,,,,,,,,,,,,,,,,,,,,,,,,,,,,,,,,,,,,,,,,,,,,,,,,,,,,,,
892059,001,2022-11-20_23h54.55.656,Info_measure_main_exp,2022.2.2,Win32,59.80503558,,,,,,,,,,,,,0,4,4,1,1,masks/mask_002.jpg,,,,,,,,,,,,,,,,,,,,,,,,,,,,,,,,,,,,,,,,,,,,,,,,,,,,,,,,,,,,,,,,,,,,,,,,,,,,,,,,,,,,,,,,,,,,,
892059,001,2022-11-20_23h54.55.656,Info_measure_main_exp,2022.2.2,Win32,59.80503558,,,,,,,,,,,,,,,,,,masks/mask_005.jpg,0,0,0,4,1,,,,,,,,,,,,,,,,,,,,,,,,,,,,,,,,,,,,,,,,,,,,,,,,,,,,,,,,,,,,,,,,,,,,,,,,,,,,,,,,,,,,,,,,
892059,001,2022-11-20_23h54.55.656,Info_measure_main_exp,2022.2.2,Win32,59.80503558,,,,,,,,,,,,,,,,,,masks/mask_004.jpg,0,1,1,3,1,,,,,,,,,,,,,,,,,,,,,,,,,,,,,,,,,,,,,,,,,,,,,,,,,,,,,,,,,,,,,,,,,,,,,,,,,,,,,,,,,,,,,,,,
892059,001,2022-11-20_23h54.55.656,Info_measure_main_exp,2022.2.2,Win32,59.80503558,,,,,,,,,,,,,,,,,,masks/mask_002.jpg,0,2,2,1,1,,,,,,,,,,,,,,,,,,,,,,,,,,,,,,,,,,,,,,,,,,,,,,,,,,,,,,,,,,,,,,,,,,,,,,,,,,,,,,,,,,,,,,,,
892059,001,2022-11-20_23h54.55.656,Info_measure_main_exp,2022.2.2,Win32,59.80503558,,,,,,,,,,,,,,,,,,masks/mask_003.jpg,0,3,3,2,1,,,,,,,,,,,,,,,,,,,,,,,,,,,,,,,,,,,,,,,,,,,,,,,,,,,,,,,,,,,,,,,,,,,,,,,,,,,,,,,,,,,,,,,,
892059,001,2022-11-20_23h54.55.656,Info_measure_main_exp,2022.2.2,Win32,59.80503558,,,,,,,,,,,,,,,,,,masks/mask_001.jpg,0,4,4,0,1,,,,,,,,,,,,,,,,,,,,,,,,,,,,,,,,,,,,,,,,,,,,,,,,,,,,,,,,,,,,,,,,,,,,,,,,,,,,,,,,,,,,,,,,
892059,001,2022-11-20_23h54.55.656,Info_measure_main_exp,2022.2.2,Win32,59.80503558,,,,,,,,,,,,,,,,,,,,,,,,-0.047222208,0.170370349,1,0,0,response7disk,0,130.1155,1,-0.006481453,-0.001851859,1,0,0,center_square,0,0,0,2,1,0,131,5,5,2526,2526,prac_patch/patch0002526.jpg,prac_patch/patch0002526.jpg,,,,,,,,,,,,,,,,,,,,,,,,,,,,,,,,,,,,,,,,,,,,,,,,,,,,,,,,,,,,
892059,001,2022-11-20_23h54.55.656,Info_measure_main_exp,2022.2.2,Win32,59.80503558,,,,,,,,,,,,,0,0,0,4,1,masks/mask_005.jpg,,,,,,,,,,,,,,,,,,,,,,,,,,,,,,,,,,,,,,,,,,,,,,,,,,,,,,,,,,,,,,,,,,,,,,,,,,,,,,,,,,,,,,,,,,,,,
892059,001,2022-11-20_23h54.55.656,Info_measure_main_exp,2022.2.2,Win32,59.80503558,,,,,,,,,,,,,0,1,1,1,1,masks/mask_002.jpg,,,,,,,,,,,,,,,,,,,,,,,,,,,,,,,,,,,,,,,,,,,,,,,,,,,,,,,,,,,,,,,,,,,,,,,,,,,,,,,,,,,,,,,,,,,,,
892059,001,2022-11-20_23h54.55.656,Info_measure_main_exp,2022.2.2,Win32,59.80503558,,,,,,,,,,,,,0,2,2,2,1,masks/mask_003.jpg,,,,,,,,,,,,,,,,,,,,,,,,,,,,,,,,,,,,,,,,,,,,,,,,,,,,,,,,,,,,,,,,,,,,,,,,,,,,,,,,,,,,,,,,,,,,,
892059,001,2022-11-20_23h54.55.656,Info_measure_main_exp,2022.2.2,Win32,59.80503558,,,,,,,,,,,,,0,3,3,3,1,masks/mask_004.jpg,,,,,,,,,,,,,,,,,,,,,,,,,,,,,,,,,,,,,,,,,,,,,,,,,,,,,,,,,,,,,,,,,,,,,,,,,,,,,,,,,,,,,,,,,,,,,
892059,001,2022-11-20_23h54.55.656,Info_measure_main_exp,2022.2.2,Win32,59.80503558,,,,,,,,,,,,,0,4,4,0,1,masks/mask_001.jpg,,,,,,,,,,,,,,,,,,,,,,,,,,,,,,,,,,,,,,,,,,,,,,,,,,,,,,,,,,,,,,,,,,,,,,,,,,,,,,,,,,,,,,,,,,,,,
892059,001,2022-11-20_23h54.55.656,Info_measure_main_exp,2022.2.2,Win32,59.80503558,,,,,,,,,,,,,,,,,,masks/mask_004.jpg,0,0,0,3,1,,,,,,,,,,,,,,,,,,,,,,,,,,,,,,,,,,,,,,,,,,,,,,,,,,,,,,,,,,,,,,,,,,,,,,,,,,,,,,,,,,,,,,,,
892059,001,2022-11-20_23h54.55.656,Info_measure_main_exp,2022.2.2,Win32,59.80503558,,,,,,,,,,,,,,,,,,masks/mask_003.jpg,0,1,1,2,1,,,,,,,,,,,,,,,,,,,,,,,,,,,,,,,,,,,,,,,,,,,,,,,,,,,,,,,,,,,,,,,,,,,,,,,,,,,,,,,,,,,,,,,,
892059,001,2022-11-20_23h54.55.656,Info_measure_main_exp,2022.2.2,Win32,59.80503558,,,,,,,,,,,,,,,,,,masks/mask_005.jpg,0,2,2,4,1,,,,,,,,,,,,,,,,,,,,,,,,,,,,,,,,,,,,,,,,,,,,,,,,,,,,,,,,,,,,,,,,,,,,,,,,,,,,,,,,,,,,,,,,
892059,001,2022-11-20_23h54.55.656,Info_measure_main_exp,2022.2.2,Win32,59.80503558,,,,,,,,,,,,,,,,,,masks/mask_002.jpg,0,3,3,1,1,,,,,,,,,,,,,,,,,,,,,,,,,,,,,,,,,,,,,,,,,,,,,,,,,,,,,,,,,,,,,,,,,,,,,,,,,,,,,,,,,,,,,,,,
892059,001,2022-11-20_23h54.55.656,Info_measure_main_exp,2022.2.2,Win32,59.80503558,,,,,,,,,,,,,,,,,,masks/mask_001.jpg,0,4,4,0,1,,,,,,,,,,,,,,,,,,,,,,,,,,,,,,,,,,,,,,,,,,,,,,,,,,,,,,,,,,,,,,,,,,,,,,,,,,,,,,,,,,,,,,,,
892059,001,2022-11-20_23h54.55.656,Info_measure_main_exp,2022.2.2,Win32,59.80503558,,,,,,,,,,,,,,,,,,,,,,,,0.049074102,0.121296282,1,0,0,response1disk,7,142.7367,1,-0.001851824,0.005555541,1,0,0,center_square,0,1,1,1,1,0,131,5,5,2514,2490,prac_patch/patch0002514.jpg,prac_patch/patch0002490.jpg,,,,,,,,,,,,,,,,,,,,,,,,,,,,,,,,,,,,,,,,,,,,,,,,,,,,,,,,,,,,
892059,001,2022-11-20_23h54.55.656,Info_measure_main_exp,2022.2.2,Win32,59.80503558,,,,,,,,,,,,,0,0,0,1,1,masks/mask_002.jpg,,,,,,,,,,,,,,,,,,,,,,,,,,,,,,,,,,,,,,,,,,,,,,,,,,,,,,,,,,,,,,,,,,,,,,,,,,,,,,,,,,,,,,,,,,,,,
892059,001,2022-11-20_23h54.55.656,Info_measure_main_exp,2022.2.2,Win32,59.80503558,,,,,,,,,,,,,0,1,1,4,1,masks/mask_005.jpg,,,,,,,,,,,,,,,,,,,,,,,,,,,,,,,,,,,,,,,,,,,,,,,,,,,,,,,,,,,,,,,,,,,,,,,,,,,,,,,,,,,,,,,,,,,,,
892059,001,2022-11-20_23h54.55.656,Info_measure_main_exp,2022.2.2,Win32,59.80503558,,,,,,,,,,,,,0,2,2,3,1,masks/mask_004.jpg,,,,,,,,,,,,,,,,,,,,,,,,,,,,,,,,,,,,,,,,,,,,,,,,,,,,,,,,,,,,,,,,,,,,,,,,,,,,,,,,,,,,,,,,,,,,,
892059,001,2022-11-20_23h54.55.656,Info_measure_main_exp,2022.2.2,Win32,59.80503558,,,,,,,,,,,,,0,3,3,0,1,masks/mask_001.jpg,,,,,,,,,,,,,,,,,,,,,,,,,,,,,,,,,,,,,,,,,,,,,,,,,,,,,,,,,,,,,,,,,,,,,,,,,,,,,,,,,,,,,,,,,,,,,
892059,001,2022-11-20_23h54.55.656,Info_measure_main_exp,2022.2.2,Win32,59.80503558,,,,,,,,,,,,,0,4,4,2,1,masks/mask_003.jpg,,,,,,,,,,,,,,,,,,,,,,,,,,,,,,,,,,,,,,,,,,,,,,,,,,,,,,,,,,,,,,,,,,,,,,,,,,,,,,,,,,,,,,,,,,,,,
892059,001,2022-11-20_23h54.55.656,Info_measure_main_exp,2022.2.2,Win32,59.80503558,,,,,,,,,,,,,,,,,,masks/mask_002.jpg,0,0,0,1,1,,,,,,,,,,,,,,,,,,,,,,,,,,,,,,,,,,,,,,,,,,,,,,,,,,,,,,,,,,,,,,,,,,,,,,,,,,,,,,,,,,,,,,,,
892059,001,2022-11-20_23h54.55.656,Info_measure_main_exp,2022.2.2,Win32,59.80503558,,,,,,,,,,,,,,,,,,masks/mask_005.jpg,0,1,1,4,1,,,,,,,,,,,,,,,,,,,,,,,,,,,,,,,,,,,,,,,,,,,,,,,,,,,,,,,,,,,,,,,,,,,,,,,,,,,,,,,,,,,,,,,,
892059,001,2022-11-20_23h54.55.656,Info_measure_main_exp,2022.2.2,Win32,59.80503558,,,,,,,,,,,,,,,,,,masks/mask_001.jpg,0,2,2,0,1,,,,,,,,,,,,,,,,,,,,,,,,,,,,,,,,,,,,,,,,,,,,,,,,,,,,,,,,,,,,,,,,,,,,,,,,,,,,,,,,,,,,,,,,
892059,001,2022-11-20_23h54.55.656,Info_measure_main_exp,2022.2.2,Win32,59.80503558,,,,,,,,,,,,,,,,,,masks/mask_004.jpg,0,3,3,3,1,,,,,,,,,,,,,,,,,,,,,,,,,,,,,,,,,,,,,,,,,,,,,,,,,,,,,,,,,,,,,,,,,,,,,,,,,,,,,,,,,,,,,,,,
892059,001,2022-11-20_23h54.55.656,Info_measure_main_exp,2022.2.2,Win32,59.80503558,,,,,,,,,,,,,,,,,,masks/mask_003.jpg,0,4,4,2,1,,,,,,,,,,,,,,,,,,,,,,,,,,,,,,,,,,,,,,,,,,,,,,,,,,,,,,,,,,,,,,,,,,,,,,,,,,,,,,,,,,,,,,,,
892059,001,2022-11-20_23h54.55.656,Info_measure_main_exp,2022.2.2,Win32,59.80503558,,,,,,,,,,,,,,,,,,,,,,,,0.041666667,0.12962963,1,0,0,response1disk,7,150.4363,1,0.009259259,0,1,0,0,center_square,0,2,2,0,1,0,131,5,5,2370,2406,prac_patch/patch0002370.jpg,prac_patch/patch0002406.jpg,,,,,,,,,,,,,,,,,,,,,,,,,,,,,,,,,,,,,,,,,,,,,,,,,,,,,,,,,,,,
892059,001,2022-11-20_23h54.55.656,Info_measure_main_exp,2022.2.2,Win32,59.80503558,,,,,,,,,,,,,,,,,,,,,,,,,,,,,,,,,,,,,,,,,,,,,,,,,,,,,,,,,,,space,2.9498,,,,,,,,,,,,,,,,,,,,,,,,,,,,,,,,,,,,,,,,,,,,,,,,,,,
892059,001,2022-11-20_23h54.55.656,Info_measure_main_exp,2022.2.2,Win32,59.80503558,,,,,,,,,,,,,,,,,,masks/mask_005.jpg,,,,,,,,,,,,,,,,,,,,,,,,,,,,,,,,,,,,,,,,,,,0,0,0,4,1,,,,,,,,,,,,,,,,,,,,,,,,,,,,,,,,,,,,,,,,,,,,,,
892059,001,2022-11-20_23h54.55.656,Info_measure_main_exp,2022.2.2,Win32,59.80503558,,,,,,,,,,,,,,,,,,masks/mask_003.jpg,,,,,,,,,,,,,,,,,,,,,,,,,,,,,,,,,,,,,,,,,,,0,1,1,2,1,,,,,,,,,,,,,,,,,,,,,,,,,,,,,,,,,,,,,,,,,,,,,,
892059,001,2022-11-20_23h54.55.656,Info_measure_main_exp,2022.2.2,Win32,59.80503558,,,,,,,,,,,,,,,,,,masks/mask_004.jpg,,,,,,,,,,,,,,,,,,,,,,,,,,,,,,,,,,,,,,,,,,,0,2,2,3,1,,,,,,,,,,,,,,,,,,,,,,,,,,,,,,,,,,,,,,,,,,,,,,
892059,001,2022-11-20_23h54.55.656,Info_measure_main_exp,2022.2.2,Win32,59.80503558,,,,,,,,,,,,,,,,,,masks/mask_002.jpg,,,,,,,,,,,,,,,,,,,,,,,,,,,,,,,,,,,,,,,,,,,0,3,3,1,1,,,,,,,,,,,,,,,,,,,,,,,,,,,,,,,,,,,,,,,,,,,,,,
892059,001,2022-11-20_23h54.55.656,Info_measure_main_exp,2022.2.2,Win32,59.80503558,,,,,,,,,,,,,,,,,,masks/mask_001.jpg,,,,,,,,,,,,,,,,,,,,,,,,,,,,,,,,,,,,,,,,,,,0,4,4,0,1,,,,,,,,,,,,,,,,,,,,,,,,,,,,,,,,,,,,,,,,,,,,,,
892059,001,2022-11-20_23h54.55.656,Info_measure_main_exp,2022.2.2,Win32,59.80503558,,,,,,,,,,,,,,,,,,masks/mask_004.jpg,,,,,,,,,,,,,,,,,,,,,,,,,,,,,,,,,,,,,,,,,,,,,,,,0,0,0,3,1,,,,,,,,,,,,,,,,,,,,,,,,,,,,,,,,,,,,,,,,,
892059,001,2022-11-20_23h54.55.656,Info_measure_main_exp,2022.2.2,Win32,59.80503558,,,,,,,,,,,,,,,,,,masks/mask_003.jpg,,,,,,,,,,,,,,,,,,,,,,,,,,,,,,,,,,,,,,,,,,,,,,,,0,1,1,2,1,,,,,,,,,,,,,,,,,,,,,,,,,,,,,,,,,,,,,,,,,
892059,001,2022-11-20_23h54.55.656,Info_measure_main_exp,2022.2.2,Win32,59.80503558,,,,,,,,,,,,,,,,,,masks/mask_001.jpg,,,,,,,,,,,,,,,,,,,,,,,,,,,,,,,,,,,,,,,,,,,,,,,,0,2,2,0,1,,,,,,,,,,,,,,,,,,,,,,,,,,,,,,,,,,,,,,,,,
892059,001,2022-11-20_23h54.55.656,Info_measure_main_exp,2022.2.2,Win32,59.80503558,,,,,,,,,,,,,,,,,,masks/mask_002.jpg,,,,,,,,,,,,,,,,,,,,,,,,,,,,,,,,,,,,,,,,,,,,,,,,0,3,3,1,1,,,,,,,,,,,,,,,,,,,,,,,,,,,,,,,,,,,,,,,,,
892059,001,2022-11-20_23h54.55.656,Info_measure_main_exp,2022.2.2,Win32,59.80503558,,,,,,,,,,,,,,,,,,masks/mask_005.jpg,,,,,,,,,,,,,,,,,,,,,,,,,,,,,,,,,,,,,,,,,,,,,,,,0,4,4,4,1,,,,,,,,,,,,,,,,,,,,,,,,,,,,,,,,,,,,,,,,,
892059,001,2022-11-20_23h54.55.656,Info_measure_main_exp,2022.2.2,Win32,59.80503558,,,,,,,,,,,,,,,,,,,,,,,,,,,,,,7,0.8511,1,,,,,,,,,,,,0,131,5,5,2142,2154,absent_patch/patch0002142.jpg,absent_patch/patch0002154.jpg,,,,,,,,,,,,,,,,,,,,0.045370384,0.115740741,1,0,0,response1disk,1,0.000925912,0.002777771,1,0,0,center_square,0,0,0,9,1,,,,,,,,,,,,,,,,,,,,,,,
892059,001,2022-11-20_23h54.55.656,Info_measure_main_exp,2022.2.2,Win32,59.80503558,,,,,,,,,,,,,,,,,,masks/mask_001.jpg,,,,,,,,,,,,,,,,,,,,,,,,,,,,,,,,,,,,,,,,,,,0,0,0,0,1,,,,,,,,,,,,,,,,,,,,,,,,,,,,,,,,,,,,,,,,,,,,,,
892059,001,2022-11-20_23h54.55.656,Info_measure_main_exp,2022.2.2,Win32,59.80503558,,,,,,,,,,,,,,,,,,masks/mask_003.jpg,,,,,,,,,,,,,,,,,,,,,,,,,,,,,,,,,,,,,,,,,,,0,1,1,2,1,,,,,,,,,,,,,,,,,,,,,,,,,,,,,,,,,,,,,,,,,,,,,,
892059,001,2022-11-20_23h54.55.656,Info_measure_main_exp,2022.2.2,Win32,59.80503558,,,,,,,,,,,,,,,,,,masks/mask_002.jpg,,,,,,,,,,,,,,,,,,,,,,,,,,,,,,,,,,,,,,,,,,,0,2,2,1,1,,,,,,,,,,,,,,,,,,,,,,,,,,,,,,,,,,,,,,,,,,,,,,
892059,001,2022-11-20_23h54.55.656,Info_measure_main_exp,2022.2.2,Win32,59.80503558,,,,,,,,,,,,,,,,,,masks/mask_004.jpg,,,,,,,,,,,,,,,,,,,,,,,,,,,,,,,,,,,,,,,,,,,0,3,3,3,1,,,,,,,,,,,,,,,,,,,,,,,,,,,,,,,,,,,,,,,,,,,,,,
892059,001,2022-11-20_23h54.55.656,Info_measure_main_exp,2022.2.2,Win32,59.80503558,,,,,,,,,,,,,,,,,,masks/mask_005.jpg,,,,,,,,,,,,,,,,,,,,,,,,,,,,,,,,,,,,,,,,,,,0,4,4,4,1,,,,,,,,,,,,,,,,,,,,,,,,,,,,,,,,,,,,,,,,,,,,,,
892059,001,2022-11-20_23h54.55.656,Info_measure_main_exp,2022.2.2,Win32,59.80503558,,,,,,,,,,,,,,,,,,masks/mask_001.jpg,,,,,,,,,,,,,,,,,,,,,,,,,,,,,,,,,,,,,,,,,,,,,,,,0,0,0,0,1,,,,,,,,,,,,,,,,,,,,,,,,,,,,,,,,,,,,,,,,,
892059,001,2022-11-20_23h54.55.656,Info_measure_main_exp,2022.2.2,Win32,59.80503558,,,,,,,,,,,,,,,,,,masks/mask_004.jpg,,,,,,,,,,,,,,,,,,,,,,,,,,,,,,,,,,,,,,,,,,,,,,,,0,1,1,3,1,,,,,,,,,,,,,,,,,,,,,,,,,,,,,,,,,,,,,,,,,
892059,001,2022-11-20_23h54.55.656,Info_measure_main_exp,2022.2.2,Win32,59.80503558,,,,,,,,,,,,,,,,,,masks/mask_002.jpg,,,,,,,,,,,,,,,,,,,,,,,,,,,,,,,,,,,,,,,,,,,,,,,,0,2,2,1,1,,,,,,,,,,,,,,,,,,,,,,,,,,,,,,,,,,,,,,,,,
892059,001,2022-11-20_23h54.55.656,Info_measure_main_exp,2022.2.2,Win32,59.80503558,,,,,,,,,,,,,,,,,,masks/mask_005.jpg,,,,,,,,,,,,,,,,,,,,,,,,,,,,,,,,,,,,,,,,,,,,,,,,0,3,3,4,1,,,,,,,,,,,,,,,,,,,,,,,,,,,,,,,,,,,,,,,,,
892059,001,2022-11-20_23h54.55.656,Info_measure_main_exp,2022.2.2,Win32,59.80503558,,,,,,,,,,,,,,,,,,masks/mask_003.jpg,,,,,,,,,,,,,,,,,,,,,,,,,,,,,,,,,,,,,,,,,,,,,,,,0,4,4,2,1,,,,,,,,,,,,,,,,,,,,,,,,,,,,,,,,,,,,,,,,,
892059,001,2022-11-20_23h54.55.656,Info_measure_main_exp,2022.2.2,Win32,59.80503558,,,,,,,,,,,,,,,,,,,,,,,,,,,,,,0,1.2332,1,,,,,,,,,,,,0,131,5,5,1986,1986,absent_patch/patch0001986.jpg,absent_patch/patch0001986.jpg,,,,,,,,,,,,,,,,,,,,-0.032407407,0.140740748,1,0,0,response7disk,2,0.007407436,0.010185171,1,0,0,center_square,0,1,1,19,1,,,,,,,,,,,,,,,,,,,,,,,
892059,001,2022-11-20_23h54.55.656,Info_measure_main_exp,2022.2.2,Win32,59.80503558,,,,,,,,,,,,,,,,,,masks/mask_005.jpg,,,,,,,,,,,,,,,,,,,,,,,,,,,,,,,,,,,,,,,,,,,0,0,0,4,1,,,,,,,,,,,,,,,,,,,,,,,,,,,,,,,,,,,,,,,,,,,,,,
892059,001,2022-11-20_23h54.55.656,Info_measure_main_exp,2022.2.2,Win32,59.80503558,,,,,,,,,,,,,,,,,,masks/mask_001.jpg,,,,,,,,,,,,,,,,,,,,,,,,,,,,,,,,,,,,,,,,,,,0,1,1,0,1,,,,,,,,,,,,,,,,,,,,,,,,,,,,,,,,,,,,,,,,,,,,,,
892059,001,2022-11-20_23h54.55.656,Info_measure_main_exp,2022.2.2,Win32,59.80503558,,,,,,,,,,,,,,,,,,masks/mask_002.jpg,,,,,,,,,,,,,,,,,,,,,,,,,,,,,,,,,,,,,,,,,,,0,2,2,1,1,,,,,,,,,,,,,,,,,,,,,,,,,,,,,,,,,,,,,,,,,,,,,,
892059,001,2022-11-20_23h54.55.656,Info_measure_main_exp,2022.2.2,Win32,59.80503558,,,,,,,,,,,,,,,,,,masks/mask_004.jpg,,,,,,,,,,,,,,,,,,,,,,,,,,,,,,,,,,,,,,,,,,,0,3,3,3,1,,,,,,,,,,,,,,,,,,,,,,,,,,,,,,,,,,,,,,,,,,,,,,
892059,001,2022-11-20_23h54.55.656,Info_measure_main_exp,2022.2.2,Win32,59.80503558,,,,,,,,,,,,,,,,,,masks/mask_003.jpg,,,,,,,,,,,,,,,,,,,,,,,,,,,,,,,,,,,,,,,,,,,0,4,4,2,1,,,,,,,,,,,,,,,,,,,,,,,,,,,,,,,,,,,,,,,,,,,,,,
892059,001,2022-11-20_23h54.55.656,Info_measure_main_exp,2022.2.2,Win32,59.80503558,,,,,,,,,,,,,,,,,,masks/mask_004.jpg,,,,,,,,,,,,,,,,,,,,,,,,,,,,,,,,,,,,,,,,,,,,,,,,0,0,0,3,1,,,,,,,,,,,,,,,,,,,,,,,,,,,,,,,,,,,,,,,,,
892059,001,2022-11-20_23h54.55.656,Info_measure_main_exp,2022.2.2,Win32,59.80503558,,,,,,,,,,,,,,,,,,masks/mask_002.jpg,,,,,,,,,,,,,,,,,,,,,,,,,,,,,,,,,,,,,,,,,,,,,,,,0,1,1,1,1,,,,,,,,,,,,,,,,,,,,,,,,,,,,,,,,,,,,,,,,,
892059,001,2022-11-20_23h54.55.656,Info_measure_main_exp,2022.2.2,Win32,59.80503558,,,,,,,,,,,,,,,,,,masks/mask_003.jpg,,,,,,,,,,,,,,,,,,,,,,,,,,,,,,,,,,,,,,,,,,,,,,,,0,2,2,2,1,,,,,,,,,,,,,,,,,,,,,,,,,,,,,,,,,,,,,,,,,
892059,001,2022-11-20_23h54.55.656,Info_measure_main_exp,2022.2.2,Win32,59.80503558,,,,,,,,,,,,,,,,,,masks/mask_001.jpg,,,,,,,,,,,,,,,,,,,,,,,,,,,,,,,,,,,,,,,,,,,,,,,,0,3,3,0,1,,,,,,,,,,,,,,,,,,,,,,,,,,,,,,,,,,,,,,,,,
892059,001,2022-11-20_23h54.55.656,Info_measure_main_exp,2022.2.2,Win32,59.80503558,,,,,,,,,,,,,,,,,,masks/mask_005.jpg,,,,,,,,,,,,,,,,,,,,,,,,,,,,,,,,,,,,,,,,,,,,,,,,0,4,4,4,1,,,,,,,,,,,,,,,,,,,,,,,,,,,,,,,,,,,,,,,,,
892059,001,2022-11-20_23h54.55.656,Info_measure_main_exp,2022.2.2,Win32,59.80503558,,,,,,,,,,,,,,,,,,,,,,,,,,,,,,7,0.7409,1,,,,,,,,,,,,0,131,5,5,2190,2250,absent_patch/patch0002190.jpg,absent_patch/patch0002250.jpg,,,,,,,,,,,,,,,,,,,,0.034259302,0.095370363,1,0,0,response1disk,3,-0.001851824,-0.00462963,1,0,0,center_square,0,2,2,93,1,,,,,,,,,,,,,,,,,,,,,,,
892059,001,2022-11-20_23h54.55.656,Info_measure_main_exp,2022.2.2,Win32,59.80503558,,,,,,,,,,,,,,,,,,masks/mask_005.jpg,,,,,,,,,,,,,,,,,,,,,,,,,,,,,,,,,,,,,,,,,,,0,0,0,4,1,,,,,,,,,,,,,,,,,,,,,,,,,,,,,,,,,,,,,,,,,,,,,,
892059,001,2022-11-20_23h54.55.656,Info_measure_main_exp,2022.2.2,Win32,59.80503558,,,,,,,,,,,,,,,,,,masks/mask_003.jpg,,,,,,,,,,,,,,,,,,,,,,,,,,,,,,,,,,,,,,,,,,,0,1,1,2,1,,,,,,,,,,,,,,,,,,,,,,,,,,,,,,,,,,,,,,,,,,,,,,
892059,001,2022-11-20_23h54.55.656,Info_measure_main_exp,2022.2.2,Win32,59.80503558,,,,,,,,,,,,,,,,,,masks/mask_004.jpg,,,,,,,,,,,,,,,,,,,,,,,,,,,,,,,,,,,,,,,,,,,0,2,2,3,1,,,,,,,,,,,,,,,,,,,,,,,,,,,,,,,,,,,,,,,,,,,,,,
892059,001,2022-11-20_23h54.55.656,Info_measure_main_exp,2022.2.2,Win32,59.80503558,,,,,,,,,,,,,,,,,,masks/mask_001.jpg,,,,,,,,,,,,,,,,,,,,,,,,,,,,,,,,,,,,,,,,,,,0,3,3,0,1,,,,,,,,,,,,,,,,,,,,,,,,,,,,,,,,,,,,,,,,,,,,,,
892059,001,2022-11-20_23h54.55.656,Info_measure_main_exp,2022.2.2,Win32,59.80503558,,,,,,,,,,,,,,,,,,masks/mask_002.jpg,,,,,,,,,,,,,,,,,,,,,,,,,,,,,,,,,,,,,,,,,,,0,4,4,1,1,,,,,,,,,,,,,,,,,,,,,,,,,,,,,,,,,,,,,,,,,,,,,,
892059,001,2022-11-20_23h54.55.656,Info_measure_main_exp,2022.2.2,Win32,59.80503558,,,,,,,,,,,,,,,,,,masks/mask_002.jpg,,,,,,,,,,,,,,,,,,,,,,,,,,,,,,,,,,,,,,,,,,,,,,,,0,0,0,1,1,,,,,,,,,,,,,,,,,,,,,,,,,,,,,,,,,,,,,,,,,
892059,001,2022-11-20_23h54.55.656,Info_measure_main_exp,2022.2.2,Win32,59.80503558,,,,,,,,,,,,,,,,,,masks/mask_004.jpg,,,,,,,,,,,,,,,,,,,,,,,,,,,,,,,,,,,,,,,,,,,,,,,,0,1,1,3,1,,,,,,,,,,,,,,,,,,,,,,,,,,,,,,,,,,,,,,,,,
892059,001,2022-11-20_23h54.55.656,Info_measure_main_exp,2022.2.2,Win32,59.80503558,,,,,,,,,,,,,,,,,,masks/mask_003.jpg,,,,,,,,,,,,,,,,,,,,,,,,,,,,,,,,,,,,,,,,,,,,,,,,0,2,2,2,1,,,,,,,,,,,,,,,,,,,,,,,,,,,,,,,,,,,,,,,,,
892059,001,2022-11-20_23h54.55.656,Info_measure_main_exp,2022.2.2,Win32,59.80503558,,,,,,,,,,,,,,,,,,masks/mask_005.jpg,,,,,,,,,,,,,,,,,,,,,,,,,,,,,,,,,,,,,,,,,,,,,,,,0,3,3,4,1,,,,,,,,,,,,,,,,,,,,,,,,,,,,,,,,,,,,,,,,,
892059,001,2022-11-20_23h54.55.656,Info_measure_main_exp,2022.2.2,Win32,59.80503558,,,,,,,,,,,,,,,,,,masks/mask_001.jpg,,,,,,,,,,,,,,,,,,,,,,,,,,,,,,,,,,,,,,,,,,,,,,,,0,4,4,0,1,,,,,,,,,,,,,,,,,,,,,,,,,,,,,,,,,,,,,,,,,
892059,001,2022-11-20_23h54.55.656,Info_measure_main_exp,2022.2.2,Win32,59.80503558,,,,,,,,,,,,,,,,,,,,,,,,,,,,,,0,0.9998,1,,,,,,,,,,,,0,131,5,5,1950,1950,absent_patch/patch0001950.jpg,absent_patch/patch0001950.jpg,,,,,,,,,,,,,,,,,,,,-0.051851838,0.14444443,1,0,0,response7disk,4,0.000925912,0.003703683,1,0,0,center_square,0,3,3,92,1,,,,,,,,,,,,,,,,,,,,,,,
892059,001,2022-11-20_23h54.55.656,Info_measure_main_exp,2022.2.2,Win32,59.80503558,,,,,,,,,,,,,,,,,,masks/mask_001.jpg,,,,,,,,,,,,,,,,,,,,,,,,,,,,,,,,,,,,,,,,,,,0,0,0,0,1,,,,,,,,,,,,,,,,,,,,,,,,,,,,,,,,,,,,,,,,,,,,,,
892059,001,2022-11-20_23h54.55.656,Info_measure_main_exp,2022.2.2,Win32,59.80503558,,,,,,,,,,,,,,,,,,masks/mask_002.jpg,,,,,,,,,,,,,,,,,,,,,,,,,,,,,,,,,,,,,,,,,,,0,1,1,1,1,,,,,,,,,,,,,,,,,,,,,,,,,,,,,,,,,,,,,,,,,,,,,,
892059,001,2022-11-20_23h54.55.656,Info_measure_main_exp,2022.2.2,Win32,59.80503558,,,,,,,,,,,,,,,,,,masks/mask_003.jpg,,,,,,,,,,,,,,,,,,,,,,,,,,,,,,,,,,,,,,,,,,,0,2,2,2,1,,,,,,,,,,,,,,,,,,,,,,,,,,,,,,,,,,,,,,,,,,,,,,
892059,001,2022-11-20_23h54.55.656,Info_measure_main_exp,2022.2.2,Win32,59.80503558,,,,,,,,,,,,,,,,,,masks/mask_005.jpg,,,,,,,,,,,,,,,,,,,,,,,,,,,,,,,,,,,,,,,,,,,0,3,3,4,1,,,,,,,,,,,,,,,,,,,,,,,,,,,,,,,,,,,,,,,,,,,,,,
892059,001,2022-11-20_23h54.55.656,Info_measure_main_exp,2022.2.2,Win32,59.80503558,,,,,,,,,,,,,,,,,,masks/mask_004.jpg,,,,,,,,,,,,,,,,,,,,,,,,,,,,,,,,,,,,,,,,,,,0,4,4,3,1,,,,,,,,,,,,,,,,,,,,,,,,,,,,,,,,,,,,,,,,,,,,,,
892059,001,2022-11-20_23h54.55.656,Info_measure_main_exp,2022.2.2,Win32,59.80503558,,,,,,,,,,,,,,,,,,masks/mask_004.jpg,,,,,,,,,,,,,,,,,,,,,,,,,,,,,,,,,,,,,,,,,,,,,,,,0,0,0,3,1,,,,,,,,,,,,,,,,,,,,,,,,,,,,,,,,,,,,,,,,,
892059,001,2022-11-20_23h54.55.656,Info_measure_main_exp,2022.2.2,Win32,59.80503558,,,,,,,,,,,,,,,,,,masks/mask_005.jpg,,,,,,,,,,,,,,,,,,,,,,,,,,,,,,,,,,,,,,,,,,,,,,,,0,1,1,4,1,,,,,,,,,,,,,,,,,,,,,,,,,,,,,,,,,,,,,,,,,
892059,001,2022-11-20_23h54.55.656,Info_measure_main_exp,2022.2.2,Win32,59.80503558,,,,,,,,,,,,,,,,,,masks/mask_001.jpg,,,,,,,,,,,,,,,,,,,,,,,,,,,,,,,,,,,,,,,,,,,,,,,,0,2,2,0,1,,,,,,,,,,,,,,,,,,,,,,,,,,,,,,,,,,,,,,,,,
892059,001,2022-11-20_23h54.55.656,Info_measure_main_exp,2022.2.2,Win32,59.80503558,,,,,,,,,,,,,,,,,,masks/mask_003.jpg,,,,,,,,,,,,,,,,,,,,,,,,,,,,,,,,,,,,,,,,,,,,,,,,0,3,3,2,1,,,,,,,,,,,,,,,,,,,,,,,,,,,,,,,,,,,,,,,,,
892059,001,2022-11-20_23h54.55.656,Info_measure_main_exp,2022.2.2,Win32,59.80503558,,,,,,,,,,,,,,,,,,masks/mask_002.jpg,,,,,,,,,,,,,,,,,,,,,,,,,,,,,,,,,,,,,,,,,,,,,,,,0,4,4,1,1,,,,,,,,,,,,,,,,,,,,,,,,,,,,,,,,,,,,,,,,,
892059,001,2022-11-20_23h54.55.656,Info_measure_main_exp,2022.2.2,Win32,59.80503558,,,,,,,,,,,,,,,,,,,,,,,,,,,,,,7,0.7166,1,,,,,,,,,,,,1,131,5,5,1950,1,absent_patch/patch0001950.jpg,present_patch/cong_131_5_a.jpg,,,,,,,,,,,,,,,,,,,,0.056481467,0.147222201,1,0,0,response1disk,5,0.009259259,-0.00462963,1,0,0,center_square,0,4,4,39,1,,,,,,,,,,,,,,,,,,,,,,,
892059,001,2022-11-20_23h54.55.656,Info_measure_main_exp,2022.2.2,Win32,59.80503558,,,,,,,,,,,,,,,,,,masks/mask_001.jpg,,,,,,,,,,,,,,,,,,,,,,,,,,,,,,,,,,,,,,,,,,,0,0,0,0,1,,,,,,,,,,,,,,,,,,,,,,,,,,,,,,,,,,,,,,,,,,,,,,
892059,001,2022-11-20_23h54.55.656,Info_measure_main_exp,2022.2.2,Win32,59.80503558,,,,,,,,,,,,,,,,,,masks/mask_003.jpg,,,,,,,,,,,,,,,,,,,,,,,,,,,,,,,,,,,,,,,,,,,0,1,1,2,1,,,,,,,,,,,,,,,,,,,,,,,,,,,,,,,,,,,,,,,,,,,,,,
892059,001,2022-11-20_23h54.55.656,Info_measure_main_exp,2022.2.2,Win32,59.80503558,,,,,,,,,,,,,,,,,,masks/mask_004.jpg,,,,,,,,,,,,,,,,,,,,,,,,,,,,,,,,,,,,,,,,,,,0,2,2,3,1,,,,,,,,,,,,,,,,,,,,,,,,,,,,,,,,,,,,,,,,,,,,,,
892059,001,2022-11-20_23h54.55.656,Info_measure_main_exp,2022.2.2,Win32,59.80503558,,,,,,,,,,,,,,,,,,masks/mask_002.jpg,,,,,,,,,,,,,,,,,,,,,,,,,,,,,,,,,,,,,,,,,,,0,3,3,1,1,,,,,,,,,,,,,,,,,,,,,,,,,,,,,,,,,,,,,,,,,,,,,,
892059,001,2022-11-20_23h54.55.656,Info_measure_main_exp,2022.2.2,Win32,59.80503558,,,,,,,,,,,,,,,,,,masks/mask_005.jpg,,,,,,,,,,,,,,,,,,,,,,,,,,,,,,,,,,,,,,,,,,,0,4,4,4,1,,,,,,,,,,,,,,,,,,,,,,,,,,,,,,,,,,,,,,,,,,,,,,
892059,001,2022-11-20_23h54.55.656,Info_measure_main_exp,2022.2.2,Win32,59.80503558,,,,,,,,,,,,,,,,,,masks/mask_001.jpg,,,,,,,,,,,,,,,,,,,,,,,,,,,,,,,,,,,,,,,,,,,,,,,,0,0,0,0,1,,,,,,,,,,,,,,,,,,,,,,,,,,,,,,,,,,,,,,,,,
892059,001,2022-11-20_23h54.55.656,Info_measure_main_exp,2022.2.2,Win32,59.80503558,,,,,,,,,,,,,,,,,,masks/mask_003.jpg,,,,,,,,,,,,,,,,,,,,,,,,,,,,,,,,,,,,,,,,,,,,,,,,0,1,1,2,1,,,,,,,,,,,,,,,,,,,,,,,,,,,,,,,,,,,,,,,,,
892059,001,2022-11-20_23h54.55.656,Info_measure_main_exp,2022.2.2,Win32,59.80503558,,,,,,,,,,,,,,,,,,masks/mask_005.jpg,,,,,,,,,,,,,,,,,,,,,,,,,,,,,,,,,,,,,,,,,,,,,,,,0,2,2,4,1,,,,,,,,,,,,,,,,,,,,,,,,,,,,,,,,,,,,,,,,,
892059,001,2022-11-20_23h54.55.656,Info_measure_main_exp,2022.2.2,Win32,59.80503558,,,,,,,,,,,,,,,,,,masks/mask_002.jpg,,,,,,,,,,,,,,,,,,,,,,,,,,,,,,,,,,,,,,,,,,,,,,,,0,3,3,1,1,,,,,,,,,,,,,,,,,,,,,,,,,,,,,,,,,,,,,,,,,
892059,001,2022-11-20_23h54.55.656,Info_measure_main_exp,2022.2.2,Win32,59.80503558,,,,,,,,,,,,,,,,,,masks/mask_004.jpg,,,,,,,,,,,,,,,,,,,,,,,,,,,,,,,,,,,,,,,,,,,,,,,,0,4,4,3,1,,,,,,,,,,,,,,,,,,,,,,,,,,,,,,,,,,,,,,,,,
892059,001,2022-11-20_23h54.55.656,Info_measure_main_exp,2022.2.2,Win32,59.80503558,,,,,,,,,,,,,,,,,,,,,,,,,,,,,,5,2.1661,1,,,,,,,,,,,,1,131,5,5,1,2274,present_patch/cong_131_5_a.jpg,absent_patch/patch0002274.jpg,,,,,,,,,,,,,,,,,,,,0.122222265,-0.082407422,1,0,0,response3disk,6,-0.00462963,0.00462963,1,0,0,center_square,0,5,5,105,1,,,,,,,,,,,,,,,,,,,,,,,
892059,001,2022-11-20_23h54.55.656,Info_measure_main_exp,2022.2.2,Win32,59.80503558,,,,,,,,,,,,,,,,,,masks/mask_001.jpg,,,,,,,,,,,,,,,,,,,,,,,,,,,,,,,,,,,,,,,,,,,0,0,0,0,1,,,,,,,,,,,,,,,,,,,,,,,,,,,,,,,,,,,,,,,,,,,,,,
892059,001,2022-11-20_23h54.55.656,Info_measure_main_exp,2022.2.2,Win32,59.80503558,,,,,,,,,,,,,,,,,,masks/mask_003.jpg,,,,,,,,,,,,,,,,,,,,,,,,,,,,,,,,,,,,,,,,,,,0,1,1,2,1,,,,,,,,,,,,,,,,,,,,,,,,,,,,,,,,,,,,,,,,,,,,,,
892059,001,2022-11-20_23h54.55.656,Info_measure_main_exp,2022.2.2,Win32,59.80503558,,,,,,,,,,,,,,,,,,masks/mask_002.jpg,,,,,,,,,,,,,,,,,,,,,,,,,,,,,,,,,,,,,,,,,,,0,2,2,1,1,,,,,,,,,,,,,,,,,,,,,,,,,,,,,,,,,,,,,,,,,,,,,,
892059,001,2022-11-20_23h54.55.656,Info_measure_main_exp,2022.2.2,Win32,59.80503558,,,,,,,,,,,,,,,,,,masks/mask_005.jpg,,,,,,,,,,,,,,,,,,,,,,,,,,,,,,,,,,,,,,,,,,,0,3,3,4,1,,,,,,,,,,,,,,,,,,,,,,,,,,,,,,,,,,,,,,,,,,,,,,
892059,001,2022-11-20_23h54.55.656,Info_measure_main_exp,2022.2.2,Win32,59.80503558,,,,,,,,,,,,,,,,,,masks/mask_004.jpg,,,,,,,,,,,,,,,,,,,,,,,,,,,,,,,,,,,,,,,,,,,0,4,4,3,1,,,,,,,,,,,,,,,,,,,,,,,,,,,,,,,,,,,,,,,,,,,,,,
892059,001,2022-11-20_23h54.55.656,Info_measure_main_exp,2022.2.2,Win32,59.80503558,,,,,,,,,,,,,,,,,,masks/mask_001.jpg,,,,,,,,,,,,,,,,,,,,,,,,,,,,,,,,,,,,,,,,,,,,,,,,0,0,0,0,1,,,,,,,,,,,,,,,,,,,,,,,,,,,,,,,,,,,,,,,,,
892059,001,2022-11-20_23h54.55.656,Info_measure_main_exp,2022.2.2,Win32,59.80503558,,,,,,,,,,,,,,,,,,masks/mask_005.jpg,,,,,,,,,,,,,,,,,,,,,,,,,,,,,,,,,,,,,,,,,,,,,,,,0,1,1,4,1,,,,,,,,,,,,,,,,,,,,,,,,,,,,,,,,,,,,,,,,,
892059,001,2022-11-20_23h54.55.656,Info_measure_main_exp,2022.2.2,Win32,59.80503558,,,,,,,,,,,,,,,,,,masks/mask_003.jpg,,,,,,,,,,,,,,,,,,,,,,,,,,,,,,,,,,,,,,,,,,,,,,,,0,2,2,2,1,,,,,,,,,,,,,,,,,,,,,,,,,,,,,,,,,,,,,,,,,
892059,001,2022-11-20_23h54.55.656,Info_measure_main_exp,2022.2.2,Win32,59.80503558,,,,,,,,,,,,,,,,,,masks/mask_004.jpg,,,,,,,,,,,,,,,,,,,,,,,,,,,,,,,,,,,,,,,,,,,,,,,,0,3,3,3,1,,,,,,,,,,,,,,,,,,,,,,,,,,,,,,,,,,,,,,,,,
892059,001,2022-11-20_23h54.55.656,Info_measure_main_exp,2022.2.2,Win32,59.80503558,,,,,,,,,,,,,,,,,,masks/mask_002.jpg,,,,,,,,,,,,,,,,,,,,,,,,,,,,,,,,,,,,,,,,,,,,,,,,0,4,4,1,1,,,,,,,,,,,,,,,,,,,,,,,,,,,,,,,,,,,,,,,,,
892059,001,2022-11-20_23h54.55.656,Info_measure_main_exp,2022.2.2,Win32,59.80503558,,,,,,,,,,,,,,,,,,,,,,,,,,,,,,6,1.0336,1,,,,,,,,,,,,0,131,5,5,2214,2142,absent_patch/patch0002214.jpg,absent_patch/patch0002142.jpg,,,,,,,,,,,,,,,,,,,,0.137962977,0.014814801,1,0,0,response1disk,7,0.007407436,0.010185171,1,0,0,center_square,0,6,6,102,1,,,,,,,,,,,,,,,,,,,,,,,
892059,001,2022-11-20_23h54.55.656,Info_measure_main_exp,2022.2.2,Win32,59.80503558,,,,,,,,,,,,,,,,,,masks/mask_002.jpg,,,,,,,,,,,,,,,,,,,,,,,,,,,,,,,,,,,,,,,,,,,0,0,0,1,1,,,,,,,,,,,,,,,,,,,,,,,,,,,,,,,,,,,,,,,,,,,,,,
892059,001,2022-11-20_23h54.55.656,Info_measure_main_exp,2022.2.2,Win32,59.80503558,,,,,,,,,,,,,,,,,,masks/mask_004.jpg,,,,,,,,,,,,,,,,,,,,,,,,,,,,,,,,,,,,,,,,,,,0,1,1,3,1,,,,,,,,,,,,,,,,,,,,,,,,,,,,,,,,,,,,,,,,,,,,,,
892059,001,2022-11-20_23h54.55.656,Info_measure_main_exp,2022.2.2,Win32,59.80503558,,,,,,,,,,,,,,,,,,masks/mask_005.jpg,,,,,,,,,,,,,,,,,,,,,,,,,,,,,,,,,,,,,,,,,,,0,2,2,4,1,,,,,,,,,,,,,,,,,,,,,,,,,,,,,,,,,,,,,,,,,,,,,,
892059,001,2022-11-20_23h54.55.656,Info_measure_main_exp,2022.2.2,Win32,59.80503558,,,,,,,,,,,,,,,,,,masks/mask_003.jpg,,,,,,,,,,,,,,,,,,,,,,,,,,,,,,,,,,,,,,,,,,,0,3,3,2,1,,,,,,,,,,,,,,,,,,,,,,,,,,,,,,,,,,,,,,,,,,,,,,
892059,001,2022-11-20_23h54.55.656,Info_measure_main_exp,2022.2.2,Win32,59.80503558,,,,,,,,,,,,,,,,,,masks/mask_001.jpg,,,,,,,,,,,,,,,,,,,,,,,,,,,,,,,,,,,,,,,,,,,0,4,4,0,1,,,,,,,,,,,,,,,,,,,,,,,,,,,,,,,,,,,,,,,,,,,,,,
892059,001,2022-11-20_23h54.55.656,Info_measure_main_exp,2022.2.2,Win32,59.80503558,,,,,,,,,,,,,,,,,,masks/mask_001.jpg,,,,,,,,,,,,,,,,,,,,,,,,,,,,,,,,,,,,,,,,,,,,,,,,0,0,0,0,1,,,,,,,,,,,,,,,,,,,,,,,,,,,,,,,,,,,,,,,,,
892059,001,2022-11-20_23h54.55.656,Info_measure_main_exp,2022.2.2,Win32,59.80503558,,,,,,,,,,,,,,,,,,masks/mask_004.jpg,,,,,,,,,,,,,,,,,,,,,,,,,,,,,,,,,,,,,,,,,,,,,,,,0,1,1,3,1,,,,,,,,,,,,,,,,,,,,,,,,,,,,,,,,,,,,,,,,,
892059,001,2022-11-20_23h54.55.656,Info_measure_main_exp,2022.2.2,Win32,59.80503558,,,,,,,,,,,,,,,,,,masks/mask_003.jpg,,,,,,,,,,,,,,,,,,,,,,,,,,,,,,,,,,,,,,,,,,,,,,,,0,2,2,2,1,,,,,,,,,,,,,,,,,,,,,,,,,,,,,,,,,,,,,,,,,
892059,001,2022-11-20_23h54.55.656,Info_measure_main_exp,2022.2.2,Win32,59.80503558,,,,,,,,,,,,,,,,,,masks/mask_002.jpg,,,,,,,,,,,,,,,,,,,,,,,,,,,,,,,,,,,,,,,,,,,,,,,,0,3,3,1,1,,,,,,,,,,,,,,,,,,,,,,,,,,,,,,,,,,,,,,,,,
892059,001,2022-11-20_23h54.55.656,Info_measure_main_exp,2022.2.2,Win32,59.80503558,,,,,,,,,,,,,,,,,,masks/mask_005.jpg,,,,,,,,,,,,,,,,,,,,,,,,,,,,,,,,,,,,,,,,,,,,,,,,0,4,4,4,1,,,,,,,,,,,,,,,,,,,,,,,,,,,,,,,,,,,,,,,,,
892059,001,2022-11-20_23h54.55.656,Info_measure_main_exp,2022.2.2,Win32,59.80503558,,,,,,,,,,,,,,,,,,,,,,,,,,,,,,6,0.8509,1,,,,,,,,,,,,0,131,5,5,2250,2214,absent_patch/patch0002250.jpg,absent_patch/patch0002214.jpg,,,,,,,,,,,,,,,,,,,,0.089814857,0.01944443,1,0,0,response1disk,8,-0.006481453,0.0074074,1,0,0,center_square,0,7,7,97,1,,,,,,,,,,,,,,,,,,,,,,,
892059,001,2022-11-20_23h54.55.656,Info_measure_main_exp,2022.2.2,Win32,59.80503558,,,,,,,,,,,,,,,,,,masks/mask_003.jpg,,,,,,,,,,,,,,,,,,,,,,,,,,,,,,,,,,,,,,,,,,,0,0,0,2,1,,,,,,,,,,,,,,,,,,,,,,,,,,,,,,,,,,,,,,,,,,,,,,
892059,001,2022-11-20_23h54.55.656,Info_measure_main_exp,2022.2.2,Win32,59.80503558,,,,,,,,,,,,,,,,,,masks/mask_004.jpg,,,,,,,,,,,,,,,,,,,,,,,,,,,,,,,,,,,,,,,,,,,0,1,1,3,1,,,,,,,,,,,,,,,,,,,,,,,,,,,,,,,,,,,,,,,,,,,,,,
892059,001,2022-11-20_23h54.55.656,Info_measure_main_exp,2022.2.2,Win32,59.80503558,,,,,,,,,,,,,,,,,,masks/mask_005.jpg,,,,,,,,,,,,,,,,,,,,,,,,,,,,,,,,,,,,,,,,,,,0,2,2,4,1,,,,,,,,,,,,,,,,,,,,,,,,,,,,,,,,,,,,,,,,,,,,,,
892059,001,2022-11-20_23h54.55.656,Info_measure_main_exp,2022.2.2,Win32,59.80503558,,,,,,,,,,,,,,,,,,masks/mask_002.jpg,,,,,,,,,,,,,,,,,,,,,,,,,,,,,,,,,,,,,,,,,,,0,3,3,1,1,,,,,,,,,,,,,,,,,,,,,,,,,,,,,,,,,,,,,,,,,,,,,,
892059,001,2022-11-20_23h54.55.656,Info_measure_main_exp,2022.2.2,Win32,59.80503558,,,,,,,,,,,,,,,,,,masks/mask_001.jpg,,,,,,,,,,,,,,,,,,,,,,,,,,,,,,,,,,,,,,,,,,,0,4,4,0,1,,,,,,,,,,,,,,,,,,,,,,,,,,,,,,,,,,,,,,,,,,,,,,
892059,001,2022-11-20_23h54.55.656,Info_measure_main_exp,2022.2.2,Win32,59.80503558,,,,,,,,,,,,,,,,,,masks/mask_003.jpg,,,,,,,,,,,,,,,,,,,,,,,,,,,,,,,,,,,,,,,,,,,,,,,,0,0,0,2,1,,,,,,,,,,,,,,,,,,,,,,,,,,,,,,,,,,,,,,,,,
892059,001,2022-11-20_23h54.55.656,Info_measure_main_exp,2022.2.2,Win32,59.80503558,,,,,,,,,,,,,,,,,,masks/mask_002.jpg,,,,,,,,,,,,,,,,,,,,,,,,,,,,,,,,,,,,,,,,,,,,,,,,0,1,1,1,1,,,,,,,,,,,,,,,,,,,,,,,,,,,,,,,,,,,,,,,,,
892059,001,2022-11-20_23h54.55.656,Info_measure_main_exp,2022.2.2,Win32,59.80503558,,,,,,,,,,,,,,,,,,masks/mask_001.jpg,,,,,,,,,,,,,,,,,,,,,,,,,,,,,,,,,,,,,,,,,,,,,,,,0,2,2,0,1,,,,,,,,,,,,,,,,,,,,,,,,,,,,,,,,,,,,,,,,,
892059,001,2022-11-20_23h54.55.656,Info_measure_main_exp,2022.2.2,Win32,59.80503558,,,,,,,,,,,,,,,,,,masks/mask_005.jpg,,,,,,,,,,,,,,,,,,,,,,,,,,,,,,,,,,,,,,,,,,,,,,,,0,3,3,4,1,,,,,,,,,,,,,,,,,,,,,,,,,,,,,,,,,,,,,,,,,
892059,001,2022-11-20_23h54.55.656,Info_measure_main_exp,2022.2.2,Win32,59.80503558,,,,,,,,,,,,,,,,,,masks/mask_004.jpg,,,,,,,,,,,,,,,,,,,,,,,,,,,,,,,,,,,,,,,,,,,,,,,,0,4,4,3,1,,,,,,,,,,,,,,,,,,,,,,,,,,,,,,,,,,,,,,,,,
892059,001,2022-11-20_23h54.55.656,Info_measure_main_exp,2022.2.2,Win32,59.80503558,,,,,,,,,,,,,,,,,,,,,,,,,,,,,,0,0.7671,1,,,,,,,,,,,,0,131,5,5,2238,2238,absent_patch/patch0002238.jpg,absent_patch/patch0002238.jpg,,,,,,,,,,,,,,,,,,,,-0.055555556,0.125,1,0,0,response7disk,9,0.003703718,-0.001851859,1,0,0,center_square,0,8,8,58,1,,,,,,,,,,,,,,,,,,,,,,,
892059,001,2022-11-20_23h54.55.656,Info_measure_main_exp,2022.2.2,Win32,59.80503558,,,,,,,,,,,,,,,,,,masks/mask_001.jpg,,,,,,,,,,,,,,,,,,,,,,,,,,,,,,,,,,,,,,,,,,,0,0,0,0,1,,,,,,,,,,,,,,,,,,,,,,,,,,,,,,,,,,,,,,,,,,,,,,
892059,001,2022-11-20_23h54.55.656,Info_measure_main_exp,2022.2.2,Win32,59.80503558,,,,,,,,,,,,,,,,,,masks/mask_005.jpg,,,,,,,,,,,,,,,,,,,,,,,,,,,,,,,,,,,,,,,,,,,0,1,1,4,1,,,,,,,,,,,,,,,,,,,,,,,,,,,,,,,,,,,,,,,,,,,,,,
892059,001,2022-11-20_23h54.55.656,Info_measure_main_exp,2022.2.2,Win32,59.80503558,,,,,,,,,,,,,,,,,,masks/mask_004.jpg,,,,,,,,,,,,,,,,,,,,,,,,,,,,,,,,,,,,,,,,,,,0,2,2,3,1,,,,,,,,,,,,,,,,,,,,,,,,,,,,,,,,,,,,,,,,,,,,,,
892059,001,2022-11-20_23h54.55.656,Info_measure_main_exp,2022.2.2,Win32,59.80503558,,,,,,,,,,,,,,,,,,masks/mask_003.jpg,,,,,,,,,,,,,,,,,,,,,,,,,,,,,,,,,,,,,,,,,,,0,3,3,2,1,,,,,,,,,,,,,,,,,,,,,,,,,,,,,,,,,,,,,,,,,,,,,,
892059,001,2022-11-20_23h54.55.656,Info_measure_main_exp,2022.2.2,Win32,59.80503558,,,,,,,,,,,,,,,,,,masks/mask_002.jpg,,,,,,,,,,,,,,,,,,,,,,,,,,,,,,,,,,,,,,,,,,,0,4,4,1,1,,,,,,,,,,,,,,,,,,,,,,,,,,,,,,,,,,,,,,,,,,,,,,
892059,001,2022-11-20_23h54.55.656,Info_measure_main_exp,2022.2.2,Win32,59.80503558,,,,,,,,,,,,,,,,,,masks/mask_001.jpg,,,,,,,,,,,,,,,,,,,,,,,,,,,,,,,,,,,,,,,,,,,,,,,,0,0,0,0,1,,,,,,,,,,,,,,,,,,,,,,,,,,,,,,,,,,,,,,,,,
892059,001,2022-11-20_23h54.55.656,Info_measure_main_exp,2022.2.2,Win32,59.80503558,,,,,,,,,,,,,,,,,,masks/mask_003.jpg,,,,,,,,,,,,,,,,,,,,,,,,,,,,,,,,,,,,,,,,,,,,,,,,0,1,1,2,1,,,,,,,,,,,,,,,,,,,,,,,,,,,,,,,,,,,,,,,,,
892059,001,2022-11-20_23h54.55.656,Info_measure_main_exp,2022.2.2,Win32,59.80503558,,,,,,,,,,,,,,,,,,masks/mask_004.jpg,,,,,,,,,,,,,,,,,,,,,,,,,,,,,,,,,,,,,,,,,,,,,,,,0,2,2,3,1,,,,,,,,,,,,,,,,,,,,,,,,,,,,,,,,,,,,,,,,,
892059,001,2022-11-20_23h54.55.656,Info_measure_main_exp,2022.2.2,Win32,59.80503558,,,,,,,,,,,,,,,,,,masks/mask_005.jpg,,,,,,,,,,,,,,,,,,,,,,,,,,,,,,,,,,,,,,,,,,,,,,,,0,3,3,4,1,,,,,,,,,,,,,,,,,,,,,,,,,,,,,,,,,,,,,,,,,
892059,001,2022-11-20_23h54.55.656,Info_measure_main_exp,2022.2.2,Win32,59.80503558,,,,,,,,,,,,,,,,,,masks/mask_002.jpg,,,,,,,,,,,,,,,,,,,,,,,,,,,,,,,,,,,,,,,,,,,,,,,,0,4,4,1,1,,,,,,,,,,,,,,,,,,,,,,,,,,,,,,,,,,,,,,,,,
892059,001,2022-11-20_23h54.55.656,Info_measure_main_exp,2022.2.2,Win32,59.80503558,,,,,,,,,,,,,,,,,,,,,,,,,,,,,,2,2.6239,1,,,,,,,,,,,,0,131,5,5,2298,2298,absent_patch/patch0002298.jpg,absent_patch/patch0002298.jpg,,,,,,,,,,,,,,,,,,,,-0.073148162,-0.014814836,1,0,0,response5disk,10,0,0.000925912,1,0,0,center_square,0,9,9,37,1,,,,,,,,,,,,,,,,,,,,,,,
892059,001,2022-11-20_23h54.55.656,Info_measure_main_exp,2022.2.2,Win32,59.80503558,,,,,,,,,,,,,,,,,,masks/mask_004.jpg,,,,,,,,,,,,,,,,,,,,,,,,,,,,,,,,,,,,,,,,,,,0,0,0,3,1,,,,,,,,,,,,,,,,,,,,,,,,,,,,,,,,,,,,,,,,,,,,,,
892059,001,2022-11-20_23h54.55.656,Info_measure_main_exp,2022.2.2,Win32,59.80503558,,,,,,,,,,,,,,,,,,masks/mask_005.jpg,,,,,,,,,,,,,,,,,,,,,,,,,,,,,,,,,,,,,,,,,,,0,1,1,4,1,,,,,,,,,,,,,,,,,,,,,,,,,,,,,,,,,,,,,,,,,,,,,,
892059,001,2022-11-20_23h54.55.656,Info_measure_main_exp,2022.2.2,Win32,59.80503558,,,,,,,,,,,,,,,,,,masks/mask_001.jpg,,,,,,,,,,,,,,,,,,,,,,,,,,,,,,,,,,,,,,,,,,,0,2,2,0,1,,,,,,,,,,,,,,,,,,,,,,,,,,,,,,,,,,,,,,,,,,,,,,
892059,001,2022-11-20_23h54.55.656,Info_measure_main_exp,2022.2.2,Win32,59.80503558,,,,,,,,,,,,,,,,,,masks/mask_003.jpg,,,,,,,,,,,,,,,,,,,,,,,,,,,,,,,,,,,,,,,,,,,0,3,3,2,1,,,,,,,,,,,,,,,,,,,,,,,,,,,,,,,,,,,,,,,,,,,,,,
892059,001,2022-11-20_23h54.55.656,Info_measure_main_exp,2022.2.2,Win32,59.80503558,,,,,,,,,,,,,,,,,,masks/mask_002.jpg,,,,,,,,,,,,,,,,,,,,,,,,,,,,,,,,,,,,,,,,,,,0,4,4,1,1,,,,,,,,,,,,,,,,,,,,,,,,,,,,,,,,,,,,,,,,,,,,,,
892059,001,2022-11-20_23h54.55.656,Info_measure_main_exp,2022.2.2,Win32,59.80503558,,,,,,,,,,,,,,,,,,masks/mask_002.jpg,,,,,,,,,,,,,,,,,,,,,,,,,,,,,,,,,,,,,,,,,,,,,,,,0,0,0,1,1,,,,,,,,,,,,,,,,,,,,,,,,,,,,,,,,,,,,,,,,,
892059,001,2022-11-20_23h54.55.656,Info_measure_main_exp,2022.2.2,Win32,59.80503558,,,,,,,,,,,,,,,,,,masks/mask_001.jpg,,,,,,,,,,,,,,,,,,,,,,,,,,,,,,,,,,,,,,,,,,,,,,,,0,1,1,0,1,,,,,,,,,,,,,,,,,,,,,,,,,,,,,,,,,,,,,,,,,
892059,001,2022-11-20_23h54.55.656,Info_measure_main_exp,2022.2.2,Win32,59.80503558,,,,,,,,,,,,,,,,,,masks/mask_003.jpg,,,,,,,,,,,,,,,,,,,,,,,,,,,,,,,,,,,,,,,,,,,,,,,,0,2,2,2,1,,,,,,,,,,,,,,,,,,,,,,,,,,,,,,,,,,,,,,,,,
892059,001,2022-11-20_23h54.55.656,Info_measure_main_exp,2022.2.2,Win32,59.80503558,,,,,,,,,,,,,,,,,,masks/mask_005.jpg,,,,,,,,,,,,,,,,,,,,,,,,,,,,,,,,,,,,,,,,,,,,,,,,0,3,3,4,1,,,,,,,,,,,,,,,,,,,,,,,,,,,,,,,,,,,,,,,,,
892059,001,2022-11-20_23h54.55.656,Info_measure_main_exp,2022.2.2,Win32,59.80503558,,,,,,,,,,,,,,,,,,masks/mask_004.jpg,,,,,,,,,,,,,,,,,,,,,,,,,,,,,,,,,,,,,,,,,,,,,,,,0,4,4,3,1,,,,,,,,,,,,,,,,,,,,,,,,,,,,,,,,,,,,,,,,,
892059,001,2022-11-20_23h54.55.656,Info_measure_main_exp,2022.2.2,Win32,59.80503558,,,,,,,,,,,,,,,,,,,,,,,,,,,,,,5,1.7505,1,,,,,,,,,,,,0,131,5,5,2274,2154,absent_patch/patch0002274.jpg,absent_patch/patch0002154.jpg,,,,,,,,,,,,,,,,,,,,0.042592578,-0.01203703,1,0,0,response3disk,11,-0.003703718,0.005555541,1,0,0,center_square,0,10,10,23,1,,,,,,,,,,,,,,,,,,,,,,,
892059,001,2022-11-20_23h54.55.656,Info_measure_main_exp,2022.2.2,Win32,59.80503558,,,,,,,,,,,,,,,,,,masks/mask_005.jpg,,,,,,,,,,,,,,,,,,,,,,,,,,,,,,,,,,,,,,,,,,,0,0,0,4,1,,,,,,,,,,,,,,,,,,,,,,,,,,,,,,,,,,,,,,,,,,,,,,
892059,001,2022-11-20_23h54.55.656,Info_measure_main_exp,2022.2.2,Win32,59.80503558,,,,,,,,,,,,,,,,,,masks/mask_002.jpg,,,,,,,,,,,,,,,,,,,,,,,,,,,,,,,,,,,,,,,,,,,0,1,1,1,1,,,,,,,,,,,,,,,,,,,,,,,,,,,,,,,,,,,,,,,,,,,,,,
892059,001,2022-11-20_23h54.55.656,Info_measure_main_exp,2022.2.2,Win32,59.80503558,,,,,,,,,,,,,,,,,,masks/mask_003.jpg,,,,,,,,,,,,,,,,,,,,,,,,,,,,,,,,,,,,,,,,,,,0,2,2,2,1,,,,,,,,,,,,,,,,,,,,,,,,,,,,,,,,,,,,,,,,,,,,,,
892059,001,2022-11-20_23h54.55.656,Info_measure_main_exp,2022.2.2,Win32,59.80503558,,,,,,,,,,,,,,,,,,masks/mask_004.jpg,,,,,,,,,,,,,,,,,,,,,,,,,,,,,,,,,,,,,,,,,,,0,3,3,3,1,,,,,,,,,,,,,,,,,,,,,,,,,,,,,,,,,,,,,,,,,,,,,,
892059,001,2022-11-20_23h54.55.656,Info_measure_main_exp,2022.2.2,Win32,59.80503558,,,,,,,,,,,,,,,,,,masks/mask_001.jpg,,,,,,,,,,,,,,,,,,,,,,,,,,,,,,,,,,,,,,,,,,,0,4,4,0,1,,,,,,,,,,,,,,,,,,,,,,,,,,,,,,,,,,,,,,,,,,,,,,
892059,001,2022-11-20_23h54.55.656,Info_measure_main_exp,2022.2.2,Win32,59.80503558,,,,,,,,,,,,,,,,,,masks/mask_005.jpg,,,,,,,,,,,,,,,,,,,,,,,,,,,,,,,,,,,,,,,,,,,,,,,,0,0,0,4,1,,,,,,,,,,,,,,,,,,,,,,,,,,,,,,,,,,,,,,,,,
892059,001,2022-11-20_23h54.55.656,Info_measure_main_exp,2022.2.2,Win32,59.80503558,,,,,,,,,,,,,,,,,,masks/mask_002.jpg,,,,,,,,,,,,,,,,,,,,,,,,,,,,,,,,,,,,,,,,,,,,,,,,0,1,1,1,1,,,,,,,,,,,,,,,,,,,,,,,,,,,,,,,,,,,,,,,,,
892059,001,2022-11-20_23h54.55.656,Info_measure_main_exp,2022.2.2,Win32,59.80503558,,,,,,,,,,,,,,,,,,masks/mask_003.jpg,,,,,,,,,,,,,,,,,,,,,,,,,,,,,,,,,,,,,,,,,,,,,,,,0,2,2,2,1,,,,,,,,,,,,,,,,,,,,,,,,,,,,,,,,,,,,,,,,,
892059,001,2022-11-20_23h54.55.656,Info_measure_main_exp,2022.2.2,Win32,59.80503558,,,,,,,,,,,,,,,,,,masks/mask_001.jpg,,,,,,,,,,,,,,,,,,,,,,,,,,,,,,,,,,,,,,,,,,,,,,,,0,3,3,0,1,,,,,,,,,,,,,,,,,,,,,,,,,,,,,,,,,,,,,,,,,
892059,001,2022-11-20_23h54.55.656,Info_measure_main_exp,2022.2.2,Win32,59.80503558,,,,,,,,,,,,,,,,,,masks/mask_004.jpg,,,,,,,,,,,,,,,,,,,,,,,,,,,,,,,,,,,,,,,,,,,,,,,,0,4,4,3,1,,,,,,,,,,,,,,,,,,,,,,,,,,,,,,,,,,,,,,,,,
892059,001,2022-11-20_23h54.55.656,Info_measure_main_exp,2022.2.2,Win32,59.80503558,,,,,,,,,,,,,,,,,,,,,,,,,,,,,,5,3.533,1,,,,,,,,,,,,0,131,5,5,2082,2250,absent_patch/patch0002082.jpg,absent_patch/patch0002250.jpg,,,,,,,,,,,,,,,,,,,,0.058333362,-0.027777778,1,0,0,response3disk,12,-0.002777735,-0.000925947,1,0,0,center_square,0,11,11,3,1,,,,,,,,,,,,,,,,,,,,,,,
892059,001,2022-11-20_23h54.55.656,Info_measure_main_exp,2022.2.2,Win32,59.80503558,,,,,,,,,,,,,,,,,,masks/mask_004.jpg,,,,,,,,,,,,,,,,,,,,,,,,,,,,,,,,,,,,,,,,,,,0,0,0,3,1,,,,,,,,,,,,,,,,,,,,,,,,,,,,,,,,,,,,,,,,,,,,,,
892059,001,2022-11-20_23h54.55.656,Info_measure_main_exp,2022.2.2,Win32,59.80503558,,,,,,,,,,,,,,,,,,masks/mask_002.jpg,,,,,,,,,,,,,,,,,,,,,,,,,,,,,,,,,,,,,,,,,,,0,1,1,1,1,,,,,,,,,,,,,,,,,,,,,,,,,,,,,,,,,,,,,,,,,,,,,,
892059,001,2022-11-20_23h54.55.656,Info_measure_main_exp,2022.2.2,Win32,59.80503558,,,,,,,,,,,,,,,,,,masks/mask_001.jpg,,,,,,,,,,,,,,,,,,,,,,,,,,,,,,,,,,,,,,,,,,,0,2,2,0,1,,,,,,,,,,,,,,,,,,,,,,,,,,,,,,,,,,,,,,,,,,,,,,
892059,001,2022-11-20_23h54.55.656,Info_measure_main_exp,2022.2.2,Win32,59.80503558,,,,,,,,,,,,,,,,,,masks/mask_005.jpg,,,,,,,,,,,,,,,,,,,,,,,,,,,,,,,,,,,,,,,,,,,0,3,3,4,1,,,,,,,,,,,,,,,,,,,,,,,,,,,,,,,,,,,,,,,,,,,,,,
892059,001,2022-11-20_23h54.55.656,Info_measure_main_exp,2022.2.2,Win32,59.80503558,,,,,,,,,,,,,,,,,,masks/mask_003.jpg,,,,,,,,,,,,,,,,,,,,,,,,,,,,,,,,,,,,,,,,,,,0,4,4,2,1,,,,,,,,,,,,,,,,,,,,,,,,,,,,,,,,,,,,,,,,,,,,,,
892059,001,2022-11-20_23h54.55.656,Info_measure_main_exp,2022.2.2,Win32,59.80503558,,,,,,,,,,,,,,,,,,masks/mask_003.jpg,,,,,,,,,,,,,,,,,,,,,,,,,,,,,,,,,,,,,,,,,,,,,,,,0,0,0,2,1,,,,,,,,,,,,,,,,,,,,,,,,,,,,,,,,,,,,,,,,,
892059,001,2022-11-20_23h54.55.656,Info_measure_main_exp,2022.2.2,Win32,59.80503558,,,,,,,,,,,,,,,,,,masks/mask_005.jpg,,,,,,,,,,,,,,,,,,,,,,,,,,,,,,,,,,,,,,,,,,,,,,,,0,1,1,4,1,,,,,,,,,,,,,,,,,,,,,,,,,,,,,,,,,,,,,,,,,
892059,001,2022-11-20_23h54.55.656,Info_measure_main_exp,2022.2.2,Win32,59.80503558,,,,,,,,,,,,,,,,,,masks/mask_004.jpg,,,,,,,,,,,,,,,,,,,,,,,,,,,,,,,,,,,,,,,,,,,,,,,,0,2,2,3,1,,,,,,,,,,,,,,,,,,,,,,,,,,,,,,,,,,,,,,,,,
892059,001,2022-11-20_23h54.55.656,Info_measure_main_exp,2022.2.2,Win32,59.80503558,,,,,,,,,,,,,,,,,,masks/mask_001.jpg,,,,,,,,,,,,,,,,,,,,,,,,,,,,,,,,,,,,,,,,,,,,,,,,0,3,3,0,1,,,,,,,,,,,,,,,,,,,,,,,,,,,,,,,,,,,,,,,,,
892059,001,2022-11-20_23h54.55.656,Info_measure_main_exp,2022.2.2,Win32,59.80503558,,,,,,,,,,,,,,,,,,masks/mask_002.jpg,,,,,,,,,,,,,,,,,,,,,,,,,,,,,,,,,,,,,,,,,,,,,,,,0,4,4,1,1,,,,,,,,,,,,,,,,,,,,,,,,,,,,,,,,,,,,,,,,,
892059,001,2022-11-20_23h54.55.656,Info_measure_main_exp,2022.2.2,Win32,59.80503558,,,,,,,,,,,,,,,,,,,,,,,,,,,,,,2,1.8664,1,,,,,,,,,,,,0,131,5,5,2298,2274,absent_patch/patch0002298.jpg,absent_patch/patch0002274.jpg,,,,,,,,,,,,,,,,,,,,-0.064814815,-0.017592607,1,0,0,response5disk,13,0.002777806,0.012962942,1,0,0,center_square,0,12,12,1,1,,,,,,,,,,,,,,,,,,,,,,,
892059,001,2022-11-20_23h54.55.656,Info_measure_main_exp,2022.2.2,Win32,59.80503558,,,,,,,,,,,,,,,,,,masks/mask_002.jpg,,,,,,,,,,,,,,,,,,,,,,,,,,,,,,,,,,,,,,,,,,,0,0,0,1,1,,,,,,,,,,,,,,,,,,,,,,,,,,,,,,,,,,,,,,,,,,,,,,
892059,001,2022-11-20_23h54.55.656,Info_measure_main_exp,2022.2.2,Win32,59.80503558,,,,,,,,,,,,,,,,,,masks/mask_004.jpg,,,,,,,,,,,,,,,,,,,,,,,,,,,,,,,,,,,,,,,,,,,0,1,1,3,1,,,,,,,,,,,,,,,,,,,,,,,,,,,,,,,,,,,,,,,,,,,,,,
892059,001,2022-11-20_23h54.55.656,Info_measure_main_exp,2022.2.2,Win32,59.80503558,,,,,,,,,,,,,,,,,,masks/mask_001.jpg,,,,,,,,,,,,,,,,,,,,,,,,,,,,,,,,,,,,,,,,,,,0,2,2,0,1,,,,,,,,,,,,,,,,,,,,,,,,,,,,,,,,,,,,,,,,,,,,,,
892059,001,2022-11-20_23h54.55.656,Info_measure_main_exp,2022.2.2,Win32,59.80503558,,,,,,,,,,,,,,,,,,masks/mask_005.jpg,,,,,,,,,,,,,,,,,,,,,,,,,,,,,,,,,,,,,,,,,,,0,3,3,4,1,,,,,,,,,,,,,,,,,,,,,,,,,,,,,,,,,,,,,,,,,,,,,,
892059,001,2022-11-20_23h54.55.656,Info_measure_main_exp,2022.2.2,Win32,59.80503558,,,,,,,,,,,,,,,,,,masks/mask_003.jpg,,,,,,,,,,,,,,,,,,,,,,,,,,,,,,,,,,,,,,,,,,,0,4,4,2,1,,,,,,,,,,,,,,,,,,,,,,,,,,,,,,,,,,,,,,,,,,,,,,
892059,001,2022-11-20_23h54.55.656,Info_measure_main_exp,2022.2.2,Win32,59.80503558,,,,,,,,,,,,,,,,,,masks/mask_004.jpg,,,,,,,,,,,,,,,,,,,,,,,,,,,,,,,,,,,,,,,,,,,,,,,,0,0,0,3,1,,,,,,,,,,,,,,,,,,,,,,,,,,,,,,,,,,,,,,,,,
892059,001,2022-11-20_23h54.55.656,Info_measure_main_exp,2022.2.2,Win32,59.80503558,,,,,,,,,,,,,,,,,,masks/mask_002.jpg,,,,,,,,,,,,,,,,,,,,,,,,,,,,,,,,,,,,,,,,,,,,,,,,0,1,1,1,1,,,,,,,,,,,,,,,,,,,,,,,,,,,,,,,,,,,,,,,,,
892059,001,2022-11-20_23h54.55.656,Info_measure_main_exp,2022.2.2,Win32,59.80503558,,,,,,,,,,,,,,,,,,masks/mask_001.jpg,,,,,,,,,,,,,,,,,,,,,,,,,,,,,,,,,,,,,,,,,,,,,,,,0,2,2,0,1,,,,,,,,,,,,,,,,,,,,,,,,,,,,,,,,,,,,,,,,,
892059,001,2022-11-20_23h54.55.656,Info_measure_main_exp,2022.2.2,Win32,59.80503558,,,,,,,,,,,,,,,,,,masks/mask_005.jpg,,,,,,,,,,,,,,,,,,,,,,,,,,,,,,,,,,,,,,,,,,,,,,,,0,3,3,4,1,,,,,,,,,,,,,,,,,,,,,,,,,,,,,,,,,,,,,,,,,
892059,001,2022-11-20_23h54.55.656,Info_measure_main_exp,2022.2.2,Win32,59.80503558,,,,,,,,,,,,,,,,,,masks/mask_003.jpg,,,,,,,,,,,,,,,,,,,,,,,,,,,,,,,,,,,,,,,,,,,,,,,,0,4,4,2,1,,,,,,,,,,,,,,,,,,,,,,,,,,,,,,,,,,,,,,,,,
892059,001,2022-11-20_23h54.55.656,Info_measure_main_exp,2022.2.2,Win32,59.80503558,,,,,,,,,,,,,,,,,,,,,,,,,,,,,,5,1.0837,1,,,,,,,,,,,,1,131,5,5,1,2214,present_patch/cong_131_5_a.jpg,absent_patch/patch0002214.jpg,,,,,,,,,,,,,,,,,,,,0.037037037,-0.01203703,1,0,0,response3disk,14,-0.009259259,0.003703683,1,0,0,center_square,0,13,13,4,1,,,,,,,,,,,,,,,,,,,,,,,
892059,001,2022-11-20_23h54.55.656,Info_measure_main_exp,2022.2.2,Win32,59.80503558,,,,,,,,,,,,,,,,,,masks/mask_003.jpg,,,,,,,,,,,,,,,,,,,,,,,,,,,,,,,,,,,,,,,,,,,0,0,0,2,1,,,,,,,,,,,,,,,,,,,,,,,,,,,,,,,,,,,,,,,,,,,,,,
892059,001,2022-11-20_23h54.55.656,Info_measure_main_exp,2022.2.2,Win32,59.80503558,,,,,,,,,,,,,,,,,,masks/mask_005.jpg,,,,,,,,,,,,,,,,,,,,,,,,,,,,,,,,,,,,,,,,,,,0,1,1,4,1,,,,,,,,,,,,,,,,,,,,,,,,,,,,,,,,,,,,,,,,,,,,,,
892059,001,2022-11-20_23h54.55.656,Info_measure_main_exp,2022.2.2,Win32,59.80503558,,,,,,,,,,,,,,,,,,masks/mask_002.jpg,,,,,,,,,,,,,,,,,,,,,,,,,,,,,,,,,,,,,,,,,,,0,2,2,1,1,,,,,,,,,,,,,,,,,,,,,,,,,,,,,,,,,,,,,,,,,,,,,,
892059,001,2022-11-20_23h54.55.656,Info_measure_main_exp,2022.2.2,Win32,59.80503558,,,,,,,,,,,,,,,,,,masks/mask_001.jpg,,,,,,,,,,,,,,,,,,,,,,,,,,,,,,,,,,,,,,,,,,,0,3,3,0,1,,,,,,,,,,,,,,,,,,,,,,,,,,,,,,,,,,,,,,,,,,,,,,
892059,001,2022-11-20_23h54.55.656,Info_measure_main_exp,2022.2.2,Win32,59.80503558,,,,,,,,,,,,,,,,,,masks/mask_004.jpg,,,,,,,,,,,,,,,,,,,,,,,,,,,,,,,,,,,,,,,,,,,0,4,4,3,1,,,,,,,,,,,,,,,,,,,,,,,,,,,,,,,,,,,,,,,,,,,,,,
892059,001,2022-11-20_23h54.55.656,Info_measure_main_exp,2022.2.2,Win32,59.80503558,,,,,,,,,,,,,,,,,,masks/mask_002.jpg,,,,,,,,,,,,,,,,,,,,,,,,,,,,,,,,,,,,,,,,,,,,,,,,0,0,0,1,1,,,,,,,,,,,,,,,,,,,,,,,,,,,,,,,,,,,,,,,,,
892059,001,2022-11-20_23h54.55.656,Info_measure_main_exp,2022.2.2,Win32,59.80503558,,,,,,,,,,,,,,,,,,masks/mask_003.jpg,,,,,,,,,,,,,,,,,,,,,,,,,,,,,,,,,,,,,,,,,,,,,,,,0,1,1,2,1,,,,,,,,,,,,,,,,,,,,,,,,,,,,,,,,,,,,,,,,,
892059,001,2022-11-20_23h54.55.656,Info_measure_main_exp,2022.2.2,Win32,59.80503558,,,,,,,,,,,,,,,,,,masks/mask_001.jpg,,,,,,,,,,,,,,,,,,,,,,,,,,,,,,,,,,,,,,,,,,,,,,,,0,2,2,0,1,,,,,,,,,,,,,,,,,,,,,,,,,,,,,,,,,,,,,,,,,
892059,001,2022-11-20_23h54.55.656,Info_measure_main_exp,2022.2.2,Win32,59.80503558,,,,,,,,,,,,,,,,,,masks/mask_004.jpg,,,,,,,,,,,,,,,,,,,,,,,,,,,,,,,,,,,,,,,,,,,,,,,,0,3,3,3,1,,,,,,,,,,,,,,,,,,,,,,,,,,,,,,,,,,,,,,,,,
892059,001,2022-11-20_23h54.55.656,Info_measure_main_exp,2022.2.2,Win32,59.80503558,,,,,,,,,,,,,,,,,,masks/mask_005.jpg,,,,,,,,,,,,,,,,,,,,,,,,,,,,,,,,,,,,,,,,,,,,,,,,0,4,4,4,1,,,,,,,,,,,,,,,,,,,,,,,,,,,,,,,,,,,,,,,,,
892059,001,2022-11-20_23h54.55.656,Info_measure_main_exp,2022.2.2,Win32,59.80503558,,,,,,,,,,,,,,,,,,,,,,,,,,,,,,5,1.454,1,,,,,,,,,,,,0,131,5,5,1974,2250,absent_patch/patch0001974.jpg,absent_patch/patch0002250.jpg,,,,,,,,,,,,,,,,,,,,0.090740769,-0.051851873,1,0,0,response3disk,15,0.00462963,-0.005555577,1,0,0,center_square,0,14,14,55,1,,,,,,,,,,,,,,,,,,,,,,,
892059,001,2022-11-20_23h54.55.656,Info_measure_main_exp,2022.2.2,Win32,59.80503558,,,,,,,,,,,,,,,,,,masks/mask_004.jpg,,,,,,,,,,,,,,,,,,,,,,,,,,,,,,,,,,,,,,,,,,,0,0,0,3,1,,,,,,,,,,,,,,,,,,,,,,,,,,,,,,,,,,,,,,,,,,,,,,
892059,001,2022-11-20_23h54.55.656,Info_measure_main_exp,2022.2.2,Win32,59.80503558,,,,,,,,,,,,,,,,,,masks/mask_001.jpg,,,,,,,,,,,,,,,,,,,,,,,,,,,,,,,,,,,,,,,,,,,0,1,1,0,1,,,,,,,,,,,,,,,,,,,,,,,,,,,,,,,,,,,,,,,,,,,,,,
892059,001,2022-11-20_23h54.55.656,Info_measure_main_exp,2022.2.2,Win32,59.80503558,,,,,,,,,,,,,,,,,,masks/mask_005.jpg,,,,,,,,,,,,,,,,,,,,,,,,,,,,,,,,,,,,,,,,,,,0,2,2,4,1,,,,,,,,,,,,,,,,,,,,,,,,,,,,,,,,,,,,,,,,,,,,,,
892059,001,2022-11-20_23h54.55.656,Info_measure_main_exp,2022.2.2,Win32,59.80503558,,,,,,,,,,,,,,,,,,masks/mask_002.jpg,,,,,,,,,,,,,,,,,,,,,,,,,,,,,,,,,,,,,,,,,,,0,3,3,1,1,,,,,,,,,,,,,,,,,,,,,,,,,,,,,,,,,,,,,,,,,,,,,,
892059,001,2022-11-20_23h54.55.656,Info_measure_main_exp,2022.2.2,Win32,59.80503558,,,,,,,,,,,,,,,,,,masks/mask_003.jpg,,,,,,,,,,,,,,,,,,,,,,,,,,,,,,,,,,,,,,,,,,,0,4,4,2,1,,,,,,,,,,,,,,,,,,,,,,,,,,,,,,,,,,,,,,,,,,,,,,
892059,001,2022-11-20_23h54.55.656,Info_measure_main_exp,2022.2.2,Win32,59.80503558,,,,,,,,,,,,,,,,,,masks/mask_003.jpg,,,,,,,,,,,,,,,,,,,,,,,,,,,,,,,,,,,,,,,,,,,,,,,,0,0,0,2,1,,,,,,,,,,,,,,,,,,,,,,,,,,,,,,,,,,,,,,,,,
892059,001,2022-11-20_23h54.55.656,Info_measure_main_exp,2022.2.2,Win32,59.80503558,,,,,,,,,,,,,,,,,,masks/mask_004.jpg,,,,,,,,,,,,,,,,,,,,,,,,,,,,,,,,,,,,,,,,,,,,,,,,0,1,1,3,1,,,,,,,,,,,,,,,,,,,,,,,,,,,,,,,,,,,,,,,,,
892059,001,2022-11-20_23h54.55.656,Info_measure_main_exp,2022.2.2,Win32,59.80503558,,,,,,,,,,,,,,,,,,masks/mask_002.jpg,,,,,,,,,,,,,,,,,,,,,,,,,,,,,,,,,,,,,,,,,,,,,,,,0,2,2,1,1,,,,,,,,,,,,,,,,,,,,,,,,,,,,,,,,,,,,,,,,,
892059,001,2022-11-20_23h54.55.656,Info_measure_main_exp,2022.2.2,Win32,59.80503558,,,,,,,,,,,,,,,,,,masks/mask_001.jpg,,,,,,,,,,,,,,,,,,,,,,,,,,,,,,,,,,,,,,,,,,,,,,,,0,3,3,0,1,,,,,,,,,,,,,,,,,,,,,,,,,,,,,,,,,,,,,,,,,
892059,001,2022-11-20_23h54.55.656,Info_measure_main_exp,2022.2.2,Win32,59.80503558,,,,,,,,,,,,,,,,,,masks/mask_005.jpg,,,,,,,,,,,,,,,,,,,,,,,,,,,,,,,,,,,,,,,,,,,,,,,,0,4,4,4,1,,,,,,,,,,,,,,,,,,,,,,,,,,,,,,,,,,,,,,,,,
892059,001,2022-11-20_23h54.55.656,Info_measure_main_exp,2022.2.2,Win32,59.80503558,,,,,,,,,,,,,,,,,,,,,,,,,,,,,,5,0.9003,1,,,,,,,,,,,,0,131,5,5,2142,2238,absent_patch/patch0002142.jpg,absent_patch/patch0002238.jpg,,,,,,,,,,,,,,,,,,,,0.071296339,-0.030555548,1,0,0,response3disk,16,0.008333347,-0.00462963,1,0,0,center_square,0,15,15,101,1,,,,,,,,,,,,,,,,,,,,,,,
892059,001,2022-11-20_23h54.55.656,Info_measure_main_exp,2022.2.2,Win32,59.80503558,,,,,,,,,,,,,,,,,,masks/mask_003.jpg,,,,,,,,,,,,,,,,,,,,,,,,,,,,,,,,,,,,,,,,,,,0,0,0,2,1,,,,,,,,,,,,,,,,,,,,,,,,,,,,,,,,,,,,,,,,,,,,,,
892059,001,2022-11-20_23h54.55.656,Info_measure_main_exp,2022.2.2,Win32,59.80503558,,,,,,,,,,,,,,,,,,masks/mask_002.jpg,,,,,,,,,,,,,,,,,,,,,,,,,,,,,,,,,,,,,,,,,,,0,1,1,1,1,,,,,,,,,,,,,,,,,,,,,,,,,,,,,,,,,,,,,,,,,,,,,,
892059,001,2022-11-20_23h54.55.656,Info_measure_main_exp,2022.2.2,Win32,59.80503558,,,,,,,,,,,,,,,,,,masks/mask_001.jpg,,,,,,,,,,,,,,,,,,,,,,,,,,,,,,,,,,,,,,,,,,,0,2,2,0,1,,,,,,,,,,,,,,,,,,,,,,,,,,,,,,,,,,,,,,,,,,,,,,
892059,001,2022-11-20_23h54.55.656,Info_measure_main_exp,2022.2.2,Win32,59.80503558,,,,,,,,,,,,,,,,,,masks/mask_005.jpg,,,,,,,,,,,,,,,,,,,,,,,,,,,,,,,,,,,,,,,,,,,0,3,3,4,1,,,,,,,,,,,,,,,,,,,,,,,,,,,,,,,,,,,,,,,,,,,,,,
892059,001,2022-11-20_23h54.55.656,Info_measure_main_exp,2022.2.2,Win32,59.80503558,,,,,,,,,,,,,,,,,,masks/mask_004.jpg,,,,,,,,,,,,,,,,,,,,,,,,,,,,,,,,,,,,,,,,,,,0,4,4,3,1,,,,,,,,,,,,,,,,,,,,,,,,,,,,,,,,,,,,,,,,,,,,,,
892059,001,2022-11-20_23h54.55.656,Info_measure_main_exp,2022.2.2,Win32,59.80503558,,,,,,,,,,,,,,,,,,masks/mask_001.jpg,,,,,,,,,,,,,,,,,,,,,,,,,,,,,,,,,,,,,,,,,,,,,,,,0,0,0,0,1,,,,,,,,,,,,,,,,,,,,,,,,,,,,,,,,,,,,,,,,,
892059,001,2022-11-20_23h54.55.656,Info_measure_main_exp,2022.2.2,Win32,59.80503558,,,,,,,,,,,,,,,,,,masks/mask_005.jpg,,,,,,,,,,,,,,,,,,,,,,,,,,,,,,,,,,,,,,,,,,,,,,,,0,1,1,4,1,,,,,,,,,,,,,,,,,,,,,,,,,,,,,,,,,,,,,,,,,
892059,001,2022-11-20_23h54.55.656,Info_measure_main_exp,2022.2.2,Win32,59.80503558,,,,,,,,,,,,,,,,,,masks/mask_004.jpg,,,,,,,,,,,,,,,,,,,,,,,,,,,,,,,,,,,,,,,,,,,,,,,,0,2,2,3,1,,,,,,,,,,,,,,,,,,,,,,,,,,,,,,,,,,,,,,,,,
892059,001,2022-11-20_23h54.55.656,Info_measure_main_exp,2022.2.2,Win32,59.80503558,,,,,,,,,,,,,,,,,,masks/mask_002.jpg,,,,,,,,,,,,,,,,,,,,,,,,,,,,,,,,,,,,,,,,,,,,,,,,0,3,3,1,1,,,,,,,,,,,,,,,,,,,,,,,,,,,,,,,,,,,,,,,,,
892059,001,2022-11-20_23h54.55.656,Info_measure_main_exp,2022.2.2,Win32,59.80503558,,,,,,,,,,,,,,,,,,masks/mask_003.jpg,,,,,,,,,,,,,,,,,,,,,,,,,,,,,,,,,,,,,,,,,,,,,,,,0,4,4,2,1,,,,,,,,,,,,,,,,,,,,,,,,,,,,,,,,,,,,,,,,,
892059,001,2022-11-20_23h54.55.656,Info_measure_main_exp,2022.2.2,Win32,59.80503558,,,,,,,,,,,,,,,,,,,,,,,,,,,,,,7,2.2334,1,,,,,,,,,,,,1,131,5,5,2190,1,absent_patch/patch0002190.jpg,present_patch/cong_131_5_a.jpg,,,,,,,,,,,,,,,,,,,,0.025925954,0.135185171,1,0,0,response1disk,17,-0.002777735,0.005555541,1,0,0,center_square,0,16,16,64,1,,,,,,,,,,,,,,,,,,,,,,,
892059,001,2022-11-20_23h54.55.656,Info_measure_main_exp,2022.2.2,Win32,59.80503558,,,,,,,,,,,,,,,,,,masks/mask_003.jpg,,,,,,,,,,,,,,,,,,,,,,,,,,,,,,,,,,,,,,,,,,,0,0,0,2,1,,,,,,,,,,,,,,,,,,,,,,,,,,,,,,,,,,,,,,,,,,,,,,
892059,001,2022-11-20_23h54.55.656,Info_measure_main_exp,2022.2.2,Win32,59.80503558,,,,,,,,,,,,,,,,,,masks/mask_001.jpg,,,,,,,,,,,,,,,,,,,,,,,,,,,,,,,,,,,,,,,,,,,0,1,1,0,1,,,,,,,,,,,,,,,,,,,,,,,,,,,,,,,,,,,,,,,,,,,,,,
892059,001,2022-11-20_23h54.55.656,Info_measure_main_exp,2022.2.2,Win32,59.80503558,,,,,,,,,,,,,,,,,,masks/mask_005.jpg,,,,,,,,,,,,,,,,,,,,,,,,,,,,,,,,,,,,,,,,,,,0,2,2,4,1,,,,,,,,,,,,,,,,,,,,,,,,,,,,,,,,,,,,,,,,,,,,,,
892059,001,2022-11-20_23h54.55.656,Info_measure_main_exp,2022.2.2,Win32,59.80503558,,,,,,,,,,,,,,,,,,masks/mask_002.jpg,,,,,,,,,,,,,,,,,,,,,,,,,,,,,,,,,,,,,,,,,,,0,3,3,1,1,,,,,,,,,,,,,,,,,,,,,,,,,,,,,,,,,,,,,,,,,,,,,,
892059,001,2022-11-20_23h54.55.656,Info_measure_main_exp,2022.2.2,Win32,59.80503558,,,,,,,,,,,,,,,,,,masks/mask_004.jpg,,,,,,,,,,,,,,,,,,,,,,,,,,,,,,,,,,,,,,,,,,,0,4,4,3,1,,,,,,,,,,,,,,,,,,,,,,,,,,,,,,,,,,,,,,,,,,,,,,
892059,001,2022-11-20_23h54.55.656,Info_measure_main_exp,2022.2.2,Win32,59.80503558,,,,,,,,,,,,,,,,,,masks/mask_001.jpg,,,,,,,,,,,,,,,,,,,,,,,,,,,,,,,,,,,,,,,,,,,,,,,,0,0,0,0,1,,,,,,,,,,,,,,,,,,,,,,,,,,,,,,,,,,,,,,,,,
892059,001,2022-11-20_23h54.55.656,Info_measure_main_exp,2022.2.2,Win32,59.80503558,,,,,,,,,,,,,,,,,,masks/mask_003.jpg,,,,,,,,,,,,,,,,,,,,,,,,,,,,,,,,,,,,,,,,,,,,,,,,0,1,1,2,1,,,,,,,,,,,,,,,,,,,,,,,,,,,,,,,,,,,,,,,,,
892059,001,2022-11-20_23h54.55.656,Info_measure_main_exp,2022.2.2,Win32,59.80503558,,,,,,,,,,,,,,,,,,masks/mask_005.jpg,,,,,,,,,,,,,,,,,,,,,,,,,,,,,,,,,,,,,,,,,,,,,,,,0,2,2,4,1,,,,,,,,,,,,,,,,,,,,,,,,,,,,,,,,,,,,,,,,,
892059,001,2022-11-20_23h54.55.656,Info_measure_main_exp,2022.2.2,Win32,59.80503558,,,,,,,,,,,,,,,,,,masks/mask_002.jpg,,,,,,,,,,,,,,,,,,,,,,,,,,,,,,,,,,,,,,,,,,,,,,,,0,3,3,1,1,,,,,,,,,,,,,,,,,,,,,,,,,,,,,,,,,,,,,,,,,
892059,001,2022-11-20_23h54.55.656,Info_measure_main_exp,2022.2.2,Win32,59.80503558,,,,,,,,,,,,,,,,,,masks/mask_004.jpg,,,,,,,,,,,,,,,,,,,,,,,,,,,,,,,,,,,,,,,,,,,,,,,,0,4,4,3,1,,,,,,,,,,,,,,,,,,,,,,,,,,,,,,,,,,,,,,,,,
892059,001,2022-11-20_23h54.55.656,Info_measure_main_exp,2022.2.2,Win32,59.80503558,,,,,,,,,,,,,,,,,,,,,,,,,,,,,,7,1.9498,1,,,,,,,,,,,,0,131,5,5,2178,1986,absent_patch/patch0002178.jpg,absent_patch/patch0001986.jpg,,,,,,,,,,,,,,,,,,,,0.033333319,0.078703704,1,0,0,response1disk,18,0.002777806,-0.002777771,1,0,0,center_square,0,17,17,46,1,,,,,,,,,,,,,,,,,,,,,,,
892059,001,2022-11-20_23h54.55.656,Info_measure_main_exp,2022.2.2,Win32,59.80503558,,,,,,,,,,,,,,,,,,masks/mask_005.jpg,,,,,,,,,,,,,,,,,,,,,,,,,,,,,,,,,,,,,,,,,,,0,0,0,4,1,,,,,,,,,,,,,,,,,,,,,,,,,,,,,,,,,,,,,,,,,,,,,,
892059,001,2022-11-20_23h54.55.656,Info_measure_main_exp,2022.2.2,Win32,59.80503558,,,,,,,,,,,,,,,,,,masks/mask_003.jpg,,,,,,,,,,,,,,,,,,,,,,,,,,,,,,,,,,,,,,,,,,,0,1,1,2,1,,,,,,,,,,,,,,,,,,,,,,,,,,,,,,,,,,,,,,,,,,,,,,
892059,001,2022-11-20_23h54.55.656,Info_measure_main_exp,2022.2.2,Win32,59.80503558,,,,,,,,,,,,,,,,,,masks/mask_002.jpg,,,,,,,,,,,,,,,,,,,,,,,,,,,,,,,,,,,,,,,,,,,0,2,2,1,1,,,,,,,,,,,,,,,,,,,,,,,,,,,,,,,,,,,,,,,,,,,,,,
892059,001,2022-11-20_23h54.55.656,Info_measure_main_exp,2022.2.2,Win32,59.80503558,,,,,,,,,,,,,,,,,,masks/mask_001.jpg,,,,,,,,,,,,,,,,,,,,,,,,,,,,,,,,,,,,,,,,,,,0,3,3,0,1,,,,,,,,,,,,,,,,,,,,,,,,,,,,,,,,,,,,,,,,,,,,,,
892059,001,2022-11-20_23h54.55.656,Info_measure_main_exp,2022.2.2,Win32,59.80503558,,,,,,,,,,,,,,,,,,masks/mask_004.jpg,,,,,,,,,,,,,,,,,,,,,,,,,,,,,,,,,,,,,,,,,,,0,4,4,3,1,,,,,,,,,,,,,,,,,,,,,,,,,,,,,,,,,,,,,,,,,,,,,,
892059,001,2022-11-20_23h54.55.656,Info_measure_main_exp,2022.2.2,Win32,59.80503558,,,,,,,,,,,,,,,,,,masks/mask_003.jpg,,,,,,,,,,,,,,,,,,,,,,,,,,,,,,,,,,,,,,,,,,,,,,,,0,0,0,2,1,,,,,,,,,,,,,,,,,,,,,,,,,,,,,,,,,,,,,,,,,
892059,001,2022-11-20_23h54.55.656,Info_measure_main_exp,2022.2.2,Win32,59.80503558,,,,,,,,,,,,,,,,,,masks/mask_001.jpg,,,,,,,,,,,,,,,,,,,,,,,,,,,,,,,,,,,,,,,,,,,,,,,,0,1,1,0,1,,,,,,,,,,,,,,,,,,,,,,,,,,,,,,,,,,,,,,,,,
892059,001,2022-11-20_23h54.55.656,Info_measure_main_exp,2022.2.2,Win32,59.80503558,,,,,,,,,,,,,,,,,,masks/mask_004.jpg,,,,,,,,,,,,,,,,,,,,,,,,,,,,,,,,,,,,,,,,,,,,,,,,0,2,2,3,1,,,,,,,,,,,,,,,,,,,,,,,,,,,,,,,,,,,,,,,,,
892059,001,2022-11-20_23h54.55.656,Info_measure_main_exp,2022.2.2,Win32,59.80503558,,,,,,,,,,,,,,,,,,masks/mask_002.jpg,,,,,,,,,,,,,,,,,,,,,,,,,,,,,,,,,,,,,,,,,,,,,,,,0,3,3,1,1,,,,,,,,,,,,,,,,,,,,,,,,,,,,,,,,,,,,,,,,,
892059,001,2022-11-20_23h54.55.656,Info_measure_main_exp,2022.2.2,Win32,59.80503558,,,,,,,,,,,,,,,,,,masks/mask_005.jpg,,,,,,,,,,,,,,,,,,,,,,,,,,,,,,,,,,,,,,,,,,,,,,,,0,4,4,4,1,,,,,,,,,,,,,,,,,,,,,,,,,,,,,,,,,,,,,,,,,
892059,001,2022-11-20_23h54.55.656,Info_measure_main_exp,2022.2.2,Win32,59.80503558,,,,,,,,,,,,,,,,,,,,,,,,,,,,,,0,0.9502,1,,,,,,,,,,,,0,131,5,5,1974,1974,absent_patch/patch0001974.jpg,absent_patch/patch0001974.jpg,,,,,,,,,,,,,,,,,,,,-0.047222208,0.105555534,1,0,0,response7disk,19,0.001851894,0,1,0,0,center_square,0,18,18,113,1,,,,,,,,,,,,,,,,,,,,,,,
892059,001,2022-11-20_23h54.55.656,Info_measure_main_exp,2022.2.2,Win32,59.80503558,,,,,,,,,,,,,,,,,,masks/mask_002.jpg,,,,,,,,,,,,,,,,,,,,,,,,,,,,,,,,,,,,,,,,,,,0,0,0,1,1,,,,,,,,,,,,,,,,,,,,,,,,,,,,,,,,,,,,,,,,,,,,,,
892059,001,2022-11-20_23h54.55.656,Info_measure_main_exp,2022.2.2,Win32,59.80503558,,,,,,,,,,,,,,,,,,masks/mask_001.jpg,,,,,,,,,,,,,,,,,,,,,,,,,,,,,,,,,,,,,,,,,,,0,1,1,0,1,,,,,,,,,,,,,,,,,,,,,,,,,,,,,,,,,,,,,,,,,,,,,,
892059,001,2022-11-20_23h54.55.656,Info_measure_main_exp,2022.2.2,Win32,59.80503558,,,,,,,,,,,,,,,,,,masks/mask_005.jpg,,,,,,,,,,,,,,,,,,,,,,,,,,,,,,,,,,,,,,,,,,,0,2,2,4,1,,,,,,,,,,,,,,,,,,,,,,,,,,,,,,,,,,,,,,,,,,,,,,
892059,001,2022-11-20_23h54.55.656,Info_measure_main_exp,2022.2.2,Win32,59.80503558,,,,,,,,,,,,,,,,,,masks/mask_004.jpg,,,,,,,,,,,,,,,,,,,,,,,,,,,,,,,,,,,,,,,,,,,0,3,3,3,1,,,,,,,,,,,,,,,,,,,,,,,,,,,,,,,,,,,,,,,,,,,,,,
892059,001,2022-11-20_23h54.55.656,Info_measure_main_exp,2022.2.2,Win32,59.80503558,,,,,,,,,,,,,,,,,,masks/mask_003.jpg,,,,,,,,,,,,,,,,,,,,,,,,,,,,,,,,,,,,,,,,,,,0,4,4,2,1,,,,,,,,,,,,,,,,,,,,,,,,,,,,,,,,,,,,,,,,,,,,,,
892059,001,2022-11-20_23h54.55.656,Info_measure_main_exp,2022.2.2,Win32,59.80503558,,,,,,,,,,,,,,,,,,masks/mask_002.jpg,,,,,,,,,,,,,,,,,,,,,,,,,,,,,,,,,,,,,,,,,,,,,,,,0,0,0,1,1,,,,,,,,,,,,,,,,,,,,,,,,,,,,,,,,,,,,,,,,,
892059,001,2022-11-20_23h54.55.656,Info_measure_main_exp,2022.2.2,Win32,59.80503558,,,,,,,,,,,,,,,,,,masks/mask_005.jpg,,,,,,,,,,,,,,,,,,,,,,,,,,,,,,,,,,,,,,,,,,,,,,,,0,1,1,4,1,,,,,,,,,,,,,,,,,,,,,,,,,,,,,,,,,,,,,,,,,
892059,001,2022-11-20_23h54.55.656,Info_measure_main_exp,2022.2.2,Win32,59.80503558,,,,,,,,,,,,,,,,,,masks/mask_003.jpg,,,,,,,,,,,,,,,,,,,,,,,,,,,,,,,,,,,,,,,,,,,,,,,,0,2,2,2,1,,,,,,,,,,,,,,,,,,,,,,,,,,,,,,,,,,,,,,,,,
892059,001,2022-11-20_23h54.55.656,Info_measure_main_exp,2022.2.2,Win32,59.80503558,,,,,,,,,,,,,,,,,,masks/mask_004.jpg,,,,,,,,,,,,,,,,,,,,,,,,,,,,,,,,,,,,,,,,,,,,,,,,0,3,3,3,1,,,,,,,,,,,,,,,,,,,,,,,,,,,,,,,,,,,,,,,,,
892059,001,2022-11-20_23h54.55.656,Info_measure_main_exp,2022.2.2,Win32,59.80503558,,,,,,,,,,,,,,,,,,masks/mask_001.jpg,,,,,,,,,,,,,,,,,,,,,,,,,,,,,,,,,,,,,,,,,,,,,,,,0,4,4,0,1,,,,,,,,,,,,,,,,,,,,,,,,,,,,,,,,,,,,,,,,,
892059,001,2022-11-20_23h54.55.656,Info_measure_main_exp,2022.2.2,Win32,59.80503558,,,,,,,,,,,,,,,,,,,,,,,,,,,,,,0,0.7169,1,,,,,,,,,,,,0,131,5,5,2274,2274,absent_patch/patch0002274.jpg,absent_patch/patch0002274.jpg,,,,,,,,,,,,,,,,,,,,-0.037037037,0.106481481,1,0,0,response7disk,20,0.005555541,-0.002777771,1,0,0,center_square,0,19,19,114,1,,,,,,,,,,,,,,,,,,,,,,,
892059,001,2022-11-20_23h54.55.656,Info_measure_main_exp,2022.2.2,Win32,59.80503558,,,,,,,,,,,,,,,,,,masks/mask_001.jpg,,,,,,,,,,,,,,,,,,,,,,,,,,,,,,,,,,,,,,,,,,,0,0,0,0,1,,,,,,,,,,,,,,,,,,,,,,,,,,,,,,,,,,,,,,,,,,,,,,
892059,001,2022-11-20_23h54.55.656,Info_measure_main_exp,2022.2.2,Win32,59.80503558,,,,,,,,,,,,,,,,,,masks/mask_003.jpg,,,,,,,,,,,,,,,,,,,,,,,,,,,,,,,,,,,,,,,,,,,0,1,1,2,1,,,,,,,,,,,,,,,,,,,,,,,,,,,,,,,,,,,,,,,,,,,,,,
892059,001,2022-11-20_23h54.55.656,Info_measure_main_exp,2022.2.2,Win32,59.80503558,,,,,,,,,,,,,,,,,,masks/mask_002.jpg,,,,,,,,,,,,,,,,,,,,,,,,,,,,,,,,,,,,,,,,,,,0,2,2,1,1,,,,,,,,,,,,,,,,,,,,,,,,,,,,,,,,,,,,,,,,,,,,,,
892059,001,2022-11-20_23h54.55.656,Info_measure_main_exp,2022.2.2,Win32,59.80503558,,,,,,,,,,,,,,,,,,masks/mask_005.jpg,,,,,,,,,,,,,,,,,,,,,,,,,,,,,,,,,,,,,,,,,,,0,3,3,4,1,,,,,,,,,,,,,,,,,,,,,,,,,,,,,,,,,,,,,,,,,,,,,,
892059,001,2022-11-20_23h54.55.656,Info_measure_main_exp,2022.2.2,Win32,59.80503558,,,,,,,,,,,,,,,,,,masks/mask_004.jpg,,,,,,,,,,,,,,,,,,,,,,,,,,,,,,,,,,,,,,,,,,,0,4,4,3,1,,,,,,,,,,,,,,,,,,,,,,,,,,,,,,,,,,,,,,,,,,,,,,
892059,001,2022-11-20_23h54.55.656,Info_measure_main_exp,2022.2.2,Win32,59.80503558,,,,,,,,,,,,,,,,,,masks/mask_005.jpg,,,,,,,,,,,,,,,,,,,,,,,,,,,,,,,,,,,,,,,,,,,,,,,,0,0,0,4,1,,,,,,,,,,,,,,,,,,,,,,,,,,,,,,,,,,,,,,,,,
892059,001,2022-11-20_23h54.55.656,Info_measure_main_exp,2022.2.2,Win32,59.80503558,,,,,,,,,,,,,,,,,,masks/mask_003.jpg,,,,,,,,,,,,,,,,,,,,,,,,,,,,,,,,,,,,,,,,,,,,,,,,0,1,1,2,1,,,,,,,,,,,,,,,,,,,,,,,,,,,,,,,,,,,,,,,,,
892059,001,2022-11-20_23h54.55.656,Info_measure_main_exp,2022.2.2,Win32,59.80503558,,,,,,,,,,,,,,,,,,masks/mask_002.jpg,,,,,,,,,,,,,,,,,,,,,,,,,,,,,,,,,,,,,,,,,,,,,,,,0,2,2,1,1,,,,,,,,,,,,,,,,,,,,,,,,,,,,,,,,,,,,,,,,,
892059,001,2022-11-20_23h54.55.656,Info_measure_main_exp,2022.2.2,Win32,59.80503558,,,,,,,,,,,,,,,,,,masks/mask_001.jpg,,,,,,,,,,,,,,,,,,,,,,,,,,,,,,,,,,,,,,,,,,,,,,,,0,3,3,0,1,,,,,,,,,,,,,,,,,,,,,,,,,,,,,,,,,,,,,,,,,
892059,001,2022-11-20_23h54.55.656,Info_measure_main_exp,2022.2.2,Win32,59.80503558,,,,,,,,,,,,,,,,,,masks/mask_004.jpg,,,,,,,,,,,,,,,,,,,,,,,,,,,,,,,,,,,,,,,,,,,,,,,,0,4,4,3,1,,,,,,,,,,,,,,,,,,,,,,,,,,,,,,,,,,,,,,,,,
892059,001,2022-11-20_23h54.55.656,Info_measure_main_exp,2022.2.2,Win32,59.80503558,,,,,,,,,,,,,,,,,,,,,,,,,,,,,,5,0.7173,1,,,,,,,,,,,,1,131,5,5,2250,1,absent_patch/patch0002250.jpg,present_patch/cong_131_5_a.jpg,,,,,,,,,,,,,,,,,,,,0.05740745,-0.031481496,1,0,0,response3disk,21,-0.00462963,0.002777771,1,0,0,center_square,0,20,20,5,1,,,,,,,,,,,,,,,,,,,,,,,
892059,001,2022-11-20_23h54.55.656,Info_measure_main_exp,2022.2.2,Win32,59.80503558,,,,,,,,,,,,,,,,,,masks/mask_001.jpg,,,,,,,,,,,,,,,,,,,,,,,,,,,,,,,,,,,,,,,,,,,0,0,0,0,1,,,,,,,,,,,,,,,,,,,,,,,,,,,,,,,,,,,,,,,,,,,,,,
892059,001,2022-11-20_23h54.55.656,Info_measure_main_exp,2022.2.2,Win32,59.80503558,,,,,,,,,,,,,,,,,,masks/mask_005.jpg,,,,,,,,,,,,,,,,,,,,,,,,,,,,,,,,,,,,,,,,,,,0,1,1,4,1,,,,,,,,,,,,,,,,,,,,,,,,,,,,,,,,,,,,,,,,,,,,,,
892059,001,2022-11-20_23h54.55.656,Info_measure_main_exp,2022.2.2,Win32,59.80503558,,,,,,,,,,,,,,,,,,masks/mask_004.jpg,,,,,,,,,,,,,,,,,,,,,,,,,,,,,,,,,,,,,,,,,,,0,2,2,3,1,,,,,,,,,,,,,,,,,,,,,,,,,,,,,,,,,,,,,,,,,,,,,,
892059,001,2022-11-20_23h54.55.656,Info_measure_main_exp,2022.2.2,Win32,59.80503558,,,,,,,,,,,,,,,,,,masks/mask_002.jpg,,,,,,,,,,,,,,,,,,,,,,,,,,,,,,,,,,,,,,,,,,,0,3,3,1,1,,,,,,,,,,,,,,,,,,,,,,,,,,,,,,,,,,,,,,,,,,,,,,
892059,001,2022-11-20_23h54.55.656,Info_measure_main_exp,2022.2.2,Win32,59.80503558,,,,,,,,,,,,,,,,,,masks/mask_003.jpg,,,,,,,,,,,,,,,,,,,,,,,,,,,,,,,,,,,,,,,,,,,0,4,4,2,1,,,,,,,,,,,,,,,,,,,,,,,,,,,,,,,,,,,,,,,,,,,,,,
892059,001,2022-11-20_23h54.55.656,Info_measure_main_exp,2022.2.2,Win32,59.80503558,,,,,,,,,,,,,,,,,,masks/mask_004.jpg,,,,,,,,,,,,,,,,,,,,,,,,,,,,,,,,,,,,,,,,,,,,,,,,0,0,0,3,1,,,,,,,,,,,,,,,,,,,,,,,,,,,,,,,,,,,,,,,,,
892059,001,2022-11-20_23h54.55.656,Info_measure_main_exp,2022.2.2,Win32,59.80503558,,,,,,,,,,,,,,,,,,masks/mask_003.jpg,,,,,,,,,,,,,,,,,,,,,,,,,,,,,,,,,,,,,,,,,,,,,,,,0,1,1,2,1,,,,,,,,,,,,,,,,,,,,,,,,,,,,,,,,,,,,,,,,,
892059,001,2022-11-20_23h54.55.656,Info_measure_main_exp,2022.2.2,Win32,59.80503558,,,,,,,,,,,,,,,,,,masks/mask_002.jpg,,,,,,,,,,,,,,,,,,,,,,,,,,,,,,,,,,,,,,,,,,,,,,,,0,2,2,1,1,,,,,,,,,,,,,,,,,,,,,,,,,,,,,,,,,,,,,,,,,
892059,001,2022-11-20_23h54.55.656,Info_measure_main_exp,2022.2.2,Win32,59.80503558,,,,,,,,,,,,,,,,,,masks/mask_005.jpg,,,,,,,,,,,,,,,,,,,,,,,,,,,,,,,,,,,,,,,,,,,,,,,,0,3,3,4,1,,,,,,,,,,,,,,,,,,,,,,,,,,,,,,,,,,,,,,,,,
892059,001,2022-11-20_23h54.55.656,Info_measure_main_exp,2022.2.2,Win32,59.80503558,,,,,,,,,,,,,,,,,,masks/mask_001.jpg,,,,,,,,,,,,,,,,,,,,,,,,,,,,,,,,,,,,,,,,,,,,,,,,0,4,4,0,1,,,,,,,,,,,,,,,,,,,,,,,,,,,,,,,,,,,,,,,,,
892059,001,2022-11-20_23h54.55.656,Info_measure_main_exp,2022.2.2,Win32,59.80503558,,,,,,,,,,,,,,,,,,,,,,,,,,,,,,7,1.0502,1,,,,,,,,,,,,0,131,5,5,2154,2190,absent_patch/patch0002154.jpg,absent_patch/patch0002190.jpg,,,,,,,,,,,,,,,,,,,,0.034259302,0.126851859,1,0,0,response1disk,22,-0.012962977,-0.009259259,1,0,0,center_square,0,21,21,68,1,,,,,,,,,,,,,,,,,,,,,,,
892059,001,2022-11-20_23h54.55.656,Info_measure_main_exp,2022.2.2,Win32,59.80503558,,,,,,,,,,,,,,,,,,masks/mask_004.jpg,,,,,,,,,,,,,,,,,,,,,,,,,,,,,,,,,,,,,,,,,,,0,0,0,3,1,,,,,,,,,,,,,,,,,,,,,,,,,,,,,,,,,,,,,,,,,,,,,,
892059,001,2022-11-20_23h54.55.656,Info_measure_main_exp,2022.2.2,Win32,59.80503558,,,,,,,,,,,,,,,,,,masks/mask_005.jpg,,,,,,,,,,,,,,,,,,,,,,,,,,,,,,,,,,,,,,,,,,,0,1,1,4,1,,,,,,,,,,,,,,,,,,,,,,,,,,,,,,,,,,,,,,,,,,,,,,
892059,001,2022-11-20_23h54.55.656,Info_measure_main_exp,2022.2.2,Win32,59.80503558,,,,,,,,,,,,,,,,,,masks/mask_002.jpg,,,,,,,,,,,,,,,,,,,,,,,,,,,,,,,,,,,,,,,,,,,0,2,2,1,1,,,,,,,,,,,,,,,,,,,,,,,,,,,,,,,,,,,,,,,,,,,,,,
892059,001,2022-11-20_23h54.55.656,Info_measure_main_exp,2022.2.2,Win32,59.80503558,,,,,,,,,,,,,,,,,,masks/mask_003.jpg,,,,,,,,,,,,,,,,,,,,,,,,,,,,,,,,,,,,,,,,,,,0,3,3,2,1,,,,,,,,,,,,,,,,,,,,,,,,,,,,,,,,,,,,,,,,,,,,,,
892059,001,2022-11-20_23h54.55.656,Info_measure_main_exp,2022.2.2,Win32,59.80503558,,,,,,,,,,,,,,,,,,masks/mask_001.jpg,,,,,,,,,,,,,,,,,,,,,,,,,,,,,,,,,,,,,,,,,,,0,4,4,0,1,,,,,,,,,,,,,,,,,,,,,,,,,,,,,,,,,,,,,,,,,,,,,,
892059,001,2022-11-20_23h54.55.656,Info_measure_main_exp,2022.2.2,Win32,59.80503558,,,,,,,,,,,,,,,,,,masks/mask_003.jpg,,,,,,,,,,,,,,,,,,,,,,,,,,,,,,,,,,,,,,,,,,,,,,,,0,0,0,2,1,,,,,,,,,,,,,,,,,,,,,,,,,,,,,,,,,,,,,,,,,
892059,001,2022-11-20_23h54.55.656,Info_measure_main_exp,2022.2.2,Win32,59.80503558,,,,,,,,,,,,,,,,,,masks/mask_001.jpg,,,,,,,,,,,,,,,,,,,,,,,,,,,,,,,,,,,,,,,,,,,,,,,,0,1,1,0,1,,,,,,,,,,,,,,,,,,,,,,,,,,,,,,,,,,,,,,,,,
892059,001,2022-11-20_23h54.55.656,Info_measure_main_exp,2022.2.2,Win32,59.80503558,,,,,,,,,,,,,,,,,,masks/mask_005.jpg,,,,,,,,,,,,,,,,,,,,,,,,,,,,,,,,,,,,,,,,,,,,,,,,0,2,2,4,1,,,,,,,,,,,,,,,,,,,,,,,,,,,,,,,,,,,,,,,,,
892059,001,2022-11-20_23h54.55.656,Info_measure_main_exp,2022.2.2,Win32,59.80503558,,,,,,,,,,,,,,,,,,masks/mask_004.jpg,,,,,,,,,,,,,,,,,,,,,,,,,,,,,,,,,,,,,,,,,,,,,,,,0,3,3,3,1,,,,,,,,,,,,,,,,,,,,,,,,,,,,,,,,,,,,,,,,,
892059,001,2022-11-20_23h54.55.656,Info_measure_main_exp,2022.2.2,Win32,59.80503558,,,,,,,,,,,,,,,,,,masks/mask_002.jpg,,,,,,,,,,,,,,,,,,,,,,,,,,,,,,,,,,,,,,,,,,,,,,,,0,4,4,1,1,,,,,,,,,,,,,,,,,,,,,,,,,,,,,,,,,,,,,,,,,
892059,001,2022-11-20_23h54.55.656,Info_measure_main_exp,2022.2.2,Win32,59.80503558,,,,,,,,,,,,,,,,,,,,,,,,,,,,,,5,1.121,1,,,,,,,,,,,,0,131,5,5,2082,2238,absent_patch/patch0002082.jpg,absent_patch/patch0002238.jpg,,,,,,,,,,,,,,,,,,,,0.087037051,-0.019444466,1,0,0,response3disk,23,0.00462963,0.006481489,1,0,0,center_square,0,22,22,22,1,,,,,,,,,,,,,,,,,,,,,,,
892059,001,2022-11-20_23h54.55.656,Info_measure_main_exp,2022.2.2,Win32,59.80503558,,,,,,,,,,,,,,,,,,masks/mask_001.jpg,,,,,,,,,,,,,,,,,,,,,,,,,,,,,,,,,,,,,,,,,,,0,0,0,0,1,,,,,,,,,,,,,,,,,,,,,,,,,,,,,,,,,,,,,,,,,,,,,,
892059,001,2022-11-20_23h54.55.656,Info_measure_main_exp,2022.2.2,Win32,59.80503558,,,,,,,,,,,,,,,,,,masks/mask_002.jpg,,,,,,,,,,,,,,,,,,,,,,,,,,,,,,,,,,,,,,,,,,,0,1,1,1,1,,,,,,,,,,,,,,,,,,,,,,,,,,,,,,,,,,,,,,,,,,,,,,
892059,001,2022-11-20_23h54.55.656,Info_measure_main_exp,2022.2.2,Win32,59.80503558,,,,,,,,,,,,,,,,,,masks/mask_005.jpg,,,,,,,,,,,,,,,,,,,,,,,,,,,,,,,,,,,,,,,,,,,0,2,2,4,1,,,,,,,,,,,,,,,,,,,,,,,,,,,,,,,,,,,,,,,,,,,,,,
892059,001,2022-11-20_23h54.55.656,Info_measure_main_exp,2022.2.2,Win32,59.80503558,,,,,,,,,,,,,,,,,,masks/mask_004.jpg,,,,,,,,,,,,,,,,,,,,,,,,,,,,,,,,,,,,,,,,,,,0,3,3,3,1,,,,,,,,,,,,,,,,,,,,,,,,,,,,,,,,,,,,,,,,,,,,,,
892059,001,2022-11-20_23h54.55.656,Info_measure_main_exp,2022.2.2,Win32,59.80503558,,,,,,,,,,,,,,,,,,masks/mask_003.jpg,,,,,,,,,,,,,,,,,,,,,,,,,,,,,,,,,,,,,,,,,,,0,4,4,2,1,,,,,,,,,,,,,,,,,,,,,,,,,,,,,,,,,,,,,,,,,,,,,,
892059,001,2022-11-20_23h54.55.656,Info_measure_main_exp,2022.2.2,Win32,59.80503558,,,,,,,,,,,,,,,,,,masks/mask_004.jpg,,,,,,,,,,,,,,,,,,,,,,,,,,,,,,,,,,,,,,,,,,,,,,,,0,0,0,3,1,,,,,,,,,,,,,,,,,,,,,,,,,,,,,,,,,,,,,,,,,
892059,001,2022-11-20_23h54.55.656,Info_measure_main_exp,2022.2.2,Win32,59.80503558,,,,,,,,,,,,,,,,,,masks/mask_002.jpg,,,,,,,,,,,,,,,,,,,,,,,,,,,,,,,,,,,,,,,,,,,,,,,,0,1,1,1,1,,,,,,,,,,,,,,,,,,,,,,,,,,,,,,,,,,,,,,,,,
892059,001,2022-11-20_23h54.55.656,Info_measure_main_exp,2022.2.2,Win32,59.80503558,,,,,,,,,,,,,,,,,,masks/mask_001.jpg,,,,,,,,,,,,,,,,,,,,,,,,,,,,,,,,,,,,,,,,,,,,,,,,0,2,2,0,1,,,,,,,,,,,,,,,,,,,,,,,,,,,,,,,,,,,,,,,,,
892059,001,2022-11-20_23h54.55.656,Info_measure_main_exp,2022.2.2,Win32,59.80503558,,,,,,,,,,,,,,,,,,masks/mask_005.jpg,,,,,,,,,,,,,,,,,,,,,,,,,,,,,,,,,,,,,,,,,,,,,,,,0,3,3,4,1,,,,,,,,,,,,,,,,,,,,,,,,,,,,,,,,,,,,,,,,,
892059,001,2022-11-20_23h54.55.656,Info_measure_main_exp,2022.2.2,Win32,59.80503558,,,,,,,,,,,,,,,,,,masks/mask_003.jpg,,,,,,,,,,,,,,,,,,,,,,,,,,,,,,,,,,,,,,,,,,,,,,,,0,4,4,2,1,,,,,,,,,,,,,,,,,,,,,,,,,,,,,,,,,,,,,,,,,
892059,001,2022-11-20_23h54.55.656,Info_measure_main_exp,2022.2.2,Win32,59.80503558,,,,,,,,,,,,,,,,,,,,,,,,,,,,,,5,0.817,1,,,,,,,,,,,,0,131,5,5,2274,2178,absent_patch/patch0002274.jpg,absent_patch/patch0002178.jpg,,,,,,,,,,,,,,,,,,,,0.055555556,-0.01203703,1,0,0,response3disk,24,-0.012036995,0.006481489,1,0,0,center_square,0,23,23,117,1,,,,,,,,,,,,,,,,,,,,,,,
892059,001,2022-11-20_23h54.55.656,Info_measure_main_exp,2022.2.2,Win32,59.80503558,,,,,,,,,,,,,,,,,,masks/mask_003.jpg,,,,,,,,,,,,,,,,,,,,,,,,,,,,,,,,,,,,,,,,,,,0,0,0,2,1,,,,,,,,,,,,,,,,,,,,,,,,,,,,,,,,,,,,,,,,,,,,,,
892059,001,2022-11-20_23h54.55.656,Info_measure_main_exp,2022.2.2,Win32,59.80503558,,,,,,,,,,,,,,,,,,masks/mask_002.jpg,,,,,,,,,,,,,,,,,,,,,,,,,,,,,,,,,,,,,,,,,,,0,1,1,1,1,,,,,,,,,,,,,,,,,,,,,,,,,,,,,,,,,,,,,,,,,,,,,,
892059,001,2022-11-20_23h54.55.656,Info_measure_main_exp,2022.2.2,Win32,59.80503558,,,,,,,,,,,,,,,,,,masks/mask_001.jpg,,,,,,,,,,,,,,,,,,,,,,,,,,,,,,,,,,,,,,,,,,,0,2,2,0,1,,,,,,,,,,,,,,,,,,,,,,,,,,,,,,,,,,,,,,,,,,,,,,
892059,001,2022-11-20_23h54.55.656,Info_measure_main_exp,2022.2.2,Win32,59.80503558,,,,,,,,,,,,,,,,,,masks/mask_004.jpg,,,,,,,,,,,,,,,,,,,,,,,,,,,,,,,,,,,,,,,,,,,0,3,3,3,1,,,,,,,,,,,,,,,,,,,,,,,,,,,,,,,,,,,,,,,,,,,,,,
892059,001,2022-11-20_23h54.55.656,Info_measure_main_exp,2022.2.2,Win32,59.80503558,,,,,,,,,,,,,,,,,,masks/mask_005.jpg,,,,,,,,,,,,,,,,,,,,,,,,,,,,,,,,,,,,,,,,,,,0,4,4,4,1,,,,,,,,,,,,,,,,,,,,,,,,,,,,,,,,,,,,,,,,,,,,,,
892059,001,2022-11-20_23h54.55.656,Info_measure_main_exp,2022.2.2,Win32,59.80503558,,,,,,,,,,,,,,,,,,masks/mask_004.jpg,,,,,,,,,,,,,,,,,,,,,,,,,,,,,,,,,,,,,,,,,,,,,,,,0,0,0,3,1,,,,,,,,,,,,,,,,,,,,,,,,,,,,,,,,,,,,,,,,,
892059,001,2022-11-20_23h54.55.656,Info_measure_main_exp,2022.2.2,Win32,59.80503558,,,,,,,,,,,,,,,,,,masks/mask_003.jpg,,,,,,,,,,,,,,,,,,,,,,,,,,,,,,,,,,,,,,,,,,,,,,,,0,1,1,2,1,,,,,,,,,,,,,,,,,,,,,,,,,,,,,,,,,,,,,,,,,
892059,001,2022-11-20_23h54.55.656,Info_measure_main_exp,2022.2.2,Win32,59.80503558,,,,,,,,,,,,,,,,,,masks/mask_001.jpg,,,,,,,,,,,,,,,,,,,,,,,,,,,,,,,,,,,,,,,,,,,,,,,,0,2,2,0,1,,,,,,,,,,,,,,,,,,,,,,,,,,,,,,,,,,,,,,,,,
892059,001,2022-11-20_23h54.55.656,Info_measure_main_exp,2022.2.2,Win32,59.80503558,,,,,,,,,,,,,,,,,,masks/mask_005.jpg,,,,,,,,,,,,,,,,,,,,,,,,,,,,,,,,,,,,,,,,,,,,,,,,0,3,3,4,1,,,,,,,,,,,,,,,,,,,,,,,,,,,,,,,,,,,,,,,,,
892059,001,2022-11-20_23h54.55.656,Info_measure_main_exp,2022.2.2,Win32,59.80503558,,,,,,,,,,,,,,,,,,masks/mask_002.jpg,,,,,,,,,,,,,,,,,,,,,,,,,,,,,,,,,,,,,,,,,,,,,,,,0,4,4,1,1,,,,,,,,,,,,,,,,,,,,,,,,,,,,,,,,,,,,,,,,,
892059,001,2022-11-20_23h54.55.656,Info_measure_main_exp,2022.2.2,Win32,59.80503558,,,,,,,,,,,,,,,,,,,,,,,,,,,,,,0,0.7841,1,,,,,,,,,,,,0,131,5,5,2250,2250,absent_patch/patch0002250.jpg,absent_patch/patch0002250.jpg,,,,,,,,,,,,,,,,,,,,-0.027777778,0.096296275,1,0,0,response7disk,25,-0.00462963,0.005555541,1,0,0,center_square,0,24,24,56,1,,,,,,,,,,,,,,,,,,,,,,,
892059,001,2022-11-20_23h54.55.656,Info_measure_main_exp,2022.2.2,Win32,59.80503558,,,,,,,,,,,,,,,,,,masks/mask_004.jpg,,,,,,,,,,,,,,,,,,,,,,,,,,,,,,,,,,,,,,,,,,,0,0,0,3,1,,,,,,,,,,,,,,,,,,,,,,,,,,,,,,,,,,,,,,,,,,,,,,
892059,001,2022-11-20_23h54.55.656,Info_measure_main_exp,2022.2.2,Win32,59.80503558,,,,,,,,,,,,,,,,,,masks/mask_002.jpg,,,,,,,,,,,,,,,,,,,,,,,,,,,,,,,,,,,,,,,,,,,0,1,1,1,1,,,,,,,,,,,,,,,,,,,,,,,,,,,,,,,,,,,,,,,,,,,,,,
892059,001,2022-11-20_23h54.55.656,Info_measure_main_exp,2022.2.2,Win32,59.80503558,,,,,,,,,,,,,,,,,,masks/mask_005.jpg,,,,,,,,,,,,,,,,,,,,,,,,,,,,,,,,,,,,,,,,,,,0,2,2,4,1,,,,,,,,,,,,,,,,,,,,,,,,,,,,,,,,,,,,,,,,,,,,,,
892059,001,2022-11-20_23h54.55.656,Info_measure_main_exp,2022.2.2,Win32,59.80503558,,,,,,,,,,,,,,,,,,masks/mask_003.jpg,,,,,,,,,,,,,,,,,,,,,,,,,,,,,,,,,,,,,,,,,,,0,3,3,2,1,,,,,,,,,,,,,,,,,,,,,,,,,,,,,,,,,,,,,,,,,,,,,,
892059,001,2022-11-20_23h54.55.656,Info_measure_main_exp,2022.2.2,Win32,59.80503558,,,,,,,,,,,,,,,,,,masks/mask_001.jpg,,,,,,,,,,,,,,,,,,,,,,,,,,,,,,,,,,,,,,,,,,,0,4,4,0,1,,,,,,,,,,,,,,,,,,,,,,,,,,,,,,,,,,,,,,,,,,,,,,
892059,001,2022-11-20_23h54.55.656,Info_measure_main_exp,2022.2.2,Win32,59.80503558,,,,,,,,,,,,,,,,,,masks/mask_003.jpg,,,,,,,,,,,,,,,,,,,,,,,,,,,,,,,,,,,,,,,,,,,,,,,,0,0,0,2,1,,,,,,,,,,,,,,,,,,,,,,,,,,,,,,,,,,,,,,,,,
892059,001,2022-11-20_23h54.55.656,Info_measure_main_exp,2022.2.2,Win32,59.80503558,,,,,,,,,,,,,,,,,,masks/mask_005.jpg,,,,,,,,,,,,,,,,,,,,,,,,,,,,,,,,,,,,,,,,,,,,,,,,0,1,1,4,1,,,,,,,,,,,,,,,,,,,,,,,,,,,,,,,,,,,,,,,,,
892059,001,2022-11-20_23h54.55.656,Info_measure_main_exp,2022.2.2,Win32,59.80503558,,,,,,,,,,,,,,,,,,masks/mask_004.jpg,,,,,,,,,,,,,,,,,,,,,,,,,,,,,,,,,,,,,,,,,,,,,,,,0,2,2,3,1,,,,,,,,,,,,,,,,,,,,,,,,,,,,,,,,,,,,,,,,,
892059,001,2022-11-20_23h54.55.656,Info_measure_main_exp,2022.2.2,Win32,59.80503558,,,,,,,,,,,,,,,,,,masks/mask_002.jpg,,,,,,,,,,,,,,,,,,,,,,,,,,,,,,,,,,,,,,,,,,,,,,,,0,3,3,1,1,,,,,,,,,,,,,,,,,,,,,,,,,,,,,,,,,,,,,,,,,
892059,001,2022-11-20_23h54.55.656,Info_measure_main_exp,2022.2.2,Win32,59.80503558,,,,,,,,,,,,,,,,,,masks/mask_001.jpg,,,,,,,,,,,,,,,,,,,,,,,,,,,,,,,,,,,,,,,,,,,,,,,,0,4,4,0,1,,,,,,,,,,,,,,,,,,,,,,,,,,,,,,,,,,,,,,,,,
892059,001,2022-11-20_23h54.55.656,Info_measure_main_exp,2022.2.2,Win32,59.80503558,,,,,,,,,,,,,,,,,,,,,,,,,,,,,,6,2.2326,1,,,,,,,,,,,,0,131,5,5,2082,1974,absent_patch/patch0002082.jpg,absent_patch/patch0001974.jpg,,,,,,,,,,,,,,,,,,,,0.054629644,0.003703683,1,0,0,response1disk,26,-0.005555541,0.002777771,1,0,0,center_square,0,25,25,26,1,,,,,,,,,,,,,,,,,,,,,,,
892059,001,2022-11-20_23h54.55.656,Info_measure_main_exp,2022.2.2,Win32,59.80503558,,,,,,,,,,,,,,,,,,masks/mask_001.jpg,,,,,,,,,,,,,,,,,,,,,,,,,,,,,,,,,,,,,,,,,,,0,0,0,0,1,,,,,,,,,,,,,,,,,,,,,,,,,,,,,,,,,,,,,,,,,,,,,,
892059,001,2022-11-20_23h54.55.656,Info_measure_main_exp,2022.2.2,Win32,59.80503558,,,,,,,,,,,,,,,,,,masks/mask_005.jpg,,,,,,,,,,,,,,,,,,,,,,,,,,,,,,,,,,,,,,,,,,,0,1,1,4,1,,,,,,,,,,,,,,,,,,,,,,,,,,,,,,,,,,,,,,,,,,,,,,
892059,001,2022-11-20_23h54.55.656,Info_measure_main_exp,2022.2.2,Win32,59.80503558,,,,,,,,,,,,,,,,,,masks/mask_004.jpg,,,,,,,,,,,,,,,,,,,,,,,,,,,,,,,,,,,,,,,,,,,0,2,2,3,1,,,,,,,,,,,,,,,,,,,,,,,,,,,,,,,,,,,,,,,,,,,,,,
892059,001,2022-11-20_23h54.55.656,Info_measure_main_exp,2022.2.2,Win32,59.80503558,,,,,,,,,,,,,,,,,,masks/mask_002.jpg,,,,,,,,,,,,,,,,,,,,,,,,,,,,,,,,,,,,,,,,,,,0,3,3,1,1,,,,,,,,,,,,,,,,,,,,,,,,,,,,,,,,,,,,,,,,,,,,,,
892059,001,2022-11-20_23h54.55.656,Info_measure_main_exp,2022.2.2,Win32,59.80503558,,,,,,,,,,,,,,,,,,masks/mask_003.jpg,,,,,,,,,,,,,,,,,,,,,,,,,,,,,,,,,,,,,,,,,,,0,4,4,2,1,,,,,,,,,,,,,,,,,,,,,,,,,,,,,,,,,,,,,,,,,,,,,,
892059,001,2022-11-20_23h54.55.656,Info_measure_main_exp,2022.2.2,Win32,59.80503558,,,,,,,,,,,,,,,,,,masks/mask_004.jpg,,,,,,,,,,,,,,,,,,,,,,,,,,,,,,,,,,,,,,,,,,,,,,,,0,0,0,3,1,,,,,,,,,,,,,,,,,,,,,,,,,,,,,,,,,,,,,,,,,
892059,001,2022-11-20_23h54.55.656,Info_measure_main_exp,2022.2.2,Win32,59.80503558,,,,,,,,,,,,,,,,,,masks/mask_001.jpg,,,,,,,,,,,,,,,,,,,,,,,,,,,,,,,,,,,,,,,,,,,,,,,,0,1,1,0,1,,,,,,,,,,,,,,,,,,,,,,,,,,,,,,,,,,,,,,,,,
892059,001,2022-11-20_23h54.55.656,Info_measure_main_exp,2022.2.2,Win32,59.80503558,,,,,,,,,,,,,,,,,,masks/mask_003.jpg,,,,,,,,,,,,,,,,,,,,,,,,,,,,,,,,,,,,,,,,,,,,,,,,0,2,2,2,1,,,,,,,,,,,,,,,,,,,,,,,,,,,,,,,,,,,,,,,,,
892059,001,2022-11-20_23h54.55.656,Info_measure_main_exp,2022.2.2,Win32,59.80503558,,,,,,,,,,,,,,,,,,masks/mask_002.jpg,,,,,,,,,,,,,,,,,,,,,,,,,,,,,,,,,,,,,,,,,,,,,,,,0,3,3,1,1,,,,,,,,,,,,,,,,,,,,,,,,,,,,,,,,,,,,,,,,,
892059,001,2022-11-20_23h54.55.656,Info_measure_main_exp,2022.2.2,Win32,59.80503558,,,,,,,,,,,,,,,,,,masks/mask_005.jpg,,,,,,,,,,,,,,,,,,,,,,,,,,,,,,,,,,,,,,,,,,,,,,,,0,4,4,4,1,,,,,,,,,,,,,,,,,,,,,,,,,,,,,,,,,,,,,,,,,
892059,001,2022-11-20_23h54.55.656,Info_measure_main_exp,2022.2.2,Win32,59.80503558,,,,,,,,,,,,,,,,,,,,,,,,,,,,,,5,1.5499,1,,,,,,,,,,,,1,131,5,5,2238,1,absent_patch/patch0002238.jpg,present_patch/cong_131_5_a.jpg,,,,,,,,,,,,,,,,,,,,0.062962991,-0.0074074,1,0,0,response3disk,27,0.012962977,0.006481489,1,0,0,center_square,0,26,26,104,1,,,,,,,,,,,,,,,,,,,,,,,
892059,001,2022-11-20_23h54.55.656,Info_measure_main_exp,2022.2.2,Win32,59.80503558,,,,,,,,,,,,,,,,,,masks/mask_005.jpg,,,,,,,,,,,,,,,,,,,,,,,,,,,,,,,,,,,,,,,,,,,0,0,0,4,1,,,,,,,,,,,,,,,,,,,,,,,,,,,,,,,,,,,,,,,,,,,,,,
892059,001,2022-11-20_23h54.55.656,Info_measure_main_exp,2022.2.2,Win32,59.80503558,,,,,,,,,,,,,,,,,,masks/mask_001.jpg,,,,,,,,,,,,,,,,,,,,,,,,,,,,,,,,,,,,,,,,,,,0,1,1,0,1,,,,,,,,,,,,,,,,,,,,,,,,,,,,,,,,,,,,,,,,,,,,,,
892059,001,2022-11-20_23h54.55.656,Info_measure_main_exp,2022.2.2,Win32,59.80503558,,,,,,,,,,,,,,,,,,masks/mask_002.jpg,,,,,,,,,,,,,,,,,,,,,,,,,,,,,,,,,,,,,,,,,,,0,2,2,1,1,,,,,,,,,,,,,,,,,,,,,,,,,,,,,,,,,,,,,,,,,,,,,,
892059,001,2022-11-20_23h54.55.656,Info_measure_main_exp,2022.2.2,Win32,59.80503558,,,,,,,,,,,,,,,,,,masks/mask_003.jpg,,,,,,,,,,,,,,,,,,,,,,,,,,,,,,,,,,,,,,,,,,,0,3,3,2,1,,,,,,,,,,,,,,,,,,,,,,,,,,,,,,,,,,,,,,,,,,,,,,
892059,001,2022-11-20_23h54.55.656,Info_measure_main_exp,2022.2.2,Win32,59.80503558,,,,,,,,,,,,,,,,,,masks/mask_004.jpg,,,,,,,,,,,,,,,,,,,,,,,,,,,,,,,,,,,,,,,,,,,0,4,4,3,1,,,,,,,,,,,,,,,,,,,,,,,,,,,,,,,,,,,,,,,,,,,,,,
892059,001,2022-11-20_23h54.55.656,Info_measure_main_exp,2022.2.2,Win32,59.80503558,,,,,,,,,,,,,,,,,,masks/mask_005.jpg,,,,,,,,,,,,,,,,,,,,,,,,,,,,,,,,,,,,,,,,,,,,,,,,0,0,0,4,1,,,,,,,,,,,,,,,,,,,,,,,,,,,,,,,,,,,,,,,,,
892059,001,2022-11-20_23h54.55.656,Info_measure_main_exp,2022.2.2,Win32,59.80503558,,,,,,,,,,,,,,,,,,masks/mask_001.jpg,,,,,,,,,,,,,,,,,,,,,,,,,,,,,,,,,,,,,,,,,,,,,,,,0,1,1,0,1,,,,,,,,,,,,,,,,,,,,,,,,,,,,,,,,,,,,,,,,,
892059,001,2022-11-20_23h54.55.656,Info_measure_main_exp,2022.2.2,Win32,59.80503558,,,,,,,,,,,,,,,,,,masks/mask_003.jpg,,,,,,,,,,,,,,,,,,,,,,,,,,,,,,,,,,,,,,,,,,,,,,,,0,2,2,2,1,,,,,,,,,,,,,,,,,,,,,,,,,,,,,,,,,,,,,,,,,
892059,001,2022-11-20_23h54.55.656,Info_measure_main_exp,2022.2.2,Win32,59.80503558,,,,,,,,,,,,,,,,,,masks/mask_002.jpg,,,,,,,,,,,,,,,,,,,,,,,,,,,,,,,,,,,,,,,,,,,,,,,,0,3,3,1,1,,,,,,,,,,,,,,,,,,,,,,,,,,,,,,,,,,,,,,,,,
892059,001,2022-11-20_23h54.55.656,Info_measure_main_exp,2022.2.2,Win32,59.80503558,,,,,,,,,,,,,,,,,,masks/mask_004.jpg,,,,,,,,,,,,,,,,,,,,,,,,,,,,,,,,,,,,,,,,,,,,,,,,0,4,4,3,1,,,,,,,,,,,,,,,,,,,,,,,,,,,,,,,,,,,,,,,,,
892059,001,2022-11-20_23h54.55.656,Info_measure_main_exp,2022.2.2,Win32,59.80503558,,,,,,,,,,,,,,,,,,,,,,,,,,,,,,5,1.7328,1,,,,,,,,,,,,0,131,5,5,2274,2082,absent_patch/patch0002274.jpg,absent_patch/patch0002082.jpg,,,,,,,,,,,,,,,,,,,,0.084259245,-0.00462963,1,0,0,response3disk,28,0.001851894,0.002777771,1,0,0,center_square,0,27,27,100,1,,,,,,,,,,,,,,,,,,,,,,,
892059,001,2022-11-20_23h54.55.656,Info_measure_main_exp,2022.2.2,Win32,59.80503558,,,,,,,,,,,,,,,,,,masks/mask_001.jpg,,,,,,,,,,,,,,,,,,,,,,,,,,,,,,,,,,,,,,,,,,,0,0,0,0,1,,,,,,,,,,,,,,,,,,,,,,,,,,,,,,,,,,,,,,,,,,,,,,
892059,001,2022-11-20_23h54.55.656,Info_measure_main_exp,2022.2.2,Win32,59.80503558,,,,,,,,,,,,,,,,,,masks/mask_004.jpg,,,,,,,,,,,,,,,,,,,,,,,,,,,,,,,,,,,,,,,,,,,0,1,1,3,1,,,,,,,,,,,,,,,,,,,,,,,,,,,,,,,,,,,,,,,,,,,,,,
892059,001,2022-11-20_23h54.55.656,Info_measure_main_exp,2022.2.2,Win32,59.80503558,,,,,,,,,,,,,,,,,,masks/mask_005.jpg,,,,,,,,,,,,,,,,,,,,,,,,,,,,,,,,,,,,,,,,,,,0,2,2,4,1,,,,,,,,,,,,,,,,,,,,,,,,,,,,,,,,,,,,,,,,,,,,,,
892059,001,2022-11-20_23h54.55.656,Info_measure_main_exp,2022.2.2,Win32,59.80503558,,,,,,,,,,,,,,,,,,masks/mask_003.jpg,,,,,,,,,,,,,,,,,,,,,,,,,,,,,,,,,,,,,,,,,,,0,3,3,2,1,,,,,,,,,,,,,,,,,,,,,,,,,,,,,,,,,,,,,,,,,,,,,,
892059,001,2022-11-20_23h54.55.656,Info_measure_main_exp,2022.2.2,Win32,59.80503558,,,,,,,,,,,,,,,,,,masks/mask_002.jpg,,,,,,,,,,,,,,,,,,,,,,,,,,,,,,,,,,,,,,,,,,,0,4,4,1,1,,,,,,,,,,,,,,,,,,,,,,,,,,,,,,,,,,,,,,,,,,,,,,
892059,001,2022-11-20_23h54.55.656,Info_measure_main_exp,2022.2.2,Win32,59.80503558,,,,,,,,,,,,,,,,,,masks/mask_004.jpg,,,,,,,,,,,,,,,,,,,,,,,,,,,,,,,,,,,,,,,,,,,,,,,,0,0,0,3,1,,,,,,,,,,,,,,,,,,,,,,,,,,,,,,,,,,,,,,,,,
892059,001,2022-11-20_23h54.55.656,Info_measure_main_exp,2022.2.2,Win32,59.80503558,,,,,,,,,,,,,,,,,,masks/mask_005.jpg,,,,,,,,,,,,,,,,,,,,,,,,,,,,,,,,,,,,,,,,,,,,,,,,0,1,1,4,1,,,,,,,,,,,,,,,,,,,,,,,,,,,,,,,,,,,,,,,,,
892059,001,2022-11-20_23h54.55.656,Info_measure_main_exp,2022.2.2,Win32,59.80503558,,,,,,,,,,,,,,,,,,masks/mask_003.jpg,,,,,,,,,,,,,,,,,,,,,,,,,,,,,,,,,,,,,,,,,,,,,,,,0,2,2,2,1,,,,,,,,,,,,,,,,,,,,,,,,,,,,,,,,,,,,,,,,,
892059,001,2022-11-20_23h54.55.656,Info_measure_main_exp,2022.2.2,Win32,59.80503558,,,,,,,,,,,,,,,,,,masks/mask_002.jpg,,,,,,,,,,,,,,,,,,,,,,,,,,,,,,,,,,,,,,,,,,,,,,,,0,3,3,1,1,,,,,,,,,,,,,,,,,,,,,,,,,,,,,,,,,,,,,,,,,
892059,001,2022-11-20_23h54.55.656,Info_measure_main_exp,2022.2.2,Win32,59.80503558,,,,,,,,,,,,,,,,,,masks/mask_001.jpg,,,,,,,,,,,,,,,,,,,,,,,,,,,,,,,,,,,,,,,,,,,,,,,,0,4,4,0,1,,,,,,,,,,,,,,,,,,,,,,,,,,,,,,,,,,,,,,,,,
892059,001,2022-11-20_23h54.55.656,Info_measure_main_exp,2022.2.2,Win32,59.80503558,,,,,,,,,,,,,,,,,,,,,,,,,,,,,,6,0.7497,1,,,,,,,,,,,,0,131,5,5,2250,1950,absent_patch/patch0002250.jpg,absent_patch/patch0001950.jpg,,,,,,,,,,,,,,,,,,,,0.082407422,0.00462963,1,0,0,response1disk,29,0.011111153,0.010185171,1,0,0,center_square,0,28,28,16,1,,,,,,,,,,,,,,,,,,,,,,,
892059,001,2022-11-20_23h54.55.656,Info_measure_main_exp,2022.2.2,Win32,59.80503558,,,,,,,,,,,,,,,,,,masks/mask_001.jpg,,,,,,,,,,,,,,,,,,,,,,,,,,,,,,,,,,,,,,,,,,,0,0,0,0,1,,,,,,,,,,,,,,,,,,,,,,,,,,,,,,,,,,,,,,,,,,,,,,
892059,001,2022-11-20_23h54.55.656,Info_measure_main_exp,2022.2.2,Win32,59.80503558,,,,,,,,,,,,,,,,,,masks/mask_003.jpg,,,,,,,,,,,,,,,,,,,,,,,,,,,,,,,,,,,,,,,,,,,0,1,1,2,1,,,,,,,,,,,,,,,,,,,,,,,,,,,,,,,,,,,,,,,,,,,,,,
892059,001,2022-11-20_23h54.55.656,Info_measure_main_exp,2022.2.2,Win32,59.80503558,,,,,,,,,,,,,,,,,,masks/mask_005.jpg,,,,,,,,,,,,,,,,,,,,,,,,,,,,,,,,,,,,,,,,,,,0,2,2,4,1,,,,,,,,,,,,,,,,,,,,,,,,,,,,,,,,,,,,,,,,,,,,,,
892059,001,2022-11-20_23h54.55.656,Info_measure_main_exp,2022.2.2,Win32,59.80503558,,,,,,,,,,,,,,,,,,masks/mask_002.jpg,,,,,,,,,,,,,,,,,,,,,,,,,,,,,,,,,,,,,,,,,,,0,3,3,1,1,,,,,,,,,,,,,,,,,,,,,,,,,,,,,,,,,,,,,,,,,,,,,,
892059,001,2022-11-20_23h54.55.656,Info_measure_main_exp,2022.2.2,Win32,59.80503558,,,,,,,,,,,,,,,,,,masks/mask_004.jpg,,,,,,,,,,,,,,,,,,,,,,,,,,,,,,,,,,,,,,,,,,,0,4,4,3,1,,,,,,,,,,,,,,,,,,,,,,,,,,,,,,,,,,,,,,,,,,,,,,
892059,001,2022-11-20_23h54.55.656,Info_measure_main_exp,2022.2.2,Win32,59.80503558,,,,,,,,,,,,,,,,,,masks/mask_002.jpg,,,,,,,,,,,,,,,,,,,,,,,,,,,,,,,,,,,,,,,,,,,,,,,,0,0,0,1,1,,,,,,,,,,,,,,,,,,,,,,,,,,,,,,,,,,,,,,,,,
892059,001,2022-11-20_23h54.55.656,Info_measure_main_exp,2022.2.2,Win32,59.80503558,,,,,,,,,,,,,,,,,,masks/mask_004.jpg,,,,,,,,,,,,,,,,,,,,,,,,,,,,,,,,,,,,,,,,,,,,,,,,0,1,1,3,1,,,,,,,,,,,,,,,,,,,,,,,,,,,,,,,,,,,,,,,,,
892059,001,2022-11-20_23h54.55.656,Info_measure_main_exp,2022.2.2,Win32,59.80503558,,,,,,,,,,,,,,,,,,masks/mask_001.jpg,,,,,,,,,,,,,,,,,,,,,,,,,,,,,,,,,,,,,,,,,,,,,,,,0,2,2,0,1,,,,,,,,,,,,,,,,,,,,,,,,,,,,,,,,,,,,,,,,,
892059,001,2022-11-20_23h54.55.656,Info_measure_main_exp,2022.2.2,Win32,59.80503558,,,,,,,,,,,,,,,,,,masks/mask_005.jpg,,,,,,,,,,,,,,,,,,,,,,,,,,,,,,,,,,,,,,,,,,,,,,,,0,3,3,4,1,,,,,,,,,,,,,,,,,,,,,,,,,,,,,,,,,,,,,,,,,
892059,001,2022-11-20_23h54.55.656,Info_measure_main_exp,2022.2.2,Win32,59.80503558,,,,,,,,,,,,,,,,,,masks/mask_003.jpg,,,,,,,,,,,,,,,,,,,,,,,,,,,,,,,,,,,,,,,,,,,,,,,,0,4,4,2,1,,,,,,,,,,,,,,,,,,,,,,,,,,,,,,,,,,,,,,,,,
892059,001,2022-11-20_23h54.55.656,Info_measure_main_exp,2022.2.2,Win32,59.80503558,,,,,,,,,,,,,,,,,,,,,,,,,,,,,,6,0.4835,1,,,,,,,,,,,,0,131,5,5,2214,2082,absent_patch/patch0002214.jpg,absent_patch/patch0002082.jpg,,,,,,,,,,,,,,,,,,,,0.066666709,0.011111118,1,0,0,response1disk,30,0.006481524,0.008333312,1,0,0,center_square,0,29,29,103,1,,,,,,,,,,,,,,,,,,,,,,,
892059,001,2022-11-20_23h54.55.656,Info_measure_main_exp,2022.2.2,Win32,59.80503558,,,,,,,,,,,,,,,,,,masks/mask_002.jpg,,,,,,,,,,,,,,,,,,,,,,,,,,,,,,,,,,,,,,,,,,,0,0,0,1,1,,,,,,,,,,,,,,,,,,,,,,,,,,,,,,,,,,,,,,,,,,,,,,
892059,001,2022-11-20_23h54.55.656,Info_measure_main_exp,2022.2.2,Win32,59.80503558,,,,,,,,,,,,,,,,,,masks/mask_003.jpg,,,,,,,,,,,,,,,,,,,,,,,,,,,,,,,,,,,,,,,,,,,0,1,1,2,1,,,,,,,,,,,,,,,,,,,,,,,,,,,,,,,,,,,,,,,,,,,,,,
892059,001,2022-11-20_23h54.55.656,Info_measure_main_exp,2022.2.2,Win32,59.80503558,,,,,,,,,,,,,,,,,,masks/mask_001.jpg,,,,,,,,,,,,,,,,,,,,,,,,,,,,,,,,,,,,,,,,,,,0,2,2,0,1,,,,,,,,,,,,,,,,,,,,,,,,,,,,,,,,,,,,,,,,,,,,,,
892059,001,2022-11-20_23h54.55.656,Info_measure_main_exp,2022.2.2,Win32,59.80503558,,,,,,,,,,,,,,,,,,masks/mask_005.jpg,,,,,,,,,,,,,,,,,,,,,,,,,,,,,,,,,,,,,,,,,,,0,3,3,4,1,,,,,,,,,,,,,,,,,,,,,,,,,,,,,,,,,,,,,,,,,,,,,,
892059,001,2022-11-20_23h54.55.656,Info_measure_main_exp,2022.2.2,Win32,59.80503558,,,,,,,,,,,,,,,,,,masks/mask_004.jpg,,,,,,,,,,,,,,,,,,,,,,,,,,,,,,,,,,,,,,,,,,,0,4,4,3,1,,,,,,,,,,,,,,,,,,,,,,,,,,,,,,,,,,,,,,,,,,,,,,
892059,001,2022-11-20_23h54.55.656,Info_measure_main_exp,2022.2.2,Win32,59.80503558,,,,,,,,,,,,,,,,,,masks/mask_002.jpg,,,,,,,,,,,,,,,,,,,,,,,,,,,,,,,,,,,,,,,,,,,,,,,,0,0,0,1,1,,,,,,,,,,,,,,,,,,,,,,,,,,,,,,,,,,,,,,,,,
892059,001,2022-11-20_23h54.55.656,Info_measure_main_exp,2022.2.2,Win32,59.80503558,,,,,,,,,,,,,,,,,,masks/mask_004.jpg,,,,,,,,,,,,,,,,,,,,,,,,,,,,,,,,,,,,,,,,,,,,,,,,0,1,1,3,1,,,,,,,,,,,,,,,,,,,,,,,,,,,,,,,,,,,,,,,,,
892059,001,2022-11-20_23h54.55.656,Info_measure_main_exp,2022.2.2,Win32,59.80503558,,,,,,,,,,,,,,,,,,masks/mask_003.jpg,,,,,,,,,,,,,,,,,,,,,,,,,,,,,,,,,,,,,,,,,,,,,,,,0,2,2,2,1,,,,,,,,,,,,,,,,,,,,,,,,,,,,,,,,,,,,,,,,,
892059,001,2022-11-20_23h54.55.656,Info_measure_main_exp,2022.2.2,Win32,59.80503558,,,,,,,,,,,,,,,,,,masks/mask_005.jpg,,,,,,,,,,,,,,,,,,,,,,,,,,,,,,,,,,,,,,,,,,,,,,,,0,3,3,4,1,,,,,,,,,,,,,,,,,,,,,,,,,,,,,,,,,,,,,,,,,
892059,001,2022-11-20_23h54.55.656,Info_measure_main_exp,2022.2.2,Win32,59.80503558,,,,,,,,,,,,,,,,,,masks/mask_001.jpg,,,,,,,,,,,,,,,,,,,,,,,,,,,,,,,,,,,,,,,,,,,,,,,,0,4,4,0,1,,,,,,,,,,,,,,,,,,,,,,,,,,,,,,,,,,,,,,,,,
892059,001,2022-11-20_23h54.55.656,Info_measure_main_exp,2022.2.2,Win32,59.80503558,,,,,,,,,,,,,,,,,,,,,,,,,,,,,,0,0.5839,1,,,,,,,,,,,,0,131,5,5,2166,2166,absent_patch/patch0002166.jpg,absent_patch/patch0002166.jpg,,,,,,,,,,,,,,,,,,,,-0.04814812,0.11296297,1,0,0,response7disk,31,0.007407436,-0.014814836,1,0,0,center_square,0,30,30,42,1,,,,,,,,,,,,,,,,,,,,,,,
892059,001,2022-11-20_23h54.55.656,Info_measure_main_exp,2022.2.2,Win32,59.80503558,,,,,,,,,,,,,,,,,,masks/mask_003.jpg,,,,,,,,,,,,,,,,,,,,,,,,,,,,,,,,,,,,,,,,,,,0,0,0,2,1,,,,,,,,,,,,,,,,,,,,,,,,,,,,,,,,,,,,,,,,,,,,,,
892059,001,2022-11-20_23h54.55.656,Info_measure_main_exp,2022.2.2,Win32,59.80503558,,,,,,,,,,,,,,,,,,masks/mask_005.jpg,,,,,,,,,,,,,,,,,,,,,,,,,,,,,,,,,,,,,,,,,,,0,1,1,4,1,,,,,,,,,,,,,,,,,,,,,,,,,,,,,,,,,,,,,,,,,,,,,,
892059,001,2022-11-20_23h54.55.656,Info_measure_main_exp,2022.2.2,Win32,59.80503558,,,,,,,,,,,,,,,,,,masks/mask_002.jpg,,,,,,,,,,,,,,,,,,,,,,,,,,,,,,,,,,,,,,,,,,,0,2,2,1,1,,,,,,,,,,,,,,,,,,,,,,,,,,,,,,,,,,,,,,,,,,,,,,
892059,001,2022-11-20_23h54.55.656,Info_measure_main_exp,2022.2.2,Win32,59.80503558,,,,,,,,,,,,,,,,,,masks/mask_001.jpg,,,,,,,,,,,,,,,,,,,,,,,,,,,,,,,,,,,,,,,,,,,0,3,3,0,1,,,,,,,,,,,,,,,,,,,,,,,,,,,,,,,,,,,,,,,,,,,,,,
892059,001,2022-11-20_23h54.55.656,Info_measure_main_exp,2022.2.2,Win32,59.80503558,,,,,,,,,,,,,,,,,,masks/mask_004.jpg,,,,,,,,,,,,,,,,,,,,,,,,,,,,,,,,,,,,,,,,,,,0,4,4,3,1,,,,,,,,,,,,,,,,,,,,,,,,,,,,,,,,,,,,,,,,,,,,,,
892059,001,2022-11-20_23h54.55.656,Info_measure_main_exp,2022.2.2,Win32,59.80503558,,,,,,,,,,,,,,,,,,masks/mask_004.jpg,,,,,,,,,,,,,,,,,,,,,,,,,,,,,,,,,,,,,,,,,,,,,,,,0,0,0,3,1,,,,,,,,,,,,,,,,,,,,,,,,,,,,,,,,,,,,,,,,,
892059,001,2022-11-20_23h54.55.656,Info_measure_main_exp,2022.2.2,Win32,59.80503558,,,,,,,,,,,,,,,,,,masks/mask_001.jpg,,,,,,,,,,,,,,,,,,,,,,,,,,,,,,,,,,,,,,,,,,,,,,,,0,1,1,0,1,,,,,,,,,,,,,,,,,,,,,,,,,,,,,,,,,,,,,,,,,
892059,001,2022-11-20_23h54.55.656,Info_measure_main_exp,2022.2.2,Win32,59.80503558,,,,,,,,,,,,,,,,,,masks/mask_002.jpg,,,,,,,,,,,,,,,,,,,,,,,,,,,,,,,,,,,,,,,,,,,,,,,,0,2,2,1,1,,,,,,,,,,,,,,,,,,,,,,,,,,,,,,,,,,,,,,,,,
892059,001,2022-11-20_23h54.55.656,Info_measure_main_exp,2022.2.2,Win32,59.80503558,,,,,,,,,,,,,,,,,,masks/mask_003.jpg,,,,,,,,,,,,,,,,,,,,,,,,,,,,,,,,,,,,,,,,,,,,,,,,0,3,3,2,1,,,,,,,,,,,,,,,,,,,,,,,,,,,,,,,,,,,,,,,,,
892059,001,2022-11-20_23h54.55.656,Info_measure_main_exp,2022.2.2,Win32,59.80503558,,,,,,,,,,,,,,,,,,masks/mask_005.jpg,,,,,,,,,,,,,,,,,,,,,,,,,,,,,,,,,,,,,,,,,,,,,,,,0,4,4,4,1,,,,,,,,,,,,,,,,,,,,,,,,,,,,,,,,,,,,,,,,,
892059,001,2022-11-20_23h54.55.656,Info_measure_main_exp,2022.2.2,Win32,59.80503558,,,,,,,,,,,,,,,,,,,,,,,,,,,,,,1,3.7334,1,,,,,,,,,,,,0,131,5,5,1974,2142,absent_patch/patch0001974.jpg,absent_patch/patch0002142.jpg,,,,,,,,,,,,,,,,,,,,-0.036111125,0.01203703,1,0,0,response7disk,32,0,-0.009259259,1,0,0,center_square,0,31,31,38,1,,,,,,,,,,,,,,,,,,,,,,,
892059,001,2022-11-20_23h54.55.656,Info_measure_main_exp,2022.2.2,Win32,59.80503558,,,,,,,,,,,,,,,,,,masks/mask_003.jpg,,,,,,,,,,,,,,,,,,,,,,,,,,,,,,,,,,,,,,,,,,,0,0,0,2,1,,,,,,,,,,,,,,,,,,,,,,,,,,,,,,,,,,,,,,,,,,,,,,
892059,001,2022-11-20_23h54.55.656,Info_measure_main_exp,2022.2.2,Win32,59.80503558,,,,,,,,,,,,,,,,,,masks/mask_002.jpg,,,,,,,,,,,,,,,,,,,,,,,,,,,,,,,,,,,,,,,,,,,0,1,1,1,1,,,,,,,,,,,,,,,,,,,,,,,,,,,,,,,,,,,,,,,,,,,,,,
892059,001,2022-11-20_23h54.55.656,Info_measure_main_exp,2022.2.2,Win32,59.80503558,,,,,,,,,,,,,,,,,,masks/mask_004.jpg,,,,,,,,,,,,,,,,,,,,,,,,,,,,,,,,,,,,,,,,,,,0,2,2,3,1,,,,,,,,,,,,,,,,,,,,,,,,,,,,,,,,,,,,,,,,,,,,,,
892059,001,2022-11-20_23h54.55.656,Info_measure_main_exp,2022.2.2,Win32,59.80503558,,,,,,,,,,,,,,,,,,masks/mask_001.jpg,,,,,,,,,,,,,,,,,,,,,,,,,,,,,,,,,,,,,,,,,,,0,3,3,0,1,,,,,,,,,,,,,,,,,,,,,,,,,,,,,,,,,,,,,,,,,,,,,,
892059,001,2022-11-20_23h54.55.656,Info_measure_main_exp,2022.2.2,Win32,59.80503558,,,,,,,,,,,,,,,,,,masks/mask_005.jpg,,,,,,,,,,,,,,,,,,,,,,,,,,,,,,,,,,,,,,,,,,,0,4,4,4,1,,,,,,,,,,,,,,,,,,,,,,,,,,,,,,,,,,,,,,,,,,,,,,
892059,001,2022-11-20_23h54.55.656,Info_measure_main_exp,2022.2.2,Win32,59.80503558,,,,,,,,,,,,,,,,,,masks/mask_002.jpg,,,,,,,,,,,,,,,,,,,,,,,,,,,,,,,,,,,,,,,,,,,,,,,,0,0,0,1,1,,,,,,,,,,,,,,,,,,,,,,,,,,,,,,,,,,,,,,,,,
892059,001,2022-11-20_23h54.55.656,Info_measure_main_exp,2022.2.2,Win32,59.80503558,,,,,,,,,,,,,,,,,,masks/mask_003.jpg,,,,,,,,,,,,,,,,,,,,,,,,,,,,,,,,,,,,,,,,,,,,,,,,0,1,1,2,1,,,,,,,,,,,,,,,,,,,,,,,,,,,,,,,,,,,,,,,,,
892059,001,2022-11-20_23h54.55.656,Info_measure_main_exp,2022.2.2,Win32,59.80503558,,,,,,,,,,,,,,,,,,masks/mask_004.jpg,,,,,,,,,,,,,,,,,,,,,,,,,,,,,,,,,,,,,,,,,,,,,,,,0,2,2,3,1,,,,,,,,,,,,,,,,,,,,,,,,,,,,,,,,,,,,,,,,,
892059,001,2022-11-20_23h54.55.656,Info_measure_main_exp,2022.2.2,Win32,59.80503558,,,,,,,,,,,,,,,,,,masks/mask_005.jpg,,,,,,,,,,,,,,,,,,,,,,,,,,,,,,,,,,,,,,,,,,,,,,,,0,3,3,4,1,,,,,,,,,,,,,,,,,,,,,,,,,,,,,,,,,,,,,,,,,
892059,001,2022-11-20_23h54.55.656,Info_measure_main_exp,2022.2.2,Win32,59.80503558,,,,,,,,,,,,,,,,,,masks/mask_001.jpg,,,,,,,,,,,,,,,,,,,,,,,,,,,,,,,,,,,,,,,,,,,,,,,,0,4,4,0,1,,,,,,,,,,,,,,,,,,,,,,,,,,,,,,,,,,,,,,,,,
892059,001,2022-11-20_23h54.55.656,Info_measure_main_exp,2022.2.2,Win32,59.80503558,,,,,,,,,,,,,,,,,,,,,,,,,,,,,,1,1.0904,1,,,,,,,,,,,,0,131,5,5,2142,2190,absent_patch/patch0002142.jpg,absent_patch/patch0002190.jpg,,,,,,,,,,,,,,,,,,,,-0.039814772,0.013888889,1,0,0,response7disk,33,0.000925912,-0.010185206,1,0,0,center_square,0,32,32,70,1,,,,,,,,,,,,,,,,,,,,,,,
892059,001,2022-11-20_23h54.55.656,Info_measure_main_exp,2022.2.2,Win32,59.80503558,,,,,,,,,,,,,,,,,,masks/mask_002.jpg,,,,,,,,,,,,,,,,,,,,,,,,,,,,,,,,,,,,,,,,,,,0,0,0,1,1,,,,,,,,,,,,,,,,,,,,,,,,,,,,,,,,,,,,,,,,,,,,,,
892059,001,2022-11-20_23h54.55.656,Info_measure_main_exp,2022.2.2,Win32,59.80503558,,,,,,,,,,,,,,,,,,masks/mask_005.jpg,,,,,,,,,,,,,,,,,,,,,,,,,,,,,,,,,,,,,,,,,,,0,1,1,4,1,,,,,,,,,,,,,,,,,,,,,,,,,,,,,,,,,,,,,,,,,,,,,,
892059,001,2022-11-20_23h54.55.656,Info_measure_main_exp,2022.2.2,Win32,59.80503558,,,,,,,,,,,,,,,,,,masks/mask_001.jpg,,,,,,,,,,,,,,,,,,,,,,,,,,,,,,,,,,,,,,,,,,,0,2,2,0,1,,,,,,,,,,,,,,,,,,,,,,,,,,,,,,,,,,,,,,,,,,,,,,
892059,001,2022-11-20_23h54.55.656,Info_measure_main_exp,2022.2.2,Win32,59.80503558,,,,,,,,,,,,,,,,,,masks/mask_004.jpg,,,,,,,,,,,,,,,,,,,,,,,,,,,,,,,,,,,,,,,,,,,0,3,3,3,1,,,,,,,,,,,,,,,,,,,,,,,,,,,,,,,,,,,,,,,,,,,,,,
892059,001,2022-11-20_23h54.55.656,Info_measure_main_exp,2022.2.2,Win32,59.80503558,,,,,,,,,,,,,,,,,,masks/mask_003.jpg,,,,,,,,,,,,,,,,,,,,,,,,,,,,,,,,,,,,,,,,,,,0,4,4,2,1,,,,,,,,,,,,,,,,,,,,,,,,,,,,,,,,,,,,,,,,,,,,,,
892059,001,2022-11-20_23h54.55.656,Info_measure_main_exp,2022.2.2,Win32,59.80503558,,,,,,,,,,,,,,,,,,masks/mask_005.jpg,,,,,,,,,,,,,,,,,,,,,,,,,,,,,,,,,,,,,,,,,,,,,,,,0,0,0,4,1,,,,,,,,,,,,,,,,,,,,,,,,,,,,,,,,,,,,,,,,,
892059,001,2022-11-20_23h54.55.656,Info_measure_main_exp,2022.2.2,Win32,59.80503558,,,,,,,,,,,,,,,,,,masks/mask_003.jpg,,,,,,,,,,,,,,,,,,,,,,,,,,,,,,,,,,,,,,,,,,,,,,,,0,1,1,2,1,,,,,,,,,,,,,,,,,,,,,,,,,,,,,,,,,,,,,,,,,
892059,001,2022-11-20_23h54.55.656,Info_measure_main_exp,2022.2.2,Win32,59.80503558,,,,,,,,,,,,,,,,,,masks/mask_004.jpg,,,,,,,,,,,,,,,,,,,,,,,,,,,,,,,,,,,,,,,,,,,,,,,,0,2,2,3,1,,,,,,,,,,,,,,,,,,,,,,,,,,,,,,,,,,,,,,,,,
892059,001,2022-11-20_23h54.55.656,Info_measure_main_exp,2022.2.2,Win32,59.80503558,,,,,,,,,,,,,,,,,,masks/mask_001.jpg,,,,,,,,,,,,,,,,,,,,,,,,,,,,,,,,,,,,,,,,,,,,,,,,0,3,3,0,1,,,,,,,,,,,,,,,,,,,,,,,,,,,,,,,,,,,,,,,,,
892059,001,2022-11-20_23h54.55.656,Info_measure_main_exp,2022.2.2,Win32,59.80503558,,,,,,,,,,,,,,,,,,masks/mask_002.jpg,,,,,,,,,,,,,,,,,,,,,,,,,,,,,,,,,,,,,,,,,,,,,,,,0,4,4,1,1,,,,,,,,,,,,,,,,,,,,,,,,,,,,,,,,,,,,,,,,,
892059,001,2022-11-20_23h54.55.656,Info_measure_main_exp,2022.2.2,Win32,59.80503558,,,,,,,,,,,,,,,,,,,,,,,,,,,,,,6,2.1999,1,,,,,,,,,,,,0,131,5,5,2274,2166,absent_patch/patch0002274.jpg,absent_patch/patch0002166.jpg,,,,,,,,,,,,,,,,,,,,0.074074074,0.026851831,1,0,0,response1disk,34,-0.003703718,0.001851859,1,0,0,center_square,0,33,33,78,1,,,,,,,,,,,,,,,,,,,,,,,
892059,001,2022-11-20_23h54.55.656,Info_measure_main_exp,2022.2.2,Win32,59.80503558,,,,,,,,,,,,,,,,,,masks/mask_005.jpg,,,,,,,,,,,,,,,,,,,,,,,,,,,,,,,,,,,,,,,,,,,0,0,0,4,1,,,,,,,,,,,,,,,,,,,,,,,,,,,,,,,,,,,,,,,,,,,,,,
892059,001,2022-11-20_23h54.55.656,Info_measure_main_exp,2022.2.2,Win32,59.80503558,,,,,,,,,,,,,,,,,,masks/mask_004.jpg,,,,,,,,,,,,,,,,,,,,,,,,,,,,,,,,,,,,,,,,,,,0,1,1,3,1,,,,,,,,,,,,,,,,,,,,,,,,,,,,,,,,,,,,,,,,,,,,,,
892059,001,2022-11-20_23h54.55.656,Info_measure_main_exp,2022.2.2,Win32,59.80503558,,,,,,,,,,,,,,,,,,masks/mask_002.jpg,,,,,,,,,,,,,,,,,,,,,,,,,,,,,,,,,,,,,,,,,,,0,2,2,1,1,,,,,,,,,,,,,,,,,,,,,,,,,,,,,,,,,,,,,,,,,,,,,,
892059,001,2022-11-20_23h54.55.656,Info_measure_main_exp,2022.2.2,Win32,59.80503558,,,,,,,,,,,,,,,,,,masks/mask_003.jpg,,,,,,,,,,,,,,,,,,,,,,,,,,,,,,,,,,,,,,,,,,,0,3,3,2,1,,,,,,,,,,,,,,,,,,,,,,,,,,,,,,,,,,,,,,,,,,,,,,
892059,001,2022-11-20_23h54.55.656,Info_measure_main_exp,2022.2.2,Win32,59.80503558,,,,,,,,,,,,,,,,,,masks/mask_001.jpg,,,,,,,,,,,,,,,,,,,,,,,,,,,,,,,,,,,,,,,,,,,0,4,4,0,1,,,,,,,,,,,,,,,,,,,,,,,,,,,,,,,,,,,,,,,,,,,,,,
892059,001,2022-11-20_23h54.55.656,Info_measure_main_exp,2022.2.2,Win32,59.80503558,,,,,,,,,,,,,,,,,,masks/mask_005.jpg,,,,,,,,,,,,,,,,,,,,,,,,,,,,,,,,,,,,,,,,,,,,,,,,0,0,0,4,1,,,,,,,,,,,,,,,,,,,,,,,,,,,,,,,,,,,,,,,,,
892059,001,2022-11-20_23h54.55.656,Info_measure_main_exp,2022.2.2,Win32,59.80503558,,,,,,,,,,,,,,,,,,masks/mask_003.jpg,,,,,,,,,,,,,,,,,,,,,,,,,,,,,,,,,,,,,,,,,,,,,,,,0,1,1,2,1,,,,,,,,,,,,,,,,,,,,,,,,,,,,,,,,,,,,,,,,,
892059,001,2022-11-20_23h54.55.656,Info_measure_main_exp,2022.2.2,Win32,59.80503558,,,,,,,,,,,,,,,,,,masks/mask_004.jpg,,,,,,,,,,,,,,,,,,,,,,,,,,,,,,,,,,,,,,,,,,,,,,,,0,2,2,3,1,,,,,,,,,,,,,,,,,,,,,,,,,,,,,,,,,,,,,,,,,
892059,001,2022-11-20_23h54.55.656,Info_measure_main_exp,2022.2.2,Win32,59.80503558,,,,,,,,,,,,,,,,,,masks/mask_001.jpg,,,,,,,,,,,,,,,,,,,,,,,,,,,,,,,,,,,,,,,,,,,,,,,,0,3,3,0,1,,,,,,,,,,,,,,,,,,,,,,,,,,,,,,,,,,,,,,,,,
