participant,session,date,expName,psychopyVersion,OS,frameRate,space_press_continue.keys,space_press_continue.rt,space_press_continue_2.keys,space_press_continue_2.rt,space_press_continue_3.keys,space_press_continue_3.rt,space_press_continue_4.keys,space_press_continue_4.rt,space_press_continue_5.keys,space_press_continue_5.rt,space_press_continue_6.keys,space_press_continue_6.rt,prac_mask_loop_1.thisRepN,prac_mask_loop_1.thisTrialN,prac_mask_loop_1.thisN,prac_mask_loop_1.thisIndex,prac_mask_loop_1.ran,mask_name,prac_mask_loop_2.thisRepN,prac_mask_loop_2.thisTrialN,prac_mask_loop_2.thisN,prac_mask_loop_2.thisIndex,prac_mask_loop_2.ran,mouse_2.x,mouse_2.y,mouse_2.leftButton,mouse_2.midButton,mouse_2.rightButton,mouse_2.clicked_name,similarity,response_time,Pass,mouse_12.x,mouse_12.y,mouse_12.leftButton,mouse_12.midButton,mouse_12.rightButton,mouse_12.clicked_name,prac_loop.thisRepN,prac_loop.thisTrialN,prac_loop.thisN,prac_loop.thisIndex,prac_loop.ran,Pair_type,Image_num,Patch_1_loc,Patch_2_loc,Patch_1_info,Patch_2_info,Patch_1_name,Patch_2_name,mouse_1.x,mouse_1.y,mouse_1.leftButton,mouse_1.midButton,mouse_1.rightButton,mouse_1.time,mouse_1.clicked_name,space_press_continue_7.keys,space_press_continue_7.rt,mask_loop.thisRepN,mask_loop.thisTrialN,mask_loop.thisN,mask_loop.thisIndex,mask_loop.ran,mask_loop_2.thisRepN,mask_loop_2.thisTrialN,mask_loop_2.thisN,mask_loop_2.thisIndex,mask_loop_2.ran,mouse.x,mouse.y,mouse.leftButton,mouse.midButton,mouse.rightButton,mouse.clicked_name,trialNumber,mouse_11.x,mouse_11.y,mouse_11.leftButton,mouse_11.midButton,mouse_11.rightButton,mouse_11.clicked_name,first_pass_loop.thisRepN,first_pass_loop.thisTrialN,first_pass_loop.thisN,first_pass_loop.thisIndex,first_pass_loop.ran,mask_loop_3.thisRepN,mask_loop_3.thisTrialN,mask_loop_3.thisN,mask_loop_3.thisIndex,mask_loop_3.ran,mask_loop_4.thisRepN,mask_loop_4.thisTrialN,mask_loop_4.thisN,mask_loop_4.thisIndex,mask_loop_4.ran,mouse_3.x,mouse_3.y,mouse_3.leftButton,mouse_3.midButton,mouse_3.rightButton,mouse_3.clicked_name,double_pass_loop.thisRepN,double_pass_loop.thisTrialN,double_pass_loop.thisN,double_pass_loop.thisIndex,double_pass_loop.ran,space_exit.keys,space_exit.rt
903773,001,2022-11-20_17h51.11.407,Info_measure_main_exp,2022.2.2,Win32,54.45733268,,,,,,,,,,,,,,,,,,,,,,,,,,,,,,,,,,,,,,,,,,,,,,,,,,,,,,,,,,,,,,,,,,,,,,,,,,,,,,,,,,,,,,,,,,,,,,,,,,,,,,,,,,,,,,,
903773,001,2022-11-20_17h51.11.407,Info_measure_main_exp,2022.2.2,Win32,54.45733268,,,,,,,,,,,,,,,,,,,,,,,,,,,,,,,,,,,,,,,,,,,,,,,,,,,,,,,,,,,,,,,,,,,,,,,,,,,,,,,,,,,,,,,,,,,,,,,,,,,,,,,,,,,,,,,
903773,001,2022-11-20_17h51.11.407,Info_measure_main_exp,2022.2.2,Win32,54.45733268,space,101.6079,,,,,,,,,,,,,,,,,,,,,,,,,,,,,,,,,,,,,,,,,,,,,,,,,,,,,,,,,,,,,,,,,,,,,,,,,,,,,,,,,,,,,,,,,,,,,,,,,,,,,,,,,,,,,
903773,001,2022-11-20_17h51.11.407,Info_measure_main_exp,2022.2.2,Win32,54.45733268,,,space,9.6533,,,,,,,,,,,,,,,,,,,,,,,,,,,,,,,,,,,,,,,,,,,,,,,,,,,,,,,,,,,,,,,,,,,,,,,,,,,,,,,,,,,,,,,,,,,,,,,,,,,,,,,,,,,
903773,001,2022-11-20_17h51.11.407,Info_measure_main_exp,2022.2.2,Win32,54.45733268,,,,,space,5.2989,,,,,,,,,,,,,,,,,,,,,,,,,,,,,,,,,,,,,,,,,,,,,,,,,,,,,,,,,,,,,,,,,,,,,,,,,,,,,,,,,,,,,,,,,,,,,,,,,,,,,,,,,
903773,001,2022-11-20_17h51.11.407,Info_measure_main_exp,2022.2.2,Win32,54.45733268,,,,,,,space,17.7921,,,,,,,,,,,,,,,,,,,,,,,,,,,,,,,,,,,,,,,,,,,,,,,,,,,,,,,,,,,,,,,,,,,,,,,,,,,,,,,,,,,,,,,,,,,,,,,,,,,,,,,
903773,001,2022-11-20_17h51.11.407,Info_measure_main_exp,2022.2.2,Win32,54.45733268,,,,,,,,,space,9.6859,,,,,,,,,,,,,,,,,,,,,,,,,,,,,,,,,,,,,,,,,,,,,,,,,,,,,,,,,,,,,,,,,,,,,,,,,,,,,,,,,,,,,,,,,,,,,,,,,,,,,
903773,001,2022-11-20_17h51.11.407,Info_measure_main_exp,2022.2.2,Win32,54.45733268,,,,,,,,,,,space,2.8657,,,,,,,,,,,,,,,,,,,,,,,,,,,,,,,,,,,,,,,,,,,,,,,,,,,,,,,,,,,,,,,,,,,,,,,,,,,,,,,,,,,,,,,,,,,,,,,,,,,
903773,001,2022-11-20_17h51.11.407,Info_measure_main_exp,2022.2.2,Win32,54.45733268,,,,,,,,,,,,,0,0,0,2,1,masks/mask_003.jpg,,,,,,,,,,,,,,,,,,,,,,,,,,,,,,,,,,,,,,,,,,,,,,,,,,,,,,,,,,,,,,,,,,,,,,,,,,,,,,,,,,,,,,,,,,,,,
903773,001,2022-11-20_17h51.11.407,Info_measure_main_exp,2022.2.2,Win32,54.45733268,,,,,,,,,,,,,0,1,1,4,1,masks/mask_005.jpg,,,,,,,,,,,,,,,,,,,,,,,,,,,,,,,,,,,,,,,,,,,,,,,,,,,,,,,,,,,,,,,,,,,,,,,,,,,,,,,,,,,,,,,,,,,,,
903773,001,2022-11-20_17h51.11.407,Info_measure_main_exp,2022.2.2,Win32,54.45733268,,,,,,,,,,,,,0,2,2,3,1,masks/mask_004.jpg,,,,,,,,,,,,,,,,,,,,,,,,,,,,,,,,,,,,,,,,,,,,,,,,,,,,,,,,,,,,,,,,,,,,,,,,,,,,,,,,,,,,,,,,,,,,,
903773,001,2022-11-20_17h51.11.407,Info_measure_main_exp,2022.2.2,Win32,54.45733268,,,,,,,,,,,,,0,3,3,1,1,masks/mask_002.jpg,,,,,,,,,,,,,,,,,,,,,,,,,,,,,,,,,,,,,,,,,,,,,,,,,,,,,,,,,,,,,,,,,,,,,,,,,,,,,,,,,,,,,,,,,,,,,
903773,001,2022-11-20_17h51.11.407,Info_measure_main_exp,2022.2.2,Win32,54.45733268,,,,,,,,,,,,,0,4,4,0,1,masks/mask_001.jpg,,,,,,,,,,,,,,,,,,,,,,,,,,,,,,,,,,,,,,,,,,,,,,,,,,,,,,,,,,,,,,,,,,,,,,,,,,,,,,,,,,,,,,,,,,,,,
903773,001,2022-11-20_17h51.11.407,Info_measure_main_exp,2022.2.2,Win32,54.45733268,,,,,,,,,,,,,,,,,,masks/mask_001.jpg,0,0,0,0,1,,,,,,,,,,,,,,,,,,,,,,,,,,,,,,,,,,,,,,,,,,,,,,,,,,,,,,,,,,,,,,,,,,,,,,,,,,,,,,,,,,,,,,,,
903773,001,2022-11-20_17h51.11.407,Info_measure_main_exp,2022.2.2,Win32,54.45733268,,,,,,,,,,,,,,,,,,masks/mask_002.jpg,0,1,1,1,1,,,,,,,,,,,,,,,,,,,,,,,,,,,,,,,,,,,,,,,,,,,,,,,,,,,,,,,,,,,,,,,,,,,,,,,,,,,,,,,,,,,,,,,,
903773,001,2022-11-20_17h51.11.407,Info_measure_main_exp,2022.2.2,Win32,54.45733268,,,,,,,,,,,,,,,,,,masks/mask_005.jpg,0,2,2,4,1,,,,,,,,,,,,,,,,,,,,,,,,,,,,,,,,,,,,,,,,,,,,,,,,,,,,,,,,,,,,,,,,,,,,,,,,,,,,,,,,,,,,,,,,
903773,001,2022-11-20_17h51.11.407,Info_measure_main_exp,2022.2.2,Win32,54.45733268,,,,,,,,,,,,,,,,,,masks/mask_004.jpg,0,3,3,3,1,,,,,,,,,,,,,,,,,,,,,,,,,,,,,,,,,,,,,,,,,,,,,,,,,,,,,,,,,,,,,,,,,,,,,,,,,,,,,,,,,,,,,,,,
903773,001,2022-11-20_17h51.11.407,Info_measure_main_exp,2022.2.2,Win32,54.45733268,,,,,,,,,,,,,,,,,,masks/mask_003.jpg,0,4,4,2,1,,,,,,,,,,,,,,,,,,,,,,,,,,,,,,,,,,,,,,,,,,,,,,,,,,,,,,,,,,,,,,,,,,,,,,,,,,,,,,,,,,,,,,,,
903773,001,2022-11-20_17h51.11.407,Info_measure_main_exp,2022.2.2,Win32,54.45733268,,,,,,,,,,,,,,,,,,,,,,,,-0.031481496,-0.073148162,1,0,0,response5disk,3,155.5006,1,-0.003703718,-0.010185206,1,0,0,center_square,0,0,0,0,1,0,131,5,5,2370,2406,prac_patch/patch0002370.jpg,prac_patch/patch0002406.jpg,,,,,,,,,,,,,,,,,,,,,,,,,,,,,,,,,,,,,,,,,,,,,,,,,,,,,,,,,,,,
903773,001,2022-11-20_17h51.11.407,Info_measure_main_exp,2022.2.2,Win32,54.45733268,,,,,,,,,,,,,0,0,0,4,1,masks/mask_005.jpg,,,,,,,,,,,,,,,,,,,,,,,,,,,,,,,,,,,,,,,,,,,,,,,,,,,,,,,,,,,,,,,,,,,,,,,,,,,,,,,,,,,,,,,,,,,,,
903773,001,2022-11-20_17h51.11.407,Info_measure_main_exp,2022.2.2,Win32,54.45733268,,,,,,,,,,,,,0,1,1,2,1,masks/mask_003.jpg,,,,,,,,,,,,,,,,,,,,,,,,,,,,,,,,,,,,,,,,,,,,,,,,,,,,,,,,,,,,,,,,,,,,,,,,,,,,,,,,,,,,,,,,,,,,,
903773,001,2022-11-20_17h51.11.407,Info_measure_main_exp,2022.2.2,Win32,54.45733268,,,,,,,,,,,,,0,2,2,3,1,masks/mask_004.jpg,,,,,,,,,,,,,,,,,,,,,,,,,,,,,,,,,,,,,,,,,,,,,,,,,,,,,,,,,,,,,,,,,,,,,,,,,,,,,,,,,,,,,,,,,,,,,
903773,001,2022-11-20_17h51.11.407,Info_measure_main_exp,2022.2.2,Win32,54.45733268,,,,,,,,,,,,,0,3,3,0,1,masks/mask_001.jpg,,,,,,,,,,,,,,,,,,,,,,,,,,,,,,,,,,,,,,,,,,,,,,,,,,,,,,,,,,,,,,,,,,,,,,,,,,,,,,,,,,,,,,,,,,,,,
903773,001,2022-11-20_17h51.11.407,Info_measure_main_exp,2022.2.2,Win32,54.45733268,,,,,,,,,,,,,0,4,4,1,1,masks/mask_002.jpg,,,,,,,,,,,,,,,,,,,,,,,,,,,,,,,,,,,,,,,,,,,,,,,,,,,,,,,,,,,,,,,,,,,,,,,,,,,,,,,,,,,,,,,,,,,,,
903773,001,2022-11-20_17h51.11.407,Info_measure_main_exp,2022.2.2,Win32,54.45733268,,,,,,,,,,,,,,,,,,masks/mask_003.jpg,0,0,0,2,1,,,,,,,,,,,,,,,,,,,,,,,,,,,,,,,,,,,,,,,,,,,,,,,,,,,,,,,,,,,,,,,,,,,,,,,,,,,,,,,,,,,,,,,,
903773,001,2022-11-20_17h51.11.407,Info_measure_main_exp,2022.2.2,Win32,54.45733268,,,,,,,,,,,,,,,,,,masks/mask_004.jpg,0,1,1,3,1,,,,,,,,,,,,,,,,,,,,,,,,,,,,,,,,,,,,,,,,,,,,,,,,,,,,,,,,,,,,,,,,,,,,,,,,,,,,,,,,,,,,,,,,
903773,001,2022-11-20_17h51.11.407,Info_measure_main_exp,2022.2.2,Win32,54.45733268,,,,,,,,,,,,,,,,,,masks/mask_002.jpg,0,2,2,1,1,,,,,,,,,,,,,,,,,,,,,,,,,,,,,,,,,,,,,,,,,,,,,,,,,,,,,,,,,,,,,,,,,,,,,,,,,,,,,,,,,,,,,,,,
903773,001,2022-11-20_17h51.11.407,Info_measure_main_exp,2022.2.2,Win32,54.45733268,,,,,,,,,,,,,,,,,,masks/mask_001.jpg,0,3,3,0,1,,,,,,,,,,,,,,,,,,,,,,,,,,,,,,,,,,,,,,,,,,,,,,,,,,,,,,,,,,,,,,,,,,,,,,,,,,,,,,,,,,,,,,,,
903773,001,2022-11-20_17h51.11.407,Info_measure_main_exp,2022.2.2,Win32,54.45733268,,,,,,,,,,,,,,,,,,masks/mask_005.jpg,0,4,4,4,1,,,,,,,,,,,,,,,,,,,,,,,,,,,,,,,,,,,,,,,,,,,,,,,,,,,,,,,,,,,,,,,,,,,,,,,,,,,,,,,,,,,,,,,,
903773,001,2022-11-20_17h51.11.407,Info_measure_main_exp,2022.2.2,Win32,54.45733268,,,,,,,,,,,,,,,,,,,,,,,,0.189814815,0.000925912,1,0,0,response1disk,6,172.404,1,0,-0.003703718,1,0,0,center_square,0,1,1,2,1,0,131,5,5,2526,2526,prac_patch/patch0002526.jpg,prac_patch/patch0002526.jpg,,,,,,,,,,,,,,,,,,,,,,,,,,,,,,,,,,,,,,,,,,,,,,,,,,,,,,,,,,,,
903773,001,2022-11-20_17h51.11.407,Info_measure_main_exp,2022.2.2,Win32,54.45733268,,,,,,,,,,,,,0,0,0,1,1,masks/mask_002.jpg,,,,,,,,,,,,,,,,,,,,,,,,,,,,,,,,,,,,,,,,,,,,,,,,,,,,,,,,,,,,,,,,,,,,,,,,,,,,,,,,,,,,,,,,,,,,,
903773,001,2022-11-20_17h51.11.407,Info_measure_main_exp,2022.2.2,Win32,54.45733268,,,,,,,,,,,,,0,1,1,3,1,masks/mask_004.jpg,,,,,,,,,,,,,,,,,,,,,,,,,,,,,,,,,,,,,,,,,,,,,,,,,,,,,,,,,,,,,,,,,,,,,,,,,,,,,,,,,,,,,,,,,,,,,
903773,001,2022-11-20_17h51.11.407,Info_measure_main_exp,2022.2.2,Win32,54.45733268,,,,,,,,,,,,,0,2,2,0,1,masks/mask_001.jpg,,,,,,,,,,,,,,,,,,,,,,,,,,,,,,,,,,,,,,,,,,,,,,,,,,,,,,,,,,,,,,,,,,,,,,,,,,,,,,,,,,,,,,,,,,,,,
903773,001,2022-11-20_17h51.11.407,Info_measure_main_exp,2022.2.2,Win32,54.45733268,,,,,,,,,,,,,0,3,3,4,1,masks/mask_005.jpg,,,,,,,,,,,,,,,,,,,,,,,,,,,,,,,,,,,,,,,,,,,,,,,,,,,,,,,,,,,,,,,,,,,,,,,,,,,,,,,,,,,,,,,,,,,,,
903773,001,2022-11-20_17h51.11.407,Info_measure_main_exp,2022.2.2,Win32,54.45733268,,,,,,,,,,,,,0,4,4,2,1,masks/mask_003.jpg,,,,,,,,,,,,,,,,,,,,,,,,,,,,,,,,,,,,,,,,,,,,,,,,,,,,,,,,,,,,,,,,,,,,,,,,,,,,,,,,,,,,,,,,,,,,,
903773,001,2022-11-20_17h51.11.407,Info_measure_main_exp,2022.2.2,Win32,54.45733268,,,,,,,,,,,,,,,,,,masks/mask_002.jpg,0,0,0,1,1,,,,,,,,,,,,,,,,,,,,,,,,,,,,,,,,,,,,,,,,,,,,,,,,,,,,,,,,,,,,,,,,,,,,,,,,,,,,,,,,,,,,,,,,
903773,001,2022-11-20_17h51.11.407,Info_measure_main_exp,2022.2.2,Win32,54.45733268,,,,,,,,,,,,,,,,,,masks/mask_005.jpg,0,1,1,4,1,,,,,,,,,,,,,,,,,,,,,,,,,,,,,,,,,,,,,,,,,,,,,,,,,,,,,,,,,,,,,,,,,,,,,,,,,,,,,,,,,,,,,,,,
903773,001,2022-11-20_17h51.11.407,Info_measure_main_exp,2022.2.2,Win32,54.45733268,,,,,,,,,,,,,,,,,,masks/mask_004.jpg,0,2,2,3,1,,,,,,,,,,,,,,,,,,,,,,,,,,,,,,,,,,,,,,,,,,,,,,,,,,,,,,,,,,,,,,,,,,,,,,,,,,,,,,,,,,,,,,,,
903773,001,2022-11-20_17h51.11.407,Info_measure_main_exp,2022.2.2,Win32,54.45733268,,,,,,,,,,,,,,,,,,masks/mask_001.jpg,0,3,3,0,1,,,,,,,,,,,,,,,,,,,,,,,,,,,,,,,,,,,,,,,,,,,,,,,,,,,,,,,,,,,,,,,,,,,,,,,,,,,,,,,,,,,,,,,,
903773,001,2022-11-20_17h51.11.407,Info_measure_main_exp,2022.2.2,Win32,54.45733268,,,,,,,,,,,,,,,,,,masks/mask_003.jpg,0,4,4,2,1,,,,,,,,,,,,,,,,,,,,,,,,,,,,,,,,,,,,,,,,,,,,,,,,,,,,,,,,,,,,,,,,,,,,,,,,,,,,,,,,,,,,,,,,
903773,001,2022-11-20_17h51.11.407,Info_measure_main_exp,2022.2.2,Win32,54.45733268,,,,,,,,,,,,,,,,,,,,,,,,0.031481496,-0.118518547,1,0,0,response3disk,4,183.2637,1,-0.010185171,-0.000925947,1,0,0,center_square,0,2,2,1,1,0,131,5,5,2514,2490,prac_patch/patch0002514.jpg,prac_patch/patch0002490.jpg,,,,,,,,,,,,,,,,,,,,,,,,,,,,,,,,,,,,,,,,,,,,,,,,,,,,,,,,,,,,
903773,001,2022-11-20_17h51.11.407,Info_measure_main_exp,2022.2.2,Win32,54.45733268,,,,,,,,,,,,,,,,,,,,,,,,,,,,,,,,,,,,,,,,,,,,,,,,,,,,,,,,,,,space,4.1281,,,,,,,,,,,,,,,,,,,,,,,,,,,,,,,,,,,,,,,,,,,,,,,,,,,
903773,001,2022-11-20_17h51.11.407,Info_measure_main_exp,2022.2.2,Win32,54.45733268,,,,,,,,,,,,,,,,,,masks/mask_003.jpg,,,,,,,,,,,,,,,,,,,,,,,,,,,,,,,,,,,,,,,,,,,0,0,0,2,1,,,,,,,,,,,,,,,,,,,,,,,,,,,,,,,,,,,,,,,,,,,,,,
903773,001,2022-11-20_17h51.11.407,Info_measure_main_exp,2022.2.2,Win32,54.45733268,,,,,,,,,,,,,,,,,,masks/mask_002.jpg,,,,,,,,,,,,,,,,,,,,,,,,,,,,,,,,,,,,,,,,,,,0,1,1,1,1,,,,,,,,,,,,,,,,,,,,,,,,,,,,,,,,,,,,,,,,,,,,,,
903773,001,2022-11-20_17h51.11.407,Info_measure_main_exp,2022.2.2,Win32,54.45733268,,,,,,,,,,,,,,,,,,masks/mask_001.jpg,,,,,,,,,,,,,,,,,,,,,,,,,,,,,,,,,,,,,,,,,,,0,2,2,0,1,,,,,,,,,,,,,,,,,,,,,,,,,,,,,,,,,,,,,,,,,,,,,,
903773,001,2022-11-20_17h51.11.407,Info_measure_main_exp,2022.2.2,Win32,54.45733268,,,,,,,,,,,,,,,,,,masks/mask_004.jpg,,,,,,,,,,,,,,,,,,,,,,,,,,,,,,,,,,,,,,,,,,,0,3,3,3,1,,,,,,,,,,,,,,,,,,,,,,,,,,,,,,,,,,,,,,,,,,,,,,
903773,001,2022-11-20_17h51.11.407,Info_measure_main_exp,2022.2.2,Win32,54.45733268,,,,,,,,,,,,,,,,,,masks/mask_005.jpg,,,,,,,,,,,,,,,,,,,,,,,,,,,,,,,,,,,,,,,,,,,0,4,4,4,1,,,,,,,,,,,,,,,,,,,,,,,,,,,,,,,,,,,,,,,,,,,,,,
903773,001,2022-11-20_17h51.11.407,Info_measure_main_exp,2022.2.2,Win32,54.45733268,,,,,,,,,,,,,,,,,,masks/mask_005.jpg,,,,,,,,,,,,,,,,,,,,,,,,,,,,,,,,,,,,,,,,,,,,,,,,0,0,0,4,1,,,,,,,,,,,,,,,,,,,,,,,,,,,,,,,,,,,,,,,,,
903773,001,2022-11-20_17h51.11.407,Info_measure_main_exp,2022.2.2,Win32,54.45733268,,,,,,,,,,,,,,,,,,masks/mask_002.jpg,,,,,,,,,,,,,,,,,,,,,,,,,,,,,,,,,,,,,,,,,,,,,,,,0,1,1,1,1,,,,,,,,,,,,,,,,,,,,,,,,,,,,,,,,,,,,,,,,,
903773,001,2022-11-20_17h51.11.407,Info_measure_main_exp,2022.2.2,Win32,54.45733268,,,,,,,,,,,,,,,,,,masks/mask_001.jpg,,,,,,,,,,,,,,,,,,,,,,,,,,,,,,,,,,,,,,,,,,,,,,,,0,2,2,0,1,,,,,,,,,,,,,,,,,,,,,,,,,,,,,,,,,,,,,,,,,
903773,001,2022-11-20_17h51.11.407,Info_measure_main_exp,2022.2.2,Win32,54.45733268,,,,,,,,,,,,,,,,,,masks/mask_004.jpg,,,,,,,,,,,,,,,,,,,,,,,,,,,,,,,,,,,,,,,,,,,,,,,,0,3,3,3,1,,,,,,,,,,,,,,,,,,,,,,,,,,,,,,,,,,,,,,,,,
903773,001,2022-11-20_17h51.11.407,Info_measure_main_exp,2022.2.2,Win32,54.45733268,,,,,,,,,,,,,,,,,,masks/mask_003.jpg,,,,,,,,,,,,,,,,,,,,,,,,,,,,,,,,,,,,,,,,,,,,,,,,0,4,4,2,1,,,,,,,,,,,,,,,,,,,,,,,,,,,,,,,,,,,,,,,,,
903773,001,2022-11-20_17h51.11.407,Info_measure_main_exp,2022.2.2,Win32,54.45733268,,,,,,,,,,,,,,,,,,,,,,,,,,,,,,1,4.2343,1,,,,,,,,,,,,0,131,5,5,1974,1974,absent_patch/patch0001974.jpg,absent_patch/patch0001974.jpg,,,,,,,,,,,,,,,,,,,,-0.127777735,0.095370363,1,0,0,response7disk,1,0.006481524,-0.009259259,1,0,0,center_square,0,0,0,113,1,,,,,,,,,,,,,,,,,,,,,,,
903773,001,2022-11-20_17h51.11.407,Info_measure_main_exp,2022.2.2,Win32,54.45733268,,,,,,,,,,,,,,,,,,masks/mask_003.jpg,,,,,,,,,,,,,,,,,,,,,,,,,,,,,,,,,,,,,,,,,,,0,0,0,2,1,,,,,,,,,,,,,,,,,,,,,,,,,,,,,,,,,,,,,,,,,,,,,,
903773,001,2022-11-20_17h51.11.407,Info_measure_main_exp,2022.2.2,Win32,54.45733268,,,,,,,,,,,,,,,,,,masks/mask_005.jpg,,,,,,,,,,,,,,,,,,,,,,,,,,,,,,,,,,,,,,,,,,,0,1,1,4,1,,,,,,,,,,,,,,,,,,,,,,,,,,,,,,,,,,,,,,,,,,,,,,
903773,001,2022-11-20_17h51.11.407,Info_measure_main_exp,2022.2.2,Win32,54.45733268,,,,,,,,,,,,,,,,,,masks/mask_001.jpg,,,,,,,,,,,,,,,,,,,,,,,,,,,,,,,,,,,,,,,,,,,0,2,2,0,1,,,,,,,,,,,,,,,,,,,,,,,,,,,,,,,,,,,,,,,,,,,,,,
903773,001,2022-11-20_17h51.11.407,Info_measure_main_exp,2022.2.2,Win32,54.45733268,,,,,,,,,,,,,,,,,,masks/mask_002.jpg,,,,,,,,,,,,,,,,,,,,,,,,,,,,,,,,,,,,,,,,,,,0,3,3,1,1,,,,,,,,,,,,,,,,,,,,,,,,,,,,,,,,,,,,,,,,,,,,,,
903773,001,2022-11-20_17h51.11.407,Info_measure_main_exp,2022.2.2,Win32,54.45733268,,,,,,,,,,,,,,,,,,masks/mask_004.jpg,,,,,,,,,,,,,,,,,,,,,,,,,,,,,,,,,,,,,,,,,,,0,4,4,3,1,,,,,,,,,,,,,,,,,,,,,,,,,,,,,,,,,,,,,,,,,,,,,,
903773,001,2022-11-20_17h51.11.407,Info_measure_main_exp,2022.2.2,Win32,54.45733268,,,,,,,,,,,,,,,,,,masks/mask_002.jpg,,,,,,,,,,,,,,,,,,,,,,,,,,,,,,,,,,,,,,,,,,,,,,,,0,0,0,1,1,,,,,,,,,,,,,,,,,,,,,,,,,,,,,,,,,,,,,,,,,
903773,001,2022-11-20_17h51.11.407,Info_measure_main_exp,2022.2.2,Win32,54.45733268,,,,,,,,,,,,,,,,,,masks/mask_004.jpg,,,,,,,,,,,,,,,,,,,,,,,,,,,,,,,,,,,,,,,,,,,,,,,,0,1,1,3,1,,,,,,,,,,,,,,,,,,,,,,,,,,,,,,,,,,,,,,,,,
903773,001,2022-11-20_17h51.11.407,Info_measure_main_exp,2022.2.2,Win32,54.45733268,,,,,,,,,,,,,,,,,,masks/mask_005.jpg,,,,,,,,,,,,,,,,,,,,,,,,,,,,,,,,,,,,,,,,,,,,,,,,0,2,2,4,1,,,,,,,,,,,,,,,,,,,,,,,,,,,,,,,,,,,,,,,,,
903773,001,2022-11-20_17h51.11.407,Info_measure_main_exp,2022.2.2,Win32,54.45733268,,,,,,,,,,,,,,,,,,masks/mask_003.jpg,,,,,,,,,,,,,,,,,,,,,,,,,,,,,,,,,,,,,,,,,,,,,,,,0,3,3,2,1,,,,,,,,,,,,,,,,,,,,,,,,,,,,,,,,,,,,,,,,,
903773,001,2022-11-20_17h51.11.407,Info_measure_main_exp,2022.2.2,Win32,54.45733268,,,,,,,,,,,,,,,,,,masks/mask_001.jpg,,,,,,,,,,,,,,,,,,,,,,,,,,,,,,,,,,,,,,,,,,,,,,,,0,4,4,0,1,,,,,,,,,,,,,,,,,,,,,,,,,,,,,,,,,,,,,,,,,
903773,001,2022-11-20_17h51.11.407,Info_measure_main_exp,2022.2.2,Win32,54.45733268,,,,,,,,,,,,,,,,,,,,,,,,,,,,,,4,2.598,1,,,,,,,,,,,,1,131,5,5,1,2154,present_patch/cong_131_5_a.jpg,absent_patch/patch0002154.jpg,,,,,,,,,,,,,,,,,,,,0.018518519,-0.092592593,1,0,0,response3disk,2,0.006481524,-0.012962977,1,0,0,center_square,0,1,1,87,1,,,,,,,,,,,,,,,,,,,,,,,
903773,001,2022-11-20_17h51.11.407,Info_measure_main_exp,2022.2.2,Win32,54.45733268,,,,,,,,,,,,,,,,,,masks/mask_004.jpg,,,,,,,,,,,,,,,,,,,,,,,,,,,,,,,,,,,,,,,,,,,0,0,0,3,1,,,,,,,,,,,,,,,,,,,,,,,,,,,,,,,,,,,,,,,,,,,,,,
903773,001,2022-11-20_17h51.11.407,Info_measure_main_exp,2022.2.2,Win32,54.45733268,,,,,,,,,,,,,,,,,,masks/mask_005.jpg,,,,,,,,,,,,,,,,,,,,,,,,,,,,,,,,,,,,,,,,,,,0,1,1,4,1,,,,,,,,,,,,,,,,,,,,,,,,,,,,,,,,,,,,,,,,,,,,,,
903773,001,2022-11-20_17h51.11.407,Info_measure_main_exp,2022.2.2,Win32,54.45733268,,,,,,,,,,,,,,,,,,masks/mask_001.jpg,,,,,,,,,,,,,,,,,,,,,,,,,,,,,,,,,,,,,,,,,,,0,2,2,0,1,,,,,,,,,,,,,,,,,,,,,,,,,,,,,,,,,,,,,,,,,,,,,,
903773,001,2022-11-20_17h51.11.407,Info_measure_main_exp,2022.2.2,Win32,54.45733268,,,,,,,,,,,,,,,,,,masks/mask_003.jpg,,,,,,,,,,,,,,,,,,,,,,,,,,,,,,,,,,,,,,,,,,,0,3,3,2,1,,,,,,,,,,,,,,,,,,,,,,,,,,,,,,,,,,,,,,,,,,,,,,
903773,001,2022-11-20_17h51.11.407,Info_measure_main_exp,2022.2.2,Win32,54.45733268,,,,,,,,,,,,,,,,,,masks/mask_002.jpg,,,,,,,,,,,,,,,,,,,,,,,,,,,,,,,,,,,,,,,,,,,0,4,4,1,1,,,,,,,,,,,,,,,,,,,,,,,,,,,,,,,,,,,,,,,,,,,,,,
903773,001,2022-11-20_17h51.11.407,Info_measure_main_exp,2022.2.2,Win32,54.45733268,,,,,,,,,,,,,,,,,,masks/mask_003.jpg,,,,,,,,,,,,,,,,,,,,,,,,,,,,,,,,,,,,,,,,,,,,,,,,0,0,0,2,1,,,,,,,,,,,,,,,,,,,,,,,,,,,,,,,,,,,,,,,,,
903773,001,2022-11-20_17h51.11.407,Info_measure_main_exp,2022.2.2,Win32,54.45733268,,,,,,,,,,,,,,,,,,masks/mask_001.jpg,,,,,,,,,,,,,,,,,,,,,,,,,,,,,,,,,,,,,,,,,,,,,,,,0,1,1,0,1,,,,,,,,,,,,,,,,,,,,,,,,,,,,,,,,,,,,,,,,,
903773,001,2022-11-20_17h51.11.407,Info_measure_main_exp,2022.2.2,Win32,54.45733268,,,,,,,,,,,,,,,,,,masks/mask_002.jpg,,,,,,,,,,,,,,,,,,,,,,,,,,,,,,,,,,,,,,,,,,,,,,,,0,2,2,1,1,,,,,,,,,,,,,,,,,,,,,,,,,,,,,,,,,,,,,,,,,
903773,001,2022-11-20_17h51.11.407,Info_measure_main_exp,2022.2.2,Win32,54.45733268,,,,,,,,,,,,,,,,,,masks/mask_004.jpg,,,,,,,,,,,,,,,,,,,,,,,,,,,,,,,,,,,,,,,,,,,,,,,,0,3,3,3,1,,,,,,,,,,,,,,,,,,,,,,,,,,,,,,,,,,,,,,,,,
903773,001,2022-11-20_17h51.11.407,Info_measure_main_exp,2022.2.2,Win32,54.45733268,,,,,,,,,,,,,,,,,,masks/mask_005.jpg,,,,,,,,,,,,,,,,,,,,,,,,,,,,,,,,,,,,,,,,,,,,,,,,0,4,4,4,1,,,,,,,,,,,,,,,,,,,,,,,,,,,,,,,,,,,,,,,,,
903773,001,2022-11-20_17h51.11.407,Info_measure_main_exp,2022.2.2,Win32,54.45733268,,,,,,,,,,,,,,,,,,,,,,,,,,,,,,7,1.9332,1,,,,,,,,,,,,0,131,5,5,2082,2166,absent_patch/patch0002082.jpg,absent_patch/patch0002166.jpg,,,,,,,,,,,,,,,,,,,,0.010185171,0.044444437,1,0,0,response1disk,3,-0.000925912,0,1,0,0,center_square,0,2,2,43,1,,,,,,,,,,,,,,,,,,,,,,,
903773,001,2022-11-20_17h51.11.407,Info_measure_main_exp,2022.2.2,Win32,54.45733268,,,,,,,,,,,,,,,,,,masks/mask_002.jpg,,,,,,,,,,,,,,,,,,,,,,,,,,,,,,,,,,,,,,,,,,,0,0,0,1,1,,,,,,,,,,,,,,,,,,,,,,,,,,,,,,,,,,,,,,,,,,,,,,
903773,001,2022-11-20_17h51.11.407,Info_measure_main_exp,2022.2.2,Win32,54.45733268,,,,,,,,,,,,,,,,,,masks/mask_005.jpg,,,,,,,,,,,,,,,,,,,,,,,,,,,,,,,,,,,,,,,,,,,0,1,1,4,1,,,,,,,,,,,,,,,,,,,,,,,,,,,,,,,,,,,,,,,,,,,,,,
903773,001,2022-11-20_17h51.11.407,Info_measure_main_exp,2022.2.2,Win32,54.45733268,,,,,,,,,,,,,,,,,,masks/mask_004.jpg,,,,,,,,,,,,,,,,,,,,,,,,,,,,,,,,,,,,,,,,,,,0,2,2,3,1,,,,,,,,,,,,,,,,,,,,,,,,,,,,,,,,,,,,,,,,,,,,,,
903773,001,2022-11-20_17h51.11.407,Info_measure_main_exp,2022.2.2,Win32,54.45733268,,,,,,,,,,,,,,,,,,masks/mask_001.jpg,,,,,,,,,,,,,,,,,,,,,,,,,,,,,,,,,,,,,,,,,,,0,3,3,0,1,,,,,,,,,,,,,,,,,,,,,,,,,,,,,,,,,,,,,,,,,,,,,,
903773,001,2022-11-20_17h51.11.407,Info_measure_main_exp,2022.2.2,Win32,54.45733268,,,,,,,,,,,,,,,,,,masks/mask_003.jpg,,,,,,,,,,,,,,,,,,,,,,,,,,,,,,,,,,,,,,,,,,,0,4,4,2,1,,,,,,,,,,,,,,,,,,,,,,,,,,,,,,,,,,,,,,,,,,,,,,
903773,001,2022-11-20_17h51.11.407,Info_measure_main_exp,2022.2.2,Win32,54.45733268,,,,,,,,,,,,,,,,,,masks/mask_004.jpg,,,,,,,,,,,,,,,,,,,,,,,,,,,,,,,,,,,,,,,,,,,,,,,,0,0,0,3,1,,,,,,,,,,,,,,,,,,,,,,,,,,,,,,,,,,,,,,,,,
903773,001,2022-11-20_17h51.11.407,Info_measure_main_exp,2022.2.2,Win32,54.45733268,,,,,,,,,,,,,,,,,,masks/mask_002.jpg,,,,,,,,,,,,,,,,,,,,,,,,,,,,,,,,,,,,,,,,,,,,,,,,0,1,1,1,1,,,,,,,,,,,,,,,,,,,,,,,,,,,,,,,,,,,,,,,,,
903773,001,2022-11-20_17h51.11.407,Info_measure_main_exp,2022.2.2,Win32,54.45733268,,,,,,,,,,,,,,,,,,masks/mask_005.jpg,,,,,,,,,,,,,,,,,,,,,,,,,,,,,,,,,,,,,,,,,,,,,,,,0,2,2,4,1,,,,,,,,,,,,,,,,,,,,,,,,,,,,,,,,,,,,,,,,,
903773,001,2022-11-20_17h51.11.407,Info_measure_main_exp,2022.2.2,Win32,54.45733268,,,,,,,,,,,,,,,,,,masks/mask_001.jpg,,,,,,,,,,,,,,,,,,,,,,,,,,,,,,,,,,,,,,,,,,,,,,,,0,3,3,0,1,,,,,,,,,,,,,,,,,,,,,,,,,,,,,,,,,,,,,,,,,
903773,001,2022-11-20_17h51.11.407,Info_measure_main_exp,2022.2.2,Win32,54.45733268,,,,,,,,,,,,,,,,,,masks/mask_003.jpg,,,,,,,,,,,,,,,,,,,,,,,,,,,,,,,,,,,,,,,,,,,,,,,,0,4,4,2,1,,,,,,,,,,,,,,,,,,,,,,,,,,,,,,,,,,,,,,,,,
903773,001,2022-11-20_17h51.11.407,Info_measure_main_exp,2022.2.2,Win32,54.45733268,,,,,,,,,,,,,,,,,,,,,,,,,,,,,,4,2.0192,1,,,,,,,,,,,,0,131,5,5,2274,2238,absent_patch/patch0002274.jpg,absent_patch/patch0002238.jpg,,,,,,,,,,,,,,,,,,,,0.05277782,-0.098148134,1,0,0,response3disk,4,0.002777806,-0.006481489,1,0,0,center_square,0,3,3,91,1,,,,,,,,,,,,,,,,,,,,,,,
903773,001,2022-11-20_17h51.11.407,Info_measure_main_exp,2022.2.2,Win32,54.45733268,,,,,,,,,,,,,,,,,,masks/mask_004.jpg,,,,,,,,,,,,,,,,,,,,,,,,,,,,,,,,,,,,,,,,,,,0,0,0,3,1,,,,,,,,,,,,,,,,,,,,,,,,,,,,,,,,,,,,,,,,,,,,,,
903773,001,2022-11-20_17h51.11.407,Info_measure_main_exp,2022.2.2,Win32,54.45733268,,,,,,,,,,,,,,,,,,masks/mask_005.jpg,,,,,,,,,,,,,,,,,,,,,,,,,,,,,,,,,,,,,,,,,,,0,1,1,4,1,,,,,,,,,,,,,,,,,,,,,,,,,,,,,,,,,,,,,,,,,,,,,,
903773,001,2022-11-20_17h51.11.407,Info_measure_main_exp,2022.2.2,Win32,54.45733268,,,,,,,,,,,,,,,,,,masks/mask_002.jpg,,,,,,,,,,,,,,,,,,,,,,,,,,,,,,,,,,,,,,,,,,,0,2,2,1,1,,,,,,,,,,,,,,,,,,,,,,,,,,,,,,,,,,,,,,,,,,,,,,
903773,001,2022-11-20_17h51.11.407,Info_measure_main_exp,2022.2.2,Win32,54.45733268,,,,,,,,,,,,,,,,,,masks/mask_003.jpg,,,,,,,,,,,,,,,,,,,,,,,,,,,,,,,,,,,,,,,,,,,0,3,3,2,1,,,,,,,,,,,,,,,,,,,,,,,,,,,,,,,,,,,,,,,,,,,,,,
903773,001,2022-11-20_17h51.11.407,Info_measure_main_exp,2022.2.2,Win32,54.45733268,,,,,,,,,,,,,,,,,,masks/mask_001.jpg,,,,,,,,,,,,,,,,,,,,,,,,,,,,,,,,,,,,,,,,,,,0,4,4,0,1,,,,,,,,,,,,,,,,,,,,,,,,,,,,,,,,,,,,,,,,,,,,,,
903773,001,2022-11-20_17h51.11.407,Info_measure_main_exp,2022.2.2,Win32,54.45733268,,,,,,,,,,,,,,,,,,masks/mask_001.jpg,,,,,,,,,,,,,,,,,,,,,,,,,,,,,,,,,,,,,,,,,,,,,,,,0,0,0,0,1,,,,,,,,,,,,,,,,,,,,,,,,,,,,,,,,,,,,,,,,,
903773,001,2022-11-20_17h51.11.407,Info_measure_main_exp,2022.2.2,Win32,54.45733268,,,,,,,,,,,,,,,,,,masks/mask_002.jpg,,,,,,,,,,,,,,,,,,,,,,,,,,,,,,,,,,,,,,,,,,,,,,,,0,1,1,1,1,,,,,,,,,,,,,,,,,,,,,,,,,,,,,,,,,,,,,,,,,
903773,001,2022-11-20_17h51.11.407,Info_measure_main_exp,2022.2.2,Win32,54.45733268,,,,,,,,,,,,,,,,,,masks/mask_004.jpg,,,,,,,,,,,,,,,,,,,,,,,,,,,,,,,,,,,,,,,,,,,,,,,,0,2,2,3,1,,,,,,,,,,,,,,,,,,,,,,,,,,,,,,,,,,,,,,,,,
903773,001,2022-11-20_17h51.11.407,Info_measure_main_exp,2022.2.2,Win32,54.45733268,,,,,,,,,,,,,,,,,,masks/mask_005.jpg,,,,,,,,,,,,,,,,,,,,,,,,,,,,,,,,,,,,,,,,,,,,,,,,0,3,3,4,1,,,,,,,,,,,,,,,,,,,,,,,,,,,,,,,,,,,,,,,,,
903773,001,2022-11-20_17h51.11.407,Info_measure_main_exp,2022.2.2,Win32,54.45733268,,,,,,,,,,,,,,,,,,masks/mask_003.jpg,,,,,,,,,,,,,,,,,,,,,,,,,,,,,,,,,,,,,,,,,,,,,,,,0,4,4,2,1,,,,,,,,,,,,,,,,,,,,,,,,,,,,,,,,,,,,,,,,,
903773,001,2022-11-20_17h51.11.407,Info_measure_main_exp,2022.2.2,Win32,54.45733268,,,,,,,,,,,,,,,,,,,,,,,,,,,,,,5,1.1828,1,,,,,,,,,,,,0,131,5,5,2250,2142,absent_patch/patch0002250.jpg,absent_patch/patch0002142.jpg,,,,,,,,,,,,,,,,,,,,0.075925968,-0.060185185,1,0,0,response3disk,5,-0.00462963,-0.013888889,1,0,0,center_square,0,4,4,71,1,,,,,,,,,,,,,,,,,,,,,,,
903773,001,2022-11-20_17h51.11.407,Info_measure_main_exp,2022.2.2,Win32,54.45733268,,,,,,,,,,,,,,,,,,masks/mask_003.jpg,,,,,,,,,,,,,,,,,,,,,,,,,,,,,,,,,,,,,,,,,,,0,0,0,2,1,,,,,,,,,,,,,,,,,,,,,,,,,,,,,,,,,,,,,,,,,,,,,,
903773,001,2022-11-20_17h51.11.407,Info_measure_main_exp,2022.2.2,Win32,54.45733268,,,,,,,,,,,,,,,,,,masks/mask_005.jpg,,,,,,,,,,,,,,,,,,,,,,,,,,,,,,,,,,,,,,,,,,,0,1,1,4,1,,,,,,,,,,,,,,,,,,,,,,,,,,,,,,,,,,,,,,,,,,,,,,
903773,001,2022-11-20_17h51.11.407,Info_measure_main_exp,2022.2.2,Win32,54.45733268,,,,,,,,,,,,,,,,,,masks/mask_002.jpg,,,,,,,,,,,,,,,,,,,,,,,,,,,,,,,,,,,,,,,,,,,0,2,2,1,1,,,,,,,,,,,,,,,,,,,,,,,,,,,,,,,,,,,,,,,,,,,,,,
903773,001,2022-11-20_17h51.11.407,Info_measure_main_exp,2022.2.2,Win32,54.45733268,,,,,,,,,,,,,,,,,,masks/mask_001.jpg,,,,,,,,,,,,,,,,,,,,,,,,,,,,,,,,,,,,,,,,,,,0,3,3,0,1,,,,,,,,,,,,,,,,,,,,,,,,,,,,,,,,,,,,,,,,,,,,,,
903773,001,2022-11-20_17h51.11.407,Info_measure_main_exp,2022.2.2,Win32,54.45733268,,,,,,,,,,,,,,,,,,masks/mask_004.jpg,,,,,,,,,,,,,,,,,,,,,,,,,,,,,,,,,,,,,,,,,,,0,4,4,3,1,,,,,,,,,,,,,,,,,,,,,,,,,,,,,,,,,,,,,,,,,,,,,,
903773,001,2022-11-20_17h51.11.407,Info_measure_main_exp,2022.2.2,Win32,54.45733268,,,,,,,,,,,,,,,,,,masks/mask_001.jpg,,,,,,,,,,,,,,,,,,,,,,,,,,,,,,,,,,,,,,,,,,,,,,,,0,0,0,0,1,,,,,,,,,,,,,,,,,,,,,,,,,,,,,,,,,,,,,,,,,
903773,001,2022-11-20_17h51.11.407,Info_measure_main_exp,2022.2.2,Win32,54.45733268,,,,,,,,,,,,,,,,,,masks/mask_005.jpg,,,,,,,,,,,,,,,,,,,,,,,,,,,,,,,,,,,,,,,,,,,,,,,,0,1,1,4,1,,,,,,,,,,,,,,,,,,,,,,,,,,,,,,,,,,,,,,,,,
903773,001,2022-11-20_17h51.11.407,Info_measure_main_exp,2022.2.2,Win32,54.45733268,,,,,,,,,,,,,,,,,,masks/mask_002.jpg,,,,,,,,,,,,,,,,,,,,,,,,,,,,,,,,,,,,,,,,,,,,,,,,0,2,2,1,1,,,,,,,,,,,,,,,,,,,,,,,,,,,,,,,,,,,,,,,,,
903773,001,2022-11-20_17h51.11.407,Info_measure_main_exp,2022.2.2,Win32,54.45733268,,,,,,,,,,,,,,,,,,masks/mask_004.jpg,,,,,,,,,,,,,,,,,,,,,,,,,,,,,,,,,,,,,,,,,,,,,,,,0,3,3,3,1,,,,,,,,,,,,,,,,,,,,,,,,,,,,,,,,,,,,,,,,,
903773,001,2022-11-20_17h51.11.407,Info_measure_main_exp,2022.2.2,Win32,54.45733268,,,,,,,,,,,,,,,,,,masks/mask_003.jpg,,,,,,,,,,,,,,,,,,,,,,,,,,,,,,,,,,,,,,,,,,,,,,,,0,4,4,2,1,,,,,,,,,,,,,,,,,,,,,,,,,,,,,,,,,,,,,,,,,
903773,001,2022-11-20_17h51.11.407,Info_measure_main_exp,2022.2.2,Win32,54.45733268,,,,,,,,,,,,,,,,,,,,,,,,,,,,,,6,1.4332,1,,,,,,,,,,,,0,131,5,5,2214,2178,absent_patch/patch0002214.jpg,absent_patch/patch0002178.jpg,,,,,,,,,,,,,,,,,,,,0.157407407,0.055555556,1,0,0,response1disk,6,0.000925912,-0.010185206,1,0,0,center_square,0,5,5,62,1,,,,,,,,,,,,,,,,,,,,,,,
903773,001,2022-11-20_17h51.11.407,Info_measure_main_exp,2022.2.2,Win32,54.45733268,,,,,,,,,,,,,,,,,,masks/mask_005.jpg,,,,,,,,,,,,,,,,,,,,,,,,,,,,,,,,,,,,,,,,,,,0,0,0,4,1,,,,,,,,,,,,,,,,,,,,,,,,,,,,,,,,,,,,,,,,,,,,,,
903773,001,2022-11-20_17h51.11.407,Info_measure_main_exp,2022.2.2,Win32,54.45733268,,,,,,,,,,,,,,,,,,masks/mask_001.jpg,,,,,,,,,,,,,,,,,,,,,,,,,,,,,,,,,,,,,,,,,,,0,1,1,0,1,,,,,,,,,,,,,,,,,,,,,,,,,,,,,,,,,,,,,,,,,,,,,,
903773,001,2022-11-20_17h51.11.407,Info_measure_main_exp,2022.2.2,Win32,54.45733268,,,,,,,,,,,,,,,,,,masks/mask_003.jpg,,,,,,,,,,,,,,,,,,,,,,,,,,,,,,,,,,,,,,,,,,,0,2,2,2,1,,,,,,,,,,,,,,,,,,,,,,,,,,,,,,,,,,,,,,,,,,,,,,
903773,001,2022-11-20_17h51.11.407,Info_measure_main_exp,2022.2.2,Win32,54.45733268,,,,,,,,,,,,,,,,,,masks/mask_004.jpg,,,,,,,,,,,,,,,,,,,,,,,,,,,,,,,,,,,,,,,,,,,0,3,3,3,1,,,,,,,,,,,,,,,,,,,,,,,,,,,,,,,,,,,,,,,,,,,,,,
903773,001,2022-11-20_17h51.11.407,Info_measure_main_exp,2022.2.2,Win32,54.45733268,,,,,,,,,,,,,,,,,,masks/mask_002.jpg,,,,,,,,,,,,,,,,,,,,,,,,,,,,,,,,,,,,,,,,,,,0,4,4,1,1,,,,,,,,,,,,,,,,,,,,,,,,,,,,,,,,,,,,,,,,,,,,,,
903773,001,2022-11-20_17h51.11.407,Info_measure_main_exp,2022.2.2,Win32,54.45733268,,,,,,,,,,,,,,,,,,masks/mask_003.jpg,,,,,,,,,,,,,,,,,,,,,,,,,,,,,,,,,,,,,,,,,,,,,,,,0,0,0,2,1,,,,,,,,,,,,,,,,,,,,,,,,,,,,,,,,,,,,,,,,,
903773,001,2022-11-20_17h51.11.407,Info_measure_main_exp,2022.2.2,Win32,54.45733268,,,,,,,,,,,,,,,,,,masks/mask_004.jpg,,,,,,,,,,,,,,,,,,,,,,,,,,,,,,,,,,,,,,,,,,,,,,,,0,1,1,3,1,,,,,,,,,,,,,,,,,,,,,,,,,,,,,,,,,,,,,,,,,
903773,001,2022-11-20_17h51.11.407,Info_measure_main_exp,2022.2.2,Win32,54.45733268,,,,,,,,,,,,,,,,,,masks/mask_005.jpg,,,,,,,,,,,,,,,,,,,,,,,,,,,,,,,,,,,,,,,,,,,,,,,,0,2,2,4,1,,,,,,,,,,,,,,,,,,,,,,,,,,,,,,,,,,,,,,,,,
903773,001,2022-11-20_17h51.11.407,Info_measure_main_exp,2022.2.2,Win32,54.45733268,,,,,,,,,,,,,,,,,,masks/mask_001.jpg,,,,,,,,,,,,,,,,,,,,,,,,,,,,,,,,,,,,,,,,,,,,,,,,0,3,3,0,1,,,,,,,,,,,,,,,,,,,,,,,,,,,,,,,,,,,,,,,,,
903773,001,2022-11-20_17h51.11.407,Info_measure_main_exp,2022.2.2,Win32,54.45733268,,,,,,,,,,,,,,,,,,masks/mask_002.jpg,,,,,,,,,,,,,,,,,,,,,,,,,,,,,,,,,,,,,,,,,,,,,,,,0,4,4,1,1,,,,,,,,,,,,,,,,,,,,,,,,,,,,,,,,,,,,,,,,,
903773,001,2022-11-20_17h51.11.407,Info_measure_main_exp,2022.2.2,Win32,54.45733268,,,,,,,,,,,,,,,,,,,,,,,,,,,,,,3,1.351,1,,,,,,,,,,,,0,131,5,5,2250,2238,absent_patch/patch0002250.jpg,absent_patch/patch0002238.jpg,,,,,,,,,,,,,,,,,,,,-0.020370342,-0.119444459,1,0,0,response5disk,7,0.012962977,0.006481489,1,0,0,center_square,0,6,6,110,1,,,,,,,,,,,,,,,,,,,,,,,
903773,001,2022-11-20_17h51.11.407,Info_measure_main_exp,2022.2.2,Win32,54.45733268,,,,,,,,,,,,,,,,,,masks/mask_003.jpg,,,,,,,,,,,,,,,,,,,,,,,,,,,,,,,,,,,,,,,,,,,0,0,0,2,1,,,,,,,,,,,,,,,,,,,,,,,,,,,,,,,,,,,,,,,,,,,,,,
903773,001,2022-11-20_17h51.11.407,Info_measure_main_exp,2022.2.2,Win32,54.45733268,,,,,,,,,,,,,,,,,,masks/mask_002.jpg,,,,,,,,,,,,,,,,,,,,,,,,,,,,,,,,,,,,,,,,,,,0,1,1,1,1,,,,,,,,,,,,,,,,,,,,,,,,,,,,,,,,,,,,,,,,,,,,,,
903773,001,2022-11-20_17h51.11.407,Info_measure_main_exp,2022.2.2,Win32,54.45733268,,,,,,,,,,,,,,,,,,masks/mask_005.jpg,,,,,,,,,,,,,,,,,,,,,,,,,,,,,,,,,,,,,,,,,,,0,2,2,4,1,,,,,,,,,,,,,,,,,,,,,,,,,,,,,,,,,,,,,,,,,,,,,,
903773,001,2022-11-20_17h51.11.407,Info_measure_main_exp,2022.2.2,Win32,54.45733268,,,,,,,,,,,,,,,,,,masks/mask_004.jpg,,,,,,,,,,,,,,,,,,,,,,,,,,,,,,,,,,,,,,,,,,,0,3,3,3,1,,,,,,,,,,,,,,,,,,,,,,,,,,,,,,,,,,,,,,,,,,,,,,
903773,001,2022-11-20_17h51.11.407,Info_measure_main_exp,2022.2.2,Win32,54.45733268,,,,,,,,,,,,,,,,,,masks/mask_001.jpg,,,,,,,,,,,,,,,,,,,,,,,,,,,,,,,,,,,,,,,,,,,0,4,4,0,1,,,,,,,,,,,,,,,,,,,,,,,,,,,,,,,,,,,,,,,,,,,,,,
903773,001,2022-11-20_17h51.11.407,Info_measure_main_exp,2022.2.2,Win32,54.45733268,,,,,,,,,,,,,,,,,,masks/mask_003.jpg,,,,,,,,,,,,,,,,,,,,,,,,,,,,,,,,,,,,,,,,,,,,,,,,0,0,0,2,1,,,,,,,,,,,,,,,,,,,,,,,,,,,,,,,,,,,,,,,,,
903773,001,2022-11-20_17h51.11.407,Info_measure_main_exp,2022.2.2,Win32,54.45733268,,,,,,,,,,,,,,,,,,masks/mask_004.jpg,,,,,,,,,,,,,,,,,,,,,,,,,,,,,,,,,,,,,,,,,,,,,,,,0,1,1,3,1,,,,,,,,,,,,,,,,,,,,,,,,,,,,,,,,,,,,,,,,,
903773,001,2022-11-20_17h51.11.407,Info_measure_main_exp,2022.2.2,Win32,54.45733268,,,,,,,,,,,,,,,,,,masks/mask_002.jpg,,,,,,,,,,,,,,,,,,,,,,,,,,,,,,,,,,,,,,,,,,,,,,,,0,2,2,1,1,,,,,,,,,,,,,,,,,,,,,,,,,,,,,,,,,,,,,,,,,
903773,001,2022-11-20_17h51.11.407,Info_measure_main_exp,2022.2.2,Win32,54.45733268,,,,,,,,,,,,,,,,,,masks/mask_001.jpg,,,,,,,,,,,,,,,,,,,,,,,,,,,,,,,,,,,,,,,,,,,,,,,,0,3,3,0,1,,,,,,,,,,,,,,,,,,,,,,,,,,,,,,,,,,,,,,,,,
903773,001,2022-11-20_17h51.11.407,Info_measure_main_exp,2022.2.2,Win32,54.45733268,,,,,,,,,,,,,,,,,,masks/mask_005.jpg,,,,,,,,,,,,,,,,,,,,,,,,,,,,,,,,,,,,,,,,,,,,,,,,0,4,4,4,1,,,,,,,,,,,,,,,,,,,,,,,,,,,,,,,,,,,,,,,,,
903773,001,2022-11-20_17h51.11.407,Info_measure_main_exp,2022.2.2,Win32,54.45733268,,,,,,,,,,,,,,,,,,,,,,,,,,,,,,7,1.502,1,,,,,,,,,,,,0,131,5,5,2250,2178,absent_patch/patch0002250.jpg,absent_patch/patch0002178.jpg,,,,,,,,,,,,,,,,,,,,0.090740769,0.128703683,1,0,0,response1disk,8,0.011111153,-0.002777771,1,0,0,center_square,0,7,7,48,1,,,,,,,,,,,,,,,,,,,,,,,
903773,001,2022-11-20_17h51.11.407,Info_measure_main_exp,2022.2.2,Win32,54.45733268,,,,,,,,,,,,,,,,,,masks/mask_002.jpg,,,,,,,,,,,,,,,,,,,,,,,,,,,,,,,,,,,,,,,,,,,0,0,0,1,1,,,,,,,,,,,,,,,,,,,,,,,,,,,,,,,,,,,,,,,,,,,,,,
903773,001,2022-11-20_17h51.11.407,Info_measure_main_exp,2022.2.2,Win32,54.45733268,,,,,,,,,,,,,,,,,,masks/mask_005.jpg,,,,,,,,,,,,,,,,,,,,,,,,,,,,,,,,,,,,,,,,,,,0,1,1,4,1,,,,,,,,,,,,,,,,,,,,,,,,,,,,,,,,,,,,,,,,,,,,,,
903773,001,2022-11-20_17h51.11.407,Info_measure_main_exp,2022.2.2,Win32,54.45733268,,,,,,,,,,,,,,,,,,masks/mask_003.jpg,,,,,,,,,,,,,,,,,,,,,,,,,,,,,,,,,,,,,,,,,,,0,2,2,2,1,,,,,,,,,,,,,,,,,,,,,,,,,,,,,,,,,,,,,,,,,,,,,,
903773,001,2022-11-20_17h51.11.407,Info_measure_main_exp,2022.2.2,Win32,54.45733268,,,,,,,,,,,,,,,,,,masks/mask_004.jpg,,,,,,,,,,,,,,,,,,,,,,,,,,,,,,,,,,,,,,,,,,,0,3,3,3,1,,,,,,,,,,,,,,,,,,,,,,,,,,,,,,,,,,,,,,,,,,,,,,
903773,001,2022-11-20_17h51.11.407,Info_measure_main_exp,2022.2.2,Win32,54.45733268,,,,,,,,,,,,,,,,,,masks/mask_001.jpg,,,,,,,,,,,,,,,,,,,,,,,,,,,,,,,,,,,,,,,,,,,0,4,4,0,1,,,,,,,,,,,,,,,,,,,,,,,,,,,,,,,,,,,,,,,,,,,,,,
903773,001,2022-11-20_17h51.11.407,Info_measure_main_exp,2022.2.2,Win32,54.45733268,,,,,,,,,,,,,,,,,,masks/mask_002.jpg,,,,,,,,,,,,,,,,,,,,,,,,,,,,,,,,,,,,,,,,,,,,,,,,0,0,0,1,1,,,,,,,,,,,,,,,,,,,,,,,,,,,,,,,,,,,,,,,,,
903773,001,2022-11-20_17h51.11.407,Info_measure_main_exp,2022.2.2,Win32,54.45733268,,,,,,,,,,,,,,,,,,masks/mask_004.jpg,,,,,,,,,,,,,,,,,,,,,,,,,,,,,,,,,,,,,,,,,,,,,,,,0,1,1,3,1,,,,,,,,,,,,,,,,,,,,,,,,,,,,,,,,,,,,,,,,,
903773,001,2022-11-20_17h51.11.407,Info_measure_main_exp,2022.2.2,Win32,54.45733268,,,,,,,,,,,,,,,,,,masks/mask_001.jpg,,,,,,,,,,,,,,,,,,,,,,,,,,,,,,,,,,,,,,,,,,,,,,,,0,2,2,0,1,,,,,,,,,,,,,,,,,,,,,,,,,,,,,,,,,,,,,,,,,
903773,001,2022-11-20_17h51.11.407,Info_measure_main_exp,2022.2.2,Win32,54.45733268,,,,,,,,,,,,,,,,,,masks/mask_005.jpg,,,,,,,,,,,,,,,,,,,,,,,,,,,,,,,,,,,,,,,,,,,,,,,,0,3,3,4,1,,,,,,,,,,,,,,,,,,,,,,,,,,,,,,,,,,,,,,,,,
903773,001,2022-11-20_17h51.11.407,Info_measure_main_exp,2022.2.2,Win32,54.45733268,,,,,,,,,,,,,,,,,,masks/mask_003.jpg,,,,,,,,,,,,,,,,,,,,,,,,,,,,,,,,,,,,,,,,,,,,,,,,0,4,4,2,1,,,,,,,,,,,,,,,,,,,,,,,,,,,,,,,,,,,,,,,,,
903773,001,2022-11-20_17h51.11.407,Info_measure_main_exp,2022.2.2,Win32,54.45733268,,,,,,,,,,,,,,,,,,,,,,,,,,,,,,7,2.0167,1,,,,,,,,,,,,0,131,5,5,1974,2250,absent_patch/patch0001974.jpg,absent_patch/patch0002250.jpg,,,,,,,,,,,,,,,,,,,,0.062037079,0.12037037,1,0,0,response1disk,9,-0.001851824,-0.009259259,1,0,0,center_square,0,8,8,55,1,,,,,,,,,,,,,,,,,,,,,,,
903773,001,2022-11-20_17h51.11.407,Info_measure_main_exp,2022.2.2,Win32,54.45733268,,,,,,,,,,,,,,,,,,masks/mask_004.jpg,,,,,,,,,,,,,,,,,,,,,,,,,,,,,,,,,,,,,,,,,,,0,0,0,3,1,,,,,,,,,,,,,,,,,,,,,,,,,,,,,,,,,,,,,,,,,,,,,,
903773,001,2022-11-20_17h51.11.407,Info_measure_main_exp,2022.2.2,Win32,54.45733268,,,,,,,,,,,,,,,,,,masks/mask_005.jpg,,,,,,,,,,,,,,,,,,,,,,,,,,,,,,,,,,,,,,,,,,,0,1,1,4,1,,,,,,,,,,,,,,,,,,,,,,,,,,,,,,,,,,,,,,,,,,,,,,
903773,001,2022-11-20_17h51.11.407,Info_measure_main_exp,2022.2.2,Win32,54.45733268,,,,,,,,,,,,,,,,,,masks/mask_001.jpg,,,,,,,,,,,,,,,,,,,,,,,,,,,,,,,,,,,,,,,,,,,0,2,2,0,1,,,,,,,,,,,,,,,,,,,,,,,,,,,,,,,,,,,,,,,,,,,,,,
903773,001,2022-11-20_17h51.11.407,Info_measure_main_exp,2022.2.2,Win32,54.45733268,,,,,,,,,,,,,,,,,,masks/mask_003.jpg,,,,,,,,,,,,,,,,,,,,,,,,,,,,,,,,,,,,,,,,,,,0,3,3,2,1,,,,,,,,,,,,,,,,,,,,,,,,,,,,,,,,,,,,,,,,,,,,,,
903773,001,2022-11-20_17h51.11.407,Info_measure_main_exp,2022.2.2,Win32,54.45733268,,,,,,,,,,,,,,,,,,masks/mask_002.jpg,,,,,,,,,,,,,,,,,,,,,,,,,,,,,,,,,,,,,,,,,,,0,4,4,1,1,,,,,,,,,,,,,,,,,,,,,,,,,,,,,,,,,,,,,,,,,,,,,,
903773,001,2022-11-20_17h51.11.407,Info_measure_main_exp,2022.2.2,Win32,54.45733268,,,,,,,,,,,,,,,,,,masks/mask_004.jpg,,,,,,,,,,,,,,,,,,,,,,,,,,,,,,,,,,,,,,,,,,,,,,,,0,0,0,3,1,,,,,,,,,,,,,,,,,,,,,,,,,,,,,,,,,,,,,,,,,
903773,001,2022-11-20_17h51.11.407,Info_measure_main_exp,2022.2.2,Win32,54.45733268,,,,,,,,,,,,,,,,,,masks/mask_002.jpg,,,,,,,,,,,,,,,,,,,,,,,,,,,,,,,,,,,,,,,,,,,,,,,,0,1,1,1,1,,,,,,,,,,,,,,,,,,,,,,,,,,,,,,,,,,,,,,,,,
903773,001,2022-11-20_17h51.11.407,Info_measure_main_exp,2022.2.2,Win32,54.45733268,,,,,,,,,,,,,,,,,,masks/mask_001.jpg,,,,,,,,,,,,,,,,,,,,,,,,,,,,,,,,,,,,,,,,,,,,,,,,0,2,2,0,1,,,,,,,,,,,,,,,,,,,,,,,,,,,,,,,,,,,,,,,,,
903773,001,2022-11-20_17h51.11.407,Info_measure_main_exp,2022.2.2,Win32,54.45733268,,,,,,,,,,,,,,,,,,masks/mask_005.jpg,,,,,,,,,,,,,,,,,,,,,,,,,,,,,,,,,,,,,,,,,,,,,,,,0,3,3,4,1,,,,,,,,,,,,,,,,,,,,,,,,,,,,,,,,,,,,,,,,,
903773,001,2022-11-20_17h51.11.407,Info_measure_main_exp,2022.2.2,Win32,54.45733268,,,,,,,,,,,,,,,,,,masks/mask_003.jpg,,,,,,,,,,,,,,,,,,,,,,,,,,,,,,,,,,,,,,,,,,,,,,,,0,4,4,2,1,,,,,,,,,,,,,,,,,,,,,,,,,,,,,,,,,,,,,,,,,
903773,001,2022-11-20_17h51.11.407,Info_measure_main_exp,2022.2.2,Win32,54.45733268,,,,,,,,,,,,,,,,,,,,,,,,,,,,,,4,2.532,1,,,,,,,,,,,,0,131,5,5,2154,2238,absent_patch/patch0002154.jpg,absent_patch/patch0002238.jpg,,,,,,,,,,,,,,,,,,,,0.029629672,-0.134259259,1,0,0,response3disk,10,-0.003703718,-0.006481489,1,0,0,center_square,0,9,9,21,1,,,,,,,,,,,,,,,,,,,,,,,
903773,001,2022-11-20_17h51.11.407,Info_measure_main_exp,2022.2.2,Win32,54.45733268,,,,,,,,,,,,,,,,,,masks/mask_004.jpg,,,,,,,,,,,,,,,,,,,,,,,,,,,,,,,,,,,,,,,,,,,0,0,0,3,1,,,,,,,,,,,,,,,,,,,,,,,,,,,,,,,,,,,,,,,,,,,,,,
903773,001,2022-11-20_17h51.11.407,Info_measure_main_exp,2022.2.2,Win32,54.45733268,,,,,,,,,,,,,,,,,,masks/mask_003.jpg,,,,,,,,,,,,,,,,,,,,,,,,,,,,,,,,,,,,,,,,,,,0,1,1,2,1,,,,,,,,,,,,,,,,,,,,,,,,,,,,,,,,,,,,,,,,,,,,,,
903773,001,2022-11-20_17h51.11.407,Info_measure_main_exp,2022.2.2,Win32,54.45733268,,,,,,,,,,,,,,,,,,masks/mask_001.jpg,,,,,,,,,,,,,,,,,,,,,,,,,,,,,,,,,,,,,,,,,,,0,2,2,0,1,,,,,,,,,,,,,,,,,,,,,,,,,,,,,,,,,,,,,,,,,,,,,,
903773,001,2022-11-20_17h51.11.407,Info_measure_main_exp,2022.2.2,Win32,54.45733268,,,,,,,,,,,,,,,,,,masks/mask_002.jpg,,,,,,,,,,,,,,,,,,,,,,,,,,,,,,,,,,,,,,,,,,,0,3,3,1,1,,,,,,,,,,,,,,,,,,,,,,,,,,,,,,,,,,,,,,,,,,,,,,
903773,001,2022-11-20_17h51.11.407,Info_measure_main_exp,2022.2.2,Win32,54.45733268,,,,,,,,,,,,,,,,,,masks/mask_005.jpg,,,,,,,,,,,,,,,,,,,,,,,,,,,,,,,,,,,,,,,,,,,0,4,4,4,1,,,,,,,,,,,,,,,,,,,,,,,,,,,,,,,,,,,,,,,,,,,,,,
903773,001,2022-11-20_17h51.11.407,Info_measure_main_exp,2022.2.2,Win32,54.45733268,,,,,,,,,,,,,,,,,,masks/mask_002.jpg,,,,,,,,,,,,,,,,,,,,,,,,,,,,,,,,,,,,,,,,,,,,,,,,0,0,0,1,1,,,,,,,,,,,,,,,,,,,,,,,,,,,,,,,,,,,,,,,,,
903773,001,2022-11-20_17h51.11.407,Info_measure_main_exp,2022.2.2,Win32,54.45733268,,,,,,,,,,,,,,,,,,masks/mask_003.jpg,,,,,,,,,,,,,,,,,,,,,,,,,,,,,,,,,,,,,,,,,,,,,,,,0,1,1,2,1,,,,,,,,,,,,,,,,,,,,,,,,,,,,,,,,,,,,,,,,,
903773,001,2022-11-20_17h51.11.407,Info_measure_main_exp,2022.2.2,Win32,54.45733268,,,,,,,,,,,,,,,,,,masks/mask_005.jpg,,,,,,,,,,,,,,,,,,,,,,,,,,,,,,,,,,,,,,,,,,,,,,,,0,2,2,4,1,,,,,,,,,,,,,,,,,,,,,,,,,,,,,,,,,,,,,,,,,
903773,001,2022-11-20_17h51.11.407,Info_measure_main_exp,2022.2.2,Win32,54.45733268,,,,,,,,,,,,,,,,,,masks/mask_001.jpg,,,,,,,,,,,,,,,,,,,,,,,,,,,,,,,,,,,,,,,,,,,,,,,,0,3,3,0,1,,,,,,,,,,,,,,,,,,,,,,,,,,,,,,,,,,,,,,,,,
903773,001,2022-11-20_17h51.11.407,Info_measure_main_exp,2022.2.2,Win32,54.45733268,,,,,,,,,,,,,,,,,,masks/mask_004.jpg,,,,,,,,,,,,,,,,,,,,,,,,,,,,,,,,,,,,,,,,,,,,,,,,0,4,4,3,1,,,,,,,,,,,,,,,,,,,,,,,,,,,,,,,,,,,,,,,,,
903773,001,2022-11-20_17h51.11.407,Info_measure_main_exp,2022.2.2,Win32,54.45733268,,,,,,,,,,,,,,,,,,,,,,,,,,,,,,7,1.4495,1,,,,,,,,,,,,0,131,5,5,2166,2154,absent_patch/patch0002166.jpg,absent_patch/patch0002154.jpg,,,,,,,,,,,,,,,,,,,,0.043518561,0.146296289,1,0,0,response1disk,11,0.003703718,0.000925912,1,0,0,center_square,0,10,10,79,1,,,,,,,,,,,,,,,,,,,,,,,
903773,001,2022-11-20_17h51.11.407,Info_measure_main_exp,2022.2.2,Win32,54.45733268,,,,,,,,,,,,,,,,,,masks/mask_002.jpg,,,,,,,,,,,,,,,,,,,,,,,,,,,,,,,,,,,,,,,,,,,0,0,0,1,1,,,,,,,,,,,,,,,,,,,,,,,,,,,,,,,,,,,,,,,,,,,,,,
903773,001,2022-11-20_17h51.11.407,Info_measure_main_exp,2022.2.2,Win32,54.45733268,,,,,,,,,,,,,,,,,,masks/mask_001.jpg,,,,,,,,,,,,,,,,,,,,,,,,,,,,,,,,,,,,,,,,,,,0,1,1,0,1,,,,,,,,,,,,,,,,,,,,,,,,,,,,,,,,,,,,,,,,,,,,,,
903773,001,2022-11-20_17h51.11.407,Info_measure_main_exp,2022.2.2,Win32,54.45733268,,,,,,,,,,,,,,,,,,masks/mask_003.jpg,,,,,,,,,,,,,,,,,,,,,,,,,,,,,,,,,,,,,,,,,,,0,2,2,2,1,,,,,,,,,,,,,,,,,,,,,,,,,,,,,,,,,,,,,,,,,,,,,,
903773,001,2022-11-20_17h51.11.407,Info_measure_main_exp,2022.2.2,Win32,54.45733268,,,,,,,,,,,,,,,,,,masks/mask_004.jpg,,,,,,,,,,,,,,,,,,,,,,,,,,,,,,,,,,,,,,,,,,,0,3,3,3,1,,,,,,,,,,,,,,,,,,,,,,,,,,,,,,,,,,,,,,,,,,,,,,
903773,001,2022-11-20_17h51.11.407,Info_measure_main_exp,2022.2.2,Win32,54.45733268,,,,,,,,,,,,,,,,,,masks/mask_005.jpg,,,,,,,,,,,,,,,,,,,,,,,,,,,,,,,,,,,,,,,,,,,0,4,4,4,1,,,,,,,,,,,,,,,,,,,,,,,,,,,,,,,,,,,,,,,,,,,,,,
903773,001,2022-11-20_17h51.11.407,Info_measure_main_exp,2022.2.2,Win32,54.45733268,,,,,,,,,,,,,,,,,,masks/mask_001.jpg,,,,,,,,,,,,,,,,,,,,,,,,,,,,,,,,,,,,,,,,,,,,,,,,0,0,0,0,1,,,,,,,,,,,,,,,,,,,,,,,,,,,,,,,,,,,,,,,,,
903773,001,2022-11-20_17h51.11.407,Info_measure_main_exp,2022.2.2,Win32,54.45733268,,,,,,,,,,,,,,,,,,masks/mask_003.jpg,,,,,,,,,,,,,,,,,,,,,,,,,,,,,,,,,,,,,,,,,,,,,,,,0,1,1,2,1,,,,,,,,,,,,,,,,,,,,,,,,,,,,,,,,,,,,,,,,,
903773,001,2022-11-20_17h51.11.407,Info_measure_main_exp,2022.2.2,Win32,54.45733268,,,,,,,,,,,,,,,,,,masks/mask_005.jpg,,,,,,,,,,,,,,,,,,,,,,,,,,,,,,,,,,,,,,,,,,,,,,,,0,2,2,4,1,,,,,,,,,,,,,,,,,,,,,,,,,,,,,,,,,,,,,,,,,
903773,001,2022-11-20_17h51.11.407,Info_measure_main_exp,2022.2.2,Win32,54.45733268,,,,,,,,,,,,,,,,,,masks/mask_004.jpg,,,,,,,,,,,,,,,,,,,,,,,,,,,,,,,,,,,,,,,,,,,,,,,,0,3,3,3,1,,,,,,,,,,,,,,,,,,,,,,,,,,,,,,,,,,,,,,,,,
903773,001,2022-11-20_17h51.11.407,Info_measure_main_exp,2022.2.2,Win32,54.45733268,,,,,,,,,,,,,,,,,,masks/mask_002.jpg,,,,,,,,,,,,,,,,,,,,,,,,,,,,,,,,,,,,,,,,,,,,,,,,0,4,4,1,1,,,,,,,,,,,,,,,,,,,,,,,,,,,,,,,,,,,,,,,,,
903773,001,2022-11-20_17h51.11.407,Info_measure_main_exp,2022.2.2,Win32,54.45733268,,,,,,,,,,,,,,,,,,,,,,,,,,,,,,5,17.6206,1,,,,,,,,,,,,0,131,5,5,2166,2166,absent_patch/patch0002166.jpg,absent_patch/patch0002166.jpg,,,,,,,,,,,,,,,,,,,,0.074999986,-0.037962984,1,0,0,response3disk,12,-0.006481453,-0.0074074,1,0,0,center_square,0,11,11,42,1,,,,,,,,,,,,,,,,,,,,,,,
903773,001,2022-11-20_17h51.11.407,Info_measure_main_exp,2022.2.2,Win32,54.45733268,,,,,,,,,,,,,,,,,,masks/mask_005.jpg,,,,,,,,,,,,,,,,,,,,,,,,,,,,,,,,,,,,,,,,,,,0,0,0,4,1,,,,,,,,,,,,,,,,,,,,,,,,,,,,,,,,,,,,,,,,,,,,,,
903773,001,2022-11-20_17h51.11.407,Info_measure_main_exp,2022.2.2,Win32,54.45733268,,,,,,,,,,,,,,,,,,masks/mask_004.jpg,,,,,,,,,,,,,,,,,,,,,,,,,,,,,,,,,,,,,,,,,,,0,1,1,3,1,,,,,,,,,,,,,,,,,,,,,,,,,,,,,,,,,,,,,,,,,,,,,,
903773,001,2022-11-20_17h51.11.407,Info_measure_main_exp,2022.2.2,Win32,54.45733268,,,,,,,,,,,,,,,,,,masks/mask_003.jpg,,,,,,,,,,,,,,,,,,,,,,,,,,,,,,,,,,,,,,,,,,,0,2,2,2,1,,,,,,,,,,,,,,,,,,,,,,,,,,,,,,,,,,,,,,,,,,,,,,
903773,001,2022-11-20_17h51.11.407,Info_measure_main_exp,2022.2.2,Win32,54.45733268,,,,,,,,,,,,,,,,,,masks/mask_001.jpg,,,,,,,,,,,,,,,,,,,,,,,,,,,,,,,,,,,,,,,,,,,0,3,3,0,1,,,,,,,,,,,,,,,,,,,,,,,,,,,,,,,,,,,,,,,,,,,,,,
903773,001,2022-11-20_17h51.11.407,Info_measure_main_exp,2022.2.2,Win32,54.45733268,,,,,,,,,,,,,,,,,,masks/mask_002.jpg,,,,,,,,,,,,,,,,,,,,,,,,,,,,,,,,,,,,,,,,,,,0,4,4,1,1,,,,,,,,,,,,,,,,,,,,,,,,,,,,,,,,,,,,,,,,,,,,,,
903773,001,2022-11-20_17h51.11.407,Info_measure_main_exp,2022.2.2,Win32,54.45733268,,,,,,,,,,,,,,,,,,masks/mask_002.jpg,,,,,,,,,,,,,,,,,,,,,,,,,,,,,,,,,,,,,,,,,,,,,,,,0,0,0,1,1,,,,,,,,,,,,,,,,,,,,,,,,,,,,,,,,,,,,,,,,,
903773,001,2022-11-20_17h51.11.407,Info_measure_main_exp,2022.2.2,Win32,54.45733268,,,,,,,,,,,,,,,,,,masks/mask_003.jpg,,,,,,,,,,,,,,,,,,,,,,,,,,,,,,,,,,,,,,,,,,,,,,,,0,1,1,2,1,,,,,,,,,,,,,,,,,,,,,,,,,,,,,,,,,,,,,,,,,
903773,001,2022-11-20_17h51.11.407,Info_measure_main_exp,2022.2.2,Win32,54.45733268,,,,,,,,,,,,,,,,,,masks/mask_001.jpg,,,,,,,,,,,,,,,,,,,,,,,,,,,,,,,,,,,,,,,,,,,,,,,,0,2,2,0,1,,,,,,,,,,,,,,,,,,,,,,,,,,,,,,,,,,,,,,,,,
903773,001,2022-11-20_17h51.11.407,Info_measure_main_exp,2022.2.2,Win32,54.45733268,,,,,,,,,,,,,,,,,,masks/mask_005.jpg,,,,,,,,,,,,,,,,,,,,,,,,,,,,,,,,,,,,,,,,,,,,,,,,0,3,3,4,1,,,,,,,,,,,,,,,,,,,,,,,,,,,,,,,,,,,,,,,,,
903773,001,2022-11-20_17h51.11.407,Info_measure_main_exp,2022.2.2,Win32,54.45733268,,,,,,,,,,,,,,,,,,masks/mask_004.jpg,,,,,,,,,,,,,,,,,,,,,,,,,,,,,,,,,,,,,,,,,,,,,,,,0,4,4,3,1,,,,,,,,,,,,,,,,,,,,,,,,,,,,,,,,,,,,,,,,,
903773,001,2022-11-20_17h51.11.407,Info_measure_main_exp,2022.2.2,Win32,54.45733268,,,,,,,,,,,,,,,,,,,,,,,,,,,,,,2,1.6336,1,,,,,,,,,,,,0,131,5,5,2214,2082,absent_patch/patch0002214.jpg,absent_patch/patch0002082.jpg,,,,,,,,,,,,,,,,,,,,-0.084259245,-0.067592586,1,0,0,response5disk,13,0.002777806,0.010185171,1,0,0,center_square,0,12,12,103,1,,,,,,,,,,,,,,,,,,,,,,,
903773,001,2022-11-20_17h51.11.407,Info_measure_main_exp,2022.2.2,Win32,54.45733268,,,,,,,,,,,,,,,,,,masks/mask_004.jpg,,,,,,,,,,,,,,,,,,,,,,,,,,,,,,,,,,,,,,,,,,,0,0,0,3,1,,,,,,,,,,,,,,,,,,,,,,,,,,,,,,,,,,,,,,,,,,,,,,
903773,001,2022-11-20_17h51.11.407,Info_measure_main_exp,2022.2.2,Win32,54.45733268,,,,,,,,,,,,,,,,,,masks/mask_003.jpg,,,,,,,,,,,,,,,,,,,,,,,,,,,,,,,,,,,,,,,,,,,0,1,1,2,1,,,,,,,,,,,,,,,,,,,,,,,,,,,,,,,,,,,,,,,,,,,,,,
903773,001,2022-11-20_17h51.11.407,Info_measure_main_exp,2022.2.2,Win32,54.45733268,,,,,,,,,,,,,,,,,,masks/mask_005.jpg,,,,,,,,,,,,,,,,,,,,,,,,,,,,,,,,,,,,,,,,,,,0,2,2,4,1,,,,,,,,,,,,,,,,,,,,,,,,,,,,,,,,,,,,,,,,,,,,,,
903773,001,2022-11-20_17h51.11.407,Info_measure_main_exp,2022.2.2,Win32,54.45733268,,,,,,,,,,,,,,,,,,masks/mask_001.jpg,,,,,,,,,,,,,,,,,,,,,,,,,,,,,,,,,,,,,,,,,,,0,3,3,0,1,,,,,,,,,,,,,,,,,,,,,,,,,,,,,,,,,,,,,,,,,,,,,,
903773,001,2022-11-20_17h51.11.407,Info_measure_main_exp,2022.2.2,Win32,54.45733268,,,,,,,,,,,,,,,,,,masks/mask_002.jpg,,,,,,,,,,,,,,,,,,,,,,,,,,,,,,,,,,,,,,,,,,,0,4,4,1,1,,,,,,,,,,,,,,,,,,,,,,,,,,,,,,,,,,,,,,,,,,,,,,
903773,001,2022-11-20_17h51.11.407,Info_measure_main_exp,2022.2.2,Win32,54.45733268,,,,,,,,,,,,,,,,,,masks/mask_003.jpg,,,,,,,,,,,,,,,,,,,,,,,,,,,,,,,,,,,,,,,,,,,,,,,,0,0,0,2,1,,,,,,,,,,,,,,,,,,,,,,,,,,,,,,,,,,,,,,,,,
903773,001,2022-11-20_17h51.11.407,Info_measure_main_exp,2022.2.2,Win32,54.45733268,,,,,,,,,,,,,,,,,,masks/mask_005.jpg,,,,,,,,,,,,,,,,,,,,,,,,,,,,,,,,,,,,,,,,,,,,,,,,0,1,1,4,1,,,,,,,,,,,,,,,,,,,,,,,,,,,,,,,,,,,,,,,,,
903773,001,2022-11-20_17h51.11.407,Info_measure_main_exp,2022.2.2,Win32,54.45733268,,,,,,,,,,,,,,,,,,masks/mask_001.jpg,,,,,,,,,,,,,,,,,,,,,,,,,,,,,,,,,,,,,,,,,,,,,,,,0,2,2,0,1,,,,,,,,,,,,,,,,,,,,,,,,,,,,,,,,,,,,,,,,,
903773,001,2022-11-20_17h51.11.407,Info_measure_main_exp,2022.2.2,Win32,54.45733268,,,,,,,,,,,,,,,,,,masks/mask_002.jpg,,,,,,,,,,,,,,,,,,,,,,,,,,,,,,,,,,,,,,,,,,,,,,,,0,3,3,1,1,,,,,,,,,,,,,,,,,,,,,,,,,,,,,,,,,,,,,,,,,
903773,001,2022-11-20_17h51.11.407,Info_measure_main_exp,2022.2.2,Win32,54.45733268,,,,,,,,,,,,,,,,,,masks/mask_004.jpg,,,,,,,,,,,,,,,,,,,,,,,,,,,,,,,,,,,,,,,,,,,,,,,,0,4,4,3,1,,,,,,,,,,,,,,,,,,,,,,,,,,,,,,,,,,,,,,,,,
903773,001,2022-11-20_17h51.11.407,Info_measure_main_exp,2022.2.2,Win32,54.45733268,,,,,,,,,,,,,,,,,,,,,,,,,,,,,,6,1.2202,1,,,,,,,,,,,,0,131,5,5,2298,2178,absent_patch/patch0002298.jpg,absent_patch/patch0002178.jpg,,,,,,,,,,,,,,,,,,,,0.175925926,0.060185185,1,0,0,response1disk,14,-0.00462963,-0.010185206,1,0,0,center_square,0,13,13,84,1,,,,,,,,,,,,,,,,,,,,,,,
903773,001,2022-11-20_17h51.11.407,Info_measure_main_exp,2022.2.2,Win32,54.45733268,,,,,,,,,,,,,,,,,,masks/mask_002.jpg,,,,,,,,,,,,,,,,,,,,,,,,,,,,,,,,,,,,,,,,,,,0,0,0,1,1,,,,,,,,,,,,,,,,,,,,,,,,,,,,,,,,,,,,,,,,,,,,,,
903773,001,2022-11-20_17h51.11.407,Info_measure_main_exp,2022.2.2,Win32,54.45733268,,,,,,,,,,,,,,,,,,masks/mask_005.jpg,,,,,,,,,,,,,,,,,,,,,,,,,,,,,,,,,,,,,,,,,,,0,1,1,4,1,,,,,,,,,,,,,,,,,,,,,,,,,,,,,,,,,,,,,,,,,,,,,,
903773,001,2022-11-20_17h51.11.407,Info_measure_main_exp,2022.2.2,Win32,54.45733268,,,,,,,,,,,,,,,,,,masks/mask_003.jpg,,,,,,,,,,,,,,,,,,,,,,,,,,,,,,,,,,,,,,,,,,,0,2,2,2,1,,,,,,,,,,,,,,,,,,,,,,,,,,,,,,,,,,,,,,,,,,,,,,
903773,001,2022-11-20_17h51.11.407,Info_measure_main_exp,2022.2.2,Win32,54.45733268,,,,,,,,,,,,,,,,,,masks/mask_004.jpg,,,,,,,,,,,,,,,,,,,,,,,,,,,,,,,,,,,,,,,,,,,0,3,3,3,1,,,,,,,,,,,,,,,,,,,,,,,,,,,,,,,,,,,,,,,,,,,,,,
903773,001,2022-11-20_17h51.11.407,Info_measure_main_exp,2022.2.2,Win32,54.45733268,,,,,,,,,,,,,,,,,,masks/mask_001.jpg,,,,,,,,,,,,,,,,,,,,,,,,,,,,,,,,,,,,,,,,,,,0,4,4,0,1,,,,,,,,,,,,,,,,,,,,,,,,,,,,,,,,,,,,,,,,,,,,,,
903773,001,2022-11-20_17h51.11.407,Info_measure_main_exp,2022.2.2,Win32,54.45733268,,,,,,,,,,,,,,,,,,masks/mask_001.jpg,,,,,,,,,,,,,,,,,,,,,,,,,,,,,,,,,,,,,,,,,,,,,,,,0,0,0,0,1,,,,,,,,,,,,,,,,,,,,,,,,,,,,,,,,,,,,,,,,,
903773,001,2022-11-20_17h51.11.407,Info_measure_main_exp,2022.2.2,Win32,54.45733268,,,,,,,,,,,,,,,,,,masks/mask_004.jpg,,,,,,,,,,,,,,,,,,,,,,,,,,,,,,,,,,,,,,,,,,,,,,,,0,1,1,3,1,,,,,,,,,,,,,,,,,,,,,,,,,,,,,,,,,,,,,,,,,
903773,001,2022-11-20_17h51.11.407,Info_measure_main_exp,2022.2.2,Win32,54.45733268,,,,,,,,,,,,,,,,,,masks/mask_002.jpg,,,,,,,,,,,,,,,,,,,,,,,,,,,,,,,,,,,,,,,,,,,,,,,,0,2,2,1,1,,,,,,,,,,,,,,,,,,,,,,,,,,,,,,,,,,,,,,,,,
903773,001,2022-11-20_17h51.11.407,Info_measure_main_exp,2022.2.2,Win32,54.45733268,,,,,,,,,,,,,,,,,,masks/mask_003.jpg,,,,,,,,,,,,,,,,,,,,,,,,,,,,,,,,,,,,,,,,,,,,,,,,0,3,3,2,1,,,,,,,,,,,,,,,,,,,,,,,,,,,,,,,,,,,,,,,,,
903773,001,2022-11-20_17h51.11.407,Info_measure_main_exp,2022.2.2,Win32,54.45733268,,,,,,,,,,,,,,,,,,masks/mask_005.jpg,,,,,,,,,,,,,,,,,,,,,,,,,,,,,,,,,,,,,,,,,,,,,,,,0,4,4,4,1,,,,,,,,,,,,,,,,,,,,,,,,,,,,,,,,,,,,,,,,,
903773,001,2022-11-20_17h51.11.407,Info_measure_main_exp,2022.2.2,Win32,54.45733268,,,,,,,,,,,,,,,,,,,,,,,,,,,,,,4,6.664,1,,,,,,,,,,,,0,131,5,5,1974,1950,absent_patch/patch0001974.jpg,absent_patch/patch0001950.jpg,,,,,,,,,,,,,,,,,,,,0.031481496,-0.060185185,1,0,0,response3disk,15,-0.009259259,0.012962942,1,0,0,center_square,0,14,14,17,1,,,,,,,,,,,,,,,,,,,,,,,
903773,001,2022-11-20_17h51.11.407,Info_measure_main_exp,2022.2.2,Win32,54.45733268,,,,,,,,,,,,,,,,,,masks/mask_002.jpg,,,,,,,,,,,,,,,,,,,,,,,,,,,,,,,,,,,,,,,,,,,0,0,0,1,1,,,,,,,,,,,,,,,,,,,,,,,,,,,,,,,,,,,,,,,,,,,,,,
903773,001,2022-11-20_17h51.11.407,Info_measure_main_exp,2022.2.2,Win32,54.45733268,,,,,,,,,,,,,,,,,,masks/mask_003.jpg,,,,,,,,,,,,,,,,,,,,,,,,,,,,,,,,,,,,,,,,,,,0,1,1,2,1,,,,,,,,,,,,,,,,,,,,,,,,,,,,,,,,,,,,,,,,,,,,,,
903773,001,2022-11-20_17h51.11.407,Info_measure_main_exp,2022.2.2,Win32,54.45733268,,,,,,,,,,,,,,,,,,masks/mask_001.jpg,,,,,,,,,,,,,,,,,,,,,,,,,,,,,,,,,,,,,,,,,,,0,2,2,0,1,,,,,,,,,,,,,,,,,,,,,,,,,,,,,,,,,,,,,,,,,,,,,,
903773,001,2022-11-20_17h51.11.407,Info_measure_main_exp,2022.2.2,Win32,54.45733268,,,,,,,,,,,,,,,,,,masks/mask_005.jpg,,,,,,,,,,,,,,,,,,,,,,,,,,,,,,,,,,,,,,,,,,,0,3,3,4,1,,,,,,,,,,,,,,,,,,,,,,,,,,,,,,,,,,,,,,,,,,,,,,
903773,001,2022-11-20_17h51.11.407,Info_measure_main_exp,2022.2.2,Win32,54.45733268,,,,,,,,,,,,,,,,,,masks/mask_004.jpg,,,,,,,,,,,,,,,,,,,,,,,,,,,,,,,,,,,,,,,,,,,0,4,4,3,1,,,,,,,,,,,,,,,,,,,,,,,,,,,,,,,,,,,,,,,,,,,,,,
903773,001,2022-11-20_17h51.11.407,Info_measure_main_exp,2022.2.2,Win32,54.45733268,,,,,,,,,,,,,,,,,,masks/mask_002.jpg,,,,,,,,,,,,,,,,,,,,,,,,,,,,,,,,,,,,,,,,,,,,,,,,0,0,0,1,1,,,,,,,,,,,,,,,,,,,,,,,,,,,,,,,,,,,,,,,,,
903773,001,2022-11-20_17h51.11.407,Info_measure_main_exp,2022.2.2,Win32,54.45733268,,,,,,,,,,,,,,,,,,masks/mask_003.jpg,,,,,,,,,,,,,,,,,,,,,,,,,,,,,,,,,,,,,,,,,,,,,,,,0,1,1,2,1,,,,,,,,,,,,,,,,,,,,,,,,,,,,,,,,,,,,,,,,,
903773,001,2022-11-20_17h51.11.407,Info_measure_main_exp,2022.2.2,Win32,54.45733268,,,,,,,,,,,,,,,,,,masks/mask_005.jpg,,,,,,,,,,,,,,,,,,,,,,,,,,,,,,,,,,,,,,,,,,,,,,,,0,2,2,4,1,,,,,,,,,,,,,,,,,,,,,,,,,,,,,,,,,,,,,,,,,
903773,001,2022-11-20_17h51.11.407,Info_measure_main_exp,2022.2.2,Win32,54.45733268,,,,,,,,,,,,,,,,,,masks/mask_004.jpg,,,,,,,,,,,,,,,,,,,,,,,,,,,,,,,,,,,,,,,,,,,,,,,,0,3,3,3,1,,,,,,,,,,,,,,,,,,,,,,,,,,,,,,,,,,,,,,,,,
903773,001,2022-11-20_17h51.11.407,Info_measure_main_exp,2022.2.2,Win32,54.45733268,,,,,,,,,,,,,,,,,,masks/mask_001.jpg,,,,,,,,,,,,,,,,,,,,,,,,,,,,,,,,,,,,,,,,,,,,,,,,0,4,4,0,1,,,,,,,,,,,,,,,,,,,,,,,,,,,,,,,,,,,,,,,,,
903773,001,2022-11-20_17h51.11.407,Info_measure_main_exp,2022.2.2,Win32,54.45733268,,,,,,,,,,,,,,,,,,,,,,,,,,,,,,5,2.1835,1,,,,,,,,,,,,0,131,5,5,2238,2298,absent_patch/patch0002238.jpg,absent_patch/patch0002298.jpg,,,,,,,,,,,,,,,,,,,,0.112037023,-0.037037037,1,0,0,response3disk,16,0.00462963,0.000925912,1,0,0,center_square,0,15,15,51,1,,,,,,,,,,,,,,,,,,,,,,,
903773,001,2022-11-20_17h51.11.407,Info_measure_main_exp,2022.2.2,Win32,54.45733268,,,,,,,,,,,,,,,,,,masks/mask_004.jpg,,,,,,,,,,,,,,,,,,,,,,,,,,,,,,,,,,,,,,,,,,,0,0,0,3,1,,,,,,,,,,,,,,,,,,,,,,,,,,,,,,,,,,,,,,,,,,,,,,
903773,001,2022-11-20_17h51.11.407,Info_measure_main_exp,2022.2.2,Win32,54.45733268,,,,,,,,,,,,,,,,,,masks/mask_005.jpg,,,,,,,,,,,,,,,,,,,,,,,,,,,,,,,,,,,,,,,,,,,0,1,1,4,1,,,,,,,,,,,,,,,,,,,,,,,,,,,,,,,,,,,,,,,,,,,,,,
903773,001,2022-11-20_17h51.11.407,Info_measure_main_exp,2022.2.2,Win32,54.45733268,,,,,,,,,,,,,,,,,,masks/mask_001.jpg,,,,,,,,,,,,,,,,,,,,,,,,,,,,,,,,,,,,,,,,,,,0,2,2,0,1,,,,,,,,,,,,,,,,,,,,,,,,,,,,,,,,,,,,,,,,,,,,,,
903773,001,2022-11-20_17h51.11.407,Info_measure_main_exp,2022.2.2,Win32,54.45733268,,,,,,,,,,,,,,,,,,masks/mask_002.jpg,,,,,,,,,,,,,,,,,,,,,,,,,,,,,,,,,,,,,,,,,,,0,3,3,1,1,,,,,,,,,,,,,,,,,,,,,,,,,,,,,,,,,,,,,,,,,,,,,,
903773,001,2022-11-20_17h51.11.407,Info_measure_main_exp,2022.2.2,Win32,54.45733268,,,,,,,,,,,,,,,,,,masks/mask_003.jpg,,,,,,,,,,,,,,,,,,,,,,,,,,,,,,,,,,,,,,,,,,,0,4,4,2,1,,,,,,,,,,,,,,,,,,,,,,,,,,,,,,,,,,,,,,,,,,,,,,
903773,001,2022-11-20_17h51.11.407,Info_measure_main_exp,2022.2.2,Win32,54.45733268,,,,,,,,,,,,,,,,,,masks/mask_003.jpg,,,,,,,,,,,,,,,,,,,,,,,,,,,,,,,,,,,,,,,,,,,,,,,,0,0,0,2,1,,,,,,,,,,,,,,,,,,,,,,,,,,,,,,,,,,,,,,,,,
903773,001,2022-11-20_17h51.11.407,Info_measure_main_exp,2022.2.2,Win32,54.45733268,,,,,,,,,,,,,,,,,,masks/mask_001.jpg,,,,,,,,,,,,,,,,,,,,,,,,,,,,,,,,,,,,,,,,,,,,,,,,0,1,1,0,1,,,,,,,,,,,,,,,,,,,,,,,,,,,,,,,,,,,,,,,,,
903773,001,2022-11-20_17h51.11.407,Info_measure_main_exp,2022.2.2,Win32,54.45733268,,,,,,,,,,,,,,,,,,masks/mask_004.jpg,,,,,,,,,,,,,,,,,,,,,,,,,,,,,,,,,,,,,,,,,,,,,,,,0,2,2,3,1,,,,,,,,,,,,,,,,,,,,,,,,,,,,,,,,,,,,,,,,,
903773,001,2022-11-20_17h51.11.407,Info_measure_main_exp,2022.2.2,Win32,54.45733268,,,,,,,,,,,,,,,,,,masks/mask_005.jpg,,,,,,,,,,,,,,,,,,,,,,,,,,,,,,,,,,,,,,,,,,,,,,,,0,3,3,4,1,,,,,,,,,,,,,,,,,,,,,,,,,,,,,,,,,,,,,,,,,
903773,001,2022-11-20_17h51.11.407,Info_measure_main_exp,2022.2.2,Win32,54.45733268,,,,,,,,,,,,,,,,,,masks/mask_002.jpg,,,,,,,,,,,,,,,,,,,,,,,,,,,,,,,,,,,,,,,,,,,,,,,,0,4,4,1,1,,,,,,,,,,,,,,,,,,,,,,,,,,,,,,,,,,,,,,,,,
903773,001,2022-11-20_17h51.11.407,Info_measure_main_exp,2022.2.2,Win32,54.45733268,,,,,,,,,,,,,,,,,,,,,,,,,,,,,,5,3.7362,1,,,,,,,,,,,,0,131,5,5,2082,2238,absent_patch/patch0002082.jpg,absent_patch/patch0002238.jpg,,,,,,,,,,,,,,,,,,,,0.175925926,-0.024074095,1,0,0,response3disk,17,-0.005555541,0.013888889,1,0,0,center_square,0,16,16,22,1,,,,,,,,,,,,,,,,,,,,,,,
903773,001,2022-11-20_17h51.11.407,Info_measure_main_exp,2022.2.2,Win32,54.45733268,,,,,,,,,,,,,,,,,,masks/mask_002.jpg,,,,,,,,,,,,,,,,,,,,,,,,,,,,,,,,,,,,,,,,,,,0,0,0,1,1,,,,,,,,,,,,,,,,,,,,,,,,,,,,,,,,,,,,,,,,,,,,,,
903773,001,2022-11-20_17h51.11.407,Info_measure_main_exp,2022.2.2,Win32,54.45733268,,,,,,,,,,,,,,,,,,masks/mask_005.jpg,,,,,,,,,,,,,,,,,,,,,,,,,,,,,,,,,,,,,,,,,,,0,1,1,4,1,,,,,,,,,,,,,,,,,,,,,,,,,,,,,,,,,,,,,,,,,,,,,,
903773,001,2022-11-20_17h51.11.407,Info_measure_main_exp,2022.2.2,Win32,54.45733268,,,,,,,,,,,,,,,,,,masks/mask_004.jpg,,,,,,,,,,,,,,,,,,,,,,,,,,,,,,,,,,,,,,,,,,,0,2,2,3,1,,,,,,,,,,,,,,,,,,,,,,,,,,,,,,,,,,,,,,,,,,,,,,
903773,001,2022-11-20_17h51.11.407,Info_measure_main_exp,2022.2.2,Win32,54.45733268,,,,,,,,,,,,,,,,,,masks/mask_003.jpg,,,,,,,,,,,,,,,,,,,,,,,,,,,,,,,,,,,,,,,,,,,0,3,3,2,1,,,,,,,,,,,,,,,,,,,,,,,,,,,,,,,,,,,,,,,,,,,,,,
903773,001,2022-11-20_17h51.11.407,Info_measure_main_exp,2022.2.2,Win32,54.45733268,,,,,,,,,,,,,,,,,,masks/mask_001.jpg,,,,,,,,,,,,,,,,,,,,,,,,,,,,,,,,,,,,,,,,,,,0,4,4,0,1,,,,,,,,,,,,,,,,,,,,,,,,,,,,,,,,,,,,,,,,,,,,,,
903773,001,2022-11-20_17h51.11.407,Info_measure_main_exp,2022.2.2,Win32,54.45733268,,,,,,,,,,,,,,,,,,masks/mask_003.jpg,,,,,,,,,,,,,,,,,,,,,,,,,,,,,,,,,,,,,,,,,,,,,,,,0,0,0,2,1,,,,,,,,,,,,,,,,,,,,,,,,,,,,,,,,,,,,,,,,,
903773,001,2022-11-20_17h51.11.407,Info_measure_main_exp,2022.2.2,Win32,54.45733268,,,,,,,,,,,,,,,,,,masks/mask_004.jpg,,,,,,,,,,,,,,,,,,,,,,,,,,,,,,,,,,,,,,,,,,,,,,,,0,1,1,3,1,,,,,,,,,,,,,,,,,,,,,,,,,,,,,,,,,,,,,,,,,
903773,001,2022-11-20_17h51.11.407,Info_measure_main_exp,2022.2.2,Win32,54.45733268,,,,,,,,,,,,,,,,,,masks/mask_002.jpg,,,,,,,,,,,,,,,,,,,,,,,,,,,,,,,,,,,,,,,,,,,,,,,,0,2,2,1,1,,,,,,,,,,,,,,,,,,,,,,,,,,,,,,,,,,,,,,,,,
903773,001,2022-11-20_17h51.11.407,Info_measure_main_exp,2022.2.2,Win32,54.45733268,,,,,,,,,,,,,,,,,,masks/mask_005.jpg,,,,,,,,,,,,,,,,,,,,,,,,,,,,,,,,,,,,,,,,,,,,,,,,0,3,3,4,1,,,,,,,,,,,,,,,,,,,,,,,,,,,,,,,,,,,,,,,,,
903773,001,2022-11-20_17h51.11.407,Info_measure_main_exp,2022.2.2,Win32,54.45733268,,,,,,,,,,,,,,,,,,masks/mask_001.jpg,,,,,,,,,,,,,,,,,,,,,,,,,,,,,,,,,,,,,,,,,,,,,,,,0,4,4,0,1,,,,,,,,,,,,,,,,,,,,,,,,,,,,,,,,,,,,,,,,,
903773,001,2022-11-20_17h51.11.407,Info_measure_main_exp,2022.2.2,Win32,54.45733268,,,,,,,,,,,,,,,,,,,,,,,,,,,,,,3,1.5331,1,,,,,,,,,,,,1,131,5,5,2238,1,absent_patch/patch0002238.jpg,present_patch/cong_131_5_a.jpg,,,,,,,,,,,,,,,,,,,,-0.02407406,-0.146296325,1,0,0,response5disk,18,-0.005555541,0.000925912,1,0,0,center_square,0,17,17,104,1,,,,,,,,,,,,,,,,,,,,,,,
903773,001,2022-11-20_17h51.11.407,Info_measure_main_exp,2022.2.2,Win32,54.45733268,,,,,,,,,,,,,,,,,,masks/mask_005.jpg,,,,,,,,,,,,,,,,,,,,,,,,,,,,,,,,,,,,,,,,,,,0,0,0,4,1,,,,,,,,,,,,,,,,,,,,,,,,,,,,,,,,,,,,,,,,,,,,,,
903773,001,2022-11-20_17h51.11.407,Info_measure_main_exp,2022.2.2,Win32,54.45733268,,,,,,,,,,,,,,,,,,masks/mask_004.jpg,,,,,,,,,,,,,,,,,,,,,,,,,,,,,,,,,,,,,,,,,,,0,1,1,3,1,,,,,,,,,,,,,,,,,,,,,,,,,,,,,,,,,,,,,,,,,,,,,,
903773,001,2022-11-20_17h51.11.407,Info_measure_main_exp,2022.2.2,Win32,54.45733268,,,,,,,,,,,,,,,,,,masks/mask_002.jpg,,,,,,,,,,,,,,,,,,,,,,,,,,,,,,,,,,,,,,,,,,,0,2,2,1,1,,,,,,,,,,,,,,,,,,,,,,,,,,,,,,,,,,,,,,,,,,,,,,
903773,001,2022-11-20_17h51.11.407,Info_measure_main_exp,2022.2.2,Win32,54.45733268,,,,,,,,,,,,,,,,,,masks/mask_001.jpg,,,,,,,,,,,,,,,,,,,,,,,,,,,,,,,,,,,,,,,,,,,0,3,3,0,1,,,,,,,,,,,,,,,,,,,,,,,,,,,,,,,,,,,,,,,,,,,,,,
903773,001,2022-11-20_17h51.11.407,Info_measure_main_exp,2022.2.2,Win32,54.45733268,,,,,,,,,,,,,,,,,,masks/mask_003.jpg,,,,,,,,,,,,,,,,,,,,,,,,,,,,,,,,,,,,,,,,,,,0,4,4,2,1,,,,,,,,,,,,,,,,,,,,,,,,,,,,,,,,,,,,,,,,,,,,,,
903773,001,2022-11-20_17h51.11.407,Info_measure_main_exp,2022.2.2,Win32,54.45733268,,,,,,,,,,,,,,,,,,masks/mask_002.jpg,,,,,,,,,,,,,,,,,,,,,,,,,,,,,,,,,,,,,,,,,,,,,,,,0,0,0,1,1,,,,,,,,,,,,,,,,,,,,,,,,,,,,,,,,,,,,,,,,,
903773,001,2022-11-20_17h51.11.407,Info_measure_main_exp,2022.2.2,Win32,54.45733268,,,,,,,,,,,,,,,,,,masks/mask_003.jpg,,,,,,,,,,,,,,,,,,,,,,,,,,,,,,,,,,,,,,,,,,,,,,,,0,1,1,2,1,,,,,,,,,,,,,,,,,,,,,,,,,,,,,,,,,,,,,,,,,
903773,001,2022-11-20_17h51.11.407,Info_measure_main_exp,2022.2.2,Win32,54.45733268,,,,,,,,,,,,,,,,,,masks/mask_001.jpg,,,,,,,,,,,,,,,,,,,,,,,,,,,,,,,,,,,,,,,,,,,,,,,,0,2,2,0,1,,,,,,,,,,,,,,,,,,,,,,,,,,,,,,,,,,,,,,,,,
903773,001,2022-11-20_17h51.11.407,Info_measure_main_exp,2022.2.2,Win32,54.45733268,,,,,,,,,,,,,,,,,,masks/mask_004.jpg,,,,,,,,,,,,,,,,,,,,,,,,,,,,,,,,,,,,,,,,,,,,,,,,0,3,3,3,1,,,,,,,,,,,,,,,,,,,,,,,,,,,,,,,,,,,,,,,,,
903773,001,2022-11-20_17h51.11.407,Info_measure_main_exp,2022.2.2,Win32,54.45733268,,,,,,,,,,,,,,,,,,masks/mask_005.jpg,,,,,,,,,,,,,,,,,,,,,,,,,,,,,,,,,,,,,,,,,,,,,,,,0,4,4,4,1,,,,,,,,,,,,,,,,,,,,,,,,,,,,,,,,,,,,,,,,,
903773,001,2022-11-20_17h51.11.407,Info_measure_main_exp,2022.2.2,Win32,54.45733268,,,,,,,,,,,,,,,,,,,,,,,,,,,,,,6,2.3165,1,,,,,,,,,,,,1,131,5,5,2250,1,absent_patch/patch0002250.jpg,present_patch/cong_131_5_a.jpg,,,,,,,,,,,,,,,,,,,,0.140740783,0.081481474,1,0,0,response1disk,19,-0.008333347,-0.002777771,1,0,0,center_square,0,18,18,5,1,,,,,,,,,,,,,,,,,,,,,,,
903773,001,2022-11-20_17h51.11.407,Info_measure_main_exp,2022.2.2,Win32,54.45733268,,,,,,,,,,,,,,,,,,masks/mask_002.jpg,,,,,,,,,,,,,,,,,,,,,,,,,,,,,,,,,,,,,,,,,,,0,0,0,1,1,,,,,,,,,,,,,,,,,,,,,,,,,,,,,,,,,,,,,,,,,,,,,,
903773,001,2022-11-20_17h51.11.407,Info_measure_main_exp,2022.2.2,Win32,54.45733268,,,,,,,,,,,,,,,,,,masks/mask_004.jpg,,,,,,,,,,,,,,,,,,,,,,,,,,,,,,,,,,,,,,,,,,,0,1,1,3,1,,,,,,,,,,,,,,,,,,,,,,,,,,,,,,,,,,,,,,,,,,,,,,
903773,001,2022-11-20_17h51.11.407,Info_measure_main_exp,2022.2.2,Win32,54.45733268,,,,,,,,,,,,,,,,,,masks/mask_005.jpg,,,,,,,,,,,,,,,,,,,,,,,,,,,,,,,,,,,,,,,,,,,0,2,2,4,1,,,,,,,,,,,,,,,,,,,,,,,,,,,,,,,,,,,,,,,,,,,,,,
903773,001,2022-11-20_17h51.11.407,Info_measure_main_exp,2022.2.2,Win32,54.45733268,,,,,,,,,,,,,,,,,,masks/mask_001.jpg,,,,,,,,,,,,,,,,,,,,,,,,,,,,,,,,,,,,,,,,,,,0,3,3,0,1,,,,,,,,,,,,,,,,,,,,,,,,,,,,,,,,,,,,,,,,,,,,,,
903773,001,2022-11-20_17h51.11.407,Info_measure_main_exp,2022.2.2,Win32,54.45733268,,,,,,,,,,,,,,,,,,masks/mask_003.jpg,,,,,,,,,,,,,,,,,,,,,,,,,,,,,,,,,,,,,,,,,,,0,4,4,2,1,,,,,,,,,,,,,,,,,,,,,,,,,,,,,,,,,,,,,,,,,,,,,,
903773,001,2022-11-20_17h51.11.407,Info_measure_main_exp,2022.2.2,Win32,54.45733268,,,,,,,,,,,,,,,,,,masks/mask_001.jpg,,,,,,,,,,,,,,,,,,,,,,,,,,,,,,,,,,,,,,,,,,,,,,,,0,0,0,0,1,,,,,,,,,,,,,,,,,,,,,,,,,,,,,,,,,,,,,,,,,
903773,001,2022-11-20_17h51.11.407,Info_measure_main_exp,2022.2.2,Win32,54.45733268,,,,,,,,,,,,,,,,,,masks/mask_004.jpg,,,,,,,,,,,,,,,,,,,,,,,,,,,,,,,,,,,,,,,,,,,,,,,,0,1,1,3,1,,,,,,,,,,,,,,,,,,,,,,,,,,,,,,,,,,,,,,,,,
903773,001,2022-11-20_17h51.11.407,Info_measure_main_exp,2022.2.2,Win32,54.45733268,,,,,,,,,,,,,,,,,,masks/mask_003.jpg,,,,,,,,,,,,,,,,,,,,,,,,,,,,,,,,,,,,,,,,,,,,,,,,0,2,2,2,1,,,,,,,,,,,,,,,,,,,,,,,,,,,,,,,,,,,,,,,,,
903773,001,2022-11-20_17h51.11.407,Info_measure_main_exp,2022.2.2,Win32,54.45733268,,,,,,,,,,,,,,,,,,masks/mask_002.jpg,,,,,,,,,,,,,,,,,,,,,,,,,,,,,,,,,,,,,,,,,,,,,,,,0,3,3,1,1,,,,,,,,,,,,,,,,,,,,,,,,,,,,,,,,,,,,,,,,,
903773,001,2022-11-20_17h51.11.407,Info_measure_main_exp,2022.2.2,Win32,54.45733268,,,,,,,,,,,,,,,,,,masks/mask_005.jpg,,,,,,,,,,,,,,,,,,,,,,,,,,,,,,,,,,,,,,,,,,,,,,,,0,4,4,4,1,,,,,,,,,,,,,,,,,,,,,,,,,,,,,,,,,,,,,,,,,
903773,001,2022-11-20_17h51.11.407,Info_measure_main_exp,2022.2.2,Win32,54.45733268,,,,,,,,,,,,,,,,,,,,,,,,,,,,,,6,1.2522,1,,,,,,,,,,,,0,131,5,5,2142,2238,absent_patch/patch0002142.jpg,absent_patch/patch0002238.jpg,,,,,,,,,,,,,,,,,,,,0.110185199,0.04074072,1,0,0,response1disk,20,-0.001851824,-0.01203703,1,0,0,center_square,0,19,19,101,1,,,,,,,,,,,,,,,,,,,,,,,
903773,001,2022-11-20_17h51.11.407,Info_measure_main_exp,2022.2.2,Win32,54.45733268,,,,,,,,,,,,,,,,,,masks/mask_005.jpg,,,,,,,,,,,,,,,,,,,,,,,,,,,,,,,,,,,,,,,,,,,0,0,0,4,1,,,,,,,,,,,,,,,,,,,,,,,,,,,,,,,,,,,,,,,,,,,,,,
903773,001,2022-11-20_17h51.11.407,Info_measure_main_exp,2022.2.2,Win32,54.45733268,,,,,,,,,,,,,,,,,,masks/mask_004.jpg,,,,,,,,,,,,,,,,,,,,,,,,,,,,,,,,,,,,,,,,,,,0,1,1,3,1,,,,,,,,,,,,,,,,,,,,,,,,,,,,,,,,,,,,,,,,,,,,,,
903773,001,2022-11-20_17h51.11.407,Info_measure_main_exp,2022.2.2,Win32,54.45733268,,,,,,,,,,,,,,,,,,masks/mask_002.jpg,,,,,,,,,,,,,,,,,,,,,,,,,,,,,,,,,,,,,,,,,,,0,2,2,1,1,,,,,,,,,,,,,,,,,,,,,,,,,,,,,,,,,,,,,,,,,,,,,,
903773,001,2022-11-20_17h51.11.407,Info_measure_main_exp,2022.2.2,Win32,54.45733268,,,,,,,,,,,,,,,,,,masks/mask_003.jpg,,,,,,,,,,,,,,,,,,,,,,,,,,,,,,,,,,,,,,,,,,,0,3,3,2,1,,,,,,,,,,,,,,,,,,,,,,,,,,,,,,,,,,,,,,,,,,,,,,
903773,001,2022-11-20_17h51.11.407,Info_measure_main_exp,2022.2.2,Win32,54.45733268,,,,,,,,,,,,,,,,,,masks/mask_001.jpg,,,,,,,,,,,,,,,,,,,,,,,,,,,,,,,,,,,,,,,,,,,0,4,4,0,1,,,,,,,,,,,,,,,,,,,,,,,,,,,,,,,,,,,,,,,,,,,,,,
903773,001,2022-11-20_17h51.11.407,Info_measure_main_exp,2022.2.2,Win32,54.45733268,,,,,,,,,,,,,,,,,,masks/mask_005.jpg,,,,,,,,,,,,,,,,,,,,,,,,,,,,,,,,,,,,,,,,,,,,,,,,0,0,0,4,1,,,,,,,,,,,,,,,,,,,,,,,,,,,,,,,,,,,,,,,,,
903773,001,2022-11-20_17h51.11.407,Info_measure_main_exp,2022.2.2,Win32,54.45733268,,,,,,,,,,,,,,,,,,masks/mask_001.jpg,,,,,,,,,,,,,,,,,,,,,,,,,,,,,,,,,,,,,,,,,,,,,,,,0,1,1,0,1,,,,,,,,,,,,,,,,,,,,,,,,,,,,,,,,,,,,,,,,,
903773,001,2022-11-20_17h51.11.407,Info_measure_main_exp,2022.2.2,Win32,54.45733268,,,,,,,,,,,,,,,,,,masks/mask_003.jpg,,,,,,,,,,,,,,,,,,,,,,,,,,,,,,,,,,,,,,,,,,,,,,,,0,2,2,2,1,,,,,,,,,,,,,,,,,,,,,,,,,,,,,,,,,,,,,,,,,
903773,001,2022-11-20_17h51.11.407,Info_measure_main_exp,2022.2.2,Win32,54.45733268,,,,,,,,,,,,,,,,,,masks/mask_002.jpg,,,,,,,,,,,,,,,,,,,,,,,,,,,,,,,,,,,,,,,,,,,,,,,,0,3,3,1,1,,,,,,,,,,,,,,,,,,,,,,,,,,,,,,,,,,,,,,,,,
903773,001,2022-11-20_17h51.11.407,Info_measure_main_exp,2022.2.2,Win32,54.45733268,,,,,,,,,,,,,,,,,,masks/mask_004.jpg,,,,,,,,,,,,,,,,,,,,,,,,,,,,,,,,,,,,,,,,,,,,,,,,0,4,4,3,1,,,,,,,,,,,,,,,,,,,,,,,,,,,,,,,,,,,,,,,,,
903773,001,2022-11-20_17h51.11.407,Info_measure_main_exp,2022.2.2,Win32,54.45733268,,,,,,,,,,,,,,,,,,,,,,,,,,,,,,6,0.9152,1,,,,,,,,,,,,0,131,5,5,2178,2154,absent_patch/patch0002178.jpg,absent_patch/patch0002154.jpg,,,,,,,,,,,,,,,,,,,,0.073148162,0.032407407,1,0,0,response1disk,21,0.002777806,-0.014814836,1,0,0,center_square,0,20,20,63,1,,,,,,,,,,,,,,,,,,,,,,,
903773,001,2022-11-20_17h51.11.407,Info_measure_main_exp,2022.2.2,Win32,54.45733268,,,,,,,,,,,,,,,,,,masks/mask_004.jpg,,,,,,,,,,,,,,,,,,,,,,,,,,,,,,,,,,,,,,,,,,,0,0,0,3,1,,,,,,,,,,,,,,,,,,,,,,,,,,,,,,,,,,,,,,,,,,,,,,
903773,001,2022-11-20_17h51.11.407,Info_measure_main_exp,2022.2.2,Win32,54.45733268,,,,,,,,,,,,,,,,,,masks/mask_001.jpg,,,,,,,,,,,,,,,,,,,,,,,,,,,,,,,,,,,,,,,,,,,0,1,1,0,1,,,,,,,,,,,,,,,,,,,,,,,,,,,,,,,,,,,,,,,,,,,,,,
903773,001,2022-11-20_17h51.11.407,Info_measure_main_exp,2022.2.2,Win32,54.45733268,,,,,,,,,,,,,,,,,,masks/mask_002.jpg,,,,,,,,,,,,,,,,,,,,,,,,,,,,,,,,,,,,,,,,,,,0,2,2,1,1,,,,,,,,,,,,,,,,,,,,,,,,,,,,,,,,,,,,,,,,,,,,,,
903773,001,2022-11-20_17h51.11.407,Info_measure_main_exp,2022.2.2,Win32,54.45733268,,,,,,,,,,,,,,,,,,masks/mask_005.jpg,,,,,,,,,,,,,,,,,,,,,,,,,,,,,,,,,,,,,,,,,,,0,3,3,4,1,,,,,,,,,,,,,,,,,,,,,,,,,,,,,,,,,,,,,,,,,,,,,,
903773,001,2022-11-20_17h51.11.407,Info_measure_main_exp,2022.2.2,Win32,54.45733268,,,,,,,,,,,,,,,,,,masks/mask_003.jpg,,,,,,,,,,,,,,,,,,,,,,,,,,,,,,,,,,,,,,,,,,,0,4,4,2,1,,,,,,,,,,,,,,,,,,,,,,,,,,,,,,,,,,,,,,,,,,,,,,
903773,001,2022-11-20_17h51.11.407,Info_measure_main_exp,2022.2.2,Win32,54.45733268,,,,,,,,,,,,,,,,,,masks/mask_001.jpg,,,,,,,,,,,,,,,,,,,,,,,,,,,,,,,,,,,,,,,,,,,,,,,,0,0,0,0,1,,,,,,,,,,,,,,,,,,,,,,,,,,,,,,,,,,,,,,,,,
903773,001,2022-11-20_17h51.11.407,Info_measure_main_exp,2022.2.2,Win32,54.45733268,,,,,,,,,,,,,,,,,,masks/mask_005.jpg,,,,,,,,,,,,,,,,,,,,,,,,,,,,,,,,,,,,,,,,,,,,,,,,0,1,1,4,1,,,,,,,,,,,,,,,,,,,,,,,,,,,,,,,,,,,,,,,,,
903773,001,2022-11-20_17h51.11.407,Info_measure_main_exp,2022.2.2,Win32,54.45733268,,,,,,,,,,,,,,,,,,masks/mask_003.jpg,,,,,,,,,,,,,,,,,,,,,,,,,,,,,,,,,,,,,,,,,,,,,,,,0,2,2,2,1,,,,,,,,,,,,,,,,,,,,,,,,,,,,,,,,,,,,,,,,,
903773,001,2022-11-20_17h51.11.407,Info_measure_main_exp,2022.2.2,Win32,54.45733268,,,,,,,,,,,,,,,,,,masks/mask_002.jpg,,,,,,,,,,,,,,,,,,,,,,,,,,,,,,,,,,,,,,,,,,,,,,,,0,3,3,1,1,,,,,,,,,,,,,,,,,,,,,,,,,,,,,,,,,,,,,,,,,
903773,001,2022-11-20_17h51.11.407,Info_measure_main_exp,2022.2.2,Win32,54.45733268,,,,,,,,,,,,,,,,,,masks/mask_004.jpg,,,,,,,,,,,,,,,,,,,,,,,,,,,,,,,,,,,,,,,,,,,,,,,,0,4,4,3,1,,,,,,,,,,,,,,,,,,,,,,,,,,,,,,,,,,,,,,,,,
903773,001,2022-11-20_17h51.11.407,Info_measure_main_exp,2022.2.2,Win32,54.45733268,,,,,,,,,,,,,,,,,,,,,,,,,,,,,,2,1.2492,1,,,,,,,,,,,,0,131,5,5,1950,1950,absent_patch/patch0001950.jpg,absent_patch/patch0001950.jpg,,,,,,,,,,,,,,,,,,,,-0.060185185,-0.019444466,1,0,0,response5disk,22,0.002777806,-0.008333347,1,0,0,center_square,0,21,21,92,1,,,,,,,,,,,,,,,,,,,,,,,
903773,001,2022-11-20_17h51.11.407,Info_measure_main_exp,2022.2.2,Win32,54.45733268,,,,,,,,,,,,,,,,,,masks/mask_001.jpg,,,,,,,,,,,,,,,,,,,,,,,,,,,,,,,,,,,,,,,,,,,0,0,0,0,1,,,,,,,,,,,,,,,,,,,,,,,,,,,,,,,,,,,,,,,,,,,,,,
903773,001,2022-11-20_17h51.11.407,Info_measure_main_exp,2022.2.2,Win32,54.45733268,,,,,,,,,,,,,,,,,,masks/mask_002.jpg,,,,,,,,,,,,,,,,,,,,,,,,,,,,,,,,,,,,,,,,,,,0,1,1,1,1,,,,,,,,,,,,,,,,,,,,,,,,,,,,,,,,,,,,,,,,,,,,,,
903773,001,2022-11-20_17h51.11.407,Info_measure_main_exp,2022.2.2,Win32,54.45733268,,,,,,,,,,,,,,,,,,masks/mask_003.jpg,,,,,,,,,,,,,,,,,,,,,,,,,,,,,,,,,,,,,,,,,,,0,2,2,2,1,,,,,,,,,,,,,,,,,,,,,,,,,,,,,,,,,,,,,,,,,,,,,,
903773,001,2022-11-20_17h51.11.407,Info_measure_main_exp,2022.2.2,Win32,54.45733268,,,,,,,,,,,,,,,,,,masks/mask_004.jpg,,,,,,,,,,,,,,,,,,,,,,,,,,,,,,,,,,,,,,,,,,,0,3,3,3,1,,,,,,,,,,,,,,,,,,,,,,,,,,,,,,,,,,,,,,,,,,,,,,
903773,001,2022-11-20_17h51.11.407,Info_measure_main_exp,2022.2.2,Win32,54.45733268,,,,,,,,,,,,,,,,,,masks/mask_005.jpg,,,,,,,,,,,,,,,,,,,,,,,,,,,,,,,,,,,,,,,,,,,0,4,4,4,1,,,,,,,,,,,,,,,,,,,,,,,,,,,,,,,,,,,,,,,,,,,,,,
903773,001,2022-11-20_17h51.11.407,Info_measure_main_exp,2022.2.2,Win32,54.45733268,,,,,,,,,,,,,,,,,,masks/mask_002.jpg,,,,,,,,,,,,,,,,,,,,,,,,,,,,,,,,,,,,,,,,,,,,,,,,0,0,0,1,1,,,,,,,,,,,,,,,,,,,,,,,,,,,,,,,,,,,,,,,,,
903773,001,2022-11-20_17h51.11.407,Info_measure_main_exp,2022.2.2,Win32,54.45733268,,,,,,,,,,,,,,,,,,masks/mask_004.jpg,,,,,,,,,,,,,,,,,,,,,,,,,,,,,,,,,,,,,,,,,,,,,,,,0,1,1,3,1,,,,,,,,,,,,,,,,,,,,,,,,,,,,,,,,,,,,,,,,,
903773,001,2022-11-20_17h51.11.407,Info_measure_main_exp,2022.2.2,Win32,54.45733268,,,,,,,,,,,,,,,,,,masks/mask_003.jpg,,,,,,,,,,,,,,,,,,,,,,,,,,,,,,,,,,,,,,,,,,,,,,,,0,2,2,2,1,,,,,,,,,,,,,,,,,,,,,,,,,,,,,,,,,,,,,,,,,
903773,001,2022-11-20_17h51.11.407,Info_measure_main_exp,2022.2.2,Win32,54.45733268,,,,,,,,,,,,,,,,,,masks/mask_001.jpg,,,,,,,,,,,,,,,,,,,,,,,,,,,,,,,,,,,,,,,,,,,,,,,,0,3,3,0,1,,,,,,,,,,,,,,,,,,,,,,,,,,,,,,,,,,,,,,,,,
903773,001,2022-11-20_17h51.11.407,Info_measure_main_exp,2022.2.2,Win32,54.45733268,,,,,,,,,,,,,,,,,,masks/mask_005.jpg,,,,,,,,,,,,,,,,,,,,,,,,,,,,,,,,,,,,,,,,,,,,,,,,0,4,4,4,1,,,,,,,,,,,,,,,,,,,,,,,,,,,,,,,,,,,,,,,,,
903773,001,2022-11-20_17h51.11.407,Info_measure_main_exp,2022.2.2,Win32,54.45733268,,,,,,,,,,,,,,,,,,,,,,,,,,,,,,3,1.8998,1,,,,,,,,,,,,0,131,5,5,2298,1986,absent_patch/patch0002298.jpg,absent_patch/patch0001986.jpg,,,,,,,,,,,,,,,,,,,,-0.025925884,-0.098148134,1,0,0,response5disk,23,-0.006481453,-0.00462963,1,0,0,center_square,0,22,22,32,1,,,,,,,,,,,,,,,,,,,,,,,
903773,001,2022-11-20_17h51.11.407,Info_measure_main_exp,2022.2.2,Win32,54.45733268,,,,,,,,,,,,,,,,,,masks/mask_003.jpg,,,,,,,,,,,,,,,,,,,,,,,,,,,,,,,,,,,,,,,,,,,0,0,0,2,1,,,,,,,,,,,,,,,,,,,,,,,,,,,,,,,,,,,,,,,,,,,,,,
903773,001,2022-11-20_17h51.11.407,Info_measure_main_exp,2022.2.2,Win32,54.45733268,,,,,,,,,,,,,,,,,,masks/mask_001.jpg,,,,,,,,,,,,,,,,,,,,,,,,,,,,,,,,,,,,,,,,,,,0,1,1,0,1,,,,,,,,,,,,,,,,,,,,,,,,,,,,,,,,,,,,,,,,,,,,,,
903773,001,2022-11-20_17h51.11.407,Info_measure_main_exp,2022.2.2,Win32,54.45733268,,,,,,,,,,,,,,,,,,masks/mask_005.jpg,,,,,,,,,,,,,,,,,,,,,,,,,,,,,,,,,,,,,,,,,,,0,2,2,4,1,,,,,,,,,,,,,,,,,,,,,,,,,,,,,,,,,,,,,,,,,,,,,,
903773,001,2022-11-20_17h51.11.407,Info_measure_main_exp,2022.2.2,Win32,54.45733268,,,,,,,,,,,,,,,,,,masks/mask_002.jpg,,,,,,,,,,,,,,,,,,,,,,,,,,,,,,,,,,,,,,,,,,,0,3,3,1,1,,,,,,,,,,,,,,,,,,,,,,,,,,,,,,,,,,,,,,,,,,,,,,
903773,001,2022-11-20_17h51.11.407,Info_measure_main_exp,2022.2.2,Win32,54.45733268,,,,,,,,,,,,,,,,,,masks/mask_004.jpg,,,,,,,,,,,,,,,,,,,,,,,,,,,,,,,,,,,,,,,,,,,0,4,4,3,1,,,,,,,,,,,,,,,,,,,,,,,,,,,,,,,,,,,,,,,,,,,,,,
903773,001,2022-11-20_17h51.11.407,Info_measure_main_exp,2022.2.2,Win32,54.45733268,,,,,,,,,,,,,,,,,,masks/mask_005.jpg,,,,,,,,,,,,,,,,,,,,,,,,,,,,,,,,,,,,,,,,,,,,,,,,0,0,0,4,1,,,,,,,,,,,,,,,,,,,,,,,,,,,,,,,,,,,,,,,,,
903773,001,2022-11-20_17h51.11.407,Info_measure_main_exp,2022.2.2,Win32,54.45733268,,,,,,,,,,,,,,,,,,masks/mask_003.jpg,,,,,,,,,,,,,,,,,,,,,,,,,,,,,,,,,,,,,,,,,,,,,,,,0,1,1,2,1,,,,,,,,,,,,,,,,,,,,,,,,,,,,,,,,,,,,,,,,,
903773,001,2022-11-20_17h51.11.407,Info_measure_main_exp,2022.2.2,Win32,54.45733268,,,,,,,,,,,,,,,,,,masks/mask_004.jpg,,,,,,,,,,,,,,,,,,,,,,,,,,,,,,,,,,,,,,,,,,,,,,,,0,2,2,3,1,,,,,,,,,,,,,,,,,,,,,,,,,,,,,,,,,,,,,,,,,
903773,001,2022-11-20_17h51.11.407,Info_measure_main_exp,2022.2.2,Win32,54.45733268,,,,,,,,,,,,,,,,,,masks/mask_002.jpg,,,,,,,,,,,,,,,,,,,,,,,,,,,,,,,,,,,,,,,,,,,,,,,,0,3,3,1,1,,,,,,,,,,,,,,,,,,,,,,,,,,,,,,,,,,,,,,,,,
903773,001,2022-11-20_17h51.11.407,Info_measure_main_exp,2022.2.2,Win32,54.45733268,,,,,,,,,,,,,,,,,,masks/mask_001.jpg,,,,,,,,,,,,,,,,,,,,,,,,,,,,,,,,,,,,,,,,,,,,,,,,0,4,4,0,1,,,,,,,,,,,,,,,,,,,,,,,,,,,,,,,,,,,,,,,,,
903773,001,2022-11-20_17h51.11.407,Info_measure_main_exp,2022.2.2,Win32,54.45733268,,,,,,,,,,,,,,,,,,,,,,,,,,,,,,7,1.3492,1,,,,,,,,,,,,0,131,5,5,2082,2178,absent_patch/patch0002082.jpg,absent_patch/patch0002178.jpg,,,,,,,,,,,,,,,,,,,,0.110185199,0.145370377,1,0,0,response1disk,24,0.001851894,-0.005555577,1,0,0,center_square,0,23,23,2,1,,,,,,,,,,,,,,,,,,,,,,,
903773,001,2022-11-20_17h51.11.407,Info_measure_main_exp,2022.2.2,Win32,54.45733268,,,,,,,,,,,,,,,,,,masks/mask_001.jpg,,,,,,,,,,,,,,,,,,,,,,,,,,,,,,,,,,,,,,,,,,,0,0,0,0,1,,,,,,,,,,,,,,,,,,,,,,,,,,,,,,,,,,,,,,,,,,,,,,
903773,001,2022-11-20_17h51.11.407,Info_measure_main_exp,2022.2.2,Win32,54.45733268,,,,,,,,,,,,,,,,,,masks/mask_005.jpg,,,,,,,,,,,,,,,,,,,,,,,,,,,,,,,,,,,,,,,,,,,0,1,1,4,1,,,,,,,,,,,,,,,,,,,,,,,,,,,,,,,,,,,,,,,,,,,,,,
903773,001,2022-11-20_17h51.11.407,Info_measure_main_exp,2022.2.2,Win32,54.45733268,,,,,,,,,,,,,,,,,,masks/mask_002.jpg,,,,,,,,,,,,,,,,,,,,,,,,,,,,,,,,,,,,,,,,,,,0,2,2,1,1,,,,,,,,,,,,,,,,,,,,,,,,,,,,,,,,,,,,,,,,,,,,,,
903773,001,2022-11-20_17h51.11.407,Info_measure_main_exp,2022.2.2,Win32,54.45733268,,,,,,,,,,,,,,,,,,masks/mask_004.jpg,,,,,,,,,,,,,,,,,,,,,,,,,,,,,,,,,,,,,,,,,,,0,3,3,3,1,,,,,,,,,,,,,,,,,,,,,,,,,,,,,,,,,,,,,,,,,,,,,,
903773,001,2022-11-20_17h51.11.407,Info_measure_main_exp,2022.2.2,Win32,54.45733268,,,,,,,,,,,,,,,,,,masks/mask_003.jpg,,,,,,,,,,,,,,,,,,,,,,,,,,,,,,,,,,,,,,,,,,,0,4,4,2,1,,,,,,,,,,,,,,,,,,,,,,,,,,,,,,,,,,,,,,,,,,,,,,
903773,001,2022-11-20_17h51.11.407,Info_measure_main_exp,2022.2.2,Win32,54.45733268,,,,,,,,,,,,,,,,,,masks/mask_005.jpg,,,,,,,,,,,,,,,,,,,,,,,,,,,,,,,,,,,,,,,,,,,,,,,,0,0,0,4,1,,,,,,,,,,,,,,,,,,,,,,,,,,,,,,,,,,,,,,,,,
903773,001,2022-11-20_17h51.11.407,Info_measure_main_exp,2022.2.2,Win32,54.45733268,,,,,,,,,,,,,,,,,,masks/mask_001.jpg,,,,,,,,,,,,,,,,,,,,,,,,,,,,,,,,,,,,,,,,,,,,,,,,0,1,1,0,1,,,,,,,,,,,,,,,,,,,,,,,,,,,,,,,,,,,,,,,,,
903773,001,2022-11-20_17h51.11.407,Info_measure_main_exp,2022.2.2,Win32,54.45733268,,,,,,,,,,,,,,,,,,masks/mask_002.jpg,,,,,,,,,,,,,,,,,,,,,,,,,,,,,,,,,,,,,,,,,,,,,,,,0,2,2,1,1,,,,,,,,,,,,,,,,,,,,,,,,,,,,,,,,,,,,,,,,,
903773,001,2022-11-20_17h51.11.407,Info_measure_main_exp,2022.2.2,Win32,54.45733268,,,,,,,,,,,,,,,,,,masks/mask_004.jpg,,,,,,,,,,,,,,,,,,,,,,,,,,,,,,,,,,,,,,,,,,,,,,,,0,3,3,3,1,,,,,,,,,,,,,,,,,,,,,,,,,,,,,,,,,,,,,,,,,
903773,001,2022-11-20_17h51.11.407,Info_measure_main_exp,2022.2.2,Win32,54.45733268,,,,,,,,,,,,,,,,,,masks/mask_003.jpg,,,,,,,,,,,,,,,,,,,,,,,,,,,,,,,,,,,,,,,,,,,,,,,,0,4,4,2,1,,,,,,,,,,,,,,,,,,,,,,,,,,,,,,,,,,,,,,,,,
903773,001,2022-11-20_17h51.11.407,Info_measure_main_exp,2022.2.2,Win32,54.45733268,,,,,,,,,,,,,,,,,,,,,,,,,,,,,,4,1.8316,1,,,,,,,,,,,,0,131,5,5,2274,2274,absent_patch/patch0002274.jpg,absent_patch/patch0002274.jpg,,,,,,,,,,,,,,,,,,,,0.025925954,-0.074074074,1,0,0,response3disk,25,0.002777806,-0.011111118,1,0,0,center_square,0,24,24,114,1,,,,,,,,,,,,,,,,,,,,,,,
903773,001,2022-11-20_17h51.11.407,Info_measure_main_exp,2022.2.2,Win32,54.45733268,,,,,,,,,,,,,,,,,,masks/mask_005.jpg,,,,,,,,,,,,,,,,,,,,,,,,,,,,,,,,,,,,,,,,,,,0,0,0,4,1,,,,,,,,,,,,,,,,,,,,,,,,,,,,,,,,,,,,,,,,,,,,,,
903773,001,2022-11-20_17h51.11.407,Info_measure_main_exp,2022.2.2,Win32,54.45733268,,,,,,,,,,,,,,,,,,masks/mask_002.jpg,,,,,,,,,,,,,,,,,,,,,,,,,,,,,,,,,,,,,,,,,,,0,1,1,1,1,,,,,,,,,,,,,,,,,,,,,,,,,,,,,,,,,,,,,,,,,,,,,,
903773,001,2022-11-20_17h51.11.407,Info_measure_main_exp,2022.2.2,Win32,54.45733268,,,,,,,,,,,,,,,,,,masks/mask_004.jpg,,,,,,,,,,,,,,,,,,,,,,,,,,,,,,,,,,,,,,,,,,,0,2,2,3,1,,,,,,,,,,,,,,,,,,,,,,,,,,,,,,,,,,,,,,,,,,,,,,
903773,001,2022-11-20_17h51.11.407,Info_measure_main_exp,2022.2.2,Win32,54.45733268,,,,,,,,,,,,,,,,,,masks/mask_001.jpg,,,,,,,,,,,,,,,,,,,,,,,,,,,,,,,,,,,,,,,,,,,0,3,3,0,1,,,,,,,,,,,,,,,,,,,,,,,,,,,,,,,,,,,,,,,,,,,,,,
903773,001,2022-11-20_17h51.11.407,Info_measure_main_exp,2022.2.2,Win32,54.45733268,,,,,,,,,,,,,,,,,,masks/mask_003.jpg,,,,,,,,,,,,,,,,,,,,,,,,,,,,,,,,,,,,,,,,,,,0,4,4,2,1,,,,,,,,,,,,,,,,,,,,,,,,,,,,,,,,,,,,,,,,,,,,,,
903773,001,2022-11-20_17h51.11.407,Info_measure_main_exp,2022.2.2,Win32,54.45733268,,,,,,,,,,,,,,,,,,masks/mask_004.jpg,,,,,,,,,,,,,,,,,,,,,,,,,,,,,,,,,,,,,,,,,,,,,,,,0,0,0,3,1,,,,,,,,,,,,,,,,,,,,,,,,,,,,,,,,,,,,,,,,,
903773,001,2022-11-20_17h51.11.407,Info_measure_main_exp,2022.2.2,Win32,54.45733268,,,,,,,,,,,,,,,,,,masks/mask_005.jpg,,,,,,,,,,,,,,,,,,,,,,,,,,,,,,,,,,,,,,,,,,,,,,,,0,1,1,4,1,,,,,,,,,,,,,,,,,,,,,,,,,,,,,,,,,,,,,,,,,
903773,001,2022-11-20_17h51.11.407,Info_measure_main_exp,2022.2.2,Win32,54.45733268,,,,,,,,,,,,,,,,,,masks/mask_002.jpg,,,,,,,,,,,,,,,,,,,,,,,,,,,,,,,,,,,,,,,,,,,,,,,,0,2,2,1,1,,,,,,,,,,,,,,,,,,,,,,,,,,,,,,,,,,,,,,,,,
903773,001,2022-11-20_17h51.11.407,Info_measure_main_exp,2022.2.2,Win32,54.45733268,,,,,,,,,,,,,,,,,,masks/mask_001.jpg,,,,,,,,,,,,,,,,,,,,,,,,,,,,,,,,,,,,,,,,,,,,,,,,0,3,3,0,1,,,,,,,,,,,,,,,,,,,,,,,,,,,,,,,,,,,,,,,,,
903773,001,2022-11-20_17h51.11.407,Info_measure_main_exp,2022.2.2,Win32,54.45733268,,,,,,,,,,,,,,,,,,masks/mask_003.jpg,,,,,,,,,,,,,,,,,,,,,,,,,,,,,,,,,,,,,,,,,,,,,,,,0,4,4,2,1,,,,,,,,,,,,,,,,,,,,,,,,,,,,,,,,,,,,,,,,,
903773,001,2022-11-20_17h51.11.407,Info_measure_main_exp,2022.2.2,Win32,54.45733268,,,,,,,,,,,,,,,,,,,,,,,,,,,,,,7,2.1255,1,,,,,,,,,,,,1,131,5,5,1,2274,present_patch/cong_131_5_a.jpg,absent_patch/patch0002274.jpg,,,,,,,,,,,,,,,,,,,,0.073148162,0.107407393,1,0,0,response1disk,26,0.001851894,-0.003703718,1,0,0,center_square,0,25,25,105,1,,,,,,,,,,,,,,,,,,,,,,,
903773,001,2022-11-20_17h51.11.407,Info_measure_main_exp,2022.2.2,Win32,54.45733268,,,,,,,,,,,,,,,,,,masks/mask_003.jpg,,,,,,,,,,,,,,,,,,,,,,,,,,,,,,,,,,,,,,,,,,,0,0,0,2,1,,,,,,,,,,,,,,,,,,,,,,,,,,,,,,,,,,,,,,,,,,,,,,
903773,001,2022-11-20_17h51.11.407,Info_measure_main_exp,2022.2.2,Win32,54.45733268,,,,,,,,,,,,,,,,,,masks/mask_005.jpg,,,,,,,,,,,,,,,,,,,,,,,,,,,,,,,,,,,,,,,,,,,0,1,1,4,1,,,,,,,,,,,,,,,,,,,,,,,,,,,,,,,,,,,,,,,,,,,,,,
903773,001,2022-11-20_17h51.11.407,Info_measure_main_exp,2022.2.2,Win32,54.45733268,,,,,,,,,,,,,,,,,,masks/mask_001.jpg,,,,,,,,,,,,,,,,,,,,,,,,,,,,,,,,,,,,,,,,,,,0,2,2,0,1,,,,,,,,,,,,,,,,,,,,,,,,,,,,,,,,,,,,,,,,,,,,,,
903773,001,2022-11-20_17h51.11.407,Info_measure_main_exp,2022.2.2,Win32,54.45733268,,,,,,,,,,,,,,,,,,masks/mask_004.jpg,,,,,,,,,,,,,,,,,,,,,,,,,,,,,,,,,,,,,,,,,,,0,3,3,3,1,,,,,,,,,,,,,,,,,,,,,,,,,,,,,,,,,,,,,,,,,,,,,,
903773,001,2022-11-20_17h51.11.407,Info_measure_main_exp,2022.2.2,Win32,54.45733268,,,,,,,,,,,,,,,,,,masks/mask_002.jpg,,,,,,,,,,,,,,,,,,,,,,,,,,,,,,,,,,,,,,,,,,,0,4,4,1,1,,,,,,,,,,,,,,,,,,,,,,,,,,,,,,,,,,,,,,,,,,,,,,
903773,001,2022-11-20_17h51.11.407,Info_measure_main_exp,2022.2.2,Win32,54.45733268,,,,,,,,,,,,,,,,,,masks/mask_001.jpg,,,,,,,,,,,,,,,,,,,,,,,,,,,,,,,,,,,,,,,,,,,,,,,,0,0,0,0,1,,,,,,,,,,,,,,,,,,,,,,,,,,,,,,,,,,,,,,,,,
903773,001,2022-11-20_17h51.11.407,Info_measure_main_exp,2022.2.2,Win32,54.45733268,,,,,,,,,,,,,,,,,,masks/mask_004.jpg,,,,,,,,,,,,,,,,,,,,,,,,,,,,,,,,,,,,,,,,,,,,,,,,0,1,1,3,1,,,,,,,,,,,,,,,,,,,,,,,,,,,,,,,,,,,,,,,,,
903773,001,2022-11-20_17h51.11.407,Info_measure_main_exp,2022.2.2,Win32,54.45733268,,,,,,,,,,,,,,,,,,masks/mask_005.jpg,,,,,,,,,,,,,,,,,,,,,,,,,,,,,,,,,,,,,,,,,,,,,,,,0,2,2,4,1,,,,,,,,,,,,,,,,,,,,,,,,,,,,,,,,,,,,,,,,,
903773,001,2022-11-20_17h51.11.407,Info_measure_main_exp,2022.2.2,Win32,54.45733268,,,,,,,,,,,,,,,,,,masks/mask_003.jpg,,,,,,,,,,,,,,,,,,,,,,,,,,,,,,,,,,,,,,,,,,,,,,,,0,3,3,2,1,,,,,,,,,,,,,,,,,,,,,,,,,,,,,,,,,,,,,,,,,
903773,001,2022-11-20_17h51.11.407,Info_measure_main_exp,2022.2.2,Win32,54.45733268,,,,,,,,,,,,,,,,,,masks/mask_002.jpg,,,,,,,,,,,,,,,,,,,,,,,,,,,,,,,,,,,,,,,,,,,,,,,,0,4,4,1,1,,,,,,,,,,,,,,,,,,,,,,,,,,,,,,,,,,,,,,,,,
903773,001,2022-11-20_17h51.11.407,Info_measure_main_exp,2022.2.2,Win32,54.45733268,,,,,,,,,,,,,,,,,,,,,,,,,,,,,,5,2.22,1,,,,,,,,,,,,1,131,5,5,1950,1,absent_patch/patch0001950.jpg,present_patch/cong_131_5_a.jpg,,,,,,,,,,,,,,,,,,,,0.137037065,-0.057407414,1,0,0,response3disk,27,0.000925912,0.001851859,1,0,0,center_square,0,26,26,39,1,,,,,,,,,,,,,,,,,,,,,,,
903773,001,2022-11-20_17h51.11.407,Info_measure_main_exp,2022.2.2,Win32,54.45733268,,,,,,,,,,,,,,,,,,masks/mask_003.jpg,,,,,,,,,,,,,,,,,,,,,,,,,,,,,,,,,,,,,,,,,,,0,0,0,2,1,,,,,,,,,,,,,,,,,,,,,,,,,,,,,,,,,,,,,,,,,,,,,,
903773,001,2022-11-20_17h51.11.407,Info_measure_main_exp,2022.2.2,Win32,54.45733268,,,,,,,,,,,,,,,,,,masks/mask_001.jpg,,,,,,,,,,,,,,,,,,,,,,,,,,,,,,,,,,,,,,,,,,,0,1,1,0,1,,,,,,,,,,,,,,,,,,,,,,,,,,,,,,,,,,,,,,,,,,,,,,
903773,001,2022-11-20_17h51.11.407,Info_measure_main_exp,2022.2.2,Win32,54.45733268,,,,,,,,,,,,,,,,,,masks/mask_004.jpg,,,,,,,,,,,,,,,,,,,,,,,,,,,,,,,,,,,,,,,,,,,0,2,2,3,1,,,,,,,,,,,,,,,,,,,,,,,,,,,,,,,,,,,,,,,,,,,,,,
903773,001,2022-11-20_17h51.11.407,Info_measure_main_exp,2022.2.2,Win32,54.45733268,,,,,,,,,,,,,,,,,,masks/mask_002.jpg,,,,,,,,,,,,,,,,,,,,,,,,,,,,,,,,,,,,,,,,,,,0,3,3,1,1,,,,,,,,,,,,,,,,,,,,,,,,,,,,,,,,,,,,,,,,,,,,,,
903773,001,2022-11-20_17h51.11.407,Info_measure_main_exp,2022.2.2,Win32,54.45733268,,,,,,,,,,,,,,,,,,masks/mask_005.jpg,,,,,,,,,,,,,,,,,,,,,,,,,,,,,,,,,,,,,,,,,,,0,4,4,4,1,,,,,,,,,,,,,,,,,,,,,,,,,,,,,,,,,,,,,,,,,,,,,,
903773,001,2022-11-20_17h51.11.407,Info_measure_main_exp,2022.2.2,Win32,54.45733268,,,,,,,,,,,,,,,,,,masks/mask_005.jpg,,,,,,,,,,,,,,,,,,,,,,,,,,,,,,,,,,,,,,,,,,,,,,,,0,0,0,4,1,,,,,,,,,,,,,,,,,,,,,,,,,,,,,,,,,,,,,,,,,
903773,001,2022-11-20_17h51.11.407,Info_measure_main_exp,2022.2.2,Win32,54.45733268,,,,,,,,,,,,,,,,,,masks/mask_002.jpg,,,,,,,,,,,,,,,,,,,,,,,,,,,,,,,,,,,,,,,,,,,,,,,,0,1,1,1,1,,,,,,,,,,,,,,,,,,,,,,,,,,,,,,,,,,,,,,,,,
903773,001,2022-11-20_17h51.11.407,Info_measure_main_exp,2022.2.2,Win32,54.45733268,,,,,,,,,,,,,,,,,,masks/mask_003.jpg,,,,,,,,,,,,,,,,,,,,,,,,,,,,,,,,,,,,,,,,,,,,,,,,0,2,2,2,1,,,,,,,,,,,,,,,,,,,,,,,,,,,,,,,,,,,,,,,,,
903773,001,2022-11-20_17h51.11.407,Info_measure_main_exp,2022.2.2,Win32,54.45733268,,,,,,,,,,,,,,,,,,masks/mask_004.jpg,,,,,,,,,,,,,,,,,,,,,,,,,,,,,,,,,,,,,,,,,,,,,,,,0,3,3,3,1,,,,,,,,,,,,,,,,,,,,,,,,,,,,,,,,,,,,,,,,,
903773,001,2022-11-20_17h51.11.407,Info_measure_main_exp,2022.2.2,Win32,54.45733268,,,,,,,,,,,,,,,,,,masks/mask_001.jpg,,,,,,,,,,,,,,,,,,,,,,,,,,,,,,,,,,,,,,,,,,,,,,,,0,4,4,0,1,,,,,,,,,,,,,,,,,,,,,,,,,,,,,,,,,,,,,,,,,
903773,001,2022-11-20_17h51.11.407,Info_measure_main_exp,2022.2.2,Win32,54.45733268,,,,,,,,,,,,,,,,,,,,,,,,,,,,,,5,1.9834,1,,,,,,,,,,,,0,131,5,5,2274,1950,absent_patch/patch0002274.jpg,absent_patch/patch0001950.jpg,,,,,,,,,,,,,,,,,,,,0.075925968,-0.053703697,1,0,0,response3disk,28,-0.012036995,-0.003703718,1,0,0,center_square,0,27,27,10,1,,,,,,,,,,,,,,,,,,,,,,,
903773,001,2022-11-20_17h51.11.407,Info_measure_main_exp,2022.2.2,Win32,54.45733268,,,,,,,,,,,,,,,,,,masks/mask_002.jpg,,,,,,,,,,,,,,,,,,,,,,,,,,,,,,,,,,,,,,,,,,,0,0,0,1,1,,,,,,,,,,,,,,,,,,,,,,,,,,,,,,,,,,,,,,,,,,,,,,
903773,001,2022-11-20_17h51.11.407,Info_measure_main_exp,2022.2.2,Win32,54.45733268,,,,,,,,,,,,,,,,,,masks/mask_003.jpg,,,,,,,,,,,,,,,,,,,,,,,,,,,,,,,,,,,,,,,,,,,0,1,1,2,1,,,,,,,,,,,,,,,,,,,,,,,,,,,,,,,,,,,,,,,,,,,,,,
903773,001,2022-11-20_17h51.11.407,Info_measure_main_exp,2022.2.2,Win32,54.45733268,,,,,,,,,,,,,,,,,,masks/mask_004.jpg,,,,,,,,,,,,,,,,,,,,,,,,,,,,,,,,,,,,,,,,,,,0,2,2,3,1,,,,,,,,,,,,,,,,,,,,,,,,,,,,,,,,,,,,,,,,,,,,,,
903773,001,2022-11-20_17h51.11.407,Info_measure_main_exp,2022.2.2,Win32,54.45733268,,,,,,,,,,,,,,,,,,masks/mask_005.jpg,,,,,,,,,,,,,,,,,,,,,,,,,,,,,,,,,,,,,,,,,,,0,3,3,4,1,,,,,,,,,,,,,,,,,,,,,,,,,,,,,,,,,,,,,,,,,,,,,,
903773,001,2022-11-20_17h51.11.407,Info_measure_main_exp,2022.2.2,Win32,54.45733268,,,,,,,,,,,,,,,,,,masks/mask_001.jpg,,,,,,,,,,,,,,,,,,,,,,,,,,,,,,,,,,,,,,,,,,,0,4,4,0,1,,,,,,,,,,,,,,,,,,,,,,,,,,,,,,,,,,,,,,,,,,,,,,
903773,001,2022-11-20_17h51.11.407,Info_measure_main_exp,2022.2.2,Win32,54.45733268,,,,,,,,,,,,,,,,,,masks/mask_001.jpg,,,,,,,,,,,,,,,,,,,,,,,,,,,,,,,,,,,,,,,,,,,,,,,,0,0,0,0,1,,,,,,,,,,,,,,,,,,,,,,,,,,,,,,,,,,,,,,,,,
903773,001,2022-11-20_17h51.11.407,Info_measure_main_exp,2022.2.2,Win32,54.45733268,,,,,,,,,,,,,,,,,,masks/mask_005.jpg,,,,,,,,,,,,,,,,,,,,,,,,,,,,,,,,,,,,,,,,,,,,,,,,0,1,1,4,1,,,,,,,,,,,,,,,,,,,,,,,,,,,,,,,,,,,,,,,,,
903773,001,2022-11-20_17h51.11.407,Info_measure_main_exp,2022.2.2,Win32,54.45733268,,,,,,,,,,,,,,,,,,masks/mask_004.jpg,,,,,,,,,,,,,,,,,,,,,,,,,,,,,,,,,,,,,,,,,,,,,,,,0,2,2,3,1,,,,,,,,,,,,,,,,,,,,,,,,,,,,,,,,,,,,,,,,,
903773,001,2022-11-20_17h51.11.407,Info_measure_main_exp,2022.2.2,Win32,54.45733268,,,,,,,,,,,,,,,,,,masks/mask_002.jpg,,,,,,,,,,,,,,,,,,,,,,,,,,,,,,,,,,,,,,,,,,,,,,,,0,3,3,1,1,,,,,,,,,,,,,,,,,,,,,,,,,,,,,,,,,,,,,,,,,
903773,001,2022-11-20_17h51.11.407,Info_measure_main_exp,2022.2.2,Win32,54.45733268,,,,,,,,,,,,,,,,,,masks/mask_003.jpg,,,,,,,,,,,,,,,,,,,,,,,,,,,,,,,,,,,,,,,,,,,,,,,,0,4,4,2,1,,,,,,,,,,,,,,,,,,,,,,,,,,,,,,,,,,,,,,,,,
903773,001,2022-11-20_17h51.11.407,Info_measure_main_exp,2022.2.2,Win32,54.45733268,,,,,,,,,,,,,,,,,,,,,,,,,,,,,,4,1.2153,1,,,,,,,,,,,,0,131,5,5,2274,2082,absent_patch/patch0002274.jpg,absent_patch/patch0002082.jpg,,,,,,,,,,,,,,,,,,,,0.042592578,-0.073148162,1,0,0,response3disk,29,-0.010185171,0.005555541,1,0,0,center_square,0,28,28,100,1,,,,,,,,,,,,,,,,,,,,,,,
903773,001,2022-11-20_17h51.11.407,Info_measure_main_exp,2022.2.2,Win32,54.45733268,,,,,,,,,,,,,,,,,,masks/mask_005.jpg,,,,,,,,,,,,,,,,,,,,,,,,,,,,,,,,,,,,,,,,,,,0,0,0,4,1,,,,,,,,,,,,,,,,,,,,,,,,,,,,,,,,,,,,,,,,,,,,,,
903773,001,2022-11-20_17h51.11.407,Info_measure_main_exp,2022.2.2,Win32,54.45733268,,,,,,,,,,,,,,,,,,masks/mask_004.jpg,,,,,,,,,,,,,,,,,,,,,,,,,,,,,,,,,,,,,,,,,,,0,1,1,3,1,,,,,,,,,,,,,,,,,,,,,,,,,,,,,,,,,,,,,,,,,,,,,,
903773,001,2022-11-20_17h51.11.407,Info_measure_main_exp,2022.2.2,Win32,54.45733268,,,,,,,,,,,,,,,,,,masks/mask_003.jpg,,,,,,,,,,,,,,,,,,,,,,,,,,,,,,,,,,,,,,,,,,,0,2,2,2,1,,,,,,,,,,,,,,,,,,,,,,,,,,,,,,,,,,,,,,,,,,,,,,
903773,001,2022-11-20_17h51.11.407,Info_measure_main_exp,2022.2.2,Win32,54.45733268,,,,,,,,,,,,,,,,,,masks/mask_001.jpg,,,,,,,,,,,,,,,,,,,,,,,,,,,,,,,,,,,,,,,,,,,0,3,3,0,1,,,,,,,,,,,,,,,,,,,,,,,,,,,,,,,,,,,,,,,,,,,,,,
903773,001,2022-11-20_17h51.11.407,Info_measure_main_exp,2022.2.2,Win32,54.45733268,,,,,,,,,,,,,,,,,,masks/mask_002.jpg,,,,,,,,,,,,,,,,,,,,,,,,,,,,,,,,,,,,,,,,,,,0,4,4,1,1,,,,,,,,,,,,,,,,,,,,,,,,,,,,,,,,,,,,,,,,,,,,,,
903773,001,2022-11-20_17h51.11.407,Info_measure_main_exp,2022.2.2,Win32,54.45733268,,,,,,,,,,,,,,,,,,masks/mask_004.jpg,,,,,,,,,,,,,,,,,,,,,,,,,,,,,,,,,,,,,,,,,,,,,,,,0,0,0,3,1,,,,,,,,,,,,,,,,,,,,,,,,,,,,,,,,,,,,,,,,,
903773,001,2022-11-20_17h51.11.407,Info_measure_main_exp,2022.2.2,Win32,54.45733268,,,,,,,,,,,,,,,,,,masks/mask_003.jpg,,,,,,,,,,,,,,,,,,,,,,,,,,,,,,,,,,,,,,,,,,,,,,,,0,1,1,2,1,,,,,,,,,,,,,,,,,,,,,,,,,,,,,,,,,,,,,,,,,
903773,001,2022-11-20_17h51.11.407,Info_measure_main_exp,2022.2.2,Win32,54.45733268,,,,,,,,,,,,,,,,,,masks/mask_005.jpg,,,,,,,,,,,,,,,,,,,,,,,,,,,,,,,,,,,,,,,,,,,,,,,,0,2,2,4,1,,,,,,,,,,,,,,,,,,,,,,,,,,,,,,,,,,,,,,,,,
903773,001,2022-11-20_17h51.11.407,Info_measure_main_exp,2022.2.2,Win32,54.45733268,,,,,,,,,,,,,,,,,,masks/mask_002.jpg,,,,,,,,,,,,,,,,,,,,,,,,,,,,,,,,,,,,,,,,,,,,,,,,0,3,3,1,1,,,,,,,,,,,,,,,,,,,,,,,,,,,,,,,,,,,,,,,,,
903773,001,2022-11-20_17h51.11.407,Info_measure_main_exp,2022.2.2,Win32,54.45733268,,,,,,,,,,,,,,,,,,masks/mask_001.jpg,,,,,,,,,,,,,,,,,,,,,,,,,,,,,,,,,,,,,,,,,,,,,,,,0,4,4,0,1,,,,,,,,,,,,,,,,,,,,,,,,,,,,,,,,,,,,,,,,,
903773,001,2022-11-20_17h51.11.407,Info_measure_main_exp,2022.2.2,Win32,54.45733268,,,,,,,,,,,,,,,,,,,,,,,,,,,,,,7,1.8678,1,,,,,,,,,,,,0,131,5,5,1974,2214,absent_patch/patch0001974.jpg,absent_patch/patch0002214.jpg,,,,,,,,,,,,,,,,,,,,0.095370399,0.160185178,1,0,0,response1disk,30,0.000925912,0.005555541,1,0,0,center_square,0,29,29,24,1,,,,,,,,,,,,,,,,,,,,,,,
903773,001,2022-11-20_17h51.11.407,Info_measure_main_exp,2022.2.2,Win32,54.45733268,,,,,,,,,,,,,,,,,,masks/mask_003.jpg,,,,,,,,,,,,,,,,,,,,,,,,,,,,,,,,,,,,,,,,,,,0,0,0,2,1,,,,,,,,,,,,,,,,,,,,,,,,,,,,,,,,,,,,,,,,,,,,,,
903773,001,2022-11-20_17h51.11.407,Info_measure_main_exp,2022.2.2,Win32,54.45733268,,,,,,,,,,,,,,,,,,masks/mask_005.jpg,,,,,,,,,,,,,,,,,,,,,,,,,,,,,,,,,,,,,,,,,,,0,1,1,4,1,,,,,,,,,,,,,,,,,,,,,,,,,,,,,,,,,,,,,,,,,,,,,,
903773,001,2022-11-20_17h51.11.407,Info_measure_main_exp,2022.2.2,Win32,54.45733268,,,,,,,,,,,,,,,,,,masks/mask_004.jpg,,,,,,,,,,,,,,,,,,,,,,,,,,,,,,,,,,,,,,,,,,,0,2,2,3,1,,,,,,,,,,,,,,,,,,,,,,,,,,,,,,,,,,,,,,,,,,,,,,
903773,001,2022-11-20_17h51.11.407,Info_measure_main_exp,2022.2.2,Win32,54.45733268,,,,,,,,,,,,,,,,,,masks/mask_002.jpg,,,,,,,,,,,,,,,,,,,,,,,,,,,,,,,,,,,,,,,,,,,0,3,3,1,1,,,,,,,,,,,,,,,,,,,,,,,,,,,,,,,,,,,,,,,,,,,,,,
903773,001,2022-11-20_17h51.11.407,Info_measure_main_exp,2022.2.2,Win32,54.45733268,,,,,,,,,,,,,,,,,,masks/mask_001.jpg,,,,,,,,,,,,,,,,,,,,,,,,,,,,,,,,,,,,,,,,,,,0,4,4,0,1,,,,,,,,,,,,,,,,,,,,,,,,,,,,,,,,,,,,,,,,,,,,,,
903773,001,2022-11-20_17h51.11.407,Info_measure_main_exp,2022.2.2,Win32,54.45733268,,,,,,,,,,,,,,,,,,masks/mask_003.jpg,,,,,,,,,,,,,,,,,,,,,,,,,,,,,,,,,,,,,,,,,,,,,,,,0,0,0,2,1,,,,,,,,,,,,,,,,,,,,,,,,,,,,,,,,,,,,,,,,,
903773,001,2022-11-20_17h51.11.407,Info_measure_main_exp,2022.2.2,Win32,54.45733268,,,,,,,,,,,,,,,,,,masks/mask_005.jpg,,,,,,,,,,,,,,,,,,,,,,,,,,,,,,,,,,,,,,,,,,,,,,,,0,1,1,4,1,,,,,,,,,,,,,,,,,,,,,,,,,,,,,,,,,,,,,,,,,
903773,001,2022-11-20_17h51.11.407,Info_measure_main_exp,2022.2.2,Win32,54.45733268,,,,,,,,,,,,,,,,,,masks/mask_004.jpg,,,,,,,,,,,,,,,,,,,,,,,,,,,,,,,,,,,,,,,,,,,,,,,,0,2,2,3,1,,,,,,,,,,,,,,,,,,,,,,,,,,,,,,,,,,,,,,,,,
903773,001,2022-11-20_17h51.11.407,Info_measure_main_exp,2022.2.2,Win32,54.45733268,,,,,,,,,,,,,,,,,,masks/mask_002.jpg,,,,,,,,,,,,,,,,,,,,,,,,,,,,,,,,,,,,,,,,,,,,,,,,0,3,3,1,1,,,,,,,,,,,,,,,,,,,,,,,,,,,,,,,,,,,,,,,,,
903773,001,2022-11-20_17h51.11.407,Info_measure_main_exp,2022.2.2,Win32,54.45733268,,,,,,,,,,,,,,,,,,masks/mask_001.jpg,,,,,,,,,,,,,,,,,,,,,,,,,,,,,,,,,,,,,,,,,,,,,,,,0,4,4,0,1,,,,,,,,,,,,,,,,,,,,,,,,,,,,,,,,,,,,,,,,,
903773,001,2022-11-20_17h51.11.407,Info_measure_main_exp,2022.2.2,Win32,54.45733268,,,,,,,,,,,,,,,,,,,,,,,,,,,,,,6,1.594,1,,,,,,,,,,,,0,131,5,5,1950,2238,absent_patch/patch0001950.jpg,absent_patch/patch0002238.jpg,,,,,,,,,,,,,,,,,,,,0.139814801,0.075925933,1,0,0,response1disk,31,0.013888889,-0.000925947,1,0,0,center_square,0,30,30,8,1,,,,,,,,,,,,,,,,,,,,,,,
903773,001,2022-11-20_17h51.11.407,Info_measure_main_exp,2022.2.2,Win32,54.45733268,,,,,,,,,,,,,,,,,,masks/mask_002.jpg,,,,,,,,,,,,,,,,,,,,,,,,,,,,,,,,,,,,,,,,,,,0,0,0,1,1,,,,,,,,,,,,,,,,,,,,,,,,,,,,,,,,,,,,,,,,,,,,,,
903773,001,2022-11-20_17h51.11.407,Info_measure_main_exp,2022.2.2,Win32,54.45733268,,,,,,,,,,,,,,,,,,masks/mask_001.jpg,,,,,,,,,,,,,,,,,,,,,,,,,,,,,,,,,,,,,,,,,,,0,1,1,0,1,,,,,,,,,,,,,,,,,,,,,,,,,,,,,,,,,,,,,,,,,,,,,,
903773,001,2022-11-20_17h51.11.407,Info_measure_main_exp,2022.2.2,Win32,54.45733268,,,,,,,,,,,,,,,,,,masks/mask_003.jpg,,,,,,,,,,,,,,,,,,,,,,,,,,,,,,,,,,,,,,,,,,,0,2,2,2,1,,,,,,,,,,,,,,,,,,,,,,,,,,,,,,,,,,,,,,,,,,,,,,
903773,001,2022-11-20_17h51.11.407,Info_measure_main_exp,2022.2.2,Win32,54.45733268,,,,,,,,,,,,,,,,,,masks/mask_005.jpg,,,,,,,,,,,,,,,,,,,,,,,,,,,,,,,,,,,,,,,,,,,0,3,3,4,1,,,,,,,,,,,,,,,,,,,,,,,,,,,,,,,,,,,,,,,,,,,,,,
903773,001,2022-11-20_17h51.11.407,Info_measure_main_exp,2022.2.2,Win32,54.45733268,,,,,,,,,,,,,,,,,,masks/mask_004.jpg,,,,,,,,,,,,,,,,,,,,,,,,,,,,,,,,,,,,,,,,,,,0,4,4,3,1,,,,,,,,,,,,,,,,,,,,,,,,,,,,,,,,,,,,,,,,,,,,,,
903773,001,2022-11-20_17h51.11.407,Info_measure_main_exp,2022.2.2,Win32,54.45733268,,,,,,,,,,,,,,,,,,masks/mask_002.jpg,,,,,,,,,,,,,,,,,,,,,,,,,,,,,,,,,,,,,,,,,,,,,,,,0,0,0,1,1,,,,,,,,,,,,,,,,,,,,,,,,,,,,,,,,,,,,,,,,,
903773,001,2022-11-20_17h51.11.407,Info_measure_main_exp,2022.2.2,Win32,54.45733268,,,,,,,,,,,,,,,,,,masks/mask_004.jpg,,,,,,,,,,,,,,,,,,,,,,,,,,,,,,,,,,,,,,,,,,,,,,,,0,1,1,3,1,,,,,,,,,,,,,,,,,,,,,,,,,,,,,,,,,,,,,,,,,
903773,001,2022-11-20_17h51.11.407,Info_measure_main_exp,2022.2.2,Win32,54.45733268,,,,,,,,,,,,,,,,,,masks/mask_003.jpg,,,,,,,,,,,,,,,,,,,,,,,,,,,,,,,,,,,,,,,,,,,,,,,,0,2,2,2,1,,,,,,,,,,,,,,,,,,,,,,,,,,,,,,,,,,,,,,,,,
903773,001,2022-11-20_17h51.11.407,Info_measure_main_exp,2022.2.2,Win32,54.45733268,,,,,,,,,,,,,,,,,,masks/mask_001.jpg,,,,,,,,,,,,,,,,,,,,,,,,,,,,,,,,,,,,,,,,,,,,,,,,0,3,3,0,1,,,,,,,,,,,,,,,,,,,,,,,,,,,,,,,,,,,,,,,,,
903773,001,2022-11-20_17h51.11.407,Info_measure_main_exp,2022.2.2,Win32,54.45733268,,,,,,,,,,,,,,,,,,masks/mask_005.jpg,,,,,,,,,,,,,,,,,,,,,,,,,,,,,,,,,,,,,,,,,,,,,,,,0,4,4,4,1,,,,,,,,,,,,,,,,,,,,,,,,,,,,,,,,,,,,,,,,,
903773,001,2022-11-20_17h51.11.407,Info_measure_main_exp,2022.2.2,Win32,54.45733268,,,,,,,,,,,,,,,,,,,,,,,,,,,,,,6,15.8462,1,,,,,,,,,,,,0,131,5,5,2082,1986,absent_patch/patch0002082.jpg,absent_patch/patch0001986.jpg,,,,,,,,,,,,,,,,,,,,0.082407422,0.02407406,1,0,0,response1disk,32,0,0.001851859,1,0,0,center_square,0,31,31,94,1,,,,,,,,,,,,,,,,,,,,,,,
903773,001,2022-11-20_17h51.11.407,Info_measure_main_exp,2022.2.2,Win32,54.45733268,,,,,,,,,,,,,,,,,,masks/mask_004.jpg,,,,,,,,,,,,,,,,,,,,,,,,,,,,,,,,,,,,,,,,,,,0,0,0,3,1,,,,,,,,,,,,,,,,,,,,,,,,,,,,,,,,,,,,,,,,,,,,,,
903773,001,2022-11-20_17h51.11.407,Info_measure_main_exp,2022.2.2,Win32,54.45733268,,,,,,,,,,,,,,,,,,masks/mask_002.jpg,,,,,,,,,,,,,,,,,,,,,,,,,,,,,,,,,,,,,,,,,,,0,1,1,1,1,,,,,,,,,,,,,,,,,,,,,,,,,,,,,,,,,,,,,,,,,,,,,,
903773,001,2022-11-20_17h51.11.407,Info_measure_main_exp,2022.2.2,Win32,54.45733268,,,,,,,,,,,,,,,,,,masks/mask_005.jpg,,,,,,,,,,,,,,,,,,,,,,,,,,,,,,,,,,,,,,,,,,,0,2,2,4,1,,,,,,,,,,,,,,,,,,,,,,,,,,,,,,,,,,,,,,,,,,,,,,
903773,001,2022-11-20_17h51.11.407,Info_measure_main_exp,2022.2.2,Win32,54.45733268,,,,,,,,,,,,,,,,,,masks/mask_003.jpg,,,,,,,,,,,,,,,,,,,,,,,,,,,,,,,,,,,,,,,,,,,0,3,3,2,1,,,,,,,,,,,,,,,,,,,,,,,,,,,,,,,,,,,,,,,,,,,,,,
903773,001,2022-11-20_17h51.11.407,Info_measure_main_exp,2022.2.2,Win32,54.45733268,,,,,,,,,,,,,,,,,,masks/mask_001.jpg,,,,,,,,,,,,,,,,,,,,,,,,,,,,,,,,,,,,,,,,,,,0,4,4,0,1,,,,,,,,,,,,,,,,,,,,,,,,,,,,,,,,,,,,,,,,,,,,,,
903773,001,2022-11-20_17h51.11.407,Info_measure_main_exp,2022.2.2,Win32,54.45733268,,,,,,,,,,,,,,,,,,masks/mask_001.jpg,,,,,,,,,,,,,,,,,,,,,,,,,,,,,,,,,,,,,,,,,,,,,,,,0,0,0,0,1,,,,,,,,,,,,,,,,,,,,,,,,,,,,,,,,,,,,,,,,,
903773,001,2022-11-20_17h51.11.407,Info_measure_main_exp,2022.2.2,Win32,54.45733268,,,,,,,,,,,,,,,,,,masks/mask_002.jpg,,,,,,,,,,,,,,,,,,,,,,,,,,,,,,,,,,,,,,,,,,,,,,,,0,1,1,1,1,,,,,,,,,,,,,,,,,,,,,,,,,,,,,,,,,,,,,,,,,
903773,001,2022-11-20_17h51.11.407,Info_measure_main_exp,2022.2.2,Win32,54.45733268,,,,,,,,,,,,,,,,,,masks/mask_005.jpg,,,,,,,,,,,,,,,,,,,,,,,,,,,,,,,,,,,,,,,,,,,,,,,,0,2,2,4,1,,,,,,,,,,,,,,,,,,,,,,,,,,,,,,,,,,,,,,,,,
903773,001,2022-11-20_17h51.11.407,Info_measure_main_exp,2022.2.2,Win32,54.45733268,,,,,,,,,,,,,,,,,,masks/mask_004.jpg,,,,,,,,,,,,,,,,,,,,,,,,,,,,,,,,,,,,,,,,,,,,,,,,0,3,3,3,1,,,,,,,,,,,,,,,,,,,,,,,,,,,,,,,,,,,,,,,,,
903773,001,2022-11-20_17h51.11.407,Info_measure_main_exp,2022.2.2,Win32,54.45733268,,,,,,,,,,,,,,,,,,masks/mask_003.jpg,,,,,,,,,,,,,,,,,,,,,,,,,,,,,,,,,,,,,,,,,,,,,,,,0,4,4,2,1,,,,,,,,,,,,,,,,,,,,,,,,,,,,,,,,,,,,,,,,,
903773,001,2022-11-20_17h51.11.407,Info_measure_main_exp,2022.2.2,Win32,54.45733268,,,,,,,,,,,,,,,,,,,,,,,,,,,,,,3,3.43,1,,,,,,,,,,,,0,131,5,5,2142,2082,absent_patch/patch0002142.jpg,absent_patch/patch0002082.jpg,,,,,,,,,,,,,,,,,,,,-0.008333347,-0.112963005,1,0,0,response5disk,33,0.003703718,-0.000925947,1,0,0,center_square,0,32,32,88,1,,,,,,,,,,,,,,,,,,,,,,,
903773,001,2022-11-20_17h51.11.407,Info_measure_main_exp,2022.2.2,Win32,54.45733268,,,,,,,,,,,,,,,,,,masks/mask_004.jpg,,,,,,,,,,,,,,,,,,,,,,,,,,,,,,,,,,,,,,,,,,,0,0,0,3,1,,,,,,,,,,,,,,,,,,,,,,,,,,,,,,,,,,,,,,,,,,,,,,
903773,001,2022-11-20_17h51.11.407,Info_measure_main_exp,2022.2.2,Win32,54.45733268,,,,,,,,,,,,,,,,,,masks/mask_002.jpg,,,,,,,,,,,,,,,,,,,,,,,,,,,,,,,,,,,,,,,,,,,0,1,1,1,1,,,,,,,,,,,,,,,,,,,,,,,,,,,,,,,,,,,,,,,,,,,,,,
903773,001,2022-11-20_17h51.11.407,Info_measure_main_exp,2022.2.2,Win32,54.45733268,,,,,,,,,,,,,,,,,,masks/mask_005.jpg,,,,,,,,,,,,,,,,,,,,,,,,,,,,,,,,,,,,,,,,,,,0,2,2,4,1,,,,,,,,,,,,,,,,,,,,,,,,,,,,,,,,,,,,,,,,,,,,,,
903773,001,2022-11-20_17h51.11.407,Info_measure_main_exp,2022.2.2,Win32,54.45733268,,,,,,,,,,,,,,,,,,masks/mask_001.jpg,,,,,,,,,,,,,,,,,,,,,,,,,,,,,,,,,,,,,,,,,,,0,3,3,0,1,,,,,,,,,,,,,,,,,,,,,,,,,,,,,,,,,,,,,,,,,,,,,,
903773,001,2022-11-20_17h51.11.407,Info_measure_main_exp,2022.2.2,Win32,54.45733268,,,,,,,,,,,,,,,,,,masks/mask_003.jpg,,,,,,,,,,,,,,,,,,,,,,,,,,,,,,,,,,,,,,,,,,,0,4,4,2,1,,,,,,,,,,,,,,,,,,,,,,,,,,,,,,,,,,,,,,,,,,,,,,
903773,001,2022-11-20_17h51.11.407,Info_measure_main_exp,2022.2.2,Win32,54.45733268,,,,,,,,,,,,,,,,,,masks/mask_004.jpg,,,,,,,,,,,,,,,,,,,,,,,,,,,,,,,,,,,,,,,,,,,,,,,,0,0,0,3,1,,,,,,,,,,,,,,,,,,,,,,,,,,,,,,,,,,,,,,,,,
903773,001,2022-11-20_17h51.11.407,Info_measure_main_exp,2022.2.2,Win32,54.45733268,,,,,,,,,,,,,,,,,,masks/mask_003.jpg,,,,,,,,,,,,,,,,,,,,,,,,,,,,,,,,,,,,,,,,,,,,,,,,0,1,1,2,1,,,,,,,,,,,,,,,,,,,,,,,,,,,,,,,,,,,,,,,,,
903773,001,2022-11-20_17h51.11.407,Info_measure_main_exp,2022.2.2,Win32,54.45733268,,,,,,,,,,,,,,,,,,masks/mask_002.jpg,,,,,,,,,,,,,,,,,,,,,,,,,,,,,,,,,,,,,,,,,,,,,,,,0,2,2,1,1,,,,,,,,,,,,,,,,,,,,,,,,,,,,,,,,,,,,,,,,,
903773,001,2022-11-20_17h51.11.407,Info_measure_main_exp,2022.2.2,Win32,54.45733268,,,,,,,,,,,,,,,,,,masks/mask_005.jpg,,,,,,,,,,,,,,,,,,,,,,,,,,,,,,,,,,,,,,,,,,,,,,,,0,3,3,4,1,,,,,,,,,,,,,,,,,,,,,,,,,,,,,,,,,,,,,,,,,
903773,001,2022-11-20_17h51.11.407,Info_measure_main_exp,2022.2.2,Win32,54.45733268,,,,,,,,,,,,,,,,,,masks/mask_001.jpg,,,,,,,,,,,,,,,,,,,,,,,,,,,,,,,,,,,,,,,,,,,,,,,,0,4,4,0,1,,,,,,,,,,,,,,,,,,,,,,,,,,,,,,,,,,,,,,,,,
903773,001,2022-11-20_17h51.11.407,Info_measure_main_exp,2022.2.2,Win32,54.45733268,,,,,,,,,,,,,,,,,,,,,,,,,,,,,,3,1.6817,1,,,,,,,,,,,,0,131,5,5,1950,2142,absent_patch/patch0001950.jpg,absent_patch/patch0002142.jpg,,,,,,,,,,,,,,,,,,,,-0.041666667,-0.132407436,1,0,0,response5disk,34,0.001851894,-0.011111118,1,0,0,center_square,0,33,33,83,1,,,,,,,,,,,,,,,,,,,,,,,
903773,001,2022-11-20_17h51.11.407,Info_measure_main_exp,2022.2.2,Win32,54.45733268,,,,,,,,,,,,,,,,,,masks/mask_001.jpg,,,,,,,,,,,,,,,,,,,,,,,,,,,,,,,,,,,,,,,,,,,0,0,0,0,1,,,,,,,,,,,,,,,,,,,,,,,,,,,,,,,,,,,,,,,,,,,,,,
903773,001,2022-11-20_17h51.11.407,Info_measure_main_exp,2022.2.2,Win32,54.45733268,,,,,,,,,,,,,,,,,,masks/mask_005.jpg,,,,,,,,,,,,,,,,,,,,,,,,,,,,,,,,,,,,,,,,,,,0,1,1,4,1,,,,,,,,,,,,,,,,,,,,,,,,,,,,,,,,,,,,,,,,,,,,,,
903773,001,2022-11-20_17h51.11.407,Info_measure_main_exp,2022.2.2,Win32,54.45733268,,,,,,,,,,,,,,,,,,masks/mask_002.jpg,,,,,,,,,,,,,,,,,,,,,,,,,,,,,,,,,,,,,,,,,,,0,2,2,1,1,,,,,,,,,,,,,,,,,,,,,,,,,,,,,,,,,,,,,,,,,,,,,,
903773,001,2022-11-20_17h51.11.407,Info_measure_main_exp,2022.2.2,Win32,54.45733268,,,,,,,,,,,,,,,,,,masks/mask_004.jpg,,,,,,,,,,,,,,,,,,,,,,,,,,,,,,,,,,,,,,,,,,,0,3,3,3,1,,,,,,,,,,,,,,,,,,,,,,,,,,,,,,,,,,,,,,,,,,,,,,
903773,001,2022-11-20_17h51.11.407,Info_measure_main_exp,2022.2.2,Win32,54.45733268,,,,,,,,,,,,,,,,,,masks/mask_003.jpg,,,,,,,,,,,,,,,,,,,,,,,,,,,,,,,,,,,,,,,,,,,0,4,4,2,1,,,,,,,,,,,,,,,,,,,,,,,,,,,,,,,,,,,,,,,,,,,,,,
903773,001,2022-11-20_17h51.11.407,Info_measure_main_exp,2022.2.2,Win32,54.45733268,,,,,,,,,,,,,,,,,,masks/mask_001.jpg,,,,,,,,,,,,,,,,,,,,,,,,,,,,,,,,,,,,,,,,,,,,,,,,0,0,0,0,1,,,,,,,,,,,,,,,,,,,,,,,,,,,,,,,,,,,,,,,,,
903773,001,2022-11-20_17h51.11.407,Info_measure_main_exp,2022.2.2,Win32,54.45733268,,,,,,,,,,,,,,,,,,masks/mask_005.jpg,,,,,,,,,,,,,,,,,,,,,,,,,,,,,,,,,,,,,,,,,,,,,,,,0,1,1,4,1,,,,,,,,,,,,,,,,,,,,,,,,,,,,,,,,,,,,,,,,,
903773,001,2022-11-20_17h51.11.407,Info_measure_main_exp,2022.2.2,Win32,54.45733268,,,,,,,,,,,,,,,,,,masks/mask_003.jpg,,,,,,,,,,,,,,,,,,,,,,,,,,,,,,,,,,,,,,,,,,,,,,,,0,2,2,2,1,,,,,,,,,,,,,,,,,,,,,,,,,,,,,,,,,,,,,,,,,
903773,001,2022-11-20_17h51.11.407,Info_measure_main_exp,2022.2.2,Win32,54.45733268,,,,,,,,,,,,,,,,,,masks/mask_004.jpg,,,,,,,,,,,,,,,,,,,,,,,,,,,,,,,,,,,,,,,,,,,,,,,,0,3,3,3,1,,,,,,,,,,,,,,,,,,,,,,,,,,,,,,,,,,,,,,,,,
