participant,session,date,expName,psychopyVersion,OS,frameRate,space_press_continue.keys,space_press_continue.rt,space_press_continue_2.keys,space_press_continue_2.rt,space_press_continue_3.keys,space_press_continue_3.rt,space_press_continue_4.keys,space_press_continue_4.rt,space_press_continue_5.keys,space_press_continue_5.rt,space_press_continue_6.keys,space_press_continue_6.rt,prac_mask_loop_1.thisRepN,prac_mask_loop_1.thisTrialN,prac_mask_loop_1.thisN,prac_mask_loop_1.thisIndex,prac_mask_loop_1.ran,mask_name,prac_mask_loop_2.thisRepN,prac_mask_loop_2.thisTrialN,prac_mask_loop_2.thisN,prac_mask_loop_2.thisIndex,prac_mask_loop_2.ran,mouse_2.x,mouse_2.y,mouse_2.leftButton,mouse_2.midButton,mouse_2.rightButton,mouse_2.clicked_name,similarity,response_time,Pass,mouse_12.x,mouse_12.y,mouse_12.leftButton,mouse_12.midButton,mouse_12.rightButton,mouse_12.clicked_name,prac_loop.thisRepN,prac_loop.thisTrialN,prac_loop.thisN,prac_loop.thisIndex,prac_loop.ran,Pair_type,Image_num,Patch_1_loc,Patch_2_loc,Patch_1_info,Patch_2_info,Patch_1_name,Patch_2_name,mouse_1.x,mouse_1.y,mouse_1.leftButton,mouse_1.midButton,mouse_1.rightButton,mouse_1.time,mouse_1.clicked_name,space_press_continue_7.keys,space_press_continue_7.rt,mask_loop.thisRepN,mask_loop.thisTrialN,mask_loop.thisN,mask_loop.thisIndex,mask_loop.ran,mask_loop_2.thisRepN,mask_loop_2.thisTrialN,mask_loop_2.thisN,mask_loop_2.thisIndex,mask_loop_2.ran,mouse.x,mouse.y,mouse.leftButton,mouse.midButton,mouse.rightButton,mouse.clicked_name,trialNumber,mouse_11.x,mouse_11.y,mouse_11.leftButton,mouse_11.midButton,mouse_11.rightButton,mouse_11.clicked_name,first_pass_loop.thisRepN,first_pass_loop.thisTrialN,first_pass_loop.thisN,first_pass_loop.thisIndex,first_pass_loop.ran,mask_loop_3.thisRepN,mask_loop_3.thisTrialN,mask_loop_3.thisN,mask_loop_3.thisIndex,mask_loop_3.ran,mask_loop_4.thisRepN,mask_loop_4.thisTrialN,mask_loop_4.thisN,mask_loop_4.thisIndex,mask_loop_4.ran,mouse_3.x,mouse_3.y,mouse_3.leftButton,mouse_3.midButton,mouse_3.rightButton,mouse_3.clicked_name,double_pass_loop.thisRepN,double_pass_loop.thisTrialN,double_pass_loop.thisN,double_pass_loop.thisIndex,double_pass_loop.ran,space_exit.keys,space_exit.rt
904982,001,2022-11-20_23h53.39.289,Info_measure_main_exp,2022.2.2,Win32,59.95203837,,,,,,,,,,,,,,,,,,,,,,,,,,,,,,,,,,,,,,,,,,,,,,,,,,,,,,,,,,,,,,,,,,,,,,,,,,,,,,,,,,,,,,,,,,,,,,,,,,,,,,,,,,,,,,,
904982,001,2022-11-20_23h53.39.289,Info_measure_main_exp,2022.2.2,Win32,59.95203837,,,,,,,,,,,,,,,,,,,,,,,,,,,,,,,,,,,,,,,,,,,,,,,,,,,,,,,,,,,,,,,,,,,,,,,,,,,,,,,,,,,,,,,,,,,,,,,,,,,,,,,,,,,,,,,
904982,001,2022-11-20_23h53.39.289,Info_measure_main_exp,2022.2.2,Win32,59.95203837,space,4.559,,,,,,,,,,,,,,,,,,,,,,,,,,,,,,,,,,,,,,,,,,,,,,,,,,,,,,,,,,,,,,,,,,,,,,,,,,,,,,,,,,,,,,,,,,,,,,,,,,,,,,,,,,,,,
904982,001,2022-11-20_23h53.39.289,Info_measure_main_exp,2022.2.2,Win32,59.95203837,,,space,8.342,,,,,,,,,,,,,,,,,,,,,,,,,,,,,,,,,,,,,,,,,,,,,,,,,,,,,,,,,,,,,,,,,,,,,,,,,,,,,,,,,,,,,,,,,,,,,,,,,,,,,,,,,,,
904982,001,2022-11-20_23h53.39.289,Info_measure_main_exp,2022.2.2,Win32,59.95203837,,,,,space,11.463,,,,,,,,,,,,,,,,,,,,,,,,,,,,,,,,,,,,,,,,,,,,,,,,,,,,,,,,,,,,,,,,,,,,,,,,,,,,,,,,,,,,,,,,,,,,,,,,,,,,,,,,,
904982,001,2022-11-20_23h53.39.289,Info_measure_main_exp,2022.2.2,Win32,59.95203837,,,,,,,space,10.576,,,,,,,,,,,,,,,,,,,,,,,,,,,,,,,,,,,,,,,,,,,,,,,,,,,,,,,,,,,,,,,,,,,,,,,,,,,,,,,,,,,,,,,,,,,,,,,,,,,,,,,
904982,001,2022-11-20_23h53.39.289,Info_measure_main_exp,2022.2.2,Win32,59.95203837,,,,,,,,,space,8.934,,,,,,,,,,,,,,,,,,,,,,,,,,,,,,,,,,,,,,,,,,,,,,,,,,,,,,,,,,,,,,,,,,,,,,,,,,,,,,,,,,,,,,,,,,,,,,,,,,,,,
904982,001,2022-11-20_23h53.39.289,Info_measure_main_exp,2022.2.2,Win32,59.95203837,,,,,,,,,,,space,2.67,,,,,,,,,,,,,,,,,,,,,,,,,,,,,,,,,,,,,,,,,,,,,,,,,,,,,,,,,,,,,,,,,,,,,,,,,,,,,,,,,,,,,,,,,,,,,,,,,,,
904982,001,2022-11-20_23h53.39.289,Info_measure_main_exp,2022.2.2,Win32,59.95203837,,,,,,,,,,,,,0,0,0,0,1,masks/mask_001.jpg,,,,,,,,,,,,,,,,,,,,,,,,,,,,,,,,,,,,,,,,,,,,,,,,,,,,,,,,,,,,,,,,,,,,,,,,,,,,,,,,,,,,,,,,,,,,,
904982,001,2022-11-20_23h53.39.289,Info_measure_main_exp,2022.2.2,Win32,59.95203837,,,,,,,,,,,,,0,1,1,3,1,masks/mask_004.jpg,,,,,,,,,,,,,,,,,,,,,,,,,,,,,,,,,,,,,,,,,,,,,,,,,,,,,,,,,,,,,,,,,,,,,,,,,,,,,,,,,,,,,,,,,,,,,
904982,001,2022-11-20_23h53.39.289,Info_measure_main_exp,2022.2.2,Win32,59.95203837,,,,,,,,,,,,,0,2,2,1,1,masks/mask_002.jpg,,,,,,,,,,,,,,,,,,,,,,,,,,,,,,,,,,,,,,,,,,,,,,,,,,,,,,,,,,,,,,,,,,,,,,,,,,,,,,,,,,,,,,,,,,,,,
904982,001,2022-11-20_23h53.39.289,Info_measure_main_exp,2022.2.2,Win32,59.95203837,,,,,,,,,,,,,0,3,3,4,1,masks/mask_005.jpg,,,,,,,,,,,,,,,,,,,,,,,,,,,,,,,,,,,,,,,,,,,,,,,,,,,,,,,,,,,,,,,,,,,,,,,,,,,,,,,,,,,,,,,,,,,,,
904982,001,2022-11-20_23h53.39.289,Info_measure_main_exp,2022.2.2,Win32,59.95203837,,,,,,,,,,,,,0,4,4,2,1,masks/mask_003.jpg,,,,,,,,,,,,,,,,,,,,,,,,,,,,,,,,,,,,,,,,,,,,,,,,,,,,,,,,,,,,,,,,,,,,,,,,,,,,,,,,,,,,,,,,,,,,,
904982,001,2022-11-20_23h53.39.289,Info_measure_main_exp,2022.2.2,Win32,59.95203837,,,,,,,,,,,,,,,,,,masks/mask_005.jpg,0,0,0,4,1,,,,,,,,,,,,,,,,,,,,,,,,,,,,,,,,,,,,,,,,,,,,,,,,,,,,,,,,,,,,,,,,,,,,,,,,,,,,,,,,,,,,,,,,
904982,001,2022-11-20_23h53.39.289,Info_measure_main_exp,2022.2.2,Win32,59.95203837,,,,,,,,,,,,,,,,,,masks/mask_004.jpg,0,1,1,3,1,,,,,,,,,,,,,,,,,,,,,,,,,,,,,,,,,,,,,,,,,,,,,,,,,,,,,,,,,,,,,,,,,,,,,,,,,,,,,,,,,,,,,,,,
904982,001,2022-11-20_23h53.39.289,Info_measure_main_exp,2022.2.2,Win32,59.95203837,,,,,,,,,,,,,,,,,,masks/mask_002.jpg,0,2,2,1,1,,,,,,,,,,,,,,,,,,,,,,,,,,,,,,,,,,,,,,,,,,,,,,,,,,,,,,,,,,,,,,,,,,,,,,,,,,,,,,,,,,,,,,,,
904982,001,2022-11-20_23h53.39.289,Info_measure_main_exp,2022.2.2,Win32,59.95203837,,,,,,,,,,,,,,,,,,masks/mask_003.jpg,0,3,3,2,1,,,,,,,,,,,,,,,,,,,,,,,,,,,,,,,,,,,,,,,,,,,,,,,,,,,,,,,,,,,,,,,,,,,,,,,,,,,,,,,,,,,,,,,,
904982,001,2022-11-20_23h53.39.289,Info_measure_main_exp,2022.2.2,Win32,59.95203837,,,,,,,,,,,,,,,,,,masks/mask_001.jpg,0,4,4,0,1,,,,,,,,,,,,,,,,,,,,,,,,,,,,,,,,,,,,,,,,,,,,,,,,,,,,,,,,,,,,,,,,,,,,,,,,,,,,,,,,,,,,,,,,
904982,001,2022-11-20_23h53.39.289,Info_measure_main_exp,2022.2.2,Win32,59.95203837,,,,,,,,,,,,,,,,,,,,,,,,0.04537037,0.108333333,1,0,0,response1disk,7,49.787,1,0.00462963,-0.007407407,1,0,0,center_square,0,0,0,2,1,0,131,5,5,2526,2526,prac_patch/patch0002526.jpg,prac_patch/patch0002526.jpg,,,,,,,,,,,,,,,,,,,,,,,,,,,,,,,,,,,,,,,,,,,,,,,,,,,,,,,,,,,,
904982,001,2022-11-20_23h53.39.289,Info_measure_main_exp,2022.2.2,Win32,59.95203837,,,,,,,,,,,,,0,0,0,3,1,masks/mask_004.jpg,,,,,,,,,,,,,,,,,,,,,,,,,,,,,,,,,,,,,,,,,,,,,,,,,,,,,,,,,,,,,,,,,,,,,,,,,,,,,,,,,,,,,,,,,,,,,
904982,001,2022-11-20_23h53.39.289,Info_measure_main_exp,2022.2.2,Win32,59.95203837,,,,,,,,,,,,,0,1,1,4,1,masks/mask_005.jpg,,,,,,,,,,,,,,,,,,,,,,,,,,,,,,,,,,,,,,,,,,,,,,,,,,,,,,,,,,,,,,,,,,,,,,,,,,,,,,,,,,,,,,,,,,,,,
904982,001,2022-11-20_23h53.39.289,Info_measure_main_exp,2022.2.2,Win32,59.95203837,,,,,,,,,,,,,0,2,2,0,1,masks/mask_001.jpg,,,,,,,,,,,,,,,,,,,,,,,,,,,,,,,,,,,,,,,,,,,,,,,,,,,,,,,,,,,,,,,,,,,,,,,,,,,,,,,,,,,,,,,,,,,,,
904982,001,2022-11-20_23h53.39.289,Info_measure_main_exp,2022.2.2,Win32,59.95203837,,,,,,,,,,,,,0,3,3,2,1,masks/mask_003.jpg,,,,,,,,,,,,,,,,,,,,,,,,,,,,,,,,,,,,,,,,,,,,,,,,,,,,,,,,,,,,,,,,,,,,,,,,,,,,,,,,,,,,,,,,,,,,,
904982,001,2022-11-20_23h53.39.289,Info_measure_main_exp,2022.2.2,Win32,59.95203837,,,,,,,,,,,,,0,4,4,1,1,masks/mask_002.jpg,,,,,,,,,,,,,,,,,,,,,,,,,,,,,,,,,,,,,,,,,,,,,,,,,,,,,,,,,,,,,,,,,,,,,,,,,,,,,,,,,,,,,,,,,,,,,
904982,001,2022-11-20_23h53.39.289,Info_measure_main_exp,2022.2.2,Win32,59.95203837,,,,,,,,,,,,,,,,,,masks/mask_001.jpg,0,0,0,0,1,,,,,,,,,,,,,,,,,,,,,,,,,,,,,,,,,,,,,,,,,,,,,,,,,,,,,,,,,,,,,,,,,,,,,,,,,,,,,,,,,,,,,,,,
904982,001,2022-11-20_23h53.39.289,Info_measure_main_exp,2022.2.2,Win32,59.95203837,,,,,,,,,,,,,,,,,,masks/mask_002.jpg,0,1,1,1,1,,,,,,,,,,,,,,,,,,,,,,,,,,,,,,,,,,,,,,,,,,,,,,,,,,,,,,,,,,,,,,,,,,,,,,,,,,,,,,,,,,,,,,,,
904982,001,2022-11-20_23h53.39.289,Info_measure_main_exp,2022.2.2,Win32,59.95203837,,,,,,,,,,,,,,,,,,masks/mask_004.jpg,0,2,2,3,1,,,,,,,,,,,,,,,,,,,,,,,,,,,,,,,,,,,,,,,,,,,,,,,,,,,,,,,,,,,,,,,,,,,,,,,,,,,,,,,,,,,,,,,,
904982,001,2022-11-20_23h53.39.289,Info_measure_main_exp,2022.2.2,Win32,59.95203837,,,,,,,,,,,,,,,,,,masks/mask_005.jpg,0,3,3,4,1,,,,,,,,,,,,,,,,,,,,,,,,,,,,,,,,,,,,,,,,,,,,,,,,,,,,,,,,,,,,,,,,,,,,,,,,,,,,,,,,,,,,,,,,
904982,001,2022-11-20_23h53.39.289,Info_measure_main_exp,2022.2.2,Win32,59.95203837,,,,,,,,,,,,,,,,,,masks/mask_003.jpg,0,4,4,2,1,,,,,,,,,,,,,,,,,,,,,,,,,,,,,,,,,,,,,,,,,,,,,,,,,,,,,,,,,,,,,,,,,,,,,,,,,,,,,,,,,,,,,,,,
904982,001,2022-11-20_23h53.39.289,Info_measure_main_exp,2022.2.2,Win32,59.95203837,,,,,,,,,,,,,,,,,,,,,,,,0.137037037,0.052777778,1,0,0,response1disk,6,60.586,1,-0.003703704,-0.002777778,1,0,0,center_square,0,1,1,1,1,0,131,5,5,2514,2490,prac_patch/patch0002514.jpg,prac_patch/patch0002490.jpg,,,,,,,,,,,,,,,,,,,,,,,,,,,,,,,,,,,,,,,,,,,,,,,,,,,,,,,,,,,,
904982,001,2022-11-20_23h53.39.289,Info_measure_main_exp,2022.2.2,Win32,59.95203837,,,,,,,,,,,,,0,0,0,0,1,masks/mask_001.jpg,,,,,,,,,,,,,,,,,,,,,,,,,,,,,,,,,,,,,,,,,,,,,,,,,,,,,,,,,,,,,,,,,,,,,,,,,,,,,,,,,,,,,,,,,,,,,
904982,001,2022-11-20_23h53.39.289,Info_measure_main_exp,2022.2.2,Win32,59.95203837,,,,,,,,,,,,,0,1,1,1,1,masks/mask_002.jpg,,,,,,,,,,,,,,,,,,,,,,,,,,,,,,,,,,,,,,,,,,,,,,,,,,,,,,,,,,,,,,,,,,,,,,,,,,,,,,,,,,,,,,,,,,,,,
904982,001,2022-11-20_23h53.39.289,Info_measure_main_exp,2022.2.2,Win32,59.95203837,,,,,,,,,,,,,0,2,2,3,1,masks/mask_004.jpg,,,,,,,,,,,,,,,,,,,,,,,,,,,,,,,,,,,,,,,,,,,,,,,,,,,,,,,,,,,,,,,,,,,,,,,,,,,,,,,,,,,,,,,,,,,,,
904982,001,2022-11-20_23h53.39.289,Info_measure_main_exp,2022.2.2,Win32,59.95203837,,,,,,,,,,,,,0,3,3,4,1,masks/mask_005.jpg,,,,,,,,,,,,,,,,,,,,,,,,,,,,,,,,,,,,,,,,,,,,,,,,,,,,,,,,,,,,,,,,,,,,,,,,,,,,,,,,,,,,,,,,,,,,,
904982,001,2022-11-20_23h53.39.289,Info_measure_main_exp,2022.2.2,Win32,59.95203837,,,,,,,,,,,,,0,4,4,2,1,masks/mask_003.jpg,,,,,,,,,,,,,,,,,,,,,,,,,,,,,,,,,,,,,,,,,,,,,,,,,,,,,,,,,,,,,,,,,,,,,,,,,,,,,,,,,,,,,,,,,,,,,
904982,001,2022-11-20_23h53.39.289,Info_measure_main_exp,2022.2.2,Win32,59.95203837,,,,,,,,,,,,,,,,,,masks/mask_001.jpg,0,0,0,0,1,,,,,,,,,,,,,,,,,,,,,,,,,,,,,,,,,,,,,,,,,,,,,,,,,,,,,,,,,,,,,,,,,,,,,,,,,,,,,,,,,,,,,,,,
904982,001,2022-11-20_23h53.39.289,Info_measure_main_exp,2022.2.2,Win32,59.95203837,,,,,,,,,,,,,,,,,,masks/mask_002.jpg,0,1,1,1,1,,,,,,,,,,,,,,,,,,,,,,,,,,,,,,,,,,,,,,,,,,,,,,,,,,,,,,,,,,,,,,,,,,,,,,,,,,,,,,,,,,,,,,,,
904982,001,2022-11-20_23h53.39.289,Info_measure_main_exp,2022.2.2,Win32,59.95203837,,,,,,,,,,,,,,,,,,masks/mask_004.jpg,0,2,2,3,1,,,,,,,,,,,,,,,,,,,,,,,,,,,,,,,,,,,,,,,,,,,,,,,,,,,,,,,,,,,,,,,,,,,,,,,,,,,,,,,,,,,,,,,,
904982,001,2022-11-20_23h53.39.289,Info_measure_main_exp,2022.2.2,Win32,59.95203837,,,,,,,,,,,,,,,,,,masks/mask_005.jpg,0,3,3,4,1,,,,,,,,,,,,,,,,,,,,,,,,,,,,,,,,,,,,,,,,,,,,,,,,,,,,,,,,,,,,,,,,,,,,,,,,,,,,,,,,,,,,,,,,
904982,001,2022-11-20_23h53.39.289,Info_measure_main_exp,2022.2.2,Win32,59.95203837,,,,,,,,,,,,,,,,,,masks/mask_003.jpg,0,4,4,2,1,,,,,,,,,,,,,,,,,,,,,,,,,,,,,,,,,,,,,,,,,,,,,,,,,,,,,,,,,,,,,,,,,,,,,,,,,,,,,,,,,,,,,,,,
904982,001,2022-11-20_23h53.39.289,Info_measure_main_exp,2022.2.2,Win32,59.95203837,,,,,,,,,,,,,,,,,,,,,,,,0.071296296,0.130555556,1,0,0,response1disk,7,68.254,1,0.003703704,-0.003703704,1,0,0,center_square,0,2,2,0,1,0,131,5,5,2370,2406,prac_patch/patch0002370.jpg,prac_patch/patch0002406.jpg,,,,,,,,,,,,,,,,,,,,,,,,,,,,,,,,,,,,,,,,,,,,,,,,,,,,,,,,,,,,
904982,001,2022-11-20_23h53.39.289,Info_measure_main_exp,2022.2.2,Win32,59.95203837,,,,,,,,,,,,,,,,,,,,,,,,,,,,,,,,,,,,,,,,,,,,,,,,,,,,,,,,,,,space,1.459,,,,,,,,,,,,,,,,,,,,,,,,,,,,,,,,,,,,,,,,,,,,,,,,,,,
904982,001,2022-11-20_23h53.39.289,Info_measure_main_exp,2022.2.2,Win32,59.95203837,,,,,,,,,,,,,,,,,,masks/mask_004.jpg,,,,,,,,,,,,,,,,,,,,,,,,,,,,,,,,,,,,,,,,,,,0,0,0,3,1,,,,,,,,,,,,,,,,,,,,,,,,,,,,,,,,,,,,,,,,,,,,,,
904982,001,2022-11-20_23h53.39.289,Info_measure_main_exp,2022.2.2,Win32,59.95203837,,,,,,,,,,,,,,,,,,masks/mask_003.jpg,,,,,,,,,,,,,,,,,,,,,,,,,,,,,,,,,,,,,,,,,,,0,1,1,2,1,,,,,,,,,,,,,,,,,,,,,,,,,,,,,,,,,,,,,,,,,,,,,,
904982,001,2022-11-20_23h53.39.289,Info_measure_main_exp,2022.2.2,Win32,59.95203837,,,,,,,,,,,,,,,,,,masks/mask_002.jpg,,,,,,,,,,,,,,,,,,,,,,,,,,,,,,,,,,,,,,,,,,,0,2,2,1,1,,,,,,,,,,,,,,,,,,,,,,,,,,,,,,,,,,,,,,,,,,,,,,
904982,001,2022-11-20_23h53.39.289,Info_measure_main_exp,2022.2.2,Win32,59.95203837,,,,,,,,,,,,,,,,,,masks/mask_005.jpg,,,,,,,,,,,,,,,,,,,,,,,,,,,,,,,,,,,,,,,,,,,0,3,3,4,1,,,,,,,,,,,,,,,,,,,,,,,,,,,,,,,,,,,,,,,,,,,,,,
904982,001,2022-11-20_23h53.39.289,Info_measure_main_exp,2022.2.2,Win32,59.95203837,,,,,,,,,,,,,,,,,,masks/mask_001.jpg,,,,,,,,,,,,,,,,,,,,,,,,,,,,,,,,,,,,,,,,,,,0,4,4,0,1,,,,,,,,,,,,,,,,,,,,,,,,,,,,,,,,,,,,,,,,,,,,,,
904982,001,2022-11-20_23h53.39.289,Info_measure_main_exp,2022.2.2,Win32,59.95203837,,,,,,,,,,,,,,,,,,masks/mask_005.jpg,,,,,,,,,,,,,,,,,,,,,,,,,,,,,,,,,,,,,,,,,,,,,,,,0,0,0,4,1,,,,,,,,,,,,,,,,,,,,,,,,,,,,,,,,,,,,,,,,,
904982,001,2022-11-20_23h53.39.289,Info_measure_main_exp,2022.2.2,Win32,59.95203837,,,,,,,,,,,,,,,,,,masks/mask_003.jpg,,,,,,,,,,,,,,,,,,,,,,,,,,,,,,,,,,,,,,,,,,,,,,,,0,1,1,2,1,,,,,,,,,,,,,,,,,,,,,,,,,,,,,,,,,,,,,,,,,
904982,001,2022-11-20_23h53.39.289,Info_measure_main_exp,2022.2.2,Win32,59.95203837,,,,,,,,,,,,,,,,,,masks/mask_002.jpg,,,,,,,,,,,,,,,,,,,,,,,,,,,,,,,,,,,,,,,,,,,,,,,,0,2,2,1,1,,,,,,,,,,,,,,,,,,,,,,,,,,,,,,,,,,,,,,,,,
904982,001,2022-11-20_23h53.39.289,Info_measure_main_exp,2022.2.2,Win32,59.95203837,,,,,,,,,,,,,,,,,,masks/mask_004.jpg,,,,,,,,,,,,,,,,,,,,,,,,,,,,,,,,,,,,,,,,,,,,,,,,0,3,3,3,1,,,,,,,,,,,,,,,,,,,,,,,,,,,,,,,,,,,,,,,,,
904982,001,2022-11-20_23h53.39.289,Info_measure_main_exp,2022.2.2,Win32,59.95203837,,,,,,,,,,,,,,,,,,masks/mask_001.jpg,,,,,,,,,,,,,,,,,,,,,,,,,,,,,,,,,,,,,,,,,,,,,,,,0,4,4,0,1,,,,,,,,,,,,,,,,,,,,,,,,,,,,,,,,,,,,,,,,,
904982,001,2022-11-20_23h53.39.289,Info_measure_main_exp,2022.2.2,Win32,59.95203837,,,,,,,,,,,,,,,,,,,,,,,,,,,,,,7,0.967,1,,,,,,,,,,,,0,131,5,5,2274,2178,absent_patch/patch0002274.jpg,absent_patch/patch0002178.jpg,,,,,,,,,,,,,,,,,,,,0.073148148,0.123148148,1,0,0,response1disk,1,0,0.000925926,1,0,0,center_square,0,0,0,117,1,,,,,,,,,,,,,,,,,,,,,,,
904982,001,2022-11-20_23h53.39.289,Info_measure_main_exp,2022.2.2,Win32,59.95203837,,,,,,,,,,,,,,,,,,masks/mask_001.jpg,,,,,,,,,,,,,,,,,,,,,,,,,,,,,,,,,,,,,,,,,,,0,0,0,0,1,,,,,,,,,,,,,,,,,,,,,,,,,,,,,,,,,,,,,,,,,,,,,,
904982,001,2022-11-20_23h53.39.289,Info_measure_main_exp,2022.2.2,Win32,59.95203837,,,,,,,,,,,,,,,,,,masks/mask_004.jpg,,,,,,,,,,,,,,,,,,,,,,,,,,,,,,,,,,,,,,,,,,,0,1,1,3,1,,,,,,,,,,,,,,,,,,,,,,,,,,,,,,,,,,,,,,,,,,,,,,
904982,001,2022-11-20_23h53.39.289,Info_measure_main_exp,2022.2.2,Win32,59.95203837,,,,,,,,,,,,,,,,,,masks/mask_005.jpg,,,,,,,,,,,,,,,,,,,,,,,,,,,,,,,,,,,,,,,,,,,0,2,2,4,1,,,,,,,,,,,,,,,,,,,,,,,,,,,,,,,,,,,,,,,,,,,,,,
904982,001,2022-11-20_23h53.39.289,Info_measure_main_exp,2022.2.2,Win32,59.95203837,,,,,,,,,,,,,,,,,,masks/mask_002.jpg,,,,,,,,,,,,,,,,,,,,,,,,,,,,,,,,,,,,,,,,,,,0,3,3,1,1,,,,,,,,,,,,,,,,,,,,,,,,,,,,,,,,,,,,,,,,,,,,,,
904982,001,2022-11-20_23h53.39.289,Info_measure_main_exp,2022.2.2,Win32,59.95203837,,,,,,,,,,,,,,,,,,masks/mask_003.jpg,,,,,,,,,,,,,,,,,,,,,,,,,,,,,,,,,,,,,,,,,,,0,4,4,2,1,,,,,,,,,,,,,,,,,,,,,,,,,,,,,,,,,,,,,,,,,,,,,,
904982,001,2022-11-20_23h53.39.289,Info_measure_main_exp,2022.2.2,Win32,59.95203837,,,,,,,,,,,,,,,,,,masks/mask_001.jpg,,,,,,,,,,,,,,,,,,,,,,,,,,,,,,,,,,,,,,,,,,,,,,,,0,0,0,0,1,,,,,,,,,,,,,,,,,,,,,,,,,,,,,,,,,,,,,,,,,
904982,001,2022-11-20_23h53.39.289,Info_measure_main_exp,2022.2.2,Win32,59.95203837,,,,,,,,,,,,,,,,,,masks/mask_003.jpg,,,,,,,,,,,,,,,,,,,,,,,,,,,,,,,,,,,,,,,,,,,,,,,,0,1,1,2,1,,,,,,,,,,,,,,,,,,,,,,,,,,,,,,,,,,,,,,,,,
904982,001,2022-11-20_23h53.39.289,Info_measure_main_exp,2022.2.2,Win32,59.95203837,,,,,,,,,,,,,,,,,,masks/mask_002.jpg,,,,,,,,,,,,,,,,,,,,,,,,,,,,,,,,,,,,,,,,,,,,,,,,0,2,2,1,1,,,,,,,,,,,,,,,,,,,,,,,,,,,,,,,,,,,,,,,,,
904982,001,2022-11-20_23h53.39.289,Info_measure_main_exp,2022.2.2,Win32,59.95203837,,,,,,,,,,,,,,,,,,masks/mask_004.jpg,,,,,,,,,,,,,,,,,,,,,,,,,,,,,,,,,,,,,,,,,,,,,,,,0,3,3,3,1,,,,,,,,,,,,,,,,,,,,,,,,,,,,,,,,,,,,,,,,,
904982,001,2022-11-20_23h53.39.289,Info_measure_main_exp,2022.2.2,Win32,59.95203837,,,,,,,,,,,,,,,,,,masks/mask_005.jpg,,,,,,,,,,,,,,,,,,,,,,,,,,,,,,,,,,,,,,,,,,,,,,,,0,4,4,4,1,,,,,,,,,,,,,,,,,,,,,,,,,,,,,,,,,,,,,,,,,
904982,001,2022-11-20_23h53.39.289,Info_measure_main_exp,2022.2.2,Win32,59.95203837,,,,,,,,,,,,,,,,,,,,,,,,,,,,,,7,0.716,1,,,,,,,,,,,,1,131,5,5,1,1974,present_patch/cong_131_5_a.jpg,absent_patch/patch0001974.jpg,,,,,,,,,,,,,,,,,,,,0.073148148,0.144444444,1,0,0,response1disk,2,-0.00462963,-0.000925926,1,0,0,center_square,0,1,1,69,1,,,,,,,,,,,,,,,,,,,,,,,
904982,001,2022-11-20_23h53.39.289,Info_measure_main_exp,2022.2.2,Win32,59.95203837,,,,,,,,,,,,,,,,,,masks/mask_002.jpg,,,,,,,,,,,,,,,,,,,,,,,,,,,,,,,,,,,,,,,,,,,0,0,0,1,1,,,,,,,,,,,,,,,,,,,,,,,,,,,,,,,,,,,,,,,,,,,,,,
904982,001,2022-11-20_23h53.39.289,Info_measure_main_exp,2022.2.2,Win32,59.95203837,,,,,,,,,,,,,,,,,,masks/mask_001.jpg,,,,,,,,,,,,,,,,,,,,,,,,,,,,,,,,,,,,,,,,,,,0,1,1,0,1,,,,,,,,,,,,,,,,,,,,,,,,,,,,,,,,,,,,,,,,,,,,,,
904982,001,2022-11-20_23h53.39.289,Info_measure_main_exp,2022.2.2,Win32,59.95203837,,,,,,,,,,,,,,,,,,masks/mask_004.jpg,,,,,,,,,,,,,,,,,,,,,,,,,,,,,,,,,,,,,,,,,,,0,2,2,3,1,,,,,,,,,,,,,,,,,,,,,,,,,,,,,,,,,,,,,,,,,,,,,,
904982,001,2022-11-20_23h53.39.289,Info_measure_main_exp,2022.2.2,Win32,59.95203837,,,,,,,,,,,,,,,,,,masks/mask_003.jpg,,,,,,,,,,,,,,,,,,,,,,,,,,,,,,,,,,,,,,,,,,,0,3,3,2,1,,,,,,,,,,,,,,,,,,,,,,,,,,,,,,,,,,,,,,,,,,,,,,
904982,001,2022-11-20_23h53.39.289,Info_measure_main_exp,2022.2.2,Win32,59.95203837,,,,,,,,,,,,,,,,,,masks/mask_005.jpg,,,,,,,,,,,,,,,,,,,,,,,,,,,,,,,,,,,,,,,,,,,0,4,4,4,1,,,,,,,,,,,,,,,,,,,,,,,,,,,,,,,,,,,,,,,,,,,,,,
904982,001,2022-11-20_23h53.39.289,Info_measure_main_exp,2022.2.2,Win32,59.95203837,,,,,,,,,,,,,,,,,,masks/mask_001.jpg,,,,,,,,,,,,,,,,,,,,,,,,,,,,,,,,,,,,,,,,,,,,,,,,0,0,0,0,1,,,,,,,,,,,,,,,,,,,,,,,,,,,,,,,,,,,,,,,,,
904982,001,2022-11-20_23h53.39.289,Info_measure_main_exp,2022.2.2,Win32,59.95203837,,,,,,,,,,,,,,,,,,masks/mask_004.jpg,,,,,,,,,,,,,,,,,,,,,,,,,,,,,,,,,,,,,,,,,,,,,,,,0,1,1,3,1,,,,,,,,,,,,,,,,,,,,,,,,,,,,,,,,,,,,,,,,,
904982,001,2022-11-20_23h53.39.289,Info_measure_main_exp,2022.2.2,Win32,59.95203837,,,,,,,,,,,,,,,,,,masks/mask_002.jpg,,,,,,,,,,,,,,,,,,,,,,,,,,,,,,,,,,,,,,,,,,,,,,,,0,2,2,1,1,,,,,,,,,,,,,,,,,,,,,,,,,,,,,,,,,,,,,,,,,
904982,001,2022-11-20_23h53.39.289,Info_measure_main_exp,2022.2.2,Win32,59.95203837,,,,,,,,,,,,,,,,,,masks/mask_003.jpg,,,,,,,,,,,,,,,,,,,,,,,,,,,,,,,,,,,,,,,,,,,,,,,,0,3,3,2,1,,,,,,,,,,,,,,,,,,,,,,,,,,,,,,,,,,,,,,,,,
904982,001,2022-11-20_23h53.39.289,Info_measure_main_exp,2022.2.2,Win32,59.95203837,,,,,,,,,,,,,,,,,,masks/mask_005.jpg,,,,,,,,,,,,,,,,,,,,,,,,,,,,,,,,,,,,,,,,,,,,,,,,0,4,4,4,1,,,,,,,,,,,,,,,,,,,,,,,,,,,,,,,,,,,,,,,,,
904982,001,2022-11-20_23h53.39.289,Info_measure_main_exp,2022.2.2,Win32,59.95203837,,,,,,,,,,,,,,,,,,,,,,,,,,,,,,5,0.7,1,,,,,,,,,,,,0,131,5,5,1986,2274,absent_patch/patch0001986.jpg,absent_patch/patch0002274.jpg,,,,,,,,,,,,,,,,,,,,0.133333333,-0.059259259,1,0,0,response3disk,3,-0.000925926,0.001851852,1,0,0,center_square,0,2,2,7,1,,,,,,,,,,,,,,,,,,,,,,,
904982,001,2022-11-20_23h53.39.289,Info_measure_main_exp,2022.2.2,Win32,59.95203837,,,,,,,,,,,,,,,,,,masks/mask_005.jpg,,,,,,,,,,,,,,,,,,,,,,,,,,,,,,,,,,,,,,,,,,,0,0,0,4,1,,,,,,,,,,,,,,,,,,,,,,,,,,,,,,,,,,,,,,,,,,,,,,
904982,001,2022-11-20_23h53.39.289,Info_measure_main_exp,2022.2.2,Win32,59.95203837,,,,,,,,,,,,,,,,,,masks/mask_001.jpg,,,,,,,,,,,,,,,,,,,,,,,,,,,,,,,,,,,,,,,,,,,0,1,1,0,1,,,,,,,,,,,,,,,,,,,,,,,,,,,,,,,,,,,,,,,,,,,,,,
904982,001,2022-11-20_23h53.39.289,Info_measure_main_exp,2022.2.2,Win32,59.95203837,,,,,,,,,,,,,,,,,,masks/mask_003.jpg,,,,,,,,,,,,,,,,,,,,,,,,,,,,,,,,,,,,,,,,,,,0,2,2,2,1,,,,,,,,,,,,,,,,,,,,,,,,,,,,,,,,,,,,,,,,,,,,,,
904982,001,2022-11-20_23h53.39.289,Info_measure_main_exp,2022.2.2,Win32,59.95203837,,,,,,,,,,,,,,,,,,masks/mask_004.jpg,,,,,,,,,,,,,,,,,,,,,,,,,,,,,,,,,,,,,,,,,,,0,3,3,3,1,,,,,,,,,,,,,,,,,,,,,,,,,,,,,,,,,,,,,,,,,,,,,,
904982,001,2022-11-20_23h53.39.289,Info_measure_main_exp,2022.2.2,Win32,59.95203837,,,,,,,,,,,,,,,,,,masks/mask_002.jpg,,,,,,,,,,,,,,,,,,,,,,,,,,,,,,,,,,,,,,,,,,,0,4,4,1,1,,,,,,,,,,,,,,,,,,,,,,,,,,,,,,,,,,,,,,,,,,,,,,
904982,001,2022-11-20_23h53.39.289,Info_measure_main_exp,2022.2.2,Win32,59.95203837,,,,,,,,,,,,,,,,,,masks/mask_003.jpg,,,,,,,,,,,,,,,,,,,,,,,,,,,,,,,,,,,,,,,,,,,,,,,,0,0,0,2,1,,,,,,,,,,,,,,,,,,,,,,,,,,,,,,,,,,,,,,,,,
904982,001,2022-11-20_23h53.39.289,Info_measure_main_exp,2022.2.2,Win32,59.95203837,,,,,,,,,,,,,,,,,,masks/mask_005.jpg,,,,,,,,,,,,,,,,,,,,,,,,,,,,,,,,,,,,,,,,,,,,,,,,0,1,1,4,1,,,,,,,,,,,,,,,,,,,,,,,,,,,,,,,,,,,,,,,,,
904982,001,2022-11-20_23h53.39.289,Info_measure_main_exp,2022.2.2,Win32,59.95203837,,,,,,,,,,,,,,,,,,masks/mask_001.jpg,,,,,,,,,,,,,,,,,,,,,,,,,,,,,,,,,,,,,,,,,,,,,,,,0,2,2,0,1,,,,,,,,,,,,,,,,,,,,,,,,,,,,,,,,,,,,,,,,,
904982,001,2022-11-20_23h53.39.289,Info_measure_main_exp,2022.2.2,Win32,59.95203837,,,,,,,,,,,,,,,,,,masks/mask_002.jpg,,,,,,,,,,,,,,,,,,,,,,,,,,,,,,,,,,,,,,,,,,,,,,,,0,3,3,1,1,,,,,,,,,,,,,,,,,,,,,,,,,,,,,,,,,,,,,,,,,
904982,001,2022-11-20_23h53.39.289,Info_measure_main_exp,2022.2.2,Win32,59.95203837,,,,,,,,,,,,,,,,,,masks/mask_004.jpg,,,,,,,,,,,,,,,,,,,,,,,,,,,,,,,,,,,,,,,,,,,,,,,,0,4,4,3,1,,,,,,,,,,,,,,,,,,,,,,,,,,,,,,,,,,,,,,,,,
904982,001,2022-11-20_23h53.39.289,Info_measure_main_exp,2022.2.2,Win32,59.95203837,,,,,,,,,,,,,,,,,,,,,,,,,,,,,,5,1.417,1,,,,,,,,,,,,0,131,5,5,1950,2082,absent_patch/patch0001950.jpg,absent_patch/patch0002082.jpg,,,,,,,,,,,,,,,,,,,,0.101851852,-0.022222222,1,0,0,response3disk,4,0.000925926,-0.003703704,1,0,0,center_square,0,3,3,12,1,,,,,,,,,,,,,,,,,,,,,,,
904982,001,2022-11-20_23h53.39.289,Info_measure_main_exp,2022.2.2,Win32,59.95203837,,,,,,,,,,,,,,,,,,masks/mask_003.jpg,,,,,,,,,,,,,,,,,,,,,,,,,,,,,,,,,,,,,,,,,,,0,0,0,2,1,,,,,,,,,,,,,,,,,,,,,,,,,,,,,,,,,,,,,,,,,,,,,,
904982,001,2022-11-20_23h53.39.289,Info_measure_main_exp,2022.2.2,Win32,59.95203837,,,,,,,,,,,,,,,,,,masks/mask_002.jpg,,,,,,,,,,,,,,,,,,,,,,,,,,,,,,,,,,,,,,,,,,,0,1,1,1,1,,,,,,,,,,,,,,,,,,,,,,,,,,,,,,,,,,,,,,,,,,,,,,
904982,001,2022-11-20_23h53.39.289,Info_measure_main_exp,2022.2.2,Win32,59.95203837,,,,,,,,,,,,,,,,,,masks/mask_004.jpg,,,,,,,,,,,,,,,,,,,,,,,,,,,,,,,,,,,,,,,,,,,0,2,2,3,1,,,,,,,,,,,,,,,,,,,,,,,,,,,,,,,,,,,,,,,,,,,,,,
904982,001,2022-11-20_23h53.39.289,Info_measure_main_exp,2022.2.2,Win32,59.95203837,,,,,,,,,,,,,,,,,,masks/mask_001.jpg,,,,,,,,,,,,,,,,,,,,,,,,,,,,,,,,,,,,,,,,,,,0,3,3,0,1,,,,,,,,,,,,,,,,,,,,,,,,,,,,,,,,,,,,,,,,,,,,,,
904982,001,2022-11-20_23h53.39.289,Info_measure_main_exp,2022.2.2,Win32,59.95203837,,,,,,,,,,,,,,,,,,masks/mask_005.jpg,,,,,,,,,,,,,,,,,,,,,,,,,,,,,,,,,,,,,,,,,,,0,4,4,4,1,,,,,,,,,,,,,,,,,,,,,,,,,,,,,,,,,,,,,,,,,,,,,,
904982,001,2022-11-20_23h53.39.289,Info_measure_main_exp,2022.2.2,Win32,59.95203837,,,,,,,,,,,,,,,,,,masks/mask_004.jpg,,,,,,,,,,,,,,,,,,,,,,,,,,,,,,,,,,,,,,,,,,,,,,,,0,0,0,3,1,,,,,,,,,,,,,,,,,,,,,,,,,,,,,,,,,,,,,,,,,
904982,001,2022-11-20_23h53.39.289,Info_measure_main_exp,2022.2.2,Win32,59.95203837,,,,,,,,,,,,,,,,,,masks/mask_005.jpg,,,,,,,,,,,,,,,,,,,,,,,,,,,,,,,,,,,,,,,,,,,,,,,,0,1,1,4,1,,,,,,,,,,,,,,,,,,,,,,,,,,,,,,,,,,,,,,,,,
904982,001,2022-11-20_23h53.39.289,Info_measure_main_exp,2022.2.2,Win32,59.95203837,,,,,,,,,,,,,,,,,,masks/mask_003.jpg,,,,,,,,,,,,,,,,,,,,,,,,,,,,,,,,,,,,,,,,,,,,,,,,0,2,2,2,1,,,,,,,,,,,,,,,,,,,,,,,,,,,,,,,,,,,,,,,,,
904982,001,2022-11-20_23h53.39.289,Info_measure_main_exp,2022.2.2,Win32,59.95203837,,,,,,,,,,,,,,,,,,masks/mask_002.jpg,,,,,,,,,,,,,,,,,,,,,,,,,,,,,,,,,,,,,,,,,,,,,,,,0,3,3,1,1,,,,,,,,,,,,,,,,,,,,,,,,,,,,,,,,,,,,,,,,,
904982,001,2022-11-20_23h53.39.289,Info_measure_main_exp,2022.2.2,Win32,59.95203837,,,,,,,,,,,,,,,,,,masks/mask_001.jpg,,,,,,,,,,,,,,,,,,,,,,,,,,,,,,,,,,,,,,,,,,,,,,,,0,4,4,0,1,,,,,,,,,,,,,,,,,,,,,,,,,,,,,,,,,,,,,,,,,
904982,001,2022-11-20_23h53.39.289,Info_measure_main_exp,2022.2.2,Win32,59.95203837,,,,,,,,,,,,,,,,,,,,,,,,,,,,,,7,0.617,1,,,,,,,,,,,,0,131,5,5,2082,1986,absent_patch/patch0002082.jpg,absent_patch/patch0001986.jpg,,,,,,,,,,,,,,,,,,,,0.037037037,0.128703704,1,0,0,response1disk,5,0.005555556,-0.005555556,1,0,0,center_square,0,4,4,94,1,,,,,,,,,,,,,,,,,,,,,,,
904982,001,2022-11-20_23h53.39.289,Info_measure_main_exp,2022.2.2,Win32,59.95203837,,,,,,,,,,,,,,,,,,masks/mask_001.jpg,,,,,,,,,,,,,,,,,,,,,,,,,,,,,,,,,,,,,,,,,,,0,0,0,0,1,,,,,,,,,,,,,,,,,,,,,,,,,,,,,,,,,,,,,,,,,,,,,,
904982,001,2022-11-20_23h53.39.289,Info_measure_main_exp,2022.2.2,Win32,59.95203837,,,,,,,,,,,,,,,,,,masks/mask_002.jpg,,,,,,,,,,,,,,,,,,,,,,,,,,,,,,,,,,,,,,,,,,,0,1,1,1,1,,,,,,,,,,,,,,,,,,,,,,,,,,,,,,,,,,,,,,,,,,,,,,
904982,001,2022-11-20_23h53.39.289,Info_measure_main_exp,2022.2.2,Win32,59.95203837,,,,,,,,,,,,,,,,,,masks/mask_004.jpg,,,,,,,,,,,,,,,,,,,,,,,,,,,,,,,,,,,,,,,,,,,0,2,2,3,1,,,,,,,,,,,,,,,,,,,,,,,,,,,,,,,,,,,,,,,,,,,,,,
904982,001,2022-11-20_23h53.39.289,Info_measure_main_exp,2022.2.2,Win32,59.95203837,,,,,,,,,,,,,,,,,,masks/mask_003.jpg,,,,,,,,,,,,,,,,,,,,,,,,,,,,,,,,,,,,,,,,,,,0,3,3,2,1,,,,,,,,,,,,,,,,,,,,,,,,,,,,,,,,,,,,,,,,,,,,,,
904982,001,2022-11-20_23h53.39.289,Info_measure_main_exp,2022.2.2,Win32,59.95203837,,,,,,,,,,,,,,,,,,masks/mask_005.jpg,,,,,,,,,,,,,,,,,,,,,,,,,,,,,,,,,,,,,,,,,,,0,4,4,4,1,,,,,,,,,,,,,,,,,,,,,,,,,,,,,,,,,,,,,,,,,,,,,,
904982,001,2022-11-20_23h53.39.289,Info_measure_main_exp,2022.2.2,Win32,59.95203837,,,,,,,,,,,,,,,,,,masks/mask_002.jpg,,,,,,,,,,,,,,,,,,,,,,,,,,,,,,,,,,,,,,,,,,,,,,,,0,0,0,1,1,,,,,,,,,,,,,,,,,,,,,,,,,,,,,,,,,,,,,,,,,
904982,001,2022-11-20_23h53.39.289,Info_measure_main_exp,2022.2.2,Win32,59.95203837,,,,,,,,,,,,,,,,,,masks/mask_004.jpg,,,,,,,,,,,,,,,,,,,,,,,,,,,,,,,,,,,,,,,,,,,,,,,,0,1,1,3,1,,,,,,,,,,,,,,,,,,,,,,,,,,,,,,,,,,,,,,,,,
904982,001,2022-11-20_23h53.39.289,Info_measure_main_exp,2022.2.2,Win32,59.95203837,,,,,,,,,,,,,,,,,,masks/mask_001.jpg,,,,,,,,,,,,,,,,,,,,,,,,,,,,,,,,,,,,,,,,,,,,,,,,0,2,2,0,1,,,,,,,,,,,,,,,,,,,,,,,,,,,,,,,,,,,,,,,,,
904982,001,2022-11-20_23h53.39.289,Info_measure_main_exp,2022.2.2,Win32,59.95203837,,,,,,,,,,,,,,,,,,masks/mask_003.jpg,,,,,,,,,,,,,,,,,,,,,,,,,,,,,,,,,,,,,,,,,,,,,,,,0,3,3,2,1,,,,,,,,,,,,,,,,,,,,,,,,,,,,,,,,,,,,,,,,,
904982,001,2022-11-20_23h53.39.289,Info_measure_main_exp,2022.2.2,Win32,59.95203837,,,,,,,,,,,,,,,,,,masks/mask_005.jpg,,,,,,,,,,,,,,,,,,,,,,,,,,,,,,,,,,,,,,,,,,,,,,,,0,4,4,4,1,,,,,,,,,,,,,,,,,,,,,,,,,,,,,,,,,,,,,,,,,
904982,001,2022-11-20_23h53.39.289,Info_measure_main_exp,2022.2.2,Win32,59.95203837,,,,,,,,,,,,,,,,,,,,,,,,,,,,,,2,1.333,1,,,,,,,,,,,,0,131,5,5,1974,1950,absent_patch/patch0001974.jpg,absent_patch/patch0001950.jpg,,,,,,,,,,,,,,,,,,,,-0.083333333,-0.05462963,1,0,0,response5disk,6,0.003703704,-0.005555556,1,0,0,center_square,0,5,5,17,1,,,,,,,,,,,,,,,,,,,,,,,
904982,001,2022-11-20_23h53.39.289,Info_measure_main_exp,2022.2.2,Win32,59.95203837,,,,,,,,,,,,,,,,,,masks/mask_003.jpg,,,,,,,,,,,,,,,,,,,,,,,,,,,,,,,,,,,,,,,,,,,0,0,0,2,1,,,,,,,,,,,,,,,,,,,,,,,,,,,,,,,,,,,,,,,,,,,,,,
904982,001,2022-11-20_23h53.39.289,Info_measure_main_exp,2022.2.2,Win32,59.95203837,,,,,,,,,,,,,,,,,,masks/mask_002.jpg,,,,,,,,,,,,,,,,,,,,,,,,,,,,,,,,,,,,,,,,,,,0,1,1,1,1,,,,,,,,,,,,,,,,,,,,,,,,,,,,,,,,,,,,,,,,,,,,,,
904982,001,2022-11-20_23h53.39.289,Info_measure_main_exp,2022.2.2,Win32,59.95203837,,,,,,,,,,,,,,,,,,masks/mask_004.jpg,,,,,,,,,,,,,,,,,,,,,,,,,,,,,,,,,,,,,,,,,,,0,2,2,3,1,,,,,,,,,,,,,,,,,,,,,,,,,,,,,,,,,,,,,,,,,,,,,,
904982,001,2022-11-20_23h53.39.289,Info_measure_main_exp,2022.2.2,Win32,59.95203837,,,,,,,,,,,,,,,,,,masks/mask_005.jpg,,,,,,,,,,,,,,,,,,,,,,,,,,,,,,,,,,,,,,,,,,,0,3,3,4,1,,,,,,,,,,,,,,,,,,,,,,,,,,,,,,,,,,,,,,,,,,,,,,
904982,001,2022-11-20_23h53.39.289,Info_measure_main_exp,2022.2.2,Win32,59.95203837,,,,,,,,,,,,,,,,,,masks/mask_001.jpg,,,,,,,,,,,,,,,,,,,,,,,,,,,,,,,,,,,,,,,,,,,0,4,4,0,1,,,,,,,,,,,,,,,,,,,,,,,,,,,,,,,,,,,,,,,,,,,,,,
904982,001,2022-11-20_23h53.39.289,Info_measure_main_exp,2022.2.2,Win32,59.95203837,,,,,,,,,,,,,,,,,,masks/mask_001.jpg,,,,,,,,,,,,,,,,,,,,,,,,,,,,,,,,,,,,,,,,,,,,,,,,0,0,0,0,1,,,,,,,,,,,,,,,,,,,,,,,,,,,,,,,,,,,,,,,,,
904982,001,2022-11-20_23h53.39.289,Info_measure_main_exp,2022.2.2,Win32,59.95203837,,,,,,,,,,,,,,,,,,masks/mask_005.jpg,,,,,,,,,,,,,,,,,,,,,,,,,,,,,,,,,,,,,,,,,,,,,,,,0,1,1,4,1,,,,,,,,,,,,,,,,,,,,,,,,,,,,,,,,,,,,,,,,,
904982,001,2022-11-20_23h53.39.289,Info_measure_main_exp,2022.2.2,Win32,59.95203837,,,,,,,,,,,,,,,,,,masks/mask_003.jpg,,,,,,,,,,,,,,,,,,,,,,,,,,,,,,,,,,,,,,,,,,,,,,,,0,2,2,2,1,,,,,,,,,,,,,,,,,,,,,,,,,,,,,,,,,,,,,,,,,
904982,001,2022-11-20_23h53.39.289,Info_measure_main_exp,2022.2.2,Win32,59.95203837,,,,,,,,,,,,,,,,,,masks/mask_002.jpg,,,,,,,,,,,,,,,,,,,,,,,,,,,,,,,,,,,,,,,,,,,,,,,,0,3,3,1,1,,,,,,,,,,,,,,,,,,,,,,,,,,,,,,,,,,,,,,,,,
904982,001,2022-11-20_23h53.39.289,Info_measure_main_exp,2022.2.2,Win32,59.95203837,,,,,,,,,,,,,,,,,,masks/mask_004.jpg,,,,,,,,,,,,,,,,,,,,,,,,,,,,,,,,,,,,,,,,,,,,,,,,0,4,4,3,1,,,,,,,,,,,,,,,,,,,,,,,,,,,,,,,,,,,,,,,,,
904982,001,2022-11-20_23h53.39.289,Info_measure_main_exp,2022.2.2,Win32,59.95203837,,,,,,,,,,,,,,,,,,,,,,,,,,,,,,7,1.65,1,,,,,,,,,,,,0,131,5,5,2298,2274,absent_patch/patch0002298.jpg,absent_patch/patch0002274.jpg,,,,,,,,,,,,,,,,,,,,0.075925926,0.09537037,1,0,0,response1disk,7,0.001851852,0.000925926,1,0,0,center_square,0,6,6,1,1,,,,,,,,,,,,,,,,,,,,,,,
904982,001,2022-11-20_23h53.39.289,Info_measure_main_exp,2022.2.2,Win32,59.95203837,,,,,,,,,,,,,,,,,,masks/mask_001.jpg,,,,,,,,,,,,,,,,,,,,,,,,,,,,,,,,,,,,,,,,,,,0,0,0,0,1,,,,,,,,,,,,,,,,,,,,,,,,,,,,,,,,,,,,,,,,,,,,,,
904982,001,2022-11-20_23h53.39.289,Info_measure_main_exp,2022.2.2,Win32,59.95203837,,,,,,,,,,,,,,,,,,masks/mask_003.jpg,,,,,,,,,,,,,,,,,,,,,,,,,,,,,,,,,,,,,,,,,,,0,1,1,2,1,,,,,,,,,,,,,,,,,,,,,,,,,,,,,,,,,,,,,,,,,,,,,,
904982,001,2022-11-20_23h53.39.289,Info_measure_main_exp,2022.2.2,Win32,59.95203837,,,,,,,,,,,,,,,,,,masks/mask_005.jpg,,,,,,,,,,,,,,,,,,,,,,,,,,,,,,,,,,,,,,,,,,,0,2,2,4,1,,,,,,,,,,,,,,,,,,,,,,,,,,,,,,,,,,,,,,,,,,,,,,
904982,001,2022-11-20_23h53.39.289,Info_measure_main_exp,2022.2.2,Win32,59.95203837,,,,,,,,,,,,,,,,,,masks/mask_004.jpg,,,,,,,,,,,,,,,,,,,,,,,,,,,,,,,,,,,,,,,,,,,0,3,3,3,1,,,,,,,,,,,,,,,,,,,,,,,,,,,,,,,,,,,,,,,,,,,,,,
904982,001,2022-11-20_23h53.39.289,Info_measure_main_exp,2022.2.2,Win32,59.95203837,,,,,,,,,,,,,,,,,,masks/mask_002.jpg,,,,,,,,,,,,,,,,,,,,,,,,,,,,,,,,,,,,,,,,,,,0,4,4,1,1,,,,,,,,,,,,,,,,,,,,,,,,,,,,,,,,,,,,,,,,,,,,,,
904982,001,2022-11-20_23h53.39.289,Info_measure_main_exp,2022.2.2,Win32,59.95203837,,,,,,,,,,,,,,,,,,masks/mask_003.jpg,,,,,,,,,,,,,,,,,,,,,,,,,,,,,,,,,,,,,,,,,,,,,,,,0,0,0,2,1,,,,,,,,,,,,,,,,,,,,,,,,,,,,,,,,,,,,,,,,,
904982,001,2022-11-20_23h53.39.289,Info_measure_main_exp,2022.2.2,Win32,59.95203837,,,,,,,,,,,,,,,,,,masks/mask_005.jpg,,,,,,,,,,,,,,,,,,,,,,,,,,,,,,,,,,,,,,,,,,,,,,,,0,1,1,4,1,,,,,,,,,,,,,,,,,,,,,,,,,,,,,,,,,,,,,,,,,
904982,001,2022-11-20_23h53.39.289,Info_measure_main_exp,2022.2.2,Win32,59.95203837,,,,,,,,,,,,,,,,,,masks/mask_001.jpg,,,,,,,,,,,,,,,,,,,,,,,,,,,,,,,,,,,,,,,,,,,,,,,,0,2,2,0,1,,,,,,,,,,,,,,,,,,,,,,,,,,,,,,,,,,,,,,,,,
904982,001,2022-11-20_23h53.39.289,Info_measure_main_exp,2022.2.2,Win32,59.95203837,,,,,,,,,,,,,,,,,,masks/mask_004.jpg,,,,,,,,,,,,,,,,,,,,,,,,,,,,,,,,,,,,,,,,,,,,,,,,0,3,3,3,1,,,,,,,,,,,,,,,,,,,,,,,,,,,,,,,,,,,,,,,,,
904982,001,2022-11-20_23h53.39.289,Info_measure_main_exp,2022.2.2,Win32,59.95203837,,,,,,,,,,,,,,,,,,masks/mask_002.jpg,,,,,,,,,,,,,,,,,,,,,,,,,,,,,,,,,,,,,,,,,,,,,,,,0,4,4,1,1,,,,,,,,,,,,,,,,,,,,,,,,,,,,,,,,,,,,,,,,,
904982,001,2022-11-20_23h53.39.289,Info_measure_main_exp,2022.2.2,Win32,59.95203837,,,,,,,,,,,,,,,,,,,,,,,,,,,,,,7,0.651,1,,,,,,,,,,,,0,131,5,5,2274,1974,absent_patch/patch0002274.jpg,absent_patch/patch0001974.jpg,,,,,,,,,,,,,,,,,,,,0.038888889,0.118518519,1,0,0,response1disk,8,-0.007407407,-0.010185185,1,0,0,center_square,0,7,7,90,1,,,,,,,,,,,,,,,,,,,,,,,
904982,001,2022-11-20_23h53.39.289,Info_measure_main_exp,2022.2.2,Win32,59.95203837,,,,,,,,,,,,,,,,,,masks/mask_001.jpg,,,,,,,,,,,,,,,,,,,,,,,,,,,,,,,,,,,,,,,,,,,0,0,0,0,1,,,,,,,,,,,,,,,,,,,,,,,,,,,,,,,,,,,,,,,,,,,,,,
904982,001,2022-11-20_23h53.39.289,Info_measure_main_exp,2022.2.2,Win32,59.95203837,,,,,,,,,,,,,,,,,,masks/mask_004.jpg,,,,,,,,,,,,,,,,,,,,,,,,,,,,,,,,,,,,,,,,,,,0,1,1,3,1,,,,,,,,,,,,,,,,,,,,,,,,,,,,,,,,,,,,,,,,,,,,,,
904982,001,2022-11-20_23h53.39.289,Info_measure_main_exp,2022.2.2,Win32,59.95203837,,,,,,,,,,,,,,,,,,masks/mask_002.jpg,,,,,,,,,,,,,,,,,,,,,,,,,,,,,,,,,,,,,,,,,,,0,2,2,1,1,,,,,,,,,,,,,,,,,,,,,,,,,,,,,,,,,,,,,,,,,,,,,,
904982,001,2022-11-20_23h53.39.289,Info_measure_main_exp,2022.2.2,Win32,59.95203837,,,,,,,,,,,,,,,,,,masks/mask_003.jpg,,,,,,,,,,,,,,,,,,,,,,,,,,,,,,,,,,,,,,,,,,,0,3,3,2,1,,,,,,,,,,,,,,,,,,,,,,,,,,,,,,,,,,,,,,,,,,,,,,
904982,001,2022-11-20_23h53.39.289,Info_measure_main_exp,2022.2.2,Win32,59.95203837,,,,,,,,,,,,,,,,,,masks/mask_005.jpg,,,,,,,,,,,,,,,,,,,,,,,,,,,,,,,,,,,,,,,,,,,0,4,4,4,1,,,,,,,,,,,,,,,,,,,,,,,,,,,,,,,,,,,,,,,,,,,,,,
904982,001,2022-11-20_23h53.39.289,Info_measure_main_exp,2022.2.2,Win32,59.95203837,,,,,,,,,,,,,,,,,,masks/mask_001.jpg,,,,,,,,,,,,,,,,,,,,,,,,,,,,,,,,,,,,,,,,,,,,,,,,0,0,0,0,1,,,,,,,,,,,,,,,,,,,,,,,,,,,,,,,,,,,,,,,,,
904982,001,2022-11-20_23h53.39.289,Info_measure_main_exp,2022.2.2,Win32,59.95203837,,,,,,,,,,,,,,,,,,masks/mask_002.jpg,,,,,,,,,,,,,,,,,,,,,,,,,,,,,,,,,,,,,,,,,,,,,,,,0,1,1,1,1,,,,,,,,,,,,,,,,,,,,,,,,,,,,,,,,,,,,,,,,,
904982,001,2022-11-20_23h53.39.289,Info_measure_main_exp,2022.2.2,Win32,59.95203837,,,,,,,,,,,,,,,,,,masks/mask_003.jpg,,,,,,,,,,,,,,,,,,,,,,,,,,,,,,,,,,,,,,,,,,,,,,,,0,2,2,2,1,,,,,,,,,,,,,,,,,,,,,,,,,,,,,,,,,,,,,,,,,
904982,001,2022-11-20_23h53.39.289,Info_measure_main_exp,2022.2.2,Win32,59.95203837,,,,,,,,,,,,,,,,,,masks/mask_004.jpg,,,,,,,,,,,,,,,,,,,,,,,,,,,,,,,,,,,,,,,,,,,,,,,,0,3,3,3,1,,,,,,,,,,,,,,,,,,,,,,,,,,,,,,,,,,,,,,,,,
904982,001,2022-11-20_23h53.39.289,Info_measure_main_exp,2022.2.2,Win32,59.95203837,,,,,,,,,,,,,,,,,,masks/mask_005.jpg,,,,,,,,,,,,,,,,,,,,,,,,,,,,,,,,,,,,,,,,,,,,,,,,0,4,4,4,1,,,,,,,,,,,,,,,,,,,,,,,,,,,,,,,,,,,,,,,,,
904982,001,2022-11-20_23h53.39.289,Info_measure_main_exp,2022.2.2,Win32,59.95203837,,,,,,,,,,,,,,,,,,,,,,,,,,,,,,7,0.483,1,,,,,,,,,,,,0,131,5,5,2082,2238,absent_patch/patch0002082.jpg,absent_patch/patch0002238.jpg,,,,,,,,,,,,,,,,,,,,0.061111111,0.140740741,1,0,0,response1disk,9,-0.003703704,0.000925926,1,0,0,center_square,0,8,8,22,1,,,,,,,,,,,,,,,,,,,,,,,
904982,001,2022-11-20_23h53.39.289,Info_measure_main_exp,2022.2.2,Win32,59.95203837,,,,,,,,,,,,,,,,,,masks/mask_002.jpg,,,,,,,,,,,,,,,,,,,,,,,,,,,,,,,,,,,,,,,,,,,0,0,0,1,1,,,,,,,,,,,,,,,,,,,,,,,,,,,,,,,,,,,,,,,,,,,,,,
904982,001,2022-11-20_23h53.39.289,Info_measure_main_exp,2022.2.2,Win32,59.95203837,,,,,,,,,,,,,,,,,,masks/mask_004.jpg,,,,,,,,,,,,,,,,,,,,,,,,,,,,,,,,,,,,,,,,,,,0,1,1,3,1,,,,,,,,,,,,,,,,,,,,,,,,,,,,,,,,,,,,,,,,,,,,,,
904982,001,2022-11-20_23h53.39.289,Info_measure_main_exp,2022.2.2,Win32,59.95203837,,,,,,,,,,,,,,,,,,masks/mask_005.jpg,,,,,,,,,,,,,,,,,,,,,,,,,,,,,,,,,,,,,,,,,,,0,2,2,4,1,,,,,,,,,,,,,,,,,,,,,,,,,,,,,,,,,,,,,,,,,,,,,,
904982,001,2022-11-20_23h53.39.289,Info_measure_main_exp,2022.2.2,Win32,59.95203837,,,,,,,,,,,,,,,,,,masks/mask_003.jpg,,,,,,,,,,,,,,,,,,,,,,,,,,,,,,,,,,,,,,,,,,,0,3,3,2,1,,,,,,,,,,,,,,,,,,,,,,,,,,,,,,,,,,,,,,,,,,,,,,
904982,001,2022-11-20_23h53.39.289,Info_measure_main_exp,2022.2.2,Win32,59.95203837,,,,,,,,,,,,,,,,,,masks/mask_001.jpg,,,,,,,,,,,,,,,,,,,,,,,,,,,,,,,,,,,,,,,,,,,0,4,4,0,1,,,,,,,,,,,,,,,,,,,,,,,,,,,,,,,,,,,,,,,,,,,,,,
904982,001,2022-11-20_23h53.39.289,Info_measure_main_exp,2022.2.2,Win32,59.95203837,,,,,,,,,,,,,,,,,,masks/mask_004.jpg,,,,,,,,,,,,,,,,,,,,,,,,,,,,,,,,,,,,,,,,,,,,,,,,0,0,0,3,1,,,,,,,,,,,,,,,,,,,,,,,,,,,,,,,,,,,,,,,,,
904982,001,2022-11-20_23h53.39.289,Info_measure_main_exp,2022.2.2,Win32,59.95203837,,,,,,,,,,,,,,,,,,masks/mask_003.jpg,,,,,,,,,,,,,,,,,,,,,,,,,,,,,,,,,,,,,,,,,,,,,,,,0,1,1,2,1,,,,,,,,,,,,,,,,,,,,,,,,,,,,,,,,,,,,,,,,,
904982,001,2022-11-20_23h53.39.289,Info_measure_main_exp,2022.2.2,Win32,59.95203837,,,,,,,,,,,,,,,,,,masks/mask_002.jpg,,,,,,,,,,,,,,,,,,,,,,,,,,,,,,,,,,,,,,,,,,,,,,,,0,2,2,1,1,,,,,,,,,,,,,,,,,,,,,,,,,,,,,,,,,,,,,,,,,
904982,001,2022-11-20_23h53.39.289,Info_measure_main_exp,2022.2.2,Win32,59.95203837,,,,,,,,,,,,,,,,,,masks/mask_001.jpg,,,,,,,,,,,,,,,,,,,,,,,,,,,,,,,,,,,,,,,,,,,,,,,,0,3,3,0,1,,,,,,,,,,,,,,,,,,,,,,,,,,,,,,,,,,,,,,,,,
904982,001,2022-11-20_23h53.39.289,Info_measure_main_exp,2022.2.2,Win32,59.95203837,,,,,,,,,,,,,,,,,,masks/mask_005.jpg,,,,,,,,,,,,,,,,,,,,,,,,,,,,,,,,,,,,,,,,,,,,,,,,0,4,4,4,1,,,,,,,,,,,,,,,,,,,,,,,,,,,,,,,,,,,,,,,,,
904982,001,2022-11-20_23h53.39.289,Info_measure_main_exp,2022.2.2,Win32,59.95203837,,,,,,,,,,,,,,,,,,,,,,,,,,,,,,4,1.433,1,,,,,,,,,,,,1,131,5,5,1,2154,present_patch/cong_131_5_a.jpg,absent_patch/patch0002154.jpg,,,,,,,,,,,,,,,,,,,,0.038888889,-0.112037037,1,0,0,response3disk,10,0.002777778,-0.002777778,1,0,0,center_square,0,9,9,87,1,,,,,,,,,,,,,,,,,,,,,,,
904982,001,2022-11-20_23h53.39.289,Info_measure_main_exp,2022.2.2,Win32,59.95203837,,,,,,,,,,,,,,,,,,masks/mask_002.jpg,,,,,,,,,,,,,,,,,,,,,,,,,,,,,,,,,,,,,,,,,,,0,0,0,1,1,,,,,,,,,,,,,,,,,,,,,,,,,,,,,,,,,,,,,,,,,,,,,,
904982,001,2022-11-20_23h53.39.289,Info_measure_main_exp,2022.2.2,Win32,59.95203837,,,,,,,,,,,,,,,,,,masks/mask_004.jpg,,,,,,,,,,,,,,,,,,,,,,,,,,,,,,,,,,,,,,,,,,,0,1,1,3,1,,,,,,,,,,,,,,,,,,,,,,,,,,,,,,,,,,,,,,,,,,,,,,
904982,001,2022-11-20_23h53.39.289,Info_measure_main_exp,2022.2.2,Win32,59.95203837,,,,,,,,,,,,,,,,,,masks/mask_003.jpg,,,,,,,,,,,,,,,,,,,,,,,,,,,,,,,,,,,,,,,,,,,0,2,2,2,1,,,,,,,,,,,,,,,,,,,,,,,,,,,,,,,,,,,,,,,,,,,,,,
904982,001,2022-11-20_23h53.39.289,Info_measure_main_exp,2022.2.2,Win32,59.95203837,,,,,,,,,,,,,,,,,,masks/mask_005.jpg,,,,,,,,,,,,,,,,,,,,,,,,,,,,,,,,,,,,,,,,,,,0,3,3,4,1,,,,,,,,,,,,,,,,,,,,,,,,,,,,,,,,,,,,,,,,,,,,,,
904982,001,2022-11-20_23h53.39.289,Info_measure_main_exp,2022.2.2,Win32,59.95203837,,,,,,,,,,,,,,,,,,masks/mask_001.jpg,,,,,,,,,,,,,,,,,,,,,,,,,,,,,,,,,,,,,,,,,,,0,4,4,0,1,,,,,,,,,,,,,,,,,,,,,,,,,,,,,,,,,,,,,,,,,,,,,,
904982,001,2022-11-20_23h53.39.289,Info_measure_main_exp,2022.2.2,Win32,59.95203837,,,,,,,,,,,,,,,,,,masks/mask_003.jpg,,,,,,,,,,,,,,,,,,,,,,,,,,,,,,,,,,,,,,,,,,,,,,,,0,0,0,2,1,,,,,,,,,,,,,,,,,,,,,,,,,,,,,,,,,,,,,,,,,
904982,001,2022-11-20_23h53.39.289,Info_measure_main_exp,2022.2.2,Win32,59.95203837,,,,,,,,,,,,,,,,,,masks/mask_004.jpg,,,,,,,,,,,,,,,,,,,,,,,,,,,,,,,,,,,,,,,,,,,,,,,,0,1,1,3,1,,,,,,,,,,,,,,,,,,,,,,,,,,,,,,,,,,,,,,,,,
904982,001,2022-11-20_23h53.39.289,Info_measure_main_exp,2022.2.2,Win32,59.95203837,,,,,,,,,,,,,,,,,,masks/mask_005.jpg,,,,,,,,,,,,,,,,,,,,,,,,,,,,,,,,,,,,,,,,,,,,,,,,0,2,2,4,1,,,,,,,,,,,,,,,,,,,,,,,,,,,,,,,,,,,,,,,,,
904982,001,2022-11-20_23h53.39.289,Info_measure_main_exp,2022.2.2,Win32,59.95203837,,,,,,,,,,,,,,,,,,masks/mask_001.jpg,,,,,,,,,,,,,,,,,,,,,,,,,,,,,,,,,,,,,,,,,,,,,,,,0,3,3,0,1,,,,,,,,,,,,,,,,,,,,,,,,,,,,,,,,,,,,,,,,,
904982,001,2022-11-20_23h53.39.289,Info_measure_main_exp,2022.2.2,Win32,59.95203837,,,,,,,,,,,,,,,,,,masks/mask_002.jpg,,,,,,,,,,,,,,,,,,,,,,,,,,,,,,,,,,,,,,,,,,,,,,,,0,4,4,1,1,,,,,,,,,,,,,,,,,,,,,,,,,,,,,,,,,,,,,,,,,
904982,001,2022-11-20_23h53.39.289,Info_measure_main_exp,2022.2.2,Win32,59.95203837,,,,,,,,,,,,,,,,,,,,,,,,,,,,,,2,1.4,1,,,,,,,,,,,,0,131,5,5,2190,2178,absent_patch/patch0002190.jpg,absent_patch/patch0002178.jpg,,,,,,,,,,,,,,,,,,,,-0.093518519,-0.05462963,1,0,0,response5disk,11,-0.005555556,-0.001851852,1,0,0,center_square,0,10,10,14,1,,,,,,,,,,,,,,,,,,,,,,,
904982,001,2022-11-20_23h53.39.289,Info_measure_main_exp,2022.2.2,Win32,59.95203837,,,,,,,,,,,,,,,,,,masks/mask_002.jpg,,,,,,,,,,,,,,,,,,,,,,,,,,,,,,,,,,,,,,,,,,,0,0,0,1,1,,,,,,,,,,,,,,,,,,,,,,,,,,,,,,,,,,,,,,,,,,,,,,
904982,001,2022-11-20_23h53.39.289,Info_measure_main_exp,2022.2.2,Win32,59.95203837,,,,,,,,,,,,,,,,,,masks/mask_005.jpg,,,,,,,,,,,,,,,,,,,,,,,,,,,,,,,,,,,,,,,,,,,0,1,1,4,1,,,,,,,,,,,,,,,,,,,,,,,,,,,,,,,,,,,,,,,,,,,,,,
904982,001,2022-11-20_23h53.39.289,Info_measure_main_exp,2022.2.2,Win32,59.95203837,,,,,,,,,,,,,,,,,,masks/mask_004.jpg,,,,,,,,,,,,,,,,,,,,,,,,,,,,,,,,,,,,,,,,,,,0,2,2,3,1,,,,,,,,,,,,,,,,,,,,,,,,,,,,,,,,,,,,,,,,,,,,,,
904982,001,2022-11-20_23h53.39.289,Info_measure_main_exp,2022.2.2,Win32,59.95203837,,,,,,,,,,,,,,,,,,masks/mask_001.jpg,,,,,,,,,,,,,,,,,,,,,,,,,,,,,,,,,,,,,,,,,,,0,3,3,0,1,,,,,,,,,,,,,,,,,,,,,,,,,,,,,,,,,,,,,,,,,,,,,,
904982,001,2022-11-20_23h53.39.289,Info_measure_main_exp,2022.2.2,Win32,59.95203837,,,,,,,,,,,,,,,,,,masks/mask_003.jpg,,,,,,,,,,,,,,,,,,,,,,,,,,,,,,,,,,,,,,,,,,,0,4,4,2,1,,,,,,,,,,,,,,,,,,,,,,,,,,,,,,,,,,,,,,,,,,,,,,
904982,001,2022-11-20_23h53.39.289,Info_measure_main_exp,2022.2.2,Win32,59.95203837,,,,,,,,,,,,,,,,,,masks/mask_001.jpg,,,,,,,,,,,,,,,,,,,,,,,,,,,,,,,,,,,,,,,,,,,,,,,,0,0,0,0,1,,,,,,,,,,,,,,,,,,,,,,,,,,,,,,,,,,,,,,,,,
904982,001,2022-11-20_23h53.39.289,Info_measure_main_exp,2022.2.2,Win32,59.95203837,,,,,,,,,,,,,,,,,,masks/mask_002.jpg,,,,,,,,,,,,,,,,,,,,,,,,,,,,,,,,,,,,,,,,,,,,,,,,0,1,1,1,1,,,,,,,,,,,,,,,,,,,,,,,,,,,,,,,,,,,,,,,,,
904982,001,2022-11-20_23h53.39.289,Info_measure_main_exp,2022.2.2,Win32,59.95203837,,,,,,,,,,,,,,,,,,masks/mask_005.jpg,,,,,,,,,,,,,,,,,,,,,,,,,,,,,,,,,,,,,,,,,,,,,,,,0,2,2,4,1,,,,,,,,,,,,,,,,,,,,,,,,,,,,,,,,,,,,,,,,,
904982,001,2022-11-20_23h53.39.289,Info_measure_main_exp,2022.2.2,Win32,59.95203837,,,,,,,,,,,,,,,,,,masks/mask_004.jpg,,,,,,,,,,,,,,,,,,,,,,,,,,,,,,,,,,,,,,,,,,,,,,,,0,3,3,3,1,,,,,,,,,,,,,,,,,,,,,,,,,,,,,,,,,,,,,,,,,
904982,001,2022-11-20_23h53.39.289,Info_measure_main_exp,2022.2.2,Win32,59.95203837,,,,,,,,,,,,,,,,,,masks/mask_003.jpg,,,,,,,,,,,,,,,,,,,,,,,,,,,,,,,,,,,,,,,,,,,,,,,,0,4,4,2,1,,,,,,,,,,,,,,,,,,,,,,,,,,,,,,,,,,,,,,,,,
904982,001,2022-11-20_23h53.39.289,Info_measure_main_exp,2022.2.2,Win32,59.95203837,,,,,,,,,,,,,,,,,,,,,,,,,,,,,,0,0.9,1,,,,,,,,,,,,0,131,5,5,2142,2142,absent_patch/patch0002142.jpg,absent_patch/patch0002142.jpg,,,,,,,,,,,,,,,,,,,,-0.049074074,0.112037037,1,0,0,response7disk,12,0.001851852,0.005555556,1,0,0,center_square,0,11,11,13,1,,,,,,,,,,,,,,,,,,,,,,,
904982,001,2022-11-20_23h53.39.289,Info_measure_main_exp,2022.2.2,Win32,59.95203837,,,,,,,,,,,,,,,,,,masks/mask_003.jpg,,,,,,,,,,,,,,,,,,,,,,,,,,,,,,,,,,,,,,,,,,,0,0,0,2,1,,,,,,,,,,,,,,,,,,,,,,,,,,,,,,,,,,,,,,,,,,,,,,
904982,001,2022-11-20_23h53.39.289,Info_measure_main_exp,2022.2.2,Win32,59.95203837,,,,,,,,,,,,,,,,,,masks/mask_005.jpg,,,,,,,,,,,,,,,,,,,,,,,,,,,,,,,,,,,,,,,,,,,0,1,1,4,1,,,,,,,,,,,,,,,,,,,,,,,,,,,,,,,,,,,,,,,,,,,,,,
904982,001,2022-11-20_23h53.39.289,Info_measure_main_exp,2022.2.2,Win32,59.95203837,,,,,,,,,,,,,,,,,,masks/mask_004.jpg,,,,,,,,,,,,,,,,,,,,,,,,,,,,,,,,,,,,,,,,,,,0,2,2,3,1,,,,,,,,,,,,,,,,,,,,,,,,,,,,,,,,,,,,,,,,,,,,,,
904982,001,2022-11-20_23h53.39.289,Info_measure_main_exp,2022.2.2,Win32,59.95203837,,,,,,,,,,,,,,,,,,masks/mask_001.jpg,,,,,,,,,,,,,,,,,,,,,,,,,,,,,,,,,,,,,,,,,,,0,3,3,0,1,,,,,,,,,,,,,,,,,,,,,,,,,,,,,,,,,,,,,,,,,,,,,,
904982,001,2022-11-20_23h53.39.289,Info_measure_main_exp,2022.2.2,Win32,59.95203837,,,,,,,,,,,,,,,,,,masks/mask_002.jpg,,,,,,,,,,,,,,,,,,,,,,,,,,,,,,,,,,,,,,,,,,,0,4,4,1,1,,,,,,,,,,,,,,,,,,,,,,,,,,,,,,,,,,,,,,,,,,,,,,
904982,001,2022-11-20_23h53.39.289,Info_measure_main_exp,2022.2.2,Win32,59.95203837,,,,,,,,,,,,,,,,,,masks/mask_004.jpg,,,,,,,,,,,,,,,,,,,,,,,,,,,,,,,,,,,,,,,,,,,,,,,,0,0,0,3,1,,,,,,,,,,,,,,,,,,,,,,,,,,,,,,,,,,,,,,,,,
904982,001,2022-11-20_23h53.39.289,Info_measure_main_exp,2022.2.2,Win32,59.95203837,,,,,,,,,,,,,,,,,,masks/mask_005.jpg,,,,,,,,,,,,,,,,,,,,,,,,,,,,,,,,,,,,,,,,,,,,,,,,0,1,1,4,1,,,,,,,,,,,,,,,,,,,,,,,,,,,,,,,,,,,,,,,,,
904982,001,2022-11-20_23h53.39.289,Info_measure_main_exp,2022.2.2,Win32,59.95203837,,,,,,,,,,,,,,,,,,masks/mask_001.jpg,,,,,,,,,,,,,,,,,,,,,,,,,,,,,,,,,,,,,,,,,,,,,,,,0,2,2,0,1,,,,,,,,,,,,,,,,,,,,,,,,,,,,,,,,,,,,,,,,,
904982,001,2022-11-20_23h53.39.289,Info_measure_main_exp,2022.2.2,Win32,59.95203837,,,,,,,,,,,,,,,,,,masks/mask_003.jpg,,,,,,,,,,,,,,,,,,,,,,,,,,,,,,,,,,,,,,,,,,,,,,,,0,3,3,2,1,,,,,,,,,,,,,,,,,,,,,,,,,,,,,,,,,,,,,,,,,
904982,001,2022-11-20_23h53.39.289,Info_measure_main_exp,2022.2.2,Win32,59.95203837,,,,,,,,,,,,,,,,,,masks/mask_002.jpg,,,,,,,,,,,,,,,,,,,,,,,,,,,,,,,,,,,,,,,,,,,,,,,,0,4,4,1,1,,,,,,,,,,,,,,,,,,,,,,,,,,,,,,,,,,,,,,,,,
904982,001,2022-11-20_23h53.39.289,Info_measure_main_exp,2022.2.2,Win32,59.95203837,,,,,,,,,,,,,,,,,,,,,,,,,,,,,,0,0.467,1,,,,,,,,,,,,0,131,5,5,2190,2190,absent_patch/patch0002190.jpg,absent_patch/patch0002190.jpg,,,,,,,,,,,,,,,,,,,,-0.032407407,0.114814815,1,0,0,response7disk,13,-0.001851852,-0.001851852,1,0,0,center_square,0,12,12,86,1,,,,,,,,,,,,,,,,,,,,,,,
904982,001,2022-11-20_23h53.39.289,Info_measure_main_exp,2022.2.2,Win32,59.95203837,,,,,,,,,,,,,,,,,,masks/mask_003.jpg,,,,,,,,,,,,,,,,,,,,,,,,,,,,,,,,,,,,,,,,,,,0,0,0,2,1,,,,,,,,,,,,,,,,,,,,,,,,,,,,,,,,,,,,,,,,,,,,,,
904982,001,2022-11-20_23h53.39.289,Info_measure_main_exp,2022.2.2,Win32,59.95203837,,,,,,,,,,,,,,,,,,masks/mask_002.jpg,,,,,,,,,,,,,,,,,,,,,,,,,,,,,,,,,,,,,,,,,,,0,1,1,1,1,,,,,,,,,,,,,,,,,,,,,,,,,,,,,,,,,,,,,,,,,,,,,,
904982,001,2022-11-20_23h53.39.289,Info_measure_main_exp,2022.2.2,Win32,59.95203837,,,,,,,,,,,,,,,,,,masks/mask_001.jpg,,,,,,,,,,,,,,,,,,,,,,,,,,,,,,,,,,,,,,,,,,,0,2,2,0,1,,,,,,,,,,,,,,,,,,,,,,,,,,,,,,,,,,,,,,,,,,,,,,
904982,001,2022-11-20_23h53.39.289,Info_measure_main_exp,2022.2.2,Win32,59.95203837,,,,,,,,,,,,,,,,,,masks/mask_005.jpg,,,,,,,,,,,,,,,,,,,,,,,,,,,,,,,,,,,,,,,,,,,0,3,3,4,1,,,,,,,,,,,,,,,,,,,,,,,,,,,,,,,,,,,,,,,,,,,,,,
904982,001,2022-11-20_23h53.39.289,Info_measure_main_exp,2022.2.2,Win32,59.95203837,,,,,,,,,,,,,,,,,,masks/mask_004.jpg,,,,,,,,,,,,,,,,,,,,,,,,,,,,,,,,,,,,,,,,,,,0,4,4,3,1,,,,,,,,,,,,,,,,,,,,,,,,,,,,,,,,,,,,,,,,,,,,,,
904982,001,2022-11-20_23h53.39.289,Info_measure_main_exp,2022.2.2,Win32,59.95203837,,,,,,,,,,,,,,,,,,masks/mask_001.jpg,,,,,,,,,,,,,,,,,,,,,,,,,,,,,,,,,,,,,,,,,,,,,,,,0,0,0,0,1,,,,,,,,,,,,,,,,,,,,,,,,,,,,,,,,,,,,,,,,,
904982,001,2022-11-20_23h53.39.289,Info_measure_main_exp,2022.2.2,Win32,59.95203837,,,,,,,,,,,,,,,,,,masks/mask_005.jpg,,,,,,,,,,,,,,,,,,,,,,,,,,,,,,,,,,,,,,,,,,,,,,,,0,1,1,4,1,,,,,,,,,,,,,,,,,,,,,,,,,,,,,,,,,,,,,,,,,
904982,001,2022-11-20_23h53.39.289,Info_measure_main_exp,2022.2.2,Win32,59.95203837,,,,,,,,,,,,,,,,,,masks/mask_003.jpg,,,,,,,,,,,,,,,,,,,,,,,,,,,,,,,,,,,,,,,,,,,,,,,,0,2,2,2,1,,,,,,,,,,,,,,,,,,,,,,,,,,,,,,,,,,,,,,,,,
904982,001,2022-11-20_23h53.39.289,Info_measure_main_exp,2022.2.2,Win32,59.95203837,,,,,,,,,,,,,,,,,,masks/mask_002.jpg,,,,,,,,,,,,,,,,,,,,,,,,,,,,,,,,,,,,,,,,,,,,,,,,0,3,3,1,1,,,,,,,,,,,,,,,,,,,,,,,,,,,,,,,,,,,,,,,,,
904982,001,2022-11-20_23h53.39.289,Info_measure_main_exp,2022.2.2,Win32,59.95203837,,,,,,,,,,,,,,,,,,masks/mask_004.jpg,,,,,,,,,,,,,,,,,,,,,,,,,,,,,,,,,,,,,,,,,,,,,,,,0,4,4,3,1,,,,,,,,,,,,,,,,,,,,,,,,,,,,,,,,,,,,,,,,,
904982,001,2022-11-20_23h53.39.289,Info_measure_main_exp,2022.2.2,Win32,59.95203837,,,,,,,,,,,,,,,,,,,,,,,,,,,,,,0,0.45,1,,,,,,,,,,,,0,131,5,5,2082,2082,absent_patch/patch0002082.jpg,absent_patch/patch0002082.jpg,,,,,,,,,,,,,,,,,,,,-0.046296296,0.127777778,1,0,0,response7disk,14,0.003703704,-0.005555556,1,0,0,center_square,0,13,13,74,1,,,,,,,,,,,,,,,,,,,,,,,
904982,001,2022-11-20_23h53.39.289,Info_measure_main_exp,2022.2.2,Win32,59.95203837,,,,,,,,,,,,,,,,,,masks/mask_004.jpg,,,,,,,,,,,,,,,,,,,,,,,,,,,,,,,,,,,,,,,,,,,0,0,0,3,1,,,,,,,,,,,,,,,,,,,,,,,,,,,,,,,,,,,,,,,,,,,,,,
904982,001,2022-11-20_23h53.39.289,Info_measure_main_exp,2022.2.2,Win32,59.95203837,,,,,,,,,,,,,,,,,,masks/mask_003.jpg,,,,,,,,,,,,,,,,,,,,,,,,,,,,,,,,,,,,,,,,,,,0,1,1,2,1,,,,,,,,,,,,,,,,,,,,,,,,,,,,,,,,,,,,,,,,,,,,,,
904982,001,2022-11-20_23h53.39.289,Info_measure_main_exp,2022.2.2,Win32,59.95203837,,,,,,,,,,,,,,,,,,masks/mask_005.jpg,,,,,,,,,,,,,,,,,,,,,,,,,,,,,,,,,,,,,,,,,,,0,2,2,4,1,,,,,,,,,,,,,,,,,,,,,,,,,,,,,,,,,,,,,,,,,,,,,,
904982,001,2022-11-20_23h53.39.289,Info_measure_main_exp,2022.2.2,Win32,59.95203837,,,,,,,,,,,,,,,,,,masks/mask_002.jpg,,,,,,,,,,,,,,,,,,,,,,,,,,,,,,,,,,,,,,,,,,,0,3,3,1,1,,,,,,,,,,,,,,,,,,,,,,,,,,,,,,,,,,,,,,,,,,,,,,
904982,001,2022-11-20_23h53.39.289,Info_measure_main_exp,2022.2.2,Win32,59.95203837,,,,,,,,,,,,,,,,,,masks/mask_001.jpg,,,,,,,,,,,,,,,,,,,,,,,,,,,,,,,,,,,,,,,,,,,0,4,4,0,1,,,,,,,,,,,,,,,,,,,,,,,,,,,,,,,,,,,,,,,,,,,,,,
904982,001,2022-11-20_23h53.39.289,Info_measure_main_exp,2022.2.2,Win32,59.95203837,,,,,,,,,,,,,,,,,,masks/mask_005.jpg,,,,,,,,,,,,,,,,,,,,,,,,,,,,,,,,,,,,,,,,,,,,,,,,0,0,0,4,1,,,,,,,,,,,,,,,,,,,,,,,,,,,,,,,,,,,,,,,,,
904982,001,2022-11-20_23h53.39.289,Info_measure_main_exp,2022.2.2,Win32,59.95203837,,,,,,,,,,,,,,,,,,masks/mask_001.jpg,,,,,,,,,,,,,,,,,,,,,,,,,,,,,,,,,,,,,,,,,,,,,,,,0,1,1,0,1,,,,,,,,,,,,,,,,,,,,,,,,,,,,,,,,,,,,,,,,,
904982,001,2022-11-20_23h53.39.289,Info_measure_main_exp,2022.2.2,Win32,59.95203837,,,,,,,,,,,,,,,,,,masks/mask_002.jpg,,,,,,,,,,,,,,,,,,,,,,,,,,,,,,,,,,,,,,,,,,,,,,,,0,2,2,1,1,,,,,,,,,,,,,,,,,,,,,,,,,,,,,,,,,,,,,,,,,
904982,001,2022-11-20_23h53.39.289,Info_measure_main_exp,2022.2.2,Win32,59.95203837,,,,,,,,,,,,,,,,,,masks/mask_003.jpg,,,,,,,,,,,,,,,,,,,,,,,,,,,,,,,,,,,,,,,,,,,,,,,,0,3,3,2,1,,,,,,,,,,,,,,,,,,,,,,,,,,,,,,,,,,,,,,,,,
904982,001,2022-11-20_23h53.39.289,Info_measure_main_exp,2022.2.2,Win32,59.95203837,,,,,,,,,,,,,,,,,,masks/mask_004.jpg,,,,,,,,,,,,,,,,,,,,,,,,,,,,,,,,,,,,,,,,,,,,,,,,0,4,4,3,1,,,,,,,,,,,,,,,,,,,,,,,,,,,,,,,,,,,,,,,,,
904982,001,2022-11-20_23h53.39.289,Info_measure_main_exp,2022.2.2,Win32,59.95203837,,,,,,,,,,,,,,,,,,,,,,,,,,,,,,4,0.996,1,,,,,,,,,,,,0,131,5,5,2082,1974,absent_patch/patch0002082.jpg,absent_patch/patch0001974.jpg,,,,,,,,,,,,,,,,,,,,0.02037037,-0.114814815,1,0,0,response3disk,15,-0.002777778,-0.002777778,1,0,0,center_square,0,14,14,26,1,,,,,,,,,,,,,,,,,,,,,,,
904982,001,2022-11-20_23h53.39.289,Info_measure_main_exp,2022.2.2,Win32,59.95203837,,,,,,,,,,,,,,,,,,masks/mask_001.jpg,,,,,,,,,,,,,,,,,,,,,,,,,,,,,,,,,,,,,,,,,,,0,0,0,0,1,,,,,,,,,,,,,,,,,,,,,,,,,,,,,,,,,,,,,,,,,,,,,,
904982,001,2022-11-20_23h53.39.289,Info_measure_main_exp,2022.2.2,Win32,59.95203837,,,,,,,,,,,,,,,,,,masks/mask_004.jpg,,,,,,,,,,,,,,,,,,,,,,,,,,,,,,,,,,,,,,,,,,,0,1,1,3,1,,,,,,,,,,,,,,,,,,,,,,,,,,,,,,,,,,,,,,,,,,,,,,
904982,001,2022-11-20_23h53.39.289,Info_measure_main_exp,2022.2.2,Win32,59.95203837,,,,,,,,,,,,,,,,,,masks/mask_005.jpg,,,,,,,,,,,,,,,,,,,,,,,,,,,,,,,,,,,,,,,,,,,0,2,2,4,1,,,,,,,,,,,,,,,,,,,,,,,,,,,,,,,,,,,,,,,,,,,,,,
904982,001,2022-11-20_23h53.39.289,Info_measure_main_exp,2022.2.2,Win32,59.95203837,,,,,,,,,,,,,,,,,,masks/mask_003.jpg,,,,,,,,,,,,,,,,,,,,,,,,,,,,,,,,,,,,,,,,,,,0,3,3,2,1,,,,,,,,,,,,,,,,,,,,,,,,,,,,,,,,,,,,,,,,,,,,,,
904982,001,2022-11-20_23h53.39.289,Info_measure_main_exp,2022.2.2,Win32,59.95203837,,,,,,,,,,,,,,,,,,masks/mask_002.jpg,,,,,,,,,,,,,,,,,,,,,,,,,,,,,,,,,,,,,,,,,,,0,4,4,1,1,,,,,,,,,,,,,,,,,,,,,,,,,,,,,,,,,,,,,,,,,,,,,,
904982,001,2022-11-20_23h53.39.289,Info_measure_main_exp,2022.2.2,Win32,59.95203837,,,,,,,,,,,,,,,,,,masks/mask_003.jpg,,,,,,,,,,,,,,,,,,,,,,,,,,,,,,,,,,,,,,,,,,,,,,,,0,0,0,2,1,,,,,,,,,,,,,,,,,,,,,,,,,,,,,,,,,,,,,,,,,
904982,001,2022-11-20_23h53.39.289,Info_measure_main_exp,2022.2.2,Win32,59.95203837,,,,,,,,,,,,,,,,,,masks/mask_001.jpg,,,,,,,,,,,,,,,,,,,,,,,,,,,,,,,,,,,,,,,,,,,,,,,,0,1,1,0,1,,,,,,,,,,,,,,,,,,,,,,,,,,,,,,,,,,,,,,,,,
904982,001,2022-11-20_23h53.39.289,Info_measure_main_exp,2022.2.2,Win32,59.95203837,,,,,,,,,,,,,,,,,,masks/mask_002.jpg,,,,,,,,,,,,,,,,,,,,,,,,,,,,,,,,,,,,,,,,,,,,,,,,0,2,2,1,1,,,,,,,,,,,,,,,,,,,,,,,,,,,,,,,,,,,,,,,,,
904982,001,2022-11-20_23h53.39.289,Info_measure_main_exp,2022.2.2,Win32,59.95203837,,,,,,,,,,,,,,,,,,masks/mask_005.jpg,,,,,,,,,,,,,,,,,,,,,,,,,,,,,,,,,,,,,,,,,,,,,,,,0,3,3,4,1,,,,,,,,,,,,,,,,,,,,,,,,,,,,,,,,,,,,,,,,,
904982,001,2022-11-20_23h53.39.289,Info_measure_main_exp,2022.2.2,Win32,59.95203837,,,,,,,,,,,,,,,,,,masks/mask_004.jpg,,,,,,,,,,,,,,,,,,,,,,,,,,,,,,,,,,,,,,,,,,,,,,,,0,4,4,3,1,,,,,,,,,,,,,,,,,,,,,,,,,,,,,,,,,,,,,,,,,
904982,001,2022-11-20_23h53.39.289,Info_measure_main_exp,2022.2.2,Win32,59.95203837,,,,,,,,,,,,,,,,,,,,,,,,,,,,,,5,1.333,1,,,,,,,,,,,,0,131,5,5,1974,2178,absent_patch/patch0001974.jpg,absent_patch/patch0002178.jpg,,,,,,,,,,,,,,,,,,,,0.086111111,-0.042592593,1,0,0,response3disk,16,-0.002777778,0.000925926,1,0,0,center_square,0,15,15,44,1,,,,,,,,,,,,,,,,,,,,,,,
904982,001,2022-11-20_23h53.39.289,Info_measure_main_exp,2022.2.2,Win32,59.95203837,,,,,,,,,,,,,,,,,,masks/mask_002.jpg,,,,,,,,,,,,,,,,,,,,,,,,,,,,,,,,,,,,,,,,,,,0,0,0,1,1,,,,,,,,,,,,,,,,,,,,,,,,,,,,,,,,,,,,,,,,,,,,,,
904982,001,2022-11-20_23h53.39.289,Info_measure_main_exp,2022.2.2,Win32,59.95203837,,,,,,,,,,,,,,,,,,masks/mask_001.jpg,,,,,,,,,,,,,,,,,,,,,,,,,,,,,,,,,,,,,,,,,,,0,1,1,0,1,,,,,,,,,,,,,,,,,,,,,,,,,,,,,,,,,,,,,,,,,,,,,,
904982,001,2022-11-20_23h53.39.289,Info_measure_main_exp,2022.2.2,Win32,59.95203837,,,,,,,,,,,,,,,,,,masks/mask_003.jpg,,,,,,,,,,,,,,,,,,,,,,,,,,,,,,,,,,,,,,,,,,,0,2,2,2,1,,,,,,,,,,,,,,,,,,,,,,,,,,,,,,,,,,,,,,,,,,,,,,
904982,001,2022-11-20_23h53.39.289,Info_measure_main_exp,2022.2.2,Win32,59.95203837,,,,,,,,,,,,,,,,,,masks/mask_005.jpg,,,,,,,,,,,,,,,,,,,,,,,,,,,,,,,,,,,,,,,,,,,0,3,3,4,1,,,,,,,,,,,,,,,,,,,,,,,,,,,,,,,,,,,,,,,,,,,,,,
904982,001,2022-11-20_23h53.39.289,Info_measure_main_exp,2022.2.2,Win32,59.95203837,,,,,,,,,,,,,,,,,,masks/mask_004.jpg,,,,,,,,,,,,,,,,,,,,,,,,,,,,,,,,,,,,,,,,,,,0,4,4,3,1,,,,,,,,,,,,,,,,,,,,,,,,,,,,,,,,,,,,,,,,,,,,,,
904982,001,2022-11-20_23h53.39.289,Info_measure_main_exp,2022.2.2,Win32,59.95203837,,,,,,,,,,,,,,,,,,masks/mask_004.jpg,,,,,,,,,,,,,,,,,,,,,,,,,,,,,,,,,,,,,,,,,,,,,,,,0,0,0,3,1,,,,,,,,,,,,,,,,,,,,,,,,,,,,,,,,,,,,,,,,,
904982,001,2022-11-20_23h53.39.289,Info_measure_main_exp,2022.2.2,Win32,59.95203837,,,,,,,,,,,,,,,,,,masks/mask_005.jpg,,,,,,,,,,,,,,,,,,,,,,,,,,,,,,,,,,,,,,,,,,,,,,,,0,1,1,4,1,,,,,,,,,,,,,,,,,,,,,,,,,,,,,,,,,,,,,,,,,
904982,001,2022-11-20_23h53.39.289,Info_measure_main_exp,2022.2.2,Win32,59.95203837,,,,,,,,,,,,,,,,,,masks/mask_003.jpg,,,,,,,,,,,,,,,,,,,,,,,,,,,,,,,,,,,,,,,,,,,,,,,,0,2,2,2,1,,,,,,,,,,,,,,,,,,,,,,,,,,,,,,,,,,,,,,,,,
904982,001,2022-11-20_23h53.39.289,Info_measure_main_exp,2022.2.2,Win32,59.95203837,,,,,,,,,,,,,,,,,,masks/mask_002.jpg,,,,,,,,,,,,,,,,,,,,,,,,,,,,,,,,,,,,,,,,,,,,,,,,0,3,3,1,1,,,,,,,,,,,,,,,,,,,,,,,,,,,,,,,,,,,,,,,,,
904982,001,2022-11-20_23h53.39.289,Info_measure_main_exp,2022.2.2,Win32,59.95203837,,,,,,,,,,,,,,,,,,masks/mask_001.jpg,,,,,,,,,,,,,,,,,,,,,,,,,,,,,,,,,,,,,,,,,,,,,,,,0,4,4,0,1,,,,,,,,,,,,,,,,,,,,,,,,,,,,,,,,,,,,,,,,,
904982,001,2022-11-20_23h53.39.289,Info_measure_main_exp,2022.2.2,Win32,59.95203837,,,,,,,,,,,,,,,,,,,,,,,,,,,,,,5,0.767,1,,,,,,,,,,,,0,131,5,5,1986,2238,absent_patch/patch0001986.jpg,absent_patch/patch0002238.jpg,,,,,,,,,,,,,,,,,,,,0.060185185,-0.024074074,1,0,0,response3disk,17,0.009259259,-0.001851852,1,0,0,center_square,0,16,16,31,1,,,,,,,,,,,,,,,,,,,,,,,
904982,001,2022-11-20_23h53.39.289,Info_measure_main_exp,2022.2.2,Win32,59.95203837,,,,,,,,,,,,,,,,,,masks/mask_004.jpg,,,,,,,,,,,,,,,,,,,,,,,,,,,,,,,,,,,,,,,,,,,0,0,0,3,1,,,,,,,,,,,,,,,,,,,,,,,,,,,,,,,,,,,,,,,,,,,,,,
904982,001,2022-11-20_23h53.39.289,Info_measure_main_exp,2022.2.2,Win32,59.95203837,,,,,,,,,,,,,,,,,,masks/mask_001.jpg,,,,,,,,,,,,,,,,,,,,,,,,,,,,,,,,,,,,,,,,,,,0,1,1,0,1,,,,,,,,,,,,,,,,,,,,,,,,,,,,,,,,,,,,,,,,,,,,,,
904982,001,2022-11-20_23h53.39.289,Info_measure_main_exp,2022.2.2,Win32,59.95203837,,,,,,,,,,,,,,,,,,masks/mask_003.jpg,,,,,,,,,,,,,,,,,,,,,,,,,,,,,,,,,,,,,,,,,,,0,2,2,2,1,,,,,,,,,,,,,,,,,,,,,,,,,,,,,,,,,,,,,,,,,,,,,,
904982,001,2022-11-20_23h53.39.289,Info_measure_main_exp,2022.2.2,Win32,59.95203837,,,,,,,,,,,,,,,,,,masks/mask_002.jpg,,,,,,,,,,,,,,,,,,,,,,,,,,,,,,,,,,,,,,,,,,,0,3,3,1,1,,,,,,,,,,,,,,,,,,,,,,,,,,,,,,,,,,,,,,,,,,,,,,
904982,001,2022-11-20_23h53.39.289,Info_measure_main_exp,2022.2.2,Win32,59.95203837,,,,,,,,,,,,,,,,,,masks/mask_005.jpg,,,,,,,,,,,,,,,,,,,,,,,,,,,,,,,,,,,,,,,,,,,0,4,4,4,1,,,,,,,,,,,,,,,,,,,,,,,,,,,,,,,,,,,,,,,,,,,,,,
904982,001,2022-11-20_23h53.39.289,Info_measure_main_exp,2022.2.2,Win32,59.95203837,,,,,,,,,,,,,,,,,,masks/mask_004.jpg,,,,,,,,,,,,,,,,,,,,,,,,,,,,,,,,,,,,,,,,,,,,,,,,0,0,0,3,1,,,,,,,,,,,,,,,,,,,,,,,,,,,,,,,,,,,,,,,,,
904982,001,2022-11-20_23h53.39.289,Info_measure_main_exp,2022.2.2,Win32,59.95203837,,,,,,,,,,,,,,,,,,masks/mask_005.jpg,,,,,,,,,,,,,,,,,,,,,,,,,,,,,,,,,,,,,,,,,,,,,,,,0,1,1,4,1,,,,,,,,,,,,,,,,,,,,,,,,,,,,,,,,,,,,,,,,,
904982,001,2022-11-20_23h53.39.289,Info_measure_main_exp,2022.2.2,Win32,59.95203837,,,,,,,,,,,,,,,,,,masks/mask_001.jpg,,,,,,,,,,,,,,,,,,,,,,,,,,,,,,,,,,,,,,,,,,,,,,,,0,2,2,0,1,,,,,,,,,,,,,,,,,,,,,,,,,,,,,,,,,,,,,,,,,
904982,001,2022-11-20_23h53.39.289,Info_measure_main_exp,2022.2.2,Win32,59.95203837,,,,,,,,,,,,,,,,,,masks/mask_003.jpg,,,,,,,,,,,,,,,,,,,,,,,,,,,,,,,,,,,,,,,,,,,,,,,,0,3,3,2,1,,,,,,,,,,,,,,,,,,,,,,,,,,,,,,,,,,,,,,,,,
904982,001,2022-11-20_23h53.39.289,Info_measure_main_exp,2022.2.2,Win32,59.95203837,,,,,,,,,,,,,,,,,,masks/mask_002.jpg,,,,,,,,,,,,,,,,,,,,,,,,,,,,,,,,,,,,,,,,,,,,,,,,0,4,4,1,1,,,,,,,,,,,,,,,,,,,,,,,,,,,,,,,,,,,,,,,,,
904982,001,2022-11-20_23h53.39.289,Info_measure_main_exp,2022.2.2,Win32,59.95203837,,,,,,,,,,,,,,,,,,,,,,,,,,,,,,5,0.883,1,,,,,,,,,,,,0,131,5,5,2298,2178,absent_patch/patch0002298.jpg,absent_patch/patch0002178.jpg,,,,,,,,,,,,,,,,,,,,0.07962963,-0.046296296,1,0,0,response3disk,18,-0.005555556,-0.002777778,1,0,0,center_square,0,17,17,84,1,,,,,,,,,,,,,,,,,,,,,,,
904982,001,2022-11-20_23h53.39.289,Info_measure_main_exp,2022.2.2,Win32,59.95203837,,,,,,,,,,,,,,,,,,masks/mask_002.jpg,,,,,,,,,,,,,,,,,,,,,,,,,,,,,,,,,,,,,,,,,,,0,0,0,1,1,,,,,,,,,,,,,,,,,,,,,,,,,,,,,,,,,,,,,,,,,,,,,,
904982,001,2022-11-20_23h53.39.289,Info_measure_main_exp,2022.2.2,Win32,59.95203837,,,,,,,,,,,,,,,,,,masks/mask_004.jpg,,,,,,,,,,,,,,,,,,,,,,,,,,,,,,,,,,,,,,,,,,,0,1,1,3,1,,,,,,,,,,,,,,,,,,,,,,,,,,,,,,,,,,,,,,,,,,,,,,
904982,001,2022-11-20_23h53.39.289,Info_measure_main_exp,2022.2.2,Win32,59.95203837,,,,,,,,,,,,,,,,,,masks/mask_005.jpg,,,,,,,,,,,,,,,,,,,,,,,,,,,,,,,,,,,,,,,,,,,0,2,2,4,1,,,,,,,,,,,,,,,,,,,,,,,,,,,,,,,,,,,,,,,,,,,,,,
904982,001,2022-11-20_23h53.39.289,Info_measure_main_exp,2022.2.2,Win32,59.95203837,,,,,,,,,,,,,,,,,,masks/mask_003.jpg,,,,,,,,,,,,,,,,,,,,,,,,,,,,,,,,,,,,,,,,,,,0,3,3,2,1,,,,,,,,,,,,,,,,,,,,,,,,,,,,,,,,,,,,,,,,,,,,,,
904982,001,2022-11-20_23h53.39.289,Info_measure_main_exp,2022.2.2,Win32,59.95203837,,,,,,,,,,,,,,,,,,masks/mask_001.jpg,,,,,,,,,,,,,,,,,,,,,,,,,,,,,,,,,,,,,,,,,,,0,4,4,0,1,,,,,,,,,,,,,,,,,,,,,,,,,,,,,,,,,,,,,,,,,,,,,,
904982,001,2022-11-20_23h53.39.289,Info_measure_main_exp,2022.2.2,Win32,59.95203837,,,,,,,,,,,,,,,,,,masks/mask_003.jpg,,,,,,,,,,,,,,,,,,,,,,,,,,,,,,,,,,,,,,,,,,,,,,,,0,0,0,2,1,,,,,,,,,,,,,,,,,,,,,,,,,,,,,,,,,,,,,,,,,
904982,001,2022-11-20_23h53.39.289,Info_measure_main_exp,2022.2.2,Win32,59.95203837,,,,,,,,,,,,,,,,,,masks/mask_001.jpg,,,,,,,,,,,,,,,,,,,,,,,,,,,,,,,,,,,,,,,,,,,,,,,,0,1,1,0,1,,,,,,,,,,,,,,,,,,,,,,,,,,,,,,,,,,,,,,,,,
904982,001,2022-11-20_23h53.39.289,Info_measure_main_exp,2022.2.2,Win32,59.95203837,,,,,,,,,,,,,,,,,,masks/mask_004.jpg,,,,,,,,,,,,,,,,,,,,,,,,,,,,,,,,,,,,,,,,,,,,,,,,0,2,2,3,1,,,,,,,,,,,,,,,,,,,,,,,,,,,,,,,,,,,,,,,,,
904982,001,2022-11-20_23h53.39.289,Info_measure_main_exp,2022.2.2,Win32,59.95203837,,,,,,,,,,,,,,,,,,masks/mask_005.jpg,,,,,,,,,,,,,,,,,,,,,,,,,,,,,,,,,,,,,,,,,,,,,,,,0,3,3,4,1,,,,,,,,,,,,,,,,,,,,,,,,,,,,,,,,,,,,,,,,,
904982,001,2022-11-20_23h53.39.289,Info_measure_main_exp,2022.2.2,Win32,59.95203837,,,,,,,,,,,,,,,,,,masks/mask_002.jpg,,,,,,,,,,,,,,,,,,,,,,,,,,,,,,,,,,,,,,,,,,,,,,,,0,4,4,1,1,,,,,,,,,,,,,,,,,,,,,,,,,,,,,,,,,,,,,,,,,
904982,001,2022-11-20_23h53.39.289,Info_measure_main_exp,2022.2.2,Win32,59.95203837,,,,,,,,,,,,,,,,,,,,,,,,,,,,,,5,0.633,1,,,,,,,,,,,,0,131,5,5,2166,2298,absent_patch/patch0002166.jpg,absent_patch/patch0002298.jpg,,,,,,,,,,,,,,,,,,,,0.056481481,-0.015740741,1,0,0,response3disk,19,0.005555556,-0.001851852,1,0,0,center_square,0,18,18,52,1,,,,,,,,,,,,,,,,,,,,,,,
904982,001,2022-11-20_23h53.39.289,Info_measure_main_exp,2022.2.2,Win32,59.95203837,,,,,,,,,,,,,,,,,,masks/mask_001.jpg,,,,,,,,,,,,,,,,,,,,,,,,,,,,,,,,,,,,,,,,,,,0,0,0,0,1,,,,,,,,,,,,,,,,,,,,,,,,,,,,,,,,,,,,,,,,,,,,,,
904982,001,2022-11-20_23h53.39.289,Info_measure_main_exp,2022.2.2,Win32,59.95203837,,,,,,,,,,,,,,,,,,masks/mask_005.jpg,,,,,,,,,,,,,,,,,,,,,,,,,,,,,,,,,,,,,,,,,,,0,1,1,4,1,,,,,,,,,,,,,,,,,,,,,,,,,,,,,,,,,,,,,,,,,,,,,,
904982,001,2022-11-20_23h53.39.289,Info_measure_main_exp,2022.2.2,Win32,59.95203837,,,,,,,,,,,,,,,,,,masks/mask_004.jpg,,,,,,,,,,,,,,,,,,,,,,,,,,,,,,,,,,,,,,,,,,,0,2,2,3,1,,,,,,,,,,,,,,,,,,,,,,,,,,,,,,,,,,,,,,,,,,,,,,
904982,001,2022-11-20_23h53.39.289,Info_measure_main_exp,2022.2.2,Win32,59.95203837,,,,,,,,,,,,,,,,,,masks/mask_002.jpg,,,,,,,,,,,,,,,,,,,,,,,,,,,,,,,,,,,,,,,,,,,0,3,3,1,1,,,,,,,,,,,,,,,,,,,,,,,,,,,,,,,,,,,,,,,,,,,,,,
904982,001,2022-11-20_23h53.39.289,Info_measure_main_exp,2022.2.2,Win32,59.95203837,,,,,,,,,,,,,,,,,,masks/mask_003.jpg,,,,,,,,,,,,,,,,,,,,,,,,,,,,,,,,,,,,,,,,,,,0,4,4,2,1,,,,,,,,,,,,,,,,,,,,,,,,,,,,,,,,,,,,,,,,,,,,,,
904982,001,2022-11-20_23h53.39.289,Info_measure_main_exp,2022.2.2,Win32,59.95203837,,,,,,,,,,,,,,,,,,masks/mask_003.jpg,,,,,,,,,,,,,,,,,,,,,,,,,,,,,,,,,,,,,,,,,,,,,,,,0,0,0,2,1,,,,,,,,,,,,,,,,,,,,,,,,,,,,,,,,,,,,,,,,,
904982,001,2022-11-20_23h53.39.289,Info_measure_main_exp,2022.2.2,Win32,59.95203837,,,,,,,,,,,,,,,,,,masks/mask_001.jpg,,,,,,,,,,,,,,,,,,,,,,,,,,,,,,,,,,,,,,,,,,,,,,,,0,1,1,0,1,,,,,,,,,,,,,,,,,,,,,,,,,,,,,,,,,,,,,,,,,
904982,001,2022-11-20_23h53.39.289,Info_measure_main_exp,2022.2.2,Win32,59.95203837,,,,,,,,,,,,,,,,,,masks/mask_004.jpg,,,,,,,,,,,,,,,,,,,,,,,,,,,,,,,,,,,,,,,,,,,,,,,,0,2,2,3,1,,,,,,,,,,,,,,,,,,,,,,,,,,,,,,,,,,,,,,,,,
904982,001,2022-11-20_23h53.39.289,Info_measure_main_exp,2022.2.2,Win32,59.95203837,,,,,,,,,,,,,,,,,,masks/mask_005.jpg,,,,,,,,,,,,,,,,,,,,,,,,,,,,,,,,,,,,,,,,,,,,,,,,0,3,3,4,1,,,,,,,,,,,,,,,,,,,,,,,,,,,,,,,,,,,,,,,,,
904982,001,2022-11-20_23h53.39.289,Info_measure_main_exp,2022.2.2,Win32,59.95203837,,,,,,,,,,,,,,,,,,masks/mask_002.jpg,,,,,,,,,,,,,,,,,,,,,,,,,,,,,,,,,,,,,,,,,,,,,,,,0,4,4,1,1,,,,,,,,,,,,,,,,,,,,,,,,,,,,,,,,,,,,,,,,,
904982,001,2022-11-20_23h53.39.289,Info_measure_main_exp,2022.2.2,Win32,59.95203837,,,,,,,,,,,,,,,,,,,,,,,,,,,,,,6,0.833,1,,,,,,,,,,,,0,131,5,5,2190,2166,absent_patch/patch0002190.jpg,absent_patch/patch0002166.jpg,,,,,,,,,,,,,,,,,,,,0.059259259,0.015740741,1,0,0,response1disk,20,0.00462963,-0.011111111,1,0,0,center_square,0,19,19,50,1,,,,,,,,,,,,,,,,,,,,,,,
904982,001,2022-11-20_23h53.39.289,Info_measure_main_exp,2022.2.2,Win32,59.95203837,,,,,,,,,,,,,,,,,,masks/mask_002.jpg,,,,,,,,,,,,,,,,,,,,,,,,,,,,,,,,,,,,,,,,,,,0,0,0,1,1,,,,,,,,,,,,,,,,,,,,,,,,,,,,,,,,,,,,,,,,,,,,,,
904982,001,2022-11-20_23h53.39.289,Info_measure_main_exp,2022.2.2,Win32,59.95203837,,,,,,,,,,,,,,,,,,masks/mask_005.jpg,,,,,,,,,,,,,,,,,,,,,,,,,,,,,,,,,,,,,,,,,,,0,1,1,4,1,,,,,,,,,,,,,,,,,,,,,,,,,,,,,,,,,,,,,,,,,,,,,,
904982,001,2022-11-20_23h53.39.289,Info_measure_main_exp,2022.2.2,Win32,59.95203837,,,,,,,,,,,,,,,,,,masks/mask_003.jpg,,,,,,,,,,,,,,,,,,,,,,,,,,,,,,,,,,,,,,,,,,,0,2,2,2,1,,,,,,,,,,,,,,,,,,,,,,,,,,,,,,,,,,,,,,,,,,,,,,
904982,001,2022-11-20_23h53.39.289,Info_measure_main_exp,2022.2.2,Win32,59.95203837,,,,,,,,,,,,,,,,,,masks/mask_004.jpg,,,,,,,,,,,,,,,,,,,,,,,,,,,,,,,,,,,,,,,,,,,0,3,3,3,1,,,,,,,,,,,,,,,,,,,,,,,,,,,,,,,,,,,,,,,,,,,,,,
904982,001,2022-11-20_23h53.39.289,Info_measure_main_exp,2022.2.2,Win32,59.95203837,,,,,,,,,,,,,,,,,,masks/mask_001.jpg,,,,,,,,,,,,,,,,,,,,,,,,,,,,,,,,,,,,,,,,,,,0,4,4,0,1,,,,,,,,,,,,,,,,,,,,,,,,,,,,,,,,,,,,,,,,,,,,,,
904982,001,2022-11-20_23h53.39.289,Info_measure_main_exp,2022.2.2,Win32,59.95203837,,,,,,,,,,,,,,,,,,masks/mask_002.jpg,,,,,,,,,,,,,,,,,,,,,,,,,,,,,,,,,,,,,,,,,,,,,,,,0,0,0,1,1,,,,,,,,,,,,,,,,,,,,,,,,,,,,,,,,,,,,,,,,,
904982,001,2022-11-20_23h53.39.289,Info_measure_main_exp,2022.2.2,Win32,59.95203837,,,,,,,,,,,,,,,,,,masks/mask_005.jpg,,,,,,,,,,,,,,,,,,,,,,,,,,,,,,,,,,,,,,,,,,,,,,,,0,1,1,4,1,,,,,,,,,,,,,,,,,,,,,,,,,,,,,,,,,,,,,,,,,
904982,001,2022-11-20_23h53.39.289,Info_measure_main_exp,2022.2.2,Win32,59.95203837,,,,,,,,,,,,,,,,,,masks/mask_001.jpg,,,,,,,,,,,,,,,,,,,,,,,,,,,,,,,,,,,,,,,,,,,,,,,,0,2,2,0,1,,,,,,,,,,,,,,,,,,,,,,,,,,,,,,,,,,,,,,,,,
904982,001,2022-11-20_23h53.39.289,Info_measure_main_exp,2022.2.2,Win32,59.95203837,,,,,,,,,,,,,,,,,,masks/mask_004.jpg,,,,,,,,,,,,,,,,,,,,,,,,,,,,,,,,,,,,,,,,,,,,,,,,0,3,3,3,1,,,,,,,,,,,,,,,,,,,,,,,,,,,,,,,,,,,,,,,,,
904982,001,2022-11-20_23h53.39.289,Info_measure_main_exp,2022.2.2,Win32,59.95203837,,,,,,,,,,,,,,,,,,masks/mask_003.jpg,,,,,,,,,,,,,,,,,,,,,,,,,,,,,,,,,,,,,,,,,,,,,,,,0,4,4,2,1,,,,,,,,,,,,,,,,,,,,,,,,,,,,,,,,,,,,,,,,,
904982,001,2022-11-20_23h53.39.289,Info_measure_main_exp,2022.2.2,Win32,59.95203837,,,,,,,,,,,,,,,,,,,,,,,,,,,,,,4,0.567,1,,,,,,,,,,,,0,131,5,5,1986,2154,absent_patch/patch0001986.jpg,absent_patch/patch0002154.jpg,,,,,,,,,,,,,,,,,,,,0.026851852,-0.064814815,1,0,0,response3disk,21,0.006481481,-0.00462963,1,0,0,center_square,0,20,20,36,1,,,,,,,,,,,,,,,,,,,,,,,
904982,001,2022-11-20_23h53.39.289,Info_measure_main_exp,2022.2.2,Win32,59.95203837,,,,,,,,,,,,,,,,,,masks/mask_005.jpg,,,,,,,,,,,,,,,,,,,,,,,,,,,,,,,,,,,,,,,,,,,0,0,0,4,1,,,,,,,,,,,,,,,,,,,,,,,,,,,,,,,,,,,,,,,,,,,,,,
904982,001,2022-11-20_23h53.39.289,Info_measure_main_exp,2022.2.2,Win32,59.95203837,,,,,,,,,,,,,,,,,,masks/mask_002.jpg,,,,,,,,,,,,,,,,,,,,,,,,,,,,,,,,,,,,,,,,,,,0,1,1,1,1,,,,,,,,,,,,,,,,,,,,,,,,,,,,,,,,,,,,,,,,,,,,,,
904982,001,2022-11-20_23h53.39.289,Info_measure_main_exp,2022.2.2,Win32,59.95203837,,,,,,,,,,,,,,,,,,masks/mask_001.jpg,,,,,,,,,,,,,,,,,,,,,,,,,,,,,,,,,,,,,,,,,,,0,2,2,0,1,,,,,,,,,,,,,,,,,,,,,,,,,,,,,,,,,,,,,,,,,,,,,,
904982,001,2022-11-20_23h53.39.289,Info_measure_main_exp,2022.2.2,Win32,59.95203837,,,,,,,,,,,,,,,,,,masks/mask_003.jpg,,,,,,,,,,,,,,,,,,,,,,,,,,,,,,,,,,,,,,,,,,,0,3,3,2,1,,,,,,,,,,,,,,,,,,,,,,,,,,,,,,,,,,,,,,,,,,,,,,
904982,001,2022-11-20_23h53.39.289,Info_measure_main_exp,2022.2.2,Win32,59.95203837,,,,,,,,,,,,,,,,,,masks/mask_004.jpg,,,,,,,,,,,,,,,,,,,,,,,,,,,,,,,,,,,,,,,,,,,0,4,4,3,1,,,,,,,,,,,,,,,,,,,,,,,,,,,,,,,,,,,,,,,,,,,,,,
904982,001,2022-11-20_23h53.39.289,Info_measure_main_exp,2022.2.2,Win32,59.95203837,,,,,,,,,,,,,,,,,,masks/mask_002.jpg,,,,,,,,,,,,,,,,,,,,,,,,,,,,,,,,,,,,,,,,,,,,,,,,0,0,0,1,1,,,,,,,,,,,,,,,,,,,,,,,,,,,,,,,,,,,,,,,,,
904982,001,2022-11-20_23h53.39.289,Info_measure_main_exp,2022.2.2,Win32,59.95203837,,,,,,,,,,,,,,,,,,masks/mask_001.jpg,,,,,,,,,,,,,,,,,,,,,,,,,,,,,,,,,,,,,,,,,,,,,,,,0,1,1,0,1,,,,,,,,,,,,,,,,,,,,,,,,,,,,,,,,,,,,,,,,,
904982,001,2022-11-20_23h53.39.289,Info_measure_main_exp,2022.2.2,Win32,59.95203837,,,,,,,,,,,,,,,,,,masks/mask_003.jpg,,,,,,,,,,,,,,,,,,,,,,,,,,,,,,,,,,,,,,,,,,,,,,,,0,2,2,2,1,,,,,,,,,,,,,,,,,,,,,,,,,,,,,,,,,,,,,,,,,
904982,001,2022-11-20_23h53.39.289,Info_measure_main_exp,2022.2.2,Win32,59.95203837,,,,,,,,,,,,,,,,,,masks/mask_005.jpg,,,,,,,,,,,,,,,,,,,,,,,,,,,,,,,,,,,,,,,,,,,,,,,,0,3,3,4,1,,,,,,,,,,,,,,,,,,,,,,,,,,,,,,,,,,,,,,,,,
904982,001,2022-11-20_23h53.39.289,Info_measure_main_exp,2022.2.2,Win32,59.95203837,,,,,,,,,,,,,,,,,,masks/mask_004.jpg,,,,,,,,,,,,,,,,,,,,,,,,,,,,,,,,,,,,,,,,,,,,,,,,0,4,4,3,1,,,,,,,,,,,,,,,,,,,,,,,,,,,,,,,,,,,,,,,,,
904982,001,2022-11-20_23h53.39.289,Info_measure_main_exp,2022.2.2,Win32,59.95203837,,,,,,,,,,,,,,,,,,,,,,,,,,,,,,0,0.483,1,,,,,,,,,,,,0,131,5,5,2178,2178,absent_patch/patch0002178.jpg,absent_patch/patch0002178.jpg,,,,,,,,,,,,,,,,,,,,-0.027777778,0.102777778,1,0,0,response7disk,22,0.001851852,-0.001851852,1,0,0,center_square,0,21,21,98,1,,,,,,,,,,,,,,,,,,,,,,,
904982,001,2022-11-20_23h53.39.289,Info_measure_main_exp,2022.2.2,Win32,59.95203837,,,,,,,,,,,,,,,,,,masks/mask_001.jpg,,,,,,,,,,,,,,,,,,,,,,,,,,,,,,,,,,,,,,,,,,,0,0,0,0,1,,,,,,,,,,,,,,,,,,,,,,,,,,,,,,,,,,,,,,,,,,,,,,
904982,001,2022-11-20_23h53.39.289,Info_measure_main_exp,2022.2.2,Win32,59.95203837,,,,,,,,,,,,,,,,,,masks/mask_003.jpg,,,,,,,,,,,,,,,,,,,,,,,,,,,,,,,,,,,,,,,,,,,0,1,1,2,1,,,,,,,,,,,,,,,,,,,,,,,,,,,,,,,,,,,,,,,,,,,,,,
904982,001,2022-11-20_23h53.39.289,Info_measure_main_exp,2022.2.2,Win32,59.95203837,,,,,,,,,,,,,,,,,,masks/mask_004.jpg,,,,,,,,,,,,,,,,,,,,,,,,,,,,,,,,,,,,,,,,,,,0,2,2,3,1,,,,,,,,,,,,,,,,,,,,,,,,,,,,,,,,,,,,,,,,,,,,,,
904982,001,2022-11-20_23h53.39.289,Info_measure_main_exp,2022.2.2,Win32,59.95203837,,,,,,,,,,,,,,,,,,masks/mask_005.jpg,,,,,,,,,,,,,,,,,,,,,,,,,,,,,,,,,,,,,,,,,,,0,3,3,4,1,,,,,,,,,,,,,,,,,,,,,,,,,,,,,,,,,,,,,,,,,,,,,,
904982,001,2022-11-20_23h53.39.289,Info_measure_main_exp,2022.2.2,Win32,59.95203837,,,,,,,,,,,,,,,,,,masks/mask_002.jpg,,,,,,,,,,,,,,,,,,,,,,,,,,,,,,,,,,,,,,,,,,,0,4,4,1,1,,,,,,,,,,,,,,,,,,,,,,,,,,,,,,,,,,,,,,,,,,,,,,
904982,001,2022-11-20_23h53.39.289,Info_measure_main_exp,2022.2.2,Win32,59.95203837,,,,,,,,,,,,,,,,,,masks/mask_005.jpg,,,,,,,,,,,,,,,,,,,,,,,,,,,,,,,,,,,,,,,,,,,,,,,,0,0,0,4,1,,,,,,,,,,,,,,,,,,,,,,,,,,,,,,,,,,,,,,,,,
904982,001,2022-11-20_23h53.39.289,Info_measure_main_exp,2022.2.2,Win32,59.95203837,,,,,,,,,,,,,,,,,,masks/mask_004.jpg,,,,,,,,,,,,,,,,,,,,,,,,,,,,,,,,,,,,,,,,,,,,,,,,0,1,1,3,1,,,,,,,,,,,,,,,,,,,,,,,,,,,,,,,,,,,,,,,,,
904982,001,2022-11-20_23h53.39.289,Info_measure_main_exp,2022.2.2,Win32,59.95203837,,,,,,,,,,,,,,,,,,masks/mask_003.jpg,,,,,,,,,,,,,,,,,,,,,,,,,,,,,,,,,,,,,,,,,,,,,,,,0,2,2,2,1,,,,,,,,,,,,,,,,,,,,,,,,,,,,,,,,,,,,,,,,,
904982,001,2022-11-20_23h53.39.289,Info_measure_main_exp,2022.2.2,Win32,59.95203837,,,,,,,,,,,,,,,,,,masks/mask_001.jpg,,,,,,,,,,,,,,,,,,,,,,,,,,,,,,,,,,,,,,,,,,,,,,,,0,3,3,0,1,,,,,,,,,,,,,,,,,,,,,,,,,,,,,,,,,,,,,,,,,
904982,001,2022-11-20_23h53.39.289,Info_measure_main_exp,2022.2.2,Win32,59.95203837,,,,,,,,,,,,,,,,,,masks/mask_002.jpg,,,,,,,,,,,,,,,,,,,,,,,,,,,,,,,,,,,,,,,,,,,,,,,,0,4,4,1,1,,,,,,,,,,,,,,,,,,,,,,,,,,,,,,,,,,,,,,,,,
904982,001,2022-11-20_23h53.39.289,Info_measure_main_exp,2022.2.2,Win32,59.95203837,,,,,,,,,,,,,,,,,,,,,,,,,,,,,,0,0.484,1,,,,,,,,,,,,0,131,5,5,2274,2274,absent_patch/patch0002274.jpg,absent_patch/patch0002274.jpg,,,,,,,,,,,,,,,,,,,,-0.042592593,0.101851852,1,0,0,response7disk,23,0.010185185,-0.001851852,1,0,0,center_square,0,22,22,114,1,,,,,,,,,,,,,,,,,,,,,,,
904982,001,2022-11-20_23h53.39.289,Info_measure_main_exp,2022.2.2,Win32,59.95203837,,,,,,,,,,,,,,,,,,masks/mask_005.jpg,,,,,,,,,,,,,,,,,,,,,,,,,,,,,,,,,,,,,,,,,,,0,0,0,4,1,,,,,,,,,,,,,,,,,,,,,,,,,,,,,,,,,,,,,,,,,,,,,,
904982,001,2022-11-20_23h53.39.289,Info_measure_main_exp,2022.2.2,Win32,59.95203837,,,,,,,,,,,,,,,,,,masks/mask_001.jpg,,,,,,,,,,,,,,,,,,,,,,,,,,,,,,,,,,,,,,,,,,,0,1,1,0,1,,,,,,,,,,,,,,,,,,,,,,,,,,,,,,,,,,,,,,,,,,,,,,
904982,001,2022-11-20_23h53.39.289,Info_measure_main_exp,2022.2.2,Win32,59.95203837,,,,,,,,,,,,,,,,,,masks/mask_003.jpg,,,,,,,,,,,,,,,,,,,,,,,,,,,,,,,,,,,,,,,,,,,0,2,2,2,1,,,,,,,,,,,,,,,,,,,,,,,,,,,,,,,,,,,,,,,,,,,,,,
904982,001,2022-11-20_23h53.39.289,Info_measure_main_exp,2022.2.2,Win32,59.95203837,,,,,,,,,,,,,,,,,,masks/mask_004.jpg,,,,,,,,,,,,,,,,,,,,,,,,,,,,,,,,,,,,,,,,,,,0,3,3,3,1,,,,,,,,,,,,,,,,,,,,,,,,,,,,,,,,,,,,,,,,,,,,,,
904982,001,2022-11-20_23h53.39.289,Info_measure_main_exp,2022.2.2,Win32,59.95203837,,,,,,,,,,,,,,,,,,masks/mask_002.jpg,,,,,,,,,,,,,,,,,,,,,,,,,,,,,,,,,,,,,,,,,,,0,4,4,1,1,,,,,,,,,,,,,,,,,,,,,,,,,,,,,,,,,,,,,,,,,,,,,,
904982,001,2022-11-20_23h53.39.289,Info_measure_main_exp,2022.2.2,Win32,59.95203837,,,,,,,,,,,,,,,,,,masks/mask_001.jpg,,,,,,,,,,,,,,,,,,,,,,,,,,,,,,,,,,,,,,,,,,,,,,,,0,0,0,0,1,,,,,,,,,,,,,,,,,,,,,,,,,,,,,,,,,,,,,,,,,
904982,001,2022-11-20_23h53.39.289,Info_measure_main_exp,2022.2.2,Win32,59.95203837,,,,,,,,,,,,,,,,,,masks/mask_002.jpg,,,,,,,,,,,,,,,,,,,,,,,,,,,,,,,,,,,,,,,,,,,,,,,,0,1,1,1,1,,,,,,,,,,,,,,,,,,,,,,,,,,,,,,,,,,,,,,,,,
904982,001,2022-11-20_23h53.39.289,Info_measure_main_exp,2022.2.2,Win32,59.95203837,,,,,,,,,,,,,,,,,,masks/mask_005.jpg,,,,,,,,,,,,,,,,,,,,,,,,,,,,,,,,,,,,,,,,,,,,,,,,0,2,2,4,1,,,,,,,,,,,,,,,,,,,,,,,,,,,,,,,,,,,,,,,,,
904982,001,2022-11-20_23h53.39.289,Info_measure_main_exp,2022.2.2,Win32,59.95203837,,,,,,,,,,,,,,,,,,masks/mask_003.jpg,,,,,,,,,,,,,,,,,,,,,,,,,,,,,,,,,,,,,,,,,,,,,,,,0,3,3,2,1,,,,,,,,,,,,,,,,,,,,,,,,,,,,,,,,,,,,,,,,,
904982,001,2022-11-20_23h53.39.289,Info_measure_main_exp,2022.2.2,Win32,59.95203837,,,,,,,,,,,,,,,,,,masks/mask_004.jpg,,,,,,,,,,,,,,,,,,,,,,,,,,,,,,,,,,,,,,,,,,,,,,,,0,4,4,3,1,,,,,,,,,,,,,,,,,,,,,,,,,,,,,,,,,,,,,,,,,
904982,001,2022-11-20_23h53.39.289,Info_measure_main_exp,2022.2.2,Win32,59.95203837,,,,,,,,,,,,,,,,,,,,,,,,,,,,,,6,1.799,1,,,,,,,,,,,,0,131,5,5,2274,2082,absent_patch/patch0002274.jpg,absent_patch/patch0002082.jpg,,,,,,,,,,,,,,,,,,,,0.099074074,0.037962963,1,0,0,response1disk,24,0.00462963,-0.005555556,1,0,0,center_square,0,23,23,100,1,,,,,,,,,,,,,,,,,,,,,,,
904982,001,2022-11-20_23h53.39.289,Info_measure_main_exp,2022.2.2,Win32,59.95203837,,,,,,,,,,,,,,,,,,masks/mask_005.jpg,,,,,,,,,,,,,,,,,,,,,,,,,,,,,,,,,,,,,,,,,,,0,0,0,4,1,,,,,,,,,,,,,,,,,,,,,,,,,,,,,,,,,,,,,,,,,,,,,,
904982,001,2022-11-20_23h53.39.289,Info_measure_main_exp,2022.2.2,Win32,59.95203837,,,,,,,,,,,,,,,,,,masks/mask_004.jpg,,,,,,,,,,,,,,,,,,,,,,,,,,,,,,,,,,,,,,,,,,,0,1,1,3,1,,,,,,,,,,,,,,,,,,,,,,,,,,,,,,,,,,,,,,,,,,,,,,
904982,001,2022-11-20_23h53.39.289,Info_measure_main_exp,2022.2.2,Win32,59.95203837,,,,,,,,,,,,,,,,,,masks/mask_003.jpg,,,,,,,,,,,,,,,,,,,,,,,,,,,,,,,,,,,,,,,,,,,0,2,2,2,1,,,,,,,,,,,,,,,,,,,,,,,,,,,,,,,,,,,,,,,,,,,,,,
904982,001,2022-11-20_23h53.39.289,Info_measure_main_exp,2022.2.2,Win32,59.95203837,,,,,,,,,,,,,,,,,,masks/mask_001.jpg,,,,,,,,,,,,,,,,,,,,,,,,,,,,,,,,,,,,,,,,,,,0,3,3,0,1,,,,,,,,,,,,,,,,,,,,,,,,,,,,,,,,,,,,,,,,,,,,,,
904982,001,2022-11-20_23h53.39.289,Info_measure_main_exp,2022.2.2,Win32,59.95203837,,,,,,,,,,,,,,,,,,masks/mask_002.jpg,,,,,,,,,,,,,,,,,,,,,,,,,,,,,,,,,,,,,,,,,,,0,4,4,1,1,,,,,,,,,,,,,,,,,,,,,,,,,,,,,,,,,,,,,,,,,,,,,,
904982,001,2022-11-20_23h53.39.289,Info_measure_main_exp,2022.2.2,Win32,59.95203837,,,,,,,,,,,,,,,,,,masks/mask_003.jpg,,,,,,,,,,,,,,,,,,,,,,,,,,,,,,,,,,,,,,,,,,,,,,,,0,0,0,2,1,,,,,,,,,,,,,,,,,,,,,,,,,,,,,,,,,,,,,,,,,
904982,001,2022-11-20_23h53.39.289,Info_measure_main_exp,2022.2.2,Win32,59.95203837,,,,,,,,,,,,,,,,,,masks/mask_001.jpg,,,,,,,,,,,,,,,,,,,,,,,,,,,,,,,,,,,,,,,,,,,,,,,,0,1,1,0,1,,,,,,,,,,,,,,,,,,,,,,,,,,,,,,,,,,,,,,,,,
904982,001,2022-11-20_23h53.39.289,Info_measure_main_exp,2022.2.2,Win32,59.95203837,,,,,,,,,,,,,,,,,,masks/mask_004.jpg,,,,,,,,,,,,,,,,,,,,,,,,,,,,,,,,,,,,,,,,,,,,,,,,0,2,2,3,1,,,,,,,,,,,,,,,,,,,,,,,,,,,,,,,,,,,,,,,,,
904982,001,2022-11-20_23h53.39.289,Info_measure_main_exp,2022.2.2,Win32,59.95203837,,,,,,,,,,,,,,,,,,masks/mask_005.jpg,,,,,,,,,,,,,,,,,,,,,,,,,,,,,,,,,,,,,,,,,,,,,,,,0,3,3,4,1,,,,,,,,,,,,,,,,,,,,,,,,,,,,,,,,,,,,,,,,,
904982,001,2022-11-20_23h53.39.289,Info_measure_main_exp,2022.2.2,Win32,59.95203837,,,,,,,,,,,,,,,,,,masks/mask_002.jpg,,,,,,,,,,,,,,,,,,,,,,,,,,,,,,,,,,,,,,,,,,,,,,,,0,4,4,1,1,,,,,,,,,,,,,,,,,,,,,,,,,,,,,,,,,,,,,,,,,
904982,001,2022-11-20_23h53.39.289,Info_measure_main_exp,2022.2.2,Win32,59.95203837,,,,,,,,,,,,,,,,,,,,,,,,,,,,,,5,0.866,1,,,,,,,,,,,,0,131,5,5,2082,2298,absent_patch/patch0002082.jpg,absent_patch/patch0002298.jpg,,,,,,,,,,,,,,,,,,,,0.062962963,-0.02962963,1,0,0,response3disk,25,0.005555556,-0.000925926,1,0,0,center_square,0,24,24,107,1,,,,,,,,,,,,,,,,,,,,,,,
904982,001,2022-11-20_23h53.39.289,Info_measure_main_exp,2022.2.2,Win32,59.95203837,,,,,,,,,,,,,,,,,,masks/mask_003.jpg,,,,,,,,,,,,,,,,,,,,,,,,,,,,,,,,,,,,,,,,,,,0,0,0,2,1,,,,,,,,,,,,,,,,,,,,,,,,,,,,,,,,,,,,,,,,,,,,,,
904982,001,2022-11-20_23h53.39.289,Info_measure_main_exp,2022.2.2,Win32,59.95203837,,,,,,,,,,,,,,,,,,masks/mask_001.jpg,,,,,,,,,,,,,,,,,,,,,,,,,,,,,,,,,,,,,,,,,,,0,1,1,0,1,,,,,,,,,,,,,,,,,,,,,,,,,,,,,,,,,,,,,,,,,,,,,,
904982,001,2022-11-20_23h53.39.289,Info_measure_main_exp,2022.2.2,Win32,59.95203837,,,,,,,,,,,,,,,,,,masks/mask_002.jpg,,,,,,,,,,,,,,,,,,,,,,,,,,,,,,,,,,,,,,,,,,,0,2,2,1,1,,,,,,,,,,,,,,,,,,,,,,,,,,,,,,,,,,,,,,,,,,,,,,
904982,001,2022-11-20_23h53.39.289,Info_measure_main_exp,2022.2.2,Win32,59.95203837,,,,,,,,,,,,,,,,,,masks/mask_004.jpg,,,,,,,,,,,,,,,,,,,,,,,,,,,,,,,,,,,,,,,,,,,0,3,3,3,1,,,,,,,,,,,,,,,,,,,,,,,,,,,,,,,,,,,,,,,,,,,,,,
904982,001,2022-11-20_23h53.39.289,Info_measure_main_exp,2022.2.2,Win32,59.95203837,,,,,,,,,,,,,,,,,,masks/mask_005.jpg,,,,,,,,,,,,,,,,,,,,,,,,,,,,,,,,,,,,,,,,,,,0,4,4,4,1,,,,,,,,,,,,,,,,,,,,,,,,,,,,,,,,,,,,,,,,,,,,,,
904982,001,2022-11-20_23h53.39.289,Info_measure_main_exp,2022.2.2,Win32,59.95203837,,,,,,,,,,,,,,,,,,masks/mask_002.jpg,,,,,,,,,,,,,,,,,,,,,,,,,,,,,,,,,,,,,,,,,,,,,,,,0,0,0,1,1,,,,,,,,,,,,,,,,,,,,,,,,,,,,,,,,,,,,,,,,,
904982,001,2022-11-20_23h53.39.289,Info_measure_main_exp,2022.2.2,Win32,59.95203837,,,,,,,,,,,,,,,,,,masks/mask_004.jpg,,,,,,,,,,,,,,,,,,,,,,,,,,,,,,,,,,,,,,,,,,,,,,,,0,1,1,3,1,,,,,,,,,,,,,,,,,,,,,,,,,,,,,,,,,,,,,,,,,
904982,001,2022-11-20_23h53.39.289,Info_measure_main_exp,2022.2.2,Win32,59.95203837,,,,,,,,,,,,,,,,,,masks/mask_003.jpg,,,,,,,,,,,,,,,,,,,,,,,,,,,,,,,,,,,,,,,,,,,,,,,,0,2,2,2,1,,,,,,,,,,,,,,,,,,,,,,,,,,,,,,,,,,,,,,,,,
904982,001,2022-11-20_23h53.39.289,Info_measure_main_exp,2022.2.2,Win32,59.95203837,,,,,,,,,,,,,,,,,,masks/mask_001.jpg,,,,,,,,,,,,,,,,,,,,,,,,,,,,,,,,,,,,,,,,,,,,,,,,0,3,3,0,1,,,,,,,,,,,,,,,,,,,,,,,,,,,,,,,,,,,,,,,,,
904982,001,2022-11-20_23h53.39.289,Info_measure_main_exp,2022.2.2,Win32,59.95203837,,,,,,,,,,,,,,,,,,masks/mask_005.jpg,,,,,,,,,,,,,,,,,,,,,,,,,,,,,,,,,,,,,,,,,,,,,,,,0,4,4,4,1,,,,,,,,,,,,,,,,,,,,,,,,,,,,,,,,,,,,,,,,,
904982,001,2022-11-20_23h53.39.289,Info_measure_main_exp,2022.2.2,Win32,59.95203837,,,,,,,,,,,,,,,,,,,,,,,,,,,,,,6,0.783,1,,,,,,,,,,,,0,131,5,5,2190,1950,absent_patch/patch0002190.jpg,absent_patch/patch0001950.jpg,,,,,,,,,,,,,,,,,,,,0.067592593,0.039814815,1,0,0,response1disk,26,0.001851852,0.001851852,1,0,0,center_square,0,25,25,73,1,,,,,,,,,,,,,,,,,,,,,,,
904982,001,2022-11-20_23h53.39.289,Info_measure_main_exp,2022.2.2,Win32,59.95203837,,,,,,,,,,,,,,,,,,masks/mask_001.jpg,,,,,,,,,,,,,,,,,,,,,,,,,,,,,,,,,,,,,,,,,,,0,0,0,0,1,,,,,,,,,,,,,,,,,,,,,,,,,,,,,,,,,,,,,,,,,,,,,,
904982,001,2022-11-20_23h53.39.289,Info_measure_main_exp,2022.2.2,Win32,59.95203837,,,,,,,,,,,,,,,,,,masks/mask_004.jpg,,,,,,,,,,,,,,,,,,,,,,,,,,,,,,,,,,,,,,,,,,,0,1,1,3,1,,,,,,,,,,,,,,,,,,,,,,,,,,,,,,,,,,,,,,,,,,,,,,
904982,001,2022-11-20_23h53.39.289,Info_measure_main_exp,2022.2.2,Win32,59.95203837,,,,,,,,,,,,,,,,,,masks/mask_003.jpg,,,,,,,,,,,,,,,,,,,,,,,,,,,,,,,,,,,,,,,,,,,0,2,2,2,1,,,,,,,,,,,,,,,,,,,,,,,,,,,,,,,,,,,,,,,,,,,,,,
904982,001,2022-11-20_23h53.39.289,Info_measure_main_exp,2022.2.2,Win32,59.95203837,,,,,,,,,,,,,,,,,,masks/mask_002.jpg,,,,,,,,,,,,,,,,,,,,,,,,,,,,,,,,,,,,,,,,,,,0,3,3,1,1,,,,,,,,,,,,,,,,,,,,,,,,,,,,,,,,,,,,,,,,,,,,,,
904982,001,2022-11-20_23h53.39.289,Info_measure_main_exp,2022.2.2,Win32,59.95203837,,,,,,,,,,,,,,,,,,masks/mask_005.jpg,,,,,,,,,,,,,,,,,,,,,,,,,,,,,,,,,,,,,,,,,,,0,4,4,4,1,,,,,,,,,,,,,,,,,,,,,,,,,,,,,,,,,,,,,,,,,,,,,,
904982,001,2022-11-20_23h53.39.289,Info_measure_main_exp,2022.2.2,Win32,59.95203837,,,,,,,,,,,,,,,,,,masks/mask_004.jpg,,,,,,,,,,,,,,,,,,,,,,,,,,,,,,,,,,,,,,,,,,,,,,,,0,0,0,3,1,,,,,,,,,,,,,,,,,,,,,,,,,,,,,,,,,,,,,,,,,
904982,001,2022-11-20_23h53.39.289,Info_measure_main_exp,2022.2.2,Win32,59.95203837,,,,,,,,,,,,,,,,,,masks/mask_002.jpg,,,,,,,,,,,,,,,,,,,,,,,,,,,,,,,,,,,,,,,,,,,,,,,,0,1,1,1,1,,,,,,,,,,,,,,,,,,,,,,,,,,,,,,,,,,,,,,,,,
904982,001,2022-11-20_23h53.39.289,Info_measure_main_exp,2022.2.2,Win32,59.95203837,,,,,,,,,,,,,,,,,,masks/mask_003.jpg,,,,,,,,,,,,,,,,,,,,,,,,,,,,,,,,,,,,,,,,,,,,,,,,0,2,2,2,1,,,,,,,,,,,,,,,,,,,,,,,,,,,,,,,,,,,,,,,,,
904982,001,2022-11-20_23h53.39.289,Info_measure_main_exp,2022.2.2,Win32,59.95203837,,,,,,,,,,,,,,,,,,masks/mask_001.jpg,,,,,,,,,,,,,,,,,,,,,,,,,,,,,,,,,,,,,,,,,,,,,,,,0,3,3,0,1,,,,,,,,,,,,,,,,,,,,,,,,,,,,,,,,,,,,,,,,,
904982,001,2022-11-20_23h53.39.289,Info_measure_main_exp,2022.2.2,Win32,59.95203837,,,,,,,,,,,,,,,,,,masks/mask_005.jpg,,,,,,,,,,,,,,,,,,,,,,,,,,,,,,,,,,,,,,,,,,,,,,,,0,4,4,4,1,,,,,,,,,,,,,,,,,,,,,,,,,,,,,,,,,,,,,,,,,
904982,001,2022-11-20_23h53.39.289,Info_measure_main_exp,2022.2.2,Win32,59.95203837,,,,,,,,,,,,,,,,,,,,,,,,,,,,,,4,0.984,1,,,,,,,,,,,,0,131,5,5,2274,2154,absent_patch/patch0002274.jpg,absent_patch/patch0002154.jpg,,,,,,,,,,,,,,,,,,,,0.017592593,-0.087037037,1,0,0,response3disk,27,0.013888889,0.002777778,1,0,0,center_square,0,26,26,23,1,,,,,,,,,,,,,,,,,,,,,,,
904982,001,2022-11-20_23h53.39.289,Info_measure_main_exp,2022.2.2,Win32,59.95203837,,,,,,,,,,,,,,,,,,masks/mask_003.jpg,,,,,,,,,,,,,,,,,,,,,,,,,,,,,,,,,,,,,,,,,,,0,0,0,2,1,,,,,,,,,,,,,,,,,,,,,,,,,,,,,,,,,,,,,,,,,,,,,,
904982,001,2022-11-20_23h53.39.289,Info_measure_main_exp,2022.2.2,Win32,59.95203837,,,,,,,,,,,,,,,,,,masks/mask_002.jpg,,,,,,,,,,,,,,,,,,,,,,,,,,,,,,,,,,,,,,,,,,,0,1,1,1,1,,,,,,,,,,,,,,,,,,,,,,,,,,,,,,,,,,,,,,,,,,,,,,
904982,001,2022-11-20_23h53.39.289,Info_measure_main_exp,2022.2.2,Win32,59.95203837,,,,,,,,,,,,,,,,,,masks/mask_001.jpg,,,,,,,,,,,,,,,,,,,,,,,,,,,,,,,,,,,,,,,,,,,0,2,2,0,1,,,,,,,,,,,,,,,,,,,,,,,,,,,,,,,,,,,,,,,,,,,,,,
904982,001,2022-11-20_23h53.39.289,Info_measure_main_exp,2022.2.2,Win32,59.95203837,,,,,,,,,,,,,,,,,,masks/mask_004.jpg,,,,,,,,,,,,,,,,,,,,,,,,,,,,,,,,,,,,,,,,,,,0,3,3,3,1,,,,,,,,,,,,,,,,,,,,,,,,,,,,,,,,,,,,,,,,,,,,,,
904982,001,2022-11-20_23h53.39.289,Info_measure_main_exp,2022.2.2,Win32,59.95203837,,,,,,,,,,,,,,,,,,masks/mask_005.jpg,,,,,,,,,,,,,,,,,,,,,,,,,,,,,,,,,,,,,,,,,,,0,4,4,4,1,,,,,,,,,,,,,,,,,,,,,,,,,,,,,,,,,,,,,,,,,,,,,,
904982,001,2022-11-20_23h53.39.289,Info_measure_main_exp,2022.2.2,Win32,59.95203837,,,,,,,,,,,,,,,,,,masks/mask_004.jpg,,,,,,,,,,,,,,,,,,,,,,,,,,,,,,,,,,,,,,,,,,,,,,,,0,0,0,3,1,,,,,,,,,,,,,,,,,,,,,,,,,,,,,,,,,,,,,,,,,
904982,001,2022-11-20_23h53.39.289,Info_measure_main_exp,2022.2.2,Win32,59.95203837,,,,,,,,,,,,,,,,,,masks/mask_001.jpg,,,,,,,,,,,,,,,,,,,,,,,,,,,,,,,,,,,,,,,,,,,,,,,,0,1,1,0,1,,,,,,,,,,,,,,,,,,,,,,,,,,,,,,,,,,,,,,,,,
904982,001,2022-11-20_23h53.39.289,Info_measure_main_exp,2022.2.2,Win32,59.95203837,,,,,,,,,,,,,,,,,,masks/mask_002.jpg,,,,,,,,,,,,,,,,,,,,,,,,,,,,,,,,,,,,,,,,,,,,,,,,0,2,2,1,1,,,,,,,,,,,,,,,,,,,,,,,,,,,,,,,,,,,,,,,,,
904982,001,2022-11-20_23h53.39.289,Info_measure_main_exp,2022.2.2,Win32,59.95203837,,,,,,,,,,,,,,,,,,masks/mask_003.jpg,,,,,,,,,,,,,,,,,,,,,,,,,,,,,,,,,,,,,,,,,,,,,,,,0,3,3,2,1,,,,,,,,,,,,,,,,,,,,,,,,,,,,,,,,,,,,,,,,,
904982,001,2022-11-20_23h53.39.289,Info_measure_main_exp,2022.2.2,Win32,59.95203837,,,,,,,,,,,,,,,,,,masks/mask_005.jpg,,,,,,,,,,,,,,,,,,,,,,,,,,,,,,,,,,,,,,,,,,,,,,,,0,4,4,4,1,,,,,,,,,,,,,,,,,,,,,,,,,,,,,,,,,,,,,,,,,
904982,001,2022-11-20_23h53.39.289,Info_measure_main_exp,2022.2.2,Win32,59.95203837,,,,,,,,,,,,,,,,,,,,,,,,,,,,,,0,0.617,1,,,,,,,,,,,,0,131,5,5,2154,2154,absent_patch/patch0002154.jpg,absent_patch/patch0002154.jpg,,,,,,,,,,,,,,,,,,,,-0.049074074,0.153703704,1,0,0,response7disk,28,-0.005555556,-0.006481481,1,0,0,center_square,0,27,27,89,1,,,,,,,,,,,,,,,,,,,,,,,
904982,001,2022-11-20_23h53.39.289,Info_measure_main_exp,2022.2.2,Win32,59.95203837,,,,,,,,,,,,,,,,,,masks/mask_005.jpg,,,,,,,,,,,,,,,,,,,,,,,,,,,,,,,,,,,,,,,,,,,0,0,0,4,1,,,,,,,,,,,,,,,,,,,,,,,,,,,,,,,,,,,,,,,,,,,,,,
904982,001,2022-11-20_23h53.39.289,Info_measure_main_exp,2022.2.2,Win32,59.95203837,,,,,,,,,,,,,,,,,,masks/mask_003.jpg,,,,,,,,,,,,,,,,,,,,,,,,,,,,,,,,,,,,,,,,,,,0,1,1,2,1,,,,,,,,,,,,,,,,,,,,,,,,,,,,,,,,,,,,,,,,,,,,,,
904982,001,2022-11-20_23h53.39.289,Info_measure_main_exp,2022.2.2,Win32,59.95203837,,,,,,,,,,,,,,,,,,masks/mask_002.jpg,,,,,,,,,,,,,,,,,,,,,,,,,,,,,,,,,,,,,,,,,,,0,2,2,1,1,,,,,,,,,,,,,,,,,,,,,,,,,,,,,,,,,,,,,,,,,,,,,,
904982,001,2022-11-20_23h53.39.289,Info_measure_main_exp,2022.2.2,Win32,59.95203837,,,,,,,,,,,,,,,,,,masks/mask_001.jpg,,,,,,,,,,,,,,,,,,,,,,,,,,,,,,,,,,,,,,,,,,,0,3,3,0,1,,,,,,,,,,,,,,,,,,,,,,,,,,,,,,,,,,,,,,,,,,,,,,
904982,001,2022-11-20_23h53.39.289,Info_measure_main_exp,2022.2.2,Win32,59.95203837,,,,,,,,,,,,,,,,,,masks/mask_004.jpg,,,,,,,,,,,,,,,,,,,,,,,,,,,,,,,,,,,,,,,,,,,0,4,4,3,1,,,,,,,,,,,,,,,,,,,,,,,,,,,,,,,,,,,,,,,,,,,,,,
904982,001,2022-11-20_23h53.39.289,Info_measure_main_exp,2022.2.2,Win32,59.95203837,,,,,,,,,,,,,,,,,,masks/mask_004.jpg,,,,,,,,,,,,,,,,,,,,,,,,,,,,,,,,,,,,,,,,,,,,,,,,0,0,0,3,1,,,,,,,,,,,,,,,,,,,,,,,,,,,,,,,,,,,,,,,,,
904982,001,2022-11-20_23h53.39.289,Info_measure_main_exp,2022.2.2,Win32,59.95203837,,,,,,,,,,,,,,,,,,masks/mask_002.jpg,,,,,,,,,,,,,,,,,,,,,,,,,,,,,,,,,,,,,,,,,,,,,,,,0,1,1,1,1,,,,,,,,,,,,,,,,,,,,,,,,,,,,,,,,,,,,,,,,,
904982,001,2022-11-20_23h53.39.289,Info_measure_main_exp,2022.2.2,Win32,59.95203837,,,,,,,,,,,,,,,,,,masks/mask_001.jpg,,,,,,,,,,,,,,,,,,,,,,,,,,,,,,,,,,,,,,,,,,,,,,,,0,2,2,0,1,,,,,,,,,,,,,,,,,,,,,,,,,,,,,,,,,,,,,,,,,
904982,001,2022-11-20_23h53.39.289,Info_measure_main_exp,2022.2.2,Win32,59.95203837,,,,,,,,,,,,,,,,,,masks/mask_003.jpg,,,,,,,,,,,,,,,,,,,,,,,,,,,,,,,,,,,,,,,,,,,,,,,,0,3,3,2,1,,,,,,,,,,,,,,,,,,,,,,,,,,,,,,,,,,,,,,,,,
904982,001,2022-11-20_23h53.39.289,Info_measure_main_exp,2022.2.2,Win32,59.95203837,,,,,,,,,,,,,,,,,,masks/mask_005.jpg,,,,,,,,,,,,,,,,,,,,,,,,,,,,,,,,,,,,,,,,,,,,,,,,0,4,4,4,1,,,,,,,,,,,,,,,,,,,,,,,,,,,,,,,,,,,,,,,,,
904982,001,2022-11-20_23h53.39.289,Info_measure_main_exp,2022.2.2,Win32,59.95203837,,,,,,,,,,,,,,,,,,,,,,,,,,,,,,3,0.684,1,,,,,,,,,,,,0,131,5,5,2142,2082,absent_patch/patch0002142.jpg,absent_patch/patch0002082.jpg,,,,,,,,,,,,,,,,,,,,-0.040740741,-0.093518519,1,0,0,response5disk,29,-0.000925926,-0.000925926,1,0,0,center_square,0,28,28,88,1,,,,,,,,,,,,,,,,,,,,,,,
904982,001,2022-11-20_23h53.39.289,Info_measure_main_exp,2022.2.2,Win32,59.95203837,,,,,,,,,,,,,,,,,,masks/mask_001.jpg,,,,,,,,,,,,,,,,,,,,,,,,,,,,,,,,,,,,,,,,,,,0,0,0,0,1,,,,,,,,,,,,,,,,,,,,,,,,,,,,,,,,,,,,,,,,,,,,,,
904982,001,2022-11-20_23h53.39.289,Info_measure_main_exp,2022.2.2,Win32,59.95203837,,,,,,,,,,,,,,,,,,masks/mask_005.jpg,,,,,,,,,,,,,,,,,,,,,,,,,,,,,,,,,,,,,,,,,,,0,1,1,4,1,,,,,,,,,,,,,,,,,,,,,,,,,,,,,,,,,,,,,,,,,,,,,,
904982,001,2022-11-20_23h53.39.289,Info_measure_main_exp,2022.2.2,Win32,59.95203837,,,,,,,,,,,,,,,,,,masks/mask_003.jpg,,,,,,,,,,,,,,,,,,,,,,,,,,,,,,,,,,,,,,,,,,,0,2,2,2,1,,,,,,,,,,,,,,,,,,,,,,,,,,,,,,,,,,,,,,,,,,,,,,
904982,001,2022-11-20_23h53.39.289,Info_measure_main_exp,2022.2.2,Win32,59.95203837,,,,,,,,,,,,,,,,,,masks/mask_004.jpg,,,,,,,,,,,,,,,,,,,,,,,,,,,,,,,,,,,,,,,,,,,0,3,3,3,1,,,,,,,,,,,,,,,,,,,,,,,,,,,,,,,,,,,,,,,,,,,,,,
904982,001,2022-11-20_23h53.39.289,Info_measure_main_exp,2022.2.2,Win32,59.95203837,,,,,,,,,,,,,,,,,,masks/mask_002.jpg,,,,,,,,,,,,,,,,,,,,,,,,,,,,,,,,,,,,,,,,,,,0,4,4,1,1,,,,,,,,,,,,,,,,,,,,,,,,,,,,,,,,,,,,,,,,,,,,,,
904982,001,2022-11-20_23h53.39.289,Info_measure_main_exp,2022.2.2,Win32,59.95203837,,,,,,,,,,,,,,,,,,masks/mask_005.jpg,,,,,,,,,,,,,,,,,,,,,,,,,,,,,,,,,,,,,,,,,,,,,,,,0,0,0,4,1,,,,,,,,,,,,,,,,,,,,,,,,,,,,,,,,,,,,,,,,,
904982,001,2022-11-20_23h53.39.289,Info_measure_main_exp,2022.2.2,Win32,59.95203837,,,,,,,,,,,,,,,,,,masks/mask_004.jpg,,,,,,,,,,,,,,,,,,,,,,,,,,,,,,,,,,,,,,,,,,,,,,,,0,1,1,3,1,,,,,,,,,,,,,,,,,,,,,,,,,,,,,,,,,,,,,,,,,
904982,001,2022-11-20_23h53.39.289,Info_measure_main_exp,2022.2.2,Win32,59.95203837,,,,,,,,,,,,,,,,,,masks/mask_001.jpg,,,,,,,,,,,,,,,,,,,,,,,,,,,,,,,,,,,,,,,,,,,,,,,,0,2,2,0,1,,,,,,,,,,,,,,,,,,,,,,,,,,,,,,,,,,,,,,,,,
904982,001,2022-11-20_23h53.39.289,Info_measure_main_exp,2022.2.2,Win32,59.95203837,,,,,,,,,,,,,,,,,,masks/mask_003.jpg,,,,,,,,,,,,,,,,,,,,,,,,,,,,,,,,,,,,,,,,,,,,,,,,0,3,3,2,1,,,,,,,,,,,,,,,,,,,,,,,,,,,,,,,,,,,,,,,,,
904982,001,2022-11-20_23h53.39.289,Info_measure_main_exp,2022.2.2,Win32,59.95203837,,,,,,,,,,,,,,,,,,masks/mask_002.jpg,,,,,,,,,,,,,,,,,,,,,,,,,,,,,,,,,,,,,,,,,,,,,,,,0,4,4,1,1,,,,,,,,,,,,,,,,,,,,,,,,,,,,,,,,,,,,,,,,,
904982,001,2022-11-20_23h53.39.289,Info_measure_main_exp,2022.2.2,Win32,59.95203837,,,,,,,,,,,,,,,,,,,,,,,,,,,,,,6,0.55,1,,,,,,,,,,,,0,131,5,5,2298,1986,absent_patch/patch0002298.jpg,absent_patch/patch0001986.jpg,,,,,,,,,,,,,,,,,,,,0.09537037,0.030555556,1,0,0,response1disk,30,0.008333333,-0.007407407,1,0,0,center_square,0,29,29,32,1,,,,,,,,,,,,,,,,,,,,,,,
904982,001,2022-11-20_23h53.39.289,Info_measure_main_exp,2022.2.2,Win32,59.95203837,,,,,,,,,,,,,,,,,,masks/mask_001.jpg,,,,,,,,,,,,,,,,,,,,,,,,,,,,,,,,,,,,,,,,,,,0,0,0,0,1,,,,,,,,,,,,,,,,,,,,,,,,,,,,,,,,,,,,,,,,,,,,,,
904982,001,2022-11-20_23h53.39.289,Info_measure_main_exp,2022.2.2,Win32,59.95203837,,,,,,,,,,,,,,,,,,masks/mask_003.jpg,,,,,,,,,,,,,,,,,,,,,,,,,,,,,,,,,,,,,,,,,,,0,1,1,2,1,,,,,,,,,,,,,,,,,,,,,,,,,,,,,,,,,,,,,,,,,,,,,,
904982,001,2022-11-20_23h53.39.289,Info_measure_main_exp,2022.2.2,Win32,59.95203837,,,,,,,,,,,,,,,,,,masks/mask_004.jpg,,,,,,,,,,,,,,,,,,,,,,,,,,,,,,,,,,,,,,,,,,,0,2,2,3,1,,,,,,,,,,,,,,,,,,,,,,,,,,,,,,,,,,,,,,,,,,,,,,
904982,001,2022-11-20_23h53.39.289,Info_measure_main_exp,2022.2.2,Win32,59.95203837,,,,,,,,,,,,,,,,,,masks/mask_005.jpg,,,,,,,,,,,,,,,,,,,,,,,,,,,,,,,,,,,,,,,,,,,0,3,3,4,1,,,,,,,,,,,,,,,,,,,,,,,,,,,,,,,,,,,,,,,,,,,,,,
904982,001,2022-11-20_23h53.39.289,Info_measure_main_exp,2022.2.2,Win32,59.95203837,,,,,,,,,,,,,,,,,,masks/mask_002.jpg,,,,,,,,,,,,,,,,,,,,,,,,,,,,,,,,,,,,,,,,,,,0,4,4,1,1,,,,,,,,,,,,,,,,,,,,,,,,,,,,,,,,,,,,,,,,,,,,,,
904982,001,2022-11-20_23h53.39.289,Info_measure_main_exp,2022.2.2,Win32,59.95203837,,,,,,,,,,,,,,,,,,masks/mask_005.jpg,,,,,,,,,,,,,,,,,,,,,,,,,,,,,,,,,,,,,,,,,,,,,,,,0,0,0,4,1,,,,,,,,,,,,,,,,,,,,,,,,,,,,,,,,,,,,,,,,,
904982,001,2022-11-20_23h53.39.289,Info_measure_main_exp,2022.2.2,Win32,59.95203837,,,,,,,,,,,,,,,,,,masks/mask_003.jpg,,,,,,,,,,,,,,,,,,,,,,,,,,,,,,,,,,,,,,,,,,,,,,,,0,1,1,2,1,,,,,,,,,,,,,,,,,,,,,,,,,,,,,,,,,,,,,,,,,
904982,001,2022-11-20_23h53.39.289,Info_measure_main_exp,2022.2.2,Win32,59.95203837,,,,,,,,,,,,,,,,,,masks/mask_004.jpg,,,,,,,,,,,,,,,,,,,,,,,,,,,,,,,,,,,,,,,,,,,,,,,,0,2,2,3,1,,,,,,,,,,,,,,,,,,,,,,,,,,,,,,,,,,,,,,,,,
904982,001,2022-11-20_23h53.39.289,Info_measure_main_exp,2022.2.2,Win32,59.95203837,,,,,,,,,,,,,,,,,,masks/mask_001.jpg,,,,,,,,,,,,,,,,,,,,,,,,,,,,,,,,,,,,,,,,,,,,,,,,0,3,3,0,1,,,,,,,,,,,,,,,,,,,,,,,,,,,,,,,,,,,,,,,,,
904982,001,2022-11-20_23h53.39.289,Info_measure_main_exp,2022.2.2,Win32,59.95203837,,,,,,,,,,,,,,,,,,masks/mask_002.jpg,,,,,,,,,,,,,,,,,,,,,,,,,,,,,,,,,,,,,,,,,,,,,,,,0,4,4,1,1,,,,,,,,,,,,,,,,,,,,,,,,,,,,,,,,,,,,,,,,,
904982,001,2022-11-20_23h53.39.289,Info_measure_main_exp,2022.2.2,Win32,59.95203837,,,,,,,,,,,,,,,,,,,,,,,,,,,,,,3,0.868,1,,,,,,,,,,,,0,131,5,5,2250,1950,absent_patch/patch0002250.jpg,absent_patch/patch0001950.jpg,,,,,,,,,,,,,,,,,,,,-0.021296296,-0.094444444,1,0,0,response5disk,31,0.008333333,-0.008333333,1,0,0,center_square,0,30,30,16,1,,,,,,,,,,,,,,,,,,,,,,,
904982,001,2022-11-20_23h53.39.289,Info_measure_main_exp,2022.2.2,Win32,59.95203837,,,,,,,,,,,,,,,,,,masks/mask_002.jpg,,,,,,,,,,,,,,,,,,,,,,,,,,,,,,,,,,,,,,,,,,,0,0,0,1,1,,,,,,,,,,,,,,,,,,,,,,,,,,,,,,,,,,,,,,,,,,,,,,
904982,001,2022-11-20_23h53.39.289,Info_measure_main_exp,2022.2.2,Win32,59.95203837,,,,,,,,,,,,,,,,,,masks/mask_001.jpg,,,,,,,,,,,,,,,,,,,,,,,,,,,,,,,,,,,,,,,,,,,0,1,1,0,1,,,,,,,,,,,,,,,,,,,,,,,,,,,,,,,,,,,,,,,,,,,,,,
904982,001,2022-11-20_23h53.39.289,Info_measure_main_exp,2022.2.2,Win32,59.95203837,,,,,,,,,,,,,,,,,,masks/mask_004.jpg,,,,,,,,,,,,,,,,,,,,,,,,,,,,,,,,,,,,,,,,,,,0,2,2,3,1,,,,,,,,,,,,,,,,,,,,,,,,,,,,,,,,,,,,,,,,,,,,,,
904982,001,2022-11-20_23h53.39.289,Info_measure_main_exp,2022.2.2,Win32,59.95203837,,,,,,,,,,,,,,,,,,masks/mask_005.jpg,,,,,,,,,,,,,,,,,,,,,,,,,,,,,,,,,,,,,,,,,,,0,3,3,4,1,,,,,,,,,,,,,,,,,,,,,,,,,,,,,,,,,,,,,,,,,,,,,,
904982,001,2022-11-20_23h53.39.289,Info_measure_main_exp,2022.2.2,Win32,59.95203837,,,,,,,,,,,,,,,,,,masks/mask_003.jpg,,,,,,,,,,,,,,,,,,,,,,,,,,,,,,,,,,,,,,,,,,,0,4,4,2,1,,,,,,,,,,,,,,,,,,,,,,,,,,,,,,,,,,,,,,,,,,,,,,
904982,001,2022-11-20_23h53.39.289,Info_measure_main_exp,2022.2.2,Win32,59.95203837,,,,,,,,,,,,,,,,,,masks/mask_002.jpg,,,,,,,,,,,,,,,,,,,,,,,,,,,,,,,,,,,,,,,,,,,,,,,,0,0,0,1,1,,,,,,,,,,,,,,,,,,,,,,,,,,,,,,,,,,,,,,,,,
904982,001,2022-11-20_23h53.39.289,Info_measure_main_exp,2022.2.2,Win32,59.95203837,,,,,,,,,,,,,,,,,,masks/mask_005.jpg,,,,,,,,,,,,,,,,,,,,,,,,,,,,,,,,,,,,,,,,,,,,,,,,0,1,1,4,1,,,,,,,,,,,,,,,,,,,,,,,,,,,,,,,,,,,,,,,,,
904982,001,2022-11-20_23h53.39.289,Info_measure_main_exp,2022.2.2,Win32,59.95203837,,,,,,,,,,,,,,,,,,masks/mask_004.jpg,,,,,,,,,,,,,,,,,,,,,,,,,,,,,,,,,,,,,,,,,,,,,,,,0,2,2,3,1,,,,,,,,,,,,,,,,,,,,,,,,,,,,,,,,,,,,,,,,,
904982,001,2022-11-20_23h53.39.289,Info_measure_main_exp,2022.2.2,Win32,59.95203837,,,,,,,,,,,,,,,,,,masks/mask_001.jpg,,,,,,,,,,,,,,,,,,,,,,,,,,,,,,,,,,,,,,,,,,,,,,,,0,3,3,0,1,,,,,,,,,,,,,,,,,,,,,,,,,,,,,,,,,,,,,,,,,
904982,001,2022-11-20_23h53.39.289,Info_measure_main_exp,2022.2.2,Win32,59.95203837,,,,,,,,,,,,,,,,,,masks/mask_003.jpg,,,,,,,,,,,,,,,,,,,,,,,,,,,,,,,,,,,,,,,,,,,,,,,,0,4,4,2,1,,,,,,,,,,,,,,,,,,,,,,,,,,,,,,,,,,,,,,,,,
904982,001,2022-11-20_23h53.39.289,Info_measure_main_exp,2022.2.2,Win32,59.95203837,,,,,,,,,,,,,,,,,,,,,,,,,,,,,,6,0.551,1,,,,,,,,,,,,0,131,5,5,1974,2238,absent_patch/patch0001974.jpg,absent_patch/patch0002238.jpg,,,,,,,,,,,,,,,,,,,,0.076851852,0.039814815,1,0,0,response1disk,32,0.003703704,-0.002777778,1,0,0,center_square,0,31,31,95,1,,,,,,,,,,,,,,,,,,,,,,,
904982,001,2022-11-20_23h53.39.289,Info_measure_main_exp,2022.2.2,Win32,59.95203837,,,,,,,,,,,,,,,,,,masks/mask_004.jpg,,,,,,,,,,,,,,,,,,,,,,,,,,,,,,,,,,,,,,,,,,,0,0,0,3,1,,,,,,,,,,,,,,,,,,,,,,,,,,,,,,,,,,,,,,,,,,,,,,
904982,001,2022-11-20_23h53.39.289,Info_measure_main_exp,2022.2.2,Win32,59.95203837,,,,,,,,,,,,,,,,,,masks/mask_001.jpg,,,,,,,,,,,,,,,,,,,,,,,,,,,,,,,,,,,,,,,,,,,0,1,1,0,1,,,,,,,,,,,,,,,,,,,,,,,,,,,,,,,,,,,,,,,,,,,,,,
904982,001,2022-11-20_23h53.39.289,Info_measure_main_exp,2022.2.2,Win32,59.95203837,,,,,,,,,,,,,,,,,,masks/mask_005.jpg,,,,,,,,,,,,,,,,,,,,,,,,,,,,,,,,,,,,,,,,,,,0,2,2,4,1,,,,,,,,,,,,,,,,,,,,,,,,,,,,,,,,,,,,,,,,,,,,,,
904982,001,2022-11-20_23h53.39.289,Info_measure_main_exp,2022.2.2,Win32,59.95203837,,,,,,,,,,,,,,,,,,masks/mask_002.jpg,,,,,,,,,,,,,,,,,,,,,,,,,,,,,,,,,,,,,,,,,,,0,3,3,1,1,,,,,,,,,,,,,,,,,,,,,,,,,,,,,,,,,,,,,,,,,,,,,,
904982,001,2022-11-20_23h53.39.289,Info_measure_main_exp,2022.2.2,Win32,59.95203837,,,,,,,,,,,,,,,,,,masks/mask_003.jpg,,,,,,,,,,,,,,,,,,,,,,,,,,,,,,,,,,,,,,,,,,,0,4,4,2,1,,,,,,,,,,,,,,,,,,,,,,,,,,,,,,,,,,,,,,,,,,,,,,
904982,001,2022-11-20_23h53.39.289,Info_measure_main_exp,2022.2.2,Win32,59.95203837,,,,,,,,,,,,,,,,,,masks/mask_002.jpg,,,,,,,,,,,,,,,,,,,,,,,,,,,,,,,,,,,,,,,,,,,,,,,,0,0,0,1,1,,,,,,,,,,,,,,,,,,,,,,,,,,,,,,,,,,,,,,,,,
904982,001,2022-11-20_23h53.39.289,Info_measure_main_exp,2022.2.2,Win32,59.95203837,,,,,,,,,,,,,,,,,,masks/mask_005.jpg,,,,,,,,,,,,,,,,,,,,,,,,,,,,,,,,,,,,,,,,,,,,,,,,0,1,1,4,1,,,,,,,,,,,,,,,,,,,,,,,,,,,,,,,,,,,,,,,,,
904982,001,2022-11-20_23h53.39.289,Info_measure_main_exp,2022.2.2,Win32,59.95203837,,,,,,,,,,,,,,,,,,masks/mask_001.jpg,,,,,,,,,,,,,,,,,,,,,,,,,,,,,,,,,,,,,,,,,,,,,,,,0,2,2,0,1,,,,,,,,,,,,,,,,,,,,,,,,,,,,,,,,,,,,,,,,,
904982,001,2022-11-20_23h53.39.289,Info_measure_main_exp,2022.2.2,Win32,59.95203837,,,,,,,,,,,,,,,,,,masks/mask_004.jpg,,,,,,,,,,,,,,,,,,,,,,,,,,,,,,,,,,,,,,,,,,,,,,,,0,3,3,3,1,,,,,,,,,,,,,,,,,,,,,,,,,,,,,,,,,,,,,,,,,
904982,001,2022-11-20_23h53.39.289,Info_measure_main_exp,2022.2.2,Win32,59.95203837,,,,,,,,,,,,,,,,,,masks/mask_003.jpg,,,,,,,,,,,,,,,,,,,,,,,,,,,,,,,,,,,,,,,,,,,,,,,,0,4,4,2,1,,,,,,,,,,,,,,,,,,,,,,,,,,,,,,,,,,,,,,,,,
904982,001,2022-11-20_23h53.39.289,Info_measure_main_exp,2022.2.2,Win32,59.95203837,,,,,,,,,,,,,,,,,,,,,,,,,,,,,,0,0.433,1,,,,,,,,,,,,0,131,5,5,1974,1974,absent_patch/patch0001974.jpg,absent_patch/patch0001974.jpg,,,,,,,,,,,,,,,,,,,,-0.034259259,0.116666667,1,0,0,response7disk,33,0.00462963,-0.00462963,1,0,0,center_square,0,32,32,113,1,,,,,,,,,,,,,,,,,,,,,,,
904982,001,2022-11-20_23h53.39.289,Info_measure_main_exp,2022.2.2,Win32,59.95203837,,,,,,,,,,,,,,,,,,masks/mask_005.jpg,,,,,,,,,,,,,,,,,,,,,,,,,,,,,,,,,,,,,,,,,,,0,0,0,4,1,,,,,,,,,,,,,,,,,,,,,,,,,,,,,,,,,,,,,,,,,,,,,,
904982,001,2022-11-20_23h53.39.289,Info_measure_main_exp,2022.2.2,Win32,59.95203837,,,,,,,,,,,,,,,,,,masks/mask_001.jpg,,,,,,,,,,,,,,,,,,,,,,,,,,,,,,,,,,,,,,,,,,,0,1,1,0,1,,,,,,,,,,,,,,,,,,,,,,,,,,,,,,,,,,,,,,,,,,,,,,
904982,001,2022-11-20_23h53.39.289,Info_measure_main_exp,2022.2.2,Win32,59.95203837,,,,,,,,,,,,,,,,,,masks/mask_002.jpg,,,,,,,,,,,,,,,,,,,,,,,,,,,,,,,,,,,,,,,,,,,0,2,2,1,1,,,,,,,,,,,,,,,,,,,,,,,,,,,,,,,,,,,,,,,,,,,,,,
904982,001,2022-11-20_23h53.39.289,Info_measure_main_exp,2022.2.2,Win32,59.95203837,,,,,,,,,,,,,,,,,,masks/mask_004.jpg,,,,,,,,,,,,,,,,,,,,,,,,,,,,,,,,,,,,,,,,,,,0,3,3,3,1,,,,,,,,,,,,,,,,,,,,,,,,,,,,,,,,,,,,,,,,,,,,,,
904982,001,2022-11-20_23h53.39.289,Info_measure_main_exp,2022.2.2,Win32,59.95203837,,,,,,,,,,,,,,,,,,masks/mask_003.jpg,,,,,,,,,,,,,,,,,,,,,,,,,,,,,,,,,,,,,,,,,,,0,4,4,2,1,,,,,,,,,,,,,,,,,,,,,,,,,,,,,,,,,,,,,,,,,,,,,,
904982,001,2022-11-20_23h53.39.289,Info_measure_main_exp,2022.2.2,Win32,59.95203837,,,,,,,,,,,,,,,,,,masks/mask_001.jpg,,,,,,,,,,,,,,,,,,,,,,,,,,,,,,,,,,,,,,,,,,,,,,,,0,0,0,0,1,,,,,,,,,,,,,,,,,,,,,,,,,,,,,,,,,,,,,,,,,
904982,001,2022-11-20_23h53.39.289,Info_measure_main_exp,2022.2.2,Win32,59.95203837,,,,,,,,,,,,,,,,,,masks/mask_005.jpg,,,,,,,,,,,,,,,,,,,,,,,,,,,,,,,,,,,,,,,,,,,,,,,,0,1,1,4,1,,,,,,,,,,,,,,,,,,,,,,,,,,,,,,,,,,,,,,,,,
904982,001,2022-11-20_23h53.39.289,Info_measure_main_exp,2022.2.2,Win32,59.95203837,,,,,,,,,,,,,,,,,,masks/mask_002.jpg,,,,,,,,,,,,,,,,,,,,,,,,,,,,,,,,,,,,,,,,,,,,,,,,0,2,2,1,1,,,,,,,,,,,,,,,,,,,,,,,,,,,,,,,,,,,,,,,,,
904982,001,2022-11-20_23h53.39.289,Info_measure_main_exp,2022.2.2,Win32,59.95203837,,,,,,,,,,,,,,,,,,masks/mask_003.jpg,,,,,,,,,,,,,,,,,,,,,,,,,,,,,,,,,,,,,,,,,,,,,,,,0,3,3,2,1,,,,,,,,,,,,,,,,,,,,,,,,,,,,,,,,,,,,,,,,,
904982,001,2022-11-20_23h53.39.289,Info_measure_main_exp,2022.2.2,Win32,59.95203837,,,,,,,,,,,,,,,,,,masks/mask_004.jpg,,,,,,,,,,,,,,,,,,,,,,,,,,,,,,,,,,,,,,,,,,,,,,,,0,4,4,3,1,,,,,,,,,,,,,,,,,,,,,,,,,,,,,,,,,,,,,,,,,
904982,001,2022-11-20_23h53.39.289,Info_measure_main_exp,2022.2.2,Win32,59.95203837,,,,,,,,,,,,,,,,,,,,,,,,,,,,,,3,1.267,1,,,,,,,,,,,,0,131,5,5,1950,2142,absent_patch/patch0001950.jpg,absent_patch/patch0002142.jpg,,,,,,,,,,,,,,,,,,,,-0.067592593,-0.118518519,1,0,0,response5disk,34,0.008333333,-0.000925926,1,0,0,center_square,0,33,33,83,1,,,,,,,,,,,,,,,,,,,,,,,
904982,001,2022-11-20_23h53.39.289,Info_measure_main_exp,2022.2.2,Win32,59.95203837,,,,,,,,,,,,,,,,,,masks/mask_002.jpg,,,,,,,,,,,,,,,,,,,,,,,,,,,,,,,,,,,,,,,,,,,0,0,0,1,1,,,,,,,,,,,,,,,,,,,,,,,,,,,,,,,,,,,,,,,,,,,,,,
904982,001,2022-11-20_23h53.39.289,Info_measure_main_exp,2022.2.2,Win32,59.95203837,,,,,,,,,,,,,,,,,,masks/mask_003.jpg,,,,,,,,,,,,,,,,,,,,,,,,,,,,,,,,,,,,,,,,,,,0,1,1,2,1,,,,,,,,,,,,,,,,,,,,,,,,,,,,,,,,,,,,,,,,,,,,,,
904982,001,2022-11-20_23h53.39.289,Info_measure_main_exp,2022.2.2,Win32,59.95203837,,,,,,,,,,,,,,,,,,masks/mask_004.jpg,,,,,,,,,,,,,,,,,,,,,,,,,,,,,,,,,,,,,,,,,,,0,2,2,3,1,,,,,,,,,,,,,,,,,,,,,,,,,,,,,,,,,,,,,,,,,,,,,,
904982,001,2022-11-20_23h53.39.289,Info_measure_main_exp,2022.2.2,Win32,59.95203837,,,,,,,,,,,,,,,,,,masks/mask_005.jpg,,,,,,,,,,,,,,,,,,,,,,,,,,,,,,,,,,,,,,,,,,,0,3,3,4,1,,,,,,,,,,,,,,,,,,,,,,,,,,,,,,,,,,,,,,,,,,,,,,
904982,001,2022-11-20_23h53.39.289,Info_measure_main_exp,2022.2.2,Win32,59.95203837,,,,,,,,,,,,,,,,,,masks/mask_001.jpg,,,,,,,,,,,,,,,,,,,,,,,,,,,,,,,,,,,,,,,,,,,0,4,4,0,1,,,,,,,,,,,,,,,,,,,,,,,,,,,,,,,,,,,,,,,,,,,,,,
904982,001,2022-11-20_23h53.39.289,Info_measure_main_exp,2022.2.2,Win32,59.95203837,,,,,,,,,,,,,,,,,,masks/mask_004.jpg,,,,,,,,,,,,,,,,,,,,,,,,,,,,,,,,,,,,,,,,,,,,,,,,0,0,0,3,1,,,,,,,,,,,,,,,,,,,,,,,,,,,,,,,,,,,,,,,,,
904982,001,2022-11-20_23h53.39.289,Info_measure_main_exp,2022.2.2,Win32,59.95203837,,,,,,,,,,,,,,,,,,masks/mask_002.jpg,,,,,,,,,,,,,,,,,,,,,,,,,,,,,,,,,,,,,,,,,,,,,,,,0,1,1,1,1,,,,,,,,,,,,,,,,,,,,,,,,,,,,,,,,,,,,,,,,,
904982,001,2022-11-20_23h53.39.289,Info_measure_main_exp,2022.2.2,Win32,59.95203837,,,,,,,,,,,,,,,,,,masks/mask_005.jpg,,,,,,,,,,,,,,,,,,,,,,,,,,,,,,,,,,,,,,,,,,,,,,,,0,2,2,4,1,,,,,,,,,,,,,,,,,,,,,,,,,,,,,,,,,,,,,,,,,
904982,001,2022-11-20_23h53.39.289,Info_measure_main_exp,2022.2.2,Win32,59.95203837,,,,,,,,,,,,,,,,,,masks/mask_003.jpg,,,,,,,,,,,,,,,,,,,,,,,,,,,,,,,,,,,,,,,,,,,,,,,,0,3,3,2,1,,,,,,,,,,,,,,,,,,,,,,,,,,,,,,,,,,,,,,,,,
