participant,session,date,expName,psychopyVersion,OS,frameRate,space_press_continue.keys,space_press_continue.rt,space_press_continue_2.keys,space_press_continue_2.rt,space_press_continue_3.keys,space_press_continue_3.rt,space_press_continue_4.keys,space_press_continue_4.rt,space_press_continue_5.keys,space_press_continue_5.rt,space_press_continue_6.keys,space_press_continue_6.rt,prac_mask_loop_1.thisRepN,prac_mask_loop_1.thisTrialN,prac_mask_loop_1.thisN,prac_mask_loop_1.thisIndex,prac_mask_loop_1.ran,mask_name,prac_mask_loop_2.thisRepN,prac_mask_loop_2.thisTrialN,prac_mask_loop_2.thisN,prac_mask_loop_2.thisIndex,prac_mask_loop_2.ran,mouse_2.x,mouse_2.y,mouse_2.leftButton,mouse_2.midButton,mouse_2.rightButton,mouse_2.clicked_name,similarity,response_time,Pass,mouse_12.x,mouse_12.y,mouse_12.leftButton,mouse_12.midButton,mouse_12.rightButton,mouse_12.clicked_name,prac_loop.thisRepN,prac_loop.thisTrialN,prac_loop.thisN,prac_loop.thisIndex,prac_loop.ran,Pair_type,Image_num,Patch_1_loc,Patch_2_loc,Patch_1_info,Patch_2_info,Patch_1_name,Patch_2_name,mouse_1.x,mouse_1.y,mouse_1.leftButton,mouse_1.midButton,mouse_1.rightButton,mouse_1.time,mouse_1.clicked_name,space_press_continue_7.keys,space_press_continue_7.rt,mask_loop.thisRepN,mask_loop.thisTrialN,mask_loop.thisN,mask_loop.thisIndex,mask_loop.ran,mask_loop_2.thisRepN,mask_loop_2.thisTrialN,mask_loop_2.thisN,mask_loop_2.thisIndex,mask_loop_2.ran,mouse.x,mouse.y,mouse.leftButton,mouse.midButton,mouse.rightButton,mouse.clicked_name,trialNumber,mouse_11.x,mouse_11.y,mouse_11.leftButton,mouse_11.midButton,mouse_11.rightButton,mouse_11.clicked_name,first_pass_loop.thisRepN,first_pass_loop.thisTrialN,first_pass_loop.thisN,first_pass_loop.thisIndex,first_pass_loop.ran,mask_loop_3.thisRepN,mask_loop_3.thisTrialN,mask_loop_3.thisN,mask_loop_3.thisIndex,mask_loop_3.ran,mask_loop_4.thisRepN,mask_loop_4.thisTrialN,mask_loop_4.thisN,mask_loop_4.thisIndex,mask_loop_4.ran,mouse_3.x,mouse_3.y,mouse_3.leftButton,mouse_3.midButton,mouse_3.rightButton,mouse_3.clicked_name,double_pass_loop.thisRepN,double_pass_loop.thisTrialN,double_pass_loop.thisN,double_pass_loop.thisIndex,double_pass_loop.ran,space_exit.keys,space_exit.rt
905148,001,2022-11-14_24h27.42.366,Info_measure_main_exp,2022.2.2,MacIntel,59.99520038,,,,,,,,,,,,,,,,,,,,,,,,,,,,,,,,,,,,,,,,,,,,,,,,,,,,,,,,,,,,,,,,,,,,,,,,,,,,,,,,,,,,,,,,,,,,,,,,,,,,,,,,,,,,,,,
905148,001,2022-11-14_24h27.42.366,Info_measure_main_exp,2022.2.2,MacIntel,59.99520038,,,,,,,,,,,,,,,,,,,,,,,,,,,,,,,,,,,,,,,,,,,,,,,,,,,,,,,,,,,,,,,,,,,,,,,,,,,,,,,,,,,,,,,,,,,,,,,,,,,,,,,,,,,,,,,
905148,001,2022-11-14_24h27.42.366,Info_measure_main_exp,2022.2.2,MacIntel,59.99520038,space,8.0232,,,,,,,,,,,,,,,,,,,,,,,,,,,,,,,,,,,,,,,,,,,,,,,,,,,,,,,,,,,,,,,,,,,,,,,,,,,,,,,,,,,,,,,,,,,,,,,,,,,,,,,,,,,,,
905148,001,2022-11-14_24h27.42.366,Info_measure_main_exp,2022.2.2,MacIntel,59.99520038,,,space,4.5872,,,,,,,,,,,,,,,,,,,,,,,,,,,,,,,,,,,,,,,,,,,,,,,,,,,,,,,,,,,,,,,,,,,,,,,,,,,,,,,,,,,,,,,,,,,,,,,,,,,,,,,,,,,
905148,001,2022-11-14_24h27.42.366,Info_measure_main_exp,2022.2.2,MacIntel,59.99520038,,,,,space,27.2227,,,,,,,,,,,,,,,,,,,,,,,,,,,,,,,,,,,,,,,,,,,,,,,,,,,,,,,,,,,,,,,,,,,,,,,,,,,,,,,,,,,,,,,,,,,,,,,,,,,,,,,,,
905148,001,2022-11-14_24h27.42.366,Info_measure_main_exp,2022.2.2,MacIntel,59.99520038,,,,,,,space,19.039,,,,,,,,,,,,,,,,,,,,,,,,,,,,,,,,,,,,,,,,,,,,,,,,,,,,,,,,,,,,,,,,,,,,,,,,,,,,,,,,,,,,,,,,,,,,,,,,,,,,,,,
905148,001,2022-11-14_24h27.42.366,Info_measure_main_exp,2022.2.2,MacIntel,59.99520038,,,,,,,,,space,3.1259,,,,,,,,,,,,,,,,,,,,,,,,,,,,,,,,,,,,,,,,,,,,,,,,,,,,,,,,,,,,,,,,,,,,,,,,,,,,,,,,,,,,,,,,,,,,,,,,,,,,,
905148,001,2022-11-14_24h27.42.366,Info_measure_main_exp,2022.2.2,MacIntel,59.99520038,,,,,,,,,,,space,4.6731,,,,,,,,,,,,,,,,,,,,,,,,,,,,,,,,,,,,,,,,,,,,,,,,,,,,,,,,,,,,,,,,,,,,,,,,,,,,,,,,,,,,,,,,,,,,,,,,,,,
905148,001,2022-11-14_24h27.42.366,Info_measure_main_exp,2022.2.2,MacIntel,59.99520038,,,,,,,,,,,,,0,0,0,2,1,masks/mask_003.jpg,,,,,,,,,,,,,,,,,,,,,,,,,,,,,,,,,,,,,,,,,,,,,,,,,,,,,,,,,,,,,,,,,,,,,,,,,,,,,,,,,,,,,,,,,,,,,
905148,001,2022-11-14_24h27.42.366,Info_measure_main_exp,2022.2.2,MacIntel,59.99520038,,,,,,,,,,,,,0,1,1,0,1,masks/mask_001.jpg,,,,,,,,,,,,,,,,,,,,,,,,,,,,,,,,,,,,,,,,,,,,,,,,,,,,,,,,,,,,,,,,,,,,,,,,,,,,,,,,,,,,,,,,,,,,,
905148,001,2022-11-14_24h27.42.366,Info_measure_main_exp,2022.2.2,MacIntel,59.99520038,,,,,,,,,,,,,0,2,2,3,1,masks/mask_004.jpg,,,,,,,,,,,,,,,,,,,,,,,,,,,,,,,,,,,,,,,,,,,,,,,,,,,,,,,,,,,,,,,,,,,,,,,,,,,,,,,,,,,,,,,,,,,,,
905148,001,2022-11-14_24h27.42.366,Info_measure_main_exp,2022.2.2,MacIntel,59.99520038,,,,,,,,,,,,,0,3,3,1,1,masks/mask_002.jpg,,,,,,,,,,,,,,,,,,,,,,,,,,,,,,,,,,,,,,,,,,,,,,,,,,,,,,,,,,,,,,,,,,,,,,,,,,,,,,,,,,,,,,,,,,,,,
905148,001,2022-11-14_24h27.42.366,Info_measure_main_exp,2022.2.2,MacIntel,59.99520038,,,,,,,,,,,,,0,4,4,4,1,masks/mask_005.jpg,,,,,,,,,,,,,,,,,,,,,,,,,,,,,,,,,,,,,,,,,,,,,,,,,,,,,,,,,,,,,,,,,,,,,,,,,,,,,,,,,,,,,,,,,,,,,
905148,001,2022-11-14_24h27.42.366,Info_measure_main_exp,2022.2.2,MacIntel,59.99520038,,,,,,,,,,,,,,,,,,masks/mask_002.jpg,0,0,0,1,1,,,,,,,,,,,,,,,,,,,,,,,,,,,,,,,,,,,,,,,,,,,,,,,,,,,,,,,,,,,,,,,,,,,,,,,,,,,,,,,,,,,,,,,,
905148,001,2022-11-14_24h27.42.366,Info_measure_main_exp,2022.2.2,MacIntel,59.99520038,,,,,,,,,,,,,,,,,,masks/mask_003.jpg,0,1,1,2,1,,,,,,,,,,,,,,,,,,,,,,,,,,,,,,,,,,,,,,,,,,,,,,,,,,,,,,,,,,,,,,,,,,,,,,,,,,,,,,,,,,,,,,,,
905148,001,2022-11-14_24h27.42.366,Info_measure_main_exp,2022.2.2,MacIntel,59.99520038,,,,,,,,,,,,,,,,,,masks/mask_004.jpg,0,2,2,3,1,,,,,,,,,,,,,,,,,,,,,,,,,,,,,,,,,,,,,,,,,,,,,,,,,,,,,,,,,,,,,,,,,,,,,,,,,,,,,,,,,,,,,,,,
905148,001,2022-11-14_24h27.42.366,Info_measure_main_exp,2022.2.2,MacIntel,59.99520038,,,,,,,,,,,,,,,,,,masks/mask_001.jpg,0,3,3,0,1,,,,,,,,,,,,,,,,,,,,,,,,,,,,,,,,,,,,,,,,,,,,,,,,,,,,,,,,,,,,,,,,,,,,,,,,,,,,,,,,,,,,,,,,
905148,001,2022-11-14_24h27.42.366,Info_measure_main_exp,2022.2.2,MacIntel,59.99520038,,,,,,,,,,,,,,,,,,masks/mask_005.jpg,0,4,4,4,1,,,,,,,,,,,,,,,,,,,,,,,,,,,,,,,,,,,,,,,,,,,,,,,,,,,,,,,,,,,,,,,,,,,,,,,,,,,,,,,,,,,,,,,,
905148,001,2022-11-14_24h27.42.366,Info_measure_main_exp,2022.2.2,MacIntel,59.99520038,,,,,,,,,,,,,,,,,,,,,,,,0.000155378,0.007385634,1,0,0,response1disk,7,77.5286,1,-0.001046389,0.006060613,1,0,0,center_square,0,0,0,0,1,0,131,5,5,2370,2406,prac_patch/patch0002370.jpg,prac_patch/patch0002406.jpg,,,,,,,,,,,,,,,,,,,,,,,,,,,,,,,,,,,,,,,,,,,,,,,,,,,,,,,,,,,,
905148,001,2022-11-14_24h27.42.366,Info_measure_main_exp,2022.2.2,MacIntel,59.99520038,,,,,,,,,,,,,0,0,0,0,1,masks/mask_001.jpg,,,,,,,,,,,,,,,,,,,,,,,,,,,,,,,,,,,,,,,,,,,,,,,,,,,,,,,,,,,,,,,,,,,,,,,,,,,,,,,,,,,,,,,,,,,,,
905148,001,2022-11-14_24h27.42.366,Info_measure_main_exp,2022.2.2,MacIntel,59.99520038,,,,,,,,,,,,,0,1,1,1,1,masks/mask_002.jpg,,,,,,,,,,,,,,,,,,,,,,,,,,,,,,,,,,,,,,,,,,,,,,,,,,,,,,,,,,,,,,,,,,,,,,,,,,,,,,,,,,,,,,,,,,,,,
905148,001,2022-11-14_24h27.42.366,Info_measure_main_exp,2022.2.2,MacIntel,59.99520038,,,,,,,,,,,,,0,2,2,2,1,masks/mask_003.jpg,,,,,,,,,,,,,,,,,,,,,,,,,,,,,,,,,,,,,,,,,,,,,,,,,,,,,,,,,,,,,,,,,,,,,,,,,,,,,,,,,,,,,,,,,,,,,
905148,001,2022-11-14_24h27.42.366,Info_measure_main_exp,2022.2.2,MacIntel,59.99520038,,,,,,,,,,,,,0,3,3,3,1,masks/mask_004.jpg,,,,,,,,,,,,,,,,,,,,,,,,,,,,,,,,,,,,,,,,,,,,,,,,,,,,,,,,,,,,,,,,,,,,,,,,,,,,,,,,,,,,,,,,,,,,,
905148,001,2022-11-14_24h27.42.366,Info_measure_main_exp,2022.2.2,MacIntel,59.99520038,,,,,,,,,,,,,0,4,4,4,1,masks/mask_005.jpg,,,,,,,,,,,,,,,,,,,,,,,,,,,,,,,,,,,,,,,,,,,,,,,,,,,,,,,,,,,,,,,,,,,,,,,,,,,,,,,,,,,,,,,,,,,,,
905148,001,2022-11-14_24h27.42.366,Info_measure_main_exp,2022.2.2,MacIntel,59.99520038,,,,,,,,,,,,,,,,,,masks/mask_003.jpg,0,0,0,2,1,,,,,,,,,,,,,,,,,,,,,,,,,,,,,,,,,,,,,,,,,,,,,,,,,,,,,,,,,,,,,,,,,,,,,,,,,,,,,,,,,,,,,,,,
905148,001,2022-11-14_24h27.42.366,Info_measure_main_exp,2022.2.2,MacIntel,59.99520038,,,,,,,,,,,,,,,,,,masks/mask_004.jpg,0,1,1,3,1,,,,,,,,,,,,,,,,,,,,,,,,,,,,,,,,,,,,,,,,,,,,,,,,,,,,,,,,,,,,,,,,,,,,,,,,,,,,,,,,,,,,,,,,
905148,001,2022-11-14_24h27.42.366,Info_measure_main_exp,2022.2.2,MacIntel,59.99520038,,,,,,,,,,,,,,,,,,masks/mask_002.jpg,0,2,2,1,1,,,,,,,,,,,,,,,,,,,,,,,,,,,,,,,,,,,,,,,,,,,,,,,,,,,,,,,,,,,,,,,,,,,,,,,,,,,,,,,,,,,,,,,,
905148,001,2022-11-14_24h27.42.366,Info_measure_main_exp,2022.2.2,MacIntel,59.99520038,,,,,,,,,,,,,,,,,,masks/mask_001.jpg,0,3,3,0,1,,,,,,,,,,,,,,,,,,,,,,,,,,,,,,,,,,,,,,,,,,,,,,,,,,,,,,,,,,,,,,,,,,,,,,,,,,,,,,,,,,,,,,,,
905148,001,2022-11-14_24h27.42.366,Info_measure_main_exp,2022.2.2,MacIntel,59.99520038,,,,,,,,,,,,,,,,,,masks/mask_005.jpg,0,4,4,4,1,,,,,,,,,,,,,,,,,,,,,,,,,,,,,,,,,,,,,,,,,,,,,,,,,,,,,,,,,,,,,,,,,,,,,,,,,,,,,,,,,,,,,,,,
905148,001,2022-11-14_24h27.42.366,Info_measure_main_exp,2022.2.2,MacIntel,59.99520038,,,,,,,,,,,,,,,,,,,,,,,,-0.241235453,0.11189828,1,0,0,response7disk,1,87.8956,1,-0.002909821,-0.014610608,1,0,0,center_square,0,1,1,1,1,0,131,5,5,2514,2490,prac_patch/patch0002514.jpg,prac_patch/patch0002490.jpg,,,,,,,,,,,,,,,,,,,,,,,,,,,,,,,,,,,,,,,,,,,,,,,,,,,,,,,,,,,,
905148,001,2022-11-14_24h27.42.366,Info_measure_main_exp,2022.2.2,MacIntel,59.99520038,,,,,,,,,,,,,0,0,0,4,1,masks/mask_005.jpg,,,,,,,,,,,,,,,,,,,,,,,,,,,,,,,,,,,,,,,,,,,,,,,,,,,,,,,,,,,,,,,,,,,,,,,,,,,,,,,,,,,,,,,,,,,,,
905148,001,2022-11-14_24h27.42.366,Info_measure_main_exp,2022.2.2,MacIntel,59.99520038,,,,,,,,,,,,,0,1,1,1,1,masks/mask_002.jpg,,,,,,,,,,,,,,,,,,,,,,,,,,,,,,,,,,,,,,,,,,,,,,,,,,,,,,,,,,,,,,,,,,,,,,,,,,,,,,,,,,,,,,,,,,,,,
905148,001,2022-11-14_24h27.42.366,Info_measure_main_exp,2022.2.2,MacIntel,59.99520038,,,,,,,,,,,,,0,2,2,2,1,masks/mask_003.jpg,,,,,,,,,,,,,,,,,,,,,,,,,,,,,,,,,,,,,,,,,,,,,,,,,,,,,,,,,,,,,,,,,,,,,,,,,,,,,,,,,,,,,,,,,,,,,
905148,001,2022-11-14_24h27.42.366,Info_measure_main_exp,2022.2.2,MacIntel,59.99520038,,,,,,,,,,,,,0,3,3,0,1,masks/mask_001.jpg,,,,,,,,,,,,,,,,,,,,,,,,,,,,,,,,,,,,,,,,,,,,,,,,,,,,,,,,,,,,,,,,,,,,,,,,,,,,,,,,,,,,,,,,,,,,,
905148,001,2022-11-14_24h27.42.366,Info_measure_main_exp,2022.2.2,MacIntel,59.99520038,,,,,,,,,,,,,0,4,4,3,1,masks/mask_004.jpg,,,,,,,,,,,,,,,,,,,,,,,,,,,,,,,,,,,,,,,,,,,,,,,,,,,,,,,,,,,,,,,,,,,,,,,,,,,,,,,,,,,,,,,,,,,,,
905148,001,2022-11-14_24h27.42.366,Info_measure_main_exp,2022.2.2,MacIntel,59.99520038,,,,,,,,,,,,,,,,,,masks/mask_004.jpg,0,0,0,3,1,,,,,,,,,,,,,,,,,,,,,,,,,,,,,,,,,,,,,,,,,,,,,,,,,,,,,,,,,,,,,,,,,,,,,,,,,,,,,,,,,,,,,,,,
905148,001,2022-11-14_24h27.42.366,Info_measure_main_exp,2022.2.2,MacIntel,59.99520038,,,,,,,,,,,,,,,,,,masks/mask_003.jpg,0,1,1,2,1,,,,,,,,,,,,,,,,,,,,,,,,,,,,,,,,,,,,,,,,,,,,,,,,,,,,,,,,,,,,,,,,,,,,,,,,,,,,,,,,,,,,,,,,
905148,001,2022-11-14_24h27.42.366,Info_measure_main_exp,2022.2.2,MacIntel,59.99520038,,,,,,,,,,,,,,,,,,masks/mask_001.jpg,0,2,2,0,1,,,,,,,,,,,,,,,,,,,,,,,,,,,,,,,,,,,,,,,,,,,,,,,,,,,,,,,,,,,,,,,,,,,,,,,,,,,,,,,,,,,,,,,,
905148,001,2022-11-14_24h27.42.366,Info_measure_main_exp,2022.2.2,MacIntel,59.99520038,,,,,,,,,,,,,,,,,,masks/mask_002.jpg,0,3,3,1,1,,,,,,,,,,,,,,,,,,,,,,,,,,,,,,,,,,,,,,,,,,,,,,,,,,,,,,,,,,,,,,,,,,,,,,,,,,,,,,,,,,,,,,,,
905148,001,2022-11-14_24h27.42.366,Info_measure_main_exp,2022.2.2,MacIntel,59.99520038,,,,,,,,,,,,,,,,,,masks/mask_005.jpg,0,4,4,4,1,,,,,,,,,,,,,,,,,,,,,,,,,,,,,,,,,,,,,,,,,,,,,,,,,,,,,,,,,,,,,,,,,,,,,,,,,,,,,,,,,,,,,,,,
905148,001,2022-11-14_24h27.42.366,Info_measure_main_exp,2022.2.2,MacIntel,59.99520038,,,,,,,,,,,,,,,,,,,,,,,,-0.255544985,0.125393178,1,0,0,response7disk,1,96.5798,1,0.020849931,0.011178437,1,0,0,center_square,0,2,2,2,1,0,131,5,5,2526,2526,prac_patch/patch0002526.jpg,prac_patch/patch0002526.jpg,,,,,,,,,,,,,,,,,,,,,,,,,,,,,,,,,,,,,,,,,,,,,,,,,,,,,,,,,,,,
905148,001,2022-11-14_24h27.42.366,Info_measure_main_exp,2022.2.2,MacIntel,59.99520038,,,,,,,,,,,,,,,,,,,,,,,,,,,,,,,,,,,,,,,,,,,,,,,,,,,,,,,,,,,space,2.2999,,,,,,,,,,,,,,,,,,,,,,,,,,,,,,,,,,,,,,,,,,,,,,,,,,,
905148,001,2022-11-14_24h27.42.366,Info_measure_main_exp,2022.2.2,MacIntel,59.99520038,,,,,,,,,,,,,,,,,,masks/mask_003.jpg,,,,,,,,,,,,,,,,,,,,,,,,,,,,,,,,,,,,,,,,,,,0,0,0,2,1,,,,,,,,,,,,,,,,,,,,,,,,,,,,,,,,,,,,,,,,,,,,,,
905148,001,2022-11-14_24h27.42.366,Info_measure_main_exp,2022.2.2,MacIntel,59.99520038,,,,,,,,,,,,,,,,,,masks/mask_001.jpg,,,,,,,,,,,,,,,,,,,,,,,,,,,,,,,,,,,,,,,,,,,0,1,1,0,1,,,,,,,,,,,,,,,,,,,,,,,,,,,,,,,,,,,,,,,,,,,,,,
905148,001,2022-11-14_24h27.42.366,Info_measure_main_exp,2022.2.2,MacIntel,59.99520038,,,,,,,,,,,,,,,,,,masks/mask_005.jpg,,,,,,,,,,,,,,,,,,,,,,,,,,,,,,,,,,,,,,,,,,,0,2,2,4,1,,,,,,,,,,,,,,,,,,,,,,,,,,,,,,,,,,,,,,,,,,,,,,
905148,001,2022-11-14_24h27.42.366,Info_measure_main_exp,2022.2.2,MacIntel,59.99520038,,,,,,,,,,,,,,,,,,masks/mask_002.jpg,,,,,,,,,,,,,,,,,,,,,,,,,,,,,,,,,,,,,,,,,,,0,3,3,1,1,,,,,,,,,,,,,,,,,,,,,,,,,,,,,,,,,,,,,,,,,,,,,,
905148,001,2022-11-14_24h27.42.366,Info_measure_main_exp,2022.2.2,MacIntel,59.99520038,,,,,,,,,,,,,,,,,,masks/mask_004.jpg,,,,,,,,,,,,,,,,,,,,,,,,,,,,,,,,,,,,,,,,,,,0,4,4,3,1,,,,,,,,,,,,,,,,,,,,,,,,,,,,,,,,,,,,,,,,,,,,,,
905148,001,2022-11-14_24h27.42.366,Info_measure_main_exp,2022.2.2,MacIntel,59.99520038,,,,,,,,,,,,,,,,,,masks/mask_003.jpg,,,,,,,,,,,,,,,,,,,,,,,,,,,,,,,,,,,,,,,,,,,,,,,,0,0,0,2,1,,,,,,,,,,,,,,,,,,,,,,,,,,,,,,,,,,,,,,,,,
905148,001,2022-11-14_24h27.42.366,Info_measure_main_exp,2022.2.2,MacIntel,59.99520038,,,,,,,,,,,,,,,,,,masks/mask_001.jpg,,,,,,,,,,,,,,,,,,,,,,,,,,,,,,,,,,,,,,,,,,,,,,,,0,1,1,0,1,,,,,,,,,,,,,,,,,,,,,,,,,,,,,,,,,,,,,,,,,
905148,001,2022-11-14_24h27.42.366,Info_measure_main_exp,2022.2.2,MacIntel,59.99520038,,,,,,,,,,,,,,,,,,masks/mask_002.jpg,,,,,,,,,,,,,,,,,,,,,,,,,,,,,,,,,,,,,,,,,,,,,,,,0,2,2,1,1,,,,,,,,,,,,,,,,,,,,,,,,,,,,,,,,,,,,,,,,,
905148,001,2022-11-14_24h27.42.366,Info_measure_main_exp,2022.2.2,MacIntel,59.99520038,,,,,,,,,,,,,,,,,,masks/mask_005.jpg,,,,,,,,,,,,,,,,,,,,,,,,,,,,,,,,,,,,,,,,,,,,,,,,0,3,3,4,1,,,,,,,,,,,,,,,,,,,,,,,,,,,,,,,,,,,,,,,,,
905148,001,2022-11-14_24h27.42.366,Info_measure_main_exp,2022.2.2,MacIntel,59.99520038,,,,,,,,,,,,,,,,,,masks/mask_004.jpg,,,,,,,,,,,,,,,,,,,,,,,,,,,,,,,,,,,,,,,,,,,,,,,,0,4,4,3,1,,,,,,,,,,,,,,,,,,,,,,,,,,,,,,,,,,,,,,,,,
905148,001,2022-11-14_24h27.42.366,Info_measure_main_exp,2022.2.2,MacIntel,59.99520038,,,,,,,,,,,,,,,,,,,,,,,,,,,,,,7,1.3005,1,,,,,,,,,,,,0,131,5,5,2274,1974,absent_patch/patch0002274.jpg,absent_patch/patch0001974.jpg,,,,,,,,,,,,,,,,,,,,0.14892147,0.251273623,1,0,0,response1disk,1,0.00629685,0.023553315,1,0,0,center_square,0,0,0,90,1,,,,,,,,,,,,,,,,,,,,,,,
905148,001,2022-11-14_24h27.42.366,Info_measure_main_exp,2022.2.2,MacIntel,59.99520038,,,,,,,,,,,,,,,,,,masks/mask_002.jpg,,,,,,,,,,,,,,,,,,,,,,,,,,,,,,,,,,,,,,,,,,,0,0,0,1,1,,,,,,,,,,,,,,,,,,,,,,,,,,,,,,,,,,,,,,,,,,,,,,
905148,001,2022-11-14_24h27.42.366,Info_measure_main_exp,2022.2.2,MacIntel,59.99520038,,,,,,,,,,,,,,,,,,masks/mask_005.jpg,,,,,,,,,,,,,,,,,,,,,,,,,,,,,,,,,,,,,,,,,,,0,1,1,4,1,,,,,,,,,,,,,,,,,,,,,,,,,,,,,,,,,,,,,,,,,,,,,,
905148,001,2022-11-14_24h27.42.366,Info_measure_main_exp,2022.2.2,MacIntel,59.99520038,,,,,,,,,,,,,,,,,,masks/mask_001.jpg,,,,,,,,,,,,,,,,,,,,,,,,,,,,,,,,,,,,,,,,,,,0,2,2,0,1,,,,,,,,,,,,,,,,,,,,,,,,,,,,,,,,,,,,,,,,,,,,,,
905148,001,2022-11-14_24h27.42.366,Info_measure_main_exp,2022.2.2,MacIntel,59.99520038,,,,,,,,,,,,,,,,,,masks/mask_004.jpg,,,,,,,,,,,,,,,,,,,,,,,,,,,,,,,,,,,,,,,,,,,0,3,3,3,1,,,,,,,,,,,,,,,,,,,,,,,,,,,,,,,,,,,,,,,,,,,,,,
905148,001,2022-11-14_24h27.42.366,Info_measure_main_exp,2022.2.2,MacIntel,59.99520038,,,,,,,,,,,,,,,,,,masks/mask_003.jpg,,,,,,,,,,,,,,,,,,,,,,,,,,,,,,,,,,,,,,,,,,,0,4,4,2,1,,,,,,,,,,,,,,,,,,,,,,,,,,,,,,,,,,,,,,,,,,,,,,
905148,001,2022-11-14_24h27.42.366,Info_measure_main_exp,2022.2.2,MacIntel,59.99520038,,,,,,,,,,,,,,,,,,masks/mask_001.jpg,,,,,,,,,,,,,,,,,,,,,,,,,,,,,,,,,,,,,,,,,,,,,,,,0,0,0,0,1,,,,,,,,,,,,,,,,,,,,,,,,,,,,,,,,,,,,,,,,,
905148,001,2022-11-14_24h27.42.366,Info_measure_main_exp,2022.2.2,MacIntel,59.99520038,,,,,,,,,,,,,,,,,,masks/mask_005.jpg,,,,,,,,,,,,,,,,,,,,,,,,,,,,,,,,,,,,,,,,,,,,,,,,0,1,1,4,1,,,,,,,,,,,,,,,,,,,,,,,,,,,,,,,,,,,,,,,,,
905148,001,2022-11-14_24h27.42.366,Info_measure_main_exp,2022.2.2,MacIntel,59.99520038,,,,,,,,,,,,,,,,,,masks/mask_004.jpg,,,,,,,,,,,,,,,,,,,,,,,,,,,,,,,,,,,,,,,,,,,,,,,,0,2,2,3,1,,,,,,,,,,,,,,,,,,,,,,,,,,,,,,,,,,,,,,,,,
905148,001,2022-11-14_24h27.42.366,Info_measure_main_exp,2022.2.2,MacIntel,59.99520038,,,,,,,,,,,,,,,,,,masks/mask_003.jpg,,,,,,,,,,,,,,,,,,,,,,,,,,,,,,,,,,,,,,,,,,,,,,,,0,3,3,2,1,,,,,,,,,,,,,,,,,,,,,,,,,,,,,,,,,,,,,,,,,
905148,001,2022-11-14_24h27.42.366,Info_measure_main_exp,2022.2.2,MacIntel,59.99520038,,,,,,,,,,,,,,,,,,masks/mask_002.jpg,,,,,,,,,,,,,,,,,,,,,,,,,,,,,,,,,,,,,,,,,,,,,,,,0,4,4,1,1,,,,,,,,,,,,,,,,,,,,,,,,,,,,,,,,,,,,,,,,,
905148,001,2022-11-14_24h27.42.366,Info_measure_main_exp,2022.2.2,MacIntel,59.99520038,,,,,,,,,,,,,,,,,,,,,,,,,,,,,,6,2.033,1,,,,,,,,,,,,0,131,5,5,2274,2190,absent_patch/patch0002274.jpg,absent_patch/patch0002190.jpg,,,,,,,,,,,,,,,,,,,,0.209210256,0.143066491,1,0,0,response1disk,2,0.008689986,-0.000324154,1,0,0,center_square,0,1,1,116,1,,,,,,,,,,,,,,,,,,,,,,,
905148,001,2022-11-14_24h27.42.366,Info_measure_main_exp,2022.2.2,MacIntel,59.99520038,,,,,,,,,,,,,,,,,,masks/mask_004.jpg,,,,,,,,,,,,,,,,,,,,,,,,,,,,,,,,,,,,,,,,,,,0,0,0,3,1,,,,,,,,,,,,,,,,,,,,,,,,,,,,,,,,,,,,,,,,,,,,,,
905148,001,2022-11-14_24h27.42.366,Info_measure_main_exp,2022.2.2,MacIntel,59.99520038,,,,,,,,,,,,,,,,,,masks/mask_001.jpg,,,,,,,,,,,,,,,,,,,,,,,,,,,,,,,,,,,,,,,,,,,0,1,1,0,1,,,,,,,,,,,,,,,,,,,,,,,,,,,,,,,,,,,,,,,,,,,,,,
905148,001,2022-11-14_24h27.42.366,Info_measure_main_exp,2022.2.2,MacIntel,59.99520038,,,,,,,,,,,,,,,,,,masks/mask_003.jpg,,,,,,,,,,,,,,,,,,,,,,,,,,,,,,,,,,,,,,,,,,,0,2,2,2,1,,,,,,,,,,,,,,,,,,,,,,,,,,,,,,,,,,,,,,,,,,,,,,
905148,001,2022-11-14_24h27.42.366,Info_measure_main_exp,2022.2.2,MacIntel,59.99520038,,,,,,,,,,,,,,,,,,masks/mask_002.jpg,,,,,,,,,,,,,,,,,,,,,,,,,,,,,,,,,,,,,,,,,,,0,3,3,1,1,,,,,,,,,,,,,,,,,,,,,,,,,,,,,,,,,,,,,,,,,,,,,,
905148,001,2022-11-14_24h27.42.366,Info_measure_main_exp,2022.2.2,MacIntel,59.99520038,,,,,,,,,,,,,,,,,,masks/mask_005.jpg,,,,,,,,,,,,,,,,,,,,,,,,,,,,,,,,,,,,,,,,,,,0,4,4,4,1,,,,,,,,,,,,,,,,,,,,,,,,,,,,,,,,,,,,,,,,,,,,,,
905148,001,2022-11-14_24h27.42.366,Info_measure_main_exp,2022.2.2,MacIntel,59.99520038,,,,,,,,,,,,,,,,,,masks/mask_002.jpg,,,,,,,,,,,,,,,,,,,,,,,,,,,,,,,,,,,,,,,,,,,,,,,,0,0,0,1,1,,,,,,,,,,,,,,,,,,,,,,,,,,,,,,,,,,,,,,,,,
905148,001,2022-11-14_24h27.42.366,Info_measure_main_exp,2022.2.2,MacIntel,59.99520038,,,,,,,,,,,,,,,,,,masks/mask_004.jpg,,,,,,,,,,,,,,,,,,,,,,,,,,,,,,,,,,,,,,,,,,,,,,,,0,1,1,3,1,,,,,,,,,,,,,,,,,,,,,,,,,,,,,,,,,,,,,,,,,
905148,001,2022-11-14_24h27.42.366,Info_measure_main_exp,2022.2.2,MacIntel,59.99520038,,,,,,,,,,,,,,,,,,masks/mask_003.jpg,,,,,,,,,,,,,,,,,,,,,,,,,,,,,,,,,,,,,,,,,,,,,,,,0,2,2,2,1,,,,,,,,,,,,,,,,,,,,,,,,,,,,,,,,,,,,,,,,,
905148,001,2022-11-14_24h27.42.366,Info_measure_main_exp,2022.2.2,MacIntel,59.99520038,,,,,,,,,,,,,,,,,,masks/mask_001.jpg,,,,,,,,,,,,,,,,,,,,,,,,,,,,,,,,,,,,,,,,,,,,,,,,0,3,3,0,1,,,,,,,,,,,,,,,,,,,,,,,,,,,,,,,,,,,,,,,,,
905148,001,2022-11-14_24h27.42.366,Info_measure_main_exp,2022.2.2,MacIntel,59.99520038,,,,,,,,,,,,,,,,,,masks/mask_005.jpg,,,,,,,,,,,,,,,,,,,,,,,,,,,,,,,,,,,,,,,,,,,,,,,,0,4,4,4,1,,,,,,,,,,,,,,,,,,,,,,,,,,,,,,,,,,,,,,,,,
905148,001,2022-11-14_24h27.42.366,Info_measure_main_exp,2022.2.2,MacIntel,59.99520038,,,,,,,,,,,,,,,,,,,,,,,,,,,,,,6,0.7497,1,,,,,,,,,,,,0,131,5,5,2190,2238,absent_patch/patch0002190.jpg,absent_patch/patch0002238.jpg,,,,,,,,,,,,,,,,,,,,0.210390551,0.147900188,1,0,0,response1disk,3,0.032280581,0.02373363,1,0,0,center_square,0,2,2,53,1,,,,,,,,,,,,,,,,,,,,,,,
905148,001,2022-11-14_24h27.42.366,Info_measure_main_exp,2022.2.2,MacIntel,59.99520038,,,,,,,,,,,,,,,,,,masks/mask_004.jpg,,,,,,,,,,,,,,,,,,,,,,,,,,,,,,,,,,,,,,,,,,,0,0,0,3,1,,,,,,,,,,,,,,,,,,,,,,,,,,,,,,,,,,,,,,,,,,,,,,
905148,001,2022-11-14_24h27.42.366,Info_measure_main_exp,2022.2.2,MacIntel,59.99520038,,,,,,,,,,,,,,,,,,masks/mask_001.jpg,,,,,,,,,,,,,,,,,,,,,,,,,,,,,,,,,,,,,,,,,,,0,1,1,0,1,,,,,,,,,,,,,,,,,,,,,,,,,,,,,,,,,,,,,,,,,,,,,,
905148,001,2022-11-14_24h27.42.366,Info_measure_main_exp,2022.2.2,MacIntel,59.99520038,,,,,,,,,,,,,,,,,,masks/mask_003.jpg,,,,,,,,,,,,,,,,,,,,,,,,,,,,,,,,,,,,,,,,,,,0,2,2,2,1,,,,,,,,,,,,,,,,,,,,,,,,,,,,,,,,,,,,,,,,,,,,,,
905148,001,2022-11-14_24h27.42.366,Info_measure_main_exp,2022.2.2,MacIntel,59.99520038,,,,,,,,,,,,,,,,,,masks/mask_002.jpg,,,,,,,,,,,,,,,,,,,,,,,,,,,,,,,,,,,,,,,,,,,0,3,3,1,1,,,,,,,,,,,,,,,,,,,,,,,,,,,,,,,,,,,,,,,,,,,,,,
905148,001,2022-11-14_24h27.42.366,Info_measure_main_exp,2022.2.2,MacIntel,59.99520038,,,,,,,,,,,,,,,,,,masks/mask_005.jpg,,,,,,,,,,,,,,,,,,,,,,,,,,,,,,,,,,,,,,,,,,,0,4,4,4,1,,,,,,,,,,,,,,,,,,,,,,,,,,,,,,,,,,,,,,,,,,,,,,
905148,001,2022-11-14_24h27.42.366,Info_measure_main_exp,2022.2.2,MacIntel,59.99520038,,,,,,,,,,,,,,,,,,masks/mask_003.jpg,,,,,,,,,,,,,,,,,,,,,,,,,,,,,,,,,,,,,,,,,,,,,,,,0,0,0,2,1,,,,,,,,,,,,,,,,,,,,,,,,,,,,,,,,,,,,,,,,,
905148,001,2022-11-14_24h27.42.366,Info_measure_main_exp,2022.2.2,MacIntel,59.99520038,,,,,,,,,,,,,,,,,,masks/mask_004.jpg,,,,,,,,,,,,,,,,,,,,,,,,,,,,,,,,,,,,,,,,,,,,,,,,0,1,1,3,1,,,,,,,,,,,,,,,,,,,,,,,,,,,,,,,,,,,,,,,,,
905148,001,2022-11-14_24h27.42.366,Info_measure_main_exp,2022.2.2,MacIntel,59.99520038,,,,,,,,,,,,,,,,,,masks/mask_001.jpg,,,,,,,,,,,,,,,,,,,,,,,,,,,,,,,,,,,,,,,,,,,,,,,,0,2,2,0,1,,,,,,,,,,,,,,,,,,,,,,,,,,,,,,,,,,,,,,,,,
905148,001,2022-11-14_24h27.42.366,Info_measure_main_exp,2022.2.2,MacIntel,59.99520038,,,,,,,,,,,,,,,,,,masks/mask_002.jpg,,,,,,,,,,,,,,,,,,,,,,,,,,,,,,,,,,,,,,,,,,,,,,,,0,3,3,1,1,,,,,,,,,,,,,,,,,,,,,,,,,,,,,,,,,,,,,,,,,
905148,001,2022-11-14_24h27.42.366,Info_measure_main_exp,2022.2.2,MacIntel,59.99520038,,,,,,,,,,,,,,,,,,masks/mask_005.jpg,,,,,,,,,,,,,,,,,,,,,,,,,,,,,,,,,,,,,,,,,,,,,,,,0,4,4,4,1,,,,,,,,,,,,,,,,,,,,,,,,,,,,,,,,,,,,,,,,,
905148,001,2022-11-14_24h27.42.366,Info_measure_main_exp,2022.2.2,MacIntel,59.99520038,,,,,,,,,,,,,,,,,,,,,,,,,,,,,,6,0.6837,1,,,,,,,,,,,,0,131,5,5,2250,2238,absent_patch/patch0002250.jpg,absent_patch/patch0002238.jpg,,,,,,,,,,,,,,,,,,,,0.164474868,0.055717151,1,0,0,response1disk,4,0.013527318,-0.018827993,1,0,0,center_square,0,3,3,110,1,,,,,,,,,,,,,,,,,,,,,,,
905148,001,2022-11-14_24h27.42.366,Info_measure_main_exp,2022.2.2,MacIntel,59.99520038,,,,,,,,,,,,,,,,,,masks/mask_004.jpg,,,,,,,,,,,,,,,,,,,,,,,,,,,,,,,,,,,,,,,,,,,0,0,0,3,1,,,,,,,,,,,,,,,,,,,,,,,,,,,,,,,,,,,,,,,,,,,,,,
905148,001,2022-11-14_24h27.42.366,Info_measure_main_exp,2022.2.2,MacIntel,59.99520038,,,,,,,,,,,,,,,,,,masks/mask_005.jpg,,,,,,,,,,,,,,,,,,,,,,,,,,,,,,,,,,,,,,,,,,,0,1,1,4,1,,,,,,,,,,,,,,,,,,,,,,,,,,,,,,,,,,,,,,,,,,,,,,
905148,001,2022-11-14_24h27.42.366,Info_measure_main_exp,2022.2.2,MacIntel,59.99520038,,,,,,,,,,,,,,,,,,masks/mask_002.jpg,,,,,,,,,,,,,,,,,,,,,,,,,,,,,,,,,,,,,,,,,,,0,2,2,1,1,,,,,,,,,,,,,,,,,,,,,,,,,,,,,,,,,,,,,,,,,,,,,,
905148,001,2022-11-14_24h27.42.366,Info_measure_main_exp,2022.2.2,MacIntel,59.99520038,,,,,,,,,,,,,,,,,,masks/mask_001.jpg,,,,,,,,,,,,,,,,,,,,,,,,,,,,,,,,,,,,,,,,,,,0,3,3,0,1,,,,,,,,,,,,,,,,,,,,,,,,,,,,,,,,,,,,,,,,,,,,,,
905148,001,2022-11-14_24h27.42.366,Info_measure_main_exp,2022.2.2,MacIntel,59.99520038,,,,,,,,,,,,,,,,,,masks/mask_003.jpg,,,,,,,,,,,,,,,,,,,,,,,,,,,,,,,,,,,,,,,,,,,0,4,4,2,1,,,,,,,,,,,,,,,,,,,,,,,,,,,,,,,,,,,,,,,,,,,,,,
905148,001,2022-11-14_24h27.42.366,Info_measure_main_exp,2022.2.2,MacIntel,59.99520038,,,,,,,,,,,,,,,,,,masks/mask_003.jpg,,,,,,,,,,,,,,,,,,,,,,,,,,,,,,,,,,,,,,,,,,,,,,,,0,0,0,2,1,,,,,,,,,,,,,,,,,,,,,,,,,,,,,,,,,,,,,,,,,
905148,001,2022-11-14_24h27.42.366,Info_measure_main_exp,2022.2.2,MacIntel,59.99520038,,,,,,,,,,,,,,,,,,masks/mask_002.jpg,,,,,,,,,,,,,,,,,,,,,,,,,,,,,,,,,,,,,,,,,,,,,,,,0,1,1,1,1,,,,,,,,,,,,,,,,,,,,,,,,,,,,,,,,,,,,,,,,,
905148,001,2022-11-14_24h27.42.366,Info_measure_main_exp,2022.2.2,MacIntel,59.99520038,,,,,,,,,,,,,,,,,,masks/mask_001.jpg,,,,,,,,,,,,,,,,,,,,,,,,,,,,,,,,,,,,,,,,,,,,,,,,0,2,2,0,1,,,,,,,,,,,,,,,,,,,,,,,,,,,,,,,,,,,,,,,,,
905148,001,2022-11-14_24h27.42.366,Info_measure_main_exp,2022.2.2,MacIntel,59.99520038,,,,,,,,,,,,,,,,,,masks/mask_005.jpg,,,,,,,,,,,,,,,,,,,,,,,,,,,,,,,,,,,,,,,,,,,,,,,,0,3,3,4,1,,,,,,,,,,,,,,,,,,,,,,,,,,,,,,,,,,,,,,,,,
905148,001,2022-11-14_24h27.42.366,Info_measure_main_exp,2022.2.2,MacIntel,59.99520038,,,,,,,,,,,,,,,,,,masks/mask_004.jpg,,,,,,,,,,,,,,,,,,,,,,,,,,,,,,,,,,,,,,,,,,,,,,,,0,4,4,3,1,,,,,,,,,,,,,,,,,,,,,,,,,,,,,,,,,,,,,,,,,
905148,001,2022-11-14_24h27.42.366,Info_measure_main_exp,2022.2.2,MacIntel,59.99520038,,,,,,,,,,,,,,,,,,,,,,,,,,,,,,6,0.5334,1,,,,,,,,,,,,0,131,5,5,2142,2166,absent_patch/patch0002142.jpg,absent_patch/patch0002166.jpg,,,,,,,,,,,,,,,,,,,,0.236238009,0.111364983,1,0,0,response1disk,5,0.021698759,-0.000687026,1,0,0,center_square,0,4,4,66,1,,,,,,,,,,,,,,,,,,,,,,,
905148,001,2022-11-14_24h27.42.366,Info_measure_main_exp,2022.2.2,MacIntel,59.99520038,,,,,,,,,,,,,,,,,,masks/mask_005.jpg,,,,,,,,,,,,,,,,,,,,,,,,,,,,,,,,,,,,,,,,,,,0,0,0,4,1,,,,,,,,,,,,,,,,,,,,,,,,,,,,,,,,,,,,,,,,,,,,,,
905148,001,2022-11-14_24h27.42.366,Info_measure_main_exp,2022.2.2,MacIntel,59.99520038,,,,,,,,,,,,,,,,,,masks/mask_003.jpg,,,,,,,,,,,,,,,,,,,,,,,,,,,,,,,,,,,,,,,,,,,0,1,1,2,1,,,,,,,,,,,,,,,,,,,,,,,,,,,,,,,,,,,,,,,,,,,,,,
905148,001,2022-11-14_24h27.42.366,Info_measure_main_exp,2022.2.2,MacIntel,59.99520038,,,,,,,,,,,,,,,,,,masks/mask_001.jpg,,,,,,,,,,,,,,,,,,,,,,,,,,,,,,,,,,,,,,,,,,,0,2,2,0,1,,,,,,,,,,,,,,,,,,,,,,,,,,,,,,,,,,,,,,,,,,,,,,
905148,001,2022-11-14_24h27.42.366,Info_measure_main_exp,2022.2.2,MacIntel,59.99520038,,,,,,,,,,,,,,,,,,masks/mask_004.jpg,,,,,,,,,,,,,,,,,,,,,,,,,,,,,,,,,,,,,,,,,,,0,3,3,3,1,,,,,,,,,,,,,,,,,,,,,,,,,,,,,,,,,,,,,,,,,,,,,,
905148,001,2022-11-14_24h27.42.366,Info_measure_main_exp,2022.2.2,MacIntel,59.99520038,,,,,,,,,,,,,,,,,,masks/mask_002.jpg,,,,,,,,,,,,,,,,,,,,,,,,,,,,,,,,,,,,,,,,,,,0,4,4,1,1,,,,,,,,,,,,,,,,,,,,,,,,,,,,,,,,,,,,,,,,,,,,,,
905148,001,2022-11-14_24h27.42.366,Info_measure_main_exp,2022.2.2,MacIntel,59.99520038,,,,,,,,,,,,,,,,,,masks/mask_005.jpg,,,,,,,,,,,,,,,,,,,,,,,,,,,,,,,,,,,,,,,,,,,,,,,,0,0,0,4,1,,,,,,,,,,,,,,,,,,,,,,,,,,,,,,,,,,,,,,,,,
905148,001,2022-11-14_24h27.42.366,Info_measure_main_exp,2022.2.2,MacIntel,59.99520038,,,,,,,,,,,,,,,,,,masks/mask_004.jpg,,,,,,,,,,,,,,,,,,,,,,,,,,,,,,,,,,,,,,,,,,,,,,,,0,1,1,3,1,,,,,,,,,,,,,,,,,,,,,,,,,,,,,,,,,,,,,,,,,
905148,001,2022-11-14_24h27.42.366,Info_measure_main_exp,2022.2.2,MacIntel,59.99520038,,,,,,,,,,,,,,,,,,masks/mask_001.jpg,,,,,,,,,,,,,,,,,,,,,,,,,,,,,,,,,,,,,,,,,,,,,,,,0,2,2,0,1,,,,,,,,,,,,,,,,,,,,,,,,,,,,,,,,,,,,,,,,,
905148,001,2022-11-14_24h27.42.366,Info_measure_main_exp,2022.2.2,MacIntel,59.99520038,,,,,,,,,,,,,,,,,,masks/mask_003.jpg,,,,,,,,,,,,,,,,,,,,,,,,,,,,,,,,,,,,,,,,,,,,,,,,0,3,3,2,1,,,,,,,,,,,,,,,,,,,,,,,,,,,,,,,,,,,,,,,,,
905148,001,2022-11-14_24h27.42.366,Info_measure_main_exp,2022.2.2,MacIntel,59.99520038,,,,,,,,,,,,,,,,,,masks/mask_002.jpg,,,,,,,,,,,,,,,,,,,,,,,,,,,,,,,,,,,,,,,,,,,,,,,,0,4,4,1,1,,,,,,,,,,,,,,,,,,,,,,,,,,,,,,,,,,,,,,,,,
905148,001,2022-11-14_24h27.42.366,Info_measure_main_exp,2022.2.2,MacIntel,59.99520038,,,,,,,,,,,,,,,,,,,,,,,,,,,,,,1,0.716,1,,,,,,,,,,,,0,131,5,5,2190,2190,absent_patch/patch0002190.jpg,absent_patch/patch0002190.jpg,,,,,,,,,,,,,,,,,,,,-0.21473994,0.105889402,1,0,0,response7disk,6,-0.020485579,-0.001607414,1,0,0,center_square,0,5,5,86,1,,,,,,,,,,,,,,,,,,,,,,,
905148,001,2022-11-14_24h27.42.366,Info_measure_main_exp,2022.2.2,MacIntel,59.99520038,,,,,,,,,,,,,,,,,,masks/mask_003.jpg,,,,,,,,,,,,,,,,,,,,,,,,,,,,,,,,,,,,,,,,,,,0,0,0,2,1,,,,,,,,,,,,,,,,,,,,,,,,,,,,,,,,,,,,,,,,,,,,,,
905148,001,2022-11-14_24h27.42.366,Info_measure_main_exp,2022.2.2,MacIntel,59.99520038,,,,,,,,,,,,,,,,,,masks/mask_005.jpg,,,,,,,,,,,,,,,,,,,,,,,,,,,,,,,,,,,,,,,,,,,0,1,1,4,1,,,,,,,,,,,,,,,,,,,,,,,,,,,,,,,,,,,,,,,,,,,,,,
905148,001,2022-11-14_24h27.42.366,Info_measure_main_exp,2022.2.2,MacIntel,59.99520038,,,,,,,,,,,,,,,,,,masks/mask_002.jpg,,,,,,,,,,,,,,,,,,,,,,,,,,,,,,,,,,,,,,,,,,,0,2,2,1,1,,,,,,,,,,,,,,,,,,,,,,,,,,,,,,,,,,,,,,,,,,,,,,
905148,001,2022-11-14_24h27.42.366,Info_measure_main_exp,2022.2.2,MacIntel,59.99520038,,,,,,,,,,,,,,,,,,masks/mask_001.jpg,,,,,,,,,,,,,,,,,,,,,,,,,,,,,,,,,,,,,,,,,,,0,3,3,0,1,,,,,,,,,,,,,,,,,,,,,,,,,,,,,,,,,,,,,,,,,,,,,,
905148,001,2022-11-14_24h27.42.366,Info_measure_main_exp,2022.2.2,MacIntel,59.99520038,,,,,,,,,,,,,,,,,,masks/mask_004.jpg,,,,,,,,,,,,,,,,,,,,,,,,,,,,,,,,,,,,,,,,,,,0,4,4,3,1,,,,,,,,,,,,,,,,,,,,,,,,,,,,,,,,,,,,,,,,,,,,,,
905148,001,2022-11-14_24h27.42.366,Info_measure_main_exp,2022.2.2,MacIntel,59.99520038,,,,,,,,,,,,,,,,,,masks/mask_003.jpg,,,,,,,,,,,,,,,,,,,,,,,,,,,,,,,,,,,,,,,,,,,,,,,,0,0,0,2,1,,,,,,,,,,,,,,,,,,,,,,,,,,,,,,,,,,,,,,,,,
905148,001,2022-11-14_24h27.42.366,Info_measure_main_exp,2022.2.2,MacIntel,59.99520038,,,,,,,,,,,,,,,,,,masks/mask_004.jpg,,,,,,,,,,,,,,,,,,,,,,,,,,,,,,,,,,,,,,,,,,,,,,,,0,1,1,3,1,,,,,,,,,,,,,,,,,,,,,,,,,,,,,,,,,,,,,,,,,
905148,001,2022-11-14_24h27.42.366,Info_measure_main_exp,2022.2.2,MacIntel,59.99520038,,,,,,,,,,,,,,,,,,masks/mask_001.jpg,,,,,,,,,,,,,,,,,,,,,,,,,,,,,,,,,,,,,,,,,,,,,,,,0,2,2,0,1,,,,,,,,,,,,,,,,,,,,,,,,,,,,,,,,,,,,,,,,,
905148,001,2022-11-14_24h27.42.366,Info_measure_main_exp,2022.2.2,MacIntel,59.99520038,,,,,,,,,,,,,,,,,,masks/mask_002.jpg,,,,,,,,,,,,,,,,,,,,,,,,,,,,,,,,,,,,,,,,,,,,,,,,0,3,3,1,1,,,,,,,,,,,,,,,,,,,,,,,,,,,,,,,,,,,,,,,,,
905148,001,2022-11-14_24h27.42.366,Info_measure_main_exp,2022.2.2,MacIntel,59.99520038,,,,,,,,,,,,,,,,,,masks/mask_005.jpg,,,,,,,,,,,,,,,,,,,,,,,,,,,,,,,,,,,,,,,,,,,,,,,,0,4,4,4,1,,,,,,,,,,,,,,,,,,,,,,,,,,,,,,,,,,,,,,,,,
905148,001,2022-11-14_24h27.42.366,Info_measure_main_exp,2022.2.2,MacIntel,59.99520038,,,,,,,,,,,,,,,,,,,,,,,,,,,,,,6,0.6167,1,,,,,,,,,,,,0,131,5,5,2250,2214,absent_patch/patch0002250.jpg,absent_patch/patch0002214.jpg,,,,,,,,,,,,,,,,,,,,0.253806497,0.111497705,1,0,0,response1disk,7,0.006639053,0.014823216,1,0,0,center_square,0,6,6,97,1,,,,,,,,,,,,,,,,,,,,,,,
905148,001,2022-11-14_24h27.42.366,Info_measure_main_exp,2022.2.2,MacIntel,59.99520038,,,,,,,,,,,,,,,,,,masks/mask_001.jpg,,,,,,,,,,,,,,,,,,,,,,,,,,,,,,,,,,,,,,,,,,,0,0,0,0,1,,,,,,,,,,,,,,,,,,,,,,,,,,,,,,,,,,,,,,,,,,,,,,
905148,001,2022-11-14_24h27.42.366,Info_measure_main_exp,2022.2.2,MacIntel,59.99520038,,,,,,,,,,,,,,,,,,masks/mask_005.jpg,,,,,,,,,,,,,,,,,,,,,,,,,,,,,,,,,,,,,,,,,,,0,1,1,4,1,,,,,,,,,,,,,,,,,,,,,,,,,,,,,,,,,,,,,,,,,,,,,,
905148,001,2022-11-14_24h27.42.366,Info_measure_main_exp,2022.2.2,MacIntel,59.99520038,,,,,,,,,,,,,,,,,,masks/mask_002.jpg,,,,,,,,,,,,,,,,,,,,,,,,,,,,,,,,,,,,,,,,,,,0,2,2,1,1,,,,,,,,,,,,,,,,,,,,,,,,,,,,,,,,,,,,,,,,,,,,,,
905148,001,2022-11-14_24h27.42.366,Info_measure_main_exp,2022.2.2,MacIntel,59.99520038,,,,,,,,,,,,,,,,,,masks/mask_003.jpg,,,,,,,,,,,,,,,,,,,,,,,,,,,,,,,,,,,,,,,,,,,0,3,3,2,1,,,,,,,,,,,,,,,,,,,,,,,,,,,,,,,,,,,,,,,,,,,,,,
905148,001,2022-11-14_24h27.42.366,Info_measure_main_exp,2022.2.2,MacIntel,59.99520038,,,,,,,,,,,,,,,,,,masks/mask_004.jpg,,,,,,,,,,,,,,,,,,,,,,,,,,,,,,,,,,,,,,,,,,,0,4,4,3,1,,,,,,,,,,,,,,,,,,,,,,,,,,,,,,,,,,,,,,,,,,,,,,
905148,001,2022-11-14_24h27.42.366,Info_measure_main_exp,2022.2.2,MacIntel,59.99520038,,,,,,,,,,,,,,,,,,masks/mask_004.jpg,,,,,,,,,,,,,,,,,,,,,,,,,,,,,,,,,,,,,,,,,,,,,,,,0,0,0,3,1,,,,,,,,,,,,,,,,,,,,,,,,,,,,,,,,,,,,,,,,,
905148,001,2022-11-14_24h27.42.366,Info_measure_main_exp,2022.2.2,MacIntel,59.99520038,,,,,,,,,,,,,,,,,,masks/mask_001.jpg,,,,,,,,,,,,,,,,,,,,,,,,,,,,,,,,,,,,,,,,,,,,,,,,0,1,1,0,1,,,,,,,,,,,,,,,,,,,,,,,,,,,,,,,,,,,,,,,,,
905148,001,2022-11-14_24h27.42.366,Info_measure_main_exp,2022.2.2,MacIntel,59.99520038,,,,,,,,,,,,,,,,,,masks/mask_005.jpg,,,,,,,,,,,,,,,,,,,,,,,,,,,,,,,,,,,,,,,,,,,,,,,,0,2,2,4,1,,,,,,,,,,,,,,,,,,,,,,,,,,,,,,,,,,,,,,,,,
905148,001,2022-11-14_24h27.42.366,Info_measure_main_exp,2022.2.2,MacIntel,59.99520038,,,,,,,,,,,,,,,,,,masks/mask_002.jpg,,,,,,,,,,,,,,,,,,,,,,,,,,,,,,,,,,,,,,,,,,,,,,,,0,3,3,1,1,,,,,,,,,,,,,,,,,,,,,,,,,,,,,,,,,,,,,,,,,
905148,001,2022-11-14_24h27.42.366,Info_measure_main_exp,2022.2.2,MacIntel,59.99520038,,,,,,,,,,,,,,,,,,masks/mask_003.jpg,,,,,,,,,,,,,,,,,,,,,,,,,,,,,,,,,,,,,,,,,,,,,,,,0,4,4,2,1,,,,,,,,,,,,,,,,,,,,,,,,,,,,,,,,,,,,,,,,,
905148,001,2022-11-14_24h27.42.366,Info_measure_main_exp,2022.2.2,MacIntel,59.99520038,,,,,,,,,,,,,,,,,,,,,,,,,,,,,,5,1.8674,1,,,,,,,,,,,,0,131,5,5,1974,2166,absent_patch/patch0001974.jpg,absent_patch/patch0002166.jpg,,,,,,,,,,,,,,,,,,,,0.1919439,-0.114721071,1,0,0,response3disk,8,0.008295117,0.006384218,1,0,0,center_square,0,7,7,77,1,,,,,,,,,,,,,,,,,,,,,,,
905148,001,2022-11-14_24h27.42.366,Info_measure_main_exp,2022.2.2,MacIntel,59.99520038,,,,,,,,,,,,,,,,,,masks/mask_003.jpg,,,,,,,,,,,,,,,,,,,,,,,,,,,,,,,,,,,,,,,,,,,0,0,0,2,1,,,,,,,,,,,,,,,,,,,,,,,,,,,,,,,,,,,,,,,,,,,,,,
905148,001,2022-11-14_24h27.42.366,Info_measure_main_exp,2022.2.2,MacIntel,59.99520038,,,,,,,,,,,,,,,,,,masks/mask_001.jpg,,,,,,,,,,,,,,,,,,,,,,,,,,,,,,,,,,,,,,,,,,,0,1,1,0,1,,,,,,,,,,,,,,,,,,,,,,,,,,,,,,,,,,,,,,,,,,,,,,
905148,001,2022-11-14_24h27.42.366,Info_measure_main_exp,2022.2.2,MacIntel,59.99520038,,,,,,,,,,,,,,,,,,masks/mask_002.jpg,,,,,,,,,,,,,,,,,,,,,,,,,,,,,,,,,,,,,,,,,,,0,2,2,1,1,,,,,,,,,,,,,,,,,,,,,,,,,,,,,,,,,,,,,,,,,,,,,,
905148,001,2022-11-14_24h27.42.366,Info_measure_main_exp,2022.2.2,MacIntel,59.99520038,,,,,,,,,,,,,,,,,,masks/mask_005.jpg,,,,,,,,,,,,,,,,,,,,,,,,,,,,,,,,,,,,,,,,,,,0,3,3,4,1,,,,,,,,,,,,,,,,,,,,,,,,,,,,,,,,,,,,,,,,,,,,,,
905148,001,2022-11-14_24h27.42.366,Info_measure_main_exp,2022.2.2,MacIntel,59.99520038,,,,,,,,,,,,,,,,,,masks/mask_004.jpg,,,,,,,,,,,,,,,,,,,,,,,,,,,,,,,,,,,,,,,,,,,0,4,4,3,1,,,,,,,,,,,,,,,,,,,,,,,,,,,,,,,,,,,,,,,,,,,,,,
905148,001,2022-11-14_24h27.42.366,Info_measure_main_exp,2022.2.2,MacIntel,59.99520038,,,,,,,,,,,,,,,,,,masks/mask_003.jpg,,,,,,,,,,,,,,,,,,,,,,,,,,,,,,,,,,,,,,,,,,,,,,,,0,0,0,2,1,,,,,,,,,,,,,,,,,,,,,,,,,,,,,,,,,,,,,,,,,
905148,001,2022-11-14_24h27.42.366,Info_measure_main_exp,2022.2.2,MacIntel,59.99520038,,,,,,,,,,,,,,,,,,masks/mask_004.jpg,,,,,,,,,,,,,,,,,,,,,,,,,,,,,,,,,,,,,,,,,,,,,,,,0,1,1,3,1,,,,,,,,,,,,,,,,,,,,,,,,,,,,,,,,,,,,,,,,,
905148,001,2022-11-14_24h27.42.366,Info_measure_main_exp,2022.2.2,MacIntel,59.99520038,,,,,,,,,,,,,,,,,,masks/mask_005.jpg,,,,,,,,,,,,,,,,,,,,,,,,,,,,,,,,,,,,,,,,,,,,,,,,0,2,2,4,1,,,,,,,,,,,,,,,,,,,,,,,,,,,,,,,,,,,,,,,,,
905148,001,2022-11-14_24h27.42.366,Info_measure_main_exp,2022.2.2,MacIntel,59.99520038,,,,,,,,,,,,,,,,,,masks/mask_001.jpg,,,,,,,,,,,,,,,,,,,,,,,,,,,,,,,,,,,,,,,,,,,,,,,,0,3,3,0,1,,,,,,,,,,,,,,,,,,,,,,,,,,,,,,,,,,,,,,,,,
905148,001,2022-11-14_24h27.42.366,Info_measure_main_exp,2022.2.2,MacIntel,59.99520038,,,,,,,,,,,,,,,,,,masks/mask_002.jpg,,,,,,,,,,,,,,,,,,,,,,,,,,,,,,,,,,,,,,,,,,,,,,,,0,4,4,1,1,,,,,,,,,,,,,,,,,,,,,,,,,,,,,,,,,,,,,,,,,
905148,001,2022-11-14_24h27.42.366,Info_measure_main_exp,2022.2.2,MacIntel,59.99520038,,,,,,,,,,,,,,,,,,,,,,,,,,,,,,4,2.4345,1,,,,,,,,,,,,1,131,5,5,1,1986,present_patch/cong_131_5_a.jpg,absent_patch/patch0001986.jpg,,,,,,,,,,,,,,,,,,,,0.11616681,-0.24085132,1,0,0,response3disk,9,-0.006690028,-0.007305959,1,0,0,center_square,0,8,8,106,1,,,,,,,,,,,,,,,,,,,,,,,
905148,001,2022-11-14_24h27.42.366,Info_measure_main_exp,2022.2.2,MacIntel,59.99520038,,,,,,,,,,,,,,,,,,masks/mask_002.jpg,,,,,,,,,,,,,,,,,,,,,,,,,,,,,,,,,,,,,,,,,,,0,0,0,1,1,,,,,,,,,,,,,,,,,,,,,,,,,,,,,,,,,,,,,,,,,,,,,,
905148,001,2022-11-14_24h27.42.366,Info_measure_main_exp,2022.2.2,MacIntel,59.99520038,,,,,,,,,,,,,,,,,,masks/mask_001.jpg,,,,,,,,,,,,,,,,,,,,,,,,,,,,,,,,,,,,,,,,,,,0,1,1,0,1,,,,,,,,,,,,,,,,,,,,,,,,,,,,,,,,,,,,,,,,,,,,,,
905148,001,2022-11-14_24h27.42.366,Info_measure_main_exp,2022.2.2,MacIntel,59.99520038,,,,,,,,,,,,,,,,,,masks/mask_005.jpg,,,,,,,,,,,,,,,,,,,,,,,,,,,,,,,,,,,,,,,,,,,0,2,2,4,1,,,,,,,,,,,,,,,,,,,,,,,,,,,,,,,,,,,,,,,,,,,,,,
905148,001,2022-11-14_24h27.42.366,Info_measure_main_exp,2022.2.2,MacIntel,59.99520038,,,,,,,,,,,,,,,,,,masks/mask_004.jpg,,,,,,,,,,,,,,,,,,,,,,,,,,,,,,,,,,,,,,,,,,,0,3,3,3,1,,,,,,,,,,,,,,,,,,,,,,,,,,,,,,,,,,,,,,,,,,,,,,
905148,001,2022-11-14_24h27.42.366,Info_measure_main_exp,2022.2.2,MacIntel,59.99520038,,,,,,,,,,,,,,,,,,masks/mask_003.jpg,,,,,,,,,,,,,,,,,,,,,,,,,,,,,,,,,,,,,,,,,,,0,4,4,2,1,,,,,,,,,,,,,,,,,,,,,,,,,,,,,,,,,,,,,,,,,,,,,,
905148,001,2022-11-14_24h27.42.366,Info_measure_main_exp,2022.2.2,MacIntel,59.99520038,,,,,,,,,,,,,,,,,,masks/mask_001.jpg,,,,,,,,,,,,,,,,,,,,,,,,,,,,,,,,,,,,,,,,,,,,,,,,0,0,0,0,1,,,,,,,,,,,,,,,,,,,,,,,,,,,,,,,,,,,,,,,,,
905148,001,2022-11-14_24h27.42.366,Info_measure_main_exp,2022.2.2,MacIntel,59.99520038,,,,,,,,,,,,,,,,,,masks/mask_005.jpg,,,,,,,,,,,,,,,,,,,,,,,,,,,,,,,,,,,,,,,,,,,,,,,,0,1,1,4,1,,,,,,,,,,,,,,,,,,,,,,,,,,,,,,,,,,,,,,,,,
905148,001,2022-11-14_24h27.42.366,Info_measure_main_exp,2022.2.2,MacIntel,59.99520038,,,,,,,,,,,,,,,,,,masks/mask_002.jpg,,,,,,,,,,,,,,,,,,,,,,,,,,,,,,,,,,,,,,,,,,,,,,,,0,2,2,1,1,,,,,,,,,,,,,,,,,,,,,,,,,,,,,,,,,,,,,,,,,
905148,001,2022-11-14_24h27.42.366,Info_measure_main_exp,2022.2.2,MacIntel,59.99520038,,,,,,,,,,,,,,,,,,masks/mask_004.jpg,,,,,,,,,,,,,,,,,,,,,,,,,,,,,,,,,,,,,,,,,,,,,,,,0,3,3,3,1,,,,,,,,,,,,,,,,,,,,,,,,,,,,,,,,,,,,,,,,,
905148,001,2022-11-14_24h27.42.366,Info_measure_main_exp,2022.2.2,MacIntel,59.99520038,,,,,,,,,,,,,,,,,,masks/mask_003.jpg,,,,,,,,,,,,,,,,,,,,,,,,,,,,,,,,,,,,,,,,,,,,,,,,0,4,4,2,1,,,,,,,,,,,,,,,,,,,,,,,,,,,,,,,,,,,,,,,,,
905148,001,2022-11-14_24h27.42.366,Info_measure_main_exp,2022.2.2,MacIntel,59.99520038,,,,,,,,,,,,,,,,,,,,,,,,,,,,,,3,1.0832,1,,,,,,,,,,,,1,131,5,5,1,2274,present_patch/cong_131_5_a.jpg,absent_patch/patch0002274.jpg,,,,,,,,,,,,,,,,,,,,-0.048327671,-0.195597641,1,0,0,response5disk,10,0.015352624,0.000383499,1,0,0,center_square,0,9,9,105,1,,,,,,,,,,,,,,,,,,,,,,,
905148,001,2022-11-14_24h27.42.366,Info_measure_main_exp,2022.2.2,MacIntel,59.99520038,,,,,,,,,,,,,,,,,,masks/mask_001.jpg,,,,,,,,,,,,,,,,,,,,,,,,,,,,,,,,,,,,,,,,,,,0,0,0,0,1,,,,,,,,,,,,,,,,,,,,,,,,,,,,,,,,,,,,,,,,,,,,,,
905148,001,2022-11-14_24h27.42.366,Info_measure_main_exp,2022.2.2,MacIntel,59.99520038,,,,,,,,,,,,,,,,,,masks/mask_004.jpg,,,,,,,,,,,,,,,,,,,,,,,,,,,,,,,,,,,,,,,,,,,0,1,1,3,1,,,,,,,,,,,,,,,,,,,,,,,,,,,,,,,,,,,,,,,,,,,,,,
905148,001,2022-11-14_24h27.42.366,Info_measure_main_exp,2022.2.2,MacIntel,59.99520038,,,,,,,,,,,,,,,,,,masks/mask_005.jpg,,,,,,,,,,,,,,,,,,,,,,,,,,,,,,,,,,,,,,,,,,,0,2,2,4,1,,,,,,,,,,,,,,,,,,,,,,,,,,,,,,,,,,,,,,,,,,,,,,
905148,001,2022-11-14_24h27.42.366,Info_measure_main_exp,2022.2.2,MacIntel,59.99520038,,,,,,,,,,,,,,,,,,masks/mask_003.jpg,,,,,,,,,,,,,,,,,,,,,,,,,,,,,,,,,,,,,,,,,,,0,3,3,2,1,,,,,,,,,,,,,,,,,,,,,,,,,,,,,,,,,,,,,,,,,,,,,,
905148,001,2022-11-14_24h27.42.366,Info_measure_main_exp,2022.2.2,MacIntel,59.99520038,,,,,,,,,,,,,,,,,,masks/mask_002.jpg,,,,,,,,,,,,,,,,,,,,,,,,,,,,,,,,,,,,,,,,,,,0,4,4,1,1,,,,,,,,,,,,,,,,,,,,,,,,,,,,,,,,,,,,,,,,,,,,,,
905148,001,2022-11-14_24h27.42.366,Info_measure_main_exp,2022.2.2,MacIntel,59.99520038,,,,,,,,,,,,,,,,,,masks/mask_001.jpg,,,,,,,,,,,,,,,,,,,,,,,,,,,,,,,,,,,,,,,,,,,,,,,,0,0,0,0,1,,,,,,,,,,,,,,,,,,,,,,,,,,,,,,,,,,,,,,,,,
905148,001,2022-11-14_24h27.42.366,Info_measure_main_exp,2022.2.2,MacIntel,59.99520038,,,,,,,,,,,,,,,,,,masks/mask_005.jpg,,,,,,,,,,,,,,,,,,,,,,,,,,,,,,,,,,,,,,,,,,,,,,,,0,1,1,4,1,,,,,,,,,,,,,,,,,,,,,,,,,,,,,,,,,,,,,,,,,
905148,001,2022-11-14_24h27.42.366,Info_measure_main_exp,2022.2.2,MacIntel,59.99520038,,,,,,,,,,,,,,,,,,masks/mask_004.jpg,,,,,,,,,,,,,,,,,,,,,,,,,,,,,,,,,,,,,,,,,,,,,,,,0,2,2,3,1,,,,,,,,,,,,,,,,,,,,,,,,,,,,,,,,,,,,,,,,,
905148,001,2022-11-14_24h27.42.366,Info_measure_main_exp,2022.2.2,MacIntel,59.99520038,,,,,,,,,,,,,,,,,,masks/mask_002.jpg,,,,,,,,,,,,,,,,,,,,,,,,,,,,,,,,,,,,,,,,,,,,,,,,0,3,3,1,1,,,,,,,,,,,,,,,,,,,,,,,,,,,,,,,,,,,,,,,,,
905148,001,2022-11-14_24h27.42.366,Info_measure_main_exp,2022.2.2,MacIntel,59.99520038,,,,,,,,,,,,,,,,,,masks/mask_003.jpg,,,,,,,,,,,,,,,,,,,,,,,,,,,,,,,,,,,,,,,,,,,,,,,,0,4,4,2,1,,,,,,,,,,,,,,,,,,,,,,,,,,,,,,,,,,,,,,,,,
905148,001,2022-11-14_24h27.42.366,Info_measure_main_exp,2022.2.2,MacIntel,59.99520038,,,,,,,,,,,,,,,,,,,,,,,,,,,,,,5,0.8168,1,,,,,,,,,,,,0,131,5,5,2178,2166,absent_patch/patch0002178.jpg,absent_patch/patch0002166.jpg,,,,,,,,,,,,,,,,,,,,0.173307466,-0.082260343,1,0,0,response3disk,11,-0.000563349,-0.001500349,1,0,0,center_square,0,10,10,72,1,,,,,,,,,,,,,,,,,,,,,,,
905148,001,2022-11-14_24h27.42.366,Info_measure_main_exp,2022.2.2,MacIntel,59.99520038,,,,,,,,,,,,,,,,,,masks/mask_005.jpg,,,,,,,,,,,,,,,,,,,,,,,,,,,,,,,,,,,,,,,,,,,0,0,0,4,1,,,,,,,,,,,,,,,,,,,,,,,,,,,,,,,,,,,,,,,,,,,,,,
905148,001,2022-11-14_24h27.42.366,Info_measure_main_exp,2022.2.2,MacIntel,59.99520038,,,,,,,,,,,,,,,,,,masks/mask_003.jpg,,,,,,,,,,,,,,,,,,,,,,,,,,,,,,,,,,,,,,,,,,,0,1,1,2,1,,,,,,,,,,,,,,,,,,,,,,,,,,,,,,,,,,,,,,,,,,,,,,
905148,001,2022-11-14_24h27.42.366,Info_measure_main_exp,2022.2.2,MacIntel,59.99520038,,,,,,,,,,,,,,,,,,masks/mask_001.jpg,,,,,,,,,,,,,,,,,,,,,,,,,,,,,,,,,,,,,,,,,,,0,2,2,0,1,,,,,,,,,,,,,,,,,,,,,,,,,,,,,,,,,,,,,,,,,,,,,,
905148,001,2022-11-14_24h27.42.366,Info_measure_main_exp,2022.2.2,MacIntel,59.99520038,,,,,,,,,,,,,,,,,,masks/mask_004.jpg,,,,,,,,,,,,,,,,,,,,,,,,,,,,,,,,,,,,,,,,,,,0,3,3,3,1,,,,,,,,,,,,,,,,,,,,,,,,,,,,,,,,,,,,,,,,,,,,,,
905148,001,2022-11-14_24h27.42.366,Info_measure_main_exp,2022.2.2,MacIntel,59.99520038,,,,,,,,,,,,,,,,,,masks/mask_002.jpg,,,,,,,,,,,,,,,,,,,,,,,,,,,,,,,,,,,,,,,,,,,0,4,4,1,1,,,,,,,,,,,,,,,,,,,,,,,,,,,,,,,,,,,,,,,,,,,,,,
905148,001,2022-11-14_24h27.42.366,Info_measure_main_exp,2022.2.2,MacIntel,59.99520038,,,,,,,,,,,,,,,,,,masks/mask_003.jpg,,,,,,,,,,,,,,,,,,,,,,,,,,,,,,,,,,,,,,,,,,,,,,,,0,0,0,2,1,,,,,,,,,,,,,,,,,,,,,,,,,,,,,,,,,,,,,,,,,
905148,001,2022-11-14_24h27.42.366,Info_measure_main_exp,2022.2.2,MacIntel,59.99520038,,,,,,,,,,,,,,,,,,masks/mask_001.jpg,,,,,,,,,,,,,,,,,,,,,,,,,,,,,,,,,,,,,,,,,,,,,,,,0,1,1,0,1,,,,,,,,,,,,,,,,,,,,,,,,,,,,,,,,,,,,,,,,,
905148,001,2022-11-14_24h27.42.366,Info_measure_main_exp,2022.2.2,MacIntel,59.99520038,,,,,,,,,,,,,,,,,,masks/mask_002.jpg,,,,,,,,,,,,,,,,,,,,,,,,,,,,,,,,,,,,,,,,,,,,,,,,0,2,2,1,1,,,,,,,,,,,,,,,,,,,,,,,,,,,,,,,,,,,,,,,,,
905148,001,2022-11-14_24h27.42.366,Info_measure_main_exp,2022.2.2,MacIntel,59.99520038,,,,,,,,,,,,,,,,,,masks/mask_004.jpg,,,,,,,,,,,,,,,,,,,,,,,,,,,,,,,,,,,,,,,,,,,,,,,,0,3,3,3,1,,,,,,,,,,,,,,,,,,,,,,,,,,,,,,,,,,,,,,,,,
905148,001,2022-11-14_24h27.42.366,Info_measure_main_exp,2022.2.2,MacIntel,59.99520038,,,,,,,,,,,,,,,,,,masks/mask_005.jpg,,,,,,,,,,,,,,,,,,,,,,,,,,,,,,,,,,,,,,,,,,,,,,,,0,4,4,4,1,,,,,,,,,,,,,,,,,,,,,,,,,,,,,,,,,,,,,,,,,
905148,001,2022-11-14_24h27.42.366,Info_measure_main_exp,2022.2.2,MacIntel,59.99520038,,,,,,,,,,,,,,,,,,,,,,,,,,,,,,6,0.9846,1,,,,,,,,,,,,0,131,5,5,2190,1986,absent_patch/patch0002190.jpg,absent_patch/patch0001986.jpg,,,,,,,,,,,,,,,,,,,,0.186487848,0.075643608,1,0,0,response1disk,12,0.02275859,-0.002048693,1,0,0,center_square,0,11,11,111,1,,,,,,,,,,,,,,,,,,,,,,,
905148,001,2022-11-14_24h27.42.366,Info_measure_main_exp,2022.2.2,MacIntel,59.99520038,,,,,,,,,,,,,,,,,,masks/mask_004.jpg,,,,,,,,,,,,,,,,,,,,,,,,,,,,,,,,,,,,,,,,,,,0,0,0,3,1,,,,,,,,,,,,,,,,,,,,,,,,,,,,,,,,,,,,,,,,,,,,,,
905148,001,2022-11-14_24h27.42.366,Info_measure_main_exp,2022.2.2,MacIntel,59.99520038,,,,,,,,,,,,,,,,,,masks/mask_005.jpg,,,,,,,,,,,,,,,,,,,,,,,,,,,,,,,,,,,,,,,,,,,0,1,1,4,1,,,,,,,,,,,,,,,,,,,,,,,,,,,,,,,,,,,,,,,,,,,,,,
905148,001,2022-11-14_24h27.42.366,Info_measure_main_exp,2022.2.2,MacIntel,59.99520038,,,,,,,,,,,,,,,,,,masks/mask_001.jpg,,,,,,,,,,,,,,,,,,,,,,,,,,,,,,,,,,,,,,,,,,,0,2,2,0,1,,,,,,,,,,,,,,,,,,,,,,,,,,,,,,,,,,,,,,,,,,,,,,
905148,001,2022-11-14_24h27.42.366,Info_measure_main_exp,2022.2.2,MacIntel,59.99520038,,,,,,,,,,,,,,,,,,masks/mask_003.jpg,,,,,,,,,,,,,,,,,,,,,,,,,,,,,,,,,,,,,,,,,,,0,3,3,2,1,,,,,,,,,,,,,,,,,,,,,,,,,,,,,,,,,,,,,,,,,,,,,,
905148,001,2022-11-14_24h27.42.366,Info_measure_main_exp,2022.2.2,MacIntel,59.99520038,,,,,,,,,,,,,,,,,,masks/mask_002.jpg,,,,,,,,,,,,,,,,,,,,,,,,,,,,,,,,,,,,,,,,,,,0,4,4,1,1,,,,,,,,,,,,,,,,,,,,,,,,,,,,,,,,,,,,,,,,,,,,,,
905148,001,2022-11-14_24h27.42.366,Info_measure_main_exp,2022.2.2,MacIntel,59.99520038,,,,,,,,,,,,,,,,,,masks/mask_002.jpg,,,,,,,,,,,,,,,,,,,,,,,,,,,,,,,,,,,,,,,,,,,,,,,,0,0,0,1,1,,,,,,,,,,,,,,,,,,,,,,,,,,,,,,,,,,,,,,,,,
905148,001,2022-11-14_24h27.42.366,Info_measure_main_exp,2022.2.2,MacIntel,59.99520038,,,,,,,,,,,,,,,,,,masks/mask_001.jpg,,,,,,,,,,,,,,,,,,,,,,,,,,,,,,,,,,,,,,,,,,,,,,,,0,1,1,0,1,,,,,,,,,,,,,,,,,,,,,,,,,,,,,,,,,,,,,,,,,
905148,001,2022-11-14_24h27.42.366,Info_measure_main_exp,2022.2.2,MacIntel,59.99520038,,,,,,,,,,,,,,,,,,masks/mask_003.jpg,,,,,,,,,,,,,,,,,,,,,,,,,,,,,,,,,,,,,,,,,,,,,,,,0,2,2,2,1,,,,,,,,,,,,,,,,,,,,,,,,,,,,,,,,,,,,,,,,,
905148,001,2022-11-14_24h27.42.366,Info_measure_main_exp,2022.2.2,MacIntel,59.99520038,,,,,,,,,,,,,,,,,,masks/mask_005.jpg,,,,,,,,,,,,,,,,,,,,,,,,,,,,,,,,,,,,,,,,,,,,,,,,0,3,3,4,1,,,,,,,,,,,,,,,,,,,,,,,,,,,,,,,,,,,,,,,,,
905148,001,2022-11-14_24h27.42.366,Info_measure_main_exp,2022.2.2,MacIntel,59.99520038,,,,,,,,,,,,,,,,,,masks/mask_004.jpg,,,,,,,,,,,,,,,,,,,,,,,,,,,,,,,,,,,,,,,,,,,,,,,,0,4,4,3,1,,,,,,,,,,,,,,,,,,,,,,,,,,,,,,,,,,,,,,,,,
905148,001,2022-11-14_24h27.42.366,Info_measure_main_exp,2022.2.2,MacIntel,59.99520038,,,,,,,,,,,,,,,,,,,,,,,,,,,,,,5,0.7997,1,,,,,,,,,,,,0,131,5,5,2166,1986,absent_patch/patch0002166.jpg,absent_patch/patch0001986.jpg,,,,,,,,,,,,,,,,,,,,0.120185324,-0.018670925,1,0,0,response3disk,13,0.005938501,-0.004254243,1,0,0,center_square,0,12,12,47,1,,,,,,,,,,,,,,,,,,,,,,,
905148,001,2022-11-14_24h27.42.366,Info_measure_main_exp,2022.2.2,MacIntel,59.99520038,,,,,,,,,,,,,,,,,,masks/mask_003.jpg,,,,,,,,,,,,,,,,,,,,,,,,,,,,,,,,,,,,,,,,,,,0,0,0,2,1,,,,,,,,,,,,,,,,,,,,,,,,,,,,,,,,,,,,,,,,,,,,,,
905148,001,2022-11-14_24h27.42.366,Info_measure_main_exp,2022.2.2,MacIntel,59.99520038,,,,,,,,,,,,,,,,,,masks/mask_004.jpg,,,,,,,,,,,,,,,,,,,,,,,,,,,,,,,,,,,,,,,,,,,0,1,1,3,1,,,,,,,,,,,,,,,,,,,,,,,,,,,,,,,,,,,,,,,,,,,,,,
905148,001,2022-11-14_24h27.42.366,Info_measure_main_exp,2022.2.2,MacIntel,59.99520038,,,,,,,,,,,,,,,,,,masks/mask_001.jpg,,,,,,,,,,,,,,,,,,,,,,,,,,,,,,,,,,,,,,,,,,,0,2,2,0,1,,,,,,,,,,,,,,,,,,,,,,,,,,,,,,,,,,,,,,,,,,,,,,
905148,001,2022-11-14_24h27.42.366,Info_measure_main_exp,2022.2.2,MacIntel,59.99520038,,,,,,,,,,,,,,,,,,masks/mask_002.jpg,,,,,,,,,,,,,,,,,,,,,,,,,,,,,,,,,,,,,,,,,,,0,3,3,1,1,,,,,,,,,,,,,,,,,,,,,,,,,,,,,,,,,,,,,,,,,,,,,,
905148,001,2022-11-14_24h27.42.366,Info_measure_main_exp,2022.2.2,MacIntel,59.99520038,,,,,,,,,,,,,,,,,,masks/mask_005.jpg,,,,,,,,,,,,,,,,,,,,,,,,,,,,,,,,,,,,,,,,,,,0,4,4,4,1,,,,,,,,,,,,,,,,,,,,,,,,,,,,,,,,,,,,,,,,,,,,,,
905148,001,2022-11-14_24h27.42.366,Info_measure_main_exp,2022.2.2,MacIntel,59.99520038,,,,,,,,,,,,,,,,,,masks/mask_005.jpg,,,,,,,,,,,,,,,,,,,,,,,,,,,,,,,,,,,,,,,,,,,,,,,,0,0,0,4,1,,,,,,,,,,,,,,,,,,,,,,,,,,,,,,,,,,,,,,,,,
905148,001,2022-11-14_24h27.42.366,Info_measure_main_exp,2022.2.2,MacIntel,59.99520038,,,,,,,,,,,,,,,,,,masks/mask_002.jpg,,,,,,,,,,,,,,,,,,,,,,,,,,,,,,,,,,,,,,,,,,,,,,,,0,1,1,1,1,,,,,,,,,,,,,,,,,,,,,,,,,,,,,,,,,,,,,,,,,
905148,001,2022-11-14_24h27.42.366,Info_measure_main_exp,2022.2.2,MacIntel,59.99520038,,,,,,,,,,,,,,,,,,masks/mask_003.jpg,,,,,,,,,,,,,,,,,,,,,,,,,,,,,,,,,,,,,,,,,,,,,,,,0,2,2,2,1,,,,,,,,,,,,,,,,,,,,,,,,,,,,,,,,,,,,,,,,,
905148,001,2022-11-14_24h27.42.366,Info_measure_main_exp,2022.2.2,MacIntel,59.99520038,,,,,,,,,,,,,,,,,,masks/mask_001.jpg,,,,,,,,,,,,,,,,,,,,,,,,,,,,,,,,,,,,,,,,,,,,,,,,0,3,3,0,1,,,,,,,,,,,,,,,,,,,,,,,,,,,,,,,,,,,,,,,,,
905148,001,2022-11-14_24h27.42.366,Info_measure_main_exp,2022.2.2,MacIntel,59.99520038,,,,,,,,,,,,,,,,,,masks/mask_004.jpg,,,,,,,,,,,,,,,,,,,,,,,,,,,,,,,,,,,,,,,,,,,,,,,,0,4,4,3,1,,,,,,,,,,,,,,,,,,,,,,,,,,,,,,,,,,,,,,,,,
905148,001,2022-11-14_24h27.42.366,Info_measure_main_exp,2022.2.2,MacIntel,59.99520038,,,,,,,,,,,,,,,,,,,,,,,,,,,,,,6,0.8321,1,,,,,,,,,,,,1,131,5,5,2250,1,absent_patch/patch0002250.jpg,present_patch/cong_131_5_a.jpg,,,,,,,,,,,,,,,,,,,,0.139872628,0.063534639,1,0,0,response1disk,14,0.00051491,0.006373693,1,0,0,center_square,0,13,13,5,1,,,,,,,,,,,,,,,,,,,,,,,
905148,001,2022-11-14_24h27.42.366,Info_measure_main_exp,2022.2.2,MacIntel,59.99520038,,,,,,,,,,,,,,,,,,masks/mask_002.jpg,,,,,,,,,,,,,,,,,,,,,,,,,,,,,,,,,,,,,,,,,,,0,0,0,1,1,,,,,,,,,,,,,,,,,,,,,,,,,,,,,,,,,,,,,,,,,,,,,,
905148,001,2022-11-14_24h27.42.366,Info_measure_main_exp,2022.2.2,MacIntel,59.99520038,,,,,,,,,,,,,,,,,,masks/mask_001.jpg,,,,,,,,,,,,,,,,,,,,,,,,,,,,,,,,,,,,,,,,,,,0,1,1,0,1,,,,,,,,,,,,,,,,,,,,,,,,,,,,,,,,,,,,,,,,,,,,,,
905148,001,2022-11-14_24h27.42.366,Info_measure_main_exp,2022.2.2,MacIntel,59.99520038,,,,,,,,,,,,,,,,,,masks/mask_004.jpg,,,,,,,,,,,,,,,,,,,,,,,,,,,,,,,,,,,,,,,,,,,0,2,2,3,1,,,,,,,,,,,,,,,,,,,,,,,,,,,,,,,,,,,,,,,,,,,,,,
905148,001,2022-11-14_24h27.42.366,Info_measure_main_exp,2022.2.2,MacIntel,59.99520038,,,,,,,,,,,,,,,,,,masks/mask_005.jpg,,,,,,,,,,,,,,,,,,,,,,,,,,,,,,,,,,,,,,,,,,,0,3,3,4,1,,,,,,,,,,,,,,,,,,,,,,,,,,,,,,,,,,,,,,,,,,,,,,
905148,001,2022-11-14_24h27.42.366,Info_measure_main_exp,2022.2.2,MacIntel,59.99520038,,,,,,,,,,,,,,,,,,masks/mask_003.jpg,,,,,,,,,,,,,,,,,,,,,,,,,,,,,,,,,,,,,,,,,,,0,4,4,2,1,,,,,,,,,,,,,,,,,,,,,,,,,,,,,,,,,,,,,,,,,,,,,,
905148,001,2022-11-14_24h27.42.366,Info_measure_main_exp,2022.2.2,MacIntel,59.99520038,,,,,,,,,,,,,,,,,,masks/mask_001.jpg,,,,,,,,,,,,,,,,,,,,,,,,,,,,,,,,,,,,,,,,,,,,,,,,0,0,0,0,1,,,,,,,,,,,,,,,,,,,,,,,,,,,,,,,,,,,,,,,,,
905148,001,2022-11-14_24h27.42.366,Info_measure_main_exp,2022.2.2,MacIntel,59.99520038,,,,,,,,,,,,,,,,,,masks/mask_002.jpg,,,,,,,,,,,,,,,,,,,,,,,,,,,,,,,,,,,,,,,,,,,,,,,,0,1,1,1,1,,,,,,,,,,,,,,,,,,,,,,,,,,,,,,,,,,,,,,,,,
905148,001,2022-11-14_24h27.42.366,Info_measure_main_exp,2022.2.2,MacIntel,59.99520038,,,,,,,,,,,,,,,,,,masks/mask_003.jpg,,,,,,,,,,,,,,,,,,,,,,,,,,,,,,,,,,,,,,,,,,,,,,,,0,2,2,2,1,,,,,,,,,,,,,,,,,,,,,,,,,,,,,,,,,,,,,,,,,
905148,001,2022-11-14_24h27.42.366,Info_measure_main_exp,2022.2.2,MacIntel,59.99520038,,,,,,,,,,,,,,,,,,masks/mask_004.jpg,,,,,,,,,,,,,,,,,,,,,,,,,,,,,,,,,,,,,,,,,,,,,,,,0,3,3,3,1,,,,,,,,,,,,,,,,,,,,,,,,,,,,,,,,,,,,,,,,,
905148,001,2022-11-14_24h27.42.366,Info_measure_main_exp,2022.2.2,MacIntel,59.99520038,,,,,,,,,,,,,,,,,,masks/mask_005.jpg,,,,,,,,,,,,,,,,,,,,,,,,,,,,,,,,,,,,,,,,,,,,,,,,0,4,4,4,1,,,,,,,,,,,,,,,,,,,,,,,,,,,,,,,,,,,,,,,,,
905148,001,2022-11-14_24h27.42.366,Info_measure_main_exp,2022.2.2,MacIntel,59.99520038,,,,,,,,,,,,,,,,,,,,,,,,,,,,,,7,1.0176,1,,,,,,,,,,,,0,131,5,5,2142,2154,absent_patch/patch0002142.jpg,absent_patch/patch0002154.jpg,,,,,,,,,,,,,,,,,,,,0.088196477,0.167700939,1,0,0,response1disk,15,0.003077119,0.00049496,1,0,0,center_square,0,14,14,9,1,,,,,,,,,,,,,,,,,,,,,,,
905148,001,2022-11-14_24h27.42.366,Info_measure_main_exp,2022.2.2,MacIntel,59.99520038,,,,,,,,,,,,,,,,,,masks/mask_004.jpg,,,,,,,,,,,,,,,,,,,,,,,,,,,,,,,,,,,,,,,,,,,0,0,0,3,1,,,,,,,,,,,,,,,,,,,,,,,,,,,,,,,,,,,,,,,,,,,,,,
905148,001,2022-11-14_24h27.42.366,Info_measure_main_exp,2022.2.2,MacIntel,59.99520038,,,,,,,,,,,,,,,,,,masks/mask_005.jpg,,,,,,,,,,,,,,,,,,,,,,,,,,,,,,,,,,,,,,,,,,,0,1,1,4,1,,,,,,,,,,,,,,,,,,,,,,,,,,,,,,,,,,,,,,,,,,,,,,
905148,001,2022-11-14_24h27.42.366,Info_measure_main_exp,2022.2.2,MacIntel,59.99520038,,,,,,,,,,,,,,,,,,masks/mask_002.jpg,,,,,,,,,,,,,,,,,,,,,,,,,,,,,,,,,,,,,,,,,,,0,2,2,1,1,,,,,,,,,,,,,,,,,,,,,,,,,,,,,,,,,,,,,,,,,,,,,,
905148,001,2022-11-14_24h27.42.366,Info_measure_main_exp,2022.2.2,MacIntel,59.99520038,,,,,,,,,,,,,,,,,,masks/mask_003.jpg,,,,,,,,,,,,,,,,,,,,,,,,,,,,,,,,,,,,,,,,,,,0,3,3,2,1,,,,,,,,,,,,,,,,,,,,,,,,,,,,,,,,,,,,,,,,,,,,,,
905148,001,2022-11-14_24h27.42.366,Info_measure_main_exp,2022.2.2,MacIntel,59.99520038,,,,,,,,,,,,,,,,,,masks/mask_001.jpg,,,,,,,,,,,,,,,,,,,,,,,,,,,,,,,,,,,,,,,,,,,0,4,4,0,1,,,,,,,,,,,,,,,,,,,,,,,,,,,,,,,,,,,,,,,,,,,,,,
905148,001,2022-11-14_24h27.42.366,Info_measure_main_exp,2022.2.2,MacIntel,59.99520038,,,,,,,,,,,,,,,,,,masks/mask_005.jpg,,,,,,,,,,,,,,,,,,,,,,,,,,,,,,,,,,,,,,,,,,,,,,,,0,0,0,4,1,,,,,,,,,,,,,,,,,,,,,,,,,,,,,,,,,,,,,,,,,
905148,001,2022-11-14_24h27.42.366,Info_measure_main_exp,2022.2.2,MacIntel,59.99520038,,,,,,,,,,,,,,,,,,masks/mask_003.jpg,,,,,,,,,,,,,,,,,,,,,,,,,,,,,,,,,,,,,,,,,,,,,,,,0,1,1,2,1,,,,,,,,,,,,,,,,,,,,,,,,,,,,,,,,,,,,,,,,,
905148,001,2022-11-14_24h27.42.366,Info_measure_main_exp,2022.2.2,MacIntel,59.99520038,,,,,,,,,,,,,,,,,,masks/mask_001.jpg,,,,,,,,,,,,,,,,,,,,,,,,,,,,,,,,,,,,,,,,,,,,,,,,0,2,2,0,1,,,,,,,,,,,,,,,,,,,,,,,,,,,,,,,,,,,,,,,,,
905148,001,2022-11-14_24h27.42.366,Info_measure_main_exp,2022.2.2,MacIntel,59.99520038,,,,,,,,,,,,,,,,,,masks/mask_002.jpg,,,,,,,,,,,,,,,,,,,,,,,,,,,,,,,,,,,,,,,,,,,,,,,,0,3,3,1,1,,,,,,,,,,,,,,,,,,,,,,,,,,,,,,,,,,,,,,,,,
905148,001,2022-11-14_24h27.42.366,Info_measure_main_exp,2022.2.2,MacIntel,59.99520038,,,,,,,,,,,,,,,,,,masks/mask_004.jpg,,,,,,,,,,,,,,,,,,,,,,,,,,,,,,,,,,,,,,,,,,,,,,,,0,4,4,3,1,,,,,,,,,,,,,,,,,,,,,,,,,,,,,,,,,,,,,,,,,
905148,001,2022-11-14_24h27.42.366,Info_measure_main_exp,2022.2.2,MacIntel,59.99520038,,,,,,,,,,,,,,,,,,,,,,,,,,,,,,5,0.5331,1,,,,,,,,,,,,0,131,5,5,1986,1950,absent_patch/patch0001986.jpg,absent_patch/patch0001950.jpg,,,,,,,,,,,,,,,,,,,,0.250070503,-0.143073338,1,0,0,response3disk,16,0.022794517,0.023964626,1,0,0,center_square,0,15,15,15,1,,,,,,,,,,,,,,,,,,,,,,,
905148,001,2022-11-14_24h27.42.366,Info_measure_main_exp,2022.2.2,MacIntel,59.99520038,,,,,,,,,,,,,,,,,,masks/mask_002.jpg,,,,,,,,,,,,,,,,,,,,,,,,,,,,,,,,,,,,,,,,,,,0,0,0,1,1,,,,,,,,,,,,,,,,,,,,,,,,,,,,,,,,,,,,,,,,,,,,,,
905148,001,2022-11-14_24h27.42.366,Info_measure_main_exp,2022.2.2,MacIntel,59.99520038,,,,,,,,,,,,,,,,,,masks/mask_001.jpg,,,,,,,,,,,,,,,,,,,,,,,,,,,,,,,,,,,,,,,,,,,0,1,1,0,1,,,,,,,,,,,,,,,,,,,,,,,,,,,,,,,,,,,,,,,,,,,,,,
905148,001,2022-11-14_24h27.42.366,Info_measure_main_exp,2022.2.2,MacIntel,59.99520038,,,,,,,,,,,,,,,,,,masks/mask_004.jpg,,,,,,,,,,,,,,,,,,,,,,,,,,,,,,,,,,,,,,,,,,,0,2,2,3,1,,,,,,,,,,,,,,,,,,,,,,,,,,,,,,,,,,,,,,,,,,,,,,
905148,001,2022-11-14_24h27.42.366,Info_measure_main_exp,2022.2.2,MacIntel,59.99520038,,,,,,,,,,,,,,,,,,masks/mask_005.jpg,,,,,,,,,,,,,,,,,,,,,,,,,,,,,,,,,,,,,,,,,,,0,3,3,4,1,,,,,,,,,,,,,,,,,,,,,,,,,,,,,,,,,,,,,,,,,,,,,,
905148,001,2022-11-14_24h27.42.366,Info_measure_main_exp,2022.2.2,MacIntel,59.99520038,,,,,,,,,,,,,,,,,,masks/mask_003.jpg,,,,,,,,,,,,,,,,,,,,,,,,,,,,,,,,,,,,,,,,,,,0,4,4,2,1,,,,,,,,,,,,,,,,,,,,,,,,,,,,,,,,,,,,,,,,,,,,,,
905148,001,2022-11-14_24h27.42.366,Info_measure_main_exp,2022.2.2,MacIntel,59.99520038,,,,,,,,,,,,,,,,,,masks/mask_005.jpg,,,,,,,,,,,,,,,,,,,,,,,,,,,,,,,,,,,,,,,,,,,,,,,,0,0,0,4,1,,,,,,,,,,,,,,,,,,,,,,,,,,,,,,,,,,,,,,,,,
905148,001,2022-11-14_24h27.42.366,Info_measure_main_exp,2022.2.2,MacIntel,59.99520038,,,,,,,,,,,,,,,,,,masks/mask_004.jpg,,,,,,,,,,,,,,,,,,,,,,,,,,,,,,,,,,,,,,,,,,,,,,,,0,1,1,3,1,,,,,,,,,,,,,,,,,,,,,,,,,,,,,,,,,,,,,,,,,
905148,001,2022-11-14_24h27.42.366,Info_measure_main_exp,2022.2.2,MacIntel,59.99520038,,,,,,,,,,,,,,,,,,masks/mask_001.jpg,,,,,,,,,,,,,,,,,,,,,,,,,,,,,,,,,,,,,,,,,,,,,,,,0,2,2,0,1,,,,,,,,,,,,,,,,,,,,,,,,,,,,,,,,,,,,,,,,,
905148,001,2022-11-14_24h27.42.366,Info_measure_main_exp,2022.2.2,MacIntel,59.99520038,,,,,,,,,,,,,,,,,,masks/mask_002.jpg,,,,,,,,,,,,,,,,,,,,,,,,,,,,,,,,,,,,,,,,,,,,,,,,0,3,3,1,1,,,,,,,,,,,,,,,,,,,,,,,,,,,,,,,,,,,,,,,,,
905148,001,2022-11-14_24h27.42.366,Info_measure_main_exp,2022.2.2,MacIntel,59.99520038,,,,,,,,,,,,,,,,,,masks/mask_003.jpg,,,,,,,,,,,,,,,,,,,,,,,,,,,,,,,,,,,,,,,,,,,,,,,,0,4,4,2,1,,,,,,,,,,,,,,,,,,,,,,,,,,,,,,,,,,,,,,,,,
905148,001,2022-11-14_24h27.42.366,Info_measure_main_exp,2022.2.2,MacIntel,59.99520038,,,,,,,,,,,,,,,,,,,,,,,,,,,,,,6,0.684,1,,,,,,,,,,,,0,131,5,5,1986,2142,absent_patch/patch0001986.jpg,absent_patch/patch0002142.jpg,,,,,,,,,,,,,,,,,,,,0.239311916,0.057757179,1,0,0,response1disk,17,0.03402786,-0.006946257,1,0,0,center_square,0,16,16,76,1,,,,,,,,,,,,,,,,,,,,,,,
905148,001,2022-11-14_24h27.42.366,Info_measure_main_exp,2022.2.2,MacIntel,59.99520038,,,,,,,,,,,,,,,,,,masks/mask_004.jpg,,,,,,,,,,,,,,,,,,,,,,,,,,,,,,,,,,,,,,,,,,,0,0,0,3,1,,,,,,,,,,,,,,,,,,,,,,,,,,,,,,,,,,,,,,,,,,,,,,
905148,001,2022-11-14_24h27.42.366,Info_measure_main_exp,2022.2.2,MacIntel,59.99520038,,,,,,,,,,,,,,,,,,masks/mask_002.jpg,,,,,,,,,,,,,,,,,,,,,,,,,,,,,,,,,,,,,,,,,,,0,1,1,1,1,,,,,,,,,,,,,,,,,,,,,,,,,,,,,,,,,,,,,,,,,,,,,,
905148,001,2022-11-14_24h27.42.366,Info_measure_main_exp,2022.2.2,MacIntel,59.99520038,,,,,,,,,,,,,,,,,,masks/mask_003.jpg,,,,,,,,,,,,,,,,,,,,,,,,,,,,,,,,,,,,,,,,,,,0,2,2,2,1,,,,,,,,,,,,,,,,,,,,,,,,,,,,,,,,,,,,,,,,,,,,,,
905148,001,2022-11-14_24h27.42.366,Info_measure_main_exp,2022.2.2,MacIntel,59.99520038,,,,,,,,,,,,,,,,,,masks/mask_001.jpg,,,,,,,,,,,,,,,,,,,,,,,,,,,,,,,,,,,,,,,,,,,0,3,3,0,1,,,,,,,,,,,,,,,,,,,,,,,,,,,,,,,,,,,,,,,,,,,,,,
905148,001,2022-11-14_24h27.42.366,Info_measure_main_exp,2022.2.2,MacIntel,59.99520038,,,,,,,,,,,,,,,,,,masks/mask_005.jpg,,,,,,,,,,,,,,,,,,,,,,,,,,,,,,,,,,,,,,,,,,,0,4,4,4,1,,,,,,,,,,,,,,,,,,,,,,,,,,,,,,,,,,,,,,,,,,,,,,
905148,001,2022-11-14_24h27.42.366,Info_measure_main_exp,2022.2.2,MacIntel,59.99520038,,,,,,,,,,,,,,,,,,masks/mask_003.jpg,,,,,,,,,,,,,,,,,,,,,,,,,,,,,,,,,,,,,,,,,,,,,,,,0,0,0,2,1,,,,,,,,,,,,,,,,,,,,,,,,,,,,,,,,,,,,,,,,,
905148,001,2022-11-14_24h27.42.366,Info_measure_main_exp,2022.2.2,MacIntel,59.99520038,,,,,,,,,,,,,,,,,,masks/mask_002.jpg,,,,,,,,,,,,,,,,,,,,,,,,,,,,,,,,,,,,,,,,,,,,,,,,0,1,1,1,1,,,,,,,,,,,,,,,,,,,,,,,,,,,,,,,,,,,,,,,,,
905148,001,2022-11-14_24h27.42.366,Info_measure_main_exp,2022.2.2,MacIntel,59.99520038,,,,,,,,,,,,,,,,,,masks/mask_005.jpg,,,,,,,,,,,,,,,,,,,,,,,,,,,,,,,,,,,,,,,,,,,,,,,,0,2,2,4,1,,,,,,,,,,,,,,,,,,,,,,,,,,,,,,,,,,,,,,,,,
905148,001,2022-11-14_24h27.42.366,Info_measure_main_exp,2022.2.2,MacIntel,59.99520038,,,,,,,,,,,,,,,,,,masks/mask_001.jpg,,,,,,,,,,,,,,,,,,,,,,,,,,,,,,,,,,,,,,,,,,,,,,,,0,3,3,0,1,,,,,,,,,,,,,,,,,,,,,,,,,,,,,,,,,,,,,,,,,
905148,001,2022-11-14_24h27.42.366,Info_measure_main_exp,2022.2.2,MacIntel,59.99520038,,,,,,,,,,,,,,,,,,masks/mask_004.jpg,,,,,,,,,,,,,,,,,,,,,,,,,,,,,,,,,,,,,,,,,,,,,,,,0,4,4,3,1,,,,,,,,,,,,,,,,,,,,,,,,,,,,,,,,,,,,,,,,,
905148,001,2022-11-14_24h27.42.366,Info_measure_main_exp,2022.2.2,MacIntel,59.99520038,,,,,,,,,,,,,,,,,,,,,,,,,,,,,,6,0.7179,1,,,,,,,,,,,,0,131,5,5,1974,2250,absent_patch/patch0001974.jpg,absent_patch/patch0002250.jpg,,,,,,,,,,,,,,,,,,,,0.148592709,0.055739046,1,0,0,response1disk,18,0.016599111,-0.018905893,1,0,0,center_square,0,17,17,55,1,,,,,,,,,,,,,,,,,,,,,,,
905148,001,2022-11-14_24h27.42.366,Info_measure_main_exp,2022.2.2,MacIntel,59.99520038,,,,,,,,,,,,,,,,,,masks/mask_001.jpg,,,,,,,,,,,,,,,,,,,,,,,,,,,,,,,,,,,,,,,,,,,0,0,0,0,1,,,,,,,,,,,,,,,,,,,,,,,,,,,,,,,,,,,,,,,,,,,,,,
905148,001,2022-11-14_24h27.42.366,Info_measure_main_exp,2022.2.2,MacIntel,59.99520038,,,,,,,,,,,,,,,,,,masks/mask_004.jpg,,,,,,,,,,,,,,,,,,,,,,,,,,,,,,,,,,,,,,,,,,,0,1,1,3,1,,,,,,,,,,,,,,,,,,,,,,,,,,,,,,,,,,,,,,,,,,,,,,
905148,001,2022-11-14_24h27.42.366,Info_measure_main_exp,2022.2.2,MacIntel,59.99520038,,,,,,,,,,,,,,,,,,masks/mask_005.jpg,,,,,,,,,,,,,,,,,,,,,,,,,,,,,,,,,,,,,,,,,,,0,2,2,4,1,,,,,,,,,,,,,,,,,,,,,,,,,,,,,,,,,,,,,,,,,,,,,,
905148,001,2022-11-14_24h27.42.366,Info_measure_main_exp,2022.2.2,MacIntel,59.99520038,,,,,,,,,,,,,,,,,,masks/mask_002.jpg,,,,,,,,,,,,,,,,,,,,,,,,,,,,,,,,,,,,,,,,,,,0,3,3,1,1,,,,,,,,,,,,,,,,,,,,,,,,,,,,,,,,,,,,,,,,,,,,,,
905148,001,2022-11-14_24h27.42.366,Info_measure_main_exp,2022.2.2,MacIntel,59.99520038,,,,,,,,,,,,,,,,,,masks/mask_003.jpg,,,,,,,,,,,,,,,,,,,,,,,,,,,,,,,,,,,,,,,,,,,0,4,4,2,1,,,,,,,,,,,,,,,,,,,,,,,,,,,,,,,,,,,,,,,,,,,,,,
905148,001,2022-11-14_24h27.42.366,Info_measure_main_exp,2022.2.2,MacIntel,59.99520038,,,,,,,,,,,,,,,,,,masks/mask_005.jpg,,,,,,,,,,,,,,,,,,,,,,,,,,,,,,,,,,,,,,,,,,,,,,,,0,0,0,4,1,,,,,,,,,,,,,,,,,,,,,,,,,,,,,,,,,,,,,,,,,
905148,001,2022-11-14_24h27.42.366,Info_measure_main_exp,2022.2.2,MacIntel,59.99520038,,,,,,,,,,,,,,,,,,masks/mask_003.jpg,,,,,,,,,,,,,,,,,,,,,,,,,,,,,,,,,,,,,,,,,,,,,,,,0,1,1,2,1,,,,,,,,,,,,,,,,,,,,,,,,,,,,,,,,,,,,,,,,,
905148,001,2022-11-14_24h27.42.366,Info_measure_main_exp,2022.2.2,MacIntel,59.99520038,,,,,,,,,,,,,,,,,,masks/mask_004.jpg,,,,,,,,,,,,,,,,,,,,,,,,,,,,,,,,,,,,,,,,,,,,,,,,0,2,2,3,1,,,,,,,,,,,,,,,,,,,,,,,,,,,,,,,,,,,,,,,,,
905148,001,2022-11-14_24h27.42.366,Info_measure_main_exp,2022.2.2,MacIntel,59.99520038,,,,,,,,,,,,,,,,,,masks/mask_001.jpg,,,,,,,,,,,,,,,,,,,,,,,,,,,,,,,,,,,,,,,,,,,,,,,,0,3,3,0,1,,,,,,,,,,,,,,,,,,,,,,,,,,,,,,,,,,,,,,,,,
905148,001,2022-11-14_24h27.42.366,Info_measure_main_exp,2022.2.2,MacIntel,59.99520038,,,,,,,,,,,,,,,,,,masks/mask_002.jpg,,,,,,,,,,,,,,,,,,,,,,,,,,,,,,,,,,,,,,,,,,,,,,,,0,4,4,1,1,,,,,,,,,,,,,,,,,,,,,,,,,,,,,,,,,,,,,,,,,
905148,001,2022-11-14_24h27.42.366,Info_measure_main_exp,2022.2.2,MacIntel,59.99520038,,,,,,,,,,,,,,,,,,,,,,,,,,,,,,1,0.6338,1,,,,,,,,,,,,1,131,5,5,1,1,present_patch/cong_131_5_a.jpg,present_patch/cong_131_5_a.jpg,,,,,,,,,,,,,,,,,,,,-0.256505654,0.053304741,1,0,0,response7disk,19,-0.025464341,0.017245052,1,0,0,center_square,0,18,18,30,1,,,,,,,,,,,,,,,,,,,,,,,
905148,001,2022-11-14_24h27.42.366,Info_measure_main_exp,2022.2.2,MacIntel,59.99520038,,,,,,,,,,,,,,,,,,masks/mask_002.jpg,,,,,,,,,,,,,,,,,,,,,,,,,,,,,,,,,,,,,,,,,,,0,0,0,1,1,,,,,,,,,,,,,,,,,,,,,,,,,,,,,,,,,,,,,,,,,,,,,,
905148,001,2022-11-14_24h27.42.366,Info_measure_main_exp,2022.2.2,MacIntel,59.99520038,,,,,,,,,,,,,,,,,,masks/mask_001.jpg,,,,,,,,,,,,,,,,,,,,,,,,,,,,,,,,,,,,,,,,,,,0,1,1,0,1,,,,,,,,,,,,,,,,,,,,,,,,,,,,,,,,,,,,,,,,,,,,,,
905148,001,2022-11-14_24h27.42.366,Info_measure_main_exp,2022.2.2,MacIntel,59.99520038,,,,,,,,,,,,,,,,,,masks/mask_003.jpg,,,,,,,,,,,,,,,,,,,,,,,,,,,,,,,,,,,,,,,,,,,0,2,2,2,1,,,,,,,,,,,,,,,,,,,,,,,,,,,,,,,,,,,,,,,,,,,,,,
905148,001,2022-11-14_24h27.42.366,Info_measure_main_exp,2022.2.2,MacIntel,59.99520038,,,,,,,,,,,,,,,,,,masks/mask_005.jpg,,,,,,,,,,,,,,,,,,,,,,,,,,,,,,,,,,,,,,,,,,,0,3,3,4,1,,,,,,,,,,,,,,,,,,,,,,,,,,,,,,,,,,,,,,,,,,,,,,
905148,001,2022-11-14_24h27.42.366,Info_measure_main_exp,2022.2.2,MacIntel,59.99520038,,,,,,,,,,,,,,,,,,masks/mask_004.jpg,,,,,,,,,,,,,,,,,,,,,,,,,,,,,,,,,,,,,,,,,,,0,4,4,3,1,,,,,,,,,,,,,,,,,,,,,,,,,,,,,,,,,,,,,,,,,,,,,,
905148,001,2022-11-14_24h27.42.366,Info_measure_main_exp,2022.2.2,MacIntel,59.99520038,,,,,,,,,,,,,,,,,,masks/mask_002.jpg,,,,,,,,,,,,,,,,,,,,,,,,,,,,,,,,,,,,,,,,,,,,,,,,0,0,0,1,1,,,,,,,,,,,,,,,,,,,,,,,,,,,,,,,,,,,,,,,,,
905148,001,2022-11-14_24h27.42.366,Info_measure_main_exp,2022.2.2,MacIntel,59.99520038,,,,,,,,,,,,,,,,,,masks/mask_004.jpg,,,,,,,,,,,,,,,,,,,,,,,,,,,,,,,,,,,,,,,,,,,,,,,,0,1,1,3,1,,,,,,,,,,,,,,,,,,,,,,,,,,,,,,,,,,,,,,,,,
905148,001,2022-11-14_24h27.42.366,Info_measure_main_exp,2022.2.2,MacIntel,59.99520038,,,,,,,,,,,,,,,,,,masks/mask_005.jpg,,,,,,,,,,,,,,,,,,,,,,,,,,,,,,,,,,,,,,,,,,,,,,,,0,2,2,4,1,,,,,,,,,,,,,,,,,,,,,,,,,,,,,,,,,,,,,,,,,
905148,001,2022-11-14_24h27.42.366,Info_measure_main_exp,2022.2.2,MacIntel,59.99520038,,,,,,,,,,,,,,,,,,masks/mask_001.jpg,,,,,,,,,,,,,,,,,,,,,,,,,,,,,,,,,,,,,,,,,,,,,,,,0,3,3,0,1,,,,,,,,,,,,,,,,,,,,,,,,,,,,,,,,,,,,,,,,,
905148,001,2022-11-14_24h27.42.366,Info_measure_main_exp,2022.2.2,MacIntel,59.99520038,,,,,,,,,,,,,,,,,,masks/mask_003.jpg,,,,,,,,,,,,,,,,,,,,,,,,,,,,,,,,,,,,,,,,,,,,,,,,0,4,4,2,1,,,,,,,,,,,,,,,,,,,,,,,,,,,,,,,,,,,,,,,,,
905148,001,2022-11-14_24h27.42.366,Info_measure_main_exp,2022.2.2,MacIntel,59.99520038,,,,,,,,,,,,,,,,,,,,,,,,,,,,,,5,0.9337,1,,,,,,,,,,,,1,131,5,5,1950,1,absent_patch/patch0001950.jpg,present_patch/cong_131_5_a.jpg,,,,,,,,,,,,,,,,,,,,0.198177433,-0.067129838,1,0,0,response3disk,20,-0.013002179,0.015027836,1,0,0,center_square,0,19,19,39,1,,,,,,,,,,,,,,,,,,,,,,,
905148,001,2022-11-14_24h27.42.366,Info_measure_main_exp,2022.2.2,MacIntel,59.99520038,,,,,,,,,,,,,,,,,,masks/mask_001.jpg,,,,,,,,,,,,,,,,,,,,,,,,,,,,,,,,,,,,,,,,,,,0,0,0,0,1,,,,,,,,,,,,,,,,,,,,,,,,,,,,,,,,,,,,,,,,,,,,,,
905148,001,2022-11-14_24h27.42.366,Info_measure_main_exp,2022.2.2,MacIntel,59.99520038,,,,,,,,,,,,,,,,,,masks/mask_003.jpg,,,,,,,,,,,,,,,,,,,,,,,,,,,,,,,,,,,,,,,,,,,0,1,1,2,1,,,,,,,,,,,,,,,,,,,,,,,,,,,,,,,,,,,,,,,,,,,,,,
905148,001,2022-11-14_24h27.42.366,Info_measure_main_exp,2022.2.2,MacIntel,59.99520038,,,,,,,,,,,,,,,,,,masks/mask_004.jpg,,,,,,,,,,,,,,,,,,,,,,,,,,,,,,,,,,,,,,,,,,,0,2,2,3,1,,,,,,,,,,,,,,,,,,,,,,,,,,,,,,,,,,,,,,,,,,,,,,
905148,001,2022-11-14_24h27.42.366,Info_measure_main_exp,2022.2.2,MacIntel,59.99520038,,,,,,,,,,,,,,,,,,masks/mask_002.jpg,,,,,,,,,,,,,,,,,,,,,,,,,,,,,,,,,,,,,,,,,,,0,3,3,1,1,,,,,,,,,,,,,,,,,,,,,,,,,,,,,,,,,,,,,,,,,,,,,,
905148,001,2022-11-14_24h27.42.366,Info_measure_main_exp,2022.2.2,MacIntel,59.99520038,,,,,,,,,,,,,,,,,,masks/mask_005.jpg,,,,,,,,,,,,,,,,,,,,,,,,,,,,,,,,,,,,,,,,,,,0,4,4,4,1,,,,,,,,,,,,,,,,,,,,,,,,,,,,,,,,,,,,,,,,,,,,,,
905148,001,2022-11-14_24h27.42.366,Info_measure_main_exp,2022.2.2,MacIntel,59.99520038,,,,,,,,,,,,,,,,,,masks/mask_002.jpg,,,,,,,,,,,,,,,,,,,,,,,,,,,,,,,,,,,,,,,,,,,,,,,,0,0,0,1,1,,,,,,,,,,,,,,,,,,,,,,,,,,,,,,,,,,,,,,,,,
905148,001,2022-11-14_24h27.42.366,Info_measure_main_exp,2022.2.2,MacIntel,59.99520038,,,,,,,,,,,,,,,,,,masks/mask_001.jpg,,,,,,,,,,,,,,,,,,,,,,,,,,,,,,,,,,,,,,,,,,,,,,,,0,1,1,0,1,,,,,,,,,,,,,,,,,,,,,,,,,,,,,,,,,,,,,,,,,
905148,001,2022-11-14_24h27.42.366,Info_measure_main_exp,2022.2.2,MacIntel,59.99520038,,,,,,,,,,,,,,,,,,masks/mask_004.jpg,,,,,,,,,,,,,,,,,,,,,,,,,,,,,,,,,,,,,,,,,,,,,,,,0,2,2,3,1,,,,,,,,,,,,,,,,,,,,,,,,,,,,,,,,,,,,,,,,,
905148,001,2022-11-14_24h27.42.366,Info_measure_main_exp,2022.2.2,MacIntel,59.99520038,,,,,,,,,,,,,,,,,,masks/mask_003.jpg,,,,,,,,,,,,,,,,,,,,,,,,,,,,,,,,,,,,,,,,,,,,,,,,0,3,3,2,1,,,,,,,,,,,,,,,,,,,,,,,,,,,,,,,,,,,,,,,,,
905148,001,2022-11-14_24h27.42.366,Info_measure_main_exp,2022.2.2,MacIntel,59.99520038,,,,,,,,,,,,,,,,,,masks/mask_005.jpg,,,,,,,,,,,,,,,,,,,,,,,,,,,,,,,,,,,,,,,,,,,,,,,,0,4,4,4,1,,,,,,,,,,,,,,,,,,,,,,,,,,,,,,,,,,,,,,,,,
905148,001,2022-11-14_24h27.42.366,Info_measure_main_exp,2022.2.2,MacIntel,59.99520038,,,,,,,,,,,,,,,,,,,,,,,,,,,,,,4,1.033,1,,,,,,,,,,,,0,131,5,5,2214,2082,absent_patch/patch0002214.jpg,absent_patch/patch0002082.jpg,,,,,,,,,,,,,,,,,,,,0.126967665,-0.162858028,1,0,0,response3disk,21,0.015901687,0.025452759,1,0,0,center_square,0,20,20,103,1,,,,,,,,,,,,,,,,,,,,,,,
905148,001,2022-11-14_24h27.42.366,Info_measure_main_exp,2022.2.2,MacIntel,59.99520038,,,,,,,,,,,,,,,,,,masks/mask_003.jpg,,,,,,,,,,,,,,,,,,,,,,,,,,,,,,,,,,,,,,,,,,,0,0,0,2,1,,,,,,,,,,,,,,,,,,,,,,,,,,,,,,,,,,,,,,,,,,,,,,
905148,001,2022-11-14_24h27.42.366,Info_measure_main_exp,2022.2.2,MacIntel,59.99520038,,,,,,,,,,,,,,,,,,masks/mask_002.jpg,,,,,,,,,,,,,,,,,,,,,,,,,,,,,,,,,,,,,,,,,,,0,1,1,1,1,,,,,,,,,,,,,,,,,,,,,,,,,,,,,,,,,,,,,,,,,,,,,,
905148,001,2022-11-14_24h27.42.366,Info_measure_main_exp,2022.2.2,MacIntel,59.99520038,,,,,,,,,,,,,,,,,,masks/mask_005.jpg,,,,,,,,,,,,,,,,,,,,,,,,,,,,,,,,,,,,,,,,,,,0,2,2,4,1,,,,,,,,,,,,,,,,,,,,,,,,,,,,,,,,,,,,,,,,,,,,,,
905148,001,2022-11-14_24h27.42.366,Info_measure_main_exp,2022.2.2,MacIntel,59.99520038,,,,,,,,,,,,,,,,,,masks/mask_004.jpg,,,,,,,,,,,,,,,,,,,,,,,,,,,,,,,,,,,,,,,,,,,0,3,3,3,1,,,,,,,,,,,,,,,,,,,,,,,,,,,,,,,,,,,,,,,,,,,,,,
905148,001,2022-11-14_24h27.42.366,Info_measure_main_exp,2022.2.2,MacIntel,59.99520038,,,,,,,,,,,,,,,,,,masks/mask_001.jpg,,,,,,,,,,,,,,,,,,,,,,,,,,,,,,,,,,,,,,,,,,,0,4,4,0,1,,,,,,,,,,,,,,,,,,,,,,,,,,,,,,,,,,,,,,,,,,,,,,
905148,001,2022-11-14_24h27.42.366,Info_measure_main_exp,2022.2.2,MacIntel,59.99520038,,,,,,,,,,,,,,,,,,masks/mask_003.jpg,,,,,,,,,,,,,,,,,,,,,,,,,,,,,,,,,,,,,,,,,,,,,,,,0,0,0,2,1,,,,,,,,,,,,,,,,,,,,,,,,,,,,,,,,,,,,,,,,,
905148,001,2022-11-14_24h27.42.366,Info_measure_main_exp,2022.2.2,MacIntel,59.99520038,,,,,,,,,,,,,,,,,,masks/mask_002.jpg,,,,,,,,,,,,,,,,,,,,,,,,,,,,,,,,,,,,,,,,,,,,,,,,0,1,1,1,1,,,,,,,,,,,,,,,,,,,,,,,,,,,,,,,,,,,,,,,,,
905148,001,2022-11-14_24h27.42.366,Info_measure_main_exp,2022.2.2,MacIntel,59.99520038,,,,,,,,,,,,,,,,,,masks/mask_004.jpg,,,,,,,,,,,,,,,,,,,,,,,,,,,,,,,,,,,,,,,,,,,,,,,,0,2,2,3,1,,,,,,,,,,,,,,,,,,,,,,,,,,,,,,,,,,,,,,,,,
905148,001,2022-11-14_24h27.42.366,Info_measure_main_exp,2022.2.2,MacIntel,59.99520038,,,,,,,,,,,,,,,,,,masks/mask_005.jpg,,,,,,,,,,,,,,,,,,,,,,,,,,,,,,,,,,,,,,,,,,,,,,,,0,3,3,4,1,,,,,,,,,,,,,,,,,,,,,,,,,,,,,,,,,,,,,,,,,
905148,001,2022-11-14_24h27.42.366,Info_measure_main_exp,2022.2.2,MacIntel,59.99520038,,,,,,,,,,,,,,,,,,masks/mask_001.jpg,,,,,,,,,,,,,,,,,,,,,,,,,,,,,,,,,,,,,,,,,,,,,,,,0,4,4,0,1,,,,,,,,,,,,,,,,,,,,,,,,,,,,,,,,,,,,,,,,,
905148,001,2022-11-14_24h27.42.366,Info_measure_main_exp,2022.2.2,MacIntel,59.99520038,,,,,,,,,,,,,,,,,,,,,,,,,,,,,,5,1.0833,1,,,,,,,,,,,,1,131,5,5,1,2154,present_patch/cong_131_5_a.jpg,absent_patch/patch0002154.jpg,,,,,,,,,,,,,,,,,,,,0.184932635,-0.036903825,1,0,0,response3disk,22,-0.009333476,-0.008666612,1,0,0,center_square,0,21,21,87,1,,,,,,,,,,,,,,,,,,,,,,,
905148,001,2022-11-14_24h27.42.366,Info_measure_main_exp,2022.2.2,MacIntel,59.99520038,,,,,,,,,,,,,,,,,,masks/mask_002.jpg,,,,,,,,,,,,,,,,,,,,,,,,,,,,,,,,,,,,,,,,,,,0,0,0,1,1,,,,,,,,,,,,,,,,,,,,,,,,,,,,,,,,,,,,,,,,,,,,,,
905148,001,2022-11-14_24h27.42.366,Info_measure_main_exp,2022.2.2,MacIntel,59.99520038,,,,,,,,,,,,,,,,,,masks/mask_001.jpg,,,,,,,,,,,,,,,,,,,,,,,,,,,,,,,,,,,,,,,,,,,0,1,1,0,1,,,,,,,,,,,,,,,,,,,,,,,,,,,,,,,,,,,,,,,,,,,,,,
905148,001,2022-11-14_24h27.42.366,Info_measure_main_exp,2022.2.2,MacIntel,59.99520038,,,,,,,,,,,,,,,,,,masks/mask_004.jpg,,,,,,,,,,,,,,,,,,,,,,,,,,,,,,,,,,,,,,,,,,,0,2,2,3,1,,,,,,,,,,,,,,,,,,,,,,,,,,,,,,,,,,,,,,,,,,,,,,
905148,001,2022-11-14_24h27.42.366,Info_measure_main_exp,2022.2.2,MacIntel,59.99520038,,,,,,,,,,,,,,,,,,masks/mask_005.jpg,,,,,,,,,,,,,,,,,,,,,,,,,,,,,,,,,,,,,,,,,,,0,3,3,4,1,,,,,,,,,,,,,,,,,,,,,,,,,,,,,,,,,,,,,,,,,,,,,,
905148,001,2022-11-14_24h27.42.366,Info_measure_main_exp,2022.2.2,MacIntel,59.99520038,,,,,,,,,,,,,,,,,,masks/mask_003.jpg,,,,,,,,,,,,,,,,,,,,,,,,,,,,,,,,,,,,,,,,,,,0,4,4,2,1,,,,,,,,,,,,,,,,,,,,,,,,,,,,,,,,,,,,,,,,,,,,,,
905148,001,2022-11-14_24h27.42.366,Info_measure_main_exp,2022.2.2,MacIntel,59.99520038,,,,,,,,,,,,,,,,,,masks/mask_001.jpg,,,,,,,,,,,,,,,,,,,,,,,,,,,,,,,,,,,,,,,,,,,,,,,,0,0,0,0,1,,,,,,,,,,,,,,,,,,,,,,,,,,,,,,,,,,,,,,,,,
905148,001,2022-11-14_24h27.42.366,Info_measure_main_exp,2022.2.2,MacIntel,59.99520038,,,,,,,,,,,,,,,,,,masks/mask_003.jpg,,,,,,,,,,,,,,,,,,,,,,,,,,,,,,,,,,,,,,,,,,,,,,,,0,1,1,2,1,,,,,,,,,,,,,,,,,,,,,,,,,,,,,,,,,,,,,,,,,
905148,001,2022-11-14_24h27.42.366,Info_measure_main_exp,2022.2.2,MacIntel,59.99520038,,,,,,,,,,,,,,,,,,masks/mask_002.jpg,,,,,,,,,,,,,,,,,,,,,,,,,,,,,,,,,,,,,,,,,,,,,,,,0,2,2,1,1,,,,,,,,,,,,,,,,,,,,,,,,,,,,,,,,,,,,,,,,,
905148,001,2022-11-14_24h27.42.366,Info_measure_main_exp,2022.2.2,MacIntel,59.99520038,,,,,,,,,,,,,,,,,,masks/mask_004.jpg,,,,,,,,,,,,,,,,,,,,,,,,,,,,,,,,,,,,,,,,,,,,,,,,0,3,3,3,1,,,,,,,,,,,,,,,,,,,,,,,,,,,,,,,,,,,,,,,,,
905148,001,2022-11-14_24h27.42.366,Info_measure_main_exp,2022.2.2,MacIntel,59.99520038,,,,,,,,,,,,,,,,,,masks/mask_005.jpg,,,,,,,,,,,,,,,,,,,,,,,,,,,,,,,,,,,,,,,,,,,,,,,,0,4,4,4,1,,,,,,,,,,,,,,,,,,,,,,,,,,,,,,,,,,,,,,,,,
905148,001,2022-11-14_24h27.42.366,Info_measure_main_exp,2022.2.2,MacIntel,59.99520038,,,,,,,,,,,,,,,,,,,,,,,,,,,,,,3,1.8328,1,,,,,,,,,,,,0,131,5,5,1950,2178,absent_patch/patch0001950.jpg,absent_patch/patch0002178.jpg,,,,,,,,,,,,,,,,,,,,-0.065031522,-0.18469382,1,0,0,response5disk,23,-0.004577299,-0.013802314,1,0,0,center_square,0,22,22,61,1,,,,,,,,,,,,,,,,,,,,,,,
905148,001,2022-11-14_24h27.42.366,Info_measure_main_exp,2022.2.2,MacIntel,59.99520038,,,,,,,,,,,,,,,,,,masks/mask_004.jpg,,,,,,,,,,,,,,,,,,,,,,,,,,,,,,,,,,,,,,,,,,,0,0,0,3,1,,,,,,,,,,,,,,,,,,,,,,,,,,,,,,,,,,,,,,,,,,,,,,
905148,001,2022-11-14_24h27.42.366,Info_measure_main_exp,2022.2.2,MacIntel,59.99520038,,,,,,,,,,,,,,,,,,masks/mask_001.jpg,,,,,,,,,,,,,,,,,,,,,,,,,,,,,,,,,,,,,,,,,,,0,1,1,0,1,,,,,,,,,,,,,,,,,,,,,,,,,,,,,,,,,,,,,,,,,,,,,,
905148,001,2022-11-14_24h27.42.366,Info_measure_main_exp,2022.2.2,MacIntel,59.99520038,,,,,,,,,,,,,,,,,,masks/mask_002.jpg,,,,,,,,,,,,,,,,,,,,,,,,,,,,,,,,,,,,,,,,,,,0,2,2,1,1,,,,,,,,,,,,,,,,,,,,,,,,,,,,,,,,,,,,,,,,,,,,,,
905148,001,2022-11-14_24h27.42.366,Info_measure_main_exp,2022.2.2,MacIntel,59.99520038,,,,,,,,,,,,,,,,,,masks/mask_003.jpg,,,,,,,,,,,,,,,,,,,,,,,,,,,,,,,,,,,,,,,,,,,0,3,3,2,1,,,,,,,,,,,,,,,,,,,,,,,,,,,,,,,,,,,,,,,,,,,,,,
905148,001,2022-11-14_24h27.42.366,Info_measure_main_exp,2022.2.2,MacIntel,59.99520038,,,,,,,,,,,,,,,,,,masks/mask_005.jpg,,,,,,,,,,,,,,,,,,,,,,,,,,,,,,,,,,,,,,,,,,,0,4,4,4,1,,,,,,,,,,,,,,,,,,,,,,,,,,,,,,,,,,,,,,,,,,,,,,
905148,001,2022-11-14_24h27.42.366,Info_measure_main_exp,2022.2.2,MacIntel,59.99520038,,,,,,,,,,,,,,,,,,masks/mask_001.jpg,,,,,,,,,,,,,,,,,,,,,,,,,,,,,,,,,,,,,,,,,,,,,,,,0,0,0,0,1,,,,,,,,,,,,,,,,,,,,,,,,,,,,,,,,,,,,,,,,,
905148,001,2022-11-14_24h27.42.366,Info_measure_main_exp,2022.2.2,MacIntel,59.99520038,,,,,,,,,,,,,,,,,,masks/mask_002.jpg,,,,,,,,,,,,,,,,,,,,,,,,,,,,,,,,,,,,,,,,,,,,,,,,0,1,1,1,1,,,,,,,,,,,,,,,,,,,,,,,,,,,,,,,,,,,,,,,,,
905148,001,2022-11-14_24h27.42.366,Info_measure_main_exp,2022.2.2,MacIntel,59.99520038,,,,,,,,,,,,,,,,,,masks/mask_003.jpg,,,,,,,,,,,,,,,,,,,,,,,,,,,,,,,,,,,,,,,,,,,,,,,,0,2,2,2,1,,,,,,,,,,,,,,,,,,,,,,,,,,,,,,,,,,,,,,,,,
905148,001,2022-11-14_24h27.42.366,Info_measure_main_exp,2022.2.2,MacIntel,59.99520038,,,,,,,,,,,,,,,,,,masks/mask_005.jpg,,,,,,,,,,,,,,,,,,,,,,,,,,,,,,,,,,,,,,,,,,,,,,,,0,3,3,4,1,,,,,,,,,,,,,,,,,,,,,,,,,,,,,,,,,,,,,,,,,
905148,001,2022-11-14_24h27.42.366,Info_measure_main_exp,2022.2.2,MacIntel,59.99520038,,,,,,,,,,,,,,,,,,masks/mask_004.jpg,,,,,,,,,,,,,,,,,,,,,,,,,,,,,,,,,,,,,,,,,,,,,,,,0,4,4,3,1,,,,,,,,,,,,,,,,,,,,,,,,,,,,,,,,,,,,,,,,,
905148,001,2022-11-14_24h27.42.366,Info_measure_main_exp,2022.2.2,MacIntel,59.99520038,,,,,,,,,,,,,,,,,,,,,,,,,,,,,,4,0.5323,1,,,,,,,,,,,,0,131,5,5,2250,2142,absent_patch/patch0002250.jpg,absent_patch/patch0002142.jpg,,,,,,,,,,,,,,,,,,,,0.08626922,-0.133007271,1,0,0,response3disk,24,0.017439147,-0.00228848,1,0,0,center_square,0,23,23,71,1,,,,,,,,,,,,,,,,,,,,,,,
905148,001,2022-11-14_24h27.42.366,Info_measure_main_exp,2022.2.2,MacIntel,59.99520038,,,,,,,,,,,,,,,,,,masks/mask_005.jpg,,,,,,,,,,,,,,,,,,,,,,,,,,,,,,,,,,,,,,,,,,,0,0,0,4,1,,,,,,,,,,,,,,,,,,,,,,,,,,,,,,,,,,,,,,,,,,,,,,
905148,001,2022-11-14_24h27.42.366,Info_measure_main_exp,2022.2.2,MacIntel,59.99520038,,,,,,,,,,,,,,,,,,masks/mask_002.jpg,,,,,,,,,,,,,,,,,,,,,,,,,,,,,,,,,,,,,,,,,,,0,1,1,1,1,,,,,,,,,,,,,,,,,,,,,,,,,,,,,,,,,,,,,,,,,,,,,,
905148,001,2022-11-14_24h27.42.366,Info_measure_main_exp,2022.2.2,MacIntel,59.99520038,,,,,,,,,,,,,,,,,,masks/mask_001.jpg,,,,,,,,,,,,,,,,,,,,,,,,,,,,,,,,,,,,,,,,,,,0,2,2,0,1,,,,,,,,,,,,,,,,,,,,,,,,,,,,,,,,,,,,,,,,,,,,,,
905148,001,2022-11-14_24h27.42.366,Info_measure_main_exp,2022.2.2,MacIntel,59.99520038,,,,,,,,,,,,,,,,,,masks/mask_004.jpg,,,,,,,,,,,,,,,,,,,,,,,,,,,,,,,,,,,,,,,,,,,0,3,3,3,1,,,,,,,,,,,,,,,,,,,,,,,,,,,,,,,,,,,,,,,,,,,,,,
905148,001,2022-11-14_24h27.42.366,Info_measure_main_exp,2022.2.2,MacIntel,59.99520038,,,,,,,,,,,,,,,,,,masks/mask_003.jpg,,,,,,,,,,,,,,,,,,,,,,,,,,,,,,,,,,,,,,,,,,,0,4,4,2,1,,,,,,,,,,,,,,,,,,,,,,,,,,,,,,,,,,,,,,,,,,,,,,
905148,001,2022-11-14_24h27.42.366,Info_measure_main_exp,2022.2.2,MacIntel,59.99520038,,,,,,,,,,,,,,,,,,masks/mask_005.jpg,,,,,,,,,,,,,,,,,,,,,,,,,,,,,,,,,,,,,,,,,,,,,,,,0,0,0,4,1,,,,,,,,,,,,,,,,,,,,,,,,,,,,,,,,,,,,,,,,,
905148,001,2022-11-14_24h27.42.366,Info_measure_main_exp,2022.2.2,MacIntel,59.99520038,,,,,,,,,,,,,,,,,,masks/mask_001.jpg,,,,,,,,,,,,,,,,,,,,,,,,,,,,,,,,,,,,,,,,,,,,,,,,0,1,1,0,1,,,,,,,,,,,,,,,,,,,,,,,,,,,,,,,,,,,,,,,,,
905148,001,2022-11-14_24h27.42.366,Info_measure_main_exp,2022.2.2,MacIntel,59.99520038,,,,,,,,,,,,,,,,,,masks/mask_002.jpg,,,,,,,,,,,,,,,,,,,,,,,,,,,,,,,,,,,,,,,,,,,,,,,,0,2,2,1,1,,,,,,,,,,,,,,,,,,,,,,,,,,,,,,,,,,,,,,,,,
905148,001,2022-11-14_24h27.42.366,Info_measure_main_exp,2022.2.2,MacIntel,59.99520038,,,,,,,,,,,,,,,,,,masks/mask_003.jpg,,,,,,,,,,,,,,,,,,,,,,,,,,,,,,,,,,,,,,,,,,,,,,,,0,3,3,2,1,,,,,,,,,,,,,,,,,,,,,,,,,,,,,,,,,,,,,,,,,
905148,001,2022-11-14_24h27.42.366,Info_measure_main_exp,2022.2.2,MacIntel,59.99520038,,,,,,,,,,,,,,,,,,masks/mask_004.jpg,,,,,,,,,,,,,,,,,,,,,,,,,,,,,,,,,,,,,,,,,,,,,,,,0,4,4,3,1,,,,,,,,,,,,,,,,,,,,,,,,,,,,,,,,,,,,,,,,,
905148,001,2022-11-14_24h27.42.366,Info_measure_main_exp,2022.2.2,MacIntel,59.99520038,,,,,,,,,,,,,,,,,,,,,,,,,,,,,,5,0.6002,1,,,,,,,,,,,,0,131,5,5,2298,2178,absent_patch/patch0002298.jpg,absent_patch/patch0002178.jpg,,,,,,,,,,,,,,,,,,,,0.160745129,-0.064837934,1,0,0,response3disk,25,0.008541879,-0.005061691,1,0,0,center_square,0,24,24,84,1,,,,,,,,,,,,,,,,,,,,,,,
905148,001,2022-11-14_24h27.42.366,Info_measure_main_exp,2022.2.2,MacIntel,59.99520038,,,,,,,,,,,,,,,,,,masks/mask_001.jpg,,,,,,,,,,,,,,,,,,,,,,,,,,,,,,,,,,,,,,,,,,,0,0,0,0,1,,,,,,,,,,,,,,,,,,,,,,,,,,,,,,,,,,,,,,,,,,,,,,
905148,001,2022-11-14_24h27.42.366,Info_measure_main_exp,2022.2.2,MacIntel,59.99520038,,,,,,,,,,,,,,,,,,masks/mask_004.jpg,,,,,,,,,,,,,,,,,,,,,,,,,,,,,,,,,,,,,,,,,,,0,1,1,3,1,,,,,,,,,,,,,,,,,,,,,,,,,,,,,,,,,,,,,,,,,,,,,,
905148,001,2022-11-14_24h27.42.366,Info_measure_main_exp,2022.2.2,MacIntel,59.99520038,,,,,,,,,,,,,,,,,,masks/mask_002.jpg,,,,,,,,,,,,,,,,,,,,,,,,,,,,,,,,,,,,,,,,,,,0,2,2,1,1,,,,,,,,,,,,,,,,,,,,,,,,,,,,,,,,,,,,,,,,,,,,,,
905148,001,2022-11-14_24h27.42.366,Info_measure_main_exp,2022.2.2,MacIntel,59.99520038,,,,,,,,,,,,,,,,,,masks/mask_003.jpg,,,,,,,,,,,,,,,,,,,,,,,,,,,,,,,,,,,,,,,,,,,0,3,3,2,1,,,,,,,,,,,,,,,,,,,,,,,,,,,,,,,,,,,,,,,,,,,,,,
905148,001,2022-11-14_24h27.42.366,Info_measure_main_exp,2022.2.2,MacIntel,59.99520038,,,,,,,,,,,,,,,,,,masks/mask_005.jpg,,,,,,,,,,,,,,,,,,,,,,,,,,,,,,,,,,,,,,,,,,,0,4,4,4,1,,,,,,,,,,,,,,,,,,,,,,,,,,,,,,,,,,,,,,,,,,,,,,
905148,001,2022-11-14_24h27.42.366,Info_measure_main_exp,2022.2.2,MacIntel,59.99520038,,,,,,,,,,,,,,,,,,masks/mask_002.jpg,,,,,,,,,,,,,,,,,,,,,,,,,,,,,,,,,,,,,,,,,,,,,,,,0,0,0,1,1,,,,,,,,,,,,,,,,,,,,,,,,,,,,,,,,,,,,,,,,,
905148,001,2022-11-14_24h27.42.366,Info_measure_main_exp,2022.2.2,MacIntel,59.99520038,,,,,,,,,,,,,,,,,,masks/mask_004.jpg,,,,,,,,,,,,,,,,,,,,,,,,,,,,,,,,,,,,,,,,,,,,,,,,0,1,1,3,1,,,,,,,,,,,,,,,,,,,,,,,,,,,,,,,,,,,,,,,,,
905148,001,2022-11-14_24h27.42.366,Info_measure_main_exp,2022.2.2,MacIntel,59.99520038,,,,,,,,,,,,,,,,,,masks/mask_003.jpg,,,,,,,,,,,,,,,,,,,,,,,,,,,,,,,,,,,,,,,,,,,,,,,,0,2,2,2,1,,,,,,,,,,,,,,,,,,,,,,,,,,,,,,,,,,,,,,,,,
905148,001,2022-11-14_24h27.42.366,Info_measure_main_exp,2022.2.2,MacIntel,59.99520038,,,,,,,,,,,,,,,,,,masks/mask_001.jpg,,,,,,,,,,,,,,,,,,,,,,,,,,,,,,,,,,,,,,,,,,,,,,,,0,3,3,0,1,,,,,,,,,,,,,,,,,,,,,,,,,,,,,,,,,,,,,,,,,
905148,001,2022-11-14_24h27.42.366,Info_measure_main_exp,2022.2.2,MacIntel,59.99520038,,,,,,,,,,,,,,,,,,masks/mask_005.jpg,,,,,,,,,,,,,,,,,,,,,,,,,,,,,,,,,,,,,,,,,,,,,,,,0,4,4,4,1,,,,,,,,,,,,,,,,,,,,,,,,,,,,,,,,,,,,,,,,,
905148,001,2022-11-14_24h27.42.366,Info_measure_main_exp,2022.2.2,MacIntel,59.99520038,,,,,,,,,,,,,,,,,,,,,,,,,,,,,,1,0.5997,1,,,,,,,,,,,,0,131,5,5,2214,2214,absent_patch/patch0002214.jpg,absent_patch/patch0002214.jpg,,,,,,,,,,,,,,,,,,,,-0.226997101,0.074842036,1,0,0,response7disk,26,-0.003511297,0.00462261,1,0,0,center_square,0,25,25,115,1,,,,,,,,,,,,,,,,,,,,,,,
905148,001,2022-11-14_24h27.42.366,Info_measure_main_exp,2022.2.2,MacIntel,59.99520038,,,,,,,,,,,,,,,,,,masks/mask_004.jpg,,,,,,,,,,,,,,,,,,,,,,,,,,,,,,,,,,,,,,,,,,,0,0,0,3,1,,,,,,,,,,,,,,,,,,,,,,,,,,,,,,,,,,,,,,,,,,,,,,
905148,001,2022-11-14_24h27.42.366,Info_measure_main_exp,2022.2.2,MacIntel,59.99520038,,,,,,,,,,,,,,,,,,masks/mask_005.jpg,,,,,,,,,,,,,,,,,,,,,,,,,,,,,,,,,,,,,,,,,,,0,1,1,4,1,,,,,,,,,,,,,,,,,,,,,,,,,,,,,,,,,,,,,,,,,,,,,,
905148,001,2022-11-14_24h27.42.366,Info_measure_main_exp,2022.2.2,MacIntel,59.99520038,,,,,,,,,,,,,,,,,,masks/mask_002.jpg,,,,,,,,,,,,,,,,,,,,,,,,,,,,,,,,,,,,,,,,,,,0,2,2,1,1,,,,,,,,,,,,,,,,,,,,,,,,,,,,,,,,,,,,,,,,,,,,,,
905148,001,2022-11-14_24h27.42.366,Info_measure_main_exp,2022.2.2,MacIntel,59.99520038,,,,,,,,,,,,,,,,,,masks/mask_003.jpg,,,,,,,,,,,,,,,,,,,,,,,,,,,,,,,,,,,,,,,,,,,0,3,3,2,1,,,,,,,,,,,,,,,,,,,,,,,,,,,,,,,,,,,,,,,,,,,,,,
905148,001,2022-11-14_24h27.42.366,Info_measure_main_exp,2022.2.2,MacIntel,59.99520038,,,,,,,,,,,,,,,,,,masks/mask_001.jpg,,,,,,,,,,,,,,,,,,,,,,,,,,,,,,,,,,,,,,,,,,,0,4,4,0,1,,,,,,,,,,,,,,,,,,,,,,,,,,,,,,,,,,,,,,,,,,,,,,
905148,001,2022-11-14_24h27.42.366,Info_measure_main_exp,2022.2.2,MacIntel,59.99520038,,,,,,,,,,,,,,,,,,masks/mask_004.jpg,,,,,,,,,,,,,,,,,,,,,,,,,,,,,,,,,,,,,,,,,,,,,,,,0,0,0,3,1,,,,,,,,,,,,,,,,,,,,,,,,,,,,,,,,,,,,,,,,,
905148,001,2022-11-14_24h27.42.366,Info_measure_main_exp,2022.2.2,MacIntel,59.99520038,,,,,,,,,,,,,,,,,,masks/mask_002.jpg,,,,,,,,,,,,,,,,,,,,,,,,,,,,,,,,,,,,,,,,,,,,,,,,0,1,1,1,1,,,,,,,,,,,,,,,,,,,,,,,,,,,,,,,,,,,,,,,,,
905148,001,2022-11-14_24h27.42.366,Info_measure_main_exp,2022.2.2,MacIntel,59.99520038,,,,,,,,,,,,,,,,,,masks/mask_005.jpg,,,,,,,,,,,,,,,,,,,,,,,,,,,,,,,,,,,,,,,,,,,,,,,,0,2,2,4,1,,,,,,,,,,,,,,,,,,,,,,,,,,,,,,,,,,,,,,,,,
905148,001,2022-11-14_24h27.42.366,Info_measure_main_exp,2022.2.2,MacIntel,59.99520038,,,,,,,,,,,,,,,,,,masks/mask_001.jpg,,,,,,,,,,,,,,,,,,,,,,,,,,,,,,,,,,,,,,,,,,,,,,,,0,3,3,0,1,,,,,,,,,,,,,,,,,,,,,,,,,,,,,,,,,,,,,,,,,
905148,001,2022-11-14_24h27.42.366,Info_measure_main_exp,2022.2.2,MacIntel,59.99520038,,,,,,,,,,,,,,,,,,masks/mask_003.jpg,,,,,,,,,,,,,,,,,,,,,,,,,,,,,,,,,,,,,,,,,,,,,,,,0,4,4,2,1,,,,,,,,,,,,,,,,,,,,,,,,,,,,,,,,,,,,,,,,,
905148,001,2022-11-14_24h27.42.366,Info_measure_main_exp,2022.2.2,MacIntel,59.99520038,,,,,,,,,,,,,,,,,,,,,,,,,,,,,,5,0.8004,1,,,,,,,,,,,,1,131,5,5,1,2178,present_patch/cong_131_5_a.jpg,absent_patch/patch0002178.jpg,,,,,,,,,,,,,,,,,,,,0.171443527,-0.063269618,1,0,0,response3disk,27,0.016501303,-0.015453138,1,0,0,center_square,0,26,26,40,1,,,,,,,,,,,,,,,,,,,,,,,
905148,001,2022-11-14_24h27.42.366,Info_measure_main_exp,2022.2.2,MacIntel,59.99520038,,,,,,,,,,,,,,,,,,masks/mask_004.jpg,,,,,,,,,,,,,,,,,,,,,,,,,,,,,,,,,,,,,,,,,,,0,0,0,3,1,,,,,,,,,,,,,,,,,,,,,,,,,,,,,,,,,,,,,,,,,,,,,,
905148,001,2022-11-14_24h27.42.366,Info_measure_main_exp,2022.2.2,MacIntel,59.99520038,,,,,,,,,,,,,,,,,,masks/mask_005.jpg,,,,,,,,,,,,,,,,,,,,,,,,,,,,,,,,,,,,,,,,,,,0,1,1,4,1,,,,,,,,,,,,,,,,,,,,,,,,,,,,,,,,,,,,,,,,,,,,,,
905148,001,2022-11-14_24h27.42.366,Info_measure_main_exp,2022.2.2,MacIntel,59.99520038,,,,,,,,,,,,,,,,,,masks/mask_003.jpg,,,,,,,,,,,,,,,,,,,,,,,,,,,,,,,,,,,,,,,,,,,0,2,2,2,1,,,,,,,,,,,,,,,,,,,,,,,,,,,,,,,,,,,,,,,,,,,,,,
905148,001,2022-11-14_24h27.42.366,Info_measure_main_exp,2022.2.2,MacIntel,59.99520038,,,,,,,,,,,,,,,,,,masks/mask_002.jpg,,,,,,,,,,,,,,,,,,,,,,,,,,,,,,,,,,,,,,,,,,,0,3,3,1,1,,,,,,,,,,,,,,,,,,,,,,,,,,,,,,,,,,,,,,,,,,,,,,
905148,001,2022-11-14_24h27.42.366,Info_measure_main_exp,2022.2.2,MacIntel,59.99520038,,,,,,,,,,,,,,,,,,masks/mask_001.jpg,,,,,,,,,,,,,,,,,,,,,,,,,,,,,,,,,,,,,,,,,,,0,4,4,0,1,,,,,,,,,,,,,,,,,,,,,,,,,,,,,,,,,,,,,,,,,,,,,,
905148,001,2022-11-14_24h27.42.366,Info_measure_main_exp,2022.2.2,MacIntel,59.99520038,,,,,,,,,,,,,,,,,,masks/mask_003.jpg,,,,,,,,,,,,,,,,,,,,,,,,,,,,,,,,,,,,,,,,,,,,,,,,0,0,0,2,1,,,,,,,,,,,,,,,,,,,,,,,,,,,,,,,,,,,,,,,,,
905148,001,2022-11-14_24h27.42.366,Info_measure_main_exp,2022.2.2,MacIntel,59.99520038,,,,,,,,,,,,,,,,,,masks/mask_005.jpg,,,,,,,,,,,,,,,,,,,,,,,,,,,,,,,,,,,,,,,,,,,,,,,,0,1,1,4,1,,,,,,,,,,,,,,,,,,,,,,,,,,,,,,,,,,,,,,,,,
905148,001,2022-11-14_24h27.42.366,Info_measure_main_exp,2022.2.2,MacIntel,59.99520038,,,,,,,,,,,,,,,,,,masks/mask_002.jpg,,,,,,,,,,,,,,,,,,,,,,,,,,,,,,,,,,,,,,,,,,,,,,,,0,2,2,1,1,,,,,,,,,,,,,,,,,,,,,,,,,,,,,,,,,,,,,,,,,
905148,001,2022-11-14_24h27.42.366,Info_measure_main_exp,2022.2.2,MacIntel,59.99520038,,,,,,,,,,,,,,,,,,masks/mask_004.jpg,,,,,,,,,,,,,,,,,,,,,,,,,,,,,,,,,,,,,,,,,,,,,,,,0,3,3,3,1,,,,,,,,,,,,,,,,,,,,,,,,,,,,,,,,,,,,,,,,,
905148,001,2022-11-14_24h27.42.366,Info_measure_main_exp,2022.2.2,MacIntel,59.99520038,,,,,,,,,,,,,,,,,,masks/mask_001.jpg,,,,,,,,,,,,,,,,,,,,,,,,,,,,,,,,,,,,,,,,,,,,,,,,0,4,4,0,1,,,,,,,,,,,,,,,,,,,,,,,,,,,,,,,,,,,,,,,,,
905148,001,2022-11-14_24h27.42.366,Info_measure_main_exp,2022.2.2,MacIntel,59.99520038,,,,,,,,,,,,,,,,,,,,,,,,,,,,,,4,1.6335,1,,,,,,,,,,,,0,131,5,5,1986,2154,absent_patch/patch0001986.jpg,absent_patch/patch0002154.jpg,,,,,,,,,,,,,,,,,,,,0.097223763,-0.198802325,1,0,0,response3disk,28,0.004990681,-0.019415309,1,0,0,center_square,0,27,27,36,1,,,,,,,,,,,,,,,,,,,,,,,
905148,001,2022-11-14_24h27.42.366,Info_measure_main_exp,2022.2.2,MacIntel,59.99520038,,,,,,,,,,,,,,,,,,masks/mask_004.jpg,,,,,,,,,,,,,,,,,,,,,,,,,,,,,,,,,,,,,,,,,,,0,0,0,3,1,,,,,,,,,,,,,,,,,,,,,,,,,,,,,,,,,,,,,,,,,,,,,,
905148,001,2022-11-14_24h27.42.366,Info_measure_main_exp,2022.2.2,MacIntel,59.99520038,,,,,,,,,,,,,,,,,,masks/mask_005.jpg,,,,,,,,,,,,,,,,,,,,,,,,,,,,,,,,,,,,,,,,,,,0,1,1,4,1,,,,,,,,,,,,,,,,,,,,,,,,,,,,,,,,,,,,,,,,,,,,,,
905148,001,2022-11-14_24h27.42.366,Info_measure_main_exp,2022.2.2,MacIntel,59.99520038,,,,,,,,,,,,,,,,,,masks/mask_001.jpg,,,,,,,,,,,,,,,,,,,,,,,,,,,,,,,,,,,,,,,,,,,0,2,2,0,1,,,,,,,,,,,,,,,,,,,,,,,,,,,,,,,,,,,,,,,,,,,,,,
905148,001,2022-11-14_24h27.42.366,Info_measure_main_exp,2022.2.2,MacIntel,59.99520038,,,,,,,,,,,,,,,,,,masks/mask_003.jpg,,,,,,,,,,,,,,,,,,,,,,,,,,,,,,,,,,,,,,,,,,,0,3,3,2,1,,,,,,,,,,,,,,,,,,,,,,,,,,,,,,,,,,,,,,,,,,,,,,
905148,001,2022-11-14_24h27.42.366,Info_measure_main_exp,2022.2.2,MacIntel,59.99520038,,,,,,,,,,,,,,,,,,masks/mask_002.jpg,,,,,,,,,,,,,,,,,,,,,,,,,,,,,,,,,,,,,,,,,,,0,4,4,1,1,,,,,,,,,,,,,,,,,,,,,,,,,,,,,,,,,,,,,,,,,,,,,,
905148,001,2022-11-14_24h27.42.366,Info_measure_main_exp,2022.2.2,MacIntel,59.99520038,,,,,,,,,,,,,,,,,,masks/mask_003.jpg,,,,,,,,,,,,,,,,,,,,,,,,,,,,,,,,,,,,,,,,,,,,,,,,0,0,0,2,1,,,,,,,,,,,,,,,,,,,,,,,,,,,,,,,,,,,,,,,,,
905148,001,2022-11-14_24h27.42.366,Info_measure_main_exp,2022.2.2,MacIntel,59.99520038,,,,,,,,,,,,,,,,,,masks/mask_004.jpg,,,,,,,,,,,,,,,,,,,,,,,,,,,,,,,,,,,,,,,,,,,,,,,,0,1,1,3,1,,,,,,,,,,,,,,,,,,,,,,,,,,,,,,,,,,,,,,,,,
905148,001,2022-11-14_24h27.42.366,Info_measure_main_exp,2022.2.2,MacIntel,59.99520038,,,,,,,,,,,,,,,,,,masks/mask_005.jpg,,,,,,,,,,,,,,,,,,,,,,,,,,,,,,,,,,,,,,,,,,,,,,,,0,2,2,4,1,,,,,,,,,,,,,,,,,,,,,,,,,,,,,,,,,,,,,,,,,
905148,001,2022-11-14_24h27.42.366,Info_measure_main_exp,2022.2.2,MacIntel,59.99520038,,,,,,,,,,,,,,,,,,masks/mask_002.jpg,,,,,,,,,,,,,,,,,,,,,,,,,,,,,,,,,,,,,,,,,,,,,,,,0,3,3,1,1,,,,,,,,,,,,,,,,,,,,,,,,,,,,,,,,,,,,,,,,,
905148,001,2022-11-14_24h27.42.366,Info_measure_main_exp,2022.2.2,MacIntel,59.99520038,,,,,,,,,,,,,,,,,,masks/mask_001.jpg,,,,,,,,,,,,,,,,,,,,,,,,,,,,,,,,,,,,,,,,,,,,,,,,0,4,4,0,1,,,,,,,,,,,,,,,,,,,,,,,,,,,,,,,,,,,,,,,,,
905148,001,2022-11-14_24h27.42.366,Info_measure_main_exp,2022.2.2,MacIntel,59.99520038,,,,,,,,,,,,,,,,,,,,,,,,,,,,,,6,0.9331,1,,,,,,,,,,,,0,131,5,5,2274,2142,absent_patch/patch0002274.jpg,absent_patch/patch0002142.jpg,,,,,,,,,,,,,,,,,,,,0.212089052,0.054771656,1,0,0,response1disk,29,0.002731027,-0.004609126,1,0,0,center_square,0,28,28,75,1,,,,,,,,,,,,,,,,,,,,,,,
905148,001,2022-11-14_24h27.42.366,Info_measure_main_exp,2022.2.2,MacIntel,59.99520038,,,,,,,,,,,,,,,,,,masks/mask_001.jpg,,,,,,,,,,,,,,,,,,,,,,,,,,,,,,,,,,,,,,,,,,,0,0,0,0,1,,,,,,,,,,,,,,,,,,,,,,,,,,,,,,,,,,,,,,,,,,,,,,
905148,001,2022-11-14_24h27.42.366,Info_measure_main_exp,2022.2.2,MacIntel,59.99520038,,,,,,,,,,,,,,,,,,masks/mask_005.jpg,,,,,,,,,,,,,,,,,,,,,,,,,,,,,,,,,,,,,,,,,,,0,1,1,4,1,,,,,,,,,,,,,,,,,,,,,,,,,,,,,,,,,,,,,,,,,,,,,,
905148,001,2022-11-14_24h27.42.366,Info_measure_main_exp,2022.2.2,MacIntel,59.99520038,,,,,,,,,,,,,,,,,,masks/mask_002.jpg,,,,,,,,,,,,,,,,,,,,,,,,,,,,,,,,,,,,,,,,,,,0,2,2,1,1,,,,,,,,,,,,,,,,,,,,,,,,,,,,,,,,,,,,,,,,,,,,,,
905148,001,2022-11-14_24h27.42.366,Info_measure_main_exp,2022.2.2,MacIntel,59.99520038,,,,,,,,,,,,,,,,,,masks/mask_004.jpg,,,,,,,,,,,,,,,,,,,,,,,,,,,,,,,,,,,,,,,,,,,0,3,3,3,1,,,,,,,,,,,,,,,,,,,,,,,,,,,,,,,,,,,,,,,,,,,,,,
905148,001,2022-11-14_24h27.42.366,Info_measure_main_exp,2022.2.2,MacIntel,59.99520038,,,,,,,,,,,,,,,,,,masks/mask_003.jpg,,,,,,,,,,,,,,,,,,,,,,,,,,,,,,,,,,,,,,,,,,,0,4,4,2,1,,,,,,,,,,,,,,,,,,,,,,,,,,,,,,,,,,,,,,,,,,,,,,
905148,001,2022-11-14_24h27.42.366,Info_measure_main_exp,2022.2.2,MacIntel,59.99520038,,,,,,,,,,,,,,,,,,masks/mask_003.jpg,,,,,,,,,,,,,,,,,,,,,,,,,,,,,,,,,,,,,,,,,,,,,,,,0,0,0,2,1,,,,,,,,,,,,,,,,,,,,,,,,,,,,,,,,,,,,,,,,,
905148,001,2022-11-14_24h27.42.366,Info_measure_main_exp,2022.2.2,MacIntel,59.99520038,,,,,,,,,,,,,,,,,,masks/mask_002.jpg,,,,,,,,,,,,,,,,,,,,,,,,,,,,,,,,,,,,,,,,,,,,,,,,0,1,1,1,1,,,,,,,,,,,,,,,,,,,,,,,,,,,,,,,,,,,,,,,,,
905148,001,2022-11-14_24h27.42.366,Info_measure_main_exp,2022.2.2,MacIntel,59.99520038,,,,,,,,,,,,,,,,,,masks/mask_005.jpg,,,,,,,,,,,,,,,,,,,,,,,,,,,,,,,,,,,,,,,,,,,,,,,,0,2,2,4,1,,,,,,,,,,,,,,,,,,,,,,,,,,,,,,,,,,,,,,,,,
905148,001,2022-11-14_24h27.42.366,Info_measure_main_exp,2022.2.2,MacIntel,59.99520038,,,,,,,,,,,,,,,,,,masks/mask_001.jpg,,,,,,,,,,,,,,,,,,,,,,,,,,,,,,,,,,,,,,,,,,,,,,,,0,3,3,0,1,,,,,,,,,,,,,,,,,,,,,,,,,,,,,,,,,,,,,,,,,
905148,001,2022-11-14_24h27.42.366,Info_measure_main_exp,2022.2.2,MacIntel,59.99520038,,,,,,,,,,,,,,,,,,masks/mask_004.jpg,,,,,,,,,,,,,,,,,,,,,,,,,,,,,,,,,,,,,,,,,,,,,,,,0,4,4,3,1,,,,,,,,,,,,,,,,,,,,,,,,,,,,,,,,,,,,,,,,,
905148,001,2022-11-14_24h27.42.366,Info_measure_main_exp,2022.2.2,MacIntel,59.99520038,,,,,,,,,,,,,,,,,,,,,,,,,,,,,,5,1.1,1,,,,,,,,,,,,0,131,5,5,2154,2238,absent_patch/patch0002154.jpg,absent_patch/patch0002238.jpg,,,,,,,,,,,,,,,,,,,,0.230005322,-0.067969367,1,0,0,response3disk,30,0.011141706,-0.001311284,1,0,0,center_square,0,29,29,21,1,,,,,,,,,,,,,,,,,,,,,,,
905148,001,2022-11-14_24h27.42.366,Info_measure_main_exp,2022.2.2,MacIntel,59.99520038,,,,,,,,,,,,,,,,,,masks/mask_003.jpg,,,,,,,,,,,,,,,,,,,,,,,,,,,,,,,,,,,,,,,,,,,0,0,0,2,1,,,,,,,,,,,,,,,,,,,,,,,,,,,,,,,,,,,,,,,,,,,,,,
905148,001,2022-11-14_24h27.42.366,Info_measure_main_exp,2022.2.2,MacIntel,59.99520038,,,,,,,,,,,,,,,,,,masks/mask_001.jpg,,,,,,,,,,,,,,,,,,,,,,,,,,,,,,,,,,,,,,,,,,,0,1,1,0,1,,,,,,,,,,,,,,,,,,,,,,,,,,,,,,,,,,,,,,,,,,,,,,
905148,001,2022-11-14_24h27.42.366,Info_measure_main_exp,2022.2.2,MacIntel,59.99520038,,,,,,,,,,,,,,,,,,masks/mask_004.jpg,,,,,,,,,,,,,,,,,,,,,,,,,,,,,,,,,,,,,,,,,,,0,2,2,3,1,,,,,,,,,,,,,,,,,,,,,,,,,,,,,,,,,,,,,,,,,,,,,,
905148,001,2022-11-14_24h27.42.366,Info_measure_main_exp,2022.2.2,MacIntel,59.99520038,,,,,,,,,,,,,,,,,,masks/mask_002.jpg,,,,,,,,,,,,,,,,,,,,,,,,,,,,,,,,,,,,,,,,,,,0,3,3,1,1,,,,,,,,,,,,,,,,,,,,,,,,,,,,,,,,,,,,,,,,,,,,,,
905148,001,2022-11-14_24h27.42.366,Info_measure_main_exp,2022.2.2,MacIntel,59.99520038,,,,,,,,,,,,,,,,,,masks/mask_005.jpg,,,,,,,,,,,,,,,,,,,,,,,,,,,,,,,,,,,,,,,,,,,0,4,4,4,1,,,,,,,,,,,,,,,,,,,,,,,,,,,,,,,,,,,,,,,,,,,,,,
905148,001,2022-11-14_24h27.42.366,Info_measure_main_exp,2022.2.2,MacIntel,59.99520038,,,,,,,,,,,,,,,,,,masks/mask_005.jpg,,,,,,,,,,,,,,,,,,,,,,,,,,,,,,,,,,,,,,,,,,,,,,,,0,0,0,4,1,,,,,,,,,,,,,,,,,,,,,,,,,,,,,,,,,,,,,,,,,
905148,001,2022-11-14_24h27.42.366,Info_measure_main_exp,2022.2.2,MacIntel,59.99520038,,,,,,,,,,,,,,,,,,masks/mask_004.jpg,,,,,,,,,,,,,,,,,,,,,,,,,,,,,,,,,,,,,,,,,,,,,,,,0,1,1,3,1,,,,,,,,,,,,,,,,,,,,,,,,,,,,,,,,,,,,,,,,,
905148,001,2022-11-14_24h27.42.366,Info_measure_main_exp,2022.2.2,MacIntel,59.99520038,,,,,,,,,,,,,,,,,,masks/mask_001.jpg,,,,,,,,,,,,,,,,,,,,,,,,,,,,,,,,,,,,,,,,,,,,,,,,0,2,2,0,1,,,,,,,,,,,,,,,,,,,,,,,,,,,,,,,,,,,,,,,,,
905148,001,2022-11-14_24h27.42.366,Info_measure_main_exp,2022.2.2,MacIntel,59.99520038,,,,,,,,,,,,,,,,,,masks/mask_002.jpg,,,,,,,,,,,,,,,,,,,,,,,,,,,,,,,,,,,,,,,,,,,,,,,,0,3,3,1,1,,,,,,,,,,,,,,,,,,,,,,,,,,,,,,,,,,,,,,,,,
905148,001,2022-11-14_24h27.42.366,Info_measure_main_exp,2022.2.2,MacIntel,59.99520038,,,,,,,,,,,,,,,,,,masks/mask_003.jpg,,,,,,,,,,,,,,,,,,,,,,,,,,,,,,,,,,,,,,,,,,,,,,,,0,4,4,2,1,,,,,,,,,,,,,,,,,,,,,,,,,,,,,,,,,,,,,,,,,
905148,001,2022-11-14_24h27.42.366,Info_measure_main_exp,2022.2.2,MacIntel,59.99520038,,,,,,,,,,,,,,,,,,,,,,,,,,,,,,6,1.0832,1,,,,,,,,,,,,0,131,5,5,2238,2298,absent_patch/patch0002238.jpg,absent_patch/patch0002298.jpg,,,,,,,,,,,,,,,,,,,,0.265712918,0.13180542,1,0,0,response1disk,31,0.006016528,-0.002858593,1,0,0,center_square,0,30,30,51,1,,,,,,,,,,,,,,,,,,,,,,,
905148,001,2022-11-14_24h27.42.366,Info_measure_main_exp,2022.2.2,MacIntel,59.99520038,,,,,,,,,,,,,,,,,,masks/mask_005.jpg,,,,,,,,,,,,,,,,,,,,,,,,,,,,,,,,,,,,,,,,,,,0,0,0,4,1,,,,,,,,,,,,,,,,,,,,,,,,,,,,,,,,,,,,,,,,,,,,,,
905148,001,2022-11-14_24h27.42.366,Info_measure_main_exp,2022.2.2,MacIntel,59.99520038,,,,,,,,,,,,,,,,,,masks/mask_004.jpg,,,,,,,,,,,,,,,,,,,,,,,,,,,,,,,,,,,,,,,,,,,0,1,1,3,1,,,,,,,,,,,,,,,,,,,,,,,,,,,,,,,,,,,,,,,,,,,,,,
905148,001,2022-11-14_24h27.42.366,Info_measure_main_exp,2022.2.2,MacIntel,59.99520038,,,,,,,,,,,,,,,,,,masks/mask_001.jpg,,,,,,,,,,,,,,,,,,,,,,,,,,,,,,,,,,,,,,,,,,,0,2,2,0,1,,,,,,,,,,,,,,,,,,,,,,,,,,,,,,,,,,,,,,,,,,,,,,
905148,001,2022-11-14_24h27.42.366,Info_measure_main_exp,2022.2.2,MacIntel,59.99520038,,,,,,,,,,,,,,,,,,masks/mask_002.jpg,,,,,,,,,,,,,,,,,,,,,,,,,,,,,,,,,,,,,,,,,,,0,3,3,1,1,,,,,,,,,,,,,,,,,,,,,,,,,,,,,,,,,,,,,,,,,,,,,,
905148,001,2022-11-14_24h27.42.366,Info_measure_main_exp,2022.2.2,MacIntel,59.99520038,,,,,,,,,,,,,,,,,,masks/mask_003.jpg,,,,,,,,,,,,,,,,,,,,,,,,,,,,,,,,,,,,,,,,,,,0,4,4,2,1,,,,,,,,,,,,,,,,,,,,,,,,,,,,,,,,,,,,,,,,,,,,,,
905148,001,2022-11-14_24h27.42.366,Info_measure_main_exp,2022.2.2,MacIntel,59.99520038,,,,,,,,,,,,,,,,,,masks/mask_001.jpg,,,,,,,,,,,,,,,,,,,,,,,,,,,,,,,,,,,,,,,,,,,,,,,,0,0,0,0,1,,,,,,,,,,,,,,,,,,,,,,,,,,,,,,,,,,,,,,,,,
905148,001,2022-11-14_24h27.42.366,Info_measure_main_exp,2022.2.2,MacIntel,59.99520038,,,,,,,,,,,,,,,,,,masks/mask_004.jpg,,,,,,,,,,,,,,,,,,,,,,,,,,,,,,,,,,,,,,,,,,,,,,,,0,1,1,3,1,,,,,,,,,,,,,,,,,,,,,,,,,,,,,,,,,,,,,,,,,
905148,001,2022-11-14_24h27.42.366,Info_measure_main_exp,2022.2.2,MacIntel,59.99520038,,,,,,,,,,,,,,,,,,masks/mask_002.jpg,,,,,,,,,,,,,,,,,,,,,,,,,,,,,,,,,,,,,,,,,,,,,,,,0,2,2,1,1,,,,,,,,,,,,,,,,,,,,,,,,,,,,,,,,,,,,,,,,,
905148,001,2022-11-14_24h27.42.366,Info_measure_main_exp,2022.2.2,MacIntel,59.99520038,,,,,,,,,,,,,,,,,,masks/mask_003.jpg,,,,,,,,,,,,,,,,,,,,,,,,,,,,,,,,,,,,,,,,,,,,,,,,0,3,3,2,1,,,,,,,,,,,,,,,,,,,,,,,,,,,,,,,,,,,,,,,,,
905148,001,2022-11-14_24h27.42.366,Info_measure_main_exp,2022.2.2,MacIntel,59.99520038,,,,,,,,,,,,,,,,,,masks/mask_005.jpg,,,,,,,,,,,,,,,,,,,,,,,,,,,,,,,,,,,,,,,,,,,,,,,,0,4,4,4,1,,,,,,,,,,,,,,,,,,,,,,,,,,,,,,,,,,,,,,,,,
905148,001,2022-11-14_24h27.42.366,Info_measure_main_exp,2022.2.2,MacIntel,59.99520038,,,,,,,,,,,,,,,,,,,,,,,,,,,,,,1,0.5333,1,,,,,,,,,,,,0,131,5,5,2154,2154,absent_patch/patch0002154.jpg,absent_patch/patch0002154.jpg,,,,,,,,,,,,,,,,,,,,-0.28342275,0.099164926,1,0,0,response7disk,32,-0.008791937,0.025351231,1,0,0,center_square,0,31,31,89,1,,,,,,,,,,,,,,,,,,,,,,,
905148,001,2022-11-14_24h27.42.366,Info_measure_main_exp,2022.2.2,MacIntel,59.99520038,,,,,,,,,,,,,,,,,,masks/mask_005.jpg,,,,,,,,,,,,,,,,,,,,,,,,,,,,,,,,,,,,,,,,,,,0,0,0,4,1,,,,,,,,,,,,,,,,,,,,,,,,,,,,,,,,,,,,,,,,,,,,,,
905148,001,2022-11-14_24h27.42.366,Info_measure_main_exp,2022.2.2,MacIntel,59.99520038,,,,,,,,,,,,,,,,,,masks/mask_001.jpg,,,,,,,,,,,,,,,,,,,,,,,,,,,,,,,,,,,,,,,,,,,0,1,1,0,1,,,,,,,,,,,,,,,,,,,,,,,,,,,,,,,,,,,,,,,,,,,,,,
905148,001,2022-11-14_24h27.42.366,Info_measure_main_exp,2022.2.2,MacIntel,59.99520038,,,,,,,,,,,,,,,,,,masks/mask_003.jpg,,,,,,,,,,,,,,,,,,,,,,,,,,,,,,,,,,,,,,,,,,,0,2,2,2,1,,,,,,,,,,,,,,,,,,,,,,,,,,,,,,,,,,,,,,,,,,,,,,
905148,001,2022-11-14_24h27.42.366,Info_measure_main_exp,2022.2.2,MacIntel,59.99520038,,,,,,,,,,,,,,,,,,masks/mask_004.jpg,,,,,,,,,,,,,,,,,,,,,,,,,,,,,,,,,,,,,,,,,,,0,3,3,3,1,,,,,,,,,,,,,,,,,,,,,,,,,,,,,,,,,,,,,,,,,,,,,,
905148,001,2022-11-14_24h27.42.366,Info_measure_main_exp,2022.2.2,MacIntel,59.99520038,,,,,,,,,,,,,,,,,,masks/mask_002.jpg,,,,,,,,,,,,,,,,,,,,,,,,,,,,,,,,,,,,,,,,,,,0,4,4,1,1,,,,,,,,,,,,,,,,,,,,,,,,,,,,,,,,,,,,,,,,,,,,,,
905148,001,2022-11-14_24h27.42.366,Info_measure_main_exp,2022.2.2,MacIntel,59.99520038,,,,,,,,,,,,,,,,,,masks/mask_003.jpg,,,,,,,,,,,,,,,,,,,,,,,,,,,,,,,,,,,,,,,,,,,,,,,,0,0,0,2,1,,,,,,,,,,,,,,,,,,,,,,,,,,,,,,,,,,,,,,,,,
905148,001,2022-11-14_24h27.42.366,Info_measure_main_exp,2022.2.2,MacIntel,59.99520038,,,,,,,,,,,,,,,,,,masks/mask_005.jpg,,,,,,,,,,,,,,,,,,,,,,,,,,,,,,,,,,,,,,,,,,,,,,,,0,1,1,4,1,,,,,,,,,,,,,,,,,,,,,,,,,,,,,,,,,,,,,,,,,
905148,001,2022-11-14_24h27.42.366,Info_measure_main_exp,2022.2.2,MacIntel,59.99520038,,,,,,,,,,,,,,,,,,masks/mask_004.jpg,,,,,,,,,,,,,,,,,,,,,,,,,,,,,,,,,,,,,,,,,,,,,,,,0,2,2,3,1,,,,,,,,,,,,,,,,,,,,,,,,,,,,,,,,,,,,,,,,,
905148,001,2022-11-14_24h27.42.366,Info_measure_main_exp,2022.2.2,MacIntel,59.99520038,,,,,,,,,,,,,,,,,,masks/mask_002.jpg,,,,,,,,,,,,,,,,,,,,,,,,,,,,,,,,,,,,,,,,,,,,,,,,0,3,3,1,1,,,,,,,,,,,,,,,,,,,,,,,,,,,,,,,,,,,,,,,,,
905148,001,2022-11-14_24h27.42.366,Info_measure_main_exp,2022.2.2,MacIntel,59.99520038,,,,,,,,,,,,,,,,,,masks/mask_001.jpg,,,,,,,,,,,,,,,,,,,,,,,,,,,,,,,,,,,,,,,,,,,,,,,,0,4,4,0,1,,,,,,,,,,,,,,,,,,,,,,,,,,,,,,,,,,,,,,,,,
905148,001,2022-11-14_24h27.42.366,Info_measure_main_exp,2022.2.2,MacIntel,59.99520038,,,,,,,,,,,,,,,,,,,,,,,,,,,,,,5,0.617,1,,,,,,,,,,,,0,131,5,5,2178,2238,absent_patch/patch0002178.jpg,absent_patch/patch0002238.jpg,,,,,,,,,,,,,,,,,,,,0.141252259,-0.098560999,1,0,0,response3disk,33,-0.002042311,-0.022850354,1,0,0,center_square,0,32,32,57,1,,,,,,,,,,,,,,,,,,,,,,,
905148,001,2022-11-14_24h27.42.366,Info_measure_main_exp,2022.2.2,MacIntel,59.99520038,,,,,,,,,,,,,,,,,,masks/mask_001.jpg,,,,,,,,,,,,,,,,,,,,,,,,,,,,,,,,,,,,,,,,,,,0,0,0,0,1,,,,,,,,,,,,,,,,,,,,,,,,,,,,,,,,,,,,,,,,,,,,,,
905148,001,2022-11-14_24h27.42.366,Info_measure_main_exp,2022.2.2,MacIntel,59.99520038,,,,,,,,,,,,,,,,,,masks/mask_002.jpg,,,,,,,,,,,,,,,,,,,,,,,,,,,,,,,,,,,,,,,,,,,0,1,1,1,1,,,,,,,,,,,,,,,,,,,,,,,,,,,,,,,,,,,,,,,,,,,,,,
905148,001,2022-11-14_24h27.42.366,Info_measure_main_exp,2022.2.2,MacIntel,59.99520038,,,,,,,,,,,,,,,,,,masks/mask_005.jpg,,,,,,,,,,,,,,,,,,,,,,,,,,,,,,,,,,,,,,,,,,,0,2,2,4,1,,,,,,,,,,,,,,,,,,,,,,,,,,,,,,,,,,,,,,,,,,,,,,
905148,001,2022-11-14_24h27.42.366,Info_measure_main_exp,2022.2.2,MacIntel,59.99520038,,,,,,,,,,,,,,,,,,masks/mask_004.jpg,,,,,,,,,,,,,,,,,,,,,,,,,,,,,,,,,,,,,,,,,,,0,3,3,3,1,,,,,,,,,,,,,,,,,,,,,,,,,,,,,,,,,,,,,,,,,,,,,,
905148,001,2022-11-14_24h27.42.366,Info_measure_main_exp,2022.2.2,MacIntel,59.99520038,,,,,,,,,,,,,,,,,,masks/mask_003.jpg,,,,,,,,,,,,,,,,,,,,,,,,,,,,,,,,,,,,,,,,,,,0,4,4,2,1,,,,,,,,,,,,,,,,,,,,,,,,,,,,,,,,,,,,,,,,,,,,,,
905148,001,2022-11-14_24h27.42.366,Info_measure_main_exp,2022.2.2,MacIntel,59.99520038,,,,,,,,,,,,,,,,,,masks/mask_004.jpg,,,,,,,,,,,,,,,,,,,,,,,,,,,,,,,,,,,,,,,,,,,,,,,,0,0,0,3,1,,,,,,,,,,,,,,,,,,,,,,,,,,,,,,,,,,,,,,,,,
905148,001,2022-11-14_24h27.42.366,Info_measure_main_exp,2022.2.2,MacIntel,59.99520038,,,,,,,,,,,,,,,,,,masks/mask_005.jpg,,,,,,,,,,,,,,,,,,,,,,,,,,,,,,,,,,,,,,,,,,,,,,,,0,1,1,4,1,,,,,,,,,,,,,,,,,,,,,,,,,,,,,,,,,,,,,,,,,
905148,001,2022-11-14_24h27.42.366,Info_measure_main_exp,2022.2.2,MacIntel,59.99520038,,,,,,,,,,,,,,,,,,masks/mask_003.jpg,,,,,,,,,,,,,,,,,,,,,,,,,,,,,,,,,,,,,,,,,,,,,,,,0,2,2,2,1,,,,,,,,,,,,,,,,,,,,,,,,,,,,,,,,,,,,,,,,,
905148,001,2022-11-14_24h27.42.366,Info_measure_main_exp,2022.2.2,MacIntel,59.99520038,,,,,,,,,,,,,,,,,,masks/mask_002.jpg,,,,,,,,,,,,,,,,,,,,,,,,,,,,,,,,,,,,,,,,,,,,,,,,0,3,3,1,1,,,,,,,,,,,,,,,,,,,,,,,,,,,,,,,,,,,,,,,,,
905148,001,2022-11-14_24h27.42.366,Info_measure_main_exp,2022.2.2,MacIntel,59.99520038,,,,,,,,,,,,,,,,,,masks/mask_001.jpg,,,,,,,,,,,,,,,,,,,,,,,,,,,,,,,,,,,,,,,,,,,,,,,,0,4,4,0,1,,,,,,,,,,,,,,,,,,,,,,,,,,,,,,,,,,,,,,,,,
905148,001,2022-11-14_24h27.42.366,Info_measure_main_exp,2022.2.2,MacIntel,59.99520038,,,,,,,,,,,,,,,,,,,,,,,,,,,,,,5,1.2997,1,,,,,,,,,,,,0,131,5,5,2274,2250,absent_patch/patch0002274.jpg,absent_patch/patch0002250.jpg,,,,,,,,,,,,,,,,,,,,0.233621444,-0.052225467,1,0,0,response3disk,34,-0.01341404,-0.023692715,1,0,0,center_square,0,33,33,28,1,,,,,,,,,,,,,,,,,,,,,,,
905148,001,2022-11-14_24h27.42.366,Info_measure_main_exp,2022.2.2,MacIntel,59.99520038,,,,,,,,,,,,,,,,,,masks/mask_003.jpg,,,,,,,,,,,,,,,,,,,,,,,,,,,,,,,,,,,,,,,,,,,0,0,0,2,1,,,,,,,,,,,,,,,,,,,,,,,,,,,,,,,,,,,,,,,,,,,,,,
905148,001,2022-11-14_24h27.42.366,Info_measure_main_exp,2022.2.2,MacIntel,59.99520038,,,,,,,,,,,,,,,,,,masks/mask_005.jpg,,,,,,,,,,,,,,,,,,,,,,,,,,,,,,,,,,,,,,,,,,,0,1,1,4,1,,,,,,,,,,,,,,,,,,,,,,,,,,,,,,,,,,,,,,,,,,,,,,
905148,001,2022-11-14_24h27.42.366,Info_measure_main_exp,2022.2.2,MacIntel,59.99520038,,,,,,,,,,,,,,,,,,masks/mask_002.jpg,,,,,,,,,,,,,,,,,,,,,,,,,,,,,,,,,,,,,,,,,,,0,2,2,1,1,,,,,,,,,,,,,,,,,,,,,,,,,,,,,,,,,,,,,,,,,,,,,,
