participant,session,date,expName,psychopyVersion,OS,frameRate,space_press_continue.keys,space_press_continue.rt,space_press_continue_2.keys,space_press_continue_2.rt,space_press_continue_3.keys,space_press_continue_3.rt,space_press_continue_4.keys,space_press_continue_4.rt,space_press_continue_5.keys,space_press_continue_5.rt,space_press_continue_6.keys,space_press_continue_6.rt,prac_mask_loop_1.thisRepN,prac_mask_loop_1.thisTrialN,prac_mask_loop_1.thisN,prac_mask_loop_1.thisIndex,prac_mask_loop_1.ran,mask_name,prac_mask_loop_2.thisRepN,prac_mask_loop_2.thisTrialN,prac_mask_loop_2.thisN,prac_mask_loop_2.thisIndex,prac_mask_loop_2.ran,mouse_2.x,mouse_2.y,mouse_2.leftButton,mouse_2.midButton,mouse_2.rightButton,mouse_2.clicked_name,similarity,response_time,Pass,mouse_12.x,mouse_12.y,mouse_12.leftButton,mouse_12.midButton,mouse_12.rightButton,mouse_12.clicked_name,prac_loop.thisRepN,prac_loop.thisTrialN,prac_loop.thisN,prac_loop.thisIndex,prac_loop.ran,Pair_type,Image_num,Patch_1_loc,Patch_2_loc,Patch_1_info,Patch_2_info,Patch_1_name,Patch_2_name,mouse_1.x,mouse_1.y,mouse_1.leftButton,mouse_1.midButton,mouse_1.rightButton,mouse_1.time,mouse_1.clicked_name,space_press_continue_7.keys,space_press_continue_7.rt,mask_loop.thisRepN,mask_loop.thisTrialN,mask_loop.thisN,mask_loop.thisIndex,mask_loop.ran,mask_loop_2.thisRepN,mask_loop_2.thisTrialN,mask_loop_2.thisN,mask_loop_2.thisIndex,mask_loop_2.ran,mouse.x,mouse.y,mouse.leftButton,mouse.midButton,mouse.rightButton,mouse.clicked_name,trialNumber,mouse_11.x,mouse_11.y,mouse_11.leftButton,mouse_11.midButton,mouse_11.rightButton,mouse_11.clicked_name,first_pass_loop.thisRepN,first_pass_loop.thisTrialN,first_pass_loop.thisN,first_pass_loop.thisIndex,first_pass_loop.ran,mask_loop_3.thisRepN,mask_loop_3.thisTrialN,mask_loop_3.thisN,mask_loop_3.thisIndex,mask_loop_3.ran,mask_loop_4.thisRepN,mask_loop_4.thisTrialN,mask_loop_4.thisN,mask_loop_4.thisIndex,mask_loop_4.ran,mouse_3.x,mouse_3.y,mouse_3.leftButton,mouse_3.midButton,mouse_3.rightButton,mouse_3.clicked_name,double_pass_loop.thisRepN,double_pass_loop.thisTrialN,double_pass_loop.thisN,double_pass_loop.thisIndex,double_pass_loop.ran,space_exit.keys,space_exit.rt
907133,001,2022-11-21_01h54.56.089,Info_measure_main_exp,2022.2.2,Win32,60.27000964,,,,,,,,,,,,,,,,,,,,,,,,,,,,,,,,,,,,,,,,,,,,,,,,,,,,,,,,,,,,,,,,,,,,,,,,,,,,,,,,,,,,,,,,,,,,,,,,,,,,,,,,,,,,,,,
907133,001,2022-11-21_01h54.56.089,Info_measure_main_exp,2022.2.2,Win32,60.27000964,,,,,,,,,,,,,,,,,,,,,,,,,,,,,,,,,,,,,,,,,,,,,,,,,,,,,,,,,,,,,,,,,,,,,,,,,,,,,,,,,,,,,,,,,,,,,,,,,,,,,,,,,,,,,,,
907133,001,2022-11-21_01h54.56.089,Info_measure_main_exp,2022.2.2,Win32,60.27000964,space,5.1555,,,,,,,,,,,,,,,,,,,,,,,,,,,,,,,,,,,,,,,,,,,,,,,,,,,,,,,,,,,,,,,,,,,,,,,,,,,,,,,,,,,,,,,,,,,,,,,,,,,,,,,,,,,,,
907133,001,2022-11-21_01h54.56.089,Info_measure_main_exp,2022.2.2,Win32,60.27000964,,,space,10.8338,,,,,,,,,,,,,,,,,,,,,,,,,,,,,,,,,,,,,,,,,,,,,,,,,,,,,,,,,,,,,,,,,,,,,,,,,,,,,,,,,,,,,,,,,,,,,,,,,,,,,,,,,,,
907133,001,2022-11-21_01h54.56.089,Info_measure_main_exp,2022.2.2,Win32,60.27000964,,,,,space,4.5709,,,,,,,,,,,,,,,,,,,,,,,,,,,,,,,,,,,,,,,,,,,,,,,,,,,,,,,,,,,,,,,,,,,,,,,,,,,,,,,,,,,,,,,,,,,,,,,,,,,,,,,,,
907133,001,2022-11-21_01h54.56.089,Info_measure_main_exp,2022.2.2,Win32,60.27000964,,,,,,,space,12.8929,,,,,,,,,,,,,,,,,,,,,,,,,,,,,,,,,,,,,,,,,,,,,,,,,,,,,,,,,,,,,,,,,,,,,,,,,,,,,,,,,,,,,,,,,,,,,,,,,,,,,,,
907133,001,2022-11-21_01h54.56.089,Info_measure_main_exp,2022.2.2,Win32,60.27000964,,,,,,,,,space,8.8943,,,,,,,,,,,,,,,,,,,,,,,,,,,,,,,,,,,,,,,,,,,,,,,,,,,,,,,,,,,,,,,,,,,,,,,,,,,,,,,,,,,,,,,,,,,,,,,,,,,,,
907133,001,2022-11-21_01h54.56.089,Info_measure_main_exp,2022.2.2,Win32,60.27000964,,,,,,,,,,,space,5.1467,,,,,,,,,,,,,,,,,,,,,,,,,,,,,,,,,,,,,,,,,,,,,,,,,,,,,,,,,,,,,,,,,,,,,,,,,,,,,,,,,,,,,,,,,,,,,,,,,,,
907133,001,2022-11-21_01h54.56.089,Info_measure_main_exp,2022.2.2,Win32,60.27000964,,,,,,,,,,,,,0,0,0,1,1,masks/mask_002.jpg,,,,,,,,,,,,,,,,,,,,,,,,,,,,,,,,,,,,,,,,,,,,,,,,,,,,,,,,,,,,,,,,,,,,,,,,,,,,,,,,,,,,,,,,,,,,,
907133,001,2022-11-21_01h54.56.089,Info_measure_main_exp,2022.2.2,Win32,60.27000964,,,,,,,,,,,,,0,1,1,2,1,masks/mask_003.jpg,,,,,,,,,,,,,,,,,,,,,,,,,,,,,,,,,,,,,,,,,,,,,,,,,,,,,,,,,,,,,,,,,,,,,,,,,,,,,,,,,,,,,,,,,,,,,
907133,001,2022-11-21_01h54.56.089,Info_measure_main_exp,2022.2.2,Win32,60.27000964,,,,,,,,,,,,,0,2,2,0,1,masks/mask_001.jpg,,,,,,,,,,,,,,,,,,,,,,,,,,,,,,,,,,,,,,,,,,,,,,,,,,,,,,,,,,,,,,,,,,,,,,,,,,,,,,,,,,,,,,,,,,,,,
907133,001,2022-11-21_01h54.56.089,Info_measure_main_exp,2022.2.2,Win32,60.27000964,,,,,,,,,,,,,0,3,3,3,1,masks/mask_004.jpg,,,,,,,,,,,,,,,,,,,,,,,,,,,,,,,,,,,,,,,,,,,,,,,,,,,,,,,,,,,,,,,,,,,,,,,,,,,,,,,,,,,,,,,,,,,,,
907133,001,2022-11-21_01h54.56.089,Info_measure_main_exp,2022.2.2,Win32,60.27000964,,,,,,,,,,,,,0,4,4,4,1,masks/mask_005.jpg,,,,,,,,,,,,,,,,,,,,,,,,,,,,,,,,,,,,,,,,,,,,,,,,,,,,,,,,,,,,,,,,,,,,,,,,,,,,,,,,,,,,,,,,,,,,,
907133,001,2022-11-21_01h54.56.089,Info_measure_main_exp,2022.2.2,Win32,60.27000964,,,,,,,,,,,,,,,,,,masks/mask_004.jpg,0,0,0,3,1,,,,,,,,,,,,,,,,,,,,,,,,,,,,,,,,,,,,,,,,,,,,,,,,,,,,,,,,,,,,,,,,,,,,,,,,,,,,,,,,,,,,,,,,
907133,001,2022-11-21_01h54.56.089,Info_measure_main_exp,2022.2.2,Win32,60.27000964,,,,,,,,,,,,,,,,,,masks/mask_003.jpg,0,1,1,2,1,,,,,,,,,,,,,,,,,,,,,,,,,,,,,,,,,,,,,,,,,,,,,,,,,,,,,,,,,,,,,,,,,,,,,,,,,,,,,,,,,,,,,,,,
907133,001,2022-11-21_01h54.56.089,Info_measure_main_exp,2022.2.2,Win32,60.27000964,,,,,,,,,,,,,,,,,,masks/mask_001.jpg,0,2,2,0,1,,,,,,,,,,,,,,,,,,,,,,,,,,,,,,,,,,,,,,,,,,,,,,,,,,,,,,,,,,,,,,,,,,,,,,,,,,,,,,,,,,,,,,,,
907133,001,2022-11-21_01h54.56.089,Info_measure_main_exp,2022.2.2,Win32,60.27000964,,,,,,,,,,,,,,,,,,masks/mask_002.jpg,0,3,3,1,1,,,,,,,,,,,,,,,,,,,,,,,,,,,,,,,,,,,,,,,,,,,,,,,,,,,,,,,,,,,,,,,,,,,,,,,,,,,,,,,,,,,,,,,,
907133,001,2022-11-21_01h54.56.089,Info_measure_main_exp,2022.2.2,Win32,60.27000964,,,,,,,,,,,,,,,,,,masks/mask_005.jpg,0,4,4,4,1,,,,,,,,,,,,,,,,,,,,,,,,,,,,,,,,,,,,,,,,,,,,,,,,,,,,,,,,,,,,,,,,,,,,,,,,,,,,,,,,,,,,,,,,
907133,001,2022-11-21_01h54.56.089,Info_measure_main_exp,2022.2.2,Win32,60.27000964,,,,,,,,,,,,,,,,,,,,,,,,0.108072917,0.076822917,1,0,0,response1disk,6,52.9233,1,-0.009114583,0.009114583,1,0,0,center_square,0,0,0,0,1,0,131,5,5,2370,2406,prac_patch/patch0002370.jpg,prac_patch/patch0002406.jpg,,,,,,,,,,,,,,,,,,,,,,,,,,,,,,,,,,,,,,,,,,,,,,,,,,,,,,,,,,,,
907133,001,2022-11-21_01h54.56.089,Info_measure_main_exp,2022.2.2,Win32,60.27000964,,,,,,,,,,,,,0,0,0,0,1,masks/mask_001.jpg,,,,,,,,,,,,,,,,,,,,,,,,,,,,,,,,,,,,,,,,,,,,,,,,,,,,,,,,,,,,,,,,,,,,,,,,,,,,,,,,,,,,,,,,,,,,,
907133,001,2022-11-21_01h54.56.089,Info_measure_main_exp,2022.2.2,Win32,60.27000964,,,,,,,,,,,,,0,1,1,2,1,masks/mask_003.jpg,,,,,,,,,,,,,,,,,,,,,,,,,,,,,,,,,,,,,,,,,,,,,,,,,,,,,,,,,,,,,,,,,,,,,,,,,,,,,,,,,,,,,,,,,,,,,
907133,001,2022-11-21_01h54.56.089,Info_measure_main_exp,2022.2.2,Win32,60.27000964,,,,,,,,,,,,,0,2,2,4,1,masks/mask_005.jpg,,,,,,,,,,,,,,,,,,,,,,,,,,,,,,,,,,,,,,,,,,,,,,,,,,,,,,,,,,,,,,,,,,,,,,,,,,,,,,,,,,,,,,,,,,,,,
907133,001,2022-11-21_01h54.56.089,Info_measure_main_exp,2022.2.2,Win32,60.27000964,,,,,,,,,,,,,0,3,3,1,1,masks/mask_002.jpg,,,,,,,,,,,,,,,,,,,,,,,,,,,,,,,,,,,,,,,,,,,,,,,,,,,,,,,,,,,,,,,,,,,,,,,,,,,,,,,,,,,,,,,,,,,,,
907133,001,2022-11-21_01h54.56.089,Info_measure_main_exp,2022.2.2,Win32,60.27000964,,,,,,,,,,,,,0,4,4,3,1,masks/mask_004.jpg,,,,,,,,,,,,,,,,,,,,,,,,,,,,,,,,,,,,,,,,,,,,,,,,,,,,,,,,,,,,,,,,,,,,,,,,,,,,,,,,,,,,,,,,,,,,,
907133,001,2022-11-21_01h54.56.089,Info_measure_main_exp,2022.2.2,Win32,60.27000964,,,,,,,,,,,,,,,,,,masks/mask_001.jpg,0,0,0,0,1,,,,,,,,,,,,,,,,,,,,,,,,,,,,,,,,,,,,,,,,,,,,,,,,,,,,,,,,,,,,,,,,,,,,,,,,,,,,,,,,,,,,,,,,
907133,001,2022-11-21_01h54.56.089,Info_measure_main_exp,2022.2.2,Win32,60.27000964,,,,,,,,,,,,,,,,,,masks/mask_004.jpg,0,1,1,3,1,,,,,,,,,,,,,,,,,,,,,,,,,,,,,,,,,,,,,,,,,,,,,,,,,,,,,,,,,,,,,,,,,,,,,,,,,,,,,,,,,,,,,,,,
907133,001,2022-11-21_01h54.56.089,Info_measure_main_exp,2022.2.2,Win32,60.27000964,,,,,,,,,,,,,,,,,,masks/mask_003.jpg,0,2,2,2,1,,,,,,,,,,,,,,,,,,,,,,,,,,,,,,,,,,,,,,,,,,,,,,,,,,,,,,,,,,,,,,,,,,,,,,,,,,,,,,,,,,,,,,,,
907133,001,2022-11-21_01h54.56.089,Info_measure_main_exp,2022.2.2,Win32,60.27000964,,,,,,,,,,,,,,,,,,masks/mask_005.jpg,0,3,3,4,1,,,,,,,,,,,,,,,,,,,,,,,,,,,,,,,,,,,,,,,,,,,,,,,,,,,,,,,,,,,,,,,,,,,,,,,,,,,,,,,,,,,,,,,,
907133,001,2022-11-21_01h54.56.089,Info_measure_main_exp,2022.2.2,Win32,60.27000964,,,,,,,,,,,,,,,,,,masks/mask_002.jpg,0,4,4,1,1,,,,,,,,,,,,,,,,,,,,,,,,,,,,,,,,,,,,,,,,,,,,,,,,,,,,,,,,,,,,,,,,,,,,,,,,,,,,,,,,,,,,,,,,
907133,001,2022-11-21_01h54.56.089,Info_measure_main_exp,2022.2.2,Win32,60.27000964,,,,,,,,,,,,,,,,,,,,,,,,-0.02734375,0.110677083,1,0,0,response7disk,0,70.4012,1,0.006510417,0.009114583,1,0,0,center_square,0,1,1,2,1,0,131,5,5,2526,2526,prac_patch/patch0002526.jpg,prac_patch/patch0002526.jpg,,,,,,,,,,,,,,,,,,,,,,,,,,,,,,,,,,,,,,,,,,,,,,,,,,,,,,,,,,,,
907133,001,2022-11-21_01h54.56.089,Info_measure_main_exp,2022.2.2,Win32,60.27000964,,,,,,,,,,,,,0,0,0,1,1,masks/mask_002.jpg,,,,,,,,,,,,,,,,,,,,,,,,,,,,,,,,,,,,,,,,,,,,,,,,,,,,,,,,,,,,,,,,,,,,,,,,,,,,,,,,,,,,,,,,,,,,,
907133,001,2022-11-21_01h54.56.089,Info_measure_main_exp,2022.2.2,Win32,60.27000964,,,,,,,,,,,,,0,1,1,4,1,masks/mask_005.jpg,,,,,,,,,,,,,,,,,,,,,,,,,,,,,,,,,,,,,,,,,,,,,,,,,,,,,,,,,,,,,,,,,,,,,,,,,,,,,,,,,,,,,,,,,,,,,
907133,001,2022-11-21_01h54.56.089,Info_measure_main_exp,2022.2.2,Win32,60.27000964,,,,,,,,,,,,,0,2,2,0,1,masks/mask_001.jpg,,,,,,,,,,,,,,,,,,,,,,,,,,,,,,,,,,,,,,,,,,,,,,,,,,,,,,,,,,,,,,,,,,,,,,,,,,,,,,,,,,,,,,,,,,,,,
907133,001,2022-11-21_01h54.56.089,Info_measure_main_exp,2022.2.2,Win32,60.27000964,,,,,,,,,,,,,0,3,3,3,1,masks/mask_004.jpg,,,,,,,,,,,,,,,,,,,,,,,,,,,,,,,,,,,,,,,,,,,,,,,,,,,,,,,,,,,,,,,,,,,,,,,,,,,,,,,,,,,,,,,,,,,,,
907133,001,2022-11-21_01h54.56.089,Info_measure_main_exp,2022.2.2,Win32,60.27000964,,,,,,,,,,,,,0,4,4,2,1,masks/mask_003.jpg,,,,,,,,,,,,,,,,,,,,,,,,,,,,,,,,,,,,,,,,,,,,,,,,,,,,,,,,,,,,,,,,,,,,,,,,,,,,,,,,,,,,,,,,,,,,,
907133,001,2022-11-21_01h54.56.089,Info_measure_main_exp,2022.2.2,Win32,60.27000964,,,,,,,,,,,,,,,,,,masks/mask_005.jpg,0,0,0,4,1,,,,,,,,,,,,,,,,,,,,,,,,,,,,,,,,,,,,,,,,,,,,,,,,,,,,,,,,,,,,,,,,,,,,,,,,,,,,,,,,,,,,,,,,
907133,001,2022-11-21_01h54.56.089,Info_measure_main_exp,2022.2.2,Win32,60.27000964,,,,,,,,,,,,,,,,,,masks/mask_001.jpg,0,1,1,0,1,,,,,,,,,,,,,,,,,,,,,,,,,,,,,,,,,,,,,,,,,,,,,,,,,,,,,,,,,,,,,,,,,,,,,,,,,,,,,,,,,,,,,,,,
907133,001,2022-11-21_01h54.56.089,Info_measure_main_exp,2022.2.2,Win32,60.27000964,,,,,,,,,,,,,,,,,,masks/mask_004.jpg,0,2,2,3,1,,,,,,,,,,,,,,,,,,,,,,,,,,,,,,,,,,,,,,,,,,,,,,,,,,,,,,,,,,,,,,,,,,,,,,,,,,,,,,,,,,,,,,,,
907133,001,2022-11-21_01h54.56.089,Info_measure_main_exp,2022.2.2,Win32,60.27000964,,,,,,,,,,,,,,,,,,masks/mask_002.jpg,0,3,3,1,1,,,,,,,,,,,,,,,,,,,,,,,,,,,,,,,,,,,,,,,,,,,,,,,,,,,,,,,,,,,,,,,,,,,,,,,,,,,,,,,,,,,,,,,,
907133,001,2022-11-21_01h54.56.089,Info_measure_main_exp,2022.2.2,Win32,60.27000964,,,,,,,,,,,,,,,,,,masks/mask_003.jpg,0,4,4,2,1,,,,,,,,,,,,,,,,,,,,,,,,,,,,,,,,,,,,,,,,,,,,,,,,,,,,,,,,,,,,,,,,,,,,,,,,,,,,,,,,,,,,,,,,
907133,001,2022-11-21_01h54.56.089,Info_measure_main_exp,2022.2.2,Win32,60.27000964,,,,,,,,,,,,,,,,,,,,,,,,0.075520833,0.084635417,1,0,0,response1disk,7,84.7421,1,0.013020833,-0.001302083,1,0,0,center_square,0,2,2,1,1,0,131,5,5,2514,2490,prac_patch/patch0002514.jpg,prac_patch/patch0002490.jpg,,,,,,,,,,,,,,,,,,,,,,,,,,,,,,,,,,,,,,,,,,,,,,,,,,,,,,,,,,,,
907133,001,2022-11-21_01h54.56.089,Info_measure_main_exp,2022.2.2,Win32,60.27000964,,,,,,,,,,,,,,,,,,,,,,,,,,,,,,,,,,,,,,,,,,,,,,,,,,,,,,,,,,,space,2.1868,,,,,,,,,,,,,,,,,,,,,,,,,,,,,,,,,,,,,,,,,,,,,,,,,,,
907133,001,2022-11-21_01h54.56.089,Info_measure_main_exp,2022.2.2,Win32,60.27000964,,,,,,,,,,,,,,,,,,masks/mask_002.jpg,,,,,,,,,,,,,,,,,,,,,,,,,,,,,,,,,,,,,,,,,,,0,0,0,1,1,,,,,,,,,,,,,,,,,,,,,,,,,,,,,,,,,,,,,,,,,,,,,,
907133,001,2022-11-21_01h54.56.089,Info_measure_main_exp,2022.2.2,Win32,60.27000964,,,,,,,,,,,,,,,,,,masks/mask_004.jpg,,,,,,,,,,,,,,,,,,,,,,,,,,,,,,,,,,,,,,,,,,,0,1,1,3,1,,,,,,,,,,,,,,,,,,,,,,,,,,,,,,,,,,,,,,,,,,,,,,
907133,001,2022-11-21_01h54.56.089,Info_measure_main_exp,2022.2.2,Win32,60.27000964,,,,,,,,,,,,,,,,,,masks/mask_003.jpg,,,,,,,,,,,,,,,,,,,,,,,,,,,,,,,,,,,,,,,,,,,0,2,2,2,1,,,,,,,,,,,,,,,,,,,,,,,,,,,,,,,,,,,,,,,,,,,,,,
907133,001,2022-11-21_01h54.56.089,Info_measure_main_exp,2022.2.2,Win32,60.27000964,,,,,,,,,,,,,,,,,,masks/mask_005.jpg,,,,,,,,,,,,,,,,,,,,,,,,,,,,,,,,,,,,,,,,,,,0,3,3,4,1,,,,,,,,,,,,,,,,,,,,,,,,,,,,,,,,,,,,,,,,,,,,,,
907133,001,2022-11-21_01h54.56.089,Info_measure_main_exp,2022.2.2,Win32,60.27000964,,,,,,,,,,,,,,,,,,masks/mask_001.jpg,,,,,,,,,,,,,,,,,,,,,,,,,,,,,,,,,,,,,,,,,,,0,4,4,0,1,,,,,,,,,,,,,,,,,,,,,,,,,,,,,,,,,,,,,,,,,,,,,,
907133,001,2022-11-21_01h54.56.089,Info_measure_main_exp,2022.2.2,Win32,60.27000964,,,,,,,,,,,,,,,,,,masks/mask_001.jpg,,,,,,,,,,,,,,,,,,,,,,,,,,,,,,,,,,,,,,,,,,,,,,,,0,0,0,0,1,,,,,,,,,,,,,,,,,,,,,,,,,,,,,,,,,,,,,,,,,
907133,001,2022-11-21_01h54.56.089,Info_measure_main_exp,2022.2.2,Win32,60.27000964,,,,,,,,,,,,,,,,,,masks/mask_002.jpg,,,,,,,,,,,,,,,,,,,,,,,,,,,,,,,,,,,,,,,,,,,,,,,,0,1,1,1,1,,,,,,,,,,,,,,,,,,,,,,,,,,,,,,,,,,,,,,,,,
907133,001,2022-11-21_01h54.56.089,Info_measure_main_exp,2022.2.2,Win32,60.27000964,,,,,,,,,,,,,,,,,,masks/mask_005.jpg,,,,,,,,,,,,,,,,,,,,,,,,,,,,,,,,,,,,,,,,,,,,,,,,0,2,2,4,1,,,,,,,,,,,,,,,,,,,,,,,,,,,,,,,,,,,,,,,,,
907133,001,2022-11-21_01h54.56.089,Info_measure_main_exp,2022.2.2,Win32,60.27000964,,,,,,,,,,,,,,,,,,masks/mask_003.jpg,,,,,,,,,,,,,,,,,,,,,,,,,,,,,,,,,,,,,,,,,,,,,,,,0,3,3,2,1,,,,,,,,,,,,,,,,,,,,,,,,,,,,,,,,,,,,,,,,,
907133,001,2022-11-21_01h54.56.089,Info_measure_main_exp,2022.2.2,Win32,60.27000964,,,,,,,,,,,,,,,,,,masks/mask_004.jpg,,,,,,,,,,,,,,,,,,,,,,,,,,,,,,,,,,,,,,,,,,,,,,,,0,4,4,3,1,,,,,,,,,,,,,,,,,,,,,,,,,,,,,,,,,,,,,,,,,
907133,001,2022-11-21_01h54.56.089,Info_measure_main_exp,2022.2.2,Win32,60.27000964,,,,,,,,,,,,,,,,,,,,,,,,,,,,,,4,1.8337,1,,,,,,,,,,,,0,131,5,5,2214,2214,absent_patch/patch0002214.jpg,absent_patch/patch0002214.jpg,,,,,,,,,,,,,,,,,,,,0.033854167,-0.057291667,1,0,0,response3disk,1,0.005208333,0.014322917,1,0,0,center_square,0,0,0,115,1,,,,,,,,,,,,,,,,,,,,,,,
907133,001,2022-11-21_01h54.56.089,Info_measure_main_exp,2022.2.2,Win32,60.27000964,,,,,,,,,,,,,,,,,,masks/mask_002.jpg,,,,,,,,,,,,,,,,,,,,,,,,,,,,,,,,,,,,,,,,,,,0,0,0,1,1,,,,,,,,,,,,,,,,,,,,,,,,,,,,,,,,,,,,,,,,,,,,,,
907133,001,2022-11-21_01h54.56.089,Info_measure_main_exp,2022.2.2,Win32,60.27000964,,,,,,,,,,,,,,,,,,masks/mask_001.jpg,,,,,,,,,,,,,,,,,,,,,,,,,,,,,,,,,,,,,,,,,,,0,1,1,0,1,,,,,,,,,,,,,,,,,,,,,,,,,,,,,,,,,,,,,,,,,,,,,,
907133,001,2022-11-21_01h54.56.089,Info_measure_main_exp,2022.2.2,Win32,60.27000964,,,,,,,,,,,,,,,,,,masks/mask_003.jpg,,,,,,,,,,,,,,,,,,,,,,,,,,,,,,,,,,,,,,,,,,,0,2,2,2,1,,,,,,,,,,,,,,,,,,,,,,,,,,,,,,,,,,,,,,,,,,,,,,
907133,001,2022-11-21_01h54.56.089,Info_measure_main_exp,2022.2.2,Win32,60.27000964,,,,,,,,,,,,,,,,,,masks/mask_005.jpg,,,,,,,,,,,,,,,,,,,,,,,,,,,,,,,,,,,,,,,,,,,0,3,3,4,1,,,,,,,,,,,,,,,,,,,,,,,,,,,,,,,,,,,,,,,,,,,,,,
907133,001,2022-11-21_01h54.56.089,Info_measure_main_exp,2022.2.2,Win32,60.27000964,,,,,,,,,,,,,,,,,,masks/mask_004.jpg,,,,,,,,,,,,,,,,,,,,,,,,,,,,,,,,,,,,,,,,,,,0,4,4,3,1,,,,,,,,,,,,,,,,,,,,,,,,,,,,,,,,,,,,,,,,,,,,,,
907133,001,2022-11-21_01h54.56.089,Info_measure_main_exp,2022.2.2,Win32,60.27000964,,,,,,,,,,,,,,,,,,masks/mask_003.jpg,,,,,,,,,,,,,,,,,,,,,,,,,,,,,,,,,,,,,,,,,,,,,,,,0,0,0,2,1,,,,,,,,,,,,,,,,,,,,,,,,,,,,,,,,,,,,,,,,,
907133,001,2022-11-21_01h54.56.089,Info_measure_main_exp,2022.2.2,Win32,60.27000964,,,,,,,,,,,,,,,,,,masks/mask_005.jpg,,,,,,,,,,,,,,,,,,,,,,,,,,,,,,,,,,,,,,,,,,,,,,,,0,1,1,4,1,,,,,,,,,,,,,,,,,,,,,,,,,,,,,,,,,,,,,,,,,
907133,001,2022-11-21_01h54.56.089,Info_measure_main_exp,2022.2.2,Win32,60.27000964,,,,,,,,,,,,,,,,,,masks/mask_001.jpg,,,,,,,,,,,,,,,,,,,,,,,,,,,,,,,,,,,,,,,,,,,,,,,,0,2,2,0,1,,,,,,,,,,,,,,,,,,,,,,,,,,,,,,,,,,,,,,,,,
907133,001,2022-11-21_01h54.56.089,Info_measure_main_exp,2022.2.2,Win32,60.27000964,,,,,,,,,,,,,,,,,,masks/mask_002.jpg,,,,,,,,,,,,,,,,,,,,,,,,,,,,,,,,,,,,,,,,,,,,,,,,0,3,3,1,1,,,,,,,,,,,,,,,,,,,,,,,,,,,,,,,,,,,,,,,,,
907133,001,2022-11-21_01h54.56.089,Info_measure_main_exp,2022.2.2,Win32,60.27000964,,,,,,,,,,,,,,,,,,masks/mask_004.jpg,,,,,,,,,,,,,,,,,,,,,,,,,,,,,,,,,,,,,,,,,,,,,,,,0,4,4,3,1,,,,,,,,,,,,,,,,,,,,,,,,,,,,,,,,,,,,,,,,,
907133,001,2022-11-21_01h54.56.089,Info_measure_main_exp,2022.2.2,Win32,60.27000964,,,,,,,,,,,,,,,,,,,,,,,,,,,,,,3,33.7586,1,,,,,,,,,,,,0,131,5,5,2142,2166,absent_patch/patch0002142.jpg,absent_patch/patch0002166.jpg,,,,,,,,,,,,,,,,,,,,-0.049479167,-0.1015625,1,0,0,response5disk,2,0.002604167,0.001302083,1,0,0,center_square,0,1,1,66,1,,,,,,,,,,,,,,,,,,,,,,,
907133,001,2022-11-21_01h54.56.089,Info_measure_main_exp,2022.2.2,Win32,60.27000964,,,,,,,,,,,,,,,,,,masks/mask_002.jpg,,,,,,,,,,,,,,,,,,,,,,,,,,,,,,,,,,,,,,,,,,,0,0,0,1,1,,,,,,,,,,,,,,,,,,,,,,,,,,,,,,,,,,,,,,,,,,,,,,
907133,001,2022-11-21_01h54.56.089,Info_measure_main_exp,2022.2.2,Win32,60.27000964,,,,,,,,,,,,,,,,,,masks/mask_004.jpg,,,,,,,,,,,,,,,,,,,,,,,,,,,,,,,,,,,,,,,,,,,0,1,1,3,1,,,,,,,,,,,,,,,,,,,,,,,,,,,,,,,,,,,,,,,,,,,,,,
907133,001,2022-11-21_01h54.56.089,Info_measure_main_exp,2022.2.2,Win32,60.27000964,,,,,,,,,,,,,,,,,,masks/mask_005.jpg,,,,,,,,,,,,,,,,,,,,,,,,,,,,,,,,,,,,,,,,,,,0,2,2,4,1,,,,,,,,,,,,,,,,,,,,,,,,,,,,,,,,,,,,,,,,,,,,,,
907133,001,2022-11-21_01h54.56.089,Info_measure_main_exp,2022.2.2,Win32,60.27000964,,,,,,,,,,,,,,,,,,masks/mask_001.jpg,,,,,,,,,,,,,,,,,,,,,,,,,,,,,,,,,,,,,,,,,,,0,3,3,0,1,,,,,,,,,,,,,,,,,,,,,,,,,,,,,,,,,,,,,,,,,,,,,,
907133,001,2022-11-21_01h54.56.089,Info_measure_main_exp,2022.2.2,Win32,60.27000964,,,,,,,,,,,,,,,,,,masks/mask_003.jpg,,,,,,,,,,,,,,,,,,,,,,,,,,,,,,,,,,,,,,,,,,,0,4,4,2,1,,,,,,,,,,,,,,,,,,,,,,,,,,,,,,,,,,,,,,,,,,,,,,
907133,001,2022-11-21_01h54.56.089,Info_measure_main_exp,2022.2.2,Win32,60.27000964,,,,,,,,,,,,,,,,,,masks/mask_004.jpg,,,,,,,,,,,,,,,,,,,,,,,,,,,,,,,,,,,,,,,,,,,,,,,,0,0,0,3,1,,,,,,,,,,,,,,,,,,,,,,,,,,,,,,,,,,,,,,,,,
907133,001,2022-11-21_01h54.56.089,Info_measure_main_exp,2022.2.2,Win32,60.27000964,,,,,,,,,,,,,,,,,,masks/mask_003.jpg,,,,,,,,,,,,,,,,,,,,,,,,,,,,,,,,,,,,,,,,,,,,,,,,0,1,1,2,1,,,,,,,,,,,,,,,,,,,,,,,,,,,,,,,,,,,,,,,,,
907133,001,2022-11-21_01h54.56.089,Info_measure_main_exp,2022.2.2,Win32,60.27000964,,,,,,,,,,,,,,,,,,masks/mask_001.jpg,,,,,,,,,,,,,,,,,,,,,,,,,,,,,,,,,,,,,,,,,,,,,,,,0,2,2,0,1,,,,,,,,,,,,,,,,,,,,,,,,,,,,,,,,,,,,,,,,,
907133,001,2022-11-21_01h54.56.089,Info_measure_main_exp,2022.2.2,Win32,60.27000964,,,,,,,,,,,,,,,,,,masks/mask_002.jpg,,,,,,,,,,,,,,,,,,,,,,,,,,,,,,,,,,,,,,,,,,,,,,,,0,3,3,1,1,,,,,,,,,,,,,,,,,,,,,,,,,,,,,,,,,,,,,,,,,
907133,001,2022-11-21_01h54.56.089,Info_measure_main_exp,2022.2.2,Win32,60.27000964,,,,,,,,,,,,,,,,,,masks/mask_005.jpg,,,,,,,,,,,,,,,,,,,,,,,,,,,,,,,,,,,,,,,,,,,,,,,,0,4,4,4,1,,,,,,,,,,,,,,,,,,,,,,,,,,,,,,,,,,,,,,,,,
907133,001,2022-11-21_01h54.56.089,Info_measure_main_exp,2022.2.2,Win32,60.27000964,,,,,,,,,,,,,,,,,,,,,,,,,,,,,,7,1.2367,1,,,,,,,,,,,,0,131,5,5,2274,2190,absent_patch/patch0002274.jpg,absent_patch/patch0002190.jpg,,,,,,,,,,,,,,,,,,,,0.02734375,0.076822917,1,0,0,response1disk,3,0.0078125,0.009114583,1,0,0,center_square,0,2,2,116,1,,,,,,,,,,,,,,,,,,,,,,,
907133,001,2022-11-21_01h54.56.089,Info_measure_main_exp,2022.2.2,Win32,60.27000964,,,,,,,,,,,,,,,,,,masks/mask_002.jpg,,,,,,,,,,,,,,,,,,,,,,,,,,,,,,,,,,,,,,,,,,,0,0,0,1,1,,,,,,,,,,,,,,,,,,,,,,,,,,,,,,,,,,,,,,,,,,,,,,
907133,001,2022-11-21_01h54.56.089,Info_measure_main_exp,2022.2.2,Win32,60.27000964,,,,,,,,,,,,,,,,,,masks/mask_003.jpg,,,,,,,,,,,,,,,,,,,,,,,,,,,,,,,,,,,,,,,,,,,0,1,1,2,1,,,,,,,,,,,,,,,,,,,,,,,,,,,,,,,,,,,,,,,,,,,,,,
907133,001,2022-11-21_01h54.56.089,Info_measure_main_exp,2022.2.2,Win32,60.27000964,,,,,,,,,,,,,,,,,,masks/mask_004.jpg,,,,,,,,,,,,,,,,,,,,,,,,,,,,,,,,,,,,,,,,,,,0,2,2,3,1,,,,,,,,,,,,,,,,,,,,,,,,,,,,,,,,,,,,,,,,,,,,,,
907133,001,2022-11-21_01h54.56.089,Info_measure_main_exp,2022.2.2,Win32,60.27000964,,,,,,,,,,,,,,,,,,masks/mask_005.jpg,,,,,,,,,,,,,,,,,,,,,,,,,,,,,,,,,,,,,,,,,,,0,3,3,4,1,,,,,,,,,,,,,,,,,,,,,,,,,,,,,,,,,,,,,,,,,,,,,,
907133,001,2022-11-21_01h54.56.089,Info_measure_main_exp,2022.2.2,Win32,60.27000964,,,,,,,,,,,,,,,,,,masks/mask_001.jpg,,,,,,,,,,,,,,,,,,,,,,,,,,,,,,,,,,,,,,,,,,,0,4,4,0,1,,,,,,,,,,,,,,,,,,,,,,,,,,,,,,,,,,,,,,,,,,,,,,
907133,001,2022-11-21_01h54.56.089,Info_measure_main_exp,2022.2.2,Win32,60.27000964,,,,,,,,,,,,,,,,,,masks/mask_002.jpg,,,,,,,,,,,,,,,,,,,,,,,,,,,,,,,,,,,,,,,,,,,,,,,,0,0,0,1,1,,,,,,,,,,,,,,,,,,,,,,,,,,,,,,,,,,,,,,,,,
907133,001,2022-11-21_01h54.56.089,Info_measure_main_exp,2022.2.2,Win32,60.27000964,,,,,,,,,,,,,,,,,,masks/mask_004.jpg,,,,,,,,,,,,,,,,,,,,,,,,,,,,,,,,,,,,,,,,,,,,,,,,0,1,1,3,1,,,,,,,,,,,,,,,,,,,,,,,,,,,,,,,,,,,,,,,,,
907133,001,2022-11-21_01h54.56.089,Info_measure_main_exp,2022.2.2,Win32,60.27000964,,,,,,,,,,,,,,,,,,masks/mask_005.jpg,,,,,,,,,,,,,,,,,,,,,,,,,,,,,,,,,,,,,,,,,,,,,,,,0,2,2,4,1,,,,,,,,,,,,,,,,,,,,,,,,,,,,,,,,,,,,,,,,,
907133,001,2022-11-21_01h54.56.089,Info_measure_main_exp,2022.2.2,Win32,60.27000964,,,,,,,,,,,,,,,,,,masks/mask_001.jpg,,,,,,,,,,,,,,,,,,,,,,,,,,,,,,,,,,,,,,,,,,,,,,,,0,3,3,0,1,,,,,,,,,,,,,,,,,,,,,,,,,,,,,,,,,,,,,,,,,
907133,001,2022-11-21_01h54.56.089,Info_measure_main_exp,2022.2.2,Win32,60.27000964,,,,,,,,,,,,,,,,,,masks/mask_003.jpg,,,,,,,,,,,,,,,,,,,,,,,,,,,,,,,,,,,,,,,,,,,,,,,,0,4,4,2,1,,,,,,,,,,,,,,,,,,,,,,,,,,,,,,,,,,,,,,,,,
907133,001,2022-11-21_01h54.56.089,Info_measure_main_exp,2022.2.2,Win32,60.27000964,,,,,,,,,,,,,,,,,,,,,,,,,,,,,,5,11.0032,1,,,,,,,,,,,,1,131,5,5,2298,1,absent_patch/patch0002298.jpg,present_patch/cong_131_5_a.jpg,,,,,,,,,,,,,,,,,,,,0.072916667,-0.037760417,1,0,0,response3disk,4,-0.009114583,0.010416667,1,0,0,center_square,0,3,3,45,1,,,,,,,,,,,,,,,,,,,,,,,
907133,001,2022-11-21_01h54.56.089,Info_measure_main_exp,2022.2.2,Win32,60.27000964,,,,,,,,,,,,,,,,,,masks/mask_005.jpg,,,,,,,,,,,,,,,,,,,,,,,,,,,,,,,,,,,,,,,,,,,0,0,0,4,1,,,,,,,,,,,,,,,,,,,,,,,,,,,,,,,,,,,,,,,,,,,,,,
907133,001,2022-11-21_01h54.56.089,Info_measure_main_exp,2022.2.2,Win32,60.27000964,,,,,,,,,,,,,,,,,,masks/mask_004.jpg,,,,,,,,,,,,,,,,,,,,,,,,,,,,,,,,,,,,,,,,,,,0,1,1,3,1,,,,,,,,,,,,,,,,,,,,,,,,,,,,,,,,,,,,,,,,,,,,,,
907133,001,2022-11-21_01h54.56.089,Info_measure_main_exp,2022.2.2,Win32,60.27000964,,,,,,,,,,,,,,,,,,masks/mask_003.jpg,,,,,,,,,,,,,,,,,,,,,,,,,,,,,,,,,,,,,,,,,,,0,2,2,2,1,,,,,,,,,,,,,,,,,,,,,,,,,,,,,,,,,,,,,,,,,,,,,,
907133,001,2022-11-21_01h54.56.089,Info_measure_main_exp,2022.2.2,Win32,60.27000964,,,,,,,,,,,,,,,,,,masks/mask_001.jpg,,,,,,,,,,,,,,,,,,,,,,,,,,,,,,,,,,,,,,,,,,,0,3,3,0,1,,,,,,,,,,,,,,,,,,,,,,,,,,,,,,,,,,,,,,,,,,,,,,
907133,001,2022-11-21_01h54.56.089,Info_measure_main_exp,2022.2.2,Win32,60.27000964,,,,,,,,,,,,,,,,,,masks/mask_002.jpg,,,,,,,,,,,,,,,,,,,,,,,,,,,,,,,,,,,,,,,,,,,0,4,4,1,1,,,,,,,,,,,,,,,,,,,,,,,,,,,,,,,,,,,,,,,,,,,,,,
907133,001,2022-11-21_01h54.56.089,Info_measure_main_exp,2022.2.2,Win32,60.27000964,,,,,,,,,,,,,,,,,,masks/mask_003.jpg,,,,,,,,,,,,,,,,,,,,,,,,,,,,,,,,,,,,,,,,,,,,,,,,0,0,0,2,1,,,,,,,,,,,,,,,,,,,,,,,,,,,,,,,,,,,,,,,,,
907133,001,2022-11-21_01h54.56.089,Info_measure_main_exp,2022.2.2,Win32,60.27000964,,,,,,,,,,,,,,,,,,masks/mask_002.jpg,,,,,,,,,,,,,,,,,,,,,,,,,,,,,,,,,,,,,,,,,,,,,,,,0,1,1,1,1,,,,,,,,,,,,,,,,,,,,,,,,,,,,,,,,,,,,,,,,,
907133,001,2022-11-21_01h54.56.089,Info_measure_main_exp,2022.2.2,Win32,60.27000964,,,,,,,,,,,,,,,,,,masks/mask_004.jpg,,,,,,,,,,,,,,,,,,,,,,,,,,,,,,,,,,,,,,,,,,,,,,,,0,2,2,3,1,,,,,,,,,,,,,,,,,,,,,,,,,,,,,,,,,,,,,,,,,
907133,001,2022-11-21_01h54.56.089,Info_measure_main_exp,2022.2.2,Win32,60.27000964,,,,,,,,,,,,,,,,,,masks/mask_001.jpg,,,,,,,,,,,,,,,,,,,,,,,,,,,,,,,,,,,,,,,,,,,,,,,,0,3,3,0,1,,,,,,,,,,,,,,,,,,,,,,,,,,,,,,,,,,,,,,,,,
907133,001,2022-11-21_01h54.56.089,Info_measure_main_exp,2022.2.2,Win32,60.27000964,,,,,,,,,,,,,,,,,,masks/mask_005.jpg,,,,,,,,,,,,,,,,,,,,,,,,,,,,,,,,,,,,,,,,,,,,,,,,0,4,4,4,1,,,,,,,,,,,,,,,,,,,,,,,,,,,,,,,,,,,,,,,,,
907133,001,2022-11-21_01h54.56.089,Info_measure_main_exp,2022.2.2,Win32,60.27000964,,,,,,,,,,,,,,,,,,,,,,,,,,,,,,7,1.9506,1,,,,,,,,,,,,0,131,5,5,2298,2142,absent_patch/patch0002298.jpg,absent_patch/patch0002142.jpg,,,,,,,,,,,,,,,,,,,,0.016927083,0.135416667,1,0,0,response1disk,5,-0.00390625,0.0078125,1,0,0,center_square,0,4,4,49,1,,,,,,,,,,,,,,,,,,,,,,,
907133,001,2022-11-21_01h54.56.089,Info_measure_main_exp,2022.2.2,Win32,60.27000964,,,,,,,,,,,,,,,,,,masks/mask_005.jpg,,,,,,,,,,,,,,,,,,,,,,,,,,,,,,,,,,,,,,,,,,,0,0,0,4,1,,,,,,,,,,,,,,,,,,,,,,,,,,,,,,,,,,,,,,,,,,,,,,
907133,001,2022-11-21_01h54.56.089,Info_measure_main_exp,2022.2.2,Win32,60.27000964,,,,,,,,,,,,,,,,,,masks/mask_001.jpg,,,,,,,,,,,,,,,,,,,,,,,,,,,,,,,,,,,,,,,,,,,0,1,1,0,1,,,,,,,,,,,,,,,,,,,,,,,,,,,,,,,,,,,,,,,,,,,,,,
907133,001,2022-11-21_01h54.56.089,Info_measure_main_exp,2022.2.2,Win32,60.27000964,,,,,,,,,,,,,,,,,,masks/mask_002.jpg,,,,,,,,,,,,,,,,,,,,,,,,,,,,,,,,,,,,,,,,,,,0,2,2,1,1,,,,,,,,,,,,,,,,,,,,,,,,,,,,,,,,,,,,,,,,,,,,,,
907133,001,2022-11-21_01h54.56.089,Info_measure_main_exp,2022.2.2,Win32,60.27000964,,,,,,,,,,,,,,,,,,masks/mask_004.jpg,,,,,,,,,,,,,,,,,,,,,,,,,,,,,,,,,,,,,,,,,,,0,3,3,3,1,,,,,,,,,,,,,,,,,,,,,,,,,,,,,,,,,,,,,,,,,,,,,,
907133,001,2022-11-21_01h54.56.089,Info_measure_main_exp,2022.2.2,Win32,60.27000964,,,,,,,,,,,,,,,,,,masks/mask_003.jpg,,,,,,,,,,,,,,,,,,,,,,,,,,,,,,,,,,,,,,,,,,,0,4,4,2,1,,,,,,,,,,,,,,,,,,,,,,,,,,,,,,,,,,,,,,,,,,,,,,
907133,001,2022-11-21_01h54.56.089,Info_measure_main_exp,2022.2.2,Win32,60.27000964,,,,,,,,,,,,,,,,,,masks/mask_005.jpg,,,,,,,,,,,,,,,,,,,,,,,,,,,,,,,,,,,,,,,,,,,,,,,,0,0,0,4,1,,,,,,,,,,,,,,,,,,,,,,,,,,,,,,,,,,,,,,,,,
907133,001,2022-11-21_01h54.56.089,Info_measure_main_exp,2022.2.2,Win32,60.27000964,,,,,,,,,,,,,,,,,,masks/mask_002.jpg,,,,,,,,,,,,,,,,,,,,,,,,,,,,,,,,,,,,,,,,,,,,,,,,0,1,1,1,1,,,,,,,,,,,,,,,,,,,,,,,,,,,,,,,,,,,,,,,,,
907133,001,2022-11-21_01h54.56.089,Info_measure_main_exp,2022.2.2,Win32,60.27000964,,,,,,,,,,,,,,,,,,masks/mask_001.jpg,,,,,,,,,,,,,,,,,,,,,,,,,,,,,,,,,,,,,,,,,,,,,,,,0,2,2,0,1,,,,,,,,,,,,,,,,,,,,,,,,,,,,,,,,,,,,,,,,,
907133,001,2022-11-21_01h54.56.089,Info_measure_main_exp,2022.2.2,Win32,60.27000964,,,,,,,,,,,,,,,,,,masks/mask_004.jpg,,,,,,,,,,,,,,,,,,,,,,,,,,,,,,,,,,,,,,,,,,,,,,,,0,3,3,3,1,,,,,,,,,,,,,,,,,,,,,,,,,,,,,,,,,,,,,,,,,
907133,001,2022-11-21_01h54.56.089,Info_measure_main_exp,2022.2.2,Win32,60.27000964,,,,,,,,,,,,,,,,,,masks/mask_003.jpg,,,,,,,,,,,,,,,,,,,,,,,,,,,,,,,,,,,,,,,,,,,,,,,,0,4,4,2,1,,,,,,,,,,,,,,,,,,,,,,,,,,,,,,,,,,,,,,,,,
907133,001,2022-11-21_01h54.56.089,Info_measure_main_exp,2022.2.2,Win32,60.27000964,,,,,,,,,,,,,,,,,,,,,,,,,,,,,,7,1.3342,1,,,,,,,,,,,,0,131,5,5,2154,2250,absent_patch/patch0002154.jpg,absent_patch/patch0002250.jpg,,,,,,,,,,,,,,,,,,,,0.063802083,0.111979167,1,0,0,response1disk,6,0.006510417,-0.002604167,1,0,0,center_square,0,5,5,108,1,,,,,,,,,,,,,,,,,,,,,,,
907133,001,2022-11-21_01h54.56.089,Info_measure_main_exp,2022.2.2,Win32,60.27000964,,,,,,,,,,,,,,,,,,masks/mask_002.jpg,,,,,,,,,,,,,,,,,,,,,,,,,,,,,,,,,,,,,,,,,,,0,0,0,1,1,,,,,,,,,,,,,,,,,,,,,,,,,,,,,,,,,,,,,,,,,,,,,,
907133,001,2022-11-21_01h54.56.089,Info_measure_main_exp,2022.2.2,Win32,60.27000964,,,,,,,,,,,,,,,,,,masks/mask_003.jpg,,,,,,,,,,,,,,,,,,,,,,,,,,,,,,,,,,,,,,,,,,,0,1,1,2,1,,,,,,,,,,,,,,,,,,,,,,,,,,,,,,,,,,,,,,,,,,,,,,
907133,001,2022-11-21_01h54.56.089,Info_measure_main_exp,2022.2.2,Win32,60.27000964,,,,,,,,,,,,,,,,,,masks/mask_005.jpg,,,,,,,,,,,,,,,,,,,,,,,,,,,,,,,,,,,,,,,,,,,0,2,2,4,1,,,,,,,,,,,,,,,,,,,,,,,,,,,,,,,,,,,,,,,,,,,,,,
907133,001,2022-11-21_01h54.56.089,Info_measure_main_exp,2022.2.2,Win32,60.27000964,,,,,,,,,,,,,,,,,,masks/mask_004.jpg,,,,,,,,,,,,,,,,,,,,,,,,,,,,,,,,,,,,,,,,,,,0,3,3,3,1,,,,,,,,,,,,,,,,,,,,,,,,,,,,,,,,,,,,,,,,,,,,,,
907133,001,2022-11-21_01h54.56.089,Info_measure_main_exp,2022.2.2,Win32,60.27000964,,,,,,,,,,,,,,,,,,masks/mask_001.jpg,,,,,,,,,,,,,,,,,,,,,,,,,,,,,,,,,,,,,,,,,,,0,4,4,0,1,,,,,,,,,,,,,,,,,,,,,,,,,,,,,,,,,,,,,,,,,,,,,,
907133,001,2022-11-21_01h54.56.089,Info_measure_main_exp,2022.2.2,Win32,60.27000964,,,,,,,,,,,,,,,,,,masks/mask_005.jpg,,,,,,,,,,,,,,,,,,,,,,,,,,,,,,,,,,,,,,,,,,,,,,,,0,0,0,4,1,,,,,,,,,,,,,,,,,,,,,,,,,,,,,,,,,,,,,,,,,
907133,001,2022-11-21_01h54.56.089,Info_measure_main_exp,2022.2.2,Win32,60.27000964,,,,,,,,,,,,,,,,,,masks/mask_004.jpg,,,,,,,,,,,,,,,,,,,,,,,,,,,,,,,,,,,,,,,,,,,,,,,,0,1,1,3,1,,,,,,,,,,,,,,,,,,,,,,,,,,,,,,,,,,,,,,,,,
907133,001,2022-11-21_01h54.56.089,Info_measure_main_exp,2022.2.2,Win32,60.27000964,,,,,,,,,,,,,,,,,,masks/mask_003.jpg,,,,,,,,,,,,,,,,,,,,,,,,,,,,,,,,,,,,,,,,,,,,,,,,0,2,2,2,1,,,,,,,,,,,,,,,,,,,,,,,,,,,,,,,,,,,,,,,,,
907133,001,2022-11-21_01h54.56.089,Info_measure_main_exp,2022.2.2,Win32,60.27000964,,,,,,,,,,,,,,,,,,masks/mask_002.jpg,,,,,,,,,,,,,,,,,,,,,,,,,,,,,,,,,,,,,,,,,,,,,,,,0,3,3,1,1,,,,,,,,,,,,,,,,,,,,,,,,,,,,,,,,,,,,,,,,,
907133,001,2022-11-21_01h54.56.089,Info_measure_main_exp,2022.2.2,Win32,60.27000964,,,,,,,,,,,,,,,,,,masks/mask_001.jpg,,,,,,,,,,,,,,,,,,,,,,,,,,,,,,,,,,,,,,,,,,,,,,,,0,4,4,0,1,,,,,,,,,,,,,,,,,,,,,,,,,,,,,,,,,,,,,,,,,
907133,001,2022-11-21_01h54.56.089,Info_measure_main_exp,2022.2.2,Win32,60.27000964,,,,,,,,,,,,,,,,,,,,,,,,,,,,,,5,1.7505,1,,,,,,,,,,,,0,131,5,5,2190,2190,absent_patch/patch0002190.jpg,absent_patch/patch0002190.jpg,,,,,,,,,,,,,,,,,,,,0.088541667,-0.028645833,1,0,0,response3disk,7,0.002604167,-0.005208333,1,0,0,center_square,0,6,6,86,1,,,,,,,,,,,,,,,,,,,,,,,
907133,001,2022-11-21_01h54.56.089,Info_measure_main_exp,2022.2.2,Win32,60.27000964,,,,,,,,,,,,,,,,,,masks/mask_001.jpg,,,,,,,,,,,,,,,,,,,,,,,,,,,,,,,,,,,,,,,,,,,0,0,0,0,1,,,,,,,,,,,,,,,,,,,,,,,,,,,,,,,,,,,,,,,,,,,,,,
907133,001,2022-11-21_01h54.56.089,Info_measure_main_exp,2022.2.2,Win32,60.27000964,,,,,,,,,,,,,,,,,,masks/mask_005.jpg,,,,,,,,,,,,,,,,,,,,,,,,,,,,,,,,,,,,,,,,,,,0,1,1,4,1,,,,,,,,,,,,,,,,,,,,,,,,,,,,,,,,,,,,,,,,,,,,,,
907133,001,2022-11-21_01h54.56.089,Info_measure_main_exp,2022.2.2,Win32,60.27000964,,,,,,,,,,,,,,,,,,masks/mask_002.jpg,,,,,,,,,,,,,,,,,,,,,,,,,,,,,,,,,,,,,,,,,,,0,2,2,1,1,,,,,,,,,,,,,,,,,,,,,,,,,,,,,,,,,,,,,,,,,,,,,,
907133,001,2022-11-21_01h54.56.089,Info_measure_main_exp,2022.2.2,Win32,60.27000964,,,,,,,,,,,,,,,,,,masks/mask_003.jpg,,,,,,,,,,,,,,,,,,,,,,,,,,,,,,,,,,,,,,,,,,,0,3,3,2,1,,,,,,,,,,,,,,,,,,,,,,,,,,,,,,,,,,,,,,,,,,,,,,
907133,001,2022-11-21_01h54.56.089,Info_measure_main_exp,2022.2.2,Win32,60.27000964,,,,,,,,,,,,,,,,,,masks/mask_004.jpg,,,,,,,,,,,,,,,,,,,,,,,,,,,,,,,,,,,,,,,,,,,0,4,4,3,1,,,,,,,,,,,,,,,,,,,,,,,,,,,,,,,,,,,,,,,,,,,,,,
907133,001,2022-11-21_01h54.56.089,Info_measure_main_exp,2022.2.2,Win32,60.27000964,,,,,,,,,,,,,,,,,,masks/mask_005.jpg,,,,,,,,,,,,,,,,,,,,,,,,,,,,,,,,,,,,,,,,,,,,,,,,0,0,0,4,1,,,,,,,,,,,,,,,,,,,,,,,,,,,,,,,,,,,,,,,,,
907133,001,2022-11-21_01h54.56.089,Info_measure_main_exp,2022.2.2,Win32,60.27000964,,,,,,,,,,,,,,,,,,masks/mask_004.jpg,,,,,,,,,,,,,,,,,,,,,,,,,,,,,,,,,,,,,,,,,,,,,,,,0,1,1,3,1,,,,,,,,,,,,,,,,,,,,,,,,,,,,,,,,,,,,,,,,,
907133,001,2022-11-21_01h54.56.089,Info_measure_main_exp,2022.2.2,Win32,60.27000964,,,,,,,,,,,,,,,,,,masks/mask_001.jpg,,,,,,,,,,,,,,,,,,,,,,,,,,,,,,,,,,,,,,,,,,,,,,,,0,2,2,0,1,,,,,,,,,,,,,,,,,,,,,,,,,,,,,,,,,,,,,,,,,
907133,001,2022-11-21_01h54.56.089,Info_measure_main_exp,2022.2.2,Win32,60.27000964,,,,,,,,,,,,,,,,,,masks/mask_003.jpg,,,,,,,,,,,,,,,,,,,,,,,,,,,,,,,,,,,,,,,,,,,,,,,,0,3,3,2,1,,,,,,,,,,,,,,,,,,,,,,,,,,,,,,,,,,,,,,,,,
907133,001,2022-11-21_01h54.56.089,Info_measure_main_exp,2022.2.2,Win32,60.27000964,,,,,,,,,,,,,,,,,,masks/mask_002.jpg,,,,,,,,,,,,,,,,,,,,,,,,,,,,,,,,,,,,,,,,,,,,,,,,0,4,4,1,1,,,,,,,,,,,,,,,,,,,,,,,,,,,,,,,,,,,,,,,,,
907133,001,2022-11-21_01h54.56.089,Info_measure_main_exp,2022.2.2,Win32,60.27000964,,,,,,,,,,,,,,,,,,,,,,,,,,,,,,6,2.8298,1,,,,,,,,,,,,0,131,5,5,1974,1974,absent_patch/patch0001974.jpg,absent_patch/patch0001974.jpg,,,,,,,,,,,,,,,,,,,,0.135416667,0.018229167,1,0,0,response1disk,8,-0.001302083,0.006510417,1,0,0,center_square,0,7,7,113,1,,,,,,,,,,,,,,,,,,,,,,,
907133,001,2022-11-21_01h54.56.089,Info_measure_main_exp,2022.2.2,Win32,60.27000964,,,,,,,,,,,,,,,,,,masks/mask_003.jpg,,,,,,,,,,,,,,,,,,,,,,,,,,,,,,,,,,,,,,,,,,,0,0,0,2,1,,,,,,,,,,,,,,,,,,,,,,,,,,,,,,,,,,,,,,,,,,,,,,
907133,001,2022-11-21_01h54.56.089,Info_measure_main_exp,2022.2.2,Win32,60.27000964,,,,,,,,,,,,,,,,,,masks/mask_001.jpg,,,,,,,,,,,,,,,,,,,,,,,,,,,,,,,,,,,,,,,,,,,0,1,1,0,1,,,,,,,,,,,,,,,,,,,,,,,,,,,,,,,,,,,,,,,,,,,,,,
907133,001,2022-11-21_01h54.56.089,Info_measure_main_exp,2022.2.2,Win32,60.27000964,,,,,,,,,,,,,,,,,,masks/mask_004.jpg,,,,,,,,,,,,,,,,,,,,,,,,,,,,,,,,,,,,,,,,,,,0,2,2,3,1,,,,,,,,,,,,,,,,,,,,,,,,,,,,,,,,,,,,,,,,,,,,,,
907133,001,2022-11-21_01h54.56.089,Info_measure_main_exp,2022.2.2,Win32,60.27000964,,,,,,,,,,,,,,,,,,masks/mask_005.jpg,,,,,,,,,,,,,,,,,,,,,,,,,,,,,,,,,,,,,,,,,,,0,3,3,4,1,,,,,,,,,,,,,,,,,,,,,,,,,,,,,,,,,,,,,,,,,,,,,,
907133,001,2022-11-21_01h54.56.089,Info_measure_main_exp,2022.2.2,Win32,60.27000964,,,,,,,,,,,,,,,,,,masks/mask_002.jpg,,,,,,,,,,,,,,,,,,,,,,,,,,,,,,,,,,,,,,,,,,,0,4,4,1,1,,,,,,,,,,,,,,,,,,,,,,,,,,,,,,,,,,,,,,,,,,,,,,
907133,001,2022-11-21_01h54.56.089,Info_measure_main_exp,2022.2.2,Win32,60.27000964,,,,,,,,,,,,,,,,,,masks/mask_002.jpg,,,,,,,,,,,,,,,,,,,,,,,,,,,,,,,,,,,,,,,,,,,,,,,,0,0,0,1,1,,,,,,,,,,,,,,,,,,,,,,,,,,,,,,,,,,,,,,,,,
907133,001,2022-11-21_01h54.56.089,Info_measure_main_exp,2022.2.2,Win32,60.27000964,,,,,,,,,,,,,,,,,,masks/mask_004.jpg,,,,,,,,,,,,,,,,,,,,,,,,,,,,,,,,,,,,,,,,,,,,,,,,0,1,1,3,1,,,,,,,,,,,,,,,,,,,,,,,,,,,,,,,,,,,,,,,,,
907133,001,2022-11-21_01h54.56.089,Info_measure_main_exp,2022.2.2,Win32,60.27000964,,,,,,,,,,,,,,,,,,masks/mask_001.jpg,,,,,,,,,,,,,,,,,,,,,,,,,,,,,,,,,,,,,,,,,,,,,,,,0,2,2,0,1,,,,,,,,,,,,,,,,,,,,,,,,,,,,,,,,,,,,,,,,,
907133,001,2022-11-21_01h54.56.089,Info_measure_main_exp,2022.2.2,Win32,60.27000964,,,,,,,,,,,,,,,,,,masks/mask_005.jpg,,,,,,,,,,,,,,,,,,,,,,,,,,,,,,,,,,,,,,,,,,,,,,,,0,3,3,4,1,,,,,,,,,,,,,,,,,,,,,,,,,,,,,,,,,,,,,,,,,
907133,001,2022-11-21_01h54.56.089,Info_measure_main_exp,2022.2.2,Win32,60.27000964,,,,,,,,,,,,,,,,,,masks/mask_003.jpg,,,,,,,,,,,,,,,,,,,,,,,,,,,,,,,,,,,,,,,,,,,,,,,,0,4,4,2,1,,,,,,,,,,,,,,,,,,,,,,,,,,,,,,,,,,,,,,,,,
907133,001,2022-11-21_01h54.56.089,Info_measure_main_exp,2022.2.2,Win32,60.27000964,,,,,,,,,,,,,,,,,,,,,,,,,,,,,,7,1.0212,1,,,,,,,,,,,,0,131,5,5,2190,2250,absent_patch/patch0002190.jpg,absent_patch/patch0002250.jpg,,,,,,,,,,,,,,,,,,,,0.037760417,0.079427083,1,0,0,response1disk,9,-0.006510417,-0.013020833,1,0,0,center_square,0,8,8,93,1,,,,,,,,,,,,,,,,,,,,,,,
907133,001,2022-11-21_01h54.56.089,Info_measure_main_exp,2022.2.2,Win32,60.27000964,,,,,,,,,,,,,,,,,,masks/mask_003.jpg,,,,,,,,,,,,,,,,,,,,,,,,,,,,,,,,,,,,,,,,,,,0,0,0,2,1,,,,,,,,,,,,,,,,,,,,,,,,,,,,,,,,,,,,,,,,,,,,,,
907133,001,2022-11-21_01h54.56.089,Info_measure_main_exp,2022.2.2,Win32,60.27000964,,,,,,,,,,,,,,,,,,masks/mask_005.jpg,,,,,,,,,,,,,,,,,,,,,,,,,,,,,,,,,,,,,,,,,,,0,1,1,4,1,,,,,,,,,,,,,,,,,,,,,,,,,,,,,,,,,,,,,,,,,,,,,,
907133,001,2022-11-21_01h54.56.089,Info_measure_main_exp,2022.2.2,Win32,60.27000964,,,,,,,,,,,,,,,,,,masks/mask_002.jpg,,,,,,,,,,,,,,,,,,,,,,,,,,,,,,,,,,,,,,,,,,,0,2,2,1,1,,,,,,,,,,,,,,,,,,,,,,,,,,,,,,,,,,,,,,,,,,,,,,
907133,001,2022-11-21_01h54.56.089,Info_measure_main_exp,2022.2.2,Win32,60.27000964,,,,,,,,,,,,,,,,,,masks/mask_001.jpg,,,,,,,,,,,,,,,,,,,,,,,,,,,,,,,,,,,,,,,,,,,0,3,3,0,1,,,,,,,,,,,,,,,,,,,,,,,,,,,,,,,,,,,,,,,,,,,,,,
907133,001,2022-11-21_01h54.56.089,Info_measure_main_exp,2022.2.2,Win32,60.27000964,,,,,,,,,,,,,,,,,,masks/mask_004.jpg,,,,,,,,,,,,,,,,,,,,,,,,,,,,,,,,,,,,,,,,,,,0,4,4,3,1,,,,,,,,,,,,,,,,,,,,,,,,,,,,,,,,,,,,,,,,,,,,,,
907133,001,2022-11-21_01h54.56.089,Info_measure_main_exp,2022.2.2,Win32,60.27000964,,,,,,,,,,,,,,,,,,masks/mask_005.jpg,,,,,,,,,,,,,,,,,,,,,,,,,,,,,,,,,,,,,,,,,,,,,,,,0,0,0,4,1,,,,,,,,,,,,,,,,,,,,,,,,,,,,,,,,,,,,,,,,,
907133,001,2022-11-21_01h54.56.089,Info_measure_main_exp,2022.2.2,Win32,60.27000964,,,,,,,,,,,,,,,,,,masks/mask_002.jpg,,,,,,,,,,,,,,,,,,,,,,,,,,,,,,,,,,,,,,,,,,,,,,,,0,1,1,1,1,,,,,,,,,,,,,,,,,,,,,,,,,,,,,,,,,,,,,,,,,
907133,001,2022-11-21_01h54.56.089,Info_measure_main_exp,2022.2.2,Win32,60.27000964,,,,,,,,,,,,,,,,,,masks/mask_004.jpg,,,,,,,,,,,,,,,,,,,,,,,,,,,,,,,,,,,,,,,,,,,,,,,,0,2,2,3,1,,,,,,,,,,,,,,,,,,,,,,,,,,,,,,,,,,,,,,,,,
907133,001,2022-11-21_01h54.56.089,Info_measure_main_exp,2022.2.2,Win32,60.27000964,,,,,,,,,,,,,,,,,,masks/mask_003.jpg,,,,,,,,,,,,,,,,,,,,,,,,,,,,,,,,,,,,,,,,,,,,,,,,0,3,3,2,1,,,,,,,,,,,,,,,,,,,,,,,,,,,,,,,,,,,,,,,,,
907133,001,2022-11-21_01h54.56.089,Info_measure_main_exp,2022.2.2,Win32,60.27000964,,,,,,,,,,,,,,,,,,masks/mask_001.jpg,,,,,,,,,,,,,,,,,,,,,,,,,,,,,,,,,,,,,,,,,,,,,,,,0,4,4,0,1,,,,,,,,,,,,,,,,,,,,,,,,,,,,,,,,,,,,,,,,,
907133,001,2022-11-21_01h54.56.089,Info_measure_main_exp,2022.2.2,Win32,60.27000964,,,,,,,,,,,,,,,,,,,,,,,,,,,,,,7,0.8684,1,,,,,,,,,,,,0,131,5,5,2082,2166,absent_patch/patch0002082.jpg,absent_patch/patch0002166.jpg,,,,,,,,,,,,,,,,,,,,0.029947917,0.055989583,1,0,0,response1disk,10,0.009114583,0.006510417,1,0,0,center_square,0,9,9,43,1,,,,,,,,,,,,,,,,,,,,,,,
907133,001,2022-11-21_01h54.56.089,Info_measure_main_exp,2022.2.2,Win32,60.27000964,,,,,,,,,,,,,,,,,,masks/mask_003.jpg,,,,,,,,,,,,,,,,,,,,,,,,,,,,,,,,,,,,,,,,,,,0,0,0,2,1,,,,,,,,,,,,,,,,,,,,,,,,,,,,,,,,,,,,,,,,,,,,,,
907133,001,2022-11-21_01h54.56.089,Info_measure_main_exp,2022.2.2,Win32,60.27000964,,,,,,,,,,,,,,,,,,masks/mask_005.jpg,,,,,,,,,,,,,,,,,,,,,,,,,,,,,,,,,,,,,,,,,,,0,1,1,4,1,,,,,,,,,,,,,,,,,,,,,,,,,,,,,,,,,,,,,,,,,,,,,,
907133,001,2022-11-21_01h54.56.089,Info_measure_main_exp,2022.2.2,Win32,60.27000964,,,,,,,,,,,,,,,,,,masks/mask_004.jpg,,,,,,,,,,,,,,,,,,,,,,,,,,,,,,,,,,,,,,,,,,,0,2,2,3,1,,,,,,,,,,,,,,,,,,,,,,,,,,,,,,,,,,,,,,,,,,,,,,
907133,001,2022-11-21_01h54.56.089,Info_measure_main_exp,2022.2.2,Win32,60.27000964,,,,,,,,,,,,,,,,,,masks/mask_002.jpg,,,,,,,,,,,,,,,,,,,,,,,,,,,,,,,,,,,,,,,,,,,0,3,3,1,1,,,,,,,,,,,,,,,,,,,,,,,,,,,,,,,,,,,,,,,,,,,,,,
907133,001,2022-11-21_01h54.56.089,Info_measure_main_exp,2022.2.2,Win32,60.27000964,,,,,,,,,,,,,,,,,,masks/mask_001.jpg,,,,,,,,,,,,,,,,,,,,,,,,,,,,,,,,,,,,,,,,,,,0,4,4,0,1,,,,,,,,,,,,,,,,,,,,,,,,,,,,,,,,,,,,,,,,,,,,,,
907133,001,2022-11-21_01h54.56.089,Info_measure_main_exp,2022.2.2,Win32,60.27000964,,,,,,,,,,,,,,,,,,masks/mask_002.jpg,,,,,,,,,,,,,,,,,,,,,,,,,,,,,,,,,,,,,,,,,,,,,,,,0,0,0,1,1,,,,,,,,,,,,,,,,,,,,,,,,,,,,,,,,,,,,,,,,,
907133,001,2022-11-21_01h54.56.089,Info_measure_main_exp,2022.2.2,Win32,60.27000964,,,,,,,,,,,,,,,,,,masks/mask_003.jpg,,,,,,,,,,,,,,,,,,,,,,,,,,,,,,,,,,,,,,,,,,,,,,,,0,1,1,2,1,,,,,,,,,,,,,,,,,,,,,,,,,,,,,,,,,,,,,,,,,
907133,001,2022-11-21_01h54.56.089,Info_measure_main_exp,2022.2.2,Win32,60.27000964,,,,,,,,,,,,,,,,,,masks/mask_004.jpg,,,,,,,,,,,,,,,,,,,,,,,,,,,,,,,,,,,,,,,,,,,,,,,,0,2,2,3,1,,,,,,,,,,,,,,,,,,,,,,,,,,,,,,,,,,,,,,,,,
907133,001,2022-11-21_01h54.56.089,Info_measure_main_exp,2022.2.2,Win32,60.27000964,,,,,,,,,,,,,,,,,,masks/mask_005.jpg,,,,,,,,,,,,,,,,,,,,,,,,,,,,,,,,,,,,,,,,,,,,,,,,0,3,3,4,1,,,,,,,,,,,,,,,,,,,,,,,,,,,,,,,,,,,,,,,,,
907133,001,2022-11-21_01h54.56.089,Info_measure_main_exp,2022.2.2,Win32,60.27000964,,,,,,,,,,,,,,,,,,masks/mask_001.jpg,,,,,,,,,,,,,,,,,,,,,,,,,,,,,,,,,,,,,,,,,,,,,,,,0,4,4,0,1,,,,,,,,,,,,,,,,,,,,,,,,,,,,,,,,,,,,,,,,,
907133,001,2022-11-21_01h54.56.089,Info_measure_main_exp,2022.2.2,Win32,60.27000964,,,,,,,,,,,,,,,,,,,,,,,,,,,,,,0,1.002,1,,,,,,,,,,,,0,131,5,5,2238,2238,absent_patch/patch0002238.jpg,absent_patch/patch0002238.jpg,,,,,,,,,,,,,,,,,,,,-0.020833333,0.0859375,1,0,0,response7disk,11,-0.001302083,0.001302083,1,0,0,center_square,0,10,10,58,1,,,,,,,,,,,,,,,,,,,,,,,
907133,001,2022-11-21_01h54.56.089,Info_measure_main_exp,2022.2.2,Win32,60.27000964,,,,,,,,,,,,,,,,,,masks/mask_003.jpg,,,,,,,,,,,,,,,,,,,,,,,,,,,,,,,,,,,,,,,,,,,0,0,0,2,1,,,,,,,,,,,,,,,,,,,,,,,,,,,,,,,,,,,,,,,,,,,,,,
907133,001,2022-11-21_01h54.56.089,Info_measure_main_exp,2022.2.2,Win32,60.27000964,,,,,,,,,,,,,,,,,,masks/mask_004.jpg,,,,,,,,,,,,,,,,,,,,,,,,,,,,,,,,,,,,,,,,,,,0,1,1,3,1,,,,,,,,,,,,,,,,,,,,,,,,,,,,,,,,,,,,,,,,,,,,,,
907133,001,2022-11-21_01h54.56.089,Info_measure_main_exp,2022.2.2,Win32,60.27000964,,,,,,,,,,,,,,,,,,masks/mask_001.jpg,,,,,,,,,,,,,,,,,,,,,,,,,,,,,,,,,,,,,,,,,,,0,2,2,0,1,,,,,,,,,,,,,,,,,,,,,,,,,,,,,,,,,,,,,,,,,,,,,,
907133,001,2022-11-21_01h54.56.089,Info_measure_main_exp,2022.2.2,Win32,60.27000964,,,,,,,,,,,,,,,,,,masks/mask_005.jpg,,,,,,,,,,,,,,,,,,,,,,,,,,,,,,,,,,,,,,,,,,,0,3,3,4,1,,,,,,,,,,,,,,,,,,,,,,,,,,,,,,,,,,,,,,,,,,,,,,
907133,001,2022-11-21_01h54.56.089,Info_measure_main_exp,2022.2.2,Win32,60.27000964,,,,,,,,,,,,,,,,,,masks/mask_002.jpg,,,,,,,,,,,,,,,,,,,,,,,,,,,,,,,,,,,,,,,,,,,0,4,4,1,1,,,,,,,,,,,,,,,,,,,,,,,,,,,,,,,,,,,,,,,,,,,,,,
907133,001,2022-11-21_01h54.56.089,Info_measure_main_exp,2022.2.2,Win32,60.27000964,,,,,,,,,,,,,,,,,,masks/mask_004.jpg,,,,,,,,,,,,,,,,,,,,,,,,,,,,,,,,,,,,,,,,,,,,,,,,0,0,0,3,1,,,,,,,,,,,,,,,,,,,,,,,,,,,,,,,,,,,,,,,,,
907133,001,2022-11-21_01h54.56.089,Info_measure_main_exp,2022.2.2,Win32,60.27000964,,,,,,,,,,,,,,,,,,masks/mask_002.jpg,,,,,,,,,,,,,,,,,,,,,,,,,,,,,,,,,,,,,,,,,,,,,,,,0,1,1,1,1,,,,,,,,,,,,,,,,,,,,,,,,,,,,,,,,,,,,,,,,,
907133,001,2022-11-21_01h54.56.089,Info_measure_main_exp,2022.2.2,Win32,60.27000964,,,,,,,,,,,,,,,,,,masks/mask_001.jpg,,,,,,,,,,,,,,,,,,,,,,,,,,,,,,,,,,,,,,,,,,,,,,,,0,2,2,0,1,,,,,,,,,,,,,,,,,,,,,,,,,,,,,,,,,,,,,,,,,
907133,001,2022-11-21_01h54.56.089,Info_measure_main_exp,2022.2.2,Win32,60.27000964,,,,,,,,,,,,,,,,,,masks/mask_005.jpg,,,,,,,,,,,,,,,,,,,,,,,,,,,,,,,,,,,,,,,,,,,,,,,,0,3,3,4,1,,,,,,,,,,,,,,,,,,,,,,,,,,,,,,,,,,,,,,,,,
907133,001,2022-11-21_01h54.56.089,Info_measure_main_exp,2022.2.2,Win32,60.27000964,,,,,,,,,,,,,,,,,,masks/mask_003.jpg,,,,,,,,,,,,,,,,,,,,,,,,,,,,,,,,,,,,,,,,,,,,,,,,0,4,4,2,1,,,,,,,,,,,,,,,,,,,,,,,,,,,,,,,,,,,,,,,,,
907133,001,2022-11-21_01h54.56.089,Info_measure_main_exp,2022.2.2,Win32,60.27000964,,,,,,,,,,,,,,,,,,,,,,,,,,,,,,7,2.9428,1,,,,,,,,,,,,0,131,5,5,2142,2154,absent_patch/patch0002142.jpg,absent_patch/patch0002154.jpg,,,,,,,,,,,,,,,,,,,,0.04296875,0.09375,1,0,0,response1disk,12,-0.005208333,0.006510417,1,0,0,center_square,0,11,11,9,1,,,,,,,,,,,,,,,,,,,,,,,
907133,001,2022-11-21_01h54.56.089,Info_measure_main_exp,2022.2.2,Win32,60.27000964,,,,,,,,,,,,,,,,,,masks/mask_005.jpg,,,,,,,,,,,,,,,,,,,,,,,,,,,,,,,,,,,,,,,,,,,0,0,0,4,1,,,,,,,,,,,,,,,,,,,,,,,,,,,,,,,,,,,,,,,,,,,,,,
907133,001,2022-11-21_01h54.56.089,Info_measure_main_exp,2022.2.2,Win32,60.27000964,,,,,,,,,,,,,,,,,,masks/mask_001.jpg,,,,,,,,,,,,,,,,,,,,,,,,,,,,,,,,,,,,,,,,,,,0,1,1,0,1,,,,,,,,,,,,,,,,,,,,,,,,,,,,,,,,,,,,,,,,,,,,,,
907133,001,2022-11-21_01h54.56.089,Info_measure_main_exp,2022.2.2,Win32,60.27000964,,,,,,,,,,,,,,,,,,masks/mask_003.jpg,,,,,,,,,,,,,,,,,,,,,,,,,,,,,,,,,,,,,,,,,,,0,2,2,2,1,,,,,,,,,,,,,,,,,,,,,,,,,,,,,,,,,,,,,,,,,,,,,,
907133,001,2022-11-21_01h54.56.089,Info_measure_main_exp,2022.2.2,Win32,60.27000964,,,,,,,,,,,,,,,,,,masks/mask_002.jpg,,,,,,,,,,,,,,,,,,,,,,,,,,,,,,,,,,,,,,,,,,,0,3,3,1,1,,,,,,,,,,,,,,,,,,,,,,,,,,,,,,,,,,,,,,,,,,,,,,
907133,001,2022-11-21_01h54.56.089,Info_measure_main_exp,2022.2.2,Win32,60.27000964,,,,,,,,,,,,,,,,,,masks/mask_004.jpg,,,,,,,,,,,,,,,,,,,,,,,,,,,,,,,,,,,,,,,,,,,0,4,4,3,1,,,,,,,,,,,,,,,,,,,,,,,,,,,,,,,,,,,,,,,,,,,,,,
907133,001,2022-11-21_01h54.56.089,Info_measure_main_exp,2022.2.2,Win32,60.27000964,,,,,,,,,,,,,,,,,,masks/mask_003.jpg,,,,,,,,,,,,,,,,,,,,,,,,,,,,,,,,,,,,,,,,,,,,,,,,0,0,0,2,1,,,,,,,,,,,,,,,,,,,,,,,,,,,,,,,,,,,,,,,,,
907133,001,2022-11-21_01h54.56.089,Info_measure_main_exp,2022.2.2,Win32,60.27000964,,,,,,,,,,,,,,,,,,masks/mask_002.jpg,,,,,,,,,,,,,,,,,,,,,,,,,,,,,,,,,,,,,,,,,,,,,,,,0,1,1,1,1,,,,,,,,,,,,,,,,,,,,,,,,,,,,,,,,,,,,,,,,,
907133,001,2022-11-21_01h54.56.089,Info_measure_main_exp,2022.2.2,Win32,60.27000964,,,,,,,,,,,,,,,,,,masks/mask_001.jpg,,,,,,,,,,,,,,,,,,,,,,,,,,,,,,,,,,,,,,,,,,,,,,,,0,2,2,0,1,,,,,,,,,,,,,,,,,,,,,,,,,,,,,,,,,,,,,,,,,
907133,001,2022-11-21_01h54.56.089,Info_measure_main_exp,2022.2.2,Win32,60.27000964,,,,,,,,,,,,,,,,,,masks/mask_004.jpg,,,,,,,,,,,,,,,,,,,,,,,,,,,,,,,,,,,,,,,,,,,,,,,,0,3,3,3,1,,,,,,,,,,,,,,,,,,,,,,,,,,,,,,,,,,,,,,,,,
907133,001,2022-11-21_01h54.56.089,Info_measure_main_exp,2022.2.2,Win32,60.27000964,,,,,,,,,,,,,,,,,,masks/mask_005.jpg,,,,,,,,,,,,,,,,,,,,,,,,,,,,,,,,,,,,,,,,,,,,,,,,0,4,4,4,1,,,,,,,,,,,,,,,,,,,,,,,,,,,,,,,,,,,,,,,,,
907133,001,2022-11-21_01h54.56.089,Info_measure_main_exp,2022.2.2,Win32,60.27000964,,,,,,,,,,,,,,,,,,,,,,,,,,,,,,7,1.4841,1,,,,,,,,,,,,0,131,5,5,2154,2238,absent_patch/patch0002154.jpg,absent_patch/patch0002238.jpg,,,,,,,,,,,,,,,,,,,,0.015625,0.079427083,1,0,0,response1disk,13,0.009114583,0.013020833,1,0,0,center_square,0,12,12,21,1,,,,,,,,,,,,,,,,,,,,,,,
907133,001,2022-11-21_01h54.56.089,Info_measure_main_exp,2022.2.2,Win32,60.27000964,,,,,,,,,,,,,,,,,,masks/mask_001.jpg,,,,,,,,,,,,,,,,,,,,,,,,,,,,,,,,,,,,,,,,,,,0,0,0,0,1,,,,,,,,,,,,,,,,,,,,,,,,,,,,,,,,,,,,,,,,,,,,,,
907133,001,2022-11-21_01h54.56.089,Info_measure_main_exp,2022.2.2,Win32,60.27000964,,,,,,,,,,,,,,,,,,masks/mask_003.jpg,,,,,,,,,,,,,,,,,,,,,,,,,,,,,,,,,,,,,,,,,,,0,1,1,2,1,,,,,,,,,,,,,,,,,,,,,,,,,,,,,,,,,,,,,,,,,,,,,,
907133,001,2022-11-21_01h54.56.089,Info_measure_main_exp,2022.2.2,Win32,60.27000964,,,,,,,,,,,,,,,,,,masks/mask_005.jpg,,,,,,,,,,,,,,,,,,,,,,,,,,,,,,,,,,,,,,,,,,,0,2,2,4,1,,,,,,,,,,,,,,,,,,,,,,,,,,,,,,,,,,,,,,,,,,,,,,
907133,001,2022-11-21_01h54.56.089,Info_measure_main_exp,2022.2.2,Win32,60.27000964,,,,,,,,,,,,,,,,,,masks/mask_004.jpg,,,,,,,,,,,,,,,,,,,,,,,,,,,,,,,,,,,,,,,,,,,0,3,3,3,1,,,,,,,,,,,,,,,,,,,,,,,,,,,,,,,,,,,,,,,,,,,,,,
907133,001,2022-11-21_01h54.56.089,Info_measure_main_exp,2022.2.2,Win32,60.27000964,,,,,,,,,,,,,,,,,,masks/mask_002.jpg,,,,,,,,,,,,,,,,,,,,,,,,,,,,,,,,,,,,,,,,,,,0,4,4,1,1,,,,,,,,,,,,,,,,,,,,,,,,,,,,,,,,,,,,,,,,,,,,,,
907133,001,2022-11-21_01h54.56.089,Info_measure_main_exp,2022.2.2,Win32,60.27000964,,,,,,,,,,,,,,,,,,masks/mask_002.jpg,,,,,,,,,,,,,,,,,,,,,,,,,,,,,,,,,,,,,,,,,,,,,,,,0,0,0,1,1,,,,,,,,,,,,,,,,,,,,,,,,,,,,,,,,,,,,,,,,,
907133,001,2022-11-21_01h54.56.089,Info_measure_main_exp,2022.2.2,Win32,60.27000964,,,,,,,,,,,,,,,,,,masks/mask_005.jpg,,,,,,,,,,,,,,,,,,,,,,,,,,,,,,,,,,,,,,,,,,,,,,,,0,1,1,4,1,,,,,,,,,,,,,,,,,,,,,,,,,,,,,,,,,,,,,,,,,
907133,001,2022-11-21_01h54.56.089,Info_measure_main_exp,2022.2.2,Win32,60.27000964,,,,,,,,,,,,,,,,,,masks/mask_004.jpg,,,,,,,,,,,,,,,,,,,,,,,,,,,,,,,,,,,,,,,,,,,,,,,,0,2,2,3,1,,,,,,,,,,,,,,,,,,,,,,,,,,,,,,,,,,,,,,,,,
907133,001,2022-11-21_01h54.56.089,Info_measure_main_exp,2022.2.2,Win32,60.27000964,,,,,,,,,,,,,,,,,,masks/mask_003.jpg,,,,,,,,,,,,,,,,,,,,,,,,,,,,,,,,,,,,,,,,,,,,,,,,0,3,3,2,1,,,,,,,,,,,,,,,,,,,,,,,,,,,,,,,,,,,,,,,,,
907133,001,2022-11-21_01h54.56.089,Info_measure_main_exp,2022.2.2,Win32,60.27000964,,,,,,,,,,,,,,,,,,masks/mask_001.jpg,,,,,,,,,,,,,,,,,,,,,,,,,,,,,,,,,,,,,,,,,,,,,,,,0,4,4,0,1,,,,,,,,,,,,,,,,,,,,,,,,,,,,,,,,,,,,,,,,,
907133,001,2022-11-21_01h54.56.089,Info_measure_main_exp,2022.2.2,Win32,60.27000964,,,,,,,,,,,,,,,,,,,,,,,,,,,,,,6,1.2807,1,,,,,,,,,,,,0,131,5,5,2190,2238,absent_patch/patch0002190.jpg,absent_patch/patch0002238.jpg,,,,,,,,,,,,,,,,,,,,0.12109375,0.088541667,1,0,0,response1disk,14,0.001302083,0.0078125,1,0,0,center_square,0,13,13,53,1,,,,,,,,,,,,,,,,,,,,,,,
907133,001,2022-11-21_01h54.56.089,Info_measure_main_exp,2022.2.2,Win32,60.27000964,,,,,,,,,,,,,,,,,,masks/mask_003.jpg,,,,,,,,,,,,,,,,,,,,,,,,,,,,,,,,,,,,,,,,,,,0,0,0,2,1,,,,,,,,,,,,,,,,,,,,,,,,,,,,,,,,,,,,,,,,,,,,,,
907133,001,2022-11-21_01h54.56.089,Info_measure_main_exp,2022.2.2,Win32,60.27000964,,,,,,,,,,,,,,,,,,masks/mask_002.jpg,,,,,,,,,,,,,,,,,,,,,,,,,,,,,,,,,,,,,,,,,,,0,1,1,1,1,,,,,,,,,,,,,,,,,,,,,,,,,,,,,,,,,,,,,,,,,,,,,,
907133,001,2022-11-21_01h54.56.089,Info_measure_main_exp,2022.2.2,Win32,60.27000964,,,,,,,,,,,,,,,,,,masks/mask_004.jpg,,,,,,,,,,,,,,,,,,,,,,,,,,,,,,,,,,,,,,,,,,,0,2,2,3,1,,,,,,,,,,,,,,,,,,,,,,,,,,,,,,,,,,,,,,,,,,,,,,
907133,001,2022-11-21_01h54.56.089,Info_measure_main_exp,2022.2.2,Win32,60.27000964,,,,,,,,,,,,,,,,,,masks/mask_005.jpg,,,,,,,,,,,,,,,,,,,,,,,,,,,,,,,,,,,,,,,,,,,0,3,3,4,1,,,,,,,,,,,,,,,,,,,,,,,,,,,,,,,,,,,,,,,,,,,,,,
907133,001,2022-11-21_01h54.56.089,Info_measure_main_exp,2022.2.2,Win32,60.27000964,,,,,,,,,,,,,,,,,,masks/mask_001.jpg,,,,,,,,,,,,,,,,,,,,,,,,,,,,,,,,,,,,,,,,,,,0,4,4,0,1,,,,,,,,,,,,,,,,,,,,,,,,,,,,,,,,,,,,,,,,,,,,,,
907133,001,2022-11-21_01h54.56.089,Info_measure_main_exp,2022.2.2,Win32,60.27000964,,,,,,,,,,,,,,,,,,masks/mask_004.jpg,,,,,,,,,,,,,,,,,,,,,,,,,,,,,,,,,,,,,,,,,,,,,,,,0,0,0,3,1,,,,,,,,,,,,,,,,,,,,,,,,,,,,,,,,,,,,,,,,,
907133,001,2022-11-21_01h54.56.089,Info_measure_main_exp,2022.2.2,Win32,60.27000964,,,,,,,,,,,,,,,,,,masks/mask_003.jpg,,,,,,,,,,,,,,,,,,,,,,,,,,,,,,,,,,,,,,,,,,,,,,,,0,1,1,2,1,,,,,,,,,,,,,,,,,,,,,,,,,,,,,,,,,,,,,,,,,
907133,001,2022-11-21_01h54.56.089,Info_measure_main_exp,2022.2.2,Win32,60.27000964,,,,,,,,,,,,,,,,,,masks/mask_002.jpg,,,,,,,,,,,,,,,,,,,,,,,,,,,,,,,,,,,,,,,,,,,,,,,,0,2,2,1,1,,,,,,,,,,,,,,,,,,,,,,,,,,,,,,,,,,,,,,,,,
907133,001,2022-11-21_01h54.56.089,Info_measure_main_exp,2022.2.2,Win32,60.27000964,,,,,,,,,,,,,,,,,,masks/mask_001.jpg,,,,,,,,,,,,,,,,,,,,,,,,,,,,,,,,,,,,,,,,,,,,,,,,0,3,3,0,1,,,,,,,,,,,,,,,,,,,,,,,,,,,,,,,,,,,,,,,,,
907133,001,2022-11-21_01h54.56.089,Info_measure_main_exp,2022.2.2,Win32,60.27000964,,,,,,,,,,,,,,,,,,masks/mask_005.jpg,,,,,,,,,,,,,,,,,,,,,,,,,,,,,,,,,,,,,,,,,,,,,,,,0,4,4,4,1,,,,,,,,,,,,,,,,,,,,,,,,,,,,,,,,,,,,,,,,,
907133,001,2022-11-21_01h54.56.089,Info_measure_main_exp,2022.2.2,Win32,60.27000964,,,,,,,,,,,,,,,,,,,,,,,,,,,,,,6,1.0792,1,,,,,,,,,,,,0,131,5,5,2082,2154,absent_patch/patch0002082.jpg,absent_patch/patch0002154.jpg,,,,,,,,,,,,,,,,,,,,0.083333333,0.059895833,1,0,0,response1disk,15,-0.005208333,-0.00390625,1,0,0,center_square,0,14,14,33,1,,,,,,,,,,,,,,,,,,,,,,,
907133,001,2022-11-21_01h54.56.089,Info_measure_main_exp,2022.2.2,Win32,60.27000964,,,,,,,,,,,,,,,,,,masks/mask_004.jpg,,,,,,,,,,,,,,,,,,,,,,,,,,,,,,,,,,,,,,,,,,,0,0,0,3,1,,,,,,,,,,,,,,,,,,,,,,,,,,,,,,,,,,,,,,,,,,,,,,
907133,001,2022-11-21_01h54.56.089,Info_measure_main_exp,2022.2.2,Win32,60.27000964,,,,,,,,,,,,,,,,,,masks/mask_002.jpg,,,,,,,,,,,,,,,,,,,,,,,,,,,,,,,,,,,,,,,,,,,0,1,1,1,1,,,,,,,,,,,,,,,,,,,,,,,,,,,,,,,,,,,,,,,,,,,,,,
907133,001,2022-11-21_01h54.56.089,Info_measure_main_exp,2022.2.2,Win32,60.27000964,,,,,,,,,,,,,,,,,,masks/mask_003.jpg,,,,,,,,,,,,,,,,,,,,,,,,,,,,,,,,,,,,,,,,,,,0,2,2,2,1,,,,,,,,,,,,,,,,,,,,,,,,,,,,,,,,,,,,,,,,,,,,,,
907133,001,2022-11-21_01h54.56.089,Info_measure_main_exp,2022.2.2,Win32,60.27000964,,,,,,,,,,,,,,,,,,masks/mask_005.jpg,,,,,,,,,,,,,,,,,,,,,,,,,,,,,,,,,,,,,,,,,,,0,3,3,4,1,,,,,,,,,,,,,,,,,,,,,,,,,,,,,,,,,,,,,,,,,,,,,,
907133,001,2022-11-21_01h54.56.089,Info_measure_main_exp,2022.2.2,Win32,60.27000964,,,,,,,,,,,,,,,,,,masks/mask_001.jpg,,,,,,,,,,,,,,,,,,,,,,,,,,,,,,,,,,,,,,,,,,,0,4,4,0,1,,,,,,,,,,,,,,,,,,,,,,,,,,,,,,,,,,,,,,,,,,,,,,
907133,001,2022-11-21_01h54.56.089,Info_measure_main_exp,2022.2.2,Win32,60.27000964,,,,,,,,,,,,,,,,,,masks/mask_002.jpg,,,,,,,,,,,,,,,,,,,,,,,,,,,,,,,,,,,,,,,,,,,,,,,,0,0,0,1,1,,,,,,,,,,,,,,,,,,,,,,,,,,,,,,,,,,,,,,,,,
907133,001,2022-11-21_01h54.56.089,Info_measure_main_exp,2022.2.2,Win32,60.27000964,,,,,,,,,,,,,,,,,,masks/mask_003.jpg,,,,,,,,,,,,,,,,,,,,,,,,,,,,,,,,,,,,,,,,,,,,,,,,0,1,1,2,1,,,,,,,,,,,,,,,,,,,,,,,,,,,,,,,,,,,,,,,,,
907133,001,2022-11-21_01h54.56.089,Info_measure_main_exp,2022.2.2,Win32,60.27000964,,,,,,,,,,,,,,,,,,masks/mask_005.jpg,,,,,,,,,,,,,,,,,,,,,,,,,,,,,,,,,,,,,,,,,,,,,,,,0,2,2,4,1,,,,,,,,,,,,,,,,,,,,,,,,,,,,,,,,,,,,,,,,,
907133,001,2022-11-21_01h54.56.089,Info_measure_main_exp,2022.2.2,Win32,60.27000964,,,,,,,,,,,,,,,,,,masks/mask_004.jpg,,,,,,,,,,,,,,,,,,,,,,,,,,,,,,,,,,,,,,,,,,,,,,,,0,3,3,3,1,,,,,,,,,,,,,,,,,,,,,,,,,,,,,,,,,,,,,,,,,
907133,001,2022-11-21_01h54.56.089,Info_measure_main_exp,2022.2.2,Win32,60.27000964,,,,,,,,,,,,,,,,,,masks/mask_001.jpg,,,,,,,,,,,,,,,,,,,,,,,,,,,,,,,,,,,,,,,,,,,,,,,,0,4,4,0,1,,,,,,,,,,,,,,,,,,,,,,,,,,,,,,,,,,,,,,,,,
907133,001,2022-11-21_01h54.56.089,Info_measure_main_exp,2022.2.2,Win32,60.27000964,,,,,,,,,,,,,,,,,,,,,,,,,,,,,,1,1.1519,1,,,,,,,,,,,,0,131,5,5,2178,2178,absent_patch/patch0002178.jpg,absent_patch/patch0002178.jpg,,,,,,,,,,,,,,,,,,,,-0.076822917,0.044270833,1,0,0,response7disk,16,0.01171875,-0.005208333,1,0,0,center_square,0,15,15,98,1,,,,,,,,,,,,,,,,,,,,,,,
907133,001,2022-11-21_01h54.56.089,Info_measure_main_exp,2022.2.2,Win32,60.27000964,,,,,,,,,,,,,,,,,,masks/mask_005.jpg,,,,,,,,,,,,,,,,,,,,,,,,,,,,,,,,,,,,,,,,,,,0,0,0,4,1,,,,,,,,,,,,,,,,,,,,,,,,,,,,,,,,,,,,,,,,,,,,,,
907133,001,2022-11-21_01h54.56.089,Info_measure_main_exp,2022.2.2,Win32,60.27000964,,,,,,,,,,,,,,,,,,masks/mask_004.jpg,,,,,,,,,,,,,,,,,,,,,,,,,,,,,,,,,,,,,,,,,,,0,1,1,3,1,,,,,,,,,,,,,,,,,,,,,,,,,,,,,,,,,,,,,,,,,,,,,,
907133,001,2022-11-21_01h54.56.089,Info_measure_main_exp,2022.2.2,Win32,60.27000964,,,,,,,,,,,,,,,,,,masks/mask_003.jpg,,,,,,,,,,,,,,,,,,,,,,,,,,,,,,,,,,,,,,,,,,,0,2,2,2,1,,,,,,,,,,,,,,,,,,,,,,,,,,,,,,,,,,,,,,,,,,,,,,
907133,001,2022-11-21_01h54.56.089,Info_measure_main_exp,2022.2.2,Win32,60.27000964,,,,,,,,,,,,,,,,,,masks/mask_001.jpg,,,,,,,,,,,,,,,,,,,,,,,,,,,,,,,,,,,,,,,,,,,0,3,3,0,1,,,,,,,,,,,,,,,,,,,,,,,,,,,,,,,,,,,,,,,,,,,,,,
907133,001,2022-11-21_01h54.56.089,Info_measure_main_exp,2022.2.2,Win32,60.27000964,,,,,,,,,,,,,,,,,,masks/mask_002.jpg,,,,,,,,,,,,,,,,,,,,,,,,,,,,,,,,,,,,,,,,,,,0,4,4,1,1,,,,,,,,,,,,,,,,,,,,,,,,,,,,,,,,,,,,,,,,,,,,,,
907133,001,2022-11-21_01h54.56.089,Info_measure_main_exp,2022.2.2,Win32,60.27000964,,,,,,,,,,,,,,,,,,masks/mask_002.jpg,,,,,,,,,,,,,,,,,,,,,,,,,,,,,,,,,,,,,,,,,,,,,,,,0,0,0,1,1,,,,,,,,,,,,,,,,,,,,,,,,,,,,,,,,,,,,,,,,,
907133,001,2022-11-21_01h54.56.089,Info_measure_main_exp,2022.2.2,Win32,60.27000964,,,,,,,,,,,,,,,,,,masks/mask_003.jpg,,,,,,,,,,,,,,,,,,,,,,,,,,,,,,,,,,,,,,,,,,,,,,,,0,1,1,2,1,,,,,,,,,,,,,,,,,,,,,,,,,,,,,,,,,,,,,,,,,
907133,001,2022-11-21_01h54.56.089,Info_measure_main_exp,2022.2.2,Win32,60.27000964,,,,,,,,,,,,,,,,,,masks/mask_004.jpg,,,,,,,,,,,,,,,,,,,,,,,,,,,,,,,,,,,,,,,,,,,,,,,,0,2,2,3,1,,,,,,,,,,,,,,,,,,,,,,,,,,,,,,,,,,,,,,,,,
907133,001,2022-11-21_01h54.56.089,Info_measure_main_exp,2022.2.2,Win32,60.27000964,,,,,,,,,,,,,,,,,,masks/mask_005.jpg,,,,,,,,,,,,,,,,,,,,,,,,,,,,,,,,,,,,,,,,,,,,,,,,0,3,3,4,1,,,,,,,,,,,,,,,,,,,,,,,,,,,,,,,,,,,,,,,,,
907133,001,2022-11-21_01h54.56.089,Info_measure_main_exp,2022.2.2,Win32,60.27000964,,,,,,,,,,,,,,,,,,masks/mask_001.jpg,,,,,,,,,,,,,,,,,,,,,,,,,,,,,,,,,,,,,,,,,,,,,,,,0,4,4,0,1,,,,,,,,,,,,,,,,,,,,,,,,,,,,,,,,,,,,,,,,,
907133,001,2022-11-21_01h54.56.089,Info_measure_main_exp,2022.2.2,Win32,60.27000964,,,,,,,,,,,,,,,,,,,,,,,,,,,,,,6,0.9505,1,,,,,,,,,,,,0,131,5,5,2178,1986,absent_patch/patch0002178.jpg,absent_patch/patch0001986.jpg,,,,,,,,,,,,,,,,,,,,0.069010417,0.048177083,1,0,0,response1disk,17,0.009114583,0.006510417,1,0,0,center_square,0,16,16,46,1,,,,,,,,,,,,,,,,,,,,,,,
907133,001,2022-11-21_01h54.56.089,Info_measure_main_exp,2022.2.2,Win32,60.27000964,,,,,,,,,,,,,,,,,,masks/mask_004.jpg,,,,,,,,,,,,,,,,,,,,,,,,,,,,,,,,,,,,,,,,,,,0,0,0,3,1,,,,,,,,,,,,,,,,,,,,,,,,,,,,,,,,,,,,,,,,,,,,,,
907133,001,2022-11-21_01h54.56.089,Info_measure_main_exp,2022.2.2,Win32,60.27000964,,,,,,,,,,,,,,,,,,masks/mask_002.jpg,,,,,,,,,,,,,,,,,,,,,,,,,,,,,,,,,,,,,,,,,,,0,1,1,1,1,,,,,,,,,,,,,,,,,,,,,,,,,,,,,,,,,,,,,,,,,,,,,,
907133,001,2022-11-21_01h54.56.089,Info_measure_main_exp,2022.2.2,Win32,60.27000964,,,,,,,,,,,,,,,,,,masks/mask_003.jpg,,,,,,,,,,,,,,,,,,,,,,,,,,,,,,,,,,,,,,,,,,,0,2,2,2,1,,,,,,,,,,,,,,,,,,,,,,,,,,,,,,,,,,,,,,,,,,,,,,
907133,001,2022-11-21_01h54.56.089,Info_measure_main_exp,2022.2.2,Win32,60.27000964,,,,,,,,,,,,,,,,,,masks/mask_005.jpg,,,,,,,,,,,,,,,,,,,,,,,,,,,,,,,,,,,,,,,,,,,0,3,3,4,1,,,,,,,,,,,,,,,,,,,,,,,,,,,,,,,,,,,,,,,,,,,,,,
907133,001,2022-11-21_01h54.56.089,Info_measure_main_exp,2022.2.2,Win32,60.27000964,,,,,,,,,,,,,,,,,,masks/mask_001.jpg,,,,,,,,,,,,,,,,,,,,,,,,,,,,,,,,,,,,,,,,,,,0,4,4,0,1,,,,,,,,,,,,,,,,,,,,,,,,,,,,,,,,,,,,,,,,,,,,,,
907133,001,2022-11-21_01h54.56.089,Info_measure_main_exp,2022.2.2,Win32,60.27000964,,,,,,,,,,,,,,,,,,masks/mask_003.jpg,,,,,,,,,,,,,,,,,,,,,,,,,,,,,,,,,,,,,,,,,,,,,,,,0,0,0,2,1,,,,,,,,,,,,,,,,,,,,,,,,,,,,,,,,,,,,,,,,,
907133,001,2022-11-21_01h54.56.089,Info_measure_main_exp,2022.2.2,Win32,60.27000964,,,,,,,,,,,,,,,,,,masks/mask_002.jpg,,,,,,,,,,,,,,,,,,,,,,,,,,,,,,,,,,,,,,,,,,,,,,,,0,1,1,1,1,,,,,,,,,,,,,,,,,,,,,,,,,,,,,,,,,,,,,,,,,
907133,001,2022-11-21_01h54.56.089,Info_measure_main_exp,2022.2.2,Win32,60.27000964,,,,,,,,,,,,,,,,,,masks/mask_004.jpg,,,,,,,,,,,,,,,,,,,,,,,,,,,,,,,,,,,,,,,,,,,,,,,,0,2,2,3,1,,,,,,,,,,,,,,,,,,,,,,,,,,,,,,,,,,,,,,,,,
907133,001,2022-11-21_01h54.56.089,Info_measure_main_exp,2022.2.2,Win32,60.27000964,,,,,,,,,,,,,,,,,,masks/mask_005.jpg,,,,,,,,,,,,,,,,,,,,,,,,,,,,,,,,,,,,,,,,,,,,,,,,0,3,3,4,1,,,,,,,,,,,,,,,,,,,,,,,,,,,,,,,,,,,,,,,,,
907133,001,2022-11-21_01h54.56.089,Info_measure_main_exp,2022.2.2,Win32,60.27000964,,,,,,,,,,,,,,,,,,masks/mask_001.jpg,,,,,,,,,,,,,,,,,,,,,,,,,,,,,,,,,,,,,,,,,,,,,,,,0,4,4,0,1,,,,,,,,,,,,,,,,,,,,,,,,,,,,,,,,,,,,,,,,,
907133,001,2022-11-21_01h54.56.089,Info_measure_main_exp,2022.2.2,Win32,60.27000964,,,,,,,,,,,,,,,,,,,,,,,,,,,,,,6,1.2168,1,,,,,,,,,,,,1,131,5,5,2250,1,absent_patch/patch0002250.jpg,present_patch/cong_131_5_a.jpg,,,,,,,,,,,,,,,,,,,,0.06640625,0.033854167,1,0,0,response1disk,18,0.002604167,-0.002604167,1,0,0,center_square,0,17,17,5,1,,,,,,,,,,,,,,,,,,,,,,,
907133,001,2022-11-21_01h54.56.089,Info_measure_main_exp,2022.2.2,Win32,60.27000964,,,,,,,,,,,,,,,,,,masks/mask_003.jpg,,,,,,,,,,,,,,,,,,,,,,,,,,,,,,,,,,,,,,,,,,,0,0,0,2,1,,,,,,,,,,,,,,,,,,,,,,,,,,,,,,,,,,,,,,,,,,,,,,
907133,001,2022-11-21_01h54.56.089,Info_measure_main_exp,2022.2.2,Win32,60.27000964,,,,,,,,,,,,,,,,,,masks/mask_002.jpg,,,,,,,,,,,,,,,,,,,,,,,,,,,,,,,,,,,,,,,,,,,0,1,1,1,1,,,,,,,,,,,,,,,,,,,,,,,,,,,,,,,,,,,,,,,,,,,,,,
907133,001,2022-11-21_01h54.56.089,Info_measure_main_exp,2022.2.2,Win32,60.27000964,,,,,,,,,,,,,,,,,,masks/mask_004.jpg,,,,,,,,,,,,,,,,,,,,,,,,,,,,,,,,,,,,,,,,,,,0,2,2,3,1,,,,,,,,,,,,,,,,,,,,,,,,,,,,,,,,,,,,,,,,,,,,,,
907133,001,2022-11-21_01h54.56.089,Info_measure_main_exp,2022.2.2,Win32,60.27000964,,,,,,,,,,,,,,,,,,masks/mask_005.jpg,,,,,,,,,,,,,,,,,,,,,,,,,,,,,,,,,,,,,,,,,,,0,3,3,4,1,,,,,,,,,,,,,,,,,,,,,,,,,,,,,,,,,,,,,,,,,,,,,,
907133,001,2022-11-21_01h54.56.089,Info_measure_main_exp,2022.2.2,Win32,60.27000964,,,,,,,,,,,,,,,,,,masks/mask_001.jpg,,,,,,,,,,,,,,,,,,,,,,,,,,,,,,,,,,,,,,,,,,,0,4,4,0,1,,,,,,,,,,,,,,,,,,,,,,,,,,,,,,,,,,,,,,,,,,,,,,
907133,001,2022-11-21_01h54.56.089,Info_measure_main_exp,2022.2.2,Win32,60.27000964,,,,,,,,,,,,,,,,,,masks/mask_003.jpg,,,,,,,,,,,,,,,,,,,,,,,,,,,,,,,,,,,,,,,,,,,,,,,,0,0,0,2,1,,,,,,,,,,,,,,,,,,,,,,,,,,,,,,,,,,,,,,,,,
907133,001,2022-11-21_01h54.56.089,Info_measure_main_exp,2022.2.2,Win32,60.27000964,,,,,,,,,,,,,,,,,,masks/mask_005.jpg,,,,,,,,,,,,,,,,,,,,,,,,,,,,,,,,,,,,,,,,,,,,,,,,0,1,1,4,1,,,,,,,,,,,,,,,,,,,,,,,,,,,,,,,,,,,,,,,,,
907133,001,2022-11-21_01h54.56.089,Info_measure_main_exp,2022.2.2,Win32,60.27000964,,,,,,,,,,,,,,,,,,masks/mask_001.jpg,,,,,,,,,,,,,,,,,,,,,,,,,,,,,,,,,,,,,,,,,,,,,,,,0,2,2,0,1,,,,,,,,,,,,,,,,,,,,,,,,,,,,,,,,,,,,,,,,,
907133,001,2022-11-21_01h54.56.089,Info_measure_main_exp,2022.2.2,Win32,60.27000964,,,,,,,,,,,,,,,,,,masks/mask_004.jpg,,,,,,,,,,,,,,,,,,,,,,,,,,,,,,,,,,,,,,,,,,,,,,,,0,3,3,3,1,,,,,,,,,,,,,,,,,,,,,,,,,,,,,,,,,,,,,,,,,
907133,001,2022-11-21_01h54.56.089,Info_measure_main_exp,2022.2.2,Win32,60.27000964,,,,,,,,,,,,,,,,,,masks/mask_002.jpg,,,,,,,,,,,,,,,,,,,,,,,,,,,,,,,,,,,,,,,,,,,,,,,,0,4,4,1,1,,,,,,,,,,,,,,,,,,,,,,,,,,,,,,,,,,,,,,,,,
907133,001,2022-11-21_01h54.56.089,Info_measure_main_exp,2022.2.2,Win32,60.27000964,,,,,,,,,,,,,,,,,,,,,,,,,,,,,,6,1.0354,1,,,,,,,,,,,,0,131,5,5,2250,1950,absent_patch/patch0002250.jpg,absent_patch/patch0001950.jpg,,,,,,,,,,,,,,,,,,,,0.098958333,0.041666667,1,0,0,response1disk,19,-0.001302083,0.010416667,1,0,0,center_square,0,18,18,16,1,,,,,,,,,,,,,,,,,,,,,,,
907133,001,2022-11-21_01h54.56.089,Info_measure_main_exp,2022.2.2,Win32,60.27000964,,,,,,,,,,,,,,,,,,masks/mask_001.jpg,,,,,,,,,,,,,,,,,,,,,,,,,,,,,,,,,,,,,,,,,,,0,0,0,0,1,,,,,,,,,,,,,,,,,,,,,,,,,,,,,,,,,,,,,,,,,,,,,,
907133,001,2022-11-21_01h54.56.089,Info_measure_main_exp,2022.2.2,Win32,60.27000964,,,,,,,,,,,,,,,,,,masks/mask_002.jpg,,,,,,,,,,,,,,,,,,,,,,,,,,,,,,,,,,,,,,,,,,,0,1,1,1,1,,,,,,,,,,,,,,,,,,,,,,,,,,,,,,,,,,,,,,,,,,,,,,
907133,001,2022-11-21_01h54.56.089,Info_measure_main_exp,2022.2.2,Win32,60.27000964,,,,,,,,,,,,,,,,,,masks/mask_004.jpg,,,,,,,,,,,,,,,,,,,,,,,,,,,,,,,,,,,,,,,,,,,0,2,2,3,1,,,,,,,,,,,,,,,,,,,,,,,,,,,,,,,,,,,,,,,,,,,,,,
907133,001,2022-11-21_01h54.56.089,Info_measure_main_exp,2022.2.2,Win32,60.27000964,,,,,,,,,,,,,,,,,,masks/mask_005.jpg,,,,,,,,,,,,,,,,,,,,,,,,,,,,,,,,,,,,,,,,,,,0,3,3,4,1,,,,,,,,,,,,,,,,,,,,,,,,,,,,,,,,,,,,,,,,,,,,,,
907133,001,2022-11-21_01h54.56.089,Info_measure_main_exp,2022.2.2,Win32,60.27000964,,,,,,,,,,,,,,,,,,masks/mask_003.jpg,,,,,,,,,,,,,,,,,,,,,,,,,,,,,,,,,,,,,,,,,,,0,4,4,2,1,,,,,,,,,,,,,,,,,,,,,,,,,,,,,,,,,,,,,,,,,,,,,,
907133,001,2022-11-21_01h54.56.089,Info_measure_main_exp,2022.2.2,Win32,60.27000964,,,,,,,,,,,,,,,,,,masks/mask_003.jpg,,,,,,,,,,,,,,,,,,,,,,,,,,,,,,,,,,,,,,,,,,,,,,,,0,0,0,2,1,,,,,,,,,,,,,,,,,,,,,,,,,,,,,,,,,,,,,,,,,
907133,001,2022-11-21_01h54.56.089,Info_measure_main_exp,2022.2.2,Win32,60.27000964,,,,,,,,,,,,,,,,,,masks/mask_002.jpg,,,,,,,,,,,,,,,,,,,,,,,,,,,,,,,,,,,,,,,,,,,,,,,,0,1,1,1,1,,,,,,,,,,,,,,,,,,,,,,,,,,,,,,,,,,,,,,,,,
907133,001,2022-11-21_01h54.56.089,Info_measure_main_exp,2022.2.2,Win32,60.27000964,,,,,,,,,,,,,,,,,,masks/mask_005.jpg,,,,,,,,,,,,,,,,,,,,,,,,,,,,,,,,,,,,,,,,,,,,,,,,0,2,2,4,1,,,,,,,,,,,,,,,,,,,,,,,,,,,,,,,,,,,,,,,,,
907133,001,2022-11-21_01h54.56.089,Info_measure_main_exp,2022.2.2,Win32,60.27000964,,,,,,,,,,,,,,,,,,masks/mask_004.jpg,,,,,,,,,,,,,,,,,,,,,,,,,,,,,,,,,,,,,,,,,,,,,,,,0,3,3,3,1,,,,,,,,,,,,,,,,,,,,,,,,,,,,,,,,,,,,,,,,,
907133,001,2022-11-21_01h54.56.089,Info_measure_main_exp,2022.2.2,Win32,60.27000964,,,,,,,,,,,,,,,,,,masks/mask_001.jpg,,,,,,,,,,,,,,,,,,,,,,,,,,,,,,,,,,,,,,,,,,,,,,,,0,4,4,0,1,,,,,,,,,,,,,,,,,,,,,,,,,,,,,,,,,,,,,,,,,
907133,001,2022-11-21_01h54.56.089,Info_measure_main_exp,2022.2.2,Win32,60.27000964,,,,,,,,,,,,,,,,,,,,,,,,,,,,,,7,1.2156,1,,,,,,,,,,,,0,131,5,5,1950,2178,absent_patch/patch0001950.jpg,absent_patch/patch0002178.jpg,,,,,,,,,,,,,,,,,,,,0.0546875,0.0546875,1,0,0,response1disk,20,0.00390625,-0.00390625,1,0,0,center_square,0,19,19,61,1,,,,,,,,,,,,,,,,,,,,,,,
907133,001,2022-11-21_01h54.56.089,Info_measure_main_exp,2022.2.2,Win32,60.27000964,,,,,,,,,,,,,,,,,,masks/mask_004.jpg,,,,,,,,,,,,,,,,,,,,,,,,,,,,,,,,,,,,,,,,,,,0,0,0,3,1,,,,,,,,,,,,,,,,,,,,,,,,,,,,,,,,,,,,,,,,,,,,,,
907133,001,2022-11-21_01h54.56.089,Info_measure_main_exp,2022.2.2,Win32,60.27000964,,,,,,,,,,,,,,,,,,masks/mask_003.jpg,,,,,,,,,,,,,,,,,,,,,,,,,,,,,,,,,,,,,,,,,,,0,1,1,2,1,,,,,,,,,,,,,,,,,,,,,,,,,,,,,,,,,,,,,,,,,,,,,,
907133,001,2022-11-21_01h54.56.089,Info_measure_main_exp,2022.2.2,Win32,60.27000964,,,,,,,,,,,,,,,,,,masks/mask_002.jpg,,,,,,,,,,,,,,,,,,,,,,,,,,,,,,,,,,,,,,,,,,,0,2,2,1,1,,,,,,,,,,,,,,,,,,,,,,,,,,,,,,,,,,,,,,,,,,,,,,
907133,001,2022-11-21_01h54.56.089,Info_measure_main_exp,2022.2.2,Win32,60.27000964,,,,,,,,,,,,,,,,,,masks/mask_005.jpg,,,,,,,,,,,,,,,,,,,,,,,,,,,,,,,,,,,,,,,,,,,0,3,3,4,1,,,,,,,,,,,,,,,,,,,,,,,,,,,,,,,,,,,,,,,,,,,,,,
907133,001,2022-11-21_01h54.56.089,Info_measure_main_exp,2022.2.2,Win32,60.27000964,,,,,,,,,,,,,,,,,,masks/mask_001.jpg,,,,,,,,,,,,,,,,,,,,,,,,,,,,,,,,,,,,,,,,,,,0,4,4,0,1,,,,,,,,,,,,,,,,,,,,,,,,,,,,,,,,,,,,,,,,,,,,,,
907133,001,2022-11-21_01h54.56.089,Info_measure_main_exp,2022.2.2,Win32,60.27000964,,,,,,,,,,,,,,,,,,masks/mask_005.jpg,,,,,,,,,,,,,,,,,,,,,,,,,,,,,,,,,,,,,,,,,,,,,,,,0,0,0,4,1,,,,,,,,,,,,,,,,,,,,,,,,,,,,,,,,,,,,,,,,,
907133,001,2022-11-21_01h54.56.089,Info_measure_main_exp,2022.2.2,Win32,60.27000964,,,,,,,,,,,,,,,,,,masks/mask_002.jpg,,,,,,,,,,,,,,,,,,,,,,,,,,,,,,,,,,,,,,,,,,,,,,,,0,1,1,1,1,,,,,,,,,,,,,,,,,,,,,,,,,,,,,,,,,,,,,,,,,
907133,001,2022-11-21_01h54.56.089,Info_measure_main_exp,2022.2.2,Win32,60.27000964,,,,,,,,,,,,,,,,,,masks/mask_001.jpg,,,,,,,,,,,,,,,,,,,,,,,,,,,,,,,,,,,,,,,,,,,,,,,,0,2,2,0,1,,,,,,,,,,,,,,,,,,,,,,,,,,,,,,,,,,,,,,,,,
907133,001,2022-11-21_01h54.56.089,Info_measure_main_exp,2022.2.2,Win32,60.27000964,,,,,,,,,,,,,,,,,,masks/mask_004.jpg,,,,,,,,,,,,,,,,,,,,,,,,,,,,,,,,,,,,,,,,,,,,,,,,0,3,3,3,1,,,,,,,,,,,,,,,,,,,,,,,,,,,,,,,,,,,,,,,,,
907133,001,2022-11-21_01h54.56.089,Info_measure_main_exp,2022.2.2,Win32,60.27000964,,,,,,,,,,,,,,,,,,masks/mask_003.jpg,,,,,,,,,,,,,,,,,,,,,,,,,,,,,,,,,,,,,,,,,,,,,,,,0,4,4,2,1,,,,,,,,,,,,,,,,,,,,,,,,,,,,,,,,,,,,,,,,,
907133,001,2022-11-21_01h54.56.089,Info_measure_main_exp,2022.2.2,Win32,60.27000964,,,,,,,,,,,,,,,,,,,,,,,,,,,,,,6,1.2687,1,,,,,,,,,,,,0,131,5,5,1950,2082,absent_patch/patch0001950.jpg,absent_patch/patch0002082.jpg,,,,,,,,,,,,,,,,,,,,0.084635417,0.014322917,1,0,0,response1disk,21,0.0078125,0.001302083,1,0,0,center_square,0,20,20,12,1,,,,,,,,,,,,,,,,,,,,,,,
907133,001,2022-11-21_01h54.56.089,Info_measure_main_exp,2022.2.2,Win32,60.27000964,,,,,,,,,,,,,,,,,,masks/mask_001.jpg,,,,,,,,,,,,,,,,,,,,,,,,,,,,,,,,,,,,,,,,,,,0,0,0,0,1,,,,,,,,,,,,,,,,,,,,,,,,,,,,,,,,,,,,,,,,,,,,,,
907133,001,2022-11-21_01h54.56.089,Info_measure_main_exp,2022.2.2,Win32,60.27000964,,,,,,,,,,,,,,,,,,masks/mask_005.jpg,,,,,,,,,,,,,,,,,,,,,,,,,,,,,,,,,,,,,,,,,,,0,1,1,4,1,,,,,,,,,,,,,,,,,,,,,,,,,,,,,,,,,,,,,,,,,,,,,,
907133,001,2022-11-21_01h54.56.089,Info_measure_main_exp,2022.2.2,Win32,60.27000964,,,,,,,,,,,,,,,,,,masks/mask_004.jpg,,,,,,,,,,,,,,,,,,,,,,,,,,,,,,,,,,,,,,,,,,,0,2,2,3,1,,,,,,,,,,,,,,,,,,,,,,,,,,,,,,,,,,,,,,,,,,,,,,
907133,001,2022-11-21_01h54.56.089,Info_measure_main_exp,2022.2.2,Win32,60.27000964,,,,,,,,,,,,,,,,,,masks/mask_002.jpg,,,,,,,,,,,,,,,,,,,,,,,,,,,,,,,,,,,,,,,,,,,0,3,3,1,1,,,,,,,,,,,,,,,,,,,,,,,,,,,,,,,,,,,,,,,,,,,,,,
907133,001,2022-11-21_01h54.56.089,Info_measure_main_exp,2022.2.2,Win32,60.27000964,,,,,,,,,,,,,,,,,,masks/mask_003.jpg,,,,,,,,,,,,,,,,,,,,,,,,,,,,,,,,,,,,,,,,,,,0,4,4,2,1,,,,,,,,,,,,,,,,,,,,,,,,,,,,,,,,,,,,,,,,,,,,,,
907133,001,2022-11-21_01h54.56.089,Info_measure_main_exp,2022.2.2,Win32,60.27000964,,,,,,,,,,,,,,,,,,masks/mask_004.jpg,,,,,,,,,,,,,,,,,,,,,,,,,,,,,,,,,,,,,,,,,,,,,,,,0,0,0,3,1,,,,,,,,,,,,,,,,,,,,,,,,,,,,,,,,,,,,,,,,,
907133,001,2022-11-21_01h54.56.089,Info_measure_main_exp,2022.2.2,Win32,60.27000964,,,,,,,,,,,,,,,,,,masks/mask_001.jpg,,,,,,,,,,,,,,,,,,,,,,,,,,,,,,,,,,,,,,,,,,,,,,,,0,1,1,0,1,,,,,,,,,,,,,,,,,,,,,,,,,,,,,,,,,,,,,,,,,
907133,001,2022-11-21_01h54.56.089,Info_measure_main_exp,2022.2.2,Win32,60.27000964,,,,,,,,,,,,,,,,,,masks/mask_005.jpg,,,,,,,,,,,,,,,,,,,,,,,,,,,,,,,,,,,,,,,,,,,,,,,,0,2,2,4,1,,,,,,,,,,,,,,,,,,,,,,,,,,,,,,,,,,,,,,,,,
907133,001,2022-11-21_01h54.56.089,Info_measure_main_exp,2022.2.2,Win32,60.27000964,,,,,,,,,,,,,,,,,,masks/mask_003.jpg,,,,,,,,,,,,,,,,,,,,,,,,,,,,,,,,,,,,,,,,,,,,,,,,0,3,3,2,1,,,,,,,,,,,,,,,,,,,,,,,,,,,,,,,,,,,,,,,,,
907133,001,2022-11-21_01h54.56.089,Info_measure_main_exp,2022.2.2,Win32,60.27000964,,,,,,,,,,,,,,,,,,masks/mask_002.jpg,,,,,,,,,,,,,,,,,,,,,,,,,,,,,,,,,,,,,,,,,,,,,,,,0,4,4,1,1,,,,,,,,,,,,,,,,,,,,,,,,,,,,,,,,,,,,,,,,,
907133,001,2022-11-21_01h54.56.089,Info_measure_main_exp,2022.2.2,Win32,60.27000964,,,,,,,,,,,,,,,,,,,,,,,,,,,,,,6,3.7502,1,,,,,,,,,,,,0,131,5,5,2082,2238,absent_patch/patch0002082.jpg,absent_patch/patch0002238.jpg,,,,,,,,,,,,,,,,,,,,0.0546875,0.05078125,1,0,0,response1disk,22,0.0078125,0.010416667,1,0,0,center_square,0,21,21,22,1,,,,,,,,,,,,,,,,,,,,,,,
907133,001,2022-11-21_01h54.56.089,Info_measure_main_exp,2022.2.2,Win32,60.27000964,,,,,,,,,,,,,,,,,,masks/mask_001.jpg,,,,,,,,,,,,,,,,,,,,,,,,,,,,,,,,,,,,,,,,,,,0,0,0,0,1,,,,,,,,,,,,,,,,,,,,,,,,,,,,,,,,,,,,,,,,,,,,,,
907133,001,2022-11-21_01h54.56.089,Info_measure_main_exp,2022.2.2,Win32,60.27000964,,,,,,,,,,,,,,,,,,masks/mask_005.jpg,,,,,,,,,,,,,,,,,,,,,,,,,,,,,,,,,,,,,,,,,,,0,1,1,4,1,,,,,,,,,,,,,,,,,,,,,,,,,,,,,,,,,,,,,,,,,,,,,,
907133,001,2022-11-21_01h54.56.089,Info_measure_main_exp,2022.2.2,Win32,60.27000964,,,,,,,,,,,,,,,,,,masks/mask_002.jpg,,,,,,,,,,,,,,,,,,,,,,,,,,,,,,,,,,,,,,,,,,,0,2,2,1,1,,,,,,,,,,,,,,,,,,,,,,,,,,,,,,,,,,,,,,,,,,,,,,
907133,001,2022-11-21_01h54.56.089,Info_measure_main_exp,2022.2.2,Win32,60.27000964,,,,,,,,,,,,,,,,,,masks/mask_004.jpg,,,,,,,,,,,,,,,,,,,,,,,,,,,,,,,,,,,,,,,,,,,0,3,3,3,1,,,,,,,,,,,,,,,,,,,,,,,,,,,,,,,,,,,,,,,,,,,,,,
907133,001,2022-11-21_01h54.56.089,Info_measure_main_exp,2022.2.2,Win32,60.27000964,,,,,,,,,,,,,,,,,,masks/mask_003.jpg,,,,,,,,,,,,,,,,,,,,,,,,,,,,,,,,,,,,,,,,,,,0,4,4,2,1,,,,,,,,,,,,,,,,,,,,,,,,,,,,,,,,,,,,,,,,,,,,,,
907133,001,2022-11-21_01h54.56.089,Info_measure_main_exp,2022.2.2,Win32,60.27000964,,,,,,,,,,,,,,,,,,masks/mask_002.jpg,,,,,,,,,,,,,,,,,,,,,,,,,,,,,,,,,,,,,,,,,,,,,,,,0,0,0,1,1,,,,,,,,,,,,,,,,,,,,,,,,,,,,,,,,,,,,,,,,,
907133,001,2022-11-21_01h54.56.089,Info_measure_main_exp,2022.2.2,Win32,60.27000964,,,,,,,,,,,,,,,,,,masks/mask_003.jpg,,,,,,,,,,,,,,,,,,,,,,,,,,,,,,,,,,,,,,,,,,,,,,,,0,1,1,2,1,,,,,,,,,,,,,,,,,,,,,,,,,,,,,,,,,,,,,,,,,
907133,001,2022-11-21_01h54.56.089,Info_measure_main_exp,2022.2.2,Win32,60.27000964,,,,,,,,,,,,,,,,,,masks/mask_004.jpg,,,,,,,,,,,,,,,,,,,,,,,,,,,,,,,,,,,,,,,,,,,,,,,,0,2,2,3,1,,,,,,,,,,,,,,,,,,,,,,,,,,,,,,,,,,,,,,,,,
907133,001,2022-11-21_01h54.56.089,Info_measure_main_exp,2022.2.2,Win32,60.27000964,,,,,,,,,,,,,,,,,,masks/mask_005.jpg,,,,,,,,,,,,,,,,,,,,,,,,,,,,,,,,,,,,,,,,,,,,,,,,0,3,3,4,1,,,,,,,,,,,,,,,,,,,,,,,,,,,,,,,,,,,,,,,,,
907133,001,2022-11-21_01h54.56.089,Info_measure_main_exp,2022.2.2,Win32,60.27000964,,,,,,,,,,,,,,,,,,masks/mask_001.jpg,,,,,,,,,,,,,,,,,,,,,,,,,,,,,,,,,,,,,,,,,,,,,,,,0,4,4,0,1,,,,,,,,,,,,,,,,,,,,,,,,,,,,,,,,,,,,,,,,,
907133,001,2022-11-21_01h54.56.089,Info_measure_main_exp,2022.2.2,Win32,60.27000964,,,,,,,,,,,,,,,,,,,,,,,,,,,,,,7,4.7033,1,,,,,,,,,,,,1,131,5,5,2082,1,absent_patch/patch0002082.jpg,present_patch/cong_131_5_a.jpg,,,,,,,,,,,,,,,,,,,,0.0078125,0.010416667,1,0,0,response1disk,23,0.002604167,0.013020833,1,0,0,center_square,0,22,22,65,1,,,,,,,,,,,,,,,,,,,,,,,
907133,001,2022-11-21_01h54.56.089,Info_measure_main_exp,2022.2.2,Win32,60.27000964,,,,,,,,,,,,,,,,,,masks/mask_005.jpg,,,,,,,,,,,,,,,,,,,,,,,,,,,,,,,,,,,,,,,,,,,0,0,0,4,1,,,,,,,,,,,,,,,,,,,,,,,,,,,,,,,,,,,,,,,,,,,,,,
907133,001,2022-11-21_01h54.56.089,Info_measure_main_exp,2022.2.2,Win32,60.27000964,,,,,,,,,,,,,,,,,,masks/mask_004.jpg,,,,,,,,,,,,,,,,,,,,,,,,,,,,,,,,,,,,,,,,,,,0,1,1,3,1,,,,,,,,,,,,,,,,,,,,,,,,,,,,,,,,,,,,,,,,,,,,,,
907133,001,2022-11-21_01h54.56.089,Info_measure_main_exp,2022.2.2,Win32,60.27000964,,,,,,,,,,,,,,,,,,masks/mask_001.jpg,,,,,,,,,,,,,,,,,,,,,,,,,,,,,,,,,,,,,,,,,,,0,2,2,0,1,,,,,,,,,,,,,,,,,,,,,,,,,,,,,,,,,,,,,,,,,,,,,,
907133,001,2022-11-21_01h54.56.089,Info_measure_main_exp,2022.2.2,Win32,60.27000964,,,,,,,,,,,,,,,,,,masks/mask_003.jpg,,,,,,,,,,,,,,,,,,,,,,,,,,,,,,,,,,,,,,,,,,,0,3,3,2,1,,,,,,,,,,,,,,,,,,,,,,,,,,,,,,,,,,,,,,,,,,,,,,
907133,001,2022-11-21_01h54.56.089,Info_measure_main_exp,2022.2.2,Win32,60.27000964,,,,,,,,,,,,,,,,,,masks/mask_002.jpg,,,,,,,,,,,,,,,,,,,,,,,,,,,,,,,,,,,,,,,,,,,0,4,4,1,1,,,,,,,,,,,,,,,,,,,,,,,,,,,,,,,,,,,,,,,,,,,,,,
907133,001,2022-11-21_01h54.56.089,Info_measure_main_exp,2022.2.2,Win32,60.27000964,,,,,,,,,,,,,,,,,,masks/mask_001.jpg,,,,,,,,,,,,,,,,,,,,,,,,,,,,,,,,,,,,,,,,,,,,,,,,0,0,0,0,1,,,,,,,,,,,,,,,,,,,,,,,,,,,,,,,,,,,,,,,,,
907133,001,2022-11-21_01h54.56.089,Info_measure_main_exp,2022.2.2,Win32,60.27000964,,,,,,,,,,,,,,,,,,masks/mask_002.jpg,,,,,,,,,,,,,,,,,,,,,,,,,,,,,,,,,,,,,,,,,,,,,,,,0,1,1,1,1,,,,,,,,,,,,,,,,,,,,,,,,,,,,,,,,,,,,,,,,,
907133,001,2022-11-21_01h54.56.089,Info_measure_main_exp,2022.2.2,Win32,60.27000964,,,,,,,,,,,,,,,,,,masks/mask_005.jpg,,,,,,,,,,,,,,,,,,,,,,,,,,,,,,,,,,,,,,,,,,,,,,,,0,2,2,4,1,,,,,,,,,,,,,,,,,,,,,,,,,,,,,,,,,,,,,,,,,
907133,001,2022-11-21_01h54.56.089,Info_measure_main_exp,2022.2.2,Win32,60.27000964,,,,,,,,,,,,,,,,,,masks/mask_003.jpg,,,,,,,,,,,,,,,,,,,,,,,,,,,,,,,,,,,,,,,,,,,,,,,,0,3,3,2,1,,,,,,,,,,,,,,,,,,,,,,,,,,,,,,,,,,,,,,,,,
907133,001,2022-11-21_01h54.56.089,Info_measure_main_exp,2022.2.2,Win32,60.27000964,,,,,,,,,,,,,,,,,,masks/mask_004.jpg,,,,,,,,,,,,,,,,,,,,,,,,,,,,,,,,,,,,,,,,,,,,,,,,0,4,4,3,1,,,,,,,,,,,,,,,,,,,,,,,,,,,,,,,,,,,,,,,,,
907133,001,2022-11-21_01h54.56.089,Info_measure_main_exp,2022.2.2,Win32,60.27000964,,,,,,,,,,,,,,,,,,,,,,,,,,,,,,6,1.0178,1,,,,,,,,,,,,0,131,5,5,2274,2166,absent_patch/patch0002274.jpg,absent_patch/patch0002166.jpg,,,,,,,,,,,,,,,,,,,,0.130208333,0.044270833,1,0,0,response1disk,24,-0.009114583,-0.002604167,1,0,0,center_square,0,23,23,78,1,,,,,,,,,,,,,,,,,,,,,,,
907133,001,2022-11-21_01h54.56.089,Info_measure_main_exp,2022.2.2,Win32,60.27000964,,,,,,,,,,,,,,,,,,masks/mask_001.jpg,,,,,,,,,,,,,,,,,,,,,,,,,,,,,,,,,,,,,,,,,,,0,0,0,0,1,,,,,,,,,,,,,,,,,,,,,,,,,,,,,,,,,,,,,,,,,,,,,,
907133,001,2022-11-21_01h54.56.089,Info_measure_main_exp,2022.2.2,Win32,60.27000964,,,,,,,,,,,,,,,,,,masks/mask_003.jpg,,,,,,,,,,,,,,,,,,,,,,,,,,,,,,,,,,,,,,,,,,,0,1,1,2,1,,,,,,,,,,,,,,,,,,,,,,,,,,,,,,,,,,,,,,,,,,,,,,
907133,001,2022-11-21_01h54.56.089,Info_measure_main_exp,2022.2.2,Win32,60.27000964,,,,,,,,,,,,,,,,,,masks/mask_002.jpg,,,,,,,,,,,,,,,,,,,,,,,,,,,,,,,,,,,,,,,,,,,0,2,2,1,1,,,,,,,,,,,,,,,,,,,,,,,,,,,,,,,,,,,,,,,,,,,,,,
907133,001,2022-11-21_01h54.56.089,Info_measure_main_exp,2022.2.2,Win32,60.27000964,,,,,,,,,,,,,,,,,,masks/mask_005.jpg,,,,,,,,,,,,,,,,,,,,,,,,,,,,,,,,,,,,,,,,,,,0,3,3,4,1,,,,,,,,,,,,,,,,,,,,,,,,,,,,,,,,,,,,,,,,,,,,,,
907133,001,2022-11-21_01h54.56.089,Info_measure_main_exp,2022.2.2,Win32,60.27000964,,,,,,,,,,,,,,,,,,masks/mask_004.jpg,,,,,,,,,,,,,,,,,,,,,,,,,,,,,,,,,,,,,,,,,,,0,4,4,3,1,,,,,,,,,,,,,,,,,,,,,,,,,,,,,,,,,,,,,,,,,,,,,,
907133,001,2022-11-21_01h54.56.089,Info_measure_main_exp,2022.2.2,Win32,60.27000964,,,,,,,,,,,,,,,,,,masks/mask_002.jpg,,,,,,,,,,,,,,,,,,,,,,,,,,,,,,,,,,,,,,,,,,,,,,,,0,0,0,1,1,,,,,,,,,,,,,,,,,,,,,,,,,,,,,,,,,,,,,,,,,
907133,001,2022-11-21_01h54.56.089,Info_measure_main_exp,2022.2.2,Win32,60.27000964,,,,,,,,,,,,,,,,,,masks/mask_003.jpg,,,,,,,,,,,,,,,,,,,,,,,,,,,,,,,,,,,,,,,,,,,,,,,,0,1,1,2,1,,,,,,,,,,,,,,,,,,,,,,,,,,,,,,,,,,,,,,,,,
907133,001,2022-11-21_01h54.56.089,Info_measure_main_exp,2022.2.2,Win32,60.27000964,,,,,,,,,,,,,,,,,,masks/mask_001.jpg,,,,,,,,,,,,,,,,,,,,,,,,,,,,,,,,,,,,,,,,,,,,,,,,0,2,2,0,1,,,,,,,,,,,,,,,,,,,,,,,,,,,,,,,,,,,,,,,,,
907133,001,2022-11-21_01h54.56.089,Info_measure_main_exp,2022.2.2,Win32,60.27000964,,,,,,,,,,,,,,,,,,masks/mask_004.jpg,,,,,,,,,,,,,,,,,,,,,,,,,,,,,,,,,,,,,,,,,,,,,,,,0,3,3,3,1,,,,,,,,,,,,,,,,,,,,,,,,,,,,,,,,,,,,,,,,,
907133,001,2022-11-21_01h54.56.089,Info_measure_main_exp,2022.2.2,Win32,60.27000964,,,,,,,,,,,,,,,,,,masks/mask_005.jpg,,,,,,,,,,,,,,,,,,,,,,,,,,,,,,,,,,,,,,,,,,,,,,,,0,4,4,4,1,,,,,,,,,,,,,,,,,,,,,,,,,,,,,,,,,,,,,,,,,
907133,001,2022-11-21_01h54.56.089,Info_measure_main_exp,2022.2.2,Win32,60.27000964,,,,,,,,,,,,,,,,,,,,,,,,,,,,,,7,1.0183,1,,,,,,,,,,,,0,131,5,5,2298,2178,absent_patch/patch0002298.jpg,absent_patch/patch0002178.jpg,,,,,,,,,,,,,,,,,,,,0.040364583,0.046875,1,0,0,response1disk,25,-0.006510417,0.0078125,1,0,0,center_square,0,24,24,84,1,,,,,,,,,,,,,,,,,,,,,,,
907133,001,2022-11-21_01h54.56.089,Info_measure_main_exp,2022.2.2,Win32,60.27000964,,,,,,,,,,,,,,,,,,masks/mask_004.jpg,,,,,,,,,,,,,,,,,,,,,,,,,,,,,,,,,,,,,,,,,,,0,0,0,3,1,,,,,,,,,,,,,,,,,,,,,,,,,,,,,,,,,,,,,,,,,,,,,,
907133,001,2022-11-21_01h54.56.089,Info_measure_main_exp,2022.2.2,Win32,60.27000964,,,,,,,,,,,,,,,,,,masks/mask_005.jpg,,,,,,,,,,,,,,,,,,,,,,,,,,,,,,,,,,,,,,,,,,,0,1,1,4,1,,,,,,,,,,,,,,,,,,,,,,,,,,,,,,,,,,,,,,,,,,,,,,
907133,001,2022-11-21_01h54.56.089,Info_measure_main_exp,2022.2.2,Win32,60.27000964,,,,,,,,,,,,,,,,,,masks/mask_003.jpg,,,,,,,,,,,,,,,,,,,,,,,,,,,,,,,,,,,,,,,,,,,0,2,2,2,1,,,,,,,,,,,,,,,,,,,,,,,,,,,,,,,,,,,,,,,,,,,,,,
907133,001,2022-11-21_01h54.56.089,Info_measure_main_exp,2022.2.2,Win32,60.27000964,,,,,,,,,,,,,,,,,,masks/mask_002.jpg,,,,,,,,,,,,,,,,,,,,,,,,,,,,,,,,,,,,,,,,,,,0,3,3,1,1,,,,,,,,,,,,,,,,,,,,,,,,,,,,,,,,,,,,,,,,,,,,,,
907133,001,2022-11-21_01h54.56.089,Info_measure_main_exp,2022.2.2,Win32,60.27000964,,,,,,,,,,,,,,,,,,masks/mask_001.jpg,,,,,,,,,,,,,,,,,,,,,,,,,,,,,,,,,,,,,,,,,,,0,4,4,0,1,,,,,,,,,,,,,,,,,,,,,,,,,,,,,,,,,,,,,,,,,,,,,,
907133,001,2022-11-21_01h54.56.089,Info_measure_main_exp,2022.2.2,Win32,60.27000964,,,,,,,,,,,,,,,,,,masks/mask_002.jpg,,,,,,,,,,,,,,,,,,,,,,,,,,,,,,,,,,,,,,,,,,,,,,,,0,0,0,1,1,,,,,,,,,,,,,,,,,,,,,,,,,,,,,,,,,,,,,,,,,
907133,001,2022-11-21_01h54.56.089,Info_measure_main_exp,2022.2.2,Win32,60.27000964,,,,,,,,,,,,,,,,,,masks/mask_004.jpg,,,,,,,,,,,,,,,,,,,,,,,,,,,,,,,,,,,,,,,,,,,,,,,,0,1,1,3,1,,,,,,,,,,,,,,,,,,,,,,,,,,,,,,,,,,,,,,,,,
907133,001,2022-11-21_01h54.56.089,Info_measure_main_exp,2022.2.2,Win32,60.27000964,,,,,,,,,,,,,,,,,,masks/mask_005.jpg,,,,,,,,,,,,,,,,,,,,,,,,,,,,,,,,,,,,,,,,,,,,,,,,0,2,2,4,1,,,,,,,,,,,,,,,,,,,,,,,,,,,,,,,,,,,,,,,,,
907133,001,2022-11-21_01h54.56.089,Info_measure_main_exp,2022.2.2,Win32,60.27000964,,,,,,,,,,,,,,,,,,masks/mask_003.jpg,,,,,,,,,,,,,,,,,,,,,,,,,,,,,,,,,,,,,,,,,,,,,,,,0,3,3,2,1,,,,,,,,,,,,,,,,,,,,,,,,,,,,,,,,,,,,,,,,,
907133,001,2022-11-21_01h54.56.089,Info_measure_main_exp,2022.2.2,Win32,60.27000964,,,,,,,,,,,,,,,,,,masks/mask_001.jpg,,,,,,,,,,,,,,,,,,,,,,,,,,,,,,,,,,,,,,,,,,,,,,,,0,4,4,0,1,,,,,,,,,,,,,,,,,,,,,,,,,,,,,,,,,,,,,,,,,
907133,001,2022-11-21_01h54.56.089,Info_measure_main_exp,2022.2.2,Win32,60.27000964,,,,,,,,,,,,,,,,,,,,,,,,,,,,,,4,2.2393,1,,,,,,,,,,,,0,131,5,5,2154,1950,absent_patch/patch0002154.jpg,absent_patch/patch0001950.jpg,,,,,,,,,,,,,,,,,,,,0.010416667,-0.0390625,1,0,0,response3disk,26,0.006510417,-0.005208333,1,0,0,center_square,0,25,25,96,1,,,,,,,,,,,,,,,,,,,,,,,
907133,001,2022-11-21_01h54.56.089,Info_measure_main_exp,2022.2.2,Win32,60.27000964,,,,,,,,,,,,,,,,,,masks/mask_001.jpg,,,,,,,,,,,,,,,,,,,,,,,,,,,,,,,,,,,,,,,,,,,0,0,0,0,1,,,,,,,,,,,,,,,,,,,,,,,,,,,,,,,,,,,,,,,,,,,,,,
907133,001,2022-11-21_01h54.56.089,Info_measure_main_exp,2022.2.2,Win32,60.27000964,,,,,,,,,,,,,,,,,,masks/mask_003.jpg,,,,,,,,,,,,,,,,,,,,,,,,,,,,,,,,,,,,,,,,,,,0,1,1,2,1,,,,,,,,,,,,,,,,,,,,,,,,,,,,,,,,,,,,,,,,,,,,,,
907133,001,2022-11-21_01h54.56.089,Info_measure_main_exp,2022.2.2,Win32,60.27000964,,,,,,,,,,,,,,,,,,masks/mask_004.jpg,,,,,,,,,,,,,,,,,,,,,,,,,,,,,,,,,,,,,,,,,,,0,2,2,3,1,,,,,,,,,,,,,,,,,,,,,,,,,,,,,,,,,,,,,,,,,,,,,,
907133,001,2022-11-21_01h54.56.089,Info_measure_main_exp,2022.2.2,Win32,60.27000964,,,,,,,,,,,,,,,,,,masks/mask_002.jpg,,,,,,,,,,,,,,,,,,,,,,,,,,,,,,,,,,,,,,,,,,,0,3,3,1,1,,,,,,,,,,,,,,,,,,,,,,,,,,,,,,,,,,,,,,,,,,,,,,
907133,001,2022-11-21_01h54.56.089,Info_measure_main_exp,2022.2.2,Win32,60.27000964,,,,,,,,,,,,,,,,,,masks/mask_005.jpg,,,,,,,,,,,,,,,,,,,,,,,,,,,,,,,,,,,,,,,,,,,0,4,4,4,1,,,,,,,,,,,,,,,,,,,,,,,,,,,,,,,,,,,,,,,,,,,,,,
907133,001,2022-11-21_01h54.56.089,Info_measure_main_exp,2022.2.2,Win32,60.27000964,,,,,,,,,,,,,,,,,,masks/mask_004.jpg,,,,,,,,,,,,,,,,,,,,,,,,,,,,,,,,,,,,,,,,,,,,,,,,0,0,0,3,1,,,,,,,,,,,,,,,,,,,,,,,,,,,,,,,,,,,,,,,,,
907133,001,2022-11-21_01h54.56.089,Info_measure_main_exp,2022.2.2,Win32,60.27000964,,,,,,,,,,,,,,,,,,masks/mask_005.jpg,,,,,,,,,,,,,,,,,,,,,,,,,,,,,,,,,,,,,,,,,,,,,,,,0,1,1,4,1,,,,,,,,,,,,,,,,,,,,,,,,,,,,,,,,,,,,,,,,,
907133,001,2022-11-21_01h54.56.089,Info_measure_main_exp,2022.2.2,Win32,60.27000964,,,,,,,,,,,,,,,,,,masks/mask_002.jpg,,,,,,,,,,,,,,,,,,,,,,,,,,,,,,,,,,,,,,,,,,,,,,,,0,2,2,1,1,,,,,,,,,,,,,,,,,,,,,,,,,,,,,,,,,,,,,,,,,
907133,001,2022-11-21_01h54.56.089,Info_measure_main_exp,2022.2.2,Win32,60.27000964,,,,,,,,,,,,,,,,,,masks/mask_003.jpg,,,,,,,,,,,,,,,,,,,,,,,,,,,,,,,,,,,,,,,,,,,,,,,,0,3,3,2,1,,,,,,,,,,,,,,,,,,,,,,,,,,,,,,,,,,,,,,,,,
907133,001,2022-11-21_01h54.56.089,Info_measure_main_exp,2022.2.2,Win32,60.27000964,,,,,,,,,,,,,,,,,,masks/mask_001.jpg,,,,,,,,,,,,,,,,,,,,,,,,,,,,,,,,,,,,,,,,,,,,,,,,0,4,4,0,1,,,,,,,,,,,,,,,,,,,,,,,,,,,,,,,,,,,,,,,,,
907133,001,2022-11-21_01h54.56.089,Info_measure_main_exp,2022.2.2,Win32,60.27000964,,,,,,,,,,,,,,,,,,,,,,,,,,,,,,6,1.0003,1,,,,,,,,,,,,0,131,5,5,2142,2238,absent_patch/patch0002142.jpg,absent_patch/patch0002238.jpg,,,,,,,,,,,,,,,,,,,,0.032552083,0.00390625,1,0,0,response1disk,27,-0.005208333,0.013020833,1,0,0,center_square,0,26,26,101,1,,,,,,,,,,,,,,,,,,,,,,,
907133,001,2022-11-21_01h54.56.089,Info_measure_main_exp,2022.2.2,Win32,60.27000964,,,,,,,,,,,,,,,,,,masks/mask_003.jpg,,,,,,,,,,,,,,,,,,,,,,,,,,,,,,,,,,,,,,,,,,,0,0,0,2,1,,,,,,,,,,,,,,,,,,,,,,,,,,,,,,,,,,,,,,,,,,,,,,
907133,001,2022-11-21_01h54.56.089,Info_measure_main_exp,2022.2.2,Win32,60.27000964,,,,,,,,,,,,,,,,,,masks/mask_002.jpg,,,,,,,,,,,,,,,,,,,,,,,,,,,,,,,,,,,,,,,,,,,0,1,1,1,1,,,,,,,,,,,,,,,,,,,,,,,,,,,,,,,,,,,,,,,,,,,,,,
907133,001,2022-11-21_01h54.56.089,Info_measure_main_exp,2022.2.2,Win32,60.27000964,,,,,,,,,,,,,,,,,,masks/mask_001.jpg,,,,,,,,,,,,,,,,,,,,,,,,,,,,,,,,,,,,,,,,,,,0,2,2,0,1,,,,,,,,,,,,,,,,,,,,,,,,,,,,,,,,,,,,,,,,,,,,,,
907133,001,2022-11-21_01h54.56.089,Info_measure_main_exp,2022.2.2,Win32,60.27000964,,,,,,,,,,,,,,,,,,masks/mask_005.jpg,,,,,,,,,,,,,,,,,,,,,,,,,,,,,,,,,,,,,,,,,,,0,3,3,4,1,,,,,,,,,,,,,,,,,,,,,,,,,,,,,,,,,,,,,,,,,,,,,,
907133,001,2022-11-21_01h54.56.089,Info_measure_main_exp,2022.2.2,Win32,60.27000964,,,,,,,,,,,,,,,,,,masks/mask_004.jpg,,,,,,,,,,,,,,,,,,,,,,,,,,,,,,,,,,,,,,,,,,,0,4,4,3,1,,,,,,,,,,,,,,,,,,,,,,,,,,,,,,,,,,,,,,,,,,,,,,
907133,001,2022-11-21_01h54.56.089,Info_measure_main_exp,2022.2.2,Win32,60.27000964,,,,,,,,,,,,,,,,,,masks/mask_004.jpg,,,,,,,,,,,,,,,,,,,,,,,,,,,,,,,,,,,,,,,,,,,,,,,,0,0,0,3,1,,,,,,,,,,,,,,,,,,,,,,,,,,,,,,,,,,,,,,,,,
907133,001,2022-11-21_01h54.56.089,Info_measure_main_exp,2022.2.2,Win32,60.27000964,,,,,,,,,,,,,,,,,,masks/mask_002.jpg,,,,,,,,,,,,,,,,,,,,,,,,,,,,,,,,,,,,,,,,,,,,,,,,0,1,1,1,1,,,,,,,,,,,,,,,,,,,,,,,,,,,,,,,,,,,,,,,,,
907133,001,2022-11-21_01h54.56.089,Info_measure_main_exp,2022.2.2,Win32,60.27000964,,,,,,,,,,,,,,,,,,masks/mask_001.jpg,,,,,,,,,,,,,,,,,,,,,,,,,,,,,,,,,,,,,,,,,,,,,,,,0,2,2,0,1,,,,,,,,,,,,,,,,,,,,,,,,,,,,,,,,,,,,,,,,,
907133,001,2022-11-21_01h54.56.089,Info_measure_main_exp,2022.2.2,Win32,60.27000964,,,,,,,,,,,,,,,,,,masks/mask_005.jpg,,,,,,,,,,,,,,,,,,,,,,,,,,,,,,,,,,,,,,,,,,,,,,,,0,3,3,4,1,,,,,,,,,,,,,,,,,,,,,,,,,,,,,,,,,,,,,,,,,
907133,001,2022-11-21_01h54.56.089,Info_measure_main_exp,2022.2.2,Win32,60.27000964,,,,,,,,,,,,,,,,,,masks/mask_003.jpg,,,,,,,,,,,,,,,,,,,,,,,,,,,,,,,,,,,,,,,,,,,,,,,,0,4,4,2,1,,,,,,,,,,,,,,,,,,,,,,,,,,,,,,,,,,,,,,,,,
907133,001,2022-11-21_01h54.56.089,Info_measure_main_exp,2022.2.2,Win32,60.27000964,,,,,,,,,,,,,,,,,,,,,,,,,,,,,,1,0.8495,1,,,,,,,,,,,,0,131,5,5,2166,2166,absent_patch/patch0002166.jpg,absent_patch/patch0002166.jpg,,,,,,,,,,,,,,,,,,,,-0.071614583,0.046875,1,0,0,response7disk,28,0.001302083,-0.006510417,1,0,0,center_square,0,27,27,42,1,,,,,,,,,,,,,,,,,,,,,,,
907133,001,2022-11-21_01h54.56.089,Info_measure_main_exp,2022.2.2,Win32,60.27000964,,,,,,,,,,,,,,,,,,masks/mask_004.jpg,,,,,,,,,,,,,,,,,,,,,,,,,,,,,,,,,,,,,,,,,,,0,0,0,3,1,,,,,,,,,,,,,,,,,,,,,,,,,,,,,,,,,,,,,,,,,,,,,,
907133,001,2022-11-21_01h54.56.089,Info_measure_main_exp,2022.2.2,Win32,60.27000964,,,,,,,,,,,,,,,,,,masks/mask_005.jpg,,,,,,,,,,,,,,,,,,,,,,,,,,,,,,,,,,,,,,,,,,,0,1,1,4,1,,,,,,,,,,,,,,,,,,,,,,,,,,,,,,,,,,,,,,,,,,,,,,
907133,001,2022-11-21_01h54.56.089,Info_measure_main_exp,2022.2.2,Win32,60.27000964,,,,,,,,,,,,,,,,,,masks/mask_003.jpg,,,,,,,,,,,,,,,,,,,,,,,,,,,,,,,,,,,,,,,,,,,0,2,2,2,1,,,,,,,,,,,,,,,,,,,,,,,,,,,,,,,,,,,,,,,,,,,,,,
907133,001,2022-11-21_01h54.56.089,Info_measure_main_exp,2022.2.2,Win32,60.27000964,,,,,,,,,,,,,,,,,,masks/mask_002.jpg,,,,,,,,,,,,,,,,,,,,,,,,,,,,,,,,,,,,,,,,,,,0,3,3,1,1,,,,,,,,,,,,,,,,,,,,,,,,,,,,,,,,,,,,,,,,,,,,,,
907133,001,2022-11-21_01h54.56.089,Info_measure_main_exp,2022.2.2,Win32,60.27000964,,,,,,,,,,,,,,,,,,masks/mask_001.jpg,,,,,,,,,,,,,,,,,,,,,,,,,,,,,,,,,,,,,,,,,,,0,4,4,0,1,,,,,,,,,,,,,,,,,,,,,,,,,,,,,,,,,,,,,,,,,,,,,,
907133,001,2022-11-21_01h54.56.089,Info_measure_main_exp,2022.2.2,Win32,60.27000964,,,,,,,,,,,,,,,,,,masks/mask_004.jpg,,,,,,,,,,,,,,,,,,,,,,,,,,,,,,,,,,,,,,,,,,,,,,,,0,0,0,3,1,,,,,,,,,,,,,,,,,,,,,,,,,,,,,,,,,,,,,,,,,
907133,001,2022-11-21_01h54.56.089,Info_measure_main_exp,2022.2.2,Win32,60.27000964,,,,,,,,,,,,,,,,,,masks/mask_003.jpg,,,,,,,,,,,,,,,,,,,,,,,,,,,,,,,,,,,,,,,,,,,,,,,,0,1,1,2,1,,,,,,,,,,,,,,,,,,,,,,,,,,,,,,,,,,,,,,,,,
907133,001,2022-11-21_01h54.56.089,Info_measure_main_exp,2022.2.2,Win32,60.27000964,,,,,,,,,,,,,,,,,,masks/mask_005.jpg,,,,,,,,,,,,,,,,,,,,,,,,,,,,,,,,,,,,,,,,,,,,,,,,0,2,2,4,1,,,,,,,,,,,,,,,,,,,,,,,,,,,,,,,,,,,,,,,,,
907133,001,2022-11-21_01h54.56.089,Info_measure_main_exp,2022.2.2,Win32,60.27000964,,,,,,,,,,,,,,,,,,masks/mask_002.jpg,,,,,,,,,,,,,,,,,,,,,,,,,,,,,,,,,,,,,,,,,,,,,,,,0,3,3,1,1,,,,,,,,,,,,,,,,,,,,,,,,,,,,,,,,,,,,,,,,,
907133,001,2022-11-21_01h54.56.089,Info_measure_main_exp,2022.2.2,Win32,60.27000964,,,,,,,,,,,,,,,,,,masks/mask_001.jpg,,,,,,,,,,,,,,,,,,,,,,,,,,,,,,,,,,,,,,,,,,,,,,,,0,4,4,0,1,,,,,,,,,,,,,,,,,,,,,,,,,,,,,,,,,,,,,,,,,
907133,001,2022-11-21_01h54.56.089,Info_measure_main_exp,2022.2.2,Win32,60.27000964,,,,,,,,,,,,,,,,,,,,,,,,,,,,,,7,0.7023,1,,,,,,,,,,,,0,131,5,5,2250,2178,absent_patch/patch0002250.jpg,absent_patch/patch0002178.jpg,,,,,,,,,,,,,,,,,,,,0.0078125,0.044270833,1,0,0,response1disk,29,0.0078125,0.006510417,1,0,0,center_square,0,28,28,48,1,,,,,,,,,,,,,,,,,,,,,,,
907133,001,2022-11-21_01h54.56.089,Info_measure_main_exp,2022.2.2,Win32,60.27000964,,,,,,,,,,,,,,,,,,masks/mask_002.jpg,,,,,,,,,,,,,,,,,,,,,,,,,,,,,,,,,,,,,,,,,,,0,0,0,1,1,,,,,,,,,,,,,,,,,,,,,,,,,,,,,,,,,,,,,,,,,,,,,,
907133,001,2022-11-21_01h54.56.089,Info_measure_main_exp,2022.2.2,Win32,60.27000964,,,,,,,,,,,,,,,,,,masks/mask_004.jpg,,,,,,,,,,,,,,,,,,,,,,,,,,,,,,,,,,,,,,,,,,,0,1,1,3,1,,,,,,,,,,,,,,,,,,,,,,,,,,,,,,,,,,,,,,,,,,,,,,
907133,001,2022-11-21_01h54.56.089,Info_measure_main_exp,2022.2.2,Win32,60.27000964,,,,,,,,,,,,,,,,,,masks/mask_003.jpg,,,,,,,,,,,,,,,,,,,,,,,,,,,,,,,,,,,,,,,,,,,0,2,2,2,1,,,,,,,,,,,,,,,,,,,,,,,,,,,,,,,,,,,,,,,,,,,,,,
907133,001,2022-11-21_01h54.56.089,Info_measure_main_exp,2022.2.2,Win32,60.27000964,,,,,,,,,,,,,,,,,,masks/mask_001.jpg,,,,,,,,,,,,,,,,,,,,,,,,,,,,,,,,,,,,,,,,,,,0,3,3,0,1,,,,,,,,,,,,,,,,,,,,,,,,,,,,,,,,,,,,,,,,,,,,,,
907133,001,2022-11-21_01h54.56.089,Info_measure_main_exp,2022.2.2,Win32,60.27000964,,,,,,,,,,,,,,,,,,masks/mask_005.jpg,,,,,,,,,,,,,,,,,,,,,,,,,,,,,,,,,,,,,,,,,,,0,4,4,4,1,,,,,,,,,,,,,,,,,,,,,,,,,,,,,,,,,,,,,,,,,,,,,,
907133,001,2022-11-21_01h54.56.089,Info_measure_main_exp,2022.2.2,Win32,60.27000964,,,,,,,,,,,,,,,,,,masks/mask_002.jpg,,,,,,,,,,,,,,,,,,,,,,,,,,,,,,,,,,,,,,,,,,,,,,,,0,0,0,1,1,,,,,,,,,,,,,,,,,,,,,,,,,,,,,,,,,,,,,,,,,
907133,001,2022-11-21_01h54.56.089,Info_measure_main_exp,2022.2.2,Win32,60.27000964,,,,,,,,,,,,,,,,,,masks/mask_004.jpg,,,,,,,,,,,,,,,,,,,,,,,,,,,,,,,,,,,,,,,,,,,,,,,,0,1,1,3,1,,,,,,,,,,,,,,,,,,,,,,,,,,,,,,,,,,,,,,,,,
907133,001,2022-11-21_01h54.56.089,Info_measure_main_exp,2022.2.2,Win32,60.27000964,,,,,,,,,,,,,,,,,,masks/mask_005.jpg,,,,,,,,,,,,,,,,,,,,,,,,,,,,,,,,,,,,,,,,,,,,,,,,0,2,2,4,1,,,,,,,,,,,,,,,,,,,,,,,,,,,,,,,,,,,,,,,,,
907133,001,2022-11-21_01h54.56.089,Info_measure_main_exp,2022.2.2,Win32,60.27000964,,,,,,,,,,,,,,,,,,masks/mask_001.jpg,,,,,,,,,,,,,,,,,,,,,,,,,,,,,,,,,,,,,,,,,,,,,,,,0,3,3,0,1,,,,,,,,,,,,,,,,,,,,,,,,,,,,,,,,,,,,,,,,,
907133,001,2022-11-21_01h54.56.089,Info_measure_main_exp,2022.2.2,Win32,60.27000964,,,,,,,,,,,,,,,,,,masks/mask_003.jpg,,,,,,,,,,,,,,,,,,,,,,,,,,,,,,,,,,,,,,,,,,,,,,,,0,4,4,2,1,,,,,,,,,,,,,,,,,,,,,,,,,,,,,,,,,,,,,,,,,
907133,001,2022-11-21_01h54.56.089,Info_measure_main_exp,2022.2.2,Win32,60.27000964,,,,,,,,,,,,,,,,,,,,,,,,,,,,,,3,4.5076,1,,,,,,,,,,,,0,131,5,5,1950,1950,absent_patch/patch0001950.jpg,absent_patch/patch0001950.jpg,,,,,,,,,,,,,,,,,,,,-0.053385417,-0.1015625,1,0,0,response5disk,30,0.014322917,0.009114583,1,0,0,center_square,0,29,29,92,1,,,,,,,,,,,,,,,,,,,,,,,
907133,001,2022-11-21_01h54.56.089,Info_measure_main_exp,2022.2.2,Win32,60.27000964,,,,,,,,,,,,,,,,,,masks/mask_002.jpg,,,,,,,,,,,,,,,,,,,,,,,,,,,,,,,,,,,,,,,,,,,0,0,0,1,1,,,,,,,,,,,,,,,,,,,,,,,,,,,,,,,,,,,,,,,,,,,,,,
907133,001,2022-11-21_01h54.56.089,Info_measure_main_exp,2022.2.2,Win32,60.27000964,,,,,,,,,,,,,,,,,,masks/mask_005.jpg,,,,,,,,,,,,,,,,,,,,,,,,,,,,,,,,,,,,,,,,,,,0,1,1,4,1,,,,,,,,,,,,,,,,,,,,,,,,,,,,,,,,,,,,,,,,,,,,,,
907133,001,2022-11-21_01h54.56.089,Info_measure_main_exp,2022.2.2,Win32,60.27000964,,,,,,,,,,,,,,,,,,masks/mask_001.jpg,,,,,,,,,,,,,,,,,,,,,,,,,,,,,,,,,,,,,,,,,,,0,2,2,0,1,,,,,,,,,,,,,,,,,,,,,,,,,,,,,,,,,,,,,,,,,,,,,,
907133,001,2022-11-21_01h54.56.089,Info_measure_main_exp,2022.2.2,Win32,60.27000964,,,,,,,,,,,,,,,,,,masks/mask_004.jpg,,,,,,,,,,,,,,,,,,,,,,,,,,,,,,,,,,,,,,,,,,,0,3,3,3,1,,,,,,,,,,,,,,,,,,,,,,,,,,,,,,,,,,,,,,,,,,,,,,
907133,001,2022-11-21_01h54.56.089,Info_measure_main_exp,2022.2.2,Win32,60.27000964,,,,,,,,,,,,,,,,,,masks/mask_003.jpg,,,,,,,,,,,,,,,,,,,,,,,,,,,,,,,,,,,,,,,,,,,0,4,4,2,1,,,,,,,,,,,,,,,,,,,,,,,,,,,,,,,,,,,,,,,,,,,,,,
907133,001,2022-11-21_01h54.56.089,Info_measure_main_exp,2022.2.2,Win32,60.27000964,,,,,,,,,,,,,,,,,,masks/mask_001.jpg,,,,,,,,,,,,,,,,,,,,,,,,,,,,,,,,,,,,,,,,,,,,,,,,0,0,0,0,1,,,,,,,,,,,,,,,,,,,,,,,,,,,,,,,,,,,,,,,,,
907133,001,2022-11-21_01h54.56.089,Info_measure_main_exp,2022.2.2,Win32,60.27000964,,,,,,,,,,,,,,,,,,masks/mask_003.jpg,,,,,,,,,,,,,,,,,,,,,,,,,,,,,,,,,,,,,,,,,,,,,,,,0,1,1,2,1,,,,,,,,,,,,,,,,,,,,,,,,,,,,,,,,,,,,,,,,,
907133,001,2022-11-21_01h54.56.089,Info_measure_main_exp,2022.2.2,Win32,60.27000964,,,,,,,,,,,,,,,,,,masks/mask_004.jpg,,,,,,,,,,,,,,,,,,,,,,,,,,,,,,,,,,,,,,,,,,,,,,,,0,2,2,3,1,,,,,,,,,,,,,,,,,,,,,,,,,,,,,,,,,,,,,,,,,
907133,001,2022-11-21_01h54.56.089,Info_measure_main_exp,2022.2.2,Win32,60.27000964,,,,,,,,,,,,,,,,,,masks/mask_002.jpg,,,,,,,,,,,,,,,,,,,,,,,,,,,,,,,,,,,,,,,,,,,,,,,,0,3,3,1,1,,,,,,,,,,,,,,,,,,,,,,,,,,,,,,,,,,,,,,,,,
907133,001,2022-11-21_01h54.56.089,Info_measure_main_exp,2022.2.2,Win32,60.27000964,,,,,,,,,,,,,,,,,,masks/mask_005.jpg,,,,,,,,,,,,,,,,,,,,,,,,,,,,,,,,,,,,,,,,,,,,,,,,0,4,4,4,1,,,,,,,,,,,,,,,,,,,,,,,,,,,,,,,,,,,,,,,,,
907133,001,2022-11-21_01h54.56.089,Info_measure_main_exp,2022.2.2,Win32,60.27000964,,,,,,,,,,,,,,,,,,,,,,,,,,,,,,6,1.0002,1,,,,,,,,,,,,0,131,5,5,2274,2154,absent_patch/patch0002274.jpg,absent_patch/patch0002154.jpg,,,,,,,,,,,,,,,,,,,,0.092447917,0.079427083,1,0,0,response1disk,31,0.00390625,0,1,0,0,center_square,0,30,30,23,1,,,,,,,,,,,,,,,,,,,,,,,
907133,001,2022-11-21_01h54.56.089,Info_measure_main_exp,2022.2.2,Win32,60.27000964,,,,,,,,,,,,,,,,,,masks/mask_003.jpg,,,,,,,,,,,,,,,,,,,,,,,,,,,,,,,,,,,,,,,,,,,0,0,0,2,1,,,,,,,,,,,,,,,,,,,,,,,,,,,,,,,,,,,,,,,,,,,,,,
907133,001,2022-11-21_01h54.56.089,Info_measure_main_exp,2022.2.2,Win32,60.27000964,,,,,,,,,,,,,,,,,,masks/mask_002.jpg,,,,,,,,,,,,,,,,,,,,,,,,,,,,,,,,,,,,,,,,,,,0,1,1,1,1,,,,,,,,,,,,,,,,,,,,,,,,,,,,,,,,,,,,,,,,,,,,,,
907133,001,2022-11-21_01h54.56.089,Info_measure_main_exp,2022.2.2,Win32,60.27000964,,,,,,,,,,,,,,,,,,masks/mask_001.jpg,,,,,,,,,,,,,,,,,,,,,,,,,,,,,,,,,,,,,,,,,,,0,2,2,0,1,,,,,,,,,,,,,,,,,,,,,,,,,,,,,,,,,,,,,,,,,,,,,,
907133,001,2022-11-21_01h54.56.089,Info_measure_main_exp,2022.2.2,Win32,60.27000964,,,,,,,,,,,,,,,,,,masks/mask_005.jpg,,,,,,,,,,,,,,,,,,,,,,,,,,,,,,,,,,,,,,,,,,,0,3,3,4,1,,,,,,,,,,,,,,,,,,,,,,,,,,,,,,,,,,,,,,,,,,,,,,
907133,001,2022-11-21_01h54.56.089,Info_measure_main_exp,2022.2.2,Win32,60.27000964,,,,,,,,,,,,,,,,,,masks/mask_004.jpg,,,,,,,,,,,,,,,,,,,,,,,,,,,,,,,,,,,,,,,,,,,0,4,4,3,1,,,,,,,,,,,,,,,,,,,,,,,,,,,,,,,,,,,,,,,,,,,,,,
907133,001,2022-11-21_01h54.56.089,Info_measure_main_exp,2022.2.2,Win32,60.27000964,,,,,,,,,,,,,,,,,,masks/mask_003.jpg,,,,,,,,,,,,,,,,,,,,,,,,,,,,,,,,,,,,,,,,,,,,,,,,0,0,0,2,1,,,,,,,,,,,,,,,,,,,,,,,,,,,,,,,,,,,,,,,,,
907133,001,2022-11-21_01h54.56.089,Info_measure_main_exp,2022.2.2,Win32,60.27000964,,,,,,,,,,,,,,,,,,masks/mask_002.jpg,,,,,,,,,,,,,,,,,,,,,,,,,,,,,,,,,,,,,,,,,,,,,,,,0,1,1,1,1,,,,,,,,,,,,,,,,,,,,,,,,,,,,,,,,,,,,,,,,,
907133,001,2022-11-21_01h54.56.089,Info_measure_main_exp,2022.2.2,Win32,60.27000964,,,,,,,,,,,,,,,,,,masks/mask_004.jpg,,,,,,,,,,,,,,,,,,,,,,,,,,,,,,,,,,,,,,,,,,,,,,,,0,2,2,3,1,,,,,,,,,,,,,,,,,,,,,,,,,,,,,,,,,,,,,,,,,
907133,001,2022-11-21_01h54.56.089,Info_measure_main_exp,2022.2.2,Win32,60.27000964,,,,,,,,,,,,,,,,,,masks/mask_005.jpg,,,,,,,,,,,,,,,,,,,,,,,,,,,,,,,,,,,,,,,,,,,,,,,,0,3,3,4,1,,,,,,,,,,,,,,,,,,,,,,,,,,,,,,,,,,,,,,,,,
907133,001,2022-11-21_01h54.56.089,Info_measure_main_exp,2022.2.2,Win32,60.27000964,,,,,,,,,,,,,,,,,,masks/mask_001.jpg,,,,,,,,,,,,,,,,,,,,,,,,,,,,,,,,,,,,,,,,,,,,,,,,0,4,4,0,1,,,,,,,,,,,,,,,,,,,,,,,,,,,,,,,,,,,,,,,,,
907133,001,2022-11-21_01h54.56.089,Info_measure_main_exp,2022.2.2,Win32,60.27000964,,,,,,,,,,,,,,,,,,,,,,,,,,,,,,0,0.9515,1,,,,,,,,,,,,0,131,5,5,2274,2274,absent_patch/patch0002274.jpg,absent_patch/patch0002274.jpg,,,,,,,,,,,,,,,,,,,,-0.03125,0.09765625,1,0,0,response7disk,32,-0.005208333,0.013020833,1,0,0,center_square,0,31,31,114,1,,,,,,,,,,,,,,,,,,,,,,,
907133,001,2022-11-21_01h54.56.089,Info_measure_main_exp,2022.2.2,Win32,60.27000964,,,,,,,,,,,,,,,,,,masks/mask_005.jpg,,,,,,,,,,,,,,,,,,,,,,,,,,,,,,,,,,,,,,,,,,,0,0,0,4,1,,,,,,,,,,,,,,,,,,,,,,,,,,,,,,,,,,,,,,,,,,,,,,
907133,001,2022-11-21_01h54.56.089,Info_measure_main_exp,2022.2.2,Win32,60.27000964,,,,,,,,,,,,,,,,,,masks/mask_001.jpg,,,,,,,,,,,,,,,,,,,,,,,,,,,,,,,,,,,,,,,,,,,0,1,1,0,1,,,,,,,,,,,,,,,,,,,,,,,,,,,,,,,,,,,,,,,,,,,,,,
907133,001,2022-11-21_01h54.56.089,Info_measure_main_exp,2022.2.2,Win32,60.27000964,,,,,,,,,,,,,,,,,,masks/mask_003.jpg,,,,,,,,,,,,,,,,,,,,,,,,,,,,,,,,,,,,,,,,,,,0,2,2,2,1,,,,,,,,,,,,,,,,,,,,,,,,,,,,,,,,,,,,,,,,,,,,,,
907133,001,2022-11-21_01h54.56.089,Info_measure_main_exp,2022.2.2,Win32,60.27000964,,,,,,,,,,,,,,,,,,masks/mask_004.jpg,,,,,,,,,,,,,,,,,,,,,,,,,,,,,,,,,,,,,,,,,,,0,3,3,3,1,,,,,,,,,,,,,,,,,,,,,,,,,,,,,,,,,,,,,,,,,,,,,,
907133,001,2022-11-21_01h54.56.089,Info_measure_main_exp,2022.2.2,Win32,60.27000964,,,,,,,,,,,,,,,,,,masks/mask_002.jpg,,,,,,,,,,,,,,,,,,,,,,,,,,,,,,,,,,,,,,,,,,,0,4,4,1,1,,,,,,,,,,,,,,,,,,,,,,,,,,,,,,,,,,,,,,,,,,,,,,
907133,001,2022-11-21_01h54.56.089,Info_measure_main_exp,2022.2.2,Win32,60.27000964,,,,,,,,,,,,,,,,,,masks/mask_002.jpg,,,,,,,,,,,,,,,,,,,,,,,,,,,,,,,,,,,,,,,,,,,,,,,,0,0,0,1,1,,,,,,,,,,,,,,,,,,,,,,,,,,,,,,,,,,,,,,,,,
907133,001,2022-11-21_01h54.56.089,Info_measure_main_exp,2022.2.2,Win32,60.27000964,,,,,,,,,,,,,,,,,,masks/mask_004.jpg,,,,,,,,,,,,,,,,,,,,,,,,,,,,,,,,,,,,,,,,,,,,,,,,0,1,1,3,1,,,,,,,,,,,,,,,,,,,,,,,,,,,,,,,,,,,,,,,,,
907133,001,2022-11-21_01h54.56.089,Info_measure_main_exp,2022.2.2,Win32,60.27000964,,,,,,,,,,,,,,,,,,masks/mask_001.jpg,,,,,,,,,,,,,,,,,,,,,,,,,,,,,,,,,,,,,,,,,,,,,,,,0,2,2,0,1,,,,,,,,,,,,,,,,,,,,,,,,,,,,,,,,,,,,,,,,,
907133,001,2022-11-21_01h54.56.089,Info_measure_main_exp,2022.2.2,Win32,60.27000964,,,,,,,,,,,,,,,,,,masks/mask_005.jpg,,,,,,,,,,,,,,,,,,,,,,,,,,,,,,,,,,,,,,,,,,,,,,,,0,3,3,4,1,,,,,,,,,,,,,,,,,,,,,,,,,,,,,,,,,,,,,,,,,
907133,001,2022-11-21_01h54.56.089,Info_measure_main_exp,2022.2.2,Win32,60.27000964,,,,,,,,,,,,,,,,,,masks/mask_003.jpg,,,,,,,,,,,,,,,,,,,,,,,,,,,,,,,,,,,,,,,,,,,,,,,,0,4,4,2,1,,,,,,,,,,,,,,,,,,,,,,,,,,,,,,,,,,,,,,,,,
907133,001,2022-11-21_01h54.56.089,Info_measure_main_exp,2022.2.2,Win32,60.27000964,,,,,,,,,,,,,,,,,,,,,,,,,,,,,,3,2.9836,1,,,,,,,,,,,,0,131,5,5,2274,2082,absent_patch/patch0002274.jpg,absent_patch/patch0002082.jpg,,,,,,,,,,,,,,,,,,,,-0.0234375,-0.029947917,1,0,0,response5disk,33,0.009114583,0.001302083,1,0,0,center_square,0,32,32,100,1,,,,,,,,,,,,,,,,,,,,,,,
907133,001,2022-11-21_01h54.56.089,Info_measure_main_exp,2022.2.2,Win32,60.27000964,,,,,,,,,,,,,,,,,,masks/mask_001.jpg,,,,,,,,,,,,,,,,,,,,,,,,,,,,,,,,,,,,,,,,,,,0,0,0,0,1,,,,,,,,,,,,,,,,,,,,,,,,,,,,,,,,,,,,,,,,,,,,,,
907133,001,2022-11-21_01h54.56.089,Info_measure_main_exp,2022.2.2,Win32,60.27000964,,,,,,,,,,,,,,,,,,masks/mask_004.jpg,,,,,,,,,,,,,,,,,,,,,,,,,,,,,,,,,,,,,,,,,,,0,1,1,3,1,,,,,,,,,,,,,,,,,,,,,,,,,,,,,,,,,,,,,,,,,,,,,,
907133,001,2022-11-21_01h54.56.089,Info_measure_main_exp,2022.2.2,Win32,60.27000964,,,,,,,,,,,,,,,,,,masks/mask_002.jpg,,,,,,,,,,,,,,,,,,,,,,,,,,,,,,,,,,,,,,,,,,,0,2,2,1,1,,,,,,,,,,,,,,,,,,,,,,,,,,,,,,,,,,,,,,,,,,,,,,
907133,001,2022-11-21_01h54.56.089,Info_measure_main_exp,2022.2.2,Win32,60.27000964,,,,,,,,,,,,,,,,,,masks/mask_003.jpg,,,,,,,,,,,,,,,,,,,,,,,,,,,,,,,,,,,,,,,,,,,0,3,3,2,1,,,,,,,,,,,,,,,,,,,,,,,,,,,,,,,,,,,,,,,,,,,,,,
907133,001,2022-11-21_01h54.56.089,Info_measure_main_exp,2022.2.2,Win32,60.27000964,,,,,,,,,,,,,,,,,,masks/mask_005.jpg,,,,,,,,,,,,,,,,,,,,,,,,,,,,,,,,,,,,,,,,,,,0,4,4,4,1,,,,,,,,,,,,,,,,,,,,,,,,,,,,,,,,,,,,,,,,,,,,,,
907133,001,2022-11-21_01h54.56.089,Info_measure_main_exp,2022.2.2,Win32,60.27000964,,,,,,,,,,,,,,,,,,masks/mask_005.jpg,,,,,,,,,,,,,,,,,,,,,,,,,,,,,,,,,,,,,,,,,,,,,,,,0,0,0,4,1,,,,,,,,,,,,,,,,,,,,,,,,,,,,,,,,,,,,,,,,,
907133,001,2022-11-21_01h54.56.089,Info_measure_main_exp,2022.2.2,Win32,60.27000964,,,,,,,,,,,,,,,,,,masks/mask_001.jpg,,,,,,,,,,,,,,,,,,,,,,,,,,,,,,,,,,,,,,,,,,,,,,,,0,1,1,0,1,,,,,,,,,,,,,,,,,,,,,,,,,,,,,,,,,,,,,,,,,
907133,001,2022-11-21_01h54.56.089,Info_measure_main_exp,2022.2.2,Win32,60.27000964,,,,,,,,,,,,,,,,,,masks/mask_003.jpg,,,,,,,,,,,,,,,,,,,,,,,,,,,,,,,,,,,,,,,,,,,,,,,,0,2,2,2,1,,,,,,,,,,,,,,,,,,,,,,,,,,,,,,,,,,,,,,,,,
907133,001,2022-11-21_01h54.56.089,Info_measure_main_exp,2022.2.2,Win32,60.27000964,,,,,,,,,,,,,,,,,,masks/mask_004.jpg,,,,,,,,,,,,,,,,,,,,,,,,,,,,,,,,,,,,,,,,,,,,,,,,0,3,3,3,1,,,,,,,,,,,,,,,,,,,,,,,,,,,,,,,,,,,,,,,,,
907133,001,2022-11-21_01h54.56.089,Info_measure_main_exp,2022.2.2,Win32,60.27000964,,,,,,,,,,,,,,,,,,masks/mask_002.jpg,,,,,,,,,,,,,,,,,,,,,,,,,,,,,,,,,,,,,,,,,,,,,,,,0,4,4,1,1,,,,,,,,,,,,,,,,,,,,,,,,,,,,,,,,,,,,,,,,,
907133,001,2022-11-21_01h54.56.089,Info_measure_main_exp,2022.2.2,Win32,60.27000964,,,,,,,,,,,,,,,,,,,,,,,,,,,,,,2,1.2673,1,,,,,,,,,,,,0,131,5,5,2274,1950,absent_patch/patch0002274.jpg,absent_patch/patch0001950.jpg,,,,,,,,,,,,,,,,,,,,-0.0234375,-0.0078125,1,0,0,response5disk,34,-0.001302083,-0.001302083,1,0,0,center_square,0,33,33,10,1,,,,,,,,,,,,,,,,,,,,,,,
907133,001,2022-11-21_01h54.56.089,Info_measure_main_exp,2022.2.2,Win32,60.27000964,,,,,,,,,,,,,,,,,,masks/mask_003.jpg,,,,,,,,,,,,,,,,,,,,,,,,,,,,,,,,,,,,,,,,,,,0,0,0,2,1,,,,,,,,,,,,,,,,,,,,,,,,,,,,,,,,,,,,,,,,,,,,,,
907133,001,2022-11-21_01h54.56.089,Info_measure_main_exp,2022.2.2,Win32,60.27000964,,,,,,,,,,,,,,,,,,masks/mask_005.jpg,,,,,,,,,,,,,,,,,,,,,,,,,,,,,,,,,,,,,,,,,,,0,1,1,4,1,,,,,,,,,,,,,,,,,,,,,,,,,,,,,,,,,,,,,,,,,,,,,,
907133,001,2022-11-21_01h54.56.089,Info_measure_main_exp,2022.2.2,Win32,60.27000964,,,,,,,,,,,,,,,,,,masks/mask_002.jpg,,,,,,,,,,,,,,,,,,,,,,,,,,,,,,,,,,,,,,,,,,,0,2,2,1,1,,,,,,,,,,,,,,,,,,,,,,,,,,,,,,,,,,,,,,,,,,,,,,
907133,001,2022-11-21_01h54.56.089,Info_measure_main_exp,2022.2.2,Win32,60.27000964,,,,,,,,,,,,,,,,,,masks/mask_004.jpg,,,,,,,,,,,,,,,,,,,,,,,,,,,,,,,,,,,,,,,,,,,0,3,3,3,1,,,,,,,,,,,,,,,,,,,,,,,,,,,,,,,,,,,,,,,,,,,,,,
907133,001,2022-11-21_01h54.56.089,Info_measure_main_exp,2022.2.2,Win32,60.27000964,,,,,,,,,,,,,,,,,,masks/mask_001.jpg,,,,,,,,,,,,,,,,,,,,,,,,,,,,,,,,,,,,,,,,,,,0,4,4,0,1,,,,,,,,,,,,,,,,,,,,,,,,,,,,,,,,,,,,,,,,,,,,,,
907133,001,2022-11-21_01h54.56.089,Info_measure_main_exp,2022.2.2,Win32,60.27000964,,,,,,,,,,,,,,,,,,masks/mask_004.jpg,,,,,,,,,,,,,,,,,,,,,,,,,,,,,,,,,,,,,,,,,,,,,,,,0,0,0,3,1,,,,,,,,,,,,,,,,,,,,,,,,,,,,,,,,,,,,,,,,,
907133,001,2022-11-21_01h54.56.089,Info_measure_main_exp,2022.2.2,Win32,60.27000964,,,,,,,,,,,,,,,,,,masks/mask_005.jpg,,,,,,,,,,,,,,,,,,,,,,,,,,,,,,,,,,,,,,,,,,,,,,,,0,1,1,4,1,,,,,,,,,,,,,,,,,,,,,,,,,,,,,,,,,,,,,,,,,
907133,001,2022-11-21_01h54.56.089,Info_measure_main_exp,2022.2.2,Win32,60.27000964,,,,,,,,,,,,,,,,,,masks/mask_003.jpg,,,,,,,,,,,,,,,,,,,,,,,,,,,,,,,,,,,,,,,,,,,,,,,,0,2,2,2,1,,,,,,,,,,,,,,,,,,,,,,,,,,,,,,,,,,,,,,,,,
907133,001,2022-11-21_01h54.56.089,Info_measure_main_exp,2022.2.2,Win32,60.27000964,,,,,,,,,,,,,,,,,,masks/mask_001.jpg,,,,,,,,,,,,,,,,,,,,,,,,,,,,,,,,,,,,,,,,,,,,,,,,0,3,3,0,1,,,,,,,,,,,,,,,,,,,,,,,,,,,,,,,,,,,,,,,,,
