participant,session,date,expName,psychopyVersion,OS,frameRate,space_press_continue.keys,space_press_continue.rt,space_press_continue_2.keys,space_press_continue_2.rt,space_press_continue_3.keys,space_press_continue_3.rt,space_press_continue_4.keys,space_press_continue_4.rt,space_press_continue_5.keys,space_press_continue_5.rt,space_press_continue_6.keys,space_press_continue_6.rt,prac_mask_loop_1.thisRepN,prac_mask_loop_1.thisTrialN,prac_mask_loop_1.thisN,prac_mask_loop_1.thisIndex,prac_mask_loop_1.ran,mask_name,prac_mask_loop_2.thisRepN,prac_mask_loop_2.thisTrialN,prac_mask_loop_2.thisN,prac_mask_loop_2.thisIndex,prac_mask_loop_2.ran,mouse_2.x,mouse_2.y,mouse_2.leftButton,mouse_2.midButton,mouse_2.rightButton,mouse_2.clicked_name,similarity,response_time,Pass,mouse_12.x,mouse_12.y,mouse_12.leftButton,mouse_12.midButton,mouse_12.rightButton,mouse_12.clicked_name,prac_loop.thisRepN,prac_loop.thisTrialN,prac_loop.thisN,prac_loop.thisIndex,prac_loop.ran,Pair_type,Image_num,Patch_1_loc,Patch_2_loc,Patch_1_info,Patch_2_info,Patch_1_name,Patch_2_name,mouse_1.x,mouse_1.y,mouse_1.leftButton,mouse_1.midButton,mouse_1.rightButton,mouse_1.time,mouse_1.clicked_name,space_press_continue_7.keys,space_press_continue_7.rt,mask_loop.thisRepN,mask_loop.thisTrialN,mask_loop.thisN,mask_loop.thisIndex,mask_loop.ran,mask_loop_2.thisRepN,mask_loop_2.thisTrialN,mask_loop_2.thisN,mask_loop_2.thisIndex,mask_loop_2.ran,mouse.x,mouse.y,mouse.leftButton,mouse.midButton,mouse.rightButton,mouse.clicked_name,trialNumber,mouse_11.x,mouse_11.y,mouse_11.leftButton,mouse_11.midButton,mouse_11.rightButton,mouse_11.clicked_name,first_pass_loop.thisRepN,first_pass_loop.thisTrialN,first_pass_loop.thisN,first_pass_loop.thisIndex,first_pass_loop.ran,mask_loop_3.thisRepN,mask_loop_3.thisTrialN,mask_loop_3.thisN,mask_loop_3.thisIndex,mask_loop_3.ran,mask_loop_4.thisRepN,mask_loop_4.thisTrialN,mask_loop_4.thisN,mask_loop_4.thisIndex,mask_loop_4.ran,mouse_3.x,mouse_3.y,mouse_3.leftButton,mouse_3.midButton,mouse_3.rightButton,mouse_3.clicked_name,double_pass_loop.thisRepN,double_pass_loop.thisTrialN,double_pass_loop.thisN,double_pass_loop.thisIndex,double_pass_loop.ran,space_exit.keys,space_exit.rt
909289,001,2022-11-13_23h27.49.969,Info_measure_main_exp,2022.2.2,Win32,61.10601894,,,,,,,,,,,,,,,,,,,,,,,,,,,,,,,,,,,,,,,,,,,,,,,,,,,,,,,,,,,,,,,,,,,,,,,,,,,,,,,,,,,,,,,,,,,,,,,,,,,,,,,,,,,,,,,
909289,001,2022-11-13_23h27.49.969,Info_measure_main_exp,2022.2.2,Win32,61.10601894,,,,,,,,,,,,,,,,,,,,,,,,,,,,,,,,,,,,,,,,,,,,,,,,,,,,,,,,,,,,,,,,,,,,,,,,,,,,,,,,,,,,,,,,,,,,,,,,,,,,,,,,,,,,,,,
909289,001,2022-11-13_23h27.49.969,Info_measure_main_exp,2022.2.2,Win32,61.10601894,space,6.6829,,,,,,,,,,,,,,,,,,,,,,,,,,,,,,,,,,,,,,,,,,,,,,,,,,,,,,,,,,,,,,,,,,,,,,,,,,,,,,,,,,,,,,,,,,,,,,,,,,,,,,,,,,,,,
909289,001,2022-11-13_23h27.49.969,Info_measure_main_exp,2022.2.2,Win32,61.10601894,,,space,18.0503,,,,,,,,,,,,,,,,,,,,,,,,,,,,,,,,,,,,,,,,,,,,,,,,,,,,,,,,,,,,,,,,,,,,,,,,,,,,,,,,,,,,,,,,,,,,,,,,,,,,,,,,,,,
909289,001,2022-11-13_23h27.49.969,Info_measure_main_exp,2022.2.2,Win32,61.10601894,,,,,space,2.6473,,,,,,,,,,,,,,,,,,,,,,,,,,,,,,,,,,,,,,,,,,,,,,,,,,,,,,,,,,,,,,,,,,,,,,,,,,,,,,,,,,,,,,,,,,,,,,,,,,,,,,,,,
909289,001,2022-11-13_23h27.49.969,Info_measure_main_exp,2022.2.2,Win32,61.10601894,,,,,,,space,33.2559,,,,,,,,,,,,,,,,,,,,,,,,,,,,,,,,,,,,,,,,,,,,,,,,,,,,,,,,,,,,,,,,,,,,,,,,,,,,,,,,,,,,,,,,,,,,,,,,,,,,,,,
909289,001,2022-11-13_23h27.49.969,Info_measure_main_exp,2022.2.2,Win32,61.10601894,,,,,,,,,space,16.4849,,,,,,,,,,,,,,,,,,,,,,,,,,,,,,,,,,,,,,,,,,,,,,,,,,,,,,,,,,,,,,,,,,,,,,,,,,,,,,,,,,,,,,,,,,,,,,,,,,,,,
909289,001,2022-11-13_23h27.49.969,Info_measure_main_exp,2022.2.2,Win32,61.10601894,,,,,,,,,,,space,4.6683,,,,,,,,,,,,,,,,,,,,,,,,,,,,,,,,,,,,,,,,,,,,,,,,,,,,,,,,,,,,,,,,,,,,,,,,,,,,,,,,,,,,,,,,,,,,,,,,,,,
909289,001,2022-11-13_23h27.49.969,Info_measure_main_exp,2022.2.2,Win32,61.10601894,,,,,,,,,,,,,0,0,0,1,1,masks/mask_002.jpg,,,,,,,,,,,,,,,,,,,,,,,,,,,,,,,,,,,,,,,,,,,,,,,,,,,,,,,,,,,,,,,,,,,,,,,,,,,,,,,,,,,,,,,,,,,,,
909289,001,2022-11-13_23h27.49.969,Info_measure_main_exp,2022.2.2,Win32,61.10601894,,,,,,,,,,,,,0,1,1,3,1,masks/mask_004.jpg,,,,,,,,,,,,,,,,,,,,,,,,,,,,,,,,,,,,,,,,,,,,,,,,,,,,,,,,,,,,,,,,,,,,,,,,,,,,,,,,,,,,,,,,,,,,,
909289,001,2022-11-13_23h27.49.969,Info_measure_main_exp,2022.2.2,Win32,61.10601894,,,,,,,,,,,,,0,2,2,0,1,masks/mask_001.jpg,,,,,,,,,,,,,,,,,,,,,,,,,,,,,,,,,,,,,,,,,,,,,,,,,,,,,,,,,,,,,,,,,,,,,,,,,,,,,,,,,,,,,,,,,,,,,
909289,001,2022-11-13_23h27.49.969,Info_measure_main_exp,2022.2.2,Win32,61.10601894,,,,,,,,,,,,,0,3,3,4,1,masks/mask_005.jpg,,,,,,,,,,,,,,,,,,,,,,,,,,,,,,,,,,,,,,,,,,,,,,,,,,,,,,,,,,,,,,,,,,,,,,,,,,,,,,,,,,,,,,,,,,,,,
909289,001,2022-11-13_23h27.49.969,Info_measure_main_exp,2022.2.2,Win32,61.10601894,,,,,,,,,,,,,0,4,4,2,1,masks/mask_003.jpg,,,,,,,,,,,,,,,,,,,,,,,,,,,,,,,,,,,,,,,,,,,,,,,,,,,,,,,,,,,,,,,,,,,,,,,,,,,,,,,,,,,,,,,,,,,,,
909289,001,2022-11-13_23h27.49.969,Info_measure_main_exp,2022.2.2,Win32,61.10601894,,,,,,,,,,,,,,,,,,masks/mask_002.jpg,0,0,0,1,1,,,,,,,,,,,,,,,,,,,,,,,,,,,,,,,,,,,,,,,,,,,,,,,,,,,,,,,,,,,,,,,,,,,,,,,,,,,,,,,,,,,,,,,,
909289,001,2022-11-13_23h27.49.969,Info_measure_main_exp,2022.2.2,Win32,61.10601894,,,,,,,,,,,,,,,,,,masks/mask_003.jpg,0,1,1,2,1,,,,,,,,,,,,,,,,,,,,,,,,,,,,,,,,,,,,,,,,,,,,,,,,,,,,,,,,,,,,,,,,,,,,,,,,,,,,,,,,,,,,,,,,
909289,001,2022-11-13_23h27.49.969,Info_measure_main_exp,2022.2.2,Win32,61.10601894,,,,,,,,,,,,,,,,,,masks/mask_004.jpg,0,2,2,3,1,,,,,,,,,,,,,,,,,,,,,,,,,,,,,,,,,,,,,,,,,,,,,,,,,,,,,,,,,,,,,,,,,,,,,,,,,,,,,,,,,,,,,,,,
909289,001,2022-11-13_23h27.49.969,Info_measure_main_exp,2022.2.2,Win32,61.10601894,,,,,,,,,,,,,,,,,,masks/mask_005.jpg,0,3,3,4,1,,,,,,,,,,,,,,,,,,,,,,,,,,,,,,,,,,,,,,,,,,,,,,,,,,,,,,,,,,,,,,,,,,,,,,,,,,,,,,,,,,,,,,,,
909289,001,2022-11-13_23h27.49.969,Info_measure_main_exp,2022.2.2,Win32,61.10601894,,,,,,,,,,,,,,,,,,masks/mask_001.jpg,0,4,4,0,1,,,,,,,,,,,,,,,,,,,,,,,,,,,,,,,,,,,,,,,,,,,,,,,,,,,,,,,,,,,,,,,,,,,,,,,,,,,,,,,,,,,,,,,,
909289,001,2022-11-13_23h27.49.969,Info_measure_main_exp,2022.2.2,Win32,61.10601894,,,,,,,,,,,,,,,,,,,,,,,,0.082407422,0.167592578,1,0,0,response1disk,7,94.1668,1,-0.005555541,-0.00462963,1,0,0,center_square,0,0,0,0,1,0,131,5,5,2370,2406,prac_patch/patch0002370.jpg,prac_patch/patch0002406.jpg,,,,,,,,,,,,,,,,,,,,,,,,,,,,,,,,,,,,,,,,,,,,,,,,,,,,,,,,,,,,
909289,001,2022-11-13_23h27.49.969,Info_measure_main_exp,2022.2.2,Win32,61.10601894,,,,,,,,,,,,,0,0,0,2,1,masks/mask_003.jpg,,,,,,,,,,,,,,,,,,,,,,,,,,,,,,,,,,,,,,,,,,,,,,,,,,,,,,,,,,,,,,,,,,,,,,,,,,,,,,,,,,,,,,,,,,,,,
909289,001,2022-11-13_23h27.49.969,Info_measure_main_exp,2022.2.2,Win32,61.10601894,,,,,,,,,,,,,0,1,1,0,1,masks/mask_001.jpg,,,,,,,,,,,,,,,,,,,,,,,,,,,,,,,,,,,,,,,,,,,,,,,,,,,,,,,,,,,,,,,,,,,,,,,,,,,,,,,,,,,,,,,,,,,,,
909289,001,2022-11-13_23h27.49.969,Info_measure_main_exp,2022.2.2,Win32,61.10601894,,,,,,,,,,,,,0,2,2,4,1,masks/mask_005.jpg,,,,,,,,,,,,,,,,,,,,,,,,,,,,,,,,,,,,,,,,,,,,,,,,,,,,,,,,,,,,,,,,,,,,,,,,,,,,,,,,,,,,,,,,,,,,,
909289,001,2022-11-13_23h27.49.969,Info_measure_main_exp,2022.2.2,Win32,61.10601894,,,,,,,,,,,,,0,3,3,1,1,masks/mask_002.jpg,,,,,,,,,,,,,,,,,,,,,,,,,,,,,,,,,,,,,,,,,,,,,,,,,,,,,,,,,,,,,,,,,,,,,,,,,,,,,,,,,,,,,,,,,,,,,
909289,001,2022-11-13_23h27.49.969,Info_measure_main_exp,2022.2.2,Win32,61.10601894,,,,,,,,,,,,,0,4,4,3,1,masks/mask_004.jpg,,,,,,,,,,,,,,,,,,,,,,,,,,,,,,,,,,,,,,,,,,,,,,,,,,,,,,,,,,,,,,,,,,,,,,,,,,,,,,,,,,,,,,,,,,,,,
909289,001,2022-11-13_23h27.49.969,Info_measure_main_exp,2022.2.2,Win32,61.10601894,,,,,,,,,,,,,,,,,,masks/mask_001.jpg,0,0,0,0,1,,,,,,,,,,,,,,,,,,,,,,,,,,,,,,,,,,,,,,,,,,,,,,,,,,,,,,,,,,,,,,,,,,,,,,,,,,,,,,,,,,,,,,,,
909289,001,2022-11-13_23h27.49.969,Info_measure_main_exp,2022.2.2,Win32,61.10601894,,,,,,,,,,,,,,,,,,masks/mask_002.jpg,0,1,1,1,1,,,,,,,,,,,,,,,,,,,,,,,,,,,,,,,,,,,,,,,,,,,,,,,,,,,,,,,,,,,,,,,,,,,,,,,,,,,,,,,,,,,,,,,,
909289,001,2022-11-13_23h27.49.969,Info_measure_main_exp,2022.2.2,Win32,61.10601894,,,,,,,,,,,,,,,,,,masks/mask_003.jpg,0,2,2,2,1,,,,,,,,,,,,,,,,,,,,,,,,,,,,,,,,,,,,,,,,,,,,,,,,,,,,,,,,,,,,,,,,,,,,,,,,,,,,,,,,,,,,,,,,
909289,001,2022-11-13_23h27.49.969,Info_measure_main_exp,2022.2.2,Win32,61.10601894,,,,,,,,,,,,,,,,,,masks/mask_005.jpg,0,3,3,4,1,,,,,,,,,,,,,,,,,,,,,,,,,,,,,,,,,,,,,,,,,,,,,,,,,,,,,,,,,,,,,,,,,,,,,,,,,,,,,,,,,,,,,,,,
909289,001,2022-11-13_23h27.49.969,Info_measure_main_exp,2022.2.2,Win32,61.10601894,,,,,,,,,,,,,,,,,,masks/mask_004.jpg,0,4,4,3,1,,,,,,,,,,,,,,,,,,,,,,,,,,,,,,,,,,,,,,,,,,,,,,,,,,,,,,,,,,,,,,,,,,,,,,,,,,,,,,,,,,,,,,,,
909289,001,2022-11-13_23h27.49.969,Info_measure_main_exp,2022.2.2,Win32,61.10601894,,,,,,,,,,,,,,,,,,,,,,,,-0.077777721,0.114814794,1,0,0,response7disk,0,108.4953,1,-0.005555541,0.003703683,1,0,0,center_square,0,1,1,2,1,0,131,5,5,2526,2526,prac_patch/patch0002526.jpg,prac_patch/patch0002526.jpg,,,,,,,,,,,,,,,,,,,,,,,,,,,,,,,,,,,,,,,,,,,,,,,,,,,,,,,,,,,,
909289,001,2022-11-13_23h27.49.969,Info_measure_main_exp,2022.2.2,Win32,61.10601894,,,,,,,,,,,,,0,0,0,1,1,masks/mask_002.jpg,,,,,,,,,,,,,,,,,,,,,,,,,,,,,,,,,,,,,,,,,,,,,,,,,,,,,,,,,,,,,,,,,,,,,,,,,,,,,,,,,,,,,,,,,,,,,
909289,001,2022-11-13_23h27.49.969,Info_measure_main_exp,2022.2.2,Win32,61.10601894,,,,,,,,,,,,,0,1,1,4,1,masks/mask_005.jpg,,,,,,,,,,,,,,,,,,,,,,,,,,,,,,,,,,,,,,,,,,,,,,,,,,,,,,,,,,,,,,,,,,,,,,,,,,,,,,,,,,,,,,,,,,,,,
909289,001,2022-11-13_23h27.49.969,Info_measure_main_exp,2022.2.2,Win32,61.10601894,,,,,,,,,,,,,0,2,2,3,1,masks/mask_004.jpg,,,,,,,,,,,,,,,,,,,,,,,,,,,,,,,,,,,,,,,,,,,,,,,,,,,,,,,,,,,,,,,,,,,,,,,,,,,,,,,,,,,,,,,,,,,,,
909289,001,2022-11-13_23h27.49.969,Info_measure_main_exp,2022.2.2,Win32,61.10601894,,,,,,,,,,,,,0,3,3,0,1,masks/mask_001.jpg,,,,,,,,,,,,,,,,,,,,,,,,,,,,,,,,,,,,,,,,,,,,,,,,,,,,,,,,,,,,,,,,,,,,,,,,,,,,,,,,,,,,,,,,,,,,,
909289,001,2022-11-13_23h27.49.969,Info_measure_main_exp,2022.2.2,Win32,61.10601894,,,,,,,,,,,,,0,4,4,2,1,masks/mask_003.jpg,,,,,,,,,,,,,,,,,,,,,,,,,,,,,,,,,,,,,,,,,,,,,,,,,,,,,,,,,,,,,,,,,,,,,,,,,,,,,,,,,,,,,,,,,,,,,
909289,001,2022-11-13_23h27.49.969,Info_measure_main_exp,2022.2.2,Win32,61.10601894,,,,,,,,,,,,,,,,,,masks/mask_002.jpg,0,0,0,1,1,,,,,,,,,,,,,,,,,,,,,,,,,,,,,,,,,,,,,,,,,,,,,,,,,,,,,,,,,,,,,,,,,,,,,,,,,,,,,,,,,,,,,,,,
909289,001,2022-11-13_23h27.49.969,Info_measure_main_exp,2022.2.2,Win32,61.10601894,,,,,,,,,,,,,,,,,,masks/mask_005.jpg,0,1,1,4,1,,,,,,,,,,,,,,,,,,,,,,,,,,,,,,,,,,,,,,,,,,,,,,,,,,,,,,,,,,,,,,,,,,,,,,,,,,,,,,,,,,,,,,,,
909289,001,2022-11-13_23h27.49.969,Info_measure_main_exp,2022.2.2,Win32,61.10601894,,,,,,,,,,,,,,,,,,masks/mask_001.jpg,0,2,2,0,1,,,,,,,,,,,,,,,,,,,,,,,,,,,,,,,,,,,,,,,,,,,,,,,,,,,,,,,,,,,,,,,,,,,,,,,,,,,,,,,,,,,,,,,,
909289,001,2022-11-13_23h27.49.969,Info_measure_main_exp,2022.2.2,Win32,61.10601894,,,,,,,,,,,,,,,,,,masks/mask_003.jpg,0,3,3,2,1,,,,,,,,,,,,,,,,,,,,,,,,,,,,,,,,,,,,,,,,,,,,,,,,,,,,,,,,,,,,,,,,,,,,,,,,,,,,,,,,,,,,,,,,
909289,001,2022-11-13_23h27.49.969,Info_measure_main_exp,2022.2.2,Win32,61.10601894,,,,,,,,,,,,,,,,,,masks/mask_004.jpg,0,4,4,3,1,,,,,,,,,,,,,,,,,,,,,,,,,,,,,,,,,,,,,,,,,,,,,,,,,,,,,,,,,,,,,,,,,,,,,,,,,,,,,,,,,,,,,,,,
909289,001,2022-11-13_23h27.49.969,Info_measure_main_exp,2022.2.2,Win32,61.10601894,,,,,,,,,,,,,,,,,,,,,,,,-0.079629616,-0.025925919,1,0,0,response5disk,2,117.92,1,-0.000925912,0.001851859,1,0,0,center_square,0,2,2,1,1,0,131,5,5,2514,2490,prac_patch/patch0002514.jpg,prac_patch/patch0002490.jpg,,,,,,,,,,,,,,,,,,,,,,,,,,,,,,,,,,,,,,,,,,,,,,,,,,,,,,,,,,,,
909289,001,2022-11-13_23h27.49.969,Info_measure_main_exp,2022.2.2,Win32,61.10601894,,,,,,,,,,,,,,,,,,,,,,,,,,,,,,,,,,,,,,,,,,,,,,,,,,,,,,,,,,,space,2.5674,,,,,,,,,,,,,,,,,,,,,,,,,,,,,,,,,,,,,,,,,,,,,,,,,,,
909289,001,2022-11-13_23h27.49.969,Info_measure_main_exp,2022.2.2,Win32,61.10601894,,,,,,,,,,,,,,,,,,masks/mask_003.jpg,,,,,,,,,,,,,,,,,,,,,,,,,,,,,,,,,,,,,,,,,,,0,0,0,2,1,,,,,,,,,,,,,,,,,,,,,,,,,,,,,,,,,,,,,,,,,,,,,,
909289,001,2022-11-13_23h27.49.969,Info_measure_main_exp,2022.2.2,Win32,61.10601894,,,,,,,,,,,,,,,,,,masks/mask_001.jpg,,,,,,,,,,,,,,,,,,,,,,,,,,,,,,,,,,,,,,,,,,,0,1,1,0,1,,,,,,,,,,,,,,,,,,,,,,,,,,,,,,,,,,,,,,,,,,,,,,
909289,001,2022-11-13_23h27.49.969,Info_measure_main_exp,2022.2.2,Win32,61.10601894,,,,,,,,,,,,,,,,,,masks/mask_002.jpg,,,,,,,,,,,,,,,,,,,,,,,,,,,,,,,,,,,,,,,,,,,0,2,2,1,1,,,,,,,,,,,,,,,,,,,,,,,,,,,,,,,,,,,,,,,,,,,,,,
909289,001,2022-11-13_23h27.49.969,Info_measure_main_exp,2022.2.2,Win32,61.10601894,,,,,,,,,,,,,,,,,,masks/mask_004.jpg,,,,,,,,,,,,,,,,,,,,,,,,,,,,,,,,,,,,,,,,,,,0,3,3,3,1,,,,,,,,,,,,,,,,,,,,,,,,,,,,,,,,,,,,,,,,,,,,,,
909289,001,2022-11-13_23h27.49.969,Info_measure_main_exp,2022.2.2,Win32,61.10601894,,,,,,,,,,,,,,,,,,masks/mask_005.jpg,,,,,,,,,,,,,,,,,,,,,,,,,,,,,,,,,,,,,,,,,,,0,4,4,4,1,,,,,,,,,,,,,,,,,,,,,,,,,,,,,,,,,,,,,,,,,,,,,,
909289,001,2022-11-13_23h27.49.969,Info_measure_main_exp,2022.2.2,Win32,61.10601894,,,,,,,,,,,,,,,,,,masks/mask_004.jpg,,,,,,,,,,,,,,,,,,,,,,,,,,,,,,,,,,,,,,,,,,,,,,,,0,0,0,3,1,,,,,,,,,,,,,,,,,,,,,,,,,,,,,,,,,,,,,,,,,
909289,001,2022-11-13_23h27.49.969,Info_measure_main_exp,2022.2.2,Win32,61.10601894,,,,,,,,,,,,,,,,,,masks/mask_005.jpg,,,,,,,,,,,,,,,,,,,,,,,,,,,,,,,,,,,,,,,,,,,,,,,,0,1,1,4,1,,,,,,,,,,,,,,,,,,,,,,,,,,,,,,,,,,,,,,,,,
909289,001,2022-11-13_23h27.49.969,Info_measure_main_exp,2022.2.2,Win32,61.10601894,,,,,,,,,,,,,,,,,,masks/mask_002.jpg,,,,,,,,,,,,,,,,,,,,,,,,,,,,,,,,,,,,,,,,,,,,,,,,0,2,2,1,1,,,,,,,,,,,,,,,,,,,,,,,,,,,,,,,,,,,,,,,,,
909289,001,2022-11-13_23h27.49.969,Info_measure_main_exp,2022.2.2,Win32,61.10601894,,,,,,,,,,,,,,,,,,masks/mask_003.jpg,,,,,,,,,,,,,,,,,,,,,,,,,,,,,,,,,,,,,,,,,,,,,,,,0,3,3,2,1,,,,,,,,,,,,,,,,,,,,,,,,,,,,,,,,,,,,,,,,,
909289,001,2022-11-13_23h27.49.969,Info_measure_main_exp,2022.2.2,Win32,61.10601894,,,,,,,,,,,,,,,,,,masks/mask_001.jpg,,,,,,,,,,,,,,,,,,,,,,,,,,,,,,,,,,,,,,,,,,,,,,,,0,4,4,0,1,,,,,,,,,,,,,,,,,,,,,,,,,,,,,,,,,,,,,,,,,
909289,001,2022-11-13_23h27.49.969,Info_measure_main_exp,2022.2.2,Win32,61.10601894,,,,,,,,,,,,,,,,,,,,,,,,,,,,,,5,2.2986,1,,,,,,,,,,,,0,131,5,5,2082,2166,absent_patch/patch0002082.jpg,absent_patch/patch0002166.jpg,,,,,,,,,,,,,,,,,,,,0.116666653,-0.078703704,1,0,0,response3disk,1,-0.00462963,-0.00462963,1,0,0,center_square,0,0,0,43,1,,,,,,,,,,,,,,,,,,,,,,,
909289,001,2022-11-13_23h27.49.969,Info_measure_main_exp,2022.2.2,Win32,61.10601894,,,,,,,,,,,,,,,,,,masks/mask_005.jpg,,,,,,,,,,,,,,,,,,,,,,,,,,,,,,,,,,,,,,,,,,,0,0,0,4,1,,,,,,,,,,,,,,,,,,,,,,,,,,,,,,,,,,,,,,,,,,,,,,
909289,001,2022-11-13_23h27.49.969,Info_measure_main_exp,2022.2.2,Win32,61.10601894,,,,,,,,,,,,,,,,,,masks/mask_004.jpg,,,,,,,,,,,,,,,,,,,,,,,,,,,,,,,,,,,,,,,,,,,0,1,1,3,1,,,,,,,,,,,,,,,,,,,,,,,,,,,,,,,,,,,,,,,,,,,,,,
909289,001,2022-11-13_23h27.49.969,Info_measure_main_exp,2022.2.2,Win32,61.10601894,,,,,,,,,,,,,,,,,,masks/mask_001.jpg,,,,,,,,,,,,,,,,,,,,,,,,,,,,,,,,,,,,,,,,,,,0,2,2,0,1,,,,,,,,,,,,,,,,,,,,,,,,,,,,,,,,,,,,,,,,,,,,,,
909289,001,2022-11-13_23h27.49.969,Info_measure_main_exp,2022.2.2,Win32,61.10601894,,,,,,,,,,,,,,,,,,masks/mask_003.jpg,,,,,,,,,,,,,,,,,,,,,,,,,,,,,,,,,,,,,,,,,,,0,3,3,2,1,,,,,,,,,,,,,,,,,,,,,,,,,,,,,,,,,,,,,,,,,,,,,,
909289,001,2022-11-13_23h27.49.969,Info_measure_main_exp,2022.2.2,Win32,61.10601894,,,,,,,,,,,,,,,,,,masks/mask_002.jpg,,,,,,,,,,,,,,,,,,,,,,,,,,,,,,,,,,,,,,,,,,,0,4,4,1,1,,,,,,,,,,,,,,,,,,,,,,,,,,,,,,,,,,,,,,,,,,,,,,
909289,001,2022-11-13_23h27.49.969,Info_measure_main_exp,2022.2.2,Win32,61.10601894,,,,,,,,,,,,,,,,,,masks/mask_004.jpg,,,,,,,,,,,,,,,,,,,,,,,,,,,,,,,,,,,,,,,,,,,,,,,,0,0,0,3,1,,,,,,,,,,,,,,,,,,,,,,,,,,,,,,,,,,,,,,,,,
909289,001,2022-11-13_23h27.49.969,Info_measure_main_exp,2022.2.2,Win32,61.10601894,,,,,,,,,,,,,,,,,,masks/mask_005.jpg,,,,,,,,,,,,,,,,,,,,,,,,,,,,,,,,,,,,,,,,,,,,,,,,0,1,1,4,1,,,,,,,,,,,,,,,,,,,,,,,,,,,,,,,,,,,,,,,,,
909289,001,2022-11-13_23h27.49.969,Info_measure_main_exp,2022.2.2,Win32,61.10601894,,,,,,,,,,,,,,,,,,masks/mask_003.jpg,,,,,,,,,,,,,,,,,,,,,,,,,,,,,,,,,,,,,,,,,,,,,,,,0,2,2,2,1,,,,,,,,,,,,,,,,,,,,,,,,,,,,,,,,,,,,,,,,,
909289,001,2022-11-13_23h27.49.969,Info_measure_main_exp,2022.2.2,Win32,61.10601894,,,,,,,,,,,,,,,,,,masks/mask_002.jpg,,,,,,,,,,,,,,,,,,,,,,,,,,,,,,,,,,,,,,,,,,,,,,,,0,3,3,1,1,,,,,,,,,,,,,,,,,,,,,,,,,,,,,,,,,,,,,,,,,
909289,001,2022-11-13_23h27.49.969,Info_measure_main_exp,2022.2.2,Win32,61.10601894,,,,,,,,,,,,,,,,,,masks/mask_001.jpg,,,,,,,,,,,,,,,,,,,,,,,,,,,,,,,,,,,,,,,,,,,,,,,,0,4,4,0,1,,,,,,,,,,,,,,,,,,,,,,,,,,,,,,,,,,,,,,,,,
909289,001,2022-11-13_23h27.49.969,Info_measure_main_exp,2022.2.2,Win32,61.10601894,,,,,,,,,,,,,,,,,,,,,,,,,,,,,,7,1.8651,1,,,,,,,,,,,,0,131,5,5,2250,2238,absent_patch/patch0002250.jpg,absent_patch/patch0002238.jpg,,,,,,,,,,,,,,,,,,,,0.097222222,0.149999972,1,0,0,response1disk,2,0.003703718,0.001851859,1,0,0,center_square,0,1,1,110,1,,,,,,,,,,,,,,,,,,,,,,,
909289,001,2022-11-13_23h27.49.969,Info_measure_main_exp,2022.2.2,Win32,61.10601894,,,,,,,,,,,,,,,,,,masks/mask_002.jpg,,,,,,,,,,,,,,,,,,,,,,,,,,,,,,,,,,,,,,,,,,,0,0,0,1,1,,,,,,,,,,,,,,,,,,,,,,,,,,,,,,,,,,,,,,,,,,,,,,
909289,001,2022-11-13_23h27.49.969,Info_measure_main_exp,2022.2.2,Win32,61.10601894,,,,,,,,,,,,,,,,,,masks/mask_004.jpg,,,,,,,,,,,,,,,,,,,,,,,,,,,,,,,,,,,,,,,,,,,0,1,1,3,1,,,,,,,,,,,,,,,,,,,,,,,,,,,,,,,,,,,,,,,,,,,,,,
909289,001,2022-11-13_23h27.49.969,Info_measure_main_exp,2022.2.2,Win32,61.10601894,,,,,,,,,,,,,,,,,,masks/mask_001.jpg,,,,,,,,,,,,,,,,,,,,,,,,,,,,,,,,,,,,,,,,,,,0,2,2,0,1,,,,,,,,,,,,,,,,,,,,,,,,,,,,,,,,,,,,,,,,,,,,,,
909289,001,2022-11-13_23h27.49.969,Info_measure_main_exp,2022.2.2,Win32,61.10601894,,,,,,,,,,,,,,,,,,masks/mask_005.jpg,,,,,,,,,,,,,,,,,,,,,,,,,,,,,,,,,,,,,,,,,,,0,3,3,4,1,,,,,,,,,,,,,,,,,,,,,,,,,,,,,,,,,,,,,,,,,,,,,,
909289,001,2022-11-13_23h27.49.969,Info_measure_main_exp,2022.2.2,Win32,61.10601894,,,,,,,,,,,,,,,,,,masks/mask_003.jpg,,,,,,,,,,,,,,,,,,,,,,,,,,,,,,,,,,,,,,,,,,,0,4,4,2,1,,,,,,,,,,,,,,,,,,,,,,,,,,,,,,,,,,,,,,,,,,,,,,
909289,001,2022-11-13_23h27.49.969,Info_measure_main_exp,2022.2.2,Win32,61.10601894,,,,,,,,,,,,,,,,,,masks/mask_004.jpg,,,,,,,,,,,,,,,,,,,,,,,,,,,,,,,,,,,,,,,,,,,,,,,,0,0,0,3,1,,,,,,,,,,,,,,,,,,,,,,,,,,,,,,,,,,,,,,,,,
909289,001,2022-11-13_23h27.49.969,Info_measure_main_exp,2022.2.2,Win32,61.10601894,,,,,,,,,,,,,,,,,,masks/mask_003.jpg,,,,,,,,,,,,,,,,,,,,,,,,,,,,,,,,,,,,,,,,,,,,,,,,0,1,1,2,1,,,,,,,,,,,,,,,,,,,,,,,,,,,,,,,,,,,,,,,,,
909289,001,2022-11-13_23h27.49.969,Info_measure_main_exp,2022.2.2,Win32,61.10601894,,,,,,,,,,,,,,,,,,masks/mask_005.jpg,,,,,,,,,,,,,,,,,,,,,,,,,,,,,,,,,,,,,,,,,,,,,,,,0,2,2,4,1,,,,,,,,,,,,,,,,,,,,,,,,,,,,,,,,,,,,,,,,,
909289,001,2022-11-13_23h27.49.969,Info_measure_main_exp,2022.2.2,Win32,61.10601894,,,,,,,,,,,,,,,,,,masks/mask_002.jpg,,,,,,,,,,,,,,,,,,,,,,,,,,,,,,,,,,,,,,,,,,,,,,,,0,3,3,1,1,,,,,,,,,,,,,,,,,,,,,,,,,,,,,,,,,,,,,,,,,
909289,001,2022-11-13_23h27.49.969,Info_measure_main_exp,2022.2.2,Win32,61.10601894,,,,,,,,,,,,,,,,,,masks/mask_001.jpg,,,,,,,,,,,,,,,,,,,,,,,,,,,,,,,,,,,,,,,,,,,,,,,,0,4,4,0,1,,,,,,,,,,,,,,,,,,,,,,,,,,,,,,,,,,,,,,,,,
909289,001,2022-11-13_23h27.49.969,Info_measure_main_exp,2022.2.2,Win32,61.10601894,,,,,,,,,,,,,,,,,,,,,,,,,,,,,,0,1.0984,1,,,,,,,,,,,,0,131,5,5,2154,2154,absent_patch/patch0002154.jpg,absent_patch/patch0002154.jpg,,,,,,,,,,,,,,,,,,,,-0.017592536,0.157407407,1,0,0,response7disk,3,-0.009259259,0,1,0,0,center_square,0,2,2,89,1,,,,,,,,,,,,,,,,,,,,,,,
909289,001,2022-11-13_23h27.49.969,Info_measure_main_exp,2022.2.2,Win32,61.10601894,,,,,,,,,,,,,,,,,,masks/mask_001.jpg,,,,,,,,,,,,,,,,,,,,,,,,,,,,,,,,,,,,,,,,,,,0,0,0,0,1,,,,,,,,,,,,,,,,,,,,,,,,,,,,,,,,,,,,,,,,,,,,,,
909289,001,2022-11-13_23h27.49.969,Info_measure_main_exp,2022.2.2,Win32,61.10601894,,,,,,,,,,,,,,,,,,masks/mask_004.jpg,,,,,,,,,,,,,,,,,,,,,,,,,,,,,,,,,,,,,,,,,,,0,1,1,3,1,,,,,,,,,,,,,,,,,,,,,,,,,,,,,,,,,,,,,,,,,,,,,,
909289,001,2022-11-13_23h27.49.969,Info_measure_main_exp,2022.2.2,Win32,61.10601894,,,,,,,,,,,,,,,,,,masks/mask_002.jpg,,,,,,,,,,,,,,,,,,,,,,,,,,,,,,,,,,,,,,,,,,,0,2,2,1,1,,,,,,,,,,,,,,,,,,,,,,,,,,,,,,,,,,,,,,,,,,,,,,
909289,001,2022-11-13_23h27.49.969,Info_measure_main_exp,2022.2.2,Win32,61.10601894,,,,,,,,,,,,,,,,,,masks/mask_003.jpg,,,,,,,,,,,,,,,,,,,,,,,,,,,,,,,,,,,,,,,,,,,0,3,3,2,1,,,,,,,,,,,,,,,,,,,,,,,,,,,,,,,,,,,,,,,,,,,,,,
909289,001,2022-11-13_23h27.49.969,Info_measure_main_exp,2022.2.2,Win32,61.10601894,,,,,,,,,,,,,,,,,,masks/mask_005.jpg,,,,,,,,,,,,,,,,,,,,,,,,,,,,,,,,,,,,,,,,,,,0,4,4,4,1,,,,,,,,,,,,,,,,,,,,,,,,,,,,,,,,,,,,,,,,,,,,,,
909289,001,2022-11-13_23h27.49.969,Info_measure_main_exp,2022.2.2,Win32,61.10601894,,,,,,,,,,,,,,,,,,masks/mask_002.jpg,,,,,,,,,,,,,,,,,,,,,,,,,,,,,,,,,,,,,,,,,,,,,,,,0,0,0,1,1,,,,,,,,,,,,,,,,,,,,,,,,,,,,,,,,,,,,,,,,,
909289,001,2022-11-13_23h27.49.969,Info_measure_main_exp,2022.2.2,Win32,61.10601894,,,,,,,,,,,,,,,,,,masks/mask_001.jpg,,,,,,,,,,,,,,,,,,,,,,,,,,,,,,,,,,,,,,,,,,,,,,,,0,1,1,0,1,,,,,,,,,,,,,,,,,,,,,,,,,,,,,,,,,,,,,,,,,
909289,001,2022-11-13_23h27.49.969,Info_measure_main_exp,2022.2.2,Win32,61.10601894,,,,,,,,,,,,,,,,,,masks/mask_003.jpg,,,,,,,,,,,,,,,,,,,,,,,,,,,,,,,,,,,,,,,,,,,,,,,,0,2,2,2,1,,,,,,,,,,,,,,,,,,,,,,,,,,,,,,,,,,,,,,,,,
909289,001,2022-11-13_23h27.49.969,Info_measure_main_exp,2022.2.2,Win32,61.10601894,,,,,,,,,,,,,,,,,,masks/mask_004.jpg,,,,,,,,,,,,,,,,,,,,,,,,,,,,,,,,,,,,,,,,,,,,,,,,0,3,3,3,1,,,,,,,,,,,,,,,,,,,,,,,,,,,,,,,,,,,,,,,,,
909289,001,2022-11-13_23h27.49.969,Info_measure_main_exp,2022.2.2,Win32,61.10601894,,,,,,,,,,,,,,,,,,masks/mask_005.jpg,,,,,,,,,,,,,,,,,,,,,,,,,,,,,,,,,,,,,,,,,,,,,,,,0,4,4,4,1,,,,,,,,,,,,,,,,,,,,,,,,,,,,,,,,,,,,,,,,,
909289,001,2022-11-13_23h27.49.969,Info_measure_main_exp,2022.2.2,Win32,61.10601894,,,,,,,,,,,,,,,,,,,,,,,,,,,,,,7,0.8492,1,,,,,,,,,,,,0,131,5,5,2274,2238,absent_patch/patch0002274.jpg,absent_patch/patch0002238.jpg,,,,,,,,,,,,,,,,,,,,0.082407422,0.175925926,1,0,0,response1disk,4,0.005555612,-0.003703718,1,0,0,center_square,0,3,3,91,1,,,,,,,,,,,,,,,,,,,,,,,
909289,001,2022-11-13_23h27.49.969,Info_measure_main_exp,2022.2.2,Win32,61.10601894,,,,,,,,,,,,,,,,,,masks/mask_003.jpg,,,,,,,,,,,,,,,,,,,,,,,,,,,,,,,,,,,,,,,,,,,0,0,0,2,1,,,,,,,,,,,,,,,,,,,,,,,,,,,,,,,,,,,,,,,,,,,,,,
909289,001,2022-11-13_23h27.49.969,Info_measure_main_exp,2022.2.2,Win32,61.10601894,,,,,,,,,,,,,,,,,,masks/mask_001.jpg,,,,,,,,,,,,,,,,,,,,,,,,,,,,,,,,,,,,,,,,,,,0,1,1,0,1,,,,,,,,,,,,,,,,,,,,,,,,,,,,,,,,,,,,,,,,,,,,,,
909289,001,2022-11-13_23h27.49.969,Info_measure_main_exp,2022.2.2,Win32,61.10601894,,,,,,,,,,,,,,,,,,masks/mask_005.jpg,,,,,,,,,,,,,,,,,,,,,,,,,,,,,,,,,,,,,,,,,,,0,2,2,4,1,,,,,,,,,,,,,,,,,,,,,,,,,,,,,,,,,,,,,,,,,,,,,,
909289,001,2022-11-13_23h27.49.969,Info_measure_main_exp,2022.2.2,Win32,61.10601894,,,,,,,,,,,,,,,,,,masks/mask_004.jpg,,,,,,,,,,,,,,,,,,,,,,,,,,,,,,,,,,,,,,,,,,,0,3,3,3,1,,,,,,,,,,,,,,,,,,,,,,,,,,,,,,,,,,,,,,,,,,,,,,
909289,001,2022-11-13_23h27.49.969,Info_measure_main_exp,2022.2.2,Win32,61.10601894,,,,,,,,,,,,,,,,,,masks/mask_002.jpg,,,,,,,,,,,,,,,,,,,,,,,,,,,,,,,,,,,,,,,,,,,0,4,4,1,1,,,,,,,,,,,,,,,,,,,,,,,,,,,,,,,,,,,,,,,,,,,,,,
909289,001,2022-11-13_23h27.49.969,Info_measure_main_exp,2022.2.2,Win32,61.10601894,,,,,,,,,,,,,,,,,,masks/mask_005.jpg,,,,,,,,,,,,,,,,,,,,,,,,,,,,,,,,,,,,,,,,,,,,,,,,0,0,0,4,1,,,,,,,,,,,,,,,,,,,,,,,,,,,,,,,,,,,,,,,,,
909289,001,2022-11-13_23h27.49.969,Info_measure_main_exp,2022.2.2,Win32,61.10601894,,,,,,,,,,,,,,,,,,masks/mask_001.jpg,,,,,,,,,,,,,,,,,,,,,,,,,,,,,,,,,,,,,,,,,,,,,,,,0,1,1,0,1,,,,,,,,,,,,,,,,,,,,,,,,,,,,,,,,,,,,,,,,,
909289,001,2022-11-13_23h27.49.969,Info_measure_main_exp,2022.2.2,Win32,61.10601894,,,,,,,,,,,,,,,,,,masks/mask_003.jpg,,,,,,,,,,,,,,,,,,,,,,,,,,,,,,,,,,,,,,,,,,,,,,,,0,2,2,2,1,,,,,,,,,,,,,,,,,,,,,,,,,,,,,,,,,,,,,,,,,
909289,001,2022-11-13_23h27.49.969,Info_measure_main_exp,2022.2.2,Win32,61.10601894,,,,,,,,,,,,,,,,,,masks/mask_004.jpg,,,,,,,,,,,,,,,,,,,,,,,,,,,,,,,,,,,,,,,,,,,,,,,,0,3,3,3,1,,,,,,,,,,,,,,,,,,,,,,,,,,,,,,,,,,,,,,,,,
909289,001,2022-11-13_23h27.49.969,Info_measure_main_exp,2022.2.2,Win32,61.10601894,,,,,,,,,,,,,,,,,,masks/mask_002.jpg,,,,,,,,,,,,,,,,,,,,,,,,,,,,,,,,,,,,,,,,,,,,,,,,0,4,4,1,1,,,,,,,,,,,,,,,,,,,,,,,,,,,,,,,,,,,,,,,,,
909289,001,2022-11-13_23h27.49.969,Info_measure_main_exp,2022.2.2,Win32,61.10601894,,,,,,,,,,,,,,,,,,,,,,,,,,,,,,7,0.9986,1,,,,,,,,,,,,0,131,5,5,2274,2178,absent_patch/patch0002274.jpg,absent_patch/patch0002178.jpg,,,,,,,,,,,,,,,,,,,,0.062037079,0.16574072,1,0,0,response1disk,5,0,0.0074074,1,0,0,center_square,0,4,4,117,1,,,,,,,,,,,,,,,,,,,,,,,
909289,001,2022-11-13_23h27.49.969,Info_measure_main_exp,2022.2.2,Win32,61.10601894,,,,,,,,,,,,,,,,,,masks/mask_001.jpg,,,,,,,,,,,,,,,,,,,,,,,,,,,,,,,,,,,,,,,,,,,0,0,0,0,1,,,,,,,,,,,,,,,,,,,,,,,,,,,,,,,,,,,,,,,,,,,,,,
909289,001,2022-11-13_23h27.49.969,Info_measure_main_exp,2022.2.2,Win32,61.10601894,,,,,,,,,,,,,,,,,,masks/mask_004.jpg,,,,,,,,,,,,,,,,,,,,,,,,,,,,,,,,,,,,,,,,,,,0,1,1,3,1,,,,,,,,,,,,,,,,,,,,,,,,,,,,,,,,,,,,,,,,,,,,,,
909289,001,2022-11-13_23h27.49.969,Info_measure_main_exp,2022.2.2,Win32,61.10601894,,,,,,,,,,,,,,,,,,masks/mask_005.jpg,,,,,,,,,,,,,,,,,,,,,,,,,,,,,,,,,,,,,,,,,,,0,2,2,4,1,,,,,,,,,,,,,,,,,,,,,,,,,,,,,,,,,,,,,,,,,,,,,,
909289,001,2022-11-13_23h27.49.969,Info_measure_main_exp,2022.2.2,Win32,61.10601894,,,,,,,,,,,,,,,,,,masks/mask_003.jpg,,,,,,,,,,,,,,,,,,,,,,,,,,,,,,,,,,,,,,,,,,,0,3,3,2,1,,,,,,,,,,,,,,,,,,,,,,,,,,,,,,,,,,,,,,,,,,,,,,
909289,001,2022-11-13_23h27.49.969,Info_measure_main_exp,2022.2.2,Win32,61.10601894,,,,,,,,,,,,,,,,,,masks/mask_002.jpg,,,,,,,,,,,,,,,,,,,,,,,,,,,,,,,,,,,,,,,,,,,0,4,4,1,1,,,,,,,,,,,,,,,,,,,,,,,,,,,,,,,,,,,,,,,,,,,,,,
909289,001,2022-11-13_23h27.49.969,Info_measure_main_exp,2022.2.2,Win32,61.10601894,,,,,,,,,,,,,,,,,,masks/mask_005.jpg,,,,,,,,,,,,,,,,,,,,,,,,,,,,,,,,,,,,,,,,,,,,,,,,0,0,0,4,1,,,,,,,,,,,,,,,,,,,,,,,,,,,,,,,,,,,,,,,,,
909289,001,2022-11-13_23h27.49.969,Info_measure_main_exp,2022.2.2,Win32,61.10601894,,,,,,,,,,,,,,,,,,masks/mask_004.jpg,,,,,,,,,,,,,,,,,,,,,,,,,,,,,,,,,,,,,,,,,,,,,,,,0,1,1,3,1,,,,,,,,,,,,,,,,,,,,,,,,,,,,,,,,,,,,,,,,,
909289,001,2022-11-13_23h27.49.969,Info_measure_main_exp,2022.2.2,Win32,61.10601894,,,,,,,,,,,,,,,,,,masks/mask_003.jpg,,,,,,,,,,,,,,,,,,,,,,,,,,,,,,,,,,,,,,,,,,,,,,,,0,2,2,2,1,,,,,,,,,,,,,,,,,,,,,,,,,,,,,,,,,,,,,,,,,
909289,001,2022-11-13_23h27.49.969,Info_measure_main_exp,2022.2.2,Win32,61.10601894,,,,,,,,,,,,,,,,,,masks/mask_002.jpg,,,,,,,,,,,,,,,,,,,,,,,,,,,,,,,,,,,,,,,,,,,,,,,,0,3,3,1,1,,,,,,,,,,,,,,,,,,,,,,,,,,,,,,,,,,,,,,,,,
909289,001,2022-11-13_23h27.49.969,Info_measure_main_exp,2022.2.2,Win32,61.10601894,,,,,,,,,,,,,,,,,,masks/mask_001.jpg,,,,,,,,,,,,,,,,,,,,,,,,,,,,,,,,,,,,,,,,,,,,,,,,0,4,4,0,1,,,,,,,,,,,,,,,,,,,,,,,,,,,,,,,,,,,,,,,,,
909289,001,2022-11-13_23h27.49.969,Info_measure_main_exp,2022.2.2,Win32,61.10601894,,,,,,,,,,,,,,,,,,,,,,,,,,,,,,1,1.7817,1,,,,,,,,,,,,0,131,5,5,2214,2214,absent_patch/patch0002214.jpg,absent_patch/patch0002214.jpg,,,,,,,,,,,,,,,,,,,,-0.12037037,0.030555548,1,0,0,response7disk,6,-0.00462963,0.001851859,1,0,0,center_square,0,5,5,115,1,,,,,,,,,,,,,,,,,,,,,,,
909289,001,2022-11-13_23h27.49.969,Info_measure_main_exp,2022.2.2,Win32,61.10601894,,,,,,,,,,,,,,,,,,masks/mask_002.jpg,,,,,,,,,,,,,,,,,,,,,,,,,,,,,,,,,,,,,,,,,,,0,0,0,1,1,,,,,,,,,,,,,,,,,,,,,,,,,,,,,,,,,,,,,,,,,,,,,,
909289,001,2022-11-13_23h27.49.969,Info_measure_main_exp,2022.2.2,Win32,61.10601894,,,,,,,,,,,,,,,,,,masks/mask_005.jpg,,,,,,,,,,,,,,,,,,,,,,,,,,,,,,,,,,,,,,,,,,,0,1,1,4,1,,,,,,,,,,,,,,,,,,,,,,,,,,,,,,,,,,,,,,,,,,,,,,
909289,001,2022-11-13_23h27.49.969,Info_measure_main_exp,2022.2.2,Win32,61.10601894,,,,,,,,,,,,,,,,,,masks/mask_001.jpg,,,,,,,,,,,,,,,,,,,,,,,,,,,,,,,,,,,,,,,,,,,0,2,2,0,1,,,,,,,,,,,,,,,,,,,,,,,,,,,,,,,,,,,,,,,,,,,,,,
909289,001,2022-11-13_23h27.49.969,Info_measure_main_exp,2022.2.2,Win32,61.10601894,,,,,,,,,,,,,,,,,,masks/mask_004.jpg,,,,,,,,,,,,,,,,,,,,,,,,,,,,,,,,,,,,,,,,,,,0,3,3,3,1,,,,,,,,,,,,,,,,,,,,,,,,,,,,,,,,,,,,,,,,,,,,,,
909289,001,2022-11-13_23h27.49.969,Info_measure_main_exp,2022.2.2,Win32,61.10601894,,,,,,,,,,,,,,,,,,masks/mask_003.jpg,,,,,,,,,,,,,,,,,,,,,,,,,,,,,,,,,,,,,,,,,,,0,4,4,2,1,,,,,,,,,,,,,,,,,,,,,,,,,,,,,,,,,,,,,,,,,,,,,,
909289,001,2022-11-13_23h27.49.969,Info_measure_main_exp,2022.2.2,Win32,61.10601894,,,,,,,,,,,,,,,,,,masks/mask_003.jpg,,,,,,,,,,,,,,,,,,,,,,,,,,,,,,,,,,,,,,,,,,,,,,,,0,0,0,2,1,,,,,,,,,,,,,,,,,,,,,,,,,,,,,,,,,,,,,,,,,
909289,001,2022-11-13_23h27.49.969,Info_measure_main_exp,2022.2.2,Win32,61.10601894,,,,,,,,,,,,,,,,,,masks/mask_005.jpg,,,,,,,,,,,,,,,,,,,,,,,,,,,,,,,,,,,,,,,,,,,,,,,,0,1,1,4,1,,,,,,,,,,,,,,,,,,,,,,,,,,,,,,,,,,,,,,,,,
909289,001,2022-11-13_23h27.49.969,Info_measure_main_exp,2022.2.2,Win32,61.10601894,,,,,,,,,,,,,,,,,,masks/mask_002.jpg,,,,,,,,,,,,,,,,,,,,,,,,,,,,,,,,,,,,,,,,,,,,,,,,0,2,2,1,1,,,,,,,,,,,,,,,,,,,,,,,,,,,,,,,,,,,,,,,,,
909289,001,2022-11-13_23h27.49.969,Info_measure_main_exp,2022.2.2,Win32,61.10601894,,,,,,,,,,,,,,,,,,masks/mask_001.jpg,,,,,,,,,,,,,,,,,,,,,,,,,,,,,,,,,,,,,,,,,,,,,,,,0,3,3,0,1,,,,,,,,,,,,,,,,,,,,,,,,,,,,,,,,,,,,,,,,,
909289,001,2022-11-13_23h27.49.969,Info_measure_main_exp,2022.2.2,Win32,61.10601894,,,,,,,,,,,,,,,,,,masks/mask_004.jpg,,,,,,,,,,,,,,,,,,,,,,,,,,,,,,,,,,,,,,,,,,,,,,,,0,4,4,3,1,,,,,,,,,,,,,,,,,,,,,,,,,,,,,,,,,,,,,,,,,
909289,001,2022-11-13_23h27.49.969,Info_measure_main_exp,2022.2.2,Win32,61.10601894,,,,,,,,,,,,,,,,,,,,,,,,,,,,,,7,0.6996,1,,,,,,,,,,,,0,131,5,5,1974,2238,absent_patch/patch0001974.jpg,absent_patch/patch0002238.jpg,,,,,,,,,,,,,,,,,,,,0.075925968,0.119444423,1,0,0,response1disk,7,-0.00462963,0.000925912,1,0,0,center_square,0,6,6,95,1,,,,,,,,,,,,,,,,,,,,,,,
909289,001,2022-11-13_23h27.49.969,Info_measure_main_exp,2022.2.2,Win32,61.10601894,,,,,,,,,,,,,,,,,,masks/mask_001.jpg,,,,,,,,,,,,,,,,,,,,,,,,,,,,,,,,,,,,,,,,,,,0,0,0,0,1,,,,,,,,,,,,,,,,,,,,,,,,,,,,,,,,,,,,,,,,,,,,,,
909289,001,2022-11-13_23h27.49.969,Info_measure_main_exp,2022.2.2,Win32,61.10601894,,,,,,,,,,,,,,,,,,masks/mask_005.jpg,,,,,,,,,,,,,,,,,,,,,,,,,,,,,,,,,,,,,,,,,,,0,1,1,4,1,,,,,,,,,,,,,,,,,,,,,,,,,,,,,,,,,,,,,,,,,,,,,,
909289,001,2022-11-13_23h27.49.969,Info_measure_main_exp,2022.2.2,Win32,61.10601894,,,,,,,,,,,,,,,,,,masks/mask_002.jpg,,,,,,,,,,,,,,,,,,,,,,,,,,,,,,,,,,,,,,,,,,,0,2,2,1,1,,,,,,,,,,,,,,,,,,,,,,,,,,,,,,,,,,,,,,,,,,,,,,
909289,001,2022-11-13_23h27.49.969,Info_measure_main_exp,2022.2.2,Win32,61.10601894,,,,,,,,,,,,,,,,,,masks/mask_003.jpg,,,,,,,,,,,,,,,,,,,,,,,,,,,,,,,,,,,,,,,,,,,0,3,3,2,1,,,,,,,,,,,,,,,,,,,,,,,,,,,,,,,,,,,,,,,,,,,,,,
909289,001,2022-11-13_23h27.49.969,Info_measure_main_exp,2022.2.2,Win32,61.10601894,,,,,,,,,,,,,,,,,,masks/mask_004.jpg,,,,,,,,,,,,,,,,,,,,,,,,,,,,,,,,,,,,,,,,,,,0,4,4,3,1,,,,,,,,,,,,,,,,,,,,,,,,,,,,,,,,,,,,,,,,,,,,,,
909289,001,2022-11-13_23h27.49.969,Info_measure_main_exp,2022.2.2,Win32,61.10601894,,,,,,,,,,,,,,,,,,masks/mask_005.jpg,,,,,,,,,,,,,,,,,,,,,,,,,,,,,,,,,,,,,,,,,,,,,,,,0,0,0,4,1,,,,,,,,,,,,,,,,,,,,,,,,,,,,,,,,,,,,,,,,,
909289,001,2022-11-13_23h27.49.969,Info_measure_main_exp,2022.2.2,Win32,61.10601894,,,,,,,,,,,,,,,,,,masks/mask_004.jpg,,,,,,,,,,,,,,,,,,,,,,,,,,,,,,,,,,,,,,,,,,,,,,,,0,1,1,3,1,,,,,,,,,,,,,,,,,,,,,,,,,,,,,,,,,,,,,,,,,
909289,001,2022-11-13_23h27.49.969,Info_measure_main_exp,2022.2.2,Win32,61.10601894,,,,,,,,,,,,,,,,,,masks/mask_003.jpg,,,,,,,,,,,,,,,,,,,,,,,,,,,,,,,,,,,,,,,,,,,,,,,,0,2,2,2,1,,,,,,,,,,,,,,,,,,,,,,,,,,,,,,,,,,,,,,,,,
909289,001,2022-11-13_23h27.49.969,Info_measure_main_exp,2022.2.2,Win32,61.10601894,,,,,,,,,,,,,,,,,,masks/mask_001.jpg,,,,,,,,,,,,,,,,,,,,,,,,,,,,,,,,,,,,,,,,,,,,,,,,0,3,3,0,1,,,,,,,,,,,,,,,,,,,,,,,,,,,,,,,,,,,,,,,,,
909289,001,2022-11-13_23h27.49.969,Info_measure_main_exp,2022.2.2,Win32,61.10601894,,,,,,,,,,,,,,,,,,masks/mask_002.jpg,,,,,,,,,,,,,,,,,,,,,,,,,,,,,,,,,,,,,,,,,,,,,,,,0,4,4,1,1,,,,,,,,,,,,,,,,,,,,,,,,,,,,,,,,,,,,,,,,,
909289,001,2022-11-13_23h27.49.969,Info_measure_main_exp,2022.2.2,Win32,61.10601894,,,,,,,,,,,,,,,,,,,,,,,,,,,,,,7,0.6324,1,,,,,,,,,,,,0,131,5,5,2250,1950,absent_patch/patch0002250.jpg,absent_patch/patch0001950.jpg,,,,,,,,,,,,,,,,,,,,0.05740745,0.135185171,1,0,0,response1disk,8,-0.005555541,-0.011111118,1,0,0,center_square,0,7,7,16,1,,,,,,,,,,,,,,,,,,,,,,,
909289,001,2022-11-13_23h27.49.969,Info_measure_main_exp,2022.2.2,Win32,61.10601894,,,,,,,,,,,,,,,,,,masks/mask_001.jpg,,,,,,,,,,,,,,,,,,,,,,,,,,,,,,,,,,,,,,,,,,,0,0,0,0,1,,,,,,,,,,,,,,,,,,,,,,,,,,,,,,,,,,,,,,,,,,,,,,
909289,001,2022-11-13_23h27.49.969,Info_measure_main_exp,2022.2.2,Win32,61.10601894,,,,,,,,,,,,,,,,,,masks/mask_004.jpg,,,,,,,,,,,,,,,,,,,,,,,,,,,,,,,,,,,,,,,,,,,0,1,1,3,1,,,,,,,,,,,,,,,,,,,,,,,,,,,,,,,,,,,,,,,,,,,,,,
909289,001,2022-11-13_23h27.49.969,Info_measure_main_exp,2022.2.2,Win32,61.10601894,,,,,,,,,,,,,,,,,,masks/mask_002.jpg,,,,,,,,,,,,,,,,,,,,,,,,,,,,,,,,,,,,,,,,,,,0,2,2,1,1,,,,,,,,,,,,,,,,,,,,,,,,,,,,,,,,,,,,,,,,,,,,,,
909289,001,2022-11-13_23h27.49.969,Info_measure_main_exp,2022.2.2,Win32,61.10601894,,,,,,,,,,,,,,,,,,masks/mask_005.jpg,,,,,,,,,,,,,,,,,,,,,,,,,,,,,,,,,,,,,,,,,,,0,3,3,4,1,,,,,,,,,,,,,,,,,,,,,,,,,,,,,,,,,,,,,,,,,,,,,,
909289,001,2022-11-13_23h27.49.969,Info_measure_main_exp,2022.2.2,Win32,61.10601894,,,,,,,,,,,,,,,,,,masks/mask_003.jpg,,,,,,,,,,,,,,,,,,,,,,,,,,,,,,,,,,,,,,,,,,,0,4,4,2,1,,,,,,,,,,,,,,,,,,,,,,,,,,,,,,,,,,,,,,,,,,,,,,
909289,001,2022-11-13_23h27.49.969,Info_measure_main_exp,2022.2.2,Win32,61.10601894,,,,,,,,,,,,,,,,,,masks/mask_001.jpg,,,,,,,,,,,,,,,,,,,,,,,,,,,,,,,,,,,,,,,,,,,,,,,,0,0,0,0,1,,,,,,,,,,,,,,,,,,,,,,,,,,,,,,,,,,,,,,,,,
909289,001,2022-11-13_23h27.49.969,Info_measure_main_exp,2022.2.2,Win32,61.10601894,,,,,,,,,,,,,,,,,,masks/mask_003.jpg,,,,,,,,,,,,,,,,,,,,,,,,,,,,,,,,,,,,,,,,,,,,,,,,0,1,1,2,1,,,,,,,,,,,,,,,,,,,,,,,,,,,,,,,,,,,,,,,,,
909289,001,2022-11-13_23h27.49.969,Info_measure_main_exp,2022.2.2,Win32,61.10601894,,,,,,,,,,,,,,,,,,masks/mask_005.jpg,,,,,,,,,,,,,,,,,,,,,,,,,,,,,,,,,,,,,,,,,,,,,,,,0,2,2,4,1,,,,,,,,,,,,,,,,,,,,,,,,,,,,,,,,,,,,,,,,,
909289,001,2022-11-13_23h27.49.969,Info_measure_main_exp,2022.2.2,Win32,61.10601894,,,,,,,,,,,,,,,,,,masks/mask_004.jpg,,,,,,,,,,,,,,,,,,,,,,,,,,,,,,,,,,,,,,,,,,,,,,,,0,3,3,3,1,,,,,,,,,,,,,,,,,,,,,,,,,,,,,,,,,,,,,,,,,
909289,001,2022-11-13_23h27.49.969,Info_measure_main_exp,2022.2.2,Win32,61.10601894,,,,,,,,,,,,,,,,,,masks/mask_002.jpg,,,,,,,,,,,,,,,,,,,,,,,,,,,,,,,,,,,,,,,,,,,,,,,,0,4,4,1,1,,,,,,,,,,,,,,,,,,,,,,,,,,,,,,,,,,,,,,,,,
909289,001,2022-11-13_23h27.49.969,Info_measure_main_exp,2022.2.2,Win32,61.10601894,,,,,,,,,,,,,,,,,,,,,,,,,,,,,,7,0.5831,1,,,,,,,,,,,,0,131,5,5,2154,2238,absent_patch/patch0002154.jpg,absent_patch/patch0002238.jpg,,,,,,,,,,,,,,,,,,,,0.060185185,0.126851824,1,0,0,response1disk,9,0.002777806,0.000925912,1,0,0,center_square,0,8,8,21,1,,,,,,,,,,,,,,,,,,,,,,,
909289,001,2022-11-13_23h27.49.969,Info_measure_main_exp,2022.2.2,Win32,61.10601894,,,,,,,,,,,,,,,,,,masks/mask_005.jpg,,,,,,,,,,,,,,,,,,,,,,,,,,,,,,,,,,,,,,,,,,,0,0,0,4,1,,,,,,,,,,,,,,,,,,,,,,,,,,,,,,,,,,,,,,,,,,,,,,
909289,001,2022-11-13_23h27.49.969,Info_measure_main_exp,2022.2.2,Win32,61.10601894,,,,,,,,,,,,,,,,,,masks/mask_004.jpg,,,,,,,,,,,,,,,,,,,,,,,,,,,,,,,,,,,,,,,,,,,0,1,1,3,1,,,,,,,,,,,,,,,,,,,,,,,,,,,,,,,,,,,,,,,,,,,,,,
909289,001,2022-11-13_23h27.49.969,Info_measure_main_exp,2022.2.2,Win32,61.10601894,,,,,,,,,,,,,,,,,,masks/mask_002.jpg,,,,,,,,,,,,,,,,,,,,,,,,,,,,,,,,,,,,,,,,,,,0,2,2,1,1,,,,,,,,,,,,,,,,,,,,,,,,,,,,,,,,,,,,,,,,,,,,,,
909289,001,2022-11-13_23h27.49.969,Info_measure_main_exp,2022.2.2,Win32,61.10601894,,,,,,,,,,,,,,,,,,masks/mask_001.jpg,,,,,,,,,,,,,,,,,,,,,,,,,,,,,,,,,,,,,,,,,,,0,3,3,0,1,,,,,,,,,,,,,,,,,,,,,,,,,,,,,,,,,,,,,,,,,,,,,,
909289,001,2022-11-13_23h27.49.969,Info_measure_main_exp,2022.2.2,Win32,61.10601894,,,,,,,,,,,,,,,,,,masks/mask_003.jpg,,,,,,,,,,,,,,,,,,,,,,,,,,,,,,,,,,,,,,,,,,,0,4,4,2,1,,,,,,,,,,,,,,,,,,,,,,,,,,,,,,,,,,,,,,,,,,,,,,
909289,001,2022-11-13_23h27.49.969,Info_measure_main_exp,2022.2.2,Win32,61.10601894,,,,,,,,,,,,,,,,,,masks/mask_001.jpg,,,,,,,,,,,,,,,,,,,,,,,,,,,,,,,,,,,,,,,,,,,,,,,,0,0,0,0,1,,,,,,,,,,,,,,,,,,,,,,,,,,,,,,,,,,,,,,,,,
909289,001,2022-11-13_23h27.49.969,Info_measure_main_exp,2022.2.2,Win32,61.10601894,,,,,,,,,,,,,,,,,,masks/mask_005.jpg,,,,,,,,,,,,,,,,,,,,,,,,,,,,,,,,,,,,,,,,,,,,,,,,0,1,1,4,1,,,,,,,,,,,,,,,,,,,,,,,,,,,,,,,,,,,,,,,,,
909289,001,2022-11-13_23h27.49.969,Info_measure_main_exp,2022.2.2,Win32,61.10601894,,,,,,,,,,,,,,,,,,masks/mask_004.jpg,,,,,,,,,,,,,,,,,,,,,,,,,,,,,,,,,,,,,,,,,,,,,,,,0,2,2,3,1,,,,,,,,,,,,,,,,,,,,,,,,,,,,,,,,,,,,,,,,,
909289,001,2022-11-13_23h27.49.969,Info_measure_main_exp,2022.2.2,Win32,61.10601894,,,,,,,,,,,,,,,,,,masks/mask_003.jpg,,,,,,,,,,,,,,,,,,,,,,,,,,,,,,,,,,,,,,,,,,,,,,,,0,3,3,2,1,,,,,,,,,,,,,,,,,,,,,,,,,,,,,,,,,,,,,,,,,
909289,001,2022-11-13_23h27.49.969,Info_measure_main_exp,2022.2.2,Win32,61.10601894,,,,,,,,,,,,,,,,,,masks/mask_002.jpg,,,,,,,,,,,,,,,,,,,,,,,,,,,,,,,,,,,,,,,,,,,,,,,,0,4,4,1,1,,,,,,,,,,,,,,,,,,,,,,,,,,,,,,,,,,,,,,,,,
909289,001,2022-11-13_23h27.49.969,Info_measure_main_exp,2022.2.2,Win32,61.10601894,,,,,,,,,,,,,,,,,,,,,,,,,,,,,,7,0.6668,1,,,,,,,,,,,,0,131,5,5,2250,1986,absent_patch/patch0002250.jpg,absent_patch/patch0001986.jpg,,,,,,,,,,,,,,,,,,,,0.043518561,0.147222201,1,0,0,response1disk,10,0,0.010185171,1,0,0,center_square,0,9,9,29,1,,,,,,,,,,,,,,,,,,,,,,,
909289,001,2022-11-13_23h27.49.969,Info_measure_main_exp,2022.2.2,Win32,61.10601894,,,,,,,,,,,,,,,,,,masks/mask_004.jpg,,,,,,,,,,,,,,,,,,,,,,,,,,,,,,,,,,,,,,,,,,,0,0,0,3,1,,,,,,,,,,,,,,,,,,,,,,,,,,,,,,,,,,,,,,,,,,,,,,
909289,001,2022-11-13_23h27.49.969,Info_measure_main_exp,2022.2.2,Win32,61.10601894,,,,,,,,,,,,,,,,,,masks/mask_001.jpg,,,,,,,,,,,,,,,,,,,,,,,,,,,,,,,,,,,,,,,,,,,0,1,1,0,1,,,,,,,,,,,,,,,,,,,,,,,,,,,,,,,,,,,,,,,,,,,,,,
909289,001,2022-11-13_23h27.49.969,Info_measure_main_exp,2022.2.2,Win32,61.10601894,,,,,,,,,,,,,,,,,,masks/mask_002.jpg,,,,,,,,,,,,,,,,,,,,,,,,,,,,,,,,,,,,,,,,,,,0,2,2,1,1,,,,,,,,,,,,,,,,,,,,,,,,,,,,,,,,,,,,,,,,,,,,,,
909289,001,2022-11-13_23h27.49.969,Info_measure_main_exp,2022.2.2,Win32,61.10601894,,,,,,,,,,,,,,,,,,masks/mask_005.jpg,,,,,,,,,,,,,,,,,,,,,,,,,,,,,,,,,,,,,,,,,,,0,3,3,4,1,,,,,,,,,,,,,,,,,,,,,,,,,,,,,,,,,,,,,,,,,,,,,,
909289,001,2022-11-13_23h27.49.969,Info_measure_main_exp,2022.2.2,Win32,61.10601894,,,,,,,,,,,,,,,,,,masks/mask_003.jpg,,,,,,,,,,,,,,,,,,,,,,,,,,,,,,,,,,,,,,,,,,,0,4,4,2,1,,,,,,,,,,,,,,,,,,,,,,,,,,,,,,,,,,,,,,,,,,,,,,
909289,001,2022-11-13_23h27.49.969,Info_measure_main_exp,2022.2.2,Win32,61.10601894,,,,,,,,,,,,,,,,,,masks/mask_003.jpg,,,,,,,,,,,,,,,,,,,,,,,,,,,,,,,,,,,,,,,,,,,,,,,,0,0,0,2,1,,,,,,,,,,,,,,,,,,,,,,,,,,,,,,,,,,,,,,,,,
909289,001,2022-11-13_23h27.49.969,Info_measure_main_exp,2022.2.2,Win32,61.10601894,,,,,,,,,,,,,,,,,,masks/mask_005.jpg,,,,,,,,,,,,,,,,,,,,,,,,,,,,,,,,,,,,,,,,,,,,,,,,0,1,1,4,1,,,,,,,,,,,,,,,,,,,,,,,,,,,,,,,,,,,,,,,,,
909289,001,2022-11-13_23h27.49.969,Info_measure_main_exp,2022.2.2,Win32,61.10601894,,,,,,,,,,,,,,,,,,masks/mask_004.jpg,,,,,,,,,,,,,,,,,,,,,,,,,,,,,,,,,,,,,,,,,,,,,,,,0,2,2,3,1,,,,,,,,,,,,,,,,,,,,,,,,,,,,,,,,,,,,,,,,,
909289,001,2022-11-13_23h27.49.969,Info_measure_main_exp,2022.2.2,Win32,61.10601894,,,,,,,,,,,,,,,,,,masks/mask_001.jpg,,,,,,,,,,,,,,,,,,,,,,,,,,,,,,,,,,,,,,,,,,,,,,,,0,3,3,0,1,,,,,,,,,,,,,,,,,,,,,,,,,,,,,,,,,,,,,,,,,
909289,001,2022-11-13_23h27.49.969,Info_measure_main_exp,2022.2.2,Win32,61.10601894,,,,,,,,,,,,,,,,,,masks/mask_002.jpg,,,,,,,,,,,,,,,,,,,,,,,,,,,,,,,,,,,,,,,,,,,,,,,,0,4,4,1,1,,,,,,,,,,,,,,,,,,,,,,,,,,,,,,,,,,,,,,,,,
909289,001,2022-11-13_23h27.49.969,Info_measure_main_exp,2022.2.2,Win32,61.10601894,,,,,,,,,,,,,,,,,,,,,,,,,,,,,,0,0.5996,1,,,,,,,,,,,,1,131,5,5,1,1,present_patch/cong_131_5_a.jpg,present_patch/cong_131_5_a.jpg,,,,,,,,,,,,,,,,,,,,-0.035185143,0.181481467,1,0,0,response7disk,11,-0.007407365,-0.008333347,1,0,0,center_square,0,10,10,30,1,,,,,,,,,,,,,,,,,,,,,,,
909289,001,2022-11-13_23h27.49.969,Info_measure_main_exp,2022.2.2,Win32,61.10601894,,,,,,,,,,,,,,,,,,masks/mask_004.jpg,,,,,,,,,,,,,,,,,,,,,,,,,,,,,,,,,,,,,,,,,,,0,0,0,3,1,,,,,,,,,,,,,,,,,,,,,,,,,,,,,,,,,,,,,,,,,,,,,,
909289,001,2022-11-13_23h27.49.969,Info_measure_main_exp,2022.2.2,Win32,61.10601894,,,,,,,,,,,,,,,,,,masks/mask_002.jpg,,,,,,,,,,,,,,,,,,,,,,,,,,,,,,,,,,,,,,,,,,,0,1,1,1,1,,,,,,,,,,,,,,,,,,,,,,,,,,,,,,,,,,,,,,,,,,,,,,
909289,001,2022-11-13_23h27.49.969,Info_measure_main_exp,2022.2.2,Win32,61.10601894,,,,,,,,,,,,,,,,,,masks/mask_003.jpg,,,,,,,,,,,,,,,,,,,,,,,,,,,,,,,,,,,,,,,,,,,0,2,2,2,1,,,,,,,,,,,,,,,,,,,,,,,,,,,,,,,,,,,,,,,,,,,,,,
909289,001,2022-11-13_23h27.49.969,Info_measure_main_exp,2022.2.2,Win32,61.10601894,,,,,,,,,,,,,,,,,,masks/mask_005.jpg,,,,,,,,,,,,,,,,,,,,,,,,,,,,,,,,,,,,,,,,,,,0,3,3,4,1,,,,,,,,,,,,,,,,,,,,,,,,,,,,,,,,,,,,,,,,,,,,,,
909289,001,2022-11-13_23h27.49.969,Info_measure_main_exp,2022.2.2,Win32,61.10601894,,,,,,,,,,,,,,,,,,masks/mask_001.jpg,,,,,,,,,,,,,,,,,,,,,,,,,,,,,,,,,,,,,,,,,,,0,4,4,0,1,,,,,,,,,,,,,,,,,,,,,,,,,,,,,,,,,,,,,,,,,,,,,,
909289,001,2022-11-13_23h27.49.969,Info_measure_main_exp,2022.2.2,Win32,61.10601894,,,,,,,,,,,,,,,,,,masks/mask_001.jpg,,,,,,,,,,,,,,,,,,,,,,,,,,,,,,,,,,,,,,,,,,,,,,,,0,0,0,0,1,,,,,,,,,,,,,,,,,,,,,,,,,,,,,,,,,,,,,,,,,
909289,001,2022-11-13_23h27.49.969,Info_measure_main_exp,2022.2.2,Win32,61.10601894,,,,,,,,,,,,,,,,,,masks/mask_004.jpg,,,,,,,,,,,,,,,,,,,,,,,,,,,,,,,,,,,,,,,,,,,,,,,,0,1,1,3,1,,,,,,,,,,,,,,,,,,,,,,,,,,,,,,,,,,,,,,,,,
909289,001,2022-11-13_23h27.49.969,Info_measure_main_exp,2022.2.2,Win32,61.10601894,,,,,,,,,,,,,,,,,,masks/mask_003.jpg,,,,,,,,,,,,,,,,,,,,,,,,,,,,,,,,,,,,,,,,,,,,,,,,0,2,2,2,1,,,,,,,,,,,,,,,,,,,,,,,,,,,,,,,,,,,,,,,,,
909289,001,2022-11-13_23h27.49.969,Info_measure_main_exp,2022.2.2,Win32,61.10601894,,,,,,,,,,,,,,,,,,masks/mask_002.jpg,,,,,,,,,,,,,,,,,,,,,,,,,,,,,,,,,,,,,,,,,,,,,,,,0,3,3,1,1,,,,,,,,,,,,,,,,,,,,,,,,,,,,,,,,,,,,,,,,,
909289,001,2022-11-13_23h27.49.969,Info_measure_main_exp,2022.2.2,Win32,61.10601894,,,,,,,,,,,,,,,,,,masks/mask_005.jpg,,,,,,,,,,,,,,,,,,,,,,,,,,,,,,,,,,,,,,,,,,,,,,,,0,4,4,4,1,,,,,,,,,,,,,,,,,,,,,,,,,,,,,,,,,,,,,,,,,
909289,001,2022-11-13_23h27.49.969,Info_measure_main_exp,2022.2.2,Win32,61.10601894,,,,,,,,,,,,,,,,,,,,,,,,,,,,,,1,1.0986,1,,,,,,,,,,,,0,131,5,5,1986,2154,absent_patch/patch0001986.jpg,absent_patch/patch0002154.jpg,,,,,,,,,,,,,,,,,,,,-0.126851824,0.034259231,1,0,0,response7disk,12,-0.010185171,-0.005555577,1,0,0,center_square,0,11,11,36,1,,,,,,,,,,,,,,,,,,,,,,,
909289,001,2022-11-13_23h27.49.969,Info_measure_main_exp,2022.2.2,Win32,61.10601894,,,,,,,,,,,,,,,,,,masks/mask_003.jpg,,,,,,,,,,,,,,,,,,,,,,,,,,,,,,,,,,,,,,,,,,,0,0,0,2,1,,,,,,,,,,,,,,,,,,,,,,,,,,,,,,,,,,,,,,,,,,,,,,
909289,001,2022-11-13_23h27.49.969,Info_measure_main_exp,2022.2.2,Win32,61.10601894,,,,,,,,,,,,,,,,,,masks/mask_005.jpg,,,,,,,,,,,,,,,,,,,,,,,,,,,,,,,,,,,,,,,,,,,0,1,1,4,1,,,,,,,,,,,,,,,,,,,,,,,,,,,,,,,,,,,,,,,,,,,,,,
909289,001,2022-11-13_23h27.49.969,Info_measure_main_exp,2022.2.2,Win32,61.10601894,,,,,,,,,,,,,,,,,,masks/mask_002.jpg,,,,,,,,,,,,,,,,,,,,,,,,,,,,,,,,,,,,,,,,,,,0,2,2,1,1,,,,,,,,,,,,,,,,,,,,,,,,,,,,,,,,,,,,,,,,,,,,,,
909289,001,2022-11-13_23h27.49.969,Info_measure_main_exp,2022.2.2,Win32,61.10601894,,,,,,,,,,,,,,,,,,masks/mask_001.jpg,,,,,,,,,,,,,,,,,,,,,,,,,,,,,,,,,,,,,,,,,,,0,3,3,0,1,,,,,,,,,,,,,,,,,,,,,,,,,,,,,,,,,,,,,,,,,,,,,,
909289,001,2022-11-13_23h27.49.969,Info_measure_main_exp,2022.2.2,Win32,61.10601894,,,,,,,,,,,,,,,,,,masks/mask_004.jpg,,,,,,,,,,,,,,,,,,,,,,,,,,,,,,,,,,,,,,,,,,,0,4,4,3,1,,,,,,,,,,,,,,,,,,,,,,,,,,,,,,,,,,,,,,,,,,,,,,
909289,001,2022-11-13_23h27.49.969,Info_measure_main_exp,2022.2.2,Win32,61.10601894,,,,,,,,,,,,,,,,,,masks/mask_005.jpg,,,,,,,,,,,,,,,,,,,,,,,,,,,,,,,,,,,,,,,,,,,,,,,,0,0,0,4,1,,,,,,,,,,,,,,,,,,,,,,,,,,,,,,,,,,,,,,,,,
909289,001,2022-11-13_23h27.49.969,Info_measure_main_exp,2022.2.2,Win32,61.10601894,,,,,,,,,,,,,,,,,,masks/mask_002.jpg,,,,,,,,,,,,,,,,,,,,,,,,,,,,,,,,,,,,,,,,,,,,,,,,0,1,1,1,1,,,,,,,,,,,,,,,,,,,,,,,,,,,,,,,,,,,,,,,,,
909289,001,2022-11-13_23h27.49.969,Info_measure_main_exp,2022.2.2,Win32,61.10601894,,,,,,,,,,,,,,,,,,masks/mask_001.jpg,,,,,,,,,,,,,,,,,,,,,,,,,,,,,,,,,,,,,,,,,,,,,,,,0,2,2,0,1,,,,,,,,,,,,,,,,,,,,,,,,,,,,,,,,,,,,,,,,,
909289,001,2022-11-13_23h27.49.969,Info_measure_main_exp,2022.2.2,Win32,61.10601894,,,,,,,,,,,,,,,,,,masks/mask_004.jpg,,,,,,,,,,,,,,,,,,,,,,,,,,,,,,,,,,,,,,,,,,,,,,,,0,3,3,3,1,,,,,,,,,,,,,,,,,,,,,,,,,,,,,,,,,,,,,,,,,
909289,001,2022-11-13_23h27.49.969,Info_measure_main_exp,2022.2.2,Win32,61.10601894,,,,,,,,,,,,,,,,,,masks/mask_003.jpg,,,,,,,,,,,,,,,,,,,,,,,,,,,,,,,,,,,,,,,,,,,,,,,,0,4,4,2,1,,,,,,,,,,,,,,,,,,,,,,,,,,,,,,,,,,,,,,,,,
909289,001,2022-11-13_23h27.49.969,Info_measure_main_exp,2022.2.2,Win32,61.10601894,,,,,,,,,,,,,,,,,,,,,,,,,,,,,,7,0.7323,1,,,,,,,,,,,,0,131,5,5,2274,2142,absent_patch/patch0002274.jpg,absent_patch/patch0002142.jpg,,,,,,,,,,,,,,,,,,,,0.058333362,0.090740734,1,0,0,response1disk,13,-0.005555541,0.001851859,1,0,0,center_square,0,12,12,75,1,,,,,,,,,,,,,,,,,,,,,,,
909289,001,2022-11-13_23h27.49.969,Info_measure_main_exp,2022.2.2,Win32,61.10601894,,,,,,,,,,,,,,,,,,masks/mask_005.jpg,,,,,,,,,,,,,,,,,,,,,,,,,,,,,,,,,,,,,,,,,,,0,0,0,4,1,,,,,,,,,,,,,,,,,,,,,,,,,,,,,,,,,,,,,,,,,,,,,,
909289,001,2022-11-13_23h27.49.969,Info_measure_main_exp,2022.2.2,Win32,61.10601894,,,,,,,,,,,,,,,,,,masks/mask_002.jpg,,,,,,,,,,,,,,,,,,,,,,,,,,,,,,,,,,,,,,,,,,,0,1,1,1,1,,,,,,,,,,,,,,,,,,,,,,,,,,,,,,,,,,,,,,,,,,,,,,
909289,001,2022-11-13_23h27.49.969,Info_measure_main_exp,2022.2.2,Win32,61.10601894,,,,,,,,,,,,,,,,,,masks/mask_001.jpg,,,,,,,,,,,,,,,,,,,,,,,,,,,,,,,,,,,,,,,,,,,0,2,2,0,1,,,,,,,,,,,,,,,,,,,,,,,,,,,,,,,,,,,,,,,,,,,,,,
909289,001,2022-11-13_23h27.49.969,Info_measure_main_exp,2022.2.2,Win32,61.10601894,,,,,,,,,,,,,,,,,,masks/mask_003.jpg,,,,,,,,,,,,,,,,,,,,,,,,,,,,,,,,,,,,,,,,,,,0,3,3,2,1,,,,,,,,,,,,,,,,,,,,,,,,,,,,,,,,,,,,,,,,,,,,,,
909289,001,2022-11-13_23h27.49.969,Info_measure_main_exp,2022.2.2,Win32,61.10601894,,,,,,,,,,,,,,,,,,masks/mask_004.jpg,,,,,,,,,,,,,,,,,,,,,,,,,,,,,,,,,,,,,,,,,,,0,4,4,3,1,,,,,,,,,,,,,,,,,,,,,,,,,,,,,,,,,,,,,,,,,,,,,,
909289,001,2022-11-13_23h27.49.969,Info_measure_main_exp,2022.2.2,Win32,61.10601894,,,,,,,,,,,,,,,,,,masks/mask_003.jpg,,,,,,,,,,,,,,,,,,,,,,,,,,,,,,,,,,,,,,,,,,,,,,,,0,0,0,2,1,,,,,,,,,,,,,,,,,,,,,,,,,,,,,,,,,,,,,,,,,
909289,001,2022-11-13_23h27.49.969,Info_measure_main_exp,2022.2.2,Win32,61.10601894,,,,,,,,,,,,,,,,,,masks/mask_004.jpg,,,,,,,,,,,,,,,,,,,,,,,,,,,,,,,,,,,,,,,,,,,,,,,,0,1,1,3,1,,,,,,,,,,,,,,,,,,,,,,,,,,,,,,,,,,,,,,,,,
909289,001,2022-11-13_23h27.49.969,Info_measure_main_exp,2022.2.2,Win32,61.10601894,,,,,,,,,,,,,,,,,,masks/mask_002.jpg,,,,,,,,,,,,,,,,,,,,,,,,,,,,,,,,,,,,,,,,,,,,,,,,0,2,2,1,1,,,,,,,,,,,,,,,,,,,,,,,,,,,,,,,,,,,,,,,,,
909289,001,2022-11-13_23h27.49.969,Info_measure_main_exp,2022.2.2,Win32,61.10601894,,,,,,,,,,,,,,,,,,masks/mask_005.jpg,,,,,,,,,,,,,,,,,,,,,,,,,,,,,,,,,,,,,,,,,,,,,,,,0,3,3,4,1,,,,,,,,,,,,,,,,,,,,,,,,,,,,,,,,,,,,,,,,,
909289,001,2022-11-13_23h27.49.969,Info_measure_main_exp,2022.2.2,Win32,61.10601894,,,,,,,,,,,,,,,,,,masks/mask_001.jpg,,,,,,,,,,,,,,,,,,,,,,,,,,,,,,,,,,,,,,,,,,,,,,,,0,4,4,0,1,,,,,,,,,,,,,,,,,,,,,,,,,,,,,,,,,,,,,,,,,
909289,001,2022-11-13_23h27.49.969,Info_measure_main_exp,2022.2.2,Win32,61.10601894,,,,,,,,,,,,,,,,,,,,,,,,,,,,,,7,0.6658,1,,,,,,,,,,,,0,131,5,5,2154,2214,absent_patch/patch0002154.jpg,absent_patch/patch0002214.jpg,,,,,,,,,,,,,,,,,,,,0.039814843,0.119444423,1,0,0,response1disk,14,-0.008333277,-0.006481489,1,0,0,center_square,0,13,13,67,1,,,,,,,,,,,,,,,,,,,,,,,
909289,001,2022-11-13_23h27.49.969,Info_measure_main_exp,2022.2.2,Win32,61.10601894,,,,,,,,,,,,,,,,,,masks/mask_002.jpg,,,,,,,,,,,,,,,,,,,,,,,,,,,,,,,,,,,,,,,,,,,0,0,0,1,1,,,,,,,,,,,,,,,,,,,,,,,,,,,,,,,,,,,,,,,,,,,,,,
909289,001,2022-11-13_23h27.49.969,Info_measure_main_exp,2022.2.2,Win32,61.10601894,,,,,,,,,,,,,,,,,,masks/mask_003.jpg,,,,,,,,,,,,,,,,,,,,,,,,,,,,,,,,,,,,,,,,,,,0,1,1,2,1,,,,,,,,,,,,,,,,,,,,,,,,,,,,,,,,,,,,,,,,,,,,,,
909289,001,2022-11-13_23h27.49.969,Info_measure_main_exp,2022.2.2,Win32,61.10601894,,,,,,,,,,,,,,,,,,masks/mask_005.jpg,,,,,,,,,,,,,,,,,,,,,,,,,,,,,,,,,,,,,,,,,,,0,2,2,4,1,,,,,,,,,,,,,,,,,,,,,,,,,,,,,,,,,,,,,,,,,,,,,,
909289,001,2022-11-13_23h27.49.969,Info_measure_main_exp,2022.2.2,Win32,61.10601894,,,,,,,,,,,,,,,,,,masks/mask_001.jpg,,,,,,,,,,,,,,,,,,,,,,,,,,,,,,,,,,,,,,,,,,,0,3,3,0,1,,,,,,,,,,,,,,,,,,,,,,,,,,,,,,,,,,,,,,,,,,,,,,
909289,001,2022-11-13_23h27.49.969,Info_measure_main_exp,2022.2.2,Win32,61.10601894,,,,,,,,,,,,,,,,,,masks/mask_004.jpg,,,,,,,,,,,,,,,,,,,,,,,,,,,,,,,,,,,,,,,,,,,0,4,4,3,1,,,,,,,,,,,,,,,,,,,,,,,,,,,,,,,,,,,,,,,,,,,,,,
909289,001,2022-11-13_23h27.49.969,Info_measure_main_exp,2022.2.2,Win32,61.10601894,,,,,,,,,,,,,,,,,,masks/mask_001.jpg,,,,,,,,,,,,,,,,,,,,,,,,,,,,,,,,,,,,,,,,,,,,,,,,0,0,0,0,1,,,,,,,,,,,,,,,,,,,,,,,,,,,,,,,,,,,,,,,,,
909289,001,2022-11-13_23h27.49.969,Info_measure_main_exp,2022.2.2,Win32,61.10601894,,,,,,,,,,,,,,,,,,masks/mask_004.jpg,,,,,,,,,,,,,,,,,,,,,,,,,,,,,,,,,,,,,,,,,,,,,,,,0,1,1,3,1,,,,,,,,,,,,,,,,,,,,,,,,,,,,,,,,,,,,,,,,,
909289,001,2022-11-13_23h27.49.969,Info_measure_main_exp,2022.2.2,Win32,61.10601894,,,,,,,,,,,,,,,,,,masks/mask_002.jpg,,,,,,,,,,,,,,,,,,,,,,,,,,,,,,,,,,,,,,,,,,,,,,,,0,2,2,1,1,,,,,,,,,,,,,,,,,,,,,,,,,,,,,,,,,,,,,,,,,
909289,001,2022-11-13_23h27.49.969,Info_measure_main_exp,2022.2.2,Win32,61.10601894,,,,,,,,,,,,,,,,,,masks/mask_003.jpg,,,,,,,,,,,,,,,,,,,,,,,,,,,,,,,,,,,,,,,,,,,,,,,,0,3,3,2,1,,,,,,,,,,,,,,,,,,,,,,,,,,,,,,,,,,,,,,,,,
909289,001,2022-11-13_23h27.49.969,Info_measure_main_exp,2022.2.2,Win32,61.10601894,,,,,,,,,,,,,,,,,,masks/mask_005.jpg,,,,,,,,,,,,,,,,,,,,,,,,,,,,,,,,,,,,,,,,,,,,,,,,0,4,4,4,1,,,,,,,,,,,,,,,,,,,,,,,,,,,,,,,,,,,,,,,,,
909289,001,2022-11-13_23h27.49.969,Info_measure_main_exp,2022.2.2,Win32,61.10601894,,,,,,,,,,,,,,,,,,,,,,,,,,,,,,7,1.1821,1,,,,,,,,,,,,0,131,5,5,2190,2178,absent_patch/patch0002190.jpg,absent_patch/patch0002178.jpg,,,,,,,,,,,,,,,,,,,,0.090740769,0.13703703,1,0,0,response1disk,15,0.000925982,-0.011111118,1,0,0,center_square,0,14,14,14,1,,,,,,,,,,,,,,,,,,,,,,,
909289,001,2022-11-13_23h27.49.969,Info_measure_main_exp,2022.2.2,Win32,61.10601894,,,,,,,,,,,,,,,,,,masks/mask_003.jpg,,,,,,,,,,,,,,,,,,,,,,,,,,,,,,,,,,,,,,,,,,,0,0,0,2,1,,,,,,,,,,,,,,,,,,,,,,,,,,,,,,,,,,,,,,,,,,,,,,
909289,001,2022-11-13_23h27.49.969,Info_measure_main_exp,2022.2.2,Win32,61.10601894,,,,,,,,,,,,,,,,,,masks/mask_002.jpg,,,,,,,,,,,,,,,,,,,,,,,,,,,,,,,,,,,,,,,,,,,0,1,1,1,1,,,,,,,,,,,,,,,,,,,,,,,,,,,,,,,,,,,,,,,,,,,,,,
909289,001,2022-11-13_23h27.49.969,Info_measure_main_exp,2022.2.2,Win32,61.10601894,,,,,,,,,,,,,,,,,,masks/mask_005.jpg,,,,,,,,,,,,,,,,,,,,,,,,,,,,,,,,,,,,,,,,,,,0,2,2,4,1,,,,,,,,,,,,,,,,,,,,,,,,,,,,,,,,,,,,,,,,,,,,,,
909289,001,2022-11-13_23h27.49.969,Info_measure_main_exp,2022.2.2,Win32,61.10601894,,,,,,,,,,,,,,,,,,masks/mask_004.jpg,,,,,,,,,,,,,,,,,,,,,,,,,,,,,,,,,,,,,,,,,,,0,3,3,3,1,,,,,,,,,,,,,,,,,,,,,,,,,,,,,,,,,,,,,,,,,,,,,,
909289,001,2022-11-13_23h27.49.969,Info_measure_main_exp,2022.2.2,Win32,61.10601894,,,,,,,,,,,,,,,,,,masks/mask_001.jpg,,,,,,,,,,,,,,,,,,,,,,,,,,,,,,,,,,,,,,,,,,,0,4,4,0,1,,,,,,,,,,,,,,,,,,,,,,,,,,,,,,,,,,,,,,,,,,,,,,
909289,001,2022-11-13_23h27.49.969,Info_measure_main_exp,2022.2.2,Win32,61.10601894,,,,,,,,,,,,,,,,,,masks/mask_004.jpg,,,,,,,,,,,,,,,,,,,,,,,,,,,,,,,,,,,,,,,,,,,,,,,,0,0,0,3,1,,,,,,,,,,,,,,,,,,,,,,,,,,,,,,,,,,,,,,,,,
909289,001,2022-11-13_23h27.49.969,Info_measure_main_exp,2022.2.2,Win32,61.10601894,,,,,,,,,,,,,,,,,,masks/mask_005.jpg,,,,,,,,,,,,,,,,,,,,,,,,,,,,,,,,,,,,,,,,,,,,,,,,0,1,1,4,1,,,,,,,,,,,,,,,,,,,,,,,,,,,,,,,,,,,,,,,,,
909289,001,2022-11-13_23h27.49.969,Info_measure_main_exp,2022.2.2,Win32,61.10601894,,,,,,,,,,,,,,,,,,masks/mask_003.jpg,,,,,,,,,,,,,,,,,,,,,,,,,,,,,,,,,,,,,,,,,,,,,,,,0,2,2,2,1,,,,,,,,,,,,,,,,,,,,,,,,,,,,,,,,,,,,,,,,,
909289,001,2022-11-13_23h27.49.969,Info_measure_main_exp,2022.2.2,Win32,61.10601894,,,,,,,,,,,,,,,,,,masks/mask_002.jpg,,,,,,,,,,,,,,,,,,,,,,,,,,,,,,,,,,,,,,,,,,,,,,,,0,3,3,1,1,,,,,,,,,,,,,,,,,,,,,,,,,,,,,,,,,,,,,,,,,
909289,001,2022-11-13_23h27.49.969,Info_measure_main_exp,2022.2.2,Win32,61.10601894,,,,,,,,,,,,,,,,,,masks/mask_001.jpg,,,,,,,,,,,,,,,,,,,,,,,,,,,,,,,,,,,,,,,,,,,,,,,,0,4,4,0,1,,,,,,,,,,,,,,,,,,,,,,,,,,,,,,,,,,,,,,,,,
909289,001,2022-11-13_23h27.49.969,Info_measure_main_exp,2022.2.2,Win32,61.10601894,,,,,,,,,,,,,,,,,,,,,,,,,,,,,,7,1.0323,1,,,,,,,,,,,,0,131,5,5,2142,2238,absent_patch/patch0002142.jpg,absent_patch/patch0002238.jpg,,,,,,,,,,,,,,,,,,,,0.044444473,0.107407393,1,0,0,response1disk,16,-0.005555541,-0.006481489,1,0,0,center_square,0,15,15,101,1,,,,,,,,,,,,,,,,,,,,,,,
909289,001,2022-11-13_23h27.49.969,Info_measure_main_exp,2022.2.2,Win32,61.10601894,,,,,,,,,,,,,,,,,,masks/mask_002.jpg,,,,,,,,,,,,,,,,,,,,,,,,,,,,,,,,,,,,,,,,,,,0,0,0,1,1,,,,,,,,,,,,,,,,,,,,,,,,,,,,,,,,,,,,,,,,,,,,,,
909289,001,2022-11-13_23h27.49.969,Info_measure_main_exp,2022.2.2,Win32,61.10601894,,,,,,,,,,,,,,,,,,masks/mask_005.jpg,,,,,,,,,,,,,,,,,,,,,,,,,,,,,,,,,,,,,,,,,,,0,1,1,4,1,,,,,,,,,,,,,,,,,,,,,,,,,,,,,,,,,,,,,,,,,,,,,,
909289,001,2022-11-13_23h27.49.969,Info_measure_main_exp,2022.2.2,Win32,61.10601894,,,,,,,,,,,,,,,,,,masks/mask_001.jpg,,,,,,,,,,,,,,,,,,,,,,,,,,,,,,,,,,,,,,,,,,,0,2,2,0,1,,,,,,,,,,,,,,,,,,,,,,,,,,,,,,,,,,,,,,,,,,,,,,
909289,001,2022-11-13_23h27.49.969,Info_measure_main_exp,2022.2.2,Win32,61.10601894,,,,,,,,,,,,,,,,,,masks/mask_004.jpg,,,,,,,,,,,,,,,,,,,,,,,,,,,,,,,,,,,,,,,,,,,0,3,3,3,1,,,,,,,,,,,,,,,,,,,,,,,,,,,,,,,,,,,,,,,,,,,,,,
909289,001,2022-11-13_23h27.49.969,Info_measure_main_exp,2022.2.2,Win32,61.10601894,,,,,,,,,,,,,,,,,,masks/mask_003.jpg,,,,,,,,,,,,,,,,,,,,,,,,,,,,,,,,,,,,,,,,,,,0,4,4,2,1,,,,,,,,,,,,,,,,,,,,,,,,,,,,,,,,,,,,,,,,,,,,,,
909289,001,2022-11-13_23h27.49.969,Info_measure_main_exp,2022.2.2,Win32,61.10601894,,,,,,,,,,,,,,,,,,masks/mask_003.jpg,,,,,,,,,,,,,,,,,,,,,,,,,,,,,,,,,,,,,,,,,,,,,,,,0,0,0,2,1,,,,,,,,,,,,,,,,,,,,,,,,,,,,,,,,,,,,,,,,,
909289,001,2022-11-13_23h27.49.969,Info_measure_main_exp,2022.2.2,Win32,61.10601894,,,,,,,,,,,,,,,,,,masks/mask_005.jpg,,,,,,,,,,,,,,,,,,,,,,,,,,,,,,,,,,,,,,,,,,,,,,,,0,1,1,4,1,,,,,,,,,,,,,,,,,,,,,,,,,,,,,,,,,,,,,,,,,
909289,001,2022-11-13_23h27.49.969,Info_measure_main_exp,2022.2.2,Win32,61.10601894,,,,,,,,,,,,,,,,,,masks/mask_002.jpg,,,,,,,,,,,,,,,,,,,,,,,,,,,,,,,,,,,,,,,,,,,,,,,,0,2,2,1,1,,,,,,,,,,,,,,,,,,,,,,,,,,,,,,,,,,,,,,,,,
909289,001,2022-11-13_23h27.49.969,Info_measure_main_exp,2022.2.2,Win32,61.10601894,,,,,,,,,,,,,,,,,,masks/mask_001.jpg,,,,,,,,,,,,,,,,,,,,,,,,,,,,,,,,,,,,,,,,,,,,,,,,0,3,3,0,1,,,,,,,,,,,,,,,,,,,,,,,,,,,,,,,,,,,,,,,,,
909289,001,2022-11-13_23h27.49.969,Info_measure_main_exp,2022.2.2,Win32,61.10601894,,,,,,,,,,,,,,,,,,masks/mask_004.jpg,,,,,,,,,,,,,,,,,,,,,,,,,,,,,,,,,,,,,,,,,,,,,,,,0,4,4,3,1,,,,,,,,,,,,,,,,,,,,,,,,,,,,,,,,,,,,,,,,,
909289,001,2022-11-13_23h27.49.969,Info_measure_main_exp,2022.2.2,Win32,61.10601894,,,,,,,,,,,,,,,,,,,,,,,,,,,,,,7,0.5327,1,,,,,,,,,,,,1,131,5,5,1,2274,present_patch/cong_131_5_a.jpg,absent_patch/patch0002274.jpg,,,,,,,,,,,,,,,,,,,,0.059259273,0.105555534,1,0,0,response1disk,17,0.001851894,0.005555541,1,0,0,center_square,0,16,16,105,1,,,,,,,,,,,,,,,,,,,,,,,
909289,001,2022-11-13_23h27.49.969,Info_measure_main_exp,2022.2.2,Win32,61.10601894,,,,,,,,,,,,,,,,,,masks/mask_003.jpg,,,,,,,,,,,,,,,,,,,,,,,,,,,,,,,,,,,,,,,,,,,0,0,0,2,1,,,,,,,,,,,,,,,,,,,,,,,,,,,,,,,,,,,,,,,,,,,,,,
909289,001,2022-11-13_23h27.49.969,Info_measure_main_exp,2022.2.2,Win32,61.10601894,,,,,,,,,,,,,,,,,,masks/mask_001.jpg,,,,,,,,,,,,,,,,,,,,,,,,,,,,,,,,,,,,,,,,,,,0,1,1,0,1,,,,,,,,,,,,,,,,,,,,,,,,,,,,,,,,,,,,,,,,,,,,,,
909289,001,2022-11-13_23h27.49.969,Info_measure_main_exp,2022.2.2,Win32,61.10601894,,,,,,,,,,,,,,,,,,masks/mask_004.jpg,,,,,,,,,,,,,,,,,,,,,,,,,,,,,,,,,,,,,,,,,,,0,2,2,3,1,,,,,,,,,,,,,,,,,,,,,,,,,,,,,,,,,,,,,,,,,,,,,,
909289,001,2022-11-13_23h27.49.969,Info_measure_main_exp,2022.2.2,Win32,61.10601894,,,,,,,,,,,,,,,,,,masks/mask_002.jpg,,,,,,,,,,,,,,,,,,,,,,,,,,,,,,,,,,,,,,,,,,,0,3,3,1,1,,,,,,,,,,,,,,,,,,,,,,,,,,,,,,,,,,,,,,,,,,,,,,
909289,001,2022-11-13_23h27.49.969,Info_measure_main_exp,2022.2.2,Win32,61.10601894,,,,,,,,,,,,,,,,,,masks/mask_005.jpg,,,,,,,,,,,,,,,,,,,,,,,,,,,,,,,,,,,,,,,,,,,0,4,4,4,1,,,,,,,,,,,,,,,,,,,,,,,,,,,,,,,,,,,,,,,,,,,,,,
909289,001,2022-11-13_23h27.49.969,Info_measure_main_exp,2022.2.2,Win32,61.10601894,,,,,,,,,,,,,,,,,,masks/mask_001.jpg,,,,,,,,,,,,,,,,,,,,,,,,,,,,,,,,,,,,,,,,,,,,,,,,0,0,0,0,1,,,,,,,,,,,,,,,,,,,,,,,,,,,,,,,,,,,,,,,,,
909289,001,2022-11-13_23h27.49.969,Info_measure_main_exp,2022.2.2,Win32,61.10601894,,,,,,,,,,,,,,,,,,masks/mask_004.jpg,,,,,,,,,,,,,,,,,,,,,,,,,,,,,,,,,,,,,,,,,,,,,,,,0,1,1,3,1,,,,,,,,,,,,,,,,,,,,,,,,,,,,,,,,,,,,,,,,,
909289,001,2022-11-13_23h27.49.969,Info_measure_main_exp,2022.2.2,Win32,61.10601894,,,,,,,,,,,,,,,,,,masks/mask_005.jpg,,,,,,,,,,,,,,,,,,,,,,,,,,,,,,,,,,,,,,,,,,,,,,,,0,2,2,4,1,,,,,,,,,,,,,,,,,,,,,,,,,,,,,,,,,,,,,,,,,
909289,001,2022-11-13_23h27.49.969,Info_measure_main_exp,2022.2.2,Win32,61.10601894,,,,,,,,,,,,,,,,,,masks/mask_002.jpg,,,,,,,,,,,,,,,,,,,,,,,,,,,,,,,,,,,,,,,,,,,,,,,,0,3,3,1,1,,,,,,,,,,,,,,,,,,,,,,,,,,,,,,,,,,,,,,,,,
909289,001,2022-11-13_23h27.49.969,Info_measure_main_exp,2022.2.2,Win32,61.10601894,,,,,,,,,,,,,,,,,,masks/mask_003.jpg,,,,,,,,,,,,,,,,,,,,,,,,,,,,,,,,,,,,,,,,,,,,,,,,0,4,4,2,1,,,,,,,,,,,,,,,,,,,,,,,,,,,,,,,,,,,,,,,,,
909289,001,2022-11-13_23h27.49.969,Info_measure_main_exp,2022.2.2,Win32,61.10601894,,,,,,,,,,,,,,,,,,,,,,,,,,,,,,7,2.6802,1,,,,,,,,,,,,0,131,5,5,1950,2166,absent_patch/patch0001950.jpg,absent_patch/patch0002166.jpg,,,,,,,,,,,,,,,,,,,,0.063888903,0.146296289,1,0,0,response1disk,18,0.001851894,0.002777771,1,0,0,center_square,0,17,17,0,1,,,,,,,,,,,,,,,,,,,,,,,
909289,001,2022-11-13_23h27.49.969,Info_measure_main_exp,2022.2.2,Win32,61.10601894,,,,,,,,,,,,,,,,,,masks/mask_003.jpg,,,,,,,,,,,,,,,,,,,,,,,,,,,,,,,,,,,,,,,,,,,0,0,0,2,1,,,,,,,,,,,,,,,,,,,,,,,,,,,,,,,,,,,,,,,,,,,,,,
909289,001,2022-11-13_23h27.49.969,Info_measure_main_exp,2022.2.2,Win32,61.10601894,,,,,,,,,,,,,,,,,,masks/mask_004.jpg,,,,,,,,,,,,,,,,,,,,,,,,,,,,,,,,,,,,,,,,,,,0,1,1,3,1,,,,,,,,,,,,,,,,,,,,,,,,,,,,,,,,,,,,,,,,,,,,,,
909289,001,2022-11-13_23h27.49.969,Info_measure_main_exp,2022.2.2,Win32,61.10601894,,,,,,,,,,,,,,,,,,masks/mask_001.jpg,,,,,,,,,,,,,,,,,,,,,,,,,,,,,,,,,,,,,,,,,,,0,2,2,0,1,,,,,,,,,,,,,,,,,,,,,,,,,,,,,,,,,,,,,,,,,,,,,,
909289,001,2022-11-13_23h27.49.969,Info_measure_main_exp,2022.2.2,Win32,61.10601894,,,,,,,,,,,,,,,,,,masks/mask_002.jpg,,,,,,,,,,,,,,,,,,,,,,,,,,,,,,,,,,,,,,,,,,,0,3,3,1,1,,,,,,,,,,,,,,,,,,,,,,,,,,,,,,,,,,,,,,,,,,,,,,
909289,001,2022-11-13_23h27.49.969,Info_measure_main_exp,2022.2.2,Win32,61.10601894,,,,,,,,,,,,,,,,,,masks/mask_005.jpg,,,,,,,,,,,,,,,,,,,,,,,,,,,,,,,,,,,,,,,,,,,0,4,4,4,1,,,,,,,,,,,,,,,,,,,,,,,,,,,,,,,,,,,,,,,,,,,,,,
909289,001,2022-11-13_23h27.49.969,Info_measure_main_exp,2022.2.2,Win32,61.10601894,,,,,,,,,,,,,,,,,,masks/mask_005.jpg,,,,,,,,,,,,,,,,,,,,,,,,,,,,,,,,,,,,,,,,,,,,,,,,0,0,0,4,1,,,,,,,,,,,,,,,,,,,,,,,,,,,,,,,,,,,,,,,,,
909289,001,2022-11-13_23h27.49.969,Info_measure_main_exp,2022.2.2,Win32,61.10601894,,,,,,,,,,,,,,,,,,masks/mask_001.jpg,,,,,,,,,,,,,,,,,,,,,,,,,,,,,,,,,,,,,,,,,,,,,,,,0,1,1,0,1,,,,,,,,,,,,,,,,,,,,,,,,,,,,,,,,,,,,,,,,,
909289,001,2022-11-13_23h27.49.969,Info_measure_main_exp,2022.2.2,Win32,61.10601894,,,,,,,,,,,,,,,,,,masks/mask_002.jpg,,,,,,,,,,,,,,,,,,,,,,,,,,,,,,,,,,,,,,,,,,,,,,,,0,2,2,1,1,,,,,,,,,,,,,,,,,,,,,,,,,,,,,,,,,,,,,,,,,
909289,001,2022-11-13_23h27.49.969,Info_measure_main_exp,2022.2.2,Win32,61.10601894,,,,,,,,,,,,,,,,,,masks/mask_004.jpg,,,,,,,,,,,,,,,,,,,,,,,,,,,,,,,,,,,,,,,,,,,,,,,,0,3,3,3,1,,,,,,,,,,,,,,,,,,,,,,,,,,,,,,,,,,,,,,,,,
909289,001,2022-11-13_23h27.49.969,Info_measure_main_exp,2022.2.2,Win32,61.10601894,,,,,,,,,,,,,,,,,,masks/mask_003.jpg,,,,,,,,,,,,,,,,,,,,,,,,,,,,,,,,,,,,,,,,,,,,,,,,0,4,4,2,1,,,,,,,,,,,,,,,,,,,,,,,,,,,,,,,,,,,,,,,,,
909289,001,2022-11-13_23h27.49.969,Info_measure_main_exp,2022.2.2,Win32,61.10601894,,,,,,,,,,,,,,,,,,,,,,,,,,,,,,0,0.5654,1,,,,,,,,,,,,0,131,5,5,2238,2238,absent_patch/patch0002238.jpg,absent_patch/patch0002238.jpg,,,,,,,,,,,,,,,,,,,,-0.033333319,0.094444416,1,0,0,response7disk,19,0.001851894,0.005555541,1,0,0,center_square,0,18,18,58,1,,,,,,,,,,,,,,,,,,,,,,,
909289,001,2022-11-13_23h27.49.969,Info_measure_main_exp,2022.2.2,Win32,61.10601894,,,,,,,,,,,,,,,,,,masks/mask_002.jpg,,,,,,,,,,,,,,,,,,,,,,,,,,,,,,,,,,,,,,,,,,,0,0,0,1,1,,,,,,,,,,,,,,,,,,,,,,,,,,,,,,,,,,,,,,,,,,,,,,
909289,001,2022-11-13_23h27.49.969,Info_measure_main_exp,2022.2.2,Win32,61.10601894,,,,,,,,,,,,,,,,,,masks/mask_005.jpg,,,,,,,,,,,,,,,,,,,,,,,,,,,,,,,,,,,,,,,,,,,0,1,1,4,1,,,,,,,,,,,,,,,,,,,,,,,,,,,,,,,,,,,,,,,,,,,,,,
909289,001,2022-11-13_23h27.49.969,Info_measure_main_exp,2022.2.2,Win32,61.10601894,,,,,,,,,,,,,,,,,,masks/mask_003.jpg,,,,,,,,,,,,,,,,,,,,,,,,,,,,,,,,,,,,,,,,,,,0,2,2,2,1,,,,,,,,,,,,,,,,,,,,,,,,,,,,,,,,,,,,,,,,,,,,,,
909289,001,2022-11-13_23h27.49.969,Info_measure_main_exp,2022.2.2,Win32,61.10601894,,,,,,,,,,,,,,,,,,masks/mask_004.jpg,,,,,,,,,,,,,,,,,,,,,,,,,,,,,,,,,,,,,,,,,,,0,3,3,3,1,,,,,,,,,,,,,,,,,,,,,,,,,,,,,,,,,,,,,,,,,,,,,,
909289,001,2022-11-13_23h27.49.969,Info_measure_main_exp,2022.2.2,Win32,61.10601894,,,,,,,,,,,,,,,,,,masks/mask_001.jpg,,,,,,,,,,,,,,,,,,,,,,,,,,,,,,,,,,,,,,,,,,,0,4,4,0,1,,,,,,,,,,,,,,,,,,,,,,,,,,,,,,,,,,,,,,,,,,,,,,
909289,001,2022-11-13_23h27.49.969,Info_measure_main_exp,2022.2.2,Win32,61.10601894,,,,,,,,,,,,,,,,,,masks/mask_002.jpg,,,,,,,,,,,,,,,,,,,,,,,,,,,,,,,,,,,,,,,,,,,,,,,,0,0,0,1,1,,,,,,,,,,,,,,,,,,,,,,,,,,,,,,,,,,,,,,,,,
909289,001,2022-11-13_23h27.49.969,Info_measure_main_exp,2022.2.2,Win32,61.10601894,,,,,,,,,,,,,,,,,,masks/mask_004.jpg,,,,,,,,,,,,,,,,,,,,,,,,,,,,,,,,,,,,,,,,,,,,,,,,0,1,1,3,1,,,,,,,,,,,,,,,,,,,,,,,,,,,,,,,,,,,,,,,,,
909289,001,2022-11-13_23h27.49.969,Info_measure_main_exp,2022.2.2,Win32,61.10601894,,,,,,,,,,,,,,,,,,masks/mask_001.jpg,,,,,,,,,,,,,,,,,,,,,,,,,,,,,,,,,,,,,,,,,,,,,,,,0,2,2,0,1,,,,,,,,,,,,,,,,,,,,,,,,,,,,,,,,,,,,,,,,,
909289,001,2022-11-13_23h27.49.969,Info_measure_main_exp,2022.2.2,Win32,61.10601894,,,,,,,,,,,,,,,,,,masks/mask_005.jpg,,,,,,,,,,,,,,,,,,,,,,,,,,,,,,,,,,,,,,,,,,,,,,,,0,3,3,4,1,,,,,,,,,,,,,,,,,,,,,,,,,,,,,,,,,,,,,,,,,
909289,001,2022-11-13_23h27.49.969,Info_measure_main_exp,2022.2.2,Win32,61.10601894,,,,,,,,,,,,,,,,,,masks/mask_003.jpg,,,,,,,,,,,,,,,,,,,,,,,,,,,,,,,,,,,,,,,,,,,,,,,,0,4,4,2,1,,,,,,,,,,,,,,,,,,,,,,,,,,,,,,,,,,,,,,,,,
909289,001,2022-11-13_23h27.49.969,Info_measure_main_exp,2022.2.2,Win32,61.10601894,,,,,,,,,,,,,,,,,,,,,,,,,,,,,,7,1.8649,1,,,,,,,,,,,,1,131,5,5,1,2142,present_patch/cong_131_5_a.jpg,absent_patch/patch0002142.jpg,,,,,,,,,,,,,,,,,,,,0.056481538,0.126851824,1,0,0,response1disk,20,-0.005555541,-0.002777771,1,0,0,center_square,0,19,19,80,1,,,,,,,,,,,,,,,,,,,,,,,
909289,001,2022-11-13_23h27.49.969,Info_measure_main_exp,2022.2.2,Win32,61.10601894,,,,,,,,,,,,,,,,,,masks/mask_002.jpg,,,,,,,,,,,,,,,,,,,,,,,,,,,,,,,,,,,,,,,,,,,0,0,0,1,1,,,,,,,,,,,,,,,,,,,,,,,,,,,,,,,,,,,,,,,,,,,,,,
909289,001,2022-11-13_23h27.49.969,Info_measure_main_exp,2022.2.2,Win32,61.10601894,,,,,,,,,,,,,,,,,,masks/mask_005.jpg,,,,,,,,,,,,,,,,,,,,,,,,,,,,,,,,,,,,,,,,,,,0,1,1,4,1,,,,,,,,,,,,,,,,,,,,,,,,,,,,,,,,,,,,,,,,,,,,,,
909289,001,2022-11-13_23h27.49.969,Info_measure_main_exp,2022.2.2,Win32,61.10601894,,,,,,,,,,,,,,,,,,masks/mask_003.jpg,,,,,,,,,,,,,,,,,,,,,,,,,,,,,,,,,,,,,,,,,,,0,2,2,2,1,,,,,,,,,,,,,,,,,,,,,,,,,,,,,,,,,,,,,,,,,,,,,,
909289,001,2022-11-13_23h27.49.969,Info_measure_main_exp,2022.2.2,Win32,61.10601894,,,,,,,,,,,,,,,,,,masks/mask_004.jpg,,,,,,,,,,,,,,,,,,,,,,,,,,,,,,,,,,,,,,,,,,,0,3,3,3,1,,,,,,,,,,,,,,,,,,,,,,,,,,,,,,,,,,,,,,,,,,,,,,
909289,001,2022-11-13_23h27.49.969,Info_measure_main_exp,2022.2.2,Win32,61.10601894,,,,,,,,,,,,,,,,,,masks/mask_001.jpg,,,,,,,,,,,,,,,,,,,,,,,,,,,,,,,,,,,,,,,,,,,0,4,4,0,1,,,,,,,,,,,,,,,,,,,,,,,,,,,,,,,,,,,,,,,,,,,,,,
909289,001,2022-11-13_23h27.49.969,Info_measure_main_exp,2022.2.2,Win32,61.10601894,,,,,,,,,,,,,,,,,,masks/mask_004.jpg,,,,,,,,,,,,,,,,,,,,,,,,,,,,,,,,,,,,,,,,,,,,,,,,0,0,0,3,1,,,,,,,,,,,,,,,,,,,,,,,,,,,,,,,,,,,,,,,,,
909289,001,2022-11-13_23h27.49.969,Info_measure_main_exp,2022.2.2,Win32,61.10601894,,,,,,,,,,,,,,,,,,masks/mask_001.jpg,,,,,,,,,,,,,,,,,,,,,,,,,,,,,,,,,,,,,,,,,,,,,,,,0,1,1,0,1,,,,,,,,,,,,,,,,,,,,,,,,,,,,,,,,,,,,,,,,,
909289,001,2022-11-13_23h27.49.969,Info_measure_main_exp,2022.2.2,Win32,61.10601894,,,,,,,,,,,,,,,,,,masks/mask_003.jpg,,,,,,,,,,,,,,,,,,,,,,,,,,,,,,,,,,,,,,,,,,,,,,,,0,2,2,2,1,,,,,,,,,,,,,,,,,,,,,,,,,,,,,,,,,,,,,,,,,
909289,001,2022-11-13_23h27.49.969,Info_measure_main_exp,2022.2.2,Win32,61.10601894,,,,,,,,,,,,,,,,,,masks/mask_002.jpg,,,,,,,,,,,,,,,,,,,,,,,,,,,,,,,,,,,,,,,,,,,,,,,,0,3,3,1,1,,,,,,,,,,,,,,,,,,,,,,,,,,,,,,,,,,,,,,,,,
909289,001,2022-11-13_23h27.49.969,Info_measure_main_exp,2022.2.2,Win32,61.10601894,,,,,,,,,,,,,,,,,,masks/mask_005.jpg,,,,,,,,,,,,,,,,,,,,,,,,,,,,,,,,,,,,,,,,,,,,,,,,0,4,4,4,1,,,,,,,,,,,,,,,,,,,,,,,,,,,,,,,,,,,,,,,,,
909289,001,2022-11-13_23h27.49.969,Info_measure_main_exp,2022.2.2,Win32,61.10601894,,,,,,,,,,,,,,,,,,,,,,,,,,,,,,7,0.6163,1,,,,,,,,,,,,0,131,5,5,2142,2154,absent_patch/patch0002142.jpg,absent_patch/patch0002154.jpg,,,,,,,,,,,,,,,,,,,,0.056481538,0.116666653,1,0,0,response1disk,21,0,0.011111118,1,0,0,center_square,0,20,20,9,1,,,,,,,,,,,,,,,,,,,,,,,
909289,001,2022-11-13_23h27.49.969,Info_measure_main_exp,2022.2.2,Win32,61.10601894,,,,,,,,,,,,,,,,,,masks/mask_002.jpg,,,,,,,,,,,,,,,,,,,,,,,,,,,,,,,,,,,,,,,,,,,0,0,0,1,1,,,,,,,,,,,,,,,,,,,,,,,,,,,,,,,,,,,,,,,,,,,,,,
909289,001,2022-11-13_23h27.49.969,Info_measure_main_exp,2022.2.2,Win32,61.10601894,,,,,,,,,,,,,,,,,,masks/mask_005.jpg,,,,,,,,,,,,,,,,,,,,,,,,,,,,,,,,,,,,,,,,,,,0,1,1,4,1,,,,,,,,,,,,,,,,,,,,,,,,,,,,,,,,,,,,,,,,,,,,,,
909289,001,2022-11-13_23h27.49.969,Info_measure_main_exp,2022.2.2,Win32,61.10601894,,,,,,,,,,,,,,,,,,masks/mask_003.jpg,,,,,,,,,,,,,,,,,,,,,,,,,,,,,,,,,,,,,,,,,,,0,2,2,2,1,,,,,,,,,,,,,,,,,,,,,,,,,,,,,,,,,,,,,,,,,,,,,,
909289,001,2022-11-13_23h27.49.969,Info_measure_main_exp,2022.2.2,Win32,61.10601894,,,,,,,,,,,,,,,,,,masks/mask_004.jpg,,,,,,,,,,,,,,,,,,,,,,,,,,,,,,,,,,,,,,,,,,,0,3,3,3,1,,,,,,,,,,,,,,,,,,,,,,,,,,,,,,,,,,,,,,,,,,,,,,
909289,001,2022-11-13_23h27.49.969,Info_measure_main_exp,2022.2.2,Win32,61.10601894,,,,,,,,,,,,,,,,,,masks/mask_001.jpg,,,,,,,,,,,,,,,,,,,,,,,,,,,,,,,,,,,,,,,,,,,0,4,4,0,1,,,,,,,,,,,,,,,,,,,,,,,,,,,,,,,,,,,,,,,,,,,,,,
909289,001,2022-11-13_23h27.49.969,Info_measure_main_exp,2022.2.2,Win32,61.10601894,,,,,,,,,,,,,,,,,,masks/mask_004.jpg,,,,,,,,,,,,,,,,,,,,,,,,,,,,,,,,,,,,,,,,,,,,,,,,0,0,0,3,1,,,,,,,,,,,,,,,,,,,,,,,,,,,,,,,,,,,,,,,,,
909289,001,2022-11-13_23h27.49.969,Info_measure_main_exp,2022.2.2,Win32,61.10601894,,,,,,,,,,,,,,,,,,masks/mask_001.jpg,,,,,,,,,,,,,,,,,,,,,,,,,,,,,,,,,,,,,,,,,,,,,,,,0,1,1,0,1,,,,,,,,,,,,,,,,,,,,,,,,,,,,,,,,,,,,,,,,,
909289,001,2022-11-13_23h27.49.969,Info_measure_main_exp,2022.2.2,Win32,61.10601894,,,,,,,,,,,,,,,,,,masks/mask_005.jpg,,,,,,,,,,,,,,,,,,,,,,,,,,,,,,,,,,,,,,,,,,,,,,,,0,2,2,4,1,,,,,,,,,,,,,,,,,,,,,,,,,,,,,,,,,,,,,,,,,
909289,001,2022-11-13_23h27.49.969,Info_measure_main_exp,2022.2.2,Win32,61.10601894,,,,,,,,,,,,,,,,,,masks/mask_003.jpg,,,,,,,,,,,,,,,,,,,,,,,,,,,,,,,,,,,,,,,,,,,,,,,,0,3,3,2,1,,,,,,,,,,,,,,,,,,,,,,,,,,,,,,,,,,,,,,,,,
909289,001,2022-11-13_23h27.49.969,Info_measure_main_exp,2022.2.2,Win32,61.10601894,,,,,,,,,,,,,,,,,,masks/mask_002.jpg,,,,,,,,,,,,,,,,,,,,,,,,,,,,,,,,,,,,,,,,,,,,,,,,0,4,4,1,1,,,,,,,,,,,,,,,,,,,,,,,,,,,,,,,,,,,,,,,,,
909289,001,2022-11-13_23h27.49.969,Info_measure_main_exp,2022.2.2,Win32,61.10601894,,,,,,,,,,,,,,,,,,,,,,,,,,,,,,7,0.6996,1,,,,,,,,,,,,0,131,5,5,2190,1974,absent_patch/patch0002190.jpg,absent_patch/patch0001974.jpg,,,,,,,,,,,,,,,,,,,,0.059259273,0.133333312,1,0,0,response1disk,22,0.007407436,-0.000925947,1,0,0,center_square,0,21,21,119,1,,,,,,,,,,,,,,,,,,,,,,,
909289,001,2022-11-13_23h27.49.969,Info_measure_main_exp,2022.2.2,Win32,61.10601894,,,,,,,,,,,,,,,,,,masks/mask_004.jpg,,,,,,,,,,,,,,,,,,,,,,,,,,,,,,,,,,,,,,,,,,,0,0,0,3,1,,,,,,,,,,,,,,,,,,,,,,,,,,,,,,,,,,,,,,,,,,,,,,
909289,001,2022-11-13_23h27.49.969,Info_measure_main_exp,2022.2.2,Win32,61.10601894,,,,,,,,,,,,,,,,,,masks/mask_003.jpg,,,,,,,,,,,,,,,,,,,,,,,,,,,,,,,,,,,,,,,,,,,0,1,1,2,1,,,,,,,,,,,,,,,,,,,,,,,,,,,,,,,,,,,,,,,,,,,,,,
909289,001,2022-11-13_23h27.49.969,Info_measure_main_exp,2022.2.2,Win32,61.10601894,,,,,,,,,,,,,,,,,,masks/mask_002.jpg,,,,,,,,,,,,,,,,,,,,,,,,,,,,,,,,,,,,,,,,,,,0,2,2,1,1,,,,,,,,,,,,,,,,,,,,,,,,,,,,,,,,,,,,,,,,,,,,,,
909289,001,2022-11-13_23h27.49.969,Info_measure_main_exp,2022.2.2,Win32,61.10601894,,,,,,,,,,,,,,,,,,masks/mask_001.jpg,,,,,,,,,,,,,,,,,,,,,,,,,,,,,,,,,,,,,,,,,,,0,3,3,0,1,,,,,,,,,,,,,,,,,,,,,,,,,,,,,,,,,,,,,,,,,,,,,,
909289,001,2022-11-13_23h27.49.969,Info_measure_main_exp,2022.2.2,Win32,61.10601894,,,,,,,,,,,,,,,,,,masks/mask_005.jpg,,,,,,,,,,,,,,,,,,,,,,,,,,,,,,,,,,,,,,,,,,,0,4,4,4,1,,,,,,,,,,,,,,,,,,,,,,,,,,,,,,,,,,,,,,,,,,,,,,
909289,001,2022-11-13_23h27.49.969,Info_measure_main_exp,2022.2.2,Win32,61.10601894,,,,,,,,,,,,,,,,,,masks/mask_002.jpg,,,,,,,,,,,,,,,,,,,,,,,,,,,,,,,,,,,,,,,,,,,,,,,,0,0,0,1,1,,,,,,,,,,,,,,,,,,,,,,,,,,,,,,,,,,,,,,,,,
909289,001,2022-11-13_23h27.49.969,Info_measure_main_exp,2022.2.2,Win32,61.10601894,,,,,,,,,,,,,,,,,,masks/mask_003.jpg,,,,,,,,,,,,,,,,,,,,,,,,,,,,,,,,,,,,,,,,,,,,,,,,0,1,1,2,1,,,,,,,,,,,,,,,,,,,,,,,,,,,,,,,,,,,,,,,,,
909289,001,2022-11-13_23h27.49.969,Info_measure_main_exp,2022.2.2,Win32,61.10601894,,,,,,,,,,,,,,,,,,masks/mask_001.jpg,,,,,,,,,,,,,,,,,,,,,,,,,,,,,,,,,,,,,,,,,,,,,,,,0,2,2,0,1,,,,,,,,,,,,,,,,,,,,,,,,,,,,,,,,,,,,,,,,,
909289,001,2022-11-13_23h27.49.969,Info_measure_main_exp,2022.2.2,Win32,61.10601894,,,,,,,,,,,,,,,,,,masks/mask_004.jpg,,,,,,,,,,,,,,,,,,,,,,,,,,,,,,,,,,,,,,,,,,,,,,,,0,3,3,3,1,,,,,,,,,,,,,,,,,,,,,,,,,,,,,,,,,,,,,,,,,
909289,001,2022-11-13_23h27.49.969,Info_measure_main_exp,2022.2.2,Win32,61.10601894,,,,,,,,,,,,,,,,,,masks/mask_005.jpg,,,,,,,,,,,,,,,,,,,,,,,,,,,,,,,,,,,,,,,,,,,,,,,,0,4,4,4,1,,,,,,,,,,,,,,,,,,,,,,,,,,,,,,,,,,,,,,,,,
909289,001,2022-11-13_23h27.49.969,Info_measure_main_exp,2022.2.2,Win32,61.10601894,,,,,,,,,,,,,,,,,,,,,,,,,,,,,,6,1.0158,1,,,,,,,,,,,,0,131,5,5,1974,2250,absent_patch/patch0001974.jpg,absent_patch/patch0002250.jpg,,,,,,,,,,,,,,,,,,,,0.127777806,0.084259245,1,0,0,response1disk,23,0.003703718,-0.005555577,1,0,0,center_square,0,22,22,55,1,,,,,,,,,,,,,,,,,,,,,,,
909289,001,2022-11-13_23h27.49.969,Info_measure_main_exp,2022.2.2,Win32,61.10601894,,,,,,,,,,,,,,,,,,masks/mask_004.jpg,,,,,,,,,,,,,,,,,,,,,,,,,,,,,,,,,,,,,,,,,,,0,0,0,3,1,,,,,,,,,,,,,,,,,,,,,,,,,,,,,,,,,,,,,,,,,,,,,,
909289,001,2022-11-13_23h27.49.969,Info_measure_main_exp,2022.2.2,Win32,61.10601894,,,,,,,,,,,,,,,,,,masks/mask_003.jpg,,,,,,,,,,,,,,,,,,,,,,,,,,,,,,,,,,,,,,,,,,,0,1,1,2,1,,,,,,,,,,,,,,,,,,,,,,,,,,,,,,,,,,,,,,,,,,,,,,
909289,001,2022-11-13_23h27.49.969,Info_measure_main_exp,2022.2.2,Win32,61.10601894,,,,,,,,,,,,,,,,,,masks/mask_002.jpg,,,,,,,,,,,,,,,,,,,,,,,,,,,,,,,,,,,,,,,,,,,0,2,2,1,1,,,,,,,,,,,,,,,,,,,,,,,,,,,,,,,,,,,,,,,,,,,,,,
909289,001,2022-11-13_23h27.49.969,Info_measure_main_exp,2022.2.2,Win32,61.10601894,,,,,,,,,,,,,,,,,,masks/mask_005.jpg,,,,,,,,,,,,,,,,,,,,,,,,,,,,,,,,,,,,,,,,,,,0,3,3,4,1,,,,,,,,,,,,,,,,,,,,,,,,,,,,,,,,,,,,,,,,,,,,,,
909289,001,2022-11-13_23h27.49.969,Info_measure_main_exp,2022.2.2,Win32,61.10601894,,,,,,,,,,,,,,,,,,masks/mask_001.jpg,,,,,,,,,,,,,,,,,,,,,,,,,,,,,,,,,,,,,,,,,,,0,4,4,0,1,,,,,,,,,,,,,,,,,,,,,,,,,,,,,,,,,,,,,,,,,,,,,,
909289,001,2022-11-13_23h27.49.969,Info_measure_main_exp,2022.2.2,Win32,61.10601894,,,,,,,,,,,,,,,,,,masks/mask_004.jpg,,,,,,,,,,,,,,,,,,,,,,,,,,,,,,,,,,,,,,,,,,,,,,,,0,0,0,3,1,,,,,,,,,,,,,,,,,,,,,,,,,,,,,,,,,,,,,,,,,
909289,001,2022-11-13_23h27.49.969,Info_measure_main_exp,2022.2.2,Win32,61.10601894,,,,,,,,,,,,,,,,,,masks/mask_005.jpg,,,,,,,,,,,,,,,,,,,,,,,,,,,,,,,,,,,,,,,,,,,,,,,,0,1,1,4,1,,,,,,,,,,,,,,,,,,,,,,,,,,,,,,,,,,,,,,,,,
909289,001,2022-11-13_23h27.49.969,Info_measure_main_exp,2022.2.2,Win32,61.10601894,,,,,,,,,,,,,,,,,,masks/mask_001.jpg,,,,,,,,,,,,,,,,,,,,,,,,,,,,,,,,,,,,,,,,,,,,,,,,0,2,2,0,1,,,,,,,,,,,,,,,,,,,,,,,,,,,,,,,,,,,,,,,,,
909289,001,2022-11-13_23h27.49.969,Info_measure_main_exp,2022.2.2,Win32,61.10601894,,,,,,,,,,,,,,,,,,masks/mask_003.jpg,,,,,,,,,,,,,,,,,,,,,,,,,,,,,,,,,,,,,,,,,,,,,,,,0,3,3,2,1,,,,,,,,,,,,,,,,,,,,,,,,,,,,,,,,,,,,,,,,,
909289,001,2022-11-13_23h27.49.969,Info_measure_main_exp,2022.2.2,Win32,61.10601894,,,,,,,,,,,,,,,,,,masks/mask_002.jpg,,,,,,,,,,,,,,,,,,,,,,,,,,,,,,,,,,,,,,,,,,,,,,,,0,4,4,1,1,,,,,,,,,,,,,,,,,,,,,,,,,,,,,,,,,,,,,,,,,
909289,001,2022-11-13_23h27.49.969,Info_measure_main_exp,2022.2.2,Win32,61.10601894,,,,,,,,,,,,,,,,,,,,,,,,,,,,,,7,2.9967,1,,,,,,,,,,,,0,131,5,5,2274,2154,absent_patch/patch0002274.jpg,absent_patch/patch0002154.jpg,,,,,,,,,,,,,,,,,,,,0.050000014,0.138888889,1,0,0,response1disk,24,0.001851894,0.001851859,1,0,0,center_square,0,23,23,23,1,,,,,,,,,,,,,,,,,,,,,,,
909289,001,2022-11-13_23h27.49.969,Info_measure_main_exp,2022.2.2,Win32,61.10601894,,,,,,,,,,,,,,,,,,masks/mask_001.jpg,,,,,,,,,,,,,,,,,,,,,,,,,,,,,,,,,,,,,,,,,,,0,0,0,0,1,,,,,,,,,,,,,,,,,,,,,,,,,,,,,,,,,,,,,,,,,,,,,,
909289,001,2022-11-13_23h27.49.969,Info_measure_main_exp,2022.2.2,Win32,61.10601894,,,,,,,,,,,,,,,,,,masks/mask_002.jpg,,,,,,,,,,,,,,,,,,,,,,,,,,,,,,,,,,,,,,,,,,,0,1,1,1,1,,,,,,,,,,,,,,,,,,,,,,,,,,,,,,,,,,,,,,,,,,,,,,
909289,001,2022-11-13_23h27.49.969,Info_measure_main_exp,2022.2.2,Win32,61.10601894,,,,,,,,,,,,,,,,,,masks/mask_003.jpg,,,,,,,,,,,,,,,,,,,,,,,,,,,,,,,,,,,,,,,,,,,0,2,2,2,1,,,,,,,,,,,,,,,,,,,,,,,,,,,,,,,,,,,,,,,,,,,,,,
909289,001,2022-11-13_23h27.49.969,Info_measure_main_exp,2022.2.2,Win32,61.10601894,,,,,,,,,,,,,,,,,,masks/mask_004.jpg,,,,,,,,,,,,,,,,,,,,,,,,,,,,,,,,,,,,,,,,,,,0,3,3,3,1,,,,,,,,,,,,,,,,,,,,,,,,,,,,,,,,,,,,,,,,,,,,,,
909289,001,2022-11-13_23h27.49.969,Info_measure_main_exp,2022.2.2,Win32,61.10601894,,,,,,,,,,,,,,,,,,masks/mask_005.jpg,,,,,,,,,,,,,,,,,,,,,,,,,,,,,,,,,,,,,,,,,,,0,4,4,4,1,,,,,,,,,,,,,,,,,,,,,,,,,,,,,,,,,,,,,,,,,,,,,,
909289,001,2022-11-13_23h27.49.969,Info_measure_main_exp,2022.2.2,Win32,61.10601894,,,,,,,,,,,,,,,,,,masks/mask_002.jpg,,,,,,,,,,,,,,,,,,,,,,,,,,,,,,,,,,,,,,,,,,,,,,,,0,0,0,1,1,,,,,,,,,,,,,,,,,,,,,,,,,,,,,,,,,,,,,,,,,
909289,001,2022-11-13_23h27.49.969,Info_measure_main_exp,2022.2.2,Win32,61.10601894,,,,,,,,,,,,,,,,,,masks/mask_003.jpg,,,,,,,,,,,,,,,,,,,,,,,,,,,,,,,,,,,,,,,,,,,,,,,,0,1,1,2,1,,,,,,,,,,,,,,,,,,,,,,,,,,,,,,,,,,,,,,,,,
909289,001,2022-11-13_23h27.49.969,Info_measure_main_exp,2022.2.2,Win32,61.10601894,,,,,,,,,,,,,,,,,,masks/mask_001.jpg,,,,,,,,,,,,,,,,,,,,,,,,,,,,,,,,,,,,,,,,,,,,,,,,0,2,2,0,1,,,,,,,,,,,,,,,,,,,,,,,,,,,,,,,,,,,,,,,,,
909289,001,2022-11-13_23h27.49.969,Info_measure_main_exp,2022.2.2,Win32,61.10601894,,,,,,,,,,,,,,,,,,masks/mask_005.jpg,,,,,,,,,,,,,,,,,,,,,,,,,,,,,,,,,,,,,,,,,,,,,,,,0,3,3,4,1,,,,,,,,,,,,,,,,,,,,,,,,,,,,,,,,,,,,,,,,,
909289,001,2022-11-13_23h27.49.969,Info_measure_main_exp,2022.2.2,Win32,61.10601894,,,,,,,,,,,,,,,,,,masks/mask_004.jpg,,,,,,,,,,,,,,,,,,,,,,,,,,,,,,,,,,,,,,,,,,,,,,,,0,4,4,3,1,,,,,,,,,,,,,,,,,,,,,,,,,,,,,,,,,,,,,,,,,
909289,001,2022-11-13_23h27.49.969,Info_measure_main_exp,2022.2.2,Win32,61.10601894,,,,,,,,,,,,,,,,,,,,,,,,,,,,,,7,0.5491,1,,,,,,,,,,,,0,131,5,5,2274,2166,absent_patch/patch0002274.jpg,absent_patch/patch0002166.jpg,,,,,,,,,,,,,,,,,,,,0.073148162,0.131481453,1,0,0,response1disk,25,0.000925982,-0.006481489,1,0,0,center_square,0,24,24,78,1,,,,,,,,,,,,,,,,,,,,,,,
909289,001,2022-11-13_23h27.49.969,Info_measure_main_exp,2022.2.2,Win32,61.10601894,,,,,,,,,,,,,,,,,,masks/mask_002.jpg,,,,,,,,,,,,,,,,,,,,,,,,,,,,,,,,,,,,,,,,,,,0,0,0,1,1,,,,,,,,,,,,,,,,,,,,,,,,,,,,,,,,,,,,,,,,,,,,,,
909289,001,2022-11-13_23h27.49.969,Info_measure_main_exp,2022.2.2,Win32,61.10601894,,,,,,,,,,,,,,,,,,masks/mask_005.jpg,,,,,,,,,,,,,,,,,,,,,,,,,,,,,,,,,,,,,,,,,,,0,1,1,4,1,,,,,,,,,,,,,,,,,,,,,,,,,,,,,,,,,,,,,,,,,,,,,,
909289,001,2022-11-13_23h27.49.969,Info_measure_main_exp,2022.2.2,Win32,61.10601894,,,,,,,,,,,,,,,,,,masks/mask_003.jpg,,,,,,,,,,,,,,,,,,,,,,,,,,,,,,,,,,,,,,,,,,,0,2,2,2,1,,,,,,,,,,,,,,,,,,,,,,,,,,,,,,,,,,,,,,,,,,,,,,
909289,001,2022-11-13_23h27.49.969,Info_measure_main_exp,2022.2.2,Win32,61.10601894,,,,,,,,,,,,,,,,,,masks/mask_001.jpg,,,,,,,,,,,,,,,,,,,,,,,,,,,,,,,,,,,,,,,,,,,0,3,3,0,1,,,,,,,,,,,,,,,,,,,,,,,,,,,,,,,,,,,,,,,,,,,,,,
909289,001,2022-11-13_23h27.49.969,Info_measure_main_exp,2022.2.2,Win32,61.10601894,,,,,,,,,,,,,,,,,,masks/mask_004.jpg,,,,,,,,,,,,,,,,,,,,,,,,,,,,,,,,,,,,,,,,,,,0,4,4,3,1,,,,,,,,,,,,,,,,,,,,,,,,,,,,,,,,,,,,,,,,,,,,,,
909289,001,2022-11-13_23h27.49.969,Info_measure_main_exp,2022.2.2,Win32,61.10601894,,,,,,,,,,,,,,,,,,masks/mask_001.jpg,,,,,,,,,,,,,,,,,,,,,,,,,,,,,,,,,,,,,,,,,,,,,,,,0,0,0,0,1,,,,,,,,,,,,,,,,,,,,,,,,,,,,,,,,,,,,,,,,,
909289,001,2022-11-13_23h27.49.969,Info_measure_main_exp,2022.2.2,Win32,61.10601894,,,,,,,,,,,,,,,,,,masks/mask_003.jpg,,,,,,,,,,,,,,,,,,,,,,,,,,,,,,,,,,,,,,,,,,,,,,,,0,1,1,2,1,,,,,,,,,,,,,,,,,,,,,,,,,,,,,,,,,,,,,,,,,
909289,001,2022-11-13_23h27.49.969,Info_measure_main_exp,2022.2.2,Win32,61.10601894,,,,,,,,,,,,,,,,,,masks/mask_004.jpg,,,,,,,,,,,,,,,,,,,,,,,,,,,,,,,,,,,,,,,,,,,,,,,,0,2,2,3,1,,,,,,,,,,,,,,,,,,,,,,,,,,,,,,,,,,,,,,,,,
909289,001,2022-11-13_23h27.49.969,Info_measure_main_exp,2022.2.2,Win32,61.10601894,,,,,,,,,,,,,,,,,,masks/mask_005.jpg,,,,,,,,,,,,,,,,,,,,,,,,,,,,,,,,,,,,,,,,,,,,,,,,0,3,3,4,1,,,,,,,,,,,,,,,,,,,,,,,,,,,,,,,,,,,,,,,,,
909289,001,2022-11-13_23h27.49.969,Info_measure_main_exp,2022.2.2,Win32,61.10601894,,,,,,,,,,,,,,,,,,masks/mask_002.jpg,,,,,,,,,,,,,,,,,,,,,,,,,,,,,,,,,,,,,,,,,,,,,,,,0,4,4,1,1,,,,,,,,,,,,,,,,,,,,,,,,,,,,,,,,,,,,,,,,,
909289,001,2022-11-13_23h27.49.969,Info_measure_main_exp,2022.2.2,Win32,61.10601894,,,,,,,,,,,,,,,,,,,,,,,,,,,,,,6,0.8823,1,,,,,,,,,,,,1,131,5,5,2082,1,absent_patch/patch0002082.jpg,present_patch/cong_131_5_a.jpg,,,,,,,,,,,,,,,,,,,,0.112037023,0.04351849,1,0,0,response1disk,26,-0.008333277,-0.00462963,1,0,0,center_square,0,25,25,65,1,,,,,,,,,,,,,,,,,,,,,,,
909289,001,2022-11-13_23h27.49.969,Info_measure_main_exp,2022.2.2,Win32,61.10601894,,,,,,,,,,,,,,,,,,masks/mask_002.jpg,,,,,,,,,,,,,,,,,,,,,,,,,,,,,,,,,,,,,,,,,,,0,0,0,1,1,,,,,,,,,,,,,,,,,,,,,,,,,,,,,,,,,,,,,,,,,,,,,,
909289,001,2022-11-13_23h27.49.969,Info_measure_main_exp,2022.2.2,Win32,61.10601894,,,,,,,,,,,,,,,,,,masks/mask_004.jpg,,,,,,,,,,,,,,,,,,,,,,,,,,,,,,,,,,,,,,,,,,,0,1,1,3,1,,,,,,,,,,,,,,,,,,,,,,,,,,,,,,,,,,,,,,,,,,,,,,
909289,001,2022-11-13_23h27.49.969,Info_measure_main_exp,2022.2.2,Win32,61.10601894,,,,,,,,,,,,,,,,,,masks/mask_001.jpg,,,,,,,,,,,,,,,,,,,,,,,,,,,,,,,,,,,,,,,,,,,0,2,2,0,1,,,,,,,,,,,,,,,,,,,,,,,,,,,,,,,,,,,,,,,,,,,,,,
909289,001,2022-11-13_23h27.49.969,Info_measure_main_exp,2022.2.2,Win32,61.10601894,,,,,,,,,,,,,,,,,,masks/mask_005.jpg,,,,,,,,,,,,,,,,,,,,,,,,,,,,,,,,,,,,,,,,,,,0,3,3,4,1,,,,,,,,,,,,,,,,,,,,,,,,,,,,,,,,,,,,,,,,,,,,,,
909289,001,2022-11-13_23h27.49.969,Info_measure_main_exp,2022.2.2,Win32,61.10601894,,,,,,,,,,,,,,,,,,masks/mask_003.jpg,,,,,,,,,,,,,,,,,,,,,,,,,,,,,,,,,,,,,,,,,,,0,4,4,2,1,,,,,,,,,,,,,,,,,,,,,,,,,,,,,,,,,,,,,,,,,,,,,,
909289,001,2022-11-13_23h27.49.969,Info_measure_main_exp,2022.2.2,Win32,61.10601894,,,,,,,,,,,,,,,,,,masks/mask_004.jpg,,,,,,,,,,,,,,,,,,,,,,,,,,,,,,,,,,,,,,,,,,,,,,,,0,0,0,3,1,,,,,,,,,,,,,,,,,,,,,,,,,,,,,,,,,,,,,,,,,
909289,001,2022-11-13_23h27.49.969,Info_measure_main_exp,2022.2.2,Win32,61.10601894,,,,,,,,,,,,,,,,,,masks/mask_001.jpg,,,,,,,,,,,,,,,,,,,,,,,,,,,,,,,,,,,,,,,,,,,,,,,,0,1,1,0,1,,,,,,,,,,,,,,,,,,,,,,,,,,,,,,,,,,,,,,,,,
909289,001,2022-11-13_23h27.49.969,Info_measure_main_exp,2022.2.2,Win32,61.10601894,,,,,,,,,,,,,,,,,,masks/mask_002.jpg,,,,,,,,,,,,,,,,,,,,,,,,,,,,,,,,,,,,,,,,,,,,,,,,0,2,2,1,1,,,,,,,,,,,,,,,,,,,,,,,,,,,,,,,,,,,,,,,,,
909289,001,2022-11-13_23h27.49.969,Info_measure_main_exp,2022.2.2,Win32,61.10601894,,,,,,,,,,,,,,,,,,masks/mask_005.jpg,,,,,,,,,,,,,,,,,,,,,,,,,,,,,,,,,,,,,,,,,,,,,,,,0,3,3,4,1,,,,,,,,,,,,,,,,,,,,,,,,,,,,,,,,,,,,,,,,,
909289,001,2022-11-13_23h27.49.969,Info_measure_main_exp,2022.2.2,Win32,61.10601894,,,,,,,,,,,,,,,,,,masks/mask_003.jpg,,,,,,,,,,,,,,,,,,,,,,,,,,,,,,,,,,,,,,,,,,,,,,,,0,4,4,2,1,,,,,,,,,,,,,,,,,,,,,,,,,,,,,,,,,,,,,,,,,
909289,001,2022-11-13_23h27.49.969,Info_measure_main_exp,2022.2.2,Win32,61.10601894,,,,,,,,,,,,,,,,,,,,,,,,,,,,,,6,2.2309,1,,,,,,,,,,,,0,131,5,5,2214,2166,absent_patch/patch0002214.jpg,absent_patch/patch0002166.jpg,,,,,,,,,,,,,,,,,,,,0.100000028,0.097222222,1,0,0,response1disk,27,-0.00462963,0.000925912,1,0,0,center_square,0,26,26,109,1,,,,,,,,,,,,,,,,,,,,,,,
909289,001,2022-11-13_23h27.49.969,Info_measure_main_exp,2022.2.2,Win32,61.10601894,,,,,,,,,,,,,,,,,,masks/mask_003.jpg,,,,,,,,,,,,,,,,,,,,,,,,,,,,,,,,,,,,,,,,,,,0,0,0,2,1,,,,,,,,,,,,,,,,,,,,,,,,,,,,,,,,,,,,,,,,,,,,,,
909289,001,2022-11-13_23h27.49.969,Info_measure_main_exp,2022.2.2,Win32,61.10601894,,,,,,,,,,,,,,,,,,masks/mask_001.jpg,,,,,,,,,,,,,,,,,,,,,,,,,,,,,,,,,,,,,,,,,,,0,1,1,0,1,,,,,,,,,,,,,,,,,,,,,,,,,,,,,,,,,,,,,,,,,,,,,,
909289,001,2022-11-13_23h27.49.969,Info_measure_main_exp,2022.2.2,Win32,61.10601894,,,,,,,,,,,,,,,,,,masks/mask_004.jpg,,,,,,,,,,,,,,,,,,,,,,,,,,,,,,,,,,,,,,,,,,,0,2,2,3,1,,,,,,,,,,,,,,,,,,,,,,,,,,,,,,,,,,,,,,,,,,,,,,
909289,001,2022-11-13_23h27.49.969,Info_measure_main_exp,2022.2.2,Win32,61.10601894,,,,,,,,,,,,,,,,,,masks/mask_005.jpg,,,,,,,,,,,,,,,,,,,,,,,,,,,,,,,,,,,,,,,,,,,0,3,3,4,1,,,,,,,,,,,,,,,,,,,,,,,,,,,,,,,,,,,,,,,,,,,,,,
909289,001,2022-11-13_23h27.49.969,Info_measure_main_exp,2022.2.2,Win32,61.10601894,,,,,,,,,,,,,,,,,,masks/mask_002.jpg,,,,,,,,,,,,,,,,,,,,,,,,,,,,,,,,,,,,,,,,,,,0,4,4,1,1,,,,,,,,,,,,,,,,,,,,,,,,,,,,,,,,,,,,,,,,,,,,,,
909289,001,2022-11-13_23h27.49.969,Info_measure_main_exp,2022.2.2,Win32,61.10601894,,,,,,,,,,,,,,,,,,masks/mask_005.jpg,,,,,,,,,,,,,,,,,,,,,,,,,,,,,,,,,,,,,,,,,,,,,,,,0,0,0,4,1,,,,,,,,,,,,,,,,,,,,,,,,,,,,,,,,,,,,,,,,,
909289,001,2022-11-13_23h27.49.969,Info_measure_main_exp,2022.2.2,Win32,61.10601894,,,,,,,,,,,,,,,,,,masks/mask_003.jpg,,,,,,,,,,,,,,,,,,,,,,,,,,,,,,,,,,,,,,,,,,,,,,,,0,1,1,2,1,,,,,,,,,,,,,,,,,,,,,,,,,,,,,,,,,,,,,,,,,
909289,001,2022-11-13_23h27.49.969,Info_measure_main_exp,2022.2.2,Win32,61.10601894,,,,,,,,,,,,,,,,,,masks/mask_004.jpg,,,,,,,,,,,,,,,,,,,,,,,,,,,,,,,,,,,,,,,,,,,,,,,,0,2,2,3,1,,,,,,,,,,,,,,,,,,,,,,,,,,,,,,,,,,,,,,,,,
909289,001,2022-11-13_23h27.49.969,Info_measure_main_exp,2022.2.2,Win32,61.10601894,,,,,,,,,,,,,,,,,,masks/mask_001.jpg,,,,,,,,,,,,,,,,,,,,,,,,,,,,,,,,,,,,,,,,,,,,,,,,0,3,3,0,1,,,,,,,,,,,,,,,,,,,,,,,,,,,,,,,,,,,,,,,,,
909289,001,2022-11-13_23h27.49.969,Info_measure_main_exp,2022.2.2,Win32,61.10601894,,,,,,,,,,,,,,,,,,masks/mask_002.jpg,,,,,,,,,,,,,,,,,,,,,,,,,,,,,,,,,,,,,,,,,,,,,,,,0,4,4,1,1,,,,,,,,,,,,,,,,,,,,,,,,,,,,,,,,,,,,,,,,,
909289,001,2022-11-13_23h27.49.969,Info_measure_main_exp,2022.2.2,Win32,61.10601894,,,,,,,,,,,,,,,,,,,,,,,,,,,,,,6,1.6154,1,,,,,,,,,,,,0,131,5,5,2274,2214,absent_patch/patch0002274.jpg,absent_patch/patch0002214.jpg,,,,,,,,,,,,,,,,,,,,0.099074116,0.051851838,1,0,0,response1disk,28,-0.008333277,-0.001851859,1,0,0,center_square,0,27,27,11,1,,,,,,,,,,,,,,,,,,,,,,,
909289,001,2022-11-13_23h27.49.969,Info_measure_main_exp,2022.2.2,Win32,61.10601894,,,,,,,,,,,,,,,,,,masks/mask_004.jpg,,,,,,,,,,,,,,,,,,,,,,,,,,,,,,,,,,,,,,,,,,,0,0,0,3,1,,,,,,,,,,,,,,,,,,,,,,,,,,,,,,,,,,,,,,,,,,,,,,
909289,001,2022-11-13_23h27.49.969,Info_measure_main_exp,2022.2.2,Win32,61.10601894,,,,,,,,,,,,,,,,,,masks/mask_001.jpg,,,,,,,,,,,,,,,,,,,,,,,,,,,,,,,,,,,,,,,,,,,0,1,1,0,1,,,,,,,,,,,,,,,,,,,,,,,,,,,,,,,,,,,,,,,,,,,,,,
909289,001,2022-11-13_23h27.49.969,Info_measure_main_exp,2022.2.2,Win32,61.10601894,,,,,,,,,,,,,,,,,,masks/mask_002.jpg,,,,,,,,,,,,,,,,,,,,,,,,,,,,,,,,,,,,,,,,,,,0,2,2,1,1,,,,,,,,,,,,,,,,,,,,,,,,,,,,,,,,,,,,,,,,,,,,,,
909289,001,2022-11-13_23h27.49.969,Info_measure_main_exp,2022.2.2,Win32,61.10601894,,,,,,,,,,,,,,,,,,masks/mask_003.jpg,,,,,,,,,,,,,,,,,,,,,,,,,,,,,,,,,,,,,,,,,,,0,3,3,2,1,,,,,,,,,,,,,,,,,,,,,,,,,,,,,,,,,,,,,,,,,,,,,,
909289,001,2022-11-13_23h27.49.969,Info_measure_main_exp,2022.2.2,Win32,61.10601894,,,,,,,,,,,,,,,,,,masks/mask_005.jpg,,,,,,,,,,,,,,,,,,,,,,,,,,,,,,,,,,,,,,,,,,,0,4,4,4,1,,,,,,,,,,,,,,,,,,,,,,,,,,,,,,,,,,,,,,,,,,,,,,
909289,001,2022-11-13_23h27.49.969,Info_measure_main_exp,2022.2.2,Win32,61.10601894,,,,,,,,,,,,,,,,,,masks/mask_005.jpg,,,,,,,,,,,,,,,,,,,,,,,,,,,,,,,,,,,,,,,,,,,,,,,,0,0,0,4,1,,,,,,,,,,,,,,,,,,,,,,,,,,,,,,,,,,,,,,,,,
909289,001,2022-11-13_23h27.49.969,Info_measure_main_exp,2022.2.2,Win32,61.10601894,,,,,,,,,,,,,,,,,,masks/mask_002.jpg,,,,,,,,,,,,,,,,,,,,,,,,,,,,,,,,,,,,,,,,,,,,,,,,0,1,1,1,1,,,,,,,,,,,,,,,,,,,,,,,,,,,,,,,,,,,,,,,,,
909289,001,2022-11-13_23h27.49.969,Info_measure_main_exp,2022.2.2,Win32,61.10601894,,,,,,,,,,,,,,,,,,masks/mask_001.jpg,,,,,,,,,,,,,,,,,,,,,,,,,,,,,,,,,,,,,,,,,,,,,,,,0,2,2,0,1,,,,,,,,,,,,,,,,,,,,,,,,,,,,,,,,,,,,,,,,,
909289,001,2022-11-13_23h27.49.969,Info_measure_main_exp,2022.2.2,Win32,61.10601894,,,,,,,,,,,,,,,,,,masks/mask_004.jpg,,,,,,,,,,,,,,,,,,,,,,,,,,,,,,,,,,,,,,,,,,,,,,,,0,3,3,3,1,,,,,,,,,,,,,,,,,,,,,,,,,,,,,,,,,,,,,,,,,
909289,001,2022-11-13_23h27.49.969,Info_measure_main_exp,2022.2.2,Win32,61.10601894,,,,,,,,,,,,,,,,,,masks/mask_003.jpg,,,,,,,,,,,,,,,,,,,,,,,,,,,,,,,,,,,,,,,,,,,,,,,,0,4,4,2,1,,,,,,,,,,,,,,,,,,,,,,,,,,,,,,,,,,,,,,,,,
909289,001,2022-11-13_23h27.49.969,Info_measure_main_exp,2022.2.2,Win32,61.10601894,,,,,,,,,,,,,,,,,,,,,,,,,,,,,,7,1.0321,1,,,,,,,,,,,,1,131,5,5,2190,1,absent_patch/patch0002190.jpg,present_patch/cong_131_5_a.jpg,,,,,,,,,,,,,,,,,,,,0.074074074,0.142592571,1,0,0,response1disk,29,-0.006481453,-0.0074074,1,0,0,center_square,0,28,28,64,1,,,,,,,,,,,,,,,,,,,,,,,
909289,001,2022-11-13_23h27.49.969,Info_measure_main_exp,2022.2.2,Win32,61.10601894,,,,,,,,,,,,,,,,,,masks/mask_002.jpg,,,,,,,,,,,,,,,,,,,,,,,,,,,,,,,,,,,,,,,,,,,0,0,0,1,1,,,,,,,,,,,,,,,,,,,,,,,,,,,,,,,,,,,,,,,,,,,,,,
909289,001,2022-11-13_23h27.49.969,Info_measure_main_exp,2022.2.2,Win32,61.10601894,,,,,,,,,,,,,,,,,,masks/mask_004.jpg,,,,,,,,,,,,,,,,,,,,,,,,,,,,,,,,,,,,,,,,,,,0,1,1,3,1,,,,,,,,,,,,,,,,,,,,,,,,,,,,,,,,,,,,,,,,,,,,,,
909289,001,2022-11-13_23h27.49.969,Info_measure_main_exp,2022.2.2,Win32,61.10601894,,,,,,,,,,,,,,,,,,masks/mask_003.jpg,,,,,,,,,,,,,,,,,,,,,,,,,,,,,,,,,,,,,,,,,,,0,2,2,2,1,,,,,,,,,,,,,,,,,,,,,,,,,,,,,,,,,,,,,,,,,,,,,,
909289,001,2022-11-13_23h27.49.969,Info_measure_main_exp,2022.2.2,Win32,61.10601894,,,,,,,,,,,,,,,,,,masks/mask_005.jpg,,,,,,,,,,,,,,,,,,,,,,,,,,,,,,,,,,,,,,,,,,,0,3,3,4,1,,,,,,,,,,,,,,,,,,,,,,,,,,,,,,,,,,,,,,,,,,,,,,
909289,001,2022-11-13_23h27.49.969,Info_measure_main_exp,2022.2.2,Win32,61.10601894,,,,,,,,,,,,,,,,,,masks/mask_001.jpg,,,,,,,,,,,,,,,,,,,,,,,,,,,,,,,,,,,,,,,,,,,0,4,4,0,1,,,,,,,,,,,,,,,,,,,,,,,,,,,,,,,,,,,,,,,,,,,,,,
909289,001,2022-11-13_23h27.49.969,Info_measure_main_exp,2022.2.2,Win32,61.10601894,,,,,,,,,,,,,,,,,,masks/mask_005.jpg,,,,,,,,,,,,,,,,,,,,,,,,,,,,,,,,,,,,,,,,,,,,,,,,0,0,0,4,1,,,,,,,,,,,,,,,,,,,,,,,,,,,,,,,,,,,,,,,,,
909289,001,2022-11-13_23h27.49.969,Info_measure_main_exp,2022.2.2,Win32,61.10601894,,,,,,,,,,,,,,,,,,masks/mask_003.jpg,,,,,,,,,,,,,,,,,,,,,,,,,,,,,,,,,,,,,,,,,,,,,,,,0,1,1,2,1,,,,,,,,,,,,,,,,,,,,,,,,,,,,,,,,,,,,,,,,,
909289,001,2022-11-13_23h27.49.969,Info_measure_main_exp,2022.2.2,Win32,61.10601894,,,,,,,,,,,,,,,,,,masks/mask_001.jpg,,,,,,,,,,,,,,,,,,,,,,,,,,,,,,,,,,,,,,,,,,,,,,,,0,2,2,0,1,,,,,,,,,,,,,,,,,,,,,,,,,,,,,,,,,,,,,,,,,
909289,001,2022-11-13_23h27.49.969,Info_measure_main_exp,2022.2.2,Win32,61.10601894,,,,,,,,,,,,,,,,,,masks/mask_004.jpg,,,,,,,,,,,,,,,,,,,,,,,,,,,,,,,,,,,,,,,,,,,,,,,,0,3,3,3,1,,,,,,,,,,,,,,,,,,,,,,,,,,,,,,,,,,,,,,,,,
909289,001,2022-11-13_23h27.49.969,Info_measure_main_exp,2022.2.2,Win32,61.10601894,,,,,,,,,,,,,,,,,,masks/mask_002.jpg,,,,,,,,,,,,,,,,,,,,,,,,,,,,,,,,,,,,,,,,,,,,,,,,0,4,4,1,1,,,,,,,,,,,,,,,,,,,,,,,,,,,,,,,,,,,,,,,,,
909289,001,2022-11-13_23h27.49.969,Info_measure_main_exp,2022.2.2,Win32,61.10601894,,,,,,,,,,,,,,,,,,,,,,,,,,,,,,7,0.4501,1,,,,,,,,,,,,1,131,5,5,2238,1,absent_patch/patch0002238.jpg,present_patch/cong_131_5_a.jpg,,,,,,,,,,,,,,,,,,,,0.062962991,0.123148141,1,0,0,response1disk,30,0.009259259,0.008333312,1,0,0,center_square,0,29,29,104,1,,,,,,,,,,,,,,,,,,,,,,,
909289,001,2022-11-13_23h27.49.969,Info_measure_main_exp,2022.2.2,Win32,61.10601894,,,,,,,,,,,,,,,,,,masks/mask_003.jpg,,,,,,,,,,,,,,,,,,,,,,,,,,,,,,,,,,,,,,,,,,,0,0,0,2,1,,,,,,,,,,,,,,,,,,,,,,,,,,,,,,,,,,,,,,,,,,,,,,
909289,001,2022-11-13_23h27.49.969,Info_measure_main_exp,2022.2.2,Win32,61.10601894,,,,,,,,,,,,,,,,,,masks/mask_005.jpg,,,,,,,,,,,,,,,,,,,,,,,,,,,,,,,,,,,,,,,,,,,0,1,1,4,1,,,,,,,,,,,,,,,,,,,,,,,,,,,,,,,,,,,,,,,,,,,,,,
909289,001,2022-11-13_23h27.49.969,Info_measure_main_exp,2022.2.2,Win32,61.10601894,,,,,,,,,,,,,,,,,,masks/mask_002.jpg,,,,,,,,,,,,,,,,,,,,,,,,,,,,,,,,,,,,,,,,,,,0,2,2,1,1,,,,,,,,,,,,,,,,,,,,,,,,,,,,,,,,,,,,,,,,,,,,,,
909289,001,2022-11-13_23h27.49.969,Info_measure_main_exp,2022.2.2,Win32,61.10601894,,,,,,,,,,,,,,,,,,masks/mask_004.jpg,,,,,,,,,,,,,,,,,,,,,,,,,,,,,,,,,,,,,,,,,,,0,3,3,3,1,,,,,,,,,,,,,,,,,,,,,,,,,,,,,,,,,,,,,,,,,,,,,,
909289,001,2022-11-13_23h27.49.969,Info_measure_main_exp,2022.2.2,Win32,61.10601894,,,,,,,,,,,,,,,,,,masks/mask_001.jpg,,,,,,,,,,,,,,,,,,,,,,,,,,,,,,,,,,,,,,,,,,,0,4,4,0,1,,,,,,,,,,,,,,,,,,,,,,,,,,,,,,,,,,,,,,,,,,,,,,
909289,001,2022-11-13_23h27.49.969,Info_measure_main_exp,2022.2.2,Win32,61.10601894,,,,,,,,,,,,,,,,,,masks/mask_003.jpg,,,,,,,,,,,,,,,,,,,,,,,,,,,,,,,,,,,,,,,,,,,,,,,,0,0,0,2,1,,,,,,,,,,,,,,,,,,,,,,,,,,,,,,,,,,,,,,,,,
909289,001,2022-11-13_23h27.49.969,Info_measure_main_exp,2022.2.2,Win32,61.10601894,,,,,,,,,,,,,,,,,,masks/mask_002.jpg,,,,,,,,,,,,,,,,,,,,,,,,,,,,,,,,,,,,,,,,,,,,,,,,0,1,1,1,1,,,,,,,,,,,,,,,,,,,,,,,,,,,,,,,,,,,,,,,,,
909289,001,2022-11-13_23h27.49.969,Info_measure_main_exp,2022.2.2,Win32,61.10601894,,,,,,,,,,,,,,,,,,masks/mask_001.jpg,,,,,,,,,,,,,,,,,,,,,,,,,,,,,,,,,,,,,,,,,,,,,,,,0,2,2,0,1,,,,,,,,,,,,,,,,,,,,,,,,,,,,,,,,,,,,,,,,,
909289,001,2022-11-13_23h27.49.969,Info_measure_main_exp,2022.2.2,Win32,61.10601894,,,,,,,,,,,,,,,,,,masks/mask_004.jpg,,,,,,,,,,,,,,,,,,,,,,,,,,,,,,,,,,,,,,,,,,,,,,,,0,3,3,3,1,,,,,,,,,,,,,,,,,,,,,,,,,,,,,,,,,,,,,,,,,
909289,001,2022-11-13_23h27.49.969,Info_measure_main_exp,2022.2.2,Win32,61.10601894,,,,,,,,,,,,,,,,,,masks/mask_005.jpg,,,,,,,,,,,,,,,,,,,,,,,,,,,,,,,,,,,,,,,,,,,,,,,,0,4,4,4,1,,,,,,,,,,,,,,,,,,,,,,,,,,,,,,,,,,,,,,,,,
909289,001,2022-11-13_23h27.49.969,Info_measure_main_exp,2022.2.2,Win32,61.10601894,,,,,,,,,,,,,,,,,,,,,,,,,,,,,,6,1.4987,1,,,,,,,,,,,,1,131,5,5,1,2154,present_patch/cong_131_5_a.jpg,absent_patch/patch0002154.jpg,,,,,,,,,,,,,,,,,,,,0.127777806,0.075925898,1,0,0,response1disk,31,0.00462963,-0.009259259,1,0,0,center_square,0,30,30,87,1,,,,,,,,,,,,,,,,,,,,,,,
909289,001,2022-11-13_23h27.49.969,Info_measure_main_exp,2022.2.2,Win32,61.10601894,,,,,,,,,,,,,,,,,,masks/mask_004.jpg,,,,,,,,,,,,,,,,,,,,,,,,,,,,,,,,,,,,,,,,,,,0,0,0,3,1,,,,,,,,,,,,,,,,,,,,,,,,,,,,,,,,,,,,,,,,,,,,,,
909289,001,2022-11-13_23h27.49.969,Info_measure_main_exp,2022.2.2,Win32,61.10601894,,,,,,,,,,,,,,,,,,masks/mask_002.jpg,,,,,,,,,,,,,,,,,,,,,,,,,,,,,,,,,,,,,,,,,,,0,1,1,1,1,,,,,,,,,,,,,,,,,,,,,,,,,,,,,,,,,,,,,,,,,,,,,,
909289,001,2022-11-13_23h27.49.969,Info_measure_main_exp,2022.2.2,Win32,61.10601894,,,,,,,,,,,,,,,,,,masks/mask_001.jpg,,,,,,,,,,,,,,,,,,,,,,,,,,,,,,,,,,,,,,,,,,,0,2,2,0,1,,,,,,,,,,,,,,,,,,,,,,,,,,,,,,,,,,,,,,,,,,,,,,
909289,001,2022-11-13_23h27.49.969,Info_measure_main_exp,2022.2.2,Win32,61.10601894,,,,,,,,,,,,,,,,,,masks/mask_005.jpg,,,,,,,,,,,,,,,,,,,,,,,,,,,,,,,,,,,,,,,,,,,0,3,3,4,1,,,,,,,,,,,,,,,,,,,,,,,,,,,,,,,,,,,,,,,,,,,,,,
909289,001,2022-11-13_23h27.49.969,Info_measure_main_exp,2022.2.2,Win32,61.10601894,,,,,,,,,,,,,,,,,,masks/mask_003.jpg,,,,,,,,,,,,,,,,,,,,,,,,,,,,,,,,,,,,,,,,,,,0,4,4,2,1,,,,,,,,,,,,,,,,,,,,,,,,,,,,,,,,,,,,,,,,,,,,,,
909289,001,2022-11-13_23h27.49.969,Info_measure_main_exp,2022.2.2,Win32,61.10601894,,,,,,,,,,,,,,,,,,masks/mask_004.jpg,,,,,,,,,,,,,,,,,,,,,,,,,,,,,,,,,,,,,,,,,,,,,,,,0,0,0,3,1,,,,,,,,,,,,,,,,,,,,,,,,,,,,,,,,,,,,,,,,,
909289,001,2022-11-13_23h27.49.969,Info_measure_main_exp,2022.2.2,Win32,61.10601894,,,,,,,,,,,,,,,,,,masks/mask_003.jpg,,,,,,,,,,,,,,,,,,,,,,,,,,,,,,,,,,,,,,,,,,,,,,,,0,1,1,2,1,,,,,,,,,,,,,,,,,,,,,,,,,,,,,,,,,,,,,,,,,
909289,001,2022-11-13_23h27.49.969,Info_measure_main_exp,2022.2.2,Win32,61.10601894,,,,,,,,,,,,,,,,,,masks/mask_005.jpg,,,,,,,,,,,,,,,,,,,,,,,,,,,,,,,,,,,,,,,,,,,,,,,,0,2,2,4,1,,,,,,,,,,,,,,,,,,,,,,,,,,,,,,,,,,,,,,,,,
909289,001,2022-11-13_23h27.49.969,Info_measure_main_exp,2022.2.2,Win32,61.10601894,,,,,,,,,,,,,,,,,,masks/mask_001.jpg,,,,,,,,,,,,,,,,,,,,,,,,,,,,,,,,,,,,,,,,,,,,,,,,0,3,3,0,1,,,,,,,,,,,,,,,,,,,,,,,,,,,,,,,,,,,,,,,,,
909289,001,2022-11-13_23h27.49.969,Info_measure_main_exp,2022.2.2,Win32,61.10601894,,,,,,,,,,,,,,,,,,masks/mask_002.jpg,,,,,,,,,,,,,,,,,,,,,,,,,,,,,,,,,,,,,,,,,,,,,,,,0,4,4,1,1,,,,,,,,,,,,,,,,,,,,,,,,,,,,,,,,,,,,,,,,,
909289,001,2022-11-13_23h27.49.969,Info_measure_main_exp,2022.2.2,Win32,61.10601894,,,,,,,,,,,,,,,,,,,,,,,,,,,,,,7,1.5986,1,,,,,,,,,,,,0,131,5,5,2142,2082,absent_patch/patch0002142.jpg,absent_patch/patch0002082.jpg,,,,,,,,,,,,,,,,,,,,0.067592621,0.16111109,1,0,0,response1disk,32,0.006481524,0.009259259,1,0,0,center_square,0,31,31,88,1,,,,,,,,,,,,,,,,,,,,,,,
909289,001,2022-11-13_23h27.49.969,Info_measure_main_exp,2022.2.2,Win32,61.10601894,,,,,,,,,,,,,,,,,,masks/mask_002.jpg,,,,,,,,,,,,,,,,,,,,,,,,,,,,,,,,,,,,,,,,,,,0,0,0,1,1,,,,,,,,,,,,,,,,,,,,,,,,,,,,,,,,,,,,,,,,,,,,,,
909289,001,2022-11-13_23h27.49.969,Info_measure_main_exp,2022.2.2,Win32,61.10601894,,,,,,,,,,,,,,,,,,masks/mask_005.jpg,,,,,,,,,,,,,,,,,,,,,,,,,,,,,,,,,,,,,,,,,,,0,1,1,4,1,,,,,,,,,,,,,,,,,,,,,,,,,,,,,,,,,,,,,,,,,,,,,,
909289,001,2022-11-13_23h27.49.969,Info_measure_main_exp,2022.2.2,Win32,61.10601894,,,,,,,,,,,,,,,,,,masks/mask_003.jpg,,,,,,,,,,,,,,,,,,,,,,,,,,,,,,,,,,,,,,,,,,,0,2,2,2,1,,,,,,,,,,,,,,,,,,,,,,,,,,,,,,,,,,,,,,,,,,,,,,
909289,001,2022-11-13_23h27.49.969,Info_measure_main_exp,2022.2.2,Win32,61.10601894,,,,,,,,,,,,,,,,,,masks/mask_004.jpg,,,,,,,,,,,,,,,,,,,,,,,,,,,,,,,,,,,,,,,,,,,0,3,3,3,1,,,,,,,,,,,,,,,,,,,,,,,,,,,,,,,,,,,,,,,,,,,,,,
909289,001,2022-11-13_23h27.49.969,Info_measure_main_exp,2022.2.2,Win32,61.10601894,,,,,,,,,,,,,,,,,,masks/mask_001.jpg,,,,,,,,,,,,,,,,,,,,,,,,,,,,,,,,,,,,,,,,,,,0,4,4,0,1,,,,,,,,,,,,,,,,,,,,,,,,,,,,,,,,,,,,,,,,,,,,,,
909289,001,2022-11-13_23h27.49.969,Info_measure_main_exp,2022.2.2,Win32,61.10601894,,,,,,,,,,,,,,,,,,masks/mask_005.jpg,,,,,,,,,,,,,,,,,,,,,,,,,,,,,,,,,,,,,,,,,,,,,,,,0,0,0,4,1,,,,,,,,,,,,,,,,,,,,,,,,,,,,,,,,,,,,,,,,,
909289,001,2022-11-13_23h27.49.969,Info_measure_main_exp,2022.2.2,Win32,61.10601894,,,,,,,,,,,,,,,,,,masks/mask_003.jpg,,,,,,,,,,,,,,,,,,,,,,,,,,,,,,,,,,,,,,,,,,,,,,,,0,1,1,2,1,,,,,,,,,,,,,,,,,,,,,,,,,,,,,,,,,,,,,,,,,
909289,001,2022-11-13_23h27.49.969,Info_measure_main_exp,2022.2.2,Win32,61.10601894,,,,,,,,,,,,,,,,,,masks/mask_004.jpg,,,,,,,,,,,,,,,,,,,,,,,,,,,,,,,,,,,,,,,,,,,,,,,,0,2,2,3,1,,,,,,,,,,,,,,,,,,,,,,,,,,,,,,,,,,,,,,,,,
909289,001,2022-11-13_23h27.49.969,Info_measure_main_exp,2022.2.2,Win32,61.10601894,,,,,,,,,,,,,,,,,,masks/mask_001.jpg,,,,,,,,,,,,,,,,,,,,,,,,,,,,,,,,,,,,,,,,,,,,,,,,0,3,3,0,1,,,,,,,,,,,,,,,,,,,,,,,,,,,,,,,,,,,,,,,,,
909289,001,2022-11-13_23h27.49.969,Info_measure_main_exp,2022.2.2,Win32,61.10601894,,,,,,,,,,,,,,,,,,masks/mask_002.jpg,,,,,,,,,,,,,,,,,,,,,,,,,,,,,,,,,,,,,,,,,,,,,,,,0,4,4,1,1,,,,,,,,,,,,,,,,,,,,,,,,,,,,,,,,,,,,,,,,,
909289,001,2022-11-13_23h27.49.969,Info_measure_main_exp,2022.2.2,Win32,61.10601894,,,,,,,,,,,,,,,,,,,,,,,,,,,,,,5,2.2483,1,,,,,,,,,,,,0,131,5,5,2142,2166,absent_patch/patch0002142.jpg,absent_patch/patch0002166.jpg,,,,,,,,,,,,,,,,,,,,0.102777764,-0.038888896,1,0,0,response3disk,33,-0.000925912,-0.000925947,1,0,0,center_square,0,32,32,66,1,,,,,,,,,,,,,,,,,,,,,,,
909289,001,2022-11-13_23h27.49.969,Info_measure_main_exp,2022.2.2,Win32,61.10601894,,,,,,,,,,,,,,,,,,masks/mask_004.jpg,,,,,,,,,,,,,,,,,,,,,,,,,,,,,,,,,,,,,,,,,,,0,0,0,3,1,,,,,,,,,,,,,,,,,,,,,,,,,,,,,,,,,,,,,,,,,,,,,,
909289,001,2022-11-13_23h27.49.969,Info_measure_main_exp,2022.2.2,Win32,61.10601894,,,,,,,,,,,,,,,,,,masks/mask_001.jpg,,,,,,,,,,,,,,,,,,,,,,,,,,,,,,,,,,,,,,,,,,,0,1,1,0,1,,,,,,,,,,,,,,,,,,,,,,,,,,,,,,,,,,,,,,,,,,,,,,
909289,001,2022-11-13_23h27.49.969,Info_measure_main_exp,2022.2.2,Win32,61.10601894,,,,,,,,,,,,,,,,,,masks/mask_005.jpg,,,,,,,,,,,,,,,,,,,,,,,,,,,,,,,,,,,,,,,,,,,0,2,2,4,1,,,,,,,,,,,,,,,,,,,,,,,,,,,,,,,,,,,,,,,,,,,,,,
909289,001,2022-11-13_23h27.49.969,Info_measure_main_exp,2022.2.2,Win32,61.10601894,,,,,,,,,,,,,,,,,,masks/mask_003.jpg,,,,,,,,,,,,,,,,,,,,,,,,,,,,,,,,,,,,,,,,,,,0,3,3,2,1,,,,,,,,,,,,,,,,,,,,,,,,,,,,,,,,,,,,,,,,,,,,,,
909289,001,2022-11-13_23h27.49.969,Info_measure_main_exp,2022.2.2,Win32,61.10601894,,,,,,,,,,,,,,,,,,masks/mask_002.jpg,,,,,,,,,,,,,,,,,,,,,,,,,,,,,,,,,,,,,,,,,,,0,4,4,1,1,,,,,,,,,,,,,,,,,,,,,,,,,,,,,,,,,,,,,,,,,,,,,,
909289,001,2022-11-13_23h27.49.969,Info_measure_main_exp,2022.2.2,Win32,61.10601894,,,,,,,,,,,,,,,,,,masks/mask_005.jpg,,,,,,,,,,,,,,,,,,,,,,,,,,,,,,,,,,,,,,,,,,,,,,,,0,0,0,4,1,,,,,,,,,,,,,,,,,,,,,,,,,,,,,,,,,,,,,,,,,
909289,001,2022-11-13_23h27.49.969,Info_measure_main_exp,2022.2.2,Win32,61.10601894,,,,,,,,,,,,,,,,,,masks/mask_004.jpg,,,,,,,,,,,,,,,,,,,,,,,,,,,,,,,,,,,,,,,,,,,,,,,,0,1,1,3,1,,,,,,,,,,,,,,,,,,,,,,,,,,,,,,,,,,,,,,,,,
909289,001,2022-11-13_23h27.49.969,Info_measure_main_exp,2022.2.2,Win32,61.10601894,,,,,,,,,,,,,,,,,,masks/mask_003.jpg,,,,,,,,,,,,,,,,,,,,,,,,,,,,,,,,,,,,,,,,,,,,,,,,0,2,2,2,1,,,,,,,,,,,,,,,,,,,,,,,,,,,,,,,,,,,,,,,,,
909289,001,2022-11-13_23h27.49.969,Info_measure_main_exp,2022.2.2,Win32,61.10601894,,,,,,,,,,,,,,,,,,masks/mask_002.jpg,,,,,,,,,,,,,,,,,,,,,,,,,,,,,,,,,,,,,,,,,,,,,,,,0,3,3,1,1,,,,,,,,,,,,,,,,,,,,,,,,,,,,,,,,,,,,,,,,,
909289,001,2022-11-13_23h27.49.969,Info_measure_main_exp,2022.2.2,Win32,61.10601894,,,,,,,,,,,,,,,,,,masks/mask_001.jpg,,,,,,,,,,,,,,,,,,,,,,,,,,,,,,,,,,,,,,,,,,,,,,,,0,4,4,0,1,,,,,,,,,,,,,,,,,,,,,,,,,,,,,,,,,,,,,,,,,
909289,001,2022-11-13_23h27.49.969,Info_measure_main_exp,2022.2.2,Win32,61.10601894,,,,,,,,,,,,,,,,,,,,,,,,,,,,,,3,0.9655,1,,,,,,,,,,,,0,131,5,5,2298,2214,absent_patch/patch0002298.jpg,absent_patch/patch0002214.jpg,,,,,,,,,,,,,,,,,,,,-0.020370342,-0.113888917,1,0,0,response5disk,34,0.005555612,0.000925912,1,0,0,center_square,0,33,33,99,1,,,,,,,,,,,,,,,,,,,,,,,
909289,001,2022-11-13_23h27.49.969,Info_measure_main_exp,2022.2.2,Win32,61.10601894,,,,,,,,,,,,,,,,,,masks/mask_005.jpg,,,,,,,,,,,,,,,,,,,,,,,,,,,,,,,,,,,,,,,,,,,0,0,0,4,1,,,,,,,,,,,,,,,,,,,,,,,,,,,,,,,,,,,,,,,,,,,,,,
909289,001,2022-11-13_23h27.49.969,Info_measure_main_exp,2022.2.2,Win32,61.10601894,,,,,,,,,,,,,,,,,,masks/mask_002.jpg,,,,,,,,,,,,,,,,,,,,,,,,,,,,,,,,,,,,,,,,,,,0,1,1,1,1,,,,,,,,,,,,,,,,,,,,,,,,,,,,,,,,,,,,,,,,,,,,,,
909289,001,2022-11-13_23h27.49.969,Info_measure_main_exp,2022.2.2,Win32,61.10601894,,,,,,,,,,,,,,,,,,masks/mask_004.jpg,,,,,,,,,,,,,,,,,,,,,,,,,,,,,,,,,,,,,,,,,,,0,2,2,3,1,,,,,,,,,,,,,,,,,,,,,,,,,,,,,,,,,,,,,,,,,,,,,,
909289,001,2022-11-13_23h27.49.969,Info_measure_main_exp,2022.2.2,Win32,61.10601894,,,,,,,,,,,,,,,,,,masks/mask_001.jpg,,,,,,,,,,,,,,,,,,,,,,,,,,,,,,,,,,,,,,,,,,,0,3,3,0,1,,,,,,,,,,,,,,,,,,,,,,,,,,,,,,,,,,,,,,,,,,,,,,
909289,001,2022-11-13_23h27.49.969,Info_measure_main_exp,2022.2.2,Win32,61.10601894,,,,,,,,,,,,,,,,,,masks/mask_003.jpg,,,,,,,,,,,,,,,,,,,,,,,,,,,,,,,,,,,,,,,,,,,0,4,4,2,1,,,,,,,,,,,,,,,,,,,,,,,,,,,,,,,,,,,,,,,,,,,,,,
909289,001,2022-11-13_23h27.49.969,Info_measure_main_exp,2022.2.2,Win32,61.10601894,,,,,,,,,,,,,,,,,,masks/mask_004.jpg,,,,,,,,,,,,,,,,,,,,,,,,,,,,,,,,,,,,,,,,,,,,,,,,0,0,0,3,1,,,,,,,,,,,,,,,,,,,,,,,,,,,,,,,,,,,,,,,,,
909289,001,2022-11-13_23h27.49.969,Info_measure_main_exp,2022.2.2,Win32,61.10601894,,,,,,,,,,,,,,,,,,masks/mask_001.jpg,,,,,,,,,,,,,,,,,,,,,,,,,,,,,,,,,,,,,,,,,,,,,,,,0,1,1,0,1,,,,,,,,,,,,,,,,,,,,,,,,,,,,,,,,,,,,,,,,,
909289,001,2022-11-13_23h27.49.969,Info_measure_main_exp,2022.2.2,Win32,61.10601894,,,,,,,,,,,,,,,,,,masks/mask_005.jpg,,,,,,,,,,,,,,,,,,,,,,,,,,,,,,,,,,,,,,,,,,,,,,,,0,2,2,4,1,,,,,,,,,,,,,,,,,,,,,,,,,,,,,,,,,,,,,,,,,
909289,001,2022-11-13_23h27.49.969,Info_measure_main_exp,2022.2.2,Win32,61.10601894,,,,,,,,,,,,,,,,,,masks/mask_002.jpg,,,,,,,,,,,,,,,,,,,,,,,,,,,,,,,,,,,,,,,,,,,,,,,,0,3,3,1,1,,,,,,,,,,,,,,,,,,,,,,,,,,,,,,,,,,,,,,,,,
