participant,session,date,expName,psychopyVersion,OS,frameRate,space_press_continue.keys,space_press_continue.rt,space_press_continue_2.keys,space_press_continue_2.rt,space_press_continue_3.keys,space_press_continue_3.rt,space_press_continue_4.keys,space_press_continue_4.rt,space_press_continue_5.keys,space_press_continue_5.rt,space_press_continue_6.keys,space_press_continue_6.rt,prac_mask_loop_1.thisRepN,prac_mask_loop_1.thisTrialN,prac_mask_loop_1.thisN,prac_mask_loop_1.thisIndex,prac_mask_loop_1.ran,mask_name,prac_mask_loop_2.thisRepN,prac_mask_loop_2.thisTrialN,prac_mask_loop_2.thisN,prac_mask_loop_2.thisIndex,prac_mask_loop_2.ran,mouse_2.x,mouse_2.y,mouse_2.leftButton,mouse_2.midButton,mouse_2.rightButton,mouse_2.clicked_name,similarity,response_time,Pass,mouse_12.x,mouse_12.y,mouse_12.leftButton,mouse_12.midButton,mouse_12.rightButton,mouse_12.clicked_name,prac_loop.thisRepN,prac_loop.thisTrialN,prac_loop.thisN,prac_loop.thisIndex,prac_loop.ran,Pair_type,Image_num,Patch_1_loc,Patch_2_loc,Patch_1_info,Patch_2_info,Patch_1_name,Patch_2_name,mouse_1.x,mouse_1.y,mouse_1.leftButton,mouse_1.midButton,mouse_1.rightButton,mouse_1.time,mouse_1.clicked_name,space_press_continue_7.keys,space_press_continue_7.rt,mask_loop.thisRepN,mask_loop.thisTrialN,mask_loop.thisN,mask_loop.thisIndex,mask_loop.ran,mask_loop_2.thisRepN,mask_loop_2.thisTrialN,mask_loop_2.thisN,mask_loop_2.thisIndex,mask_loop_2.ran,mouse.x,mouse.y,mouse.leftButton,mouse.midButton,mouse.rightButton,mouse.clicked_name,trialNumber,mouse_11.x,mouse_11.y,mouse_11.leftButton,mouse_11.midButton,mouse_11.rightButton,mouse_11.clicked_name,first_pass_loop.thisRepN,first_pass_loop.thisTrialN,first_pass_loop.thisN,first_pass_loop.thisIndex,first_pass_loop.ran,mask_loop_3.thisRepN,mask_loop_3.thisTrialN,mask_loop_3.thisN,mask_loop_3.thisIndex,mask_loop_3.ran,mask_loop_4.thisRepN,mask_loop_4.thisTrialN,mask_loop_4.thisN,mask_loop_4.thisIndex,mask_loop_4.ran,mouse_3.x,mouse_3.y,mouse_3.leftButton,mouse_3.midButton,mouse_3.rightButton,mouse_3.clicked_name,double_pass_loop.thisRepN,double_pass_loop.thisTrialN,double_pass_loop.thisN,double_pass_loop.thisIndex,double_pass_loop.ran,space_exit.keys,space_exit.rt
917194,001,2022-11-20_23h55.38.194,Info_measure_main_exp,2022.2.2,Win32,60.40106306,,,,,,,,,,,,,,,,,,,,,,,,,,,,,,,,,,,,,,,,,,,,,,,,,,,,,,,,,,,,,,,,,,,,,,,,,,,,,,,,,,,,,,,,,,,,,,,,,,,,,,,,,,,,,,,
917194,001,2022-11-20_23h55.38.194,Info_measure_main_exp,2022.2.2,Win32,60.40106306,,,,,,,,,,,,,,,,,,,,,,,,,,,,,,,,,,,,,,,,,,,,,,,,,,,,,,,,,,,,,,,,,,,,,,,,,,,,,,,,,,,,,,,,,,,,,,,,,,,,,,,,,,,,,,,
917194,001,2022-11-20_23h55.38.194,Info_measure_main_exp,2022.2.2,Win32,60.40106306,space,19.6836,,,,,,,,,,,,,,,,,,,,,,,,,,,,,,,,,,,,,,,,,,,,,,,,,,,,,,,,,,,,,,,,,,,,,,,,,,,,,,,,,,,,,,,,,,,,,,,,,,,,,,,,,,,,,
917194,001,2022-11-20_23h55.38.194,Info_measure_main_exp,2022.2.2,Win32,60.40106306,,,space,14.7429,,,,,,,,,,,,,,,,,,,,,,,,,,,,,,,,,,,,,,,,,,,,,,,,,,,,,,,,,,,,,,,,,,,,,,,,,,,,,,,,,,,,,,,,,,,,,,,,,,,,,,,,,,,
917194,001,2022-11-20_23h55.38.194,Info_measure_main_exp,2022.2.2,Win32,60.40106306,,,,,space,8.6555,,,,,,,,,,,,,,,,,,,,,,,,,,,,,,,,,,,,,,,,,,,,,,,,,,,,,,,,,,,,,,,,,,,,,,,,,,,,,,,,,,,,,,,,,,,,,,,,,,,,,,,,,
917194,001,2022-11-20_23h55.38.194,Info_measure_main_exp,2022.2.2,Win32,60.40106306,,,,,,,space,43.6882,,,,,,,,,,,,,,,,,,,,,,,,,,,,,,,,,,,,,,,,,,,,,,,,,,,,,,,,,,,,,,,,,,,,,,,,,,,,,,,,,,,,,,,,,,,,,,,,,,,,,,,
917194,001,2022-11-20_23h55.38.194,Info_measure_main_exp,2022.2.2,Win32,60.40106306,,,,,,,,,space,11.1745,,,,,,,,,,,,,,,,,,,,,,,,,,,,,,,,,,,,,,,,,,,,,,,,,,,,,,,,,,,,,,,,,,,,,,,,,,,,,,,,,,,,,,,,,,,,,,,,,,,,,
917194,001,2022-11-20_23h55.38.194,Info_measure_main_exp,2022.2.2,Win32,60.40106306,,,,,,,,,,,space,3.3614,,,,,,,,,,,,,,,,,,,,,,,,,,,,,,,,,,,,,,,,,,,,,,,,,,,,,,,,,,,,,,,,,,,,,,,,,,,,,,,,,,,,,,,,,,,,,,,,,,,
917194,001,2022-11-20_23h55.38.194,Info_measure_main_exp,2022.2.2,Win32,60.40106306,,,,,,,,,,,,,0,0,0,3,1,masks/mask_004.jpg,,,,,,,,,,,,,,,,,,,,,,,,,,,,,,,,,,,,,,,,,,,,,,,,,,,,,,,,,,,,,,,,,,,,,,,,,,,,,,,,,,,,,,,,,,,,,
917194,001,2022-11-20_23h55.38.194,Info_measure_main_exp,2022.2.2,Win32,60.40106306,,,,,,,,,,,,,0,1,1,1,1,masks/mask_002.jpg,,,,,,,,,,,,,,,,,,,,,,,,,,,,,,,,,,,,,,,,,,,,,,,,,,,,,,,,,,,,,,,,,,,,,,,,,,,,,,,,,,,,,,,,,,,,,
917194,001,2022-11-20_23h55.38.194,Info_measure_main_exp,2022.2.2,Win32,60.40106306,,,,,,,,,,,,,0,2,2,4,1,masks/mask_005.jpg,,,,,,,,,,,,,,,,,,,,,,,,,,,,,,,,,,,,,,,,,,,,,,,,,,,,,,,,,,,,,,,,,,,,,,,,,,,,,,,,,,,,,,,,,,,,,
917194,001,2022-11-20_23h55.38.194,Info_measure_main_exp,2022.2.2,Win32,60.40106306,,,,,,,,,,,,,0,3,3,2,1,masks/mask_003.jpg,,,,,,,,,,,,,,,,,,,,,,,,,,,,,,,,,,,,,,,,,,,,,,,,,,,,,,,,,,,,,,,,,,,,,,,,,,,,,,,,,,,,,,,,,,,,,
917194,001,2022-11-20_23h55.38.194,Info_measure_main_exp,2022.2.2,Win32,60.40106306,,,,,,,,,,,,,0,4,4,0,1,masks/mask_001.jpg,,,,,,,,,,,,,,,,,,,,,,,,,,,,,,,,,,,,,,,,,,,,,,,,,,,,,,,,,,,,,,,,,,,,,,,,,,,,,,,,,,,,,,,,,,,,,
917194,001,2022-11-20_23h55.38.194,Info_measure_main_exp,2022.2.2,Win32,60.40106306,,,,,,,,,,,,,,,,,,masks/mask_003.jpg,0,0,0,2,1,,,,,,,,,,,,,,,,,,,,,,,,,,,,,,,,,,,,,,,,,,,,,,,,,,,,,,,,,,,,,,,,,,,,,,,,,,,,,,,,,,,,,,,,
917194,001,2022-11-20_23h55.38.194,Info_measure_main_exp,2022.2.2,Win32,60.40106306,,,,,,,,,,,,,,,,,,masks/mask_005.jpg,0,1,1,4,1,,,,,,,,,,,,,,,,,,,,,,,,,,,,,,,,,,,,,,,,,,,,,,,,,,,,,,,,,,,,,,,,,,,,,,,,,,,,,,,,,,,,,,,,
917194,001,2022-11-20_23h55.38.194,Info_measure_main_exp,2022.2.2,Win32,60.40106306,,,,,,,,,,,,,,,,,,masks/mask_004.jpg,0,2,2,3,1,,,,,,,,,,,,,,,,,,,,,,,,,,,,,,,,,,,,,,,,,,,,,,,,,,,,,,,,,,,,,,,,,,,,,,,,,,,,,,,,,,,,,,,,
917194,001,2022-11-20_23h55.38.194,Info_measure_main_exp,2022.2.2,Win32,60.40106306,,,,,,,,,,,,,,,,,,masks/mask_002.jpg,0,3,3,1,1,,,,,,,,,,,,,,,,,,,,,,,,,,,,,,,,,,,,,,,,,,,,,,,,,,,,,,,,,,,,,,,,,,,,,,,,,,,,,,,,,,,,,,,,
917194,001,2022-11-20_23h55.38.194,Info_measure_main_exp,2022.2.2,Win32,60.40106306,,,,,,,,,,,,,,,,,,masks/mask_001.jpg,0,4,4,0,1,,,,,,,,,,,,,,,,,,,,,,,,,,,,,,,,,,,,,,,,,,,,,,,,,,,,,,,,,,,,,,,,,,,,,,,,,,,,,,,,,,,,,,,,
917194,001,2022-11-20_23h55.38.194,Info_measure_main_exp,2022.2.2,Win32,60.40106306,,,,,,,,,,,,,,,,,,,,,,,,-0.145370342,-0.058333326,1,0,0,response5disk,2,107.2001,1,-0.002777735,0.0074074,1,0,0,center_square,0,0,0,0,1,0,131,5,5,2370,2406,prac_patch/patch0002370.jpg,prac_patch/patch0002406.jpg,,,,,,,,,,,,,,,,,,,,,,,,,,,,,,,,,,,,,,,,,,,,,,,,,,,,,,,,,,,,
917194,001,2022-11-20_23h55.38.194,Info_measure_main_exp,2022.2.2,Win32,60.40106306,,,,,,,,,,,,,0,0,0,1,1,masks/mask_002.jpg,,,,,,,,,,,,,,,,,,,,,,,,,,,,,,,,,,,,,,,,,,,,,,,,,,,,,,,,,,,,,,,,,,,,,,,,,,,,,,,,,,,,,,,,,,,,,
917194,001,2022-11-20_23h55.38.194,Info_measure_main_exp,2022.2.2,Win32,60.40106306,,,,,,,,,,,,,0,1,1,2,1,masks/mask_003.jpg,,,,,,,,,,,,,,,,,,,,,,,,,,,,,,,,,,,,,,,,,,,,,,,,,,,,,,,,,,,,,,,,,,,,,,,,,,,,,,,,,,,,,,,,,,,,,
917194,001,2022-11-20_23h55.38.194,Info_measure_main_exp,2022.2.2,Win32,60.40106306,,,,,,,,,,,,,0,2,2,3,1,masks/mask_004.jpg,,,,,,,,,,,,,,,,,,,,,,,,,,,,,,,,,,,,,,,,,,,,,,,,,,,,,,,,,,,,,,,,,,,,,,,,,,,,,,,,,,,,,,,,,,,,,
917194,001,2022-11-20_23h55.38.194,Info_measure_main_exp,2022.2.2,Win32,60.40106306,,,,,,,,,,,,,0,3,3,4,1,masks/mask_005.jpg,,,,,,,,,,,,,,,,,,,,,,,,,,,,,,,,,,,,,,,,,,,,,,,,,,,,,,,,,,,,,,,,,,,,,,,,,,,,,,,,,,,,,,,,,,,,,
917194,001,2022-11-20_23h55.38.194,Info_measure_main_exp,2022.2.2,Win32,60.40106306,,,,,,,,,,,,,0,4,4,0,1,masks/mask_001.jpg,,,,,,,,,,,,,,,,,,,,,,,,,,,,,,,,,,,,,,,,,,,,,,,,,,,,,,,,,,,,,,,,,,,,,,,,,,,,,,,,,,,,,,,,,,,,,
917194,001,2022-11-20_23h55.38.194,Info_measure_main_exp,2022.2.2,Win32,60.40106306,,,,,,,,,,,,,,,,,,masks/mask_001.jpg,0,0,0,0,1,,,,,,,,,,,,,,,,,,,,,,,,,,,,,,,,,,,,,,,,,,,,,,,,,,,,,,,,,,,,,,,,,,,,,,,,,,,,,,,,,,,,,,,,
917194,001,2022-11-20_23h55.38.194,Info_measure_main_exp,2022.2.2,Win32,60.40106306,,,,,,,,,,,,,,,,,,masks/mask_004.jpg,0,1,1,3,1,,,,,,,,,,,,,,,,,,,,,,,,,,,,,,,,,,,,,,,,,,,,,,,,,,,,,,,,,,,,,,,,,,,,,,,,,,,,,,,,,,,,,,,,
917194,001,2022-11-20_23h55.38.194,Info_measure_main_exp,2022.2.2,Win32,60.40106306,,,,,,,,,,,,,,,,,,masks/mask_005.jpg,0,2,2,4,1,,,,,,,,,,,,,,,,,,,,,,,,,,,,,,,,,,,,,,,,,,,,,,,,,,,,,,,,,,,,,,,,,,,,,,,,,,,,,,,,,,,,,,,,
917194,001,2022-11-20_23h55.38.194,Info_measure_main_exp,2022.2.2,Win32,60.40106306,,,,,,,,,,,,,,,,,,masks/mask_002.jpg,0,3,3,1,1,,,,,,,,,,,,,,,,,,,,,,,,,,,,,,,,,,,,,,,,,,,,,,,,,,,,,,,,,,,,,,,,,,,,,,,,,,,,,,,,,,,,,,,,
917194,001,2022-11-20_23h55.38.194,Info_measure_main_exp,2022.2.2,Win32,60.40106306,,,,,,,,,,,,,,,,,,masks/mask_003.jpg,0,4,4,2,1,,,,,,,,,,,,,,,,,,,,,,,,,,,,,,,,,,,,,,,,,,,,,,,,,,,,,,,,,,,,,,,,,,,,,,,,,,,,,,,,,,,,,,,,
917194,001,2022-11-20_23h55.38.194,Info_measure_main_exp,2022.2.2,Win32,60.40106306,,,,,,,,,,,,,,,,,,,,,,,,-0.058333291,0.128703683,1,0,0,response7disk,0,119.8441,1,0.008333347,-0.002777771,1,0,0,center_square,0,1,1,2,1,0,131,5,5,2526,2526,prac_patch/patch0002526.jpg,prac_patch/patch0002526.jpg,,,,,,,,,,,,,,,,,,,,,,,,,,,,,,,,,,,,,,,,,,,,,,,,,,,,,,,,,,,,
917194,001,2022-11-20_23h55.38.194,Info_measure_main_exp,2022.2.2,Win32,60.40106306,,,,,,,,,,,,,0,0,0,3,1,masks/mask_004.jpg,,,,,,,,,,,,,,,,,,,,,,,,,,,,,,,,,,,,,,,,,,,,,,,,,,,,,,,,,,,,,,,,,,,,,,,,,,,,,,,,,,,,,,,,,,,,,
917194,001,2022-11-20_23h55.38.194,Info_measure_main_exp,2022.2.2,Win32,60.40106306,,,,,,,,,,,,,0,1,1,4,1,masks/mask_005.jpg,,,,,,,,,,,,,,,,,,,,,,,,,,,,,,,,,,,,,,,,,,,,,,,,,,,,,,,,,,,,,,,,,,,,,,,,,,,,,,,,,,,,,,,,,,,,,
917194,001,2022-11-20_23h55.38.194,Info_measure_main_exp,2022.2.2,Win32,60.40106306,,,,,,,,,,,,,0,2,2,0,1,masks/mask_001.jpg,,,,,,,,,,,,,,,,,,,,,,,,,,,,,,,,,,,,,,,,,,,,,,,,,,,,,,,,,,,,,,,,,,,,,,,,,,,,,,,,,,,,,,,,,,,,,
917194,001,2022-11-20_23h55.38.194,Info_measure_main_exp,2022.2.2,Win32,60.40106306,,,,,,,,,,,,,0,3,3,2,1,masks/mask_003.jpg,,,,,,,,,,,,,,,,,,,,,,,,,,,,,,,,,,,,,,,,,,,,,,,,,,,,,,,,,,,,,,,,,,,,,,,,,,,,,,,,,,,,,,,,,,,,,
917194,001,2022-11-20_23h55.38.194,Info_measure_main_exp,2022.2.2,Win32,60.40106306,,,,,,,,,,,,,0,4,4,1,1,masks/mask_002.jpg,,,,,,,,,,,,,,,,,,,,,,,,,,,,,,,,,,,,,,,,,,,,,,,,,,,,,,,,,,,,,,,,,,,,,,,,,,,,,,,,,,,,,,,,,,,,,
917194,001,2022-11-20_23h55.38.194,Info_measure_main_exp,2022.2.2,Win32,60.40106306,,,,,,,,,,,,,,,,,,masks/mask_001.jpg,0,0,0,0,1,,,,,,,,,,,,,,,,,,,,,,,,,,,,,,,,,,,,,,,,,,,,,,,,,,,,,,,,,,,,,,,,,,,,,,,,,,,,,,,,,,,,,,,,
917194,001,2022-11-20_23h55.38.194,Info_measure_main_exp,2022.2.2,Win32,60.40106306,,,,,,,,,,,,,,,,,,masks/mask_002.jpg,0,1,1,1,1,,,,,,,,,,,,,,,,,,,,,,,,,,,,,,,,,,,,,,,,,,,,,,,,,,,,,,,,,,,,,,,,,,,,,,,,,,,,,,,,,,,,,,,,
917194,001,2022-11-20_23h55.38.194,Info_measure_main_exp,2022.2.2,Win32,60.40106306,,,,,,,,,,,,,,,,,,masks/mask_004.jpg,0,2,2,3,1,,,,,,,,,,,,,,,,,,,,,,,,,,,,,,,,,,,,,,,,,,,,,,,,,,,,,,,,,,,,,,,,,,,,,,,,,,,,,,,,,,,,,,,,
917194,001,2022-11-20_23h55.38.194,Info_measure_main_exp,2022.2.2,Win32,60.40106306,,,,,,,,,,,,,,,,,,masks/mask_003.jpg,0,3,3,2,1,,,,,,,,,,,,,,,,,,,,,,,,,,,,,,,,,,,,,,,,,,,,,,,,,,,,,,,,,,,,,,,,,,,,,,,,,,,,,,,,,,,,,,,,
917194,001,2022-11-20_23h55.38.194,Info_measure_main_exp,2022.2.2,Win32,60.40106306,,,,,,,,,,,,,,,,,,masks/mask_005.jpg,0,4,4,4,1,,,,,,,,,,,,,,,,,,,,,,,,,,,,,,,,,,,,,,,,,,,,,,,,,,,,,,,,,,,,,,,,,,,,,,,,,,,,,,,,,,,,,,,,
917194,001,2022-11-20_23h55.38.194,Info_measure_main_exp,2022.2.2,Win32,60.40106306,,,,,,,,,,,,,,,,,,,,,,,,0.068518533,-0.162037037,1,0,0,response3disk,4,132.7713,1,0.002777806,0.009259259,1,0,0,center_square,0,2,2,1,1,0,131,5,5,2514,2490,prac_patch/patch0002514.jpg,prac_patch/patch0002490.jpg,,,,,,,,,,,,,,,,,,,,,,,,,,,,,,,,,,,,,,,,,,,,,,,,,,,,,,,,,,,,
917194,001,2022-11-20_23h55.38.194,Info_measure_main_exp,2022.2.2,Win32,60.40106306,,,,,,,,,,,,,,,,,,,,,,,,,,,,,,,,,,,,,,,,,,,,,,,,,,,,,,,,,,,space,35.3703,,,,,,,,,,,,,,,,,,,,,,,,,,,,,,,,,,,,,,,,,,,,,,,,,,,
917194,001,2022-11-20_23h55.38.194,Info_measure_main_exp,2022.2.2,Win32,60.40106306,,,,,,,,,,,,,,,,,,masks/mask_003.jpg,,,,,,,,,,,,,,,,,,,,,,,,,,,,,,,,,,,,,,,,,,,0,0,0,2,1,,,,,,,,,,,,,,,,,,,,,,,,,,,,,,,,,,,,,,,,,,,,,,
917194,001,2022-11-20_23h55.38.194,Info_measure_main_exp,2022.2.2,Win32,60.40106306,,,,,,,,,,,,,,,,,,masks/mask_004.jpg,,,,,,,,,,,,,,,,,,,,,,,,,,,,,,,,,,,,,,,,,,,0,1,1,3,1,,,,,,,,,,,,,,,,,,,,,,,,,,,,,,,,,,,,,,,,,,,,,,
917194,001,2022-11-20_23h55.38.194,Info_measure_main_exp,2022.2.2,Win32,60.40106306,,,,,,,,,,,,,,,,,,masks/mask_005.jpg,,,,,,,,,,,,,,,,,,,,,,,,,,,,,,,,,,,,,,,,,,,0,2,2,4,1,,,,,,,,,,,,,,,,,,,,,,,,,,,,,,,,,,,,,,,,,,,,,,
917194,001,2022-11-20_23h55.38.194,Info_measure_main_exp,2022.2.2,Win32,60.40106306,,,,,,,,,,,,,,,,,,masks/mask_002.jpg,,,,,,,,,,,,,,,,,,,,,,,,,,,,,,,,,,,,,,,,,,,0,3,3,1,1,,,,,,,,,,,,,,,,,,,,,,,,,,,,,,,,,,,,,,,,,,,,,,
917194,001,2022-11-20_23h55.38.194,Info_measure_main_exp,2022.2.2,Win32,60.40106306,,,,,,,,,,,,,,,,,,masks/mask_001.jpg,,,,,,,,,,,,,,,,,,,,,,,,,,,,,,,,,,,,,,,,,,,0,4,4,0,1,,,,,,,,,,,,,,,,,,,,,,,,,,,,,,,,,,,,,,,,,,,,,,
917194,001,2022-11-20_23h55.38.194,Info_measure_main_exp,2022.2.2,Win32,60.40106306,,,,,,,,,,,,,,,,,,masks/mask_001.jpg,,,,,,,,,,,,,,,,,,,,,,,,,,,,,,,,,,,,,,,,,,,,,,,,0,0,0,0,1,,,,,,,,,,,,,,,,,,,,,,,,,,,,,,,,,,,,,,,,,
917194,001,2022-11-20_23h55.38.194,Info_measure_main_exp,2022.2.2,Win32,60.40106306,,,,,,,,,,,,,,,,,,masks/mask_004.jpg,,,,,,,,,,,,,,,,,,,,,,,,,,,,,,,,,,,,,,,,,,,,,,,,0,1,1,3,1,,,,,,,,,,,,,,,,,,,,,,,,,,,,,,,,,,,,,,,,,
917194,001,2022-11-20_23h55.38.194,Info_measure_main_exp,2022.2.2,Win32,60.40106306,,,,,,,,,,,,,,,,,,masks/mask_002.jpg,,,,,,,,,,,,,,,,,,,,,,,,,,,,,,,,,,,,,,,,,,,,,,,,0,2,2,1,1,,,,,,,,,,,,,,,,,,,,,,,,,,,,,,,,,,,,,,,,,
917194,001,2022-11-20_23h55.38.194,Info_measure_main_exp,2022.2.2,Win32,60.40106306,,,,,,,,,,,,,,,,,,masks/mask_005.jpg,,,,,,,,,,,,,,,,,,,,,,,,,,,,,,,,,,,,,,,,,,,,,,,,0,3,3,4,1,,,,,,,,,,,,,,,,,,,,,,,,,,,,,,,,,,,,,,,,,
917194,001,2022-11-20_23h55.38.194,Info_measure_main_exp,2022.2.2,Win32,60.40106306,,,,,,,,,,,,,,,,,,masks/mask_003.jpg,,,,,,,,,,,,,,,,,,,,,,,,,,,,,,,,,,,,,,,,,,,,,,,,0,4,4,2,1,,,,,,,,,,,,,,,,,,,,,,,,,,,,,,,,,,,,,,,,,
917194,001,2022-11-20_23h55.38.194,Info_measure_main_exp,2022.2.2,Win32,60.40106306,,,,,,,,,,,,,,,,,,,,,,,,,,,,,,5,2.7323,1,,,,,,,,,,,,0,131,5,5,2190,1974,absent_patch/patch0002190.jpg,absent_patch/patch0001974.jpg,,,,,,,,,,,,,,,,,,,,0.171296296,-0.082407422,1,0,0,response3disk,1,-0.001851824,-0.000925947,1,0,0,center_square,0,0,0,119,1,,,,,,,,,,,,,,,,,,,,,,,
917194,001,2022-11-20_23h55.38.194,Info_measure_main_exp,2022.2.2,Win32,60.40106306,,,,,,,,,,,,,,,,,,masks/mask_005.jpg,,,,,,,,,,,,,,,,,,,,,,,,,,,,,,,,,,,,,,,,,,,0,0,0,4,1,,,,,,,,,,,,,,,,,,,,,,,,,,,,,,,,,,,,,,,,,,,,,,
917194,001,2022-11-20_23h55.38.194,Info_measure_main_exp,2022.2.2,Win32,60.40106306,,,,,,,,,,,,,,,,,,masks/mask_002.jpg,,,,,,,,,,,,,,,,,,,,,,,,,,,,,,,,,,,,,,,,,,,0,1,1,1,1,,,,,,,,,,,,,,,,,,,,,,,,,,,,,,,,,,,,,,,,,,,,,,
917194,001,2022-11-20_23h55.38.194,Info_measure_main_exp,2022.2.2,Win32,60.40106306,,,,,,,,,,,,,,,,,,masks/mask_001.jpg,,,,,,,,,,,,,,,,,,,,,,,,,,,,,,,,,,,,,,,,,,,0,2,2,0,1,,,,,,,,,,,,,,,,,,,,,,,,,,,,,,,,,,,,,,,,,,,,,,
917194,001,2022-11-20_23h55.38.194,Info_measure_main_exp,2022.2.2,Win32,60.40106306,,,,,,,,,,,,,,,,,,masks/mask_004.jpg,,,,,,,,,,,,,,,,,,,,,,,,,,,,,,,,,,,,,,,,,,,0,3,3,3,1,,,,,,,,,,,,,,,,,,,,,,,,,,,,,,,,,,,,,,,,,,,,,,
917194,001,2022-11-20_23h55.38.194,Info_measure_main_exp,2022.2.2,Win32,60.40106306,,,,,,,,,,,,,,,,,,masks/mask_003.jpg,,,,,,,,,,,,,,,,,,,,,,,,,,,,,,,,,,,,,,,,,,,0,4,4,2,1,,,,,,,,,,,,,,,,,,,,,,,,,,,,,,,,,,,,,,,,,,,,,,
917194,001,2022-11-20_23h55.38.194,Info_measure_main_exp,2022.2.2,Win32,60.40106306,,,,,,,,,,,,,,,,,,masks/mask_004.jpg,,,,,,,,,,,,,,,,,,,,,,,,,,,,,,,,,,,,,,,,,,,,,,,,0,0,0,3,1,,,,,,,,,,,,,,,,,,,,,,,,,,,,,,,,,,,,,,,,,
917194,001,2022-11-20_23h55.38.194,Info_measure_main_exp,2022.2.2,Win32,60.40106306,,,,,,,,,,,,,,,,,,masks/mask_001.jpg,,,,,,,,,,,,,,,,,,,,,,,,,,,,,,,,,,,,,,,,,,,,,,,,0,1,1,0,1,,,,,,,,,,,,,,,,,,,,,,,,,,,,,,,,,,,,,,,,,
917194,001,2022-11-20_23h55.38.194,Info_measure_main_exp,2022.2.2,Win32,60.40106306,,,,,,,,,,,,,,,,,,masks/mask_002.jpg,,,,,,,,,,,,,,,,,,,,,,,,,,,,,,,,,,,,,,,,,,,,,,,,0,2,2,1,1,,,,,,,,,,,,,,,,,,,,,,,,,,,,,,,,,,,,,,,,,
917194,001,2022-11-20_23h55.38.194,Info_measure_main_exp,2022.2.2,Win32,60.40106306,,,,,,,,,,,,,,,,,,masks/mask_005.jpg,,,,,,,,,,,,,,,,,,,,,,,,,,,,,,,,,,,,,,,,,,,,,,,,0,3,3,4,1,,,,,,,,,,,,,,,,,,,,,,,,,,,,,,,,,,,,,,,,,
917194,001,2022-11-20_23h55.38.194,Info_measure_main_exp,2022.2.2,Win32,60.40106306,,,,,,,,,,,,,,,,,,masks/mask_003.jpg,,,,,,,,,,,,,,,,,,,,,,,,,,,,,,,,,,,,,,,,,,,,,,,,0,4,4,2,1,,,,,,,,,,,,,,,,,,,,,,,,,,,,,,,,,,,,,,,,,
917194,001,2022-11-20_23h55.38.194,Info_measure_main_exp,2022.2.2,Win32,60.40106306,,,,,,,,,,,,,,,,,,,,,,,,,,,,,,0,1.3488,1,,,,,,,,,,,,0,131,5,5,1950,1950,absent_patch/patch0001950.jpg,absent_patch/patch0001950.jpg,,,,,,,,,,,,,,,,,,,,-0.061111097,0.136111118,1,0,0,response7disk,2,-0.001851824,0.009259259,1,0,0,center_square,0,1,1,92,1,,,,,,,,,,,,,,,,,,,,,,,
917194,001,2022-11-20_23h55.38.194,Info_measure_main_exp,2022.2.2,Win32,60.40106306,,,,,,,,,,,,,,,,,,masks/mask_004.jpg,,,,,,,,,,,,,,,,,,,,,,,,,,,,,,,,,,,,,,,,,,,0,0,0,3,1,,,,,,,,,,,,,,,,,,,,,,,,,,,,,,,,,,,,,,,,,,,,,,
917194,001,2022-11-20_23h55.38.194,Info_measure_main_exp,2022.2.2,Win32,60.40106306,,,,,,,,,,,,,,,,,,masks/mask_002.jpg,,,,,,,,,,,,,,,,,,,,,,,,,,,,,,,,,,,,,,,,,,,0,1,1,1,1,,,,,,,,,,,,,,,,,,,,,,,,,,,,,,,,,,,,,,,,,,,,,,
917194,001,2022-11-20_23h55.38.194,Info_measure_main_exp,2022.2.2,Win32,60.40106306,,,,,,,,,,,,,,,,,,masks/mask_001.jpg,,,,,,,,,,,,,,,,,,,,,,,,,,,,,,,,,,,,,,,,,,,0,2,2,0,1,,,,,,,,,,,,,,,,,,,,,,,,,,,,,,,,,,,,,,,,,,,,,,
917194,001,2022-11-20_23h55.38.194,Info_measure_main_exp,2022.2.2,Win32,60.40106306,,,,,,,,,,,,,,,,,,masks/mask_005.jpg,,,,,,,,,,,,,,,,,,,,,,,,,,,,,,,,,,,,,,,,,,,0,3,3,4,1,,,,,,,,,,,,,,,,,,,,,,,,,,,,,,,,,,,,,,,,,,,,,,
917194,001,2022-11-20_23h55.38.194,Info_measure_main_exp,2022.2.2,Win32,60.40106306,,,,,,,,,,,,,,,,,,masks/mask_003.jpg,,,,,,,,,,,,,,,,,,,,,,,,,,,,,,,,,,,,,,,,,,,0,4,4,2,1,,,,,,,,,,,,,,,,,,,,,,,,,,,,,,,,,,,,,,,,,,,,,,
917194,001,2022-11-20_23h55.38.194,Info_measure_main_exp,2022.2.2,Win32,60.40106306,,,,,,,,,,,,,,,,,,masks/mask_005.jpg,,,,,,,,,,,,,,,,,,,,,,,,,,,,,,,,,,,,,,,,,,,,,,,,0,0,0,4,1,,,,,,,,,,,,,,,,,,,,,,,,,,,,,,,,,,,,,,,,,
917194,001,2022-11-20_23h55.38.194,Info_measure_main_exp,2022.2.2,Win32,60.40106306,,,,,,,,,,,,,,,,,,masks/mask_002.jpg,,,,,,,,,,,,,,,,,,,,,,,,,,,,,,,,,,,,,,,,,,,,,,,,0,1,1,1,1,,,,,,,,,,,,,,,,,,,,,,,,,,,,,,,,,,,,,,,,,
917194,001,2022-11-20_23h55.38.194,Info_measure_main_exp,2022.2.2,Win32,60.40106306,,,,,,,,,,,,,,,,,,masks/mask_004.jpg,,,,,,,,,,,,,,,,,,,,,,,,,,,,,,,,,,,,,,,,,,,,,,,,0,2,2,3,1,,,,,,,,,,,,,,,,,,,,,,,,,,,,,,,,,,,,,,,,,
917194,001,2022-11-20_23h55.38.194,Info_measure_main_exp,2022.2.2,Win32,60.40106306,,,,,,,,,,,,,,,,,,masks/mask_001.jpg,,,,,,,,,,,,,,,,,,,,,,,,,,,,,,,,,,,,,,,,,,,,,,,,0,3,3,0,1,,,,,,,,,,,,,,,,,,,,,,,,,,,,,,,,,,,,,,,,,
917194,001,2022-11-20_23h55.38.194,Info_measure_main_exp,2022.2.2,Win32,60.40106306,,,,,,,,,,,,,,,,,,masks/mask_003.jpg,,,,,,,,,,,,,,,,,,,,,,,,,,,,,,,,,,,,,,,,,,,,,,,,0,4,4,2,1,,,,,,,,,,,,,,,,,,,,,,,,,,,,,,,,,,,,,,,,,
917194,001,2022-11-20_23h55.38.194,Info_measure_main_exp,2022.2.2,Win32,60.40106306,,,,,,,,,,,,,,,,,,,,,,,,,,,,,,5,3.5815,1,,,,,,,,,,,,0,131,5,5,2274,2142,absent_patch/patch0002274.jpg,absent_patch/patch0002142.jpg,,,,,,,,,,,,,,,,,,,,0.152777778,-0.073148162,1,0,0,response3disk,3,0.005555541,-0.001851859,1,0,0,center_square,0,2,2,75,1,,,,,,,,,,,,,,,,,,,,,,,
917194,001,2022-11-20_23h55.38.194,Info_measure_main_exp,2022.2.2,Win32,60.40106306,,,,,,,,,,,,,,,,,,masks/mask_005.jpg,,,,,,,,,,,,,,,,,,,,,,,,,,,,,,,,,,,,,,,,,,,0,0,0,4,1,,,,,,,,,,,,,,,,,,,,,,,,,,,,,,,,,,,,,,,,,,,,,,
917194,001,2022-11-20_23h55.38.194,Info_measure_main_exp,2022.2.2,Win32,60.40106306,,,,,,,,,,,,,,,,,,masks/mask_001.jpg,,,,,,,,,,,,,,,,,,,,,,,,,,,,,,,,,,,,,,,,,,,0,1,1,0,1,,,,,,,,,,,,,,,,,,,,,,,,,,,,,,,,,,,,,,,,,,,,,,
917194,001,2022-11-20_23h55.38.194,Info_measure_main_exp,2022.2.2,Win32,60.40106306,,,,,,,,,,,,,,,,,,masks/mask_004.jpg,,,,,,,,,,,,,,,,,,,,,,,,,,,,,,,,,,,,,,,,,,,0,2,2,3,1,,,,,,,,,,,,,,,,,,,,,,,,,,,,,,,,,,,,,,,,,,,,,,
917194,001,2022-11-20_23h55.38.194,Info_measure_main_exp,2022.2.2,Win32,60.40106306,,,,,,,,,,,,,,,,,,masks/mask_002.jpg,,,,,,,,,,,,,,,,,,,,,,,,,,,,,,,,,,,,,,,,,,,0,3,3,1,1,,,,,,,,,,,,,,,,,,,,,,,,,,,,,,,,,,,,,,,,,,,,,,
917194,001,2022-11-20_23h55.38.194,Info_measure_main_exp,2022.2.2,Win32,60.40106306,,,,,,,,,,,,,,,,,,masks/mask_003.jpg,,,,,,,,,,,,,,,,,,,,,,,,,,,,,,,,,,,,,,,,,,,0,4,4,2,1,,,,,,,,,,,,,,,,,,,,,,,,,,,,,,,,,,,,,,,,,,,,,,
917194,001,2022-11-20_23h55.38.194,Info_measure_main_exp,2022.2.2,Win32,60.40106306,,,,,,,,,,,,,,,,,,masks/mask_003.jpg,,,,,,,,,,,,,,,,,,,,,,,,,,,,,,,,,,,,,,,,,,,,,,,,0,0,0,2,1,,,,,,,,,,,,,,,,,,,,,,,,,,,,,,,,,,,,,,,,,
917194,001,2022-11-20_23h55.38.194,Info_measure_main_exp,2022.2.2,Win32,60.40106306,,,,,,,,,,,,,,,,,,masks/mask_002.jpg,,,,,,,,,,,,,,,,,,,,,,,,,,,,,,,,,,,,,,,,,,,,,,,,0,1,1,1,1,,,,,,,,,,,,,,,,,,,,,,,,,,,,,,,,,,,,,,,,,
917194,001,2022-11-20_23h55.38.194,Info_measure_main_exp,2022.2.2,Win32,60.40106306,,,,,,,,,,,,,,,,,,masks/mask_001.jpg,,,,,,,,,,,,,,,,,,,,,,,,,,,,,,,,,,,,,,,,,,,,,,,,0,2,2,0,1,,,,,,,,,,,,,,,,,,,,,,,,,,,,,,,,,,,,,,,,,
917194,001,2022-11-20_23h55.38.194,Info_measure_main_exp,2022.2.2,Win32,60.40106306,,,,,,,,,,,,,,,,,,masks/mask_004.jpg,,,,,,,,,,,,,,,,,,,,,,,,,,,,,,,,,,,,,,,,,,,,,,,,0,3,3,3,1,,,,,,,,,,,,,,,,,,,,,,,,,,,,,,,,,,,,,,,,,
917194,001,2022-11-20_23h55.38.194,Info_measure_main_exp,2022.2.2,Win32,60.40106306,,,,,,,,,,,,,,,,,,masks/mask_005.jpg,,,,,,,,,,,,,,,,,,,,,,,,,,,,,,,,,,,,,,,,,,,,,,,,0,4,4,4,1,,,,,,,,,,,,,,,,,,,,,,,,,,,,,,,,,,,,,,,,,
917194,001,2022-11-20_23h55.38.194,Info_measure_main_exp,2022.2.2,Win32,60.40106306,,,,,,,,,,,,,,,,,,,,,,,,,,,,,,7,1.0991,1,,,,,,,,,,,,0,131,5,5,2190,2238,absent_patch/patch0002190.jpg,absent_patch/patch0002238.jpg,,,,,,,,,,,,,,,,,,,,0.062962991,0.14907406,1,0,0,response1disk,4,-0.005555541,-0.00462963,1,0,0,center_square,0,3,3,53,1,,,,,,,,,,,,,,,,,,,,,,,
917194,001,2022-11-20_23h55.38.194,Info_measure_main_exp,2022.2.2,Win32,60.40106306,,,,,,,,,,,,,,,,,,masks/mask_002.jpg,,,,,,,,,,,,,,,,,,,,,,,,,,,,,,,,,,,,,,,,,,,0,0,0,1,1,,,,,,,,,,,,,,,,,,,,,,,,,,,,,,,,,,,,,,,,,,,,,,
917194,001,2022-11-20_23h55.38.194,Info_measure_main_exp,2022.2.2,Win32,60.40106306,,,,,,,,,,,,,,,,,,masks/mask_004.jpg,,,,,,,,,,,,,,,,,,,,,,,,,,,,,,,,,,,,,,,,,,,0,1,1,3,1,,,,,,,,,,,,,,,,,,,,,,,,,,,,,,,,,,,,,,,,,,,,,,
917194,001,2022-11-20_23h55.38.194,Info_measure_main_exp,2022.2.2,Win32,60.40106306,,,,,,,,,,,,,,,,,,masks/mask_005.jpg,,,,,,,,,,,,,,,,,,,,,,,,,,,,,,,,,,,,,,,,,,,0,2,2,4,1,,,,,,,,,,,,,,,,,,,,,,,,,,,,,,,,,,,,,,,,,,,,,,
917194,001,2022-11-20_23h55.38.194,Info_measure_main_exp,2022.2.2,Win32,60.40106306,,,,,,,,,,,,,,,,,,masks/mask_001.jpg,,,,,,,,,,,,,,,,,,,,,,,,,,,,,,,,,,,,,,,,,,,0,3,3,0,1,,,,,,,,,,,,,,,,,,,,,,,,,,,,,,,,,,,,,,,,,,,,,,
917194,001,2022-11-20_23h55.38.194,Info_measure_main_exp,2022.2.2,Win32,60.40106306,,,,,,,,,,,,,,,,,,masks/mask_003.jpg,,,,,,,,,,,,,,,,,,,,,,,,,,,,,,,,,,,,,,,,,,,0,4,4,2,1,,,,,,,,,,,,,,,,,,,,,,,,,,,,,,,,,,,,,,,,,,,,,,
917194,001,2022-11-20_23h55.38.194,Info_measure_main_exp,2022.2.2,Win32,60.40106306,,,,,,,,,,,,,,,,,,masks/mask_004.jpg,,,,,,,,,,,,,,,,,,,,,,,,,,,,,,,,,,,,,,,,,,,,,,,,0,0,0,3,1,,,,,,,,,,,,,,,,,,,,,,,,,,,,,,,,,,,,,,,,,
917194,001,2022-11-20_23h55.38.194,Info_measure_main_exp,2022.2.2,Win32,60.40106306,,,,,,,,,,,,,,,,,,masks/mask_001.jpg,,,,,,,,,,,,,,,,,,,,,,,,,,,,,,,,,,,,,,,,,,,,,,,,0,1,1,0,1,,,,,,,,,,,,,,,,,,,,,,,,,,,,,,,,,,,,,,,,,
917194,001,2022-11-20_23h55.38.194,Info_measure_main_exp,2022.2.2,Win32,60.40106306,,,,,,,,,,,,,,,,,,masks/mask_002.jpg,,,,,,,,,,,,,,,,,,,,,,,,,,,,,,,,,,,,,,,,,,,,,,,,0,2,2,1,1,,,,,,,,,,,,,,,,,,,,,,,,,,,,,,,,,,,,,,,,,
917194,001,2022-11-20_23h55.38.194,Info_measure_main_exp,2022.2.2,Win32,60.40106306,,,,,,,,,,,,,,,,,,masks/mask_005.jpg,,,,,,,,,,,,,,,,,,,,,,,,,,,,,,,,,,,,,,,,,,,,,,,,0,3,3,4,1,,,,,,,,,,,,,,,,,,,,,,,,,,,,,,,,,,,,,,,,,
917194,001,2022-11-20_23h55.38.194,Info_measure_main_exp,2022.2.2,Win32,60.40106306,,,,,,,,,,,,,,,,,,masks/mask_003.jpg,,,,,,,,,,,,,,,,,,,,,,,,,,,,,,,,,,,,,,,,,,,,,,,,0,4,4,2,1,,,,,,,,,,,,,,,,,,,,,,,,,,,,,,,,,,,,,,,,,
917194,001,2022-11-20_23h55.38.194,Info_measure_main_exp,2022.2.2,Win32,60.40106306,,,,,,,,,,,,,,,,,,,,,,,,,,,,,,7,0.9656,1,,,,,,,,,,,,1,131,5,5,1950,1,absent_patch/patch0001950.jpg,present_patch/cong_131_5_a.jpg,,,,,,,,,,,,,,,,,,,,0.031481496,0.164814808,1,0,0,response1disk,5,-0.002777735,0.00462963,1,0,0,center_square,0,4,4,39,1,,,,,,,,,,,,,,,,,,,,,,,
917194,001,2022-11-20_23h55.38.194,Info_measure_main_exp,2022.2.2,Win32,60.40106306,,,,,,,,,,,,,,,,,,masks/mask_001.jpg,,,,,,,,,,,,,,,,,,,,,,,,,,,,,,,,,,,,,,,,,,,0,0,0,0,1,,,,,,,,,,,,,,,,,,,,,,,,,,,,,,,,,,,,,,,,,,,,,,
917194,001,2022-11-20_23h55.38.194,Info_measure_main_exp,2022.2.2,Win32,60.40106306,,,,,,,,,,,,,,,,,,masks/mask_002.jpg,,,,,,,,,,,,,,,,,,,,,,,,,,,,,,,,,,,,,,,,,,,0,1,1,1,1,,,,,,,,,,,,,,,,,,,,,,,,,,,,,,,,,,,,,,,,,,,,,,
917194,001,2022-11-20_23h55.38.194,Info_measure_main_exp,2022.2.2,Win32,60.40106306,,,,,,,,,,,,,,,,,,masks/mask_004.jpg,,,,,,,,,,,,,,,,,,,,,,,,,,,,,,,,,,,,,,,,,,,0,2,2,3,1,,,,,,,,,,,,,,,,,,,,,,,,,,,,,,,,,,,,,,,,,,,,,,
917194,001,2022-11-20_23h55.38.194,Info_measure_main_exp,2022.2.2,Win32,60.40106306,,,,,,,,,,,,,,,,,,masks/mask_005.jpg,,,,,,,,,,,,,,,,,,,,,,,,,,,,,,,,,,,,,,,,,,,0,3,3,4,1,,,,,,,,,,,,,,,,,,,,,,,,,,,,,,,,,,,,,,,,,,,,,,
917194,001,2022-11-20_23h55.38.194,Info_measure_main_exp,2022.2.2,Win32,60.40106306,,,,,,,,,,,,,,,,,,masks/mask_003.jpg,,,,,,,,,,,,,,,,,,,,,,,,,,,,,,,,,,,,,,,,,,,0,4,4,2,1,,,,,,,,,,,,,,,,,,,,,,,,,,,,,,,,,,,,,,,,,,,,,,
917194,001,2022-11-20_23h55.38.194,Info_measure_main_exp,2022.2.2,Win32,60.40106306,,,,,,,,,,,,,,,,,,masks/mask_002.jpg,,,,,,,,,,,,,,,,,,,,,,,,,,,,,,,,,,,,,,,,,,,,,,,,0,0,0,1,1,,,,,,,,,,,,,,,,,,,,,,,,,,,,,,,,,,,,,,,,,
917194,001,2022-11-20_23h55.38.194,Info_measure_main_exp,2022.2.2,Win32,60.40106306,,,,,,,,,,,,,,,,,,masks/mask_003.jpg,,,,,,,,,,,,,,,,,,,,,,,,,,,,,,,,,,,,,,,,,,,,,,,,0,1,1,2,1,,,,,,,,,,,,,,,,,,,,,,,,,,,,,,,,,,,,,,,,,
917194,001,2022-11-20_23h55.38.194,Info_measure_main_exp,2022.2.2,Win32,60.40106306,,,,,,,,,,,,,,,,,,masks/mask_005.jpg,,,,,,,,,,,,,,,,,,,,,,,,,,,,,,,,,,,,,,,,,,,,,,,,0,2,2,4,1,,,,,,,,,,,,,,,,,,,,,,,,,,,,,,,,,,,,,,,,,
917194,001,2022-11-20_23h55.38.194,Info_measure_main_exp,2022.2.2,Win32,60.40106306,,,,,,,,,,,,,,,,,,masks/mask_004.jpg,,,,,,,,,,,,,,,,,,,,,,,,,,,,,,,,,,,,,,,,,,,,,,,,0,3,3,3,1,,,,,,,,,,,,,,,,,,,,,,,,,,,,,,,,,,,,,,,,,
917194,001,2022-11-20_23h55.38.194,Info_measure_main_exp,2022.2.2,Win32,60.40106306,,,,,,,,,,,,,,,,,,masks/mask_001.jpg,,,,,,,,,,,,,,,,,,,,,,,,,,,,,,,,,,,,,,,,,,,,,,,,0,4,4,0,1,,,,,,,,,,,,,,,,,,,,,,,,,,,,,,,,,,,,,,,,,
917194,001,2022-11-20_23h55.38.194,Info_measure_main_exp,2022.2.2,Win32,60.40106306,,,,,,,,,,,,,,,,,,,,,,,,,,,,,,6,1.5986,1,,,,,,,,,,,,0,131,5,5,2298,2190,absent_patch/patch0002298.jpg,absent_patch/patch0002190.jpg,,,,,,,,,,,,,,,,,,,,0.154629672,0.032407407,1,0,0,response1disk,6,-0.000925912,0.003703683,1,0,0,center_square,0,5,5,20,1,,,,,,,,,,,,,,,,,,,,,,,
917194,001,2022-11-20_23h55.38.194,Info_measure_main_exp,2022.2.2,Win32,60.40106306,,,,,,,,,,,,,,,,,,masks/mask_002.jpg,,,,,,,,,,,,,,,,,,,,,,,,,,,,,,,,,,,,,,,,,,,0,0,0,1,1,,,,,,,,,,,,,,,,,,,,,,,,,,,,,,,,,,,,,,,,,,,,,,
917194,001,2022-11-20_23h55.38.194,Info_measure_main_exp,2022.2.2,Win32,60.40106306,,,,,,,,,,,,,,,,,,masks/mask_004.jpg,,,,,,,,,,,,,,,,,,,,,,,,,,,,,,,,,,,,,,,,,,,0,1,1,3,1,,,,,,,,,,,,,,,,,,,,,,,,,,,,,,,,,,,,,,,,,,,,,,
917194,001,2022-11-20_23h55.38.194,Info_measure_main_exp,2022.2.2,Win32,60.40106306,,,,,,,,,,,,,,,,,,masks/mask_005.jpg,,,,,,,,,,,,,,,,,,,,,,,,,,,,,,,,,,,,,,,,,,,0,2,2,4,1,,,,,,,,,,,,,,,,,,,,,,,,,,,,,,,,,,,,,,,,,,,,,,
917194,001,2022-11-20_23h55.38.194,Info_measure_main_exp,2022.2.2,Win32,60.40106306,,,,,,,,,,,,,,,,,,masks/mask_001.jpg,,,,,,,,,,,,,,,,,,,,,,,,,,,,,,,,,,,,,,,,,,,0,3,3,0,1,,,,,,,,,,,,,,,,,,,,,,,,,,,,,,,,,,,,,,,,,,,,,,
917194,001,2022-11-20_23h55.38.194,Info_measure_main_exp,2022.2.2,Win32,60.40106306,,,,,,,,,,,,,,,,,,masks/mask_003.jpg,,,,,,,,,,,,,,,,,,,,,,,,,,,,,,,,,,,,,,,,,,,0,4,4,2,1,,,,,,,,,,,,,,,,,,,,,,,,,,,,,,,,,,,,,,,,,,,,,,
917194,001,2022-11-20_23h55.38.194,Info_measure_main_exp,2022.2.2,Win32,60.40106306,,,,,,,,,,,,,,,,,,masks/mask_001.jpg,,,,,,,,,,,,,,,,,,,,,,,,,,,,,,,,,,,,,,,,,,,,,,,,0,0,0,0,1,,,,,,,,,,,,,,,,,,,,,,,,,,,,,,,,,,,,,,,,,
917194,001,2022-11-20_23h55.38.194,Info_measure_main_exp,2022.2.2,Win32,60.40106306,,,,,,,,,,,,,,,,,,masks/mask_002.jpg,,,,,,,,,,,,,,,,,,,,,,,,,,,,,,,,,,,,,,,,,,,,,,,,0,1,1,1,1,,,,,,,,,,,,,,,,,,,,,,,,,,,,,,,,,,,,,,,,,
917194,001,2022-11-20_23h55.38.194,Info_measure_main_exp,2022.2.2,Win32,60.40106306,,,,,,,,,,,,,,,,,,masks/mask_005.jpg,,,,,,,,,,,,,,,,,,,,,,,,,,,,,,,,,,,,,,,,,,,,,,,,0,2,2,4,1,,,,,,,,,,,,,,,,,,,,,,,,,,,,,,,,,,,,,,,,,
917194,001,2022-11-20_23h55.38.194,Info_measure_main_exp,2022.2.2,Win32,60.40106306,,,,,,,,,,,,,,,,,,masks/mask_003.jpg,,,,,,,,,,,,,,,,,,,,,,,,,,,,,,,,,,,,,,,,,,,,,,,,0,3,3,2,1,,,,,,,,,,,,,,,,,,,,,,,,,,,,,,,,,,,,,,,,,
917194,001,2022-11-20_23h55.38.194,Info_measure_main_exp,2022.2.2,Win32,60.40106306,,,,,,,,,,,,,,,,,,masks/mask_004.jpg,,,,,,,,,,,,,,,,,,,,,,,,,,,,,,,,,,,,,,,,,,,,,,,,0,4,4,3,1,,,,,,,,,,,,,,,,,,,,,,,,,,,,,,,,,,,,,,,,,
917194,001,2022-11-20_23h55.38.194,Info_measure_main_exp,2022.2.2,Win32,60.40106306,,,,,,,,,,,,,,,,,,,,,,,,,,,,,,7,1.2659,1,,,,,,,,,,,,0,131,5,5,2190,2214,absent_patch/patch0002190.jpg,absent_patch/patch0002214.jpg,,,,,,,,,,,,,,,,,,,,0.142592607,0.185185185,1,0,0,response1disk,7,-0.006481453,-0.012962977,1,0,0,center_square,0,6,6,35,1,,,,,,,,,,,,,,,,,,,,,,,
917194,001,2022-11-20_23h55.38.194,Info_measure_main_exp,2022.2.2,Win32,60.40106306,,,,,,,,,,,,,,,,,,masks/mask_003.jpg,,,,,,,,,,,,,,,,,,,,,,,,,,,,,,,,,,,,,,,,,,,0,0,0,2,1,,,,,,,,,,,,,,,,,,,,,,,,,,,,,,,,,,,,,,,,,,,,,,
917194,001,2022-11-20_23h55.38.194,Info_measure_main_exp,2022.2.2,Win32,60.40106306,,,,,,,,,,,,,,,,,,masks/mask_005.jpg,,,,,,,,,,,,,,,,,,,,,,,,,,,,,,,,,,,,,,,,,,,0,1,1,4,1,,,,,,,,,,,,,,,,,,,,,,,,,,,,,,,,,,,,,,,,,,,,,,
917194,001,2022-11-20_23h55.38.194,Info_measure_main_exp,2022.2.2,Win32,60.40106306,,,,,,,,,,,,,,,,,,masks/mask_004.jpg,,,,,,,,,,,,,,,,,,,,,,,,,,,,,,,,,,,,,,,,,,,0,2,2,3,1,,,,,,,,,,,,,,,,,,,,,,,,,,,,,,,,,,,,,,,,,,,,,,
917194,001,2022-11-20_23h55.38.194,Info_measure_main_exp,2022.2.2,Win32,60.40106306,,,,,,,,,,,,,,,,,,masks/mask_002.jpg,,,,,,,,,,,,,,,,,,,,,,,,,,,,,,,,,,,,,,,,,,,0,3,3,1,1,,,,,,,,,,,,,,,,,,,,,,,,,,,,,,,,,,,,,,,,,,,,,,
917194,001,2022-11-20_23h55.38.194,Info_measure_main_exp,2022.2.2,Win32,60.40106306,,,,,,,,,,,,,,,,,,masks/mask_001.jpg,,,,,,,,,,,,,,,,,,,,,,,,,,,,,,,,,,,,,,,,,,,0,4,4,0,1,,,,,,,,,,,,,,,,,,,,,,,,,,,,,,,,,,,,,,,,,,,,,,
917194,001,2022-11-20_23h55.38.194,Info_measure_main_exp,2022.2.2,Win32,60.40106306,,,,,,,,,,,,,,,,,,masks/mask_001.jpg,,,,,,,,,,,,,,,,,,,,,,,,,,,,,,,,,,,,,,,,,,,,,,,,0,0,0,0,1,,,,,,,,,,,,,,,,,,,,,,,,,,,,,,,,,,,,,,,,,
917194,001,2022-11-20_23h55.38.194,Info_measure_main_exp,2022.2.2,Win32,60.40106306,,,,,,,,,,,,,,,,,,masks/mask_002.jpg,,,,,,,,,,,,,,,,,,,,,,,,,,,,,,,,,,,,,,,,,,,,,,,,0,1,1,1,1,,,,,,,,,,,,,,,,,,,,,,,,,,,,,,,,,,,,,,,,,
917194,001,2022-11-20_23h55.38.194,Info_measure_main_exp,2022.2.2,Win32,60.40106306,,,,,,,,,,,,,,,,,,masks/mask_004.jpg,,,,,,,,,,,,,,,,,,,,,,,,,,,,,,,,,,,,,,,,,,,,,,,,0,2,2,3,1,,,,,,,,,,,,,,,,,,,,,,,,,,,,,,,,,,,,,,,,,
917194,001,2022-11-20_23h55.38.194,Info_measure_main_exp,2022.2.2,Win32,60.40106306,,,,,,,,,,,,,,,,,,masks/mask_003.jpg,,,,,,,,,,,,,,,,,,,,,,,,,,,,,,,,,,,,,,,,,,,,,,,,0,3,3,2,1,,,,,,,,,,,,,,,,,,,,,,,,,,,,,,,,,,,,,,,,,
917194,001,2022-11-20_23h55.38.194,Info_measure_main_exp,2022.2.2,Win32,60.40106306,,,,,,,,,,,,,,,,,,masks/mask_005.jpg,,,,,,,,,,,,,,,,,,,,,,,,,,,,,,,,,,,,,,,,,,,,,,,,0,4,4,4,1,,,,,,,,,,,,,,,,,,,,,,,,,,,,,,,,,,,,,,,,,
917194,001,2022-11-20_23h55.38.194,Info_measure_main_exp,2022.2.2,Win32,60.40106306,,,,,,,,,,,,,,,,,,,,,,,,,,,,,,1,4.4642,1,,,,,,,,,,,,0,131,5,5,2082,2082,absent_patch/patch0002082.jpg,absent_patch/patch0002082.jpg,,,,,,,,,,,,,,,,,,,,-0.131481453,0.062962956,1,0,0,response7disk,8,0.014814801,0.001851859,1,0,0,center_square,0,7,7,74,1,,,,,,,,,,,,,,,,,,,,,,,
917194,001,2022-11-20_23h55.38.194,Info_measure_main_exp,2022.2.2,Win32,60.40106306,,,,,,,,,,,,,,,,,,masks/mask_005.jpg,,,,,,,,,,,,,,,,,,,,,,,,,,,,,,,,,,,,,,,,,,,0,0,0,4,1,,,,,,,,,,,,,,,,,,,,,,,,,,,,,,,,,,,,,,,,,,,,,,
917194,001,2022-11-20_23h55.38.194,Info_measure_main_exp,2022.2.2,Win32,60.40106306,,,,,,,,,,,,,,,,,,masks/mask_004.jpg,,,,,,,,,,,,,,,,,,,,,,,,,,,,,,,,,,,,,,,,,,,0,1,1,3,1,,,,,,,,,,,,,,,,,,,,,,,,,,,,,,,,,,,,,,,,,,,,,,
917194,001,2022-11-20_23h55.38.194,Info_measure_main_exp,2022.2.2,Win32,60.40106306,,,,,,,,,,,,,,,,,,masks/mask_001.jpg,,,,,,,,,,,,,,,,,,,,,,,,,,,,,,,,,,,,,,,,,,,0,2,2,0,1,,,,,,,,,,,,,,,,,,,,,,,,,,,,,,,,,,,,,,,,,,,,,,
917194,001,2022-11-20_23h55.38.194,Info_measure_main_exp,2022.2.2,Win32,60.40106306,,,,,,,,,,,,,,,,,,masks/mask_002.jpg,,,,,,,,,,,,,,,,,,,,,,,,,,,,,,,,,,,,,,,,,,,0,3,3,1,1,,,,,,,,,,,,,,,,,,,,,,,,,,,,,,,,,,,,,,,,,,,,,,
917194,001,2022-11-20_23h55.38.194,Info_measure_main_exp,2022.2.2,Win32,60.40106306,,,,,,,,,,,,,,,,,,masks/mask_003.jpg,,,,,,,,,,,,,,,,,,,,,,,,,,,,,,,,,,,,,,,,,,,0,4,4,2,1,,,,,,,,,,,,,,,,,,,,,,,,,,,,,,,,,,,,,,,,,,,,,,
917194,001,2022-11-20_23h55.38.194,Info_measure_main_exp,2022.2.2,Win32,60.40106306,,,,,,,,,,,,,,,,,,masks/mask_001.jpg,,,,,,,,,,,,,,,,,,,,,,,,,,,,,,,,,,,,,,,,,,,,,,,,0,0,0,0,1,,,,,,,,,,,,,,,,,,,,,,,,,,,,,,,,,,,,,,,,,
917194,001,2022-11-20_23h55.38.194,Info_measure_main_exp,2022.2.2,Win32,60.40106306,,,,,,,,,,,,,,,,,,masks/mask_005.jpg,,,,,,,,,,,,,,,,,,,,,,,,,,,,,,,,,,,,,,,,,,,,,,,,0,1,1,4,1,,,,,,,,,,,,,,,,,,,,,,,,,,,,,,,,,,,,,,,,,
917194,001,2022-11-20_23h55.38.194,Info_measure_main_exp,2022.2.2,Win32,60.40106306,,,,,,,,,,,,,,,,,,masks/mask_002.jpg,,,,,,,,,,,,,,,,,,,,,,,,,,,,,,,,,,,,,,,,,,,,,,,,0,2,2,1,1,,,,,,,,,,,,,,,,,,,,,,,,,,,,,,,,,,,,,,,,,
917194,001,2022-11-20_23h55.38.194,Info_measure_main_exp,2022.2.2,Win32,60.40106306,,,,,,,,,,,,,,,,,,masks/mask_003.jpg,,,,,,,,,,,,,,,,,,,,,,,,,,,,,,,,,,,,,,,,,,,,,,,,0,3,3,2,1,,,,,,,,,,,,,,,,,,,,,,,,,,,,,,,,,,,,,,,,,
917194,001,2022-11-20_23h55.38.194,Info_measure_main_exp,2022.2.2,Win32,60.40106306,,,,,,,,,,,,,,,,,,masks/mask_004.jpg,,,,,,,,,,,,,,,,,,,,,,,,,,,,,,,,,,,,,,,,,,,,,,,,0,4,4,3,1,,,,,,,,,,,,,,,,,,,,,,,,,,,,,,,,,,,,,,,,,
917194,001,2022-11-20_23h55.38.194,Info_measure_main_exp,2022.2.2,Win32,60.40106306,,,,,,,,,,,,,,,,,,,,,,,,,,,,,,7,1.4493,1,,,,,,,,,,,,0,131,5,5,2238,2166,absent_patch/patch0002238.jpg,absent_patch/patch0002166.jpg,,,,,,,,,,,,,,,,,,,,0.133333347,0.146296289,1,0,0,response1disk,9,-0.00462963,-0.002777771,1,0,0,center_square,0,8,8,118,1,,,,,,,,,,,,,,,,,,,,,,,
917194,001,2022-11-20_23h55.38.194,Info_measure_main_exp,2022.2.2,Win32,60.40106306,,,,,,,,,,,,,,,,,,masks/mask_004.jpg,,,,,,,,,,,,,,,,,,,,,,,,,,,,,,,,,,,,,,,,,,,0,0,0,3,1,,,,,,,,,,,,,,,,,,,,,,,,,,,,,,,,,,,,,,,,,,,,,,
917194,001,2022-11-20_23h55.38.194,Info_measure_main_exp,2022.2.2,Win32,60.40106306,,,,,,,,,,,,,,,,,,masks/mask_005.jpg,,,,,,,,,,,,,,,,,,,,,,,,,,,,,,,,,,,,,,,,,,,0,1,1,4,1,,,,,,,,,,,,,,,,,,,,,,,,,,,,,,,,,,,,,,,,,,,,,,
917194,001,2022-11-20_23h55.38.194,Info_measure_main_exp,2022.2.2,Win32,60.40106306,,,,,,,,,,,,,,,,,,masks/mask_001.jpg,,,,,,,,,,,,,,,,,,,,,,,,,,,,,,,,,,,,,,,,,,,0,2,2,0,1,,,,,,,,,,,,,,,,,,,,,,,,,,,,,,,,,,,,,,,,,,,,,,
917194,001,2022-11-20_23h55.38.194,Info_measure_main_exp,2022.2.2,Win32,60.40106306,,,,,,,,,,,,,,,,,,masks/mask_002.jpg,,,,,,,,,,,,,,,,,,,,,,,,,,,,,,,,,,,,,,,,,,,0,3,3,1,1,,,,,,,,,,,,,,,,,,,,,,,,,,,,,,,,,,,,,,,,,,,,,,
917194,001,2022-11-20_23h55.38.194,Info_measure_main_exp,2022.2.2,Win32,60.40106306,,,,,,,,,,,,,,,,,,masks/mask_003.jpg,,,,,,,,,,,,,,,,,,,,,,,,,,,,,,,,,,,,,,,,,,,0,4,4,2,1,,,,,,,,,,,,,,,,,,,,,,,,,,,,,,,,,,,,,,,,,,,,,,
917194,001,2022-11-20_23h55.38.194,Info_measure_main_exp,2022.2.2,Win32,60.40106306,,,,,,,,,,,,,,,,,,masks/mask_003.jpg,,,,,,,,,,,,,,,,,,,,,,,,,,,,,,,,,,,,,,,,,,,,,,,,0,0,0,2,1,,,,,,,,,,,,,,,,,,,,,,,,,,,,,,,,,,,,,,,,,
917194,001,2022-11-20_23h55.38.194,Info_measure_main_exp,2022.2.2,Win32,60.40106306,,,,,,,,,,,,,,,,,,masks/mask_004.jpg,,,,,,,,,,,,,,,,,,,,,,,,,,,,,,,,,,,,,,,,,,,,,,,,0,1,1,3,1,,,,,,,,,,,,,,,,,,,,,,,,,,,,,,,,,,,,,,,,,
917194,001,2022-11-20_23h55.38.194,Info_measure_main_exp,2022.2.2,Win32,60.40106306,,,,,,,,,,,,,,,,,,masks/mask_005.jpg,,,,,,,,,,,,,,,,,,,,,,,,,,,,,,,,,,,,,,,,,,,,,,,,0,2,2,4,1,,,,,,,,,,,,,,,,,,,,,,,,,,,,,,,,,,,,,,,,,
917194,001,2022-11-20_23h55.38.194,Info_measure_main_exp,2022.2.2,Win32,60.40106306,,,,,,,,,,,,,,,,,,masks/mask_001.jpg,,,,,,,,,,,,,,,,,,,,,,,,,,,,,,,,,,,,,,,,,,,,,,,,0,3,3,0,1,,,,,,,,,,,,,,,,,,,,,,,,,,,,,,,,,,,,,,,,,
917194,001,2022-11-20_23h55.38.194,Info_measure_main_exp,2022.2.2,Win32,60.40106306,,,,,,,,,,,,,,,,,,masks/mask_002.jpg,,,,,,,,,,,,,,,,,,,,,,,,,,,,,,,,,,,,,,,,,,,,,,,,0,4,4,1,1,,,,,,,,,,,,,,,,,,,,,,,,,,,,,,,,,,,,,,,,,
917194,001,2022-11-20_23h55.38.194,Info_measure_main_exp,2022.2.2,Win32,60.40106306,,,,,,,,,,,,,,,,,,,,,,,,,,,,,,7,1.4156,1,,,,,,,,,,,,0,131,5,5,2178,2154,absent_patch/patch0002178.jpg,absent_patch/patch0002154.jpg,,,,,,,,,,,,,,,,,,,,0.058333362,0.163888896,1,0,0,response1disk,10,-0.000925912,0.005555541,1,0,0,center_square,0,9,9,63,1,,,,,,,,,,,,,,,,,,,,,,,
917194,001,2022-11-20_23h55.38.194,Info_measure_main_exp,2022.2.2,Win32,60.40106306,,,,,,,,,,,,,,,,,,masks/mask_005.jpg,,,,,,,,,,,,,,,,,,,,,,,,,,,,,,,,,,,,,,,,,,,0,0,0,4,1,,,,,,,,,,,,,,,,,,,,,,,,,,,,,,,,,,,,,,,,,,,,,,
917194,001,2022-11-20_23h55.38.194,Info_measure_main_exp,2022.2.2,Win32,60.40106306,,,,,,,,,,,,,,,,,,masks/mask_003.jpg,,,,,,,,,,,,,,,,,,,,,,,,,,,,,,,,,,,,,,,,,,,0,1,1,2,1,,,,,,,,,,,,,,,,,,,,,,,,,,,,,,,,,,,,,,,,,,,,,,
917194,001,2022-11-20_23h55.38.194,Info_measure_main_exp,2022.2.2,Win32,60.40106306,,,,,,,,,,,,,,,,,,masks/mask_002.jpg,,,,,,,,,,,,,,,,,,,,,,,,,,,,,,,,,,,,,,,,,,,0,2,2,1,1,,,,,,,,,,,,,,,,,,,,,,,,,,,,,,,,,,,,,,,,,,,,,,
917194,001,2022-11-20_23h55.38.194,Info_measure_main_exp,2022.2.2,Win32,60.40106306,,,,,,,,,,,,,,,,,,masks/mask_004.jpg,,,,,,,,,,,,,,,,,,,,,,,,,,,,,,,,,,,,,,,,,,,0,3,3,3,1,,,,,,,,,,,,,,,,,,,,,,,,,,,,,,,,,,,,,,,,,,,,,,
917194,001,2022-11-20_23h55.38.194,Info_measure_main_exp,2022.2.2,Win32,60.40106306,,,,,,,,,,,,,,,,,,masks/mask_001.jpg,,,,,,,,,,,,,,,,,,,,,,,,,,,,,,,,,,,,,,,,,,,0,4,4,0,1,,,,,,,,,,,,,,,,,,,,,,,,,,,,,,,,,,,,,,,,,,,,,,
917194,001,2022-11-20_23h55.38.194,Info_measure_main_exp,2022.2.2,Win32,60.40106306,,,,,,,,,,,,,,,,,,masks/mask_005.jpg,,,,,,,,,,,,,,,,,,,,,,,,,,,,,,,,,,,,,,,,,,,,,,,,0,0,0,4,1,,,,,,,,,,,,,,,,,,,,,,,,,,,,,,,,,,,,,,,,,
917194,001,2022-11-20_23h55.38.194,Info_measure_main_exp,2022.2.2,Win32,60.40106306,,,,,,,,,,,,,,,,,,masks/mask_003.jpg,,,,,,,,,,,,,,,,,,,,,,,,,,,,,,,,,,,,,,,,,,,,,,,,0,1,1,2,1,,,,,,,,,,,,,,,,,,,,,,,,,,,,,,,,,,,,,,,,,
917194,001,2022-11-20_23h55.38.194,Info_measure_main_exp,2022.2.2,Win32,60.40106306,,,,,,,,,,,,,,,,,,masks/mask_002.jpg,,,,,,,,,,,,,,,,,,,,,,,,,,,,,,,,,,,,,,,,,,,,,,,,0,2,2,1,1,,,,,,,,,,,,,,,,,,,,,,,,,,,,,,,,,,,,,,,,,
917194,001,2022-11-20_23h55.38.194,Info_measure_main_exp,2022.2.2,Win32,60.40106306,,,,,,,,,,,,,,,,,,masks/mask_001.jpg,,,,,,,,,,,,,,,,,,,,,,,,,,,,,,,,,,,,,,,,,,,,,,,,0,3,3,0,1,,,,,,,,,,,,,,,,,,,,,,,,,,,,,,,,,,,,,,,,,
917194,001,2022-11-20_23h55.38.194,Info_measure_main_exp,2022.2.2,Win32,60.40106306,,,,,,,,,,,,,,,,,,masks/mask_004.jpg,,,,,,,,,,,,,,,,,,,,,,,,,,,,,,,,,,,,,,,,,,,,,,,,0,4,4,3,1,,,,,,,,,,,,,,,,,,,,,,,,,,,,,,,,,,,,,,,,,
917194,001,2022-11-20_23h55.38.194,Info_measure_main_exp,2022.2.2,Win32,60.40106306,,,,,,,,,,,,,,,,,,,,,,,,,,,,,,7,1.5649,1,,,,,,,,,,,,0,131,5,5,1950,2214,absent_patch/patch0001950.jpg,absent_patch/patch0002214.jpg,,,,,,,,,,,,,,,,,,,,0.080555598,0.148148148,1,0,0,response1disk,11,-0.012962977,0.008333312,1,0,0,center_square,0,10,10,85,1,,,,,,,,,,,,,,,,,,,,,,,
917194,001,2022-11-20_23h55.38.194,Info_measure_main_exp,2022.2.2,Win32,60.40106306,,,,,,,,,,,,,,,,,,masks/mask_005.jpg,,,,,,,,,,,,,,,,,,,,,,,,,,,,,,,,,,,,,,,,,,,0,0,0,4,1,,,,,,,,,,,,,,,,,,,,,,,,,,,,,,,,,,,,,,,,,,,,,,
917194,001,2022-11-20_23h55.38.194,Info_measure_main_exp,2022.2.2,Win32,60.40106306,,,,,,,,,,,,,,,,,,masks/mask_003.jpg,,,,,,,,,,,,,,,,,,,,,,,,,,,,,,,,,,,,,,,,,,,0,1,1,2,1,,,,,,,,,,,,,,,,,,,,,,,,,,,,,,,,,,,,,,,,,,,,,,
917194,001,2022-11-20_23h55.38.194,Info_measure_main_exp,2022.2.2,Win32,60.40106306,,,,,,,,,,,,,,,,,,masks/mask_001.jpg,,,,,,,,,,,,,,,,,,,,,,,,,,,,,,,,,,,,,,,,,,,0,2,2,0,1,,,,,,,,,,,,,,,,,,,,,,,,,,,,,,,,,,,,,,,,,,,,,,
917194,001,2022-11-20_23h55.38.194,Info_measure_main_exp,2022.2.2,Win32,60.40106306,,,,,,,,,,,,,,,,,,masks/mask_002.jpg,,,,,,,,,,,,,,,,,,,,,,,,,,,,,,,,,,,,,,,,,,,0,3,3,1,1,,,,,,,,,,,,,,,,,,,,,,,,,,,,,,,,,,,,,,,,,,,,,,
917194,001,2022-11-20_23h55.38.194,Info_measure_main_exp,2022.2.2,Win32,60.40106306,,,,,,,,,,,,,,,,,,masks/mask_004.jpg,,,,,,,,,,,,,,,,,,,,,,,,,,,,,,,,,,,,,,,,,,,0,4,4,3,1,,,,,,,,,,,,,,,,,,,,,,,,,,,,,,,,,,,,,,,,,,,,,,
917194,001,2022-11-20_23h55.38.194,Info_measure_main_exp,2022.2.2,Win32,60.40106306,,,,,,,,,,,,,,,,,,masks/mask_003.jpg,,,,,,,,,,,,,,,,,,,,,,,,,,,,,,,,,,,,,,,,,,,,,,,,0,0,0,2,1,,,,,,,,,,,,,,,,,,,,,,,,,,,,,,,,,,,,,,,,,
917194,001,2022-11-20_23h55.38.194,Info_measure_main_exp,2022.2.2,Win32,60.40106306,,,,,,,,,,,,,,,,,,masks/mask_005.jpg,,,,,,,,,,,,,,,,,,,,,,,,,,,,,,,,,,,,,,,,,,,,,,,,0,1,1,4,1,,,,,,,,,,,,,,,,,,,,,,,,,,,,,,,,,,,,,,,,,
917194,001,2022-11-20_23h55.38.194,Info_measure_main_exp,2022.2.2,Win32,60.40106306,,,,,,,,,,,,,,,,,,masks/mask_004.jpg,,,,,,,,,,,,,,,,,,,,,,,,,,,,,,,,,,,,,,,,,,,,,,,,0,2,2,3,1,,,,,,,,,,,,,,,,,,,,,,,,,,,,,,,,,,,,,,,,,
917194,001,2022-11-20_23h55.38.194,Info_measure_main_exp,2022.2.2,Win32,60.40106306,,,,,,,,,,,,,,,,,,masks/mask_001.jpg,,,,,,,,,,,,,,,,,,,,,,,,,,,,,,,,,,,,,,,,,,,,,,,,0,3,3,0,1,,,,,,,,,,,,,,,,,,,,,,,,,,,,,,,,,,,,,,,,,
917194,001,2022-11-20_23h55.38.194,Info_measure_main_exp,2022.2.2,Win32,60.40106306,,,,,,,,,,,,,,,,,,masks/mask_002.jpg,,,,,,,,,,,,,,,,,,,,,,,,,,,,,,,,,,,,,,,,,,,,,,,,0,4,4,1,1,,,,,,,,,,,,,,,,,,,,,,,,,,,,,,,,,,,,,,,,,
917194,001,2022-11-20_23h55.38.194,Info_measure_main_exp,2022.2.2,Win32,60.40106306,,,,,,,,,,,,,,,,,,,,,,,,,,,,,,0,0.916,1,,,,,,,,,,,,0,131,5,5,2190,2190,absent_patch/patch0002190.jpg,absent_patch/patch0002190.jpg,,,,,,,,,,,,,,,,,,,,-0.062962921,0.187962956,1,0,0,response7disk,12,-0.001851824,0.003703683,1,0,0,center_square,0,11,11,86,1,,,,,,,,,,,,,,,,,,,,,,,
917194,001,2022-11-20_23h55.38.194,Info_measure_main_exp,2022.2.2,Win32,60.40106306,,,,,,,,,,,,,,,,,,masks/mask_004.jpg,,,,,,,,,,,,,,,,,,,,,,,,,,,,,,,,,,,,,,,,,,,0,0,0,3,1,,,,,,,,,,,,,,,,,,,,,,,,,,,,,,,,,,,,,,,,,,,,,,
917194,001,2022-11-20_23h55.38.194,Info_measure_main_exp,2022.2.2,Win32,60.40106306,,,,,,,,,,,,,,,,,,masks/mask_002.jpg,,,,,,,,,,,,,,,,,,,,,,,,,,,,,,,,,,,,,,,,,,,0,1,1,1,1,,,,,,,,,,,,,,,,,,,,,,,,,,,,,,,,,,,,,,,,,,,,,,
917194,001,2022-11-20_23h55.38.194,Info_measure_main_exp,2022.2.2,Win32,60.40106306,,,,,,,,,,,,,,,,,,masks/mask_005.jpg,,,,,,,,,,,,,,,,,,,,,,,,,,,,,,,,,,,,,,,,,,,0,2,2,4,1,,,,,,,,,,,,,,,,,,,,,,,,,,,,,,,,,,,,,,,,,,,,,,
917194,001,2022-11-20_23h55.38.194,Info_measure_main_exp,2022.2.2,Win32,60.40106306,,,,,,,,,,,,,,,,,,masks/mask_003.jpg,,,,,,,,,,,,,,,,,,,,,,,,,,,,,,,,,,,,,,,,,,,0,3,3,2,1,,,,,,,,,,,,,,,,,,,,,,,,,,,,,,,,,,,,,,,,,,,,,,
917194,001,2022-11-20_23h55.38.194,Info_measure_main_exp,2022.2.2,Win32,60.40106306,,,,,,,,,,,,,,,,,,masks/mask_001.jpg,,,,,,,,,,,,,,,,,,,,,,,,,,,,,,,,,,,,,,,,,,,0,4,4,0,1,,,,,,,,,,,,,,,,,,,,,,,,,,,,,,,,,,,,,,,,,,,,,,
917194,001,2022-11-20_23h55.38.194,Info_measure_main_exp,2022.2.2,Win32,60.40106306,,,,,,,,,,,,,,,,,,masks/mask_004.jpg,,,,,,,,,,,,,,,,,,,,,,,,,,,,,,,,,,,,,,,,,,,,,,,,0,0,0,3,1,,,,,,,,,,,,,,,,,,,,,,,,,,,,,,,,,,,,,,,,,
917194,001,2022-11-20_23h55.38.194,Info_measure_main_exp,2022.2.2,Win32,60.40106306,,,,,,,,,,,,,,,,,,masks/mask_001.jpg,,,,,,,,,,,,,,,,,,,,,,,,,,,,,,,,,,,,,,,,,,,,,,,,0,1,1,0,1,,,,,,,,,,,,,,,,,,,,,,,,,,,,,,,,,,,,,,,,,
917194,001,2022-11-20_23h55.38.194,Info_measure_main_exp,2022.2.2,Win32,60.40106306,,,,,,,,,,,,,,,,,,masks/mask_002.jpg,,,,,,,,,,,,,,,,,,,,,,,,,,,,,,,,,,,,,,,,,,,,,,,,0,2,2,1,1,,,,,,,,,,,,,,,,,,,,,,,,,,,,,,,,,,,,,,,,,
917194,001,2022-11-20_23h55.38.194,Info_measure_main_exp,2022.2.2,Win32,60.40106306,,,,,,,,,,,,,,,,,,masks/mask_005.jpg,,,,,,,,,,,,,,,,,,,,,,,,,,,,,,,,,,,,,,,,,,,,,,,,0,3,3,4,1,,,,,,,,,,,,,,,,,,,,,,,,,,,,,,,,,,,,,,,,,
917194,001,2022-11-20_23h55.38.194,Info_measure_main_exp,2022.2.2,Win32,60.40106306,,,,,,,,,,,,,,,,,,masks/mask_003.jpg,,,,,,,,,,,,,,,,,,,,,,,,,,,,,,,,,,,,,,,,,,,,,,,,0,4,4,2,1,,,,,,,,,,,,,,,,,,,,,,,,,,,,,,,,,,,,,,,,,
917194,001,2022-11-20_23h55.38.194,Info_measure_main_exp,2022.2.2,Win32,60.40106306,,,,,,,,,,,,,,,,,,,,,,,,,,,,,,3,1.4154,1,,,,,,,,,,,,0,131,5,5,2250,1950,absent_patch/patch0002250.jpg,absent_patch/patch0001950.jpg,,,,,,,,,,,,,,,,,,,,-0.045370384,-0.137037065,1,0,0,response5disk,13,0.00462963,0.003703683,1,0,0,center_square,0,12,12,16,1,,,,,,,,,,,,,,,,,,,,,,,
917194,001,2022-11-20_23h55.38.194,Info_measure_main_exp,2022.2.2,Win32,60.40106306,,,,,,,,,,,,,,,,,,masks/mask_003.jpg,,,,,,,,,,,,,,,,,,,,,,,,,,,,,,,,,,,,,,,,,,,0,0,0,2,1,,,,,,,,,,,,,,,,,,,,,,,,,,,,,,,,,,,,,,,,,,,,,,
917194,001,2022-11-20_23h55.38.194,Info_measure_main_exp,2022.2.2,Win32,60.40106306,,,,,,,,,,,,,,,,,,masks/mask_002.jpg,,,,,,,,,,,,,,,,,,,,,,,,,,,,,,,,,,,,,,,,,,,0,1,1,1,1,,,,,,,,,,,,,,,,,,,,,,,,,,,,,,,,,,,,,,,,,,,,,,
917194,001,2022-11-20_23h55.38.194,Info_measure_main_exp,2022.2.2,Win32,60.40106306,,,,,,,,,,,,,,,,,,masks/mask_001.jpg,,,,,,,,,,,,,,,,,,,,,,,,,,,,,,,,,,,,,,,,,,,0,2,2,0,1,,,,,,,,,,,,,,,,,,,,,,,,,,,,,,,,,,,,,,,,,,,,,,
917194,001,2022-11-20_23h55.38.194,Info_measure_main_exp,2022.2.2,Win32,60.40106306,,,,,,,,,,,,,,,,,,masks/mask_004.jpg,,,,,,,,,,,,,,,,,,,,,,,,,,,,,,,,,,,,,,,,,,,0,3,3,3,1,,,,,,,,,,,,,,,,,,,,,,,,,,,,,,,,,,,,,,,,,,,,,,
917194,001,2022-11-20_23h55.38.194,Info_measure_main_exp,2022.2.2,Win32,60.40106306,,,,,,,,,,,,,,,,,,masks/mask_005.jpg,,,,,,,,,,,,,,,,,,,,,,,,,,,,,,,,,,,,,,,,,,,0,4,4,4,1,,,,,,,,,,,,,,,,,,,,,,,,,,,,,,,,,,,,,,,,,,,,,,
917194,001,2022-11-20_23h55.38.194,Info_measure_main_exp,2022.2.2,Win32,60.40106306,,,,,,,,,,,,,,,,,,masks/mask_001.jpg,,,,,,,,,,,,,,,,,,,,,,,,,,,,,,,,,,,,,,,,,,,,,,,,0,0,0,0,1,,,,,,,,,,,,,,,,,,,,,,,,,,,,,,,,,,,,,,,,,
917194,001,2022-11-20_23h55.38.194,Info_measure_main_exp,2022.2.2,Win32,60.40106306,,,,,,,,,,,,,,,,,,masks/mask_003.jpg,,,,,,,,,,,,,,,,,,,,,,,,,,,,,,,,,,,,,,,,,,,,,,,,0,1,1,2,1,,,,,,,,,,,,,,,,,,,,,,,,,,,,,,,,,,,,,,,,,
917194,001,2022-11-20_23h55.38.194,Info_measure_main_exp,2022.2.2,Win32,60.40106306,,,,,,,,,,,,,,,,,,masks/mask_002.jpg,,,,,,,,,,,,,,,,,,,,,,,,,,,,,,,,,,,,,,,,,,,,,,,,0,2,2,1,1,,,,,,,,,,,,,,,,,,,,,,,,,,,,,,,,,,,,,,,,,
917194,001,2022-11-20_23h55.38.194,Info_measure_main_exp,2022.2.2,Win32,60.40106306,,,,,,,,,,,,,,,,,,masks/mask_004.jpg,,,,,,,,,,,,,,,,,,,,,,,,,,,,,,,,,,,,,,,,,,,,,,,,0,3,3,3,1,,,,,,,,,,,,,,,,,,,,,,,,,,,,,,,,,,,,,,,,,
917194,001,2022-11-20_23h55.38.194,Info_measure_main_exp,2022.2.2,Win32,60.40106306,,,,,,,,,,,,,,,,,,masks/mask_005.jpg,,,,,,,,,,,,,,,,,,,,,,,,,,,,,,,,,,,,,,,,,,,,,,,,0,4,4,4,1,,,,,,,,,,,,,,,,,,,,,,,,,,,,,,,,,,,,,,,,,
917194,001,2022-11-20_23h55.38.194,Info_measure_main_exp,2022.2.2,Win32,60.40106306,,,,,,,,,,,,,,,,,,,,,,,,,,,,,,0,0.8157,1,,,,,,,,,,,,0,131,5,5,1986,1986,absent_patch/patch0001986.jpg,absent_patch/patch0001986.jpg,,,,,,,,,,,,,,,,,,,,-0.053703661,0.177777785,1,0,0,response7disk,14,-0.000925912,0.003703683,1,0,0,center_square,0,13,13,19,1,,,,,,,,,,,,,,,,,,,,,,,
917194,001,2022-11-20_23h55.38.194,Info_measure_main_exp,2022.2.2,Win32,60.40106306,,,,,,,,,,,,,,,,,,masks/mask_005.jpg,,,,,,,,,,,,,,,,,,,,,,,,,,,,,,,,,,,,,,,,,,,0,0,0,4,1,,,,,,,,,,,,,,,,,,,,,,,,,,,,,,,,,,,,,,,,,,,,,,
917194,001,2022-11-20_23h55.38.194,Info_measure_main_exp,2022.2.2,Win32,60.40106306,,,,,,,,,,,,,,,,,,masks/mask_003.jpg,,,,,,,,,,,,,,,,,,,,,,,,,,,,,,,,,,,,,,,,,,,0,1,1,2,1,,,,,,,,,,,,,,,,,,,,,,,,,,,,,,,,,,,,,,,,,,,,,,
917194,001,2022-11-20_23h55.38.194,Info_measure_main_exp,2022.2.2,Win32,60.40106306,,,,,,,,,,,,,,,,,,masks/mask_001.jpg,,,,,,,,,,,,,,,,,,,,,,,,,,,,,,,,,,,,,,,,,,,0,2,2,0,1,,,,,,,,,,,,,,,,,,,,,,,,,,,,,,,,,,,,,,,,,,,,,,
917194,001,2022-11-20_23h55.38.194,Info_measure_main_exp,2022.2.2,Win32,60.40106306,,,,,,,,,,,,,,,,,,masks/mask_002.jpg,,,,,,,,,,,,,,,,,,,,,,,,,,,,,,,,,,,,,,,,,,,0,3,3,1,1,,,,,,,,,,,,,,,,,,,,,,,,,,,,,,,,,,,,,,,,,,,,,,
917194,001,2022-11-20_23h55.38.194,Info_measure_main_exp,2022.2.2,Win32,60.40106306,,,,,,,,,,,,,,,,,,masks/mask_004.jpg,,,,,,,,,,,,,,,,,,,,,,,,,,,,,,,,,,,,,,,,,,,0,4,4,3,1,,,,,,,,,,,,,,,,,,,,,,,,,,,,,,,,,,,,,,,,,,,,,,
917194,001,2022-11-20_23h55.38.194,Info_measure_main_exp,2022.2.2,Win32,60.40106306,,,,,,,,,,,,,,,,,,masks/mask_005.jpg,,,,,,,,,,,,,,,,,,,,,,,,,,,,,,,,,,,,,,,,,,,,,,,,0,0,0,4,1,,,,,,,,,,,,,,,,,,,,,,,,,,,,,,,,,,,,,,,,,
917194,001,2022-11-20_23h55.38.194,Info_measure_main_exp,2022.2.2,Win32,60.40106306,,,,,,,,,,,,,,,,,,masks/mask_001.jpg,,,,,,,,,,,,,,,,,,,,,,,,,,,,,,,,,,,,,,,,,,,,,,,,0,1,1,0,1,,,,,,,,,,,,,,,,,,,,,,,,,,,,,,,,,,,,,,,,,
917194,001,2022-11-20_23h55.38.194,Info_measure_main_exp,2022.2.2,Win32,60.40106306,,,,,,,,,,,,,,,,,,masks/mask_003.jpg,,,,,,,,,,,,,,,,,,,,,,,,,,,,,,,,,,,,,,,,,,,,,,,,0,2,2,2,1,,,,,,,,,,,,,,,,,,,,,,,,,,,,,,,,,,,,,,,,,
917194,001,2022-11-20_23h55.38.194,Info_measure_main_exp,2022.2.2,Win32,60.40106306,,,,,,,,,,,,,,,,,,masks/mask_004.jpg,,,,,,,,,,,,,,,,,,,,,,,,,,,,,,,,,,,,,,,,,,,,,,,,0,3,3,3,1,,,,,,,,,,,,,,,,,,,,,,,,,,,,,,,,,,,,,,,,,
917194,001,2022-11-20_23h55.38.194,Info_measure_main_exp,2022.2.2,Win32,60.40106306,,,,,,,,,,,,,,,,,,masks/mask_002.jpg,,,,,,,,,,,,,,,,,,,,,,,,,,,,,,,,,,,,,,,,,,,,,,,,0,4,4,1,1,,,,,,,,,,,,,,,,,,,,,,,,,,,,,,,,,,,,,,,,,
917194,001,2022-11-20_23h55.38.194,Info_measure_main_exp,2022.2.2,Win32,60.40106306,,,,,,,,,,,,,,,,,,,,,,,,,,,,,,0,1.2152,1,,,,,,,,,,,,0,131,5,5,1974,1950,absent_patch/patch0001974.jpg,absent_patch/patch0001950.jpg,,,,,,,,,,,,,,,,,,,,-0.09629631,0.191666674,1,0,0,response7disk,15,-0.012962977,0.003703683,1,0,0,center_square,0,14,14,17,1,,,,,,,,,,,,,,,,,,,,,,,
917194,001,2022-11-20_23h55.38.194,Info_measure_main_exp,2022.2.2,Win32,60.40106306,,,,,,,,,,,,,,,,,,masks/mask_003.jpg,,,,,,,,,,,,,,,,,,,,,,,,,,,,,,,,,,,,,,,,,,,0,0,0,2,1,,,,,,,,,,,,,,,,,,,,,,,,,,,,,,,,,,,,,,,,,,,,,,
917194,001,2022-11-20_23h55.38.194,Info_measure_main_exp,2022.2.2,Win32,60.40106306,,,,,,,,,,,,,,,,,,masks/mask_004.jpg,,,,,,,,,,,,,,,,,,,,,,,,,,,,,,,,,,,,,,,,,,,0,1,1,3,1,,,,,,,,,,,,,,,,,,,,,,,,,,,,,,,,,,,,,,,,,,,,,,
917194,001,2022-11-20_23h55.38.194,Info_measure_main_exp,2022.2.2,Win32,60.40106306,,,,,,,,,,,,,,,,,,masks/mask_002.jpg,,,,,,,,,,,,,,,,,,,,,,,,,,,,,,,,,,,,,,,,,,,0,2,2,1,1,,,,,,,,,,,,,,,,,,,,,,,,,,,,,,,,,,,,,,,,,,,,,,
917194,001,2022-11-20_23h55.38.194,Info_measure_main_exp,2022.2.2,Win32,60.40106306,,,,,,,,,,,,,,,,,,masks/mask_005.jpg,,,,,,,,,,,,,,,,,,,,,,,,,,,,,,,,,,,,,,,,,,,0,3,3,4,1,,,,,,,,,,,,,,,,,,,,,,,,,,,,,,,,,,,,,,,,,,,,,,
917194,001,2022-11-20_23h55.38.194,Info_measure_main_exp,2022.2.2,Win32,60.40106306,,,,,,,,,,,,,,,,,,masks/mask_001.jpg,,,,,,,,,,,,,,,,,,,,,,,,,,,,,,,,,,,,,,,,,,,0,4,4,0,1,,,,,,,,,,,,,,,,,,,,,,,,,,,,,,,,,,,,,,,,,,,,,,
917194,001,2022-11-20_23h55.38.194,Info_measure_main_exp,2022.2.2,Win32,60.40106306,,,,,,,,,,,,,,,,,,masks/mask_004.jpg,,,,,,,,,,,,,,,,,,,,,,,,,,,,,,,,,,,,,,,,,,,,,,,,0,0,0,3,1,,,,,,,,,,,,,,,,,,,,,,,,,,,,,,,,,,,,,,,,,
917194,001,2022-11-20_23h55.38.194,Info_measure_main_exp,2022.2.2,Win32,60.40106306,,,,,,,,,,,,,,,,,,masks/mask_002.jpg,,,,,,,,,,,,,,,,,,,,,,,,,,,,,,,,,,,,,,,,,,,,,,,,0,1,1,1,1,,,,,,,,,,,,,,,,,,,,,,,,,,,,,,,,,,,,,,,,,
917194,001,2022-11-20_23h55.38.194,Info_measure_main_exp,2022.2.2,Win32,60.40106306,,,,,,,,,,,,,,,,,,masks/mask_005.jpg,,,,,,,,,,,,,,,,,,,,,,,,,,,,,,,,,,,,,,,,,,,,,,,,0,2,2,4,1,,,,,,,,,,,,,,,,,,,,,,,,,,,,,,,,,,,,,,,,,
917194,001,2022-11-20_23h55.38.194,Info_measure_main_exp,2022.2.2,Win32,60.40106306,,,,,,,,,,,,,,,,,,masks/mask_003.jpg,,,,,,,,,,,,,,,,,,,,,,,,,,,,,,,,,,,,,,,,,,,,,,,,0,3,3,2,1,,,,,,,,,,,,,,,,,,,,,,,,,,,,,,,,,,,,,,,,,
917194,001,2022-11-20_23h55.38.194,Info_measure_main_exp,2022.2.2,Win32,60.40106306,,,,,,,,,,,,,,,,,,masks/mask_001.jpg,,,,,,,,,,,,,,,,,,,,,,,,,,,,,,,,,,,,,,,,,,,,,,,,0,4,4,0,1,,,,,,,,,,,,,,,,,,,,,,,,,,,,,,,,,,,,,,,,,
917194,001,2022-11-20_23h55.38.194,Info_measure_main_exp,2022.2.2,Win32,60.40106306,,,,,,,,,,,,,,,,,,,,,,,,,,,,,,5,2.6732,1,,,,,,,,,,,,1,131,5,5,2250,1,absent_patch/patch0002250.jpg,present_patch/cong_131_5_a.jpg,,,,,,,,,,,,,,,,,,,,0.122222265,-0.025000007,1,0,0,response3disk,16,0.003703718,-0.005555577,1,0,0,center_square,0,15,15,5,1,,,,,,,,,,,,,,,,,,,,,,,
917194,001,2022-11-20_23h55.38.194,Info_measure_main_exp,2022.2.2,Win32,60.40106306,,,,,,,,,,,,,,,,,,masks/mask_003.jpg,,,,,,,,,,,,,,,,,,,,,,,,,,,,,,,,,,,,,,,,,,,0,0,0,2,1,,,,,,,,,,,,,,,,,,,,,,,,,,,,,,,,,,,,,,,,,,,,,,
917194,001,2022-11-20_23h55.38.194,Info_measure_main_exp,2022.2.2,Win32,60.40106306,,,,,,,,,,,,,,,,,,masks/mask_001.jpg,,,,,,,,,,,,,,,,,,,,,,,,,,,,,,,,,,,,,,,,,,,0,1,1,0,1,,,,,,,,,,,,,,,,,,,,,,,,,,,,,,,,,,,,,,,,,,,,,,
917194,001,2022-11-20_23h55.38.194,Info_measure_main_exp,2022.2.2,Win32,60.40106306,,,,,,,,,,,,,,,,,,masks/mask_002.jpg,,,,,,,,,,,,,,,,,,,,,,,,,,,,,,,,,,,,,,,,,,,0,2,2,1,1,,,,,,,,,,,,,,,,,,,,,,,,,,,,,,,,,,,,,,,,,,,,,,
917194,001,2022-11-20_23h55.38.194,Info_measure_main_exp,2022.2.2,Win32,60.40106306,,,,,,,,,,,,,,,,,,masks/mask_004.jpg,,,,,,,,,,,,,,,,,,,,,,,,,,,,,,,,,,,,,,,,,,,0,3,3,3,1,,,,,,,,,,,,,,,,,,,,,,,,,,,,,,,,,,,,,,,,,,,,,,
917194,001,2022-11-20_23h55.38.194,Info_measure_main_exp,2022.2.2,Win32,60.40106306,,,,,,,,,,,,,,,,,,masks/mask_005.jpg,,,,,,,,,,,,,,,,,,,,,,,,,,,,,,,,,,,,,,,,,,,0,4,4,4,1,,,,,,,,,,,,,,,,,,,,,,,,,,,,,,,,,,,,,,,,,,,,,,
917194,001,2022-11-20_23h55.38.194,Info_measure_main_exp,2022.2.2,Win32,60.40106306,,,,,,,,,,,,,,,,,,masks/mask_002.jpg,,,,,,,,,,,,,,,,,,,,,,,,,,,,,,,,,,,,,,,,,,,,,,,,0,0,0,1,1,,,,,,,,,,,,,,,,,,,,,,,,,,,,,,,,,,,,,,,,,
917194,001,2022-11-20_23h55.38.194,Info_measure_main_exp,2022.2.2,Win32,60.40106306,,,,,,,,,,,,,,,,,,masks/mask_001.jpg,,,,,,,,,,,,,,,,,,,,,,,,,,,,,,,,,,,,,,,,,,,,,,,,0,1,1,0,1,,,,,,,,,,,,,,,,,,,,,,,,,,,,,,,,,,,,,,,,,
917194,001,2022-11-20_23h55.38.194,Info_measure_main_exp,2022.2.2,Win32,60.40106306,,,,,,,,,,,,,,,,,,masks/mask_004.jpg,,,,,,,,,,,,,,,,,,,,,,,,,,,,,,,,,,,,,,,,,,,,,,,,0,2,2,3,1,,,,,,,,,,,,,,,,,,,,,,,,,,,,,,,,,,,,,,,,,
917194,001,2022-11-20_23h55.38.194,Info_measure_main_exp,2022.2.2,Win32,60.40106306,,,,,,,,,,,,,,,,,,masks/mask_003.jpg,,,,,,,,,,,,,,,,,,,,,,,,,,,,,,,,,,,,,,,,,,,,,,,,0,3,3,2,1,,,,,,,,,,,,,,,,,,,,,,,,,,,,,,,,,,,,,,,,,
917194,001,2022-11-20_23h55.38.194,Info_measure_main_exp,2022.2.2,Win32,60.40106306,,,,,,,,,,,,,,,,,,masks/mask_005.jpg,,,,,,,,,,,,,,,,,,,,,,,,,,,,,,,,,,,,,,,,,,,,,,,,0,4,4,4,1,,,,,,,,,,,,,,,,,,,,,,,,,,,,,,,,,,,,,,,,,
917194,001,2022-11-20_23h55.38.194,Info_measure_main_exp,2022.2.2,Win32,60.40106306,,,,,,,,,,,,,,,,,,,,,,,,,,,,,,6,2.3074,1,,,,,,,,,,,,0,131,5,5,2298,2274,absent_patch/patch0002298.jpg,absent_patch/patch0002274.jpg,,,,,,,,,,,,,,,,,,,,0.137962977,0.114814794,1,0,0,response1disk,17,-0.00462963,0.003703683,1,0,0,center_square,0,16,16,1,1,,,,,,,,,,,,,,,,,,,,,,,
917194,001,2022-11-20_23h55.38.194,Info_measure_main_exp,2022.2.2,Win32,60.40106306,,,,,,,,,,,,,,,,,,masks/mask_003.jpg,,,,,,,,,,,,,,,,,,,,,,,,,,,,,,,,,,,,,,,,,,,0,0,0,2,1,,,,,,,,,,,,,,,,,,,,,,,,,,,,,,,,,,,,,,,,,,,,,,
917194,001,2022-11-20_23h55.38.194,Info_measure_main_exp,2022.2.2,Win32,60.40106306,,,,,,,,,,,,,,,,,,masks/mask_001.jpg,,,,,,,,,,,,,,,,,,,,,,,,,,,,,,,,,,,,,,,,,,,0,1,1,0,1,,,,,,,,,,,,,,,,,,,,,,,,,,,,,,,,,,,,,,,,,,,,,,
917194,001,2022-11-20_23h55.38.194,Info_measure_main_exp,2022.2.2,Win32,60.40106306,,,,,,,,,,,,,,,,,,masks/mask_002.jpg,,,,,,,,,,,,,,,,,,,,,,,,,,,,,,,,,,,,,,,,,,,0,2,2,1,1,,,,,,,,,,,,,,,,,,,,,,,,,,,,,,,,,,,,,,,,,,,,,,
917194,001,2022-11-20_23h55.38.194,Info_measure_main_exp,2022.2.2,Win32,60.40106306,,,,,,,,,,,,,,,,,,masks/mask_004.jpg,,,,,,,,,,,,,,,,,,,,,,,,,,,,,,,,,,,,,,,,,,,0,3,3,3,1,,,,,,,,,,,,,,,,,,,,,,,,,,,,,,,,,,,,,,,,,,,,,,
917194,001,2022-11-20_23h55.38.194,Info_measure_main_exp,2022.2.2,Win32,60.40106306,,,,,,,,,,,,,,,,,,masks/mask_005.jpg,,,,,,,,,,,,,,,,,,,,,,,,,,,,,,,,,,,,,,,,,,,0,4,4,4,1,,,,,,,,,,,,,,,,,,,,,,,,,,,,,,,,,,,,,,,,,,,,,,
917194,001,2022-11-20_23h55.38.194,Info_measure_main_exp,2022.2.2,Win32,60.40106306,,,,,,,,,,,,,,,,,,masks/mask_002.jpg,,,,,,,,,,,,,,,,,,,,,,,,,,,,,,,,,,,,,,,,,,,,,,,,0,0,0,1,1,,,,,,,,,,,,,,,,,,,,,,,,,,,,,,,,,,,,,,,,,
917194,001,2022-11-20_23h55.38.194,Info_measure_main_exp,2022.2.2,Win32,60.40106306,,,,,,,,,,,,,,,,,,masks/mask_001.jpg,,,,,,,,,,,,,,,,,,,,,,,,,,,,,,,,,,,,,,,,,,,,,,,,0,1,1,0,1,,,,,,,,,,,,,,,,,,,,,,,,,,,,,,,,,,,,,,,,,
917194,001,2022-11-20_23h55.38.194,Info_measure_main_exp,2022.2.2,Win32,60.40106306,,,,,,,,,,,,,,,,,,masks/mask_005.jpg,,,,,,,,,,,,,,,,,,,,,,,,,,,,,,,,,,,,,,,,,,,,,,,,0,2,2,4,1,,,,,,,,,,,,,,,,,,,,,,,,,,,,,,,,,,,,,,,,,
917194,001,2022-11-20_23h55.38.194,Info_measure_main_exp,2022.2.2,Win32,60.40106306,,,,,,,,,,,,,,,,,,masks/mask_003.jpg,,,,,,,,,,,,,,,,,,,,,,,,,,,,,,,,,,,,,,,,,,,,,,,,0,3,3,2,1,,,,,,,,,,,,,,,,,,,,,,,,,,,,,,,,,,,,,,,,,
917194,001,2022-11-20_23h55.38.194,Info_measure_main_exp,2022.2.2,Win32,60.40106306,,,,,,,,,,,,,,,,,,masks/mask_004.jpg,,,,,,,,,,,,,,,,,,,,,,,,,,,,,,,,,,,,,,,,,,,,,,,,0,4,4,3,1,,,,,,,,,,,,,,,,,,,,,,,,,,,,,,,,,,,,,,,,,
917194,001,2022-11-20_23h55.38.194,Info_measure_main_exp,2022.2.2,Win32,60.40106306,,,,,,,,,,,,,,,,,,,,,,,,,,,,,,6,3.1813,1,,,,,,,,,,,,0,131,5,5,2142,2166,absent_patch/patch0002142.jpg,absent_patch/patch0002166.jpg,,,,,,,,,,,,,,,,,,,,0.137962977,0.039814808,1,0,0,response1disk,18,0,0.002777771,1,0,0,center_square,0,17,17,66,1,,,,,,,,,,,,,,,,,,,,,,,
917194,001,2022-11-20_23h55.38.194,Info_measure_main_exp,2022.2.2,Win32,60.40106306,,,,,,,,,,,,,,,,,,masks/mask_004.jpg,,,,,,,,,,,,,,,,,,,,,,,,,,,,,,,,,,,,,,,,,,,0,0,0,3,1,,,,,,,,,,,,,,,,,,,,,,,,,,,,,,,,,,,,,,,,,,,,,,
917194,001,2022-11-20_23h55.38.194,Info_measure_main_exp,2022.2.2,Win32,60.40106306,,,,,,,,,,,,,,,,,,masks/mask_002.jpg,,,,,,,,,,,,,,,,,,,,,,,,,,,,,,,,,,,,,,,,,,,0,1,1,1,1,,,,,,,,,,,,,,,,,,,,,,,,,,,,,,,,,,,,,,,,,,,,,,
917194,001,2022-11-20_23h55.38.194,Info_measure_main_exp,2022.2.2,Win32,60.40106306,,,,,,,,,,,,,,,,,,masks/mask_001.jpg,,,,,,,,,,,,,,,,,,,,,,,,,,,,,,,,,,,,,,,,,,,0,2,2,0,1,,,,,,,,,,,,,,,,,,,,,,,,,,,,,,,,,,,,,,,,,,,,,,
917194,001,2022-11-20_23h55.38.194,Info_measure_main_exp,2022.2.2,Win32,60.40106306,,,,,,,,,,,,,,,,,,masks/mask_005.jpg,,,,,,,,,,,,,,,,,,,,,,,,,,,,,,,,,,,,,,,,,,,0,3,3,4,1,,,,,,,,,,,,,,,,,,,,,,,,,,,,,,,,,,,,,,,,,,,,,,
917194,001,2022-11-20_23h55.38.194,Info_measure_main_exp,2022.2.2,Win32,60.40106306,,,,,,,,,,,,,,,,,,masks/mask_003.jpg,,,,,,,,,,,,,,,,,,,,,,,,,,,,,,,,,,,,,,,,,,,0,4,4,2,1,,,,,,,,,,,,,,,,,,,,,,,,,,,,,,,,,,,,,,,,,,,,,,
917194,001,2022-11-20_23h55.38.194,Info_measure_main_exp,2022.2.2,Win32,60.40106306,,,,,,,,,,,,,,,,,,masks/mask_003.jpg,,,,,,,,,,,,,,,,,,,,,,,,,,,,,,,,,,,,,,,,,,,,,,,,0,0,0,2,1,,,,,,,,,,,,,,,,,,,,,,,,,,,,,,,,,,,,,,,,,
917194,001,2022-11-20_23h55.38.194,Info_measure_main_exp,2022.2.2,Win32,60.40106306,,,,,,,,,,,,,,,,,,masks/mask_001.jpg,,,,,,,,,,,,,,,,,,,,,,,,,,,,,,,,,,,,,,,,,,,,,,,,0,1,1,0,1,,,,,,,,,,,,,,,,,,,,,,,,,,,,,,,,,,,,,,,,,
917194,001,2022-11-20_23h55.38.194,Info_measure_main_exp,2022.2.2,Win32,60.40106306,,,,,,,,,,,,,,,,,,masks/mask_002.jpg,,,,,,,,,,,,,,,,,,,,,,,,,,,,,,,,,,,,,,,,,,,,,,,,0,2,2,1,1,,,,,,,,,,,,,,,,,,,,,,,,,,,,,,,,,,,,,,,,,
917194,001,2022-11-20_23h55.38.194,Info_measure_main_exp,2022.2.2,Win32,60.40106306,,,,,,,,,,,,,,,,,,masks/mask_004.jpg,,,,,,,,,,,,,,,,,,,,,,,,,,,,,,,,,,,,,,,,,,,,,,,,0,3,3,3,1,,,,,,,,,,,,,,,,,,,,,,,,,,,,,,,,,,,,,,,,,
917194,001,2022-11-20_23h55.38.194,Info_measure_main_exp,2022.2.2,Win32,60.40106306,,,,,,,,,,,,,,,,,,masks/mask_005.jpg,,,,,,,,,,,,,,,,,,,,,,,,,,,,,,,,,,,,,,,,,,,,,,,,0,4,4,4,1,,,,,,,,,,,,,,,,,,,,,,,,,,,,,,,,,,,,,,,,,
917194,001,2022-11-20_23h55.38.194,Info_measure_main_exp,2022.2.2,Win32,60.40106306,,,,,,,,,,,,,,,,,,,,,,,,,,,,,,7,1.4825,1,,,,,,,,,,,,0,131,5,5,1974,2214,absent_patch/patch0001974.jpg,absent_patch/patch0002214.jpg,,,,,,,,,,,,,,,,,,,,0.05277782,0.16574072,1,0,0,response1disk,19,0.005555541,0,1,0,0,center_square,0,18,18,24,1,,,,,,,,,,,,,,,,,,,,,,,
917194,001,2022-11-20_23h55.38.194,Info_measure_main_exp,2022.2.2,Win32,60.40106306,,,,,,,,,,,,,,,,,,masks/mask_003.jpg,,,,,,,,,,,,,,,,,,,,,,,,,,,,,,,,,,,,,,,,,,,0,0,0,2,1,,,,,,,,,,,,,,,,,,,,,,,,,,,,,,,,,,,,,,,,,,,,,,
917194,001,2022-11-20_23h55.38.194,Info_measure_main_exp,2022.2.2,Win32,60.40106306,,,,,,,,,,,,,,,,,,masks/mask_001.jpg,,,,,,,,,,,,,,,,,,,,,,,,,,,,,,,,,,,,,,,,,,,0,1,1,0,1,,,,,,,,,,,,,,,,,,,,,,,,,,,,,,,,,,,,,,,,,,,,,,
917194,001,2022-11-20_23h55.38.194,Info_measure_main_exp,2022.2.2,Win32,60.40106306,,,,,,,,,,,,,,,,,,masks/mask_005.jpg,,,,,,,,,,,,,,,,,,,,,,,,,,,,,,,,,,,,,,,,,,,0,2,2,4,1,,,,,,,,,,,,,,,,,,,,,,,,,,,,,,,,,,,,,,,,,,,,,,
917194,001,2022-11-20_23h55.38.194,Info_measure_main_exp,2022.2.2,Win32,60.40106306,,,,,,,,,,,,,,,,,,masks/mask_004.jpg,,,,,,,,,,,,,,,,,,,,,,,,,,,,,,,,,,,,,,,,,,,0,3,3,3,1,,,,,,,,,,,,,,,,,,,,,,,,,,,,,,,,,,,,,,,,,,,,,,
917194,001,2022-11-20_23h55.38.194,Info_measure_main_exp,2022.2.2,Win32,60.40106306,,,,,,,,,,,,,,,,,,masks/mask_002.jpg,,,,,,,,,,,,,,,,,,,,,,,,,,,,,,,,,,,,,,,,,,,0,4,4,1,1,,,,,,,,,,,,,,,,,,,,,,,,,,,,,,,,,,,,,,,,,,,,,,
917194,001,2022-11-20_23h55.38.194,Info_measure_main_exp,2022.2.2,Win32,60.40106306,,,,,,,,,,,,,,,,,,masks/mask_002.jpg,,,,,,,,,,,,,,,,,,,,,,,,,,,,,,,,,,,,,,,,,,,,,,,,0,0,0,1,1,,,,,,,,,,,,,,,,,,,,,,,,,,,,,,,,,,,,,,,,,
917194,001,2022-11-20_23h55.38.194,Info_measure_main_exp,2022.2.2,Win32,60.40106306,,,,,,,,,,,,,,,,,,masks/mask_001.jpg,,,,,,,,,,,,,,,,,,,,,,,,,,,,,,,,,,,,,,,,,,,,,,,,0,1,1,0,1,,,,,,,,,,,,,,,,,,,,,,,,,,,,,,,,,,,,,,,,,
917194,001,2022-11-20_23h55.38.194,Info_measure_main_exp,2022.2.2,Win32,60.40106306,,,,,,,,,,,,,,,,,,masks/mask_003.jpg,,,,,,,,,,,,,,,,,,,,,,,,,,,,,,,,,,,,,,,,,,,,,,,,0,2,2,2,1,,,,,,,,,,,,,,,,,,,,,,,,,,,,,,,,,,,,,,,,,
917194,001,2022-11-20_23h55.38.194,Info_measure_main_exp,2022.2.2,Win32,60.40106306,,,,,,,,,,,,,,,,,,masks/mask_005.jpg,,,,,,,,,,,,,,,,,,,,,,,,,,,,,,,,,,,,,,,,,,,,,,,,0,3,3,4,1,,,,,,,,,,,,,,,,,,,,,,,,,,,,,,,,,,,,,,,,,
917194,001,2022-11-20_23h55.38.194,Info_measure_main_exp,2022.2.2,Win32,60.40106306,,,,,,,,,,,,,,,,,,masks/mask_004.jpg,,,,,,,,,,,,,,,,,,,,,,,,,,,,,,,,,,,,,,,,,,,,,,,,0,4,4,3,1,,,,,,,,,,,,,,,,,,,,,,,,,,,,,,,,,,,,,,,,,
917194,001,2022-11-20_23h55.38.194,Info_measure_main_exp,2022.2.2,Win32,60.40106306,,,,,,,,,,,,,,,,,,,,,,,,,,,,,,2,1.7487,1,,,,,,,,,,,,0,131,5,5,2274,2238,absent_patch/patch0002274.jpg,absent_patch/patch0002238.jpg,,,,,,,,,,,,,,,,,,,,-0.166666667,-0.056481503,1,0,0,response5disk,20,-0.007407365,-0.005555577,1,0,0,center_square,0,19,19,91,1,,,,,,,,,,,,,,,,,,,,,,,
917194,001,2022-11-20_23h55.38.194,Info_measure_main_exp,2022.2.2,Win32,60.40106306,,,,,,,,,,,,,,,,,,masks/mask_005.jpg,,,,,,,,,,,,,,,,,,,,,,,,,,,,,,,,,,,,,,,,,,,0,0,0,4,1,,,,,,,,,,,,,,,,,,,,,,,,,,,,,,,,,,,,,,,,,,,,,,
917194,001,2022-11-20_23h55.38.194,Info_measure_main_exp,2022.2.2,Win32,60.40106306,,,,,,,,,,,,,,,,,,masks/mask_004.jpg,,,,,,,,,,,,,,,,,,,,,,,,,,,,,,,,,,,,,,,,,,,0,1,1,3,1,,,,,,,,,,,,,,,,,,,,,,,,,,,,,,,,,,,,,,,,,,,,,,
917194,001,2022-11-20_23h55.38.194,Info_measure_main_exp,2022.2.2,Win32,60.40106306,,,,,,,,,,,,,,,,,,masks/mask_003.jpg,,,,,,,,,,,,,,,,,,,,,,,,,,,,,,,,,,,,,,,,,,,0,2,2,2,1,,,,,,,,,,,,,,,,,,,,,,,,,,,,,,,,,,,,,,,,,,,,,,
917194,001,2022-11-20_23h55.38.194,Info_measure_main_exp,2022.2.2,Win32,60.40106306,,,,,,,,,,,,,,,,,,masks/mask_002.jpg,,,,,,,,,,,,,,,,,,,,,,,,,,,,,,,,,,,,,,,,,,,0,3,3,1,1,,,,,,,,,,,,,,,,,,,,,,,,,,,,,,,,,,,,,,,,,,,,,,
917194,001,2022-11-20_23h55.38.194,Info_measure_main_exp,2022.2.2,Win32,60.40106306,,,,,,,,,,,,,,,,,,masks/mask_001.jpg,,,,,,,,,,,,,,,,,,,,,,,,,,,,,,,,,,,,,,,,,,,0,4,4,0,1,,,,,,,,,,,,,,,,,,,,,,,,,,,,,,,,,,,,,,,,,,,,,,
917194,001,2022-11-20_23h55.38.194,Info_measure_main_exp,2022.2.2,Win32,60.40106306,,,,,,,,,,,,,,,,,,masks/mask_002.jpg,,,,,,,,,,,,,,,,,,,,,,,,,,,,,,,,,,,,,,,,,,,,,,,,0,0,0,1,1,,,,,,,,,,,,,,,,,,,,,,,,,,,,,,,,,,,,,,,,,
917194,001,2022-11-20_23h55.38.194,Info_measure_main_exp,2022.2.2,Win32,60.40106306,,,,,,,,,,,,,,,,,,masks/mask_001.jpg,,,,,,,,,,,,,,,,,,,,,,,,,,,,,,,,,,,,,,,,,,,,,,,,0,1,1,0,1,,,,,,,,,,,,,,,,,,,,,,,,,,,,,,,,,,,,,,,,,
917194,001,2022-11-20_23h55.38.194,Info_measure_main_exp,2022.2.2,Win32,60.40106306,,,,,,,,,,,,,,,,,,masks/mask_005.jpg,,,,,,,,,,,,,,,,,,,,,,,,,,,,,,,,,,,,,,,,,,,,,,,,0,2,2,4,1,,,,,,,,,,,,,,,,,,,,,,,,,,,,,,,,,,,,,,,,,
917194,001,2022-11-20_23h55.38.194,Info_measure_main_exp,2022.2.2,Win32,60.40106306,,,,,,,,,,,,,,,,,,masks/mask_004.jpg,,,,,,,,,,,,,,,,,,,,,,,,,,,,,,,,,,,,,,,,,,,,,,,,0,3,3,3,1,,,,,,,,,,,,,,,,,,,,,,,,,,,,,,,,,,,,,,,,,
917194,001,2022-11-20_23h55.38.194,Info_measure_main_exp,2022.2.2,Win32,60.40106306,,,,,,,,,,,,,,,,,,masks/mask_003.jpg,,,,,,,,,,,,,,,,,,,,,,,,,,,,,,,,,,,,,,,,,,,,,,,,0,4,4,2,1,,,,,,,,,,,,,,,,,,,,,,,,,,,,,,,,,,,,,,,,,
917194,001,2022-11-20_23h55.38.194,Info_measure_main_exp,2022.2.2,Win32,60.40106306,,,,,,,,,,,,,,,,,,,,,,,,,,,,,,0,0.9992,1,,,,,,,,,,,,0,131,5,5,2274,2274,absent_patch/patch0002274.jpg,absent_patch/patch0002274.jpg,,,,,,,,,,,,,,,,,,,,-0.07222218,0.147222201,1,0,0,response7disk,21,-0.012962977,0.000925912,1,0,0,center_square,0,20,20,114,1,,,,,,,,,,,,,,,,,,,,,,,
917194,001,2022-11-20_23h55.38.194,Info_measure_main_exp,2022.2.2,Win32,60.40106306,,,,,,,,,,,,,,,,,,masks/mask_001.jpg,,,,,,,,,,,,,,,,,,,,,,,,,,,,,,,,,,,,,,,,,,,0,0,0,0,1,,,,,,,,,,,,,,,,,,,,,,,,,,,,,,,,,,,,,,,,,,,,,,
917194,001,2022-11-20_23h55.38.194,Info_measure_main_exp,2022.2.2,Win32,60.40106306,,,,,,,,,,,,,,,,,,masks/mask_005.jpg,,,,,,,,,,,,,,,,,,,,,,,,,,,,,,,,,,,,,,,,,,,0,1,1,4,1,,,,,,,,,,,,,,,,,,,,,,,,,,,,,,,,,,,,,,,,,,,,,,
917194,001,2022-11-20_23h55.38.194,Info_measure_main_exp,2022.2.2,Win32,60.40106306,,,,,,,,,,,,,,,,,,masks/mask_004.jpg,,,,,,,,,,,,,,,,,,,,,,,,,,,,,,,,,,,,,,,,,,,0,2,2,3,1,,,,,,,,,,,,,,,,,,,,,,,,,,,,,,,,,,,,,,,,,,,,,,
917194,001,2022-11-20_23h55.38.194,Info_measure_main_exp,2022.2.2,Win32,60.40106306,,,,,,,,,,,,,,,,,,masks/mask_002.jpg,,,,,,,,,,,,,,,,,,,,,,,,,,,,,,,,,,,,,,,,,,,0,3,3,1,1,,,,,,,,,,,,,,,,,,,,,,,,,,,,,,,,,,,,,,,,,,,,,,
917194,001,2022-11-20_23h55.38.194,Info_measure_main_exp,2022.2.2,Win32,60.40106306,,,,,,,,,,,,,,,,,,masks/mask_003.jpg,,,,,,,,,,,,,,,,,,,,,,,,,,,,,,,,,,,,,,,,,,,0,4,4,2,1,,,,,,,,,,,,,,,,,,,,,,,,,,,,,,,,,,,,,,,,,,,,,,
917194,001,2022-11-20_23h55.38.194,Info_measure_main_exp,2022.2.2,Win32,60.40106306,,,,,,,,,,,,,,,,,,masks/mask_002.jpg,,,,,,,,,,,,,,,,,,,,,,,,,,,,,,,,,,,,,,,,,,,,,,,,0,0,0,1,1,,,,,,,,,,,,,,,,,,,,,,,,,,,,,,,,,,,,,,,,,
917194,001,2022-11-20_23h55.38.194,Info_measure_main_exp,2022.2.2,Win32,60.40106306,,,,,,,,,,,,,,,,,,masks/mask_001.jpg,,,,,,,,,,,,,,,,,,,,,,,,,,,,,,,,,,,,,,,,,,,,,,,,0,1,1,0,1,,,,,,,,,,,,,,,,,,,,,,,,,,,,,,,,,,,,,,,,,
917194,001,2022-11-20_23h55.38.194,Info_measure_main_exp,2022.2.2,Win32,60.40106306,,,,,,,,,,,,,,,,,,masks/mask_004.jpg,,,,,,,,,,,,,,,,,,,,,,,,,,,,,,,,,,,,,,,,,,,,,,,,0,2,2,3,1,,,,,,,,,,,,,,,,,,,,,,,,,,,,,,,,,,,,,,,,,
917194,001,2022-11-20_23h55.38.194,Info_measure_main_exp,2022.2.2,Win32,60.40106306,,,,,,,,,,,,,,,,,,masks/mask_005.jpg,,,,,,,,,,,,,,,,,,,,,,,,,,,,,,,,,,,,,,,,,,,,,,,,0,3,3,4,1,,,,,,,,,,,,,,,,,,,,,,,,,,,,,,,,,,,,,,,,,
917194,001,2022-11-20_23h55.38.194,Info_measure_main_exp,2022.2.2,Win32,60.40106306,,,,,,,,,,,,,,,,,,masks/mask_003.jpg,,,,,,,,,,,,,,,,,,,,,,,,,,,,,,,,,,,,,,,,,,,,,,,,0,4,4,2,1,,,,,,,,,,,,,,,,,,,,,,,,,,,,,,,,,,,,,,,,,
917194,001,2022-11-20_23h55.38.194,Info_measure_main_exp,2022.2.2,Win32,60.40106306,,,,,,,,,,,,,,,,,,,,,,,,,,,,,,3,6.1224,1,,,,,,,,,,,,0,131,5,5,2142,2154,absent_patch/patch0002142.jpg,absent_patch/patch0002154.jpg,,,,,,,,,,,,,,,,,,,,-0.023148148,-0.10092594,1,0,0,response5disk,22,-0.001851824,0.006481489,1,0,0,center_square,0,21,21,9,1,,,,,,,,,,,,,,,,,,,,,,,
917194,001,2022-11-20_23h55.38.194,Info_measure_main_exp,2022.2.2,Win32,60.40106306,,,,,,,,,,,,,,,,,,masks/mask_004.jpg,,,,,,,,,,,,,,,,,,,,,,,,,,,,,,,,,,,,,,,,,,,0,0,0,3,1,,,,,,,,,,,,,,,,,,,,,,,,,,,,,,,,,,,,,,,,,,,,,,
917194,001,2022-11-20_23h55.38.194,Info_measure_main_exp,2022.2.2,Win32,60.40106306,,,,,,,,,,,,,,,,,,masks/mask_002.jpg,,,,,,,,,,,,,,,,,,,,,,,,,,,,,,,,,,,,,,,,,,,0,1,1,1,1,,,,,,,,,,,,,,,,,,,,,,,,,,,,,,,,,,,,,,,,,,,,,,
917194,001,2022-11-20_23h55.38.194,Info_measure_main_exp,2022.2.2,Win32,60.40106306,,,,,,,,,,,,,,,,,,masks/mask_003.jpg,,,,,,,,,,,,,,,,,,,,,,,,,,,,,,,,,,,,,,,,,,,0,2,2,2,1,,,,,,,,,,,,,,,,,,,,,,,,,,,,,,,,,,,,,,,,,,,,,,
917194,001,2022-11-20_23h55.38.194,Info_measure_main_exp,2022.2.2,Win32,60.40106306,,,,,,,,,,,,,,,,,,masks/mask_001.jpg,,,,,,,,,,,,,,,,,,,,,,,,,,,,,,,,,,,,,,,,,,,0,3,3,0,1,,,,,,,,,,,,,,,,,,,,,,,,,,,,,,,,,,,,,,,,,,,,,,
917194,001,2022-11-20_23h55.38.194,Info_measure_main_exp,2022.2.2,Win32,60.40106306,,,,,,,,,,,,,,,,,,masks/mask_005.jpg,,,,,,,,,,,,,,,,,,,,,,,,,,,,,,,,,,,,,,,,,,,0,4,4,4,1,,,,,,,,,,,,,,,,,,,,,,,,,,,,,,,,,,,,,,,,,,,,,,
917194,001,2022-11-20_23h55.38.194,Info_measure_main_exp,2022.2.2,Win32,60.40106306,,,,,,,,,,,,,,,,,,masks/mask_005.jpg,,,,,,,,,,,,,,,,,,,,,,,,,,,,,,,,,,,,,,,,,,,,,,,,0,0,0,4,1,,,,,,,,,,,,,,,,,,,,,,,,,,,,,,,,,,,,,,,,,
917194,001,2022-11-20_23h55.38.194,Info_measure_main_exp,2022.2.2,Win32,60.40106306,,,,,,,,,,,,,,,,,,masks/mask_001.jpg,,,,,,,,,,,,,,,,,,,,,,,,,,,,,,,,,,,,,,,,,,,,,,,,0,1,1,0,1,,,,,,,,,,,,,,,,,,,,,,,,,,,,,,,,,,,,,,,,,
917194,001,2022-11-20_23h55.38.194,Info_measure_main_exp,2022.2.2,Win32,60.40106306,,,,,,,,,,,,,,,,,,masks/mask_002.jpg,,,,,,,,,,,,,,,,,,,,,,,,,,,,,,,,,,,,,,,,,,,,,,,,0,2,2,1,1,,,,,,,,,,,,,,,,,,,,,,,,,,,,,,,,,,,,,,,,,
917194,001,2022-11-20_23h55.38.194,Info_measure_main_exp,2022.2.2,Win32,60.40106306,,,,,,,,,,,,,,,,,,masks/mask_003.jpg,,,,,,,,,,,,,,,,,,,,,,,,,,,,,,,,,,,,,,,,,,,,,,,,0,3,3,2,1,,,,,,,,,,,,,,,,,,,,,,,,,,,,,,,,,,,,,,,,,
917194,001,2022-11-20_23h55.38.194,Info_measure_main_exp,2022.2.2,Win32,60.40106306,,,,,,,,,,,,,,,,,,masks/mask_004.jpg,,,,,,,,,,,,,,,,,,,,,,,,,,,,,,,,,,,,,,,,,,,,,,,,0,4,4,3,1,,,,,,,,,,,,,,,,,,,,,,,,,,,,,,,,,,,,,,,,,
917194,001,2022-11-20_23h55.38.194,Info_measure_main_exp,2022.2.2,Win32,60.40106306,,,,,,,,,,,,,,,,,,,,,,,,,,,,,,2,3.9646,1,,,,,,,,,,,,1,131,5,5,1,2274,present_patch/cong_131_5_a.jpg,absent_patch/patch0002274.jpg,,,,,,,,,,,,,,,,,,,,-0.175925926,-0.053703697,1,0,0,response5disk,23,-0.006481453,0.006481489,1,0,0,center_square,0,22,22,105,1,,,,,,,,,,,,,,,,,,,,,,,
917194,001,2022-11-20_23h55.38.194,Info_measure_main_exp,2022.2.2,Win32,60.40106306,,,,,,,,,,,,,,,,,,masks/mask_002.jpg,,,,,,,,,,,,,,,,,,,,,,,,,,,,,,,,,,,,,,,,,,,0,0,0,1,1,,,,,,,,,,,,,,,,,,,,,,,,,,,,,,,,,,,,,,,,,,,,,,
917194,001,2022-11-20_23h55.38.194,Info_measure_main_exp,2022.2.2,Win32,60.40106306,,,,,,,,,,,,,,,,,,masks/mask_003.jpg,,,,,,,,,,,,,,,,,,,,,,,,,,,,,,,,,,,,,,,,,,,0,1,1,2,1,,,,,,,,,,,,,,,,,,,,,,,,,,,,,,,,,,,,,,,,,,,,,,
917194,001,2022-11-20_23h55.38.194,Info_measure_main_exp,2022.2.2,Win32,60.40106306,,,,,,,,,,,,,,,,,,masks/mask_005.jpg,,,,,,,,,,,,,,,,,,,,,,,,,,,,,,,,,,,,,,,,,,,0,2,2,4,1,,,,,,,,,,,,,,,,,,,,,,,,,,,,,,,,,,,,,,,,,,,,,,
917194,001,2022-11-20_23h55.38.194,Info_measure_main_exp,2022.2.2,Win32,60.40106306,,,,,,,,,,,,,,,,,,masks/mask_004.jpg,,,,,,,,,,,,,,,,,,,,,,,,,,,,,,,,,,,,,,,,,,,0,3,3,3,1,,,,,,,,,,,,,,,,,,,,,,,,,,,,,,,,,,,,,,,,,,,,,,
917194,001,2022-11-20_23h55.38.194,Info_measure_main_exp,2022.2.2,Win32,60.40106306,,,,,,,,,,,,,,,,,,masks/mask_001.jpg,,,,,,,,,,,,,,,,,,,,,,,,,,,,,,,,,,,,,,,,,,,0,4,4,0,1,,,,,,,,,,,,,,,,,,,,,,,,,,,,,,,,,,,,,,,,,,,,,,
917194,001,2022-11-20_23h55.38.194,Info_measure_main_exp,2022.2.2,Win32,60.40106306,,,,,,,,,,,,,,,,,,masks/mask_005.jpg,,,,,,,,,,,,,,,,,,,,,,,,,,,,,,,,,,,,,,,,,,,,,,,,0,0,0,4,1,,,,,,,,,,,,,,,,,,,,,,,,,,,,,,,,,,,,,,,,,
917194,001,2022-11-20_23h55.38.194,Info_measure_main_exp,2022.2.2,Win32,60.40106306,,,,,,,,,,,,,,,,,,masks/mask_001.jpg,,,,,,,,,,,,,,,,,,,,,,,,,,,,,,,,,,,,,,,,,,,,,,,,0,1,1,0,1,,,,,,,,,,,,,,,,,,,,,,,,,,,,,,,,,,,,,,,,,
917194,001,2022-11-20_23h55.38.194,Info_measure_main_exp,2022.2.2,Win32,60.40106306,,,,,,,,,,,,,,,,,,masks/mask_004.jpg,,,,,,,,,,,,,,,,,,,,,,,,,,,,,,,,,,,,,,,,,,,,,,,,0,2,2,3,1,,,,,,,,,,,,,,,,,,,,,,,,,,,,,,,,,,,,,,,,,
917194,001,2022-11-20_23h55.38.194,Info_measure_main_exp,2022.2.2,Win32,60.40106306,,,,,,,,,,,,,,,,,,masks/mask_003.jpg,,,,,,,,,,,,,,,,,,,,,,,,,,,,,,,,,,,,,,,,,,,,,,,,0,3,3,2,1,,,,,,,,,,,,,,,,,,,,,,,,,,,,,,,,,,,,,,,,,
917194,001,2022-11-20_23h55.38.194,Info_measure_main_exp,2022.2.2,Win32,60.40106306,,,,,,,,,,,,,,,,,,masks/mask_002.jpg,,,,,,,,,,,,,,,,,,,,,,,,,,,,,,,,,,,,,,,,,,,,,,,,0,4,4,1,1,,,,,,,,,,,,,,,,,,,,,,,,,,,,,,,,,,,,,,,,,
917194,001,2022-11-20_23h55.38.194,Info_measure_main_exp,2022.2.2,Win32,60.40106306,,,,,,,,,,,,,,,,,,,,,,,,,,,,,,6,3.6314,1,,,,,,,,,,,,0,131,5,5,2250,2166,absent_patch/patch0002250.jpg,absent_patch/patch0002166.jpg,,,,,,,,,,,,,,,,,,,,0.12962963,0.075925933,1,0,0,response1disk,24,-0.003703718,0.005555541,1,0,0,center_square,0,23,23,60,1,,,,,,,,,,,,,,,,,,,,,,,
917194,001,2022-11-20_23h55.38.194,Info_measure_main_exp,2022.2.2,Win32,60.40106306,,,,,,,,,,,,,,,,,,masks/mask_005.jpg,,,,,,,,,,,,,,,,,,,,,,,,,,,,,,,,,,,,,,,,,,,0,0,0,4,1,,,,,,,,,,,,,,,,,,,,,,,,,,,,,,,,,,,,,,,,,,,,,,
917194,001,2022-11-20_23h55.38.194,Info_measure_main_exp,2022.2.2,Win32,60.40106306,,,,,,,,,,,,,,,,,,masks/mask_002.jpg,,,,,,,,,,,,,,,,,,,,,,,,,,,,,,,,,,,,,,,,,,,0,1,1,1,1,,,,,,,,,,,,,,,,,,,,,,,,,,,,,,,,,,,,,,,,,,,,,,
917194,001,2022-11-20_23h55.38.194,Info_measure_main_exp,2022.2.2,Win32,60.40106306,,,,,,,,,,,,,,,,,,masks/mask_004.jpg,,,,,,,,,,,,,,,,,,,,,,,,,,,,,,,,,,,,,,,,,,,0,2,2,3,1,,,,,,,,,,,,,,,,,,,,,,,,,,,,,,,,,,,,,,,,,,,,,,
917194,001,2022-11-20_23h55.38.194,Info_measure_main_exp,2022.2.2,Win32,60.40106306,,,,,,,,,,,,,,,,,,masks/mask_001.jpg,,,,,,,,,,,,,,,,,,,,,,,,,,,,,,,,,,,,,,,,,,,0,3,3,0,1,,,,,,,,,,,,,,,,,,,,,,,,,,,,,,,,,,,,,,,,,,,,,,
917194,001,2022-11-20_23h55.38.194,Info_measure_main_exp,2022.2.2,Win32,60.40106306,,,,,,,,,,,,,,,,,,masks/mask_003.jpg,,,,,,,,,,,,,,,,,,,,,,,,,,,,,,,,,,,,,,,,,,,0,4,4,2,1,,,,,,,,,,,,,,,,,,,,,,,,,,,,,,,,,,,,,,,,,,,,,,
917194,001,2022-11-20_23h55.38.194,Info_measure_main_exp,2022.2.2,Win32,60.40106306,,,,,,,,,,,,,,,,,,masks/mask_001.jpg,,,,,,,,,,,,,,,,,,,,,,,,,,,,,,,,,,,,,,,,,,,,,,,,0,0,0,0,1,,,,,,,,,,,,,,,,,,,,,,,,,,,,,,,,,,,,,,,,,
917194,001,2022-11-20_23h55.38.194,Info_measure_main_exp,2022.2.2,Win32,60.40106306,,,,,,,,,,,,,,,,,,masks/mask_002.jpg,,,,,,,,,,,,,,,,,,,,,,,,,,,,,,,,,,,,,,,,,,,,,,,,0,1,1,1,1,,,,,,,,,,,,,,,,,,,,,,,,,,,,,,,,,,,,,,,,,
917194,001,2022-11-20_23h55.38.194,Info_measure_main_exp,2022.2.2,Win32,60.40106306,,,,,,,,,,,,,,,,,,masks/mask_003.jpg,,,,,,,,,,,,,,,,,,,,,,,,,,,,,,,,,,,,,,,,,,,,,,,,0,2,2,2,1,,,,,,,,,,,,,,,,,,,,,,,,,,,,,,,,,,,,,,,,,
917194,001,2022-11-20_23h55.38.194,Info_measure_main_exp,2022.2.2,Win32,60.40106306,,,,,,,,,,,,,,,,,,masks/mask_005.jpg,,,,,,,,,,,,,,,,,,,,,,,,,,,,,,,,,,,,,,,,,,,,,,,,0,3,3,4,1,,,,,,,,,,,,,,,,,,,,,,,,,,,,,,,,,,,,,,,,,
917194,001,2022-11-20_23h55.38.194,Info_measure_main_exp,2022.2.2,Win32,60.40106306,,,,,,,,,,,,,,,,,,masks/mask_004.jpg,,,,,,,,,,,,,,,,,,,,,,,,,,,,,,,,,,,,,,,,,,,,,,,,0,4,4,3,1,,,,,,,,,,,,,,,,,,,,,,,,,,,,,,,,,,,,,,,,,
917194,001,2022-11-20_23h55.38.194,Info_measure_main_exp,2022.2.2,Win32,60.40106306,,,,,,,,,,,,,,,,,,,,,,,,,,,,,,7,5.6472,1,,,,,,,,,,,,0,131,5,5,2274,2190,absent_patch/patch0002274.jpg,absent_patch/patch0002190.jpg,,,,,,,,,,,,,,,,,,,,0.047222208,0.138888889,1,0,0,response1disk,25,0.008333347,0.003703683,1,0,0,center_square,0,24,24,116,1,,,,,,,,,,,,,,,,,,,,,,,
917194,001,2022-11-20_23h55.38.194,Info_measure_main_exp,2022.2.2,Win32,60.40106306,,,,,,,,,,,,,,,,,,masks/mask_003.jpg,,,,,,,,,,,,,,,,,,,,,,,,,,,,,,,,,,,,,,,,,,,0,0,0,2,1,,,,,,,,,,,,,,,,,,,,,,,,,,,,,,,,,,,,,,,,,,,,,,
917194,001,2022-11-20_23h55.38.194,Info_measure_main_exp,2022.2.2,Win32,60.40106306,,,,,,,,,,,,,,,,,,masks/mask_004.jpg,,,,,,,,,,,,,,,,,,,,,,,,,,,,,,,,,,,,,,,,,,,0,1,1,3,1,,,,,,,,,,,,,,,,,,,,,,,,,,,,,,,,,,,,,,,,,,,,,,
917194,001,2022-11-20_23h55.38.194,Info_measure_main_exp,2022.2.2,Win32,60.40106306,,,,,,,,,,,,,,,,,,masks/mask_005.jpg,,,,,,,,,,,,,,,,,,,,,,,,,,,,,,,,,,,,,,,,,,,0,2,2,4,1,,,,,,,,,,,,,,,,,,,,,,,,,,,,,,,,,,,,,,,,,,,,,,
917194,001,2022-11-20_23h55.38.194,Info_measure_main_exp,2022.2.2,Win32,60.40106306,,,,,,,,,,,,,,,,,,masks/mask_002.jpg,,,,,,,,,,,,,,,,,,,,,,,,,,,,,,,,,,,,,,,,,,,0,3,3,1,1,,,,,,,,,,,,,,,,,,,,,,,,,,,,,,,,,,,,,,,,,,,,,,
917194,001,2022-11-20_23h55.38.194,Info_measure_main_exp,2022.2.2,Win32,60.40106306,,,,,,,,,,,,,,,,,,masks/mask_001.jpg,,,,,,,,,,,,,,,,,,,,,,,,,,,,,,,,,,,,,,,,,,,0,4,4,0,1,,,,,,,,,,,,,,,,,,,,,,,,,,,,,,,,,,,,,,,,,,,,,,
917194,001,2022-11-20_23h55.38.194,Info_measure_main_exp,2022.2.2,Win32,60.40106306,,,,,,,,,,,,,,,,,,masks/mask_001.jpg,,,,,,,,,,,,,,,,,,,,,,,,,,,,,,,,,,,,,,,,,,,,,,,,0,0,0,0,1,,,,,,,,,,,,,,,,,,,,,,,,,,,,,,,,,,,,,,,,,
917194,001,2022-11-20_23h55.38.194,Info_measure_main_exp,2022.2.2,Win32,60.40106306,,,,,,,,,,,,,,,,,,masks/mask_004.jpg,,,,,,,,,,,,,,,,,,,,,,,,,,,,,,,,,,,,,,,,,,,,,,,,0,1,1,3,1,,,,,,,,,,,,,,,,,,,,,,,,,,,,,,,,,,,,,,,,,
917194,001,2022-11-20_23h55.38.194,Info_measure_main_exp,2022.2.2,Win32,60.40106306,,,,,,,,,,,,,,,,,,masks/mask_005.jpg,,,,,,,,,,,,,,,,,,,,,,,,,,,,,,,,,,,,,,,,,,,,,,,,0,2,2,4,1,,,,,,,,,,,,,,,,,,,,,,,,,,,,,,,,,,,,,,,,,
917194,001,2022-11-20_23h55.38.194,Info_measure_main_exp,2022.2.2,Win32,60.40106306,,,,,,,,,,,,,,,,,,masks/mask_003.jpg,,,,,,,,,,,,,,,,,,,,,,,,,,,,,,,,,,,,,,,,,,,,,,,,0,3,3,2,1,,,,,,,,,,,,,,,,,,,,,,,,,,,,,,,,,,,,,,,,,
917194,001,2022-11-20_23h55.38.194,Info_measure_main_exp,2022.2.2,Win32,60.40106306,,,,,,,,,,,,,,,,,,masks/mask_002.jpg,,,,,,,,,,,,,,,,,,,,,,,,,,,,,,,,,,,,,,,,,,,,,,,,0,4,4,1,1,,,,,,,,,,,,,,,,,,,,,,,,,,,,,,,,,,,,,,,,,
917194,001,2022-11-20_23h55.38.194,Info_measure_main_exp,2022.2.2,Win32,60.40106306,,,,,,,,,,,,,,,,,,,,,,,,,,,,,,0,1.0489,1,,,,,,,,,,,,0,131,5,5,2214,2214,absent_patch/patch0002214.jpg,absent_patch/patch0002214.jpg,,,,,,,,,,,,,,,,,,,,-0.069444444,0.176851838,1,0,0,response7disk,26,0.000925912,0.00462963,1,0,0,center_square,0,25,25,115,1,,,,,,,,,,,,,,,,,,,,,,,
917194,001,2022-11-20_23h55.38.194,Info_measure_main_exp,2022.2.2,Win32,60.40106306,,,,,,,,,,,,,,,,,,masks/mask_001.jpg,,,,,,,,,,,,,,,,,,,,,,,,,,,,,,,,,,,,,,,,,,,0,0,0,0,1,,,,,,,,,,,,,,,,,,,,,,,,,,,,,,,,,,,,,,,,,,,,,,
917194,001,2022-11-20_23h55.38.194,Info_measure_main_exp,2022.2.2,Win32,60.40106306,,,,,,,,,,,,,,,,,,masks/mask_002.jpg,,,,,,,,,,,,,,,,,,,,,,,,,,,,,,,,,,,,,,,,,,,0,1,1,1,1,,,,,,,,,,,,,,,,,,,,,,,,,,,,,,,,,,,,,,,,,,,,,,
917194,001,2022-11-20_23h55.38.194,Info_measure_main_exp,2022.2.2,Win32,60.40106306,,,,,,,,,,,,,,,,,,masks/mask_004.jpg,,,,,,,,,,,,,,,,,,,,,,,,,,,,,,,,,,,,,,,,,,,0,2,2,3,1,,,,,,,,,,,,,,,,,,,,,,,,,,,,,,,,,,,,,,,,,,,,,,
917194,001,2022-11-20_23h55.38.194,Info_measure_main_exp,2022.2.2,Win32,60.40106306,,,,,,,,,,,,,,,,,,masks/mask_003.jpg,,,,,,,,,,,,,,,,,,,,,,,,,,,,,,,,,,,,,,,,,,,0,3,3,2,1,,,,,,,,,,,,,,,,,,,,,,,,,,,,,,,,,,,,,,,,,,,,,,
917194,001,2022-11-20_23h55.38.194,Info_measure_main_exp,2022.2.2,Win32,60.40106306,,,,,,,,,,,,,,,,,,masks/mask_005.jpg,,,,,,,,,,,,,,,,,,,,,,,,,,,,,,,,,,,,,,,,,,,0,4,4,4,1,,,,,,,,,,,,,,,,,,,,,,,,,,,,,,,,,,,,,,,,,,,,,,
917194,001,2022-11-20_23h55.38.194,Info_measure_main_exp,2022.2.2,Win32,60.40106306,,,,,,,,,,,,,,,,,,masks/mask_005.jpg,,,,,,,,,,,,,,,,,,,,,,,,,,,,,,,,,,,,,,,,,,,,,,,,0,0,0,4,1,,,,,,,,,,,,,,,,,,,,,,,,,,,,,,,,,,,,,,,,,
917194,001,2022-11-20_23h55.38.194,Info_measure_main_exp,2022.2.2,Win32,60.40106306,,,,,,,,,,,,,,,,,,masks/mask_001.jpg,,,,,,,,,,,,,,,,,,,,,,,,,,,,,,,,,,,,,,,,,,,,,,,,0,1,1,0,1,,,,,,,,,,,,,,,,,,,,,,,,,,,,,,,,,,,,,,,,,
917194,001,2022-11-20_23h55.38.194,Info_measure_main_exp,2022.2.2,Win32,60.40106306,,,,,,,,,,,,,,,,,,masks/mask_004.jpg,,,,,,,,,,,,,,,,,,,,,,,,,,,,,,,,,,,,,,,,,,,,,,,,0,2,2,3,1,,,,,,,,,,,,,,,,,,,,,,,,,,,,,,,,,,,,,,,,,
917194,001,2022-11-20_23h55.38.194,Info_measure_main_exp,2022.2.2,Win32,60.40106306,,,,,,,,,,,,,,,,,,masks/mask_002.jpg,,,,,,,,,,,,,,,,,,,,,,,,,,,,,,,,,,,,,,,,,,,,,,,,0,3,3,1,1,,,,,,,,,,,,,,,,,,,,,,,,,,,,,,,,,,,,,,,,,
917194,001,2022-11-20_23h55.38.194,Info_measure_main_exp,2022.2.2,Win32,60.40106306,,,,,,,,,,,,,,,,,,masks/mask_003.jpg,,,,,,,,,,,,,,,,,,,,,,,,,,,,,,,,,,,,,,,,,,,,,,,,0,4,4,2,1,,,,,,,,,,,,,,,,,,,,,,,,,,,,,,,,,,,,,,,,,
917194,001,2022-11-20_23h55.38.194,Info_measure_main_exp,2022.2.2,Win32,60.40106306,,,,,,,,,,,,,,,,,,,,,,,,,,,,,,2,2.5312,1,,,,,,,,,,,,0,131,5,5,2166,2154,absent_patch/patch0002166.jpg,absent_patch/patch0002154.jpg,,,,,,,,,,,,,,,,,,,,-0.092592593,-0.041666667,1,0,0,response5disk,27,0.002777806,-0.006481489,1,0,0,center_square,0,26,26,79,1,,,,,,,,,,,,,,,,,,,,,,,
917194,001,2022-11-20_23h55.38.194,Info_measure_main_exp,2022.2.2,Win32,60.40106306,,,,,,,,,,,,,,,,,,masks/mask_005.jpg,,,,,,,,,,,,,,,,,,,,,,,,,,,,,,,,,,,,,,,,,,,0,0,0,4,1,,,,,,,,,,,,,,,,,,,,,,,,,,,,,,,,,,,,,,,,,,,,,,
917194,001,2022-11-20_23h55.38.194,Info_measure_main_exp,2022.2.2,Win32,60.40106306,,,,,,,,,,,,,,,,,,masks/mask_001.jpg,,,,,,,,,,,,,,,,,,,,,,,,,,,,,,,,,,,,,,,,,,,0,1,1,0,1,,,,,,,,,,,,,,,,,,,,,,,,,,,,,,,,,,,,,,,,,,,,,,
917194,001,2022-11-20_23h55.38.194,Info_measure_main_exp,2022.2.2,Win32,60.40106306,,,,,,,,,,,,,,,,,,masks/mask_003.jpg,,,,,,,,,,,,,,,,,,,,,,,,,,,,,,,,,,,,,,,,,,,0,2,2,2,1,,,,,,,,,,,,,,,,,,,,,,,,,,,,,,,,,,,,,,,,,,,,,,
917194,001,2022-11-20_23h55.38.194,Info_measure_main_exp,2022.2.2,Win32,60.40106306,,,,,,,,,,,,,,,,,,masks/mask_004.jpg,,,,,,,,,,,,,,,,,,,,,,,,,,,,,,,,,,,,,,,,,,,0,3,3,3,1,,,,,,,,,,,,,,,,,,,,,,,,,,,,,,,,,,,,,,,,,,,,,,
917194,001,2022-11-20_23h55.38.194,Info_measure_main_exp,2022.2.2,Win32,60.40106306,,,,,,,,,,,,,,,,,,masks/mask_002.jpg,,,,,,,,,,,,,,,,,,,,,,,,,,,,,,,,,,,,,,,,,,,0,4,4,1,1,,,,,,,,,,,,,,,,,,,,,,,,,,,,,,,,,,,,,,,,,,,,,,
917194,001,2022-11-20_23h55.38.194,Info_measure_main_exp,2022.2.2,Win32,60.40106306,,,,,,,,,,,,,,,,,,masks/mask_003.jpg,,,,,,,,,,,,,,,,,,,,,,,,,,,,,,,,,,,,,,,,,,,,,,,,0,0,0,2,1,,,,,,,,,,,,,,,,,,,,,,,,,,,,,,,,,,,,,,,,,
917194,001,2022-11-20_23h55.38.194,Info_measure_main_exp,2022.2.2,Win32,60.40106306,,,,,,,,,,,,,,,,,,masks/mask_001.jpg,,,,,,,,,,,,,,,,,,,,,,,,,,,,,,,,,,,,,,,,,,,,,,,,0,1,1,0,1,,,,,,,,,,,,,,,,,,,,,,,,,,,,,,,,,,,,,,,,,
917194,001,2022-11-20_23h55.38.194,Info_measure_main_exp,2022.2.2,Win32,60.40106306,,,,,,,,,,,,,,,,,,masks/mask_005.jpg,,,,,,,,,,,,,,,,,,,,,,,,,,,,,,,,,,,,,,,,,,,,,,,,0,2,2,4,1,,,,,,,,,,,,,,,,,,,,,,,,,,,,,,,,,,,,,,,,,
917194,001,2022-11-20_23h55.38.194,Info_measure_main_exp,2022.2.2,Win32,60.40106306,,,,,,,,,,,,,,,,,,masks/mask_004.jpg,,,,,,,,,,,,,,,,,,,,,,,,,,,,,,,,,,,,,,,,,,,,,,,,0,3,3,3,1,,,,,,,,,,,,,,,,,,,,,,,,,,,,,,,,,,,,,,,,,
917194,001,2022-11-20_23h55.38.194,Info_measure_main_exp,2022.2.2,Win32,60.40106306,,,,,,,,,,,,,,,,,,masks/mask_002.jpg,,,,,,,,,,,,,,,,,,,,,,,,,,,,,,,,,,,,,,,,,,,,,,,,0,4,4,1,1,,,,,,,,,,,,,,,,,,,,,,,,,,,,,,,,,,,,,,,,,
917194,001,2022-11-20_23h55.38.194,Info_measure_main_exp,2022.2.2,Win32,60.40106306,,,,,,,,,,,,,,,,,,,,,,,,,,,,,,7,1.4827,1,,,,,,,,,,,,0,131,5,5,2178,1986,absent_patch/patch0002178.jpg,absent_patch/patch0001986.jpg,,,,,,,,,,,,,,,,,,,,0.044444473,0.177777785,1,0,0,response1disk,28,0.00462963,-0.00462963,1,0,0,center_square,0,27,27,46,1,,,,,,,,,,,,,,,,,,,,,,,
917194,001,2022-11-20_23h55.38.194,Info_measure_main_exp,2022.2.2,Win32,60.40106306,,,,,,,,,,,,,,,,,,masks/mask_004.jpg,,,,,,,,,,,,,,,,,,,,,,,,,,,,,,,,,,,,,,,,,,,0,0,0,3,1,,,,,,,,,,,,,,,,,,,,,,,,,,,,,,,,,,,,,,,,,,,,,,
917194,001,2022-11-20_23h55.38.194,Info_measure_main_exp,2022.2.2,Win32,60.40106306,,,,,,,,,,,,,,,,,,masks/mask_005.jpg,,,,,,,,,,,,,,,,,,,,,,,,,,,,,,,,,,,,,,,,,,,0,1,1,4,1,,,,,,,,,,,,,,,,,,,,,,,,,,,,,,,,,,,,,,,,,,,,,,
917194,001,2022-11-20_23h55.38.194,Info_measure_main_exp,2022.2.2,Win32,60.40106306,,,,,,,,,,,,,,,,,,masks/mask_003.jpg,,,,,,,,,,,,,,,,,,,,,,,,,,,,,,,,,,,,,,,,,,,0,2,2,2,1,,,,,,,,,,,,,,,,,,,,,,,,,,,,,,,,,,,,,,,,,,,,,,
917194,001,2022-11-20_23h55.38.194,Info_measure_main_exp,2022.2.2,Win32,60.40106306,,,,,,,,,,,,,,,,,,masks/mask_002.jpg,,,,,,,,,,,,,,,,,,,,,,,,,,,,,,,,,,,,,,,,,,,0,3,3,1,1,,,,,,,,,,,,,,,,,,,,,,,,,,,,,,,,,,,,,,,,,,,,,,
917194,001,2022-11-20_23h55.38.194,Info_measure_main_exp,2022.2.2,Win32,60.40106306,,,,,,,,,,,,,,,,,,masks/mask_001.jpg,,,,,,,,,,,,,,,,,,,,,,,,,,,,,,,,,,,,,,,,,,,0,4,4,0,1,,,,,,,,,,,,,,,,,,,,,,,,,,,,,,,,,,,,,,,,,,,,,,
917194,001,2022-11-20_23h55.38.194,Info_measure_main_exp,2022.2.2,Win32,60.40106306,,,,,,,,,,,,,,,,,,masks/mask_001.jpg,,,,,,,,,,,,,,,,,,,,,,,,,,,,,,,,,,,,,,,,,,,,,,,,0,0,0,0,1,,,,,,,,,,,,,,,,,,,,,,,,,,,,,,,,,,,,,,,,,
917194,001,2022-11-20_23h55.38.194,Info_measure_main_exp,2022.2.2,Win32,60.40106306,,,,,,,,,,,,,,,,,,masks/mask_005.jpg,,,,,,,,,,,,,,,,,,,,,,,,,,,,,,,,,,,,,,,,,,,,,,,,0,1,1,4,1,,,,,,,,,,,,,,,,,,,,,,,,,,,,,,,,,,,,,,,,,
917194,001,2022-11-20_23h55.38.194,Info_measure_main_exp,2022.2.2,Win32,60.40106306,,,,,,,,,,,,,,,,,,masks/mask_002.jpg,,,,,,,,,,,,,,,,,,,,,,,,,,,,,,,,,,,,,,,,,,,,,,,,0,2,2,1,1,,,,,,,,,,,,,,,,,,,,,,,,,,,,,,,,,,,,,,,,,
917194,001,2022-11-20_23h55.38.194,Info_measure_main_exp,2022.2.2,Win32,60.40106306,,,,,,,,,,,,,,,,,,masks/mask_004.jpg,,,,,,,,,,,,,,,,,,,,,,,,,,,,,,,,,,,,,,,,,,,,,,,,0,3,3,3,1,,,,,,,,,,,,,,,,,,,,,,,,,,,,,,,,,,,,,,,,,
917194,001,2022-11-20_23h55.38.194,Info_measure_main_exp,2022.2.2,Win32,60.40106306,,,,,,,,,,,,,,,,,,masks/mask_003.jpg,,,,,,,,,,,,,,,,,,,,,,,,,,,,,,,,,,,,,,,,,,,,,,,,0,4,4,2,1,,,,,,,,,,,,,,,,,,,,,,,,,,,,,,,,,,,,,,,,,
917194,001,2022-11-20_23h55.38.194,Info_measure_main_exp,2022.2.2,Win32,60.40106306,,,,,,,,,,,,,,,,,,,,,,,,,,,,,,7,3.6814,1,,,,,,,,,,,,1,131,5,5,1,2214,present_patch/cong_131_5_a.jpg,absent_patch/patch0002214.jpg,,,,,,,,,,,,,,,,,,,,0.056481467,0.14907406,1,0,0,response1disk,29,-0.006481453,-0.000925947,1,0,0,center_square,0,28,28,4,1,,,,,,,,,,,,,,,,,,,,,,,
917194,001,2022-11-20_23h55.38.194,Info_measure_main_exp,2022.2.2,Win32,60.40106306,,,,,,,,,,,,,,,,,,masks/mask_004.jpg,,,,,,,,,,,,,,,,,,,,,,,,,,,,,,,,,,,,,,,,,,,0,0,0,3,1,,,,,,,,,,,,,,,,,,,,,,,,,,,,,,,,,,,,,,,,,,,,,,
917194,001,2022-11-20_23h55.38.194,Info_measure_main_exp,2022.2.2,Win32,60.40106306,,,,,,,,,,,,,,,,,,masks/mask_005.jpg,,,,,,,,,,,,,,,,,,,,,,,,,,,,,,,,,,,,,,,,,,,0,1,1,4,1,,,,,,,,,,,,,,,,,,,,,,,,,,,,,,,,,,,,,,,,,,,,,,
917194,001,2022-11-20_23h55.38.194,Info_measure_main_exp,2022.2.2,Win32,60.40106306,,,,,,,,,,,,,,,,,,masks/mask_002.jpg,,,,,,,,,,,,,,,,,,,,,,,,,,,,,,,,,,,,,,,,,,,0,2,2,1,1,,,,,,,,,,,,,,,,,,,,,,,,,,,,,,,,,,,,,,,,,,,,,,
917194,001,2022-11-20_23h55.38.194,Info_measure_main_exp,2022.2.2,Win32,60.40106306,,,,,,,,,,,,,,,,,,masks/mask_001.jpg,,,,,,,,,,,,,,,,,,,,,,,,,,,,,,,,,,,,,,,,,,,0,3,3,0,1,,,,,,,,,,,,,,,,,,,,,,,,,,,,,,,,,,,,,,,,,,,,,,
917194,001,2022-11-20_23h55.38.194,Info_measure_main_exp,2022.2.2,Win32,60.40106306,,,,,,,,,,,,,,,,,,masks/mask_003.jpg,,,,,,,,,,,,,,,,,,,,,,,,,,,,,,,,,,,,,,,,,,,0,4,4,2,1,,,,,,,,,,,,,,,,,,,,,,,,,,,,,,,,,,,,,,,,,,,,,,
917194,001,2022-11-20_23h55.38.194,Info_measure_main_exp,2022.2.2,Win32,60.40106306,,,,,,,,,,,,,,,,,,masks/mask_002.jpg,,,,,,,,,,,,,,,,,,,,,,,,,,,,,,,,,,,,,,,,,,,,,,,,0,0,0,1,1,,,,,,,,,,,,,,,,,,,,,,,,,,,,,,,,,,,,,,,,,
917194,001,2022-11-20_23h55.38.194,Info_measure_main_exp,2022.2.2,Win32,60.40106306,,,,,,,,,,,,,,,,,,masks/mask_001.jpg,,,,,,,,,,,,,,,,,,,,,,,,,,,,,,,,,,,,,,,,,,,,,,,,0,1,1,0,1,,,,,,,,,,,,,,,,,,,,,,,,,,,,,,,,,,,,,,,,,
917194,001,2022-11-20_23h55.38.194,Info_measure_main_exp,2022.2.2,Win32,60.40106306,,,,,,,,,,,,,,,,,,masks/mask_003.jpg,,,,,,,,,,,,,,,,,,,,,,,,,,,,,,,,,,,,,,,,,,,,,,,,0,2,2,2,1,,,,,,,,,,,,,,,,,,,,,,,,,,,,,,,,,,,,,,,,,
917194,001,2022-11-20_23h55.38.194,Info_measure_main_exp,2022.2.2,Win32,60.40106306,,,,,,,,,,,,,,,,,,masks/mask_004.jpg,,,,,,,,,,,,,,,,,,,,,,,,,,,,,,,,,,,,,,,,,,,,,,,,0,3,3,3,1,,,,,,,,,,,,,,,,,,,,,,,,,,,,,,,,,,,,,,,,,
917194,001,2022-11-20_23h55.38.194,Info_measure_main_exp,2022.2.2,Win32,60.40106306,,,,,,,,,,,,,,,,,,masks/mask_005.jpg,,,,,,,,,,,,,,,,,,,,,,,,,,,,,,,,,,,,,,,,,,,,,,,,0,4,4,4,1,,,,,,,,,,,,,,,,,,,,,,,,,,,,,,,,,,,,,,,,,
917194,001,2022-11-20_23h55.38.194,Info_measure_main_exp,2022.2.2,Win32,60.40106306,,,,,,,,,,,,,,,,,,,,,,,,,,,,,,7,1.699,1,,,,,,,,,,,,0,131,5,5,2274,1950,absent_patch/patch0002274.jpg,absent_patch/patch0001950.jpg,,,,,,,,,,,,,,,,,,,,0.079629616,0.167592578,1,0,0,response1disk,30,-0.002777735,0.005555541,1,0,0,center_square,0,29,29,10,1,,,,,,,,,,,,,,,,,,,,,,,
917194,001,2022-11-20_23h55.38.194,Info_measure_main_exp,2022.2.2,Win32,60.40106306,,,,,,,,,,,,,,,,,,masks/mask_002.jpg,,,,,,,,,,,,,,,,,,,,,,,,,,,,,,,,,,,,,,,,,,,0,0,0,1,1,,,,,,,,,,,,,,,,,,,,,,,,,,,,,,,,,,,,,,,,,,,,,,
917194,001,2022-11-20_23h55.38.194,Info_measure_main_exp,2022.2.2,Win32,60.40106306,,,,,,,,,,,,,,,,,,masks/mask_001.jpg,,,,,,,,,,,,,,,,,,,,,,,,,,,,,,,,,,,,,,,,,,,0,1,1,0,1,,,,,,,,,,,,,,,,,,,,,,,,,,,,,,,,,,,,,,,,,,,,,,
917194,001,2022-11-20_23h55.38.194,Info_measure_main_exp,2022.2.2,Win32,60.40106306,,,,,,,,,,,,,,,,,,masks/mask_005.jpg,,,,,,,,,,,,,,,,,,,,,,,,,,,,,,,,,,,,,,,,,,,0,2,2,4,1,,,,,,,,,,,,,,,,,,,,,,,,,,,,,,,,,,,,,,,,,,,,,,
917194,001,2022-11-20_23h55.38.194,Info_measure_main_exp,2022.2.2,Win32,60.40106306,,,,,,,,,,,,,,,,,,masks/mask_003.jpg,,,,,,,,,,,,,,,,,,,,,,,,,,,,,,,,,,,,,,,,,,,0,3,3,2,1,,,,,,,,,,,,,,,,,,,,,,,,,,,,,,,,,,,,,,,,,,,,,,
917194,001,2022-11-20_23h55.38.194,Info_measure_main_exp,2022.2.2,Win32,60.40106306,,,,,,,,,,,,,,,,,,masks/mask_004.jpg,,,,,,,,,,,,,,,,,,,,,,,,,,,,,,,,,,,,,,,,,,,0,4,4,3,1,,,,,,,,,,,,,,,,,,,,,,,,,,,,,,,,,,,,,,,,,,,,,,
917194,001,2022-11-20_23h55.38.194,Info_measure_main_exp,2022.2.2,Win32,60.40106306,,,,,,,,,,,,,,,,,,masks/mask_004.jpg,,,,,,,,,,,,,,,,,,,,,,,,,,,,,,,,,,,,,,,,,,,,,,,,0,0,0,3,1,,,,,,,,,,,,,,,,,,,,,,,,,,,,,,,,,,,,,,,,,
917194,001,2022-11-20_23h55.38.194,Info_measure_main_exp,2022.2.2,Win32,60.40106306,,,,,,,,,,,,,,,,,,masks/mask_005.jpg,,,,,,,,,,,,,,,,,,,,,,,,,,,,,,,,,,,,,,,,,,,,,,,,0,1,1,4,1,,,,,,,,,,,,,,,,,,,,,,,,,,,,,,,,,,,,,,,,,
917194,001,2022-11-20_23h55.38.194,Info_measure_main_exp,2022.2.2,Win32,60.40106306,,,,,,,,,,,,,,,,,,masks/mask_003.jpg,,,,,,,,,,,,,,,,,,,,,,,,,,,,,,,,,,,,,,,,,,,,,,,,0,2,2,2,1,,,,,,,,,,,,,,,,,,,,,,,,,,,,,,,,,,,,,,,,,
917194,001,2022-11-20_23h55.38.194,Info_measure_main_exp,2022.2.2,Win32,60.40106306,,,,,,,,,,,,,,,,,,masks/mask_002.jpg,,,,,,,,,,,,,,,,,,,,,,,,,,,,,,,,,,,,,,,,,,,,,,,,0,3,3,1,1,,,,,,,,,,,,,,,,,,,,,,,,,,,,,,,,,,,,,,,,,
917194,001,2022-11-20_23h55.38.194,Info_measure_main_exp,2022.2.2,Win32,60.40106306,,,,,,,,,,,,,,,,,,masks/mask_001.jpg,,,,,,,,,,,,,,,,,,,,,,,,,,,,,,,,,,,,,,,,,,,,,,,,0,4,4,0,1,,,,,,,,,,,,,,,,,,,,,,,,,,,,,,,,,,,,,,,,,
917194,001,2022-11-20_23h55.38.194,Info_measure_main_exp,2022.2.2,Win32,60.40106306,,,,,,,,,,,,,,,,,,,,,,,,,,,,,,5,1.7493,1,,,,,,,,,,,,0,131,5,5,2238,2298,absent_patch/patch0002238.jpg,absent_patch/patch0002298.jpg,,,,,,,,,,,,,,,,,,,,0.138888889,-0.041666667,1,0,0,response3disk,31,0.00462963,-0.006481489,1,0,0,center_square,0,30,30,51,1,,,,,,,,,,,,,,,,,,,,,,,
917194,001,2022-11-20_23h55.38.194,Info_measure_main_exp,2022.2.2,Win32,60.40106306,,,,,,,,,,,,,,,,,,masks/mask_005.jpg,,,,,,,,,,,,,,,,,,,,,,,,,,,,,,,,,,,,,,,,,,,0,0,0,4,1,,,,,,,,,,,,,,,,,,,,,,,,,,,,,,,,,,,,,,,,,,,,,,
917194,001,2022-11-20_23h55.38.194,Info_measure_main_exp,2022.2.2,Win32,60.40106306,,,,,,,,,,,,,,,,,,masks/mask_003.jpg,,,,,,,,,,,,,,,,,,,,,,,,,,,,,,,,,,,,,,,,,,,0,1,1,2,1,,,,,,,,,,,,,,,,,,,,,,,,,,,,,,,,,,,,,,,,,,,,,,
917194,001,2022-11-20_23h55.38.194,Info_measure_main_exp,2022.2.2,Win32,60.40106306,,,,,,,,,,,,,,,,,,masks/mask_001.jpg,,,,,,,,,,,,,,,,,,,,,,,,,,,,,,,,,,,,,,,,,,,0,2,2,0,1,,,,,,,,,,,,,,,,,,,,,,,,,,,,,,,,,,,,,,,,,,,,,,
917194,001,2022-11-20_23h55.38.194,Info_measure_main_exp,2022.2.2,Win32,60.40106306,,,,,,,,,,,,,,,,,,masks/mask_004.jpg,,,,,,,,,,,,,,,,,,,,,,,,,,,,,,,,,,,,,,,,,,,0,3,3,3,1,,,,,,,,,,,,,,,,,,,,,,,,,,,,,,,,,,,,,,,,,,,,,,
917194,001,2022-11-20_23h55.38.194,Info_measure_main_exp,2022.2.2,Win32,60.40106306,,,,,,,,,,,,,,,,,,masks/mask_002.jpg,,,,,,,,,,,,,,,,,,,,,,,,,,,,,,,,,,,,,,,,,,,0,4,4,1,1,,,,,,,,,,,,,,,,,,,,,,,,,,,,,,,,,,,,,,,,,,,,,,
917194,001,2022-11-20_23h55.38.194,Info_measure_main_exp,2022.2.2,Win32,60.40106306,,,,,,,,,,,,,,,,,,masks/mask_002.jpg,,,,,,,,,,,,,,,,,,,,,,,,,,,,,,,,,,,,,,,,,,,,,,,,0,0,0,1,1,,,,,,,,,,,,,,,,,,,,,,,,,,,,,,,,,,,,,,,,,
917194,001,2022-11-20_23h55.38.194,Info_measure_main_exp,2022.2.2,Win32,60.40106306,,,,,,,,,,,,,,,,,,masks/mask_004.jpg,,,,,,,,,,,,,,,,,,,,,,,,,,,,,,,,,,,,,,,,,,,,,,,,0,1,1,3,1,,,,,,,,,,,,,,,,,,,,,,,,,,,,,,,,,,,,,,,,,
917194,001,2022-11-20_23h55.38.194,Info_measure_main_exp,2022.2.2,Win32,60.40106306,,,,,,,,,,,,,,,,,,masks/mask_003.jpg,,,,,,,,,,,,,,,,,,,,,,,,,,,,,,,,,,,,,,,,,,,,,,,,0,2,2,2,1,,,,,,,,,,,,,,,,,,,,,,,,,,,,,,,,,,,,,,,,,
917194,001,2022-11-20_23h55.38.194,Info_measure_main_exp,2022.2.2,Win32,60.40106306,,,,,,,,,,,,,,,,,,masks/mask_001.jpg,,,,,,,,,,,,,,,,,,,,,,,,,,,,,,,,,,,,,,,,,,,,,,,,0,3,3,0,1,,,,,,,,,,,,,,,,,,,,,,,,,,,,,,,,,,,,,,,,,
917194,001,2022-11-20_23h55.38.194,Info_measure_main_exp,2022.2.2,Win32,60.40106306,,,,,,,,,,,,,,,,,,masks/mask_005.jpg,,,,,,,,,,,,,,,,,,,,,,,,,,,,,,,,,,,,,,,,,,,,,,,,0,4,4,4,1,,,,,,,,,,,,,,,,,,,,,,,,,,,,,,,,,,,,,,,,,
917194,001,2022-11-20_23h55.38.194,Info_measure_main_exp,2022.2.2,Win32,60.40106306,,,,,,,,,,,,,,,,,,,,,,,,,,,,,,7,1.5831,1,,,,,,,,,,,,0,131,5,5,2190,2250,absent_patch/patch0002190.jpg,absent_patch/patch0002250.jpg,,,,,,,,,,,,,,,,,,,,0.025925954,0.111111111,1,0,0,response1disk,32,0.001851894,0.006481489,1,0,0,center_square,0,31,31,93,1,,,,,,,,,,,,,,,,,,,,,,,
917194,001,2022-11-20_23h55.38.194,Info_measure_main_exp,2022.2.2,Win32,60.40106306,,,,,,,,,,,,,,,,,,masks/mask_002.jpg,,,,,,,,,,,,,,,,,,,,,,,,,,,,,,,,,,,,,,,,,,,0,0,0,1,1,,,,,,,,,,,,,,,,,,,,,,,,,,,,,,,,,,,,,,,,,,,,,,
917194,001,2022-11-20_23h55.38.194,Info_measure_main_exp,2022.2.2,Win32,60.40106306,,,,,,,,,,,,,,,,,,masks/mask_001.jpg,,,,,,,,,,,,,,,,,,,,,,,,,,,,,,,,,,,,,,,,,,,0,1,1,0,1,,,,,,,,,,,,,,,,,,,,,,,,,,,,,,,,,,,,,,,,,,,,,,
917194,001,2022-11-20_23h55.38.194,Info_measure_main_exp,2022.2.2,Win32,60.40106306,,,,,,,,,,,,,,,,,,masks/mask_003.jpg,,,,,,,,,,,,,,,,,,,,,,,,,,,,,,,,,,,,,,,,,,,0,2,2,2,1,,,,,,,,,,,,,,,,,,,,,,,,,,,,,,,,,,,,,,,,,,,,,,
917194,001,2022-11-20_23h55.38.194,Info_measure_main_exp,2022.2.2,Win32,60.40106306,,,,,,,,,,,,,,,,,,masks/mask_005.jpg,,,,,,,,,,,,,,,,,,,,,,,,,,,,,,,,,,,,,,,,,,,0,3,3,4,1,,,,,,,,,,,,,,,,,,,,,,,,,,,,,,,,,,,,,,,,,,,,,,
917194,001,2022-11-20_23h55.38.194,Info_measure_main_exp,2022.2.2,Win32,60.40106306,,,,,,,,,,,,,,,,,,masks/mask_004.jpg,,,,,,,,,,,,,,,,,,,,,,,,,,,,,,,,,,,,,,,,,,,0,4,4,3,1,,,,,,,,,,,,,,,,,,,,,,,,,,,,,,,,,,,,,,,,,,,,,,
917194,001,2022-11-20_23h55.38.194,Info_measure_main_exp,2022.2.2,Win32,60.40106306,,,,,,,,,,,,,,,,,,masks/mask_003.jpg,,,,,,,,,,,,,,,,,,,,,,,,,,,,,,,,,,,,,,,,,,,,,,,,0,0,0,2,1,,,,,,,,,,,,,,,,,,,,,,,,,,,,,,,,,,,,,,,,,
917194,001,2022-11-20_23h55.38.194,Info_measure_main_exp,2022.2.2,Win32,60.40106306,,,,,,,,,,,,,,,,,,masks/mask_004.jpg,,,,,,,,,,,,,,,,,,,,,,,,,,,,,,,,,,,,,,,,,,,,,,,,0,1,1,3,1,,,,,,,,,,,,,,,,,,,,,,,,,,,,,,,,,,,,,,,,,
917194,001,2022-11-20_23h55.38.194,Info_measure_main_exp,2022.2.2,Win32,60.40106306,,,,,,,,,,,,,,,,,,masks/mask_001.jpg,,,,,,,,,,,,,,,,,,,,,,,,,,,,,,,,,,,,,,,,,,,,,,,,0,2,2,0,1,,,,,,,,,,,,,,,,,,,,,,,,,,,,,,,,,,,,,,,,,
917194,001,2022-11-20_23h55.38.194,Info_measure_main_exp,2022.2.2,Win32,60.40106306,,,,,,,,,,,,,,,,,,masks/mask_002.jpg,,,,,,,,,,,,,,,,,,,,,,,,,,,,,,,,,,,,,,,,,,,,,,,,0,3,3,1,1,,,,,,,,,,,,,,,,,,,,,,,,,,,,,,,,,,,,,,,,,
917194,001,2022-11-20_23h55.38.194,Info_measure_main_exp,2022.2.2,Win32,60.40106306,,,,,,,,,,,,,,,,,,masks/mask_005.jpg,,,,,,,,,,,,,,,,,,,,,,,,,,,,,,,,,,,,,,,,,,,,,,,,0,4,4,4,1,,,,,,,,,,,,,,,,,,,,,,,,,,,,,,,,,,,,,,,,,
917194,001,2022-11-20_23h55.38.194,Info_measure_main_exp,2022.2.2,Win32,60.40106306,,,,,,,,,,,,,,,,,,,,,,,,,,,,,,7,1.9823,1,,,,,,,,,,,,0,131,5,5,2178,2166,absent_patch/patch0002178.jpg,absent_patch/patch0002166.jpg,,,,,,,,,,,,,,,,,,,,0.109259288,0.182407414,1,0,0,response1disk,33,0.002777806,0.0074074,1,0,0,center_square,0,32,32,72,1,,,,,,,,,,,,,,,,,,,,,,,
917194,001,2022-11-20_23h55.38.194,Info_measure_main_exp,2022.2.2,Win32,60.40106306,,,,,,,,,,,,,,,,,,masks/mask_004.jpg,,,,,,,,,,,,,,,,,,,,,,,,,,,,,,,,,,,,,,,,,,,0,0,0,3,1,,,,,,,,,,,,,,,,,,,,,,,,,,,,,,,,,,,,,,,,,,,,,,
917194,001,2022-11-20_23h55.38.194,Info_measure_main_exp,2022.2.2,Win32,60.40106306,,,,,,,,,,,,,,,,,,masks/mask_001.jpg,,,,,,,,,,,,,,,,,,,,,,,,,,,,,,,,,,,,,,,,,,,0,1,1,0,1,,,,,,,,,,,,,,,,,,,,,,,,,,,,,,,,,,,,,,,,,,,,,,
917194,001,2022-11-20_23h55.38.194,Info_measure_main_exp,2022.2.2,Win32,60.40106306,,,,,,,,,,,,,,,,,,masks/mask_003.jpg,,,,,,,,,,,,,,,,,,,,,,,,,,,,,,,,,,,,,,,,,,,0,2,2,2,1,,,,,,,,,,,,,,,,,,,,,,,,,,,,,,,,,,,,,,,,,,,,,,
917194,001,2022-11-20_23h55.38.194,Info_measure_main_exp,2022.2.2,Win32,60.40106306,,,,,,,,,,,,,,,,,,masks/mask_005.jpg,,,,,,,,,,,,,,,,,,,,,,,,,,,,,,,,,,,,,,,,,,,0,3,3,4,1,,,,,,,,,,,,,,,,,,,,,,,,,,,,,,,,,,,,,,,,,,,,,,
917194,001,2022-11-20_23h55.38.194,Info_measure_main_exp,2022.2.2,Win32,60.40106306,,,,,,,,,,,,,,,,,,masks/mask_002.jpg,,,,,,,,,,,,,,,,,,,,,,,,,,,,,,,,,,,,,,,,,,,0,4,4,1,1,,,,,,,,,,,,,,,,,,,,,,,,,,,,,,,,,,,,,,,,,,,,,,
917194,001,2022-11-20_23h55.38.194,Info_measure_main_exp,2022.2.2,Win32,60.40106306,,,,,,,,,,,,,,,,,,masks/mask_001.jpg,,,,,,,,,,,,,,,,,,,,,,,,,,,,,,,,,,,,,,,,,,,,,,,,0,0,0,0,1,,,,,,,,,,,,,,,,,,,,,,,,,,,,,,,,,,,,,,,,,
917194,001,2022-11-20_23h55.38.194,Info_measure_main_exp,2022.2.2,Win32,60.40106306,,,,,,,,,,,,,,,,,,masks/mask_003.jpg,,,,,,,,,,,,,,,,,,,,,,,,,,,,,,,,,,,,,,,,,,,,,,,,0,1,1,2,1,,,,,,,,,,,,,,,,,,,,,,,,,,,,,,,,,,,,,,,,,
917194,001,2022-11-20_23h55.38.194,Info_measure_main_exp,2022.2.2,Win32,60.40106306,,,,,,,,,,,,,,,,,,masks/mask_005.jpg,,,,,,,,,,,,,,,,,,,,,,,,,,,,,,,,,,,,,,,,,,,,,,,,0,2,2,4,1,,,,,,,,,,,,,,,,,,,,,,,,,,,,,,,,,,,,,,,,,
917194,001,2022-11-20_23h55.38.194,Info_measure_main_exp,2022.2.2,Win32,60.40106306,,,,,,,,,,,,,,,,,,masks/mask_002.jpg,,,,,,,,,,,,,,,,,,,,,,,,,,,,,,,,,,,,,,,,,,,,,,,,0,3,3,1,1,,,,,,,,,,,,,,,,,,,,,,,,,,,,,,,,,,,,,,,,,
917194,001,2022-11-20_23h55.38.194,Info_measure_main_exp,2022.2.2,Win32,60.40106306,,,,,,,,,,,,,,,,,,masks/mask_004.jpg,,,,,,,,,,,,,,,,,,,,,,,,,,,,,,,,,,,,,,,,,,,,,,,,0,4,4,3,1,,,,,,,,,,,,,,,,,,,,,,,,,,,,,,,,,,,,,,,,,
917194,001,2022-11-20_23h55.38.194,Info_measure_main_exp,2022.2.2,Win32,60.40106306,,,,,,,,,,,,,,,,,,,,,,,,,,,,,,6,2.1481,1,,,,,,,,,,,,0,131,5,5,2166,1986,absent_patch/patch0002166.jpg,absent_patch/patch0001986.jpg,,,,,,,,,,,,,,,,,,,,0.179629644,0.084259245,1,0,0,response1disk,34,-0.007407365,-0.00462963,1,0,0,center_square,0,33,33,47,1,,,,,,,,,,,,,,,,,,,,,,,
917194,001,2022-11-20_23h55.38.194,Info_measure_main_exp,2022.2.2,Win32,60.40106306,,,,,,,,,,,,,,,,,,masks/mask_004.jpg,,,,,,,,,,,,,,,,,,,,,,,,,,,,,,,,,,,,,,,,,,,0,0,0,3,1,,,,,,,,,,,,,,,,,,,,,,,,,,,,,,,,,,,,,,,,,,,,,,
917194,001,2022-11-20_23h55.38.194,Info_measure_main_exp,2022.2.2,Win32,60.40106306,,,,,,,,,,,,,,,,,,masks/mask_002.jpg,,,,,,,,,,,,,,,,,,,,,,,,,,,,,,,,,,,,,,,,,,,0,1,1,1,1,,,,,,,,,,,,,,,,,,,,,,,,,,,,,,,,,,,,,,,,,,,,,,
917194,001,2022-11-20_23h55.38.194,Info_measure_main_exp,2022.2.2,Win32,60.40106306,,,,,,,,,,,,,,,,,,masks/mask_003.jpg,,,,,,,,,,,,,,,,,,,,,,,,,,,,,,,,,,,,,,,,,,,0,2,2,2,1,,,,,,,,,,,,,,,,,,,,,,,,,,,,,,,,,,,,,,,,,,,,,,
917194,001,2022-11-20_23h55.38.194,Info_measure_main_exp,2022.2.2,Win32,60.40106306,,,,,,,,,,,,,,,,,,masks/mask_001.jpg,,,,,,,,,,,,,,,,,,,,,,,,,,,,,,,,,,,,,,,,,,,0,3,3,0,1,,,,,,,,,,,,,,,,,,,,,,,,,,,,,,,,,,,,,,,,,,,,,,
917194,001,2022-11-20_23h55.38.194,Info_measure_main_exp,2022.2.2,Win32,60.40106306,,,,,,,,,,,,,,,,,,masks/mask_005.jpg,,,,,,,,,,,,,,,,,,,,,,,,,,,,,,,,,,,,,,,,,,,0,4,4,4,1,,,,,,,,,,,,,,,,,,,,,,,,,,,,,,,,,,,,,,,,,,,,,,
917194,001,2022-11-20_23h55.38.194,Info_measure_main_exp,2022.2.2,Win32,60.40106306,,,,,,,,,,,,,,,,,,masks/mask_005.jpg,,,,,,,,,,,,,,,,,,,,,,,,,,,,,,,,,,,,,,,,,,,,,,,,0,0,0,4,1,,,,,,,,,,,,,,,,,,,,,,,,,,,,,,,,,,,,,,,,,
917194,001,2022-11-20_23h55.38.194,Info_measure_main_exp,2022.2.2,Win32,60.40106306,,,,,,,,,,,,,,,,,,masks/mask_004.jpg,,,,,,,,,,,,,,,,,,,,,,,,,,,,,,,,,,,,,,,,,,,,,,,,0,1,1,3,1,,,,,,,,,,,,,,,,,,,,,,,,,,,,,,,,,,,,,,,,,
917194,001,2022-11-20_23h55.38.194,Info_measure_main_exp,2022.2.2,Win32,60.40106306,,,,,,,,,,,,,,,,,,masks/mask_003.jpg,,,,,,,,,,,,,,,,,,,,,,,,,,,,,,,,,,,,,,,,,,,,,,,,0,2,2,2,1,,,,,,,,,,,,,,,,,,,,,,,,,,,,,,,,,,,,,,,,,
917194,001,2022-11-20_23h55.38.194,Info_measure_main_exp,2022.2.2,Win32,60.40106306,,,,,,,,,,,,,,,,,,masks/mask_001.jpg,,,,,,,,,,,,,,,,,,,,,,,,,,,,,,,,,,,,,,,,,,,,,,,,0,3,3,0,1,,,,,,,,,,,,,,,,,,,,,,,,,,,,,,,,,,,,,,,,,
