participant,session,date,expName,psychopyVersion,OS,frameRate,space_press_continue.keys,space_press_continue.rt,space_press_continue_2.keys,space_press_continue_2.rt,space_press_continue_3.keys,space_press_continue_3.rt,space_press_continue_4.keys,space_press_continue_4.rt,space_press_continue_5.keys,space_press_continue_5.rt,space_press_continue_6.keys,space_press_continue_6.rt,prac_mask_loop_1.thisRepN,prac_mask_loop_1.thisTrialN,prac_mask_loop_1.thisN,prac_mask_loop_1.thisIndex,prac_mask_loop_1.ran,mask_name,prac_mask_loop_2.thisRepN,prac_mask_loop_2.thisTrialN,prac_mask_loop_2.thisN,prac_mask_loop_2.thisIndex,prac_mask_loop_2.ran,mouse_2.x,mouse_2.y,mouse_2.leftButton,mouse_2.midButton,mouse_2.rightButton,mouse_2.clicked_name,similarity,response_time,Pass,mouse_12.x,mouse_12.y,mouse_12.leftButton,mouse_12.midButton,mouse_12.rightButton,mouse_12.clicked_name,prac_loop.thisRepN,prac_loop.thisTrialN,prac_loop.thisN,prac_loop.thisIndex,prac_loop.ran,Pair_type,Image_num,Patch_1_loc,Patch_2_loc,Patch_1_info,Patch_2_info,Patch_1_name,Patch_2_name,mouse_1.x,mouse_1.y,mouse_1.leftButton,mouse_1.midButton,mouse_1.rightButton,mouse_1.time,mouse_1.clicked_name,space_press_continue_7.keys,space_press_continue_7.rt,mask_loop.thisRepN,mask_loop.thisTrialN,mask_loop.thisN,mask_loop.thisIndex,mask_loop.ran,mask_loop_2.thisRepN,mask_loop_2.thisTrialN,mask_loop_2.thisN,mask_loop_2.thisIndex,mask_loop_2.ran,mouse.x,mouse.y,mouse.leftButton,mouse.midButton,mouse.rightButton,mouse.clicked_name,trialNumber,mouse_11.x,mouse_11.y,mouse_11.leftButton,mouse_11.midButton,mouse_11.rightButton,mouse_11.clicked_name,first_pass_loop.thisRepN,first_pass_loop.thisTrialN,first_pass_loop.thisN,first_pass_loop.thisIndex,first_pass_loop.ran,mask_loop_3.thisRepN,mask_loop_3.thisTrialN,mask_loop_3.thisN,mask_loop_3.thisIndex,mask_loop_3.ran,mask_loop_4.thisRepN,mask_loop_4.thisTrialN,mask_loop_4.thisN,mask_loop_4.thisIndex,mask_loop_4.ran,mouse_3.x,mouse_3.y,mouse_3.leftButton,mouse_3.midButton,mouse_3.rightButton,mouse_3.clicked_name,double_pass_loop.thisRepN,double_pass_loop.thisTrialN,double_pass_loop.thisN,double_pass_loop.thisIndex,double_pass_loop.ran,space_exit.keys,space_exit.rt
917641,001,2022-11-20_16h28.57.248,Info_measure_main_exp,2022.2.2,Win32,59.62318149,,,,,,,,,,,,,,,,,,,,,,,,,,,,,,,,,,,,,,,,,,,,,,,,,,,,,,,,,,,,,,,,,,,,,,,,,,,,,,,,,,,,,,,,,,,,,,,,,,,,,,,,,,,,,,,
917641,001,2022-11-20_16h28.57.248,Info_measure_main_exp,2022.2.2,Win32,59.62318149,,,,,,,,,,,,,,,,,,,,,,,,,,,,,,,,,,,,,,,,,,,,,,,,,,,,,,,,,,,,,,,,,,,,,,,,,,,,,,,,,,,,,,,,,,,,,,,,,,,,,,,,,,,,,,,
917641,001,2022-11-20_16h28.57.248,Info_measure_main_exp,2022.2.2,Win32,59.62318149,space,10.2702,,,,,,,,,,,,,,,,,,,,,,,,,,,,,,,,,,,,,,,,,,,,,,,,,,,,,,,,,,,,,,,,,,,,,,,,,,,,,,,,,,,,,,,,,,,,,,,,,,,,,,,,,,,,,
917641,001,2022-11-20_16h28.57.248,Info_measure_main_exp,2022.2.2,Win32,59.62318149,,,space,17.8067,,,,,,,,,,,,,,,,,,,,,,,,,,,,,,,,,,,,,,,,,,,,,,,,,,,,,,,,,,,,,,,,,,,,,,,,,,,,,,,,,,,,,,,,,,,,,,,,,,,,,,,,,,,
917641,001,2022-11-20_16h28.57.248,Info_measure_main_exp,2022.2.2,Win32,59.62318149,,,,,space,9.7677,,,,,,,,,,,,,,,,,,,,,,,,,,,,,,,,,,,,,,,,,,,,,,,,,,,,,,,,,,,,,,,,,,,,,,,,,,,,,,,,,,,,,,,,,,,,,,,,,,,,,,,,,
917641,001,2022-11-20_16h28.57.248,Info_measure_main_exp,2022.2.2,Win32,59.62318149,,,,,,,space,50.9035,,,,,,,,,,,,,,,,,,,,,,,,,,,,,,,,,,,,,,,,,,,,,,,,,,,,,,,,,,,,,,,,,,,,,,,,,,,,,,,,,,,,,,,,,,,,,,,,,,,,,,,
917641,001,2022-11-20_16h28.57.248,Info_measure_main_exp,2022.2.2,Win32,59.62318149,,,,,,,,,space,6.2318,,,,,,,,,,,,,,,,,,,,,,,,,,,,,,,,,,,,,,,,,,,,,,,,,,,,,,,,,,,,,,,,,,,,,,,,,,,,,,,,,,,,,,,,,,,,,,,,,,,,,
917641,001,2022-11-20_16h28.57.248,Info_measure_main_exp,2022.2.2,Win32,59.62318149,,,,,,,,,,,space,3.652,,,,,,,,,,,,,,,,,,,,,,,,,,,,,,,,,,,,,,,,,,,,,,,,,,,,,,,,,,,,,,,,,,,,,,,,,,,,,,,,,,,,,,,,,,,,,,,,,,,
917641,001,2022-11-20_16h28.57.248,Info_measure_main_exp,2022.2.2,Win32,59.62318149,,,,,,,,,,,,,0,0,0,0,1,masks/mask_001.jpg,,,,,,,,,,,,,,,,,,,,,,,,,,,,,,,,,,,,,,,,,,,,,,,,,,,,,,,,,,,,,,,,,,,,,,,,,,,,,,,,,,,,,,,,,,,,,
917641,001,2022-11-20_16h28.57.248,Info_measure_main_exp,2022.2.2,Win32,59.62318149,,,,,,,,,,,,,0,1,1,1,1,masks/mask_002.jpg,,,,,,,,,,,,,,,,,,,,,,,,,,,,,,,,,,,,,,,,,,,,,,,,,,,,,,,,,,,,,,,,,,,,,,,,,,,,,,,,,,,,,,,,,,,,,
917641,001,2022-11-20_16h28.57.248,Info_measure_main_exp,2022.2.2,Win32,59.62318149,,,,,,,,,,,,,0,2,2,4,1,masks/mask_005.jpg,,,,,,,,,,,,,,,,,,,,,,,,,,,,,,,,,,,,,,,,,,,,,,,,,,,,,,,,,,,,,,,,,,,,,,,,,,,,,,,,,,,,,,,,,,,,,
917641,001,2022-11-20_16h28.57.248,Info_measure_main_exp,2022.2.2,Win32,59.62318149,,,,,,,,,,,,,0,3,3,3,1,masks/mask_004.jpg,,,,,,,,,,,,,,,,,,,,,,,,,,,,,,,,,,,,,,,,,,,,,,,,,,,,,,,,,,,,,,,,,,,,,,,,,,,,,,,,,,,,,,,,,,,,,
917641,001,2022-11-20_16h28.57.248,Info_measure_main_exp,2022.2.2,Win32,59.62318149,,,,,,,,,,,,,0,4,4,2,1,masks/mask_003.jpg,,,,,,,,,,,,,,,,,,,,,,,,,,,,,,,,,,,,,,,,,,,,,,,,,,,,,,,,,,,,,,,,,,,,,,,,,,,,,,,,,,,,,,,,,,,,,
917641,001,2022-11-20_16h28.57.248,Info_measure_main_exp,2022.2.2,Win32,59.62318149,,,,,,,,,,,,,,,,,,masks/mask_005.jpg,0,0,0,4,1,,,,,,,,,,,,,,,,,,,,,,,,,,,,,,,,,,,,,,,,,,,,,,,,,,,,,,,,,,,,,,,,,,,,,,,,,,,,,,,,,,,,,,,,
917641,001,2022-11-20_16h28.57.248,Info_measure_main_exp,2022.2.2,Win32,59.62318149,,,,,,,,,,,,,,,,,,masks/mask_002.jpg,0,1,1,1,1,,,,,,,,,,,,,,,,,,,,,,,,,,,,,,,,,,,,,,,,,,,,,,,,,,,,,,,,,,,,,,,,,,,,,,,,,,,,,,,,,,,,,,,,
917641,001,2022-11-20_16h28.57.248,Info_measure_main_exp,2022.2.2,Win32,59.62318149,,,,,,,,,,,,,,,,,,masks/mask_003.jpg,0,2,2,2,1,,,,,,,,,,,,,,,,,,,,,,,,,,,,,,,,,,,,,,,,,,,,,,,,,,,,,,,,,,,,,,,,,,,,,,,,,,,,,,,,,,,,,,,,
917641,001,2022-11-20_16h28.57.248,Info_measure_main_exp,2022.2.2,Win32,59.62318149,,,,,,,,,,,,,,,,,,masks/mask_004.jpg,0,3,3,3,1,,,,,,,,,,,,,,,,,,,,,,,,,,,,,,,,,,,,,,,,,,,,,,,,,,,,,,,,,,,,,,,,,,,,,,,,,,,,,,,,,,,,,,,,
917641,001,2022-11-20_16h28.57.248,Info_measure_main_exp,2022.2.2,Win32,59.62318149,,,,,,,,,,,,,,,,,,masks/mask_001.jpg,0,4,4,0,1,,,,,,,,,,,,,,,,,,,,,,,,,,,,,,,,,,,,,,,,,,,,,,,,,,,,,,,,,,,,,,,,,,,,,,,,,,,,,,,,,,,,,,,,
917641,001,2022-11-20_16h28.57.248,Info_measure_main_exp,2022.2.2,Win32,59.62318149,,,,,,,,,,,,,,,,,,,,,,,,0.038758864,0.158715155,1,0,0,response1disk,7,105.6887,1,-0.003786172,-0.00129102,1,0,0,center_square,0,0,0,0,1,0,131,5,5,2370,2406,prac_patch/patch0002370.jpg,prac_patch/patch0002406.jpg,,,,,,,,,,,,,,,,,,,,,,,,,,,,,,,,,,,,,,,,,,,,,,,,,,,,,,,,,,,,
917641,001,2022-11-20_16h28.57.248,Info_measure_main_exp,2022.2.2,Win32,59.62318149,,,,,,,,,,,,,0,0,0,3,1,masks/mask_004.jpg,,,,,,,,,,,,,,,,,,,,,,,,,,,,,,,,,,,,,,,,,,,,,,,,,,,,,,,,,,,,,,,,,,,,,,,,,,,,,,,,,,,,,,,,,,,,,
917641,001,2022-11-20_16h28.57.248,Info_measure_main_exp,2022.2.2,Win32,59.62318149,,,,,,,,,,,,,0,1,1,2,1,masks/mask_003.jpg,,,,,,,,,,,,,,,,,,,,,,,,,,,,,,,,,,,,,,,,,,,,,,,,,,,,,,,,,,,,,,,,,,,,,,,,,,,,,,,,,,,,,,,,,,,,,
917641,001,2022-11-20_16h28.57.248,Info_measure_main_exp,2022.2.2,Win32,59.62318149,,,,,,,,,,,,,0,2,2,4,1,masks/mask_005.jpg,,,,,,,,,,,,,,,,,,,,,,,,,,,,,,,,,,,,,,,,,,,,,,,,,,,,,,,,,,,,,,,,,,,,,,,,,,,,,,,,,,,,,,,,,,,,,
917641,001,2022-11-20_16h28.57.248,Info_measure_main_exp,2022.2.2,Win32,59.62318149,,,,,,,,,,,,,0,3,3,0,1,masks/mask_001.jpg,,,,,,,,,,,,,,,,,,,,,,,,,,,,,,,,,,,,,,,,,,,,,,,,,,,,,,,,,,,,,,,,,,,,,,,,,,,,,,,,,,,,,,,,,,,,,
917641,001,2022-11-20_16h28.57.248,Info_measure_main_exp,2022.2.2,Win32,59.62318149,,,,,,,,,,,,,0,4,4,1,1,masks/mask_002.jpg,,,,,,,,,,,,,,,,,,,,,,,,,,,,,,,,,,,,,,,,,,,,,,,,,,,,,,,,,,,,,,,,,,,,,,,,,,,,,,,,,,,,,,,,,,,,,
917641,001,2022-11-20_16h28.57.248,Info_measure_main_exp,2022.2.2,Win32,59.62318149,,,,,,,,,,,,,,,,,,masks/mask_001.jpg,0,0,0,0,1,,,,,,,,,,,,,,,,,,,,,,,,,,,,,,,,,,,,,,,,,,,,,,,,,,,,,,,,,,,,,,,,,,,,,,,,,,,,,,,,,,,,,,,,
917641,001,2022-11-20_16h28.57.248,Info_measure_main_exp,2022.2.2,Win32,59.62318149,,,,,,,,,,,,,,,,,,masks/mask_002.jpg,0,1,1,1,1,,,,,,,,,,,,,,,,,,,,,,,,,,,,,,,,,,,,,,,,,,,,,,,,,,,,,,,,,,,,,,,,,,,,,,,,,,,,,,,,,,,,,,,,
917641,001,2022-11-20_16h28.57.248,Info_measure_main_exp,2022.2.2,Win32,59.62318149,,,,,,,,,,,,,,,,,,masks/mask_003.jpg,0,2,2,2,1,,,,,,,,,,,,,,,,,,,,,,,,,,,,,,,,,,,,,,,,,,,,,,,,,,,,,,,,,,,,,,,,,,,,,,,,,,,,,,,,,,,,,,,,
917641,001,2022-11-20_16h28.57.248,Info_measure_main_exp,2022.2.2,Win32,59.62318149,,,,,,,,,,,,,,,,,,masks/mask_005.jpg,0,3,3,4,1,,,,,,,,,,,,,,,,,,,,,,,,,,,,,,,,,,,,,,,,,,,,,,,,,,,,,,,,,,,,,,,,,,,,,,,,,,,,,,,,,,,,,,,,
917641,001,2022-11-20_16h28.57.248,Info_measure_main_exp,2022.2.2,Win32,59.62318149,,,,,,,,,,,,,,,,,,masks/mask_004.jpg,0,4,4,3,1,,,,,,,,,,,,,,,,,,,,,,,,,,,,,,,,,,,,,,,,,,,,,,,,,,,,,,,,,,,,,,,,,,,,,,,,,,,,,,,,,,,,,,,,
917641,001,2022-11-20_16h28.57.248,Info_measure_main_exp,2022.2.2,Win32,59.62318149,,,,,,,,,,,,,,,,,,,,,,,,-0.082401989,-0.032737438,1,0,0,response5disk,2,121.8531,1,0.000838283,0.000558644,1,0,0,center_square,0,1,1,2,1,0,131,5,5,2526,2526,prac_patch/patch0002526.jpg,prac_patch/patch0002526.jpg,,,,,,,,,,,,,,,,,,,,,,,,,,,,,,,,,,,,,,,,,,,,,,,,,,,,,,,,,,,,
917641,001,2022-11-20_16h28.57.248,Info_measure_main_exp,2022.2.2,Win32,59.62318149,,,,,,,,,,,,,0,0,0,0,1,masks/mask_001.jpg,,,,,,,,,,,,,,,,,,,,,,,,,,,,,,,,,,,,,,,,,,,,,,,,,,,,,,,,,,,,,,,,,,,,,,,,,,,,,,,,,,,,,,,,,,,,,
917641,001,2022-11-20_16h28.57.248,Info_measure_main_exp,2022.2.2,Win32,59.62318149,,,,,,,,,,,,,0,1,1,3,1,masks/mask_004.jpg,,,,,,,,,,,,,,,,,,,,,,,,,,,,,,,,,,,,,,,,,,,,,,,,,,,,,,,,,,,,,,,,,,,,,,,,,,,,,,,,,,,,,,,,,,,,,
917641,001,2022-11-20_16h28.57.248,Info_measure_main_exp,2022.2.2,Win32,59.62318149,,,,,,,,,,,,,0,2,2,2,1,masks/mask_003.jpg,,,,,,,,,,,,,,,,,,,,,,,,,,,,,,,,,,,,,,,,,,,,,,,,,,,,,,,,,,,,,,,,,,,,,,,,,,,,,,,,,,,,,,,,,,,,,
917641,001,2022-11-20_16h28.57.248,Info_measure_main_exp,2022.2.2,Win32,59.62318149,,,,,,,,,,,,,0,3,3,1,1,masks/mask_002.jpg,,,,,,,,,,,,,,,,,,,,,,,,,,,,,,,,,,,,,,,,,,,,,,,,,,,,,,,,,,,,,,,,,,,,,,,,,,,,,,,,,,,,,,,,,,,,,
917641,001,2022-11-20_16h28.57.248,Info_measure_main_exp,2022.2.2,Win32,59.62318149,,,,,,,,,,,,,0,4,4,4,1,masks/mask_005.jpg,,,,,,,,,,,,,,,,,,,,,,,,,,,,,,,,,,,,,,,,,,,,,,,,,,,,,,,,,,,,,,,,,,,,,,,,,,,,,,,,,,,,,,,,,,,,,
917641,001,2022-11-20_16h28.57.248,Info_measure_main_exp,2022.2.2,Win32,59.62318149,,,,,,,,,,,,,,,,,,masks/mask_001.jpg,0,0,0,0,1,,,,,,,,,,,,,,,,,,,,,,,,,,,,,,,,,,,,,,,,,,,,,,,,,,,,,,,,,,,,,,,,,,,,,,,,,,,,,,,,,,,,,,,,
917641,001,2022-11-20_16h28.57.248,Info_measure_main_exp,2022.2.2,Win32,59.62318149,,,,,,,,,,,,,,,,,,masks/mask_002.jpg,0,1,1,1,1,,,,,,,,,,,,,,,,,,,,,,,,,,,,,,,,,,,,,,,,,,,,,,,,,,,,,,,,,,,,,,,,,,,,,,,,,,,,,,,,,,,,,,,,
917641,001,2022-11-20_16h28.57.248,Info_measure_main_exp,2022.2.2,Win32,59.62318149,,,,,,,,,,,,,,,,,,masks/mask_004.jpg,0,2,2,3,1,,,,,,,,,,,,,,,,,,,,,,,,,,,,,,,,,,,,,,,,,,,,,,,,,,,,,,,,,,,,,,,,,,,,,,,,,,,,,,,,,,,,,,,,
917641,001,2022-11-20_16h28.57.248,Info_measure_main_exp,2022.2.2,Win32,59.62318149,,,,,,,,,,,,,,,,,,masks/mask_005.jpg,0,3,3,4,1,,,,,,,,,,,,,,,,,,,,,,,,,,,,,,,,,,,,,,,,,,,,,,,,,,,,,,,,,,,,,,,,,,,,,,,,,,,,,,,,,,,,,,,,
917641,001,2022-11-20_16h28.57.248,Info_measure_main_exp,2022.2.2,Win32,59.62318149,,,,,,,,,,,,,,,,,,masks/mask_003.jpg,0,4,4,2,1,,,,,,,,,,,,,,,,,,,,,,,,,,,,,,,,,,,,,,,,,,,,,,,,,,,,,,,,,,,,,,,,,,,,,,,,,,,,,,,,,,,,,,,,
917641,001,2022-11-20_16h28.57.248,Info_measure_main_exp,2022.2.2,Win32,59.62318149,,,,,,,,,,,,,,,,,,,,,,,,0.039683809,0.120794619,1,0,0,response1disk,7,132.7105,1,0.002687992,0.001483589,1,0,0,center_square,0,2,2,1,1,0,131,5,5,2514,2490,prac_patch/patch0002514.jpg,prac_patch/patch0002490.jpg,,,,,,,,,,,,,,,,,,,,,,,,,,,,,,,,,,,,,,,,,,,,,,,,,,,,,,,,,,,,
917641,001,2022-11-20_16h28.57.248,Info_measure_main_exp,2022.2.2,Win32,59.62318149,,,,,,,,,,,,,,,,,,,,,,,,,,,,,,,,,,,,,,,,,,,,,,,,,,,,,,,,,,,space,4.089,,,,,,,,,,,,,,,,,,,,,,,,,,,,,,,,,,,,,,,,,,,,,,,,,,,
917641,001,2022-11-20_16h28.57.248,Info_measure_main_exp,2022.2.2,Win32,59.62318149,,,,,,,,,,,,,,,,,,masks/mask_004.jpg,,,,,,,,,,,,,,,,,,,,,,,,,,,,,,,,,,,,,,,,,,,0,0,0,3,1,,,,,,,,,,,,,,,,,,,,,,,,,,,,,,,,,,,,,,,,,,,,,,
917641,001,2022-11-20_16h28.57.248,Info_measure_main_exp,2022.2.2,Win32,59.62318149,,,,,,,,,,,,,,,,,,masks/mask_005.jpg,,,,,,,,,,,,,,,,,,,,,,,,,,,,,,,,,,,,,,,,,,,0,1,1,4,1,,,,,,,,,,,,,,,,,,,,,,,,,,,,,,,,,,,,,,,,,,,,,,
917641,001,2022-11-20_16h28.57.248,Info_measure_main_exp,2022.2.2,Win32,59.62318149,,,,,,,,,,,,,,,,,,masks/mask_003.jpg,,,,,,,,,,,,,,,,,,,,,,,,,,,,,,,,,,,,,,,,,,,0,2,2,2,1,,,,,,,,,,,,,,,,,,,,,,,,,,,,,,,,,,,,,,,,,,,,,,
917641,001,2022-11-20_16h28.57.248,Info_measure_main_exp,2022.2.2,Win32,59.62318149,,,,,,,,,,,,,,,,,,masks/mask_002.jpg,,,,,,,,,,,,,,,,,,,,,,,,,,,,,,,,,,,,,,,,,,,0,3,3,1,1,,,,,,,,,,,,,,,,,,,,,,,,,,,,,,,,,,,,,,,,,,,,,,
917641,001,2022-11-20_16h28.57.248,Info_measure_main_exp,2022.2.2,Win32,59.62318149,,,,,,,,,,,,,,,,,,masks/mask_001.jpg,,,,,,,,,,,,,,,,,,,,,,,,,,,,,,,,,,,,,,,,,,,0,4,4,0,1,,,,,,,,,,,,,,,,,,,,,,,,,,,,,,,,,,,,,,,,,,,,,,
917641,001,2022-11-20_16h28.57.248,Info_measure_main_exp,2022.2.2,Win32,59.62318149,,,,,,,,,,,,,,,,,,masks/mask_002.jpg,,,,,,,,,,,,,,,,,,,,,,,,,,,,,,,,,,,,,,,,,,,,,,,,0,0,0,1,1,,,,,,,,,,,,,,,,,,,,,,,,,,,,,,,,,,,,,,,,,
917641,001,2022-11-20_16h28.57.248,Info_measure_main_exp,2022.2.2,Win32,59.62318149,,,,,,,,,,,,,,,,,,masks/mask_001.jpg,,,,,,,,,,,,,,,,,,,,,,,,,,,,,,,,,,,,,,,,,,,,,,,,0,1,1,0,1,,,,,,,,,,,,,,,,,,,,,,,,,,,,,,,,,,,,,,,,,
917641,001,2022-11-20_16h28.57.248,Info_measure_main_exp,2022.2.2,Win32,59.62318149,,,,,,,,,,,,,,,,,,masks/mask_004.jpg,,,,,,,,,,,,,,,,,,,,,,,,,,,,,,,,,,,,,,,,,,,,,,,,0,2,2,3,1,,,,,,,,,,,,,,,,,,,,,,,,,,,,,,,,,,,,,,,,,
917641,001,2022-11-20_16h28.57.248,Info_measure_main_exp,2022.2.2,Win32,59.62318149,,,,,,,,,,,,,,,,,,masks/mask_003.jpg,,,,,,,,,,,,,,,,,,,,,,,,,,,,,,,,,,,,,,,,,,,,,,,,0,3,3,2,1,,,,,,,,,,,,,,,,,,,,,,,,,,,,,,,,,,,,,,,,,
917641,001,2022-11-20_16h28.57.248,Info_measure_main_exp,2022.2.2,Win32,59.62318149,,,,,,,,,,,,,,,,,,masks/mask_005.jpg,,,,,,,,,,,,,,,,,,,,,,,,,,,,,,,,,,,,,,,,,,,,,,,,0,4,4,4,1,,,,,,,,,,,,,,,,,,,,,,,,,,,,,,,,,,,,,,,,,
917641,001,2022-11-20_16h28.57.248,Info_measure_main_exp,2022.2.2,Win32,59.62318149,,,,,,,,,,,,,,,,,,,,,,,,,,,,,,7,2.1483,1,,,,,,,,,,,,0,131,5,5,2082,1986,absent_patch/patch0002082.jpg,absent_patch/patch0001986.jpg,,,,,,,,,,,,,,,,,,,,0.031359845,0.094897669,1,0,0,response1disk,1,-0.003786172,0.003333434,1,0,0,center_square,0,0,0,94,1,,,,,,,,,,,,,,,,,,,,,,,
917641,001,2022-11-20_16h28.57.248,Info_measure_main_exp,2022.2.2,Win32,59.62318149,,,,,,,,,,,,,,,,,,masks/mask_005.jpg,,,,,,,,,,,,,,,,,,,,,,,,,,,,,,,,,,,,,,,,,,,0,0,0,4,1,,,,,,,,,,,,,,,,,,,,,,,,,,,,,,,,,,,,,,,,,,,,,,
917641,001,2022-11-20_16h28.57.248,Info_measure_main_exp,2022.2.2,Win32,59.62318149,,,,,,,,,,,,,,,,,,masks/mask_002.jpg,,,,,,,,,,,,,,,,,,,,,,,,,,,,,,,,,,,,,,,,,,,0,1,1,1,1,,,,,,,,,,,,,,,,,,,,,,,,,,,,,,,,,,,,,,,,,,,,,,
917641,001,2022-11-20_16h28.57.248,Info_measure_main_exp,2022.2.2,Win32,59.62318149,,,,,,,,,,,,,,,,,,masks/mask_003.jpg,,,,,,,,,,,,,,,,,,,,,,,,,,,,,,,,,,,,,,,,,,,0,2,2,2,1,,,,,,,,,,,,,,,,,,,,,,,,,,,,,,,,,,,,,,,,,,,,,,
917641,001,2022-11-20_16h28.57.248,Info_measure_main_exp,2022.2.2,Win32,59.62318149,,,,,,,,,,,,,,,,,,masks/mask_001.jpg,,,,,,,,,,,,,,,,,,,,,,,,,,,,,,,,,,,,,,,,,,,0,3,3,0,1,,,,,,,,,,,,,,,,,,,,,,,,,,,,,,,,,,,,,,,,,,,,,,
917641,001,2022-11-20_16h28.57.248,Info_measure_main_exp,2022.2.2,Win32,59.62318149,,,,,,,,,,,,,,,,,,masks/mask_004.jpg,,,,,,,,,,,,,,,,,,,,,,,,,,,,,,,,,,,,,,,,,,,0,4,4,3,1,,,,,,,,,,,,,,,,,,,,,,,,,,,,,,,,,,,,,,,,,,,,,,
917641,001,2022-11-20_16h28.57.248,Info_measure_main_exp,2022.2.2,Win32,59.62318149,,,,,,,,,,,,,,,,,,masks/mask_001.jpg,,,,,,,,,,,,,,,,,,,,,,,,,,,,,,,,,,,,,,,,,,,,,,,,0,0,0,0,1,,,,,,,,,,,,,,,,,,,,,,,,,,,,,,,,,,,,,,,,,
917641,001,2022-11-20_16h28.57.248,Info_measure_main_exp,2022.2.2,Win32,59.62318149,,,,,,,,,,,,,,,,,,masks/mask_003.jpg,,,,,,,,,,,,,,,,,,,,,,,,,,,,,,,,,,,,,,,,,,,,,,,,0,1,1,2,1,,,,,,,,,,,,,,,,,,,,,,,,,,,,,,,,,,,,,,,,,
917641,001,2022-11-20_16h28.57.248,Info_measure_main_exp,2022.2.2,Win32,59.62318149,,,,,,,,,,,,,,,,,,masks/mask_002.jpg,,,,,,,,,,,,,,,,,,,,,,,,,,,,,,,,,,,,,,,,,,,,,,,,0,2,2,1,1,,,,,,,,,,,,,,,,,,,,,,,,,,,,,,,,,,,,,,,,,
917641,001,2022-11-20_16h28.57.248,Info_measure_main_exp,2022.2.2,Win32,59.62318149,,,,,,,,,,,,,,,,,,masks/mask_004.jpg,,,,,,,,,,,,,,,,,,,,,,,,,,,,,,,,,,,,,,,,,,,,,,,,0,3,3,3,1,,,,,,,,,,,,,,,,,,,,,,,,,,,,,,,,,,,,,,,,,
917641,001,2022-11-20_16h28.57.248,Info_measure_main_exp,2022.2.2,Win32,59.62318149,,,,,,,,,,,,,,,,,,masks/mask_005.jpg,,,,,,,,,,,,,,,,,,,,,,,,,,,,,,,,,,,,,,,,,,,,,,,,0,4,4,4,1,,,,,,,,,,,,,,,,,,,,,,,,,,,,,,,,,,,,,,,,,
917641,001,2022-11-20_16h28.57.248,Info_measure_main_exp,2022.2.2,Win32,59.62318149,,,,,,,,,,,,,,,,,,,,,,,,,,,,,,7,2.6622,1,,,,,,,,,,,,1,131,5,5,1,1974,present_patch/cong_131_5_a.jpg,absent_patch/patch0001974.jpg,,,,,,,,,,,,,,,,,,,,0.039683809,0.056977133,1,0,0,response1disk,2,-0.010260426,0.001483589,1,0,0,center_square,0,1,1,69,1,,,,,,,,,,,,,,,,,,,,,,,
917641,001,2022-11-20_16h28.57.248,Info_measure_main_exp,2022.2.2,Win32,59.62318149,,,,,,,,,,,,,,,,,,masks/mask_003.jpg,,,,,,,,,,,,,,,,,,,,,,,,,,,,,,,,,,,,,,,,,,,0,0,0,2,1,,,,,,,,,,,,,,,,,,,,,,,,,,,,,,,,,,,,,,,,,,,,,,
917641,001,2022-11-20_16h28.57.248,Info_measure_main_exp,2022.2.2,Win32,59.62318149,,,,,,,,,,,,,,,,,,masks/mask_005.jpg,,,,,,,,,,,,,,,,,,,,,,,,,,,,,,,,,,,,,,,,,,,0,1,1,4,1,,,,,,,,,,,,,,,,,,,,,,,,,,,,,,,,,,,,,,,,,,,,,,
917641,001,2022-11-20_16h28.57.248,Info_measure_main_exp,2022.2.2,Win32,59.62318149,,,,,,,,,,,,,,,,,,masks/mask_001.jpg,,,,,,,,,,,,,,,,,,,,,,,,,,,,,,,,,,,,,,,,,,,0,2,2,0,1,,,,,,,,,,,,,,,,,,,,,,,,,,,,,,,,,,,,,,,,,,,,,,
917641,001,2022-11-20_16h28.57.248,Info_measure_main_exp,2022.2.2,Win32,59.62318149,,,,,,,,,,,,,,,,,,masks/mask_002.jpg,,,,,,,,,,,,,,,,,,,,,,,,,,,,,,,,,,,,,,,,,,,0,3,3,1,1,,,,,,,,,,,,,,,,,,,,,,,,,,,,,,,,,,,,,,,,,,,,,,
917641,001,2022-11-20_16h28.57.248,Info_measure_main_exp,2022.2.2,Win32,59.62318149,,,,,,,,,,,,,,,,,,masks/mask_004.jpg,,,,,,,,,,,,,,,,,,,,,,,,,,,,,,,,,,,,,,,,,,,0,4,4,3,1,,,,,,,,,,,,,,,,,,,,,,,,,,,,,,,,,,,,,,,,,,,,,,
917641,001,2022-11-20_16h28.57.248,Info_measure_main_exp,2022.2.2,Win32,59.62318149,,,,,,,,,,,,,,,,,,masks/mask_005.jpg,,,,,,,,,,,,,,,,,,,,,,,,,,,,,,,,,,,,,,,,,,,,,,,,0,0,0,4,1,,,,,,,,,,,,,,,,,,,,,,,,,,,,,,,,,,,,,,,,,
917641,001,2022-11-20_16h28.57.248,Info_measure_main_exp,2022.2.2,Win32,59.62318149,,,,,,,,,,,,,,,,,,masks/mask_004.jpg,,,,,,,,,,,,,,,,,,,,,,,,,,,,,,,,,,,,,,,,,,,,,,,,0,1,1,3,1,,,,,,,,,,,,,,,,,,,,,,,,,,,,,,,,,,,,,,,,,
917641,001,2022-11-20_16h28.57.248,Info_measure_main_exp,2022.2.2,Win32,59.62318149,,,,,,,,,,,,,,,,,,masks/mask_002.jpg,,,,,,,,,,,,,,,,,,,,,,,,,,,,,,,,,,,,,,,,,,,,,,,,0,2,2,1,1,,,,,,,,,,,,,,,,,,,,,,,,,,,,,,,,,,,,,,,,,
917641,001,2022-11-20_16h28.57.248,Info_measure_main_exp,2022.2.2,Win32,59.62318149,,,,,,,,,,,,,,,,,,masks/mask_001.jpg,,,,,,,,,,,,,,,,,,,,,,,,,,,,,,,,,,,,,,,,,,,,,,,,0,3,3,0,1,,,,,,,,,,,,,,,,,,,,,,,,,,,,,,,,,,,,,,,,,
917641,001,2022-11-20_16h28.57.248,Info_measure_main_exp,2022.2.2,Win32,59.62318149,,,,,,,,,,,,,,,,,,masks/mask_003.jpg,,,,,,,,,,,,,,,,,,,,,,,,,,,,,,,,,,,,,,,,,,,,,,,,0,4,4,2,1,,,,,,,,,,,,,,,,,,,,,,,,,,,,,,,,,,,,,,,,,
917641,001,2022-11-20_16h28.57.248,Info_measure_main_exp,2022.2.2,Win32,59.62318149,,,,,,,,,,,,,,,,,,,,,,,,,,,,,,7,1.1556,1,,,,,,,,,,,,1,131,5,5,2082,1,absent_patch/patch0002082.jpg,present_patch/cong_131_5_a.jpg,,,,,,,,,,,,,,,,,,,,0.022110755,0.08287406,1,0,0,response1disk,3,0.000838283,0.000558644,1,0,0,center_square,0,2,2,65,1,,,,,,,,,,,,,,,,,,,,,,,
917641,001,2022-11-20_16h28.57.248,Info_measure_main_exp,2022.2.2,Win32,59.62318149,,,,,,,,,,,,,,,,,,masks/mask_005.jpg,,,,,,,,,,,,,,,,,,,,,,,,,,,,,,,,,,,,,,,,,,,0,0,0,4,1,,,,,,,,,,,,,,,,,,,,,,,,,,,,,,,,,,,,,,,,,,,,,,
917641,001,2022-11-20_16h28.57.248,Info_measure_main_exp,2022.2.2,Win32,59.62318149,,,,,,,,,,,,,,,,,,masks/mask_003.jpg,,,,,,,,,,,,,,,,,,,,,,,,,,,,,,,,,,,,,,,,,,,0,1,1,2,1,,,,,,,,,,,,,,,,,,,,,,,,,,,,,,,,,,,,,,,,,,,,,,
917641,001,2022-11-20_16h28.57.248,Info_measure_main_exp,2022.2.2,Win32,59.62318149,,,,,,,,,,,,,,,,,,masks/mask_002.jpg,,,,,,,,,,,,,,,,,,,,,,,,,,,,,,,,,,,,,,,,,,,0,2,2,1,1,,,,,,,,,,,,,,,,,,,,,,,,,,,,,,,,,,,,,,,,,,,,,,
917641,001,2022-11-20_16h28.57.248,Info_measure_main_exp,2022.2.2,Win32,59.62318149,,,,,,,,,,,,,,,,,,masks/mask_001.jpg,,,,,,,,,,,,,,,,,,,,,,,,,,,,,,,,,,,,,,,,,,,0,3,3,0,1,,,,,,,,,,,,,,,,,,,,,,,,,,,,,,,,,,,,,,,,,,,,,,
917641,001,2022-11-20_16h28.57.248,Info_measure_main_exp,2022.2.2,Win32,59.62318149,,,,,,,,,,,,,,,,,,masks/mask_004.jpg,,,,,,,,,,,,,,,,,,,,,,,,,,,,,,,,,,,,,,,,,,,0,4,4,3,1,,,,,,,,,,,,,,,,,,,,,,,,,,,,,,,,,,,,,,,,,,,,,,
917641,001,2022-11-20_16h28.57.248,Info_measure_main_exp,2022.2.2,Win32,59.62318149,,,,,,,,,,,,,,,,,,masks/mask_001.jpg,,,,,,,,,,,,,,,,,,,,,,,,,,,,,,,,,,,,,,,,,,,,,,,,0,0,0,0,1,,,,,,,,,,,,,,,,,,,,,,,,,,,,,,,,,,,,,,,,,
917641,001,2022-11-20_16h28.57.248,Info_measure_main_exp,2022.2.2,Win32,59.62318149,,,,,,,,,,,,,,,,,,masks/mask_003.jpg,,,,,,,,,,,,,,,,,,,,,,,,,,,,,,,,,,,,,,,,,,,,,,,,0,1,1,2,1,,,,,,,,,,,,,,,,,,,,,,,,,,,,,,,,,,,,,,,,,
917641,001,2022-11-20_16h28.57.248,Info_measure_main_exp,2022.2.2,Win32,59.62318149,,,,,,,,,,,,,,,,,,masks/mask_002.jpg,,,,,,,,,,,,,,,,,,,,,,,,,,,,,,,,,,,,,,,,,,,,,,,,0,2,2,1,1,,,,,,,,,,,,,,,,,,,,,,,,,,,,,,,,,,,,,,,,,
917641,001,2022-11-20_16h28.57.248,Info_measure_main_exp,2022.2.2,Win32,59.62318149,,,,,,,,,,,,,,,,,,masks/mask_004.jpg,,,,,,,,,,,,,,,,,,,,,,,,,,,,,,,,,,,,,,,,,,,,,,,,0,3,3,3,1,,,,,,,,,,,,,,,,,,,,,,,,,,,,,,,,,,,,,,,,,
917641,001,2022-11-20_16h28.57.248,Info_measure_main_exp,2022.2.2,Win32,59.62318149,,,,,,,,,,,,,,,,,,masks/mask_005.jpg,,,,,,,,,,,,,,,,,,,,,,,,,,,,,,,,,,,,,,,,,,,,,,,,0,4,4,4,1,,,,,,,,,,,,,,,,,,,,,,,,,,,,,,,,,,,,,,,,,
917641,001,2022-11-20_16h28.57.248,Info_measure_main_exp,2022.2.2,Win32,59.62318149,,,,,,,,,,,,,,,,,,,,,,,,,,,,,,5,3.5462,1,,,,,,,,,,,,0,131,5,5,2190,1950,absent_patch/patch0002190.jpg,absent_patch/patch0001950.jpg,,,,,,,,,,,,,,,,,,,,0.094252227,-0.034587102,1,0,0,response3disk,4,0.003612937,0.008882789,1,0,0,center_square,0,3,3,73,1,,,,,,,,,,,,,,,,,,,,,,,
917641,001,2022-11-20_16h28.57.248,Info_measure_main_exp,2022.2.2,Win32,59.62318149,,,,,,,,,,,,,,,,,,masks/mask_002.jpg,,,,,,,,,,,,,,,,,,,,,,,,,,,,,,,,,,,,,,,,,,,0,0,0,1,1,,,,,,,,,,,,,,,,,,,,,,,,,,,,,,,,,,,,,,,,,,,,,,
917641,001,2022-11-20_16h28.57.248,Info_measure_main_exp,2022.2.2,Win32,59.62318149,,,,,,,,,,,,,,,,,,masks/mask_001.jpg,,,,,,,,,,,,,,,,,,,,,,,,,,,,,,,,,,,,,,,,,,,0,1,1,0,1,,,,,,,,,,,,,,,,,,,,,,,,,,,,,,,,,,,,,,,,,,,,,,
917641,001,2022-11-20_16h28.57.248,Info_measure_main_exp,2022.2.2,Win32,59.62318149,,,,,,,,,,,,,,,,,,masks/mask_003.jpg,,,,,,,,,,,,,,,,,,,,,,,,,,,,,,,,,,,,,,,,,,,0,2,2,2,1,,,,,,,,,,,,,,,,,,,,,,,,,,,,,,,,,,,,,,,,,,,,,,
917641,001,2022-11-20_16h28.57.248,Info_measure_main_exp,2022.2.2,Win32,59.62318149,,,,,,,,,,,,,,,,,,masks/mask_005.jpg,,,,,,,,,,,,,,,,,,,,,,,,,,,,,,,,,,,,,,,,,,,0,3,3,4,1,,,,,,,,,,,,,,,,,,,,,,,,,,,,,,,,,,,,,,,,,,,,,,
917641,001,2022-11-20_16h28.57.248,Info_measure_main_exp,2022.2.2,Win32,59.62318149,,,,,,,,,,,,,,,,,,masks/mask_004.jpg,,,,,,,,,,,,,,,,,,,,,,,,,,,,,,,,,,,,,,,,,,,0,4,4,3,1,,,,,,,,,,,,,,,,,,,,,,,,,,,,,,,,,,,,,,,,,,,,,,
917641,001,2022-11-20_16h28.57.248,Info_measure_main_exp,2022.2.2,Win32,59.62318149,,,,,,,,,,,,,,,,,,masks/mask_003.jpg,,,,,,,,,,,,,,,,,,,,,,,,,,,,,,,,,,,,,,,,,,,,,,,,0,0,0,2,1,,,,,,,,,,,,,,,,,,,,,,,,,,,,,,,,,,,,,,,,,
917641,001,2022-11-20_16h28.57.248,Info_measure_main_exp,2022.2.2,Win32,59.62318149,,,,,,,,,,,,,,,,,,masks/mask_004.jpg,,,,,,,,,,,,,,,,,,,,,,,,,,,,,,,,,,,,,,,,,,,,,,,,0,1,1,3,1,,,,,,,,,,,,,,,,,,,,,,,,,,,,,,,,,,,,,,,,,
917641,001,2022-11-20_16h28.57.248,Info_measure_main_exp,2022.2.2,Win32,59.62318149,,,,,,,,,,,,,,,,,,masks/mask_001.jpg,,,,,,,,,,,,,,,,,,,,,,,,,,,,,,,,,,,,,,,,,,,,,,,,0,2,2,0,1,,,,,,,,,,,,,,,,,,,,,,,,,,,,,,,,,,,,,,,,,
917641,001,2022-11-20_16h28.57.248,Info_measure_main_exp,2022.2.2,Win32,59.62318149,,,,,,,,,,,,,,,,,,masks/mask_002.jpg,,,,,,,,,,,,,,,,,,,,,,,,,,,,,,,,,,,,,,,,,,,,,,,,0,3,3,1,1,,,,,,,,,,,,,,,,,,,,,,,,,,,,,,,,,,,,,,,,,
917641,001,2022-11-20_16h28.57.248,Info_measure_main_exp,2022.2.2,Win32,59.62318149,,,,,,,,,,,,,,,,,,masks/mask_005.jpg,,,,,,,,,,,,,,,,,,,,,,,,,,,,,,,,,,,,,,,,,,,,,,,,0,4,4,4,1,,,,,,,,,,,,,,,,,,,,,,,,,,,,,,,,,,,,,,,,,
917641,001,2022-11-20_16h28.57.248,Info_measure_main_exp,2022.2.2,Win32,59.62318149,,,,,,,,,,,,,,,,,,,,,,,,,,,,,,7,0.8994,1,,,,,,,,,,,,0,131,5,5,1974,2166,absent_patch/patch0001974.jpg,absent_patch/patch0002166.jpg,,,,,,,,,,,,,,,,,,,,0.025810264,0.109695933,1,0,0,response1disk,5,-0.009335572,0.004258334,1,0,0,center_square,0,4,4,77,1,,,,,,,,,,,,,,,,,,,,,,,
917641,001,2022-11-20_16h28.57.248,Info_measure_main_exp,2022.2.2,Win32,59.62318149,,,,,,,,,,,,,,,,,,masks/mask_003.jpg,,,,,,,,,,,,,,,,,,,,,,,,,,,,,,,,,,,,,,,,,,,0,0,0,2,1,,,,,,,,,,,,,,,,,,,,,,,,,,,,,,,,,,,,,,,,,,,,,,
917641,001,2022-11-20_16h28.57.248,Info_measure_main_exp,2022.2.2,Win32,59.62318149,,,,,,,,,,,,,,,,,,masks/mask_004.jpg,,,,,,,,,,,,,,,,,,,,,,,,,,,,,,,,,,,,,,,,,,,0,1,1,3,1,,,,,,,,,,,,,,,,,,,,,,,,,,,,,,,,,,,,,,,,,,,,,,
917641,001,2022-11-20_16h28.57.248,Info_measure_main_exp,2022.2.2,Win32,59.62318149,,,,,,,,,,,,,,,,,,masks/mask_005.jpg,,,,,,,,,,,,,,,,,,,,,,,,,,,,,,,,,,,,,,,,,,,0,2,2,4,1,,,,,,,,,,,,,,,,,,,,,,,,,,,,,,,,,,,,,,,,,,,,,,
917641,001,2022-11-20_16h28.57.248,Info_measure_main_exp,2022.2.2,Win32,59.62318149,,,,,,,,,,,,,,,,,,masks/mask_002.jpg,,,,,,,,,,,,,,,,,,,,,,,,,,,,,,,,,,,,,,,,,,,0,3,3,1,1,,,,,,,,,,,,,,,,,,,,,,,,,,,,,,,,,,,,,,,,,,,,,,
917641,001,2022-11-20_16h28.57.248,Info_measure_main_exp,2022.2.2,Win32,59.62318149,,,,,,,,,,,,,,,,,,masks/mask_001.jpg,,,,,,,,,,,,,,,,,,,,,,,,,,,,,,,,,,,,,,,,,,,0,4,4,0,1,,,,,,,,,,,,,,,,,,,,,,,,,,,,,,,,,,,,,,,,,,,,,,
917641,001,2022-11-20_16h28.57.248,Info_measure_main_exp,2022.2.2,Win32,59.62318149,,,,,,,,,,,,,,,,,,masks/mask_002.jpg,,,,,,,,,,,,,,,,,,,,,,,,,,,,,,,,,,,,,,,,,,,,,,,,0,0,0,1,1,,,,,,,,,,,,,,,,,,,,,,,,,,,,,,,,,,,,,,,,,
917641,001,2022-11-20_16h28.57.248,Info_measure_main_exp,2022.2.2,Win32,59.62318149,,,,,,,,,,,,,,,,,,masks/mask_003.jpg,,,,,,,,,,,,,,,,,,,,,,,,,,,,,,,,,,,,,,,,,,,,,,,,0,1,1,2,1,,,,,,,,,,,,,,,,,,,,,,,,,,,,,,,,,,,,,,,,,
917641,001,2022-11-20_16h28.57.248,Info_measure_main_exp,2022.2.2,Win32,59.62318149,,,,,,,,,,,,,,,,,,masks/mask_004.jpg,,,,,,,,,,,,,,,,,,,,,,,,,,,,,,,,,,,,,,,,,,,,,,,,0,2,2,3,1,,,,,,,,,,,,,,,,,,,,,,,,,,,,,,,,,,,,,,,,,
917641,001,2022-11-20_16h28.57.248,Info_measure_main_exp,2022.2.2,Win32,59.62318149,,,,,,,,,,,,,,,,,,masks/mask_001.jpg,,,,,,,,,,,,,,,,,,,,,,,,,,,,,,,,,,,,,,,,,,,,,,,,0,3,3,0,1,,,,,,,,,,,,,,,,,,,,,,,,,,,,,,,,,,,,,,,,,
917641,001,2022-11-20_16h28.57.248,Info_measure_main_exp,2022.2.2,Win32,59.62318149,,,,,,,,,,,,,,,,,,masks/mask_005.jpg,,,,,,,,,,,,,,,,,,,,,,,,,,,,,,,,,,,,,,,,,,,,,,,,0,4,4,4,1,,,,,,,,,,,,,,,,,,,,,,,,,,,,,,,,,,,,,,,,,
917641,001,2022-11-20_16h28.57.248,Info_measure_main_exp,2022.2.2,Win32,59.62318149,,,,,,,,,,,,,,,,,,,,,,,,,,,,,,7,0.6818,1,,,,,,,,,,,,0,131,5,5,2154,2298,absent_patch/patch0002154.jpg,absent_patch/patch0002298.jpg,,,,,,,,,,,,,,,,,,,,0.034134409,0.106921233,1,0,0,response1disk,6,0.000838283,-0.004065811,1,0,0,center_square,0,5,5,27,1,,,,,,,,,,,,,,,,,,,,,,,
917641,001,2022-11-20_16h28.57.248,Info_measure_main_exp,2022.2.2,Win32,59.62318149,,,,,,,,,,,,,,,,,,masks/mask_003.jpg,,,,,,,,,,,,,,,,,,,,,,,,,,,,,,,,,,,,,,,,,,,0,0,0,2,1,,,,,,,,,,,,,,,,,,,,,,,,,,,,,,,,,,,,,,,,,,,,,,
917641,001,2022-11-20_16h28.57.248,Info_measure_main_exp,2022.2.2,Win32,59.62318149,,,,,,,,,,,,,,,,,,masks/mask_001.jpg,,,,,,,,,,,,,,,,,,,,,,,,,,,,,,,,,,,,,,,,,,,0,1,1,0,1,,,,,,,,,,,,,,,,,,,,,,,,,,,,,,,,,,,,,,,,,,,,,,
917641,001,2022-11-20_16h28.57.248,Info_measure_main_exp,2022.2.2,Win32,59.62318149,,,,,,,,,,,,,,,,,,masks/mask_004.jpg,,,,,,,,,,,,,,,,,,,,,,,,,,,,,,,,,,,,,,,,,,,0,2,2,3,1,,,,,,,,,,,,,,,,,,,,,,,,,,,,,,,,,,,,,,,,,,,,,,
917641,001,2022-11-20_16h28.57.248,Info_measure_main_exp,2022.2.2,Win32,59.62318149,,,,,,,,,,,,,,,,,,masks/mask_002.jpg,,,,,,,,,,,,,,,,,,,,,,,,,,,,,,,,,,,,,,,,,,,0,3,3,1,1,,,,,,,,,,,,,,,,,,,,,,,,,,,,,,,,,,,,,,,,,,,,,,
917641,001,2022-11-20_16h28.57.248,Info_measure_main_exp,2022.2.2,Win32,59.62318149,,,,,,,,,,,,,,,,,,masks/mask_005.jpg,,,,,,,,,,,,,,,,,,,,,,,,,,,,,,,,,,,,,,,,,,,0,4,4,4,1,,,,,,,,,,,,,,,,,,,,,,,,,,,,,,,,,,,,,,,,,,,,,,
917641,001,2022-11-20_16h28.57.248,Info_measure_main_exp,2022.2.2,Win32,59.62318149,,,,,,,,,,,,,,,,,,masks/mask_004.jpg,,,,,,,,,,,,,,,,,,,,,,,,,,,,,,,,,,,,,,,,,,,,,,,,0,0,0,3,1,,,,,,,,,,,,,,,,,,,,,,,,,,,,,,,,,,,,,,,,,
917641,001,2022-11-20_16h28.57.248,Info_measure_main_exp,2022.2.2,Win32,59.62318149,,,,,,,,,,,,,,,,,,masks/mask_002.jpg,,,,,,,,,,,,,,,,,,,,,,,,,,,,,,,,,,,,,,,,,,,,,,,,0,1,1,1,1,,,,,,,,,,,,,,,,,,,,,,,,,,,,,,,,,,,,,,,,,
917641,001,2022-11-20_16h28.57.248,Info_measure_main_exp,2022.2.2,Win32,59.62318149,,,,,,,,,,,,,,,,,,masks/mask_001.jpg,,,,,,,,,,,,,,,,,,,,,,,,,,,,,,,,,,,,,,,,,,,,,,,,0,2,2,0,1,,,,,,,,,,,,,,,,,,,,,,,,,,,,,,,,,,,,,,,,,
917641,001,2022-11-20_16h28.57.248,Info_measure_main_exp,2022.2.2,Win32,59.62318149,,,,,,,,,,,,,,,,,,masks/mask_003.jpg,,,,,,,,,,,,,,,,,,,,,,,,,,,,,,,,,,,,,,,,,,,,,,,,0,3,3,2,1,,,,,,,,,,,,,,,,,,,,,,,,,,,,,,,,,,,,,,,,,
917641,001,2022-11-20_16h28.57.248,Info_measure_main_exp,2022.2.2,Win32,59.62318149,,,,,,,,,,,,,,,,,,masks/mask_005.jpg,,,,,,,,,,,,,,,,,,,,,,,,,,,,,,,,,,,,,,,,,,,,,,,,0,4,4,4,1,,,,,,,,,,,,,,,,,,,,,,,,,,,,,,,,,,,,,,,,,
917641,001,2022-11-20_16h28.57.248,Info_measure_main_exp,2022.2.2,Win32,59.62318149,,,,,,,,,,,,,,,,,,,,,,,,,,,,,,7,0.6822,1,,,,,,,,,,,,1,131,5,5,2238,1,absent_patch/patch0002238.jpg,present_patch/cong_131_5_a.jpg,,,,,,,,,,,,,,,,,,,,0.057256591,0.13744266,1,0,0,response1disk,7,0.001763228,0.007032989,1,0,0,center_square,0,6,6,104,1,,,,,,,,,,,,,,,,,,,,,,,
917641,001,2022-11-20_16h28.57.248,Info_measure_main_exp,2022.2.2,Win32,59.62318149,,,,,,,,,,,,,,,,,,masks/mask_004.jpg,,,,,,,,,,,,,,,,,,,,,,,,,,,,,,,,,,,,,,,,,,,0,0,0,3,1,,,,,,,,,,,,,,,,,,,,,,,,,,,,,,,,,,,,,,,,,,,,,,
917641,001,2022-11-20_16h28.57.248,Info_measure_main_exp,2022.2.2,Win32,59.62318149,,,,,,,,,,,,,,,,,,masks/mask_005.jpg,,,,,,,,,,,,,,,,,,,,,,,,,,,,,,,,,,,,,,,,,,,0,1,1,4,1,,,,,,,,,,,,,,,,,,,,,,,,,,,,,,,,,,,,,,,,,,,,,,
917641,001,2022-11-20_16h28.57.248,Info_measure_main_exp,2022.2.2,Win32,59.62318149,,,,,,,,,,,,,,,,,,masks/mask_002.jpg,,,,,,,,,,,,,,,,,,,,,,,,,,,,,,,,,,,,,,,,,,,0,2,2,1,1,,,,,,,,,,,,,,,,,,,,,,,,,,,,,,,,,,,,,,,,,,,,,,
917641,001,2022-11-20_16h28.57.248,Info_measure_main_exp,2022.2.2,Win32,59.62318149,,,,,,,,,,,,,,,,,,masks/mask_001.jpg,,,,,,,,,,,,,,,,,,,,,,,,,,,,,,,,,,,,,,,,,,,0,3,3,0,1,,,,,,,,,,,,,,,,,,,,,,,,,,,,,,,,,,,,,,,,,,,,,,
917641,001,2022-11-20_16h28.57.248,Info_measure_main_exp,2022.2.2,Win32,59.62318149,,,,,,,,,,,,,,,,,,masks/mask_003.jpg,,,,,,,,,,,,,,,,,,,,,,,,,,,,,,,,,,,,,,,,,,,0,4,4,2,1,,,,,,,,,,,,,,,,,,,,,,,,,,,,,,,,,,,,,,,,,,,,,,
917641,001,2022-11-20_16h28.57.248,Info_measure_main_exp,2022.2.2,Win32,59.62318149,,,,,,,,,,,,,,,,,,masks/mask_005.jpg,,,,,,,,,,,,,,,,,,,,,,,,,,,,,,,,,,,,,,,,,,,,,,,,0,0,0,4,1,,,,,,,,,,,,,,,,,,,,,,,,,,,,,,,,,,,,,,,,,
917641,001,2022-11-20_16h28.57.248,Info_measure_main_exp,2022.2.2,Win32,59.62318149,,,,,,,,,,,,,,,,,,masks/mask_004.jpg,,,,,,,,,,,,,,,,,,,,,,,,,,,,,,,,,,,,,,,,,,,,,,,,0,1,1,3,1,,,,,,,,,,,,,,,,,,,,,,,,,,,,,,,,,,,,,,,,,
917641,001,2022-11-20_16h28.57.248,Info_measure_main_exp,2022.2.2,Win32,59.62318149,,,,,,,,,,,,,,,,,,masks/mask_003.jpg,,,,,,,,,,,,,,,,,,,,,,,,,,,,,,,,,,,,,,,,,,,,,,,,0,2,2,2,1,,,,,,,,,,,,,,,,,,,,,,,,,,,,,,,,,,,,,,,,,
917641,001,2022-11-20_16h28.57.248,Info_measure_main_exp,2022.2.2,Win32,59.62318149,,,,,,,,,,,,,,,,,,masks/mask_002.jpg,,,,,,,,,,,,,,,,,,,,,,,,,,,,,,,,,,,,,,,,,,,,,,,,0,3,3,1,1,,,,,,,,,,,,,,,,,,,,,,,,,,,,,,,,,,,,,,,,,
917641,001,2022-11-20_16h28.57.248,Info_measure_main_exp,2022.2.2,Win32,59.62318149,,,,,,,,,,,,,,,,,,masks/mask_001.jpg,,,,,,,,,,,,,,,,,,,,,,,,,,,,,,,,,,,,,,,,,,,,,,,,0,4,4,0,1,,,,,,,,,,,,,,,,,,,,,,,,,,,,,,,,,,,,,,,,,
917641,001,2022-11-20_16h28.57.248,Info_measure_main_exp,2022.2.2,Win32,59.62318149,,,,,,,,,,,,,,,,,,,,,,,,,,,,,,7,0.9651,1,,,,,,,,,,,,0,131,5,5,2190,1986,absent_patch/patch0002190.jpg,absent_patch/patch0001986.jpg,,,,,,,,,,,,,,,,,,,,0.050782337,0.122644396,1,0,0,response1disk,8,-0.009335572,-0.00221592,1,0,0,center_square,0,7,7,111,1,,,,,,,,,,,,,,,,,,,,,,,
917641,001,2022-11-20_16h28.57.248,Info_measure_main_exp,2022.2.2,Win32,59.62318149,,,,,,,,,,,,,,,,,,masks/mask_002.jpg,,,,,,,,,,,,,,,,,,,,,,,,,,,,,,,,,,,,,,,,,,,0,0,0,1,1,,,,,,,,,,,,,,,,,,,,,,,,,,,,,,,,,,,,,,,,,,,,,,
917641,001,2022-11-20_16h28.57.248,Info_measure_main_exp,2022.2.2,Win32,59.62318149,,,,,,,,,,,,,,,,,,masks/mask_001.jpg,,,,,,,,,,,,,,,,,,,,,,,,,,,,,,,,,,,,,,,,,,,0,1,1,0,1,,,,,,,,,,,,,,,,,,,,,,,,,,,,,,,,,,,,,,,,,,,,,,
917641,001,2022-11-20_16h28.57.248,Info_measure_main_exp,2022.2.2,Win32,59.62318149,,,,,,,,,,,,,,,,,,masks/mask_003.jpg,,,,,,,,,,,,,,,,,,,,,,,,,,,,,,,,,,,,,,,,,,,0,2,2,2,1,,,,,,,,,,,,,,,,,,,,,,,,,,,,,,,,,,,,,,,,,,,,,,
917641,001,2022-11-20_16h28.57.248,Info_measure_main_exp,2022.2.2,Win32,59.62318149,,,,,,,,,,,,,,,,,,masks/mask_004.jpg,,,,,,,,,,,,,,,,,,,,,,,,,,,,,,,,,,,,,,,,,,,0,3,3,3,1,,,,,,,,,,,,,,,,,,,,,,,,,,,,,,,,,,,,,,,,,,,,,,
917641,001,2022-11-20_16h28.57.248,Info_measure_main_exp,2022.2.2,Win32,59.62318149,,,,,,,,,,,,,,,,,,masks/mask_005.jpg,,,,,,,,,,,,,,,,,,,,,,,,,,,,,,,,,,,,,,,,,,,0,4,4,4,1,,,,,,,,,,,,,,,,,,,,,,,,,,,,,,,,,,,,,,,,,,,,,,
917641,001,2022-11-20_16h28.57.248,Info_measure_main_exp,2022.2.2,Win32,59.62318149,,,,,,,,,,,,,,,,,,masks/mask_002.jpg,,,,,,,,,,,,,,,,,,,,,,,,,,,,,,,,,,,,,,,,,,,,,,,,0,0,0,1,1,,,,,,,,,,,,,,,,,,,,,,,,,,,,,,,,,,,,,,,,,
917641,001,2022-11-20_16h28.57.248,Info_measure_main_exp,2022.2.2,Win32,59.62318149,,,,,,,,,,,,,,,,,,masks/mask_001.jpg,,,,,,,,,,,,,,,,,,,,,,,,,,,,,,,,,,,,,,,,,,,,,,,,0,1,1,0,1,,,,,,,,,,,,,,,,,,,,,,,,,,,,,,,,,,,,,,,,,
917641,001,2022-11-20_16h28.57.248,Info_measure_main_exp,2022.2.2,Win32,59.62318149,,,,,,,,,,,,,,,,,,masks/mask_003.jpg,,,,,,,,,,,,,,,,,,,,,,,,,,,,,,,,,,,,,,,,,,,,,,,,0,2,2,2,1,,,,,,,,,,,,,,,,,,,,,,,,,,,,,,,,,,,,,,,,,
917641,001,2022-11-20_16h28.57.248,Info_measure_main_exp,2022.2.2,Win32,59.62318149,,,,,,,,,,,,,,,,,,masks/mask_005.jpg,,,,,,,,,,,,,,,,,,,,,,,,,,,,,,,,,,,,,,,,,,,,,,,,0,3,3,4,1,,,,,,,,,,,,,,,,,,,,,,,,,,,,,,,,,,,,,,,,,
917641,001,2022-11-20_16h28.57.248,Info_measure_main_exp,2022.2.2,Win32,59.62318149,,,,,,,,,,,,,,,,,,masks/mask_004.jpg,,,,,,,,,,,,,,,,,,,,,,,,,,,,,,,,,,,,,,,,,,,,,,,,0,4,4,3,1,,,,,,,,,,,,,,,,,,,,,,,,,,,,,,,,,,,,,,,,,
917641,001,2022-11-20_16h28.57.248,Info_measure_main_exp,2022.2.2,Win32,59.62318149,,,,,,,,,,,,,,,,,,,,,,,,,,,,,,7,0.7259,1,,,,,,,,,,,,0,131,5,5,2142,2154,absent_patch/patch0002142.jpg,absent_patch/patch0002154.jpg,,,,,,,,,,,,,,,,,,,,0.044308173,0.100447024,1,0,0,response1disk,9,-0.001936463,0.003333434,1,0,0,center_square,0,8,8,9,1,,,,,,,,,,,,,,,,,,,,,,,
917641,001,2022-11-20_16h28.57.248,Info_measure_main_exp,2022.2.2,Win32,59.62318149,,,,,,,,,,,,,,,,,,masks/mask_005.jpg,,,,,,,,,,,,,,,,,,,,,,,,,,,,,,,,,,,,,,,,,,,0,0,0,4,1,,,,,,,,,,,,,,,,,,,,,,,,,,,,,,,,,,,,,,,,,,,,,,
917641,001,2022-11-20_16h28.57.248,Info_measure_main_exp,2022.2.2,Win32,59.62318149,,,,,,,,,,,,,,,,,,masks/mask_003.jpg,,,,,,,,,,,,,,,,,,,,,,,,,,,,,,,,,,,,,,,,,,,0,1,1,2,1,,,,,,,,,,,,,,,,,,,,,,,,,,,,,,,,,,,,,,,,,,,,,,
917641,001,2022-11-20_16h28.57.248,Info_measure_main_exp,2022.2.2,Win32,59.62318149,,,,,,,,,,,,,,,,,,masks/mask_002.jpg,,,,,,,,,,,,,,,,,,,,,,,,,,,,,,,,,,,,,,,,,,,0,2,2,1,1,,,,,,,,,,,,,,,,,,,,,,,,,,,,,,,,,,,,,,,,,,,,,,
917641,001,2022-11-20_16h28.57.248,Info_measure_main_exp,2022.2.2,Win32,59.62318149,,,,,,,,,,,,,,,,,,masks/mask_004.jpg,,,,,,,,,,,,,,,,,,,,,,,,,,,,,,,,,,,,,,,,,,,0,3,3,3,1,,,,,,,,,,,,,,,,,,,,,,,,,,,,,,,,,,,,,,,,,,,,,,
917641,001,2022-11-20_16h28.57.248,Info_measure_main_exp,2022.2.2,Win32,59.62318149,,,,,,,,,,,,,,,,,,masks/mask_001.jpg,,,,,,,,,,,,,,,,,,,,,,,,,,,,,,,,,,,,,,,,,,,0,4,4,0,1,,,,,,,,,,,,,,,,,,,,,,,,,,,,,,,,,,,,,,,,,,,,,,
917641,001,2022-11-20_16h28.57.248,Info_measure_main_exp,2022.2.2,Win32,59.62318149,,,,,,,,,,,,,,,,,,masks/mask_005.jpg,,,,,,,,,,,,,,,,,,,,,,,,,,,,,,,,,,,,,,,,,,,,,,,,0,0,0,4,1,,,,,,,,,,,,,,,,,,,,,,,,,,,,,,,,,,,,,,,,,
917641,001,2022-11-20_16h28.57.248,Info_measure_main_exp,2022.2.2,Win32,59.62318149,,,,,,,,,,,,,,,,,,masks/mask_001.jpg,,,,,,,,,,,,,,,,,,,,,,,,,,,,,,,,,,,,,,,,,,,,,,,,0,1,1,0,1,,,,,,,,,,,,,,,,,,,,,,,,,,,,,,,,,,,,,,,,,
917641,001,2022-11-20_16h28.57.248,Info_measure_main_exp,2022.2.2,Win32,59.62318149,,,,,,,,,,,,,,,,,,masks/mask_003.jpg,,,,,,,,,,,,,,,,,,,,,,,,,,,,,,,,,,,,,,,,,,,,,,,,0,2,2,2,1,,,,,,,,,,,,,,,,,,,,,,,,,,,,,,,,,,,,,,,,,
917641,001,2022-11-20_16h28.57.248,Info_measure_main_exp,2022.2.2,Win32,59.62318149,,,,,,,,,,,,,,,,,,masks/mask_004.jpg,,,,,,,,,,,,,,,,,,,,,,,,,,,,,,,,,,,,,,,,,,,,,,,,0,3,3,3,1,,,,,,,,,,,,,,,,,,,,,,,,,,,,,,,,,,,,,,,,,
917641,001,2022-11-20_16h28.57.248,Info_measure_main_exp,2022.2.2,Win32,59.62318149,,,,,,,,,,,,,,,,,,masks/mask_002.jpg,,,,,,,,,,,,,,,,,,,,,,,,,,,,,,,,,,,,,,,,,,,,,,,,0,4,4,1,1,,,,,,,,,,,,,,,,,,,,,,,,,,,,,,,,,,,,,,,,,
917641,001,2022-11-20_16h28.57.248,Info_measure_main_exp,2022.2.2,Win32,59.62318149,,,,,,,,,,,,,,,,,,,,,,,,,,,,,,5,3.5807,1,,,,,,,,,,,,0,131,5,5,1950,2082,absent_patch/patch0001950.jpg,absent_patch/patch0002082.jpg,,,,,,,,,,,,,,,,,,,,0.142346572,-0.036436947,1,0,0,response3disk,10,0.002687992,-0.004990575,1,0,0,center_square,0,9,9,12,1,,,,,,,,,,,,,,,,,,,,,,,
917641,001,2022-11-20_16h28.57.248,Info_measure_main_exp,2022.2.2,Win32,59.62318149,,,,,,,,,,,,,,,,,,masks/mask_001.jpg,,,,,,,,,,,,,,,,,,,,,,,,,,,,,,,,,,,,,,,,,,,0,0,0,0,1,,,,,,,,,,,,,,,,,,,,,,,,,,,,,,,,,,,,,,,,,,,,,,
917641,001,2022-11-20_16h28.57.248,Info_measure_main_exp,2022.2.2,Win32,59.62318149,,,,,,,,,,,,,,,,,,masks/mask_003.jpg,,,,,,,,,,,,,,,,,,,,,,,,,,,,,,,,,,,,,,,,,,,0,1,1,2,1,,,,,,,,,,,,,,,,,,,,,,,,,,,,,,,,,,,,,,,,,,,,,,
917641,001,2022-11-20_16h28.57.248,Info_measure_main_exp,2022.2.2,Win32,59.62318149,,,,,,,,,,,,,,,,,,masks/mask_005.jpg,,,,,,,,,,,,,,,,,,,,,,,,,,,,,,,,,,,,,,,,,,,0,2,2,4,1,,,,,,,,,,,,,,,,,,,,,,,,,,,,,,,,,,,,,,,,,,,,,,
917641,001,2022-11-20_16h28.57.248,Info_measure_main_exp,2022.2.2,Win32,59.62318149,,,,,,,,,,,,,,,,,,masks/mask_004.jpg,,,,,,,,,,,,,,,,,,,,,,,,,,,,,,,,,,,,,,,,,,,0,3,3,3,1,,,,,,,,,,,,,,,,,,,,,,,,,,,,,,,,,,,,,,,,,,,,,,
917641,001,2022-11-20_16h28.57.248,Info_measure_main_exp,2022.2.2,Win32,59.62318149,,,,,,,,,,,,,,,,,,masks/mask_002.jpg,,,,,,,,,,,,,,,,,,,,,,,,,,,,,,,,,,,,,,,,,,,0,4,4,1,1,,,,,,,,,,,,,,,,,,,,,,,,,,,,,,,,,,,,,,,,,,,,,,
917641,001,2022-11-20_16h28.57.248,Info_measure_main_exp,2022.2.2,Win32,59.62318149,,,,,,,,,,,,,,,,,,masks/mask_002.jpg,,,,,,,,,,,,,,,,,,,,,,,,,,,,,,,,,,,,,,,,,,,,,,,,0,0,0,1,1,,,,,,,,,,,,,,,,,,,,,,,,,,,,,,,,,,,,,,,,,
917641,001,2022-11-20_16h28.57.248,Info_measure_main_exp,2022.2.2,Win32,59.62318149,,,,,,,,,,,,,,,,,,masks/mask_004.jpg,,,,,,,,,,,,,,,,,,,,,,,,,,,,,,,,,,,,,,,,,,,,,,,,0,1,1,3,1,,,,,,,,,,,,,,,,,,,,,,,,,,,,,,,,,,,,,,,,,
917641,001,2022-11-20_16h28.57.248,Info_measure_main_exp,2022.2.2,Win32,59.62318149,,,,,,,,,,,,,,,,,,masks/mask_001.jpg,,,,,,,,,,,,,,,,,,,,,,,,,,,,,,,,,,,,,,,,,,,,,,,,0,2,2,0,1,,,,,,,,,,,,,,,,,,,,,,,,,,,,,,,,,,,,,,,,,
917641,001,2022-11-20_16h28.57.248,Info_measure_main_exp,2022.2.2,Win32,59.62318149,,,,,,,,,,,,,,,,,,masks/mask_003.jpg,,,,,,,,,,,,,,,,,,,,,,,,,,,,,,,,,,,,,,,,,,,,,,,,0,3,3,2,1,,,,,,,,,,,,,,,,,,,,,,,,,,,,,,,,,,,,,,,,,
917641,001,2022-11-20_16h28.57.248,Info_measure_main_exp,2022.2.2,Win32,59.62318149,,,,,,,,,,,,,,,,,,masks/mask_005.jpg,,,,,,,,,,,,,,,,,,,,,,,,,,,,,,,,,,,,,,,,,,,,,,,,0,4,4,4,1,,,,,,,,,,,,,,,,,,,,,,,,,,,,,,,,,,,,,,,,,
917641,001,2022-11-20_16h28.57.248,Info_measure_main_exp,2022.2.2,Win32,59.62318149,,,,,,,,,,,,,,,,,,,,,,,,,,,,,,0,1.2317,1,,,,,,,,,,,,0,131,5,5,2142,2142,absent_patch/patch0002142.jpg,absent_patch/patch0002142.jpg,,,,,,,,,,,,,,,,,,,,-0.032457754,0.079174461,1,0,0,response7disk,11,-0.009335572,-0.003140866,1,0,0,center_square,0,10,10,13,1,,,,,,,,,,,,,,,,,,,,,,,
917641,001,2022-11-20_16h28.57.248,Info_measure_main_exp,2022.2.2,Win32,59.62318149,,,,,,,,,,,,,,,,,,masks/mask_002.jpg,,,,,,,,,,,,,,,,,,,,,,,,,,,,,,,,,,,,,,,,,,,0,0,0,1,1,,,,,,,,,,,,,,,,,,,,,,,,,,,,,,,,,,,,,,,,,,,,,,
917641,001,2022-11-20_16h28.57.248,Info_measure_main_exp,2022.2.2,Win32,59.62318149,,,,,,,,,,,,,,,,,,masks/mask_004.jpg,,,,,,,,,,,,,,,,,,,,,,,,,,,,,,,,,,,,,,,,,,,0,1,1,3,1,,,,,,,,,,,,,,,,,,,,,,,,,,,,,,,,,,,,,,,,,,,,,,
917641,001,2022-11-20_16h28.57.248,Info_measure_main_exp,2022.2.2,Win32,59.62318149,,,,,,,,,,,,,,,,,,masks/mask_003.jpg,,,,,,,,,,,,,,,,,,,,,,,,,,,,,,,,,,,,,,,,,,,0,2,2,2,1,,,,,,,,,,,,,,,,,,,,,,,,,,,,,,,,,,,,,,,,,,,,,,
917641,001,2022-11-20_16h28.57.248,Info_measure_main_exp,2022.2.2,Win32,59.62318149,,,,,,,,,,,,,,,,,,masks/mask_005.jpg,,,,,,,,,,,,,,,,,,,,,,,,,,,,,,,,,,,,,,,,,,,0,3,3,4,1,,,,,,,,,,,,,,,,,,,,,,,,,,,,,,,,,,,,,,,,,,,,,,
917641,001,2022-11-20_16h28.57.248,Info_measure_main_exp,2022.2.2,Win32,59.62318149,,,,,,,,,,,,,,,,,,masks/mask_001.jpg,,,,,,,,,,,,,,,,,,,,,,,,,,,,,,,,,,,,,,,,,,,0,4,4,0,1,,,,,,,,,,,,,,,,,,,,,,,,,,,,,,,,,,,,,,,,,,,,,,
917641,001,2022-11-20_16h28.57.248,Info_measure_main_exp,2022.2.2,Win32,59.62318149,,,,,,,,,,,,,,,,,,masks/mask_002.jpg,,,,,,,,,,,,,,,,,,,,,,,,,,,,,,,,,,,,,,,,,,,,,,,,0,0,0,1,1,,,,,,,,,,,,,,,,,,,,,,,,,,,,,,,,,,,,,,,,,
917641,001,2022-11-20_16h28.57.248,Info_measure_main_exp,2022.2.2,Win32,59.62318149,,,,,,,,,,,,,,,,,,masks/mask_003.jpg,,,,,,,,,,,,,,,,,,,,,,,,,,,,,,,,,,,,,,,,,,,,,,,,0,1,1,2,1,,,,,,,,,,,,,,,,,,,,,,,,,,,,,,,,,,,,,,,,,
917641,001,2022-11-20_16h28.57.248,Info_measure_main_exp,2022.2.2,Win32,59.62318149,,,,,,,,,,,,,,,,,,masks/mask_005.jpg,,,,,,,,,,,,,,,,,,,,,,,,,,,,,,,,,,,,,,,,,,,,,,,,0,2,2,4,1,,,,,,,,,,,,,,,,,,,,,,,,,,,,,,,,,,,,,,,,,
917641,001,2022-11-20_16h28.57.248,Info_measure_main_exp,2022.2.2,Win32,59.62318149,,,,,,,,,,,,,,,,,,masks/mask_004.jpg,,,,,,,,,,,,,,,,,,,,,,,,,,,,,,,,,,,,,,,,,,,,,,,,0,3,3,3,1,,,,,,,,,,,,,,,,,,,,,,,,,,,,,,,,,,,,,,,,,
917641,001,2022-11-20_16h28.57.248,Info_measure_main_exp,2022.2.2,Win32,59.62318149,,,,,,,,,,,,,,,,,,masks/mask_001.jpg,,,,,,,,,,,,,,,,,,,,,,,,,,,,,,,,,,,,,,,,,,,,,,,,0,4,4,0,1,,,,,,,,,,,,,,,,,,,,,,,,,,,,,,,,,,,,,,,,,
917641,001,2022-11-20_16h28.57.248,Info_measure_main_exp,2022.2.2,Win32,59.62318149,,,,,,,,,,,,,,,,,,,,,,,,,,,,,,0,0.791,1,,,,,,,,,,,,0,131,5,5,2298,2298,absent_patch/patch0002298.jpg,absent_patch/patch0002298.jpg,,,,,,,,,,,,,,,,,,,,-0.044481408,0.109695933,1,0,0,response7disk,12,0.000838283,0.007032989,1,0,0,center_square,0,11,11,37,1,,,,,,,,,,,,,,,,,,,,,,,
917641,001,2022-11-20_16h28.57.248,Info_measure_main_exp,2022.2.2,Win32,59.62318149,,,,,,,,,,,,,,,,,,masks/mask_002.jpg,,,,,,,,,,,,,,,,,,,,,,,,,,,,,,,,,,,,,,,,,,,0,0,0,1,1,,,,,,,,,,,,,,,,,,,,,,,,,,,,,,,,,,,,,,,,,,,,,,
917641,001,2022-11-20_16h28.57.248,Info_measure_main_exp,2022.2.2,Win32,59.62318149,,,,,,,,,,,,,,,,,,masks/mask_004.jpg,,,,,,,,,,,,,,,,,,,,,,,,,,,,,,,,,,,,,,,,,,,0,1,1,3,1,,,,,,,,,,,,,,,,,,,,,,,,,,,,,,,,,,,,,,,,,,,,,,
917641,001,2022-11-20_16h28.57.248,Info_measure_main_exp,2022.2.2,Win32,59.62318149,,,,,,,,,,,,,,,,,,masks/mask_005.jpg,,,,,,,,,,,,,,,,,,,,,,,,,,,,,,,,,,,,,,,,,,,0,2,2,4,1,,,,,,,,,,,,,,,,,,,,,,,,,,,,,,,,,,,,,,,,,,,,,,
917641,001,2022-11-20_16h28.57.248,Info_measure_main_exp,2022.2.2,Win32,59.62318149,,,,,,,,,,,,,,,,,,masks/mask_003.jpg,,,,,,,,,,,,,,,,,,,,,,,,,,,,,,,,,,,,,,,,,,,0,3,3,2,1,,,,,,,,,,,,,,,,,,,,,,,,,,,,,,,,,,,,,,,,,,,,,,
917641,001,2022-11-20_16h28.57.248,Info_measure_main_exp,2022.2.2,Win32,59.62318149,,,,,,,,,,,,,,,,,,masks/mask_001.jpg,,,,,,,,,,,,,,,,,,,,,,,,,,,,,,,,,,,,,,,,,,,0,4,4,0,1,,,,,,,,,,,,,,,,,,,,,,,,,,,,,,,,,,,,,,,,,,,,,,
917641,001,2022-11-20_16h28.57.248,Info_measure_main_exp,2022.2.2,Win32,59.62318149,,,,,,,,,,,,,,,,,,masks/mask_001.jpg,,,,,,,,,,,,,,,,,,,,,,,,,,,,,,,,,,,,,,,,,,,,,,,,0,0,0,0,1,,,,,,,,,,,,,,,,,,,,,,,,,,,,,,,,,,,,,,,,,
917641,001,2022-11-20_16h28.57.248,Info_measure_main_exp,2022.2.2,Win32,59.62318149,,,,,,,,,,,,,,,,,,masks/mask_003.jpg,,,,,,,,,,,,,,,,,,,,,,,,,,,,,,,,,,,,,,,,,,,,,,,,0,1,1,2,1,,,,,,,,,,,,,,,,,,,,,,,,,,,,,,,,,,,,,,,,,
917641,001,2022-11-20_16h28.57.248,Info_measure_main_exp,2022.2.2,Win32,59.62318149,,,,,,,,,,,,,,,,,,masks/mask_002.jpg,,,,,,,,,,,,,,,,,,,,,,,,,,,,,,,,,,,,,,,,,,,,,,,,0,2,2,1,1,,,,,,,,,,,,,,,,,,,,,,,,,,,,,,,,,,,,,,,,,
917641,001,2022-11-20_16h28.57.248,Info_measure_main_exp,2022.2.2,Win32,59.62318149,,,,,,,,,,,,,,,,,,masks/mask_005.jpg,,,,,,,,,,,,,,,,,,,,,,,,,,,,,,,,,,,,,,,,,,,,,,,,0,3,3,4,1,,,,,,,,,,,,,,,,,,,,,,,,,,,,,,,,,,,,,,,,,
917641,001,2022-11-20_16h28.57.248,Info_measure_main_exp,2022.2.2,Win32,59.62318149,,,,,,,,,,,,,,,,,,masks/mask_004.jpg,,,,,,,,,,,,,,,,,,,,,,,,,,,,,,,,,,,,,,,,,,,,,,,,0,4,4,3,1,,,,,,,,,,,,,,,,,,,,,,,,,,,,,,,,,,,,,,,,,
917641,001,2022-11-20_16h28.57.248,Info_measure_main_exp,2022.2.2,Win32,59.62318149,,,,,,,,,,,,,,,,,,,,,,,,,,,,,,7,0.7653,1,,,,,,,,,,,,0,131,5,5,2250,2238,absent_patch/patch0002250.jpg,absent_patch/patch0002238.jpg,,,,,,,,,,,,,,,,,,,,0.048007773,0.135592814,1,0,0,response1disk,13,-0.004711117,-0.003140866,1,0,0,center_square,0,12,12,110,1,,,,,,,,,,,,,,,,,,,,,,,
917641,001,2022-11-20_16h28.57.248,Info_measure_main_exp,2022.2.2,Win32,59.62318149,,,,,,,,,,,,,,,,,,masks/mask_005.jpg,,,,,,,,,,,,,,,,,,,,,,,,,,,,,,,,,,,,,,,,,,,0,0,0,4,1,,,,,,,,,,,,,,,,,,,,,,,,,,,,,,,,,,,,,,,,,,,,,,
917641,001,2022-11-20_16h28.57.248,Info_measure_main_exp,2022.2.2,Win32,59.62318149,,,,,,,,,,,,,,,,,,masks/mask_004.jpg,,,,,,,,,,,,,,,,,,,,,,,,,,,,,,,,,,,,,,,,,,,0,1,1,3,1,,,,,,,,,,,,,,,,,,,,,,,,,,,,,,,,,,,,,,,,,,,,,,
917641,001,2022-11-20_16h28.57.248,Info_measure_main_exp,2022.2.2,Win32,59.62318149,,,,,,,,,,,,,,,,,,masks/mask_002.jpg,,,,,,,,,,,,,,,,,,,,,,,,,,,,,,,,,,,,,,,,,,,0,2,2,1,1,,,,,,,,,,,,,,,,,,,,,,,,,,,,,,,,,,,,,,,,,,,,,,
917641,001,2022-11-20_16h28.57.248,Info_measure_main_exp,2022.2.2,Win32,59.62318149,,,,,,,,,,,,,,,,,,masks/mask_003.jpg,,,,,,,,,,,,,,,,,,,,,,,,,,,,,,,,,,,,,,,,,,,0,3,3,2,1,,,,,,,,,,,,,,,,,,,,,,,,,,,,,,,,,,,,,,,,,,,,,,
917641,001,2022-11-20_16h28.57.248,Info_measure_main_exp,2022.2.2,Win32,59.62318149,,,,,,,,,,,,,,,,,,masks/mask_001.jpg,,,,,,,,,,,,,,,,,,,,,,,,,,,,,,,,,,,,,,,,,,,0,4,4,0,1,,,,,,,,,,,,,,,,,,,,,,,,,,,,,,,,,,,,,,,,,,,,,,
917641,001,2022-11-20_16h28.57.248,Info_measure_main_exp,2022.2.2,Win32,59.62318149,,,,,,,,,,,,,,,,,,masks/mask_002.jpg,,,,,,,,,,,,,,,,,,,,,,,,,,,,,,,,,,,,,,,,,,,,,,,,0,0,0,1,1,,,,,,,,,,,,,,,,,,,,,,,,,,,,,,,,,,,,,,,,,
917641,001,2022-11-20_16h28.57.248,Info_measure_main_exp,2022.2.2,Win32,59.62318149,,,,,,,,,,,,,,,,,,masks/mask_001.jpg,,,,,,,,,,,,,,,,,,,,,,,,,,,,,,,,,,,,,,,,,,,,,,,,0,1,1,0,1,,,,,,,,,,,,,,,,,,,,,,,,,,,,,,,,,,,,,,,,,
917641,001,2022-11-20_16h28.57.248,Info_measure_main_exp,2022.2.2,Win32,59.62318149,,,,,,,,,,,,,,,,,,masks/mask_003.jpg,,,,,,,,,,,,,,,,,,,,,,,,,,,,,,,,,,,,,,,,,,,,,,,,0,2,2,2,1,,,,,,,,,,,,,,,,,,,,,,,,,,,,,,,,,,,,,,,,,
917641,001,2022-11-20_16h28.57.248,Info_measure_main_exp,2022.2.2,Win32,59.62318149,,,,,,,,,,,,,,,,,,masks/mask_004.jpg,,,,,,,,,,,,,,,,,,,,,,,,,,,,,,,,,,,,,,,,,,,,,,,,0,3,3,3,1,,,,,,,,,,,,,,,,,,,,,,,,,,,,,,,,,,,,,,,,,
917641,001,2022-11-20_16h28.57.248,Info_measure_main_exp,2022.2.2,Win32,59.62318149,,,,,,,,,,,,,,,,,,masks/mask_005.jpg,,,,,,,,,,,,,,,,,,,,,,,,,,,,,,,,,,,,,,,,,,,,,,,,0,4,4,4,1,,,,,,,,,,,,,,,,,,,,,,,,,,,,,,,,,,,,,,,,,
917641,001,2022-11-20_16h28.57.248,Info_measure_main_exp,2022.2.2,Win32,59.62318149,,,,,,,,,,,,,,,,,,,,,,,,,,,,,,7,1.2153,1,,,,,,,,,,,,0,131,5,5,2154,2190,absent_patch/patch0002154.jpg,absent_patch/patch0002190.jpg,,,,,,,,,,,,,,,,,,,,0.047082827,0.105996333,1,0,0,response1disk,14,0.002687992,0.007957889,1,0,0,center_square,0,13,13,68,1,,,,,,,,,,,,,,,,,,,,,,,
917641,001,2022-11-20_16h28.57.248,Info_measure_main_exp,2022.2.2,Win32,59.62318149,,,,,,,,,,,,,,,,,,masks/mask_003.jpg,,,,,,,,,,,,,,,,,,,,,,,,,,,,,,,,,,,,,,,,,,,0,0,0,2,1,,,,,,,,,,,,,,,,,,,,,,,,,,,,,,,,,,,,,,,,,,,,,,
917641,001,2022-11-20_16h28.57.248,Info_measure_main_exp,2022.2.2,Win32,59.62318149,,,,,,,,,,,,,,,,,,masks/mask_005.jpg,,,,,,,,,,,,,,,,,,,,,,,,,,,,,,,,,,,,,,,,,,,0,1,1,4,1,,,,,,,,,,,,,,,,,,,,,,,,,,,,,,,,,,,,,,,,,,,,,,
917641,001,2022-11-20_16h28.57.248,Info_measure_main_exp,2022.2.2,Win32,59.62318149,,,,,,,,,,,,,,,,,,masks/mask_004.jpg,,,,,,,,,,,,,,,,,,,,,,,,,,,,,,,,,,,,,,,,,,,0,2,2,3,1,,,,,,,,,,,,,,,,,,,,,,,,,,,,,,,,,,,,,,,,,,,,,,
917641,001,2022-11-20_16h28.57.248,Info_measure_main_exp,2022.2.2,Win32,59.62318149,,,,,,,,,,,,,,,,,,masks/mask_002.jpg,,,,,,,,,,,,,,,,,,,,,,,,,,,,,,,,,,,,,,,,,,,0,3,3,1,1,,,,,,,,,,,,,,,,,,,,,,,,,,,,,,,,,,,,,,,,,,,,,,
917641,001,2022-11-20_16h28.57.248,Info_measure_main_exp,2022.2.2,Win32,59.62318149,,,,,,,,,,,,,,,,,,masks/mask_001.jpg,,,,,,,,,,,,,,,,,,,,,,,,,,,,,,,,,,,,,,,,,,,0,4,4,0,1,,,,,,,,,,,,,,,,,,,,,,,,,,,,,,,,,,,,,,,,,,,,,,
917641,001,2022-11-20_16h28.57.248,Info_measure_main_exp,2022.2.2,Win32,59.62318149,,,,,,,,,,,,,,,,,,masks/mask_004.jpg,,,,,,,,,,,,,,,,,,,,,,,,,,,,,,,,,,,,,,,,,,,,,,,,0,0,0,3,1,,,,,,,,,,,,,,,,,,,,,,,,,,,,,,,,,,,,,,,,,
917641,001,2022-11-20_16h28.57.248,Info_measure_main_exp,2022.2.2,Win32,59.62318149,,,,,,,,,,,,,,,,,,masks/mask_001.jpg,,,,,,,,,,,,,,,,,,,,,,,,,,,,,,,,,,,,,,,,,,,,,,,,0,1,1,0,1,,,,,,,,,,,,,,,,,,,,,,,,,,,,,,,,,,,,,,,,,
917641,001,2022-11-20_16h28.57.248,Info_measure_main_exp,2022.2.2,Win32,59.62318149,,,,,,,,,,,,,,,,,,masks/mask_003.jpg,,,,,,,,,,,,,,,,,,,,,,,,,,,,,,,,,,,,,,,,,,,,,,,,0,2,2,2,1,,,,,,,,,,,,,,,,,,,,,,,,,,,,,,,,,,,,,,,,,
917641,001,2022-11-20_16h28.57.248,Info_measure_main_exp,2022.2.2,Win32,59.62318149,,,,,,,,,,,,,,,,,,masks/mask_002.jpg,,,,,,,,,,,,,,,,,,,,,,,,,,,,,,,,,,,,,,,,,,,,,,,,0,3,3,1,1,,,,,,,,,,,,,,,,,,,,,,,,,,,,,,,,,,,,,,,,,
917641,001,2022-11-20_16h28.57.248,Info_measure_main_exp,2022.2.2,Win32,59.62318149,,,,,,,,,,,,,,,,,,masks/mask_005.jpg,,,,,,,,,,,,,,,,,,,,,,,,,,,,,,,,,,,,,,,,,,,,,,,,0,4,4,4,1,,,,,,,,,,,,,,,,,,,,,,,,,,,,,,,,,,,,,,,,,
917641,001,2022-11-20_16h28.57.248,Info_measure_main_exp,2022.2.2,Win32,59.62318149,,,,,,,,,,,,,,,,,,,,,,,,,,,,,,7,1.7162,1,,,,,,,,,,,,0,131,5,5,1974,2142,absent_patch/patch0001974.jpg,absent_patch/patch0002142.jpg,,,,,,,,,,,,,,,,,,,,0.027660064,0.099522124,1,0,0,response1disk,15,0.005462737,0.012582343,1,0,0,center_square,0,14,14,38,1,,,,,,,,,,,,,,,,,,,,,,,
917641,001,2022-11-20_16h28.57.248,Info_measure_main_exp,2022.2.2,Win32,59.62318149,,,,,,,,,,,,,,,,,,masks/mask_005.jpg,,,,,,,,,,,,,,,,,,,,,,,,,,,,,,,,,,,,,,,,,,,0,0,0,4,1,,,,,,,,,,,,,,,,,,,,,,,,,,,,,,,,,,,,,,,,,,,,,,
917641,001,2022-11-20_16h28.57.248,Info_measure_main_exp,2022.2.2,Win32,59.62318149,,,,,,,,,,,,,,,,,,masks/mask_001.jpg,,,,,,,,,,,,,,,,,,,,,,,,,,,,,,,,,,,,,,,,,,,0,1,1,0,1,,,,,,,,,,,,,,,,,,,,,,,,,,,,,,,,,,,,,,,,,,,,,,
917641,001,2022-11-20_16h28.57.248,Info_measure_main_exp,2022.2.2,Win32,59.62318149,,,,,,,,,,,,,,,,,,masks/mask_002.jpg,,,,,,,,,,,,,,,,,,,,,,,,,,,,,,,,,,,,,,,,,,,0,2,2,1,1,,,,,,,,,,,,,,,,,,,,,,,,,,,,,,,,,,,,,,,,,,,,,,
917641,001,2022-11-20_16h28.57.248,Info_measure_main_exp,2022.2.2,Win32,59.62318149,,,,,,,,,,,,,,,,,,masks/mask_003.jpg,,,,,,,,,,,,,,,,,,,,,,,,,,,,,,,,,,,,,,,,,,,0,3,3,2,1,,,,,,,,,,,,,,,,,,,,,,,,,,,,,,,,,,,,,,,,,,,,,,
917641,001,2022-11-20_16h28.57.248,Info_measure_main_exp,2022.2.2,Win32,59.62318149,,,,,,,,,,,,,,,,,,masks/mask_004.jpg,,,,,,,,,,,,,,,,,,,,,,,,,,,,,,,,,,,,,,,,,,,0,4,4,3,1,,,,,,,,,,,,,,,,,,,,,,,,,,,,,,,,,,,,,,,,,,,,,,
917641,001,2022-11-20_16h28.57.248,Info_measure_main_exp,2022.2.2,Win32,59.62318149,,,,,,,,,,,,,,,,,,masks/mask_001.jpg,,,,,,,,,,,,,,,,,,,,,,,,,,,,,,,,,,,,,,,,,,,,,,,,0,0,0,0,1,,,,,,,,,,,,,,,,,,,,,,,,,,,,,,,,,,,,,,,,,
917641,001,2022-11-20_16h28.57.248,Info_measure_main_exp,2022.2.2,Win32,59.62318149,,,,,,,,,,,,,,,,,,masks/mask_005.jpg,,,,,,,,,,,,,,,,,,,,,,,,,,,,,,,,,,,,,,,,,,,,,,,,0,1,1,4,1,,,,,,,,,,,,,,,,,,,,,,,,,,,,,,,,,,,,,,,,,
917641,001,2022-11-20_16h28.57.248,Info_measure_main_exp,2022.2.2,Win32,59.62318149,,,,,,,,,,,,,,,,,,masks/mask_002.jpg,,,,,,,,,,,,,,,,,,,,,,,,,,,,,,,,,,,,,,,,,,,,,,,,0,2,2,1,1,,,,,,,,,,,,,,,,,,,,,,,,,,,,,,,,,,,,,,,,,
917641,001,2022-11-20_16h28.57.248,Info_measure_main_exp,2022.2.2,Win32,59.62318149,,,,,,,,,,,,,,,,,,masks/mask_004.jpg,,,,,,,,,,,,,,,,,,,,,,,,,,,,,,,,,,,,,,,,,,,,,,,,0,3,3,3,1,,,,,,,,,,,,,,,,,,,,,,,,,,,,,,,,,,,,,,,,,
917641,001,2022-11-20_16h28.57.248,Info_measure_main_exp,2022.2.2,Win32,59.62318149,,,,,,,,,,,,,,,,,,masks/mask_003.jpg,,,,,,,,,,,,,,,,,,,,,,,,,,,,,,,,,,,,,,,,,,,,,,,,0,4,4,2,1,,,,,,,,,,,,,,,,,,,,,,,,,,,,,,,,,,,,,,,,,
917641,001,2022-11-20_16h28.57.248,Info_measure_main_exp,2022.2.2,Win32,59.62318149,,,,,,,,,,,,,,,,,,,,,,,,,,,,,,7,0.8485,1,,,,,,,,,,,,0,131,5,5,2250,2298,absent_patch/patch0002250.jpg,absent_patch/patch0002298.jpg,,,,,,,,,,,,,,,,,,,,0.023960555,0.068075797,1,0,0,response1disk,16,0.001763228,0.000558644,1,0,0,center_square,0,15,15,59,1,,,,,,,,,,,,,,,,,,,,,,,
917641,001,2022-11-20_16h28.57.248,Info_measure_main_exp,2022.2.2,Win32,59.62318149,,,,,,,,,,,,,,,,,,masks/mask_004.jpg,,,,,,,,,,,,,,,,,,,,,,,,,,,,,,,,,,,,,,,,,,,0,0,0,3,1,,,,,,,,,,,,,,,,,,,,,,,,,,,,,,,,,,,,,,,,,,,,,,
917641,001,2022-11-20_16h28.57.248,Info_measure_main_exp,2022.2.2,Win32,59.62318149,,,,,,,,,,,,,,,,,,masks/mask_001.jpg,,,,,,,,,,,,,,,,,,,,,,,,,,,,,,,,,,,,,,,,,,,0,1,1,0,1,,,,,,,,,,,,,,,,,,,,,,,,,,,,,,,,,,,,,,,,,,,,,,
917641,001,2022-11-20_16h28.57.248,Info_measure_main_exp,2022.2.2,Win32,59.62318149,,,,,,,,,,,,,,,,,,masks/mask_003.jpg,,,,,,,,,,,,,,,,,,,,,,,,,,,,,,,,,,,,,,,,,,,0,2,2,2,1,,,,,,,,,,,,,,,,,,,,,,,,,,,,,,,,,,,,,,,,,,,,,,
917641,001,2022-11-20_16h28.57.248,Info_measure_main_exp,2022.2.2,Win32,59.62318149,,,,,,,,,,,,,,,,,,masks/mask_002.jpg,,,,,,,,,,,,,,,,,,,,,,,,,,,,,,,,,,,,,,,,,,,0,3,3,1,1,,,,,,,,,,,,,,,,,,,,,,,,,,,,,,,,,,,,,,,,,,,,,,
917641,001,2022-11-20_16h28.57.248,Info_measure_main_exp,2022.2.2,Win32,59.62318149,,,,,,,,,,,,,,,,,,masks/mask_005.jpg,,,,,,,,,,,,,,,,,,,,,,,,,,,,,,,,,,,,,,,,,,,0,4,4,4,1,,,,,,,,,,,,,,,,,,,,,,,,,,,,,,,,,,,,,,,,,,,,,,
917641,001,2022-11-20_16h28.57.248,Info_measure_main_exp,2022.2.2,Win32,59.62318149,,,,,,,,,,,,,,,,,,masks/mask_004.jpg,,,,,,,,,,,,,,,,,,,,,,,,,,,,,,,,,,,,,,,,,,,,,,,,0,0,0,3,1,,,,,,,,,,,,,,,,,,,,,,,,,,,,,,,,,,,,,,,,,
917641,001,2022-11-20_16h28.57.248,Info_measure_main_exp,2022.2.2,Win32,59.62318149,,,,,,,,,,,,,,,,,,masks/mask_002.jpg,,,,,,,,,,,,,,,,,,,,,,,,,,,,,,,,,,,,,,,,,,,,,,,,0,1,1,1,1,,,,,,,,,,,,,,,,,,,,,,,,,,,,,,,,,,,,,,,,,
917641,001,2022-11-20_16h28.57.248,Info_measure_main_exp,2022.2.2,Win32,59.62318149,,,,,,,,,,,,,,,,,,masks/mask_003.jpg,,,,,,,,,,,,,,,,,,,,,,,,,,,,,,,,,,,,,,,,,,,,,,,,0,2,2,2,1,,,,,,,,,,,,,,,,,,,,,,,,,,,,,,,,,,,,,,,,,
917641,001,2022-11-20_16h28.57.248,Info_measure_main_exp,2022.2.2,Win32,59.62318149,,,,,,,,,,,,,,,,,,masks/mask_005.jpg,,,,,,,,,,,,,,,,,,,,,,,,,,,,,,,,,,,,,,,,,,,,,,,,0,3,3,4,1,,,,,,,,,,,,,,,,,,,,,,,,,,,,,,,,,,,,,,,,,
917641,001,2022-11-20_16h28.57.248,Info_measure_main_exp,2022.2.2,Win32,59.62318149,,,,,,,,,,,,,,,,,,masks/mask_001.jpg,,,,,,,,,,,,,,,,,,,,,,,,,,,,,,,,,,,,,,,,,,,,,,,,0,4,4,0,1,,,,,,,,,,,,,,,,,,,,,,,,,,,,,,,,,,,,,,,,,
917641,001,2022-11-20_16h28.57.248,Info_measure_main_exp,2022.2.2,Win32,59.62318149,,,,,,,,,,,,,,,,,,,,,,,,,,,,,,7,0.632,1,,,,,,,,,,,,0,131,5,5,2274,2142,absent_patch/patch0002274.jpg,absent_patch/patch0002142.jpg,,,,,,,,,,,,,,,,,,,,0.033209464,0.097672279,1,0,0,response1disk,17,-0.002861227,0.009807553,1,0,0,center_square,0,16,16,75,1,,,,,,,,,,,,,,,,,,,,,,,
917641,001,2022-11-20_16h28.57.248,Info_measure_main_exp,2022.2.2,Win32,59.62318149,,,,,,,,,,,,,,,,,,masks/mask_002.jpg,,,,,,,,,,,,,,,,,,,,,,,,,,,,,,,,,,,,,,,,,,,0,0,0,1,1,,,,,,,,,,,,,,,,,,,,,,,,,,,,,,,,,,,,,,,,,,,,,,
917641,001,2022-11-20_16h28.57.248,Info_measure_main_exp,2022.2.2,Win32,59.62318149,,,,,,,,,,,,,,,,,,masks/mask_005.jpg,,,,,,,,,,,,,,,,,,,,,,,,,,,,,,,,,,,,,,,,,,,0,1,1,4,1,,,,,,,,,,,,,,,,,,,,,,,,,,,,,,,,,,,,,,,,,,,,,,
917641,001,2022-11-20_16h28.57.248,Info_measure_main_exp,2022.2.2,Win32,59.62318149,,,,,,,,,,,,,,,,,,masks/mask_001.jpg,,,,,,,,,,,,,,,,,,,,,,,,,,,,,,,,,,,,,,,,,,,0,2,2,0,1,,,,,,,,,,,,,,,,,,,,,,,,,,,,,,,,,,,,,,,,,,,,,,
917641,001,2022-11-20_16h28.57.248,Info_measure_main_exp,2022.2.2,Win32,59.62318149,,,,,,,,,,,,,,,,,,masks/mask_004.jpg,,,,,,,,,,,,,,,,,,,,,,,,,,,,,,,,,,,,,,,,,,,0,3,3,3,1,,,,,,,,,,,,,,,,,,,,,,,,,,,,,,,,,,,,,,,,,,,,,,
917641,001,2022-11-20_16h28.57.248,Info_measure_main_exp,2022.2.2,Win32,59.62318149,,,,,,,,,,,,,,,,,,masks/mask_003.jpg,,,,,,,,,,,,,,,,,,,,,,,,,,,,,,,,,,,,,,,,,,,0,4,4,2,1,,,,,,,,,,,,,,,,,,,,,,,,,,,,,,,,,,,,,,,,,,,,,,
917641,001,2022-11-20_16h28.57.248,Info_measure_main_exp,2022.2.2,Win32,59.62318149,,,,,,,,,,,,,,,,,,masks/mask_004.jpg,,,,,,,,,,,,,,,,,,,,,,,,,,,,,,,,,,,,,,,,,,,,,,,,0,0,0,3,1,,,,,,,,,,,,,,,,,,,,,,,,,,,,,,,,,,,,,,,,,
917641,001,2022-11-20_16h28.57.248,Info_measure_main_exp,2022.2.2,Win32,59.62318149,,,,,,,,,,,,,,,,,,masks/mask_005.jpg,,,,,,,,,,,,,,,,,,,,,,,,,,,,,,,,,,,,,,,,,,,,,,,,0,1,1,4,1,,,,,,,,,,,,,,,,,,,,,,,,,,,,,,,,,,,,,,,,,
917641,001,2022-11-20_16h28.57.248,Info_measure_main_exp,2022.2.2,Win32,59.62318149,,,,,,,,,,,,,,,,,,masks/mask_001.jpg,,,,,,,,,,,,,,,,,,,,,,,,,,,,,,,,,,,,,,,,,,,,,,,,0,2,2,0,1,,,,,,,,,,,,,,,,,,,,,,,,,,,,,,,,,,,,,,,,,
917641,001,2022-11-20_16h28.57.248,Info_measure_main_exp,2022.2.2,Win32,59.62318149,,,,,,,,,,,,,,,,,,masks/mask_002.jpg,,,,,,,,,,,,,,,,,,,,,,,,,,,,,,,,,,,,,,,,,,,,,,,,0,3,3,1,1,,,,,,,,,,,,,,,,,,,,,,,,,,,,,,,,,,,,,,,,,
917641,001,2022-11-20_16h28.57.248,Info_measure_main_exp,2022.2.2,Win32,59.62318149,,,,,,,,,,,,,,,,,,masks/mask_003.jpg,,,,,,,,,,,,,,,,,,,,,,,,,,,,,,,,,,,,,,,,,,,,,,,,0,4,4,2,1,,,,,,,,,,,,,,,,,,,,,,,,,,,,,,,,,,,,,,,,,
917641,001,2022-11-20_16h28.57.248,Info_measure_main_exp,2022.2.2,Win32,59.62318149,,,,,,,,,,,,,,,,,,,,,,,,,,,,,,6,4.5117,1,,,,,,,,,,,,0,131,5,5,2298,2274,absent_patch/patch0002298.jpg,absent_patch/patch0002274.jpg,,,,,,,,,,,,,,,,,,,,0.097027153,0.063451342,1,0,0,response1disk,18,-0.007485681,-0.00036612,1,0,0,center_square,0,17,17,1,1,,,,,,,,,,,,,,,,,,,,,,,
917641,001,2022-11-20_16h28.57.248,Info_measure_main_exp,2022.2.2,Win32,59.62318149,,,,,,,,,,,,,,,,,,masks/mask_003.jpg,,,,,,,,,,,,,,,,,,,,,,,,,,,,,,,,,,,,,,,,,,,0,0,0,2,1,,,,,,,,,,,,,,,,,,,,,,,,,,,,,,,,,,,,,,,,,,,,,,
917641,001,2022-11-20_16h28.57.248,Info_measure_main_exp,2022.2.2,Win32,59.62318149,,,,,,,,,,,,,,,,,,masks/mask_002.jpg,,,,,,,,,,,,,,,,,,,,,,,,,,,,,,,,,,,,,,,,,,,0,1,1,1,1,,,,,,,,,,,,,,,,,,,,,,,,,,,,,,,,,,,,,,,,,,,,,,
917641,001,2022-11-20_16h28.57.248,Info_measure_main_exp,2022.2.2,Win32,59.62318149,,,,,,,,,,,,,,,,,,masks/mask_001.jpg,,,,,,,,,,,,,,,,,,,,,,,,,,,,,,,,,,,,,,,,,,,0,2,2,0,1,,,,,,,,,,,,,,,,,,,,,,,,,,,,,,,,,,,,,,,,,,,,,,
917641,001,2022-11-20_16h28.57.248,Info_measure_main_exp,2022.2.2,Win32,59.62318149,,,,,,,,,,,,,,,,,,masks/mask_005.jpg,,,,,,,,,,,,,,,,,,,,,,,,,,,,,,,,,,,,,,,,,,,0,3,3,4,1,,,,,,,,,,,,,,,,,,,,,,,,,,,,,,,,,,,,,,,,,,,,,,
917641,001,2022-11-20_16h28.57.248,Info_measure_main_exp,2022.2.2,Win32,59.62318149,,,,,,,,,,,,,,,,,,masks/mask_004.jpg,,,,,,,,,,,,,,,,,,,,,,,,,,,,,,,,,,,,,,,,,,,0,4,4,3,1,,,,,,,,,,,,,,,,,,,,,,,,,,,,,,,,,,,,,,,,,,,,,,
917641,001,2022-11-20_16h28.57.248,Info_measure_main_exp,2022.2.2,Win32,59.62318149,,,,,,,,,,,,,,,,,,masks/mask_001.jpg,,,,,,,,,,,,,,,,,,,,,,,,,,,,,,,,,,,,,,,,,,,,,,,,0,0,0,0,1,,,,,,,,,,,,,,,,,,,,,,,,,,,,,,,,,,,,,,,,,
917641,001,2022-11-20_16h28.57.248,Info_measure_main_exp,2022.2.2,Win32,59.62318149,,,,,,,,,,,,,,,,,,masks/mask_004.jpg,,,,,,,,,,,,,,,,,,,,,,,,,,,,,,,,,,,,,,,,,,,,,,,,0,1,1,3,1,,,,,,,,,,,,,,,,,,,,,,,,,,,,,,,,,,,,,,,,,
917641,001,2022-11-20_16h28.57.248,Info_measure_main_exp,2022.2.2,Win32,59.62318149,,,,,,,,,,,,,,,,,,masks/mask_005.jpg,,,,,,,,,,,,,,,,,,,,,,,,,,,,,,,,,,,,,,,,,,,,,,,,0,2,2,4,1,,,,,,,,,,,,,,,,,,,,,,,,,,,,,,,,,,,,,,,,,
917641,001,2022-11-20_16h28.57.248,Info_measure_main_exp,2022.2.2,Win32,59.62318149,,,,,,,,,,,,,,,,,,masks/mask_003.jpg,,,,,,,,,,,,,,,,,,,,,,,,,,,,,,,,,,,,,,,,,,,,,,,,0,3,3,2,1,,,,,,,,,,,,,,,,,,,,,,,,,,,,,,,,,,,,,,,,,
917641,001,2022-11-20_16h28.57.248,Info_measure_main_exp,2022.2.2,Win32,59.62318149,,,,,,,,,,,,,,,,,,masks/mask_002.jpg,,,,,,,,,,,,,,,,,,,,,,,,,,,,,,,,,,,,,,,,,,,,,,,,0,4,4,1,1,,,,,,,,,,,,,,,,,,,,,,,,,,,,,,,,,,,,,,,,,
917641,001,2022-11-20_16h28.57.248,Info_measure_main_exp,2022.2.2,Win32,59.62318149,,,,,,,,,,,,,,,,,,,,,,,,,,,,,,7,1.0063,1,,,,,,,,,,,,1,131,5,5,1,1986,present_patch/cong_131_5_a.jpg,absent_patch/patch0001986.jpg,,,,,,,,,,,,,,,,,,,,0.030434719,0.056977133,1,0,0,response1disk,19,-8.66627E-05,0.000558644,1,0,0,center_square,0,18,18,106,1,,,,,,,,,,,,,,,,,,,,,,,
917641,001,2022-11-20_16h28.57.248,Info_measure_main_exp,2022.2.2,Win32,59.62318149,,,,,,,,,,,,,,,,,,masks/mask_003.jpg,,,,,,,,,,,,,,,,,,,,,,,,,,,,,,,,,,,,,,,,,,,0,0,0,2,1,,,,,,,,,,,,,,,,,,,,,,,,,,,,,,,,,,,,,,,,,,,,,,
917641,001,2022-11-20_16h28.57.248,Info_measure_main_exp,2022.2.2,Win32,59.62318149,,,,,,,,,,,,,,,,,,masks/mask_001.jpg,,,,,,,,,,,,,,,,,,,,,,,,,,,,,,,,,,,,,,,,,,,0,1,1,0,1,,,,,,,,,,,,,,,,,,,,,,,,,,,,,,,,,,,,,,,,,,,,,,
917641,001,2022-11-20_16h28.57.248,Info_measure_main_exp,2022.2.2,Win32,59.62318149,,,,,,,,,,,,,,,,,,masks/mask_005.jpg,,,,,,,,,,,,,,,,,,,,,,,,,,,,,,,,,,,,,,,,,,,0,2,2,4,1,,,,,,,,,,,,,,,,,,,,,,,,,,,,,,,,,,,,,,,,,,,,,,
917641,001,2022-11-20_16h28.57.248,Info_measure_main_exp,2022.2.2,Win32,59.62318149,,,,,,,,,,,,,,,,,,masks/mask_002.jpg,,,,,,,,,,,,,,,,,,,,,,,,,,,,,,,,,,,,,,,,,,,0,3,3,1,1,,,,,,,,,,,,,,,,,,,,,,,,,,,,,,,,,,,,,,,,,,,,,,
917641,001,2022-11-20_16h28.57.248,Info_measure_main_exp,2022.2.2,Win32,59.62318149,,,,,,,,,,,,,,,,,,masks/mask_004.jpg,,,,,,,,,,,,,,,,,,,,,,,,,,,,,,,,,,,,,,,,,,,0,4,4,3,1,,,,,,,,,,,,,,,,,,,,,,,,,,,,,,,,,,,,,,,,,,,,,,
917641,001,2022-11-20_16h28.57.248,Info_measure_main_exp,2022.2.2,Win32,59.62318149,,,,,,,,,,,,,,,,,,masks/mask_004.jpg,,,,,,,,,,,,,,,,,,,,,,,,,,,,,,,,,,,,,,,,,,,,,,,,0,0,0,3,1,,,,,,,,,,,,,,,,,,,,,,,,,,,,,,,,,,,,,,,,,
917641,001,2022-11-20_16h28.57.248,Info_measure_main_exp,2022.2.2,Win32,59.62318149,,,,,,,,,,,,,,,,,,masks/mask_003.jpg,,,,,,,,,,,,,,,,,,,,,,,,,,,,,,,,,,,,,,,,,,,,,,,,0,1,1,2,1,,,,,,,,,,,,,,,,,,,,,,,,,,,,,,,,,,,,,,,,,
917641,001,2022-11-20_16h28.57.248,Info_measure_main_exp,2022.2.2,Win32,59.62318149,,,,,,,,,,,,,,,,,,masks/mask_002.jpg,,,,,,,,,,,,,,,,,,,,,,,,,,,,,,,,,,,,,,,,,,,,,,,,0,2,2,1,1,,,,,,,,,,,,,,,,,,,,,,,,,,,,,,,,,,,,,,,,,
917641,001,2022-11-20_16h28.57.248,Info_measure_main_exp,2022.2.2,Win32,59.62318149,,,,,,,,,,,,,,,,,,masks/mask_001.jpg,,,,,,,,,,,,,,,,,,,,,,,,,,,,,,,,,,,,,,,,,,,,,,,,0,3,3,0,1,,,,,,,,,,,,,,,,,,,,,,,,,,,,,,,,,,,,,,,,,
917641,001,2022-11-20_16h28.57.248,Info_measure_main_exp,2022.2.2,Win32,59.62318149,,,,,,,,,,,,,,,,,,masks/mask_005.jpg,,,,,,,,,,,,,,,,,,,,,,,,,,,,,,,,,,,,,,,,,,,,,,,,0,4,4,4,1,,,,,,,,,,,,,,,,,,,,,,,,,,,,,,,,,,,,,,,,,
917641,001,2022-11-20_16h28.57.248,Info_measure_main_exp,2022.2.2,Win32,59.62318149,,,,,,,,,,,,,,,,,,,,,,,,,,,,,,4,2.6147,1,,,,,,,,,,,,0,131,5,5,1974,1950,absent_patch/patch0001974.jpg,absent_patch/patch0001950.jpg,,,,,,,,,,,,,,,,,,,,0.029509955,-0.05123521,1,0,0,response3disk,20,-0.002861227,0.007957889,1,0,0,center_square,0,19,19,17,1,,,,,,,,,,,,,,,,,,,,,,,
917641,001,2022-11-20_16h28.57.248,Info_measure_main_exp,2022.2.2,Win32,59.62318149,,,,,,,,,,,,,,,,,,masks/mask_002.jpg,,,,,,,,,,,,,,,,,,,,,,,,,,,,,,,,,,,,,,,,,,,0,0,0,1,1,,,,,,,,,,,,,,,,,,,,,,,,,,,,,,,,,,,,,,,,,,,,,,
917641,001,2022-11-20_16h28.57.248,Info_measure_main_exp,2022.2.2,Win32,59.62318149,,,,,,,,,,,,,,,,,,masks/mask_004.jpg,,,,,,,,,,,,,,,,,,,,,,,,,,,,,,,,,,,,,,,,,,,0,1,1,3,1,,,,,,,,,,,,,,,,,,,,,,,,,,,,,,,,,,,,,,,,,,,,,,
917641,001,2022-11-20_16h28.57.248,Info_measure_main_exp,2022.2.2,Win32,59.62318149,,,,,,,,,,,,,,,,,,masks/mask_001.jpg,,,,,,,,,,,,,,,,,,,,,,,,,,,,,,,,,,,,,,,,,,,0,2,2,0,1,,,,,,,,,,,,,,,,,,,,,,,,,,,,,,,,,,,,,,,,,,,,,,
917641,001,2022-11-20_16h28.57.248,Info_measure_main_exp,2022.2.2,Win32,59.62318149,,,,,,,,,,,,,,,,,,masks/mask_005.jpg,,,,,,,,,,,,,,,,,,,,,,,,,,,,,,,,,,,,,,,,,,,0,3,3,4,1,,,,,,,,,,,,,,,,,,,,,,,,,,,,,,,,,,,,,,,,,,,,,,
917641,001,2022-11-20_16h28.57.248,Info_measure_main_exp,2022.2.2,Win32,59.62318149,,,,,,,,,,,,,,,,,,masks/mask_003.jpg,,,,,,,,,,,,,,,,,,,,,,,,,,,,,,,,,,,,,,,,,,,0,4,4,2,1,,,,,,,,,,,,,,,,,,,,,,,,,,,,,,,,,,,,,,,,,,,,,,
917641,001,2022-11-20_16h28.57.248,Info_measure_main_exp,2022.2.2,Win32,59.62318149,,,,,,,,,,,,,,,,,,masks/mask_002.jpg,,,,,,,,,,,,,,,,,,,,,,,,,,,,,,,,,,,,,,,,,,,,,,,,0,0,0,1,1,,,,,,,,,,,,,,,,,,,,,,,,,,,,,,,,,,,,,,,,,
917641,001,2022-11-20_16h28.57.248,Info_measure_main_exp,2022.2.2,Win32,59.62318149,,,,,,,,,,,,,,,,,,masks/mask_004.jpg,,,,,,,,,,,,,,,,,,,,,,,,,,,,,,,,,,,,,,,,,,,,,,,,0,1,1,3,1,,,,,,,,,,,,,,,,,,,,,,,,,,,,,,,,,,,,,,,,,
917641,001,2022-11-20_16h28.57.248,Info_measure_main_exp,2022.2.2,Win32,59.62318149,,,,,,,,,,,,,,,,,,masks/mask_001.jpg,,,,,,,,,,,,,,,,,,,,,,,,,,,,,,,,,,,,,,,,,,,,,,,,0,2,2,0,1,,,,,,,,,,,,,,,,,,,,,,,,,,,,,,,,,,,,,,,,,
917641,001,2022-11-20_16h28.57.248,Info_measure_main_exp,2022.2.2,Win32,59.62318149,,,,,,,,,,,,,,,,,,masks/mask_005.jpg,,,,,,,,,,,,,,,,,,,,,,,,,,,,,,,,,,,,,,,,,,,,,,,,0,3,3,4,1,,,,,,,,,,,,,,,,,,,,,,,,,,,,,,,,,,,,,,,,,
917641,001,2022-11-20_16h28.57.248,Info_measure_main_exp,2022.2.2,Win32,59.62318149,,,,,,,,,,,,,,,,,,masks/mask_003.jpg,,,,,,,,,,,,,,,,,,,,,,,,,,,,,,,,,,,,,,,,,,,,,,,,0,4,4,2,1,,,,,,,,,,,,,,,,,,,,,,,,,,,,,,,,,,,,,,,,,
917641,001,2022-11-20_16h28.57.248,Info_measure_main_exp,2022.2.2,Win32,59.62318149,,,,,,,,,,,,,,,,,,,,,,,,,,,,,,7,0.8823,1,,,,,,,,,,,,0,131,5,5,2154,1950,absent_patch/patch0002154.jpg,absent_patch/patch0001950.jpg,,,,,,,,,,,,,,,,,,,,0.014711646,0.067150897,1,0,0,response1disk,21,0.014711646,0.003333434,1,0,0,center_square,0,20,20,96,1,,,,,,,,,,,,,,,,,,,,,,,
917641,001,2022-11-20_16h28.57.248,Info_measure_main_exp,2022.2.2,Win32,59.62318149,,,,,,,,,,,,,,,,,,masks/mask_005.jpg,,,,,,,,,,,,,,,,,,,,,,,,,,,,,,,,,,,,,,,,,,,0,0,0,4,1,,,,,,,,,,,,,,,,,,,,,,,,,,,,,,,,,,,,,,,,,,,,,,
917641,001,2022-11-20_16h28.57.248,Info_measure_main_exp,2022.2.2,Win32,59.62318149,,,,,,,,,,,,,,,,,,masks/mask_001.jpg,,,,,,,,,,,,,,,,,,,,,,,,,,,,,,,,,,,,,,,,,,,0,1,1,0,1,,,,,,,,,,,,,,,,,,,,,,,,,,,,,,,,,,,,,,,,,,,,,,
917641,001,2022-11-20_16h28.57.248,Info_measure_main_exp,2022.2.2,Win32,59.62318149,,,,,,,,,,,,,,,,,,masks/mask_004.jpg,,,,,,,,,,,,,,,,,,,,,,,,,,,,,,,,,,,,,,,,,,,0,2,2,3,1,,,,,,,,,,,,,,,,,,,,,,,,,,,,,,,,,,,,,,,,,,,,,,
917641,001,2022-11-20_16h28.57.248,Info_measure_main_exp,2022.2.2,Win32,59.62318149,,,,,,,,,,,,,,,,,,masks/mask_002.jpg,,,,,,,,,,,,,,,,,,,,,,,,,,,,,,,,,,,,,,,,,,,0,3,3,1,1,,,,,,,,,,,,,,,,,,,,,,,,,,,,,,,,,,,,,,,,,,,,,,
917641,001,2022-11-20_16h28.57.248,Info_measure_main_exp,2022.2.2,Win32,59.62318149,,,,,,,,,,,,,,,,,,masks/mask_003.jpg,,,,,,,,,,,,,,,,,,,,,,,,,,,,,,,,,,,,,,,,,,,0,4,4,2,1,,,,,,,,,,,,,,,,,,,,,,,,,,,,,,,,,,,,,,,,,,,,,,
917641,001,2022-11-20_16h28.57.248,Info_measure_main_exp,2022.2.2,Win32,59.62318149,,,,,,,,,,,,,,,,,,masks/mask_003.jpg,,,,,,,,,,,,,,,,,,,,,,,,,,,,,,,,,,,,,,,,,,,,,,,,0,0,0,2,1,,,,,,,,,,,,,,,,,,,,,,,,,,,,,,,,,,,,,,,,,
917641,001,2022-11-20_16h28.57.248,Info_measure_main_exp,2022.2.2,Win32,59.62318149,,,,,,,,,,,,,,,,,,masks/mask_002.jpg,,,,,,,,,,,,,,,,,,,,,,,,,,,,,,,,,,,,,,,,,,,,,,,,0,1,1,1,1,,,,,,,,,,,,,,,,,,,,,,,,,,,,,,,,,,,,,,,,,
917641,001,2022-11-20_16h28.57.248,Info_measure_main_exp,2022.2.2,Win32,59.62318149,,,,,,,,,,,,,,,,,,masks/mask_001.jpg,,,,,,,,,,,,,,,,,,,,,,,,,,,,,,,,,,,,,,,,,,,,,,,,0,2,2,0,1,,,,,,,,,,,,,,,,,,,,,,,,,,,,,,,,,,,,,,,,,
917641,001,2022-11-20_16h28.57.248,Info_measure_main_exp,2022.2.2,Win32,59.62318149,,,,,,,,,,,,,,,,,,masks/mask_005.jpg,,,,,,,,,,,,,,,,,,,,,,,,,,,,,,,,,,,,,,,,,,,,,,,,0,3,3,4,1,,,,,,,,,,,,,,,,,,,,,,,,,,,,,,,,,,,,,,,,,
917641,001,2022-11-20_16h28.57.248,Info_measure_main_exp,2022.2.2,Win32,59.62318149,,,,,,,,,,,,,,,,,,masks/mask_004.jpg,,,,,,,,,,,,,,,,,,,,,,,,,,,,,,,,,,,,,,,,,,,,,,,,0,4,4,3,1,,,,,,,,,,,,,,,,,,,,,,,,,,,,,,,,,,,,,,,,,
917641,001,2022-11-20_16h28.57.248,Info_measure_main_exp,2022.2.2,Win32,59.62318149,,,,,,,,,,,,,,,,,,,,,,,,,,,,,,7,0.6324,1,,,,,,,,,,,,0,131,5,5,1950,2298,absent_patch/patch0001950.jpg,absent_patch/patch0002298.jpg,,,,,,,,,,,,,,,,,,,,0.042458373,0.08194916,1,0,0,response1disk,22,0.010087192,0.008882789,1,0,0,center_square,0,21,21,18,1,,,,,,,,,,,,,,,,,,,,,,,
917641,001,2022-11-20_16h28.57.248,Info_measure_main_exp,2022.2.2,Win32,59.62318149,,,,,,,,,,,,,,,,,,masks/mask_005.jpg,,,,,,,,,,,,,,,,,,,,,,,,,,,,,,,,,,,,,,,,,,,0,0,0,4,1,,,,,,,,,,,,,,,,,,,,,,,,,,,,,,,,,,,,,,,,,,,,,,
917641,001,2022-11-20_16h28.57.248,Info_measure_main_exp,2022.2.2,Win32,59.62318149,,,,,,,,,,,,,,,,,,masks/mask_002.jpg,,,,,,,,,,,,,,,,,,,,,,,,,,,,,,,,,,,,,,,,,,,0,1,1,1,1,,,,,,,,,,,,,,,,,,,,,,,,,,,,,,,,,,,,,,,,,,,,,,
917641,001,2022-11-20_16h28.57.248,Info_measure_main_exp,2022.2.2,Win32,59.62318149,,,,,,,,,,,,,,,,,,masks/mask_003.jpg,,,,,,,,,,,,,,,,,,,,,,,,,,,,,,,,,,,,,,,,,,,0,2,2,2,1,,,,,,,,,,,,,,,,,,,,,,,,,,,,,,,,,,,,,,,,,,,,,,
917641,001,2022-11-20_16h28.57.248,Info_measure_main_exp,2022.2.2,Win32,59.62318149,,,,,,,,,,,,,,,,,,masks/mask_004.jpg,,,,,,,,,,,,,,,,,,,,,,,,,,,,,,,,,,,,,,,,,,,0,3,3,3,1,,,,,,,,,,,,,,,,,,,,,,,,,,,,,,,,,,,,,,,,,,,,,,
917641,001,2022-11-20_16h28.57.248,Info_measure_main_exp,2022.2.2,Win32,59.62318149,,,,,,,,,,,,,,,,,,masks/mask_001.jpg,,,,,,,,,,,,,,,,,,,,,,,,,,,,,,,,,,,,,,,,,,,0,4,4,0,1,,,,,,,,,,,,,,,,,,,,,,,,,,,,,,,,,,,,,,,,,,,,,,
917641,001,2022-11-20_16h28.57.248,Info_measure_main_exp,2022.2.2,Win32,59.62318149,,,,,,,,,,,,,,,,,,masks/mask_005.jpg,,,,,,,,,,,,,,,,,,,,,,,,,,,,,,,,,,,,,,,,,,,,,,,,0,0,0,4,1,,,,,,,,,,,,,,,,,,,,,,,,,,,,,,,,,,,,,,,,,
917641,001,2022-11-20_16h28.57.248,Info_measure_main_exp,2022.2.2,Win32,59.62318149,,,,,,,,,,,,,,,,,,masks/mask_001.jpg,,,,,,,,,,,,,,,,,,,,,,,,,,,,,,,,,,,,,,,,,,,,,,,,0,1,1,0,1,,,,,,,,,,,,,,,,,,,,,,,,,,,,,,,,,,,,,,,,,
917641,001,2022-11-20_16h28.57.248,Info_measure_main_exp,2022.2.2,Win32,59.62318149,,,,,,,,,,,,,,,,,,masks/mask_002.jpg,,,,,,,,,,,,,,,,,,,,,,,,,,,,,,,,,,,,,,,,,,,,,,,,0,2,2,1,1,,,,,,,,,,,,,,,,,,,,,,,,,,,,,,,,,,,,,,,,,
917641,001,2022-11-20_16h28.57.248,Info_measure_main_exp,2022.2.2,Win32,59.62318149,,,,,,,,,,,,,,,,,,masks/mask_003.jpg,,,,,,,,,,,,,,,,,,,,,,,,,,,,,,,,,,,,,,,,,,,,,,,,0,3,3,2,1,,,,,,,,,,,,,,,,,,,,,,,,,,,,,,,,,,,,,,,,,
917641,001,2022-11-20_16h28.57.248,Info_measure_main_exp,2022.2.2,Win32,59.62318149,,,,,,,,,,,,,,,,,,masks/mask_004.jpg,,,,,,,,,,,,,,,,,,,,,,,,,,,,,,,,,,,,,,,,,,,,,,,,0,4,4,3,1,,,,,,,,,,,,,,,,,,,,,,,,,,,,,,,,,,,,,,,,,
917641,001,2022-11-20_16h28.57.248,Info_measure_main_exp,2022.2.2,Win32,59.62318149,,,,,,,,,,,,,,,,,,,,,,,,,,,,,,0,1.1653,1,,,,,,,,,,,,0,131,5,5,2250,2250,absent_patch/patch0002250.jpg,absent_patch/patch0002250.jpg,,,,,,,,,,,,,,,,,,,,-0.041706663,0.098597178,1,0,0,response7disk,23,0.000838283,-0.00221592,1,0,0,center_square,0,22,22,56,1,,,,,,,,,,,,,,,,,,,,,,,
917641,001,2022-11-20_16h28.57.248,Info_measure_main_exp,2022.2.2,Win32,59.62318149,,,,,,,,,,,,,,,,,,masks/mask_002.jpg,,,,,,,,,,,,,,,,,,,,,,,,,,,,,,,,,,,,,,,,,,,0,0,0,1,1,,,,,,,,,,,,,,,,,,,,,,,,,,,,,,,,,,,,,,,,,,,,,,
917641,001,2022-11-20_16h28.57.248,Info_measure_main_exp,2022.2.2,Win32,59.62318149,,,,,,,,,,,,,,,,,,masks/mask_005.jpg,,,,,,,,,,,,,,,,,,,,,,,,,,,,,,,,,,,,,,,,,,,0,1,1,4,1,,,,,,,,,,,,,,,,,,,,,,,,,,,,,,,,,,,,,,,,,,,,,,
917641,001,2022-11-20_16h28.57.248,Info_measure_main_exp,2022.2.2,Win32,59.62318149,,,,,,,,,,,,,,,,,,masks/mask_001.jpg,,,,,,,,,,,,,,,,,,,,,,,,,,,,,,,,,,,,,,,,,,,0,2,2,0,1,,,,,,,,,,,,,,,,,,,,,,,,,,,,,,,,,,,,,,,,,,,,,,
917641,001,2022-11-20_16h28.57.248,Info_measure_main_exp,2022.2.2,Win32,59.62318149,,,,,,,,,,,,,,,,,,masks/mask_003.jpg,,,,,,,,,,,,,,,,,,,,,,,,,,,,,,,,,,,,,,,,,,,0,3,3,2,1,,,,,,,,,,,,,,,,,,,,,,,,,,,,,,,,,,,,,,,,,,,,,,
917641,001,2022-11-20_16h28.57.248,Info_measure_main_exp,2022.2.2,Win32,59.62318149,,,,,,,,,,,,,,,,,,masks/mask_004.jpg,,,,,,,,,,,,,,,,,,,,,,,,,,,,,,,,,,,,,,,,,,,0,4,4,3,1,,,,,,,,,,,,,,,,,,,,,,,,,,,,,,,,,,,,,,,,,,,,,,
917641,001,2022-11-20_16h28.57.248,Info_measure_main_exp,2022.2.2,Win32,59.62318149,,,,,,,,,,,,,,,,,,masks/mask_003.jpg,,,,,,,,,,,,,,,,,,,,,,,,,,,,,,,,,,,,,,,,,,,,,,,,0,0,0,2,1,,,,,,,,,,,,,,,,,,,,,,,,,,,,,,,,,,,,,,,,,
917641,001,2022-11-20_16h28.57.248,Info_measure_main_exp,2022.2.2,Win32,59.62318149,,,,,,,,,,,,,,,,,,masks/mask_001.jpg,,,,,,,,,,,,,,,,,,,,,,,,,,,,,,,,,,,,,,,,,,,,,,,,0,1,1,0,1,,,,,,,,,,,,,,,,,,,,,,,,,,,,,,,,,,,,,,,,,
917641,001,2022-11-20_16h28.57.248,Info_measure_main_exp,2022.2.2,Win32,59.62318149,,,,,,,,,,,,,,,,,,masks/mask_005.jpg,,,,,,,,,,,,,,,,,,,,,,,,,,,,,,,,,,,,,,,,,,,,,,,,0,2,2,4,1,,,,,,,,,,,,,,,,,,,,,,,,,,,,,,,,,,,,,,,,,
917641,001,2022-11-20_16h28.57.248,Info_measure_main_exp,2022.2.2,Win32,59.62318149,,,,,,,,,,,,,,,,,,masks/mask_004.jpg,,,,,,,,,,,,,,,,,,,,,,,,,,,,,,,,,,,,,,,,,,,,,,,,0,3,3,3,1,,,,,,,,,,,,,,,,,,,,,,,,,,,,,,,,,,,,,,,,,
917641,001,2022-11-20_16h28.57.248,Info_measure_main_exp,2022.2.2,Win32,59.62318149,,,,,,,,,,,,,,,,,,masks/mask_002.jpg,,,,,,,,,,,,,,,,,,,,,,,,,,,,,,,,,,,,,,,,,,,,,,,,0,4,4,1,1,,,,,,,,,,,,,,,,,,,,,,,,,,,,,,,,,,,,,,,,,
917641,001,2022-11-20_16h28.57.248,Info_measure_main_exp,2022.2.2,Win32,59.62318149,,,,,,,,,,,,,,,,,,,,,,,,,,,,,,7,1.0148,1,,,,,,,,,,,,0,131,5,5,1974,2250,absent_patch/patch0001974.jpg,absent_patch/patch0002250.jpg,,,,,,,,,,,,,,,,,,,,0.022110755,0.077324706,1,0,0,response1disk,24,0.007312446,-0.004990575,1,0,0,center_square,0,23,23,55,1,,,,,,,,,,,,,,,,,,,,,,,
917641,001,2022-11-20_16h28.57.248,Info_measure_main_exp,2022.2.2,Win32,59.62318149,,,,,,,,,,,,,,,,,,masks/mask_003.jpg,,,,,,,,,,,,,,,,,,,,,,,,,,,,,,,,,,,,,,,,,,,0,0,0,2,1,,,,,,,,,,,,,,,,,,,,,,,,,,,,,,,,,,,,,,,,,,,,,,
917641,001,2022-11-20_16h28.57.248,Info_measure_main_exp,2022.2.2,Win32,59.62318149,,,,,,,,,,,,,,,,,,masks/mask_002.jpg,,,,,,,,,,,,,,,,,,,,,,,,,,,,,,,,,,,,,,,,,,,0,1,1,1,1,,,,,,,,,,,,,,,,,,,,,,,,,,,,,,,,,,,,,,,,,,,,,,
917641,001,2022-11-20_16h28.57.248,Info_measure_main_exp,2022.2.2,Win32,59.62318149,,,,,,,,,,,,,,,,,,masks/mask_001.jpg,,,,,,,,,,,,,,,,,,,,,,,,,,,,,,,,,,,,,,,,,,,0,2,2,0,1,,,,,,,,,,,,,,,,,,,,,,,,,,,,,,,,,,,,,,,,,,,,,,
917641,001,2022-11-20_16h28.57.248,Info_measure_main_exp,2022.2.2,Win32,59.62318149,,,,,,,,,,,,,,,,,,masks/mask_004.jpg,,,,,,,,,,,,,,,,,,,,,,,,,,,,,,,,,,,,,,,,,,,0,3,3,3,1,,,,,,,,,,,,,,,,,,,,,,,,,,,,,,,,,,,,,,,,,,,,,,
917641,001,2022-11-20_16h28.57.248,Info_measure_main_exp,2022.2.2,Win32,59.62318149,,,,,,,,,,,,,,,,,,masks/mask_005.jpg,,,,,,,,,,,,,,,,,,,,,,,,,,,,,,,,,,,,,,,,,,,0,4,4,4,1,,,,,,,,,,,,,,,,,,,,,,,,,,,,,,,,,,,,,,,,,,,,,,
917641,001,2022-11-20_16h28.57.248,Info_measure_main_exp,2022.2.2,Win32,59.62318149,,,,,,,,,,,,,,,,,,masks/mask_001.jpg,,,,,,,,,,,,,,,,,,,,,,,,,,,,,,,,,,,,,,,,,,,,,,,,0,0,0,0,1,,,,,,,,,,,,,,,,,,,,,,,,,,,,,,,,,,,,,,,,,
917641,001,2022-11-20_16h28.57.248,Info_measure_main_exp,2022.2.2,Win32,59.62318149,,,,,,,,,,,,,,,,,,masks/mask_002.jpg,,,,,,,,,,,,,,,,,,,,,,,,,,,,,,,,,,,,,,,,,,,,,,,,0,1,1,1,1,,,,,,,,,,,,,,,,,,,,,,,,,,,,,,,,,,,,,,,,,
917641,001,2022-11-20_16h28.57.248,Info_measure_main_exp,2022.2.2,Win32,59.62318149,,,,,,,,,,,,,,,,,,masks/mask_005.jpg,,,,,,,,,,,,,,,,,,,,,,,,,,,,,,,,,,,,,,,,,,,,,,,,0,2,2,4,1,,,,,,,,,,,,,,,,,,,,,,,,,,,,,,,,,,,,,,,,,
917641,001,2022-11-20_16h28.57.248,Info_measure_main_exp,2022.2.2,Win32,59.62318149,,,,,,,,,,,,,,,,,,masks/mask_004.jpg,,,,,,,,,,,,,,,,,,,,,,,,,,,,,,,,,,,,,,,,,,,,,,,,0,3,3,3,1,,,,,,,,,,,,,,,,,,,,,,,,,,,,,,,,,,,,,,,,,
917641,001,2022-11-20_16h28.57.248,Info_measure_main_exp,2022.2.2,Win32,59.62318149,,,,,,,,,,,,,,,,,,masks/mask_003.jpg,,,,,,,,,,,,,,,,,,,,,,,,,,,,,,,,,,,,,,,,,,,,,,,,0,4,4,2,1,,,,,,,,,,,,,,,,,,,,,,,,,,,,,,,,,,,,,,,,,
917641,001,2022-11-20_16h28.57.248,Info_measure_main_exp,2022.2.2,Win32,59.62318149,,,,,,,,,,,,,,,,,,,,,,,,,,,,,,5,3.2137,1,,,,,,,,,,,,0,131,5,5,2154,1974,absent_patch/patch0002154.jpg,absent_patch/patch0001974.jpg,,,,,,,,,,,,,,,,,,,,0.061881046,-0.011464829,1,0,0,response3disk,25,-0.007485681,0.006108043,1,0,0,center_square,0,24,24,82,1,,,,,,,,,,,,,,,,,,,,,,,
917641,001,2022-11-20_16h28.57.248,Info_measure_main_exp,2022.2.2,Win32,59.62318149,,,,,,,,,,,,,,,,,,masks/mask_005.jpg,,,,,,,,,,,,,,,,,,,,,,,,,,,,,,,,,,,,,,,,,,,0,0,0,4,1,,,,,,,,,,,,,,,,,,,,,,,,,,,,,,,,,,,,,,,,,,,,,,
917641,001,2022-11-20_16h28.57.248,Info_measure_main_exp,2022.2.2,Win32,59.62318149,,,,,,,,,,,,,,,,,,masks/mask_002.jpg,,,,,,,,,,,,,,,,,,,,,,,,,,,,,,,,,,,,,,,,,,,0,1,1,1,1,,,,,,,,,,,,,,,,,,,,,,,,,,,,,,,,,,,,,,,,,,,,,,
917641,001,2022-11-20_16h28.57.248,Info_measure_main_exp,2022.2.2,Win32,59.62318149,,,,,,,,,,,,,,,,,,masks/mask_004.jpg,,,,,,,,,,,,,,,,,,,,,,,,,,,,,,,,,,,,,,,,,,,0,2,2,3,1,,,,,,,,,,,,,,,,,,,,,,,,,,,,,,,,,,,,,,,,,,,,,,
917641,001,2022-11-20_16h28.57.248,Info_measure_main_exp,2022.2.2,Win32,59.62318149,,,,,,,,,,,,,,,,,,masks/mask_001.jpg,,,,,,,,,,,,,,,,,,,,,,,,,,,,,,,,,,,,,,,,,,,0,3,3,0,1,,,,,,,,,,,,,,,,,,,,,,,,,,,,,,,,,,,,,,,,,,,,,,
917641,001,2022-11-20_16h28.57.248,Info_measure_main_exp,2022.2.2,Win32,59.62318149,,,,,,,,,,,,,,,,,,masks/mask_003.jpg,,,,,,,,,,,,,,,,,,,,,,,,,,,,,,,,,,,,,,,,,,,0,4,4,2,1,,,,,,,,,,,,,,,,,,,,,,,,,,,,,,,,,,,,,,,,,,,,,,
917641,001,2022-11-20_16h28.57.248,Info_measure_main_exp,2022.2.2,Win32,59.62318149,,,,,,,,,,,,,,,,,,masks/mask_001.jpg,,,,,,,,,,,,,,,,,,,,,,,,,,,,,,,,,,,,,,,,,,,,,,,,0,0,0,0,1,,,,,,,,,,,,,,,,,,,,,,,,,,,,,,,,,,,,,,,,,
917641,001,2022-11-20_16h28.57.248,Info_measure_main_exp,2022.2.2,Win32,59.62318149,,,,,,,,,,,,,,,,,,masks/mask_004.jpg,,,,,,,,,,,,,,,,,,,,,,,,,,,,,,,,,,,,,,,,,,,,,,,,0,1,1,3,1,,,,,,,,,,,,,,,,,,,,,,,,,,,,,,,,,,,,,,,,,
917641,001,2022-11-20_16h28.57.248,Info_measure_main_exp,2022.2.2,Win32,59.62318149,,,,,,,,,,,,,,,,,,masks/mask_002.jpg,,,,,,,,,,,,,,,,,,,,,,,,,,,,,,,,,,,,,,,,,,,,,,,,0,2,2,1,1,,,,,,,,,,,,,,,,,,,,,,,,,,,,,,,,,,,,,,,,,
917641,001,2022-11-20_16h28.57.248,Info_measure_main_exp,2022.2.2,Win32,59.62318149,,,,,,,,,,,,,,,,,,masks/mask_005.jpg,,,,,,,,,,,,,,,,,,,,,,,,,,,,,,,,,,,,,,,,,,,,,,,,0,3,3,4,1,,,,,,,,,,,,,,,,,,,,,,,,,,,,,,,,,,,,,,,,,
917641,001,2022-11-20_16h28.57.248,Info_measure_main_exp,2022.2.2,Win32,59.62318149,,,,,,,,,,,,,,,,,,masks/mask_003.jpg,,,,,,,,,,,,,,,,,,,,,,,,,,,,,,,,,,,,,,,,,,,,,,,,0,4,4,2,1,,,,,,,,,,,,,,,,,,,,,,,,,,,,,,,,,,,,,,,,,
917641,001,2022-11-20_16h28.57.248,Info_measure_main_exp,2022.2.2,Win32,59.62318149,,,,,,,,,,,,,,,,,,,,,,,,,,,,,,7,1.6317,1,,,,,,,,,,,,0,131,5,5,2274,2178,absent_patch/patch0002274.jpg,absent_patch/patch0002178.jpg,,,,,,,,,,,,,,,,,,,,0.02118581,0.075474951,1,0,0,response1disk,26,-8.66627E-05,0.013507243,1,0,0,center_square,0,25,25,117,1,,,,,,,,,,,,,,,,,,,,,,,
917641,001,2022-11-20_16h28.57.248,Info_measure_main_exp,2022.2.2,Win32,59.62318149,,,,,,,,,,,,,,,,,,masks/mask_001.jpg,,,,,,,,,,,,,,,,,,,,,,,,,,,,,,,,,,,,,,,,,,,0,0,0,0,1,,,,,,,,,,,,,,,,,,,,,,,,,,,,,,,,,,,,,,,,,,,,,,
917641,001,2022-11-20_16h28.57.248,Info_measure_main_exp,2022.2.2,Win32,59.62318149,,,,,,,,,,,,,,,,,,masks/mask_003.jpg,,,,,,,,,,,,,,,,,,,,,,,,,,,,,,,,,,,,,,,,,,,0,1,1,2,1,,,,,,,,,,,,,,,,,,,,,,,,,,,,,,,,,,,,,,,,,,,,,,
917641,001,2022-11-20_16h28.57.248,Info_measure_main_exp,2022.2.2,Win32,59.62318149,,,,,,,,,,,,,,,,,,masks/mask_002.jpg,,,,,,,,,,,,,,,,,,,,,,,,,,,,,,,,,,,,,,,,,,,0,2,2,1,1,,,,,,,,,,,,,,,,,,,,,,,,,,,,,,,,,,,,,,,,,,,,,,
917641,001,2022-11-20_16h28.57.248,Info_measure_main_exp,2022.2.2,Win32,59.62318149,,,,,,,,,,,,,,,,,,masks/mask_004.jpg,,,,,,,,,,,,,,,,,,,,,,,,,,,,,,,,,,,,,,,,,,,0,3,3,3,1,,,,,,,,,,,,,,,,,,,,,,,,,,,,,,,,,,,,,,,,,,,,,,
917641,001,2022-11-20_16h28.57.248,Info_measure_main_exp,2022.2.2,Win32,59.62318149,,,,,,,,,,,,,,,,,,masks/mask_005.jpg,,,,,,,,,,,,,,,,,,,,,,,,,,,,,,,,,,,,,,,,,,,0,4,4,4,1,,,,,,,,,,,,,,,,,,,,,,,,,,,,,,,,,,,,,,,,,,,,,,
917641,001,2022-11-20_16h28.57.248,Info_measure_main_exp,2022.2.2,Win32,59.62318149,,,,,,,,,,,,,,,,,,masks/mask_005.jpg,,,,,,,,,,,,,,,,,,,,,,,,,,,,,,,,,,,,,,,,,,,,,,,,0,0,0,4,1,,,,,,,,,,,,,,,,,,,,,,,,,,,,,,,,,,,,,,,,,
917641,001,2022-11-20_16h28.57.248,Info_measure_main_exp,2022.2.2,Win32,59.62318149,,,,,,,,,,,,,,,,,,masks/mask_001.jpg,,,,,,,,,,,,,,,,,,,,,,,,,,,,,,,,,,,,,,,,,,,,,,,,0,1,1,0,1,,,,,,,,,,,,,,,,,,,,,,,,,,,,,,,,,,,,,,,,,
917641,001,2022-11-20_16h28.57.248,Info_measure_main_exp,2022.2.2,Win32,59.62318149,,,,,,,,,,,,,,,,,,masks/mask_004.jpg,,,,,,,,,,,,,,,,,,,,,,,,,,,,,,,,,,,,,,,,,,,,,,,,0,2,2,3,1,,,,,,,,,,,,,,,,,,,,,,,,,,,,,,,,,,,,,,,,,
917641,001,2022-11-20_16h28.57.248,Info_measure_main_exp,2022.2.2,Win32,59.62318149,,,,,,,,,,,,,,,,,,masks/mask_003.jpg,,,,,,,,,,,,,,,,,,,,,,,,,,,,,,,,,,,,,,,,,,,,,,,,0,3,3,2,1,,,,,,,,,,,,,,,,,,,,,,,,,,,,,,,,,,,,,,,,,
917641,001,2022-11-20_16h28.57.248,Info_measure_main_exp,2022.2.2,Win32,59.62318149,,,,,,,,,,,,,,,,,,masks/mask_002.jpg,,,,,,,,,,,,,,,,,,,,,,,,,,,,,,,,,,,,,,,,,,,,,,,,0,4,4,1,1,,,,,,,,,,,,,,,,,,,,,,,,,,,,,,,,,,,,,,,,,
917641,001,2022-11-20_16h28.57.248,Info_measure_main_exp,2022.2.2,Win32,59.62318149,,,,,,,,,,,,,,,,,,,,,,,,,,,,,,0,0.9151,1,,,,,,,,,,,,1,131,5,5,1,1,present_patch/cong_131_5_a.jpg,present_patch/cong_131_5_a.jpg,,,,,,,,,,,,,,,,,,,,-0.031532989,0.078249606,1,0,0,response7disk,27,0.001763228,0.009807553,1,0,0,center_square,0,26,26,30,1,,,,,,,,,,,,,,,,,,,,,,,
917641,001,2022-11-20_16h28.57.248,Info_measure_main_exp,2022.2.2,Win32,59.62318149,,,,,,,,,,,,,,,,,,masks/mask_003.jpg,,,,,,,,,,,,,,,,,,,,,,,,,,,,,,,,,,,,,,,,,,,0,0,0,2,1,,,,,,,,,,,,,,,,,,,,,,,,,,,,,,,,,,,,,,,,,,,,,,
917641,001,2022-11-20_16h28.57.248,Info_measure_main_exp,2022.2.2,Win32,59.62318149,,,,,,,,,,,,,,,,,,masks/mask_005.jpg,,,,,,,,,,,,,,,,,,,,,,,,,,,,,,,,,,,,,,,,,,,0,1,1,4,1,,,,,,,,,,,,,,,,,,,,,,,,,,,,,,,,,,,,,,,,,,,,,,
917641,001,2022-11-20_16h28.57.248,Info_measure_main_exp,2022.2.2,Win32,59.62318149,,,,,,,,,,,,,,,,,,masks/mask_002.jpg,,,,,,,,,,,,,,,,,,,,,,,,,,,,,,,,,,,,,,,,,,,0,2,2,1,1,,,,,,,,,,,,,,,,,,,,,,,,,,,,,,,,,,,,,,,,,,,,,,
917641,001,2022-11-20_16h28.57.248,Info_measure_main_exp,2022.2.2,Win32,59.62318149,,,,,,,,,,,,,,,,,,masks/mask_004.jpg,,,,,,,,,,,,,,,,,,,,,,,,,,,,,,,,,,,,,,,,,,,0,3,3,3,1,,,,,,,,,,,,,,,,,,,,,,,,,,,,,,,,,,,,,,,,,,,,,,
917641,001,2022-11-20_16h28.57.248,Info_measure_main_exp,2022.2.2,Win32,59.62318149,,,,,,,,,,,,,,,,,,masks/mask_001.jpg,,,,,,,,,,,,,,,,,,,,,,,,,,,,,,,,,,,,,,,,,,,0,4,4,0,1,,,,,,,,,,,,,,,,,,,,,,,,,,,,,,,,,,,,,,,,,,,,,,
917641,001,2022-11-20_16h28.57.248,Info_measure_main_exp,2022.2.2,Win32,59.62318149,,,,,,,,,,,,,,,,,,masks/mask_003.jpg,,,,,,,,,,,,,,,,,,,,,,,,,,,,,,,,,,,,,,,,,,,,,,,,0,0,0,2,1,,,,,,,,,,,,,,,,,,,,,,,,,,,,,,,,,,,,,,,,,
917641,001,2022-11-20_16h28.57.248,Info_measure_main_exp,2022.2.2,Win32,59.62318149,,,,,,,,,,,,,,,,,,masks/mask_005.jpg,,,,,,,,,,,,,,,,,,,,,,,,,,,,,,,,,,,,,,,,,,,,,,,,0,1,1,4,1,,,,,,,,,,,,,,,,,,,,,,,,,,,,,,,,,,,,,,,,,
917641,001,2022-11-20_16h28.57.248,Info_measure_main_exp,2022.2.2,Win32,59.62318149,,,,,,,,,,,,,,,,,,masks/mask_002.jpg,,,,,,,,,,,,,,,,,,,,,,,,,,,,,,,,,,,,,,,,,,,,,,,,0,2,2,1,1,,,,,,,,,,,,,,,,,,,,,,,,,,,,,,,,,,,,,,,,,
917641,001,2022-11-20_16h28.57.248,Info_measure_main_exp,2022.2.2,Win32,59.62318149,,,,,,,,,,,,,,,,,,masks/mask_004.jpg,,,,,,,,,,,,,,,,,,,,,,,,,,,,,,,,,,,,,,,,,,,,,,,,0,3,3,3,1,,,,,,,,,,,,,,,,,,,,,,,,,,,,,,,,,,,,,,,,,
917641,001,2022-11-20_16h28.57.248,Info_measure_main_exp,2022.2.2,Win32,59.62318149,,,,,,,,,,,,,,,,,,masks/mask_001.jpg,,,,,,,,,,,,,,,,,,,,,,,,,,,,,,,,,,,,,,,,,,,,,,,,0,4,4,0,1,,,,,,,,,,,,,,,,,,,,,,,,,,,,,,,,,,,,,,,,,
917641,001,2022-11-20_16h28.57.248,Info_measure_main_exp,2022.2.2,Win32,59.62318149,,,,,,,,,,,,,,,,,,,,,,,,,,,,,,7,0.8486,1,,,,,,,,,,,,1,131,5,5,1,2214,present_patch/cong_131_5_a.jpg,absent_patch/patch0002214.jpg,,,,,,,,,,,,,,,,,,,,0.049857573,0.127268851,1,0,0,response1disk,28,0.005462737,0.008882789,1,0,0,center_square,0,27,27,4,1,,,,,,,,,,,,,,,,,,,,,,,
917641,001,2022-11-20_16h28.57.248,Info_measure_main_exp,2022.2.2,Win32,59.62318149,,,,,,,,,,,,,,,,,,masks/mask_003.jpg,,,,,,,,,,,,,,,,,,,,,,,,,,,,,,,,,,,,,,,,,,,0,0,0,2,1,,,,,,,,,,,,,,,,,,,,,,,,,,,,,,,,,,,,,,,,,,,,,,
917641,001,2022-11-20_16h28.57.248,Info_measure_main_exp,2022.2.2,Win32,59.62318149,,,,,,,,,,,,,,,,,,masks/mask_004.jpg,,,,,,,,,,,,,,,,,,,,,,,,,,,,,,,,,,,,,,,,,,,0,1,1,3,1,,,,,,,,,,,,,,,,,,,,,,,,,,,,,,,,,,,,,,,,,,,,,,
917641,001,2022-11-20_16h28.57.248,Info_measure_main_exp,2022.2.2,Win32,59.62318149,,,,,,,,,,,,,,,,,,masks/mask_005.jpg,,,,,,,,,,,,,,,,,,,,,,,,,,,,,,,,,,,,,,,,,,,0,2,2,4,1,,,,,,,,,,,,,,,,,,,,,,,,,,,,,,,,,,,,,,,,,,,,,,
917641,001,2022-11-20_16h28.57.248,Info_measure_main_exp,2022.2.2,Win32,59.62318149,,,,,,,,,,,,,,,,,,masks/mask_001.jpg,,,,,,,,,,,,,,,,,,,,,,,,,,,,,,,,,,,,,,,,,,,0,3,3,0,1,,,,,,,,,,,,,,,,,,,,,,,,,,,,,,,,,,,,,,,,,,,,,,
917641,001,2022-11-20_16h28.57.248,Info_measure_main_exp,2022.2.2,Win32,59.62318149,,,,,,,,,,,,,,,,,,masks/mask_002.jpg,,,,,,,,,,,,,,,,,,,,,,,,,,,,,,,,,,,,,,,,,,,0,4,4,1,1,,,,,,,,,,,,,,,,,,,,,,,,,,,,,,,,,,,,,,,,,,,,,,
917641,001,2022-11-20_16h28.57.248,Info_measure_main_exp,2022.2.2,Win32,59.62318149,,,,,,,,,,,,,,,,,,masks/mask_004.jpg,,,,,,,,,,,,,,,,,,,,,,,,,,,,,,,,,,,,,,,,,,,,,,,,0,0,0,3,1,,,,,,,,,,,,,,,,,,,,,,,,,,,,,,,,,,,,,,,,,
917641,001,2022-11-20_16h28.57.248,Info_measure_main_exp,2022.2.2,Win32,59.62318149,,,,,,,,,,,,,,,,,,masks/mask_003.jpg,,,,,,,,,,,,,,,,,,,,,,,,,,,,,,,,,,,,,,,,,,,,,,,,0,1,1,2,1,,,,,,,,,,,,,,,,,,,,,,,,,,,,,,,,,,,,,,,,,
917641,001,2022-11-20_16h28.57.248,Info_measure_main_exp,2022.2.2,Win32,59.62318149,,,,,,,,,,,,,,,,,,masks/mask_002.jpg,,,,,,,,,,,,,,,,,,,,,,,,,,,,,,,,,,,,,,,,,,,,,,,,0,2,2,1,1,,,,,,,,,,,,,,,,,,,,,,,,,,,,,,,,,,,,,,,,,
917641,001,2022-11-20_16h28.57.248,Info_measure_main_exp,2022.2.2,Win32,59.62318149,,,,,,,,,,,,,,,,,,masks/mask_005.jpg,,,,,,,,,,,,,,,,,,,,,,,,,,,,,,,,,,,,,,,,,,,,,,,,0,3,3,4,1,,,,,,,,,,,,,,,,,,,,,,,,,,,,,,,,,,,,,,,,,
917641,001,2022-11-20_16h28.57.248,Info_measure_main_exp,2022.2.2,Win32,59.62318149,,,,,,,,,,,,,,,,,,masks/mask_001.jpg,,,,,,,,,,,,,,,,,,,,,,,,,,,,,,,,,,,,,,,,,,,,,,,,0,4,4,0,1,,,,,,,,,,,,,,,,,,,,,,,,,,,,,,,,,,,,,,,,,
917641,001,2022-11-20_16h28.57.248,Info_measure_main_exp,2022.2.2,Win32,59.62318149,,,,,,,,,,,,,,,,,,,,,,,,,,,,,,7,1.3646,1,,,,,,,,,,,,0,131,5,5,2274,2250,absent_patch/patch0002274.jpg,absent_patch/patch0002250.jpg,,,,,,,,,,,,,,,,,,,,0.088702918,0.159639987,1,0,0,response1disk,29,-0.005635972,-0.00129102,1,0,0,center_square,0,28,28,28,1,,,,,,,,,,,,,,,,,,,,,,,
917641,001,2022-11-20_16h28.57.248,Info_measure_main_exp,2022.2.2,Win32,59.62318149,,,,,,,,,,,,,,,,,,masks/mask_005.jpg,,,,,,,,,,,,,,,,,,,,,,,,,,,,,,,,,,,,,,,,,,,0,0,0,4,1,,,,,,,,,,,,,,,,,,,,,,,,,,,,,,,,,,,,,,,,,,,,,,
917641,001,2022-11-20_16h28.57.248,Info_measure_main_exp,2022.2.2,Win32,59.62318149,,,,,,,,,,,,,,,,,,masks/mask_001.jpg,,,,,,,,,,,,,,,,,,,,,,,,,,,,,,,,,,,,,,,,,,,0,1,1,0,1,,,,,,,,,,,,,,,,,,,,,,,,,,,,,,,,,,,,,,,,,,,,,,
917641,001,2022-11-20_16h28.57.248,Info_measure_main_exp,2022.2.2,Win32,59.62318149,,,,,,,,,,,,,,,,,,masks/mask_003.jpg,,,,,,,,,,,,,,,,,,,,,,,,,,,,,,,,,,,,,,,,,,,0,2,2,2,1,,,,,,,,,,,,,,,,,,,,,,,,,,,,,,,,,,,,,,,,,,,,,,
917641,001,2022-11-20_16h28.57.248,Info_measure_main_exp,2022.2.2,Win32,59.62318149,,,,,,,,,,,,,,,,,,masks/mask_004.jpg,,,,,,,,,,,,,,,,,,,,,,,,,,,,,,,,,,,,,,,,,,,0,3,3,3,1,,,,,,,,,,,,,,,,,,,,,,,,,,,,,,,,,,,,,,,,,,,,,,
917641,001,2022-11-20_16h28.57.248,Info_measure_main_exp,2022.2.2,Win32,59.62318149,,,,,,,,,,,,,,,,,,masks/mask_002.jpg,,,,,,,,,,,,,,,,,,,,,,,,,,,,,,,,,,,,,,,,,,,0,4,4,1,1,,,,,,,,,,,,,,,,,,,,,,,,,,,,,,,,,,,,,,,,,,,,,,
917641,001,2022-11-20_16h28.57.248,Info_measure_main_exp,2022.2.2,Win32,59.62318149,,,,,,,,,,,,,,,,,,masks/mask_001.jpg,,,,,,,,,,,,,,,,,,,,,,,,,,,,,,,,,,,,,,,,,,,,,,,,0,0,0,0,1,,,,,,,,,,,,,,,,,,,,,,,,,,,,,,,,,,,,,,,,,
917641,001,2022-11-20_16h28.57.248,Info_measure_main_exp,2022.2.2,Win32,59.62318149,,,,,,,,,,,,,,,,,,masks/mask_002.jpg,,,,,,,,,,,,,,,,,,,,,,,,,,,,,,,,,,,,,,,,,,,,,,,,0,1,1,1,1,,,,,,,,,,,,,,,,,,,,,,,,,,,,,,,,,,,,,,,,,
917641,001,2022-11-20_16h28.57.248,Info_measure_main_exp,2022.2.2,Win32,59.62318149,,,,,,,,,,,,,,,,,,masks/mask_005.jpg,,,,,,,,,,,,,,,,,,,,,,,,,,,,,,,,,,,,,,,,,,,,,,,,0,2,2,4,1,,,,,,,,,,,,,,,,,,,,,,,,,,,,,,,,,,,,,,,,,
917641,001,2022-11-20_16h28.57.248,Info_measure_main_exp,2022.2.2,Win32,59.62318149,,,,,,,,,,,,,,,,,,masks/mask_003.jpg,,,,,,,,,,,,,,,,,,,,,,,,,,,,,,,,,,,,,,,,,,,,,,,,0,3,3,2,1,,,,,,,,,,,,,,,,,,,,,,,,,,,,,,,,,,,,,,,,,
917641,001,2022-11-20_16h28.57.248,Info_measure_main_exp,2022.2.2,Win32,59.62318149,,,,,,,,,,,,,,,,,,masks/mask_004.jpg,,,,,,,,,,,,,,,,,,,,,,,,,,,,,,,,,,,,,,,,,,,,,,,,0,4,4,3,1,,,,,,,,,,,,,,,,,,,,,,,,,,,,,,,,,,,,,,,,,
917641,001,2022-11-20_16h28.57.248,Info_measure_main_exp,2022.2.2,Win32,59.62318149,,,,,,,,,,,,,,,,,,,,,,,,,,,,,,7,0.8487,1,,,,,,,,,,,,0,131,5,5,2142,2166,absent_patch/patch0002142.jpg,absent_patch/patch0002166.jpg,,,,,,,,,,,,,,,,,,,,0.044308173,0.08842337,1,0,0,response1disk,30,0.010087192,0.007032989,1,0,0,center_square,0,29,29,66,1,,,,,,,,,,,,,,,,,,,,,,,
917641,001,2022-11-20_16h28.57.248,Info_measure_main_exp,2022.2.2,Win32,59.62318149,,,,,,,,,,,,,,,,,,masks/mask_003.jpg,,,,,,,,,,,,,,,,,,,,,,,,,,,,,,,,,,,,,,,,,,,0,0,0,2,1,,,,,,,,,,,,,,,,,,,,,,,,,,,,,,,,,,,,,,,,,,,,,,
917641,001,2022-11-20_16h28.57.248,Info_measure_main_exp,2022.2.2,Win32,59.62318149,,,,,,,,,,,,,,,,,,masks/mask_002.jpg,,,,,,,,,,,,,,,,,,,,,,,,,,,,,,,,,,,,,,,,,,,0,1,1,1,1,,,,,,,,,,,,,,,,,,,,,,,,,,,,,,,,,,,,,,,,,,,,,,
917641,001,2022-11-20_16h28.57.248,Info_measure_main_exp,2022.2.2,Win32,59.62318149,,,,,,,,,,,,,,,,,,masks/mask_004.jpg,,,,,,,,,,,,,,,,,,,,,,,,,,,,,,,,,,,,,,,,,,,0,2,2,3,1,,,,,,,,,,,,,,,,,,,,,,,,,,,,,,,,,,,,,,,,,,,,,,
917641,001,2022-11-20_16h28.57.248,Info_measure_main_exp,2022.2.2,Win32,59.62318149,,,,,,,,,,,,,,,,,,masks/mask_001.jpg,,,,,,,,,,,,,,,,,,,,,,,,,,,,,,,,,,,,,,,,,,,0,3,3,0,1,,,,,,,,,,,,,,,,,,,,,,,,,,,,,,,,,,,,,,,,,,,,,,
917641,001,2022-11-20_16h28.57.248,Info_measure_main_exp,2022.2.2,Win32,59.62318149,,,,,,,,,,,,,,,,,,masks/mask_005.jpg,,,,,,,,,,,,,,,,,,,,,,,,,,,,,,,,,,,,,,,,,,,0,4,4,4,1,,,,,,,,,,,,,,,,,,,,,,,,,,,,,,,,,,,,,,,,,,,,,,
917641,001,2022-11-20_16h28.57.248,Info_measure_main_exp,2022.2.2,Win32,59.62318149,,,,,,,,,,,,,,,,,,masks/mask_005.jpg,,,,,,,,,,,,,,,,,,,,,,,,,,,,,,,,,,,,,,,,,,,,,,,,0,0,0,4,1,,,,,,,,,,,,,,,,,,,,,,,,,,,,,,,,,,,,,,,,,
917641,001,2022-11-20_16h28.57.248,Info_measure_main_exp,2022.2.2,Win32,59.62318149,,,,,,,,,,,,,,,,,,masks/mask_001.jpg,,,,,,,,,,,,,,,,,,,,,,,,,,,,,,,,,,,,,,,,,,,,,,,,0,1,1,0,1,,,,,,,,,,,,,,,,,,,,,,,,,,,,,,,,,,,,,,,,,
917641,001,2022-11-20_16h28.57.248,Info_measure_main_exp,2022.2.2,Win32,59.62318149,,,,,,,,,,,,,,,,,,masks/mask_004.jpg,,,,,,,,,,,,,,,,,,,,,,,,,,,,,,,,,,,,,,,,,,,,,,,,0,2,2,3,1,,,,,,,,,,,,,,,,,,,,,,,,,,,,,,,,,,,,,,,,,
917641,001,2022-11-20_16h28.57.248,Info_measure_main_exp,2022.2.2,Win32,59.62318149,,,,,,,,,,,,,,,,,,masks/mask_002.jpg,,,,,,,,,,,,,,,,,,,,,,,,,,,,,,,,,,,,,,,,,,,,,,,,0,3,3,1,1,,,,,,,,,,,,,,,,,,,,,,,,,,,,,,,,,,,,,,,,,
917641,001,2022-11-20_16h28.57.248,Info_measure_main_exp,2022.2.2,Win32,59.62318149,,,,,,,,,,,,,,,,,,masks/mask_003.jpg,,,,,,,,,,,,,,,,,,,,,,,,,,,,,,,,,,,,,,,,,,,,,,,,0,4,4,2,1,,,,,,,,,,,,,,,,,,,,,,,,,,,,,,,,,,,,,,,,,
917641,001,2022-11-20_16h28.57.248,Info_measure_main_exp,2022.2.2,Win32,59.62318149,,,,,,,,,,,,,,,,,,,,,,,,,,,,,,7,2.0641,1,,,,,,,,,,,,0,131,5,5,2082,2166,absent_patch/patch0002082.jpg,absent_patch/patch0002166.jpg,,,,,,,,,,,,,,,,,,,,0.02118581,0.048653079,1,0,0,response1disk,31,0.006387682,0.004258334,1,0,0,center_square,0,30,30,43,1,,,,,,,,,,,,,,,,,,,,,,,
917641,001,2022-11-20_16h28.57.248,Info_measure_main_exp,2022.2.2,Win32,59.62318149,,,,,,,,,,,,,,,,,,masks/mask_003.jpg,,,,,,,,,,,,,,,,,,,,,,,,,,,,,,,,,,,,,,,,,,,0,0,0,2,1,,,,,,,,,,,,,,,,,,,,,,,,,,,,,,,,,,,,,,,,,,,,,,
917641,001,2022-11-20_16h28.57.248,Info_measure_main_exp,2022.2.2,Win32,59.62318149,,,,,,,,,,,,,,,,,,masks/mask_004.jpg,,,,,,,,,,,,,,,,,,,,,,,,,,,,,,,,,,,,,,,,,,,0,1,1,3,1,,,,,,,,,,,,,,,,,,,,,,,,,,,,,,,,,,,,,,,,,,,,,,
917641,001,2022-11-20_16h28.57.248,Info_measure_main_exp,2022.2.2,Win32,59.62318149,,,,,,,,,,,,,,,,,,masks/mask_005.jpg,,,,,,,,,,,,,,,,,,,,,,,,,,,,,,,,,,,,,,,,,,,0,2,2,4,1,,,,,,,,,,,,,,,,,,,,,,,,,,,,,,,,,,,,,,,,,,,,,,
917641,001,2022-11-20_16h28.57.248,Info_measure_main_exp,2022.2.2,Win32,59.62318149,,,,,,,,,,,,,,,,,,masks/mask_002.jpg,,,,,,,,,,,,,,,,,,,,,,,,,,,,,,,,,,,,,,,,,,,0,3,3,1,1,,,,,,,,,,,,,,,,,,,,,,,,,,,,,,,,,,,,,,,,,,,,,,
917641,001,2022-11-20_16h28.57.248,Info_measure_main_exp,2022.2.2,Win32,59.62318149,,,,,,,,,,,,,,,,,,masks/mask_001.jpg,,,,,,,,,,,,,,,,,,,,,,,,,,,,,,,,,,,,,,,,,,,0,4,4,0,1,,,,,,,,,,,,,,,,,,,,,,,,,,,,,,,,,,,,,,,,,,,,,,
917641,001,2022-11-20_16h28.57.248,Info_measure_main_exp,2022.2.2,Win32,59.62318149,,,,,,,,,,,,,,,,,,masks/mask_003.jpg,,,,,,,,,,,,,,,,,,,,,,,,,,,,,,,,,,,,,,,,,,,,,,,,0,0,0,2,1,,,,,,,,,,,,,,,,,,,,,,,,,,,,,,,,,,,,,,,,,
917641,001,2022-11-20_16h28.57.248,Info_measure_main_exp,2022.2.2,Win32,59.62318149,,,,,,,,,,,,,,,,,,masks/mask_001.jpg,,,,,,,,,,,,,,,,,,,,,,,,,,,,,,,,,,,,,,,,,,,,,,,,0,1,1,0,1,,,,,,,,,,,,,,,,,,,,,,,,,,,,,,,,,,,,,,,,,
917641,001,2022-11-20_16h28.57.248,Info_measure_main_exp,2022.2.2,Win32,59.62318149,,,,,,,,,,,,,,,,,,masks/mask_004.jpg,,,,,,,,,,,,,,,,,,,,,,,,,,,,,,,,,,,,,,,,,,,,,,,,0,2,2,3,1,,,,,,,,,,,,,,,,,,,,,,,,,,,,,,,,,,,,,,,,,
917641,001,2022-11-20_16h28.57.248,Info_measure_main_exp,2022.2.2,Win32,59.62318149,,,,,,,,,,,,,,,,,,masks/mask_002.jpg,,,,,,,,,,,,,,,,,,,,,,,,,,,,,,,,,,,,,,,,,,,,,,,,0,3,3,1,1,,,,,,,,,,,,,,,,,,,,,,,,,,,,,,,,,,,,,,,,,
917641,001,2022-11-20_16h28.57.248,Info_measure_main_exp,2022.2.2,Win32,59.62318149,,,,,,,,,,,,,,,,,,masks/mask_005.jpg,,,,,,,,,,,,,,,,,,,,,,,,,,,,,,,,,,,,,,,,,,,,,,,,0,4,4,4,1,,,,,,,,,,,,,,,,,,,,,,,,,,,,,,,,,,,,,,,,,
917641,001,2022-11-20_16h28.57.248,Info_measure_main_exp,2022.2.2,Win32,59.62318149,,,,,,,,,,,,,,,,,,,,,,,,,,,,,,0,1.1483,1,,,,,,,,,,,,0,131,5,5,2238,2238,absent_patch/patch0002238.jpg,absent_patch/patch0002238.jpg,,,,,,,,,,,,,,,,,,,,-0.058354771,0.127268851,1,0,0,response7disk,32,-0.005635972,0.004258334,1,0,0,center_square,0,31,31,58,1,,,,,,,,,,,,,,,,,,,,,,,
917641,001,2022-11-20_16h28.57.248,Info_measure_main_exp,2022.2.2,Win32,59.62318149,,,,,,,,,,,,,,,,,,masks/mask_004.jpg,,,,,,,,,,,,,,,,,,,,,,,,,,,,,,,,,,,,,,,,,,,0,0,0,3,1,,,,,,,,,,,,,,,,,,,,,,,,,,,,,,,,,,,,,,,,,,,,,,
917641,001,2022-11-20_16h28.57.248,Info_measure_main_exp,2022.2.2,Win32,59.62318149,,,,,,,,,,,,,,,,,,masks/mask_001.jpg,,,,,,,,,,,,,,,,,,,,,,,,,,,,,,,,,,,,,,,,,,,0,1,1,0,1,,,,,,,,,,,,,,,,,,,,,,,,,,,,,,,,,,,,,,,,,,,,,,
917641,001,2022-11-20_16h28.57.248,Info_measure_main_exp,2022.2.2,Win32,59.62318149,,,,,,,,,,,,,,,,,,masks/mask_005.jpg,,,,,,,,,,,,,,,,,,,,,,,,,,,,,,,,,,,,,,,,,,,0,2,2,4,1,,,,,,,,,,,,,,,,,,,,,,,,,,,,,,,,,,,,,,,,,,,,,,
917641,001,2022-11-20_16h28.57.248,Info_measure_main_exp,2022.2.2,Win32,59.62318149,,,,,,,,,,,,,,,,,,masks/mask_003.jpg,,,,,,,,,,,,,,,,,,,,,,,,,,,,,,,,,,,,,,,,,,,0,3,3,2,1,,,,,,,,,,,,,,,,,,,,,,,,,,,,,,,,,,,,,,,,,,,,,,
917641,001,2022-11-20_16h28.57.248,Info_measure_main_exp,2022.2.2,Win32,59.62318149,,,,,,,,,,,,,,,,,,masks/mask_002.jpg,,,,,,,,,,,,,,,,,,,,,,,,,,,,,,,,,,,,,,,,,,,0,4,4,1,1,,,,,,,,,,,,,,,,,,,,,,,,,,,,,,,,,,,,,,,,,,,,,,
917641,001,2022-11-20_16h28.57.248,Info_measure_main_exp,2022.2.2,Win32,59.62318149,,,,,,,,,,,,,,,,,,masks/mask_004.jpg,,,,,,,,,,,,,,,,,,,,,,,,,,,,,,,,,,,,,,,,,,,,,,,,0,0,0,3,1,,,,,,,,,,,,,,,,,,,,,,,,,,,,,,,,,,,,,,,,,
917641,001,2022-11-20_16h28.57.248,Info_measure_main_exp,2022.2.2,Win32,59.62318149,,,,,,,,,,,,,,,,,,masks/mask_002.jpg,,,,,,,,,,,,,,,,,,,,,,,,,,,,,,,,,,,,,,,,,,,,,,,,0,1,1,1,1,,,,,,,,,,,,,,,,,,,,,,,,,,,,,,,,,,,,,,,,,
917641,001,2022-11-20_16h28.57.248,Info_measure_main_exp,2022.2.2,Win32,59.62318149,,,,,,,,,,,,,,,,,,masks/mask_003.jpg,,,,,,,,,,,,,,,,,,,,,,,,,,,,,,,,,,,,,,,,,,,,,,,,0,2,2,2,1,,,,,,,,,,,,,,,,,,,,,,,,,,,,,,,,,,,,,,,,,
917641,001,2022-11-20_16h28.57.248,Info_measure_main_exp,2022.2.2,Win32,59.62318149,,,,,,,,,,,,,,,,,,masks/mask_001.jpg,,,,,,,,,,,,,,,,,,,,,,,,,,,,,,,,,,,,,,,,,,,,,,,,0,3,3,0,1,,,,,,,,,,,,,,,,,,,,,,,,,,,,,,,,,,,,,,,,,
917641,001,2022-11-20_16h28.57.248,Info_measure_main_exp,2022.2.2,Win32,59.62318149,,,,,,,,,,,,,,,,,,masks/mask_005.jpg,,,,,,,,,,,,,,,,,,,,,,,,,,,,,,,,,,,,,,,,,,,,,,,,0,4,4,4,1,,,,,,,,,,,,,,,,,,,,,,,,,,,,,,,,,,,,,,,,,
917641,001,2022-11-20_16h28.57.248,Info_measure_main_exp,2022.2.2,Win32,59.62318149,,,,,,,,,,,,,,,,,,,,,,,,,,,,,,6,5.5279,1,,,,,,,,,,,,0,131,5,5,2274,1974,absent_patch/patch0002274.jpg,absent_patch/patch0001974.jpg,,,,,,,,,,,,,,,,,,,,0.132172899,0.04310377,1,0,0,response1disk,33,-0.009335572,-0.00036612,1,0,0,center_square,0,32,32,90,1,,,,,,,,,,,,,,,,,,,,,,,
917641,001,2022-11-20_16h28.57.248,Info_measure_main_exp,2022.2.2,Win32,59.62318149,,,,,,,,,,,,,,,,,,masks/mask_003.jpg,,,,,,,,,,,,,,,,,,,,,,,,,,,,,,,,,,,,,,,,,,,0,0,0,2,1,,,,,,,,,,,,,,,,,,,,,,,,,,,,,,,,,,,,,,,,,,,,,,
917641,001,2022-11-20_16h28.57.248,Info_measure_main_exp,2022.2.2,Win32,59.62318149,,,,,,,,,,,,,,,,,,masks/mask_005.jpg,,,,,,,,,,,,,,,,,,,,,,,,,,,,,,,,,,,,,,,,,,,0,1,1,4,1,,,,,,,,,,,,,,,,,,,,,,,,,,,,,,,,,,,,,,,,,,,,,,
917641,001,2022-11-20_16h28.57.248,Info_measure_main_exp,2022.2.2,Win32,59.62318149,,,,,,,,,,,,,,,,,,masks/mask_004.jpg,,,,,,,,,,,,,,,,,,,,,,,,,,,,,,,,,,,,,,,,,,,0,2,2,3,1,,,,,,,,,,,,,,,,,,,,,,,,,,,,,,,,,,,,,,,,,,,,,,
917641,001,2022-11-20_16h28.57.248,Info_measure_main_exp,2022.2.2,Win32,59.62318149,,,,,,,,,,,,,,,,,,masks/mask_002.jpg,,,,,,,,,,,,,,,,,,,,,,,,,,,,,,,,,,,,,,,,,,,0,3,3,1,1,,,,,,,,,,,,,,,,,,,,,,,,,,,,,,,,,,,,,,,,,,,,,,
917641,001,2022-11-20_16h28.57.248,Info_measure_main_exp,2022.2.2,Win32,59.62318149,,,,,,,,,,,,,,,,,,masks/mask_001.jpg,,,,,,,,,,,,,,,,,,,,,,,,,,,,,,,,,,,,,,,,,,,0,4,4,0,1,,,,,,,,,,,,,,,,,,,,,,,,,,,,,,,,,,,,,,,,,,,,,,
917641,001,2022-11-20_16h28.57.248,Info_measure_main_exp,2022.2.2,Win32,59.62318149,,,,,,,,,,,,,,,,,,masks/mask_001.jpg,,,,,,,,,,,,,,,,,,,,,,,,,,,,,,,,,,,,,,,,,,,,,,,,0,0,0,0,1,,,,,,,,,,,,,,,,,,,,,,,,,,,,,,,,,,,,,,,,,
917641,001,2022-11-20_16h28.57.248,Info_measure_main_exp,2022.2.2,Win32,59.62318149,,,,,,,,,,,,,,,,,,masks/mask_003.jpg,,,,,,,,,,,,,,,,,,,,,,,,,,,,,,,,,,,,,,,,,,,,,,,,0,1,1,2,1,,,,,,,,,,,,,,,,,,,,,,,,,,,,,,,,,,,,,,,,,
917641,001,2022-11-20_16h28.57.248,Info_measure_main_exp,2022.2.2,Win32,59.62318149,,,,,,,,,,,,,,,,,,masks/mask_004.jpg,,,,,,,,,,,,,,,,,,,,,,,,,,,,,,,,,,,,,,,,,,,,,,,,0,2,2,3,1,,,,,,,,,,,,,,,,,,,,,,,,,,,,,,,,,,,,,,,,,
917641,001,2022-11-20_16h28.57.248,Info_measure_main_exp,2022.2.2,Win32,59.62318149,,,,,,,,,,,,,,,,,,masks/mask_005.jpg,,,,,,,,,,,,,,,,,,,,,,,,,,,,,,,,,,,,,,,,,,,,,,,,0,3,3,4,1,,,,,,,,,,,,,,,,,,,,,,,,,,,,,,,,,,,,,,,,,
917641,001,2022-11-20_16h28.57.248,Info_measure_main_exp,2022.2.2,Win32,59.62318149,,,,,,,,,,,,,,,,,,masks/mask_002.jpg,,,,,,,,,,,,,,,,,,,,,,,,,,,,,,,,,,,,,,,,,,,,,,,,0,4,4,1,1,,,,,,,,,,,,,,,,,,,,,,,,,,,,,,,,,,,,,,,,,
917641,001,2022-11-20_16h28.57.248,Info_measure_main_exp,2022.2.2,Win32,59.62318149,,,,,,,,,,,,,,,,,,,,,,,,,,,,,,7,0.6996,1,,,,,,,,,,,,0,131,5,5,1950,2214,absent_patch/patch0001950.jpg,absent_patch/patch0002214.jpg,,,,,,,,,,,,,,,,,,,,0.027660064,0.102296778,1,0,0,response1disk,34,-0.007485681,-0.00129102,1,0,0,center_square,0,33,33,85,1,,,,,,,,,,,,,,,,,,,,,,,
917641,001,2022-11-20_16h28.57.248,Info_measure_main_exp,2022.2.2,Win32,59.62318149,,,,,,,,,,,,,,,,,,masks/mask_004.jpg,,,,,,,,,,,,,,,,,,,,,,,,,,,,,,,,,,,,,,,,,,,0,0,0,3,1,,,,,,,,,,,,,,,,,,,,,,,,,,,,,,,,,,,,,,,,,,,,,,
917641,001,2022-11-20_16h28.57.248,Info_measure_main_exp,2022.2.2,Win32,59.62318149,,,,,,,,,,,,,,,,,,masks/mask_003.jpg,,,,,,,,,,,,,,,,,,,,,,,,,,,,,,,,,,,,,,,,,,,0,1,1,2,1,,,,,,,,,,,,,,,,,,,,,,,,,,,,,,,,,,,,,,,,,,,,,,
917641,001,2022-11-20_16h28.57.248,Info_measure_main_exp,2022.2.2,Win32,59.62318149,,,,,,,,,,,,,,,,,,masks/mask_001.jpg,,,,,,,,,,,,,,,,,,,,,,,,,,,,,,,,,,,,,,,,,,,0,2,2,0,1,,,,,,,,,,,,,,,,,,,,,,,,,,,,,,,,,,,,,,,,,,,,,,
917641,001,2022-11-20_16h28.57.248,Info_measure_main_exp,2022.2.2,Win32,59.62318149,,,,,,,,,,,,,,,,,,masks/mask_005.jpg,,,,,,,,,,,,,,,,,,,,,,,,,,,,,,,,,,,,,,,,,,,0,3,3,4,1,,,,,,,,,,,,,,,,,,,,,,,,,,,,,,,,,,,,,,,,,,,,,,
917641,001,2022-11-20_16h28.57.248,Info_measure_main_exp,2022.2.2,Win32,59.62318149,,,,,,,,,,,,,,,,,,masks/mask_002.jpg,,,,,,,,,,,,,,,,,,,,,,,,,,,,,,,,,,,,,,,,,,,0,4,4,1,1,,,,,,,,,,,,,,,,,,,,,,,,,,,,,,,,,,,,,,,,,,,,,,
917641,001,2022-11-20_16h28.57.248,Info_measure_main_exp,2022.2.2,Win32,59.62318149,,,,,,,,,,,,,,,,,,masks/mask_001.jpg,,,,,,,,,,,,,,,,,,,,,,,,,,,,,,,,,,,,,,,,,,,,,,,,0,0,0,0,1,,,,,,,,,,,,,,,,,,,,,,,,,,,,,,,,,,,,,,,,,
917641,001,2022-11-20_16h28.57.248,Info_measure_main_exp,2022.2.2,Win32,59.62318149,,,,,,,,,,,,,,,,,,masks/mask_004.jpg,,,,,,,,,,,,,,,,,,,,,,,,,,,,,,,,,,,,,,,,,,,,,,,,0,1,1,3,1,,,,,,,,,,,,,,,,,,,,,,,,,,,,,,,,,,,,,,,,,
917641,001,2022-11-20_16h28.57.248,Info_measure_main_exp,2022.2.2,Win32,59.62318149,,,,,,,,,,,,,,,,,,masks/mask_005.jpg,,,,,,,,,,,,,,,,,,,,,,,,,,,,,,,,,,,,,,,,,,,,,,,,0,2,2,4,1,,,,,,,,,,,,,,,,,,,,,,,,,,,,,,,,,,,,,,,,,
917641,001,2022-11-20_16h28.57.248,Info_measure_main_exp,2022.2.2,Win32,59.62318149,,,,,,,,,,,,,,,,,,masks/mask_003.jpg,,,,,,,,,,,,,,,,,,,,,,,,,,,,,,,,,,,,,,,,,,,,,,,,0,3,3,2,1,,,,,,,,,,,,,,,,,,,,,,,,,,,,,,,,,,,,,,,,,
