participant,session,date,expName,psychopyVersion,OS,frameRate,space_press_continue.keys,space_press_continue.rt,space_press_continue_2.keys,space_press_continue_2.rt,space_press_continue_3.keys,space_press_continue_3.rt,space_press_continue_4.keys,space_press_continue_4.rt,space_press_continue_5.keys,space_press_continue_5.rt,space_press_continue_6.keys,space_press_continue_6.rt,prac_mask_loop_1.thisRepN,prac_mask_loop_1.thisTrialN,prac_mask_loop_1.thisN,prac_mask_loop_1.thisIndex,prac_mask_loop_1.ran,mask_name,prac_mask_loop_2.thisRepN,prac_mask_loop_2.thisTrialN,prac_mask_loop_2.thisN,prac_mask_loop_2.thisIndex,prac_mask_loop_2.ran,mouse_2.x,mouse_2.y,mouse_2.leftButton,mouse_2.midButton,mouse_2.rightButton,mouse_2.clicked_name,similarity,response_time,Pass,mouse_12.x,mouse_12.y,mouse_12.leftButton,mouse_12.midButton,mouse_12.rightButton,mouse_12.clicked_name,prac_loop.thisRepN,prac_loop.thisTrialN,prac_loop.thisN,prac_loop.thisIndex,prac_loop.ran,Pair_type,Image_num,Patch_1_loc,Patch_2_loc,Patch_1_info,Patch_2_info,Patch_1_name,Patch_2_name,mouse_1.x,mouse_1.y,mouse_1.leftButton,mouse_1.midButton,mouse_1.rightButton,mouse_1.time,mouse_1.clicked_name,space_press_continue_7.keys,space_press_continue_7.rt,mask_loop.thisRepN,mask_loop.thisTrialN,mask_loop.thisN,mask_loop.thisIndex,mask_loop.ran,mask_loop_2.thisRepN,mask_loop_2.thisTrialN,mask_loop_2.thisN,mask_loop_2.thisIndex,mask_loop_2.ran,mouse.x,mouse.y,mouse.leftButton,mouse.midButton,mouse.rightButton,mouse.clicked_name,trialNumber,mouse_11.x,mouse_11.y,mouse_11.leftButton,mouse_11.midButton,mouse_11.rightButton,mouse_11.clicked_name,first_pass_loop.thisRepN,first_pass_loop.thisTrialN,first_pass_loop.thisN,first_pass_loop.thisIndex,first_pass_loop.ran,mask_loop_3.thisRepN,mask_loop_3.thisTrialN,mask_loop_3.thisN,mask_loop_3.thisIndex,mask_loop_3.ran,mask_loop_4.thisRepN,mask_loop_4.thisTrialN,mask_loop_4.thisN,mask_loop_4.thisIndex,mask_loop_4.ran,mouse_3.x,mouse_3.y,mouse_3.leftButton,mouse_3.midButton,mouse_3.rightButton,mouse_3.clicked_name,double_pass_loop.thisRepN,double_pass_loop.thisTrialN,double_pass_loop.thisN,double_pass_loop.thisIndex,double_pass_loop.ran,space_exit.keys,space_exit.rt
917998,001,2022-11-20_23h58.59.616,Info_measure_main_exp,2022.2.2,Win32,60.08532116,,,,,,,,,,,,,,,,,,,,,,,,,,,,,,,,,,,,,,,,,,,,,,,,,,,,,,,,,,,,,,,,,,,,,,,,,,,,,,,,,,,,,,,,,,,,,,,,,,,,,,,,,,,,,,,
917998,001,2022-11-20_23h58.59.616,Info_measure_main_exp,2022.2.2,Win32,60.08532116,,,,,,,,,,,,,,,,,,,,,,,,,,,,,,,,,,,,,,,,,,,,,,,,,,,,,,,,,,,,,,,,,,,,,,,,,,,,,,,,,,,,,,,,,,,,,,,,,,,,,,,,,,,,,,,
917998,001,2022-11-20_23h58.59.616,Info_measure_main_exp,2022.2.2,Win32,60.08532116,space,1.3009,,,,,,,,,,,,,,,,,,,,,,,,,,,,,,,,,,,,,,,,,,,,,,,,,,,,,,,,,,,,,,,,,,,,,,,,,,,,,,,,,,,,,,,,,,,,,,,,,,,,,,,,,,,,,
917998,001,2022-11-20_23h58.59.616,Info_measure_main_exp,2022.2.2,Win32,60.08532116,,,space,0.6481,,,,,,,,,,,,,,,,,,,,,,,,,,,,,,,,,,,,,,,,,,,,,,,,,,,,,,,,,,,,,,,,,,,,,,,,,,,,,,,,,,,,,,,,,,,,,,,,,,,,,,,,,,,
917998,001,2022-11-20_23h58.59.616,Info_measure_main_exp,2022.2.2,Win32,60.08532116,,,,,space,0.6257,,,,,,,,,,,,,,,,,,,,,,,,,,,,,,,,,,,,,,,,,,,,,,,,,,,,,,,,,,,,,,,,,,,,,,,,,,,,,,,,,,,,,,,,,,,,,,,,,,,,,,,,,
917998,001,2022-11-20_23h58.59.616,Info_measure_main_exp,2022.2.2,Win32,60.08532116,,,,,,,space,1.0409,,,,,,,,,,,,,,,,,,,,,,,,,,,,,,,,,,,,,,,,,,,,,,,,,,,,,,,,,,,,,,,,,,,,,,,,,,,,,,,,,,,,,,,,,,,,,,,,,,,,,,,
917998,001,2022-11-20_23h58.59.616,Info_measure_main_exp,2022.2.2,Win32,60.08532116,,,,,,,,,space,0.2827,,,,,,,,,,,,,,,,,,,,,,,,,,,,,,,,,,,,,,,,,,,,,,,,,,,,,,,,,,,,,,,,,,,,,,,,,,,,,,,,,,,,,,,,,,,,,,,,,,,,,
917998,001,2022-11-20_23h58.59.616,Info_measure_main_exp,2022.2.2,Win32,60.08532116,,,,,,,,,,,space,1.4013,,,,,,,,,,,,,,,,,,,,,,,,,,,,,,,,,,,,,,,,,,,,,,,,,,,,,,,,,,,,,,,,,,,,,,,,,,,,,,,,,,,,,,,,,,,,,,,,,,,
917998,001,2022-11-20_23h58.59.616,Info_measure_main_exp,2022.2.2,Win32,60.08532116,,,,,,,,,,,,,0,0,0,2,1,masks/mask_003.jpg,,,,,,,,,,,,,,,,,,,,,,,,,,,,,,,,,,,,,,,,,,,,,,,,,,,,,,,,,,,,,,,,,,,,,,,,,,,,,,,,,,,,,,,,,,,,,
917998,001,2022-11-20_23h58.59.616,Info_measure_main_exp,2022.2.2,Win32,60.08532116,,,,,,,,,,,,,0,1,1,1,1,masks/mask_002.jpg,,,,,,,,,,,,,,,,,,,,,,,,,,,,,,,,,,,,,,,,,,,,,,,,,,,,,,,,,,,,,,,,,,,,,,,,,,,,,,,,,,,,,,,,,,,,,
917998,001,2022-11-20_23h58.59.616,Info_measure_main_exp,2022.2.2,Win32,60.08532116,,,,,,,,,,,,,0,2,2,0,1,masks/mask_001.jpg,,,,,,,,,,,,,,,,,,,,,,,,,,,,,,,,,,,,,,,,,,,,,,,,,,,,,,,,,,,,,,,,,,,,,,,,,,,,,,,,,,,,,,,,,,,,,
917998,001,2022-11-20_23h58.59.616,Info_measure_main_exp,2022.2.2,Win32,60.08532116,,,,,,,,,,,,,0,3,3,3,1,masks/mask_004.jpg,,,,,,,,,,,,,,,,,,,,,,,,,,,,,,,,,,,,,,,,,,,,,,,,,,,,,,,,,,,,,,,,,,,,,,,,,,,,,,,,,,,,,,,,,,,,,
917998,001,2022-11-20_23h58.59.616,Info_measure_main_exp,2022.2.2,Win32,60.08532116,,,,,,,,,,,,,0,4,4,4,1,masks/mask_005.jpg,,,,,,,,,,,,,,,,,,,,,,,,,,,,,,,,,,,,,,,,,,,,,,,,,,,,,,,,,,,,,,,,,,,,,,,,,,,,,,,,,,,,,,,,,,,,,
917998,001,2022-11-20_23h58.59.616,Info_measure_main_exp,2022.2.2,Win32,60.08532116,,,,,,,,,,,,,,,,,,masks/mask_004.jpg,0,0,0,3,1,,,,,,,,,,,,,,,,,,,,,,,,,,,,,,,,,,,,,,,,,,,,,,,,,,,,,,,,,,,,,,,,,,,,,,,,,,,,,,,,,,,,,,,,
917998,001,2022-11-20_23h58.59.616,Info_measure_main_exp,2022.2.2,Win32,60.08532116,,,,,,,,,,,,,,,,,,masks/mask_005.jpg,0,1,1,4,1,,,,,,,,,,,,,,,,,,,,,,,,,,,,,,,,,,,,,,,,,,,,,,,,,,,,,,,,,,,,,,,,,,,,,,,,,,,,,,,,,,,,,,,,
917998,001,2022-11-20_23h58.59.616,Info_measure_main_exp,2022.2.2,Win32,60.08532116,,,,,,,,,,,,,,,,,,masks/mask_001.jpg,0,2,2,0,1,,,,,,,,,,,,,,,,,,,,,,,,,,,,,,,,,,,,,,,,,,,,,,,,,,,,,,,,,,,,,,,,,,,,,,,,,,,,,,,,,,,,,,,,
917998,001,2022-11-20_23h58.59.616,Info_measure_main_exp,2022.2.2,Win32,60.08532116,,,,,,,,,,,,,,,,,,masks/mask_002.jpg,0,3,3,1,1,,,,,,,,,,,,,,,,,,,,,,,,,,,,,,,,,,,,,,,,,,,,,,,,,,,,,,,,,,,,,,,,,,,,,,,,,,,,,,,,,,,,,,,,
917998,001,2022-11-20_23h58.59.616,Info_measure_main_exp,2022.2.2,Win32,60.08532116,,,,,,,,,,,,,,,,,,masks/mask_003.jpg,0,4,4,2,1,,,,,,,,,,,,,,,,,,,,,,,,,,,,,,,,,,,,,,,,,,,,,,,,,,,,,,,,,,,,,,,,,,,,,,,,,,,,,,,,,,,,,,,,
917998,001,2022-11-20_23h58.59.616,Info_measure_main_exp,2022.2.2,Win32,60.08532116,,,,,,,,,,,,,,,,,,,,,,,,0.140740741,-0.072222222,1,0,0,response3disk,5,10.1589,1,-0.005555556,-0.002777778,1,0,0,center_square,0,0,0,2,1,0,131,5,5,2526,2526,prac_patch/patch0002526.jpg,prac_patch/patch0002526.jpg,,,,,,,,,,,,,,,,,,,,,,,,,,,,,,,,,,,,,,,,,,,,,,,,,,,,,,,,,,,,
917998,001,2022-11-20_23h58.59.616,Info_measure_main_exp,2022.2.2,Win32,60.08532116,,,,,,,,,,,,,0,0,0,1,1,masks/mask_002.jpg,,,,,,,,,,,,,,,,,,,,,,,,,,,,,,,,,,,,,,,,,,,,,,,,,,,,,,,,,,,,,,,,,,,,,,,,,,,,,,,,,,,,,,,,,,,,,
917998,001,2022-11-20_23h58.59.616,Info_measure_main_exp,2022.2.2,Win32,60.08532116,,,,,,,,,,,,,0,1,1,3,1,masks/mask_004.jpg,,,,,,,,,,,,,,,,,,,,,,,,,,,,,,,,,,,,,,,,,,,,,,,,,,,,,,,,,,,,,,,,,,,,,,,,,,,,,,,,,,,,,,,,,,,,,
917998,001,2022-11-20_23h58.59.616,Info_measure_main_exp,2022.2.2,Win32,60.08532116,,,,,,,,,,,,,0,2,2,0,1,masks/mask_001.jpg,,,,,,,,,,,,,,,,,,,,,,,,,,,,,,,,,,,,,,,,,,,,,,,,,,,,,,,,,,,,,,,,,,,,,,,,,,,,,,,,,,,,,,,,,,,,,
917998,001,2022-11-20_23h58.59.616,Info_measure_main_exp,2022.2.2,Win32,60.08532116,,,,,,,,,,,,,0,3,3,2,1,masks/mask_003.jpg,,,,,,,,,,,,,,,,,,,,,,,,,,,,,,,,,,,,,,,,,,,,,,,,,,,,,,,,,,,,,,,,,,,,,,,,,,,,,,,,,,,,,,,,,,,,,
917998,001,2022-11-20_23h58.59.616,Info_measure_main_exp,2022.2.2,Win32,60.08532116,,,,,,,,,,,,,0,4,4,4,1,masks/mask_005.jpg,,,,,,,,,,,,,,,,,,,,,,,,,,,,,,,,,,,,,,,,,,,,,,,,,,,,,,,,,,,,,,,,,,,,,,,,,,,,,,,,,,,,,,,,,,,,,
917998,001,2022-11-20_23h58.59.616,Info_measure_main_exp,2022.2.2,Win32,60.08532116,,,,,,,,,,,,,,,,,,masks/mask_001.jpg,0,0,0,0,1,,,,,,,,,,,,,,,,,,,,,,,,,,,,,,,,,,,,,,,,,,,,,,,,,,,,,,,,,,,,,,,,,,,,,,,,,,,,,,,,,,,,,,,,
917998,001,2022-11-20_23h58.59.616,Info_measure_main_exp,2022.2.2,Win32,60.08532116,,,,,,,,,,,,,,,,,,masks/mask_003.jpg,0,1,1,2,1,,,,,,,,,,,,,,,,,,,,,,,,,,,,,,,,,,,,,,,,,,,,,,,,,,,,,,,,,,,,,,,,,,,,,,,,,,,,,,,,,,,,,,,,
917998,001,2022-11-20_23h58.59.616,Info_measure_main_exp,2022.2.2,Win32,60.08532116,,,,,,,,,,,,,,,,,,masks/mask_002.jpg,0,2,2,1,1,,,,,,,,,,,,,,,,,,,,,,,,,,,,,,,,,,,,,,,,,,,,,,,,,,,,,,,,,,,,,,,,,,,,,,,,,,,,,,,,,,,,,,,,
917998,001,2022-11-20_23h58.59.616,Info_measure_main_exp,2022.2.2,Win32,60.08532116,,,,,,,,,,,,,,,,,,masks/mask_005.jpg,0,3,3,4,1,,,,,,,,,,,,,,,,,,,,,,,,,,,,,,,,,,,,,,,,,,,,,,,,,,,,,,,,,,,,,,,,,,,,,,,,,,,,,,,,,,,,,,,,
917998,001,2022-11-20_23h58.59.616,Info_measure_main_exp,2022.2.2,Win32,60.08532116,,,,,,,,,,,,,,,,,,masks/mask_004.jpg,0,4,4,3,1,,,,,,,,,,,,,,,,,,,,,,,,,,,,,,,,,,,,,,,,,,,,,,,,,,,,,,,,,,,,,,,,,,,,,,,,,,,,,,,,,,,,,,,,
917998,001,2022-11-20_23h58.59.616,Info_measure_main_exp,2022.2.2,Win32,60.08532116,,,,,,,,,,,,,,,,,,,,,,,,0.115740741,0.050925926,1,0,0,response1disk,6,21.5415,1,0.002777778,0.002777778,1,0,0,center_square,0,1,1,1,1,0,131,5,5,2514,2490,prac_patch/patch0002514.jpg,prac_patch/patch0002490.jpg,,,,,,,,,,,,,,,,,,,,,,,,,,,,,,,,,,,,,,,,,,,,,,,,,,,,,,,,,,,,
917998,001,2022-11-20_23h58.59.616,Info_measure_main_exp,2022.2.2,Win32,60.08532116,,,,,,,,,,,,,0,0,0,1,1,masks/mask_002.jpg,,,,,,,,,,,,,,,,,,,,,,,,,,,,,,,,,,,,,,,,,,,,,,,,,,,,,,,,,,,,,,,,,,,,,,,,,,,,,,,,,,,,,,,,,,,,,
917998,001,2022-11-20_23h58.59.616,Info_measure_main_exp,2022.2.2,Win32,60.08532116,,,,,,,,,,,,,0,1,1,4,1,masks/mask_005.jpg,,,,,,,,,,,,,,,,,,,,,,,,,,,,,,,,,,,,,,,,,,,,,,,,,,,,,,,,,,,,,,,,,,,,,,,,,,,,,,,,,,,,,,,,,,,,,
917998,001,2022-11-20_23h58.59.616,Info_measure_main_exp,2022.2.2,Win32,60.08532116,,,,,,,,,,,,,0,2,2,0,1,masks/mask_001.jpg,,,,,,,,,,,,,,,,,,,,,,,,,,,,,,,,,,,,,,,,,,,,,,,,,,,,,,,,,,,,,,,,,,,,,,,,,,,,,,,,,,,,,,,,,,,,,
917998,001,2022-11-20_23h58.59.616,Info_measure_main_exp,2022.2.2,Win32,60.08532116,,,,,,,,,,,,,0,3,3,3,1,masks/mask_004.jpg,,,,,,,,,,,,,,,,,,,,,,,,,,,,,,,,,,,,,,,,,,,,,,,,,,,,,,,,,,,,,,,,,,,,,,,,,,,,,,,,,,,,,,,,,,,,,
917998,001,2022-11-20_23h58.59.616,Info_measure_main_exp,2022.2.2,Win32,60.08532116,,,,,,,,,,,,,0,4,4,2,1,masks/mask_003.jpg,,,,,,,,,,,,,,,,,,,,,,,,,,,,,,,,,,,,,,,,,,,,,,,,,,,,,,,,,,,,,,,,,,,,,,,,,,,,,,,,,,,,,,,,,,,,,
917998,001,2022-11-20_23h58.59.616,Info_measure_main_exp,2022.2.2,Win32,60.08532116,,,,,,,,,,,,,,,,,,masks/mask_002.jpg,0,0,0,1,1,,,,,,,,,,,,,,,,,,,,,,,,,,,,,,,,,,,,,,,,,,,,,,,,,,,,,,,,,,,,,,,,,,,,,,,,,,,,,,,,,,,,,,,,
917998,001,2022-11-20_23h58.59.616,Info_measure_main_exp,2022.2.2,Win32,60.08532116,,,,,,,,,,,,,,,,,,masks/mask_004.jpg,0,1,1,3,1,,,,,,,,,,,,,,,,,,,,,,,,,,,,,,,,,,,,,,,,,,,,,,,,,,,,,,,,,,,,,,,,,,,,,,,,,,,,,,,,,,,,,,,,
917998,001,2022-11-20_23h58.59.616,Info_measure_main_exp,2022.2.2,Win32,60.08532116,,,,,,,,,,,,,,,,,,masks/mask_003.jpg,0,2,2,2,1,,,,,,,,,,,,,,,,,,,,,,,,,,,,,,,,,,,,,,,,,,,,,,,,,,,,,,,,,,,,,,,,,,,,,,,,,,,,,,,,,,,,,,,,
917998,001,2022-11-20_23h58.59.616,Info_measure_main_exp,2022.2.2,Win32,60.08532116,,,,,,,,,,,,,,,,,,masks/mask_005.jpg,0,3,3,4,1,,,,,,,,,,,,,,,,,,,,,,,,,,,,,,,,,,,,,,,,,,,,,,,,,,,,,,,,,,,,,,,,,,,,,,,,,,,,,,,,,,,,,,,,
917998,001,2022-11-20_23h58.59.616,Info_measure_main_exp,2022.2.2,Win32,60.08532116,,,,,,,,,,,,,,,,,,masks/mask_001.jpg,0,4,4,0,1,,,,,,,,,,,,,,,,,,,,,,,,,,,,,,,,,,,,,,,,,,,,,,,,,,,,,,,,,,,,,,,,,,,,,,,,,,,,,,,,,,,,,,,,
917998,001,2022-11-20_23h58.59.616,Info_measure_main_exp,2022.2.2,Win32,60.08532116,,,,,,,,,,,,,,,,,,,,,,,,0.036111111,0.072222222,1,0,0,response1disk,7,29.2744,1,-0.00462963,-0.009259259,1,0,0,center_square,0,2,2,0,1,0,131,5,5,2370,2406,prac_patch/patch0002370.jpg,prac_patch/patch0002406.jpg,,,,,,,,,,,,,,,,,,,,,,,,,,,,,,,,,,,,,,,,,,,,,,,,,,,,,,,,,,,,
917998,001,2022-11-20_23h58.59.616,Info_measure_main_exp,2022.2.2,Win32,60.08532116,,,,,,,,,,,,,,,,,,,,,,,,,,,,,,,,,,,,,,,,,,,,,,,,,,,,,,,,,,,space,2.9146,,,,,,,,,,,,,,,,,,,,,,,,,,,,,,,,,,,,,,,,,,,,,,,,,,,
917998,001,2022-11-20_23h58.59.616,Info_measure_main_exp,2022.2.2,Win32,60.08532116,,,,,,,,,,,,,,,,,,masks/mask_004.jpg,,,,,,,,,,,,,,,,,,,,,,,,,,,,,,,,,,,,,,,,,,,0,0,0,3,1,,,,,,,,,,,,,,,,,,,,,,,,,,,,,,,,,,,,,,,,,,,,,,
917998,001,2022-11-20_23h58.59.616,Info_measure_main_exp,2022.2.2,Win32,60.08532116,,,,,,,,,,,,,,,,,,masks/mask_001.jpg,,,,,,,,,,,,,,,,,,,,,,,,,,,,,,,,,,,,,,,,,,,0,1,1,0,1,,,,,,,,,,,,,,,,,,,,,,,,,,,,,,,,,,,,,,,,,,,,,,
917998,001,2022-11-20_23h58.59.616,Info_measure_main_exp,2022.2.2,Win32,60.08532116,,,,,,,,,,,,,,,,,,masks/mask_003.jpg,,,,,,,,,,,,,,,,,,,,,,,,,,,,,,,,,,,,,,,,,,,0,2,2,2,1,,,,,,,,,,,,,,,,,,,,,,,,,,,,,,,,,,,,,,,,,,,,,,
917998,001,2022-11-20_23h58.59.616,Info_measure_main_exp,2022.2.2,Win32,60.08532116,,,,,,,,,,,,,,,,,,masks/mask_002.jpg,,,,,,,,,,,,,,,,,,,,,,,,,,,,,,,,,,,,,,,,,,,0,3,3,1,1,,,,,,,,,,,,,,,,,,,,,,,,,,,,,,,,,,,,,,,,,,,,,,
917998,001,2022-11-20_23h58.59.616,Info_measure_main_exp,2022.2.2,Win32,60.08532116,,,,,,,,,,,,,,,,,,masks/mask_005.jpg,,,,,,,,,,,,,,,,,,,,,,,,,,,,,,,,,,,,,,,,,,,0,4,4,4,1,,,,,,,,,,,,,,,,,,,,,,,,,,,,,,,,,,,,,,,,,,,,,,
917998,001,2022-11-20_23h58.59.616,Info_measure_main_exp,2022.2.2,Win32,60.08532116,,,,,,,,,,,,,,,,,,masks/mask_005.jpg,,,,,,,,,,,,,,,,,,,,,,,,,,,,,,,,,,,,,,,,,,,,,,,,0,0,0,4,1,,,,,,,,,,,,,,,,,,,,,,,,,,,,,,,,,,,,,,,,,
917998,001,2022-11-20_23h58.59.616,Info_measure_main_exp,2022.2.2,Win32,60.08532116,,,,,,,,,,,,,,,,,,masks/mask_001.jpg,,,,,,,,,,,,,,,,,,,,,,,,,,,,,,,,,,,,,,,,,,,,,,,,0,1,1,0,1,,,,,,,,,,,,,,,,,,,,,,,,,,,,,,,,,,,,,,,,,
917998,001,2022-11-20_23h58.59.616,Info_measure_main_exp,2022.2.2,Win32,60.08532116,,,,,,,,,,,,,,,,,,masks/mask_003.jpg,,,,,,,,,,,,,,,,,,,,,,,,,,,,,,,,,,,,,,,,,,,,,,,,0,2,2,2,1,,,,,,,,,,,,,,,,,,,,,,,,,,,,,,,,,,,,,,,,,
917998,001,2022-11-20_23h58.59.616,Info_measure_main_exp,2022.2.2,Win32,60.08532116,,,,,,,,,,,,,,,,,,masks/mask_004.jpg,,,,,,,,,,,,,,,,,,,,,,,,,,,,,,,,,,,,,,,,,,,,,,,,0,3,3,3,1,,,,,,,,,,,,,,,,,,,,,,,,,,,,,,,,,,,,,,,,,
917998,001,2022-11-20_23h58.59.616,Info_measure_main_exp,2022.2.2,Win32,60.08532116,,,,,,,,,,,,,,,,,,masks/mask_002.jpg,,,,,,,,,,,,,,,,,,,,,,,,,,,,,,,,,,,,,,,,,,,,,,,,0,4,4,1,1,,,,,,,,,,,,,,,,,,,,,,,,,,,,,,,,,,,,,,,,,
917998,001,2022-11-20_23h58.59.616,Info_measure_main_exp,2022.2.2,Win32,60.08532116,,,,,,,,,,,,,,,,,,,,,,,,,,,,,,3,1.15,1,,,,,,,,,,,,0,131,5,5,2142,2082,absent_patch/patch0002142.jpg,absent_patch/patch0002082.jpg,,,,,,,,,,,,,,,,,,,,-0.062962963,-0.098148148,1,0,0,response5disk,1,0.003703704,0.000925926,1,0,0,center_square,0,0,0,88,1,,,,,,,,,,,,,,,,,,,,,,,
917998,001,2022-11-20_23h58.59.616,Info_measure_main_exp,2022.2.2,Win32,60.08532116,,,,,,,,,,,,,,,,,,masks/mask_004.jpg,,,,,,,,,,,,,,,,,,,,,,,,,,,,,,,,,,,,,,,,,,,0,0,0,3,1,,,,,,,,,,,,,,,,,,,,,,,,,,,,,,,,,,,,,,,,,,,,,,
917998,001,2022-11-20_23h58.59.616,Info_measure_main_exp,2022.2.2,Win32,60.08532116,,,,,,,,,,,,,,,,,,masks/mask_001.jpg,,,,,,,,,,,,,,,,,,,,,,,,,,,,,,,,,,,,,,,,,,,0,1,1,0,1,,,,,,,,,,,,,,,,,,,,,,,,,,,,,,,,,,,,,,,,,,,,,,
917998,001,2022-11-20_23h58.59.616,Info_measure_main_exp,2022.2.2,Win32,60.08532116,,,,,,,,,,,,,,,,,,masks/mask_003.jpg,,,,,,,,,,,,,,,,,,,,,,,,,,,,,,,,,,,,,,,,,,,0,2,2,2,1,,,,,,,,,,,,,,,,,,,,,,,,,,,,,,,,,,,,,,,,,,,,,,
917998,001,2022-11-20_23h58.59.616,Info_measure_main_exp,2022.2.2,Win32,60.08532116,,,,,,,,,,,,,,,,,,masks/mask_005.jpg,,,,,,,,,,,,,,,,,,,,,,,,,,,,,,,,,,,,,,,,,,,0,3,3,4,1,,,,,,,,,,,,,,,,,,,,,,,,,,,,,,,,,,,,,,,,,,,,,,
917998,001,2022-11-20_23h58.59.616,Info_measure_main_exp,2022.2.2,Win32,60.08532116,,,,,,,,,,,,,,,,,,masks/mask_002.jpg,,,,,,,,,,,,,,,,,,,,,,,,,,,,,,,,,,,,,,,,,,,0,4,4,1,1,,,,,,,,,,,,,,,,,,,,,,,,,,,,,,,,,,,,,,,,,,,,,,
917998,001,2022-11-20_23h58.59.616,Info_measure_main_exp,2022.2.2,Win32,60.08532116,,,,,,,,,,,,,,,,,,masks/mask_003.jpg,,,,,,,,,,,,,,,,,,,,,,,,,,,,,,,,,,,,,,,,,,,,,,,,0,0,0,2,1,,,,,,,,,,,,,,,,,,,,,,,,,,,,,,,,,,,,,,,,,
917998,001,2022-11-20_23h58.59.616,Info_measure_main_exp,2022.2.2,Win32,60.08532116,,,,,,,,,,,,,,,,,,masks/mask_005.jpg,,,,,,,,,,,,,,,,,,,,,,,,,,,,,,,,,,,,,,,,,,,,,,,,0,1,1,4,1,,,,,,,,,,,,,,,,,,,,,,,,,,,,,,,,,,,,,,,,,
917998,001,2022-11-20_23h58.59.616,Info_measure_main_exp,2022.2.2,Win32,60.08532116,,,,,,,,,,,,,,,,,,masks/mask_001.jpg,,,,,,,,,,,,,,,,,,,,,,,,,,,,,,,,,,,,,,,,,,,,,,,,0,2,2,0,1,,,,,,,,,,,,,,,,,,,,,,,,,,,,,,,,,,,,,,,,,
917998,001,2022-11-20_23h58.59.616,Info_measure_main_exp,2022.2.2,Win32,60.08532116,,,,,,,,,,,,,,,,,,masks/mask_002.jpg,,,,,,,,,,,,,,,,,,,,,,,,,,,,,,,,,,,,,,,,,,,,,,,,0,3,3,1,1,,,,,,,,,,,,,,,,,,,,,,,,,,,,,,,,,,,,,,,,,
917998,001,2022-11-20_23h58.59.616,Info_measure_main_exp,2022.2.2,Win32,60.08532116,,,,,,,,,,,,,,,,,,masks/mask_004.jpg,,,,,,,,,,,,,,,,,,,,,,,,,,,,,,,,,,,,,,,,,,,,,,,,0,4,4,3,1,,,,,,,,,,,,,,,,,,,,,,,,,,,,,,,,,,,,,,,,,
917998,001,2022-11-20_23h58.59.616,Info_measure_main_exp,2022.2.2,Win32,60.08532116,,,,,,,,,,,,,,,,,,,,,,,,,,,,,,7,0.8832,1,,,,,,,,,,,,0,131,5,5,2142,2238,absent_patch/patch0002142.jpg,absent_patch/patch0002238.jpg,,,,,,,,,,,,,,,,,,,,0.065740741,0.119444444,1,0,0,response1disk,2,0.002777778,0.003703704,1,0,0,center_square,0,1,1,101,1,,,,,,,,,,,,,,,,,,,,,,,
917998,001,2022-11-20_23h58.59.616,Info_measure_main_exp,2022.2.2,Win32,60.08532116,,,,,,,,,,,,,,,,,,masks/mask_005.jpg,,,,,,,,,,,,,,,,,,,,,,,,,,,,,,,,,,,,,,,,,,,0,0,0,4,1,,,,,,,,,,,,,,,,,,,,,,,,,,,,,,,,,,,,,,,,,,,,,,
917998,001,2022-11-20_23h58.59.616,Info_measure_main_exp,2022.2.2,Win32,60.08532116,,,,,,,,,,,,,,,,,,masks/mask_004.jpg,,,,,,,,,,,,,,,,,,,,,,,,,,,,,,,,,,,,,,,,,,,0,1,1,3,1,,,,,,,,,,,,,,,,,,,,,,,,,,,,,,,,,,,,,,,,,,,,,,
917998,001,2022-11-20_23h58.59.616,Info_measure_main_exp,2022.2.2,Win32,60.08532116,,,,,,,,,,,,,,,,,,masks/mask_002.jpg,,,,,,,,,,,,,,,,,,,,,,,,,,,,,,,,,,,,,,,,,,,0,2,2,1,1,,,,,,,,,,,,,,,,,,,,,,,,,,,,,,,,,,,,,,,,,,,,,,
917998,001,2022-11-20_23h58.59.616,Info_measure_main_exp,2022.2.2,Win32,60.08532116,,,,,,,,,,,,,,,,,,masks/mask_001.jpg,,,,,,,,,,,,,,,,,,,,,,,,,,,,,,,,,,,,,,,,,,,0,3,3,0,1,,,,,,,,,,,,,,,,,,,,,,,,,,,,,,,,,,,,,,,,,,,,,,
917998,001,2022-11-20_23h58.59.616,Info_measure_main_exp,2022.2.2,Win32,60.08532116,,,,,,,,,,,,,,,,,,masks/mask_003.jpg,,,,,,,,,,,,,,,,,,,,,,,,,,,,,,,,,,,,,,,,,,,0,4,4,2,1,,,,,,,,,,,,,,,,,,,,,,,,,,,,,,,,,,,,,,,,,,,,,,
917998,001,2022-11-20_23h58.59.616,Info_measure_main_exp,2022.2.2,Win32,60.08532116,,,,,,,,,,,,,,,,,,masks/mask_002.jpg,,,,,,,,,,,,,,,,,,,,,,,,,,,,,,,,,,,,,,,,,,,,,,,,0,0,0,1,1,,,,,,,,,,,,,,,,,,,,,,,,,,,,,,,,,,,,,,,,,
917998,001,2022-11-20_23h58.59.616,Info_measure_main_exp,2022.2.2,Win32,60.08532116,,,,,,,,,,,,,,,,,,masks/mask_001.jpg,,,,,,,,,,,,,,,,,,,,,,,,,,,,,,,,,,,,,,,,,,,,,,,,0,1,1,0,1,,,,,,,,,,,,,,,,,,,,,,,,,,,,,,,,,,,,,,,,,
917998,001,2022-11-20_23h58.59.616,Info_measure_main_exp,2022.2.2,Win32,60.08532116,,,,,,,,,,,,,,,,,,masks/mask_003.jpg,,,,,,,,,,,,,,,,,,,,,,,,,,,,,,,,,,,,,,,,,,,,,,,,0,2,2,2,1,,,,,,,,,,,,,,,,,,,,,,,,,,,,,,,,,,,,,,,,,
917998,001,2022-11-20_23h58.59.616,Info_measure_main_exp,2022.2.2,Win32,60.08532116,,,,,,,,,,,,,,,,,,masks/mask_005.jpg,,,,,,,,,,,,,,,,,,,,,,,,,,,,,,,,,,,,,,,,,,,,,,,,0,3,3,4,1,,,,,,,,,,,,,,,,,,,,,,,,,,,,,,,,,,,,,,,,,
917998,001,2022-11-20_23h58.59.616,Info_measure_main_exp,2022.2.2,Win32,60.08532116,,,,,,,,,,,,,,,,,,masks/mask_004.jpg,,,,,,,,,,,,,,,,,,,,,,,,,,,,,,,,,,,,,,,,,,,,,,,,0,4,4,3,1,,,,,,,,,,,,,,,,,,,,,,,,,,,,,,,,,,,,,,,,,
917998,001,2022-11-20_23h58.59.616,Info_measure_main_exp,2022.2.2,Win32,60.08532116,,,,,,,,,,,,,,,,,,,,,,,,,,,,,,5,1.4167,1,,,,,,,,,,,,0,131,5,5,2142,2190,absent_patch/patch0002142.jpg,absent_patch/patch0002190.jpg,,,,,,,,,,,,,,,,,,,,0.085185185,-0.043518519,1,0,0,response3disk,3,0.000925926,0.003703704,1,0,0,center_square,0,2,2,70,1,,,,,,,,,,,,,,,,,,,,,,,
917998,001,2022-11-20_23h58.59.616,Info_measure_main_exp,2022.2.2,Win32,60.08532116,,,,,,,,,,,,,,,,,,masks/mask_004.jpg,,,,,,,,,,,,,,,,,,,,,,,,,,,,,,,,,,,,,,,,,,,0,0,0,3,1,,,,,,,,,,,,,,,,,,,,,,,,,,,,,,,,,,,,,,,,,,,,,,
917998,001,2022-11-20_23h58.59.616,Info_measure_main_exp,2022.2.2,Win32,60.08532116,,,,,,,,,,,,,,,,,,masks/mask_003.jpg,,,,,,,,,,,,,,,,,,,,,,,,,,,,,,,,,,,,,,,,,,,0,1,1,2,1,,,,,,,,,,,,,,,,,,,,,,,,,,,,,,,,,,,,,,,,,,,,,,
917998,001,2022-11-20_23h58.59.616,Info_measure_main_exp,2022.2.2,Win32,60.08532116,,,,,,,,,,,,,,,,,,masks/mask_002.jpg,,,,,,,,,,,,,,,,,,,,,,,,,,,,,,,,,,,,,,,,,,,0,2,2,1,1,,,,,,,,,,,,,,,,,,,,,,,,,,,,,,,,,,,,,,,,,,,,,,
917998,001,2022-11-20_23h58.59.616,Info_measure_main_exp,2022.2.2,Win32,60.08532116,,,,,,,,,,,,,,,,,,masks/mask_005.jpg,,,,,,,,,,,,,,,,,,,,,,,,,,,,,,,,,,,,,,,,,,,0,3,3,4,1,,,,,,,,,,,,,,,,,,,,,,,,,,,,,,,,,,,,,,,,,,,,,,
917998,001,2022-11-20_23h58.59.616,Info_measure_main_exp,2022.2.2,Win32,60.08532116,,,,,,,,,,,,,,,,,,masks/mask_001.jpg,,,,,,,,,,,,,,,,,,,,,,,,,,,,,,,,,,,,,,,,,,,0,4,4,0,1,,,,,,,,,,,,,,,,,,,,,,,,,,,,,,,,,,,,,,,,,,,,,,
917998,001,2022-11-20_23h58.59.616,Info_measure_main_exp,2022.2.2,Win32,60.08532116,,,,,,,,,,,,,,,,,,masks/mask_003.jpg,,,,,,,,,,,,,,,,,,,,,,,,,,,,,,,,,,,,,,,,,,,,,,,,0,0,0,2,1,,,,,,,,,,,,,,,,,,,,,,,,,,,,,,,,,,,,,,,,,
917998,001,2022-11-20_23h58.59.616,Info_measure_main_exp,2022.2.2,Win32,60.08532116,,,,,,,,,,,,,,,,,,masks/mask_005.jpg,,,,,,,,,,,,,,,,,,,,,,,,,,,,,,,,,,,,,,,,,,,,,,,,0,1,1,4,1,,,,,,,,,,,,,,,,,,,,,,,,,,,,,,,,,,,,,,,,,
917998,001,2022-11-20_23h58.59.616,Info_measure_main_exp,2022.2.2,Win32,60.08532116,,,,,,,,,,,,,,,,,,masks/mask_001.jpg,,,,,,,,,,,,,,,,,,,,,,,,,,,,,,,,,,,,,,,,,,,,,,,,0,2,2,0,1,,,,,,,,,,,,,,,,,,,,,,,,,,,,,,,,,,,,,,,,,
917998,001,2022-11-20_23h58.59.616,Info_measure_main_exp,2022.2.2,Win32,60.08532116,,,,,,,,,,,,,,,,,,masks/mask_002.jpg,,,,,,,,,,,,,,,,,,,,,,,,,,,,,,,,,,,,,,,,,,,,,,,,0,3,3,1,1,,,,,,,,,,,,,,,,,,,,,,,,,,,,,,,,,,,,,,,,,
917998,001,2022-11-20_23h58.59.616,Info_measure_main_exp,2022.2.2,Win32,60.08532116,,,,,,,,,,,,,,,,,,masks/mask_004.jpg,,,,,,,,,,,,,,,,,,,,,,,,,,,,,,,,,,,,,,,,,,,,,,,,0,4,4,3,1,,,,,,,,,,,,,,,,,,,,,,,,,,,,,,,,,,,,,,,,,
917998,001,2022-11-20_23h58.59.616,Info_measure_main_exp,2022.2.2,Win32,60.08532116,,,,,,,,,,,,,,,,,,,,,,,,,,,,,,3,1.7165,1,,,,,,,,,,,,0,131,5,5,2250,2298,absent_patch/patch0002250.jpg,absent_patch/patch0002298.jpg,,,,,,,,,,,,,,,,,,,,-0.023148148,-0.074074074,1,0,0,response5disk,4,-0.000925926,-0.000925926,1,0,0,center_square,0,3,3,59,1,,,,,,,,,,,,,,,,,,,,,,,
917998,001,2022-11-20_23h58.59.616,Info_measure_main_exp,2022.2.2,Win32,60.08532116,,,,,,,,,,,,,,,,,,masks/mask_002.jpg,,,,,,,,,,,,,,,,,,,,,,,,,,,,,,,,,,,,,,,,,,,0,0,0,1,1,,,,,,,,,,,,,,,,,,,,,,,,,,,,,,,,,,,,,,,,,,,,,,
917998,001,2022-11-20_23h58.59.616,Info_measure_main_exp,2022.2.2,Win32,60.08532116,,,,,,,,,,,,,,,,,,masks/mask_001.jpg,,,,,,,,,,,,,,,,,,,,,,,,,,,,,,,,,,,,,,,,,,,0,1,1,0,1,,,,,,,,,,,,,,,,,,,,,,,,,,,,,,,,,,,,,,,,,,,,,,
917998,001,2022-11-20_23h58.59.616,Info_measure_main_exp,2022.2.2,Win32,60.08532116,,,,,,,,,,,,,,,,,,masks/mask_005.jpg,,,,,,,,,,,,,,,,,,,,,,,,,,,,,,,,,,,,,,,,,,,0,2,2,4,1,,,,,,,,,,,,,,,,,,,,,,,,,,,,,,,,,,,,,,,,,,,,,,
917998,001,2022-11-20_23h58.59.616,Info_measure_main_exp,2022.2.2,Win32,60.08532116,,,,,,,,,,,,,,,,,,masks/mask_003.jpg,,,,,,,,,,,,,,,,,,,,,,,,,,,,,,,,,,,,,,,,,,,0,3,3,2,1,,,,,,,,,,,,,,,,,,,,,,,,,,,,,,,,,,,,,,,,,,,,,,
917998,001,2022-11-20_23h58.59.616,Info_measure_main_exp,2022.2.2,Win32,60.08532116,,,,,,,,,,,,,,,,,,masks/mask_004.jpg,,,,,,,,,,,,,,,,,,,,,,,,,,,,,,,,,,,,,,,,,,,0,4,4,3,1,,,,,,,,,,,,,,,,,,,,,,,,,,,,,,,,,,,,,,,,,,,,,,
917998,001,2022-11-20_23h58.59.616,Info_measure_main_exp,2022.2.2,Win32,60.08532116,,,,,,,,,,,,,,,,,,masks/mask_004.jpg,,,,,,,,,,,,,,,,,,,,,,,,,,,,,,,,,,,,,,,,,,,,,,,,0,0,0,3,1,,,,,,,,,,,,,,,,,,,,,,,,,,,,,,,,,,,,,,,,,
917998,001,2022-11-20_23h58.59.616,Info_measure_main_exp,2022.2.2,Win32,60.08532116,,,,,,,,,,,,,,,,,,masks/mask_005.jpg,,,,,,,,,,,,,,,,,,,,,,,,,,,,,,,,,,,,,,,,,,,,,,,,0,1,1,4,1,,,,,,,,,,,,,,,,,,,,,,,,,,,,,,,,,,,,,,,,,
917998,001,2022-11-20_23h58.59.616,Info_measure_main_exp,2022.2.2,Win32,60.08532116,,,,,,,,,,,,,,,,,,masks/mask_001.jpg,,,,,,,,,,,,,,,,,,,,,,,,,,,,,,,,,,,,,,,,,,,,,,,,0,2,2,0,1,,,,,,,,,,,,,,,,,,,,,,,,,,,,,,,,,,,,,,,,,
917998,001,2022-11-20_23h58.59.616,Info_measure_main_exp,2022.2.2,Win32,60.08532116,,,,,,,,,,,,,,,,,,masks/mask_002.jpg,,,,,,,,,,,,,,,,,,,,,,,,,,,,,,,,,,,,,,,,,,,,,,,,0,3,3,1,1,,,,,,,,,,,,,,,,,,,,,,,,,,,,,,,,,,,,,,,,,
917998,001,2022-11-20_23h58.59.616,Info_measure_main_exp,2022.2.2,Win32,60.08532116,,,,,,,,,,,,,,,,,,masks/mask_003.jpg,,,,,,,,,,,,,,,,,,,,,,,,,,,,,,,,,,,,,,,,,,,,,,,,0,4,4,2,1,,,,,,,,,,,,,,,,,,,,,,,,,,,,,,,,,,,,,,,,,
917998,001,2022-11-20_23h58.59.616,Info_measure_main_exp,2022.2.2,Win32,60.08532116,,,,,,,,,,,,,,,,,,,,,,,,,,,,,,7,0.8502,1,,,,,,,,,,,,0,131,5,5,2178,1986,absent_patch/patch0002178.jpg,absent_patch/patch0001986.jpg,,,,,,,,,,,,,,,,,,,,0.089814815,0.131481481,1,0,0,response1disk,5,-0.007407407,0,1,0,0,center_square,0,4,4,46,1,,,,,,,,,,,,,,,,,,,,,,,
917998,001,2022-11-20_23h58.59.616,Info_measure_main_exp,2022.2.2,Win32,60.08532116,,,,,,,,,,,,,,,,,,masks/mask_002.jpg,,,,,,,,,,,,,,,,,,,,,,,,,,,,,,,,,,,,,,,,,,,0,0,0,1,1,,,,,,,,,,,,,,,,,,,,,,,,,,,,,,,,,,,,,,,,,,,,,,
917998,001,2022-11-20_23h58.59.616,Info_measure_main_exp,2022.2.2,Win32,60.08532116,,,,,,,,,,,,,,,,,,masks/mask_004.jpg,,,,,,,,,,,,,,,,,,,,,,,,,,,,,,,,,,,,,,,,,,,0,1,1,3,1,,,,,,,,,,,,,,,,,,,,,,,,,,,,,,,,,,,,,,,,,,,,,,
917998,001,2022-11-20_23h58.59.616,Info_measure_main_exp,2022.2.2,Win32,60.08532116,,,,,,,,,,,,,,,,,,masks/mask_003.jpg,,,,,,,,,,,,,,,,,,,,,,,,,,,,,,,,,,,,,,,,,,,0,2,2,2,1,,,,,,,,,,,,,,,,,,,,,,,,,,,,,,,,,,,,,,,,,,,,,,
917998,001,2022-11-20_23h58.59.616,Info_measure_main_exp,2022.2.2,Win32,60.08532116,,,,,,,,,,,,,,,,,,masks/mask_001.jpg,,,,,,,,,,,,,,,,,,,,,,,,,,,,,,,,,,,,,,,,,,,0,3,3,0,1,,,,,,,,,,,,,,,,,,,,,,,,,,,,,,,,,,,,,,,,,,,,,,
917998,001,2022-11-20_23h58.59.616,Info_measure_main_exp,2022.2.2,Win32,60.08532116,,,,,,,,,,,,,,,,,,masks/mask_005.jpg,,,,,,,,,,,,,,,,,,,,,,,,,,,,,,,,,,,,,,,,,,,0,4,4,4,1,,,,,,,,,,,,,,,,,,,,,,,,,,,,,,,,,,,,,,,,,,,,,,
917998,001,2022-11-20_23h58.59.616,Info_measure_main_exp,2022.2.2,Win32,60.08532116,,,,,,,,,,,,,,,,,,masks/mask_002.jpg,,,,,,,,,,,,,,,,,,,,,,,,,,,,,,,,,,,,,,,,,,,,,,,,0,0,0,1,1,,,,,,,,,,,,,,,,,,,,,,,,,,,,,,,,,,,,,,,,,
917998,001,2022-11-20_23h58.59.616,Info_measure_main_exp,2022.2.2,Win32,60.08532116,,,,,,,,,,,,,,,,,,masks/mask_004.jpg,,,,,,,,,,,,,,,,,,,,,,,,,,,,,,,,,,,,,,,,,,,,,,,,0,1,1,3,1,,,,,,,,,,,,,,,,,,,,,,,,,,,,,,,,,,,,,,,,,
917998,001,2022-11-20_23h58.59.616,Info_measure_main_exp,2022.2.2,Win32,60.08532116,,,,,,,,,,,,,,,,,,masks/mask_003.jpg,,,,,,,,,,,,,,,,,,,,,,,,,,,,,,,,,,,,,,,,,,,,,,,,0,2,2,2,1,,,,,,,,,,,,,,,,,,,,,,,,,,,,,,,,,,,,,,,,,
917998,001,2022-11-20_23h58.59.616,Info_measure_main_exp,2022.2.2,Win32,60.08532116,,,,,,,,,,,,,,,,,,masks/mask_001.jpg,,,,,,,,,,,,,,,,,,,,,,,,,,,,,,,,,,,,,,,,,,,,,,,,0,3,3,0,1,,,,,,,,,,,,,,,,,,,,,,,,,,,,,,,,,,,,,,,,,
917998,001,2022-11-20_23h58.59.616,Info_measure_main_exp,2022.2.2,Win32,60.08532116,,,,,,,,,,,,,,,,,,masks/mask_005.jpg,,,,,,,,,,,,,,,,,,,,,,,,,,,,,,,,,,,,,,,,,,,,,,,,0,4,4,4,1,,,,,,,,,,,,,,,,,,,,,,,,,,,,,,,,,,,,,,,,,
917998,001,2022-11-20_23h58.59.616,Info_measure_main_exp,2022.2.2,Win32,60.08532116,,,,,,,,,,,,,,,,,,,,,,,,,,,,,,5,1.2333,1,,,,,,,,,,,,1,131,5,5,2250,1,absent_patch/patch0002250.jpg,present_patch/cong_131_5_a.jpg,,,,,,,,,,,,,,,,,,,,0.124074074,-0.012962963,1,0,0,response3disk,6,0,-0.005555556,1,0,0,center_square,0,5,5,5,1,,,,,,,,,,,,,,,,,,,,,,,
917998,001,2022-11-20_23h58.59.616,Info_measure_main_exp,2022.2.2,Win32,60.08532116,,,,,,,,,,,,,,,,,,masks/mask_004.jpg,,,,,,,,,,,,,,,,,,,,,,,,,,,,,,,,,,,,,,,,,,,0,0,0,3,1,,,,,,,,,,,,,,,,,,,,,,,,,,,,,,,,,,,,,,,,,,,,,,
917998,001,2022-11-20_23h58.59.616,Info_measure_main_exp,2022.2.2,Win32,60.08532116,,,,,,,,,,,,,,,,,,masks/mask_002.jpg,,,,,,,,,,,,,,,,,,,,,,,,,,,,,,,,,,,,,,,,,,,0,1,1,1,1,,,,,,,,,,,,,,,,,,,,,,,,,,,,,,,,,,,,,,,,,,,,,,
917998,001,2022-11-20_23h58.59.616,Info_measure_main_exp,2022.2.2,Win32,60.08532116,,,,,,,,,,,,,,,,,,masks/mask_005.jpg,,,,,,,,,,,,,,,,,,,,,,,,,,,,,,,,,,,,,,,,,,,0,2,2,4,1,,,,,,,,,,,,,,,,,,,,,,,,,,,,,,,,,,,,,,,,,,,,,,
917998,001,2022-11-20_23h58.59.616,Info_measure_main_exp,2022.2.2,Win32,60.08532116,,,,,,,,,,,,,,,,,,masks/mask_003.jpg,,,,,,,,,,,,,,,,,,,,,,,,,,,,,,,,,,,,,,,,,,,0,3,3,2,1,,,,,,,,,,,,,,,,,,,,,,,,,,,,,,,,,,,,,,,,,,,,,,
917998,001,2022-11-20_23h58.59.616,Info_measure_main_exp,2022.2.2,Win32,60.08532116,,,,,,,,,,,,,,,,,,masks/mask_001.jpg,,,,,,,,,,,,,,,,,,,,,,,,,,,,,,,,,,,,,,,,,,,0,4,4,0,1,,,,,,,,,,,,,,,,,,,,,,,,,,,,,,,,,,,,,,,,,,,,,,
917998,001,2022-11-20_23h58.59.616,Info_measure_main_exp,2022.2.2,Win32,60.08532116,,,,,,,,,,,,,,,,,,masks/mask_003.jpg,,,,,,,,,,,,,,,,,,,,,,,,,,,,,,,,,,,,,,,,,,,,,,,,0,0,0,2,1,,,,,,,,,,,,,,,,,,,,,,,,,,,,,,,,,,,,,,,,,
917998,001,2022-11-20_23h58.59.616,Info_measure_main_exp,2022.2.2,Win32,60.08532116,,,,,,,,,,,,,,,,,,masks/mask_005.jpg,,,,,,,,,,,,,,,,,,,,,,,,,,,,,,,,,,,,,,,,,,,,,,,,0,1,1,4,1,,,,,,,,,,,,,,,,,,,,,,,,,,,,,,,,,,,,,,,,,
917998,001,2022-11-20_23h58.59.616,Info_measure_main_exp,2022.2.2,Win32,60.08532116,,,,,,,,,,,,,,,,,,masks/mask_004.jpg,,,,,,,,,,,,,,,,,,,,,,,,,,,,,,,,,,,,,,,,,,,,,,,,0,2,2,3,1,,,,,,,,,,,,,,,,,,,,,,,,,,,,,,,,,,,,,,,,,
917998,001,2022-11-20_23h58.59.616,Info_measure_main_exp,2022.2.2,Win32,60.08532116,,,,,,,,,,,,,,,,,,masks/mask_002.jpg,,,,,,,,,,,,,,,,,,,,,,,,,,,,,,,,,,,,,,,,,,,,,,,,0,3,3,1,1,,,,,,,,,,,,,,,,,,,,,,,,,,,,,,,,,,,,,,,,,
917998,001,2022-11-20_23h58.59.616,Info_measure_main_exp,2022.2.2,Win32,60.08532116,,,,,,,,,,,,,,,,,,masks/mask_001.jpg,,,,,,,,,,,,,,,,,,,,,,,,,,,,,,,,,,,,,,,,,,,,,,,,0,4,4,0,1,,,,,,,,,,,,,,,,,,,,,,,,,,,,,,,,,,,,,,,,,
917998,001,2022-11-20_23h58.59.616,Info_measure_main_exp,2022.2.2,Win32,60.08532116,,,,,,,,,,,,,,,,,,,,,,,,,,,,,,5,1.6334,1,,,,,,,,,,,,0,131,5,5,1950,2142,absent_patch/patch0001950.jpg,absent_patch/patch0002142.jpg,,,,,,,,,,,,,,,,,,,,0.123148148,-0.008333333,1,0,0,response3disk,7,-0.001851852,0.00462963,1,0,0,center_square,0,6,6,83,1,,,,,,,,,,,,,,,,,,,,,,,
917998,001,2022-11-20_23h58.59.616,Info_measure_main_exp,2022.2.2,Win32,60.08532116,,,,,,,,,,,,,,,,,,masks/mask_003.jpg,,,,,,,,,,,,,,,,,,,,,,,,,,,,,,,,,,,,,,,,,,,0,0,0,2,1,,,,,,,,,,,,,,,,,,,,,,,,,,,,,,,,,,,,,,,,,,,,,,
917998,001,2022-11-20_23h58.59.616,Info_measure_main_exp,2022.2.2,Win32,60.08532116,,,,,,,,,,,,,,,,,,masks/mask_001.jpg,,,,,,,,,,,,,,,,,,,,,,,,,,,,,,,,,,,,,,,,,,,0,1,1,0,1,,,,,,,,,,,,,,,,,,,,,,,,,,,,,,,,,,,,,,,,,,,,,,
917998,001,2022-11-20_23h58.59.616,Info_measure_main_exp,2022.2.2,Win32,60.08532116,,,,,,,,,,,,,,,,,,masks/mask_002.jpg,,,,,,,,,,,,,,,,,,,,,,,,,,,,,,,,,,,,,,,,,,,0,2,2,1,1,,,,,,,,,,,,,,,,,,,,,,,,,,,,,,,,,,,,,,,,,,,,,,
917998,001,2022-11-20_23h58.59.616,Info_measure_main_exp,2022.2.2,Win32,60.08532116,,,,,,,,,,,,,,,,,,masks/mask_005.jpg,,,,,,,,,,,,,,,,,,,,,,,,,,,,,,,,,,,,,,,,,,,0,3,3,4,1,,,,,,,,,,,,,,,,,,,,,,,,,,,,,,,,,,,,,,,,,,,,,,
917998,001,2022-11-20_23h58.59.616,Info_measure_main_exp,2022.2.2,Win32,60.08532116,,,,,,,,,,,,,,,,,,masks/mask_004.jpg,,,,,,,,,,,,,,,,,,,,,,,,,,,,,,,,,,,,,,,,,,,0,4,4,3,1,,,,,,,,,,,,,,,,,,,,,,,,,,,,,,,,,,,,,,,,,,,,,,
917998,001,2022-11-20_23h58.59.616,Info_measure_main_exp,2022.2.2,Win32,60.08532116,,,,,,,,,,,,,,,,,,masks/mask_004.jpg,,,,,,,,,,,,,,,,,,,,,,,,,,,,,,,,,,,,,,,,,,,,,,,,0,0,0,3,1,,,,,,,,,,,,,,,,,,,,,,,,,,,,,,,,,,,,,,,,,
917998,001,2022-11-20_23h58.59.616,Info_measure_main_exp,2022.2.2,Win32,60.08532116,,,,,,,,,,,,,,,,,,masks/mask_002.jpg,,,,,,,,,,,,,,,,,,,,,,,,,,,,,,,,,,,,,,,,,,,,,,,,0,1,1,1,1,,,,,,,,,,,,,,,,,,,,,,,,,,,,,,,,,,,,,,,,,
917998,001,2022-11-20_23h58.59.616,Info_measure_main_exp,2022.2.2,Win32,60.08532116,,,,,,,,,,,,,,,,,,masks/mask_003.jpg,,,,,,,,,,,,,,,,,,,,,,,,,,,,,,,,,,,,,,,,,,,,,,,,0,2,2,2,1,,,,,,,,,,,,,,,,,,,,,,,,,,,,,,,,,,,,,,,,,
917998,001,2022-11-20_23h58.59.616,Info_measure_main_exp,2022.2.2,Win32,60.08532116,,,,,,,,,,,,,,,,,,masks/mask_005.jpg,,,,,,,,,,,,,,,,,,,,,,,,,,,,,,,,,,,,,,,,,,,,,,,,0,3,3,4,1,,,,,,,,,,,,,,,,,,,,,,,,,,,,,,,,,,,,,,,,,
917998,001,2022-11-20_23h58.59.616,Info_measure_main_exp,2022.2.2,Win32,60.08532116,,,,,,,,,,,,,,,,,,masks/mask_001.jpg,,,,,,,,,,,,,,,,,,,,,,,,,,,,,,,,,,,,,,,,,,,,,,,,0,4,4,0,1,,,,,,,,,,,,,,,,,,,,,,,,,,,,,,,,,,,,,,,,,
917998,001,2022-11-20_23h58.59.616,Info_measure_main_exp,2022.2.2,Win32,60.08532116,,,,,,,,,,,,,,,,,,,,,,,,,,,,,,5,1.3001,1,,,,,,,,,,,,0,131,5,5,2178,2166,absent_patch/patch0002178.jpg,absent_patch/patch0002166.jpg,,,,,,,,,,,,,,,,,,,,0.078703704,-0.039814815,1,0,0,response3disk,8,0,-0.003703704,1,0,0,center_square,0,7,7,72,1,,,,,,,,,,,,,,,,,,,,,,,
917998,001,2022-11-20_23h58.59.616,Info_measure_main_exp,2022.2.2,Win32,60.08532116,,,,,,,,,,,,,,,,,,masks/mask_002.jpg,,,,,,,,,,,,,,,,,,,,,,,,,,,,,,,,,,,,,,,,,,,0,0,0,1,1,,,,,,,,,,,,,,,,,,,,,,,,,,,,,,,,,,,,,,,,,,,,,,
917998,001,2022-11-20_23h58.59.616,Info_measure_main_exp,2022.2.2,Win32,60.08532116,,,,,,,,,,,,,,,,,,masks/mask_001.jpg,,,,,,,,,,,,,,,,,,,,,,,,,,,,,,,,,,,,,,,,,,,0,1,1,0,1,,,,,,,,,,,,,,,,,,,,,,,,,,,,,,,,,,,,,,,,,,,,,,
917998,001,2022-11-20_23h58.59.616,Info_measure_main_exp,2022.2.2,Win32,60.08532116,,,,,,,,,,,,,,,,,,masks/mask_004.jpg,,,,,,,,,,,,,,,,,,,,,,,,,,,,,,,,,,,,,,,,,,,0,2,2,3,1,,,,,,,,,,,,,,,,,,,,,,,,,,,,,,,,,,,,,,,,,,,,,,
917998,001,2022-11-20_23h58.59.616,Info_measure_main_exp,2022.2.2,Win32,60.08532116,,,,,,,,,,,,,,,,,,masks/mask_005.jpg,,,,,,,,,,,,,,,,,,,,,,,,,,,,,,,,,,,,,,,,,,,0,3,3,4,1,,,,,,,,,,,,,,,,,,,,,,,,,,,,,,,,,,,,,,,,,,,,,,
917998,001,2022-11-20_23h58.59.616,Info_measure_main_exp,2022.2.2,Win32,60.08532116,,,,,,,,,,,,,,,,,,masks/mask_003.jpg,,,,,,,,,,,,,,,,,,,,,,,,,,,,,,,,,,,,,,,,,,,0,4,4,2,1,,,,,,,,,,,,,,,,,,,,,,,,,,,,,,,,,,,,,,,,,,,,,,
917998,001,2022-11-20_23h58.59.616,Info_measure_main_exp,2022.2.2,Win32,60.08532116,,,,,,,,,,,,,,,,,,masks/mask_005.jpg,,,,,,,,,,,,,,,,,,,,,,,,,,,,,,,,,,,,,,,,,,,,,,,,0,0,0,4,1,,,,,,,,,,,,,,,,,,,,,,,,,,,,,,,,,,,,,,,,,
917998,001,2022-11-20_23h58.59.616,Info_measure_main_exp,2022.2.2,Win32,60.08532116,,,,,,,,,,,,,,,,,,masks/mask_001.jpg,,,,,,,,,,,,,,,,,,,,,,,,,,,,,,,,,,,,,,,,,,,,,,,,0,1,1,0,1,,,,,,,,,,,,,,,,,,,,,,,,,,,,,,,,,,,,,,,,,
917998,001,2022-11-20_23h58.59.616,Info_measure_main_exp,2022.2.2,Win32,60.08532116,,,,,,,,,,,,,,,,,,masks/mask_002.jpg,,,,,,,,,,,,,,,,,,,,,,,,,,,,,,,,,,,,,,,,,,,,,,,,0,2,2,1,1,,,,,,,,,,,,,,,,,,,,,,,,,,,,,,,,,,,,,,,,,
917998,001,2022-11-20_23h58.59.616,Info_measure_main_exp,2022.2.2,Win32,60.08532116,,,,,,,,,,,,,,,,,,masks/mask_004.jpg,,,,,,,,,,,,,,,,,,,,,,,,,,,,,,,,,,,,,,,,,,,,,,,,0,3,3,3,1,,,,,,,,,,,,,,,,,,,,,,,,,,,,,,,,,,,,,,,,,
917998,001,2022-11-20_23h58.59.616,Info_measure_main_exp,2022.2.2,Win32,60.08532116,,,,,,,,,,,,,,,,,,masks/mask_003.jpg,,,,,,,,,,,,,,,,,,,,,,,,,,,,,,,,,,,,,,,,,,,,,,,,0,4,4,2,1,,,,,,,,,,,,,,,,,,,,,,,,,,,,,,,,,,,,,,,,,
917998,001,2022-11-20_23h58.59.616,Info_measure_main_exp,2022.2.2,Win32,60.08532116,,,,,,,,,,,,,,,,,,,,,,,,,,,,,,7,0.6999,1,,,,,,,,,,,,0,131,5,5,2274,2178,absent_patch/patch0002274.jpg,absent_patch/patch0002178.jpg,,,,,,,,,,,,,,,,,,,,0.068518519,0.112962963,1,0,0,response1disk,9,-0.013888889,0.001851852,1,0,0,center_square,0,8,8,117,1,,,,,,,,,,,,,,,,,,,,,,,
917998,001,2022-11-20_23h58.59.616,Info_measure_main_exp,2022.2.2,Win32,60.08532116,,,,,,,,,,,,,,,,,,masks/mask_005.jpg,,,,,,,,,,,,,,,,,,,,,,,,,,,,,,,,,,,,,,,,,,,0,0,0,4,1,,,,,,,,,,,,,,,,,,,,,,,,,,,,,,,,,,,,,,,,,,,,,,
917998,001,2022-11-20_23h58.59.616,Info_measure_main_exp,2022.2.2,Win32,60.08532116,,,,,,,,,,,,,,,,,,masks/mask_002.jpg,,,,,,,,,,,,,,,,,,,,,,,,,,,,,,,,,,,,,,,,,,,0,1,1,1,1,,,,,,,,,,,,,,,,,,,,,,,,,,,,,,,,,,,,,,,,,,,,,,
917998,001,2022-11-20_23h58.59.616,Info_measure_main_exp,2022.2.2,Win32,60.08532116,,,,,,,,,,,,,,,,,,masks/mask_004.jpg,,,,,,,,,,,,,,,,,,,,,,,,,,,,,,,,,,,,,,,,,,,0,2,2,3,1,,,,,,,,,,,,,,,,,,,,,,,,,,,,,,,,,,,,,,,,,,,,,,
917998,001,2022-11-20_23h58.59.616,Info_measure_main_exp,2022.2.2,Win32,60.08532116,,,,,,,,,,,,,,,,,,masks/mask_001.jpg,,,,,,,,,,,,,,,,,,,,,,,,,,,,,,,,,,,,,,,,,,,0,3,3,0,1,,,,,,,,,,,,,,,,,,,,,,,,,,,,,,,,,,,,,,,,,,,,,,
917998,001,2022-11-20_23h58.59.616,Info_measure_main_exp,2022.2.2,Win32,60.08532116,,,,,,,,,,,,,,,,,,masks/mask_003.jpg,,,,,,,,,,,,,,,,,,,,,,,,,,,,,,,,,,,,,,,,,,,0,4,4,2,1,,,,,,,,,,,,,,,,,,,,,,,,,,,,,,,,,,,,,,,,,,,,,,
917998,001,2022-11-20_23h58.59.616,Info_measure_main_exp,2022.2.2,Win32,60.08532116,,,,,,,,,,,,,,,,,,masks/mask_001.jpg,,,,,,,,,,,,,,,,,,,,,,,,,,,,,,,,,,,,,,,,,,,,,,,,0,0,0,0,1,,,,,,,,,,,,,,,,,,,,,,,,,,,,,,,,,,,,,,,,,
917998,001,2022-11-20_23h58.59.616,Info_measure_main_exp,2022.2.2,Win32,60.08532116,,,,,,,,,,,,,,,,,,masks/mask_002.jpg,,,,,,,,,,,,,,,,,,,,,,,,,,,,,,,,,,,,,,,,,,,,,,,,0,1,1,1,1,,,,,,,,,,,,,,,,,,,,,,,,,,,,,,,,,,,,,,,,,
917998,001,2022-11-20_23h58.59.616,Info_measure_main_exp,2022.2.2,Win32,60.08532116,,,,,,,,,,,,,,,,,,masks/mask_003.jpg,,,,,,,,,,,,,,,,,,,,,,,,,,,,,,,,,,,,,,,,,,,,,,,,0,2,2,2,1,,,,,,,,,,,,,,,,,,,,,,,,,,,,,,,,,,,,,,,,,
917998,001,2022-11-20_23h58.59.616,Info_measure_main_exp,2022.2.2,Win32,60.08532116,,,,,,,,,,,,,,,,,,masks/mask_004.jpg,,,,,,,,,,,,,,,,,,,,,,,,,,,,,,,,,,,,,,,,,,,,,,,,0,3,3,3,1,,,,,,,,,,,,,,,,,,,,,,,,,,,,,,,,,,,,,,,,,
917998,001,2022-11-20_23h58.59.616,Info_measure_main_exp,2022.2.2,Win32,60.08532116,,,,,,,,,,,,,,,,,,masks/mask_005.jpg,,,,,,,,,,,,,,,,,,,,,,,,,,,,,,,,,,,,,,,,,,,,,,,,0,4,4,4,1,,,,,,,,,,,,,,,,,,,,,,,,,,,,,,,,,,,,,,,,,
917998,001,2022-11-20_23h58.59.616,Info_measure_main_exp,2022.2.2,Win32,60.08532116,,,,,,,,,,,,,,,,,,,,,,,,,,,,,,6,0.5,1,,,,,,,,,,,,0,131,5,5,2250,2238,absent_patch/patch0002250.jpg,absent_patch/patch0002238.jpg,,,,,,,,,,,,,,,,,,,,0.077777778,0.039814815,1,0,0,response1disk,10,0,-0.003703704,1,0,0,center_square,0,9,9,110,1,,,,,,,,,,,,,,,,,,,,,,,
917998,001,2022-11-20_23h58.59.616,Info_measure_main_exp,2022.2.2,Win32,60.08532116,,,,,,,,,,,,,,,,,,masks/mask_002.jpg,,,,,,,,,,,,,,,,,,,,,,,,,,,,,,,,,,,,,,,,,,,0,0,0,1,1,,,,,,,,,,,,,,,,,,,,,,,,,,,,,,,,,,,,,,,,,,,,,,
917998,001,2022-11-20_23h58.59.616,Info_measure_main_exp,2022.2.2,Win32,60.08532116,,,,,,,,,,,,,,,,,,masks/mask_003.jpg,,,,,,,,,,,,,,,,,,,,,,,,,,,,,,,,,,,,,,,,,,,0,1,1,2,1,,,,,,,,,,,,,,,,,,,,,,,,,,,,,,,,,,,,,,,,,,,,,,
917998,001,2022-11-20_23h58.59.616,Info_measure_main_exp,2022.2.2,Win32,60.08532116,,,,,,,,,,,,,,,,,,masks/mask_005.jpg,,,,,,,,,,,,,,,,,,,,,,,,,,,,,,,,,,,,,,,,,,,0,2,2,4,1,,,,,,,,,,,,,,,,,,,,,,,,,,,,,,,,,,,,,,,,,,,,,,
917998,001,2022-11-20_23h58.59.616,Info_measure_main_exp,2022.2.2,Win32,60.08532116,,,,,,,,,,,,,,,,,,masks/mask_004.jpg,,,,,,,,,,,,,,,,,,,,,,,,,,,,,,,,,,,,,,,,,,,0,3,3,3,1,,,,,,,,,,,,,,,,,,,,,,,,,,,,,,,,,,,,,,,,,,,,,,
917998,001,2022-11-20_23h58.59.616,Info_measure_main_exp,2022.2.2,Win32,60.08532116,,,,,,,,,,,,,,,,,,masks/mask_001.jpg,,,,,,,,,,,,,,,,,,,,,,,,,,,,,,,,,,,,,,,,,,,0,4,4,0,1,,,,,,,,,,,,,,,,,,,,,,,,,,,,,,,,,,,,,,,,,,,,,,
917998,001,2022-11-20_23h58.59.616,Info_measure_main_exp,2022.2.2,Win32,60.08532116,,,,,,,,,,,,,,,,,,masks/mask_004.jpg,,,,,,,,,,,,,,,,,,,,,,,,,,,,,,,,,,,,,,,,,,,,,,,,0,0,0,3,1,,,,,,,,,,,,,,,,,,,,,,,,,,,,,,,,,,,,,,,,,
917998,001,2022-11-20_23h58.59.616,Info_measure_main_exp,2022.2.2,Win32,60.08532116,,,,,,,,,,,,,,,,,,masks/mask_001.jpg,,,,,,,,,,,,,,,,,,,,,,,,,,,,,,,,,,,,,,,,,,,,,,,,0,1,1,0,1,,,,,,,,,,,,,,,,,,,,,,,,,,,,,,,,,,,,,,,,,
917998,001,2022-11-20_23h58.59.616,Info_measure_main_exp,2022.2.2,Win32,60.08532116,,,,,,,,,,,,,,,,,,masks/mask_005.jpg,,,,,,,,,,,,,,,,,,,,,,,,,,,,,,,,,,,,,,,,,,,,,,,,0,2,2,4,1,,,,,,,,,,,,,,,,,,,,,,,,,,,,,,,,,,,,,,,,,
917998,001,2022-11-20_23h58.59.616,Info_measure_main_exp,2022.2.2,Win32,60.08532116,,,,,,,,,,,,,,,,,,masks/mask_002.jpg,,,,,,,,,,,,,,,,,,,,,,,,,,,,,,,,,,,,,,,,,,,,,,,,0,3,3,1,1,,,,,,,,,,,,,,,,,,,,,,,,,,,,,,,,,,,,,,,,,
917998,001,2022-11-20_23h58.59.616,Info_measure_main_exp,2022.2.2,Win32,60.08532116,,,,,,,,,,,,,,,,,,masks/mask_003.jpg,,,,,,,,,,,,,,,,,,,,,,,,,,,,,,,,,,,,,,,,,,,,,,,,0,4,4,2,1,,,,,,,,,,,,,,,,,,,,,,,,,,,,,,,,,,,,,,,,,
917998,001,2022-11-20_23h58.59.616,Info_measure_main_exp,2022.2.2,Win32,60.08532116,,,,,,,,,,,,,,,,,,,,,,,,,,,,,,6,0.6166,1,,,,,,,,,,,,0,131,5,5,1950,2082,absent_patch/patch0001950.jpg,absent_patch/patch0002082.jpg,,,,,,,,,,,,,,,,,,,,0.078703704,0.041666667,1,0,0,response1disk,11,-0.003703704,-0.00462963,1,0,0,center_square,0,10,10,12,1,,,,,,,,,,,,,,,,,,,,,,,
917998,001,2022-11-20_23h58.59.616,Info_measure_main_exp,2022.2.2,Win32,60.08532116,,,,,,,,,,,,,,,,,,masks/mask_002.jpg,,,,,,,,,,,,,,,,,,,,,,,,,,,,,,,,,,,,,,,,,,,0,0,0,1,1,,,,,,,,,,,,,,,,,,,,,,,,,,,,,,,,,,,,,,,,,,,,,,
917998,001,2022-11-20_23h58.59.616,Info_measure_main_exp,2022.2.2,Win32,60.08532116,,,,,,,,,,,,,,,,,,masks/mask_003.jpg,,,,,,,,,,,,,,,,,,,,,,,,,,,,,,,,,,,,,,,,,,,0,1,1,2,1,,,,,,,,,,,,,,,,,,,,,,,,,,,,,,,,,,,,,,,,,,,,,,
917998,001,2022-11-20_23h58.59.616,Info_measure_main_exp,2022.2.2,Win32,60.08532116,,,,,,,,,,,,,,,,,,masks/mask_004.jpg,,,,,,,,,,,,,,,,,,,,,,,,,,,,,,,,,,,,,,,,,,,0,2,2,3,1,,,,,,,,,,,,,,,,,,,,,,,,,,,,,,,,,,,,,,,,,,,,,,
917998,001,2022-11-20_23h58.59.616,Info_measure_main_exp,2022.2.2,Win32,60.08532116,,,,,,,,,,,,,,,,,,masks/mask_005.jpg,,,,,,,,,,,,,,,,,,,,,,,,,,,,,,,,,,,,,,,,,,,0,3,3,4,1,,,,,,,,,,,,,,,,,,,,,,,,,,,,,,,,,,,,,,,,,,,,,,
917998,001,2022-11-20_23h58.59.616,Info_measure_main_exp,2022.2.2,Win32,60.08532116,,,,,,,,,,,,,,,,,,masks/mask_001.jpg,,,,,,,,,,,,,,,,,,,,,,,,,,,,,,,,,,,,,,,,,,,0,4,4,0,1,,,,,,,,,,,,,,,,,,,,,,,,,,,,,,,,,,,,,,,,,,,,,,
917998,001,2022-11-20_23h58.59.616,Info_measure_main_exp,2022.2.2,Win32,60.08532116,,,,,,,,,,,,,,,,,,masks/mask_004.jpg,,,,,,,,,,,,,,,,,,,,,,,,,,,,,,,,,,,,,,,,,,,,,,,,0,0,0,3,1,,,,,,,,,,,,,,,,,,,,,,,,,,,,,,,,,,,,,,,,,
917998,001,2022-11-20_23h58.59.616,Info_measure_main_exp,2022.2.2,Win32,60.08532116,,,,,,,,,,,,,,,,,,masks/mask_003.jpg,,,,,,,,,,,,,,,,,,,,,,,,,,,,,,,,,,,,,,,,,,,,,,,,0,1,1,2,1,,,,,,,,,,,,,,,,,,,,,,,,,,,,,,,,,,,,,,,,,
917998,001,2022-11-20_23h58.59.616,Info_measure_main_exp,2022.2.2,Win32,60.08532116,,,,,,,,,,,,,,,,,,masks/mask_005.jpg,,,,,,,,,,,,,,,,,,,,,,,,,,,,,,,,,,,,,,,,,,,,,,,,0,2,2,4,1,,,,,,,,,,,,,,,,,,,,,,,,,,,,,,,,,,,,,,,,,
917998,001,2022-11-20_23h58.59.616,Info_measure_main_exp,2022.2.2,Win32,60.08532116,,,,,,,,,,,,,,,,,,masks/mask_001.jpg,,,,,,,,,,,,,,,,,,,,,,,,,,,,,,,,,,,,,,,,,,,,,,,,0,3,3,0,1,,,,,,,,,,,,,,,,,,,,,,,,,,,,,,,,,,,,,,,,,
917998,001,2022-11-20_23h58.59.616,Info_measure_main_exp,2022.2.2,Win32,60.08532116,,,,,,,,,,,,,,,,,,masks/mask_002.jpg,,,,,,,,,,,,,,,,,,,,,,,,,,,,,,,,,,,,,,,,,,,,,,,,0,4,4,1,1,,,,,,,,,,,,,,,,,,,,,,,,,,,,,,,,,,,,,,,,,
917998,001,2022-11-20_23h58.59.616,Info_measure_main_exp,2022.2.2,Win32,60.08532116,,,,,,,,,,,,,,,,,,,,,,,,,,,,,,7,0.9666,1,,,,,,,,,,,,0,131,5,5,2250,1986,absent_patch/patch0002250.jpg,absent_patch/patch0001986.jpg,,,,,,,,,,,,,,,,,,,,0.065740741,0.078703704,1,0,0,response1disk,12,0.006481481,0.001851852,1,0,0,center_square,0,11,11,29,1,,,,,,,,,,,,,,,,,,,,,,,
917998,001,2022-11-20_23h58.59.616,Info_measure_main_exp,2022.2.2,Win32,60.08532116,,,,,,,,,,,,,,,,,,masks/mask_005.jpg,,,,,,,,,,,,,,,,,,,,,,,,,,,,,,,,,,,,,,,,,,,0,0,0,4,1,,,,,,,,,,,,,,,,,,,,,,,,,,,,,,,,,,,,,,,,,,,,,,
917998,001,2022-11-20_23h58.59.616,Info_measure_main_exp,2022.2.2,Win32,60.08532116,,,,,,,,,,,,,,,,,,masks/mask_001.jpg,,,,,,,,,,,,,,,,,,,,,,,,,,,,,,,,,,,,,,,,,,,0,1,1,0,1,,,,,,,,,,,,,,,,,,,,,,,,,,,,,,,,,,,,,,,,,,,,,,
917998,001,2022-11-20_23h58.59.616,Info_measure_main_exp,2022.2.2,Win32,60.08532116,,,,,,,,,,,,,,,,,,masks/mask_003.jpg,,,,,,,,,,,,,,,,,,,,,,,,,,,,,,,,,,,,,,,,,,,0,2,2,2,1,,,,,,,,,,,,,,,,,,,,,,,,,,,,,,,,,,,,,,,,,,,,,,
917998,001,2022-11-20_23h58.59.616,Info_measure_main_exp,2022.2.2,Win32,60.08532116,,,,,,,,,,,,,,,,,,masks/mask_002.jpg,,,,,,,,,,,,,,,,,,,,,,,,,,,,,,,,,,,,,,,,,,,0,3,3,1,1,,,,,,,,,,,,,,,,,,,,,,,,,,,,,,,,,,,,,,,,,,,,,,
917998,001,2022-11-20_23h58.59.616,Info_measure_main_exp,2022.2.2,Win32,60.08532116,,,,,,,,,,,,,,,,,,masks/mask_004.jpg,,,,,,,,,,,,,,,,,,,,,,,,,,,,,,,,,,,,,,,,,,,0,4,4,3,1,,,,,,,,,,,,,,,,,,,,,,,,,,,,,,,,,,,,,,,,,,,,,,
917998,001,2022-11-20_23h58.59.616,Info_measure_main_exp,2022.2.2,Win32,60.08532116,,,,,,,,,,,,,,,,,,masks/mask_003.jpg,,,,,,,,,,,,,,,,,,,,,,,,,,,,,,,,,,,,,,,,,,,,,,,,0,0,0,2,1,,,,,,,,,,,,,,,,,,,,,,,,,,,,,,,,,,,,,,,,,
917998,001,2022-11-20_23h58.59.616,Info_measure_main_exp,2022.2.2,Win32,60.08532116,,,,,,,,,,,,,,,,,,masks/mask_002.jpg,,,,,,,,,,,,,,,,,,,,,,,,,,,,,,,,,,,,,,,,,,,,,,,,0,1,1,1,1,,,,,,,,,,,,,,,,,,,,,,,,,,,,,,,,,,,,,,,,,
917998,001,2022-11-20_23h58.59.616,Info_measure_main_exp,2022.2.2,Win32,60.08532116,,,,,,,,,,,,,,,,,,masks/mask_005.jpg,,,,,,,,,,,,,,,,,,,,,,,,,,,,,,,,,,,,,,,,,,,,,,,,0,2,2,4,1,,,,,,,,,,,,,,,,,,,,,,,,,,,,,,,,,,,,,,,,,
917998,001,2022-11-20_23h58.59.616,Info_measure_main_exp,2022.2.2,Win32,60.08532116,,,,,,,,,,,,,,,,,,masks/mask_001.jpg,,,,,,,,,,,,,,,,,,,,,,,,,,,,,,,,,,,,,,,,,,,,,,,,0,3,3,0,1,,,,,,,,,,,,,,,,,,,,,,,,,,,,,,,,,,,,,,,,,
917998,001,2022-11-20_23h58.59.616,Info_measure_main_exp,2022.2.2,Win32,60.08532116,,,,,,,,,,,,,,,,,,masks/mask_004.jpg,,,,,,,,,,,,,,,,,,,,,,,,,,,,,,,,,,,,,,,,,,,,,,,,0,4,4,3,1,,,,,,,,,,,,,,,,,,,,,,,,,,,,,,,,,,,,,,,,,
917998,001,2022-11-20_23h58.59.616,Info_measure_main_exp,2022.2.2,Win32,60.08532116,,,,,,,,,,,,,,,,,,,,,,,,,,,,,,0,1.1332,1,,,,,,,,,,,,0,131,5,5,2142,2142,absent_patch/patch0002142.jpg,absent_patch/patch0002142.jpg,,,,,,,,,,,,,,,,,,,,-0.032407407,0.085185185,1,0,0,response7disk,13,0.003703704,0.012962963,1,0,0,center_square,0,12,12,13,1,,,,,,,,,,,,,,,,,,,,,,,
917998,001,2022-11-20_23h58.59.616,Info_measure_main_exp,2022.2.2,Win32,60.08532116,,,,,,,,,,,,,,,,,,masks/mask_005.jpg,,,,,,,,,,,,,,,,,,,,,,,,,,,,,,,,,,,,,,,,,,,0,0,0,4,1,,,,,,,,,,,,,,,,,,,,,,,,,,,,,,,,,,,,,,,,,,,,,,
917998,001,2022-11-20_23h58.59.616,Info_measure_main_exp,2022.2.2,Win32,60.08532116,,,,,,,,,,,,,,,,,,masks/mask_004.jpg,,,,,,,,,,,,,,,,,,,,,,,,,,,,,,,,,,,,,,,,,,,0,1,1,3,1,,,,,,,,,,,,,,,,,,,,,,,,,,,,,,,,,,,,,,,,,,,,,,
917998,001,2022-11-20_23h58.59.616,Info_measure_main_exp,2022.2.2,Win32,60.08532116,,,,,,,,,,,,,,,,,,masks/mask_002.jpg,,,,,,,,,,,,,,,,,,,,,,,,,,,,,,,,,,,,,,,,,,,0,2,2,1,1,,,,,,,,,,,,,,,,,,,,,,,,,,,,,,,,,,,,,,,,,,,,,,
917998,001,2022-11-20_23h58.59.616,Info_measure_main_exp,2022.2.2,Win32,60.08532116,,,,,,,,,,,,,,,,,,masks/mask_003.jpg,,,,,,,,,,,,,,,,,,,,,,,,,,,,,,,,,,,,,,,,,,,0,3,3,2,1,,,,,,,,,,,,,,,,,,,,,,,,,,,,,,,,,,,,,,,,,,,,,,
917998,001,2022-11-20_23h58.59.616,Info_measure_main_exp,2022.2.2,Win32,60.08532116,,,,,,,,,,,,,,,,,,masks/mask_001.jpg,,,,,,,,,,,,,,,,,,,,,,,,,,,,,,,,,,,,,,,,,,,0,4,4,0,1,,,,,,,,,,,,,,,,,,,,,,,,,,,,,,,,,,,,,,,,,,,,,,
917998,001,2022-11-20_23h58.59.616,Info_measure_main_exp,2022.2.2,Win32,60.08532116,,,,,,,,,,,,,,,,,,masks/mask_001.jpg,,,,,,,,,,,,,,,,,,,,,,,,,,,,,,,,,,,,,,,,,,,,,,,,0,0,0,0,1,,,,,,,,,,,,,,,,,,,,,,,,,,,,,,,,,,,,,,,,,
917998,001,2022-11-20_23h58.59.616,Info_measure_main_exp,2022.2.2,Win32,60.08532116,,,,,,,,,,,,,,,,,,masks/mask_003.jpg,,,,,,,,,,,,,,,,,,,,,,,,,,,,,,,,,,,,,,,,,,,,,,,,0,1,1,2,1,,,,,,,,,,,,,,,,,,,,,,,,,,,,,,,,,,,,,,,,,
917998,001,2022-11-20_23h58.59.616,Info_measure_main_exp,2022.2.2,Win32,60.08532116,,,,,,,,,,,,,,,,,,masks/mask_004.jpg,,,,,,,,,,,,,,,,,,,,,,,,,,,,,,,,,,,,,,,,,,,,,,,,0,2,2,3,1,,,,,,,,,,,,,,,,,,,,,,,,,,,,,,,,,,,,,,,,,
917998,001,2022-11-20_23h58.59.616,Info_measure_main_exp,2022.2.2,Win32,60.08532116,,,,,,,,,,,,,,,,,,masks/mask_002.jpg,,,,,,,,,,,,,,,,,,,,,,,,,,,,,,,,,,,,,,,,,,,,,,,,0,3,3,1,1,,,,,,,,,,,,,,,,,,,,,,,,,,,,,,,,,,,,,,,,,
917998,001,2022-11-20_23h58.59.616,Info_measure_main_exp,2022.2.2,Win32,60.08532116,,,,,,,,,,,,,,,,,,masks/mask_005.jpg,,,,,,,,,,,,,,,,,,,,,,,,,,,,,,,,,,,,,,,,,,,,,,,,0,4,4,4,1,,,,,,,,,,,,,,,,,,,,,,,,,,,,,,,,,,,,,,,,,
917998,001,2022-11-20_23h58.59.616,Info_measure_main_exp,2022.2.2,Win32,60.08532116,,,,,,,,,,,,,,,,,,,,,,,,,,,,,,0,0.5169,1,,,,,,,,,,,,0,131,5,5,2298,2298,absent_patch/patch0002298.jpg,absent_patch/patch0002298.jpg,,,,,,,,,,,,,,,,,,,,-0.007407407,0.062962963,1,0,0,response7disk,14,0.006481481,0.011111111,1,0,0,center_square,0,13,13,37,1,,,,,,,,,,,,,,,,,,,,,,,
917998,001,2022-11-20_23h58.59.616,Info_measure_main_exp,2022.2.2,Win32,60.08532116,,,,,,,,,,,,,,,,,,masks/mask_005.jpg,,,,,,,,,,,,,,,,,,,,,,,,,,,,,,,,,,,,,,,,,,,0,0,0,4,1,,,,,,,,,,,,,,,,,,,,,,,,,,,,,,,,,,,,,,,,,,,,,,
917998,001,2022-11-20_23h58.59.616,Info_measure_main_exp,2022.2.2,Win32,60.08532116,,,,,,,,,,,,,,,,,,masks/mask_004.jpg,,,,,,,,,,,,,,,,,,,,,,,,,,,,,,,,,,,,,,,,,,,0,1,1,3,1,,,,,,,,,,,,,,,,,,,,,,,,,,,,,,,,,,,,,,,,,,,,,,
917998,001,2022-11-20_23h58.59.616,Info_measure_main_exp,2022.2.2,Win32,60.08532116,,,,,,,,,,,,,,,,,,masks/mask_003.jpg,,,,,,,,,,,,,,,,,,,,,,,,,,,,,,,,,,,,,,,,,,,0,2,2,2,1,,,,,,,,,,,,,,,,,,,,,,,,,,,,,,,,,,,,,,,,,,,,,,
917998,001,2022-11-20_23h58.59.616,Info_measure_main_exp,2022.2.2,Win32,60.08532116,,,,,,,,,,,,,,,,,,masks/mask_002.jpg,,,,,,,,,,,,,,,,,,,,,,,,,,,,,,,,,,,,,,,,,,,0,3,3,1,1,,,,,,,,,,,,,,,,,,,,,,,,,,,,,,,,,,,,,,,,,,,,,,
917998,001,2022-11-20_23h58.59.616,Info_measure_main_exp,2022.2.2,Win32,60.08532116,,,,,,,,,,,,,,,,,,masks/mask_001.jpg,,,,,,,,,,,,,,,,,,,,,,,,,,,,,,,,,,,,,,,,,,,0,4,4,0,1,,,,,,,,,,,,,,,,,,,,,,,,,,,,,,,,,,,,,,,,,,,,,,
917998,001,2022-11-20_23h58.59.616,Info_measure_main_exp,2022.2.2,Win32,60.08532116,,,,,,,,,,,,,,,,,,masks/mask_002.jpg,,,,,,,,,,,,,,,,,,,,,,,,,,,,,,,,,,,,,,,,,,,,,,,,0,0,0,1,1,,,,,,,,,,,,,,,,,,,,,,,,,,,,,,,,,,,,,,,,,
917998,001,2022-11-20_23h58.59.616,Info_measure_main_exp,2022.2.2,Win32,60.08532116,,,,,,,,,,,,,,,,,,masks/mask_001.jpg,,,,,,,,,,,,,,,,,,,,,,,,,,,,,,,,,,,,,,,,,,,,,,,,0,1,1,0,1,,,,,,,,,,,,,,,,,,,,,,,,,,,,,,,,,,,,,,,,,
917998,001,2022-11-20_23h58.59.616,Info_measure_main_exp,2022.2.2,Win32,60.08532116,,,,,,,,,,,,,,,,,,masks/mask_004.jpg,,,,,,,,,,,,,,,,,,,,,,,,,,,,,,,,,,,,,,,,,,,,,,,,0,2,2,3,1,,,,,,,,,,,,,,,,,,,,,,,,,,,,,,,,,,,,,,,,,
917998,001,2022-11-20_23h58.59.616,Info_measure_main_exp,2022.2.2,Win32,60.08532116,,,,,,,,,,,,,,,,,,masks/mask_005.jpg,,,,,,,,,,,,,,,,,,,,,,,,,,,,,,,,,,,,,,,,,,,,,,,,0,3,3,4,1,,,,,,,,,,,,,,,,,,,,,,,,,,,,,,,,,,,,,,,,,
917998,001,2022-11-20_23h58.59.616,Info_measure_main_exp,2022.2.2,Win32,60.08532116,,,,,,,,,,,,,,,,,,masks/mask_003.jpg,,,,,,,,,,,,,,,,,,,,,,,,,,,,,,,,,,,,,,,,,,,,,,,,0,4,4,2,1,,,,,,,,,,,,,,,,,,,,,,,,,,,,,,,,,,,,,,,,,
917998,001,2022-11-20_23h58.59.616,Info_measure_main_exp,2022.2.2,Win32,60.08532116,,,,,,,,,,,,,,,,,,,,,,,,,,,,,,7,0.6,1,,,,,,,,,,,,0,131,5,5,2298,1986,absent_patch/patch0002298.jpg,absent_patch/patch0001986.jpg,,,,,,,,,,,,,,,,,,,,0.044444444,0.084259259,1,0,0,response1disk,15,0.00462963,-0.007407407,1,0,0,center_square,0,14,14,32,1,,,,,,,,,,,,,,,,,,,,,,,
917998,001,2022-11-20_23h58.59.616,Info_measure_main_exp,2022.2.2,Win32,60.08532116,,,,,,,,,,,,,,,,,,masks/mask_003.jpg,,,,,,,,,,,,,,,,,,,,,,,,,,,,,,,,,,,,,,,,,,,0,0,0,2,1,,,,,,,,,,,,,,,,,,,,,,,,,,,,,,,,,,,,,,,,,,,,,,
917998,001,2022-11-20_23h58.59.616,Info_measure_main_exp,2022.2.2,Win32,60.08532116,,,,,,,,,,,,,,,,,,masks/mask_004.jpg,,,,,,,,,,,,,,,,,,,,,,,,,,,,,,,,,,,,,,,,,,,0,1,1,3,1,,,,,,,,,,,,,,,,,,,,,,,,,,,,,,,,,,,,,,,,,,,,,,
917998,001,2022-11-20_23h58.59.616,Info_measure_main_exp,2022.2.2,Win32,60.08532116,,,,,,,,,,,,,,,,,,masks/mask_005.jpg,,,,,,,,,,,,,,,,,,,,,,,,,,,,,,,,,,,,,,,,,,,0,2,2,4,1,,,,,,,,,,,,,,,,,,,,,,,,,,,,,,,,,,,,,,,,,,,,,,
917998,001,2022-11-20_23h58.59.616,Info_measure_main_exp,2022.2.2,Win32,60.08532116,,,,,,,,,,,,,,,,,,masks/mask_002.jpg,,,,,,,,,,,,,,,,,,,,,,,,,,,,,,,,,,,,,,,,,,,0,3,3,1,1,,,,,,,,,,,,,,,,,,,,,,,,,,,,,,,,,,,,,,,,,,,,,,
917998,001,2022-11-20_23h58.59.616,Info_measure_main_exp,2022.2.2,Win32,60.08532116,,,,,,,,,,,,,,,,,,masks/mask_001.jpg,,,,,,,,,,,,,,,,,,,,,,,,,,,,,,,,,,,,,,,,,,,0,4,4,0,1,,,,,,,,,,,,,,,,,,,,,,,,,,,,,,,,,,,,,,,,,,,,,,
917998,001,2022-11-20_23h58.59.616,Info_measure_main_exp,2022.2.2,Win32,60.08532116,,,,,,,,,,,,,,,,,,masks/mask_001.jpg,,,,,,,,,,,,,,,,,,,,,,,,,,,,,,,,,,,,,,,,,,,,,,,,0,0,0,0,1,,,,,,,,,,,,,,,,,,,,,,,,,,,,,,,,,,,,,,,,,
917998,001,2022-11-20_23h58.59.616,Info_measure_main_exp,2022.2.2,Win32,60.08532116,,,,,,,,,,,,,,,,,,masks/mask_004.jpg,,,,,,,,,,,,,,,,,,,,,,,,,,,,,,,,,,,,,,,,,,,,,,,,0,1,1,3,1,,,,,,,,,,,,,,,,,,,,,,,,,,,,,,,,,,,,,,,,,
917998,001,2022-11-20_23h58.59.616,Info_measure_main_exp,2022.2.2,Win32,60.08532116,,,,,,,,,,,,,,,,,,masks/mask_002.jpg,,,,,,,,,,,,,,,,,,,,,,,,,,,,,,,,,,,,,,,,,,,,,,,,0,2,2,1,1,,,,,,,,,,,,,,,,,,,,,,,,,,,,,,,,,,,,,,,,,
917998,001,2022-11-20_23h58.59.616,Info_measure_main_exp,2022.2.2,Win32,60.08532116,,,,,,,,,,,,,,,,,,masks/mask_003.jpg,,,,,,,,,,,,,,,,,,,,,,,,,,,,,,,,,,,,,,,,,,,,,,,,0,3,3,2,1,,,,,,,,,,,,,,,,,,,,,,,,,,,,,,,,,,,,,,,,,
917998,001,2022-11-20_23h58.59.616,Info_measure_main_exp,2022.2.2,Win32,60.08532116,,,,,,,,,,,,,,,,,,masks/mask_005.jpg,,,,,,,,,,,,,,,,,,,,,,,,,,,,,,,,,,,,,,,,,,,,,,,,0,4,4,4,1,,,,,,,,,,,,,,,,,,,,,,,,,,,,,,,,,,,,,,,,,
917998,001,2022-11-20_23h58.59.616,Info_measure_main_exp,2022.2.2,Win32,60.08532116,,,,,,,,,,,,,,,,,,,,,,,,,,,,,,6,1.2835,1,,,,,,,,,,,,0,131,5,5,2082,2166,absent_patch/patch0002082.jpg,absent_patch/patch0002166.jpg,,,,,,,,,,,,,,,,,,,,0.07037037,0.04537037,1,0,0,response1disk,16,-0.010185185,-0.002777778,1,0,0,center_square,0,15,15,43,1,,,,,,,,,,,,,,,,,,,,,,,
917998,001,2022-11-20_23h58.59.616,Info_measure_main_exp,2022.2.2,Win32,60.08532116,,,,,,,,,,,,,,,,,,masks/mask_001.jpg,,,,,,,,,,,,,,,,,,,,,,,,,,,,,,,,,,,,,,,,,,,0,0,0,0,1,,,,,,,,,,,,,,,,,,,,,,,,,,,,,,,,,,,,,,,,,,,,,,
917998,001,2022-11-20_23h58.59.616,Info_measure_main_exp,2022.2.2,Win32,60.08532116,,,,,,,,,,,,,,,,,,masks/mask_002.jpg,,,,,,,,,,,,,,,,,,,,,,,,,,,,,,,,,,,,,,,,,,,0,1,1,1,1,,,,,,,,,,,,,,,,,,,,,,,,,,,,,,,,,,,,,,,,,,,,,,
917998,001,2022-11-20_23h58.59.616,Info_measure_main_exp,2022.2.2,Win32,60.08532116,,,,,,,,,,,,,,,,,,masks/mask_004.jpg,,,,,,,,,,,,,,,,,,,,,,,,,,,,,,,,,,,,,,,,,,,0,2,2,3,1,,,,,,,,,,,,,,,,,,,,,,,,,,,,,,,,,,,,,,,,,,,,,,
917998,001,2022-11-20_23h58.59.616,Info_measure_main_exp,2022.2.2,Win32,60.08532116,,,,,,,,,,,,,,,,,,masks/mask_005.jpg,,,,,,,,,,,,,,,,,,,,,,,,,,,,,,,,,,,,,,,,,,,0,3,3,4,1,,,,,,,,,,,,,,,,,,,,,,,,,,,,,,,,,,,,,,,,,,,,,,
917998,001,2022-11-20_23h58.59.616,Info_measure_main_exp,2022.2.2,Win32,60.08532116,,,,,,,,,,,,,,,,,,masks/mask_003.jpg,,,,,,,,,,,,,,,,,,,,,,,,,,,,,,,,,,,,,,,,,,,0,4,4,2,1,,,,,,,,,,,,,,,,,,,,,,,,,,,,,,,,,,,,,,,,,,,,,,
917998,001,2022-11-20_23h58.59.616,Info_measure_main_exp,2022.2.2,Win32,60.08532116,,,,,,,,,,,,,,,,,,masks/mask_002.jpg,,,,,,,,,,,,,,,,,,,,,,,,,,,,,,,,,,,,,,,,,,,,,,,,0,0,0,1,1,,,,,,,,,,,,,,,,,,,,,,,,,,,,,,,,,,,,,,,,,
917998,001,2022-11-20_23h58.59.616,Info_measure_main_exp,2022.2.2,Win32,60.08532116,,,,,,,,,,,,,,,,,,masks/mask_005.jpg,,,,,,,,,,,,,,,,,,,,,,,,,,,,,,,,,,,,,,,,,,,,,,,,0,1,1,4,1,,,,,,,,,,,,,,,,,,,,,,,,,,,,,,,,,,,,,,,,,
917998,001,2022-11-20_23h58.59.616,Info_measure_main_exp,2022.2.2,Win32,60.08532116,,,,,,,,,,,,,,,,,,masks/mask_003.jpg,,,,,,,,,,,,,,,,,,,,,,,,,,,,,,,,,,,,,,,,,,,,,,,,0,2,2,2,1,,,,,,,,,,,,,,,,,,,,,,,,,,,,,,,,,,,,,,,,,
917998,001,2022-11-20_23h58.59.616,Info_measure_main_exp,2022.2.2,Win32,60.08532116,,,,,,,,,,,,,,,,,,masks/mask_004.jpg,,,,,,,,,,,,,,,,,,,,,,,,,,,,,,,,,,,,,,,,,,,,,,,,0,3,3,3,1,,,,,,,,,,,,,,,,,,,,,,,,,,,,,,,,,,,,,,,,,
917998,001,2022-11-20_23h58.59.616,Info_measure_main_exp,2022.2.2,Win32,60.08532116,,,,,,,,,,,,,,,,,,masks/mask_001.jpg,,,,,,,,,,,,,,,,,,,,,,,,,,,,,,,,,,,,,,,,,,,,,,,,0,4,4,0,1,,,,,,,,,,,,,,,,,,,,,,,,,,,,,,,,,,,,,,,,,
917998,001,2022-11-20_23h58.59.616,Info_measure_main_exp,2022.2.2,Win32,60.08532116,,,,,,,,,,,,,,,,,,,,,,,,,,,,,,7,1.0833,1,,,,,,,,,,,,1,131,5,5,1,2142,present_patch/cong_131_5_a.jpg,absent_patch/patch0002142.jpg,,,,,,,,,,,,,,,,,,,,0.062962963,0.1,1,0,0,response1disk,17,0.005555556,0.002777778,1,0,0,center_square,0,16,16,80,1,,,,,,,,,,,,,,,,,,,,,,,
917998,001,2022-11-20_23h58.59.616,Info_measure_main_exp,2022.2.2,Win32,60.08532116,,,,,,,,,,,,,,,,,,masks/mask_001.jpg,,,,,,,,,,,,,,,,,,,,,,,,,,,,,,,,,,,,,,,,,,,0,0,0,0,1,,,,,,,,,,,,,,,,,,,,,,,,,,,,,,,,,,,,,,,,,,,,,,
917998,001,2022-11-20_23h58.59.616,Info_measure_main_exp,2022.2.2,Win32,60.08532116,,,,,,,,,,,,,,,,,,masks/mask_002.jpg,,,,,,,,,,,,,,,,,,,,,,,,,,,,,,,,,,,,,,,,,,,0,1,1,1,1,,,,,,,,,,,,,,,,,,,,,,,,,,,,,,,,,,,,,,,,,,,,,,
917998,001,2022-11-20_23h58.59.616,Info_measure_main_exp,2022.2.2,Win32,60.08532116,,,,,,,,,,,,,,,,,,masks/mask_004.jpg,,,,,,,,,,,,,,,,,,,,,,,,,,,,,,,,,,,,,,,,,,,0,2,2,3,1,,,,,,,,,,,,,,,,,,,,,,,,,,,,,,,,,,,,,,,,,,,,,,
917998,001,2022-11-20_23h58.59.616,Info_measure_main_exp,2022.2.2,Win32,60.08532116,,,,,,,,,,,,,,,,,,masks/mask_005.jpg,,,,,,,,,,,,,,,,,,,,,,,,,,,,,,,,,,,,,,,,,,,0,3,3,4,1,,,,,,,,,,,,,,,,,,,,,,,,,,,,,,,,,,,,,,,,,,,,,,
917998,001,2022-11-20_23h58.59.616,Info_measure_main_exp,2022.2.2,Win32,60.08532116,,,,,,,,,,,,,,,,,,masks/mask_003.jpg,,,,,,,,,,,,,,,,,,,,,,,,,,,,,,,,,,,,,,,,,,,0,4,4,2,1,,,,,,,,,,,,,,,,,,,,,,,,,,,,,,,,,,,,,,,,,,,,,,
917998,001,2022-11-20_23h58.59.616,Info_measure_main_exp,2022.2.2,Win32,60.08532116,,,,,,,,,,,,,,,,,,masks/mask_002.jpg,,,,,,,,,,,,,,,,,,,,,,,,,,,,,,,,,,,,,,,,,,,,,,,,0,0,0,1,1,,,,,,,,,,,,,,,,,,,,,,,,,,,,,,,,,,,,,,,,,
917998,001,2022-11-20_23h58.59.616,Info_measure_main_exp,2022.2.2,Win32,60.08532116,,,,,,,,,,,,,,,,,,masks/mask_003.jpg,,,,,,,,,,,,,,,,,,,,,,,,,,,,,,,,,,,,,,,,,,,,,,,,0,1,1,2,1,,,,,,,,,,,,,,,,,,,,,,,,,,,,,,,,,,,,,,,,,
917998,001,2022-11-20_23h58.59.616,Info_measure_main_exp,2022.2.2,Win32,60.08532116,,,,,,,,,,,,,,,,,,masks/mask_004.jpg,,,,,,,,,,,,,,,,,,,,,,,,,,,,,,,,,,,,,,,,,,,,,,,,0,2,2,3,1,,,,,,,,,,,,,,,,,,,,,,,,,,,,,,,,,,,,,,,,,
917998,001,2022-11-20_23h58.59.616,Info_measure_main_exp,2022.2.2,Win32,60.08532116,,,,,,,,,,,,,,,,,,masks/mask_005.jpg,,,,,,,,,,,,,,,,,,,,,,,,,,,,,,,,,,,,,,,,,,,,,,,,0,3,3,4,1,,,,,,,,,,,,,,,,,,,,,,,,,,,,,,,,,,,,,,,,,
917998,001,2022-11-20_23h58.59.616,Info_measure_main_exp,2022.2.2,Win32,60.08532116,,,,,,,,,,,,,,,,,,masks/mask_001.jpg,,,,,,,,,,,,,,,,,,,,,,,,,,,,,,,,,,,,,,,,,,,,,,,,0,4,4,0,1,,,,,,,,,,,,,,,,,,,,,,,,,,,,,,,,,,,,,,,,,
917998,001,2022-11-20_23h58.59.616,Info_measure_main_exp,2022.2.2,Win32,60.08532116,,,,,,,,,,,,,,,,,,,,,,,,,,,,,,6,0.7833,1,,,,,,,,,,,,0,131,5,5,1950,2298,absent_patch/patch0001950.jpg,absent_patch/patch0002298.jpg,,,,,,,,,,,,,,,,,,,,0.05462963,0.02962963,1,0,0,response1disk,18,0.00462963,-0.008333333,1,0,0,center_square,0,17,17,18,1,,,,,,,,,,,,,,,,,,,,,,,
917998,001,2022-11-20_23h58.59.616,Info_measure_main_exp,2022.2.2,Win32,60.08532116,,,,,,,,,,,,,,,,,,masks/mask_002.jpg,,,,,,,,,,,,,,,,,,,,,,,,,,,,,,,,,,,,,,,,,,,0,0,0,1,1,,,,,,,,,,,,,,,,,,,,,,,,,,,,,,,,,,,,,,,,,,,,,,
917998,001,2022-11-20_23h58.59.616,Info_measure_main_exp,2022.2.2,Win32,60.08532116,,,,,,,,,,,,,,,,,,masks/mask_003.jpg,,,,,,,,,,,,,,,,,,,,,,,,,,,,,,,,,,,,,,,,,,,0,1,1,2,1,,,,,,,,,,,,,,,,,,,,,,,,,,,,,,,,,,,,,,,,,,,,,,
917998,001,2022-11-20_23h58.59.616,Info_measure_main_exp,2022.2.2,Win32,60.08532116,,,,,,,,,,,,,,,,,,masks/mask_001.jpg,,,,,,,,,,,,,,,,,,,,,,,,,,,,,,,,,,,,,,,,,,,0,2,2,0,1,,,,,,,,,,,,,,,,,,,,,,,,,,,,,,,,,,,,,,,,,,,,,,
917998,001,2022-11-20_23h58.59.616,Info_measure_main_exp,2022.2.2,Win32,60.08532116,,,,,,,,,,,,,,,,,,masks/mask_005.jpg,,,,,,,,,,,,,,,,,,,,,,,,,,,,,,,,,,,,,,,,,,,0,3,3,4,1,,,,,,,,,,,,,,,,,,,,,,,,,,,,,,,,,,,,,,,,,,,,,,
917998,001,2022-11-20_23h58.59.616,Info_measure_main_exp,2022.2.2,Win32,60.08532116,,,,,,,,,,,,,,,,,,masks/mask_004.jpg,,,,,,,,,,,,,,,,,,,,,,,,,,,,,,,,,,,,,,,,,,,0,4,4,3,1,,,,,,,,,,,,,,,,,,,,,,,,,,,,,,,,,,,,,,,,,,,,,,
917998,001,2022-11-20_23h58.59.616,Info_measure_main_exp,2022.2.2,Win32,60.08532116,,,,,,,,,,,,,,,,,,masks/mask_003.jpg,,,,,,,,,,,,,,,,,,,,,,,,,,,,,,,,,,,,,,,,,,,,,,,,0,0,0,2,1,,,,,,,,,,,,,,,,,,,,,,,,,,,,,,,,,,,,,,,,,
917998,001,2022-11-20_23h58.59.616,Info_measure_main_exp,2022.2.2,Win32,60.08532116,,,,,,,,,,,,,,,,,,masks/mask_001.jpg,,,,,,,,,,,,,,,,,,,,,,,,,,,,,,,,,,,,,,,,,,,,,,,,0,1,1,0,1,,,,,,,,,,,,,,,,,,,,,,,,,,,,,,,,,,,,,,,,,
917998,001,2022-11-20_23h58.59.616,Info_measure_main_exp,2022.2.2,Win32,60.08532116,,,,,,,,,,,,,,,,,,masks/mask_005.jpg,,,,,,,,,,,,,,,,,,,,,,,,,,,,,,,,,,,,,,,,,,,,,,,,0,2,2,4,1,,,,,,,,,,,,,,,,,,,,,,,,,,,,,,,,,,,,,,,,,
917998,001,2022-11-20_23h58.59.616,Info_measure_main_exp,2022.2.2,Win32,60.08532116,,,,,,,,,,,,,,,,,,masks/mask_004.jpg,,,,,,,,,,,,,,,,,,,,,,,,,,,,,,,,,,,,,,,,,,,,,,,,0,3,3,3,1,,,,,,,,,,,,,,,,,,,,,,,,,,,,,,,,,,,,,,,,,
917998,001,2022-11-20_23h58.59.616,Info_measure_main_exp,2022.2.2,Win32,60.08532116,,,,,,,,,,,,,,,,,,masks/mask_002.jpg,,,,,,,,,,,,,,,,,,,,,,,,,,,,,,,,,,,,,,,,,,,,,,,,0,4,4,1,1,,,,,,,,,,,,,,,,,,,,,,,,,,,,,,,,,,,,,,,,,
917998,001,2022-11-20_23h58.59.616,Info_measure_main_exp,2022.2.2,Win32,60.08532116,,,,,,,,,,,,,,,,,,,,,,,,,,,,,,5,1.7169,1,,,,,,,,,,,,0,131,5,5,2274,2250,absent_patch/patch0002274.jpg,absent_patch/patch0002250.jpg,,,,,,,,,,,,,,,,,,,,0.064814815,-0.021296296,1,0,0,response3disk,19,-0.001851852,0.002777778,1,0,0,center_square,0,18,18,28,1,,,,,,,,,,,,,,,,,,,,,,,
917998,001,2022-11-20_23h58.59.616,Info_measure_main_exp,2022.2.2,Win32,60.08532116,,,,,,,,,,,,,,,,,,masks/mask_003.jpg,,,,,,,,,,,,,,,,,,,,,,,,,,,,,,,,,,,,,,,,,,,0,0,0,2,1,,,,,,,,,,,,,,,,,,,,,,,,,,,,,,,,,,,,,,,,,,,,,,
917998,001,2022-11-20_23h58.59.616,Info_measure_main_exp,2022.2.2,Win32,60.08532116,,,,,,,,,,,,,,,,,,masks/mask_001.jpg,,,,,,,,,,,,,,,,,,,,,,,,,,,,,,,,,,,,,,,,,,,0,1,1,0,1,,,,,,,,,,,,,,,,,,,,,,,,,,,,,,,,,,,,,,,,,,,,,,
917998,001,2022-11-20_23h58.59.616,Info_measure_main_exp,2022.2.2,Win32,60.08532116,,,,,,,,,,,,,,,,,,masks/mask_005.jpg,,,,,,,,,,,,,,,,,,,,,,,,,,,,,,,,,,,,,,,,,,,0,2,2,4,1,,,,,,,,,,,,,,,,,,,,,,,,,,,,,,,,,,,,,,,,,,,,,,
917998,001,2022-11-20_23h58.59.616,Info_measure_main_exp,2022.2.2,Win32,60.08532116,,,,,,,,,,,,,,,,,,masks/mask_004.jpg,,,,,,,,,,,,,,,,,,,,,,,,,,,,,,,,,,,,,,,,,,,0,3,3,3,1,,,,,,,,,,,,,,,,,,,,,,,,,,,,,,,,,,,,,,,,,,,,,,
917998,001,2022-11-20_23h58.59.616,Info_measure_main_exp,2022.2.2,Win32,60.08532116,,,,,,,,,,,,,,,,,,masks/mask_002.jpg,,,,,,,,,,,,,,,,,,,,,,,,,,,,,,,,,,,,,,,,,,,0,4,4,1,1,,,,,,,,,,,,,,,,,,,,,,,,,,,,,,,,,,,,,,,,,,,,,,
917998,001,2022-11-20_23h58.59.616,Info_measure_main_exp,2022.2.2,Win32,60.08532116,,,,,,,,,,,,,,,,,,masks/mask_003.jpg,,,,,,,,,,,,,,,,,,,,,,,,,,,,,,,,,,,,,,,,,,,,,,,,0,0,0,2,1,,,,,,,,,,,,,,,,,,,,,,,,,,,,,,,,,,,,,,,,,
917998,001,2022-11-20_23h58.59.616,Info_measure_main_exp,2022.2.2,Win32,60.08532116,,,,,,,,,,,,,,,,,,masks/mask_001.jpg,,,,,,,,,,,,,,,,,,,,,,,,,,,,,,,,,,,,,,,,,,,,,,,,0,1,1,0,1,,,,,,,,,,,,,,,,,,,,,,,,,,,,,,,,,,,,,,,,,
917998,001,2022-11-20_23h58.59.616,Info_measure_main_exp,2022.2.2,Win32,60.08532116,,,,,,,,,,,,,,,,,,masks/mask_004.jpg,,,,,,,,,,,,,,,,,,,,,,,,,,,,,,,,,,,,,,,,,,,,,,,,0,2,2,3,1,,,,,,,,,,,,,,,,,,,,,,,,,,,,,,,,,,,,,,,,,
917998,001,2022-11-20_23h58.59.616,Info_measure_main_exp,2022.2.2,Win32,60.08532116,,,,,,,,,,,,,,,,,,masks/mask_002.jpg,,,,,,,,,,,,,,,,,,,,,,,,,,,,,,,,,,,,,,,,,,,,,,,,0,3,3,1,1,,,,,,,,,,,,,,,,,,,,,,,,,,,,,,,,,,,,,,,,,
917998,001,2022-11-20_23h58.59.616,Info_measure_main_exp,2022.2.2,Win32,60.08532116,,,,,,,,,,,,,,,,,,masks/mask_005.jpg,,,,,,,,,,,,,,,,,,,,,,,,,,,,,,,,,,,,,,,,,,,,,,,,0,4,4,4,1,,,,,,,,,,,,,,,,,,,,,,,,,,,,,,,,,,,,,,,,,
917998,001,2022-11-20_23h58.59.616,Info_measure_main_exp,2022.2.2,Win32,60.08532116,,,,,,,,,,,,,,,,,,,,,,,,,,,,,,0,0.6002,1,,,,,,,,,,,,0,131,5,5,2250,2250,absent_patch/patch0002250.jpg,absent_patch/patch0002250.jpg,,,,,,,,,,,,,,,,,,,,-0.039814815,0.07962963,1,0,0,response7disk,20,0.006481481,0.011111111,1,0,0,center_square,0,19,19,56,1,,,,,,,,,,,,,,,,,,,,,,,
917998,001,2022-11-20_23h58.59.616,Info_measure_main_exp,2022.2.2,Win32,60.08532116,,,,,,,,,,,,,,,,,,masks/mask_001.jpg,,,,,,,,,,,,,,,,,,,,,,,,,,,,,,,,,,,,,,,,,,,0,0,0,0,1,,,,,,,,,,,,,,,,,,,,,,,,,,,,,,,,,,,,,,,,,,,,,,
917998,001,2022-11-20_23h58.59.616,Info_measure_main_exp,2022.2.2,Win32,60.08532116,,,,,,,,,,,,,,,,,,masks/mask_003.jpg,,,,,,,,,,,,,,,,,,,,,,,,,,,,,,,,,,,,,,,,,,,0,1,1,2,1,,,,,,,,,,,,,,,,,,,,,,,,,,,,,,,,,,,,,,,,,,,,,,
917998,001,2022-11-20_23h58.59.616,Info_measure_main_exp,2022.2.2,Win32,60.08532116,,,,,,,,,,,,,,,,,,masks/mask_005.jpg,,,,,,,,,,,,,,,,,,,,,,,,,,,,,,,,,,,,,,,,,,,0,2,2,4,1,,,,,,,,,,,,,,,,,,,,,,,,,,,,,,,,,,,,,,,,,,,,,,
917998,001,2022-11-20_23h58.59.616,Info_measure_main_exp,2022.2.2,Win32,60.08532116,,,,,,,,,,,,,,,,,,masks/mask_002.jpg,,,,,,,,,,,,,,,,,,,,,,,,,,,,,,,,,,,,,,,,,,,0,3,3,1,1,,,,,,,,,,,,,,,,,,,,,,,,,,,,,,,,,,,,,,,,,,,,,,
917998,001,2022-11-20_23h58.59.616,Info_measure_main_exp,2022.2.2,Win32,60.08532116,,,,,,,,,,,,,,,,,,masks/mask_004.jpg,,,,,,,,,,,,,,,,,,,,,,,,,,,,,,,,,,,,,,,,,,,0,4,4,3,1,,,,,,,,,,,,,,,,,,,,,,,,,,,,,,,,,,,,,,,,,,,,,,
917998,001,2022-11-20_23h58.59.616,Info_measure_main_exp,2022.2.2,Win32,60.08532116,,,,,,,,,,,,,,,,,,masks/mask_001.jpg,,,,,,,,,,,,,,,,,,,,,,,,,,,,,,,,,,,,,,,,,,,,,,,,0,0,0,0,1,,,,,,,,,,,,,,,,,,,,,,,,,,,,,,,,,,,,,,,,,
917998,001,2022-11-20_23h58.59.616,Info_measure_main_exp,2022.2.2,Win32,60.08532116,,,,,,,,,,,,,,,,,,masks/mask_004.jpg,,,,,,,,,,,,,,,,,,,,,,,,,,,,,,,,,,,,,,,,,,,,,,,,0,1,1,3,1,,,,,,,,,,,,,,,,,,,,,,,,,,,,,,,,,,,,,,,,,
917998,001,2022-11-20_23h58.59.616,Info_measure_main_exp,2022.2.2,Win32,60.08532116,,,,,,,,,,,,,,,,,,masks/mask_005.jpg,,,,,,,,,,,,,,,,,,,,,,,,,,,,,,,,,,,,,,,,,,,,,,,,0,2,2,4,1,,,,,,,,,,,,,,,,,,,,,,,,,,,,,,,,,,,,,,,,,
917998,001,2022-11-20_23h58.59.616,Info_measure_main_exp,2022.2.2,Win32,60.08532116,,,,,,,,,,,,,,,,,,masks/mask_003.jpg,,,,,,,,,,,,,,,,,,,,,,,,,,,,,,,,,,,,,,,,,,,,,,,,0,3,3,2,1,,,,,,,,,,,,,,,,,,,,,,,,,,,,,,,,,,,,,,,,,
917998,001,2022-11-20_23h58.59.616,Info_measure_main_exp,2022.2.2,Win32,60.08532116,,,,,,,,,,,,,,,,,,masks/mask_002.jpg,,,,,,,,,,,,,,,,,,,,,,,,,,,,,,,,,,,,,,,,,,,,,,,,0,4,4,1,1,,,,,,,,,,,,,,,,,,,,,,,,,,,,,,,,,,,,,,,,,
917998,001,2022-11-20_23h58.59.616,Info_measure_main_exp,2022.2.2,Win32,60.08532116,,,,,,,,,,,,,,,,,,,,,,,,,,,,,,6,0.9665,1,,,,,,,,,,,,0,131,5,5,1950,2166,absent_patch/patch0001950.jpg,absent_patch/patch0002166.jpg,,,,,,,,,,,,,,,,,,,,0.055555556,0.035185185,1,0,0,response1disk,21,-0.003703704,0.000925926,1,0,0,center_square,0,20,20,0,1,,,,,,,,,,,,,,,,,,,,,,,
917998,001,2022-11-20_23h58.59.616,Info_measure_main_exp,2022.2.2,Win32,60.08532116,,,,,,,,,,,,,,,,,,masks/mask_003.jpg,,,,,,,,,,,,,,,,,,,,,,,,,,,,,,,,,,,,,,,,,,,0,0,0,2,1,,,,,,,,,,,,,,,,,,,,,,,,,,,,,,,,,,,,,,,,,,,,,,
917998,001,2022-11-20_23h58.59.616,Info_measure_main_exp,2022.2.2,Win32,60.08532116,,,,,,,,,,,,,,,,,,masks/mask_005.jpg,,,,,,,,,,,,,,,,,,,,,,,,,,,,,,,,,,,,,,,,,,,0,1,1,4,1,,,,,,,,,,,,,,,,,,,,,,,,,,,,,,,,,,,,,,,,,,,,,,
917998,001,2022-11-20_23h58.59.616,Info_measure_main_exp,2022.2.2,Win32,60.08532116,,,,,,,,,,,,,,,,,,masks/mask_004.jpg,,,,,,,,,,,,,,,,,,,,,,,,,,,,,,,,,,,,,,,,,,,0,2,2,3,1,,,,,,,,,,,,,,,,,,,,,,,,,,,,,,,,,,,,,,,,,,,,,,
917998,001,2022-11-20_23h58.59.616,Info_measure_main_exp,2022.2.2,Win32,60.08532116,,,,,,,,,,,,,,,,,,masks/mask_001.jpg,,,,,,,,,,,,,,,,,,,,,,,,,,,,,,,,,,,,,,,,,,,0,3,3,0,1,,,,,,,,,,,,,,,,,,,,,,,,,,,,,,,,,,,,,,,,,,,,,,
917998,001,2022-11-20_23h58.59.616,Info_measure_main_exp,2022.2.2,Win32,60.08532116,,,,,,,,,,,,,,,,,,masks/mask_002.jpg,,,,,,,,,,,,,,,,,,,,,,,,,,,,,,,,,,,,,,,,,,,0,4,4,1,1,,,,,,,,,,,,,,,,,,,,,,,,,,,,,,,,,,,,,,,,,,,,,,
917998,001,2022-11-20_23h58.59.616,Info_measure_main_exp,2022.2.2,Win32,60.08532116,,,,,,,,,,,,,,,,,,masks/mask_001.jpg,,,,,,,,,,,,,,,,,,,,,,,,,,,,,,,,,,,,,,,,,,,,,,,,0,0,0,0,1,,,,,,,,,,,,,,,,,,,,,,,,,,,,,,,,,,,,,,,,,
917998,001,2022-11-20_23h58.59.616,Info_measure_main_exp,2022.2.2,Win32,60.08532116,,,,,,,,,,,,,,,,,,masks/mask_004.jpg,,,,,,,,,,,,,,,,,,,,,,,,,,,,,,,,,,,,,,,,,,,,,,,,0,1,1,3,1,,,,,,,,,,,,,,,,,,,,,,,,,,,,,,,,,,,,,,,,,
917998,001,2022-11-20_23h58.59.616,Info_measure_main_exp,2022.2.2,Win32,60.08532116,,,,,,,,,,,,,,,,,,masks/mask_005.jpg,,,,,,,,,,,,,,,,,,,,,,,,,,,,,,,,,,,,,,,,,,,,,,,,0,2,2,4,1,,,,,,,,,,,,,,,,,,,,,,,,,,,,,,,,,,,,,,,,,
917998,001,2022-11-20_23h58.59.616,Info_measure_main_exp,2022.2.2,Win32,60.08532116,,,,,,,,,,,,,,,,,,masks/mask_003.jpg,,,,,,,,,,,,,,,,,,,,,,,,,,,,,,,,,,,,,,,,,,,,,,,,0,3,3,2,1,,,,,,,,,,,,,,,,,,,,,,,,,,,,,,,,,,,,,,,,,
917998,001,2022-11-20_23h58.59.616,Info_measure_main_exp,2022.2.2,Win32,60.08532116,,,,,,,,,,,,,,,,,,masks/mask_002.jpg,,,,,,,,,,,,,,,,,,,,,,,,,,,,,,,,,,,,,,,,,,,,,,,,0,4,4,1,1,,,,,,,,,,,,,,,,,,,,,,,,,,,,,,,,,,,,,,,,,
917998,001,2022-11-20_23h58.59.616,Info_measure_main_exp,2022.2.2,Win32,60.08532116,,,,,,,,,,,,,,,,,,,,,,,,,,,,,,6,0.8333,1,,,,,,,,,,,,0,131,5,5,2274,2190,absent_patch/patch0002274.jpg,absent_patch/patch0002190.jpg,,,,,,,,,,,,,,,,,,,,0.078703704,0.05,1,0,0,response1disk,22,0.003703704,0.002777778,1,0,0,center_square,0,21,21,116,1,,,,,,,,,,,,,,,,,,,,,,,
917998,001,2022-11-20_23h58.59.616,Info_measure_main_exp,2022.2.2,Win32,60.08532116,,,,,,,,,,,,,,,,,,masks/mask_004.jpg,,,,,,,,,,,,,,,,,,,,,,,,,,,,,,,,,,,,,,,,,,,0,0,0,3,1,,,,,,,,,,,,,,,,,,,,,,,,,,,,,,,,,,,,,,,,,,,,,,
917998,001,2022-11-20_23h58.59.616,Info_measure_main_exp,2022.2.2,Win32,60.08532116,,,,,,,,,,,,,,,,,,masks/mask_005.jpg,,,,,,,,,,,,,,,,,,,,,,,,,,,,,,,,,,,,,,,,,,,0,1,1,4,1,,,,,,,,,,,,,,,,,,,,,,,,,,,,,,,,,,,,,,,,,,,,,,
917998,001,2022-11-20_23h58.59.616,Info_measure_main_exp,2022.2.2,Win32,60.08532116,,,,,,,,,,,,,,,,,,masks/mask_003.jpg,,,,,,,,,,,,,,,,,,,,,,,,,,,,,,,,,,,,,,,,,,,0,2,2,2,1,,,,,,,,,,,,,,,,,,,,,,,,,,,,,,,,,,,,,,,,,,,,,,
917998,001,2022-11-20_23h58.59.616,Info_measure_main_exp,2022.2.2,Win32,60.08532116,,,,,,,,,,,,,,,,,,masks/mask_002.jpg,,,,,,,,,,,,,,,,,,,,,,,,,,,,,,,,,,,,,,,,,,,0,3,3,1,1,,,,,,,,,,,,,,,,,,,,,,,,,,,,,,,,,,,,,,,,,,,,,,
917998,001,2022-11-20_23h58.59.616,Info_measure_main_exp,2022.2.2,Win32,60.08532116,,,,,,,,,,,,,,,,,,masks/mask_001.jpg,,,,,,,,,,,,,,,,,,,,,,,,,,,,,,,,,,,,,,,,,,,0,4,4,0,1,,,,,,,,,,,,,,,,,,,,,,,,,,,,,,,,,,,,,,,,,,,,,,
917998,001,2022-11-20_23h58.59.616,Info_measure_main_exp,2022.2.2,Win32,60.08532116,,,,,,,,,,,,,,,,,,masks/mask_002.jpg,,,,,,,,,,,,,,,,,,,,,,,,,,,,,,,,,,,,,,,,,,,,,,,,0,0,0,1,1,,,,,,,,,,,,,,,,,,,,,,,,,,,,,,,,,,,,,,,,,
917998,001,2022-11-20_23h58.59.616,Info_measure_main_exp,2022.2.2,Win32,60.08532116,,,,,,,,,,,,,,,,,,masks/mask_005.jpg,,,,,,,,,,,,,,,,,,,,,,,,,,,,,,,,,,,,,,,,,,,,,,,,0,1,1,4,1,,,,,,,,,,,,,,,,,,,,,,,,,,,,,,,,,,,,,,,,,
917998,001,2022-11-20_23h58.59.616,Info_measure_main_exp,2022.2.2,Win32,60.08532116,,,,,,,,,,,,,,,,,,masks/mask_003.jpg,,,,,,,,,,,,,,,,,,,,,,,,,,,,,,,,,,,,,,,,,,,,,,,,0,2,2,2,1,,,,,,,,,,,,,,,,,,,,,,,,,,,,,,,,,,,,,,,,,
917998,001,2022-11-20_23h58.59.616,Info_measure_main_exp,2022.2.2,Win32,60.08532116,,,,,,,,,,,,,,,,,,masks/mask_004.jpg,,,,,,,,,,,,,,,,,,,,,,,,,,,,,,,,,,,,,,,,,,,,,,,,0,3,3,3,1,,,,,,,,,,,,,,,,,,,,,,,,,,,,,,,,,,,,,,,,,
917998,001,2022-11-20_23h58.59.616,Info_measure_main_exp,2022.2.2,Win32,60.08532116,,,,,,,,,,,,,,,,,,masks/mask_001.jpg,,,,,,,,,,,,,,,,,,,,,,,,,,,,,,,,,,,,,,,,,,,,,,,,0,4,4,0,1,,,,,,,,,,,,,,,,,,,,,,,,,,,,,,,,,,,,,,,,,
917998,001,2022-11-20_23h58.59.616,Info_measure_main_exp,2022.2.2,Win32,60.08532116,,,,,,,,,,,,,,,,,,,,,,,,,,,,,,7,0.4833,1,,,,,,,,,,,,0,131,5,5,2274,2142,absent_patch/patch0002274.jpg,absent_patch/patch0002142.jpg,,,,,,,,,,,,,,,,,,,,0.040740741,0.049074074,1,0,0,response1disk,23,0,-0.002777778,1,0,0,center_square,0,22,22,75,1,,,,,,,,,,,,,,,,,,,,,,,
917998,001,2022-11-20_23h58.59.616,Info_measure_main_exp,2022.2.2,Win32,60.08532116,,,,,,,,,,,,,,,,,,masks/mask_002.jpg,,,,,,,,,,,,,,,,,,,,,,,,,,,,,,,,,,,,,,,,,,,0,0,0,1,1,,,,,,,,,,,,,,,,,,,,,,,,,,,,,,,,,,,,,,,,,,,,,,
917998,001,2022-11-20_23h58.59.616,Info_measure_main_exp,2022.2.2,Win32,60.08532116,,,,,,,,,,,,,,,,,,masks/mask_003.jpg,,,,,,,,,,,,,,,,,,,,,,,,,,,,,,,,,,,,,,,,,,,0,1,1,2,1,,,,,,,,,,,,,,,,,,,,,,,,,,,,,,,,,,,,,,,,,,,,,,
917998,001,2022-11-20_23h58.59.616,Info_measure_main_exp,2022.2.2,Win32,60.08532116,,,,,,,,,,,,,,,,,,masks/mask_005.jpg,,,,,,,,,,,,,,,,,,,,,,,,,,,,,,,,,,,,,,,,,,,0,2,2,4,1,,,,,,,,,,,,,,,,,,,,,,,,,,,,,,,,,,,,,,,,,,,,,,
917998,001,2022-11-20_23h58.59.616,Info_measure_main_exp,2022.2.2,Win32,60.08532116,,,,,,,,,,,,,,,,,,masks/mask_001.jpg,,,,,,,,,,,,,,,,,,,,,,,,,,,,,,,,,,,,,,,,,,,0,3,3,0,1,,,,,,,,,,,,,,,,,,,,,,,,,,,,,,,,,,,,,,,,,,,,,,
917998,001,2022-11-20_23h58.59.616,Info_measure_main_exp,2022.2.2,Win32,60.08532116,,,,,,,,,,,,,,,,,,masks/mask_004.jpg,,,,,,,,,,,,,,,,,,,,,,,,,,,,,,,,,,,,,,,,,,,0,4,4,3,1,,,,,,,,,,,,,,,,,,,,,,,,,,,,,,,,,,,,,,,,,,,,,,
917998,001,2022-11-20_23h58.59.616,Info_measure_main_exp,2022.2.2,Win32,60.08532116,,,,,,,,,,,,,,,,,,masks/mask_003.jpg,,,,,,,,,,,,,,,,,,,,,,,,,,,,,,,,,,,,,,,,,,,,,,,,0,0,0,2,1,,,,,,,,,,,,,,,,,,,,,,,,,,,,,,,,,,,,,,,,,
917998,001,2022-11-20_23h58.59.616,Info_measure_main_exp,2022.2.2,Win32,60.08532116,,,,,,,,,,,,,,,,,,masks/mask_005.jpg,,,,,,,,,,,,,,,,,,,,,,,,,,,,,,,,,,,,,,,,,,,,,,,,0,1,1,4,1,,,,,,,,,,,,,,,,,,,,,,,,,,,,,,,,,,,,,,,,,
917998,001,2022-11-20_23h58.59.616,Info_measure_main_exp,2022.2.2,Win32,60.08532116,,,,,,,,,,,,,,,,,,masks/mask_002.jpg,,,,,,,,,,,,,,,,,,,,,,,,,,,,,,,,,,,,,,,,,,,,,,,,0,2,2,1,1,,,,,,,,,,,,,,,,,,,,,,,,,,,,,,,,,,,,,,,,,
917998,001,2022-11-20_23h58.59.616,Info_measure_main_exp,2022.2.2,Win32,60.08532116,,,,,,,,,,,,,,,,,,masks/mask_004.jpg,,,,,,,,,,,,,,,,,,,,,,,,,,,,,,,,,,,,,,,,,,,,,,,,0,3,3,3,1,,,,,,,,,,,,,,,,,,,,,,,,,,,,,,,,,,,,,,,,,
917998,001,2022-11-20_23h58.59.616,Info_measure_main_exp,2022.2.2,Win32,60.08532116,,,,,,,,,,,,,,,,,,masks/mask_001.jpg,,,,,,,,,,,,,,,,,,,,,,,,,,,,,,,,,,,,,,,,,,,,,,,,0,4,4,0,1,,,,,,,,,,,,,,,,,,,,,,,,,,,,,,,,,,,,,,,,,
917998,001,2022-11-20_23h58.59.616,Info_measure_main_exp,2022.2.2,Win32,60.08532116,,,,,,,,,,,,,,,,,,,,,,,,,,,,,,6,0.65,1,,,,,,,,,,,,0,131,5,5,2274,2154,absent_patch/patch0002274.jpg,absent_patch/patch0002154.jpg,,,,,,,,,,,,,,,,,,,,0.046296296,0.02962963,1,0,0,response1disk,24,0.005555556,0.000925926,1,0,0,center_square,0,23,23,23,1,,,,,,,,,,,,,,,,,,,,,,,
917998,001,2022-11-20_23h58.59.616,Info_measure_main_exp,2022.2.2,Win32,60.08532116,,,,,,,,,,,,,,,,,,masks/mask_002.jpg,,,,,,,,,,,,,,,,,,,,,,,,,,,,,,,,,,,,,,,,,,,0,0,0,1,1,,,,,,,,,,,,,,,,,,,,,,,,,,,,,,,,,,,,,,,,,,,,,,
917998,001,2022-11-20_23h58.59.616,Info_measure_main_exp,2022.2.2,Win32,60.08532116,,,,,,,,,,,,,,,,,,masks/mask_004.jpg,,,,,,,,,,,,,,,,,,,,,,,,,,,,,,,,,,,,,,,,,,,0,1,1,3,1,,,,,,,,,,,,,,,,,,,,,,,,,,,,,,,,,,,,,,,,,,,,,,
917998,001,2022-11-20_23h58.59.616,Info_measure_main_exp,2022.2.2,Win32,60.08532116,,,,,,,,,,,,,,,,,,masks/mask_003.jpg,,,,,,,,,,,,,,,,,,,,,,,,,,,,,,,,,,,,,,,,,,,0,2,2,2,1,,,,,,,,,,,,,,,,,,,,,,,,,,,,,,,,,,,,,,,,,,,,,,
917998,001,2022-11-20_23h58.59.616,Info_measure_main_exp,2022.2.2,Win32,60.08532116,,,,,,,,,,,,,,,,,,masks/mask_001.jpg,,,,,,,,,,,,,,,,,,,,,,,,,,,,,,,,,,,,,,,,,,,0,3,3,0,1,,,,,,,,,,,,,,,,,,,,,,,,,,,,,,,,,,,,,,,,,,,,,,
917998,001,2022-11-20_23h58.59.616,Info_measure_main_exp,2022.2.2,Win32,60.08532116,,,,,,,,,,,,,,,,,,masks/mask_005.jpg,,,,,,,,,,,,,,,,,,,,,,,,,,,,,,,,,,,,,,,,,,,0,4,4,4,1,,,,,,,,,,,,,,,,,,,,,,,,,,,,,,,,,,,,,,,,,,,,,,
917998,001,2022-11-20_23h58.59.616,Info_measure_main_exp,2022.2.2,Win32,60.08532116,,,,,,,,,,,,,,,,,,masks/mask_003.jpg,,,,,,,,,,,,,,,,,,,,,,,,,,,,,,,,,,,,,,,,,,,,,,,,0,0,0,2,1,,,,,,,,,,,,,,,,,,,,,,,,,,,,,,,,,,,,,,,,,
917998,001,2022-11-20_23h58.59.616,Info_measure_main_exp,2022.2.2,Win32,60.08532116,,,,,,,,,,,,,,,,,,masks/mask_002.jpg,,,,,,,,,,,,,,,,,,,,,,,,,,,,,,,,,,,,,,,,,,,,,,,,0,1,1,1,1,,,,,,,,,,,,,,,,,,,,,,,,,,,,,,,,,,,,,,,,,
917998,001,2022-11-20_23h58.59.616,Info_measure_main_exp,2022.2.2,Win32,60.08532116,,,,,,,,,,,,,,,,,,masks/mask_004.jpg,,,,,,,,,,,,,,,,,,,,,,,,,,,,,,,,,,,,,,,,,,,,,,,,0,2,2,3,1,,,,,,,,,,,,,,,,,,,,,,,,,,,,,,,,,,,,,,,,,
917998,001,2022-11-20_23h58.59.616,Info_measure_main_exp,2022.2.2,Win32,60.08532116,,,,,,,,,,,,,,,,,,masks/mask_005.jpg,,,,,,,,,,,,,,,,,,,,,,,,,,,,,,,,,,,,,,,,,,,,,,,,0,3,3,4,1,,,,,,,,,,,,,,,,,,,,,,,,,,,,,,,,,,,,,,,,,
917998,001,2022-11-20_23h58.59.616,Info_measure_main_exp,2022.2.2,Win32,60.08532116,,,,,,,,,,,,,,,,,,masks/mask_001.jpg,,,,,,,,,,,,,,,,,,,,,,,,,,,,,,,,,,,,,,,,,,,,,,,,0,4,4,0,1,,,,,,,,,,,,,,,,,,,,,,,,,,,,,,,,,,,,,,,,,
917998,001,2022-11-20_23h58.59.616,Info_measure_main_exp,2022.2.2,Win32,60.08532116,,,,,,,,,,,,,,,,,,,,,,,,,,,,,,0,0.3668,1,,,,,,,,,,,,0,131,5,5,2154,2154,absent_patch/patch0002154.jpg,absent_patch/patch0002154.jpg,,,,,,,,,,,,,,,,,,,,-0.04537037,0.105555556,1,0,0,response7disk,25,-0.00462963,0.012037037,1,0,0,center_square,0,24,24,89,1,,,,,,,,,,,,,,,,,,,,,,,
917998,001,2022-11-20_23h58.59.616,Info_measure_main_exp,2022.2.2,Win32,60.08532116,,,,,,,,,,,,,,,,,,masks/mask_002.jpg,,,,,,,,,,,,,,,,,,,,,,,,,,,,,,,,,,,,,,,,,,,0,0,0,1,1,,,,,,,,,,,,,,,,,,,,,,,,,,,,,,,,,,,,,,,,,,,,,,
917998,001,2022-11-20_23h58.59.616,Info_measure_main_exp,2022.2.2,Win32,60.08532116,,,,,,,,,,,,,,,,,,masks/mask_004.jpg,,,,,,,,,,,,,,,,,,,,,,,,,,,,,,,,,,,,,,,,,,,0,1,1,3,1,,,,,,,,,,,,,,,,,,,,,,,,,,,,,,,,,,,,,,,,,,,,,,
917998,001,2022-11-20_23h58.59.616,Info_measure_main_exp,2022.2.2,Win32,60.08532116,,,,,,,,,,,,,,,,,,masks/mask_003.jpg,,,,,,,,,,,,,,,,,,,,,,,,,,,,,,,,,,,,,,,,,,,0,2,2,2,1,,,,,,,,,,,,,,,,,,,,,,,,,,,,,,,,,,,,,,,,,,,,,,
917998,001,2022-11-20_23h58.59.616,Info_measure_main_exp,2022.2.2,Win32,60.08532116,,,,,,,,,,,,,,,,,,masks/mask_001.jpg,,,,,,,,,,,,,,,,,,,,,,,,,,,,,,,,,,,,,,,,,,,0,3,3,0,1,,,,,,,,,,,,,,,,,,,,,,,,,,,,,,,,,,,,,,,,,,,,,,
917998,001,2022-11-20_23h58.59.616,Info_measure_main_exp,2022.2.2,Win32,60.08532116,,,,,,,,,,,,,,,,,,masks/mask_005.jpg,,,,,,,,,,,,,,,,,,,,,,,,,,,,,,,,,,,,,,,,,,,0,4,4,4,1,,,,,,,,,,,,,,,,,,,,,,,,,,,,,,,,,,,,,,,,,,,,,,
917998,001,2022-11-20_23h58.59.616,Info_measure_main_exp,2022.2.2,Win32,60.08532116,,,,,,,,,,,,,,,,,,masks/mask_002.jpg,,,,,,,,,,,,,,,,,,,,,,,,,,,,,,,,,,,,,,,,,,,,,,,,0,0,0,1,1,,,,,,,,,,,,,,,,,,,,,,,,,,,,,,,,,,,,,,,,,
917998,001,2022-11-20_23h58.59.616,Info_measure_main_exp,2022.2.2,Win32,60.08532116,,,,,,,,,,,,,,,,,,masks/mask_003.jpg,,,,,,,,,,,,,,,,,,,,,,,,,,,,,,,,,,,,,,,,,,,,,,,,0,1,1,2,1,,,,,,,,,,,,,,,,,,,,,,,,,,,,,,,,,,,,,,,,,
917998,001,2022-11-20_23h58.59.616,Info_measure_main_exp,2022.2.2,Win32,60.08532116,,,,,,,,,,,,,,,,,,masks/mask_005.jpg,,,,,,,,,,,,,,,,,,,,,,,,,,,,,,,,,,,,,,,,,,,,,,,,0,2,2,4,1,,,,,,,,,,,,,,,,,,,,,,,,,,,,,,,,,,,,,,,,,
917998,001,2022-11-20_23h58.59.616,Info_measure_main_exp,2022.2.2,Win32,60.08532116,,,,,,,,,,,,,,,,,,masks/mask_004.jpg,,,,,,,,,,,,,,,,,,,,,,,,,,,,,,,,,,,,,,,,,,,,,,,,0,3,3,3,1,,,,,,,,,,,,,,,,,,,,,,,,,,,,,,,,,,,,,,,,,
917998,001,2022-11-20_23h58.59.616,Info_measure_main_exp,2022.2.2,Win32,60.08532116,,,,,,,,,,,,,,,,,,masks/mask_001.jpg,,,,,,,,,,,,,,,,,,,,,,,,,,,,,,,,,,,,,,,,,,,,,,,,0,4,4,0,1,,,,,,,,,,,,,,,,,,,,,,,,,,,,,,,,,,,,,,,,,
917998,001,2022-11-20_23h58.59.616,Info_measure_main_exp,2022.2.2,Win32,60.08532116,,,,,,,,,,,,,,,,,,,,,,,,,,,,,,6,0.7669,1,,,,,,,,,,,,0,131,5,5,2082,1986,absent_patch/patch0002082.jpg,absent_patch/patch0001986.jpg,,,,,,,,,,,,,,,,,,,,0.07037037,0.026851852,1,0,0,response1disk,26,-0.000925926,0.001851852,1,0,0,center_square,0,25,25,94,1,,,,,,,,,,,,,,,,,,,,,,,
917998,001,2022-11-20_23h58.59.616,Info_measure_main_exp,2022.2.2,Win32,60.08532116,,,,,,,,,,,,,,,,,,masks/mask_001.jpg,,,,,,,,,,,,,,,,,,,,,,,,,,,,,,,,,,,,,,,,,,,0,0,0,0,1,,,,,,,,,,,,,,,,,,,,,,,,,,,,,,,,,,,,,,,,,,,,,,
917998,001,2022-11-20_23h58.59.616,Info_measure_main_exp,2022.2.2,Win32,60.08532116,,,,,,,,,,,,,,,,,,masks/mask_002.jpg,,,,,,,,,,,,,,,,,,,,,,,,,,,,,,,,,,,,,,,,,,,0,1,1,1,1,,,,,,,,,,,,,,,,,,,,,,,,,,,,,,,,,,,,,,,,,,,,,,
917998,001,2022-11-20_23h58.59.616,Info_measure_main_exp,2022.2.2,Win32,60.08532116,,,,,,,,,,,,,,,,,,masks/mask_003.jpg,,,,,,,,,,,,,,,,,,,,,,,,,,,,,,,,,,,,,,,,,,,0,2,2,2,1,,,,,,,,,,,,,,,,,,,,,,,,,,,,,,,,,,,,,,,,,,,,,,
917998,001,2022-11-20_23h58.59.616,Info_measure_main_exp,2022.2.2,Win32,60.08532116,,,,,,,,,,,,,,,,,,masks/mask_005.jpg,,,,,,,,,,,,,,,,,,,,,,,,,,,,,,,,,,,,,,,,,,,0,3,3,4,1,,,,,,,,,,,,,,,,,,,,,,,,,,,,,,,,,,,,,,,,,,,,,,
917998,001,2022-11-20_23h58.59.616,Info_measure_main_exp,2022.2.2,Win32,60.08532116,,,,,,,,,,,,,,,,,,masks/mask_004.jpg,,,,,,,,,,,,,,,,,,,,,,,,,,,,,,,,,,,,,,,,,,,0,4,4,3,1,,,,,,,,,,,,,,,,,,,,,,,,,,,,,,,,,,,,,,,,,,,,,,
917998,001,2022-11-20_23h58.59.616,Info_measure_main_exp,2022.2.2,Win32,60.08532116,,,,,,,,,,,,,,,,,,masks/mask_002.jpg,,,,,,,,,,,,,,,,,,,,,,,,,,,,,,,,,,,,,,,,,,,,,,,,0,0,0,1,1,,,,,,,,,,,,,,,,,,,,,,,,,,,,,,,,,,,,,,,,,
917998,001,2022-11-20_23h58.59.616,Info_measure_main_exp,2022.2.2,Win32,60.08532116,,,,,,,,,,,,,,,,,,masks/mask_005.jpg,,,,,,,,,,,,,,,,,,,,,,,,,,,,,,,,,,,,,,,,,,,,,,,,0,1,1,4,1,,,,,,,,,,,,,,,,,,,,,,,,,,,,,,,,,,,,,,,,,
917998,001,2022-11-20_23h58.59.616,Info_measure_main_exp,2022.2.2,Win32,60.08532116,,,,,,,,,,,,,,,,,,masks/mask_003.jpg,,,,,,,,,,,,,,,,,,,,,,,,,,,,,,,,,,,,,,,,,,,,,,,,0,2,2,2,1,,,,,,,,,,,,,,,,,,,,,,,,,,,,,,,,,,,,,,,,,
917998,001,2022-11-20_23h58.59.616,Info_measure_main_exp,2022.2.2,Win32,60.08532116,,,,,,,,,,,,,,,,,,masks/mask_004.jpg,,,,,,,,,,,,,,,,,,,,,,,,,,,,,,,,,,,,,,,,,,,,,,,,0,3,3,3,1,,,,,,,,,,,,,,,,,,,,,,,,,,,,,,,,,,,,,,,,,
917998,001,2022-11-20_23h58.59.616,Info_measure_main_exp,2022.2.2,Win32,60.08532116,,,,,,,,,,,,,,,,,,masks/mask_001.jpg,,,,,,,,,,,,,,,,,,,,,,,,,,,,,,,,,,,,,,,,,,,,,,,,0,4,4,0,1,,,,,,,,,,,,,,,,,,,,,,,,,,,,,,,,,,,,,,,,,
917998,001,2022-11-20_23h58.59.616,Info_measure_main_exp,2022.2.2,Win32,60.08532116,,,,,,,,,,,,,,,,,,,,,,,,,,,,,,6,1.2835,1,,,,,,,,,,,,0,131,5,5,2154,1974,absent_patch/patch0002154.jpg,absent_patch/patch0001974.jpg,,,,,,,,,,,,,,,,,,,,0.049074074,0.007407407,1,0,0,response1disk,27,-0.003703704,0.005555556,1,0,0,center_square,0,26,26,82,1,,,,,,,,,,,,,,,,,,,,,,,
917998,001,2022-11-20_23h58.59.616,Info_measure_main_exp,2022.2.2,Win32,60.08532116,,,,,,,,,,,,,,,,,,masks/mask_002.jpg,,,,,,,,,,,,,,,,,,,,,,,,,,,,,,,,,,,,,,,,,,,0,0,0,1,1,,,,,,,,,,,,,,,,,,,,,,,,,,,,,,,,,,,,,,,,,,,,,,
917998,001,2022-11-20_23h58.59.616,Info_measure_main_exp,2022.2.2,Win32,60.08532116,,,,,,,,,,,,,,,,,,masks/mask_004.jpg,,,,,,,,,,,,,,,,,,,,,,,,,,,,,,,,,,,,,,,,,,,0,1,1,3,1,,,,,,,,,,,,,,,,,,,,,,,,,,,,,,,,,,,,,,,,,,,,,,
917998,001,2022-11-20_23h58.59.616,Info_measure_main_exp,2022.2.2,Win32,60.08532116,,,,,,,,,,,,,,,,,,masks/mask_003.jpg,,,,,,,,,,,,,,,,,,,,,,,,,,,,,,,,,,,,,,,,,,,0,2,2,2,1,,,,,,,,,,,,,,,,,,,,,,,,,,,,,,,,,,,,,,,,,,,,,,
917998,001,2022-11-20_23h58.59.616,Info_measure_main_exp,2022.2.2,Win32,60.08532116,,,,,,,,,,,,,,,,,,masks/mask_005.jpg,,,,,,,,,,,,,,,,,,,,,,,,,,,,,,,,,,,,,,,,,,,0,3,3,4,1,,,,,,,,,,,,,,,,,,,,,,,,,,,,,,,,,,,,,,,,,,,,,,
917998,001,2022-11-20_23h58.59.616,Info_measure_main_exp,2022.2.2,Win32,60.08532116,,,,,,,,,,,,,,,,,,masks/mask_001.jpg,,,,,,,,,,,,,,,,,,,,,,,,,,,,,,,,,,,,,,,,,,,0,4,4,0,1,,,,,,,,,,,,,,,,,,,,,,,,,,,,,,,,,,,,,,,,,,,,,,
917998,001,2022-11-20_23h58.59.616,Info_measure_main_exp,2022.2.2,Win32,60.08532116,,,,,,,,,,,,,,,,,,masks/mask_001.jpg,,,,,,,,,,,,,,,,,,,,,,,,,,,,,,,,,,,,,,,,,,,,,,,,0,0,0,0,1,,,,,,,,,,,,,,,,,,,,,,,,,,,,,,,,,,,,,,,,,
917998,001,2022-11-20_23h58.59.616,Info_measure_main_exp,2022.2.2,Win32,60.08532116,,,,,,,,,,,,,,,,,,masks/mask_004.jpg,,,,,,,,,,,,,,,,,,,,,,,,,,,,,,,,,,,,,,,,,,,,,,,,0,1,1,3,1,,,,,,,,,,,,,,,,,,,,,,,,,,,,,,,,,,,,,,,,,
917998,001,2022-11-20_23h58.59.616,Info_measure_main_exp,2022.2.2,Win32,60.08532116,,,,,,,,,,,,,,,,,,masks/mask_002.jpg,,,,,,,,,,,,,,,,,,,,,,,,,,,,,,,,,,,,,,,,,,,,,,,,0,2,2,1,1,,,,,,,,,,,,,,,,,,,,,,,,,,,,,,,,,,,,,,,,,
917998,001,2022-11-20_23h58.59.616,Info_measure_main_exp,2022.2.2,Win32,60.08532116,,,,,,,,,,,,,,,,,,masks/mask_005.jpg,,,,,,,,,,,,,,,,,,,,,,,,,,,,,,,,,,,,,,,,,,,,,,,,0,3,3,4,1,,,,,,,,,,,,,,,,,,,,,,,,,,,,,,,,,,,,,,,,,
917998,001,2022-11-20_23h58.59.616,Info_measure_main_exp,2022.2.2,Win32,60.08532116,,,,,,,,,,,,,,,,,,masks/mask_003.jpg,,,,,,,,,,,,,,,,,,,,,,,,,,,,,,,,,,,,,,,,,,,,,,,,0,4,4,2,1,,,,,,,,,,,,,,,,,,,,,,,,,,,,,,,,,,,,,,,,,
917998,001,2022-11-20_23h58.59.616,Info_measure_main_exp,2022.2.2,Win32,60.08532116,,,,,,,,,,,,,,,,,,,,,,,,,,,,,,6,0.5334,1,,,,,,,,,,,,0,131,5,5,2190,2166,absent_patch/patch0002190.jpg,absent_patch/patch0002166.jpg,,,,,,,,,,,,,,,,,,,,0.046296296,0.012962963,1,0,0,response1disk,28,-0.000925926,-0.006481481,1,0,0,center_square,0,27,27,50,1,,,,,,,,,,,,,,,,,,,,,,,
917998,001,2022-11-20_23h58.59.616,Info_measure_main_exp,2022.2.2,Win32,60.08532116,,,,,,,,,,,,,,,,,,masks/mask_001.jpg,,,,,,,,,,,,,,,,,,,,,,,,,,,,,,,,,,,,,,,,,,,0,0,0,0,1,,,,,,,,,,,,,,,,,,,,,,,,,,,,,,,,,,,,,,,,,,,,,,
917998,001,2022-11-20_23h58.59.616,Info_measure_main_exp,2022.2.2,Win32,60.08532116,,,,,,,,,,,,,,,,,,masks/mask_003.jpg,,,,,,,,,,,,,,,,,,,,,,,,,,,,,,,,,,,,,,,,,,,0,1,1,2,1,,,,,,,,,,,,,,,,,,,,,,,,,,,,,,,,,,,,,,,,,,,,,,
917998,001,2022-11-20_23h58.59.616,Info_measure_main_exp,2022.2.2,Win32,60.08532116,,,,,,,,,,,,,,,,,,masks/mask_002.jpg,,,,,,,,,,,,,,,,,,,,,,,,,,,,,,,,,,,,,,,,,,,0,2,2,1,1,,,,,,,,,,,,,,,,,,,,,,,,,,,,,,,,,,,,,,,,,,,,,,
917998,001,2022-11-20_23h58.59.616,Info_measure_main_exp,2022.2.2,Win32,60.08532116,,,,,,,,,,,,,,,,,,masks/mask_005.jpg,,,,,,,,,,,,,,,,,,,,,,,,,,,,,,,,,,,,,,,,,,,0,3,3,4,1,,,,,,,,,,,,,,,,,,,,,,,,,,,,,,,,,,,,,,,,,,,,,,
917998,001,2022-11-20_23h58.59.616,Info_measure_main_exp,2022.2.2,Win32,60.08532116,,,,,,,,,,,,,,,,,,masks/mask_004.jpg,,,,,,,,,,,,,,,,,,,,,,,,,,,,,,,,,,,,,,,,,,,0,4,4,3,1,,,,,,,,,,,,,,,,,,,,,,,,,,,,,,,,,,,,,,,,,,,,,,
917998,001,2022-11-20_23h58.59.616,Info_measure_main_exp,2022.2.2,Win32,60.08532116,,,,,,,,,,,,,,,,,,masks/mask_001.jpg,,,,,,,,,,,,,,,,,,,,,,,,,,,,,,,,,,,,,,,,,,,,,,,,0,0,0,0,1,,,,,,,,,,,,,,,,,,,,,,,,,,,,,,,,,,,,,,,,,
917998,001,2022-11-20_23h58.59.616,Info_measure_main_exp,2022.2.2,Win32,60.08532116,,,,,,,,,,,,,,,,,,masks/mask_005.jpg,,,,,,,,,,,,,,,,,,,,,,,,,,,,,,,,,,,,,,,,,,,,,,,,0,1,1,4,1,,,,,,,,,,,,,,,,,,,,,,,,,,,,,,,,,,,,,,,,,
917998,001,2022-11-20_23h58.59.616,Info_measure_main_exp,2022.2.2,Win32,60.08532116,,,,,,,,,,,,,,,,,,masks/mask_003.jpg,,,,,,,,,,,,,,,,,,,,,,,,,,,,,,,,,,,,,,,,,,,,,,,,0,2,2,2,1,,,,,,,,,,,,,,,,,,,,,,,,,,,,,,,,,,,,,,,,,
917998,001,2022-11-20_23h58.59.616,Info_measure_main_exp,2022.2.2,Win32,60.08532116,,,,,,,,,,,,,,,,,,masks/mask_002.jpg,,,,,,,,,,,,,,,,,,,,,,,,,,,,,,,,,,,,,,,,,,,,,,,,0,3,3,1,1,,,,,,,,,,,,,,,,,,,,,,,,,,,,,,,,,,,,,,,,,
917998,001,2022-11-20_23h58.59.616,Info_measure_main_exp,2022.2.2,Win32,60.08532116,,,,,,,,,,,,,,,,,,masks/mask_004.jpg,,,,,,,,,,,,,,,,,,,,,,,,,,,,,,,,,,,,,,,,,,,,,,,,0,4,4,3,1,,,,,,,,,,,,,,,,,,,,,,,,,,,,,,,,,,,,,,,,,
917998,001,2022-11-20_23h58.59.616,Info_measure_main_exp,2022.2.2,Win32,60.08532116,,,,,,,,,,,,,,,,,,,,,,,,,,,,,,6,1.1333,1,,,,,,,,,,,,0,131,5,5,1950,1950,absent_patch/patch0001950.jpg,absent_patch/patch0001950.jpg,,,,,,,,,,,,,,,,,,,,0.069444444,0.034259259,1,0,0,response1disk,29,0,-0.00462963,1,0,0,center_square,0,28,28,92,1,,,,,,,,,,,,,,,,,,,,,,,
917998,001,2022-11-20_23h58.59.616,Info_measure_main_exp,2022.2.2,Win32,60.08532116,,,,,,,,,,,,,,,,,,masks/mask_004.jpg,,,,,,,,,,,,,,,,,,,,,,,,,,,,,,,,,,,,,,,,,,,0,0,0,3,1,,,,,,,,,,,,,,,,,,,,,,,,,,,,,,,,,,,,,,,,,,,,,,
917998,001,2022-11-20_23h58.59.616,Info_measure_main_exp,2022.2.2,Win32,60.08532116,,,,,,,,,,,,,,,,,,masks/mask_003.jpg,,,,,,,,,,,,,,,,,,,,,,,,,,,,,,,,,,,,,,,,,,,0,1,1,2,1,,,,,,,,,,,,,,,,,,,,,,,,,,,,,,,,,,,,,,,,,,,,,,
917998,001,2022-11-20_23h58.59.616,Info_measure_main_exp,2022.2.2,Win32,60.08532116,,,,,,,,,,,,,,,,,,masks/mask_005.jpg,,,,,,,,,,,,,,,,,,,,,,,,,,,,,,,,,,,,,,,,,,,0,2,2,4,1,,,,,,,,,,,,,,,,,,,,,,,,,,,,,,,,,,,,,,,,,,,,,,
917998,001,2022-11-20_23h58.59.616,Info_measure_main_exp,2022.2.2,Win32,60.08532116,,,,,,,,,,,,,,,,,,masks/mask_002.jpg,,,,,,,,,,,,,,,,,,,,,,,,,,,,,,,,,,,,,,,,,,,0,3,3,1,1,,,,,,,,,,,,,,,,,,,,,,,,,,,,,,,,,,,,,,,,,,,,,,
917998,001,2022-11-20_23h58.59.616,Info_measure_main_exp,2022.2.2,Win32,60.08532116,,,,,,,,,,,,,,,,,,masks/mask_001.jpg,,,,,,,,,,,,,,,,,,,,,,,,,,,,,,,,,,,,,,,,,,,0,4,4,0,1,,,,,,,,,,,,,,,,,,,,,,,,,,,,,,,,,,,,,,,,,,,,,,
917998,001,2022-11-20_23h58.59.616,Info_measure_main_exp,2022.2.2,Win32,60.08532116,,,,,,,,,,,,,,,,,,masks/mask_001.jpg,,,,,,,,,,,,,,,,,,,,,,,,,,,,,,,,,,,,,,,,,,,,,,,,0,0,0,0,1,,,,,,,,,,,,,,,,,,,,,,,,,,,,,,,,,,,,,,,,,
917998,001,2022-11-20_23h58.59.616,Info_measure_main_exp,2022.2.2,Win32,60.08532116,,,,,,,,,,,,,,,,,,masks/mask_003.jpg,,,,,,,,,,,,,,,,,,,,,,,,,,,,,,,,,,,,,,,,,,,,,,,,0,1,1,2,1,,,,,,,,,,,,,,,,,,,,,,,,,,,,,,,,,,,,,,,,,
917998,001,2022-11-20_23h58.59.616,Info_measure_main_exp,2022.2.2,Win32,60.08532116,,,,,,,,,,,,,,,,,,masks/mask_005.jpg,,,,,,,,,,,,,,,,,,,,,,,,,,,,,,,,,,,,,,,,,,,,,,,,0,2,2,4,1,,,,,,,,,,,,,,,,,,,,,,,,,,,,,,,,,,,,,,,,,
917998,001,2022-11-20_23h58.59.616,Info_measure_main_exp,2022.2.2,Win32,60.08532116,,,,,,,,,,,,,,,,,,masks/mask_002.jpg,,,,,,,,,,,,,,,,,,,,,,,,,,,,,,,,,,,,,,,,,,,,,,,,0,3,3,1,1,,,,,,,,,,,,,,,,,,,,,,,,,,,,,,,,,,,,,,,,,
917998,001,2022-11-20_23h58.59.616,Info_measure_main_exp,2022.2.2,Win32,60.08532116,,,,,,,,,,,,,,,,,,masks/mask_004.jpg,,,,,,,,,,,,,,,,,,,,,,,,,,,,,,,,,,,,,,,,,,,,,,,,0,4,4,3,1,,,,,,,,,,,,,,,,,,,,,,,,,,,,,,,,,,,,,,,,,
917998,001,2022-11-20_23h58.59.616,Info_measure_main_exp,2022.2.2,Win32,60.08532116,,,,,,,,,,,,,,,,,,,,,,,,,,,,,,6,0.4334,1,,,,,,,,,,,,0,131,5,5,2298,2274,absent_patch/patch0002298.jpg,absent_patch/patch0002274.jpg,,,,,,,,,,,,,,,,,,,,0.067592593,0.025,1,0,0,response1disk,30,0.011111111,0.001851852,1,0,0,center_square,0,29,29,1,1,,,,,,,,,,,,,,,,,,,,,,,
917998,001,2022-11-20_23h58.59.616,Info_measure_main_exp,2022.2.2,Win32,60.08532116,,,,,,,,,,,,,,,,,,masks/mask_004.jpg,,,,,,,,,,,,,,,,,,,,,,,,,,,,,,,,,,,,,,,,,,,0,0,0,3,1,,,,,,,,,,,,,,,,,,,,,,,,,,,,,,,,,,,,,,,,,,,,,,
917998,001,2022-11-20_23h58.59.616,Info_measure_main_exp,2022.2.2,Win32,60.08532116,,,,,,,,,,,,,,,,,,masks/mask_003.jpg,,,,,,,,,,,,,,,,,,,,,,,,,,,,,,,,,,,,,,,,,,,0,1,1,2,1,,,,,,,,,,,,,,,,,,,,,,,,,,,,,,,,,,,,,,,,,,,,,,
917998,001,2022-11-20_23h58.59.616,Info_measure_main_exp,2022.2.2,Win32,60.08532116,,,,,,,,,,,,,,,,,,masks/mask_001.jpg,,,,,,,,,,,,,,,,,,,,,,,,,,,,,,,,,,,,,,,,,,,0,2,2,0,1,,,,,,,,,,,,,,,,,,,,,,,,,,,,,,,,,,,,,,,,,,,,,,
917998,001,2022-11-20_23h58.59.616,Info_measure_main_exp,2022.2.2,Win32,60.08532116,,,,,,,,,,,,,,,,,,masks/mask_005.jpg,,,,,,,,,,,,,,,,,,,,,,,,,,,,,,,,,,,,,,,,,,,0,3,3,4,1,,,,,,,,,,,,,,,,,,,,,,,,,,,,,,,,,,,,,,,,,,,,,,
917998,001,2022-11-20_23h58.59.616,Info_measure_main_exp,2022.2.2,Win32,60.08532116,,,,,,,,,,,,,,,,,,masks/mask_002.jpg,,,,,,,,,,,,,,,,,,,,,,,,,,,,,,,,,,,,,,,,,,,0,4,4,1,1,,,,,,,,,,,,,,,,,,,,,,,,,,,,,,,,,,,,,,,,,,,,,,
917998,001,2022-11-20_23h58.59.616,Info_measure_main_exp,2022.2.2,Win32,60.08532116,,,,,,,,,,,,,,,,,,masks/mask_003.jpg,,,,,,,,,,,,,,,,,,,,,,,,,,,,,,,,,,,,,,,,,,,,,,,,0,0,0,2,1,,,,,,,,,,,,,,,,,,,,,,,,,,,,,,,,,,,,,,,,,
917998,001,2022-11-20_23h58.59.616,Info_measure_main_exp,2022.2.2,Win32,60.08532116,,,,,,,,,,,,,,,,,,masks/mask_004.jpg,,,,,,,,,,,,,,,,,,,,,,,,,,,,,,,,,,,,,,,,,,,,,,,,0,1,1,3,1,,,,,,,,,,,,,,,,,,,,,,,,,,,,,,,,,,,,,,,,,
917998,001,2022-11-20_23h58.59.616,Info_measure_main_exp,2022.2.2,Win32,60.08532116,,,,,,,,,,,,,,,,,,masks/mask_001.jpg,,,,,,,,,,,,,,,,,,,,,,,,,,,,,,,,,,,,,,,,,,,,,,,,0,2,2,0,1,,,,,,,,,,,,,,,,,,,,,,,,,,,,,,,,,,,,,,,,,
917998,001,2022-11-20_23h58.59.616,Info_measure_main_exp,2022.2.2,Win32,60.08532116,,,,,,,,,,,,,,,,,,masks/mask_002.jpg,,,,,,,,,,,,,,,,,,,,,,,,,,,,,,,,,,,,,,,,,,,,,,,,0,3,3,1,1,,,,,,,,,,,,,,,,,,,,,,,,,,,,,,,,,,,,,,,,,
917998,001,2022-11-20_23h58.59.616,Info_measure_main_exp,2022.2.2,Win32,60.08532116,,,,,,,,,,,,,,,,,,masks/mask_005.jpg,,,,,,,,,,,,,,,,,,,,,,,,,,,,,,,,,,,,,,,,,,,,,,,,0,4,4,4,1,,,,,,,,,,,,,,,,,,,,,,,,,,,,,,,,,,,,,,,,,
917998,001,2022-11-20_23h58.59.616,Info_measure_main_exp,2022.2.2,Win32,60.08532116,,,,,,,,,,,,,,,,,,,,,,,,,,,,,,7,0.35,1,,,,,,,,,,,,0,131,5,5,2190,2082,absent_patch/patch0002190.jpg,absent_patch/patch0002082.jpg,,,,,,,,,,,,,,,,,,,,0.049074074,0.085185185,1,0,0,response1disk,31,0.009259259,0.000925926,1,0,0,center_square,0,30,30,112,1,,,,,,,,,,,,,,,,,,,,,,,
917998,001,2022-11-20_23h58.59.616,Info_measure_main_exp,2022.2.2,Win32,60.08532116,,,,,,,,,,,,,,,,,,masks/mask_003.jpg,,,,,,,,,,,,,,,,,,,,,,,,,,,,,,,,,,,,,,,,,,,0,0,0,2,1,,,,,,,,,,,,,,,,,,,,,,,,,,,,,,,,,,,,,,,,,,,,,,
917998,001,2022-11-20_23h58.59.616,Info_measure_main_exp,2022.2.2,Win32,60.08532116,,,,,,,,,,,,,,,,,,masks/mask_002.jpg,,,,,,,,,,,,,,,,,,,,,,,,,,,,,,,,,,,,,,,,,,,0,1,1,1,1,,,,,,,,,,,,,,,,,,,,,,,,,,,,,,,,,,,,,,,,,,,,,,
917998,001,2022-11-20_23h58.59.616,Info_measure_main_exp,2022.2.2,Win32,60.08532116,,,,,,,,,,,,,,,,,,masks/mask_004.jpg,,,,,,,,,,,,,,,,,,,,,,,,,,,,,,,,,,,,,,,,,,,0,2,2,3,1,,,,,,,,,,,,,,,,,,,,,,,,,,,,,,,,,,,,,,,,,,,,,,
917998,001,2022-11-20_23h58.59.616,Info_measure_main_exp,2022.2.2,Win32,60.08532116,,,,,,,,,,,,,,,,,,masks/mask_005.jpg,,,,,,,,,,,,,,,,,,,,,,,,,,,,,,,,,,,,,,,,,,,0,3,3,4,1,,,,,,,,,,,,,,,,,,,,,,,,,,,,,,,,,,,,,,,,,,,,,,
917998,001,2022-11-20_23h58.59.616,Info_measure_main_exp,2022.2.2,Win32,60.08532116,,,,,,,,,,,,,,,,,,masks/mask_001.jpg,,,,,,,,,,,,,,,,,,,,,,,,,,,,,,,,,,,,,,,,,,,0,4,4,0,1,,,,,,,,,,,,,,,,,,,,,,,,,,,,,,,,,,,,,,,,,,,,,,
917998,001,2022-11-20_23h58.59.616,Info_measure_main_exp,2022.2.2,Win32,60.08532116,,,,,,,,,,,,,,,,,,masks/mask_001.jpg,,,,,,,,,,,,,,,,,,,,,,,,,,,,,,,,,,,,,,,,,,,,,,,,0,0,0,0,1,,,,,,,,,,,,,,,,,,,,,,,,,,,,,,,,,,,,,,,,,
917998,001,2022-11-20_23h58.59.616,Info_measure_main_exp,2022.2.2,Win32,60.08532116,,,,,,,,,,,,,,,,,,masks/mask_002.jpg,,,,,,,,,,,,,,,,,,,,,,,,,,,,,,,,,,,,,,,,,,,,,,,,0,1,1,1,1,,,,,,,,,,,,,,,,,,,,,,,,,,,,,,,,,,,,,,,,,
917998,001,2022-11-20_23h58.59.616,Info_measure_main_exp,2022.2.2,Win32,60.08532116,,,,,,,,,,,,,,,,,,masks/mask_004.jpg,,,,,,,,,,,,,,,,,,,,,,,,,,,,,,,,,,,,,,,,,,,,,,,,0,2,2,3,1,,,,,,,,,,,,,,,,,,,,,,,,,,,,,,,,,,,,,,,,,
917998,001,2022-11-20_23h58.59.616,Info_measure_main_exp,2022.2.2,Win32,60.08532116,,,,,,,,,,,,,,,,,,masks/mask_003.jpg,,,,,,,,,,,,,,,,,,,,,,,,,,,,,,,,,,,,,,,,,,,,,,,,0,3,3,2,1,,,,,,,,,,,,,,,,,,,,,,,,,,,,,,,,,,,,,,,,,
917998,001,2022-11-20_23h58.59.616,Info_measure_main_exp,2022.2.2,Win32,60.08532116,,,,,,,,,,,,,,,,,,masks/mask_005.jpg,,,,,,,,,,,,,,,,,,,,,,,,,,,,,,,,,,,,,,,,,,,,,,,,0,4,4,4,1,,,,,,,,,,,,,,,,,,,,,,,,,,,,,,,,,,,,,,,,,
917998,001,2022-11-20_23h58.59.616,Info_measure_main_exp,2022.2.2,Win32,60.08532116,,,,,,,,,,,,,,,,,,,,,,,,,,,,,,5,0.5166,1,,,,,,,,,,,,0,131,5,5,2166,1986,absent_patch/patch0002166.jpg,absent_patch/patch0001986.jpg,,,,,,,,,,,,,,,,,,,,0.057407407,-0.008333333,1,0,0,response3disk,32,0.008333333,0.008333333,1,0,0,center_square,0,31,31,47,1,,,,,,,,,,,,,,,,,,,,,,,
917998,001,2022-11-20_23h58.59.616,Info_measure_main_exp,2022.2.2,Win32,60.08532116,,,,,,,,,,,,,,,,,,masks/mask_001.jpg,,,,,,,,,,,,,,,,,,,,,,,,,,,,,,,,,,,,,,,,,,,0,0,0,0,1,,,,,,,,,,,,,,,,,,,,,,,,,,,,,,,,,,,,,,,,,,,,,,
917998,001,2022-11-20_23h58.59.616,Info_measure_main_exp,2022.2.2,Win32,60.08532116,,,,,,,,,,,,,,,,,,masks/mask_002.jpg,,,,,,,,,,,,,,,,,,,,,,,,,,,,,,,,,,,,,,,,,,,0,1,1,1,1,,,,,,,,,,,,,,,,,,,,,,,,,,,,,,,,,,,,,,,,,,,,,,
917998,001,2022-11-20_23h58.59.616,Info_measure_main_exp,2022.2.2,Win32,60.08532116,,,,,,,,,,,,,,,,,,masks/mask_005.jpg,,,,,,,,,,,,,,,,,,,,,,,,,,,,,,,,,,,,,,,,,,,0,2,2,4,1,,,,,,,,,,,,,,,,,,,,,,,,,,,,,,,,,,,,,,,,,,,,,,
917998,001,2022-11-20_23h58.59.616,Info_measure_main_exp,2022.2.2,Win32,60.08532116,,,,,,,,,,,,,,,,,,masks/mask_003.jpg,,,,,,,,,,,,,,,,,,,,,,,,,,,,,,,,,,,,,,,,,,,0,3,3,2,1,,,,,,,,,,,,,,,,,,,,,,,,,,,,,,,,,,,,,,,,,,,,,,
917998,001,2022-11-20_23h58.59.616,Info_measure_main_exp,2022.2.2,Win32,60.08532116,,,,,,,,,,,,,,,,,,masks/mask_004.jpg,,,,,,,,,,,,,,,,,,,,,,,,,,,,,,,,,,,,,,,,,,,0,4,4,3,1,,,,,,,,,,,,,,,,,,,,,,,,,,,,,,,,,,,,,,,,,,,,,,
917998,001,2022-11-20_23h58.59.616,Info_measure_main_exp,2022.2.2,Win32,60.08532116,,,,,,,,,,,,,,,,,,masks/mask_003.jpg,,,,,,,,,,,,,,,,,,,,,,,,,,,,,,,,,,,,,,,,,,,,,,,,0,0,0,2,1,,,,,,,,,,,,,,,,,,,,,,,,,,,,,,,,,,,,,,,,,
917998,001,2022-11-20_23h58.59.616,Info_measure_main_exp,2022.2.2,Win32,60.08532116,,,,,,,,,,,,,,,,,,masks/mask_004.jpg,,,,,,,,,,,,,,,,,,,,,,,,,,,,,,,,,,,,,,,,,,,,,,,,0,1,1,3,1,,,,,,,,,,,,,,,,,,,,,,,,,,,,,,,,,,,,,,,,,
917998,001,2022-11-20_23h58.59.616,Info_measure_main_exp,2022.2.2,Win32,60.08532116,,,,,,,,,,,,,,,,,,masks/mask_002.jpg,,,,,,,,,,,,,,,,,,,,,,,,,,,,,,,,,,,,,,,,,,,,,,,,0,2,2,1,1,,,,,,,,,,,,,,,,,,,,,,,,,,,,,,,,,,,,,,,,,
917998,001,2022-11-20_23h58.59.616,Info_measure_main_exp,2022.2.2,Win32,60.08532116,,,,,,,,,,,,,,,,,,masks/mask_005.jpg,,,,,,,,,,,,,,,,,,,,,,,,,,,,,,,,,,,,,,,,,,,,,,,,0,3,3,4,1,,,,,,,,,,,,,,,,,,,,,,,,,,,,,,,,,,,,,,,,,
917998,001,2022-11-20_23h58.59.616,Info_measure_main_exp,2022.2.2,Win32,60.08532116,,,,,,,,,,,,,,,,,,masks/mask_001.jpg,,,,,,,,,,,,,,,,,,,,,,,,,,,,,,,,,,,,,,,,,,,,,,,,0,4,4,0,1,,,,,,,,,,,,,,,,,,,,,,,,,,,,,,,,,,,,,,,,,
917998,001,2022-11-20_23h58.59.616,Info_measure_main_exp,2022.2.2,Win32,60.08532116,,,,,,,,,,,,,,,,,,,,,,,,,,,,,,6,0.7167,1,,,,,,,,,,,,0,131,5,5,2250,2178,absent_patch/patch0002250.jpg,absent_patch/patch0002178.jpg,,,,,,,,,,,,,,,,,,,,0.05,0.009259259,1,0,0,response1disk,33,0.003703704,0.003703704,1,0,0,center_square,0,32,32,48,1,,,,,,,,,,,,,,,,,,,,,,,
917998,001,2022-11-20_23h58.59.616,Info_measure_main_exp,2022.2.2,Win32,60.08532116,,,,,,,,,,,,,,,,,,masks/mask_002.jpg,,,,,,,,,,,,,,,,,,,,,,,,,,,,,,,,,,,,,,,,,,,0,0,0,1,1,,,,,,,,,,,,,,,,,,,,,,,,,,,,,,,,,,,,,,,,,,,,,,
917998,001,2022-11-20_23h58.59.616,Info_measure_main_exp,2022.2.2,Win32,60.08532116,,,,,,,,,,,,,,,,,,masks/mask_003.jpg,,,,,,,,,,,,,,,,,,,,,,,,,,,,,,,,,,,,,,,,,,,0,1,1,2,1,,,,,,,,,,,,,,,,,,,,,,,,,,,,,,,,,,,,,,,,,,,,,,
917998,001,2022-11-20_23h58.59.616,Info_measure_main_exp,2022.2.2,Win32,60.08532116,,,,,,,,,,,,,,,,,,masks/mask_005.jpg,,,,,,,,,,,,,,,,,,,,,,,,,,,,,,,,,,,,,,,,,,,0,2,2,4,1,,,,,,,,,,,,,,,,,,,,,,,,,,,,,,,,,,,,,,,,,,,,,,
917998,001,2022-11-20_23h58.59.616,Info_measure_main_exp,2022.2.2,Win32,60.08532116,,,,,,,,,,,,,,,,,,masks/mask_004.jpg,,,,,,,,,,,,,,,,,,,,,,,,,,,,,,,,,,,,,,,,,,,0,3,3,3,1,,,,,,,,,,,,,,,,,,,,,,,,,,,,,,,,,,,,,,,,,,,,,,
917998,001,2022-11-20_23h58.59.616,Info_measure_main_exp,2022.2.2,Win32,60.08532116,,,,,,,,,,,,,,,,,,masks/mask_001.jpg,,,,,,,,,,,,,,,,,,,,,,,,,,,,,,,,,,,,,,,,,,,0,4,4,0,1,,,,,,,,,,,,,,,,,,,,,,,,,,,,,,,,,,,,,,,,,,,,,,
917998,001,2022-11-20_23h58.59.616,Info_measure_main_exp,2022.2.2,Win32,60.08532116,,,,,,,,,,,,,,,,,,masks/mask_004.jpg,,,,,,,,,,,,,,,,,,,,,,,,,,,,,,,,,,,,,,,,,,,,,,,,0,0,0,3,1,,,,,,,,,,,,,,,,,,,,,,,,,,,,,,,,,,,,,,,,,
917998,001,2022-11-20_23h58.59.616,Info_measure_main_exp,2022.2.2,Win32,60.08532116,,,,,,,,,,,,,,,,,,masks/mask_001.jpg,,,,,,,,,,,,,,,,,,,,,,,,,,,,,,,,,,,,,,,,,,,,,,,,0,1,1,0,1,,,,,,,,,,,,,,,,,,,,,,,,,,,,,,,,,,,,,,,,,
917998,001,2022-11-20_23h58.59.616,Info_measure_main_exp,2022.2.2,Win32,60.08532116,,,,,,,,,,,,,,,,,,masks/mask_005.jpg,,,,,,,,,,,,,,,,,,,,,,,,,,,,,,,,,,,,,,,,,,,,,,,,0,2,2,4,1,,,,,,,,,,,,,,,,,,,,,,,,,,,,,,,,,,,,,,,,,
917998,001,2022-11-20_23h58.59.616,Info_measure_main_exp,2022.2.2,Win32,60.08532116,,,,,,,,,,,,,,,,,,masks/mask_002.jpg,,,,,,,,,,,,,,,,,,,,,,,,,,,,,,,,,,,,,,,,,,,,,,,,0,3,3,1,1,,,,,,,,,,,,,,,,,,,,,,,,,,,,,,,,,,,,,,,,,
917998,001,2022-11-20_23h58.59.616,Info_measure_main_exp,2022.2.2,Win32,60.08532116,,,,,,,,,,,,,,,,,,masks/mask_003.jpg,,,,,,,,,,,,,,,,,,,,,,,,,,,,,,,,,,,,,,,,,,,,,,,,0,4,4,2,1,,,,,,,,,,,,,,,,,,,,,,,,,,,,,,,,,,,,,,,,,
917998,001,2022-11-20_23h58.59.616,Info_measure_main_exp,2022.2.2,Win32,60.08532116,,,,,,,,,,,,,,,,,,,,,,,,,,,,,,5,0.6001,1,,,,,,,,,,,,0,131,5,5,2190,2238,absent_patch/patch0002190.jpg,absent_patch/patch0002238.jpg,,,,,,,,,,,,,,,,,,,,0.036111111,-0.021296296,1,0,0,response3disk,34,0.003703704,0.003703704,1,0,0,center_square,0,33,33,53,1,,,,,,,,,,,,,,,,,,,,,,,
917998,001,2022-11-20_23h58.59.616,Info_measure_main_exp,2022.2.2,Win32,60.08532116,,,,,,,,,,,,,,,,,,masks/mask_005.jpg,,,,,,,,,,,,,,,,,,,,,,,,,,,,,,,,,,,,,,,,,,,0,0,0,4,1,,,,,,,,,,,,,,,,,,,,,,,,,,,,,,,,,,,,,,,,,,,,,,
917998,001,2022-11-20_23h58.59.616,Info_measure_main_exp,2022.2.2,Win32,60.08532116,,,,,,,,,,,,,,,,,,masks/mask_003.jpg,,,,,,,,,,,,,,,,,,,,,,,,,,,,,,,,,,,,,,,,,,,0,1,1,2,1,,,,,,,,,,,,,,,,,,,,,,,,,,,,,,,,,,,,,,,,,,,,,,
917998,001,2022-11-20_23h58.59.616,Info_measure_main_exp,2022.2.2,Win32,60.08532116,,,,,,,,,,,,,,,,,,masks/mask_004.jpg,,,,,,,,,,,,,,,,,,,,,,,,,,,,,,,,,,,,,,,,,,,0,2,2,3,1,,,,,,,,,,,,,,,,,,,,,,,,,,,,,,,,,,,,,,,,,,,,,,
917998,001,2022-11-20_23h58.59.616,Info_measure_main_exp,2022.2.2,Win32,60.08532116,,,,,,,,,,,,,,,,,,masks/mask_001.jpg,,,,,,,,,,,,,,,,,,,,,,,,,,,,,,,,,,,,,,,,,,,0,3,3,0,1,,,,,,,,,,,,,,,,,,,,,,,,,,,,,,,,,,,,,,,,,,,,,,
917998,001,2022-11-20_23h58.59.616,Info_measure_main_exp,2022.2.2,Win32,60.08532116,,,,,,,,,,,,,,,,,,masks/mask_002.jpg,,,,,,,,,,,,,,,,,,,,,,,,,,,,,,,,,,,,,,,,,,,0,4,4,1,1,,,,,,,,,,,,,,,,,,,,,,,,,,,,,,,,,,,,,,,,,,,,,,
917998,001,2022-11-20_23h58.59.616,Info_measure_main_exp,2022.2.2,Win32,60.08532116,,,,,,,,,,,,,,,,,,masks/mask_003.jpg,,,,,,,,,,,,,,,,,,,,,,,,,,,,,,,,,,,,,,,,,,,,,,,,0,0,0,2,1,,,,,,,,,,,,,,,,,,,,,,,,,,,,,,,,,,,,,,,,,
917998,001,2022-11-20_23h58.59.616,Info_measure_main_exp,2022.2.2,Win32,60.08532116,,,,,,,,,,,,,,,,,,masks/mask_005.jpg,,,,,,,,,,,,,,,,,,,,,,,,,,,,,,,,,,,,,,,,,,,,,,,,0,1,1,4,1,,,,,,,,,,,,,,,,,,,,,,,,,,,,,,,,,,,,,,,,,
917998,001,2022-11-20_23h58.59.616,Info_measure_main_exp,2022.2.2,Win32,60.08532116,,,,,,,,,,,,,,,,,,masks/mask_002.jpg,,,,,,,,,,,,,,,,,,,,,,,,,,,,,,,,,,,,,,,,,,,,,,,,0,2,2,1,1,,,,,,,,,,,,,,,,,,,,,,,,,,,,,,,,,,,,,,,,,
917998,001,2022-11-20_23h58.59.616,Info_measure_main_exp,2022.2.2,Win32,60.08532116,,,,,,,,,,,,,,,,,,masks/mask_001.jpg,,,,,,,,,,,,,,,,,,,,,,,,,,,,,,,,,,,,,,,,,,,,,,,,0,3,3,0,1,,,,,,,,,,,,,,,,,,,,,,,,,,,,,,,,,,,,,,,,,
