participant,session,date,expName,psychopyVersion,OS,frameRate,space_press_continue.keys,space_press_continue.rt,space_press_continue_2.keys,space_press_continue_2.rt,space_press_continue_3.keys,space_press_continue_3.rt,space_press_continue_4.keys,space_press_continue_4.rt,space_press_continue_5.keys,space_press_continue_5.rt,space_press_continue_6.keys,space_press_continue_6.rt,prac_mask_loop_1.thisRepN,prac_mask_loop_1.thisTrialN,prac_mask_loop_1.thisN,prac_mask_loop_1.thisIndex,prac_mask_loop_1.ran,mask_name,prac_mask_loop_2.thisRepN,prac_mask_loop_2.thisTrialN,prac_mask_loop_2.thisN,prac_mask_loop_2.thisIndex,prac_mask_loop_2.ran,mouse_2.x,mouse_2.y,mouse_2.leftButton,mouse_2.midButton,mouse_2.rightButton,mouse_2.clicked_name,similarity,response_time,Pass,mouse_12.x,mouse_12.y,mouse_12.leftButton,mouse_12.midButton,mouse_12.rightButton,mouse_12.clicked_name,prac_loop.thisRepN,prac_loop.thisTrialN,prac_loop.thisN,prac_loop.thisIndex,prac_loop.ran,Pair_type,Image_num,Patch_1_loc,Patch_2_loc,Patch_1_info,Patch_2_info,Patch_1_name,Patch_2_name,mouse_1.x,mouse_1.y,mouse_1.leftButton,mouse_1.midButton,mouse_1.rightButton,mouse_1.time,mouse_1.clicked_name,space_press_continue_7.keys,space_press_continue_7.rt,mask_loop.thisRepN,mask_loop.thisTrialN,mask_loop.thisN,mask_loop.thisIndex,mask_loop.ran,mask_loop_2.thisRepN,mask_loop_2.thisTrialN,mask_loop_2.thisN,mask_loop_2.thisIndex,mask_loop_2.ran,mouse.x,mouse.y,mouse.leftButton,mouse.midButton,mouse.rightButton,mouse.clicked_name,trialNumber,mouse_11.x,mouse_11.y,mouse_11.leftButton,mouse_11.midButton,mouse_11.rightButton,mouse_11.clicked_name,first_pass_loop.thisRepN,first_pass_loop.thisTrialN,first_pass_loop.thisN,first_pass_loop.thisIndex,first_pass_loop.ran,mask_loop_3.thisRepN,mask_loop_3.thisTrialN,mask_loop_3.thisN,mask_loop_3.thisIndex,mask_loop_3.ran,mask_loop_4.thisRepN,mask_loop_4.thisTrialN,mask_loop_4.thisN,mask_loop_4.thisIndex,mask_loop_4.ran,mouse_3.x,mouse_3.y,mouse_3.leftButton,mouse_3.midButton,mouse_3.rightButton,mouse_3.clicked_name,double_pass_loop.thisRepN,double_pass_loop.thisTrialN,double_pass_loop.thisN,double_pass_loop.thisIndex,double_pass_loop.ran,space_exit.keys,space_exit.rt
924006,001,2022-11-20_23h53.29.113,Info_measure_main_exp,2022.2.2,Win32,143.6575205,,,,,,,,,,,,,,,,,,,,,,,,,,,,,,,,,,,,,,,,,,,,,,,,,,,,,,,,,,,,,,,,,,,,,,,,,,,,,,,,,,,,,,,,,,,,,,,,,,,,,,,,,,,,,,,
924006,001,2022-11-20_23h53.29.113,Info_measure_main_exp,2022.2.2,Win32,143.6575205,,,,,,,,,,,,,,,,,,,,,,,,,,,,,,,,,,,,,,,,,,,,,,,,,,,,,,,,,,,,,,,,,,,,,,,,,,,,,,,,,,,,,,,,,,,,,,,,,,,,,,,,,,,,,,,
924006,001,2022-11-20_23h53.29.113,Info_measure_main_exp,2022.2.2,Win32,143.6575205,space,5.8126,,,,,,,,,,,,,,,,,,,,,,,,,,,,,,,,,,,,,,,,,,,,,,,,,,,,,,,,,,,,,,,,,,,,,,,,,,,,,,,,,,,,,,,,,,,,,,,,,,,,,,,,,,,,,
924006,001,2022-11-20_23h53.29.113,Info_measure_main_exp,2022.2.2,Win32,143.6575205,,,space,12.3412,,,,,,,,,,,,,,,,,,,,,,,,,,,,,,,,,,,,,,,,,,,,,,,,,,,,,,,,,,,,,,,,,,,,,,,,,,,,,,,,,,,,,,,,,,,,,,,,,,,,,,,,,,,
924006,001,2022-11-20_23h53.29.113,Info_measure_main_exp,2022.2.2,Win32,143.6575205,,,,,space,10.9379,,,,,,,,,,,,,,,,,,,,,,,,,,,,,,,,,,,,,,,,,,,,,,,,,,,,,,,,,,,,,,,,,,,,,,,,,,,,,,,,,,,,,,,,,,,,,,,,,,,,,,,,,
924006,001,2022-11-20_23h53.29.113,Info_measure_main_exp,2022.2.2,Win32,143.6575205,,,,,,,space,17.8318,,,,,,,,,,,,,,,,,,,,,,,,,,,,,,,,,,,,,,,,,,,,,,,,,,,,,,,,,,,,,,,,,,,,,,,,,,,,,,,,,,,,,,,,,,,,,,,,,,,,,,,
924006,001,2022-11-20_23h53.29.113,Info_measure_main_exp,2022.2.2,Win32,143.6575205,,,,,,,,,space,11.1356,,,,,,,,,,,,,,,,,,,,,,,,,,,,,,,,,,,,,,,,,,,,,,,,,,,,,,,,,,,,,,,,,,,,,,,,,,,,,,,,,,,,,,,,,,,,,,,,,,,,,
924006,001,2022-11-20_23h53.29.113,Info_measure_main_exp,2022.2.2,Win32,143.6575205,,,,,,,,,,,space,4.2958,,,,,,,,,,,,,,,,,,,,,,,,,,,,,,,,,,,,,,,,,,,,,,,,,,,,,,,,,,,,,,,,,,,,,,,,,,,,,,,,,,,,,,,,,,,,,,,,,,,
924006,001,2022-11-20_23h53.29.113,Info_measure_main_exp,2022.2.2,Win32,143.6575205,,,,,,,,,,,,,0,0,0,1,1,masks/mask_002.jpg,,,,,,,,,,,,,,,,,,,,,,,,,,,,,,,,,,,,,,,,,,,,,,,,,,,,,,,,,,,,,,,,,,,,,,,,,,,,,,,,,,,,,,,,,,,,,
924006,001,2022-11-20_23h53.29.113,Info_measure_main_exp,2022.2.2,Win32,143.6575205,,,,,,,,,,,,,0,1,1,2,1,masks/mask_003.jpg,,,,,,,,,,,,,,,,,,,,,,,,,,,,,,,,,,,,,,,,,,,,,,,,,,,,,,,,,,,,,,,,,,,,,,,,,,,,,,,,,,,,,,,,,,,,,
924006,001,2022-11-20_23h53.29.113,Info_measure_main_exp,2022.2.2,Win32,143.6575205,,,,,,,,,,,,,0,2,2,3,1,masks/mask_004.jpg,,,,,,,,,,,,,,,,,,,,,,,,,,,,,,,,,,,,,,,,,,,,,,,,,,,,,,,,,,,,,,,,,,,,,,,,,,,,,,,,,,,,,,,,,,,,,
924006,001,2022-11-20_23h53.29.113,Info_measure_main_exp,2022.2.2,Win32,143.6575205,,,,,,,,,,,,,0,3,3,0,1,masks/mask_001.jpg,,,,,,,,,,,,,,,,,,,,,,,,,,,,,,,,,,,,,,,,,,,,,,,,,,,,,,,,,,,,,,,,,,,,,,,,,,,,,,,,,,,,,,,,,,,,,
924006,001,2022-11-20_23h53.29.113,Info_measure_main_exp,2022.2.2,Win32,143.6575205,,,,,,,,,,,,,0,4,4,4,1,masks/mask_005.jpg,,,,,,,,,,,,,,,,,,,,,,,,,,,,,,,,,,,,,,,,,,,,,,,,,,,,,,,,,,,,,,,,,,,,,,,,,,,,,,,,,,,,,,,,,,,,,
924006,001,2022-11-20_23h53.29.113,Info_measure_main_exp,2022.2.2,Win32,143.6575205,,,,,,,,,,,,,,,,,,masks/mask_001.jpg,0,0,0,0,1,,,,,,,,,,,,,,,,,,,,,,,,,,,,,,,,,,,,,,,,,,,,,,,,,,,,,,,,,,,,,,,,,,,,,,,,,,,,,,,,,,,,,,,,
924006,001,2022-11-20_23h53.29.113,Info_measure_main_exp,2022.2.2,Win32,143.6575205,,,,,,,,,,,,,,,,,,masks/mask_004.jpg,0,1,1,3,1,,,,,,,,,,,,,,,,,,,,,,,,,,,,,,,,,,,,,,,,,,,,,,,,,,,,,,,,,,,,,,,,,,,,,,,,,,,,,,,,,,,,,,,,
924006,001,2022-11-20_23h53.29.113,Info_measure_main_exp,2022.2.2,Win32,143.6575205,,,,,,,,,,,,,,,,,,masks/mask_005.jpg,0,2,2,4,1,,,,,,,,,,,,,,,,,,,,,,,,,,,,,,,,,,,,,,,,,,,,,,,,,,,,,,,,,,,,,,,,,,,,,,,,,,,,,,,,,,,,,,,,
924006,001,2022-11-20_23h53.29.113,Info_measure_main_exp,2022.2.2,Win32,143.6575205,,,,,,,,,,,,,,,,,,masks/mask_003.jpg,0,3,3,2,1,,,,,,,,,,,,,,,,,,,,,,,,,,,,,,,,,,,,,,,,,,,,,,,,,,,,,,,,,,,,,,,,,,,,,,,,,,,,,,,,,,,,,,,,
924006,001,2022-11-20_23h53.29.113,Info_measure_main_exp,2022.2.2,Win32,143.6575205,,,,,,,,,,,,,,,,,,masks/mask_002.jpg,0,4,4,1,1,,,,,,,,,,,,,,,,,,,,,,,,,,,,,,,,,,,,,,,,,,,,,,,,,,,,,,,,,,,,,,,,,,,,,,,,,,,,,,,,,,,,,,,,
924006,001,2022-11-20_23h53.29.113,Info_measure_main_exp,2022.2.2,Win32,143.6575205,,,,,,,,,,,,,,,,,,,,,,,,-0.061111111,0.15,1,0,0,response7disk,0,67.2188,1,-0.000925926,0.002777778,1,0,0,center_square,0,0,0,2,1,0,131,5,5,2526,2526,prac_patch/patch0002526.jpg,prac_patch/patch0002526.jpg,,,,,,,,,,,,,,,,,,,,,,,,,,,,,,,,,,,,,,,,,,,,,,,,,,,,,,,,,,,,
924006,001,2022-11-20_23h53.29.113,Info_measure_main_exp,2022.2.2,Win32,143.6575205,,,,,,,,,,,,,0,0,0,2,1,masks/mask_003.jpg,,,,,,,,,,,,,,,,,,,,,,,,,,,,,,,,,,,,,,,,,,,,,,,,,,,,,,,,,,,,,,,,,,,,,,,,,,,,,,,,,,,,,,,,,,,,,
924006,001,2022-11-20_23h53.29.113,Info_measure_main_exp,2022.2.2,Win32,143.6575205,,,,,,,,,,,,,0,1,1,4,1,masks/mask_005.jpg,,,,,,,,,,,,,,,,,,,,,,,,,,,,,,,,,,,,,,,,,,,,,,,,,,,,,,,,,,,,,,,,,,,,,,,,,,,,,,,,,,,,,,,,,,,,,
924006,001,2022-11-20_23h53.29.113,Info_measure_main_exp,2022.2.2,Win32,143.6575205,,,,,,,,,,,,,0,2,2,3,1,masks/mask_004.jpg,,,,,,,,,,,,,,,,,,,,,,,,,,,,,,,,,,,,,,,,,,,,,,,,,,,,,,,,,,,,,,,,,,,,,,,,,,,,,,,,,,,,,,,,,,,,,
924006,001,2022-11-20_23h53.29.113,Info_measure_main_exp,2022.2.2,Win32,143.6575205,,,,,,,,,,,,,0,3,3,1,1,masks/mask_002.jpg,,,,,,,,,,,,,,,,,,,,,,,,,,,,,,,,,,,,,,,,,,,,,,,,,,,,,,,,,,,,,,,,,,,,,,,,,,,,,,,,,,,,,,,,,,,,,
924006,001,2022-11-20_23h53.29.113,Info_measure_main_exp,2022.2.2,Win32,143.6575205,,,,,,,,,,,,,0,4,4,0,1,masks/mask_001.jpg,,,,,,,,,,,,,,,,,,,,,,,,,,,,,,,,,,,,,,,,,,,,,,,,,,,,,,,,,,,,,,,,,,,,,,,,,,,,,,,,,,,,,,,,,,,,,
924006,001,2022-11-20_23h53.29.113,Info_measure_main_exp,2022.2.2,Win32,143.6575205,,,,,,,,,,,,,,,,,,masks/mask_003.jpg,0,0,0,2,1,,,,,,,,,,,,,,,,,,,,,,,,,,,,,,,,,,,,,,,,,,,,,,,,,,,,,,,,,,,,,,,,,,,,,,,,,,,,,,,,,,,,,,,,
924006,001,2022-11-20_23h53.29.113,Info_measure_main_exp,2022.2.2,Win32,143.6575205,,,,,,,,,,,,,,,,,,masks/mask_001.jpg,0,1,1,0,1,,,,,,,,,,,,,,,,,,,,,,,,,,,,,,,,,,,,,,,,,,,,,,,,,,,,,,,,,,,,,,,,,,,,,,,,,,,,,,,,,,,,,,,,
924006,001,2022-11-20_23h53.29.113,Info_measure_main_exp,2022.2.2,Win32,143.6575205,,,,,,,,,,,,,,,,,,masks/mask_005.jpg,0,2,2,4,1,,,,,,,,,,,,,,,,,,,,,,,,,,,,,,,,,,,,,,,,,,,,,,,,,,,,,,,,,,,,,,,,,,,,,,,,,,,,,,,,,,,,,,,,
924006,001,2022-11-20_23h53.29.113,Info_measure_main_exp,2022.2.2,Win32,143.6575205,,,,,,,,,,,,,,,,,,masks/mask_002.jpg,0,3,3,1,1,,,,,,,,,,,,,,,,,,,,,,,,,,,,,,,,,,,,,,,,,,,,,,,,,,,,,,,,,,,,,,,,,,,,,,,,,,,,,,,,,,,,,,,,
924006,001,2022-11-20_23h53.29.113,Info_measure_main_exp,2022.2.2,Win32,143.6575205,,,,,,,,,,,,,,,,,,masks/mask_004.jpg,0,4,4,3,1,,,,,,,,,,,,,,,,,,,,,,,,,,,,,,,,,,,,,,,,,,,,,,,,,,,,,,,,,,,,,,,,,,,,,,,,,,,,,,,,,,,,,,,,
924006,001,2022-11-20_23h53.29.113,Info_measure_main_exp,2022.2.2,Win32,143.6575205,,,,,,,,,,,,,,,,,,,,,,,,0.09537037,0.150925926,1,0,0,response1disk,7,77.8628,1,-0.001851852,0.003703704,1,0,0,center_square,0,1,1,0,1,0,131,5,5,2370,2406,prac_patch/patch0002370.jpg,prac_patch/patch0002406.jpg,,,,,,,,,,,,,,,,,,,,,,,,,,,,,,,,,,,,,,,,,,,,,,,,,,,,,,,,,,,,
924006,001,2022-11-20_23h53.29.113,Info_measure_main_exp,2022.2.2,Win32,143.6575205,,,,,,,,,,,,,0,0,0,0,1,masks/mask_001.jpg,,,,,,,,,,,,,,,,,,,,,,,,,,,,,,,,,,,,,,,,,,,,,,,,,,,,,,,,,,,,,,,,,,,,,,,,,,,,,,,,,,,,,,,,,,,,,
924006,001,2022-11-20_23h53.29.113,Info_measure_main_exp,2022.2.2,Win32,143.6575205,,,,,,,,,,,,,0,1,1,4,1,masks/mask_005.jpg,,,,,,,,,,,,,,,,,,,,,,,,,,,,,,,,,,,,,,,,,,,,,,,,,,,,,,,,,,,,,,,,,,,,,,,,,,,,,,,,,,,,,,,,,,,,,
924006,001,2022-11-20_23h53.29.113,Info_measure_main_exp,2022.2.2,Win32,143.6575205,,,,,,,,,,,,,0,2,2,2,1,masks/mask_003.jpg,,,,,,,,,,,,,,,,,,,,,,,,,,,,,,,,,,,,,,,,,,,,,,,,,,,,,,,,,,,,,,,,,,,,,,,,,,,,,,,,,,,,,,,,,,,,,
924006,001,2022-11-20_23h53.29.113,Info_measure_main_exp,2022.2.2,Win32,143.6575205,,,,,,,,,,,,,0,3,3,3,1,masks/mask_004.jpg,,,,,,,,,,,,,,,,,,,,,,,,,,,,,,,,,,,,,,,,,,,,,,,,,,,,,,,,,,,,,,,,,,,,,,,,,,,,,,,,,,,,,,,,,,,,,
924006,001,2022-11-20_23h53.29.113,Info_measure_main_exp,2022.2.2,Win32,143.6575205,,,,,,,,,,,,,0,4,4,1,1,masks/mask_002.jpg,,,,,,,,,,,,,,,,,,,,,,,,,,,,,,,,,,,,,,,,,,,,,,,,,,,,,,,,,,,,,,,,,,,,,,,,,,,,,,,,,,,,,,,,,,,,,
924006,001,2022-11-20_23h53.29.113,Info_measure_main_exp,2022.2.2,Win32,143.6575205,,,,,,,,,,,,,,,,,,masks/mask_004.jpg,0,0,0,3,1,,,,,,,,,,,,,,,,,,,,,,,,,,,,,,,,,,,,,,,,,,,,,,,,,,,,,,,,,,,,,,,,,,,,,,,,,,,,,,,,,,,,,,,,
924006,001,2022-11-20_23h53.29.113,Info_measure_main_exp,2022.2.2,Win32,143.6575205,,,,,,,,,,,,,,,,,,masks/mask_002.jpg,0,1,1,1,1,,,,,,,,,,,,,,,,,,,,,,,,,,,,,,,,,,,,,,,,,,,,,,,,,,,,,,,,,,,,,,,,,,,,,,,,,,,,,,,,,,,,,,,,
924006,001,2022-11-20_23h53.29.113,Info_measure_main_exp,2022.2.2,Win32,143.6575205,,,,,,,,,,,,,,,,,,masks/mask_003.jpg,0,2,2,2,1,,,,,,,,,,,,,,,,,,,,,,,,,,,,,,,,,,,,,,,,,,,,,,,,,,,,,,,,,,,,,,,,,,,,,,,,,,,,,,,,,,,,,,,,
924006,001,2022-11-20_23h53.29.113,Info_measure_main_exp,2022.2.2,Win32,143.6575205,,,,,,,,,,,,,,,,,,masks/mask_005.jpg,0,3,3,4,1,,,,,,,,,,,,,,,,,,,,,,,,,,,,,,,,,,,,,,,,,,,,,,,,,,,,,,,,,,,,,,,,,,,,,,,,,,,,,,,,,,,,,,,,
924006,001,2022-11-20_23h53.29.113,Info_measure_main_exp,2022.2.2,Win32,143.6575205,,,,,,,,,,,,,,,,,,masks/mask_001.jpg,0,4,4,0,1,,,,,,,,,,,,,,,,,,,,,,,,,,,,,,,,,,,,,,,,,,,,,,,,,,,,,,,,,,,,,,,,,,,,,,,,,,,,,,,,,,,,,,,,
924006,001,2022-11-20_23h53.29.113,Info_measure_main_exp,2022.2.2,Win32,143.6575205,,,,,,,,,,,,,,,,,,,,,,,,0.007407407,-0.088888889,1,0,0,response3disk,4,88.1306,1,-0.006481481,0.000925926,1,0,0,center_square,0,2,2,1,1,0,131,5,5,2514,2490,prac_patch/patch0002514.jpg,prac_patch/patch0002490.jpg,,,,,,,,,,,,,,,,,,,,,,,,,,,,,,,,,,,,,,,,,,,,,,,,,,,,,,,,,,,,
924006,001,2022-11-20_23h53.29.113,Info_measure_main_exp,2022.2.2,Win32,143.6575205,,,,,,,,,,,,,,,,,,,,,,,,,,,,,,,,,,,,,,,,,,,,,,,,,,,,,,,,,,,space,2.0384,,,,,,,,,,,,,,,,,,,,,,,,,,,,,,,,,,,,,,,,,,,,,,,,,,,
924006,001,2022-11-20_23h53.29.113,Info_measure_main_exp,2022.2.2,Win32,143.6575205,,,,,,,,,,,,,,,,,,masks/mask_005.jpg,,,,,,,,,,,,,,,,,,,,,,,,,,,,,,,,,,,,,,,,,,,0,0,0,4,1,,,,,,,,,,,,,,,,,,,,,,,,,,,,,,,,,,,,,,,,,,,,,,
924006,001,2022-11-20_23h53.29.113,Info_measure_main_exp,2022.2.2,Win32,143.6575205,,,,,,,,,,,,,,,,,,masks/mask_001.jpg,,,,,,,,,,,,,,,,,,,,,,,,,,,,,,,,,,,,,,,,,,,0,1,1,0,1,,,,,,,,,,,,,,,,,,,,,,,,,,,,,,,,,,,,,,,,,,,,,,
924006,001,2022-11-20_23h53.29.113,Info_measure_main_exp,2022.2.2,Win32,143.6575205,,,,,,,,,,,,,,,,,,masks/mask_003.jpg,,,,,,,,,,,,,,,,,,,,,,,,,,,,,,,,,,,,,,,,,,,0,2,2,2,1,,,,,,,,,,,,,,,,,,,,,,,,,,,,,,,,,,,,,,,,,,,,,,
924006,001,2022-11-20_23h53.29.113,Info_measure_main_exp,2022.2.2,Win32,143.6575205,,,,,,,,,,,,,,,,,,masks/mask_002.jpg,,,,,,,,,,,,,,,,,,,,,,,,,,,,,,,,,,,,,,,,,,,0,3,3,1,1,,,,,,,,,,,,,,,,,,,,,,,,,,,,,,,,,,,,,,,,,,,,,,
924006,001,2022-11-20_23h53.29.113,Info_measure_main_exp,2022.2.2,Win32,143.6575205,,,,,,,,,,,,,,,,,,masks/mask_004.jpg,,,,,,,,,,,,,,,,,,,,,,,,,,,,,,,,,,,,,,,,,,,0,4,4,3,1,,,,,,,,,,,,,,,,,,,,,,,,,,,,,,,,,,,,,,,,,,,,,,
924006,001,2022-11-20_23h53.29.113,Info_measure_main_exp,2022.2.2,Win32,143.6575205,,,,,,,,,,,,,,,,,,masks/mask_004.jpg,,,,,,,,,,,,,,,,,,,,,,,,,,,,,,,,,,,,,,,,,,,,,,,,0,0,0,3,1,,,,,,,,,,,,,,,,,,,,,,,,,,,,,,,,,,,,,,,,,
924006,001,2022-11-20_23h53.29.113,Info_measure_main_exp,2022.2.2,Win32,143.6575205,,,,,,,,,,,,,,,,,,masks/mask_002.jpg,,,,,,,,,,,,,,,,,,,,,,,,,,,,,,,,,,,,,,,,,,,,,,,,0,1,1,1,1,,,,,,,,,,,,,,,,,,,,,,,,,,,,,,,,,,,,,,,,,
924006,001,2022-11-20_23h53.29.113,Info_measure_main_exp,2022.2.2,Win32,143.6575205,,,,,,,,,,,,,,,,,,masks/mask_001.jpg,,,,,,,,,,,,,,,,,,,,,,,,,,,,,,,,,,,,,,,,,,,,,,,,0,2,2,0,1,,,,,,,,,,,,,,,,,,,,,,,,,,,,,,,,,,,,,,,,,
924006,001,2022-11-20_23h53.29.113,Info_measure_main_exp,2022.2.2,Win32,143.6575205,,,,,,,,,,,,,,,,,,masks/mask_005.jpg,,,,,,,,,,,,,,,,,,,,,,,,,,,,,,,,,,,,,,,,,,,,,,,,0,3,3,4,1,,,,,,,,,,,,,,,,,,,,,,,,,,,,,,,,,,,,,,,,,
924006,001,2022-11-20_23h53.29.113,Info_measure_main_exp,2022.2.2,Win32,143.6575205,,,,,,,,,,,,,,,,,,masks/mask_003.jpg,,,,,,,,,,,,,,,,,,,,,,,,,,,,,,,,,,,,,,,,,,,,,,,,0,4,4,2,1,,,,,,,,,,,,,,,,,,,,,,,,,,,,,,,,,,,,,,,,,
924006,001,2022-11-20_23h53.29.113,Info_measure_main_exp,2022.2.2,Win32,143.6575205,,,,,,,,,,,,,,,,,,,,,,,,,,,,,,0,3.0722,1,,,,,,,,,,,,0,131,5,5,1950,2298,absent_patch/patch0001950.jpg,absent_patch/patch0002298.jpg,,,,,,,,,,,,,,,,,,,,-0.032407407,0.07962963,1,0,0,response7disk,1,0.000925926,0.002777778,1,0,0,center_square,0,0,0,18,1,,,,,,,,,,,,,,,,,,,,,,,
924006,001,2022-11-20_23h53.29.113,Info_measure_main_exp,2022.2.2,Win32,143.6575205,,,,,,,,,,,,,,,,,,masks/mask_003.jpg,,,,,,,,,,,,,,,,,,,,,,,,,,,,,,,,,,,,,,,,,,,0,0,0,2,1,,,,,,,,,,,,,,,,,,,,,,,,,,,,,,,,,,,,,,,,,,,,,,
924006,001,2022-11-20_23h53.29.113,Info_measure_main_exp,2022.2.2,Win32,143.6575205,,,,,,,,,,,,,,,,,,masks/mask_005.jpg,,,,,,,,,,,,,,,,,,,,,,,,,,,,,,,,,,,,,,,,,,,0,1,1,4,1,,,,,,,,,,,,,,,,,,,,,,,,,,,,,,,,,,,,,,,,,,,,,,
924006,001,2022-11-20_23h53.29.113,Info_measure_main_exp,2022.2.2,Win32,143.6575205,,,,,,,,,,,,,,,,,,masks/mask_001.jpg,,,,,,,,,,,,,,,,,,,,,,,,,,,,,,,,,,,,,,,,,,,0,2,2,0,1,,,,,,,,,,,,,,,,,,,,,,,,,,,,,,,,,,,,,,,,,,,,,,
924006,001,2022-11-20_23h53.29.113,Info_measure_main_exp,2022.2.2,Win32,143.6575205,,,,,,,,,,,,,,,,,,masks/mask_002.jpg,,,,,,,,,,,,,,,,,,,,,,,,,,,,,,,,,,,,,,,,,,,0,3,3,1,1,,,,,,,,,,,,,,,,,,,,,,,,,,,,,,,,,,,,,,,,,,,,,,
924006,001,2022-11-20_23h53.29.113,Info_measure_main_exp,2022.2.2,Win32,143.6575205,,,,,,,,,,,,,,,,,,masks/mask_004.jpg,,,,,,,,,,,,,,,,,,,,,,,,,,,,,,,,,,,,,,,,,,,0,4,4,3,1,,,,,,,,,,,,,,,,,,,,,,,,,,,,,,,,,,,,,,,,,,,,,,
924006,001,2022-11-20_23h53.29.113,Info_measure_main_exp,2022.2.2,Win32,143.6575205,,,,,,,,,,,,,,,,,,masks/mask_004.jpg,,,,,,,,,,,,,,,,,,,,,,,,,,,,,,,,,,,,,,,,,,,,,,,,0,0,0,3,1,,,,,,,,,,,,,,,,,,,,,,,,,,,,,,,,,,,,,,,,,
924006,001,2022-11-20_23h53.29.113,Info_measure_main_exp,2022.2.2,Win32,143.6575205,,,,,,,,,,,,,,,,,,masks/mask_003.jpg,,,,,,,,,,,,,,,,,,,,,,,,,,,,,,,,,,,,,,,,,,,,,,,,0,1,1,2,1,,,,,,,,,,,,,,,,,,,,,,,,,,,,,,,,,,,,,,,,,
924006,001,2022-11-20_23h53.29.113,Info_measure_main_exp,2022.2.2,Win32,143.6575205,,,,,,,,,,,,,,,,,,masks/mask_005.jpg,,,,,,,,,,,,,,,,,,,,,,,,,,,,,,,,,,,,,,,,,,,,,,,,0,2,2,4,1,,,,,,,,,,,,,,,,,,,,,,,,,,,,,,,,,,,,,,,,,
924006,001,2022-11-20_23h53.29.113,Info_measure_main_exp,2022.2.2,Win32,143.6575205,,,,,,,,,,,,,,,,,,masks/mask_001.jpg,,,,,,,,,,,,,,,,,,,,,,,,,,,,,,,,,,,,,,,,,,,,,,,,0,3,3,0,1,,,,,,,,,,,,,,,,,,,,,,,,,,,,,,,,,,,,,,,,,
924006,001,2022-11-20_23h53.29.113,Info_measure_main_exp,2022.2.2,Win32,143.6575205,,,,,,,,,,,,,,,,,,masks/mask_002.jpg,,,,,,,,,,,,,,,,,,,,,,,,,,,,,,,,,,,,,,,,,,,,,,,,0,4,4,1,1,,,,,,,,,,,,,,,,,,,,,,,,,,,,,,,,,,,,,,,,,
924006,001,2022-11-20_23h53.29.113,Info_measure_main_exp,2022.2.2,Win32,143.6575205,,,,,,,,,,,,,,,,,,,,,,,,,,,,,,7,0.9942,1,,,,,,,,,,,,0,131,5,5,2154,2190,absent_patch/patch0002154.jpg,absent_patch/patch0002190.jpg,,,,,,,,,,,,,,,,,,,,0.040740741,0.112962963,1,0,0,response1disk,2,0.009259259,0,1,0,0,center_square,0,1,1,68,1,,,,,,,,,,,,,,,,,,,,,,,
924006,001,2022-11-20_23h53.29.113,Info_measure_main_exp,2022.2.2,Win32,143.6575205,,,,,,,,,,,,,,,,,,masks/mask_003.jpg,,,,,,,,,,,,,,,,,,,,,,,,,,,,,,,,,,,,,,,,,,,0,0,0,2,1,,,,,,,,,,,,,,,,,,,,,,,,,,,,,,,,,,,,,,,,,,,,,,
924006,001,2022-11-20_23h53.29.113,Info_measure_main_exp,2022.2.2,Win32,143.6575205,,,,,,,,,,,,,,,,,,masks/mask_001.jpg,,,,,,,,,,,,,,,,,,,,,,,,,,,,,,,,,,,,,,,,,,,0,1,1,0,1,,,,,,,,,,,,,,,,,,,,,,,,,,,,,,,,,,,,,,,,,,,,,,
924006,001,2022-11-20_23h53.29.113,Info_measure_main_exp,2022.2.2,Win32,143.6575205,,,,,,,,,,,,,,,,,,masks/mask_004.jpg,,,,,,,,,,,,,,,,,,,,,,,,,,,,,,,,,,,,,,,,,,,0,2,2,3,1,,,,,,,,,,,,,,,,,,,,,,,,,,,,,,,,,,,,,,,,,,,,,,
924006,001,2022-11-20_23h53.29.113,Info_measure_main_exp,2022.2.2,Win32,143.6575205,,,,,,,,,,,,,,,,,,masks/mask_002.jpg,,,,,,,,,,,,,,,,,,,,,,,,,,,,,,,,,,,,,,,,,,,0,3,3,1,1,,,,,,,,,,,,,,,,,,,,,,,,,,,,,,,,,,,,,,,,,,,,,,
924006,001,2022-11-20_23h53.29.113,Info_measure_main_exp,2022.2.2,Win32,143.6575205,,,,,,,,,,,,,,,,,,masks/mask_005.jpg,,,,,,,,,,,,,,,,,,,,,,,,,,,,,,,,,,,,,,,,,,,0,4,4,4,1,,,,,,,,,,,,,,,,,,,,,,,,,,,,,,,,,,,,,,,,,,,,,,
924006,001,2022-11-20_23h53.29.113,Info_measure_main_exp,2022.2.2,Win32,143.6575205,,,,,,,,,,,,,,,,,,masks/mask_003.jpg,,,,,,,,,,,,,,,,,,,,,,,,,,,,,,,,,,,,,,,,,,,,,,,,0,0,0,2,1,,,,,,,,,,,,,,,,,,,,,,,,,,,,,,,,,,,,,,,,,
924006,001,2022-11-20_23h53.29.113,Info_measure_main_exp,2022.2.2,Win32,143.6575205,,,,,,,,,,,,,,,,,,masks/mask_002.jpg,,,,,,,,,,,,,,,,,,,,,,,,,,,,,,,,,,,,,,,,,,,,,,,,0,1,1,1,1,,,,,,,,,,,,,,,,,,,,,,,,,,,,,,,,,,,,,,,,,
924006,001,2022-11-20_23h53.29.113,Info_measure_main_exp,2022.2.2,Win32,143.6575205,,,,,,,,,,,,,,,,,,masks/mask_004.jpg,,,,,,,,,,,,,,,,,,,,,,,,,,,,,,,,,,,,,,,,,,,,,,,,0,2,2,3,1,,,,,,,,,,,,,,,,,,,,,,,,,,,,,,,,,,,,,,,,,
924006,001,2022-11-20_23h53.29.113,Info_measure_main_exp,2022.2.2,Win32,143.6575205,,,,,,,,,,,,,,,,,,masks/mask_001.jpg,,,,,,,,,,,,,,,,,,,,,,,,,,,,,,,,,,,,,,,,,,,,,,,,0,3,3,0,1,,,,,,,,,,,,,,,,,,,,,,,,,,,,,,,,,,,,,,,,,
924006,001,2022-11-20_23h53.29.113,Info_measure_main_exp,2022.2.2,Win32,143.6575205,,,,,,,,,,,,,,,,,,masks/mask_005.jpg,,,,,,,,,,,,,,,,,,,,,,,,,,,,,,,,,,,,,,,,,,,,,,,,0,4,4,4,1,,,,,,,,,,,,,,,,,,,,,,,,,,,,,,,,,,,,,,,,,
924006,001,2022-11-20_23h53.29.113,Info_measure_main_exp,2022.2.2,Win32,143.6575205,,,,,,,,,,,,,,,,,,,,,,,,,,,,,,0,1.0985,1,,,,,,,,,,,,1,131,5,5,1,1,present_patch/cong_131_5_a.jpg,present_patch/cong_131_5_a.jpg,,,,,,,,,,,,,,,,,,,,-0.080555556,0.136111111,1,0,0,response7disk,3,0.002777778,0.002777778,1,0,0,center_square,0,2,2,30,1,,,,,,,,,,,,,,,,,,,,,,,
924006,001,2022-11-20_23h53.29.113,Info_measure_main_exp,2022.2.2,Win32,143.6575205,,,,,,,,,,,,,,,,,,masks/mask_005.jpg,,,,,,,,,,,,,,,,,,,,,,,,,,,,,,,,,,,,,,,,,,,0,0,0,4,1,,,,,,,,,,,,,,,,,,,,,,,,,,,,,,,,,,,,,,,,,,,,,,
924006,001,2022-11-20_23h53.29.113,Info_measure_main_exp,2022.2.2,Win32,143.6575205,,,,,,,,,,,,,,,,,,masks/mask_001.jpg,,,,,,,,,,,,,,,,,,,,,,,,,,,,,,,,,,,,,,,,,,,0,1,1,0,1,,,,,,,,,,,,,,,,,,,,,,,,,,,,,,,,,,,,,,,,,,,,,,
924006,001,2022-11-20_23h53.29.113,Info_measure_main_exp,2022.2.2,Win32,143.6575205,,,,,,,,,,,,,,,,,,masks/mask_002.jpg,,,,,,,,,,,,,,,,,,,,,,,,,,,,,,,,,,,,,,,,,,,0,2,2,1,1,,,,,,,,,,,,,,,,,,,,,,,,,,,,,,,,,,,,,,,,,,,,,,
924006,001,2022-11-20_23h53.29.113,Info_measure_main_exp,2022.2.2,Win32,143.6575205,,,,,,,,,,,,,,,,,,masks/mask_004.jpg,,,,,,,,,,,,,,,,,,,,,,,,,,,,,,,,,,,,,,,,,,,0,3,3,3,1,,,,,,,,,,,,,,,,,,,,,,,,,,,,,,,,,,,,,,,,,,,,,,
924006,001,2022-11-20_23h53.29.113,Info_measure_main_exp,2022.2.2,Win32,143.6575205,,,,,,,,,,,,,,,,,,masks/mask_003.jpg,,,,,,,,,,,,,,,,,,,,,,,,,,,,,,,,,,,,,,,,,,,0,4,4,2,1,,,,,,,,,,,,,,,,,,,,,,,,,,,,,,,,,,,,,,,,,,,,,,
924006,001,2022-11-20_23h53.29.113,Info_measure_main_exp,2022.2.2,Win32,143.6575205,,,,,,,,,,,,,,,,,,masks/mask_003.jpg,,,,,,,,,,,,,,,,,,,,,,,,,,,,,,,,,,,,,,,,,,,,,,,,0,0,0,2,1,,,,,,,,,,,,,,,,,,,,,,,,,,,,,,,,,,,,,,,,,
924006,001,2022-11-20_23h53.29.113,Info_measure_main_exp,2022.2.2,Win32,143.6575205,,,,,,,,,,,,,,,,,,masks/mask_004.jpg,,,,,,,,,,,,,,,,,,,,,,,,,,,,,,,,,,,,,,,,,,,,,,,,0,1,1,3,1,,,,,,,,,,,,,,,,,,,,,,,,,,,,,,,,,,,,,,,,,
924006,001,2022-11-20_23h53.29.113,Info_measure_main_exp,2022.2.2,Win32,143.6575205,,,,,,,,,,,,,,,,,,masks/mask_005.jpg,,,,,,,,,,,,,,,,,,,,,,,,,,,,,,,,,,,,,,,,,,,,,,,,0,2,2,4,1,,,,,,,,,,,,,,,,,,,,,,,,,,,,,,,,,,,,,,,,,
924006,001,2022-11-20_23h53.29.113,Info_measure_main_exp,2022.2.2,Win32,143.6575205,,,,,,,,,,,,,,,,,,masks/mask_001.jpg,,,,,,,,,,,,,,,,,,,,,,,,,,,,,,,,,,,,,,,,,,,,,,,,0,3,3,0,1,,,,,,,,,,,,,,,,,,,,,,,,,,,,,,,,,,,,,,,,,
924006,001,2022-11-20_23h53.29.113,Info_measure_main_exp,2022.2.2,Win32,143.6575205,,,,,,,,,,,,,,,,,,masks/mask_002.jpg,,,,,,,,,,,,,,,,,,,,,,,,,,,,,,,,,,,,,,,,,,,,,,,,0,4,4,1,1,,,,,,,,,,,,,,,,,,,,,,,,,,,,,,,,,,,,,,,,,
924006,001,2022-11-20_23h53.29.113,Info_measure_main_exp,2022.2.2,Win32,143.6575205,,,,,,,,,,,,,,,,,,,,,,,,,,,,,,7,2.2802,1,,,,,,,,,,,,0,131,5,5,2178,2154,absent_patch/patch0002178.jpg,absent_patch/patch0002154.jpg,,,,,,,,,,,,,,,,,,,,0.051851852,0.133333333,1,0,0,response1disk,4,0.00462963,0.003703704,1,0,0,center_square,0,3,3,63,1,,,,,,,,,,,,,,,,,,,,,,,
924006,001,2022-11-20_23h53.29.113,Info_measure_main_exp,2022.2.2,Win32,143.6575205,,,,,,,,,,,,,,,,,,masks/mask_004.jpg,,,,,,,,,,,,,,,,,,,,,,,,,,,,,,,,,,,,,,,,,,,0,0,0,3,1,,,,,,,,,,,,,,,,,,,,,,,,,,,,,,,,,,,,,,,,,,,,,,
924006,001,2022-11-20_23h53.29.113,Info_measure_main_exp,2022.2.2,Win32,143.6575205,,,,,,,,,,,,,,,,,,masks/mask_005.jpg,,,,,,,,,,,,,,,,,,,,,,,,,,,,,,,,,,,,,,,,,,,0,1,1,4,1,,,,,,,,,,,,,,,,,,,,,,,,,,,,,,,,,,,,,,,,,,,,,,
924006,001,2022-11-20_23h53.29.113,Info_measure_main_exp,2022.2.2,Win32,143.6575205,,,,,,,,,,,,,,,,,,masks/mask_001.jpg,,,,,,,,,,,,,,,,,,,,,,,,,,,,,,,,,,,,,,,,,,,0,2,2,0,1,,,,,,,,,,,,,,,,,,,,,,,,,,,,,,,,,,,,,,,,,,,,,,
924006,001,2022-11-20_23h53.29.113,Info_measure_main_exp,2022.2.2,Win32,143.6575205,,,,,,,,,,,,,,,,,,masks/mask_003.jpg,,,,,,,,,,,,,,,,,,,,,,,,,,,,,,,,,,,,,,,,,,,0,3,3,2,1,,,,,,,,,,,,,,,,,,,,,,,,,,,,,,,,,,,,,,,,,,,,,,
924006,001,2022-11-20_23h53.29.113,Info_measure_main_exp,2022.2.2,Win32,143.6575205,,,,,,,,,,,,,,,,,,masks/mask_002.jpg,,,,,,,,,,,,,,,,,,,,,,,,,,,,,,,,,,,,,,,,,,,0,4,4,1,1,,,,,,,,,,,,,,,,,,,,,,,,,,,,,,,,,,,,,,,,,,,,,,
924006,001,2022-11-20_23h53.29.113,Info_measure_main_exp,2022.2.2,Win32,143.6575205,,,,,,,,,,,,,,,,,,masks/mask_004.jpg,,,,,,,,,,,,,,,,,,,,,,,,,,,,,,,,,,,,,,,,,,,,,,,,0,0,0,3,1,,,,,,,,,,,,,,,,,,,,,,,,,,,,,,,,,,,,,,,,,
924006,001,2022-11-20_23h53.29.113,Info_measure_main_exp,2022.2.2,Win32,143.6575205,,,,,,,,,,,,,,,,,,masks/mask_003.jpg,,,,,,,,,,,,,,,,,,,,,,,,,,,,,,,,,,,,,,,,,,,,,,,,0,1,1,2,1,,,,,,,,,,,,,,,,,,,,,,,,,,,,,,,,,,,,,,,,,
924006,001,2022-11-20_23h53.29.113,Info_measure_main_exp,2022.2.2,Win32,143.6575205,,,,,,,,,,,,,,,,,,masks/mask_005.jpg,,,,,,,,,,,,,,,,,,,,,,,,,,,,,,,,,,,,,,,,,,,,,,,,0,2,2,4,1,,,,,,,,,,,,,,,,,,,,,,,,,,,,,,,,,,,,,,,,,
924006,001,2022-11-20_23h53.29.113,Info_measure_main_exp,2022.2.2,Win32,143.6575205,,,,,,,,,,,,,,,,,,masks/mask_001.jpg,,,,,,,,,,,,,,,,,,,,,,,,,,,,,,,,,,,,,,,,,,,,,,,,0,3,3,0,1,,,,,,,,,,,,,,,,,,,,,,,,,,,,,,,,,,,,,,,,,
924006,001,2022-11-20_23h53.29.113,Info_measure_main_exp,2022.2.2,Win32,143.6575205,,,,,,,,,,,,,,,,,,masks/mask_002.jpg,,,,,,,,,,,,,,,,,,,,,,,,,,,,,,,,,,,,,,,,,,,,,,,,0,4,4,1,1,,,,,,,,,,,,,,,,,,,,,,,,,,,,,,,,,,,,,,,,,
924006,001,2022-11-20_23h53.29.113,Info_measure_main_exp,2022.2.2,Win32,143.6575205,,,,,,,,,,,,,,,,,,,,,,,,,,,,,,7,2.2176,1,,,,,,,,,,,,0,131,5,5,2154,1974,absent_patch/patch0002154.jpg,absent_patch/patch0001974.jpg,,,,,,,,,,,,,,,,,,,,0.053703704,0.113888889,1,0,0,response1disk,5,0.006481481,-0.005555556,1,0,0,center_square,0,4,4,82,1,,,,,,,,,,,,,,,,,,,,,,,
924006,001,2022-11-20_23h53.29.113,Info_measure_main_exp,2022.2.2,Win32,143.6575205,,,,,,,,,,,,,,,,,,masks/mask_003.jpg,,,,,,,,,,,,,,,,,,,,,,,,,,,,,,,,,,,,,,,,,,,0,0,0,2,1,,,,,,,,,,,,,,,,,,,,,,,,,,,,,,,,,,,,,,,,,,,,,,
924006,001,2022-11-20_23h53.29.113,Info_measure_main_exp,2022.2.2,Win32,143.6575205,,,,,,,,,,,,,,,,,,masks/mask_004.jpg,,,,,,,,,,,,,,,,,,,,,,,,,,,,,,,,,,,,,,,,,,,0,1,1,3,1,,,,,,,,,,,,,,,,,,,,,,,,,,,,,,,,,,,,,,,,,,,,,,
924006,001,2022-11-20_23h53.29.113,Info_measure_main_exp,2022.2.2,Win32,143.6575205,,,,,,,,,,,,,,,,,,masks/mask_005.jpg,,,,,,,,,,,,,,,,,,,,,,,,,,,,,,,,,,,,,,,,,,,0,2,2,4,1,,,,,,,,,,,,,,,,,,,,,,,,,,,,,,,,,,,,,,,,,,,,,,
924006,001,2022-11-20_23h53.29.113,Info_measure_main_exp,2022.2.2,Win32,143.6575205,,,,,,,,,,,,,,,,,,masks/mask_001.jpg,,,,,,,,,,,,,,,,,,,,,,,,,,,,,,,,,,,,,,,,,,,0,3,3,0,1,,,,,,,,,,,,,,,,,,,,,,,,,,,,,,,,,,,,,,,,,,,,,,
924006,001,2022-11-20_23h53.29.113,Info_measure_main_exp,2022.2.2,Win32,143.6575205,,,,,,,,,,,,,,,,,,masks/mask_002.jpg,,,,,,,,,,,,,,,,,,,,,,,,,,,,,,,,,,,,,,,,,,,0,4,4,1,1,,,,,,,,,,,,,,,,,,,,,,,,,,,,,,,,,,,,,,,,,,,,,,
924006,001,2022-11-20_23h53.29.113,Info_measure_main_exp,2022.2.2,Win32,143.6575205,,,,,,,,,,,,,,,,,,masks/mask_005.jpg,,,,,,,,,,,,,,,,,,,,,,,,,,,,,,,,,,,,,,,,,,,,,,,,0,0,0,4,1,,,,,,,,,,,,,,,,,,,,,,,,,,,,,,,,,,,,,,,,,
924006,001,2022-11-20_23h53.29.113,Info_measure_main_exp,2022.2.2,Win32,143.6575205,,,,,,,,,,,,,,,,,,masks/mask_002.jpg,,,,,,,,,,,,,,,,,,,,,,,,,,,,,,,,,,,,,,,,,,,,,,,,0,1,1,1,1,,,,,,,,,,,,,,,,,,,,,,,,,,,,,,,,,,,,,,,,,
924006,001,2022-11-20_23h53.29.113,Info_measure_main_exp,2022.2.2,Win32,143.6575205,,,,,,,,,,,,,,,,,,masks/mask_003.jpg,,,,,,,,,,,,,,,,,,,,,,,,,,,,,,,,,,,,,,,,,,,,,,,,0,2,2,2,1,,,,,,,,,,,,,,,,,,,,,,,,,,,,,,,,,,,,,,,,,
924006,001,2022-11-20_23h53.29.113,Info_measure_main_exp,2022.2.2,Win32,143.6575205,,,,,,,,,,,,,,,,,,masks/mask_001.jpg,,,,,,,,,,,,,,,,,,,,,,,,,,,,,,,,,,,,,,,,,,,,,,,,0,3,3,0,1,,,,,,,,,,,,,,,,,,,,,,,,,,,,,,,,,,,,,,,,,
924006,001,2022-11-20_23h53.29.113,Info_measure_main_exp,2022.2.2,Win32,143.6575205,,,,,,,,,,,,,,,,,,masks/mask_004.jpg,,,,,,,,,,,,,,,,,,,,,,,,,,,,,,,,,,,,,,,,,,,,,,,,0,4,4,3,1,,,,,,,,,,,,,,,,,,,,,,,,,,,,,,,,,,,,,,,,,
924006,001,2022-11-20_23h53.29.113,Info_measure_main_exp,2022.2.2,Win32,143.6575205,,,,,,,,,,,,,,,,,,,,,,,,,,,,,,6,1.3002,1,,,,,,,,,,,,1,131,5,5,1,2142,present_patch/cong_131_5_a.jpg,absent_patch/patch0002142.jpg,,,,,,,,,,,,,,,,,,,,0.15,0.018518519,1,0,0,response1disk,6,-0.007407407,-0.006481481,1,0,0,center_square,0,5,5,80,1,,,,,,,,,,,,,,,,,,,,,,,
924006,001,2022-11-20_23h53.29.113,Info_measure_main_exp,2022.2.2,Win32,143.6575205,,,,,,,,,,,,,,,,,,masks/mask_005.jpg,,,,,,,,,,,,,,,,,,,,,,,,,,,,,,,,,,,,,,,,,,,0,0,0,4,1,,,,,,,,,,,,,,,,,,,,,,,,,,,,,,,,,,,,,,,,,,,,,,
924006,001,2022-11-20_23h53.29.113,Info_measure_main_exp,2022.2.2,Win32,143.6575205,,,,,,,,,,,,,,,,,,masks/mask_003.jpg,,,,,,,,,,,,,,,,,,,,,,,,,,,,,,,,,,,,,,,,,,,0,1,1,2,1,,,,,,,,,,,,,,,,,,,,,,,,,,,,,,,,,,,,,,,,,,,,,,
924006,001,2022-11-20_23h53.29.113,Info_measure_main_exp,2022.2.2,Win32,143.6575205,,,,,,,,,,,,,,,,,,masks/mask_004.jpg,,,,,,,,,,,,,,,,,,,,,,,,,,,,,,,,,,,,,,,,,,,0,2,2,3,1,,,,,,,,,,,,,,,,,,,,,,,,,,,,,,,,,,,,,,,,,,,,,,
924006,001,2022-11-20_23h53.29.113,Info_measure_main_exp,2022.2.2,Win32,143.6575205,,,,,,,,,,,,,,,,,,masks/mask_002.jpg,,,,,,,,,,,,,,,,,,,,,,,,,,,,,,,,,,,,,,,,,,,0,3,3,1,1,,,,,,,,,,,,,,,,,,,,,,,,,,,,,,,,,,,,,,,,,,,,,,
924006,001,2022-11-20_23h53.29.113,Info_measure_main_exp,2022.2.2,Win32,143.6575205,,,,,,,,,,,,,,,,,,masks/mask_001.jpg,,,,,,,,,,,,,,,,,,,,,,,,,,,,,,,,,,,,,,,,,,,0,4,4,0,1,,,,,,,,,,,,,,,,,,,,,,,,,,,,,,,,,,,,,,,,,,,,,,
924006,001,2022-11-20_23h53.29.113,Info_measure_main_exp,2022.2.2,Win32,143.6575205,,,,,,,,,,,,,,,,,,masks/mask_003.jpg,,,,,,,,,,,,,,,,,,,,,,,,,,,,,,,,,,,,,,,,,,,,,,,,0,0,0,2,1,,,,,,,,,,,,,,,,,,,,,,,,,,,,,,,,,,,,,,,,,
924006,001,2022-11-20_23h53.29.113,Info_measure_main_exp,2022.2.2,Win32,143.6575205,,,,,,,,,,,,,,,,,,masks/mask_005.jpg,,,,,,,,,,,,,,,,,,,,,,,,,,,,,,,,,,,,,,,,,,,,,,,,0,1,1,4,1,,,,,,,,,,,,,,,,,,,,,,,,,,,,,,,,,,,,,,,,,
924006,001,2022-11-20_23h53.29.113,Info_measure_main_exp,2022.2.2,Win32,143.6575205,,,,,,,,,,,,,,,,,,masks/mask_001.jpg,,,,,,,,,,,,,,,,,,,,,,,,,,,,,,,,,,,,,,,,,,,,,,,,0,2,2,0,1,,,,,,,,,,,,,,,,,,,,,,,,,,,,,,,,,,,,,,,,,
924006,001,2022-11-20_23h53.29.113,Info_measure_main_exp,2022.2.2,Win32,143.6575205,,,,,,,,,,,,,,,,,,masks/mask_004.jpg,,,,,,,,,,,,,,,,,,,,,,,,,,,,,,,,,,,,,,,,,,,,,,,,0,3,3,3,1,,,,,,,,,,,,,,,,,,,,,,,,,,,,,,,,,,,,,,,,,
924006,001,2022-11-20_23h53.29.113,Info_measure_main_exp,2022.2.2,Win32,143.6575205,,,,,,,,,,,,,,,,,,masks/mask_002.jpg,,,,,,,,,,,,,,,,,,,,,,,,,,,,,,,,,,,,,,,,,,,,,,,,0,4,4,1,1,,,,,,,,,,,,,,,,,,,,,,,,,,,,,,,,,,,,,,,,,
924006,001,2022-11-20_23h53.29.113,Info_measure_main_exp,2022.2.2,Win32,143.6575205,,,,,,,,,,,,,,,,,,,,,,,,,,,,,,5,1.2653,1,,,,,,,,,,,,0,131,5,5,2214,2166,absent_patch/patch0002214.jpg,absent_patch/patch0002166.jpg,,,,,,,,,,,,,,,,,,,,0.128703704,-0.02962963,1,0,0,response3disk,7,0.009259259,0.00462963,1,0,0,center_square,0,6,6,109,1,,,,,,,,,,,,,,,,,,,,,,,
924006,001,2022-11-20_23h53.29.113,Info_measure_main_exp,2022.2.2,Win32,143.6575205,,,,,,,,,,,,,,,,,,masks/mask_002.jpg,,,,,,,,,,,,,,,,,,,,,,,,,,,,,,,,,,,,,,,,,,,0,0,0,1,1,,,,,,,,,,,,,,,,,,,,,,,,,,,,,,,,,,,,,,,,,,,,,,
924006,001,2022-11-20_23h53.29.113,Info_measure_main_exp,2022.2.2,Win32,143.6575205,,,,,,,,,,,,,,,,,,masks/mask_003.jpg,,,,,,,,,,,,,,,,,,,,,,,,,,,,,,,,,,,,,,,,,,,0,1,1,2,1,,,,,,,,,,,,,,,,,,,,,,,,,,,,,,,,,,,,,,,,,,,,,,
924006,001,2022-11-20_23h53.29.113,Info_measure_main_exp,2022.2.2,Win32,143.6575205,,,,,,,,,,,,,,,,,,masks/mask_004.jpg,,,,,,,,,,,,,,,,,,,,,,,,,,,,,,,,,,,,,,,,,,,0,2,2,3,1,,,,,,,,,,,,,,,,,,,,,,,,,,,,,,,,,,,,,,,,,,,,,,
924006,001,2022-11-20_23h53.29.113,Info_measure_main_exp,2022.2.2,Win32,143.6575205,,,,,,,,,,,,,,,,,,masks/mask_001.jpg,,,,,,,,,,,,,,,,,,,,,,,,,,,,,,,,,,,,,,,,,,,0,3,3,0,1,,,,,,,,,,,,,,,,,,,,,,,,,,,,,,,,,,,,,,,,,,,,,,
924006,001,2022-11-20_23h53.29.113,Info_measure_main_exp,2022.2.2,Win32,143.6575205,,,,,,,,,,,,,,,,,,masks/mask_005.jpg,,,,,,,,,,,,,,,,,,,,,,,,,,,,,,,,,,,,,,,,,,,0,4,4,4,1,,,,,,,,,,,,,,,,,,,,,,,,,,,,,,,,,,,,,,,,,,,,,,
924006,001,2022-11-20_23h53.29.113,Info_measure_main_exp,2022.2.2,Win32,143.6575205,,,,,,,,,,,,,,,,,,masks/mask_001.jpg,,,,,,,,,,,,,,,,,,,,,,,,,,,,,,,,,,,,,,,,,,,,,,,,0,0,0,0,1,,,,,,,,,,,,,,,,,,,,,,,,,,,,,,,,,,,,,,,,,
924006,001,2022-11-20_23h53.29.113,Info_measure_main_exp,2022.2.2,Win32,143.6575205,,,,,,,,,,,,,,,,,,masks/mask_002.jpg,,,,,,,,,,,,,,,,,,,,,,,,,,,,,,,,,,,,,,,,,,,,,,,,0,1,1,1,1,,,,,,,,,,,,,,,,,,,,,,,,,,,,,,,,,,,,,,,,,
924006,001,2022-11-20_23h53.29.113,Info_measure_main_exp,2022.2.2,Win32,143.6575205,,,,,,,,,,,,,,,,,,masks/mask_004.jpg,,,,,,,,,,,,,,,,,,,,,,,,,,,,,,,,,,,,,,,,,,,,,,,,0,2,2,3,1,,,,,,,,,,,,,,,,,,,,,,,,,,,,,,,,,,,,,,,,,
924006,001,2022-11-20_23h53.29.113,Info_measure_main_exp,2022.2.2,Win32,143.6575205,,,,,,,,,,,,,,,,,,masks/mask_003.jpg,,,,,,,,,,,,,,,,,,,,,,,,,,,,,,,,,,,,,,,,,,,,,,,,0,3,3,2,1,,,,,,,,,,,,,,,,,,,,,,,,,,,,,,,,,,,,,,,,,
924006,001,2022-11-20_23h53.29.113,Info_measure_main_exp,2022.2.2,Win32,143.6575205,,,,,,,,,,,,,,,,,,masks/mask_005.jpg,,,,,,,,,,,,,,,,,,,,,,,,,,,,,,,,,,,,,,,,,,,,,,,,0,4,4,4,1,,,,,,,,,,,,,,,,,,,,,,,,,,,,,,,,,,,,,,,,,
924006,001,2022-11-20_23h53.29.113,Info_measure_main_exp,2022.2.2,Win32,143.6575205,,,,,,,,,,,,,,,,,,,,,,,,,,,,,,3,2.6417,1,,,,,,,,,,,,0,131,5,5,2166,2154,absent_patch/patch0002166.jpg,absent_patch/patch0002154.jpg,,,,,,,,,,,,,,,,,,,,-0.080555556,-0.119444444,1,0,0,response5disk,8,0.000925926,-0.000925926,1,0,0,center_square,0,7,7,79,1,,,,,,,,,,,,,,,,,,,,,,,
924006,001,2022-11-20_23h53.29.113,Info_measure_main_exp,2022.2.2,Win32,143.6575205,,,,,,,,,,,,,,,,,,masks/mask_005.jpg,,,,,,,,,,,,,,,,,,,,,,,,,,,,,,,,,,,,,,,,,,,0,0,0,4,1,,,,,,,,,,,,,,,,,,,,,,,,,,,,,,,,,,,,,,,,,,,,,,
924006,001,2022-11-20_23h53.29.113,Info_measure_main_exp,2022.2.2,Win32,143.6575205,,,,,,,,,,,,,,,,,,masks/mask_002.jpg,,,,,,,,,,,,,,,,,,,,,,,,,,,,,,,,,,,,,,,,,,,0,1,1,1,1,,,,,,,,,,,,,,,,,,,,,,,,,,,,,,,,,,,,,,,,,,,,,,
924006,001,2022-11-20_23h53.29.113,Info_measure_main_exp,2022.2.2,Win32,143.6575205,,,,,,,,,,,,,,,,,,masks/mask_003.jpg,,,,,,,,,,,,,,,,,,,,,,,,,,,,,,,,,,,,,,,,,,,0,2,2,2,1,,,,,,,,,,,,,,,,,,,,,,,,,,,,,,,,,,,,,,,,,,,,,,
924006,001,2022-11-20_23h53.29.113,Info_measure_main_exp,2022.2.2,Win32,143.6575205,,,,,,,,,,,,,,,,,,masks/mask_001.jpg,,,,,,,,,,,,,,,,,,,,,,,,,,,,,,,,,,,,,,,,,,,0,3,3,0,1,,,,,,,,,,,,,,,,,,,,,,,,,,,,,,,,,,,,,,,,,,,,,,
924006,001,2022-11-20_23h53.29.113,Info_measure_main_exp,2022.2.2,Win32,143.6575205,,,,,,,,,,,,,,,,,,masks/mask_004.jpg,,,,,,,,,,,,,,,,,,,,,,,,,,,,,,,,,,,,,,,,,,,0,4,4,3,1,,,,,,,,,,,,,,,,,,,,,,,,,,,,,,,,,,,,,,,,,,,,,,
924006,001,2022-11-20_23h53.29.113,Info_measure_main_exp,2022.2.2,Win32,143.6575205,,,,,,,,,,,,,,,,,,masks/mask_004.jpg,,,,,,,,,,,,,,,,,,,,,,,,,,,,,,,,,,,,,,,,,,,,,,,,0,0,0,3,1,,,,,,,,,,,,,,,,,,,,,,,,,,,,,,,,,,,,,,,,,
924006,001,2022-11-20_23h53.29.113,Info_measure_main_exp,2022.2.2,Win32,143.6575205,,,,,,,,,,,,,,,,,,masks/mask_002.jpg,,,,,,,,,,,,,,,,,,,,,,,,,,,,,,,,,,,,,,,,,,,,,,,,0,1,1,1,1,,,,,,,,,,,,,,,,,,,,,,,,,,,,,,,,,,,,,,,,,
924006,001,2022-11-20_23h53.29.113,Info_measure_main_exp,2022.2.2,Win32,143.6575205,,,,,,,,,,,,,,,,,,masks/mask_001.jpg,,,,,,,,,,,,,,,,,,,,,,,,,,,,,,,,,,,,,,,,,,,,,,,,0,2,2,0,1,,,,,,,,,,,,,,,,,,,,,,,,,,,,,,,,,,,,,,,,,
924006,001,2022-11-20_23h53.29.113,Info_measure_main_exp,2022.2.2,Win32,143.6575205,,,,,,,,,,,,,,,,,,masks/mask_003.jpg,,,,,,,,,,,,,,,,,,,,,,,,,,,,,,,,,,,,,,,,,,,,,,,,0,3,3,2,1,,,,,,,,,,,,,,,,,,,,,,,,,,,,,,,,,,,,,,,,,
924006,001,2022-11-20_23h53.29.113,Info_measure_main_exp,2022.2.2,Win32,143.6575205,,,,,,,,,,,,,,,,,,masks/mask_005.jpg,,,,,,,,,,,,,,,,,,,,,,,,,,,,,,,,,,,,,,,,,,,,,,,,0,4,4,4,1,,,,,,,,,,,,,,,,,,,,,,,,,,,,,,,,,,,,,,,,,
924006,001,2022-11-20_23h53.29.113,Info_measure_main_exp,2022.2.2,Win32,143.6575205,,,,,,,,,,,,,,,,,,,,,,,,,,,,,,7,1.3486,1,,,,,,,,,,,,0,131,5,5,2274,1950,absent_patch/patch0002274.jpg,absent_patch/patch0001950.jpg,,,,,,,,,,,,,,,,,,,,0.062037037,0.133333333,1,0,0,response1disk,9,0.00462963,-0.003703704,1,0,0,center_square,0,8,8,10,1,,,,,,,,,,,,,,,,,,,,,,,
924006,001,2022-11-20_23h53.29.113,Info_measure_main_exp,2022.2.2,Win32,143.6575205,,,,,,,,,,,,,,,,,,masks/mask_004.jpg,,,,,,,,,,,,,,,,,,,,,,,,,,,,,,,,,,,,,,,,,,,0,0,0,3,1,,,,,,,,,,,,,,,,,,,,,,,,,,,,,,,,,,,,,,,,,,,,,,
924006,001,2022-11-20_23h53.29.113,Info_measure_main_exp,2022.2.2,Win32,143.6575205,,,,,,,,,,,,,,,,,,masks/mask_005.jpg,,,,,,,,,,,,,,,,,,,,,,,,,,,,,,,,,,,,,,,,,,,0,1,1,4,1,,,,,,,,,,,,,,,,,,,,,,,,,,,,,,,,,,,,,,,,,,,,,,
924006,001,2022-11-20_23h53.29.113,Info_measure_main_exp,2022.2.2,Win32,143.6575205,,,,,,,,,,,,,,,,,,masks/mask_002.jpg,,,,,,,,,,,,,,,,,,,,,,,,,,,,,,,,,,,,,,,,,,,0,2,2,1,1,,,,,,,,,,,,,,,,,,,,,,,,,,,,,,,,,,,,,,,,,,,,,,
924006,001,2022-11-20_23h53.29.113,Info_measure_main_exp,2022.2.2,Win32,143.6575205,,,,,,,,,,,,,,,,,,masks/mask_003.jpg,,,,,,,,,,,,,,,,,,,,,,,,,,,,,,,,,,,,,,,,,,,0,3,3,2,1,,,,,,,,,,,,,,,,,,,,,,,,,,,,,,,,,,,,,,,,,,,,,,
924006,001,2022-11-20_23h53.29.113,Info_measure_main_exp,2022.2.2,Win32,143.6575205,,,,,,,,,,,,,,,,,,masks/mask_001.jpg,,,,,,,,,,,,,,,,,,,,,,,,,,,,,,,,,,,,,,,,,,,0,4,4,0,1,,,,,,,,,,,,,,,,,,,,,,,,,,,,,,,,,,,,,,,,,,,,,,
924006,001,2022-11-20_23h53.29.113,Info_measure_main_exp,2022.2.2,Win32,143.6575205,,,,,,,,,,,,,,,,,,masks/mask_004.jpg,,,,,,,,,,,,,,,,,,,,,,,,,,,,,,,,,,,,,,,,,,,,,,,,0,0,0,3,1,,,,,,,,,,,,,,,,,,,,,,,,,,,,,,,,,,,,,,,,,
924006,001,2022-11-20_23h53.29.113,Info_measure_main_exp,2022.2.2,Win32,143.6575205,,,,,,,,,,,,,,,,,,masks/mask_002.jpg,,,,,,,,,,,,,,,,,,,,,,,,,,,,,,,,,,,,,,,,,,,,,,,,0,1,1,1,1,,,,,,,,,,,,,,,,,,,,,,,,,,,,,,,,,,,,,,,,,
924006,001,2022-11-20_23h53.29.113,Info_measure_main_exp,2022.2.2,Win32,143.6575205,,,,,,,,,,,,,,,,,,masks/mask_005.jpg,,,,,,,,,,,,,,,,,,,,,,,,,,,,,,,,,,,,,,,,,,,,,,,,0,2,2,4,1,,,,,,,,,,,,,,,,,,,,,,,,,,,,,,,,,,,,,,,,,
924006,001,2022-11-20_23h53.29.113,Info_measure_main_exp,2022.2.2,Win32,143.6575205,,,,,,,,,,,,,,,,,,masks/mask_003.jpg,,,,,,,,,,,,,,,,,,,,,,,,,,,,,,,,,,,,,,,,,,,,,,,,0,3,3,2,1,,,,,,,,,,,,,,,,,,,,,,,,,,,,,,,,,,,,,,,,,
924006,001,2022-11-20_23h53.29.113,Info_measure_main_exp,2022.2.2,Win32,143.6575205,,,,,,,,,,,,,,,,,,masks/mask_001.jpg,,,,,,,,,,,,,,,,,,,,,,,,,,,,,,,,,,,,,,,,,,,,,,,,0,4,4,0,1,,,,,,,,,,,,,,,,,,,,,,,,,,,,,,,,,,,,,,,,,
924006,001,2022-11-20_23h53.29.113,Info_measure_main_exp,2022.2.2,Win32,143.6575205,,,,,,,,,,,,,,,,,,,,,,,,,,,,,,7,0.7925,1,,,,,,,,,,,,0,131,5,5,1950,2238,absent_patch/patch0001950.jpg,absent_patch/patch0002238.jpg,,,,,,,,,,,,,,,,,,,,0.012037037,0.087962963,1,0,0,response1disk,10,0.009259259,-0.003703704,1,0,0,center_square,0,9,9,8,1,,,,,,,,,,,,,,,,,,,,,,,
924006,001,2022-11-20_23h53.29.113,Info_measure_main_exp,2022.2.2,Win32,143.6575205,,,,,,,,,,,,,,,,,,masks/mask_005.jpg,,,,,,,,,,,,,,,,,,,,,,,,,,,,,,,,,,,,,,,,,,,0,0,0,4,1,,,,,,,,,,,,,,,,,,,,,,,,,,,,,,,,,,,,,,,,,,,,,,
924006,001,2022-11-20_23h53.29.113,Info_measure_main_exp,2022.2.2,Win32,143.6575205,,,,,,,,,,,,,,,,,,masks/mask_004.jpg,,,,,,,,,,,,,,,,,,,,,,,,,,,,,,,,,,,,,,,,,,,0,1,1,3,1,,,,,,,,,,,,,,,,,,,,,,,,,,,,,,,,,,,,,,,,,,,,,,
924006,001,2022-11-20_23h53.29.113,Info_measure_main_exp,2022.2.2,Win32,143.6575205,,,,,,,,,,,,,,,,,,masks/mask_001.jpg,,,,,,,,,,,,,,,,,,,,,,,,,,,,,,,,,,,,,,,,,,,0,2,2,0,1,,,,,,,,,,,,,,,,,,,,,,,,,,,,,,,,,,,,,,,,,,,,,,
924006,001,2022-11-20_23h53.29.113,Info_measure_main_exp,2022.2.2,Win32,143.6575205,,,,,,,,,,,,,,,,,,masks/mask_002.jpg,,,,,,,,,,,,,,,,,,,,,,,,,,,,,,,,,,,,,,,,,,,0,3,3,1,1,,,,,,,,,,,,,,,,,,,,,,,,,,,,,,,,,,,,,,,,,,,,,,
924006,001,2022-11-20_23h53.29.113,Info_measure_main_exp,2022.2.2,Win32,143.6575205,,,,,,,,,,,,,,,,,,masks/mask_003.jpg,,,,,,,,,,,,,,,,,,,,,,,,,,,,,,,,,,,,,,,,,,,0,4,4,2,1,,,,,,,,,,,,,,,,,,,,,,,,,,,,,,,,,,,,,,,,,,,,,,
924006,001,2022-11-20_23h53.29.113,Info_measure_main_exp,2022.2.2,Win32,143.6575205,,,,,,,,,,,,,,,,,,masks/mask_002.jpg,,,,,,,,,,,,,,,,,,,,,,,,,,,,,,,,,,,,,,,,,,,,,,,,0,0,0,1,1,,,,,,,,,,,,,,,,,,,,,,,,,,,,,,,,,,,,,,,,,
924006,001,2022-11-20_23h53.29.113,Info_measure_main_exp,2022.2.2,Win32,143.6575205,,,,,,,,,,,,,,,,,,masks/mask_003.jpg,,,,,,,,,,,,,,,,,,,,,,,,,,,,,,,,,,,,,,,,,,,,,,,,0,1,1,2,1,,,,,,,,,,,,,,,,,,,,,,,,,,,,,,,,,,,,,,,,,
924006,001,2022-11-20_23h53.29.113,Info_measure_main_exp,2022.2.2,Win32,143.6575205,,,,,,,,,,,,,,,,,,masks/mask_004.jpg,,,,,,,,,,,,,,,,,,,,,,,,,,,,,,,,,,,,,,,,,,,,,,,,0,2,2,3,1,,,,,,,,,,,,,,,,,,,,,,,,,,,,,,,,,,,,,,,,,
924006,001,2022-11-20_23h53.29.113,Info_measure_main_exp,2022.2.2,Win32,143.6575205,,,,,,,,,,,,,,,,,,masks/mask_001.jpg,,,,,,,,,,,,,,,,,,,,,,,,,,,,,,,,,,,,,,,,,,,,,,,,0,3,3,0,1,,,,,,,,,,,,,,,,,,,,,,,,,,,,,,,,,,,,,,,,,
924006,001,2022-11-20_23h53.29.113,Info_measure_main_exp,2022.2.2,Win32,143.6575205,,,,,,,,,,,,,,,,,,masks/mask_005.jpg,,,,,,,,,,,,,,,,,,,,,,,,,,,,,,,,,,,,,,,,,,,,,,,,0,4,4,4,1,,,,,,,,,,,,,,,,,,,,,,,,,,,,,,,,,,,,,,,,,
924006,001,2022-11-20_23h53.29.113,Info_measure_main_exp,2022.2.2,Win32,143.6575205,,,,,,,,,,,,,,,,,,,,,,,,,,,,,,3,2.8572,1,,,,,,,,,,,,0,131,5,5,2298,2142,absent_patch/patch0002298.jpg,absent_patch/patch0002142.jpg,,,,,,,,,,,,,,,,,,,,-0.041666667,-0.12037037,1,0,0,response5disk,11,-0.006481481,-0.006481481,1,0,0,center_square,0,10,10,49,1,,,,,,,,,,,,,,,,,,,,,,,
924006,001,2022-11-20_23h53.29.113,Info_measure_main_exp,2022.2.2,Win32,143.6575205,,,,,,,,,,,,,,,,,,masks/mask_004.jpg,,,,,,,,,,,,,,,,,,,,,,,,,,,,,,,,,,,,,,,,,,,0,0,0,3,1,,,,,,,,,,,,,,,,,,,,,,,,,,,,,,,,,,,,,,,,,,,,,,
924006,001,2022-11-20_23h53.29.113,Info_measure_main_exp,2022.2.2,Win32,143.6575205,,,,,,,,,,,,,,,,,,masks/mask_002.jpg,,,,,,,,,,,,,,,,,,,,,,,,,,,,,,,,,,,,,,,,,,,0,1,1,1,1,,,,,,,,,,,,,,,,,,,,,,,,,,,,,,,,,,,,,,,,,,,,,,
924006,001,2022-11-20_23h53.29.113,Info_measure_main_exp,2022.2.2,Win32,143.6575205,,,,,,,,,,,,,,,,,,masks/mask_003.jpg,,,,,,,,,,,,,,,,,,,,,,,,,,,,,,,,,,,,,,,,,,,0,2,2,2,1,,,,,,,,,,,,,,,,,,,,,,,,,,,,,,,,,,,,,,,,,,,,,,
924006,001,2022-11-20_23h53.29.113,Info_measure_main_exp,2022.2.2,Win32,143.6575205,,,,,,,,,,,,,,,,,,masks/mask_001.jpg,,,,,,,,,,,,,,,,,,,,,,,,,,,,,,,,,,,,,,,,,,,0,3,3,0,1,,,,,,,,,,,,,,,,,,,,,,,,,,,,,,,,,,,,,,,,,,,,,,
924006,001,2022-11-20_23h53.29.113,Info_measure_main_exp,2022.2.2,Win32,143.6575205,,,,,,,,,,,,,,,,,,masks/mask_005.jpg,,,,,,,,,,,,,,,,,,,,,,,,,,,,,,,,,,,,,,,,,,,0,4,4,4,1,,,,,,,,,,,,,,,,,,,,,,,,,,,,,,,,,,,,,,,,,,,,,,
924006,001,2022-11-20_23h53.29.113,Info_measure_main_exp,2022.2.2,Win32,143.6575205,,,,,,,,,,,,,,,,,,masks/mask_002.jpg,,,,,,,,,,,,,,,,,,,,,,,,,,,,,,,,,,,,,,,,,,,,,,,,0,0,0,1,1,,,,,,,,,,,,,,,,,,,,,,,,,,,,,,,,,,,,,,,,,
924006,001,2022-11-20_23h53.29.113,Info_measure_main_exp,2022.2.2,Win32,143.6575205,,,,,,,,,,,,,,,,,,masks/mask_001.jpg,,,,,,,,,,,,,,,,,,,,,,,,,,,,,,,,,,,,,,,,,,,,,,,,0,1,1,0,1,,,,,,,,,,,,,,,,,,,,,,,,,,,,,,,,,,,,,,,,,
924006,001,2022-11-20_23h53.29.113,Info_measure_main_exp,2022.2.2,Win32,143.6575205,,,,,,,,,,,,,,,,,,masks/mask_005.jpg,,,,,,,,,,,,,,,,,,,,,,,,,,,,,,,,,,,,,,,,,,,,,,,,0,2,2,4,1,,,,,,,,,,,,,,,,,,,,,,,,,,,,,,,,,,,,,,,,,
924006,001,2022-11-20_23h53.29.113,Info_measure_main_exp,2022.2.2,Win32,143.6575205,,,,,,,,,,,,,,,,,,masks/mask_004.jpg,,,,,,,,,,,,,,,,,,,,,,,,,,,,,,,,,,,,,,,,,,,,,,,,0,3,3,3,1,,,,,,,,,,,,,,,,,,,,,,,,,,,,,,,,,,,,,,,,,
924006,001,2022-11-20_23h53.29.113,Info_measure_main_exp,2022.2.2,Win32,143.6575205,,,,,,,,,,,,,,,,,,masks/mask_003.jpg,,,,,,,,,,,,,,,,,,,,,,,,,,,,,,,,,,,,,,,,,,,,,,,,0,4,4,2,1,,,,,,,,,,,,,,,,,,,,,,,,,,,,,,,,,,,,,,,,,
924006,001,2022-11-20_23h53.29.113,Info_measure_main_exp,2022.2.2,Win32,143.6575205,,,,,,,,,,,,,,,,,,,,,,,,,,,,,,7,0.6883,1,,,,,,,,,,,,0,131,5,5,2190,2238,absent_patch/patch0002190.jpg,absent_patch/patch0002238.jpg,,,,,,,,,,,,,,,,,,,,0.048148148,0.096296296,1,0,0,response1disk,12,-0.000925926,-0.009259259,1,0,0,center_square,0,11,11,53,1,,,,,,,,,,,,,,,,,,,,,,,
924006,001,2022-11-20_23h53.29.113,Info_measure_main_exp,2022.2.2,Win32,143.6575205,,,,,,,,,,,,,,,,,,masks/mask_003.jpg,,,,,,,,,,,,,,,,,,,,,,,,,,,,,,,,,,,,,,,,,,,0,0,0,2,1,,,,,,,,,,,,,,,,,,,,,,,,,,,,,,,,,,,,,,,,,,,,,,
924006,001,2022-11-20_23h53.29.113,Info_measure_main_exp,2022.2.2,Win32,143.6575205,,,,,,,,,,,,,,,,,,masks/mask_004.jpg,,,,,,,,,,,,,,,,,,,,,,,,,,,,,,,,,,,,,,,,,,,0,1,1,3,1,,,,,,,,,,,,,,,,,,,,,,,,,,,,,,,,,,,,,,,,,,,,,,
924006,001,2022-11-20_23h53.29.113,Info_measure_main_exp,2022.2.2,Win32,143.6575205,,,,,,,,,,,,,,,,,,masks/mask_001.jpg,,,,,,,,,,,,,,,,,,,,,,,,,,,,,,,,,,,,,,,,,,,0,2,2,0,1,,,,,,,,,,,,,,,,,,,,,,,,,,,,,,,,,,,,,,,,,,,,,,
924006,001,2022-11-20_23h53.29.113,Info_measure_main_exp,2022.2.2,Win32,143.6575205,,,,,,,,,,,,,,,,,,masks/mask_002.jpg,,,,,,,,,,,,,,,,,,,,,,,,,,,,,,,,,,,,,,,,,,,0,3,3,1,1,,,,,,,,,,,,,,,,,,,,,,,,,,,,,,,,,,,,,,,,,,,,,,
924006,001,2022-11-20_23h53.29.113,Info_measure_main_exp,2022.2.2,Win32,143.6575205,,,,,,,,,,,,,,,,,,masks/mask_005.jpg,,,,,,,,,,,,,,,,,,,,,,,,,,,,,,,,,,,,,,,,,,,0,4,4,4,1,,,,,,,,,,,,,,,,,,,,,,,,,,,,,,,,,,,,,,,,,,,,,,
924006,001,2022-11-20_23h53.29.113,Info_measure_main_exp,2022.2.2,Win32,143.6575205,,,,,,,,,,,,,,,,,,masks/mask_001.jpg,,,,,,,,,,,,,,,,,,,,,,,,,,,,,,,,,,,,,,,,,,,,,,,,0,0,0,0,1,,,,,,,,,,,,,,,,,,,,,,,,,,,,,,,,,,,,,,,,,
924006,001,2022-11-20_23h53.29.113,Info_measure_main_exp,2022.2.2,Win32,143.6575205,,,,,,,,,,,,,,,,,,masks/mask_003.jpg,,,,,,,,,,,,,,,,,,,,,,,,,,,,,,,,,,,,,,,,,,,,,,,,0,1,1,2,1,,,,,,,,,,,,,,,,,,,,,,,,,,,,,,,,,,,,,,,,,
924006,001,2022-11-20_23h53.29.113,Info_measure_main_exp,2022.2.2,Win32,143.6575205,,,,,,,,,,,,,,,,,,masks/mask_004.jpg,,,,,,,,,,,,,,,,,,,,,,,,,,,,,,,,,,,,,,,,,,,,,,,,0,2,2,3,1,,,,,,,,,,,,,,,,,,,,,,,,,,,,,,,,,,,,,,,,,
924006,001,2022-11-20_23h53.29.113,Info_measure_main_exp,2022.2.2,Win32,143.6575205,,,,,,,,,,,,,,,,,,masks/mask_002.jpg,,,,,,,,,,,,,,,,,,,,,,,,,,,,,,,,,,,,,,,,,,,,,,,,0,3,3,1,1,,,,,,,,,,,,,,,,,,,,,,,,,,,,,,,,,,,,,,,,,
924006,001,2022-11-20_23h53.29.113,Info_measure_main_exp,2022.2.2,Win32,143.6575205,,,,,,,,,,,,,,,,,,masks/mask_005.jpg,,,,,,,,,,,,,,,,,,,,,,,,,,,,,,,,,,,,,,,,,,,,,,,,0,4,4,4,1,,,,,,,,,,,,,,,,,,,,,,,,,,,,,,,,,,,,,,,,,
924006,001,2022-11-20_23h53.29.113,Info_measure_main_exp,2022.2.2,Win32,143.6575205,,,,,,,,,,,,,,,,,,,,,,,,,,,,,,3,1.2025,1,,,,,,,,,,,,0,131,5,5,1974,2178,absent_patch/patch0001974.jpg,absent_patch/patch0002178.jpg,,,,,,,,,,,,,,,,,,,,-0.046296296,-0.086111111,1,0,0,response5disk,13,0.014814815,0.00462963,1,0,0,center_square,0,12,12,44,1,,,,,,,,,,,,,,,,,,,,,,,
924006,001,2022-11-20_23h53.29.113,Info_measure_main_exp,2022.2.2,Win32,143.6575205,,,,,,,,,,,,,,,,,,masks/mask_002.jpg,,,,,,,,,,,,,,,,,,,,,,,,,,,,,,,,,,,,,,,,,,,0,0,0,1,1,,,,,,,,,,,,,,,,,,,,,,,,,,,,,,,,,,,,,,,,,,,,,,
924006,001,2022-11-20_23h53.29.113,Info_measure_main_exp,2022.2.2,Win32,143.6575205,,,,,,,,,,,,,,,,,,masks/mask_004.jpg,,,,,,,,,,,,,,,,,,,,,,,,,,,,,,,,,,,,,,,,,,,0,1,1,3,1,,,,,,,,,,,,,,,,,,,,,,,,,,,,,,,,,,,,,,,,,,,,,,
924006,001,2022-11-20_23h53.29.113,Info_measure_main_exp,2022.2.2,Win32,143.6575205,,,,,,,,,,,,,,,,,,masks/mask_005.jpg,,,,,,,,,,,,,,,,,,,,,,,,,,,,,,,,,,,,,,,,,,,0,2,2,4,1,,,,,,,,,,,,,,,,,,,,,,,,,,,,,,,,,,,,,,,,,,,,,,
924006,001,2022-11-20_23h53.29.113,Info_measure_main_exp,2022.2.2,Win32,143.6575205,,,,,,,,,,,,,,,,,,masks/mask_003.jpg,,,,,,,,,,,,,,,,,,,,,,,,,,,,,,,,,,,,,,,,,,,0,3,3,2,1,,,,,,,,,,,,,,,,,,,,,,,,,,,,,,,,,,,,,,,,,,,,,,
924006,001,2022-11-20_23h53.29.113,Info_measure_main_exp,2022.2.2,Win32,143.6575205,,,,,,,,,,,,,,,,,,masks/mask_001.jpg,,,,,,,,,,,,,,,,,,,,,,,,,,,,,,,,,,,,,,,,,,,0,4,4,0,1,,,,,,,,,,,,,,,,,,,,,,,,,,,,,,,,,,,,,,,,,,,,,,
924006,001,2022-11-20_23h53.29.113,Info_measure_main_exp,2022.2.2,Win32,143.6575205,,,,,,,,,,,,,,,,,,masks/mask_002.jpg,,,,,,,,,,,,,,,,,,,,,,,,,,,,,,,,,,,,,,,,,,,,,,,,0,0,0,1,1,,,,,,,,,,,,,,,,,,,,,,,,,,,,,,,,,,,,,,,,,
924006,001,2022-11-20_23h53.29.113,Info_measure_main_exp,2022.2.2,Win32,143.6575205,,,,,,,,,,,,,,,,,,masks/mask_003.jpg,,,,,,,,,,,,,,,,,,,,,,,,,,,,,,,,,,,,,,,,,,,,,,,,0,1,1,2,1,,,,,,,,,,,,,,,,,,,,,,,,,,,,,,,,,,,,,,,,,
924006,001,2022-11-20_23h53.29.113,Info_measure_main_exp,2022.2.2,Win32,143.6575205,,,,,,,,,,,,,,,,,,masks/mask_004.jpg,,,,,,,,,,,,,,,,,,,,,,,,,,,,,,,,,,,,,,,,,,,,,,,,0,2,2,3,1,,,,,,,,,,,,,,,,,,,,,,,,,,,,,,,,,,,,,,,,,
924006,001,2022-11-20_23h53.29.113,Info_measure_main_exp,2022.2.2,Win32,143.6575205,,,,,,,,,,,,,,,,,,masks/mask_001.jpg,,,,,,,,,,,,,,,,,,,,,,,,,,,,,,,,,,,,,,,,,,,,,,,,0,3,3,0,1,,,,,,,,,,,,,,,,,,,,,,,,,,,,,,,,,,,,,,,,,
924006,001,2022-11-20_23h53.29.113,Info_measure_main_exp,2022.2.2,Win32,143.6575205,,,,,,,,,,,,,,,,,,masks/mask_005.jpg,,,,,,,,,,,,,,,,,,,,,,,,,,,,,,,,,,,,,,,,,,,,,,,,0,4,4,4,1,,,,,,,,,,,,,,,,,,,,,,,,,,,,,,,,,,,,,,,,,
924006,001,2022-11-20_23h53.29.113,Info_measure_main_exp,2022.2.2,Win32,143.6575205,,,,,,,,,,,,,,,,,,,,,,,,,,,,,,6,1.6199,1,,,,,,,,,,,,0,131,5,5,1950,2166,absent_patch/patch0001950.jpg,absent_patch/patch0002166.jpg,,,,,,,,,,,,,,,,,,,,0.083333333,0.033333333,1,0,0,response1disk,14,0.005555556,0.002777778,1,0,0,center_square,0,13,13,0,1,,,,,,,,,,,,,,,,,,,,,,,
924006,001,2022-11-20_23h53.29.113,Info_measure_main_exp,2022.2.2,Win32,143.6575205,,,,,,,,,,,,,,,,,,masks/mask_002.jpg,,,,,,,,,,,,,,,,,,,,,,,,,,,,,,,,,,,,,,,,,,,0,0,0,1,1,,,,,,,,,,,,,,,,,,,,,,,,,,,,,,,,,,,,,,,,,,,,,,
924006,001,2022-11-20_23h53.29.113,Info_measure_main_exp,2022.2.2,Win32,143.6575205,,,,,,,,,,,,,,,,,,masks/mask_004.jpg,,,,,,,,,,,,,,,,,,,,,,,,,,,,,,,,,,,,,,,,,,,0,1,1,3,1,,,,,,,,,,,,,,,,,,,,,,,,,,,,,,,,,,,,,,,,,,,,,,
924006,001,2022-11-20_23h53.29.113,Info_measure_main_exp,2022.2.2,Win32,143.6575205,,,,,,,,,,,,,,,,,,masks/mask_005.jpg,,,,,,,,,,,,,,,,,,,,,,,,,,,,,,,,,,,,,,,,,,,0,2,2,4,1,,,,,,,,,,,,,,,,,,,,,,,,,,,,,,,,,,,,,,,,,,,,,,
924006,001,2022-11-20_23h53.29.113,Info_measure_main_exp,2022.2.2,Win32,143.6575205,,,,,,,,,,,,,,,,,,masks/mask_003.jpg,,,,,,,,,,,,,,,,,,,,,,,,,,,,,,,,,,,,,,,,,,,0,3,3,2,1,,,,,,,,,,,,,,,,,,,,,,,,,,,,,,,,,,,,,,,,,,,,,,
924006,001,2022-11-20_23h53.29.113,Info_measure_main_exp,2022.2.2,Win32,143.6575205,,,,,,,,,,,,,,,,,,masks/mask_001.jpg,,,,,,,,,,,,,,,,,,,,,,,,,,,,,,,,,,,,,,,,,,,0,4,4,0,1,,,,,,,,,,,,,,,,,,,,,,,,,,,,,,,,,,,,,,,,,,,,,,
924006,001,2022-11-20_23h53.29.113,Info_measure_main_exp,2022.2.2,Win32,143.6575205,,,,,,,,,,,,,,,,,,masks/mask_003.jpg,,,,,,,,,,,,,,,,,,,,,,,,,,,,,,,,,,,,,,,,,,,,,,,,0,0,0,2,1,,,,,,,,,,,,,,,,,,,,,,,,,,,,,,,,,,,,,,,,,
924006,001,2022-11-20_23h53.29.113,Info_measure_main_exp,2022.2.2,Win32,143.6575205,,,,,,,,,,,,,,,,,,masks/mask_002.jpg,,,,,,,,,,,,,,,,,,,,,,,,,,,,,,,,,,,,,,,,,,,,,,,,0,1,1,1,1,,,,,,,,,,,,,,,,,,,,,,,,,,,,,,,,,,,,,,,,,
924006,001,2022-11-20_23h53.29.113,Info_measure_main_exp,2022.2.2,Win32,143.6575205,,,,,,,,,,,,,,,,,,masks/mask_001.jpg,,,,,,,,,,,,,,,,,,,,,,,,,,,,,,,,,,,,,,,,,,,,,,,,0,2,2,0,1,,,,,,,,,,,,,,,,,,,,,,,,,,,,,,,,,,,,,,,,,
924006,001,2022-11-20_23h53.29.113,Info_measure_main_exp,2022.2.2,Win32,143.6575205,,,,,,,,,,,,,,,,,,masks/mask_005.jpg,,,,,,,,,,,,,,,,,,,,,,,,,,,,,,,,,,,,,,,,,,,,,,,,0,3,3,4,1,,,,,,,,,,,,,,,,,,,,,,,,,,,,,,,,,,,,,,,,,
924006,001,2022-11-20_23h53.29.113,Info_measure_main_exp,2022.2.2,Win32,143.6575205,,,,,,,,,,,,,,,,,,masks/mask_004.jpg,,,,,,,,,,,,,,,,,,,,,,,,,,,,,,,,,,,,,,,,,,,,,,,,0,4,4,3,1,,,,,,,,,,,,,,,,,,,,,,,,,,,,,,,,,,,,,,,,,
924006,001,2022-11-20_23h53.29.113,Info_measure_main_exp,2022.2.2,Win32,143.6575205,,,,,,,,,,,,,,,,,,,,,,,,,,,,,,3,1.7728,1,,,,,,,,,,,,1,131,5,5,1,2154,present_patch/cong_131_5_a.jpg,absent_patch/patch0002154.jpg,,,,,,,,,,,,,,,,,,,,-0.062962963,-0.114814815,1,0,0,response5disk,15,-0.006481481,-0.000925926,1,0,0,center_square,0,14,14,87,1,,,,,,,,,,,,,,,,,,,,,,,
924006,001,2022-11-20_23h53.29.113,Info_measure_main_exp,2022.2.2,Win32,143.6575205,,,,,,,,,,,,,,,,,,masks/mask_002.jpg,,,,,,,,,,,,,,,,,,,,,,,,,,,,,,,,,,,,,,,,,,,0,0,0,1,1,,,,,,,,,,,,,,,,,,,,,,,,,,,,,,,,,,,,,,,,,,,,,,
924006,001,2022-11-20_23h53.29.113,Info_measure_main_exp,2022.2.2,Win32,143.6575205,,,,,,,,,,,,,,,,,,masks/mask_004.jpg,,,,,,,,,,,,,,,,,,,,,,,,,,,,,,,,,,,,,,,,,,,0,1,1,3,1,,,,,,,,,,,,,,,,,,,,,,,,,,,,,,,,,,,,,,,,,,,,,,
924006,001,2022-11-20_23h53.29.113,Info_measure_main_exp,2022.2.2,Win32,143.6575205,,,,,,,,,,,,,,,,,,masks/mask_005.jpg,,,,,,,,,,,,,,,,,,,,,,,,,,,,,,,,,,,,,,,,,,,0,2,2,4,1,,,,,,,,,,,,,,,,,,,,,,,,,,,,,,,,,,,,,,,,,,,,,,
924006,001,2022-11-20_23h53.29.113,Info_measure_main_exp,2022.2.2,Win32,143.6575205,,,,,,,,,,,,,,,,,,masks/mask_001.jpg,,,,,,,,,,,,,,,,,,,,,,,,,,,,,,,,,,,,,,,,,,,0,3,3,0,1,,,,,,,,,,,,,,,,,,,,,,,,,,,,,,,,,,,,,,,,,,,,,,
924006,001,2022-11-20_23h53.29.113,Info_measure_main_exp,2022.2.2,Win32,143.6575205,,,,,,,,,,,,,,,,,,masks/mask_003.jpg,,,,,,,,,,,,,,,,,,,,,,,,,,,,,,,,,,,,,,,,,,,0,4,4,2,1,,,,,,,,,,,,,,,,,,,,,,,,,,,,,,,,,,,,,,,,,,,,,,
924006,001,2022-11-20_23h53.29.113,Info_measure_main_exp,2022.2.2,Win32,143.6575205,,,,,,,,,,,,,,,,,,masks/mask_004.jpg,,,,,,,,,,,,,,,,,,,,,,,,,,,,,,,,,,,,,,,,,,,,,,,,0,0,0,3,1,,,,,,,,,,,,,,,,,,,,,,,,,,,,,,,,,,,,,,,,,
924006,001,2022-11-20_23h53.29.113,Info_measure_main_exp,2022.2.2,Win32,143.6575205,,,,,,,,,,,,,,,,,,masks/mask_001.jpg,,,,,,,,,,,,,,,,,,,,,,,,,,,,,,,,,,,,,,,,,,,,,,,,0,1,1,0,1,,,,,,,,,,,,,,,,,,,,,,,,,,,,,,,,,,,,,,,,,
924006,001,2022-11-20_23h53.29.113,Info_measure_main_exp,2022.2.2,Win32,143.6575205,,,,,,,,,,,,,,,,,,masks/mask_002.jpg,,,,,,,,,,,,,,,,,,,,,,,,,,,,,,,,,,,,,,,,,,,,,,,,0,2,2,1,1,,,,,,,,,,,,,,,,,,,,,,,,,,,,,,,,,,,,,,,,,
924006,001,2022-11-20_23h53.29.113,Info_measure_main_exp,2022.2.2,Win32,143.6575205,,,,,,,,,,,,,,,,,,masks/mask_003.jpg,,,,,,,,,,,,,,,,,,,,,,,,,,,,,,,,,,,,,,,,,,,,,,,,0,3,3,2,1,,,,,,,,,,,,,,,,,,,,,,,,,,,,,,,,,,,,,,,,,
924006,001,2022-11-20_23h53.29.113,Info_measure_main_exp,2022.2.2,Win32,143.6575205,,,,,,,,,,,,,,,,,,masks/mask_005.jpg,,,,,,,,,,,,,,,,,,,,,,,,,,,,,,,,,,,,,,,,,,,,,,,,0,4,4,4,1,,,,,,,,,,,,,,,,,,,,,,,,,,,,,,,,,,,,,,,,,
924006,001,2022-11-20_23h53.29.113,Info_measure_main_exp,2022.2.2,Win32,143.6575205,,,,,,,,,,,,,,,,,,,,,,,,,,,,,,6,1.8632,1,,,,,,,,,,,,0,131,5,5,2154,2250,absent_patch/patch0002154.jpg,absent_patch/patch0002250.jpg,,,,,,,,,,,,,,,,,,,,0.049074074,0.028703704,1,0,0,response1disk,16,-0.007407407,0.007407407,1,0,0,center_square,0,15,15,108,1,,,,,,,,,,,,,,,,,,,,,,,
924006,001,2022-11-20_23h53.29.113,Info_measure_main_exp,2022.2.2,Win32,143.6575205,,,,,,,,,,,,,,,,,,masks/mask_003.jpg,,,,,,,,,,,,,,,,,,,,,,,,,,,,,,,,,,,,,,,,,,,0,0,0,2,1,,,,,,,,,,,,,,,,,,,,,,,,,,,,,,,,,,,,,,,,,,,,,,
924006,001,2022-11-20_23h53.29.113,Info_measure_main_exp,2022.2.2,Win32,143.6575205,,,,,,,,,,,,,,,,,,masks/mask_001.jpg,,,,,,,,,,,,,,,,,,,,,,,,,,,,,,,,,,,,,,,,,,,0,1,1,0,1,,,,,,,,,,,,,,,,,,,,,,,,,,,,,,,,,,,,,,,,,,,,,,
924006,001,2022-11-20_23h53.29.113,Info_measure_main_exp,2022.2.2,Win32,143.6575205,,,,,,,,,,,,,,,,,,masks/mask_002.jpg,,,,,,,,,,,,,,,,,,,,,,,,,,,,,,,,,,,,,,,,,,,0,2,2,1,1,,,,,,,,,,,,,,,,,,,,,,,,,,,,,,,,,,,,,,,,,,,,,,
924006,001,2022-11-20_23h53.29.113,Info_measure_main_exp,2022.2.2,Win32,143.6575205,,,,,,,,,,,,,,,,,,masks/mask_004.jpg,,,,,,,,,,,,,,,,,,,,,,,,,,,,,,,,,,,,,,,,,,,0,3,3,3,1,,,,,,,,,,,,,,,,,,,,,,,,,,,,,,,,,,,,,,,,,,,,,,
924006,001,2022-11-20_23h53.29.113,Info_measure_main_exp,2022.2.2,Win32,143.6575205,,,,,,,,,,,,,,,,,,masks/mask_005.jpg,,,,,,,,,,,,,,,,,,,,,,,,,,,,,,,,,,,,,,,,,,,0,4,4,4,1,,,,,,,,,,,,,,,,,,,,,,,,,,,,,,,,,,,,,,,,,,,,,,
924006,001,2022-11-20_23h53.29.113,Info_measure_main_exp,2022.2.2,Win32,143.6575205,,,,,,,,,,,,,,,,,,masks/mask_001.jpg,,,,,,,,,,,,,,,,,,,,,,,,,,,,,,,,,,,,,,,,,,,,,,,,0,0,0,0,1,,,,,,,,,,,,,,,,,,,,,,,,,,,,,,,,,,,,,,,,,
924006,001,2022-11-20_23h53.29.113,Info_measure_main_exp,2022.2.2,Win32,143.6575205,,,,,,,,,,,,,,,,,,masks/mask_002.jpg,,,,,,,,,,,,,,,,,,,,,,,,,,,,,,,,,,,,,,,,,,,,,,,,0,1,1,1,1,,,,,,,,,,,,,,,,,,,,,,,,,,,,,,,,,,,,,,,,,
924006,001,2022-11-20_23h53.29.113,Info_measure_main_exp,2022.2.2,Win32,143.6575205,,,,,,,,,,,,,,,,,,masks/mask_003.jpg,,,,,,,,,,,,,,,,,,,,,,,,,,,,,,,,,,,,,,,,,,,,,,,,0,2,2,2,1,,,,,,,,,,,,,,,,,,,,,,,,,,,,,,,,,,,,,,,,,
924006,001,2022-11-20_23h53.29.113,Info_measure_main_exp,2022.2.2,Win32,143.6575205,,,,,,,,,,,,,,,,,,masks/mask_004.jpg,,,,,,,,,,,,,,,,,,,,,,,,,,,,,,,,,,,,,,,,,,,,,,,,0,3,3,3,1,,,,,,,,,,,,,,,,,,,,,,,,,,,,,,,,,,,,,,,,,
924006,001,2022-11-20_23h53.29.113,Info_measure_main_exp,2022.2.2,Win32,143.6575205,,,,,,,,,,,,,,,,,,masks/mask_005.jpg,,,,,,,,,,,,,,,,,,,,,,,,,,,,,,,,,,,,,,,,,,,,,,,,0,4,4,4,1,,,,,,,,,,,,,,,,,,,,,,,,,,,,,,,,,,,,,,,,,
924006,001,2022-11-20_23h53.29.113,Info_measure_main_exp,2022.2.2,Win32,143.6575205,,,,,,,,,,,,,,,,,,,,,,,,,,,,,,0,0.6117,1,,,,,,,,,,,,0,131,5,5,2166,2166,absent_patch/patch0002166.jpg,absent_patch/patch0002166.jpg,,,,,,,,,,,,,,,,,,,,-0.05,0.109259259,1,0,0,response7disk,17,0.003703704,-0.00462963,1,0,0,center_square,0,16,16,42,1,,,,,,,,,,,,,,,,,,,,,,,
924006,001,2022-11-20_23h53.29.113,Info_measure_main_exp,2022.2.2,Win32,143.6575205,,,,,,,,,,,,,,,,,,masks/mask_004.jpg,,,,,,,,,,,,,,,,,,,,,,,,,,,,,,,,,,,,,,,,,,,0,0,0,3,1,,,,,,,,,,,,,,,,,,,,,,,,,,,,,,,,,,,,,,,,,,,,,,
924006,001,2022-11-20_23h53.29.113,Info_measure_main_exp,2022.2.2,Win32,143.6575205,,,,,,,,,,,,,,,,,,masks/mask_005.jpg,,,,,,,,,,,,,,,,,,,,,,,,,,,,,,,,,,,,,,,,,,,0,1,1,4,1,,,,,,,,,,,,,,,,,,,,,,,,,,,,,,,,,,,,,,,,,,,,,,
924006,001,2022-11-20_23h53.29.113,Info_measure_main_exp,2022.2.2,Win32,143.6575205,,,,,,,,,,,,,,,,,,masks/mask_003.jpg,,,,,,,,,,,,,,,,,,,,,,,,,,,,,,,,,,,,,,,,,,,0,2,2,2,1,,,,,,,,,,,,,,,,,,,,,,,,,,,,,,,,,,,,,,,,,,,,,,
924006,001,2022-11-20_23h53.29.113,Info_measure_main_exp,2022.2.2,Win32,143.6575205,,,,,,,,,,,,,,,,,,masks/mask_001.jpg,,,,,,,,,,,,,,,,,,,,,,,,,,,,,,,,,,,,,,,,,,,0,3,3,0,1,,,,,,,,,,,,,,,,,,,,,,,,,,,,,,,,,,,,,,,,,,,,,,
924006,001,2022-11-20_23h53.29.113,Info_measure_main_exp,2022.2.2,Win32,143.6575205,,,,,,,,,,,,,,,,,,masks/mask_002.jpg,,,,,,,,,,,,,,,,,,,,,,,,,,,,,,,,,,,,,,,,,,,0,4,4,1,1,,,,,,,,,,,,,,,,,,,,,,,,,,,,,,,,,,,,,,,,,,,,,,
924006,001,2022-11-20_23h53.29.113,Info_measure_main_exp,2022.2.2,Win32,143.6575205,,,,,,,,,,,,,,,,,,masks/mask_001.jpg,,,,,,,,,,,,,,,,,,,,,,,,,,,,,,,,,,,,,,,,,,,,,,,,0,0,0,0,1,,,,,,,,,,,,,,,,,,,,,,,,,,,,,,,,,,,,,,,,,
924006,001,2022-11-20_23h53.29.113,Info_measure_main_exp,2022.2.2,Win32,143.6575205,,,,,,,,,,,,,,,,,,masks/mask_003.jpg,,,,,,,,,,,,,,,,,,,,,,,,,,,,,,,,,,,,,,,,,,,,,,,,0,1,1,2,1,,,,,,,,,,,,,,,,,,,,,,,,,,,,,,,,,,,,,,,,,
924006,001,2022-11-20_23h53.29.113,Info_measure_main_exp,2022.2.2,Win32,143.6575205,,,,,,,,,,,,,,,,,,masks/mask_004.jpg,,,,,,,,,,,,,,,,,,,,,,,,,,,,,,,,,,,,,,,,,,,,,,,,0,2,2,3,1,,,,,,,,,,,,,,,,,,,,,,,,,,,,,,,,,,,,,,,,,
924006,001,2022-11-20_23h53.29.113,Info_measure_main_exp,2022.2.2,Win32,143.6575205,,,,,,,,,,,,,,,,,,masks/mask_005.jpg,,,,,,,,,,,,,,,,,,,,,,,,,,,,,,,,,,,,,,,,,,,,,,,,0,3,3,4,1,,,,,,,,,,,,,,,,,,,,,,,,,,,,,,,,,,,,,,,,,
924006,001,2022-11-20_23h53.29.113,Info_measure_main_exp,2022.2.2,Win32,143.6575205,,,,,,,,,,,,,,,,,,masks/mask_002.jpg,,,,,,,,,,,,,,,,,,,,,,,,,,,,,,,,,,,,,,,,,,,,,,,,0,4,4,1,1,,,,,,,,,,,,,,,,,,,,,,,,,,,,,,,,,,,,,,,,,
924006,001,2022-11-20_23h53.29.113,Info_measure_main_exp,2022.2.2,Win32,143.6575205,,,,,,,,,,,,,,,,,,,,,,,,,,,,,,3,1.0706,1,,,,,,,,,,,,0,131,5,5,1974,2298,absent_patch/patch0001974.jpg,absent_patch/patch0002298.jpg,,,,,,,,,,,,,,,,,,,,-0.023148148,-0.087037037,1,0,0,response5disk,18,0,0.002777778,1,0,0,center_square,0,17,17,6,1,,,,,,,,,,,,,,,,,,,,,,,
924006,001,2022-11-20_23h53.29.113,Info_measure_main_exp,2022.2.2,Win32,143.6575205,,,,,,,,,,,,,,,,,,masks/mask_002.jpg,,,,,,,,,,,,,,,,,,,,,,,,,,,,,,,,,,,,,,,,,,,0,0,0,1,1,,,,,,,,,,,,,,,,,,,,,,,,,,,,,,,,,,,,,,,,,,,,,,
924006,001,2022-11-20_23h53.29.113,Info_measure_main_exp,2022.2.2,Win32,143.6575205,,,,,,,,,,,,,,,,,,masks/mask_005.jpg,,,,,,,,,,,,,,,,,,,,,,,,,,,,,,,,,,,,,,,,,,,0,1,1,4,1,,,,,,,,,,,,,,,,,,,,,,,,,,,,,,,,,,,,,,,,,,,,,,
924006,001,2022-11-20_23h53.29.113,Info_measure_main_exp,2022.2.2,Win32,143.6575205,,,,,,,,,,,,,,,,,,masks/mask_004.jpg,,,,,,,,,,,,,,,,,,,,,,,,,,,,,,,,,,,,,,,,,,,0,2,2,3,1,,,,,,,,,,,,,,,,,,,,,,,,,,,,,,,,,,,,,,,,,,,,,,
924006,001,2022-11-20_23h53.29.113,Info_measure_main_exp,2022.2.2,Win32,143.6575205,,,,,,,,,,,,,,,,,,masks/mask_001.jpg,,,,,,,,,,,,,,,,,,,,,,,,,,,,,,,,,,,,,,,,,,,0,3,3,0,1,,,,,,,,,,,,,,,,,,,,,,,,,,,,,,,,,,,,,,,,,,,,,,
924006,001,2022-11-20_23h53.29.113,Info_measure_main_exp,2022.2.2,Win32,143.6575205,,,,,,,,,,,,,,,,,,masks/mask_003.jpg,,,,,,,,,,,,,,,,,,,,,,,,,,,,,,,,,,,,,,,,,,,0,4,4,2,1,,,,,,,,,,,,,,,,,,,,,,,,,,,,,,,,,,,,,,,,,,,,,,
924006,001,2022-11-20_23h53.29.113,Info_measure_main_exp,2022.2.2,Win32,143.6575205,,,,,,,,,,,,,,,,,,masks/mask_005.jpg,,,,,,,,,,,,,,,,,,,,,,,,,,,,,,,,,,,,,,,,,,,,,,,,0,0,0,4,1,,,,,,,,,,,,,,,,,,,,,,,,,,,,,,,,,,,,,,,,,
924006,001,2022-11-20_23h53.29.113,Info_measure_main_exp,2022.2.2,Win32,143.6575205,,,,,,,,,,,,,,,,,,masks/mask_004.jpg,,,,,,,,,,,,,,,,,,,,,,,,,,,,,,,,,,,,,,,,,,,,,,,,0,1,1,3,1,,,,,,,,,,,,,,,,,,,,,,,,,,,,,,,,,,,,,,,,,
924006,001,2022-11-20_23h53.29.113,Info_measure_main_exp,2022.2.2,Win32,143.6575205,,,,,,,,,,,,,,,,,,masks/mask_002.jpg,,,,,,,,,,,,,,,,,,,,,,,,,,,,,,,,,,,,,,,,,,,,,,,,0,2,2,1,1,,,,,,,,,,,,,,,,,,,,,,,,,,,,,,,,,,,,,,,,,
924006,001,2022-11-20_23h53.29.113,Info_measure_main_exp,2022.2.2,Win32,143.6575205,,,,,,,,,,,,,,,,,,masks/mask_003.jpg,,,,,,,,,,,,,,,,,,,,,,,,,,,,,,,,,,,,,,,,,,,,,,,,0,3,3,2,1,,,,,,,,,,,,,,,,,,,,,,,,,,,,,,,,,,,,,,,,,
924006,001,2022-11-20_23h53.29.113,Info_measure_main_exp,2022.2.2,Win32,143.6575205,,,,,,,,,,,,,,,,,,masks/mask_001.jpg,,,,,,,,,,,,,,,,,,,,,,,,,,,,,,,,,,,,,,,,,,,,,,,,0,4,4,0,1,,,,,,,,,,,,,,,,,,,,,,,,,,,,,,,,,,,,,,,,,
924006,001,2022-11-20_23h53.29.113,Info_measure_main_exp,2022.2.2,Win32,143.6575205,,,,,,,,,,,,,,,,,,,,,,,,,,,,,,5,0.7438,1,,,,,,,,,,,,0,131,5,5,2190,1950,absent_patch/patch0002190.jpg,absent_patch/patch0001950.jpg,,,,,,,,,,,,,,,,,,,,0.074074074,-0.016666667,1,0,0,response3disk,19,-0.003703704,-0.002777778,1,0,0,center_square,0,18,18,73,1,,,,,,,,,,,,,,,,,,,,,,,
924006,001,2022-11-20_23h53.29.113,Info_measure_main_exp,2022.2.2,Win32,143.6575205,,,,,,,,,,,,,,,,,,masks/mask_002.jpg,,,,,,,,,,,,,,,,,,,,,,,,,,,,,,,,,,,,,,,,,,,0,0,0,1,1,,,,,,,,,,,,,,,,,,,,,,,,,,,,,,,,,,,,,,,,,,,,,,
924006,001,2022-11-20_23h53.29.113,Info_measure_main_exp,2022.2.2,Win32,143.6575205,,,,,,,,,,,,,,,,,,masks/mask_005.jpg,,,,,,,,,,,,,,,,,,,,,,,,,,,,,,,,,,,,,,,,,,,0,1,1,4,1,,,,,,,,,,,,,,,,,,,,,,,,,,,,,,,,,,,,,,,,,,,,,,
924006,001,2022-11-20_23h53.29.113,Info_measure_main_exp,2022.2.2,Win32,143.6575205,,,,,,,,,,,,,,,,,,masks/mask_003.jpg,,,,,,,,,,,,,,,,,,,,,,,,,,,,,,,,,,,,,,,,,,,0,2,2,2,1,,,,,,,,,,,,,,,,,,,,,,,,,,,,,,,,,,,,,,,,,,,,,,
924006,001,2022-11-20_23h53.29.113,Info_measure_main_exp,2022.2.2,Win32,143.6575205,,,,,,,,,,,,,,,,,,masks/mask_001.jpg,,,,,,,,,,,,,,,,,,,,,,,,,,,,,,,,,,,,,,,,,,,0,3,3,0,1,,,,,,,,,,,,,,,,,,,,,,,,,,,,,,,,,,,,,,,,,,,,,,
924006,001,2022-11-20_23h53.29.113,Info_measure_main_exp,2022.2.2,Win32,143.6575205,,,,,,,,,,,,,,,,,,masks/mask_004.jpg,,,,,,,,,,,,,,,,,,,,,,,,,,,,,,,,,,,,,,,,,,,0,4,4,3,1,,,,,,,,,,,,,,,,,,,,,,,,,,,,,,,,,,,,,,,,,,,,,,
924006,001,2022-11-20_23h53.29.113,Info_measure_main_exp,2022.2.2,Win32,143.6575205,,,,,,,,,,,,,,,,,,masks/mask_001.jpg,,,,,,,,,,,,,,,,,,,,,,,,,,,,,,,,,,,,,,,,,,,,,,,,0,0,0,0,1,,,,,,,,,,,,,,,,,,,,,,,,,,,,,,,,,,,,,,,,,
924006,001,2022-11-20_23h53.29.113,Info_measure_main_exp,2022.2.2,Win32,143.6575205,,,,,,,,,,,,,,,,,,masks/mask_005.jpg,,,,,,,,,,,,,,,,,,,,,,,,,,,,,,,,,,,,,,,,,,,,,,,,0,1,1,4,1,,,,,,,,,,,,,,,,,,,,,,,,,,,,,,,,,,,,,,,,,
924006,001,2022-11-20_23h53.29.113,Info_measure_main_exp,2022.2.2,Win32,143.6575205,,,,,,,,,,,,,,,,,,masks/mask_002.jpg,,,,,,,,,,,,,,,,,,,,,,,,,,,,,,,,,,,,,,,,,,,,,,,,0,2,2,1,1,,,,,,,,,,,,,,,,,,,,,,,,,,,,,,,,,,,,,,,,,
924006,001,2022-11-20_23h53.29.113,Info_measure_main_exp,2022.2.2,Win32,143.6575205,,,,,,,,,,,,,,,,,,masks/mask_004.jpg,,,,,,,,,,,,,,,,,,,,,,,,,,,,,,,,,,,,,,,,,,,,,,,,0,3,3,3,1,,,,,,,,,,,,,,,,,,,,,,,,,,,,,,,,,,,,,,,,,
924006,001,2022-11-20_23h53.29.113,Info_measure_main_exp,2022.2.2,Win32,143.6575205,,,,,,,,,,,,,,,,,,masks/mask_003.jpg,,,,,,,,,,,,,,,,,,,,,,,,,,,,,,,,,,,,,,,,,,,,,,,,0,4,4,2,1,,,,,,,,,,,,,,,,,,,,,,,,,,,,,,,,,,,,,,,,,
924006,001,2022-11-20_23h53.29.113,Info_measure_main_exp,2022.2.2,Win32,143.6575205,,,,,,,,,,,,,,,,,,,,,,,,,,,,,,7,0.8342,1,,,,,,,,,,,,0,131,5,5,2298,2214,absent_patch/patch0002298.jpg,absent_patch/patch0002214.jpg,,,,,,,,,,,,,,,,,,,,0.042592593,0.077777778,1,0,0,response1disk,20,0.000925926,-0.003703704,1,0,0,center_square,0,19,19,99,1,,,,,,,,,,,,,,,,,,,,,,,
924006,001,2022-11-20_23h53.29.113,Info_measure_main_exp,2022.2.2,Win32,143.6575205,,,,,,,,,,,,,,,,,,masks/mask_004.jpg,,,,,,,,,,,,,,,,,,,,,,,,,,,,,,,,,,,,,,,,,,,0,0,0,3,1,,,,,,,,,,,,,,,,,,,,,,,,,,,,,,,,,,,,,,,,,,,,,,
924006,001,2022-11-20_23h53.29.113,Info_measure_main_exp,2022.2.2,Win32,143.6575205,,,,,,,,,,,,,,,,,,masks/mask_003.jpg,,,,,,,,,,,,,,,,,,,,,,,,,,,,,,,,,,,,,,,,,,,0,1,1,2,1,,,,,,,,,,,,,,,,,,,,,,,,,,,,,,,,,,,,,,,,,,,,,,
924006,001,2022-11-20_23h53.29.113,Info_measure_main_exp,2022.2.2,Win32,143.6575205,,,,,,,,,,,,,,,,,,masks/mask_001.jpg,,,,,,,,,,,,,,,,,,,,,,,,,,,,,,,,,,,,,,,,,,,0,2,2,0,1,,,,,,,,,,,,,,,,,,,,,,,,,,,,,,,,,,,,,,,,,,,,,,
924006,001,2022-11-20_23h53.29.113,Info_measure_main_exp,2022.2.2,Win32,143.6575205,,,,,,,,,,,,,,,,,,masks/mask_002.jpg,,,,,,,,,,,,,,,,,,,,,,,,,,,,,,,,,,,,,,,,,,,0,3,3,1,1,,,,,,,,,,,,,,,,,,,,,,,,,,,,,,,,,,,,,,,,,,,,,,
924006,001,2022-11-20_23h53.29.113,Info_measure_main_exp,2022.2.2,Win32,143.6575205,,,,,,,,,,,,,,,,,,masks/mask_005.jpg,,,,,,,,,,,,,,,,,,,,,,,,,,,,,,,,,,,,,,,,,,,0,4,4,4,1,,,,,,,,,,,,,,,,,,,,,,,,,,,,,,,,,,,,,,,,,,,,,,
924006,001,2022-11-20_23h53.29.113,Info_measure_main_exp,2022.2.2,Win32,143.6575205,,,,,,,,,,,,,,,,,,masks/mask_003.jpg,,,,,,,,,,,,,,,,,,,,,,,,,,,,,,,,,,,,,,,,,,,,,,,,0,0,0,2,1,,,,,,,,,,,,,,,,,,,,,,,,,,,,,,,,,,,,,,,,,
924006,001,2022-11-20_23h53.29.113,Info_measure_main_exp,2022.2.2,Win32,143.6575205,,,,,,,,,,,,,,,,,,masks/mask_002.jpg,,,,,,,,,,,,,,,,,,,,,,,,,,,,,,,,,,,,,,,,,,,,,,,,0,1,1,1,1,,,,,,,,,,,,,,,,,,,,,,,,,,,,,,,,,,,,,,,,,
924006,001,2022-11-20_23h53.29.113,Info_measure_main_exp,2022.2.2,Win32,143.6575205,,,,,,,,,,,,,,,,,,masks/mask_004.jpg,,,,,,,,,,,,,,,,,,,,,,,,,,,,,,,,,,,,,,,,,,,,,,,,0,2,2,3,1,,,,,,,,,,,,,,,,,,,,,,,,,,,,,,,,,,,,,,,,,
924006,001,2022-11-20_23h53.29.113,Info_measure_main_exp,2022.2.2,Win32,143.6575205,,,,,,,,,,,,,,,,,,masks/mask_005.jpg,,,,,,,,,,,,,,,,,,,,,,,,,,,,,,,,,,,,,,,,,,,,,,,,0,3,3,4,1,,,,,,,,,,,,,,,,,,,,,,,,,,,,,,,,,,,,,,,,,
924006,001,2022-11-20_23h53.29.113,Info_measure_main_exp,2022.2.2,Win32,143.6575205,,,,,,,,,,,,,,,,,,masks/mask_001.jpg,,,,,,,,,,,,,,,,,,,,,,,,,,,,,,,,,,,,,,,,,,,,,,,,0,4,4,0,1,,,,,,,,,,,,,,,,,,,,,,,,,,,,,,,,,,,,,,,,,
924006,001,2022-11-20_23h53.29.113,Info_measure_main_exp,2022.2.2,Win32,143.6575205,,,,,,,,,,,,,,,,,,,,,,,,,,,,,,0,0.5492,1,,,,,,,,,,,,0,131,5,5,2250,2250,absent_patch/patch0002250.jpg,absent_patch/patch0002250.jpg,,,,,,,,,,,,,,,,,,,,-0.111111111,0.152777778,1,0,0,response7disk,21,0.010185185,-0.005555556,1,0,0,center_square,0,20,20,56,1,,,,,,,,,,,,,,,,,,,,,,,
924006,001,2022-11-20_23h53.29.113,Info_measure_main_exp,2022.2.2,Win32,143.6575205,,,,,,,,,,,,,,,,,,masks/mask_003.jpg,,,,,,,,,,,,,,,,,,,,,,,,,,,,,,,,,,,,,,,,,,,0,0,0,2,1,,,,,,,,,,,,,,,,,,,,,,,,,,,,,,,,,,,,,,,,,,,,,,
924006,001,2022-11-20_23h53.29.113,Info_measure_main_exp,2022.2.2,Win32,143.6575205,,,,,,,,,,,,,,,,,,masks/mask_002.jpg,,,,,,,,,,,,,,,,,,,,,,,,,,,,,,,,,,,,,,,,,,,0,1,1,1,1,,,,,,,,,,,,,,,,,,,,,,,,,,,,,,,,,,,,,,,,,,,,,,
924006,001,2022-11-20_23h53.29.113,Info_measure_main_exp,2022.2.2,Win32,143.6575205,,,,,,,,,,,,,,,,,,masks/mask_004.jpg,,,,,,,,,,,,,,,,,,,,,,,,,,,,,,,,,,,,,,,,,,,0,2,2,3,1,,,,,,,,,,,,,,,,,,,,,,,,,,,,,,,,,,,,,,,,,,,,,,
924006,001,2022-11-20_23h53.29.113,Info_measure_main_exp,2022.2.2,Win32,143.6575205,,,,,,,,,,,,,,,,,,masks/mask_001.jpg,,,,,,,,,,,,,,,,,,,,,,,,,,,,,,,,,,,,,,,,,,,0,3,3,0,1,,,,,,,,,,,,,,,,,,,,,,,,,,,,,,,,,,,,,,,,,,,,,,
924006,001,2022-11-20_23h53.29.113,Info_measure_main_exp,2022.2.2,Win32,143.6575205,,,,,,,,,,,,,,,,,,masks/mask_005.jpg,,,,,,,,,,,,,,,,,,,,,,,,,,,,,,,,,,,,,,,,,,,0,4,4,4,1,,,,,,,,,,,,,,,,,,,,,,,,,,,,,,,,,,,,,,,,,,,,,,
924006,001,2022-11-20_23h53.29.113,Info_measure_main_exp,2022.2.2,Win32,143.6575205,,,,,,,,,,,,,,,,,,masks/mask_003.jpg,,,,,,,,,,,,,,,,,,,,,,,,,,,,,,,,,,,,,,,,,,,,,,,,0,0,0,2,1,,,,,,,,,,,,,,,,,,,,,,,,,,,,,,,,,,,,,,,,,
924006,001,2022-11-20_23h53.29.113,Info_measure_main_exp,2022.2.2,Win32,143.6575205,,,,,,,,,,,,,,,,,,masks/mask_005.jpg,,,,,,,,,,,,,,,,,,,,,,,,,,,,,,,,,,,,,,,,,,,,,,,,0,1,1,4,1,,,,,,,,,,,,,,,,,,,,,,,,,,,,,,,,,,,,,,,,,
924006,001,2022-11-20_23h53.29.113,Info_measure_main_exp,2022.2.2,Win32,143.6575205,,,,,,,,,,,,,,,,,,masks/mask_002.jpg,,,,,,,,,,,,,,,,,,,,,,,,,,,,,,,,,,,,,,,,,,,,,,,,0,2,2,1,1,,,,,,,,,,,,,,,,,,,,,,,,,,,,,,,,,,,,,,,,,
924006,001,2022-11-20_23h53.29.113,Info_measure_main_exp,2022.2.2,Win32,143.6575205,,,,,,,,,,,,,,,,,,masks/mask_001.jpg,,,,,,,,,,,,,,,,,,,,,,,,,,,,,,,,,,,,,,,,,,,,,,,,0,3,3,0,1,,,,,,,,,,,,,,,,,,,,,,,,,,,,,,,,,,,,,,,,,
924006,001,2022-11-20_23h53.29.113,Info_measure_main_exp,2022.2.2,Win32,143.6575205,,,,,,,,,,,,,,,,,,masks/mask_004.jpg,,,,,,,,,,,,,,,,,,,,,,,,,,,,,,,,,,,,,,,,,,,,,,,,0,4,4,3,1,,,,,,,,,,,,,,,,,,,,,,,,,,,,,,,,,,,,,,,,,
924006,001,2022-11-20_23h53.29.113,Info_measure_main_exp,2022.2.2,Win32,143.6575205,,,,,,,,,,,,,,,,,,,,,,,,,,,,,,6,1.2026,1,,,,,,,,,,,,0,131,5,5,2154,2238,absent_patch/patch0002154.jpg,absent_patch/patch0002238.jpg,,,,,,,,,,,,,,,,,,,,0.17037037,0.035185185,1,0,0,response1disk,22,0.00462963,0.001851852,1,0,0,center_square,0,21,21,21,1,,,,,,,,,,,,,,,,,,,,,,,
924006,001,2022-11-20_23h53.29.113,Info_measure_main_exp,2022.2.2,Win32,143.6575205,,,,,,,,,,,,,,,,,,masks/mask_004.jpg,,,,,,,,,,,,,,,,,,,,,,,,,,,,,,,,,,,,,,,,,,,0,0,0,3,1,,,,,,,,,,,,,,,,,,,,,,,,,,,,,,,,,,,,,,,,,,,,,,
924006,001,2022-11-20_23h53.29.113,Info_measure_main_exp,2022.2.2,Win32,143.6575205,,,,,,,,,,,,,,,,,,masks/mask_002.jpg,,,,,,,,,,,,,,,,,,,,,,,,,,,,,,,,,,,,,,,,,,,0,1,1,1,1,,,,,,,,,,,,,,,,,,,,,,,,,,,,,,,,,,,,,,,,,,,,,,
924006,001,2022-11-20_23h53.29.113,Info_measure_main_exp,2022.2.2,Win32,143.6575205,,,,,,,,,,,,,,,,,,masks/mask_003.jpg,,,,,,,,,,,,,,,,,,,,,,,,,,,,,,,,,,,,,,,,,,,0,2,2,2,1,,,,,,,,,,,,,,,,,,,,,,,,,,,,,,,,,,,,,,,,,,,,,,
924006,001,2022-11-20_23h53.29.113,Info_measure_main_exp,2022.2.2,Win32,143.6575205,,,,,,,,,,,,,,,,,,masks/mask_001.jpg,,,,,,,,,,,,,,,,,,,,,,,,,,,,,,,,,,,,,,,,,,,0,3,3,0,1,,,,,,,,,,,,,,,,,,,,,,,,,,,,,,,,,,,,,,,,,,,,,,
924006,001,2022-11-20_23h53.29.113,Info_measure_main_exp,2022.2.2,Win32,143.6575205,,,,,,,,,,,,,,,,,,masks/mask_005.jpg,,,,,,,,,,,,,,,,,,,,,,,,,,,,,,,,,,,,,,,,,,,0,4,4,4,1,,,,,,,,,,,,,,,,,,,,,,,,,,,,,,,,,,,,,,,,,,,,,,
924006,001,2022-11-20_23h53.29.113,Info_measure_main_exp,2022.2.2,Win32,143.6575205,,,,,,,,,,,,,,,,,,masks/mask_003.jpg,,,,,,,,,,,,,,,,,,,,,,,,,,,,,,,,,,,,,,,,,,,,,,,,0,0,0,2,1,,,,,,,,,,,,,,,,,,,,,,,,,,,,,,,,,,,,,,,,,
924006,001,2022-11-20_23h53.29.113,Info_measure_main_exp,2022.2.2,Win32,143.6575205,,,,,,,,,,,,,,,,,,masks/mask_002.jpg,,,,,,,,,,,,,,,,,,,,,,,,,,,,,,,,,,,,,,,,,,,,,,,,0,1,1,1,1,,,,,,,,,,,,,,,,,,,,,,,,,,,,,,,,,,,,,,,,,
924006,001,2022-11-20_23h53.29.113,Info_measure_main_exp,2022.2.2,Win32,143.6575205,,,,,,,,,,,,,,,,,,masks/mask_004.jpg,,,,,,,,,,,,,,,,,,,,,,,,,,,,,,,,,,,,,,,,,,,,,,,,0,2,2,3,1,,,,,,,,,,,,,,,,,,,,,,,,,,,,,,,,,,,,,,,,,
924006,001,2022-11-20_23h53.29.113,Info_measure_main_exp,2022.2.2,Win32,143.6575205,,,,,,,,,,,,,,,,,,masks/mask_001.jpg,,,,,,,,,,,,,,,,,,,,,,,,,,,,,,,,,,,,,,,,,,,,,,,,0,3,3,0,1,,,,,,,,,,,,,,,,,,,,,,,,,,,,,,,,,,,,,,,,,
924006,001,2022-11-20_23h53.29.113,Info_measure_main_exp,2022.2.2,Win32,143.6575205,,,,,,,,,,,,,,,,,,masks/mask_005.jpg,,,,,,,,,,,,,,,,,,,,,,,,,,,,,,,,,,,,,,,,,,,,,,,,0,4,4,4,1,,,,,,,,,,,,,,,,,,,,,,,,,,,,,,,,,,,,,,,,,
924006,001,2022-11-20_23h53.29.113,Info_measure_main_exp,2022.2.2,Win32,143.6575205,,,,,,,,,,,,,,,,,,,,,,,,,,,,,,7,0.577,1,,,,,,,,,,,,0,131,5,5,2142,2154,absent_patch/patch0002142.jpg,absent_patch/patch0002154.jpg,,,,,,,,,,,,,,,,,,,,0.052777778,0.113888889,1,0,0,response1disk,23,0.011111111,-0.00462963,1,0,0,center_square,0,22,22,9,1,,,,,,,,,,,,,,,,,,,,,,,
924006,001,2022-11-20_23h53.29.113,Info_measure_main_exp,2022.2.2,Win32,143.6575205,,,,,,,,,,,,,,,,,,masks/mask_005.jpg,,,,,,,,,,,,,,,,,,,,,,,,,,,,,,,,,,,,,,,,,,,0,0,0,4,1,,,,,,,,,,,,,,,,,,,,,,,,,,,,,,,,,,,,,,,,,,,,,,
924006,001,2022-11-20_23h53.29.113,Info_measure_main_exp,2022.2.2,Win32,143.6575205,,,,,,,,,,,,,,,,,,masks/mask_001.jpg,,,,,,,,,,,,,,,,,,,,,,,,,,,,,,,,,,,,,,,,,,,0,1,1,0,1,,,,,,,,,,,,,,,,,,,,,,,,,,,,,,,,,,,,,,,,,,,,,,
924006,001,2022-11-20_23h53.29.113,Info_measure_main_exp,2022.2.2,Win32,143.6575205,,,,,,,,,,,,,,,,,,masks/mask_004.jpg,,,,,,,,,,,,,,,,,,,,,,,,,,,,,,,,,,,,,,,,,,,0,2,2,3,1,,,,,,,,,,,,,,,,,,,,,,,,,,,,,,,,,,,,,,,,,,,,,,
924006,001,2022-11-20_23h53.29.113,Info_measure_main_exp,2022.2.2,Win32,143.6575205,,,,,,,,,,,,,,,,,,masks/mask_002.jpg,,,,,,,,,,,,,,,,,,,,,,,,,,,,,,,,,,,,,,,,,,,0,3,3,1,1,,,,,,,,,,,,,,,,,,,,,,,,,,,,,,,,,,,,,,,,,,,,,,
924006,001,2022-11-20_23h53.29.113,Info_measure_main_exp,2022.2.2,Win32,143.6575205,,,,,,,,,,,,,,,,,,masks/mask_003.jpg,,,,,,,,,,,,,,,,,,,,,,,,,,,,,,,,,,,,,,,,,,,0,4,4,2,1,,,,,,,,,,,,,,,,,,,,,,,,,,,,,,,,,,,,,,,,,,,,,,
924006,001,2022-11-20_23h53.29.113,Info_measure_main_exp,2022.2.2,Win32,143.6575205,,,,,,,,,,,,,,,,,,masks/mask_003.jpg,,,,,,,,,,,,,,,,,,,,,,,,,,,,,,,,,,,,,,,,,,,,,,,,0,0,0,2,1,,,,,,,,,,,,,,,,,,,,,,,,,,,,,,,,,,,,,,,,,
924006,001,2022-11-20_23h53.29.113,Info_measure_main_exp,2022.2.2,Win32,143.6575205,,,,,,,,,,,,,,,,,,masks/mask_002.jpg,,,,,,,,,,,,,,,,,,,,,,,,,,,,,,,,,,,,,,,,,,,,,,,,0,1,1,1,1,,,,,,,,,,,,,,,,,,,,,,,,,,,,,,,,,,,,,,,,,
924006,001,2022-11-20_23h53.29.113,Info_measure_main_exp,2022.2.2,Win32,143.6575205,,,,,,,,,,,,,,,,,,masks/mask_005.jpg,,,,,,,,,,,,,,,,,,,,,,,,,,,,,,,,,,,,,,,,,,,,,,,,0,2,2,4,1,,,,,,,,,,,,,,,,,,,,,,,,,,,,,,,,,,,,,,,,,
924006,001,2022-11-20_23h53.29.113,Info_measure_main_exp,2022.2.2,Win32,143.6575205,,,,,,,,,,,,,,,,,,masks/mask_004.jpg,,,,,,,,,,,,,,,,,,,,,,,,,,,,,,,,,,,,,,,,,,,,,,,,0,3,3,3,1,,,,,,,,,,,,,,,,,,,,,,,,,,,,,,,,,,,,,,,,,
924006,001,2022-11-20_23h53.29.113,Info_measure_main_exp,2022.2.2,Win32,143.6575205,,,,,,,,,,,,,,,,,,masks/mask_001.jpg,,,,,,,,,,,,,,,,,,,,,,,,,,,,,,,,,,,,,,,,,,,,,,,,0,4,4,0,1,,,,,,,,,,,,,,,,,,,,,,,,,,,,,,,,,,,,,,,,,
924006,001,2022-11-20_23h53.29.113,Info_measure_main_exp,2022.2.2,Win32,143.6575205,,,,,,,,,,,,,,,,,,,,,,,,,,,,,,2,0.7092,1,,,,,,,,,,,,0,131,5,5,1974,1950,absent_patch/patch0001974.jpg,absent_patch/patch0001950.jpg,,,,,,,,,,,,,,,,,,,,-0.098148148,-0.050925926,1,0,0,response5disk,24,0.002777778,-0.002777778,1,0,0,center_square,0,23,23,17,1,,,,,,,,,,,,,,,,,,,,,,,
924006,001,2022-11-20_23h53.29.113,Info_measure_main_exp,2022.2.2,Win32,143.6575205,,,,,,,,,,,,,,,,,,masks/mask_001.jpg,,,,,,,,,,,,,,,,,,,,,,,,,,,,,,,,,,,,,,,,,,,0,0,0,0,1,,,,,,,,,,,,,,,,,,,,,,,,,,,,,,,,,,,,,,,,,,,,,,
924006,001,2022-11-20_23h53.29.113,Info_measure_main_exp,2022.2.2,Win32,143.6575205,,,,,,,,,,,,,,,,,,masks/mask_002.jpg,,,,,,,,,,,,,,,,,,,,,,,,,,,,,,,,,,,,,,,,,,,0,1,1,1,1,,,,,,,,,,,,,,,,,,,,,,,,,,,,,,,,,,,,,,,,,,,,,,
924006,001,2022-11-20_23h53.29.113,Info_measure_main_exp,2022.2.2,Win32,143.6575205,,,,,,,,,,,,,,,,,,masks/mask_004.jpg,,,,,,,,,,,,,,,,,,,,,,,,,,,,,,,,,,,,,,,,,,,0,2,2,3,1,,,,,,,,,,,,,,,,,,,,,,,,,,,,,,,,,,,,,,,,,,,,,,
924006,001,2022-11-20_23h53.29.113,Info_measure_main_exp,2022.2.2,Win32,143.6575205,,,,,,,,,,,,,,,,,,masks/mask_005.jpg,,,,,,,,,,,,,,,,,,,,,,,,,,,,,,,,,,,,,,,,,,,0,3,3,4,1,,,,,,,,,,,,,,,,,,,,,,,,,,,,,,,,,,,,,,,,,,,,,,
924006,001,2022-11-20_23h53.29.113,Info_measure_main_exp,2022.2.2,Win32,143.6575205,,,,,,,,,,,,,,,,,,masks/mask_003.jpg,,,,,,,,,,,,,,,,,,,,,,,,,,,,,,,,,,,,,,,,,,,0,4,4,2,1,,,,,,,,,,,,,,,,,,,,,,,,,,,,,,,,,,,,,,,,,,,,,,
924006,001,2022-11-20_23h53.29.113,Info_measure_main_exp,2022.2.2,Win32,143.6575205,,,,,,,,,,,,,,,,,,masks/mask_004.jpg,,,,,,,,,,,,,,,,,,,,,,,,,,,,,,,,,,,,,,,,,,,,,,,,0,0,0,3,1,,,,,,,,,,,,,,,,,,,,,,,,,,,,,,,,,,,,,,,,,
924006,001,2022-11-20_23h53.29.113,Info_measure_main_exp,2022.2.2,Win32,143.6575205,,,,,,,,,,,,,,,,,,masks/mask_001.jpg,,,,,,,,,,,,,,,,,,,,,,,,,,,,,,,,,,,,,,,,,,,,,,,,0,1,1,0,1,,,,,,,,,,,,,,,,,,,,,,,,,,,,,,,,,,,,,,,,,
924006,001,2022-11-20_23h53.29.113,Info_measure_main_exp,2022.2.2,Win32,143.6575205,,,,,,,,,,,,,,,,,,masks/mask_005.jpg,,,,,,,,,,,,,,,,,,,,,,,,,,,,,,,,,,,,,,,,,,,,,,,,0,2,2,4,1,,,,,,,,,,,,,,,,,,,,,,,,,,,,,,,,,,,,,,,,,
924006,001,2022-11-20_23h53.29.113,Info_measure_main_exp,2022.2.2,Win32,143.6575205,,,,,,,,,,,,,,,,,,masks/mask_002.jpg,,,,,,,,,,,,,,,,,,,,,,,,,,,,,,,,,,,,,,,,,,,,,,,,0,3,3,1,1,,,,,,,,,,,,,,,,,,,,,,,,,,,,,,,,,,,,,,,,,
924006,001,2022-11-20_23h53.29.113,Info_measure_main_exp,2022.2.2,Win32,143.6575205,,,,,,,,,,,,,,,,,,masks/mask_003.jpg,,,,,,,,,,,,,,,,,,,,,,,,,,,,,,,,,,,,,,,,,,,,,,,,0,4,4,2,1,,,,,,,,,,,,,,,,,,,,,,,,,,,,,,,,,,,,,,,,,
924006,001,2022-11-20_23h53.29.113,Info_measure_main_exp,2022.2.2,Win32,143.6575205,,,,,,,,,,,,,,,,,,,,,,,,,,,,,,7,0.5563,1,,,,,,,,,,,,0,131,5,5,2082,1974,absent_patch/patch0002082.jpg,absent_patch/patch0001974.jpg,,,,,,,,,,,,,,,,,,,,0.056481481,0.084259259,1,0,0,response1disk,25,-0.002777778,-0.000925926,1,0,0,center_square,0,24,24,26,1,,,,,,,,,,,,,,,,,,,,,,,
924006,001,2022-11-20_23h53.29.113,Info_measure_main_exp,2022.2.2,Win32,143.6575205,,,,,,,,,,,,,,,,,,masks/mask_003.jpg,,,,,,,,,,,,,,,,,,,,,,,,,,,,,,,,,,,,,,,,,,,0,0,0,2,1,,,,,,,,,,,,,,,,,,,,,,,,,,,,,,,,,,,,,,,,,,,,,,
924006,001,2022-11-20_23h53.29.113,Info_measure_main_exp,2022.2.2,Win32,143.6575205,,,,,,,,,,,,,,,,,,masks/mask_005.jpg,,,,,,,,,,,,,,,,,,,,,,,,,,,,,,,,,,,,,,,,,,,0,1,1,4,1,,,,,,,,,,,,,,,,,,,,,,,,,,,,,,,,,,,,,,,,,,,,,,
924006,001,2022-11-20_23h53.29.113,Info_measure_main_exp,2022.2.2,Win32,143.6575205,,,,,,,,,,,,,,,,,,masks/mask_004.jpg,,,,,,,,,,,,,,,,,,,,,,,,,,,,,,,,,,,,,,,,,,,0,2,2,3,1,,,,,,,,,,,,,,,,,,,,,,,,,,,,,,,,,,,,,,,,,,,,,,
924006,001,2022-11-20_23h53.29.113,Info_measure_main_exp,2022.2.2,Win32,143.6575205,,,,,,,,,,,,,,,,,,masks/mask_002.jpg,,,,,,,,,,,,,,,,,,,,,,,,,,,,,,,,,,,,,,,,,,,0,3,3,1,1,,,,,,,,,,,,,,,,,,,,,,,,,,,,,,,,,,,,,,,,,,,,,,
924006,001,2022-11-20_23h53.29.113,Info_measure_main_exp,2022.2.2,Win32,143.6575205,,,,,,,,,,,,,,,,,,masks/mask_001.jpg,,,,,,,,,,,,,,,,,,,,,,,,,,,,,,,,,,,,,,,,,,,0,4,4,0,1,,,,,,,,,,,,,,,,,,,,,,,,,,,,,,,,,,,,,,,,,,,,,,
924006,001,2022-11-20_23h53.29.113,Info_measure_main_exp,2022.2.2,Win32,143.6575205,,,,,,,,,,,,,,,,,,masks/mask_002.jpg,,,,,,,,,,,,,,,,,,,,,,,,,,,,,,,,,,,,,,,,,,,,,,,,0,0,0,1,1,,,,,,,,,,,,,,,,,,,,,,,,,,,,,,,,,,,,,,,,,
924006,001,2022-11-20_23h53.29.113,Info_measure_main_exp,2022.2.2,Win32,143.6575205,,,,,,,,,,,,,,,,,,masks/mask_005.jpg,,,,,,,,,,,,,,,,,,,,,,,,,,,,,,,,,,,,,,,,,,,,,,,,0,1,1,4,1,,,,,,,,,,,,,,,,,,,,,,,,,,,,,,,,,,,,,,,,,
924006,001,2022-11-20_23h53.29.113,Info_measure_main_exp,2022.2.2,Win32,143.6575205,,,,,,,,,,,,,,,,,,masks/mask_001.jpg,,,,,,,,,,,,,,,,,,,,,,,,,,,,,,,,,,,,,,,,,,,,,,,,0,2,2,0,1,,,,,,,,,,,,,,,,,,,,,,,,,,,,,,,,,,,,,,,,,
924006,001,2022-11-20_23h53.29.113,Info_measure_main_exp,2022.2.2,Win32,143.6575205,,,,,,,,,,,,,,,,,,masks/mask_003.jpg,,,,,,,,,,,,,,,,,,,,,,,,,,,,,,,,,,,,,,,,,,,,,,,,0,3,3,2,1,,,,,,,,,,,,,,,,,,,,,,,,,,,,,,,,,,,,,,,,,
924006,001,2022-11-20_23h53.29.113,Info_measure_main_exp,2022.2.2,Win32,143.6575205,,,,,,,,,,,,,,,,,,masks/mask_004.jpg,,,,,,,,,,,,,,,,,,,,,,,,,,,,,,,,,,,,,,,,,,,,,,,,0,4,4,3,1,,,,,,,,,,,,,,,,,,,,,,,,,,,,,,,,,,,,,,,,,
924006,001,2022-11-20_23h53.29.113,Info_measure_main_exp,2022.2.2,Win32,143.6575205,,,,,,,,,,,,,,,,,,,,,,,,,,,,,,6,0.8969,1,,,,,,,,,,,,0,131,5,5,2142,2166,absent_patch/patch0002142.jpg,absent_patch/patch0002166.jpg,,,,,,,,,,,,,,,,,,,,0.069444444,0.040740741,1,0,0,response1disk,26,-0.001851852,0.00462963,1,0,0,center_square,0,25,25,66,1,,,,,,,,,,,,,,,,,,,,,,,
924006,001,2022-11-20_23h53.29.113,Info_measure_main_exp,2022.2.2,Win32,143.6575205,,,,,,,,,,,,,,,,,,masks/mask_003.jpg,,,,,,,,,,,,,,,,,,,,,,,,,,,,,,,,,,,,,,,,,,,0,0,0,2,1,,,,,,,,,,,,,,,,,,,,,,,,,,,,,,,,,,,,,,,,,,,,,,
924006,001,2022-11-20_23h53.29.113,Info_measure_main_exp,2022.2.2,Win32,143.6575205,,,,,,,,,,,,,,,,,,masks/mask_005.jpg,,,,,,,,,,,,,,,,,,,,,,,,,,,,,,,,,,,,,,,,,,,0,1,1,4,1,,,,,,,,,,,,,,,,,,,,,,,,,,,,,,,,,,,,,,,,,,,,,,
924006,001,2022-11-20_23h53.29.113,Info_measure_main_exp,2022.2.2,Win32,143.6575205,,,,,,,,,,,,,,,,,,masks/mask_001.jpg,,,,,,,,,,,,,,,,,,,,,,,,,,,,,,,,,,,,,,,,,,,0,2,2,0,1,,,,,,,,,,,,,,,,,,,,,,,,,,,,,,,,,,,,,,,,,,,,,,
924006,001,2022-11-20_23h53.29.113,Info_measure_main_exp,2022.2.2,Win32,143.6575205,,,,,,,,,,,,,,,,,,masks/mask_004.jpg,,,,,,,,,,,,,,,,,,,,,,,,,,,,,,,,,,,,,,,,,,,0,3,3,3,1,,,,,,,,,,,,,,,,,,,,,,,,,,,,,,,,,,,,,,,,,,,,,,
924006,001,2022-11-20_23h53.29.113,Info_measure_main_exp,2022.2.2,Win32,143.6575205,,,,,,,,,,,,,,,,,,masks/mask_002.jpg,,,,,,,,,,,,,,,,,,,,,,,,,,,,,,,,,,,,,,,,,,,0,4,4,1,1,,,,,,,,,,,,,,,,,,,,,,,,,,,,,,,,,,,,,,,,,,,,,,
924006,001,2022-11-20_23h53.29.113,Info_measure_main_exp,2022.2.2,Win32,143.6575205,,,,,,,,,,,,,,,,,,masks/mask_005.jpg,,,,,,,,,,,,,,,,,,,,,,,,,,,,,,,,,,,,,,,,,,,,,,,,0,0,0,4,1,,,,,,,,,,,,,,,,,,,,,,,,,,,,,,,,,,,,,,,,,
924006,001,2022-11-20_23h53.29.113,Info_measure_main_exp,2022.2.2,Win32,143.6575205,,,,,,,,,,,,,,,,,,masks/mask_003.jpg,,,,,,,,,,,,,,,,,,,,,,,,,,,,,,,,,,,,,,,,,,,,,,,,0,1,1,2,1,,,,,,,,,,,,,,,,,,,,,,,,,,,,,,,,,,,,,,,,,
924006,001,2022-11-20_23h53.29.113,Info_measure_main_exp,2022.2.2,Win32,143.6575205,,,,,,,,,,,,,,,,,,masks/mask_001.jpg,,,,,,,,,,,,,,,,,,,,,,,,,,,,,,,,,,,,,,,,,,,,,,,,0,2,2,0,1,,,,,,,,,,,,,,,,,,,,,,,,,,,,,,,,,,,,,,,,,
924006,001,2022-11-20_23h53.29.113,Info_measure_main_exp,2022.2.2,Win32,143.6575205,,,,,,,,,,,,,,,,,,masks/mask_002.jpg,,,,,,,,,,,,,,,,,,,,,,,,,,,,,,,,,,,,,,,,,,,,,,,,0,3,3,1,1,,,,,,,,,,,,,,,,,,,,,,,,,,,,,,,,,,,,,,,,,
924006,001,2022-11-20_23h53.29.113,Info_measure_main_exp,2022.2.2,Win32,143.6575205,,,,,,,,,,,,,,,,,,masks/mask_004.jpg,,,,,,,,,,,,,,,,,,,,,,,,,,,,,,,,,,,,,,,,,,,,,,,,0,4,4,3,1,,,,,,,,,,,,,,,,,,,,,,,,,,,,,,,,,,,,,,,,,
924006,001,2022-11-20_23h53.29.113,Info_measure_main_exp,2022.2.2,Win32,143.6575205,,,,,,,,,,,,,,,,,,,,,,,,,,,,,,7,0.6257,1,,,,,,,,,,,,0,131,5,5,2082,1986,absent_patch/patch0002082.jpg,absent_patch/patch0001986.jpg,,,,,,,,,,,,,,,,,,,,0.032407407,0.089814815,1,0,0,response1disk,27,0.006481481,-0.007407407,1,0,0,center_square,0,26,26,94,1,,,,,,,,,,,,,,,,,,,,,,,
924006,001,2022-11-20_23h53.29.113,Info_measure_main_exp,2022.2.2,Win32,143.6575205,,,,,,,,,,,,,,,,,,masks/mask_003.jpg,,,,,,,,,,,,,,,,,,,,,,,,,,,,,,,,,,,,,,,,,,,0,0,0,2,1,,,,,,,,,,,,,,,,,,,,,,,,,,,,,,,,,,,,,,,,,,,,,,
924006,001,2022-11-20_23h53.29.113,Info_measure_main_exp,2022.2.2,Win32,143.6575205,,,,,,,,,,,,,,,,,,masks/mask_002.jpg,,,,,,,,,,,,,,,,,,,,,,,,,,,,,,,,,,,,,,,,,,,0,1,1,1,1,,,,,,,,,,,,,,,,,,,,,,,,,,,,,,,,,,,,,,,,,,,,,,
924006,001,2022-11-20_23h53.29.113,Info_measure_main_exp,2022.2.2,Win32,143.6575205,,,,,,,,,,,,,,,,,,masks/mask_005.jpg,,,,,,,,,,,,,,,,,,,,,,,,,,,,,,,,,,,,,,,,,,,0,2,2,4,1,,,,,,,,,,,,,,,,,,,,,,,,,,,,,,,,,,,,,,,,,,,,,,
924006,001,2022-11-20_23h53.29.113,Info_measure_main_exp,2022.2.2,Win32,143.6575205,,,,,,,,,,,,,,,,,,masks/mask_004.jpg,,,,,,,,,,,,,,,,,,,,,,,,,,,,,,,,,,,,,,,,,,,0,3,3,3,1,,,,,,,,,,,,,,,,,,,,,,,,,,,,,,,,,,,,,,,,,,,,,,
924006,001,2022-11-20_23h53.29.113,Info_measure_main_exp,2022.2.2,Win32,143.6575205,,,,,,,,,,,,,,,,,,masks/mask_001.jpg,,,,,,,,,,,,,,,,,,,,,,,,,,,,,,,,,,,,,,,,,,,0,4,4,0,1,,,,,,,,,,,,,,,,,,,,,,,,,,,,,,,,,,,,,,,,,,,,,,
924006,001,2022-11-20_23h53.29.113,Info_measure_main_exp,2022.2.2,Win32,143.6575205,,,,,,,,,,,,,,,,,,masks/mask_005.jpg,,,,,,,,,,,,,,,,,,,,,,,,,,,,,,,,,,,,,,,,,,,,,,,,0,0,0,4,1,,,,,,,,,,,,,,,,,,,,,,,,,,,,,,,,,,,,,,,,,
924006,001,2022-11-20_23h53.29.113,Info_measure_main_exp,2022.2.2,Win32,143.6575205,,,,,,,,,,,,,,,,,,masks/mask_002.jpg,,,,,,,,,,,,,,,,,,,,,,,,,,,,,,,,,,,,,,,,,,,,,,,,0,1,1,1,1,,,,,,,,,,,,,,,,,,,,,,,,,,,,,,,,,,,,,,,,,
924006,001,2022-11-20_23h53.29.113,Info_measure_main_exp,2022.2.2,Win32,143.6575205,,,,,,,,,,,,,,,,,,masks/mask_004.jpg,,,,,,,,,,,,,,,,,,,,,,,,,,,,,,,,,,,,,,,,,,,,,,,,0,2,2,3,1,,,,,,,,,,,,,,,,,,,,,,,,,,,,,,,,,,,,,,,,,
924006,001,2022-11-20_23h53.29.113,Info_measure_main_exp,2022.2.2,Win32,143.6575205,,,,,,,,,,,,,,,,,,masks/mask_001.jpg,,,,,,,,,,,,,,,,,,,,,,,,,,,,,,,,,,,,,,,,,,,,,,,,0,3,3,0,1,,,,,,,,,,,,,,,,,,,,,,,,,,,,,,,,,,,,,,,,,
924006,001,2022-11-20_23h53.29.113,Info_measure_main_exp,2022.2.2,Win32,143.6575205,,,,,,,,,,,,,,,,,,masks/mask_003.jpg,,,,,,,,,,,,,,,,,,,,,,,,,,,,,,,,,,,,,,,,,,,,,,,,0,4,4,2,1,,,,,,,,,,,,,,,,,,,,,,,,,,,,,,,,,,,,,,,,,
924006,001,2022-11-20_23h53.29.113,Info_measure_main_exp,2022.2.2,Win32,143.6575205,,,,,,,,,,,,,,,,,,,,,,,,,,,,,,7,0.4866,1,,,,,,,,,,,,0,131,5,5,2154,2214,absent_patch/patch0002154.jpg,absent_patch/patch0002214.jpg,,,,,,,,,,,,,,,,,,,,0.034259259,0.075,1,0,0,response1disk,28,0.008333333,-0.00462963,1,0,0,center_square,0,27,27,67,1,,,,,,,,,,,,,,,,,,,,,,,
924006,001,2022-11-20_23h53.29.113,Info_measure_main_exp,2022.2.2,Win32,143.6575205,,,,,,,,,,,,,,,,,,masks/mask_004.jpg,,,,,,,,,,,,,,,,,,,,,,,,,,,,,,,,,,,,,,,,,,,0,0,0,3,1,,,,,,,,,,,,,,,,,,,,,,,,,,,,,,,,,,,,,,,,,,,,,,
924006,001,2022-11-20_23h53.29.113,Info_measure_main_exp,2022.2.2,Win32,143.6575205,,,,,,,,,,,,,,,,,,masks/mask_003.jpg,,,,,,,,,,,,,,,,,,,,,,,,,,,,,,,,,,,,,,,,,,,0,1,1,2,1,,,,,,,,,,,,,,,,,,,,,,,,,,,,,,,,,,,,,,,,,,,,,,
924006,001,2022-11-20_23h53.29.113,Info_measure_main_exp,2022.2.2,Win32,143.6575205,,,,,,,,,,,,,,,,,,masks/mask_005.jpg,,,,,,,,,,,,,,,,,,,,,,,,,,,,,,,,,,,,,,,,,,,0,2,2,4,1,,,,,,,,,,,,,,,,,,,,,,,,,,,,,,,,,,,,,,,,,,,,,,
924006,001,2022-11-20_23h53.29.113,Info_measure_main_exp,2022.2.2,Win32,143.6575205,,,,,,,,,,,,,,,,,,masks/mask_001.jpg,,,,,,,,,,,,,,,,,,,,,,,,,,,,,,,,,,,,,,,,,,,0,3,3,0,1,,,,,,,,,,,,,,,,,,,,,,,,,,,,,,,,,,,,,,,,,,,,,,
924006,001,2022-11-20_23h53.29.113,Info_measure_main_exp,2022.2.2,Win32,143.6575205,,,,,,,,,,,,,,,,,,masks/mask_002.jpg,,,,,,,,,,,,,,,,,,,,,,,,,,,,,,,,,,,,,,,,,,,0,4,4,1,1,,,,,,,,,,,,,,,,,,,,,,,,,,,,,,,,,,,,,,,,,,,,,,
924006,001,2022-11-20_23h53.29.113,Info_measure_main_exp,2022.2.2,Win32,143.6575205,,,,,,,,,,,,,,,,,,masks/mask_004.jpg,,,,,,,,,,,,,,,,,,,,,,,,,,,,,,,,,,,,,,,,,,,,,,,,0,0,0,3,1,,,,,,,,,,,,,,,,,,,,,,,,,,,,,,,,,,,,,,,,,
924006,001,2022-11-20_23h53.29.113,Info_measure_main_exp,2022.2.2,Win32,143.6575205,,,,,,,,,,,,,,,,,,masks/mask_002.jpg,,,,,,,,,,,,,,,,,,,,,,,,,,,,,,,,,,,,,,,,,,,,,,,,0,1,1,1,1,,,,,,,,,,,,,,,,,,,,,,,,,,,,,,,,,,,,,,,,,
924006,001,2022-11-20_23h53.29.113,Info_measure_main_exp,2022.2.2,Win32,143.6575205,,,,,,,,,,,,,,,,,,masks/mask_005.jpg,,,,,,,,,,,,,,,,,,,,,,,,,,,,,,,,,,,,,,,,,,,,,,,,0,2,2,4,1,,,,,,,,,,,,,,,,,,,,,,,,,,,,,,,,,,,,,,,,,
924006,001,2022-11-20_23h53.29.113,Info_measure_main_exp,2022.2.2,Win32,143.6575205,,,,,,,,,,,,,,,,,,masks/mask_001.jpg,,,,,,,,,,,,,,,,,,,,,,,,,,,,,,,,,,,,,,,,,,,,,,,,0,3,3,0,1,,,,,,,,,,,,,,,,,,,,,,,,,,,,,,,,,,,,,,,,,
924006,001,2022-11-20_23h53.29.113,Info_measure_main_exp,2022.2.2,Win32,143.6575205,,,,,,,,,,,,,,,,,,masks/mask_003.jpg,,,,,,,,,,,,,,,,,,,,,,,,,,,,,,,,,,,,,,,,,,,,,,,,0,4,4,2,1,,,,,,,,,,,,,,,,,,,,,,,,,,,,,,,,,,,,,,,,,
924006,001,2022-11-20_23h53.29.113,Info_measure_main_exp,2022.2.2,Win32,143.6575205,,,,,,,,,,,,,,,,,,,,,,,,,,,,,,7,0.5423,1,,,,,,,,,,,,0,131,5,5,2250,1986,absent_patch/patch0002250.jpg,absent_patch/patch0001986.jpg,,,,,,,,,,,,,,,,,,,,0.033333333,0.098148148,1,0,0,response1disk,29,0.005555556,0.00462963,1,0,0,center_square,0,28,28,29,1,,,,,,,,,,,,,,,,,,,,,,,
924006,001,2022-11-20_23h53.29.113,Info_measure_main_exp,2022.2.2,Win32,143.6575205,,,,,,,,,,,,,,,,,,masks/mask_004.jpg,,,,,,,,,,,,,,,,,,,,,,,,,,,,,,,,,,,,,,,,,,,0,0,0,3,1,,,,,,,,,,,,,,,,,,,,,,,,,,,,,,,,,,,,,,,,,,,,,,
924006,001,2022-11-20_23h53.29.113,Info_measure_main_exp,2022.2.2,Win32,143.6575205,,,,,,,,,,,,,,,,,,masks/mask_003.jpg,,,,,,,,,,,,,,,,,,,,,,,,,,,,,,,,,,,,,,,,,,,0,1,1,2,1,,,,,,,,,,,,,,,,,,,,,,,,,,,,,,,,,,,,,,,,,,,,,,
924006,001,2022-11-20_23h53.29.113,Info_measure_main_exp,2022.2.2,Win32,143.6575205,,,,,,,,,,,,,,,,,,masks/mask_005.jpg,,,,,,,,,,,,,,,,,,,,,,,,,,,,,,,,,,,,,,,,,,,0,2,2,4,1,,,,,,,,,,,,,,,,,,,,,,,,,,,,,,,,,,,,,,,,,,,,,,
924006,001,2022-11-20_23h53.29.113,Info_measure_main_exp,2022.2.2,Win32,143.6575205,,,,,,,,,,,,,,,,,,masks/mask_002.jpg,,,,,,,,,,,,,,,,,,,,,,,,,,,,,,,,,,,,,,,,,,,0,3,3,1,1,,,,,,,,,,,,,,,,,,,,,,,,,,,,,,,,,,,,,,,,,,,,,,
924006,001,2022-11-20_23h53.29.113,Info_measure_main_exp,2022.2.2,Win32,143.6575205,,,,,,,,,,,,,,,,,,masks/mask_001.jpg,,,,,,,,,,,,,,,,,,,,,,,,,,,,,,,,,,,,,,,,,,,0,4,4,0,1,,,,,,,,,,,,,,,,,,,,,,,,,,,,,,,,,,,,,,,,,,,,,,
924006,001,2022-11-20_23h53.29.113,Info_measure_main_exp,2022.2.2,Win32,143.6575205,,,,,,,,,,,,,,,,,,masks/mask_002.jpg,,,,,,,,,,,,,,,,,,,,,,,,,,,,,,,,,,,,,,,,,,,,,,,,0,0,0,1,1,,,,,,,,,,,,,,,,,,,,,,,,,,,,,,,,,,,,,,,,,
924006,001,2022-11-20_23h53.29.113,Info_measure_main_exp,2022.2.2,Win32,143.6575205,,,,,,,,,,,,,,,,,,masks/mask_005.jpg,,,,,,,,,,,,,,,,,,,,,,,,,,,,,,,,,,,,,,,,,,,,,,,,0,1,1,4,1,,,,,,,,,,,,,,,,,,,,,,,,,,,,,,,,,,,,,,,,,
924006,001,2022-11-20_23h53.29.113,Info_measure_main_exp,2022.2.2,Win32,143.6575205,,,,,,,,,,,,,,,,,,masks/mask_001.jpg,,,,,,,,,,,,,,,,,,,,,,,,,,,,,,,,,,,,,,,,,,,,,,,,0,2,2,0,1,,,,,,,,,,,,,,,,,,,,,,,,,,,,,,,,,,,,,,,,,
924006,001,2022-11-20_23h53.29.113,Info_measure_main_exp,2022.2.2,Win32,143.6575205,,,,,,,,,,,,,,,,,,masks/mask_004.jpg,,,,,,,,,,,,,,,,,,,,,,,,,,,,,,,,,,,,,,,,,,,,,,,,0,3,3,3,1,,,,,,,,,,,,,,,,,,,,,,,,,,,,,,,,,,,,,,,,,
924006,001,2022-11-20_23h53.29.113,Info_measure_main_exp,2022.2.2,Win32,143.6575205,,,,,,,,,,,,,,,,,,masks/mask_003.jpg,,,,,,,,,,,,,,,,,,,,,,,,,,,,,,,,,,,,,,,,,,,,,,,,0,4,4,2,1,,,,,,,,,,,,,,,,,,,,,,,,,,,,,,,,,,,,,,,,,
924006,001,2022-11-20_23h53.29.113,Info_measure_main_exp,2022.2.2,Win32,143.6575205,,,,,,,,,,,,,,,,,,,,,,,,,,,,,,7,0.9316,1,,,,,,,,,,,,0,131,5,5,2214,2142,absent_patch/patch0002214.jpg,absent_patch/patch0002142.jpg,,,,,,,,,,,,,,,,,,,,0.030555556,0.087037037,1,0,0,response1disk,30,-0.001851852,0.002777778,1,0,0,center_square,0,29,29,102,1,,,,,,,,,,,,,,,,,,,,,,,
924006,001,2022-11-20_23h53.29.113,Info_measure_main_exp,2022.2.2,Win32,143.6575205,,,,,,,,,,,,,,,,,,masks/mask_005.jpg,,,,,,,,,,,,,,,,,,,,,,,,,,,,,,,,,,,,,,,,,,,0,0,0,4,1,,,,,,,,,,,,,,,,,,,,,,,,,,,,,,,,,,,,,,,,,,,,,,
924006,001,2022-11-20_23h53.29.113,Info_measure_main_exp,2022.2.2,Win32,143.6575205,,,,,,,,,,,,,,,,,,masks/mask_004.jpg,,,,,,,,,,,,,,,,,,,,,,,,,,,,,,,,,,,,,,,,,,,0,1,1,3,1,,,,,,,,,,,,,,,,,,,,,,,,,,,,,,,,,,,,,,,,,,,,,,
924006,001,2022-11-20_23h53.29.113,Info_measure_main_exp,2022.2.2,Win32,143.6575205,,,,,,,,,,,,,,,,,,masks/mask_002.jpg,,,,,,,,,,,,,,,,,,,,,,,,,,,,,,,,,,,,,,,,,,,0,2,2,1,1,,,,,,,,,,,,,,,,,,,,,,,,,,,,,,,,,,,,,,,,,,,,,,
924006,001,2022-11-20_23h53.29.113,Info_measure_main_exp,2022.2.2,Win32,143.6575205,,,,,,,,,,,,,,,,,,masks/mask_001.jpg,,,,,,,,,,,,,,,,,,,,,,,,,,,,,,,,,,,,,,,,,,,0,3,3,0,1,,,,,,,,,,,,,,,,,,,,,,,,,,,,,,,,,,,,,,,,,,,,,,
924006,001,2022-11-20_23h53.29.113,Info_measure_main_exp,2022.2.2,Win32,143.6575205,,,,,,,,,,,,,,,,,,masks/mask_003.jpg,,,,,,,,,,,,,,,,,,,,,,,,,,,,,,,,,,,,,,,,,,,0,4,4,2,1,,,,,,,,,,,,,,,,,,,,,,,,,,,,,,,,,,,,,,,,,,,,,,
924006,001,2022-11-20_23h53.29.113,Info_measure_main_exp,2022.2.2,Win32,143.6575205,,,,,,,,,,,,,,,,,,masks/mask_003.jpg,,,,,,,,,,,,,,,,,,,,,,,,,,,,,,,,,,,,,,,,,,,,,,,,0,0,0,2,1,,,,,,,,,,,,,,,,,,,,,,,,,,,,,,,,,,,,,,,,,
924006,001,2022-11-20_23h53.29.113,Info_measure_main_exp,2022.2.2,Win32,143.6575205,,,,,,,,,,,,,,,,,,masks/mask_002.jpg,,,,,,,,,,,,,,,,,,,,,,,,,,,,,,,,,,,,,,,,,,,,,,,,0,1,1,1,1,,,,,,,,,,,,,,,,,,,,,,,,,,,,,,,,,,,,,,,,,
924006,001,2022-11-20_23h53.29.113,Info_measure_main_exp,2022.2.2,Win32,143.6575205,,,,,,,,,,,,,,,,,,masks/mask_005.jpg,,,,,,,,,,,,,,,,,,,,,,,,,,,,,,,,,,,,,,,,,,,,,,,,0,2,2,4,1,,,,,,,,,,,,,,,,,,,,,,,,,,,,,,,,,,,,,,,,,
924006,001,2022-11-20_23h53.29.113,Info_measure_main_exp,2022.2.2,Win32,143.6575205,,,,,,,,,,,,,,,,,,masks/mask_004.jpg,,,,,,,,,,,,,,,,,,,,,,,,,,,,,,,,,,,,,,,,,,,,,,,,0,3,3,3,1,,,,,,,,,,,,,,,,,,,,,,,,,,,,,,,,,,,,,,,,,
924006,001,2022-11-20_23h53.29.113,Info_measure_main_exp,2022.2.2,Win32,143.6575205,,,,,,,,,,,,,,,,,,masks/mask_001.jpg,,,,,,,,,,,,,,,,,,,,,,,,,,,,,,,,,,,,,,,,,,,,,,,,0,4,4,0,1,,,,,,,,,,,,,,,,,,,,,,,,,,,,,,,,,,,,,,,,,
924006,001,2022-11-20_23h53.29.113,Info_measure_main_exp,2022.2.2,Win32,143.6575205,,,,,,,,,,,,,,,,,,,,,,,,,,,,,,7,1.4878,1,,,,,,,,,,,,0,131,5,5,2238,2238,absent_patch/patch0002238.jpg,absent_patch/patch0002238.jpg,,,,,,,,,,,,,,,,,,,,0.027777778,0.067592593,1,0,0,response1disk,31,0.005555556,0.000925926,1,0,0,center_square,0,30,30,58,1,,,,,,,,,,,,,,,,,,,,,,,
924006,001,2022-11-20_23h53.29.113,Info_measure_main_exp,2022.2.2,Win32,143.6575205,,,,,,,,,,,,,,,,,,masks/mask_002.jpg,,,,,,,,,,,,,,,,,,,,,,,,,,,,,,,,,,,,,,,,,,,0,0,0,1,1,,,,,,,,,,,,,,,,,,,,,,,,,,,,,,,,,,,,,,,,,,,,,,
924006,001,2022-11-20_23h53.29.113,Info_measure_main_exp,2022.2.2,Win32,143.6575205,,,,,,,,,,,,,,,,,,masks/mask_001.jpg,,,,,,,,,,,,,,,,,,,,,,,,,,,,,,,,,,,,,,,,,,,0,1,1,0,1,,,,,,,,,,,,,,,,,,,,,,,,,,,,,,,,,,,,,,,,,,,,,,
924006,001,2022-11-20_23h53.29.113,Info_measure_main_exp,2022.2.2,Win32,143.6575205,,,,,,,,,,,,,,,,,,masks/mask_005.jpg,,,,,,,,,,,,,,,,,,,,,,,,,,,,,,,,,,,,,,,,,,,0,2,2,4,1,,,,,,,,,,,,,,,,,,,,,,,,,,,,,,,,,,,,,,,,,,,,,,
924006,001,2022-11-20_23h53.29.113,Info_measure_main_exp,2022.2.2,Win32,143.6575205,,,,,,,,,,,,,,,,,,masks/mask_003.jpg,,,,,,,,,,,,,,,,,,,,,,,,,,,,,,,,,,,,,,,,,,,0,3,3,2,1,,,,,,,,,,,,,,,,,,,,,,,,,,,,,,,,,,,,,,,,,,,,,,
924006,001,2022-11-20_23h53.29.113,Info_measure_main_exp,2022.2.2,Win32,143.6575205,,,,,,,,,,,,,,,,,,masks/mask_004.jpg,,,,,,,,,,,,,,,,,,,,,,,,,,,,,,,,,,,,,,,,,,,0,4,4,3,1,,,,,,,,,,,,,,,,,,,,,,,,,,,,,,,,,,,,,,,,,,,,,,
924006,001,2022-11-20_23h53.29.113,Info_measure_main_exp,2022.2.2,Win32,143.6575205,,,,,,,,,,,,,,,,,,masks/mask_003.jpg,,,,,,,,,,,,,,,,,,,,,,,,,,,,,,,,,,,,,,,,,,,,,,,,0,0,0,2,1,,,,,,,,,,,,,,,,,,,,,,,,,,,,,,,,,,,,,,,,,
924006,001,2022-11-20_23h53.29.113,Info_measure_main_exp,2022.2.2,Win32,143.6575205,,,,,,,,,,,,,,,,,,masks/mask_002.jpg,,,,,,,,,,,,,,,,,,,,,,,,,,,,,,,,,,,,,,,,,,,,,,,,0,1,1,1,1,,,,,,,,,,,,,,,,,,,,,,,,,,,,,,,,,,,,,,,,,
924006,001,2022-11-20_23h53.29.113,Info_measure_main_exp,2022.2.2,Win32,143.6575205,,,,,,,,,,,,,,,,,,masks/mask_005.jpg,,,,,,,,,,,,,,,,,,,,,,,,,,,,,,,,,,,,,,,,,,,,,,,,0,2,2,4,1,,,,,,,,,,,,,,,,,,,,,,,,,,,,,,,,,,,,,,,,,
924006,001,2022-11-20_23h53.29.113,Info_measure_main_exp,2022.2.2,Win32,143.6575205,,,,,,,,,,,,,,,,,,masks/mask_004.jpg,,,,,,,,,,,,,,,,,,,,,,,,,,,,,,,,,,,,,,,,,,,,,,,,0,3,3,3,1,,,,,,,,,,,,,,,,,,,,,,,,,,,,,,,,,,,,,,,,,
924006,001,2022-11-20_23h53.29.113,Info_measure_main_exp,2022.2.2,Win32,143.6575205,,,,,,,,,,,,,,,,,,masks/mask_001.jpg,,,,,,,,,,,,,,,,,,,,,,,,,,,,,,,,,,,,,,,,,,,,,,,,0,4,4,0,1,,,,,,,,,,,,,,,,,,,,,,,,,,,,,,,,,,,,,,,,,
924006,001,2022-11-20_23h53.29.113,Info_measure_main_exp,2022.2.2,Win32,143.6575205,,,,,,,,,,,,,,,,,,,,,,,,,,,,,,7,0.4657,1,,,,,,,,,,,,0,131,5,5,2250,2238,absent_patch/patch0002250.jpg,absent_patch/patch0002238.jpg,,,,,,,,,,,,,,,,,,,,0.048148148,0.097222222,1,0,0,response1disk,32,0.003703704,-0.010185185,1,0,0,center_square,0,31,31,110,1,,,,,,,,,,,,,,,,,,,,,,,
924006,001,2022-11-20_23h53.29.113,Info_measure_main_exp,2022.2.2,Win32,143.6575205,,,,,,,,,,,,,,,,,,masks/mask_005.jpg,,,,,,,,,,,,,,,,,,,,,,,,,,,,,,,,,,,,,,,,,,,0,0,0,4,1,,,,,,,,,,,,,,,,,,,,,,,,,,,,,,,,,,,,,,,,,,,,,,
924006,001,2022-11-20_23h53.29.113,Info_measure_main_exp,2022.2.2,Win32,143.6575205,,,,,,,,,,,,,,,,,,masks/mask_002.jpg,,,,,,,,,,,,,,,,,,,,,,,,,,,,,,,,,,,,,,,,,,,0,1,1,1,1,,,,,,,,,,,,,,,,,,,,,,,,,,,,,,,,,,,,,,,,,,,,,,
924006,001,2022-11-20_23h53.29.113,Info_measure_main_exp,2022.2.2,Win32,143.6575205,,,,,,,,,,,,,,,,,,masks/mask_004.jpg,,,,,,,,,,,,,,,,,,,,,,,,,,,,,,,,,,,,,,,,,,,0,2,2,3,1,,,,,,,,,,,,,,,,,,,,,,,,,,,,,,,,,,,,,,,,,,,,,,
924006,001,2022-11-20_23h53.29.113,Info_measure_main_exp,2022.2.2,Win32,143.6575205,,,,,,,,,,,,,,,,,,masks/mask_001.jpg,,,,,,,,,,,,,,,,,,,,,,,,,,,,,,,,,,,,,,,,,,,0,3,3,0,1,,,,,,,,,,,,,,,,,,,,,,,,,,,,,,,,,,,,,,,,,,,,,,
924006,001,2022-11-20_23h53.29.113,Info_measure_main_exp,2022.2.2,Win32,143.6575205,,,,,,,,,,,,,,,,,,masks/mask_003.jpg,,,,,,,,,,,,,,,,,,,,,,,,,,,,,,,,,,,,,,,,,,,0,4,4,2,1,,,,,,,,,,,,,,,,,,,,,,,,,,,,,,,,,,,,,,,,,,,,,,
924006,001,2022-11-20_23h53.29.113,Info_measure_main_exp,2022.2.2,Win32,143.6575205,,,,,,,,,,,,,,,,,,masks/mask_005.jpg,,,,,,,,,,,,,,,,,,,,,,,,,,,,,,,,,,,,,,,,,,,,,,,,0,0,0,4,1,,,,,,,,,,,,,,,,,,,,,,,,,,,,,,,,,,,,,,,,,
924006,001,2022-11-20_23h53.29.113,Info_measure_main_exp,2022.2.2,Win32,143.6575205,,,,,,,,,,,,,,,,,,masks/mask_003.jpg,,,,,,,,,,,,,,,,,,,,,,,,,,,,,,,,,,,,,,,,,,,,,,,,0,1,1,2,1,,,,,,,,,,,,,,,,,,,,,,,,,,,,,,,,,,,,,,,,,
924006,001,2022-11-20_23h53.29.113,Info_measure_main_exp,2022.2.2,Win32,143.6575205,,,,,,,,,,,,,,,,,,masks/mask_004.jpg,,,,,,,,,,,,,,,,,,,,,,,,,,,,,,,,,,,,,,,,,,,,,,,,0,2,2,3,1,,,,,,,,,,,,,,,,,,,,,,,,,,,,,,,,,,,,,,,,,
924006,001,2022-11-20_23h53.29.113,Info_measure_main_exp,2022.2.2,Win32,143.6575205,,,,,,,,,,,,,,,,,,masks/mask_002.jpg,,,,,,,,,,,,,,,,,,,,,,,,,,,,,,,,,,,,,,,,,,,,,,,,0,3,3,1,1,,,,,,,,,,,,,,,,,,,,,,,,,,,,,,,,,,,,,,,,,
924006,001,2022-11-20_23h53.29.113,Info_measure_main_exp,2022.2.2,Win32,143.6575205,,,,,,,,,,,,,,,,,,masks/mask_001.jpg,,,,,,,,,,,,,,,,,,,,,,,,,,,,,,,,,,,,,,,,,,,,,,,,0,4,4,0,1,,,,,,,,,,,,,,,,,,,,,,,,,,,,,,,,,,,,,,,,,
924006,001,2022-11-20_23h53.29.113,Info_measure_main_exp,2022.2.2,Win32,143.6575205,,,,,,,,,,,,,,,,,,,,,,,,,,,,,,7,0.5631,1,,,,,,,,,,,,0,131,5,5,2250,2142,absent_patch/patch0002250.jpg,absent_patch/patch0002142.jpg,,,,,,,,,,,,,,,,,,,,0.042592593,0.125925926,1,0,0,response1disk,33,0.009259259,-0.005555556,1,0,0,center_square,0,32,32,71,1,,,,,,,,,,,,,,,,,,,,,,,
924006,001,2022-11-20_23h53.29.113,Info_measure_main_exp,2022.2.2,Win32,143.6575205,,,,,,,,,,,,,,,,,,masks/mask_005.jpg,,,,,,,,,,,,,,,,,,,,,,,,,,,,,,,,,,,,,,,,,,,0,0,0,4,1,,,,,,,,,,,,,,,,,,,,,,,,,,,,,,,,,,,,,,,,,,,,,,
924006,001,2022-11-20_23h53.29.113,Info_measure_main_exp,2022.2.2,Win32,143.6575205,,,,,,,,,,,,,,,,,,masks/mask_003.jpg,,,,,,,,,,,,,,,,,,,,,,,,,,,,,,,,,,,,,,,,,,,0,1,1,2,1,,,,,,,,,,,,,,,,,,,,,,,,,,,,,,,,,,,,,,,,,,,,,,
924006,001,2022-11-20_23h53.29.113,Info_measure_main_exp,2022.2.2,Win32,143.6575205,,,,,,,,,,,,,,,,,,masks/mask_001.jpg,,,,,,,,,,,,,,,,,,,,,,,,,,,,,,,,,,,,,,,,,,,0,2,2,0,1,,,,,,,,,,,,,,,,,,,,,,,,,,,,,,,,,,,,,,,,,,,,,,
924006,001,2022-11-20_23h53.29.113,Info_measure_main_exp,2022.2.2,Win32,143.6575205,,,,,,,,,,,,,,,,,,masks/mask_004.jpg,,,,,,,,,,,,,,,,,,,,,,,,,,,,,,,,,,,,,,,,,,,0,3,3,3,1,,,,,,,,,,,,,,,,,,,,,,,,,,,,,,,,,,,,,,,,,,,,,,
924006,001,2022-11-20_23h53.29.113,Info_measure_main_exp,2022.2.2,Win32,143.6575205,,,,,,,,,,,,,,,,,,masks/mask_002.jpg,,,,,,,,,,,,,,,,,,,,,,,,,,,,,,,,,,,,,,,,,,,0,4,4,1,1,,,,,,,,,,,,,,,,,,,,,,,,,,,,,,,,,,,,,,,,,,,,,,
924006,001,2022-11-20_23h53.29.113,Info_measure_main_exp,2022.2.2,Win32,143.6575205,,,,,,,,,,,,,,,,,,masks/mask_002.jpg,,,,,,,,,,,,,,,,,,,,,,,,,,,,,,,,,,,,,,,,,,,,,,,,0,0,0,1,1,,,,,,,,,,,,,,,,,,,,,,,,,,,,,,,,,,,,,,,,,
924006,001,2022-11-20_23h53.29.113,Info_measure_main_exp,2022.2.2,Win32,143.6575205,,,,,,,,,,,,,,,,,,masks/mask_001.jpg,,,,,,,,,,,,,,,,,,,,,,,,,,,,,,,,,,,,,,,,,,,,,,,,0,1,1,0,1,,,,,,,,,,,,,,,,,,,,,,,,,,,,,,,,,,,,,,,,,
924006,001,2022-11-20_23h53.29.113,Info_measure_main_exp,2022.2.2,Win32,143.6575205,,,,,,,,,,,,,,,,,,masks/mask_005.jpg,,,,,,,,,,,,,,,,,,,,,,,,,,,,,,,,,,,,,,,,,,,,,,,,0,2,2,4,1,,,,,,,,,,,,,,,,,,,,,,,,,,,,,,,,,,,,,,,,,
924006,001,2022-11-20_23h53.29.113,Info_measure_main_exp,2022.2.2,Win32,143.6575205,,,,,,,,,,,,,,,,,,masks/mask_003.jpg,,,,,,,,,,,,,,,,,,,,,,,,,,,,,,,,,,,,,,,,,,,,,,,,0,3,3,2,1,,,,,,,,,,,,,,,,,,,,,,,,,,,,,,,,,,,,,,,,,
924006,001,2022-11-20_23h53.29.113,Info_measure_main_exp,2022.2.2,Win32,143.6575205,,,,,,,,,,,,,,,,,,masks/mask_004.jpg,,,,,,,,,,,,,,,,,,,,,,,,,,,,,,,,,,,,,,,,,,,,,,,,0,4,4,3,1,,,,,,,,,,,,,,,,,,,,,,,,,,,,,,,,,,,,,,,,,
924006,001,2022-11-20_23h53.29.113,Info_measure_main_exp,2022.2.2,Win32,143.6575205,,,,,,,,,,,,,,,,,,,,,,,,,,,,,,6,1.001,1,,,,,,,,,,,,0,131,5,5,2238,2298,absent_patch/patch0002238.jpg,absent_patch/patch0002298.jpg,,,,,,,,,,,,,,,,,,,,0.099074074,0.041666667,1,0,0,response1disk,34,0.000925926,0,1,0,0,center_square,0,33,33,51,1,,,,,,,,,,,,,,,,,,,,,,,
924006,001,2022-11-20_23h53.29.113,Info_measure_main_exp,2022.2.2,Win32,143.6575205,,,,,,,,,,,,,,,,,,masks/mask_004.jpg,,,,,,,,,,,,,,,,,,,,,,,,,,,,,,,,,,,,,,,,,,,0,0,0,3,1,,,,,,,,,,,,,,,,,,,,,,,,,,,,,,,,,,,,,,,,,,,,,,
924006,001,2022-11-20_23h53.29.113,Info_measure_main_exp,2022.2.2,Win32,143.6575205,,,,,,,,,,,,,,,,,,masks/mask_005.jpg,,,,,,,,,,,,,,,,,,,,,,,,,,,,,,,,,,,,,,,,,,,0,1,1,4,1,,,,,,,,,,,,,,,,,,,,,,,,,,,,,,,,,,,,,,,,,,,,,,
924006,001,2022-11-20_23h53.29.113,Info_measure_main_exp,2022.2.2,Win32,143.6575205,,,,,,,,,,,,,,,,,,masks/mask_003.jpg,,,,,,,,,,,,,,,,,,,,,,,,,,,,,,,,,,,,,,,,,,,0,2,2,2,1,,,,,,,,,,,,,,,,,,,,,,,,,,,,,,,,,,,,,,,,,,,,,,
924006,001,2022-11-20_23h53.29.113,Info_measure_main_exp,2022.2.2,Win32,143.6575205,,,,,,,,,,,,,,,,,,masks/mask_001.jpg,,,,,,,,,,,,,,,,,,,,,,,,,,,,,,,,,,,,,,,,,,,0,3,3,0,1,,,,,,,,,,,,,,,,,,,,,,,,,,,,,,,,,,,,,,,,,,,,,,
924006,001,2022-11-20_23h53.29.113,Info_measure_main_exp,2022.2.2,Win32,143.6575205,,,,,,,,,,,,,,,,,,masks/mask_002.jpg,,,,,,,,,,,,,,,,,,,,,,,,,,,,,,,,,,,,,,,,,,,0,4,4,1,1,,,,,,,,,,,,,,,,,,,,,,,,,,,,,,,,,,,,,,,,,,,,,,
924006,001,2022-11-20_23h53.29.113,Info_measure_main_exp,2022.2.2,Win32,143.6575205,,,,,,,,,,,,,,,,,,masks/mask_005.jpg,,,,,,,,,,,,,,,,,,,,,,,,,,,,,,,,,,,,,,,,,,,,,,,,0,0,0,4,1,,,,,,,,,,,,,,,,,,,,,,,,,,,,,,,,,,,,,,,,,
924006,001,2022-11-20_23h53.29.113,Info_measure_main_exp,2022.2.2,Win32,143.6575205,,,,,,,,,,,,,,,,,,masks/mask_002.jpg,,,,,,,,,,,,,,,,,,,,,,,,,,,,,,,,,,,,,,,,,,,,,,,,0,1,1,1,1,,,,,,,,,,,,,,,,,,,,,,,,,,,,,,,,,,,,,,,,,
924006,001,2022-11-20_23h53.29.113,Info_measure_main_exp,2022.2.2,Win32,143.6575205,,,,,,,,,,,,,,,,,,masks/mask_003.jpg,,,,,,,,,,,,,,,,,,,,,,,,,,,,,,,,,,,,,,,,,,,,,,,,0,2,2,2,1,,,,,,,,,,,,,,,,,,,,,,,,,,,,,,,,,,,,,,,,,
924006,001,2022-11-20_23h53.29.113,Info_measure_main_exp,2022.2.2,Win32,143.6575205,,,,,,,,,,,,,,,,,,masks/mask_004.jpg,,,,,,,,,,,,,,,,,,,,,,,,,,,,,,,,,,,,,,,,,,,,,,,,0,3,3,3,1,,,,,,,,,,,,,,,,,,,,,,,,,,,,,,,,,,,,,,,,,
