participant,session,date,expName,psychopyVersion,OS,frameRate,space_press_continue.keys,space_press_continue.rt,space_press_continue_2.keys,space_press_continue_2.rt,space_press_continue_3.keys,space_press_continue_3.rt,space_press_continue_4.keys,space_press_continue_4.rt,space_press_continue_5.keys,space_press_continue_5.rt,space_press_continue_6.keys,space_press_continue_6.rt,prac_mask_loop_1.thisRepN,prac_mask_loop_1.thisTrialN,prac_mask_loop_1.thisN,prac_mask_loop_1.thisIndex,prac_mask_loop_1.ran,mask_name,prac_mask_loop_2.thisRepN,prac_mask_loop_2.thisTrialN,prac_mask_loop_2.thisN,prac_mask_loop_2.thisIndex,prac_mask_loop_2.ran,mouse_2.x,mouse_2.y,mouse_2.leftButton,mouse_2.midButton,mouse_2.rightButton,mouse_2.clicked_name,similarity,response_time,Pass,mouse_12.x,mouse_12.y,mouse_12.leftButton,mouse_12.midButton,mouse_12.rightButton,mouse_12.clicked_name,prac_loop.thisRepN,prac_loop.thisTrialN,prac_loop.thisN,prac_loop.thisIndex,prac_loop.ran,Pair_type,Image_num,Patch_1_loc,Patch_2_loc,Patch_1_info,Patch_2_info,Patch_1_name,Patch_2_name,mouse_1.x,mouse_1.y,mouse_1.leftButton,mouse_1.midButton,mouse_1.rightButton,mouse_1.time,mouse_1.clicked_name,space_press_continue_7.keys,space_press_continue_7.rt,mask_loop.thisRepN,mask_loop.thisTrialN,mask_loop.thisN,mask_loop.thisIndex,mask_loop.ran,mask_loop_2.thisRepN,mask_loop_2.thisTrialN,mask_loop_2.thisN,mask_loop_2.thisIndex,mask_loop_2.ran,mouse.x,mouse.y,mouse.leftButton,mouse.midButton,mouse.rightButton,mouse.clicked_name,trialNumber,mouse_11.x,mouse_11.y,mouse_11.leftButton,mouse_11.midButton,mouse_11.rightButton,mouse_11.clicked_name,first_pass_loop.thisRepN,first_pass_loop.thisTrialN,first_pass_loop.thisN,first_pass_loop.thisIndex,first_pass_loop.ran,mask_loop_3.thisRepN,mask_loop_3.thisTrialN,mask_loop_3.thisN,mask_loop_3.thisIndex,mask_loop_3.ran,mask_loop_4.thisRepN,mask_loop_4.thisTrialN,mask_loop_4.thisN,mask_loop_4.thisIndex,mask_loop_4.ran,mouse_3.x,mouse_3.y,mouse_3.leftButton,mouse_3.midButton,mouse_3.rightButton,mouse_3.clicked_name,double_pass_loop.thisRepN,double_pass_loop.thisTrialN,double_pass_loop.thisN,double_pass_loop.thisIndex,double_pass_loop.ran,space_exit.keys,space_exit.rt
924159,001,2022-11-20_18h00.57.142,Info_measure_main_exp,2022.2.2,Win32,59.89099838,,,,,,,,,,,,,,,,,,,,,,,,,,,,,,,,,,,,,,,,,,,,,,,,,,,,,,,,,,,,,,,,,,,,,,,,,,,,,,,,,,,,,,,,,,,,,,,,,,,,,,,,,,,,,,,
924159,001,2022-11-20_18h00.57.142,Info_measure_main_exp,2022.2.2,Win32,59.89099838,,,,,,,,,,,,,,,,,,,,,,,,,,,,,,,,,,,,,,,,,,,,,,,,,,,,,,,,,,,,,,,,,,,,,,,,,,,,,,,,,,,,,,,,,,,,,,,,,,,,,,,,,,,,,,,
924159,001,2022-11-20_18h00.57.142,Info_measure_main_exp,2022.2.2,Win32,59.89099838,space,9.3574,,,,,,,,,,,,,,,,,,,,,,,,,,,,,,,,,,,,,,,,,,,,,,,,,,,,,,,,,,,,,,,,,,,,,,,,,,,,,,,,,,,,,,,,,,,,,,,,,,,,,,,,,,,,,
924159,001,2022-11-20_18h00.57.142,Info_measure_main_exp,2022.2.2,Win32,59.89099838,,,space,20.9249,,,,,,,,,,,,,,,,,,,,,,,,,,,,,,,,,,,,,,,,,,,,,,,,,,,,,,,,,,,,,,,,,,,,,,,,,,,,,,,,,,,,,,,,,,,,,,,,,,,,,,,,,,,
924159,001,2022-11-20_18h00.57.142,Info_measure_main_exp,2022.2.2,Win32,59.89099838,,,,,space,1.1078,,,,,,,,,,,,,,,,,,,,,,,,,,,,,,,,,,,,,,,,,,,,,,,,,,,,,,,,,,,,,,,,,,,,,,,,,,,,,,,,,,,,,,,,,,,,,,,,,,,,,,,,,
924159,001,2022-11-20_18h00.57.142,Info_measure_main_exp,2022.2.2,Win32,59.89099838,,,,,,,space,14.5107,,,,,,,,,,,,,,,,,,,,,,,,,,,,,,,,,,,,,,,,,,,,,,,,,,,,,,,,,,,,,,,,,,,,,,,,,,,,,,,,,,,,,,,,,,,,,,,,,,,,,,,
924159,001,2022-11-20_18h00.57.142,Info_measure_main_exp,2022.2.2,Win32,59.89099838,,,,,,,,,space,17.8362,,,,,,,,,,,,,,,,,,,,,,,,,,,,,,,,,,,,,,,,,,,,,,,,,,,,,,,,,,,,,,,,,,,,,,,,,,,,,,,,,,,,,,,,,,,,,,,,,,,,,
924159,001,2022-11-20_18h00.57.142,Info_measure_main_exp,2022.2.2,Win32,59.89099838,,,,,,,,,,,space,4.4238,,,,,,,,,,,,,,,,,,,,,,,,,,,,,,,,,,,,,,,,,,,,,,,,,,,,,,,,,,,,,,,,,,,,,,,,,,,,,,,,,,,,,,,,,,,,,,,,,,,
924159,001,2022-11-20_18h00.57.142,Info_measure_main_exp,2022.2.2,Win32,59.89099838,,,,,,,,,,,,,0,0,0,3,1,masks/mask_004.jpg,,,,,,,,,,,,,,,,,,,,,,,,,,,,,,,,,,,,,,,,,,,,,,,,,,,,,,,,,,,,,,,,,,,,,,,,,,,,,,,,,,,,,,,,,,,,,
924159,001,2022-11-20_18h00.57.142,Info_measure_main_exp,2022.2.2,Win32,59.89099838,,,,,,,,,,,,,0,1,1,0,1,masks/mask_001.jpg,,,,,,,,,,,,,,,,,,,,,,,,,,,,,,,,,,,,,,,,,,,,,,,,,,,,,,,,,,,,,,,,,,,,,,,,,,,,,,,,,,,,,,,,,,,,,
924159,001,2022-11-20_18h00.57.142,Info_measure_main_exp,2022.2.2,Win32,59.89099838,,,,,,,,,,,,,0,2,2,1,1,masks/mask_002.jpg,,,,,,,,,,,,,,,,,,,,,,,,,,,,,,,,,,,,,,,,,,,,,,,,,,,,,,,,,,,,,,,,,,,,,,,,,,,,,,,,,,,,,,,,,,,,,
924159,001,2022-11-20_18h00.57.142,Info_measure_main_exp,2022.2.2,Win32,59.89099838,,,,,,,,,,,,,0,3,3,2,1,masks/mask_003.jpg,,,,,,,,,,,,,,,,,,,,,,,,,,,,,,,,,,,,,,,,,,,,,,,,,,,,,,,,,,,,,,,,,,,,,,,,,,,,,,,,,,,,,,,,,,,,,
924159,001,2022-11-20_18h00.57.142,Info_measure_main_exp,2022.2.2,Win32,59.89099838,,,,,,,,,,,,,0,4,4,4,1,masks/mask_005.jpg,,,,,,,,,,,,,,,,,,,,,,,,,,,,,,,,,,,,,,,,,,,,,,,,,,,,,,,,,,,,,,,,,,,,,,,,,,,,,,,,,,,,,,,,,,,,,
924159,001,2022-11-20_18h00.57.142,Info_measure_main_exp,2022.2.2,Win32,59.89099838,,,,,,,,,,,,,,,,,,masks/mask_004.jpg,0,0,0,3,1,,,,,,,,,,,,,,,,,,,,,,,,,,,,,,,,,,,,,,,,,,,,,,,,,,,,,,,,,,,,,,,,,,,,,,,,,,,,,,,,,,,,,,,,
924159,001,2022-11-20_18h00.57.142,Info_measure_main_exp,2022.2.2,Win32,59.89099838,,,,,,,,,,,,,,,,,,masks/mask_002.jpg,0,1,1,1,1,,,,,,,,,,,,,,,,,,,,,,,,,,,,,,,,,,,,,,,,,,,,,,,,,,,,,,,,,,,,,,,,,,,,,,,,,,,,,,,,,,,,,,,,
924159,001,2022-11-20_18h00.57.142,Info_measure_main_exp,2022.2.2,Win32,59.89099838,,,,,,,,,,,,,,,,,,masks/mask_005.jpg,0,2,2,4,1,,,,,,,,,,,,,,,,,,,,,,,,,,,,,,,,,,,,,,,,,,,,,,,,,,,,,,,,,,,,,,,,,,,,,,,,,,,,,,,,,,,,,,,,
924159,001,2022-11-20_18h00.57.142,Info_measure_main_exp,2022.2.2,Win32,59.89099838,,,,,,,,,,,,,,,,,,masks/mask_001.jpg,0,3,3,0,1,,,,,,,,,,,,,,,,,,,,,,,,,,,,,,,,,,,,,,,,,,,,,,,,,,,,,,,,,,,,,,,,,,,,,,,,,,,,,,,,,,,,,,,,
924159,001,2022-11-20_18h00.57.142,Info_measure_main_exp,2022.2.2,Win32,59.89099838,,,,,,,,,,,,,,,,,,masks/mask_003.jpg,0,4,4,2,1,,,,,,,,,,,,,,,,,,,,,,,,,,,,,,,,,,,,,,,,,,,,,,,,,,,,,,,,,,,,,,,,,,,,,,,,,,,,,,,,,,,,,,,,
924159,001,2022-11-20_18h00.57.142,Info_measure_main_exp,2022.2.2,Win32,59.89099838,,,,,,,,,,,,,,,,,,,,,,,,-0.152777778,0.055555556,1,0,0,response7disk,1,90.5632,1,0.002777806,0.00462963,1,0,0,center_square,0,0,0,1,1,0,131,5,5,2514,2490,prac_patch/patch0002514.jpg,prac_patch/patch0002490.jpg,,,,,,,,,,,,,,,,,,,,,,,,,,,,,,,,,,,,,,,,,,,,,,,,,,,,,,,,,,,,
924159,001,2022-11-20_18h00.57.142,Info_measure_main_exp,2022.2.2,Win32,59.89099838,,,,,,,,,,,,,0,0,0,0,1,masks/mask_001.jpg,,,,,,,,,,,,,,,,,,,,,,,,,,,,,,,,,,,,,,,,,,,,,,,,,,,,,,,,,,,,,,,,,,,,,,,,,,,,,,,,,,,,,,,,,,,,,
924159,001,2022-11-20_18h00.57.142,Info_measure_main_exp,2022.2.2,Win32,59.89099838,,,,,,,,,,,,,0,1,1,4,1,masks/mask_005.jpg,,,,,,,,,,,,,,,,,,,,,,,,,,,,,,,,,,,,,,,,,,,,,,,,,,,,,,,,,,,,,,,,,,,,,,,,,,,,,,,,,,,,,,,,,,,,,
924159,001,2022-11-20_18h00.57.142,Info_measure_main_exp,2022.2.2,Win32,59.89099838,,,,,,,,,,,,,0,2,2,3,1,masks/mask_004.jpg,,,,,,,,,,,,,,,,,,,,,,,,,,,,,,,,,,,,,,,,,,,,,,,,,,,,,,,,,,,,,,,,,,,,,,,,,,,,,,,,,,,,,,,,,,,,,
924159,001,2022-11-20_18h00.57.142,Info_measure_main_exp,2022.2.2,Win32,59.89099838,,,,,,,,,,,,,0,3,3,1,1,masks/mask_002.jpg,,,,,,,,,,,,,,,,,,,,,,,,,,,,,,,,,,,,,,,,,,,,,,,,,,,,,,,,,,,,,,,,,,,,,,,,,,,,,,,,,,,,,,,,,,,,,
924159,001,2022-11-20_18h00.57.142,Info_measure_main_exp,2022.2.2,Win32,59.89099838,,,,,,,,,,,,,0,4,4,2,1,masks/mask_003.jpg,,,,,,,,,,,,,,,,,,,,,,,,,,,,,,,,,,,,,,,,,,,,,,,,,,,,,,,,,,,,,,,,,,,,,,,,,,,,,,,,,,,,,,,,,,,,,
924159,001,2022-11-20_18h00.57.142,Info_measure_main_exp,2022.2.2,Win32,59.89099838,,,,,,,,,,,,,,,,,,masks/mask_003.jpg,0,0,0,2,1,,,,,,,,,,,,,,,,,,,,,,,,,,,,,,,,,,,,,,,,,,,,,,,,,,,,,,,,,,,,,,,,,,,,,,,,,,,,,,,,,,,,,,,,
924159,001,2022-11-20_18h00.57.142,Info_measure_main_exp,2022.2.2,Win32,59.89099838,,,,,,,,,,,,,,,,,,masks/mask_005.jpg,0,1,1,4,1,,,,,,,,,,,,,,,,,,,,,,,,,,,,,,,,,,,,,,,,,,,,,,,,,,,,,,,,,,,,,,,,,,,,,,,,,,,,,,,,,,,,,,,,
924159,001,2022-11-20_18h00.57.142,Info_measure_main_exp,2022.2.2,Win32,59.89099838,,,,,,,,,,,,,,,,,,masks/mask_002.jpg,0,2,2,1,1,,,,,,,,,,,,,,,,,,,,,,,,,,,,,,,,,,,,,,,,,,,,,,,,,,,,,,,,,,,,,,,,,,,,,,,,,,,,,,,,,,,,,,,,
924159,001,2022-11-20_18h00.57.142,Info_measure_main_exp,2022.2.2,Win32,59.89099838,,,,,,,,,,,,,,,,,,masks/mask_004.jpg,0,3,3,3,1,,,,,,,,,,,,,,,,,,,,,,,,,,,,,,,,,,,,,,,,,,,,,,,,,,,,,,,,,,,,,,,,,,,,,,,,,,,,,,,,,,,,,,,,
924159,001,2022-11-20_18h00.57.142,Info_measure_main_exp,2022.2.2,Win32,59.89099838,,,,,,,,,,,,,,,,,,masks/mask_001.jpg,0,4,4,0,1,,,,,,,,,,,,,,,,,,,,,,,,,,,,,,,,,,,,,,,,,,,,,,,,,,,,,,,,,,,,,,,,,,,,,,,,,,,,,,,,,,,,,,,,
924159,001,2022-11-20_18h00.57.142,Info_measure_main_exp,2022.2.2,Win32,59.89099838,,,,,,,,,,,,,,,,,,,,,,,,-0.137962977,-0.039814808,1,0,0,response5disk,2,111.138,1,0,0.009259259,1,0,0,center_square,0,1,1,0,1,0,131,5,5,2370,2406,prac_patch/patch0002370.jpg,prac_patch/patch0002406.jpg,,,,,,,,,,,,,,,,,,,,,,,,,,,,,,,,,,,,,,,,,,,,,,,,,,,,,,,,,,,,
924159,001,2022-11-20_18h00.57.142,Info_measure_main_exp,2022.2.2,Win32,59.89099838,,,,,,,,,,,,,0,0,0,4,1,masks/mask_005.jpg,,,,,,,,,,,,,,,,,,,,,,,,,,,,,,,,,,,,,,,,,,,,,,,,,,,,,,,,,,,,,,,,,,,,,,,,,,,,,,,,,,,,,,,,,,,,,
924159,001,2022-11-20_18h00.57.142,Info_measure_main_exp,2022.2.2,Win32,59.89099838,,,,,,,,,,,,,0,1,1,0,1,masks/mask_001.jpg,,,,,,,,,,,,,,,,,,,,,,,,,,,,,,,,,,,,,,,,,,,,,,,,,,,,,,,,,,,,,,,,,,,,,,,,,,,,,,,,,,,,,,,,,,,,,
924159,001,2022-11-20_18h00.57.142,Info_measure_main_exp,2022.2.2,Win32,59.89099838,,,,,,,,,,,,,0,2,2,2,1,masks/mask_003.jpg,,,,,,,,,,,,,,,,,,,,,,,,,,,,,,,,,,,,,,,,,,,,,,,,,,,,,,,,,,,,,,,,,,,,,,,,,,,,,,,,,,,,,,,,,,,,,
924159,001,2022-11-20_18h00.57.142,Info_measure_main_exp,2022.2.2,Win32,59.89099838,,,,,,,,,,,,,0,3,3,3,1,masks/mask_004.jpg,,,,,,,,,,,,,,,,,,,,,,,,,,,,,,,,,,,,,,,,,,,,,,,,,,,,,,,,,,,,,,,,,,,,,,,,,,,,,,,,,,,,,,,,,,,,,
924159,001,2022-11-20_18h00.57.142,Info_measure_main_exp,2022.2.2,Win32,59.89099838,,,,,,,,,,,,,0,4,4,1,1,masks/mask_002.jpg,,,,,,,,,,,,,,,,,,,,,,,,,,,,,,,,,,,,,,,,,,,,,,,,,,,,,,,,,,,,,,,,,,,,,,,,,,,,,,,,,,,,,,,,,,,,,
924159,001,2022-11-20_18h00.57.142,Info_measure_main_exp,2022.2.2,Win32,59.89099838,,,,,,,,,,,,,,,,,,masks/mask_004.jpg,0,0,0,3,1,,,,,,,,,,,,,,,,,,,,,,,,,,,,,,,,,,,,,,,,,,,,,,,,,,,,,,,,,,,,,,,,,,,,,,,,,,,,,,,,,,,,,,,,
924159,001,2022-11-20_18h00.57.142,Info_measure_main_exp,2022.2.2,Win32,59.89099838,,,,,,,,,,,,,,,,,,masks/mask_002.jpg,0,1,1,1,1,,,,,,,,,,,,,,,,,,,,,,,,,,,,,,,,,,,,,,,,,,,,,,,,,,,,,,,,,,,,,,,,,,,,,,,,,,,,,,,,,,,,,,,,
924159,001,2022-11-20_18h00.57.142,Info_measure_main_exp,2022.2.2,Win32,59.89099838,,,,,,,,,,,,,,,,,,masks/mask_005.jpg,0,2,2,4,1,,,,,,,,,,,,,,,,,,,,,,,,,,,,,,,,,,,,,,,,,,,,,,,,,,,,,,,,,,,,,,,,,,,,,,,,,,,,,,,,,,,,,,,,
924159,001,2022-11-20_18h00.57.142,Info_measure_main_exp,2022.2.2,Win32,59.89099838,,,,,,,,,,,,,,,,,,masks/mask_001.jpg,0,3,3,0,1,,,,,,,,,,,,,,,,,,,,,,,,,,,,,,,,,,,,,,,,,,,,,,,,,,,,,,,,,,,,,,,,,,,,,,,,,,,,,,,,,,,,,,,,
924159,001,2022-11-20_18h00.57.142,Info_measure_main_exp,2022.2.2,Win32,59.89099838,,,,,,,,,,,,,,,,,,masks/mask_003.jpg,0,4,4,2,1,,,,,,,,,,,,,,,,,,,,,,,,,,,,,,,,,,,,,,,,,,,,,,,,,,,,,,,,,,,,,,,,,,,,,,,,,,,,,,,,,,,,,,,,
924159,001,2022-11-20_18h00.57.142,Info_measure_main_exp,2022.2.2,Win32,59.89099838,,,,,,,,,,,,,,,,,,,,,,,,-0.097222222,0.160185178,1,0,0,response7disk,0,126.137,1,-0.000925912,0.005555541,1,0,0,center_square,0,2,2,2,1,0,131,5,5,2526,2526,prac_patch/patch0002526.jpg,prac_patch/patch0002526.jpg,,,,,,,,,,,,,,,,,,,,,,,,,,,,,,,,,,,,,,,,,,,,,,,,,,,,,,,,,,,,
924159,001,2022-11-20_18h00.57.142,Info_measure_main_exp,2022.2.2,Win32,59.89099838,,,,,,,,,,,,,,,,,,,,,,,,,,,,,,,,,,,,,,,,,,,,,,,,,,,,,,,,,,,space,4.2375,,,,,,,,,,,,,,,,,,,,,,,,,,,,,,,,,,,,,,,,,,,,,,,,,,,
924159,001,2022-11-20_18h00.57.142,Info_measure_main_exp,2022.2.2,Win32,59.89099838,,,,,,,,,,,,,,,,,,masks/mask_002.jpg,,,,,,,,,,,,,,,,,,,,,,,,,,,,,,,,,,,,,,,,,,,0,0,0,1,1,,,,,,,,,,,,,,,,,,,,,,,,,,,,,,,,,,,,,,,,,,,,,,
924159,001,2022-11-20_18h00.57.142,Info_measure_main_exp,2022.2.2,Win32,59.89099838,,,,,,,,,,,,,,,,,,masks/mask_001.jpg,,,,,,,,,,,,,,,,,,,,,,,,,,,,,,,,,,,,,,,,,,,0,1,1,0,1,,,,,,,,,,,,,,,,,,,,,,,,,,,,,,,,,,,,,,,,,,,,,,
924159,001,2022-11-20_18h00.57.142,Info_measure_main_exp,2022.2.2,Win32,59.89099838,,,,,,,,,,,,,,,,,,masks/mask_004.jpg,,,,,,,,,,,,,,,,,,,,,,,,,,,,,,,,,,,,,,,,,,,0,2,2,3,1,,,,,,,,,,,,,,,,,,,,,,,,,,,,,,,,,,,,,,,,,,,,,,
924159,001,2022-11-20_18h00.57.142,Info_measure_main_exp,2022.2.2,Win32,59.89099838,,,,,,,,,,,,,,,,,,masks/mask_003.jpg,,,,,,,,,,,,,,,,,,,,,,,,,,,,,,,,,,,,,,,,,,,0,3,3,2,1,,,,,,,,,,,,,,,,,,,,,,,,,,,,,,,,,,,,,,,,,,,,,,
924159,001,2022-11-20_18h00.57.142,Info_measure_main_exp,2022.2.2,Win32,59.89099838,,,,,,,,,,,,,,,,,,masks/mask_005.jpg,,,,,,,,,,,,,,,,,,,,,,,,,,,,,,,,,,,,,,,,,,,0,4,4,4,1,,,,,,,,,,,,,,,,,,,,,,,,,,,,,,,,,,,,,,,,,,,,,,
924159,001,2022-11-20_18h00.57.142,Info_measure_main_exp,2022.2.2,Win32,59.89099838,,,,,,,,,,,,,,,,,,masks/mask_002.jpg,,,,,,,,,,,,,,,,,,,,,,,,,,,,,,,,,,,,,,,,,,,,,,,,0,0,0,1,1,,,,,,,,,,,,,,,,,,,,,,,,,,,,,,,,,,,,,,,,,
924159,001,2022-11-20_18h00.57.142,Info_measure_main_exp,2022.2.2,Win32,59.89099838,,,,,,,,,,,,,,,,,,masks/mask_004.jpg,,,,,,,,,,,,,,,,,,,,,,,,,,,,,,,,,,,,,,,,,,,,,,,,0,1,1,3,1,,,,,,,,,,,,,,,,,,,,,,,,,,,,,,,,,,,,,,,,,
924159,001,2022-11-20_18h00.57.142,Info_measure_main_exp,2022.2.2,Win32,59.89099838,,,,,,,,,,,,,,,,,,masks/mask_003.jpg,,,,,,,,,,,,,,,,,,,,,,,,,,,,,,,,,,,,,,,,,,,,,,,,0,2,2,2,1,,,,,,,,,,,,,,,,,,,,,,,,,,,,,,,,,,,,,,,,,
924159,001,2022-11-20_18h00.57.142,Info_measure_main_exp,2022.2.2,Win32,59.89099838,,,,,,,,,,,,,,,,,,masks/mask_001.jpg,,,,,,,,,,,,,,,,,,,,,,,,,,,,,,,,,,,,,,,,,,,,,,,,0,3,3,0,1,,,,,,,,,,,,,,,,,,,,,,,,,,,,,,,,,,,,,,,,,
924159,001,2022-11-20_18h00.57.142,Info_measure_main_exp,2022.2.2,Win32,59.89099838,,,,,,,,,,,,,,,,,,masks/mask_005.jpg,,,,,,,,,,,,,,,,,,,,,,,,,,,,,,,,,,,,,,,,,,,,,,,,0,4,4,4,1,,,,,,,,,,,,,,,,,,,,,,,,,,,,,,,,,,,,,,,,,
924159,001,2022-11-20_18h00.57.142,Info_measure_main_exp,2022.2.2,Win32,59.89099838,,,,,,,,,,,,,,,,,,,,,,,,,,,,,,7,3.1502,1,,,,,,,,,,,,0,131,5,5,2142,2154,absent_patch/patch0002142.jpg,absent_patch/patch0002154.jpg,,,,,,,,,,,,,,,,,,,,0.079629616,0.181481467,1,0,0,response1disk,1,0.008333347,-0.000925947,1,0,0,center_square,0,0,0,9,1,,,,,,,,,,,,,,,,,,,,,,,
924159,001,2022-11-20_18h00.57.142,Info_measure_main_exp,2022.2.2,Win32,59.89099838,,,,,,,,,,,,,,,,,,masks/mask_001.jpg,,,,,,,,,,,,,,,,,,,,,,,,,,,,,,,,,,,,,,,,,,,0,0,0,0,1,,,,,,,,,,,,,,,,,,,,,,,,,,,,,,,,,,,,,,,,,,,,,,
924159,001,2022-11-20_18h00.57.142,Info_measure_main_exp,2022.2.2,Win32,59.89099838,,,,,,,,,,,,,,,,,,masks/mask_004.jpg,,,,,,,,,,,,,,,,,,,,,,,,,,,,,,,,,,,,,,,,,,,0,1,1,3,1,,,,,,,,,,,,,,,,,,,,,,,,,,,,,,,,,,,,,,,,,,,,,,
924159,001,2022-11-20_18h00.57.142,Info_measure_main_exp,2022.2.2,Win32,59.89099838,,,,,,,,,,,,,,,,,,masks/mask_003.jpg,,,,,,,,,,,,,,,,,,,,,,,,,,,,,,,,,,,,,,,,,,,0,2,2,2,1,,,,,,,,,,,,,,,,,,,,,,,,,,,,,,,,,,,,,,,,,,,,,,
924159,001,2022-11-20_18h00.57.142,Info_measure_main_exp,2022.2.2,Win32,59.89099838,,,,,,,,,,,,,,,,,,masks/mask_002.jpg,,,,,,,,,,,,,,,,,,,,,,,,,,,,,,,,,,,,,,,,,,,0,3,3,1,1,,,,,,,,,,,,,,,,,,,,,,,,,,,,,,,,,,,,,,,,,,,,,,
924159,001,2022-11-20_18h00.57.142,Info_measure_main_exp,2022.2.2,Win32,59.89099838,,,,,,,,,,,,,,,,,,masks/mask_005.jpg,,,,,,,,,,,,,,,,,,,,,,,,,,,,,,,,,,,,,,,,,,,0,4,4,4,1,,,,,,,,,,,,,,,,,,,,,,,,,,,,,,,,,,,,,,,,,,,,,,
924159,001,2022-11-20_18h00.57.142,Info_measure_main_exp,2022.2.2,Win32,59.89099838,,,,,,,,,,,,,,,,,,masks/mask_002.jpg,,,,,,,,,,,,,,,,,,,,,,,,,,,,,,,,,,,,,,,,,,,,,,,,0,0,0,1,1,,,,,,,,,,,,,,,,,,,,,,,,,,,,,,,,,,,,,,,,,
924159,001,2022-11-20_18h00.57.142,Info_measure_main_exp,2022.2.2,Win32,59.89099838,,,,,,,,,,,,,,,,,,masks/mask_001.jpg,,,,,,,,,,,,,,,,,,,,,,,,,,,,,,,,,,,,,,,,,,,,,,,,0,1,1,0,1,,,,,,,,,,,,,,,,,,,,,,,,,,,,,,,,,,,,,,,,,
924159,001,2022-11-20_18h00.57.142,Info_measure_main_exp,2022.2.2,Win32,59.89099838,,,,,,,,,,,,,,,,,,masks/mask_005.jpg,,,,,,,,,,,,,,,,,,,,,,,,,,,,,,,,,,,,,,,,,,,,,,,,0,2,2,4,1,,,,,,,,,,,,,,,,,,,,,,,,,,,,,,,,,,,,,,,,,
924159,001,2022-11-20_18h00.57.142,Info_measure_main_exp,2022.2.2,Win32,59.89099838,,,,,,,,,,,,,,,,,,masks/mask_003.jpg,,,,,,,,,,,,,,,,,,,,,,,,,,,,,,,,,,,,,,,,,,,,,,,,0,3,3,2,1,,,,,,,,,,,,,,,,,,,,,,,,,,,,,,,,,,,,,,,,,
924159,001,2022-11-20_18h00.57.142,Info_measure_main_exp,2022.2.2,Win32,59.89099838,,,,,,,,,,,,,,,,,,masks/mask_004.jpg,,,,,,,,,,,,,,,,,,,,,,,,,,,,,,,,,,,,,,,,,,,,,,,,0,4,4,3,1,,,,,,,,,,,,,,,,,,,,,,,,,,,,,,,,,,,,,,,,,
924159,001,2022-11-20_18h00.57.142,Info_measure_main_exp,2022.2.2,Win32,59.89099838,,,,,,,,,,,,,,,,,,,,,,,,,,,,,,7,2.2671,1,,,,,,,,,,,,0,131,5,5,2082,2178,absent_patch/patch0002082.jpg,absent_patch/patch0002178.jpg,,,,,,,,,,,,,,,,,,,,0.050000014,0.198148127,1,0,0,response1disk,2,0.000925912,-0.005555577,1,0,0,center_square,0,1,1,2,1,,,,,,,,,,,,,,,,,,,,,,,
924159,001,2022-11-20_18h00.57.142,Info_measure_main_exp,2022.2.2,Win32,59.89099838,,,,,,,,,,,,,,,,,,masks/mask_004.jpg,,,,,,,,,,,,,,,,,,,,,,,,,,,,,,,,,,,,,,,,,,,0,0,0,3,1,,,,,,,,,,,,,,,,,,,,,,,,,,,,,,,,,,,,,,,,,,,,,,
924159,001,2022-11-20_18h00.57.142,Info_measure_main_exp,2022.2.2,Win32,59.89099838,,,,,,,,,,,,,,,,,,masks/mask_002.jpg,,,,,,,,,,,,,,,,,,,,,,,,,,,,,,,,,,,,,,,,,,,0,1,1,1,1,,,,,,,,,,,,,,,,,,,,,,,,,,,,,,,,,,,,,,,,,,,,,,
924159,001,2022-11-20_18h00.57.142,Info_measure_main_exp,2022.2.2,Win32,59.89099838,,,,,,,,,,,,,,,,,,masks/mask_005.jpg,,,,,,,,,,,,,,,,,,,,,,,,,,,,,,,,,,,,,,,,,,,0,2,2,4,1,,,,,,,,,,,,,,,,,,,,,,,,,,,,,,,,,,,,,,,,,,,,,,
924159,001,2022-11-20_18h00.57.142,Info_measure_main_exp,2022.2.2,Win32,59.89099838,,,,,,,,,,,,,,,,,,masks/mask_001.jpg,,,,,,,,,,,,,,,,,,,,,,,,,,,,,,,,,,,,,,,,,,,0,3,3,0,1,,,,,,,,,,,,,,,,,,,,,,,,,,,,,,,,,,,,,,,,,,,,,,
924159,001,2022-11-20_18h00.57.142,Info_measure_main_exp,2022.2.2,Win32,59.89099838,,,,,,,,,,,,,,,,,,masks/mask_003.jpg,,,,,,,,,,,,,,,,,,,,,,,,,,,,,,,,,,,,,,,,,,,0,4,4,2,1,,,,,,,,,,,,,,,,,,,,,,,,,,,,,,,,,,,,,,,,,,,,,,
924159,001,2022-11-20_18h00.57.142,Info_measure_main_exp,2022.2.2,Win32,59.89099838,,,,,,,,,,,,,,,,,,masks/mask_002.jpg,,,,,,,,,,,,,,,,,,,,,,,,,,,,,,,,,,,,,,,,,,,,,,,,0,0,0,1,1,,,,,,,,,,,,,,,,,,,,,,,,,,,,,,,,,,,,,,,,,
924159,001,2022-11-20_18h00.57.142,Info_measure_main_exp,2022.2.2,Win32,59.89099838,,,,,,,,,,,,,,,,,,masks/mask_001.jpg,,,,,,,,,,,,,,,,,,,,,,,,,,,,,,,,,,,,,,,,,,,,,,,,0,1,1,0,1,,,,,,,,,,,,,,,,,,,,,,,,,,,,,,,,,,,,,,,,,
924159,001,2022-11-20_18h00.57.142,Info_measure_main_exp,2022.2.2,Win32,59.89099838,,,,,,,,,,,,,,,,,,masks/mask_005.jpg,,,,,,,,,,,,,,,,,,,,,,,,,,,,,,,,,,,,,,,,,,,,,,,,0,2,2,4,1,,,,,,,,,,,,,,,,,,,,,,,,,,,,,,,,,,,,,,,,,
924159,001,2022-11-20_18h00.57.142,Info_measure_main_exp,2022.2.2,Win32,59.89099838,,,,,,,,,,,,,,,,,,masks/mask_004.jpg,,,,,,,,,,,,,,,,,,,,,,,,,,,,,,,,,,,,,,,,,,,,,,,,0,3,3,3,1,,,,,,,,,,,,,,,,,,,,,,,,,,,,,,,,,,,,,,,,,
924159,001,2022-11-20_18h00.57.142,Info_measure_main_exp,2022.2.2,Win32,59.89099838,,,,,,,,,,,,,,,,,,masks/mask_003.jpg,,,,,,,,,,,,,,,,,,,,,,,,,,,,,,,,,,,,,,,,,,,,,,,,0,4,4,2,1,,,,,,,,,,,,,,,,,,,,,,,,,,,,,,,,,,,,,,,,,
924159,001,2022-11-20_18h00.57.142,Info_measure_main_exp,2022.2.2,Win32,59.89099838,,,,,,,,,,,,,,,,,,,,,,,,,,,,,,7,1.1492,1,,,,,,,,,,,,0,131,5,5,2190,2250,absent_patch/patch0002190.jpg,absent_patch/patch0002250.jpg,,,,,,,,,,,,,,,,,,,,0.062962991,0.203703704,1,0,0,response1disk,3,-0.010185171,0,1,0,0,center_square,0,2,2,93,1,,,,,,,,,,,,,,,,,,,,,,,
924159,001,2022-11-20_18h00.57.142,Info_measure_main_exp,2022.2.2,Win32,59.89099838,,,,,,,,,,,,,,,,,,masks/mask_004.jpg,,,,,,,,,,,,,,,,,,,,,,,,,,,,,,,,,,,,,,,,,,,0,0,0,3,1,,,,,,,,,,,,,,,,,,,,,,,,,,,,,,,,,,,,,,,,,,,,,,
924159,001,2022-11-20_18h00.57.142,Info_measure_main_exp,2022.2.2,Win32,59.89099838,,,,,,,,,,,,,,,,,,masks/mask_002.jpg,,,,,,,,,,,,,,,,,,,,,,,,,,,,,,,,,,,,,,,,,,,0,1,1,1,1,,,,,,,,,,,,,,,,,,,,,,,,,,,,,,,,,,,,,,,,,,,,,,
924159,001,2022-11-20_18h00.57.142,Info_measure_main_exp,2022.2.2,Win32,59.89099838,,,,,,,,,,,,,,,,,,masks/mask_001.jpg,,,,,,,,,,,,,,,,,,,,,,,,,,,,,,,,,,,,,,,,,,,0,2,2,0,1,,,,,,,,,,,,,,,,,,,,,,,,,,,,,,,,,,,,,,,,,,,,,,
924159,001,2022-11-20_18h00.57.142,Info_measure_main_exp,2022.2.2,Win32,59.89099838,,,,,,,,,,,,,,,,,,masks/mask_005.jpg,,,,,,,,,,,,,,,,,,,,,,,,,,,,,,,,,,,,,,,,,,,0,3,3,4,1,,,,,,,,,,,,,,,,,,,,,,,,,,,,,,,,,,,,,,,,,,,,,,
924159,001,2022-11-20_18h00.57.142,Info_measure_main_exp,2022.2.2,Win32,59.89099838,,,,,,,,,,,,,,,,,,masks/mask_003.jpg,,,,,,,,,,,,,,,,,,,,,,,,,,,,,,,,,,,,,,,,,,,0,4,4,2,1,,,,,,,,,,,,,,,,,,,,,,,,,,,,,,,,,,,,,,,,,,,,,,
924159,001,2022-11-20_18h00.57.142,Info_measure_main_exp,2022.2.2,Win32,59.89099838,,,,,,,,,,,,,,,,,,masks/mask_005.jpg,,,,,,,,,,,,,,,,,,,,,,,,,,,,,,,,,,,,,,,,,,,,,,,,0,0,0,4,1,,,,,,,,,,,,,,,,,,,,,,,,,,,,,,,,,,,,,,,,,
924159,001,2022-11-20_18h00.57.142,Info_measure_main_exp,2022.2.2,Win32,59.89099838,,,,,,,,,,,,,,,,,,masks/mask_001.jpg,,,,,,,,,,,,,,,,,,,,,,,,,,,,,,,,,,,,,,,,,,,,,,,,0,1,1,0,1,,,,,,,,,,,,,,,,,,,,,,,,,,,,,,,,,,,,,,,,,
924159,001,2022-11-20_18h00.57.142,Info_measure_main_exp,2022.2.2,Win32,59.89099838,,,,,,,,,,,,,,,,,,masks/mask_003.jpg,,,,,,,,,,,,,,,,,,,,,,,,,,,,,,,,,,,,,,,,,,,,,,,,0,2,2,2,1,,,,,,,,,,,,,,,,,,,,,,,,,,,,,,,,,,,,,,,,,
924159,001,2022-11-20_18h00.57.142,Info_measure_main_exp,2022.2.2,Win32,59.89099838,,,,,,,,,,,,,,,,,,masks/mask_004.jpg,,,,,,,,,,,,,,,,,,,,,,,,,,,,,,,,,,,,,,,,,,,,,,,,0,3,3,3,1,,,,,,,,,,,,,,,,,,,,,,,,,,,,,,,,,,,,,,,,,
924159,001,2022-11-20_18h00.57.142,Info_measure_main_exp,2022.2.2,Win32,59.89099838,,,,,,,,,,,,,,,,,,masks/mask_002.jpg,,,,,,,,,,,,,,,,,,,,,,,,,,,,,,,,,,,,,,,,,,,,,,,,0,4,4,1,1,,,,,,,,,,,,,,,,,,,,,,,,,,,,,,,,,,,,,,,,,
924159,001,2022-11-20_18h00.57.142,Info_measure_main_exp,2022.2.2,Win32,59.89099838,,,,,,,,,,,,,,,,,,,,,,,,,,,,,,0,1.183,1,,,,,,,,,,,,0,131,5,5,2274,2274,absent_patch/patch0002274.jpg,absent_patch/patch0002274.jpg,,,,,,,,,,,,,,,,,,,,-0.030555513,0.119444423,1,0,0,response7disk,4,0.009259259,0,1,0,0,center_square,0,3,3,114,1,,,,,,,,,,,,,,,,,,,,,,,
924159,001,2022-11-20_18h00.57.142,Info_measure_main_exp,2022.2.2,Win32,59.89099838,,,,,,,,,,,,,,,,,,masks/mask_002.jpg,,,,,,,,,,,,,,,,,,,,,,,,,,,,,,,,,,,,,,,,,,,0,0,0,1,1,,,,,,,,,,,,,,,,,,,,,,,,,,,,,,,,,,,,,,,,,,,,,,
924159,001,2022-11-20_18h00.57.142,Info_measure_main_exp,2022.2.2,Win32,59.89099838,,,,,,,,,,,,,,,,,,masks/mask_005.jpg,,,,,,,,,,,,,,,,,,,,,,,,,,,,,,,,,,,,,,,,,,,0,1,1,4,1,,,,,,,,,,,,,,,,,,,,,,,,,,,,,,,,,,,,,,,,,,,,,,
924159,001,2022-11-20_18h00.57.142,Info_measure_main_exp,2022.2.2,Win32,59.89099838,,,,,,,,,,,,,,,,,,masks/mask_003.jpg,,,,,,,,,,,,,,,,,,,,,,,,,,,,,,,,,,,,,,,,,,,0,2,2,2,1,,,,,,,,,,,,,,,,,,,,,,,,,,,,,,,,,,,,,,,,,,,,,,
924159,001,2022-11-20_18h00.57.142,Info_measure_main_exp,2022.2.2,Win32,59.89099838,,,,,,,,,,,,,,,,,,masks/mask_004.jpg,,,,,,,,,,,,,,,,,,,,,,,,,,,,,,,,,,,,,,,,,,,0,3,3,3,1,,,,,,,,,,,,,,,,,,,,,,,,,,,,,,,,,,,,,,,,,,,,,,
924159,001,2022-11-20_18h00.57.142,Info_measure_main_exp,2022.2.2,Win32,59.89099838,,,,,,,,,,,,,,,,,,masks/mask_001.jpg,,,,,,,,,,,,,,,,,,,,,,,,,,,,,,,,,,,,,,,,,,,0,4,4,0,1,,,,,,,,,,,,,,,,,,,,,,,,,,,,,,,,,,,,,,,,,,,,,,
924159,001,2022-11-20_18h00.57.142,Info_measure_main_exp,2022.2.2,Win32,59.89099838,,,,,,,,,,,,,,,,,,masks/mask_001.jpg,,,,,,,,,,,,,,,,,,,,,,,,,,,,,,,,,,,,,,,,,,,,,,,,0,0,0,0,1,,,,,,,,,,,,,,,,,,,,,,,,,,,,,,,,,,,,,,,,,
924159,001,2022-11-20_18h00.57.142,Info_measure_main_exp,2022.2.2,Win32,59.89099838,,,,,,,,,,,,,,,,,,masks/mask_004.jpg,,,,,,,,,,,,,,,,,,,,,,,,,,,,,,,,,,,,,,,,,,,,,,,,0,1,1,3,1,,,,,,,,,,,,,,,,,,,,,,,,,,,,,,,,,,,,,,,,,
924159,001,2022-11-20_18h00.57.142,Info_measure_main_exp,2022.2.2,Win32,59.89099838,,,,,,,,,,,,,,,,,,masks/mask_005.jpg,,,,,,,,,,,,,,,,,,,,,,,,,,,,,,,,,,,,,,,,,,,,,,,,0,2,2,4,1,,,,,,,,,,,,,,,,,,,,,,,,,,,,,,,,,,,,,,,,,
924159,001,2022-11-20_18h00.57.142,Info_measure_main_exp,2022.2.2,Win32,59.89099838,,,,,,,,,,,,,,,,,,masks/mask_002.jpg,,,,,,,,,,,,,,,,,,,,,,,,,,,,,,,,,,,,,,,,,,,,,,,,0,3,3,1,1,,,,,,,,,,,,,,,,,,,,,,,,,,,,,,,,,,,,,,,,,
924159,001,2022-11-20_18h00.57.142,Info_measure_main_exp,2022.2.2,Win32,59.89099838,,,,,,,,,,,,,,,,,,masks/mask_003.jpg,,,,,,,,,,,,,,,,,,,,,,,,,,,,,,,,,,,,,,,,,,,,,,,,0,4,4,2,1,,,,,,,,,,,,,,,,,,,,,,,,,,,,,,,,,,,,,,,,,
924159,001,2022-11-20_18h00.57.142,Info_measure_main_exp,2022.2.2,Win32,59.89099838,,,,,,,,,,,,,,,,,,,,,,,,,,,,,,0,0.8661,1,,,,,,,,,,,,0,131,5,5,2298,2298,absent_patch/patch0002298.jpg,absent_patch/patch0002298.jpg,,,,,,,,,,,,,,,,,,,,-0.083333333,0.125,1,0,0,response7disk,5,-0.007407365,-0.002777771,1,0,0,center_square,0,4,4,37,1,,,,,,,,,,,,,,,,,,,,,,,
924159,001,2022-11-20_18h00.57.142,Info_measure_main_exp,2022.2.2,Win32,59.89099838,,,,,,,,,,,,,,,,,,masks/mask_005.jpg,,,,,,,,,,,,,,,,,,,,,,,,,,,,,,,,,,,,,,,,,,,0,0,0,4,1,,,,,,,,,,,,,,,,,,,,,,,,,,,,,,,,,,,,,,,,,,,,,,
924159,001,2022-11-20_18h00.57.142,Info_measure_main_exp,2022.2.2,Win32,59.89099838,,,,,,,,,,,,,,,,,,masks/mask_002.jpg,,,,,,,,,,,,,,,,,,,,,,,,,,,,,,,,,,,,,,,,,,,0,1,1,1,1,,,,,,,,,,,,,,,,,,,,,,,,,,,,,,,,,,,,,,,,,,,,,,
924159,001,2022-11-20_18h00.57.142,Info_measure_main_exp,2022.2.2,Win32,59.89099838,,,,,,,,,,,,,,,,,,masks/mask_001.jpg,,,,,,,,,,,,,,,,,,,,,,,,,,,,,,,,,,,,,,,,,,,0,2,2,0,1,,,,,,,,,,,,,,,,,,,,,,,,,,,,,,,,,,,,,,,,,,,,,,
924159,001,2022-11-20_18h00.57.142,Info_measure_main_exp,2022.2.2,Win32,59.89099838,,,,,,,,,,,,,,,,,,masks/mask_003.jpg,,,,,,,,,,,,,,,,,,,,,,,,,,,,,,,,,,,,,,,,,,,0,3,3,2,1,,,,,,,,,,,,,,,,,,,,,,,,,,,,,,,,,,,,,,,,,,,,,,
924159,001,2022-11-20_18h00.57.142,Info_measure_main_exp,2022.2.2,Win32,59.89099838,,,,,,,,,,,,,,,,,,masks/mask_004.jpg,,,,,,,,,,,,,,,,,,,,,,,,,,,,,,,,,,,,,,,,,,,0,4,4,3,1,,,,,,,,,,,,,,,,,,,,,,,,,,,,,,,,,,,,,,,,,,,,,,
924159,001,2022-11-20_18h00.57.142,Info_measure_main_exp,2022.2.2,Win32,59.89099838,,,,,,,,,,,,,,,,,,masks/mask_005.jpg,,,,,,,,,,,,,,,,,,,,,,,,,,,,,,,,,,,,,,,,,,,,,,,,0,0,0,4,1,,,,,,,,,,,,,,,,,,,,,,,,,,,,,,,,,,,,,,,,,
924159,001,2022-11-20_18h00.57.142,Info_measure_main_exp,2022.2.2,Win32,59.89099838,,,,,,,,,,,,,,,,,,masks/mask_003.jpg,,,,,,,,,,,,,,,,,,,,,,,,,,,,,,,,,,,,,,,,,,,,,,,,0,1,1,2,1,,,,,,,,,,,,,,,,,,,,,,,,,,,,,,,,,,,,,,,,,
924159,001,2022-11-20_18h00.57.142,Info_measure_main_exp,2022.2.2,Win32,59.89099838,,,,,,,,,,,,,,,,,,masks/mask_002.jpg,,,,,,,,,,,,,,,,,,,,,,,,,,,,,,,,,,,,,,,,,,,,,,,,0,2,2,1,1,,,,,,,,,,,,,,,,,,,,,,,,,,,,,,,,,,,,,,,,,
924159,001,2022-11-20_18h00.57.142,Info_measure_main_exp,2022.2.2,Win32,59.89099838,,,,,,,,,,,,,,,,,,masks/mask_001.jpg,,,,,,,,,,,,,,,,,,,,,,,,,,,,,,,,,,,,,,,,,,,,,,,,0,3,3,0,1,,,,,,,,,,,,,,,,,,,,,,,,,,,,,,,,,,,,,,,,,
924159,001,2022-11-20_18h00.57.142,Info_measure_main_exp,2022.2.2,Win32,59.89099838,,,,,,,,,,,,,,,,,,masks/mask_004.jpg,,,,,,,,,,,,,,,,,,,,,,,,,,,,,,,,,,,,,,,,,,,,,,,,0,4,4,3,1,,,,,,,,,,,,,,,,,,,,,,,,,,,,,,,,,,,,,,,,,
924159,001,2022-11-20_18h00.57.142,Info_measure_main_exp,2022.2.2,Win32,59.89099838,,,,,,,,,,,,,,,,,,,,,,,,,,,,,,6,1.367,1,,,,,,,,,,,,0,131,5,5,1974,2238,absent_patch/patch0001974.jpg,absent_patch/patch0002238.jpg,,,,,,,,,,,,,,,,,,,,0.147222236,0.043518526,1,0,0,response1disk,6,0.001851894,-0.010185206,1,0,0,center_square,0,5,5,95,1,,,,,,,,,,,,,,,,,,,,,,,
924159,001,2022-11-20_18h00.57.142,Info_measure_main_exp,2022.2.2,Win32,59.89099838,,,,,,,,,,,,,,,,,,masks/mask_003.jpg,,,,,,,,,,,,,,,,,,,,,,,,,,,,,,,,,,,,,,,,,,,0,0,0,2,1,,,,,,,,,,,,,,,,,,,,,,,,,,,,,,,,,,,,,,,,,,,,,,
924159,001,2022-11-20_18h00.57.142,Info_measure_main_exp,2022.2.2,Win32,59.89099838,,,,,,,,,,,,,,,,,,masks/mask_004.jpg,,,,,,,,,,,,,,,,,,,,,,,,,,,,,,,,,,,,,,,,,,,0,1,1,3,1,,,,,,,,,,,,,,,,,,,,,,,,,,,,,,,,,,,,,,,,,,,,,,
924159,001,2022-11-20_18h00.57.142,Info_measure_main_exp,2022.2.2,Win32,59.89099838,,,,,,,,,,,,,,,,,,masks/mask_002.jpg,,,,,,,,,,,,,,,,,,,,,,,,,,,,,,,,,,,,,,,,,,,0,2,2,1,1,,,,,,,,,,,,,,,,,,,,,,,,,,,,,,,,,,,,,,,,,,,,,,
924159,001,2022-11-20_18h00.57.142,Info_measure_main_exp,2022.2.2,Win32,59.89099838,,,,,,,,,,,,,,,,,,masks/mask_001.jpg,,,,,,,,,,,,,,,,,,,,,,,,,,,,,,,,,,,,,,,,,,,0,3,3,0,1,,,,,,,,,,,,,,,,,,,,,,,,,,,,,,,,,,,,,,,,,,,,,,
924159,001,2022-11-20_18h00.57.142,Info_measure_main_exp,2022.2.2,Win32,59.89099838,,,,,,,,,,,,,,,,,,masks/mask_005.jpg,,,,,,,,,,,,,,,,,,,,,,,,,,,,,,,,,,,,,,,,,,,0,4,4,4,1,,,,,,,,,,,,,,,,,,,,,,,,,,,,,,,,,,,,,,,,,,,,,,
924159,001,2022-11-20_18h00.57.142,Info_measure_main_exp,2022.2.2,Win32,59.89099838,,,,,,,,,,,,,,,,,,masks/mask_004.jpg,,,,,,,,,,,,,,,,,,,,,,,,,,,,,,,,,,,,,,,,,,,,,,,,0,0,0,3,1,,,,,,,,,,,,,,,,,,,,,,,,,,,,,,,,,,,,,,,,,
924159,001,2022-11-20_18h00.57.142,Info_measure_main_exp,2022.2.2,Win32,59.89099838,,,,,,,,,,,,,,,,,,masks/mask_003.jpg,,,,,,,,,,,,,,,,,,,,,,,,,,,,,,,,,,,,,,,,,,,,,,,,0,1,1,2,1,,,,,,,,,,,,,,,,,,,,,,,,,,,,,,,,,,,,,,,,,
924159,001,2022-11-20_18h00.57.142,Info_measure_main_exp,2022.2.2,Win32,59.89099838,,,,,,,,,,,,,,,,,,masks/mask_001.jpg,,,,,,,,,,,,,,,,,,,,,,,,,,,,,,,,,,,,,,,,,,,,,,,,0,2,2,0,1,,,,,,,,,,,,,,,,,,,,,,,,,,,,,,,,,,,,,,,,,
924159,001,2022-11-20_18h00.57.142,Info_measure_main_exp,2022.2.2,Win32,59.89099838,,,,,,,,,,,,,,,,,,masks/mask_002.jpg,,,,,,,,,,,,,,,,,,,,,,,,,,,,,,,,,,,,,,,,,,,,,,,,0,3,3,1,1,,,,,,,,,,,,,,,,,,,,,,,,,,,,,,,,,,,,,,,,,
924159,001,2022-11-20_18h00.57.142,Info_measure_main_exp,2022.2.2,Win32,59.89099838,,,,,,,,,,,,,,,,,,masks/mask_005.jpg,,,,,,,,,,,,,,,,,,,,,,,,,,,,,,,,,,,,,,,,,,,,,,,,0,4,4,4,1,,,,,,,,,,,,,,,,,,,,,,,,,,,,,,,,,,,,,,,,,
924159,001,2022-11-20_18h00.57.142,Info_measure_main_exp,2022.2.2,Win32,59.89099838,,,,,,,,,,,,,,,,,,,,,,,,,,,,,,7,1.0327,1,,,,,,,,,,,,0,131,5,5,2154,1950,absent_patch/patch0002154.jpg,absent_patch/patch0001950.jpg,,,,,,,,,,,,,,,,,,,,0.049074102,0.100925905,1,0,0,response1disk,7,-0.000925912,0.000925912,1,0,0,center_square,0,6,6,96,1,,,,,,,,,,,,,,,,,,,,,,,
924159,001,2022-11-20_18h00.57.142,Info_measure_main_exp,2022.2.2,Win32,59.89099838,,,,,,,,,,,,,,,,,,masks/mask_003.jpg,,,,,,,,,,,,,,,,,,,,,,,,,,,,,,,,,,,,,,,,,,,0,0,0,2,1,,,,,,,,,,,,,,,,,,,,,,,,,,,,,,,,,,,,,,,,,,,,,,
924159,001,2022-11-20_18h00.57.142,Info_measure_main_exp,2022.2.2,Win32,59.89099838,,,,,,,,,,,,,,,,,,masks/mask_001.jpg,,,,,,,,,,,,,,,,,,,,,,,,,,,,,,,,,,,,,,,,,,,0,1,1,0,1,,,,,,,,,,,,,,,,,,,,,,,,,,,,,,,,,,,,,,,,,,,,,,
924159,001,2022-11-20_18h00.57.142,Info_measure_main_exp,2022.2.2,Win32,59.89099838,,,,,,,,,,,,,,,,,,masks/mask_004.jpg,,,,,,,,,,,,,,,,,,,,,,,,,,,,,,,,,,,,,,,,,,,0,2,2,3,1,,,,,,,,,,,,,,,,,,,,,,,,,,,,,,,,,,,,,,,,,,,,,,
924159,001,2022-11-20_18h00.57.142,Info_measure_main_exp,2022.2.2,Win32,59.89099838,,,,,,,,,,,,,,,,,,masks/mask_005.jpg,,,,,,,,,,,,,,,,,,,,,,,,,,,,,,,,,,,,,,,,,,,0,3,3,4,1,,,,,,,,,,,,,,,,,,,,,,,,,,,,,,,,,,,,,,,,,,,,,,
924159,001,2022-11-20_18h00.57.142,Info_measure_main_exp,2022.2.2,Win32,59.89099838,,,,,,,,,,,,,,,,,,masks/mask_002.jpg,,,,,,,,,,,,,,,,,,,,,,,,,,,,,,,,,,,,,,,,,,,0,4,4,1,1,,,,,,,,,,,,,,,,,,,,,,,,,,,,,,,,,,,,,,,,,,,,,,
924159,001,2022-11-20_18h00.57.142,Info_measure_main_exp,2022.2.2,Win32,59.89099838,,,,,,,,,,,,,,,,,,masks/mask_002.jpg,,,,,,,,,,,,,,,,,,,,,,,,,,,,,,,,,,,,,,,,,,,,,,,,0,0,0,1,1,,,,,,,,,,,,,,,,,,,,,,,,,,,,,,,,,,,,,,,,,
924159,001,2022-11-20_18h00.57.142,Info_measure_main_exp,2022.2.2,Win32,59.89099838,,,,,,,,,,,,,,,,,,masks/mask_005.jpg,,,,,,,,,,,,,,,,,,,,,,,,,,,,,,,,,,,,,,,,,,,,,,,,0,1,1,4,1,,,,,,,,,,,,,,,,,,,,,,,,,,,,,,,,,,,,,,,,,
924159,001,2022-11-20_18h00.57.142,Info_measure_main_exp,2022.2.2,Win32,59.89099838,,,,,,,,,,,,,,,,,,masks/mask_003.jpg,,,,,,,,,,,,,,,,,,,,,,,,,,,,,,,,,,,,,,,,,,,,,,,,0,2,2,2,1,,,,,,,,,,,,,,,,,,,,,,,,,,,,,,,,,,,,,,,,,
924159,001,2022-11-20_18h00.57.142,Info_measure_main_exp,2022.2.2,Win32,59.89099838,,,,,,,,,,,,,,,,,,masks/mask_004.jpg,,,,,,,,,,,,,,,,,,,,,,,,,,,,,,,,,,,,,,,,,,,,,,,,0,3,3,3,1,,,,,,,,,,,,,,,,,,,,,,,,,,,,,,,,,,,,,,,,,
924159,001,2022-11-20_18h00.57.142,Info_measure_main_exp,2022.2.2,Win32,59.89099838,,,,,,,,,,,,,,,,,,masks/mask_001.jpg,,,,,,,,,,,,,,,,,,,,,,,,,,,,,,,,,,,,,,,,,,,,,,,,0,4,4,0,1,,,,,,,,,,,,,,,,,,,,,,,,,,,,,,,,,,,,,,,,,
924159,001,2022-11-20_18h00.57.142,Info_measure_main_exp,2022.2.2,Win32,59.89099838,,,,,,,,,,,,,,,,,,,,,,,,,,,,,,7,0.7162,1,,,,,,,,,,,,0,131,5,5,2214,2166,absent_patch/patch0002214.jpg,absent_patch/patch0002166.jpg,,,,,,,,,,,,,,,,,,,,0.023148148,0.124074053,1,0,0,response1disk,8,0,0.014814801,1,0,0,center_square,0,7,7,109,1,,,,,,,,,,,,,,,,,,,,,,,
924159,001,2022-11-20_18h00.57.142,Info_measure_main_exp,2022.2.2,Win32,59.89099838,,,,,,,,,,,,,,,,,,masks/mask_002.jpg,,,,,,,,,,,,,,,,,,,,,,,,,,,,,,,,,,,,,,,,,,,0,0,0,1,1,,,,,,,,,,,,,,,,,,,,,,,,,,,,,,,,,,,,,,,,,,,,,,
924159,001,2022-11-20_18h00.57.142,Info_measure_main_exp,2022.2.2,Win32,59.89099838,,,,,,,,,,,,,,,,,,masks/mask_004.jpg,,,,,,,,,,,,,,,,,,,,,,,,,,,,,,,,,,,,,,,,,,,0,1,1,3,1,,,,,,,,,,,,,,,,,,,,,,,,,,,,,,,,,,,,,,,,,,,,,,
924159,001,2022-11-20_18h00.57.142,Info_measure_main_exp,2022.2.2,Win32,59.89099838,,,,,,,,,,,,,,,,,,masks/mask_001.jpg,,,,,,,,,,,,,,,,,,,,,,,,,,,,,,,,,,,,,,,,,,,0,2,2,0,1,,,,,,,,,,,,,,,,,,,,,,,,,,,,,,,,,,,,,,,,,,,,,,
924159,001,2022-11-20_18h00.57.142,Info_measure_main_exp,2022.2.2,Win32,59.89099838,,,,,,,,,,,,,,,,,,masks/mask_005.jpg,,,,,,,,,,,,,,,,,,,,,,,,,,,,,,,,,,,,,,,,,,,0,3,3,4,1,,,,,,,,,,,,,,,,,,,,,,,,,,,,,,,,,,,,,,,,,,,,,,
924159,001,2022-11-20_18h00.57.142,Info_measure_main_exp,2022.2.2,Win32,59.89099838,,,,,,,,,,,,,,,,,,masks/mask_003.jpg,,,,,,,,,,,,,,,,,,,,,,,,,,,,,,,,,,,,,,,,,,,0,4,4,2,1,,,,,,,,,,,,,,,,,,,,,,,,,,,,,,,,,,,,,,,,,,,,,,
924159,001,2022-11-20_18h00.57.142,Info_measure_main_exp,2022.2.2,Win32,59.89099838,,,,,,,,,,,,,,,,,,masks/mask_001.jpg,,,,,,,,,,,,,,,,,,,,,,,,,,,,,,,,,,,,,,,,,,,,,,,,0,0,0,0,1,,,,,,,,,,,,,,,,,,,,,,,,,,,,,,,,,,,,,,,,,
924159,001,2022-11-20_18h00.57.142,Info_measure_main_exp,2022.2.2,Win32,59.89099838,,,,,,,,,,,,,,,,,,masks/mask_003.jpg,,,,,,,,,,,,,,,,,,,,,,,,,,,,,,,,,,,,,,,,,,,,,,,,0,1,1,2,1,,,,,,,,,,,,,,,,,,,,,,,,,,,,,,,,,,,,,,,,,
924159,001,2022-11-20_18h00.57.142,Info_measure_main_exp,2022.2.2,Win32,59.89099838,,,,,,,,,,,,,,,,,,masks/mask_005.jpg,,,,,,,,,,,,,,,,,,,,,,,,,,,,,,,,,,,,,,,,,,,,,,,,0,2,2,4,1,,,,,,,,,,,,,,,,,,,,,,,,,,,,,,,,,,,,,,,,,
924159,001,2022-11-20_18h00.57.142,Info_measure_main_exp,2022.2.2,Win32,59.89099838,,,,,,,,,,,,,,,,,,masks/mask_002.jpg,,,,,,,,,,,,,,,,,,,,,,,,,,,,,,,,,,,,,,,,,,,,,,,,0,3,3,1,1,,,,,,,,,,,,,,,,,,,,,,,,,,,,,,,,,,,,,,,,,
924159,001,2022-11-20_18h00.57.142,Info_measure_main_exp,2022.2.2,Win32,59.89099838,,,,,,,,,,,,,,,,,,masks/mask_004.jpg,,,,,,,,,,,,,,,,,,,,,,,,,,,,,,,,,,,,,,,,,,,,,,,,0,4,4,3,1,,,,,,,,,,,,,,,,,,,,,,,,,,,,,,,,,,,,,,,,,
924159,001,2022-11-20_18h00.57.142,Info_measure_main_exp,2022.2.2,Win32,59.89099838,,,,,,,,,,,,,,,,,,,,,,,,,,,,,,0,0.6007,1,,,,,,,,,,,,0,131,5,5,2166,2166,absent_patch/patch0002166.jpg,absent_patch/patch0002166.jpg,,,,,,,,,,,,,,,,,,,,-0.050000014,0.215740734,1,0,0,response7disk,9,0,0.013888889,1,0,0,center_square,0,8,8,42,1,,,,,,,,,,,,,,,,,,,,,,,
924159,001,2022-11-20_18h00.57.142,Info_measure_main_exp,2022.2.2,Win32,59.89099838,,,,,,,,,,,,,,,,,,masks/mask_002.jpg,,,,,,,,,,,,,,,,,,,,,,,,,,,,,,,,,,,,,,,,,,,0,0,0,1,1,,,,,,,,,,,,,,,,,,,,,,,,,,,,,,,,,,,,,,,,,,,,,,
924159,001,2022-11-20_18h00.57.142,Info_measure_main_exp,2022.2.2,Win32,59.89099838,,,,,,,,,,,,,,,,,,masks/mask_005.jpg,,,,,,,,,,,,,,,,,,,,,,,,,,,,,,,,,,,,,,,,,,,0,1,1,4,1,,,,,,,,,,,,,,,,,,,,,,,,,,,,,,,,,,,,,,,,,,,,,,
924159,001,2022-11-20_18h00.57.142,Info_measure_main_exp,2022.2.2,Win32,59.89099838,,,,,,,,,,,,,,,,,,masks/mask_004.jpg,,,,,,,,,,,,,,,,,,,,,,,,,,,,,,,,,,,,,,,,,,,0,2,2,3,1,,,,,,,,,,,,,,,,,,,,,,,,,,,,,,,,,,,,,,,,,,,,,,
924159,001,2022-11-20_18h00.57.142,Info_measure_main_exp,2022.2.2,Win32,59.89099838,,,,,,,,,,,,,,,,,,masks/mask_003.jpg,,,,,,,,,,,,,,,,,,,,,,,,,,,,,,,,,,,,,,,,,,,0,3,3,2,1,,,,,,,,,,,,,,,,,,,,,,,,,,,,,,,,,,,,,,,,,,,,,,
924159,001,2022-11-20_18h00.57.142,Info_measure_main_exp,2022.2.2,Win32,59.89099838,,,,,,,,,,,,,,,,,,masks/mask_001.jpg,,,,,,,,,,,,,,,,,,,,,,,,,,,,,,,,,,,,,,,,,,,0,4,4,0,1,,,,,,,,,,,,,,,,,,,,,,,,,,,,,,,,,,,,,,,,,,,,,,
924159,001,2022-11-20_18h00.57.142,Info_measure_main_exp,2022.2.2,Win32,59.89099838,,,,,,,,,,,,,,,,,,masks/mask_004.jpg,,,,,,,,,,,,,,,,,,,,,,,,,,,,,,,,,,,,,,,,,,,,,,,,0,0,0,3,1,,,,,,,,,,,,,,,,,,,,,,,,,,,,,,,,,,,,,,,,,
924159,001,2022-11-20_18h00.57.142,Info_measure_main_exp,2022.2.2,Win32,59.89099838,,,,,,,,,,,,,,,,,,masks/mask_005.jpg,,,,,,,,,,,,,,,,,,,,,,,,,,,,,,,,,,,,,,,,,,,,,,,,0,1,1,4,1,,,,,,,,,,,,,,,,,,,,,,,,,,,,,,,,,,,,,,,,,
924159,001,2022-11-20_18h00.57.142,Info_measure_main_exp,2022.2.2,Win32,59.89099838,,,,,,,,,,,,,,,,,,masks/mask_002.jpg,,,,,,,,,,,,,,,,,,,,,,,,,,,,,,,,,,,,,,,,,,,,,,,,0,2,2,1,1,,,,,,,,,,,,,,,,,,,,,,,,,,,,,,,,,,,,,,,,,
924159,001,2022-11-20_18h00.57.142,Info_measure_main_exp,2022.2.2,Win32,59.89099838,,,,,,,,,,,,,,,,,,masks/mask_001.jpg,,,,,,,,,,,,,,,,,,,,,,,,,,,,,,,,,,,,,,,,,,,,,,,,0,3,3,0,1,,,,,,,,,,,,,,,,,,,,,,,,,,,,,,,,,,,,,,,,,
924159,001,2022-11-20_18h00.57.142,Info_measure_main_exp,2022.2.2,Win32,59.89099838,,,,,,,,,,,,,,,,,,masks/mask_003.jpg,,,,,,,,,,,,,,,,,,,,,,,,,,,,,,,,,,,,,,,,,,,,,,,,0,4,4,2,1,,,,,,,,,,,,,,,,,,,,,,,,,,,,,,,,,,,,,,,,,
924159,001,2022-11-20_18h00.57.142,Info_measure_main_exp,2022.2.2,Win32,59.89099838,,,,,,,,,,,,,,,,,,,,,,,,,,,,,,7,0.7995,1,,,,,,,,,,,,0,131,5,5,2298,2178,absent_patch/patch0002298.jpg,absent_patch/patch0002178.jpg,,,,,,,,,,,,,,,,,,,,0.027777778,0.066666674,1,0,0,response1disk,10,0.005555541,0,1,0,0,center_square,0,9,9,84,1,,,,,,,,,,,,,,,,,,,,,,,
924159,001,2022-11-20_18h00.57.142,Info_measure_main_exp,2022.2.2,Win32,59.89099838,,,,,,,,,,,,,,,,,,masks/mask_001.jpg,,,,,,,,,,,,,,,,,,,,,,,,,,,,,,,,,,,,,,,,,,,0,0,0,0,1,,,,,,,,,,,,,,,,,,,,,,,,,,,,,,,,,,,,,,,,,,,,,,
924159,001,2022-11-20_18h00.57.142,Info_measure_main_exp,2022.2.2,Win32,59.89099838,,,,,,,,,,,,,,,,,,masks/mask_005.jpg,,,,,,,,,,,,,,,,,,,,,,,,,,,,,,,,,,,,,,,,,,,0,1,1,4,1,,,,,,,,,,,,,,,,,,,,,,,,,,,,,,,,,,,,,,,,,,,,,,
924159,001,2022-11-20_18h00.57.142,Info_measure_main_exp,2022.2.2,Win32,59.89099838,,,,,,,,,,,,,,,,,,masks/mask_003.jpg,,,,,,,,,,,,,,,,,,,,,,,,,,,,,,,,,,,,,,,,,,,0,2,2,2,1,,,,,,,,,,,,,,,,,,,,,,,,,,,,,,,,,,,,,,,,,,,,,,
924159,001,2022-11-20_18h00.57.142,Info_measure_main_exp,2022.2.2,Win32,59.89099838,,,,,,,,,,,,,,,,,,masks/mask_004.jpg,,,,,,,,,,,,,,,,,,,,,,,,,,,,,,,,,,,,,,,,,,,0,3,3,3,1,,,,,,,,,,,,,,,,,,,,,,,,,,,,,,,,,,,,,,,,,,,,,,
924159,001,2022-11-20_18h00.57.142,Info_measure_main_exp,2022.2.2,Win32,59.89099838,,,,,,,,,,,,,,,,,,masks/mask_002.jpg,,,,,,,,,,,,,,,,,,,,,,,,,,,,,,,,,,,,,,,,,,,0,4,4,1,1,,,,,,,,,,,,,,,,,,,,,,,,,,,,,,,,,,,,,,,,,,,,,,
924159,001,2022-11-20_18h00.57.142,Info_measure_main_exp,2022.2.2,Win32,59.89099838,,,,,,,,,,,,,,,,,,masks/mask_002.jpg,,,,,,,,,,,,,,,,,,,,,,,,,,,,,,,,,,,,,,,,,,,,,,,,0,0,0,1,1,,,,,,,,,,,,,,,,,,,,,,,,,,,,,,,,,,,,,,,,,
924159,001,2022-11-20_18h00.57.142,Info_measure_main_exp,2022.2.2,Win32,59.89099838,,,,,,,,,,,,,,,,,,masks/mask_001.jpg,,,,,,,,,,,,,,,,,,,,,,,,,,,,,,,,,,,,,,,,,,,,,,,,0,1,1,0,1,,,,,,,,,,,,,,,,,,,,,,,,,,,,,,,,,,,,,,,,,
924159,001,2022-11-20_18h00.57.142,Info_measure_main_exp,2022.2.2,Win32,59.89099838,,,,,,,,,,,,,,,,,,masks/mask_005.jpg,,,,,,,,,,,,,,,,,,,,,,,,,,,,,,,,,,,,,,,,,,,,,,,,0,2,2,4,1,,,,,,,,,,,,,,,,,,,,,,,,,,,,,,,,,,,,,,,,,
924159,001,2022-11-20_18h00.57.142,Info_measure_main_exp,2022.2.2,Win32,59.89099838,,,,,,,,,,,,,,,,,,masks/mask_004.jpg,,,,,,,,,,,,,,,,,,,,,,,,,,,,,,,,,,,,,,,,,,,,,,,,0,3,3,3,1,,,,,,,,,,,,,,,,,,,,,,,,,,,,,,,,,,,,,,,,,
924159,001,2022-11-20_18h00.57.142,Info_measure_main_exp,2022.2.2,Win32,59.89099838,,,,,,,,,,,,,,,,,,masks/mask_003.jpg,,,,,,,,,,,,,,,,,,,,,,,,,,,,,,,,,,,,,,,,,,,,,,,,0,4,4,2,1,,,,,,,,,,,,,,,,,,,,,,,,,,,,,,,,,,,,,,,,,
924159,001,2022-11-20_18h00.57.142,Info_measure_main_exp,2022.2.2,Win32,59.89099838,,,,,,,,,,,,,,,,,,,,,,,,,,,,,,7,0.65,1,,,,,,,,,,,,0,131,5,5,2274,2214,absent_patch/patch0002274.jpg,absent_patch/patch0002214.jpg,,,,,,,,,,,,,,,,,,,,0.005555541,0.085185192,1,0,0,response1disk,11,0.00462963,0.012962942,1,0,0,center_square,0,10,10,11,1,,,,,,,,,,,,,,,,,,,,,,,
924159,001,2022-11-20_18h00.57.142,Info_measure_main_exp,2022.2.2,Win32,59.89099838,,,,,,,,,,,,,,,,,,masks/mask_001.jpg,,,,,,,,,,,,,,,,,,,,,,,,,,,,,,,,,,,,,,,,,,,0,0,0,0,1,,,,,,,,,,,,,,,,,,,,,,,,,,,,,,,,,,,,,,,,,,,,,,
924159,001,2022-11-20_18h00.57.142,Info_measure_main_exp,2022.2.2,Win32,59.89099838,,,,,,,,,,,,,,,,,,masks/mask_005.jpg,,,,,,,,,,,,,,,,,,,,,,,,,,,,,,,,,,,,,,,,,,,0,1,1,4,1,,,,,,,,,,,,,,,,,,,,,,,,,,,,,,,,,,,,,,,,,,,,,,
924159,001,2022-11-20_18h00.57.142,Info_measure_main_exp,2022.2.2,Win32,59.89099838,,,,,,,,,,,,,,,,,,masks/mask_003.jpg,,,,,,,,,,,,,,,,,,,,,,,,,,,,,,,,,,,,,,,,,,,0,2,2,2,1,,,,,,,,,,,,,,,,,,,,,,,,,,,,,,,,,,,,,,,,,,,,,,
924159,001,2022-11-20_18h00.57.142,Info_measure_main_exp,2022.2.2,Win32,59.89099838,,,,,,,,,,,,,,,,,,masks/mask_004.jpg,,,,,,,,,,,,,,,,,,,,,,,,,,,,,,,,,,,,,,,,,,,0,3,3,3,1,,,,,,,,,,,,,,,,,,,,,,,,,,,,,,,,,,,,,,,,,,,,,,
924159,001,2022-11-20_18h00.57.142,Info_measure_main_exp,2022.2.2,Win32,59.89099838,,,,,,,,,,,,,,,,,,masks/mask_002.jpg,,,,,,,,,,,,,,,,,,,,,,,,,,,,,,,,,,,,,,,,,,,0,4,4,1,1,,,,,,,,,,,,,,,,,,,,,,,,,,,,,,,,,,,,,,,,,,,,,,
924159,001,2022-11-20_18h00.57.142,Info_measure_main_exp,2022.2.2,Win32,59.89099838,,,,,,,,,,,,,,,,,,masks/mask_001.jpg,,,,,,,,,,,,,,,,,,,,,,,,,,,,,,,,,,,,,,,,,,,,,,,,0,0,0,0,1,,,,,,,,,,,,,,,,,,,,,,,,,,,,,,,,,,,,,,,,,
924159,001,2022-11-20_18h00.57.142,Info_measure_main_exp,2022.2.2,Win32,59.89099838,,,,,,,,,,,,,,,,,,masks/mask_003.jpg,,,,,,,,,,,,,,,,,,,,,,,,,,,,,,,,,,,,,,,,,,,,,,,,0,1,1,2,1,,,,,,,,,,,,,,,,,,,,,,,,,,,,,,,,,,,,,,,,,
924159,001,2022-11-20_18h00.57.142,Info_measure_main_exp,2022.2.2,Win32,59.89099838,,,,,,,,,,,,,,,,,,masks/mask_002.jpg,,,,,,,,,,,,,,,,,,,,,,,,,,,,,,,,,,,,,,,,,,,,,,,,0,2,2,1,1,,,,,,,,,,,,,,,,,,,,,,,,,,,,,,,,,,,,,,,,,
924159,001,2022-11-20_18h00.57.142,Info_measure_main_exp,2022.2.2,Win32,59.89099838,,,,,,,,,,,,,,,,,,masks/mask_004.jpg,,,,,,,,,,,,,,,,,,,,,,,,,,,,,,,,,,,,,,,,,,,,,,,,0,3,3,3,1,,,,,,,,,,,,,,,,,,,,,,,,,,,,,,,,,,,,,,,,,
924159,001,2022-11-20_18h00.57.142,Info_measure_main_exp,2022.2.2,Win32,59.89099838,,,,,,,,,,,,,,,,,,masks/mask_005.jpg,,,,,,,,,,,,,,,,,,,,,,,,,,,,,,,,,,,,,,,,,,,,,,,,0,4,4,4,1,,,,,,,,,,,,,,,,,,,,,,,,,,,,,,,,,,,,,,,,,
924159,001,2022-11-20_18h00.57.142,Info_measure_main_exp,2022.2.2,Win32,59.89099838,,,,,,,,,,,,,,,,,,,,,,,,,,,,,,7,0.567,1,,,,,,,,,,,,0,131,5,5,2166,2298,absent_patch/patch0002166.jpg,absent_patch/patch0002298.jpg,,,,,,,,,,,,,,,,,,,,0.046296296,0.127777771,1,0,0,response1disk,12,0.007407436,0.005555541,1,0,0,center_square,0,11,11,52,1,,,,,,,,,,,,,,,,,,,,,,,
924159,001,2022-11-20_18h00.57.142,Info_measure_main_exp,2022.2.2,Win32,59.89099838,,,,,,,,,,,,,,,,,,masks/mask_004.jpg,,,,,,,,,,,,,,,,,,,,,,,,,,,,,,,,,,,,,,,,,,,0,0,0,3,1,,,,,,,,,,,,,,,,,,,,,,,,,,,,,,,,,,,,,,,,,,,,,,
924159,001,2022-11-20_18h00.57.142,Info_measure_main_exp,2022.2.2,Win32,59.89099838,,,,,,,,,,,,,,,,,,masks/mask_002.jpg,,,,,,,,,,,,,,,,,,,,,,,,,,,,,,,,,,,,,,,,,,,0,1,1,1,1,,,,,,,,,,,,,,,,,,,,,,,,,,,,,,,,,,,,,,,,,,,,,,
924159,001,2022-11-20_18h00.57.142,Info_measure_main_exp,2022.2.2,Win32,59.89099838,,,,,,,,,,,,,,,,,,masks/mask_005.jpg,,,,,,,,,,,,,,,,,,,,,,,,,,,,,,,,,,,,,,,,,,,0,2,2,4,1,,,,,,,,,,,,,,,,,,,,,,,,,,,,,,,,,,,,,,,,,,,,,,
924159,001,2022-11-20_18h00.57.142,Info_measure_main_exp,2022.2.2,Win32,59.89099838,,,,,,,,,,,,,,,,,,masks/mask_003.jpg,,,,,,,,,,,,,,,,,,,,,,,,,,,,,,,,,,,,,,,,,,,0,3,3,2,1,,,,,,,,,,,,,,,,,,,,,,,,,,,,,,,,,,,,,,,,,,,,,,
924159,001,2022-11-20_18h00.57.142,Info_measure_main_exp,2022.2.2,Win32,59.89099838,,,,,,,,,,,,,,,,,,masks/mask_001.jpg,,,,,,,,,,,,,,,,,,,,,,,,,,,,,,,,,,,,,,,,,,,0,4,4,0,1,,,,,,,,,,,,,,,,,,,,,,,,,,,,,,,,,,,,,,,,,,,,,,
924159,001,2022-11-20_18h00.57.142,Info_measure_main_exp,2022.2.2,Win32,59.89099838,,,,,,,,,,,,,,,,,,masks/mask_001.jpg,,,,,,,,,,,,,,,,,,,,,,,,,,,,,,,,,,,,,,,,,,,,,,,,0,0,0,0,1,,,,,,,,,,,,,,,,,,,,,,,,,,,,,,,,,,,,,,,,,
924159,001,2022-11-20_18h00.57.142,Info_measure_main_exp,2022.2.2,Win32,59.89099838,,,,,,,,,,,,,,,,,,masks/mask_002.jpg,,,,,,,,,,,,,,,,,,,,,,,,,,,,,,,,,,,,,,,,,,,,,,,,0,1,1,1,1,,,,,,,,,,,,,,,,,,,,,,,,,,,,,,,,,,,,,,,,,
924159,001,2022-11-20_18h00.57.142,Info_measure_main_exp,2022.2.2,Win32,59.89099838,,,,,,,,,,,,,,,,,,masks/mask_004.jpg,,,,,,,,,,,,,,,,,,,,,,,,,,,,,,,,,,,,,,,,,,,,,,,,0,2,2,3,1,,,,,,,,,,,,,,,,,,,,,,,,,,,,,,,,,,,,,,,,,
924159,001,2022-11-20_18h00.57.142,Info_measure_main_exp,2022.2.2,Win32,59.89099838,,,,,,,,,,,,,,,,,,masks/mask_005.jpg,,,,,,,,,,,,,,,,,,,,,,,,,,,,,,,,,,,,,,,,,,,,,,,,0,3,3,4,1,,,,,,,,,,,,,,,,,,,,,,,,,,,,,,,,,,,,,,,,,
924159,001,2022-11-20_18h00.57.142,Info_measure_main_exp,2022.2.2,Win32,59.89099838,,,,,,,,,,,,,,,,,,masks/mask_003.jpg,,,,,,,,,,,,,,,,,,,,,,,,,,,,,,,,,,,,,,,,,,,,,,,,0,4,4,2,1,,,,,,,,,,,,,,,,,,,,,,,,,,,,,,,,,,,,,,,,,
924159,001,2022-11-20_18h00.57.142,Info_measure_main_exp,2022.2.2,Win32,59.89099838,,,,,,,,,,,,,,,,,,,,,,,,,,,,,,7,0.6672,1,,,,,,,,,,,,1,131,5,5,2298,1,absent_patch/patch0002298.jpg,present_patch/cong_131_5_a.jpg,,,,,,,,,,,,,,,,,,,,0.02407406,0.085185192,1,0,0,response1disk,13,-0.001851824,-0.01203703,1,0,0,center_square,0,12,12,45,1,,,,,,,,,,,,,,,,,,,,,,,
924159,001,2022-11-20_18h00.57.142,Info_measure_main_exp,2022.2.2,Win32,59.89099838,,,,,,,,,,,,,,,,,,masks/mask_003.jpg,,,,,,,,,,,,,,,,,,,,,,,,,,,,,,,,,,,,,,,,,,,0,0,0,2,1,,,,,,,,,,,,,,,,,,,,,,,,,,,,,,,,,,,,,,,,,,,,,,
924159,001,2022-11-20_18h00.57.142,Info_measure_main_exp,2022.2.2,Win32,59.89099838,,,,,,,,,,,,,,,,,,masks/mask_002.jpg,,,,,,,,,,,,,,,,,,,,,,,,,,,,,,,,,,,,,,,,,,,0,1,1,1,1,,,,,,,,,,,,,,,,,,,,,,,,,,,,,,,,,,,,,,,,,,,,,,
924159,001,2022-11-20_18h00.57.142,Info_measure_main_exp,2022.2.2,Win32,59.89099838,,,,,,,,,,,,,,,,,,masks/mask_004.jpg,,,,,,,,,,,,,,,,,,,,,,,,,,,,,,,,,,,,,,,,,,,0,2,2,3,1,,,,,,,,,,,,,,,,,,,,,,,,,,,,,,,,,,,,,,,,,,,,,,
924159,001,2022-11-20_18h00.57.142,Info_measure_main_exp,2022.2.2,Win32,59.89099838,,,,,,,,,,,,,,,,,,masks/mask_005.jpg,,,,,,,,,,,,,,,,,,,,,,,,,,,,,,,,,,,,,,,,,,,0,3,3,4,1,,,,,,,,,,,,,,,,,,,,,,,,,,,,,,,,,,,,,,,,,,,,,,
924159,001,2022-11-20_18h00.57.142,Info_measure_main_exp,2022.2.2,Win32,59.89099838,,,,,,,,,,,,,,,,,,masks/mask_001.jpg,,,,,,,,,,,,,,,,,,,,,,,,,,,,,,,,,,,,,,,,,,,0,4,4,0,1,,,,,,,,,,,,,,,,,,,,,,,,,,,,,,,,,,,,,,,,,,,,,,
924159,001,2022-11-20_18h00.57.142,Info_measure_main_exp,2022.2.2,Win32,59.89099838,,,,,,,,,,,,,,,,,,masks/mask_005.jpg,,,,,,,,,,,,,,,,,,,,,,,,,,,,,,,,,,,,,,,,,,,,,,,,0,0,0,4,1,,,,,,,,,,,,,,,,,,,,,,,,,,,,,,,,,,,,,,,,,
924159,001,2022-11-20_18h00.57.142,Info_measure_main_exp,2022.2.2,Win32,59.89099838,,,,,,,,,,,,,,,,,,masks/mask_001.jpg,,,,,,,,,,,,,,,,,,,,,,,,,,,,,,,,,,,,,,,,,,,,,,,,0,1,1,0,1,,,,,,,,,,,,,,,,,,,,,,,,,,,,,,,,,,,,,,,,,
924159,001,2022-11-20_18h00.57.142,Info_measure_main_exp,2022.2.2,Win32,59.89099838,,,,,,,,,,,,,,,,,,masks/mask_004.jpg,,,,,,,,,,,,,,,,,,,,,,,,,,,,,,,,,,,,,,,,,,,,,,,,0,2,2,3,1,,,,,,,,,,,,,,,,,,,,,,,,,,,,,,,,,,,,,,,,,
924159,001,2022-11-20_18h00.57.142,Info_measure_main_exp,2022.2.2,Win32,59.89099838,,,,,,,,,,,,,,,,,,masks/mask_003.jpg,,,,,,,,,,,,,,,,,,,,,,,,,,,,,,,,,,,,,,,,,,,,,,,,0,3,3,2,1,,,,,,,,,,,,,,,,,,,,,,,,,,,,,,,,,,,,,,,,,
924159,001,2022-11-20_18h00.57.142,Info_measure_main_exp,2022.2.2,Win32,59.89099838,,,,,,,,,,,,,,,,,,masks/mask_002.jpg,,,,,,,,,,,,,,,,,,,,,,,,,,,,,,,,,,,,,,,,,,,,,,,,0,4,4,1,1,,,,,,,,,,,,,,,,,,,,,,,,,,,,,,,,,,,,,,,,,
924159,001,2022-11-20_18h00.57.142,Info_measure_main_exp,2022.2.2,Win32,59.89099838,,,,,,,,,,,,,,,,,,,,,,,,,,,,,,7,0.6674,1,,,,,,,,,,,,0,131,5,5,2238,2298,absent_patch/patch0002238.jpg,absent_patch/patch0002298.jpg,,,,,,,,,,,,,,,,,,,,0.014814801,0.079629616,1,0,0,response1disk,14,0.003703718,0.014814801,1,0,0,center_square,0,13,13,51,1,,,,,,,,,,,,,,,,,,,,,,,
924159,001,2022-11-20_18h00.57.142,Info_measure_main_exp,2022.2.2,Win32,59.89099838,,,,,,,,,,,,,,,,,,masks/mask_003.jpg,,,,,,,,,,,,,,,,,,,,,,,,,,,,,,,,,,,,,,,,,,,0,0,0,2,1,,,,,,,,,,,,,,,,,,,,,,,,,,,,,,,,,,,,,,,,,,,,,,
924159,001,2022-11-20_18h00.57.142,Info_measure_main_exp,2022.2.2,Win32,59.89099838,,,,,,,,,,,,,,,,,,masks/mask_001.jpg,,,,,,,,,,,,,,,,,,,,,,,,,,,,,,,,,,,,,,,,,,,0,1,1,0,1,,,,,,,,,,,,,,,,,,,,,,,,,,,,,,,,,,,,,,,,,,,,,,
924159,001,2022-11-20_18h00.57.142,Info_measure_main_exp,2022.2.2,Win32,59.89099838,,,,,,,,,,,,,,,,,,masks/mask_004.jpg,,,,,,,,,,,,,,,,,,,,,,,,,,,,,,,,,,,,,,,,,,,0,2,2,3,1,,,,,,,,,,,,,,,,,,,,,,,,,,,,,,,,,,,,,,,,,,,,,,
924159,001,2022-11-20_18h00.57.142,Info_measure_main_exp,2022.2.2,Win32,59.89099838,,,,,,,,,,,,,,,,,,masks/mask_005.jpg,,,,,,,,,,,,,,,,,,,,,,,,,,,,,,,,,,,,,,,,,,,0,3,3,4,1,,,,,,,,,,,,,,,,,,,,,,,,,,,,,,,,,,,,,,,,,,,,,,
924159,001,2022-11-20_18h00.57.142,Info_measure_main_exp,2022.2.2,Win32,59.89099838,,,,,,,,,,,,,,,,,,masks/mask_002.jpg,,,,,,,,,,,,,,,,,,,,,,,,,,,,,,,,,,,,,,,,,,,0,4,4,1,1,,,,,,,,,,,,,,,,,,,,,,,,,,,,,,,,,,,,,,,,,,,,,,
924159,001,2022-11-20_18h00.57.142,Info_measure_main_exp,2022.2.2,Win32,59.89099838,,,,,,,,,,,,,,,,,,masks/mask_002.jpg,,,,,,,,,,,,,,,,,,,,,,,,,,,,,,,,,,,,,,,,,,,,,,,,0,0,0,1,1,,,,,,,,,,,,,,,,,,,,,,,,,,,,,,,,,,,,,,,,,
924159,001,2022-11-20_18h00.57.142,Info_measure_main_exp,2022.2.2,Win32,59.89099838,,,,,,,,,,,,,,,,,,masks/mask_001.jpg,,,,,,,,,,,,,,,,,,,,,,,,,,,,,,,,,,,,,,,,,,,,,,,,0,1,1,0,1,,,,,,,,,,,,,,,,,,,,,,,,,,,,,,,,,,,,,,,,,
924159,001,2022-11-20_18h00.57.142,Info_measure_main_exp,2022.2.2,Win32,59.89099838,,,,,,,,,,,,,,,,,,masks/mask_005.jpg,,,,,,,,,,,,,,,,,,,,,,,,,,,,,,,,,,,,,,,,,,,,,,,,0,2,2,4,1,,,,,,,,,,,,,,,,,,,,,,,,,,,,,,,,,,,,,,,,,
924159,001,2022-11-20_18h00.57.142,Info_measure_main_exp,2022.2.2,Win32,59.89099838,,,,,,,,,,,,,,,,,,masks/mask_003.jpg,,,,,,,,,,,,,,,,,,,,,,,,,,,,,,,,,,,,,,,,,,,,,,,,0,3,3,2,1,,,,,,,,,,,,,,,,,,,,,,,,,,,,,,,,,,,,,,,,,
924159,001,2022-11-20_18h00.57.142,Info_measure_main_exp,2022.2.2,Win32,59.89099838,,,,,,,,,,,,,,,,,,masks/mask_004.jpg,,,,,,,,,,,,,,,,,,,,,,,,,,,,,,,,,,,,,,,,,,,,,,,,0,4,4,3,1,,,,,,,,,,,,,,,,,,,,,,,,,,,,,,,,,,,,,,,,,
924159,001,2022-11-20_18h00.57.142,Info_measure_main_exp,2022.2.2,Win32,59.89099838,,,,,,,,,,,,,,,,,,,,,,,,,,,,,,7,0.6514,1,,,,,,,,,,,,0,131,5,5,2190,1986,absent_patch/patch0002190.jpg,absent_patch/patch0001986.jpg,,,,,,,,,,,,,,,,,,,,0.018518519,0.089814822,1,0,0,response1disk,15,0.003703718,0.008333312,1,0,0,center_square,0,14,14,111,1,,,,,,,,,,,,,,,,,,,,,,,
924159,001,2022-11-20_18h00.57.142,Info_measure_main_exp,2022.2.2,Win32,59.89099838,,,,,,,,,,,,,,,,,,masks/mask_003.jpg,,,,,,,,,,,,,,,,,,,,,,,,,,,,,,,,,,,,,,,,,,,0,0,0,2,1,,,,,,,,,,,,,,,,,,,,,,,,,,,,,,,,,,,,,,,,,,,,,,
924159,001,2022-11-20_18h00.57.142,Info_measure_main_exp,2022.2.2,Win32,59.89099838,,,,,,,,,,,,,,,,,,masks/mask_005.jpg,,,,,,,,,,,,,,,,,,,,,,,,,,,,,,,,,,,,,,,,,,,0,1,1,4,1,,,,,,,,,,,,,,,,,,,,,,,,,,,,,,,,,,,,,,,,,,,,,,
924159,001,2022-11-20_18h00.57.142,Info_measure_main_exp,2022.2.2,Win32,59.89099838,,,,,,,,,,,,,,,,,,masks/mask_002.jpg,,,,,,,,,,,,,,,,,,,,,,,,,,,,,,,,,,,,,,,,,,,0,2,2,1,1,,,,,,,,,,,,,,,,,,,,,,,,,,,,,,,,,,,,,,,,,,,,,,
924159,001,2022-11-20_18h00.57.142,Info_measure_main_exp,2022.2.2,Win32,59.89099838,,,,,,,,,,,,,,,,,,masks/mask_001.jpg,,,,,,,,,,,,,,,,,,,,,,,,,,,,,,,,,,,,,,,,,,,0,3,3,0,1,,,,,,,,,,,,,,,,,,,,,,,,,,,,,,,,,,,,,,,,,,,,,,
924159,001,2022-11-20_18h00.57.142,Info_measure_main_exp,2022.2.2,Win32,59.89099838,,,,,,,,,,,,,,,,,,masks/mask_004.jpg,,,,,,,,,,,,,,,,,,,,,,,,,,,,,,,,,,,,,,,,,,,0,4,4,3,1,,,,,,,,,,,,,,,,,,,,,,,,,,,,,,,,,,,,,,,,,,,,,,
924159,001,2022-11-20_18h00.57.142,Info_measure_main_exp,2022.2.2,Win32,59.89099838,,,,,,,,,,,,,,,,,,masks/mask_002.jpg,,,,,,,,,,,,,,,,,,,,,,,,,,,,,,,,,,,,,,,,,,,,,,,,0,0,0,1,1,,,,,,,,,,,,,,,,,,,,,,,,,,,,,,,,,,,,,,,,,
924159,001,2022-11-20_18h00.57.142,Info_measure_main_exp,2022.2.2,Win32,59.89099838,,,,,,,,,,,,,,,,,,masks/mask_001.jpg,,,,,,,,,,,,,,,,,,,,,,,,,,,,,,,,,,,,,,,,,,,,,,,,0,1,1,0,1,,,,,,,,,,,,,,,,,,,,,,,,,,,,,,,,,,,,,,,,,
924159,001,2022-11-20_18h00.57.142,Info_measure_main_exp,2022.2.2,Win32,59.89099838,,,,,,,,,,,,,,,,,,masks/mask_005.jpg,,,,,,,,,,,,,,,,,,,,,,,,,,,,,,,,,,,,,,,,,,,,,,,,0,2,2,4,1,,,,,,,,,,,,,,,,,,,,,,,,,,,,,,,,,,,,,,,,,
924159,001,2022-11-20_18h00.57.142,Info_measure_main_exp,2022.2.2,Win32,59.89099838,,,,,,,,,,,,,,,,,,masks/mask_003.jpg,,,,,,,,,,,,,,,,,,,,,,,,,,,,,,,,,,,,,,,,,,,,,,,,0,3,3,2,1,,,,,,,,,,,,,,,,,,,,,,,,,,,,,,,,,,,,,,,,,
924159,001,2022-11-20_18h00.57.142,Info_measure_main_exp,2022.2.2,Win32,59.89099838,,,,,,,,,,,,,,,,,,masks/mask_004.jpg,,,,,,,,,,,,,,,,,,,,,,,,,,,,,,,,,,,,,,,,,,,,,,,,0,4,4,3,1,,,,,,,,,,,,,,,,,,,,,,,,,,,,,,,,,,,,,,,,,
924159,001,2022-11-20_18h00.57.142,Info_measure_main_exp,2022.2.2,Win32,59.89099838,,,,,,,,,,,,,,,,,,,,,,,,,,,,,,0,0.5362,1,,,,,,,,,,,,0,131,5,5,2178,2178,absent_patch/patch0002178.jpg,absent_patch/patch0002178.jpg,,,,,,,,,,,,,,,,,,,,-0.039814772,0.131481489,1,0,0,response7disk,16,0.009259259,0.002777771,1,0,0,center_square,0,15,15,98,1,,,,,,,,,,,,,,,,,,,,,,,
924159,001,2022-11-20_18h00.57.142,Info_measure_main_exp,2022.2.2,Win32,59.89099838,,,,,,,,,,,,,,,,,,masks/mask_002.jpg,,,,,,,,,,,,,,,,,,,,,,,,,,,,,,,,,,,,,,,,,,,0,0,0,1,1,,,,,,,,,,,,,,,,,,,,,,,,,,,,,,,,,,,,,,,,,,,,,,
924159,001,2022-11-20_18h00.57.142,Info_measure_main_exp,2022.2.2,Win32,59.89099838,,,,,,,,,,,,,,,,,,masks/mask_005.jpg,,,,,,,,,,,,,,,,,,,,,,,,,,,,,,,,,,,,,,,,,,,0,1,1,4,1,,,,,,,,,,,,,,,,,,,,,,,,,,,,,,,,,,,,,,,,,,,,,,
924159,001,2022-11-20_18h00.57.142,Info_measure_main_exp,2022.2.2,Win32,59.89099838,,,,,,,,,,,,,,,,,,masks/mask_004.jpg,,,,,,,,,,,,,,,,,,,,,,,,,,,,,,,,,,,,,,,,,,,0,2,2,3,1,,,,,,,,,,,,,,,,,,,,,,,,,,,,,,,,,,,,,,,,,,,,,,
924159,001,2022-11-20_18h00.57.142,Info_measure_main_exp,2022.2.2,Win32,59.89099838,,,,,,,,,,,,,,,,,,masks/mask_003.jpg,,,,,,,,,,,,,,,,,,,,,,,,,,,,,,,,,,,,,,,,,,,0,3,3,2,1,,,,,,,,,,,,,,,,,,,,,,,,,,,,,,,,,,,,,,,,,,,,,,
924159,001,2022-11-20_18h00.57.142,Info_measure_main_exp,2022.2.2,Win32,59.89099838,,,,,,,,,,,,,,,,,,masks/mask_001.jpg,,,,,,,,,,,,,,,,,,,,,,,,,,,,,,,,,,,,,,,,,,,0,4,4,0,1,,,,,,,,,,,,,,,,,,,,,,,,,,,,,,,,,,,,,,,,,,,,,,
924159,001,2022-11-20_18h00.57.142,Info_measure_main_exp,2022.2.2,Win32,59.89099838,,,,,,,,,,,,,,,,,,masks/mask_005.jpg,,,,,,,,,,,,,,,,,,,,,,,,,,,,,,,,,,,,,,,,,,,,,,,,0,0,0,4,1,,,,,,,,,,,,,,,,,,,,,,,,,,,,,,,,,,,,,,,,,
924159,001,2022-11-20_18h00.57.142,Info_measure_main_exp,2022.2.2,Win32,59.89099838,,,,,,,,,,,,,,,,,,masks/mask_002.jpg,,,,,,,,,,,,,,,,,,,,,,,,,,,,,,,,,,,,,,,,,,,,,,,,0,1,1,1,1,,,,,,,,,,,,,,,,,,,,,,,,,,,,,,,,,,,,,,,,,
924159,001,2022-11-20_18h00.57.142,Info_measure_main_exp,2022.2.2,Win32,59.89099838,,,,,,,,,,,,,,,,,,masks/mask_004.jpg,,,,,,,,,,,,,,,,,,,,,,,,,,,,,,,,,,,,,,,,,,,,,,,,0,2,2,3,1,,,,,,,,,,,,,,,,,,,,,,,,,,,,,,,,,,,,,,,,,
924159,001,2022-11-20_18h00.57.142,Info_measure_main_exp,2022.2.2,Win32,59.89099838,,,,,,,,,,,,,,,,,,masks/mask_003.jpg,,,,,,,,,,,,,,,,,,,,,,,,,,,,,,,,,,,,,,,,,,,,,,,,0,3,3,2,1,,,,,,,,,,,,,,,,,,,,,,,,,,,,,,,,,,,,,,,,,
924159,001,2022-11-20_18h00.57.142,Info_measure_main_exp,2022.2.2,Win32,59.89099838,,,,,,,,,,,,,,,,,,masks/mask_001.jpg,,,,,,,,,,,,,,,,,,,,,,,,,,,,,,,,,,,,,,,,,,,,,,,,0,4,4,0,1,,,,,,,,,,,,,,,,,,,,,,,,,,,,,,,,,,,,,,,,,
924159,001,2022-11-20_18h00.57.142,Info_measure_main_exp,2022.2.2,Win32,59.89099838,,,,,,,,,,,,,,,,,,,,,,,,,,,,,,7,0.6194,1,,,,,,,,,,,,0,131,5,5,2178,2238,absent_patch/patch0002178.jpg,absent_patch/patch0002238.jpg,,,,,,,,,,,,,,,,,,,,0.027777778,0.127777771,1,0,0,response1disk,17,0.003703718,0.003703683,1,0,0,center_square,0,16,16,57,1,,,,,,,,,,,,,,,,,,,,,,,
924159,001,2022-11-20_18h00.57.142,Info_measure_main_exp,2022.2.2,Win32,59.89099838,,,,,,,,,,,,,,,,,,masks/mask_005.jpg,,,,,,,,,,,,,,,,,,,,,,,,,,,,,,,,,,,,,,,,,,,0,0,0,4,1,,,,,,,,,,,,,,,,,,,,,,,,,,,,,,,,,,,,,,,,,,,,,,
924159,001,2022-11-20_18h00.57.142,Info_measure_main_exp,2022.2.2,Win32,59.89099838,,,,,,,,,,,,,,,,,,masks/mask_003.jpg,,,,,,,,,,,,,,,,,,,,,,,,,,,,,,,,,,,,,,,,,,,0,1,1,2,1,,,,,,,,,,,,,,,,,,,,,,,,,,,,,,,,,,,,,,,,,,,,,,
924159,001,2022-11-20_18h00.57.142,Info_measure_main_exp,2022.2.2,Win32,59.89099838,,,,,,,,,,,,,,,,,,masks/mask_004.jpg,,,,,,,,,,,,,,,,,,,,,,,,,,,,,,,,,,,,,,,,,,,0,2,2,3,1,,,,,,,,,,,,,,,,,,,,,,,,,,,,,,,,,,,,,,,,,,,,,,
924159,001,2022-11-20_18h00.57.142,Info_measure_main_exp,2022.2.2,Win32,59.89099838,,,,,,,,,,,,,,,,,,masks/mask_001.jpg,,,,,,,,,,,,,,,,,,,,,,,,,,,,,,,,,,,,,,,,,,,0,3,3,0,1,,,,,,,,,,,,,,,,,,,,,,,,,,,,,,,,,,,,,,,,,,,,,,
924159,001,2022-11-20_18h00.57.142,Info_measure_main_exp,2022.2.2,Win32,59.89099838,,,,,,,,,,,,,,,,,,masks/mask_002.jpg,,,,,,,,,,,,,,,,,,,,,,,,,,,,,,,,,,,,,,,,,,,0,4,4,1,1,,,,,,,,,,,,,,,,,,,,,,,,,,,,,,,,,,,,,,,,,,,,,,
924159,001,2022-11-20_18h00.57.142,Info_measure_main_exp,2022.2.2,Win32,59.89099838,,,,,,,,,,,,,,,,,,masks/mask_005.jpg,,,,,,,,,,,,,,,,,,,,,,,,,,,,,,,,,,,,,,,,,,,,,,,,0,0,0,4,1,,,,,,,,,,,,,,,,,,,,,,,,,,,,,,,,,,,,,,,,,
924159,001,2022-11-20_18h00.57.142,Info_measure_main_exp,2022.2.2,Win32,59.89099838,,,,,,,,,,,,,,,,,,masks/mask_002.jpg,,,,,,,,,,,,,,,,,,,,,,,,,,,,,,,,,,,,,,,,,,,,,,,,0,1,1,1,1,,,,,,,,,,,,,,,,,,,,,,,,,,,,,,,,,,,,,,,,,
924159,001,2022-11-20_18h00.57.142,Info_measure_main_exp,2022.2.2,Win32,59.89099838,,,,,,,,,,,,,,,,,,masks/mask_001.jpg,,,,,,,,,,,,,,,,,,,,,,,,,,,,,,,,,,,,,,,,,,,,,,,,0,2,2,0,1,,,,,,,,,,,,,,,,,,,,,,,,,,,,,,,,,,,,,,,,,
924159,001,2022-11-20_18h00.57.142,Info_measure_main_exp,2022.2.2,Win32,59.89099838,,,,,,,,,,,,,,,,,,masks/mask_003.jpg,,,,,,,,,,,,,,,,,,,,,,,,,,,,,,,,,,,,,,,,,,,,,,,,0,3,3,2,1,,,,,,,,,,,,,,,,,,,,,,,,,,,,,,,,,,,,,,,,,
924159,001,2022-11-20_18h00.57.142,Info_measure_main_exp,2022.2.2,Win32,59.89099838,,,,,,,,,,,,,,,,,,masks/mask_004.jpg,,,,,,,,,,,,,,,,,,,,,,,,,,,,,,,,,,,,,,,,,,,,,,,,0,4,4,3,1,,,,,,,,,,,,,,,,,,,,,,,,,,,,,,,,,,,,,,,,,
924159,001,2022-11-20_18h00.57.142,Info_measure_main_exp,2022.2.2,Win32,59.89099838,,,,,,,,,,,,,,,,,,,,,,,,,,,,,,7,0.7994,1,,,,,,,,,,,,0,131,5,5,2190,2082,absent_patch/patch0002190.jpg,absent_patch/patch0002082.jpg,,,,,,,,,,,,,,,,,,,,0.037037037,0.088888875,1,0,0,response1disk,18,0.000925912,-0.011111118,1,0,0,center_square,0,17,17,112,1,,,,,,,,,,,,,,,,,,,,,,,
924159,001,2022-11-20_18h00.57.142,Info_measure_main_exp,2022.2.2,Win32,59.89099838,,,,,,,,,,,,,,,,,,masks/mask_005.jpg,,,,,,,,,,,,,,,,,,,,,,,,,,,,,,,,,,,,,,,,,,,0,0,0,4,1,,,,,,,,,,,,,,,,,,,,,,,,,,,,,,,,,,,,,,,,,,,,,,
924159,001,2022-11-20_18h00.57.142,Info_measure_main_exp,2022.2.2,Win32,59.89099838,,,,,,,,,,,,,,,,,,masks/mask_003.jpg,,,,,,,,,,,,,,,,,,,,,,,,,,,,,,,,,,,,,,,,,,,0,1,1,2,1,,,,,,,,,,,,,,,,,,,,,,,,,,,,,,,,,,,,,,,,,,,,,,
924159,001,2022-11-20_18h00.57.142,Info_measure_main_exp,2022.2.2,Win32,59.89099838,,,,,,,,,,,,,,,,,,masks/mask_002.jpg,,,,,,,,,,,,,,,,,,,,,,,,,,,,,,,,,,,,,,,,,,,0,2,2,1,1,,,,,,,,,,,,,,,,,,,,,,,,,,,,,,,,,,,,,,,,,,,,,,
924159,001,2022-11-20_18h00.57.142,Info_measure_main_exp,2022.2.2,Win32,59.89099838,,,,,,,,,,,,,,,,,,masks/mask_004.jpg,,,,,,,,,,,,,,,,,,,,,,,,,,,,,,,,,,,,,,,,,,,0,3,3,3,1,,,,,,,,,,,,,,,,,,,,,,,,,,,,,,,,,,,,,,,,,,,,,,
924159,001,2022-11-20_18h00.57.142,Info_measure_main_exp,2022.2.2,Win32,59.89099838,,,,,,,,,,,,,,,,,,masks/mask_001.jpg,,,,,,,,,,,,,,,,,,,,,,,,,,,,,,,,,,,,,,,,,,,0,4,4,0,1,,,,,,,,,,,,,,,,,,,,,,,,,,,,,,,,,,,,,,,,,,,,,,
924159,001,2022-11-20_18h00.57.142,Info_measure_main_exp,2022.2.2,Win32,59.89099838,,,,,,,,,,,,,,,,,,masks/mask_004.jpg,,,,,,,,,,,,,,,,,,,,,,,,,,,,,,,,,,,,,,,,,,,,,,,,0,0,0,3,1,,,,,,,,,,,,,,,,,,,,,,,,,,,,,,,,,,,,,,,,,
924159,001,2022-11-20_18h00.57.142,Info_measure_main_exp,2022.2.2,Win32,59.89099838,,,,,,,,,,,,,,,,,,masks/mask_002.jpg,,,,,,,,,,,,,,,,,,,,,,,,,,,,,,,,,,,,,,,,,,,,,,,,0,1,1,1,1,,,,,,,,,,,,,,,,,,,,,,,,,,,,,,,,,,,,,,,,,
924159,001,2022-11-20_18h00.57.142,Info_measure_main_exp,2022.2.2,Win32,59.89099838,,,,,,,,,,,,,,,,,,masks/mask_005.jpg,,,,,,,,,,,,,,,,,,,,,,,,,,,,,,,,,,,,,,,,,,,,,,,,0,2,2,4,1,,,,,,,,,,,,,,,,,,,,,,,,,,,,,,,,,,,,,,,,,
924159,001,2022-11-20_18h00.57.142,Info_measure_main_exp,2022.2.2,Win32,59.89099838,,,,,,,,,,,,,,,,,,masks/mask_003.jpg,,,,,,,,,,,,,,,,,,,,,,,,,,,,,,,,,,,,,,,,,,,,,,,,0,3,3,2,1,,,,,,,,,,,,,,,,,,,,,,,,,,,,,,,,,,,,,,,,,
924159,001,2022-11-20_18h00.57.142,Info_measure_main_exp,2022.2.2,Win32,59.89099838,,,,,,,,,,,,,,,,,,masks/mask_001.jpg,,,,,,,,,,,,,,,,,,,,,,,,,,,,,,,,,,,,,,,,,,,,,,,,0,4,4,0,1,,,,,,,,,,,,,,,,,,,,,,,,,,,,,,,,,,,,,,,,,
924159,001,2022-11-20_18h00.57.142,Info_measure_main_exp,2022.2.2,Win32,59.89099838,,,,,,,,,,,,,,,,,,,,,,,,,,,,,,7,1.1335,1,,,,,,,,,,,,0,131,5,5,2142,2082,absent_patch/patch0002142.jpg,absent_patch/patch0002082.jpg,,,,,,,,,,,,,,,,,,,,0.059259273,0.170370349,1,0,0,response1disk,19,0.005555541,-0.011111118,1,0,0,center_square,0,18,18,88,1,,,,,,,,,,,,,,,,,,,,,,,
924159,001,2022-11-20_18h00.57.142,Info_measure_main_exp,2022.2.2,Win32,59.89099838,,,,,,,,,,,,,,,,,,masks/mask_005.jpg,,,,,,,,,,,,,,,,,,,,,,,,,,,,,,,,,,,,,,,,,,,0,0,0,4,1,,,,,,,,,,,,,,,,,,,,,,,,,,,,,,,,,,,,,,,,,,,,,,
924159,001,2022-11-20_18h00.57.142,Info_measure_main_exp,2022.2.2,Win32,59.89099838,,,,,,,,,,,,,,,,,,masks/mask_001.jpg,,,,,,,,,,,,,,,,,,,,,,,,,,,,,,,,,,,,,,,,,,,0,1,1,0,1,,,,,,,,,,,,,,,,,,,,,,,,,,,,,,,,,,,,,,,,,,,,,,
924159,001,2022-11-20_18h00.57.142,Info_measure_main_exp,2022.2.2,Win32,59.89099838,,,,,,,,,,,,,,,,,,masks/mask_002.jpg,,,,,,,,,,,,,,,,,,,,,,,,,,,,,,,,,,,,,,,,,,,0,2,2,1,1,,,,,,,,,,,,,,,,,,,,,,,,,,,,,,,,,,,,,,,,,,,,,,
924159,001,2022-11-20_18h00.57.142,Info_measure_main_exp,2022.2.2,Win32,59.89099838,,,,,,,,,,,,,,,,,,masks/mask_004.jpg,,,,,,,,,,,,,,,,,,,,,,,,,,,,,,,,,,,,,,,,,,,0,3,3,3,1,,,,,,,,,,,,,,,,,,,,,,,,,,,,,,,,,,,,,,,,,,,,,,
924159,001,2022-11-20_18h00.57.142,Info_measure_main_exp,2022.2.2,Win32,59.89099838,,,,,,,,,,,,,,,,,,masks/mask_003.jpg,,,,,,,,,,,,,,,,,,,,,,,,,,,,,,,,,,,,,,,,,,,0,4,4,2,1,,,,,,,,,,,,,,,,,,,,,,,,,,,,,,,,,,,,,,,,,,,,,,
924159,001,2022-11-20_18h00.57.142,Info_measure_main_exp,2022.2.2,Win32,59.89099838,,,,,,,,,,,,,,,,,,masks/mask_001.jpg,,,,,,,,,,,,,,,,,,,,,,,,,,,,,,,,,,,,,,,,,,,,,,,,0,0,0,0,1,,,,,,,,,,,,,,,,,,,,,,,,,,,,,,,,,,,,,,,,,
924159,001,2022-11-20_18h00.57.142,Info_measure_main_exp,2022.2.2,Win32,59.89099838,,,,,,,,,,,,,,,,,,masks/mask_005.jpg,,,,,,,,,,,,,,,,,,,,,,,,,,,,,,,,,,,,,,,,,,,,,,,,0,1,1,4,1,,,,,,,,,,,,,,,,,,,,,,,,,,,,,,,,,,,,,,,,,
924159,001,2022-11-20_18h00.57.142,Info_measure_main_exp,2022.2.2,Win32,59.89099838,,,,,,,,,,,,,,,,,,masks/mask_004.jpg,,,,,,,,,,,,,,,,,,,,,,,,,,,,,,,,,,,,,,,,,,,,,,,,0,2,2,3,1,,,,,,,,,,,,,,,,,,,,,,,,,,,,,,,,,,,,,,,,,
924159,001,2022-11-20_18h00.57.142,Info_measure_main_exp,2022.2.2,Win32,59.89099838,,,,,,,,,,,,,,,,,,masks/mask_003.jpg,,,,,,,,,,,,,,,,,,,,,,,,,,,,,,,,,,,,,,,,,,,,,,,,0,3,3,2,1,,,,,,,,,,,,,,,,,,,,,,,,,,,,,,,,,,,,,,,,,
924159,001,2022-11-20_18h00.57.142,Info_measure_main_exp,2022.2.2,Win32,59.89099838,,,,,,,,,,,,,,,,,,masks/mask_002.jpg,,,,,,,,,,,,,,,,,,,,,,,,,,,,,,,,,,,,,,,,,,,,,,,,0,4,4,1,1,,,,,,,,,,,,,,,,,,,,,,,,,,,,,,,,,,,,,,,,,
924159,001,2022-11-20_18h00.57.142,Info_measure_main_exp,2022.2.2,Win32,59.89099838,,,,,,,,,,,,,,,,,,,,,,,,,,,,,,7,0.6831,1,,,,,,,,,,,,0,131,5,5,2274,2250,absent_patch/patch0002274.jpg,absent_patch/patch0002250.jpg,,,,,,,,,,,,,,,,,,,,0.008333347,0.127777771,1,0,0,response1disk,20,-0.002777735,-0.011111118,1,0,0,center_square,0,19,19,28,1,,,,,,,,,,,,,,,,,,,,,,,
924159,001,2022-11-20_18h00.57.142,Info_measure_main_exp,2022.2.2,Win32,59.89099838,,,,,,,,,,,,,,,,,,masks/mask_003.jpg,,,,,,,,,,,,,,,,,,,,,,,,,,,,,,,,,,,,,,,,,,,0,0,0,2,1,,,,,,,,,,,,,,,,,,,,,,,,,,,,,,,,,,,,,,,,,,,,,,
924159,001,2022-11-20_18h00.57.142,Info_measure_main_exp,2022.2.2,Win32,59.89099838,,,,,,,,,,,,,,,,,,masks/mask_002.jpg,,,,,,,,,,,,,,,,,,,,,,,,,,,,,,,,,,,,,,,,,,,0,1,1,1,1,,,,,,,,,,,,,,,,,,,,,,,,,,,,,,,,,,,,,,,,,,,,,,
924159,001,2022-11-20_18h00.57.142,Info_measure_main_exp,2022.2.2,Win32,59.89099838,,,,,,,,,,,,,,,,,,masks/mask_001.jpg,,,,,,,,,,,,,,,,,,,,,,,,,,,,,,,,,,,,,,,,,,,0,2,2,0,1,,,,,,,,,,,,,,,,,,,,,,,,,,,,,,,,,,,,,,,,,,,,,,
924159,001,2022-11-20_18h00.57.142,Info_measure_main_exp,2022.2.2,Win32,59.89099838,,,,,,,,,,,,,,,,,,masks/mask_005.jpg,,,,,,,,,,,,,,,,,,,,,,,,,,,,,,,,,,,,,,,,,,,0,3,3,4,1,,,,,,,,,,,,,,,,,,,,,,,,,,,,,,,,,,,,,,,,,,,,,,
924159,001,2022-11-20_18h00.57.142,Info_measure_main_exp,2022.2.2,Win32,59.89099838,,,,,,,,,,,,,,,,,,masks/mask_004.jpg,,,,,,,,,,,,,,,,,,,,,,,,,,,,,,,,,,,,,,,,,,,0,4,4,3,1,,,,,,,,,,,,,,,,,,,,,,,,,,,,,,,,,,,,,,,,,,,,,,
924159,001,2022-11-20_18h00.57.142,Info_measure_main_exp,2022.2.2,Win32,59.89099838,,,,,,,,,,,,,,,,,,masks/mask_004.jpg,,,,,,,,,,,,,,,,,,,,,,,,,,,,,,,,,,,,,,,,,,,,,,,,0,0,0,3,1,,,,,,,,,,,,,,,,,,,,,,,,,,,,,,,,,,,,,,,,,
924159,001,2022-11-20_18h00.57.142,Info_measure_main_exp,2022.2.2,Win32,59.89099838,,,,,,,,,,,,,,,,,,masks/mask_001.jpg,,,,,,,,,,,,,,,,,,,,,,,,,,,,,,,,,,,,,,,,,,,,,,,,0,1,1,0,1,,,,,,,,,,,,,,,,,,,,,,,,,,,,,,,,,,,,,,,,,
924159,001,2022-11-20_18h00.57.142,Info_measure_main_exp,2022.2.2,Win32,59.89099838,,,,,,,,,,,,,,,,,,masks/mask_005.jpg,,,,,,,,,,,,,,,,,,,,,,,,,,,,,,,,,,,,,,,,,,,,,,,,0,2,2,4,1,,,,,,,,,,,,,,,,,,,,,,,,,,,,,,,,,,,,,,,,,
924159,001,2022-11-20_18h00.57.142,Info_measure_main_exp,2022.2.2,Win32,59.89099838,,,,,,,,,,,,,,,,,,masks/mask_002.jpg,,,,,,,,,,,,,,,,,,,,,,,,,,,,,,,,,,,,,,,,,,,,,,,,0,3,3,1,1,,,,,,,,,,,,,,,,,,,,,,,,,,,,,,,,,,,,,,,,,
924159,001,2022-11-20_18h00.57.142,Info_measure_main_exp,2022.2.2,Win32,59.89099838,,,,,,,,,,,,,,,,,,masks/mask_003.jpg,,,,,,,,,,,,,,,,,,,,,,,,,,,,,,,,,,,,,,,,,,,,,,,,0,4,4,2,1,,,,,,,,,,,,,,,,,,,,,,,,,,,,,,,,,,,,,,,,,
924159,001,2022-11-20_18h00.57.142,Info_measure_main_exp,2022.2.2,Win32,59.89099838,,,,,,,,,,,,,,,,,,,,,,,,,,,,,,7,0.4343,1,,,,,,,,,,,,0,131,5,5,2082,2250,absent_patch/patch0002082.jpg,absent_patch/patch0002250.jpg,,,,,,,,,,,,,,,,,,,,0.062962991,0.098148134,1,0,0,response1disk,21,0.005555541,0.005555541,1,0,0,center_square,0,20,20,3,1,,,,,,,,,,,,,,,,,,,,,,,
924159,001,2022-11-20_18h00.57.142,Info_measure_main_exp,2022.2.2,Win32,59.89099838,,,,,,,,,,,,,,,,,,masks/mask_001.jpg,,,,,,,,,,,,,,,,,,,,,,,,,,,,,,,,,,,,,,,,,,,0,0,0,0,1,,,,,,,,,,,,,,,,,,,,,,,,,,,,,,,,,,,,,,,,,,,,,,
924159,001,2022-11-20_18h00.57.142,Info_measure_main_exp,2022.2.2,Win32,59.89099838,,,,,,,,,,,,,,,,,,masks/mask_002.jpg,,,,,,,,,,,,,,,,,,,,,,,,,,,,,,,,,,,,,,,,,,,0,1,1,1,1,,,,,,,,,,,,,,,,,,,,,,,,,,,,,,,,,,,,,,,,,,,,,,
924159,001,2022-11-20_18h00.57.142,Info_measure_main_exp,2022.2.2,Win32,59.89099838,,,,,,,,,,,,,,,,,,masks/mask_003.jpg,,,,,,,,,,,,,,,,,,,,,,,,,,,,,,,,,,,,,,,,,,,0,2,2,2,1,,,,,,,,,,,,,,,,,,,,,,,,,,,,,,,,,,,,,,,,,,,,,,
924159,001,2022-11-20_18h00.57.142,Info_measure_main_exp,2022.2.2,Win32,59.89099838,,,,,,,,,,,,,,,,,,masks/mask_004.jpg,,,,,,,,,,,,,,,,,,,,,,,,,,,,,,,,,,,,,,,,,,,0,3,3,3,1,,,,,,,,,,,,,,,,,,,,,,,,,,,,,,,,,,,,,,,,,,,,,,
924159,001,2022-11-20_18h00.57.142,Info_measure_main_exp,2022.2.2,Win32,59.89099838,,,,,,,,,,,,,,,,,,masks/mask_005.jpg,,,,,,,,,,,,,,,,,,,,,,,,,,,,,,,,,,,,,,,,,,,0,4,4,4,1,,,,,,,,,,,,,,,,,,,,,,,,,,,,,,,,,,,,,,,,,,,,,,
924159,001,2022-11-20_18h00.57.142,Info_measure_main_exp,2022.2.2,Win32,59.89099838,,,,,,,,,,,,,,,,,,masks/mask_001.jpg,,,,,,,,,,,,,,,,,,,,,,,,,,,,,,,,,,,,,,,,,,,,,,,,0,0,0,0,1,,,,,,,,,,,,,,,,,,,,,,,,,,,,,,,,,,,,,,,,,
924159,001,2022-11-20_18h00.57.142,Info_measure_main_exp,2022.2.2,Win32,59.89099838,,,,,,,,,,,,,,,,,,masks/mask_003.jpg,,,,,,,,,,,,,,,,,,,,,,,,,,,,,,,,,,,,,,,,,,,,,,,,0,1,1,2,1,,,,,,,,,,,,,,,,,,,,,,,,,,,,,,,,,,,,,,,,,
924159,001,2022-11-20_18h00.57.142,Info_measure_main_exp,2022.2.2,Win32,59.89099838,,,,,,,,,,,,,,,,,,masks/mask_002.jpg,,,,,,,,,,,,,,,,,,,,,,,,,,,,,,,,,,,,,,,,,,,,,,,,0,2,2,1,1,,,,,,,,,,,,,,,,,,,,,,,,,,,,,,,,,,,,,,,,,
924159,001,2022-11-20_18h00.57.142,Info_measure_main_exp,2022.2.2,Win32,59.89099838,,,,,,,,,,,,,,,,,,masks/mask_005.jpg,,,,,,,,,,,,,,,,,,,,,,,,,,,,,,,,,,,,,,,,,,,,,,,,0,3,3,4,1,,,,,,,,,,,,,,,,,,,,,,,,,,,,,,,,,,,,,,,,,
924159,001,2022-11-20_18h00.57.142,Info_measure_main_exp,2022.2.2,Win32,59.89099838,,,,,,,,,,,,,,,,,,masks/mask_004.jpg,,,,,,,,,,,,,,,,,,,,,,,,,,,,,,,,,,,,,,,,,,,,,,,,0,4,4,3,1,,,,,,,,,,,,,,,,,,,,,,,,,,,,,,,,,,,,,,,,,
924159,001,2022-11-20_18h00.57.142,Info_measure_main_exp,2022.2.2,Win32,59.89099838,,,,,,,,,,,,,,,,,,,,,,,,,,,,,,7,0.4494,1,,,,,,,,,,,,0,131,5,5,2250,2142,absent_patch/patch0002250.jpg,absent_patch/patch0002142.jpg,,,,,,,,,,,,,,,,,,,,0.033333319,0.125,1,0,0,response1disk,22,-0.001851824,-0.003703718,1,0,0,center_square,0,21,21,71,1,,,,,,,,,,,,,,,,,,,,,,,
924159,001,2022-11-20_18h00.57.142,Info_measure_main_exp,2022.2.2,Win32,59.89099838,,,,,,,,,,,,,,,,,,masks/mask_001.jpg,,,,,,,,,,,,,,,,,,,,,,,,,,,,,,,,,,,,,,,,,,,0,0,0,0,1,,,,,,,,,,,,,,,,,,,,,,,,,,,,,,,,,,,,,,,,,,,,,,
924159,001,2022-11-20_18h00.57.142,Info_measure_main_exp,2022.2.2,Win32,59.89099838,,,,,,,,,,,,,,,,,,masks/mask_003.jpg,,,,,,,,,,,,,,,,,,,,,,,,,,,,,,,,,,,,,,,,,,,0,1,1,2,1,,,,,,,,,,,,,,,,,,,,,,,,,,,,,,,,,,,,,,,,,,,,,,
924159,001,2022-11-20_18h00.57.142,Info_measure_main_exp,2022.2.2,Win32,59.89099838,,,,,,,,,,,,,,,,,,masks/mask_005.jpg,,,,,,,,,,,,,,,,,,,,,,,,,,,,,,,,,,,,,,,,,,,0,2,2,4,1,,,,,,,,,,,,,,,,,,,,,,,,,,,,,,,,,,,,,,,,,,,,,,
924159,001,2022-11-20_18h00.57.142,Info_measure_main_exp,2022.2.2,Win32,59.89099838,,,,,,,,,,,,,,,,,,masks/mask_002.jpg,,,,,,,,,,,,,,,,,,,,,,,,,,,,,,,,,,,,,,,,,,,0,3,3,1,1,,,,,,,,,,,,,,,,,,,,,,,,,,,,,,,,,,,,,,,,,,,,,,
924159,001,2022-11-20_18h00.57.142,Info_measure_main_exp,2022.2.2,Win32,59.89099838,,,,,,,,,,,,,,,,,,masks/mask_004.jpg,,,,,,,,,,,,,,,,,,,,,,,,,,,,,,,,,,,,,,,,,,,0,4,4,3,1,,,,,,,,,,,,,,,,,,,,,,,,,,,,,,,,,,,,,,,,,,,,,,
924159,001,2022-11-20_18h00.57.142,Info_measure_main_exp,2022.2.2,Win32,59.89099838,,,,,,,,,,,,,,,,,,masks/mask_004.jpg,,,,,,,,,,,,,,,,,,,,,,,,,,,,,,,,,,,,,,,,,,,,,,,,0,0,0,3,1,,,,,,,,,,,,,,,,,,,,,,,,,,,,,,,,,,,,,,,,,
924159,001,2022-11-20_18h00.57.142,Info_measure_main_exp,2022.2.2,Win32,59.89099838,,,,,,,,,,,,,,,,,,masks/mask_002.jpg,,,,,,,,,,,,,,,,,,,,,,,,,,,,,,,,,,,,,,,,,,,,,,,,0,1,1,1,1,,,,,,,,,,,,,,,,,,,,,,,,,,,,,,,,,,,,,,,,,
924159,001,2022-11-20_18h00.57.142,Info_measure_main_exp,2022.2.2,Win32,59.89099838,,,,,,,,,,,,,,,,,,masks/mask_005.jpg,,,,,,,,,,,,,,,,,,,,,,,,,,,,,,,,,,,,,,,,,,,,,,,,0,2,2,4,1,,,,,,,,,,,,,,,,,,,,,,,,,,,,,,,,,,,,,,,,,
924159,001,2022-11-20_18h00.57.142,Info_measure_main_exp,2022.2.2,Win32,59.89099838,,,,,,,,,,,,,,,,,,masks/mask_001.jpg,,,,,,,,,,,,,,,,,,,,,,,,,,,,,,,,,,,,,,,,,,,,,,,,0,3,3,0,1,,,,,,,,,,,,,,,,,,,,,,,,,,,,,,,,,,,,,,,,,
924159,001,2022-11-20_18h00.57.142,Info_measure_main_exp,2022.2.2,Win32,59.89099838,,,,,,,,,,,,,,,,,,masks/mask_003.jpg,,,,,,,,,,,,,,,,,,,,,,,,,,,,,,,,,,,,,,,,,,,,,,,,0,4,4,2,1,,,,,,,,,,,,,,,,,,,,,,,,,,,,,,,,,,,,,,,,,
924159,001,2022-11-20_18h00.57.142,Info_measure_main_exp,2022.2.2,Win32,59.89099838,,,,,,,,,,,,,,,,,,,,,,,,,,,,,,0,0.6691,1,,,,,,,,,,,,0,131,5,5,2214,2214,absent_patch/patch0002214.jpg,absent_patch/patch0002214.jpg,,,,,,,,,,,,,,,,,,,,-0.037037037,0.084259245,1,0,0,response7disk,23,-0.009259259,-0.003703718,1,0,0,center_square,0,22,22,115,1,,,,,,,,,,,,,,,,,,,,,,,
924159,001,2022-11-20_18h00.57.142,Info_measure_main_exp,2022.2.2,Win32,59.89099838,,,,,,,,,,,,,,,,,,masks/mask_004.jpg,,,,,,,,,,,,,,,,,,,,,,,,,,,,,,,,,,,,,,,,,,,0,0,0,3,1,,,,,,,,,,,,,,,,,,,,,,,,,,,,,,,,,,,,,,,,,,,,,,
924159,001,2022-11-20_18h00.57.142,Info_measure_main_exp,2022.2.2,Win32,59.89099838,,,,,,,,,,,,,,,,,,masks/mask_003.jpg,,,,,,,,,,,,,,,,,,,,,,,,,,,,,,,,,,,,,,,,,,,0,1,1,2,1,,,,,,,,,,,,,,,,,,,,,,,,,,,,,,,,,,,,,,,,,,,,,,
924159,001,2022-11-20_18h00.57.142,Info_measure_main_exp,2022.2.2,Win32,59.89099838,,,,,,,,,,,,,,,,,,masks/mask_002.jpg,,,,,,,,,,,,,,,,,,,,,,,,,,,,,,,,,,,,,,,,,,,0,2,2,1,1,,,,,,,,,,,,,,,,,,,,,,,,,,,,,,,,,,,,,,,,,,,,,,
924159,001,2022-11-20_18h00.57.142,Info_measure_main_exp,2022.2.2,Win32,59.89099838,,,,,,,,,,,,,,,,,,masks/mask_005.jpg,,,,,,,,,,,,,,,,,,,,,,,,,,,,,,,,,,,,,,,,,,,0,3,3,4,1,,,,,,,,,,,,,,,,,,,,,,,,,,,,,,,,,,,,,,,,,,,,,,
924159,001,2022-11-20_18h00.57.142,Info_measure_main_exp,2022.2.2,Win32,59.89099838,,,,,,,,,,,,,,,,,,masks/mask_001.jpg,,,,,,,,,,,,,,,,,,,,,,,,,,,,,,,,,,,,,,,,,,,0,4,4,0,1,,,,,,,,,,,,,,,,,,,,,,,,,,,,,,,,,,,,,,,,,,,,,,
924159,001,2022-11-20_18h00.57.142,Info_measure_main_exp,2022.2.2,Win32,59.89099838,,,,,,,,,,,,,,,,,,masks/mask_004.jpg,,,,,,,,,,,,,,,,,,,,,,,,,,,,,,,,,,,,,,,,,,,,,,,,0,0,0,3,1,,,,,,,,,,,,,,,,,,,,,,,,,,,,,,,,,,,,,,,,,
924159,001,2022-11-20_18h00.57.142,Info_measure_main_exp,2022.2.2,Win32,59.89099838,,,,,,,,,,,,,,,,,,masks/mask_001.jpg,,,,,,,,,,,,,,,,,,,,,,,,,,,,,,,,,,,,,,,,,,,,,,,,0,1,1,0,1,,,,,,,,,,,,,,,,,,,,,,,,,,,,,,,,,,,,,,,,,
924159,001,2022-11-20_18h00.57.142,Info_measure_main_exp,2022.2.2,Win32,59.89099838,,,,,,,,,,,,,,,,,,masks/mask_002.jpg,,,,,,,,,,,,,,,,,,,,,,,,,,,,,,,,,,,,,,,,,,,,,,,,0,2,2,1,1,,,,,,,,,,,,,,,,,,,,,,,,,,,,,,,,,,,,,,,,,
924159,001,2022-11-20_18h00.57.142,Info_measure_main_exp,2022.2.2,Win32,59.89099838,,,,,,,,,,,,,,,,,,masks/mask_003.jpg,,,,,,,,,,,,,,,,,,,,,,,,,,,,,,,,,,,,,,,,,,,,,,,,0,3,3,2,1,,,,,,,,,,,,,,,,,,,,,,,,,,,,,,,,,,,,,,,,,
924159,001,2022-11-20_18h00.57.142,Info_measure_main_exp,2022.2.2,Win32,59.89099838,,,,,,,,,,,,,,,,,,masks/mask_005.jpg,,,,,,,,,,,,,,,,,,,,,,,,,,,,,,,,,,,,,,,,,,,,,,,,0,4,4,4,1,,,,,,,,,,,,,,,,,,,,,,,,,,,,,,,,,,,,,,,,,
924159,001,2022-11-20_18h00.57.142,Info_measure_main_exp,2022.2.2,Win32,59.89099838,,,,,,,,,,,,,,,,,,,,,,,,,,,,,,7,0.833,1,,,,,,,,,,,,1,131,5,5,1,2274,present_patch/cong_131_5_a.jpg,absent_patch/patch0002274.jpg,,,,,,,,,,,,,,,,,,,,0.062962991,0.209259263,1,0,0,response1disk,24,0.009259259,0.0074074,1,0,0,center_square,0,23,23,105,1,,,,,,,,,,,,,,,,,,,,,,,
924159,001,2022-11-20_18h00.57.142,Info_measure_main_exp,2022.2.2,Win32,59.89099838,,,,,,,,,,,,,,,,,,masks/mask_001.jpg,,,,,,,,,,,,,,,,,,,,,,,,,,,,,,,,,,,,,,,,,,,0,0,0,0,1,,,,,,,,,,,,,,,,,,,,,,,,,,,,,,,,,,,,,,,,,,,,,,
924159,001,2022-11-20_18h00.57.142,Info_measure_main_exp,2022.2.2,Win32,59.89099838,,,,,,,,,,,,,,,,,,masks/mask_004.jpg,,,,,,,,,,,,,,,,,,,,,,,,,,,,,,,,,,,,,,,,,,,0,1,1,3,1,,,,,,,,,,,,,,,,,,,,,,,,,,,,,,,,,,,,,,,,,,,,,,
924159,001,2022-11-20_18h00.57.142,Info_measure_main_exp,2022.2.2,Win32,59.89099838,,,,,,,,,,,,,,,,,,masks/mask_003.jpg,,,,,,,,,,,,,,,,,,,,,,,,,,,,,,,,,,,,,,,,,,,0,2,2,2,1,,,,,,,,,,,,,,,,,,,,,,,,,,,,,,,,,,,,,,,,,,,,,,
924159,001,2022-11-20_18h00.57.142,Info_measure_main_exp,2022.2.2,Win32,59.89099838,,,,,,,,,,,,,,,,,,masks/mask_005.jpg,,,,,,,,,,,,,,,,,,,,,,,,,,,,,,,,,,,,,,,,,,,0,3,3,4,1,,,,,,,,,,,,,,,,,,,,,,,,,,,,,,,,,,,,,,,,,,,,,,
924159,001,2022-11-20_18h00.57.142,Info_measure_main_exp,2022.2.2,Win32,59.89099838,,,,,,,,,,,,,,,,,,masks/mask_002.jpg,,,,,,,,,,,,,,,,,,,,,,,,,,,,,,,,,,,,,,,,,,,0,4,4,1,1,,,,,,,,,,,,,,,,,,,,,,,,,,,,,,,,,,,,,,,,,,,,,,
924159,001,2022-11-20_18h00.57.142,Info_measure_main_exp,2022.2.2,Win32,59.89099838,,,,,,,,,,,,,,,,,,masks/mask_004.jpg,,,,,,,,,,,,,,,,,,,,,,,,,,,,,,,,,,,,,,,,,,,,,,,,0,0,0,3,1,,,,,,,,,,,,,,,,,,,,,,,,,,,,,,,,,,,,,,,,,
924159,001,2022-11-20_18h00.57.142,Info_measure_main_exp,2022.2.2,Win32,59.89099838,,,,,,,,,,,,,,,,,,masks/mask_003.jpg,,,,,,,,,,,,,,,,,,,,,,,,,,,,,,,,,,,,,,,,,,,,,,,,0,1,1,2,1,,,,,,,,,,,,,,,,,,,,,,,,,,,,,,,,,,,,,,,,,
924159,001,2022-11-20_18h00.57.142,Info_measure_main_exp,2022.2.2,Win32,59.89099838,,,,,,,,,,,,,,,,,,masks/mask_005.jpg,,,,,,,,,,,,,,,,,,,,,,,,,,,,,,,,,,,,,,,,,,,,,,,,0,2,2,4,1,,,,,,,,,,,,,,,,,,,,,,,,,,,,,,,,,,,,,,,,,
924159,001,2022-11-20_18h00.57.142,Info_measure_main_exp,2022.2.2,Win32,59.89099838,,,,,,,,,,,,,,,,,,masks/mask_002.jpg,,,,,,,,,,,,,,,,,,,,,,,,,,,,,,,,,,,,,,,,,,,,,,,,0,3,3,1,1,,,,,,,,,,,,,,,,,,,,,,,,,,,,,,,,,,,,,,,,,
924159,001,2022-11-20_18h00.57.142,Info_measure_main_exp,2022.2.2,Win32,59.89099838,,,,,,,,,,,,,,,,,,masks/mask_001.jpg,,,,,,,,,,,,,,,,,,,,,,,,,,,,,,,,,,,,,,,,,,,,,,,,0,4,4,0,1,,,,,,,,,,,,,,,,,,,,,,,,,,,,,,,,,,,,,,,,,
924159,001,2022-11-20_18h00.57.142,Info_measure_main_exp,2022.2.2,Win32,59.89099838,,,,,,,,,,,,,,,,,,,,,,,,,,,,,,7,0.6663,1,,,,,,,,,,,,0,131,5,5,2274,2166,absent_patch/patch0002274.jpg,absent_patch/patch0002166.jpg,,,,,,,,,,,,,,,,,,,,0.034259302,0.074074074,1,0,0,response1disk,25,0,-0.015740748,1,0,0,center_square,0,24,24,78,1,,,,,,,,,,,,,,,,,,,,,,,
924159,001,2022-11-20_18h00.57.142,Info_measure_main_exp,2022.2.2,Win32,59.89099838,,,,,,,,,,,,,,,,,,masks/mask_004.jpg,,,,,,,,,,,,,,,,,,,,,,,,,,,,,,,,,,,,,,,,,,,0,0,0,3,1,,,,,,,,,,,,,,,,,,,,,,,,,,,,,,,,,,,,,,,,,,,,,,
924159,001,2022-11-20_18h00.57.142,Info_measure_main_exp,2022.2.2,Win32,59.89099838,,,,,,,,,,,,,,,,,,masks/mask_003.jpg,,,,,,,,,,,,,,,,,,,,,,,,,,,,,,,,,,,,,,,,,,,0,1,1,2,1,,,,,,,,,,,,,,,,,,,,,,,,,,,,,,,,,,,,,,,,,,,,,,
924159,001,2022-11-20_18h00.57.142,Info_measure_main_exp,2022.2.2,Win32,59.89099838,,,,,,,,,,,,,,,,,,masks/mask_002.jpg,,,,,,,,,,,,,,,,,,,,,,,,,,,,,,,,,,,,,,,,,,,0,2,2,1,1,,,,,,,,,,,,,,,,,,,,,,,,,,,,,,,,,,,,,,,,,,,,,,
924159,001,2022-11-20_18h00.57.142,Info_measure_main_exp,2022.2.2,Win32,59.89099838,,,,,,,,,,,,,,,,,,masks/mask_001.jpg,,,,,,,,,,,,,,,,,,,,,,,,,,,,,,,,,,,,,,,,,,,0,3,3,0,1,,,,,,,,,,,,,,,,,,,,,,,,,,,,,,,,,,,,,,,,,,,,,,
924159,001,2022-11-20_18h00.57.142,Info_measure_main_exp,2022.2.2,Win32,59.89099838,,,,,,,,,,,,,,,,,,masks/mask_005.jpg,,,,,,,,,,,,,,,,,,,,,,,,,,,,,,,,,,,,,,,,,,,0,4,4,4,1,,,,,,,,,,,,,,,,,,,,,,,,,,,,,,,,,,,,,,,,,,,,,,
924159,001,2022-11-20_18h00.57.142,Info_measure_main_exp,2022.2.2,Win32,59.89099838,,,,,,,,,,,,,,,,,,masks/mask_004.jpg,,,,,,,,,,,,,,,,,,,,,,,,,,,,,,,,,,,,,,,,,,,,,,,,0,0,0,3,1,,,,,,,,,,,,,,,,,,,,,,,,,,,,,,,,,,,,,,,,,
924159,001,2022-11-20_18h00.57.142,Info_measure_main_exp,2022.2.2,Win32,59.89099838,,,,,,,,,,,,,,,,,,masks/mask_005.jpg,,,,,,,,,,,,,,,,,,,,,,,,,,,,,,,,,,,,,,,,,,,,,,,,0,1,1,4,1,,,,,,,,,,,,,,,,,,,,,,,,,,,,,,,,,,,,,,,,,
924159,001,2022-11-20_18h00.57.142,Info_measure_main_exp,2022.2.2,Win32,59.89099838,,,,,,,,,,,,,,,,,,masks/mask_001.jpg,,,,,,,,,,,,,,,,,,,,,,,,,,,,,,,,,,,,,,,,,,,,,,,,0,2,2,0,1,,,,,,,,,,,,,,,,,,,,,,,,,,,,,,,,,,,,,,,,,
924159,001,2022-11-20_18h00.57.142,Info_measure_main_exp,2022.2.2,Win32,59.89099838,,,,,,,,,,,,,,,,,,masks/mask_003.jpg,,,,,,,,,,,,,,,,,,,,,,,,,,,,,,,,,,,,,,,,,,,,,,,,0,3,3,2,1,,,,,,,,,,,,,,,,,,,,,,,,,,,,,,,,,,,,,,,,,
924159,001,2022-11-20_18h00.57.142,Info_measure_main_exp,2022.2.2,Win32,59.89099838,,,,,,,,,,,,,,,,,,masks/mask_002.jpg,,,,,,,,,,,,,,,,,,,,,,,,,,,,,,,,,,,,,,,,,,,,,,,,0,4,4,1,1,,,,,,,,,,,,,,,,,,,,,,,,,,,,,,,,,,,,,,,,,
924159,001,2022-11-20_18h00.57.142,Info_measure_main_exp,2022.2.2,Win32,59.89099838,,,,,,,,,,,,,,,,,,,,,,,,,,,,,,7,0.5669,1,,,,,,,,,,,,0,131,5,5,2154,2214,absent_patch/patch0002154.jpg,absent_patch/patch0002214.jpg,,,,,,,,,,,,,,,,,,,,0.030555584,0.069444444,1,0,0,response1disk,26,0.001851894,-0.008333347,1,0,0,center_square,0,25,25,67,1,,,,,,,,,,,,,,,,,,,,,,,
924159,001,2022-11-20_18h00.57.142,Info_measure_main_exp,2022.2.2,Win32,59.89099838,,,,,,,,,,,,,,,,,,masks/mask_003.jpg,,,,,,,,,,,,,,,,,,,,,,,,,,,,,,,,,,,,,,,,,,,0,0,0,2,1,,,,,,,,,,,,,,,,,,,,,,,,,,,,,,,,,,,,,,,,,,,,,,
924159,001,2022-11-20_18h00.57.142,Info_measure_main_exp,2022.2.2,Win32,59.89099838,,,,,,,,,,,,,,,,,,masks/mask_001.jpg,,,,,,,,,,,,,,,,,,,,,,,,,,,,,,,,,,,,,,,,,,,0,1,1,0,1,,,,,,,,,,,,,,,,,,,,,,,,,,,,,,,,,,,,,,,,,,,,,,
924159,001,2022-11-20_18h00.57.142,Info_measure_main_exp,2022.2.2,Win32,59.89099838,,,,,,,,,,,,,,,,,,masks/mask_005.jpg,,,,,,,,,,,,,,,,,,,,,,,,,,,,,,,,,,,,,,,,,,,0,2,2,4,1,,,,,,,,,,,,,,,,,,,,,,,,,,,,,,,,,,,,,,,,,,,,,,
924159,001,2022-11-20_18h00.57.142,Info_measure_main_exp,2022.2.2,Win32,59.89099838,,,,,,,,,,,,,,,,,,masks/mask_004.jpg,,,,,,,,,,,,,,,,,,,,,,,,,,,,,,,,,,,,,,,,,,,0,3,3,3,1,,,,,,,,,,,,,,,,,,,,,,,,,,,,,,,,,,,,,,,,,,,,,,
924159,001,2022-11-20_18h00.57.142,Info_measure_main_exp,2022.2.2,Win32,59.89099838,,,,,,,,,,,,,,,,,,masks/mask_002.jpg,,,,,,,,,,,,,,,,,,,,,,,,,,,,,,,,,,,,,,,,,,,0,4,4,1,1,,,,,,,,,,,,,,,,,,,,,,,,,,,,,,,,,,,,,,,,,,,,,,
924159,001,2022-11-20_18h00.57.142,Info_measure_main_exp,2022.2.2,Win32,59.89099838,,,,,,,,,,,,,,,,,,masks/mask_002.jpg,,,,,,,,,,,,,,,,,,,,,,,,,,,,,,,,,,,,,,,,,,,,,,,,0,0,0,1,1,,,,,,,,,,,,,,,,,,,,,,,,,,,,,,,,,,,,,,,,,
924159,001,2022-11-20_18h00.57.142,Info_measure_main_exp,2022.2.2,Win32,59.89099838,,,,,,,,,,,,,,,,,,masks/mask_001.jpg,,,,,,,,,,,,,,,,,,,,,,,,,,,,,,,,,,,,,,,,,,,,,,,,0,1,1,0,1,,,,,,,,,,,,,,,,,,,,,,,,,,,,,,,,,,,,,,,,,
924159,001,2022-11-20_18h00.57.142,Info_measure_main_exp,2022.2.2,Win32,59.89099838,,,,,,,,,,,,,,,,,,masks/mask_004.jpg,,,,,,,,,,,,,,,,,,,,,,,,,,,,,,,,,,,,,,,,,,,,,,,,0,2,2,3,1,,,,,,,,,,,,,,,,,,,,,,,,,,,,,,,,,,,,,,,,,
924159,001,2022-11-20_18h00.57.142,Info_measure_main_exp,2022.2.2,Win32,59.89099838,,,,,,,,,,,,,,,,,,masks/mask_003.jpg,,,,,,,,,,,,,,,,,,,,,,,,,,,,,,,,,,,,,,,,,,,,,,,,0,3,3,2,1,,,,,,,,,,,,,,,,,,,,,,,,,,,,,,,,,,,,,,,,,
924159,001,2022-11-20_18h00.57.142,Info_measure_main_exp,2022.2.2,Win32,59.89099838,,,,,,,,,,,,,,,,,,masks/mask_005.jpg,,,,,,,,,,,,,,,,,,,,,,,,,,,,,,,,,,,,,,,,,,,,,,,,0,4,4,4,1,,,,,,,,,,,,,,,,,,,,,,,,,,,,,,,,,,,,,,,,,
924159,001,2022-11-20_18h00.57.142,Info_measure_main_exp,2022.2.2,Win32,59.89099838,,,,,,,,,,,,,,,,,,,,,,,,,,,,,,7,0.583,1,,,,,,,,,,,,1,131,5,5,1,2142,present_patch/cong_131_5_a.jpg,absent_patch/patch0002142.jpg,,,,,,,,,,,,,,,,,,,,0.027777778,0.079629616,1,0,0,response1disk,27,0.002777806,0.002777771,1,0,0,center_square,0,26,26,80,1,,,,,,,,,,,,,,,,,,,,,,,
924159,001,2022-11-20_18h00.57.142,Info_measure_main_exp,2022.2.2,Win32,59.89099838,,,,,,,,,,,,,,,,,,masks/mask_005.jpg,,,,,,,,,,,,,,,,,,,,,,,,,,,,,,,,,,,,,,,,,,,0,0,0,4,1,,,,,,,,,,,,,,,,,,,,,,,,,,,,,,,,,,,,,,,,,,,,,,
924159,001,2022-11-20_18h00.57.142,Info_measure_main_exp,2022.2.2,Win32,59.89099838,,,,,,,,,,,,,,,,,,masks/mask_004.jpg,,,,,,,,,,,,,,,,,,,,,,,,,,,,,,,,,,,,,,,,,,,0,1,1,3,1,,,,,,,,,,,,,,,,,,,,,,,,,,,,,,,,,,,,,,,,,,,,,,
924159,001,2022-11-20_18h00.57.142,Info_measure_main_exp,2022.2.2,Win32,59.89099838,,,,,,,,,,,,,,,,,,masks/mask_003.jpg,,,,,,,,,,,,,,,,,,,,,,,,,,,,,,,,,,,,,,,,,,,0,2,2,2,1,,,,,,,,,,,,,,,,,,,,,,,,,,,,,,,,,,,,,,,,,,,,,,
924159,001,2022-11-20_18h00.57.142,Info_measure_main_exp,2022.2.2,Win32,59.89099838,,,,,,,,,,,,,,,,,,masks/mask_001.jpg,,,,,,,,,,,,,,,,,,,,,,,,,,,,,,,,,,,,,,,,,,,0,3,3,0,1,,,,,,,,,,,,,,,,,,,,,,,,,,,,,,,,,,,,,,,,,,,,,,
924159,001,2022-11-20_18h00.57.142,Info_measure_main_exp,2022.2.2,Win32,59.89099838,,,,,,,,,,,,,,,,,,masks/mask_002.jpg,,,,,,,,,,,,,,,,,,,,,,,,,,,,,,,,,,,,,,,,,,,0,4,4,1,1,,,,,,,,,,,,,,,,,,,,,,,,,,,,,,,,,,,,,,,,,,,,,,
924159,001,2022-11-20_18h00.57.142,Info_measure_main_exp,2022.2.2,Win32,59.89099838,,,,,,,,,,,,,,,,,,masks/mask_002.jpg,,,,,,,,,,,,,,,,,,,,,,,,,,,,,,,,,,,,,,,,,,,,,,,,0,0,0,1,1,,,,,,,,,,,,,,,,,,,,,,,,,,,,,,,,,,,,,,,,,
924159,001,2022-11-20_18h00.57.142,Info_measure_main_exp,2022.2.2,Win32,59.89099838,,,,,,,,,,,,,,,,,,masks/mask_003.jpg,,,,,,,,,,,,,,,,,,,,,,,,,,,,,,,,,,,,,,,,,,,,,,,,0,1,1,2,1,,,,,,,,,,,,,,,,,,,,,,,,,,,,,,,,,,,,,,,,,
924159,001,2022-11-20_18h00.57.142,Info_measure_main_exp,2022.2.2,Win32,59.89099838,,,,,,,,,,,,,,,,,,masks/mask_001.jpg,,,,,,,,,,,,,,,,,,,,,,,,,,,,,,,,,,,,,,,,,,,,,,,,0,2,2,0,1,,,,,,,,,,,,,,,,,,,,,,,,,,,,,,,,,,,,,,,,,
924159,001,2022-11-20_18h00.57.142,Info_measure_main_exp,2022.2.2,Win32,59.89099838,,,,,,,,,,,,,,,,,,masks/mask_004.jpg,,,,,,,,,,,,,,,,,,,,,,,,,,,,,,,,,,,,,,,,,,,,,,,,0,3,3,3,1,,,,,,,,,,,,,,,,,,,,,,,,,,,,,,,,,,,,,,,,,
924159,001,2022-11-20_18h00.57.142,Info_measure_main_exp,2022.2.2,Win32,59.89099838,,,,,,,,,,,,,,,,,,masks/mask_005.jpg,,,,,,,,,,,,,,,,,,,,,,,,,,,,,,,,,,,,,,,,,,,,,,,,0,4,4,4,1,,,,,,,,,,,,,,,,,,,,,,,,,,,,,,,,,,,,,,,,,
924159,001,2022-11-20_18h00.57.142,Info_measure_main_exp,2022.2.2,Win32,59.89099838,,,,,,,,,,,,,,,,,,,,,,,,,,,,,,7,0.5669,1,,,,,,,,,,,,0,131,5,5,2166,1986,absent_patch/patch0002166.jpg,absent_patch/patch0001986.jpg,,,,,,,,,,,,,,,,,,,,0.012962977,0.066666674,1,0,0,response1disk,28,0.001851894,0.01203703,1,0,0,center_square,0,27,27,47,1,,,,,,,,,,,,,,,,,,,,,,,
924159,001,2022-11-20_18h00.57.142,Info_measure_main_exp,2022.2.2,Win32,59.89099838,,,,,,,,,,,,,,,,,,masks/mask_004.jpg,,,,,,,,,,,,,,,,,,,,,,,,,,,,,,,,,,,,,,,,,,,0,0,0,3,1,,,,,,,,,,,,,,,,,,,,,,,,,,,,,,,,,,,,,,,,,,,,,,
924159,001,2022-11-20_18h00.57.142,Info_measure_main_exp,2022.2.2,Win32,59.89099838,,,,,,,,,,,,,,,,,,masks/mask_003.jpg,,,,,,,,,,,,,,,,,,,,,,,,,,,,,,,,,,,,,,,,,,,0,1,1,2,1,,,,,,,,,,,,,,,,,,,,,,,,,,,,,,,,,,,,,,,,,,,,,,
924159,001,2022-11-20_18h00.57.142,Info_measure_main_exp,2022.2.2,Win32,59.89099838,,,,,,,,,,,,,,,,,,masks/mask_005.jpg,,,,,,,,,,,,,,,,,,,,,,,,,,,,,,,,,,,,,,,,,,,0,2,2,4,1,,,,,,,,,,,,,,,,,,,,,,,,,,,,,,,,,,,,,,,,,,,,,,
924159,001,2022-11-20_18h00.57.142,Info_measure_main_exp,2022.2.2,Win32,59.89099838,,,,,,,,,,,,,,,,,,masks/mask_002.jpg,,,,,,,,,,,,,,,,,,,,,,,,,,,,,,,,,,,,,,,,,,,0,3,3,1,1,,,,,,,,,,,,,,,,,,,,,,,,,,,,,,,,,,,,,,,,,,,,,,
924159,001,2022-11-20_18h00.57.142,Info_measure_main_exp,2022.2.2,Win32,59.89099838,,,,,,,,,,,,,,,,,,masks/mask_001.jpg,,,,,,,,,,,,,,,,,,,,,,,,,,,,,,,,,,,,,,,,,,,0,4,4,0,1,,,,,,,,,,,,,,,,,,,,,,,,,,,,,,,,,,,,,,,,,,,,,,
924159,001,2022-11-20_18h00.57.142,Info_measure_main_exp,2022.2.2,Win32,59.89099838,,,,,,,,,,,,,,,,,,masks/mask_004.jpg,,,,,,,,,,,,,,,,,,,,,,,,,,,,,,,,,,,,,,,,,,,,,,,,0,0,0,3,1,,,,,,,,,,,,,,,,,,,,,,,,,,,,,,,,,,,,,,,,,
924159,001,2022-11-20_18h00.57.142,Info_measure_main_exp,2022.2.2,Win32,59.89099838,,,,,,,,,,,,,,,,,,masks/mask_005.jpg,,,,,,,,,,,,,,,,,,,,,,,,,,,,,,,,,,,,,,,,,,,,,,,,0,1,1,4,1,,,,,,,,,,,,,,,,,,,,,,,,,,,,,,,,,,,,,,,,,
924159,001,2022-11-20_18h00.57.142,Info_measure_main_exp,2022.2.2,Win32,59.89099838,,,,,,,,,,,,,,,,,,masks/mask_001.jpg,,,,,,,,,,,,,,,,,,,,,,,,,,,,,,,,,,,,,,,,,,,,,,,,0,2,2,0,1,,,,,,,,,,,,,,,,,,,,,,,,,,,,,,,,,,,,,,,,,
924159,001,2022-11-20_18h00.57.142,Info_measure_main_exp,2022.2.2,Win32,59.89099838,,,,,,,,,,,,,,,,,,masks/mask_002.jpg,,,,,,,,,,,,,,,,,,,,,,,,,,,,,,,,,,,,,,,,,,,,,,,,0,3,3,1,1,,,,,,,,,,,,,,,,,,,,,,,,,,,,,,,,,,,,,,,,,
924159,001,2022-11-20_18h00.57.142,Info_measure_main_exp,2022.2.2,Win32,59.89099838,,,,,,,,,,,,,,,,,,masks/mask_003.jpg,,,,,,,,,,,,,,,,,,,,,,,,,,,,,,,,,,,,,,,,,,,,,,,,0,4,4,2,1,,,,,,,,,,,,,,,,,,,,,,,,,,,,,,,,,,,,,,,,,
924159,001,2022-11-20_18h00.57.142,Info_measure_main_exp,2022.2.2,Win32,59.89099838,,,,,,,,,,,,,,,,,,,,,,,,,,,,,,5,2.4171,1,,,,,,,,,,,,0,131,5,5,1974,2298,absent_patch/patch0001974.jpg,absent_patch/patch0002298.jpg,,,,,,,,,,,,,,,,,,,,0.131481524,-0.029629637,1,0,0,response3disk,29,-0.000925912,-0.009259259,1,0,0,center_square,0,28,28,6,1,,,,,,,,,,,,,,,,,,,,,,,
924159,001,2022-11-20_18h00.57.142,Info_measure_main_exp,2022.2.2,Win32,59.89099838,,,,,,,,,,,,,,,,,,masks/mask_003.jpg,,,,,,,,,,,,,,,,,,,,,,,,,,,,,,,,,,,,,,,,,,,0,0,0,2,1,,,,,,,,,,,,,,,,,,,,,,,,,,,,,,,,,,,,,,,,,,,,,,
924159,001,2022-11-20_18h00.57.142,Info_measure_main_exp,2022.2.2,Win32,59.89099838,,,,,,,,,,,,,,,,,,masks/mask_005.jpg,,,,,,,,,,,,,,,,,,,,,,,,,,,,,,,,,,,,,,,,,,,0,1,1,4,1,,,,,,,,,,,,,,,,,,,,,,,,,,,,,,,,,,,,,,,,,,,,,,
924159,001,2022-11-20_18h00.57.142,Info_measure_main_exp,2022.2.2,Win32,59.89099838,,,,,,,,,,,,,,,,,,masks/mask_001.jpg,,,,,,,,,,,,,,,,,,,,,,,,,,,,,,,,,,,,,,,,,,,0,2,2,0,1,,,,,,,,,,,,,,,,,,,,,,,,,,,,,,,,,,,,,,,,,,,,,,
924159,001,2022-11-20_18h00.57.142,Info_measure_main_exp,2022.2.2,Win32,59.89099838,,,,,,,,,,,,,,,,,,masks/mask_004.jpg,,,,,,,,,,,,,,,,,,,,,,,,,,,,,,,,,,,,,,,,,,,0,3,3,3,1,,,,,,,,,,,,,,,,,,,,,,,,,,,,,,,,,,,,,,,,,,,,,,
924159,001,2022-11-20_18h00.57.142,Info_measure_main_exp,2022.2.2,Win32,59.89099838,,,,,,,,,,,,,,,,,,masks/mask_002.jpg,,,,,,,,,,,,,,,,,,,,,,,,,,,,,,,,,,,,,,,,,,,0,4,4,1,1,,,,,,,,,,,,,,,,,,,,,,,,,,,,,,,,,,,,,,,,,,,,,,
924159,001,2022-11-20_18h00.57.142,Info_measure_main_exp,2022.2.2,Win32,59.89099838,,,,,,,,,,,,,,,,,,masks/mask_001.jpg,,,,,,,,,,,,,,,,,,,,,,,,,,,,,,,,,,,,,,,,,,,,,,,,0,0,0,0,1,,,,,,,,,,,,,,,,,,,,,,,,,,,,,,,,,,,,,,,,,
924159,001,2022-11-20_18h00.57.142,Info_measure_main_exp,2022.2.2,Win32,59.89099838,,,,,,,,,,,,,,,,,,masks/mask_002.jpg,,,,,,,,,,,,,,,,,,,,,,,,,,,,,,,,,,,,,,,,,,,,,,,,0,1,1,1,1,,,,,,,,,,,,,,,,,,,,,,,,,,,,,,,,,,,,,,,,,
924159,001,2022-11-20_18h00.57.142,Info_measure_main_exp,2022.2.2,Win32,59.89099838,,,,,,,,,,,,,,,,,,masks/mask_004.jpg,,,,,,,,,,,,,,,,,,,,,,,,,,,,,,,,,,,,,,,,,,,,,,,,0,2,2,3,1,,,,,,,,,,,,,,,,,,,,,,,,,,,,,,,,,,,,,,,,,
924159,001,2022-11-20_18h00.57.142,Info_measure_main_exp,2022.2.2,Win32,59.89099838,,,,,,,,,,,,,,,,,,masks/mask_003.jpg,,,,,,,,,,,,,,,,,,,,,,,,,,,,,,,,,,,,,,,,,,,,,,,,0,3,3,2,1,,,,,,,,,,,,,,,,,,,,,,,,,,,,,,,,,,,,,,,,,
924159,001,2022-11-20_18h00.57.142,Info_measure_main_exp,2022.2.2,Win32,59.89099838,,,,,,,,,,,,,,,,,,masks/mask_005.jpg,,,,,,,,,,,,,,,,,,,,,,,,,,,,,,,,,,,,,,,,,,,,,,,,0,4,4,4,1,,,,,,,,,,,,,,,,,,,,,,,,,,,,,,,,,,,,,,,,,
924159,001,2022-11-20_18h00.57.142,Info_measure_main_exp,2022.2.2,Win32,59.89099838,,,,,,,,,,,,,,,,,,,,,,,,,,,,,,7,2.1006,1,,,,,,,,,,,,0,131,5,5,2142,2190,absent_patch/patch0002142.jpg,absent_patch/patch0002190.jpg,,,,,,,,,,,,,,,,,,,,0.10092594,0.148148148,1,0,0,response1disk,30,0.005555541,0.002777771,1,0,0,center_square,0,29,29,70,1,,,,,,,,,,,,,,,,,,,,,,,
924159,001,2022-11-20_18h00.57.142,Info_measure_main_exp,2022.2.2,Win32,59.89099838,,,,,,,,,,,,,,,,,,masks/mask_001.jpg,,,,,,,,,,,,,,,,,,,,,,,,,,,,,,,,,,,,,,,,,,,0,0,0,0,1,,,,,,,,,,,,,,,,,,,,,,,,,,,,,,,,,,,,,,,,,,,,,,
924159,001,2022-11-20_18h00.57.142,Info_measure_main_exp,2022.2.2,Win32,59.89099838,,,,,,,,,,,,,,,,,,masks/mask_003.jpg,,,,,,,,,,,,,,,,,,,,,,,,,,,,,,,,,,,,,,,,,,,0,1,1,2,1,,,,,,,,,,,,,,,,,,,,,,,,,,,,,,,,,,,,,,,,,,,,,,
924159,001,2022-11-20_18h00.57.142,Info_measure_main_exp,2022.2.2,Win32,59.89099838,,,,,,,,,,,,,,,,,,masks/mask_002.jpg,,,,,,,,,,,,,,,,,,,,,,,,,,,,,,,,,,,,,,,,,,,0,2,2,1,1,,,,,,,,,,,,,,,,,,,,,,,,,,,,,,,,,,,,,,,,,,,,,,
924159,001,2022-11-20_18h00.57.142,Info_measure_main_exp,2022.2.2,Win32,59.89099838,,,,,,,,,,,,,,,,,,masks/mask_004.jpg,,,,,,,,,,,,,,,,,,,,,,,,,,,,,,,,,,,,,,,,,,,0,3,3,3,1,,,,,,,,,,,,,,,,,,,,,,,,,,,,,,,,,,,,,,,,,,,,,,
924159,001,2022-11-20_18h00.57.142,Info_measure_main_exp,2022.2.2,Win32,59.89099838,,,,,,,,,,,,,,,,,,masks/mask_005.jpg,,,,,,,,,,,,,,,,,,,,,,,,,,,,,,,,,,,,,,,,,,,0,4,4,4,1,,,,,,,,,,,,,,,,,,,,,,,,,,,,,,,,,,,,,,,,,,,,,,
924159,001,2022-11-20_18h00.57.142,Info_measure_main_exp,2022.2.2,Win32,59.89099838,,,,,,,,,,,,,,,,,,masks/mask_001.jpg,,,,,,,,,,,,,,,,,,,,,,,,,,,,,,,,,,,,,,,,,,,,,,,,0,0,0,0,1,,,,,,,,,,,,,,,,,,,,,,,,,,,,,,,,,,,,,,,,,
924159,001,2022-11-20_18h00.57.142,Info_measure_main_exp,2022.2.2,Win32,59.89099838,,,,,,,,,,,,,,,,,,masks/mask_005.jpg,,,,,,,,,,,,,,,,,,,,,,,,,,,,,,,,,,,,,,,,,,,,,,,,0,1,1,4,1,,,,,,,,,,,,,,,,,,,,,,,,,,,,,,,,,,,,,,,,,
924159,001,2022-11-20_18h00.57.142,Info_measure_main_exp,2022.2.2,Win32,59.89099838,,,,,,,,,,,,,,,,,,masks/mask_003.jpg,,,,,,,,,,,,,,,,,,,,,,,,,,,,,,,,,,,,,,,,,,,,,,,,0,2,2,2,1,,,,,,,,,,,,,,,,,,,,,,,,,,,,,,,,,,,,,,,,,
924159,001,2022-11-20_18h00.57.142,Info_measure_main_exp,2022.2.2,Win32,59.89099838,,,,,,,,,,,,,,,,,,masks/mask_002.jpg,,,,,,,,,,,,,,,,,,,,,,,,,,,,,,,,,,,,,,,,,,,,,,,,0,3,3,1,1,,,,,,,,,,,,,,,,,,,,,,,,,,,,,,,,,,,,,,,,,
924159,001,2022-11-20_18h00.57.142,Info_measure_main_exp,2022.2.2,Win32,59.89099838,,,,,,,,,,,,,,,,,,masks/mask_004.jpg,,,,,,,,,,,,,,,,,,,,,,,,,,,,,,,,,,,,,,,,,,,,,,,,0,4,4,3,1,,,,,,,,,,,,,,,,,,,,,,,,,,,,,,,,,,,,,,,,,
924159,001,2022-11-20_18h00.57.142,Info_measure_main_exp,2022.2.2,Win32,59.89099838,,,,,,,,,,,,,,,,,,,,,,,,,,,,,,6,0.6498,1,,,,,,,,,,,,0,131,5,5,1986,2154,absent_patch/patch0001986.jpg,absent_patch/patch0002154.jpg,,,,,,,,,,,,,,,,,,,,0.062037079,0.027777778,1,0,0,response1disk,31,0.006481524,0.000925912,1,0,0,center_square,0,30,30,36,1,,,,,,,,,,,,,,,,,,,,,,,
924159,001,2022-11-20_18h00.57.142,Info_measure_main_exp,2022.2.2,Win32,59.89099838,,,,,,,,,,,,,,,,,,masks/mask_002.jpg,,,,,,,,,,,,,,,,,,,,,,,,,,,,,,,,,,,,,,,,,,,0,0,0,1,1,,,,,,,,,,,,,,,,,,,,,,,,,,,,,,,,,,,,,,,,,,,,,,
924159,001,2022-11-20_18h00.57.142,Info_measure_main_exp,2022.2.2,Win32,59.89099838,,,,,,,,,,,,,,,,,,masks/mask_004.jpg,,,,,,,,,,,,,,,,,,,,,,,,,,,,,,,,,,,,,,,,,,,0,1,1,3,1,,,,,,,,,,,,,,,,,,,,,,,,,,,,,,,,,,,,,,,,,,,,,,
924159,001,2022-11-20_18h00.57.142,Info_measure_main_exp,2022.2.2,Win32,59.89099838,,,,,,,,,,,,,,,,,,masks/mask_001.jpg,,,,,,,,,,,,,,,,,,,,,,,,,,,,,,,,,,,,,,,,,,,0,2,2,0,1,,,,,,,,,,,,,,,,,,,,,,,,,,,,,,,,,,,,,,,,,,,,,,
924159,001,2022-11-20_18h00.57.142,Info_measure_main_exp,2022.2.2,Win32,59.89099838,,,,,,,,,,,,,,,,,,masks/mask_005.jpg,,,,,,,,,,,,,,,,,,,,,,,,,,,,,,,,,,,,,,,,,,,0,3,3,4,1,,,,,,,,,,,,,,,,,,,,,,,,,,,,,,,,,,,,,,,,,,,,,,
924159,001,2022-11-20_18h00.57.142,Info_measure_main_exp,2022.2.2,Win32,59.89099838,,,,,,,,,,,,,,,,,,masks/mask_003.jpg,,,,,,,,,,,,,,,,,,,,,,,,,,,,,,,,,,,,,,,,,,,0,4,4,2,1,,,,,,,,,,,,,,,,,,,,,,,,,,,,,,,,,,,,,,,,,,,,,,
924159,001,2022-11-20_18h00.57.142,Info_measure_main_exp,2022.2.2,Win32,59.89099838,,,,,,,,,,,,,,,,,,masks/mask_005.jpg,,,,,,,,,,,,,,,,,,,,,,,,,,,,,,,,,,,,,,,,,,,,,,,,0,0,0,4,1,,,,,,,,,,,,,,,,,,,,,,,,,,,,,,,,,,,,,,,,,
924159,001,2022-11-20_18h00.57.142,Info_measure_main_exp,2022.2.2,Win32,59.89099838,,,,,,,,,,,,,,,,,,masks/mask_001.jpg,,,,,,,,,,,,,,,,,,,,,,,,,,,,,,,,,,,,,,,,,,,,,,,,0,1,1,0,1,,,,,,,,,,,,,,,,,,,,,,,,,,,,,,,,,,,,,,,,,
924159,001,2022-11-20_18h00.57.142,Info_measure_main_exp,2022.2.2,Win32,59.89099838,,,,,,,,,,,,,,,,,,masks/mask_003.jpg,,,,,,,,,,,,,,,,,,,,,,,,,,,,,,,,,,,,,,,,,,,,,,,,0,2,2,2,1,,,,,,,,,,,,,,,,,,,,,,,,,,,,,,,,,,,,,,,,,
924159,001,2022-11-20_18h00.57.142,Info_measure_main_exp,2022.2.2,Win32,59.89099838,,,,,,,,,,,,,,,,,,masks/mask_004.jpg,,,,,,,,,,,,,,,,,,,,,,,,,,,,,,,,,,,,,,,,,,,,,,,,0,3,3,3,1,,,,,,,,,,,,,,,,,,,,,,,,,,,,,,,,,,,,,,,,,
924159,001,2022-11-20_18h00.57.142,Info_measure_main_exp,2022.2.2,Win32,59.89099838,,,,,,,,,,,,,,,,,,masks/mask_002.jpg,,,,,,,,,,,,,,,,,,,,,,,,,,,,,,,,,,,,,,,,,,,,,,,,0,4,4,1,1,,,,,,,,,,,,,,,,,,,,,,,,,,,,,,,,,,,,,,,,,
924159,001,2022-11-20_18h00.57.142,Info_measure_main_exp,2022.2.2,Win32,59.89099838,,,,,,,,,,,,,,,,,,,,,,,,,,,,,,7,0.6661,1,,,,,,,,,,,,0,131,5,5,2250,2238,absent_patch/patch0002250.jpg,absent_patch/patch0002238.jpg,,,,,,,,,,,,,,,,,,,,0.046296296,0.14907406,1,0,0,response1disk,32,-0.003703718,0.006481489,1,0,0,center_square,0,31,31,110,1,,,,,,,,,,,,,,,,,,,,,,,
924159,001,2022-11-20_18h00.57.142,Info_measure_main_exp,2022.2.2,Win32,59.89099838,,,,,,,,,,,,,,,,,,masks/mask_004.jpg,,,,,,,,,,,,,,,,,,,,,,,,,,,,,,,,,,,,,,,,,,,0,0,0,3,1,,,,,,,,,,,,,,,,,,,,,,,,,,,,,,,,,,,,,,,,,,,,,,
924159,001,2022-11-20_18h00.57.142,Info_measure_main_exp,2022.2.2,Win32,59.89099838,,,,,,,,,,,,,,,,,,masks/mask_003.jpg,,,,,,,,,,,,,,,,,,,,,,,,,,,,,,,,,,,,,,,,,,,0,1,1,2,1,,,,,,,,,,,,,,,,,,,,,,,,,,,,,,,,,,,,,,,,,,,,,,
924159,001,2022-11-20_18h00.57.142,Info_measure_main_exp,2022.2.2,Win32,59.89099838,,,,,,,,,,,,,,,,,,masks/mask_001.jpg,,,,,,,,,,,,,,,,,,,,,,,,,,,,,,,,,,,,,,,,,,,0,2,2,0,1,,,,,,,,,,,,,,,,,,,,,,,,,,,,,,,,,,,,,,,,,,,,,,
924159,001,2022-11-20_18h00.57.142,Info_measure_main_exp,2022.2.2,Win32,59.89099838,,,,,,,,,,,,,,,,,,masks/mask_002.jpg,,,,,,,,,,,,,,,,,,,,,,,,,,,,,,,,,,,,,,,,,,,0,3,3,1,1,,,,,,,,,,,,,,,,,,,,,,,,,,,,,,,,,,,,,,,,,,,,,,
924159,001,2022-11-20_18h00.57.142,Info_measure_main_exp,2022.2.2,Win32,59.89099838,,,,,,,,,,,,,,,,,,masks/mask_005.jpg,,,,,,,,,,,,,,,,,,,,,,,,,,,,,,,,,,,,,,,,,,,0,4,4,4,1,,,,,,,,,,,,,,,,,,,,,,,,,,,,,,,,,,,,,,,,,,,,,,
924159,001,2022-11-20_18h00.57.142,Info_measure_main_exp,2022.2.2,Win32,59.89099838,,,,,,,,,,,,,,,,,,masks/mask_005.jpg,,,,,,,,,,,,,,,,,,,,,,,,,,,,,,,,,,,,,,,,,,,,,,,,0,0,0,4,1,,,,,,,,,,,,,,,,,,,,,,,,,,,,,,,,,,,,,,,,,
924159,001,2022-11-20_18h00.57.142,Info_measure_main_exp,2022.2.2,Win32,59.89099838,,,,,,,,,,,,,,,,,,masks/mask_001.jpg,,,,,,,,,,,,,,,,,,,,,,,,,,,,,,,,,,,,,,,,,,,,,,,,0,1,1,0,1,,,,,,,,,,,,,,,,,,,,,,,,,,,,,,,,,,,,,,,,,
924159,001,2022-11-20_18h00.57.142,Info_measure_main_exp,2022.2.2,Win32,59.89099838,,,,,,,,,,,,,,,,,,masks/mask_004.jpg,,,,,,,,,,,,,,,,,,,,,,,,,,,,,,,,,,,,,,,,,,,,,,,,0,2,2,3,1,,,,,,,,,,,,,,,,,,,,,,,,,,,,,,,,,,,,,,,,,
924159,001,2022-11-20_18h00.57.142,Info_measure_main_exp,2022.2.2,Win32,59.89099838,,,,,,,,,,,,,,,,,,masks/mask_002.jpg,,,,,,,,,,,,,,,,,,,,,,,,,,,,,,,,,,,,,,,,,,,,,,,,0,3,3,1,1,,,,,,,,,,,,,,,,,,,,,,,,,,,,,,,,,,,,,,,,,
924159,001,2022-11-20_18h00.57.142,Info_measure_main_exp,2022.2.2,Win32,59.89099838,,,,,,,,,,,,,,,,,,masks/mask_003.jpg,,,,,,,,,,,,,,,,,,,,,,,,,,,,,,,,,,,,,,,,,,,,,,,,0,4,4,2,1,,,,,,,,,,,,,,,,,,,,,,,,,,,,,,,,,,,,,,,,,
924159,001,2022-11-20_18h00.57.142,Info_measure_main_exp,2022.2.2,Win32,59.89099838,,,,,,,,,,,,,,,,,,,,,,,,,,,,,,6,0.9171,1,,,,,,,,,,,,0,131,5,5,1974,2142,absent_patch/patch0001974.jpg,absent_patch/patch0002142.jpg,,,,,,,,,,,,,,,,,,,,0.150925954,0.078703704,1,0,0,response1disk,33,-0.000925912,0.003703683,1,0,0,center_square,0,32,32,38,1,,,,,,,,,,,,,,,,,,,,,,,
924159,001,2022-11-20_18h00.57.142,Info_measure_main_exp,2022.2.2,Win32,59.89099838,,,,,,,,,,,,,,,,,,masks/mask_004.jpg,,,,,,,,,,,,,,,,,,,,,,,,,,,,,,,,,,,,,,,,,,,0,0,0,3,1,,,,,,,,,,,,,,,,,,,,,,,,,,,,,,,,,,,,,,,,,,,,,,
924159,001,2022-11-20_18h00.57.142,Info_measure_main_exp,2022.2.2,Win32,59.89099838,,,,,,,,,,,,,,,,,,masks/mask_002.jpg,,,,,,,,,,,,,,,,,,,,,,,,,,,,,,,,,,,,,,,,,,,0,1,1,1,1,,,,,,,,,,,,,,,,,,,,,,,,,,,,,,,,,,,,,,,,,,,,,,
924159,001,2022-11-20_18h00.57.142,Info_measure_main_exp,2022.2.2,Win32,59.89099838,,,,,,,,,,,,,,,,,,masks/mask_003.jpg,,,,,,,,,,,,,,,,,,,,,,,,,,,,,,,,,,,,,,,,,,,0,2,2,2,1,,,,,,,,,,,,,,,,,,,,,,,,,,,,,,,,,,,,,,,,,,,,,,
924159,001,2022-11-20_18h00.57.142,Info_measure_main_exp,2022.2.2,Win32,59.89099838,,,,,,,,,,,,,,,,,,masks/mask_005.jpg,,,,,,,,,,,,,,,,,,,,,,,,,,,,,,,,,,,,,,,,,,,0,3,3,4,1,,,,,,,,,,,,,,,,,,,,,,,,,,,,,,,,,,,,,,,,,,,,,,
924159,001,2022-11-20_18h00.57.142,Info_measure_main_exp,2022.2.2,Win32,59.89099838,,,,,,,,,,,,,,,,,,masks/mask_001.jpg,,,,,,,,,,,,,,,,,,,,,,,,,,,,,,,,,,,,,,,,,,,0,4,4,0,1,,,,,,,,,,,,,,,,,,,,,,,,,,,,,,,,,,,,,,,,,,,,,,
924159,001,2022-11-20_18h00.57.142,Info_measure_main_exp,2022.2.2,Win32,59.89099838,,,,,,,,,,,,,,,,,,masks/mask_003.jpg,,,,,,,,,,,,,,,,,,,,,,,,,,,,,,,,,,,,,,,,,,,,,,,,0,0,0,2,1,,,,,,,,,,,,,,,,,,,,,,,,,,,,,,,,,,,,,,,,,
924159,001,2022-11-20_18h00.57.142,Info_measure_main_exp,2022.2.2,Win32,59.89099838,,,,,,,,,,,,,,,,,,masks/mask_005.jpg,,,,,,,,,,,,,,,,,,,,,,,,,,,,,,,,,,,,,,,,,,,,,,,,0,1,1,4,1,,,,,,,,,,,,,,,,,,,,,,,,,,,,,,,,,,,,,,,,,
924159,001,2022-11-20_18h00.57.142,Info_measure_main_exp,2022.2.2,Win32,59.89099838,,,,,,,,,,,,,,,,,,masks/mask_002.jpg,,,,,,,,,,,,,,,,,,,,,,,,,,,,,,,,,,,,,,,,,,,,,,,,0,2,2,1,1,,,,,,,,,,,,,,,,,,,,,,,,,,,,,,,,,,,,,,,,,
924159,001,2022-11-20_18h00.57.142,Info_measure_main_exp,2022.2.2,Win32,59.89099838,,,,,,,,,,,,,,,,,,masks/mask_004.jpg,,,,,,,,,,,,,,,,,,,,,,,,,,,,,,,,,,,,,,,,,,,,,,,,0,3,3,3,1,,,,,,,,,,,,,,,,,,,,,,,,,,,,,,,,,,,,,,,,,
924159,001,2022-11-20_18h00.57.142,Info_measure_main_exp,2022.2.2,Win32,59.89099838,,,,,,,,,,,,,,,,,,masks/mask_001.jpg,,,,,,,,,,,,,,,,,,,,,,,,,,,,,,,,,,,,,,,,,,,,,,,,0,4,4,0,1,,,,,,,,,,,,,,,,,,,,,,,,,,,,,,,,,,,,,,,,,
924159,001,2022-11-20_18h00.57.142,Info_measure_main_exp,2022.2.2,Win32,59.89099838,,,,,,,,,,,,,,,,,,,,,,,,,,,,,,6,1.9322,1,,,,,,,,,,,,0,131,5,5,2298,2142,absent_patch/patch0002298.jpg,absent_patch/patch0002142.jpg,,,,,,,,,,,,,,,,,,,,0.113888917,0.053703697,1,0,0,response1disk,34,0.00462963,-0.003703718,1,0,0,center_square,0,33,33,49,1,,,,,,,,,,,,,,,,,,,,,,,
924159,001,2022-11-20_18h00.57.142,Info_measure_main_exp,2022.2.2,Win32,59.89099838,,,,,,,,,,,,,,,,,,masks/mask_005.jpg,,,,,,,,,,,,,,,,,,,,,,,,,,,,,,,,,,,,,,,,,,,0,0,0,4,1,,,,,,,,,,,,,,,,,,,,,,,,,,,,,,,,,,,,,,,,,,,,,,
924159,001,2022-11-20_18h00.57.142,Info_measure_main_exp,2022.2.2,Win32,59.89099838,,,,,,,,,,,,,,,,,,masks/mask_001.jpg,,,,,,,,,,,,,,,,,,,,,,,,,,,,,,,,,,,,,,,,,,,0,1,1,0,1,,,,,,,,,,,,,,,,,,,,,,,,,,,,,,,,,,,,,,,,,,,,,,
924159,001,2022-11-20_18h00.57.142,Info_measure_main_exp,2022.2.2,Win32,59.89099838,,,,,,,,,,,,,,,,,,masks/mask_004.jpg,,,,,,,,,,,,,,,,,,,,,,,,,,,,,,,,,,,,,,,,,,,0,2,2,3,1,,,,,,,,,,,,,,,,,,,,,,,,,,,,,,,,,,,,,,,,,,,,,,
924159,001,2022-11-20_18h00.57.142,Info_measure_main_exp,2022.2.2,Win32,59.89099838,,,,,,,,,,,,,,,,,,masks/mask_002.jpg,,,,,,,,,,,,,,,,,,,,,,,,,,,,,,,,,,,,,,,,,,,0,3,3,1,1,,,,,,,,,,,,,,,,,,,,,,,,,,,,,,,,,,,,,,,,,,,,,,
924159,001,2022-11-20_18h00.57.142,Info_measure_main_exp,2022.2.2,Win32,59.89099838,,,,,,,,,,,,,,,,,,masks/mask_003.jpg,,,,,,,,,,,,,,,,,,,,,,,,,,,,,,,,,,,,,,,,,,,0,4,4,2,1,,,,,,,,,,,,,,,,,,,,,,,,,,,,,,,,,,,,,,,,,,,,,,
924159,001,2022-11-20_18h00.57.142,Info_measure_main_exp,2022.2.2,Win32,59.89099838,,,,,,,,,,,,,,,,,,masks/mask_005.jpg,,,,,,,,,,,,,,,,,,,,,,,,,,,,,,,,,,,,,,,,,,,,,,,,0,0,0,4,1,,,,,,,,,,,,,,,,,,,,,,,,,,,,,,,,,,,,,,,,,
924159,001,2022-11-20_18h00.57.142,Info_measure_main_exp,2022.2.2,Win32,59.89099838,,,,,,,,,,,,,,,,,,masks/mask_004.jpg,,,,,,,,,,,,,,,,,,,,,,,,,,,,,,,,,,,,,,,,,,,,,,,,0,1,1,3,1,,,,,,,,,,,,,,,,,,,,,,,,,,,,,,,,,,,,,,,,,
924159,001,2022-11-20_18h00.57.142,Info_measure_main_exp,2022.2.2,Win32,59.89099838,,,,,,,,,,,,,,,,,,masks/mask_001.jpg,,,,,,,,,,,,,,,,,,,,,,,,,,,,,,,,,,,,,,,,,,,,,,,,0,2,2,0,1,,,,,,,,,,,,,,,,,,,,,,,,,,,,,,,,,,,,,,,,,
924159,001,2022-11-20_18h00.57.142,Info_measure_main_exp,2022.2.2,Win32,59.89099838,,,,,,,,,,,,,,,,,,masks/mask_003.jpg,,,,,,,,,,,,,,,,,,,,,,,,,,,,,,,,,,,,,,,,,,,,,,,,0,3,3,2,1,,,,,,,,,,,,,,,,,,,,,,,,,,,,,,,,,,,,,,,,,
