Pair_type,Image_num,Patch_1_loc,Patch_2_loc,Patch_1_info,Patch_2_info,Patch_1_name,Patch_2_name,mask_name,prac_loop.thisRepN,prac_loop.thisTrialN,prac_loop.thisN,prac_loop.thisIndex,prac_mask_loop_1.thisRepN,prac_mask_loop_1.thisTrialN,prac_mask_loop_1.thisN,prac_mask_loop_1.thisIndex,prac_mask_loop_2.thisRepN,prac_mask_loop_2.thisTrialN,prac_mask_loop_2.thisN,prac_mask_loop_2.thisIndex,first_pass_loop.thisRepN,first_pass_loop.thisTrialN,first_pass_loop.thisN,first_pass_loop.thisIndex,mask_loop.thisRepN,mask_loop.thisTrialN,mask_loop.thisN,mask_loop.thisIndex,mask_loop_2.thisRepN,mask_loop_2.thisTrialN,mask_loop_2.thisN,mask_loop_2.thisIndex,instruction_1_text.started,all_patches.started,space_press_continue.started,press_space_continue.started,Esc_exit.started,space_press_continue.keys,space_press_continue.rt,patch_1_movie.started,space_press_continue_2.started,Esc_exit_2.started,space_press_continue_2.keys,space_press_continue_2.rt,patch_2_movie.started,space_press_continue_3.started,Esc_exit_3.started,space_press_continue_3.keys,space_press_continue_3.rt,instruction_text_4.started,use_all_numbers.started,response_screen_intr.started,space_press_continue_4.started,space_continue_low.started,Esc_exit_4.started,space_press_continue_4.keys,space_press_continue_4.rt,instruction_text_5.started,response_screen_after.started,space_press_continue_5.started,space_continue_low_2.started,Esc_exit_5.started,space_press_continue_5.keys,space_press_continue_5.rt,prac_begin_space.started,space_press_continue_6.started,Esc_exit_6.started,space_press_continue_6.keys,space_press_continue_6.rt,Esc_exit_13.started,practice_patch_1.started,practice_patch_1.stopped,Esc_exit_13.stopped,Esc_exit_14.started,Esc_exit_12.started,practice_patch_2.started,practice_patch_2.stopped,Esc_exit_12.stopped,mouse_2.started,text.started,most_similar_3.started,most_different_3.started,Esc_exit_7.started,mouse_2.x,mouse_2.y,mouse_2.leftButton,mouse_2.midButton,mouse_2.rightButton,mouse_2.clicked_name,similarity,response_time,Pass,text_55.started,text_56.started,Esc_exit_8.started,text_55.stopped,text_56.stopped,Esc_exit_8.stopped,mouse_12.started,most_similar_4.started,most_different_4.started,Esc_exit_9.started,mouse_12.x,mouse_12.y,mouse_12.leftButton,mouse_12.midButton,mouse_12.rightButton,mouse_12.clicked_name,Esc_exit_15.started,space_press_continue_7.started,mouse_1.x,mouse_1.y,mouse_1.leftButton,mouse_1.midButton,mouse_1.rightButton,mouse_1.time,mouse_1.clicked_name,space_press_continue_7.keys,space_press_continue_7.rt,Esc_exit_16.started,first_patch.started,first_patch.stopped,Esc_exit_16.stopped,Esc_exit_17.started,second_patch.started,second_patch.stopped,Esc_exit_17.stopped,mouse.started,text_23.started,most_similar.started,most_different.started,Esc_exit_10.started,mouse.x,mouse.y,mouse.leftButton,mouse.midButton,mouse.rightButton,mouse.clicked_name,trialNumber,mouse_11.started,most_similar_2.started,most_different_2.started,trial_text_2.started,Esc_exit_11.started,mouse_11.x,mouse_11.y,mouse_11.leftButton,mouse_11.midButton,mouse_11.rightButton,mouse_11.clicked_name,participant,session,date,expName,psychopyVersion,frameRate,
,,,,,,,,,,,,,,,,,,,,,,,,,,,,,,,,,24.2336482959945,24.2336482959945,24.2336482959945,24.2336482959945,24.2336482959945,space,1.0135516820009798,,,,,,,,,,,,,,,,,,,,,,,,,,,,,,,,,,,,,,,,,,,,,,,,,,,,,,,,,,,,,,,,,,,,,,,,,,,,,,,,,,,,,,,,,,,,,,,,,,,,,,,,,,,,,,,,929313,001,2023-01-27_14h53.59.190,Info_measure_main_exp,2022.2.4,60.04976143687002,
,,,,,,,,,,,,,,,,,,,,,,,,,,,,,,,,,,,,,,,,26.300461455000914,26.300461455000914,26.300461455000914,space,1.120795964001445,,,,,,,,,,,,,,,,,,,,,,,,,,,,,,,,,,,,,,,,,,,,,,,,,,,,,,,,,,,,,,,,,,,,,,,,,,,,,,,,,,,,,,,,,,,,,,,,,,,,,,,,,,,929313,001,2023-01-27_14h53.59.190,Info_measure_main_exp,2022.2.4,60.04976143687002,
,,,,,,,,,,,,,,,,,,,,,,,,,,,,,,,,,,,,,,,,,,,,,28.047652470995672,28.047652470995672,28.047652470995672,space,0.6804643229988869,,,,,,,,,,,,,,,,,,,,,,,,,,,,,,,,,,,,,,,,,,,,,,,,,,,,,,,,,,,,,,,,,,,,,,,,,,,,,,,,,,,,,,,,,,,,,,,,,,,,,,929313,001,2023-01-27_14h53.59.190,Info_measure_main_exp,2022.2.4,60.04976143687002,
,,,,,,,,,,,,,,,,,,,,,,,,,,,,,,,,,,,,,,,,,,,,,,,,,,28.791281646990683,28.791281646990683,28.791281646990683,28.791281646990683,28.791281646990683,28.791281646990683,space,0.5403229630028363,,,,,,,,,,,,,,,,,,,,,,,,,,,,,,,,,,,,,,,,,,,,,,,,,,,,,,,,,,,,,,,,,,,,,,,,,,,,,,,,,,,,,,,,,,,,,,929313,001,2023-01-27_14h53.59.190,Info_measure_main_exp,2022.2.4,60.04976143687002,
,,,,,,,,,,,,,,,,,,,,,,,,,,,,,,,,,,,,,,,,,,,,,,,,,,,,,,,,,,29.35641384999326,29.35641384999326,29.35641384999326,29.35641384999326,29.35641384999326,space,0.39726336499734316,,,,,,,,,,,,,,,,,,,,,,,,,,,,,,,,,,,,,,,,,,,,,,,,,,,,,,,,,,,,,,,,,,,,,,,,,,,,,,,,,,,,,,,929313,001,2023-01-27_14h53.59.190,Info_measure_main_exp,2022.2.4,60.04976143687002,
,,,,,,,,,,,,,,,,,,,,,,,,,,,,,,,,,,,,,,,,,,,,,,,,,,,,,,,,,,,,,,,,,29.785142780994647,29.785142780994647,29.785142780994647,space,0.4941895160009153,,,,,,,,,,,,,,,,,,,,,,,,,,,,,,,,,,,,,,,,,,,,,,,,,,,,,,,,,,,,,,,,,,,,,,,,,,,,,,,,,,929313,001,2023-01-27_14h53.59.190,Info_measure_main_exp,2022.2.4,60.04976143687002,
0,131,5,5,2526,2526,prac_patch/patch0002526.jpg,prac_patch/patch0002526.jpg,masks/mask_003.jpg,0,0,0,2,0,0,0,2,,,,,,,,,,,,,,,,,,,,,,,,,,,,,,,,,,,,,,,,,,,,,,,,,,,,,,30.3406163109903,30.812933387991507,30.97561792700435,31.009314173992607,31.009314173992607,,,,,,,,,,,,,,,,,,,,,,,,,,,,,,,,,,,,,,,,,,,,,,,,,,,,,,,,,,,,,,,,,,,,,,,,,,,,,929313,001,2023-01-27_14h53.59.190,Info_measure_main_exp,2022.2.4,60.04976143687002,
0,131,5,5,2526,2526,prac_patch/patch0002526.jpg,prac_patch/patch0002526.jpg,masks/mask_005.jpg,0,0,0,2,0,1,1,4,,,,,,,,,,,,,,,,,,,,,,,,,,,,,,,,,,,,,,,,,,,,,,,,,,,,,,,,,,31.06522395099455,,,,,,,,,,,,,,,,,,,,,,,,,,,,,,,,,,,,,,,,,,,,,,,,,,,,,,,,,,,,,,,,,,,,,,,,,,,,,929313,001,2023-01-27_14h53.59.190,Info_measure_main_exp,2022.2.4,60.04976143687002,
0,131,5,5,2526,2526,prac_patch/patch0002526.jpg,prac_patch/patch0002526.jpg,masks/mask_002.jpg,0,0,0,2,0,2,2,1,,,,,,,,,,,,,,,,,,,,,,,,,,,,,,,,,,,,,,,,,,,,,,,,,,,,,,,,,,31.11813272499421,,,,,,,,,,,,,,,,,,,,,,,,,,,,,,,,,,,,,,,,,,,,,,,,,,,,,,,,,,,,,,,,,,,,,,,,,,,,,929313,001,2023-01-27_14h53.59.190,Info_measure_main_exp,2022.2.4,60.04976143687002,
0,131,5,5,2526,2526,prac_patch/patch0002526.jpg,prac_patch/patch0002526.jpg,masks/mask_004.jpg,0,0,0,2,0,3,3,3,,,,,,,,,,,,,,,,,,,,,,,,,,,,,,,,,,,,,,,,,,,,,,,,,,,,,,,,,,31.18682841399277,,,,,,,,,,,,,,,,,,,,,,,,,,,,,,,,,,,,,,,,,,,,,,,,,,,,,,,,,,,,,,,,,,,,,,,,,,,,,929313,001,2023-01-27_14h53.59.190,Info_measure_main_exp,2022.2.4,60.04976143687002,
0,131,5,5,2526,2526,prac_patch/patch0002526.jpg,prac_patch/patch0002526.jpg,masks/mask_001.jpg,0,0,0,2,0,4,4,0,,,,,,,,,,,,,,,,,,,,,,,,,,,,,,,,,,,,,,,,,,,,,,,,,,,,,,,,,,31.238498719991185,,,,,,,,,,,,,,,,,,,,,,,,,,,,,,,,,,,,,,,,,,,,,,,,,,,,,,,,,,,,,,,,,,,,,,,,,,,,,929313,001,2023-01-27_14h53.59.190,Info_measure_main_exp,2022.2.4,60.04976143687002,
0,131,5,5,2526,2526,prac_patch/patch0002526.jpg,prac_patch/patch0002526.jpg,masks/mask_003.jpg,0,0,0,2,,,,,0,0,0,2,,,,,,,,,,,,,,,,,,,,,,,,,,,,,,,,,,,,,,,,,,,,,,,,,,,,,,31.97196105499461,31.301037195997196,31.79295668999839,31.97196105499461,31.97196105499461,,,,,,,,,,,,,,,,,,,,,,,,,,,,,,,,,,,,,,,,,,,,,,,,,,,,,,,,,,,,,,,,,,,,,,,,,929313,001,2023-01-27_14h53.59.190,Info_measure_main_exp,2022.2.4,60.04976143687002,
0,131,5,5,2526,2526,prac_patch/patch0002526.jpg,prac_patch/patch0002526.jpg,masks/mask_002.jpg,0,0,0,2,,,,,0,1,1,1,,,,,,,,,,,,,,,,,,,,,,,,,,,,,,,,,,,,,,,,,,,,,,,,,,,,,,32.035849990992574,,,,,,,,,,,,,,,,,,,,,,,,,,,,,,,,,,,,,,,,,,,,,,,,,,,,,,,,,,,,,,,,,,,,,,,,,,,,,929313,001,2023-01-27_14h53.59.190,Info_measure_main_exp,2022.2.4,60.04976143687002,
0,131,5,5,2526,2526,prac_patch/patch0002526.jpg,prac_patch/patch0002526.jpg,masks/mask_004.jpg,0,0,0,2,,,,,0,2,2,3,,,,,,,,,,,,,,,,,,,,,,,,,,,,,,,,,,,,,,,,,,,,,,,,,,,,,,32.086024358999566,,,,,,,,,,,,,,,,,,,,,,,,,,,,,,,,,,,,,,,,,,,,,,,,,,,,,,,,,,,,,,,,,,,,,,,,,,,,,929313,001,2023-01-27_14h53.59.190,Info_measure_main_exp,2022.2.4,60.04976143687002,
0,131,5,5,2526,2526,prac_patch/patch0002526.jpg,prac_patch/patch0002526.jpg,masks/mask_001.jpg,0,0,0,2,,,,,0,3,3,0,,,,,,,,,,,,,,,,,,,,,,,,,,,,,,,,,,,,,,,,,,,,,,,,,,,,,,32.15226393399644,,,,,,,,,,,,,,,,,,,,,,,,,,,,,,,,,,,,,,,,,,,,,,,,,,,,,,,,,,,,,,,,,,,,,,,,,,,,,929313,001,2023-01-27_14h53.59.190,Info_measure_main_exp,2022.2.4,60.04976143687002,
0,131,5,5,2526,2526,prac_patch/patch0002526.jpg,prac_patch/patch0002526.jpg,masks/mask_005.jpg,0,0,0,2,,,,,0,4,4,4,,,,,,,,,,,,,,,,,,,,,,,,,,,,,,,,,,,,,,,,,,,,,,,,,,,,,,32.21804612300184,,,,,,,,,,,,,,,,,,,,,,,,,,,,,,,,,,,,,,,,,,,,,,,,,,,,,,,,,,,,,,,,,,,,,,,,,,,,,929313,001,2023-01-27_14h53.59.190,Info_measure_main_exp,2022.2.4,60.04976143687002,
0,131,5,5,2526,2526,prac_patch/patch0002526.jpg,prac_patch/patch0002526.jpg,,0,0,0,2,,,,,,,,,,,,,,,,,,,,,,,,,,,,,,,,,,,,,,,,,,,,,,,,,,,,,,,,,,,,,,,,,,,0.006416333009838127,32.27741199800221,32.27741199800221,32.27741199800221,32.27741199800221,-0.08444444444444445,0.42,1,0,0,response7disk,0,9.398305347989663,1,33.08611006599676,33.08611006599676,33.08611006599676,37.11937333700189,37.11937333700189,37.11937333700189,0.00011805599206127226,37.11937333700189,37.11937333700189,37.11937333700189,-0.014444444444444444,-0.028888888888888888,1,0,0,center_square,,,,,,,,,,,,,,,,,,,,,,,,,,,,,,,,,,,,,,,,,,,929313,001,2023-01-27_14h53.59.190,Info_measure_main_exp,2022.2.4,60.04976143687002,
0,131,5,5,2514,2490,prac_patch/patch0002514.jpg,prac_patch/patch0002490.jpg,masks/mask_001.jpg,0,1,1,1,0,0,0,0,,,,,,,,,,,,,,,,,,,,,,,,,,,,,,,,,,,,,,,,,,,,,,,,,,,,,,38.725623470003484,39.21103958199092,39.39336413500132,39.39336413500132,39.39336413500132,,,,,,,,,,,,,,,,,,,,,,,,,,,,,,,,,,,,,,,,,,,,,,,,,,,,,,,,,,,,,,,,,,,,,,,,,,,,,929313,001,2023-01-27_14h53.59.190,Info_measure_main_exp,2022.2.4,60.04976143687002,
0,131,5,5,2514,2490,prac_patch/patch0002514.jpg,prac_patch/patch0002490.jpg,masks/mask_004.jpg,0,1,1,1,0,1,1,3,,,,,,,,,,,,,,,,,,,,,,,,,,,,,,,,,,,,,,,,,,,,,,,,,,,,,,,,,,39.45101998699829,,,,,,,,,,,,,,,,,,,,,,,,,,,,,,,,,,,,,,,,,,,,,,,,,,,,,,,,,,,,,,,,,,,,,,,,,,,,,929313,001,2023-01-27_14h53.59.190,Info_measure_main_exp,2022.2.4,60.04976143687002,
0,131,5,5,2514,2490,prac_patch/patch0002514.jpg,prac_patch/patch0002490.jpg,masks/mask_003.jpg,0,1,1,1,0,2,2,2,,,,,,,,,,,,,,,,,,,,,,,,,,,,,,,,,,,,,,,,,,,,,,,,,,,,,,,,,,39.51961550199485,,,,,,,,,,,,,,,,,,,,,,,,,,,,,,,,,,,,,,,,,,,,,,,,,,,,,,,,,,,,,,,,,,,,,,,,,,,,,929313,001,2023-01-27_14h53.59.190,Info_measure_main_exp,2022.2.4,60.04976143687002,
0,131,5,5,2514,2490,prac_patch/patch0002514.jpg,prac_patch/patch0002490.jpg,masks/mask_005.jpg,0,1,1,1,0,3,3,4,,,,,,,,,,,,,,,,,,,,,,,,,,,,,,,,,,,,,,,,,,,,,,,,,,,,,,,,,,39.57668189199467,,,,,,,,,,,,,,,,,,,,,,,,,,,,,,,,,,,,,,,,,,,,,,,,,,,,,,,,,,,,,,,,,,,,,,,,,,,,,929313,001,2023-01-27_14h53.59.190,Info_measure_main_exp,2022.2.4,60.04976143687002,
0,131,5,5,2514,2490,prac_patch/patch0002514.jpg,prac_patch/patch0002490.jpg,masks/mask_002.jpg,0,1,1,1,0,4,4,1,,,,,,,,,,,,,,,,,,,,,,,,,,,,,,,,,,,,,,,,,,,,,,,,,,,,,,,,,,39.63074891100405,,,,,,,,,,,,,,,,,,,,,,,,,,,,,,,,,,,,,,,,,,,,,,,,,,,,,,,,,,,,,,,,,,,,,,,,,,,,,929313,001,2023-01-27_14h53.59.190,Info_measure_main_exp,2022.2.4,60.04976143687002,
0,131,5,5,2514,2490,prac_patch/patch0002514.jpg,prac_patch/patch0002490.jpg,masks/mask_001.jpg,0,1,1,1,,,,,0,0,0,0,,,,,,,,,,,,,,,,,,,,,,,,,,,,,,,,,,,,,,,,,,,,,,,,,,,,,,40.36297244699381,39.682436845003394,40.1755634759902,40.325965915995766,40.36297244699381,,,,,,,,,,,,,,,,,,,,,,,,,,,,,,,,,,,,,,,,,,,,,,,,,,,,,,,,,,,,,,,,,,,,,,,,,929313,001,2023-01-27_14h53.59.190,Info_measure_main_exp,2022.2.4,60.04976143687002,
0,131,5,5,2514,2490,prac_patch/patch0002514.jpg,prac_patch/patch0002490.jpg,masks/mask_002.jpg,0,1,1,1,,,,,0,1,1,1,,,,,,,,,,,,,,,,,,,,,,,,,,,,,,,,,,,,,,,,,,,,,,,,,,,,,,40.41796290199272,,,,,,,,,,,,,,,,,,,,,,,,,,,,,,,,,,,,,,,,,,,,,,,,,,,,,,,,,,,,,,,,,,,,,,,,,,,,,929313,001,2023-01-27_14h53.59.190,Info_measure_main_exp,2022.2.4,60.04976143687002,
0,131,5,5,2514,2490,prac_patch/patch0002514.jpg,prac_patch/patch0002490.jpg,masks/mask_005.jpg,0,1,1,1,,,,,0,2,2,4,,,,,,,,,,,,,,,,,,,,,,,,,,,,,,,,,,,,,,,,,,,,,,,,,,,,,,40.47395538899582,,,,,,,,,,,,,,,,,,,,,,,,,,,,,,,,,,,,,,,,,,,,,,,,,,,,,,,,,,,,,,,,,,,,,,,,,,,,,929313,001,2023-01-27_14h53.59.190,Info_measure_main_exp,2022.2.4,60.04976143687002,
0,131,5,5,2514,2490,prac_patch/patch0002514.jpg,prac_patch/patch0002490.jpg,masks/mask_003.jpg,0,1,1,1,,,,,0,3,3,2,,,,,,,,,,,,,,,,,,,,,,,,,,,,,,,,,,,,,,,,,,,,,,,,,,,,,,40.531602189992554,,,,,,,,,,,,,,,,,,,,,,,,,,,,,,,,,,,,,,,,,,,,,,,,,,,,,,,,,,,,,,,,,,,,,,,,,,,,,929313,001,2023-01-27_14h53.59.190,Info_measure_main_exp,2022.2.4,60.04976143687002,
0,131,5,5,2514,2490,prac_patch/patch0002514.jpg,prac_patch/patch0002490.jpg,masks/mask_004.jpg,0,1,1,1,,,,,0,4,4,3,,,,,,,,,,,,,,,,,,,,,,,,,,,,,,,,,,,,,,,,,,,,,,,,,,,,,,40.60720759599644,,,,,,,,,,,,,,,,,,,,,,,,,,,,,,,,,,,,,,,,,,,,,,,,,,,,,,,,,,,,,,,,,,,,,,,,,,,,,929313,001,2023-01-27_14h53.59.190,Info_measure_main_exp,2022.2.4,60.04976143687002,
0,131,5,5,2514,2490,prac_patch/patch0002514.jpg,prac_patch/patch0002490.jpg,,0,1,1,1,,,,,,,,,,,,,,,,,,,,,,,,,,,,,,,,,,,,,,,,,,,,,,,,,,,,,,,,,,,,,,,,,,,0.01610043201071676,40.66291073299362,40.66291073299362,40.66291073299362,40.66291073299362,0.22777777777777777,-0.15777777777777777,1,0,0,response3disk,5,17.875651173992082,1,41.5536056169949,41.5536056169949,41.5536056169949,45.5671425210021,45.5671425210021,45.5671425210021,6.136999581940472e-05,45.5671425210021,45.5671425210021,45.5671425210021,-0.02666666666666667,0.0044444444444444444,1,0,0,center_square,,,,,,,,,,,,,,,,,,,,,,,,,,,,,,,,,,,,,,,,,,,929313,001,2023-01-27_14h53.59.190,Info_measure_main_exp,2022.2.4,60.04976143687002,
0,131,5,5,2370,2406,prac_patch/patch0002370.jpg,prac_patch/patch0002406.jpg,masks/mask_005.jpg,0,2,2,0,0,0,0,4,,,,,,,,,,,,,,,,,,,,,,,,,,,,,,,,,,,,,,,,,,,,,,,,,,,,,,47.21964854899852,47.72121660799894,47.909347993991105,47.909347993991105,47.909347993991105,,,,,,,,,,,,,,,,,,,,,,,,,,,,,,,,,,,,,,,,,,,,,,,,,,,,,,,,,,,,,,,,,,,,,,,,,,,,,929313,001,2023-01-27_14h53.59.190,Info_measure_main_exp,2022.2.4,60.04976143687002,
0,131,5,5,2370,2406,prac_patch/patch0002370.jpg,prac_patch/patch0002406.jpg,masks/mask_003.jpg,0,2,2,0,0,1,1,2,,,,,,,,,,,,,,,,,,,,,,,,,,,,,,,,,,,,,,,,,,,,,,,,,,,,,,,,,,47.966578835999826,,,,,,,,,,,,,,,,,,,,,,,,,,,,,,,,,,,,,,,,,,,,,,,,,,,,,,,,,,,,,,,,,,,,,,,,,,,,,929313,001,2023-01-27_14h53.59.190,Info_measure_main_exp,2022.2.4,60.04976143687002,
0,131,5,5,2370,2406,prac_patch/patch0002370.jpg,prac_patch/patch0002406.jpg,masks/mask_002.jpg,0,2,2,0,0,2,2,1,,,,,,,,,,,,,,,,,,,,,,,,,,,,,,,,,,,,,,,,,,,,,,,,,,,,,,,,,,48.02762864599936,,,,,,,,,,,,,,,,,,,,,,,,,,,,,,,,,,,,,,,,,,,,,,,,,,,,,,,,,,,,,,,,,,,,,,,,,,,,,929313,001,2023-01-27_14h53.59.190,Info_measure_main_exp,2022.2.4,60.04976143687002,
0,131,5,5,2370,2406,prac_patch/patch0002370.jpg,prac_patch/patch0002406.jpg,masks/mask_001.jpg,0,2,2,0,0,3,3,0,,,,,,,,,,,,,,,,,,,,,,,,,,,,,,,,,,,,,,,,,,,,,,,,,,,,,,,,,,48.08711619999667,,,,,,,,,,,,,,,,,,,,,,,,,,,,,,,,,,,,,,,,,,,,,,,,,,,,,,,,,,,,,,,,,,,,,,,,,,,,,929313,001,2023-01-27_14h53.59.190,Info_measure_main_exp,2022.2.4,60.04976143687002,
0,131,5,5,2370,2406,prac_patch/patch0002370.jpg,prac_patch/patch0002406.jpg,masks/mask_004.jpg,0,2,2,0,0,4,4,3,,,,,,,,,,,,,,,,,,,,,,,,,,,,,,,,,,,,,,,,,,,,,,,,,,,,,,,,,,48.14455375900434,,,,,,,,,,,,,,,,,,,,,,,,,,,,,,,,,,,,,,,,,,,,,,,,,,,,,,,,,,,,,,,,,,,,,,,,,,,,,929313,001,2023-01-27_14h53.59.190,Info_measure_main_exp,2022.2.4,60.04976143687002,
0,131,5,5,2370,2406,prac_patch/patch0002370.jpg,prac_patch/patch0002406.jpg,masks/mask_004.jpg,0,2,2,0,,,,,0,0,0,3,,,,,,,,,,,,,,,,,,,,,,,,,,,,,,,,,,,,,,,,,,,,,,,,,,,,,,48.88059983200219,48.19858547000331,48.6783966919902,48.82794905499031,48.88059983200219,,,,,,,,,,,,,,,,,,,,,,,,,,,,,,,,,,,,,,,,,,,,,,,,,,,,,,,,,,,,,,,,,,,,,,,,,929313,001,2023-01-27_14h53.59.190,Info_measure_main_exp,2022.2.4,60.04976143687002,
0,131,5,5,2370,2406,prac_patch/patch0002370.jpg,prac_patch/patch0002406.jpg,masks/mask_002.jpg,0,2,2,0,,,,,0,1,1,1,,,,,,,,,,,,,,,,,,,,,,,,,,,,,,,,,,,,,,,,,,,,,,,,,,,,,,48.935758748004446,,,,,,,,,,,,,,,,,,,,,,,,,,,,,,,,,,,,,,,,,,,,,,,,,,,,,,,,,,,,,,,,,,,,,,,,,,,,,929313,001,2023-01-27_14h53.59.190,Info_measure_main_exp,2022.2.4,60.04976143687002,
0,131,5,5,2370,2406,prac_patch/patch0002370.jpg,prac_patch/patch0002406.jpg,masks/mask_005.jpg,0,2,2,0,,,,,0,2,2,4,,,,,,,,,,,,,,,,,,,,,,,,,,,,,,,,,,,,,,,,,,,,,,,,,,,,,,48.9920972980035,,,,,,,,,,,,,,,,,,,,,,,,,,,,,,,,,,,,,,,,,,,,,,,,,,,,,,,,,,,,,,,,,,,,,,,,,,,,,929313,001,2023-01-27_14h53.59.190,Info_measure_main_exp,2022.2.4,60.04976143687002,
0,131,5,5,2370,2406,prac_patch/patch0002370.jpg,prac_patch/patch0002406.jpg,masks/mask_001.jpg,0,2,2,0,,,,,0,3,3,0,,,,,,,,,,,,,,,,,,,,,,,,,,,,,,,,,,,,,,,,,,,,,,,,,,,,,,49.065458215991384,,,,,,,,,,,,,,,,,,,,,,,,,,,,,,,,,,,,,,,,,,,,,,,,,,,,,,,,,,,,,,,,,,,,,,,,,,,,,929313,001,2023-01-27_14h53.59.190,Info_measure_main_exp,2022.2.4,60.04976143687002,
0,131,5,5,2370,2406,prac_patch/patch0002370.jpg,prac_patch/patch0002406.jpg,masks/mask_003.jpg,0,2,2,0,,,,,0,4,4,2,,,,,,,,,,,,,,,,,,,,,,,,,,,,,,,,,,,,,,,,,,,,,,,,,,,,,,49.12193366899737,,,,,,,,,,,,,,,,,,,,,,,,,,,,,,,,,,,,,,,,,,,,,,,,,,,,,,,,,,,,,,,,,,,,,,,,,,,,,929313,001,2023-01-27_14h53.59.190,Info_measure_main_exp,2022.2.4,60.04976143687002,
0,131,5,5,2370,2406,prac_patch/patch0002370.jpg,prac_patch/patch0002406.jpg,,0,2,2,0,,,,,,,,,,,,,,,,,,,,,,,,,,,,,,,,,,,,,,,,,,,,,,,,,,,,,,,,,,,,,,,,,,,0.012575657005072571,49.177411215991015,49.177411215991015,49.177411215991015,49.177411215991015,0.2922222222222222,-0.06888888888888889,1,0,0,response3disk,5,27.362127177999355,1,51.02014308600337,51.02014308600337,51.02014308600337,55.034719071001746,55.034719071001746,55.034719071001746,4.6558998292312026e-05,55.034719071001746,55.034719071001746,55.034719071001746,0.014444444444444444,-0.028888888888888888,1,0,0,center_square,,,,,,,,,,,,,,,,,,,,,,,,,,,,,,,,,,,,,,,,,,,929313,001,2023-01-27_14h53.59.190,Info_measure_main_exp,2022.2.4,60.04976143687002,
,,,,,,,,,,,,,,,,,,,,,,,,,,,,,,,,,,,,,,,,,,,,,,,,,,,,,,,,,,,,,,,,,,,,,,,,,,,,,,,,,,,,,,,,,,,,,,,,,,,,,,,,,,,,,56.38903792700148,56.38903792700148,[],[],[],[],[],[],[],,,,,,,,,,,,,,,,,,,,,,,,,,,,,,,,,,929313,001,2023-01-27_14h53.59.190,Info_measure_main_exp,2022.2.4,60.04976143687002,
,,,,,,,,,,,,,,,,,,,,,,,,,,,,,,,,,,,,,,,,,,,,,,,,,,,,,,,,,,,,,,,,,,,,,,,,,,,,,,,,,,,,,,,,,,,,,,,,,,,,,,,,,,,,,,,,,,,,,,space,1.8186613709985977,,,,,,,,,,,,,,,,,,,,,,,,,,,,,,,,929313,001,2023-01-27_14h53.59.190,Info_measure_main_exp,2022.2.4,60.04976143687002,
0,131,5,5,1995,2367,absent_patch/patch0001995.jpg,absent_patch/patch0002367.jpg,masks/mask_005.jpg,,,,,,,,,,,,,0,0,0,80,0,0,0,4,,,,,,,,,,,,,,,,,,,,,,,,,,,,,,,,,,,,,,,,,,,,,,59.10744242600049,,,,,,,,,,,,,,,,,,,,,,,,,,,,,,,,,,,,,,,,,,,,,,58.4268322459975,58.732731896001496,58.88426056900062,59.10744242600049,,,,,,,,,,,,,,,,,,,,,,,,,,,,929313,001,2023-01-27_14h53.59.190,Info_measure_main_exp,2022.2.4,60.04976143687002,
0,131,5,5,1995,2367,absent_patch/patch0001995.jpg,absent_patch/patch0002367.jpg,masks/mask_002.jpg,,,,,,,,,,,,,0,0,0,80,0,1,1,1,,,,,,,,,,,,,,,,,,,,,,,,,,,,,,,,,,,,,,,,,,,,,,59.16152977000456,,,,,,,,,,,,,,,,,,,,,,,,,,,,,,,,,,,,,,,,,,,,,,,,,,,,,,,,,,,,,,,,,,,,,,,,,,,,,929313,001,2023-01-27_14h53.59.190,Info_measure_main_exp,2022.2.4,60.04976143687002,
0,131,5,5,1995,2367,absent_patch/patch0001995.jpg,absent_patch/patch0002367.jpg,masks/mask_004.jpg,,,,,,,,,,,,,0,0,0,80,0,2,2,3,,,,,,,,,,,,,,,,,,,,,,,,,,,,,,,,,,,,,,,,,,,,,,59.23321559900069,,,,,,,,,,,,,,,,,,,,,,,,,,,,,,,,,,,,,,,,,,,,,,,,,,,,,,,,,,,,,,,,,,,,,,,,,,,,,929313,001,2023-01-27_14h53.59.190,Info_measure_main_exp,2022.2.4,60.04976143687002,
0,131,5,5,1995,2367,absent_patch/patch0001995.jpg,absent_patch/patch0002367.jpg,masks/mask_003.jpg,,,,,,,,,,,,,0,0,0,80,0,3,3,2,,,,,,,,,,,,,,,,,,,,,,,,,,,,,,,,,,,,,,,,,,,,,,59.28651499700209,,,,,,,,,,,,,,,,,,,,,,,,,,,,,,,,,,,,,,,,,,,,,,,,,,,,,,,,,,,,,,,,,,,,,,,,,,,,,929313,001,2023-01-27_14h53.59.190,Info_measure_main_exp,2022.2.4,60.04976143687002,
0,131,5,5,1995,2367,absent_patch/patch0001995.jpg,absent_patch/patch0002367.jpg,masks/mask_001.jpg,,,,,,,,,,,,,0,0,0,80,0,4,4,0,,,,,,,,,,,,,,,,,,,,,,,,,,,,,,,,,,,,,,,,,,,,,,59.33944956299092,,,,,,,,,,,,,,,,,,,,,,,,,,,,,,,,,,,,,,,,,,,,,,,,,,,,,,,,,,,,,,,,,,,,,,,,,,,,,929313,001,2023-01-27_14h53.59.190,Info_measure_main_exp,2022.2.4,60.04976143687002,
0,131,5,5,1995,2367,absent_patch/patch0001995.jpg,absent_patch/patch0002367.jpg,masks/mask_002.jpg,,,,,,,,,,,,,0,0,0,80,,,,,0,0,0,1,,,,,,,,,,,,,,,,,,,,,,,,,,,,,,,,,,,,,,,,,,60.07356714599882,,,,,,,,,,,,,,,,,,,,,,,,,,,,,,,,,,,,,,,,,,,,,,,,,,59.40572439300013,59.8929538950033,60.07356714599882,60.07356714599882,,,,,,,,,,,,,,,,,,,,,,,,929313,001,2023-01-27_14h53.59.190,Info_measure_main_exp,2022.2.4,60.04976143687002,
0,131,5,5,1995,2367,absent_patch/patch0001995.jpg,absent_patch/patch0002367.jpg,masks/mask_005.jpg,,,,,,,,,,,,,0,0,0,80,,,,,0,1,1,4,,,,,,,,,,,,,,,,,,,,,,,,,,,,,,,,,,,,,,,,,,60.12658243799524,,,,,,,,,,,,,,,,,,,,,,,,,,,,,,,,,,,,,,,,,,,,,,,,,,,,,,,,,,,,,,,,,,,,,,,,,,,,,929313,001,2023-01-27_14h53.59.190,Info_measure_main_exp,2022.2.4,60.04976143687002,
0,131,5,5,1995,2367,absent_patch/patch0001995.jpg,absent_patch/patch0002367.jpg,masks/mask_001.jpg,,,,,,,,,,,,,0,0,0,80,,,,,0,2,2,0,,,,,,,,,,,,,,,,,,,,,,,,,,,,,,,,,,,,,,,,,,60.19676755099499,,,,,,,,,,,,,,,,,,,,,,,,,,,,,,,,,,,,,,,,,,,,,,,,,,,,,,,,,,,,,,,,,,,,,,,,,,,,,929313,001,2023-01-27_14h53.59.190,Info_measure_main_exp,2022.2.4,60.04976143687002,
0,131,5,5,1995,2367,absent_patch/patch0001995.jpg,absent_patch/patch0002367.jpg,masks/mask_004.jpg,,,,,,,,,,,,,0,0,0,80,,,,,0,3,3,3,,,,,,,,,,,,,,,,,,,,,,,,,,,,,,,,,,,,,,,,,,60.25096664299781,,,,,,,,,,,,,,,,,,,,,,,,,,,,,,,,,,,,,,,,,,,,,,,,,,,,,,,,,,,,,,,,,,,,,,,,,,,,,929313,001,2023-01-27_14h53.59.190,Info_measure_main_exp,2022.2.4,60.04976143687002,
0,131,5,5,1995,2367,absent_patch/patch0001995.jpg,absent_patch/patch0002367.jpg,masks/mask_003.jpg,,,,,,,,,,,,,0,0,0,80,,,,,0,4,4,2,,,,,,,,,,,,,,,,,,,,,,,,,,,,,,,,,,,,,,,,,,60.320040626000264,,,,,,,,,,,,,,,,,,,,,,,,,,,,,,,,,,,,,,,,,,,,,,,,,,,,,,,,,,,,,,,,,,,,,,,,,,,,,929313,001,2023-01-27_14h53.59.190,Info_measure_main_exp,2022.2.4,60.04976143687002,
0,131,5,5,1995,2367,absent_patch/patch0001995.jpg,absent_patch/patch0002367.jpg,,,,,,,,,,,,,,0,0,0,80,,,,,,,,,,,,,,,,,,,,,,,,,,,,,,,,,,,,,,,,,,,,,,,,,,,,,,,,,,,,,,,,,,7,1.7352885180007434,1,,,,,,,,,,,,,,,,,,,,,,,,,,,,,,,,,,,,0.009201101012877189,60.37789765899652,60.37789765899652,60.37789765899652,60.37789765899652,0.13111111111111112,0.18333333333333332,1,0,0,response1disk,1,0.024077727997791953,62.140198752997094,62.140198752997094,62.140198752997094,62.140198752997094,-0.0022222222222222222,-0.03111111111111111,1,0,0,center_square,929313,001,2023-01-27_14h53.59.190,Info_measure_main_exp,2022.2.4,60.04976143687002,
0,131,5,5,2223,1947,absent_patch/patch0002223.jpg,absent_patch/patch0001947.jpg,masks/mask_004.jpg,,,,,,,,,,,,,0,1,1,69,0,0,0,3,,,,,,,,,,,,,,,,,,,,,,,,,,,,,,,,,,,,,,,,,,,,,,63.841432785004145,,,,,,,,,,,,,,,,,,,,,,,,,,,,,,,,,,,,,,,,,,,,,,63.17363566799031,63.65891588399245,63.841432785004145,63.841432785004145,,,,,,,,,,,,,,,,,,,,,,,,,,,,929313,001,2023-01-27_14h53.59.190,Info_measure_main_exp,2022.2.4,60.04976143687002,
0,131,5,5,2223,1947,absent_patch/patch0002223.jpg,absent_patch/patch0001947.jpg,masks/mask_003.jpg,,,,,,,,,,,,,0,1,1,69,0,1,1,2,,,,,,,,,,,,,,,,,,,,,,,,,,,,,,,,,,,,,,,,,,,,,,63.89541716699023,,,,,,,,,,,,,,,,,,,,,,,,,,,,,,,,,,,,,,,,,,,,,,,,,,,,,,,,,,,,,,,,,,,,,,,,,,,,,929313,001,2023-01-27_14h53.59.190,Info_measure_main_exp,2022.2.4,60.04976143687002,
0,131,5,5,2223,1947,absent_patch/patch0002223.jpg,absent_patch/patch0001947.jpg,masks/mask_001.jpg,,,,,,,,,,,,,0,1,1,69,0,2,2,0,,,,,,,,,,,,,,,,,,,,,,,,,,,,,,,,,,,,,,,,,,,,,,63.966224139003316,,,,,,,,,,,,,,,,,,,,,,,,,,,,,,,,,,,,,,,,,,,,,,,,,,,,,,,,,,,,,,,,,,,,,,,,,,,,,929313,001,2023-01-27_14h53.59.190,Info_measure_main_exp,2022.2.4,60.04976143687002,
0,131,5,5,2223,1947,absent_patch/patch0002223.jpg,absent_patch/patch0001947.jpg,masks/mask_002.jpg,,,,,,,,,,,,,0,1,1,69,0,3,3,1,,,,,,,,,,,,,,,,,,,,,,,,,,,,,,,,,,,,,,,,,,,,,,64.01959269399231,,,,,,,,,,,,,,,,,,,,,,,,,,,,,,,,,,,,,,,,,,,,,,,,,,,,,,,,,,,,,,,,,,,,,,,,,,,,,929313,001,2023-01-27_14h53.59.190,Info_measure_main_exp,2022.2.4,60.04976143687002,
0,131,5,5,2223,1947,absent_patch/patch0002223.jpg,absent_patch/patch0001947.jpg,masks/mask_005.jpg,,,,,,,,,,,,,0,1,1,69,0,4,4,4,,,,,,,,,,,,,,,,,,,,,,,,,,,,,,,,,,,,,,,,,,,,,,64.07225173999905,,,,,,,,,,,,,,,,,,,,,,,,,,,,,,,,,,,,,,,,,,,,,,,,,,,,,,,,,,,,,,,,,,,,,,,,,,,,,929313,001,2023-01-27_14h53.59.190,Info_measure_main_exp,2022.2.4,60.04976143687002,
0,131,5,5,2223,1947,absent_patch/patch0002223.jpg,absent_patch/patch0001947.jpg,masks/mask_005.jpg,,,,,,,,,,,,,0,1,1,69,,,,,0,0,0,4,,,,,,,,,,,,,,,,,,,,,,,,,,,,,,,,,,,,,,,,,,64.8187839089951,,,,,,,,,,,,,,,,,,,,,,,,,,,,,,,,,,,,,,,,,,,,,,,,,,64.13537072399049,64.62735565099865,64.77926039599697,64.8187839089951,,,,,,,,,,,,,,,,,,,,,,,,929313,001,2023-01-27_14h53.59.190,Info_measure_main_exp,2022.2.4,60.04976143687002,
0,131,5,5,2223,1947,absent_patch/patch0002223.jpg,absent_patch/patch0001947.jpg,masks/mask_003.jpg,,,,,,,,,,,,,0,1,1,69,,,,,0,1,1,2,,,,,,,,,,,,,,,,,,,,,,,,,,,,,,,,,,,,,,,,,,64.876737589002,,,,,,,,,,,,,,,,,,,,,,,,,,,,,,,,,,,,,,,,,,,,,,,,,,,,,,,,,,,,,,,,,,,,,,,,,,,,,929313,001,2023-01-27_14h53.59.190,Info_measure_main_exp,2022.2.4,60.04976143687002,
0,131,5,5,2223,1947,absent_patch/patch0002223.jpg,absent_patch/patch0001947.jpg,masks/mask_001.jpg,,,,,,,,,,,,,0,1,1,69,,,,,0,2,2,0,,,,,,,,,,,,,,,,,,,,,,,,,,,,,,,,,,,,,,,,,,64.93259120699076,,,,,,,,,,,,,,,,,,,,,,,,,,,,,,,,,,,,,,,,,,,,,,,,,,,,,,,,,,,,,,,,,,,,,,,,,,,,,929313,001,2023-01-27_14h53.59.190,Info_measure_main_exp,2022.2.4,60.04976143687002,
0,131,5,5,2223,1947,absent_patch/patch0002223.jpg,absent_patch/patch0001947.jpg,masks/mask_004.jpg,,,,,,,,,,,,,0,1,1,69,,,,,0,3,3,3,,,,,,,,,,,,,,,,,,,,,,,,,,,,,,,,,,,,,,,,,,64.98728364700219,,,,,,,,,,,,,,,,,,,,,,,,,,,,,,,,,,,,,,,,,,,,,,,,,,,,,,,,,,,,,,,,,,,,,,,,,,,,,929313,001,2023-01-27_14h53.59.190,Info_measure_main_exp,2022.2.4,60.04976143687002,
0,131,5,5,2223,1947,absent_patch/patch0002223.jpg,absent_patch/patch0001947.jpg,masks/mask_002.jpg,,,,,,,,,,,,,0,1,1,69,,,,,0,4,4,1,,,,,,,,,,,,,,,,,,,,,,,,,,,,,,,,,,,,,,,,,,65.05711322500429,,,,,,,,,,,,,,,,,,,,,,,,,,,,,,,,,,,,,,,,,,,,,,,,,,,,,,,,,,,,,,,,,,,,,,,,,,,,,929313,001,2023-01-27_14h53.59.190,Info_measure_main_exp,2022.2.4,60.04976143687002,
0,131,5,5,2223,1947,absent_patch/patch0002223.jpg,absent_patch/patch0001947.jpg,,,,,,,,,,,,,,0,1,1,69,,,,,,,,,,,,,,,,,,,,,,,,,,,,,,,,,,,,,,,,,,,,,,,,,,,,,,,,,,,,,,,,,,6,1.2933838820026722,1,,,,,,,,,,,,,,,,,,,,,,,,,,,,,,,,,,,,0.010958534010569565,65.1102151239902,65.1102151239902,65.1102151239902,65.1102151239902,0.21444444444444444,0.07777777777777778,1,0,0,response1disk,2,0.008595539999078028,66.41210184499505,66.41210184499505,66.41210184499505,66.41210184499505,0.0011111111111111111,-0.03222222222222222,1,0,0,center_square,929313,001,2023-01-27_14h53.59.190,Info_measure_main_exp,2022.2.4,60.04976143687002,
0,131,5,5,2211,2163,absent_patch/patch0002211.jpg,absent_patch/patch0002163.jpg,masks/mask_004.jpg,,,,,,,,,,,,,0,2,2,63,0,0,0,3,,,,,,,,,,,,,,,,,,,,,,,,,,,,,,,,,,,,,,,,,,,,,,68.54470541299088,,,,,,,,,,,,,,,,,,,,,,,,,,,,,,,,,,,,,,,,,,,,,,67.83454843699292,68.35698503899039,68.54470541299088,68.50112572299258,,,,,,,,,,,,,,,,,,,,,,,,,,,,929313,001,2023-01-27_14h53.59.190,Info_measure_main_exp,2022.2.4,60.04976143687002,
0,131,5,5,2211,2163,absent_patch/patch0002211.jpg,absent_patch/patch0002163.jpg,masks/mask_003.jpg,,,,,,,,,,,,,0,2,2,63,0,1,1,2,,,,,,,,,,,,,,,,,,,,,,,,,,,,,,,,,,,,,,,,,,,,,,68.60402803299075,,,,,,,,,,,,,,,,,,,,,,,,,,,,,,,,,,,,,,,,,,,,,,,,,,,,,,,,,,,,,,,,,,,,,,,,,,,,,929313,001,2023-01-27_14h53.59.190,Info_measure_main_exp,2022.2.4,60.04976143687002,
0,131,5,5,2211,2163,absent_patch/patch0002211.jpg,absent_patch/patch0002163.jpg,masks/mask_001.jpg,,,,,,,,,,,,,0,2,2,63,0,2,2,0,,,,,,,,,,,,,,,,,,,,,,,,,,,,,,,,,,,,,,,,,,,,,,68.6622157870006,,,,,,,,,,,,,,,,,,,,,,,,,,,,,,,,,,,,,,,,,,,,,,,,,,,,,,,,,,,,,,,,,,,,,,,,,,,,,929313,001,2023-01-27_14h53.59.190,Info_measure_main_exp,2022.2.4,60.04976143687002,
0,131,5,5,2211,2163,absent_patch/patch0002211.jpg,absent_patch/patch0002163.jpg,masks/mask_002.jpg,,,,,,,,,,,,,0,2,2,63,0,3,3,1,,,,,,,,,,,,,,,,,,,,,,,,,,,,,,,,,,,,,,,,,,,,,,68.72109111800091,,,,,,,,,,,,,,,,,,,,,,,,,,,,,,,,,,,,,,,,,,,,,,,,,,,,,,,,,,,,,,,,,,,,,,,,,,,,,929313,001,2023-01-27_14h53.59.190,Info_measure_main_exp,2022.2.4,60.04976143687002,
0,131,5,5,2211,2163,absent_patch/patch0002211.jpg,absent_patch/patch0002163.jpg,masks/mask_005.jpg,,,,,,,,,,,,,0,2,2,63,0,4,4,4,,,,,,,,,,,,,,,,,,,,,,,,,,,,,,,,,,,,,,,,,,,,,,68.77508737199241,,,,,,,,,,,,,,,,,,,,,,,,,,,,,,,,,,,,,,,,,,,,,,,,,,,,,,,,,,,,,,,,,,,,,,,,,,,,,929313,001,2023-01-27_14h53.59.190,Info_measure_main_exp,2022.2.4,60.04976143687002,
0,131,5,5,2211,2163,absent_patch/patch0002211.jpg,absent_patch/patch0002163.jpg,masks/mask_002.jpg,,,,,,,,,,,,,0,2,2,63,,,,,0,0,0,1,,,,,,,,,,,,,,,,,,,,,,,,,,,,,,,,,,,,,,,,,,69.49045320200094,,,,,,,,,,,,,,,,,,,,,,,,,,,,,,,,,,,,,,,,,,,,,,,,,,68.8231942489947,69.30895802199666,69.49045320200094,69.49045320200094,,,,,,,,,,,,,,,,,,,,,,,,929313,001,2023-01-27_14h53.59.190,Info_measure_main_exp,2022.2.4,60.04976143687002,
0,131,5,5,2211,2163,absent_patch/patch0002211.jpg,absent_patch/patch0002163.jpg,masks/mask_005.jpg,,,,,,,,,,,,,0,2,2,63,,,,,0,1,1,4,,,,,,,,,,,,,,,,,,,,,,,,,,,,,,,,,,,,,,,,,,69.54353178699967,,,,,,,,,,,,,,,,,,,,,,,,,,,,,,,,,,,,,,,,,,,,,,,,,,,,,,,,,,,,,,,,,,,,,,,,,,,,,929313,001,2023-01-27_14h53.59.190,Info_measure_main_exp,2022.2.4,60.04976143687002,
0,131,5,5,2211,2163,absent_patch/patch0002211.jpg,absent_patch/patch0002163.jpg,masks/mask_001.jpg,,,,,,,,,,,,,0,2,2,63,,,,,0,2,2,0,,,,,,,,,,,,,,,,,,,,,,,,,,,,,,,,,,,,,,,,,,69.61580590000085,,,,,,,,,,,,,,,,,,,,,,,,,,,,,,,,,,,,,,,,,,,,,,,,,,,,,,,,,,,,,,,,,,,,,,,,,,,,,929313,001,2023-01-27_14h53.59.190,Info_measure_main_exp,2022.2.4,60.04976143687002,
0,131,5,5,2211,2163,absent_patch/patch0002211.jpg,absent_patch/patch0002163.jpg,masks/mask_003.jpg,,,,,,,,,,,,,0,2,2,63,,,,,0,3,3,2,,,,,,,,,,,,,,,,,,,,,,,,,,,,,,,,,,,,,,,,,,69.66847419200349,,,,,,,,,,,,,,,,,,,,,,,,,,,,,,,,,,,,,,,,,,,,,,,,,,,,,,,,,,,,,,,,,,,,,,,,,,,,,929313,001,2023-01-27_14h53.59.190,Info_measure_main_exp,2022.2.4,60.04976143687002,
0,131,5,5,2211,2163,absent_patch/patch0002211.jpg,absent_patch/patch0002163.jpg,masks/mask_004.jpg,,,,,,,,,,,,,0,2,2,63,,,,,0,4,4,3,,,,,,,,,,,,,,,,,,,,,,,,,,,,,,,,,,,,,,,,,,69.72534865699708,,,,,,,,,,,,,,,,,,,,,,,,,,,,,,,,,,,,,,,,,,,,,,,,,,,,,,,,,,,,,,,,,,,,,,,,,,,,,929313,001,2023-01-27_14h53.59.190,Info_measure_main_exp,2022.2.4,60.04976143687002,
0,131,5,5,2211,2163,absent_patch/patch0002211.jpg,absent_patch/patch0002163.jpg,,,,,,,,,,,,,,0,2,2,63,,,,,,,,,,,,,,,,,,,,,,,,,,,,,,,,,,,,,,,,,,,,,,,,,,,,,,,,,,,,,,,,,,6,0.7094610989879584,1,,,,,,,,,,,,,,,,,,,,,,,,,,,,,,,,,,,,0.013158386005670764,69.79268364000018,69.79268364000018,69.79268364000018,69.79268364000018,0.1988888888888889,0.04666666666666667,1,0,0,response1disk,3,0.01067515900649596,70.5162105729978,70.5162105729978,70.5162105729978,70.5162105729978,-0.02,-0.021111111111111112,1,0,0,center_square,929313,001,2023-01-27_14h53.59.190,Info_measure_main_exp,2022.2.4,60.04976143687002,
0,131,5,5,2151,2211,absent_patch/patch0002151.jpg,absent_patch/patch0002211.jpg,masks/mask_005.jpg,,,,,,,,,,,,,0,3,3,112,0,0,0,4,,,,,,,,,,,,,,,,,,,,,,,,,,,,,,,,,,,,,,,,,,,,,,71.6741406069923,,,,,,,,,,,,,,,,,,,,,,,,,,,,,,,,,,,,,,,,,,,,,,71.00347903399961,71.49254367299727,71.6741406069923,71.6741406069923,,,,,,,,,,,,,,,,,,,,,,,,,,,,929313,001,2023-01-27_14h53.59.190,Info_measure_main_exp,2022.2.4,60.04976143687002,
0,131,5,5,2151,2211,absent_patch/patch0002151.jpg,absent_patch/patch0002211.jpg,masks/mask_004.jpg,,,,,,,,,,,,,0,3,3,112,0,1,1,3,,,,,,,,,,,,,,,,,,,,,,,,,,,,,,,,,,,,,,,,,,,,,,71.73065233200032,,,,,,,,,,,,,,,,,,,,,,,,,,,,,,,,,,,,,,,,,,,,,,,,,,,,,,,,,,,,,,,,,,,,,,,,,,,,,929313,001,2023-01-27_14h53.59.190,Info_measure_main_exp,2022.2.4,60.04976143687002,
0,131,5,5,2151,2211,absent_patch/patch0002151.jpg,absent_patch/patch0002211.jpg,masks/mask_003.jpg,,,,,,,,,,,,,0,3,3,112,0,2,2,2,,,,,,,,,,,,,,,,,,,,,,,,,,,,,,,,,,,,,,,,,,,,,,71.7956814240024,,,,,,,,,,,,,,,,,,,,,,,,,,,,,,,,,,,,,,,,,,,,,,,,,,,,,,,,,,,,,,,,,,,,,,,,,,,,,929313,001,2023-01-27_14h53.59.190,Info_measure_main_exp,2022.2.4,60.04976143687002,
0,131,5,5,2151,2211,absent_patch/patch0002151.jpg,absent_patch/patch0002211.jpg,masks/mask_002.jpg,,,,,,,,,,,,,0,3,3,112,0,3,3,1,,,,,,,,,,,,,,,,,,,,,,,,,,,,,,,,,,,,,,,,,,,,,,71.84808182300185,,,,,,,,,,,,,,,,,,,,,,,,,,,,,,,,,,,,,,,,,,,,,,,,,,,,,,,,,,,,,,,,,,,,,,,,,,,,,929313,001,2023-01-27_14h53.59.190,Info_measure_main_exp,2022.2.4,60.04976143687002,
0,131,5,5,2151,2211,absent_patch/patch0002151.jpg,absent_patch/patch0002211.jpg,masks/mask_001.jpg,,,,,,,,,,,,,0,3,3,112,0,4,4,0,,,,,,,,,,,,,,,,,,,,,,,,,,,,,,,,,,,,,,,,,,,,,,71.91734234699106,,,,,,,,,,,,,,,,,,,,,,,,,,,,,,,,,,,,,,,,,,,,,,,,,,,,,,,,,,,,,,,,,,,,,,,,,,,,,929313,001,2023-01-27_14h53.59.190,Info_measure_main_exp,2022.2.4,60.04976143687002,
0,131,5,5,2151,2211,absent_patch/patch0002151.jpg,absent_patch/patch0002211.jpg,masks/mask_004.jpg,,,,,,,,,,,,,0,3,3,112,,,,,0,0,0,3,,,,,,,,,,,,,,,,,,,,,,,,,,,,,,,,,,,,,,,,,,72.64108126299107,,,,,,,,,,,,,,,,,,,,,,,,,,,,,,,,,,,,,,,,,,,,,,,,,,71.9652553939959,72.45934488599596,72.64108126299107,72.64108126299107,,,,,,,,,,,,,,,,,,,,,,,,929313,001,2023-01-27_14h53.59.190,Info_measure_main_exp,2022.2.4,60.04976143687002,
0,131,5,5,2151,2211,absent_patch/patch0002151.jpg,absent_patch/patch0002211.jpg,masks/mask_001.jpg,,,,,,,,,,,,,0,3,3,112,,,,,0,1,1,0,,,,,,,,,,,,,,,,,,,,,,,,,,,,,,,,,,,,,,,,,,72.69515134999529,,,,,,,,,,,,,,,,,,,,,,,,,,,,,,,,,,,,,,,,,,,,,,,,,,,,,,,,,,,,,,,,,,,,,,,,,,,,,929313,001,2023-01-27_14h53.59.190,Info_measure_main_exp,2022.2.4,60.04976143687002,
0,131,5,5,2151,2211,absent_patch/patch0002151.jpg,absent_patch/patch0002211.jpg,masks/mask_005.jpg,,,,,,,,,,,,,0,3,3,112,,,,,0,2,2,4,,,,,,,,,,,,,,,,,,,,,,,,,,,,,,,,,,,,,,,,,,72.7527974149998,,,,,,,,,,,,,,,,,,,,,,,,,,,,,,,,,,,,,,,,,,,,,,,,,,,,,,,,,,,,,,,,,,,,,,,,,,,,,929313,001,2023-01-27_14h53.59.190,Info_measure_main_exp,2022.2.4,60.04976143687002,
0,131,5,5,2151,2211,absent_patch/patch0002151.jpg,absent_patch/patch0002211.jpg,masks/mask_002.jpg,,,,,,,,,,,,,0,3,3,112,,,,,0,3,3,1,,,,,,,,,,,,,,,,,,,,,,,,,,,,,,,,,,,,,,,,,,72.82140914499178,,,,,,,,,,,,,,,,,,,,,,,,,,,,,,,,,,,,,,,,,,,,,,,,,,,,,,,,,,,,,,,,,,,,,,,,,,,,,929313,001,2023-01-27_14h53.59.190,Info_measure_main_exp,2022.2.4,60.04976143687002,
0,131,5,5,2151,2211,absent_patch/patch0002151.jpg,absent_patch/patch0002211.jpg,masks/mask_003.jpg,,,,,,,,,,,,,0,3,3,112,,,,,0,4,4,2,,,,,,,,,,,,,,,,,,,,,,,,,,,,,,,,,,,,,,,,,,72.87534680399403,,,,,,,,,,,,,,,,,,,,,,,,,,,,,,,,,,,,,,,,,,,,,,,,,,,,,,,,,,,,,,,,,,,,,,,,,,,,,929313,001,2023-01-27_14h53.59.190,Info_measure_main_exp,2022.2.4,60.04976143687002,
0,131,5,5,2151,2211,absent_patch/patch0002151.jpg,absent_patch/patch0002211.jpg,,,,,,,,,,,,,,0,3,3,112,,,,,,,,,,,,,,,,,,,,,,,,,,,,,,,,,,,,,,,,,,,,,,,,,,,,,,,,,,,,,,,,,,6,1.2997046340024099,1,,,,,,,,,,,,,,,,,,,,,,,,,,,,,,,,,,,,0.012943453009938821,72.94187916599913,72.94187916599913,72.94187916599913,72.94187916599913,0.19666666666666666,0.07777777777777778,1,0,0,response1disk,4,0.008044406000408344,74.25081246299669,74.25081246299669,74.25081246299669,74.25081246299669,0.01,0.013333333333333334,1,0,0,center_square,929313,001,2023-01-27_14h53.59.190,Info_measure_main_exp,2022.2.4,60.04976143687002,
0,131,5,5,2247,2151,absent_patch/patch0002247.jpg,absent_patch/patch0002151.jpg,masks/mask_003.jpg,,,,,,,,,,,,,0,4,4,66,0,0,0,2,,,,,,,,,,,,,,,,,,,,,,,,,,,,,,,,,,,,,,,,,,,,,,76.24258049100172,,,,,,,,,,,,,,,,,,,,,,,,,,,,,,,,,,,,,,,,,,,,,,75.56955687899608,76.05910911300452,76.24258049100172,76.24258049100172,,,,,,,,,,,,,,,,,,,,,,,,,,,,929313,001,2023-01-27_14h53.59.190,Info_measure_main_exp,2022.2.4,60.04976143687002,
0,131,5,5,2247,2151,absent_patch/patch0002247.jpg,absent_patch/patch0002151.jpg,masks/mask_005.jpg,,,,,,,,,,,,,0,4,4,66,0,1,1,4,,,,,,,,,,,,,,,,,,,,,,,,,,,,,,,,,,,,,,,,,,,,,,76.29775454499759,,,,,,,,,,,,,,,,,,,,,,,,,,,,,,,,,,,,,,,,,,,,,,,,,,,,,,,,,,,,,,,,,,,,,,,,,,,,,929313,001,2023-01-27_14h53.59.190,Info_measure_main_exp,2022.2.4,60.04976143687002,
0,131,5,5,2247,2151,absent_patch/patch0002247.jpg,absent_patch/patch0002151.jpg,masks/mask_001.jpg,,,,,,,,,,,,,0,4,4,66,0,2,2,0,,,,,,,,,,,,,,,,,,,,,,,,,,,,,,,,,,,,,,,,,,,,,,76.35388444799173,,,,,,,,,,,,,,,,,,,,,,,,,,,,,,,,,,,,,,,,,,,,,,,,,,,,,,,,,,,,,,,,,,,,,,,,,,,,,929313,001,2023-01-27_14h53.59.190,Info_measure_main_exp,2022.2.4,60.04976143687002,
0,131,5,5,2247,2151,absent_patch/patch0002247.jpg,absent_patch/patch0002151.jpg,masks/mask_004.jpg,,,,,,,,,,,,,0,4,4,66,0,3,3,3,,,,,,,,,,,,,,,,,,,,,,,,,,,,,,,,,,,,,,,,,,,,,,76.42395737599873,,,,,,,,,,,,,,,,,,,,,,,,,,,,,,,,,,,,,,,,,,,,,,,,,,,,,,,,,,,,,,,,,,,,,,,,,,,,,929313,001,2023-01-27_14h53.59.190,Info_measure_main_exp,2022.2.4,60.04976143687002,
0,131,5,5,2247,2151,absent_patch/patch0002247.jpg,absent_patch/patch0002151.jpg,masks/mask_002.jpg,,,,,,,,,,,,,0,4,4,66,0,4,4,1,,,,,,,,,,,,,,,,,,,,,,,,,,,,,,,,,,,,,,,,,,,,,,76.48078360200452,,,,,,,,,,,,,,,,,,,,,,,,,,,,,,,,,,,,,,,,,,,,,,,,,,,,,,,,,,,,,,,,,,,,,,,,,,,,,929313,001,2023-01-27_14h53.59.190,Info_measure_main_exp,2022.2.4,60.04976143687002,
0,131,5,5,2247,2151,absent_patch/patch0002247.jpg,absent_patch/patch0002151.jpg,masks/mask_002.jpg,,,,,,,,,,,,,0,4,4,66,,,,,0,0,0,1,,,,,,,,,,,,,,,,,,,,,,,,,,,,,,,,,,,,,,,,,,77.2080338520027,,,,,,,,,,,,,,,,,,,,,,,,,,,,,,,,,,,,,,,,,,,,,,,,,,76.53506246999314,77.0137367760035,77.17550417600432,77.2080338520027,,,,,,,,,,,,,,,,,,,,,,,,929313,001,2023-01-27_14h53.59.190,Info_measure_main_exp,2022.2.4,60.04976143687002,
0,131,5,5,2247,2151,absent_patch/patch0002247.jpg,absent_patch/patch0002151.jpg,masks/mask_001.jpg,,,,,,,,,,,,,0,4,4,66,,,,,0,1,1,0,,,,,,,,,,,,,,,,,,,,,,,,,,,,,,,,,,,,,,,,,,77.2629375270044,,,,,,,,,,,,,,,,,,,,,,,,,,,,,,,,,,,,,,,,,,,,,,,,,,,,,,,,,,,,,,,,,,,,,,,,,,,,,929313,001,2023-01-27_14h53.59.190,Info_measure_main_exp,2022.2.4,60.04976143687002,
0,131,5,5,2247,2151,absent_patch/patch0002247.jpg,absent_patch/patch0002151.jpg,masks/mask_004.jpg,,,,,,,,,,,,,0,4,4,66,,,,,0,2,2,3,,,,,,,,,,,,,,,,,,,,,,,,,,,,,,,,,,,,,,,,,,77.31906732000061,,,,,,,,,,,,,,,,,,,,,,,,,,,,,,,,,,,,,,,,,,,,,,,,,,,,,,,,,,,,,,,,,,,,,,,,,,,,,929313,001,2023-01-27_14h53.59.190,Info_measure_main_exp,2022.2.4,60.04976143687002,
0,131,5,5,2247,2151,absent_patch/patch0002247.jpg,absent_patch/patch0002151.jpg,masks/mask_005.jpg,,,,,,,,,,,,,0,4,4,66,,,,,0,3,3,4,,,,,,,,,,,,,,,,,,,,,,,,,,,,,,,,,,,,,,,,,,77.39357529199333,,,,,,,,,,,,,,,,,,,,,,,,,,,,,,,,,,,,,,,,,,,,,,,,,,,,,,,,,,,,,,,,,,,,,,,,,,,,,929313,001,2023-01-27_14h53.59.190,Info_measure_main_exp,2022.2.4,60.04976143687002,
0,131,5,5,2247,2151,absent_patch/patch0002247.jpg,absent_patch/patch0002151.jpg,masks/mask_003.jpg,,,,,,,,,,,,,0,4,4,66,,,,,0,4,4,2,,,,,,,,,,,,,,,,,,,,,,,,,,,,,,,,,,,,,,,,,,77.45094940600393,,,,,,,,,,,,,,,,,,,,,,,,,,,,,,,,,,,,,,,,,,,,,,,,,,,,,,,,,,,,,,,,,,,,,,,,,,,,,929313,001,2023-01-27_14h53.59.190,Info_measure_main_exp,2022.2.4,60.04976143687002,
0,131,5,5,2247,2151,absent_patch/patch0002247.jpg,absent_patch/patch0002151.jpg,,,,,,,,,,,,,,0,4,4,66,,,,,,,,,,,,,,,,,,,,,,,,,,,,,,,,,,,,,,,,,,,,,,,,,,,,,,,,,,,,,,,,,,5,2.0472090810071677,1,,,,,,,,,,,,,,,,,,,,,,,,,,,,,,,,,,,,0.009025246006785892,77.5059189349995,77.5059189349995,77.5059189349995,77.5059189349995,0.19333333333333333,-0.044444444444444446,1,0,0,response3disk,5,0.011413859989261255,79.56600995299232,79.56600995299232,79.56600995299232,79.56600995299232,0.022222222222222223,-0.0011111111111111111,1,0,0,center_square,929313,001,2023-01-27_14h53.59.190,Info_measure_main_exp,2022.2.4,60.04976143687002,
0,131,5,5,1947,2271,absent_patch/patch0001947.jpg,absent_patch/patch0002271.jpg,masks/mask_001.jpg,,,,,,,,,,,,,0,5,5,1,0,0,0,0,,,,,,,,,,,,,,,,,,,,,,,,,,,,,,,,,,,,,,,,,,,,,,80.802917686,,,,,,,,,,,,,,,,,,,,,,,,,,,,,,,,,,,,,,,,,,,,,,80.08643508500245,80.58512462300132,80.802917686,80.802917686,,,,,,,,,,,,,,,,,,,,,,,,,,,,929313,001,2023-01-27_14h53.59.190,Info_measure_main_exp,2022.2.4,60.04976143687002,
0,131,5,5,1947,2271,absent_patch/patch0001947.jpg,absent_patch/patch0002271.jpg,masks/mask_004.jpg,,,,,,,,,,,,,0,5,5,1,0,1,1,3,,,,,,,,,,,,,,,,,,,,,,,,,,,,,,,,,,,,,,,,,,,,,,80.83257173499442,,,,,,,,,,,,,,,,,,,,,,,,,,,,,,,,,,,,,,,,,,,,,,,,,,,,,,,,,,,,,,,,,,,,,,,,,,,,,929313,001,2023-01-27_14h53.59.190,Info_measure_main_exp,2022.2.4,60.04976143687002,
0,131,5,5,1947,2271,absent_patch/patch0001947.jpg,absent_patch/patch0002271.jpg,masks/mask_002.jpg,,,,,,,,,,,,,0,5,5,1,0,2,2,1,,,,,,,,,,,,,,,,,,,,,,,,,,,,,,,,,,,,,,,,,,,,,,80.8734899849951,,,,,,,,,,,,,,,,,,,,,,,,,,,,,,,,,,,,,,,,,,,,,,,,,,,,,,,,,,,,,,,,,,,,,,,,,,,,,929313,001,2023-01-27_14h53.59.190,Info_measure_main_exp,2022.2.4,60.04976143687002,
0,131,5,5,1947,2271,absent_patch/patch0001947.jpg,absent_patch/patch0002271.jpg,masks/mask_003.jpg,,,,,,,,,,,,,0,5,5,1,0,3,3,2,,,,,,,,,,,,,,,,,,,,,,,,,,,,,,,,,,,,,,,,,,,,,,80.93975905999832,,,,,,,,,,,,,,,,,,,,,,,,,,,,,,,,,,,,,,,,,,,,,,,,,,,,,,,,,,,,,,,,,,,,,,,,,,,,,929313,001,2023-01-27_14h53.59.190,Info_measure_main_exp,2022.2.4,60.04976143687002,
0,131,5,5,1947,2271,absent_patch/patch0001947.jpg,absent_patch/patch0002271.jpg,masks/mask_005.jpg,,,,,,,,,,,,,0,5,5,1,0,4,4,4,,,,,,,,,,,,,,,,,,,,,,,,,,,,,,,,,,,,,,,,,,,,,,81.00220398999227,,,,,,,,,,,,,,,,,,,,,,,,,,,,,,,,,,,,,,,,,,,,,,,,,,,,,,,,,,,,,,,,,,,,,,,,,,,,,929313,001,2023-01-27_14h53.59.190,Info_measure_main_exp,2022.2.4,60.04976143687002,
0,131,5,5,1947,2271,absent_patch/patch0001947.jpg,absent_patch/patch0002271.jpg,masks/mask_002.jpg,,,,,,,,,,,,,0,5,5,1,,,,,0,0,0,1,,,,,,,,,,,,,,,,,,,,,,,,,,,,,,,,,,,,,,,,,,81.73151208099443,,,,,,,,,,,,,,,,,,,,,,,,,,,,,,,,,,,,,,,,,,,,,,,,,,81.05535231299291,81.54283526800282,81.73151208099443,81.73151208099443,,,,,,,,,,,,,,,,,,,,,,,,929313,001,2023-01-27_14h53.59.190,Info_measure_main_exp,2022.2.4,60.04976143687002,
0,131,5,5,1947,2271,absent_patch/patch0001947.jpg,absent_patch/patch0002271.jpg,masks/mask_003.jpg,,,,,,,,,,,,,0,5,5,1,,,,,0,1,1,2,,,,,,,,,,,,,,,,,,,,,,,,,,,,,,,,,,,,,,,,,,81.79285202799656,,,,,,,,,,,,,,,,,,,,,,,,,,,,,,,,,,,,,,,,,,,,,,,,,,,,,,,,,,,,,,,,,,,,,,,,,,,,,929313,001,2023-01-27_14h53.59.190,Info_measure_main_exp,2022.2.4,60.04976143687002,
0,131,5,5,1947,2271,absent_patch/patch0001947.jpg,absent_patch/patch0002271.jpg,masks/mask_005.jpg,,,,,,,,,,,,,0,5,5,1,,,,,0,2,2,4,,,,,,,,,,,,,,,,,,,,,,,,,,,,,,,,,,,,,,,,,,81.8551435660047,,,,,,,,,,,,,,,,,,,,,,,,,,,,,,,,,,,,,,,,,,,,,,,,,,,,,,,,,,,,,,,,,,,,,,,,,,,,,929313,001,2023-01-27_14h53.59.190,Info_measure_main_exp,2022.2.4,60.04976143687002,
0,131,5,5,1947,2271,absent_patch/patch0001947.jpg,absent_patch/patch0002271.jpg,masks/mask_001.jpg,,,,,,,,,,,,,0,5,5,1,,,,,0,3,3,0,,,,,,,,,,,,,,,,,,,,,,,,,,,,,,,,,,,,,,,,,,81.9092690529942,,,,,,,,,,,,,,,,,,,,,,,,,,,,,,,,,,,,,,,,,,,,,,,,,,,,,,,,,,,,,,,,,,,,,,,,,,,,,929313,001,2023-01-27_14h53.59.190,Info_measure_main_exp,2022.2.4,60.04976143687002,
0,131,5,5,1947,2271,absent_patch/patch0001947.jpg,absent_patch/patch0002271.jpg,masks/mask_004.jpg,,,,,,,,,,,,,0,5,5,1,,,,,0,4,4,3,,,,,,,,,,,,,,,,,,,,,,,,,,,,,,,,,,,,,,,,,,81.96622757900332,,,,,,,,,,,,,,,,,,,,,,,,,,,,,,,,,,,,,,,,,,,,,,,,,,,,,,,,,,,,,,,,,,,,,,,,,,,,,929313,001,2023-01-27_14h53.59.190,Info_measure_main_exp,2022.2.4,60.04976143687002,
0,131,5,5,1947,2271,absent_patch/patch0001947.jpg,absent_patch/patch0002271.jpg,,,,,,,,,,,,,,0,5,5,1,,,,,,,,,,,,,,,,,,,,,,,,,,,,,,,,,,,,,,,,,,,,,,,,,,,,,,,,,,,,,,,,,,7,1.501904895005282,1,,,,,,,,,,,,,,,,,,,,,,,,,,,,,,,,,,,,0.008385039021959528,82.02000454899098,82.02000454899098,82.02000454899098,82.02000454899098,0.03111111111111111,0.16333333333333333,1,0,0,response1disk,6,0.01023179899493698,83.53280736999295,83.53280736999295,83.53280736999295,83.53280736999295,0.012222222222222223,-0.025555555555555557,1,0,0,center_square,929313,001,2023-01-27_14h53.59.190,Info_measure_main_exp,2022.2.4,60.04976143687002,
0,131,5,5,2271,2247,absent_patch/patch0002271.jpg,absent_patch/patch0002247.jpg,masks/mask_004.jpg,,,,,,,,,,,,,0,6,6,64,0,0,0,3,,,,,,,,,,,,,,,,,,,,,,,,,,,,,,,,,,,,,,,,,,,,,,84.73320415600028,,,,,,,,,,,,,,,,,,,,,,,,,,,,,,,,,,,,,,,,,,,,,,84.05400149300112,84.54403739600093,84.73320415600028,84.73320415600028,,,,,,,,,,,,,,,,,,,,,,,,,,,,929313,001,2023-01-27_14h53.59.190,Info_measure_main_exp,2022.2.4,60.04976143687002,
0,131,5,5,2271,2247,absent_patch/patch0002271.jpg,absent_patch/patch0002247.jpg,masks/mask_001.jpg,,,,,,,,,,,,,0,6,6,64,0,1,1,0,,,,,,,,,,,,,,,,,,,,,,,,,,,,,,,,,,,,,,,,,,,,,,84.78867465899384,,,,,,,,,,,,,,,,,,,,,,,,,,,,,,,,,,,,,,,,,,,,,,,,,,,,,,,,,,,,,,,,,,,,,,,,,,,,,929313,001,2023-01-27_14h53.59.190,Info_measure_main_exp,2022.2.4,60.04976143687002,
0,131,5,5,2271,2247,absent_patch/patch0002271.jpg,absent_patch/patch0002247.jpg,masks/mask_002.jpg,,,,,,,,,,,,,0,6,6,64,0,2,2,1,,,,,,,,,,,,,,,,,,,,,,,,,,,,,,,,,,,,,,,,,,,,,,84.84519992799324,,,,,,,,,,,,,,,,,,,,,,,,,,,,,,,,,,,,,,,,,,,,,,,,,,,,,,,,,,,,,,,,,,,,,,,,,,,,,929313,001,2023-01-27_14h53.59.190,Info_measure_main_exp,2022.2.4,60.04976143687002,
0,131,5,5,2271,2247,absent_patch/patch0002271.jpg,absent_patch/patch0002247.jpg,masks/mask_005.jpg,,,,,,,,,,,,,0,6,6,64,0,3,3,4,,,,,,,,,,,,,,,,,,,,,,,,,,,,,,,,,,,,,,,,,,,,,,84.9041196850012,,,,,,,,,,,,,,,,,,,,,,,,,,,,,,,,,,,,,,,,,,,,,,,,,,,,,,,,,,,,,,,,,,,,,,,,,,,,,929313,001,2023-01-27_14h53.59.190,Info_measure_main_exp,2022.2.4,60.04976143687002,
0,131,5,5,2271,2247,absent_patch/patch0002271.jpg,absent_patch/patch0002247.jpg,masks/mask_003.jpg,,,,,,,,,,,,,0,6,6,64,0,4,4,2,,,,,,,,,,,,,,,,,,,,,,,,,,,,,,,,,,,,,,,,,,,,,,84.96124721100205,,,,,,,,,,,,,,,,,,,,,,,,,,,,,,,,,,,,,,,,,,,,,,,,,,,,,,,,,,,,,,,,,,,,,,,,,,,,,929313,001,2023-01-27_14h53.59.190,Info_measure_main_exp,2022.2.4,60.04976143687002,
0,131,5,5,2271,2247,absent_patch/patch0002271.jpg,absent_patch/patch0002247.jpg,masks/mask_004.jpg,,,,,,,,,,,,,0,6,6,64,,,,,0,0,0,3,,,,,,,,,,,,,,,,,,,,,,,,,,,,,,,,,,,,,,,,,,85.69294881199312,,,,,,,,,,,,,,,,,,,,,,,,,,,,,,,,,,,,,,,,,,,,,,,,,,85.01300959500077,85.51018277699768,85.69294881199312,85.69294881199312,,,,,,,,,,,,,,,,,,,,,,,,929313,001,2023-01-27_14h53.59.190,Info_measure_main_exp,2022.2.4,60.04976143687002,
0,131,5,5,2271,2247,absent_patch/patch0002271.jpg,absent_patch/patch0002247.jpg,masks/mask_005.jpg,,,,,,,,,,,,,0,6,6,64,,,,,0,1,1,4,,,,,,,,,,,,,,,,,,,,,,,,,,,,,,,,,,,,,,,,,,85.74051142900134,,,,,,,,,,,,,,,,,,,,,,,,,,,,,,,,,,,,,,,,,,,,,,,,,,,,,,,,,,,,,,,,,,,,,,,,,,,,,929313,001,2023-01-27_14h53.59.190,Info_measure_main_exp,2022.2.4,60.04976143687002,
0,131,5,5,2271,2247,absent_patch/patch0002271.jpg,absent_patch/patch0002247.jpg,masks/mask_002.jpg,,,,,,,,,,,,,0,6,6,64,,,,,0,2,2,1,,,,,,,,,,,,,,,,,,,,,,,,,,,,,,,,,,,,,,,,,,85.80245450699294,,,,,,,,,,,,,,,,,,,,,,,,,,,,,,,,,,,,,,,,,,,,,,,,,,,,,,,,,,,,,,,,,,,,,,,,,,,,,929313,001,2023-01-27_14h53.59.190,Info_measure_main_exp,2022.2.4,60.04976143687002,
0,131,5,5,2271,2247,absent_patch/patch0002271.jpg,absent_patch/patch0002247.jpg,masks/mask_001.jpg,,,,,,,,,,,,,0,6,6,64,,,,,0,3,3,0,,,,,,,,,,,,,,,,,,,,,,,,,,,,,,,,,,,,,,,,,,85.86509531000047,,,,,,,,,,,,,,,,,,,,,,,,,,,,,,,,,,,,,,,,,,,,,,,,,,,,,,,,,,,,,,,,,,,,,,,,,,,,,929313,001,2023-01-27_14h53.59.190,Info_measure_main_exp,2022.2.4,60.04976143687002,
0,131,5,5,2271,2247,absent_patch/patch0002271.jpg,absent_patch/patch0002247.jpg,masks/mask_003.jpg,,,,,,,,,,,,,0,6,6,64,,,,,0,4,4,2,,,,,,,,,,,,,,,,,,,,,,,,,,,,,,,,,,,,,,,,,,85.92963958300243,,,,,,,,,,,,,,,,,,,,,,,,,,,,,,,,,,,,,,,,,,,,,,,,,,,,,,,,,,,,,,,,,,,,,,,,,,,,,929313,001,2023-01-27_14h53.59.190,Info_measure_main_exp,2022.2.4,60.04976143687002,
0,131,5,5,2271,2247,absent_patch/patch0002271.jpg,absent_patch/patch0002247.jpg,,,,,,,,,,,,,,0,6,6,64,,,,,,,,,,,,,,,,,,,,,,,,,,,,,,,,,,,,,,,,,,,,,,,,,,,,,,,,,,,,,,,,,,7,0.8343961619975744,1,,,,,,,,,,,,,,,,,,,,,,,,,,,,,,,,,,,,0.01430682500358671,85.9882924889971,85.9882924889971,85.9882924889971,85.9882924889971,0.09777777777777778,0.17555555555555555,1,0,0,response1disk,7,0.010732343987911008,86.8320209520025,86.8320209520025,86.8320209520025,86.8320209520025,-0.0011111111111111111,-0.017777777777777778,1,0,0,center_square,929313,001,2023-01-27_14h53.59.190,Info_measure_main_exp,2022.2.4,60.04976143687002,
0,131,5,5,2043,2247,absent_patch/patch0002043.jpg,absent_patch/patch0002247.jpg,masks/mask_002.jpg,,,,,,,,,,,,,0,7,7,81,0,0,0,1,,,,,,,,,,,,,,,,,,,,,,,,,,,,,,,,,,,,,,,,,,,,,,88.72950067100464,,,,,,,,,,,,,,,,,,,,,,,,,,,,,,,,,,,,,,,,,,,,,,88.03309995100426,88.5290005489951,88.67934954899829,88.72950067100464,,,,,,,,,,,,,,,,,,,,,,,,,,,,929313,001,2023-01-27_14h53.59.190,Info_measure_main_exp,2022.2.4,60.04976143687002,
0,131,5,5,2043,2247,absent_patch/patch0002043.jpg,absent_patch/patch0002247.jpg,masks/mask_004.jpg,,,,,,,,,,,,,0,7,7,81,0,1,1,3,,,,,,,,,,,,,,,,,,,,,,,,,,,,,,,,,,,,,,,,,,,,,,88.7759409959981,,,,,,,,,,,,,,,,,,,,,,,,,,,,,,,,,,,,,,,,,,,,,,,,,,,,,,,,,,,,,,,,,,,,,,,,,,,,,929313,001,2023-01-27_14h53.59.190,Info_measure_main_exp,2022.2.4,60.04976143687002,
0,131,5,5,2043,2247,absent_patch/patch0002043.jpg,absent_patch/patch0002247.jpg,masks/mask_003.jpg,,,,,,,,,,,,,0,7,7,81,0,2,2,2,,,,,,,,,,,,,,,,,,,,,,,,,,,,,,,,,,,,,,,,,,,,,,88.83922422099567,,,,,,,,,,,,,,,,,,,,,,,,,,,,,,,,,,,,,,,,,,,,,,,,,,,,,,,,,,,,,,,,,,,,,,,,,,,,,929313,001,2023-01-27_14h53.59.190,Info_measure_main_exp,2022.2.4,60.04976143687002,
0,131,5,5,2043,2247,absent_patch/patch0002043.jpg,absent_patch/patch0002247.jpg,masks/mask_001.jpg,,,,,,,,,,,,,0,7,7,81,0,3,3,0,,,,,,,,,,,,,,,,,,,,,,,,,,,,,,,,,,,,,,,,,,,,,,88.90251611999702,,,,,,,,,,,,,,,,,,,,,,,,,,,,,,,,,,,,,,,,,,,,,,,,,,,,,,,,,,,,,,,,,,,,,,,,,,,,,929313,001,2023-01-27_14h53.59.190,Info_measure_main_exp,2022.2.4,60.04976143687002,
0,131,5,5,2043,2247,absent_patch/patch0002043.jpg,absent_patch/patch0002247.jpg,masks/mask_005.jpg,,,,,,,,,,,,,0,7,7,81,0,4,4,4,,,,,,,,,,,,,,,,,,,,,,,,,,,,,,,,,,,,,,,,,,,,,,88.96343825600343,,,,,,,,,,,,,,,,,,,,,,,,,,,,,,,,,,,,,,,,,,,,,,,,,,,,,,,,,,,,,,,,,,,,,,,,,,,,,929313,001,2023-01-27_14h53.59.190,Info_measure_main_exp,2022.2.4,60.04976143687002,
0,131,5,5,2043,2247,absent_patch/patch0002043.jpg,absent_patch/patch0002247.jpg,masks/mask_005.jpg,,,,,,,,,,,,,0,7,7,81,,,,,0,0,0,4,,,,,,,,,,,,,,,,,,,,,,,,,,,,,,,,,,,,,,,,,,89.6921311210026,,,,,,,,,,,,,,,,,,,,,,,,,,,,,,,,,,,,,,,,,,,,,,,,,,89.00066778399923,89.49943292999524,89.6921311210026,89.6921311210026,,,,,,,,,,,,,,,,,,,,,,,,929313,001,2023-01-27_14h53.59.190,Info_measure_main_exp,2022.2.4,60.04976143687002,
0,131,5,5,2043,2247,absent_patch/patch0002043.jpg,absent_patch/patch0002247.jpg,masks/mask_002.jpg,,,,,,,,,,,,,0,7,7,81,,,,,0,1,1,1,,,,,,,,,,,,,,,,,,,,,,,,,,,,,,,,,,,,,,,,,,89.75470685400069,,,,,,,,,,,,,,,,,,,,,,,,,,,,,,,,,,,,,,,,,,,,,,,,,,,,,,,,,,,,,,,,,,,,,,,,,,,,,929313,001,2023-01-27_14h53.59.190,Info_measure_main_exp,2022.2.4,60.04976143687002,
0,131,5,5,2043,2247,absent_patch/patch0002043.jpg,absent_patch/patch0002247.jpg,masks/mask_004.jpg,,,,,,,,,,,,,0,7,7,81,,,,,0,2,2,3,,,,,,,,,,,,,,,,,,,,,,,,,,,,,,,,,,,,,,,,,,89.7966905929934,,,,,,,,,,,,,,,,,,,,,,,,,,,,,,,,,,,,,,,,,,,,,,,,,,,,,,,,,,,,,,,,,,,,,,,,,,,,,929313,001,2023-01-27_14h53.59.190,Info_measure_main_exp,2022.2.4,60.04976143687002,
0,131,5,5,2043,2247,absent_patch/patch0002043.jpg,absent_patch/patch0002247.jpg,masks/mask_003.jpg,,,,,,,,,,,,,0,7,7,81,,,,,0,3,3,2,,,,,,,,,,,,,,,,,,,,,,,,,,,,,,,,,,,,,,,,,,89.85610398900462,,,,,,,,,,,,,,,,,,,,,,,,,,,,,,,,,,,,,,,,,,,,,,,,,,,,,,,,,,,,,,,,,,,,,,,,,,,,,929313,001,2023-01-27_14h53.59.190,Info_measure_main_exp,2022.2.4,60.04976143687002,
0,131,5,5,2043,2247,absent_patch/patch0002043.jpg,absent_patch/patch0002247.jpg,masks/mask_001.jpg,,,,,,,,,,,,,0,7,7,81,,,,,0,4,4,0,,,,,,,,,,,,,,,,,,,,,,,,,,,,,,,,,,,,,,,,,,89.9306477259961,,,,,,,,,,,,,,,,,,,,,,,,,,,,,,,,,,,,,,,,,,,,,,,,,,,,,,,,,,,,,,,,,,,,,,,,,,,,,929313,001,2023-01-27_14h53.59.190,Info_measure_main_exp,2022.2.4,60.04976143687002,
0,131,5,5,2043,2247,absent_patch/patch0002043.jpg,absent_patch/patch0002247.jpg,,,,,,,,,,,,,,0,7,7,81,,,,,,,,,,,,,,,,,,,,,,,,,,,,,,,,,,,,,,,,,,,,,,,,,,,,,,,,,,,,,,,,,,6,1.5585735350032337,1,,,,,,,,,,,,,,,,,,,,,,,,,,,,,,,,,,,,0.015397710012621246,89.98872510099318,89.98872510099318,89.98872510099318,89.98872510099318,0.11,0.0,1,0,0,response3disk,8,0.014379984000697732,91.56556431300123,91.56556431300123,91.56556431300123,91.56556431300123,-0.01,0.0011111111111111111,1,0,0,center_square,929313,001,2023-01-27_14h53.59.190,Info_measure_main_exp,2022.2.4,60.04976143687002,
0,131,5,5,2271,2031,absent_patch/patch0002271.jpg,absent_patch/patch0002031.jpg,masks/mask_004.jpg,,,,,,,,,,,,,0,8,8,91,0,0,0,3,,,,,,,,,,,,,,,,,,,,,,,,,,,,,,,,,,,,,,,,,,,,,,92.91651601399644,,,,,,,,,,,,,,,,,,,,,,,,,,,,,,,,,,,,,,,,,,,,,,92.23730477099889,92.72847595300118,92.87885015500069,92.91651601399644,,,,,,,,,,,,,,,,,,,,,,,,,,,,929313,001,2023-01-27_14h53.59.190,Info_measure_main_exp,2022.2.4,60.04976143687002,
0,131,5,5,2271,2031,absent_patch/patch0002271.jpg,absent_patch/patch0002031.jpg,masks/mask_001.jpg,,,,,,,,,,,,,0,8,8,91,0,1,1,0,,,,,,,,,,,,,,,,,,,,,,,,,,,,,,,,,,,,,,,,,,,,,,92.97488475299906,,,,,,,,,,,,,,,,,,,,,,,,,,,,,,,,,,,,,,,,,,,,,,,,,,,,,,,,,,,,,,,,,,,,,,,,,,,,,929313,001,2023-01-27_14h53.59.190,Info_measure_main_exp,2022.2.4,60.04976143687002,
0,131,5,5,2271,2031,absent_patch/patch0002271.jpg,absent_patch/patch0002031.jpg,masks/mask_005.jpg,,,,,,,,,,,,,0,8,8,91,0,2,2,4,,,,,,,,,,,,,,,,,,,,,,,,,,,,,,,,,,,,,,,,,,,,,,93.03186850399652,,,,,,,,,,,,,,,,,,,,,,,,,,,,,,,,,,,,,,,,,,,,,,,,,,,,,,,,,,,,,,,,,,,,,,,,,,,,,929313,001,2023-01-27_14h53.59.190,Info_measure_main_exp,2022.2.4,60.04976143687002,
0,131,5,5,2271,2031,absent_patch/patch0002271.jpg,absent_patch/patch0002031.jpg,masks/mask_002.jpg,,,,,,,,,,,,,0,8,8,91,0,3,3,1,,,,,,,,,,,,,,,,,,,,,,,,,,,,,,,,,,,,,,,,,,,,,,93.0881916990038,,,,,,,,,,,,,,,,,,,,,,,,,,,,,,,,,,,,,,,,,,,,,,,,,,,,,,,,,,,,,,,,,,,,,,,,,,,,,929313,001,2023-01-27_14h53.59.190,Info_measure_main_exp,2022.2.4,60.04976143687002,
0,131,5,5,2271,2031,absent_patch/patch0002271.jpg,absent_patch/patch0002031.jpg,masks/mask_003.jpg,,,,,,,,,,,,,0,8,8,91,0,4,4,2,,,,,,,,,,,,,,,,,,,,,,,,,,,,,,,,,,,,,,,,,,,,,,93.14727584499633,,,,,,,,,,,,,,,,,,,,,,,,,,,,,,,,,,,,,,,,,,,,,,,,,,,,,,,,,,,,,,,,,,,,,,,,,,,,,929313,001,2023-01-27_14h53.59.190,Info_measure_main_exp,2022.2.4,60.04976143687002,
0,131,5,5,2271,2031,absent_patch/patch0002271.jpg,absent_patch/patch0002031.jpg,masks/mask_001.jpg,,,,,,,,,,,,,0,8,8,91,,,,,0,0,0,0,,,,,,,,,,,,,,,,,,,,,,,,,,,,,,,,,,,,,,,,,,93.88224199799879,,,,,,,,,,,,,,,,,,,,,,,,,,,,,,,,,,,,,,,,,,,,,,,,,,93.20001459500054,93.69467841000005,93.84693354899355,93.88224199799879,,,,,,,,,,,,,,,,,,,,,,,,929313,001,2023-01-27_14h53.59.190,Info_measure_main_exp,2022.2.4,60.04976143687002,
0,131,5,5,2271,2031,absent_patch/patch0002271.jpg,absent_patch/patch0002031.jpg,masks/mask_004.jpg,,,,,,,,,,,,,0,8,8,91,,,,,0,1,1,3,,,,,,,,,,,,,,,,,,,,,,,,,,,,,,,,,,,,,,,,,,93.93822527400334,,,,,,,,,,,,,,,,,,,,,,,,,,,,,,,,,,,,,,,,,,,,,,,,,,,,,,,,,,,,,,,,,,,,,,,,,,,,,929313,001,2023-01-27_14h53.59.190,Info_measure_main_exp,2022.2.4,60.04976143687002,
0,131,5,5,2271,2031,absent_patch/patch0002271.jpg,absent_patch/patch0002031.jpg,masks/mask_003.jpg,,,,,,,,,,,,,0,8,8,91,,,,,0,2,2,2,,,,,,,,,,,,,,,,,,,,,,,,,,,,,,,,,,,,,,,,,,93.99946189200273,,,,,,,,,,,,,,,,,,,,,,,,,,,,,,,,,,,,,,,,,,,,,,,,,,,,,,,,,,,,,,,,,,,,,,,,,,,,,929313,001,2023-01-27_14h53.59.190,Info_measure_main_exp,2022.2.4,60.04976143687002,
0,131,5,5,2271,2031,absent_patch/patch0002271.jpg,absent_patch/patch0002031.jpg,masks/mask_002.jpg,,,,,,,,,,,,,0,8,8,91,,,,,0,3,3,1,,,,,,,,,,,,,,,,,,,,,,,,,,,,,,,,,,,,,,,,,,94.06386632799695,,,,,,,,,,,,,,,,,,,,,,,,,,,,,,,,,,,,,,,,,,,,,,,,,,,,,,,,,,,,,,,,,,,,,,,,,,,,,929313,001,2023-01-27_14h53.59.190,Info_measure_main_exp,2022.2.4,60.04976143687002,
0,131,5,5,2271,2031,absent_patch/patch0002271.jpg,absent_patch/patch0002031.jpg,masks/mask_005.jpg,,,,,,,,,,,,,0,8,8,91,,,,,0,4,4,4,,,,,,,,,,,,,,,,,,,,,,,,,,,,,,,,,,,,,,,,,,94.12650525699428,,,,,,,,,,,,,,,,,,,,,,,,,,,,,,,,,,,,,,,,,,,,,,,,,,,,,,,,,,,,,,,,,,,,,,,,,,,,,929313,001,2023-01-27_14h53.59.190,Info_measure_main_exp,2022.2.4,60.04976143687002,
0,131,5,5,2271,2031,absent_patch/patch0002271.jpg,absent_patch/patch0002031.jpg,,,,,,,,,,,,,,0,8,8,91,,,,,,,,,,,,,,,,,,,,,,,,,,,,,,,,,,,,,,,,,,,,,,,,,,,,,,,,,,,,,,,,,,7,1.4915090369904647,1,,,,,,,,,,,,,,,,,,,,,,,,,,,,,,,,,,,,0.015166730008786544,94.18349278399546,94.18349278399546,94.18349278399546,94.18349278399546,0.15222222222222223,0.27555555555555555,1,0,0,response1disk,9,0.011341393998009153,95.68990133400075,95.68990133400075,95.68990133400075,95.68990133400075,0.011111111111111112,0.006666666666666667,1,0,0,center_square,929313,001,2023-01-27_14h53.59.190,Info_measure_main_exp,2022.2.4,60.04976143687002,
1,131,5,5,1,2043,present_patch/cong_131_3_a.jpg,absent_patch/patch0002043.jpg,masks/mask_001.jpg,,,,,,,,,,,,,0,9,9,110,0,0,0,0,,,,,,,,,,,,,,,,,,,,,,,,,,,,,,,,,,,,,,,,,,,,,,96.99857938899368,,,,,,,,,,,,,,,,,,,,,,,,,,,,,,,,,,,,,,,,,,,,,,96.3249272910034,96.81185740100045,96.99857938899368,96.99857938899368,,,,,,,,,,,,,,,,,,,,,,,,,,,,929313,001,2023-01-27_14h53.59.190,Info_measure_main_exp,2022.2.4,60.04976143687002,
1,131,5,5,1,2043,present_patch/cong_131_3_a.jpg,absent_patch/patch0002043.jpg,masks/mask_004.jpg,,,,,,,,,,,,,0,9,9,110,0,1,1,3,,,,,,,,,,,,,,,,,,,,,,,,,,,,,,,,,,,,,,,,,,,,,,97.0552039710019,,,,,,,,,,,,,,,,,,,,,,,,,,,,,,,,,,,,,,,,,,,,,,,,,,,,,,,,,,,,,,,,,,,,,,,,,,,,,929313,001,2023-01-27_14h53.59.190,Info_measure_main_exp,2022.2.4,60.04976143687002,
1,131,5,5,1,2043,present_patch/cong_131_3_a.jpg,absent_patch/patch0002043.jpg,masks/mask_003.jpg,,,,,,,,,,,,,0,9,9,110,0,2,2,2,,,,,,,,,,,,,,,,,,,,,,,,,,,,,,,,,,,,,,,,,,,,,,97.11300849200052,,,,,,,,,,,,,,,,,,,,,,,,,,,,,,,,,,,,,,,,,,,,,,,,,,,,,,,,,,,,,,,,,,,,,,,,,,,,,929313,001,2023-01-27_14h53.59.190,Info_measure_main_exp,2022.2.4,60.04976143687002,
1,131,5,5,1,2043,present_patch/cong_131_3_a.jpg,absent_patch/patch0002043.jpg,masks/mask_005.jpg,,,,,,,,,,,,,0,9,9,110,0,3,3,4,,,,,,,,,,,,,,,,,,,,,,,,,,,,,,,,,,,,,,,,,,,,,,97.18071900299401,,,,,,,,,,,,,,,,,,,,,,,,,,,,,,,,,,,,,,,,,,,,,,,,,,,,,,,,,,,,,,,,,,,,,,,,,,,,,929313,001,2023-01-27_14h53.59.190,Info_measure_main_exp,2022.2.4,60.04976143687002,
1,131,5,5,1,2043,present_patch/cong_131_3_a.jpg,absent_patch/patch0002043.jpg,masks/mask_002.jpg,,,,,,,,,,,,,0,9,9,110,0,4,4,1,,,,,,,,,,,,,,,,,,,,,,,,,,,,,,,,,,,,,,,,,,,,,,97.238968028003,,,,,,,,,,,,,,,,,,,,,,,,,,,,,,,,,,,,,,,,,,,,,,,,,,,,,,,,,,,,,,,,,,,,,,,,,,,,,929313,001,2023-01-27_14h53.59.190,Info_measure_main_exp,2022.2.4,60.04976143687002,
1,131,5,5,1,2043,present_patch/cong_131_3_a.jpg,absent_patch/patch0002043.jpg,masks/mask_002.jpg,,,,,,,,,,,,,0,9,9,110,,,,,0,0,0,1,,,,,,,,,,,,,,,,,,,,,,,,,,,,,,,,,,,,,,,,,,97.97869021199585,,,,,,,,,,,,,,,,,,,,,,,,,,,,,,,,,,,,,,,,,,,,,,,,,,97.28833368199412,97.77198836900061,97.93203068399453,97.97869021199585,,,,,,,,,,,,,,,,,,,,,,,,929313,001,2023-01-27_14h53.59.190,Info_measure_main_exp,2022.2.4,60.04976143687002,
1,131,5,5,1,2043,present_patch/cong_131_3_a.jpg,absent_patch/patch0002043.jpg,masks/mask_005.jpg,,,,,,,,,,,,,0,9,9,110,,,,,0,1,1,4,,,,,,,,,,,,,,,,,,,,,,,,,,,,,,,,,,,,,,,,,,98.02504376000434,,,,,,,,,,,,,,,,,,,,,,,,,,,,,,,,,,,,,,,,,,,,,,,,,,,,,,,,,,,,,,,,,,,,,,,,,,,,,929313,001,2023-01-27_14h53.59.190,Info_measure_main_exp,2022.2.4,60.04976143687002,
1,131,5,5,1,2043,present_patch/cong_131_3_a.jpg,absent_patch/patch0002043.jpg,masks/mask_004.jpg,,,,,,,,,,,,,0,9,9,110,,,,,0,2,2,3,,,,,,,,,,,,,,,,,,,,,,,,,,,,,,,,,,,,,,,,,,98.08372435899219,,,,,,,,,,,,,,,,,,,,,,,,,,,,,,,,,,,,,,,,,,,,,,,,,,,,,,,,,,,,,,,,,,,,,,,,,,,,,929313,001,2023-01-27_14h53.59.190,Info_measure_main_exp,2022.2.4,60.04976143687002,
1,131,5,5,1,2043,present_patch/cong_131_3_a.jpg,absent_patch/patch0002043.jpg,masks/mask_001.jpg,,,,,,,,,,,,,0,9,9,110,,,,,0,3,3,0,,,,,,,,,,,,,,,,,,,,,,,,,,,,,,,,,,,,,,,,,,98.14390631999413,,,,,,,,,,,,,,,,,,,,,,,,,,,,,,,,,,,,,,,,,,,,,,,,,,,,,,,,,,,,,,,,,,,,,,,,,,,,,929313,001,2023-01-27_14h53.59.190,Info_measure_main_exp,2022.2.4,60.04976143687002,
1,131,5,5,1,2043,present_patch/cong_131_3_a.jpg,absent_patch/patch0002043.jpg,masks/mask_003.jpg,,,,,,,,,,,,,0,9,9,110,,,,,0,4,4,2,,,,,,,,,,,,,,,,,,,,,,,,,,,,,,,,,,,,,,,,,,98.20175874799315,,,,,,,,,,,,,,,,,,,,,,,,,,,,,,,,,,,,,,,,,,,,,,,,,,,,,,,,,,,,,,,,,,,,,,,,,,,,,929313,001,2023-01-27_14h53.59.190,Info_measure_main_exp,2022.2.4,60.04976143687002,
1,131,5,5,1,2043,present_patch/cong_131_3_a.jpg,absent_patch/patch0002043.jpg,,,,,,,,,,,,,,0,9,9,110,,,,,,,,,,,,,,,,,,,,,,,,,,,,,,,,,,,,,,,,,,,,,,,,,,,,,,,,,,,,,,,,,,7,0.9566063550009858,1,,,,,,,,,,,,,,,,,,,,,,,,,,,,,,,,,,,,0.004289964999770746,98.25853409199044,98.25853409199044,98.25853409199044,98.25853409199044,0.06222222222222222,0.11222222222222222,1,0,0,response1disk,10,0.009975827008020133,99.22653506699135,99.22653506699135,99.22653506699135,99.22653506699135,-0.016666666666666666,-0.03333333333333333,1,0,0,center_square,929313,001,2023-01-27_14h53.59.190,Info_measure_main_exp,2022.2.4,60.04976143687002,
0,131,5,5,2247,2247,absent_patch/patch0002247.jpg,absent_patch/patch0002247.jpg,masks/mask_002.jpg,,,,,,,,,,,,,0,10,10,35,0,0,0,1,,,,,,,,,,,,,,,,,,,,,,,,,,,,,,,,,,,,,,,,,,,,,,101.02861439899425,,,,,,,,,,,,,,,,,,,,,,,,,,,,,,,,,,,,,,,,,,,,,,100.32873672500136,100.82383589199162,101.02861439899425,101.02861439899425,,,,,,,,,,,,,,,,,,,,,,,,,,,,929313,001,2023-01-27_14h53.59.190,Info_measure_main_exp,2022.2.4,60.04976143687002,
0,131,5,5,2247,2247,absent_patch/patch0002247.jpg,absent_patch/patch0002247.jpg,masks/mask_001.jpg,,,,,,,,,,,,,0,10,10,35,0,1,1,0,,,,,,,,,,,,,,,,,,,,,,,,,,,,,,,,,,,,,,,,,,,,,,101.07831263299158,,,,,,,,,,,,,,,,,,,,,,,,,,,,,,,,,,,,,,,,,,,,,,,,,,,,,,,,,,,,,,,,,,,,,,,,,,,,,929313,001,2023-01-27_14h53.59.190,Info_measure_main_exp,2022.2.4,60.04976143687002,
0,131,5,5,2247,2247,absent_patch/patch0002247.jpg,absent_patch/patch0002247.jpg,masks/mask_005.jpg,,,,,,,,,,,,,0,10,10,35,0,2,2,4,,,,,,,,,,,,,,,,,,,,,,,,,,,,,,,,,,,,,,,,,,,,,,101.12472020099813,,,,,,,,,,,,,,,,,,,,,,,,,,,,,,,,,,,,,,,,,,,,,,,,,,,,,,,,,,,,,,,,,,,,,,,,,,,,,929313,001,2023-01-27_14h53.59.190,Info_measure_main_exp,2022.2.4,60.04976143687002,
0,131,5,5,2247,2247,absent_patch/patch0002247.jpg,absent_patch/patch0002247.jpg,masks/mask_003.jpg,,,,,,,,,,,,,0,10,10,35,0,3,3,2,,,,,,,,,,,,,,,,,,,,,,,,,,,,,,,,,,,,,,,,,,,,,,101.18558843400388,,,,,,,,,,,,,,,,,,,,,,,,,,,,,,,,,,,,,,,,,,,,,,,,,,,,,,,,,,,,,,,,,,,,,,,,,,,,,929313,001,2023-01-27_14h53.59.190,Info_measure_main_exp,2022.2.4,60.04976143687002,
0,131,5,5,2247,2247,absent_patch/patch0002247.jpg,absent_patch/patch0002247.jpg,masks/mask_004.jpg,,,,,,,,,,,,,0,10,10,35,0,4,4,3,,,,,,,,,,,,,,,,,,,,,,,,,,,,,,,,,,,,,,,,,,,,,,101.24742128800426,,,,,,,,,,,,,,,,,,,,,,,,,,,,,,,,,,,,,,,,,,,,,,,,,,,,,,,,,,,,,,,,,,,,,,,,,,,,,929313,001,2023-01-27_14h53.59.190,Info_measure_main_exp,2022.2.4,60.04976143687002,
0,131,5,5,2247,2247,absent_patch/patch0002247.jpg,absent_patch/patch0002247.jpg,masks/mask_002.jpg,,,,,,,,,,,,,0,10,10,35,,,,,0,0,0,1,,,,,,,,,,,,,,,,,,,,,,,,,,,,,,,,,,,,,,,,,,101.99314320999838,,,,,,,,,,,,,,,,,,,,,,,,,,,,,,,,,,,,,,,,,,,,,,,,,,101.30140821100213,101.7894011259923,101.94809015200008,101.99314320999838,,,,,,,,,,,,,,,,,,,,,,,,929313,001,2023-01-27_14h53.59.190,Info_measure_main_exp,2022.2.4,60.04976143687002,
0,131,5,5,2247,2247,absent_patch/patch0002247.jpg,absent_patch/patch0002247.jpg,masks/mask_004.jpg,,,,,,,,,,,,,0,10,10,35,,,,,0,1,1,3,,,,,,,,,,,,,,,,,,,,,,,,,,,,,,,,,,,,,,,,,,102.03718858699722,,,,,,,,,,,,,,,,,,,,,,,,,,,,,,,,,,,,,,,,,,,,,,,,,,,,,,,,,,,,,,,,,,,,,,,,,,,,,929313,001,2023-01-27_14h53.59.190,Info_measure_main_exp,2022.2.4,60.04976143687002,
0,131,5,5,2247,2247,absent_patch/patch0002247.jpg,absent_patch/patch0002247.jpg,masks/mask_003.jpg,,,,,,,,,,,,,0,10,10,35,,,,,0,2,2,2,,,,,,,,,,,,,,,,,,,,,,,,,,,,,,,,,,,,,,,,,,102.09919439199439,,,,,,,,,,,,,,,,,,,,,,,,,,,,,,,,,,,,,,,,,,,,,,,,,,,,,,,,,,,,,,,,,,,,,,,,,,,,,929313,001,2023-01-27_14h53.59.190,Info_measure_main_exp,2022.2.4,60.04976143687002,
0,131,5,5,2247,2247,absent_patch/patch0002247.jpg,absent_patch/patch0002247.jpg,masks/mask_005.jpg,,,,,,,,,,,,,0,10,10,35,,,,,0,3,3,4,,,,,,,,,,,,,,,,,,,,,,,,,,,,,,,,,,,,,,,,,,102.16206960000272,,,,,,,,,,,,,,,,,,,,,,,,,,,,,,,,,,,,,,,,,,,,,,,,,,,,,,,,,,,,,,,,,,,,,,,,,,,,,929313,001,2023-01-27_14h53.59.190,Info_measure_main_exp,2022.2.4,60.04976143687002,
0,131,5,5,2247,2247,absent_patch/patch0002247.jpg,absent_patch/patch0002247.jpg,masks/mask_001.jpg,,,,,,,,,,,,,0,10,10,35,,,,,0,4,4,0,,,,,,,,,,,,,,,,,,,,,,,,,,,,,,,,,,,,,,,,,,102.22434803200304,,,,,,,,,,,,,,,,,,,,,,,,,,,,,,,,,,,,,,,,,,,,,,,,,,,,,,,,,,,,,,,,,,,,,,,,,,,,,929313,001,2023-01-27_14h53.59.190,Info_measure_main_exp,2022.2.4,60.04976143687002,
0,131,5,5,2247,2247,absent_patch/patch0002247.jpg,absent_patch/patch0002247.jpg,,,,,,,,,,,,,,0,10,10,35,,,,,,,,,,,,,,,,,,,,,,,,,,,,,,,,,,,,,,,,,,,,,,,,,,,,,,,,,,,,,,,,,,0,0.5096101389935939,1,,,,,,,,,,,,,,,,,,,,,,,,,,,,,,,,,,,,0.01061528202262707,102.28262772200105,102.28262772200105,102.28262772200105,102.28262772200105,-0.07111111111111111,0.17222222222222222,1,0,0,response7disk,11,0.00897482999425847,102.80430919300125,102.80430919300125,102.80430919300125,102.80430919300125,-0.022222222222222223,0.016666666666666666,1,0,0,center_square,929313,001,2023-01-27_14h53.59.190,Info_measure_main_exp,2022.2.4,60.04976143687002,
0,131,5,5,2175,2079,absent_patch/patch0002175.jpg,absent_patch/patch0002079.jpg,masks/mask_005.jpg,,,,,,,,,,,,,0,11,11,88,0,0,0,4,,,,,,,,,,,,,,,,,,,,,,,,,,,,,,,,,,,,,,,,,,,,,,103.99163827399025,,,,,,,,,,,,,,,,,,,,,,,,,,,,,,,,,,,,,,,,,,,,,,103.30071611099993,103.79704278700228,103.99163827399025,103.99163827399025,,,,,,,,,,,,,,,,,,,,,,,,,,,,929313,001,2023-01-27_14h53.59.190,Info_measure_main_exp,2022.2.4,60.04976143687002,
0,131,5,5,2175,2079,absent_patch/patch0002175.jpg,absent_patch/patch0002079.jpg,masks/mask_001.jpg,,,,,,,,,,,,,0,11,11,88,0,1,1,0,,,,,,,,,,,,,,,,,,,,,,,,,,,,,,,,,,,,,,,,,,,,,,104.04339977700147,,,,,,,,,,,,,,,,,,,,,,,,,,,,,,,,,,,,,,,,,,,,,,,,,,,,,,,,,,,,,,,,,,,,,,,,,,,,,929313,001,2023-01-27_14h53.59.190,Info_measure_main_exp,2022.2.4,60.04976143687002,
0,131,5,5,2175,2079,absent_patch/patch0002175.jpg,absent_patch/patch0002079.jpg,masks/mask_002.jpg,,,,,,,,,,,,,0,11,11,88,0,2,2,1,,,,,,,,,,,,,,,,,,,,,,,,,,,,,,,,,,,,,,,,,,,,,,104.10941975499736,,,,,,,,,,,,,,,,,,,,,,,,,,,,,,,,,,,,,,,,,,,,,,,,,,,,,,,,,,,,,,,,,,,,,,,,,,,,,929313,001,2023-01-27_14h53.59.190,Info_measure_main_exp,2022.2.4,60.04976143687002,
0,131,5,5,2175,2079,absent_patch/patch0002175.jpg,absent_patch/patch0002079.jpg,masks/mask_003.jpg,,,,,,,,,,,,,0,11,11,88,0,3,3,2,,,,,,,,,,,,,,,,,,,,,,,,,,,,,,,,,,,,,,,,,,,,,,104.15384187900054,,,,,,,,,,,,,,,,,,,,,,,,,,,,,,,,,,,,,,,,,,,,,,,,,,,,,,,,,,,,,,,,,,,,,,,,,,,,,929313,001,2023-01-27_14h53.59.190,Info_measure_main_exp,2022.2.4,60.04976143687002,
0,131,5,5,2175,2079,absent_patch/patch0002175.jpg,absent_patch/patch0002079.jpg,masks/mask_004.jpg,,,,,,,,,,,,,0,11,11,88,0,4,4,3,,,,,,,,,,,,,,,,,,,,,,,,,,,,,,,,,,,,,,,,,,,,,,104.22892531099205,,,,,,,,,,,,,,,,,,,,,,,,,,,,,,,,,,,,,,,,,,,,,,,,,,,,,,,,,,,,,,,,,,,,,,,,,,,,,929313,001,2023-01-27_14h53.59.190,Info_measure_main_exp,2022.2.4,60.04976143687002,
0,131,5,5,2175,2079,absent_patch/patch0002175.jpg,absent_patch/patch0002079.jpg,masks/mask_002.jpg,,,,,,,,,,,,,0,11,11,88,,,,,0,0,0,1,,,,,,,,,,,,,,,,,,,,,,,,,,,,,,,,,,,,,,,,,,104.94289062099415,,,,,,,,,,,,,,,,,,,,,,,,,,,,,,,,,,,,,,,,,,,,,,,,,,104.26559515699046,104.7500818999979,104.90201772100409,104.94289062099415,,,,,,,,,,,,,,,,,,,,,,,,929313,001,2023-01-27_14h53.59.190,Info_measure_main_exp,2022.2.4,60.04976143687002,
0,131,5,5,2175,2079,absent_patch/patch0002175.jpg,absent_patch/patch0002079.jpg,masks/mask_003.jpg,,,,,,,,,,,,,0,11,11,88,,,,,0,1,1,2,,,,,,,,,,,,,,,,,,,,,,,,,,,,,,,,,,,,,,,,,,105.0016539079952,,,,,,,,,,,,,,,,,,,,,,,,,,,,,,,,,,,,,,,,,,,,,,,,,,,,,,,,,,,,,,,,,,,,,,,,,,,,,929313,001,2023-01-27_14h53.59.190,Info_measure_main_exp,2022.2.4,60.04976143687002,
0,131,5,5,2175,2079,absent_patch/patch0002175.jpg,absent_patch/patch0002079.jpg,masks/mask_001.jpg,,,,,,,,,,,,,0,11,11,88,,,,,0,2,2,0,,,,,,,,,,,,,,,,,,,,,,,,,,,,,,,,,,,,,,,,,,105.06130397699599,,,,,,,,,,,,,,,,,,,,,,,,,,,,,,,,,,,,,,,,,,,,,,,,,,,,,,,,,,,,,,,,,,,,,,,,,,,,,929313,001,2023-01-27_14h53.59.190,Info_measure_main_exp,2022.2.4,60.04976143687002,
0,131,5,5,2175,2079,absent_patch/patch0002175.jpg,absent_patch/patch0002079.jpg,masks/mask_005.jpg,,,,,,,,,,,,,0,11,11,88,,,,,0,3,3,4,,,,,,,,,,,,,,,,,,,,,,,,,,,,,,,,,,,,,,,,,,105.12441146899073,,,,,,,,,,,,,,,,,,,,,,,,,,,,,,,,,,,,,,,,,,,,,,,,,,,,,,,,,,,,,,,,,,,,,,,,,,,,,929313,001,2023-01-27_14h53.59.190,Info_measure_main_exp,2022.2.4,60.04976143687002,
0,131,5,5,2175,2079,absent_patch/patch0002175.jpg,absent_patch/patch0002079.jpg,masks/mask_004.jpg,,,,,,,,,,,,,0,11,11,88,,,,,0,4,4,3,,,,,,,,,,,,,,,,,,,,,,,,,,,,,,,,,,,,,,,,,,105.19165479300136,,,,,,,,,,,,,,,,,,,,,,,,,,,,,,,,,,,,,,,,,,,,,,,,,,,,,,,,,,,,,,,,,,,,,,,,,,,,,929313,001,2023-01-27_14h53.59.190,Info_measure_main_exp,2022.2.4,60.04976143687002,
0,131,5,5,2175,2079,absent_patch/patch0002175.jpg,absent_patch/patch0002079.jpg,,,,,,,,,,,,,,0,11,11,88,,,,,,,,,,,,,,,,,,,,,,,,,,,,,,,,,,,,,,,,,,,,,,,,,,,,,,,,,,,,,,,,,,7,1.2745850979990792,1,,,,,,,,,,,,,,,,,,,,,,,,,,,,,,,,,,,,0.00826562600559555,105.23774194699945,105.23774194699945,105.23774194699945,105.23774194699945,0.07444444444444444,0.20333333333333334,1,0,0,response1disk,12,0.01456333399983123,106.52818225200463,106.52818225200463,106.52818225200463,106.52818225200463,-0.0022222222222222222,-0.014444444444444444,1,0,0,center_square,929313,001,2023-01-27_14h53.59.190,Info_measure_main_exp,2022.2.4,60.04976143687002,
0,131,5,5,2211,1947,absent_patch/patch0002211.jpg,absent_patch/patch0001947.jpg,masks/mask_001.jpg,,,,,,,,,,,,,0,12,12,97,0,0,0,0,,,,,,,,,,,,,,,,,,,,,,,,,,,,,,,,,,,,,,,,,,,,,,107.72233863000292,,,,,,,,,,,,,,,,,,,,,,,,,,,,,,,,,,,,,,,,,,,,,,107.03759294700285,107.52367900699028,107.72233863000292,107.72233863000292,,,,,,,,,,,,,,,,,,,,,,,,,,,,929313,001,2023-01-27_14h53.59.190,Info_measure_main_exp,2022.2.4,60.04976143687002,
0,131,5,5,2211,1947,absent_patch/patch0002211.jpg,absent_patch/patch0001947.jpg,masks/mask_002.jpg,,,,,,,,,,,,,0,12,12,97,0,1,1,1,,,,,,,,,,,,,,,,,,,,,,,,,,,,,,,,,,,,,,,,,,,,,,107.7691112600005,,,,,,,,,,,,,,,,,,,,,,,,,,,,,,,,,,,,,,,,,,,,,,,,,,,,,,,,,,,,,,,,,,,,,,,,,,,,,929313,001,2023-01-27_14h53.59.190,Info_measure_main_exp,2022.2.4,60.04976143687002,
0,131,5,5,2211,1947,absent_patch/patch0002211.jpg,absent_patch/patch0001947.jpg,masks/mask_003.jpg,,,,,,,,,,,,,0,12,12,97,0,2,2,2,,,,,,,,,,,,,,,,,,,,,,,,,,,,,,,,,,,,,,,,,,,,,,107.83096573599323,,,,,,,,,,,,,,,,,,,,,,,,,,,,,,,,,,,,,,,,,,,,,,,,,,,,,,,,,,,,,,,,,,,,,,,,,,,,,929313,001,2023-01-27_14h53.59.190,Info_measure_main_exp,2022.2.4,60.04976143687002,
0,131,5,5,2211,1947,absent_patch/patch0002211.jpg,absent_patch/patch0001947.jpg,masks/mask_004.jpg,,,,,,,,,,,,,0,12,12,97,0,3,3,3,,,,,,,,,,,,,,,,,,,,,,,,,,,,,,,,,,,,,,,,,,,,,,107.89233500699629,,,,,,,,,,,,,,,,,,,,,,,,,,,,,,,,,,,,,,,,,,,,,,,,,,,,,,,,,,,,,,,,,,,,,,,,,,,,,929313,001,2023-01-27_14h53.59.190,Info_measure_main_exp,2022.2.4,60.04976143687002,
0,131,5,5,2211,1947,absent_patch/patch0002211.jpg,absent_patch/patch0001947.jpg,masks/mask_005.jpg,,,,,,,,,,,,,0,12,12,97,0,4,4,4,,,,,,,,,,,,,,,,,,,,,,,,,,,,,,,,,,,,,,,,,,,,,,107.95280023399391,,,,,,,,,,,,,,,,,,,,,,,,,,,,,,,,,,,,,,,,,,,,,,,,,,,,,,,,,,,,,,,,,,,,,,,,,,,,,929313,001,2023-01-27_14h53.59.190,Info_measure_main_exp,2022.2.4,60.04976143687002,
0,131,5,5,2211,1947,absent_patch/patch0002211.jpg,absent_patch/patch0001947.jpg,masks/mask_005.jpg,,,,,,,,,,,,,0,12,12,97,,,,,0,0,0,4,,,,,,,,,,,,,,,,,,,,,,,,,,,,,,,,,,,,,,,,,,108.68324399599805,,,,,,,,,,,,,,,,,,,,,,,,,,,,,,,,,,,,,,,,,,,,,,,,,,108.00540826599172,108.48335372000292,108.64236721899942,108.68324399599805,,,,,,,,,,,,,,,,,,,,,,,,929313,001,2023-01-27_14h53.59.190,Info_measure_main_exp,2022.2.4,60.04976143687002,
0,131,5,5,2211,1947,absent_patch/patch0002211.jpg,absent_patch/patch0001947.jpg,masks/mask_003.jpg,,,,,,,,,,,,,0,12,12,97,,,,,0,1,1,2,,,,,,,,,,,,,,,,,,,,,,,,,,,,,,,,,,,,,,,,,,108.74865155799489,,,,,,,,,,,,,,,,,,,,,,,,,,,,,,,,,,,,,,,,,,,,,,,,,,,,,,,,,,,,,,,,,,,,,,,,,,,,,929313,001,2023-01-27_14h53.59.190,Info_measure_main_exp,2022.2.4,60.04976143687002,
0,131,5,5,2211,1947,absent_patch/patch0002211.jpg,absent_patch/patch0001947.jpg,masks/mask_004.jpg,,,,,,,,,,,,,0,12,12,97,,,,,0,2,2,3,,,,,,,,,,,,,,,,,,,,,,,,,,,,,,,,,,,,,,,,,,108.79490576600074,,,,,,,,,,,,,,,,,,,,,,,,,,,,,,,,,,,,,,,,,,,,,,,,,,,,,,,,,,,,,,,,,,,,,,,,,,,,,929313,001,2023-01-27_14h53.59.190,Info_measure_main_exp,2022.2.4,60.04976143687002,
0,131,5,5,2211,1947,absent_patch/patch0002211.jpg,absent_patch/patch0001947.jpg,masks/mask_001.jpg,,,,,,,,,,,,,0,12,12,97,,,,,0,3,3,0,,,,,,,,,,,,,,,,,,,,,,,,,,,,,,,,,,,,,,,,,,108.85878146499454,,,,,,,,,,,,,,,,,,,,,,,,,,,,,,,,,,,,,,,,,,,,,,,,,,,,,,,,,,,,,,,,,,,,,,,,,,,,,929313,001,2023-01-27_14h53.59.190,Info_measure_main_exp,2022.2.4,60.04976143687002,
0,131,5,5,2211,1947,absent_patch/patch0002211.jpg,absent_patch/patch0001947.jpg,masks/mask_002.jpg,,,,,,,,,,,,,0,12,12,97,,,,,0,4,4,1,,,,,,,,,,,,,,,,,,,,,,,,,,,,,,,,,,,,,,,,,,108.92101668599935,,,,,,,,,,,,,,,,,,,,,,,,,,,,,,,,,,,,,,,,,,,,,,,,,,,,,,,,,,,,,,,,,,,,,,,,,,,,,929313,001,2023-01-27_14h53.59.190,Info_measure_main_exp,2022.2.4,60.04976143687002,
0,131,5,5,2211,1947,absent_patch/patch0002211.jpg,absent_patch/patch0001947.jpg,,,,,,,,,,,,,,0,12,12,97,,,,,,,,,,,,,,,,,,,,,,,,,,,,,,,,,,,,,,,,,,,,,,,,,,,,,,,,,,,,,,,,,,6,0.7805964500003029,1,,,,,,,,,,,,,,,,,,,,,,,,,,,,,,,,,,,,0.013593185023637488,108.98205537100148,108.98205537100148,108.98205537100148,108.98205537100148,0.20333333333333334,0.07666666666666666,1,0,0,response1disk,13,0.015965283004334196,109.78082859999267,109.78082859999267,109.78082859999267,109.78082859999267,0.005555555555555556,-0.011111111111111112,1,0,0,center_square,929313,001,2023-01-27_14h53.59.190,Info_measure_main_exp,2022.2.4,60.04976143687002,
0,131,5,5,2151,2271,absent_patch/patch0002151.jpg,absent_patch/patch0002271.jpg,masks/mask_004.jpg,,,,,,,,,,,,,0,13,13,116,0,0,0,3,,,,,,,,,,,,,,,,,,,,,,,,,,,,,,,,,,,,,,,,,,,,,,110.9492243220011,,,,,,,,,,,,,,,,,,,,,,,,,,,,,,,,,,,,,,,,,,,,,,110.2719350749976,110.75196251599118,110.90949026300223,110.9492243220011,,,,,,,,,,,,,,,,,,,,,,,,,,,,929313,001,2023-01-27_14h53.59.190,Info_measure_main_exp,2022.2.4,60.04976143687002,
0,131,5,5,2151,2271,absent_patch/patch0002151.jpg,absent_patch/patch0002271.jpg,masks/mask_002.jpg,,,,,,,,,,,,,0,13,13,116,0,1,1,1,,,,,,,,,,,,,,,,,,,,,,,,,,,,,,,,,,,,,,,,,,,,,,111.01221965999866,,,,,,,,,,,,,,,,,,,,,,,,,,,,,,,,,,,,,,,,,,,,,,,,,,,,,,,,,,,,,,,,,,,,,,,,,,,,,929313,001,2023-01-27_14h53.59.190,Info_measure_main_exp,2022.2.4,60.04976143687002,
0,131,5,5,2151,2271,absent_patch/patch0002151.jpg,absent_patch/patch0002271.jpg,masks/mask_005.jpg,,,,,,,,,,,,,0,13,13,116,0,2,2,4,,,,,,,,,,,,,,,,,,,,,,,,,,,,,,,,,,,,,,,,,,,,,,111.07298465000349,,,,,,,,,,,,,,,,,,,,,,,,,,,,,,,,,,,,,,,,,,,,,,,,,,,,,,,,,,,,,,,,,,,,,,,,,,,,,929313,001,2023-01-27_14h53.59.190,Info_measure_main_exp,2022.2.4,60.04976143687002,
0,131,5,5,2151,2271,absent_patch/patch0002151.jpg,absent_patch/patch0002271.jpg,masks/mask_001.jpg,,,,,,,,,,,,,0,13,13,116,0,3,3,0,,,,,,,,,,,,,,,,,,,,,,,,,,,,,,,,,,,,,,,,,,,,,,111.1332455889933,,,,,,,,,,,,,,,,,,,,,,,,,,,,,,,,,,,,,,,,,,,,,,,,,,,,,,,,,,,,,,,,,,,,,,,,,,,,,929313,001,2023-01-27_14h53.59.190,Info_measure_main_exp,2022.2.4,60.04976143687002,
0,131,5,5,2151,2271,absent_patch/patch0002151.jpg,absent_patch/patch0002271.jpg,masks/mask_003.jpg,,,,,,,,,,,,,0,13,13,116,0,4,4,2,,,,,,,,,,,,,,,,,,,,,,,,,,,,,,,,,,,,,,,,,,,,,,111.19375454599503,,,,,,,,,,,,,,,,,,,,,,,,,,,,,,,,,,,,,,,,,,,,,,,,,,,,,,,,,,,,,,,,,,,,,,,,,,,,,929313,001,2023-01-27_14h53.59.190,Info_measure_main_exp,2022.2.4,60.04976143687002,
0,131,5,5,2151,2271,absent_patch/patch0002151.jpg,absent_patch/patch0002271.jpg,masks/mask_004.jpg,,,,,,,,,,,,,0,13,13,116,,,,,0,0,0,3,,,,,,,,,,,,,,,,,,,,,,,,,,,,,,,,,,,,,,,,,,111.92023536100169,,,,,,,,,,,,,,,,,,,,,,,,,,,,,,,,,,,,,,,,,,,,,,,,,,111.23215248199995,111.7246003219916,111.92023536100169,111.92023536100169,,,,,,,,,,,,,,,,,,,,,,,,929313,001,2023-01-27_14h53.59.190,Info_measure_main_exp,2022.2.4,60.04976143687002,
0,131,5,5,2151,2271,absent_patch/patch0002151.jpg,absent_patch/patch0002271.jpg,masks/mask_003.jpg,,,,,,,,,,,,,0,13,13,116,,,,,0,1,1,2,,,,,,,,,,,,,,,,,,,,,,,,,,,,,,,,,,,,,,,,,,111.97078047499235,,,,,,,,,,,,,,,,,,,,,,,,,,,,,,,,,,,,,,,,,,,,,,,,,,,,,,,,,,,,,,,,,,,,,,,,,,,,,929313,001,2023-01-27_14h53.59.190,Info_measure_main_exp,2022.2.4,60.04976143687002,
0,131,5,5,2151,2271,absent_patch/patch0002151.jpg,absent_patch/patch0002271.jpg,masks/mask_001.jpg,,,,,,,,,,,,,0,13,13,116,,,,,0,2,2,0,,,,,,,,,,,,,,,,,,,,,,,,,,,,,,,,,,,,,,,,,,112.03786348100402,,,,,,,,,,,,,,,,,,,,,,,,,,,,,,,,,,,,,,,,,,,,,,,,,,,,,,,,,,,,,,,,,,,,,,,,,,,,,929313,001,2023-01-27_14h53.59.190,Info_measure_main_exp,2022.2.4,60.04976143687002,
0,131,5,5,2151,2271,absent_patch/patch0002151.jpg,absent_patch/patch0002271.jpg,masks/mask_005.jpg,,,,,,,,,,,,,0,13,13,116,,,,,0,3,3,4,,,,,,,,,,,,,,,,,,,,,,,,,,,,,,,,,,,,,,,,,,112.08828104099666,,,,,,,,,,,,,,,,,,,,,,,,,,,,,,,,,,,,,,,,,,,,,,,,,,,,,,,,,,,,,,,,,,,,,,,,,,,,,929313,001,2023-01-27_14h53.59.190,Info_measure_main_exp,2022.2.4,60.04976143687002,
0,131,5,5,2151,2271,absent_patch/patch0002151.jpg,absent_patch/patch0002271.jpg,masks/mask_002.jpg,,,,,,,,,,,,,0,13,13,116,,,,,0,4,4,1,,,,,,,,,,,,,,,,,,,,,,,,,,,,,,,,,,,,,,,,,,112.15202830800263,,,,,,,,,,,,,,,,,,,,,,,,,,,,,,,,,,,,,,,,,,,,,,,,,,,,,,,,,,,,,,,,,,,,,,,,,,,,,929313,001,2023-01-27_14h53.59.190,Info_measure_main_exp,2022.2.4,60.04976143687002,
0,131,5,5,2151,2271,absent_patch/patch0002151.jpg,absent_patch/patch0002271.jpg,,,,,,,,,,,,,,0,13,13,116,,,,,,,,,,,,,,,,,,,,,,,,,,,,,,,,,,,,,,,,,,,,,,,,,,,,,,,,,,,,,,,,,,6,1.0989212400018005,1,,,,,,,,,,,,,,,,,,,,,,,,,,,,,,,,,,,,0.018027681013336405,112.21239580899419,112.21239580899419,112.21239580899419,112.21239580899419,0.15444444444444444,0.09444444444444444,1,0,0,response1disk,14,0.016784534003818408,113.33109771399177,113.33109771399177,113.33109771399177,113.33109771399177,-0.01,0.02,1,0,0,center_square,929313,001,2023-01-27_14h53.59.190,Info_measure_main_exp,2022.2.4,60.04976143687002,
0,131,5,5,2079,2079,absent_patch/patch0002079.jpg,absent_patch/patch0002079.jpg,masks/mask_003.jpg,,,,,,,,,,,,,0,14,14,12,0,0,0,2,,,,,,,,,,,,,,,,,,,,,,,,,,,,,,,,,,,,,,,,,,,,,,114.49186099099461,,,,,,,,,,,,,,,,,,,,,,,,,,,,,,,,,,,,,,,,,,,,,,113.80611849100387,114.28863186699164,114.44841656499193,114.49186099099461,,,,,,,,,,,,,,,,,,,,,,,,,,,,929313,001,2023-01-27_14h53.59.190,Info_measure_main_exp,2022.2.4,60.04976143687002,
0,131,5,5,2079,2079,absent_patch/patch0002079.jpg,absent_patch/patch0002079.jpg,masks/mask_001.jpg,,,,,,,,,,,,,0,14,14,12,0,1,1,0,,,,,,,,,,,,,,,,,,,,,,,,,,,,,,,,,,,,,,,,,,,,,,114.55451387699577,,,,,,,,,,,,,,,,,,,,,,,,,,,,,,,,,,,,,,,,,,,,,,,,,,,,,,,,,,,,,,,,,,,,,,,,,,,,,929313,001,2023-01-27_14h53.59.190,Info_measure_main_exp,2022.2.4,60.04976143687002,
0,131,5,5,2079,2079,absent_patch/patch0002079.jpg,absent_patch/patch0002079.jpg,masks/mask_004.jpg,,,,,,,,,,,,,0,14,14,12,0,2,2,3,,,,,,,,,,,,,,,,,,,,,,,,,,,,,,,,,,,,,,,,,,,,,,114.61742137899273,,,,,,,,,,,,,,,,,,,,,,,,,,,,,,,,,,,,,,,,,,,,,,,,,,,,,,,,,,,,,,,,,,,,,,,,,,,,,929313,001,2023-01-27_14h53.59.190,Info_measure_main_exp,2022.2.4,60.04976143687002,
0,131,5,5,2079,2079,absent_patch/patch0002079.jpg,absent_patch/patch0002079.jpg,masks/mask_005.jpg,,,,,,,,,,,,,0,14,14,12,0,3,3,4,,,,,,,,,,,,,,,,,,,,,,,,,,,,,,,,,,,,,,,,,,,,,,114.66379974399752,,,,,,,,,,,,,,,,,,,,,,,,,,,,,,,,,,,,,,,,,,,,,,,,,,,,,,,,,,,,,,,,,,,,,,,,,,,,,929313,001,2023-01-27_14h53.59.190,Info_measure_main_exp,2022.2.4,60.04976143687002,
0,131,5,5,2079,2079,absent_patch/patch0002079.jpg,absent_patch/patch0002079.jpg,masks/mask_002.jpg,,,,,,,,,,,,,0,14,14,12,0,4,4,1,,,,,,,,,,,,,,,,,,,,,,,,,,,,,,,,,,,,,,,,,,,,,,114.72637418199156,,,,,,,,,,,,,,,,,,,,,,,,,,,,,,,,,,,,,,,,,,,,,,,,,,,,,,,,,,,,,,,,,,,,,,,,,,,,,929313,001,2023-01-27_14h53.59.190,Info_measure_main_exp,2022.2.4,60.04976143687002,
0,131,5,5,2079,2079,absent_patch/patch0002079.jpg,absent_patch/patch0002079.jpg,masks/mask_003.jpg,,,,,,,,,,,,,0,14,14,12,,,,,0,0,0,2,,,,,,,,,,,,,,,,,,,,,,,,,,,,,,,,,,,,,,,,,,115.47602120100055,,,,,,,,,,,,,,,,,,,,,,,,,,,,,,,,,,,,,,,,,,,,,,,,,,114.7832338540029,115.25561846500204,115.41559141199104,115.47602120100055,,,,,,,,,,,,,,,,,,,,,,,,929313,001,2023-01-27_14h53.59.190,Info_measure_main_exp,2022.2.4,60.04976143687002,
0,131,5,5,2079,2079,absent_patch/patch0002079.jpg,absent_patch/patch0002079.jpg,masks/mask_001.jpg,,,,,,,,,,,,,0,14,14,12,,,,,0,1,1,0,,,,,,,,,,,,,,,,,,,,,,,,,,,,,,,,,,,,,,,,,,115.52170990000013,,,,,,,,,,,,,,,,,,,,,,,,,,,,,,,,,,,,,,,,,,,,,,,,,,,,,,,,,,,,,,,,,,,,,,,,,,,,,929313,001,2023-01-27_14h53.59.190,Info_measure_main_exp,2022.2.4,60.04976143687002,
0,131,5,5,2079,2079,absent_patch/patch0002079.jpg,absent_patch/patch0002079.jpg,masks/mask_005.jpg,,,,,,,,,,,,,0,14,14,12,,,,,0,2,2,4,,,,,,,,,,,,,,,,,,,,,,,,,,,,,,,,,,,,,,,,,,115.58407638900098,,,,,,,,,,,,,,,,,,,,,,,,,,,,,,,,,,,,,,,,,,,,,,,,,,,,,,,,,,,,,,,,,,,,,,,,,,,,,929313,001,2023-01-27_14h53.59.190,Info_measure_main_exp,2022.2.4,60.04976143687002,
0,131,5,5,2079,2079,absent_patch/patch0002079.jpg,absent_patch/patch0002079.jpg,masks/mask_002.jpg,,,,,,,,,,,,,0,14,14,12,,,,,0,3,3,1,,,,,,,,,,,,,,,,,,,,,,,,,,,,,,,,,,,,,,,,,,115.65074425999774,,,,,,,,,,,,,,,,,,,,,,,,,,,,,,,,,,,,,,,,,,,,,,,,,,,,,,,,,,,,,,,,,,,,,,,,,,,,,929313,001,2023-01-27_14h53.59.190,Info_measure_main_exp,2022.2.4,60.04976143687002,
0,131,5,5,2079,2079,absent_patch/patch0002079.jpg,absent_patch/patch0002079.jpg,masks/mask_004.jpg,,,,,,,,,,,,,0,14,14,12,,,,,0,4,4,3,,,,,,,,,,,,,,,,,,,,,,,,,,,,,,,,,,,,,,,,,,115.71992565499386,,,,,,,,,,,,,,,,,,,,,,,,,,,,,,,,,,,,,,,,,,,,,,,,,,,,,,,,,,,,,,,,,,,,,,,,,,,,,929313,001,2023-01-27_14h53.59.190,Info_measure_main_exp,2022.2.4,60.04976143687002,
0,131,5,5,2079,2079,absent_patch/patch0002079.jpg,absent_patch/patch0002079.jpg,,,,,,,,,,,,,,0,14,14,12,,,,,,,,,,,,,,,,,,,,,,,,,,,,,,,,,,,,,,,,,,,,,,,,,,,,,,,,,,,,,,,,,,0,0.4233098139957292,1,,,,,,,,,,,,,,,,,,,,,,,,,,,,,,,,,,,,0.00948425501701422,115.76831980199495,115.76831980199495,115.76831980199495,115.76831980199495,-0.057777777777777775,0.13333333333333333,1,0,0,response7disk,15,0.009390684004756622,116.19930233999912,116.19930233999912,116.19930233999912,116.19930233999912,-0.02666666666666667,0.013333333333333334,1,0,0,center_square,929313,001,2023-01-27_14h53.59.190,Info_measure_main_exp,2022.2.4,60.04976143687002,
0,131,5,5,2223,2163,absent_patch/patch0002223.jpg,absent_patch/patch0002163.jpg,masks/mask_003.jpg,,,,,,,,,,,,,0,15,15,48,0,0,0,2,,,,,,,,,,,,,,,,,,,,,,,,,,,,,,,,,,,,,,,,,,,,,,117.30608295999991,,,,,,,,,,,,,,,,,,,,,,,,,,,,,,,,,,,,,,,,,,,,,,116.60750817299413,117.10576473199762,117.30608295999991,117.30608295999991,,,,,,,,,,,,,,,,,,,,,,,,,,,,929313,001,2023-01-27_14h53.59.190,Info_measure_main_exp,2022.2.4,60.04976143687002,
0,131,5,5,2223,2163,absent_patch/patch0002223.jpg,absent_patch/patch0002163.jpg,masks/mask_001.jpg,,,,,,,,,,,,,0,15,15,48,0,1,1,0,,,,,,,,,,,,,,,,,,,,,,,,,,,,,,,,,,,,,,,,,,,,,,117.35572152599343,,,,,,,,,,,,,,,,,,,,,,,,,,,,,,,,,,,,,,,,,,,,,,,,,,,,,,,,,,,,,,,,,,,,,,,,,,,,,929313,001,2023-01-27_14h53.59.190,Info_measure_main_exp,2022.2.4,60.04976143687002,
0,131,5,5,2223,2163,absent_patch/patch0002223.jpg,absent_patch/patch0002163.jpg,masks/mask_004.jpg,,,,,,,,,,,,,0,15,15,48,0,2,2,3,,,,,,,,,,,,,,,,,,,,,,,,,,,,,,,,,,,,,,,,,,,,,,117.43095963599626,,,,,,,,,,,,,,,,,,,,,,,,,,,,,,,,,,,,,,,,,,,,,,,,,,,,,,,,,,,,,,,,,,,,,,,,,,,,,929313,001,2023-01-27_14h53.59.190,Info_measure_main_exp,2022.2.4,60.04976143687002,
0,131,5,5,2223,2163,absent_patch/patch0002223.jpg,absent_patch/patch0002163.jpg,masks/mask_005.jpg,,,,,,,,,,,,,0,15,15,48,0,3,3,4,,,,,,,,,,,,,,,,,,,,,,,,,,,,,,,,,,,,,,,,,,,,,,117.48734956199769,,,,,,,,,,,,,,,,,,,,,,,,,,,,,,,,,,,,,,,,,,,,,,,,,,,,,,,,,,,,,,,,,,,,,,,,,,,,,929313,001,2023-01-27_14h53.59.190,Info_measure_main_exp,2022.2.4,60.04976143687002,
0,131,5,5,2223,2163,absent_patch/patch0002223.jpg,absent_patch/patch0002163.jpg,masks/mask_002.jpg,,,,,,,,,,,,,0,15,15,48,0,4,4,1,,,,,,,,,,,,,,,,,,,,,,,,,,,,,,,,,,,,,,,,,,,,,,117.53471129199897,,,,,,,,,,,,,,,,,,,,,,,,,,,,,,,,,,,,,,,,,,,,,,,,,,,,,,,,,,,,,,,,,,,,,,,,,,,,,929313,001,2023-01-27_14h53.59.190,Info_measure_main_exp,2022.2.4,60.04976143687002,
0,131,5,5,2223,2163,absent_patch/patch0002223.jpg,absent_patch/patch0002163.jpg,masks/mask_003.jpg,,,,,,,,,,,,,0,15,15,48,,,,,0,0,0,2,,,,,,,,,,,,,,,,,,,,,,,,,,,,,,,,,,,,,,,,,,118.28180784299911,,,,,,,,,,,,,,,,,,,,,,,,,,,,,,,,,,,,,,,,,,,,,,,,,,117.59515326599649,118.06913579300453,118.23077265899337,118.28180784299911,,,,,,,,,,,,,,,,,,,,,,,,929313,001,2023-01-27_14h53.59.190,Info_measure_main_exp,2022.2.4,60.04976143687002,
0,131,5,5,2223,2163,absent_patch/patch0002223.jpg,absent_patch/patch0002163.jpg,masks/mask_002.jpg,,,,,,,,,,,,,0,15,15,48,,,,,0,1,1,1,,,,,,,,,,,,,,,,,,,,,,,,,,,,,,,,,,,,,,,,,,118.33242547999544,,,,,,,,,,,,,,,,,,,,,,,,,,,,,,,,,,,,,,,,,,,,,,,,,,,,,,,,,,,,,,,,,,,,,,,,,,,,,929313,001,2023-01-27_14h53.59.190,Info_measure_main_exp,2022.2.4,60.04976143687002,
0,131,5,5,2223,2163,absent_patch/patch0002223.jpg,absent_patch/patch0002163.jpg,masks/mask_004.jpg,,,,,,,,,,,,,0,15,15,48,,,,,0,2,2,3,,,,,,,,,,,,,,,,,,,,,,,,,,,,,,,,,,,,,,,,,,118.40074284900038,,,,,,,,,,,,,,,,,,,,,,,,,,,,,,,,,,,,,,,,,,,,,,,,,,,,,,,,,,,,,,,,,,,,,,,,,,,,,929313,001,2023-01-27_14h53.59.190,Info_measure_main_exp,2022.2.4,60.04976143687002,
0,131,5,5,2223,2163,absent_patch/patch0002223.jpg,absent_patch/patch0002163.jpg,masks/mask_001.jpg,,,,,,,,,,,,,0,15,15,48,,,,,0,3,3,0,,,,,,,,,,,,,,,,,,,,,,,,,,,,,,,,,,,,,,,,,,118.4488109209924,,,,,,,,,,,,,,,,,,,,,,,,,,,,,,,,,,,,,,,,,,,,,,,,,,,,,,,,,,,,,,,,,,,,,,,,,,,,,929313,001,2023-01-27_14h53.59.190,Info_measure_main_exp,2022.2.4,60.04976143687002,
0,131,5,5,2223,2163,absent_patch/patch0002223.jpg,absent_patch/patch0002163.jpg,masks/mask_005.jpg,,,,,,,,,,,,,0,15,15,48,,,,,0,4,4,4,,,,,,,,,,,,,,,,,,,,,,,,,,,,,,,,,,,,,,,,,,118.51483498599555,,,,,,,,,,,,,,,,,,,,,,,,,,,,,,,,,,,,,,,,,,,,,,,,,,,,,,,,,,,,,,,,,,,,,,,,,,,,,929313,001,2023-01-27_14h53.59.190,Info_measure_main_exp,2022.2.4,60.04976143687002,
0,131,5,5,2223,2163,absent_patch/patch0002223.jpg,absent_patch/patch0002163.jpg,,,,,,,,,,,,,,0,15,15,48,,,,,,,,,,,,,,,,,,,,,,,,,,,,,,,,,,,,,,,,,,,,,,,,,,,,,,,,,,,,,,,,,,0,0.4669831509963842,1,,,,,,,,,,,,,,,,,,,,,,,,,,,,,,,,,,,,0.02017190401966218,118.57852975500282,118.57852975500282,118.57852975500282,118.57852975500282,-0.04111111111111111,0.07888888888888888,1,0,0,response7disk,16,0.0138875039992854,119.06177474799915,119.06177474799915,119.06177474799915,119.06177474799915,-0.005555555555555556,-0.0044444444444444444,1,0,0,center_square,929313,001,2023-01-27_14h53.59.190,Info_measure_main_exp,2022.2.4,60.04976143687002,
0,131,5,5,2223,1995,absent_patch/patch0002223.jpg,absent_patch/patch0001995.jpg,masks/mask_004.jpg,,,,,,,,,,,,,0,16,16,4,0,0,0,3,,,,,,,,,,,,,,,,,,,,,,,,,,,,,,,,,,,,,,,,,,,,,,120.12428602400178,,,,,,,,,,,,,,,,,,,,,,,,,,,,,,,,,,,,,,,,,,,,,,119.4400420460006,119.9347041650035,120.12428602400178,120.12428602400178,,,,,,,,,,,,,,,,,,,,,,,,,,,,929313,001,2023-01-27_14h53.59.190,Info_measure_main_exp,2022.2.4,60.04976143687002,
0,131,5,5,2223,1995,absent_patch/patch0002223.jpg,absent_patch/patch0001995.jpg,masks/mask_001.jpg,,,,,,,,,,,,,0,16,16,4,0,1,1,0,,,,,,,,,,,,,,,,,,,,,,,,,,,,,,,,,,,,,,,,,,,,,,120.17361146499752,,,,,,,,,,,,,,,,,,,,,,,,,,,,,,,,,,,,,,,,,,,,,,,,,,,,,,,,,,,,,,,,,,,,,,,,,,,,,929313,001,2023-01-27_14h53.59.190,Info_measure_main_exp,2022.2.4,60.04976143687002,
0,131,5,5,2223,1995,absent_patch/patch0002223.jpg,absent_patch/patch0001995.jpg,masks/mask_005.jpg,,,,,,,,,,,,,0,16,16,4,0,2,2,4,,,,,,,,,,,,,,,,,,,,,,,,,,,,,,,,,,,,,,,,,,,,,,120.24024844799715,,,,,,,,,,,,,,,,,,,,,,,,,,,,,,,,,,,,,,,,,,,,,,,,,,,,,,,,,,,,,,,,,,,,,,,,,,,,,929313,001,2023-01-27_14h53.59.190,Info_measure_main_exp,2022.2.4,60.04976143687002,
0,131,5,5,2223,1995,absent_patch/patch0002223.jpg,absent_patch/patch0001995.jpg,masks/mask_003.jpg,,,,,,,,,,,,,0,16,16,4,0,3,3,2,,,,,,,,,,,,,,,,,,,,,,,,,,,,,,,,,,,,,,,,,,,,,,120.30895048099046,,,,,,,,,,,,,,,,,,,,,,,,,,,,,,,,,,,,,,,,,,,,,,,,,,,,,,,,,,,,,,,,,,,,,,,,,,,,,929313,001,2023-01-27_14h53.59.190,Info_measure_main_exp,2022.2.4,60.04976143687002,
0,131,5,5,2223,1995,absent_patch/patch0002223.jpg,absent_patch/patch0001995.jpg,masks/mask_002.jpg,,,,,,,,,,,,,0,16,16,4,0,4,4,1,,,,,,,,,,,,,,,,,,,,,,,,,,,,,,,,,,,,,,,,,,,,,,120.35759930899076,,,,,,,,,,,,,,,,,,,,,,,,,,,,,,,,,,,,,,,,,,,,,,,,,,,,,,,,,,,,,,,,,,,,,,,,,,,,,929313,001,2023-01-27_14h53.59.190,Info_measure_main_exp,2022.2.4,60.04976143687002,
0,131,5,5,2223,1995,absent_patch/patch0002223.jpg,absent_patch/patch0001995.jpg,masks/mask_002.jpg,,,,,,,,,,,,,0,16,16,4,,,,,0,0,0,1,,,,,,,,,,,,,,,,,,,,,,,,,,,,,,,,,,,,,,,,,,121.08950018500036,,,,,,,,,,,,,,,,,,,,,,,,,,,,,,,,,,,,,,,,,,,,,,,,,,120.41265239300265,120.89748623399646,121.08950018500036,121.08950018500036,,,,,,,,,,,,,,,,,,,,,,,,929313,001,2023-01-27_14h53.59.190,Info_measure_main_exp,2022.2.4,60.04976143687002,
0,131,5,5,2223,1995,absent_patch/patch0002223.jpg,absent_patch/patch0001995.jpg,masks/mask_005.jpg,,,,,,,,,,,,,0,16,16,4,,,,,0,1,1,4,,,,,,,,,,,,,,,,,,,,,,,,,,,,,,,,,,,,,,,,,,121.15014925099968,,,,,,,,,,,,,,,,,,,,,,,,,,,,,,,,,,,,,,,,,,,,,,,,,,,,,,,,,,,,,,,,,,,,,,,,,,,,,929313,001,2023-01-27_14h53.59.190,Info_measure_main_exp,2022.2.4,60.04976143687002,
0,131,5,5,2223,1995,absent_patch/patch0002223.jpg,absent_patch/patch0001995.jpg,masks/mask_004.jpg,,,,,,,,,,,,,0,16,16,4,,,,,0,2,2,3,,,,,,,,,,,,,,,,,,,,,,,,,,,,,,,,,,,,,,,,,,121.2158617679961,,,,,,,,,,,,,,,,,,,,,,,,,,,,,,,,,,,,,,,,,,,,,,,,,,,,,,,,,,,,,,,,,,,,,,,,,,,,,929313,001,2023-01-27_14h53.59.190,Info_measure_main_exp,2022.2.4,60.04976143687002,
0,131,5,5,2223,1995,absent_patch/patch0002223.jpg,absent_patch/patch0001995.jpg,masks/mask_003.jpg,,,,,,,,,,,,,0,16,16,4,,,,,0,3,3,2,,,,,,,,,,,,,,,,,,,,,,,,,,,,,,,,,,,,,,,,,,121.26509534700017,,,,,,,,,,,,,,,,,,,,,,,,,,,,,,,,,,,,,,,,,,,,,,,,,,,,,,,,,,,,,,,,,,,,,,,,,,,,,929313,001,2023-01-27_14h53.59.190,Info_measure_main_exp,2022.2.4,60.04976143687002,
0,131,5,5,2223,1995,absent_patch/patch0002223.jpg,absent_patch/patch0001995.jpg,masks/mask_001.jpg,,,,,,,,,,,,,0,16,16,4,,,,,0,4,4,0,,,,,,,,,,,,,,,,,,,,,,,,,,,,,,,,,,,,,,,,,,121.32567358500091,,,,,,,,,,,,,,,,,,,,,,,,,,,,,,,,,,,,,,,,,,,,,,,,,,,,,,,,,,,,,,,,,,,,,,,,,,,,,929313,001,2023-01-27_14h53.59.190,Info_measure_main_exp,2022.2.4,60.04976143687002,
0,131,5,5,2223,1995,absent_patch/patch0002223.jpg,absent_patch/patch0001995.jpg,,,,,,,,,,,,,,0,16,16,4,,,,,,,,,,,,,,,,,,,,,,,,,,,,,,,,,,,,,,,,,,,,,,,,,,,,,,,,,,,,,,,,,,0,0.48938913000165485,1,,,,,,,,,,,,,,,,,,,,,,,,,,,,,,,,,,,,0.014672619014163502,121.38671391799289,121.38671391799289,121.38671391799289,121.38671391799289,-0.05,0.07666666666666666,1,0,0,response7disk,17,0.009713845996884629,121.89071892500215,121.89071892500215,121.89071892500215,121.89071892500215,-0.024444444444444446,-0.0011111111111111111,1,0,0,center_square,929313,001,2023-01-27_14h53.59.190,Info_measure_main_exp,2022.2.4,60.04976143687002,
1,131,5,5,1,1,present_patch/cong_131_3_a.jpg,present_patch/cong_131_3_a.jpg,masks/mask_002.jpg,,,,,,,,,,,,,0,17,17,11,0,0,0,1,,,,,,,,,,,,,,,,,,,,,,,,,,,,,,,,,,,,,,,,,,,,,,122.97688584099524,,,,,,,,,,,,,,,,,,,,,,,,,,,,,,,,,,,,,,,,,,,,,,122.28419185699022,122.772913341003,122.97688584099524,122.97688584099524,,,,,,,,,,,,,,,,,,,,,,,,,,,,929313,001,2023-01-27_14h53.59.190,Info_measure_main_exp,2022.2.4,60.04976143687002,
1,131,5,5,1,1,present_patch/cong_131_3_a.jpg,present_patch/cong_131_3_a.jpg,masks/mask_004.jpg,,,,,,,,,,,,,0,17,17,11,0,1,1,3,,,,,,,,,,,,,,,,,,,,,,,,,,,,,,,,,,,,,,,,,,,,,,123.0249239190016,,,,,,,,,,,,,,,,,,,,,,,,,,,,,,,,,,,,,,,,,,,,,,,,,,,,,,,,,,,,,,,,,,,,,,,,,,,,,929313,001,2023-01-27_14h53.59.190,Info_measure_main_exp,2022.2.4,60.04976143687002,
1,131,5,5,1,1,present_patch/cong_131_3_a.jpg,present_patch/cong_131_3_a.jpg,masks/mask_003.jpg,,,,,,,,,,,,,0,17,17,11,0,2,2,2,,,,,,,,,,,,,,,,,,,,,,,,,,,,,,,,,,,,,,,,,,,,,,123.09050885899342,,,,,,,,,,,,,,,,,,,,,,,,,,,,,,,,,,,,,,,,,,,,,,,,,,,,,,,,,,,,,,,,,,,,,,,,,,,,,929313,001,2023-01-27_14h53.59.190,Info_measure_main_exp,2022.2.4,60.04976143687002,
1,131,5,5,1,1,present_patch/cong_131_3_a.jpg,present_patch/cong_131_3_a.jpg,masks/mask_001.jpg,,,,,,,,,,,,,0,17,17,11,0,3,3,0,,,,,,,,,,,,,,,,,,,,,,,,,,,,,,,,,,,,,,,,,,,,,,123.13765447499463,,,,,,,,,,,,,,,,,,,,,,,,,,,,,,,,,,,,,,,,,,,,,,,,,,,,,,,,,,,,,,,,,,,,,,,,,,,,,929313,001,2023-01-27_14h53.59.190,Info_measure_main_exp,2022.2.4,60.04976143687002,
1,131,5,5,1,1,present_patch/cong_131_3_a.jpg,present_patch/cong_131_3_a.jpg,masks/mask_005.jpg,,,,,,,,,,,,,0,17,17,11,0,4,4,4,,,,,,,,,,,,,,,,,,,,,,,,,,,,,,,,,,,,,,,,,,,,,,123.20382980699651,,,,,,,,,,,,,,,,,,,,,,,,,,,,,,,,,,,,,,,,,,,,,,,,,,,,,,,,,,,,,,,,,,,,,,,,,,,,,929313,001,2023-01-27_14h53.59.190,Info_measure_main_exp,2022.2.4,60.04976143687002,
1,131,5,5,1,1,present_patch/cong_131_3_a.jpg,present_patch/cong_131_3_a.jpg,masks/mask_001.jpg,,,,,,,,,,,,,0,17,17,11,,,,,0,0,0,0,,,,,,,,,,,,,,,,,,,,,,,,,,,,,,,,,,,,,,,,,,123.95361419300025,,,,,,,,,,,,,,,,,,,,,,,,,,,,,,,,,,,,,,,,,,,,,,,,,,123.26093101099832,123.73300736700185,123.89536621599109,123.95361419300025,,,,,,,,,,,,,,,,,,,,,,,,929313,001,2023-01-27_14h53.59.190,Info_measure_main_exp,2022.2.4,60.04976143687002,
1,131,5,5,1,1,present_patch/cong_131_3_a.jpg,present_patch/cong_131_3_a.jpg,masks/mask_003.jpg,,,,,,,,,,,,,0,17,17,11,,,,,0,1,1,2,,,,,,,,,,,,,,,,,,,,,,,,,,,,,,,,,,,,,,,,,,124.0047088900028,,,,,,,,,,,,,,,,,,,,,,,,,,,,,,,,,,,,,,,,,,,,,,,,,,,,,,,,,,,,,,,,,,,,,,,,,,,,,929313,001,2023-01-27_14h53.59.190,Info_measure_main_exp,2022.2.4,60.04976143687002,
1,131,5,5,1,1,present_patch/cong_131_3_a.jpg,present_patch/cong_131_3_a.jpg,masks/mask_002.jpg,,,,,,,,,,,,,0,17,17,11,,,,,0,2,2,1,,,,,,,,,,,,,,,,,,,,,,,,,,,,,,,,,,,,,,,,,,124.05468143300095,,,,,,,,,,,,,,,,,,,,,,,,,,,,,,,,,,,,,,,,,,,,,,,,,,,,,,,,,,,,,,,,,,,,,,,,,,,,,929313,001,2023-01-27_14h53.59.190,Info_measure_main_exp,2022.2.4,60.04976143687002,
1,131,5,5,1,1,present_patch/cong_131_3_a.jpg,present_patch/cong_131_3_a.jpg,masks/mask_005.jpg,,,,,,,,,,,,,0,17,17,11,,,,,0,3,3,4,,,,,,,,,,,,,,,,,,,,,,,,,,,,,,,,,,,,,,,,,,124.12227647499822,,,,,,,,,,,,,,,,,,,,,,,,,,,,,,,,,,,,,,,,,,,,,,,,,,,,,,,,,,,,,,,,,,,,,,,,,,,,,929313,001,2023-01-27_14h53.59.190,Info_measure_main_exp,2022.2.4,60.04976143687002,
1,131,5,5,1,1,present_patch/cong_131_3_a.jpg,present_patch/cong_131_3_a.jpg,masks/mask_004.jpg,,,,,,,,,,,,,0,17,17,11,,,,,0,4,4,3,,,,,,,,,,,,,,,,,,,,,,,,,,,,,,,,,,,,,,,,,,124.19473918199947,,,,,,,,,,,,,,,,,,,,,,,,,,,,,,,,,,,,,,,,,,,,,,,,,,,,,,,,,,,,,,,,,,,,,,,,,,,,,929313,001,2023-01-27_14h53.59.190,Info_measure_main_exp,2022.2.4,60.04976143687002,
,,,,,,,,,,,,,,,,,,,,,,,,,,,,,,,,,,,,,,,,,,,,,,,,,,,,,,,,,,,,,,,,,,,,,,,,,,,,,,,,,,,,,,,,,,,,,,,,,,,,,,,,,,,,,,,,,,,,,,,,,,,,,,,,0.013194895014748909,124.24043838799116,124.24043838799116,124.24043838799116,124.24043838799116,,,,,,,,,,,,,,,,,,,,,,,,,
