participant,session,date,expName,psychopyVersion,OS,frameRate,space_press_continue.keys,space_press_continue.rt,space_press_continue_2.keys,space_press_continue_2.rt,space_press_continue_3.keys,space_press_continue_3.rt,space_press_continue_4.keys,space_press_continue_4.rt,space_press_continue_5.keys,space_press_continue_5.rt,space_press_continue_6.keys,space_press_continue_6.rt,prac_mask_loop_1.thisRepN,prac_mask_loop_1.thisTrialN,prac_mask_loop_1.thisN,prac_mask_loop_1.thisIndex,prac_mask_loop_1.ran,mask_name,prac_mask_loop_2.thisRepN,prac_mask_loop_2.thisTrialN,prac_mask_loop_2.thisN,prac_mask_loop_2.thisIndex,prac_mask_loop_2.ran,mouse_2.x,mouse_2.y,mouse_2.leftButton,mouse_2.midButton,mouse_2.rightButton,mouse_2.clicked_name,similarity,response_time,Pass,mouse_12.x,mouse_12.y,mouse_12.leftButton,mouse_12.midButton,mouse_12.rightButton,mouse_12.clicked_name,prac_loop.thisRepN,prac_loop.thisTrialN,prac_loop.thisN,prac_loop.thisIndex,prac_loop.ran,Pair_type,Image_num,Patch_1_loc,Patch_2_loc,Patch_1_info,Patch_2_info,Patch_1_name,Patch_2_name,mouse_1.x,mouse_1.y,mouse_1.leftButton,mouse_1.midButton,mouse_1.rightButton,mouse_1.time,mouse_1.clicked_name,space_press_continue_7.keys,space_press_continue_7.rt,mask_loop.thisRepN,mask_loop.thisTrialN,mask_loop.thisN,mask_loop.thisIndex,mask_loop.ran,mask_loop_2.thisRepN,mask_loop_2.thisTrialN,mask_loop_2.thisN,mask_loop_2.thisIndex,mask_loop_2.ran,mouse.x,mouse.y,mouse.leftButton,mouse.midButton,mouse.rightButton,mouse.clicked_name,trialNumber,mouse_11.x,mouse_11.y,mouse_11.leftButton,mouse_11.midButton,mouse_11.rightButton,mouse_11.clicked_name,first_pass_loop.thisRepN,first_pass_loop.thisTrialN,first_pass_loop.thisN,first_pass_loop.thisIndex,first_pass_loop.ran,mask_loop_3.thisRepN,mask_loop_3.thisTrialN,mask_loop_3.thisN,mask_loop_3.thisIndex,mask_loop_3.ran,mask_loop_4.thisRepN,mask_loop_4.thisTrialN,mask_loop_4.thisN,mask_loop_4.thisIndex,mask_loop_4.ran,mouse_3.x,mouse_3.y,mouse_3.leftButton,mouse_3.midButton,mouse_3.rightButton,mouse_3.clicked_name,double_pass_loop.thisRepN,double_pass_loop.thisTrialN,double_pass_loop.thisN,double_pass_loop.thisIndex,double_pass_loop.ran,space_exit.keys,space_exit.rt
929785,001,2022-11-21_24h51.57.211,Info_measure_main_exp,2022.2.2,Win32,60.92731371,,,,,,,,,,,,,,,,,,,,,,,,,,,,,,,,,,,,,,,,,,,,,,,,,,,,,,,,,,,,,,,,,,,,,,,,,,,,,,,,,,,,,,,,,,,,,,,,,,,,,,,,,,,,,,,
929785,001,2022-11-21_24h51.57.211,Info_measure_main_exp,2022.2.2,Win32,60.92731371,,,,,,,,,,,,,,,,,,,,,,,,,,,,,,,,,,,,,,,,,,,,,,,,,,,,,,,,,,,,,,,,,,,,,,,,,,,,,,,,,,,,,,,,,,,,,,,,,,,,,,,,,,,,,,,
929785,001,2022-11-21_24h51.57.211,Info_measure_main_exp,2022.2.2,Win32,60.92731371,space,3.2317,,,,,,,,,,,,,,,,,,,,,,,,,,,,,,,,,,,,,,,,,,,,,,,,,,,,,,,,,,,,,,,,,,,,,,,,,,,,,,,,,,,,,,,,,,,,,,,,,,,,,,,,,,,,,
929785,001,2022-11-21_24h51.57.211,Info_measure_main_exp,2022.2.2,Win32,60.92731371,,,space,9.1938,,,,,,,,,,,,,,,,,,,,,,,,,,,,,,,,,,,,,,,,,,,,,,,,,,,,,,,,,,,,,,,,,,,,,,,,,,,,,,,,,,,,,,,,,,,,,,,,,,,,,,,,,,,
929785,001,2022-11-21_24h51.57.211,Info_measure_main_exp,2022.2.2,Win32,60.92731371,,,,,space,6.8757,,,,,,,,,,,,,,,,,,,,,,,,,,,,,,,,,,,,,,,,,,,,,,,,,,,,,,,,,,,,,,,,,,,,,,,,,,,,,,,,,,,,,,,,,,,,,,,,,,,,,,,,,
929785,001,2022-11-21_24h51.57.211,Info_measure_main_exp,2022.2.2,Win32,60.92731371,,,,,,,space,24.808,,,,,,,,,,,,,,,,,,,,,,,,,,,,,,,,,,,,,,,,,,,,,,,,,,,,,,,,,,,,,,,,,,,,,,,,,,,,,,,,,,,,,,,,,,,,,,,,,,,,,,,
929785,001,2022-11-21_24h51.57.211,Info_measure_main_exp,2022.2.2,Win32,60.92731371,,,,,,,,,space,10.3583,,,,,,,,,,,,,,,,,,,,,,,,,,,,,,,,,,,,,,,,,,,,,,,,,,,,,,,,,,,,,,,,,,,,,,,,,,,,,,,,,,,,,,,,,,,,,,,,,,,,,
929785,001,2022-11-21_24h51.57.211,Info_measure_main_exp,2022.2.2,Win32,60.92731371,,,,,,,,,,,space,2.9141,,,,,,,,,,,,,,,,,,,,,,,,,,,,,,,,,,,,,,,,,,,,,,,,,,,,,,,,,,,,,,,,,,,,,,,,,,,,,,,,,,,,,,,,,,,,,,,,,,,
929785,001,2022-11-21_24h51.57.211,Info_measure_main_exp,2022.2.2,Win32,60.92731371,,,,,,,,,,,,,0,0,0,3,1,masks/mask_004.jpg,,,,,,,,,,,,,,,,,,,,,,,,,,,,,,,,,,,,,,,,,,,,,,,,,,,,,,,,,,,,,,,,,,,,,,,,,,,,,,,,,,,,,,,,,,,,,
929785,001,2022-11-21_24h51.57.211,Info_measure_main_exp,2022.2.2,Win32,60.92731371,,,,,,,,,,,,,0,1,1,4,1,masks/mask_005.jpg,,,,,,,,,,,,,,,,,,,,,,,,,,,,,,,,,,,,,,,,,,,,,,,,,,,,,,,,,,,,,,,,,,,,,,,,,,,,,,,,,,,,,,,,,,,,,
929785,001,2022-11-21_24h51.57.211,Info_measure_main_exp,2022.2.2,Win32,60.92731371,,,,,,,,,,,,,0,2,2,0,1,masks/mask_001.jpg,,,,,,,,,,,,,,,,,,,,,,,,,,,,,,,,,,,,,,,,,,,,,,,,,,,,,,,,,,,,,,,,,,,,,,,,,,,,,,,,,,,,,,,,,,,,,
929785,001,2022-11-21_24h51.57.211,Info_measure_main_exp,2022.2.2,Win32,60.92731371,,,,,,,,,,,,,0,3,3,1,1,masks/mask_002.jpg,,,,,,,,,,,,,,,,,,,,,,,,,,,,,,,,,,,,,,,,,,,,,,,,,,,,,,,,,,,,,,,,,,,,,,,,,,,,,,,,,,,,,,,,,,,,,
929785,001,2022-11-21_24h51.57.211,Info_measure_main_exp,2022.2.2,Win32,60.92731371,,,,,,,,,,,,,0,4,4,2,1,masks/mask_003.jpg,,,,,,,,,,,,,,,,,,,,,,,,,,,,,,,,,,,,,,,,,,,,,,,,,,,,,,,,,,,,,,,,,,,,,,,,,,,,,,,,,,,,,,,,,,,,,
929785,001,2022-11-21_24h51.57.211,Info_measure_main_exp,2022.2.2,Win32,60.92731371,,,,,,,,,,,,,,,,,,masks/mask_005.jpg,0,0,0,4,1,,,,,,,,,,,,,,,,,,,,,,,,,,,,,,,,,,,,,,,,,,,,,,,,,,,,,,,,,,,,,,,,,,,,,,,,,,,,,,,,,,,,,,,,
929785,001,2022-11-21_24h51.57.211,Info_measure_main_exp,2022.2.2,Win32,60.92731371,,,,,,,,,,,,,,,,,,masks/mask_003.jpg,0,1,1,2,1,,,,,,,,,,,,,,,,,,,,,,,,,,,,,,,,,,,,,,,,,,,,,,,,,,,,,,,,,,,,,,,,,,,,,,,,,,,,,,,,,,,,,,,,
929785,001,2022-11-21_24h51.57.211,Info_measure_main_exp,2022.2.2,Win32,60.92731371,,,,,,,,,,,,,,,,,,masks/mask_002.jpg,0,2,2,1,1,,,,,,,,,,,,,,,,,,,,,,,,,,,,,,,,,,,,,,,,,,,,,,,,,,,,,,,,,,,,,,,,,,,,,,,,,,,,,,,,,,,,,,,,
929785,001,2022-11-21_24h51.57.211,Info_measure_main_exp,2022.2.2,Win32,60.92731371,,,,,,,,,,,,,,,,,,masks/mask_004.jpg,0,3,3,3,1,,,,,,,,,,,,,,,,,,,,,,,,,,,,,,,,,,,,,,,,,,,,,,,,,,,,,,,,,,,,,,,,,,,,,,,,,,,,,,,,,,,,,,,,
929785,001,2022-11-21_24h51.57.211,Info_measure_main_exp,2022.2.2,Win32,60.92731371,,,,,,,,,,,,,,,,,,masks/mask_001.jpg,0,4,4,0,1,,,,,,,,,,,,,,,,,,,,,,,,,,,,,,,,,,,,,,,,,,,,,,,,,,,,,,,,,,,,,,,,,,,,,,,,,,,,,,,,,,,,,,,,
929785,001,2022-11-21_24h51.57.211,Info_measure_main_exp,2022.2.2,Win32,60.92731371,,,,,,,,,,,,,,,,,,,,,,,,-0.061805566,0.138888889,1,0,0,response7disk,0,70.3729,1,-0.002777788,0.004166656,1,0,0,center_square,0,0,0,2,1,0,131,5,5,2526,2526,prac_patch/patch0002526.jpg,prac_patch/patch0002526.jpg,,,,,,,,,,,,,,,,,,,,,,,,,,,,,,,,,,,,,,,,,,,,,,,,,,,,,,,,,,,,
929785,001,2022-11-21_24h51.57.211,Info_measure_main_exp,2022.2.2,Win32,60.92731371,,,,,,,,,,,,,0,0,0,0,1,masks/mask_001.jpg,,,,,,,,,,,,,,,,,,,,,,,,,,,,,,,,,,,,,,,,,,,,,,,,,,,,,,,,,,,,,,,,,,,,,,,,,,,,,,,,,,,,,,,,,,,,,
929785,001,2022-11-21_24h51.57.211,Info_measure_main_exp,2022.2.2,Win32,60.92731371,,,,,,,,,,,,,0,1,1,3,1,masks/mask_004.jpg,,,,,,,,,,,,,,,,,,,,,,,,,,,,,,,,,,,,,,,,,,,,,,,,,,,,,,,,,,,,,,,,,,,,,,,,,,,,,,,,,,,,,,,,,,,,,
929785,001,2022-11-21_24h51.57.211,Info_measure_main_exp,2022.2.2,Win32,60.92731371,,,,,,,,,,,,,0,2,2,1,1,masks/mask_002.jpg,,,,,,,,,,,,,,,,,,,,,,,,,,,,,,,,,,,,,,,,,,,,,,,,,,,,,,,,,,,,,,,,,,,,,,,,,,,,,,,,,,,,,,,,,,,,,
929785,001,2022-11-21_24h51.57.211,Info_measure_main_exp,2022.2.2,Win32,60.92731371,,,,,,,,,,,,,0,3,3,4,1,masks/mask_005.jpg,,,,,,,,,,,,,,,,,,,,,,,,,,,,,,,,,,,,,,,,,,,,,,,,,,,,,,,,,,,,,,,,,,,,,,,,,,,,,,,,,,,,,,,,,,,,,
929785,001,2022-11-21_24h51.57.211,Info_measure_main_exp,2022.2.2,Win32,60.92731371,,,,,,,,,,,,,0,4,4,2,1,masks/mask_003.jpg,,,,,,,,,,,,,,,,,,,,,,,,,,,,,,,,,,,,,,,,,,,,,,,,,,,,,,,,,,,,,,,,,,,,,,,,,,,,,,,,,,,,,,,,,,,,,
929785,001,2022-11-21_24h51.57.211,Info_measure_main_exp,2022.2.2,Win32,60.92731371,,,,,,,,,,,,,,,,,,masks/mask_002.jpg,0,0,0,1,1,,,,,,,,,,,,,,,,,,,,,,,,,,,,,,,,,,,,,,,,,,,,,,,,,,,,,,,,,,,,,,,,,,,,,,,,,,,,,,,,,,,,,,,,
929785,001,2022-11-21_24h51.57.211,Info_measure_main_exp,2022.2.2,Win32,60.92731371,,,,,,,,,,,,,,,,,,masks/mask_004.jpg,0,1,1,3,1,,,,,,,,,,,,,,,,,,,,,,,,,,,,,,,,,,,,,,,,,,,,,,,,,,,,,,,,,,,,,,,,,,,,,,,,,,,,,,,,,,,,,,,,
929785,001,2022-11-21_24h51.57.211,Info_measure_main_exp,2022.2.2,Win32,60.92731371,,,,,,,,,,,,,,,,,,masks/mask_001.jpg,0,2,2,0,1,,,,,,,,,,,,,,,,,,,,,,,,,,,,,,,,,,,,,,,,,,,,,,,,,,,,,,,,,,,,,,,,,,,,,,,,,,,,,,,,,,,,,,,,
929785,001,2022-11-21_24h51.57.211,Info_measure_main_exp,2022.2.2,Win32,60.92731371,,,,,,,,,,,,,,,,,,masks/mask_005.jpg,0,3,3,4,1,,,,,,,,,,,,,,,,,,,,,,,,,,,,,,,,,,,,,,,,,,,,,,,,,,,,,,,,,,,,,,,,,,,,,,,,,,,,,,,,,,,,,,,,
929785,001,2022-11-21_24h51.57.211,Info_measure_main_exp,2022.2.2,Win32,60.92731371,,,,,,,,,,,,,,,,,,masks/mask_003.jpg,0,4,4,2,1,,,,,,,,,,,,,,,,,,,,,,,,,,,,,,,,,,,,,,,,,,,,,,,,,,,,,,,,,,,,,,,,,,,,,,,,,,,,,,,,,,,,,,,,
929785,001,2022-11-21_24h51.57.211,Info_measure_main_exp,2022.2.2,Win32,60.92731371,,,,,,,,,,,,,,,,,,,,,,,,0.084722201,0.132638878,1,0,0,response1disk,7,84.4773,1,-0.001388868,0.002083302,1,0,0,center_square,0,1,1,0,1,0,131,5,5,2370,2406,prac_patch/patch0002370.jpg,prac_patch/patch0002406.jpg,,,,,,,,,,,,,,,,,,,,,,,,,,,,,,,,,,,,,,,,,,,,,,,,,,,,,,,,,,,,
929785,001,2022-11-21_24h51.57.211,Info_measure_main_exp,2022.2.2,Win32,60.92731371,,,,,,,,,,,,,0,0,0,1,1,masks/mask_002.jpg,,,,,,,,,,,,,,,,,,,,,,,,,,,,,,,,,,,,,,,,,,,,,,,,,,,,,,,,,,,,,,,,,,,,,,,,,,,,,,,,,,,,,,,,,,,,,
929785,001,2022-11-21_24h51.57.211,Info_measure_main_exp,2022.2.2,Win32,60.92731371,,,,,,,,,,,,,0,1,1,0,1,masks/mask_001.jpg,,,,,,,,,,,,,,,,,,,,,,,,,,,,,,,,,,,,,,,,,,,,,,,,,,,,,,,,,,,,,,,,,,,,,,,,,,,,,,,,,,,,,,,,,,,,,
929785,001,2022-11-21_24h51.57.211,Info_measure_main_exp,2022.2.2,Win32,60.92731371,,,,,,,,,,,,,0,2,2,4,1,masks/mask_005.jpg,,,,,,,,,,,,,,,,,,,,,,,,,,,,,,,,,,,,,,,,,,,,,,,,,,,,,,,,,,,,,,,,,,,,,,,,,,,,,,,,,,,,,,,,,,,,,
929785,001,2022-11-21_24h51.57.211,Info_measure_main_exp,2022.2.2,Win32,60.92731371,,,,,,,,,,,,,0,3,3,3,1,masks/mask_004.jpg,,,,,,,,,,,,,,,,,,,,,,,,,,,,,,,,,,,,,,,,,,,,,,,,,,,,,,,,,,,,,,,,,,,,,,,,,,,,,,,,,,,,,,,,,,,,,
929785,001,2022-11-21_24h51.57.211,Info_measure_main_exp,2022.2.2,Win32,60.92731371,,,,,,,,,,,,,0,4,4,2,1,masks/mask_003.jpg,,,,,,,,,,,,,,,,,,,,,,,,,,,,,,,,,,,,,,,,,,,,,,,,,,,,,,,,,,,,,,,,,,,,,,,,,,,,,,,,,,,,,,,,,,,,,
929785,001,2022-11-21_24h51.57.211,Info_measure_main_exp,2022.2.2,Win32,60.92731371,,,,,,,,,,,,,,,,,,masks/mask_003.jpg,0,0,0,2,1,,,,,,,,,,,,,,,,,,,,,,,,,,,,,,,,,,,,,,,,,,,,,,,,,,,,,,,,,,,,,,,,,,,,,,,,,,,,,,,,,,,,,,,,
929785,001,2022-11-21_24h51.57.211,Info_measure_main_exp,2022.2.2,Win32,60.92731371,,,,,,,,,,,,,,,,,,masks/mask_004.jpg,0,1,1,3,1,,,,,,,,,,,,,,,,,,,,,,,,,,,,,,,,,,,,,,,,,,,,,,,,,,,,,,,,,,,,,,,,,,,,,,,,,,,,,,,,,,,,,,,,
929785,001,2022-11-21_24h51.57.211,Info_measure_main_exp,2022.2.2,Win32,60.92731371,,,,,,,,,,,,,,,,,,masks/mask_001.jpg,0,2,2,0,1,,,,,,,,,,,,,,,,,,,,,,,,,,,,,,,,,,,,,,,,,,,,,,,,,,,,,,,,,,,,,,,,,,,,,,,,,,,,,,,,,,,,,,,,
929785,001,2022-11-21_24h51.57.211,Info_measure_main_exp,2022.2.2,Win32,60.92731371,,,,,,,,,,,,,,,,,,masks/mask_002.jpg,0,3,3,1,1,,,,,,,,,,,,,,,,,,,,,,,,,,,,,,,,,,,,,,,,,,,,,,,,,,,,,,,,,,,,,,,,,,,,,,,,,,,,,,,,,,,,,,,,
929785,001,2022-11-21_24h51.57.211,Info_measure_main_exp,2022.2.2,Win32,60.92731371,,,,,,,,,,,,,,,,,,masks/mask_005.jpg,0,4,4,4,1,,,,,,,,,,,,,,,,,,,,,,,,,,,,,,,,,,,,,,,,,,,,,,,,,,,,,,,,,,,,,,,,,,,,,,,,,,,,,,,,,,,,,,,,
929785,001,2022-11-21_24h51.57.211,Info_measure_main_exp,2022.2.2,Win32,60.92731371,,,,,,,,,,,,,,,,,,,,,,,,0.085416688,-0.042361101,1,0,0,response3disk,5,100.4746,1,0,0.002083302,1,0,0,center_square,0,2,2,1,1,0,131,5,5,2514,2490,prac_patch/patch0002514.jpg,prac_patch/patch0002490.jpg,,,,,,,,,,,,,,,,,,,,,,,,,,,,,,,,,,,,,,,,,,,,,,,,,,,,,,,,,,,,
929785,001,2022-11-21_24h51.57.211,Info_measure_main_exp,2022.2.2,Win32,60.92731371,,,,,,,,,,,,,,,,,,,,,,,,,,,,,,,,,,,,,,,,,,,,,,,,,,,,,,,,,,,space,1.8868,,,,,,,,,,,,,,,,,,,,,,,,,,,,,,,,,,,,,,,,,,,,,,,,,,,
929785,001,2022-11-21_24h51.57.211,Info_measure_main_exp,2022.2.2,Win32,60.92731371,,,,,,,,,,,,,,,,,,masks/mask_004.jpg,,,,,,,,,,,,,,,,,,,,,,,,,,,,,,,,,,,,,,,,,,,0,0,0,3,1,,,,,,,,,,,,,,,,,,,,,,,,,,,,,,,,,,,,,,,,,,,,,,
929785,001,2022-11-21_24h51.57.211,Info_measure_main_exp,2022.2.2,Win32,60.92731371,,,,,,,,,,,,,,,,,,masks/mask_002.jpg,,,,,,,,,,,,,,,,,,,,,,,,,,,,,,,,,,,,,,,,,,,0,1,1,1,1,,,,,,,,,,,,,,,,,,,,,,,,,,,,,,,,,,,,,,,,,,,,,,
929785,001,2022-11-21_24h51.57.211,Info_measure_main_exp,2022.2.2,Win32,60.92731371,,,,,,,,,,,,,,,,,,masks/mask_001.jpg,,,,,,,,,,,,,,,,,,,,,,,,,,,,,,,,,,,,,,,,,,,0,2,2,0,1,,,,,,,,,,,,,,,,,,,,,,,,,,,,,,,,,,,,,,,,,,,,,,
929785,001,2022-11-21_24h51.57.211,Info_measure_main_exp,2022.2.2,Win32,60.92731371,,,,,,,,,,,,,,,,,,masks/mask_005.jpg,,,,,,,,,,,,,,,,,,,,,,,,,,,,,,,,,,,,,,,,,,,0,3,3,4,1,,,,,,,,,,,,,,,,,,,,,,,,,,,,,,,,,,,,,,,,,,,,,,
929785,001,2022-11-21_24h51.57.211,Info_measure_main_exp,2022.2.2,Win32,60.92731371,,,,,,,,,,,,,,,,,,masks/mask_003.jpg,,,,,,,,,,,,,,,,,,,,,,,,,,,,,,,,,,,,,,,,,,,0,4,4,2,1,,,,,,,,,,,,,,,,,,,,,,,,,,,,,,,,,,,,,,,,,,,,,,
929785,001,2022-11-21_24h51.57.211,Info_measure_main_exp,2022.2.2,Win32,60.92731371,,,,,,,,,,,,,,,,,,masks/mask_001.jpg,,,,,,,,,,,,,,,,,,,,,,,,,,,,,,,,,,,,,,,,,,,,,,,,0,0,0,0,1,,,,,,,,,,,,,,,,,,,,,,,,,,,,,,,,,,,,,,,,,
929785,001,2022-11-21_24h51.57.211,Info_measure_main_exp,2022.2.2,Win32,60.92731371,,,,,,,,,,,,,,,,,,masks/mask_002.jpg,,,,,,,,,,,,,,,,,,,,,,,,,,,,,,,,,,,,,,,,,,,,,,,,0,1,1,1,1,,,,,,,,,,,,,,,,,,,,,,,,,,,,,,,,,,,,,,,,,
929785,001,2022-11-21_24h51.57.211,Info_measure_main_exp,2022.2.2,Win32,60.92731371,,,,,,,,,,,,,,,,,,masks/mask_003.jpg,,,,,,,,,,,,,,,,,,,,,,,,,,,,,,,,,,,,,,,,,,,,,,,,0,2,2,2,1,,,,,,,,,,,,,,,,,,,,,,,,,,,,,,,,,,,,,,,,,
929785,001,2022-11-21_24h51.57.211,Info_measure_main_exp,2022.2.2,Win32,60.92731371,,,,,,,,,,,,,,,,,,masks/mask_004.jpg,,,,,,,,,,,,,,,,,,,,,,,,,,,,,,,,,,,,,,,,,,,,,,,,0,3,3,3,1,,,,,,,,,,,,,,,,,,,,,,,,,,,,,,,,,,,,,,,,,
929785,001,2022-11-21_24h51.57.211,Info_measure_main_exp,2022.2.2,Win32,60.92731371,,,,,,,,,,,,,,,,,,masks/mask_005.jpg,,,,,,,,,,,,,,,,,,,,,,,,,,,,,,,,,,,,,,,,,,,,,,,,0,4,4,4,1,,,,,,,,,,,,,,,,,,,,,,,,,,,,,,,,,,,,,,,,,
929785,001,2022-11-21_24h51.57.211,Info_measure_main_exp,2022.2.2,Win32,60.92731371,,,,,,,,,,,,,,,,,,,,,,,,,,,,,,7,1.3227,1,,,,,,,,,,,,0,131,5,5,2298,1986,absent_patch/patch0002298.jpg,absent_patch/patch0001986.jpg,,,,,,,,,,,,,,,,,,,,0.069444444,0.133333339,1,0,0,response1disk,1,-0.00486109,0.00486109,1,0,0,center_square,0,0,0,32,1,,,,,,,,,,,,,,,,,,,,,,,
929785,001,2022-11-21_24h51.57.211,Info_measure_main_exp,2022.2.2,Win32,60.92731371,,,,,,,,,,,,,,,,,,masks/mask_004.jpg,,,,,,,,,,,,,,,,,,,,,,,,,,,,,,,,,,,,,,,,,,,0,0,0,3,1,,,,,,,,,,,,,,,,,,,,,,,,,,,,,,,,,,,,,,,,,,,,,,
929785,001,2022-11-21_24h51.57.211,Info_measure_main_exp,2022.2.2,Win32,60.92731371,,,,,,,,,,,,,,,,,,masks/mask_002.jpg,,,,,,,,,,,,,,,,,,,,,,,,,,,,,,,,,,,,,,,,,,,0,1,1,1,1,,,,,,,,,,,,,,,,,,,,,,,,,,,,,,,,,,,,,,,,,,,,,,
929785,001,2022-11-21_24h51.57.211,Info_measure_main_exp,2022.2.2,Win32,60.92731371,,,,,,,,,,,,,,,,,,masks/mask_005.jpg,,,,,,,,,,,,,,,,,,,,,,,,,,,,,,,,,,,,,,,,,,,0,2,2,4,1,,,,,,,,,,,,,,,,,,,,,,,,,,,,,,,,,,,,,,,,,,,,,,
929785,001,2022-11-21_24h51.57.211,Info_measure_main_exp,2022.2.2,Win32,60.92731371,,,,,,,,,,,,,,,,,,masks/mask_001.jpg,,,,,,,,,,,,,,,,,,,,,,,,,,,,,,,,,,,,,,,,,,,0,3,3,0,1,,,,,,,,,,,,,,,,,,,,,,,,,,,,,,,,,,,,,,,,,,,,,,
929785,001,2022-11-21_24h51.57.211,Info_measure_main_exp,2022.2.2,Win32,60.92731371,,,,,,,,,,,,,,,,,,masks/mask_003.jpg,,,,,,,,,,,,,,,,,,,,,,,,,,,,,,,,,,,,,,,,,,,0,4,4,2,1,,,,,,,,,,,,,,,,,,,,,,,,,,,,,,,,,,,,,,,,,,,,,,
929785,001,2022-11-21_24h51.57.211,Info_measure_main_exp,2022.2.2,Win32,60.92731371,,,,,,,,,,,,,,,,,,masks/mask_001.jpg,,,,,,,,,,,,,,,,,,,,,,,,,,,,,,,,,,,,,,,,,,,,,,,,0,0,0,0,1,,,,,,,,,,,,,,,,,,,,,,,,,,,,,,,,,,,,,,,,,
929785,001,2022-11-21_24h51.57.211,Info_measure_main_exp,2022.2.2,Win32,60.92731371,,,,,,,,,,,,,,,,,,masks/mask_005.jpg,,,,,,,,,,,,,,,,,,,,,,,,,,,,,,,,,,,,,,,,,,,,,,,,0,1,1,4,1,,,,,,,,,,,,,,,,,,,,,,,,,,,,,,,,,,,,,,,,,
929785,001,2022-11-21_24h51.57.211,Info_measure_main_exp,2022.2.2,Win32,60.92731371,,,,,,,,,,,,,,,,,,masks/mask_003.jpg,,,,,,,,,,,,,,,,,,,,,,,,,,,,,,,,,,,,,,,,,,,,,,,,0,2,2,2,1,,,,,,,,,,,,,,,,,,,,,,,,,,,,,,,,,,,,,,,,,
929785,001,2022-11-21_24h51.57.211,Info_measure_main_exp,2022.2.2,Win32,60.92731371,,,,,,,,,,,,,,,,,,masks/mask_002.jpg,,,,,,,,,,,,,,,,,,,,,,,,,,,,,,,,,,,,,,,,,,,,,,,,0,3,3,1,1,,,,,,,,,,,,,,,,,,,,,,,,,,,,,,,,,,,,,,,,,
929785,001,2022-11-21_24h51.57.211,Info_measure_main_exp,2022.2.2,Win32,60.92731371,,,,,,,,,,,,,,,,,,masks/mask_004.jpg,,,,,,,,,,,,,,,,,,,,,,,,,,,,,,,,,,,,,,,,,,,,,,,,0,4,4,3,1,,,,,,,,,,,,,,,,,,,,,,,,,,,,,,,,,,,,,,,,,
929785,001,2022-11-21_24h51.57.211,Info_measure_main_exp,2022.2.2,Win32,60.92731371,,,,,,,,,,,,,,,,,,,,,,,,,,,,,,4,3.5832,1,,,,,,,,,,,,0,131,5,5,2142,2166,absent_patch/patch0002142.jpg,absent_patch/patch0002166.jpg,,,,,,,,,,,,,,,,,,,,0.02638891,-0.075000021,1,0,0,response3disk,2,-0.006944444,-0.002083355,1,0,0,center_square,0,1,1,66,1,,,,,,,,,,,,,,,,,,,,,,,
929785,001,2022-11-21_24h51.57.211,Info_measure_main_exp,2022.2.2,Win32,60.92731371,,,,,,,,,,,,,,,,,,masks/mask_004.jpg,,,,,,,,,,,,,,,,,,,,,,,,,,,,,,,,,,,,,,,,,,,0,0,0,3,1,,,,,,,,,,,,,,,,,,,,,,,,,,,,,,,,,,,,,,,,,,,,,,
929785,001,2022-11-21_24h51.57.211,Info_measure_main_exp,2022.2.2,Win32,60.92731371,,,,,,,,,,,,,,,,,,masks/mask_003.jpg,,,,,,,,,,,,,,,,,,,,,,,,,,,,,,,,,,,,,,,,,,,0,1,1,2,1,,,,,,,,,,,,,,,,,,,,,,,,,,,,,,,,,,,,,,,,,,,,,,
929785,001,2022-11-21_24h51.57.211,Info_measure_main_exp,2022.2.2,Win32,60.92731371,,,,,,,,,,,,,,,,,,masks/mask_005.jpg,,,,,,,,,,,,,,,,,,,,,,,,,,,,,,,,,,,,,,,,,,,0,2,2,4,1,,,,,,,,,,,,,,,,,,,,,,,,,,,,,,,,,,,,,,,,,,,,,,
929785,001,2022-11-21_24h51.57.211,Info_measure_main_exp,2022.2.2,Win32,60.92731371,,,,,,,,,,,,,,,,,,masks/mask_001.jpg,,,,,,,,,,,,,,,,,,,,,,,,,,,,,,,,,,,,,,,,,,,0,3,3,0,1,,,,,,,,,,,,,,,,,,,,,,,,,,,,,,,,,,,,,,,,,,,,,,
929785,001,2022-11-21_24h51.57.211,Info_measure_main_exp,2022.2.2,Win32,60.92731371,,,,,,,,,,,,,,,,,,masks/mask_002.jpg,,,,,,,,,,,,,,,,,,,,,,,,,,,,,,,,,,,,,,,,,,,0,4,4,1,1,,,,,,,,,,,,,,,,,,,,,,,,,,,,,,,,,,,,,,,,,,,,,,
929785,001,2022-11-21_24h51.57.211,Info_measure_main_exp,2022.2.2,Win32,60.92731371,,,,,,,,,,,,,,,,,,masks/mask_001.jpg,,,,,,,,,,,,,,,,,,,,,,,,,,,,,,,,,,,,,,,,,,,,,,,,0,0,0,0,1,,,,,,,,,,,,,,,,,,,,,,,,,,,,,,,,,,,,,,,,,
929785,001,2022-11-21_24h51.57.211,Info_measure_main_exp,2022.2.2,Win32,60.92731371,,,,,,,,,,,,,,,,,,masks/mask_002.jpg,,,,,,,,,,,,,,,,,,,,,,,,,,,,,,,,,,,,,,,,,,,,,,,,0,1,1,1,1,,,,,,,,,,,,,,,,,,,,,,,,,,,,,,,,,,,,,,,,,
929785,001,2022-11-21_24h51.57.211,Info_measure_main_exp,2022.2.2,Win32,60.92731371,,,,,,,,,,,,,,,,,,masks/mask_004.jpg,,,,,,,,,,,,,,,,,,,,,,,,,,,,,,,,,,,,,,,,,,,,,,,,0,2,2,3,1,,,,,,,,,,,,,,,,,,,,,,,,,,,,,,,,,,,,,,,,,
929785,001,2022-11-21_24h51.57.211,Info_measure_main_exp,2022.2.2,Win32,60.92731371,,,,,,,,,,,,,,,,,,masks/mask_005.jpg,,,,,,,,,,,,,,,,,,,,,,,,,,,,,,,,,,,,,,,,,,,,,,,,0,3,3,4,1,,,,,,,,,,,,,,,,,,,,,,,,,,,,,,,,,,,,,,,,,
929785,001,2022-11-21_24h51.57.211,Info_measure_main_exp,2022.2.2,Win32,60.92731371,,,,,,,,,,,,,,,,,,masks/mask_003.jpg,,,,,,,,,,,,,,,,,,,,,,,,,,,,,,,,,,,,,,,,,,,,,,,,0,4,4,2,1,,,,,,,,,,,,,,,,,,,,,,,,,,,,,,,,,,,,,,,,,
929785,001,2022-11-21_24h51.57.211,Info_measure_main_exp,2022.2.2,Win32,60.92731371,,,,,,,,,,,,,,,,,,,,,,,,,,,,,,7,1.3643,1,,,,,,,,,,,,0,131,5,5,1950,2166,absent_patch/patch0001950.jpg,absent_patch/patch0002166.jpg,,,,,,,,,,,,,,,,,,,,0.049305598,0.092361106,1,0,0,response1disk,3,-0.002083302,0.006250011,1,0,0,center_square,0,2,2,0,1,,,,,,,,,,,,,,,,,,,,,,,
929785,001,2022-11-21_24h51.57.211,Info_measure_main_exp,2022.2.2,Win32,60.92731371,,,,,,,,,,,,,,,,,,masks/mask_001.jpg,,,,,,,,,,,,,,,,,,,,,,,,,,,,,,,,,,,,,,,,,,,0,0,0,0,1,,,,,,,,,,,,,,,,,,,,,,,,,,,,,,,,,,,,,,,,,,,,,,
929785,001,2022-11-21_24h51.57.211,Info_measure_main_exp,2022.2.2,Win32,60.92731371,,,,,,,,,,,,,,,,,,masks/mask_005.jpg,,,,,,,,,,,,,,,,,,,,,,,,,,,,,,,,,,,,,,,,,,,0,1,1,4,1,,,,,,,,,,,,,,,,,,,,,,,,,,,,,,,,,,,,,,,,,,,,,,
929785,001,2022-11-21_24h51.57.211,Info_measure_main_exp,2022.2.2,Win32,60.92731371,,,,,,,,,,,,,,,,,,masks/mask_002.jpg,,,,,,,,,,,,,,,,,,,,,,,,,,,,,,,,,,,,,,,,,,,0,2,2,1,1,,,,,,,,,,,,,,,,,,,,,,,,,,,,,,,,,,,,,,,,,,,,,,
929785,001,2022-11-21_24h51.57.211,Info_measure_main_exp,2022.2.2,Win32,60.92731371,,,,,,,,,,,,,,,,,,masks/mask_004.jpg,,,,,,,,,,,,,,,,,,,,,,,,,,,,,,,,,,,,,,,,,,,0,3,3,3,1,,,,,,,,,,,,,,,,,,,,,,,,,,,,,,,,,,,,,,,,,,,,,,
929785,001,2022-11-21_24h51.57.211,Info_measure_main_exp,2022.2.2,Win32,60.92731371,,,,,,,,,,,,,,,,,,masks/mask_003.jpg,,,,,,,,,,,,,,,,,,,,,,,,,,,,,,,,,,,,,,,,,,,0,4,4,2,1,,,,,,,,,,,,,,,,,,,,,,,,,,,,,,,,,,,,,,,,,,,,,,
929785,001,2022-11-21_24h51.57.211,Info_measure_main_exp,2022.2.2,Win32,60.92731371,,,,,,,,,,,,,,,,,,masks/mask_003.jpg,,,,,,,,,,,,,,,,,,,,,,,,,,,,,,,,,,,,,,,,,,,,,,,,0,0,0,2,1,,,,,,,,,,,,,,,,,,,,,,,,,,,,,,,,,,,,,,,,,
929785,001,2022-11-21_24h51.57.211,Info_measure_main_exp,2022.2.2,Win32,60.92731371,,,,,,,,,,,,,,,,,,masks/mask_005.jpg,,,,,,,,,,,,,,,,,,,,,,,,,,,,,,,,,,,,,,,,,,,,,,,,0,1,1,4,1,,,,,,,,,,,,,,,,,,,,,,,,,,,,,,,,,,,,,,,,,
929785,001,2022-11-21_24h51.57.211,Info_measure_main_exp,2022.2.2,Win32,60.92731371,,,,,,,,,,,,,,,,,,masks/mask_001.jpg,,,,,,,,,,,,,,,,,,,,,,,,,,,,,,,,,,,,,,,,,,,,,,,,0,2,2,0,1,,,,,,,,,,,,,,,,,,,,,,,,,,,,,,,,,,,,,,,,,
929785,001,2022-11-21_24h51.57.211,Info_measure_main_exp,2022.2.2,Win32,60.92731371,,,,,,,,,,,,,,,,,,masks/mask_002.jpg,,,,,,,,,,,,,,,,,,,,,,,,,,,,,,,,,,,,,,,,,,,,,,,,0,3,3,1,1,,,,,,,,,,,,,,,,,,,,,,,,,,,,,,,,,,,,,,,,,
929785,001,2022-11-21_24h51.57.211,Info_measure_main_exp,2022.2.2,Win32,60.92731371,,,,,,,,,,,,,,,,,,masks/mask_004.jpg,,,,,,,,,,,,,,,,,,,,,,,,,,,,,,,,,,,,,,,,,,,,,,,,0,4,4,3,1,,,,,,,,,,,,,,,,,,,,,,,,,,,,,,,,,,,,,,,,,
929785,001,2022-11-21_24h51.57.211,Info_measure_main_exp,2022.2.2,Win32,60.92731371,,,,,,,,,,,,,,,,,,,,,,,,,,,,,,0,1.066,1,,,,,,,,,,,,0,131,5,5,1986,1986,absent_patch/patch0001986.jpg,absent_patch/patch0001986.jpg,,,,,,,,,,,,,,,,,,,,-0.046527757,0.176388873,1,0,0,response7disk,4,0.002083355,0.002777788,1,0,0,center_square,0,3,3,19,1,,,,,,,,,,,,,,,,,,,,,,,
929785,001,2022-11-21_24h51.57.211,Info_measure_main_exp,2022.2.2,Win32,60.92731371,,,,,,,,,,,,,,,,,,masks/mask_003.jpg,,,,,,,,,,,,,,,,,,,,,,,,,,,,,,,,,,,,,,,,,,,0,0,0,2,1,,,,,,,,,,,,,,,,,,,,,,,,,,,,,,,,,,,,,,,,,,,,,,
929785,001,2022-11-21_24h51.57.211,Info_measure_main_exp,2022.2.2,Win32,60.92731371,,,,,,,,,,,,,,,,,,masks/mask_004.jpg,,,,,,,,,,,,,,,,,,,,,,,,,,,,,,,,,,,,,,,,,,,0,1,1,3,1,,,,,,,,,,,,,,,,,,,,,,,,,,,,,,,,,,,,,,,,,,,,,,
929785,001,2022-11-21_24h51.57.211,Info_measure_main_exp,2022.2.2,Win32,60.92731371,,,,,,,,,,,,,,,,,,masks/mask_005.jpg,,,,,,,,,,,,,,,,,,,,,,,,,,,,,,,,,,,,,,,,,,,0,2,2,4,1,,,,,,,,,,,,,,,,,,,,,,,,,,,,,,,,,,,,,,,,,,,,,,
929785,001,2022-11-21_24h51.57.211,Info_measure_main_exp,2022.2.2,Win32,60.92731371,,,,,,,,,,,,,,,,,,masks/mask_002.jpg,,,,,,,,,,,,,,,,,,,,,,,,,,,,,,,,,,,,,,,,,,,0,3,3,1,1,,,,,,,,,,,,,,,,,,,,,,,,,,,,,,,,,,,,,,,,,,,,,,
929785,001,2022-11-21_24h51.57.211,Info_measure_main_exp,2022.2.2,Win32,60.92731371,,,,,,,,,,,,,,,,,,masks/mask_001.jpg,,,,,,,,,,,,,,,,,,,,,,,,,,,,,,,,,,,,,,,,,,,0,4,4,0,1,,,,,,,,,,,,,,,,,,,,,,,,,,,,,,,,,,,,,,,,,,,,,,
929785,001,2022-11-21_24h51.57.211,Info_measure_main_exp,2022.2.2,Win32,60.92731371,,,,,,,,,,,,,,,,,,masks/mask_003.jpg,,,,,,,,,,,,,,,,,,,,,,,,,,,,,,,,,,,,,,,,,,,,,,,,0,0,0,2,1,,,,,,,,,,,,,,,,,,,,,,,,,,,,,,,,,,,,,,,,,
929785,001,2022-11-21_24h51.57.211,Info_measure_main_exp,2022.2.2,Win32,60.92731371,,,,,,,,,,,,,,,,,,masks/mask_005.jpg,,,,,,,,,,,,,,,,,,,,,,,,,,,,,,,,,,,,,,,,,,,,,,,,0,1,1,4,1,,,,,,,,,,,,,,,,,,,,,,,,,,,,,,,,,,,,,,,,,
929785,001,2022-11-21_24h51.57.211,Info_measure_main_exp,2022.2.2,Win32,60.92731371,,,,,,,,,,,,,,,,,,masks/mask_004.jpg,,,,,,,,,,,,,,,,,,,,,,,,,,,,,,,,,,,,,,,,,,,,,,,,0,2,2,3,1,,,,,,,,,,,,,,,,,,,,,,,,,,,,,,,,,,,,,,,,,
929785,001,2022-11-21_24h51.57.211,Info_measure_main_exp,2022.2.2,Win32,60.92731371,,,,,,,,,,,,,,,,,,masks/mask_001.jpg,,,,,,,,,,,,,,,,,,,,,,,,,,,,,,,,,,,,,,,,,,,,,,,,0,3,3,0,1,,,,,,,,,,,,,,,,,,,,,,,,,,,,,,,,,,,,,,,,,
929785,001,2022-11-21_24h51.57.211,Info_measure_main_exp,2022.2.2,Win32,60.92731371,,,,,,,,,,,,,,,,,,masks/mask_002.jpg,,,,,,,,,,,,,,,,,,,,,,,,,,,,,,,,,,,,,,,,,,,,,,,,0,4,4,1,1,,,,,,,,,,,,,,,,,,,,,,,,,,,,,,,,,,,,,,,,,
929785,001,2022-11-21_24h51.57.211,Info_measure_main_exp,2022.2.2,Win32,60.92731371,,,,,,,,,,,,,,,,,,,,,,,,,,,,,,3,3.025,1,,,,,,,,,,,,1,131,5,5,1,2154,present_patch/cong_131_5_a.jpg,absent_patch/patch0002154.jpg,,,,,,,,,,,,,,,,,,,,-0.045138889,-0.061111132,1,0,0,response5disk,5,-0.005555524,-0.000694434,1,0,0,center_square,0,4,4,87,1,,,,,,,,,,,,,,,,,,,,,,,
929785,001,2022-11-21_24h51.57.211,Info_measure_main_exp,2022.2.2,Win32,60.92731371,,,,,,,,,,,,,,,,,,masks/mask_003.jpg,,,,,,,,,,,,,,,,,,,,,,,,,,,,,,,,,,,,,,,,,,,0,0,0,2,1,,,,,,,,,,,,,,,,,,,,,,,,,,,,,,,,,,,,,,,,,,,,,,
929785,001,2022-11-21_24h51.57.211,Info_measure_main_exp,2022.2.2,Win32,60.92731371,,,,,,,,,,,,,,,,,,masks/mask_004.jpg,,,,,,,,,,,,,,,,,,,,,,,,,,,,,,,,,,,,,,,,,,,0,1,1,3,1,,,,,,,,,,,,,,,,,,,,,,,,,,,,,,,,,,,,,,,,,,,,,,
929785,001,2022-11-21_24h51.57.211,Info_measure_main_exp,2022.2.2,Win32,60.92731371,,,,,,,,,,,,,,,,,,masks/mask_002.jpg,,,,,,,,,,,,,,,,,,,,,,,,,,,,,,,,,,,,,,,,,,,0,2,2,1,1,,,,,,,,,,,,,,,,,,,,,,,,,,,,,,,,,,,,,,,,,,,,,,
929785,001,2022-11-21_24h51.57.211,Info_measure_main_exp,2022.2.2,Win32,60.92731371,,,,,,,,,,,,,,,,,,masks/mask_005.jpg,,,,,,,,,,,,,,,,,,,,,,,,,,,,,,,,,,,,,,,,,,,0,3,3,4,1,,,,,,,,,,,,,,,,,,,,,,,,,,,,,,,,,,,,,,,,,,,,,,
929785,001,2022-11-21_24h51.57.211,Info_measure_main_exp,2022.2.2,Win32,60.92731371,,,,,,,,,,,,,,,,,,masks/mask_001.jpg,,,,,,,,,,,,,,,,,,,,,,,,,,,,,,,,,,,,,,,,,,,0,4,4,0,1,,,,,,,,,,,,,,,,,,,,,,,,,,,,,,,,,,,,,,,,,,,,,,
929785,001,2022-11-21_24h51.57.211,Info_measure_main_exp,2022.2.2,Win32,60.92731371,,,,,,,,,,,,,,,,,,masks/mask_002.jpg,,,,,,,,,,,,,,,,,,,,,,,,,,,,,,,,,,,,,,,,,,,,,,,,0,0,0,1,1,,,,,,,,,,,,,,,,,,,,,,,,,,,,,,,,,,,,,,,,,
929785,001,2022-11-21_24h51.57.211,Info_measure_main_exp,2022.2.2,Win32,60.92731371,,,,,,,,,,,,,,,,,,masks/mask_004.jpg,,,,,,,,,,,,,,,,,,,,,,,,,,,,,,,,,,,,,,,,,,,,,,,,0,1,1,3,1,,,,,,,,,,,,,,,,,,,,,,,,,,,,,,,,,,,,,,,,,
929785,001,2022-11-21_24h51.57.211,Info_measure_main_exp,2022.2.2,Win32,60.92731371,,,,,,,,,,,,,,,,,,masks/mask_001.jpg,,,,,,,,,,,,,,,,,,,,,,,,,,,,,,,,,,,,,,,,,,,,,,,,0,2,2,0,1,,,,,,,,,,,,,,,,,,,,,,,,,,,,,,,,,,,,,,,,,
929785,001,2022-11-21_24h51.57.211,Info_measure_main_exp,2022.2.2,Win32,60.92731371,,,,,,,,,,,,,,,,,,masks/mask_003.jpg,,,,,,,,,,,,,,,,,,,,,,,,,,,,,,,,,,,,,,,,,,,,,,,,0,3,3,2,1,,,,,,,,,,,,,,,,,,,,,,,,,,,,,,,,,,,,,,,,,
929785,001,2022-11-21_24h51.57.211,Info_measure_main_exp,2022.2.2,Win32,60.92731371,,,,,,,,,,,,,,,,,,masks/mask_005.jpg,,,,,,,,,,,,,,,,,,,,,,,,,,,,,,,,,,,,,,,,,,,,,,,,0,4,4,4,1,,,,,,,,,,,,,,,,,,,,,,,,,,,,,,,,,,,,,,,,,
929785,001,2022-11-21_24h51.57.211,Info_measure_main_exp,2022.2.2,Win32,60.92731371,,,,,,,,,,,,,,,,,,,,,,,,,,,,,,7,0.8638,1,,,,,,,,,,,,0,131,5,5,2274,2178,absent_patch/patch0002274.jpg,absent_patch/patch0002178.jpg,,,,,,,,,,,,,,,,,,,,0.05277782,0.118055556,1,0,0,response1disk,6,-0.002777788,0,1,0,0,center_square,0,5,5,117,1,,,,,,,,,,,,,,,,,,,,,,,
929785,001,2022-11-21_24h51.57.211,Info_measure_main_exp,2022.2.2,Win32,60.92731371,,,,,,,,,,,,,,,,,,masks/mask_001.jpg,,,,,,,,,,,,,,,,,,,,,,,,,,,,,,,,,,,,,,,,,,,0,0,0,0,1,,,,,,,,,,,,,,,,,,,,,,,,,,,,,,,,,,,,,,,,,,,,,,
929785,001,2022-11-21_24h51.57.211,Info_measure_main_exp,2022.2.2,Win32,60.92731371,,,,,,,,,,,,,,,,,,masks/mask_003.jpg,,,,,,,,,,,,,,,,,,,,,,,,,,,,,,,,,,,,,,,,,,,0,1,1,2,1,,,,,,,,,,,,,,,,,,,,,,,,,,,,,,,,,,,,,,,,,,,,,,
929785,001,2022-11-21_24h51.57.211,Info_measure_main_exp,2022.2.2,Win32,60.92731371,,,,,,,,,,,,,,,,,,masks/mask_002.jpg,,,,,,,,,,,,,,,,,,,,,,,,,,,,,,,,,,,,,,,,,,,0,2,2,1,1,,,,,,,,,,,,,,,,,,,,,,,,,,,,,,,,,,,,,,,,,,,,,,
929785,001,2022-11-21_24h51.57.211,Info_measure_main_exp,2022.2.2,Win32,60.92731371,,,,,,,,,,,,,,,,,,masks/mask_004.jpg,,,,,,,,,,,,,,,,,,,,,,,,,,,,,,,,,,,,,,,,,,,0,3,3,3,1,,,,,,,,,,,,,,,,,,,,,,,,,,,,,,,,,,,,,,,,,,,,,,
929785,001,2022-11-21_24h51.57.211,Info_measure_main_exp,2022.2.2,Win32,60.92731371,,,,,,,,,,,,,,,,,,masks/mask_005.jpg,,,,,,,,,,,,,,,,,,,,,,,,,,,,,,,,,,,,,,,,,,,0,4,4,4,1,,,,,,,,,,,,,,,,,,,,,,,,,,,,,,,,,,,,,,,,,,,,,,
929785,001,2022-11-21_24h51.57.211,Info_measure_main_exp,2022.2.2,Win32,60.92731371,,,,,,,,,,,,,,,,,,masks/mask_005.jpg,,,,,,,,,,,,,,,,,,,,,,,,,,,,,,,,,,,,,,,,,,,,,,,,0,0,0,4,1,,,,,,,,,,,,,,,,,,,,,,,,,,,,,,,,,,,,,,,,,
929785,001,2022-11-21_24h51.57.211,Info_measure_main_exp,2022.2.2,Win32,60.92731371,,,,,,,,,,,,,,,,,,masks/mask_003.jpg,,,,,,,,,,,,,,,,,,,,,,,,,,,,,,,,,,,,,,,,,,,,,,,,0,1,1,2,1,,,,,,,,,,,,,,,,,,,,,,,,,,,,,,,,,,,,,,,,,
929785,001,2022-11-21_24h51.57.211,Info_measure_main_exp,2022.2.2,Win32,60.92731371,,,,,,,,,,,,,,,,,,masks/mask_001.jpg,,,,,,,,,,,,,,,,,,,,,,,,,,,,,,,,,,,,,,,,,,,,,,,,0,2,2,0,1,,,,,,,,,,,,,,,,,,,,,,,,,,,,,,,,,,,,,,,,,
929785,001,2022-11-21_24h51.57.211,Info_measure_main_exp,2022.2.2,Win32,60.92731371,,,,,,,,,,,,,,,,,,masks/mask_004.jpg,,,,,,,,,,,,,,,,,,,,,,,,,,,,,,,,,,,,,,,,,,,,,,,,0,3,3,3,1,,,,,,,,,,,,,,,,,,,,,,,,,,,,,,,,,,,,,,,,,
929785,001,2022-11-21_24h51.57.211,Info_measure_main_exp,2022.2.2,Win32,60.92731371,,,,,,,,,,,,,,,,,,masks/mask_002.jpg,,,,,,,,,,,,,,,,,,,,,,,,,,,,,,,,,,,,,,,,,,,,,,,,0,4,4,1,1,,,,,,,,,,,,,,,,,,,,,,,,,,,,,,,,,,,,,,,,,
929785,001,2022-11-21_24h51.57.211,Info_measure_main_exp,2022.2.2,Win32,60.92731371,,,,,,,,,,,,,,,,,,,,,,,,,,,,,,4,2.5727,1,,,,,,,,,,,,0,131,5,5,1950,2082,absent_patch/patch0001950.jpg,absent_patch/patch0002082.jpg,,,,,,,,,,,,,,,,,,,,0.02152782,-0.068750011,1,0,0,response3disk,7,-0.002777788,0.000694434,1,0,0,center_square,0,6,6,12,1,,,,,,,,,,,,,,,,,,,,,,,
929785,001,2022-11-21_24h51.57.211,Info_measure_main_exp,2022.2.2,Win32,60.92731371,,,,,,,,,,,,,,,,,,masks/mask_001.jpg,,,,,,,,,,,,,,,,,,,,,,,,,,,,,,,,,,,,,,,,,,,0,0,0,0,1,,,,,,,,,,,,,,,,,,,,,,,,,,,,,,,,,,,,,,,,,,,,,,
929785,001,2022-11-21_24h51.57.211,Info_measure_main_exp,2022.2.2,Win32,60.92731371,,,,,,,,,,,,,,,,,,masks/mask_003.jpg,,,,,,,,,,,,,,,,,,,,,,,,,,,,,,,,,,,,,,,,,,,0,1,1,2,1,,,,,,,,,,,,,,,,,,,,,,,,,,,,,,,,,,,,,,,,,,,,,,
929785,001,2022-11-21_24h51.57.211,Info_measure_main_exp,2022.2.2,Win32,60.92731371,,,,,,,,,,,,,,,,,,masks/mask_005.jpg,,,,,,,,,,,,,,,,,,,,,,,,,,,,,,,,,,,,,,,,,,,0,2,2,4,1,,,,,,,,,,,,,,,,,,,,,,,,,,,,,,,,,,,,,,,,,,,,,,
929785,001,2022-11-21_24h51.57.211,Info_measure_main_exp,2022.2.2,Win32,60.92731371,,,,,,,,,,,,,,,,,,masks/mask_004.jpg,,,,,,,,,,,,,,,,,,,,,,,,,,,,,,,,,,,,,,,,,,,0,3,3,3,1,,,,,,,,,,,,,,,,,,,,,,,,,,,,,,,,,,,,,,,,,,,,,,
929785,001,2022-11-21_24h51.57.211,Info_measure_main_exp,2022.2.2,Win32,60.92731371,,,,,,,,,,,,,,,,,,masks/mask_002.jpg,,,,,,,,,,,,,,,,,,,,,,,,,,,,,,,,,,,,,,,,,,,0,4,4,1,1,,,,,,,,,,,,,,,,,,,,,,,,,,,,,,,,,,,,,,,,,,,,,,
929785,001,2022-11-21_24h51.57.211,Info_measure_main_exp,2022.2.2,Win32,60.92731371,,,,,,,,,,,,,,,,,,masks/mask_005.jpg,,,,,,,,,,,,,,,,,,,,,,,,,,,,,,,,,,,,,,,,,,,,,,,,0,0,0,4,1,,,,,,,,,,,,,,,,,,,,,,,,,,,,,,,,,,,,,,,,,
929785,001,2022-11-21_24h51.57.211,Info_measure_main_exp,2022.2.2,Win32,60.92731371,,,,,,,,,,,,,,,,,,masks/mask_004.jpg,,,,,,,,,,,,,,,,,,,,,,,,,,,,,,,,,,,,,,,,,,,,,,,,0,1,1,3,1,,,,,,,,,,,,,,,,,,,,,,,,,,,,,,,,,,,,,,,,,
929785,001,2022-11-21_24h51.57.211,Info_measure_main_exp,2022.2.2,Win32,60.92731371,,,,,,,,,,,,,,,,,,masks/mask_001.jpg,,,,,,,,,,,,,,,,,,,,,,,,,,,,,,,,,,,,,,,,,,,,,,,,0,2,2,0,1,,,,,,,,,,,,,,,,,,,,,,,,,,,,,,,,,,,,,,,,,
929785,001,2022-11-21_24h51.57.211,Info_measure_main_exp,2022.2.2,Win32,60.92731371,,,,,,,,,,,,,,,,,,masks/mask_003.jpg,,,,,,,,,,,,,,,,,,,,,,,,,,,,,,,,,,,,,,,,,,,,,,,,0,3,3,2,1,,,,,,,,,,,,,,,,,,,,,,,,,,,,,,,,,,,,,,,,,
929785,001,2022-11-21_24h51.57.211,Info_measure_main_exp,2022.2.2,Win32,60.92731371,,,,,,,,,,,,,,,,,,masks/mask_002.jpg,,,,,,,,,,,,,,,,,,,,,,,,,,,,,,,,,,,,,,,,,,,,,,,,0,4,4,1,1,,,,,,,,,,,,,,,,,,,,,,,,,,,,,,,,,,,,,,,,,
929785,001,2022-11-21_24h51.57.211,Info_measure_main_exp,2022.2.2,Win32,60.92731371,,,,,,,,,,,,,,,,,,,,,,,,,,,,,,3,1.8406,1,,,,,,,,,,,,1,131,5,5,2238,1,absent_patch/patch0002238.jpg,present_patch/cong_131_5_a.jpg,,,,,,,,,,,,,,,,,,,,-0.043055534,-0.086111122,1,0,0,response5disk,8,-0.002777788,-0.002083355,1,0,0,center_square,0,7,7,104,1,,,,,,,,,,,,,,,,,,,,,,,
929785,001,2022-11-21_24h51.57.211,Info_measure_main_exp,2022.2.2,Win32,60.92731371,,,,,,,,,,,,,,,,,,masks/mask_005.jpg,,,,,,,,,,,,,,,,,,,,,,,,,,,,,,,,,,,,,,,,,,,0,0,0,4,1,,,,,,,,,,,,,,,,,,,,,,,,,,,,,,,,,,,,,,,,,,,,,,
929785,001,2022-11-21_24h51.57.211,Info_measure_main_exp,2022.2.2,Win32,60.92731371,,,,,,,,,,,,,,,,,,masks/mask_004.jpg,,,,,,,,,,,,,,,,,,,,,,,,,,,,,,,,,,,,,,,,,,,0,1,1,3,1,,,,,,,,,,,,,,,,,,,,,,,,,,,,,,,,,,,,,,,,,,,,,,
929785,001,2022-11-21_24h51.57.211,Info_measure_main_exp,2022.2.2,Win32,60.92731371,,,,,,,,,,,,,,,,,,masks/mask_002.jpg,,,,,,,,,,,,,,,,,,,,,,,,,,,,,,,,,,,,,,,,,,,0,2,2,1,1,,,,,,,,,,,,,,,,,,,,,,,,,,,,,,,,,,,,,,,,,,,,,,
929785,001,2022-11-21_24h51.57.211,Info_measure_main_exp,2022.2.2,Win32,60.92731371,,,,,,,,,,,,,,,,,,masks/mask_003.jpg,,,,,,,,,,,,,,,,,,,,,,,,,,,,,,,,,,,,,,,,,,,0,3,3,2,1,,,,,,,,,,,,,,,,,,,,,,,,,,,,,,,,,,,,,,,,,,,,,,
929785,001,2022-11-21_24h51.57.211,Info_measure_main_exp,2022.2.2,Win32,60.92731371,,,,,,,,,,,,,,,,,,masks/mask_001.jpg,,,,,,,,,,,,,,,,,,,,,,,,,,,,,,,,,,,,,,,,,,,0,4,4,0,1,,,,,,,,,,,,,,,,,,,,,,,,,,,,,,,,,,,,,,,,,,,,,,
929785,001,2022-11-21_24h51.57.211,Info_measure_main_exp,2022.2.2,Win32,60.92731371,,,,,,,,,,,,,,,,,,masks/mask_003.jpg,,,,,,,,,,,,,,,,,,,,,,,,,,,,,,,,,,,,,,,,,,,,,,,,0,0,0,2,1,,,,,,,,,,,,,,,,,,,,,,,,,,,,,,,,,,,,,,,,,
929785,001,2022-11-21_24h51.57.211,Info_measure_main_exp,2022.2.2,Win32,60.92731371,,,,,,,,,,,,,,,,,,masks/mask_001.jpg,,,,,,,,,,,,,,,,,,,,,,,,,,,,,,,,,,,,,,,,,,,,,,,,0,1,1,0,1,,,,,,,,,,,,,,,,,,,,,,,,,,,,,,,,,,,,,,,,,
929785,001,2022-11-21_24h51.57.211,Info_measure_main_exp,2022.2.2,Win32,60.92731371,,,,,,,,,,,,,,,,,,masks/mask_005.jpg,,,,,,,,,,,,,,,,,,,,,,,,,,,,,,,,,,,,,,,,,,,,,,,,0,2,2,4,1,,,,,,,,,,,,,,,,,,,,,,,,,,,,,,,,,,,,,,,,,
929785,001,2022-11-21_24h51.57.211,Info_measure_main_exp,2022.2.2,Win32,60.92731371,,,,,,,,,,,,,,,,,,masks/mask_004.jpg,,,,,,,,,,,,,,,,,,,,,,,,,,,,,,,,,,,,,,,,,,,,,,,,0,3,3,3,1,,,,,,,,,,,,,,,,,,,,,,,,,,,,,,,,,,,,,,,,,
929785,001,2022-11-21_24h51.57.211,Info_measure_main_exp,2022.2.2,Win32,60.92731371,,,,,,,,,,,,,,,,,,masks/mask_002.jpg,,,,,,,,,,,,,,,,,,,,,,,,,,,,,,,,,,,,,,,,,,,,,,,,0,4,4,1,1,,,,,,,,,,,,,,,,,,,,,,,,,,,,,,,,,,,,,,,,,
929785,001,2022-11-21_24h51.57.211,Info_measure_main_exp,2022.2.2,Win32,60.92731371,,,,,,,,,,,,,,,,,,,,,,,,,,,,,,4,1.6202,1,,,,,,,,,,,,0,131,5,5,2082,1974,absent_patch/patch0002082.jpg,absent_patch/patch0001974.jpg,,,,,,,,,,,,,,,,,,,,0.017361111,-0.064583355,1,0,0,response3disk,9,-0.006944444,-0.000694434,1,0,0,center_square,0,8,8,26,1,,,,,,,,,,,,,,,,,,,,,,,
929785,001,2022-11-21_24h51.57.211,Info_measure_main_exp,2022.2.2,Win32,60.92731371,,,,,,,,,,,,,,,,,,masks/mask_005.jpg,,,,,,,,,,,,,,,,,,,,,,,,,,,,,,,,,,,,,,,,,,,0,0,0,4,1,,,,,,,,,,,,,,,,,,,,,,,,,,,,,,,,,,,,,,,,,,,,,,
929785,001,2022-11-21_24h51.57.211,Info_measure_main_exp,2022.2.2,Win32,60.92731371,,,,,,,,,,,,,,,,,,masks/mask_003.jpg,,,,,,,,,,,,,,,,,,,,,,,,,,,,,,,,,,,,,,,,,,,0,1,1,2,1,,,,,,,,,,,,,,,,,,,,,,,,,,,,,,,,,,,,,,,,,,,,,,
929785,001,2022-11-21_24h51.57.211,Info_measure_main_exp,2022.2.2,Win32,60.92731371,,,,,,,,,,,,,,,,,,masks/mask_001.jpg,,,,,,,,,,,,,,,,,,,,,,,,,,,,,,,,,,,,,,,,,,,0,2,2,0,1,,,,,,,,,,,,,,,,,,,,,,,,,,,,,,,,,,,,,,,,,,,,,,
929785,001,2022-11-21_24h51.57.211,Info_measure_main_exp,2022.2.2,Win32,60.92731371,,,,,,,,,,,,,,,,,,masks/mask_002.jpg,,,,,,,,,,,,,,,,,,,,,,,,,,,,,,,,,,,,,,,,,,,0,3,3,1,1,,,,,,,,,,,,,,,,,,,,,,,,,,,,,,,,,,,,,,,,,,,,,,
929785,001,2022-11-21_24h51.57.211,Info_measure_main_exp,2022.2.2,Win32,60.92731371,,,,,,,,,,,,,,,,,,masks/mask_004.jpg,,,,,,,,,,,,,,,,,,,,,,,,,,,,,,,,,,,,,,,,,,,0,4,4,3,1,,,,,,,,,,,,,,,,,,,,,,,,,,,,,,,,,,,,,,,,,,,,,,
929785,001,2022-11-21_24h51.57.211,Info_measure_main_exp,2022.2.2,Win32,60.92731371,,,,,,,,,,,,,,,,,,masks/mask_002.jpg,,,,,,,,,,,,,,,,,,,,,,,,,,,,,,,,,,,,,,,,,,,,,,,,0,0,0,1,1,,,,,,,,,,,,,,,,,,,,,,,,,,,,,,,,,,,,,,,,,
929785,001,2022-11-21_24h51.57.211,Info_measure_main_exp,2022.2.2,Win32,60.92731371,,,,,,,,,,,,,,,,,,masks/mask_003.jpg,,,,,,,,,,,,,,,,,,,,,,,,,,,,,,,,,,,,,,,,,,,,,,,,0,1,1,2,1,,,,,,,,,,,,,,,,,,,,,,,,,,,,,,,,,,,,,,,,,
929785,001,2022-11-21_24h51.57.211,Info_measure_main_exp,2022.2.2,Win32,60.92731371,,,,,,,,,,,,,,,,,,masks/mask_001.jpg,,,,,,,,,,,,,,,,,,,,,,,,,,,,,,,,,,,,,,,,,,,,,,,,0,2,2,0,1,,,,,,,,,,,,,,,,,,,,,,,,,,,,,,,,,,,,,,,,,
929785,001,2022-11-21_24h51.57.211,Info_measure_main_exp,2022.2.2,Win32,60.92731371,,,,,,,,,,,,,,,,,,masks/mask_004.jpg,,,,,,,,,,,,,,,,,,,,,,,,,,,,,,,,,,,,,,,,,,,,,,,,0,3,3,3,1,,,,,,,,,,,,,,,,,,,,,,,,,,,,,,,,,,,,,,,,,
929785,001,2022-11-21_24h51.57.211,Info_measure_main_exp,2022.2.2,Win32,60.92731371,,,,,,,,,,,,,,,,,,masks/mask_005.jpg,,,,,,,,,,,,,,,,,,,,,,,,,,,,,,,,,,,,,,,,,,,,,,,,0,4,4,4,1,,,,,,,,,,,,,,,,,,,,,,,,,,,,,,,,,,,,,,,,,
929785,001,2022-11-21_24h51.57.211,Info_measure_main_exp,2022.2.2,Win32,60.92731371,,,,,,,,,,,,,,,,,,,,,,,,,,,,,,7,1.0016,1,,,,,,,,,,,,0,131,5,5,1986,1950,absent_patch/patch0001986.jpg,absent_patch/patch0001950.jpg,,,,,,,,,,,,,,,,,,,,0.049305598,0.104861101,1,0,0,response1disk,10,0.002777841,0.006944444,1,0,0,center_square,0,9,9,15,1,,,,,,,,,,,,,,,,,,,,,,,
929785,001,2022-11-21_24h51.57.211,Info_measure_main_exp,2022.2.2,Win32,60.92731371,,,,,,,,,,,,,,,,,,masks/mask_005.jpg,,,,,,,,,,,,,,,,,,,,,,,,,,,,,,,,,,,,,,,,,,,0,0,0,4,1,,,,,,,,,,,,,,,,,,,,,,,,,,,,,,,,,,,,,,,,,,,,,,
929785,001,2022-11-21_24h51.57.211,Info_measure_main_exp,2022.2.2,Win32,60.92731371,,,,,,,,,,,,,,,,,,masks/mask_002.jpg,,,,,,,,,,,,,,,,,,,,,,,,,,,,,,,,,,,,,,,,,,,0,1,1,1,1,,,,,,,,,,,,,,,,,,,,,,,,,,,,,,,,,,,,,,,,,,,,,,
929785,001,2022-11-21_24h51.57.211,Info_measure_main_exp,2022.2.2,Win32,60.92731371,,,,,,,,,,,,,,,,,,masks/mask_004.jpg,,,,,,,,,,,,,,,,,,,,,,,,,,,,,,,,,,,,,,,,,,,0,2,2,3,1,,,,,,,,,,,,,,,,,,,,,,,,,,,,,,,,,,,,,,,,,,,,,,
929785,001,2022-11-21_24h51.57.211,Info_measure_main_exp,2022.2.2,Win32,60.92731371,,,,,,,,,,,,,,,,,,masks/mask_001.jpg,,,,,,,,,,,,,,,,,,,,,,,,,,,,,,,,,,,,,,,,,,,0,3,3,0,1,,,,,,,,,,,,,,,,,,,,,,,,,,,,,,,,,,,,,,,,,,,,,,
929785,001,2022-11-21_24h51.57.211,Info_measure_main_exp,2022.2.2,Win32,60.92731371,,,,,,,,,,,,,,,,,,masks/mask_003.jpg,,,,,,,,,,,,,,,,,,,,,,,,,,,,,,,,,,,,,,,,,,,0,4,4,2,1,,,,,,,,,,,,,,,,,,,,,,,,,,,,,,,,,,,,,,,,,,,,,,
929785,001,2022-11-21_24h51.57.211,Info_measure_main_exp,2022.2.2,Win32,60.92731371,,,,,,,,,,,,,,,,,,masks/mask_004.jpg,,,,,,,,,,,,,,,,,,,,,,,,,,,,,,,,,,,,,,,,,,,,,,,,0,0,0,3,1,,,,,,,,,,,,,,,,,,,,,,,,,,,,,,,,,,,,,,,,,
929785,001,2022-11-21_24h51.57.211,Info_measure_main_exp,2022.2.2,Win32,60.92731371,,,,,,,,,,,,,,,,,,masks/mask_005.jpg,,,,,,,,,,,,,,,,,,,,,,,,,,,,,,,,,,,,,,,,,,,,,,,,0,1,1,4,1,,,,,,,,,,,,,,,,,,,,,,,,,,,,,,,,,,,,,,,,,
929785,001,2022-11-21_24h51.57.211,Info_measure_main_exp,2022.2.2,Win32,60.92731371,,,,,,,,,,,,,,,,,,masks/mask_001.jpg,,,,,,,,,,,,,,,,,,,,,,,,,,,,,,,,,,,,,,,,,,,,,,,,0,2,2,0,1,,,,,,,,,,,,,,,,,,,,,,,,,,,,,,,,,,,,,,,,,
929785,001,2022-11-21_24h51.57.211,Info_measure_main_exp,2022.2.2,Win32,60.92731371,,,,,,,,,,,,,,,,,,masks/mask_003.jpg,,,,,,,,,,,,,,,,,,,,,,,,,,,,,,,,,,,,,,,,,,,,,,,,0,3,3,2,1,,,,,,,,,,,,,,,,,,,,,,,,,,,,,,,,,,,,,,,,,
929785,001,2022-11-21_24h51.57.211,Info_measure_main_exp,2022.2.2,Win32,60.92731371,,,,,,,,,,,,,,,,,,masks/mask_002.jpg,,,,,,,,,,,,,,,,,,,,,,,,,,,,,,,,,,,,,,,,,,,,,,,,0,4,4,1,1,,,,,,,,,,,,,,,,,,,,,,,,,,,,,,,,,,,,,,,,,
929785,001,2022-11-21_24h51.57.211,Info_measure_main_exp,2022.2.2,Win32,60.92731371,,,,,,,,,,,,,,,,,,,,,,,,,,,,,,7,0.7968,1,,,,,,,,,,,,0,131,5,5,2082,2238,absent_patch/patch0002082.jpg,absent_patch/patch0002238.jpg,,,,,,,,,,,,,,,,,,,,0.022916688,0.109027783,1,0,0,response1disk,11,0,0.00486109,1,0,0,center_square,0,10,10,22,1,,,,,,,,,,,,,,,,,,,,,,,
929785,001,2022-11-21_24h51.57.211,Info_measure_main_exp,2022.2.2,Win32,60.92731371,,,,,,,,,,,,,,,,,,masks/mask_002.jpg,,,,,,,,,,,,,,,,,,,,,,,,,,,,,,,,,,,,,,,,,,,0,0,0,1,1,,,,,,,,,,,,,,,,,,,,,,,,,,,,,,,,,,,,,,,,,,,,,,
929785,001,2022-11-21_24h51.57.211,Info_measure_main_exp,2022.2.2,Win32,60.92731371,,,,,,,,,,,,,,,,,,masks/mask_003.jpg,,,,,,,,,,,,,,,,,,,,,,,,,,,,,,,,,,,,,,,,,,,0,1,1,2,1,,,,,,,,,,,,,,,,,,,,,,,,,,,,,,,,,,,,,,,,,,,,,,
929785,001,2022-11-21_24h51.57.211,Info_measure_main_exp,2022.2.2,Win32,60.92731371,,,,,,,,,,,,,,,,,,masks/mask_004.jpg,,,,,,,,,,,,,,,,,,,,,,,,,,,,,,,,,,,,,,,,,,,0,2,2,3,1,,,,,,,,,,,,,,,,,,,,,,,,,,,,,,,,,,,,,,,,,,,,,,
929785,001,2022-11-21_24h51.57.211,Info_measure_main_exp,2022.2.2,Win32,60.92731371,,,,,,,,,,,,,,,,,,masks/mask_005.jpg,,,,,,,,,,,,,,,,,,,,,,,,,,,,,,,,,,,,,,,,,,,0,3,3,4,1,,,,,,,,,,,,,,,,,,,,,,,,,,,,,,,,,,,,,,,,,,,,,,
929785,001,2022-11-21_24h51.57.211,Info_measure_main_exp,2022.2.2,Win32,60.92731371,,,,,,,,,,,,,,,,,,masks/mask_001.jpg,,,,,,,,,,,,,,,,,,,,,,,,,,,,,,,,,,,,,,,,,,,0,4,4,0,1,,,,,,,,,,,,,,,,,,,,,,,,,,,,,,,,,,,,,,,,,,,,,,
929785,001,2022-11-21_24h51.57.211,Info_measure_main_exp,2022.2.2,Win32,60.92731371,,,,,,,,,,,,,,,,,,masks/mask_003.jpg,,,,,,,,,,,,,,,,,,,,,,,,,,,,,,,,,,,,,,,,,,,,,,,,0,0,0,2,1,,,,,,,,,,,,,,,,,,,,,,,,,,,,,,,,,,,,,,,,,
929785,001,2022-11-21_24h51.57.211,Info_measure_main_exp,2022.2.2,Win32,60.92731371,,,,,,,,,,,,,,,,,,masks/mask_002.jpg,,,,,,,,,,,,,,,,,,,,,,,,,,,,,,,,,,,,,,,,,,,,,,,,0,1,1,1,1,,,,,,,,,,,,,,,,,,,,,,,,,,,,,,,,,,,,,,,,,
929785,001,2022-11-21_24h51.57.211,Info_measure_main_exp,2022.2.2,Win32,60.92731371,,,,,,,,,,,,,,,,,,masks/mask_004.jpg,,,,,,,,,,,,,,,,,,,,,,,,,,,,,,,,,,,,,,,,,,,,,,,,0,2,2,3,1,,,,,,,,,,,,,,,,,,,,,,,,,,,,,,,,,,,,,,,,,
929785,001,2022-11-21_24h51.57.211,Info_measure_main_exp,2022.2.2,Win32,60.92731371,,,,,,,,,,,,,,,,,,masks/mask_001.jpg,,,,,,,,,,,,,,,,,,,,,,,,,,,,,,,,,,,,,,,,,,,,,,,,0,3,3,0,1,,,,,,,,,,,,,,,,,,,,,,,,,,,,,,,,,,,,,,,,,
929785,001,2022-11-21_24h51.57.211,Info_measure_main_exp,2022.2.2,Win32,60.92731371,,,,,,,,,,,,,,,,,,masks/mask_005.jpg,,,,,,,,,,,,,,,,,,,,,,,,,,,,,,,,,,,,,,,,,,,,,,,,0,4,4,4,1,,,,,,,,,,,,,,,,,,,,,,,,,,,,,,,,,,,,,,,,,
929785,001,2022-11-21_24h51.57.211,Info_measure_main_exp,2022.2.2,Win32,60.92731371,,,,,,,,,,,,,,,,,,,,,,,,,,,,,,7,0.8006,1,,,,,,,,,,,,0,131,5,5,1974,2214,absent_patch/patch0001974.jpg,absent_patch/patch0002214.jpg,,,,,,,,,,,,,,,,,,,,0.039583312,0.109722217,1,0,0,response1disk,12,-0.008333312,0.002083302,1,0,0,center_square,0,11,11,24,1,,,,,,,,,,,,,,,,,,,,,,,
929785,001,2022-11-21_24h51.57.211,Info_measure_main_exp,2022.2.2,Win32,60.92731371,,,,,,,,,,,,,,,,,,masks/mask_004.jpg,,,,,,,,,,,,,,,,,,,,,,,,,,,,,,,,,,,,,,,,,,,0,0,0,3,1,,,,,,,,,,,,,,,,,,,,,,,,,,,,,,,,,,,,,,,,,,,,,,
929785,001,2022-11-21_24h51.57.211,Info_measure_main_exp,2022.2.2,Win32,60.92731371,,,,,,,,,,,,,,,,,,masks/mask_003.jpg,,,,,,,,,,,,,,,,,,,,,,,,,,,,,,,,,,,,,,,,,,,0,1,1,2,1,,,,,,,,,,,,,,,,,,,,,,,,,,,,,,,,,,,,,,,,,,,,,,
929785,001,2022-11-21_24h51.57.211,Info_measure_main_exp,2022.2.2,Win32,60.92731371,,,,,,,,,,,,,,,,,,masks/mask_001.jpg,,,,,,,,,,,,,,,,,,,,,,,,,,,,,,,,,,,,,,,,,,,0,2,2,0,1,,,,,,,,,,,,,,,,,,,,,,,,,,,,,,,,,,,,,,,,,,,,,,
929785,001,2022-11-21_24h51.57.211,Info_measure_main_exp,2022.2.2,Win32,60.92731371,,,,,,,,,,,,,,,,,,masks/mask_005.jpg,,,,,,,,,,,,,,,,,,,,,,,,,,,,,,,,,,,,,,,,,,,0,3,3,4,1,,,,,,,,,,,,,,,,,,,,,,,,,,,,,,,,,,,,,,,,,,,,,,
929785,001,2022-11-21_24h51.57.211,Info_measure_main_exp,2022.2.2,Win32,60.92731371,,,,,,,,,,,,,,,,,,masks/mask_002.jpg,,,,,,,,,,,,,,,,,,,,,,,,,,,,,,,,,,,,,,,,,,,0,4,4,1,1,,,,,,,,,,,,,,,,,,,,,,,,,,,,,,,,,,,,,,,,,,,,,,
929785,001,2022-11-21_24h51.57.211,Info_measure_main_exp,2022.2.2,Win32,60.92731371,,,,,,,,,,,,,,,,,,masks/mask_005.jpg,,,,,,,,,,,,,,,,,,,,,,,,,,,,,,,,,,,,,,,,,,,,,,,,0,0,0,4,1,,,,,,,,,,,,,,,,,,,,,,,,,,,,,,,,,,,,,,,,,
929785,001,2022-11-21_24h51.57.211,Info_measure_main_exp,2022.2.2,Win32,60.92731371,,,,,,,,,,,,,,,,,,masks/mask_004.jpg,,,,,,,,,,,,,,,,,,,,,,,,,,,,,,,,,,,,,,,,,,,,,,,,0,1,1,3,1,,,,,,,,,,,,,,,,,,,,,,,,,,,,,,,,,,,,,,,,,
929785,001,2022-11-21_24h51.57.211,Info_measure_main_exp,2022.2.2,Win32,60.92731371,,,,,,,,,,,,,,,,,,masks/mask_002.jpg,,,,,,,,,,,,,,,,,,,,,,,,,,,,,,,,,,,,,,,,,,,,,,,,0,2,2,1,1,,,,,,,,,,,,,,,,,,,,,,,,,,,,,,,,,,,,,,,,,
929785,001,2022-11-21_24h51.57.211,Info_measure_main_exp,2022.2.2,Win32,60.92731371,,,,,,,,,,,,,,,,,,masks/mask_003.jpg,,,,,,,,,,,,,,,,,,,,,,,,,,,,,,,,,,,,,,,,,,,,,,,,0,3,3,2,1,,,,,,,,,,,,,,,,,,,,,,,,,,,,,,,,,,,,,,,,,
929785,001,2022-11-21_24h51.57.211,Info_measure_main_exp,2022.2.2,Win32,60.92731371,,,,,,,,,,,,,,,,,,masks/mask_001.jpg,,,,,,,,,,,,,,,,,,,,,,,,,,,,,,,,,,,,,,,,,,,,,,,,0,4,4,0,1,,,,,,,,,,,,,,,,,,,,,,,,,,,,,,,,,,,,,,,,,
929785,001,2022-11-21_24h51.57.211,Info_measure_main_exp,2022.2.2,Win32,60.92731371,,,,,,,,,,,,,,,,,,,,,,,,,,,,,,7,1.3807,1,,,,,,,,,,,,0,131,5,5,2298,2178,absent_patch/patch0002298.jpg,absent_patch/patch0002178.jpg,,,,,,,,,,,,,,,,,,,,0.018055598,0.065972222,1,0,0,response1disk,13,-0.004166656,0.008333312,1,0,0,center_square,0,12,12,84,1,,,,,,,,,,,,,,,,,,,,,,,
929785,001,2022-11-21_24h51.57.211,Info_measure_main_exp,2022.2.2,Win32,60.92731371,,,,,,,,,,,,,,,,,,masks/mask_005.jpg,,,,,,,,,,,,,,,,,,,,,,,,,,,,,,,,,,,,,,,,,,,0,0,0,4,1,,,,,,,,,,,,,,,,,,,,,,,,,,,,,,,,,,,,,,,,,,,,,,
929785,001,2022-11-21_24h51.57.211,Info_measure_main_exp,2022.2.2,Win32,60.92731371,,,,,,,,,,,,,,,,,,masks/mask_003.jpg,,,,,,,,,,,,,,,,,,,,,,,,,,,,,,,,,,,,,,,,,,,0,1,1,2,1,,,,,,,,,,,,,,,,,,,,,,,,,,,,,,,,,,,,,,,,,,,,,,
929785,001,2022-11-21_24h51.57.211,Info_measure_main_exp,2022.2.2,Win32,60.92731371,,,,,,,,,,,,,,,,,,masks/mask_002.jpg,,,,,,,,,,,,,,,,,,,,,,,,,,,,,,,,,,,,,,,,,,,0,2,2,1,1,,,,,,,,,,,,,,,,,,,,,,,,,,,,,,,,,,,,,,,,,,,,,,
929785,001,2022-11-21_24h51.57.211,Info_measure_main_exp,2022.2.2,Win32,60.92731371,,,,,,,,,,,,,,,,,,masks/mask_004.jpg,,,,,,,,,,,,,,,,,,,,,,,,,,,,,,,,,,,,,,,,,,,0,3,3,3,1,,,,,,,,,,,,,,,,,,,,,,,,,,,,,,,,,,,,,,,,,,,,,,
929785,001,2022-11-21_24h51.57.211,Info_measure_main_exp,2022.2.2,Win32,60.92731371,,,,,,,,,,,,,,,,,,masks/mask_001.jpg,,,,,,,,,,,,,,,,,,,,,,,,,,,,,,,,,,,,,,,,,,,0,4,4,0,1,,,,,,,,,,,,,,,,,,,,,,,,,,,,,,,,,,,,,,,,,,,,,,
929785,001,2022-11-21_24h51.57.211,Info_measure_main_exp,2022.2.2,Win32,60.92731371,,,,,,,,,,,,,,,,,,masks/mask_001.jpg,,,,,,,,,,,,,,,,,,,,,,,,,,,,,,,,,,,,,,,,,,,,,,,,0,0,0,0,1,,,,,,,,,,,,,,,,,,,,,,,,,,,,,,,,,,,,,,,,,
929785,001,2022-11-21_24h51.57.211,Info_measure_main_exp,2022.2.2,Win32,60.92731371,,,,,,,,,,,,,,,,,,masks/mask_004.jpg,,,,,,,,,,,,,,,,,,,,,,,,,,,,,,,,,,,,,,,,,,,,,,,,0,1,1,3,1,,,,,,,,,,,,,,,,,,,,,,,,,,,,,,,,,,,,,,,,,
929785,001,2022-11-21_24h51.57.211,Info_measure_main_exp,2022.2.2,Win32,60.92731371,,,,,,,,,,,,,,,,,,masks/mask_002.jpg,,,,,,,,,,,,,,,,,,,,,,,,,,,,,,,,,,,,,,,,,,,,,,,,0,2,2,1,1,,,,,,,,,,,,,,,,,,,,,,,,,,,,,,,,,,,,,,,,,
929785,001,2022-11-21_24h51.57.211,Info_measure_main_exp,2022.2.2,Win32,60.92731371,,,,,,,,,,,,,,,,,,masks/mask_003.jpg,,,,,,,,,,,,,,,,,,,,,,,,,,,,,,,,,,,,,,,,,,,,,,,,0,3,3,2,1,,,,,,,,,,,,,,,,,,,,,,,,,,,,,,,,,,,,,,,,,
929785,001,2022-11-21_24h51.57.211,Info_measure_main_exp,2022.2.2,Win32,60.92731371,,,,,,,,,,,,,,,,,,masks/mask_005.jpg,,,,,,,,,,,,,,,,,,,,,,,,,,,,,,,,,,,,,,,,,,,,,,,,0,4,4,4,1,,,,,,,,,,,,,,,,,,,,,,,,,,,,,,,,,,,,,,,,,
929785,001,2022-11-21_24h51.57.211,Info_measure_main_exp,2022.2.2,Win32,60.92731371,,,,,,,,,,,,,,,,,,,,,,,,,,,,,,7,0.9463,1,,,,,,,,,,,,0,131,5,5,2274,2190,absent_patch/patch0002274.jpg,absent_patch/patch0002190.jpg,,,,,,,,,,,,,,,,,,,,0.029861132,0.079861111,1,0,0,response1disk,14,0.002083355,0.00486109,1,0,0,center_square,0,13,13,116,1,,,,,,,,,,,,,,,,,,,,,,,
929785,001,2022-11-21_24h51.57.211,Info_measure_main_exp,2022.2.2,Win32,60.92731371,,,,,,,,,,,,,,,,,,masks/mask_005.jpg,,,,,,,,,,,,,,,,,,,,,,,,,,,,,,,,,,,,,,,,,,,0,0,0,4,1,,,,,,,,,,,,,,,,,,,,,,,,,,,,,,,,,,,,,,,,,,,,,,
929785,001,2022-11-21_24h51.57.211,Info_measure_main_exp,2022.2.2,Win32,60.92731371,,,,,,,,,,,,,,,,,,masks/mask_004.jpg,,,,,,,,,,,,,,,,,,,,,,,,,,,,,,,,,,,,,,,,,,,0,1,1,3,1,,,,,,,,,,,,,,,,,,,,,,,,,,,,,,,,,,,,,,,,,,,,,,
929785,001,2022-11-21_24h51.57.211,Info_measure_main_exp,2022.2.2,Win32,60.92731371,,,,,,,,,,,,,,,,,,masks/mask_002.jpg,,,,,,,,,,,,,,,,,,,,,,,,,,,,,,,,,,,,,,,,,,,0,2,2,1,1,,,,,,,,,,,,,,,,,,,,,,,,,,,,,,,,,,,,,,,,,,,,,,
929785,001,2022-11-21_24h51.57.211,Info_measure_main_exp,2022.2.2,Win32,60.92731371,,,,,,,,,,,,,,,,,,masks/mask_001.jpg,,,,,,,,,,,,,,,,,,,,,,,,,,,,,,,,,,,,,,,,,,,0,3,3,0,1,,,,,,,,,,,,,,,,,,,,,,,,,,,,,,,,,,,,,,,,,,,,,,
929785,001,2022-11-21_24h51.57.211,Info_measure_main_exp,2022.2.2,Win32,60.92731371,,,,,,,,,,,,,,,,,,masks/mask_003.jpg,,,,,,,,,,,,,,,,,,,,,,,,,,,,,,,,,,,,,,,,,,,0,4,4,2,1,,,,,,,,,,,,,,,,,,,,,,,,,,,,,,,,,,,,,,,,,,,,,,
929785,001,2022-11-21_24h51.57.211,Info_measure_main_exp,2022.2.2,Win32,60.92731371,,,,,,,,,,,,,,,,,,masks/mask_005.jpg,,,,,,,,,,,,,,,,,,,,,,,,,,,,,,,,,,,,,,,,,,,,,,,,0,0,0,4,1,,,,,,,,,,,,,,,,,,,,,,,,,,,,,,,,,,,,,,,,,
929785,001,2022-11-21_24h51.57.211,Info_measure_main_exp,2022.2.2,Win32,60.92731371,,,,,,,,,,,,,,,,,,masks/mask_001.jpg,,,,,,,,,,,,,,,,,,,,,,,,,,,,,,,,,,,,,,,,,,,,,,,,0,1,1,0,1,,,,,,,,,,,,,,,,,,,,,,,,,,,,,,,,,,,,,,,,,
929785,001,2022-11-21_24h51.57.211,Info_measure_main_exp,2022.2.2,Win32,60.92731371,,,,,,,,,,,,,,,,,,masks/mask_003.jpg,,,,,,,,,,,,,,,,,,,,,,,,,,,,,,,,,,,,,,,,,,,,,,,,0,2,2,2,1,,,,,,,,,,,,,,,,,,,,,,,,,,,,,,,,,,,,,,,,,
929785,001,2022-11-21_24h51.57.211,Info_measure_main_exp,2022.2.2,Win32,60.92731371,,,,,,,,,,,,,,,,,,masks/mask_002.jpg,,,,,,,,,,,,,,,,,,,,,,,,,,,,,,,,,,,,,,,,,,,,,,,,0,3,3,1,1,,,,,,,,,,,,,,,,,,,,,,,,,,,,,,,,,,,,,,,,,
929785,001,2022-11-21_24h51.57.211,Info_measure_main_exp,2022.2.2,Win32,60.92731371,,,,,,,,,,,,,,,,,,masks/mask_004.jpg,,,,,,,,,,,,,,,,,,,,,,,,,,,,,,,,,,,,,,,,,,,,,,,,0,4,4,3,1,,,,,,,,,,,,,,,,,,,,,,,,,,,,,,,,,,,,,,,,,
929785,001,2022-11-21_24h51.57.211,Info_measure_main_exp,2022.2.2,Win32,60.92731371,,,,,,,,,,,,,,,,,,,,,,,,,,,,,,7,0.747,1,,,,,,,,,,,,0,131,5,5,2082,1986,absent_patch/patch0002082.jpg,absent_patch/patch0001986.jpg,,,,,,,,,,,,,,,,,,,,0.040972286,0.080555545,1,0,0,response1disk,15,0.00486109,0.000694434,1,0,0,center_square,0,14,14,94,1,,,,,,,,,,,,,,,,,,,,,,,
929785,001,2022-11-21_24h51.57.211,Info_measure_main_exp,2022.2.2,Win32,60.92731371,,,,,,,,,,,,,,,,,,masks/mask_002.jpg,,,,,,,,,,,,,,,,,,,,,,,,,,,,,,,,,,,,,,,,,,,0,0,0,1,1,,,,,,,,,,,,,,,,,,,,,,,,,,,,,,,,,,,,,,,,,,,,,,
929785,001,2022-11-21_24h51.57.211,Info_measure_main_exp,2022.2.2,Win32,60.92731371,,,,,,,,,,,,,,,,,,masks/mask_001.jpg,,,,,,,,,,,,,,,,,,,,,,,,,,,,,,,,,,,,,,,,,,,0,1,1,0,1,,,,,,,,,,,,,,,,,,,,,,,,,,,,,,,,,,,,,,,,,,,,,,
929785,001,2022-11-21_24h51.57.211,Info_measure_main_exp,2022.2.2,Win32,60.92731371,,,,,,,,,,,,,,,,,,masks/mask_005.jpg,,,,,,,,,,,,,,,,,,,,,,,,,,,,,,,,,,,,,,,,,,,0,2,2,4,1,,,,,,,,,,,,,,,,,,,,,,,,,,,,,,,,,,,,,,,,,,,,,,
929785,001,2022-11-21_24h51.57.211,Info_measure_main_exp,2022.2.2,Win32,60.92731371,,,,,,,,,,,,,,,,,,masks/mask_004.jpg,,,,,,,,,,,,,,,,,,,,,,,,,,,,,,,,,,,,,,,,,,,0,3,3,3,1,,,,,,,,,,,,,,,,,,,,,,,,,,,,,,,,,,,,,,,,,,,,,,
929785,001,2022-11-21_24h51.57.211,Info_measure_main_exp,2022.2.2,Win32,60.92731371,,,,,,,,,,,,,,,,,,masks/mask_003.jpg,,,,,,,,,,,,,,,,,,,,,,,,,,,,,,,,,,,,,,,,,,,0,4,4,2,1,,,,,,,,,,,,,,,,,,,,,,,,,,,,,,,,,,,,,,,,,,,,,,
929785,001,2022-11-21_24h51.57.211,Info_measure_main_exp,2022.2.2,Win32,60.92731371,,,,,,,,,,,,,,,,,,masks/mask_002.jpg,,,,,,,,,,,,,,,,,,,,,,,,,,,,,,,,,,,,,,,,,,,,,,,,0,0,0,1,1,,,,,,,,,,,,,,,,,,,,,,,,,,,,,,,,,,,,,,,,,
929785,001,2022-11-21_24h51.57.211,Info_measure_main_exp,2022.2.2,Win32,60.92731371,,,,,,,,,,,,,,,,,,masks/mask_004.jpg,,,,,,,,,,,,,,,,,,,,,,,,,,,,,,,,,,,,,,,,,,,,,,,,0,1,1,3,1,,,,,,,,,,,,,,,,,,,,,,,,,,,,,,,,,,,,,,,,,
929785,001,2022-11-21_24h51.57.211,Info_measure_main_exp,2022.2.2,Win32,60.92731371,,,,,,,,,,,,,,,,,,masks/mask_001.jpg,,,,,,,,,,,,,,,,,,,,,,,,,,,,,,,,,,,,,,,,,,,,,,,,0,2,2,0,1,,,,,,,,,,,,,,,,,,,,,,,,,,,,,,,,,,,,,,,,,
929785,001,2022-11-21_24h51.57.211,Info_measure_main_exp,2022.2.2,Win32,60.92731371,,,,,,,,,,,,,,,,,,masks/mask_003.jpg,,,,,,,,,,,,,,,,,,,,,,,,,,,,,,,,,,,,,,,,,,,,,,,,0,3,3,2,1,,,,,,,,,,,,,,,,,,,,,,,,,,,,,,,,,,,,,,,,,
929785,001,2022-11-21_24h51.57.211,Info_measure_main_exp,2022.2.2,Win32,60.92731371,,,,,,,,,,,,,,,,,,masks/mask_005.jpg,,,,,,,,,,,,,,,,,,,,,,,,,,,,,,,,,,,,,,,,,,,,,,,,0,4,4,4,1,,,,,,,,,,,,,,,,,,,,,,,,,,,,,,,,,,,,,,,,,
929785,001,2022-11-21_24h51.57.211,Info_measure_main_exp,2022.2.2,Win32,60.92731371,,,,,,,,,,,,,,,,,,,,,,,,,,,,,,4,2.2066,1,,,,,,,,,,,,0,131,5,5,1986,2142,absent_patch/patch0001986.jpg,absent_patch/patch0002142.jpg,,,,,,,,,,,,,,,,,,,,0.01666673,-0.080555545,1,0,0,response3disk,16,-0.004166656,0.003472222,1,0,0,center_square,0,15,15,76,1,,,,,,,,,,,,,,,,,,,,,,,
929785,001,2022-11-21_24h51.57.211,Info_measure_main_exp,2022.2.2,Win32,60.92731371,,,,,,,,,,,,,,,,,,masks/mask_001.jpg,,,,,,,,,,,,,,,,,,,,,,,,,,,,,,,,,,,,,,,,,,,0,0,0,0,1,,,,,,,,,,,,,,,,,,,,,,,,,,,,,,,,,,,,,,,,,,,,,,
929785,001,2022-11-21_24h51.57.211,Info_measure_main_exp,2022.2.2,Win32,60.92731371,,,,,,,,,,,,,,,,,,masks/mask_002.jpg,,,,,,,,,,,,,,,,,,,,,,,,,,,,,,,,,,,,,,,,,,,0,1,1,1,1,,,,,,,,,,,,,,,,,,,,,,,,,,,,,,,,,,,,,,,,,,,,,,
929785,001,2022-11-21_24h51.57.211,Info_measure_main_exp,2022.2.2,Win32,60.92731371,,,,,,,,,,,,,,,,,,masks/mask_005.jpg,,,,,,,,,,,,,,,,,,,,,,,,,,,,,,,,,,,,,,,,,,,0,2,2,4,1,,,,,,,,,,,,,,,,,,,,,,,,,,,,,,,,,,,,,,,,,,,,,,
929785,001,2022-11-21_24h51.57.211,Info_measure_main_exp,2022.2.2,Win32,60.92731371,,,,,,,,,,,,,,,,,,masks/mask_004.jpg,,,,,,,,,,,,,,,,,,,,,,,,,,,,,,,,,,,,,,,,,,,0,3,3,3,1,,,,,,,,,,,,,,,,,,,,,,,,,,,,,,,,,,,,,,,,,,,,,,
929785,001,2022-11-21_24h51.57.211,Info_measure_main_exp,2022.2.2,Win32,60.92731371,,,,,,,,,,,,,,,,,,masks/mask_003.jpg,,,,,,,,,,,,,,,,,,,,,,,,,,,,,,,,,,,,,,,,,,,0,4,4,2,1,,,,,,,,,,,,,,,,,,,,,,,,,,,,,,,,,,,,,,,,,,,,,,
929785,001,2022-11-21_24h51.57.211,Info_measure_main_exp,2022.2.2,Win32,60.92731371,,,,,,,,,,,,,,,,,,masks/mask_001.jpg,,,,,,,,,,,,,,,,,,,,,,,,,,,,,,,,,,,,,,,,,,,,,,,,0,0,0,0,1,,,,,,,,,,,,,,,,,,,,,,,,,,,,,,,,,,,,,,,,,
929785,001,2022-11-21_24h51.57.211,Info_measure_main_exp,2022.2.2,Win32,60.92731371,,,,,,,,,,,,,,,,,,masks/mask_004.jpg,,,,,,,,,,,,,,,,,,,,,,,,,,,,,,,,,,,,,,,,,,,,,,,,0,1,1,3,1,,,,,,,,,,,,,,,,,,,,,,,,,,,,,,,,,,,,,,,,,
929785,001,2022-11-21_24h51.57.211,Info_measure_main_exp,2022.2.2,Win32,60.92731371,,,,,,,,,,,,,,,,,,masks/mask_002.jpg,,,,,,,,,,,,,,,,,,,,,,,,,,,,,,,,,,,,,,,,,,,,,,,,0,2,2,1,1,,,,,,,,,,,,,,,,,,,,,,,,,,,,,,,,,,,,,,,,,
929785,001,2022-11-21_24h51.57.211,Info_measure_main_exp,2022.2.2,Win32,60.92731371,,,,,,,,,,,,,,,,,,masks/mask_005.jpg,,,,,,,,,,,,,,,,,,,,,,,,,,,,,,,,,,,,,,,,,,,,,,,,0,3,3,4,1,,,,,,,,,,,,,,,,,,,,,,,,,,,,,,,,,,,,,,,,,
929785,001,2022-11-21_24h51.57.211,Info_measure_main_exp,2022.2.2,Win32,60.92731371,,,,,,,,,,,,,,,,,,masks/mask_003.jpg,,,,,,,,,,,,,,,,,,,,,,,,,,,,,,,,,,,,,,,,,,,,,,,,0,4,4,2,1,,,,,,,,,,,,,,,,,,,,,,,,,,,,,,,,,,,,,,,,,
929785,001,2022-11-21_24h51.57.211,Info_measure_main_exp,2022.2.2,Win32,60.92731371,,,,,,,,,,,,,,,,,,,,,,,,,,,,,,3,2.0565,1,,,,,,,,,,,,0,131,5,5,1974,2178,absent_patch/patch0001974.jpg,absent_patch/patch0002178.jpg,,,,,,,,,,,,,,,,,,,,-0.013194455,-0.072222233,1,0,0,response5disk,17,-0.006944444,0.008333312,1,0,0,center_square,0,16,16,44,1,,,,,,,,,,,,,,,,,,,,,,,
929785,001,2022-11-21_24h51.57.211,Info_measure_main_exp,2022.2.2,Win32,60.92731371,,,,,,,,,,,,,,,,,,masks/mask_001.jpg,,,,,,,,,,,,,,,,,,,,,,,,,,,,,,,,,,,,,,,,,,,0,0,0,0,1,,,,,,,,,,,,,,,,,,,,,,,,,,,,,,,,,,,,,,,,,,,,,,
929785,001,2022-11-21_24h51.57.211,Info_measure_main_exp,2022.2.2,Win32,60.92731371,,,,,,,,,,,,,,,,,,masks/mask_004.jpg,,,,,,,,,,,,,,,,,,,,,,,,,,,,,,,,,,,,,,,,,,,0,1,1,3,1,,,,,,,,,,,,,,,,,,,,,,,,,,,,,,,,,,,,,,,,,,,,,,
929785,001,2022-11-21_24h51.57.211,Info_measure_main_exp,2022.2.2,Win32,60.92731371,,,,,,,,,,,,,,,,,,masks/mask_005.jpg,,,,,,,,,,,,,,,,,,,,,,,,,,,,,,,,,,,,,,,,,,,0,2,2,4,1,,,,,,,,,,,,,,,,,,,,,,,,,,,,,,,,,,,,,,,,,,,,,,
929785,001,2022-11-21_24h51.57.211,Info_measure_main_exp,2022.2.2,Win32,60.92731371,,,,,,,,,,,,,,,,,,masks/mask_003.jpg,,,,,,,,,,,,,,,,,,,,,,,,,,,,,,,,,,,,,,,,,,,0,3,3,2,1,,,,,,,,,,,,,,,,,,,,,,,,,,,,,,,,,,,,,,,,,,,,,,
929785,001,2022-11-21_24h51.57.211,Info_measure_main_exp,2022.2.2,Win32,60.92731371,,,,,,,,,,,,,,,,,,masks/mask_002.jpg,,,,,,,,,,,,,,,,,,,,,,,,,,,,,,,,,,,,,,,,,,,0,4,4,1,1,,,,,,,,,,,,,,,,,,,,,,,,,,,,,,,,,,,,,,,,,,,,,,
929785,001,2022-11-21_24h51.57.211,Info_measure_main_exp,2022.2.2,Win32,60.92731371,,,,,,,,,,,,,,,,,,masks/mask_001.jpg,,,,,,,,,,,,,,,,,,,,,,,,,,,,,,,,,,,,,,,,,,,,,,,,0,0,0,0,1,,,,,,,,,,,,,,,,,,,,,,,,,,,,,,,,,,,,,,,,,
929785,001,2022-11-21_24h51.57.211,Info_measure_main_exp,2022.2.2,Win32,60.92731371,,,,,,,,,,,,,,,,,,masks/mask_005.jpg,,,,,,,,,,,,,,,,,,,,,,,,,,,,,,,,,,,,,,,,,,,,,,,,0,1,1,4,1,,,,,,,,,,,,,,,,,,,,,,,,,,,,,,,,,,,,,,,,,
929785,001,2022-11-21_24h51.57.211,Info_measure_main_exp,2022.2.2,Win32,60.92731371,,,,,,,,,,,,,,,,,,masks/mask_004.jpg,,,,,,,,,,,,,,,,,,,,,,,,,,,,,,,,,,,,,,,,,,,,,,,,0,2,2,3,1,,,,,,,,,,,,,,,,,,,,,,,,,,,,,,,,,,,,,,,,,
929785,001,2022-11-21_24h51.57.211,Info_measure_main_exp,2022.2.2,Win32,60.92731371,,,,,,,,,,,,,,,,,,masks/mask_002.jpg,,,,,,,,,,,,,,,,,,,,,,,,,,,,,,,,,,,,,,,,,,,,,,,,0,3,3,1,1,,,,,,,,,,,,,,,,,,,,,,,,,,,,,,,,,,,,,,,,,
929785,001,2022-11-21_24h51.57.211,Info_measure_main_exp,2022.2.2,Win32,60.92731371,,,,,,,,,,,,,,,,,,masks/mask_003.jpg,,,,,,,,,,,,,,,,,,,,,,,,,,,,,,,,,,,,,,,,,,,,,,,,0,4,4,2,1,,,,,,,,,,,,,,,,,,,,,,,,,,,,,,,,,,,,,,,,,
929785,001,2022-11-21_24h51.57.211,Info_measure_main_exp,2022.2.2,Win32,60.92731371,,,,,,,,,,,,,,,,,,,,,,,,,,,,,,4,2.1683,1,,,,,,,,,,,,0,131,5,5,2190,2214,absent_patch/patch0002190.jpg,absent_patch/patch0002214.jpg,,,,,,,,,,,,,,,,,,,,0.048611111,-0.075000021,1,0,0,response3disk,18,-0.008333312,0.004166656,1,0,0,center_square,0,17,17,35,1,,,,,,,,,,,,,,,,,,,,,,,
929785,001,2022-11-21_24h51.57.211,Info_measure_main_exp,2022.2.2,Win32,60.92731371,,,,,,,,,,,,,,,,,,masks/mask_001.jpg,,,,,,,,,,,,,,,,,,,,,,,,,,,,,,,,,,,,,,,,,,,0,0,0,0,1,,,,,,,,,,,,,,,,,,,,,,,,,,,,,,,,,,,,,,,,,,,,,,
929785,001,2022-11-21_24h51.57.211,Info_measure_main_exp,2022.2.2,Win32,60.92731371,,,,,,,,,,,,,,,,,,masks/mask_003.jpg,,,,,,,,,,,,,,,,,,,,,,,,,,,,,,,,,,,,,,,,,,,0,1,1,2,1,,,,,,,,,,,,,,,,,,,,,,,,,,,,,,,,,,,,,,,,,,,,,,
929785,001,2022-11-21_24h51.57.211,Info_measure_main_exp,2022.2.2,Win32,60.92731371,,,,,,,,,,,,,,,,,,masks/mask_002.jpg,,,,,,,,,,,,,,,,,,,,,,,,,,,,,,,,,,,,,,,,,,,0,2,2,1,1,,,,,,,,,,,,,,,,,,,,,,,,,,,,,,,,,,,,,,,,,,,,,,
929785,001,2022-11-21_24h51.57.211,Info_measure_main_exp,2022.2.2,Win32,60.92731371,,,,,,,,,,,,,,,,,,masks/mask_005.jpg,,,,,,,,,,,,,,,,,,,,,,,,,,,,,,,,,,,,,,,,,,,0,3,3,4,1,,,,,,,,,,,,,,,,,,,,,,,,,,,,,,,,,,,,,,,,,,,,,,
929785,001,2022-11-21_24h51.57.211,Info_measure_main_exp,2022.2.2,Win32,60.92731371,,,,,,,,,,,,,,,,,,masks/mask_004.jpg,,,,,,,,,,,,,,,,,,,,,,,,,,,,,,,,,,,,,,,,,,,0,4,4,3,1,,,,,,,,,,,,,,,,,,,,,,,,,,,,,,,,,,,,,,,,,,,,,,
929785,001,2022-11-21_24h51.57.211,Info_measure_main_exp,2022.2.2,Win32,60.92731371,,,,,,,,,,,,,,,,,,masks/mask_002.jpg,,,,,,,,,,,,,,,,,,,,,,,,,,,,,,,,,,,,,,,,,,,,,,,,0,0,0,1,1,,,,,,,,,,,,,,,,,,,,,,,,,,,,,,,,,,,,,,,,,
929785,001,2022-11-21_24h51.57.211,Info_measure_main_exp,2022.2.2,Win32,60.92731371,,,,,,,,,,,,,,,,,,masks/mask_005.jpg,,,,,,,,,,,,,,,,,,,,,,,,,,,,,,,,,,,,,,,,,,,,,,,,0,1,1,4,1,,,,,,,,,,,,,,,,,,,,,,,,,,,,,,,,,,,,,,,,,
929785,001,2022-11-21_24h51.57.211,Info_measure_main_exp,2022.2.2,Win32,60.92731371,,,,,,,,,,,,,,,,,,masks/mask_003.jpg,,,,,,,,,,,,,,,,,,,,,,,,,,,,,,,,,,,,,,,,,,,,,,,,0,2,2,2,1,,,,,,,,,,,,,,,,,,,,,,,,,,,,,,,,,,,,,,,,,
929785,001,2022-11-21_24h51.57.211,Info_measure_main_exp,2022.2.2,Win32,60.92731371,,,,,,,,,,,,,,,,,,masks/mask_001.jpg,,,,,,,,,,,,,,,,,,,,,,,,,,,,,,,,,,,,,,,,,,,,,,,,0,3,3,0,1,,,,,,,,,,,,,,,,,,,,,,,,,,,,,,,,,,,,,,,,,
929785,001,2022-11-21_24h51.57.211,Info_measure_main_exp,2022.2.2,Win32,60.92731371,,,,,,,,,,,,,,,,,,masks/mask_004.jpg,,,,,,,,,,,,,,,,,,,,,,,,,,,,,,,,,,,,,,,,,,,,,,,,0,4,4,3,1,,,,,,,,,,,,,,,,,,,,,,,,,,,,,,,,,,,,,,,,,
929785,001,2022-11-21_24h51.57.211,Info_measure_main_exp,2022.2.2,Win32,60.92731371,,,,,,,,,,,,,,,,,,,,,,,,,,,,,,3,1.4541,1,,,,,,,,,,,,0,131,5,5,2154,2214,absent_patch/patch0002154.jpg,absent_patch/patch0002214.jpg,,,,,,,,,,,,,,,,,,,,-0.011805534,-0.060416698,1,0,0,response5disk,19,-0.002777788,0.001388868,1,0,0,center_square,0,18,18,67,1,,,,,,,,,,,,,,,,,,,,,,,
929785,001,2022-11-21_24h51.57.211,Info_measure_main_exp,2022.2.2,Win32,60.92731371,,,,,,,,,,,,,,,,,,masks/mask_004.jpg,,,,,,,,,,,,,,,,,,,,,,,,,,,,,,,,,,,,,,,,,,,0,0,0,3,1,,,,,,,,,,,,,,,,,,,,,,,,,,,,,,,,,,,,,,,,,,,,,,
929785,001,2022-11-21_24h51.57.211,Info_measure_main_exp,2022.2.2,Win32,60.92731371,,,,,,,,,,,,,,,,,,masks/mask_001.jpg,,,,,,,,,,,,,,,,,,,,,,,,,,,,,,,,,,,,,,,,,,,0,1,1,0,1,,,,,,,,,,,,,,,,,,,,,,,,,,,,,,,,,,,,,,,,,,,,,,
929785,001,2022-11-21_24h51.57.211,Info_measure_main_exp,2022.2.2,Win32,60.92731371,,,,,,,,,,,,,,,,,,masks/mask_005.jpg,,,,,,,,,,,,,,,,,,,,,,,,,,,,,,,,,,,,,,,,,,,0,2,2,4,1,,,,,,,,,,,,,,,,,,,,,,,,,,,,,,,,,,,,,,,,,,,,,,
929785,001,2022-11-21_24h51.57.211,Info_measure_main_exp,2022.2.2,Win32,60.92731371,,,,,,,,,,,,,,,,,,masks/mask_002.jpg,,,,,,,,,,,,,,,,,,,,,,,,,,,,,,,,,,,,,,,,,,,0,3,3,1,1,,,,,,,,,,,,,,,,,,,,,,,,,,,,,,,,,,,,,,,,,,,,,,
929785,001,2022-11-21_24h51.57.211,Info_measure_main_exp,2022.2.2,Win32,60.92731371,,,,,,,,,,,,,,,,,,masks/mask_003.jpg,,,,,,,,,,,,,,,,,,,,,,,,,,,,,,,,,,,,,,,,,,,0,4,4,2,1,,,,,,,,,,,,,,,,,,,,,,,,,,,,,,,,,,,,,,,,,,,,,,
929785,001,2022-11-21_24h51.57.211,Info_measure_main_exp,2022.2.2,Win32,60.92731371,,,,,,,,,,,,,,,,,,masks/mask_004.jpg,,,,,,,,,,,,,,,,,,,,,,,,,,,,,,,,,,,,,,,,,,,,,,,,0,0,0,3,1,,,,,,,,,,,,,,,,,,,,,,,,,,,,,,,,,,,,,,,,,
929785,001,2022-11-21_24h51.57.211,Info_measure_main_exp,2022.2.2,Win32,60.92731371,,,,,,,,,,,,,,,,,,masks/mask_001.jpg,,,,,,,,,,,,,,,,,,,,,,,,,,,,,,,,,,,,,,,,,,,,,,,,0,1,1,0,1,,,,,,,,,,,,,,,,,,,,,,,,,,,,,,,,,,,,,,,,,
929785,001,2022-11-21_24h51.57.211,Info_measure_main_exp,2022.2.2,Win32,60.92731371,,,,,,,,,,,,,,,,,,masks/mask_005.jpg,,,,,,,,,,,,,,,,,,,,,,,,,,,,,,,,,,,,,,,,,,,,,,,,0,2,2,4,1,,,,,,,,,,,,,,,,,,,,,,,,,,,,,,,,,,,,,,,,,
929785,001,2022-11-21_24h51.57.211,Info_measure_main_exp,2022.2.2,Win32,60.92731371,,,,,,,,,,,,,,,,,,masks/mask_002.jpg,,,,,,,,,,,,,,,,,,,,,,,,,,,,,,,,,,,,,,,,,,,,,,,,0,3,3,1,1,,,,,,,,,,,,,,,,,,,,,,,,,,,,,,,,,,,,,,,,,
929785,001,2022-11-21_24h51.57.211,Info_measure_main_exp,2022.2.2,Win32,60.92731371,,,,,,,,,,,,,,,,,,masks/mask_003.jpg,,,,,,,,,,,,,,,,,,,,,,,,,,,,,,,,,,,,,,,,,,,,,,,,0,4,4,2,1,,,,,,,,,,,,,,,,,,,,,,,,,,,,,,,,,,,,,,,,,
929785,001,2022-11-21_24h51.57.211,Info_measure_main_exp,2022.2.2,Win32,60.92731371,,,,,,,,,,,,,,,,,,,,,,,,,,,,,,3,0.9524,1,,,,,,,,,,,,0,131,5,5,1950,2238,absent_patch/patch0001950.jpg,absent_patch/patch0002238.jpg,,,,,,,,,,,,,,,,,,,,-0.016666677,-0.054861122,1,0,0,response5disk,20,-0.005555524,-0.002083355,1,0,0,center_square,0,19,19,8,1,,,,,,,,,,,,,,,,,,,,,,,
929785,001,2022-11-21_24h51.57.211,Info_measure_main_exp,2022.2.2,Win32,60.92731371,,,,,,,,,,,,,,,,,,masks/mask_003.jpg,,,,,,,,,,,,,,,,,,,,,,,,,,,,,,,,,,,,,,,,,,,0,0,0,2,1,,,,,,,,,,,,,,,,,,,,,,,,,,,,,,,,,,,,,,,,,,,,,,
929785,001,2022-11-21_24h51.57.211,Info_measure_main_exp,2022.2.2,Win32,60.92731371,,,,,,,,,,,,,,,,,,masks/mask_004.jpg,,,,,,,,,,,,,,,,,,,,,,,,,,,,,,,,,,,,,,,,,,,0,1,1,3,1,,,,,,,,,,,,,,,,,,,,,,,,,,,,,,,,,,,,,,,,,,,,,,
929785,001,2022-11-21_24h51.57.211,Info_measure_main_exp,2022.2.2,Win32,60.92731371,,,,,,,,,,,,,,,,,,masks/mask_005.jpg,,,,,,,,,,,,,,,,,,,,,,,,,,,,,,,,,,,,,,,,,,,0,2,2,4,1,,,,,,,,,,,,,,,,,,,,,,,,,,,,,,,,,,,,,,,,,,,,,,
929785,001,2022-11-21_24h51.57.211,Info_measure_main_exp,2022.2.2,Win32,60.92731371,,,,,,,,,,,,,,,,,,masks/mask_002.jpg,,,,,,,,,,,,,,,,,,,,,,,,,,,,,,,,,,,,,,,,,,,0,3,3,1,1,,,,,,,,,,,,,,,,,,,,,,,,,,,,,,,,,,,,,,,,,,,,,,
929785,001,2022-11-21_24h51.57.211,Info_measure_main_exp,2022.2.2,Win32,60.92731371,,,,,,,,,,,,,,,,,,masks/mask_001.jpg,,,,,,,,,,,,,,,,,,,,,,,,,,,,,,,,,,,,,,,,,,,0,4,4,0,1,,,,,,,,,,,,,,,,,,,,,,,,,,,,,,,,,,,,,,,,,,,,,,
929785,001,2022-11-21_24h51.57.211,Info_measure_main_exp,2022.2.2,Win32,60.92731371,,,,,,,,,,,,,,,,,,masks/mask_002.jpg,,,,,,,,,,,,,,,,,,,,,,,,,,,,,,,,,,,,,,,,,,,,,,,,0,0,0,1,1,,,,,,,,,,,,,,,,,,,,,,,,,,,,,,,,,,,,,,,,,
929785,001,2022-11-21_24h51.57.211,Info_measure_main_exp,2022.2.2,Win32,60.92731371,,,,,,,,,,,,,,,,,,masks/mask_001.jpg,,,,,,,,,,,,,,,,,,,,,,,,,,,,,,,,,,,,,,,,,,,,,,,,0,1,1,0,1,,,,,,,,,,,,,,,,,,,,,,,,,,,,,,,,,,,,,,,,,
929785,001,2022-11-21_24h51.57.211,Info_measure_main_exp,2022.2.2,Win32,60.92731371,,,,,,,,,,,,,,,,,,masks/mask_004.jpg,,,,,,,,,,,,,,,,,,,,,,,,,,,,,,,,,,,,,,,,,,,,,,,,0,2,2,3,1,,,,,,,,,,,,,,,,,,,,,,,,,,,,,,,,,,,,,,,,,
929785,001,2022-11-21_24h51.57.211,Info_measure_main_exp,2022.2.2,Win32,60.92731371,,,,,,,,,,,,,,,,,,masks/mask_005.jpg,,,,,,,,,,,,,,,,,,,,,,,,,,,,,,,,,,,,,,,,,,,,,,,,0,3,3,4,1,,,,,,,,,,,,,,,,,,,,,,,,,,,,,,,,,,,,,,,,,
929785,001,2022-11-21_24h51.57.211,Info_measure_main_exp,2022.2.2,Win32,60.92731371,,,,,,,,,,,,,,,,,,masks/mask_003.jpg,,,,,,,,,,,,,,,,,,,,,,,,,,,,,,,,,,,,,,,,,,,,,,,,0,4,4,2,1,,,,,,,,,,,,,,,,,,,,,,,,,,,,,,,,,,,,,,,,,
929785,001,2022-11-21_24h51.57.211,Info_measure_main_exp,2022.2.2,Win32,60.92731371,,,,,,,,,,,,,,,,,,,,,,,,,,,,,,7,1.0133,1,,,,,,,,,,,,0,131,5,5,2154,2250,absent_patch/patch0002154.jpg,absent_patch/patch0002250.jpg,,,,,,,,,,,,,,,,,,,,0.040277799,0.080555545,1,0,0,response1disk,21,0.000694487,0,1,0,0,center_square,0,20,20,108,1,,,,,,,,,,,,,,,,,,,,,,,
929785,001,2022-11-21_24h51.57.211,Info_measure_main_exp,2022.2.2,Win32,60.92731371,,,,,,,,,,,,,,,,,,masks/mask_005.jpg,,,,,,,,,,,,,,,,,,,,,,,,,,,,,,,,,,,,,,,,,,,0,0,0,4,1,,,,,,,,,,,,,,,,,,,,,,,,,,,,,,,,,,,,,,,,,,,,,,
929785,001,2022-11-21_24h51.57.211,Info_measure_main_exp,2022.2.2,Win32,60.92731371,,,,,,,,,,,,,,,,,,masks/mask_001.jpg,,,,,,,,,,,,,,,,,,,,,,,,,,,,,,,,,,,,,,,,,,,0,1,1,0,1,,,,,,,,,,,,,,,,,,,,,,,,,,,,,,,,,,,,,,,,,,,,,,
929785,001,2022-11-21_24h51.57.211,Info_measure_main_exp,2022.2.2,Win32,60.92731371,,,,,,,,,,,,,,,,,,masks/mask_003.jpg,,,,,,,,,,,,,,,,,,,,,,,,,,,,,,,,,,,,,,,,,,,0,2,2,2,1,,,,,,,,,,,,,,,,,,,,,,,,,,,,,,,,,,,,,,,,,,,,,,
929785,001,2022-11-21_24h51.57.211,Info_measure_main_exp,2022.2.2,Win32,60.92731371,,,,,,,,,,,,,,,,,,masks/mask_004.jpg,,,,,,,,,,,,,,,,,,,,,,,,,,,,,,,,,,,,,,,,,,,0,3,3,3,1,,,,,,,,,,,,,,,,,,,,,,,,,,,,,,,,,,,,,,,,,,,,,,
929785,001,2022-11-21_24h51.57.211,Info_measure_main_exp,2022.2.2,Win32,60.92731371,,,,,,,,,,,,,,,,,,masks/mask_002.jpg,,,,,,,,,,,,,,,,,,,,,,,,,,,,,,,,,,,,,,,,,,,0,4,4,1,1,,,,,,,,,,,,,,,,,,,,,,,,,,,,,,,,,,,,,,,,,,,,,,
929785,001,2022-11-21_24h51.57.211,Info_measure_main_exp,2022.2.2,Win32,60.92731371,,,,,,,,,,,,,,,,,,masks/mask_003.jpg,,,,,,,,,,,,,,,,,,,,,,,,,,,,,,,,,,,,,,,,,,,,,,,,0,0,0,2,1,,,,,,,,,,,,,,,,,,,,,,,,,,,,,,,,,,,,,,,,,
929785,001,2022-11-21_24h51.57.211,Info_measure_main_exp,2022.2.2,Win32,60.92731371,,,,,,,,,,,,,,,,,,masks/mask_004.jpg,,,,,,,,,,,,,,,,,,,,,,,,,,,,,,,,,,,,,,,,,,,,,,,,0,1,1,3,1,,,,,,,,,,,,,,,,,,,,,,,,,,,,,,,,,,,,,,,,,
929785,001,2022-11-21_24h51.57.211,Info_measure_main_exp,2022.2.2,Win32,60.92731371,,,,,,,,,,,,,,,,,,masks/mask_002.jpg,,,,,,,,,,,,,,,,,,,,,,,,,,,,,,,,,,,,,,,,,,,,,,,,0,2,2,1,1,,,,,,,,,,,,,,,,,,,,,,,,,,,,,,,,,,,,,,,,,
929785,001,2022-11-21_24h51.57.211,Info_measure_main_exp,2022.2.2,Win32,60.92731371,,,,,,,,,,,,,,,,,,masks/mask_005.jpg,,,,,,,,,,,,,,,,,,,,,,,,,,,,,,,,,,,,,,,,,,,,,,,,0,3,3,4,1,,,,,,,,,,,,,,,,,,,,,,,,,,,,,,,,,,,,,,,,,
929785,001,2022-11-21_24h51.57.211,Info_measure_main_exp,2022.2.2,Win32,60.92731371,,,,,,,,,,,,,,,,,,masks/mask_001.jpg,,,,,,,,,,,,,,,,,,,,,,,,,,,,,,,,,,,,,,,,,,,,,,,,0,4,4,0,1,,,,,,,,,,,,,,,,,,,,,,,,,,,,,,,,,,,,,,,,,
929785,001,2022-11-21_24h51.57.211,Info_measure_main_exp,2022.2.2,Win32,60.92731371,,,,,,,,,,,,,,,,,,,,,,,,,,,,,,3,3.0222,1,,,,,,,,,,,,1,131,5,5,1,2166,present_patch/cong_131_5_a.jpg,absent_patch/patch0002166.jpg,,,,,,,,,,,,,,,,,,,,-0.020138899,-0.055555556,1,0,0,response5disk,22,-0.009722233,-0.002777788,1,0,0,center_square,0,21,21,54,1,,,,,,,,,,,,,,,,,,,,,,,
929785,001,2022-11-21_24h51.57.211,Info_measure_main_exp,2022.2.2,Win32,60.92731371,,,,,,,,,,,,,,,,,,masks/mask_005.jpg,,,,,,,,,,,,,,,,,,,,,,,,,,,,,,,,,,,,,,,,,,,0,0,0,4,1,,,,,,,,,,,,,,,,,,,,,,,,,,,,,,,,,,,,,,,,,,,,,,
929785,001,2022-11-21_24h51.57.211,Info_measure_main_exp,2022.2.2,Win32,60.92731371,,,,,,,,,,,,,,,,,,masks/mask_003.jpg,,,,,,,,,,,,,,,,,,,,,,,,,,,,,,,,,,,,,,,,,,,0,1,1,2,1,,,,,,,,,,,,,,,,,,,,,,,,,,,,,,,,,,,,,,,,,,,,,,
929785,001,2022-11-21_24h51.57.211,Info_measure_main_exp,2022.2.2,Win32,60.92731371,,,,,,,,,,,,,,,,,,masks/mask_002.jpg,,,,,,,,,,,,,,,,,,,,,,,,,,,,,,,,,,,,,,,,,,,0,2,2,1,1,,,,,,,,,,,,,,,,,,,,,,,,,,,,,,,,,,,,,,,,,,,,,,
929785,001,2022-11-21_24h51.57.211,Info_measure_main_exp,2022.2.2,Win32,60.92731371,,,,,,,,,,,,,,,,,,masks/mask_001.jpg,,,,,,,,,,,,,,,,,,,,,,,,,,,,,,,,,,,,,,,,,,,0,3,3,0,1,,,,,,,,,,,,,,,,,,,,,,,,,,,,,,,,,,,,,,,,,,,,,,
929785,001,2022-11-21_24h51.57.211,Info_measure_main_exp,2022.2.2,Win32,60.92731371,,,,,,,,,,,,,,,,,,masks/mask_004.jpg,,,,,,,,,,,,,,,,,,,,,,,,,,,,,,,,,,,,,,,,,,,0,4,4,3,1,,,,,,,,,,,,,,,,,,,,,,,,,,,,,,,,,,,,,,,,,,,,,,
929785,001,2022-11-21_24h51.57.211,Info_measure_main_exp,2022.2.2,Win32,60.92731371,,,,,,,,,,,,,,,,,,masks/mask_002.jpg,,,,,,,,,,,,,,,,,,,,,,,,,,,,,,,,,,,,,,,,,,,,,,,,0,0,0,1,1,,,,,,,,,,,,,,,,,,,,,,,,,,,,,,,,,,,,,,,,,
929785,001,2022-11-21_24h51.57.211,Info_measure_main_exp,2022.2.2,Win32,60.92731371,,,,,,,,,,,,,,,,,,masks/mask_001.jpg,,,,,,,,,,,,,,,,,,,,,,,,,,,,,,,,,,,,,,,,,,,,,,,,0,1,1,0,1,,,,,,,,,,,,,,,,,,,,,,,,,,,,,,,,,,,,,,,,,
929785,001,2022-11-21_24h51.57.211,Info_measure_main_exp,2022.2.2,Win32,60.92731371,,,,,,,,,,,,,,,,,,masks/mask_005.jpg,,,,,,,,,,,,,,,,,,,,,,,,,,,,,,,,,,,,,,,,,,,,,,,,0,2,2,4,1,,,,,,,,,,,,,,,,,,,,,,,,,,,,,,,,,,,,,,,,,
929785,001,2022-11-21_24h51.57.211,Info_measure_main_exp,2022.2.2,Win32,60.92731371,,,,,,,,,,,,,,,,,,masks/mask_004.jpg,,,,,,,,,,,,,,,,,,,,,,,,,,,,,,,,,,,,,,,,,,,,,,,,0,3,3,3,1,,,,,,,,,,,,,,,,,,,,,,,,,,,,,,,,,,,,,,,,,
929785,001,2022-11-21_24h51.57.211,Info_measure_main_exp,2022.2.2,Win32,60.92731371,,,,,,,,,,,,,,,,,,masks/mask_003.jpg,,,,,,,,,,,,,,,,,,,,,,,,,,,,,,,,,,,,,,,,,,,,,,,,0,4,4,2,1,,,,,,,,,,,,,,,,,,,,,,,,,,,,,,,,,,,,,,,,,
929785,001,2022-11-21_24h51.57.211,Info_measure_main_exp,2022.2.2,Win32,60.92731371,,,,,,,,,,,,,,,,,,,,,,,,,,,,,,4,1.647,1,,,,,,,,,,,,0,131,5,5,2142,2082,absent_patch/patch0002142.jpg,absent_patch/patch0002082.jpg,,,,,,,,,,,,,,,,,,,,0.025000042,-0.056249989,1,0,0,response3disk,23,0.002777841,0.007638878,1,0,0,center_square,0,22,22,88,1,,,,,,,,,,,,,,,,,,,,,,,
929785,001,2022-11-21_24h51.57.211,Info_measure_main_exp,2022.2.2,Win32,60.92731371,,,,,,,,,,,,,,,,,,masks/mask_002.jpg,,,,,,,,,,,,,,,,,,,,,,,,,,,,,,,,,,,,,,,,,,,0,0,0,1,1,,,,,,,,,,,,,,,,,,,,,,,,,,,,,,,,,,,,,,,,,,,,,,
929785,001,2022-11-21_24h51.57.211,Info_measure_main_exp,2022.2.2,Win32,60.92731371,,,,,,,,,,,,,,,,,,masks/mask_003.jpg,,,,,,,,,,,,,,,,,,,,,,,,,,,,,,,,,,,,,,,,,,,0,1,1,2,1,,,,,,,,,,,,,,,,,,,,,,,,,,,,,,,,,,,,,,,,,,,,,,
929785,001,2022-11-21_24h51.57.211,Info_measure_main_exp,2022.2.2,Win32,60.92731371,,,,,,,,,,,,,,,,,,masks/mask_001.jpg,,,,,,,,,,,,,,,,,,,,,,,,,,,,,,,,,,,,,,,,,,,0,2,2,0,1,,,,,,,,,,,,,,,,,,,,,,,,,,,,,,,,,,,,,,,,,,,,,,
929785,001,2022-11-21_24h51.57.211,Info_measure_main_exp,2022.2.2,Win32,60.92731371,,,,,,,,,,,,,,,,,,masks/mask_004.jpg,,,,,,,,,,,,,,,,,,,,,,,,,,,,,,,,,,,,,,,,,,,0,3,3,3,1,,,,,,,,,,,,,,,,,,,,,,,,,,,,,,,,,,,,,,,,,,,,,,
929785,001,2022-11-21_24h51.57.211,Info_measure_main_exp,2022.2.2,Win32,60.92731371,,,,,,,,,,,,,,,,,,masks/mask_005.jpg,,,,,,,,,,,,,,,,,,,,,,,,,,,,,,,,,,,,,,,,,,,0,4,4,4,1,,,,,,,,,,,,,,,,,,,,,,,,,,,,,,,,,,,,,,,,,,,,,,
929785,001,2022-11-21_24h51.57.211,Info_measure_main_exp,2022.2.2,Win32,60.92731371,,,,,,,,,,,,,,,,,,masks/mask_002.jpg,,,,,,,,,,,,,,,,,,,,,,,,,,,,,,,,,,,,,,,,,,,,,,,,0,0,0,1,1,,,,,,,,,,,,,,,,,,,,,,,,,,,,,,,,,,,,,,,,,
929785,001,2022-11-21_24h51.57.211,Info_measure_main_exp,2022.2.2,Win32,60.92731371,,,,,,,,,,,,,,,,,,masks/mask_003.jpg,,,,,,,,,,,,,,,,,,,,,,,,,,,,,,,,,,,,,,,,,,,,,,,,0,1,1,2,1,,,,,,,,,,,,,,,,,,,,,,,,,,,,,,,,,,,,,,,,,
929785,001,2022-11-21_24h51.57.211,Info_measure_main_exp,2022.2.2,Win32,60.92731371,,,,,,,,,,,,,,,,,,masks/mask_001.jpg,,,,,,,,,,,,,,,,,,,,,,,,,,,,,,,,,,,,,,,,,,,,,,,,0,2,2,0,1,,,,,,,,,,,,,,,,,,,,,,,,,,,,,,,,,,,,,,,,,
929785,001,2022-11-21_24h51.57.211,Info_measure_main_exp,2022.2.2,Win32,60.92731371,,,,,,,,,,,,,,,,,,masks/mask_004.jpg,,,,,,,,,,,,,,,,,,,,,,,,,,,,,,,,,,,,,,,,,,,,,,,,0,3,3,3,1,,,,,,,,,,,,,,,,,,,,,,,,,,,,,,,,,,,,,,,,,
929785,001,2022-11-21_24h51.57.211,Info_measure_main_exp,2022.2.2,Win32,60.92731371,,,,,,,,,,,,,,,,,,masks/mask_005.jpg,,,,,,,,,,,,,,,,,,,,,,,,,,,,,,,,,,,,,,,,,,,,,,,,0,4,4,4,1,,,,,,,,,,,,,,,,,,,,,,,,,,,,,,,,,,,,,,,,,
929785,001,2022-11-21_24h51.57.211,Info_measure_main_exp,2022.2.2,Win32,60.92731371,,,,,,,,,,,,,,,,,,,,,,,,,,,,,,5,1.388,1,,,,,,,,,,,,1,131,5,5,1,2214,present_patch/cong_131_5_a.jpg,absent_patch/patch0002214.jpg,,,,,,,,,,,,,,,,,,,,0.109722243,-0.027083344,1,0,0,response3disk,24,-0.002083302,0.006250011,1,0,0,center_square,0,23,23,4,1,,,,,,,,,,,,,,,,,,,,,,,
929785,001,2022-11-21_24h51.57.211,Info_measure_main_exp,2022.2.2,Win32,60.92731371,,,,,,,,,,,,,,,,,,masks/mask_001.jpg,,,,,,,,,,,,,,,,,,,,,,,,,,,,,,,,,,,,,,,,,,,0,0,0,0,1,,,,,,,,,,,,,,,,,,,,,,,,,,,,,,,,,,,,,,,,,,,,,,
929785,001,2022-11-21_24h51.57.211,Info_measure_main_exp,2022.2.2,Win32,60.92731371,,,,,,,,,,,,,,,,,,masks/mask_005.jpg,,,,,,,,,,,,,,,,,,,,,,,,,,,,,,,,,,,,,,,,,,,0,1,1,4,1,,,,,,,,,,,,,,,,,,,,,,,,,,,,,,,,,,,,,,,,,,,,,,
929785,001,2022-11-21_24h51.57.211,Info_measure_main_exp,2022.2.2,Win32,60.92731371,,,,,,,,,,,,,,,,,,masks/mask_003.jpg,,,,,,,,,,,,,,,,,,,,,,,,,,,,,,,,,,,,,,,,,,,0,2,2,2,1,,,,,,,,,,,,,,,,,,,,,,,,,,,,,,,,,,,,,,,,,,,,,,
929785,001,2022-11-21_24h51.57.211,Info_measure_main_exp,2022.2.2,Win32,60.92731371,,,,,,,,,,,,,,,,,,masks/mask_004.jpg,,,,,,,,,,,,,,,,,,,,,,,,,,,,,,,,,,,,,,,,,,,0,3,3,3,1,,,,,,,,,,,,,,,,,,,,,,,,,,,,,,,,,,,,,,,,,,,,,,
929785,001,2022-11-21_24h51.57.211,Info_measure_main_exp,2022.2.2,Win32,60.92731371,,,,,,,,,,,,,,,,,,masks/mask_002.jpg,,,,,,,,,,,,,,,,,,,,,,,,,,,,,,,,,,,,,,,,,,,0,4,4,1,1,,,,,,,,,,,,,,,,,,,,,,,,,,,,,,,,,,,,,,,,,,,,,,
929785,001,2022-11-21_24h51.57.211,Info_measure_main_exp,2022.2.2,Win32,60.92731371,,,,,,,,,,,,,,,,,,masks/mask_001.jpg,,,,,,,,,,,,,,,,,,,,,,,,,,,,,,,,,,,,,,,,,,,,,,,,0,0,0,0,1,,,,,,,,,,,,,,,,,,,,,,,,,,,,,,,,,,,,,,,,,
929785,001,2022-11-21_24h51.57.211,Info_measure_main_exp,2022.2.2,Win32,60.92731371,,,,,,,,,,,,,,,,,,masks/mask_004.jpg,,,,,,,,,,,,,,,,,,,,,,,,,,,,,,,,,,,,,,,,,,,,,,,,0,1,1,3,1,,,,,,,,,,,,,,,,,,,,,,,,,,,,,,,,,,,,,,,,,
929785,001,2022-11-21_24h51.57.211,Info_measure_main_exp,2022.2.2,Win32,60.92731371,,,,,,,,,,,,,,,,,,masks/mask_003.jpg,,,,,,,,,,,,,,,,,,,,,,,,,,,,,,,,,,,,,,,,,,,,,,,,0,2,2,2,1,,,,,,,,,,,,,,,,,,,,,,,,,,,,,,,,,,,,,,,,,
929785,001,2022-11-21_24h51.57.211,Info_measure_main_exp,2022.2.2,Win32,60.92731371,,,,,,,,,,,,,,,,,,masks/mask_005.jpg,,,,,,,,,,,,,,,,,,,,,,,,,,,,,,,,,,,,,,,,,,,,,,,,0,3,3,4,1,,,,,,,,,,,,,,,,,,,,,,,,,,,,,,,,,,,,,,,,,
929785,001,2022-11-21_24h51.57.211,Info_measure_main_exp,2022.2.2,Win32,60.92731371,,,,,,,,,,,,,,,,,,masks/mask_002.jpg,,,,,,,,,,,,,,,,,,,,,,,,,,,,,,,,,,,,,,,,,,,,,,,,0,4,4,1,1,,,,,,,,,,,,,,,,,,,,,,,,,,,,,,,,,,,,,,,,,
929785,001,2022-11-21_24h51.57.211,Info_measure_main_exp,2022.2.2,Win32,60.92731371,,,,,,,,,,,,,,,,,,,,,,,,,,,,,,6,2.2334,1,,,,,,,,,,,,0,131,5,5,2298,2274,absent_patch/patch0002298.jpg,absent_patch/patch0002274.jpg,,,,,,,,,,,,,,,,,,,,0.086805556,0.030555566,1,0,0,response1disk,25,-0.00486109,0.002777788,1,0,0,center_square,0,24,24,1,1,,,,,,,,,,,,,,,,,,,,,,,
929785,001,2022-11-21_24h51.57.211,Info_measure_main_exp,2022.2.2,Win32,60.92731371,,,,,,,,,,,,,,,,,,masks/mask_003.jpg,,,,,,,,,,,,,,,,,,,,,,,,,,,,,,,,,,,,,,,,,,,0,0,0,2,1,,,,,,,,,,,,,,,,,,,,,,,,,,,,,,,,,,,,,,,,,,,,,,
929785,001,2022-11-21_24h51.57.211,Info_measure_main_exp,2022.2.2,Win32,60.92731371,,,,,,,,,,,,,,,,,,masks/mask_005.jpg,,,,,,,,,,,,,,,,,,,,,,,,,,,,,,,,,,,,,,,,,,,0,1,1,4,1,,,,,,,,,,,,,,,,,,,,,,,,,,,,,,,,,,,,,,,,,,,,,,
929785,001,2022-11-21_24h51.57.211,Info_measure_main_exp,2022.2.2,Win32,60.92731371,,,,,,,,,,,,,,,,,,masks/mask_002.jpg,,,,,,,,,,,,,,,,,,,,,,,,,,,,,,,,,,,,,,,,,,,0,2,2,1,1,,,,,,,,,,,,,,,,,,,,,,,,,,,,,,,,,,,,,,,,,,,,,,
929785,001,2022-11-21_24h51.57.211,Info_measure_main_exp,2022.2.2,Win32,60.92731371,,,,,,,,,,,,,,,,,,masks/mask_001.jpg,,,,,,,,,,,,,,,,,,,,,,,,,,,,,,,,,,,,,,,,,,,0,3,3,0,1,,,,,,,,,,,,,,,,,,,,,,,,,,,,,,,,,,,,,,,,,,,,,,
929785,001,2022-11-21_24h51.57.211,Info_measure_main_exp,2022.2.2,Win32,60.92731371,,,,,,,,,,,,,,,,,,masks/mask_004.jpg,,,,,,,,,,,,,,,,,,,,,,,,,,,,,,,,,,,,,,,,,,,0,4,4,3,1,,,,,,,,,,,,,,,,,,,,,,,,,,,,,,,,,,,,,,,,,,,,,,
929785,001,2022-11-21_24h51.57.211,Info_measure_main_exp,2022.2.2,Win32,60.92731371,,,,,,,,,,,,,,,,,,masks/mask_005.jpg,,,,,,,,,,,,,,,,,,,,,,,,,,,,,,,,,,,,,,,,,,,,,,,,0,0,0,4,1,,,,,,,,,,,,,,,,,,,,,,,,,,,,,,,,,,,,,,,,,
929785,001,2022-11-21_24h51.57.211,Info_measure_main_exp,2022.2.2,Win32,60.92731371,,,,,,,,,,,,,,,,,,masks/mask_004.jpg,,,,,,,,,,,,,,,,,,,,,,,,,,,,,,,,,,,,,,,,,,,,,,,,0,1,1,3,1,,,,,,,,,,,,,,,,,,,,,,,,,,,,,,,,,,,,,,,,,
929785,001,2022-11-21_24h51.57.211,Info_measure_main_exp,2022.2.2,Win32,60.92731371,,,,,,,,,,,,,,,,,,masks/mask_002.jpg,,,,,,,,,,,,,,,,,,,,,,,,,,,,,,,,,,,,,,,,,,,,,,,,0,2,2,1,1,,,,,,,,,,,,,,,,,,,,,,,,,,,,,,,,,,,,,,,,,
929785,001,2022-11-21_24h51.57.211,Info_measure_main_exp,2022.2.2,Win32,60.92731371,,,,,,,,,,,,,,,,,,masks/mask_003.jpg,,,,,,,,,,,,,,,,,,,,,,,,,,,,,,,,,,,,,,,,,,,,,,,,0,3,3,2,1,,,,,,,,,,,,,,,,,,,,,,,,,,,,,,,,,,,,,,,,,
929785,001,2022-11-21_24h51.57.211,Info_measure_main_exp,2022.2.2,Win32,60.92731371,,,,,,,,,,,,,,,,,,masks/mask_001.jpg,,,,,,,,,,,,,,,,,,,,,,,,,,,,,,,,,,,,,,,,,,,,,,,,0,4,4,0,1,,,,,,,,,,,,,,,,,,,,,,,,,,,,,,,,,,,,,,,,,
929785,001,2022-11-21_24h51.57.211,Info_measure_main_exp,2022.2.2,Win32,60.92731371,,,,,,,,,,,,,,,,,,,,,,,,,,,,,,5,0.9855,1,,,,,,,,,,,,0,131,5,5,2250,2214,absent_patch/patch0002250.jpg,absent_patch/patch0002214.jpg,,,,,,,,,,,,,,,,,,,,0.099305577,-0.040972233,1,0,0,response3disk,26,-0.004166656,0.006250011,1,0,0,center_square,0,25,25,97,1,,,,,,,,,,,,,,,,,,,,,,,
929785,001,2022-11-21_24h51.57.211,Info_measure_main_exp,2022.2.2,Win32,60.92731371,,,,,,,,,,,,,,,,,,masks/mask_004.jpg,,,,,,,,,,,,,,,,,,,,,,,,,,,,,,,,,,,,,,,,,,,0,0,0,3,1,,,,,,,,,,,,,,,,,,,,,,,,,,,,,,,,,,,,,,,,,,,,,,
929785,001,2022-11-21_24h51.57.211,Info_measure_main_exp,2022.2.2,Win32,60.92731371,,,,,,,,,,,,,,,,,,masks/mask_003.jpg,,,,,,,,,,,,,,,,,,,,,,,,,,,,,,,,,,,,,,,,,,,0,1,1,2,1,,,,,,,,,,,,,,,,,,,,,,,,,,,,,,,,,,,,,,,,,,,,,,
929785,001,2022-11-21_24h51.57.211,Info_measure_main_exp,2022.2.2,Win32,60.92731371,,,,,,,,,,,,,,,,,,masks/mask_001.jpg,,,,,,,,,,,,,,,,,,,,,,,,,,,,,,,,,,,,,,,,,,,0,2,2,0,1,,,,,,,,,,,,,,,,,,,,,,,,,,,,,,,,,,,,,,,,,,,,,,
929785,001,2022-11-21_24h51.57.211,Info_measure_main_exp,2022.2.2,Win32,60.92731371,,,,,,,,,,,,,,,,,,masks/mask_005.jpg,,,,,,,,,,,,,,,,,,,,,,,,,,,,,,,,,,,,,,,,,,,0,3,3,4,1,,,,,,,,,,,,,,,,,,,,,,,,,,,,,,,,,,,,,,,,,,,,,,
929785,001,2022-11-21_24h51.57.211,Info_measure_main_exp,2022.2.2,Win32,60.92731371,,,,,,,,,,,,,,,,,,masks/mask_002.jpg,,,,,,,,,,,,,,,,,,,,,,,,,,,,,,,,,,,,,,,,,,,0,4,4,1,1,,,,,,,,,,,,,,,,,,,,,,,,,,,,,,,,,,,,,,,,,,,,,,
929785,001,2022-11-21_24h51.57.211,Info_measure_main_exp,2022.2.2,Win32,60.92731371,,,,,,,,,,,,,,,,,,masks/mask_004.jpg,,,,,,,,,,,,,,,,,,,,,,,,,,,,,,,,,,,,,,,,,,,,,,,,0,0,0,3,1,,,,,,,,,,,,,,,,,,,,,,,,,,,,,,,,,,,,,,,,,
929785,001,2022-11-21_24h51.57.211,Info_measure_main_exp,2022.2.2,Win32,60.92731371,,,,,,,,,,,,,,,,,,masks/mask_002.jpg,,,,,,,,,,,,,,,,,,,,,,,,,,,,,,,,,,,,,,,,,,,,,,,,0,1,1,1,1,,,,,,,,,,,,,,,,,,,,,,,,,,,,,,,,,,,,,,,,,
929785,001,2022-11-21_24h51.57.211,Info_measure_main_exp,2022.2.2,Win32,60.92731371,,,,,,,,,,,,,,,,,,masks/mask_003.jpg,,,,,,,,,,,,,,,,,,,,,,,,,,,,,,,,,,,,,,,,,,,,,,,,0,2,2,2,1,,,,,,,,,,,,,,,,,,,,,,,,,,,,,,,,,,,,,,,,,
929785,001,2022-11-21_24h51.57.211,Info_measure_main_exp,2022.2.2,Win32,60.92731371,,,,,,,,,,,,,,,,,,masks/mask_005.jpg,,,,,,,,,,,,,,,,,,,,,,,,,,,,,,,,,,,,,,,,,,,,,,,,0,3,3,4,1,,,,,,,,,,,,,,,,,,,,,,,,,,,,,,,,,,,,,,,,,
929785,001,2022-11-21_24h51.57.211,Info_measure_main_exp,2022.2.2,Win32,60.92731371,,,,,,,,,,,,,,,,,,masks/mask_001.jpg,,,,,,,,,,,,,,,,,,,,,,,,,,,,,,,,,,,,,,,,,,,,,,,,0,4,4,0,1,,,,,,,,,,,,,,,,,,,,,,,,,,,,,,,,,,,,,,,,,
929785,001,2022-11-21_24h51.57.211,Info_measure_main_exp,2022.2.2,Win32,60.92731371,,,,,,,,,,,,,,,,,,,,,,,,,,,,,,0,0.9386,1,,,,,,,,,,,,0,131,5,5,2082,2082,absent_patch/patch0002082.jpg,absent_patch/patch0002082.jpg,,,,,,,,,,,,,,,,,,,,-0.042361101,0.140972217,1,0,0,response7disk,27,-0.001388868,0.002083302,1,0,0,center_square,0,26,26,74,1,,,,,,,,,,,,,,,,,,,,,,,
929785,001,2022-11-21_24h51.57.211,Info_measure_main_exp,2022.2.2,Win32,60.92731371,,,,,,,,,,,,,,,,,,masks/mask_005.jpg,,,,,,,,,,,,,,,,,,,,,,,,,,,,,,,,,,,,,,,,,,,0,0,0,4,1,,,,,,,,,,,,,,,,,,,,,,,,,,,,,,,,,,,,,,,,,,,,,,
929785,001,2022-11-21_24h51.57.211,Info_measure_main_exp,2022.2.2,Win32,60.92731371,,,,,,,,,,,,,,,,,,masks/mask_001.jpg,,,,,,,,,,,,,,,,,,,,,,,,,,,,,,,,,,,,,,,,,,,0,1,1,0,1,,,,,,,,,,,,,,,,,,,,,,,,,,,,,,,,,,,,,,,,,,,,,,
929785,001,2022-11-21_24h51.57.211,Info_measure_main_exp,2022.2.2,Win32,60.92731371,,,,,,,,,,,,,,,,,,masks/mask_004.jpg,,,,,,,,,,,,,,,,,,,,,,,,,,,,,,,,,,,,,,,,,,,0,2,2,3,1,,,,,,,,,,,,,,,,,,,,,,,,,,,,,,,,,,,,,,,,,,,,,,
929785,001,2022-11-21_24h51.57.211,Info_measure_main_exp,2022.2.2,Win32,60.92731371,,,,,,,,,,,,,,,,,,masks/mask_003.jpg,,,,,,,,,,,,,,,,,,,,,,,,,,,,,,,,,,,,,,,,,,,0,3,3,2,1,,,,,,,,,,,,,,,,,,,,,,,,,,,,,,,,,,,,,,,,,,,,,,
929785,001,2022-11-21_24h51.57.211,Info_measure_main_exp,2022.2.2,Win32,60.92731371,,,,,,,,,,,,,,,,,,masks/mask_002.jpg,,,,,,,,,,,,,,,,,,,,,,,,,,,,,,,,,,,,,,,,,,,0,4,4,1,1,,,,,,,,,,,,,,,,,,,,,,,,,,,,,,,,,,,,,,,,,,,,,,
929785,001,2022-11-21_24h51.57.211,Info_measure_main_exp,2022.2.2,Win32,60.92731371,,,,,,,,,,,,,,,,,,masks/mask_005.jpg,,,,,,,,,,,,,,,,,,,,,,,,,,,,,,,,,,,,,,,,,,,,,,,,0,0,0,4,1,,,,,,,,,,,,,,,,,,,,,,,,,,,,,,,,,,,,,,,,,
929785,001,2022-11-21_24h51.57.211,Info_measure_main_exp,2022.2.2,Win32,60.92731371,,,,,,,,,,,,,,,,,,masks/mask_002.jpg,,,,,,,,,,,,,,,,,,,,,,,,,,,,,,,,,,,,,,,,,,,,,,,,0,1,1,1,1,,,,,,,,,,,,,,,,,,,,,,,,,,,,,,,,,,,,,,,,,
929785,001,2022-11-21_24h51.57.211,Info_measure_main_exp,2022.2.2,Win32,60.92731371,,,,,,,,,,,,,,,,,,masks/mask_004.jpg,,,,,,,,,,,,,,,,,,,,,,,,,,,,,,,,,,,,,,,,,,,,,,,,0,2,2,3,1,,,,,,,,,,,,,,,,,,,,,,,,,,,,,,,,,,,,,,,,,
929785,001,2022-11-21_24h51.57.211,Info_measure_main_exp,2022.2.2,Win32,60.92731371,,,,,,,,,,,,,,,,,,masks/mask_001.jpg,,,,,,,,,,,,,,,,,,,,,,,,,,,,,,,,,,,,,,,,,,,,,,,,0,3,3,0,1,,,,,,,,,,,,,,,,,,,,,,,,,,,,,,,,,,,,,,,,,
929785,001,2022-11-21_24h51.57.211,Info_measure_main_exp,2022.2.2,Win32,60.92731371,,,,,,,,,,,,,,,,,,masks/mask_003.jpg,,,,,,,,,,,,,,,,,,,,,,,,,,,,,,,,,,,,,,,,,,,,,,,,0,4,4,2,1,,,,,,,,,,,,,,,,,,,,,,,,,,,,,,,,,,,,,,,,,
929785,001,2022-11-21_24h51.57.211,Info_measure_main_exp,2022.2.2,Win32,60.92731371,,,,,,,,,,,,,,,,,,,,,,,,,,,,,,7,0.7045,1,,,,,,,,,,,,0,131,5,5,2190,1974,absent_patch/patch0002190.jpg,absent_patch/patch0001974.jpg,,,,,,,,,,,,,,,,,,,,0.040277799,0.094444434,1,0,0,response1disk,28,-0.009027746,0.004166656,1,0,0,center_square,0,27,27,119,1,,,,,,,,,,,,,,,,,,,,,,,
929785,001,2022-11-21_24h51.57.211,Info_measure_main_exp,2022.2.2,Win32,60.92731371,,,,,,,,,,,,,,,,,,masks/mask_005.jpg,,,,,,,,,,,,,,,,,,,,,,,,,,,,,,,,,,,,,,,,,,,0,0,0,4,1,,,,,,,,,,,,,,,,,,,,,,,,,,,,,,,,,,,,,,,,,,,,,,
929785,001,2022-11-21_24h51.57.211,Info_measure_main_exp,2022.2.2,Win32,60.92731371,,,,,,,,,,,,,,,,,,masks/mask_002.jpg,,,,,,,,,,,,,,,,,,,,,,,,,,,,,,,,,,,,,,,,,,,0,1,1,1,1,,,,,,,,,,,,,,,,,,,,,,,,,,,,,,,,,,,,,,,,,,,,,,
929785,001,2022-11-21_24h51.57.211,Info_measure_main_exp,2022.2.2,Win32,60.92731371,,,,,,,,,,,,,,,,,,masks/mask_001.jpg,,,,,,,,,,,,,,,,,,,,,,,,,,,,,,,,,,,,,,,,,,,0,2,2,0,1,,,,,,,,,,,,,,,,,,,,,,,,,,,,,,,,,,,,,,,,,,,,,,
929785,001,2022-11-21_24h51.57.211,Info_measure_main_exp,2022.2.2,Win32,60.92731371,,,,,,,,,,,,,,,,,,masks/mask_004.jpg,,,,,,,,,,,,,,,,,,,,,,,,,,,,,,,,,,,,,,,,,,,0,3,3,3,1,,,,,,,,,,,,,,,,,,,,,,,,,,,,,,,,,,,,,,,,,,,,,,
929785,001,2022-11-21_24h51.57.211,Info_measure_main_exp,2022.2.2,Win32,60.92731371,,,,,,,,,,,,,,,,,,masks/mask_003.jpg,,,,,,,,,,,,,,,,,,,,,,,,,,,,,,,,,,,,,,,,,,,0,4,4,2,1,,,,,,,,,,,,,,,,,,,,,,,,,,,,,,,,,,,,,,,,,,,,,,
929785,001,2022-11-21_24h51.57.211,Info_measure_main_exp,2022.2.2,Win32,60.92731371,,,,,,,,,,,,,,,,,,masks/mask_003.jpg,,,,,,,,,,,,,,,,,,,,,,,,,,,,,,,,,,,,,,,,,,,,,,,,0,0,0,2,1,,,,,,,,,,,,,,,,,,,,,,,,,,,,,,,,,,,,,,,,,
929785,001,2022-11-21_24h51.57.211,Info_measure_main_exp,2022.2.2,Win32,60.92731371,,,,,,,,,,,,,,,,,,masks/mask_001.jpg,,,,,,,,,,,,,,,,,,,,,,,,,,,,,,,,,,,,,,,,,,,,,,,,0,1,1,0,1,,,,,,,,,,,,,,,,,,,,,,,,,,,,,,,,,,,,,,,,,
929785,001,2022-11-21_24h51.57.211,Info_measure_main_exp,2022.2.2,Win32,60.92731371,,,,,,,,,,,,,,,,,,masks/mask_005.jpg,,,,,,,,,,,,,,,,,,,,,,,,,,,,,,,,,,,,,,,,,,,,,,,,0,2,2,4,1,,,,,,,,,,,,,,,,,,,,,,,,,,,,,,,,,,,,,,,,,
929785,001,2022-11-21_24h51.57.211,Info_measure_main_exp,2022.2.2,Win32,60.92731371,,,,,,,,,,,,,,,,,,masks/mask_004.jpg,,,,,,,,,,,,,,,,,,,,,,,,,,,,,,,,,,,,,,,,,,,,,,,,0,3,3,3,1,,,,,,,,,,,,,,,,,,,,,,,,,,,,,,,,,,,,,,,,,
929785,001,2022-11-21_24h51.57.211,Info_measure_main_exp,2022.2.2,Win32,60.92731371,,,,,,,,,,,,,,,,,,masks/mask_002.jpg,,,,,,,,,,,,,,,,,,,,,,,,,,,,,,,,,,,,,,,,,,,,,,,,0,4,4,1,1,,,,,,,,,,,,,,,,,,,,,,,,,,,,,,,,,,,,,,,,,
929785,001,2022-11-21_24h51.57.211,Info_measure_main_exp,2022.2.2,Win32,60.92731371,,,,,,,,,,,,,,,,,,,,,,,,,,,,,,5,2.0183,1,,,,,,,,,,,,0,131,5,5,2274,2082,absent_patch/patch0002274.jpg,absent_patch/patch0002082.jpg,,,,,,,,,,,,,,,,,,,,0.100000064,-0.018055545,1,0,0,response3disk,29,0,0,1,0,0,center_square,0,28,28,100,1,,,,,,,,,,,,,,,,,,,,,,,
929785,001,2022-11-21_24h51.57.211,Info_measure_main_exp,2022.2.2,Win32,60.92731371,,,,,,,,,,,,,,,,,,masks/mask_005.jpg,,,,,,,,,,,,,,,,,,,,,,,,,,,,,,,,,,,,,,,,,,,0,0,0,4,1,,,,,,,,,,,,,,,,,,,,,,,,,,,,,,,,,,,,,,,,,,,,,,
929785,001,2022-11-21_24h51.57.211,Info_measure_main_exp,2022.2.2,Win32,60.92731371,,,,,,,,,,,,,,,,,,masks/mask_004.jpg,,,,,,,,,,,,,,,,,,,,,,,,,,,,,,,,,,,,,,,,,,,0,1,1,3,1,,,,,,,,,,,,,,,,,,,,,,,,,,,,,,,,,,,,,,,,,,,,,,
929785,001,2022-11-21_24h51.57.211,Info_measure_main_exp,2022.2.2,Win32,60.92731371,,,,,,,,,,,,,,,,,,masks/mask_003.jpg,,,,,,,,,,,,,,,,,,,,,,,,,,,,,,,,,,,,,,,,,,,0,2,2,2,1,,,,,,,,,,,,,,,,,,,,,,,,,,,,,,,,,,,,,,,,,,,,,,
929785,001,2022-11-21_24h51.57.211,Info_measure_main_exp,2022.2.2,Win32,60.92731371,,,,,,,,,,,,,,,,,,masks/mask_001.jpg,,,,,,,,,,,,,,,,,,,,,,,,,,,,,,,,,,,,,,,,,,,0,3,3,0,1,,,,,,,,,,,,,,,,,,,,,,,,,,,,,,,,,,,,,,,,,,,,,,
929785,001,2022-11-21_24h51.57.211,Info_measure_main_exp,2022.2.2,Win32,60.92731371,,,,,,,,,,,,,,,,,,masks/mask_002.jpg,,,,,,,,,,,,,,,,,,,,,,,,,,,,,,,,,,,,,,,,,,,0,4,4,1,1,,,,,,,,,,,,,,,,,,,,,,,,,,,,,,,,,,,,,,,,,,,,,,
929785,001,2022-11-21_24h51.57.211,Info_measure_main_exp,2022.2.2,Win32,60.92731371,,,,,,,,,,,,,,,,,,masks/mask_004.jpg,,,,,,,,,,,,,,,,,,,,,,,,,,,,,,,,,,,,,,,,,,,,,,,,0,0,0,3,1,,,,,,,,,,,,,,,,,,,,,,,,,,,,,,,,,,,,,,,,,
929785,001,2022-11-21_24h51.57.211,Info_measure_main_exp,2022.2.2,Win32,60.92731371,,,,,,,,,,,,,,,,,,masks/mask_003.jpg,,,,,,,,,,,,,,,,,,,,,,,,,,,,,,,,,,,,,,,,,,,,,,,,0,1,1,2,1,,,,,,,,,,,,,,,,,,,,,,,,,,,,,,,,,,,,,,,,,
929785,001,2022-11-21_24h51.57.211,Info_measure_main_exp,2022.2.2,Win32,60.92731371,,,,,,,,,,,,,,,,,,masks/mask_002.jpg,,,,,,,,,,,,,,,,,,,,,,,,,,,,,,,,,,,,,,,,,,,,,,,,0,2,2,1,1,,,,,,,,,,,,,,,,,,,,,,,,,,,,,,,,,,,,,,,,,
929785,001,2022-11-21_24h51.57.211,Info_measure_main_exp,2022.2.2,Win32,60.92731371,,,,,,,,,,,,,,,,,,masks/mask_001.jpg,,,,,,,,,,,,,,,,,,,,,,,,,,,,,,,,,,,,,,,,,,,,,,,,0,3,3,0,1,,,,,,,,,,,,,,,,,,,,,,,,,,,,,,,,,,,,,,,,,
929785,001,2022-11-21_24h51.57.211,Info_measure_main_exp,2022.2.2,Win32,60.92731371,,,,,,,,,,,,,,,,,,masks/mask_005.jpg,,,,,,,,,,,,,,,,,,,,,,,,,,,,,,,,,,,,,,,,,,,,,,,,0,4,4,4,1,,,,,,,,,,,,,,,,,,,,,,,,,,,,,,,,,,,,,,,,,
929785,001,2022-11-21_24h51.57.211,Info_measure_main_exp,2022.2.2,Win32,60.92731371,,,,,,,,,,,,,,,,,,,,,,,,,,,,,,4,1.2217,1,,,,,,,,,,,,0,131,5,5,2082,2178,absent_patch/patch0002082.jpg,absent_patch/patch0002178.jpg,,,,,,,,,,,,,,,,,,,,0.048611111,-0.079861111,1,0,0,response3disk,30,-0.006944444,-0.002083355,1,0,0,center_square,0,29,29,2,1,,,,,,,,,,,,,,,,,,,,,,,
929785,001,2022-11-21_24h51.57.211,Info_measure_main_exp,2022.2.2,Win32,60.92731371,,,,,,,,,,,,,,,,,,masks/mask_004.jpg,,,,,,,,,,,,,,,,,,,,,,,,,,,,,,,,,,,,,,,,,,,0,0,0,3,1,,,,,,,,,,,,,,,,,,,,,,,,,,,,,,,,,,,,,,,,,,,,,,
929785,001,2022-11-21_24h51.57.211,Info_measure_main_exp,2022.2.2,Win32,60.92731371,,,,,,,,,,,,,,,,,,masks/mask_005.jpg,,,,,,,,,,,,,,,,,,,,,,,,,,,,,,,,,,,,,,,,,,,0,1,1,4,1,,,,,,,,,,,,,,,,,,,,,,,,,,,,,,,,,,,,,,,,,,,,,,
929785,001,2022-11-21_24h51.57.211,Info_measure_main_exp,2022.2.2,Win32,60.92731371,,,,,,,,,,,,,,,,,,masks/mask_002.jpg,,,,,,,,,,,,,,,,,,,,,,,,,,,,,,,,,,,,,,,,,,,0,2,2,1,1,,,,,,,,,,,,,,,,,,,,,,,,,,,,,,,,,,,,,,,,,,,,,,
929785,001,2022-11-21_24h51.57.211,Info_measure_main_exp,2022.2.2,Win32,60.92731371,,,,,,,,,,,,,,,,,,masks/mask_001.jpg,,,,,,,,,,,,,,,,,,,,,,,,,,,,,,,,,,,,,,,,,,,0,3,3,0,1,,,,,,,,,,,,,,,,,,,,,,,,,,,,,,,,,,,,,,,,,,,,,,
929785,001,2022-11-21_24h51.57.211,Info_measure_main_exp,2022.2.2,Win32,60.92731371,,,,,,,,,,,,,,,,,,masks/mask_003.jpg,,,,,,,,,,,,,,,,,,,,,,,,,,,,,,,,,,,,,,,,,,,0,4,4,2,1,,,,,,,,,,,,,,,,,,,,,,,,,,,,,,,,,,,,,,,,,,,,,,
929785,001,2022-11-21_24h51.57.211,Info_measure_main_exp,2022.2.2,Win32,60.92731371,,,,,,,,,,,,,,,,,,masks/mask_003.jpg,,,,,,,,,,,,,,,,,,,,,,,,,,,,,,,,,,,,,,,,,,,,,,,,0,0,0,2,1,,,,,,,,,,,,,,,,,,,,,,,,,,,,,,,,,,,,,,,,,
929785,001,2022-11-21_24h51.57.211,Info_measure_main_exp,2022.2.2,Win32,60.92731371,,,,,,,,,,,,,,,,,,masks/mask_004.jpg,,,,,,,,,,,,,,,,,,,,,,,,,,,,,,,,,,,,,,,,,,,,,,,,0,1,1,3,1,,,,,,,,,,,,,,,,,,,,,,,,,,,,,,,,,,,,,,,,,
929785,001,2022-11-21_24h51.57.211,Info_measure_main_exp,2022.2.2,Win32,60.92731371,,,,,,,,,,,,,,,,,,masks/mask_005.jpg,,,,,,,,,,,,,,,,,,,,,,,,,,,,,,,,,,,,,,,,,,,,,,,,0,2,2,4,1,,,,,,,,,,,,,,,,,,,,,,,,,,,,,,,,,,,,,,,,,
929785,001,2022-11-21_24h51.57.211,Info_measure_main_exp,2022.2.2,Win32,60.92731371,,,,,,,,,,,,,,,,,,masks/mask_001.jpg,,,,,,,,,,,,,,,,,,,,,,,,,,,,,,,,,,,,,,,,,,,,,,,,0,3,3,0,1,,,,,,,,,,,,,,,,,,,,,,,,,,,,,,,,,,,,,,,,,
929785,001,2022-11-21_24h51.57.211,Info_measure_main_exp,2022.2.2,Win32,60.92731371,,,,,,,,,,,,,,,,,,masks/mask_002.jpg,,,,,,,,,,,,,,,,,,,,,,,,,,,,,,,,,,,,,,,,,,,,,,,,0,4,4,1,1,,,,,,,,,,,,,,,,,,,,,,,,,,,,,,,,,,,,,,,,,
929785,001,2022-11-21_24h51.57.211,Info_measure_main_exp,2022.2.2,Win32,60.92731371,,,,,,,,,,,,,,,,,,,,,,,,,,,,,,0,0.5339,1,,,,,,,,,,,,0,131,5,5,2190,2190,absent_patch/patch0002190.jpg,absent_patch/patch0002190.jpg,,,,,,,,,,,,,,,,,,,,-0.030555566,0.106944429,1,0,0,response7disk,31,-0.006944444,0,1,0,0,center_square,0,30,30,86,1,,,,,,,,,,,,,,,,,,,,,,,
929785,001,2022-11-21_24h51.57.211,Info_measure_main_exp,2022.2.2,Win32,60.92731371,,,,,,,,,,,,,,,,,,masks/mask_005.jpg,,,,,,,,,,,,,,,,,,,,,,,,,,,,,,,,,,,,,,,,,,,0,0,0,4,1,,,,,,,,,,,,,,,,,,,,,,,,,,,,,,,,,,,,,,,,,,,,,,
929785,001,2022-11-21_24h51.57.211,Info_measure_main_exp,2022.2.2,Win32,60.92731371,,,,,,,,,,,,,,,,,,masks/mask_002.jpg,,,,,,,,,,,,,,,,,,,,,,,,,,,,,,,,,,,,,,,,,,,0,1,1,1,1,,,,,,,,,,,,,,,,,,,,,,,,,,,,,,,,,,,,,,,,,,,,,,
929785,001,2022-11-21_24h51.57.211,Info_measure_main_exp,2022.2.2,Win32,60.92731371,,,,,,,,,,,,,,,,,,masks/mask_003.jpg,,,,,,,,,,,,,,,,,,,,,,,,,,,,,,,,,,,,,,,,,,,0,2,2,2,1,,,,,,,,,,,,,,,,,,,,,,,,,,,,,,,,,,,,,,,,,,,,,,
929785,001,2022-11-21_24h51.57.211,Info_measure_main_exp,2022.2.2,Win32,60.92731371,,,,,,,,,,,,,,,,,,masks/mask_001.jpg,,,,,,,,,,,,,,,,,,,,,,,,,,,,,,,,,,,,,,,,,,,0,3,3,0,1,,,,,,,,,,,,,,,,,,,,,,,,,,,,,,,,,,,,,,,,,,,,,,
929785,001,2022-11-21_24h51.57.211,Info_measure_main_exp,2022.2.2,Win32,60.92731371,,,,,,,,,,,,,,,,,,masks/mask_004.jpg,,,,,,,,,,,,,,,,,,,,,,,,,,,,,,,,,,,,,,,,,,,0,4,4,3,1,,,,,,,,,,,,,,,,,,,,,,,,,,,,,,,,,,,,,,,,,,,,,,
929785,001,2022-11-21_24h51.57.211,Info_measure_main_exp,2022.2.2,Win32,60.92731371,,,,,,,,,,,,,,,,,,masks/mask_005.jpg,,,,,,,,,,,,,,,,,,,,,,,,,,,,,,,,,,,,,,,,,,,,,,,,0,0,0,4,1,,,,,,,,,,,,,,,,,,,,,,,,,,,,,,,,,,,,,,,,,
929785,001,2022-11-21_24h51.57.211,Info_measure_main_exp,2022.2.2,Win32,60.92731371,,,,,,,,,,,,,,,,,,masks/mask_003.jpg,,,,,,,,,,,,,,,,,,,,,,,,,,,,,,,,,,,,,,,,,,,,,,,,0,1,1,2,1,,,,,,,,,,,,,,,,,,,,,,,,,,,,,,,,,,,,,,,,,
929785,001,2022-11-21_24h51.57.211,Info_measure_main_exp,2022.2.2,Win32,60.92731371,,,,,,,,,,,,,,,,,,masks/mask_001.jpg,,,,,,,,,,,,,,,,,,,,,,,,,,,,,,,,,,,,,,,,,,,,,,,,0,2,2,0,1,,,,,,,,,,,,,,,,,,,,,,,,,,,,,,,,,,,,,,,,,
929785,001,2022-11-21_24h51.57.211,Info_measure_main_exp,2022.2.2,Win32,60.92731371,,,,,,,,,,,,,,,,,,masks/mask_002.jpg,,,,,,,,,,,,,,,,,,,,,,,,,,,,,,,,,,,,,,,,,,,,,,,,0,3,3,1,1,,,,,,,,,,,,,,,,,,,,,,,,,,,,,,,,,,,,,,,,,
929785,001,2022-11-21_24h51.57.211,Info_measure_main_exp,2022.2.2,Win32,60.92731371,,,,,,,,,,,,,,,,,,masks/mask_004.jpg,,,,,,,,,,,,,,,,,,,,,,,,,,,,,,,,,,,,,,,,,,,,,,,,0,4,4,3,1,,,,,,,,,,,,,,,,,,,,,,,,,,,,,,,,,,,,,,,,,
929785,001,2022-11-21_24h51.57.211,Info_measure_main_exp,2022.2.2,Win32,60.92731371,,,,,,,,,,,,,,,,,,,,,,,,,,,,,,3,1.7881,1,,,,,,,,,,,,0,131,5,5,2190,2082,absent_patch/patch0002190.jpg,absent_patch/patch0002082.jpg,,,,,,,,,,,,,,,,,,,,-0.006250011,-0.036111143,1,0,0,response5disk,32,0.001388868,0.001388868,1,0,0,center_square,0,31,31,112,1,,,,,,,,,,,,,,,,,,,,,,,
929785,001,2022-11-21_24h51.57.211,Info_measure_main_exp,2022.2.2,Win32,60.92731371,,,,,,,,,,,,,,,,,,masks/mask_005.jpg,,,,,,,,,,,,,,,,,,,,,,,,,,,,,,,,,,,,,,,,,,,0,0,0,4,1,,,,,,,,,,,,,,,,,,,,,,,,,,,,,,,,,,,,,,,,,,,,,,
929785,001,2022-11-21_24h51.57.211,Info_measure_main_exp,2022.2.2,Win32,60.92731371,,,,,,,,,,,,,,,,,,masks/mask_001.jpg,,,,,,,,,,,,,,,,,,,,,,,,,,,,,,,,,,,,,,,,,,,0,1,1,0,1,,,,,,,,,,,,,,,,,,,,,,,,,,,,,,,,,,,,,,,,,,,,,,
929785,001,2022-11-21_24h51.57.211,Info_measure_main_exp,2022.2.2,Win32,60.92731371,,,,,,,,,,,,,,,,,,masks/mask_002.jpg,,,,,,,,,,,,,,,,,,,,,,,,,,,,,,,,,,,,,,,,,,,0,2,2,1,1,,,,,,,,,,,,,,,,,,,,,,,,,,,,,,,,,,,,,,,,,,,,,,
929785,001,2022-11-21_24h51.57.211,Info_measure_main_exp,2022.2.2,Win32,60.92731371,,,,,,,,,,,,,,,,,,masks/mask_003.jpg,,,,,,,,,,,,,,,,,,,,,,,,,,,,,,,,,,,,,,,,,,,0,3,3,2,1,,,,,,,,,,,,,,,,,,,,,,,,,,,,,,,,,,,,,,,,,,,,,,
929785,001,2022-11-21_24h51.57.211,Info_measure_main_exp,2022.2.2,Win32,60.92731371,,,,,,,,,,,,,,,,,,masks/mask_004.jpg,,,,,,,,,,,,,,,,,,,,,,,,,,,,,,,,,,,,,,,,,,,0,4,4,3,1,,,,,,,,,,,,,,,,,,,,,,,,,,,,,,,,,,,,,,,,,,,,,,
929785,001,2022-11-21_24h51.57.211,Info_measure_main_exp,2022.2.2,Win32,60.92731371,,,,,,,,,,,,,,,,,,masks/mask_002.jpg,,,,,,,,,,,,,,,,,,,,,,,,,,,,,,,,,,,,,,,,,,,,,,,,0,0,0,1,1,,,,,,,,,,,,,,,,,,,,,,,,,,,,,,,,,,,,,,,,,
929785,001,2022-11-21_24h51.57.211,Info_measure_main_exp,2022.2.2,Win32,60.92731371,,,,,,,,,,,,,,,,,,masks/mask_001.jpg,,,,,,,,,,,,,,,,,,,,,,,,,,,,,,,,,,,,,,,,,,,,,,,,0,1,1,0,1,,,,,,,,,,,,,,,,,,,,,,,,,,,,,,,,,,,,,,,,,
929785,001,2022-11-21_24h51.57.211,Info_measure_main_exp,2022.2.2,Win32,60.92731371,,,,,,,,,,,,,,,,,,masks/mask_003.jpg,,,,,,,,,,,,,,,,,,,,,,,,,,,,,,,,,,,,,,,,,,,,,,,,0,2,2,2,1,,,,,,,,,,,,,,,,,,,,,,,,,,,,,,,,,,,,,,,,,
929785,001,2022-11-21_24h51.57.211,Info_measure_main_exp,2022.2.2,Win32,60.92731371,,,,,,,,,,,,,,,,,,masks/mask_004.jpg,,,,,,,,,,,,,,,,,,,,,,,,,,,,,,,,,,,,,,,,,,,,,,,,0,3,3,3,1,,,,,,,,,,,,,,,,,,,,,,,,,,,,,,,,,,,,,,,,,
929785,001,2022-11-21_24h51.57.211,Info_measure_main_exp,2022.2.2,Win32,60.92731371,,,,,,,,,,,,,,,,,,masks/mask_005.jpg,,,,,,,,,,,,,,,,,,,,,,,,,,,,,,,,,,,,,,,,,,,,,,,,0,4,4,4,1,,,,,,,,,,,,,,,,,,,,,,,,,,,,,,,,,,,,,,,,,
929785,001,2022-11-21_24h51.57.211,Info_measure_main_exp,2022.2.2,Win32,60.92731371,,,,,,,,,,,,,,,,,,,,,,,,,,,,,,3,1.0847,1,,,,,,,,,,,,0,131,5,5,2166,1986,absent_patch/patch0002166.jpg,absent_patch/patch0001986.jpg,,,,,,,,,,,,,,,,,,,,-0.021527767,-0.054861122,1,0,0,response5disk,33,0,0.004166656,1,0,0,center_square,0,32,32,47,1,,,,,,,,,,,,,,,,,,,,,,,
929785,001,2022-11-21_24h51.57.211,Info_measure_main_exp,2022.2.2,Win32,60.92731371,,,,,,,,,,,,,,,,,,masks/mask_004.jpg,,,,,,,,,,,,,,,,,,,,,,,,,,,,,,,,,,,,,,,,,,,0,0,0,3,1,,,,,,,,,,,,,,,,,,,,,,,,,,,,,,,,,,,,,,,,,,,,,,
929785,001,2022-11-21_24h51.57.211,Info_measure_main_exp,2022.2.2,Win32,60.92731371,,,,,,,,,,,,,,,,,,masks/mask_005.jpg,,,,,,,,,,,,,,,,,,,,,,,,,,,,,,,,,,,,,,,,,,,0,1,1,4,1,,,,,,,,,,,,,,,,,,,,,,,,,,,,,,,,,,,,,,,,,,,,,,
929785,001,2022-11-21_24h51.57.211,Info_measure_main_exp,2022.2.2,Win32,60.92731371,,,,,,,,,,,,,,,,,,masks/mask_003.jpg,,,,,,,,,,,,,,,,,,,,,,,,,,,,,,,,,,,,,,,,,,,0,2,2,2,1,,,,,,,,,,,,,,,,,,,,,,,,,,,,,,,,,,,,,,,,,,,,,,
929785,001,2022-11-21_24h51.57.211,Info_measure_main_exp,2022.2.2,Win32,60.92731371,,,,,,,,,,,,,,,,,,masks/mask_002.jpg,,,,,,,,,,,,,,,,,,,,,,,,,,,,,,,,,,,,,,,,,,,0,3,3,1,1,,,,,,,,,,,,,,,,,,,,,,,,,,,,,,,,,,,,,,,,,,,,,,
929785,001,2022-11-21_24h51.57.211,Info_measure_main_exp,2022.2.2,Win32,60.92731371,,,,,,,,,,,,,,,,,,masks/mask_001.jpg,,,,,,,,,,,,,,,,,,,,,,,,,,,,,,,,,,,,,,,,,,,0,4,4,0,1,,,,,,,,,,,,,,,,,,,,,,,,,,,,,,,,,,,,,,,,,,,,,,
929785,001,2022-11-21_24h51.57.211,Info_measure_main_exp,2022.2.2,Win32,60.92731371,,,,,,,,,,,,,,,,,,masks/mask_003.jpg,,,,,,,,,,,,,,,,,,,,,,,,,,,,,,,,,,,,,,,,,,,,,,,,0,0,0,2,1,,,,,,,,,,,,,,,,,,,,,,,,,,,,,,,,,,,,,,,,,
929785,001,2022-11-21_24h51.57.211,Info_measure_main_exp,2022.2.2,Win32,60.92731371,,,,,,,,,,,,,,,,,,masks/mask_001.jpg,,,,,,,,,,,,,,,,,,,,,,,,,,,,,,,,,,,,,,,,,,,,,,,,0,1,1,0,1,,,,,,,,,,,,,,,,,,,,,,,,,,,,,,,,,,,,,,,,,
929785,001,2022-11-21_24h51.57.211,Info_measure_main_exp,2022.2.2,Win32,60.92731371,,,,,,,,,,,,,,,,,,masks/mask_002.jpg,,,,,,,,,,,,,,,,,,,,,,,,,,,,,,,,,,,,,,,,,,,,,,,,0,2,2,1,1,,,,,,,,,,,,,,,,,,,,,,,,,,,,,,,,,,,,,,,,,
929785,001,2022-11-21_24h51.57.211,Info_measure_main_exp,2022.2.2,Win32,60.92731371,,,,,,,,,,,,,,,,,,masks/mask_004.jpg,,,,,,,,,,,,,,,,,,,,,,,,,,,,,,,,,,,,,,,,,,,,,,,,0,3,3,3,1,,,,,,,,,,,,,,,,,,,,,,,,,,,,,,,,,,,,,,,,,
929785,001,2022-11-21_24h51.57.211,Info_measure_main_exp,2022.2.2,Win32,60.92731371,,,,,,,,,,,,,,,,,,masks/mask_005.jpg,,,,,,,,,,,,,,,,,,,,,,,,,,,,,,,,,,,,,,,,,,,,,,,,0,4,4,4,1,,,,,,,,,,,,,,,,,,,,,,,,,,,,,,,,,,,,,,,,,
929785,001,2022-11-21_24h51.57.211,Info_measure_main_exp,2022.2.2,Win32,60.92731371,,,,,,,,,,,,,,,,,,,,,,,,,,,,,,6,1.4219,1,,,,,,,,,,,,0,131,5,5,2082,2154,absent_patch/patch0002082.jpg,absent_patch/patch0002154.jpg,,,,,,,,,,,,,,,,,,,,0.07916673,0.035416656,1,0,0,response1disk,34,-0.003472222,0.008333312,1,0,0,center_square,0,33,33,33,1,,,,,,,,,,,,,,,,,,,,,,,
929785,001,2022-11-21_24h51.57.211,Info_measure_main_exp,2022.2.2,Win32,60.92731371,,,,,,,,,,,,,,,,,,masks/mask_005.jpg,,,,,,,,,,,,,,,,,,,,,,,,,,,,,,,,,,,,,,,,,,,0,0,0,4,1,,,,,,,,,,,,,,,,,,,,,,,,,,,,,,,,,,,,,,,,,,,,,,
929785,001,2022-11-21_24h51.57.211,Info_measure_main_exp,2022.2.2,Win32,60.92731371,,,,,,,,,,,,,,,,,,masks/mask_003.jpg,,,,,,,,,,,,,,,,,,,,,,,,,,,,,,,,,,,,,,,,,,,0,1,1,2,1,,,,,,,,,,,,,,,,,,,,,,,,,,,,,,,,,,,,,,,,,,,,,,
929785,001,2022-11-21_24h51.57.211,Info_measure_main_exp,2022.2.2,Win32,60.92731371,,,,,,,,,,,,,,,,,,masks/mask_004.jpg,,,,,,,,,,,,,,,,,,,,,,,,,,,,,,,,,,,,,,,,,,,0,2,2,3,1,,,,,,,,,,,,,,,,,,,,,,,,,,,,,,,,,,,,,,,,,,,,,,
929785,001,2022-11-21_24h51.57.211,Info_measure_main_exp,2022.2.2,Win32,60.92731371,,,,,,,,,,,,,,,,,,masks/mask_002.jpg,,,,,,,,,,,,,,,,,,,,,,,,,,,,,,,,,,,,,,,,,,,0,3,3,1,1,,,,,,,,,,,,,,,,,,,,,,,,,,,,,,,,,,,,,,,,,,,,,,
929785,001,2022-11-21_24h51.57.211,Info_measure_main_exp,2022.2.2,Win32,60.92731371,,,,,,,,,,,,,,,,,,masks/mask_001.jpg,,,,,,,,,,,,,,,,,,,,,,,,,,,,,,,,,,,,,,,,,,,0,4,4,0,1,,,,,,,,,,,,,,,,,,,,,,,,,,,,,,,,,,,,,,,,,,,,,,
929785,001,2022-11-21_24h51.57.211,Info_measure_main_exp,2022.2.2,Win32,60.92731371,,,,,,,,,,,,,,,,,,masks/mask_003.jpg,,,,,,,,,,,,,,,,,,,,,,,,,,,,,,,,,,,,,,,,,,,,,,,,0,0,0,2,1,,,,,,,,,,,,,,,,,,,,,,,,,,,,,,,,,,,,,,,,,
929785,001,2022-11-21_24h51.57.211,Info_measure_main_exp,2022.2.2,Win32,60.92731371,,,,,,,,,,,,,,,,,,masks/mask_004.jpg,,,,,,,,,,,,,,,,,,,,,,,,,,,,,,,,,,,,,,,,,,,,,,,,0,1,1,3,1,,,,,,,,,,,,,,,,,,,,,,,,,,,,,,,,,,,,,,,,,
929785,001,2022-11-21_24h51.57.211,Info_measure_main_exp,2022.2.2,Win32,60.92731371,,,,,,,,,,,,,,,,,,masks/mask_002.jpg,,,,,,,,,,,,,,,,,,,,,,,,,,,,,,,,,,,,,,,,,,,,,,,,0,2,2,1,1,,,,,,,,,,,,,,,,,,,,,,,,,,,,,,,,,,,,,,,,,
929785,001,2022-11-21_24h51.57.211,Info_measure_main_exp,2022.2.2,Win32,60.92731371,,,,,,,,,,,,,,,,,,masks/mask_001.jpg,,,,,,,,,,,,,,,,,,,,,,,,,,,,,,,,,,,,,,,,,,,,,,,,0,3,3,0,1,,,,,,,,,,,,,,,,,,,,,,,,,,,,,,,,,,,,,,,,,
