participant,session,date,expName,psychopyVersion,OS,frameRate,space_press_continue.keys,space_press_continue.rt,space_press_continue_2.keys,space_press_continue_2.rt,space_press_continue_3.keys,space_press_continue_3.rt,space_press_continue_4.keys,space_press_continue_4.rt,space_press_continue_5.keys,space_press_continue_5.rt,space_press_continue_6.keys,space_press_continue_6.rt,prac_mask_loop_1.thisRepN,prac_mask_loop_1.thisTrialN,prac_mask_loop_1.thisN,prac_mask_loop_1.thisIndex,prac_mask_loop_1.ran,mask_name,prac_mask_loop_2.thisRepN,prac_mask_loop_2.thisTrialN,prac_mask_loop_2.thisN,prac_mask_loop_2.thisIndex,prac_mask_loop_2.ran,mouse_2.x,mouse_2.y,mouse_2.leftButton,mouse_2.midButton,mouse_2.rightButton,mouse_2.clicked_name,similarity,response_time,Pass,mouse_12.x,mouse_12.y,mouse_12.leftButton,mouse_12.midButton,mouse_12.rightButton,mouse_12.clicked_name,prac_loop.thisRepN,prac_loop.thisTrialN,prac_loop.thisN,prac_loop.thisIndex,prac_loop.ran,Pair_type,Image_num,Patch_1_loc,Patch_2_loc,Patch_1_info,Patch_2_info,Patch_1_name,Patch_2_name,mouse_1.x,mouse_1.y,mouse_1.leftButton,mouse_1.midButton,mouse_1.rightButton,mouse_1.time,mouse_1.clicked_name,space_press_continue_7.keys,space_press_continue_7.rt,mask_loop.thisRepN,mask_loop.thisTrialN,mask_loop.thisN,mask_loop.thisIndex,mask_loop.ran,mask_loop_2.thisRepN,mask_loop_2.thisTrialN,mask_loop_2.thisN,mask_loop_2.thisIndex,mask_loop_2.ran,mouse.x,mouse.y,mouse.leftButton,mouse.midButton,mouse.rightButton,mouse.clicked_name,trialNumber,mouse_11.x,mouse_11.y,mouse_11.leftButton,mouse_11.midButton,mouse_11.rightButton,mouse_11.clicked_name,first_pass_loop.thisRepN,first_pass_loop.thisTrialN,first_pass_loop.thisN,first_pass_loop.thisIndex,first_pass_loop.ran,mask_loop_3.thisRepN,mask_loop_3.thisTrialN,mask_loop_3.thisN,mask_loop_3.thisIndex,mask_loop_3.ran,mask_loop_4.thisRepN,mask_loop_4.thisTrialN,mask_loop_4.thisN,mask_loop_4.thisIndex,mask_loop_4.ran,mouse_3.x,mouse_3.y,mouse_3.leftButton,mouse_3.midButton,mouse_3.rightButton,mouse_3.clicked_name,double_pass_loop.thisRepN,double_pass_loop.thisTrialN,double_pass_loop.thisN,double_pass_loop.thisIndex,double_pass_loop.ran,space_exit.keys,space_exit.rt
941810,001,2022-11-20_17h57.10.232,Info_measure_main_exp,2022.2.2,Win32,60.0240096,,,,,,,,,,,,,,,,,,,,,,,,,,,,,,,,,,,,,,,,,,,,,,,,,,,,,,,,,,,,,,,,,,,,,,,,,,,,,,,,,,,,,,,,,,,,,,,,,,,,,,,,,,,,,,,
941810,001,2022-11-20_17h57.10.232,Info_measure_main_exp,2022.2.2,Win32,60.0240096,,,,,,,,,,,,,,,,,,,,,,,,,,,,,,,,,,,,,,,,,,,,,,,,,,,,,,,,,,,,,,,,,,,,,,,,,,,,,,,,,,,,,,,,,,,,,,,,,,,,,,,,,,,,,,,
941810,001,2022-11-20_17h57.10.232,Info_measure_main_exp,2022.2.2,Win32,60.0240096,space,5.077,,,,,,,,,,,,,,,,,,,,,,,,,,,,,,,,,,,,,,,,,,,,,,,,,,,,,,,,,,,,,,,,,,,,,,,,,,,,,,,,,,,,,,,,,,,,,,,,,,,,,,,,,,,,,
941810,001,2022-11-20_17h57.10.232,Info_measure_main_exp,2022.2.2,Win32,60.0240096,,,space,10.769,,,,,,,,,,,,,,,,,,,,,,,,,,,,,,,,,,,,,,,,,,,,,,,,,,,,,,,,,,,,,,,,,,,,,,,,,,,,,,,,,,,,,,,,,,,,,,,,,,,,,,,,,,,
941810,001,2022-11-20_17h57.10.232,Info_measure_main_exp,2022.2.2,Win32,60.0240096,,,,,space,7.503,,,,,,,,,,,,,,,,,,,,,,,,,,,,,,,,,,,,,,,,,,,,,,,,,,,,,,,,,,,,,,,,,,,,,,,,,,,,,,,,,,,,,,,,,,,,,,,,,,,,,,,,,
941810,001,2022-11-20_17h57.10.232,Info_measure_main_exp,2022.2.2,Win32,60.0240096,,,,,,,space,7.472,,,,,,,,,,,,,,,,,,,,,,,,,,,,,,,,,,,,,,,,,,,,,,,,,,,,,,,,,,,,,,,,,,,,,,,,,,,,,,,,,,,,,,,,,,,,,,,,,,,,,,,
941810,001,2022-11-20_17h57.10.232,Info_measure_main_exp,2022.2.2,Win32,60.0240096,,,,,,,,,space,5.395,,,,,,,,,,,,,,,,,,,,,,,,,,,,,,,,,,,,,,,,,,,,,,,,,,,,,,,,,,,,,,,,,,,,,,,,,,,,,,,,,,,,,,,,,,,,,,,,,,,,,
941810,001,2022-11-20_17h57.10.232,Info_measure_main_exp,2022.2.2,Win32,60.0240096,,,,,,,,,,,space,4.285,,,,,,,,,,,,,,,,,,,,,,,,,,,,,,,,,,,,,,,,,,,,,,,,,,,,,,,,,,,,,,,,,,,,,,,,,,,,,,,,,,,,,,,,,,,,,,,,,,,
941810,001,2022-11-20_17h57.10.232,Info_measure_main_exp,2022.2.2,Win32,60.0240096,,,,,,,,,,,,,0,0,0,3,1,masks/mask_004.jpg,,,,,,,,,,,,,,,,,,,,,,,,,,,,,,,,,,,,,,,,,,,,,,,,,,,,,,,,,,,,,,,,,,,,,,,,,,,,,,,,,,,,,,,,,,,,,
941810,001,2022-11-20_17h57.10.232,Info_measure_main_exp,2022.2.2,Win32,60.0240096,,,,,,,,,,,,,0,1,1,1,1,masks/mask_002.jpg,,,,,,,,,,,,,,,,,,,,,,,,,,,,,,,,,,,,,,,,,,,,,,,,,,,,,,,,,,,,,,,,,,,,,,,,,,,,,,,,,,,,,,,,,,,,,
941810,001,2022-11-20_17h57.10.232,Info_measure_main_exp,2022.2.2,Win32,60.0240096,,,,,,,,,,,,,0,2,2,0,1,masks/mask_001.jpg,,,,,,,,,,,,,,,,,,,,,,,,,,,,,,,,,,,,,,,,,,,,,,,,,,,,,,,,,,,,,,,,,,,,,,,,,,,,,,,,,,,,,,,,,,,,,
941810,001,2022-11-20_17h57.10.232,Info_measure_main_exp,2022.2.2,Win32,60.0240096,,,,,,,,,,,,,0,3,3,2,1,masks/mask_003.jpg,,,,,,,,,,,,,,,,,,,,,,,,,,,,,,,,,,,,,,,,,,,,,,,,,,,,,,,,,,,,,,,,,,,,,,,,,,,,,,,,,,,,,,,,,,,,,
941810,001,2022-11-20_17h57.10.232,Info_measure_main_exp,2022.2.2,Win32,60.0240096,,,,,,,,,,,,,0,4,4,4,1,masks/mask_005.jpg,,,,,,,,,,,,,,,,,,,,,,,,,,,,,,,,,,,,,,,,,,,,,,,,,,,,,,,,,,,,,,,,,,,,,,,,,,,,,,,,,,,,,,,,,,,,,
941810,001,2022-11-20_17h57.10.232,Info_measure_main_exp,2022.2.2,Win32,60.0240096,,,,,,,,,,,,,,,,,,masks/mask_002.jpg,0,0,0,1,1,,,,,,,,,,,,,,,,,,,,,,,,,,,,,,,,,,,,,,,,,,,,,,,,,,,,,,,,,,,,,,,,,,,,,,,,,,,,,,,,,,,,,,,,
941810,001,2022-11-20_17h57.10.232,Info_measure_main_exp,2022.2.2,Win32,60.0240096,,,,,,,,,,,,,,,,,,masks/mask_001.jpg,0,1,1,0,1,,,,,,,,,,,,,,,,,,,,,,,,,,,,,,,,,,,,,,,,,,,,,,,,,,,,,,,,,,,,,,,,,,,,,,,,,,,,,,,,,,,,,,,,
941810,001,2022-11-20_17h57.10.232,Info_measure_main_exp,2022.2.2,Win32,60.0240096,,,,,,,,,,,,,,,,,,masks/mask_003.jpg,0,2,2,2,1,,,,,,,,,,,,,,,,,,,,,,,,,,,,,,,,,,,,,,,,,,,,,,,,,,,,,,,,,,,,,,,,,,,,,,,,,,,,,,,,,,,,,,,,
941810,001,2022-11-20_17h57.10.232,Info_measure_main_exp,2022.2.2,Win32,60.0240096,,,,,,,,,,,,,,,,,,masks/mask_004.jpg,0,3,3,3,1,,,,,,,,,,,,,,,,,,,,,,,,,,,,,,,,,,,,,,,,,,,,,,,,,,,,,,,,,,,,,,,,,,,,,,,,,,,,,,,,,,,,,,,,
941810,001,2022-11-20_17h57.10.232,Info_measure_main_exp,2022.2.2,Win32,60.0240096,,,,,,,,,,,,,,,,,,masks/mask_005.jpg,0,4,4,4,1,,,,,,,,,,,,,,,,,,,,,,,,,,,,,,,,,,,,,,,,,,,,,,,,,,,,,,,,,,,,,,,,,,,,,,,,,,,,,,,,,,,,,,,,
941810,001,2022-11-20_17h57.10.232,Info_measure_main_exp,2022.2.2,Win32,60.0240096,,,,,,,,,,,,,,,,,,,,,,,,-0.133101852,-0.074074074,1,0,0,response5disk,2,44.08,1,0.002314815,-0.002314815,1,0,0,center_square,0,0,0,0,1,0,131,5,5,2370,2406,prac_patch/patch0002370.jpg,prac_patch/patch0002406.jpg,,,,,,,,,,,,,,,,,,,,,,,,,,,,,,,,,,,,,,,,,,,,,,,,,,,,,,,,,,,,
941810,001,2022-11-20_17h57.10.232,Info_measure_main_exp,2022.2.2,Win32,60.0240096,,,,,,,,,,,,,0,0,0,3,1,masks/mask_004.jpg,,,,,,,,,,,,,,,,,,,,,,,,,,,,,,,,,,,,,,,,,,,,,,,,,,,,,,,,,,,,,,,,,,,,,,,,,,,,,,,,,,,,,,,,,,,,,
941810,001,2022-11-20_17h57.10.232,Info_measure_main_exp,2022.2.2,Win32,60.0240096,,,,,,,,,,,,,0,1,1,1,1,masks/mask_002.jpg,,,,,,,,,,,,,,,,,,,,,,,,,,,,,,,,,,,,,,,,,,,,,,,,,,,,,,,,,,,,,,,,,,,,,,,,,,,,,,,,,,,,,,,,,,,,,
941810,001,2022-11-20_17h57.10.232,Info_measure_main_exp,2022.2.2,Win32,60.0240096,,,,,,,,,,,,,0,2,2,2,1,masks/mask_003.jpg,,,,,,,,,,,,,,,,,,,,,,,,,,,,,,,,,,,,,,,,,,,,,,,,,,,,,,,,,,,,,,,,,,,,,,,,,,,,,,,,,,,,,,,,,,,,,
941810,001,2022-11-20_17h57.10.232,Info_measure_main_exp,2022.2.2,Win32,60.0240096,,,,,,,,,,,,,0,3,3,4,1,masks/mask_005.jpg,,,,,,,,,,,,,,,,,,,,,,,,,,,,,,,,,,,,,,,,,,,,,,,,,,,,,,,,,,,,,,,,,,,,,,,,,,,,,,,,,,,,,,,,,,,,,
941810,001,2022-11-20_17h57.10.232,Info_measure_main_exp,2022.2.2,Win32,60.0240096,,,,,,,,,,,,,0,4,4,0,1,masks/mask_001.jpg,,,,,,,,,,,,,,,,,,,,,,,,,,,,,,,,,,,,,,,,,,,,,,,,,,,,,,,,,,,,,,,,,,,,,,,,,,,,,,,,,,,,,,,,,,,,,
941810,001,2022-11-20_17h57.10.232,Info_measure_main_exp,2022.2.2,Win32,60.0240096,,,,,,,,,,,,,,,,,,masks/mask_002.jpg,0,0,0,1,1,,,,,,,,,,,,,,,,,,,,,,,,,,,,,,,,,,,,,,,,,,,,,,,,,,,,,,,,,,,,,,,,,,,,,,,,,,,,,,,,,,,,,,,,
941810,001,2022-11-20_17h57.10.232,Info_measure_main_exp,2022.2.2,Win32,60.0240096,,,,,,,,,,,,,,,,,,masks/mask_003.jpg,0,1,1,2,1,,,,,,,,,,,,,,,,,,,,,,,,,,,,,,,,,,,,,,,,,,,,,,,,,,,,,,,,,,,,,,,,,,,,,,,,,,,,,,,,,,,,,,,,
941810,001,2022-11-20_17h57.10.232,Info_measure_main_exp,2022.2.2,Win32,60.0240096,,,,,,,,,,,,,,,,,,masks/mask_001.jpg,0,2,2,0,1,,,,,,,,,,,,,,,,,,,,,,,,,,,,,,,,,,,,,,,,,,,,,,,,,,,,,,,,,,,,,,,,,,,,,,,,,,,,,,,,,,,,,,,,
941810,001,2022-11-20_17h57.10.232,Info_measure_main_exp,2022.2.2,Win32,60.0240096,,,,,,,,,,,,,,,,,,masks/mask_004.jpg,0,3,3,3,1,,,,,,,,,,,,,,,,,,,,,,,,,,,,,,,,,,,,,,,,,,,,,,,,,,,,,,,,,,,,,,,,,,,,,,,,,,,,,,,,,,,,,,,,
941810,001,2022-11-20_17h57.10.232,Info_measure_main_exp,2022.2.2,Win32,60.0240096,,,,,,,,,,,,,,,,,,masks/mask_005.jpg,0,4,4,4,1,,,,,,,,,,,,,,,,,,,,,,,,,,,,,,,,,,,,,,,,,,,,,,,,,,,,,,,,,,,,,,,,,,,,,,,,,,,,,,,,,,,,,,,,
941810,001,2022-11-20_17h57.10.232,Info_measure_main_exp,2022.2.2,Win32,60.0240096,,,,,,,,,,,,,,,,,,,,,,,,0.038194444,-0.148148148,1,0,0,response3disk,4,59.423,1,0.006944444,-0.006944444,1,0,0,center_square,0,1,1,1,1,0,131,5,5,2514,2490,prac_patch/patch0002514.jpg,prac_patch/patch0002490.jpg,,,,,,,,,,,,,,,,,,,,,,,,,,,,,,,,,,,,,,,,,,,,,,,,,,,,,,,,,,,,
941810,001,2022-11-20_17h57.10.232,Info_measure_main_exp,2022.2.2,Win32,60.0240096,,,,,,,,,,,,,0,0,0,3,1,masks/mask_004.jpg,,,,,,,,,,,,,,,,,,,,,,,,,,,,,,,,,,,,,,,,,,,,,,,,,,,,,,,,,,,,,,,,,,,,,,,,,,,,,,,,,,,,,,,,,,,,,
941810,001,2022-11-20_17h57.10.232,Info_measure_main_exp,2022.2.2,Win32,60.0240096,,,,,,,,,,,,,0,1,1,1,1,masks/mask_002.jpg,,,,,,,,,,,,,,,,,,,,,,,,,,,,,,,,,,,,,,,,,,,,,,,,,,,,,,,,,,,,,,,,,,,,,,,,,,,,,,,,,,,,,,,,,,,,,
941810,001,2022-11-20_17h57.10.232,Info_measure_main_exp,2022.2.2,Win32,60.0240096,,,,,,,,,,,,,0,2,2,4,1,masks/mask_005.jpg,,,,,,,,,,,,,,,,,,,,,,,,,,,,,,,,,,,,,,,,,,,,,,,,,,,,,,,,,,,,,,,,,,,,,,,,,,,,,,,,,,,,,,,,,,,,,
941810,001,2022-11-20_17h57.10.232,Info_measure_main_exp,2022.2.2,Win32,60.0240096,,,,,,,,,,,,,0,3,3,0,1,masks/mask_001.jpg,,,,,,,,,,,,,,,,,,,,,,,,,,,,,,,,,,,,,,,,,,,,,,,,,,,,,,,,,,,,,,,,,,,,,,,,,,,,,,,,,,,,,,,,,,,,,
941810,001,2022-11-20_17h57.10.232,Info_measure_main_exp,2022.2.2,Win32,60.0240096,,,,,,,,,,,,,0,4,4,2,1,masks/mask_003.jpg,,,,,,,,,,,,,,,,,,,,,,,,,,,,,,,,,,,,,,,,,,,,,,,,,,,,,,,,,,,,,,,,,,,,,,,,,,,,,,,,,,,,,,,,,,,,,
941810,001,2022-11-20_17h57.10.232,Info_measure_main_exp,2022.2.2,Win32,60.0240096,,,,,,,,,,,,,,,,,,masks/mask_004.jpg,0,0,0,3,1,,,,,,,,,,,,,,,,,,,,,,,,,,,,,,,,,,,,,,,,,,,,,,,,,,,,,,,,,,,,,,,,,,,,,,,,,,,,,,,,,,,,,,,,
941810,001,2022-11-20_17h57.10.232,Info_measure_main_exp,2022.2.2,Win32,60.0240096,,,,,,,,,,,,,,,,,,masks/mask_003.jpg,0,1,1,2,1,,,,,,,,,,,,,,,,,,,,,,,,,,,,,,,,,,,,,,,,,,,,,,,,,,,,,,,,,,,,,,,,,,,,,,,,,,,,,,,,,,,,,,,,
941810,001,2022-11-20_17h57.10.232,Info_measure_main_exp,2022.2.2,Win32,60.0240096,,,,,,,,,,,,,,,,,,masks/mask_005.jpg,0,2,2,4,1,,,,,,,,,,,,,,,,,,,,,,,,,,,,,,,,,,,,,,,,,,,,,,,,,,,,,,,,,,,,,,,,,,,,,,,,,,,,,,,,,,,,,,,,
941810,001,2022-11-20_17h57.10.232,Info_measure_main_exp,2022.2.2,Win32,60.0240096,,,,,,,,,,,,,,,,,,masks/mask_002.jpg,0,3,3,1,1,,,,,,,,,,,,,,,,,,,,,,,,,,,,,,,,,,,,,,,,,,,,,,,,,,,,,,,,,,,,,,,,,,,,,,,,,,,,,,,,,,,,,,,,
941810,001,2022-11-20_17h57.10.232,Info_measure_main_exp,2022.2.2,Win32,60.0240096,,,,,,,,,,,,,,,,,,masks/mask_001.jpg,0,4,4,0,1,,,,,,,,,,,,,,,,,,,,,,,,,,,,,,,,,,,,,,,,,,,,,,,,,,,,,,,,,,,,,,,,,,,,,,,,,,,,,,,,,,,,,,,,
941810,001,2022-11-20_17h57.10.232,Info_measure_main_exp,2022.2.2,Win32,60.0240096,,,,,,,,,,,,,,,,,,,,,,,,-0.116898148,0.052083333,1,0,0,response7disk,1,68.504,1,0.001157407,0.011574074,1,0,0,center_square,0,2,2,2,1,0,131,5,5,2526,2526,prac_patch/patch0002526.jpg,prac_patch/patch0002526.jpg,,,,,,,,,,,,,,,,,,,,,,,,,,,,,,,,,,,,,,,,,,,,,,,,,,,,,,,,,,,,
941810,001,2022-11-20_17h57.10.232,Info_measure_main_exp,2022.2.2,Win32,60.0240096,,,,,,,,,,,,,,,,,,,,,,,,,,,,,,,,,,,,,,,,,,,,,,,,,,,,,,,,,,,space,1.827,,,,,,,,,,,,,,,,,,,,,,,,,,,,,,,,,,,,,,,,,,,,,,,,,,,
941810,001,2022-11-20_17h57.10.232,Info_measure_main_exp,2022.2.2,Win32,60.0240096,,,,,,,,,,,,,,,,,,masks/mask_004.jpg,,,,,,,,,,,,,,,,,,,,,,,,,,,,,,,,,,,,,,,,,,,0,0,0,3,1,,,,,,,,,,,,,,,,,,,,,,,,,,,,,,,,,,,,,,,,,,,,,,
941810,001,2022-11-20_17h57.10.232,Info_measure_main_exp,2022.2.2,Win32,60.0240096,,,,,,,,,,,,,,,,,,masks/mask_001.jpg,,,,,,,,,,,,,,,,,,,,,,,,,,,,,,,,,,,,,,,,,,,0,1,1,0,1,,,,,,,,,,,,,,,,,,,,,,,,,,,,,,,,,,,,,,,,,,,,,,
941810,001,2022-11-20_17h57.10.232,Info_measure_main_exp,2022.2.2,Win32,60.0240096,,,,,,,,,,,,,,,,,,masks/mask_002.jpg,,,,,,,,,,,,,,,,,,,,,,,,,,,,,,,,,,,,,,,,,,,0,2,2,1,1,,,,,,,,,,,,,,,,,,,,,,,,,,,,,,,,,,,,,,,,,,,,,,
941810,001,2022-11-20_17h57.10.232,Info_measure_main_exp,2022.2.2,Win32,60.0240096,,,,,,,,,,,,,,,,,,masks/mask_003.jpg,,,,,,,,,,,,,,,,,,,,,,,,,,,,,,,,,,,,,,,,,,,0,3,3,2,1,,,,,,,,,,,,,,,,,,,,,,,,,,,,,,,,,,,,,,,,,,,,,,
941810,001,2022-11-20_17h57.10.232,Info_measure_main_exp,2022.2.2,Win32,60.0240096,,,,,,,,,,,,,,,,,,masks/mask_005.jpg,,,,,,,,,,,,,,,,,,,,,,,,,,,,,,,,,,,,,,,,,,,0,4,4,4,1,,,,,,,,,,,,,,,,,,,,,,,,,,,,,,,,,,,,,,,,,,,,,,
941810,001,2022-11-20_17h57.10.232,Info_measure_main_exp,2022.2.2,Win32,60.0240096,,,,,,,,,,,,,,,,,,masks/mask_004.jpg,,,,,,,,,,,,,,,,,,,,,,,,,,,,,,,,,,,,,,,,,,,,,,,,0,0,0,3,1,,,,,,,,,,,,,,,,,,,,,,,,,,,,,,,,,,,,,,,,,
941810,001,2022-11-20_17h57.10.232,Info_measure_main_exp,2022.2.2,Win32,60.0240096,,,,,,,,,,,,,,,,,,masks/mask_003.jpg,,,,,,,,,,,,,,,,,,,,,,,,,,,,,,,,,,,,,,,,,,,,,,,,0,1,1,2,1,,,,,,,,,,,,,,,,,,,,,,,,,,,,,,,,,,,,,,,,,
941810,001,2022-11-20_17h57.10.232,Info_measure_main_exp,2022.2.2,Win32,60.0240096,,,,,,,,,,,,,,,,,,masks/mask_001.jpg,,,,,,,,,,,,,,,,,,,,,,,,,,,,,,,,,,,,,,,,,,,,,,,,0,2,2,0,1,,,,,,,,,,,,,,,,,,,,,,,,,,,,,,,,,,,,,,,,,
941810,001,2022-11-20_17h57.10.232,Info_measure_main_exp,2022.2.2,Win32,60.0240096,,,,,,,,,,,,,,,,,,masks/mask_002.jpg,,,,,,,,,,,,,,,,,,,,,,,,,,,,,,,,,,,,,,,,,,,,,,,,0,3,3,1,1,,,,,,,,,,,,,,,,,,,,,,,,,,,,,,,,,,,,,,,,,
941810,001,2022-11-20_17h57.10.232,Info_measure_main_exp,2022.2.2,Win32,60.0240096,,,,,,,,,,,,,,,,,,masks/mask_005.jpg,,,,,,,,,,,,,,,,,,,,,,,,,,,,,,,,,,,,,,,,,,,,,,,,0,4,4,4,1,,,,,,,,,,,,,,,,,,,,,,,,,,,,,,,,,,,,,,,,,
941810,001,2022-11-20_17h57.10.232,Info_measure_main_exp,2022.2.2,Win32,60.0240096,,,,,,,,,,,,,,,,,,,,,,,,,,,,,,7,1.1,1,,,,,,,,,,,,0,131,5,5,1950,2238,absent_patch/patch0001950.jpg,absent_patch/patch0002238.jpg,,,,,,,,,,,,,,,,,,,,0.037037037,0.096064815,1,0,0,response1disk,1,0.001157407,0,1,0,0,center_square,0,0,0,8,1,,,,,,,,,,,,,,,,,,,,,,,
941810,001,2022-11-20_17h57.10.232,Info_measure_main_exp,2022.2.2,Win32,60.0240096,,,,,,,,,,,,,,,,,,masks/mask_002.jpg,,,,,,,,,,,,,,,,,,,,,,,,,,,,,,,,,,,,,,,,,,,0,0,0,1,1,,,,,,,,,,,,,,,,,,,,,,,,,,,,,,,,,,,,,,,,,,,,,,
941810,001,2022-11-20_17h57.10.232,Info_measure_main_exp,2022.2.2,Win32,60.0240096,,,,,,,,,,,,,,,,,,masks/mask_003.jpg,,,,,,,,,,,,,,,,,,,,,,,,,,,,,,,,,,,,,,,,,,,0,1,1,2,1,,,,,,,,,,,,,,,,,,,,,,,,,,,,,,,,,,,,,,,,,,,,,,
941810,001,2022-11-20_17h57.10.232,Info_measure_main_exp,2022.2.2,Win32,60.0240096,,,,,,,,,,,,,,,,,,masks/mask_001.jpg,,,,,,,,,,,,,,,,,,,,,,,,,,,,,,,,,,,,,,,,,,,0,2,2,0,1,,,,,,,,,,,,,,,,,,,,,,,,,,,,,,,,,,,,,,,,,,,,,,
941810,001,2022-11-20_17h57.10.232,Info_measure_main_exp,2022.2.2,Win32,60.0240096,,,,,,,,,,,,,,,,,,masks/mask_005.jpg,,,,,,,,,,,,,,,,,,,,,,,,,,,,,,,,,,,,,,,,,,,0,3,3,4,1,,,,,,,,,,,,,,,,,,,,,,,,,,,,,,,,,,,,,,,,,,,,,,
941810,001,2022-11-20_17h57.10.232,Info_measure_main_exp,2022.2.2,Win32,60.0240096,,,,,,,,,,,,,,,,,,masks/mask_004.jpg,,,,,,,,,,,,,,,,,,,,,,,,,,,,,,,,,,,,,,,,,,,0,4,4,3,1,,,,,,,,,,,,,,,,,,,,,,,,,,,,,,,,,,,,,,,,,,,,,,
941810,001,2022-11-20_17h57.10.232,Info_measure_main_exp,2022.2.2,Win32,60.0240096,,,,,,,,,,,,,,,,,,masks/mask_002.jpg,,,,,,,,,,,,,,,,,,,,,,,,,,,,,,,,,,,,,,,,,,,,,,,,0,0,0,1,1,,,,,,,,,,,,,,,,,,,,,,,,,,,,,,,,,,,,,,,,,
941810,001,2022-11-20_17h57.10.232,Info_measure_main_exp,2022.2.2,Win32,60.0240096,,,,,,,,,,,,,,,,,,masks/mask_001.jpg,,,,,,,,,,,,,,,,,,,,,,,,,,,,,,,,,,,,,,,,,,,,,,,,0,1,1,0,1,,,,,,,,,,,,,,,,,,,,,,,,,,,,,,,,,,,,,,,,,
941810,001,2022-11-20_17h57.10.232,Info_measure_main_exp,2022.2.2,Win32,60.0240096,,,,,,,,,,,,,,,,,,masks/mask_003.jpg,,,,,,,,,,,,,,,,,,,,,,,,,,,,,,,,,,,,,,,,,,,,,,,,0,2,2,2,1,,,,,,,,,,,,,,,,,,,,,,,,,,,,,,,,,,,,,,,,,
941810,001,2022-11-20_17h57.10.232,Info_measure_main_exp,2022.2.2,Win32,60.0240096,,,,,,,,,,,,,,,,,,masks/mask_005.jpg,,,,,,,,,,,,,,,,,,,,,,,,,,,,,,,,,,,,,,,,,,,,,,,,0,3,3,4,1,,,,,,,,,,,,,,,,,,,,,,,,,,,,,,,,,,,,,,,,,
941810,001,2022-11-20_17h57.10.232,Info_measure_main_exp,2022.2.2,Win32,60.0240096,,,,,,,,,,,,,,,,,,masks/mask_004.jpg,,,,,,,,,,,,,,,,,,,,,,,,,,,,,,,,,,,,,,,,,,,,,,,,0,4,4,3,1,,,,,,,,,,,,,,,,,,,,,,,,,,,,,,,,,,,,,,,,,
941810,001,2022-11-20_17h57.10.232,Info_measure_main_exp,2022.2.2,Win32,60.0240096,,,,,,,,,,,,,,,,,,,,,,,,,,,,,,7,0.767,1,,,,,,,,,,,,0,131,5,5,2250,2298,absent_patch/patch0002250.jpg,absent_patch/patch0002298.jpg,,,,,,,,,,,,,,,,,,,,0.048611111,0.108796296,1,0,0,response1disk,2,0.006944444,0.002314815,1,0,0,center_square,0,1,1,59,1,,,,,,,,,,,,,,,,,,,,,,,
941810,001,2022-11-20_17h57.10.232,Info_measure_main_exp,2022.2.2,Win32,60.0240096,,,,,,,,,,,,,,,,,,masks/mask_003.jpg,,,,,,,,,,,,,,,,,,,,,,,,,,,,,,,,,,,,,,,,,,,0,0,0,2,1,,,,,,,,,,,,,,,,,,,,,,,,,,,,,,,,,,,,,,,,,,,,,,
941810,001,2022-11-20_17h57.10.232,Info_measure_main_exp,2022.2.2,Win32,60.0240096,,,,,,,,,,,,,,,,,,masks/mask_005.jpg,,,,,,,,,,,,,,,,,,,,,,,,,,,,,,,,,,,,,,,,,,,0,1,1,4,1,,,,,,,,,,,,,,,,,,,,,,,,,,,,,,,,,,,,,,,,,,,,,,
941810,001,2022-11-20_17h57.10.232,Info_measure_main_exp,2022.2.2,Win32,60.0240096,,,,,,,,,,,,,,,,,,masks/mask_002.jpg,,,,,,,,,,,,,,,,,,,,,,,,,,,,,,,,,,,,,,,,,,,0,2,2,1,1,,,,,,,,,,,,,,,,,,,,,,,,,,,,,,,,,,,,,,,,,,,,,,
941810,001,2022-11-20_17h57.10.232,Info_measure_main_exp,2022.2.2,Win32,60.0240096,,,,,,,,,,,,,,,,,,masks/mask_004.jpg,,,,,,,,,,,,,,,,,,,,,,,,,,,,,,,,,,,,,,,,,,,0,3,3,3,1,,,,,,,,,,,,,,,,,,,,,,,,,,,,,,,,,,,,,,,,,,,,,,
941810,001,2022-11-20_17h57.10.232,Info_measure_main_exp,2022.2.2,Win32,60.0240096,,,,,,,,,,,,,,,,,,masks/mask_001.jpg,,,,,,,,,,,,,,,,,,,,,,,,,,,,,,,,,,,,,,,,,,,0,4,4,0,1,,,,,,,,,,,,,,,,,,,,,,,,,,,,,,,,,,,,,,,,,,,,,,
941810,001,2022-11-20_17h57.10.232,Info_measure_main_exp,2022.2.2,Win32,60.0240096,,,,,,,,,,,,,,,,,,masks/mask_001.jpg,,,,,,,,,,,,,,,,,,,,,,,,,,,,,,,,,,,,,,,,,,,,,,,,0,0,0,0,1,,,,,,,,,,,,,,,,,,,,,,,,,,,,,,,,,,,,,,,,,
941810,001,2022-11-20_17h57.10.232,Info_measure_main_exp,2022.2.2,Win32,60.0240096,,,,,,,,,,,,,,,,,,masks/mask_005.jpg,,,,,,,,,,,,,,,,,,,,,,,,,,,,,,,,,,,,,,,,,,,,,,,,0,1,1,4,1,,,,,,,,,,,,,,,,,,,,,,,,,,,,,,,,,,,,,,,,,
941810,001,2022-11-20_17h57.10.232,Info_measure_main_exp,2022.2.2,Win32,60.0240096,,,,,,,,,,,,,,,,,,masks/mask_003.jpg,,,,,,,,,,,,,,,,,,,,,,,,,,,,,,,,,,,,,,,,,,,,,,,,0,2,2,2,1,,,,,,,,,,,,,,,,,,,,,,,,,,,,,,,,,,,,,,,,,
941810,001,2022-11-20_17h57.10.232,Info_measure_main_exp,2022.2.2,Win32,60.0240096,,,,,,,,,,,,,,,,,,masks/mask_004.jpg,,,,,,,,,,,,,,,,,,,,,,,,,,,,,,,,,,,,,,,,,,,,,,,,0,3,3,3,1,,,,,,,,,,,,,,,,,,,,,,,,,,,,,,,,,,,,,,,,,
941810,001,2022-11-20_17h57.10.232,Info_measure_main_exp,2022.2.2,Win32,60.0240096,,,,,,,,,,,,,,,,,,masks/mask_002.jpg,,,,,,,,,,,,,,,,,,,,,,,,,,,,,,,,,,,,,,,,,,,,,,,,0,4,4,1,1,,,,,,,,,,,,,,,,,,,,,,,,,,,,,,,,,,,,,,,,,
941810,001,2022-11-20_17h57.10.232,Info_measure_main_exp,2022.2.2,Win32,60.0240096,,,,,,,,,,,,,,,,,,,,,,,,,,,,,,3,2.232,1,,,,,,,,,,,,0,131,5,5,1974,2178,absent_patch/patch0001974.jpg,absent_patch/patch0002178.jpg,,,,,,,,,,,,,,,,,,,,-0.06712963,-0.136574074,1,0,0,response5disk,3,0.008101852,0.001157407,1,0,0,center_square,0,2,2,44,1,,,,,,,,,,,,,,,,,,,,,,,
941810,001,2022-11-20_17h57.10.232,Info_measure_main_exp,2022.2.2,Win32,60.0240096,,,,,,,,,,,,,,,,,,masks/mask_005.jpg,,,,,,,,,,,,,,,,,,,,,,,,,,,,,,,,,,,,,,,,,,,0,0,0,4,1,,,,,,,,,,,,,,,,,,,,,,,,,,,,,,,,,,,,,,,,,,,,,,
941810,001,2022-11-20_17h57.10.232,Info_measure_main_exp,2022.2.2,Win32,60.0240096,,,,,,,,,,,,,,,,,,masks/mask_004.jpg,,,,,,,,,,,,,,,,,,,,,,,,,,,,,,,,,,,,,,,,,,,0,1,1,3,1,,,,,,,,,,,,,,,,,,,,,,,,,,,,,,,,,,,,,,,,,,,,,,
941810,001,2022-11-20_17h57.10.232,Info_measure_main_exp,2022.2.2,Win32,60.0240096,,,,,,,,,,,,,,,,,,masks/mask_001.jpg,,,,,,,,,,,,,,,,,,,,,,,,,,,,,,,,,,,,,,,,,,,0,2,2,0,1,,,,,,,,,,,,,,,,,,,,,,,,,,,,,,,,,,,,,,,,,,,,,,
941810,001,2022-11-20_17h57.10.232,Info_measure_main_exp,2022.2.2,Win32,60.0240096,,,,,,,,,,,,,,,,,,masks/mask_002.jpg,,,,,,,,,,,,,,,,,,,,,,,,,,,,,,,,,,,,,,,,,,,0,3,3,1,1,,,,,,,,,,,,,,,,,,,,,,,,,,,,,,,,,,,,,,,,,,,,,,
941810,001,2022-11-20_17h57.10.232,Info_measure_main_exp,2022.2.2,Win32,60.0240096,,,,,,,,,,,,,,,,,,masks/mask_003.jpg,,,,,,,,,,,,,,,,,,,,,,,,,,,,,,,,,,,,,,,,,,,0,4,4,2,1,,,,,,,,,,,,,,,,,,,,,,,,,,,,,,,,,,,,,,,,,,,,,,
941810,001,2022-11-20_17h57.10.232,Info_measure_main_exp,2022.2.2,Win32,60.0240096,,,,,,,,,,,,,,,,,,masks/mask_003.jpg,,,,,,,,,,,,,,,,,,,,,,,,,,,,,,,,,,,,,,,,,,,,,,,,0,0,0,2,1,,,,,,,,,,,,,,,,,,,,,,,,,,,,,,,,,,,,,,,,,
941810,001,2022-11-20_17h57.10.232,Info_measure_main_exp,2022.2.2,Win32,60.0240096,,,,,,,,,,,,,,,,,,masks/mask_004.jpg,,,,,,,,,,,,,,,,,,,,,,,,,,,,,,,,,,,,,,,,,,,,,,,,0,1,1,3,1,,,,,,,,,,,,,,,,,,,,,,,,,,,,,,,,,,,,,,,,,
941810,001,2022-11-20_17h57.10.232,Info_measure_main_exp,2022.2.2,Win32,60.0240096,,,,,,,,,,,,,,,,,,masks/mask_001.jpg,,,,,,,,,,,,,,,,,,,,,,,,,,,,,,,,,,,,,,,,,,,,,,,,0,2,2,0,1,,,,,,,,,,,,,,,,,,,,,,,,,,,,,,,,,,,,,,,,,
941810,001,2022-11-20_17h57.10.232,Info_measure_main_exp,2022.2.2,Win32,60.0240096,,,,,,,,,,,,,,,,,,masks/mask_002.jpg,,,,,,,,,,,,,,,,,,,,,,,,,,,,,,,,,,,,,,,,,,,,,,,,0,3,3,1,1,,,,,,,,,,,,,,,,,,,,,,,,,,,,,,,,,,,,,,,,,
941810,001,2022-11-20_17h57.10.232,Info_measure_main_exp,2022.2.2,Win32,60.0240096,,,,,,,,,,,,,,,,,,masks/mask_005.jpg,,,,,,,,,,,,,,,,,,,,,,,,,,,,,,,,,,,,,,,,,,,,,,,,0,4,4,4,1,,,,,,,,,,,,,,,,,,,,,,,,,,,,,,,,,,,,,,,,,
941810,001,2022-11-20_17h57.10.232,Info_measure_main_exp,2022.2.2,Win32,60.0240096,,,,,,,,,,,,,,,,,,,,,,,,,,,,,,7,0.9,1,,,,,,,,,,,,0,131,5,5,2178,2166,absent_patch/patch0002178.jpg,absent_patch/patch0002166.jpg,,,,,,,,,,,,,,,,,,,,0.05787037,0.150462963,1,0,0,response1disk,4,0.002314815,-0.003472222,1,0,0,center_square,0,3,3,72,1,,,,,,,,,,,,,,,,,,,,,,,
941810,001,2022-11-20_17h57.10.232,Info_measure_main_exp,2022.2.2,Win32,60.0240096,,,,,,,,,,,,,,,,,,masks/mask_001.jpg,,,,,,,,,,,,,,,,,,,,,,,,,,,,,,,,,,,,,,,,,,,0,0,0,0,1,,,,,,,,,,,,,,,,,,,,,,,,,,,,,,,,,,,,,,,,,,,,,,
941810,001,2022-11-20_17h57.10.232,Info_measure_main_exp,2022.2.2,Win32,60.0240096,,,,,,,,,,,,,,,,,,masks/mask_005.jpg,,,,,,,,,,,,,,,,,,,,,,,,,,,,,,,,,,,,,,,,,,,0,1,1,4,1,,,,,,,,,,,,,,,,,,,,,,,,,,,,,,,,,,,,,,,,,,,,,,
941810,001,2022-11-20_17h57.10.232,Info_measure_main_exp,2022.2.2,Win32,60.0240096,,,,,,,,,,,,,,,,,,masks/mask_002.jpg,,,,,,,,,,,,,,,,,,,,,,,,,,,,,,,,,,,,,,,,,,,0,2,2,1,1,,,,,,,,,,,,,,,,,,,,,,,,,,,,,,,,,,,,,,,,,,,,,,
941810,001,2022-11-20_17h57.10.232,Info_measure_main_exp,2022.2.2,Win32,60.0240096,,,,,,,,,,,,,,,,,,masks/mask_003.jpg,,,,,,,,,,,,,,,,,,,,,,,,,,,,,,,,,,,,,,,,,,,0,3,3,2,1,,,,,,,,,,,,,,,,,,,,,,,,,,,,,,,,,,,,,,,,,,,,,,
941810,001,2022-11-20_17h57.10.232,Info_measure_main_exp,2022.2.2,Win32,60.0240096,,,,,,,,,,,,,,,,,,masks/mask_004.jpg,,,,,,,,,,,,,,,,,,,,,,,,,,,,,,,,,,,,,,,,,,,0,4,4,3,1,,,,,,,,,,,,,,,,,,,,,,,,,,,,,,,,,,,,,,,,,,,,,,
941810,001,2022-11-20_17h57.10.232,Info_measure_main_exp,2022.2.2,Win32,60.0240096,,,,,,,,,,,,,,,,,,masks/mask_003.jpg,,,,,,,,,,,,,,,,,,,,,,,,,,,,,,,,,,,,,,,,,,,,,,,,0,0,0,2,1,,,,,,,,,,,,,,,,,,,,,,,,,,,,,,,,,,,,,,,,,
941810,001,2022-11-20_17h57.10.232,Info_measure_main_exp,2022.2.2,Win32,60.0240096,,,,,,,,,,,,,,,,,,masks/mask_001.jpg,,,,,,,,,,,,,,,,,,,,,,,,,,,,,,,,,,,,,,,,,,,,,,,,0,1,1,0,1,,,,,,,,,,,,,,,,,,,,,,,,,,,,,,,,,,,,,,,,,
941810,001,2022-11-20_17h57.10.232,Info_measure_main_exp,2022.2.2,Win32,60.0240096,,,,,,,,,,,,,,,,,,masks/mask_004.jpg,,,,,,,,,,,,,,,,,,,,,,,,,,,,,,,,,,,,,,,,,,,,,,,,0,2,2,3,1,,,,,,,,,,,,,,,,,,,,,,,,,,,,,,,,,,,,,,,,,
941810,001,2022-11-20_17h57.10.232,Info_measure_main_exp,2022.2.2,Win32,60.0240096,,,,,,,,,,,,,,,,,,masks/mask_002.jpg,,,,,,,,,,,,,,,,,,,,,,,,,,,,,,,,,,,,,,,,,,,,,,,,0,3,3,1,1,,,,,,,,,,,,,,,,,,,,,,,,,,,,,,,,,,,,,,,,,
941810,001,2022-11-20_17h57.10.232,Info_measure_main_exp,2022.2.2,Win32,60.0240096,,,,,,,,,,,,,,,,,,masks/mask_005.jpg,,,,,,,,,,,,,,,,,,,,,,,,,,,,,,,,,,,,,,,,,,,,,,,,0,4,4,4,1,,,,,,,,,,,,,,,,,,,,,,,,,,,,,,,,,,,,,,,,,
941810,001,2022-11-20_17h57.10.232,Info_measure_main_exp,2022.2.2,Win32,60.0240096,,,,,,,,,,,,,,,,,,,,,,,,,,,,,,7,1.45,1,,,,,,,,,,,,0,131,5,5,2166,2298,absent_patch/patch0002166.jpg,absent_patch/patch0002298.jpg,,,,,,,,,,,,,,,,,,,,0.045138889,0.164351852,1,0,0,response1disk,5,0.003472222,-0.008101852,1,0,0,center_square,0,4,4,52,1,,,,,,,,,,,,,,,,,,,,,,,
941810,001,2022-11-20_17h57.10.232,Info_measure_main_exp,2022.2.2,Win32,60.0240096,,,,,,,,,,,,,,,,,,masks/mask_004.jpg,,,,,,,,,,,,,,,,,,,,,,,,,,,,,,,,,,,,,,,,,,,0,0,0,3,1,,,,,,,,,,,,,,,,,,,,,,,,,,,,,,,,,,,,,,,,,,,,,,
941810,001,2022-11-20_17h57.10.232,Info_measure_main_exp,2022.2.2,Win32,60.0240096,,,,,,,,,,,,,,,,,,masks/mask_002.jpg,,,,,,,,,,,,,,,,,,,,,,,,,,,,,,,,,,,,,,,,,,,0,1,1,1,1,,,,,,,,,,,,,,,,,,,,,,,,,,,,,,,,,,,,,,,,,,,,,,
941810,001,2022-11-20_17h57.10.232,Info_measure_main_exp,2022.2.2,Win32,60.0240096,,,,,,,,,,,,,,,,,,masks/mask_001.jpg,,,,,,,,,,,,,,,,,,,,,,,,,,,,,,,,,,,,,,,,,,,0,2,2,0,1,,,,,,,,,,,,,,,,,,,,,,,,,,,,,,,,,,,,,,,,,,,,,,
941810,001,2022-11-20_17h57.10.232,Info_measure_main_exp,2022.2.2,Win32,60.0240096,,,,,,,,,,,,,,,,,,masks/mask_005.jpg,,,,,,,,,,,,,,,,,,,,,,,,,,,,,,,,,,,,,,,,,,,0,3,3,4,1,,,,,,,,,,,,,,,,,,,,,,,,,,,,,,,,,,,,,,,,,,,,,,
941810,001,2022-11-20_17h57.10.232,Info_measure_main_exp,2022.2.2,Win32,60.0240096,,,,,,,,,,,,,,,,,,masks/mask_003.jpg,,,,,,,,,,,,,,,,,,,,,,,,,,,,,,,,,,,,,,,,,,,0,4,4,2,1,,,,,,,,,,,,,,,,,,,,,,,,,,,,,,,,,,,,,,,,,,,,,,
941810,001,2022-11-20_17h57.10.232,Info_measure_main_exp,2022.2.2,Win32,60.0240096,,,,,,,,,,,,,,,,,,masks/mask_005.jpg,,,,,,,,,,,,,,,,,,,,,,,,,,,,,,,,,,,,,,,,,,,,,,,,0,0,0,4,1,,,,,,,,,,,,,,,,,,,,,,,,,,,,,,,,,,,,,,,,,
941810,001,2022-11-20_17h57.10.232,Info_measure_main_exp,2022.2.2,Win32,60.0240096,,,,,,,,,,,,,,,,,,masks/mask_004.jpg,,,,,,,,,,,,,,,,,,,,,,,,,,,,,,,,,,,,,,,,,,,,,,,,0,1,1,3,1,,,,,,,,,,,,,,,,,,,,,,,,,,,,,,,,,,,,,,,,,
941810,001,2022-11-20_17h57.10.232,Info_measure_main_exp,2022.2.2,Win32,60.0240096,,,,,,,,,,,,,,,,,,masks/mask_003.jpg,,,,,,,,,,,,,,,,,,,,,,,,,,,,,,,,,,,,,,,,,,,,,,,,0,2,2,2,1,,,,,,,,,,,,,,,,,,,,,,,,,,,,,,,,,,,,,,,,,
941810,001,2022-11-20_17h57.10.232,Info_measure_main_exp,2022.2.2,Win32,60.0240096,,,,,,,,,,,,,,,,,,masks/mask_001.jpg,,,,,,,,,,,,,,,,,,,,,,,,,,,,,,,,,,,,,,,,,,,,,,,,0,3,3,0,1,,,,,,,,,,,,,,,,,,,,,,,,,,,,,,,,,,,,,,,,,
941810,001,2022-11-20_17h57.10.232,Info_measure_main_exp,2022.2.2,Win32,60.0240096,,,,,,,,,,,,,,,,,,masks/mask_002.jpg,,,,,,,,,,,,,,,,,,,,,,,,,,,,,,,,,,,,,,,,,,,,,,,,0,4,4,1,1,,,,,,,,,,,,,,,,,,,,,,,,,,,,,,,,,,,,,,,,,
941810,001,2022-11-20_17h57.10.232,Info_measure_main_exp,2022.2.2,Win32,60.0240096,,,,,,,,,,,,,,,,,,,,,,,,,,,,,,7,0.849,1,,,,,,,,,,,,0,131,5,5,2250,2214,absent_patch/patch0002250.jpg,absent_patch/patch0002214.jpg,,,,,,,,,,,,,,,,,,,,0.056712963,0.143518519,1,0,0,response1disk,6,0,-0.006944444,1,0,0,center_square,0,5,5,97,1,,,,,,,,,,,,,,,,,,,,,,,
941810,001,2022-11-20_17h57.10.232,Info_measure_main_exp,2022.2.2,Win32,60.0240096,,,,,,,,,,,,,,,,,,masks/mask_005.jpg,,,,,,,,,,,,,,,,,,,,,,,,,,,,,,,,,,,,,,,,,,,0,0,0,4,1,,,,,,,,,,,,,,,,,,,,,,,,,,,,,,,,,,,,,,,,,,,,,,
941810,001,2022-11-20_17h57.10.232,Info_measure_main_exp,2022.2.2,Win32,60.0240096,,,,,,,,,,,,,,,,,,masks/mask_004.jpg,,,,,,,,,,,,,,,,,,,,,,,,,,,,,,,,,,,,,,,,,,,0,1,1,3,1,,,,,,,,,,,,,,,,,,,,,,,,,,,,,,,,,,,,,,,,,,,,,,
941810,001,2022-11-20_17h57.10.232,Info_measure_main_exp,2022.2.2,Win32,60.0240096,,,,,,,,,,,,,,,,,,masks/mask_003.jpg,,,,,,,,,,,,,,,,,,,,,,,,,,,,,,,,,,,,,,,,,,,0,2,2,2,1,,,,,,,,,,,,,,,,,,,,,,,,,,,,,,,,,,,,,,,,,,,,,,
941810,001,2022-11-20_17h57.10.232,Info_measure_main_exp,2022.2.2,Win32,60.0240096,,,,,,,,,,,,,,,,,,masks/mask_002.jpg,,,,,,,,,,,,,,,,,,,,,,,,,,,,,,,,,,,,,,,,,,,0,3,3,1,1,,,,,,,,,,,,,,,,,,,,,,,,,,,,,,,,,,,,,,,,,,,,,,
941810,001,2022-11-20_17h57.10.232,Info_measure_main_exp,2022.2.2,Win32,60.0240096,,,,,,,,,,,,,,,,,,masks/mask_001.jpg,,,,,,,,,,,,,,,,,,,,,,,,,,,,,,,,,,,,,,,,,,,0,4,4,0,1,,,,,,,,,,,,,,,,,,,,,,,,,,,,,,,,,,,,,,,,,,,,,,
941810,001,2022-11-20_17h57.10.232,Info_measure_main_exp,2022.2.2,Win32,60.0240096,,,,,,,,,,,,,,,,,,masks/mask_003.jpg,,,,,,,,,,,,,,,,,,,,,,,,,,,,,,,,,,,,,,,,,,,,,,,,0,0,0,2,1,,,,,,,,,,,,,,,,,,,,,,,,,,,,,,,,,,,,,,,,,
941810,001,2022-11-20_17h57.10.232,Info_measure_main_exp,2022.2.2,Win32,60.0240096,,,,,,,,,,,,,,,,,,masks/mask_005.jpg,,,,,,,,,,,,,,,,,,,,,,,,,,,,,,,,,,,,,,,,,,,,,,,,0,1,1,4,1,,,,,,,,,,,,,,,,,,,,,,,,,,,,,,,,,,,,,,,,,
941810,001,2022-11-20_17h57.10.232,Info_measure_main_exp,2022.2.2,Win32,60.0240096,,,,,,,,,,,,,,,,,,masks/mask_002.jpg,,,,,,,,,,,,,,,,,,,,,,,,,,,,,,,,,,,,,,,,,,,,,,,,0,2,2,1,1,,,,,,,,,,,,,,,,,,,,,,,,,,,,,,,,,,,,,,,,,
941810,001,2022-11-20_17h57.10.232,Info_measure_main_exp,2022.2.2,Win32,60.0240096,,,,,,,,,,,,,,,,,,masks/mask_004.jpg,,,,,,,,,,,,,,,,,,,,,,,,,,,,,,,,,,,,,,,,,,,,,,,,0,3,3,3,1,,,,,,,,,,,,,,,,,,,,,,,,,,,,,,,,,,,,,,,,,
941810,001,2022-11-20_17h57.10.232,Info_measure_main_exp,2022.2.2,Win32,60.0240096,,,,,,,,,,,,,,,,,,masks/mask_001.jpg,,,,,,,,,,,,,,,,,,,,,,,,,,,,,,,,,,,,,,,,,,,,,,,,0,4,4,0,1,,,,,,,,,,,,,,,,,,,,,,,,,,,,,,,,,,,,,,,,,
941810,001,2022-11-20_17h57.10.232,Info_measure_main_exp,2022.2.2,Win32,60.0240096,,,,,,,,,,,,,,,,,,,,,,,,,,,,,,7,0.749,1,,,,,,,,,,,,0,131,5,5,2142,2238,absent_patch/patch0002142.jpg,absent_patch/patch0002238.jpg,,,,,,,,,,,,,,,,,,,,0.048611111,0.150462963,1,0,0,response1disk,7,0.002314815,0.001157407,1,0,0,center_square,0,6,6,101,1,,,,,,,,,,,,,,,,,,,,,,,
941810,001,2022-11-20_17h57.10.232,Info_measure_main_exp,2022.2.2,Win32,60.0240096,,,,,,,,,,,,,,,,,,masks/mask_004.jpg,,,,,,,,,,,,,,,,,,,,,,,,,,,,,,,,,,,,,,,,,,,0,0,0,3,1,,,,,,,,,,,,,,,,,,,,,,,,,,,,,,,,,,,,,,,,,,,,,,
941810,001,2022-11-20_17h57.10.232,Info_measure_main_exp,2022.2.2,Win32,60.0240096,,,,,,,,,,,,,,,,,,masks/mask_003.jpg,,,,,,,,,,,,,,,,,,,,,,,,,,,,,,,,,,,,,,,,,,,0,1,1,2,1,,,,,,,,,,,,,,,,,,,,,,,,,,,,,,,,,,,,,,,,,,,,,,
941810,001,2022-11-20_17h57.10.232,Info_measure_main_exp,2022.2.2,Win32,60.0240096,,,,,,,,,,,,,,,,,,masks/mask_002.jpg,,,,,,,,,,,,,,,,,,,,,,,,,,,,,,,,,,,,,,,,,,,0,2,2,1,1,,,,,,,,,,,,,,,,,,,,,,,,,,,,,,,,,,,,,,,,,,,,,,
941810,001,2022-11-20_17h57.10.232,Info_measure_main_exp,2022.2.2,Win32,60.0240096,,,,,,,,,,,,,,,,,,masks/mask_001.jpg,,,,,,,,,,,,,,,,,,,,,,,,,,,,,,,,,,,,,,,,,,,0,3,3,0,1,,,,,,,,,,,,,,,,,,,,,,,,,,,,,,,,,,,,,,,,,,,,,,
941810,001,2022-11-20_17h57.10.232,Info_measure_main_exp,2022.2.2,Win32,60.0240096,,,,,,,,,,,,,,,,,,masks/mask_005.jpg,,,,,,,,,,,,,,,,,,,,,,,,,,,,,,,,,,,,,,,,,,,0,4,4,4,1,,,,,,,,,,,,,,,,,,,,,,,,,,,,,,,,,,,,,,,,,,,,,,
941810,001,2022-11-20_17h57.10.232,Info_measure_main_exp,2022.2.2,Win32,60.0240096,,,,,,,,,,,,,,,,,,masks/mask_005.jpg,,,,,,,,,,,,,,,,,,,,,,,,,,,,,,,,,,,,,,,,,,,,,,,,0,0,0,4,1,,,,,,,,,,,,,,,,,,,,,,,,,,,,,,,,,,,,,,,,,
941810,001,2022-11-20_17h57.10.232,Info_measure_main_exp,2022.2.2,Win32,60.0240096,,,,,,,,,,,,,,,,,,masks/mask_003.jpg,,,,,,,,,,,,,,,,,,,,,,,,,,,,,,,,,,,,,,,,,,,,,,,,0,1,1,2,1,,,,,,,,,,,,,,,,,,,,,,,,,,,,,,,,,,,,,,,,,
941810,001,2022-11-20_17h57.10.232,Info_measure_main_exp,2022.2.2,Win32,60.0240096,,,,,,,,,,,,,,,,,,masks/mask_002.jpg,,,,,,,,,,,,,,,,,,,,,,,,,,,,,,,,,,,,,,,,,,,,,,,,0,2,2,1,1,,,,,,,,,,,,,,,,,,,,,,,,,,,,,,,,,,,,,,,,,
941810,001,2022-11-20_17h57.10.232,Info_measure_main_exp,2022.2.2,Win32,60.0240096,,,,,,,,,,,,,,,,,,masks/mask_004.jpg,,,,,,,,,,,,,,,,,,,,,,,,,,,,,,,,,,,,,,,,,,,,,,,,0,3,3,3,1,,,,,,,,,,,,,,,,,,,,,,,,,,,,,,,,,,,,,,,,,
941810,001,2022-11-20_17h57.10.232,Info_measure_main_exp,2022.2.2,Win32,60.0240096,,,,,,,,,,,,,,,,,,masks/mask_001.jpg,,,,,,,,,,,,,,,,,,,,,,,,,,,,,,,,,,,,,,,,,,,,,,,,0,4,4,0,1,,,,,,,,,,,,,,,,,,,,,,,,,,,,,,,,,,,,,,,,,
941810,001,2022-11-20_17h57.10.232,Info_measure_main_exp,2022.2.2,Win32,60.0240096,,,,,,,,,,,,,,,,,,,,,,,,,,,,,,7,0.883,1,,,,,,,,,,,,0,131,5,5,2274,1974,absent_patch/patch0002274.jpg,absent_patch/patch0001974.jpg,,,,,,,,,,,,,,,,,,,,0.048611111,0.125,1,0,0,response1disk,8,0.008101852,-0.002314815,1,0,0,center_square,0,7,7,90,1,,,,,,,,,,,,,,,,,,,,,,,
941810,001,2022-11-20_17h57.10.232,Info_measure_main_exp,2022.2.2,Win32,60.0240096,,,,,,,,,,,,,,,,,,masks/mask_005.jpg,,,,,,,,,,,,,,,,,,,,,,,,,,,,,,,,,,,,,,,,,,,0,0,0,4,1,,,,,,,,,,,,,,,,,,,,,,,,,,,,,,,,,,,,,,,,,,,,,,
941810,001,2022-11-20_17h57.10.232,Info_measure_main_exp,2022.2.2,Win32,60.0240096,,,,,,,,,,,,,,,,,,masks/mask_002.jpg,,,,,,,,,,,,,,,,,,,,,,,,,,,,,,,,,,,,,,,,,,,0,1,1,1,1,,,,,,,,,,,,,,,,,,,,,,,,,,,,,,,,,,,,,,,,,,,,,,
941810,001,2022-11-20_17h57.10.232,Info_measure_main_exp,2022.2.2,Win32,60.0240096,,,,,,,,,,,,,,,,,,masks/mask_001.jpg,,,,,,,,,,,,,,,,,,,,,,,,,,,,,,,,,,,,,,,,,,,0,2,2,0,1,,,,,,,,,,,,,,,,,,,,,,,,,,,,,,,,,,,,,,,,,,,,,,
941810,001,2022-11-20_17h57.10.232,Info_measure_main_exp,2022.2.2,Win32,60.0240096,,,,,,,,,,,,,,,,,,masks/mask_004.jpg,,,,,,,,,,,,,,,,,,,,,,,,,,,,,,,,,,,,,,,,,,,0,3,3,3,1,,,,,,,,,,,,,,,,,,,,,,,,,,,,,,,,,,,,,,,,,,,,,,
941810,001,2022-11-20_17h57.10.232,Info_measure_main_exp,2022.2.2,Win32,60.0240096,,,,,,,,,,,,,,,,,,masks/mask_003.jpg,,,,,,,,,,,,,,,,,,,,,,,,,,,,,,,,,,,,,,,,,,,0,4,4,2,1,,,,,,,,,,,,,,,,,,,,,,,,,,,,,,,,,,,,,,,,,,,,,,
941810,001,2022-11-20_17h57.10.232,Info_measure_main_exp,2022.2.2,Win32,60.0240096,,,,,,,,,,,,,,,,,,masks/mask_003.jpg,,,,,,,,,,,,,,,,,,,,,,,,,,,,,,,,,,,,,,,,,,,,,,,,0,0,0,2,1,,,,,,,,,,,,,,,,,,,,,,,,,,,,,,,,,,,,,,,,,
941810,001,2022-11-20_17h57.10.232,Info_measure_main_exp,2022.2.2,Win32,60.0240096,,,,,,,,,,,,,,,,,,masks/mask_004.jpg,,,,,,,,,,,,,,,,,,,,,,,,,,,,,,,,,,,,,,,,,,,,,,,,0,1,1,3,1,,,,,,,,,,,,,,,,,,,,,,,,,,,,,,,,,,,,,,,,,
941810,001,2022-11-20_17h57.10.232,Info_measure_main_exp,2022.2.2,Win32,60.0240096,,,,,,,,,,,,,,,,,,masks/mask_002.jpg,,,,,,,,,,,,,,,,,,,,,,,,,,,,,,,,,,,,,,,,,,,,,,,,0,2,2,1,1,,,,,,,,,,,,,,,,,,,,,,,,,,,,,,,,,,,,,,,,,
941810,001,2022-11-20_17h57.10.232,Info_measure_main_exp,2022.2.2,Win32,60.0240096,,,,,,,,,,,,,,,,,,masks/mask_005.jpg,,,,,,,,,,,,,,,,,,,,,,,,,,,,,,,,,,,,,,,,,,,,,,,,0,3,3,4,1,,,,,,,,,,,,,,,,,,,,,,,,,,,,,,,,,,,,,,,,,
941810,001,2022-11-20_17h57.10.232,Info_measure_main_exp,2022.2.2,Win32,60.0240096,,,,,,,,,,,,,,,,,,masks/mask_001.jpg,,,,,,,,,,,,,,,,,,,,,,,,,,,,,,,,,,,,,,,,,,,,,,,,0,4,4,0,1,,,,,,,,,,,,,,,,,,,,,,,,,,,,,,,,,,,,,,,,,
941810,001,2022-11-20_17h57.10.232,Info_measure_main_exp,2022.2.2,Win32,60.0240096,,,,,,,,,,,,,,,,,,,,,,,,,,,,,,7,1.217,1,,,,,,,,,,,,0,131,5,5,2082,2178,absent_patch/patch0002082.jpg,absent_patch/patch0002178.jpg,,,,,,,,,,,,,,,,,,,,0.053240741,0.159722222,1,0,0,response1disk,9,0.005787037,0.013888889,1,0,0,center_square,0,8,8,2,1,,,,,,,,,,,,,,,,,,,,,,,
941810,001,2022-11-20_17h57.10.232,Info_measure_main_exp,2022.2.2,Win32,60.0240096,,,,,,,,,,,,,,,,,,masks/mask_004.jpg,,,,,,,,,,,,,,,,,,,,,,,,,,,,,,,,,,,,,,,,,,,0,0,0,3,1,,,,,,,,,,,,,,,,,,,,,,,,,,,,,,,,,,,,,,,,,,,,,,
941810,001,2022-11-20_17h57.10.232,Info_measure_main_exp,2022.2.2,Win32,60.0240096,,,,,,,,,,,,,,,,,,masks/mask_001.jpg,,,,,,,,,,,,,,,,,,,,,,,,,,,,,,,,,,,,,,,,,,,0,1,1,0,1,,,,,,,,,,,,,,,,,,,,,,,,,,,,,,,,,,,,,,,,,,,,,,
941810,001,2022-11-20_17h57.10.232,Info_measure_main_exp,2022.2.2,Win32,60.0240096,,,,,,,,,,,,,,,,,,masks/mask_003.jpg,,,,,,,,,,,,,,,,,,,,,,,,,,,,,,,,,,,,,,,,,,,0,2,2,2,1,,,,,,,,,,,,,,,,,,,,,,,,,,,,,,,,,,,,,,,,,,,,,,
941810,001,2022-11-20_17h57.10.232,Info_measure_main_exp,2022.2.2,Win32,60.0240096,,,,,,,,,,,,,,,,,,masks/mask_002.jpg,,,,,,,,,,,,,,,,,,,,,,,,,,,,,,,,,,,,,,,,,,,0,3,3,1,1,,,,,,,,,,,,,,,,,,,,,,,,,,,,,,,,,,,,,,,,,,,,,,
941810,001,2022-11-20_17h57.10.232,Info_measure_main_exp,2022.2.2,Win32,60.0240096,,,,,,,,,,,,,,,,,,masks/mask_005.jpg,,,,,,,,,,,,,,,,,,,,,,,,,,,,,,,,,,,,,,,,,,,0,4,4,4,1,,,,,,,,,,,,,,,,,,,,,,,,,,,,,,,,,,,,,,,,,,,,,,
941810,001,2022-11-20_17h57.10.232,Info_measure_main_exp,2022.2.2,Win32,60.0240096,,,,,,,,,,,,,,,,,,masks/mask_005.jpg,,,,,,,,,,,,,,,,,,,,,,,,,,,,,,,,,,,,,,,,,,,,,,,,0,0,0,4,1,,,,,,,,,,,,,,,,,,,,,,,,,,,,,,,,,,,,,,,,,
941810,001,2022-11-20_17h57.10.232,Info_measure_main_exp,2022.2.2,Win32,60.0240096,,,,,,,,,,,,,,,,,,masks/mask_003.jpg,,,,,,,,,,,,,,,,,,,,,,,,,,,,,,,,,,,,,,,,,,,,,,,,0,1,1,2,1,,,,,,,,,,,,,,,,,,,,,,,,,,,,,,,,,,,,,,,,,
941810,001,2022-11-20_17h57.10.232,Info_measure_main_exp,2022.2.2,Win32,60.0240096,,,,,,,,,,,,,,,,,,masks/mask_001.jpg,,,,,,,,,,,,,,,,,,,,,,,,,,,,,,,,,,,,,,,,,,,,,,,,0,2,2,0,1,,,,,,,,,,,,,,,,,,,,,,,,,,,,,,,,,,,,,,,,,
941810,001,2022-11-20_17h57.10.232,Info_measure_main_exp,2022.2.2,Win32,60.0240096,,,,,,,,,,,,,,,,,,masks/mask_004.jpg,,,,,,,,,,,,,,,,,,,,,,,,,,,,,,,,,,,,,,,,,,,,,,,,0,3,3,3,1,,,,,,,,,,,,,,,,,,,,,,,,,,,,,,,,,,,,,,,,,
941810,001,2022-11-20_17h57.10.232,Info_measure_main_exp,2022.2.2,Win32,60.0240096,,,,,,,,,,,,,,,,,,masks/mask_002.jpg,,,,,,,,,,,,,,,,,,,,,,,,,,,,,,,,,,,,,,,,,,,,,,,,0,4,4,1,1,,,,,,,,,,,,,,,,,,,,,,,,,,,,,,,,,,,,,,,,,
941810,001,2022-11-20_17h57.10.232,Info_measure_main_exp,2022.2.2,Win32,60.0240096,,,,,,,,,,,,,,,,,,,,,,,,,,,,,,4,3.765,1,,,,,,,,,,,,0,131,5,5,2274,2154,absent_patch/patch0002274.jpg,absent_patch/patch0002154.jpg,,,,,,,,,,,,,,,,,,,,0.043981481,-0.138888889,1,0,0,response3disk,10,0.001157407,-0.006944444,1,0,0,center_square,0,9,9,23,1,,,,,,,,,,,,,,,,,,,,,,,
941810,001,2022-11-20_17h57.10.232,Info_measure_main_exp,2022.2.2,Win32,60.0240096,,,,,,,,,,,,,,,,,,masks/mask_002.jpg,,,,,,,,,,,,,,,,,,,,,,,,,,,,,,,,,,,,,,,,,,,0,0,0,1,1,,,,,,,,,,,,,,,,,,,,,,,,,,,,,,,,,,,,,,,,,,,,,,
941810,001,2022-11-20_17h57.10.232,Info_measure_main_exp,2022.2.2,Win32,60.0240096,,,,,,,,,,,,,,,,,,masks/mask_005.jpg,,,,,,,,,,,,,,,,,,,,,,,,,,,,,,,,,,,,,,,,,,,0,1,1,4,1,,,,,,,,,,,,,,,,,,,,,,,,,,,,,,,,,,,,,,,,,,,,,,
941810,001,2022-11-20_17h57.10.232,Info_measure_main_exp,2022.2.2,Win32,60.0240096,,,,,,,,,,,,,,,,,,masks/mask_003.jpg,,,,,,,,,,,,,,,,,,,,,,,,,,,,,,,,,,,,,,,,,,,0,2,2,2,1,,,,,,,,,,,,,,,,,,,,,,,,,,,,,,,,,,,,,,,,,,,,,,
941810,001,2022-11-20_17h57.10.232,Info_measure_main_exp,2022.2.2,Win32,60.0240096,,,,,,,,,,,,,,,,,,masks/mask_004.jpg,,,,,,,,,,,,,,,,,,,,,,,,,,,,,,,,,,,,,,,,,,,0,3,3,3,1,,,,,,,,,,,,,,,,,,,,,,,,,,,,,,,,,,,,,,,,,,,,,,
941810,001,2022-11-20_17h57.10.232,Info_measure_main_exp,2022.2.2,Win32,60.0240096,,,,,,,,,,,,,,,,,,masks/mask_001.jpg,,,,,,,,,,,,,,,,,,,,,,,,,,,,,,,,,,,,,,,,,,,0,4,4,0,1,,,,,,,,,,,,,,,,,,,,,,,,,,,,,,,,,,,,,,,,,,,,,,
941810,001,2022-11-20_17h57.10.232,Info_measure_main_exp,2022.2.2,Win32,60.0240096,,,,,,,,,,,,,,,,,,masks/mask_003.jpg,,,,,,,,,,,,,,,,,,,,,,,,,,,,,,,,,,,,,,,,,,,,,,,,0,0,0,2,1,,,,,,,,,,,,,,,,,,,,,,,,,,,,,,,,,,,,,,,,,
941810,001,2022-11-20_17h57.10.232,Info_measure_main_exp,2022.2.2,Win32,60.0240096,,,,,,,,,,,,,,,,,,masks/mask_004.jpg,,,,,,,,,,,,,,,,,,,,,,,,,,,,,,,,,,,,,,,,,,,,,,,,0,1,1,3,1,,,,,,,,,,,,,,,,,,,,,,,,,,,,,,,,,,,,,,,,,
941810,001,2022-11-20_17h57.10.232,Info_measure_main_exp,2022.2.2,Win32,60.0240096,,,,,,,,,,,,,,,,,,masks/mask_005.jpg,,,,,,,,,,,,,,,,,,,,,,,,,,,,,,,,,,,,,,,,,,,,,,,,0,2,2,4,1,,,,,,,,,,,,,,,,,,,,,,,,,,,,,,,,,,,,,,,,,
941810,001,2022-11-20_17h57.10.232,Info_measure_main_exp,2022.2.2,Win32,60.0240096,,,,,,,,,,,,,,,,,,masks/mask_002.jpg,,,,,,,,,,,,,,,,,,,,,,,,,,,,,,,,,,,,,,,,,,,,,,,,0,3,3,1,1,,,,,,,,,,,,,,,,,,,,,,,,,,,,,,,,,,,,,,,,,
941810,001,2022-11-20_17h57.10.232,Info_measure_main_exp,2022.2.2,Win32,60.0240096,,,,,,,,,,,,,,,,,,masks/mask_001.jpg,,,,,,,,,,,,,,,,,,,,,,,,,,,,,,,,,,,,,,,,,,,,,,,,0,4,4,0,1,,,,,,,,,,,,,,,,,,,,,,,,,,,,,,,,,,,,,,,,,
941810,001,2022-11-20_17h57.10.232,Info_measure_main_exp,2022.2.2,Win32,60.0240096,,,,,,,,,,,,,,,,,,,,,,,,,,,,,,7,0.849,1,,,,,,,,,,,,0,131,5,5,1986,2238,absent_patch/patch0001986.jpg,absent_patch/patch0002238.jpg,,,,,,,,,,,,,,,,,,,,0.081018519,0.133101852,1,0,0,response1disk,11,0.015046296,0.005787037,1,0,0,center_square,0,10,10,31,1,,,,,,,,,,,,,,,,,,,,,,,
941810,001,2022-11-20_17h57.10.232,Info_measure_main_exp,2022.2.2,Win32,60.0240096,,,,,,,,,,,,,,,,,,masks/mask_001.jpg,,,,,,,,,,,,,,,,,,,,,,,,,,,,,,,,,,,,,,,,,,,0,0,0,0,1,,,,,,,,,,,,,,,,,,,,,,,,,,,,,,,,,,,,,,,,,,,,,,
941810,001,2022-11-20_17h57.10.232,Info_measure_main_exp,2022.2.2,Win32,60.0240096,,,,,,,,,,,,,,,,,,masks/mask_005.jpg,,,,,,,,,,,,,,,,,,,,,,,,,,,,,,,,,,,,,,,,,,,0,1,1,4,1,,,,,,,,,,,,,,,,,,,,,,,,,,,,,,,,,,,,,,,,,,,,,,
941810,001,2022-11-20_17h57.10.232,Info_measure_main_exp,2022.2.2,Win32,60.0240096,,,,,,,,,,,,,,,,,,masks/mask_003.jpg,,,,,,,,,,,,,,,,,,,,,,,,,,,,,,,,,,,,,,,,,,,0,2,2,2,1,,,,,,,,,,,,,,,,,,,,,,,,,,,,,,,,,,,,,,,,,,,,,,
941810,001,2022-11-20_17h57.10.232,Info_measure_main_exp,2022.2.2,Win32,60.0240096,,,,,,,,,,,,,,,,,,masks/mask_002.jpg,,,,,,,,,,,,,,,,,,,,,,,,,,,,,,,,,,,,,,,,,,,0,3,3,1,1,,,,,,,,,,,,,,,,,,,,,,,,,,,,,,,,,,,,,,,,,,,,,,
941810,001,2022-11-20_17h57.10.232,Info_measure_main_exp,2022.2.2,Win32,60.0240096,,,,,,,,,,,,,,,,,,masks/mask_004.jpg,,,,,,,,,,,,,,,,,,,,,,,,,,,,,,,,,,,,,,,,,,,0,4,4,3,1,,,,,,,,,,,,,,,,,,,,,,,,,,,,,,,,,,,,,,,,,,,,,,
941810,001,2022-11-20_17h57.10.232,Info_measure_main_exp,2022.2.2,Win32,60.0240096,,,,,,,,,,,,,,,,,,masks/mask_001.jpg,,,,,,,,,,,,,,,,,,,,,,,,,,,,,,,,,,,,,,,,,,,,,,,,0,0,0,0,1,,,,,,,,,,,,,,,,,,,,,,,,,,,,,,,,,,,,,,,,,
941810,001,2022-11-20_17h57.10.232,Info_measure_main_exp,2022.2.2,Win32,60.0240096,,,,,,,,,,,,,,,,,,masks/mask_004.jpg,,,,,,,,,,,,,,,,,,,,,,,,,,,,,,,,,,,,,,,,,,,,,,,,0,1,1,3,1,,,,,,,,,,,,,,,,,,,,,,,,,,,,,,,,,,,,,,,,,
941810,001,2022-11-20_17h57.10.232,Info_measure_main_exp,2022.2.2,Win32,60.0240096,,,,,,,,,,,,,,,,,,masks/mask_005.jpg,,,,,,,,,,,,,,,,,,,,,,,,,,,,,,,,,,,,,,,,,,,,,,,,0,2,2,4,1,,,,,,,,,,,,,,,,,,,,,,,,,,,,,,,,,,,,,,,,,
941810,001,2022-11-20_17h57.10.232,Info_measure_main_exp,2022.2.2,Win32,60.0240096,,,,,,,,,,,,,,,,,,masks/mask_003.jpg,,,,,,,,,,,,,,,,,,,,,,,,,,,,,,,,,,,,,,,,,,,,,,,,0,3,3,2,1,,,,,,,,,,,,,,,,,,,,,,,,,,,,,,,,,,,,,,,,,
941810,001,2022-11-20_17h57.10.232,Info_measure_main_exp,2022.2.2,Win32,60.0240096,,,,,,,,,,,,,,,,,,masks/mask_002.jpg,,,,,,,,,,,,,,,,,,,,,,,,,,,,,,,,,,,,,,,,,,,,,,,,0,4,4,1,1,,,,,,,,,,,,,,,,,,,,,,,,,,,,,,,,,,,,,,,,,
941810,001,2022-11-20_17h57.10.232,Info_measure_main_exp,2022.2.2,Win32,60.0240096,,,,,,,,,,,,,,,,,,,,,,,,,,,,,,2,2.149,1,,,,,,,,,,,,0,131,5,5,2190,2178,absent_patch/patch0002190.jpg,absent_patch/patch0002178.jpg,,,,,,,,,,,,,,,,,,,,-0.136574074,-0.041666667,1,0,0,response5disk,12,0.002314815,0.00462963,1,0,0,center_square,0,11,11,14,1,,,,,,,,,,,,,,,,,,,,,,,
941810,001,2022-11-20_17h57.10.232,Info_measure_main_exp,2022.2.2,Win32,60.0240096,,,,,,,,,,,,,,,,,,masks/mask_001.jpg,,,,,,,,,,,,,,,,,,,,,,,,,,,,,,,,,,,,,,,,,,,0,0,0,0,1,,,,,,,,,,,,,,,,,,,,,,,,,,,,,,,,,,,,,,,,,,,,,,
941810,001,2022-11-20_17h57.10.232,Info_measure_main_exp,2022.2.2,Win32,60.0240096,,,,,,,,,,,,,,,,,,masks/mask_003.jpg,,,,,,,,,,,,,,,,,,,,,,,,,,,,,,,,,,,,,,,,,,,0,1,1,2,1,,,,,,,,,,,,,,,,,,,,,,,,,,,,,,,,,,,,,,,,,,,,,,
941810,001,2022-11-20_17h57.10.232,Info_measure_main_exp,2022.2.2,Win32,60.0240096,,,,,,,,,,,,,,,,,,masks/mask_005.jpg,,,,,,,,,,,,,,,,,,,,,,,,,,,,,,,,,,,,,,,,,,,0,2,2,4,1,,,,,,,,,,,,,,,,,,,,,,,,,,,,,,,,,,,,,,,,,,,,,,
941810,001,2022-11-20_17h57.10.232,Info_measure_main_exp,2022.2.2,Win32,60.0240096,,,,,,,,,,,,,,,,,,masks/mask_002.jpg,,,,,,,,,,,,,,,,,,,,,,,,,,,,,,,,,,,,,,,,,,,0,3,3,1,1,,,,,,,,,,,,,,,,,,,,,,,,,,,,,,,,,,,,,,,,,,,,,,
941810,001,2022-11-20_17h57.10.232,Info_measure_main_exp,2022.2.2,Win32,60.0240096,,,,,,,,,,,,,,,,,,masks/mask_004.jpg,,,,,,,,,,,,,,,,,,,,,,,,,,,,,,,,,,,,,,,,,,,0,4,4,3,1,,,,,,,,,,,,,,,,,,,,,,,,,,,,,,,,,,,,,,,,,,,,,,
941810,001,2022-11-20_17h57.10.232,Info_measure_main_exp,2022.2.2,Win32,60.0240096,,,,,,,,,,,,,,,,,,masks/mask_001.jpg,,,,,,,,,,,,,,,,,,,,,,,,,,,,,,,,,,,,,,,,,,,,,,,,0,0,0,0,1,,,,,,,,,,,,,,,,,,,,,,,,,,,,,,,,,,,,,,,,,
941810,001,2022-11-20_17h57.10.232,Info_measure_main_exp,2022.2.2,Win32,60.0240096,,,,,,,,,,,,,,,,,,masks/mask_004.jpg,,,,,,,,,,,,,,,,,,,,,,,,,,,,,,,,,,,,,,,,,,,,,,,,0,1,1,3,1,,,,,,,,,,,,,,,,,,,,,,,,,,,,,,,,,,,,,,,,,
941810,001,2022-11-20_17h57.10.232,Info_measure_main_exp,2022.2.2,Win32,60.0240096,,,,,,,,,,,,,,,,,,masks/mask_003.jpg,,,,,,,,,,,,,,,,,,,,,,,,,,,,,,,,,,,,,,,,,,,,,,,,0,2,2,2,1,,,,,,,,,,,,,,,,,,,,,,,,,,,,,,,,,,,,,,,,,
941810,001,2022-11-20_17h57.10.232,Info_measure_main_exp,2022.2.2,Win32,60.0240096,,,,,,,,,,,,,,,,,,masks/mask_005.jpg,,,,,,,,,,,,,,,,,,,,,,,,,,,,,,,,,,,,,,,,,,,,,,,,0,3,3,4,1,,,,,,,,,,,,,,,,,,,,,,,,,,,,,,,,,,,,,,,,,
941810,001,2022-11-20_17h57.10.232,Info_measure_main_exp,2022.2.2,Win32,60.0240096,,,,,,,,,,,,,,,,,,masks/mask_002.jpg,,,,,,,,,,,,,,,,,,,,,,,,,,,,,,,,,,,,,,,,,,,,,,,,0,4,4,1,1,,,,,,,,,,,,,,,,,,,,,,,,,,,,,,,,,,,,,,,,,
941810,001,2022-11-20_17h57.10.232,Info_measure_main_exp,2022.2.2,Win32,60.0240096,,,,,,,,,,,,,,,,,,,,,,,,,,,,,,0,1.183,1,,,,,,,,,,,,0,131,5,5,2082,2082,absent_patch/patch0002082.jpg,absent_patch/patch0002082.jpg,,,,,,,,,,,,,,,,,,,,-0.059027778,0.164351852,1,0,0,response7disk,13,-0.00462963,0.009259259,1,0,0,center_square,0,12,12,74,1,,,,,,,,,,,,,,,,,,,,,,,
941810,001,2022-11-20_17h57.10.232,Info_measure_main_exp,2022.2.2,Win32,60.0240096,,,,,,,,,,,,,,,,,,masks/mask_003.jpg,,,,,,,,,,,,,,,,,,,,,,,,,,,,,,,,,,,,,,,,,,,0,0,0,2,1,,,,,,,,,,,,,,,,,,,,,,,,,,,,,,,,,,,,,,,,,,,,,,
941810,001,2022-11-20_17h57.10.232,Info_measure_main_exp,2022.2.2,Win32,60.0240096,,,,,,,,,,,,,,,,,,masks/mask_002.jpg,,,,,,,,,,,,,,,,,,,,,,,,,,,,,,,,,,,,,,,,,,,0,1,1,1,1,,,,,,,,,,,,,,,,,,,,,,,,,,,,,,,,,,,,,,,,,,,,,,
941810,001,2022-11-20_17h57.10.232,Info_measure_main_exp,2022.2.2,Win32,60.0240096,,,,,,,,,,,,,,,,,,masks/mask_004.jpg,,,,,,,,,,,,,,,,,,,,,,,,,,,,,,,,,,,,,,,,,,,0,2,2,3,1,,,,,,,,,,,,,,,,,,,,,,,,,,,,,,,,,,,,,,,,,,,,,,
941810,001,2022-11-20_17h57.10.232,Info_measure_main_exp,2022.2.2,Win32,60.0240096,,,,,,,,,,,,,,,,,,masks/mask_005.jpg,,,,,,,,,,,,,,,,,,,,,,,,,,,,,,,,,,,,,,,,,,,0,3,3,4,1,,,,,,,,,,,,,,,,,,,,,,,,,,,,,,,,,,,,,,,,,,,,,,
941810,001,2022-11-20_17h57.10.232,Info_measure_main_exp,2022.2.2,Win32,60.0240096,,,,,,,,,,,,,,,,,,masks/mask_001.jpg,,,,,,,,,,,,,,,,,,,,,,,,,,,,,,,,,,,,,,,,,,,0,4,4,0,1,,,,,,,,,,,,,,,,,,,,,,,,,,,,,,,,,,,,,,,,,,,,,,
941810,001,2022-11-20_17h57.10.232,Info_measure_main_exp,2022.2.2,Win32,60.0240096,,,,,,,,,,,,,,,,,,masks/mask_002.jpg,,,,,,,,,,,,,,,,,,,,,,,,,,,,,,,,,,,,,,,,,,,,,,,,0,0,0,1,1,,,,,,,,,,,,,,,,,,,,,,,,,,,,,,,,,,,,,,,,,
941810,001,2022-11-20_17h57.10.232,Info_measure_main_exp,2022.2.2,Win32,60.0240096,,,,,,,,,,,,,,,,,,masks/mask_005.jpg,,,,,,,,,,,,,,,,,,,,,,,,,,,,,,,,,,,,,,,,,,,,,,,,0,1,1,4,1,,,,,,,,,,,,,,,,,,,,,,,,,,,,,,,,,,,,,,,,,
941810,001,2022-11-20_17h57.10.232,Info_measure_main_exp,2022.2.2,Win32,60.0240096,,,,,,,,,,,,,,,,,,masks/mask_004.jpg,,,,,,,,,,,,,,,,,,,,,,,,,,,,,,,,,,,,,,,,,,,,,,,,0,2,2,3,1,,,,,,,,,,,,,,,,,,,,,,,,,,,,,,,,,,,,,,,,,
941810,001,2022-11-20_17h57.10.232,Info_measure_main_exp,2022.2.2,Win32,60.0240096,,,,,,,,,,,,,,,,,,masks/mask_003.jpg,,,,,,,,,,,,,,,,,,,,,,,,,,,,,,,,,,,,,,,,,,,,,,,,0,3,3,2,1,,,,,,,,,,,,,,,,,,,,,,,,,,,,,,,,,,,,,,,,,
941810,001,2022-11-20_17h57.10.232,Info_measure_main_exp,2022.2.2,Win32,60.0240096,,,,,,,,,,,,,,,,,,masks/mask_001.jpg,,,,,,,,,,,,,,,,,,,,,,,,,,,,,,,,,,,,,,,,,,,,,,,,0,4,4,0,1,,,,,,,,,,,,,,,,,,,,,,,,,,,,,,,,,,,,,,,,,
941810,001,2022-11-20_17h57.10.232,Info_measure_main_exp,2022.2.2,Win32,60.0240096,,,,,,,,,,,,,,,,,,,,,,,,,,,,,,0,0.883,1,,,,,,,,,,,,1,131,5,5,1,1,present_patch/cong_131_5_a.jpg,present_patch/cong_131_5_a.jpg,,,,,,,,,,,,,,,,,,,,-0.068287037,0.15162037,1,0,0,response7disk,14,-0.001157407,-0.002314815,1,0,0,center_square,0,13,13,30,1,,,,,,,,,,,,,,,,,,,,,,,
941810,001,2022-11-20_17h57.10.232,Info_measure_main_exp,2022.2.2,Win32,60.0240096,,,,,,,,,,,,,,,,,,masks/mask_003.jpg,,,,,,,,,,,,,,,,,,,,,,,,,,,,,,,,,,,,,,,,,,,0,0,0,2,1,,,,,,,,,,,,,,,,,,,,,,,,,,,,,,,,,,,,,,,,,,,,,,
941810,001,2022-11-20_17h57.10.232,Info_measure_main_exp,2022.2.2,Win32,60.0240096,,,,,,,,,,,,,,,,,,masks/mask_004.jpg,,,,,,,,,,,,,,,,,,,,,,,,,,,,,,,,,,,,,,,,,,,0,1,1,3,1,,,,,,,,,,,,,,,,,,,,,,,,,,,,,,,,,,,,,,,,,,,,,,
941810,001,2022-11-20_17h57.10.232,Info_measure_main_exp,2022.2.2,Win32,60.0240096,,,,,,,,,,,,,,,,,,masks/mask_002.jpg,,,,,,,,,,,,,,,,,,,,,,,,,,,,,,,,,,,,,,,,,,,0,2,2,1,1,,,,,,,,,,,,,,,,,,,,,,,,,,,,,,,,,,,,,,,,,,,,,,
941810,001,2022-11-20_17h57.10.232,Info_measure_main_exp,2022.2.2,Win32,60.0240096,,,,,,,,,,,,,,,,,,masks/mask_001.jpg,,,,,,,,,,,,,,,,,,,,,,,,,,,,,,,,,,,,,,,,,,,0,3,3,0,1,,,,,,,,,,,,,,,,,,,,,,,,,,,,,,,,,,,,,,,,,,,,,,
941810,001,2022-11-20_17h57.10.232,Info_measure_main_exp,2022.2.2,Win32,60.0240096,,,,,,,,,,,,,,,,,,masks/mask_005.jpg,,,,,,,,,,,,,,,,,,,,,,,,,,,,,,,,,,,,,,,,,,,0,4,4,4,1,,,,,,,,,,,,,,,,,,,,,,,,,,,,,,,,,,,,,,,,,,,,,,
941810,001,2022-11-20_17h57.10.232,Info_measure_main_exp,2022.2.2,Win32,60.0240096,,,,,,,,,,,,,,,,,,masks/mask_003.jpg,,,,,,,,,,,,,,,,,,,,,,,,,,,,,,,,,,,,,,,,,,,,,,,,0,0,0,2,1,,,,,,,,,,,,,,,,,,,,,,,,,,,,,,,,,,,,,,,,,
941810,001,2022-11-20_17h57.10.232,Info_measure_main_exp,2022.2.2,Win32,60.0240096,,,,,,,,,,,,,,,,,,masks/mask_001.jpg,,,,,,,,,,,,,,,,,,,,,,,,,,,,,,,,,,,,,,,,,,,,,,,,0,1,1,0,1,,,,,,,,,,,,,,,,,,,,,,,,,,,,,,,,,,,,,,,,,
941810,001,2022-11-20_17h57.10.232,Info_measure_main_exp,2022.2.2,Win32,60.0240096,,,,,,,,,,,,,,,,,,masks/mask_002.jpg,,,,,,,,,,,,,,,,,,,,,,,,,,,,,,,,,,,,,,,,,,,,,,,,0,2,2,1,1,,,,,,,,,,,,,,,,,,,,,,,,,,,,,,,,,,,,,,,,,
941810,001,2022-11-20_17h57.10.232,Info_measure_main_exp,2022.2.2,Win32,60.0240096,,,,,,,,,,,,,,,,,,masks/mask_005.jpg,,,,,,,,,,,,,,,,,,,,,,,,,,,,,,,,,,,,,,,,,,,,,,,,0,3,3,4,1,,,,,,,,,,,,,,,,,,,,,,,,,,,,,,,,,,,,,,,,,
941810,001,2022-11-20_17h57.10.232,Info_measure_main_exp,2022.2.2,Win32,60.0240096,,,,,,,,,,,,,,,,,,masks/mask_004.jpg,,,,,,,,,,,,,,,,,,,,,,,,,,,,,,,,,,,,,,,,,,,,,,,,0,4,4,3,1,,,,,,,,,,,,,,,,,,,,,,,,,,,,,,,,,,,,,,,,,
941810,001,2022-11-20_17h57.10.232,Info_measure_main_exp,2022.2.2,Win32,60.0240096,,,,,,,,,,,,,,,,,,,,,,,,,,,,,,7,0.8,1,,,,,,,,,,,,0,131,5,5,2154,1950,absent_patch/patch0002154.jpg,absent_patch/patch0001950.jpg,,,,,,,,,,,,,,,,,,,,0.076388889,0.152777778,1,0,0,response1disk,15,0.010416667,-0.006944444,1,0,0,center_square,0,14,14,96,1,,,,,,,,,,,,,,,,,,,,,,,
941810,001,2022-11-20_17h57.10.232,Info_measure_main_exp,2022.2.2,Win32,60.0240096,,,,,,,,,,,,,,,,,,masks/mask_002.jpg,,,,,,,,,,,,,,,,,,,,,,,,,,,,,,,,,,,,,,,,,,,0,0,0,1,1,,,,,,,,,,,,,,,,,,,,,,,,,,,,,,,,,,,,,,,,,,,,,,
941810,001,2022-11-20_17h57.10.232,Info_measure_main_exp,2022.2.2,Win32,60.0240096,,,,,,,,,,,,,,,,,,masks/mask_005.jpg,,,,,,,,,,,,,,,,,,,,,,,,,,,,,,,,,,,,,,,,,,,0,1,1,4,1,,,,,,,,,,,,,,,,,,,,,,,,,,,,,,,,,,,,,,,,,,,,,,
941810,001,2022-11-20_17h57.10.232,Info_measure_main_exp,2022.2.2,Win32,60.0240096,,,,,,,,,,,,,,,,,,masks/mask_004.jpg,,,,,,,,,,,,,,,,,,,,,,,,,,,,,,,,,,,,,,,,,,,0,2,2,3,1,,,,,,,,,,,,,,,,,,,,,,,,,,,,,,,,,,,,,,,,,,,,,,
941810,001,2022-11-20_17h57.10.232,Info_measure_main_exp,2022.2.2,Win32,60.0240096,,,,,,,,,,,,,,,,,,masks/mask_001.jpg,,,,,,,,,,,,,,,,,,,,,,,,,,,,,,,,,,,,,,,,,,,0,3,3,0,1,,,,,,,,,,,,,,,,,,,,,,,,,,,,,,,,,,,,,,,,,,,,,,
941810,001,2022-11-20_17h57.10.232,Info_measure_main_exp,2022.2.2,Win32,60.0240096,,,,,,,,,,,,,,,,,,masks/mask_003.jpg,,,,,,,,,,,,,,,,,,,,,,,,,,,,,,,,,,,,,,,,,,,0,4,4,2,1,,,,,,,,,,,,,,,,,,,,,,,,,,,,,,,,,,,,,,,,,,,,,,
941810,001,2022-11-20_17h57.10.232,Info_measure_main_exp,2022.2.2,Win32,60.0240096,,,,,,,,,,,,,,,,,,masks/mask_003.jpg,,,,,,,,,,,,,,,,,,,,,,,,,,,,,,,,,,,,,,,,,,,,,,,,0,0,0,2,1,,,,,,,,,,,,,,,,,,,,,,,,,,,,,,,,,,,,,,,,,
941810,001,2022-11-20_17h57.10.232,Info_measure_main_exp,2022.2.2,Win32,60.0240096,,,,,,,,,,,,,,,,,,masks/mask_005.jpg,,,,,,,,,,,,,,,,,,,,,,,,,,,,,,,,,,,,,,,,,,,,,,,,0,1,1,4,1,,,,,,,,,,,,,,,,,,,,,,,,,,,,,,,,,,,,,,,,,
941810,001,2022-11-20_17h57.10.232,Info_measure_main_exp,2022.2.2,Win32,60.0240096,,,,,,,,,,,,,,,,,,masks/mask_002.jpg,,,,,,,,,,,,,,,,,,,,,,,,,,,,,,,,,,,,,,,,,,,,,,,,0,2,2,1,1,,,,,,,,,,,,,,,,,,,,,,,,,,,,,,,,,,,,,,,,,
941810,001,2022-11-20_17h57.10.232,Info_measure_main_exp,2022.2.2,Win32,60.0240096,,,,,,,,,,,,,,,,,,masks/mask_004.jpg,,,,,,,,,,,,,,,,,,,,,,,,,,,,,,,,,,,,,,,,,,,,,,,,0,3,3,3,1,,,,,,,,,,,,,,,,,,,,,,,,,,,,,,,,,,,,,,,,,
941810,001,2022-11-20_17h57.10.232,Info_measure_main_exp,2022.2.2,Win32,60.0240096,,,,,,,,,,,,,,,,,,masks/mask_001.jpg,,,,,,,,,,,,,,,,,,,,,,,,,,,,,,,,,,,,,,,,,,,,,,,,0,4,4,0,1,,,,,,,,,,,,,,,,,,,,,,,,,,,,,,,,,,,,,,,,,
941810,001,2022-11-20_17h57.10.232,Info_measure_main_exp,2022.2.2,Win32,60.0240096,,,,,,,,,,,,,,,,,,,,,,,,,,,,,,7,0.616,1,,,,,,,,,,,,0,131,5,5,2082,1974,absent_patch/patch0002082.jpg,absent_patch/patch0001974.jpg,,,,,,,,,,,,,,,,,,,,0.06712963,0.15162037,1,0,0,response1disk,16,0,-0.003472222,1,0,0,center_square,0,15,15,26,1,,,,,,,,,,,,,,,,,,,,,,,
941810,001,2022-11-20_17h57.10.232,Info_measure_main_exp,2022.2.2,Win32,60.0240096,,,,,,,,,,,,,,,,,,masks/mask_003.jpg,,,,,,,,,,,,,,,,,,,,,,,,,,,,,,,,,,,,,,,,,,,0,0,0,2,1,,,,,,,,,,,,,,,,,,,,,,,,,,,,,,,,,,,,,,,,,,,,,,
941810,001,2022-11-20_17h57.10.232,Info_measure_main_exp,2022.2.2,Win32,60.0240096,,,,,,,,,,,,,,,,,,masks/mask_002.jpg,,,,,,,,,,,,,,,,,,,,,,,,,,,,,,,,,,,,,,,,,,,0,1,1,1,1,,,,,,,,,,,,,,,,,,,,,,,,,,,,,,,,,,,,,,,,,,,,,,
941810,001,2022-11-20_17h57.10.232,Info_measure_main_exp,2022.2.2,Win32,60.0240096,,,,,,,,,,,,,,,,,,masks/mask_005.jpg,,,,,,,,,,,,,,,,,,,,,,,,,,,,,,,,,,,,,,,,,,,0,2,2,4,1,,,,,,,,,,,,,,,,,,,,,,,,,,,,,,,,,,,,,,,,,,,,,,
941810,001,2022-11-20_17h57.10.232,Info_measure_main_exp,2022.2.2,Win32,60.0240096,,,,,,,,,,,,,,,,,,masks/mask_001.jpg,,,,,,,,,,,,,,,,,,,,,,,,,,,,,,,,,,,,,,,,,,,0,3,3,0,1,,,,,,,,,,,,,,,,,,,,,,,,,,,,,,,,,,,,,,,,,,,,,,
941810,001,2022-11-20_17h57.10.232,Info_measure_main_exp,2022.2.2,Win32,60.0240096,,,,,,,,,,,,,,,,,,masks/mask_004.jpg,,,,,,,,,,,,,,,,,,,,,,,,,,,,,,,,,,,,,,,,,,,0,4,4,3,1,,,,,,,,,,,,,,,,,,,,,,,,,,,,,,,,,,,,,,,,,,,,,,
941810,001,2022-11-20_17h57.10.232,Info_measure_main_exp,2022.2.2,Win32,60.0240096,,,,,,,,,,,,,,,,,,masks/mask_002.jpg,,,,,,,,,,,,,,,,,,,,,,,,,,,,,,,,,,,,,,,,,,,,,,,,0,0,0,1,1,,,,,,,,,,,,,,,,,,,,,,,,,,,,,,,,,,,,,,,,,
941810,001,2022-11-20_17h57.10.232,Info_measure_main_exp,2022.2.2,Win32,60.0240096,,,,,,,,,,,,,,,,,,masks/mask_004.jpg,,,,,,,,,,,,,,,,,,,,,,,,,,,,,,,,,,,,,,,,,,,,,,,,0,1,1,3,1,,,,,,,,,,,,,,,,,,,,,,,,,,,,,,,,,,,,,,,,,
941810,001,2022-11-20_17h57.10.232,Info_measure_main_exp,2022.2.2,Win32,60.0240096,,,,,,,,,,,,,,,,,,masks/mask_001.jpg,,,,,,,,,,,,,,,,,,,,,,,,,,,,,,,,,,,,,,,,,,,,,,,,0,2,2,0,1,,,,,,,,,,,,,,,,,,,,,,,,,,,,,,,,,,,,,,,,,
941810,001,2022-11-20_17h57.10.232,Info_measure_main_exp,2022.2.2,Win32,60.0240096,,,,,,,,,,,,,,,,,,masks/mask_005.jpg,,,,,,,,,,,,,,,,,,,,,,,,,,,,,,,,,,,,,,,,,,,,,,,,0,3,3,4,1,,,,,,,,,,,,,,,,,,,,,,,,,,,,,,,,,,,,,,,,,
941810,001,2022-11-20_17h57.10.232,Info_measure_main_exp,2022.2.2,Win32,60.0240096,,,,,,,,,,,,,,,,,,masks/mask_003.jpg,,,,,,,,,,,,,,,,,,,,,,,,,,,,,,,,,,,,,,,,,,,,,,,,0,4,4,2,1,,,,,,,,,,,,,,,,,,,,,,,,,,,,,,,,,,,,,,,,,
941810,001,2022-11-20_17h57.10.232,Info_measure_main_exp,2022.2.2,Win32,60.0240096,,,,,,,,,,,,,,,,,,,,,,,,,,,,,,7,0.832,1,,,,,,,,,,,,1,131,5,5,2082,1,absent_patch/patch0002082.jpg,present_patch/cong_131_5_a.jpg,,,,,,,,,,,,,,,,,,,,0.019675926,0.157407407,1,0,0,response1disk,17,-0.006944444,-0.013888889,1,0,0,center_square,0,16,16,65,1,,,,,,,,,,,,,,,,,,,,,,,
941810,001,2022-11-20_17h57.10.232,Info_measure_main_exp,2022.2.2,Win32,60.0240096,,,,,,,,,,,,,,,,,,masks/mask_001.jpg,,,,,,,,,,,,,,,,,,,,,,,,,,,,,,,,,,,,,,,,,,,0,0,0,0,1,,,,,,,,,,,,,,,,,,,,,,,,,,,,,,,,,,,,,,,,,,,,,,
941810,001,2022-11-20_17h57.10.232,Info_measure_main_exp,2022.2.2,Win32,60.0240096,,,,,,,,,,,,,,,,,,masks/mask_003.jpg,,,,,,,,,,,,,,,,,,,,,,,,,,,,,,,,,,,,,,,,,,,0,1,1,2,1,,,,,,,,,,,,,,,,,,,,,,,,,,,,,,,,,,,,,,,,,,,,,,
941810,001,2022-11-20_17h57.10.232,Info_measure_main_exp,2022.2.2,Win32,60.0240096,,,,,,,,,,,,,,,,,,masks/mask_004.jpg,,,,,,,,,,,,,,,,,,,,,,,,,,,,,,,,,,,,,,,,,,,0,2,2,3,1,,,,,,,,,,,,,,,,,,,,,,,,,,,,,,,,,,,,,,,,,,,,,,
941810,001,2022-11-20_17h57.10.232,Info_measure_main_exp,2022.2.2,Win32,60.0240096,,,,,,,,,,,,,,,,,,masks/mask_005.jpg,,,,,,,,,,,,,,,,,,,,,,,,,,,,,,,,,,,,,,,,,,,0,3,3,4,1,,,,,,,,,,,,,,,,,,,,,,,,,,,,,,,,,,,,,,,,,,,,,,
941810,001,2022-11-20_17h57.10.232,Info_measure_main_exp,2022.2.2,Win32,60.0240096,,,,,,,,,,,,,,,,,,masks/mask_002.jpg,,,,,,,,,,,,,,,,,,,,,,,,,,,,,,,,,,,,,,,,,,,0,4,4,1,1,,,,,,,,,,,,,,,,,,,,,,,,,,,,,,,,,,,,,,,,,,,,,,
941810,001,2022-11-20_17h57.10.232,Info_measure_main_exp,2022.2.2,Win32,60.0240096,,,,,,,,,,,,,,,,,,masks/mask_004.jpg,,,,,,,,,,,,,,,,,,,,,,,,,,,,,,,,,,,,,,,,,,,,,,,,0,0,0,3,1,,,,,,,,,,,,,,,,,,,,,,,,,,,,,,,,,,,,,,,,,
941810,001,2022-11-20_17h57.10.232,Info_measure_main_exp,2022.2.2,Win32,60.0240096,,,,,,,,,,,,,,,,,,masks/mask_001.jpg,,,,,,,,,,,,,,,,,,,,,,,,,,,,,,,,,,,,,,,,,,,,,,,,0,1,1,0,1,,,,,,,,,,,,,,,,,,,,,,,,,,,,,,,,,,,,,,,,,
941810,001,2022-11-20_17h57.10.232,Info_measure_main_exp,2022.2.2,Win32,60.0240096,,,,,,,,,,,,,,,,,,masks/mask_002.jpg,,,,,,,,,,,,,,,,,,,,,,,,,,,,,,,,,,,,,,,,,,,,,,,,0,2,2,1,1,,,,,,,,,,,,,,,,,,,,,,,,,,,,,,,,,,,,,,,,,
941810,001,2022-11-20_17h57.10.232,Info_measure_main_exp,2022.2.2,Win32,60.0240096,,,,,,,,,,,,,,,,,,masks/mask_003.jpg,,,,,,,,,,,,,,,,,,,,,,,,,,,,,,,,,,,,,,,,,,,,,,,,0,3,3,2,1,,,,,,,,,,,,,,,,,,,,,,,,,,,,,,,,,,,,,,,,,
941810,001,2022-11-20_17h57.10.232,Info_measure_main_exp,2022.2.2,Win32,60.0240096,,,,,,,,,,,,,,,,,,masks/mask_005.jpg,,,,,,,,,,,,,,,,,,,,,,,,,,,,,,,,,,,,,,,,,,,,,,,,0,4,4,4,1,,,,,,,,,,,,,,,,,,,,,,,,,,,,,,,,,,,,,,,,,
941810,001,2022-11-20_17h57.10.232,Info_measure_main_exp,2022.2.2,Win32,60.0240096,,,,,,,,,,,,,,,,,,,,,,,,,,,,,,7,0.75,1,,,,,,,,,,,,1,131,5,5,1,1974,present_patch/cong_131_5_a.jpg,absent_patch/patch0001974.jpg,,,,,,,,,,,,,,,,,,,,0.049768519,0.16087963,1,0,0,response1disk,18,0.009259259,0.006944444,1,0,0,center_square,0,17,17,69,1,,,,,,,,,,,,,,,,,,,,,,,
941810,001,2022-11-20_17h57.10.232,Info_measure_main_exp,2022.2.2,Win32,60.0240096,,,,,,,,,,,,,,,,,,masks/mask_005.jpg,,,,,,,,,,,,,,,,,,,,,,,,,,,,,,,,,,,,,,,,,,,0,0,0,4,1,,,,,,,,,,,,,,,,,,,,,,,,,,,,,,,,,,,,,,,,,,,,,,
941810,001,2022-11-20_17h57.10.232,Info_measure_main_exp,2022.2.2,Win32,60.0240096,,,,,,,,,,,,,,,,,,masks/mask_004.jpg,,,,,,,,,,,,,,,,,,,,,,,,,,,,,,,,,,,,,,,,,,,0,1,1,3,1,,,,,,,,,,,,,,,,,,,,,,,,,,,,,,,,,,,,,,,,,,,,,,
941810,001,2022-11-20_17h57.10.232,Info_measure_main_exp,2022.2.2,Win32,60.0240096,,,,,,,,,,,,,,,,,,masks/mask_001.jpg,,,,,,,,,,,,,,,,,,,,,,,,,,,,,,,,,,,,,,,,,,,0,2,2,0,1,,,,,,,,,,,,,,,,,,,,,,,,,,,,,,,,,,,,,,,,,,,,,,
941810,001,2022-11-20_17h57.10.232,Info_measure_main_exp,2022.2.2,Win32,60.0240096,,,,,,,,,,,,,,,,,,masks/mask_002.jpg,,,,,,,,,,,,,,,,,,,,,,,,,,,,,,,,,,,,,,,,,,,0,3,3,1,1,,,,,,,,,,,,,,,,,,,,,,,,,,,,,,,,,,,,,,,,,,,,,,
941810,001,2022-11-20_17h57.10.232,Info_measure_main_exp,2022.2.2,Win32,60.0240096,,,,,,,,,,,,,,,,,,masks/mask_003.jpg,,,,,,,,,,,,,,,,,,,,,,,,,,,,,,,,,,,,,,,,,,,0,4,4,2,1,,,,,,,,,,,,,,,,,,,,,,,,,,,,,,,,,,,,,,,,,,,,,,
941810,001,2022-11-20_17h57.10.232,Info_measure_main_exp,2022.2.2,Win32,60.0240096,,,,,,,,,,,,,,,,,,masks/mask_003.jpg,,,,,,,,,,,,,,,,,,,,,,,,,,,,,,,,,,,,,,,,,,,,,,,,0,0,0,2,1,,,,,,,,,,,,,,,,,,,,,,,,,,,,,,,,,,,,,,,,,
941810,001,2022-11-20_17h57.10.232,Info_measure_main_exp,2022.2.2,Win32,60.0240096,,,,,,,,,,,,,,,,,,masks/mask_002.jpg,,,,,,,,,,,,,,,,,,,,,,,,,,,,,,,,,,,,,,,,,,,,,,,,0,1,1,1,1,,,,,,,,,,,,,,,,,,,,,,,,,,,,,,,,,,,,,,,,,
941810,001,2022-11-20_17h57.10.232,Info_measure_main_exp,2022.2.2,Win32,60.0240096,,,,,,,,,,,,,,,,,,masks/mask_004.jpg,,,,,,,,,,,,,,,,,,,,,,,,,,,,,,,,,,,,,,,,,,,,,,,,0,2,2,3,1,,,,,,,,,,,,,,,,,,,,,,,,,,,,,,,,,,,,,,,,,
941810,001,2022-11-20_17h57.10.232,Info_measure_main_exp,2022.2.2,Win32,60.0240096,,,,,,,,,,,,,,,,,,masks/mask_001.jpg,,,,,,,,,,,,,,,,,,,,,,,,,,,,,,,,,,,,,,,,,,,,,,,,0,3,3,0,1,,,,,,,,,,,,,,,,,,,,,,,,,,,,,,,,,,,,,,,,,
941810,001,2022-11-20_17h57.10.232,Info_measure_main_exp,2022.2.2,Win32,60.0240096,,,,,,,,,,,,,,,,,,masks/mask_005.jpg,,,,,,,,,,,,,,,,,,,,,,,,,,,,,,,,,,,,,,,,,,,,,,,,0,4,4,4,1,,,,,,,,,,,,,,,,,,,,,,,,,,,,,,,,,,,,,,,,,
941810,001,2022-11-20_17h57.10.232,Info_measure_main_exp,2022.2.2,Win32,60.0240096,,,,,,,,,,,,,,,,,,,,,,,,,,,,,,7,0.767,1,,,,,,,,,,,,0,131,5,5,2166,1986,absent_patch/patch0002166.jpg,absent_patch/patch0001986.jpg,,,,,,,,,,,,,,,,,,,,0.063657407,0.173611111,1,0,0,response1disk,19,0.005787037,0.00462963,1,0,0,center_square,0,18,18,47,1,,,,,,,,,,,,,,,,,,,,,,,
941810,001,2022-11-20_17h57.10.232,Info_measure_main_exp,2022.2.2,Win32,60.0240096,,,,,,,,,,,,,,,,,,masks/mask_001.jpg,,,,,,,,,,,,,,,,,,,,,,,,,,,,,,,,,,,,,,,,,,,0,0,0,0,1,,,,,,,,,,,,,,,,,,,,,,,,,,,,,,,,,,,,,,,,,,,,,,
941810,001,2022-11-20_17h57.10.232,Info_measure_main_exp,2022.2.2,Win32,60.0240096,,,,,,,,,,,,,,,,,,masks/mask_002.jpg,,,,,,,,,,,,,,,,,,,,,,,,,,,,,,,,,,,,,,,,,,,0,1,1,1,1,,,,,,,,,,,,,,,,,,,,,,,,,,,,,,,,,,,,,,,,,,,,,,
941810,001,2022-11-20_17h57.10.232,Info_measure_main_exp,2022.2.2,Win32,60.0240096,,,,,,,,,,,,,,,,,,masks/mask_005.jpg,,,,,,,,,,,,,,,,,,,,,,,,,,,,,,,,,,,,,,,,,,,0,2,2,4,1,,,,,,,,,,,,,,,,,,,,,,,,,,,,,,,,,,,,,,,,,,,,,,
941810,001,2022-11-20_17h57.10.232,Info_measure_main_exp,2022.2.2,Win32,60.0240096,,,,,,,,,,,,,,,,,,masks/mask_003.jpg,,,,,,,,,,,,,,,,,,,,,,,,,,,,,,,,,,,,,,,,,,,0,3,3,2,1,,,,,,,,,,,,,,,,,,,,,,,,,,,,,,,,,,,,,,,,,,,,,,
941810,001,2022-11-20_17h57.10.232,Info_measure_main_exp,2022.2.2,Win32,60.0240096,,,,,,,,,,,,,,,,,,masks/mask_004.jpg,,,,,,,,,,,,,,,,,,,,,,,,,,,,,,,,,,,,,,,,,,,0,4,4,3,1,,,,,,,,,,,,,,,,,,,,,,,,,,,,,,,,,,,,,,,,,,,,,,
941810,001,2022-11-20_17h57.10.232,Info_measure_main_exp,2022.2.2,Win32,60.0240096,,,,,,,,,,,,,,,,,,masks/mask_001.jpg,,,,,,,,,,,,,,,,,,,,,,,,,,,,,,,,,,,,,,,,,,,,,,,,0,0,0,0,1,,,,,,,,,,,,,,,,,,,,,,,,,,,,,,,,,,,,,,,,,
941810,001,2022-11-20_17h57.10.232,Info_measure_main_exp,2022.2.2,Win32,60.0240096,,,,,,,,,,,,,,,,,,masks/mask_002.jpg,,,,,,,,,,,,,,,,,,,,,,,,,,,,,,,,,,,,,,,,,,,,,,,,0,1,1,1,1,,,,,,,,,,,,,,,,,,,,,,,,,,,,,,,,,,,,,,,,,
941810,001,2022-11-20_17h57.10.232,Info_measure_main_exp,2022.2.2,Win32,60.0240096,,,,,,,,,,,,,,,,,,masks/mask_005.jpg,,,,,,,,,,,,,,,,,,,,,,,,,,,,,,,,,,,,,,,,,,,,,,,,0,2,2,4,1,,,,,,,,,,,,,,,,,,,,,,,,,,,,,,,,,,,,,,,,,
941810,001,2022-11-20_17h57.10.232,Info_measure_main_exp,2022.2.2,Win32,60.0240096,,,,,,,,,,,,,,,,,,masks/mask_004.jpg,,,,,,,,,,,,,,,,,,,,,,,,,,,,,,,,,,,,,,,,,,,,,,,,0,3,3,3,1,,,,,,,,,,,,,,,,,,,,,,,,,,,,,,,,,,,,,,,,,
941810,001,2022-11-20_17h57.10.232,Info_measure_main_exp,2022.2.2,Win32,60.0240096,,,,,,,,,,,,,,,,,,masks/mask_003.jpg,,,,,,,,,,,,,,,,,,,,,,,,,,,,,,,,,,,,,,,,,,,,,,,,0,4,4,2,1,,,,,,,,,,,,,,,,,,,,,,,,,,,,,,,,,,,,,,,,,
941810,001,2022-11-20_17h57.10.232,Info_measure_main_exp,2022.2.2,Win32,60.0240096,,,,,,,,,,,,,,,,,,,,,,,,,,,,,,7,0.6,1,,,,,,,,,,,,0,131,5,5,2214,2178,absent_patch/patch0002214.jpg,absent_patch/patch0002178.jpg,,,,,,,,,,,,,,,,,,,,0.060185185,0.16087963,1,0,0,response1disk,20,0.002314815,-0.015046296,1,0,0,center_square,0,19,19,62,1,,,,,,,,,,,,,,,,,,,,,,,
941810,001,2022-11-20_17h57.10.232,Info_measure_main_exp,2022.2.2,Win32,60.0240096,,,,,,,,,,,,,,,,,,masks/mask_002.jpg,,,,,,,,,,,,,,,,,,,,,,,,,,,,,,,,,,,,,,,,,,,0,0,0,1,1,,,,,,,,,,,,,,,,,,,,,,,,,,,,,,,,,,,,,,,,,,,,,,
941810,001,2022-11-20_17h57.10.232,Info_measure_main_exp,2022.2.2,Win32,60.0240096,,,,,,,,,,,,,,,,,,masks/mask_004.jpg,,,,,,,,,,,,,,,,,,,,,,,,,,,,,,,,,,,,,,,,,,,0,1,1,3,1,,,,,,,,,,,,,,,,,,,,,,,,,,,,,,,,,,,,,,,,,,,,,,
941810,001,2022-11-20_17h57.10.232,Info_measure_main_exp,2022.2.2,Win32,60.0240096,,,,,,,,,,,,,,,,,,masks/mask_001.jpg,,,,,,,,,,,,,,,,,,,,,,,,,,,,,,,,,,,,,,,,,,,0,2,2,0,1,,,,,,,,,,,,,,,,,,,,,,,,,,,,,,,,,,,,,,,,,,,,,,
941810,001,2022-11-20_17h57.10.232,Info_measure_main_exp,2022.2.2,Win32,60.0240096,,,,,,,,,,,,,,,,,,masks/mask_005.jpg,,,,,,,,,,,,,,,,,,,,,,,,,,,,,,,,,,,,,,,,,,,0,3,3,4,1,,,,,,,,,,,,,,,,,,,,,,,,,,,,,,,,,,,,,,,,,,,,,,
941810,001,2022-11-20_17h57.10.232,Info_measure_main_exp,2022.2.2,Win32,60.0240096,,,,,,,,,,,,,,,,,,masks/mask_003.jpg,,,,,,,,,,,,,,,,,,,,,,,,,,,,,,,,,,,,,,,,,,,0,4,4,2,1,,,,,,,,,,,,,,,,,,,,,,,,,,,,,,,,,,,,,,,,,,,,,,
941810,001,2022-11-20_17h57.10.232,Info_measure_main_exp,2022.2.2,Win32,60.0240096,,,,,,,,,,,,,,,,,,masks/mask_005.jpg,,,,,,,,,,,,,,,,,,,,,,,,,,,,,,,,,,,,,,,,,,,,,,,,0,0,0,4,1,,,,,,,,,,,,,,,,,,,,,,,,,,,,,,,,,,,,,,,,,
941810,001,2022-11-20_17h57.10.232,Info_measure_main_exp,2022.2.2,Win32,60.0240096,,,,,,,,,,,,,,,,,,masks/mask_001.jpg,,,,,,,,,,,,,,,,,,,,,,,,,,,,,,,,,,,,,,,,,,,,,,,,0,1,1,0,1,,,,,,,,,,,,,,,,,,,,,,,,,,,,,,,,,,,,,,,,,
941810,001,2022-11-20_17h57.10.232,Info_measure_main_exp,2022.2.2,Win32,60.0240096,,,,,,,,,,,,,,,,,,masks/mask_003.jpg,,,,,,,,,,,,,,,,,,,,,,,,,,,,,,,,,,,,,,,,,,,,,,,,0,2,2,2,1,,,,,,,,,,,,,,,,,,,,,,,,,,,,,,,,,,,,,,,,,
941810,001,2022-11-20_17h57.10.232,Info_measure_main_exp,2022.2.2,Win32,60.0240096,,,,,,,,,,,,,,,,,,masks/mask_002.jpg,,,,,,,,,,,,,,,,,,,,,,,,,,,,,,,,,,,,,,,,,,,,,,,,0,3,3,1,1,,,,,,,,,,,,,,,,,,,,,,,,,,,,,,,,,,,,,,,,,
941810,001,2022-11-20_17h57.10.232,Info_measure_main_exp,2022.2.2,Win32,60.0240096,,,,,,,,,,,,,,,,,,masks/mask_004.jpg,,,,,,,,,,,,,,,,,,,,,,,,,,,,,,,,,,,,,,,,,,,,,,,,0,4,4,3,1,,,,,,,,,,,,,,,,,,,,,,,,,,,,,,,,,,,,,,,,,
941810,001,2022-11-20_17h57.10.232,Info_measure_main_exp,2022.2.2,Win32,60.0240096,,,,,,,,,,,,,,,,,,,,,,,,,,,,,,7,0.782,1,,,,,,,,,,,,0,131,5,5,2178,2238,absent_patch/patch0002178.jpg,absent_patch/patch0002238.jpg,,,,,,,,,,,,,,,,,,,,0.053240741,0.15162037,1,0,0,response1disk,21,0.006944444,-0.013888889,1,0,0,center_square,0,20,20,57,1,,,,,,,,,,,,,,,,,,,,,,,
941810,001,2022-11-20_17h57.10.232,Info_measure_main_exp,2022.2.2,Win32,60.0240096,,,,,,,,,,,,,,,,,,masks/mask_005.jpg,,,,,,,,,,,,,,,,,,,,,,,,,,,,,,,,,,,,,,,,,,,0,0,0,4,1,,,,,,,,,,,,,,,,,,,,,,,,,,,,,,,,,,,,,,,,,,,,,,
941810,001,2022-11-20_17h57.10.232,Info_measure_main_exp,2022.2.2,Win32,60.0240096,,,,,,,,,,,,,,,,,,masks/mask_004.jpg,,,,,,,,,,,,,,,,,,,,,,,,,,,,,,,,,,,,,,,,,,,0,1,1,3,1,,,,,,,,,,,,,,,,,,,,,,,,,,,,,,,,,,,,,,,,,,,,,,
941810,001,2022-11-20_17h57.10.232,Info_measure_main_exp,2022.2.2,Win32,60.0240096,,,,,,,,,,,,,,,,,,masks/mask_003.jpg,,,,,,,,,,,,,,,,,,,,,,,,,,,,,,,,,,,,,,,,,,,0,2,2,2,1,,,,,,,,,,,,,,,,,,,,,,,,,,,,,,,,,,,,,,,,,,,,,,
941810,001,2022-11-20_17h57.10.232,Info_measure_main_exp,2022.2.2,Win32,60.0240096,,,,,,,,,,,,,,,,,,masks/mask_002.jpg,,,,,,,,,,,,,,,,,,,,,,,,,,,,,,,,,,,,,,,,,,,0,3,3,1,1,,,,,,,,,,,,,,,,,,,,,,,,,,,,,,,,,,,,,,,,,,,,,,
941810,001,2022-11-20_17h57.10.232,Info_measure_main_exp,2022.2.2,Win32,60.0240096,,,,,,,,,,,,,,,,,,masks/mask_001.jpg,,,,,,,,,,,,,,,,,,,,,,,,,,,,,,,,,,,,,,,,,,,0,4,4,0,1,,,,,,,,,,,,,,,,,,,,,,,,,,,,,,,,,,,,,,,,,,,,,,
941810,001,2022-11-20_17h57.10.232,Info_measure_main_exp,2022.2.2,Win32,60.0240096,,,,,,,,,,,,,,,,,,masks/mask_002.jpg,,,,,,,,,,,,,,,,,,,,,,,,,,,,,,,,,,,,,,,,,,,,,,,,0,0,0,1,1,,,,,,,,,,,,,,,,,,,,,,,,,,,,,,,,,,,,,,,,,
941810,001,2022-11-20_17h57.10.232,Info_measure_main_exp,2022.2.2,Win32,60.0240096,,,,,,,,,,,,,,,,,,masks/mask_005.jpg,,,,,,,,,,,,,,,,,,,,,,,,,,,,,,,,,,,,,,,,,,,,,,,,0,1,1,4,1,,,,,,,,,,,,,,,,,,,,,,,,,,,,,,,,,,,,,,,,,
941810,001,2022-11-20_17h57.10.232,Info_measure_main_exp,2022.2.2,Win32,60.0240096,,,,,,,,,,,,,,,,,,masks/mask_004.jpg,,,,,,,,,,,,,,,,,,,,,,,,,,,,,,,,,,,,,,,,,,,,,,,,0,2,2,3,1,,,,,,,,,,,,,,,,,,,,,,,,,,,,,,,,,,,,,,,,,
941810,001,2022-11-20_17h57.10.232,Info_measure_main_exp,2022.2.2,Win32,60.0240096,,,,,,,,,,,,,,,,,,masks/mask_001.jpg,,,,,,,,,,,,,,,,,,,,,,,,,,,,,,,,,,,,,,,,,,,,,,,,0,3,3,0,1,,,,,,,,,,,,,,,,,,,,,,,,,,,,,,,,,,,,,,,,,
941810,001,2022-11-20_17h57.10.232,Info_measure_main_exp,2022.2.2,Win32,60.0240096,,,,,,,,,,,,,,,,,,masks/mask_003.jpg,,,,,,,,,,,,,,,,,,,,,,,,,,,,,,,,,,,,,,,,,,,,,,,,0,4,4,2,1,,,,,,,,,,,,,,,,,,,,,,,,,,,,,,,,,,,,,,,,,
941810,001,2022-11-20_17h57.10.232,Info_measure_main_exp,2022.2.2,Win32,60.0240096,,,,,,,,,,,,,,,,,,,,,,,,,,,,,,7,0.733,1,,,,,,,,,,,,1,131,5,5,1,2214,present_patch/cong_131_5_a.jpg,absent_patch/patch0002214.jpg,,,,,,,,,,,,,,,,,,,,0.060185185,0.167824074,1,0,0,response1disk,22,0.006944444,0.011574074,1,0,0,center_square,0,21,21,4,1,,,,,,,,,,,,,,,,,,,,,,,
941810,001,2022-11-20_17h57.10.232,Info_measure_main_exp,2022.2.2,Win32,60.0240096,,,,,,,,,,,,,,,,,,masks/mask_001.jpg,,,,,,,,,,,,,,,,,,,,,,,,,,,,,,,,,,,,,,,,,,,0,0,0,0,1,,,,,,,,,,,,,,,,,,,,,,,,,,,,,,,,,,,,,,,,,,,,,,
941810,001,2022-11-20_17h57.10.232,Info_measure_main_exp,2022.2.2,Win32,60.0240096,,,,,,,,,,,,,,,,,,masks/mask_002.jpg,,,,,,,,,,,,,,,,,,,,,,,,,,,,,,,,,,,,,,,,,,,0,1,1,1,1,,,,,,,,,,,,,,,,,,,,,,,,,,,,,,,,,,,,,,,,,,,,,,
941810,001,2022-11-20_17h57.10.232,Info_measure_main_exp,2022.2.2,Win32,60.0240096,,,,,,,,,,,,,,,,,,masks/mask_005.jpg,,,,,,,,,,,,,,,,,,,,,,,,,,,,,,,,,,,,,,,,,,,0,2,2,4,1,,,,,,,,,,,,,,,,,,,,,,,,,,,,,,,,,,,,,,,,,,,,,,
941810,001,2022-11-20_17h57.10.232,Info_measure_main_exp,2022.2.2,Win32,60.0240096,,,,,,,,,,,,,,,,,,masks/mask_003.jpg,,,,,,,,,,,,,,,,,,,,,,,,,,,,,,,,,,,,,,,,,,,0,3,3,2,1,,,,,,,,,,,,,,,,,,,,,,,,,,,,,,,,,,,,,,,,,,,,,,
941810,001,2022-11-20_17h57.10.232,Info_measure_main_exp,2022.2.2,Win32,60.0240096,,,,,,,,,,,,,,,,,,masks/mask_004.jpg,,,,,,,,,,,,,,,,,,,,,,,,,,,,,,,,,,,,,,,,,,,0,4,4,3,1,,,,,,,,,,,,,,,,,,,,,,,,,,,,,,,,,,,,,,,,,,,,,,
941810,001,2022-11-20_17h57.10.232,Info_measure_main_exp,2022.2.2,Win32,60.0240096,,,,,,,,,,,,,,,,,,masks/mask_003.jpg,,,,,,,,,,,,,,,,,,,,,,,,,,,,,,,,,,,,,,,,,,,,,,,,0,0,0,2,1,,,,,,,,,,,,,,,,,,,,,,,,,,,,,,,,,,,,,,,,,
941810,001,2022-11-20_17h57.10.232,Info_measure_main_exp,2022.2.2,Win32,60.0240096,,,,,,,,,,,,,,,,,,masks/mask_001.jpg,,,,,,,,,,,,,,,,,,,,,,,,,,,,,,,,,,,,,,,,,,,,,,,,0,1,1,0,1,,,,,,,,,,,,,,,,,,,,,,,,,,,,,,,,,,,,,,,,,
941810,001,2022-11-20_17h57.10.232,Info_measure_main_exp,2022.2.2,Win32,60.0240096,,,,,,,,,,,,,,,,,,masks/mask_002.jpg,,,,,,,,,,,,,,,,,,,,,,,,,,,,,,,,,,,,,,,,,,,,,,,,0,2,2,1,1,,,,,,,,,,,,,,,,,,,,,,,,,,,,,,,,,,,,,,,,,
941810,001,2022-11-20_17h57.10.232,Info_measure_main_exp,2022.2.2,Win32,60.0240096,,,,,,,,,,,,,,,,,,masks/mask_005.jpg,,,,,,,,,,,,,,,,,,,,,,,,,,,,,,,,,,,,,,,,,,,,,,,,0,3,3,4,1,,,,,,,,,,,,,,,,,,,,,,,,,,,,,,,,,,,,,,,,,
941810,001,2022-11-20_17h57.10.232,Info_measure_main_exp,2022.2.2,Win32,60.0240096,,,,,,,,,,,,,,,,,,masks/mask_004.jpg,,,,,,,,,,,,,,,,,,,,,,,,,,,,,,,,,,,,,,,,,,,,,,,,0,4,4,3,1,,,,,,,,,,,,,,,,,,,,,,,,,,,,,,,,,,,,,,,,,
941810,001,2022-11-20_17h57.10.232,Info_measure_main_exp,2022.2.2,Win32,60.0240096,,,,,,,,,,,,,,,,,,,,,,,,,,,,,,7,0.799,1,,,,,,,,,,,,0,131,5,5,2214,1986,absent_patch/patch0002214.jpg,absent_patch/patch0001986.jpg,,,,,,,,,,,,,,,,,,,,0.069444444,0.1875,1,0,0,response1disk,23,0.006944444,0.002314815,1,0,0,center_square,0,22,22,34,1,,,,,,,,,,,,,,,,,,,,,,,
941810,001,2022-11-20_17h57.10.232,Info_measure_main_exp,2022.2.2,Win32,60.0240096,,,,,,,,,,,,,,,,,,masks/mask_003.jpg,,,,,,,,,,,,,,,,,,,,,,,,,,,,,,,,,,,,,,,,,,,0,0,0,2,1,,,,,,,,,,,,,,,,,,,,,,,,,,,,,,,,,,,,,,,,,,,,,,
941810,001,2022-11-20_17h57.10.232,Info_measure_main_exp,2022.2.2,Win32,60.0240096,,,,,,,,,,,,,,,,,,masks/mask_005.jpg,,,,,,,,,,,,,,,,,,,,,,,,,,,,,,,,,,,,,,,,,,,0,1,1,4,1,,,,,,,,,,,,,,,,,,,,,,,,,,,,,,,,,,,,,,,,,,,,,,
941810,001,2022-11-20_17h57.10.232,Info_measure_main_exp,2022.2.2,Win32,60.0240096,,,,,,,,,,,,,,,,,,masks/mask_004.jpg,,,,,,,,,,,,,,,,,,,,,,,,,,,,,,,,,,,,,,,,,,,0,2,2,3,1,,,,,,,,,,,,,,,,,,,,,,,,,,,,,,,,,,,,,,,,,,,,,,
941810,001,2022-11-20_17h57.10.232,Info_measure_main_exp,2022.2.2,Win32,60.0240096,,,,,,,,,,,,,,,,,,masks/mask_001.jpg,,,,,,,,,,,,,,,,,,,,,,,,,,,,,,,,,,,,,,,,,,,0,3,3,0,1,,,,,,,,,,,,,,,,,,,,,,,,,,,,,,,,,,,,,,,,,,,,,,
941810,001,2022-11-20_17h57.10.232,Info_measure_main_exp,2022.2.2,Win32,60.0240096,,,,,,,,,,,,,,,,,,masks/mask_002.jpg,,,,,,,,,,,,,,,,,,,,,,,,,,,,,,,,,,,,,,,,,,,0,4,4,1,1,,,,,,,,,,,,,,,,,,,,,,,,,,,,,,,,,,,,,,,,,,,,,,
941810,001,2022-11-20_17h57.10.232,Info_measure_main_exp,2022.2.2,Win32,60.0240096,,,,,,,,,,,,,,,,,,masks/mask_001.jpg,,,,,,,,,,,,,,,,,,,,,,,,,,,,,,,,,,,,,,,,,,,,,,,,0,0,0,0,1,,,,,,,,,,,,,,,,,,,,,,,,,,,,,,,,,,,,,,,,,
941810,001,2022-11-20_17h57.10.232,Info_measure_main_exp,2022.2.2,Win32,60.0240096,,,,,,,,,,,,,,,,,,masks/mask_004.jpg,,,,,,,,,,,,,,,,,,,,,,,,,,,,,,,,,,,,,,,,,,,,,,,,0,1,1,3,1,,,,,,,,,,,,,,,,,,,,,,,,,,,,,,,,,,,,,,,,,
941810,001,2022-11-20_17h57.10.232,Info_measure_main_exp,2022.2.2,Win32,60.0240096,,,,,,,,,,,,,,,,,,masks/mask_002.jpg,,,,,,,,,,,,,,,,,,,,,,,,,,,,,,,,,,,,,,,,,,,,,,,,0,2,2,1,1,,,,,,,,,,,,,,,,,,,,,,,,,,,,,,,,,,,,,,,,,
941810,001,2022-11-20_17h57.10.232,Info_measure_main_exp,2022.2.2,Win32,60.0240096,,,,,,,,,,,,,,,,,,masks/mask_003.jpg,,,,,,,,,,,,,,,,,,,,,,,,,,,,,,,,,,,,,,,,,,,,,,,,0,3,3,2,1,,,,,,,,,,,,,,,,,,,,,,,,,,,,,,,,,,,,,,,,,
941810,001,2022-11-20_17h57.10.232,Info_measure_main_exp,2022.2.2,Win32,60.0240096,,,,,,,,,,,,,,,,,,masks/mask_005.jpg,,,,,,,,,,,,,,,,,,,,,,,,,,,,,,,,,,,,,,,,,,,,,,,,0,4,4,4,1,,,,,,,,,,,,,,,,,,,,,,,,,,,,,,,,,,,,,,,,,
941810,001,2022-11-20_17h57.10.232,Info_measure_main_exp,2022.2.2,Win32,60.0240096,,,,,,,,,,,,,,,,,,,,,,,,,,,,,,4,2.22,1,,,,,,,,,,,,0,131,5,5,1974,2250,absent_patch/patch0001974.jpg,absent_patch/patch0002250.jpg,,,,,,,,,,,,,,,,,,,,0.020833333,-0.130787037,1,0,0,response3disk,24,-0.006944444,-0.006944444,1,0,0,center_square,0,23,23,55,1,,,,,,,,,,,,,,,,,,,,,,,
941810,001,2022-11-20_17h57.10.232,Info_measure_main_exp,2022.2.2,Win32,60.0240096,,,,,,,,,,,,,,,,,,masks/mask_004.jpg,,,,,,,,,,,,,,,,,,,,,,,,,,,,,,,,,,,,,,,,,,,0,0,0,3,1,,,,,,,,,,,,,,,,,,,,,,,,,,,,,,,,,,,,,,,,,,,,,,
941810,001,2022-11-20_17h57.10.232,Info_measure_main_exp,2022.2.2,Win32,60.0240096,,,,,,,,,,,,,,,,,,masks/mask_001.jpg,,,,,,,,,,,,,,,,,,,,,,,,,,,,,,,,,,,,,,,,,,,0,1,1,0,1,,,,,,,,,,,,,,,,,,,,,,,,,,,,,,,,,,,,,,,,,,,,,,
941810,001,2022-11-20_17h57.10.232,Info_measure_main_exp,2022.2.2,Win32,60.0240096,,,,,,,,,,,,,,,,,,masks/mask_005.jpg,,,,,,,,,,,,,,,,,,,,,,,,,,,,,,,,,,,,,,,,,,,0,2,2,4,1,,,,,,,,,,,,,,,,,,,,,,,,,,,,,,,,,,,,,,,,,,,,,,
941810,001,2022-11-20_17h57.10.232,Info_measure_main_exp,2022.2.2,Win32,60.0240096,,,,,,,,,,,,,,,,,,masks/mask_003.jpg,,,,,,,,,,,,,,,,,,,,,,,,,,,,,,,,,,,,,,,,,,,0,3,3,2,1,,,,,,,,,,,,,,,,,,,,,,,,,,,,,,,,,,,,,,,,,,,,,,
941810,001,2022-11-20_17h57.10.232,Info_measure_main_exp,2022.2.2,Win32,60.0240096,,,,,,,,,,,,,,,,,,masks/mask_002.jpg,,,,,,,,,,,,,,,,,,,,,,,,,,,,,,,,,,,,,,,,,,,0,4,4,1,1,,,,,,,,,,,,,,,,,,,,,,,,,,,,,,,,,,,,,,,,,,,,,,
941810,001,2022-11-20_17h57.10.232,Info_measure_main_exp,2022.2.2,Win32,60.0240096,,,,,,,,,,,,,,,,,,masks/mask_003.jpg,,,,,,,,,,,,,,,,,,,,,,,,,,,,,,,,,,,,,,,,,,,,,,,,0,0,0,2,1,,,,,,,,,,,,,,,,,,,,,,,,,,,,,,,,,,,,,,,,,
941810,001,2022-11-20_17h57.10.232,Info_measure_main_exp,2022.2.2,Win32,60.0240096,,,,,,,,,,,,,,,,,,masks/mask_002.jpg,,,,,,,,,,,,,,,,,,,,,,,,,,,,,,,,,,,,,,,,,,,,,,,,0,1,1,1,1,,,,,,,,,,,,,,,,,,,,,,,,,,,,,,,,,,,,,,,,,
941810,001,2022-11-20_17h57.10.232,Info_measure_main_exp,2022.2.2,Win32,60.0240096,,,,,,,,,,,,,,,,,,masks/mask_001.jpg,,,,,,,,,,,,,,,,,,,,,,,,,,,,,,,,,,,,,,,,,,,,,,,,0,2,2,0,1,,,,,,,,,,,,,,,,,,,,,,,,,,,,,,,,,,,,,,,,,
941810,001,2022-11-20_17h57.10.232,Info_measure_main_exp,2022.2.2,Win32,60.0240096,,,,,,,,,,,,,,,,,,masks/mask_004.jpg,,,,,,,,,,,,,,,,,,,,,,,,,,,,,,,,,,,,,,,,,,,,,,,,0,3,3,3,1,,,,,,,,,,,,,,,,,,,,,,,,,,,,,,,,,,,,,,,,,
941810,001,2022-11-20_17h57.10.232,Info_measure_main_exp,2022.2.2,Win32,60.0240096,,,,,,,,,,,,,,,,,,masks/mask_005.jpg,,,,,,,,,,,,,,,,,,,,,,,,,,,,,,,,,,,,,,,,,,,,,,,,0,4,4,4,1,,,,,,,,,,,,,,,,,,,,,,,,,,,,,,,,,,,,,,,,,
941810,001,2022-11-20_17h57.10.232,Info_measure_main_exp,2022.2.2,Win32,60.0240096,,,,,,,,,,,,,,,,,,,,,,,,,,,,,,7,1.016,1,,,,,,,,,,,,0,131,5,5,2190,1950,absent_patch/patch0002190.jpg,absent_patch/patch0001950.jpg,,,,,,,,,,,,,,,,,,,,0.05787037,0.142361111,1,0,0,response1disk,25,0.001157407,0.012731481,1,0,0,center_square,0,24,24,73,1,,,,,,,,,,,,,,,,,,,,,,,
941810,001,2022-11-20_17h57.10.232,Info_measure_main_exp,2022.2.2,Win32,60.0240096,,,,,,,,,,,,,,,,,,masks/mask_003.jpg,,,,,,,,,,,,,,,,,,,,,,,,,,,,,,,,,,,,,,,,,,,0,0,0,2,1,,,,,,,,,,,,,,,,,,,,,,,,,,,,,,,,,,,,,,,,,,,,,,
941810,001,2022-11-20_17h57.10.232,Info_measure_main_exp,2022.2.2,Win32,60.0240096,,,,,,,,,,,,,,,,,,masks/mask_004.jpg,,,,,,,,,,,,,,,,,,,,,,,,,,,,,,,,,,,,,,,,,,,0,1,1,3,1,,,,,,,,,,,,,,,,,,,,,,,,,,,,,,,,,,,,,,,,,,,,,,
941810,001,2022-11-20_17h57.10.232,Info_measure_main_exp,2022.2.2,Win32,60.0240096,,,,,,,,,,,,,,,,,,masks/mask_001.jpg,,,,,,,,,,,,,,,,,,,,,,,,,,,,,,,,,,,,,,,,,,,0,2,2,0,1,,,,,,,,,,,,,,,,,,,,,,,,,,,,,,,,,,,,,,,,,,,,,,
941810,001,2022-11-20_17h57.10.232,Info_measure_main_exp,2022.2.2,Win32,60.0240096,,,,,,,,,,,,,,,,,,masks/mask_005.jpg,,,,,,,,,,,,,,,,,,,,,,,,,,,,,,,,,,,,,,,,,,,0,3,3,4,1,,,,,,,,,,,,,,,,,,,,,,,,,,,,,,,,,,,,,,,,,,,,,,
941810,001,2022-11-20_17h57.10.232,Info_measure_main_exp,2022.2.2,Win32,60.0240096,,,,,,,,,,,,,,,,,,masks/mask_002.jpg,,,,,,,,,,,,,,,,,,,,,,,,,,,,,,,,,,,,,,,,,,,0,4,4,1,1,,,,,,,,,,,,,,,,,,,,,,,,,,,,,,,,,,,,,,,,,,,,,,
941810,001,2022-11-20_17h57.10.232,Info_measure_main_exp,2022.2.2,Win32,60.0240096,,,,,,,,,,,,,,,,,,masks/mask_005.jpg,,,,,,,,,,,,,,,,,,,,,,,,,,,,,,,,,,,,,,,,,,,,,,,,0,0,0,4,1,,,,,,,,,,,,,,,,,,,,,,,,,,,,,,,,,,,,,,,,,
941810,001,2022-11-20_17h57.10.232,Info_measure_main_exp,2022.2.2,Win32,60.0240096,,,,,,,,,,,,,,,,,,masks/mask_003.jpg,,,,,,,,,,,,,,,,,,,,,,,,,,,,,,,,,,,,,,,,,,,,,,,,0,1,1,2,1,,,,,,,,,,,,,,,,,,,,,,,,,,,,,,,,,,,,,,,,,
941810,001,2022-11-20_17h57.10.232,Info_measure_main_exp,2022.2.2,Win32,60.0240096,,,,,,,,,,,,,,,,,,masks/mask_004.jpg,,,,,,,,,,,,,,,,,,,,,,,,,,,,,,,,,,,,,,,,,,,,,,,,0,2,2,3,1,,,,,,,,,,,,,,,,,,,,,,,,,,,,,,,,,,,,,,,,,
941810,001,2022-11-20_17h57.10.232,Info_measure_main_exp,2022.2.2,Win32,60.0240096,,,,,,,,,,,,,,,,,,masks/mask_001.jpg,,,,,,,,,,,,,,,,,,,,,,,,,,,,,,,,,,,,,,,,,,,,,,,,0,3,3,0,1,,,,,,,,,,,,,,,,,,,,,,,,,,,,,,,,,,,,,,,,,
941810,001,2022-11-20_17h57.10.232,Info_measure_main_exp,2022.2.2,Win32,60.0240096,,,,,,,,,,,,,,,,,,masks/mask_002.jpg,,,,,,,,,,,,,,,,,,,,,,,,,,,,,,,,,,,,,,,,,,,,,,,,0,4,4,1,1,,,,,,,,,,,,,,,,,,,,,,,,,,,,,,,,,,,,,,,,,
941810,001,2022-11-20_17h57.10.232,Info_measure_main_exp,2022.2.2,Win32,60.0240096,,,,,,,,,,,,,,,,,,,,,,,,,,,,,,7,0.816,1,,,,,,,,,,,,0,131,5,5,2082,2250,absent_patch/patch0002082.jpg,absent_patch/patch0002250.jpg,,,,,,,,,,,,,,,,,,,,0.074074074,0.163194444,1,0,0,response1disk,26,0.010416667,0.012731481,1,0,0,center_square,0,25,25,3,1,,,,,,,,,,,,,,,,,,,,,,,
941810,001,2022-11-20_17h57.10.232,Info_measure_main_exp,2022.2.2,Win32,60.0240096,,,,,,,,,,,,,,,,,,masks/mask_005.jpg,,,,,,,,,,,,,,,,,,,,,,,,,,,,,,,,,,,,,,,,,,,0,0,0,4,1,,,,,,,,,,,,,,,,,,,,,,,,,,,,,,,,,,,,,,,,,,,,,,
941810,001,2022-11-20_17h57.10.232,Info_measure_main_exp,2022.2.2,Win32,60.0240096,,,,,,,,,,,,,,,,,,masks/mask_004.jpg,,,,,,,,,,,,,,,,,,,,,,,,,,,,,,,,,,,,,,,,,,,0,1,1,3,1,,,,,,,,,,,,,,,,,,,,,,,,,,,,,,,,,,,,,,,,,,,,,,
941810,001,2022-11-20_17h57.10.232,Info_measure_main_exp,2022.2.2,Win32,60.0240096,,,,,,,,,,,,,,,,,,masks/mask_003.jpg,,,,,,,,,,,,,,,,,,,,,,,,,,,,,,,,,,,,,,,,,,,0,2,2,2,1,,,,,,,,,,,,,,,,,,,,,,,,,,,,,,,,,,,,,,,,,,,,,,
941810,001,2022-11-20_17h57.10.232,Info_measure_main_exp,2022.2.2,Win32,60.0240096,,,,,,,,,,,,,,,,,,masks/mask_002.jpg,,,,,,,,,,,,,,,,,,,,,,,,,,,,,,,,,,,,,,,,,,,0,3,3,1,1,,,,,,,,,,,,,,,,,,,,,,,,,,,,,,,,,,,,,,,,,,,,,,
941810,001,2022-11-20_17h57.10.232,Info_measure_main_exp,2022.2.2,Win32,60.0240096,,,,,,,,,,,,,,,,,,masks/mask_001.jpg,,,,,,,,,,,,,,,,,,,,,,,,,,,,,,,,,,,,,,,,,,,0,4,4,0,1,,,,,,,,,,,,,,,,,,,,,,,,,,,,,,,,,,,,,,,,,,,,,,
941810,001,2022-11-20_17h57.10.232,Info_measure_main_exp,2022.2.2,Win32,60.0240096,,,,,,,,,,,,,,,,,,masks/mask_002.jpg,,,,,,,,,,,,,,,,,,,,,,,,,,,,,,,,,,,,,,,,,,,,,,,,0,0,0,1,1,,,,,,,,,,,,,,,,,,,,,,,,,,,,,,,,,,,,,,,,,
941810,001,2022-11-20_17h57.10.232,Info_measure_main_exp,2022.2.2,Win32,60.0240096,,,,,,,,,,,,,,,,,,masks/mask_005.jpg,,,,,,,,,,,,,,,,,,,,,,,,,,,,,,,,,,,,,,,,,,,,,,,,0,1,1,4,1,,,,,,,,,,,,,,,,,,,,,,,,,,,,,,,,,,,,,,,,,
941810,001,2022-11-20_17h57.10.232,Info_measure_main_exp,2022.2.2,Win32,60.0240096,,,,,,,,,,,,,,,,,,masks/mask_001.jpg,,,,,,,,,,,,,,,,,,,,,,,,,,,,,,,,,,,,,,,,,,,,,,,,0,2,2,0,1,,,,,,,,,,,,,,,,,,,,,,,,,,,,,,,,,,,,,,,,,
941810,001,2022-11-20_17h57.10.232,Info_measure_main_exp,2022.2.2,Win32,60.0240096,,,,,,,,,,,,,,,,,,masks/mask_004.jpg,,,,,,,,,,,,,,,,,,,,,,,,,,,,,,,,,,,,,,,,,,,,,,,,0,3,3,3,1,,,,,,,,,,,,,,,,,,,,,,,,,,,,,,,,,,,,,,,,,
941810,001,2022-11-20_17h57.10.232,Info_measure_main_exp,2022.2.2,Win32,60.0240096,,,,,,,,,,,,,,,,,,masks/mask_003.jpg,,,,,,,,,,,,,,,,,,,,,,,,,,,,,,,,,,,,,,,,,,,,,,,,0,4,4,2,1,,,,,,,,,,,,,,,,,,,,,,,,,,,,,,,,,,,,,,,,,
941810,001,2022-11-20_17h57.10.232,Info_measure_main_exp,2022.2.2,Win32,60.0240096,,,,,,,,,,,,,,,,,,,,,,,,,,,,,,7,0.766,1,,,,,,,,,,,,0,131,5,5,2190,2238,absent_patch/patch0002190.jpg,absent_patch/patch0002238.jpg,,,,,,,,,,,,,,,,,,,,0.0625,0.131944444,1,0,0,response1disk,27,0.00462963,0.003472222,1,0,0,center_square,0,26,26,53,1,,,,,,,,,,,,,,,,,,,,,,,
941810,001,2022-11-20_17h57.10.232,Info_measure_main_exp,2022.2.2,Win32,60.0240096,,,,,,,,,,,,,,,,,,masks/mask_003.jpg,,,,,,,,,,,,,,,,,,,,,,,,,,,,,,,,,,,,,,,,,,,0,0,0,2,1,,,,,,,,,,,,,,,,,,,,,,,,,,,,,,,,,,,,,,,,,,,,,,
941810,001,2022-11-20_17h57.10.232,Info_measure_main_exp,2022.2.2,Win32,60.0240096,,,,,,,,,,,,,,,,,,masks/mask_004.jpg,,,,,,,,,,,,,,,,,,,,,,,,,,,,,,,,,,,,,,,,,,,0,1,1,3,1,,,,,,,,,,,,,,,,,,,,,,,,,,,,,,,,,,,,,,,,,,,,,,
941810,001,2022-11-20_17h57.10.232,Info_measure_main_exp,2022.2.2,Win32,60.0240096,,,,,,,,,,,,,,,,,,masks/mask_001.jpg,,,,,,,,,,,,,,,,,,,,,,,,,,,,,,,,,,,,,,,,,,,0,2,2,0,1,,,,,,,,,,,,,,,,,,,,,,,,,,,,,,,,,,,,,,,,,,,,,,
941810,001,2022-11-20_17h57.10.232,Info_measure_main_exp,2022.2.2,Win32,60.0240096,,,,,,,,,,,,,,,,,,masks/mask_002.jpg,,,,,,,,,,,,,,,,,,,,,,,,,,,,,,,,,,,,,,,,,,,0,3,3,1,1,,,,,,,,,,,,,,,,,,,,,,,,,,,,,,,,,,,,,,,,,,,,,,
941810,001,2022-11-20_17h57.10.232,Info_measure_main_exp,2022.2.2,Win32,60.0240096,,,,,,,,,,,,,,,,,,masks/mask_005.jpg,,,,,,,,,,,,,,,,,,,,,,,,,,,,,,,,,,,,,,,,,,,0,4,4,4,1,,,,,,,,,,,,,,,,,,,,,,,,,,,,,,,,,,,,,,,,,,,,,,
941810,001,2022-11-20_17h57.10.232,Info_measure_main_exp,2022.2.2,Win32,60.0240096,,,,,,,,,,,,,,,,,,masks/mask_005.jpg,,,,,,,,,,,,,,,,,,,,,,,,,,,,,,,,,,,,,,,,,,,,,,,,0,0,0,4,1,,,,,,,,,,,,,,,,,,,,,,,,,,,,,,,,,,,,,,,,,
941810,001,2022-11-20_17h57.10.232,Info_measure_main_exp,2022.2.2,Win32,60.0240096,,,,,,,,,,,,,,,,,,masks/mask_001.jpg,,,,,,,,,,,,,,,,,,,,,,,,,,,,,,,,,,,,,,,,,,,,,,,,0,1,1,0,1,,,,,,,,,,,,,,,,,,,,,,,,,,,,,,,,,,,,,,,,,
941810,001,2022-11-20_17h57.10.232,Info_measure_main_exp,2022.2.2,Win32,60.0240096,,,,,,,,,,,,,,,,,,masks/mask_004.jpg,,,,,,,,,,,,,,,,,,,,,,,,,,,,,,,,,,,,,,,,,,,,,,,,0,2,2,3,1,,,,,,,,,,,,,,,,,,,,,,,,,,,,,,,,,,,,,,,,,
941810,001,2022-11-20_17h57.10.232,Info_measure_main_exp,2022.2.2,Win32,60.0240096,,,,,,,,,,,,,,,,,,masks/mask_003.jpg,,,,,,,,,,,,,,,,,,,,,,,,,,,,,,,,,,,,,,,,,,,,,,,,0,3,3,2,1,,,,,,,,,,,,,,,,,,,,,,,,,,,,,,,,,,,,,,,,,
941810,001,2022-11-20_17h57.10.232,Info_measure_main_exp,2022.2.2,Win32,60.0240096,,,,,,,,,,,,,,,,,,masks/mask_002.jpg,,,,,,,,,,,,,,,,,,,,,,,,,,,,,,,,,,,,,,,,,,,,,,,,0,4,4,1,1,,,,,,,,,,,,,,,,,,,,,,,,,,,,,,,,,,,,,,,,,
941810,001,2022-11-20_17h57.10.232,Info_measure_main_exp,2022.2.2,Win32,60.0240096,,,,,,,,,,,,,,,,,,,,,,,,,,,,,,7,0.75,1,,,,,,,,,,,,0,131,5,5,2082,2166,absent_patch/patch0002082.jpg,absent_patch/patch0002166.jpg,,,,,,,,,,,,,,,,,,,,0.068287037,0.168981481,1,0,0,response1disk,28,0.003472222,-0.005787037,1,0,0,center_square,0,27,27,43,1,,,,,,,,,,,,,,,,,,,,,,,
941810,001,2022-11-20_17h57.10.232,Info_measure_main_exp,2022.2.2,Win32,60.0240096,,,,,,,,,,,,,,,,,,masks/mask_004.jpg,,,,,,,,,,,,,,,,,,,,,,,,,,,,,,,,,,,,,,,,,,,0,0,0,3,1,,,,,,,,,,,,,,,,,,,,,,,,,,,,,,,,,,,,,,,,,,,,,,
941810,001,2022-11-20_17h57.10.232,Info_measure_main_exp,2022.2.2,Win32,60.0240096,,,,,,,,,,,,,,,,,,masks/mask_005.jpg,,,,,,,,,,,,,,,,,,,,,,,,,,,,,,,,,,,,,,,,,,,0,1,1,4,1,,,,,,,,,,,,,,,,,,,,,,,,,,,,,,,,,,,,,,,,,,,,,,
941810,001,2022-11-20_17h57.10.232,Info_measure_main_exp,2022.2.2,Win32,60.0240096,,,,,,,,,,,,,,,,,,masks/mask_001.jpg,,,,,,,,,,,,,,,,,,,,,,,,,,,,,,,,,,,,,,,,,,,0,2,2,0,1,,,,,,,,,,,,,,,,,,,,,,,,,,,,,,,,,,,,,,,,,,,,,,
941810,001,2022-11-20_17h57.10.232,Info_measure_main_exp,2022.2.2,Win32,60.0240096,,,,,,,,,,,,,,,,,,masks/mask_003.jpg,,,,,,,,,,,,,,,,,,,,,,,,,,,,,,,,,,,,,,,,,,,0,3,3,2,1,,,,,,,,,,,,,,,,,,,,,,,,,,,,,,,,,,,,,,,,,,,,,,
941810,001,2022-11-20_17h57.10.232,Info_measure_main_exp,2022.2.2,Win32,60.0240096,,,,,,,,,,,,,,,,,,masks/mask_002.jpg,,,,,,,,,,,,,,,,,,,,,,,,,,,,,,,,,,,,,,,,,,,0,4,4,1,1,,,,,,,,,,,,,,,,,,,,,,,,,,,,,,,,,,,,,,,,,,,,,,
941810,001,2022-11-20_17h57.10.232,Info_measure_main_exp,2022.2.2,Win32,60.0240096,,,,,,,,,,,,,,,,,,masks/mask_002.jpg,,,,,,,,,,,,,,,,,,,,,,,,,,,,,,,,,,,,,,,,,,,,,,,,0,0,0,1,1,,,,,,,,,,,,,,,,,,,,,,,,,,,,,,,,,,,,,,,,,
941810,001,2022-11-20_17h57.10.232,Info_measure_main_exp,2022.2.2,Win32,60.0240096,,,,,,,,,,,,,,,,,,masks/mask_003.jpg,,,,,,,,,,,,,,,,,,,,,,,,,,,,,,,,,,,,,,,,,,,,,,,,0,1,1,2,1,,,,,,,,,,,,,,,,,,,,,,,,,,,,,,,,,,,,,,,,,
941810,001,2022-11-20_17h57.10.232,Info_measure_main_exp,2022.2.2,Win32,60.0240096,,,,,,,,,,,,,,,,,,masks/mask_001.jpg,,,,,,,,,,,,,,,,,,,,,,,,,,,,,,,,,,,,,,,,,,,,,,,,0,2,2,0,1,,,,,,,,,,,,,,,,,,,,,,,,,,,,,,,,,,,,,,,,,
941810,001,2022-11-20_17h57.10.232,Info_measure_main_exp,2022.2.2,Win32,60.0240096,,,,,,,,,,,,,,,,,,masks/mask_004.jpg,,,,,,,,,,,,,,,,,,,,,,,,,,,,,,,,,,,,,,,,,,,,,,,,0,3,3,3,1,,,,,,,,,,,,,,,,,,,,,,,,,,,,,,,,,,,,,,,,,
941810,001,2022-11-20_17h57.10.232,Info_measure_main_exp,2022.2.2,Win32,60.0240096,,,,,,,,,,,,,,,,,,masks/mask_005.jpg,,,,,,,,,,,,,,,,,,,,,,,,,,,,,,,,,,,,,,,,,,,,,,,,0,4,4,4,1,,,,,,,,,,,,,,,,,,,,,,,,,,,,,,,,,,,,,,,,,
941810,001,2022-11-20_17h57.10.232,Info_measure_main_exp,2022.2.2,Win32,60.0240096,,,,,,,,,,,,,,,,,,,,,,,,,,,,,,3,1.583,1,,,,,,,,,,,,0,131,5,5,2298,2214,absent_patch/patch0002298.jpg,absent_patch/patch0002214.jpg,,,,,,,,,,,,,,,,,,,,-0.056712963,-0.130787037,1,0,0,response5disk,29,0.00462963,-0.00462963,1,0,0,center_square,0,28,28,99,1,,,,,,,,,,,,,,,,,,,,,,,
941810,001,2022-11-20_17h57.10.232,Info_measure_main_exp,2022.2.2,Win32,60.0240096,,,,,,,,,,,,,,,,,,masks/mask_003.jpg,,,,,,,,,,,,,,,,,,,,,,,,,,,,,,,,,,,,,,,,,,,0,0,0,2,1,,,,,,,,,,,,,,,,,,,,,,,,,,,,,,,,,,,,,,,,,,,,,,
941810,001,2022-11-20_17h57.10.232,Info_measure_main_exp,2022.2.2,Win32,60.0240096,,,,,,,,,,,,,,,,,,masks/mask_005.jpg,,,,,,,,,,,,,,,,,,,,,,,,,,,,,,,,,,,,,,,,,,,0,1,1,4,1,,,,,,,,,,,,,,,,,,,,,,,,,,,,,,,,,,,,,,,,,,,,,,
941810,001,2022-11-20_17h57.10.232,Info_measure_main_exp,2022.2.2,Win32,60.0240096,,,,,,,,,,,,,,,,,,masks/mask_001.jpg,,,,,,,,,,,,,,,,,,,,,,,,,,,,,,,,,,,,,,,,,,,0,2,2,0,1,,,,,,,,,,,,,,,,,,,,,,,,,,,,,,,,,,,,,,,,,,,,,,
941810,001,2022-11-20_17h57.10.232,Info_measure_main_exp,2022.2.2,Win32,60.0240096,,,,,,,,,,,,,,,,,,masks/mask_004.jpg,,,,,,,,,,,,,,,,,,,,,,,,,,,,,,,,,,,,,,,,,,,0,3,3,3,1,,,,,,,,,,,,,,,,,,,,,,,,,,,,,,,,,,,,,,,,,,,,,,
941810,001,2022-11-20_17h57.10.232,Info_measure_main_exp,2022.2.2,Win32,60.0240096,,,,,,,,,,,,,,,,,,masks/mask_002.jpg,,,,,,,,,,,,,,,,,,,,,,,,,,,,,,,,,,,,,,,,,,,0,4,4,1,1,,,,,,,,,,,,,,,,,,,,,,,,,,,,,,,,,,,,,,,,,,,,,,
941810,001,2022-11-20_17h57.10.232,Info_measure_main_exp,2022.2.2,Win32,60.0240096,,,,,,,,,,,,,,,,,,masks/mask_004.jpg,,,,,,,,,,,,,,,,,,,,,,,,,,,,,,,,,,,,,,,,,,,,,,,,0,0,0,3,1,,,,,,,,,,,,,,,,,,,,,,,,,,,,,,,,,,,,,,,,,
941810,001,2022-11-20_17h57.10.232,Info_measure_main_exp,2022.2.2,Win32,60.0240096,,,,,,,,,,,,,,,,,,masks/mask_003.jpg,,,,,,,,,,,,,,,,,,,,,,,,,,,,,,,,,,,,,,,,,,,,,,,,0,1,1,2,1,,,,,,,,,,,,,,,,,,,,,,,,,,,,,,,,,,,,,,,,,
941810,001,2022-11-20_17h57.10.232,Info_measure_main_exp,2022.2.2,Win32,60.0240096,,,,,,,,,,,,,,,,,,masks/mask_002.jpg,,,,,,,,,,,,,,,,,,,,,,,,,,,,,,,,,,,,,,,,,,,,,,,,0,2,2,1,1,,,,,,,,,,,,,,,,,,,,,,,,,,,,,,,,,,,,,,,,,
941810,001,2022-11-20_17h57.10.232,Info_measure_main_exp,2022.2.2,Win32,60.0240096,,,,,,,,,,,,,,,,,,masks/mask_005.jpg,,,,,,,,,,,,,,,,,,,,,,,,,,,,,,,,,,,,,,,,,,,,,,,,0,3,3,4,1,,,,,,,,,,,,,,,,,,,,,,,,,,,,,,,,,,,,,,,,,
941810,001,2022-11-20_17h57.10.232,Info_measure_main_exp,2022.2.2,Win32,60.0240096,,,,,,,,,,,,,,,,,,masks/mask_001.jpg,,,,,,,,,,,,,,,,,,,,,,,,,,,,,,,,,,,,,,,,,,,,,,,,0,4,4,0,1,,,,,,,,,,,,,,,,,,,,,,,,,,,,,,,,,,,,,,,,,
941810,001,2022-11-20_17h57.10.232,Info_measure_main_exp,2022.2.2,Win32,60.0240096,,,,,,,,,,,,,,,,,,,,,,,,,,,,,,7,0.933,1,,,,,,,,,,,,0,131,5,5,1986,1974,absent_patch/patch0001986.jpg,absent_patch/patch0001974.jpg,,,,,,,,,,,,,,,,,,,,0.032407407,0.100694444,1,0,0,response1disk,30,-0.002314815,-0.015046296,1,0,0,center_square,0,29,29,25,1,,,,,,,,,,,,,,,,,,,,,,,
941810,001,2022-11-20_17h57.10.232,Info_measure_main_exp,2022.2.2,Win32,60.0240096,,,,,,,,,,,,,,,,,,masks/mask_001.jpg,,,,,,,,,,,,,,,,,,,,,,,,,,,,,,,,,,,,,,,,,,,0,0,0,0,1,,,,,,,,,,,,,,,,,,,,,,,,,,,,,,,,,,,,,,,,,,,,,,
941810,001,2022-11-20_17h57.10.232,Info_measure_main_exp,2022.2.2,Win32,60.0240096,,,,,,,,,,,,,,,,,,masks/mask_004.jpg,,,,,,,,,,,,,,,,,,,,,,,,,,,,,,,,,,,,,,,,,,,0,1,1,3,1,,,,,,,,,,,,,,,,,,,,,,,,,,,,,,,,,,,,,,,,,,,,,,
941810,001,2022-11-20_17h57.10.232,Info_measure_main_exp,2022.2.2,Win32,60.0240096,,,,,,,,,,,,,,,,,,masks/mask_002.jpg,,,,,,,,,,,,,,,,,,,,,,,,,,,,,,,,,,,,,,,,,,,0,2,2,1,1,,,,,,,,,,,,,,,,,,,,,,,,,,,,,,,,,,,,,,,,,,,,,,
941810,001,2022-11-20_17h57.10.232,Info_measure_main_exp,2022.2.2,Win32,60.0240096,,,,,,,,,,,,,,,,,,masks/mask_003.jpg,,,,,,,,,,,,,,,,,,,,,,,,,,,,,,,,,,,,,,,,,,,0,3,3,2,1,,,,,,,,,,,,,,,,,,,,,,,,,,,,,,,,,,,,,,,,,,,,,,
941810,001,2022-11-20_17h57.10.232,Info_measure_main_exp,2022.2.2,Win32,60.0240096,,,,,,,,,,,,,,,,,,masks/mask_005.jpg,,,,,,,,,,,,,,,,,,,,,,,,,,,,,,,,,,,,,,,,,,,0,4,4,4,1,,,,,,,,,,,,,,,,,,,,,,,,,,,,,,,,,,,,,,,,,,,,,,
941810,001,2022-11-20_17h57.10.232,Info_measure_main_exp,2022.2.2,Win32,60.0240096,,,,,,,,,,,,,,,,,,masks/mask_005.jpg,,,,,,,,,,,,,,,,,,,,,,,,,,,,,,,,,,,,,,,,,,,,,,,,0,0,0,4,1,,,,,,,,,,,,,,,,,,,,,,,,,,,,,,,,,,,,,,,,,
941810,001,2022-11-20_17h57.10.232,Info_measure_main_exp,2022.2.2,Win32,60.0240096,,,,,,,,,,,,,,,,,,masks/mask_003.jpg,,,,,,,,,,,,,,,,,,,,,,,,,,,,,,,,,,,,,,,,,,,,,,,,0,1,1,2,1,,,,,,,,,,,,,,,,,,,,,,,,,,,,,,,,,,,,,,,,,
941810,001,2022-11-20_17h57.10.232,Info_measure_main_exp,2022.2.2,Win32,60.0240096,,,,,,,,,,,,,,,,,,masks/mask_001.jpg,,,,,,,,,,,,,,,,,,,,,,,,,,,,,,,,,,,,,,,,,,,,,,,,0,2,2,0,1,,,,,,,,,,,,,,,,,,,,,,,,,,,,,,,,,,,,,,,,,
941810,001,2022-11-20_17h57.10.232,Info_measure_main_exp,2022.2.2,Win32,60.0240096,,,,,,,,,,,,,,,,,,masks/mask_002.jpg,,,,,,,,,,,,,,,,,,,,,,,,,,,,,,,,,,,,,,,,,,,,,,,,0,3,3,1,1,,,,,,,,,,,,,,,,,,,,,,,,,,,,,,,,,,,,,,,,,
941810,001,2022-11-20_17h57.10.232,Info_measure_main_exp,2022.2.2,Win32,60.0240096,,,,,,,,,,,,,,,,,,masks/mask_004.jpg,,,,,,,,,,,,,,,,,,,,,,,,,,,,,,,,,,,,,,,,,,,,,,,,0,4,4,3,1,,,,,,,,,,,,,,,,,,,,,,,,,,,,,,,,,,,,,,,,,
941810,001,2022-11-20_17h57.10.232,Info_measure_main_exp,2022.2.2,Win32,60.0240096,,,,,,,,,,,,,,,,,,,,,,,,,,,,,,7,0.717,1,,,,,,,,,,,,0,131,5,5,1950,2166,absent_patch/patch0001950.jpg,absent_patch/patch0002166.jpg,,,,,,,,,,,,,,,,,,,,0.055555556,0.179398148,1,0,0,response1disk,31,-0.009259259,0.012731481,1,0,0,center_square,0,30,30,0,1,,,,,,,,,,,,,,,,,,,,,,,
941810,001,2022-11-20_17h57.10.232,Info_measure_main_exp,2022.2.2,Win32,60.0240096,,,,,,,,,,,,,,,,,,masks/mask_004.jpg,,,,,,,,,,,,,,,,,,,,,,,,,,,,,,,,,,,,,,,,,,,0,0,0,3,1,,,,,,,,,,,,,,,,,,,,,,,,,,,,,,,,,,,,,,,,,,,,,,
941810,001,2022-11-20_17h57.10.232,Info_measure_main_exp,2022.2.2,Win32,60.0240096,,,,,,,,,,,,,,,,,,masks/mask_002.jpg,,,,,,,,,,,,,,,,,,,,,,,,,,,,,,,,,,,,,,,,,,,0,1,1,1,1,,,,,,,,,,,,,,,,,,,,,,,,,,,,,,,,,,,,,,,,,,,,,,
941810,001,2022-11-20_17h57.10.232,Info_measure_main_exp,2022.2.2,Win32,60.0240096,,,,,,,,,,,,,,,,,,masks/mask_001.jpg,,,,,,,,,,,,,,,,,,,,,,,,,,,,,,,,,,,,,,,,,,,0,2,2,0,1,,,,,,,,,,,,,,,,,,,,,,,,,,,,,,,,,,,,,,,,,,,,,,
941810,001,2022-11-20_17h57.10.232,Info_measure_main_exp,2022.2.2,Win32,60.0240096,,,,,,,,,,,,,,,,,,masks/mask_005.jpg,,,,,,,,,,,,,,,,,,,,,,,,,,,,,,,,,,,,,,,,,,,0,3,3,4,1,,,,,,,,,,,,,,,,,,,,,,,,,,,,,,,,,,,,,,,,,,,,,,
941810,001,2022-11-20_17h57.10.232,Info_measure_main_exp,2022.2.2,Win32,60.0240096,,,,,,,,,,,,,,,,,,masks/mask_003.jpg,,,,,,,,,,,,,,,,,,,,,,,,,,,,,,,,,,,,,,,,,,,0,4,4,2,1,,,,,,,,,,,,,,,,,,,,,,,,,,,,,,,,,,,,,,,,,,,,,,
941810,001,2022-11-20_17h57.10.232,Info_measure_main_exp,2022.2.2,Win32,60.0240096,,,,,,,,,,,,,,,,,,masks/mask_002.jpg,,,,,,,,,,,,,,,,,,,,,,,,,,,,,,,,,,,,,,,,,,,,,,,,0,0,0,1,1,,,,,,,,,,,,,,,,,,,,,,,,,,,,,,,,,,,,,,,,,
941810,001,2022-11-20_17h57.10.232,Info_measure_main_exp,2022.2.2,Win32,60.0240096,,,,,,,,,,,,,,,,,,masks/mask_001.jpg,,,,,,,,,,,,,,,,,,,,,,,,,,,,,,,,,,,,,,,,,,,,,,,,0,1,1,0,1,,,,,,,,,,,,,,,,,,,,,,,,,,,,,,,,,,,,,,,,,
941810,001,2022-11-20_17h57.10.232,Info_measure_main_exp,2022.2.2,Win32,60.0240096,,,,,,,,,,,,,,,,,,masks/mask_004.jpg,,,,,,,,,,,,,,,,,,,,,,,,,,,,,,,,,,,,,,,,,,,,,,,,0,2,2,3,1,,,,,,,,,,,,,,,,,,,,,,,,,,,,,,,,,,,,,,,,,
941810,001,2022-11-20_17h57.10.232,Info_measure_main_exp,2022.2.2,Win32,60.0240096,,,,,,,,,,,,,,,,,,masks/mask_005.jpg,,,,,,,,,,,,,,,,,,,,,,,,,,,,,,,,,,,,,,,,,,,,,,,,0,3,3,4,1,,,,,,,,,,,,,,,,,,,,,,,,,,,,,,,,,,,,,,,,,
941810,001,2022-11-20_17h57.10.232,Info_measure_main_exp,2022.2.2,Win32,60.0240096,,,,,,,,,,,,,,,,,,masks/mask_003.jpg,,,,,,,,,,,,,,,,,,,,,,,,,,,,,,,,,,,,,,,,,,,,,,,,0,4,4,2,1,,,,,,,,,,,,,,,,,,,,,,,,,,,,,,,,,,,,,,,,,
941810,001,2022-11-20_17h57.10.232,Info_measure_main_exp,2022.2.2,Win32,60.0240096,,,,,,,,,,,,,,,,,,,,,,,,,,,,,,3,1.6,1,,,,,,,,,,,,1,131,5,5,1,2154,present_patch/cong_131_5_a.jpg,absent_patch/patch0002154.jpg,,,,,,,,,,,,,,,,,,,,-0.060185185,-0.111111111,1,0,0,response5disk,32,-0.008101852,-0.002314815,1,0,0,center_square,0,31,31,87,1,,,,,,,,,,,,,,,,,,,,,,,
941810,001,2022-11-20_17h57.10.232,Info_measure_main_exp,2022.2.2,Win32,60.0240096,,,,,,,,,,,,,,,,,,masks/mask_005.jpg,,,,,,,,,,,,,,,,,,,,,,,,,,,,,,,,,,,,,,,,,,,0,0,0,4,1,,,,,,,,,,,,,,,,,,,,,,,,,,,,,,,,,,,,,,,,,,,,,,
941810,001,2022-11-20_17h57.10.232,Info_measure_main_exp,2022.2.2,Win32,60.0240096,,,,,,,,,,,,,,,,,,masks/mask_002.jpg,,,,,,,,,,,,,,,,,,,,,,,,,,,,,,,,,,,,,,,,,,,0,1,1,1,1,,,,,,,,,,,,,,,,,,,,,,,,,,,,,,,,,,,,,,,,,,,,,,
941810,001,2022-11-20_17h57.10.232,Info_measure_main_exp,2022.2.2,Win32,60.0240096,,,,,,,,,,,,,,,,,,masks/mask_004.jpg,,,,,,,,,,,,,,,,,,,,,,,,,,,,,,,,,,,,,,,,,,,0,2,2,3,1,,,,,,,,,,,,,,,,,,,,,,,,,,,,,,,,,,,,,,,,,,,,,,
941810,001,2022-11-20_17h57.10.232,Info_measure_main_exp,2022.2.2,Win32,60.0240096,,,,,,,,,,,,,,,,,,masks/mask_003.jpg,,,,,,,,,,,,,,,,,,,,,,,,,,,,,,,,,,,,,,,,,,,0,3,3,2,1,,,,,,,,,,,,,,,,,,,,,,,,,,,,,,,,,,,,,,,,,,,,,,
941810,001,2022-11-20_17h57.10.232,Info_measure_main_exp,2022.2.2,Win32,60.0240096,,,,,,,,,,,,,,,,,,masks/mask_001.jpg,,,,,,,,,,,,,,,,,,,,,,,,,,,,,,,,,,,,,,,,,,,0,4,4,0,1,,,,,,,,,,,,,,,,,,,,,,,,,,,,,,,,,,,,,,,,,,,,,,
941810,001,2022-11-20_17h57.10.232,Info_measure_main_exp,2022.2.2,Win32,60.0240096,,,,,,,,,,,,,,,,,,masks/mask_001.jpg,,,,,,,,,,,,,,,,,,,,,,,,,,,,,,,,,,,,,,,,,,,,,,,,0,0,0,0,1,,,,,,,,,,,,,,,,,,,,,,,,,,,,,,,,,,,,,,,,,
941810,001,2022-11-20_17h57.10.232,Info_measure_main_exp,2022.2.2,Win32,60.0240096,,,,,,,,,,,,,,,,,,masks/mask_005.jpg,,,,,,,,,,,,,,,,,,,,,,,,,,,,,,,,,,,,,,,,,,,,,,,,0,1,1,4,1,,,,,,,,,,,,,,,,,,,,,,,,,,,,,,,,,,,,,,,,,
941810,001,2022-11-20_17h57.10.232,Info_measure_main_exp,2022.2.2,Win32,60.0240096,,,,,,,,,,,,,,,,,,masks/mask_004.jpg,,,,,,,,,,,,,,,,,,,,,,,,,,,,,,,,,,,,,,,,,,,,,,,,0,2,2,3,1,,,,,,,,,,,,,,,,,,,,,,,,,,,,,,,,,,,,,,,,,
941810,001,2022-11-20_17h57.10.232,Info_measure_main_exp,2022.2.2,Win32,60.0240096,,,,,,,,,,,,,,,,,,masks/mask_003.jpg,,,,,,,,,,,,,,,,,,,,,,,,,,,,,,,,,,,,,,,,,,,,,,,,0,3,3,2,1,,,,,,,,,,,,,,,,,,,,,,,,,,,,,,,,,,,,,,,,,
941810,001,2022-11-20_17h57.10.232,Info_measure_main_exp,2022.2.2,Win32,60.0240096,,,,,,,,,,,,,,,,,,masks/mask_002.jpg,,,,,,,,,,,,,,,,,,,,,,,,,,,,,,,,,,,,,,,,,,,,,,,,0,4,4,1,1,,,,,,,,,,,,,,,,,,,,,,,,,,,,,,,,,,,,,,,,,
941810,001,2022-11-20_17h57.10.232,Info_measure_main_exp,2022.2.2,Win32,60.0240096,,,,,,,,,,,,,,,,,,,,,,,,,,,,,,7,0.697,1,,,,,,,,,,,,0,131,5,5,2154,2298,absent_patch/patch0002154.jpg,absent_patch/patch0002298.jpg,,,,,,,,,,,,,,,,,,,,0.056712963,0.167824074,1,0,0,response1disk,33,0.003472222,0.001157407,1,0,0,center_square,0,32,32,27,1,,,,,,,,,,,,,,,,,,,,,,,
941810,001,2022-11-20_17h57.10.232,Info_measure_main_exp,2022.2.2,Win32,60.0240096,,,,,,,,,,,,,,,,,,masks/mask_001.jpg,,,,,,,,,,,,,,,,,,,,,,,,,,,,,,,,,,,,,,,,,,,0,0,0,0,1,,,,,,,,,,,,,,,,,,,,,,,,,,,,,,,,,,,,,,,,,,,,,,
941810,001,2022-11-20_17h57.10.232,Info_measure_main_exp,2022.2.2,Win32,60.0240096,,,,,,,,,,,,,,,,,,masks/mask_003.jpg,,,,,,,,,,,,,,,,,,,,,,,,,,,,,,,,,,,,,,,,,,,0,1,1,2,1,,,,,,,,,,,,,,,,,,,,,,,,,,,,,,,,,,,,,,,,,,,,,,
941810,001,2022-11-20_17h57.10.232,Info_measure_main_exp,2022.2.2,Win32,60.0240096,,,,,,,,,,,,,,,,,,masks/mask_005.jpg,,,,,,,,,,,,,,,,,,,,,,,,,,,,,,,,,,,,,,,,,,,0,2,2,4,1,,,,,,,,,,,,,,,,,,,,,,,,,,,,,,,,,,,,,,,,,,,,,,
941810,001,2022-11-20_17h57.10.232,Info_measure_main_exp,2022.2.2,Win32,60.0240096,,,,,,,,,,,,,,,,,,masks/mask_002.jpg,,,,,,,,,,,,,,,,,,,,,,,,,,,,,,,,,,,,,,,,,,,0,3,3,1,1,,,,,,,,,,,,,,,,,,,,,,,,,,,,,,,,,,,,,,,,,,,,,,
941810,001,2022-11-20_17h57.10.232,Info_measure_main_exp,2022.2.2,Win32,60.0240096,,,,,,,,,,,,,,,,,,masks/mask_004.jpg,,,,,,,,,,,,,,,,,,,,,,,,,,,,,,,,,,,,,,,,,,,0,4,4,3,1,,,,,,,,,,,,,,,,,,,,,,,,,,,,,,,,,,,,,,,,,,,,,,
941810,001,2022-11-20_17h57.10.232,Info_measure_main_exp,2022.2.2,Win32,60.0240096,,,,,,,,,,,,,,,,,,masks/mask_004.jpg,,,,,,,,,,,,,,,,,,,,,,,,,,,,,,,,,,,,,,,,,,,,,,,,0,0,0,3,1,,,,,,,,,,,,,,,,,,,,,,,,,,,,,,,,,,,,,,,,,
941810,001,2022-11-20_17h57.10.232,Info_measure_main_exp,2022.2.2,Win32,60.0240096,,,,,,,,,,,,,,,,,,masks/mask_001.jpg,,,,,,,,,,,,,,,,,,,,,,,,,,,,,,,,,,,,,,,,,,,,,,,,0,1,1,0,1,,,,,,,,,,,,,,,,,,,,,,,,,,,,,,,,,,,,,,,,,
941810,001,2022-11-20_17h57.10.232,Info_measure_main_exp,2022.2.2,Win32,60.0240096,,,,,,,,,,,,,,,,,,masks/mask_003.jpg,,,,,,,,,,,,,,,,,,,,,,,,,,,,,,,,,,,,,,,,,,,,,,,,0,2,2,2,1,,,,,,,,,,,,,,,,,,,,,,,,,,,,,,,,,,,,,,,,,
941810,001,2022-11-20_17h57.10.232,Info_measure_main_exp,2022.2.2,Win32,60.0240096,,,,,,,,,,,,,,,,,,masks/mask_002.jpg,,,,,,,,,,,,,,,,,,,,,,,,,,,,,,,,,,,,,,,,,,,,,,,,0,3,3,1,1,,,,,,,,,,,,,,,,,,,,,,,,,,,,,,,,,,,,,,,,,
941810,001,2022-11-20_17h57.10.232,Info_measure_main_exp,2022.2.2,Win32,60.0240096,,,,,,,,,,,,,,,,,,masks/mask_005.jpg,,,,,,,,,,,,,,,,,,,,,,,,,,,,,,,,,,,,,,,,,,,,,,,,0,4,4,4,1,,,,,,,,,,,,,,,,,,,,,,,,,,,,,,,,,,,,,,,,,
941810,001,2022-11-20_17h57.10.232,Info_measure_main_exp,2022.2.2,Win32,60.0240096,,,,,,,,,,,,,,,,,,,,,,,,,,,,,,7,0.766,1,,,,,,,,,,,,0,131,5,5,2250,1950,absent_patch/patch0002250.jpg,absent_patch/patch0001950.jpg,,,,,,,,,,,,,,,,,,,,0.053240741,0.150462963,1,0,0,response1disk,34,-0.005787037,-0.011574074,1,0,0,center_square,0,33,33,16,1,,,,,,,,,,,,,,,,,,,,,,,
941810,001,2022-11-20_17h57.10.232,Info_measure_main_exp,2022.2.2,Win32,60.0240096,,,,,,,,,,,,,,,,,,masks/mask_001.jpg,,,,,,,,,,,,,,,,,,,,,,,,,,,,,,,,,,,,,,,,,,,0,0,0,0,1,,,,,,,,,,,,,,,,,,,,,,,,,,,,,,,,,,,,,,,,,,,,,,
941810,001,2022-11-20_17h57.10.232,Info_measure_main_exp,2022.2.2,Win32,60.0240096,,,,,,,,,,,,,,,,,,masks/mask_004.jpg,,,,,,,,,,,,,,,,,,,,,,,,,,,,,,,,,,,,,,,,,,,0,1,1,3,1,,,,,,,,,,,,,,,,,,,,,,,,,,,,,,,,,,,,,,,,,,,,,,
941810,001,2022-11-20_17h57.10.232,Info_measure_main_exp,2022.2.2,Win32,60.0240096,,,,,,,,,,,,,,,,,,masks/mask_003.jpg,,,,,,,,,,,,,,,,,,,,,,,,,,,,,,,,,,,,,,,,,,,0,2,2,2,1,,,,,,,,,,,,,,,,,,,,,,,,,,,,,,,,,,,,,,,,,,,,,,
941810,001,2022-11-20_17h57.10.232,Info_measure_main_exp,2022.2.2,Win32,60.0240096,,,,,,,,,,,,,,,,,,masks/mask_005.jpg,,,,,,,,,,,,,,,,,,,,,,,,,,,,,,,,,,,,,,,,,,,0,3,3,4,1,,,,,,,,,,,,,,,,,,,,,,,,,,,,,,,,,,,,,,,,,,,,,,
941810,001,2022-11-20_17h57.10.232,Info_measure_main_exp,2022.2.2,Win32,60.0240096,,,,,,,,,,,,,,,,,,masks/mask_002.jpg,,,,,,,,,,,,,,,,,,,,,,,,,,,,,,,,,,,,,,,,,,,0,4,4,1,1,,,,,,,,,,,,,,,,,,,,,,,,,,,,,,,,,,,,,,,,,,,,,,
941810,001,2022-11-20_17h57.10.232,Info_measure_main_exp,2022.2.2,Win32,60.0240096,,,,,,,,,,,,,,,,,,masks/mask_004.jpg,,,,,,,,,,,,,,,,,,,,,,,,,,,,,,,,,,,,,,,,,,,,,,,,0,0,0,3,1,,,,,,,,,,,,,,,,,,,,,,,,,,,,,,,,,,,,,,,,,
941810,001,2022-11-20_17h57.10.232,Info_measure_main_exp,2022.2.2,Win32,60.0240096,,,,,,,,,,,,,,,,,,masks/mask_005.jpg,,,,,,,,,,,,,,,,,,,,,,,,,,,,,,,,,,,,,,,,,,,,,,,,0,1,1,4,1,,,,,,,,,,,,,,,,,,,,,,,,,,,,,,,,,,,,,,,,,
941810,001,2022-11-20_17h57.10.232,Info_measure_main_exp,2022.2.2,Win32,60.0240096,,,,,,,,,,,,,,,,,,masks/mask_003.jpg,,,,,,,,,,,,,,,,,,,,,,,,,,,,,,,,,,,,,,,,,,,,,,,,0,2,2,2,1,,,,,,,,,,,,,,,,,,,,,,,,,,,,,,,,,,,,,,,,,
941810,001,2022-11-20_17h57.10.232,Info_measure_main_exp,2022.2.2,Win32,60.0240096,,,,,,,,,,,,,,,,,,masks/mask_001.jpg,,,,,,,,,,,,,,,,,,,,,,,,,,,,,,,,,,,,,,,,,,,,,,,,0,3,3,0,1,,,,,,,,,,,,,,,,,,,,,,,,,,,,,,,,,,,,,,,,,
941810,001,2022-11-20_17h57.10.232,Info_measure_main_exp,2022.2.2,Win32,60.0240096,,,,,,,,,,,,,,,,,,masks/mask_002.jpg,,,,,,,,,,,,,,,,,,,,,,,,,,,,,,,,,,,,,,,,,,,,,,,,0,4,4,1,1,,,,,,,,,,,,,,,,,,,,,,,,,,,,,,,,,,,,,,,,,
