participant,session,date,expName,psychopyVersion,OS,frameRate,space_press_continue.keys,space_press_continue.rt,space_press_continue_2.keys,space_press_continue_2.rt,space_press_continue_3.keys,space_press_continue_3.rt,space_press_continue_4.keys,space_press_continue_4.rt,space_press_continue_5.keys,space_press_continue_5.rt,space_press_continue_6.keys,space_press_continue_6.rt,prac_mask_loop_1.thisRepN,prac_mask_loop_1.thisTrialN,prac_mask_loop_1.thisN,prac_mask_loop_1.thisIndex,prac_mask_loop_1.ran,mask_name,prac_mask_loop_2.thisRepN,prac_mask_loop_2.thisTrialN,prac_mask_loop_2.thisN,prac_mask_loop_2.thisIndex,prac_mask_loop_2.ran,mouse_2.x,mouse_2.y,mouse_2.leftButton,mouse_2.midButton,mouse_2.rightButton,mouse_2.clicked_name,similarity,response_time,Pass,mouse_12.x,mouse_12.y,mouse_12.leftButton,mouse_12.midButton,mouse_12.rightButton,mouse_12.clicked_name,prac_loop.thisRepN,prac_loop.thisTrialN,prac_loop.thisN,prac_loop.thisIndex,prac_loop.ran,Pair_type,Image_num,Patch_1_loc,Patch_2_loc,Patch_1_info,Patch_2_info,Patch_1_name,Patch_2_name,mouse_1.x,mouse_1.y,mouse_1.leftButton,mouse_1.midButton,mouse_1.rightButton,mouse_1.time,mouse_1.clicked_name,space_press_continue_7.keys,space_press_continue_7.rt,mask_loop.thisRepN,mask_loop.thisTrialN,mask_loop.thisN,mask_loop.thisIndex,mask_loop.ran,mask_loop_2.thisRepN,mask_loop_2.thisTrialN,mask_loop_2.thisN,mask_loop_2.thisIndex,mask_loop_2.ran,mouse.x,mouse.y,mouse.leftButton,mouse.midButton,mouse.rightButton,mouse.clicked_name,trialNumber,mouse_11.x,mouse_11.y,mouse_11.leftButton,mouse_11.midButton,mouse_11.rightButton,mouse_11.clicked_name,first_pass_loop.thisRepN,first_pass_loop.thisTrialN,first_pass_loop.thisN,first_pass_loop.thisIndex,first_pass_loop.ran,mask_loop_3.thisRepN,mask_loop_3.thisTrialN,mask_loop_3.thisN,mask_loop_3.thisIndex,mask_loop_3.ran,mask_loop_4.thisRepN,mask_loop_4.thisTrialN,mask_loop_4.thisN,mask_loop_4.thisIndex,mask_loop_4.ran,mouse_3.x,mouse_3.y,mouse_3.leftButton,mouse_3.midButton,mouse_3.rightButton,mouse_3.clicked_name,double_pass_loop.thisRepN,double_pass_loop.thisTrialN,double_pass_loop.thisN,double_pass_loop.thisIndex,double_pass_loop.ran,space_exit.keys,space_exit.rt
943335,001,2022-11-21_01h50.25.154,Info_measure_main_exp,2022.2.2,Win32,9.696311523,,,,,,,,,,,,,,,,,,,,,,,,,,,,,,,,,,,,,,,,,,,,,,,,,,,,,,,,,,,,,,,,,,,,,,,,,,,,,,,,,,,,,,,,,,,,,,,,,,,,,,,,,,,,,,,
943335,001,2022-11-21_01h50.25.154,Info_measure_main_exp,2022.2.2,Win32,9.696311523,,,,,,,,,,,,,,,,,,,,,,,,,,,,,,,,,,,,,,,,,,,,,,,,,,,,,,,,,,,,,,,,,,,,,,,,,,,,,,,,,,,,,,,,,,,,,,,,,,,,,,,,,,,,,,,
943335,001,2022-11-21_01h50.25.154,Info_measure_main_exp,2022.2.2,Win32,9.696311523,space,92.5152,,,,,,,,,,,,,,,,,,,,,,,,,,,,,,,,,,,,,,,,,,,,,,,,,,,,,,,,,,,,,,,,,,,,,,,,,,,,,,,,,,,,,,,,,,,,,,,,,,,,,,,,,,,,,
943335,001,2022-11-21_01h50.25.154,Info_measure_main_exp,2022.2.2,Win32,9.696311523,,,space,7.7741,,,,,,,,,,,,,,,,,,,,,,,,,,,,,,,,,,,,,,,,,,,,,,,,,,,,,,,,,,,,,,,,,,,,,,,,,,,,,,,,,,,,,,,,,,,,,,,,,,,,,,,,,,,
943335,001,2022-11-21_01h50.25.154,Info_measure_main_exp,2022.2.2,Win32,9.696311523,,,,,space,4.5903,,,,,,,,,,,,,,,,,,,,,,,,,,,,,,,,,,,,,,,,,,,,,,,,,,,,,,,,,,,,,,,,,,,,,,,,,,,,,,,,,,,,,,,,,,,,,,,,,,,,,,,,,
943335,001,2022-11-21_01h50.25.154,Info_measure_main_exp,2022.2.2,Win32,9.696311523,,,,,,,space,15.7272,,,,,,,,,,,,,,,,,,,,,,,,,,,,,,,,,,,,,,,,,,,,,,,,,,,,,,,,,,,,,,,,,,,,,,,,,,,,,,,,,,,,,,,,,,,,,,,,,,,,,,,
943335,001,2022-11-21_01h50.25.154,Info_measure_main_exp,2022.2.2,Win32,9.696311523,,,,,,,,,space,12.819,,,,,,,,,,,,,,,,,,,,,,,,,,,,,,,,,,,,,,,,,,,,,,,,,,,,,,,,,,,,,,,,,,,,,,,,,,,,,,,,,,,,,,,,,,,,,,,,,,,,,
943335,001,2022-11-21_01h50.25.154,Info_measure_main_exp,2022.2.2,Win32,9.696311523,,,,,,,,,,,space,5.6377,,,,,,,,,,,,,,,,,,,,,,,,,,,,,,,,,,,,,,,,,,,,,,,,,,,,,,,,,,,,,,,,,,,,,,,,,,,,,,,,,,,,,,,,,,,,,,,,,,,
943335,001,2022-11-21_01h50.25.154,Info_measure_main_exp,2022.2.2,Win32,9.696311523,,,,,,,,,,,,,0,0,0,0,1,masks/mask_001.jpg,,,,,,,,,,,,,,,,,,,,,,,,,,,,,,,,,,,,,,,,,,,,,,,,,,,,,,,,,,,,,,,,,,,,,,,,,,,,,,,,,,,,,,,,,,,,,
943335,001,2022-11-21_01h50.25.154,Info_measure_main_exp,2022.2.2,Win32,9.696311523,,,,,,,,,,,,,0,1,1,3,1,masks/mask_004.jpg,,,,,,,,,,,,,,,,,,,,,,,,,,,,,,,,,,,,,,,,,,,,,,,,,,,,,,,,,,,,,,,,,,,,,,,,,,,,,,,,,,,,,,,,,,,,,
943335,001,2022-11-21_01h50.25.154,Info_measure_main_exp,2022.2.2,Win32,9.696311523,,,,,,,,,,,,,0,2,2,4,1,masks/mask_005.jpg,,,,,,,,,,,,,,,,,,,,,,,,,,,,,,,,,,,,,,,,,,,,,,,,,,,,,,,,,,,,,,,,,,,,,,,,,,,,,,,,,,,,,,,,,,,,,
943335,001,2022-11-21_01h50.25.154,Info_measure_main_exp,2022.2.2,Win32,9.696311523,,,,,,,,,,,,,0,3,3,2,1,masks/mask_003.jpg,,,,,,,,,,,,,,,,,,,,,,,,,,,,,,,,,,,,,,,,,,,,,,,,,,,,,,,,,,,,,,,,,,,,,,,,,,,,,,,,,,,,,,,,,,,,,
943335,001,2022-11-21_01h50.25.154,Info_measure_main_exp,2022.2.2,Win32,9.696311523,,,,,,,,,,,,,0,4,4,1,1,masks/mask_002.jpg,,,,,,,,,,,,,,,,,,,,,,,,,,,,,,,,,,,,,,,,,,,,,,,,,,,,,,,,,,,,,,,,,,,,,,,,,,,,,,,,,,,,,,,,,,,,,
943335,001,2022-11-21_01h50.25.154,Info_measure_main_exp,2022.2.2,Win32,9.696311523,,,,,,,,,,,,,,,,,,masks/mask_003.jpg,0,0,0,2,1,,,,,,,,,,,,,,,,,,,,,,,,,,,,,,,,,,,,,,,,,,,,,,,,,,,,,,,,,,,,,,,,,,,,,,,,,,,,,,,,,,,,,,,,
943335,001,2022-11-21_01h50.25.154,Info_measure_main_exp,2022.2.2,Win32,9.696311523,,,,,,,,,,,,,,,,,,masks/mask_004.jpg,0,1,1,3,1,,,,,,,,,,,,,,,,,,,,,,,,,,,,,,,,,,,,,,,,,,,,,,,,,,,,,,,,,,,,,,,,,,,,,,,,,,,,,,,,,,,,,,,,
943335,001,2022-11-21_01h50.25.154,Info_measure_main_exp,2022.2.2,Win32,9.696311523,,,,,,,,,,,,,,,,,,masks/mask_002.jpg,0,2,2,1,1,,,,,,,,,,,,,,,,,,,,,,,,,,,,,,,,,,,,,,,,,,,,,,,,,,,,,,,,,,,,,,,,,,,,,,,,,,,,,,,,,,,,,,,,
943335,001,2022-11-21_01h50.25.154,Info_measure_main_exp,2022.2.2,Win32,9.696311523,,,,,,,,,,,,,,,,,,masks/mask_001.jpg,0,3,3,0,1,,,,,,,,,,,,,,,,,,,,,,,,,,,,,,,,,,,,,,,,,,,,,,,,,,,,,,,,,,,,,,,,,,,,,,,,,,,,,,,,,,,,,,,,
943335,001,2022-11-21_01h50.25.154,Info_measure_main_exp,2022.2.2,Win32,9.696311523,,,,,,,,,,,,,,,,,,masks/mask_005.jpg,0,4,4,4,1,,,,,,,,,,,,,,,,,,,,,,,,,,,,,,,,,,,,,,,,,,,,,,,,,,,,,,,,,,,,,,,,,,,,,,,,,,,,,,,,,,,,,,,,
943335,001,2022-11-21_01h50.25.154,Info_measure_main_exp,2022.2.2,Win32,9.696311523,,,,,,,,,,,,,,,,,,,,,,,,-0.006250011,0.045138889,1,0,0,response7disk,0,147.9181,1,0.003472222,-0.006250011,1,0,0,center_square,0,0,0,0,1,0,131,5,5,2370,2406,prac_patch/patch0002370.jpg,prac_patch/patch0002406.jpg,,,,,,,,,,,,,,,,,,,,,,,,,,,,,,,,,,,,,,,,,,,,,,,,,,,,,,,,,,,,
943335,001,2022-11-21_01h50.25.154,Info_measure_main_exp,2022.2.2,Win32,9.696311523,,,,,,,,,,,,,0,0,0,1,1,masks/mask_002.jpg,,,,,,,,,,,,,,,,,,,,,,,,,,,,,,,,,,,,,,,,,,,,,,,,,,,,,,,,,,,,,,,,,,,,,,,,,,,,,,,,,,,,,,,,,,,,,
943335,001,2022-11-21_01h50.25.154,Info_measure_main_exp,2022.2.2,Win32,9.696311523,,,,,,,,,,,,,0,1,1,4,1,masks/mask_005.jpg,,,,,,,,,,,,,,,,,,,,,,,,,,,,,,,,,,,,,,,,,,,,,,,,,,,,,,,,,,,,,,,,,,,,,,,,,,,,,,,,,,,,,,,,,,,,,
943335,001,2022-11-21_01h50.25.154,Info_measure_main_exp,2022.2.2,Win32,9.696311523,,,,,,,,,,,,,0,2,2,2,1,masks/mask_003.jpg,,,,,,,,,,,,,,,,,,,,,,,,,,,,,,,,,,,,,,,,,,,,,,,,,,,,,,,,,,,,,,,,,,,,,,,,,,,,,,,,,,,,,,,,,,,,,
943335,001,2022-11-21_01h50.25.154,Info_measure_main_exp,2022.2.2,Win32,9.696311523,,,,,,,,,,,,,0,3,3,3,1,masks/mask_004.jpg,,,,,,,,,,,,,,,,,,,,,,,,,,,,,,,,,,,,,,,,,,,,,,,,,,,,,,,,,,,,,,,,,,,,,,,,,,,,,,,,,,,,,,,,,,,,,
943335,001,2022-11-21_01h50.25.154,Info_measure_main_exp,2022.2.2,Win32,9.696311523,,,,,,,,,,,,,0,4,4,0,1,masks/mask_001.jpg,,,,,,,,,,,,,,,,,,,,,,,,,,,,,,,,,,,,,,,,,,,,,,,,,,,,,,,,,,,,,,,,,,,,,,,,,,,,,,,,,,,,,,,,,,,,,
943335,001,2022-11-21_01h50.25.154,Info_measure_main_exp,2022.2.2,Win32,9.696311523,,,,,,,,,,,,,,,,,,masks/mask_003.jpg,0,0,0,2,1,,,,,,,,,,,,,,,,,,,,,,,,,,,,,,,,,,,,,,,,,,,,,,,,,,,,,,,,,,,,,,,,,,,,,,,,,,,,,,,,,,,,,,,,
943335,001,2022-11-21_01h50.25.154,Info_measure_main_exp,2022.2.2,Win32,9.696311523,,,,,,,,,,,,,,,,,,masks/mask_004.jpg,0,1,1,3,1,,,,,,,,,,,,,,,,,,,,,,,,,,,,,,,,,,,,,,,,,,,,,,,,,,,,,,,,,,,,,,,,,,,,,,,,,,,,,,,,,,,,,,,,
943335,001,2022-11-21_01h50.25.154,Info_measure_main_exp,2022.2.2,Win32,9.696311523,,,,,,,,,,,,,,,,,,masks/mask_005.jpg,0,2,2,4,1,,,,,,,,,,,,,,,,,,,,,,,,,,,,,,,,,,,,,,,,,,,,,,,,,,,,,,,,,,,,,,,,,,,,,,,,,,,,,,,,,,,,,,,,
943335,001,2022-11-21_01h50.25.154,Info_measure_main_exp,2022.2.2,Win32,9.696311523,,,,,,,,,,,,,,,,,,masks/mask_001.jpg,0,3,3,0,1,,,,,,,,,,,,,,,,,,,,,,,,,,,,,,,,,,,,,,,,,,,,,,,,,,,,,,,,,,,,,,,,,,,,,,,,,,,,,,,,,,,,,,,,
943335,001,2022-11-21_01h50.25.154,Info_measure_main_exp,2022.2.2,Win32,9.696311523,,,,,,,,,,,,,,,,,,masks/mask_002.jpg,0,4,4,1,1,,,,,,,,,,,,,,,,,,,,,,,,,,,,,,,,,,,,,,,,,,,,,,,,,,,,,,,,,,,,,,,,,,,,,,,,,,,,,,,,,,,,,,,,
943335,001,2022-11-21_01h50.25.154,Info_measure_main_exp,2022.2.2,Win32,9.696311523,,,,,,,,,,,,,,,,,,,,,,,,-0.127777788,0.147222228,1,0,0,response7disk,0,160.4626,1,-0.011111101,-0.005555577,1,0,0,center_square,0,1,1,1,1,0,131,5,5,2514,2490,prac_patch/patch0002514.jpg,prac_patch/patch0002490.jpg,,,,,,,,,,,,,,,,,,,,,,,,,,,,,,,,,,,,,,,,,,,,,,,,,,,,,,,,,,,,
943335,001,2022-11-21_01h50.25.154,Info_measure_main_exp,2022.2.2,Win32,9.696311523,,,,,,,,,,,,,0,0,0,2,1,masks/mask_003.jpg,,,,,,,,,,,,,,,,,,,,,,,,,,,,,,,,,,,,,,,,,,,,,,,,,,,,,,,,,,,,,,,,,,,,,,,,,,,,,,,,,,,,,,,,,,,,,
943335,001,2022-11-21_01h50.25.154,Info_measure_main_exp,2022.2.2,Win32,9.696311523,,,,,,,,,,,,,0,1,1,1,1,masks/mask_002.jpg,,,,,,,,,,,,,,,,,,,,,,,,,,,,,,,,,,,,,,,,,,,,,,,,,,,,,,,,,,,,,,,,,,,,,,,,,,,,,,,,,,,,,,,,,,,,,
943335,001,2022-11-21_01h50.25.154,Info_measure_main_exp,2022.2.2,Win32,9.696311523,,,,,,,,,,,,,0,2,2,4,1,masks/mask_005.jpg,,,,,,,,,,,,,,,,,,,,,,,,,,,,,,,,,,,,,,,,,,,,,,,,,,,,,,,,,,,,,,,,,,,,,,,,,,,,,,,,,,,,,,,,,,,,,
943335,001,2022-11-21_01h50.25.154,Info_measure_main_exp,2022.2.2,Win32,9.696311523,,,,,,,,,,,,,0,3,3,0,1,masks/mask_001.jpg,,,,,,,,,,,,,,,,,,,,,,,,,,,,,,,,,,,,,,,,,,,,,,,,,,,,,,,,,,,,,,,,,,,,,,,,,,,,,,,,,,,,,,,,,,,,,
943335,001,2022-11-21_01h50.25.154,Info_measure_main_exp,2022.2.2,Win32,9.696311523,,,,,,,,,,,,,0,4,4,3,1,masks/mask_004.jpg,,,,,,,,,,,,,,,,,,,,,,,,,,,,,,,,,,,,,,,,,,,,,,,,,,,,,,,,,,,,,,,,,,,,,,,,,,,,,,,,,,,,,,,,,,,,,
943335,001,2022-11-21_01h50.25.154,Info_measure_main_exp,2022.2.2,Win32,9.696311523,,,,,,,,,,,,,,,,,,masks/mask_005.jpg,0,0,0,4,1,,,,,,,,,,,,,,,,,,,,,,,,,,,,,,,,,,,,,,,,,,,,,,,,,,,,,,,,,,,,,,,,,,,,,,,,,,,,,,,,,,,,,,,,
943335,001,2022-11-21_01h50.25.154,Info_measure_main_exp,2022.2.2,Win32,9.696311523,,,,,,,,,,,,,,,,,,masks/mask_004.jpg,0,1,1,3,1,,,,,,,,,,,,,,,,,,,,,,,,,,,,,,,,,,,,,,,,,,,,,,,,,,,,,,,,,,,,,,,,,,,,,,,,,,,,,,,,,,,,,,,,
943335,001,2022-11-21_01h50.25.154,Info_measure_main_exp,2022.2.2,Win32,9.696311523,,,,,,,,,,,,,,,,,,masks/mask_002.jpg,0,2,2,1,1,,,,,,,,,,,,,,,,,,,,,,,,,,,,,,,,,,,,,,,,,,,,,,,,,,,,,,,,,,,,,,,,,,,,,,,,,,,,,,,,,,,,,,,,
943335,001,2022-11-21_01h50.25.154,Info_measure_main_exp,2022.2.2,Win32,9.696311523,,,,,,,,,,,,,,,,,,masks/mask_001.jpg,0,3,3,0,1,,,,,,,,,,,,,,,,,,,,,,,,,,,,,,,,,,,,,,,,,,,,,,,,,,,,,,,,,,,,,,,,,,,,,,,,,,,,,,,,,,,,,,,,
943335,001,2022-11-21_01h50.25.154,Info_measure_main_exp,2022.2.2,Win32,9.696311523,,,,,,,,,,,,,,,,,,masks/mask_003.jpg,0,4,4,2,1,,,,,,,,,,,,,,,,,,,,,,,,,,,,,,,,,,,,,,,,,,,,,,,,,,,,,,,,,,,,,,,,,,,,,,,,,,,,,,,,,,,,,,,,
943335,001,2022-11-21_01h50.25.154,Info_measure_main_exp,2022.2.2,Win32,9.696311523,,,,,,,,,,,,,,,,,,,,,,,,0.063888868,0.118749989,1,0,0,response1disk,7,170.227,1,0.000694487,-0.002083355,1,0,0,center_square,0,2,2,2,1,0,131,5,5,2526,2526,prac_patch/patch0002526.jpg,prac_patch/patch0002526.jpg,,,,,,,,,,,,,,,,,,,,,,,,,,,,,,,,,,,,,,,,,,,,,,,,,,,,,,,,,,,,
943335,001,2022-11-21_01h50.25.154,Info_measure_main_exp,2022.2.2,Win32,9.696311523,,,,,,,,,,,,,,,,,,,,,,,,,,,,,,,,,,,,,,,,,,,,,,,,,,,,,,,,,,,space,3.0009,,,,,,,,,,,,,,,,,,,,,,,,,,,,,,,,,,,,,,,,,,,,,,,,,,,
943335,001,2022-11-21_01h50.25.154,Info_measure_main_exp,2022.2.2,Win32,9.696311523,,,,,,,,,,,,,,,,,,masks/mask_005.jpg,,,,,,,,,,,,,,,,,,,,,,,,,,,,,,,,,,,,,,,,,,,0,0,0,4,1,,,,,,,,,,,,,,,,,,,,,,,,,,,,,,,,,,,,,,,,,,,,,,
943335,001,2022-11-21_01h50.25.154,Info_measure_main_exp,2022.2.2,Win32,9.696311523,,,,,,,,,,,,,,,,,,masks/mask_004.jpg,,,,,,,,,,,,,,,,,,,,,,,,,,,,,,,,,,,,,,,,,,,0,1,1,3,1,,,,,,,,,,,,,,,,,,,,,,,,,,,,,,,,,,,,,,,,,,,,,,
943335,001,2022-11-21_01h50.25.154,Info_measure_main_exp,2022.2.2,Win32,9.696311523,,,,,,,,,,,,,,,,,,masks/mask_001.jpg,,,,,,,,,,,,,,,,,,,,,,,,,,,,,,,,,,,,,,,,,,,0,2,2,0,1,,,,,,,,,,,,,,,,,,,,,,,,,,,,,,,,,,,,,,,,,,,,,,
943335,001,2022-11-21_01h50.25.154,Info_measure_main_exp,2022.2.2,Win32,9.696311523,,,,,,,,,,,,,,,,,,masks/mask_003.jpg,,,,,,,,,,,,,,,,,,,,,,,,,,,,,,,,,,,,,,,,,,,0,3,3,2,1,,,,,,,,,,,,,,,,,,,,,,,,,,,,,,,,,,,,,,,,,,,,,,
943335,001,2022-11-21_01h50.25.154,Info_measure_main_exp,2022.2.2,Win32,9.696311523,,,,,,,,,,,,,,,,,,masks/mask_002.jpg,,,,,,,,,,,,,,,,,,,,,,,,,,,,,,,,,,,,,,,,,,,0,4,4,1,1,,,,,,,,,,,,,,,,,,,,,,,,,,,,,,,,,,,,,,,,,,,,,,
943335,001,2022-11-21_01h50.25.154,Info_measure_main_exp,2022.2.2,Win32,9.696311523,,,,,,,,,,,,,,,,,,masks/mask_003.jpg,,,,,,,,,,,,,,,,,,,,,,,,,,,,,,,,,,,,,,,,,,,,,,,,0,0,0,2,1,,,,,,,,,,,,,,,,,,,,,,,,,,,,,,,,,,,,,,,,,
943335,001,2022-11-21_01h50.25.154,Info_measure_main_exp,2022.2.2,Win32,9.696311523,,,,,,,,,,,,,,,,,,masks/mask_004.jpg,,,,,,,,,,,,,,,,,,,,,,,,,,,,,,,,,,,,,,,,,,,,,,,,0,1,1,3,1,,,,,,,,,,,,,,,,,,,,,,,,,,,,,,,,,,,,,,,,,
943335,001,2022-11-21_01h50.25.154,Info_measure_main_exp,2022.2.2,Win32,9.696311523,,,,,,,,,,,,,,,,,,masks/mask_002.jpg,,,,,,,,,,,,,,,,,,,,,,,,,,,,,,,,,,,,,,,,,,,,,,,,0,2,2,1,1,,,,,,,,,,,,,,,,,,,,,,,,,,,,,,,,,,,,,,,,,
943335,001,2022-11-21_01h50.25.154,Info_measure_main_exp,2022.2.2,Win32,9.696311523,,,,,,,,,,,,,,,,,,masks/mask_001.jpg,,,,,,,,,,,,,,,,,,,,,,,,,,,,,,,,,,,,,,,,,,,,,,,,0,3,3,0,1,,,,,,,,,,,,,,,,,,,,,,,,,,,,,,,,,,,,,,,,,
943335,001,2022-11-21_01h50.25.154,Info_measure_main_exp,2022.2.2,Win32,9.696311523,,,,,,,,,,,,,,,,,,masks/mask_005.jpg,,,,,,,,,,,,,,,,,,,,,,,,,,,,,,,,,,,,,,,,,,,,,,,,0,4,4,4,1,,,,,,,,,,,,,,,,,,,,,,,,,,,,,,,,,,,,,,,,,
943335,001,2022-11-21_01h50.25.154,Info_measure_main_exp,2022.2.2,Win32,9.696311523,,,,,,,,,,,,,,,,,,,,,,,,,,,,,,7,2.3918,1,,,,,,,,,,,,1,131,5,5,1950,1,absent_patch/patch0001950.jpg,present_patch/cong_131_5_a.jpg,,,,,,,,,,,,,,,,,,,,0.029861132,0.148611095,1,0,0,response1disk,1,-0.006250011,0.002777788,1,0,0,center_square,0,0,0,39,1,,,,,,,,,,,,,,,,,,,,,,,
943335,001,2022-11-21_01h50.25.154,Info_measure_main_exp,2022.2.2,Win32,9.696311523,,,,,,,,,,,,,,,,,,masks/mask_001.jpg,,,,,,,,,,,,,,,,,,,,,,,,,,,,,,,,,,,,,,,,,,,0,0,0,0,1,,,,,,,,,,,,,,,,,,,,,,,,,,,,,,,,,,,,,,,,,,,,,,
943335,001,2022-11-21_01h50.25.154,Info_measure_main_exp,2022.2.2,Win32,9.696311523,,,,,,,,,,,,,,,,,,masks/mask_004.jpg,,,,,,,,,,,,,,,,,,,,,,,,,,,,,,,,,,,,,,,,,,,0,1,1,3,1,,,,,,,,,,,,,,,,,,,,,,,,,,,,,,,,,,,,,,,,,,,,,,
943335,001,2022-11-21_01h50.25.154,Info_measure_main_exp,2022.2.2,Win32,9.696311523,,,,,,,,,,,,,,,,,,masks/mask_002.jpg,,,,,,,,,,,,,,,,,,,,,,,,,,,,,,,,,,,,,,,,,,,0,2,2,1,1,,,,,,,,,,,,,,,,,,,,,,,,,,,,,,,,,,,,,,,,,,,,,,
943335,001,2022-11-21_01h50.25.154,Info_measure_main_exp,2022.2.2,Win32,9.696311523,,,,,,,,,,,,,,,,,,masks/mask_003.jpg,,,,,,,,,,,,,,,,,,,,,,,,,,,,,,,,,,,,,,,,,,,0,3,3,2,1,,,,,,,,,,,,,,,,,,,,,,,,,,,,,,,,,,,,,,,,,,,,,,
943335,001,2022-11-21_01h50.25.154,Info_measure_main_exp,2022.2.2,Win32,9.696311523,,,,,,,,,,,,,,,,,,masks/mask_005.jpg,,,,,,,,,,,,,,,,,,,,,,,,,,,,,,,,,,,,,,,,,,,0,4,4,4,1,,,,,,,,,,,,,,,,,,,,,,,,,,,,,,,,,,,,,,,,,,,,,,
943335,001,2022-11-21_01h50.25.154,Info_measure_main_exp,2022.2.2,Win32,9.696311523,,,,,,,,,,,,,,,,,,masks/mask_001.jpg,,,,,,,,,,,,,,,,,,,,,,,,,,,,,,,,,,,,,,,,,,,,,,,,0,0,0,0,1,,,,,,,,,,,,,,,,,,,,,,,,,,,,,,,,,,,,,,,,,
943335,001,2022-11-21_01h50.25.154,Info_measure_main_exp,2022.2.2,Win32,9.696311523,,,,,,,,,,,,,,,,,,masks/mask_004.jpg,,,,,,,,,,,,,,,,,,,,,,,,,,,,,,,,,,,,,,,,,,,,,,,,0,1,1,3,1,,,,,,,,,,,,,,,,,,,,,,,,,,,,,,,,,,,,,,,,,
943335,001,2022-11-21_01h50.25.154,Info_measure_main_exp,2022.2.2,Win32,9.696311523,,,,,,,,,,,,,,,,,,masks/mask_005.jpg,,,,,,,,,,,,,,,,,,,,,,,,,,,,,,,,,,,,,,,,,,,,,,,,0,2,2,4,1,,,,,,,,,,,,,,,,,,,,,,,,,,,,,,,,,,,,,,,,,
943335,001,2022-11-21_01h50.25.154,Info_measure_main_exp,2022.2.2,Win32,9.696311523,,,,,,,,,,,,,,,,,,masks/mask_003.jpg,,,,,,,,,,,,,,,,,,,,,,,,,,,,,,,,,,,,,,,,,,,,,,,,0,3,3,2,1,,,,,,,,,,,,,,,,,,,,,,,,,,,,,,,,,,,,,,,,,
943335,001,2022-11-21_01h50.25.154,Info_measure_main_exp,2022.2.2,Win32,9.696311523,,,,,,,,,,,,,,,,,,masks/mask_002.jpg,,,,,,,,,,,,,,,,,,,,,,,,,,,,,,,,,,,,,,,,,,,,,,,,0,4,4,1,1,,,,,,,,,,,,,,,,,,,,,,,,,,,,,,,,,,,,,,,,,
943335,001,2022-11-21_01h50.25.154,Info_measure_main_exp,2022.2.2,Win32,9.696311523,,,,,,,,,,,,,,,,,,,,,,,,,,,,,,0,2.7212,1,,,,,,,,,,,,1,131,5,5,2190,1,absent_patch/patch0002190.jpg,present_patch/cong_131_5_a.jpg,,,,,,,,,,,,,,,,,,,,-0.044444455,0.143055545,1,0,0,response7disk,2,-0.003472222,0.006250011,1,0,0,center_square,0,1,1,64,1,,,,,,,,,,,,,,,,,,,,,,,
943335,001,2022-11-21_01h50.25.154,Info_measure_main_exp,2022.2.2,Win32,9.696311523,,,,,,,,,,,,,,,,,,masks/mask_005.jpg,,,,,,,,,,,,,,,,,,,,,,,,,,,,,,,,,,,,,,,,,,,0,0,0,4,1,,,,,,,,,,,,,,,,,,,,,,,,,,,,,,,,,,,,,,,,,,,,,,
943335,001,2022-11-21_01h50.25.154,Info_measure_main_exp,2022.2.2,Win32,9.696311523,,,,,,,,,,,,,,,,,,masks/mask_003.jpg,,,,,,,,,,,,,,,,,,,,,,,,,,,,,,,,,,,,,,,,,,,0,1,1,2,1,,,,,,,,,,,,,,,,,,,,,,,,,,,,,,,,,,,,,,,,,,,,,,
943335,001,2022-11-21_01h50.25.154,Info_measure_main_exp,2022.2.2,Win32,9.696311523,,,,,,,,,,,,,,,,,,masks/mask_001.jpg,,,,,,,,,,,,,,,,,,,,,,,,,,,,,,,,,,,,,,,,,,,0,2,2,0,1,,,,,,,,,,,,,,,,,,,,,,,,,,,,,,,,,,,,,,,,,,,,,,
943335,001,2022-11-21_01h50.25.154,Info_measure_main_exp,2022.2.2,Win32,9.696311523,,,,,,,,,,,,,,,,,,masks/mask_004.jpg,,,,,,,,,,,,,,,,,,,,,,,,,,,,,,,,,,,,,,,,,,,0,3,3,3,1,,,,,,,,,,,,,,,,,,,,,,,,,,,,,,,,,,,,,,,,,,,,,,
943335,001,2022-11-21_01h50.25.154,Info_measure_main_exp,2022.2.2,Win32,9.696311523,,,,,,,,,,,,,,,,,,masks/mask_002.jpg,,,,,,,,,,,,,,,,,,,,,,,,,,,,,,,,,,,,,,,,,,,0,4,4,1,1,,,,,,,,,,,,,,,,,,,,,,,,,,,,,,,,,,,,,,,,,,,,,,
943335,001,2022-11-21_01h50.25.154,Info_measure_main_exp,2022.2.2,Win32,9.696311523,,,,,,,,,,,,,,,,,,masks/mask_003.jpg,,,,,,,,,,,,,,,,,,,,,,,,,,,,,,,,,,,,,,,,,,,,,,,,0,0,0,2,1,,,,,,,,,,,,,,,,,,,,,,,,,,,,,,,,,,,,,,,,,
943335,001,2022-11-21_01h50.25.154,Info_measure_main_exp,2022.2.2,Win32,9.696311523,,,,,,,,,,,,,,,,,,masks/mask_004.jpg,,,,,,,,,,,,,,,,,,,,,,,,,,,,,,,,,,,,,,,,,,,,,,,,0,1,1,3,1,,,,,,,,,,,,,,,,,,,,,,,,,,,,,,,,,,,,,,,,,
943335,001,2022-11-21_01h50.25.154,Info_measure_main_exp,2022.2.2,Win32,9.696311523,,,,,,,,,,,,,,,,,,masks/mask_001.jpg,,,,,,,,,,,,,,,,,,,,,,,,,,,,,,,,,,,,,,,,,,,,,,,,0,2,2,0,1,,,,,,,,,,,,,,,,,,,,,,,,,,,,,,,,,,,,,,,,,
943335,001,2022-11-21_01h50.25.154,Info_measure_main_exp,2022.2.2,Win32,9.696311523,,,,,,,,,,,,,,,,,,masks/mask_005.jpg,,,,,,,,,,,,,,,,,,,,,,,,,,,,,,,,,,,,,,,,,,,,,,,,0,3,3,4,1,,,,,,,,,,,,,,,,,,,,,,,,,,,,,,,,,,,,,,,,,
943335,001,2022-11-21_01h50.25.154,Info_measure_main_exp,2022.2.2,Win32,9.696311523,,,,,,,,,,,,,,,,,,masks/mask_002.jpg,,,,,,,,,,,,,,,,,,,,,,,,,,,,,,,,,,,,,,,,,,,,,,,,0,4,4,1,1,,,,,,,,,,,,,,,,,,,,,,,,,,,,,,,,,,,,,,,,,
943335,001,2022-11-21_01h50.25.154,Info_measure_main_exp,2022.2.2,Win32,9.696311523,,,,,,,,,,,,,,,,,,,,,,,,,,,,,,0,1.7306,1,,,,,,,,,,,,0,131,5,5,2082,2250,absent_patch/patch0002082.jpg,absent_patch/patch0002250.jpg,,,,,,,,,,,,,,,,,,,,-0.028472212,0.105555561,1,0,0,response7disk,3,-0.005555524,-0.006250011,1,0,0,center_square,0,2,2,3,1,,,,,,,,,,,,,,,,,,,,,,,
943335,001,2022-11-21_01h50.25.154,Info_measure_main_exp,2022.2.2,Win32,9.696311523,,,,,,,,,,,,,,,,,,masks/mask_003.jpg,,,,,,,,,,,,,,,,,,,,,,,,,,,,,,,,,,,,,,,,,,,0,0,0,2,1,,,,,,,,,,,,,,,,,,,,,,,,,,,,,,,,,,,,,,,,,,,,,,
943335,001,2022-11-21_01h50.25.154,Info_measure_main_exp,2022.2.2,Win32,9.696311523,,,,,,,,,,,,,,,,,,masks/mask_002.jpg,,,,,,,,,,,,,,,,,,,,,,,,,,,,,,,,,,,,,,,,,,,0,1,1,1,1,,,,,,,,,,,,,,,,,,,,,,,,,,,,,,,,,,,,,,,,,,,,,,
943335,001,2022-11-21_01h50.25.154,Info_measure_main_exp,2022.2.2,Win32,9.696311523,,,,,,,,,,,,,,,,,,masks/mask_004.jpg,,,,,,,,,,,,,,,,,,,,,,,,,,,,,,,,,,,,,,,,,,,0,2,2,3,1,,,,,,,,,,,,,,,,,,,,,,,,,,,,,,,,,,,,,,,,,,,,,,
943335,001,2022-11-21_01h50.25.154,Info_measure_main_exp,2022.2.2,Win32,9.696311523,,,,,,,,,,,,,,,,,,masks/mask_005.jpg,,,,,,,,,,,,,,,,,,,,,,,,,,,,,,,,,,,,,,,,,,,0,3,3,4,1,,,,,,,,,,,,,,,,,,,,,,,,,,,,,,,,,,,,,,,,,,,,,,
943335,001,2022-11-21_01h50.25.154,Info_measure_main_exp,2022.2.2,Win32,9.696311523,,,,,,,,,,,,,,,,,,masks/mask_001.jpg,,,,,,,,,,,,,,,,,,,,,,,,,,,,,,,,,,,,,,,,,,,0,4,4,0,1,,,,,,,,,,,,,,,,,,,,,,,,,,,,,,,,,,,,,,,,,,,,,,
943335,001,2022-11-21_01h50.25.154,Info_measure_main_exp,2022.2.2,Win32,9.696311523,,,,,,,,,,,,,,,,,,masks/mask_003.jpg,,,,,,,,,,,,,,,,,,,,,,,,,,,,,,,,,,,,,,,,,,,,,,,,0,0,0,2,1,,,,,,,,,,,,,,,,,,,,,,,,,,,,,,,,,,,,,,,,,
943335,001,2022-11-21_01h50.25.154,Info_measure_main_exp,2022.2.2,Win32,9.696311523,,,,,,,,,,,,,,,,,,masks/mask_001.jpg,,,,,,,,,,,,,,,,,,,,,,,,,,,,,,,,,,,,,,,,,,,,,,,,0,1,1,0,1,,,,,,,,,,,,,,,,,,,,,,,,,,,,,,,,,,,,,,,,,
943335,001,2022-11-21_01h50.25.154,Info_measure_main_exp,2022.2.2,Win32,9.696311523,,,,,,,,,,,,,,,,,,masks/mask_004.jpg,,,,,,,,,,,,,,,,,,,,,,,,,,,,,,,,,,,,,,,,,,,,,,,,0,2,2,3,1,,,,,,,,,,,,,,,,,,,,,,,,,,,,,,,,,,,,,,,,,
943335,001,2022-11-21_01h50.25.154,Info_measure_main_exp,2022.2.2,Win32,9.696311523,,,,,,,,,,,,,,,,,,masks/mask_002.jpg,,,,,,,,,,,,,,,,,,,,,,,,,,,,,,,,,,,,,,,,,,,,,,,,0,3,3,1,1,,,,,,,,,,,,,,,,,,,,,,,,,,,,,,,,,,,,,,,,,
943335,001,2022-11-21_01h50.25.154,Info_measure_main_exp,2022.2.2,Win32,9.696311523,,,,,,,,,,,,,,,,,,masks/mask_005.jpg,,,,,,,,,,,,,,,,,,,,,,,,,,,,,,,,,,,,,,,,,,,,,,,,0,4,4,4,1,,,,,,,,,,,,,,,,,,,,,,,,,,,,,,,,,,,,,,,,,
943335,001,2022-11-21_01h50.25.154,Info_measure_main_exp,2022.2.2,Win32,9.696311523,,,,,,,,,,,,,,,,,,,,,,,,,,,,,,0,2.1125,1,,,,,,,,,,,,0,131,5,5,2082,2166,absent_patch/patch0002082.jpg,absent_patch/patch0002166.jpg,,,,,,,,,,,,,,,,,,,,-0.03611109,0.115972228,1,0,0,response7disk,4,-0.004166656,0.003472222,1,0,0,center_square,0,3,3,43,1,,,,,,,,,,,,,,,,,,,,,,,
943335,001,2022-11-21_01h50.25.154,Info_measure_main_exp,2022.2.2,Win32,9.696311523,,,,,,,,,,,,,,,,,,masks/mask_004.jpg,,,,,,,,,,,,,,,,,,,,,,,,,,,,,,,,,,,,,,,,,,,0,0,0,3,1,,,,,,,,,,,,,,,,,,,,,,,,,,,,,,,,,,,,,,,,,,,,,,
943335,001,2022-11-21_01h50.25.154,Info_measure_main_exp,2022.2.2,Win32,9.696311523,,,,,,,,,,,,,,,,,,masks/mask_002.jpg,,,,,,,,,,,,,,,,,,,,,,,,,,,,,,,,,,,,,,,,,,,0,1,1,1,1,,,,,,,,,,,,,,,,,,,,,,,,,,,,,,,,,,,,,,,,,,,,,,
943335,001,2022-11-21_01h50.25.154,Info_measure_main_exp,2022.2.2,Win32,9.696311523,,,,,,,,,,,,,,,,,,masks/mask_005.jpg,,,,,,,,,,,,,,,,,,,,,,,,,,,,,,,,,,,,,,,,,,,0,2,2,4,1,,,,,,,,,,,,,,,,,,,,,,,,,,,,,,,,,,,,,,,,,,,,,,
943335,001,2022-11-21_01h50.25.154,Info_measure_main_exp,2022.2.2,Win32,9.696311523,,,,,,,,,,,,,,,,,,masks/mask_001.jpg,,,,,,,,,,,,,,,,,,,,,,,,,,,,,,,,,,,,,,,,,,,0,3,3,0,1,,,,,,,,,,,,,,,,,,,,,,,,,,,,,,,,,,,,,,,,,,,,,,
943335,001,2022-11-21_01h50.25.154,Info_measure_main_exp,2022.2.2,Win32,9.696311523,,,,,,,,,,,,,,,,,,masks/mask_003.jpg,,,,,,,,,,,,,,,,,,,,,,,,,,,,,,,,,,,,,,,,,,,0,4,4,2,1,,,,,,,,,,,,,,,,,,,,,,,,,,,,,,,,,,,,,,,,,,,,,,
943335,001,2022-11-21_01h50.25.154,Info_measure_main_exp,2022.2.2,Win32,9.696311523,,,,,,,,,,,,,,,,,,masks/mask_002.jpg,,,,,,,,,,,,,,,,,,,,,,,,,,,,,,,,,,,,,,,,,,,,,,,,0,0,0,1,1,,,,,,,,,,,,,,,,,,,,,,,,,,,,,,,,,,,,,,,,,
943335,001,2022-11-21_01h50.25.154,Info_measure_main_exp,2022.2.2,Win32,9.696311523,,,,,,,,,,,,,,,,,,masks/mask_003.jpg,,,,,,,,,,,,,,,,,,,,,,,,,,,,,,,,,,,,,,,,,,,,,,,,0,1,1,2,1,,,,,,,,,,,,,,,,,,,,,,,,,,,,,,,,,,,,,,,,,
943335,001,2022-11-21_01h50.25.154,Info_measure_main_exp,2022.2.2,Win32,9.696311523,,,,,,,,,,,,,,,,,,masks/mask_005.jpg,,,,,,,,,,,,,,,,,,,,,,,,,,,,,,,,,,,,,,,,,,,,,,,,0,2,2,4,1,,,,,,,,,,,,,,,,,,,,,,,,,,,,,,,,,,,,,,,,,
943335,001,2022-11-21_01h50.25.154,Info_measure_main_exp,2022.2.2,Win32,9.696311523,,,,,,,,,,,,,,,,,,masks/mask_004.jpg,,,,,,,,,,,,,,,,,,,,,,,,,,,,,,,,,,,,,,,,,,,,,,,,0,3,3,3,1,,,,,,,,,,,,,,,,,,,,,,,,,,,,,,,,,,,,,,,,,
943335,001,2022-11-21_01h50.25.154,Info_measure_main_exp,2022.2.2,Win32,9.696311523,,,,,,,,,,,,,,,,,,masks/mask_001.jpg,,,,,,,,,,,,,,,,,,,,,,,,,,,,,,,,,,,,,,,,,,,,,,,,0,4,4,0,1,,,,,,,,,,,,,,,,,,,,,,,,,,,,,,,,,,,,,,,,,
943335,001,2022-11-21_01h50.25.154,Info_measure_main_exp,2022.2.2,Win32,9.696311523,,,,,,,,,,,,,,,,,,,,,,,,,,,,,,0,2.7461,1,,,,,,,,,,,,0,131,5,5,1950,2082,absent_patch/patch0001950.jpg,absent_patch/patch0002082.jpg,,,,,,,,,,,,,,,,,,,,-0.020833333,0.084027767,1,0,0,response7disk,5,-0.00486109,0.004166656,1,0,0,center_square,0,4,4,12,1,,,,,,,,,,,,,,,,,,,,,,,
943335,001,2022-11-21_01h50.25.154,Info_measure_main_exp,2022.2.2,Win32,9.696311523,,,,,,,,,,,,,,,,,,masks/mask_005.jpg,,,,,,,,,,,,,,,,,,,,,,,,,,,,,,,,,,,,,,,,,,,0,0,0,4,1,,,,,,,,,,,,,,,,,,,,,,,,,,,,,,,,,,,,,,,,,,,,,,
943335,001,2022-11-21_01h50.25.154,Info_measure_main_exp,2022.2.2,Win32,9.696311523,,,,,,,,,,,,,,,,,,masks/mask_003.jpg,,,,,,,,,,,,,,,,,,,,,,,,,,,,,,,,,,,,,,,,,,,0,1,1,2,1,,,,,,,,,,,,,,,,,,,,,,,,,,,,,,,,,,,,,,,,,,,,,,
943335,001,2022-11-21_01h50.25.154,Info_measure_main_exp,2022.2.2,Win32,9.696311523,,,,,,,,,,,,,,,,,,masks/mask_002.jpg,,,,,,,,,,,,,,,,,,,,,,,,,,,,,,,,,,,,,,,,,,,0,2,2,1,1,,,,,,,,,,,,,,,,,,,,,,,,,,,,,,,,,,,,,,,,,,,,,,
943335,001,2022-11-21_01h50.25.154,Info_measure_main_exp,2022.2.2,Win32,9.696311523,,,,,,,,,,,,,,,,,,masks/mask_004.jpg,,,,,,,,,,,,,,,,,,,,,,,,,,,,,,,,,,,,,,,,,,,0,3,3,3,1,,,,,,,,,,,,,,,,,,,,,,,,,,,,,,,,,,,,,,,,,,,,,,
943335,001,2022-11-21_01h50.25.154,Info_measure_main_exp,2022.2.2,Win32,9.696311523,,,,,,,,,,,,,,,,,,masks/mask_001.jpg,,,,,,,,,,,,,,,,,,,,,,,,,,,,,,,,,,,,,,,,,,,0,4,4,0,1,,,,,,,,,,,,,,,,,,,,,,,,,,,,,,,,,,,,,,,,,,,,,,
943335,001,2022-11-21_01h50.25.154,Info_measure_main_exp,2022.2.2,Win32,9.696311523,,,,,,,,,,,,,,,,,,masks/mask_004.jpg,,,,,,,,,,,,,,,,,,,,,,,,,,,,,,,,,,,,,,,,,,,,,,,,0,0,0,3,1,,,,,,,,,,,,,,,,,,,,,,,,,,,,,,,,,,,,,,,,,
943335,001,2022-11-21_01h50.25.154,Info_measure_main_exp,2022.2.2,Win32,9.696311523,,,,,,,,,,,,,,,,,,masks/mask_002.jpg,,,,,,,,,,,,,,,,,,,,,,,,,,,,,,,,,,,,,,,,,,,,,,,,0,1,1,1,1,,,,,,,,,,,,,,,,,,,,,,,,,,,,,,,,,,,,,,,,,
943335,001,2022-11-21_01h50.25.154,Info_measure_main_exp,2022.2.2,Win32,9.696311523,,,,,,,,,,,,,,,,,,masks/mask_005.jpg,,,,,,,,,,,,,,,,,,,,,,,,,,,,,,,,,,,,,,,,,,,,,,,,0,2,2,4,1,,,,,,,,,,,,,,,,,,,,,,,,,,,,,,,,,,,,,,,,,
943335,001,2022-11-21_01h50.25.154,Info_measure_main_exp,2022.2.2,Win32,9.696311523,,,,,,,,,,,,,,,,,,masks/mask_003.jpg,,,,,,,,,,,,,,,,,,,,,,,,,,,,,,,,,,,,,,,,,,,,,,,,0,3,3,2,1,,,,,,,,,,,,,,,,,,,,,,,,,,,,,,,,,,,,,,,,,
943335,001,2022-11-21_01h50.25.154,Info_measure_main_exp,2022.2.2,Win32,9.696311523,,,,,,,,,,,,,,,,,,masks/mask_001.jpg,,,,,,,,,,,,,,,,,,,,,,,,,,,,,,,,,,,,,,,,,,,,,,,,0,4,4,0,1,,,,,,,,,,,,,,,,,,,,,,,,,,,,,,,,,,,,,,,,,
943335,001,2022-11-21_01h50.25.154,Info_measure_main_exp,2022.2.2,Win32,9.696311523,,,,,,,,,,,,,,,,,,,,,,,,,,,,,,7,1.4973,1,,,,,,,,,,,,0,131,5,5,2274,1950,absent_patch/patch0002274.jpg,absent_patch/patch0001950.jpg,,,,,,,,,,,,,,,,,,,,0.023611175,0.074999995,1,0,0,response1disk,6,0.002083355,0.011111101,1,0,0,center_square,0,5,5,10,1,,,,,,,,,,,,,,,,,,,,,,,
943335,001,2022-11-21_01h50.25.154,Info_measure_main_exp,2022.2.2,Win32,9.696311523,,,,,,,,,,,,,,,,,,masks/mask_004.jpg,,,,,,,,,,,,,,,,,,,,,,,,,,,,,,,,,,,,,,,,,,,0,0,0,3,1,,,,,,,,,,,,,,,,,,,,,,,,,,,,,,,,,,,,,,,,,,,,,,
943335,001,2022-11-21_01h50.25.154,Info_measure_main_exp,2022.2.2,Win32,9.696311523,,,,,,,,,,,,,,,,,,masks/mask_002.jpg,,,,,,,,,,,,,,,,,,,,,,,,,,,,,,,,,,,,,,,,,,,0,1,1,1,1,,,,,,,,,,,,,,,,,,,,,,,,,,,,,,,,,,,,,,,,,,,,,,
943335,001,2022-11-21_01h50.25.154,Info_measure_main_exp,2022.2.2,Win32,9.696311523,,,,,,,,,,,,,,,,,,masks/mask_001.jpg,,,,,,,,,,,,,,,,,,,,,,,,,,,,,,,,,,,,,,,,,,,0,2,2,0,1,,,,,,,,,,,,,,,,,,,,,,,,,,,,,,,,,,,,,,,,,,,,,,
943335,001,2022-11-21_01h50.25.154,Info_measure_main_exp,2022.2.2,Win32,9.696311523,,,,,,,,,,,,,,,,,,masks/mask_005.jpg,,,,,,,,,,,,,,,,,,,,,,,,,,,,,,,,,,,,,,,,,,,0,3,3,4,1,,,,,,,,,,,,,,,,,,,,,,,,,,,,,,,,,,,,,,,,,,,,,,
943335,001,2022-11-21_01h50.25.154,Info_measure_main_exp,2022.2.2,Win32,9.696311523,,,,,,,,,,,,,,,,,,masks/mask_003.jpg,,,,,,,,,,,,,,,,,,,,,,,,,,,,,,,,,,,,,,,,,,,0,4,4,2,1,,,,,,,,,,,,,,,,,,,,,,,,,,,,,,,,,,,,,,,,,,,,,,
943335,001,2022-11-21_01h50.25.154,Info_measure_main_exp,2022.2.2,Win32,9.696311523,,,,,,,,,,,,,,,,,,masks/mask_002.jpg,,,,,,,,,,,,,,,,,,,,,,,,,,,,,,,,,,,,,,,,,,,,,,,,0,0,0,1,1,,,,,,,,,,,,,,,,,,,,,,,,,,,,,,,,,,,,,,,,,
943335,001,2022-11-21_01h50.25.154,Info_measure_main_exp,2022.2.2,Win32,9.696311523,,,,,,,,,,,,,,,,,,masks/mask_003.jpg,,,,,,,,,,,,,,,,,,,,,,,,,,,,,,,,,,,,,,,,,,,,,,,,0,1,1,2,1,,,,,,,,,,,,,,,,,,,,,,,,,,,,,,,,,,,,,,,,,
943335,001,2022-11-21_01h50.25.154,Info_measure_main_exp,2022.2.2,Win32,9.696311523,,,,,,,,,,,,,,,,,,masks/mask_001.jpg,,,,,,,,,,,,,,,,,,,,,,,,,,,,,,,,,,,,,,,,,,,,,,,,0,2,2,0,1,,,,,,,,,,,,,,,,,,,,,,,,,,,,,,,,,,,,,,,,,
943335,001,2022-11-21_01h50.25.154,Info_measure_main_exp,2022.2.2,Win32,9.696311523,,,,,,,,,,,,,,,,,,masks/mask_004.jpg,,,,,,,,,,,,,,,,,,,,,,,,,,,,,,,,,,,,,,,,,,,,,,,,0,3,3,3,1,,,,,,,,,,,,,,,,,,,,,,,,,,,,,,,,,,,,,,,,,
943335,001,2022-11-21_01h50.25.154,Info_measure_main_exp,2022.2.2,Win32,9.696311523,,,,,,,,,,,,,,,,,,masks/mask_005.jpg,,,,,,,,,,,,,,,,,,,,,,,,,,,,,,,,,,,,,,,,,,,,,,,,0,4,4,4,1,,,,,,,,,,,,,,,,,,,,,,,,,,,,,,,,,,,,,,,,,
943335,001,2022-11-21_01h50.25.154,Info_measure_main_exp,2022.2.2,Win32,9.696311523,,,,,,,,,,,,,,,,,,,,,,,,,,,,,,7,2.2589,1,,,,,,,,,,,,0,131,5,5,2166,2166,absent_patch/patch0002166.jpg,absent_patch/patch0002166.jpg,,,,,,,,,,,,,,,,,,,,0.043055534,0.104166667,1,0,0,response1disk,7,-0.002083302,-0.001388921,1,0,0,center_square,0,6,6,42,1,,,,,,,,,,,,,,,,,,,,,,,
943335,001,2022-11-21_01h50.25.154,Info_measure_main_exp,2022.2.2,Win32,9.696311523,,,,,,,,,,,,,,,,,,masks/mask_002.jpg,,,,,,,,,,,,,,,,,,,,,,,,,,,,,,,,,,,,,,,,,,,0,0,0,1,1,,,,,,,,,,,,,,,,,,,,,,,,,,,,,,,,,,,,,,,,,,,,,,
943335,001,2022-11-21_01h50.25.154,Info_measure_main_exp,2022.2.2,Win32,9.696311523,,,,,,,,,,,,,,,,,,masks/mask_005.jpg,,,,,,,,,,,,,,,,,,,,,,,,,,,,,,,,,,,,,,,,,,,0,1,1,4,1,,,,,,,,,,,,,,,,,,,,,,,,,,,,,,,,,,,,,,,,,,,,,,
943335,001,2022-11-21_01h50.25.154,Info_measure_main_exp,2022.2.2,Win32,9.696311523,,,,,,,,,,,,,,,,,,masks/mask_004.jpg,,,,,,,,,,,,,,,,,,,,,,,,,,,,,,,,,,,,,,,,,,,0,2,2,3,1,,,,,,,,,,,,,,,,,,,,,,,,,,,,,,,,,,,,,,,,,,,,,,
943335,001,2022-11-21_01h50.25.154,Info_measure_main_exp,2022.2.2,Win32,9.696311523,,,,,,,,,,,,,,,,,,masks/mask_003.jpg,,,,,,,,,,,,,,,,,,,,,,,,,,,,,,,,,,,,,,,,,,,0,3,3,2,1,,,,,,,,,,,,,,,,,,,,,,,,,,,,,,,,,,,,,,,,,,,,,,
943335,001,2022-11-21_01h50.25.154,Info_measure_main_exp,2022.2.2,Win32,9.696311523,,,,,,,,,,,,,,,,,,masks/mask_001.jpg,,,,,,,,,,,,,,,,,,,,,,,,,,,,,,,,,,,,,,,,,,,0,4,4,0,1,,,,,,,,,,,,,,,,,,,,,,,,,,,,,,,,,,,,,,,,,,,,,,
943335,001,2022-11-21_01h50.25.154,Info_measure_main_exp,2022.2.2,Win32,9.696311523,,,,,,,,,,,,,,,,,,masks/mask_005.jpg,,,,,,,,,,,,,,,,,,,,,,,,,,,,,,,,,,,,,,,,,,,,,,,,0,0,0,4,1,,,,,,,,,,,,,,,,,,,,,,,,,,,,,,,,,,,,,,,,,
943335,001,2022-11-21_01h50.25.154,Info_measure_main_exp,2022.2.2,Win32,9.696311523,,,,,,,,,,,,,,,,,,masks/mask_003.jpg,,,,,,,,,,,,,,,,,,,,,,,,,,,,,,,,,,,,,,,,,,,,,,,,0,1,1,2,1,,,,,,,,,,,,,,,,,,,,,,,,,,,,,,,,,,,,,,,,,
943335,001,2022-11-21_01h50.25.154,Info_measure_main_exp,2022.2.2,Win32,9.696311523,,,,,,,,,,,,,,,,,,masks/mask_001.jpg,,,,,,,,,,,,,,,,,,,,,,,,,,,,,,,,,,,,,,,,,,,,,,,,0,2,2,0,1,,,,,,,,,,,,,,,,,,,,,,,,,,,,,,,,,,,,,,,,,
943335,001,2022-11-21_01h50.25.154,Info_measure_main_exp,2022.2.2,Win32,9.696311523,,,,,,,,,,,,,,,,,,masks/mask_002.jpg,,,,,,,,,,,,,,,,,,,,,,,,,,,,,,,,,,,,,,,,,,,,,,,,0,3,3,1,1,,,,,,,,,,,,,,,,,,,,,,,,,,,,,,,,,,,,,,,,,
943335,001,2022-11-21_01h50.25.154,Info_measure_main_exp,2022.2.2,Win32,9.696311523,,,,,,,,,,,,,,,,,,masks/mask_004.jpg,,,,,,,,,,,,,,,,,,,,,,,,,,,,,,,,,,,,,,,,,,,,,,,,0,4,4,3,1,,,,,,,,,,,,,,,,,,,,,,,,,,,,,,,,,,,,,,,,,
943335,001,2022-11-21_01h50.25.154,Info_measure_main_exp,2022.2.2,Win32,9.696311523,,,,,,,,,,,,,,,,,,,,,,,,,,,,,,7,2.2823,1,,,,,,,,,,,,0,131,5,5,2154,2238,absent_patch/patch0002154.jpg,absent_patch/patch0002238.jpg,,,,,,,,,,,,,,,,,,,,0.074305534,0.142361111,1,0,0,response1disk,8,0.006250064,0.007638878,1,0,0,center_square,0,7,7,21,1,,,,,,,,,,,,,,,,,,,,,,,
943335,001,2022-11-21_01h50.25.154,Info_measure_main_exp,2022.2.2,Win32,9.696311523,,,,,,,,,,,,,,,,,,masks/mask_003.jpg,,,,,,,,,,,,,,,,,,,,,,,,,,,,,,,,,,,,,,,,,,,0,0,0,2,1,,,,,,,,,,,,,,,,,,,,,,,,,,,,,,,,,,,,,,,,,,,,,,
943335,001,2022-11-21_01h50.25.154,Info_measure_main_exp,2022.2.2,Win32,9.696311523,,,,,,,,,,,,,,,,,,masks/mask_005.jpg,,,,,,,,,,,,,,,,,,,,,,,,,,,,,,,,,,,,,,,,,,,0,1,1,4,1,,,,,,,,,,,,,,,,,,,,,,,,,,,,,,,,,,,,,,,,,,,,,,
943335,001,2022-11-21_01h50.25.154,Info_measure_main_exp,2022.2.2,Win32,9.696311523,,,,,,,,,,,,,,,,,,masks/mask_004.jpg,,,,,,,,,,,,,,,,,,,,,,,,,,,,,,,,,,,,,,,,,,,0,2,2,3,1,,,,,,,,,,,,,,,,,,,,,,,,,,,,,,,,,,,,,,,,,,,,,,
943335,001,2022-11-21_01h50.25.154,Info_measure_main_exp,2022.2.2,Win32,9.696311523,,,,,,,,,,,,,,,,,,masks/mask_002.jpg,,,,,,,,,,,,,,,,,,,,,,,,,,,,,,,,,,,,,,,,,,,0,3,3,1,1,,,,,,,,,,,,,,,,,,,,,,,,,,,,,,,,,,,,,,,,,,,,,,
943335,001,2022-11-21_01h50.25.154,Info_measure_main_exp,2022.2.2,Win32,9.696311523,,,,,,,,,,,,,,,,,,masks/mask_001.jpg,,,,,,,,,,,,,,,,,,,,,,,,,,,,,,,,,,,,,,,,,,,0,4,4,0,1,,,,,,,,,,,,,,,,,,,,,,,,,,,,,,,,,,,,,,,,,,,,,,
943335,001,2022-11-21_01h50.25.154,Info_measure_main_exp,2022.2.2,Win32,9.696311523,,,,,,,,,,,,,,,,,,masks/mask_002.jpg,,,,,,,,,,,,,,,,,,,,,,,,,,,,,,,,,,,,,,,,,,,,,,,,0,0,0,1,1,,,,,,,,,,,,,,,,,,,,,,,,,,,,,,,,,,,,,,,,,
943335,001,2022-11-21_01h50.25.154,Info_measure_main_exp,2022.2.2,Win32,9.696311523,,,,,,,,,,,,,,,,,,masks/mask_004.jpg,,,,,,,,,,,,,,,,,,,,,,,,,,,,,,,,,,,,,,,,,,,,,,,,0,1,1,3,1,,,,,,,,,,,,,,,,,,,,,,,,,,,,,,,,,,,,,,,,,
943335,001,2022-11-21_01h50.25.154,Info_measure_main_exp,2022.2.2,Win32,9.696311523,,,,,,,,,,,,,,,,,,masks/mask_001.jpg,,,,,,,,,,,,,,,,,,,,,,,,,,,,,,,,,,,,,,,,,,,,,,,,0,2,2,0,1,,,,,,,,,,,,,,,,,,,,,,,,,,,,,,,,,,,,,,,,,
943335,001,2022-11-21_01h50.25.154,Info_measure_main_exp,2022.2.2,Win32,9.696311523,,,,,,,,,,,,,,,,,,masks/mask_003.jpg,,,,,,,,,,,,,,,,,,,,,,,,,,,,,,,,,,,,,,,,,,,,,,,,0,3,3,2,1,,,,,,,,,,,,,,,,,,,,,,,,,,,,,,,,,,,,,,,,,
943335,001,2022-11-21_01h50.25.154,Info_measure_main_exp,2022.2.2,Win32,9.696311523,,,,,,,,,,,,,,,,,,masks/mask_005.jpg,,,,,,,,,,,,,,,,,,,,,,,,,,,,,,,,,,,,,,,,,,,,,,,,0,4,4,4,1,,,,,,,,,,,,,,,,,,,,,,,,,,,,,,,,,,,,,,,,,
943335,001,2022-11-21_01h50.25.154,Info_measure_main_exp,2022.2.2,Win32,9.696311523,,,,,,,,,,,,,,,,,,,,,,,,,,,,,,5,1.8186,1,,,,,,,,,,,,1,131,5,5,1,2214,present_patch/cong_131_5_a.jpg,absent_patch/patch0002214.jpg,,,,,,,,,,,,,,,,,,,,0.109027757,-0.034722222,1,0,0,response3disk,9,0.002777841,-0.007638878,1,0,0,center_square,0,8,8,4,1,,,,,,,,,,,,,,,,,,,,,,,
943335,001,2022-11-21_01h50.25.154,Info_measure_main_exp,2022.2.2,Win32,9.696311523,,,,,,,,,,,,,,,,,,masks/mask_002.jpg,,,,,,,,,,,,,,,,,,,,,,,,,,,,,,,,,,,,,,,,,,,0,0,0,1,1,,,,,,,,,,,,,,,,,,,,,,,,,,,,,,,,,,,,,,,,,,,,,,
943335,001,2022-11-21_01h50.25.154,Info_measure_main_exp,2022.2.2,Win32,9.696311523,,,,,,,,,,,,,,,,,,masks/mask_005.jpg,,,,,,,,,,,,,,,,,,,,,,,,,,,,,,,,,,,,,,,,,,,0,1,1,4,1,,,,,,,,,,,,,,,,,,,,,,,,,,,,,,,,,,,,,,,,,,,,,,
943335,001,2022-11-21_01h50.25.154,Info_measure_main_exp,2022.2.2,Win32,9.696311523,,,,,,,,,,,,,,,,,,masks/mask_004.jpg,,,,,,,,,,,,,,,,,,,,,,,,,,,,,,,,,,,,,,,,,,,0,2,2,3,1,,,,,,,,,,,,,,,,,,,,,,,,,,,,,,,,,,,,,,,,,,,,,,
943335,001,2022-11-21_01h50.25.154,Info_measure_main_exp,2022.2.2,Win32,9.696311523,,,,,,,,,,,,,,,,,,masks/mask_003.jpg,,,,,,,,,,,,,,,,,,,,,,,,,,,,,,,,,,,,,,,,,,,0,3,3,2,1,,,,,,,,,,,,,,,,,,,,,,,,,,,,,,,,,,,,,,,,,,,,,,
943335,001,2022-11-21_01h50.25.154,Info_measure_main_exp,2022.2.2,Win32,9.696311523,,,,,,,,,,,,,,,,,,masks/mask_001.jpg,,,,,,,,,,,,,,,,,,,,,,,,,,,,,,,,,,,,,,,,,,,0,4,4,0,1,,,,,,,,,,,,,,,,,,,,,,,,,,,,,,,,,,,,,,,,,,,,,,
943335,001,2022-11-21_01h50.25.154,Info_measure_main_exp,2022.2.2,Win32,9.696311523,,,,,,,,,,,,,,,,,,masks/mask_004.jpg,,,,,,,,,,,,,,,,,,,,,,,,,,,,,,,,,,,,,,,,,,,,,,,,0,0,0,3,1,,,,,,,,,,,,,,,,,,,,,,,,,,,,,,,,,,,,,,,,,
943335,001,2022-11-21_01h50.25.154,Info_measure_main_exp,2022.2.2,Win32,9.696311523,,,,,,,,,,,,,,,,,,masks/mask_002.jpg,,,,,,,,,,,,,,,,,,,,,,,,,,,,,,,,,,,,,,,,,,,,,,,,0,1,1,1,1,,,,,,,,,,,,,,,,,,,,,,,,,,,,,,,,,,,,,,,,,
943335,001,2022-11-21_01h50.25.154,Info_measure_main_exp,2022.2.2,Win32,9.696311523,,,,,,,,,,,,,,,,,,masks/mask_003.jpg,,,,,,,,,,,,,,,,,,,,,,,,,,,,,,,,,,,,,,,,,,,,,,,,0,2,2,2,1,,,,,,,,,,,,,,,,,,,,,,,,,,,,,,,,,,,,,,,,,
943335,001,2022-11-21_01h50.25.154,Info_measure_main_exp,2022.2.2,Win32,9.696311523,,,,,,,,,,,,,,,,,,masks/mask_005.jpg,,,,,,,,,,,,,,,,,,,,,,,,,,,,,,,,,,,,,,,,,,,,,,,,0,3,3,4,1,,,,,,,,,,,,,,,,,,,,,,,,,,,,,,,,,,,,,,,,,
943335,001,2022-11-21_01h50.25.154,Info_measure_main_exp,2022.2.2,Win32,9.696311523,,,,,,,,,,,,,,,,,,masks/mask_001.jpg,,,,,,,,,,,,,,,,,,,,,,,,,,,,,,,,,,,,,,,,,,,,,,,,0,4,4,0,1,,,,,,,,,,,,,,,,,,,,,,,,,,,,,,,,,,,,,,,,,
943335,001,2022-11-21_01h50.25.154,Info_measure_main_exp,2022.2.2,Win32,9.696311523,,,,,,,,,,,,,,,,,,,,,,,,,,,,,,6,1.3882,1,,,,,,,,,,,,0,131,5,5,2082,2082,absent_patch/patch0002082.jpg,absent_patch/patch0002082.jpg,,,,,,,,,,,,,,,,,,,,0.125694487,0.056249989,1,0,0,response1disk,10,0.009027799,0.003472222,1,0,0,center_square,0,9,9,74,1,,,,,,,,,,,,,,,,,,,,,,,
943335,001,2022-11-21_01h50.25.154,Info_measure_main_exp,2022.2.2,Win32,9.696311523,,,,,,,,,,,,,,,,,,masks/mask_004.jpg,,,,,,,,,,,,,,,,,,,,,,,,,,,,,,,,,,,,,,,,,,,0,0,0,3,1,,,,,,,,,,,,,,,,,,,,,,,,,,,,,,,,,,,,,,,,,,,,,,
943335,001,2022-11-21_01h50.25.154,Info_measure_main_exp,2022.2.2,Win32,9.696311523,,,,,,,,,,,,,,,,,,masks/mask_001.jpg,,,,,,,,,,,,,,,,,,,,,,,,,,,,,,,,,,,,,,,,,,,0,1,1,0,1,,,,,,,,,,,,,,,,,,,,,,,,,,,,,,,,,,,,,,,,,,,,,,
943335,001,2022-11-21_01h50.25.154,Info_measure_main_exp,2022.2.2,Win32,9.696311523,,,,,,,,,,,,,,,,,,masks/mask_005.jpg,,,,,,,,,,,,,,,,,,,,,,,,,,,,,,,,,,,,,,,,,,,0,2,2,4,1,,,,,,,,,,,,,,,,,,,,,,,,,,,,,,,,,,,,,,,,,,,,,,
943335,001,2022-11-21_01h50.25.154,Info_measure_main_exp,2022.2.2,Win32,9.696311523,,,,,,,,,,,,,,,,,,masks/mask_002.jpg,,,,,,,,,,,,,,,,,,,,,,,,,,,,,,,,,,,,,,,,,,,0,3,3,1,1,,,,,,,,,,,,,,,,,,,,,,,,,,,,,,,,,,,,,,,,,,,,,,
943335,001,2022-11-21_01h50.25.154,Info_measure_main_exp,2022.2.2,Win32,9.696311523,,,,,,,,,,,,,,,,,,masks/mask_003.jpg,,,,,,,,,,,,,,,,,,,,,,,,,,,,,,,,,,,,,,,,,,,0,4,4,2,1,,,,,,,,,,,,,,,,,,,,,,,,,,,,,,,,,,,,,,,,,,,,,,
943335,001,2022-11-21_01h50.25.154,Info_measure_main_exp,2022.2.2,Win32,9.696311523,,,,,,,,,,,,,,,,,,masks/mask_004.jpg,,,,,,,,,,,,,,,,,,,,,,,,,,,,,,,,,,,,,,,,,,,,,,,,0,0,0,3,1,,,,,,,,,,,,,,,,,,,,,,,,,,,,,,,,,,,,,,,,,
943335,001,2022-11-21_01h50.25.154,Info_measure_main_exp,2022.2.2,Win32,9.696311523,,,,,,,,,,,,,,,,,,masks/mask_001.jpg,,,,,,,,,,,,,,,,,,,,,,,,,,,,,,,,,,,,,,,,,,,,,,,,0,1,1,0,1,,,,,,,,,,,,,,,,,,,,,,,,,,,,,,,,,,,,,,,,,
943335,001,2022-11-21_01h50.25.154,Info_measure_main_exp,2022.2.2,Win32,9.696311523,,,,,,,,,,,,,,,,,,masks/mask_005.jpg,,,,,,,,,,,,,,,,,,,,,,,,,,,,,,,,,,,,,,,,,,,,,,,,0,2,2,4,1,,,,,,,,,,,,,,,,,,,,,,,,,,,,,,,,,,,,,,,,,
943335,001,2022-11-21_01h50.25.154,Info_measure_main_exp,2022.2.2,Win32,9.696311523,,,,,,,,,,,,,,,,,,masks/mask_003.jpg,,,,,,,,,,,,,,,,,,,,,,,,,,,,,,,,,,,,,,,,,,,,,,,,0,3,3,2,1,,,,,,,,,,,,,,,,,,,,,,,,,,,,,,,,,,,,,,,,,
943335,001,2022-11-21_01h50.25.154,Info_measure_main_exp,2022.2.2,Win32,9.696311523,,,,,,,,,,,,,,,,,,masks/mask_002.jpg,,,,,,,,,,,,,,,,,,,,,,,,,,,,,,,,,,,,,,,,,,,,,,,,0,4,4,1,1,,,,,,,,,,,,,,,,,,,,,,,,,,,,,,,,,,,,,,,,,
943335,001,2022-11-21_01h50.25.154,Info_measure_main_exp,2022.2.2,Win32,9.696311523,,,,,,,,,,,,,,,,,,,,,,,,,,,,,,0,1.2125,1,,,,,,,,,,,,0,131,5,5,2154,1950,absent_patch/patch0002154.jpg,absent_patch/patch0001950.jpg,,,,,,,,,,,,,,,,,,,,-0.060416645,0.140277783,1,0,0,response7disk,11,0.001388868,0.005555524,1,0,0,center_square,0,10,10,96,1,,,,,,,,,,,,,,,,,,,,,,,
943335,001,2022-11-21_01h50.25.154,Info_measure_main_exp,2022.2.2,Win32,9.696311523,,,,,,,,,,,,,,,,,,masks/mask_002.jpg,,,,,,,,,,,,,,,,,,,,,,,,,,,,,,,,,,,,,,,,,,,0,0,0,1,1,,,,,,,,,,,,,,,,,,,,,,,,,,,,,,,,,,,,,,,,,,,,,,
943335,001,2022-11-21_01h50.25.154,Info_measure_main_exp,2022.2.2,Win32,9.696311523,,,,,,,,,,,,,,,,,,masks/mask_003.jpg,,,,,,,,,,,,,,,,,,,,,,,,,,,,,,,,,,,,,,,,,,,0,1,1,2,1,,,,,,,,,,,,,,,,,,,,,,,,,,,,,,,,,,,,,,,,,,,,,,
943335,001,2022-11-21_01h50.25.154,Info_measure_main_exp,2022.2.2,Win32,9.696311523,,,,,,,,,,,,,,,,,,masks/mask_001.jpg,,,,,,,,,,,,,,,,,,,,,,,,,,,,,,,,,,,,,,,,,,,0,2,2,0,1,,,,,,,,,,,,,,,,,,,,,,,,,,,,,,,,,,,,,,,,,,,,,,
943335,001,2022-11-21_01h50.25.154,Info_measure_main_exp,2022.2.2,Win32,9.696311523,,,,,,,,,,,,,,,,,,masks/mask_004.jpg,,,,,,,,,,,,,,,,,,,,,,,,,,,,,,,,,,,,,,,,,,,0,3,3,3,1,,,,,,,,,,,,,,,,,,,,,,,,,,,,,,,,,,,,,,,,,,,,,,
943335,001,2022-11-21_01h50.25.154,Info_measure_main_exp,2022.2.2,Win32,9.696311523,,,,,,,,,,,,,,,,,,masks/mask_005.jpg,,,,,,,,,,,,,,,,,,,,,,,,,,,,,,,,,,,,,,,,,,,0,4,4,4,1,,,,,,,,,,,,,,,,,,,,,,,,,,,,,,,,,,,,,,,,,,,,,,
943335,001,2022-11-21_01h50.25.154,Info_measure_main_exp,2022.2.2,Win32,9.696311523,,,,,,,,,,,,,,,,,,masks/mask_001.jpg,,,,,,,,,,,,,,,,,,,,,,,,,,,,,,,,,,,,,,,,,,,,,,,,0,0,0,0,1,,,,,,,,,,,,,,,,,,,,,,,,,,,,,,,,,,,,,,,,,
943335,001,2022-11-21_01h50.25.154,Info_measure_main_exp,2022.2.2,Win32,9.696311523,,,,,,,,,,,,,,,,,,masks/mask_005.jpg,,,,,,,,,,,,,,,,,,,,,,,,,,,,,,,,,,,,,,,,,,,,,,,,0,1,1,4,1,,,,,,,,,,,,,,,,,,,,,,,,,,,,,,,,,,,,,,,,,
943335,001,2022-11-21_01h50.25.154,Info_measure_main_exp,2022.2.2,Win32,9.696311523,,,,,,,,,,,,,,,,,,masks/mask_003.jpg,,,,,,,,,,,,,,,,,,,,,,,,,,,,,,,,,,,,,,,,,,,,,,,,0,2,2,2,1,,,,,,,,,,,,,,,,,,,,,,,,,,,,,,,,,,,,,,,,,
943335,001,2022-11-21_01h50.25.154,Info_measure_main_exp,2022.2.2,Win32,9.696311523,,,,,,,,,,,,,,,,,,masks/mask_002.jpg,,,,,,,,,,,,,,,,,,,,,,,,,,,,,,,,,,,,,,,,,,,,,,,,0,3,3,1,1,,,,,,,,,,,,,,,,,,,,,,,,,,,,,,,,,,,,,,,,,
943335,001,2022-11-21_01h50.25.154,Info_measure_main_exp,2022.2.2,Win32,9.696311523,,,,,,,,,,,,,,,,,,masks/mask_004.jpg,,,,,,,,,,,,,,,,,,,,,,,,,,,,,,,,,,,,,,,,,,,,,,,,0,4,4,3,1,,,,,,,,,,,,,,,,,,,,,,,,,,,,,,,,,,,,,,,,,
943335,001,2022-11-21_01h50.25.154,Info_measure_main_exp,2022.2.2,Win32,9.696311523,,,,,,,,,,,,,,,,,,,,,,,,,,,,,,3,7.5823,1,,,,,,,,,,,,0,131,5,5,2214,2082,absent_patch/patch0002214.jpg,absent_patch/patch0002082.jpg,,,,,,,,,,,,,,,,,,,,-0.063194434,-0.100000011,1,0,0,response5disk,12,-0.004166656,-0.002777788,1,0,0,center_square,0,11,11,103,1,,,,,,,,,,,,,,,,,,,,,,,
943335,001,2022-11-21_01h50.25.154,Info_measure_main_exp,2022.2.2,Win32,9.696311523,,,,,,,,,,,,,,,,,,masks/mask_001.jpg,,,,,,,,,,,,,,,,,,,,,,,,,,,,,,,,,,,,,,,,,,,0,0,0,0,1,,,,,,,,,,,,,,,,,,,,,,,,,,,,,,,,,,,,,,,,,,,,,,
943335,001,2022-11-21_01h50.25.154,Info_measure_main_exp,2022.2.2,Win32,9.696311523,,,,,,,,,,,,,,,,,,masks/mask_002.jpg,,,,,,,,,,,,,,,,,,,,,,,,,,,,,,,,,,,,,,,,,,,0,1,1,1,1,,,,,,,,,,,,,,,,,,,,,,,,,,,,,,,,,,,,,,,,,,,,,,
943335,001,2022-11-21_01h50.25.154,Info_measure_main_exp,2022.2.2,Win32,9.696311523,,,,,,,,,,,,,,,,,,masks/mask_005.jpg,,,,,,,,,,,,,,,,,,,,,,,,,,,,,,,,,,,,,,,,,,,0,2,2,4,1,,,,,,,,,,,,,,,,,,,,,,,,,,,,,,,,,,,,,,,,,,,,,,
943335,001,2022-11-21_01h50.25.154,Info_measure_main_exp,2022.2.2,Win32,9.696311523,,,,,,,,,,,,,,,,,,masks/mask_003.jpg,,,,,,,,,,,,,,,,,,,,,,,,,,,,,,,,,,,,,,,,,,,0,3,3,2,1,,,,,,,,,,,,,,,,,,,,,,,,,,,,,,,,,,,,,,,,,,,,,,
943335,001,2022-11-21_01h50.25.154,Info_measure_main_exp,2022.2.2,Win32,9.696311523,,,,,,,,,,,,,,,,,,masks/mask_004.jpg,,,,,,,,,,,,,,,,,,,,,,,,,,,,,,,,,,,,,,,,,,,0,4,4,3,1,,,,,,,,,,,,,,,,,,,,,,,,,,,,,,,,,,,,,,,,,,,,,,
943335,001,2022-11-21_01h50.25.154,Info_measure_main_exp,2022.2.2,Win32,9.696311523,,,,,,,,,,,,,,,,,,masks/mask_003.jpg,,,,,,,,,,,,,,,,,,,,,,,,,,,,,,,,,,,,,,,,,,,,,,,,0,0,0,2,1,,,,,,,,,,,,,,,,,,,,,,,,,,,,,,,,,,,,,,,,,
943335,001,2022-11-21_01h50.25.154,Info_measure_main_exp,2022.2.2,Win32,9.696311523,,,,,,,,,,,,,,,,,,masks/mask_005.jpg,,,,,,,,,,,,,,,,,,,,,,,,,,,,,,,,,,,,,,,,,,,,,,,,0,1,1,4,1,,,,,,,,,,,,,,,,,,,,,,,,,,,,,,,,,,,,,,,,,
943335,001,2022-11-21_01h50.25.154,Info_measure_main_exp,2022.2.2,Win32,9.696311523,,,,,,,,,,,,,,,,,,masks/mask_004.jpg,,,,,,,,,,,,,,,,,,,,,,,,,,,,,,,,,,,,,,,,,,,,,,,,0,2,2,3,1,,,,,,,,,,,,,,,,,,,,,,,,,,,,,,,,,,,,,,,,,
943335,001,2022-11-21_01h50.25.154,Info_measure_main_exp,2022.2.2,Win32,9.696311523,,,,,,,,,,,,,,,,,,masks/mask_002.jpg,,,,,,,,,,,,,,,,,,,,,,,,,,,,,,,,,,,,,,,,,,,,,,,,0,3,3,1,1,,,,,,,,,,,,,,,,,,,,,,,,,,,,,,,,,,,,,,,,,
943335,001,2022-11-21_01h50.25.154,Info_measure_main_exp,2022.2.2,Win32,9.696311523,,,,,,,,,,,,,,,,,,masks/mask_001.jpg,,,,,,,,,,,,,,,,,,,,,,,,,,,,,,,,,,,,,,,,,,,,,,,,0,4,4,0,1,,,,,,,,,,,,,,,,,,,,,,,,,,,,,,,,,,,,,,,,,
943335,001,2022-11-21_01h50.25.154,Info_measure_main_exp,2022.2.2,Win32,9.696311523,,,,,,,,,,,,,,,,,,,,,,,,,,,,,,5,3.2005,1,,,,,,,,,,,,1,131,5,5,1,2166,present_patch/cong_131_5_a.jpg,absent_patch/patch0002166.jpg,,,,,,,,,,,,,,,,,,,,0.152083397,-0.032638921,1,0,0,response3disk,13,0.011111153,-0.005555577,1,0,0,center_square,0,12,12,54,1,,,,,,,,,,,,,,,,,,,,,,,
943335,001,2022-11-21_01h50.25.154,Info_measure_main_exp,2022.2.2,Win32,9.696311523,,,,,,,,,,,,,,,,,,masks/mask_005.jpg,,,,,,,,,,,,,,,,,,,,,,,,,,,,,,,,,,,,,,,,,,,0,0,0,4,1,,,,,,,,,,,,,,,,,,,,,,,,,,,,,,,,,,,,,,,,,,,,,,
943335,001,2022-11-21_01h50.25.154,Info_measure_main_exp,2022.2.2,Win32,9.696311523,,,,,,,,,,,,,,,,,,masks/mask_003.jpg,,,,,,,,,,,,,,,,,,,,,,,,,,,,,,,,,,,,,,,,,,,0,1,1,2,1,,,,,,,,,,,,,,,,,,,,,,,,,,,,,,,,,,,,,,,,,,,,,,
943335,001,2022-11-21_01h50.25.154,Info_measure_main_exp,2022.2.2,Win32,9.696311523,,,,,,,,,,,,,,,,,,masks/mask_002.jpg,,,,,,,,,,,,,,,,,,,,,,,,,,,,,,,,,,,,,,,,,,,0,2,2,1,1,,,,,,,,,,,,,,,,,,,,,,,,,,,,,,,,,,,,,,,,,,,,,,
943335,001,2022-11-21_01h50.25.154,Info_measure_main_exp,2022.2.2,Win32,9.696311523,,,,,,,,,,,,,,,,,,masks/mask_004.jpg,,,,,,,,,,,,,,,,,,,,,,,,,,,,,,,,,,,,,,,,,,,0,3,3,3,1,,,,,,,,,,,,,,,,,,,,,,,,,,,,,,,,,,,,,,,,,,,,,,
943335,001,2022-11-21_01h50.25.154,Info_measure_main_exp,2022.2.2,Win32,9.696311523,,,,,,,,,,,,,,,,,,masks/mask_001.jpg,,,,,,,,,,,,,,,,,,,,,,,,,,,,,,,,,,,,,,,,,,,0,4,4,0,1,,,,,,,,,,,,,,,,,,,,,,,,,,,,,,,,,,,,,,,,,,,,,,
943335,001,2022-11-21_01h50.25.154,Info_measure_main_exp,2022.2.2,Win32,9.696311523,,,,,,,,,,,,,,,,,,masks/mask_001.jpg,,,,,,,,,,,,,,,,,,,,,,,,,,,,,,,,,,,,,,,,,,,,,,,,0,0,0,0,1,,,,,,,,,,,,,,,,,,,,,,,,,,,,,,,,,,,,,,,,,
943335,001,2022-11-21_01h50.25.154,Info_measure_main_exp,2022.2.2,Win32,9.696311523,,,,,,,,,,,,,,,,,,masks/mask_004.jpg,,,,,,,,,,,,,,,,,,,,,,,,,,,,,,,,,,,,,,,,,,,,,,,,0,1,1,3,1,,,,,,,,,,,,,,,,,,,,,,,,,,,,,,,,,,,,,,,,,
943335,001,2022-11-21_01h50.25.154,Info_measure_main_exp,2022.2.2,Win32,9.696311523,,,,,,,,,,,,,,,,,,masks/mask_002.jpg,,,,,,,,,,,,,,,,,,,,,,,,,,,,,,,,,,,,,,,,,,,,,,,,0,2,2,1,1,,,,,,,,,,,,,,,,,,,,,,,,,,,,,,,,,,,,,,,,,
943335,001,2022-11-21_01h50.25.154,Info_measure_main_exp,2022.2.2,Win32,9.696311523,,,,,,,,,,,,,,,,,,masks/mask_005.jpg,,,,,,,,,,,,,,,,,,,,,,,,,,,,,,,,,,,,,,,,,,,,,,,,0,3,3,4,1,,,,,,,,,,,,,,,,,,,,,,,,,,,,,,,,,,,,,,,,,
943335,001,2022-11-21_01h50.25.154,Info_measure_main_exp,2022.2.2,Win32,9.696311523,,,,,,,,,,,,,,,,,,masks/mask_003.jpg,,,,,,,,,,,,,,,,,,,,,,,,,,,,,,,,,,,,,,,,,,,,,,,,0,4,4,2,1,,,,,,,,,,,,,,,,,,,,,,,,,,,,,,,,,,,,,,,,,
943335,001,2022-11-21_01h50.25.154,Info_measure_main_exp,2022.2.2,Win32,9.696311523,,,,,,,,,,,,,,,,,,,,,,,,,,,,,,7,2.0312,1,,,,,,,,,,,,0,131,5,5,2154,1974,absent_patch/patch0002154.jpg,absent_patch/patch0001974.jpg,,,,,,,,,,,,,,,,,,,,0.036805577,0.118749989,1,0,0,response1disk,14,0.015277757,0.012499968,1,0,0,center_square,0,13,13,82,1,,,,,,,,,,,,,,,,,,,,,,,
943335,001,2022-11-21_01h50.25.154,Info_measure_main_exp,2022.2.2,Win32,9.696311523,,,,,,,,,,,,,,,,,,masks/mask_004.jpg,,,,,,,,,,,,,,,,,,,,,,,,,,,,,,,,,,,,,,,,,,,0,0,0,3,1,,,,,,,,,,,,,,,,,,,,,,,,,,,,,,,,,,,,,,,,,,,,,,
943335,001,2022-11-21_01h50.25.154,Info_measure_main_exp,2022.2.2,Win32,9.696311523,,,,,,,,,,,,,,,,,,masks/mask_002.jpg,,,,,,,,,,,,,,,,,,,,,,,,,,,,,,,,,,,,,,,,,,,0,1,1,1,1,,,,,,,,,,,,,,,,,,,,,,,,,,,,,,,,,,,,,,,,,,,,,,
943335,001,2022-11-21_01h50.25.154,Info_measure_main_exp,2022.2.2,Win32,9.696311523,,,,,,,,,,,,,,,,,,masks/mask_005.jpg,,,,,,,,,,,,,,,,,,,,,,,,,,,,,,,,,,,,,,,,,,,0,2,2,4,1,,,,,,,,,,,,,,,,,,,,,,,,,,,,,,,,,,,,,,,,,,,,,,
943335,001,2022-11-21_01h50.25.154,Info_measure_main_exp,2022.2.2,Win32,9.696311523,,,,,,,,,,,,,,,,,,masks/mask_003.jpg,,,,,,,,,,,,,,,,,,,,,,,,,,,,,,,,,,,,,,,,,,,0,3,3,2,1,,,,,,,,,,,,,,,,,,,,,,,,,,,,,,,,,,,,,,,,,,,,,,
943335,001,2022-11-21_01h50.25.154,Info_measure_main_exp,2022.2.2,Win32,9.696311523,,,,,,,,,,,,,,,,,,masks/mask_001.jpg,,,,,,,,,,,,,,,,,,,,,,,,,,,,,,,,,,,,,,,,,,,0,4,4,0,1,,,,,,,,,,,,,,,,,,,,,,,,,,,,,,,,,,,,,,,,,,,,,,
943335,001,2022-11-21_01h50.25.154,Info_measure_main_exp,2022.2.2,Win32,9.696311523,,,,,,,,,,,,,,,,,,masks/mask_003.jpg,,,,,,,,,,,,,,,,,,,,,,,,,,,,,,,,,,,,,,,,,,,,,,,,0,0,0,2,1,,,,,,,,,,,,,,,,,,,,,,,,,,,,,,,,,,,,,,,,,
943335,001,2022-11-21_01h50.25.154,Info_measure_main_exp,2022.2.2,Win32,9.696311523,,,,,,,,,,,,,,,,,,masks/mask_005.jpg,,,,,,,,,,,,,,,,,,,,,,,,,,,,,,,,,,,,,,,,,,,,,,,,0,1,1,4,1,,,,,,,,,,,,,,,,,,,,,,,,,,,,,,,,,,,,,,,,,
943335,001,2022-11-21_01h50.25.154,Info_measure_main_exp,2022.2.2,Win32,9.696311523,,,,,,,,,,,,,,,,,,masks/mask_001.jpg,,,,,,,,,,,,,,,,,,,,,,,,,,,,,,,,,,,,,,,,,,,,,,,,0,2,2,0,1,,,,,,,,,,,,,,,,,,,,,,,,,,,,,,,,,,,,,,,,,
943335,001,2022-11-21_01h50.25.154,Info_measure_main_exp,2022.2.2,Win32,9.696311523,,,,,,,,,,,,,,,,,,masks/mask_004.jpg,,,,,,,,,,,,,,,,,,,,,,,,,,,,,,,,,,,,,,,,,,,,,,,,0,3,3,3,1,,,,,,,,,,,,,,,,,,,,,,,,,,,,,,,,,,,,,,,,,
943335,001,2022-11-21_01h50.25.154,Info_measure_main_exp,2022.2.2,Win32,9.696311523,,,,,,,,,,,,,,,,,,masks/mask_002.jpg,,,,,,,,,,,,,,,,,,,,,,,,,,,,,,,,,,,,,,,,,,,,,,,,0,4,4,1,1,,,,,,,,,,,,,,,,,,,,,,,,,,,,,,,,,,,,,,,,,
943335,001,2022-11-21_01h50.25.154,Info_measure_main_exp,2022.2.2,Win32,9.696311523,,,,,,,,,,,,,,,,,,,,,,,,,,,,,,5,5.4855,1,,,,,,,,,,,,0,131,5,5,2142,2142,absent_patch/patch0002142.jpg,absent_patch/patch0002142.jpg,,,,,,,,,,,,,,,,,,,,0.093055619,-0.061111132,1,0,0,response3disk,15,0.000694487,0.000694434,1,0,0,center_square,0,14,14,13,1,,,,,,,,,,,,,,,,,,,,,,,
943335,001,2022-11-21_01h50.25.154,Info_measure_main_exp,2022.2.2,Win32,9.696311523,,,,,,,,,,,,,,,,,,masks/mask_002.jpg,,,,,,,,,,,,,,,,,,,,,,,,,,,,,,,,,,,,,,,,,,,0,0,0,1,1,,,,,,,,,,,,,,,,,,,,,,,,,,,,,,,,,,,,,,,,,,,,,,
943335,001,2022-11-21_01h50.25.154,Info_measure_main_exp,2022.2.2,Win32,9.696311523,,,,,,,,,,,,,,,,,,masks/mask_001.jpg,,,,,,,,,,,,,,,,,,,,,,,,,,,,,,,,,,,,,,,,,,,0,1,1,0,1,,,,,,,,,,,,,,,,,,,,,,,,,,,,,,,,,,,,,,,,,,,,,,
943335,001,2022-11-21_01h50.25.154,Info_measure_main_exp,2022.2.2,Win32,9.696311523,,,,,,,,,,,,,,,,,,masks/mask_005.jpg,,,,,,,,,,,,,,,,,,,,,,,,,,,,,,,,,,,,,,,,,,,0,2,2,4,1,,,,,,,,,,,,,,,,,,,,,,,,,,,,,,,,,,,,,,,,,,,,,,
943335,001,2022-11-21_01h50.25.154,Info_measure_main_exp,2022.2.2,Win32,9.696311523,,,,,,,,,,,,,,,,,,masks/mask_004.jpg,,,,,,,,,,,,,,,,,,,,,,,,,,,,,,,,,,,,,,,,,,,0,3,3,3,1,,,,,,,,,,,,,,,,,,,,,,,,,,,,,,,,,,,,,,,,,,,,,,
943335,001,2022-11-21_01h50.25.154,Info_measure_main_exp,2022.2.2,Win32,9.696311523,,,,,,,,,,,,,,,,,,masks/mask_003.jpg,,,,,,,,,,,,,,,,,,,,,,,,,,,,,,,,,,,,,,,,,,,0,4,4,2,1,,,,,,,,,,,,,,,,,,,,,,,,,,,,,,,,,,,,,,,,,,,,,,
943335,001,2022-11-21_01h50.25.154,Info_measure_main_exp,2022.2.2,Win32,9.696311523,,,,,,,,,,,,,,,,,,masks/mask_001.jpg,,,,,,,,,,,,,,,,,,,,,,,,,,,,,,,,,,,,,,,,,,,,,,,,0,0,0,0,1,,,,,,,,,,,,,,,,,,,,,,,,,,,,,,,,,,,,,,,,,
943335,001,2022-11-21_01h50.25.154,Info_measure_main_exp,2022.2.2,Win32,9.696311523,,,,,,,,,,,,,,,,,,masks/mask_003.jpg,,,,,,,,,,,,,,,,,,,,,,,,,,,,,,,,,,,,,,,,,,,,,,,,0,1,1,2,1,,,,,,,,,,,,,,,,,,,,,,,,,,,,,,,,,,,,,,,,,
943335,001,2022-11-21_01h50.25.154,Info_measure_main_exp,2022.2.2,Win32,9.696311523,,,,,,,,,,,,,,,,,,masks/mask_002.jpg,,,,,,,,,,,,,,,,,,,,,,,,,,,,,,,,,,,,,,,,,,,,,,,,0,2,2,1,1,,,,,,,,,,,,,,,,,,,,,,,,,,,,,,,,,,,,,,,,,
943335,001,2022-11-21_01h50.25.154,Info_measure_main_exp,2022.2.2,Win32,9.696311523,,,,,,,,,,,,,,,,,,masks/mask_005.jpg,,,,,,,,,,,,,,,,,,,,,,,,,,,,,,,,,,,,,,,,,,,,,,,,0,3,3,4,1,,,,,,,,,,,,,,,,,,,,,,,,,,,,,,,,,,,,,,,,,
943335,001,2022-11-21_01h50.25.154,Info_measure_main_exp,2022.2.2,Win32,9.696311523,,,,,,,,,,,,,,,,,,masks/mask_004.jpg,,,,,,,,,,,,,,,,,,,,,,,,,,,,,,,,,,,,,,,,,,,,,,,,0,4,4,3,1,,,,,,,,,,,,,,,,,,,,,,,,,,,,,,,,,,,,,,,,,
943335,001,2022-11-21_01h50.25.154,Info_measure_main_exp,2022.2.2,Win32,9.696311523,,,,,,,,,,,,,,,,,,,,,,,,,,,,,,0,2.5994,1,,,,,,,,,,,,0,131,5,5,2178,2142,absent_patch/patch0002178.jpg,absent_patch/patch0002142.jpg,,,,,,,,,,,,,,,,,,,,-0.048611111,0.094444434,1,0,0,response7disk,16,-0.010416667,-0.002777788,1,0,0,center_square,0,15,15,41,1,,,,,,,,,,,,,,,,,,,,,,,
943335,001,2022-11-21_01h50.25.154,Info_measure_main_exp,2022.2.2,Win32,9.696311523,,,,,,,,,,,,,,,,,,masks/mask_003.jpg,,,,,,,,,,,,,,,,,,,,,,,,,,,,,,,,,,,,,,,,,,,0,0,0,2,1,,,,,,,,,,,,,,,,,,,,,,,,,,,,,,,,,,,,,,,,,,,,,,
943335,001,2022-11-21_01h50.25.154,Info_measure_main_exp,2022.2.2,Win32,9.696311523,,,,,,,,,,,,,,,,,,masks/mask_001.jpg,,,,,,,,,,,,,,,,,,,,,,,,,,,,,,,,,,,,,,,,,,,0,1,1,0,1,,,,,,,,,,,,,,,,,,,,,,,,,,,,,,,,,,,,,,,,,,,,,,
943335,001,2022-11-21_01h50.25.154,Info_measure_main_exp,2022.2.2,Win32,9.696311523,,,,,,,,,,,,,,,,,,masks/mask_002.jpg,,,,,,,,,,,,,,,,,,,,,,,,,,,,,,,,,,,,,,,,,,,0,2,2,1,1,,,,,,,,,,,,,,,,,,,,,,,,,,,,,,,,,,,,,,,,,,,,,,
943335,001,2022-11-21_01h50.25.154,Info_measure_main_exp,2022.2.2,Win32,9.696311523,,,,,,,,,,,,,,,,,,masks/mask_004.jpg,,,,,,,,,,,,,,,,,,,,,,,,,,,,,,,,,,,,,,,,,,,0,3,3,3,1,,,,,,,,,,,,,,,,,,,,,,,,,,,,,,,,,,,,,,,,,,,,,,
943335,001,2022-11-21_01h50.25.154,Info_measure_main_exp,2022.2.2,Win32,9.696311523,,,,,,,,,,,,,,,,,,masks/mask_005.jpg,,,,,,,,,,,,,,,,,,,,,,,,,,,,,,,,,,,,,,,,,,,0,4,4,4,1,,,,,,,,,,,,,,,,,,,,,,,,,,,,,,,,,,,,,,,,,,,,,,
943335,001,2022-11-21_01h50.25.154,Info_measure_main_exp,2022.2.2,Win32,9.696311523,,,,,,,,,,,,,,,,,,masks/mask_005.jpg,,,,,,,,,,,,,,,,,,,,,,,,,,,,,,,,,,,,,,,,,,,,,,,,0,0,0,4,1,,,,,,,,,,,,,,,,,,,,,,,,,,,,,,,,,,,,,,,,,
943335,001,2022-11-21_01h50.25.154,Info_measure_main_exp,2022.2.2,Win32,9.696311523,,,,,,,,,,,,,,,,,,masks/mask_004.jpg,,,,,,,,,,,,,,,,,,,,,,,,,,,,,,,,,,,,,,,,,,,,,,,,0,1,1,3,1,,,,,,,,,,,,,,,,,,,,,,,,,,,,,,,,,,,,,,,,,
943335,001,2022-11-21_01h50.25.154,Info_measure_main_exp,2022.2.2,Win32,9.696311523,,,,,,,,,,,,,,,,,,masks/mask_001.jpg,,,,,,,,,,,,,,,,,,,,,,,,,,,,,,,,,,,,,,,,,,,,,,,,0,2,2,0,1,,,,,,,,,,,,,,,,,,,,,,,,,,,,,,,,,,,,,,,,,
943335,001,2022-11-21_01h50.25.154,Info_measure_main_exp,2022.2.2,Win32,9.696311523,,,,,,,,,,,,,,,,,,masks/mask_003.jpg,,,,,,,,,,,,,,,,,,,,,,,,,,,,,,,,,,,,,,,,,,,,,,,,0,3,3,2,1,,,,,,,,,,,,,,,,,,,,,,,,,,,,,,,,,,,,,,,,,
943335,001,2022-11-21_01h50.25.154,Info_measure_main_exp,2022.2.2,Win32,9.696311523,,,,,,,,,,,,,,,,,,masks/mask_002.jpg,,,,,,,,,,,,,,,,,,,,,,,,,,,,,,,,,,,,,,,,,,,,,,,,0,4,4,1,1,,,,,,,,,,,,,,,,,,,,,,,,,,,,,,,,,,,,,,,,,
943335,001,2022-11-21_01h50.25.154,Info_measure_main_exp,2022.2.2,Win32,9.696311523,,,,,,,,,,,,,,,,,,,,,,,,,,,,,,1,1.3304,1,,,,,,,,,,,,0,131,5,5,2274,2142,absent_patch/patch0002274.jpg,absent_patch/patch0002142.jpg,,,,,,,,,,,,,,,,,,,,-0.104166667,0.052083333,1,0,0,response7disk,17,-0.009722233,0.002083302,1,0,0,center_square,0,16,16,75,1,,,,,,,,,,,,,,,,,,,,,,,
943335,001,2022-11-21_01h50.25.154,Info_measure_main_exp,2022.2.2,Win32,9.696311523,,,,,,,,,,,,,,,,,,masks/mask_005.jpg,,,,,,,,,,,,,,,,,,,,,,,,,,,,,,,,,,,,,,,,,,,0,0,0,4,1,,,,,,,,,,,,,,,,,,,,,,,,,,,,,,,,,,,,,,,,,,,,,,
943335,001,2022-11-21_01h50.25.154,Info_measure_main_exp,2022.2.2,Win32,9.696311523,,,,,,,,,,,,,,,,,,masks/mask_002.jpg,,,,,,,,,,,,,,,,,,,,,,,,,,,,,,,,,,,,,,,,,,,0,1,1,1,1,,,,,,,,,,,,,,,,,,,,,,,,,,,,,,,,,,,,,,,,,,,,,,
943335,001,2022-11-21_01h50.25.154,Info_measure_main_exp,2022.2.2,Win32,9.696311523,,,,,,,,,,,,,,,,,,masks/mask_001.jpg,,,,,,,,,,,,,,,,,,,,,,,,,,,,,,,,,,,,,,,,,,,0,2,2,0,1,,,,,,,,,,,,,,,,,,,,,,,,,,,,,,,,,,,,,,,,,,,,,,
943335,001,2022-11-21_01h50.25.154,Info_measure_main_exp,2022.2.2,Win32,9.696311523,,,,,,,,,,,,,,,,,,masks/mask_004.jpg,,,,,,,,,,,,,,,,,,,,,,,,,,,,,,,,,,,,,,,,,,,0,3,3,3,1,,,,,,,,,,,,,,,,,,,,,,,,,,,,,,,,,,,,,,,,,,,,,,
943335,001,2022-11-21_01h50.25.154,Info_measure_main_exp,2022.2.2,Win32,9.696311523,,,,,,,,,,,,,,,,,,masks/mask_003.jpg,,,,,,,,,,,,,,,,,,,,,,,,,,,,,,,,,,,,,,,,,,,0,4,4,2,1,,,,,,,,,,,,,,,,,,,,,,,,,,,,,,,,,,,,,,,,,,,,,,
943335,001,2022-11-21_01h50.25.154,Info_measure_main_exp,2022.2.2,Win32,9.696311523,,,,,,,,,,,,,,,,,,masks/mask_001.jpg,,,,,,,,,,,,,,,,,,,,,,,,,,,,,,,,,,,,,,,,,,,,,,,,0,0,0,0,1,,,,,,,,,,,,,,,,,,,,,,,,,,,,,,,,,,,,,,,,,
943335,001,2022-11-21_01h50.25.154,Info_measure_main_exp,2022.2.2,Win32,9.696311523,,,,,,,,,,,,,,,,,,masks/mask_003.jpg,,,,,,,,,,,,,,,,,,,,,,,,,,,,,,,,,,,,,,,,,,,,,,,,0,1,1,2,1,,,,,,,,,,,,,,,,,,,,,,,,,,,,,,,,,,,,,,,,,
943335,001,2022-11-21_01h50.25.154,Info_measure_main_exp,2022.2.2,Win32,9.696311523,,,,,,,,,,,,,,,,,,masks/mask_004.jpg,,,,,,,,,,,,,,,,,,,,,,,,,,,,,,,,,,,,,,,,,,,,,,,,0,2,2,3,1,,,,,,,,,,,,,,,,,,,,,,,,,,,,,,,,,,,,,,,,,
943335,001,2022-11-21_01h50.25.154,Info_measure_main_exp,2022.2.2,Win32,9.696311523,,,,,,,,,,,,,,,,,,masks/mask_002.jpg,,,,,,,,,,,,,,,,,,,,,,,,,,,,,,,,,,,,,,,,,,,,,,,,0,3,3,1,1,,,,,,,,,,,,,,,,,,,,,,,,,,,,,,,,,,,,,,,,,
943335,001,2022-11-21_01h50.25.154,Info_measure_main_exp,2022.2.2,Win32,9.696311523,,,,,,,,,,,,,,,,,,masks/mask_005.jpg,,,,,,,,,,,,,,,,,,,,,,,,,,,,,,,,,,,,,,,,,,,,,,,,0,4,4,4,1,,,,,,,,,,,,,,,,,,,,,,,,,,,,,,,,,,,,,,,,,
943335,001,2022-11-21_01h50.25.154,Info_measure_main_exp,2022.2.2,Win32,9.696311523,,,,,,,,,,,,,,,,,,,,,,,,,,,,,,3,4.7968,1,,,,,,,,,,,,1,131,5,5,1,2154,present_patch/cong_131_5_a.jpg,absent_patch/patch0002154.jpg,,,,,,,,,,,,,,,,,,,,-0.041666667,-0.084722254,1,0,0,response5disk,18,0.000694487,-0.007638878,1,0,0,center_square,0,17,17,87,1,,,,,,,,,,,,,,,,,,,,,,,
943335,001,2022-11-21_01h50.25.154,Info_measure_main_exp,2022.2.2,Win32,9.696311523,,,,,,,,,,,,,,,,,,masks/mask_004.jpg,,,,,,,,,,,,,,,,,,,,,,,,,,,,,,,,,,,,,,,,,,,0,0,0,3,1,,,,,,,,,,,,,,,,,,,,,,,,,,,,,,,,,,,,,,,,,,,,,,
943335,001,2022-11-21_01h50.25.154,Info_measure_main_exp,2022.2.2,Win32,9.696311523,,,,,,,,,,,,,,,,,,masks/mask_005.jpg,,,,,,,,,,,,,,,,,,,,,,,,,,,,,,,,,,,,,,,,,,,0,1,1,4,1,,,,,,,,,,,,,,,,,,,,,,,,,,,,,,,,,,,,,,,,,,,,,,
943335,001,2022-11-21_01h50.25.154,Info_measure_main_exp,2022.2.2,Win32,9.696311523,,,,,,,,,,,,,,,,,,masks/mask_003.jpg,,,,,,,,,,,,,,,,,,,,,,,,,,,,,,,,,,,,,,,,,,,0,2,2,2,1,,,,,,,,,,,,,,,,,,,,,,,,,,,,,,,,,,,,,,,,,,,,,,
943335,001,2022-11-21_01h50.25.154,Info_measure_main_exp,2022.2.2,Win32,9.696311523,,,,,,,,,,,,,,,,,,masks/mask_001.jpg,,,,,,,,,,,,,,,,,,,,,,,,,,,,,,,,,,,,,,,,,,,0,3,3,0,1,,,,,,,,,,,,,,,,,,,,,,,,,,,,,,,,,,,,,,,,,,,,,,
943335,001,2022-11-21_01h50.25.154,Info_measure_main_exp,2022.2.2,Win32,9.696311523,,,,,,,,,,,,,,,,,,masks/mask_002.jpg,,,,,,,,,,,,,,,,,,,,,,,,,,,,,,,,,,,,,,,,,,,0,4,4,1,1,,,,,,,,,,,,,,,,,,,,,,,,,,,,,,,,,,,,,,,,,,,,,,
943335,001,2022-11-21_01h50.25.154,Info_measure_main_exp,2022.2.2,Win32,9.696311523,,,,,,,,,,,,,,,,,,masks/mask_005.jpg,,,,,,,,,,,,,,,,,,,,,,,,,,,,,,,,,,,,,,,,,,,,,,,,0,0,0,4,1,,,,,,,,,,,,,,,,,,,,,,,,,,,,,,,,,,,,,,,,,
943335,001,2022-11-21_01h50.25.154,Info_measure_main_exp,2022.2.2,Win32,9.696311523,,,,,,,,,,,,,,,,,,masks/mask_003.jpg,,,,,,,,,,,,,,,,,,,,,,,,,,,,,,,,,,,,,,,,,,,,,,,,0,1,1,2,1,,,,,,,,,,,,,,,,,,,,,,,,,,,,,,,,,,,,,,,,,
943335,001,2022-11-21_01h50.25.154,Info_measure_main_exp,2022.2.2,Win32,9.696311523,,,,,,,,,,,,,,,,,,masks/mask_001.jpg,,,,,,,,,,,,,,,,,,,,,,,,,,,,,,,,,,,,,,,,,,,,,,,,0,2,2,0,1,,,,,,,,,,,,,,,,,,,,,,,,,,,,,,,,,,,,,,,,,
943335,001,2022-11-21_01h50.25.154,Info_measure_main_exp,2022.2.2,Win32,9.696311523,,,,,,,,,,,,,,,,,,masks/mask_002.jpg,,,,,,,,,,,,,,,,,,,,,,,,,,,,,,,,,,,,,,,,,,,,,,,,0,3,3,1,1,,,,,,,,,,,,,,,,,,,,,,,,,,,,,,,,,,,,,,,,,
943335,001,2022-11-21_01h50.25.154,Info_measure_main_exp,2022.2.2,Win32,9.696311523,,,,,,,,,,,,,,,,,,masks/mask_004.jpg,,,,,,,,,,,,,,,,,,,,,,,,,,,,,,,,,,,,,,,,,,,,,,,,0,4,4,3,1,,,,,,,,,,,,,,,,,,,,,,,,,,,,,,,,,,,,,,,,,
943335,001,2022-11-21_01h50.25.154,Info_measure_main_exp,2022.2.2,Win32,9.696311523,,,,,,,,,,,,,,,,,,,,,,,,,,,,,,6,2.4266,1,,,,,,,,,,,,0,131,5,5,2298,2190,absent_patch/patch0002298.jpg,absent_patch/patch0002190.jpg,,,,,,,,,,,,,,,,,,,,0.126388868,0.070833339,1,0,0,response1disk,19,0.004166709,0,1,0,0,center_square,0,18,18,20,1,,,,,,,,,,,,,,,,,,,,,,,
943335,001,2022-11-21_01h50.25.154,Info_measure_main_exp,2022.2.2,Win32,9.696311523,,,,,,,,,,,,,,,,,,masks/mask_001.jpg,,,,,,,,,,,,,,,,,,,,,,,,,,,,,,,,,,,,,,,,,,,0,0,0,0,1,,,,,,,,,,,,,,,,,,,,,,,,,,,,,,,,,,,,,,,,,,,,,,
943335,001,2022-11-21_01h50.25.154,Info_measure_main_exp,2022.2.2,Win32,9.696311523,,,,,,,,,,,,,,,,,,masks/mask_004.jpg,,,,,,,,,,,,,,,,,,,,,,,,,,,,,,,,,,,,,,,,,,,0,1,1,3,1,,,,,,,,,,,,,,,,,,,,,,,,,,,,,,,,,,,,,,,,,,,,,,
943335,001,2022-11-21_01h50.25.154,Info_measure_main_exp,2022.2.2,Win32,9.696311523,,,,,,,,,,,,,,,,,,masks/mask_003.jpg,,,,,,,,,,,,,,,,,,,,,,,,,,,,,,,,,,,,,,,,,,,0,2,2,2,1,,,,,,,,,,,,,,,,,,,,,,,,,,,,,,,,,,,,,,,,,,,,,,
943335,001,2022-11-21_01h50.25.154,Info_measure_main_exp,2022.2.2,Win32,9.696311523,,,,,,,,,,,,,,,,,,masks/mask_002.jpg,,,,,,,,,,,,,,,,,,,,,,,,,,,,,,,,,,,,,,,,,,,0,3,3,1,1,,,,,,,,,,,,,,,,,,,,,,,,,,,,,,,,,,,,,,,,,,,,,,
943335,001,2022-11-21_01h50.25.154,Info_measure_main_exp,2022.2.2,Win32,9.696311523,,,,,,,,,,,,,,,,,,masks/mask_005.jpg,,,,,,,,,,,,,,,,,,,,,,,,,,,,,,,,,,,,,,,,,,,0,4,4,4,1,,,,,,,,,,,,,,,,,,,,,,,,,,,,,,,,,,,,,,,,,,,,,,
943335,001,2022-11-21_01h50.25.154,Info_measure_main_exp,2022.2.2,Win32,9.696311523,,,,,,,,,,,,,,,,,,masks/mask_005.jpg,,,,,,,,,,,,,,,,,,,,,,,,,,,,,,,,,,,,,,,,,,,,,,,,0,0,0,4,1,,,,,,,,,,,,,,,,,,,,,,,,,,,,,,,,,,,,,,,,,
943335,001,2022-11-21_01h50.25.154,Info_measure_main_exp,2022.2.2,Win32,9.696311523,,,,,,,,,,,,,,,,,,masks/mask_002.jpg,,,,,,,,,,,,,,,,,,,,,,,,,,,,,,,,,,,,,,,,,,,,,,,,0,1,1,1,1,,,,,,,,,,,,,,,,,,,,,,,,,,,,,,,,,,,,,,,,,
943335,001,2022-11-21_01h50.25.154,Info_measure_main_exp,2022.2.2,Win32,9.696311523,,,,,,,,,,,,,,,,,,masks/mask_003.jpg,,,,,,,,,,,,,,,,,,,,,,,,,,,,,,,,,,,,,,,,,,,,,,,,0,2,2,2,1,,,,,,,,,,,,,,,,,,,,,,,,,,,,,,,,,,,,,,,,,
943335,001,2022-11-21_01h50.25.154,Info_measure_main_exp,2022.2.2,Win32,9.696311523,,,,,,,,,,,,,,,,,,masks/mask_004.jpg,,,,,,,,,,,,,,,,,,,,,,,,,,,,,,,,,,,,,,,,,,,,,,,,0,3,3,3,1,,,,,,,,,,,,,,,,,,,,,,,,,,,,,,,,,,,,,,,,,
943335,001,2022-11-21_01h50.25.154,Info_measure_main_exp,2022.2.2,Win32,9.696311523,,,,,,,,,,,,,,,,,,masks/mask_001.jpg,,,,,,,,,,,,,,,,,,,,,,,,,,,,,,,,,,,,,,,,,,,,,,,,0,4,4,0,1,,,,,,,,,,,,,,,,,,,,,,,,,,,,,,,,,,,,,,,,,
943335,001,2022-11-21_01h50.25.154,Info_measure_main_exp,2022.2.2,Win32,9.696311523,,,,,,,,,,,,,,,,,,,,,,,,,,,,,,6,1.9788,1,,,,,,,,,,,,0,131,5,5,2190,2166,absent_patch/patch0002190.jpg,absent_patch/patch0002166.jpg,,,,,,,,,,,,,,,,,,,,0.082638952,0.042361101,1,0,0,response1disk,20,-0.00486109,-0.006250011,1,0,0,center_square,0,19,19,50,1,,,,,,,,,,,,,,,,,,,,,,,
943335,001,2022-11-21_01h50.25.154,Info_measure_main_exp,2022.2.2,Win32,9.696311523,,,,,,,,,,,,,,,,,,masks/mask_003.jpg,,,,,,,,,,,,,,,,,,,,,,,,,,,,,,,,,,,,,,,,,,,0,0,0,2,1,,,,,,,,,,,,,,,,,,,,,,,,,,,,,,,,,,,,,,,,,,,,,,
943335,001,2022-11-21_01h50.25.154,Info_measure_main_exp,2022.2.2,Win32,9.696311523,,,,,,,,,,,,,,,,,,masks/mask_002.jpg,,,,,,,,,,,,,,,,,,,,,,,,,,,,,,,,,,,,,,,,,,,0,1,1,1,1,,,,,,,,,,,,,,,,,,,,,,,,,,,,,,,,,,,,,,,,,,,,,,
943335,001,2022-11-21_01h50.25.154,Info_measure_main_exp,2022.2.2,Win32,9.696311523,,,,,,,,,,,,,,,,,,masks/mask_005.jpg,,,,,,,,,,,,,,,,,,,,,,,,,,,,,,,,,,,,,,,,,,,0,2,2,4,1,,,,,,,,,,,,,,,,,,,,,,,,,,,,,,,,,,,,,,,,,,,,,,
943335,001,2022-11-21_01h50.25.154,Info_measure_main_exp,2022.2.2,Win32,9.696311523,,,,,,,,,,,,,,,,,,masks/mask_001.jpg,,,,,,,,,,,,,,,,,,,,,,,,,,,,,,,,,,,,,,,,,,,0,3,3,0,1,,,,,,,,,,,,,,,,,,,,,,,,,,,,,,,,,,,,,,,,,,,,,,
943335,001,2022-11-21_01h50.25.154,Info_measure_main_exp,2022.2.2,Win32,9.696311523,,,,,,,,,,,,,,,,,,masks/mask_004.jpg,,,,,,,,,,,,,,,,,,,,,,,,,,,,,,,,,,,,,,,,,,,0,4,4,3,1,,,,,,,,,,,,,,,,,,,,,,,,,,,,,,,,,,,,,,,,,,,,,,
943335,001,2022-11-21_01h50.25.154,Info_measure_main_exp,2022.2.2,Win32,9.696311523,,,,,,,,,,,,,,,,,,masks/mask_003.jpg,,,,,,,,,,,,,,,,,,,,,,,,,,,,,,,,,,,,,,,,,,,,,,,,0,0,0,2,1,,,,,,,,,,,,,,,,,,,,,,,,,,,,,,,,,,,,,,,,,
943335,001,2022-11-21_01h50.25.154,Info_measure_main_exp,2022.2.2,Win32,9.696311523,,,,,,,,,,,,,,,,,,masks/mask_002.jpg,,,,,,,,,,,,,,,,,,,,,,,,,,,,,,,,,,,,,,,,,,,,,,,,0,1,1,1,1,,,,,,,,,,,,,,,,,,,,,,,,,,,,,,,,,,,,,,,,,
943335,001,2022-11-21_01h50.25.154,Info_measure_main_exp,2022.2.2,Win32,9.696311523,,,,,,,,,,,,,,,,,,masks/mask_001.jpg,,,,,,,,,,,,,,,,,,,,,,,,,,,,,,,,,,,,,,,,,,,,,,,,0,2,2,0,1,,,,,,,,,,,,,,,,,,,,,,,,,,,,,,,,,,,,,,,,,
943335,001,2022-11-21_01h50.25.154,Info_measure_main_exp,2022.2.2,Win32,9.696311523,,,,,,,,,,,,,,,,,,masks/mask_005.jpg,,,,,,,,,,,,,,,,,,,,,,,,,,,,,,,,,,,,,,,,,,,,,,,,0,3,3,4,1,,,,,,,,,,,,,,,,,,,,,,,,,,,,,,,,,,,,,,,,,
943335,001,2022-11-21_01h50.25.154,Info_measure_main_exp,2022.2.2,Win32,9.696311523,,,,,,,,,,,,,,,,,,masks/mask_004.jpg,,,,,,,,,,,,,,,,,,,,,,,,,,,,,,,,,,,,,,,,,,,,,,,,0,4,4,3,1,,,,,,,,,,,,,,,,,,,,,,,,,,,,,,,,,,,,,,,,,
943335,001,2022-11-21_01h50.25.154,Info_measure_main_exp,2022.2.2,Win32,9.696311523,,,,,,,,,,,,,,,,,,,,,,,,,,,,,,7,2.8905,1,,,,,,,,,,,,0,131,5,5,2250,2298,absent_patch/patch0002250.jpg,absent_patch/patch0002298.jpg,,,,,,,,,,,,,,,,,,,,0.089583397,0.149999989,1,0,0,response1disk,21,0.006944444,0.009722233,1,0,0,center_square,0,20,20,59,1,,,,,,,,,,,,,,,,,,,,,,,
943335,001,2022-11-21_01h50.25.154,Info_measure_main_exp,2022.2.2,Win32,9.696311523,,,,,,,,,,,,,,,,,,masks/mask_004.jpg,,,,,,,,,,,,,,,,,,,,,,,,,,,,,,,,,,,,,,,,,,,0,0,0,3,1,,,,,,,,,,,,,,,,,,,,,,,,,,,,,,,,,,,,,,,,,,,,,,
943335,001,2022-11-21_01h50.25.154,Info_measure_main_exp,2022.2.2,Win32,9.696311523,,,,,,,,,,,,,,,,,,masks/mask_003.jpg,,,,,,,,,,,,,,,,,,,,,,,,,,,,,,,,,,,,,,,,,,,0,1,1,2,1,,,,,,,,,,,,,,,,,,,,,,,,,,,,,,,,,,,,,,,,,,,,,,
943335,001,2022-11-21_01h50.25.154,Info_measure_main_exp,2022.2.2,Win32,9.696311523,,,,,,,,,,,,,,,,,,masks/mask_002.jpg,,,,,,,,,,,,,,,,,,,,,,,,,,,,,,,,,,,,,,,,,,,0,2,2,1,1,,,,,,,,,,,,,,,,,,,,,,,,,,,,,,,,,,,,,,,,,,,,,,
943335,001,2022-11-21_01h50.25.154,Info_measure_main_exp,2022.2.2,Win32,9.696311523,,,,,,,,,,,,,,,,,,masks/mask_005.jpg,,,,,,,,,,,,,,,,,,,,,,,,,,,,,,,,,,,,,,,,,,,0,3,3,4,1,,,,,,,,,,,,,,,,,,,,,,,,,,,,,,,,,,,,,,,,,,,,,,
943335,001,2022-11-21_01h50.25.154,Info_measure_main_exp,2022.2.2,Win32,9.696311523,,,,,,,,,,,,,,,,,,masks/mask_001.jpg,,,,,,,,,,,,,,,,,,,,,,,,,,,,,,,,,,,,,,,,,,,0,4,4,0,1,,,,,,,,,,,,,,,,,,,,,,,,,,,,,,,,,,,,,,,,,,,,,,
943335,001,2022-11-21_01h50.25.154,Info_measure_main_exp,2022.2.2,Win32,9.696311523,,,,,,,,,,,,,,,,,,masks/mask_002.jpg,,,,,,,,,,,,,,,,,,,,,,,,,,,,,,,,,,,,,,,,,,,,,,,,0,0,0,1,1,,,,,,,,,,,,,,,,,,,,,,,,,,,,,,,,,,,,,,,,,
943335,001,2022-11-21_01h50.25.154,Info_measure_main_exp,2022.2.2,Win32,9.696311523,,,,,,,,,,,,,,,,,,masks/mask_005.jpg,,,,,,,,,,,,,,,,,,,,,,,,,,,,,,,,,,,,,,,,,,,,,,,,0,1,1,4,1,,,,,,,,,,,,,,,,,,,,,,,,,,,,,,,,,,,,,,,,,
943335,001,2022-11-21_01h50.25.154,Info_measure_main_exp,2022.2.2,Win32,9.696311523,,,,,,,,,,,,,,,,,,masks/mask_001.jpg,,,,,,,,,,,,,,,,,,,,,,,,,,,,,,,,,,,,,,,,,,,,,,,,0,2,2,0,1,,,,,,,,,,,,,,,,,,,,,,,,,,,,,,,,,,,,,,,,,
943335,001,2022-11-21_01h50.25.154,Info_measure_main_exp,2022.2.2,Win32,9.696311523,,,,,,,,,,,,,,,,,,masks/mask_003.jpg,,,,,,,,,,,,,,,,,,,,,,,,,,,,,,,,,,,,,,,,,,,,,,,,0,3,3,2,1,,,,,,,,,,,,,,,,,,,,,,,,,,,,,,,,,,,,,,,,,
943335,001,2022-11-21_01h50.25.154,Info_measure_main_exp,2022.2.2,Win32,9.696311523,,,,,,,,,,,,,,,,,,masks/mask_004.jpg,,,,,,,,,,,,,,,,,,,,,,,,,,,,,,,,,,,,,,,,,,,,,,,,0,4,4,3,1,,,,,,,,,,,,,,,,,,,,,,,,,,,,,,,,,,,,,,,,,
943335,001,2022-11-21_01h50.25.154,Info_measure_main_exp,2022.2.2,Win32,9.696311523,,,,,,,,,,,,,,,,,,,,,,,,,,,,,,3,4.4531,1,,,,,,,,,,,,0,131,5,5,1986,1974,absent_patch/patch0001986.jpg,absent_patch/patch0001974.jpg,,,,,,,,,,,,,,,,,,,,-0.088888857,-0.134027799,1,0,0,response5disk,22,-0.011111101,-0.011805587,1,0,0,center_square,0,21,21,25,1,,,,,,,,,,,,,,,,,,,,,,,
943335,001,2022-11-21_01h50.25.154,Info_measure_main_exp,2022.2.2,Win32,9.696311523,,,,,,,,,,,,,,,,,,masks/mask_002.jpg,,,,,,,,,,,,,,,,,,,,,,,,,,,,,,,,,,,,,,,,,,,0,0,0,1,1,,,,,,,,,,,,,,,,,,,,,,,,,,,,,,,,,,,,,,,,,,,,,,
943335,001,2022-11-21_01h50.25.154,Info_measure_main_exp,2022.2.2,Win32,9.696311523,,,,,,,,,,,,,,,,,,masks/mask_004.jpg,,,,,,,,,,,,,,,,,,,,,,,,,,,,,,,,,,,,,,,,,,,0,1,1,3,1,,,,,,,,,,,,,,,,,,,,,,,,,,,,,,,,,,,,,,,,,,,,,,
943335,001,2022-11-21_01h50.25.154,Info_measure_main_exp,2022.2.2,Win32,9.696311523,,,,,,,,,,,,,,,,,,masks/mask_003.jpg,,,,,,,,,,,,,,,,,,,,,,,,,,,,,,,,,,,,,,,,,,,0,2,2,2,1,,,,,,,,,,,,,,,,,,,,,,,,,,,,,,,,,,,,,,,,,,,,,,
943335,001,2022-11-21_01h50.25.154,Info_measure_main_exp,2022.2.2,Win32,9.696311523,,,,,,,,,,,,,,,,,,masks/mask_005.jpg,,,,,,,,,,,,,,,,,,,,,,,,,,,,,,,,,,,,,,,,,,,0,3,3,4,1,,,,,,,,,,,,,,,,,,,,,,,,,,,,,,,,,,,,,,,,,,,,,,
943335,001,2022-11-21_01h50.25.154,Info_measure_main_exp,2022.2.2,Win32,9.696311523,,,,,,,,,,,,,,,,,,masks/mask_001.jpg,,,,,,,,,,,,,,,,,,,,,,,,,,,,,,,,,,,,,,,,,,,0,4,4,0,1,,,,,,,,,,,,,,,,,,,,,,,,,,,,,,,,,,,,,,,,,,,,,,
943335,001,2022-11-21_01h50.25.154,Info_measure_main_exp,2022.2.2,Win32,9.696311523,,,,,,,,,,,,,,,,,,masks/mask_004.jpg,,,,,,,,,,,,,,,,,,,,,,,,,,,,,,,,,,,,,,,,,,,,,,,,0,0,0,3,1,,,,,,,,,,,,,,,,,,,,,,,,,,,,,,,,,,,,,,,,,
943335,001,2022-11-21_01h50.25.154,Info_measure_main_exp,2022.2.2,Win32,9.696311523,,,,,,,,,,,,,,,,,,masks/mask_005.jpg,,,,,,,,,,,,,,,,,,,,,,,,,,,,,,,,,,,,,,,,,,,,,,,,0,1,1,4,1,,,,,,,,,,,,,,,,,,,,,,,,,,,,,,,,,,,,,,,,,
943335,001,2022-11-21_01h50.25.154,Info_measure_main_exp,2022.2.2,Win32,9.696311523,,,,,,,,,,,,,,,,,,masks/mask_003.jpg,,,,,,,,,,,,,,,,,,,,,,,,,,,,,,,,,,,,,,,,,,,,,,,,0,2,2,2,1,,,,,,,,,,,,,,,,,,,,,,,,,,,,,,,,,,,,,,,,,
943335,001,2022-11-21_01h50.25.154,Info_measure_main_exp,2022.2.2,Win32,9.696311523,,,,,,,,,,,,,,,,,,masks/mask_001.jpg,,,,,,,,,,,,,,,,,,,,,,,,,,,,,,,,,,,,,,,,,,,,,,,,0,3,3,0,1,,,,,,,,,,,,,,,,,,,,,,,,,,,,,,,,,,,,,,,,,
943335,001,2022-11-21_01h50.25.154,Info_measure_main_exp,2022.2.2,Win32,9.696311523,,,,,,,,,,,,,,,,,,masks/mask_002.jpg,,,,,,,,,,,,,,,,,,,,,,,,,,,,,,,,,,,,,,,,,,,,,,,,0,4,4,1,1,,,,,,,,,,,,,,,,,,,,,,,,,,,,,,,,,,,,,,,,,
943335,001,2022-11-21_01h50.25.154,Info_measure_main_exp,2022.2.2,Win32,9.696311523,,,,,,,,,,,,,,,,,,,,,,,,,,,,,,7,3.5212,1,,,,,,,,,,,,0,131,5,5,2082,2298,absent_patch/patch0002082.jpg,absent_patch/patch0002298.jpg,,,,,,,,,,,,,,,,,,,,0.032638868,0.125694434,1,0,0,response1disk,23,0.006944444,0.011111101,1,0,0,center_square,0,22,22,107,1,,,,,,,,,,,,,,,,,,,,,,,
943335,001,2022-11-21_01h50.25.154,Info_measure_main_exp,2022.2.2,Win32,9.696311523,,,,,,,,,,,,,,,,,,masks/mask_005.jpg,,,,,,,,,,,,,,,,,,,,,,,,,,,,,,,,,,,,,,,,,,,0,0,0,4,1,,,,,,,,,,,,,,,,,,,,,,,,,,,,,,,,,,,,,,,,,,,,,,
943335,001,2022-11-21_01h50.25.154,Info_measure_main_exp,2022.2.2,Win32,9.696311523,,,,,,,,,,,,,,,,,,masks/mask_002.jpg,,,,,,,,,,,,,,,,,,,,,,,,,,,,,,,,,,,,,,,,,,,0,1,1,1,1,,,,,,,,,,,,,,,,,,,,,,,,,,,,,,,,,,,,,,,,,,,,,,
943335,001,2022-11-21_01h50.25.154,Info_measure_main_exp,2022.2.2,Win32,9.696311523,,,,,,,,,,,,,,,,,,masks/mask_003.jpg,,,,,,,,,,,,,,,,,,,,,,,,,,,,,,,,,,,,,,,,,,,0,2,2,2,1,,,,,,,,,,,,,,,,,,,,,,,,,,,,,,,,,,,,,,,,,,,,,,
943335,001,2022-11-21_01h50.25.154,Info_measure_main_exp,2022.2.2,Win32,9.696311523,,,,,,,,,,,,,,,,,,masks/mask_001.jpg,,,,,,,,,,,,,,,,,,,,,,,,,,,,,,,,,,,,,,,,,,,0,3,3,0,1,,,,,,,,,,,,,,,,,,,,,,,,,,,,,,,,,,,,,,,,,,,,,,
943335,001,2022-11-21_01h50.25.154,Info_measure_main_exp,2022.2.2,Win32,9.696311523,,,,,,,,,,,,,,,,,,masks/mask_004.jpg,,,,,,,,,,,,,,,,,,,,,,,,,,,,,,,,,,,,,,,,,,,0,4,4,3,1,,,,,,,,,,,,,,,,,,,,,,,,,,,,,,,,,,,,,,,,,,,,,,
943335,001,2022-11-21_01h50.25.154,Info_measure_main_exp,2022.2.2,Win32,9.696311523,,,,,,,,,,,,,,,,,,masks/mask_005.jpg,,,,,,,,,,,,,,,,,,,,,,,,,,,,,,,,,,,,,,,,,,,,,,,,0,0,0,4,1,,,,,,,,,,,,,,,,,,,,,,,,,,,,,,,,,,,,,,,,,
943335,001,2022-11-21_01h50.25.154,Info_measure_main_exp,2022.2.2,Win32,9.696311523,,,,,,,,,,,,,,,,,,masks/mask_004.jpg,,,,,,,,,,,,,,,,,,,,,,,,,,,,,,,,,,,,,,,,,,,,,,,,0,1,1,3,1,,,,,,,,,,,,,,,,,,,,,,,,,,,,,,,,,,,,,,,,,
943335,001,2022-11-21_01h50.25.154,Info_measure_main_exp,2022.2.2,Win32,9.696311523,,,,,,,,,,,,,,,,,,masks/mask_003.jpg,,,,,,,,,,,,,,,,,,,,,,,,,,,,,,,,,,,,,,,,,,,,,,,,0,2,2,2,1,,,,,,,,,,,,,,,,,,,,,,,,,,,,,,,,,,,,,,,,,
943335,001,2022-11-21_01h50.25.154,Info_measure_main_exp,2022.2.2,Win32,9.696311523,,,,,,,,,,,,,,,,,,masks/mask_001.jpg,,,,,,,,,,,,,,,,,,,,,,,,,,,,,,,,,,,,,,,,,,,,,,,,0,3,3,0,1,,,,,,,,,,,,,,,,,,,,,,,,,,,,,,,,,,,,,,,,,
943335,001,2022-11-21_01h50.25.154,Info_measure_main_exp,2022.2.2,Win32,9.696311523,,,,,,,,,,,,,,,,,,masks/mask_002.jpg,,,,,,,,,,,,,,,,,,,,,,,,,,,,,,,,,,,,,,,,,,,,,,,,0,4,4,1,1,,,,,,,,,,,,,,,,,,,,,,,,,,,,,,,,,,,,,,,,,
943335,001,2022-11-21_01h50.25.154,Info_measure_main_exp,2022.2.2,Win32,9.696311523,,,,,,,,,,,,,,,,,,,,,,,,,,,,,,6,3.5478,1,,,,,,,,,,,,0,131,5,5,2250,1986,absent_patch/patch0002250.jpg,absent_patch/patch0001986.jpg,,,,,,,,,,,,,,,,,,,,0.152083397,0.103472206,1,0,0,response1disk,24,0.008333312,0.009722233,1,0,0,center_square,0,23,23,29,1,,,,,,,,,,,,,,,,,,,,,,,
943335,001,2022-11-21_01h50.25.154,Info_measure_main_exp,2022.2.2,Win32,9.696311523,,,,,,,,,,,,,,,,,,masks/mask_004.jpg,,,,,,,,,,,,,,,,,,,,,,,,,,,,,,,,,,,,,,,,,,,0,0,0,3,1,,,,,,,,,,,,,,,,,,,,,,,,,,,,,,,,,,,,,,,,,,,,,,
943335,001,2022-11-21_01h50.25.154,Info_measure_main_exp,2022.2.2,Win32,9.696311523,,,,,,,,,,,,,,,,,,masks/mask_002.jpg,,,,,,,,,,,,,,,,,,,,,,,,,,,,,,,,,,,,,,,,,,,0,1,1,1,1,,,,,,,,,,,,,,,,,,,,,,,,,,,,,,,,,,,,,,,,,,,,,,
943335,001,2022-11-21_01h50.25.154,Info_measure_main_exp,2022.2.2,Win32,9.696311523,,,,,,,,,,,,,,,,,,masks/mask_005.jpg,,,,,,,,,,,,,,,,,,,,,,,,,,,,,,,,,,,,,,,,,,,0,2,2,4,1,,,,,,,,,,,,,,,,,,,,,,,,,,,,,,,,,,,,,,,,,,,,,,
943335,001,2022-11-21_01h50.25.154,Info_measure_main_exp,2022.2.2,Win32,9.696311523,,,,,,,,,,,,,,,,,,masks/mask_003.jpg,,,,,,,,,,,,,,,,,,,,,,,,,,,,,,,,,,,,,,,,,,,0,3,3,2,1,,,,,,,,,,,,,,,,,,,,,,,,,,,,,,,,,,,,,,,,,,,,,,
943335,001,2022-11-21_01h50.25.154,Info_measure_main_exp,2022.2.2,Win32,9.696311523,,,,,,,,,,,,,,,,,,masks/mask_001.jpg,,,,,,,,,,,,,,,,,,,,,,,,,,,,,,,,,,,,,,,,,,,0,4,4,0,1,,,,,,,,,,,,,,,,,,,,,,,,,,,,,,,,,,,,,,,,,,,,,,
943335,001,2022-11-21_01h50.25.154,Info_measure_main_exp,2022.2.2,Win32,9.696311523,,,,,,,,,,,,,,,,,,masks/mask_002.jpg,,,,,,,,,,,,,,,,,,,,,,,,,,,,,,,,,,,,,,,,,,,,,,,,0,0,0,1,1,,,,,,,,,,,,,,,,,,,,,,,,,,,,,,,,,,,,,,,,,
943335,001,2022-11-21_01h50.25.154,Info_measure_main_exp,2022.2.2,Win32,9.696311523,,,,,,,,,,,,,,,,,,masks/mask_001.jpg,,,,,,,,,,,,,,,,,,,,,,,,,,,,,,,,,,,,,,,,,,,,,,,,0,1,1,0,1,,,,,,,,,,,,,,,,,,,,,,,,,,,,,,,,,,,,,,,,,
943335,001,2022-11-21_01h50.25.154,Info_measure_main_exp,2022.2.2,Win32,9.696311523,,,,,,,,,,,,,,,,,,masks/mask_003.jpg,,,,,,,,,,,,,,,,,,,,,,,,,,,,,,,,,,,,,,,,,,,,,,,,0,2,2,2,1,,,,,,,,,,,,,,,,,,,,,,,,,,,,,,,,,,,,,,,,,
943335,001,2022-11-21_01h50.25.154,Info_measure_main_exp,2022.2.2,Win32,9.696311523,,,,,,,,,,,,,,,,,,masks/mask_004.jpg,,,,,,,,,,,,,,,,,,,,,,,,,,,,,,,,,,,,,,,,,,,,,,,,0,3,3,3,1,,,,,,,,,,,,,,,,,,,,,,,,,,,,,,,,,,,,,,,,,
943335,001,2022-11-21_01h50.25.154,Info_measure_main_exp,2022.2.2,Win32,9.696311523,,,,,,,,,,,,,,,,,,masks/mask_005.jpg,,,,,,,,,,,,,,,,,,,,,,,,,,,,,,,,,,,,,,,,,,,,,,,,0,4,4,4,1,,,,,,,,,,,,,,,,,,,,,,,,,,,,,,,,,,,,,,,,,
943335,001,2022-11-21_01h50.25.154,Info_measure_main_exp,2022.2.2,Win32,9.696311523,,,,,,,,,,,,,,,,,,,,,,,,,,,,,,7,2.5187,1,,,,,,,,,,,,0,131,5,5,2298,2178,absent_patch/patch0002298.jpg,absent_patch/patch0002178.jpg,,,,,,,,,,,,,,,,,,,,0.040972286,0.086111095,1,0,0,response1disk,25,0.007638931,0.001388868,1,0,0,center_square,0,24,24,84,1,,,,,,,,,,,,,,,,,,,,,,,
943335,001,2022-11-21_01h50.25.154,Info_measure_main_exp,2022.2.2,Win32,9.696311523,,,,,,,,,,,,,,,,,,masks/mask_003.jpg,,,,,,,,,,,,,,,,,,,,,,,,,,,,,,,,,,,,,,,,,,,0,0,0,2,1,,,,,,,,,,,,,,,,,,,,,,,,,,,,,,,,,,,,,,,,,,,,,,
943335,001,2022-11-21_01h50.25.154,Info_measure_main_exp,2022.2.2,Win32,9.696311523,,,,,,,,,,,,,,,,,,masks/mask_005.jpg,,,,,,,,,,,,,,,,,,,,,,,,,,,,,,,,,,,,,,,,,,,0,1,1,4,1,,,,,,,,,,,,,,,,,,,,,,,,,,,,,,,,,,,,,,,,,,,,,,
943335,001,2022-11-21_01h50.25.154,Info_measure_main_exp,2022.2.2,Win32,9.696311523,,,,,,,,,,,,,,,,,,masks/mask_002.jpg,,,,,,,,,,,,,,,,,,,,,,,,,,,,,,,,,,,,,,,,,,,0,2,2,1,1,,,,,,,,,,,,,,,,,,,,,,,,,,,,,,,,,,,,,,,,,,,,,,
943335,001,2022-11-21_01h50.25.154,Info_measure_main_exp,2022.2.2,Win32,9.696311523,,,,,,,,,,,,,,,,,,masks/mask_004.jpg,,,,,,,,,,,,,,,,,,,,,,,,,,,,,,,,,,,,,,,,,,,0,3,3,3,1,,,,,,,,,,,,,,,,,,,,,,,,,,,,,,,,,,,,,,,,,,,,,,
943335,001,2022-11-21_01h50.25.154,Info_measure_main_exp,2022.2.2,Win32,9.696311523,,,,,,,,,,,,,,,,,,masks/mask_001.jpg,,,,,,,,,,,,,,,,,,,,,,,,,,,,,,,,,,,,,,,,,,,0,4,4,0,1,,,,,,,,,,,,,,,,,,,,,,,,,,,,,,,,,,,,,,,,,,,,,,
943335,001,2022-11-21_01h50.25.154,Info_measure_main_exp,2022.2.2,Win32,9.696311523,,,,,,,,,,,,,,,,,,masks/mask_003.jpg,,,,,,,,,,,,,,,,,,,,,,,,,,,,,,,,,,,,,,,,,,,,,,,,0,0,0,2,1,,,,,,,,,,,,,,,,,,,,,,,,,,,,,,,,,,,,,,,,,
943335,001,2022-11-21_01h50.25.154,Info_measure_main_exp,2022.2.2,Win32,9.696311523,,,,,,,,,,,,,,,,,,masks/mask_005.jpg,,,,,,,,,,,,,,,,,,,,,,,,,,,,,,,,,,,,,,,,,,,,,,,,0,1,1,4,1,,,,,,,,,,,,,,,,,,,,,,,,,,,,,,,,,,,,,,,,,
943335,001,2022-11-21_01h50.25.154,Info_measure_main_exp,2022.2.2,Win32,9.696311523,,,,,,,,,,,,,,,,,,masks/mask_004.jpg,,,,,,,,,,,,,,,,,,,,,,,,,,,,,,,,,,,,,,,,,,,,,,,,0,2,2,3,1,,,,,,,,,,,,,,,,,,,,,,,,,,,,,,,,,,,,,,,,,
943335,001,2022-11-21_01h50.25.154,Info_measure_main_exp,2022.2.2,Win32,9.696311523,,,,,,,,,,,,,,,,,,masks/mask_002.jpg,,,,,,,,,,,,,,,,,,,,,,,,,,,,,,,,,,,,,,,,,,,,,,,,0,3,3,1,1,,,,,,,,,,,,,,,,,,,,,,,,,,,,,,,,,,,,,,,,,
943335,001,2022-11-21_01h50.25.154,Info_measure_main_exp,2022.2.2,Win32,9.696311523,,,,,,,,,,,,,,,,,,masks/mask_001.jpg,,,,,,,,,,,,,,,,,,,,,,,,,,,,,,,,,,,,,,,,,,,,,,,,0,4,4,0,1,,,,,,,,,,,,,,,,,,,,,,,,,,,,,,,,,,,,,,,,,
943335,001,2022-11-21_01h50.25.154,Info_measure_main_exp,2022.2.2,Win32,9.696311523,,,,,,,,,,,,,,,,,,,,,,,,,,,,,,0,0.9493,1,,,,,,,,,,,,0,131,5,5,2274,2178,absent_patch/patch0002274.jpg,absent_patch/patch0002178.jpg,,,,,,,,,,,,,,,,,,,,-0.03125,0.127083328,1,0,0,response7disk,26,-0.000694434,-0.005555577,1,0,0,center_square,0,25,25,117,1,,,,,,,,,,,,,,,,,,,,,,,
943335,001,2022-11-21_01h50.25.154,Info_measure_main_exp,2022.2.2,Win32,9.696311523,,,,,,,,,,,,,,,,,,masks/mask_003.jpg,,,,,,,,,,,,,,,,,,,,,,,,,,,,,,,,,,,,,,,,,,,0,0,0,2,1,,,,,,,,,,,,,,,,,,,,,,,,,,,,,,,,,,,,,,,,,,,,,,
943335,001,2022-11-21_01h50.25.154,Info_measure_main_exp,2022.2.2,Win32,9.696311523,,,,,,,,,,,,,,,,,,masks/mask_005.jpg,,,,,,,,,,,,,,,,,,,,,,,,,,,,,,,,,,,,,,,,,,,0,1,1,4,1,,,,,,,,,,,,,,,,,,,,,,,,,,,,,,,,,,,,,,,,,,,,,,
943335,001,2022-11-21_01h50.25.154,Info_measure_main_exp,2022.2.2,Win32,9.696311523,,,,,,,,,,,,,,,,,,masks/mask_004.jpg,,,,,,,,,,,,,,,,,,,,,,,,,,,,,,,,,,,,,,,,,,,0,2,2,3,1,,,,,,,,,,,,,,,,,,,,,,,,,,,,,,,,,,,,,,,,,,,,,,
943335,001,2022-11-21_01h50.25.154,Info_measure_main_exp,2022.2.2,Win32,9.696311523,,,,,,,,,,,,,,,,,,masks/mask_002.jpg,,,,,,,,,,,,,,,,,,,,,,,,,,,,,,,,,,,,,,,,,,,0,3,3,1,1,,,,,,,,,,,,,,,,,,,,,,,,,,,,,,,,,,,,,,,,,,,,,,
943335,001,2022-11-21_01h50.25.154,Info_measure_main_exp,2022.2.2,Win32,9.696311523,,,,,,,,,,,,,,,,,,masks/mask_001.jpg,,,,,,,,,,,,,,,,,,,,,,,,,,,,,,,,,,,,,,,,,,,0,4,4,0,1,,,,,,,,,,,,,,,,,,,,,,,,,,,,,,,,,,,,,,,,,,,,,,
943335,001,2022-11-21_01h50.25.154,Info_measure_main_exp,2022.2.2,Win32,9.696311523,,,,,,,,,,,,,,,,,,masks/mask_003.jpg,,,,,,,,,,,,,,,,,,,,,,,,,,,,,,,,,,,,,,,,,,,,,,,,0,0,0,2,1,,,,,,,,,,,,,,,,,,,,,,,,,,,,,,,,,,,,,,,,,
943335,001,2022-11-21_01h50.25.154,Info_measure_main_exp,2022.2.2,Win32,9.696311523,,,,,,,,,,,,,,,,,,masks/mask_001.jpg,,,,,,,,,,,,,,,,,,,,,,,,,,,,,,,,,,,,,,,,,,,,,,,,0,1,1,0,1,,,,,,,,,,,,,,,,,,,,,,,,,,,,,,,,,,,,,,,,,
943335,001,2022-11-21_01h50.25.154,Info_measure_main_exp,2022.2.2,Win32,9.696311523,,,,,,,,,,,,,,,,,,masks/mask_005.jpg,,,,,,,,,,,,,,,,,,,,,,,,,,,,,,,,,,,,,,,,,,,,,,,,0,2,2,4,1,,,,,,,,,,,,,,,,,,,,,,,,,,,,,,,,,,,,,,,,,
943335,001,2022-11-21_01h50.25.154,Info_measure_main_exp,2022.2.2,Win32,9.696311523,,,,,,,,,,,,,,,,,,masks/mask_002.jpg,,,,,,,,,,,,,,,,,,,,,,,,,,,,,,,,,,,,,,,,,,,,,,,,0,3,3,1,1,,,,,,,,,,,,,,,,,,,,,,,,,,,,,,,,,,,,,,,,,
943335,001,2022-11-21_01h50.25.154,Info_measure_main_exp,2022.2.2,Win32,9.696311523,,,,,,,,,,,,,,,,,,masks/mask_004.jpg,,,,,,,,,,,,,,,,,,,,,,,,,,,,,,,,,,,,,,,,,,,,,,,,0,4,4,3,1,,,,,,,,,,,,,,,,,,,,,,,,,,,,,,,,,,,,,,,,,
943335,001,2022-11-21_01h50.25.154,Info_measure_main_exp,2022.2.2,Win32,9.696311523,,,,,,,,,,,,,,,,,,,,,,,,,,,,,,7,1.6305,1,,,,,,,,,,,,0,131,5,5,1974,2142,absent_patch/patch0001974.jpg,absent_patch/patch0002142.jpg,,,,,,,,,,,,,,,,,,,,0.11041673,0.148611095,1,0,0,response1disk,27,0.002083355,-0.000694434,1,0,0,center_square,0,26,26,38,1,,,,,,,,,,,,,,,,,,,,,,,
943335,001,2022-11-21_01h50.25.154,Info_measure_main_exp,2022.2.2,Win32,9.696311523,,,,,,,,,,,,,,,,,,masks/mask_003.jpg,,,,,,,,,,,,,,,,,,,,,,,,,,,,,,,,,,,,,,,,,,,0,0,0,2,1,,,,,,,,,,,,,,,,,,,,,,,,,,,,,,,,,,,,,,,,,,,,,,
943335,001,2022-11-21_01h50.25.154,Info_measure_main_exp,2022.2.2,Win32,9.696311523,,,,,,,,,,,,,,,,,,masks/mask_001.jpg,,,,,,,,,,,,,,,,,,,,,,,,,,,,,,,,,,,,,,,,,,,0,1,1,0,1,,,,,,,,,,,,,,,,,,,,,,,,,,,,,,,,,,,,,,,,,,,,,,
943335,001,2022-11-21_01h50.25.154,Info_measure_main_exp,2022.2.2,Win32,9.696311523,,,,,,,,,,,,,,,,,,masks/mask_004.jpg,,,,,,,,,,,,,,,,,,,,,,,,,,,,,,,,,,,,,,,,,,,0,2,2,3,1,,,,,,,,,,,,,,,,,,,,,,,,,,,,,,,,,,,,,,,,,,,,,,
943335,001,2022-11-21_01h50.25.154,Info_measure_main_exp,2022.2.2,Win32,9.696311523,,,,,,,,,,,,,,,,,,masks/mask_002.jpg,,,,,,,,,,,,,,,,,,,,,,,,,,,,,,,,,,,,,,,,,,,0,3,3,1,1,,,,,,,,,,,,,,,,,,,,,,,,,,,,,,,,,,,,,,,,,,,,,,
943335,001,2022-11-21_01h50.25.154,Info_measure_main_exp,2022.2.2,Win32,9.696311523,,,,,,,,,,,,,,,,,,masks/mask_005.jpg,,,,,,,,,,,,,,,,,,,,,,,,,,,,,,,,,,,,,,,,,,,0,4,4,4,1,,,,,,,,,,,,,,,,,,,,,,,,,,,,,,,,,,,,,,,,,,,,,,
943335,001,2022-11-21_01h50.25.154,Info_measure_main_exp,2022.2.2,Win32,9.696311523,,,,,,,,,,,,,,,,,,masks/mask_002.jpg,,,,,,,,,,,,,,,,,,,,,,,,,,,,,,,,,,,,,,,,,,,,,,,,0,0,0,1,1,,,,,,,,,,,,,,,,,,,,,,,,,,,,,,,,,,,,,,,,,
943335,001,2022-11-21_01h50.25.154,Info_measure_main_exp,2022.2.2,Win32,9.696311523,,,,,,,,,,,,,,,,,,masks/mask_003.jpg,,,,,,,,,,,,,,,,,,,,,,,,,,,,,,,,,,,,,,,,,,,,,,,,0,1,1,2,1,,,,,,,,,,,,,,,,,,,,,,,,,,,,,,,,,,,,,,,,,
943335,001,2022-11-21_01h50.25.154,Info_measure_main_exp,2022.2.2,Win32,9.696311523,,,,,,,,,,,,,,,,,,masks/mask_001.jpg,,,,,,,,,,,,,,,,,,,,,,,,,,,,,,,,,,,,,,,,,,,,,,,,0,2,2,0,1,,,,,,,,,,,,,,,,,,,,,,,,,,,,,,,,,,,,,,,,,
943335,001,2022-11-21_01h50.25.154,Info_measure_main_exp,2022.2.2,Win32,9.696311523,,,,,,,,,,,,,,,,,,masks/mask_004.jpg,,,,,,,,,,,,,,,,,,,,,,,,,,,,,,,,,,,,,,,,,,,,,,,,0,3,3,3,1,,,,,,,,,,,,,,,,,,,,,,,,,,,,,,,,,,,,,,,,,
943335,001,2022-11-21_01h50.25.154,Info_measure_main_exp,2022.2.2,Win32,9.696311523,,,,,,,,,,,,,,,,,,masks/mask_005.jpg,,,,,,,,,,,,,,,,,,,,,,,,,,,,,,,,,,,,,,,,,,,,,,,,0,4,4,4,1,,,,,,,,,,,,,,,,,,,,,,,,,,,,,,,,,,,,,,,,,
943335,001,2022-11-21_01h50.25.154,Info_measure_main_exp,2022.2.2,Win32,9.696311523,,,,,,,,,,,,,,,,,,,,,,,,,,,,,,2,4.2621,1,,,,,,,,,,,,0,131,5,5,2082,1986,absent_patch/patch0002082.jpg,absent_patch/patch0001986.jpg,,,,,,,,,,,,,,,,,,,,-0.174305545,-0.092361132,1,0,0,response5disk,28,-0.002083302,-0.002083355,1,0,0,center_square,0,27,27,94,1,,,,,,,,,,,,,,,,,,,,,,,
943335,001,2022-11-21_01h50.25.154,Info_measure_main_exp,2022.2.2,Win32,9.696311523,,,,,,,,,,,,,,,,,,masks/mask_001.jpg,,,,,,,,,,,,,,,,,,,,,,,,,,,,,,,,,,,,,,,,,,,0,0,0,0,1,,,,,,,,,,,,,,,,,,,,,,,,,,,,,,,,,,,,,,,,,,,,,,
943335,001,2022-11-21_01h50.25.154,Info_measure_main_exp,2022.2.2,Win32,9.696311523,,,,,,,,,,,,,,,,,,masks/mask_003.jpg,,,,,,,,,,,,,,,,,,,,,,,,,,,,,,,,,,,,,,,,,,,0,1,1,2,1,,,,,,,,,,,,,,,,,,,,,,,,,,,,,,,,,,,,,,,,,,,,,,
943335,001,2022-11-21_01h50.25.154,Info_measure_main_exp,2022.2.2,Win32,9.696311523,,,,,,,,,,,,,,,,,,masks/mask_005.jpg,,,,,,,,,,,,,,,,,,,,,,,,,,,,,,,,,,,,,,,,,,,0,2,2,4,1,,,,,,,,,,,,,,,,,,,,,,,,,,,,,,,,,,,,,,,,,,,,,,
943335,001,2022-11-21_01h50.25.154,Info_measure_main_exp,2022.2.2,Win32,9.696311523,,,,,,,,,,,,,,,,,,masks/mask_004.jpg,,,,,,,,,,,,,,,,,,,,,,,,,,,,,,,,,,,,,,,,,,,0,3,3,3,1,,,,,,,,,,,,,,,,,,,,,,,,,,,,,,,,,,,,,,,,,,,,,,
943335,001,2022-11-21_01h50.25.154,Info_measure_main_exp,2022.2.2,Win32,9.696311523,,,,,,,,,,,,,,,,,,masks/mask_002.jpg,,,,,,,,,,,,,,,,,,,,,,,,,,,,,,,,,,,,,,,,,,,0,4,4,1,1,,,,,,,,,,,,,,,,,,,,,,,,,,,,,,,,,,,,,,,,,,,,,,
943335,001,2022-11-21_01h50.25.154,Info_measure_main_exp,2022.2.2,Win32,9.696311523,,,,,,,,,,,,,,,,,,masks/mask_003.jpg,,,,,,,,,,,,,,,,,,,,,,,,,,,,,,,,,,,,,,,,,,,,,,,,0,0,0,2,1,,,,,,,,,,,,,,,,,,,,,,,,,,,,,,,,,,,,,,,,,
943335,001,2022-11-21_01h50.25.154,Info_measure_main_exp,2022.2.2,Win32,9.696311523,,,,,,,,,,,,,,,,,,masks/mask_002.jpg,,,,,,,,,,,,,,,,,,,,,,,,,,,,,,,,,,,,,,,,,,,,,,,,0,1,1,1,1,,,,,,,,,,,,,,,,,,,,,,,,,,,,,,,,,,,,,,,,,
943335,001,2022-11-21_01h50.25.154,Info_measure_main_exp,2022.2.2,Win32,9.696311523,,,,,,,,,,,,,,,,,,masks/mask_001.jpg,,,,,,,,,,,,,,,,,,,,,,,,,,,,,,,,,,,,,,,,,,,,,,,,0,2,2,0,1,,,,,,,,,,,,,,,,,,,,,,,,,,,,,,,,,,,,,,,,,
943335,001,2022-11-21_01h50.25.154,Info_measure_main_exp,2022.2.2,Win32,9.696311523,,,,,,,,,,,,,,,,,,masks/mask_004.jpg,,,,,,,,,,,,,,,,,,,,,,,,,,,,,,,,,,,,,,,,,,,,,,,,0,3,3,3,1,,,,,,,,,,,,,,,,,,,,,,,,,,,,,,,,,,,,,,,,,
943335,001,2022-11-21_01h50.25.154,Info_measure_main_exp,2022.2.2,Win32,9.696311523,,,,,,,,,,,,,,,,,,masks/mask_005.jpg,,,,,,,,,,,,,,,,,,,,,,,,,,,,,,,,,,,,,,,,,,,,,,,,0,4,4,4,1,,,,,,,,,,,,,,,,,,,,,,,,,,,,,,,,,,,,,,,,,
943335,001,2022-11-21_01h50.25.154,Info_measure_main_exp,2022.2.2,Win32,9.696311523,,,,,,,,,,,,,,,,,,,,,,,,,,,,,,6,2.7743,1,,,,,,,,,,,,0,131,5,5,1950,2298,absent_patch/patch0001950.jpg,absent_patch/patch0002298.jpg,,,,,,,,,,,,,,,,,,,,0.101388931,0.03611109,1,0,0,response1disk,29,-0.002083302,0.007638878,1,0,0,center_square,0,28,28,18,1,,,,,,,,,,,,,,,,,,,,,,,
943335,001,2022-11-21_01h50.25.154,Info_measure_main_exp,2022.2.2,Win32,9.696311523,,,,,,,,,,,,,,,,,,masks/mask_005.jpg,,,,,,,,,,,,,,,,,,,,,,,,,,,,,,,,,,,,,,,,,,,0,0,0,4,1,,,,,,,,,,,,,,,,,,,,,,,,,,,,,,,,,,,,,,,,,,,,,,
943335,001,2022-11-21_01h50.25.154,Info_measure_main_exp,2022.2.2,Win32,9.696311523,,,,,,,,,,,,,,,,,,masks/mask_003.jpg,,,,,,,,,,,,,,,,,,,,,,,,,,,,,,,,,,,,,,,,,,,0,1,1,2,1,,,,,,,,,,,,,,,,,,,,,,,,,,,,,,,,,,,,,,,,,,,,,,
943335,001,2022-11-21_01h50.25.154,Info_measure_main_exp,2022.2.2,Win32,9.696311523,,,,,,,,,,,,,,,,,,masks/mask_004.jpg,,,,,,,,,,,,,,,,,,,,,,,,,,,,,,,,,,,,,,,,,,,0,2,2,3,1,,,,,,,,,,,,,,,,,,,,,,,,,,,,,,,,,,,,,,,,,,,,,,
943335,001,2022-11-21_01h50.25.154,Info_measure_main_exp,2022.2.2,Win32,9.696311523,,,,,,,,,,,,,,,,,,masks/mask_001.jpg,,,,,,,,,,,,,,,,,,,,,,,,,,,,,,,,,,,,,,,,,,,0,3,3,0,1,,,,,,,,,,,,,,,,,,,,,,,,,,,,,,,,,,,,,,,,,,,,,,
943335,001,2022-11-21_01h50.25.154,Info_measure_main_exp,2022.2.2,Win32,9.696311523,,,,,,,,,,,,,,,,,,masks/mask_002.jpg,,,,,,,,,,,,,,,,,,,,,,,,,,,,,,,,,,,,,,,,,,,0,4,4,1,1,,,,,,,,,,,,,,,,,,,,,,,,,,,,,,,,,,,,,,,,,,,,,,
943335,001,2022-11-21_01h50.25.154,Info_measure_main_exp,2022.2.2,Win32,9.696311523,,,,,,,,,,,,,,,,,,masks/mask_001.jpg,,,,,,,,,,,,,,,,,,,,,,,,,,,,,,,,,,,,,,,,,,,,,,,,0,0,0,0,1,,,,,,,,,,,,,,,,,,,,,,,,,,,,,,,,,,,,,,,,,
943335,001,2022-11-21_01h50.25.154,Info_measure_main_exp,2022.2.2,Win32,9.696311523,,,,,,,,,,,,,,,,,,masks/mask_004.jpg,,,,,,,,,,,,,,,,,,,,,,,,,,,,,,,,,,,,,,,,,,,,,,,,0,1,1,3,1,,,,,,,,,,,,,,,,,,,,,,,,,,,,,,,,,,,,,,,,,
943335,001,2022-11-21_01h50.25.154,Info_measure_main_exp,2022.2.2,Win32,9.696311523,,,,,,,,,,,,,,,,,,masks/mask_003.jpg,,,,,,,,,,,,,,,,,,,,,,,,,,,,,,,,,,,,,,,,,,,,,,,,0,2,2,2,1,,,,,,,,,,,,,,,,,,,,,,,,,,,,,,,,,,,,,,,,,
943335,001,2022-11-21_01h50.25.154,Info_measure_main_exp,2022.2.2,Win32,9.696311523,,,,,,,,,,,,,,,,,,masks/mask_002.jpg,,,,,,,,,,,,,,,,,,,,,,,,,,,,,,,,,,,,,,,,,,,,,,,,0,3,3,1,1,,,,,,,,,,,,,,,,,,,,,,,,,,,,,,,,,,,,,,,,,
943335,001,2022-11-21_01h50.25.154,Info_measure_main_exp,2022.2.2,Win32,9.696311523,,,,,,,,,,,,,,,,,,masks/mask_005.jpg,,,,,,,,,,,,,,,,,,,,,,,,,,,,,,,,,,,,,,,,,,,,,,,,0,4,4,4,1,,,,,,,,,,,,,,,,,,,,,,,,,,,,,,,,,,,,,,,,,
943335,001,2022-11-21_01h50.25.154,Info_measure_main_exp,2022.2.2,Win32,9.696311523,,,,,,,,,,,,,,,,,,,,,,,,,,,,,,7,1.8189,1,,,,,,,,,,,,0,131,5,5,2298,2274,absent_patch/patch0002298.jpg,absent_patch/patch0002274.jpg,,,,,,,,,,,,,,,,,,,,0.070833312,0.138194429,1,0,0,response1disk,30,0.009027799,-0.004861143,1,0,0,center_square,0,29,29,1,1,,,,,,,,,,,,,,,,,,,,,,,
943335,001,2022-11-21_01h50.25.154,Info_measure_main_exp,2022.2.2,Win32,9.696311523,,,,,,,,,,,,,,,,,,masks/mask_003.jpg,,,,,,,,,,,,,,,,,,,,,,,,,,,,,,,,,,,,,,,,,,,0,0,0,2,1,,,,,,,,,,,,,,,,,,,,,,,,,,,,,,,,,,,,,,,,,,,,,,
943335,001,2022-11-21_01h50.25.154,Info_measure_main_exp,2022.2.2,Win32,9.696311523,,,,,,,,,,,,,,,,,,masks/mask_001.jpg,,,,,,,,,,,,,,,,,,,,,,,,,,,,,,,,,,,,,,,,,,,0,1,1,0,1,,,,,,,,,,,,,,,,,,,,,,,,,,,,,,,,,,,,,,,,,,,,,,
943335,001,2022-11-21_01h50.25.154,Info_measure_main_exp,2022.2.2,Win32,9.696311523,,,,,,,,,,,,,,,,,,masks/mask_004.jpg,,,,,,,,,,,,,,,,,,,,,,,,,,,,,,,,,,,,,,,,,,,0,2,2,3,1,,,,,,,,,,,,,,,,,,,,,,,,,,,,,,,,,,,,,,,,,,,,,,
943335,001,2022-11-21_01h50.25.154,Info_measure_main_exp,2022.2.2,Win32,9.696311523,,,,,,,,,,,,,,,,,,masks/mask_002.jpg,,,,,,,,,,,,,,,,,,,,,,,,,,,,,,,,,,,,,,,,,,,0,3,3,1,1,,,,,,,,,,,,,,,,,,,,,,,,,,,,,,,,,,,,,,,,,,,,,,
943335,001,2022-11-21_01h50.25.154,Info_measure_main_exp,2022.2.2,Win32,9.696311523,,,,,,,,,,,,,,,,,,masks/mask_005.jpg,,,,,,,,,,,,,,,,,,,,,,,,,,,,,,,,,,,,,,,,,,,0,4,4,4,1,,,,,,,,,,,,,,,,,,,,,,,,,,,,,,,,,,,,,,,,,,,,,,
943335,001,2022-11-21_01h50.25.154,Info_measure_main_exp,2022.2.2,Win32,9.696311523,,,,,,,,,,,,,,,,,,masks/mask_005.jpg,,,,,,,,,,,,,,,,,,,,,,,,,,,,,,,,,,,,,,,,,,,,,,,,0,0,0,4,1,,,,,,,,,,,,,,,,,,,,,,,,,,,,,,,,,,,,,,,,,
943335,001,2022-11-21_01h50.25.154,Info_measure_main_exp,2022.2.2,Win32,9.696311523,,,,,,,,,,,,,,,,,,masks/mask_003.jpg,,,,,,,,,,,,,,,,,,,,,,,,,,,,,,,,,,,,,,,,,,,,,,,,0,1,1,2,1,,,,,,,,,,,,,,,,,,,,,,,,,,,,,,,,,,,,,,,,,
943335,001,2022-11-21_01h50.25.154,Info_measure_main_exp,2022.2.2,Win32,9.696311523,,,,,,,,,,,,,,,,,,masks/mask_004.jpg,,,,,,,,,,,,,,,,,,,,,,,,,,,,,,,,,,,,,,,,,,,,,,,,0,2,2,3,1,,,,,,,,,,,,,,,,,,,,,,,,,,,,,,,,,,,,,,,,,
943335,001,2022-11-21_01h50.25.154,Info_measure_main_exp,2022.2.2,Win32,9.696311523,,,,,,,,,,,,,,,,,,masks/mask_002.jpg,,,,,,,,,,,,,,,,,,,,,,,,,,,,,,,,,,,,,,,,,,,,,,,,0,3,3,1,1,,,,,,,,,,,,,,,,,,,,,,,,,,,,,,,,,,,,,,,,,
943335,001,2022-11-21_01h50.25.154,Info_measure_main_exp,2022.2.2,Win32,9.696311523,,,,,,,,,,,,,,,,,,masks/mask_001.jpg,,,,,,,,,,,,,,,,,,,,,,,,,,,,,,,,,,,,,,,,,,,,,,,,0,4,4,0,1,,,,,,,,,,,,,,,,,,,,,,,,,,,,,,,,,,,,,,,,,
943335,001,2022-11-21_01h50.25.154,Info_measure_main_exp,2022.2.2,Win32,9.696311523,,,,,,,,,,,,,,,,,,,,,,,,,,,,,,7,1.7021,1,,,,,,,,,,,,0,131,5,5,2190,2082,absent_patch/patch0002190.jpg,absent_patch/patch0002082.jpg,,,,,,,,,,,,,,,,,,,,0.037500064,0.088888884,1,0,0,response1disk,31,-0.00486109,-0.006944444,1,0,0,center_square,0,30,30,112,1,,,,,,,,,,,,,,,,,,,,,,,
943335,001,2022-11-21_01h50.25.154,Info_measure_main_exp,2022.2.2,Win32,9.696311523,,,,,,,,,,,,,,,,,,masks/mask_003.jpg,,,,,,,,,,,,,,,,,,,,,,,,,,,,,,,,,,,,,,,,,,,0,0,0,2,1,,,,,,,,,,,,,,,,,,,,,,,,,,,,,,,,,,,,,,,,,,,,,,
943335,001,2022-11-21_01h50.25.154,Info_measure_main_exp,2022.2.2,Win32,9.696311523,,,,,,,,,,,,,,,,,,masks/mask_002.jpg,,,,,,,,,,,,,,,,,,,,,,,,,,,,,,,,,,,,,,,,,,,0,1,1,1,1,,,,,,,,,,,,,,,,,,,,,,,,,,,,,,,,,,,,,,,,,,,,,,
943335,001,2022-11-21_01h50.25.154,Info_measure_main_exp,2022.2.2,Win32,9.696311523,,,,,,,,,,,,,,,,,,masks/mask_004.jpg,,,,,,,,,,,,,,,,,,,,,,,,,,,,,,,,,,,,,,,,,,,0,2,2,3,1,,,,,,,,,,,,,,,,,,,,,,,,,,,,,,,,,,,,,,,,,,,,,,
943335,001,2022-11-21_01h50.25.154,Info_measure_main_exp,2022.2.2,Win32,9.696311523,,,,,,,,,,,,,,,,,,masks/mask_005.jpg,,,,,,,,,,,,,,,,,,,,,,,,,,,,,,,,,,,,,,,,,,,0,3,3,4,1,,,,,,,,,,,,,,,,,,,,,,,,,,,,,,,,,,,,,,,,,,,,,,
943335,001,2022-11-21_01h50.25.154,Info_measure_main_exp,2022.2.2,Win32,9.696311523,,,,,,,,,,,,,,,,,,masks/mask_001.jpg,,,,,,,,,,,,,,,,,,,,,,,,,,,,,,,,,,,,,,,,,,,0,4,4,0,1,,,,,,,,,,,,,,,,,,,,,,,,,,,,,,,,,,,,,,,,,,,,,,
943335,001,2022-11-21_01h50.25.154,Info_measure_main_exp,2022.2.2,Win32,9.696311523,,,,,,,,,,,,,,,,,,masks/mask_003.jpg,,,,,,,,,,,,,,,,,,,,,,,,,,,,,,,,,,,,,,,,,,,,,,,,0,0,0,2,1,,,,,,,,,,,,,,,,,,,,,,,,,,,,,,,,,,,,,,,,,
943335,001,2022-11-21_01h50.25.154,Info_measure_main_exp,2022.2.2,Win32,9.696311523,,,,,,,,,,,,,,,,,,masks/mask_002.jpg,,,,,,,,,,,,,,,,,,,,,,,,,,,,,,,,,,,,,,,,,,,,,,,,0,1,1,1,1,,,,,,,,,,,,,,,,,,,,,,,,,,,,,,,,,,,,,,,,,
943335,001,2022-11-21_01h50.25.154,Info_measure_main_exp,2022.2.2,Win32,9.696311523,,,,,,,,,,,,,,,,,,masks/mask_005.jpg,,,,,,,,,,,,,,,,,,,,,,,,,,,,,,,,,,,,,,,,,,,,,,,,0,2,2,4,1,,,,,,,,,,,,,,,,,,,,,,,,,,,,,,,,,,,,,,,,,
943335,001,2022-11-21_01h50.25.154,Info_measure_main_exp,2022.2.2,Win32,9.696311523,,,,,,,,,,,,,,,,,,masks/mask_004.jpg,,,,,,,,,,,,,,,,,,,,,,,,,,,,,,,,,,,,,,,,,,,,,,,,0,3,3,3,1,,,,,,,,,,,,,,,,,,,,,,,,,,,,,,,,,,,,,,,,,
943335,001,2022-11-21_01h50.25.154,Info_measure_main_exp,2022.2.2,Win32,9.696311523,,,,,,,,,,,,,,,,,,masks/mask_001.jpg,,,,,,,,,,,,,,,,,,,,,,,,,,,,,,,,,,,,,,,,,,,,,,,,0,4,4,0,1,,,,,,,,,,,,,,,,,,,,,,,,,,,,,,,,,,,,,,,,,
943335,001,2022-11-21_01h50.25.154,Info_measure_main_exp,2022.2.2,Win32,9.696311523,,,,,,,,,,,,,,,,,,,,,,,,,,,,,,7,1.2106,1,,,,,,,,,,,,0,131,5,5,2274,2166,absent_patch/patch0002274.jpg,absent_patch/patch0002166.jpg,,,,,,,,,,,,,,,,,,,,0.035416709,0.098611116,1,0,0,response1disk,32,0.009722286,0.000694434,1,0,0,center_square,0,31,31,78,1,,,,,,,,,,,,,,,,,,,,,,,
943335,001,2022-11-21_01h50.25.154,Info_measure_main_exp,2022.2.2,Win32,9.696311523,,,,,,,,,,,,,,,,,,masks/mask_005.jpg,,,,,,,,,,,,,,,,,,,,,,,,,,,,,,,,,,,,,,,,,,,0,0,0,4,1,,,,,,,,,,,,,,,,,,,,,,,,,,,,,,,,,,,,,,,,,,,,,,
943335,001,2022-11-21_01h50.25.154,Info_measure_main_exp,2022.2.2,Win32,9.696311523,,,,,,,,,,,,,,,,,,masks/mask_002.jpg,,,,,,,,,,,,,,,,,,,,,,,,,,,,,,,,,,,,,,,,,,,0,1,1,1,1,,,,,,,,,,,,,,,,,,,,,,,,,,,,,,,,,,,,,,,,,,,,,,
943335,001,2022-11-21_01h50.25.154,Info_measure_main_exp,2022.2.2,Win32,9.696311523,,,,,,,,,,,,,,,,,,masks/mask_004.jpg,,,,,,,,,,,,,,,,,,,,,,,,,,,,,,,,,,,,,,,,,,,0,2,2,3,1,,,,,,,,,,,,,,,,,,,,,,,,,,,,,,,,,,,,,,,,,,,,,,
943335,001,2022-11-21_01h50.25.154,Info_measure_main_exp,2022.2.2,Win32,9.696311523,,,,,,,,,,,,,,,,,,masks/mask_001.jpg,,,,,,,,,,,,,,,,,,,,,,,,,,,,,,,,,,,,,,,,,,,0,3,3,0,1,,,,,,,,,,,,,,,,,,,,,,,,,,,,,,,,,,,,,,,,,,,,,,
943335,001,2022-11-21_01h50.25.154,Info_measure_main_exp,2022.2.2,Win32,9.696311523,,,,,,,,,,,,,,,,,,masks/mask_003.jpg,,,,,,,,,,,,,,,,,,,,,,,,,,,,,,,,,,,,,,,,,,,0,4,4,2,1,,,,,,,,,,,,,,,,,,,,,,,,,,,,,,,,,,,,,,,,,,,,,,
943335,001,2022-11-21_01h50.25.154,Info_measure_main_exp,2022.2.2,Win32,9.696311523,,,,,,,,,,,,,,,,,,masks/mask_002.jpg,,,,,,,,,,,,,,,,,,,,,,,,,,,,,,,,,,,,,,,,,,,,,,,,0,0,0,1,1,,,,,,,,,,,,,,,,,,,,,,,,,,,,,,,,,,,,,,,,,
943335,001,2022-11-21_01h50.25.154,Info_measure_main_exp,2022.2.2,Win32,9.696311523,,,,,,,,,,,,,,,,,,masks/mask_005.jpg,,,,,,,,,,,,,,,,,,,,,,,,,,,,,,,,,,,,,,,,,,,,,,,,0,1,1,4,1,,,,,,,,,,,,,,,,,,,,,,,,,,,,,,,,,,,,,,,,,
943335,001,2022-11-21_01h50.25.154,Info_measure_main_exp,2022.2.2,Win32,9.696311523,,,,,,,,,,,,,,,,,,masks/mask_004.jpg,,,,,,,,,,,,,,,,,,,,,,,,,,,,,,,,,,,,,,,,,,,,,,,,0,2,2,3,1,,,,,,,,,,,,,,,,,,,,,,,,,,,,,,,,,,,,,,,,,
943335,001,2022-11-21_01h50.25.154,Info_measure_main_exp,2022.2.2,Win32,9.696311523,,,,,,,,,,,,,,,,,,masks/mask_001.jpg,,,,,,,,,,,,,,,,,,,,,,,,,,,,,,,,,,,,,,,,,,,,,,,,0,3,3,0,1,,,,,,,,,,,,,,,,,,,,,,,,,,,,,,,,,,,,,,,,,
943335,001,2022-11-21_01h50.25.154,Info_measure_main_exp,2022.2.2,Win32,9.696311523,,,,,,,,,,,,,,,,,,masks/mask_003.jpg,,,,,,,,,,,,,,,,,,,,,,,,,,,,,,,,,,,,,,,,,,,,,,,,0,4,4,2,1,,,,,,,,,,,,,,,,,,,,,,,,,,,,,,,,,,,,,,,,,
943335,001,2022-11-21_01h50.25.154,Info_measure_main_exp,2022.2.2,Win32,9.696311523,,,,,,,,,,,,,,,,,,,,,,,,,,,,,,3,11.0065,1,,,,,,,,,,,,0,131,5,5,2142,2190,absent_patch/patch0002142.jpg,absent_patch/patch0002190.jpg,,,,,,,,,,,,,,,,,,,,-0.075694455,-0.153472212,1,0,0,response5disk,33,-0.005555524,-0.004861143,1,0,0,center_square,0,32,32,70,1,,,,,,,,,,,,,,,,,,,,,,,
943335,001,2022-11-21_01h50.25.154,Info_measure_main_exp,2022.2.2,Win32,9.696311523,,,,,,,,,,,,,,,,,,masks/mask_003.jpg,,,,,,,,,,,,,,,,,,,,,,,,,,,,,,,,,,,,,,,,,,,0,0,0,2,1,,,,,,,,,,,,,,,,,,,,,,,,,,,,,,,,,,,,,,,,,,,,,,
943335,001,2022-11-21_01h50.25.154,Info_measure_main_exp,2022.2.2,Win32,9.696311523,,,,,,,,,,,,,,,,,,masks/mask_004.jpg,,,,,,,,,,,,,,,,,,,,,,,,,,,,,,,,,,,,,,,,,,,0,1,1,3,1,,,,,,,,,,,,,,,,,,,,,,,,,,,,,,,,,,,,,,,,,,,,,,
943335,001,2022-11-21_01h50.25.154,Info_measure_main_exp,2022.2.2,Win32,9.696311523,,,,,,,,,,,,,,,,,,masks/mask_001.jpg,,,,,,,,,,,,,,,,,,,,,,,,,,,,,,,,,,,,,,,,,,,0,2,2,0,1,,,,,,,,,,,,,,,,,,,,,,,,,,,,,,,,,,,,,,,,,,,,,,
943335,001,2022-11-21_01h50.25.154,Info_measure_main_exp,2022.2.2,Win32,9.696311523,,,,,,,,,,,,,,,,,,masks/mask_005.jpg,,,,,,,,,,,,,,,,,,,,,,,,,,,,,,,,,,,,,,,,,,,0,3,3,4,1,,,,,,,,,,,,,,,,,,,,,,,,,,,,,,,,,,,,,,,,,,,,,,
943335,001,2022-11-21_01h50.25.154,Info_measure_main_exp,2022.2.2,Win32,9.696311523,,,,,,,,,,,,,,,,,,masks/mask_002.jpg,,,,,,,,,,,,,,,,,,,,,,,,,,,,,,,,,,,,,,,,,,,0,4,4,1,1,,,,,,,,,,,,,,,,,,,,,,,,,,,,,,,,,,,,,,,,,,,,,,
943335,001,2022-11-21_01h50.25.154,Info_measure_main_exp,2022.2.2,Win32,9.696311523,,,,,,,,,,,,,,,,,,masks/mask_001.jpg,,,,,,,,,,,,,,,,,,,,,,,,,,,,,,,,,,,,,,,,,,,,,,,,0,0,0,0,1,,,,,,,,,,,,,,,,,,,,,,,,,,,,,,,,,,,,,,,,,
943335,001,2022-11-21_01h50.25.154,Info_measure_main_exp,2022.2.2,Win32,9.696311523,,,,,,,,,,,,,,,,,,masks/mask_003.jpg,,,,,,,,,,,,,,,,,,,,,,,,,,,,,,,,,,,,,,,,,,,,,,,,0,1,1,2,1,,,,,,,,,,,,,,,,,,,,,,,,,,,,,,,,,,,,,,,,,
943335,001,2022-11-21_01h50.25.154,Info_measure_main_exp,2022.2.2,Win32,9.696311523,,,,,,,,,,,,,,,,,,masks/mask_004.jpg,,,,,,,,,,,,,,,,,,,,,,,,,,,,,,,,,,,,,,,,,,,,,,,,0,2,2,3,1,,,,,,,,,,,,,,,,,,,,,,,,,,,,,,,,,,,,,,,,,
943335,001,2022-11-21_01h50.25.154,Info_measure_main_exp,2022.2.2,Win32,9.696311523,,,,,,,,,,,,,,,,,,masks/mask_005.jpg,,,,,,,,,,,,,,,,,,,,,,,,,,,,,,,,,,,,,,,,,,,,,,,,0,3,3,4,1,,,,,,,,,,,,,,,,,,,,,,,,,,,,,,,,,,,,,,,,,
943335,001,2022-11-21_01h50.25.154,Info_measure_main_exp,2022.2.2,Win32,9.696311523,,,,,,,,,,,,,,,,,,masks/mask_002.jpg,,,,,,,,,,,,,,,,,,,,,,,,,,,,,,,,,,,,,,,,,,,,,,,,0,4,4,1,1,,,,,,,,,,,,,,,,,,,,,,,,,,,,,,,,,,,,,,,,,
943335,001,2022-11-21_01h50.25.154,Info_measure_main_exp,2022.2.2,Win32,9.696311523,,,,,,,,,,,,,,,,,,,,,,,,,,,,,,7,1.7336,1,,,,,,,,,,,,0,131,5,5,2166,1986,absent_patch/patch0002166.jpg,absent_patch/patch0001986.jpg,,,,,,,,,,,,,,,,,,,,0.077777757,0.134027772,1,0,0,response1disk,34,0,0.008333312,1,0,0,center_square,0,33,33,47,1,,,,,,,,,,,,,,,,,,,,,,,
943335,001,2022-11-21_01h50.25.154,Info_measure_main_exp,2022.2.2,Win32,9.696311523,,,,,,,,,,,,,,,,,,masks/mask_002.jpg,,,,,,,,,,,,,,,,,,,,,,,,,,,,,,,,,,,,,,,,,,,0,0,0,1,1,,,,,,,,,,,,,,,,,,,,,,,,,,,,,,,,,,,,,,,,,,,,,,
943335,001,2022-11-21_01h50.25.154,Info_measure_main_exp,2022.2.2,Win32,9.696311523,,,,,,,,,,,,,,,,,,masks/mask_004.jpg,,,,,,,,,,,,,,,,,,,,,,,,,,,,,,,,,,,,,,,,,,,0,1,1,3,1,,,,,,,,,,,,,,,,,,,,,,,,,,,,,,,,,,,,,,,,,,,,,,
943335,001,2022-11-21_01h50.25.154,Info_measure_main_exp,2022.2.2,Win32,9.696311523,,,,,,,,,,,,,,,,,,masks/mask_001.jpg,,,,,,,,,,,,,,,,,,,,,,,,,,,,,,,,,,,,,,,,,,,0,2,2,0,1,,,,,,,,,,,,,,,,,,,,,,,,,,,,,,,,,,,,,,,,,,,,,,
943335,001,2022-11-21_01h50.25.154,Info_measure_main_exp,2022.2.2,Win32,9.696311523,,,,,,,,,,,,,,,,,,masks/mask_003.jpg,,,,,,,,,,,,,,,,,,,,,,,,,,,,,,,,,,,,,,,,,,,0,3,3,2,1,,,,,,,,,,,,,,,,,,,,,,,,,,,,,,,,,,,,,,,,,,,,,,
943335,001,2022-11-21_01h50.25.154,Info_measure_main_exp,2022.2.2,Win32,9.696311523,,,,,,,,,,,,,,,,,,masks/mask_005.jpg,,,,,,,,,,,,,,,,,,,,,,,,,,,,,,,,,,,,,,,,,,,0,4,4,4,1,,,,,,,,,,,,,,,,,,,,,,,,,,,,,,,,,,,,,,,,,,,,,,
943335,001,2022-11-21_01h50.25.154,Info_measure_main_exp,2022.2.2,Win32,9.696311523,,,,,,,,,,,,,,,,,,masks/mask_004.jpg,,,,,,,,,,,,,,,,,,,,,,,,,,,,,,,,,,,,,,,,,,,,,,,,0,0,0,3,1,,,,,,,,,,,,,,,,,,,,,,,,,,,,,,,,,,,,,,,,,
943335,001,2022-11-21_01h50.25.154,Info_measure_main_exp,2022.2.2,Win32,9.696311523,,,,,,,,,,,,,,,,,,masks/mask_005.jpg,,,,,,,,,,,,,,,,,,,,,,,,,,,,,,,,,,,,,,,,,,,,,,,,0,1,1,4,1,,,,,,,,,,,,,,,,,,,,,,,,,,,,,,,,,,,,,,,,,
943335,001,2022-11-21_01h50.25.154,Info_measure_main_exp,2022.2.2,Win32,9.696311523,,,,,,,,,,,,,,,,,,masks/mask_002.jpg,,,,,,,,,,,,,,,,,,,,,,,,,,,,,,,,,,,,,,,,,,,,,,,,0,2,2,1,1,,,,,,,,,,,,,,,,,,,,,,,,,,,,,,,,,,,,,,,,,
943335,001,2022-11-21_01h50.25.154,Info_measure_main_exp,2022.2.2,Win32,9.696311523,,,,,,,,,,,,,,,,,,masks/mask_003.jpg,,,,,,,,,,,,,,,,,,,,,,,,,,,,,,,,,,,,,,,,,,,,,,,,0,3,3,2,1,,,,,,,,,,,,,,,,,,,,,,,,,,,,,,,,,,,,,,,,,
