participant,session,date,expName,psychopyVersion,OS,frameRate,space_press_continue.keys,space_press_continue.rt,space_press_continue_2.keys,space_press_continue_2.rt,space_press_continue_3.keys,space_press_continue_3.rt,space_press_continue_4.keys,space_press_continue_4.rt,space_press_continue_5.keys,space_press_continue_5.rt,space_press_continue_6.keys,space_press_continue_6.rt,prac_mask_loop_1.thisRepN,prac_mask_loop_1.thisTrialN,prac_mask_loop_1.thisN,prac_mask_loop_1.thisIndex,prac_mask_loop_1.ran,mask_name,prac_mask_loop_2.thisRepN,prac_mask_loop_2.thisTrialN,prac_mask_loop_2.thisN,prac_mask_loop_2.thisIndex,prac_mask_loop_2.ran,mouse_2.x,mouse_2.y,mouse_2.leftButton,mouse_2.midButton,mouse_2.rightButton,mouse_2.clicked_name,similarity,response_time,Pass,mouse_12.x,mouse_12.y,mouse_12.leftButton,mouse_12.midButton,mouse_12.rightButton,mouse_12.clicked_name,prac_loop.thisRepN,prac_loop.thisTrialN,prac_loop.thisN,prac_loop.thisIndex,prac_loop.ran,Pair_type,Image_num,Patch_1_loc,Patch_2_loc,Patch_1_info,Patch_2_info,Patch_1_name,Patch_2_name,mouse_1.x,mouse_1.y,mouse_1.leftButton,mouse_1.midButton,mouse_1.rightButton,mouse_1.time,mouse_1.clicked_name,space_press_continue_7.keys,space_press_continue_7.rt,mask_loop.thisRepN,mask_loop.thisTrialN,mask_loop.thisN,mask_loop.thisIndex,mask_loop.ran,mask_loop_2.thisRepN,mask_loop_2.thisTrialN,mask_loop_2.thisN,mask_loop_2.thisIndex,mask_loop_2.ran,mouse.x,mouse.y,mouse.leftButton,mouse.midButton,mouse.rightButton,mouse.clicked_name,trialNumber,mouse_11.x,mouse_11.y,mouse_11.leftButton,mouse_11.midButton,mouse_11.rightButton,mouse_11.clicked_name,first_pass_loop.thisRepN,first_pass_loop.thisTrialN,first_pass_loop.thisN,first_pass_loop.thisIndex,first_pass_loop.ran,mask_loop_3.thisRepN,mask_loop_3.thisTrialN,mask_loop_3.thisN,mask_loop_3.thisIndex,mask_loop_3.ran,mask_loop_4.thisRepN,mask_loop_4.thisTrialN,mask_loop_4.thisN,mask_loop_4.thisIndex,mask_loop_4.ran,mouse_3.x,mouse_3.y,mouse_3.leftButton,mouse_3.midButton,mouse_3.rightButton,mouse_3.clicked_name,double_pass_loop.thisRepN,double_pass_loop.thisTrialN,double_pass_loop.thisN,double_pass_loop.thisIndex,double_pass_loop.ran,space_exit.keys,space_exit.rt
945994,001,2022-11-21_01h50.10.083,Info_measure_main_exp,2022.2.2,Win32,60.86797736,,,,,,,,,,,,,,,,,,,,,,,,,,,,,,,,,,,,,,,,,,,,,,,,,,,,,,,,,,,,,,,,,,,,,,,,,,,,,,,,,,,,,,,,,,,,,,,,,,,,,,,,,,,,,,,
945994,001,2022-11-21_01h50.10.083,Info_measure_main_exp,2022.2.2,Win32,60.86797736,,,,,,,,,,,,,,,,,,,,,,,,,,,,,,,,,,,,,,,,,,,,,,,,,,,,,,,,,,,,,,,,,,,,,,,,,,,,,,,,,,,,,,,,,,,,,,,,,,,,,,,,,,,,,,,
945994,001,2022-11-21_01h50.10.083,Info_measure_main_exp,2022.2.2,Win32,60.86797736,space,11.0361,,,,,,,,,,,,,,,,,,,,,,,,,,,,,,,,,,,,,,,,,,,,,,,,,,,,,,,,,,,,,,,,,,,,,,,,,,,,,,,,,,,,,,,,,,,,,,,,,,,,,,,,,,,,,
945994,001,2022-11-21_01h50.10.083,Info_measure_main_exp,2022.2.2,Win32,60.86797736,,,space,17.8175,,,,,,,,,,,,,,,,,,,,,,,,,,,,,,,,,,,,,,,,,,,,,,,,,,,,,,,,,,,,,,,,,,,,,,,,,,,,,,,,,,,,,,,,,,,,,,,,,,,,,,,,,,,
945994,001,2022-11-21_01h50.10.083,Info_measure_main_exp,2022.2.2,Win32,60.86797736,,,,,space,11.0013,,,,,,,,,,,,,,,,,,,,,,,,,,,,,,,,,,,,,,,,,,,,,,,,,,,,,,,,,,,,,,,,,,,,,,,,,,,,,,,,,,,,,,,,,,,,,,,,,,,,,,,,,
945994,001,2022-11-21_01h50.10.083,Info_measure_main_exp,2022.2.2,Win32,60.86797736,,,,,,,space,33.5365,,,,,,,,,,,,,,,,,,,,,,,,,,,,,,,,,,,,,,,,,,,,,,,,,,,,,,,,,,,,,,,,,,,,,,,,,,,,,,,,,,,,,,,,,,,,,,,,,,,,,,,
945994,001,2022-11-21_01h50.10.083,Info_measure_main_exp,2022.2.2,Win32,60.86797736,,,,,,,,,space,12.9295,,,,,,,,,,,,,,,,,,,,,,,,,,,,,,,,,,,,,,,,,,,,,,,,,,,,,,,,,,,,,,,,,,,,,,,,,,,,,,,,,,,,,,,,,,,,,,,,,,,,,
945994,001,2022-11-21_01h50.10.083,Info_measure_main_exp,2022.2.2,Win32,60.86797736,,,,,,,,,,,space,6.6932,,,,,,,,,,,,,,,,,,,,,,,,,,,,,,,,,,,,,,,,,,,,,,,,,,,,,,,,,,,,,,,,,,,,,,,,,,,,,,,,,,,,,,,,,,,,,,,,,,,
945994,001,2022-11-21_01h50.10.083,Info_measure_main_exp,2022.2.2,Win32,60.86797736,,,,,,,,,,,,,0,0,0,2,1,masks/mask_003.jpg,,,,,,,,,,,,,,,,,,,,,,,,,,,,,,,,,,,,,,,,,,,,,,,,,,,,,,,,,,,,,,,,,,,,,,,,,,,,,,,,,,,,,,,,,,,,,
945994,001,2022-11-21_01h50.10.083,Info_measure_main_exp,2022.2.2,Win32,60.86797736,,,,,,,,,,,,,0,1,1,4,1,masks/mask_005.jpg,,,,,,,,,,,,,,,,,,,,,,,,,,,,,,,,,,,,,,,,,,,,,,,,,,,,,,,,,,,,,,,,,,,,,,,,,,,,,,,,,,,,,,,,,,,,,
945994,001,2022-11-21_01h50.10.083,Info_measure_main_exp,2022.2.2,Win32,60.86797736,,,,,,,,,,,,,0,2,2,1,1,masks/mask_002.jpg,,,,,,,,,,,,,,,,,,,,,,,,,,,,,,,,,,,,,,,,,,,,,,,,,,,,,,,,,,,,,,,,,,,,,,,,,,,,,,,,,,,,,,,,,,,,,
945994,001,2022-11-21_01h50.10.083,Info_measure_main_exp,2022.2.2,Win32,60.86797736,,,,,,,,,,,,,0,3,3,3,1,masks/mask_004.jpg,,,,,,,,,,,,,,,,,,,,,,,,,,,,,,,,,,,,,,,,,,,,,,,,,,,,,,,,,,,,,,,,,,,,,,,,,,,,,,,,,,,,,,,,,,,,,
945994,001,2022-11-21_01h50.10.083,Info_measure_main_exp,2022.2.2,Win32,60.86797736,,,,,,,,,,,,,0,4,4,0,1,masks/mask_001.jpg,,,,,,,,,,,,,,,,,,,,,,,,,,,,,,,,,,,,,,,,,,,,,,,,,,,,,,,,,,,,,,,,,,,,,,,,,,,,,,,,,,,,,,,,,,,,,
945994,001,2022-11-21_01h50.10.083,Info_measure_main_exp,2022.2.2,Win32,60.86797736,,,,,,,,,,,,,,,,,,masks/mask_001.jpg,0,0,0,0,1,,,,,,,,,,,,,,,,,,,,,,,,,,,,,,,,,,,,,,,,,,,,,,,,,,,,,,,,,,,,,,,,,,,,,,,,,,,,,,,,,,,,,,,,
945994,001,2022-11-21_01h50.10.083,Info_measure_main_exp,2022.2.2,Win32,60.86797736,,,,,,,,,,,,,,,,,,masks/mask_004.jpg,0,1,1,3,1,,,,,,,,,,,,,,,,,,,,,,,,,,,,,,,,,,,,,,,,,,,,,,,,,,,,,,,,,,,,,,,,,,,,,,,,,,,,,,,,,,,,,,,,
945994,001,2022-11-21_01h50.10.083,Info_measure_main_exp,2022.2.2,Win32,60.86797736,,,,,,,,,,,,,,,,,,masks/mask_005.jpg,0,2,2,4,1,,,,,,,,,,,,,,,,,,,,,,,,,,,,,,,,,,,,,,,,,,,,,,,,,,,,,,,,,,,,,,,,,,,,,,,,,,,,,,,,,,,,,,,,
945994,001,2022-11-21_01h50.10.083,Info_measure_main_exp,2022.2.2,Win32,60.86797736,,,,,,,,,,,,,,,,,,masks/mask_003.jpg,0,3,3,2,1,,,,,,,,,,,,,,,,,,,,,,,,,,,,,,,,,,,,,,,,,,,,,,,,,,,,,,,,,,,,,,,,,,,,,,,,,,,,,,,,,,,,,,,,
945994,001,2022-11-21_01h50.10.083,Info_measure_main_exp,2022.2.2,Win32,60.86797736,,,,,,,,,,,,,,,,,,masks/mask_002.jpg,0,4,4,1,1,,,,,,,,,,,,,,,,,,,,,,,,,,,,,,,,,,,,,,,,,,,,,,,,,,,,,,,,,,,,,,,,,,,,,,,,,,,,,,,,,,,,,,,,
945994,001,2022-11-21_01h50.10.083,Info_measure_main_exp,2022.2.2,Win32,60.86797736,,,,,,,,,,,,,,,,,,,,,,,,0.031111111,0.145555556,1,0,0,response1disk,7,100.9023,1,0.001111111,-0.002222222,1,0,0,center_square,0,0,0,0,1,0,131,5,5,2370,2406,prac_patch/patch0002370.jpg,prac_patch/patch0002406.jpg,,,,,,,,,,,,,,,,,,,,,,,,,,,,,,,,,,,,,,,,,,,,,,,,,,,,,,,,,,,,
945994,001,2022-11-21_01h50.10.083,Info_measure_main_exp,2022.2.2,Win32,60.86797736,,,,,,,,,,,,,0,0,0,4,1,masks/mask_005.jpg,,,,,,,,,,,,,,,,,,,,,,,,,,,,,,,,,,,,,,,,,,,,,,,,,,,,,,,,,,,,,,,,,,,,,,,,,,,,,,,,,,,,,,,,,,,,,
945994,001,2022-11-21_01h50.10.083,Info_measure_main_exp,2022.2.2,Win32,60.86797736,,,,,,,,,,,,,0,1,1,3,1,masks/mask_004.jpg,,,,,,,,,,,,,,,,,,,,,,,,,,,,,,,,,,,,,,,,,,,,,,,,,,,,,,,,,,,,,,,,,,,,,,,,,,,,,,,,,,,,,,,,,,,,,
945994,001,2022-11-21_01h50.10.083,Info_measure_main_exp,2022.2.2,Win32,60.86797736,,,,,,,,,,,,,0,2,2,1,1,masks/mask_002.jpg,,,,,,,,,,,,,,,,,,,,,,,,,,,,,,,,,,,,,,,,,,,,,,,,,,,,,,,,,,,,,,,,,,,,,,,,,,,,,,,,,,,,,,,,,,,,,
945994,001,2022-11-21_01h50.10.083,Info_measure_main_exp,2022.2.2,Win32,60.86797736,,,,,,,,,,,,,0,3,3,2,1,masks/mask_003.jpg,,,,,,,,,,,,,,,,,,,,,,,,,,,,,,,,,,,,,,,,,,,,,,,,,,,,,,,,,,,,,,,,,,,,,,,,,,,,,,,,,,,,,,,,,,,,,
945994,001,2022-11-21_01h50.10.083,Info_measure_main_exp,2022.2.2,Win32,60.86797736,,,,,,,,,,,,,0,4,4,0,1,masks/mask_001.jpg,,,,,,,,,,,,,,,,,,,,,,,,,,,,,,,,,,,,,,,,,,,,,,,,,,,,,,,,,,,,,,,,,,,,,,,,,,,,,,,,,,,,,,,,,,,,,
945994,001,2022-11-21_01h50.10.083,Info_measure_main_exp,2022.2.2,Win32,60.86797736,,,,,,,,,,,,,,,,,,masks/mask_004.jpg,0,0,0,3,1,,,,,,,,,,,,,,,,,,,,,,,,,,,,,,,,,,,,,,,,,,,,,,,,,,,,,,,,,,,,,,,,,,,,,,,,,,,,,,,,,,,,,,,,
945994,001,2022-11-21_01h50.10.083,Info_measure_main_exp,2022.2.2,Win32,60.86797736,,,,,,,,,,,,,,,,,,masks/mask_001.jpg,0,1,1,0,1,,,,,,,,,,,,,,,,,,,,,,,,,,,,,,,,,,,,,,,,,,,,,,,,,,,,,,,,,,,,,,,,,,,,,,,,,,,,,,,,,,,,,,,,
945994,001,2022-11-21_01h50.10.083,Info_measure_main_exp,2022.2.2,Win32,60.86797736,,,,,,,,,,,,,,,,,,masks/mask_002.jpg,0,2,2,1,1,,,,,,,,,,,,,,,,,,,,,,,,,,,,,,,,,,,,,,,,,,,,,,,,,,,,,,,,,,,,,,,,,,,,,,,,,,,,,,,,,,,,,,,,
945994,001,2022-11-21_01h50.10.083,Info_measure_main_exp,2022.2.2,Win32,60.86797736,,,,,,,,,,,,,,,,,,masks/mask_003.jpg,0,3,3,2,1,,,,,,,,,,,,,,,,,,,,,,,,,,,,,,,,,,,,,,,,,,,,,,,,,,,,,,,,,,,,,,,,,,,,,,,,,,,,,,,,,,,,,,,,
945994,001,2022-11-21_01h50.10.083,Info_measure_main_exp,2022.2.2,Win32,60.86797736,,,,,,,,,,,,,,,,,,masks/mask_005.jpg,0,4,4,4,1,,,,,,,,,,,,,,,,,,,,,,,,,,,,,,,,,,,,,,,,,,,,,,,,,,,,,,,,,,,,,,,,,,,,,,,,,,,,,,,,,,,,,,,,
945994,001,2022-11-21_01h50.10.083,Info_measure_main_exp,2022.2.2,Win32,60.86797736,,,,,,,,,,,,,,,,,,,,,,,,-0.035555556,0.108888889,1,0,0,response7disk,0,115.1024,1,-0.001111111,-0.003333333,1,0,0,center_square,0,1,1,2,1,0,131,5,5,2526,2526,prac_patch/patch0002526.jpg,prac_patch/patch0002526.jpg,,,,,,,,,,,,,,,,,,,,,,,,,,,,,,,,,,,,,,,,,,,,,,,,,,,,,,,,,,,,
945994,001,2022-11-21_01h50.10.083,Info_measure_main_exp,2022.2.2,Win32,60.86797736,,,,,,,,,,,,,0,0,0,0,1,masks/mask_001.jpg,,,,,,,,,,,,,,,,,,,,,,,,,,,,,,,,,,,,,,,,,,,,,,,,,,,,,,,,,,,,,,,,,,,,,,,,,,,,,,,,,,,,,,,,,,,,,
945994,001,2022-11-21_01h50.10.083,Info_measure_main_exp,2022.2.2,Win32,60.86797736,,,,,,,,,,,,,0,1,1,4,1,masks/mask_005.jpg,,,,,,,,,,,,,,,,,,,,,,,,,,,,,,,,,,,,,,,,,,,,,,,,,,,,,,,,,,,,,,,,,,,,,,,,,,,,,,,,,,,,,,,,,,,,,
945994,001,2022-11-21_01h50.10.083,Info_measure_main_exp,2022.2.2,Win32,60.86797736,,,,,,,,,,,,,0,2,2,1,1,masks/mask_002.jpg,,,,,,,,,,,,,,,,,,,,,,,,,,,,,,,,,,,,,,,,,,,,,,,,,,,,,,,,,,,,,,,,,,,,,,,,,,,,,,,,,,,,,,,,,,,,,
945994,001,2022-11-21_01h50.10.083,Info_measure_main_exp,2022.2.2,Win32,60.86797736,,,,,,,,,,,,,0,3,3,3,1,masks/mask_004.jpg,,,,,,,,,,,,,,,,,,,,,,,,,,,,,,,,,,,,,,,,,,,,,,,,,,,,,,,,,,,,,,,,,,,,,,,,,,,,,,,,,,,,,,,,,,,,,
945994,001,2022-11-21_01h50.10.083,Info_measure_main_exp,2022.2.2,Win32,60.86797736,,,,,,,,,,,,,0,4,4,2,1,masks/mask_003.jpg,,,,,,,,,,,,,,,,,,,,,,,,,,,,,,,,,,,,,,,,,,,,,,,,,,,,,,,,,,,,,,,,,,,,,,,,,,,,,,,,,,,,,,,,,,,,,
945994,001,2022-11-21_01h50.10.083,Info_measure_main_exp,2022.2.2,Win32,60.86797736,,,,,,,,,,,,,,,,,,masks/mask_004.jpg,0,0,0,3,1,,,,,,,,,,,,,,,,,,,,,,,,,,,,,,,,,,,,,,,,,,,,,,,,,,,,,,,,,,,,,,,,,,,,,,,,,,,,,,,,,,,,,,,,
945994,001,2022-11-21_01h50.10.083,Info_measure_main_exp,2022.2.2,Win32,60.86797736,,,,,,,,,,,,,,,,,,masks/mask_003.jpg,0,1,1,2,1,,,,,,,,,,,,,,,,,,,,,,,,,,,,,,,,,,,,,,,,,,,,,,,,,,,,,,,,,,,,,,,,,,,,,,,,,,,,,,,,,,,,,,,,
945994,001,2022-11-21_01h50.10.083,Info_measure_main_exp,2022.2.2,Win32,60.86797736,,,,,,,,,,,,,,,,,,masks/mask_001.jpg,0,2,2,0,1,,,,,,,,,,,,,,,,,,,,,,,,,,,,,,,,,,,,,,,,,,,,,,,,,,,,,,,,,,,,,,,,,,,,,,,,,,,,,,,,,,,,,,,,
945994,001,2022-11-21_01h50.10.083,Info_measure_main_exp,2022.2.2,Win32,60.86797736,,,,,,,,,,,,,,,,,,masks/mask_005.jpg,0,3,3,4,1,,,,,,,,,,,,,,,,,,,,,,,,,,,,,,,,,,,,,,,,,,,,,,,,,,,,,,,,,,,,,,,,,,,,,,,,,,,,,,,,,,,,,,,,
945994,001,2022-11-21_01h50.10.083,Info_measure_main_exp,2022.2.2,Win32,60.86797736,,,,,,,,,,,,,,,,,,masks/mask_002.jpg,0,4,4,1,1,,,,,,,,,,,,,,,,,,,,,,,,,,,,,,,,,,,,,,,,,,,,,,,,,,,,,,,,,,,,,,,,,,,,,,,,,,,,,,,,,,,,,,,,
945994,001,2022-11-21_01h50.10.083,Info_measure_main_exp,2022.2.2,Win32,60.86797736,,,,,,,,,,,,,,,,,,,,,,,,0.042222222,0.141111111,1,0,0,response1disk,7,124.9856,1,0.003333333,-0.005555556,1,0,0,center_square,0,2,2,1,1,0,131,5,5,2514,2490,prac_patch/patch0002514.jpg,prac_patch/patch0002490.jpg,,,,,,,,,,,,,,,,,,,,,,,,,,,,,,,,,,,,,,,,,,,,,,,,,,,,,,,,,,,,
945994,001,2022-11-21_01h50.10.083,Info_measure_main_exp,2022.2.2,Win32,60.86797736,,,,,,,,,,,,,,,,,,,,,,,,,,,,,,,,,,,,,,,,,,,,,,,,,,,,,,,,,,,space,3.311,,,,,,,,,,,,,,,,,,,,,,,,,,,,,,,,,,,,,,,,,,,,,,,,,,,
945994,001,2022-11-21_01h50.10.083,Info_measure_main_exp,2022.2.2,Win32,60.86797736,,,,,,,,,,,,,,,,,,masks/mask_005.jpg,,,,,,,,,,,,,,,,,,,,,,,,,,,,,,,,,,,,,,,,,,,0,0,0,4,1,,,,,,,,,,,,,,,,,,,,,,,,,,,,,,,,,,,,,,,,,,,,,,
945994,001,2022-11-21_01h50.10.083,Info_measure_main_exp,2022.2.2,Win32,60.86797736,,,,,,,,,,,,,,,,,,masks/mask_002.jpg,,,,,,,,,,,,,,,,,,,,,,,,,,,,,,,,,,,,,,,,,,,0,1,1,1,1,,,,,,,,,,,,,,,,,,,,,,,,,,,,,,,,,,,,,,,,,,,,,,
945994,001,2022-11-21_01h50.10.083,Info_measure_main_exp,2022.2.2,Win32,60.86797736,,,,,,,,,,,,,,,,,,masks/mask_001.jpg,,,,,,,,,,,,,,,,,,,,,,,,,,,,,,,,,,,,,,,,,,,0,2,2,0,1,,,,,,,,,,,,,,,,,,,,,,,,,,,,,,,,,,,,,,,,,,,,,,
945994,001,2022-11-21_01h50.10.083,Info_measure_main_exp,2022.2.2,Win32,60.86797736,,,,,,,,,,,,,,,,,,masks/mask_003.jpg,,,,,,,,,,,,,,,,,,,,,,,,,,,,,,,,,,,,,,,,,,,0,3,3,2,1,,,,,,,,,,,,,,,,,,,,,,,,,,,,,,,,,,,,,,,,,,,,,,
945994,001,2022-11-21_01h50.10.083,Info_measure_main_exp,2022.2.2,Win32,60.86797736,,,,,,,,,,,,,,,,,,masks/mask_004.jpg,,,,,,,,,,,,,,,,,,,,,,,,,,,,,,,,,,,,,,,,,,,0,4,4,3,1,,,,,,,,,,,,,,,,,,,,,,,,,,,,,,,,,,,,,,,,,,,,,,
945994,001,2022-11-21_01h50.10.083,Info_measure_main_exp,2022.2.2,Win32,60.86797736,,,,,,,,,,,,,,,,,,masks/mask_005.jpg,,,,,,,,,,,,,,,,,,,,,,,,,,,,,,,,,,,,,,,,,,,,,,,,0,0,0,4,1,,,,,,,,,,,,,,,,,,,,,,,,,,,,,,,,,,,,,,,,,
945994,001,2022-11-21_01h50.10.083,Info_measure_main_exp,2022.2.2,Win32,60.86797736,,,,,,,,,,,,,,,,,,masks/mask_004.jpg,,,,,,,,,,,,,,,,,,,,,,,,,,,,,,,,,,,,,,,,,,,,,,,,0,1,1,3,1,,,,,,,,,,,,,,,,,,,,,,,,,,,,,,,,,,,,,,,,,
945994,001,2022-11-21_01h50.10.083,Info_measure_main_exp,2022.2.2,Win32,60.86797736,,,,,,,,,,,,,,,,,,masks/mask_002.jpg,,,,,,,,,,,,,,,,,,,,,,,,,,,,,,,,,,,,,,,,,,,,,,,,0,2,2,1,1,,,,,,,,,,,,,,,,,,,,,,,,,,,,,,,,,,,,,,,,,
945994,001,2022-11-21_01h50.10.083,Info_measure_main_exp,2022.2.2,Win32,60.86797736,,,,,,,,,,,,,,,,,,masks/mask_001.jpg,,,,,,,,,,,,,,,,,,,,,,,,,,,,,,,,,,,,,,,,,,,,,,,,0,3,3,0,1,,,,,,,,,,,,,,,,,,,,,,,,,,,,,,,,,,,,,,,,,
945994,001,2022-11-21_01h50.10.083,Info_measure_main_exp,2022.2.2,Win32,60.86797736,,,,,,,,,,,,,,,,,,masks/mask_003.jpg,,,,,,,,,,,,,,,,,,,,,,,,,,,,,,,,,,,,,,,,,,,,,,,,0,4,4,2,1,,,,,,,,,,,,,,,,,,,,,,,,,,,,,,,,,,,,,,,,,
945994,001,2022-11-21_01h50.10.083,Info_measure_main_exp,2022.2.2,Win32,60.86797736,,,,,,,,,,,,,,,,,,,,,,,,,,,,,,7,1.6004,1,,,,,,,,,,,,0,131,5,5,2298,2178,absent_patch/patch0002298.jpg,absent_patch/patch0002178.jpg,,,,,,,,,,,,,,,,,,,,0.067777778,0.144444444,1,0,0,response1disk,1,0.002222222,-0.003333333,1,0,0,center_square,0,0,0,84,1,,,,,,,,,,,,,,,,,,,,,,,
945994,001,2022-11-21_01h50.10.083,Info_measure_main_exp,2022.2.2,Win32,60.86797736,,,,,,,,,,,,,,,,,,masks/mask_004.jpg,,,,,,,,,,,,,,,,,,,,,,,,,,,,,,,,,,,,,,,,,,,0,0,0,3,1,,,,,,,,,,,,,,,,,,,,,,,,,,,,,,,,,,,,,,,,,,,,,,
945994,001,2022-11-21_01h50.10.083,Info_measure_main_exp,2022.2.2,Win32,60.86797736,,,,,,,,,,,,,,,,,,masks/mask_002.jpg,,,,,,,,,,,,,,,,,,,,,,,,,,,,,,,,,,,,,,,,,,,0,1,1,1,1,,,,,,,,,,,,,,,,,,,,,,,,,,,,,,,,,,,,,,,,,,,,,,
945994,001,2022-11-21_01h50.10.083,Info_measure_main_exp,2022.2.2,Win32,60.86797736,,,,,,,,,,,,,,,,,,masks/mask_005.jpg,,,,,,,,,,,,,,,,,,,,,,,,,,,,,,,,,,,,,,,,,,,0,2,2,4,1,,,,,,,,,,,,,,,,,,,,,,,,,,,,,,,,,,,,,,,,,,,,,,
945994,001,2022-11-21_01h50.10.083,Info_measure_main_exp,2022.2.2,Win32,60.86797736,,,,,,,,,,,,,,,,,,masks/mask_003.jpg,,,,,,,,,,,,,,,,,,,,,,,,,,,,,,,,,,,,,,,,,,,0,3,3,2,1,,,,,,,,,,,,,,,,,,,,,,,,,,,,,,,,,,,,,,,,,,,,,,
945994,001,2022-11-21_01h50.10.083,Info_measure_main_exp,2022.2.2,Win32,60.86797736,,,,,,,,,,,,,,,,,,masks/mask_001.jpg,,,,,,,,,,,,,,,,,,,,,,,,,,,,,,,,,,,,,,,,,,,0,4,4,0,1,,,,,,,,,,,,,,,,,,,,,,,,,,,,,,,,,,,,,,,,,,,,,,
945994,001,2022-11-21_01h50.10.083,Info_measure_main_exp,2022.2.2,Win32,60.86797736,,,,,,,,,,,,,,,,,,masks/mask_005.jpg,,,,,,,,,,,,,,,,,,,,,,,,,,,,,,,,,,,,,,,,,,,,,,,,0,0,0,4,1,,,,,,,,,,,,,,,,,,,,,,,,,,,,,,,,,,,,,,,,,
945994,001,2022-11-21_01h50.10.083,Info_measure_main_exp,2022.2.2,Win32,60.86797736,,,,,,,,,,,,,,,,,,masks/mask_002.jpg,,,,,,,,,,,,,,,,,,,,,,,,,,,,,,,,,,,,,,,,,,,,,,,,0,1,1,1,1,,,,,,,,,,,,,,,,,,,,,,,,,,,,,,,,,,,,,,,,,
945994,001,2022-11-21_01h50.10.083,Info_measure_main_exp,2022.2.2,Win32,60.86797736,,,,,,,,,,,,,,,,,,masks/mask_003.jpg,,,,,,,,,,,,,,,,,,,,,,,,,,,,,,,,,,,,,,,,,,,,,,,,0,2,2,2,1,,,,,,,,,,,,,,,,,,,,,,,,,,,,,,,,,,,,,,,,,
945994,001,2022-11-21_01h50.10.083,Info_measure_main_exp,2022.2.2,Win32,60.86797736,,,,,,,,,,,,,,,,,,masks/mask_004.jpg,,,,,,,,,,,,,,,,,,,,,,,,,,,,,,,,,,,,,,,,,,,,,,,,0,3,3,3,1,,,,,,,,,,,,,,,,,,,,,,,,,,,,,,,,,,,,,,,,,
945994,001,2022-11-21_01h50.10.083,Info_measure_main_exp,2022.2.2,Win32,60.86797736,,,,,,,,,,,,,,,,,,masks/mask_001.jpg,,,,,,,,,,,,,,,,,,,,,,,,,,,,,,,,,,,,,,,,,,,,,,,,0,4,4,0,1,,,,,,,,,,,,,,,,,,,,,,,,,,,,,,,,,,,,,,,,,
945994,001,2022-11-21_01h50.10.083,Info_measure_main_exp,2022.2.2,Win32,60.86797736,,,,,,,,,,,,,,,,,,,,,,,,,,,,,,7,1.1838,1,,,,,,,,,,,,0,131,5,5,1974,2214,absent_patch/patch0001974.jpg,absent_patch/patch0002214.jpg,,,,,,,,,,,,,,,,,,,,0.041111111,0.107777778,1,0,0,response1disk,2,-0.001111111,0.002222222,1,0,0,center_square,0,1,1,24,1,,,,,,,,,,,,,,,,,,,,,,,
945994,001,2022-11-21_01h50.10.083,Info_measure_main_exp,2022.2.2,Win32,60.86797736,,,,,,,,,,,,,,,,,,masks/mask_001.jpg,,,,,,,,,,,,,,,,,,,,,,,,,,,,,,,,,,,,,,,,,,,0,0,0,0,1,,,,,,,,,,,,,,,,,,,,,,,,,,,,,,,,,,,,,,,,,,,,,,
945994,001,2022-11-21_01h50.10.083,Info_measure_main_exp,2022.2.2,Win32,60.86797736,,,,,,,,,,,,,,,,,,masks/mask_004.jpg,,,,,,,,,,,,,,,,,,,,,,,,,,,,,,,,,,,,,,,,,,,0,1,1,3,1,,,,,,,,,,,,,,,,,,,,,,,,,,,,,,,,,,,,,,,,,,,,,,
945994,001,2022-11-21_01h50.10.083,Info_measure_main_exp,2022.2.2,Win32,60.86797736,,,,,,,,,,,,,,,,,,masks/mask_002.jpg,,,,,,,,,,,,,,,,,,,,,,,,,,,,,,,,,,,,,,,,,,,0,2,2,1,1,,,,,,,,,,,,,,,,,,,,,,,,,,,,,,,,,,,,,,,,,,,,,,
945994,001,2022-11-21_01h50.10.083,Info_measure_main_exp,2022.2.2,Win32,60.86797736,,,,,,,,,,,,,,,,,,masks/mask_005.jpg,,,,,,,,,,,,,,,,,,,,,,,,,,,,,,,,,,,,,,,,,,,0,3,3,4,1,,,,,,,,,,,,,,,,,,,,,,,,,,,,,,,,,,,,,,,,,,,,,,
945994,001,2022-11-21_01h50.10.083,Info_measure_main_exp,2022.2.2,Win32,60.86797736,,,,,,,,,,,,,,,,,,masks/mask_003.jpg,,,,,,,,,,,,,,,,,,,,,,,,,,,,,,,,,,,,,,,,,,,0,4,4,2,1,,,,,,,,,,,,,,,,,,,,,,,,,,,,,,,,,,,,,,,,,,,,,,
945994,001,2022-11-21_01h50.10.083,Info_measure_main_exp,2022.2.2,Win32,60.86797736,,,,,,,,,,,,,,,,,,masks/mask_003.jpg,,,,,,,,,,,,,,,,,,,,,,,,,,,,,,,,,,,,,,,,,,,,,,,,0,0,0,2,1,,,,,,,,,,,,,,,,,,,,,,,,,,,,,,,,,,,,,,,,,
945994,001,2022-11-21_01h50.10.083,Info_measure_main_exp,2022.2.2,Win32,60.86797736,,,,,,,,,,,,,,,,,,masks/mask_004.jpg,,,,,,,,,,,,,,,,,,,,,,,,,,,,,,,,,,,,,,,,,,,,,,,,0,1,1,3,1,,,,,,,,,,,,,,,,,,,,,,,,,,,,,,,,,,,,,,,,,
945994,001,2022-11-21_01h50.10.083,Info_measure_main_exp,2022.2.2,Win32,60.86797736,,,,,,,,,,,,,,,,,,masks/mask_002.jpg,,,,,,,,,,,,,,,,,,,,,,,,,,,,,,,,,,,,,,,,,,,,,,,,0,2,2,1,1,,,,,,,,,,,,,,,,,,,,,,,,,,,,,,,,,,,,,,,,,
945994,001,2022-11-21_01h50.10.083,Info_measure_main_exp,2022.2.2,Win32,60.86797736,,,,,,,,,,,,,,,,,,masks/mask_005.jpg,,,,,,,,,,,,,,,,,,,,,,,,,,,,,,,,,,,,,,,,,,,,,,,,0,3,3,4,1,,,,,,,,,,,,,,,,,,,,,,,,,,,,,,,,,,,,,,,,,
945994,001,2022-11-21_01h50.10.083,Info_measure_main_exp,2022.2.2,Win32,60.86797736,,,,,,,,,,,,,,,,,,masks/mask_001.jpg,,,,,,,,,,,,,,,,,,,,,,,,,,,,,,,,,,,,,,,,,,,,,,,,0,4,4,0,1,,,,,,,,,,,,,,,,,,,,,,,,,,,,,,,,,,,,,,,,,
945994,001,2022-11-21_01h50.10.083,Info_measure_main_exp,2022.2.2,Win32,60.86797736,,,,,,,,,,,,,,,,,,,,,,,,,,,,,,7,1.3002,1,,,,,,,,,,,,0,131,5,5,2142,2190,absent_patch/patch0002142.jpg,absent_patch/patch0002190.jpg,,,,,,,,,,,,,,,,,,,,0.037777778,0.097777778,1,0,0,response1disk,3,-0.001111111,-0.001111111,1,0,0,center_square,0,2,2,70,1,,,,,,,,,,,,,,,,,,,,,,,
945994,001,2022-11-21_01h50.10.083,Info_measure_main_exp,2022.2.2,Win32,60.86797736,,,,,,,,,,,,,,,,,,masks/mask_002.jpg,,,,,,,,,,,,,,,,,,,,,,,,,,,,,,,,,,,,,,,,,,,0,0,0,1,1,,,,,,,,,,,,,,,,,,,,,,,,,,,,,,,,,,,,,,,,,,,,,,
945994,001,2022-11-21_01h50.10.083,Info_measure_main_exp,2022.2.2,Win32,60.86797736,,,,,,,,,,,,,,,,,,masks/mask_001.jpg,,,,,,,,,,,,,,,,,,,,,,,,,,,,,,,,,,,,,,,,,,,0,1,1,0,1,,,,,,,,,,,,,,,,,,,,,,,,,,,,,,,,,,,,,,,,,,,,,,
945994,001,2022-11-21_01h50.10.083,Info_measure_main_exp,2022.2.2,Win32,60.86797736,,,,,,,,,,,,,,,,,,masks/mask_005.jpg,,,,,,,,,,,,,,,,,,,,,,,,,,,,,,,,,,,,,,,,,,,0,2,2,4,1,,,,,,,,,,,,,,,,,,,,,,,,,,,,,,,,,,,,,,,,,,,,,,
945994,001,2022-11-21_01h50.10.083,Info_measure_main_exp,2022.2.2,Win32,60.86797736,,,,,,,,,,,,,,,,,,masks/mask_003.jpg,,,,,,,,,,,,,,,,,,,,,,,,,,,,,,,,,,,,,,,,,,,0,3,3,2,1,,,,,,,,,,,,,,,,,,,,,,,,,,,,,,,,,,,,,,,,,,,,,,
945994,001,2022-11-21_01h50.10.083,Info_measure_main_exp,2022.2.2,Win32,60.86797736,,,,,,,,,,,,,,,,,,masks/mask_004.jpg,,,,,,,,,,,,,,,,,,,,,,,,,,,,,,,,,,,,,,,,,,,0,4,4,3,1,,,,,,,,,,,,,,,,,,,,,,,,,,,,,,,,,,,,,,,,,,,,,,
945994,001,2022-11-21_01h50.10.083,Info_measure_main_exp,2022.2.2,Win32,60.86797736,,,,,,,,,,,,,,,,,,masks/mask_005.jpg,,,,,,,,,,,,,,,,,,,,,,,,,,,,,,,,,,,,,,,,,,,,,,,,0,0,0,4,1,,,,,,,,,,,,,,,,,,,,,,,,,,,,,,,,,,,,,,,,,
945994,001,2022-11-21_01h50.10.083,Info_measure_main_exp,2022.2.2,Win32,60.86797736,,,,,,,,,,,,,,,,,,masks/mask_001.jpg,,,,,,,,,,,,,,,,,,,,,,,,,,,,,,,,,,,,,,,,,,,,,,,,0,1,1,0,1,,,,,,,,,,,,,,,,,,,,,,,,,,,,,,,,,,,,,,,,,
945994,001,2022-11-21_01h50.10.083,Info_measure_main_exp,2022.2.2,Win32,60.86797736,,,,,,,,,,,,,,,,,,masks/mask_003.jpg,,,,,,,,,,,,,,,,,,,,,,,,,,,,,,,,,,,,,,,,,,,,,,,,0,2,2,2,1,,,,,,,,,,,,,,,,,,,,,,,,,,,,,,,,,,,,,,,,,
945994,001,2022-11-21_01h50.10.083,Info_measure_main_exp,2022.2.2,Win32,60.86797736,,,,,,,,,,,,,,,,,,masks/mask_004.jpg,,,,,,,,,,,,,,,,,,,,,,,,,,,,,,,,,,,,,,,,,,,,,,,,0,3,3,3,1,,,,,,,,,,,,,,,,,,,,,,,,,,,,,,,,,,,,,,,,,
945994,001,2022-11-21_01h50.10.083,Info_measure_main_exp,2022.2.2,Win32,60.86797736,,,,,,,,,,,,,,,,,,masks/mask_002.jpg,,,,,,,,,,,,,,,,,,,,,,,,,,,,,,,,,,,,,,,,,,,,,,,,0,4,4,1,1,,,,,,,,,,,,,,,,,,,,,,,,,,,,,,,,,,,,,,,,,
945994,001,2022-11-21_01h50.10.083,Info_measure_main_exp,2022.2.2,Win32,60.86797736,,,,,,,,,,,,,,,,,,,,,,,,,,,,,,7,0.7719,1,,,,,,,,,,,,0,131,5,5,2250,2214,absent_patch/patch0002250.jpg,absent_patch/patch0002214.jpg,,,,,,,,,,,,,,,,,,,,0.034444444,0.1,1,0,0,response1disk,4,0.004444444,0.001111111,1,0,0,center_square,0,3,3,97,1,,,,,,,,,,,,,,,,,,,,,,,
945994,001,2022-11-21_01h50.10.083,Info_measure_main_exp,2022.2.2,Win32,60.86797736,,,,,,,,,,,,,,,,,,masks/mask_005.jpg,,,,,,,,,,,,,,,,,,,,,,,,,,,,,,,,,,,,,,,,,,,0,0,0,4,1,,,,,,,,,,,,,,,,,,,,,,,,,,,,,,,,,,,,,,,,,,,,,,
945994,001,2022-11-21_01h50.10.083,Info_measure_main_exp,2022.2.2,Win32,60.86797736,,,,,,,,,,,,,,,,,,masks/mask_004.jpg,,,,,,,,,,,,,,,,,,,,,,,,,,,,,,,,,,,,,,,,,,,0,1,1,3,1,,,,,,,,,,,,,,,,,,,,,,,,,,,,,,,,,,,,,,,,,,,,,,
945994,001,2022-11-21_01h50.10.083,Info_measure_main_exp,2022.2.2,Win32,60.86797736,,,,,,,,,,,,,,,,,,masks/mask_002.jpg,,,,,,,,,,,,,,,,,,,,,,,,,,,,,,,,,,,,,,,,,,,0,2,2,1,1,,,,,,,,,,,,,,,,,,,,,,,,,,,,,,,,,,,,,,,,,,,,,,
945994,001,2022-11-21_01h50.10.083,Info_measure_main_exp,2022.2.2,Win32,60.86797736,,,,,,,,,,,,,,,,,,masks/mask_003.jpg,,,,,,,,,,,,,,,,,,,,,,,,,,,,,,,,,,,,,,,,,,,0,3,3,2,1,,,,,,,,,,,,,,,,,,,,,,,,,,,,,,,,,,,,,,,,,,,,,,
945994,001,2022-11-21_01h50.10.083,Info_measure_main_exp,2022.2.2,Win32,60.86797736,,,,,,,,,,,,,,,,,,masks/mask_001.jpg,,,,,,,,,,,,,,,,,,,,,,,,,,,,,,,,,,,,,,,,,,,0,4,4,0,1,,,,,,,,,,,,,,,,,,,,,,,,,,,,,,,,,,,,,,,,,,,,,,
945994,001,2022-11-21_01h50.10.083,Info_measure_main_exp,2022.2.2,Win32,60.86797736,,,,,,,,,,,,,,,,,,masks/mask_005.jpg,,,,,,,,,,,,,,,,,,,,,,,,,,,,,,,,,,,,,,,,,,,,,,,,0,0,0,4,1,,,,,,,,,,,,,,,,,,,,,,,,,,,,,,,,,,,,,,,,,
945994,001,2022-11-21_01h50.10.083,Info_measure_main_exp,2022.2.2,Win32,60.86797736,,,,,,,,,,,,,,,,,,masks/mask_003.jpg,,,,,,,,,,,,,,,,,,,,,,,,,,,,,,,,,,,,,,,,,,,,,,,,0,1,1,2,1,,,,,,,,,,,,,,,,,,,,,,,,,,,,,,,,,,,,,,,,,
945994,001,2022-11-21_01h50.10.083,Info_measure_main_exp,2022.2.2,Win32,60.86797736,,,,,,,,,,,,,,,,,,masks/mask_001.jpg,,,,,,,,,,,,,,,,,,,,,,,,,,,,,,,,,,,,,,,,,,,,,,,,0,2,2,0,1,,,,,,,,,,,,,,,,,,,,,,,,,,,,,,,,,,,,,,,,,
945994,001,2022-11-21_01h50.10.083,Info_measure_main_exp,2022.2.2,Win32,60.86797736,,,,,,,,,,,,,,,,,,masks/mask_004.jpg,,,,,,,,,,,,,,,,,,,,,,,,,,,,,,,,,,,,,,,,,,,,,,,,0,3,3,3,1,,,,,,,,,,,,,,,,,,,,,,,,,,,,,,,,,,,,,,,,,
945994,001,2022-11-21_01h50.10.083,Info_measure_main_exp,2022.2.2,Win32,60.86797736,,,,,,,,,,,,,,,,,,masks/mask_002.jpg,,,,,,,,,,,,,,,,,,,,,,,,,,,,,,,,,,,,,,,,,,,,,,,,0,4,4,1,1,,,,,,,,,,,,,,,,,,,,,,,,,,,,,,,,,,,,,,,,,
945994,001,2022-11-21_01h50.10.083,Info_measure_main_exp,2022.2.2,Win32,60.86797736,,,,,,,,,,,,,,,,,,,,,,,,,,,,,,7,0.5519,1,,,,,,,,,,,,0,131,5,5,2190,2166,absent_patch/patch0002190.jpg,absent_patch/patch0002166.jpg,,,,,,,,,,,,,,,,,,,,0.043333333,0.087777778,1,0,0,response1disk,5,-0.002222222,-0.001111111,1,0,0,center_square,0,4,4,50,1,,,,,,,,,,,,,,,,,,,,,,,
945994,001,2022-11-21_01h50.10.083,Info_measure_main_exp,2022.2.2,Win32,60.86797736,,,,,,,,,,,,,,,,,,masks/mask_001.jpg,,,,,,,,,,,,,,,,,,,,,,,,,,,,,,,,,,,,,,,,,,,0,0,0,0,1,,,,,,,,,,,,,,,,,,,,,,,,,,,,,,,,,,,,,,,,,,,,,,
945994,001,2022-11-21_01h50.10.083,Info_measure_main_exp,2022.2.2,Win32,60.86797736,,,,,,,,,,,,,,,,,,masks/mask_004.jpg,,,,,,,,,,,,,,,,,,,,,,,,,,,,,,,,,,,,,,,,,,,0,1,1,3,1,,,,,,,,,,,,,,,,,,,,,,,,,,,,,,,,,,,,,,,,,,,,,,
945994,001,2022-11-21_01h50.10.083,Info_measure_main_exp,2022.2.2,Win32,60.86797736,,,,,,,,,,,,,,,,,,masks/mask_005.jpg,,,,,,,,,,,,,,,,,,,,,,,,,,,,,,,,,,,,,,,,,,,0,2,2,4,1,,,,,,,,,,,,,,,,,,,,,,,,,,,,,,,,,,,,,,,,,,,,,,
945994,001,2022-11-21_01h50.10.083,Info_measure_main_exp,2022.2.2,Win32,60.86797736,,,,,,,,,,,,,,,,,,masks/mask_003.jpg,,,,,,,,,,,,,,,,,,,,,,,,,,,,,,,,,,,,,,,,,,,0,3,3,2,1,,,,,,,,,,,,,,,,,,,,,,,,,,,,,,,,,,,,,,,,,,,,,,
945994,001,2022-11-21_01h50.10.083,Info_measure_main_exp,2022.2.2,Win32,60.86797736,,,,,,,,,,,,,,,,,,masks/mask_002.jpg,,,,,,,,,,,,,,,,,,,,,,,,,,,,,,,,,,,,,,,,,,,0,4,4,1,1,,,,,,,,,,,,,,,,,,,,,,,,,,,,,,,,,,,,,,,,,,,,,,
945994,001,2022-11-21_01h50.10.083,Info_measure_main_exp,2022.2.2,Win32,60.86797736,,,,,,,,,,,,,,,,,,masks/mask_002.jpg,,,,,,,,,,,,,,,,,,,,,,,,,,,,,,,,,,,,,,,,,,,,,,,,0,0,0,1,1,,,,,,,,,,,,,,,,,,,,,,,,,,,,,,,,,,,,,,,,,
945994,001,2022-11-21_01h50.10.083,Info_measure_main_exp,2022.2.2,Win32,60.86797736,,,,,,,,,,,,,,,,,,masks/mask_005.jpg,,,,,,,,,,,,,,,,,,,,,,,,,,,,,,,,,,,,,,,,,,,,,,,,0,1,1,4,1,,,,,,,,,,,,,,,,,,,,,,,,,,,,,,,,,,,,,,,,,
945994,001,2022-11-21_01h50.10.083,Info_measure_main_exp,2022.2.2,Win32,60.86797736,,,,,,,,,,,,,,,,,,masks/mask_001.jpg,,,,,,,,,,,,,,,,,,,,,,,,,,,,,,,,,,,,,,,,,,,,,,,,0,2,2,0,1,,,,,,,,,,,,,,,,,,,,,,,,,,,,,,,,,,,,,,,,,
945994,001,2022-11-21_01h50.10.083,Info_measure_main_exp,2022.2.2,Win32,60.86797736,,,,,,,,,,,,,,,,,,masks/mask_004.jpg,,,,,,,,,,,,,,,,,,,,,,,,,,,,,,,,,,,,,,,,,,,,,,,,0,3,3,3,1,,,,,,,,,,,,,,,,,,,,,,,,,,,,,,,,,,,,,,,,,
945994,001,2022-11-21_01h50.10.083,Info_measure_main_exp,2022.2.2,Win32,60.86797736,,,,,,,,,,,,,,,,,,masks/mask_003.jpg,,,,,,,,,,,,,,,,,,,,,,,,,,,,,,,,,,,,,,,,,,,,,,,,0,4,4,2,1,,,,,,,,,,,,,,,,,,,,,,,,,,,,,,,,,,,,,,,,,
945994,001,2022-11-21_01h50.10.083,Info_measure_main_exp,2022.2.2,Win32,60.86797736,,,,,,,,,,,,,,,,,,,,,,,,,,,,,,0,0.6498,1,,,,,,,,,,,,0,131,5,5,2190,2190,absent_patch/patch0002190.jpg,absent_patch/patch0002190.jpg,,,,,,,,,,,,,,,,,,,,-0.021111111,0.086666667,1,0,0,response7disk,6,-0.006666667,-0.003333333,1,0,0,center_square,0,5,5,86,1,,,,,,,,,,,,,,,,,,,,,,,
945994,001,2022-11-21_01h50.10.083,Info_measure_main_exp,2022.2.2,Win32,60.86797736,,,,,,,,,,,,,,,,,,masks/mask_002.jpg,,,,,,,,,,,,,,,,,,,,,,,,,,,,,,,,,,,,,,,,,,,0,0,0,1,1,,,,,,,,,,,,,,,,,,,,,,,,,,,,,,,,,,,,,,,,,,,,,,
945994,001,2022-11-21_01h50.10.083,Info_measure_main_exp,2022.2.2,Win32,60.86797736,,,,,,,,,,,,,,,,,,masks/mask_005.jpg,,,,,,,,,,,,,,,,,,,,,,,,,,,,,,,,,,,,,,,,,,,0,1,1,4,1,,,,,,,,,,,,,,,,,,,,,,,,,,,,,,,,,,,,,,,,,,,,,,
945994,001,2022-11-21_01h50.10.083,Info_measure_main_exp,2022.2.2,Win32,60.86797736,,,,,,,,,,,,,,,,,,masks/mask_001.jpg,,,,,,,,,,,,,,,,,,,,,,,,,,,,,,,,,,,,,,,,,,,0,2,2,0,1,,,,,,,,,,,,,,,,,,,,,,,,,,,,,,,,,,,,,,,,,,,,,,
945994,001,2022-11-21_01h50.10.083,Info_measure_main_exp,2022.2.2,Win32,60.86797736,,,,,,,,,,,,,,,,,,masks/mask_003.jpg,,,,,,,,,,,,,,,,,,,,,,,,,,,,,,,,,,,,,,,,,,,0,3,3,2,1,,,,,,,,,,,,,,,,,,,,,,,,,,,,,,,,,,,,,,,,,,,,,,
945994,001,2022-11-21_01h50.10.083,Info_measure_main_exp,2022.2.2,Win32,60.86797736,,,,,,,,,,,,,,,,,,masks/mask_004.jpg,,,,,,,,,,,,,,,,,,,,,,,,,,,,,,,,,,,,,,,,,,,0,4,4,3,1,,,,,,,,,,,,,,,,,,,,,,,,,,,,,,,,,,,,,,,,,,,,,,
945994,001,2022-11-21_01h50.10.083,Info_measure_main_exp,2022.2.2,Win32,60.86797736,,,,,,,,,,,,,,,,,,masks/mask_005.jpg,,,,,,,,,,,,,,,,,,,,,,,,,,,,,,,,,,,,,,,,,,,,,,,,0,0,0,4,1,,,,,,,,,,,,,,,,,,,,,,,,,,,,,,,,,,,,,,,,,
945994,001,2022-11-21_01h50.10.083,Info_measure_main_exp,2022.2.2,Win32,60.86797736,,,,,,,,,,,,,,,,,,masks/mask_004.jpg,,,,,,,,,,,,,,,,,,,,,,,,,,,,,,,,,,,,,,,,,,,,,,,,0,1,1,3,1,,,,,,,,,,,,,,,,,,,,,,,,,,,,,,,,,,,,,,,,,
945994,001,2022-11-21_01h50.10.083,Info_measure_main_exp,2022.2.2,Win32,60.86797736,,,,,,,,,,,,,,,,,,masks/mask_003.jpg,,,,,,,,,,,,,,,,,,,,,,,,,,,,,,,,,,,,,,,,,,,,,,,,0,2,2,2,1,,,,,,,,,,,,,,,,,,,,,,,,,,,,,,,,,,,,,,,,,
945994,001,2022-11-21_01h50.10.083,Info_measure_main_exp,2022.2.2,Win32,60.86797736,,,,,,,,,,,,,,,,,,masks/mask_001.jpg,,,,,,,,,,,,,,,,,,,,,,,,,,,,,,,,,,,,,,,,,,,,,,,,0,3,3,0,1,,,,,,,,,,,,,,,,,,,,,,,,,,,,,,,,,,,,,,,,,
945994,001,2022-11-21_01h50.10.083,Info_measure_main_exp,2022.2.2,Win32,60.86797736,,,,,,,,,,,,,,,,,,masks/mask_002.jpg,,,,,,,,,,,,,,,,,,,,,,,,,,,,,,,,,,,,,,,,,,,,,,,,0,4,4,1,1,,,,,,,,,,,,,,,,,,,,,,,,,,,,,,,,,,,,,,,,,
945994,001,2022-11-21_01h50.10.083,Info_measure_main_exp,2022.2.2,Win32,60.86797736,,,,,,,,,,,,,,,,,,,,,,,,,,,,,,6,4.3834,1,,,,,,,,,,,,0,131,5,5,1950,2178,absent_patch/patch0001950.jpg,absent_patch/patch0002178.jpg,,,,,,,,,,,,,,,,,,,,0.145555556,0.041111111,1,0,0,response1disk,7,0,-0.001111111,1,0,0,center_square,0,6,6,61,1,,,,,,,,,,,,,,,,,,,,,,,
945994,001,2022-11-21_01h50.10.083,Info_measure_main_exp,2022.2.2,Win32,60.86797736,,,,,,,,,,,,,,,,,,masks/mask_001.jpg,,,,,,,,,,,,,,,,,,,,,,,,,,,,,,,,,,,,,,,,,,,0,0,0,0,1,,,,,,,,,,,,,,,,,,,,,,,,,,,,,,,,,,,,,,,,,,,,,,
945994,001,2022-11-21_01h50.10.083,Info_measure_main_exp,2022.2.2,Win32,60.86797736,,,,,,,,,,,,,,,,,,masks/mask_005.jpg,,,,,,,,,,,,,,,,,,,,,,,,,,,,,,,,,,,,,,,,,,,0,1,1,4,1,,,,,,,,,,,,,,,,,,,,,,,,,,,,,,,,,,,,,,,,,,,,,,
945994,001,2022-11-21_01h50.10.083,Info_measure_main_exp,2022.2.2,Win32,60.86797736,,,,,,,,,,,,,,,,,,masks/mask_002.jpg,,,,,,,,,,,,,,,,,,,,,,,,,,,,,,,,,,,,,,,,,,,0,2,2,1,1,,,,,,,,,,,,,,,,,,,,,,,,,,,,,,,,,,,,,,,,,,,,,,
945994,001,2022-11-21_01h50.10.083,Info_measure_main_exp,2022.2.2,Win32,60.86797736,,,,,,,,,,,,,,,,,,masks/mask_004.jpg,,,,,,,,,,,,,,,,,,,,,,,,,,,,,,,,,,,,,,,,,,,0,3,3,3,1,,,,,,,,,,,,,,,,,,,,,,,,,,,,,,,,,,,,,,,,,,,,,,
945994,001,2022-11-21_01h50.10.083,Info_measure_main_exp,2022.2.2,Win32,60.86797736,,,,,,,,,,,,,,,,,,masks/mask_003.jpg,,,,,,,,,,,,,,,,,,,,,,,,,,,,,,,,,,,,,,,,,,,0,4,4,2,1,,,,,,,,,,,,,,,,,,,,,,,,,,,,,,,,,,,,,,,,,,,,,,
945994,001,2022-11-21_01h50.10.083,Info_measure_main_exp,2022.2.2,Win32,60.86797736,,,,,,,,,,,,,,,,,,masks/mask_002.jpg,,,,,,,,,,,,,,,,,,,,,,,,,,,,,,,,,,,,,,,,,,,,,,,,0,0,0,1,1,,,,,,,,,,,,,,,,,,,,,,,,,,,,,,,,,,,,,,,,,
945994,001,2022-11-21_01h50.10.083,Info_measure_main_exp,2022.2.2,Win32,60.86797736,,,,,,,,,,,,,,,,,,masks/mask_003.jpg,,,,,,,,,,,,,,,,,,,,,,,,,,,,,,,,,,,,,,,,,,,,,,,,0,1,1,2,1,,,,,,,,,,,,,,,,,,,,,,,,,,,,,,,,,,,,,,,,,
945994,001,2022-11-21_01h50.10.083,Info_measure_main_exp,2022.2.2,Win32,60.86797736,,,,,,,,,,,,,,,,,,masks/mask_004.jpg,,,,,,,,,,,,,,,,,,,,,,,,,,,,,,,,,,,,,,,,,,,,,,,,0,2,2,3,1,,,,,,,,,,,,,,,,,,,,,,,,,,,,,,,,,,,,,,,,,
945994,001,2022-11-21_01h50.10.083,Info_measure_main_exp,2022.2.2,Win32,60.86797736,,,,,,,,,,,,,,,,,,masks/mask_001.jpg,,,,,,,,,,,,,,,,,,,,,,,,,,,,,,,,,,,,,,,,,,,,,,,,0,3,3,0,1,,,,,,,,,,,,,,,,,,,,,,,,,,,,,,,,,,,,,,,,,
945994,001,2022-11-21_01h50.10.083,Info_measure_main_exp,2022.2.2,Win32,60.86797736,,,,,,,,,,,,,,,,,,masks/mask_005.jpg,,,,,,,,,,,,,,,,,,,,,,,,,,,,,,,,,,,,,,,,,,,,,,,,0,4,4,4,1,,,,,,,,,,,,,,,,,,,,,,,,,,,,,,,,,,,,,,,,,
945994,001,2022-11-21_01h50.10.083,Info_measure_main_exp,2022.2.2,Win32,60.86797736,,,,,,,,,,,,,,,,,,,,,,,,,,,,,,7,0.5315,1,,,,,,,,,,,,0,131,5,5,1974,2238,absent_patch/patch0001974.jpg,absent_patch/patch0002238.jpg,,,,,,,,,,,,,,,,,,,,0.045555556,0.104444444,1,0,0,response1disk,8,0.002222222,-0.002222222,1,0,0,center_square,0,7,7,95,1,,,,,,,,,,,,,,,,,,,,,,,
945994,001,2022-11-21_01h50.10.083,Info_measure_main_exp,2022.2.2,Win32,60.86797736,,,,,,,,,,,,,,,,,,masks/mask_002.jpg,,,,,,,,,,,,,,,,,,,,,,,,,,,,,,,,,,,,,,,,,,,0,0,0,1,1,,,,,,,,,,,,,,,,,,,,,,,,,,,,,,,,,,,,,,,,,,,,,,
945994,001,2022-11-21_01h50.10.083,Info_measure_main_exp,2022.2.2,Win32,60.86797736,,,,,,,,,,,,,,,,,,masks/mask_001.jpg,,,,,,,,,,,,,,,,,,,,,,,,,,,,,,,,,,,,,,,,,,,0,1,1,0,1,,,,,,,,,,,,,,,,,,,,,,,,,,,,,,,,,,,,,,,,,,,,,,
945994,001,2022-11-21_01h50.10.083,Info_measure_main_exp,2022.2.2,Win32,60.86797736,,,,,,,,,,,,,,,,,,masks/mask_003.jpg,,,,,,,,,,,,,,,,,,,,,,,,,,,,,,,,,,,,,,,,,,,0,2,2,2,1,,,,,,,,,,,,,,,,,,,,,,,,,,,,,,,,,,,,,,,,,,,,,,
945994,001,2022-11-21_01h50.10.083,Info_measure_main_exp,2022.2.2,Win32,60.86797736,,,,,,,,,,,,,,,,,,masks/mask_004.jpg,,,,,,,,,,,,,,,,,,,,,,,,,,,,,,,,,,,,,,,,,,,0,3,3,3,1,,,,,,,,,,,,,,,,,,,,,,,,,,,,,,,,,,,,,,,,,,,,,,
945994,001,2022-11-21_01h50.10.083,Info_measure_main_exp,2022.2.2,Win32,60.86797736,,,,,,,,,,,,,,,,,,masks/mask_005.jpg,,,,,,,,,,,,,,,,,,,,,,,,,,,,,,,,,,,,,,,,,,,0,4,4,4,1,,,,,,,,,,,,,,,,,,,,,,,,,,,,,,,,,,,,,,,,,,,,,,
945994,001,2022-11-21_01h50.10.083,Info_measure_main_exp,2022.2.2,Win32,60.86797736,,,,,,,,,,,,,,,,,,masks/mask_004.jpg,,,,,,,,,,,,,,,,,,,,,,,,,,,,,,,,,,,,,,,,,,,,,,,,0,0,0,3,1,,,,,,,,,,,,,,,,,,,,,,,,,,,,,,,,,,,,,,,,,
945994,001,2022-11-21_01h50.10.083,Info_measure_main_exp,2022.2.2,Win32,60.86797736,,,,,,,,,,,,,,,,,,masks/mask_005.jpg,,,,,,,,,,,,,,,,,,,,,,,,,,,,,,,,,,,,,,,,,,,,,,,,0,1,1,4,1,,,,,,,,,,,,,,,,,,,,,,,,,,,,,,,,,,,,,,,,,
945994,001,2022-11-21_01h50.10.083,Info_measure_main_exp,2022.2.2,Win32,60.86797736,,,,,,,,,,,,,,,,,,masks/mask_001.jpg,,,,,,,,,,,,,,,,,,,,,,,,,,,,,,,,,,,,,,,,,,,,,,,,0,2,2,0,1,,,,,,,,,,,,,,,,,,,,,,,,,,,,,,,,,,,,,,,,,
945994,001,2022-11-21_01h50.10.083,Info_measure_main_exp,2022.2.2,Win32,60.86797736,,,,,,,,,,,,,,,,,,masks/mask_003.jpg,,,,,,,,,,,,,,,,,,,,,,,,,,,,,,,,,,,,,,,,,,,,,,,,0,3,3,2,1,,,,,,,,,,,,,,,,,,,,,,,,,,,,,,,,,,,,,,,,,
945994,001,2022-11-21_01h50.10.083,Info_measure_main_exp,2022.2.2,Win32,60.86797736,,,,,,,,,,,,,,,,,,masks/mask_002.jpg,,,,,,,,,,,,,,,,,,,,,,,,,,,,,,,,,,,,,,,,,,,,,,,,0,4,4,1,1,,,,,,,,,,,,,,,,,,,,,,,,,,,,,,,,,,,,,,,,,
945994,001,2022-11-21_01h50.10.083,Info_measure_main_exp,2022.2.2,Win32,60.86797736,,,,,,,,,,,,,,,,,,,,,,,,,,,,,,5,1.7978,1,,,,,,,,,,,,0,131,5,5,1986,2154,absent_patch/patch0001986.jpg,absent_patch/patch0002154.jpg,,,,,,,,,,,,,,,,,,,,0.12,-0.082222222,1,0,0,response3disk,9,0.003333333,-0.003333333,1,0,0,center_square,0,8,8,36,1,,,,,,,,,,,,,,,,,,,,,,,
945994,001,2022-11-21_01h50.10.083,Info_measure_main_exp,2022.2.2,Win32,60.86797736,,,,,,,,,,,,,,,,,,masks/mask_004.jpg,,,,,,,,,,,,,,,,,,,,,,,,,,,,,,,,,,,,,,,,,,,0,0,0,3,1,,,,,,,,,,,,,,,,,,,,,,,,,,,,,,,,,,,,,,,,,,,,,,
945994,001,2022-11-21_01h50.10.083,Info_measure_main_exp,2022.2.2,Win32,60.86797736,,,,,,,,,,,,,,,,,,masks/mask_001.jpg,,,,,,,,,,,,,,,,,,,,,,,,,,,,,,,,,,,,,,,,,,,0,1,1,0,1,,,,,,,,,,,,,,,,,,,,,,,,,,,,,,,,,,,,,,,,,,,,,,
945994,001,2022-11-21_01h50.10.083,Info_measure_main_exp,2022.2.2,Win32,60.86797736,,,,,,,,,,,,,,,,,,masks/mask_002.jpg,,,,,,,,,,,,,,,,,,,,,,,,,,,,,,,,,,,,,,,,,,,0,2,2,1,1,,,,,,,,,,,,,,,,,,,,,,,,,,,,,,,,,,,,,,,,,,,,,,
945994,001,2022-11-21_01h50.10.083,Info_measure_main_exp,2022.2.2,Win32,60.86797736,,,,,,,,,,,,,,,,,,masks/mask_005.jpg,,,,,,,,,,,,,,,,,,,,,,,,,,,,,,,,,,,,,,,,,,,0,3,3,4,1,,,,,,,,,,,,,,,,,,,,,,,,,,,,,,,,,,,,,,,,,,,,,,
945994,001,2022-11-21_01h50.10.083,Info_measure_main_exp,2022.2.2,Win32,60.86797736,,,,,,,,,,,,,,,,,,masks/mask_003.jpg,,,,,,,,,,,,,,,,,,,,,,,,,,,,,,,,,,,,,,,,,,,0,4,4,2,1,,,,,,,,,,,,,,,,,,,,,,,,,,,,,,,,,,,,,,,,,,,,,,
945994,001,2022-11-21_01h50.10.083,Info_measure_main_exp,2022.2.2,Win32,60.86797736,,,,,,,,,,,,,,,,,,masks/mask_004.jpg,,,,,,,,,,,,,,,,,,,,,,,,,,,,,,,,,,,,,,,,,,,,,,,,0,0,0,3,1,,,,,,,,,,,,,,,,,,,,,,,,,,,,,,,,,,,,,,,,,
945994,001,2022-11-21_01h50.10.083,Info_measure_main_exp,2022.2.2,Win32,60.86797736,,,,,,,,,,,,,,,,,,masks/mask_003.jpg,,,,,,,,,,,,,,,,,,,,,,,,,,,,,,,,,,,,,,,,,,,,,,,,0,1,1,2,1,,,,,,,,,,,,,,,,,,,,,,,,,,,,,,,,,,,,,,,,,
945994,001,2022-11-21_01h50.10.083,Info_measure_main_exp,2022.2.2,Win32,60.86797736,,,,,,,,,,,,,,,,,,masks/mask_001.jpg,,,,,,,,,,,,,,,,,,,,,,,,,,,,,,,,,,,,,,,,,,,,,,,,0,2,2,0,1,,,,,,,,,,,,,,,,,,,,,,,,,,,,,,,,,,,,,,,,,
945994,001,2022-11-21_01h50.10.083,Info_measure_main_exp,2022.2.2,Win32,60.86797736,,,,,,,,,,,,,,,,,,masks/mask_005.jpg,,,,,,,,,,,,,,,,,,,,,,,,,,,,,,,,,,,,,,,,,,,,,,,,0,3,3,4,1,,,,,,,,,,,,,,,,,,,,,,,,,,,,,,,,,,,,,,,,,
945994,001,2022-11-21_01h50.10.083,Info_measure_main_exp,2022.2.2,Win32,60.86797736,,,,,,,,,,,,,,,,,,masks/mask_002.jpg,,,,,,,,,,,,,,,,,,,,,,,,,,,,,,,,,,,,,,,,,,,,,,,,0,4,4,1,1,,,,,,,,,,,,,,,,,,,,,,,,,,,,,,,,,,,,,,,,,
945994,001,2022-11-21_01h50.10.083,Info_measure_main_exp,2022.2.2,Win32,60.86797736,,,,,,,,,,,,,,,,,,,,,,,,,,,,,,7,0.5832,1,,,,,,,,,,,,0,131,5,5,2154,2214,absent_patch/patch0002154.jpg,absent_patch/patch0002214.jpg,,,,,,,,,,,,,,,,,,,,0.037777778,0.106666667,1,0,0,response1disk,10,0,0,1,0,0,center_square,0,9,9,67,1,,,,,,,,,,,,,,,,,,,,,,,
945994,001,2022-11-21_01h50.10.083,Info_measure_main_exp,2022.2.2,Win32,60.86797736,,,,,,,,,,,,,,,,,,masks/mask_005.jpg,,,,,,,,,,,,,,,,,,,,,,,,,,,,,,,,,,,,,,,,,,,0,0,0,4,1,,,,,,,,,,,,,,,,,,,,,,,,,,,,,,,,,,,,,,,,,,,,,,
945994,001,2022-11-21_01h50.10.083,Info_measure_main_exp,2022.2.2,Win32,60.86797736,,,,,,,,,,,,,,,,,,masks/mask_003.jpg,,,,,,,,,,,,,,,,,,,,,,,,,,,,,,,,,,,,,,,,,,,0,1,1,2,1,,,,,,,,,,,,,,,,,,,,,,,,,,,,,,,,,,,,,,,,,,,,,,
945994,001,2022-11-21_01h50.10.083,Info_measure_main_exp,2022.2.2,Win32,60.86797736,,,,,,,,,,,,,,,,,,masks/mask_004.jpg,,,,,,,,,,,,,,,,,,,,,,,,,,,,,,,,,,,,,,,,,,,0,2,2,3,1,,,,,,,,,,,,,,,,,,,,,,,,,,,,,,,,,,,,,,,,,,,,,,
945994,001,2022-11-21_01h50.10.083,Info_measure_main_exp,2022.2.2,Win32,60.86797736,,,,,,,,,,,,,,,,,,masks/mask_002.jpg,,,,,,,,,,,,,,,,,,,,,,,,,,,,,,,,,,,,,,,,,,,0,3,3,1,1,,,,,,,,,,,,,,,,,,,,,,,,,,,,,,,,,,,,,,,,,,,,,,
945994,001,2022-11-21_01h50.10.083,Info_measure_main_exp,2022.2.2,Win32,60.86797736,,,,,,,,,,,,,,,,,,masks/mask_001.jpg,,,,,,,,,,,,,,,,,,,,,,,,,,,,,,,,,,,,,,,,,,,0,4,4,0,1,,,,,,,,,,,,,,,,,,,,,,,,,,,,,,,,,,,,,,,,,,,,,,
945994,001,2022-11-21_01h50.10.083,Info_measure_main_exp,2022.2.2,Win32,60.86797736,,,,,,,,,,,,,,,,,,masks/mask_002.jpg,,,,,,,,,,,,,,,,,,,,,,,,,,,,,,,,,,,,,,,,,,,,,,,,0,0,0,1,1,,,,,,,,,,,,,,,,,,,,,,,,,,,,,,,,,,,,,,,,,
945994,001,2022-11-21_01h50.10.083,Info_measure_main_exp,2022.2.2,Win32,60.86797736,,,,,,,,,,,,,,,,,,masks/mask_005.jpg,,,,,,,,,,,,,,,,,,,,,,,,,,,,,,,,,,,,,,,,,,,,,,,,0,1,1,4,1,,,,,,,,,,,,,,,,,,,,,,,,,,,,,,,,,,,,,,,,,
945994,001,2022-11-21_01h50.10.083,Info_measure_main_exp,2022.2.2,Win32,60.86797736,,,,,,,,,,,,,,,,,,masks/mask_003.jpg,,,,,,,,,,,,,,,,,,,,,,,,,,,,,,,,,,,,,,,,,,,,,,,,0,2,2,2,1,,,,,,,,,,,,,,,,,,,,,,,,,,,,,,,,,,,,,,,,,
945994,001,2022-11-21_01h50.10.083,Info_measure_main_exp,2022.2.2,Win32,60.86797736,,,,,,,,,,,,,,,,,,masks/mask_001.jpg,,,,,,,,,,,,,,,,,,,,,,,,,,,,,,,,,,,,,,,,,,,,,,,,0,3,3,0,1,,,,,,,,,,,,,,,,,,,,,,,,,,,,,,,,,,,,,,,,,
945994,001,2022-11-21_01h50.10.083,Info_measure_main_exp,2022.2.2,Win32,60.86797736,,,,,,,,,,,,,,,,,,masks/mask_004.jpg,,,,,,,,,,,,,,,,,,,,,,,,,,,,,,,,,,,,,,,,,,,,,,,,0,4,4,3,1,,,,,,,,,,,,,,,,,,,,,,,,,,,,,,,,,,,,,,,,,
945994,001,2022-11-21_01h50.10.083,Info_measure_main_exp,2022.2.2,Win32,60.86797736,,,,,,,,,,,,,,,,,,,,,,,,,,,,,,0,0.5325,1,,,,,,,,,,,,0,131,5,5,1974,1974,absent_patch/patch0001974.jpg,absent_patch/patch0001974.jpg,,,,,,,,,,,,,,,,,,,,-0.014444444,0.107777778,1,0,0,response7disk,11,-0.01,0.002222222,1,0,0,center_square,0,10,10,113,1,,,,,,,,,,,,,,,,,,,,,,,
945994,001,2022-11-21_01h50.10.083,Info_measure_main_exp,2022.2.2,Win32,60.86797736,,,,,,,,,,,,,,,,,,masks/mask_001.jpg,,,,,,,,,,,,,,,,,,,,,,,,,,,,,,,,,,,,,,,,,,,0,0,0,0,1,,,,,,,,,,,,,,,,,,,,,,,,,,,,,,,,,,,,,,,,,,,,,,
945994,001,2022-11-21_01h50.10.083,Info_measure_main_exp,2022.2.2,Win32,60.86797736,,,,,,,,,,,,,,,,,,masks/mask_003.jpg,,,,,,,,,,,,,,,,,,,,,,,,,,,,,,,,,,,,,,,,,,,0,1,1,2,1,,,,,,,,,,,,,,,,,,,,,,,,,,,,,,,,,,,,,,,,,,,,,,
945994,001,2022-11-21_01h50.10.083,Info_measure_main_exp,2022.2.2,Win32,60.86797736,,,,,,,,,,,,,,,,,,masks/mask_005.jpg,,,,,,,,,,,,,,,,,,,,,,,,,,,,,,,,,,,,,,,,,,,0,2,2,4,1,,,,,,,,,,,,,,,,,,,,,,,,,,,,,,,,,,,,,,,,,,,,,,
945994,001,2022-11-21_01h50.10.083,Info_measure_main_exp,2022.2.2,Win32,60.86797736,,,,,,,,,,,,,,,,,,masks/mask_004.jpg,,,,,,,,,,,,,,,,,,,,,,,,,,,,,,,,,,,,,,,,,,,0,3,3,3,1,,,,,,,,,,,,,,,,,,,,,,,,,,,,,,,,,,,,,,,,,,,,,,
945994,001,2022-11-21_01h50.10.083,Info_measure_main_exp,2022.2.2,Win32,60.86797736,,,,,,,,,,,,,,,,,,masks/mask_002.jpg,,,,,,,,,,,,,,,,,,,,,,,,,,,,,,,,,,,,,,,,,,,0,4,4,1,1,,,,,,,,,,,,,,,,,,,,,,,,,,,,,,,,,,,,,,,,,,,,,,
945994,001,2022-11-21_01h50.10.083,Info_measure_main_exp,2022.2.2,Win32,60.86797736,,,,,,,,,,,,,,,,,,masks/mask_004.jpg,,,,,,,,,,,,,,,,,,,,,,,,,,,,,,,,,,,,,,,,,,,,,,,,0,0,0,3,1,,,,,,,,,,,,,,,,,,,,,,,,,,,,,,,,,,,,,,,,,
945994,001,2022-11-21_01h50.10.083,Info_measure_main_exp,2022.2.2,Win32,60.86797736,,,,,,,,,,,,,,,,,,masks/mask_003.jpg,,,,,,,,,,,,,,,,,,,,,,,,,,,,,,,,,,,,,,,,,,,,,,,,0,1,1,2,1,,,,,,,,,,,,,,,,,,,,,,,,,,,,,,,,,,,,,,,,,
945994,001,2022-11-21_01h50.10.083,Info_measure_main_exp,2022.2.2,Win32,60.86797736,,,,,,,,,,,,,,,,,,masks/mask_005.jpg,,,,,,,,,,,,,,,,,,,,,,,,,,,,,,,,,,,,,,,,,,,,,,,,0,2,2,4,1,,,,,,,,,,,,,,,,,,,,,,,,,,,,,,,,,,,,,,,,,
945994,001,2022-11-21_01h50.10.083,Info_measure_main_exp,2022.2.2,Win32,60.86797736,,,,,,,,,,,,,,,,,,masks/mask_001.jpg,,,,,,,,,,,,,,,,,,,,,,,,,,,,,,,,,,,,,,,,,,,,,,,,0,3,3,0,1,,,,,,,,,,,,,,,,,,,,,,,,,,,,,,,,,,,,,,,,,
945994,001,2022-11-21_01h50.10.083,Info_measure_main_exp,2022.2.2,Win32,60.86797736,,,,,,,,,,,,,,,,,,masks/mask_002.jpg,,,,,,,,,,,,,,,,,,,,,,,,,,,,,,,,,,,,,,,,,,,,,,,,0,4,4,1,1,,,,,,,,,,,,,,,,,,,,,,,,,,,,,,,,,,,,,,,,,
945994,001,2022-11-21_01h50.10.083,Info_measure_main_exp,2022.2.2,Win32,60.86797736,,,,,,,,,,,,,,,,,,,,,,,,,,,,,,6,1.2993,1,,,,,,,,,,,,1,131,5,5,1,2154,present_patch/cong_131_5_a.jpg,absent_patch/patch0002154.jpg,,,,,,,,,,,,,,,,,,,,0.104444444,0.02,1,0,0,response1disk,12,0.003333333,-0.006666667,1,0,0,center_square,0,11,11,87,1,,,,,,,,,,,,,,,,,,,,,,,
945994,001,2022-11-21_01h50.10.083,Info_measure_main_exp,2022.2.2,Win32,60.86797736,,,,,,,,,,,,,,,,,,masks/mask_002.jpg,,,,,,,,,,,,,,,,,,,,,,,,,,,,,,,,,,,,,,,,,,,0,0,0,1,1,,,,,,,,,,,,,,,,,,,,,,,,,,,,,,,,,,,,,,,,,,,,,,
945994,001,2022-11-21_01h50.10.083,Info_measure_main_exp,2022.2.2,Win32,60.86797736,,,,,,,,,,,,,,,,,,masks/mask_005.jpg,,,,,,,,,,,,,,,,,,,,,,,,,,,,,,,,,,,,,,,,,,,0,1,1,4,1,,,,,,,,,,,,,,,,,,,,,,,,,,,,,,,,,,,,,,,,,,,,,,
945994,001,2022-11-21_01h50.10.083,Info_measure_main_exp,2022.2.2,Win32,60.86797736,,,,,,,,,,,,,,,,,,masks/mask_004.jpg,,,,,,,,,,,,,,,,,,,,,,,,,,,,,,,,,,,,,,,,,,,0,2,2,3,1,,,,,,,,,,,,,,,,,,,,,,,,,,,,,,,,,,,,,,,,,,,,,,
945994,001,2022-11-21_01h50.10.083,Info_measure_main_exp,2022.2.2,Win32,60.86797736,,,,,,,,,,,,,,,,,,masks/mask_001.jpg,,,,,,,,,,,,,,,,,,,,,,,,,,,,,,,,,,,,,,,,,,,0,3,3,0,1,,,,,,,,,,,,,,,,,,,,,,,,,,,,,,,,,,,,,,,,,,,,,,
945994,001,2022-11-21_01h50.10.083,Info_measure_main_exp,2022.2.2,Win32,60.86797736,,,,,,,,,,,,,,,,,,masks/mask_003.jpg,,,,,,,,,,,,,,,,,,,,,,,,,,,,,,,,,,,,,,,,,,,0,4,4,2,1,,,,,,,,,,,,,,,,,,,,,,,,,,,,,,,,,,,,,,,,,,,,,,
945994,001,2022-11-21_01h50.10.083,Info_measure_main_exp,2022.2.2,Win32,60.86797736,,,,,,,,,,,,,,,,,,masks/mask_004.jpg,,,,,,,,,,,,,,,,,,,,,,,,,,,,,,,,,,,,,,,,,,,,,,,,0,0,0,3,1,,,,,,,,,,,,,,,,,,,,,,,,,,,,,,,,,,,,,,,,,
945994,001,2022-11-21_01h50.10.083,Info_measure_main_exp,2022.2.2,Win32,60.86797736,,,,,,,,,,,,,,,,,,masks/mask_002.jpg,,,,,,,,,,,,,,,,,,,,,,,,,,,,,,,,,,,,,,,,,,,,,,,,0,1,1,1,1,,,,,,,,,,,,,,,,,,,,,,,,,,,,,,,,,,,,,,,,,
945994,001,2022-11-21_01h50.10.083,Info_measure_main_exp,2022.2.2,Win32,60.86797736,,,,,,,,,,,,,,,,,,masks/mask_005.jpg,,,,,,,,,,,,,,,,,,,,,,,,,,,,,,,,,,,,,,,,,,,,,,,,0,2,2,4,1,,,,,,,,,,,,,,,,,,,,,,,,,,,,,,,,,,,,,,,,,
945994,001,2022-11-21_01h50.10.083,Info_measure_main_exp,2022.2.2,Win32,60.86797736,,,,,,,,,,,,,,,,,,masks/mask_001.jpg,,,,,,,,,,,,,,,,,,,,,,,,,,,,,,,,,,,,,,,,,,,,,,,,0,3,3,0,1,,,,,,,,,,,,,,,,,,,,,,,,,,,,,,,,,,,,,,,,,
945994,001,2022-11-21_01h50.10.083,Info_measure_main_exp,2022.2.2,Win32,60.86797736,,,,,,,,,,,,,,,,,,masks/mask_003.jpg,,,,,,,,,,,,,,,,,,,,,,,,,,,,,,,,,,,,,,,,,,,,,,,,0,4,4,2,1,,,,,,,,,,,,,,,,,,,,,,,,,,,,,,,,,,,,,,,,,
945994,001,2022-11-21_01h50.10.083,Info_measure_main_exp,2022.2.2,Win32,60.86797736,,,,,,,,,,,,,,,,,,,,,,,,,,,,,,7,0.5664,1,,,,,,,,,,,,0,131,5,5,2082,2154,absent_patch/patch0002082.jpg,absent_patch/patch0002154.jpg,,,,,,,,,,,,,,,,,,,,0.022222222,0.111111111,1,0,0,response1disk,13,-0.002222222,0.006666667,1,0,0,center_square,0,12,12,33,1,,,,,,,,,,,,,,,,,,,,,,,
945994,001,2022-11-21_01h50.10.083,Info_measure_main_exp,2022.2.2,Win32,60.86797736,,,,,,,,,,,,,,,,,,masks/mask_005.jpg,,,,,,,,,,,,,,,,,,,,,,,,,,,,,,,,,,,,,,,,,,,0,0,0,4,1,,,,,,,,,,,,,,,,,,,,,,,,,,,,,,,,,,,,,,,,,,,,,,
945994,001,2022-11-21_01h50.10.083,Info_measure_main_exp,2022.2.2,Win32,60.86797736,,,,,,,,,,,,,,,,,,masks/mask_001.jpg,,,,,,,,,,,,,,,,,,,,,,,,,,,,,,,,,,,,,,,,,,,0,1,1,0,1,,,,,,,,,,,,,,,,,,,,,,,,,,,,,,,,,,,,,,,,,,,,,,
945994,001,2022-11-21_01h50.10.083,Info_measure_main_exp,2022.2.2,Win32,60.86797736,,,,,,,,,,,,,,,,,,masks/mask_002.jpg,,,,,,,,,,,,,,,,,,,,,,,,,,,,,,,,,,,,,,,,,,,0,2,2,1,1,,,,,,,,,,,,,,,,,,,,,,,,,,,,,,,,,,,,,,,,,,,,,,
945994,001,2022-11-21_01h50.10.083,Info_measure_main_exp,2022.2.2,Win32,60.86797736,,,,,,,,,,,,,,,,,,masks/mask_003.jpg,,,,,,,,,,,,,,,,,,,,,,,,,,,,,,,,,,,,,,,,,,,0,3,3,2,1,,,,,,,,,,,,,,,,,,,,,,,,,,,,,,,,,,,,,,,,,,,,,,
945994,001,2022-11-21_01h50.10.083,Info_measure_main_exp,2022.2.2,Win32,60.86797736,,,,,,,,,,,,,,,,,,masks/mask_004.jpg,,,,,,,,,,,,,,,,,,,,,,,,,,,,,,,,,,,,,,,,,,,0,4,4,3,1,,,,,,,,,,,,,,,,,,,,,,,,,,,,,,,,,,,,,,,,,,,,,,
945994,001,2022-11-21_01h50.10.083,Info_measure_main_exp,2022.2.2,Win32,60.86797736,,,,,,,,,,,,,,,,,,masks/mask_004.jpg,,,,,,,,,,,,,,,,,,,,,,,,,,,,,,,,,,,,,,,,,,,,,,,,0,0,0,3,1,,,,,,,,,,,,,,,,,,,,,,,,,,,,,,,,,,,,,,,,,
945994,001,2022-11-21_01h50.10.083,Info_measure_main_exp,2022.2.2,Win32,60.86797736,,,,,,,,,,,,,,,,,,masks/mask_001.jpg,,,,,,,,,,,,,,,,,,,,,,,,,,,,,,,,,,,,,,,,,,,,,,,,0,1,1,0,1,,,,,,,,,,,,,,,,,,,,,,,,,,,,,,,,,,,,,,,,,
945994,001,2022-11-21_01h50.10.083,Info_measure_main_exp,2022.2.2,Win32,60.86797736,,,,,,,,,,,,,,,,,,masks/mask_003.jpg,,,,,,,,,,,,,,,,,,,,,,,,,,,,,,,,,,,,,,,,,,,,,,,,0,2,2,2,1,,,,,,,,,,,,,,,,,,,,,,,,,,,,,,,,,,,,,,,,,
945994,001,2022-11-21_01h50.10.083,Info_measure_main_exp,2022.2.2,Win32,60.86797736,,,,,,,,,,,,,,,,,,masks/mask_005.jpg,,,,,,,,,,,,,,,,,,,,,,,,,,,,,,,,,,,,,,,,,,,,,,,,0,3,3,4,1,,,,,,,,,,,,,,,,,,,,,,,,,,,,,,,,,,,,,,,,,
945994,001,2022-11-21_01h50.10.083,Info_measure_main_exp,2022.2.2,Win32,60.86797736,,,,,,,,,,,,,,,,,,masks/mask_002.jpg,,,,,,,,,,,,,,,,,,,,,,,,,,,,,,,,,,,,,,,,,,,,,,,,0,4,4,1,1,,,,,,,,,,,,,,,,,,,,,,,,,,,,,,,,,,,,,,,,,
945994,001,2022-11-21_01h50.10.083,Info_measure_main_exp,2022.2.2,Win32,60.86797736,,,,,,,,,,,,,,,,,,,,,,,,,,,,,,6,1.0672,1,,,,,,,,,,,,0,131,5,5,2238,2298,absent_patch/patch0002238.jpg,absent_patch/patch0002298.jpg,,,,,,,,,,,,,,,,,,,,0.065555556,0.034444444,1,0,0,response1disk,14,0.004444444,-0.003333333,1,0,0,center_square,0,13,13,51,1,,,,,,,,,,,,,,,,,,,,,,,
945994,001,2022-11-21_01h50.10.083,Info_measure_main_exp,2022.2.2,Win32,60.86797736,,,,,,,,,,,,,,,,,,masks/mask_005.jpg,,,,,,,,,,,,,,,,,,,,,,,,,,,,,,,,,,,,,,,,,,,0,0,0,4,1,,,,,,,,,,,,,,,,,,,,,,,,,,,,,,,,,,,,,,,,,,,,,,
945994,001,2022-11-21_01h50.10.083,Info_measure_main_exp,2022.2.2,Win32,60.86797736,,,,,,,,,,,,,,,,,,masks/mask_003.jpg,,,,,,,,,,,,,,,,,,,,,,,,,,,,,,,,,,,,,,,,,,,0,1,1,2,1,,,,,,,,,,,,,,,,,,,,,,,,,,,,,,,,,,,,,,,,,,,,,,
945994,001,2022-11-21_01h50.10.083,Info_measure_main_exp,2022.2.2,Win32,60.86797736,,,,,,,,,,,,,,,,,,masks/mask_004.jpg,,,,,,,,,,,,,,,,,,,,,,,,,,,,,,,,,,,,,,,,,,,0,2,2,3,1,,,,,,,,,,,,,,,,,,,,,,,,,,,,,,,,,,,,,,,,,,,,,,
945994,001,2022-11-21_01h50.10.083,Info_measure_main_exp,2022.2.2,Win32,60.86797736,,,,,,,,,,,,,,,,,,masks/mask_001.jpg,,,,,,,,,,,,,,,,,,,,,,,,,,,,,,,,,,,,,,,,,,,0,3,3,0,1,,,,,,,,,,,,,,,,,,,,,,,,,,,,,,,,,,,,,,,,,,,,,,
945994,001,2022-11-21_01h50.10.083,Info_measure_main_exp,2022.2.2,Win32,60.86797736,,,,,,,,,,,,,,,,,,masks/mask_002.jpg,,,,,,,,,,,,,,,,,,,,,,,,,,,,,,,,,,,,,,,,,,,0,4,4,1,1,,,,,,,,,,,,,,,,,,,,,,,,,,,,,,,,,,,,,,,,,,,,,,
945994,001,2022-11-21_01h50.10.083,Info_measure_main_exp,2022.2.2,Win32,60.86797736,,,,,,,,,,,,,,,,,,masks/mask_003.jpg,,,,,,,,,,,,,,,,,,,,,,,,,,,,,,,,,,,,,,,,,,,,,,,,0,0,0,2,1,,,,,,,,,,,,,,,,,,,,,,,,,,,,,,,,,,,,,,,,,
945994,001,2022-11-21_01h50.10.083,Info_measure_main_exp,2022.2.2,Win32,60.86797736,,,,,,,,,,,,,,,,,,masks/mask_001.jpg,,,,,,,,,,,,,,,,,,,,,,,,,,,,,,,,,,,,,,,,,,,,,,,,0,1,1,0,1,,,,,,,,,,,,,,,,,,,,,,,,,,,,,,,,,,,,,,,,,
945994,001,2022-11-21_01h50.10.083,Info_measure_main_exp,2022.2.2,Win32,60.86797736,,,,,,,,,,,,,,,,,,masks/mask_002.jpg,,,,,,,,,,,,,,,,,,,,,,,,,,,,,,,,,,,,,,,,,,,,,,,,0,2,2,1,1,,,,,,,,,,,,,,,,,,,,,,,,,,,,,,,,,,,,,,,,,
945994,001,2022-11-21_01h50.10.083,Info_measure_main_exp,2022.2.2,Win32,60.86797736,,,,,,,,,,,,,,,,,,masks/mask_005.jpg,,,,,,,,,,,,,,,,,,,,,,,,,,,,,,,,,,,,,,,,,,,,,,,,0,3,3,4,1,,,,,,,,,,,,,,,,,,,,,,,,,,,,,,,,,,,,,,,,,
945994,001,2022-11-21_01h50.10.083,Info_measure_main_exp,2022.2.2,Win32,60.86797736,,,,,,,,,,,,,,,,,,masks/mask_004.jpg,,,,,,,,,,,,,,,,,,,,,,,,,,,,,,,,,,,,,,,,,,,,,,,,0,4,4,3,1,,,,,,,,,,,,,,,,,,,,,,,,,,,,,,,,,,,,,,,,,
945994,001,2022-11-21_01h50.10.083,Info_measure_main_exp,2022.2.2,Win32,60.86797736,,,,,,,,,,,,,,,,,,,,,,,,,,,,,,5,0.633,1,,,,,,,,,,,,0,131,5,5,2274,2238,absent_patch/patch0002274.jpg,absent_patch/patch0002238.jpg,,,,,,,,,,,,,,,,,,,,0.096666667,-0.037777778,1,0,0,response3disk,15,0.007777778,0.002222222,1,0,0,center_square,0,14,14,91,1,,,,,,,,,,,,,,,,,,,,,,,
945994,001,2022-11-21_01h50.10.083,Info_measure_main_exp,2022.2.2,Win32,60.86797736,,,,,,,,,,,,,,,,,,masks/mask_002.jpg,,,,,,,,,,,,,,,,,,,,,,,,,,,,,,,,,,,,,,,,,,,0,0,0,1,1,,,,,,,,,,,,,,,,,,,,,,,,,,,,,,,,,,,,,,,,,,,,,,
945994,001,2022-11-21_01h50.10.083,Info_measure_main_exp,2022.2.2,Win32,60.86797736,,,,,,,,,,,,,,,,,,masks/mask_003.jpg,,,,,,,,,,,,,,,,,,,,,,,,,,,,,,,,,,,,,,,,,,,0,1,1,2,1,,,,,,,,,,,,,,,,,,,,,,,,,,,,,,,,,,,,,,,,,,,,,,
945994,001,2022-11-21_01h50.10.083,Info_measure_main_exp,2022.2.2,Win32,60.86797736,,,,,,,,,,,,,,,,,,masks/mask_004.jpg,,,,,,,,,,,,,,,,,,,,,,,,,,,,,,,,,,,,,,,,,,,0,2,2,3,1,,,,,,,,,,,,,,,,,,,,,,,,,,,,,,,,,,,,,,,,,,,,,,
945994,001,2022-11-21_01h50.10.083,Info_measure_main_exp,2022.2.2,Win32,60.86797736,,,,,,,,,,,,,,,,,,masks/mask_005.jpg,,,,,,,,,,,,,,,,,,,,,,,,,,,,,,,,,,,,,,,,,,,0,3,3,4,1,,,,,,,,,,,,,,,,,,,,,,,,,,,,,,,,,,,,,,,,,,,,,,
945994,001,2022-11-21_01h50.10.083,Info_measure_main_exp,2022.2.2,Win32,60.86797736,,,,,,,,,,,,,,,,,,masks/mask_001.jpg,,,,,,,,,,,,,,,,,,,,,,,,,,,,,,,,,,,,,,,,,,,0,4,4,0,1,,,,,,,,,,,,,,,,,,,,,,,,,,,,,,,,,,,,,,,,,,,,,,
945994,001,2022-11-21_01h50.10.083,Info_measure_main_exp,2022.2.2,Win32,60.86797736,,,,,,,,,,,,,,,,,,masks/mask_005.jpg,,,,,,,,,,,,,,,,,,,,,,,,,,,,,,,,,,,,,,,,,,,,,,,,0,0,0,4,1,,,,,,,,,,,,,,,,,,,,,,,,,,,,,,,,,,,,,,,,,
945994,001,2022-11-21_01h50.10.083,Info_measure_main_exp,2022.2.2,Win32,60.86797736,,,,,,,,,,,,,,,,,,masks/mask_004.jpg,,,,,,,,,,,,,,,,,,,,,,,,,,,,,,,,,,,,,,,,,,,,,,,,0,1,1,3,1,,,,,,,,,,,,,,,,,,,,,,,,,,,,,,,,,,,,,,,,,
945994,001,2022-11-21_01h50.10.083,Info_measure_main_exp,2022.2.2,Win32,60.86797736,,,,,,,,,,,,,,,,,,masks/mask_002.jpg,,,,,,,,,,,,,,,,,,,,,,,,,,,,,,,,,,,,,,,,,,,,,,,,0,2,2,1,1,,,,,,,,,,,,,,,,,,,,,,,,,,,,,,,,,,,,,,,,,
945994,001,2022-11-21_01h50.10.083,Info_measure_main_exp,2022.2.2,Win32,60.86797736,,,,,,,,,,,,,,,,,,masks/mask_003.jpg,,,,,,,,,,,,,,,,,,,,,,,,,,,,,,,,,,,,,,,,,,,,,,,,0,3,3,2,1,,,,,,,,,,,,,,,,,,,,,,,,,,,,,,,,,,,,,,,,,
945994,001,2022-11-21_01h50.10.083,Info_measure_main_exp,2022.2.2,Win32,60.86797736,,,,,,,,,,,,,,,,,,masks/mask_001.jpg,,,,,,,,,,,,,,,,,,,,,,,,,,,,,,,,,,,,,,,,,,,,,,,,0,4,4,0,1,,,,,,,,,,,,,,,,,,,,,,,,,,,,,,,,,,,,,,,,,
945994,001,2022-11-21_01h50.10.083,Info_measure_main_exp,2022.2.2,Win32,60.86797736,,,,,,,,,,,,,,,,,,,,,,,,,,,,,,7,0.602,1,,,,,,,,,,,,0,131,5,5,2082,2166,absent_patch/patch0002082.jpg,absent_patch/patch0002166.jpg,,,,,,,,,,,,,,,,,,,,0.033333333,0.091111111,1,0,0,response1disk,16,-0.004444444,0.002222222,1,0,0,center_square,0,15,15,43,1,,,,,,,,,,,,,,,,,,,,,,,
945994,001,2022-11-21_01h50.10.083,Info_measure_main_exp,2022.2.2,Win32,60.86797736,,,,,,,,,,,,,,,,,,masks/mask_005.jpg,,,,,,,,,,,,,,,,,,,,,,,,,,,,,,,,,,,,,,,,,,,0,0,0,4,1,,,,,,,,,,,,,,,,,,,,,,,,,,,,,,,,,,,,,,,,,,,,,,
945994,001,2022-11-21_01h50.10.083,Info_measure_main_exp,2022.2.2,Win32,60.86797736,,,,,,,,,,,,,,,,,,masks/mask_003.jpg,,,,,,,,,,,,,,,,,,,,,,,,,,,,,,,,,,,,,,,,,,,0,1,1,2,1,,,,,,,,,,,,,,,,,,,,,,,,,,,,,,,,,,,,,,,,,,,,,,
945994,001,2022-11-21_01h50.10.083,Info_measure_main_exp,2022.2.2,Win32,60.86797736,,,,,,,,,,,,,,,,,,masks/mask_004.jpg,,,,,,,,,,,,,,,,,,,,,,,,,,,,,,,,,,,,,,,,,,,0,2,2,3,1,,,,,,,,,,,,,,,,,,,,,,,,,,,,,,,,,,,,,,,,,,,,,,
945994,001,2022-11-21_01h50.10.083,Info_measure_main_exp,2022.2.2,Win32,60.86797736,,,,,,,,,,,,,,,,,,masks/mask_001.jpg,,,,,,,,,,,,,,,,,,,,,,,,,,,,,,,,,,,,,,,,,,,0,3,3,0,1,,,,,,,,,,,,,,,,,,,,,,,,,,,,,,,,,,,,,,,,,,,,,,
945994,001,2022-11-21_01h50.10.083,Info_measure_main_exp,2022.2.2,Win32,60.86797736,,,,,,,,,,,,,,,,,,masks/mask_002.jpg,,,,,,,,,,,,,,,,,,,,,,,,,,,,,,,,,,,,,,,,,,,0,4,4,1,1,,,,,,,,,,,,,,,,,,,,,,,,,,,,,,,,,,,,,,,,,,,,,,
945994,001,2022-11-21_01h50.10.083,Info_measure_main_exp,2022.2.2,Win32,60.86797736,,,,,,,,,,,,,,,,,,masks/mask_002.jpg,,,,,,,,,,,,,,,,,,,,,,,,,,,,,,,,,,,,,,,,,,,,,,,,0,0,0,1,1,,,,,,,,,,,,,,,,,,,,,,,,,,,,,,,,,,,,,,,,,
945994,001,2022-11-21_01h50.10.083,Info_measure_main_exp,2022.2.2,Win32,60.86797736,,,,,,,,,,,,,,,,,,masks/mask_004.jpg,,,,,,,,,,,,,,,,,,,,,,,,,,,,,,,,,,,,,,,,,,,,,,,,0,1,1,3,1,,,,,,,,,,,,,,,,,,,,,,,,,,,,,,,,,,,,,,,,,
945994,001,2022-11-21_01h50.10.083,Info_measure_main_exp,2022.2.2,Win32,60.86797736,,,,,,,,,,,,,,,,,,masks/mask_005.jpg,,,,,,,,,,,,,,,,,,,,,,,,,,,,,,,,,,,,,,,,,,,,,,,,0,2,2,4,1,,,,,,,,,,,,,,,,,,,,,,,,,,,,,,,,,,,,,,,,,
945994,001,2022-11-21_01h50.10.083,Info_measure_main_exp,2022.2.2,Win32,60.86797736,,,,,,,,,,,,,,,,,,masks/mask_001.jpg,,,,,,,,,,,,,,,,,,,,,,,,,,,,,,,,,,,,,,,,,,,,,,,,0,3,3,0,1,,,,,,,,,,,,,,,,,,,,,,,,,,,,,,,,,,,,,,,,,
945994,001,2022-11-21_01h50.10.083,Info_measure_main_exp,2022.2.2,Win32,60.86797736,,,,,,,,,,,,,,,,,,masks/mask_003.jpg,,,,,,,,,,,,,,,,,,,,,,,,,,,,,,,,,,,,,,,,,,,,,,,,0,4,4,2,1,,,,,,,,,,,,,,,,,,,,,,,,,,,,,,,,,,,,,,,,,
945994,001,2022-11-21_01h50.10.083,Info_measure_main_exp,2022.2.2,Win32,60.86797736,,,,,,,,,,,,,,,,,,,,,,,,,,,,,,6,0.7014,1,,,,,,,,,,,,0,131,5,5,2274,2154,absent_patch/patch0002274.jpg,absent_patch/patch0002154.jpg,,,,,,,,,,,,,,,,,,,,0.107777778,0.03,1,0,0,response1disk,17,0.002222222,-0.001111111,1,0,0,center_square,0,16,16,23,1,,,,,,,,,,,,,,,,,,,,,,,
945994,001,2022-11-21_01h50.10.083,Info_measure_main_exp,2022.2.2,Win32,60.86797736,,,,,,,,,,,,,,,,,,masks/mask_002.jpg,,,,,,,,,,,,,,,,,,,,,,,,,,,,,,,,,,,,,,,,,,,0,0,0,1,1,,,,,,,,,,,,,,,,,,,,,,,,,,,,,,,,,,,,,,,,,,,,,,
945994,001,2022-11-21_01h50.10.083,Info_measure_main_exp,2022.2.2,Win32,60.86797736,,,,,,,,,,,,,,,,,,masks/mask_003.jpg,,,,,,,,,,,,,,,,,,,,,,,,,,,,,,,,,,,,,,,,,,,0,1,1,2,1,,,,,,,,,,,,,,,,,,,,,,,,,,,,,,,,,,,,,,,,,,,,,,
945994,001,2022-11-21_01h50.10.083,Info_measure_main_exp,2022.2.2,Win32,60.86797736,,,,,,,,,,,,,,,,,,masks/mask_005.jpg,,,,,,,,,,,,,,,,,,,,,,,,,,,,,,,,,,,,,,,,,,,0,2,2,4,1,,,,,,,,,,,,,,,,,,,,,,,,,,,,,,,,,,,,,,,,,,,,,,
945994,001,2022-11-21_01h50.10.083,Info_measure_main_exp,2022.2.2,Win32,60.86797736,,,,,,,,,,,,,,,,,,masks/mask_004.jpg,,,,,,,,,,,,,,,,,,,,,,,,,,,,,,,,,,,,,,,,,,,0,3,3,3,1,,,,,,,,,,,,,,,,,,,,,,,,,,,,,,,,,,,,,,,,,,,,,,
945994,001,2022-11-21_01h50.10.083,Info_measure_main_exp,2022.2.2,Win32,60.86797736,,,,,,,,,,,,,,,,,,masks/mask_001.jpg,,,,,,,,,,,,,,,,,,,,,,,,,,,,,,,,,,,,,,,,,,,0,4,4,0,1,,,,,,,,,,,,,,,,,,,,,,,,,,,,,,,,,,,,,,,,,,,,,,
945994,001,2022-11-21_01h50.10.083,Info_measure_main_exp,2022.2.2,Win32,60.86797736,,,,,,,,,,,,,,,,,,masks/mask_001.jpg,,,,,,,,,,,,,,,,,,,,,,,,,,,,,,,,,,,,,,,,,,,,,,,,0,0,0,0,1,,,,,,,,,,,,,,,,,,,,,,,,,,,,,,,,,,,,,,,,,
945994,001,2022-11-21_01h50.10.083,Info_measure_main_exp,2022.2.2,Win32,60.86797736,,,,,,,,,,,,,,,,,,masks/mask_002.jpg,,,,,,,,,,,,,,,,,,,,,,,,,,,,,,,,,,,,,,,,,,,,,,,,0,1,1,1,1,,,,,,,,,,,,,,,,,,,,,,,,,,,,,,,,,,,,,,,,,
945994,001,2022-11-21_01h50.10.083,Info_measure_main_exp,2022.2.2,Win32,60.86797736,,,,,,,,,,,,,,,,,,masks/mask_004.jpg,,,,,,,,,,,,,,,,,,,,,,,,,,,,,,,,,,,,,,,,,,,,,,,,0,2,2,3,1,,,,,,,,,,,,,,,,,,,,,,,,,,,,,,,,,,,,,,,,,
945994,001,2022-11-21_01h50.10.083,Info_measure_main_exp,2022.2.2,Win32,60.86797736,,,,,,,,,,,,,,,,,,masks/mask_003.jpg,,,,,,,,,,,,,,,,,,,,,,,,,,,,,,,,,,,,,,,,,,,,,,,,0,3,3,2,1,,,,,,,,,,,,,,,,,,,,,,,,,,,,,,,,,,,,,,,,,
945994,001,2022-11-21_01h50.10.083,Info_measure_main_exp,2022.2.2,Win32,60.86797736,,,,,,,,,,,,,,,,,,masks/mask_005.jpg,,,,,,,,,,,,,,,,,,,,,,,,,,,,,,,,,,,,,,,,,,,,,,,,0,4,4,4,1,,,,,,,,,,,,,,,,,,,,,,,,,,,,,,,,,,,,,,,,,
945994,001,2022-11-21_01h50.10.083,Info_measure_main_exp,2022.2.2,Win32,60.86797736,,,,,,,,,,,,,,,,,,,,,,,,,,,,,,7,1.1356,1,,,,,,,,,,,,0,131,5,5,2190,2238,absent_patch/patch0002190.jpg,absent_patch/patch0002238.jpg,,,,,,,,,,,,,,,,,,,,0.046666667,0.091111111,1,0,0,response1disk,18,0.001111111,-0.003333333,1,0,0,center_square,0,17,17,53,1,,,,,,,,,,,,,,,,,,,,,,,
945994,001,2022-11-21_01h50.10.083,Info_measure_main_exp,2022.2.2,Win32,60.86797736,,,,,,,,,,,,,,,,,,masks/mask_004.jpg,,,,,,,,,,,,,,,,,,,,,,,,,,,,,,,,,,,,,,,,,,,0,0,0,3,1,,,,,,,,,,,,,,,,,,,,,,,,,,,,,,,,,,,,,,,,,,,,,,
945994,001,2022-11-21_01h50.10.083,Info_measure_main_exp,2022.2.2,Win32,60.86797736,,,,,,,,,,,,,,,,,,masks/mask_001.jpg,,,,,,,,,,,,,,,,,,,,,,,,,,,,,,,,,,,,,,,,,,,0,1,1,0,1,,,,,,,,,,,,,,,,,,,,,,,,,,,,,,,,,,,,,,,,,,,,,,
945994,001,2022-11-21_01h50.10.083,Info_measure_main_exp,2022.2.2,Win32,60.86797736,,,,,,,,,,,,,,,,,,masks/mask_005.jpg,,,,,,,,,,,,,,,,,,,,,,,,,,,,,,,,,,,,,,,,,,,0,2,2,4,1,,,,,,,,,,,,,,,,,,,,,,,,,,,,,,,,,,,,,,,,,,,,,,
945994,001,2022-11-21_01h50.10.083,Info_measure_main_exp,2022.2.2,Win32,60.86797736,,,,,,,,,,,,,,,,,,masks/mask_002.jpg,,,,,,,,,,,,,,,,,,,,,,,,,,,,,,,,,,,,,,,,,,,0,3,3,1,1,,,,,,,,,,,,,,,,,,,,,,,,,,,,,,,,,,,,,,,,,,,,,,
945994,001,2022-11-21_01h50.10.083,Info_measure_main_exp,2022.2.2,Win32,60.86797736,,,,,,,,,,,,,,,,,,masks/mask_003.jpg,,,,,,,,,,,,,,,,,,,,,,,,,,,,,,,,,,,,,,,,,,,0,4,4,2,1,,,,,,,,,,,,,,,,,,,,,,,,,,,,,,,,,,,,,,,,,,,,,,
945994,001,2022-11-21_01h50.10.083,Info_measure_main_exp,2022.2.2,Win32,60.86797736,,,,,,,,,,,,,,,,,,masks/mask_003.jpg,,,,,,,,,,,,,,,,,,,,,,,,,,,,,,,,,,,,,,,,,,,,,,,,0,0,0,2,1,,,,,,,,,,,,,,,,,,,,,,,,,,,,,,,,,,,,,,,,,
945994,001,2022-11-21_01h50.10.083,Info_measure_main_exp,2022.2.2,Win32,60.86797736,,,,,,,,,,,,,,,,,,masks/mask_001.jpg,,,,,,,,,,,,,,,,,,,,,,,,,,,,,,,,,,,,,,,,,,,,,,,,0,1,1,0,1,,,,,,,,,,,,,,,,,,,,,,,,,,,,,,,,,,,,,,,,,
945994,001,2022-11-21_01h50.10.083,Info_measure_main_exp,2022.2.2,Win32,60.86797736,,,,,,,,,,,,,,,,,,masks/mask_005.jpg,,,,,,,,,,,,,,,,,,,,,,,,,,,,,,,,,,,,,,,,,,,,,,,,0,2,2,4,1,,,,,,,,,,,,,,,,,,,,,,,,,,,,,,,,,,,,,,,,,
945994,001,2022-11-21_01h50.10.083,Info_measure_main_exp,2022.2.2,Win32,60.86797736,,,,,,,,,,,,,,,,,,masks/mask_002.jpg,,,,,,,,,,,,,,,,,,,,,,,,,,,,,,,,,,,,,,,,,,,,,,,,0,3,3,1,1,,,,,,,,,,,,,,,,,,,,,,,,,,,,,,,,,,,,,,,,,
945994,001,2022-11-21_01h50.10.083,Info_measure_main_exp,2022.2.2,Win32,60.86797736,,,,,,,,,,,,,,,,,,masks/mask_004.jpg,,,,,,,,,,,,,,,,,,,,,,,,,,,,,,,,,,,,,,,,,,,,,,,,0,4,4,3,1,,,,,,,,,,,,,,,,,,,,,,,,,,,,,,,,,,,,,,,,,
945994,001,2022-11-21_01h50.10.083,Info_measure_main_exp,2022.2.2,Win32,60.86797736,,,,,,,,,,,,,,,,,,,,,,,,,,,,,,5,1.0021,1,,,,,,,,,,,,0,131,5,5,2298,2274,absent_patch/patch0002298.jpg,absent_patch/patch0002274.jpg,,,,,,,,,,,,,,,,,,,,0.082222222,-0.041111111,1,0,0,response3disk,19,-0.004444444,-0.013333333,1,0,0,center_square,0,18,18,1,1,,,,,,,,,,,,,,,,,,,,,,,
945994,001,2022-11-21_01h50.10.083,Info_measure_main_exp,2022.2.2,Win32,60.86797736,,,,,,,,,,,,,,,,,,masks/mask_005.jpg,,,,,,,,,,,,,,,,,,,,,,,,,,,,,,,,,,,,,,,,,,,0,0,0,4,1,,,,,,,,,,,,,,,,,,,,,,,,,,,,,,,,,,,,,,,,,,,,,,
945994,001,2022-11-21_01h50.10.083,Info_measure_main_exp,2022.2.2,Win32,60.86797736,,,,,,,,,,,,,,,,,,masks/mask_003.jpg,,,,,,,,,,,,,,,,,,,,,,,,,,,,,,,,,,,,,,,,,,,0,1,1,2,1,,,,,,,,,,,,,,,,,,,,,,,,,,,,,,,,,,,,,,,,,,,,,,
945994,001,2022-11-21_01h50.10.083,Info_measure_main_exp,2022.2.2,Win32,60.86797736,,,,,,,,,,,,,,,,,,masks/mask_002.jpg,,,,,,,,,,,,,,,,,,,,,,,,,,,,,,,,,,,,,,,,,,,0,2,2,1,1,,,,,,,,,,,,,,,,,,,,,,,,,,,,,,,,,,,,,,,,,,,,,,
945994,001,2022-11-21_01h50.10.083,Info_measure_main_exp,2022.2.2,Win32,60.86797736,,,,,,,,,,,,,,,,,,masks/mask_001.jpg,,,,,,,,,,,,,,,,,,,,,,,,,,,,,,,,,,,,,,,,,,,0,3,3,0,1,,,,,,,,,,,,,,,,,,,,,,,,,,,,,,,,,,,,,,,,,,,,,,
945994,001,2022-11-21_01h50.10.083,Info_measure_main_exp,2022.2.2,Win32,60.86797736,,,,,,,,,,,,,,,,,,masks/mask_004.jpg,,,,,,,,,,,,,,,,,,,,,,,,,,,,,,,,,,,,,,,,,,,0,4,4,3,1,,,,,,,,,,,,,,,,,,,,,,,,,,,,,,,,,,,,,,,,,,,,,,
945994,001,2022-11-21_01h50.10.083,Info_measure_main_exp,2022.2.2,Win32,60.86797736,,,,,,,,,,,,,,,,,,masks/mask_003.jpg,,,,,,,,,,,,,,,,,,,,,,,,,,,,,,,,,,,,,,,,,,,,,,,,0,0,0,2,1,,,,,,,,,,,,,,,,,,,,,,,,,,,,,,,,,,,,,,,,,
945994,001,2022-11-21_01h50.10.083,Info_measure_main_exp,2022.2.2,Win32,60.86797736,,,,,,,,,,,,,,,,,,masks/mask_002.jpg,,,,,,,,,,,,,,,,,,,,,,,,,,,,,,,,,,,,,,,,,,,,,,,,0,1,1,1,1,,,,,,,,,,,,,,,,,,,,,,,,,,,,,,,,,,,,,,,,,
945994,001,2022-11-21_01h50.10.083,Info_measure_main_exp,2022.2.2,Win32,60.86797736,,,,,,,,,,,,,,,,,,masks/mask_005.jpg,,,,,,,,,,,,,,,,,,,,,,,,,,,,,,,,,,,,,,,,,,,,,,,,0,2,2,4,1,,,,,,,,,,,,,,,,,,,,,,,,,,,,,,,,,,,,,,,,,
945994,001,2022-11-21_01h50.10.083,Info_measure_main_exp,2022.2.2,Win32,60.86797736,,,,,,,,,,,,,,,,,,masks/mask_004.jpg,,,,,,,,,,,,,,,,,,,,,,,,,,,,,,,,,,,,,,,,,,,,,,,,0,3,3,3,1,,,,,,,,,,,,,,,,,,,,,,,,,,,,,,,,,,,,,,,,,
945994,001,2022-11-21_01h50.10.083,Info_measure_main_exp,2022.2.2,Win32,60.86797736,,,,,,,,,,,,,,,,,,masks/mask_001.jpg,,,,,,,,,,,,,,,,,,,,,,,,,,,,,,,,,,,,,,,,,,,,,,,,0,4,4,0,1,,,,,,,,,,,,,,,,,,,,,,,,,,,,,,,,,,,,,,,,,
945994,001,2022-11-21_01h50.10.083,Info_measure_main_exp,2022.2.2,Win32,60.86797736,,,,,,,,,,,,,,,,,,,,,,,,,,,,,,7,1.1185,1,,,,,,,,,,,,0,131,5,5,2178,1986,absent_patch/patch0002178.jpg,absent_patch/patch0001986.jpg,,,,,,,,,,,,,,,,,,,,0.026666667,0.057777778,1,0,0,response1disk,20,0.003333333,0.006666667,1,0,0,center_square,0,19,19,46,1,,,,,,,,,,,,,,,,,,,,,,,
945994,001,2022-11-21_01h50.10.083,Info_measure_main_exp,2022.2.2,Win32,60.86797736,,,,,,,,,,,,,,,,,,masks/mask_001.jpg,,,,,,,,,,,,,,,,,,,,,,,,,,,,,,,,,,,,,,,,,,,0,0,0,0,1,,,,,,,,,,,,,,,,,,,,,,,,,,,,,,,,,,,,,,,,,,,,,,
945994,001,2022-11-21_01h50.10.083,Info_measure_main_exp,2022.2.2,Win32,60.86797736,,,,,,,,,,,,,,,,,,masks/mask_004.jpg,,,,,,,,,,,,,,,,,,,,,,,,,,,,,,,,,,,,,,,,,,,0,1,1,3,1,,,,,,,,,,,,,,,,,,,,,,,,,,,,,,,,,,,,,,,,,,,,,,
945994,001,2022-11-21_01h50.10.083,Info_measure_main_exp,2022.2.2,Win32,60.86797736,,,,,,,,,,,,,,,,,,masks/mask_005.jpg,,,,,,,,,,,,,,,,,,,,,,,,,,,,,,,,,,,,,,,,,,,0,2,2,4,1,,,,,,,,,,,,,,,,,,,,,,,,,,,,,,,,,,,,,,,,,,,,,,
945994,001,2022-11-21_01h50.10.083,Info_measure_main_exp,2022.2.2,Win32,60.86797736,,,,,,,,,,,,,,,,,,masks/mask_003.jpg,,,,,,,,,,,,,,,,,,,,,,,,,,,,,,,,,,,,,,,,,,,0,3,3,2,1,,,,,,,,,,,,,,,,,,,,,,,,,,,,,,,,,,,,,,,,,,,,,,
945994,001,2022-11-21_01h50.10.083,Info_measure_main_exp,2022.2.2,Win32,60.86797736,,,,,,,,,,,,,,,,,,masks/mask_002.jpg,,,,,,,,,,,,,,,,,,,,,,,,,,,,,,,,,,,,,,,,,,,0,4,4,1,1,,,,,,,,,,,,,,,,,,,,,,,,,,,,,,,,,,,,,,,,,,,,,,
945994,001,2022-11-21_01h50.10.083,Info_measure_main_exp,2022.2.2,Win32,60.86797736,,,,,,,,,,,,,,,,,,masks/mask_002.jpg,,,,,,,,,,,,,,,,,,,,,,,,,,,,,,,,,,,,,,,,,,,,,,,,0,0,0,1,1,,,,,,,,,,,,,,,,,,,,,,,,,,,,,,,,,,,,,,,,,
945994,001,2022-11-21_01h50.10.083,Info_measure_main_exp,2022.2.2,Win32,60.86797736,,,,,,,,,,,,,,,,,,masks/mask_001.jpg,,,,,,,,,,,,,,,,,,,,,,,,,,,,,,,,,,,,,,,,,,,,,,,,0,1,1,0,1,,,,,,,,,,,,,,,,,,,,,,,,,,,,,,,,,,,,,,,,,
945994,001,2022-11-21_01h50.10.083,Info_measure_main_exp,2022.2.2,Win32,60.86797736,,,,,,,,,,,,,,,,,,masks/mask_005.jpg,,,,,,,,,,,,,,,,,,,,,,,,,,,,,,,,,,,,,,,,,,,,,,,,0,2,2,4,1,,,,,,,,,,,,,,,,,,,,,,,,,,,,,,,,,,,,,,,,,
945994,001,2022-11-21_01h50.10.083,Info_measure_main_exp,2022.2.2,Win32,60.86797736,,,,,,,,,,,,,,,,,,masks/mask_003.jpg,,,,,,,,,,,,,,,,,,,,,,,,,,,,,,,,,,,,,,,,,,,,,,,,0,3,3,2,1,,,,,,,,,,,,,,,,,,,,,,,,,,,,,,,,,,,,,,,,,
945994,001,2022-11-21_01h50.10.083,Info_measure_main_exp,2022.2.2,Win32,60.86797736,,,,,,,,,,,,,,,,,,masks/mask_004.jpg,,,,,,,,,,,,,,,,,,,,,,,,,,,,,,,,,,,,,,,,,,,,,,,,0,4,4,3,1,,,,,,,,,,,,,,,,,,,,,,,,,,,,,,,,,,,,,,,,,
945994,001,2022-11-21_01h50.10.083,Info_measure_main_exp,2022.2.2,Win32,60.86797736,,,,,,,,,,,,,,,,,,,,,,,,,,,,,,4,0.8694,1,,,,,,,,,,,,0,131,5,5,2142,2082,absent_patch/patch0002142.jpg,absent_patch/patch0002082.jpg,,,,,,,,,,,,,,,,,,,,0.047777778,-0.075555556,1,0,0,response3disk,21,0.006666667,-0.005555556,1,0,0,center_square,0,20,20,88,1,,,,,,,,,,,,,,,,,,,,,,,
945994,001,2022-11-21_01h50.10.083,Info_measure_main_exp,2022.2.2,Win32,60.86797736,,,,,,,,,,,,,,,,,,masks/mask_005.jpg,,,,,,,,,,,,,,,,,,,,,,,,,,,,,,,,,,,,,,,,,,,0,0,0,4,1,,,,,,,,,,,,,,,,,,,,,,,,,,,,,,,,,,,,,,,,,,,,,,
945994,001,2022-11-21_01h50.10.083,Info_measure_main_exp,2022.2.2,Win32,60.86797736,,,,,,,,,,,,,,,,,,masks/mask_004.jpg,,,,,,,,,,,,,,,,,,,,,,,,,,,,,,,,,,,,,,,,,,,0,1,1,3,1,,,,,,,,,,,,,,,,,,,,,,,,,,,,,,,,,,,,,,,,,,,,,,
945994,001,2022-11-21_01h50.10.083,Info_measure_main_exp,2022.2.2,Win32,60.86797736,,,,,,,,,,,,,,,,,,masks/mask_003.jpg,,,,,,,,,,,,,,,,,,,,,,,,,,,,,,,,,,,,,,,,,,,0,2,2,2,1,,,,,,,,,,,,,,,,,,,,,,,,,,,,,,,,,,,,,,,,,,,,,,
945994,001,2022-11-21_01h50.10.083,Info_measure_main_exp,2022.2.2,Win32,60.86797736,,,,,,,,,,,,,,,,,,masks/mask_001.jpg,,,,,,,,,,,,,,,,,,,,,,,,,,,,,,,,,,,,,,,,,,,0,3,3,0,1,,,,,,,,,,,,,,,,,,,,,,,,,,,,,,,,,,,,,,,,,,,,,,
945994,001,2022-11-21_01h50.10.083,Info_measure_main_exp,2022.2.2,Win32,60.86797736,,,,,,,,,,,,,,,,,,masks/mask_002.jpg,,,,,,,,,,,,,,,,,,,,,,,,,,,,,,,,,,,,,,,,,,,0,4,4,1,1,,,,,,,,,,,,,,,,,,,,,,,,,,,,,,,,,,,,,,,,,,,,,,
945994,001,2022-11-21_01h50.10.083,Info_measure_main_exp,2022.2.2,Win32,60.86797736,,,,,,,,,,,,,,,,,,masks/mask_003.jpg,,,,,,,,,,,,,,,,,,,,,,,,,,,,,,,,,,,,,,,,,,,,,,,,0,0,0,2,1,,,,,,,,,,,,,,,,,,,,,,,,,,,,,,,,,,,,,,,,,
945994,001,2022-11-21_01h50.10.083,Info_measure_main_exp,2022.2.2,Win32,60.86797736,,,,,,,,,,,,,,,,,,masks/mask_004.jpg,,,,,,,,,,,,,,,,,,,,,,,,,,,,,,,,,,,,,,,,,,,,,,,,0,1,1,3,1,,,,,,,,,,,,,,,,,,,,,,,,,,,,,,,,,,,,,,,,,
945994,001,2022-11-21_01h50.10.083,Info_measure_main_exp,2022.2.2,Win32,60.86797736,,,,,,,,,,,,,,,,,,masks/mask_002.jpg,,,,,,,,,,,,,,,,,,,,,,,,,,,,,,,,,,,,,,,,,,,,,,,,0,2,2,1,1,,,,,,,,,,,,,,,,,,,,,,,,,,,,,,,,,,,,,,,,,
945994,001,2022-11-21_01h50.10.083,Info_measure_main_exp,2022.2.2,Win32,60.86797736,,,,,,,,,,,,,,,,,,masks/mask_005.jpg,,,,,,,,,,,,,,,,,,,,,,,,,,,,,,,,,,,,,,,,,,,,,,,,0,3,3,4,1,,,,,,,,,,,,,,,,,,,,,,,,,,,,,,,,,,,,,,,,,
945994,001,2022-11-21_01h50.10.083,Info_measure_main_exp,2022.2.2,Win32,60.86797736,,,,,,,,,,,,,,,,,,masks/mask_001.jpg,,,,,,,,,,,,,,,,,,,,,,,,,,,,,,,,,,,,,,,,,,,,,,,,0,4,4,0,1,,,,,,,,,,,,,,,,,,,,,,,,,,,,,,,,,,,,,,,,,
945994,001,2022-11-21_01h50.10.083,Info_measure_main_exp,2022.2.2,Win32,60.86797736,,,,,,,,,,,,,,,,,,,,,,,,,,,,,,6,0.9673,1,,,,,,,,,,,,0,131,5,5,2250,1986,absent_patch/patch0002250.jpg,absent_patch/patch0001986.jpg,,,,,,,,,,,,,,,,,,,,0.107777778,0.064444444,1,0,0,response1disk,22,0.002222222,0,1,0,0,center_square,0,21,21,29,1,,,,,,,,,,,,,,,,,,,,,,,
945994,001,2022-11-21_01h50.10.083,Info_measure_main_exp,2022.2.2,Win32,60.86797736,,,,,,,,,,,,,,,,,,masks/mask_002.jpg,,,,,,,,,,,,,,,,,,,,,,,,,,,,,,,,,,,,,,,,,,,0,0,0,1,1,,,,,,,,,,,,,,,,,,,,,,,,,,,,,,,,,,,,,,,,,,,,,,
945994,001,2022-11-21_01h50.10.083,Info_measure_main_exp,2022.2.2,Win32,60.86797736,,,,,,,,,,,,,,,,,,masks/mask_001.jpg,,,,,,,,,,,,,,,,,,,,,,,,,,,,,,,,,,,,,,,,,,,0,1,1,0,1,,,,,,,,,,,,,,,,,,,,,,,,,,,,,,,,,,,,,,,,,,,,,,
945994,001,2022-11-21_01h50.10.083,Info_measure_main_exp,2022.2.2,Win32,60.86797736,,,,,,,,,,,,,,,,,,masks/mask_005.jpg,,,,,,,,,,,,,,,,,,,,,,,,,,,,,,,,,,,,,,,,,,,0,2,2,4,1,,,,,,,,,,,,,,,,,,,,,,,,,,,,,,,,,,,,,,,,,,,,,,
945994,001,2022-11-21_01h50.10.083,Info_measure_main_exp,2022.2.2,Win32,60.86797736,,,,,,,,,,,,,,,,,,masks/mask_004.jpg,,,,,,,,,,,,,,,,,,,,,,,,,,,,,,,,,,,,,,,,,,,0,3,3,3,1,,,,,,,,,,,,,,,,,,,,,,,,,,,,,,,,,,,,,,,,,,,,,,
945994,001,2022-11-21_01h50.10.083,Info_measure_main_exp,2022.2.2,Win32,60.86797736,,,,,,,,,,,,,,,,,,masks/mask_003.jpg,,,,,,,,,,,,,,,,,,,,,,,,,,,,,,,,,,,,,,,,,,,0,4,4,2,1,,,,,,,,,,,,,,,,,,,,,,,,,,,,,,,,,,,,,,,,,,,,,,
945994,001,2022-11-21_01h50.10.083,Info_measure_main_exp,2022.2.2,Win32,60.86797736,,,,,,,,,,,,,,,,,,masks/mask_003.jpg,,,,,,,,,,,,,,,,,,,,,,,,,,,,,,,,,,,,,,,,,,,,,,,,0,0,0,2,1,,,,,,,,,,,,,,,,,,,,,,,,,,,,,,,,,,,,,,,,,
945994,001,2022-11-21_01h50.10.083,Info_measure_main_exp,2022.2.2,Win32,60.86797736,,,,,,,,,,,,,,,,,,masks/mask_004.jpg,,,,,,,,,,,,,,,,,,,,,,,,,,,,,,,,,,,,,,,,,,,,,,,,0,1,1,3,1,,,,,,,,,,,,,,,,,,,,,,,,,,,,,,,,,,,,,,,,,
945994,001,2022-11-21_01h50.10.083,Info_measure_main_exp,2022.2.2,Win32,60.86797736,,,,,,,,,,,,,,,,,,masks/mask_001.jpg,,,,,,,,,,,,,,,,,,,,,,,,,,,,,,,,,,,,,,,,,,,,,,,,0,2,2,0,1,,,,,,,,,,,,,,,,,,,,,,,,,,,,,,,,,,,,,,,,,
945994,001,2022-11-21_01h50.10.083,Info_measure_main_exp,2022.2.2,Win32,60.86797736,,,,,,,,,,,,,,,,,,masks/mask_002.jpg,,,,,,,,,,,,,,,,,,,,,,,,,,,,,,,,,,,,,,,,,,,,,,,,0,3,3,1,1,,,,,,,,,,,,,,,,,,,,,,,,,,,,,,,,,,,,,,,,,
945994,001,2022-11-21_01h50.10.083,Info_measure_main_exp,2022.2.2,Win32,60.86797736,,,,,,,,,,,,,,,,,,masks/mask_005.jpg,,,,,,,,,,,,,,,,,,,,,,,,,,,,,,,,,,,,,,,,,,,,,,,,0,4,4,4,1,,,,,,,,,,,,,,,,,,,,,,,,,,,,,,,,,,,,,,,,,
945994,001,2022-11-21_01h50.10.083,Info_measure_main_exp,2022.2.2,Win32,60.86797736,,,,,,,,,,,,,,,,,,,,,,,,,,,,,,6,0.8018,1,,,,,,,,,,,,0,131,5,5,2082,2250,absent_patch/patch0002082.jpg,absent_patch/patch0002250.jpg,,,,,,,,,,,,,,,,,,,,0.08,0.046666667,1,0,0,response1disk,23,-0.002222222,0.012222222,1,0,0,center_square,0,22,22,3,1,,,,,,,,,,,,,,,,,,,,,,,
945994,001,2022-11-21_01h50.10.083,Info_measure_main_exp,2022.2.2,Win32,60.86797736,,,,,,,,,,,,,,,,,,masks/mask_003.jpg,,,,,,,,,,,,,,,,,,,,,,,,,,,,,,,,,,,,,,,,,,,0,0,0,2,1,,,,,,,,,,,,,,,,,,,,,,,,,,,,,,,,,,,,,,,,,,,,,,
945994,001,2022-11-21_01h50.10.083,Info_measure_main_exp,2022.2.2,Win32,60.86797736,,,,,,,,,,,,,,,,,,masks/mask_001.jpg,,,,,,,,,,,,,,,,,,,,,,,,,,,,,,,,,,,,,,,,,,,0,1,1,0,1,,,,,,,,,,,,,,,,,,,,,,,,,,,,,,,,,,,,,,,,,,,,,,
945994,001,2022-11-21_01h50.10.083,Info_measure_main_exp,2022.2.2,Win32,60.86797736,,,,,,,,,,,,,,,,,,masks/mask_005.jpg,,,,,,,,,,,,,,,,,,,,,,,,,,,,,,,,,,,,,,,,,,,0,2,2,4,1,,,,,,,,,,,,,,,,,,,,,,,,,,,,,,,,,,,,,,,,,,,,,,
945994,001,2022-11-21_01h50.10.083,Info_measure_main_exp,2022.2.2,Win32,60.86797736,,,,,,,,,,,,,,,,,,masks/mask_002.jpg,,,,,,,,,,,,,,,,,,,,,,,,,,,,,,,,,,,,,,,,,,,0,3,3,1,1,,,,,,,,,,,,,,,,,,,,,,,,,,,,,,,,,,,,,,,,,,,,,,
945994,001,2022-11-21_01h50.10.083,Info_measure_main_exp,2022.2.2,Win32,60.86797736,,,,,,,,,,,,,,,,,,masks/mask_004.jpg,,,,,,,,,,,,,,,,,,,,,,,,,,,,,,,,,,,,,,,,,,,0,4,4,3,1,,,,,,,,,,,,,,,,,,,,,,,,,,,,,,,,,,,,,,,,,,,,,,
945994,001,2022-11-21_01h50.10.083,Info_measure_main_exp,2022.2.2,Win32,60.86797736,,,,,,,,,,,,,,,,,,masks/mask_005.jpg,,,,,,,,,,,,,,,,,,,,,,,,,,,,,,,,,,,,,,,,,,,,,,,,0,0,0,4,1,,,,,,,,,,,,,,,,,,,,,,,,,,,,,,,,,,,,,,,,,
945994,001,2022-11-21_01h50.10.083,Info_measure_main_exp,2022.2.2,Win32,60.86797736,,,,,,,,,,,,,,,,,,masks/mask_002.jpg,,,,,,,,,,,,,,,,,,,,,,,,,,,,,,,,,,,,,,,,,,,,,,,,0,1,1,1,1,,,,,,,,,,,,,,,,,,,,,,,,,,,,,,,,,,,,,,,,,
945994,001,2022-11-21_01h50.10.083,Info_measure_main_exp,2022.2.2,Win32,60.86797736,,,,,,,,,,,,,,,,,,masks/mask_004.jpg,,,,,,,,,,,,,,,,,,,,,,,,,,,,,,,,,,,,,,,,,,,,,,,,0,2,2,3,1,,,,,,,,,,,,,,,,,,,,,,,,,,,,,,,,,,,,,,,,,
945994,001,2022-11-21_01h50.10.083,Info_measure_main_exp,2022.2.2,Win32,60.86797736,,,,,,,,,,,,,,,,,,masks/mask_001.jpg,,,,,,,,,,,,,,,,,,,,,,,,,,,,,,,,,,,,,,,,,,,,,,,,0,3,3,0,1,,,,,,,,,,,,,,,,,,,,,,,,,,,,,,,,,,,,,,,,,
945994,001,2022-11-21_01h50.10.083,Info_measure_main_exp,2022.2.2,Win32,60.86797736,,,,,,,,,,,,,,,,,,masks/mask_003.jpg,,,,,,,,,,,,,,,,,,,,,,,,,,,,,,,,,,,,,,,,,,,,,,,,0,4,4,2,1,,,,,,,,,,,,,,,,,,,,,,,,,,,,,,,,,,,,,,,,,
945994,001,2022-11-21_01h50.10.083,Info_measure_main_exp,2022.2.2,Win32,60.86797736,,,,,,,,,,,,,,,,,,,,,,,,,,,,,,7,0.4999,1,,,,,,,,,,,,0,131,5,5,1950,2298,absent_patch/patch0001950.jpg,absent_patch/patch0002298.jpg,,,,,,,,,,,,,,,,,,,,0.036666667,0.055555556,1,0,0,response1disk,24,0.002222222,-0.007777778,1,0,0,center_square,0,23,23,18,1,,,,,,,,,,,,,,,,,,,,,,,
945994,001,2022-11-21_01h50.10.083,Info_measure_main_exp,2022.2.2,Win32,60.86797736,,,,,,,,,,,,,,,,,,masks/mask_001.jpg,,,,,,,,,,,,,,,,,,,,,,,,,,,,,,,,,,,,,,,,,,,0,0,0,0,1,,,,,,,,,,,,,,,,,,,,,,,,,,,,,,,,,,,,,,,,,,,,,,
945994,001,2022-11-21_01h50.10.083,Info_measure_main_exp,2022.2.2,Win32,60.86797736,,,,,,,,,,,,,,,,,,masks/mask_002.jpg,,,,,,,,,,,,,,,,,,,,,,,,,,,,,,,,,,,,,,,,,,,0,1,1,1,1,,,,,,,,,,,,,,,,,,,,,,,,,,,,,,,,,,,,,,,,,,,,,,
945994,001,2022-11-21_01h50.10.083,Info_measure_main_exp,2022.2.2,Win32,60.86797736,,,,,,,,,,,,,,,,,,masks/mask_004.jpg,,,,,,,,,,,,,,,,,,,,,,,,,,,,,,,,,,,,,,,,,,,0,2,2,3,1,,,,,,,,,,,,,,,,,,,,,,,,,,,,,,,,,,,,,,,,,,,,,,
945994,001,2022-11-21_01h50.10.083,Info_measure_main_exp,2022.2.2,Win32,60.86797736,,,,,,,,,,,,,,,,,,masks/mask_003.jpg,,,,,,,,,,,,,,,,,,,,,,,,,,,,,,,,,,,,,,,,,,,0,3,3,2,1,,,,,,,,,,,,,,,,,,,,,,,,,,,,,,,,,,,,,,,,,,,,,,
945994,001,2022-11-21_01h50.10.083,Info_measure_main_exp,2022.2.2,Win32,60.86797736,,,,,,,,,,,,,,,,,,masks/mask_005.jpg,,,,,,,,,,,,,,,,,,,,,,,,,,,,,,,,,,,,,,,,,,,0,4,4,4,1,,,,,,,,,,,,,,,,,,,,,,,,,,,,,,,,,,,,,,,,,,,,,,
945994,001,2022-11-21_01h50.10.083,Info_measure_main_exp,2022.2.2,Win32,60.86797736,,,,,,,,,,,,,,,,,,masks/mask_002.jpg,,,,,,,,,,,,,,,,,,,,,,,,,,,,,,,,,,,,,,,,,,,,,,,,0,0,0,1,1,,,,,,,,,,,,,,,,,,,,,,,,,,,,,,,,,,,,,,,,,
945994,001,2022-11-21_01h50.10.083,Info_measure_main_exp,2022.2.2,Win32,60.86797736,,,,,,,,,,,,,,,,,,masks/mask_005.jpg,,,,,,,,,,,,,,,,,,,,,,,,,,,,,,,,,,,,,,,,,,,,,,,,0,1,1,4,1,,,,,,,,,,,,,,,,,,,,,,,,,,,,,,,,,,,,,,,,,
945994,001,2022-11-21_01h50.10.083,Info_measure_main_exp,2022.2.2,Win32,60.86797736,,,,,,,,,,,,,,,,,,masks/mask_003.jpg,,,,,,,,,,,,,,,,,,,,,,,,,,,,,,,,,,,,,,,,,,,,,,,,0,2,2,2,1,,,,,,,,,,,,,,,,,,,,,,,,,,,,,,,,,,,,,,,,,
945994,001,2022-11-21_01h50.10.083,Info_measure_main_exp,2022.2.2,Win32,60.86797736,,,,,,,,,,,,,,,,,,masks/mask_004.jpg,,,,,,,,,,,,,,,,,,,,,,,,,,,,,,,,,,,,,,,,,,,,,,,,0,3,3,3,1,,,,,,,,,,,,,,,,,,,,,,,,,,,,,,,,,,,,,,,,,
945994,001,2022-11-21_01h50.10.083,Info_measure_main_exp,2022.2.2,Win32,60.86797736,,,,,,,,,,,,,,,,,,masks/mask_001.jpg,,,,,,,,,,,,,,,,,,,,,,,,,,,,,,,,,,,,,,,,,,,,,,,,0,4,4,0,1,,,,,,,,,,,,,,,,,,,,,,,,,,,,,,,,,,,,,,,,,
945994,001,2022-11-21_01h50.10.083,Info_measure_main_exp,2022.2.2,Win32,60.86797736,,,,,,,,,,,,,,,,,,,,,,,,,,,,,,0,0.4664,1,,,,,,,,,,,,0,131,5,5,2238,2238,absent_patch/patch0002238.jpg,absent_patch/patch0002238.jpg,,,,,,,,,,,,,,,,,,,,-0.034444444,0.08,1,0,0,response7disk,25,-0.003333333,0.008888889,1,0,0,center_square,0,24,24,58,1,,,,,,,,,,,,,,,,,,,,,,,
945994,001,2022-11-21_01h50.10.083,Info_measure_main_exp,2022.2.2,Win32,60.86797736,,,,,,,,,,,,,,,,,,masks/mask_005.jpg,,,,,,,,,,,,,,,,,,,,,,,,,,,,,,,,,,,,,,,,,,,0,0,0,4,1,,,,,,,,,,,,,,,,,,,,,,,,,,,,,,,,,,,,,,,,,,,,,,
945994,001,2022-11-21_01h50.10.083,Info_measure_main_exp,2022.2.2,Win32,60.86797736,,,,,,,,,,,,,,,,,,masks/mask_001.jpg,,,,,,,,,,,,,,,,,,,,,,,,,,,,,,,,,,,,,,,,,,,0,1,1,0,1,,,,,,,,,,,,,,,,,,,,,,,,,,,,,,,,,,,,,,,,,,,,,,
945994,001,2022-11-21_01h50.10.083,Info_measure_main_exp,2022.2.2,Win32,60.86797736,,,,,,,,,,,,,,,,,,masks/mask_002.jpg,,,,,,,,,,,,,,,,,,,,,,,,,,,,,,,,,,,,,,,,,,,0,2,2,1,1,,,,,,,,,,,,,,,,,,,,,,,,,,,,,,,,,,,,,,,,,,,,,,
945994,001,2022-11-21_01h50.10.083,Info_measure_main_exp,2022.2.2,Win32,60.86797736,,,,,,,,,,,,,,,,,,masks/mask_003.jpg,,,,,,,,,,,,,,,,,,,,,,,,,,,,,,,,,,,,,,,,,,,0,3,3,2,1,,,,,,,,,,,,,,,,,,,,,,,,,,,,,,,,,,,,,,,,,,,,,,
945994,001,2022-11-21_01h50.10.083,Info_measure_main_exp,2022.2.2,Win32,60.86797736,,,,,,,,,,,,,,,,,,masks/mask_004.jpg,,,,,,,,,,,,,,,,,,,,,,,,,,,,,,,,,,,,,,,,,,,0,4,4,3,1,,,,,,,,,,,,,,,,,,,,,,,,,,,,,,,,,,,,,,,,,,,,,,
945994,001,2022-11-21_01h50.10.083,Info_measure_main_exp,2022.2.2,Win32,60.86797736,,,,,,,,,,,,,,,,,,masks/mask_005.jpg,,,,,,,,,,,,,,,,,,,,,,,,,,,,,,,,,,,,,,,,,,,,,,,,0,0,0,4,1,,,,,,,,,,,,,,,,,,,,,,,,,,,,,,,,,,,,,,,,,
945994,001,2022-11-21_01h50.10.083,Info_measure_main_exp,2022.2.2,Win32,60.86797736,,,,,,,,,,,,,,,,,,masks/mask_004.jpg,,,,,,,,,,,,,,,,,,,,,,,,,,,,,,,,,,,,,,,,,,,,,,,,0,1,1,3,1,,,,,,,,,,,,,,,,,,,,,,,,,,,,,,,,,,,,,,,,,
945994,001,2022-11-21_01h50.10.083,Info_measure_main_exp,2022.2.2,Win32,60.86797736,,,,,,,,,,,,,,,,,,masks/mask_003.jpg,,,,,,,,,,,,,,,,,,,,,,,,,,,,,,,,,,,,,,,,,,,,,,,,0,2,2,2,1,,,,,,,,,,,,,,,,,,,,,,,,,,,,,,,,,,,,,,,,,
945994,001,2022-11-21_01h50.10.083,Info_measure_main_exp,2022.2.2,Win32,60.86797736,,,,,,,,,,,,,,,,,,masks/mask_002.jpg,,,,,,,,,,,,,,,,,,,,,,,,,,,,,,,,,,,,,,,,,,,,,,,,0,3,3,1,1,,,,,,,,,,,,,,,,,,,,,,,,,,,,,,,,,,,,,,,,,
945994,001,2022-11-21_01h50.10.083,Info_measure_main_exp,2022.2.2,Win32,60.86797736,,,,,,,,,,,,,,,,,,masks/mask_001.jpg,,,,,,,,,,,,,,,,,,,,,,,,,,,,,,,,,,,,,,,,,,,,,,,,0,4,4,0,1,,,,,,,,,,,,,,,,,,,,,,,,,,,,,,,,,,,,,,,,,
945994,001,2022-11-21_01h50.10.083,Info_measure_main_exp,2022.2.2,Win32,60.86797736,,,,,,,,,,,,,,,,,,,,,,,,,,,,,,5,0.8669,1,,,,,,,,,,,,1,131,5,5,2082,1,absent_patch/patch0002082.jpg,present_patch/cong_131_5_a.jpg,,,,,,,,,,,,,,,,,,,,0.115555556,-0.035555556,1,0,0,response3disk,26,0.001111111,-0.005555556,1,0,0,center_square,0,25,25,65,1,,,,,,,,,,,,,,,,,,,,,,,
945994,001,2022-11-21_01h50.10.083,Info_measure_main_exp,2022.2.2,Win32,60.86797736,,,,,,,,,,,,,,,,,,masks/mask_004.jpg,,,,,,,,,,,,,,,,,,,,,,,,,,,,,,,,,,,,,,,,,,,0,0,0,3,1,,,,,,,,,,,,,,,,,,,,,,,,,,,,,,,,,,,,,,,,,,,,,,
945994,001,2022-11-21_01h50.10.083,Info_measure_main_exp,2022.2.2,Win32,60.86797736,,,,,,,,,,,,,,,,,,masks/mask_001.jpg,,,,,,,,,,,,,,,,,,,,,,,,,,,,,,,,,,,,,,,,,,,0,1,1,0,1,,,,,,,,,,,,,,,,,,,,,,,,,,,,,,,,,,,,,,,,,,,,,,
945994,001,2022-11-21_01h50.10.083,Info_measure_main_exp,2022.2.2,Win32,60.86797736,,,,,,,,,,,,,,,,,,masks/mask_003.jpg,,,,,,,,,,,,,,,,,,,,,,,,,,,,,,,,,,,,,,,,,,,0,2,2,2,1,,,,,,,,,,,,,,,,,,,,,,,,,,,,,,,,,,,,,,,,,,,,,,
945994,001,2022-11-21_01h50.10.083,Info_measure_main_exp,2022.2.2,Win32,60.86797736,,,,,,,,,,,,,,,,,,masks/mask_005.jpg,,,,,,,,,,,,,,,,,,,,,,,,,,,,,,,,,,,,,,,,,,,0,3,3,4,1,,,,,,,,,,,,,,,,,,,,,,,,,,,,,,,,,,,,,,,,,,,,,,
945994,001,2022-11-21_01h50.10.083,Info_measure_main_exp,2022.2.2,Win32,60.86797736,,,,,,,,,,,,,,,,,,masks/mask_002.jpg,,,,,,,,,,,,,,,,,,,,,,,,,,,,,,,,,,,,,,,,,,,0,4,4,1,1,,,,,,,,,,,,,,,,,,,,,,,,,,,,,,,,,,,,,,,,,,,,,,
945994,001,2022-11-21_01h50.10.083,Info_measure_main_exp,2022.2.2,Win32,60.86797736,,,,,,,,,,,,,,,,,,masks/mask_005.jpg,,,,,,,,,,,,,,,,,,,,,,,,,,,,,,,,,,,,,,,,,,,,,,,,0,0,0,4,1,,,,,,,,,,,,,,,,,,,,,,,,,,,,,,,,,,,,,,,,,
945994,001,2022-11-21_01h50.10.083,Info_measure_main_exp,2022.2.2,Win32,60.86797736,,,,,,,,,,,,,,,,,,masks/mask_004.jpg,,,,,,,,,,,,,,,,,,,,,,,,,,,,,,,,,,,,,,,,,,,,,,,,0,1,1,3,1,,,,,,,,,,,,,,,,,,,,,,,,,,,,,,,,,,,,,,,,,
945994,001,2022-11-21_01h50.10.083,Info_measure_main_exp,2022.2.2,Win32,60.86797736,,,,,,,,,,,,,,,,,,masks/mask_003.jpg,,,,,,,,,,,,,,,,,,,,,,,,,,,,,,,,,,,,,,,,,,,,,,,,0,2,2,2,1,,,,,,,,,,,,,,,,,,,,,,,,,,,,,,,,,,,,,,,,,
945994,001,2022-11-21_01h50.10.083,Info_measure_main_exp,2022.2.2,Win32,60.86797736,,,,,,,,,,,,,,,,,,masks/mask_002.jpg,,,,,,,,,,,,,,,,,,,,,,,,,,,,,,,,,,,,,,,,,,,,,,,,0,3,3,1,1,,,,,,,,,,,,,,,,,,,,,,,,,,,,,,,,,,,,,,,,,
945994,001,2022-11-21_01h50.10.083,Info_measure_main_exp,2022.2.2,Win32,60.86797736,,,,,,,,,,,,,,,,,,masks/mask_001.jpg,,,,,,,,,,,,,,,,,,,,,,,,,,,,,,,,,,,,,,,,,,,,,,,,0,4,4,0,1,,,,,,,,,,,,,,,,,,,,,,,,,,,,,,,,,,,,,,,,,
945994,001,2022-11-21_01h50.10.083,Info_measure_main_exp,2022.2.2,Win32,60.86797736,,,,,,,,,,,,,,,,,,,,,,,,,,,,,,6,0.7002,1,,,,,,,,,,,,0,131,5,5,2154,2298,absent_patch/patch0002154.jpg,absent_patch/patch0002298.jpg,,,,,,,,,,,,,,,,,,,,0.087777778,0.02,1,0,0,response1disk,27,0.001111111,0.002222222,1,0,0,center_square,0,26,26,27,1,,,,,,,,,,,,,,,,,,,,,,,
945994,001,2022-11-21_01h50.10.083,Info_measure_main_exp,2022.2.2,Win32,60.86797736,,,,,,,,,,,,,,,,,,masks/mask_004.jpg,,,,,,,,,,,,,,,,,,,,,,,,,,,,,,,,,,,,,,,,,,,0,0,0,3,1,,,,,,,,,,,,,,,,,,,,,,,,,,,,,,,,,,,,,,,,,,,,,,
945994,001,2022-11-21_01h50.10.083,Info_measure_main_exp,2022.2.2,Win32,60.86797736,,,,,,,,,,,,,,,,,,masks/mask_003.jpg,,,,,,,,,,,,,,,,,,,,,,,,,,,,,,,,,,,,,,,,,,,0,1,1,2,1,,,,,,,,,,,,,,,,,,,,,,,,,,,,,,,,,,,,,,,,,,,,,,
945994,001,2022-11-21_01h50.10.083,Info_measure_main_exp,2022.2.2,Win32,60.86797736,,,,,,,,,,,,,,,,,,masks/mask_001.jpg,,,,,,,,,,,,,,,,,,,,,,,,,,,,,,,,,,,,,,,,,,,0,2,2,0,1,,,,,,,,,,,,,,,,,,,,,,,,,,,,,,,,,,,,,,,,,,,,,,
945994,001,2022-11-21_01h50.10.083,Info_measure_main_exp,2022.2.2,Win32,60.86797736,,,,,,,,,,,,,,,,,,masks/mask_005.jpg,,,,,,,,,,,,,,,,,,,,,,,,,,,,,,,,,,,,,,,,,,,0,3,3,4,1,,,,,,,,,,,,,,,,,,,,,,,,,,,,,,,,,,,,,,,,,,,,,,
945994,001,2022-11-21_01h50.10.083,Info_measure_main_exp,2022.2.2,Win32,60.86797736,,,,,,,,,,,,,,,,,,masks/mask_002.jpg,,,,,,,,,,,,,,,,,,,,,,,,,,,,,,,,,,,,,,,,,,,0,4,4,1,1,,,,,,,,,,,,,,,,,,,,,,,,,,,,,,,,,,,,,,,,,,,,,,
945994,001,2022-11-21_01h50.10.083,Info_measure_main_exp,2022.2.2,Win32,60.86797736,,,,,,,,,,,,,,,,,,masks/mask_001.jpg,,,,,,,,,,,,,,,,,,,,,,,,,,,,,,,,,,,,,,,,,,,,,,,,0,0,0,0,1,,,,,,,,,,,,,,,,,,,,,,,,,,,,,,,,,,,,,,,,,
945994,001,2022-11-21_01h50.10.083,Info_measure_main_exp,2022.2.2,Win32,60.86797736,,,,,,,,,,,,,,,,,,masks/mask_003.jpg,,,,,,,,,,,,,,,,,,,,,,,,,,,,,,,,,,,,,,,,,,,,,,,,0,1,1,2,1,,,,,,,,,,,,,,,,,,,,,,,,,,,,,,,,,,,,,,,,,
945994,001,2022-11-21_01h50.10.083,Info_measure_main_exp,2022.2.2,Win32,60.86797736,,,,,,,,,,,,,,,,,,masks/mask_005.jpg,,,,,,,,,,,,,,,,,,,,,,,,,,,,,,,,,,,,,,,,,,,,,,,,0,2,2,4,1,,,,,,,,,,,,,,,,,,,,,,,,,,,,,,,,,,,,,,,,,
945994,001,2022-11-21_01h50.10.083,Info_measure_main_exp,2022.2.2,Win32,60.86797736,,,,,,,,,,,,,,,,,,masks/mask_004.jpg,,,,,,,,,,,,,,,,,,,,,,,,,,,,,,,,,,,,,,,,,,,,,,,,0,3,3,3,1,,,,,,,,,,,,,,,,,,,,,,,,,,,,,,,,,,,,,,,,,
945994,001,2022-11-21_01h50.10.083,Info_measure_main_exp,2022.2.2,Win32,60.86797736,,,,,,,,,,,,,,,,,,masks/mask_002.jpg,,,,,,,,,,,,,,,,,,,,,,,,,,,,,,,,,,,,,,,,,,,,,,,,0,4,4,1,1,,,,,,,,,,,,,,,,,,,,,,,,,,,,,,,,,,,,,,,,,
945994,001,2022-11-21_01h50.10.083,Info_measure_main_exp,2022.2.2,Win32,60.86797736,,,,,,,,,,,,,,,,,,,,,,,,,,,,,,6,0.4525,1,,,,,,,,,,,,0,131,5,5,2082,1986,absent_patch/patch0002082.jpg,absent_patch/patch0001986.jpg,,,,,,,,,,,,,,,,,,,,0.094444444,0.026666667,1,0,0,response1disk,28,0,-0.003333333,1,0,0,center_square,0,27,27,94,1,,,,,,,,,,,,,,,,,,,,,,,
945994,001,2022-11-21_01h50.10.083,Info_measure_main_exp,2022.2.2,Win32,60.86797736,,,,,,,,,,,,,,,,,,masks/mask_002.jpg,,,,,,,,,,,,,,,,,,,,,,,,,,,,,,,,,,,,,,,,,,,0,0,0,1,1,,,,,,,,,,,,,,,,,,,,,,,,,,,,,,,,,,,,,,,,,,,,,,
945994,001,2022-11-21_01h50.10.083,Info_measure_main_exp,2022.2.2,Win32,60.86797736,,,,,,,,,,,,,,,,,,masks/mask_005.jpg,,,,,,,,,,,,,,,,,,,,,,,,,,,,,,,,,,,,,,,,,,,0,1,1,4,1,,,,,,,,,,,,,,,,,,,,,,,,,,,,,,,,,,,,,,,,,,,,,,
945994,001,2022-11-21_01h50.10.083,Info_measure_main_exp,2022.2.2,Win32,60.86797736,,,,,,,,,,,,,,,,,,masks/mask_003.jpg,,,,,,,,,,,,,,,,,,,,,,,,,,,,,,,,,,,,,,,,,,,0,2,2,2,1,,,,,,,,,,,,,,,,,,,,,,,,,,,,,,,,,,,,,,,,,,,,,,
945994,001,2022-11-21_01h50.10.083,Info_measure_main_exp,2022.2.2,Win32,60.86797736,,,,,,,,,,,,,,,,,,masks/mask_001.jpg,,,,,,,,,,,,,,,,,,,,,,,,,,,,,,,,,,,,,,,,,,,0,3,3,0,1,,,,,,,,,,,,,,,,,,,,,,,,,,,,,,,,,,,,,,,,,,,,,,
945994,001,2022-11-21_01h50.10.083,Info_measure_main_exp,2022.2.2,Win32,60.86797736,,,,,,,,,,,,,,,,,,masks/mask_004.jpg,,,,,,,,,,,,,,,,,,,,,,,,,,,,,,,,,,,,,,,,,,,0,4,4,3,1,,,,,,,,,,,,,,,,,,,,,,,,,,,,,,,,,,,,,,,,,,,,,,
945994,001,2022-11-21_01h50.10.083,Info_measure_main_exp,2022.2.2,Win32,60.86797736,,,,,,,,,,,,,,,,,,masks/mask_004.jpg,,,,,,,,,,,,,,,,,,,,,,,,,,,,,,,,,,,,,,,,,,,,,,,,0,0,0,3,1,,,,,,,,,,,,,,,,,,,,,,,,,,,,,,,,,,,,,,,,,
945994,001,2022-11-21_01h50.10.083,Info_measure_main_exp,2022.2.2,Win32,60.86797736,,,,,,,,,,,,,,,,,,masks/mask_002.jpg,,,,,,,,,,,,,,,,,,,,,,,,,,,,,,,,,,,,,,,,,,,,,,,,0,1,1,1,1,,,,,,,,,,,,,,,,,,,,,,,,,,,,,,,,,,,,,,,,,
945994,001,2022-11-21_01h50.10.083,Info_measure_main_exp,2022.2.2,Win32,60.86797736,,,,,,,,,,,,,,,,,,masks/mask_003.jpg,,,,,,,,,,,,,,,,,,,,,,,,,,,,,,,,,,,,,,,,,,,,,,,,0,2,2,2,1,,,,,,,,,,,,,,,,,,,,,,,,,,,,,,,,,,,,,,,,,
945994,001,2022-11-21_01h50.10.083,Info_measure_main_exp,2022.2.2,Win32,60.86797736,,,,,,,,,,,,,,,,,,masks/mask_005.jpg,,,,,,,,,,,,,,,,,,,,,,,,,,,,,,,,,,,,,,,,,,,,,,,,0,3,3,4,1,,,,,,,,,,,,,,,,,,,,,,,,,,,,,,,,,,,,,,,,,
945994,001,2022-11-21_01h50.10.083,Info_measure_main_exp,2022.2.2,Win32,60.86797736,,,,,,,,,,,,,,,,,,masks/mask_001.jpg,,,,,,,,,,,,,,,,,,,,,,,,,,,,,,,,,,,,,,,,,,,,,,,,0,4,4,0,1,,,,,,,,,,,,,,,,,,,,,,,,,,,,,,,,,,,,,,,,,
945994,001,2022-11-21_01h50.10.083,Info_measure_main_exp,2022.2.2,Win32,60.86797736,,,,,,,,,,,,,,,,,,,,,,,,,,,,,,0,0.4499,1,,,,,,,,,,,,0,131,5,5,2142,2142,absent_patch/patch0002142.jpg,absent_patch/patch0002142.jpg,,,,,,,,,,,,,,,,,,,,-0.033333333,0.068888889,1,0,0,response7disk,29,-0.014444444,0.004444444,1,0,0,center_square,0,28,28,13,1,,,,,,,,,,,,,,,,,,,,,,,
945994,001,2022-11-21_01h50.10.083,Info_measure_main_exp,2022.2.2,Win32,60.86797736,,,,,,,,,,,,,,,,,,masks/mask_003.jpg,,,,,,,,,,,,,,,,,,,,,,,,,,,,,,,,,,,,,,,,,,,0,0,0,2,1,,,,,,,,,,,,,,,,,,,,,,,,,,,,,,,,,,,,,,,,,,,,,,
945994,001,2022-11-21_01h50.10.083,Info_measure_main_exp,2022.2.2,Win32,60.86797736,,,,,,,,,,,,,,,,,,masks/mask_005.jpg,,,,,,,,,,,,,,,,,,,,,,,,,,,,,,,,,,,,,,,,,,,0,1,1,4,1,,,,,,,,,,,,,,,,,,,,,,,,,,,,,,,,,,,,,,,,,,,,,,
945994,001,2022-11-21_01h50.10.083,Info_measure_main_exp,2022.2.2,Win32,60.86797736,,,,,,,,,,,,,,,,,,masks/mask_004.jpg,,,,,,,,,,,,,,,,,,,,,,,,,,,,,,,,,,,,,,,,,,,0,2,2,3,1,,,,,,,,,,,,,,,,,,,,,,,,,,,,,,,,,,,,,,,,,,,,,,
945994,001,2022-11-21_01h50.10.083,Info_measure_main_exp,2022.2.2,Win32,60.86797736,,,,,,,,,,,,,,,,,,masks/mask_002.jpg,,,,,,,,,,,,,,,,,,,,,,,,,,,,,,,,,,,,,,,,,,,0,3,3,1,1,,,,,,,,,,,,,,,,,,,,,,,,,,,,,,,,,,,,,,,,,,,,,,
945994,001,2022-11-21_01h50.10.083,Info_measure_main_exp,2022.2.2,Win32,60.86797736,,,,,,,,,,,,,,,,,,masks/mask_001.jpg,,,,,,,,,,,,,,,,,,,,,,,,,,,,,,,,,,,,,,,,,,,0,4,4,0,1,,,,,,,,,,,,,,,,,,,,,,,,,,,,,,,,,,,,,,,,,,,,,,
945994,001,2022-11-21_01h50.10.083,Info_measure_main_exp,2022.2.2,Win32,60.86797736,,,,,,,,,,,,,,,,,,masks/mask_005.jpg,,,,,,,,,,,,,,,,,,,,,,,,,,,,,,,,,,,,,,,,,,,,,,,,0,0,0,4,1,,,,,,,,,,,,,,,,,,,,,,,,,,,,,,,,,,,,,,,,,
945994,001,2022-11-21_01h50.10.083,Info_measure_main_exp,2022.2.2,Win32,60.86797736,,,,,,,,,,,,,,,,,,masks/mask_001.jpg,,,,,,,,,,,,,,,,,,,,,,,,,,,,,,,,,,,,,,,,,,,,,,,,0,1,1,0,1,,,,,,,,,,,,,,,,,,,,,,,,,,,,,,,,,,,,,,,,,
945994,001,2022-11-21_01h50.10.083,Info_measure_main_exp,2022.2.2,Win32,60.86797736,,,,,,,,,,,,,,,,,,masks/mask_003.jpg,,,,,,,,,,,,,,,,,,,,,,,,,,,,,,,,,,,,,,,,,,,,,,,,0,2,2,2,1,,,,,,,,,,,,,,,,,,,,,,,,,,,,,,,,,,,,,,,,,
945994,001,2022-11-21_01h50.10.083,Info_measure_main_exp,2022.2.2,Win32,60.86797736,,,,,,,,,,,,,,,,,,masks/mask_002.jpg,,,,,,,,,,,,,,,,,,,,,,,,,,,,,,,,,,,,,,,,,,,,,,,,0,3,3,1,1,,,,,,,,,,,,,,,,,,,,,,,,,,,,,,,,,,,,,,,,,
945994,001,2022-11-21_01h50.10.083,Info_measure_main_exp,2022.2.2,Win32,60.86797736,,,,,,,,,,,,,,,,,,masks/mask_004.jpg,,,,,,,,,,,,,,,,,,,,,,,,,,,,,,,,,,,,,,,,,,,,,,,,0,4,4,3,1,,,,,,,,,,,,,,,,,,,,,,,,,,,,,,,,,,,,,,,,,
945994,001,2022-11-21_01h50.10.083,Info_measure_main_exp,2022.2.2,Win32,60.86797736,,,,,,,,,,,,,,,,,,,,,,,,,,,,,,4,0.5192,1,,,,,,,,,,,,1,131,5,5,1,1986,present_patch/cong_131_5_a.jpg,absent_patch/patch0001986.jpg,,,,,,,,,,,,,,,,,,,,0.024444444,-0.08,1,0,0,response3disk,30,-0.001111111,-0.001111111,1,0,0,center_square,0,29,29,106,1,,,,,,,,,,,,,,,,,,,,,,,
945994,001,2022-11-21_01h50.10.083,Info_measure_main_exp,2022.2.2,Win32,60.86797736,,,,,,,,,,,,,,,,,,masks/mask_003.jpg,,,,,,,,,,,,,,,,,,,,,,,,,,,,,,,,,,,,,,,,,,,0,0,0,2,1,,,,,,,,,,,,,,,,,,,,,,,,,,,,,,,,,,,,,,,,,,,,,,
945994,001,2022-11-21_01h50.10.083,Info_measure_main_exp,2022.2.2,Win32,60.86797736,,,,,,,,,,,,,,,,,,masks/mask_004.jpg,,,,,,,,,,,,,,,,,,,,,,,,,,,,,,,,,,,,,,,,,,,0,1,1,3,1,,,,,,,,,,,,,,,,,,,,,,,,,,,,,,,,,,,,,,,,,,,,,,
945994,001,2022-11-21_01h50.10.083,Info_measure_main_exp,2022.2.2,Win32,60.86797736,,,,,,,,,,,,,,,,,,masks/mask_005.jpg,,,,,,,,,,,,,,,,,,,,,,,,,,,,,,,,,,,,,,,,,,,0,2,2,4,1,,,,,,,,,,,,,,,,,,,,,,,,,,,,,,,,,,,,,,,,,,,,,,
945994,001,2022-11-21_01h50.10.083,Info_measure_main_exp,2022.2.2,Win32,60.86797736,,,,,,,,,,,,,,,,,,masks/mask_002.jpg,,,,,,,,,,,,,,,,,,,,,,,,,,,,,,,,,,,,,,,,,,,0,3,3,1,1,,,,,,,,,,,,,,,,,,,,,,,,,,,,,,,,,,,,,,,,,,,,,,
945994,001,2022-11-21_01h50.10.083,Info_measure_main_exp,2022.2.2,Win32,60.86797736,,,,,,,,,,,,,,,,,,masks/mask_001.jpg,,,,,,,,,,,,,,,,,,,,,,,,,,,,,,,,,,,,,,,,,,,0,4,4,0,1,,,,,,,,,,,,,,,,,,,,,,,,,,,,,,,,,,,,,,,,,,,,,,
945994,001,2022-11-21_01h50.10.083,Info_measure_main_exp,2022.2.2,Win32,60.86797736,,,,,,,,,,,,,,,,,,masks/mask_004.jpg,,,,,,,,,,,,,,,,,,,,,,,,,,,,,,,,,,,,,,,,,,,,,,,,0,0,0,3,1,,,,,,,,,,,,,,,,,,,,,,,,,,,,,,,,,,,,,,,,,
945994,001,2022-11-21_01h50.10.083,Info_measure_main_exp,2022.2.2,Win32,60.86797736,,,,,,,,,,,,,,,,,,masks/mask_005.jpg,,,,,,,,,,,,,,,,,,,,,,,,,,,,,,,,,,,,,,,,,,,,,,,,0,1,1,4,1,,,,,,,,,,,,,,,,,,,,,,,,,,,,,,,,,,,,,,,,,
945994,001,2022-11-21_01h50.10.083,Info_measure_main_exp,2022.2.2,Win32,60.86797736,,,,,,,,,,,,,,,,,,masks/mask_002.jpg,,,,,,,,,,,,,,,,,,,,,,,,,,,,,,,,,,,,,,,,,,,,,,,,0,2,2,1,1,,,,,,,,,,,,,,,,,,,,,,,,,,,,,,,,,,,,,,,,,
945994,001,2022-11-21_01h50.10.083,Info_measure_main_exp,2022.2.2,Win32,60.86797736,,,,,,,,,,,,,,,,,,masks/mask_001.jpg,,,,,,,,,,,,,,,,,,,,,,,,,,,,,,,,,,,,,,,,,,,,,,,,0,3,3,0,1,,,,,,,,,,,,,,,,,,,,,,,,,,,,,,,,,,,,,,,,,
945994,001,2022-11-21_01h50.10.083,Info_measure_main_exp,2022.2.2,Win32,60.86797736,,,,,,,,,,,,,,,,,,masks/mask_003.jpg,,,,,,,,,,,,,,,,,,,,,,,,,,,,,,,,,,,,,,,,,,,,,,,,0,4,4,2,1,,,,,,,,,,,,,,,,,,,,,,,,,,,,,,,,,,,,,,,,,
945994,001,2022-11-21_01h50.10.083,Info_measure_main_exp,2022.2.2,Win32,60.86797736,,,,,,,,,,,,,,,,,,,,,,,,,,,,,,7,0.4329,1,,,,,,,,,,,,1,131,5,5,2298,1,absent_patch/patch0002298.jpg,present_patch/cong_131_5_a.jpg,,,,,,,,,,,,,,,,,,,,0.053333333,0.072222222,1,0,0,response1disk,31,0.004444444,0.003333333,1,0,0,center_square,0,30,30,45,1,,,,,,,,,,,,,,,,,,,,,,,
945994,001,2022-11-21_01h50.10.083,Info_measure_main_exp,2022.2.2,Win32,60.86797736,,,,,,,,,,,,,,,,,,masks/mask_004.jpg,,,,,,,,,,,,,,,,,,,,,,,,,,,,,,,,,,,,,,,,,,,0,0,0,3,1,,,,,,,,,,,,,,,,,,,,,,,,,,,,,,,,,,,,,,,,,,,,,,
945994,001,2022-11-21_01h50.10.083,Info_measure_main_exp,2022.2.2,Win32,60.86797736,,,,,,,,,,,,,,,,,,masks/mask_002.jpg,,,,,,,,,,,,,,,,,,,,,,,,,,,,,,,,,,,,,,,,,,,0,1,1,1,1,,,,,,,,,,,,,,,,,,,,,,,,,,,,,,,,,,,,,,,,,,,,,,
945994,001,2022-11-21_01h50.10.083,Info_measure_main_exp,2022.2.2,Win32,60.86797736,,,,,,,,,,,,,,,,,,masks/mask_001.jpg,,,,,,,,,,,,,,,,,,,,,,,,,,,,,,,,,,,,,,,,,,,0,2,2,0,1,,,,,,,,,,,,,,,,,,,,,,,,,,,,,,,,,,,,,,,,,,,,,,
945994,001,2022-11-21_01h50.10.083,Info_measure_main_exp,2022.2.2,Win32,60.86797736,,,,,,,,,,,,,,,,,,masks/mask_003.jpg,,,,,,,,,,,,,,,,,,,,,,,,,,,,,,,,,,,,,,,,,,,0,3,3,2,1,,,,,,,,,,,,,,,,,,,,,,,,,,,,,,,,,,,,,,,,,,,,,,
945994,001,2022-11-21_01h50.10.083,Info_measure_main_exp,2022.2.2,Win32,60.86797736,,,,,,,,,,,,,,,,,,masks/mask_005.jpg,,,,,,,,,,,,,,,,,,,,,,,,,,,,,,,,,,,,,,,,,,,0,4,4,4,1,,,,,,,,,,,,,,,,,,,,,,,,,,,,,,,,,,,,,,,,,,,,,,
945994,001,2022-11-21_01h50.10.083,Info_measure_main_exp,2022.2.2,Win32,60.86797736,,,,,,,,,,,,,,,,,,masks/mask_003.jpg,,,,,,,,,,,,,,,,,,,,,,,,,,,,,,,,,,,,,,,,,,,,,,,,0,0,0,2,1,,,,,,,,,,,,,,,,,,,,,,,,,,,,,,,,,,,,,,,,,
945994,001,2022-11-21_01h50.10.083,Info_measure_main_exp,2022.2.2,Win32,60.86797736,,,,,,,,,,,,,,,,,,masks/mask_005.jpg,,,,,,,,,,,,,,,,,,,,,,,,,,,,,,,,,,,,,,,,,,,,,,,,0,1,1,4,1,,,,,,,,,,,,,,,,,,,,,,,,,,,,,,,,,,,,,,,,,
945994,001,2022-11-21_01h50.10.083,Info_measure_main_exp,2022.2.2,Win32,60.86797736,,,,,,,,,,,,,,,,,,masks/mask_001.jpg,,,,,,,,,,,,,,,,,,,,,,,,,,,,,,,,,,,,,,,,,,,,,,,,0,2,2,0,1,,,,,,,,,,,,,,,,,,,,,,,,,,,,,,,,,,,,,,,,,
945994,001,2022-11-21_01h50.10.083,Info_measure_main_exp,2022.2.2,Win32,60.86797736,,,,,,,,,,,,,,,,,,masks/mask_004.jpg,,,,,,,,,,,,,,,,,,,,,,,,,,,,,,,,,,,,,,,,,,,,,,,,0,3,3,3,1,,,,,,,,,,,,,,,,,,,,,,,,,,,,,,,,,,,,,,,,,
945994,001,2022-11-21_01h50.10.083,Info_measure_main_exp,2022.2.2,Win32,60.86797736,,,,,,,,,,,,,,,,,,masks/mask_002.jpg,,,,,,,,,,,,,,,,,,,,,,,,,,,,,,,,,,,,,,,,,,,,,,,,0,4,4,1,1,,,,,,,,,,,,,,,,,,,,,,,,,,,,,,,,,,,,,,,,,
945994,001,2022-11-21_01h50.10.083,Info_measure_main_exp,2022.2.2,Win32,60.86797736,,,,,,,,,,,,,,,,,,,,,,,,,,,,,,6,0.5499,1,,,,,,,,,,,,1,131,5,5,1,2178,present_patch/cong_131_5_a.jpg,absent_patch/patch0002178.jpg,,,,,,,,,,,,,,,,,,,,0.087777778,0.026666667,1,0,0,response1disk,32,0.005555556,0.002222222,1,0,0,center_square,0,31,31,40,1,,,,,,,,,,,,,,,,,,,,,,,
945994,001,2022-11-21_01h50.10.083,Info_measure_main_exp,2022.2.2,Win32,60.86797736,,,,,,,,,,,,,,,,,,masks/mask_003.jpg,,,,,,,,,,,,,,,,,,,,,,,,,,,,,,,,,,,,,,,,,,,0,0,0,2,1,,,,,,,,,,,,,,,,,,,,,,,,,,,,,,,,,,,,,,,,,,,,,,
945994,001,2022-11-21_01h50.10.083,Info_measure_main_exp,2022.2.2,Win32,60.86797736,,,,,,,,,,,,,,,,,,masks/mask_002.jpg,,,,,,,,,,,,,,,,,,,,,,,,,,,,,,,,,,,,,,,,,,,0,1,1,1,1,,,,,,,,,,,,,,,,,,,,,,,,,,,,,,,,,,,,,,,,,,,,,,
945994,001,2022-11-21_01h50.10.083,Info_measure_main_exp,2022.2.2,Win32,60.86797736,,,,,,,,,,,,,,,,,,masks/mask_001.jpg,,,,,,,,,,,,,,,,,,,,,,,,,,,,,,,,,,,,,,,,,,,0,2,2,0,1,,,,,,,,,,,,,,,,,,,,,,,,,,,,,,,,,,,,,,,,,,,,,,
945994,001,2022-11-21_01h50.10.083,Info_measure_main_exp,2022.2.2,Win32,60.86797736,,,,,,,,,,,,,,,,,,masks/mask_005.jpg,,,,,,,,,,,,,,,,,,,,,,,,,,,,,,,,,,,,,,,,,,,0,3,3,4,1,,,,,,,,,,,,,,,,,,,,,,,,,,,,,,,,,,,,,,,,,,,,,,
945994,001,2022-11-21_01h50.10.083,Info_measure_main_exp,2022.2.2,Win32,60.86797736,,,,,,,,,,,,,,,,,,masks/mask_004.jpg,,,,,,,,,,,,,,,,,,,,,,,,,,,,,,,,,,,,,,,,,,,0,4,4,3,1,,,,,,,,,,,,,,,,,,,,,,,,,,,,,,,,,,,,,,,,,,,,,,
945994,001,2022-11-21_01h50.10.083,Info_measure_main_exp,2022.2.2,Win32,60.86797736,,,,,,,,,,,,,,,,,,masks/mask_002.jpg,,,,,,,,,,,,,,,,,,,,,,,,,,,,,,,,,,,,,,,,,,,,,,,,0,0,0,1,1,,,,,,,,,,,,,,,,,,,,,,,,,,,,,,,,,,,,,,,,,
945994,001,2022-11-21_01h50.10.083,Info_measure_main_exp,2022.2.2,Win32,60.86797736,,,,,,,,,,,,,,,,,,masks/mask_003.jpg,,,,,,,,,,,,,,,,,,,,,,,,,,,,,,,,,,,,,,,,,,,,,,,,0,1,1,2,1,,,,,,,,,,,,,,,,,,,,,,,,,,,,,,,,,,,,,,,,,
945994,001,2022-11-21_01h50.10.083,Info_measure_main_exp,2022.2.2,Win32,60.86797736,,,,,,,,,,,,,,,,,,masks/mask_005.jpg,,,,,,,,,,,,,,,,,,,,,,,,,,,,,,,,,,,,,,,,,,,,,,,,0,2,2,4,1,,,,,,,,,,,,,,,,,,,,,,,,,,,,,,,,,,,,,,,,,
945994,001,2022-11-21_01h50.10.083,Info_measure_main_exp,2022.2.2,Win32,60.86797736,,,,,,,,,,,,,,,,,,masks/mask_001.jpg,,,,,,,,,,,,,,,,,,,,,,,,,,,,,,,,,,,,,,,,,,,,,,,,0,3,3,0,1,,,,,,,,,,,,,,,,,,,,,,,,,,,,,,,,,,,,,,,,,
945994,001,2022-11-21_01h50.10.083,Info_measure_main_exp,2022.2.2,Win32,60.86797736,,,,,,,,,,,,,,,,,,masks/mask_004.jpg,,,,,,,,,,,,,,,,,,,,,,,,,,,,,,,,,,,,,,,,,,,,,,,,0,4,4,3,1,,,,,,,,,,,,,,,,,,,,,,,,,,,,,,,,,,,,,,,,,
945994,001,2022-11-21_01h50.10.083,Info_measure_main_exp,2022.2.2,Win32,60.86797736,,,,,,,,,,,,,,,,,,,,,,,,,,,,,,6,0.9167,1,,,,,,,,,,,,1,131,5,5,2190,1,absent_patch/patch0002190.jpg,present_patch/cong_131_5_a.jpg,,,,,,,,,,,,,,,,,,,,0.071111111,0.035555556,1,0,0,response1disk,33,0.005555556,0.003333333,1,0,0,center_square,0,32,32,64,1,,,,,,,,,,,,,,,,,,,,,,,
945994,001,2022-11-21_01h50.10.083,Info_measure_main_exp,2022.2.2,Win32,60.86797736,,,,,,,,,,,,,,,,,,masks/mask_001.jpg,,,,,,,,,,,,,,,,,,,,,,,,,,,,,,,,,,,,,,,,,,,0,0,0,0,1,,,,,,,,,,,,,,,,,,,,,,,,,,,,,,,,,,,,,,,,,,,,,,
945994,001,2022-11-21_01h50.10.083,Info_measure_main_exp,2022.2.2,Win32,60.86797736,,,,,,,,,,,,,,,,,,masks/mask_004.jpg,,,,,,,,,,,,,,,,,,,,,,,,,,,,,,,,,,,,,,,,,,,0,1,1,3,1,,,,,,,,,,,,,,,,,,,,,,,,,,,,,,,,,,,,,,,,,,,,,,
945994,001,2022-11-21_01h50.10.083,Info_measure_main_exp,2022.2.2,Win32,60.86797736,,,,,,,,,,,,,,,,,,masks/mask_005.jpg,,,,,,,,,,,,,,,,,,,,,,,,,,,,,,,,,,,,,,,,,,,0,2,2,4,1,,,,,,,,,,,,,,,,,,,,,,,,,,,,,,,,,,,,,,,,,,,,,,
945994,001,2022-11-21_01h50.10.083,Info_measure_main_exp,2022.2.2,Win32,60.86797736,,,,,,,,,,,,,,,,,,masks/mask_002.jpg,,,,,,,,,,,,,,,,,,,,,,,,,,,,,,,,,,,,,,,,,,,0,3,3,1,1,,,,,,,,,,,,,,,,,,,,,,,,,,,,,,,,,,,,,,,,,,,,,,
945994,001,2022-11-21_01h50.10.083,Info_measure_main_exp,2022.2.2,Win32,60.86797736,,,,,,,,,,,,,,,,,,masks/mask_003.jpg,,,,,,,,,,,,,,,,,,,,,,,,,,,,,,,,,,,,,,,,,,,0,4,4,2,1,,,,,,,,,,,,,,,,,,,,,,,,,,,,,,,,,,,,,,,,,,,,,,
945994,001,2022-11-21_01h50.10.083,Info_measure_main_exp,2022.2.2,Win32,60.86797736,,,,,,,,,,,,,,,,,,masks/mask_002.jpg,,,,,,,,,,,,,,,,,,,,,,,,,,,,,,,,,,,,,,,,,,,,,,,,0,0,0,1,1,,,,,,,,,,,,,,,,,,,,,,,,,,,,,,,,,,,,,,,,,
945994,001,2022-11-21_01h50.10.083,Info_measure_main_exp,2022.2.2,Win32,60.86797736,,,,,,,,,,,,,,,,,,masks/mask_001.jpg,,,,,,,,,,,,,,,,,,,,,,,,,,,,,,,,,,,,,,,,,,,,,,,,0,1,1,0,1,,,,,,,,,,,,,,,,,,,,,,,,,,,,,,,,,,,,,,,,,
945994,001,2022-11-21_01h50.10.083,Info_measure_main_exp,2022.2.2,Win32,60.86797736,,,,,,,,,,,,,,,,,,masks/mask_005.jpg,,,,,,,,,,,,,,,,,,,,,,,,,,,,,,,,,,,,,,,,,,,,,,,,0,2,2,4,1,,,,,,,,,,,,,,,,,,,,,,,,,,,,,,,,,,,,,,,,,
945994,001,2022-11-21_01h50.10.083,Info_measure_main_exp,2022.2.2,Win32,60.86797736,,,,,,,,,,,,,,,,,,masks/mask_004.jpg,,,,,,,,,,,,,,,,,,,,,,,,,,,,,,,,,,,,,,,,,,,,,,,,0,3,3,3,1,,,,,,,,,,,,,,,,,,,,,,,,,,,,,,,,,,,,,,,,,
945994,001,2022-11-21_01h50.10.083,Info_measure_main_exp,2022.2.2,Win32,60.86797736,,,,,,,,,,,,,,,,,,masks/mask_003.jpg,,,,,,,,,,,,,,,,,,,,,,,,,,,,,,,,,,,,,,,,,,,,,,,,0,4,4,2,1,,,,,,,,,,,,,,,,,,,,,,,,,,,,,,,,,,,,,,,,,
945994,001,2022-11-21_01h50.10.083,Info_measure_main_exp,2022.2.2,Win32,60.86797736,,,,,,,,,,,,,,,,,,,,,,,,,,,,,,0,0.4341,1,,,,,,,,,,,,0,131,5,5,1950,1950,absent_patch/patch0001950.jpg,absent_patch/patch0001950.jpg,,,,,,,,,,,,,,,,,,,,-0.041111111,0.102222222,1,0,0,response7disk,34,-0.004444444,0.011111111,1,0,0,center_square,0,33,33,92,1,,,,,,,,,,,,,,,,,,,,,,,
945994,001,2022-11-21_01h50.10.083,Info_measure_main_exp,2022.2.2,Win32,60.86797736,,,,,,,,,,,,,,,,,,masks/mask_003.jpg,,,,,,,,,,,,,,,,,,,,,,,,,,,,,,,,,,,,,,,,,,,0,0,0,2,1,,,,,,,,,,,,,,,,,,,,,,,,,,,,,,,,,,,,,,,,,,,,,,
945994,001,2022-11-21_01h50.10.083,Info_measure_main_exp,2022.2.2,Win32,60.86797736,,,,,,,,,,,,,,,,,,masks/mask_005.jpg,,,,,,,,,,,,,,,,,,,,,,,,,,,,,,,,,,,,,,,,,,,0,1,1,4,1,,,,,,,,,,,,,,,,,,,,,,,,,,,,,,,,,,,,,,,,,,,,,,
945994,001,2022-11-21_01h50.10.083,Info_measure_main_exp,2022.2.2,Win32,60.86797736,,,,,,,,,,,,,,,,,,masks/mask_004.jpg,,,,,,,,,,,,,,,,,,,,,,,,,,,,,,,,,,,,,,,,,,,0,2,2,3,1,,,,,,,,,,,,,,,,,,,,,,,,,,,,,,,,,,,,,,,,,,,,,,
945994,001,2022-11-21_01h50.10.083,Info_measure_main_exp,2022.2.2,Win32,60.86797736,,,,,,,,,,,,,,,,,,masks/mask_001.jpg,,,,,,,,,,,,,,,,,,,,,,,,,,,,,,,,,,,,,,,,,,,0,3,3,0,1,,,,,,,,,,,,,,,,,,,,,,,,,,,,,,,,,,,,,,,,,,,,,,
945994,001,2022-11-21_01h50.10.083,Info_measure_main_exp,2022.2.2,Win32,60.86797736,,,,,,,,,,,,,,,,,,masks/mask_002.jpg,,,,,,,,,,,,,,,,,,,,,,,,,,,,,,,,,,,,,,,,,,,0,4,4,1,1,,,,,,,,,,,,,,,,,,,,,,,,,,,,,,,,,,,,,,,,,,,,,,
945994,001,2022-11-21_01h50.10.083,Info_measure_main_exp,2022.2.2,Win32,60.86797736,,,,,,,,,,,,,,,,,,masks/mask_005.jpg,,,,,,,,,,,,,,,,,,,,,,,,,,,,,,,,,,,,,,,,,,,,,,,,0,0,0,4,1,,,,,,,,,,,,,,,,,,,,,,,,,,,,,,,,,,,,,,,,,
945994,001,2022-11-21_01h50.10.083,Info_measure_main_exp,2022.2.2,Win32,60.86797736,,,,,,,,,,,,,,,,,,masks/mask_002.jpg,,,,,,,,,,,,,,,,,,,,,,,,,,,,,,,,,,,,,,,,,,,,,,,,0,1,1,1,1,,,,,,,,,,,,,,,,,,,,,,,,,,,,,,,,,,,,,,,,,
945994,001,2022-11-21_01h50.10.083,Info_measure_main_exp,2022.2.2,Win32,60.86797736,,,,,,,,,,,,,,,,,,masks/mask_004.jpg,,,,,,,,,,,,,,,,,,,,,,,,,,,,,,,,,,,,,,,,,,,,,,,,0,2,2,3,1,,,,,,,,,,,,,,,,,,,,,,,,,,,,,,,,,,,,,,,,,
945994,001,2022-11-21_01h50.10.083,Info_measure_main_exp,2022.2.2,Win32,60.86797736,,,,,,,,,,,,,,,,,,masks/mask_001.jpg,,,,,,,,,,,,,,,,,,,,,,,,,,,,,,,,,,,,,,,,,,,,,,,,0,3,3,0,1,,,,,,,,,,,,,,,,,,,,,,,,,,,,,,,,,,,,,,,,,
