participant,session,date,expName,psychopyVersion,OS,frameRate,space_press_continue.keys,space_press_continue.rt,space_press_continue_2.keys,space_press_continue_2.rt,space_press_continue_3.keys,space_press_continue_3.rt,space_press_continue_4.keys,space_press_continue_4.rt,space_press_continue_5.keys,space_press_continue_5.rt,space_press_continue_6.keys,space_press_continue_6.rt,prac_mask_loop_1.thisRepN,prac_mask_loop_1.thisTrialN,prac_mask_loop_1.thisN,prac_mask_loop_1.thisIndex,prac_mask_loop_1.ran,mask_name,prac_mask_loop_2.thisRepN,prac_mask_loop_2.thisTrialN,prac_mask_loop_2.thisN,prac_mask_loop_2.thisIndex,prac_mask_loop_2.ran,mouse_2.x,mouse_2.y,mouse_2.leftButton,mouse_2.midButton,mouse_2.rightButton,mouse_2.clicked_name,similarity,response_time,Pass,mouse_12.x,mouse_12.y,mouse_12.leftButton,mouse_12.midButton,mouse_12.rightButton,mouse_12.clicked_name,prac_loop.thisRepN,prac_loop.thisTrialN,prac_loop.thisN,prac_loop.thisIndex,prac_loop.ran,Pair_type,Image_num,Patch_1_loc,Patch_2_loc,Patch_1_info,Patch_2_info,Patch_1_name,Patch_2_name,mouse_1.x,mouse_1.y,mouse_1.leftButton,mouse_1.midButton,mouse_1.rightButton,mouse_1.time,mouse_1.clicked_name,space_press_continue_7.keys,space_press_continue_7.rt,mask_loop.thisRepN,mask_loop.thisTrialN,mask_loop.thisN,mask_loop.thisIndex,mask_loop.ran,mask_loop_2.thisRepN,mask_loop_2.thisTrialN,mask_loop_2.thisN,mask_loop_2.thisIndex,mask_loop_2.ran,mouse.x,mouse.y,mouse.leftButton,mouse.midButton,mouse.rightButton,mouse.clicked_name,trialNumber,mouse_11.x,mouse_11.y,mouse_11.leftButton,mouse_11.midButton,mouse_11.rightButton,mouse_11.clicked_name,first_pass_loop.thisRepN,first_pass_loop.thisTrialN,first_pass_loop.thisN,first_pass_loop.thisIndex,first_pass_loop.ran,mask_loop_3.thisRepN,mask_loop_3.thisTrialN,mask_loop_3.thisN,mask_loop_3.thisIndex,mask_loop_3.ran,mask_loop_4.thisRepN,mask_loop_4.thisTrialN,mask_loop_4.thisN,mask_loop_4.thisIndex,mask_loop_4.ran,mouse_3.x,mouse_3.y,mouse_3.leftButton,mouse_3.midButton,mouse_3.rightButton,mouse_3.clicked_name,double_pass_loop.thisRepN,double_pass_loop.thisTrialN,double_pass_loop.thisN,double_pass_loop.thisIndex,double_pass_loop.ran,space_exit.keys,space_exit.rt
946728,001,2022-11-21_01h55.00.122,Info_measure_main_exp,2022.2.2,Win32,74.99625019,,,,,,,,,,,,,,,,,,,,,,,,,,,,,,,,,,,,,,,,,,,,,,,,,,,,,,,,,,,,,,,,,,,,,,,,,,,,,,,,,,,,,,,,,,,,,,,,,,,,,,,,,,,,,,,
946728,001,2022-11-21_01h55.00.122,Info_measure_main_exp,2022.2.2,Win32,74.99625019,,,,,,,,,,,,,,,,,,,,,,,,,,,,,,,,,,,,,,,,,,,,,,,,,,,,,,,,,,,,,,,,,,,,,,,,,,,,,,,,,,,,,,,,,,,,,,,,,,,,,,,,,,,,,,,
946728,001,2022-11-21_01h55.00.122,Info_measure_main_exp,2022.2.2,Win32,74.99625019,space,2.8753,,,,,,,,,,,,,,,,,,,,,,,,,,,,,,,,,,,,,,,,,,,,,,,,,,,,,,,,,,,,,,,,,,,,,,,,,,,,,,,,,,,,,,,,,,,,,,,,,,,,,,,,,,,,,
946728,001,2022-11-21_01h55.00.122,Info_measure_main_exp,2022.2.2,Win32,74.99625019,,,space,15.658,,,,,,,,,,,,,,,,,,,,,,,,,,,,,,,,,,,,,,,,,,,,,,,,,,,,,,,,,,,,,,,,,,,,,,,,,,,,,,,,,,,,,,,,,,,,,,,,,,,,,,,,,,,
946728,001,2022-11-21_01h55.00.122,Info_measure_main_exp,2022.2.2,Win32,74.99625019,,,,,space,8.8818,,,,,,,,,,,,,,,,,,,,,,,,,,,,,,,,,,,,,,,,,,,,,,,,,,,,,,,,,,,,,,,,,,,,,,,,,,,,,,,,,,,,,,,,,,,,,,,,,,,,,,,,,
946728,001,2022-11-21_01h55.00.122,Info_measure_main_exp,2022.2.2,Win32,74.99625019,,,,,,,space,28.5768,,,,,,,,,,,,,,,,,,,,,,,,,,,,,,,,,,,,,,,,,,,,,,,,,,,,,,,,,,,,,,,,,,,,,,,,,,,,,,,,,,,,,,,,,,,,,,,,,,,,,,,
946728,001,2022-11-21_01h55.00.122,Info_measure_main_exp,2022.2.2,Win32,74.99625019,,,,,,,,,space,3.9386,,,,,,,,,,,,,,,,,,,,,,,,,,,,,,,,,,,,,,,,,,,,,,,,,,,,,,,,,,,,,,,,,,,,,,,,,,,,,,,,,,,,,,,,,,,,,,,,,,,,,
946728,001,2022-11-21_01h55.00.122,Info_measure_main_exp,2022.2.2,Win32,74.99625019,,,,,,,,,,,space,3.9805,,,,,,,,,,,,,,,,,,,,,,,,,,,,,,,,,,,,,,,,,,,,,,,,,,,,,,,,,,,,,,,,,,,,,,,,,,,,,,,,,,,,,,,,,,,,,,,,,,,
946728,001,2022-11-21_01h55.00.122,Info_measure_main_exp,2022.2.2,Win32,74.99625019,,,,,,,,,,,,,0,0,0,2,1,masks/mask_003.jpg,,,,,,,,,,,,,,,,,,,,,,,,,,,,,,,,,,,,,,,,,,,,,,,,,,,,,,,,,,,,,,,,,,,,,,,,,,,,,,,,,,,,,,,,,,,,,
946728,001,2022-11-21_01h55.00.122,Info_measure_main_exp,2022.2.2,Win32,74.99625019,,,,,,,,,,,,,0,1,1,3,1,masks/mask_004.jpg,,,,,,,,,,,,,,,,,,,,,,,,,,,,,,,,,,,,,,,,,,,,,,,,,,,,,,,,,,,,,,,,,,,,,,,,,,,,,,,,,,,,,,,,,,,,,
946728,001,2022-11-21_01h55.00.122,Info_measure_main_exp,2022.2.2,Win32,74.99625019,,,,,,,,,,,,,0,2,2,4,1,masks/mask_005.jpg,,,,,,,,,,,,,,,,,,,,,,,,,,,,,,,,,,,,,,,,,,,,,,,,,,,,,,,,,,,,,,,,,,,,,,,,,,,,,,,,,,,,,,,,,,,,,
946728,001,2022-11-21_01h55.00.122,Info_measure_main_exp,2022.2.2,Win32,74.99625019,,,,,,,,,,,,,0,3,3,1,1,masks/mask_002.jpg,,,,,,,,,,,,,,,,,,,,,,,,,,,,,,,,,,,,,,,,,,,,,,,,,,,,,,,,,,,,,,,,,,,,,,,,,,,,,,,,,,,,,,,,,,,,,
946728,001,2022-11-21_01h55.00.122,Info_measure_main_exp,2022.2.2,Win32,74.99625019,,,,,,,,,,,,,0,4,4,0,1,masks/mask_001.jpg,,,,,,,,,,,,,,,,,,,,,,,,,,,,,,,,,,,,,,,,,,,,,,,,,,,,,,,,,,,,,,,,,,,,,,,,,,,,,,,,,,,,,,,,,,,,,
946728,001,2022-11-21_01h55.00.122,Info_measure_main_exp,2022.2.2,Win32,74.99625019,,,,,,,,,,,,,,,,,,masks/mask_005.jpg,0,0,0,4,1,,,,,,,,,,,,,,,,,,,,,,,,,,,,,,,,,,,,,,,,,,,,,,,,,,,,,,,,,,,,,,,,,,,,,,,,,,,,,,,,,,,,,,,,
946728,001,2022-11-21_01h55.00.122,Info_measure_main_exp,2022.2.2,Win32,74.99625019,,,,,,,,,,,,,,,,,,masks/mask_002.jpg,0,1,1,1,1,,,,,,,,,,,,,,,,,,,,,,,,,,,,,,,,,,,,,,,,,,,,,,,,,,,,,,,,,,,,,,,,,,,,,,,,,,,,,,,,,,,,,,,,
946728,001,2022-11-21_01h55.00.122,Info_measure_main_exp,2022.2.2,Win32,74.99625019,,,,,,,,,,,,,,,,,,masks/mask_001.jpg,0,2,2,0,1,,,,,,,,,,,,,,,,,,,,,,,,,,,,,,,,,,,,,,,,,,,,,,,,,,,,,,,,,,,,,,,,,,,,,,,,,,,,,,,,,,,,,,,,
946728,001,2022-11-21_01h55.00.122,Info_measure_main_exp,2022.2.2,Win32,74.99625019,,,,,,,,,,,,,,,,,,masks/mask_004.jpg,0,3,3,3,1,,,,,,,,,,,,,,,,,,,,,,,,,,,,,,,,,,,,,,,,,,,,,,,,,,,,,,,,,,,,,,,,,,,,,,,,,,,,,,,,,,,,,,,,
946728,001,2022-11-21_01h55.00.122,Info_measure_main_exp,2022.2.2,Win32,74.99625019,,,,,,,,,,,,,,,,,,masks/mask_003.jpg,0,4,4,2,1,,,,,,,,,,,,,,,,,,,,,,,,,,,,,,,,,,,,,,,,,,,,,,,,,,,,,,,,,,,,,,,,,,,,,,,,,,,,,,,,,,,,,,,,
946728,001,2022-11-21_01h55.00.122,Info_measure_main_exp,2022.2.2,Win32,74.99625019,,,,,,,,,,,,,,,,,,,,,,,,-0.059317668,0.203686242,1,0,0,response7disk,0,70.2231,1,-0.003572343,-0.003592067,1,0,0,center_square,0,0,0,2,1,0,131,5,5,2526,2526,prac_patch/patch0002526.jpg,prac_patch/patch0002526.jpg,,,,,,,,,,,,,,,,,,,,,,,,,,,,,,,,,,,,,,,,,,,,,,,,,,,,,,,,,,,,
946728,001,2022-11-21_01h55.00.122,Info_measure_main_exp,2022.2.2,Win32,74.99625019,,,,,,,,,,,,,0,0,0,0,1,masks/mask_001.jpg,,,,,,,,,,,,,,,,,,,,,,,,,,,,,,,,,,,,,,,,,,,,,,,,,,,,,,,,,,,,,,,,,,,,,,,,,,,,,,,,,,,,,,,,,,,,,
946728,001,2022-11-21_01h55.00.122,Info_measure_main_exp,2022.2.2,Win32,74.99625019,,,,,,,,,,,,,0,1,1,1,1,masks/mask_002.jpg,,,,,,,,,,,,,,,,,,,,,,,,,,,,,,,,,,,,,,,,,,,,,,,,,,,,,,,,,,,,,,,,,,,,,,,,,,,,,,,,,,,,,,,,,,,,,
946728,001,2022-11-21_01h55.00.122,Info_measure_main_exp,2022.2.2,Win32,74.99625019,,,,,,,,,,,,,0,2,2,4,1,masks/mask_005.jpg,,,,,,,,,,,,,,,,,,,,,,,,,,,,,,,,,,,,,,,,,,,,,,,,,,,,,,,,,,,,,,,,,,,,,,,,,,,,,,,,,,,,,,,,,,,,,
946728,001,2022-11-21_01h55.00.122,Info_measure_main_exp,2022.2.2,Win32,74.99625019,,,,,,,,,,,,,0,3,3,3,1,masks/mask_004.jpg,,,,,,,,,,,,,,,,,,,,,,,,,,,,,,,,,,,,,,,,,,,,,,,,,,,,,,,,,,,,,,,,,,,,,,,,,,,,,,,,,,,,,,,,,,,,,
946728,001,2022-11-21_01h55.00.122,Info_measure_main_exp,2022.2.2,Win32,74.99625019,,,,,,,,,,,,,0,4,4,2,1,masks/mask_003.jpg,,,,,,,,,,,,,,,,,,,,,,,,,,,,,,,,,,,,,,,,,,,,,,,,,,,,,,,,,,,,,,,,,,,,,,,,,,,,,,,,,,,,,,,,,,,,,
946728,001,2022-11-21_01h55.00.122,Info_measure_main_exp,2022.2.2,Win32,74.99625019,,,,,,,,,,,,,,,,,,masks/mask_005.jpg,0,0,0,4,1,,,,,,,,,,,,,,,,,,,,,,,,,,,,,,,,,,,,,,,,,,,,,,,,,,,,,,,,,,,,,,,,,,,,,,,,,,,,,,,,,,,,,,,,
946728,001,2022-11-21_01h55.00.122,Info_measure_main_exp,2022.2.2,Win32,74.99625019,,,,,,,,,,,,,,,,,,masks/mask_004.jpg,0,1,1,3,1,,,,,,,,,,,,,,,,,,,,,,,,,,,,,,,,,,,,,,,,,,,,,,,,,,,,,,,,,,,,,,,,,,,,,,,,,,,,,,,,,,,,,,,,
946728,001,2022-11-21_01h55.00.122,Info_measure_main_exp,2022.2.2,Win32,74.99625019,,,,,,,,,,,,,,,,,,masks/mask_003.jpg,0,2,2,2,1,,,,,,,,,,,,,,,,,,,,,,,,,,,,,,,,,,,,,,,,,,,,,,,,,,,,,,,,,,,,,,,,,,,,,,,,,,,,,,,,,,,,,,,,
946728,001,2022-11-21_01h55.00.122,Info_measure_main_exp,2022.2.2,Win32,74.99625019,,,,,,,,,,,,,,,,,,masks/mask_002.jpg,0,3,3,1,1,,,,,,,,,,,,,,,,,,,,,,,,,,,,,,,,,,,,,,,,,,,,,,,,,,,,,,,,,,,,,,,,,,,,,,,,,,,,,,,,,,,,,,,,
946728,001,2022-11-21_01h55.00.122,Info_measure_main_exp,2022.2.2,Win32,74.99625019,,,,,,,,,,,,,,,,,,masks/mask_001.jpg,0,4,4,0,1,,,,,,,,,,,,,,,,,,,,,,,,,,,,,,,,,,,,,,,,,,,,,,,,,,,,,,,,,,,,,,,,,,,,,,,,,,,,,,,,,,,,,,,,
946728,001,2022-11-21_01h55.00.122,Info_measure_main_exp,2022.2.2,Win32,74.99625019,,,,,,,,,,,,,,,,,,,,,,,,0.126761717,0.070996718,1,0,0,response1disk,6,83.0613,1,-0.008283271,0.006614792,1,0,0,center_square,0,1,1,0,1,0,131,5,5,2370,2406,prac_patch/patch0002370.jpg,prac_patch/patch0002406.jpg,,,,,,,,,,,,,,,,,,,,,,,,,,,,,,,,,,,,,,,,,,,,,,,,,,,,,,,,,,,,
946728,001,2022-11-21_01h55.00.122,Info_measure_main_exp,2022.2.2,Win32,74.99625019,,,,,,,,,,,,,0,0,0,4,1,masks/mask_005.jpg,,,,,,,,,,,,,,,,,,,,,,,,,,,,,,,,,,,,,,,,,,,,,,,,,,,,,,,,,,,,,,,,,,,,,,,,,,,,,,,,,,,,,,,,,,,,,
946728,001,2022-11-21_01h55.00.122,Info_measure_main_exp,2022.2.2,Win32,74.99625019,,,,,,,,,,,,,0,1,1,2,1,masks/mask_003.jpg,,,,,,,,,,,,,,,,,,,,,,,,,,,,,,,,,,,,,,,,,,,,,,,,,,,,,,,,,,,,,,,,,,,,,,,,,,,,,,,,,,,,,,,,,,,,,
946728,001,2022-11-21_01h55.00.122,Info_measure_main_exp,2022.2.2,Win32,74.99625019,,,,,,,,,,,,,0,2,2,0,1,masks/mask_001.jpg,,,,,,,,,,,,,,,,,,,,,,,,,,,,,,,,,,,,,,,,,,,,,,,,,,,,,,,,,,,,,,,,,,,,,,,,,,,,,,,,,,,,,,,,,,,,,
946728,001,2022-11-21_01h55.00.122,Info_measure_main_exp,2022.2.2,Win32,74.99625019,,,,,,,,,,,,,0,3,3,3,1,masks/mask_004.jpg,,,,,,,,,,,,,,,,,,,,,,,,,,,,,,,,,,,,,,,,,,,,,,,,,,,,,,,,,,,,,,,,,,,,,,,,,,,,,,,,,,,,,,,,,,,,,
946728,001,2022-11-21_01h55.00.122,Info_measure_main_exp,2022.2.2,Win32,74.99625019,,,,,,,,,,,,,0,4,4,1,1,masks/mask_002.jpg,,,,,,,,,,,,,,,,,,,,,,,,,,,,,,,,,,,,,,,,,,,,,,,,,,,,,,,,,,,,,,,,,,,,,,,,,,,,,,,,,,,,,,,,,,,,,
946728,001,2022-11-21_01h55.00.122,Info_measure_main_exp,2022.2.2,Win32,74.99625019,,,,,,,,,,,,,,,,,,masks/mask_001.jpg,0,0,0,0,1,,,,,,,,,,,,,,,,,,,,,,,,,,,,,,,,,,,,,,,,,,,,,,,,,,,,,,,,,,,,,,,,,,,,,,,,,,,,,,,,,,,,,,,,
946728,001,2022-11-21_01h55.00.122,Info_measure_main_exp,2022.2.2,Win32,74.99625019,,,,,,,,,,,,,,,,,,masks/mask_004.jpg,0,1,1,3,1,,,,,,,,,,,,,,,,,,,,,,,,,,,,,,,,,,,,,,,,,,,,,,,,,,,,,,,,,,,,,,,,,,,,,,,,,,,,,,,,,,,,,,,,
946728,001,2022-11-21_01h55.00.122,Info_measure_main_exp,2022.2.2,Win32,74.99625019,,,,,,,,,,,,,,,,,,masks/mask_002.jpg,0,2,2,1,1,,,,,,,,,,,,,,,,,,,,,,,,,,,,,,,,,,,,,,,,,,,,,,,,,,,,,,,,,,,,,,,,,,,,,,,,,,,,,,,,,,,,,,,,
946728,001,2022-11-21_01h55.00.122,Info_measure_main_exp,2022.2.2,Win32,74.99625019,,,,,,,,,,,,,,,,,,masks/mask_003.jpg,0,3,3,2,1,,,,,,,,,,,,,,,,,,,,,,,,,,,,,,,,,,,,,,,,,,,,,,,,,,,,,,,,,,,,,,,,,,,,,,,,,,,,,,,,,,,,,,,,
946728,001,2022-11-21_01h55.00.122,Info_measure_main_exp,2022.2.2,Win32,74.99625019,,,,,,,,,,,,,,,,,,masks/mask_005.jpg,0,4,4,4,1,,,,,,,,,,,,,,,,,,,,,,,,,,,,,,,,,,,,,,,,,,,,,,,,,,,,,,,,,,,,,,,,,,,,,,,,,,,,,,,,,,,,,,,,
946728,001,2022-11-21_01h55.00.122,Info_measure_main_exp,2022.2.2,Win32,74.99625019,,,,,,,,,,,,,,,,,,,,,,,,-0.050681068,-0.122149009,1,0,0,response5disk,3,93.5974,1,-0.002787188,0.008185101,1,0,0,center_square,0,2,2,1,1,0,131,5,5,2514,2490,prac_patch/patch0002514.jpg,prac_patch/patch0002490.jpg,,,,,,,,,,,,,,,,,,,,,,,,,,,,,,,,,,,,,,,,,,,,,,,,,,,,,,,,,,,,
946728,001,2022-11-21_01h55.00.122,Info_measure_main_exp,2022.2.2,Win32,74.99625019,,,,,,,,,,,,,,,,,,,,,,,,,,,,,,,,,,,,,,,,,,,,,,,,,,,,,,,,,,,space,2.5571,,,,,,,,,,,,,,,,,,,,,,,,,,,,,,,,,,,,,,,,,,,,,,,,,,,
946728,001,2022-11-21_01h55.00.122,Info_measure_main_exp,2022.2.2,Win32,74.99625019,,,,,,,,,,,,,,,,,,masks/mask_003.jpg,,,,,,,,,,,,,,,,,,,,,,,,,,,,,,,,,,,,,,,,,,,0,0,0,2,1,,,,,,,,,,,,,,,,,,,,,,,,,,,,,,,,,,,,,,,,,,,,,,
946728,001,2022-11-21_01h55.00.122,Info_measure_main_exp,2022.2.2,Win32,74.99625019,,,,,,,,,,,,,,,,,,masks/mask_004.jpg,,,,,,,,,,,,,,,,,,,,,,,,,,,,,,,,,,,,,,,,,,,0,1,1,3,1,,,,,,,,,,,,,,,,,,,,,,,,,,,,,,,,,,,,,,,,,,,,,,
946728,001,2022-11-21_01h55.00.122,Info_measure_main_exp,2022.2.2,Win32,74.99625019,,,,,,,,,,,,,,,,,,masks/mask_005.jpg,,,,,,,,,,,,,,,,,,,,,,,,,,,,,,,,,,,,,,,,,,,0,2,2,4,1,,,,,,,,,,,,,,,,,,,,,,,,,,,,,,,,,,,,,,,,,,,,,,
946728,001,2022-11-21_01h55.00.122,Info_measure_main_exp,2022.2.2,Win32,74.99625019,,,,,,,,,,,,,,,,,,masks/mask_001.jpg,,,,,,,,,,,,,,,,,,,,,,,,,,,,,,,,,,,,,,,,,,,0,3,3,0,1,,,,,,,,,,,,,,,,,,,,,,,,,,,,,,,,,,,,,,,,,,,,,,
946728,001,2022-11-21_01h55.00.122,Info_measure_main_exp,2022.2.2,Win32,74.99625019,,,,,,,,,,,,,,,,,,masks/mask_002.jpg,,,,,,,,,,,,,,,,,,,,,,,,,,,,,,,,,,,,,,,,,,,0,4,4,1,1,,,,,,,,,,,,,,,,,,,,,,,,,,,,,,,,,,,,,,,,,,,,,,
946728,001,2022-11-21_01h55.00.122,Info_measure_main_exp,2022.2.2,Win32,74.99625019,,,,,,,,,,,,,,,,,,masks/mask_005.jpg,,,,,,,,,,,,,,,,,,,,,,,,,,,,,,,,,,,,,,,,,,,,,,,,0,0,0,4,1,,,,,,,,,,,,,,,,,,,,,,,,,,,,,,,,,,,,,,,,,
946728,001,2022-11-21_01h55.00.122,Info_measure_main_exp,2022.2.2,Win32,74.99625019,,,,,,,,,,,,,,,,,,masks/mask_001.jpg,,,,,,,,,,,,,,,,,,,,,,,,,,,,,,,,,,,,,,,,,,,,,,,,0,1,1,0,1,,,,,,,,,,,,,,,,,,,,,,,,,,,,,,,,,,,,,,,,,
946728,001,2022-11-21_01h55.00.122,Info_measure_main_exp,2022.2.2,Win32,74.99625019,,,,,,,,,,,,,,,,,,masks/mask_003.jpg,,,,,,,,,,,,,,,,,,,,,,,,,,,,,,,,,,,,,,,,,,,,,,,,0,2,2,2,1,,,,,,,,,,,,,,,,,,,,,,,,,,,,,,,,,,,,,,,,,
946728,001,2022-11-21_01h55.00.122,Info_measure_main_exp,2022.2.2,Win32,74.99625019,,,,,,,,,,,,,,,,,,masks/mask_004.jpg,,,,,,,,,,,,,,,,,,,,,,,,,,,,,,,,,,,,,,,,,,,,,,,,0,3,3,3,1,,,,,,,,,,,,,,,,,,,,,,,,,,,,,,,,,,,,,,,,,
946728,001,2022-11-21_01h55.00.122,Info_measure_main_exp,2022.2.2,Win32,74.99625019,,,,,,,,,,,,,,,,,,masks/mask_002.jpg,,,,,,,,,,,,,,,,,,,,,,,,,,,,,,,,,,,,,,,,,,,,,,,,0,4,4,1,1,,,,,,,,,,,,,,,,,,,,,,,,,,,,,,,,,,,,,,,,,
946728,001,2022-11-21_01h55.00.122,Info_measure_main_exp,2022.2.2,Win32,74.99625019,,,,,,,,,,,,,,,,,,,,,,,,,,,,,,6,2.9078,1,,,,,,,,,,,,0,131,5,5,2250,1986,absent_patch/patch0002250.jpg,absent_patch/patch0001986.jpg,,,,,,,,,,,,,,,,,,,,0.074157061,0.018391961,1,0,0,response1disk,1,0.003493948,0.005044432,1,0,0,center_square,0,0,0,29,1,,,,,,,,,,,,,,,,,,,,,,,
946728,001,2022-11-21_01h55.00.122,Info_measure_main_exp,2022.2.2,Win32,74.99625019,,,,,,,,,,,,,,,,,,masks/mask_005.jpg,,,,,,,,,,,,,,,,,,,,,,,,,,,,,,,,,,,,,,,,,,,0,0,0,4,1,,,,,,,,,,,,,,,,,,,,,,,,,,,,,,,,,,,,,,,,,,,,,,
946728,001,2022-11-21_01h55.00.122,Info_measure_main_exp,2022.2.2,Win32,74.99625019,,,,,,,,,,,,,,,,,,masks/mask_002.jpg,,,,,,,,,,,,,,,,,,,,,,,,,,,,,,,,,,,,,,,,,,,0,1,1,1,1,,,,,,,,,,,,,,,,,,,,,,,,,,,,,,,,,,,,,,,,,,,,,,
946728,001,2022-11-21_01h55.00.122,Info_measure_main_exp,2022.2.2,Win32,74.99625019,,,,,,,,,,,,,,,,,,masks/mask_003.jpg,,,,,,,,,,,,,,,,,,,,,,,,,,,,,,,,,,,,,,,,,,,0,2,2,2,1,,,,,,,,,,,,,,,,,,,,,,,,,,,,,,,,,,,,,,,,,,,,,,
946728,001,2022-11-21_01h55.00.122,Info_measure_main_exp,2022.2.2,Win32,74.99625019,,,,,,,,,,,,,,,,,,masks/mask_004.jpg,,,,,,,,,,,,,,,,,,,,,,,,,,,,,,,,,,,,,,,,,,,0,3,3,3,1,,,,,,,,,,,,,,,,,,,,,,,,,,,,,,,,,,,,,,,,,,,,,,
946728,001,2022-11-21_01h55.00.122,Info_measure_main_exp,2022.2.2,Win32,74.99625019,,,,,,,,,,,,,,,,,,masks/mask_001.jpg,,,,,,,,,,,,,,,,,,,,,,,,,,,,,,,,,,,,,,,,,,,0,4,4,0,1,,,,,,,,,,,,,,,,,,,,,,,,,,,,,,,,,,,,,,,,,,,,,,
946728,001,2022-11-21_01h55.00.122,Info_measure_main_exp,2022.2.2,Win32,74.99625019,,,,,,,,,,,,,,,,,,masks/mask_002.jpg,,,,,,,,,,,,,,,,,,,,,,,,,,,,,,,,,,,,,,,,,,,,,,,,0,0,0,1,1,,,,,,,,,,,,,,,,,,,,,,,,,,,,,,,,,,,,,,,,,
946728,001,2022-11-21_01h55.00.122,Info_measure_main_exp,2022.2.2,Win32,74.99625019,,,,,,,,,,,,,,,,,,masks/mask_001.jpg,,,,,,,,,,,,,,,,,,,,,,,,,,,,,,,,,,,,,,,,,,,,,,,,0,1,1,0,1,,,,,,,,,,,,,,,,,,,,,,,,,,,,,,,,,,,,,,,,,
946728,001,2022-11-21_01h55.00.122,Info_measure_main_exp,2022.2.2,Win32,74.99625019,,,,,,,,,,,,,,,,,,masks/mask_004.jpg,,,,,,,,,,,,,,,,,,,,,,,,,,,,,,,,,,,,,,,,,,,,,,,,0,2,2,3,1,,,,,,,,,,,,,,,,,,,,,,,,,,,,,,,,,,,,,,,,,
946728,001,2022-11-21_01h55.00.122,Info_measure_main_exp,2022.2.2,Win32,74.99625019,,,,,,,,,,,,,,,,,,masks/mask_005.jpg,,,,,,,,,,,,,,,,,,,,,,,,,,,,,,,,,,,,,,,,,,,,,,,,0,3,3,4,1,,,,,,,,,,,,,,,,,,,,,,,,,,,,,,,,,,,,,,,,,
946728,001,2022-11-21_01h55.00.122,Info_measure_main_exp,2022.2.2,Win32,74.99625019,,,,,,,,,,,,,,,,,,masks/mask_003.jpg,,,,,,,,,,,,,,,,,,,,,,,,,,,,,,,,,,,,,,,,,,,,,,,,0,4,4,2,1,,,,,,,,,,,,,,,,,,,,,,,,,,,,,,,,,,,,,,,,,
946728,001,2022-11-21_01h55.00.122,Info_measure_main_exp,2022.2.2,Win32,74.99625019,,,,,,,,,,,,,,,,,,,,,,,,,,,,,,0,3.4143,1,,,,,,,,,,,,0,131,5,5,1950,1950,absent_patch/patch0001950.jpg,absent_patch/patch0001950.jpg,,,,,,,,,,,,,,,,,,,,-0.070309682,0.097691623,1,0,0,response7disk,2,-0.012994098,0.01132567,1,0,0,center_square,0,1,1,92,1,,,,,,,,,,,,,,,,,,,,,,,
946728,001,2022-11-21_01h55.00.122,Info_measure_main_exp,2022.2.2,Win32,74.99625019,,,,,,,,,,,,,,,,,,masks/mask_005.jpg,,,,,,,,,,,,,,,,,,,,,,,,,,,,,,,,,,,,,,,,,,,0,0,0,4,1,,,,,,,,,,,,,,,,,,,,,,,,,,,,,,,,,,,,,,,,,,,,,,
946728,001,2022-11-21_01h55.00.122,Info_measure_main_exp,2022.2.2,Win32,74.99625019,,,,,,,,,,,,,,,,,,masks/mask_002.jpg,,,,,,,,,,,,,,,,,,,,,,,,,,,,,,,,,,,,,,,,,,,0,1,1,1,1,,,,,,,,,,,,,,,,,,,,,,,,,,,,,,,,,,,,,,,,,,,,,,
946728,001,2022-11-21_01h55.00.122,Info_measure_main_exp,2022.2.2,Win32,74.99625019,,,,,,,,,,,,,,,,,,masks/mask_003.jpg,,,,,,,,,,,,,,,,,,,,,,,,,,,,,,,,,,,,,,,,,,,0,2,2,2,1,,,,,,,,,,,,,,,,,,,,,,,,,,,,,,,,,,,,,,,,,,,,,,
946728,001,2022-11-21_01h55.00.122,Info_measure_main_exp,2022.2.2,Win32,74.99625019,,,,,,,,,,,,,,,,,,masks/mask_001.jpg,,,,,,,,,,,,,,,,,,,,,,,,,,,,,,,,,,,,,,,,,,,0,3,3,0,1,,,,,,,,,,,,,,,,,,,,,,,,,,,,,,,,,,,,,,,,,,,,,,
946728,001,2022-11-21_01h55.00.122,Info_measure_main_exp,2022.2.2,Win32,74.99625019,,,,,,,,,,,,,,,,,,masks/mask_004.jpg,,,,,,,,,,,,,,,,,,,,,,,,,,,,,,,,,,,,,,,,,,,0,4,4,3,1,,,,,,,,,,,,,,,,,,,,,,,,,,,,,,,,,,,,,,,,,,,,,,
946728,001,2022-11-21_01h55.00.122,Info_measure_main_exp,2022.2.2,Win32,74.99625019,,,,,,,,,,,,,,,,,,masks/mask_005.jpg,,,,,,,,,,,,,,,,,,,,,,,,,,,,,,,,,,,,,,,,,,,,,,,,0,0,0,4,1,,,,,,,,,,,,,,,,,,,,,,,,,,,,,,,,,,,,,,,,,
946728,001,2022-11-21_01h55.00.122,Info_measure_main_exp,2022.2.2,Win32,74.99625019,,,,,,,,,,,,,,,,,,masks/mask_004.jpg,,,,,,,,,,,,,,,,,,,,,,,,,,,,,,,,,,,,,,,,,,,,,,,,0,1,1,3,1,,,,,,,,,,,,,,,,,,,,,,,,,,,,,,,,,,,,,,,,,
946728,001,2022-11-21_01h55.00.122,Info_measure_main_exp,2022.2.2,Win32,74.99625019,,,,,,,,,,,,,,,,,,masks/mask_002.jpg,,,,,,,,,,,,,,,,,,,,,,,,,,,,,,,,,,,,,,,,,,,,,,,,0,2,2,1,1,,,,,,,,,,,,,,,,,,,,,,,,,,,,,,,,,,,,,,,,,
946728,001,2022-11-21_01h55.00.122,Info_measure_main_exp,2022.2.2,Win32,74.99625019,,,,,,,,,,,,,,,,,,masks/mask_001.jpg,,,,,,,,,,,,,,,,,,,,,,,,,,,,,,,,,,,,,,,,,,,,,,,,0,3,3,0,1,,,,,,,,,,,,,,,,,,,,,,,,,,,,,,,,,,,,,,,,,
946728,001,2022-11-21_01h55.00.122,Info_measure_main_exp,2022.2.2,Win32,74.99625019,,,,,,,,,,,,,,,,,,masks/mask_003.jpg,,,,,,,,,,,,,,,,,,,,,,,,,,,,,,,,,,,,,,,,,,,,,,,,0,4,4,2,1,,,,,,,,,,,,,,,,,,,,,,,,,,,,,,,,,,,,,,,,,
946728,001,2022-11-21_01h55.00.122,Info_measure_main_exp,2022.2.2,Win32,74.99625019,,,,,,,,,,,,,,,,,,,,,,,,,,,,,,0,0.8136,1,,,,,,,,,,,,0,131,5,5,2178,2178,absent_patch/patch0002178.jpg,absent_patch/patch0002178.jpg,,,,,,,,,,,,,,,,,,,,-0.034978176,0.0764927,1,0,0,response7disk,3,-0.007498116,0.005829688,1,0,0,center_square,0,2,2,98,1,,,,,,,,,,,,,,,,,,,,,,,
946728,001,2022-11-21_01h55.00.122,Info_measure_main_exp,2022.2.2,Win32,74.99625019,,,,,,,,,,,,,,,,,,masks/mask_005.jpg,,,,,,,,,,,,,,,,,,,,,,,,,,,,,,,,,,,,,,,,,,,0,0,0,4,1,,,,,,,,,,,,,,,,,,,,,,,,,,,,,,,,,,,,,,,,,,,,,,
946728,001,2022-11-21_01h55.00.122,Info_measure_main_exp,2022.2.2,Win32,74.99625019,,,,,,,,,,,,,,,,,,masks/mask_003.jpg,,,,,,,,,,,,,,,,,,,,,,,,,,,,,,,,,,,,,,,,,,,0,1,1,2,1,,,,,,,,,,,,,,,,,,,,,,,,,,,,,,,,,,,,,,,,,,,,,,
946728,001,2022-11-21_01h55.00.122,Info_measure_main_exp,2022.2.2,Win32,74.99625019,,,,,,,,,,,,,,,,,,masks/mask_001.jpg,,,,,,,,,,,,,,,,,,,,,,,,,,,,,,,,,,,,,,,,,,,0,2,2,0,1,,,,,,,,,,,,,,,,,,,,,,,,,,,,,,,,,,,,,,,,,,,,,,
946728,001,2022-11-21_01h55.00.122,Info_measure_main_exp,2022.2.2,Win32,74.99625019,,,,,,,,,,,,,,,,,,masks/mask_002.jpg,,,,,,,,,,,,,,,,,,,,,,,,,,,,,,,,,,,,,,,,,,,0,3,3,1,1,,,,,,,,,,,,,,,,,,,,,,,,,,,,,,,,,,,,,,,,,,,,,,
946728,001,2022-11-21_01h55.00.122,Info_measure_main_exp,2022.2.2,Win32,74.99625019,,,,,,,,,,,,,,,,,,masks/mask_004.jpg,,,,,,,,,,,,,,,,,,,,,,,,,,,,,,,,,,,,,,,,,,,0,4,4,3,1,,,,,,,,,,,,,,,,,,,,,,,,,,,,,,,,,,,,,,,,,,,,,,
946728,001,2022-11-21_01h55.00.122,Info_measure_main_exp,2022.2.2,Win32,74.99625019,,,,,,,,,,,,,,,,,,masks/mask_005.jpg,,,,,,,,,,,,,,,,,,,,,,,,,,,,,,,,,,,,,,,,,,,,,,,,0,0,0,4,1,,,,,,,,,,,,,,,,,,,,,,,,,,,,,,,,,,,,,,,,,
946728,001,2022-11-21_01h55.00.122,Info_measure_main_exp,2022.2.2,Win32,74.99625019,,,,,,,,,,,,,,,,,,masks/mask_004.jpg,,,,,,,,,,,,,,,,,,,,,,,,,,,,,,,,,,,,,,,,,,,,,,,,0,1,1,3,1,,,,,,,,,,,,,,,,,,,,,,,,,,,,,,,,,,,,,,,,,
946728,001,2022-11-21_01h55.00.122,Info_measure_main_exp,2022.2.2,Win32,74.99625019,,,,,,,,,,,,,,,,,,masks/mask_003.jpg,,,,,,,,,,,,,,,,,,,,,,,,,,,,,,,,,,,,,,,,,,,,,,,,0,2,2,2,1,,,,,,,,,,,,,,,,,,,,,,,,,,,,,,,,,,,,,,,,,
946728,001,2022-11-21_01h55.00.122,Info_measure_main_exp,2022.2.2,Win32,74.99625019,,,,,,,,,,,,,,,,,,masks/mask_002.jpg,,,,,,,,,,,,,,,,,,,,,,,,,,,,,,,,,,,,,,,,,,,,,,,,0,3,3,1,1,,,,,,,,,,,,,,,,,,,,,,,,,,,,,,,,,,,,,,,,,
946728,001,2022-11-21_01h55.00.122,Info_measure_main_exp,2022.2.2,Win32,74.99625019,,,,,,,,,,,,,,,,,,masks/mask_001.jpg,,,,,,,,,,,,,,,,,,,,,,,,,,,,,,,,,,,,,,,,,,,,,,,,0,4,4,0,1,,,,,,,,,,,,,,,,,,,,,,,,,,,,,,,,,,,,,,,,,
946728,001,2022-11-21_01h55.00.122,Info_measure_main_exp,2022.2.2,Win32,74.99625019,,,,,,,,,,,,,,,,,,,,,,,,,,,,,,6,2.6806,1,,,,,,,,,,,,0,131,5,5,1974,2298,absent_patch/patch0001974.jpg,absent_patch/patch0002298.jpg,,,,,,,,,,,,,,,,,,,,0.118125117,0.049012639,1,0,0,response1disk,4,0.010560239,-0.001236654,1,0,0,center_square,0,3,3,6,1,,,,,,,,,,,,,,,,,,,,,,,
946728,001,2022-11-21_01h55.00.122,Info_measure_main_exp,2022.2.2,Win32,74.99625019,,,,,,,,,,,,,,,,,,masks/mask_001.jpg,,,,,,,,,,,,,,,,,,,,,,,,,,,,,,,,,,,,,,,,,,,0,0,0,0,1,,,,,,,,,,,,,,,,,,,,,,,,,,,,,,,,,,,,,,,,,,,,,,
946728,001,2022-11-21_01h55.00.122,Info_measure_main_exp,2022.2.2,Win32,74.99625019,,,,,,,,,,,,,,,,,,masks/mask_003.jpg,,,,,,,,,,,,,,,,,,,,,,,,,,,,,,,,,,,,,,,,,,,0,1,1,2,1,,,,,,,,,,,,,,,,,,,,,,,,,,,,,,,,,,,,,,,,,,,,,,
946728,001,2022-11-21_01h55.00.122,Info_measure_main_exp,2022.2.2,Win32,74.99625019,,,,,,,,,,,,,,,,,,masks/mask_005.jpg,,,,,,,,,,,,,,,,,,,,,,,,,,,,,,,,,,,,,,,,,,,0,2,2,4,1,,,,,,,,,,,,,,,,,,,,,,,,,,,,,,,,,,,,,,,,,,,,,,
946728,001,2022-11-21_01h55.00.122,Info_measure_main_exp,2022.2.2,Win32,74.99625019,,,,,,,,,,,,,,,,,,masks/mask_004.jpg,,,,,,,,,,,,,,,,,,,,,,,,,,,,,,,,,,,,,,,,,,,0,3,3,3,1,,,,,,,,,,,,,,,,,,,,,,,,,,,,,,,,,,,,,,,,,,,,,,
946728,001,2022-11-21_01h55.00.122,Info_measure_main_exp,2022.2.2,Win32,74.99625019,,,,,,,,,,,,,,,,,,masks/mask_002.jpg,,,,,,,,,,,,,,,,,,,,,,,,,,,,,,,,,,,,,,,,,,,0,4,4,1,1,,,,,,,,,,,,,,,,,,,,,,,,,,,,,,,,,,,,,,,,,,,,,,
946728,001,2022-11-21_01h55.00.122,Info_measure_main_exp,2022.2.2,Win32,74.99625019,,,,,,,,,,,,,,,,,,masks/mask_002.jpg,,,,,,,,,,,,,,,,,,,,,,,,,,,,,,,,,,,,,,,,,,,,,,,,0,0,0,1,1,,,,,,,,,,,,,,,,,,,,,,,,,,,,,,,,,,,,,,,,,
946728,001,2022-11-21_01h55.00.122,Info_measure_main_exp,2022.2.2,Win32,74.99625019,,,,,,,,,,,,,,,,,,masks/mask_003.jpg,,,,,,,,,,,,,,,,,,,,,,,,,,,,,,,,,,,,,,,,,,,,,,,,0,1,1,2,1,,,,,,,,,,,,,,,,,,,,,,,,,,,,,,,,,,,,,,,,,
946728,001,2022-11-21_01h55.00.122,Info_measure_main_exp,2022.2.2,Win32,74.99625019,,,,,,,,,,,,,,,,,,masks/mask_005.jpg,,,,,,,,,,,,,,,,,,,,,,,,,,,,,,,,,,,,,,,,,,,,,,,,0,2,2,4,1,,,,,,,,,,,,,,,,,,,,,,,,,,,,,,,,,,,,,,,,,
946728,001,2022-11-21_01h55.00.122,Info_measure_main_exp,2022.2.2,Win32,74.99625019,,,,,,,,,,,,,,,,,,masks/mask_001.jpg,,,,,,,,,,,,,,,,,,,,,,,,,,,,,,,,,,,,,,,,,,,,,,,,0,3,3,0,1,,,,,,,,,,,,,,,,,,,,,,,,,,,,,,,,,,,,,,,,,
946728,001,2022-11-21_01h55.00.122,Info_measure_main_exp,2022.2.2,Win32,74.99625019,,,,,,,,,,,,,,,,,,masks/mask_004.jpg,,,,,,,,,,,,,,,,,,,,,,,,,,,,,,,,,,,,,,,,,,,,,,,,0,4,4,3,1,,,,,,,,,,,,,,,,,,,,,,,,,,,,,,,,,,,,,,,,,
946728,001,2022-11-21_01h55.00.122,Info_measure_main_exp,2022.2.2,Win32,74.99625019,,,,,,,,,,,,,,,,,,,,,,,,,,,,,,0,0.7341,1,,,,,,,,,,,,0,131,5,5,2166,2166,absent_patch/patch0002166.jpg,absent_patch/patch0002166.jpg,,,,,,,,,,,,,,,,,,,,-0.029482144,0.061574963,1,0,0,response7disk,5,0.002708794,0.005829688,1,0,0,center_square,0,4,4,42,1,,,,,,,,,,,,,,,,,,,,,,,
946728,001,2022-11-21_01h55.00.122,Info_measure_main_exp,2022.2.2,Win32,74.99625019,,,,,,,,,,,,,,,,,,masks/mask_004.jpg,,,,,,,,,,,,,,,,,,,,,,,,,,,,,,,,,,,,,,,,,,,0,0,0,3,1,,,,,,,,,,,,,,,,,,,,,,,,,,,,,,,,,,,,,,,,,,,,,,
946728,001,2022-11-21_01h55.00.122,Info_measure_main_exp,2022.2.2,Win32,74.99625019,,,,,,,,,,,,,,,,,,masks/mask_003.jpg,,,,,,,,,,,,,,,,,,,,,,,,,,,,,,,,,,,,,,,,,,,0,1,1,2,1,,,,,,,,,,,,,,,,,,,,,,,,,,,,,,,,,,,,,,,,,,,,,,
946728,001,2022-11-21_01h55.00.122,Info_measure_main_exp,2022.2.2,Win32,74.99625019,,,,,,,,,,,,,,,,,,masks/mask_002.jpg,,,,,,,,,,,,,,,,,,,,,,,,,,,,,,,,,,,,,,,,,,,0,2,2,1,1,,,,,,,,,,,,,,,,,,,,,,,,,,,,,,,,,,,,,,,,,,,,,,
946728,001,2022-11-21_01h55.00.122,Info_measure_main_exp,2022.2.2,Win32,74.99625019,,,,,,,,,,,,,,,,,,masks/mask_005.jpg,,,,,,,,,,,,,,,,,,,,,,,,,,,,,,,,,,,,,,,,,,,0,3,3,4,1,,,,,,,,,,,,,,,,,,,,,,,,,,,,,,,,,,,,,,,,,,,,,,
946728,001,2022-11-21_01h55.00.122,Info_measure_main_exp,2022.2.2,Win32,74.99625019,,,,,,,,,,,,,,,,,,masks/mask_001.jpg,,,,,,,,,,,,,,,,,,,,,,,,,,,,,,,,,,,,,,,,,,,0,4,4,0,1,,,,,,,,,,,,,,,,,,,,,,,,,,,,,,,,,,,,,,,,,,,,,,
946728,001,2022-11-21_01h55.00.122,Info_measure_main_exp,2022.2.2,Win32,74.99625019,,,,,,,,,,,,,,,,,,masks/mask_005.jpg,,,,,,,,,,,,,,,,,,,,,,,,,,,,,,,,,,,,,,,,,,,,,,,,0,0,0,4,1,,,,,,,,,,,,,,,,,,,,,,,,,,,,,,,,,,,,,,,,,
946728,001,2022-11-21_01h55.00.122,Info_measure_main_exp,2022.2.2,Win32,74.99625019,,,,,,,,,,,,,,,,,,masks/mask_003.jpg,,,,,,,,,,,,,,,,,,,,,,,,,,,,,,,,,,,,,,,,,,,,,,,,0,1,1,2,1,,,,,,,,,,,,,,,,,,,,,,,,,,,,,,,,,,,,,,,,,
946728,001,2022-11-21_01h55.00.122,Info_measure_main_exp,2022.2.2,Win32,74.99625019,,,,,,,,,,,,,,,,,,masks/mask_004.jpg,,,,,,,,,,,,,,,,,,,,,,,,,,,,,,,,,,,,,,,,,,,,,,,,0,2,2,3,1,,,,,,,,,,,,,,,,,,,,,,,,,,,,,,,,,,,,,,,,,
946728,001,2022-11-21_01h55.00.122,Info_measure_main_exp,2022.2.2,Win32,74.99625019,,,,,,,,,,,,,,,,,,masks/mask_002.jpg,,,,,,,,,,,,,,,,,,,,,,,,,,,,,,,,,,,,,,,,,,,,,,,,0,3,3,1,1,,,,,,,,,,,,,,,,,,,,,,,,,,,,,,,,,,,,,,,,,
946728,001,2022-11-21_01h55.00.122,Info_measure_main_exp,2022.2.2,Win32,74.99625019,,,,,,,,,,,,,,,,,,masks/mask_001.jpg,,,,,,,,,,,,,,,,,,,,,,,,,,,,,,,,,,,,,,,,,,,,,,,,0,4,4,0,1,,,,,,,,,,,,,,,,,,,,,,,,,,,,,,,,,,,,,,,,,
946728,001,2022-11-21_01h55.00.122,Info_measure_main_exp,2022.2.2,Win32,74.99625019,,,,,,,,,,,,,,,,,,,,,,,,,,,,,,5,4.6412,1,,,,,,,,,,,,0,131,5,5,2154,2214,absent_patch/patch0002154.jpg,absent_patch/patch0002214.jpg,,,,,,,,,,,,,,,,,,,,0.150316054,-0.028716714,1,0,0,response3disk,6,0.006634768,0.008185101,0,0,1,center_square,0,5,5,67,1,,,,,,,,,,,,,,,,,,,,,,,
946728,001,2022-11-21_01h55.00.122,Info_measure_main_exp,2022.2.2,Win32,74.99625019,,,,,,,,,,,,,,,,,,masks/mask_004.jpg,,,,,,,,,,,,,,,,,,,,,,,,,,,,,,,,,,,,,,,,,,,0,0,0,3,1,,,,,,,,,,,,,,,,,,,,,,,,,,,,,,,,,,,,,,,,,,,,,,
946728,001,2022-11-21_01h55.00.122,Info_measure_main_exp,2022.2.2,Win32,74.99625019,,,,,,,,,,,,,,,,,,masks/mask_003.jpg,,,,,,,,,,,,,,,,,,,,,,,,,,,,,,,,,,,,,,,,,,,0,1,1,2,1,,,,,,,,,,,,,,,,,,,,,,,,,,,,,,,,,,,,,,,,,,,,,,
946728,001,2022-11-21_01h55.00.122,Info_measure_main_exp,2022.2.2,Win32,74.99625019,,,,,,,,,,,,,,,,,,masks/mask_002.jpg,,,,,,,,,,,,,,,,,,,,,,,,,,,,,,,,,,,,,,,,,,,0,2,2,1,1,,,,,,,,,,,,,,,,,,,,,,,,,,,,,,,,,,,,,,,,,,,,,,
946728,001,2022-11-21_01h55.00.122,Info_measure_main_exp,2022.2.2,Win32,74.99625019,,,,,,,,,,,,,,,,,,masks/mask_001.jpg,,,,,,,,,,,,,,,,,,,,,,,,,,,,,,,,,,,,,,,,,,,0,3,3,0,1,,,,,,,,,,,,,,,,,,,,,,,,,,,,,,,,,,,,,,,,,,,,,,
946728,001,2022-11-21_01h55.00.122,Info_measure_main_exp,2022.2.2,Win32,74.99625019,,,,,,,,,,,,,,,,,,masks/mask_005.jpg,,,,,,,,,,,,,,,,,,,,,,,,,,,,,,,,,,,,,,,,,,,0,4,4,4,1,,,,,,,,,,,,,,,,,,,,,,,,,,,,,,,,,,,,,,,,,,,,,,
946728,001,2022-11-21_01h55.00.122,Info_measure_main_exp,2022.2.2,Win32,74.99625019,,,,,,,,,,,,,,,,,,masks/mask_001.jpg,,,,,,,,,,,,,,,,,,,,,,,,,,,,,,,,,,,,,,,,,,,,,,,,0,0,0,0,1,,,,,,,,,,,,,,,,,,,,,,,,,,,,,,,,,,,,,,,,,
946728,001,2022-11-21_01h55.00.122,Info_measure_main_exp,2022.2.2,Win32,74.99625019,,,,,,,,,,,,,,,,,,masks/mask_003.jpg,,,,,,,,,,,,,,,,,,,,,,,,,,,,,,,,,,,,,,,,,,,,,,,,0,1,1,2,1,,,,,,,,,,,,,,,,,,,,,,,,,,,,,,,,,,,,,,,,,
946728,001,2022-11-21_01h55.00.122,Info_measure_main_exp,2022.2.2,Win32,74.99625019,,,,,,,,,,,,,,,,,,masks/mask_004.jpg,,,,,,,,,,,,,,,,,,,,,,,,,,,,,,,,,,,,,,,,,,,,,,,,0,2,2,3,1,,,,,,,,,,,,,,,,,,,,,,,,,,,,,,,,,,,,,,,,,
946728,001,2022-11-21_01h55.00.122,Info_measure_main_exp,2022.2.2,Win32,74.99625019,,,,,,,,,,,,,,,,,,masks/mask_005.jpg,,,,,,,,,,,,,,,,,,,,,,,,,,,,,,,,,,,,,,,,,,,,,,,,0,3,3,4,1,,,,,,,,,,,,,,,,,,,,,,,,,,,,,,,,,,,,,,,,,
946728,001,2022-11-21_01h55.00.122,Info_measure_main_exp,2022.2.2,Win32,74.99625019,,,,,,,,,,,,,,,,,,masks/mask_002.jpg,,,,,,,,,,,,,,,,,,,,,,,,,,,,,,,,,,,,,,,,,,,,,,,,0,4,4,1,1,,,,,,,,,,,,,,,,,,,,,,,,,,,,,,,,,,,,,,,,,
946728,001,2022-11-21_01h55.00.122,Info_measure_main_exp,2022.2.2,Win32,74.99625019,,,,,,,,,,,,,,,,,,,,,,,,,,,,,,7,0.8136,1,,,,,,,,,,,,1,131,5,5,2298,1,absent_patch/patch0002298.jpg,present_patch/cong_131_5_a.jpg,,,,,,,,,,,,,,,,,,,,0.032544368,0.139304316,1,0,1,response1disk,7,0.012915703,0.001903914,1,0,1,center_square,0,6,6,45,1,,,,,,,,,,,,,,,,,,,,,,,
946728,001,2022-11-21_01h55.00.122,Info_measure_main_exp,2022.2.2,Win32,74.99625019,,,,,,,,,,,,,,,,,,masks/mask_005.jpg,,,,,,,,,,,,,,,,,,,,,,,,,,,,,,,,,,,,,,,,,,,0,0,0,4,1,,,,,,,,,,,,,,,,,,,,,,,,,,,,,,,,,,,,,,,,,,,,,,
946728,001,2022-11-21_01h55.00.122,Info_measure_main_exp,2022.2.2,Win32,74.99625019,,,,,,,,,,,,,,,,,,masks/mask_002.jpg,,,,,,,,,,,,,,,,,,,,,,,,,,,,,,,,,,,,,,,,,,,0,1,1,1,1,,,,,,,,,,,,,,,,,,,,,,,,,,,,,,,,,,,,,,,,,,,,,,
946728,001,2022-11-21_01h55.00.122,Info_measure_main_exp,2022.2.2,Win32,74.99625019,,,,,,,,,,,,,,,,,,masks/mask_003.jpg,,,,,,,,,,,,,,,,,,,,,,,,,,,,,,,,,,,,,,,,,,,0,2,2,2,1,,,,,,,,,,,,,,,,,,,,,,,,,,,,,,,,,,,,,,,,,,,,,,
946728,001,2022-11-21_01h55.00.122,Info_measure_main_exp,2022.2.2,Win32,74.99625019,,,,,,,,,,,,,,,,,,masks/mask_001.jpg,,,,,,,,,,,,,,,,,,,,,,,,,,,,,,,,,,,,,,,,,,,0,3,3,0,1,,,,,,,,,,,,,,,,,,,,,,,,,,,,,,,,,,,,,,,,,,,,,,
946728,001,2022-11-21_01h55.00.122,Info_measure_main_exp,2022.2.2,Win32,74.99625019,,,,,,,,,,,,,,,,,,masks/mask_004.jpg,,,,,,,,,,,,,,,,,,,,,,,,,,,,,,,,,,,,,,,,,,,0,4,4,3,1,,,,,,,,,,,,,,,,,,,,,,,,,,,,,,,,,,,,,,,,,,,,,,
946728,001,2022-11-21_01h55.00.122,Info_measure_main_exp,2022.2.2,Win32,74.99625019,,,,,,,,,,,,,,,,,,masks/mask_001.jpg,,,,,,,,,,,,,,,,,,,,,,,,,,,,,,,,,,,,,,,,,,,,,,,,0,0,0,0,1,,,,,,,,,,,,,,,,,,,,,,,,,,,,,,,,,,,,,,,,,
946728,001,2022-11-21_01h55.00.122,Info_measure_main_exp,2022.2.2,Win32,74.99625019,,,,,,,,,,,,,,,,,,masks/mask_003.jpg,,,,,,,,,,,,,,,,,,,,,,,,,,,,,,,,,,,,,,,,,,,,,,,,0,1,1,2,1,,,,,,,,,,,,,,,,,,,,,,,,,,,,,,,,,,,,,,,,,
946728,001,2022-11-21_01h55.00.122,Info_measure_main_exp,2022.2.2,Win32,74.99625019,,,,,,,,,,,,,,,,,,masks/mask_002.jpg,,,,,,,,,,,,,,,,,,,,,,,,,,,,,,,,,,,,,,,,,,,,,,,,0,2,2,1,1,,,,,,,,,,,,,,,,,,,,,,,,,,,,,,,,,,,,,,,,,
946728,001,2022-11-21_01h55.00.122,Info_measure_main_exp,2022.2.2,Win32,74.99625019,,,,,,,,,,,,,,,,,,masks/mask_004.jpg,,,,,,,,,,,,,,,,,,,,,,,,,,,,,,,,,,,,,,,,,,,,,,,,0,3,3,3,1,,,,,,,,,,,,,,,,,,,,,,,,,,,,,,,,,,,,,,,,,
946728,001,2022-11-21_01h55.00.122,Info_measure_main_exp,2022.2.2,Win32,74.99625019,,,,,,,,,,,,,,,,,,masks/mask_005.jpg,,,,,,,,,,,,,,,,,,,,,,,,,,,,,,,,,,,,,,,,,,,,,,,,0,4,4,4,1,,,,,,,,,,,,,,,,,,,,,,,,,,,,,,,,,,,,,,,,,
946728,001,2022-11-21_01h55.00.122,Info_measure_main_exp,2022.2.2,Win32,74.99625019,,,,,,,,,,,,,,,,,,,,,,,,,,,,,,5,3.6809,1,,,,,,,,,,,,0,131,5,5,2154,2238,absent_patch/patch0002154.jpg,absent_patch/patch0002238.jpg,,,,,,,,,,,,,,,,,,,,0.114984699,-0.064833475,1,0,1,response3disk,8,0.004279103,-0.010658359,1,0,1,center_square,0,7,7,21,1,,,,,,,,,,,,,,,,,,,,,,,
946728,001,2022-11-21_01h55.00.122,Info_measure_main_exp,2022.2.2,Win32,74.99625019,,,,,,,,,,,,,,,,,,masks/mask_005.jpg,,,,,,,,,,,,,,,,,,,,,,,,,,,,,,,,,,,,,,,,,,,0,0,0,4,1,,,,,,,,,,,,,,,,,,,,,,,,,,,,,,,,,,,,,,,,,,,,,,
946728,001,2022-11-21_01h55.00.122,Info_measure_main_exp,2022.2.2,Win32,74.99625019,,,,,,,,,,,,,,,,,,masks/mask_004.jpg,,,,,,,,,,,,,,,,,,,,,,,,,,,,,,,,,,,,,,,,,,,0,1,1,3,1,,,,,,,,,,,,,,,,,,,,,,,,,,,,,,,,,,,,,,,,,,,,,,
946728,001,2022-11-21_01h55.00.122,Info_measure_main_exp,2022.2.2,Win32,74.99625019,,,,,,,,,,,,,,,,,,masks/mask_003.jpg,,,,,,,,,,,,,,,,,,,,,,,,,,,,,,,,,,,,,,,,,,,0,2,2,2,1,,,,,,,,,,,,,,,,,,,,,,,,,,,,,,,,,,,,,,,,,,,,,,
946728,001,2022-11-21_01h55.00.122,Info_measure_main_exp,2022.2.2,Win32,74.99625019,,,,,,,,,,,,,,,,,,masks/mask_002.jpg,,,,,,,,,,,,,,,,,,,,,,,,,,,,,,,,,,,,,,,,,,,0,3,3,1,1,,,,,,,,,,,,,,,,,,,,,,,,,,,,,,,,,,,,,,,,,,,,,,
946728,001,2022-11-21_01h55.00.122,Info_measure_main_exp,2022.2.2,Win32,74.99625019,,,,,,,,,,,,,,,,,,masks/mask_001.jpg,,,,,,,,,,,,,,,,,,,,,,,,,,,,,,,,,,,,,,,,,,,0,4,4,0,1,,,,,,,,,,,,,,,,,,,,,,,,,,,,,,,,,,,,,,,,,,,,,,
946728,001,2022-11-21_01h55.00.122,Info_measure_main_exp,2022.2.2,Win32,74.99625019,,,,,,,,,,,,,,,,,,masks/mask_003.jpg,,,,,,,,,,,,,,,,,,,,,,,,,,,,,,,,,,,,,,,,,,,,,,,,0,0,0,2,1,,,,,,,,,,,,,,,,,,,,,,,,,,,,,,,,,,,,,,,,,
946728,001,2022-11-21_01h55.00.122,Info_measure_main_exp,2022.2.2,Win32,74.99625019,,,,,,,,,,,,,,,,,,masks/mask_002.jpg,,,,,,,,,,,,,,,,,,,,,,,,,,,,,,,,,,,,,,,,,,,,,,,,0,1,1,1,1,,,,,,,,,,,,,,,,,,,,,,,,,,,,,,,,,,,,,,,,,
946728,001,2022-11-21_01h55.00.122,Info_measure_main_exp,2022.2.2,Win32,74.99625019,,,,,,,,,,,,,,,,,,masks/mask_005.jpg,,,,,,,,,,,,,,,,,,,,,,,,,,,,,,,,,,,,,,,,,,,,,,,,0,2,2,4,1,,,,,,,,,,,,,,,,,,,,,,,,,,,,,,,,,,,,,,,,,
946728,001,2022-11-21_01h55.00.122,Info_measure_main_exp,2022.2.2,Win32,74.99625019,,,,,,,,,,,,,,,,,,masks/mask_004.jpg,,,,,,,,,,,,,,,,,,,,,,,,,,,,,,,,,,,,,,,,,,,,,,,,0,3,3,3,1,,,,,,,,,,,,,,,,,,,,,,,,,,,,,,,,,,,,,,,,,
946728,001,2022-11-21_01h55.00.122,Info_measure_main_exp,2022.2.2,Win32,74.99625019,,,,,,,,,,,,,,,,,,masks/mask_001.jpg,,,,,,,,,,,,,,,,,,,,,,,,,,,,,,,,,,,,,,,,,,,,,,,,0,4,4,0,1,,,,,,,,,,,,,,,,,,,,,,,,,,,,,,,,,,,,,,,,,
946728,001,2022-11-21_01h55.00.122,Info_measure_main_exp,2022.2.2,Win32,74.99625019,,,,,,,,,,,,,,,,,,,,,,,,,,,,,,7,2.1096,1,,,,,,,,,,,,0,131,5,5,2250,2178,absent_patch/patch0002250.jpg,absent_patch/patch0002178.jpg,,,,,,,,,,,,,,,,,,,,0.070231288,0.123601424,1,0,1,response1disk,9,0.011345394,-0.004377222,1,0,1,center_square,0,8,8,48,1,,,,,,,,,,,,,,,,,,,,,,,
946728,001,2022-11-21_01h55.00.122,Info_measure_main_exp,2022.2.2,Win32,74.99625019,,,,,,,,,,,,,,,,,,masks/mask_003.jpg,,,,,,,,,,,,,,,,,,,,,,,,,,,,,,,,,,,,,,,,,,,0,0,0,2,1,,,,,,,,,,,,,,,,,,,,,,,,,,,,,,,,,,,,,,,,,,,,,,
946728,001,2022-11-21_01h55.00.122,Info_measure_main_exp,2022.2.2,Win32,74.99625019,,,,,,,,,,,,,,,,,,masks/mask_005.jpg,,,,,,,,,,,,,,,,,,,,,,,,,,,,,,,,,,,,,,,,,,,0,1,1,4,1,,,,,,,,,,,,,,,,,,,,,,,,,,,,,,,,,,,,,,,,,,,,,,
946728,001,2022-11-21_01h55.00.122,Info_measure_main_exp,2022.2.2,Win32,74.99625019,,,,,,,,,,,,,,,,,,masks/mask_001.jpg,,,,,,,,,,,,,,,,,,,,,,,,,,,,,,,,,,,,,,,,,,,0,2,2,0,1,,,,,,,,,,,,,,,,,,,,,,,,,,,,,,,,,,,,,,,,,,,,,,
946728,001,2022-11-21_01h55.00.122,Info_measure_main_exp,2022.2.2,Win32,74.99625019,,,,,,,,,,,,,,,,,,masks/mask_004.jpg,,,,,,,,,,,,,,,,,,,,,,,,,,,,,,,,,,,,,,,,,,,0,3,3,3,1,,,,,,,,,,,,,,,,,,,,,,,,,,,,,,,,,,,,,,,,,,,,,,
946728,001,2022-11-21_01h55.00.122,Info_measure_main_exp,2022.2.2,Win32,74.99625019,,,,,,,,,,,,,,,,,,masks/mask_002.jpg,,,,,,,,,,,,,,,,,,,,,,,,,,,,,,,,,,,,,,,,,,,0,4,4,1,1,,,,,,,,,,,,,,,,,,,,,,,,,,,,,,,,,,,,,,,,,,,,,,
946728,001,2022-11-21_01h55.00.122,Info_measure_main_exp,2022.2.2,Win32,74.99625019,,,,,,,,,,,,,,,,,,masks/mask_005.jpg,,,,,,,,,,,,,,,,,,,,,,,,,,,,,,,,,,,,,,,,,,,,,,,,0,0,0,4,1,,,,,,,,,,,,,,,,,,,,,,,,,,,,,,,,,,,,,,,,,
946728,001,2022-11-21_01h55.00.122,Info_measure_main_exp,2022.2.2,Win32,74.99625019,,,,,,,,,,,,,,,,,,masks/mask_001.jpg,,,,,,,,,,,,,,,,,,,,,,,,,,,,,,,,,,,,,,,,,,,,,,,,0,1,1,0,1,,,,,,,,,,,,,,,,,,,,,,,,,,,,,,,,,,,,,,,,,
946728,001,2022-11-21_01h55.00.122,Info_measure_main_exp,2022.2.2,Win32,74.99625019,,,,,,,,,,,,,,,,,,masks/mask_002.jpg,,,,,,,,,,,,,,,,,,,,,,,,,,,,,,,,,,,,,,,,,,,,,,,,0,2,2,1,1,,,,,,,,,,,,,,,,,,,,,,,,,,,,,,,,,,,,,,,,,
946728,001,2022-11-21_01h55.00.122,Info_measure_main_exp,2022.2.2,Win32,74.99625019,,,,,,,,,,,,,,,,,,masks/mask_004.jpg,,,,,,,,,,,,,,,,,,,,,,,,,,,,,,,,,,,,,,,,,,,,,,,,0,3,3,3,1,,,,,,,,,,,,,,,,,,,,,,,,,,,,,,,,,,,,,,,,,
946728,001,2022-11-21_01h55.00.122,Info_measure_main_exp,2022.2.2,Win32,74.99625019,,,,,,,,,,,,,,,,,,masks/mask_003.jpg,,,,,,,,,,,,,,,,,,,,,,,,,,,,,,,,,,,,,,,,,,,,,,,,0,4,4,2,1,,,,,,,,,,,,,,,,,,,,,,,,,,,,,,,,,,,,,,,,,
946728,001,2022-11-21_01h55.00.122,Info_measure_main_exp,2022.2.2,Win32,74.99625019,,,,,,,,,,,,,,,,,,,,,,,,,,,,,,7,1.5205,1,,,,,,,,,,,,0,131,5,5,1974,2214,absent_patch/patch0001974.jpg,absent_patch/patch0002214.jpg,,,,,,,,,,,,,,,,,,,,0.050602623,0.086699584,1,0,1,response1disk,10,-0.007498116,-0.003592067,1,0,1,center_square,0,9,9,24,1,,,,,,,,,,,,,,,,,,,,,,,
946728,001,2022-11-21_01h55.00.122,Info_measure_main_exp,2022.2.2,Win32,74.99625019,,,,,,,,,,,,,,,,,,masks/mask_003.jpg,,,,,,,,,,,,,,,,,,,,,,,,,,,,,,,,,,,,,,,,,,,0,0,0,2,1,,,,,,,,,,,,,,,,,,,,,,,,,,,,,,,,,,,,,,,,,,,,,,
946728,001,2022-11-21_01h55.00.122,Info_measure_main_exp,2022.2.2,Win32,74.99625019,,,,,,,,,,,,,,,,,,masks/mask_004.jpg,,,,,,,,,,,,,,,,,,,,,,,,,,,,,,,,,,,,,,,,,,,0,1,1,3,1,,,,,,,,,,,,,,,,,,,,,,,,,,,,,,,,,,,,,,,,,,,,,,
946728,001,2022-11-21_01h55.00.122,Info_measure_main_exp,2022.2.2,Win32,74.99625019,,,,,,,,,,,,,,,,,,masks/mask_001.jpg,,,,,,,,,,,,,,,,,,,,,,,,,,,,,,,,,,,,,,,,,,,0,2,2,0,1,,,,,,,,,,,,,,,,,,,,,,,,,,,,,,,,,,,,,,,,,,,,,,
946728,001,2022-11-21_01h55.00.122,Info_measure_main_exp,2022.2.2,Win32,74.99625019,,,,,,,,,,,,,,,,,,masks/mask_005.jpg,,,,,,,,,,,,,,,,,,,,,,,,,,,,,,,,,,,,,,,,,,,0,3,3,4,1,,,,,,,,,,,,,,,,,,,,,,,,,,,,,,,,,,,,,,,,,,,,,,
946728,001,2022-11-21_01h55.00.122,Info_measure_main_exp,2022.2.2,Win32,74.99625019,,,,,,,,,,,,,,,,,,masks/mask_002.jpg,,,,,,,,,,,,,,,,,,,,,,,,,,,,,,,,,,,,,,,,,,,0,4,4,1,1,,,,,,,,,,,,,,,,,,,,,,,,,,,,,,,,,,,,,,,,,,,,,,
946728,001,2022-11-21_01h55.00.122,Info_measure_main_exp,2022.2.2,Win32,74.99625019,,,,,,,,,,,,,,,,,,masks/mask_003.jpg,,,,,,,,,,,,,,,,,,,,,,,,,,,,,,,,,,,,,,,,,,,,,,,,0,0,0,2,1,,,,,,,,,,,,,,,,,,,,,,,,,,,,,,,,,,,,,,,,,
946728,001,2022-11-21_01h55.00.122,Info_measure_main_exp,2022.2.2,Win32,74.99625019,,,,,,,,,,,,,,,,,,masks/mask_004.jpg,,,,,,,,,,,,,,,,,,,,,,,,,,,,,,,,,,,,,,,,,,,,,,,,0,1,1,3,1,,,,,,,,,,,,,,,,,,,,,,,,,,,,,,,,,,,,,,,,,
946728,001,2022-11-21_01h55.00.122,Info_measure_main_exp,2022.2.2,Win32,74.99625019,,,,,,,,,,,,,,,,,,masks/mask_001.jpg,,,,,,,,,,,,,,,,,,,,,,,,,,,,,,,,,,,,,,,,,,,,,,,,0,2,2,0,1,,,,,,,,,,,,,,,,,,,,,,,,,,,,,,,,,,,,,,,,,
946728,001,2022-11-21_01h55.00.122,Info_measure_main_exp,2022.2.2,Win32,74.99625019,,,,,,,,,,,,,,,,,,masks/mask_005.jpg,,,,,,,,,,,,,,,,,,,,,,,,,,,,,,,,,,,,,,,,,,,,,,,,0,3,3,4,1,,,,,,,,,,,,,,,,,,,,,,,,,,,,,,,,,,,,,,,,,
946728,001,2022-11-21_01h55.00.122,Info_measure_main_exp,2022.2.2,Win32,74.99625019,,,,,,,,,,,,,,,,,,masks/mask_002.jpg,,,,,,,,,,,,,,,,,,,,,,,,,,,,,,,,,,,,,,,,,,,,,,,,0,4,4,1,1,,,,,,,,,,,,,,,,,,,,,,,,,,,,,,,,,,,,,,,,,
946728,001,2022-11-21_01h55.00.122,Info_measure_main_exp,2022.2.2,Win32,74.99625019,,,,,,,,,,,,,,,,,,,,,,,,,,,,,,5,3.6277,1,,,,,,,,,,,,0,131,5,5,1986,2142,absent_patch/patch0001986.jpg,absent_patch/patch0002142.jpg,,,,,,,,,,,,,,,,,,,,0.122836246,-0.028716714,1,0,1,response3disk,11,0.01762653,-0.006732636,1,0,1,center_square,0,10,10,76,1,,,,,,,,,,,,,,,,,,,,,,,
946728,001,2022-11-21_01h55.00.122,Info_measure_main_exp,2022.2.2,Win32,74.99625019,,,,,,,,,,,,,,,,,,masks/mask_003.jpg,,,,,,,,,,,,,,,,,,,,,,,,,,,,,,,,,,,,,,,,,,,0,0,0,2,1,,,,,,,,,,,,,,,,,,,,,,,,,,,,,,,,,,,,,,,,,,,,,,
946728,001,2022-11-21_01h55.00.122,Info_measure_main_exp,2022.2.2,Win32,74.99625019,,,,,,,,,,,,,,,,,,masks/mask_005.jpg,,,,,,,,,,,,,,,,,,,,,,,,,,,,,,,,,,,,,,,,,,,0,1,1,4,1,,,,,,,,,,,,,,,,,,,,,,,,,,,,,,,,,,,,,,,,,,,,,,
946728,001,2022-11-21_01h55.00.122,Info_measure_main_exp,2022.2.2,Win32,74.99625019,,,,,,,,,,,,,,,,,,masks/mask_004.jpg,,,,,,,,,,,,,,,,,,,,,,,,,,,,,,,,,,,,,,,,,,,0,2,2,3,1,,,,,,,,,,,,,,,,,,,,,,,,,,,,,,,,,,,,,,,,,,,,,,
946728,001,2022-11-21_01h55.00.122,Info_measure_main_exp,2022.2.2,Win32,74.99625019,,,,,,,,,,,,,,,,,,masks/mask_002.jpg,,,,,,,,,,,,,,,,,,,,,,,,,,,,,,,,,,,,,,,,,,,0,3,3,1,1,,,,,,,,,,,,,,,,,,,,,,,,,,,,,,,,,,,,,,,,,,,,,,
946728,001,2022-11-21_01h55.00.122,Info_measure_main_exp,2022.2.2,Win32,74.99625019,,,,,,,,,,,,,,,,,,masks/mask_001.jpg,,,,,,,,,,,,,,,,,,,,,,,,,,,,,,,,,,,,,,,,,,,0,4,4,0,1,,,,,,,,,,,,,,,,,,,,,,,,,,,,,,,,,,,,,,,,,,,,,,
946728,001,2022-11-21_01h55.00.122,Info_measure_main_exp,2022.2.2,Win32,74.99625019,,,,,,,,,,,,,,,,,,masks/mask_004.jpg,,,,,,,,,,,,,,,,,,,,,,,,,,,,,,,,,,,,,,,,,,,,,,,,0,0,0,3,1,,,,,,,,,,,,,,,,,,,,,,,,,,,,,,,,,,,,,,,,,
946728,001,2022-11-21_01h55.00.122,Info_measure_main_exp,2022.2.2,Win32,74.99625019,,,,,,,,,,,,,,,,,,masks/mask_005.jpg,,,,,,,,,,,,,,,,,,,,,,,,,,,,,,,,,,,,,,,,,,,,,,,,0,1,1,4,1,,,,,,,,,,,,,,,,,,,,,,,,,,,,,,,,,,,,,,,,,
946728,001,2022-11-21_01h55.00.122,Info_measure_main_exp,2022.2.2,Win32,74.99625019,,,,,,,,,,,,,,,,,,masks/mask_001.jpg,,,,,,,,,,,,,,,,,,,,,,,,,,,,,,,,,,,,,,,,,,,,,,,,0,2,2,0,1,,,,,,,,,,,,,,,,,,,,,,,,,,,,,,,,,,,,,,,,,
946728,001,2022-11-21_01h55.00.122,Info_measure_main_exp,2022.2.2,Win32,74.99625019,,,,,,,,,,,,,,,,,,masks/mask_002.jpg,,,,,,,,,,,,,,,,,,,,,,,,,,,,,,,,,,,,,,,,,,,,,,,,0,3,3,1,1,,,,,,,,,,,,,,,,,,,,,,,,,,,,,,,,,,,,,,,,,
946728,001,2022-11-21_01h55.00.122,Info_measure_main_exp,2022.2.2,Win32,74.99625019,,,,,,,,,,,,,,,,,,masks/mask_003.jpg,,,,,,,,,,,,,,,,,,,,,,,,,,,,,,,,,,,,,,,,,,,,,,,,0,4,4,2,1,,,,,,,,,,,,,,,,,,,,,,,,,,,,,,,,,,,,,,,,,
946728,001,2022-11-21_01h55.00.122,Info_measure_main_exp,2022.2.2,Win32,74.99625019,,,,,,,,,,,,,,,,,,,,,,,,,,,,,,6,1.0401,1,,,,,,,,,,,,0,131,5,5,1950,2142,absent_patch/patch0001950.jpg,absent_patch/patch0002142.jpg,,,,,,,,,,,,,,,,,,,,0.075727269,0.049012639,1,0,1,response1disk,12,-0.002787188,0.014466238,1,0,1,center_square,0,11,11,83,1,,,,,,,,,,,,,,,,,,,,,,,
946728,001,2022-11-21_01h55.00.122,Info_measure_main_exp,2022.2.2,Win32,74.99625019,,,,,,,,,,,,,,,,,,masks/mask_001.jpg,,,,,,,,,,,,,,,,,,,,,,,,,,,,,,,,,,,,,,,,,,,0,0,0,0,1,,,,,,,,,,,,,,,,,,,,,,,,,,,,,,,,,,,,,,,,,,,,,,
946728,001,2022-11-21_01h55.00.122,Info_measure_main_exp,2022.2.2,Win32,74.99625019,,,,,,,,,,,,,,,,,,masks/mask_005.jpg,,,,,,,,,,,,,,,,,,,,,,,,,,,,,,,,,,,,,,,,,,,0,1,1,4,1,,,,,,,,,,,,,,,,,,,,,,,,,,,,,,,,,,,,,,,,,,,,,,
946728,001,2022-11-21_01h55.00.122,Info_measure_main_exp,2022.2.2,Win32,74.99625019,,,,,,,,,,,,,,,,,,masks/mask_003.jpg,,,,,,,,,,,,,,,,,,,,,,,,,,,,,,,,,,,,,,,,,,,0,2,2,2,1,,,,,,,,,,,,,,,,,,,,,,,,,,,,,,,,,,,,,,,,,,,,,,
946728,001,2022-11-21_01h55.00.122,Info_measure_main_exp,2022.2.2,Win32,74.99625019,,,,,,,,,,,,,,,,,,masks/mask_002.jpg,,,,,,,,,,,,,,,,,,,,,,,,,,,,,,,,,,,,,,,,,,,0,3,3,1,1,,,,,,,,,,,,,,,,,,,,,,,,,,,,,,,,,,,,,,,,,,,,,,
946728,001,2022-11-21_01h55.00.122,Info_measure_main_exp,2022.2.2,Win32,74.99625019,,,,,,,,,,,,,,,,,,masks/mask_004.jpg,,,,,,,,,,,,,,,,,,,,,,,,,,,,,,,,,,,,,,,,,,,0,4,4,3,1,,,,,,,,,,,,,,,,,,,,,,,,,,,,,,,,,,,,,,,,,,,,,,
946728,001,2022-11-21_01h55.00.122,Info_measure_main_exp,2022.2.2,Win32,74.99625019,,,,,,,,,,,,,,,,,,masks/mask_004.jpg,,,,,,,,,,,,,,,,,,,,,,,,,,,,,,,,,,,,,,,,,,,,,,,,0,0,0,3,1,,,,,,,,,,,,,,,,,,,,,,,,,,,,,,,,,,,,,,,,,
946728,001,2022-11-21_01h55.00.122,Info_measure_main_exp,2022.2.2,Win32,74.99625019,,,,,,,,,,,,,,,,,,masks/mask_002.jpg,,,,,,,,,,,,,,,,,,,,,,,,,,,,,,,,,,,,,,,,,,,,,,,,0,1,1,1,1,,,,,,,,,,,,,,,,,,,,,,,,,,,,,,,,,,,,,,,,,
946728,001,2022-11-21_01h55.00.122,Info_measure_main_exp,2022.2.2,Win32,74.99625019,,,,,,,,,,,,,,,,,,masks/mask_003.jpg,,,,,,,,,,,,,,,,,,,,,,,,,,,,,,,,,,,,,,,,,,,,,,,,0,2,2,2,1,,,,,,,,,,,,,,,,,,,,,,,,,,,,,,,,,,,,,,,,,
946728,001,2022-11-21_01h55.00.122,Info_measure_main_exp,2022.2.2,Win32,74.99625019,,,,,,,,,,,,,,,,,,masks/mask_001.jpg,,,,,,,,,,,,,,,,,,,,,,,,,,,,,,,,,,,,,,,,,,,,,,,,0,3,3,0,1,,,,,,,,,,,,,,,,,,,,,,,,,,,,,,,,,,,,,,,,,
946728,001,2022-11-21_01h55.00.122,Info_measure_main_exp,2022.2.2,Win32,74.99625019,,,,,,,,,,,,,,,,,,masks/mask_005.jpg,,,,,,,,,,,,,,,,,,,,,,,,,,,,,,,,,,,,,,,,,,,,,,,,0,4,4,4,1,,,,,,,,,,,,,,,,,,,,,,,,,,,,,,,,,,,,,,,,,
946728,001,2022-11-21_01h55.00.122,Info_measure_main_exp,2022.2.2,Win32,74.99625019,,,,,,,,,,,,,,,,,,,,,,,,,,,,,,5,2.4675,1,,,,,,,,,,,,0,131,5,5,2238,2214,absent_patch/patch0002238.jpg,absent_patch/patch0002214.jpg,,,,,,,,,,,,,,,,,,,,0.075727269,-0.038923624,1,0,1,response3disk,13,0.01762653,0.005829688,1,0,1,center_square,0,12,12,81,1,,,,,,,,,,,,,,,,,,,,,,,
946728,001,2022-11-21_01h55.00.122,Info_measure_main_exp,2022.2.2,Win32,74.99625019,,,,,,,,,,,,,,,,,,masks/mask_002.jpg,,,,,,,,,,,,,,,,,,,,,,,,,,,,,,,,,,,,,,,,,,,0,0,0,1,1,,,,,,,,,,,,,,,,,,,,,,,,,,,,,,,,,,,,,,,,,,,,,,
946728,001,2022-11-21_01h55.00.122,Info_measure_main_exp,2022.2.2,Win32,74.99625019,,,,,,,,,,,,,,,,,,masks/mask_003.jpg,,,,,,,,,,,,,,,,,,,,,,,,,,,,,,,,,,,,,,,,,,,0,1,1,2,1,,,,,,,,,,,,,,,,,,,,,,,,,,,,,,,,,,,,,,,,,,,,,,
946728,001,2022-11-21_01h55.00.122,Info_measure_main_exp,2022.2.2,Win32,74.99625019,,,,,,,,,,,,,,,,,,masks/mask_001.jpg,,,,,,,,,,,,,,,,,,,,,,,,,,,,,,,,,,,,,,,,,,,0,2,2,0,1,,,,,,,,,,,,,,,,,,,,,,,,,,,,,,,,,,,,,,,,,,,,,,
946728,001,2022-11-21_01h55.00.122,Info_measure_main_exp,2022.2.2,Win32,74.99625019,,,,,,,,,,,,,,,,,,masks/mask_005.jpg,,,,,,,,,,,,,,,,,,,,,,,,,,,,,,,,,,,,,,,,,,,0,3,3,4,1,,,,,,,,,,,,,,,,,,,,,,,,,,,,,,,,,,,,,,,,,,,,,,
946728,001,2022-11-21_01h55.00.122,Info_measure_main_exp,2022.2.2,Win32,74.99625019,,,,,,,,,,,,,,,,,,masks/mask_004.jpg,,,,,,,,,,,,,,,,,,,,,,,,,,,,,,,,,,,,,,,,,,,0,4,4,3,1,,,,,,,,,,,,,,,,,,,,,,,,,,,,,,,,,,,,,,,,,,,,,,
946728,001,2022-11-21_01h55.00.122,Info_measure_main_exp,2022.2.2,Win32,74.99625019,,,,,,,,,,,,,,,,,,masks/mask_004.jpg,,,,,,,,,,,,,,,,,,,,,,,,,,,,,,,,,,,,,,,,,,,,,,,,0,0,0,3,1,,,,,,,,,,,,,,,,,,,,,,,,,,,,,,,,,,,,,,,,,
946728,001,2022-11-21_01h55.00.122,Info_measure_main_exp,2022.2.2,Win32,74.99625019,,,,,,,,,,,,,,,,,,masks/mask_001.jpg,,,,,,,,,,,,,,,,,,,,,,,,,,,,,,,,,,,,,,,,,,,,,,,,0,1,1,0,1,,,,,,,,,,,,,,,,,,,,,,,,,,,,,,,,,,,,,,,,,
946728,001,2022-11-21_01h55.00.122,Info_measure_main_exp,2022.2.2,Win32,74.99625019,,,,,,,,,,,,,,,,,,masks/mask_005.jpg,,,,,,,,,,,,,,,,,,,,,,,,,,,,,,,,,,,,,,,,,,,,,,,,0,2,2,4,1,,,,,,,,,,,,,,,,,,,,,,,,,,,,,,,,,,,,,,,,,
946728,001,2022-11-21_01h55.00.122,Info_measure_main_exp,2022.2.2,Win32,74.99625019,,,,,,,,,,,,,,,,,,masks/mask_002.jpg,,,,,,,,,,,,,,,,,,,,,,,,,,,,,,,,,,,,,,,,,,,,,,,,0,3,3,1,1,,,,,,,,,,,,,,,,,,,,,,,,,,,,,,,,,,,,,,,,,
946728,001,2022-11-21_01h55.00.122,Info_measure_main_exp,2022.2.2,Win32,74.99625019,,,,,,,,,,,,,,,,,,masks/mask_003.jpg,,,,,,,,,,,,,,,,,,,,,,,,,,,,,,,,,,,,,,,,,,,,,,,,0,4,4,2,1,,,,,,,,,,,,,,,,,,,,,,,,,,,,,,,,,,,,,,,,,
946728,001,2022-11-21_01h55.00.122,Info_measure_main_exp,2022.2.2,Win32,74.99625019,,,,,,,,,,,,,,,,,,,,,,,,,,,,,,0,0.6404,1,,,,,,,,,,,,0,131,5,5,2274,2274,absent_patch/patch0002274.jpg,absent_patch/patch0002274.jpg,,,,,,,,,,,,,,,,,,,,-0.01849008,0.070211563,1,0,1,response7disk,14,-0.004357498,-0.002807013,1,0,1,center_square,0,13,13,114,1,,,,,,,,,,,,,,,,,,,,,,,
946728,001,2022-11-21_01h55.00.122,Info_measure_main_exp,2022.2.2,Win32,74.99625019,,,,,,,,,,,,,,,,,,masks/mask_001.jpg,,,,,,,,,,,,,,,,,,,,,,,,,,,,,,,,,,,,,,,,,,,0,0,0,0,1,,,,,,,,,,,,,,,,,,,,,,,,,,,,,,,,,,,,,,,,,,,,,,
946728,001,2022-11-21_01h55.00.122,Info_measure_main_exp,2022.2.2,Win32,74.99625019,,,,,,,,,,,,,,,,,,masks/mask_004.jpg,,,,,,,,,,,,,,,,,,,,,,,,,,,,,,,,,,,,,,,,,,,0,1,1,3,1,,,,,,,,,,,,,,,,,,,,,,,,,,,,,,,,,,,,,,,,,,,,,,
946728,001,2022-11-21_01h55.00.122,Info_measure_main_exp,2022.2.2,Win32,74.99625019,,,,,,,,,,,,,,,,,,masks/mask_005.jpg,,,,,,,,,,,,,,,,,,,,,,,,,,,,,,,,,,,,,,,,,,,0,2,2,4,1,,,,,,,,,,,,,,,,,,,,,,,,,,,,,,,,,,,,,,,,,,,,,,
946728,001,2022-11-21_01h55.00.122,Info_measure_main_exp,2022.2.2,Win32,74.99625019,,,,,,,,,,,,,,,,,,masks/mask_002.jpg,,,,,,,,,,,,,,,,,,,,,,,,,,,,,,,,,,,,,,,,,,,0,3,3,1,1,,,,,,,,,,,,,,,,,,,,,,,,,,,,,,,,,,,,,,,,,,,,,,
946728,001,2022-11-21_01h55.00.122,Info_measure_main_exp,2022.2.2,Win32,74.99625019,,,,,,,,,,,,,,,,,,masks/mask_003.jpg,,,,,,,,,,,,,,,,,,,,,,,,,,,,,,,,,,,,,,,,,,,0,4,4,2,1,,,,,,,,,,,,,,,,,,,,,,,,,,,,,,,,,,,,,,,,,,,,,,
946728,001,2022-11-21_01h55.00.122,Info_measure_main_exp,2022.2.2,Win32,74.99625019,,,,,,,,,,,,,,,,,,masks/mask_002.jpg,,,,,,,,,,,,,,,,,,,,,,,,,,,,,,,,,,,,,,,,,,,,,,,,0,0,0,1,1,,,,,,,,,,,,,,,,,,,,,,,,,,,,,,,,,,,,,,,,,
946728,001,2022-11-21_01h55.00.122,Info_measure_main_exp,2022.2.2,Win32,74.99625019,,,,,,,,,,,,,,,,,,masks/mask_005.jpg,,,,,,,,,,,,,,,,,,,,,,,,,,,,,,,,,,,,,,,,,,,,,,,,0,1,1,4,1,,,,,,,,,,,,,,,,,,,,,,,,,,,,,,,,,,,,,,,,,
946728,001,2022-11-21_01h55.00.122,Info_measure_main_exp,2022.2.2,Win32,74.99625019,,,,,,,,,,,,,,,,,,masks/mask_003.jpg,,,,,,,,,,,,,,,,,,,,,,,,,,,,,,,,,,,,,,,,,,,,,,,,0,2,2,2,1,,,,,,,,,,,,,,,,,,,,,,,,,,,,,,,,,,,,,,,,,
946728,001,2022-11-21_01h55.00.122,Info_measure_main_exp,2022.2.2,Win32,74.99625019,,,,,,,,,,,,,,,,,,masks/mask_004.jpg,,,,,,,,,,,,,,,,,,,,,,,,,,,,,,,,,,,,,,,,,,,,,,,,0,3,3,3,1,,,,,,,,,,,,,,,,,,,,,,,,,,,,,,,,,,,,,,,,,
946728,001,2022-11-21_01h55.00.122,Info_measure_main_exp,2022.2.2,Win32,74.99625019,,,,,,,,,,,,,,,,,,masks/mask_001.jpg,,,,,,,,,,,,,,,,,,,,,,,,,,,,,,,,,,,,,,,,,,,,,,,,0,4,4,0,1,,,,,,,,,,,,,,,,,,,,,,,,,,,,,,,,,,,,,,,,,
946728,001,2022-11-21_01h55.00.122,Info_measure_main_exp,2022.2.2,Win32,74.99625019,,,,,,,,,,,,,,,,,,,,,,,,,,,,,,7,1.2937,1,,,,,,,,,,,,0,131,5,5,2178,2238,absent_patch/patch0002178.jpg,absent_patch/patch0002238.jpg,,,,,,,,,,,,,,,,,,,,0.031759415,0.050582898,1,0,1,response1disk,15,-0.015349562,0.002689069,1,0,1,center_square,0,14,14,57,1,,,,,,,,,,,,,,,,,,,,,,,
946728,001,2022-11-21_01h55.00.122,Info_measure_main_exp,2022.2.2,Win32,74.99625019,,,,,,,,,,,,,,,,,,masks/mask_005.jpg,,,,,,,,,,,,,,,,,,,,,,,,,,,,,,,,,,,,,,,,,,,0,0,0,4,1,,,,,,,,,,,,,,,,,,,,,,,,,,,,,,,,,,,,,,,,,,,,,,
946728,001,2022-11-21_01h55.00.122,Info_measure_main_exp,2022.2.2,Win32,74.99625019,,,,,,,,,,,,,,,,,,masks/mask_003.jpg,,,,,,,,,,,,,,,,,,,,,,,,,,,,,,,,,,,,,,,,,,,0,1,1,2,1,,,,,,,,,,,,,,,,,,,,,,,,,,,,,,,,,,,,,,,,,,,,,,
946728,001,2022-11-21_01h55.00.122,Info_measure_main_exp,2022.2.2,Win32,74.99625019,,,,,,,,,,,,,,,,,,masks/mask_004.jpg,,,,,,,,,,,,,,,,,,,,,,,,,,,,,,,,,,,,,,,,,,,0,2,2,3,1,,,,,,,,,,,,,,,,,,,,,,,,,,,,,,,,,,,,,,,,,,,,,,
946728,001,2022-11-21_01h55.00.122,Info_measure_main_exp,2022.2.2,Win32,74.99625019,,,,,,,,,,,,,,,,,,masks/mask_001.jpg,,,,,,,,,,,,,,,,,,,,,,,,,,,,,,,,,,,,,,,,,,,0,3,3,0,1,,,,,,,,,,,,,,,,,,,,,,,,,,,,,,,,,,,,,,,,,,,,,,
946728,001,2022-11-21_01h55.00.122,Info_measure_main_exp,2022.2.2,Win32,74.99625019,,,,,,,,,,,,,,,,,,masks/mask_002.jpg,,,,,,,,,,,,,,,,,,,,,,,,,,,,,,,,,,,,,,,,,,,0,4,4,1,1,,,,,,,,,,,,,,,,,,,,,,,,,,,,,,,,,,,,,,,,,,,,,,
946728,001,2022-11-21_01h55.00.122,Info_measure_main_exp,2022.2.2,Win32,74.99625019,,,,,,,,,,,,,,,,,,masks/mask_004.jpg,,,,,,,,,,,,,,,,,,,,,,,,,,,,,,,,,,,,,,,,,,,,,,,,0,0,0,3,1,,,,,,,,,,,,,,,,,,,,,,,,,,,,,,,,,,,,,,,,,
946728,001,2022-11-21_01h55.00.122,Info_measure_main_exp,2022.2.2,Win32,74.99625019,,,,,,,,,,,,,,,,,,masks/mask_001.jpg,,,,,,,,,,,,,,,,,,,,,,,,,,,,,,,,,,,,,,,,,,,,,,,,0,1,1,0,1,,,,,,,,,,,,,,,,,,,,,,,,,,,,,,,,,,,,,,,,,
946728,001,2022-11-21_01h55.00.122,Info_measure_main_exp,2022.2.2,Win32,74.99625019,,,,,,,,,,,,,,,,,,masks/mask_005.jpg,,,,,,,,,,,,,,,,,,,,,,,,,,,,,,,,,,,,,,,,,,,,,,,,0,2,2,4,1,,,,,,,,,,,,,,,,,,,,,,,,,,,,,,,,,,,,,,,,,
946728,001,2022-11-21_01h55.00.122,Info_measure_main_exp,2022.2.2,Win32,74.99625019,,,,,,,,,,,,,,,,,,masks/mask_003.jpg,,,,,,,,,,,,,,,,,,,,,,,,,,,,,,,,,,,,,,,,,,,,,,,,0,3,3,2,1,,,,,,,,,,,,,,,,,,,,,,,,,,,,,,,,,,,,,,,,,
946728,001,2022-11-21_01h55.00.122,Info_measure_main_exp,2022.2.2,Win32,74.99625019,,,,,,,,,,,,,,,,,,masks/mask_002.jpg,,,,,,,,,,,,,,,,,,,,,,,,,,,,,,,,,,,,,,,,,,,,,,,,0,4,4,1,1,,,,,,,,,,,,,,,,,,,,,,,,,,,,,,,,,,,,,,,,,
946728,001,2022-11-21_01h55.00.122,Info_measure_main_exp,2022.2.2,Win32,74.99625019,,,,,,,,,,,,,,,,,,,,,,,,,,,,,,4,3.4008,1,,,,,,,,,,,,0,131,5,5,2082,2298,absent_patch/patch0002082.jpg,absent_patch/patch0002298.jpg,,,,,,,,,,,,,,,,,,,,0.025477976,-0.143347882,1,0,1,response3disk,16,0.001923639,-0.003592067,1,0,1,center_square,0,15,15,107,1,,,,,,,,,,,,,,,,,,,,,,,
946728,001,2022-11-21_01h55.00.122,Info_measure_main_exp,2022.2.2,Win32,74.99625019,,,,,,,,,,,,,,,,,,masks/mask_004.jpg,,,,,,,,,,,,,,,,,,,,,,,,,,,,,,,,,,,,,,,,,,,0,0,0,3,1,,,,,,,,,,,,,,,,,,,,,,,,,,,,,,,,,,,,,,,,,,,,,,
946728,001,2022-11-21_01h55.00.122,Info_measure_main_exp,2022.2.2,Win32,74.99625019,,,,,,,,,,,,,,,,,,masks/mask_003.jpg,,,,,,,,,,,,,,,,,,,,,,,,,,,,,,,,,,,,,,,,,,,0,1,1,2,1,,,,,,,,,,,,,,,,,,,,,,,,,,,,,,,,,,,,,,,,,,,,,,
946728,001,2022-11-21_01h55.00.122,Info_measure_main_exp,2022.2.2,Win32,74.99625019,,,,,,,,,,,,,,,,,,masks/mask_002.jpg,,,,,,,,,,,,,,,,,,,,,,,,,,,,,,,,,,,,,,,,,,,0,2,2,1,1,,,,,,,,,,,,,,,,,,,,,,,,,,,,,,,,,,,,,,,,,,,,,,
946728,001,2022-11-21_01h55.00.122,Info_measure_main_exp,2022.2.2,Win32,74.99625019,,,,,,,,,,,,,,,,,,masks/mask_001.jpg,,,,,,,,,,,,,,,,,,,,,,,,,,,,,,,,,,,,,,,,,,,0,3,3,0,1,,,,,,,,,,,,,,,,,,,,,,,,,,,,,,,,,,,,,,,,,,,,,,
946728,001,2022-11-21_01h55.00.122,Info_measure_main_exp,2022.2.2,Win32,74.99625019,,,,,,,,,,,,,,,,,,masks/mask_005.jpg,,,,,,,,,,,,,,,,,,,,,,,,,,,,,,,,,,,,,,,,,,,0,4,4,4,1,,,,,,,,,,,,,,,,,,,,,,,,,,,,,,,,,,,,,,,,,,,,,,
946728,001,2022-11-21_01h55.00.122,Info_measure_main_exp,2022.2.2,Win32,74.99625019,,,,,,,,,,,,,,,,,,masks/mask_002.jpg,,,,,,,,,,,,,,,,,,,,,,,,,,,,,,,,,,,,,,,,,,,,,,,,0,0,0,1,1,,,,,,,,,,,,,,,,,,,,,,,,,,,,,,,,,,,,,,,,,
946728,001,2022-11-21_01h55.00.122,Info_measure_main_exp,2022.2.2,Win32,74.99625019,,,,,,,,,,,,,,,,,,masks/mask_005.jpg,,,,,,,,,,,,,,,,,,,,,,,,,,,,,,,,,,,,,,,,,,,,,,,,0,1,1,4,1,,,,,,,,,,,,,,,,,,,,,,,,,,,,,,,,,,,,,,,,,
946728,001,2022-11-21_01h55.00.122,Info_measure_main_exp,2022.2.2,Win32,74.99625019,,,,,,,,,,,,,,,,,,masks/mask_004.jpg,,,,,,,,,,,,,,,,,,,,,,,,,,,,,,,,,,,,,,,,,,,,,,,,0,2,2,3,1,,,,,,,,,,,,,,,,,,,,,,,,,,,,,,,,,,,,,,,,,
946728,001,2022-11-21_01h55.00.122,Info_measure_main_exp,2022.2.2,Win32,74.99625019,,,,,,,,,,,,,,,,,,masks/mask_003.jpg,,,,,,,,,,,,,,,,,,,,,,,,,,,,,,,,,,,,,,,,,,,,,,,,0,3,3,2,1,,,,,,,,,,,,,,,,,,,,,,,,,,,,,,,,,,,,,,,,,
946728,001,2022-11-21_01h55.00.122,Info_measure_main_exp,2022.2.2,Win32,74.99625019,,,,,,,,,,,,,,,,,,masks/mask_001.jpg,,,,,,,,,,,,,,,,,,,,,,,,,,,,,,,,,,,,,,,,,,,,,,,,0,4,4,0,1,,,,,,,,,,,,,,,,,,,,,,,,,,,,,,,,,,,,,,,,,
946728,001,2022-11-21_01h55.00.122,Info_measure_main_exp,2022.2.2,Win32,74.99625019,,,,,,,,,,,,,,,,,,,,,,,,,,,,,,6,1.347,1,,,,,,,,,,,,0,131,5,5,2298,2274,absent_patch/patch0002298.jpg,absent_patch/patch0002274.jpg,,,,,,,,,,,,,,,,,,,,0.052958087,0.043516607,1,0,1,response1disk,17,-0.002002034,-0.001236654,1,0,1,center_square,0,16,16,1,1,,,,,,,,,,,,,,,,,,,,,,,
946728,001,2022-11-21_01h55.00.122,Info_measure_main_exp,2022.2.2,Win32,74.99625019,,,,,,,,,,,,,,,,,,masks/mask_002.jpg,,,,,,,,,,,,,,,,,,,,,,,,,,,,,,,,,,,,,,,,,,,0,0,0,1,1,,,,,,,,,,,,,,,,,,,,,,,,,,,,,,,,,,,,,,,,,,,,,,
946728,001,2022-11-21_01h55.00.122,Info_measure_main_exp,2022.2.2,Win32,74.99625019,,,,,,,,,,,,,,,,,,masks/mask_001.jpg,,,,,,,,,,,,,,,,,,,,,,,,,,,,,,,,,,,,,,,,,,,0,1,1,0,1,,,,,,,,,,,,,,,,,,,,,,,,,,,,,,,,,,,,,,,,,,,,,,
946728,001,2022-11-21_01h55.00.122,Info_measure_main_exp,2022.2.2,Win32,74.99625019,,,,,,,,,,,,,,,,,,masks/mask_004.jpg,,,,,,,,,,,,,,,,,,,,,,,,,,,,,,,,,,,,,,,,,,,0,2,2,3,1,,,,,,,,,,,,,,,,,,,,,,,,,,,,,,,,,,,,,,,,,,,,,,
946728,001,2022-11-21_01h55.00.122,Info_measure_main_exp,2022.2.2,Win32,74.99625019,,,,,,,,,,,,,,,,,,masks/mask_003.jpg,,,,,,,,,,,,,,,,,,,,,,,,,,,,,,,,,,,,,,,,,,,0,3,3,2,1,,,,,,,,,,,,,,,,,,,,,,,,,,,,,,,,,,,,,,,,,,,,,,
946728,001,2022-11-21_01h55.00.122,Info_measure_main_exp,2022.2.2,Win32,74.99625019,,,,,,,,,,,,,,,,,,masks/mask_005.jpg,,,,,,,,,,,,,,,,,,,,,,,,,,,,,,,,,,,,,,,,,,,0,4,4,4,1,,,,,,,,,,,,,,,,,,,,,,,,,,,,,,,,,,,,,,,,,,,,,,
946728,001,2022-11-21_01h55.00.122,Info_measure_main_exp,2022.2.2,Win32,74.99625019,,,,,,,,,,,,,,,,,,masks/mask_004.jpg,,,,,,,,,,,,,,,,,,,,,,,,,,,,,,,,,,,,,,,,,,,,,,,,0,0,0,3,1,,,,,,,,,,,,,,,,,,,,,,,,,,,,,,,,,,,,,,,,,
946728,001,2022-11-21_01h55.00.122,Info_measure_main_exp,2022.2.2,Win32,74.99625019,,,,,,,,,,,,,,,,,,masks/mask_002.jpg,,,,,,,,,,,,,,,,,,,,,,,,,,,,,,,,,,,,,,,,,,,,,,,,0,1,1,1,1,,,,,,,,,,,,,,,,,,,,,,,,,,,,,,,,,,,,,,,,,
946728,001,2022-11-21_01h55.00.122,Info_measure_main_exp,2022.2.2,Win32,74.99625019,,,,,,,,,,,,,,,,,,masks/mask_005.jpg,,,,,,,,,,,,,,,,,,,,,,,,,,,,,,,,,,,,,,,,,,,,,,,,0,2,2,4,1,,,,,,,,,,,,,,,,,,,,,,,,,,,,,,,,,,,,,,,,,
946728,001,2022-11-21_01h55.00.122,Info_measure_main_exp,2022.2.2,Win32,74.99625019,,,,,,,,,,,,,,,,,,masks/mask_001.jpg,,,,,,,,,,,,,,,,,,,,,,,,,,,,,,,,,,,,,,,,,,,,,,,,0,3,3,0,1,,,,,,,,,,,,,,,,,,,,,,,,,,,,,,,,,,,,,,,,,
946728,001,2022-11-21_01h55.00.122,Info_measure_main_exp,2022.2.2,Win32,74.99625019,,,,,,,,,,,,,,,,,,masks/mask_003.jpg,,,,,,,,,,,,,,,,,,,,,,,,,,,,,,,,,,,,,,,,,,,,,,,,0,4,4,2,1,,,,,,,,,,,,,,,,,,,,,,,,,,,,,,,,,,,,,,,,,
946728,001,2022-11-21_01h55.00.122,Info_measure_main_exp,2022.2.2,Win32,74.99625019,,,,,,,,,,,,,,,,,,,,,,,,,,,,,,7,0.7201,1,,,,,,,,,,,,0,131,5,5,2154,1950,absent_patch/patch0002154.jpg,absent_patch/patch0001950.jpg,,,,,,,,,,,,,,,,,,,,0.022337458,0.042731402,1,0,1,response1disk,18,0.003493948,-0.002807013,1,0,1,center_square,0,17,17,96,1,,,,,,,,,,,,,,,,,,,,,,,
946728,001,2022-11-21_01h55.00.122,Info_measure_main_exp,2022.2.2,Win32,74.99625019,,,,,,,,,,,,,,,,,,masks/mask_004.jpg,,,,,,,,,,,,,,,,,,,,,,,,,,,,,,,,,,,,,,,,,,,0,0,0,3,1,,,,,,,,,,,,,,,,,,,,,,,,,,,,,,,,,,,,,,,,,,,,,,
946728,001,2022-11-21_01h55.00.122,Info_measure_main_exp,2022.2.2,Win32,74.99625019,,,,,,,,,,,,,,,,,,masks/mask_001.jpg,,,,,,,,,,,,,,,,,,,,,,,,,,,,,,,,,,,,,,,,,,,0,1,1,0,1,,,,,,,,,,,,,,,,,,,,,,,,,,,,,,,,,,,,,,,,,,,,,,
946728,001,2022-11-21_01h55.00.122,Info_measure_main_exp,2022.2.2,Win32,74.99625019,,,,,,,,,,,,,,,,,,masks/mask_002.jpg,,,,,,,,,,,,,,,,,,,,,,,,,,,,,,,,,,,,,,,,,,,0,2,2,1,1,,,,,,,,,,,,,,,,,,,,,,,,,,,,,,,,,,,,,,,,,,,,,,
946728,001,2022-11-21_01h55.00.122,Info_measure_main_exp,2022.2.2,Win32,74.99625019,,,,,,,,,,,,,,,,,,masks/mask_003.jpg,,,,,,,,,,,,,,,,,,,,,,,,,,,,,,,,,,,,,,,,,,,0,3,3,2,1,,,,,,,,,,,,,,,,,,,,,,,,,,,,,,,,,,,,,,,,,,,,,,
946728,001,2022-11-21_01h55.00.122,Info_measure_main_exp,2022.2.2,Win32,74.99625019,,,,,,,,,,,,,,,,,,masks/mask_005.jpg,,,,,,,,,,,,,,,,,,,,,,,,,,,,,,,,,,,,,,,,,,,0,4,4,4,1,,,,,,,,,,,,,,,,,,,,,,,,,,,,,,,,,,,,,,,,,,,,,,
946728,001,2022-11-21_01h55.00.122,Info_measure_main_exp,2022.2.2,Win32,74.99625019,,,,,,,,,,,,,,,,,,masks/mask_001.jpg,,,,,,,,,,,,,,,,,,,,,,,,,,,,,,,,,,,,,,,,,,,,,,,,0,0,0,0,1,,,,,,,,,,,,,,,,,,,,,,,,,,,,,,,,,,,,,,,,,
946728,001,2022-11-21_01h55.00.122,Info_measure_main_exp,2022.2.2,Win32,74.99625019,,,,,,,,,,,,,,,,,,masks/mask_002.jpg,,,,,,,,,,,,,,,,,,,,,,,,,,,,,,,,,,,,,,,,,,,,,,,,0,1,1,1,1,,,,,,,,,,,,,,,,,,,,,,,,,,,,,,,,,,,,,,,,,
946728,001,2022-11-21_01h55.00.122,Info_measure_main_exp,2022.2.2,Win32,74.99625019,,,,,,,,,,,,,,,,,,masks/mask_003.jpg,,,,,,,,,,,,,,,,,,,,,,,,,,,,,,,,,,,,,,,,,,,,,,,,0,2,2,2,1,,,,,,,,,,,,,,,,,,,,,,,,,,,,,,,,,,,,,,,,,
946728,001,2022-11-21_01h55.00.122,Info_measure_main_exp,2022.2.2,Win32,74.99625019,,,,,,,,,,,,,,,,,,masks/mask_005.jpg,,,,,,,,,,,,,,,,,,,,,,,,,,,,,,,,,,,,,,,,,,,,,,,,0,3,3,4,1,,,,,,,,,,,,,,,,,,,,,,,,,,,,,,,,,,,,,,,,,
946728,001,2022-11-21_01h55.00.122,Info_measure_main_exp,2022.2.2,Win32,74.99625019,,,,,,,,,,,,,,,,,,masks/mask_004.jpg,,,,,,,,,,,,,,,,,,,,,,,,,,,,,,,,,,,,,,,,,,,,,,,,0,4,4,3,1,,,,,,,,,,,,,,,,,,,,,,,,,,,,,,,,,,,,,,,,,
946728,001,2022-11-21_01h55.00.122,Info_measure_main_exp,2022.2.2,Win32,74.99625019,,,,,,,,,,,,,,,,,,,,,,,,,,,,,,0,0.4284,1,,,,,,,,,,,,0,131,5,5,2154,2154,absent_patch/patch0002154.jpg,absent_patch/patch0002154.jpg,,,,,,,,,,,,,,,,,,,,-0.01849008,0.061574963,1,0,1,response7disk,19,-0.000431724,-0.003592067,1,0,1,center_square,0,18,18,89,1,,,,,,,,,,,,,,,,,,,,,,,
946728,001,2022-11-21_01h55.00.122,Info_measure_main_exp,2022.2.2,Win32,74.99625019,,,,,,,,,,,,,,,,,,masks/mask_003.jpg,,,,,,,,,,,,,,,,,,,,,,,,,,,,,,,,,,,,,,,,,,,0,0,0,2,1,,,,,,,,,,,,,,,,,,,,,,,,,,,,,,,,,,,,,,,,,,,,,,
946728,001,2022-11-21_01h55.00.122,Info_measure_main_exp,2022.2.2,Win32,74.99625019,,,,,,,,,,,,,,,,,,masks/mask_005.jpg,,,,,,,,,,,,,,,,,,,,,,,,,,,,,,,,,,,,,,,,,,,0,1,1,4,1,,,,,,,,,,,,,,,,,,,,,,,,,,,,,,,,,,,,,,,,,,,,,,
946728,001,2022-11-21_01h55.00.122,Info_measure_main_exp,2022.2.2,Win32,74.99625019,,,,,,,,,,,,,,,,,,masks/mask_004.jpg,,,,,,,,,,,,,,,,,,,,,,,,,,,,,,,,,,,,,,,,,,,0,2,2,3,1,,,,,,,,,,,,,,,,,,,,,,,,,,,,,,,,,,,,,,,,,,,,,,
946728,001,2022-11-21_01h55.00.122,Info_measure_main_exp,2022.2.2,Win32,74.99625019,,,,,,,,,,,,,,,,,,masks/mask_001.jpg,,,,,,,,,,,,,,,,,,,,,,,,,,,,,,,,,,,,,,,,,,,0,3,3,0,1,,,,,,,,,,,,,,,,,,,,,,,,,,,,,,,,,,,,,,,,,,,,,,
946728,001,2022-11-21_01h55.00.122,Info_measure_main_exp,2022.2.2,Win32,74.99625019,,,,,,,,,,,,,,,,,,masks/mask_002.jpg,,,,,,,,,,,,,,,,,,,,,,,,,,,,,,,,,,,,,,,,,,,0,4,4,1,1,,,,,,,,,,,,,,,,,,,,,,,,,,,,,,,,,,,,,,,,,,,,,,
946728,001,2022-11-21_01h55.00.122,Info_measure_main_exp,2022.2.2,Win32,74.99625019,,,,,,,,,,,,,,,,,,masks/mask_004.jpg,,,,,,,,,,,,,,,,,,,,,,,,,,,,,,,,,,,,,,,,,,,,,,,,0,0,0,3,1,,,,,,,,,,,,,,,,,,,,,,,,,,,,,,,,,,,,,,,,,
946728,001,2022-11-21_01h55.00.122,Info_measure_main_exp,2022.2.2,Win32,74.99625019,,,,,,,,,,,,,,,,,,masks/mask_001.jpg,,,,,,,,,,,,,,,,,,,,,,,,,,,,,,,,,,,,,,,,,,,,,,,,0,1,1,0,1,,,,,,,,,,,,,,,,,,,,,,,,,,,,,,,,,,,,,,,,,
946728,001,2022-11-21_01h55.00.122,Info_measure_main_exp,2022.2.2,Win32,74.99625019,,,,,,,,,,,,,,,,,,masks/mask_002.jpg,,,,,,,,,,,,,,,,,,,,,,,,,,,,,,,,,,,,,,,,,,,,,,,,0,2,2,1,1,,,,,,,,,,,,,,,,,,,,,,,,,,,,,,,,,,,,,,,,,
946728,001,2022-11-21_01h55.00.122,Info_measure_main_exp,2022.2.2,Win32,74.99625019,,,,,,,,,,,,,,,,,,masks/mask_003.jpg,,,,,,,,,,,,,,,,,,,,,,,,,,,,,,,,,,,,,,,,,,,,,,,,0,3,3,2,1,,,,,,,,,,,,,,,,,,,,,,,,,,,,,,,,,,,,,,,,,
946728,001,2022-11-21_01h55.00.122,Info_measure_main_exp,2022.2.2,Win32,74.99625019,,,,,,,,,,,,,,,,,,masks/mask_005.jpg,,,,,,,,,,,,,,,,,,,,,,,,,,,,,,,,,,,,,,,,,,,,,,,,0,4,4,4,1,,,,,,,,,,,,,,,,,,,,,,,,,,,,,,,,,,,,,,,,,
946728,001,2022-11-21_01h55.00.122,Info_measure_main_exp,2022.2.2,Win32,74.99625019,,,,,,,,,,,,,,,,,,,,,,,,,,,,,,4,2.5741,1,,,,,,,,,,,,0,131,5,5,2214,2142,absent_patch/patch0002214.jpg,absent_patch/patch0002142.jpg,,,,,,,,,,,,,,,,,,,,0.012130549,-0.075040284,1,0,1,response3disk,20,0.005849412,0.000333655,1,0,1,center_square,0,19,19,102,1,,,,,,,,,,,,,,,,,,,,,,,
946728,001,2022-11-21_01h55.00.122,Info_measure_main_exp,2022.2.2,Win32,74.99625019,,,,,,,,,,,,,,,,,,masks/mask_004.jpg,,,,,,,,,,,,,,,,,,,,,,,,,,,,,,,,,,,,,,,,,,,0,0,0,3,1,,,,,,,,,,,,,,,,,,,,,,,,,,,,,,,,,,,,,,,,,,,,,,
946728,001,2022-11-21_01h55.00.122,Info_measure_main_exp,2022.2.2,Win32,74.99625019,,,,,,,,,,,,,,,,,,masks/mask_002.jpg,,,,,,,,,,,,,,,,,,,,,,,,,,,,,,,,,,,,,,,,,,,0,1,1,1,1,,,,,,,,,,,,,,,,,,,,,,,,,,,,,,,,,,,,,,,,,,,,,,
946728,001,2022-11-21_01h55.00.122,Info_measure_main_exp,2022.2.2,Win32,74.99625019,,,,,,,,,,,,,,,,,,masks/mask_003.jpg,,,,,,,,,,,,,,,,,,,,,,,,,,,,,,,,,,,,,,,,,,,0,2,2,2,1,,,,,,,,,,,,,,,,,,,,,,,,,,,,,,,,,,,,,,,,,,,,,,
946728,001,2022-11-21_01h55.00.122,Info_measure_main_exp,2022.2.2,Win32,74.99625019,,,,,,,,,,,,,,,,,,masks/mask_001.jpg,,,,,,,,,,,,,,,,,,,,,,,,,,,,,,,,,,,,,,,,,,,0,3,3,0,1,,,,,,,,,,,,,,,,,,,,,,,,,,,,,,,,,,,,,,,,,,,,,,
946728,001,2022-11-21_01h55.00.122,Info_measure_main_exp,2022.2.2,Win32,74.99625019,,,,,,,,,,,,,,,,,,masks/mask_005.jpg,,,,,,,,,,,,,,,,,,,,,,,,,,,,,,,,,,,,,,,,,,,0,4,4,4,1,,,,,,,,,,,,,,,,,,,,,,,,,,,,,,,,,,,,,,,,,,,,,,
946728,001,2022-11-21_01h55.00.122,Info_measure_main_exp,2022.2.2,Win32,74.99625019,,,,,,,,,,,,,,,,,,masks/mask_001.jpg,,,,,,,,,,,,,,,,,,,,,,,,,,,,,,,,,,,,,,,,,,,,,,,,0,0,0,0,1,,,,,,,,,,,,,,,,,,,,,,,,,,,,,,,,,,,,,,,,,
946728,001,2022-11-21_01h55.00.122,Info_measure_main_exp,2022.2.2,Win32,74.99625019,,,,,,,,,,,,,,,,,,masks/mask_003.jpg,,,,,,,,,,,,,,,,,,,,,,,,,,,,,,,,,,,,,,,,,,,,,,,,0,1,1,2,1,,,,,,,,,,,,,,,,,,,,,,,,,,,,,,,,,,,,,,,,,
946728,001,2022-11-21_01h55.00.122,Info_measure_main_exp,2022.2.2,Win32,74.99625019,,,,,,,,,,,,,,,,,,masks/mask_005.jpg,,,,,,,,,,,,,,,,,,,,,,,,,,,,,,,,,,,,,,,,,,,,,,,,0,2,2,4,1,,,,,,,,,,,,,,,,,,,,,,,,,,,,,,,,,,,,,,,,,
946728,001,2022-11-21_01h55.00.122,Info_measure_main_exp,2022.2.2,Win32,74.99625019,,,,,,,,,,,,,,,,,,masks/mask_002.jpg,,,,,,,,,,,,,,,,,,,,,,,,,,,,,,,,,,,,,,,,,,,,,,,,0,3,3,1,1,,,,,,,,,,,,,,,,,,,,,,,,,,,,,,,,,,,,,,,,,
946728,001,2022-11-21_01h55.00.122,Info_measure_main_exp,2022.2.2,Win32,74.99625019,,,,,,,,,,,,,,,,,,masks/mask_004.jpg,,,,,,,,,,,,,,,,,,,,,,,,,,,,,,,,,,,,,,,,,,,,,,,,0,4,4,3,1,,,,,,,,,,,,,,,,,,,,,,,,,,,,,,,,,,,,,,,,,
946728,001,2022-11-21_01h55.00.122,Info_measure_main_exp,2022.2.2,Win32,74.99625019,,,,,,,,,,,,,,,,,,,,,,,,,,,,,,2,1.2136,1,,,,,,,,,,,,1,131,5,5,1,1986,present_patch/cong_131_5_a.jpg,absent_patch/patch0001986.jpg,,,,,,,,,,,,,,,,,,,,-0.053036481,-0.03656821,1,0,1,response5disk,21,-0.003572343,0.000333655,1,0,1,center_square,0,20,20,106,1,,,,,,,,,,,,,,,,,,,,,,,
946728,001,2022-11-21_01h55.00.122,Info_measure_main_exp,2022.2.2,Win32,74.99625019,,,,,,,,,,,,,,,,,,masks/mask_005.jpg,,,,,,,,,,,,,,,,,,,,,,,,,,,,,,,,,,,,,,,,,,,0,0,0,4,1,,,,,,,,,,,,,,,,,,,,,,,,,,,,,,,,,,,,,,,,,,,,,,
946728,001,2022-11-21_01h55.00.122,Info_measure_main_exp,2022.2.2,Win32,74.99625019,,,,,,,,,,,,,,,,,,masks/mask_001.jpg,,,,,,,,,,,,,,,,,,,,,,,,,,,,,,,,,,,,,,,,,,,0,1,1,0,1,,,,,,,,,,,,,,,,,,,,,,,,,,,,,,,,,,,,,,,,,,,,,,
946728,001,2022-11-21_01h55.00.122,Info_measure_main_exp,2022.2.2,Win32,74.99625019,,,,,,,,,,,,,,,,,,masks/mask_002.jpg,,,,,,,,,,,,,,,,,,,,,,,,,,,,,,,,,,,,,,,,,,,0,2,2,1,1,,,,,,,,,,,,,,,,,,,,,,,,,,,,,,,,,,,,,,,,,,,,,,
946728,001,2022-11-21_01h55.00.122,Info_measure_main_exp,2022.2.2,Win32,74.99625019,,,,,,,,,,,,,,,,,,masks/mask_004.jpg,,,,,,,,,,,,,,,,,,,,,,,,,,,,,,,,,,,,,,,,,,,0,3,3,3,1,,,,,,,,,,,,,,,,,,,,,,,,,,,,,,,,,,,,,,,,,,,,,,
946728,001,2022-11-21_01h55.00.122,Info_measure_main_exp,2022.2.2,Win32,74.99625019,,,,,,,,,,,,,,,,,,masks/mask_003.jpg,,,,,,,,,,,,,,,,,,,,,,,,,,,,,,,,,,,,,,,,,,,0,4,4,2,1,,,,,,,,,,,,,,,,,,,,,,,,,,,,,,,,,,,,,,,,,,,,,,
946728,001,2022-11-21_01h55.00.122,Info_measure_main_exp,2022.2.2,Win32,74.99625019,,,,,,,,,,,,,,,,,,masks/mask_003.jpg,,,,,,,,,,,,,,,,,,,,,,,,,,,,,,,,,,,,,,,,,,,,,,,,0,0,0,2,1,,,,,,,,,,,,,,,,,,,,,,,,,,,,,,,,,,,,,,,,,
946728,001,2022-11-21_01h55.00.122,Info_measure_main_exp,2022.2.2,Win32,74.99625019,,,,,,,,,,,,,,,,,,masks/mask_002.jpg,,,,,,,,,,,,,,,,,,,,,,,,,,,,,,,,,,,,,,,,,,,,,,,,0,1,1,1,1,,,,,,,,,,,,,,,,,,,,,,,,,,,,,,,,,,,,,,,,,
946728,001,2022-11-21_01h55.00.122,Info_measure_main_exp,2022.2.2,Win32,74.99625019,,,,,,,,,,,,,,,,,,masks/mask_001.jpg,,,,,,,,,,,,,,,,,,,,,,,,,,,,,,,,,,,,,,,,,,,,,,,,0,2,2,0,1,,,,,,,,,,,,,,,,,,,,,,,,,,,,,,,,,,,,,,,,,
946728,001,2022-11-21_01h55.00.122,Info_measure_main_exp,2022.2.2,Win32,74.99625019,,,,,,,,,,,,,,,,,,masks/mask_005.jpg,,,,,,,,,,,,,,,,,,,,,,,,,,,,,,,,,,,,,,,,,,,,,,,,0,3,3,4,1,,,,,,,,,,,,,,,,,,,,,,,,,,,,,,,,,,,,,,,,,
946728,001,2022-11-21_01h55.00.122,Info_measure_main_exp,2022.2.2,Win32,74.99625019,,,,,,,,,,,,,,,,,,masks/mask_004.jpg,,,,,,,,,,,,,,,,,,,,,,,,,,,,,,,,,,,,,,,,,,,,,,,,0,4,4,3,1,,,,,,,,,,,,,,,,,,,,,,,,,,,,,,,,,,,,,,,,,
946728,001,2022-11-21_01h55.00.122,Info_measure_main_exp,2022.2.2,Win32,74.99625019,,,,,,,,,,,,,,,,,,,,,,,,,,,,,,6,1.107,1,,,,,,,,,,,,0,131,5,5,2178,2154,absent_patch/patch0002178.jpg,absent_patch/patch0002154.jpg,,,,,,,,,,,,,,,,,,,,0.051387777,0.04744233,1,0,1,response1disk,22,0.006634768,0.002689069,1,0,1,center_square,0,21,21,63,1,,,,,,,,,,,,,,,,,,,,,,,
946728,001,2022-11-21_01h55.00.122,Info_measure_main_exp,2022.2.2,Win32,74.99625019,,,,,,,,,,,,,,,,,,masks/mask_004.jpg,,,,,,,,,,,,,,,,,,,,,,,,,,,,,,,,,,,,,,,,,,,0,0,0,3,1,,,,,,,,,,,,,,,,,,,,,,,,,,,,,,,,,,,,,,,,,,,,,,
946728,001,2022-11-21_01h55.00.122,Info_measure_main_exp,2022.2.2,Win32,74.99625019,,,,,,,,,,,,,,,,,,masks/mask_001.jpg,,,,,,,,,,,,,,,,,,,,,,,,,,,,,,,,,,,,,,,,,,,0,1,1,0,1,,,,,,,,,,,,,,,,,,,,,,,,,,,,,,,,,,,,,,,,,,,,,,
946728,001,2022-11-21_01h55.00.122,Info_measure_main_exp,2022.2.2,Win32,74.99625019,,,,,,,,,,,,,,,,,,masks/mask_003.jpg,,,,,,,,,,,,,,,,,,,,,,,,,,,,,,,,,,,,,,,,,,,0,2,2,2,1,,,,,,,,,,,,,,,,,,,,,,,,,,,,,,,,,,,,,,,,,,,,,,
946728,001,2022-11-21_01h55.00.122,Info_measure_main_exp,2022.2.2,Win32,74.99625019,,,,,,,,,,,,,,,,,,masks/mask_005.jpg,,,,,,,,,,,,,,,,,,,,,,,,,,,,,,,,,,,,,,,,,,,0,3,3,4,1,,,,,,,,,,,,,,,,,,,,,,,,,,,,,,,,,,,,,,,,,,,,,,
946728,001,2022-11-21_01h55.00.122,Info_measure_main_exp,2022.2.2,Win32,74.99625019,,,,,,,,,,,,,,,,,,masks/mask_002.jpg,,,,,,,,,,,,,,,,,,,,,,,,,,,,,,,,,,,,,,,,,,,0,4,4,1,1,,,,,,,,,,,,,,,,,,,,,,,,,,,,,,,,,,,,,,,,,,,,,,
946728,001,2022-11-21_01h55.00.122,Info_measure_main_exp,2022.2.2,Win32,74.99625019,,,,,,,,,,,,,,,,,,masks/mask_004.jpg,,,,,,,,,,,,,,,,,,,,,,,,,,,,,,,,,,,,,,,,,,,,,,,,0,0,0,3,1,,,,,,,,,,,,,,,,,,,,,,,,,,,,,,,,,,,,,,,,,
946728,001,2022-11-21_01h55.00.122,Info_measure_main_exp,2022.2.2,Win32,74.99625019,,,,,,,,,,,,,,,,,,masks/mask_005.jpg,,,,,,,,,,,,,,,,,,,,,,,,,,,,,,,,,,,,,,,,,,,,,,,,0,1,1,4,1,,,,,,,,,,,,,,,,,,,,,,,,,,,,,,,,,,,,,,,,,
946728,001,2022-11-21_01h55.00.122,Info_measure_main_exp,2022.2.2,Win32,74.99625019,,,,,,,,,,,,,,,,,,masks/mask_003.jpg,,,,,,,,,,,,,,,,,,,,,,,,,,,,,,,,,,,,,,,,,,,,,,,,0,2,2,2,1,,,,,,,,,,,,,,,,,,,,,,,,,,,,,,,,,,,,,,,,,
946728,001,2022-11-21_01h55.00.122,Info_measure_main_exp,2022.2.2,Win32,74.99625019,,,,,,,,,,,,,,,,,,masks/mask_001.jpg,,,,,,,,,,,,,,,,,,,,,,,,,,,,,,,,,,,,,,,,,,,,,,,,0,3,3,0,1,,,,,,,,,,,,,,,,,,,,,,,,,,,,,,,,,,,,,,,,,
946728,001,2022-11-21_01h55.00.122,Info_measure_main_exp,2022.2.2,Win32,74.99625019,,,,,,,,,,,,,,,,,,masks/mask_002.jpg,,,,,,,,,,,,,,,,,,,,,,,,,,,,,,,,,,,,,,,,,,,,,,,,0,4,4,1,1,,,,,,,,,,,,,,,,,,,,,,,,,,,,,,,,,,,,,,,,,
946728,001,2022-11-21_01h55.00.122,Info_measure_main_exp,2022.2.2,Win32,74.99625019,,,,,,,,,,,,,,,,,,,,,,,,,,,,,,0,0.5199,1,,,,,,,,,,,,0,131,5,5,2082,2082,absent_patch/patch0002082.jpg,absent_patch/patch0002082.jpg,,,,,,,,,,,,,,,,,,,,-0.031052453,0.055293826,1,0,1,response7disk,23,-0.01849008,-0.013013822,0,0,1,center_square,0,22,22,74,1,,,,,,,,,,,,,,,,,,,,,,,
946728,001,2022-11-21_01h55.00.122,Info_measure_main_exp,2022.2.2,Win32,74.99625019,,,,,,,,,,,,,,,,,,masks/mask_001.jpg,,,,,,,,,,,,,,,,,,,,,,,,,,,,,,,,,,,,,,,,,,,0,0,0,0,1,,,,,,,,,,,,,,,,,,,,,,,,,,,,,,,,,,,,,,,,,,,,,,
946728,001,2022-11-21_01h55.00.122,Info_measure_main_exp,2022.2.2,Win32,74.99625019,,,,,,,,,,,,,,,,,,masks/mask_003.jpg,,,,,,,,,,,,,,,,,,,,,,,,,,,,,,,,,,,,,,,,,,,0,1,1,2,1,,,,,,,,,,,,,,,,,,,,,,,,,,,,,,,,,,,,,,,,,,,,,,
946728,001,2022-11-21_01h55.00.122,Info_measure_main_exp,2022.2.2,Win32,74.99625019,,,,,,,,,,,,,,,,,,masks/mask_005.jpg,,,,,,,,,,,,,,,,,,,,,,,,,,,,,,,,,,,,,,,,,,,0,2,2,4,1,,,,,,,,,,,,,,,,,,,,,,,,,,,,,,,,,,,,,,,,,,,,,,
946728,001,2022-11-21_01h55.00.122,Info_measure_main_exp,2022.2.2,Win32,74.99625019,,,,,,,,,,,,,,,,,,masks/mask_002.jpg,,,,,,,,,,,,,,,,,,,,,,,,,,,,,,,,,,,,,,,,,,,0,3,3,1,1,,,,,,,,,,,,,,,,,,,,,,,,,,,,,,,,,,,,,,,,,,,,,,
946728,001,2022-11-21_01h55.00.122,Info_measure_main_exp,2022.2.2,Win32,74.99625019,,,,,,,,,,,,,,,,,,masks/mask_004.jpg,,,,,,,,,,,,,,,,,,,,,,,,,,,,,,,,,,,,,,,,,,,0,4,4,3,1,,,,,,,,,,,,,,,,,,,,,,,,,,,,,,,,,,,,,,,,,,,,,,
946728,001,2022-11-21_01h55.00.122,Info_measure_main_exp,2022.2.2,Win32,74.99625019,,,,,,,,,,,,,,,,,,masks/mask_005.jpg,,,,,,,,,,,,,,,,,,,,,,,,,,,,,,,,,,,,,,,,,,,,,,,,0,0,0,4,1,,,,,,,,,,,,,,,,,,,,,,,,,,,,,,,,,,,,,,,,,
946728,001,2022-11-21_01h55.00.122,Info_measure_main_exp,2022.2.2,Win32,74.99625019,,,,,,,,,,,,,,,,,,masks/mask_003.jpg,,,,,,,,,,,,,,,,,,,,,,,,,,,,,,,,,,,,,,,,,,,,,,,,0,1,1,2,1,,,,,,,,,,,,,,,,,,,,,,,,,,,,,,,,,,,,,,,,,
946728,001,2022-11-21_01h55.00.122,Info_measure_main_exp,2022.2.2,Win32,74.99625019,,,,,,,,,,,,,,,,,,masks/mask_004.jpg,,,,,,,,,,,,,,,,,,,,,,,,,,,,,,,,,,,,,,,,,,,,,,,,0,2,2,3,1,,,,,,,,,,,,,,,,,,,,,,,,,,,,,,,,,,,,,,,,,
946728,001,2022-11-21_01h55.00.122,Info_measure_main_exp,2022.2.2,Win32,74.99625019,,,,,,,,,,,,,,,,,,masks/mask_001.jpg,,,,,,,,,,,,,,,,,,,,,,,,,,,,,,,,,,,,,,,,,,,,,,,,0,3,3,0,1,,,,,,,,,,,,,,,,,,,,,,,,,,,,,,,,,,,,,,,,,
946728,001,2022-11-21_01h55.00.122,Info_measure_main_exp,2022.2.2,Win32,74.99625019,,,,,,,,,,,,,,,,,,masks/mask_002.jpg,,,,,,,,,,,,,,,,,,,,,,,,,,,,,,,,,,,,,,,,,,,,,,,,0,4,4,1,1,,,,,,,,,,,,,,,,,,,,,,,,,,,,,,,,,,,,,,,,,
946728,001,2022-11-21_01h55.00.122,Info_measure_main_exp,2022.2.2,Win32,74.99625019,,,,,,,,,,,,,,,,,,,,,,,,,,,,,,0,0.4401,1,,,,,,,,,,,,1,131,5,5,1,1,present_patch/cong_131_5_a.jpg,present_patch/cong_131_5_a.jpg,,,,,,,,,,,,,,,,,,,,-0.031052453,0.091410462,1,0,1,response7disk,24,-0.005927807,0.012895979,1,0,1,center_square,0,23,23,30,1,,,,,,,,,,,,,,,,,,,,,,,
946728,001,2022-11-21_01h55.00.122,Info_measure_main_exp,2022.2.2,Win32,74.99625019,,,,,,,,,,,,,,,,,,masks/mask_004.jpg,,,,,,,,,,,,,,,,,,,,,,,,,,,,,,,,,,,,,,,,,,,0,0,0,3,1,,,,,,,,,,,,,,,,,,,,,,,,,,,,,,,,,,,,,,,,,,,,,,
946728,001,2022-11-21_01h55.00.122,Info_measure_main_exp,2022.2.2,Win32,74.99625019,,,,,,,,,,,,,,,,,,masks/mask_002.jpg,,,,,,,,,,,,,,,,,,,,,,,,,,,,,,,,,,,,,,,,,,,0,1,1,1,1,,,,,,,,,,,,,,,,,,,,,,,,,,,,,,,,,,,,,,,,,,,,,,
946728,001,2022-11-21_01h55.00.122,Info_measure_main_exp,2022.2.2,Win32,74.99625019,,,,,,,,,,,,,,,,,,masks/mask_003.jpg,,,,,,,,,,,,,,,,,,,,,,,,,,,,,,,,,,,,,,,,,,,0,2,2,2,1,,,,,,,,,,,,,,,,,,,,,,,,,,,,,,,,,,,,,,,,,,,,,,
946728,001,2022-11-21_01h55.00.122,Info_measure_main_exp,2022.2.2,Win32,74.99625019,,,,,,,,,,,,,,,,,,masks/mask_005.jpg,,,,,,,,,,,,,,,,,,,,,,,,,,,,,,,,,,,,,,,,,,,0,3,3,4,1,,,,,,,,,,,,,,,,,,,,,,,,,,,,,,,,,,,,,,,,,,,,,,
946728,001,2022-11-21_01h55.00.122,Info_measure_main_exp,2022.2.2,Win32,74.99625019,,,,,,,,,,,,,,,,,,masks/mask_001.jpg,,,,,,,,,,,,,,,,,,,,,,,,,,,,,,,,,,,,,,,,,,,0,4,4,0,1,,,,,,,,,,,,,,,,,,,,,,,,,,,,,,,,,,,,,,,,,,,,,,
946728,001,2022-11-21_01h55.00.122,Info_measure_main_exp,2022.2.2,Win32,74.99625019,,,,,,,,,,,,,,,,,,masks/mask_001.jpg,,,,,,,,,,,,,,,,,,,,,,,,,,,,,,,,,,,,,,,,,,,,,,,,0,0,0,0,1,,,,,,,,,,,,,,,,,,,,,,,,,,,,,,,,,,,,,,,,,
946728,001,2022-11-21_01h55.00.122,Info_measure_main_exp,2022.2.2,Win32,74.99625019,,,,,,,,,,,,,,,,,,masks/mask_002.jpg,,,,,,,,,,,,,,,,,,,,,,,,,,,,,,,,,,,,,,,,,,,,,,,,0,1,1,1,1,,,,,,,,,,,,,,,,,,,,,,,,,,,,,,,,,,,,,,,,,
946728,001,2022-11-21_01h55.00.122,Info_measure_main_exp,2022.2.2,Win32,74.99625019,,,,,,,,,,,,,,,,,,masks/mask_003.jpg,,,,,,,,,,,,,,,,,,,,,,,,,,,,,,,,,,,,,,,,,,,,,,,,0,2,2,2,1,,,,,,,,,,,,,,,,,,,,,,,,,,,,,,,,,,,,,,,,,
946728,001,2022-11-21_01h55.00.122,Info_measure_main_exp,2022.2.2,Win32,74.99625019,,,,,,,,,,,,,,,,,,masks/mask_005.jpg,,,,,,,,,,,,,,,,,,,,,,,,,,,,,,,,,,,,,,,,,,,,,,,,0,3,3,4,1,,,,,,,,,,,,,,,,,,,,,,,,,,,,,,,,,,,,,,,,,
946728,001,2022-11-21_01h55.00.122,Info_measure_main_exp,2022.2.2,Win32,74.99625019,,,,,,,,,,,,,,,,,,masks/mask_004.jpg,,,,,,,,,,,,,,,,,,,,,,,,,,,,,,,,,,,,,,,,,,,,,,,,0,4,4,3,1,,,,,,,,,,,,,,,,,,,,,,,,,,,,,,,,,,,,,,,,,
946728,001,2022-11-21_01h55.00.122,Info_measure_main_exp,2022.2.2,Win32,74.99625019,,,,,,,,,,,,,,,,,,,,,,,,,,,,,,7,0.8549,1,,,,,,,,,,,,0,131,5,5,2154,1974,absent_patch/patch0002154.jpg,absent_patch/patch0001974.jpg,,,,,,,,,,,,,,,,,,,,0.048247461,0.060004653,1,0,1,response1disk,25,-0.012208943,0.001903914,1,0,1,center_square,0,24,24,82,1,,,,,,,,,,,,,,,,,,,,,,,
946728,001,2022-11-21_01h55.00.122,Info_measure_main_exp,2022.2.2,Win32,74.99625019,,,,,,,,,,,,,,,,,,masks/mask_001.jpg,,,,,,,,,,,,,,,,,,,,,,,,,,,,,,,,,,,,,,,,,,,0,0,0,0,1,,,,,,,,,,,,,,,,,,,,,,,,,,,,,,,,,,,,,,,,,,,,,,
946728,001,2022-11-21_01h55.00.122,Info_measure_main_exp,2022.2.2,Win32,74.99625019,,,,,,,,,,,,,,,,,,masks/mask_005.jpg,,,,,,,,,,,,,,,,,,,,,,,,,,,,,,,,,,,,,,,,,,,0,1,1,4,1,,,,,,,,,,,,,,,,,,,,,,,,,,,,,,,,,,,,,,,,,,,,,,
946728,001,2022-11-21_01h55.00.122,Info_measure_main_exp,2022.2.2,Win32,74.99625019,,,,,,,,,,,,,,,,,,masks/mask_003.jpg,,,,,,,,,,,,,,,,,,,,,,,,,,,,,,,,,,,,,,,,,,,0,2,2,2,1,,,,,,,,,,,,,,,,,,,,,,,,,,,,,,,,,,,,,,,,,,,,,,
946728,001,2022-11-21_01h55.00.122,Info_measure_main_exp,2022.2.2,Win32,74.99625019,,,,,,,,,,,,,,,,,,masks/mask_002.jpg,,,,,,,,,,,,,,,,,,,,,,,,,,,,,,,,,,,,,,,,,,,0,3,3,1,1,,,,,,,,,,,,,,,,,,,,,,,,,,,,,,,,,,,,,,,,,,,,,,
946728,001,2022-11-21_01h55.00.122,Info_measure_main_exp,2022.2.2,Win32,74.99625019,,,,,,,,,,,,,,,,,,masks/mask_004.jpg,,,,,,,,,,,,,,,,,,,,,,,,,,,,,,,,,,,,,,,,,,,0,4,4,3,1,,,,,,,,,,,,,,,,,,,,,,,,,,,,,,,,,,,,,,,,,,,,,,
946728,001,2022-11-21_01h55.00.122,Info_measure_main_exp,2022.2.2,Win32,74.99625019,,,,,,,,,,,,,,,,,,masks/mask_004.jpg,,,,,,,,,,,,,,,,,,,,,,,,,,,,,,,,,,,,,,,,,,,,,,,,0,0,0,3,1,,,,,,,,,,,,,,,,,,,,,,,,,,,,,,,,,,,,,,,,,
946728,001,2022-11-21_01h55.00.122,Info_measure_main_exp,2022.2.2,Win32,74.99625019,,,,,,,,,,,,,,,,,,masks/mask_002.jpg,,,,,,,,,,,,,,,,,,,,,,,,,,,,,,,,,,,,,,,,,,,,,,,,0,1,1,1,1,,,,,,,,,,,,,,,,,,,,,,,,,,,,,,,,,,,,,,,,,
946728,001,2022-11-21_01h55.00.122,Info_measure_main_exp,2022.2.2,Win32,74.99625019,,,,,,,,,,,,,,,,,,masks/mask_005.jpg,,,,,,,,,,,,,,,,,,,,,,,,,,,,,,,,,,,,,,,,,,,,,,,,0,2,2,4,1,,,,,,,,,,,,,,,,,,,,,,,,,,,,,,,,,,,,,,,,,
946728,001,2022-11-21_01h55.00.122,Info_measure_main_exp,2022.2.2,Win32,74.99625019,,,,,,,,,,,,,,,,,,masks/mask_001.jpg,,,,,,,,,,,,,,,,,,,,,,,,,,,,,,,,,,,,,,,,,,,,,,,,0,3,3,0,1,,,,,,,,,,,,,,,,,,,,,,,,,,,,,,,,,,,,,,,,,
946728,001,2022-11-21_01h55.00.122,Info_measure_main_exp,2022.2.2,Win32,74.99625019,,,,,,,,,,,,,,,,,,masks/mask_003.jpg,,,,,,,,,,,,,,,,,,,,,,,,,,,,,,,,,,,,,,,,,,,,,,,,0,4,4,2,1,,,,,,,,,,,,,,,,,,,,,,,,,,,,,,,,,,,,,,,,,
946728,001,2022-11-21_01h55.00.122,Info_measure_main_exp,2022.2.2,Win32,74.99625019,,,,,,,,,,,,,,,,,,,,,,,,,,,,,,5,2.8683,1,,,,,,,,,,,,1,131,5,5,1,2166,present_patch/cong_131_5_a.jpg,absent_patch/patch0002166.jpg,,,,,,,,,,,,,,,,,,,,0.124406253,-0.043634501,1,0,1,response3disk,26,0.012915703,-0.000451499,1,0,1,center_square,0,25,25,54,1,,,,,,,,,,,,,,,,,,,,,,,
946728,001,2022-11-21_01h55.00.122,Info_measure_main_exp,2022.2.2,Win32,74.99625019,,,,,,,,,,,,,,,,,,masks/mask_002.jpg,,,,,,,,,,,,,,,,,,,,,,,,,,,,,,,,,,,,,,,,,,,0,0,0,1,1,,,,,,,,,,,,,,,,,,,,,,,,,,,,,,,,,,,,,,,,,,,,,,
946728,001,2022-11-21_01h55.00.122,Info_measure_main_exp,2022.2.2,Win32,74.99625019,,,,,,,,,,,,,,,,,,masks/mask_005.jpg,,,,,,,,,,,,,,,,,,,,,,,,,,,,,,,,,,,,,,,,,,,0,1,1,4,1,,,,,,,,,,,,,,,,,,,,,,,,,,,,,,,,,,,,,,,,,,,,,,
946728,001,2022-11-21_01h55.00.122,Info_measure_main_exp,2022.2.2,Win32,74.99625019,,,,,,,,,,,,,,,,,,masks/mask_001.jpg,,,,,,,,,,,,,,,,,,,,,,,,,,,,,,,,,,,,,,,,,,,0,2,2,0,1,,,,,,,,,,,,,,,,,,,,,,,,,,,,,,,,,,,,,,,,,,,,,,
946728,001,2022-11-21_01h55.00.122,Info_measure_main_exp,2022.2.2,Win32,74.99625019,,,,,,,,,,,,,,,,,,masks/mask_004.jpg,,,,,,,,,,,,,,,,,,,,,,,,,,,,,,,,,,,,,,,,,,,0,3,3,3,1,,,,,,,,,,,,,,,,,,,,,,,,,,,,,,,,,,,,,,,,,,,,,,
946728,001,2022-11-21_01h55.00.122,Info_measure_main_exp,2022.2.2,Win32,74.99625019,,,,,,,,,,,,,,,,,,masks/mask_003.jpg,,,,,,,,,,,,,,,,,,,,,,,,,,,,,,,,,,,,,,,,,,,0,4,4,2,1,,,,,,,,,,,,,,,,,,,,,,,,,,,,,,,,,,,,,,,,,,,,,,
946728,001,2022-11-21_01h55.00.122,Info_measure_main_exp,2022.2.2,Win32,74.99625019,,,,,,,,,,,,,,,,,,masks/mask_003.jpg,,,,,,,,,,,,,,,,,,,,,,,,,,,,,,,,,,,,,,,,,,,,,,,,0,0,0,2,1,,,,,,,,,,,,,,,,,,,,,,,,,,,,,,,,,,,,,,,,,
946728,001,2022-11-21_01h55.00.122,Info_measure_main_exp,2022.2.2,Win32,74.99625019,,,,,,,,,,,,,,,,,,masks/mask_005.jpg,,,,,,,,,,,,,,,,,,,,,,,,,,,,,,,,,,,,,,,,,,,,,,,,0,1,1,4,1,,,,,,,,,,,,,,,,,,,,,,,,,,,,,,,,,,,,,,,,,
946728,001,2022-11-21_01h55.00.122,Info_measure_main_exp,2022.2.2,Win32,74.99625019,,,,,,,,,,,,,,,,,,masks/mask_001.jpg,,,,,,,,,,,,,,,,,,,,,,,,,,,,,,,,,,,,,,,,,,,,,,,,0,2,2,0,1,,,,,,,,,,,,,,,,,,,,,,,,,,,,,,,,,,,,,,,,,
946728,001,2022-11-21_01h55.00.122,Info_measure_main_exp,2022.2.2,Win32,74.99625019,,,,,,,,,,,,,,,,,,masks/mask_002.jpg,,,,,,,,,,,,,,,,,,,,,,,,,,,,,,,,,,,,,,,,,,,,,,,,0,3,3,1,1,,,,,,,,,,,,,,,,,,,,,,,,,,,,,,,,,,,,,,,,,
946728,001,2022-11-21_01h55.00.122,Info_measure_main_exp,2022.2.2,Win32,74.99625019,,,,,,,,,,,,,,,,,,masks/mask_004.jpg,,,,,,,,,,,,,,,,,,,,,,,,,,,,,,,,,,,,,,,,,,,,,,,,0,4,4,3,1,,,,,,,,,,,,,,,,,,,,,,,,,,,,,,,,,,,,,,,,,
946728,001,2022-11-21_01h55.00.122,Info_measure_main_exp,2022.2.2,Win32,74.99625019,,,,,,,,,,,,,,,,,,,,,,,,,,,,,,7,1.0269,1,,,,,,,,,,,,0,131,5,5,1974,2166,absent_patch/patch0001974.jpg,absent_patch/patch0002166.jpg,,,,,,,,,,,,,,,,,,,,0.034114577,0.072566977,1,0,1,response1disk,27,-0.012208943,0.005829688,1,0,1,center_square,0,26,26,77,1,,,,,,,,,,,,,,,,,,,,,,,
946728,001,2022-11-21_01h55.00.122,Info_measure_main_exp,2022.2.2,Win32,74.99625019,,,,,,,,,,,,,,,,,,masks/mask_003.jpg,,,,,,,,,,,,,,,,,,,,,,,,,,,,,,,,,,,,,,,,,,,0,0,0,2,1,,,,,,,,,,,,,,,,,,,,,,,,,,,,,,,,,,,,,,,,,,,,,,
946728,001,2022-11-21_01h55.00.122,Info_measure_main_exp,2022.2.2,Win32,74.99625019,,,,,,,,,,,,,,,,,,masks/mask_005.jpg,,,,,,,,,,,,,,,,,,,,,,,,,,,,,,,,,,,,,,,,,,,0,1,1,4,1,,,,,,,,,,,,,,,,,,,,,,,,,,,,,,,,,,,,,,,,,,,,,,
946728,001,2022-11-21_01h55.00.122,Info_measure_main_exp,2022.2.2,Win32,74.99625019,,,,,,,,,,,,,,,,,,masks/mask_002.jpg,,,,,,,,,,,,,,,,,,,,,,,,,,,,,,,,,,,,,,,,,,,0,2,2,1,1,,,,,,,,,,,,,,,,,,,,,,,,,,,,,,,,,,,,,,,,,,,,,,
946728,001,2022-11-21_01h55.00.122,Info_measure_main_exp,2022.2.2,Win32,74.99625019,,,,,,,,,,,,,,,,,,masks/mask_001.jpg,,,,,,,,,,,,,,,,,,,,,,,,,,,,,,,,,,,,,,,,,,,0,3,3,0,1,,,,,,,,,,,,,,,,,,,,,,,,,,,,,,,,,,,,,,,,,,,,,,
946728,001,2022-11-21_01h55.00.122,Info_measure_main_exp,2022.2.2,Win32,74.99625019,,,,,,,,,,,,,,,,,,masks/mask_004.jpg,,,,,,,,,,,,,,,,,,,,,,,,,,,,,,,,,,,,,,,,,,,0,4,4,3,1,,,,,,,,,,,,,,,,,,,,,,,,,,,,,,,,,,,,,,,,,,,,,,
946728,001,2022-11-21_01h55.00.122,Info_measure_main_exp,2022.2.2,Win32,74.99625019,,,,,,,,,,,,,,,,,,masks/mask_005.jpg,,,,,,,,,,,,,,,,,,,,,,,,,,,,,,,,,,,,,,,,,,,,,,,,0,0,0,4,1,,,,,,,,,,,,,,,,,,,,,,,,,,,,,,,,,,,,,,,,,
946728,001,2022-11-21_01h55.00.122,Info_measure_main_exp,2022.2.2,Win32,74.99625019,,,,,,,,,,,,,,,,,,masks/mask_004.jpg,,,,,,,,,,,,,,,,,,,,,,,,,,,,,,,,,,,,,,,,,,,,,,,,0,1,1,3,1,,,,,,,,,,,,,,,,,,,,,,,,,,,,,,,,,,,,,,,,,
946728,001,2022-11-21_01h55.00.122,Info_measure_main_exp,2022.2.2,Win32,74.99625019,,,,,,,,,,,,,,,,,,masks/mask_003.jpg,,,,,,,,,,,,,,,,,,,,,,,,,,,,,,,,,,,,,,,,,,,,,,,,0,2,2,2,1,,,,,,,,,,,,,,,,,,,,,,,,,,,,,,,,,,,,,,,,,
946728,001,2022-11-21_01h55.00.122,Info_measure_main_exp,2022.2.2,Win32,74.99625019,,,,,,,,,,,,,,,,,,masks/mask_001.jpg,,,,,,,,,,,,,,,,,,,,,,,,,,,,,,,,,,,,,,,,,,,,,,,,0,3,3,0,1,,,,,,,,,,,,,,,,,,,,,,,,,,,,,,,,,,,,,,,,,
946728,001,2022-11-21_01h55.00.122,Info_measure_main_exp,2022.2.2,Win32,74.99625019,,,,,,,,,,,,,,,,,,masks/mask_002.jpg,,,,,,,,,,,,,,,,,,,,,,,,,,,,,,,,,,,,,,,,,,,,,,,,0,4,4,1,1,,,,,,,,,,,,,,,,,,,,,,,,,,,,,,,,,,,,,,,,,
946728,001,2022-11-21_01h55.00.122,Info_measure_main_exp,2022.2.2,Win32,74.99625019,,,,,,,,,,,,,,,,,,,,,,,,,,,,,,5,2.4673,1,,,,,,,,,,,,0,131,5,5,2154,2250,absent_patch/patch0002154.jpg,absent_patch/patch0002250.jpg,,,,,,,,,,,,,,,,,,,,0.091430161,-0.0263613,1,0,1,response3disk,28,0.00898993,-0.008302945,1,0,1,center_square,0,27,27,108,1,,,,,,,,,,,,,,,,,,,,,,,
946728,001,2022-11-21_01h55.00.122,Info_measure_main_exp,2022.2.2,Win32,74.99625019,,,,,,,,,,,,,,,,,,masks/mask_002.jpg,,,,,,,,,,,,,,,,,,,,,,,,,,,,,,,,,,,,,,,,,,,0,0,0,1,1,,,,,,,,,,,,,,,,,,,,,,,,,,,,,,,,,,,,,,,,,,,,,,
946728,001,2022-11-21_01h55.00.122,Info_measure_main_exp,2022.2.2,Win32,74.99625019,,,,,,,,,,,,,,,,,,masks/mask_004.jpg,,,,,,,,,,,,,,,,,,,,,,,,,,,,,,,,,,,,,,,,,,,0,1,1,3,1,,,,,,,,,,,,,,,,,,,,,,,,,,,,,,,,,,,,,,,,,,,,,,
946728,001,2022-11-21_01h55.00.122,Info_measure_main_exp,2022.2.2,Win32,74.99625019,,,,,,,,,,,,,,,,,,masks/mask_005.jpg,,,,,,,,,,,,,,,,,,,,,,,,,,,,,,,,,,,,,,,,,,,0,2,2,4,1,,,,,,,,,,,,,,,,,,,,,,,,,,,,,,,,,,,,,,,,,,,,,,
946728,001,2022-11-21_01h55.00.122,Info_measure_main_exp,2022.2.2,Win32,74.99625019,,,,,,,,,,,,,,,,,,masks/mask_003.jpg,,,,,,,,,,,,,,,,,,,,,,,,,,,,,,,,,,,,,,,,,,,0,3,3,2,1,,,,,,,,,,,,,,,,,,,,,,,,,,,,,,,,,,,,,,,,,,,,,,
946728,001,2022-11-21_01h55.00.122,Info_measure_main_exp,2022.2.2,Win32,74.99625019,,,,,,,,,,,,,,,,,,masks/mask_001.jpg,,,,,,,,,,,,,,,,,,,,,,,,,,,,,,,,,,,,,,,,,,,0,4,4,0,1,,,,,,,,,,,,,,,,,,,,,,,,,,,,,,,,,,,,,,,,,,,,,,
946728,001,2022-11-21_01h55.00.122,Info_measure_main_exp,2022.2.2,Win32,74.99625019,,,,,,,,,,,,,,,,,,masks/mask_005.jpg,,,,,,,,,,,,,,,,,,,,,,,,,,,,,,,,,,,,,,,,,,,,,,,,0,0,0,4,1,,,,,,,,,,,,,,,,,,,,,,,,,,,,,,,,,,,,,,,,,
946728,001,2022-11-21_01h55.00.122,Info_measure_main_exp,2022.2.2,Win32,74.99625019,,,,,,,,,,,,,,,,,,masks/mask_001.jpg,,,,,,,,,,,,,,,,,,,,,,,,,,,,,,,,,,,,,,,,,,,,,,,,0,1,1,0,1,,,,,,,,,,,,,,,,,,,,,,,,,,,,,,,,,,,,,,,,,
946728,001,2022-11-21_01h55.00.122,Info_measure_main_exp,2022.2.2,Win32,74.99625019,,,,,,,,,,,,,,,,,,masks/mask_003.jpg,,,,,,,,,,,,,,,,,,,,,,,,,,,,,,,,,,,,,,,,,,,,,,,,0,2,2,2,1,,,,,,,,,,,,,,,,,,,,,,,,,,,,,,,,,,,,,,,,,
946728,001,2022-11-21_01h55.00.122,Info_measure_main_exp,2022.2.2,Win32,74.99625019,,,,,,,,,,,,,,,,,,masks/mask_002.jpg,,,,,,,,,,,,,,,,,,,,,,,,,,,,,,,,,,,,,,,,,,,,,,,,0,3,3,1,1,,,,,,,,,,,,,,,,,,,,,,,,,,,,,,,,,,,,,,,,,
946728,001,2022-11-21_01h55.00.122,Info_measure_main_exp,2022.2.2,Win32,74.99625019,,,,,,,,,,,,,,,,,,masks/mask_004.jpg,,,,,,,,,,,,,,,,,,,,,,,,,,,,,,,,,,,,,,,,,,,,,,,,0,4,4,3,1,,,,,,,,,,,,,,,,,,,,,,,,,,,,,,,,,,,,,,,,,
946728,001,2022-11-21_01h55.00.122,Info_measure_main_exp,2022.2.2,Win32,74.99625019,,,,,,,,,,,,,,,,,,,,,,,,,,,,,,4,2.3461,1,,,,,,,,,,,,0,131,5,5,2274,2154,absent_patch/patch0002274.jpg,absent_patch/patch0002154.jpg,,,,,,,,,,,,,,,,,,,,0.037255195,-0.058552238,1,0,1,response3disk,29,-0.000431724,-0.005947531,1,0,1,center_square,0,28,28,23,1,,,,,,,,,,,,,,,,,,,,,,,
946728,001,2022-11-21_01h55.00.122,Info_measure_main_exp,2022.2.2,Win32,74.99625019,,,,,,,,,,,,,,,,,,masks/mask_004.jpg,,,,,,,,,,,,,,,,,,,,,,,,,,,,,,,,,,,,,,,,,,,0,0,0,3,1,,,,,,,,,,,,,,,,,,,,,,,,,,,,,,,,,,,,,,,,,,,,,,
946728,001,2022-11-21_01h55.00.122,Info_measure_main_exp,2022.2.2,Win32,74.99625019,,,,,,,,,,,,,,,,,,masks/mask_001.jpg,,,,,,,,,,,,,,,,,,,,,,,,,,,,,,,,,,,,,,,,,,,0,1,1,0,1,,,,,,,,,,,,,,,,,,,,,,,,,,,,,,,,,,,,,,,,,,,,,,
946728,001,2022-11-21_01h55.00.122,Info_measure_main_exp,2022.2.2,Win32,74.99625019,,,,,,,,,,,,,,,,,,masks/mask_002.jpg,,,,,,,,,,,,,,,,,,,,,,,,,,,,,,,,,,,,,,,,,,,0,2,2,1,1,,,,,,,,,,,,,,,,,,,,,,,,,,,,,,,,,,,,,,,,,,,,,,
946728,001,2022-11-21_01h55.00.122,Info_measure_main_exp,2022.2.2,Win32,74.99625019,,,,,,,,,,,,,,,,,,masks/mask_005.jpg,,,,,,,,,,,,,,,,,,,,,,,,,,,,,,,,,,,,,,,,,,,0,3,3,4,1,,,,,,,,,,,,,,,,,,,,,,,,,,,,,,,,,,,,,,,,,,,,,,
946728,001,2022-11-21_01h55.00.122,Info_measure_main_exp,2022.2.2,Win32,74.99625019,,,,,,,,,,,,,,,,,,masks/mask_003.jpg,,,,,,,,,,,,,,,,,,,,,,,,,,,,,,,,,,,,,,,,,,,0,4,4,2,1,,,,,,,,,,,,,,,,,,,,,,,,,,,,,,,,,,,,,,,,,,,,,,
946728,001,2022-11-21_01h55.00.122,Info_measure_main_exp,2022.2.2,Win32,74.99625019,,,,,,,,,,,,,,,,,,masks/mask_003.jpg,,,,,,,,,,,,,,,,,,,,,,,,,,,,,,,,,,,,,,,,,,,,,,,,0,0,0,2,1,,,,,,,,,,,,,,,,,,,,,,,,,,,,,,,,,,,,,,,,,
946728,001,2022-11-21_01h55.00.122,Info_measure_main_exp,2022.2.2,Win32,74.99625019,,,,,,,,,,,,,,,,,,masks/mask_002.jpg,,,,,,,,,,,,,,,,,,,,,,,,,,,,,,,,,,,,,,,,,,,,,,,,0,1,1,1,1,,,,,,,,,,,,,,,,,,,,,,,,,,,,,,,,,,,,,,,,,
946728,001,2022-11-21_01h55.00.122,Info_measure_main_exp,2022.2.2,Win32,74.99625019,,,,,,,,,,,,,,,,,,masks/mask_004.jpg,,,,,,,,,,,,,,,,,,,,,,,,,,,,,,,,,,,,,,,,,,,,,,,,0,2,2,3,1,,,,,,,,,,,,,,,,,,,,,,,,,,,,,,,,,,,,,,,,,
946728,001,2022-11-21_01h55.00.122,Info_measure_main_exp,2022.2.2,Win32,74.99625019,,,,,,,,,,,,,,,,,,masks/mask_005.jpg,,,,,,,,,,,,,,,,,,,,,,,,,,,,,,,,,,,,,,,,,,,,,,,,0,3,3,4,1,,,,,,,,,,,,,,,,,,,,,,,,,,,,,,,,,,,,,,,,,
946728,001,2022-11-21_01h55.00.122,Info_measure_main_exp,2022.2.2,Win32,74.99625019,,,,,,,,,,,,,,,,,,masks/mask_001.jpg,,,,,,,,,,,,,,,,,,,,,,,,,,,,,,,,,,,,,,,,,,,,,,,,0,4,4,0,1,,,,,,,,,,,,,,,,,,,,,,,,,,,,,,,,,,,,,,,,,
946728,001,2022-11-21_01h55.00.122,Info_measure_main_exp,2022.2.2,Win32,74.99625019,,,,,,,,,,,,,,,,,,,,,,,,,,,,,,0,0.6669,1,,,,,,,,,,,,0,131,5,5,2214,2214,absent_patch/patch0002214.jpg,absent_patch/patch0002214.jpg,,,,,,,,,,,,,,,,,,,,-0.023200957,0.072566977,1,0,1,response7disk,30,-0.000431724,0.001903914,1,0,1,center_square,0,29,29,115,1,,,,,,,,,,,,,,,,,,,,,,,
946728,001,2022-11-21_01h55.00.122,Info_measure_main_exp,2022.2.2,Win32,74.99625019,,,,,,,,,,,,,,,,,,masks/mask_005.jpg,,,,,,,,,,,,,,,,,,,,,,,,,,,,,,,,,,,,,,,,,,,0,0,0,4,1,,,,,,,,,,,,,,,,,,,,,,,,,,,,,,,,,,,,,,,,,,,,,,
946728,001,2022-11-21_01h55.00.122,Info_measure_main_exp,2022.2.2,Win32,74.99625019,,,,,,,,,,,,,,,,,,masks/mask_002.jpg,,,,,,,,,,,,,,,,,,,,,,,,,,,,,,,,,,,,,,,,,,,0,1,1,1,1,,,,,,,,,,,,,,,,,,,,,,,,,,,,,,,,,,,,,,,,,,,,,,
946728,001,2022-11-21_01h55.00.122,Info_measure_main_exp,2022.2.2,Win32,74.99625019,,,,,,,,,,,,,,,,,,masks/mask_003.jpg,,,,,,,,,,,,,,,,,,,,,,,,,,,,,,,,,,,,,,,,,,,0,2,2,2,1,,,,,,,,,,,,,,,,,,,,,,,,,,,,,,,,,,,,,,,,,,,,,,
946728,001,2022-11-21_01h55.00.122,Info_measure_main_exp,2022.2.2,Win32,74.99625019,,,,,,,,,,,,,,,,,,masks/mask_001.jpg,,,,,,,,,,,,,,,,,,,,,,,,,,,,,,,,,,,,,,,,,,,0,3,3,0,1,,,,,,,,,,,,,,,,,,,,,,,,,,,,,,,,,,,,,,,,,,,,,,
946728,001,2022-11-21_01h55.00.122,Info_measure_main_exp,2022.2.2,Win32,74.99625019,,,,,,,,,,,,,,,,,,masks/mask_004.jpg,,,,,,,,,,,,,,,,,,,,,,,,,,,,,,,,,,,,,,,,,,,0,4,4,3,1,,,,,,,,,,,,,,,,,,,,,,,,,,,,,,,,,,,,,,,,,,,,,,
946728,001,2022-11-21_01h55.00.122,Info_measure_main_exp,2022.2.2,Win32,74.99625019,,,,,,,,,,,,,,,,,,masks/mask_003.jpg,,,,,,,,,,,,,,,,,,,,,,,,,,,,,,,,,,,,,,,,,,,,,,,,0,0,0,2,1,,,,,,,,,,,,,,,,,,,,,,,,,,,,,,,,,,,,,,,,,
946728,001,2022-11-21_01h55.00.122,Info_measure_main_exp,2022.2.2,Win32,74.99625019,,,,,,,,,,,,,,,,,,masks/mask_001.jpg,,,,,,,,,,,,,,,,,,,,,,,,,,,,,,,,,,,,,,,,,,,,,,,,0,1,1,0,1,,,,,,,,,,,,,,,,,,,,,,,,,,,,,,,,,,,,,,,,,
946728,001,2022-11-21_01h55.00.122,Info_measure_main_exp,2022.2.2,Win32,74.99625019,,,,,,,,,,,,,,,,,,masks/mask_005.jpg,,,,,,,,,,,,,,,,,,,,,,,,,,,,,,,,,,,,,,,,,,,,,,,,0,2,2,4,1,,,,,,,,,,,,,,,,,,,,,,,,,,,,,,,,,,,,,,,,,
946728,001,2022-11-21_01h55.00.122,Info_measure_main_exp,2022.2.2,Win32,74.99625019,,,,,,,,,,,,,,,,,,masks/mask_004.jpg,,,,,,,,,,,,,,,,,,,,,,,,,,,,,,,,,,,,,,,,,,,,,,,,0,3,3,3,1,,,,,,,,,,,,,,,,,,,,,,,,,,,,,,,,,,,,,,,,,
946728,001,2022-11-21_01h55.00.122,Info_measure_main_exp,2022.2.2,Win32,74.99625019,,,,,,,,,,,,,,,,,,masks/mask_002.jpg,,,,,,,,,,,,,,,,,,,,,,,,,,,,,,,,,,,,,,,,,,,,,,,,0,4,4,1,1,,,,,,,,,,,,,,,,,,,,,,,,,,,,,,,,,,,,,,,,,
946728,001,2022-11-21_01h55.00.122,Info_measure_main_exp,2022.2.2,Win32,74.99625019,,,,,,,,,,,,,,,,,,,,,,,,,,,,,,5,1.3872,1,,,,,,,,,,,,0,131,5,5,2082,2250,absent_patch/patch0002082.jpg,absent_patch/patch0002250.jpg,,,,,,,,,,,,,,,,,,,,0.099281607,-0.038138469,1,0,1,response3disk,31,0.009775085,-0.005947531,1,0,1,center_square,0,30,30,3,1,,,,,,,,,,,,,,,,,,,,,,,
946728,001,2022-11-21_01h55.00.122,Info_measure_main_exp,2022.2.2,Win32,74.99625019,,,,,,,,,,,,,,,,,,masks/mask_005.jpg,,,,,,,,,,,,,,,,,,,,,,,,,,,,,,,,,,,,,,,,,,,0,0,0,4,1,,,,,,,,,,,,,,,,,,,,,,,,,,,,,,,,,,,,,,,,,,,,,,
946728,001,2022-11-21_01h55.00.122,Info_measure_main_exp,2022.2.2,Win32,74.99625019,,,,,,,,,,,,,,,,,,masks/mask_001.jpg,,,,,,,,,,,,,,,,,,,,,,,,,,,,,,,,,,,,,,,,,,,0,1,1,0,1,,,,,,,,,,,,,,,,,,,,,,,,,,,,,,,,,,,,,,,,,,,,,,
946728,001,2022-11-21_01h55.00.122,Info_measure_main_exp,2022.2.2,Win32,74.99625019,,,,,,,,,,,,,,,,,,masks/mask_003.jpg,,,,,,,,,,,,,,,,,,,,,,,,,,,,,,,,,,,,,,,,,,,0,2,2,2,1,,,,,,,,,,,,,,,,,,,,,,,,,,,,,,,,,,,,,,,,,,,,,,
946728,001,2022-11-21_01h55.00.122,Info_measure_main_exp,2022.2.2,Win32,74.99625019,,,,,,,,,,,,,,,,,,masks/mask_002.jpg,,,,,,,,,,,,,,,,,,,,,,,,,,,,,,,,,,,,,,,,,,,0,3,3,1,1,,,,,,,,,,,,,,,,,,,,,,,,,,,,,,,,,,,,,,,,,,,,,,
946728,001,2022-11-21_01h55.00.122,Info_measure_main_exp,2022.2.2,Win32,74.99625019,,,,,,,,,,,,,,,,,,masks/mask_004.jpg,,,,,,,,,,,,,,,,,,,,,,,,,,,,,,,,,,,,,,,,,,,0,4,4,3,1,,,,,,,,,,,,,,,,,,,,,,,,,,,,,,,,,,,,,,,,,,,,,,
946728,001,2022-11-21_01h55.00.122,Info_measure_main_exp,2022.2.2,Win32,74.99625019,,,,,,,,,,,,,,,,,,masks/mask_003.jpg,,,,,,,,,,,,,,,,,,,,,,,,,,,,,,,,,,,,,,,,,,,,,,,,0,0,0,2,1,,,,,,,,,,,,,,,,,,,,,,,,,,,,,,,,,,,,,,,,,
946728,001,2022-11-21_01h55.00.122,Info_measure_main_exp,2022.2.2,Win32,74.99625019,,,,,,,,,,,,,,,,,,masks/mask_002.jpg,,,,,,,,,,,,,,,,,,,,,,,,,,,,,,,,,,,,,,,,,,,,,,,,0,1,1,1,1,,,,,,,,,,,,,,,,,,,,,,,,,,,,,,,,,,,,,,,,,
946728,001,2022-11-21_01h55.00.122,Info_measure_main_exp,2022.2.2,Win32,74.99625019,,,,,,,,,,,,,,,,,,masks/mask_001.jpg,,,,,,,,,,,,,,,,,,,,,,,,,,,,,,,,,,,,,,,,,,,,,,,,0,2,2,0,1,,,,,,,,,,,,,,,,,,,,,,,,,,,,,,,,,,,,,,,,,
946728,001,2022-11-21_01h55.00.122,Info_measure_main_exp,2022.2.2,Win32,74.99625019,,,,,,,,,,,,,,,,,,masks/mask_004.jpg,,,,,,,,,,,,,,,,,,,,,,,,,,,,,,,,,,,,,,,,,,,,,,,,0,3,3,3,1,,,,,,,,,,,,,,,,,,,,,,,,,,,,,,,,,,,,,,,,,
946728,001,2022-11-21_01h55.00.122,Info_measure_main_exp,2022.2.2,Win32,74.99625019,,,,,,,,,,,,,,,,,,masks/mask_005.jpg,,,,,,,,,,,,,,,,,,,,,,,,,,,,,,,,,,,,,,,,,,,,,,,,0,4,4,4,1,,,,,,,,,,,,,,,,,,,,,,,,,,,,,,,,,,,,,,,,,
946728,001,2022-11-21_01h55.00.122,Info_measure_main_exp,2022.2.2,Win32,74.99625019,,,,,,,,,,,,,,,,,,,,,,,,,,,,,,7,1.1069,1,,,,,,,,,,,,0,131,5,5,2178,1986,absent_patch/patch0002178.jpg,absent_patch/patch0001986.jpg,,,,,,,,,,,,,,,,,,,,0.064735507,0.070211563,1,0,1,response1disk,32,0.009775085,0.004259378,1,0,1,center_square,0,31,31,46,1,,,,,,,,,,,,,,,,,,,,,,,
946728,001,2022-11-21_01h55.00.122,Info_measure_main_exp,2022.2.2,Win32,74.99625019,,,,,,,,,,,,,,,,,,masks/mask_001.jpg,,,,,,,,,,,,,,,,,,,,,,,,,,,,,,,,,,,,,,,,,,,0,0,0,0,1,,,,,,,,,,,,,,,,,,,,,,,,,,,,,,,,,,,,,,,,,,,,,,
946728,001,2022-11-21_01h55.00.122,Info_measure_main_exp,2022.2.2,Win32,74.99625019,,,,,,,,,,,,,,,,,,masks/mask_004.jpg,,,,,,,,,,,,,,,,,,,,,,,,,,,,,,,,,,,,,,,,,,,0,1,1,3,1,,,,,,,,,,,,,,,,,,,,,,,,,,,,,,,,,,,,,,,,,,,,,,
946728,001,2022-11-21_01h55.00.122,Info_measure_main_exp,2022.2.2,Win32,74.99625019,,,,,,,,,,,,,,,,,,masks/mask_002.jpg,,,,,,,,,,,,,,,,,,,,,,,,,,,,,,,,,,,,,,,,,,,0,2,2,1,1,,,,,,,,,,,,,,,,,,,,,,,,,,,,,,,,,,,,,,,,,,,,,,
946728,001,2022-11-21_01h55.00.122,Info_measure_main_exp,2022.2.2,Win32,74.99625019,,,,,,,,,,,,,,,,,,masks/mask_005.jpg,,,,,,,,,,,,,,,,,,,,,,,,,,,,,,,,,,,,,,,,,,,0,3,3,4,1,,,,,,,,,,,,,,,,,,,,,,,,,,,,,,,,,,,,,,,,,,,,,,
946728,001,2022-11-21_01h55.00.122,Info_measure_main_exp,2022.2.2,Win32,74.99625019,,,,,,,,,,,,,,,,,,masks/mask_003.jpg,,,,,,,,,,,,,,,,,,,,,,,,,,,,,,,,,,,,,,,,,,,0,4,4,2,1,,,,,,,,,,,,,,,,,,,,,,,,,,,,,,,,,,,,,,,,,,,,,,
946728,001,2022-11-21_01h55.00.122,Info_measure_main_exp,2022.2.2,Win32,74.99625019,,,,,,,,,,,,,,,,,,masks/mask_005.jpg,,,,,,,,,,,,,,,,,,,,,,,,,,,,,,,,,,,,,,,,,,,,,,,,0,0,0,4,1,,,,,,,,,,,,,,,,,,,,,,,,,,,,,,,,,,,,,,,,,
946728,001,2022-11-21_01h55.00.122,Info_measure_main_exp,2022.2.2,Win32,74.99625019,,,,,,,,,,,,,,,,,,masks/mask_004.jpg,,,,,,,,,,,,,,,,,,,,,,,,,,,,,,,,,,,,,,,,,,,,,,,,0,1,1,3,1,,,,,,,,,,,,,,,,,,,,,,,,,,,,,,,,,,,,,,,,,
946728,001,2022-11-21_01h55.00.122,Info_measure_main_exp,2022.2.2,Win32,74.99625019,,,,,,,,,,,,,,,,,,masks/mask_003.jpg,,,,,,,,,,,,,,,,,,,,,,,,,,,,,,,,,,,,,,,,,,,,,,,,0,2,2,2,1,,,,,,,,,,,,,,,,,,,,,,,,,,,,,,,,,,,,,,,,,
946728,001,2022-11-21_01h55.00.122,Info_measure_main_exp,2022.2.2,Win32,74.99625019,,,,,,,,,,,,,,,,,,masks/mask_002.jpg,,,,,,,,,,,,,,,,,,,,,,,,,,,,,,,,,,,,,,,,,,,,,,,,0,3,3,1,1,,,,,,,,,,,,,,,,,,,,,,,,,,,,,,,,,,,,,,,,,
946728,001,2022-11-21_01h55.00.122,Info_measure_main_exp,2022.2.2,Win32,74.99625019,,,,,,,,,,,,,,,,,,masks/mask_001.jpg,,,,,,,,,,,,,,,,,,,,,,,,,,,,,,,,,,,,,,,,,,,,,,,,0,4,4,0,1,,,,,,,,,,,,,,,,,,,,,,,,,,,,,,,,,,,,,,,,,
946728,001,2022-11-21_01h55.00.122,Info_measure_main_exp,2022.2.2,Win32,74.99625019,,,,,,,,,,,,,,,,,,,,,,,,,,,,,,2,1.6672,1,,,,,,,,,,,,0,131,5,5,1974,1950,absent_patch/patch0001974.jpg,absent_patch/patch0001950.jpg,,,,,,,,,,,,,,,,,,,,-0.061673082,-0.042849347,1,0,1,response5disk,33,0.001138484,0.007399947,1,0,1,center_square,0,32,32,17,1,,,,,,,,,,,,,,,,,,,,,,,
946728,001,2022-11-21_01h55.00.122,Info_measure_main_exp,2022.2.2,Win32,74.99625019,,,,,,,,,,,,,,,,,,masks/mask_005.jpg,,,,,,,,,,,,,,,,,,,,,,,,,,,,,,,,,,,,,,,,,,,0,0,0,4,1,,,,,,,,,,,,,,,,,,,,,,,,,,,,,,,,,,,,,,,,,,,,,,
946728,001,2022-11-21_01h55.00.122,Info_measure_main_exp,2022.2.2,Win32,74.99625019,,,,,,,,,,,,,,,,,,masks/mask_002.jpg,,,,,,,,,,,,,,,,,,,,,,,,,,,,,,,,,,,,,,,,,,,0,1,1,1,1,,,,,,,,,,,,,,,,,,,,,,,,,,,,,,,,,,,,,,,,,,,,,,
946728,001,2022-11-21_01h55.00.122,Info_measure_main_exp,2022.2.2,Win32,74.99625019,,,,,,,,,,,,,,,,,,masks/mask_001.jpg,,,,,,,,,,,,,,,,,,,,,,,,,,,,,,,,,,,,,,,,,,,0,2,2,0,1,,,,,,,,,,,,,,,,,,,,,,,,,,,,,,,,,,,,,,,,,,,,,,
946728,001,2022-11-21_01h55.00.122,Info_measure_main_exp,2022.2.2,Win32,74.99625019,,,,,,,,,,,,,,,,,,masks/mask_003.jpg,,,,,,,,,,,,,,,,,,,,,,,,,,,,,,,,,,,,,,,,,,,0,3,3,2,1,,,,,,,,,,,,,,,,,,,,,,,,,,,,,,,,,,,,,,,,,,,,,,
946728,001,2022-11-21_01h55.00.122,Info_measure_main_exp,2022.2.2,Win32,74.99625019,,,,,,,,,,,,,,,,,,masks/mask_004.jpg,,,,,,,,,,,,,,,,,,,,,,,,,,,,,,,,,,,,,,,,,,,0,4,4,3,1,,,,,,,,,,,,,,,,,,,,,,,,,,,,,,,,,,,,,,,,,,,,,,
946728,001,2022-11-21_01h55.00.122,Info_measure_main_exp,2022.2.2,Win32,74.99625019,,,,,,,,,,,,,,,,,,masks/mask_001.jpg,,,,,,,,,,,,,,,,,,,,,,,,,,,,,,,,,,,,,,,,,,,,,,,,0,0,0,0,1,,,,,,,,,,,,,,,,,,,,,,,,,,,,,,,,,,,,,,,,,
946728,001,2022-11-21_01h55.00.122,Info_measure_main_exp,2022.2.2,Win32,74.99625019,,,,,,,,,,,,,,,,,,masks/mask_002.jpg,,,,,,,,,,,,,,,,,,,,,,,,,,,,,,,,,,,,,,,,,,,,,,,,0,1,1,1,1,,,,,,,,,,,,,,,,,,,,,,,,,,,,,,,,,,,,,,,,,
946728,001,2022-11-21_01h55.00.122,Info_measure_main_exp,2022.2.2,Win32,74.99625019,,,,,,,,,,,,,,,,,,masks/mask_005.jpg,,,,,,,,,,,,,,,,,,,,,,,,,,,,,,,,,,,,,,,,,,,,,,,,0,2,2,4,1,,,,,,,,,,,,,,,,,,,,,,,,,,,,,,,,,,,,,,,,,
946728,001,2022-11-21_01h55.00.122,Info_measure_main_exp,2022.2.2,Win32,74.99625019,,,,,,,,,,,,,,,,,,masks/mask_004.jpg,,,,,,,,,,,,,,,,,,,,,,,,,,,,,,,,,,,,,,,,,,,,,,,,0,3,3,3,1,,,,,,,,,,,,,,,,,,,,,,,,,,,,,,,,,,,,,,,,,
946728,001,2022-11-21_01h55.00.122,Info_measure_main_exp,2022.2.2,Win32,74.99625019,,,,,,,,,,,,,,,,,,masks/mask_003.jpg,,,,,,,,,,,,,,,,,,,,,,,,,,,,,,,,,,,,,,,,,,,,,,,,0,4,4,2,1,,,,,,,,,,,,,,,,,,,,,,,,,,,,,,,,,,,,,,,,,
946728,001,2022-11-21_01h55.00.122,Info_measure_main_exp,2022.2.2,Win32,74.99625019,,,,,,,,,,,,,,,,,,,,,,,,,,,,,,3,1.815,1,,,,,,,,,,,,0,131,5,5,1974,2142,absent_patch/patch0001974.jpg,absent_patch/patch0002142.jpg,,,,,,,,,,,,,,,,,,,,-0.039689003,-0.092313485,1,0,1,response5disk,34,-0.006712961,0.006614792,1,0,1,center_square,0,33,33,38,1,,,,,,,,,,,,,,,,,,,,,,,
946728,001,2022-11-21_01h55.00.122,Info_measure_main_exp,2022.2.2,Win32,74.99625019,,,,,,,,,,,,,,,,,,masks/mask_004.jpg,,,,,,,,,,,,,,,,,,,,,,,,,,,,,,,,,,,,,,,,,,,0,0,0,3,1,,,,,,,,,,,,,,,,,,,,,,,,,,,,,,,,,,,,,,,,,,,,,,
946728,001,2022-11-21_01h55.00.122,Info_measure_main_exp,2022.2.2,Win32,74.99625019,,,,,,,,,,,,,,,,,,masks/mask_001.jpg,,,,,,,,,,,,,,,,,,,,,,,,,,,,,,,,,,,,,,,,,,,0,1,1,0,1,,,,,,,,,,,,,,,,,,,,,,,,,,,,,,,,,,,,,,,,,,,,,,
946728,001,2022-11-21_01h55.00.122,Info_measure_main_exp,2022.2.2,Win32,74.99625019,,,,,,,,,,,,,,,,,,masks/mask_002.jpg,,,,,,,,,,,,,,,,,,,,,,,,,,,,,,,,,,,,,,,,,,,0,2,2,1,1,,,,,,,,,,,,,,,,,,,,,,,,,,,,,,,,,,,,,,,,,,,,,,
946728,001,2022-11-21_01h55.00.122,Info_measure_main_exp,2022.2.2,Win32,74.99625019,,,,,,,,,,,,,,,,,,masks/mask_003.jpg,,,,,,,,,,,,,,,,,,,,,,,,,,,,,,,,,,,,,,,,,,,0,3,3,2,1,,,,,,,,,,,,,,,,,,,,,,,,,,,,,,,,,,,,,,,,,,,,,,
946728,001,2022-11-21_01h55.00.122,Info_measure_main_exp,2022.2.2,Win32,74.99625019,,,,,,,,,,,,,,,,,,masks/mask_005.jpg,,,,,,,,,,,,,,,,,,,,,,,,,,,,,,,,,,,,,,,,,,,0,4,4,4,1,,,,,,,,,,,,,,,,,,,,,,,,,,,,,,,,,,,,,,,,,,,,,,
946728,001,2022-11-21_01h55.00.122,Info_measure_main_exp,2022.2.2,Win32,74.99625019,,,,,,,,,,,,,,,,,,masks/mask_005.jpg,,,,,,,,,,,,,,,,,,,,,,,,,,,,,,,,,,,,,,,,,,,,,,,,0,0,0,4,1,,,,,,,,,,,,,,,,,,,,,,,,,,,,,,,,,,,,,,,,,
946728,001,2022-11-21_01h55.00.122,Info_measure_main_exp,2022.2.2,Win32,74.99625019,,,,,,,,,,,,,,,,,,masks/mask_001.jpg,,,,,,,,,,,,,,,,,,,,,,,,,,,,,,,,,,,,,,,,,,,,,,,,0,1,1,0,1,,,,,,,,,,,,,,,,,,,,,,,,,,,,,,,,,,,,,,,,,
946728,001,2022-11-21_01h55.00.122,Info_measure_main_exp,2022.2.2,Win32,74.99625019,,,,,,,,,,,,,,,,,,masks/mask_003.jpg,,,,,,,,,,,,,,,,,,,,,,,,,,,,,,,,,,,,,,,,,,,,,,,,0,2,2,2,1,,,,,,,,,,,,,,,,,,,,,,,,,,,,,,,,,,,,,,,,,
946728,001,2022-11-21_01h55.00.122,Info_measure_main_exp,2022.2.2,Win32,74.99625019,,,,,,,,,,,,,,,,,,masks/mask_002.jpg,,,,,,,,,,,,,,,,,,,,,,,,,,,,,,,,,,,,,,,,,,,,,,,,0,3,3,1,1,,,,,,,,,,,,,,,,,,,,,,,,,,,,,,,,,,,,,,,,,
