participant,session,date,expName,psychopyVersion,OS,frameRate,space_press_continue.keys,space_press_continue.rt,space_press_continue_2.keys,space_press_continue_2.rt,space_press_continue_3.keys,space_press_continue_3.rt,space_press_continue_4.keys,space_press_continue_4.rt,space_press_continue_5.keys,space_press_continue_5.rt,space_press_continue_6.keys,space_press_continue_6.rt,prac_mask_loop_1.thisRepN,prac_mask_loop_1.thisTrialN,prac_mask_loop_1.thisN,prac_mask_loop_1.thisIndex,prac_mask_loop_1.ran,mask_name,prac_mask_loop_2.thisRepN,prac_mask_loop_2.thisTrialN,prac_mask_loop_2.thisN,prac_mask_loop_2.thisIndex,prac_mask_loop_2.ran,mouse_2.x,mouse_2.y,mouse_2.leftButton,mouse_2.midButton,mouse_2.rightButton,mouse_2.clicked_name,similarity,response_time,Pass,mouse_12.x,mouse_12.y,mouse_12.leftButton,mouse_12.midButton,mouse_12.rightButton,mouse_12.clicked_name,prac_loop.thisRepN,prac_loop.thisTrialN,prac_loop.thisN,prac_loop.thisIndex,prac_loop.ran,Pair_type,Image_num,Patch_1_loc,Patch_2_loc,Patch_1_info,Patch_2_info,Patch_1_name,Patch_2_name
950128,001,2022-11-21_24h51.15.094,Info_measure_main_exp,2022.2.2,Win32,12.00076805,,,,,,,,,,,,,,,,,,,,,,,,,,,,,,,,,,,,,,,,,,,,,,,,,,,
950128,001,2022-11-21_24h51.15.094,Info_measure_main_exp,2022.2.2,Win32,12.00076805,,,,,,,,,,,,,,,,,,,,,,,,,,,,,,,,,,,,,,,,,,,,,,,,,,,
950128,001,2022-11-21_24h51.15.094,Info_measure_main_exp,2022.2.2,Win32,12.00076805,space,887.161,,,,,,,,,,,,,,,,,,,,,,,,,,,,,,,,,,,,,,,,,,,,,,,,,
950128,001,2022-11-21_24h51.15.094,Info_measure_main_exp,2022.2.2,Win32,12.00076805,,,space,89.1501,,,,,,,,,,,,,,,,,,,,,,,,,,,,,,,,,,,,,,,,,,,,,,,
950128,001,2022-11-21_24h51.15.094,Info_measure_main_exp,2022.2.2,Win32,12.00076805,,,,,space,4.2675,,,,,,,,,,,,,,,,,,,,,,,,,,,,,,,,,,,,,,,,,,,,,
950128,001,2022-11-21_24h51.15.094,Info_measure_main_exp,2022.2.2,Win32,12.00076805,,,,,,,space,23.493,,,,,,,,,,,,,,,,,,,,,,,,,,,,,,,,,,,,,,,,,,,
950128,001,2022-11-21_24h51.15.094,Info_measure_main_exp,2022.2.2,Win32,12.00076805,,,,,,,,,space,7.7054,,,,,,,,,,,,,,,,,,,,,,,,,,,,,,,,,,,,,,,,,
950128,001,2022-11-21_24h51.15.094,Info_measure_main_exp,2022.2.2,Win32,12.00076805,,,,,,,,,,,space,4.5202,,,,,,,,,,,,,,,,,,,,,,,,,,,,,,,,,,,,,,,
950128,001,2022-11-21_24h51.15.094,Info_measure_main_exp,2022.2.2,Win32,12.00076805,,,,,,,,,,,,,0,0,0,2,1,masks/mask_003.jpg,,,,,,,,,,,,,,,,,,,,,,,,,,,,,,,,,
950128,001,2022-11-21_24h51.15.094,Info_measure_main_exp,2022.2.2,Win32,12.00076805,,,,,,,,,,,,,0,1,1,3,1,masks/mask_004.jpg,,,,,,,,,,,,,,,,,,,,,,,,,,,,,,,,,
950128,001,2022-11-21_24h51.15.094,Info_measure_main_exp,2022.2.2,Win32,12.00076805,,,,,,,,,,,,,0,2,2,4,1,masks/mask_005.jpg,,,,,,,,,,,,,,,,,,,,,,,,,,,,,,,,,
950128,001,2022-11-21_24h51.15.094,Info_measure_main_exp,2022.2.2,Win32,12.00076805,,,,,,,,,,,,,0,3,3,0,1,masks/mask_001.jpg,,,,,,,,,,,,,,,,,,,,,,,,,,,,,,,,,
950128,001,2022-11-21_24h51.15.094,Info_measure_main_exp,2022.2.2,Win32,12.00076805,,,,,,,,,,,,,0,4,4,1,1,masks/mask_002.jpg,,,,,,,,,,,,,,,,,,,,,,,,,,,,,,,,,
950128,001,2022-11-21_24h51.15.094,Info_measure_main_exp,2022.2.2,Win32,12.00076805,,,,,,,,,,,,,,,,,,masks/mask_004.jpg,0,0,0,3,1,,,,,,,,,,,,,,,,,,,,,,,,,,,,
950128,001,2022-11-21_24h51.15.094,Info_measure_main_exp,2022.2.2,Win32,12.00076805,,,,,,,,,,,,,,,,,,masks/mask_002.jpg,0,1,1,1,1,,,,,,,,,,,,,,,,,,,,,,,,,,,,
950128,001,2022-11-21_24h51.15.094,Info_measure_main_exp,2022.2.2,Win32,12.00076805,,,,,,,,,,,,,,,,,,masks/mask_003.jpg,0,2,2,2,1,,,,,,,,,,,,,,,,,,,,,,,,,,,,
950128,001,2022-11-21_24h51.15.094,Info_measure_main_exp,2022.2.2,Win32,12.00076805,,,,,,,,,,,,,,,,,,masks/mask_005.jpg,0,3,3,4,1,,,,,,,,,,,,,,,,,,,,,,,,,,,,
950128,001,2022-11-21_24h51.15.094,Info_measure_main_exp,2022.2.2,Win32,12.00076805,,,,,,,,,,,,,,,,,,masks/mask_001.jpg,0,4,4,0,1,,,,,,,,,,,,,,,,,,,,,,,,,,,,
950128,001,2022-11-21_24h51.15.094,Info_measure_main_exp,2022.2.2,Win32,12.00076805,,,,,,,,,,,,,,,,,,,,,,,,-0.018518519,-0.090740741,1,0,0,response5disk,3,1030.8611,1,-0.000925926,0.002777778,1,0,0,center_square,0,0,0,2,1,0,131,5,5,2526,2526,prac_patch/patch0002526.jpg,prac_patch/patch0002526.jpg
950128,001,2022-11-21_24h51.15.094,Info_measure_main_exp,2022.2.2,Win32,12.00076805,,,,,,,,,,,,,0,0,0,0,1,masks/mask_001.jpg,,,,,,,,,,,,,,,,,,,,,,,,,,,,,,,,,
950128,001,2022-11-21_24h51.15.094,Info_measure_main_exp,2022.2.2,Win32,12.00076805,,,,,,,,,,,,,0,1,1,1,1,masks/mask_002.jpg,,,,,,,,,,,,,,,,,,,,,,,,,,,,,,,,,
950128,001,2022-11-21_24h51.15.094,Info_measure_main_exp,2022.2.2,Win32,12.00076805,,,,,,,,,,,,,0,2,2,2,1,masks/mask_003.jpg,,,,,,,,,,,,,,,,,,,,,,,,,,,,,,,,,
950128,001,2022-11-21_24h51.15.094,Info_measure_main_exp,2022.2.2,Win32,12.00076805,,,,,,,,,,,,,0,3,3,3,1,masks/mask_004.jpg,,,,,,,,,,,,,,,,,,,,,,,,,,,,,,,,,
950128,001,2022-11-21_24h51.15.094,Info_measure_main_exp,2022.2.2,Win32,12.00076805,,,,,,,,,,,,,0,4,4,4,1,masks/mask_005.jpg,,,,,,,,,,,,,,,,,,,,,,,,,,,,,,,,,
950128,001,2022-11-21_24h51.15.094,Info_measure_main_exp,2022.2.2,Win32,12.00076805,,,,,,,,,,,,,,,,,,masks/mask_005.jpg,0,0,0,4,1,,,,,,,,,,,,,,,,,,,,,,,,,,,,
950128,001,2022-11-21_24h51.15.094,Info_measure_main_exp,2022.2.2,Win32,12.00076805,,,,,,,,,,,,,,,,,,masks/mask_003.jpg,0,1,1,2,1,,,,,,,,,,,,,,,,,,,,,,,,,,,,
950128,001,2022-11-21_24h51.15.094,Info_measure_main_exp,2022.2.2,Win32,12.00076805,,,,,,,,,,,,,,,,,,masks/mask_002.jpg,0,2,2,1,1,,,,,,,,,,,,,,,,,,,,,,,,,,,,
950128,001,2022-11-21_24h51.15.094,Info_measure_main_exp,2022.2.2,Win32,12.00076805,,,,,,,,,,,,,,,,,,masks/mask_001.jpg,0,3,3,0,1,,,,,,,,,,,,,,,,,,,,,,,,,,,,
950128,001,2022-11-21_24h51.15.094,Info_measure_main_exp,2022.2.2,Win32,12.00076805,,,,,,,,,,,,,,,,,,masks/mask_004.jpg,0,4,4,3,1,,,,,,,,,,,,,,,,,,,,,,,,,,,,
950128,001,2022-11-21_24h51.15.094,Info_measure_main_exp,2022.2.2,Win32,12.00076805,,,,,,,,,,,,,,,,,,,,,,,,0.035185185,-0.147222222,1,0,0,response3disk,4,1054.7847,1,0.001851852,0.003703704,1,0,0,center_square,0,1,1,0,1,0,131,5,5,2370,2406,prac_patch/patch0002370.jpg,prac_patch/patch0002406.jpg
950128,001,2022-11-21_24h51.15.094,Info_measure_main_exp,2022.2.2,Win32,12.00076805,,,,,,,,,,,,,0,0,0,2,1,masks/mask_003.jpg,,,,,,,,,,,,,,,,,,,,,,,,,,,,,,,,,
950128,001,2022-11-21_24h51.15.094,Info_measure_main_exp,2022.2.2,Win32,12.00076805,,,,,,,,,,,,,0,1,1,3,1,masks/mask_004.jpg,,,,,,,,,,,,,,,,,,,,,,,,,,,,,,,,,
950128,001,2022-11-21_24h51.15.094,Info_measure_main_exp,2022.2.2,Win32,12.00076805,,,,,,,,,,,,,0,2,2,4,1,masks/mask_005.jpg,,,,,,,,,,,,,,,,,,,,,,,,,,,,,,,,,
950128,001,2022-11-21_24h51.15.094,Info_measure_main_exp,2022.2.2,Win32,12.00076805,,,,,,,,,,,,,0,3,3,0,1,masks/mask_001.jpg,,,,,,,,,,,,,,,,,,,,,,,,,,,,,,,,,
950128,001,2022-11-21_24h51.15.094,Info_measure_main_exp,2022.2.2,Win32,12.00076805,,,,,,,,,,,,,0,4,4,1,1,masks/mask_002.jpg,,,,,,,,,,,,,,,,,,,,,,,,,,,,,,,,,
950128,001,2022-11-21_24h51.15.094,Info_measure_main_exp,2022.2.2,Win32,12.00076805,,,,,,,,,,,,,,,,,,masks/mask_002.jpg,0,0,0,1,1,,,,,,,,,,,,,,,,,,,,,,,,,,,,
950128,001,2022-11-21_24h51.15.094,Info_measure_main_exp,2022.2.2,Win32,12.00076805,,,,,,,,,,,,,,,,,,masks/mask_003.jpg,0,1,1,2,1,,,,,,,,,,,,,,,,,,,,,,,,,,,,
950128,001,2022-11-21_24h51.15.094,Info_measure_main_exp,2022.2.2,Win32,12.00076805,,,,,,,,,,,,,,,,,,masks/mask_004.jpg,0,2,2,3,1,,,,,,,,,,,,,,,,,,,,,,,,,,,,
950128,001,2022-11-21_24h51.15.094,Info_measure_main_exp,2022.2.2,Win32,12.00076805,,,,,,,,,,,,,,,,,,masks/mask_005.jpg,0,3,3,4,1,,,,,,,,,,,,,,,,,,,,,,,,,,,,
950128,001,2022-11-21_24h51.15.094,Info_measure_main_exp,2022.2.2,Win32,12.00076805,,,,,,,,,,,,,,,,,,masks/mask_001.jpg,0,4,4,0,1,,,,,,,,,,,,,,,,,,,,,,,,,,,,
